onset	duration	sample	trial_type	response_time	stim_file	item_name	category	serialpos	list	test	answer	experiment	session	subject
0.0	22.725	650483	SESS_START	n/a	n/a	n/a	n/a	-999	-999	[0, 0, 0]	n/a	catFR1	0	R1138T
22.725	10.428	673207	COUNTDOWN_START	n/a	n/a	n/a	n/a	-999	-999	[0, 0, 0]	n/a	catFR1	0	R1138T
33.153	3.726	683634	COUNTDOWN_END	n/a	n/a	n/a	n/a	-999	-999	[0, 0, 0]	n/a	catFR1	0	R1138T
36.879	2.6	687360	PRACTICE_WORD	n/a	n/a	CAMEL	n/a	-999	-999	[0, 0, 0]	n/a	catFR1	0	R1138T
39.479	2.484	689960	PRACTICE_WORD	n/a	n/a	WAGON	n/a	-999	-999	[0, 0, 0]	n/a	catFR1	0	R1138T
41.963	2.6	692444	PRACTICE_WORD	n/a	n/a	CHEST	n/a	-999	-999	[0, 0, 0]	n/a	catFR1	0	R1138T
44.563	2.584	695044	PRACTICE_WORD	n/a	n/a	BEAM	n/a	-999	-999	[0, 0, 0]	n/a	catFR1	0	R1138T
47.147	2.483	697628	PRACTICE_WORD	n/a	n/a	RING	n/a	-999	-999	[0, 0, 0]	n/a	catFR1	0	R1138T
49.63	2.617	700111	PRACTICE_WORD	n/a	n/a	COTTON	n/a	-999	-999	[0, 0, 0]	n/a	catFR1	0	R1138T
52.247	2.619	702727	PRACTICE_WORD	n/a	n/a	IRON	n/a	-999	-999	[0, 0, 0]	n/a	catFR1	0	R1138T
54.866	2.449	705346	PRACTICE_WORD	n/a	n/a	TONGUE	n/a	-999	-999	[0, 0, 0]	n/a	catFR1	0	R1138T
57.315	2.552	707795	PRACTICE_WORD	n/a	n/a	WATCH	n/a	-999	-999	[0, 0, 0]	n/a	catFR1	0	R1138T
59.867	2.432	710347	PRACTICE_WORD	n/a	n/a	ATTIC	n/a	-999	-999	[0, 0, 0]	n/a	catFR1	0	R1138T
62.299	2.585	712779	PRACTICE_WORD	n/a	n/a	FLOOD	n/a	-999	-999	[0, 0, 0]	n/a	catFR1	0	R1138T
64.884	1.616	715364	PRACTICE_WORD	n/a	n/a	RHINO	n/a	-999	-999	[0, 0, 0]	n/a	catFR1	0	R1138T
66.5	0.0	716980	PRACTICE_DISTRACT_START	n/a	n/a	n/a	n/a	-999	-999	[0, 0, 0]	n/a	catFR1	0	R1138T
66.5	0.017	716980	START	n/a	n/a	n/a	n/a	-999	-1	[-999, -999, -999]	n/a	catFR1	0	R1138T
66.517	5.584	716997	PROB	5.584	n/a	n/a	n/a	-999	-1	[2, 7, 1]	10	catFR1	0	R1138T
72.101	4.551	722580	PROB	4.551	n/a	n/a	n/a	-999	-1	[1, 5, 8]	14	catFR1	0	R1138T
76.652	4.551	727131	PROB	4.551	n/a	n/a	n/a	-999	-1	[3, 7, 1]	11	catFR1	0	R1138T
81.203	6.895	731682	PROB	6.895	n/a	n/a	n/a	-999	-1	[6, 8, 8]	22	catFR1	0	R1138T
88.098	0.006	738577	STOP	n/a	n/a	n/a	n/a	-999	-1	[-999, -999, -999]	n/a	catFR1	0	R1138T
88.104	0.619	738583	PRACTICE_DISTRACT_END	n/a	n/a	n/a	n/a	-999	-999	[0, 0, 0]	n/a	catFR1	0	R1138T
88.723	30.515	739202	PRACTICE_REC_START	n/a	n/a	n/a	n/a	-999	-999	[0, 0, 0]	n/a	catFR1	0	R1138T
119.238	15.041	769715	PRACTICE_REC_END	n/a	n/a	n/a	n/a	-999	-999	[0, 0, 0]	n/a	catFR1	0	R1138T
134.279	0.0	784755	TRIAL	n/a	n/a	n/a	n/a	-999	1	[0, 0, 0]	n/a	catFR1	0	R1138T
134.279	10.428	784755	COUNTDOWN_START	n/a	n/a	n/a	n/a	-999	1	[0, 0, 0]	n/a	catFR1	0	R1138T
144.707	0.007	795183	COUNTDOWN_END	n/a	n/a	n/a	n/a	-999	1	[0, 0, 0]	n/a	catFR1	0	R1138T
144.714	3.901	795190	ORIENT	n/a	n/a	n/a	n/a	-999	1	[0, 0, 0]	n/a	catFR1	0	R1138T
148.615	2.517	799091	WORD	n/a	wordpools/wordpool_categorized_EN.txt	LEVEL	Tools	1	1	[0, 0, 0]	n/a	catFR1	0	R1138T
151.132	2.601	801608	WORD	n/a	wordpools/wordpool_categorized_EN.txt	CROWBAR	Tools	2	1	[0, 0, 0]	n/a	catFR1	0	R1138T
153.733	2.55	804208	WORD	n/a	wordpools/wordpool_categorized_EN.txt	VAN	Vehicles	3	1	[0, 0, 0]	n/a	catFR1	0	R1138T
156.283	2.585	806758	WORD	n/a	wordpools/wordpool_categorized_EN.txt	TRAIN	Vehicles	4	1	[0, 0, 0]	n/a	catFR1	0	R1138T
158.868	2.583	809343	WORD	n/a	wordpools/wordpool_categorized_EN.txt	SHEEP	FarmAnimals	5	1	[0, 0, 0]	n/a	catFR1	0	R1138T
161.451	2.434	811926	WORD	n/a	wordpools/wordpool_categorized_EN.txt	LAMB	FarmAnimals	6	1	[0, 0, 0]	n/a	catFR1	0	R1138T
163.885	2.6	814360	WORD	n/a	wordpools/wordpool_categorized_EN.txt	SANDER	Tools	7	1	[0, 0, 0]	n/a	catFR1	0	R1138T
166.485	2.485	816960	WORD	n/a	wordpools/wordpool_categorized_EN.txt	SHOVEL	Tools	8	1	[0, 0, 0]	n/a	catFR1	0	R1138T
168.97	2.516	819445	WORD	n/a	wordpools/wordpool_categorized_EN.txt	ROOSTER	FarmAnimals	9	1	[0, 0, 0]	n/a	catFR1	0	R1138T
171.486	2.435	821961	WORD	n/a	wordpools/wordpool_categorized_EN.txt	COW	FarmAnimals	10	1	[0, 0, 0]	n/a	catFR1	0	R1138T
173.921	2.432	824395	WORD	n/a	wordpools/wordpool_categorized_EN.txt	BOAT	Vehicles	11	1	[0, 0, 0]	n/a	catFR1	0	R1138T
176.353	1.601	826827	WORD	n/a	wordpools/wordpool_categorized_EN.txt	MOPED	Vehicles	12	1	[0, 0, 0]	n/a	catFR1	0	R1138T
177.954	0.001	828428	DISTRACT_START	n/a	n/a	n/a	n/a	-999	1	[0, 0, 0]	n/a	catFR1	0	R1138T
177.955	0.016	828429	START	n/a	n/a	n/a	n/a	-999	1	[-999, -999, -999]	n/a	catFR1	0	R1138T
177.971	4.184	828445	PROB	4.184	n/a	n/a	n/a	-999	1	[5, 1, 1]	7	catFR1	0	R1138T
182.155	4.034	832629	PROB	4.034	n/a	n/a	n/a	-999	1	[8, 3, 8]	19	catFR1	0	R1138T
186.189	2.651	836663	PROB	2.651	n/a	n/a	n/a	-999	1	[6, 5, 1]	12	catFR1	0	R1138T
188.84	3.934	839314	PROB	3.934	n/a	n/a	n/a	-999	1	[5, 7, 5]	17	catFR1	0	R1138T
192.774	4.567	843248	PROB	4.567	n/a	n/a	n/a	-999	1	[2, 5, 3]	10	catFR1	0	R1138T
197.341	3.277	847814	PROB	3.277	n/a	n/a	n/a	-999	1	[4, 4, 4]	12	catFR1	0	R1138T
200.618	0.007	851091	STOP	n/a	n/a	n/a	n/a	-999	1	[-999, -999, -999]	n/a	catFR1	0	R1138T
200.625	1.104	851098	DISTRACT_END	n/a	n/a	n/a	n/a	-999	1	[0, 0, 0]	n/a	catFR1	0	R1138T
201.729	1.284	852202	REC_START	n/a	n/a	n/a	n/a	-999	1	[0, 0, 0]	n/a	catFR1	0	R1138T
203.013	8.211	853486	REC_WORD	8.211	n/a	CROWBAR	Tools	2	1	[0, 0, 0]	n/a	catFR1	0	R1138T
211.224	18.996	861697	REC_WORD	18.996	n/a	MOPED	Vehicles	12	1	[0, 0, 0]	n/a	catFR1	0	R1138T
230.22	1.517	880692	REC_WORD	1.517	n/a	CAR	n/a	-999	1	[0, 0, 0]	n/a	catFR1	0	R1138T
231.737	2.444	882209	REC_END	n/a	n/a	n/a	n/a	-999	1	[0, 0, 0]	n/a	catFR1	0	R1138T
234.181	0.0	884653	TRIAL	n/a	n/a	n/a	n/a	-999	2	[0, 0, 0]	n/a	catFR1	0	R1138T
234.181	10.428	884653	COUNTDOWN_START	n/a	n/a	n/a	n/a	-999	2	[0, 0, 0]	n/a	catFR1	0	R1138T
244.609	0.007	895080	COUNTDOWN_END	n/a	n/a	n/a	n/a	-999	2	[0, 0, 0]	n/a	catFR1	0	R1138T
244.616	3.867	895087	ORIENT	n/a	n/a	n/a	n/a	-999	2	[0, 0, 0]	n/a	catFR1	0	R1138T
248.483	2.402	898954	WORD	n/a	wordpools/wordpool_categorized_EN.txt	DISHWASHER	Appliances	1	2	[0, 0, 0]	n/a	catFR1	0	R1138T
250.885	2.582	901356	WORD	n/a	wordpools/wordpool_categorized_EN.txt	STOVE	Appliances	2	2	[0, 0, 0]	n/a	catFR1	0	R1138T
253.467	2.469	903938	WORD	n/a	wordpools/wordpool_categorized_EN.txt	BINDER	OfficeSupplies	3	2	[0, 0, 0]	n/a	catFR1	0	R1138T
255.936	2.566	906406	WORD	n/a	wordpools/wordpool_categorized_EN.txt	PENCIL	OfficeSupplies	4	2	[0, 0, 0]	n/a	catFR1	0	R1138T
258.502	2.485	908972	WORD	n/a	wordpools/wordpool_categorized_EN.txt	STAIRS	Building	5	2	[0, 0, 0]	n/a	catFR1	0	R1138T
260.987	2.599	911457	WORD	n/a	wordpools/wordpool_categorized_EN.txt	ROOF	Building	6	2	[0, 0, 0]	n/a	catFR1	0	R1138T
263.586	2.418	914056	WORD	n/a	wordpools/wordpool_categorized_EN.txt	IRON	Appliances	7	2	[0, 0, 0]	n/a	catFR1	0	R1138T
266.004	2.433	916474	WORD	n/a	wordpools/wordpool_categorized_EN.txt	MIXER	Appliances	8	2	[0, 0, 0]	n/a	catFR1	0	R1138T
268.437	2.518	918907	WORD	n/a	wordpools/wordpool_categorized_EN.txt	FOUNDATION	Building	9	2	[0, 0, 0]	n/a	catFR1	0	R1138T
270.955	2.566	921425	WORD	n/a	wordpools/wordpool_categorized_EN.txt	DOOR	Building	10	2	[0, 0, 0]	n/a	catFR1	0	R1138T
273.521	2.452	923991	WORD	n/a	wordpools/wordpool_categorized_EN.txt	ERASER	OfficeSupplies	11	2	[0, 0, 0]	n/a	catFR1	0	R1138T
275.973	1.616	926442	WORD	n/a	wordpools/wordpool_categorized_EN.txt	NOTEBOOK	OfficeSupplies	12	2	[0, 0, 0]	n/a	catFR1	0	R1138T
277.589	0.001	928058	DISTRACT_START	n/a	n/a	n/a	n/a	-999	2	[0, 0, 0]	n/a	catFR1	0	R1138T
277.59	0.015	928059	START	n/a	n/a	n/a	n/a	-999	2	[-999, -999, -999]	n/a	catFR1	0	R1138T
277.605	4.834	928074	PROB	4.834	n/a	n/a	n/a	-999	2	[5, 2, 9]	16	catFR1	0	R1138T
282.439	3.602	932908	PROB	3.602	n/a	n/a	n/a	-999	2	[2, 3, 1]	6	catFR1	0	R1138T
286.041	5.567	936510	PROB	5.567	n/a	n/a	n/a	-999	2	[9, 1, 8]	18	catFR1	0	R1138T
291.608	3.318	942077	PROB	3.318	n/a	n/a	n/a	-999	2	[3, 9, 9]	21	catFR1	0	R1138T
294.926	4.54	945395	PROB	4.54	n/a	n/a	n/a	-999	2	[2, 8, 8]	18	catFR1	0	R1138T
299.466	0.01	949934	STOP	n/a	n/a	n/a	n/a	-999	2	[-999, -999, -999]	n/a	catFR1	0	R1138T
299.476	1.117	949944	DISTRACT_END	n/a	n/a	n/a	n/a	-999	2	[0, 0, 0]	n/a	catFR1	0	R1138T
300.593	1.457	951061	REC_START	n/a	n/a	n/a	n/a	-999	2	[0, 0, 0]	n/a	catFR1	0	R1138T
302.05	9.223	952518	REC_WORD	9.223	n/a	ERASER	OfficeSupplies	11	2	[0, 0, 0]	n/a	catFR1	0	R1138T
311.273	10.577	961741	REC_WORD	10.577	n/a	CHAIR	n/a	-999	2	[0, 0, 0]	n/a	catFR1	0	R1138T
321.85	8.759	972317	REC_WORD	8.759	n/a	STAIRS	Building	5	2	[0, 0, 0]	n/a	catFR1	0	R1138T
330.609	2.556	981076	REC_END	n/a	n/a	n/a	n/a	-999	2	[0, 0, 0]	n/a	catFR1	0	R1138T
333.165	0.001	983632	COUNTDOWN_START	n/a	n/a	n/a	n/a	-999	3	[0, 0, 0]	n/a	catFR1	0	R1138T
333.166	10.427	983633	TRIAL	n/a	n/a	n/a	n/a	-999	3	[0, 0, 0]	n/a	catFR1	0	R1138T
343.593	0.008	994059	COUNTDOWN_END	n/a	n/a	n/a	n/a	-999	3	[0, 0, 0]	n/a	catFR1	0	R1138T
343.601	3.85	994067	ORIENT	n/a	n/a	n/a	n/a	-999	3	[0, 0, 0]	n/a	catFR1	0	R1138T
347.451	2.385	997917	WORD	n/a	wordpools/wordpool_categorized_EN.txt	ISLAND	Landscapes	1	3	[0, 0, 0]	n/a	catFR1	0	R1138T
349.836	2.599	1000302	WORD	n/a	wordpools/wordpool_categorized_EN.txt	WOODS	Landscapes	2	3	[0, 0, 0]	n/a	catFR1	0	R1138T
352.435	2.552	1002901	WORD	n/a	wordpools/wordpool_categorized_EN.txt	DOVE	Birds	3	3	[0, 0, 0]	n/a	catFR1	0	R1138T
354.987	2.499	1005453	WORD	n/a	wordpools/wordpool_categorized_EN.txt	SEAGULL	Birds	4	3	[0, 0, 0]	n/a	catFR1	0	R1138T
357.486	2.485	1007951	WORD	n/a	wordpools/wordpool_categorized_EN.txt	GRATER	KitchenTools	5	3	[0, 0, 0]	n/a	catFR1	0	R1138T
359.971	2.616	1010436	WORD	n/a	wordpools/wordpool_categorized_EN.txt	CORKSCREW	KitchenTools	6	3	[0, 0, 0]	n/a	catFR1	0	R1138T
362.587	2.518	1013052	WORD	n/a	wordpools/wordpool_categorized_EN.txt	BLUEBIRD	Birds	7	3	[0, 0, 0]	n/a	catFR1	0	R1138T
365.105	2.5	1015570	WORD	n/a	wordpools/wordpool_categorized_EN.txt	GOOSE	Birds	8	3	[0, 0, 0]	n/a	catFR1	0	R1138T
367.605	2.435	1018070	WORD	n/a	wordpools/wordpool_categorized_EN.txt	RIVER	Landscapes	9	3	[0, 0, 0]	n/a	catFR1	0	R1138T
370.04	2.566	1020505	WORD	n/a	wordpools/wordpool_categorized_EN.txt	FOREST	Landscapes	10	3	[0, 0, 0]	n/a	catFR1	0	R1138T
372.606	2.385	1023071	WORD	n/a	wordpools/wordpool_categorized_EN.txt	SPOON	KitchenTools	11	3	[0, 0, 0]	n/a	catFR1	0	R1138T
374.991	1.616	1025456	WORD	n/a	wordpools/wordpool_categorized_EN.txt	LADLE	KitchenTools	12	3	[0, 0, 0]	n/a	catFR1	0	R1138T
376.607	0.001	1027071	DISTRACT_START	n/a	n/a	n/a	n/a	-999	3	[0, 0, 0]	n/a	catFR1	0	R1138T
376.608	0.015	1027072	START	n/a	n/a	n/a	n/a	-999	3	[-999, -999, -999]	n/a	catFR1	0	R1138T
376.623	6.685	1027087	PROB	6.685	n/a	n/a	n/a	-999	3	[4, 8, 6]	18	catFR1	0	R1138T
383.308	2.767	1033772	PROB	2.767	n/a	n/a	n/a	-999	3	[5, 1, 6]	12	catFR1	0	R1138T
386.075	4.702	1036539	PROB	4.702	n/a	n/a	n/a	-999	3	[4, 3, 8]	15	catFR1	0	R1138T
390.777	3.65	1041241	PROB	3.65	n/a	n/a	n/a	-999	3	[5, 5, 5]	15	catFR1	0	R1138T
394.427	7.007	1044891	PROB	7.007	n/a	n/a	n/a	-999	3	[3, 6, 8]	17	catFR1	0	R1138T
401.434	0.01	1051897	STOP	n/a	n/a	n/a	n/a	-999	3	[-999, -999, -999]	n/a	catFR1	0	R1138T
401.444	1.035	1051907	DISTRACT_END	n/a	n/a	n/a	n/a	-999	3	[0, 0, 0]	n/a	catFR1	0	R1138T
402.479	2.197	1052942	REC_START	n/a	n/a	n/a	n/a	-999	3	[0, 0, 0]	n/a	catFR1	0	R1138T
404.676	2.225	1055139	REC_WORD	2.225	n/a	FOREST	Landscapes	10	3	[0, 0, 0]	n/a	catFR1	0	R1138T
406.901	25.589	1057364	REC_WORD	25.589	n/a	LADLE	KitchenTools	12	3	[0, 0, 0]	n/a	catFR1	0	R1138T
432.49	2.478	1082952	REC_END	n/a	n/a	n/a	n/a	-999	3	[0, 0, 0]	n/a	catFR1	0	R1138T
434.968	0.0	1085430	TRIAL	n/a	n/a	n/a	n/a	-999	4	[0, 0, 0]	n/a	catFR1	0	R1138T
434.968	10.428	1085430	COUNTDOWN_START	n/a	n/a	n/a	n/a	-999	4	[0, 0, 0]	n/a	catFR1	0	R1138T
445.396	0.006	1095857	COUNTDOWN_END	n/a	n/a	n/a	n/a	-999	4	[0, 0, 0]	n/a	catFR1	0	R1138T
445.402	3.701	1095863	ORIENT	n/a	n/a	n/a	n/a	-999	4	[0, 0, 0]	n/a	catFR1	0	R1138T
449.103	2.584	1099564	WORD	n/a	wordpools/wordpool_categorized_EN.txt	SCOOTER	Vehicles	1	4	[0, 0, 0]	n/a	catFR1	0	R1138T
451.687	2.5	1102148	WORD	n/a	wordpools/wordpool_categorized_EN.txt	JEEP	Vehicles	2	4	[0, 0, 0]	n/a	catFR1	0	R1138T
454.187	2.368	1104648	WORD	n/a	wordpools/wordpool_categorized_EN.txt	BOOKCASE	Furniture	3	4	[0, 0, 0]	n/a	catFR1	0	R1138T
456.555	2.501	1107016	WORD	n/a	wordpools/wordpool_categorized_EN.txt	RECLINER	Furniture	4	4	[0, 0, 0]	n/a	catFR1	0	R1138T
459.056	2.466	1109516	WORD	n/a	wordpools/wordpool_categorized_EN.txt	SPEAKER	Electronics	5	4	[0, 0, 0]	n/a	catFR1	0	R1138T
461.522	2.385	1111982	WORD	n/a	wordpools/wordpool_categorized_EN.txt	COMPUTER	Electronics	6	4	[0, 0, 0]	n/a	catFR1	0	R1138T
463.907	2.516	1114367	WORD	n/a	wordpools/wordpool_categorized_EN.txt	BUS	Vehicles	7	4	[0, 0, 0]	n/a	catFR1	0	R1138T
466.423	2.385	1116883	WORD	n/a	wordpools/wordpool_categorized_EN.txt	MOTORCYCLE	Vehicles	8	4	[0, 0, 0]	n/a	catFR1	0	R1138T
468.808	2.566	1119268	WORD	n/a	wordpools/wordpool_categorized_EN.txt	MICROWAVE	Electronics	9	4	[0, 0, 0]	n/a	catFR1	0	R1138T
471.374	2.401	1121834	WORD	n/a	wordpools/wordpool_categorized_EN.txt	CALCULATOR	Electronics	10	4	[0, 0, 0]	n/a	catFR1	0	R1138T
473.775	2.5	1124235	WORD	n/a	wordpools/wordpool_categorized_EN.txt	SHELF	Furniture	11	4	[0, 0, 0]	n/a	catFR1	0	R1138T
476.275	1.617	1126735	WORD	n/a	wordpools/wordpool_categorized_EN.txt	BED	Furniture	12	4	[0, 0, 0]	n/a	catFR1	0	R1138T
477.892	0.001	1128352	DISTRACT_START	n/a	n/a	n/a	n/a	-999	4	[0, 0, 0]	n/a	catFR1	0	R1138T
477.893	0.016	1128353	START	n/a	n/a	n/a	n/a	-999	4	[-999, -999, -999]	n/a	catFR1	0	R1138T
477.909	4.383	1128369	PROB	4.383	n/a	n/a	n/a	-999	4	[1, 1, 6]	8	catFR1	0	R1138T
482.292	6.052	1132751	PROB	6.052	n/a	n/a	n/a	-999	4	[4, 3, 2]	9	catFR1	0	R1138T
488.344	4.267	1138803	PROB	4.267	n/a	n/a	n/a	-999	4	[4, 3, 6]	13	catFR1	0	R1138T
492.611	2.567	1143070	PROB	2.567	n/a	n/a	n/a	-999	4	[5, 4, 2]	11	catFR1	0	R1138T
495.178	5.729	1145637	PROB	5.729	n/a	n/a	n/a	-999	4	[8, 4, 9]	21	catFR1	0	R1138T
500.907	0.007	1151365	STOP	n/a	n/a	n/a	n/a	-999	4	[-999, -999, -999]	n/a	catFR1	0	R1138T
500.914	1.05	1151372	DISTRACT_END	n/a	n/a	n/a	n/a	-999	4	[0, 0, 0]	n/a	catFR1	0	R1138T
501.964	2.919	1152422	REC_START	n/a	n/a	n/a	n/a	-999	4	[0, 0, 0]	n/a	catFR1	0	R1138T
504.883	2.753	1155341	REC_WORD	2.753	n/a	CAR	n/a	-999	4	[0, 0, 0]	n/a	catFR1	0	R1138T
507.636	3.544	1158094	REC_WORD	3.544	n/a	RECLINER	Furniture	4	4	[0, 0, 0]	n/a	catFR1	0	R1138T
511.18	5.564	1161638	REC_WORD	5.564	n/a	BED	Furniture	12	4	[0, 0, 0]	n/a	catFR1	0	R1138T
516.744	15.232	1167202	REC_WORD	15.232	n/a	SHELF	Furniture	11	4	[0, 0, 0]	n/a	catFR1	0	R1138T
531.976	2.376	1182433	REC_END	n/a	n/a	n/a	n/a	-999	4	[0, 0, 0]	n/a	catFR1	0	R1138T
534.352	0.0	1184809	TRIAL	n/a	n/a	n/a	n/a	-999	5	[0, 0, 0]	n/a	catFR1	0	R1138T
534.352	10.428	1184809	COUNTDOWN_START	n/a	n/a	n/a	n/a	-999	5	[0, 0, 0]	n/a	catFR1	0	R1138T
544.78	0.008	1195236	COUNTDOWN_END	n/a	n/a	n/a	n/a	-999	5	[0, 0, 0]	n/a	catFR1	0	R1138T
544.788	3.5	1195244	ORIENT	n/a	n/a	n/a	n/a	-999	5	[0, 0, 0]	n/a	catFR1	0	R1138T
548.288	2.4	1198744	WORD	n/a	wordpools/wordpool_categorized_EN.txt	SNOW	Weather	1	5	[0, 0, 0]	n/a	catFR1	0	R1138T
550.688	2.584	1201144	WORD	n/a	wordpools/wordpool_categorized_EN.txt	HURRICANE	Weather	2	5	[0, 0, 0]	n/a	catFR1	0	R1138T
553.272	2.585	1203728	WORD	n/a	wordpools/wordpool_categorized_EN.txt	COFFEE	Beverages	3	5	[0, 0, 0]	n/a	catFR1	0	R1138T
555.857	2.599	1206313	WORD	n/a	wordpools/wordpool_categorized_EN.txt	COLA	Beverages	4	5	[0, 0, 0]	n/a	catFR1	0	R1138T
558.456	2.601	1208912	WORD	n/a	wordpools/wordpool_categorized_EN.txt	KNEE	BodyParts	5	5	[0, 0, 0]	n/a	catFR1	0	R1138T
561.057	2.384	1211512	WORD	n/a	wordpools/wordpool_categorized_EN.txt	EYE	BodyParts	6	5	[0, 0, 0]	n/a	catFR1	0	R1138T
563.441	2.518	1213896	WORD	n/a	wordpools/wordpool_categorized_EN.txt	MILK	Beverages	7	5	[0, 0, 0]	n/a	catFR1	0	R1138T
565.959	2.383	1216414	WORD	n/a	wordpools/wordpool_categorized_EN.txt	WATER	Beverages	8	5	[0, 0, 0]	n/a	catFR1	0	R1138T
568.342	2.484	1218797	WORD	n/a	wordpools/wordpool_categorized_EN.txt	WIND	Weather	9	5	[0, 0, 0]	n/a	catFR1	0	R1138T
570.826	2.466	1221281	WORD	n/a	wordpools/wordpool_categorized_EN.txt	FOG	Weather	10	5	[0, 0, 0]	n/a	catFR1	0	R1138T
573.292	2.535	1223747	WORD	n/a	wordpools/wordpool_categorized_EN.txt	LEG	BodyParts	11	5	[0, 0, 0]	n/a	catFR1	0	R1138T
575.827	1.616	1226282	WORD	n/a	wordpools/wordpool_categorized_EN.txt	HAND	BodyParts	12	5	[0, 0, 0]	n/a	catFR1	0	R1138T
577.443	0.001	1227898	DISTRACT_START	n/a	n/a	n/a	n/a	-999	5	[0, 0, 0]	n/a	catFR1	0	R1138T
577.444	0.016	1227899	START	n/a	n/a	n/a	n/a	-999	5	[-999, -999, -999]	n/a	catFR1	0	R1138T
577.46	5.134	1227915	PROB	5.134	n/a	n/a	n/a	-999	5	[8, 1, 2]	11	catFR1	0	R1138T
582.594	4.352	1233048	PROB	4.352	n/a	n/a	n/a	-999	5	[9, 9, 9]	27	catFR1	0	R1138T
586.946	3.533	1237400	PROB	3.533	n/a	n/a	n/a	-999	5	[2, 5, 6]	13	catFR1	0	R1138T
590.479	4.634	1240933	PROB	4.634	n/a	n/a	n/a	-999	5	[2, 9, 9]	20	catFR1	0	R1138T
595.113	4.859	1245567	PROB	4.859	n/a	n/a	n/a	-999	5	[3, 8, 1]	12	catFR1	0	R1138T
599.972	0.01	1250425	STOP	n/a	n/a	n/a	n/a	-999	5	[-999, -999, -999]	n/a	catFR1	0	R1138T
599.982	1.183	1250435	DISTRACT_END	n/a	n/a	n/a	n/a	-999	5	[0, 0, 0]	n/a	catFR1	0	R1138T
601.165	2.143	1251618	REC_START	n/a	n/a	n/a	n/a	-999	5	[0, 0, 0]	n/a	catFR1	0	R1138T
603.308	0.782	1253761	REC_WORD	0.782	n/a	KNEE	BodyParts	5	5	[0, 0, 0]	n/a	catFR1	0	R1138T
604.09	1.612	1254543	REC_WORD	1.612	n/a	PIE	n/a	-999	5	[0, 0, 0]	n/a	catFR1	0	R1138T
605.702	7.113	1256155	REC_WORD	7.113	n/a	WIND	Weather	9	5	[0, 0, 0]	n/a	catFR1	0	R1138T
612.815	7.425	1263268	REC_WORD	7.425	n/a	CALCULATOR	n/a	-999	5	[0, 0, 0]	n/a	catFR1	0	R1138T
620.24	10.937	1270692	REC_WORD	10.937	n/a	COFFEE	Beverages	3	5	[0, 0, 0]	n/a	catFR1	0	R1138T
631.177	2.31	1281629	REC_END	n/a	n/a	n/a	n/a	-999	5	[0, 0, 0]	n/a	catFR1	0	R1138T
633.487	0.0	1283939	TRIAL	n/a	n/a	n/a	n/a	-999	6	[0, 0, 0]	n/a	catFR1	0	R1138T
633.487	10.428	1283939	COUNTDOWN_START	n/a	n/a	n/a	n/a	-999	6	[0, 0, 0]	n/a	catFR1	0	R1138T
643.915	0.008	1294366	COUNTDOWN_END	n/a	n/a	n/a	n/a	-999	6	[0, 0, 0]	n/a	catFR1	0	R1138T
643.923	3.7	1294374	ORIENT	n/a	n/a	n/a	n/a	-999	6	[0, 0, 0]	n/a	catFR1	0	R1138T
647.623	2.467	1298074	WORD	n/a	wordpools/wordpool_categorized_EN.txt	ROBIN	Birds	1	6	[0, 0, 0]	n/a	catFR1	0	R1138T
650.09	2.467	1300541	WORD	n/a	wordpools/wordpool_categorized_EN.txt	CARDINAL	Birds	2	6	[0, 0, 0]	n/a	catFR1	0	R1138T
652.557	2.567	1303008	WORD	n/a	wordpools/wordpool_categorized_EN.txt	WILLOW	Trees	3	6	[0, 0, 0]	n/a	catFR1	0	R1138T
655.124	2.617	1305575	WORD	n/a	wordpools/wordpool_categorized_EN.txt	CEDAR	Trees	4	6	[0, 0, 0]	n/a	catFR1	0	R1138T
657.741	2.384	1308192	WORD	n/a	wordpools/wordpool_categorized_EN.txt	PHONE	Electronics	5	6	[0, 0, 0]	n/a	catFR1	0	R1138T
660.125	2.5	1310576	WORD	n/a	wordpools/wordpool_categorized_EN.txt	HEADPHONES	Electronics	6	6	[0, 0, 0]	n/a	catFR1	0	R1138T
662.625	2.551	1313075	WORD	n/a	wordpools/wordpool_categorized_EN.txt	HICKORY	Trees	7	6	[0, 0, 0]	n/a	catFR1	0	R1138T
665.176	2.517	1315626	WORD	n/a	wordpools/wordpool_categorized_EN.txt	OAK	Trees	8	6	[0, 0, 0]	n/a	catFR1	0	R1138T
667.693	2.484	1318143	WORD	n/a	wordpools/wordpool_categorized_EN.txt	DUCK	Birds	9	6	[0, 0, 0]	n/a	catFR1	0	R1138T
670.177	2.483	1320627	WORD	n/a	wordpools/wordpool_categorized_EN.txt	SPARROW	Birds	10	6	[0, 0, 0]	n/a	catFR1	0	R1138T
672.66	2.501	1323110	WORD	n/a	wordpools/wordpool_categorized_EN.txt	TABLET	Electronics	11	6	[0, 0, 0]	n/a	catFR1	0	R1138T
675.161	1.618	1325611	WORD	n/a	wordpools/wordpool_categorized_EN.txt	STEREO	Electronics	12	6	[0, 0, 0]	n/a	catFR1	0	R1138T
676.779	0.001	1327229	DISTRACT_START	n/a	n/a	n/a	n/a	-999	6	[0, 0, 0]	n/a	catFR1	0	R1138T
676.78	0.016	1327230	START	n/a	n/a	n/a	n/a	-999	6	[-999, -999, -999]	n/a	catFR1	0	R1138T
676.796	3.833	1327246	PROB	3.833	n/a	n/a	n/a	-999	6	[2, 3, 7]	12	catFR1	0	R1138T
680.629	5.884	1331079	PROB	5.884	n/a	n/a	n/a	-999	6	[3, 4, 8]	15	catFR1	0	R1138T
686.513	3.717	1336962	PROB	3.717	n/a	n/a	n/a	-999	6	[3, 1, 3]	7	catFR1	0	R1138T
690.23	3.384	1340679	PROB	3.384	n/a	n/a	n/a	-999	6	[2, 7, 7]	16	catFR1	0	R1138T
693.614	4.468	1344063	PROB	4.468	n/a	n/a	n/a	-999	6	[6, 2, 7]	15	catFR1	0	R1138T
698.082	0.016	1348531	STOP	n/a	n/a	n/a	n/a	-999	6	[-999, -999, -999]	n/a	catFR1	0	R1138T
698.098	1.201	1348547	DISTRACT_END	n/a	n/a	n/a	n/a	-999	6	[0, 0, 0]	n/a	catFR1	0	R1138T
699.299	1.082	1349748	REC_START	n/a	n/a	n/a	n/a	-999	6	[0, 0, 0]	n/a	catFR1	0	R1138T
700.381	1.997	1350830	REC_WORD	1.997	n/a	STEREO	Electronics	12	6	[0, 0, 0]	n/a	catFR1	0	R1138T
702.378	26.936	1352826	REC_WORD	26.936	n/a	TABLET	Electronics	11	6	[0, 0, 0]	n/a	catFR1	0	R1138T
729.314	2.374	1379761	REC_END	n/a	n/a	n/a	n/a	-999	6	[0, 0, 0]	n/a	catFR1	0	R1138T
731.688	0.0	1382135	TRIAL	n/a	n/a	n/a	n/a	-999	7	[0, 0, 0]	n/a	catFR1	0	R1138T
731.688	10.428	1382135	COUNTDOWN_START	n/a	n/a	n/a	n/a	-999	7	[0, 0, 0]	n/a	catFR1	0	R1138T
742.116	0.007	1392562	COUNTDOWN_END	n/a	n/a	n/a	n/a	-999	7	[0, 0, 0]	n/a	catFR1	0	R1138T
742.123	3.768	1392569	ORIENT	n/a	n/a	n/a	n/a	-999	7	[0, 0, 0]	n/a	catFR1	0	R1138T
745.891	2.417	1396337	WORD	n/a	wordpools/wordpool_categorized_EN.txt	ELM	Trees	1	7	[0, 0, 0]	n/a	catFR1	0	R1138T
748.308	2.518	1398754	WORD	n/a	wordpools/wordpool_categorized_EN.txt	CYPRESS	Trees	2	7	[0, 0, 0]	n/a	catFR1	0	R1138T
750.826	2.482	1401272	WORD	n/a	wordpools/wordpool_categorized_EN.txt	TULIP	Flowers	3	7	[0, 0, 0]	n/a	catFR1	0	R1138T
753.308	2.469	1403754	WORD	n/a	wordpools/wordpool_categorized_EN.txt	ORCHID	Flowers	4	7	[0, 0, 0]	n/a	catFR1	0	R1138T
755.777	2.566	1406223	WORD	n/a	wordpools/wordpool_categorized_EN.txt	BROWNIES	Desserts	5	7	[0, 0, 0]	n/a	catFR1	0	R1138T
758.343	2.451	1408789	WORD	n/a	wordpools/wordpool_categorized_EN.txt	CUPCAKE	Desserts	6	7	[0, 0, 0]	n/a	catFR1	0	R1138T
760.794	2.5	1411240	WORD	n/a	wordpools/wordpool_categorized_EN.txt	LILY	Flowers	7	7	[0, 0, 0]	n/a	catFR1	0	R1138T
763.294	2.601	1413739	WORD	n/a	wordpools/wordpool_categorized_EN.txt	ROSE	Flowers	8	7	[0, 0, 0]	n/a	catFR1	0	R1138T
765.895	2.516	1416340	WORD	n/a	wordpools/wordpool_categorized_EN.txt	EVERGREEN	Trees	9	7	[0, 0, 0]	n/a	catFR1	0	R1138T
768.411	2.385	1418856	WORD	n/a	wordpools/wordpool_categorized_EN.txt	WALNUT	Trees	10	7	[0, 0, 0]	n/a	catFR1	0	R1138T
770.796	2.616	1421241	WORD	n/a	wordpools/wordpool_categorized_EN.txt	PIE	Desserts	11	7	[0, 0, 0]	n/a	catFR1	0	R1138T
773.412	1.601	1423857	WORD	n/a	wordpools/wordpool_categorized_EN.txt	COBBLER	Desserts	12	7	[0, 0, 0]	n/a	catFR1	0	R1138T
775.013	0.001	1425458	DISTRACT_START	n/a	n/a	n/a	n/a	-999	7	[0, 0, 0]	n/a	catFR1	0	R1138T
775.014	0.016	1425459	START	n/a	n/a	n/a	n/a	-999	7	[-999, -999, -999]	n/a	catFR1	0	R1138T
775.03	4.768	1425475	PROB	4.768	n/a	n/a	n/a	-999	7	[4, 9, 2]	15	catFR1	0	R1138T
779.798	4.533	1430243	PROB	4.533	n/a	n/a	n/a	-999	7	[8, 5, 2]	15	catFR1	0	R1138T
784.331	4.934	1434775	PROB	4.934	n/a	n/a	n/a	-999	7	[3, 1, 5]	9	catFR1	0	R1138T
789.265	4.851	1439709	PROB	4.851	n/a	n/a	n/a	-999	7	[6, 2, 8]	16	catFR1	0	R1138T
794.116	4.59	1444560	PROB	4.59	n/a	n/a	n/a	-999	7	[8, 5, 1]	14	catFR1	0	R1138T
798.706	0.011	1449150	STOP	n/a	n/a	n/a	n/a	-999	7	[-999, -999, -999]	n/a	catFR1	0	R1138T
798.717	1.151	1449161	DISTRACT_END	n/a	n/a	n/a	n/a	-999	7	[0, 0, 0]	n/a	catFR1	0	R1138T
799.868	1.295	1450312	REC_START	n/a	n/a	n/a	n/a	-999	7	[0, 0, 0]	n/a	catFR1	0	R1138T
801.163	1.354	1451607	REC_WORD	1.354	n/a	PIE	Desserts	11	7	[0, 0, 0]	n/a	catFR1	0	R1138T
802.517	23.529	1452961	REC_WORD	23.529	n/a	COBBLER	Desserts	12	7	[0, 0, 0]	n/a	catFR1	0	R1138T
826.046	3.838	1476488	REC_WORD	3.838	n/a	EVERGREEN	Trees	9	7	[0, 0, 0]	n/a	catFR1	0	R1138T
829.884	2.439	1480326	REC_END	n/a	n/a	n/a	n/a	-999	7	[0, 0, 0]	n/a	catFR1	0	R1138T
832.323	0.0	1482765	TRIAL	n/a	n/a	n/a	n/a	-999	8	[0, 0, 0]	n/a	catFR1	0	R1138T
832.323	10.428	1482765	COUNTDOWN_START	n/a	n/a	n/a	n/a	-999	8	[0, 0, 0]	n/a	catFR1	0	R1138T
842.751	0.008	1493193	COUNTDOWN_END	n/a	n/a	n/a	n/a	-999	8	[0, 0, 0]	n/a	catFR1	0	R1138T
842.759	3.866	1493201	ORIENT	n/a	n/a	n/a	n/a	-999	8	[0, 0, 0]	n/a	catFR1	0	R1138T
846.625	2.518	1497066	WORD	n/a	wordpools/wordpool_categorized_EN.txt	FOLDER	OfficeSupplies	1	8	[0, 0, 0]	n/a	catFR1	0	R1138T
849.143	2.566	1499584	WORD	n/a	wordpools/wordpool_categorized_EN.txt	PEN	OfficeSupplies	2	8	[0, 0, 0]	n/a	catFR1	0	R1138T
851.709	2.468	1502150	WORD	n/a	wordpools/wordpool_categorized_EN.txt	CHICKEN	FarmAnimals	3	8	[0, 0, 0]	n/a	catFR1	0	R1138T
854.177	2.534	1504618	WORD	n/a	wordpools/wordpool_categorized_EN.txt	BULL	FarmAnimals	4	8	[0, 0, 0]	n/a	catFR1	0	R1138T
856.711	2.567	1507152	WORD	n/a	wordpools/wordpool_categorized_EN.txt	CELLO	Instruments	5	8	[0, 0, 0]	n/a	catFR1	0	R1138T
859.278	2.585	1509719	WORD	n/a	wordpools/wordpool_categorized_EN.txt	DRUM	Instruments	6	8	[0, 0, 0]	n/a	catFR1	0	R1138T
861.863	2.582	1512304	WORD	n/a	wordpools/wordpool_categorized_EN.txt	TAPE	OfficeSupplies	7	8	[0, 0, 0]	n/a	catFR1	0	R1138T
864.445	2.502	1514885	WORD	n/a	wordpools/wordpool_categorized_EN.txt	GLUE	OfficeSupplies	8	8	[0, 0, 0]	n/a	catFR1	0	R1138T
866.947	2.483	1517387	WORD	n/a	wordpools/wordpool_categorized_EN.txt	BANJO	Instruments	9	8	[0, 0, 0]	n/a	catFR1	0	R1138T
869.43	2.401	1519870	WORD	n/a	wordpools/wordpool_categorized_EN.txt	PIANO	Instruments	10	8	[0, 0, 0]	n/a	catFR1	0	R1138T
871.831	2.533	1522271	WORD	n/a	wordpools/wordpool_categorized_EN.txt	HEN	FarmAnimals	11	8	[0, 0, 0]	n/a	catFR1	0	R1138T
874.364	1.618	1524804	WORD	n/a	wordpools/wordpool_categorized_EN.txt	PIG	FarmAnimals	12	8	[0, 0, 0]	n/a	catFR1	0	R1138T
875.982	0.001	1526422	DISTRACT_START	n/a	n/a	n/a	n/a	-999	8	[0, 0, 0]	n/a	catFR1	0	R1138T
875.983	0.015	1526423	START	n/a	n/a	n/a	n/a	-999	8	[-999, -999, -999]	n/a	catFR1	0	R1138T
875.998	6.601	1526438	PROB	6.601	n/a	n/a	n/a	-999	8	[6, 5, 7]	18	catFR1	0	R1138T
882.599	5.567	1533039	PROB	5.567	n/a	n/a	n/a	-999	8	[7, 6, 4]	17	catFR1	0	R1138T
888.166	6.636	1538605	PROB	6.636	n/a	n/a	n/a	-999	8	[4, 7, 2]	13	catFR1	0	R1138T
894.802	5.896	1545241	PROB	5.896	n/a	n/a	n/a	-999	8	[5, 1, 8]	14	catFR1	0	R1138T
900.698	0.021	1551137	STOP	n/a	n/a	n/a	n/a	-999	8	[-999, -999, -999]	n/a	catFR1	0	R1138T
900.719	1.035	1551158	DISTRACT_END	n/a	n/a	n/a	n/a	-999	8	[0, 0, 0]	n/a	catFR1	0	R1138T
901.754	1.458	1552193	REC_START	n/a	n/a	n/a	n/a	-999	8	[0, 0, 0]	n/a	catFR1	0	R1138T
903.212	28.553	1553651	REC_WORD	28.553	n/a	HEN	FarmAnimals	11	8	[0, 0, 0]	n/a	catFR1	0	R1138T
931.765	2.643	1582202	REC_END	n/a	n/a	n/a	n/a	-999	8	[0, 0, 0]	n/a	catFR1	0	R1138T
934.408	0.0	1584845	TRIAL	n/a	n/a	n/a	n/a	-999	9	[0, 0, 0]	n/a	catFR1	0	R1138T
934.408	10.428	1584845	COUNTDOWN_START	n/a	n/a	n/a	n/a	-999	9	[0, 0, 0]	n/a	catFR1	0	R1138T
944.836	0.008	1595273	COUNTDOWN_END	n/a	n/a	n/a	n/a	-999	9	[0, 0, 0]	n/a	catFR1	0	R1138T
944.844	3.617	1595281	ORIENT	n/a	n/a	n/a	n/a	-999	9	[0, 0, 0]	n/a	catFR1	0	R1138T
948.461	2.617	1598897	WORD	n/a	wordpools/wordpool_categorized_EN.txt	BEE	Insects	1	9	[0, 0, 0]	n/a	catFR1	0	R1138T
951.078	2.517	1601514	WORD	n/a	wordpools/wordpool_categorized_EN.txt	ROACH	Insects	2	9	[0, 0, 0]	n/a	catFR1	0	R1138T
953.595	2.435	1604031	WORD	n/a	wordpools/wordpool_categorized_EN.txt	COLANDER	KitchenTools	3	9	[0, 0, 0]	n/a	catFR1	0	R1138T
956.03	2.616	1606466	WORD	n/a	wordpools/wordpool_categorized_EN.txt	STRAINER	KitchenTools	4	9	[0, 0, 0]	n/a	catFR1	0	R1138T
958.646	2.45	1609082	WORD	n/a	wordpools/wordpool_categorized_EN.txt	SUNFLOWER	Flowers	5	9	[0, 0, 0]	n/a	catFR1	0	R1138T
961.096	2.417	1611532	WORD	n/a	wordpools/wordpool_categorized_EN.txt	PETUNIA	Flowers	6	9	[0, 0, 0]	n/a	catFR1	0	R1138T
963.513	2.618	1613949	WORD	n/a	wordpools/wordpool_categorized_EN.txt	BEETLE	Insects	7	9	[0, 0, 0]	n/a	catFR1	0	R1138T
966.131	2.617	1616566	WORD	n/a	wordpools/wordpool_categorized_EN.txt	ANT	Insects	8	9	[0, 0, 0]	n/a	catFR1	0	R1138T
968.748	2.483	1619183	WORD	n/a	wordpools/wordpool_categorized_EN.txt	VIOLET	Flowers	9	9	[0, 0, 0]	n/a	catFR1	0	R1138T
971.231	2.418	1621666	WORD	n/a	wordpools/wordpool_categorized_EN.txt	LILAC	Flowers	10	9	[0, 0, 0]	n/a	catFR1	0	R1138T
973.649	2.517	1624084	WORD	n/a	wordpools/wordpool_categorized_EN.txt	WHISK	KitchenTools	11	9	[0, 0, 0]	n/a	catFR1	0	R1138T
976.166	1.618	1626601	WORD	n/a	wordpools/wordpool_categorized_EN.txt	PEELER	KitchenTools	12	9	[0, 0, 0]	n/a	catFR1	0	R1138T
977.784	0.001	1628219	DISTRACT_START	n/a	n/a	n/a	n/a	-999	9	[0, 0, 0]	n/a	catFR1	0	R1138T
977.785	0.015	1628220	START	n/a	n/a	n/a	n/a	-999	9	[-999, -999, -999]	n/a	catFR1	0	R1138T
977.8	6.434	1628235	PROB	6.434	n/a	n/a	n/a	-999	9	[7, 4, 6]	17	catFR1	0	R1138T
984.234	6.118	1634669	PROB	6.118	n/a	n/a	n/a	-999	9	[4, 9, 5]	18	catFR1	0	R1138T
990.352	5.901	1640786	PROB	5.901	n/a	n/a	n/a	-999	9	[6, 1, 5]	12	catFR1	0	R1138T
996.253	3.702	1646687	PROB	3.702	n/a	n/a	n/a	-999	9	[9, 9, 9]	27	catFR1	0	R1138T
999.955	0.016	1650389	STOP	n/a	n/a	n/a	n/a	-999	9	[-999, -999, -999]	n/a	catFR1	0	R1138T
999.971	1.183	1650405	DISTRACT_END	n/a	n/a	n/a	n/a	-999	9	[0, 0, 0]	n/a	catFR1	0	R1138T
1001.154	0.892	1651588	REC_START	n/a	n/a	n/a	n/a	-999	9	[0, 0, 0]	n/a	catFR1	0	R1138T
1002.046	0.745	1652480	REC_WORD	0.745	n/a	BEE	Insects	1	9	[0, 0, 0]	n/a	catFR1	0	R1138T
1002.791	2.832	1653225	REC_WORD	2.832	n/a	ROACH	Insects	2	9	[0, 0, 0]	n/a	catFR1	0	R1138T
1005.623	9.077	1656057	REC_WORD	9.077	n/a	COLANDER	KitchenTools	3	9	[0, 0, 0]	n/a	catFR1	0	R1138T
1014.7	16.477	1665133	REC_WORD	16.477	n/a	WHISK	KitchenTools	11	9	[0, 0, 0]	n/a	catFR1	0	R1138T
1031.177	2.516	1681609	REC_END	n/a	n/a	n/a	n/a	-999	9	[0, 0, 0]	n/a	catFR1	0	R1138T
1033.693	0.0	1684125	TRIAL	n/a	n/a	n/a	n/a	-999	10	[0, 0, 0]	n/a	catFR1	0	R1138T
1033.693	10.428	1684125	COUNTDOWN_START	n/a	n/a	n/a	n/a	-999	10	[0, 0, 0]	n/a	catFR1	0	R1138T
1044.121	0.007	1694553	COUNTDOWN_END	n/a	n/a	n/a	n/a	-999	10	[0, 0, 0]	n/a	catFR1	0	R1138T
1044.128	3.818	1694560	ORIENT	n/a	n/a	n/a	n/a	-999	10	[0, 0, 0]	n/a	catFR1	0	R1138T
1047.946	2.533	1698377	WORD	n/a	wordpools/wordpool_categorized_EN.txt	THUNDER	Weather	1	10	[0, 0, 0]	n/a	catFR1	0	R1138T
1050.479	2.552	1700910	WORD	n/a	wordpools/wordpool_categorized_EN.txt	CLOUD	Weather	2	10	[0, 0, 0]	n/a	catFR1	0	R1138T
1053.031	2.549	1703462	WORD	n/a	wordpools/wordpool_categorized_EN.txt	PANDA	Zoo	3	10	[0, 0, 0]	n/a	catFR1	0	R1138T
1055.58	2.385	1706011	WORD	n/a	wordpools/wordpool_categorized_EN.txt	BEAR	Zoo	4	10	[0, 0, 0]	n/a	catFR1	0	R1138T
1057.965	2.466	1708396	WORD	n/a	wordpools/wordpool_categorized_EN.txt	SAW	Tools	5	10	[0, 0, 0]	n/a	catFR1	0	R1138T
1060.431	2.585	1710862	WORD	n/a	wordpools/wordpool_categorized_EN.txt	HAMMER	Tools	6	10	[0, 0, 0]	n/a	catFR1	0	R1138T
1063.016	2.383	1713447	WORD	n/a	wordpools/wordpool_categorized_EN.txt	RAIN	Weather	7	10	[0, 0, 0]	n/a	catFR1	0	R1138T
1065.399	2.601	1715830	WORD	n/a	wordpools/wordpool_categorized_EN.txt	DRIZZLE	Weather	8	10	[0, 0, 0]	n/a	catFR1	0	R1138T
1068.0	2.599	1718430	WORD	n/a	wordpools/wordpool_categorized_EN.txt	WRENCH	Tools	9	10	[0, 0, 0]	n/a	catFR1	0	R1138T
1070.599	2.419	1721029	WORD	n/a	wordpools/wordpool_categorized_EN.txt	AXE	Tools	10	10	[0, 0, 0]	n/a	catFR1	0	R1138T
1073.018	2.466	1723448	WORD	n/a	wordpools/wordpool_categorized_EN.txt	MONKEY	Zoo	11	10	[0, 0, 0]	n/a	catFR1	0	R1138T
1075.484	1.617	1725914	WORD	n/a	wordpools/wordpool_categorized_EN.txt	ZEBRA	Zoo	12	10	[0, 0, 0]	n/a	catFR1	0	R1138T
1077.101	0.001	1727531	DISTRACT_START	n/a	n/a	n/a	n/a	-999	10	[0, 0, 0]	n/a	catFR1	0	R1138T
1077.102	0.015	1727532	START	n/a	n/a	n/a	n/a	-999	10	[-999, -999, -999]	n/a	catFR1	0	R1138T
1077.117	4.568	1727547	PROB	4.568	n/a	n/a	n/a	-999	10	[9, 9, 2]	20	catFR1	0	R1138T
1081.685	4.434	1732115	PROB	4.434	n/a	n/a	n/a	-999	10	[7, 1, 4]	12	catFR1	0	R1138T
1086.119	5.334	1736549	PROB	5.334	n/a	n/a	n/a	-999	10	[4, 2, 9]	15	catFR1	0	R1138T
1091.453	4.985	1741882	PROB	4.985	n/a	n/a	n/a	-999	10	[6, 8, 7]	21	catFR1	0	R1138T
1096.438	4.988	1746867	PROB	4.988	n/a	n/a	n/a	-999	10	[1, 6, 9]	16	catFR1	0	R1138T
1101.426	0.012	1751855	STOP	n/a	n/a	n/a	n/a	-999	10	[-999, -999, -999]	n/a	catFR1	0	R1138T
1101.438	1.035	1751867	DISTRACT_END	n/a	n/a	n/a	n/a	-999	10	[0, 0, 0]	n/a	catFR1	0	R1138T
1102.473	1.41	1752902	REC_START	n/a	n/a	n/a	n/a	-999	10	[0, 0, 0]	n/a	catFR1	0	R1138T
1103.883	0.954	1754312	REC_WORD	0.954	n/a	THUNDER	Weather	1	10	[0, 0, 0]	n/a	catFR1	0	R1138T
1104.837	1.965	1755266	REC_WORD	1.965	n/a	CLOUD	Weather	2	10	[0, 0, 0]	n/a	catFR1	0	R1138T
1106.802	25.683	1757231	REC_WORD	25.683	n/a	RAIN	Weather	7	10	[0, 0, 0]	n/a	catFR1	0	R1138T
1132.485	2.544	1782912	REC_END	n/a	n/a	n/a	n/a	-999	10	[0, 0, 0]	n/a	catFR1	0	R1138T
1135.029	0.0	1785456	TRIAL	n/a	n/a	n/a	n/a	-999	11	[0, 0, 0]	n/a	catFR1	0	R1138T
1135.029	10.428	1785456	COUNTDOWN_START	n/a	n/a	n/a	n/a	-999	11	[0, 0, 0]	n/a	catFR1	0	R1138T
1145.457	0.006	1795884	COUNTDOWN_END	n/a	n/a	n/a	n/a	-999	11	[0, 0, 0]	n/a	catFR1	0	R1138T
1145.463	3.784	1795890	ORIENT	n/a	n/a	n/a	n/a	-999	11	[0, 0, 0]	n/a	catFR1	0	R1138T
1149.247	2.535	1799673	WORD	n/a	wordpools/wordpool_categorized_EN.txt	DOLL	Toys	1	11	[0, 0, 0]	n/a	catFR1	0	R1138T
1151.782	2.583	1802208	WORD	n/a	wordpools/wordpool_categorized_EN.txt	FOOTBALL	Toys	2	11	[0, 0, 0]	n/a	catFR1	0	R1138T
1154.365	2.585	1804791	WORD	n/a	wordpools/wordpool_categorized_EN.txt	WASHER	Appliances	3	11	[0, 0, 0]	n/a	catFR1	0	R1138T
1156.95	2.382	1807376	WORD	n/a	wordpools/wordpool_categorized_EN.txt	VACUUM	Appliances	4	11	[0, 0, 0]	n/a	catFR1	0	R1138T
1159.332	2.585	1809758	WORD	n/a	wordpools/wordpool_categorized_EN.txt	SHOES	Clothing	5	11	[0, 0, 0]	n/a	catFR1	0	R1138T
1161.917	2.416	1812343	WORD	n/a	wordpools/wordpool_categorized_EN.txt	JEANS	Clothing	6	11	[0, 0, 0]	n/a	catFR1	0	R1138T
1164.333	2.535	1814759	WORD	n/a	wordpools/wordpool_categorized_EN.txt	BARBIE	Toys	7	11	[0, 0, 0]	n/a	catFR1	0	R1138T
1166.868	2.433	1817294	WORD	n/a	wordpools/wordpool_categorized_EN.txt	FRISBEE	Toys	8	11	[0, 0, 0]	n/a	catFR1	0	R1138T
1169.301	2.4	1819726	WORD	n/a	wordpools/wordpool_categorized_EN.txt	DRESS	Clothing	9	11	[0, 0, 0]	n/a	catFR1	0	R1138T
1171.701	2.434	1822126	WORD	n/a	wordpools/wordpool_categorized_EN.txt	SOCKS	Clothing	10	11	[0, 0, 0]	n/a	catFR1	0	R1138T
1174.135	2.467	1824560	WORD	n/a	wordpools/wordpool_categorized_EN.txt	REFRIGERATOR	Appliances	11	11	[0, 0, 0]	n/a	catFR1	0	R1138T
1176.602	1.617	1827027	WORD	n/a	wordpools/wordpool_categorized_EN.txt	DRYER	Appliances	12	11	[0, 0, 0]	n/a	catFR1	0	R1138T
1178.219	0.001	1828644	DISTRACT_START	n/a	n/a	n/a	n/a	-999	11	[0, 0, 0]	n/a	catFR1	0	R1138T
1178.22	0.016	1828645	START	n/a	n/a	n/a	n/a	-999	11	[-999, -999, -999]	n/a	catFR1	0	R1138T
1178.236	4.652	1828661	PROB	4.652	n/a	n/a	n/a	-999	11	[2, 5, 7]	14	catFR1	0	R1138T
1182.888	3.183	1833313	PROB	3.183	n/a	n/a	n/a	-999	11	[2, 4, 6]	12	catFR1	0	R1138T
1186.071	3.751	1836496	PROB	3.751	n/a	n/a	n/a	-999	11	[7, 2, 5]	14	catFR1	0	R1138T
1189.822	7.201	1840246	PROB	7.201	n/a	n/a	n/a	-999	11	[6, 7, 5]	18	catFR1	0	R1138T
1197.023	4.956	1847447	PROB	4.956	n/a	n/a	n/a	-999	11	[4, 4, 8]	16	catFR1	0	R1138T
1201.979	0.012	1852403	STOP	n/a	n/a	n/a	n/a	-999	11	[-999, -999, -999]	n/a	catFR1	0	R1138T
1201.991	1.067	1852415	DISTRACT_END	n/a	n/a	n/a	n/a	-999	11	[0, 0, 0]	n/a	catFR1	0	R1138T
1203.058	1.383	1853482	REC_START	n/a	n/a	n/a	n/a	-999	11	[0, 0, 0]	n/a	catFR1	0	R1138T
1204.441	2.144	1854865	REC_WORD	2.144	n/a	REFRIGERATOR	Appliances	11	11	[0, 0, 0]	n/a	catFR1	0	R1138T
1206.585	7.567	1857009	REC_WORD	7.567	n/a	FOOTBALL	Toys	2	11	[0, 0, 0]	n/a	catFR1	0	R1138T
1214.152	18.918	1864575	REC_WORD	18.918	n/a	JEANS	Clothing	6	11	[0, 0, 0]	n/a	catFR1	0	R1138T
1233.07	5.027	1883492	REC_END	n/a	n/a	n/a	n/a	-999	11	[0, 0, 0]	n/a	catFR1	0	R1138T
1238.097	0.0	1888519	TRIAL	n/a	n/a	n/a	n/a	-999	12	[0, 0, 0]	n/a	catFR1	0	R1138T
1238.097	10.428	1888519	COUNTDOWN_START	n/a	n/a	n/a	n/a	-999	12	[0, 0, 0]	n/a	catFR1	0	R1138T
1248.525	0.007	1898947	COUNTDOWN_END	n/a	n/a	n/a	n/a	-999	12	[0, 0, 0]	n/a	catFR1	0	R1138T
1248.532	3.751	1898954	ORIENT	n/a	n/a	n/a	n/a	-999	12	[0, 0, 0]	n/a	catFR1	0	R1138T
1252.283	2.484	1902704	WORD	n/a	wordpools/wordpool_categorized_EN.txt	MARKER	OfficeSupplies	1	12	[0, 0, 0]	n/a	catFR1	0	R1138T
1254.767	2.45	1905188	WORD	n/a	wordpools/wordpool_categorized_EN.txt	STAPLER	OfficeSupplies	2	12	[0, 0, 0]	n/a	catFR1	0	R1138T
1257.217	2.601	1907638	WORD	n/a	wordpools/wordpool_categorized_EN.txt	SHRIMP	OceanAnimals	3	12	[0, 0, 0]	n/a	catFR1	0	R1138T
1259.818	2.433	1910239	WORD	n/a	wordpools/wordpool_categorized_EN.txt	WHALE	OceanAnimals	4	12	[0, 0, 0]	n/a	catFR1	0	R1138T
1262.251	2.484	1912672	WORD	n/a	wordpools/wordpool_categorized_EN.txt	BLOUSE	Clothing	5	12	[0, 0, 0]	n/a	catFR1	0	R1138T
1264.735	2.417	1915156	WORD	n/a	wordpools/wordpool_categorized_EN.txt	PANTS	Clothing	6	12	[0, 0, 0]	n/a	catFR1	0	R1138T
1267.152	2.417	1917573	WORD	n/a	wordpools/wordpool_categorized_EN.txt	FISH	OceanAnimals	7	12	[0, 0, 0]	n/a	catFR1	0	R1138T
1269.569	2.468	1919990	WORD	n/a	wordpools/wordpool_categorized_EN.txt	PLANKTON	OceanAnimals	8	12	[0, 0, 0]	n/a	catFR1	0	R1138T
1272.037	2.5	1922457	WORD	n/a	wordpools/wordpool_categorized_EN.txt	PAPER	OfficeSupplies	9	12	[0, 0, 0]	n/a	catFR1	0	R1138T
1274.537	2.6	1924957	WORD	n/a	wordpools/wordpool_categorized_EN.txt	RULER	OfficeSupplies	10	12	[0, 0, 0]	n/a	catFR1	0	R1138T
1277.137	2.484	1927557	WORD	n/a	wordpools/wordpool_categorized_EN.txt	COAT	Clothing	11	12	[0, 0, 0]	n/a	catFR1	0	R1138T
1279.621	1.617	1930041	WORD	n/a	wordpools/wordpool_categorized_EN.txt	JACKET	Clothing	12	12	[0, 0, 0]	n/a	catFR1	0	R1138T
1281.238	0.001	1931658	DISTRACT_START	n/a	n/a	n/a	n/a	-999	12	[0, 0, 0]	n/a	catFR1	0	R1138T
1281.239	0.016	1931659	START	n/a	n/a	n/a	n/a	-999	12	[-999, -999, -999]	n/a	catFR1	0	R1138T
1281.255	6.234	1931675	PROB	6.234	n/a	n/a	n/a	-999	12	[4, 9, 8]	21	catFR1	0	R1138T
1287.489	2.684	1937909	PROB	2.684	n/a	n/a	n/a	-999	12	[4, 4, 3]	11	catFR1	0	R1138T
1290.173	4.768	1940592	PROB	4.768	n/a	n/a	n/a	-999	12	[7, 7, 6]	20	catFR1	0	R1138T
1294.941	3.868	1945360	PROB	3.868	n/a	n/a	n/a	-999	12	[7, 2, 3]	12	catFR1	0	R1138T
1298.809	5.745	1949228	PROB	5.745	n/a	n/a	n/a	-999	12	[7, 5, 1]	13	catFR1	0	R1138T
1304.554	0.004	1954973	STOP	n/a	n/a	n/a	n/a	-999	12	[-999, -999, -999]	n/a	catFR1	0	R1138T
1304.558	1.168	1954977	DISTRACT_END	n/a	n/a	n/a	n/a	-999	12	[0, 0, 0]	n/a	catFR1	0	R1138T
1305.726	1.39	1956145	REC_START	n/a	n/a	n/a	n/a	-999	12	[0, 0, 0]	n/a	catFR1	0	R1138T
1307.116	1.046	1957535	REC_WORD	1.046	n/a	PAPER	OfficeSupplies	9	12	[0, 0, 0]	n/a	catFR1	0	R1138T
1308.162	1.978	1958581	REC_WORD	1.978	n/a	RULER	OfficeSupplies	10	12	[0, 0, 0]	n/a	catFR1	0	R1138T
1310.14	25.598	1960559	REC_WORD	25.598	n/a	COAT	Clothing	11	12	[0, 0, 0]	n/a	catFR1	0	R1138T
1335.738	2.145	1986155	REC_END	n/a	n/a	n/a	n/a	-999	12	[0, 0, 0]	n/a	catFR1	0	R1138T
1337.883	0.0	1988300	TRIAL	n/a	n/a	n/a	n/a	-999	13	[0, 0, 0]	n/a	catFR1	0	R1138T
1337.883	10.428	1988300	COUNTDOWN_START	n/a	n/a	n/a	n/a	-999	13	[0, 0, 0]	n/a	catFR1	0	R1138T
1348.311	0.006	1998728	COUNTDOWN_END	n/a	n/a	n/a	n/a	-999	13	[0, 0, 0]	n/a	catFR1	0	R1138T
1348.317	3.685	1998734	ORIENT	n/a	n/a	n/a	n/a	-999	13	[0, 0, 0]	n/a	catFR1	0	R1138T
1352.002	2.466	2002418	WORD	n/a	wordpools/wordpool_categorized_EN.txt	PEAR	Fruit	1	13	[0, 0, 0]	n/a	catFR1	0	R1138T
1354.468	2.568	2004884	WORD	n/a	wordpools/wordpool_categorized_EN.txt	APPLE	Fruit	2	13	[0, 0, 0]	n/a	catFR1	0	R1138T
1357.036	2.45	2007452	WORD	n/a	wordpools/wordpool_categorized_EN.txt	BLOCKS	Toys	3	13	[0, 0, 0]	n/a	catFR1	0	R1138T
1359.486	2.451	2009902	WORD	n/a	wordpools/wordpool_categorized_EN.txt	SLINKY	Toys	4	13	[0, 0, 0]	n/a	catFR1	0	R1138T
1361.937	2.516	2012353	WORD	n/a	wordpools/wordpool_categorized_EN.txt	CAR	Vehicles	5	13	[0, 0, 0]	n/a	catFR1	0	R1138T
1364.453	2.435	2014869	WORD	n/a	wordpools/wordpool_categorized_EN.txt	PLANE	Vehicles	6	13	[0, 0, 0]	n/a	catFR1	0	R1138T
1366.888	2.516	2017304	WORD	n/a	wordpools/wordpool_categorized_EN.txt	GRAPE	Fruit	7	13	[0, 0, 0]	n/a	catFR1	0	R1138T
1369.404	2.518	2019820	WORD	n/a	wordpools/wordpool_categorized_EN.txt	CHERRY	Fruit	8	13	[0, 0, 0]	n/a	catFR1	0	R1138T
1371.922	2.533	2022337	WORD	n/a	wordpools/wordpool_categorized_EN.txt	TRUCK	Vehicles	9	13	[0, 0, 0]	n/a	catFR1	0	R1138T
1374.455	2.385	2024870	WORD	n/a	wordpools/wordpool_categorized_EN.txt	BIKE	Vehicles	10	13	[0, 0, 0]	n/a	catFR1	0	R1138T
1376.84	2.499	2027255	WORD	n/a	wordpools/wordpool_categorized_EN.txt	BALL	Toys	11	13	[0, 0, 0]	n/a	catFR1	0	R1138T
1379.339	1.601	2029754	WORD	n/a	wordpools/wordpool_categorized_EN.txt	BASKETBALL	Toys	12	13	[0, 0, 0]	n/a	catFR1	0	R1138T
1380.94	0.001	2031355	DISTRACT_START	n/a	n/a	n/a	n/a	-999	13	[0, 0, 0]	n/a	catFR1	0	R1138T
1380.941	0.016	2031356	START	n/a	n/a	n/a	n/a	-999	13	[-999, -999, -999]	n/a	catFR1	0	R1138T
1380.957	5.084	2031372	PROB	5.084	n/a	n/a	n/a	-999	13	[5, 2, 7]	14	catFR1	0	R1138T
1386.041	3.718	2036456	PROB	3.718	n/a	n/a	n/a	-999	13	[4, 5, 4]	13	catFR1	0	R1138T
1389.759	5.234	2040174	PROB	5.234	n/a	n/a	n/a	-999	13	[8, 6, 3]	17	catFR1	0	R1138T
1394.993	7.625	2045407	PROB	7.625	n/a	n/a	n/a	-999	13	[9, 5, 5]	19	catFR1	0	R1138T
1402.618	0.009	2053032	STOP	n/a	n/a	n/a	n/a	-999	13	[-999, -999, -999]	n/a	catFR1	0	R1138T
1402.627	1.118	2053041	DISTRACT_END	n/a	n/a	n/a	n/a	-999	13	[0, 0, 0]	n/a	catFR1	0	R1138T
1403.745	1.811	2054159	REC_START	n/a	n/a	n/a	n/a	-999	13	[0, 0, 0]	n/a	catFR1	0	R1138T
1405.556	3.734	2055970	REC_WORD	3.734	n/a	SLINKY	Toys	4	13	[0, 0, 0]	n/a	catFR1	0	R1138T
1409.29	24.466	2059704	REC_WORD	24.466	n/a	BASKETBALL	Toys	12	13	[0, 0, 0]	n/a	catFR1	0	R1138T
1433.756	2.71	2084168	REC_END	n/a	n/a	n/a	n/a	-999	13	[0, 0, 0]	n/a	catFR1	0	R1138T
1436.466	0.0	2086878	TRIAL	n/a	n/a	n/a	n/a	-999	14	[0, 0, 0]	n/a	catFR1	0	R1138T
1436.466	10.428	2086878	COUNTDOWN_START	n/a	n/a	n/a	n/a	-999	14	[0, 0, 0]	n/a	catFR1	0	R1138T
1446.894	0.008	2097306	COUNTDOWN_END	n/a	n/a	n/a	n/a	-999	14	[0, 0, 0]	n/a	catFR1	0	R1138T
1446.902	3.8	2097314	ORIENT	n/a	n/a	n/a	n/a	-999	14	[0, 0, 0]	n/a	catFR1	0	R1138T
1450.702	2.484	2101114	WORD	n/a	wordpools/wordpool_categorized_EN.txt	BLENDER	Appliances	1	14	[0, 0, 0]	n/a	catFR1	0	R1138T
1453.186	2.534	2103597	WORD	n/a	wordpools/wordpool_categorized_EN.txt	FREEZER	Appliances	2	14	[0, 0, 0]	n/a	catFR1	0	R1138T
1455.72	2.55	2106131	WORD	n/a	wordpools/wordpool_categorized_EN.txt	PLUM	Fruit	3	14	[0, 0, 0]	n/a	catFR1	0	R1138T
1458.27	2.568	2108681	WORD	n/a	wordpools/wordpool_categorized_EN.txt	PEACH	Fruit	4	14	[0, 0, 0]	n/a	catFR1	0	R1138T
1460.838	2.6	2111249	WORD	n/a	wordpools/wordpool_categorized_EN.txt	GUITAR	Instruments	5	14	[0, 0, 0]	n/a	catFR1	0	R1138T
1463.438	2.568	2113849	WORD	n/a	wordpools/wordpool_categorized_EN.txt	ORGAN	Instruments	6	14	[0, 0, 0]	n/a	catFR1	0	R1138T
1466.006	2.383	2116417	WORD	n/a	wordpools/wordpool_categorized_EN.txt	LEMON	Fruit	7	14	[0, 0, 0]	n/a	catFR1	0	R1138T
1468.389	2.551	2118800	WORD	n/a	wordpools/wordpool_categorized_EN.txt	STRAWBERRY	Fruit	8	14	[0, 0, 0]	n/a	catFR1	0	R1138T
1470.94	2.599	2121351	WORD	n/a	wordpools/wordpool_categorized_EN.txt	OVEN	Appliances	9	14	[0, 0, 0]	n/a	catFR1	0	R1138T
1473.539	2.584	2123949	WORD	n/a	wordpools/wordpool_categorized_EN.txt	TOASTER	Appliances	10	14	[0, 0, 0]	n/a	catFR1	0	R1138T
1476.123	2.601	2126533	WORD	n/a	wordpools/wordpool_categorized_EN.txt	TROMBONE	Instruments	11	14	[0, 0, 0]	n/a	catFR1	0	R1138T
1478.724	1.617	2129134	WORD	n/a	wordpools/wordpool_categorized_EN.txt	BASS	Instruments	12	14	[0, 0, 0]	n/a	catFR1	0	R1138T
1480.341	0.001	2130751	DISTRACT_START	n/a	n/a	n/a	n/a	-999	14	[0, 0, 0]	n/a	catFR1	0	R1138T
1480.342	0.015	2130752	START	n/a	n/a	n/a	n/a	-999	14	[-999, -999, -999]	n/a	catFR1	0	R1138T
1480.357	5.085	2130767	PROB	5.085	n/a	n/a	n/a	-999	14	[5, 6, 9]	20	catFR1	0	R1138T
1485.442	5.435	2135852	PROB	5.435	n/a	n/a	n/a	-999	14	[8, 2, 7]	17	catFR1	0	R1138T
1490.877	5.45	2141287	PROB	5.45	n/a	n/a	n/a	-999	14	[7, 9, 5]	21	catFR1	0	R1138T
1496.327	10.387	2146736	PROB	10.387	n/a	n/a	n/a	-999	14	[4, 9, 8]	21	catFR1	0	R1138T
1506.714	0.015	2157123	STOP	n/a	n/a	n/a	n/a	-999	14	[-999, -999, -999]	n/a	catFR1	0	R1138T
1506.729	1.052	2157138	DISTRACT_END	n/a	n/a	n/a	n/a	-999	14	[0, 0, 0]	n/a	catFR1	0	R1138T
1507.781	3.876	2158190	REC_START	n/a	n/a	n/a	n/a	-999	14	[0, 0, 0]	n/a	catFR1	0	R1138T
1511.657	26.135	2162066	REC_WORD	26.135	n/a	STRAWBERRY	Fruit	8	14	[0, 0, 0]	n/a	catFR1	0	R1138T
1537.792	2.66	2188199	REC_END	n/a	n/a	n/a	n/a	-999	14	[0, 0, 0]	n/a	catFR1	0	R1138T
1540.452	0.0	2190859	TRIAL	n/a	n/a	n/a	n/a	-999	15	[0, 0, 0]	n/a	catFR1	0	R1138T
1540.452	10.428	2190859	COUNTDOWN_START	n/a	n/a	n/a	n/a	-999	15	[0, 0, 0]	n/a	catFR1	0	R1138T
1550.88	0.008	2201287	COUNTDOWN_END	n/a	n/a	n/a	n/a	-999	15	[0, 0, 0]	n/a	catFR1	0	R1138T
1550.888	3.733	2201295	ORIENT	n/a	n/a	n/a	n/a	-999	15	[0, 0, 0]	n/a	catFR1	0	R1138T
1554.621	2.483	2205027	WORD	n/a	wordpools/wordpool_categorized_EN.txt	KNIFE	KitchenTools	1	15	[0, 0, 0]	n/a	catFR1	0	R1138T
1557.104	2.451	2207510	WORD	n/a	wordpools/wordpool_categorized_EN.txt	TONGS	KitchenTools	2	15	[0, 0, 0]	n/a	catFR1	0	R1138T
1559.555	2.567	2209961	WORD	n/a	wordpools/wordpool_categorized_EN.txt	COOKIE	Desserts	3	15	[0, 0, 0]	n/a	catFR1	0	R1138T
1562.122	2.384	2212528	WORD	n/a	wordpools/wordpool_categorized_EN.txt	PASTRY	Desserts	4	15	[0, 0, 0]	n/a	catFR1	0	R1138T
1564.506	2.485	2214912	WORD	n/a	wordpools/wordpool_categorized_EN.txt	CIDER	Beverages	5	15	[0, 0, 0]	n/a	catFR1	0	R1138T
1566.991	2.566	2217397	WORD	n/a	wordpools/wordpool_categorized_EN.txt	LEMONADE	Beverages	6	15	[0, 0, 0]	n/a	catFR1	0	R1138T
1569.557	2.617	2219963	WORD	n/a	wordpools/wordpool_categorized_EN.txt	MOUSSE	Desserts	7	15	[0, 0, 0]	n/a	catFR1	0	R1138T
1572.174	2.517	2222580	WORD	n/a	wordpools/wordpool_categorized_EN.txt	JELLO	Desserts	8	15	[0, 0, 0]	n/a	catFR1	0	R1138T
1574.691	2.384	2225096	WORD	n/a	wordpools/wordpool_categorized_EN.txt	SPATULA	KitchenTools	9	15	[0, 0, 0]	n/a	catFR1	0	R1138T
1577.075	2.467	2227480	WORD	n/a	wordpools/wordpool_categorized_EN.txt	FORK	KitchenTools	10	15	[0, 0, 0]	n/a	catFR1	0	R1138T
1579.542	2.617	2229947	WORD	n/a	wordpools/wordpool_categorized_EN.txt	JUICE	Beverages	11	15	[0, 0, 0]	n/a	catFR1	0	R1138T
1582.159	1.618	2232564	WORD	n/a	wordpools/wordpool_categorized_EN.txt	RUM	Beverages	12	15	[0, 0, 0]	n/a	catFR1	0	R1138T
1583.777	0.001	2234182	DISTRACT_START	n/a	n/a	n/a	n/a	-999	15	[0, 0, 0]	n/a	catFR1	0	R1138T
1583.778	0.016	2234183	START	n/a	n/a	n/a	n/a	-999	15	[-999, -999, -999]	n/a	catFR1	0	R1138T
1583.794	4.234	2234199	PROB	4.234	n/a	n/a	n/a	-999	15	[4, 3, 1]	8	catFR1	0	R1138T
1588.028	4.15	2238433	PROB	4.15	n/a	n/a	n/a	-999	15	[7, 4, 4]	15	catFR1	0	R1138T
1592.178	2.618	2242583	PROB	2.618	n/a	n/a	n/a	-999	15	[4, 5, 2]	11	catFR1	0	R1138T
1594.796	4.6	2245200	PROB	4.6	n/a	n/a	n/a	-999	15	[4, 7, 1]	12	catFR1	0	R1138T
1599.396	5.031	2249800	PROB	5.031	n/a	n/a	n/a	-999	15	[9, 6, 2]	17	catFR1	0	R1138T
1604.427	0.02	2254831	STOP	n/a	n/a	n/a	n/a	-999	15	[-999, -999, -999]	n/a	catFR1	0	R1138T
1604.447	1.117	2254851	DISTRACT_END	n/a	n/a	n/a	n/a	-999	15	[0, 0, 0]	n/a	catFR1	0	R1138T
1605.564	3.562	2255968	REC_START	n/a	n/a	n/a	n/a	-999	15	[0, 0, 0]	n/a	catFR1	0	R1138T
1609.126	26.453	2259530	REC_WORD	26.453	n/a	RUM	Beverages	12	15	[0, 0, 0]	n/a	catFR1	0	R1138T
1635.579	2.391	2285981	REC_END	n/a	n/a	n/a	n/a	-999	15	[0, 0, 0]	n/a	catFR1	0	R1138T
1637.97	0.001	2288372	COUNTDOWN_START	n/a	n/a	n/a	n/a	-999	16	[0, 0, 0]	n/a	catFR1	0	R1138T
1637.971	10.427	2288373	TRIAL	n/a	n/a	n/a	n/a	-999	16	[0, 0, 0]	n/a	catFR1	0	R1138T
1648.398	0.007	2298800	COUNTDOWN_END	n/a	n/a	n/a	n/a	-999	16	[0, 0, 0]	n/a	catFR1	0	R1138T
1648.405	3.734	2298807	ORIENT	n/a	n/a	n/a	n/a	-999	16	[0, 0, 0]	n/a	catFR1	0	R1138T
1652.139	2.433	2302541	WORD	n/a	wordpools/wordpool_categorized_EN.txt	GORILLA	Zoo	1	16	[0, 0, 0]	n/a	catFR1	0	R1138T
1654.572	2.402	2304974	WORD	n/a	wordpools/wordpool_categorized_EN.txt	GIRAFFE	Zoo	2	16	[0, 0, 0]	n/a	catFR1	0	R1138T
1656.974	2.483	2307375	WORD	n/a	wordpools/wordpool_categorized_EN.txt	ARM	BodyParts	3	16	[0, 0, 0]	n/a	catFR1	0	R1138T
1659.457	2.535	2309858	WORD	n/a	wordpools/wordpool_categorized_EN.txt	HEAD	BodyParts	4	16	[0, 0, 0]	n/a	catFR1	0	R1138T
1661.992	2.416	2312393	WORD	n/a	wordpools/wordpool_categorized_EN.txt	LAKE	Landscapes	5	16	[0, 0, 0]	n/a	catFR1	0	R1138T
1664.408	2.551	2314809	WORD	n/a	wordpools/wordpool_categorized_EN.txt	BEACH	Landscapes	6	16	[0, 0, 0]	n/a	catFR1	0	R1138T
1666.959	2.416	2317360	WORD	n/a	wordpools/wordpool_categorized_EN.txt	EAR	BodyParts	7	16	[0, 0, 0]	n/a	catFR1	0	R1138T
1669.375	2.618	2319776	WORD	n/a	wordpools/wordpool_categorized_EN.txt	FOOT	BodyParts	8	16	[0, 0, 0]	n/a	catFR1	0	R1138T
1671.993	2.4	2322394	WORD	n/a	wordpools/wordpool_categorized_EN.txt	CHIMPANZEE	Zoo	9	16	[0, 0, 0]	n/a	catFR1	0	R1138T
1674.393	2.551	2324794	WORD	n/a	wordpools/wordpool_categorized_EN.txt	TIGER	Zoo	10	16	[0, 0, 0]	n/a	catFR1	0	R1138T
1676.944	2.416	2327344	WORD	n/a	wordpools/wordpool_categorized_EN.txt	MOUNTAIN	Landscapes	11	16	[0, 0, 0]	n/a	catFR1	0	R1138T
1679.36	1.618	2329760	WORD	n/a	wordpools/wordpool_categorized_EN.txt	CREEK	Landscapes	12	16	[0, 0, 0]	n/a	catFR1	0	R1138T
1680.978	0.001	2331378	DISTRACT_START	n/a	n/a	n/a	n/a	-999	16	[0, 0, 0]	n/a	catFR1	0	R1138T
1680.979	0.016	2331379	START	n/a	n/a	n/a	n/a	-999	16	[-999, -999, -999]	n/a	catFR1	0	R1138T
1680.995	6.051	2331395	PROB	6.051	n/a	n/a	n/a	-999	16	[9, 6, 8]	23	catFR1	0	R1138T
1687.046	4.517	2337446	PROB	4.517	n/a	n/a	n/a	-999	16	[9, 7, 1]	17	catFR1	0	R1138T
1691.563	4.884	2341963	PROB	4.884	n/a	n/a	n/a	-999	16	[7, 5, 9]	21	catFR1	0	R1138T
1696.447	3.518	2346846	PROB	3.518	n/a	n/a	n/a	-999	16	[2, 4, 5]	11	catFR1	0	R1138T
1699.965	5.126	2350364	PROB	5.126	n/a	n/a	n/a	-999	16	[6, 9, 7]	22	catFR1	0	R1138T
1705.091	0.007	2355490	STOP	n/a	n/a	n/a	n/a	-999	16	[-999, -999, -999]	n/a	catFR1	0	R1138T
1705.098	1.102	2355497	DISTRACT_END	n/a	n/a	n/a	n/a	-999	16	[0, 0, 0]	n/a	catFR1	0	R1138T
1706.2	2.108	2356599	REC_START	n/a	n/a	n/a	n/a	-999	16	[0, 0, 0]	n/a	catFR1	0	R1138T
1708.308	27.903	2358707	REC_WORD	27.903	n/a	CHIMPANZEE	Zoo	9	16	[0, 0, 0]	n/a	catFR1	0	R1138T
1736.211	2.51	2386609	REC_END	n/a	n/a	n/a	n/a	-999	16	[0, 0, 0]	n/a	catFR1	0	R1138T
1738.721	0.0	2389118	TRIAL	n/a	n/a	n/a	n/a	-999	17	[0, 0, 0]	n/a	catFR1	0	R1138T
1738.721	10.428	2389118	COUNTDOWN_START	n/a	n/a	n/a	n/a	-999	17	[0, 0, 0]	n/a	catFR1	0	R1138T
1749.149	0.007	2399546	COUNTDOWN_END	n/a	n/a	n/a	n/a	-999	17	[0, 0, 0]	n/a	catFR1	0	R1138T
1749.156	3.769	2399553	ORIENT	n/a	n/a	n/a	n/a	-999	17	[0, 0, 0]	n/a	catFR1	0	R1138T
1752.925	2.499	2403322	WORD	n/a	wordpools/wordpool_categorized_EN.txt	CELERY	Vegetables	1	17	[0, 0, 0]	n/a	catFR1	0	R1138T
1755.424	2.468	2405821	WORD	n/a	wordpools/wordpool_categorized_EN.txt	CARROT	Vegetables	2	17	[0, 0, 0]	n/a	catFR1	0	R1138T
1757.892	2.45	2408288	WORD	n/a	wordpools/wordpool_categorized_EN.txt	SCANNER	Electronics	3	17	[0, 0, 0]	n/a	catFR1	0	R1138T
1760.342	2.501	2410738	WORD	n/a	wordpools/wordpool_categorized_EN.txt	TELEVISION	Electronics	4	17	[0, 0, 0]	n/a	catFR1	0	R1138T
1762.843	2.416	2413239	WORD	n/a	wordpools/wordpool_categorized_EN.txt	TEA	Beverages	5	17	[0, 0, 0]	n/a	catFR1	0	R1138T
1765.259	2.367	2415655	WORD	n/a	wordpools/wordpool_categorized_EN.txt	SODA	Beverages	6	17	[0, 0, 0]	n/a	catFR1	0	R1138T
1767.626	2.534	2418022	WORD	n/a	wordpools/wordpool_categorized_EN.txt	PEAS	Vegetables	7	17	[0, 0, 0]	n/a	catFR1	0	R1138T
1770.16	2.434	2420556	WORD	n/a	wordpools/wordpool_categorized_EN.txt	CAULIFLOWER	Vegetables	8	17	[0, 0, 0]	n/a	catFR1	0	R1138T
1772.594	2.617	2422990	WORD	n/a	wordpools/wordpool_categorized_EN.txt	WINE	Beverages	9	17	[0, 0, 0]	n/a	catFR1	0	R1138T
1775.211	2.367	2425607	WORD	n/a	wordpools/wordpool_categorized_EN.txt	BEER	Beverages	10	17	[0, 0, 0]	n/a	catFR1	0	R1138T
1777.578	2.385	2427973	WORD	n/a	wordpools/wordpool_categorized_EN.txt	PRINTER	Electronics	11	17	[0, 0, 0]	n/a	catFR1	0	R1138T
1779.963	1.616	2430358	WORD	n/a	wordpools/wordpool_categorized_EN.txt	RADIO	Electronics	12	17	[0, 0, 0]	n/a	catFR1	0	R1138T
1781.579	0.001	2431974	DISTRACT_START	n/a	n/a	n/a	n/a	-999	17	[0, 0, 0]	n/a	catFR1	0	R1138T
1781.58	0.016	2431975	START	n/a	n/a	n/a	n/a	-999	17	[-999, -999, -999]	n/a	catFR1	0	R1138T
1781.596	8.968	2431991	PROB	8.968	n/a	n/a	n/a	-999	17	[3, 6, 4]	13	catFR1	0	R1138T
1790.564	4.651	2440959	PROB	4.651	n/a	n/a	n/a	-999	17	[9, 2, 7]	18	catFR1	0	R1138T
1795.215	3.434	2445610	PROB	3.434	n/a	n/a	n/a	-999	17	[6, 6, 2]	14	catFR1	0	R1138T
1798.649	4.609	2449043	PROB	4.609	n/a	n/a	n/a	-999	17	[8, 1, 8]	17	catFR1	0	R1138T
1803.258	0.008	2453652	STOP	n/a	n/a	n/a	n/a	-999	17	[-999, -999, -999]	n/a	catFR1	0	R1138T
1803.266	1.051	2453660	DISTRACT_END	n/a	n/a	n/a	n/a	-999	17	[0, 0, 0]	n/a	catFR1	0	R1138T
1804.317	2.361	2454711	REC_START	n/a	n/a	n/a	n/a	-999	17	[0, 0, 0]	n/a	catFR1	0	R1138T
1806.678	3.916	2457072	REC_WORD	3.916	n/a	TELEVISION	Electronics	4	17	[0, 0, 0]	n/a	catFR1	0	R1138T
1810.594	13.06	2460988	REC_WORD	13.06	n/a	TEA	Beverages	5	17	[0, 0, 0]	n/a	catFR1	0	R1138T
1823.654	9.983	2474047	REC_WORD	9.983	n/a	WINE	Beverages	9	17	[0, 0, 0]	n/a	catFR1	0	R1138T
1833.637	0.692	2484030	REC_WORD	0.692	n/a	CAULIFLOWER	Vegetables	8	17	[0, 0, 0]	n/a	catFR1	0	R1138T
1834.329	3.628	2484722	REC_END	n/a	n/a	n/a	n/a	-999	17	[0, 0, 0]	n/a	catFR1	0	R1138T
1837.957	0.0	2488350	TRIAL	n/a	n/a	n/a	n/a	-999	18	[0, 0, 0]	n/a	catFR1	0	R1138T
1837.957	10.428	2488350	COUNTDOWN_START	n/a	n/a	n/a	n/a	-999	18	[0, 0, 0]	n/a	catFR1	0	R1138T
1848.385	0.006	2498777	COUNTDOWN_END	n/a	n/a	n/a	n/a	-999	18	[0, 0, 0]	n/a	catFR1	0	R1138T
1848.391	3.435	2498783	ORIENT	n/a	n/a	n/a	n/a	-999	18	[0, 0, 0]	n/a	catFR1	0	R1138T
1851.826	2.399	2502218	WORD	n/a	wordpools/wordpool_categorized_EN.txt	NOSE	BodyParts	1	18	[0, 0, 0]	n/a	catFR1	0	R1138T
1854.225	2.451	2504617	WORD	n/a	wordpools/wordpool_categorized_EN.txt	ELBOW	BodyParts	2	18	[0, 0, 0]	n/a	catFR1	0	R1138T
1856.676	2.417	2507068	WORD	n/a	wordpools/wordpool_categorized_EN.txt	BROCCOLI	Vegetables	3	18	[0, 0, 0]	n/a	catFR1	0	R1138T
1859.093	2.584	2509484	WORD	n/a	wordpools/wordpool_categorized_EN.txt	LETTUCE	Vegetables	4	18	[0, 0, 0]	n/a	catFR1	0	R1138T
1861.677	2.584	2512068	WORD	n/a	wordpools/wordpool_categorized_EN.txt	HALLWAY	Building	5	18	[0, 0, 0]	n/a	catFR1	0	R1138T
1864.261	2.417	2514652	WORD	n/a	wordpools/wordpool_categorized_EN.txt	ROOM	Building	6	18	[0, 0, 0]	n/a	catFR1	0	R1138T
1866.678	2.45	2517069	WORD	n/a	wordpools/wordpool_categorized_EN.txt	CORN	Vegetables	7	18	[0, 0, 0]	n/a	catFR1	0	R1138T
1869.128	2.584	2519519	WORD	n/a	wordpools/wordpool_categorized_EN.txt	CUCUMBER	Vegetables	8	18	[0, 0, 0]	n/a	catFR1	0	R1138T
1871.712	2.384	2522103	WORD	n/a	wordpools/wordpool_categorized_EN.txt	FINGERS	BodyParts	9	18	[0, 0, 0]	n/a	catFR1	0	R1138T
1874.096	2.384	2524487	WORD	n/a	wordpools/wordpool_categorized_EN.txt	TOE	BodyParts	10	18	[0, 0, 0]	n/a	catFR1	0	R1138T
1876.48	2.534	2526871	WORD	n/a	wordpools/wordpool_categorized_EN.txt	BATHROOM	Building	11	18	[0, 0, 0]	n/a	catFR1	0	R1138T
1879.014	1.616	2529404	WORD	n/a	wordpools/wordpool_categorized_EN.txt	CEILING	Building	12	18	[0, 0, 0]	n/a	catFR1	0	R1138T
1880.63	0.001	2531020	DISTRACT_START	n/a	n/a	n/a	n/a	-999	18	[0, 0, 0]	n/a	catFR1	0	R1138T
1880.631	0.016	2531021	START	n/a	n/a	n/a	n/a	-999	18	[-999, -999, -999]	n/a	catFR1	0	R1138T
1880.647	7.835	2531037	PROB	7.835	n/a	n/a	n/a	-999	18	[8, 6, 9]	23	catFR1	0	R1138T
1888.482	3.9	2538872	PROB	3.9	n/a	n/a	n/a	-999	18	[5, 5, 6]	16	catFR1	0	R1138T
1892.382	5.536	2542772	PROB	5.536	n/a	n/a	n/a	-999	18	[8, 4, 2]	14	catFR1	0	R1138T
1897.918	5.524	2548308	PROB	5.524	n/a	n/a	n/a	-999	18	[7, 6, 2]	15	catFR1	0	R1138T
1903.442	0.009	2553831	STOP	n/a	n/a	n/a	n/a	-999	18	[-999, -999, -999]	n/a	catFR1	0	R1138T
1903.451	1.201	2553840	DISTRACT_END	n/a	n/a	n/a	n/a	-999	18	[0, 0, 0]	n/a	catFR1	0	R1138T
1904.652	29.781	2555041	REC_START	n/a	n/a	n/a	n/a	-999	18	[0, 0, 0]	n/a	catFR1	0	R1138T
1934.433	0.23	2584821	REC_WORD_VV	0.23	n/a	<>	n/a	-999	18	[0, 0, 0]	n/a	catFR1	0	R1138T
1934.663	6.528	2585051	REC_END	n/a	n/a	n/a	n/a	-999	18	[0, 0, 0]	n/a	catFR1	0	R1138T
1941.191	0.0	2591578	TRIAL	n/a	n/a	n/a	n/a	-999	19	[0, 0, 0]	n/a	catFR1	0	R1138T
1941.191	10.428	2591578	COUNTDOWN_START	n/a	n/a	n/a	n/a	-999	19	[0, 0, 0]	n/a	catFR1	0	R1138T
1951.619	0.007	2602006	COUNTDOWN_END	n/a	n/a	n/a	n/a	-999	19	[0, 0, 0]	n/a	catFR1	0	R1138T
1951.626	3.768	2602013	ORIENT	n/a	n/a	n/a	n/a	-999	19	[0, 0, 0]	n/a	catFR1	0	R1138T
1955.394	2.368	2605781	WORD	n/a	wordpools/wordpool_categorized_EN.txt	CRAB	OceanAnimals	1	19	[0, 0, 0]	n/a	catFR1	0	R1138T
1957.762	2.499	2608149	WORD	n/a	wordpools/wordpool_categorized_EN.txt	JELLYFISH	OceanAnimals	2	19	[0, 0, 0]	n/a	catFR1	0	R1138T
1960.261	2.585	2610647	WORD	n/a	wordpools/wordpool_categorized_EN.txt	DRILL	Tools	3	19	[0, 0, 0]	n/a	catFR1	0	R1138T
1962.846	2.566	2613232	WORD	n/a	wordpools/wordpool_categorized_EN.txt	RATCHET	Tools	4	19	[0, 0, 0]	n/a	catFR1	0	R1138T
1965.412	2.519	2615798	WORD	n/a	wordpools/wordpool_categorized_EN.txt	MOTH	Insects	5	19	[0, 0, 0]	n/a	catFR1	0	R1138T
1967.931	2.382	2618317	WORD	n/a	wordpools/wordpool_categorized_EN.txt	SPIDER	Insects	6	19	[0, 0, 0]	n/a	catFR1	0	R1138T
1970.313	2.434	2620699	WORD	n/a	wordpools/wordpool_categorized_EN.txt	TURTLE	OceanAnimals	7	19	[0, 0, 0]	n/a	catFR1	0	R1138T
1972.747	2.451	2623133	WORD	n/a	wordpools/wordpool_categorized_EN.txt	SQUID	OceanAnimals	8	19	[0, 0, 0]	n/a	catFR1	0	R1138T
1975.198	2.433	2625584	WORD	n/a	wordpools/wordpool_categorized_EN.txt	GNAT	Insects	9	19	[0, 0, 0]	n/a	catFR1	0	R1138T
1977.631	2.467	2628017	WORD	n/a	wordpools/wordpool_categorized_EN.txt	MOSQUITO	Insects	10	19	[0, 0, 0]	n/a	catFR1	0	R1138T
1980.098	2.601	2630484	WORD	n/a	wordpools/wordpool_categorized_EN.txt	PLIERS	Tools	11	19	[0, 0, 0]	n/a	catFR1	0	R1138T
1982.699	1.617	2633084	WORD	n/a	wordpools/wordpool_categorized_EN.txt	SCREWDRIVER	Tools	12	19	[0, 0, 0]	n/a	catFR1	0	R1138T
1984.316	0.001	2634701	DISTRACT_START	n/a	n/a	n/a	n/a	-999	19	[0, 0, 0]	n/a	catFR1	0	R1138T
1984.317	0.016	2634702	START	n/a	n/a	n/a	n/a	-999	19	[-999, -999, -999]	n/a	catFR1	0	R1138T
1984.333	4.234	2634718	PROB	4.234	n/a	n/a	n/a	-999	19	[2, 3, 3]	8	catFR1	0	R1138T
1988.567	3.117	2638952	PROB	3.117	n/a	n/a	n/a	-999	19	[8, 5, 8]	21	catFR1	0	R1138T
1991.684	3.734	2642069	PROB	3.734	n/a	n/a	n/a	-999	19	[5, 4, 4]	13	catFR1	0	R1138T
1995.418	2.834	2645803	PROB	2.834	n/a	n/a	n/a	-999	19	[4, 4, 3]	11	catFR1	0	R1138T
1998.252	6.695	2648637	PROB	6.695	n/a	n/a	n/a	-999	19	[9, 4, 4]	18	catFR1	0	R1138T
2004.947	0.007	2655331	STOP	n/a	n/a	n/a	n/a	-999	19	[-999, -999, -999]	n/a	catFR1	0	R1138T
2004.954	1.084	2655338	DISTRACT_END	n/a	n/a	n/a	n/a	-999	19	[0, 0, 0]	n/a	catFR1	0	R1138T
2006.038	1.632	2656422	REC_START	n/a	n/a	n/a	n/a	-999	19	[0, 0, 0]	n/a	catFR1	0	R1138T
2007.67	28.379	2658054	REC_WORD	28.379	n/a	SCREWDRIVER	Tools	12	19	[0, 0, 0]	n/a	catFR1	0	R1138T
2036.049	2.928	2686432	REC_END	n/a	n/a	n/a	n/a	-999	19	[0, 0, 0]	n/a	catFR1	0	R1138T
2038.977	0.0	2689360	TRIAL	n/a	n/a	n/a	n/a	-999	20	[0, 0, 0]	n/a	catFR1	0	R1138T
2038.977	10.428	2689360	COUNTDOWN_START	n/a	n/a	n/a	n/a	-999	20	[0, 0, 0]	n/a	catFR1	0	R1138T
2049.405	0.006	2699787	COUNTDOWN_END	n/a	n/a	n/a	n/a	-999	20	[0, 0, 0]	n/a	catFR1	0	R1138T
2049.411	3.751	2699793	ORIENT	n/a	n/a	n/a	n/a	-999	20	[0, 0, 0]	n/a	catFR1	0	R1138T
2053.162	2.55	2703544	WORD	n/a	wordpools/wordpool_categorized_EN.txt	PIGEON	Birds	1	20	[0, 0, 0]	n/a	catFR1	0	R1138T
2055.712	2.534	2706094	WORD	n/a	wordpools/wordpool_categorized_EN.txt	CROW	Birds	2	20	[0, 0, 0]	n/a	catFR1	0	R1138T
2058.246	2.535	2708628	WORD	n/a	wordpools/wordpool_categorized_EN.txt	FLUTE	Instruments	3	20	[0, 0, 0]	n/a	catFR1	0	R1138T
2060.781	2.416	2711163	WORD	n/a	wordpools/wordpool_categorized_EN.txt	TRUMPET	Instruments	4	20	[0, 0, 0]	n/a	catFR1	0	R1138T
2063.197	2.467	2713578	WORD	n/a	wordpools/wordpool_categorized_EN.txt	LOBSTER	OceanAnimals	5	20	[0, 0, 0]	n/a	catFR1	0	R1138T
2065.664	2.417	2716045	WORD	n/a	wordpools/wordpool_categorized_EN.txt	OCTOPUS	OceanAnimals	6	20	[0, 0, 0]	n/a	catFR1	0	R1138T
2068.081	2.401	2718462	WORD	n/a	wordpools/wordpool_categorized_EN.txt	HAWK	Birds	7	20	[0, 0, 0]	n/a	catFR1	0	R1138T
2070.482	2.568	2720863	WORD	n/a	wordpools/wordpool_categorized_EN.txt	FINCH	Birds	8	20	[0, 0, 0]	n/a	catFR1	0	R1138T
2073.05	2.399	2723431	WORD	n/a	wordpools/wordpool_categorized_EN.txt	OYSTER	OceanAnimals	9	20	[0, 0, 0]	n/a	catFR1	0	R1138T
2075.449	2.385	2725830	WORD	n/a	wordpools/wordpool_categorized_EN.txt	DOLPHIN	OceanAnimals	10	20	[0, 0, 0]	n/a	catFR1	0	R1138T
2077.834	2.383	2728215	WORD	n/a	wordpools/wordpool_categorized_EN.txt	VIOLIN	Instruments	11	20	[0, 0, 0]	n/a	catFR1	0	R1138T
2080.217	1.601	2730598	WORD	n/a	wordpools/wordpool_categorized_EN.txt	TUBA	Instruments	12	20	[0, 0, 0]	n/a	catFR1	0	R1138T
2081.818	0.001	2732198	DISTRACT_START	n/a	n/a	n/a	n/a	-999	20	[0, 0, 0]	n/a	catFR1	0	R1138T
2081.819	0.016	2732199	START	n/a	n/a	n/a	n/a	-999	20	[-999, -999, -999]	n/a	catFR1	0	R1138T
2081.835	4.599	2732215	PROB	4.599	n/a	n/a	n/a	-999	20	[4, 1, 3]	8	catFR1	0	R1138T
2086.434	7.035	2736814	PROB	7.035	n/a	n/a	n/a	-999	20	[7, 2, 4]	13	catFR1	0	R1138T
2093.469	8.535	2743849	PROB	8.535	n/a	n/a	n/a	-999	20	[4, 5, 9]	18	catFR1	0	R1138T
2102.004	0.018	2752383	STOP	n/a	n/a	n/a	n/a	-999	20	[-999, -999, -999]	n/a	catFR1	0	R1138T
2102.022	1.2	2752401	DISTRACT_END	n/a	n/a	n/a	n/a	-999	20	[0, 0, 0]	n/a	catFR1	0	R1138T
2103.222	1.53	2753601	REC_START	n/a	n/a	n/a	n/a	-999	20	[0, 0, 0]	n/a	catFR1	0	R1138T
2104.752	28.481	2755131	REC_WORD	28.481	n/a	LOBSTER	OceanAnimals	5	20	[0, 0, 0]	n/a	catFR1	0	R1138T
2133.233	5.194	2783611	REC_END	n/a	n/a	n/a	n/a	-999	20	[0, 0, 0]	n/a	catFR1	0	R1138T
2138.427	0.0	2788805	TRIAL	n/a	n/a	n/a	n/a	-999	21	[0, 0, 0]	n/a	catFR1	0	R1138T
2138.427	10.428	2788805	COUNTDOWN_START	n/a	n/a	n/a	n/a	-999	21	[0, 0, 0]	n/a	catFR1	0	R1138T
2148.855	0.008	2799232	COUNTDOWN_END	n/a	n/a	n/a	n/a	-999	21	[0, 0, 0]	n/a	catFR1	0	R1138T
2148.863	3.817	2799240	ORIENT	n/a	n/a	n/a	n/a	-999	21	[0, 0, 0]	n/a	catFR1	0	R1138T
2152.68	2.417	2803057	WORD	n/a	wordpools/wordpool_categorized_EN.txt	CHEETAH	Zoo	1	21	[0, 0, 0]	n/a	catFR1	0	R1138T
2155.097	2.384	2805474	WORD	n/a	wordpools/wordpool_categorized_EN.txt	LION	Zoo	2	21	[0, 0, 0]	n/a	catFR1	0	R1138T
2157.481	2.568	2807858	WORD	n/a	wordpools/wordpool_categorized_EN.txt	FLOOR	Building	3	21	[0, 0, 0]	n/a	catFR1	0	R1138T
2160.049	2.483	2810426	WORD	n/a	wordpools/wordpool_categorized_EN.txt	WINDOW	Building	4	21	[0, 0, 0]	n/a	catFR1	0	R1138T
2162.532	2.6	2812909	WORD	n/a	wordpools/wordpool_categorized_EN.txt	CABINET	Furniture	5	21	[0, 0, 0]	n/a	catFR1	0	R1138T
2165.132	2.501	2815508	WORD	n/a	wordpools/wordpool_categorized_EN.txt	COUCH	Furniture	6	21	[0, 0, 0]	n/a	catFR1	0	R1138T
2167.633	2.583	2818009	WORD	n/a	wordpools/wordpool_categorized_EN.txt	ELEPHANT	Zoo	7	21	[0, 0, 0]	n/a	catFR1	0	R1138T
2170.216	2.467	2820592	WORD	n/a	wordpools/wordpool_categorized_EN.txt	ORANGUTAN	Zoo	8	21	[0, 0, 0]	n/a	catFR1	0	R1138T
2172.683	2.534	2823059	WORD	n/a	wordpools/wordpool_categorized_EN.txt	DESK	Furniture	9	21	[0, 0, 0]	n/a	catFR1	0	R1138T
2175.217	2.535	2825593	WORD	n/a	wordpools/wordpool_categorized_EN.txt	CHAIR	Furniture	10	21	[0, 0, 0]	n/a	catFR1	0	R1138T
2177.752	2.449	2828128	WORD	n/a	wordpools/wordpool_categorized_EN.txt	ATTIC	Building	11	21	[0, 0, 0]	n/a	catFR1	0	R1138T
2180.201	1.602	2830577	WORD	n/a	wordpools/wordpool_categorized_EN.txt	WALL	Building	12	21	[0, 0, 0]	n/a	catFR1	0	R1138T
2181.803	0.001	2832179	DISTRACT_START	n/a	n/a	n/a	n/a	-999	21	[0, 0, 0]	n/a	catFR1	0	R1138T
2181.804	0.015	2832180	START	n/a	n/a	n/a	n/a	-999	21	[-999, -999, -999]	n/a	catFR1	0	R1138T
2181.819	5.467	2832195	PROB	5.467	n/a	n/a	n/a	-999	21	[6, 5, 5]	16	catFR1	0	R1138T
2187.286	3.934	2837661	PROB	3.934	n/a	n/a	n/a	-999	21	[9, 4, 1]	14	catFR1	0	R1138T
2191.22	5.384	2841595	PROB	5.384	n/a	n/a	n/a	-999	21	[1, 6, 1]	8	catFR1	0	R1138T
2196.604	5.085	2846979	PROB	5.085	n/a	n/a	n/a	-999	21	[3, 7, 3]	13	catFR1	0	R1138T
2201.689	5.346	2852064	PROB	5.346	n/a	n/a	n/a	-999	21	[9, 2, 4]	15	catFR1	0	R1138T
2207.035	0.006	2857409	STOP	n/a	n/a	n/a	n/a	-999	21	[-999, -999, -999]	n/a	catFR1	0	R1138T
2207.041	1.116	2857415	DISTRACT_END	n/a	n/a	n/a	n/a	-999	21	[0, 0, 0]	n/a	catFR1	0	R1138T
2208.157	2.046	2858531	REC_START	n/a	n/a	n/a	n/a	-999	21	[0, 0, 0]	n/a	catFR1	0	R1138T
2210.203	27.97	2860577	REC_WORD	27.97	n/a	ELEPHANT	Zoo	7	21	[0, 0, 0]	n/a	catFR1	0	R1138T
2238.173	2.523	2888546	REC_END	n/a	n/a	n/a	n/a	-999	21	[0, 0, 0]	n/a	catFR1	0	R1138T
2240.696	0.0	2891069	COUNTDOWN_START	n/a	n/a	n/a	n/a	-999	22	[0, 0, 0]	n/a	catFR1	0	R1138T
2240.696	10.428	2891069	TRIAL	n/a	n/a	n/a	n/a	-999	22	[0, 0, 0]	n/a	catFR1	0	R1138T
2251.124	0.007	2901496	COUNTDOWN_END	n/a	n/a	n/a	n/a	-999	22	[0, 0, 0]	n/a	catFR1	0	R1138T
2251.131	3.752	2901503	ORIENT	n/a	n/a	n/a	n/a	-999	22	[0, 0, 0]	n/a	catFR1	0	R1138T
2254.883	2.633	2905255	WORD	n/a	wordpools/wordpool_categorized_EN.txt	PUDDING	Desserts	1	22	[0, 0, 0]	n/a	catFR1	0	R1138T
2257.516	2.384	2907888	WORD	n/a	wordpools/wordpool_categorized_EN.txt	CHEESECAKE	Desserts	2	22	[0, 0, 0]	n/a	catFR1	0	R1138T
2259.9	2.383	2910272	WORD	n/a	wordpools/wordpool_categorized_EN.txt	UNDERWEAR	Clothing	3	22	[0, 0, 0]	n/a	catFR1	0	R1138T
2262.283	2.401	2912655	WORD	n/a	wordpools/wordpool_categorized_EN.txt	SHIRT	Clothing	4	22	[0, 0, 0]	n/a	catFR1	0	R1138T
2264.684	2.5	2915055	WORD	n/a	wordpools/wordpool_categorized_EN.txt	TABLE	Furniture	5	22	[0, 0, 0]	n/a	catFR1	0	R1138T
2267.184	2.384	2917555	WORD	n/a	wordpools/wordpool_categorized_EN.txt	DRESSER	Furniture	6	22	[0, 0, 0]	n/a	catFR1	0	R1138T
2269.568	2.418	2919939	WORD	n/a	wordpools/wordpool_categorized_EN.txt	SKIRT	Clothing	7	22	[0, 0, 0]	n/a	catFR1	0	R1138T
2271.986	2.449	2922357	WORD	n/a	wordpools/wordpool_categorized_EN.txt	SHORTS	Clothing	8	22	[0, 0, 0]	n/a	catFR1	0	R1138T
2274.435	2.418	2924806	WORD	n/a	wordpools/wordpool_categorized_EN.txt	CAKE	Desserts	9	22	[0, 0, 0]	n/a	catFR1	0	R1138T
2276.853	2.583	2927224	WORD	n/a	wordpools/wordpool_categorized_EN.txt	FUDGE	Desserts	10	22	[0, 0, 0]	n/a	catFR1	0	R1138T
2279.436	2.468	2929807	WORD	n/a	wordpools/wordpool_categorized_EN.txt	SOFA	Furniture	11	22	[0, 0, 0]	n/a	catFR1	0	R1138T
2281.904	1.616	2932275	WORD	n/a	wordpools/wordpool_categorized_EN.txt	NIGHTSTAND	Furniture	12	22	[0, 0, 0]	n/a	catFR1	0	R1138T
2283.52	0.001	2933891	DISTRACT_START	n/a	n/a	n/a	n/a	-999	22	[0, 0, 0]	n/a	catFR1	0	R1138T
2283.521	0.016	2933892	START	n/a	n/a	n/a	n/a	-999	22	[-999, -999, -999]	n/a	catFR1	0	R1138T
2283.537	4.302	2933908	PROB	4.302	n/a	n/a	n/a	-999	22	[6, 4, 4]	14	catFR1	0	R1138T
2287.839	4.616	2938209	PROB	4.616	n/a	n/a	n/a	-999	22	[1, 5, 8]	14	catFR1	0	R1138T
2292.455	3.951	2942825	PROB	3.951	n/a	n/a	n/a	-999	22	[7, 7, 3]	17	catFR1	0	R1138T
2296.406	5.352	2946776	PROB	5.352	n/a	n/a	n/a	-999	22	[3, 2, 5]	10	catFR1	0	R1138T
2301.758	5.412	2952128	PROB	5.412	n/a	n/a	n/a	-999	22	[2, 7, 6]	15	catFR1	0	R1138T
2307.17	0.005	2957539	STOP	n/a	n/a	n/a	n/a	-999	22	[-999, -999, -999]	n/a	catFR1	0	R1138T
2307.175	1.117	2957544	DISTRACT_END	n/a	n/a	n/a	n/a	-999	22	[0, 0, 0]	n/a	catFR1	0	R1138T
2308.292	2.192	2958661	REC_START	n/a	n/a	n/a	n/a	-999	22	[0, 0, 0]	n/a	catFR1	0	R1138T
2310.484	3.844	2960853	REC_WORD	3.844	n/a	NIGHTSTAND	Furniture	12	22	[0, 0, 0]	n/a	catFR1	0	R1138T
2314.328	23.975	2964697	REC_WORD	23.975	n/a	FUDGE	Desserts	10	22	[0, 0, 0]	n/a	catFR1	0	R1138T
2338.303	2.278	2988671	REC_END	n/a	n/a	n/a	n/a	-999	22	[0, 0, 0]	n/a	catFR1	0	R1138T
2340.581	0.0	2990949	TRIAL	n/a	n/a	n/a	n/a	-999	23	[0, 0, 0]	n/a	catFR1	0	R1138T
2340.581	10.428	2990949	COUNTDOWN_START	n/a	n/a	n/a	n/a	-999	23	[0, 0, 0]	n/a	catFR1	0	R1138T
2351.009	0.008	3001376	COUNTDOWN_END	n/a	n/a	n/a	n/a	-999	23	[0, 0, 0]	n/a	catFR1	0	R1138T
2351.017	3.7	3001384	ORIENT	n/a	n/a	n/a	n/a	-999	23	[0, 0, 0]	n/a	catFR1	0	R1138T
2354.717	2.583	3005084	WORD	n/a	wordpools/wordpool_categorized_EN.txt	CALF	FarmAnimals	1	23	[0, 0, 0]	n/a	catFR1	0	R1138T
2357.3	2.535	3007667	WORD	n/a	wordpools/wordpool_categorized_EN.txt	TURKEY	FarmAnimals	2	23	[0, 0, 0]	n/a	catFR1	0	R1138T
2359.835	2.566	3010202	WORD	n/a	wordpools/wordpool_categorized_EN.txt	HILLS	Landscapes	3	23	[0, 0, 0]	n/a	catFR1	0	R1138T
2362.401	2.368	3012768	WORD	n/a	wordpools/wordpool_categorized_EN.txt	VALLEY	Landscapes	4	23	[0, 0, 0]	n/a	catFR1	0	R1138T
2364.769	2.4	3015136	WORD	n/a	wordpools/wordpool_categorized_EN.txt	BLUEBERRY	Fruit	5	23	[0, 0, 0]	n/a	catFR1	0	R1138T
2367.169	2.467	3017535	WORD	n/a	wordpools/wordpool_categorized_EN.txt	ORANGE	Fruit	6	23	[0, 0, 0]	n/a	catFR1	0	R1138T
2369.636	2.534	3020002	WORD	n/a	wordpools/wordpool_categorized_EN.txt	GOAT	FarmAnimals	7	23	[0, 0, 0]	n/a	catFR1	0	R1138T
2372.17	2.434	3022536	WORD	n/a	wordpools/wordpool_categorized_EN.txt	HORSE	FarmAnimals	8	23	[0, 0, 0]	n/a	catFR1	0	R1138T
2374.604	2.55	3024970	WORD	n/a	wordpools/wordpool_categorized_EN.txt	LIME	Fruit	9	23	[0, 0, 0]	n/a	catFR1	0	R1138T
2377.154	2.451	3027520	WORD	n/a	wordpools/wordpool_categorized_EN.txt	BANANA	Fruit	10	23	[0, 0, 0]	n/a	catFR1	0	R1138T
2379.605	2.617	3029971	WORD	n/a	wordpools/wordpool_categorized_EN.txt	OCEAN	Landscapes	11	23	[0, 0, 0]	n/a	catFR1	0	R1138T
2382.222	1.618	3032588	WORD	n/a	wordpools/wordpool_categorized_EN.txt	STREAM	Landscapes	12	23	[0, 0, 0]	n/a	catFR1	0	R1138T
2383.84	0.001	3034206	DISTRACT_START	n/a	n/a	n/a	n/a	-999	23	[0, 0, 0]	n/a	catFR1	0	R1138T
2383.841	0.015	3034207	START	n/a	n/a	n/a	n/a	-999	23	[-999, -999, -999]	n/a	catFR1	0	R1138T
2383.856	4.55	3034222	PROB	4.55	n/a	n/a	n/a	-999	23	[7, 8, 4]	19	catFR1	0	R1138T
2388.406	3.184	3038771	PROB	3.184	n/a	n/a	n/a	-999	23	[5, 2, 4]	11	catFR1	0	R1138T
2391.59	4.634	3041955	PROB	4.634	n/a	n/a	n/a	-999	23	[6, 1, 7]	14	catFR1	0	R1138T
2396.224	3.151	3046589	PROB	3.151	n/a	n/a	n/a	-999	23	[1, 8, 2]	11	catFR1	0	R1138T
2399.375	4.267	3049740	PROB	4.267	n/a	n/a	n/a	-999	23	[4, 1, 1]	6	catFR1	0	R1138T
2403.642	4.888	3054007	PROB	4.888	n/a	n/a	n/a	-999	23	[1, 6, 4]	11	catFR1	0	R1138T
2408.53	0.013	3058894	STOP	n/a	n/a	n/a	n/a	-999	23	[-999, -999, -999]	n/a	catFR1	0	R1138T
2408.543	1.084	3058907	DISTRACT_END	n/a	n/a	n/a	n/a	-999	23	[0, 0, 0]	n/a	catFR1	0	R1138T
2409.627	1.824	3059991	REC_START	n/a	n/a	n/a	n/a	-999	23	[0, 0, 0]	n/a	catFR1	0	R1138T
2411.451	28.19	3061815	REC_WORD	28.19	n/a	BANANA	Fruit	10	23	[0, 0, 0]	n/a	catFR1	0	R1138T
2439.641	2.226	3090004	REC_END	n/a	n/a	n/a	n/a	-999	23	[0, 0, 0]	n/a	catFR1	0	R1138T
2441.867	0.0	3092230	TRIAL	n/a	n/a	n/a	n/a	-999	24	[0, 0, 0]	n/a	catFR1	0	R1138T
2441.867	10.428	3092230	COUNTDOWN_START	n/a	n/a	n/a	n/a	-999	24	[0, 0, 0]	n/a	catFR1	0	R1138T
2452.295	0.006	3102657	COUNTDOWN_END	n/a	n/a	n/a	n/a	-999	24	[0, 0, 0]	n/a	catFR1	0	R1138T
2452.301	3.984	3102663	ORIENT	n/a	n/a	n/a	n/a	-999	24	[0, 0, 0]	n/a	catFR1	0	R1138T
2456.285	2.468	3106647	WORD	n/a	wordpools/wordpool_categorized_EN.txt	CABBAGE	Vegetables	1	24	[0, 0, 0]	n/a	catFR1	0	R1138T
2458.753	2.4	3109115	WORD	n/a	wordpools/wordpool_categorized_EN.txt	ONION	Vegetables	2	24	[0, 0, 0]	n/a	catFR1	0	R1138T
2461.153	2.483	3111515	WORD	n/a	wordpools/wordpool_categorized_EN.txt	CRICKET	Insects	3	24	[0, 0, 0]	n/a	catFR1	0	R1138T
2463.636	2.551	3113998	WORD	n/a	wordpools/wordpool_categorized_EN.txt	FLY	Insects	4	24	[0, 0, 0]	n/a	catFR1	0	R1138T
2466.187	2.45	3116549	WORD	n/a	wordpools/wordpool_categorized_EN.txt	SPRUCE	Trees	5	24	[0, 0, 0]	n/a	catFR1	0	R1138T
2468.637	2.584	3118998	WORD	n/a	wordpools/wordpool_categorized_EN.txt	BIRCH	Trees	6	24	[0, 0, 0]	n/a	catFR1	0	R1138T
2471.221	2.467	3121582	WORD	n/a	wordpools/wordpool_categorized_EN.txt	LADYBUG	Insects	7	24	[0, 0, 0]	n/a	catFR1	0	R1138T
2473.688	2.517	3124049	WORD	n/a	wordpools/wordpool_categorized_EN.txt	BUTTERFLY	Insects	8	24	[0, 0, 0]	n/a	catFR1	0	R1138T
2476.205	2.568	3126566	WORD	n/a	wordpools/wordpool_categorized_EN.txt	POTATO	Vegetables	9	24	[0, 0, 0]	n/a	catFR1	0	R1138T
2478.773	2.4	3129134	WORD	n/a	wordpools/wordpool_categorized_EN.txt	SPINACH	Vegetables	10	24	[0, 0, 0]	n/a	catFR1	0	R1138T
2481.173	2.618	3131534	WORD	n/a	wordpools/wordpool_categorized_EN.txt	PINE	Trees	11	24	[0, 0, 0]	n/a	catFR1	0	R1138T
2483.791	1.616	3134152	WORD	n/a	wordpools/wordpool_categorized_EN.txt	MAPLE	Trees	12	24	[0, 0, 0]	n/a	catFR1	0	R1138T
2485.407	0.001	3135768	DISTRACT_START	n/a	n/a	n/a	n/a	-999	24	[0, 0, 0]	n/a	catFR1	0	R1138T
2485.408	0.016	3135769	START	n/a	n/a	n/a	n/a	-999	24	[-999, -999, -999]	n/a	catFR1	0	R1138T
2485.424	4.1	3135785	PROB	4.1	n/a	n/a	n/a	-999	24	[3, 1, 7]	11	catFR1	0	R1138T
2489.524	7.669	3139884	PROB	7.669	n/a	n/a	n/a	-999	24	[2, 7, 6]	15	catFR1	0	R1138T
2497.193	4.768	3147553	PROB	4.768	n/a	n/a	n/a	-999	24	[4, 6, 2]	12	catFR1	0	R1138T
2501.961	5.689	3152321	PROB	5.689	n/a	n/a	n/a	-999	24	[3, 2, 3]	8	catFR1	0	R1138T
2507.65	0.011	3158010	STOP	n/a	n/a	n/a	n/a	-999	24	[-999, -999, -999]	n/a	catFR1	0	R1138T
2507.661	1.051	3158021	DISTRACT_END	n/a	n/a	n/a	n/a	-999	24	[0, 0, 0]	n/a	catFR1	0	R1138T
2508.712	2.941	3159071	REC_START	n/a	n/a	n/a	n/a	-999	24	[0, 0, 0]	n/a	catFR1	0	R1138T
2511.653	3.566	3162012	REC_WORD	3.566	n/a	PINE	Trees	11	24	[0, 0, 0]	n/a	catFR1	0	R1138T
2515.219	23.504	3165578	REC_WORD	23.504	n/a	MAPLE	Trees	12	24	[0, 0, 0]	n/a	catFR1	0	R1138T
2538.723	2.461	3189081	REC_END	n/a	n/a	n/a	n/a	-999	24	[0, 0, 0]	n/a	catFR1	0	R1138T
2541.184	0.0	3191542	TRIAL	n/a	n/a	n/a	n/a	-999	25	[0, 0, 0]	n/a	catFR1	0	R1138T
2541.184	10.428	3191542	COUNTDOWN_START	n/a	n/a	n/a	n/a	-999	25	[0, 0, 0]	n/a	catFR1	0	R1138T
2551.612	0.007	3201969	COUNTDOWN_END	n/a	n/a	n/a	n/a	-999	25	[0, 0, 0]	n/a	catFR1	0	R1138T
2551.619	3.851	3201976	ORIENT	n/a	n/a	n/a	n/a	-999	25	[0, 0, 0]	n/a	catFR1	0	R1138T
2555.47	2.401	3205827	WORD	n/a	wordpools/wordpool_categorized_EN.txt	PUZZLE	Toys	1	25	[0, 0, 0]	n/a	catFR1	0	R1138T
2557.871	2.6	3208228	WORD	n/a	wordpools/wordpool_categorized_EN.txt	MARBLES	Toys	2	25	[0, 0, 0]	n/a	catFR1	0	R1138T
2560.471	2.451	3210828	WORD	n/a	wordpools/wordpool_categorized_EN.txt	TORNADO	Weather	3	25	[0, 0, 0]	n/a	catFR1	0	R1138T
2562.922	2.483	3213279	WORD	n/a	wordpools/wordpool_categorized_EN.txt	HUMIDITY	Weather	4	25	[0, 0, 0]	n/a	catFR1	0	R1138T
2565.405	2.468	3215762	WORD	n/a	wordpools/wordpool_categorized_EN.txt	MARIGOLD	Flowers	5	25	[0, 0, 0]	n/a	catFR1	0	R1138T
2567.873	2.483	3218230	WORD	n/a	wordpools/wordpool_categorized_EN.txt	CARNATION	Flowers	6	25	[0, 0, 0]	n/a	catFR1	0	R1138T
2570.356	2.468	3220712	WORD	n/a	wordpools/wordpool_categorized_EN.txt	LIGHTNING	Weather	7	25	[0, 0, 0]	n/a	catFR1	0	R1138T
2572.824	2.466	3223180	WORD	n/a	wordpools/wordpool_categorized_EN.txt	THUNDERSTORM	Weather	8	25	[0, 0, 0]	n/a	catFR1	0	R1138T
2575.29	2.585	3225646	WORD	n/a	wordpools/wordpool_categorized_EN.txt	BASEBALL	Toys	9	25	[0, 0, 0]	n/a	catFR1	0	R1138T
2577.875	2.583	3228231	WORD	n/a	wordpools/wordpool_categorized_EN.txt	DOLLHOUSE	Toys	10	25	[0, 0, 0]	n/a	catFR1	0	R1138T
2580.458	2.585	3230814	WORD	n/a	wordpools/wordpool_categorized_EN.txt	DAFFODIL	Flowers	11	25	[0, 0, 0]	n/a	catFR1	0	R1138T
2583.043	1.615	3233399	WORD	n/a	wordpools/wordpool_categorized_EN.txt	DAISY	Flowers	12	25	[0, 0, 0]	n/a	catFR1	0	R1138T
2584.658	0.001	3235014	DISTRACT_START	n/a	n/a	n/a	n/a	-999	25	[0, 0, 0]	n/a	catFR1	0	R1138T
2584.659	0.016	3235015	START	n/a	n/a	n/a	n/a	-999	25	[-999, -999, -999]	n/a	catFR1	0	R1138T
2584.675	3.867	3235031	PROB	3.867	n/a	n/a	n/a	-999	25	[9, 2, 9]	20	catFR1	0	R1138T
2588.542	6.035	3238898	PROB	6.035	n/a	n/a	n/a	-999	25	[9, 6, 4]	19	catFR1	0	R1138T
2594.577	6.001	3244932	PROB	6.001	n/a	n/a	n/a	-999	25	[6, 7, 6]	19	catFR1	0	R1138T
2600.578	4.64	3250933	PROB	4.64	n/a	n/a	n/a	-999	25	[5, 4, 9]	18	catFR1	0	R1138T
2605.218	0.011	3255573	STOP	n/a	n/a	n/a	n/a	-999	25	[-999, -999, -999]	n/a	catFR1	0	R1138T
2605.229	1.051	3255584	DISTRACT_END	n/a	n/a	n/a	n/a	-999	25	[0, 0, 0]	n/a	catFR1	0	R1138T
2606.28	1.74	3256635	REC_START	n/a	n/a	n/a	n/a	-999	25	[0, 0, 0]	n/a	catFR1	0	R1138T
2608.02	1.135	3258375	REC_WORD	1.135	n/a	THUNDERSTORM	Weather	8	25	[0, 0, 0]	n/a	catFR1	0	R1138T
2609.155	1.862	3259510	REC_WORD	1.862	n/a	TORNADO	Weather	3	25	[0, 0, 0]	n/a	catFR1	0	R1138T
2611.017	7.974	3261371	REC_WORD	7.974	n/a	BASEBALL	Toys	9	25	[0, 0, 0]	n/a	catFR1	0	R1138T
2618.991	0.314	3269345	REC_WORD	0.314	n/a	DAISY	Flowers	12	25	[0, 0, 0]	n/a	catFR1	0	R1138T
2619.305	16.986	3269659	REC_WORD	16.986	n/a	HOUSE	n/a	-999	25	[0, 0, 0]	n/a	catFR1	0	R1138T
2636.291	43.018	3286644	REC_END	n/a	n/a	n/a	n/a	-999	25	[0, 0, 0]	n/a	catFR1	0	R1138T
2679.309	0.0	-1	SESS_END	n/a	n/a	n/a	n/a	-999	25	[0, 0, 0]	n/a	catFR1	0	R1138T
