onset	duration	sample	trial_type	response_time	stim_file	item_name	category	serialpos	list	test	answer	experiment	session	subject
0.0	2.594	3228	INSTRUCT_START	n/a	n/a	n/a	n/a	-999	-999	[0, 0, 0]	n/a	catFR1	4	R1403N
2.594	24.082	5825	INSTRUCT_END	n/a	n/a	n/a	n/a	-999	-999	[0, 0, 0]	n/a	catFR1	4	R1403N
26.676	10.351	29904	COUNTDOWN_START	n/a	n/a	n/a	n/a	-999	-999	[0, 0, 0]	n/a	catFR1	4	R1403N
37.027	0.0	40257	COUNTDOWN_END	n/a	n/a	n/a	n/a	-999	-999	[0, 0, 0]	n/a	catFR1	4	R1403N
37.027	2.25	40257	ENCODING_START	n/a	n/a	n/a	n/a	-999	-1	[0, 0, 0]	n/a	catFR1	4	R1403N
39.277	1.616	42493	WORD	n/a	n/a	RADIO	Electronics	1	-1	[0, 0, 0]	n/a	catFR1	4	R1403N
40.893	0.916	44116	WORD_OFF	n/a	n/a	RADIO	Electronics	1	-1	[0, 0, 0]	n/a	catFR1	4	R1403N
41.809	1.6	45036	WORD	n/a	n/a	TABLET	Electronics	2	-1	[0, 0, 0]	n/a	catFR1	4	R1403N
43.409	0.784	46624	WORD_OFF	n/a	n/a	TABLET	Electronics	2	-1	[0, 0, 0]	n/a	catFR1	4	R1403N
44.193	1.616	47417	WORD	n/a	n/a	SILK	Fabric	3	-1	[0, 0, 0]	n/a	catFR1	4	R1403N
45.809	0.85	49040	WORD_OFF	n/a	n/a	SILK	Fabric	3	-1	[0, 0, 0]	n/a	catFR1	4	R1403N
46.659	1.617	49888	WORD	n/a	n/a	SUEDE	Fabric	4	-1	[0, 0, 0]	n/a	catFR1	4	R1403N
48.276	0.8	51493	WORD_OFF	n/a	n/a	SUEDE	Fabric	4	-1	[0, 0, 0]	n/a	catFR1	4	R1403N
49.076	1.616	52305	WORD	n/a	n/a	BARBIE	Toys	5	-1	[0, 0, 0]	n/a	catFR1	4	R1403N
50.692	0.784	53910	WORD_OFF	n/a	n/a	BARBIE	Toys	5	-1	[0, 0, 0]	n/a	catFR1	4	R1403N
51.476	1.6	54704	WORD	n/a	n/a	FRISBEE	Toys	6	-1	[0, 0, 0]	n/a	catFR1	4	R1403N
53.076	0.866	56291	WORD_OFF	n/a	n/a	FRISBEE	Toys	6	-1	[0, 0, 0]	n/a	catFR1	4	R1403N
53.942	1.617	57157	WORD	n/a	n/a	PHONE	Electronics	7	-1	[0, 0, 0]	n/a	catFR1	4	R1403N
55.559	0.817	58780	WORD_OFF	n/a	n/a	PHONE	Electronics	7	-1	[0, 0, 0]	n/a	catFR1	4	R1403N
56.376	1.6	59592	WORD	n/a	n/a	STEREO	Electronics	8	-1	[0, 0, 0]	n/a	catFR1	4	R1403N
57.976	1.0	61197	WORD_OFF	n/a	n/a	STEREO	Electronics	8	-1	[0, 0, 0]	n/a	catFR1	4	R1403N
58.976	1.6	62207	WORD	n/a	n/a	WOOL	Fabric	9	-1	[0, 0, 0]	n/a	catFR1	4	R1403N
60.576	0.783	63794	WORD_OFF	n/a	n/a	WOOL	Fabric	9	-1	[0, 0, 0]	n/a	catFR1	4	R1403N
61.359	1.617	64588	WORD	n/a	n/a	LEATHER	Fabric	10	-1	[0, 0, 0]	n/a	catFR1	4	R1403N
62.976	0.983	66193	WORD_OFF	n/a	n/a	LEATHER	Fabric	10	-1	[0, 0, 0]	n/a	catFR1	4	R1403N
63.959	1.618	67185	WORD	n/a	n/a	PUZZLE	Toys	11	-1	[0, 0, 0]	n/a	catFR1	4	R1403N
65.577	0.766	68790	WORD_OFF	n/a	n/a	PUZZLE	Toys	11	-1	[0, 0, 0]	n/a	catFR1	4	R1403N
66.343	1.601	69566	WORD	n/a	n/a	BLOCKS	Toys	12	-1	[0, 0, 0]	n/a	catFR1	4	R1403N
67.944	0.001	71171	WORD_OFF	n/a	n/a	BLOCKS	Toys	12	-1	[0, 0, 0]	n/a	catFR1	4	R1403N
67.945	0.0	71171	ENCODING_END	n/a	n/a	n/a	n/a	-999	-1	[0, 0, 0]	n/a	catFR1	4	R1403N
67.945	0.001	71167	PROB	0.001	n/a	n/a	n/a	-999	-1	[2, 6, 6]	14	catFR1	4	R1403N
67.946	0.0	71171	DISTRACT_START	n/a	n/a	n/a	n/a	-999	-1	[0, 0, 0]	n/a	catFR1	4	R1403N
67.946	7.064	71168	START	n/a	n/a	n/a	n/a	-999	-1	[-999, -999, -999]	n/a	catFR1	4	R1403N
75.01	3.267	78232	PROB	3.267	n/a	n/a	n/a	-999	-1	[8, 2, 6]	16	catFR1	4	R1403N
78.277	2.916	81499	PROB	2.916	n/a	n/a	n/a	-999	-1	[1, 3, 1]	5	catFR1	4	R1403N
81.193	3.317	84415	PROB	3.317	n/a	n/a	n/a	-999	-1	[7, 6, 8]	21	catFR1	4	R1403N
84.51	3.882	87732	PROB	3.882	n/a	n/a	n/a	-999	-1	[4, 2, 8]	14	catFR1	4	R1403N
88.392	0.0	91606	DISTRACT_END	n/a	n/a	n/a	n/a	-999	-1	[0, 0, 0]	n/a	catFR1	4	R1403N
88.392	2.184	91613	STOP	n/a	n/a	n/a	n/a	-999	-1	[-999, -999, -999]	n/a	catFR1	4	R1403N
90.576	1.668	93797	REC_START	n/a	n/a	n/a	n/a	-999	-1	[0, 0, 0]	n/a	catFR1	4	R1403N
92.244	0.464	95465	REC_WORD	0.464	n/a	RADIO	Electronics	1	-1	[0, 0, 0]	n/a	catFR1	4	R1403N
92.708	1.916	95929	REC_WORD	1.916	n/a	DOLL	n/a	-999	-1	[0, 0, 0]	n/a	catFR1	4	R1403N
94.624	1.752	97845	REC_WORD	1.752	n/a	BARBIE	Toys	5	-1	[0, 0, 0]	n/a	catFR1	4	R1403N
96.376	1.277	99597	REC_WORD	1.277	n/a	WOOL	Fabric	9	-1	[0, 0, 0]	n/a	catFR1	4	R1403N
97.653	1.904	100874	REC_WORD	1.904	n/a	SUEDE	Fabric	4	-1	[0, 0, 0]	n/a	catFR1	4	R1403N
99.557	21.235	102778	REC_WORD	21.235	n/a	DOLLHOUSE	n/a	-999	-1	[0, 0, 0]	n/a	catFR1	4	R1403N
120.792	6.601	124017	REC_END	n/a	n/a	n/a	n/a	-999	-1	[0, 0, 0]	n/a	catFR1	4	R1403N
127.393	10.351	130619	COUNTDOWN_START	n/a	n/a	n/a	n/a	-999	1	[0, 0, 0]	n/a	catFR1	4	R1403N
137.744	0.0	140972	COUNTDOWN_END	n/a	n/a	n/a	n/a	-999	1	[0, 0, 0]	n/a	catFR1	4	R1403N
137.744	2.299	140972	ENCODING_START	n/a	n/a	n/a	n/a	-999	1	[0, 0, 0]	n/a	catFR1	4	R1403N
140.043	1.616	143262	WORD	n/a	wordpools/wordpool_categorized_EN.txt	OVEN	Appliances	1	1	[0, 0, 0]	n/a	catFR1	4	R1403N
141.659	0.784	144885	WORD_OFF	n/a	n/a	OVEN	Appliances	1	1	[0, 0, 0]	n/a	catFR1	4	R1403N
142.443	1.616	145661	WORD	n/a	wordpools/wordpool_categorized_EN.txt	WASHER	Appliances	2	1	[0, 0, 0]	n/a	catFR1	4	R1403N
144.059	0.818	147284	WORD_OFF	n/a	n/a	WASHER	Appliances	2	1	[0, 0, 0]	n/a	catFR1	4	R1403N
144.877	1.6	148096	WORD	n/a	wordpools/wordpool_categorized_EN.txt	LAKE	Landscapes	3	1	[0, 0, 0]	n/a	catFR1	4	R1403N
146.477	0.866	149701	WORD_OFF	n/a	n/a	LAKE	Landscapes	3	1	[0, 0, 0]	n/a	catFR1	4	R1403N
147.343	1.617	150567	WORD	n/a	wordpools/wordpool_categorized_EN.txt	FOREST	Landscapes	4	1	[0, 0, 0]	n/a	catFR1	4	R1403N
148.96	0.866	152172	WORD_OFF	n/a	n/a	FOREST	Landscapes	4	1	[0, 0, 0]	n/a	catFR1	4	R1403N
149.826	1.6	153038	WORD	n/a	wordpools/wordpool_categorized_EN.txt	DRESS	Clothing	5	1	[0, 0, 0]	n/a	catFR1	4	R1403N
151.426	0.783	154643	WORD_OFF	n/a	n/a	DRESS	Clothing	5	1	[0, 0, 0]	n/a	catFR1	4	R1403N
152.209	1.601	155437	WORD	n/a	wordpools/wordpool_categorized_EN.txt	UNDERWEAR	Clothing	6	1	[0, 0, 0]	n/a	catFR1	4	R1403N
153.81	0.966	157024	WORD_OFF	n/a	n/a	UNDERWEAR	Clothing	6	1	[0, 0, 0]	n/a	catFR1	4	R1403N
154.776	1.617	157998	WORD	n/a	wordpools/wordpool_categorized_EN.txt	BEACH	Landscapes	7	1	[0, 0, 0]	n/a	catFR1	4	R1403N
156.393	0.867	159621	WORD_OFF	n/a	n/a	BEACH	Landscapes	7	1	[0, 0, 0]	n/a	catFR1	4	R1403N
157.26	1.6	160487	WORD	n/a	wordpools/wordpool_categorized_EN.txt	VALLEY	Landscapes	8	1	[0, 0, 0]	n/a	catFR1	4	R1403N
158.86	0.966	162074	WORD_OFF	n/a	n/a	VALLEY	Landscapes	8	1	[0, 0, 0]	n/a	catFR1	4	R1403N
159.826	1.616	163048	WORD	n/a	wordpools/wordpool_categorized_EN.txt	MIXER	Appliances	9	1	[0, 0, 0]	n/a	catFR1	4	R1403N
161.442	0.784	164653	WORD_OFF	n/a	n/a	MIXER	Appliances	9	1	[0, 0, 0]	n/a	catFR1	4	R1403N
162.226	1.617	165447	WORD	n/a	wordpools/wordpool_categorized_EN.txt	BLENDER	Appliances	10	1	[0, 0, 0]	n/a	catFR1	4	R1403N
163.843	0.933	167070	WORD_OFF	n/a	n/a	BLENDER	Appliances	10	1	[0, 0, 0]	n/a	catFR1	4	R1403N
164.776	1.617	167990	WORD	n/a	wordpools/wordpool_categorized_EN.txt	SKIRT	Clothing	11	1	[0, 0, 0]	n/a	catFR1	4	R1403N
166.393	0.767	169613	WORD_OFF	n/a	n/a	SKIRT	Clothing	11	1	[0, 0, 0]	n/a	catFR1	4	R1403N
167.16	1.616	170371	WORD	n/a	wordpools/wordpool_categorized_EN.txt	SHORTS	Clothing	12	1	[0, 0, 0]	n/a	catFR1	4	R1403N
168.776	0.001	171994	WORD_OFF	n/a	n/a	SHORTS	Clothing	12	1	[0, 0, 0]	n/a	catFR1	4	R1403N
168.777	0.001	171996	PROB	0.001	n/a	n/a	n/a	-999	1	[7, 2, 8]	17	catFR1	4	R1403N
168.778	0.0	171994	DISTRACT_START	n/a	n/a	n/a	n/a	-999	1	[0, 0, 0]	n/a	catFR1	4	R1403N
168.778	0.0	171994	ENCODING_END	n/a	n/a	n/a	n/a	-999	1	[0, 0, 0]	n/a	catFR1	4	R1403N
168.778	3.349	171997	START	n/a	n/a	n/a	n/a	-999	1	[-999, -999, -999]	n/a	catFR1	4	R1403N
172.127	5.466	175346	PROB	5.466	n/a	n/a	n/a	-999	1	[3, 5, 8]	16	catFR1	4	R1403N
177.593	3.801	180812	PROB	3.801	n/a	n/a	n/a	-999	1	[2, 4, 4]	10	catFR1	4	R1403N
181.394	3.233	184613	PROB	3.233	n/a	n/a	n/a	-999	1	[6, 3, 2]	11	catFR1	4	R1403N
184.627	3.367	187846	PROB	3.367	n/a	n/a	n/a	-999	1	[4, 6, 2]	12	catFR1	4	R1403N
187.994	3.749	191212	PROB	3.749	n/a	n/a	n/a	-999	1	[3, 1, 8]	12	catFR1	4	R1403N
191.743	0.0	194954	DISTRACT_END	n/a	n/a	n/a	n/a	-999	1	[0, 0, 0]	n/a	catFR1	4	R1403N
191.743	2.233	194961	STOP	n/a	n/a	n/a	n/a	-999	1	[-999, -999, -999]	n/a	catFR1	4	R1403N
193.976	2.37	197199	REC_START	n/a	n/a	n/a	n/a	-999	1	[0, 0, 0]	n/a	catFR1	4	R1403N
196.346	1.396	199564	REC_WORD	1.396	n/a	SHORTS	Clothing	12	1	[0, 0, 0]	n/a	catFR1	4	R1403N
197.742	0.883	200960	REC_WORD	0.883	n/a	UNDERWEAR	Clothing	6	1	[0, 0, 0]	n/a	catFR1	4	R1403N
198.625	4.304	201843	REC_WORD	4.304	n/a	DRESSER	n/a	-999	1	[0, 0, 0]	n/a	catFR1	4	R1403N
202.929	2.345	206147	REC_WORD	2.345	n/a	SKIRT	Clothing	11	1	[0, 0, 0]	n/a	catFR1	4	R1403N
205.274	0.923	208492	REC_WORD	0.923	n/a	VALLEY	Landscapes	8	1	[0, 0, 0]	n/a	catFR1	4	R1403N
206.197	1.572	209415	REC_WORD	1.572	n/a	BEACH	Landscapes	7	1	[0, 0, 0]	n/a	catFR1	4	R1403N
207.769	6.713	210987	REC_WORD	6.713	n/a	LAKE	Landscapes	3	1	[0, 0, 0]	n/a	catFR1	4	R1403N
214.482	9.721	217700	REC_WORD	9.721	n/a	RIVER	n/a	-999	1	[0, 0, 0]	n/a	catFR1	4	R1403N
224.203	4.222	227420	REC_END	n/a	n/a	n/a	n/a	-999	1	[0, 0, 0]	n/a	catFR1	4	R1403N
228.425	10.352	231640	COUNTDOWN_START	n/a	n/a	n/a	n/a	-999	2	[0, 0, 0]	n/a	catFR1	4	R1403N
238.777	0.0	241993	COUNTDOWN_END	n/a	n/a	n/a	n/a	-999	2	[0, 0, 0]	n/a	catFR1	4	R1403N
238.777	2.249	241993	ENCODING_START	n/a	n/a	n/a	n/a	-999	2	[0, 0, 0]	n/a	catFR1	4	R1403N
241.026	1.6	244248	WORD	n/a	wordpools/wordpool_categorized_EN.txt	WRENCH	Tools	1	2	[0, 0, 0]	n/a	catFR1	4	R1403N
242.626	0.983	245835	WORD_OFF	n/a	n/a	WRENCH	Tools	1	2	[0, 0, 0]	n/a	catFR1	4	R1403N
243.609	1.617	246827	WORD	n/a	wordpools/wordpool_categorized_EN.txt	LEVEL	Tools	2	2	[0, 0, 0]	n/a	catFR1	4	R1403N
245.226	0.983	248450	WORD_OFF	n/a	n/a	LEVEL	Tools	2	2	[0, 0, 0]	n/a	catFR1	4	R1403N
246.209	1.617	249424	WORD	n/a	wordpools/wordpool_categorized_EN.txt	COUCH	Furniture	3	2	[0, 0, 0]	n/a	catFR1	4	R1403N
247.826	0.95	251047	WORD_OFF	n/a	n/a	COUCH	Furniture	3	2	[0, 0, 0]	n/a	catFR1	4	R1403N
248.776	1.616	251985	WORD	n/a	wordpools/wordpool_categorized_EN.txt	BOOKCASE	Furniture	4	2	[0, 0, 0]	n/a	catFR1	4	R1403N
250.392	0.868	253609	WORD_OFF	n/a	n/a	BOOKCASE	Furniture	4	2	[0, 0, 0]	n/a	catFR1	4	R1403N
251.26	1.599	254474	WORD	n/a	wordpools/wordpool_categorized_EN.txt	TURKEY	FarmAnimals	5	2	[0, 0, 0]	n/a	catFR1	4	R1403N
252.859	0.95	256080	WORD_OFF	n/a	n/a	TURKEY	FarmAnimals	5	2	[0, 0, 0]	n/a	catFR1	4	R1403N
253.809	1.6	257017	WORD	n/a	wordpools/wordpool_categorized_EN.txt	HEN	FarmAnimals	6	2	[0, 0, 0]	n/a	catFR1	4	R1403N
255.409	0.767	258623	WORD_OFF	n/a	n/a	HEN	FarmAnimals	6	2	[0, 0, 0]	n/a	catFR1	4	R1403N
256.176	1.616	259398	WORD	n/a	wordpools/wordpool_categorized_EN.txt	DRESSER	Furniture	7	2	[0, 0, 0]	n/a	catFR1	4	R1403N
257.792	0.766	261003	WORD_OFF	n/a	n/a	DRESSER	Furniture	7	2	[0, 0, 0]	n/a	catFR1	4	R1403N
258.558	1.601	261779	WORD	n/a	wordpools/wordpool_categorized_EN.txt	RECLINER	Furniture	8	2	[0, 0, 0]	n/a	catFR1	4	R1403N
260.159	0.8	263366	WORD_OFF	n/a	n/a	RECLINER	Furniture	8	2	[0, 0, 0]	n/a	catFR1	4	R1403N
260.959	1.6	264178	WORD	n/a	wordpools/wordpool_categorized_EN.txt	SAW	Tools	9	2	[0, 0, 0]	n/a	catFR1	4	R1403N
262.559	0.783	265783	WORD_OFF	n/a	n/a	SAW	Tools	9	2	[0, 0, 0]	n/a	catFR1	4	R1403N
263.342	1.6	266559	WORD	n/a	wordpools/wordpool_categorized_EN.txt	SANDER	Tools	10	2	[0, 0, 0]	n/a	catFR1	4	R1403N
264.942	0.967	268164	WORD_OFF	n/a	n/a	SANDER	Tools	10	2	[0, 0, 0]	n/a	catFR1	4	R1403N
265.909	1.6	269120	WORD	n/a	wordpools/wordpool_categorized_EN.txt	ROOSTER	FarmAnimals	11	2	[0, 0, 0]	n/a	catFR1	4	R1403N
267.509	0.851	270725	WORD_OFF	n/a	n/a	ROOSTER	FarmAnimals	11	2	[0, 0, 0]	n/a	catFR1	4	R1403N
268.36	1.6	271573	WORD	n/a	wordpools/wordpool_categorized_EN.txt	CHICKEN	FarmAnimals	12	2	[0, 0, 0]	n/a	catFR1	4	R1403N
269.96	0.0	273178	WORD_OFF	n/a	n/a	CHICKEN	FarmAnimals	12	2	[0, 0, 0]	n/a	catFR1	4	R1403N
269.96	0.001	273176	PROB	0.001	n/a	n/a	n/a	-999	2	[1, 2, 4]	7	catFR1	4	R1403N
269.961	0.0	273178	DISTRACT_START	n/a	n/a	n/a	n/a	-999	2	[0, 0, 0]	n/a	catFR1	4	R1403N
269.961	0.0	273178	ENCODING_END	n/a	n/a	n/a	n/a	-999	2	[0, 0, 0]	n/a	catFR1	4	R1403N
269.961	5.65	273177	START	n/a	n/a	n/a	n/a	-999	2	[-999, -999, -999]	n/a	catFR1	4	R1403N
275.611	2.833	278827	PROB	2.833	n/a	n/a	n/a	-999	2	[5, 5, 2]	12	catFR1	4	R1403N
278.444	2.6	281660	PROB	2.6	n/a	n/a	n/a	-999	2	[3, 6, 4]	13	catFR1	4	R1403N
281.044	2.532	284260	PROB	2.532	n/a	n/a	n/a	-999	2	[7, 3, 3]	13	catFR1	4	R1403N
283.576	3.218	286791	PROB	3.218	n/a	n/a	n/a	-999	2	[6, 2, 1]	9	catFR1	4	R1403N
286.794	2.482	290009	PROB	2.482	n/a	n/a	n/a	-999	2	[7, 3, 3]	13	catFR1	4	R1403N
289.276	5.851	292491	PROB	5.851	n/a	n/a	n/a	-999	2	[7, 8, 1]	16	catFR1	4	R1403N
295.127	0.0	298339	DISTRACT_END	n/a	n/a	n/a	n/a	-999	2	[0, 0, 0]	n/a	catFR1	4	R1403N
295.127	2.1	298342	STOP	n/a	n/a	n/a	n/a	-999	2	[-999, -999, -999]	n/a	catFR1	4	R1403N
297.227	1.451	300439	REC_START	n/a	n/a	n/a	n/a	-999	2	[0, 0, 0]	n/a	catFR1	4	R1403N
298.678	0.676	301893	REC_WORD	0.676	n/a	HEN	FarmAnimals	6	2	[0, 0, 0]	n/a	catFR1	4	R1403N
299.354	0.72	302569	REC_WORD	0.72	n/a	TURKEY	FarmAnimals	5	2	[0, 0, 0]	n/a	catFR1	4	R1403N
300.074	0.705	303289	REC_WORD	0.705	n/a	CHICKEN	FarmAnimals	12	2	[0, 0, 0]	n/a	catFR1	4	R1403N
300.779	8.277	303994	REC_WORD	8.277	n/a	ROOSTER	FarmAnimals	11	2	[0, 0, 0]	n/a	catFR1	4	R1403N
309.056	2.052	312271	REC_WORD	2.052	n/a	DRESS	Clothing	-999	2	[0, 0, 0]	n/a	catFR1	4	R1403N
311.108	1.538	314323	REC_WORD	1.538	n/a	DRESSER	Furniture	7	2	[0, 0, 0]	n/a	catFR1	4	R1403N
312.646	0.519	315861	REC_WORD	0.519	n/a	SAW	Tools	9	2	[0, 0, 0]	n/a	catFR1	4	R1403N
313.165	14.275	316380	REC_WORD	14.275	n/a	SANDER	Tools	10	2	[0, 0, 0]	n/a	catFR1	4	R1403N
327.44	2.203	330660	REC_END	n/a	n/a	n/a	n/a	-999	2	[0, 0, 0]	n/a	catFR1	4	R1403N
329.643	10.35	332860	COUNTDOWN_START	n/a	n/a	n/a	n/a	-999	3	[0, 0, 0]	n/a	catFR1	4	R1403N
339.993	0.001	343213	COUNTDOWN_END	n/a	n/a	n/a	n/a	-999	3	[0, 0, 0]	n/a	catFR1	4	R1403N
339.994	2.265	343213	ENCODING_START	n/a	n/a	n/a	n/a	-999	3	[0, 0, 0]	n/a	catFR1	4	R1403N
342.259	1.6	345468	WORD	n/a	wordpools/wordpool_categorized_EN.txt	BEER	Beverages	1	3	[0, 0, 0]	n/a	catFR1	4	R1403N
343.859	0.9	347073	WORD_OFF	n/a	n/a	BEER	Beverages	1	3	[0, 0, 0]	n/a	catFR1	4	R1403N
344.759	1.6	347975	WORD	n/a	wordpools/wordpool_categorized_EN.txt	TEA	Beverages	2	3	[0, 0, 0]	n/a	catFR1	4	R1403N
346.359	0.884	349580	WORD_OFF	n/a	n/a	TEA	Beverages	2	3	[0, 0, 0]	n/a	catFR1	4	R1403N
347.243	1.616	350464	WORD	n/a	wordpools/wordpool_categorized_EN.txt	WALNUT	Trees	3	3	[0, 0, 0]	n/a	catFR1	4	R1403N
348.859	1.0	352069	WORD_OFF	n/a	n/a	WALNUT	Trees	3	3	[0, 0, 0]	n/a	catFR1	4	R1403N
349.859	1.616	353079	WORD	n/a	wordpools/wordpool_categorized_EN.txt	EVERGREEN	Trees	4	3	[0, 0, 0]	n/a	catFR1	4	R1403N
351.475	0.783	354684	WORD_OFF	n/a	n/a	EVERGREEN	Trees	4	3	[0, 0, 0]	n/a	catFR1	4	R1403N
352.258	1.601	355478	WORD	n/a	wordpools/wordpool_categorized_EN.txt	APPLE	Fruit	5	3	[0, 0, 0]	n/a	catFR1	4	R1403N
353.859	0.767	357065	WORD_OFF	n/a	n/a	APPLE	Fruit	5	3	[0, 0, 0]	n/a	catFR1	4	R1403N
354.626	1.617	357841	WORD	n/a	wordpools/wordpool_categorized_EN.txt	GRAPE	Fruit	6	3	[0, 0, 0]	n/a	catFR1	4	R1403N
356.243	0.983	359464	WORD_OFF	n/a	n/a	GRAPE	Fruit	6	3	[0, 0, 0]	n/a	catFR1	4	R1403N
357.226	1.6	360438	WORD	n/a	wordpools/wordpool_categorized_EN.txt	SPRUCE	Trees	7	3	[0, 0, 0]	n/a	catFR1	4	R1403N
358.826	0.933	362043	WORD_OFF	n/a	n/a	SPRUCE	Trees	7	3	[0, 0, 0]	n/a	catFR1	4	R1403N
359.759	1.6	362981	WORD	n/a	wordpools/wordpool_categorized_EN.txt	MAPLE	Trees	8	3	[0, 0, 0]	n/a	catFR1	4	R1403N
361.359	0.933	364568	WORD_OFF	n/a	n/a	MAPLE	Trees	8	3	[0, 0, 0]	n/a	catFR1	4	R1403N
362.292	1.617	365506	WORD	n/a	wordpools/wordpool_categorized_EN.txt	PLUM	Fruit	9	3	[0, 0, 0]	n/a	catFR1	4	R1403N
363.909	0.916	367129	WORD_OFF	n/a	n/a	PLUM	Fruit	9	3	[0, 0, 0]	n/a	catFR1	4	R1403N
364.825	1.601	368031	WORD	n/a	wordpools/wordpool_categorized_EN.txt	PEAR	Fruit	10	3	[0, 0, 0]	n/a	catFR1	4	R1403N
366.426	0.983	369636	WORD_OFF	n/a	n/a	PEAR	Fruit	10	3	[0, 0, 0]	n/a	catFR1	4	R1403N
367.409	1.6	370628	WORD	n/a	wordpools/wordpool_categorized_EN.txt	COFFEE	Beverages	11	3	[0, 0, 0]	n/a	catFR1	4	R1403N
369.009	0.784	372216	WORD_OFF	n/a	n/a	COFFEE	Beverages	11	3	[0, 0, 0]	n/a	catFR1	4	R1403N
369.793	1.6	373009	WORD	n/a	wordpools/wordpool_categorized_EN.txt	RUM	Beverages	12	3	[0, 0, 0]	n/a	catFR1	4	R1403N
371.393	0.0	374614	WORD_OFF	n/a	n/a	RUM	Beverages	12	3	[0, 0, 0]	n/a	catFR1	4	R1403N
371.393	0.002	374606	PROB	0.002	n/a	n/a	n/a	-999	3	[5, 7, 4]	16	catFR1	4	R1403N
371.395	0.0	374614	DISTRACT_START	n/a	n/a	n/a	n/a	-999	3	[0, 0, 0]	n/a	catFR1	4	R1403N
371.395	0.0	374614	ENCODING_END	n/a	n/a	n/a	n/a	-999	3	[0, 0, 0]	n/a	catFR1	4	R1403N
371.395	5.366	374608	START	n/a	n/a	n/a	n/a	-999	3	[-999, -999, -999]	n/a	catFR1	4	R1403N
376.761	6.299	379974	PROB	6.299	n/a	n/a	n/a	-999	3	[8, 1, 3]	12	catFR1	4	R1403N
383.06	11.483	386272	PROB	11.483	n/a	n/a	n/a	-999	3	[7, 4, 8]	19	catFR1	4	R1403N
394.543	0.0	397755	DISTRACT_END	n/a	n/a	n/a	n/a	-999	3	[0, 0, 0]	n/a	catFR1	4	R1403N
394.543	2.366	397755	STOP	n/a	n/a	n/a	n/a	-999	3	[-999, -999, -999]	n/a	catFR1	4	R1403N
396.909	2.069	400126	REC_START	n/a	n/a	n/a	n/a	-999	3	[0, 0, 0]	n/a	catFR1	4	R1403N
398.978	0.47	402190	REC_WORD	0.47	n/a	BEER	Beverages	1	3	[0, 0, 0]	n/a	catFR1	4	R1403N
399.448	2.507	402660	REC_WORD	2.507	n/a	RUM	Beverages	12	3	[0, 0, 0]	n/a	catFR1	4	R1403N
401.955	0.45	405167	REC_WORD	0.45	n/a	PLUM	Fruit	9	3	[0, 0, 0]	n/a	catFR1	4	R1403N
402.405	1.934	405617	REC_WORD	1.934	n/a	SPRUCE	Trees	7	3	[0, 0, 0]	n/a	catFR1	4	R1403N
404.339	0.721	407551	REC_WORD	0.721	n/a	APPLE	Fruit	5	3	[0, 0, 0]	n/a	catFR1	4	R1403N
405.06	4.043	408272	REC_WORD	4.043	n/a	GRAPE	Fruit	6	3	[0, 0, 0]	n/a	catFR1	4	R1403N
409.103	2.276	412315	REC_WORD	2.276	n/a	PEACH	n/a	-999	3	[0, 0, 0]	n/a	catFR1	4	R1403N
411.379	1.773	414591	REC_WORD	1.773	n/a	COFFEE	Beverages	11	3	[0, 0, 0]	n/a	catFR1	4	R1403N
413.152	9.267	416364	REC_WORD	9.267	n/a	EVERGREEN	Trees	4	3	[0, 0, 0]	n/a	catFR1	4	R1403N
422.419	4.697	425630	REC_WORD	4.697	n/a	SPRUCE	Trees	7	3	[0, 0, 0]	n/a	catFR1	4	R1403N
427.116	2.377	430329	REC_END	n/a	n/a	n/a	n/a	-999	3	[0, 0, 0]	n/a	catFR1	4	R1403N
429.493	10.351	432709	COUNTDOWN_START	n/a	n/a	n/a	n/a	-999	4	[0, 0, 0]	n/a	catFR1	4	R1403N
439.844	0.0	443062	COUNTDOWN_END	n/a	n/a	n/a	n/a	-999	4	[0, 0, 0]	n/a	catFR1	4	R1403N
439.844	2.082	443062	ENCODING_START	n/a	n/a	n/a	n/a	-999	4	[0, 0, 0]	n/a	catFR1	4	R1403N
441.926	1.617	445136	WORD	n/a	wordpools/wordpool_categorized_EN.txt	DOLPHIN	OceanAnimals	1	4	[0, 0, 0]	n/a	catFR1	4	R1403N
443.543	0.899	446760	WORD_OFF	n/a	n/a	DOLPHIN	OceanAnimals	1	4	[0, 0, 0]	n/a	catFR1	4	R1403N
444.442	1.601	447644	WORD	n/a	wordpools/wordpool_categorized_EN.txt	WHALE	OceanAnimals	2	4	[0, 0, 0]	n/a	catFR1	4	R1403N
446.043	0.966	449249	WORD_OFF	n/a	n/a	WHALE	OceanAnimals	2	4	[0, 0, 0]	n/a	catFR1	4	R1403N
447.009	1.601	450223	WORD	n/a	wordpools/wordpool_categorized_EN.txt	FOOTBALL	Toys	3	4	[0, 0, 0]	n/a	catFR1	4	R1403N
448.61	0.883	451828	WORD_OFF	n/a	n/a	FOOTBALL	Toys	3	4	[0, 0, 0]	n/a	catFR1	4	R1403N
449.493	1.6	452712	WORD	n/a	wordpools/wordpool_categorized_EN.txt	SLINKY	Toys	4	4	[0, 0, 0]	n/a	catFR1	4	R1403N
451.093	0.933	454299	WORD_OFF	n/a	n/a	SLINKY	Toys	4	4	[0, 0, 0]	n/a	catFR1	4	R1403N
452.026	1.6	455237	WORD	n/a	wordpools/wordpool_categorized_EN.txt	WOODS	Landscapes	5	4	[0, 0, 0]	n/a	catFR1	4	R1403N
453.626	0.883	456842	WORD_OFF	n/a	n/a	WOODS	Landscapes	5	4	[0, 0, 0]	n/a	catFR1	4	R1403N
454.509	1.6	457726	WORD	n/a	wordpools/wordpool_categorized_EN.txt	OCEAN	Landscapes	6	4	[0, 0, 0]	n/a	catFR1	4	R1403N
456.109	0.984	459313	WORD_OFF	n/a	n/a	OCEAN	Landscapes	6	4	[0, 0, 0]	n/a	catFR1	4	R1403N
457.093	1.616	460305	WORD	n/a	wordpools/wordpool_categorized_EN.txt	DOLLHOUSE	Toys	7	4	[0, 0, 0]	n/a	catFR1	4	R1403N
458.709	0.783	461911	WORD_OFF	n/a	n/a	DOLLHOUSE	Toys	7	4	[0, 0, 0]	n/a	catFR1	4	R1403N
459.492	1.6	462704	WORD	n/a	wordpools/wordpool_categorized_EN.txt	DOLL	Toys	8	4	[0, 0, 0]	n/a	catFR1	4	R1403N
461.092	0.784	464309	WORD_OFF	n/a	n/a	DOLL	Toys	8	4	[0, 0, 0]	n/a	catFR1	4	R1403N
461.876	1.616	465085	WORD	n/a	wordpools/wordpool_categorized_EN.txt	SQUID	OceanAnimals	9	4	[0, 0, 0]	n/a	catFR1	4	R1403N
463.492	0.917	466708	WORD_OFF	n/a	n/a	SQUID	OceanAnimals	9	4	[0, 0, 0]	n/a	catFR1	4	R1403N
464.409	1.616	467628	WORD	n/a	wordpools/wordpool_categorized_EN.txt	OCTOPUS	OceanAnimals	10	4	[0, 0, 0]	n/a	catFR1	4	R1403N
466.025	0.801	469233	WORD_OFF	n/a	n/a	OCTOPUS	OceanAnimals	10	4	[0, 0, 0]	n/a	catFR1	4	R1403N
466.826	1.6	470027	WORD	n/a	wordpools/wordpool_categorized_EN.txt	ISLAND	Landscapes	11	4	[0, 0, 0]	n/a	catFR1	4	R1403N
468.426	0.833	471632	WORD_OFF	n/a	n/a	ISLAND	Landscapes	11	4	[0, 0, 0]	n/a	catFR1	4	R1403N
469.259	1.6	472462	WORD	n/a	wordpools/wordpool_categorized_EN.txt	HILLS	Landscapes	12	4	[0, 0, 0]	n/a	catFR1	4	R1403N
470.859	0.0	474067	WORD_OFF	n/a	n/a	HILLS	Landscapes	12	4	[0, 0, 0]	n/a	catFR1	4	R1403N
470.859	0.002	474069	PROB	0.002	n/a	n/a	n/a	-999	4	[4, 2, 5]	11	catFR1	4	R1403N
470.861	0.0	474067	DISTRACT_START	n/a	n/a	n/a	n/a	-999	4	[0, 0, 0]	n/a	catFR1	4	R1403N
470.861	0.0	474067	ENCODING_END	n/a	n/a	n/a	n/a	-999	4	[0, 0, 0]	n/a	catFR1	4	R1403N
470.861	4.882	474071	START	n/a	n/a	n/a	n/a	-999	4	[-999, -999, -999]	n/a	catFR1	4	R1403N
475.743	9.385	478953	PROB	9.385	n/a	n/a	n/a	-999	4	[7, 8, 7]	23	catFR1	4	R1403N
485.128	6.365	488337	PROB	6.365	n/a	n/a	n/a	-999	4	[1, 8, 5]	14	catFR1	4	R1403N
491.493	0.0	494700	DISTRACT_END	n/a	n/a	n/a	n/a	-999	4	[0, 0, 0]	n/a	catFR1	4	R1403N
491.493	2.25	494702	STOP	n/a	n/a	n/a	n/a	-999	4	[-999, -999, -999]	n/a	catFR1	4	R1403N
493.743	2.972	496945	REC_START	n/a	n/a	n/a	n/a	-999	4	[0, 0, 0]	n/a	catFR1	4	R1403N
496.715	0.494	499924	REC_WORD	0.494	n/a	ISLAND	Landscapes	11	4	[0, 0, 0]	n/a	catFR1	4	R1403N
497.209	2.496	500418	REC_WORD	2.496	n/a	OCEAN	Landscapes	6	4	[0, 0, 0]	n/a	catFR1	4	R1403N
499.705	0.793	502914	REC_WORD	0.793	n/a	OCTOPUS	OceanAnimals	10	4	[0, 0, 0]	n/a	catFR1	4	R1403N
500.498	2.088	503707	REC_WORD	2.088	n/a	SQUID	OceanAnimals	9	4	[0, 0, 0]	n/a	catFR1	4	R1403N
502.586	0.618	505795	REC_WORD	0.618	n/a	DOLPHIN	OceanAnimals	1	4	[0, 0, 0]	n/a	catFR1	4	R1403N
503.204	2.611	506413	REC_WORD	2.611	n/a	WHALE	OceanAnimals	2	4	[0, 0, 0]	n/a	catFR1	4	R1403N
505.815	0.511	509024	REC_WORD	0.511	n/a	DOLL	Toys	8	4	[0, 0, 0]	n/a	catFR1	4	R1403N
506.326	2.391	509535	REC_WORD	2.391	n/a	DOLLHOUSE	Toys	7	4	[0, 0, 0]	n/a	catFR1	4	R1403N
508.717	2.449	511926	REC_WORD	2.449	n/a	HILLS	Landscapes	12	4	[0, 0, 0]	n/a	catFR1	4	R1403N
511.166	4.224	514375	REC_WORD	4.224	n/a	VALLEY	Landscapes	-999	4	[0, 0, 0]	n/a	catFR1	4	R1403N
515.39	8.572	518598	REC_WORD	8.572	n/a	SLINKY	Toys	4	4	[0, 0, 0]	n/a	catFR1	4	R1403N
523.962	2.714	527166	REC_END	n/a	n/a	n/a	n/a	-999	4	[0, 0, 0]	n/a	catFR1	4	R1403N
526.676	10.35	529889	COUNTDOWN_START	n/a	n/a	n/a	n/a	-999	5	[0, 0, 0]	n/a	catFR1	4	R1403N
537.026	0.0	540242	COUNTDOWN_END	n/a	n/a	n/a	n/a	-999	5	[0, 0, 0]	n/a	catFR1	4	R1403N
537.026	2.383	540242	ENCODING_START	n/a	n/a	n/a	n/a	-999	5	[0, 0, 0]	n/a	catFR1	4	R1403N
539.409	1.601	542623	WORD	n/a	wordpools/wordpool_categorized_EN.txt	GRATER	KitchenTools	1	5	[0, 0, 0]	n/a	catFR1	4	R1403N
541.01	0.932	544210	WORD_OFF	n/a	n/a	GRATER	KitchenTools	1	5	[0, 0, 0]	n/a	catFR1	4	R1403N
541.942	1.601	545148	WORD	n/a	wordpools/wordpool_categorized_EN.txt	SPOON	KitchenTools	2	5	[0, 0, 0]	n/a	catFR1	4	R1403N
543.543	0.934	546753	WORD_OFF	n/a	n/a	SPOON	KitchenTools	2	5	[0, 0, 0]	n/a	catFR1	4	R1403N
544.477	1.616	547691	WORD	n/a	wordpools/wordpool_categorized_EN.txt	BROWNIES	Desserts	3	5	[0, 0, 0]	n/a	catFR1	4	R1403N
546.093	0.984	549296	WORD_OFF	n/a	n/a	BROWNIES	Desserts	3	5	[0, 0, 0]	n/a	catFR1	4	R1403N
547.077	1.6	550288	WORD	n/a	wordpools/wordpool_categorized_EN.txt	MOUSSE	Desserts	4	5	[0, 0, 0]	n/a	catFR1	4	R1403N
548.677	0.999	551876	WORD_OFF	n/a	n/a	MOUSSE	Desserts	4	5	[0, 0, 0]	n/a	catFR1	4	R1403N
549.676	1.6	552886	WORD	n/a	wordpools/wordpool_categorized_EN.txt	PINE	Trees	5	5	[0, 0, 0]	n/a	catFR1	4	R1403N
551.276	0.967	554491	WORD_OFF	n/a	n/a	PINE	Trees	5	5	[0, 0, 0]	n/a	catFR1	4	R1403N
552.243	1.616	555447	WORD	n/a	wordpools/wordpool_categorized_EN.txt	CYPRESS	Trees	6	5	[0, 0, 0]	n/a	catFR1	4	R1403N
553.859	0.934	557070	WORD_OFF	n/a	n/a	CYPRESS	Trees	6	5	[0, 0, 0]	n/a	catFR1	4	R1403N
554.793	1.617	558008	WORD	n/a	wordpools/wordpool_categorized_EN.txt	PEELER	KitchenTools	7	5	[0, 0, 0]	n/a	catFR1	4	R1403N
556.41	0.849	559613	WORD_OFF	n/a	n/a	PEELER	KitchenTools	7	5	[0, 0, 0]	n/a	catFR1	4	R1403N
557.259	1.6	560461	WORD	n/a	wordpools/wordpool_categorized_EN.txt	FORK	KitchenTools	8	5	[0, 0, 0]	n/a	catFR1	4	R1403N
558.859	0.95	562066	WORD_OFF	n/a	n/a	FORK	KitchenTools	8	5	[0, 0, 0]	n/a	catFR1	4	R1403N
559.809	1.601	563022	WORD	n/a	wordpools/wordpool_categorized_EN.txt	PUDDING	Desserts	9	5	[0, 0, 0]	n/a	catFR1	4	R1403N
561.41	1.0	564609	WORD_OFF	n/a	n/a	PUDDING	Desserts	9	5	[0, 0, 0]	n/a	catFR1	4	R1403N
562.41	1.6	565619	WORD	n/a	wordpools/wordpool_categorized_EN.txt	CAKE	Desserts	10	5	[0, 0, 0]	n/a	catFR1	4	R1403N
564.01	0.933	567224	WORD_OFF	n/a	n/a	CAKE	Desserts	10	5	[0, 0, 0]	n/a	catFR1	4	R1403N
564.943	1.6	568144	WORD	n/a	wordpools/wordpool_categorized_EN.txt	OAK	Trees	11	5	[0, 0, 0]	n/a	catFR1	4	R1403N
566.543	0.982	569750	WORD_OFF	n/a	n/a	OAK	Trees	11	5	[0, 0, 0]	n/a	catFR1	4	R1403N
567.525	1.601	570724	WORD	n/a	wordpools/wordpool_categorized_EN.txt	BIRCH	Trees	12	5	[0, 0, 0]	n/a	catFR1	4	R1403N
569.126	0.0	572329	WORD_OFF	n/a	n/a	BIRCH	Trees	12	5	[0, 0, 0]	n/a	catFR1	4	R1403N
569.126	0.002	572333	PROB	0.002	n/a	n/a	n/a	-999	5	[1, 1, 3]	5	catFR1	4	R1403N
569.128	0.0	572329	DISTRACT_START	n/a	n/a	n/a	n/a	-999	5	[0, 0, 0]	n/a	catFR1	4	R1403N
569.128	0.0	572329	ENCODING_END	n/a	n/a	n/a	n/a	-999	5	[0, 0, 0]	n/a	catFR1	4	R1403N
569.128	3.483	572335	START	n/a	n/a	n/a	n/a	-999	5	[-999, -999, -999]	n/a	catFR1	4	R1403N
572.611	3.216	575818	PROB	3.216	n/a	n/a	n/a	-999	5	[2, 4, 4]	10	catFR1	4	R1403N
575.827	3.867	579034	PROB	3.867	n/a	n/a	n/a	-999	5	[8, 3, 8]	19	catFR1	4	R1403N
579.694	3.949	582900	PROB	3.949	n/a	n/a	n/a	-999	5	[2, 2, 5]	9	catFR1	4	R1403N
583.643	2.534	586849	PROB	2.534	n/a	n/a	n/a	-999	5	[4, 2, 6]	12	catFR1	4	R1403N
586.177	3.582	589383	PROB	3.582	n/a	n/a	n/a	-999	5	[1, 5, 7]	13	catFR1	4	R1403N
589.759	0.0	592962	DISTRACT_END	n/a	n/a	n/a	n/a	-999	5	[0, 0, 0]	n/a	catFR1	4	R1403N
589.759	2.118	592965	STOP	n/a	n/a	n/a	n/a	-999	5	[-999, -999, -999]	n/a	catFR1	4	R1403N
591.877	0.978	595081	REC_START	n/a	n/a	n/a	n/a	-999	5	[0, 0, 0]	n/a	catFR1	4	R1403N
592.855	0.434	596061	REC_WORD	0.434	n/a	BIRCH	Trees	12	5	[0, 0, 0]	n/a	catFR1	4	R1403N
593.289	0.465	596495	REC_WORD	0.465	n/a	PUDDING	Desserts	9	5	[0, 0, 0]	n/a	catFR1	4	R1403N
593.754	1.812	596960	REC_WORD	1.812	n/a	CAKE	Desserts	10	5	[0, 0, 0]	n/a	catFR1	4	R1403N
595.566	9.768	598772	REC_WORD	9.768	n/a	MOUSSE	Desserts	4	5	[0, 0, 0]	n/a	catFR1	4	R1403N
605.334	4.786	608540	REC_WORD	4.786	n/a	FORK	KitchenTools	8	5	[0, 0, 0]	n/a	catFR1	4	R1403N
610.12	11.951	613325	REC_WORD	11.951	n/a	EVERGREEN	Trees	-999	5	[0, 0, 0]	n/a	catFR1	4	R1403N
622.071	2.005	625283	REC_END	n/a	n/a	n/a	n/a	-999	5	[0, 0, 0]	n/a	catFR1	4	R1403N
624.076	10.351	627285	COUNTDOWN_START	n/a	n/a	n/a	n/a	-999	6	[0, 0, 0]	n/a	catFR1	4	R1403N
634.427	0.0	637638	COUNTDOWN_END	n/a	n/a	n/a	n/a	-999	6	[0, 0, 0]	n/a	catFR1	4	R1403N
634.427	2.299	637638	ENCODING_START	n/a	n/a	n/a	n/a	-999	6	[0, 0, 0]	n/a	catFR1	4	R1403N
636.726	1.6	639929	WORD	n/a	wordpools/wordpool_categorized_EN.txt	JUICE	Beverages	1	6	[0, 0, 0]	n/a	catFR1	4	R1403N
638.326	0.783	641534	WORD_OFF	n/a	n/a	JUICE	Beverages	1	6	[0, 0, 0]	n/a	catFR1	4	R1403N
639.109	1.6	642310	WORD	n/a	wordpools/wordpool_categorized_EN.txt	CIDER	Beverages	2	6	[0, 0, 0]	n/a	catFR1	4	R1403N
640.709	0.934	643915	WORD_OFF	n/a	n/a	CIDER	Beverages	2	6	[0, 0, 0]	n/a	catFR1	4	R1403N
641.643	1.6	644853	WORD	n/a	wordpools/wordpool_categorized_EN.txt	CREEK	Landscapes	3	6	[0, 0, 0]	n/a	catFR1	4	R1403N
643.243	0.851	646440	WORD_OFF	n/a	n/a	CREEK	Landscapes	3	6	[0, 0, 0]	n/a	catFR1	4	R1403N
644.094	1.599	647306	WORD	n/a	wordpools/wordpool_categorized_EN.txt	RIVER	Landscapes	4	6	[0, 0, 0]	n/a	catFR1	4	R1403N
645.693	0.883	648893	WORD_OFF	n/a	n/a	RIVER	Landscapes	4	6	[0, 0, 0]	n/a	catFR1	4	R1403N
646.576	1.6	649777	WORD	n/a	wordpools/wordpool_categorized_EN.txt	CAULIFLOWER	Vegetables	5	6	[0, 0, 0]	n/a	catFR1	4	R1403N
648.176	0.767	651382	WORD_OFF	n/a	n/a	CAULIFLOWER	Vegetables	5	6	[0, 0, 0]	n/a	catFR1	4	R1403N
648.943	1.616	652140	WORD	n/a	wordpools/wordpool_categorized_EN.txt	CUCUMBER	Vegetables	6	6	[0, 0, 0]	n/a	catFR1	4	R1403N
650.559	0.8	653763	WORD_OFF	n/a	n/a	CUCUMBER	Vegetables	6	6	[0, 0, 0]	n/a	catFR1	4	R1403N
651.359	1.6	654556	WORD	n/a	wordpools/wordpool_categorized_EN.txt	WATER	Beverages	7	6	[0, 0, 0]	n/a	catFR1	4	R1403N
652.959	1.0	656162	WORD_OFF	n/a	n/a	WATER	Beverages	7	6	[0, 0, 0]	n/a	catFR1	4	R1403N
653.959	1.6	657172	WORD	n/a	wordpools/wordpool_categorized_EN.txt	WINE	Beverages	8	6	[0, 0, 0]	n/a	catFR1	4	R1403N
655.559	0.967	658759	WORD_OFF	n/a	n/a	WINE	Beverages	8	6	[0, 0, 0]	n/a	catFR1	4	R1403N
656.526	1.616	659733	WORD	n/a	wordpools/wordpool_categorized_EN.txt	STREAM	Landscapes	9	6	[0, 0, 0]	n/a	catFR1	4	R1403N
658.142	1.0	661338	WORD_OFF	n/a	n/a	STREAM	Landscapes	9	6	[0, 0, 0]	n/a	catFR1	4	R1403N
659.142	1.6	662348	WORD	n/a	wordpools/wordpool_categorized_EN.txt	MOUNTAIN	Landscapes	10	6	[0, 0, 0]	n/a	catFR1	4	R1403N
660.742	0.95	663953	WORD_OFF	n/a	n/a	MOUNTAIN	Landscapes	10	6	[0, 0, 0]	n/a	catFR1	4	R1403N
661.692	1.617	664891	WORD	n/a	wordpools/wordpool_categorized_EN.txt	CABBAGE	Vegetables	11	6	[0, 0, 0]	n/a	catFR1	4	R1403N
663.309	0.834	666514	WORD_OFF	n/a	n/a	CABBAGE	Vegetables	11	6	[0, 0, 0]	n/a	catFR1	4	R1403N
664.143	1.599	667344	WORD	n/a	wordpools/wordpool_categorized_EN.txt	PEAS	Vegetables	12	6	[0, 0, 0]	n/a	catFR1	4	R1403N
665.742	0.0	668949	WORD_OFF	n/a	n/a	PEAS	Vegetables	12	6	[0, 0, 0]	n/a	catFR1	4	R1403N
665.742	0.002	668946	PROB	0.002	n/a	n/a	n/a	-999	6	[1, 7, 5]	13	catFR1	4	R1403N
665.744	0.0	668949	DISTRACT_START	n/a	n/a	n/a	n/a	-999	6	[0, 0, 0]	n/a	catFR1	4	R1403N
665.744	0.0	668949	ENCODING_END	n/a	n/a	n/a	n/a	-999	6	[0, 0, 0]	n/a	catFR1	4	R1403N
665.744	8.215	668948	START	n/a	n/a	n/a	n/a	-999	6	[-999, -999, -999]	n/a	catFR1	4	R1403N
673.959	3.935	677162	PROB	3.935	n/a	n/a	n/a	-999	6	[6, 7, 4]	17	catFR1	4	R1403N
677.894	4.898	681097	PROB	4.898	n/a	n/a	n/a	-999	6	[1, 3, 3]	7	catFR1	4	R1403N
682.792	2.252	685995	PROB	2.252	n/a	n/a	n/a	-999	6	[1, 4, 6]	11	catFR1	4	R1403N
685.044	14.399	688247	PROB	14.399	n/a	n/a	n/a	-999	6	[8, 8, 8]	23	catFR1	4	R1403N
699.443	0.0	702641	DISTRACT_END	n/a	n/a	n/a	n/a	-999	6	[0, 0, 0]	n/a	catFR1	4	R1403N
699.443	2.384	702646	STOP	n/a	n/a	n/a	n/a	-999	6	[-999, -999, -999]	n/a	catFR1	4	R1403N
701.827	3.393	705030	REC_START	n/a	n/a	n/a	n/a	-999	6	[0, 0, 0]	n/a	catFR1	4	R1403N
705.22	0.901	708423	REC_WORD	0.901	n/a	CAULIFLOWER	Vegetables	5	6	[0, 0, 0]	n/a	catFR1	4	R1403N
706.121	4.296	709324	REC_WORD	4.296	n/a	PEAS	Vegetables	12	6	[0, 0, 0]	n/a	catFR1	4	R1403N
710.417	1.486	713619	REC_WORD	1.486	n/a	CUCUMBER	Vegetables	6	6	[0, 0, 0]	n/a	catFR1	4	R1403N
711.903	7.589	715105	REC_WORD	7.589	n/a	CARROT	n/a	-999	6	[0, 0, 0]	n/a	catFR1	4	R1403N
719.492	0.764	722694	REC_WORD	0.764	n/a	CIDER	Beverages	2	6	[0, 0, 0]	n/a	catFR1	4	R1403N
720.256	4.531	723458	REC_WORD	4.531	n/a	JUICE	Beverages	1	6	[0, 0, 0]	n/a	catFR1	4	R1403N
724.787	2.556	727989	REC_WORD	2.556	n/a	CREEK	Landscapes	3	6	[0, 0, 0]	n/a	catFR1	4	R1403N
727.343	1.85	730545	REC_WORD	1.85	n/a	RIVER	Landscapes	4	6	[0, 0, 0]	n/a	catFR1	4	R1403N
729.193	2.831	732395	REC_WORD	2.831	n/a	STREAM	Landscapes	9	6	[0, 0, 0]	n/a	catFR1	4	R1403N
732.024	3.435	735233	REC_END	n/a	n/a	n/a	n/a	-999	6	[0, 0, 0]	n/a	catFR1	4	R1403N
735.459	10.35	738660	COUNTDOWN_START	n/a	n/a	n/a	n/a	-999	7	[0, 0, 0]	n/a	catFR1	4	R1403N
745.809	0.001	749013	COUNTDOWN_END	n/a	n/a	n/a	n/a	-999	7	[0, 0, 0]	n/a	catFR1	4	R1403N
745.81	2.132	749013	ENCODING_START	n/a	n/a	n/a	n/a	-999	7	[0, 0, 0]	n/a	catFR1	4	R1403N
747.942	1.601	751141	WORD	n/a	wordpools/wordpool_categorized_EN.txt	LOBSTER	OceanAnimals	1	7	[0, 0, 0]	n/a	catFR1	4	R1403N
749.543	0.983	752746	WORD_OFF	n/a	n/a	LOBSTER	OceanAnimals	1	7	[0, 0, 0]	n/a	catFR1	4	R1403N
750.526	1.617	753720	WORD	n/a	wordpools/wordpool_categorized_EN.txt	OYSTER	OceanAnimals	2	7	[0, 0, 0]	n/a	catFR1	4	R1403N
752.143	0.766	755344	WORD_OFF	n/a	n/a	OYSTER	OceanAnimals	2	7	[0, 0, 0]	n/a	catFR1	4	R1403N
752.909	1.617	756101	WORD	n/a	wordpools/wordpool_categorized_EN.txt	VAN	Vehicles	3	7	[0, 0, 0]	n/a	catFR1	4	R1403N
754.526	0.766	757724	WORD_OFF	n/a	n/a	VAN	Vehicles	3	7	[0, 0, 0]	n/a	catFR1	4	R1403N
755.292	1.601	758500	WORD	n/a	wordpools/wordpool_categorized_EN.txt	TRAIN	Vehicles	4	7	[0, 0, 0]	n/a	catFR1	4	R1403N
756.893	0.783	760087	WORD_OFF	n/a	n/a	TRAIN	Vehicles	4	7	[0, 0, 0]	n/a	catFR1	4	R1403N
757.676	1.617	760881	WORD	n/a	wordpools/wordpool_categorized_EN.txt	SOCKS	Clothing	5	7	[0, 0, 0]	n/a	catFR1	4	R1403N
759.293	1.0	762486	WORD_OFF	n/a	n/a	SOCKS	Clothing	5	7	[0, 0, 0]	n/a	catFR1	4	R1403N
760.293	1.6	763496	WORD	n/a	wordpools/wordpool_categorized_EN.txt	SHOES	Clothing	6	7	[0, 0, 0]	n/a	catFR1	4	R1403N
761.893	0.816	765101	WORD_OFF	n/a	n/a	SHOES	Clothing	6	7	[0, 0, 0]	n/a	catFR1	4	R1403N
762.709	1.617	765913	WORD	n/a	wordpools/wordpool_categorized_EN.txt	CAR	Vehicles	7	7	[0, 0, 0]	n/a	catFR1	4	R1403N
764.326	0.833	767536	WORD_OFF	n/a	n/a	CAR	Vehicles	7	7	[0, 0, 0]	n/a	catFR1	4	R1403N
765.159	1.6	768366	WORD	n/a	wordpools/wordpool_categorized_EN.txt	MOTORCYCLE	Vehicles	8	7	[0, 0, 0]	n/a	catFR1	4	R1403N
766.759	0.8	769953	WORD_OFF	n/a	n/a	MOTORCYCLE	Vehicles	8	7	[0, 0, 0]	n/a	catFR1	4	R1403N
767.559	1.617	770765	WORD	n/a	wordpools/wordpool_categorized_EN.txt	JELLYFISH	OceanAnimals	9	7	[0, 0, 0]	n/a	catFR1	4	R1403N
769.176	0.85	772370	WORD_OFF	n/a	n/a	JELLYFISH	OceanAnimals	9	7	[0, 0, 0]	n/a	catFR1	4	R1403N
770.026	1.617	773236	WORD	n/a	wordpools/wordpool_categorized_EN.txt	CRAB	OceanAnimals	10	7	[0, 0, 0]	n/a	catFR1	4	R1403N
771.643	0.949	774841	WORD_OFF	n/a	n/a	CRAB	OceanAnimals	10	7	[0, 0, 0]	n/a	catFR1	4	R1403N
772.592	1.617	775797	WORD	n/a	wordpools/wordpool_categorized_EN.txt	JEANS	Clothing	11	7	[0, 0, 0]	n/a	catFR1	4	R1403N
774.209	0.833	777402	WORD_OFF	n/a	n/a	JEANS	Clothing	11	7	[0, 0, 0]	n/a	catFR1	4	R1403N
775.042	1.617	778250	WORD	n/a	wordpools/wordpool_categorized_EN.txt	COAT	Clothing	12	7	[0, 0, 0]	n/a	catFR1	4	R1403N
776.659	0.001	779855	WORD_OFF	n/a	n/a	COAT	Clothing	12	7	[0, 0, 0]	n/a	catFR1	4	R1403N
776.66	0.001	779860	PROB	0.001	n/a	n/a	n/a	-999	7	[7, 6, 1]	14	catFR1	4	R1403N
776.661	0.0	779855	DISTRACT_START	n/a	n/a	n/a	n/a	-999	7	[0, 0, 0]	n/a	catFR1	4	R1403N
776.661	0.0	779855	ENCODING_END	n/a	n/a	n/a	n/a	-999	7	[0, 0, 0]	n/a	catFR1	4	R1403N
776.661	4.565	779861	START	n/a	n/a	n/a	n/a	-999	7	[-999, -999, -999]	n/a	catFR1	4	R1403N
781.226	4.018	784426	PROB	4.018	n/a	n/a	n/a	-999	7	[3, 3, 5]	11	catFR1	4	R1403N
785.244	4.417	788444	PROB	4.417	n/a	n/a	n/a	-999	7	[2, 3, 4]	9	catFR1	4	R1403N
789.661	3.366	792861	PROB	3.366	n/a	n/a	n/a	-999	7	[5, 6, 1]	12	catFR1	4	R1403N
793.027	2.983	796227	PROB	2.983	n/a	n/a	n/a	-999	7	[5, 4, 1]	10	catFR1	4	R1403N
796.01	3.583	799210	PROB	3.583	n/a	n/a	n/a	-999	7	[1, 1, 4]	6	catFR1	4	R1403N
799.593	0.0	802797	DISTRACT_END	n/a	n/a	n/a	n/a	-999	7	[0, 0, 0]	n/a	catFR1	4	R1403N
799.593	2.184	802793	STOP	n/a	n/a	n/a	n/a	-999	7	[-999, -999, -999]	n/a	catFR1	4	R1403N
801.777	1.16	804969	REC_START	n/a	n/a	n/a	n/a	-999	7	[0, 0, 0]	n/a	catFR1	4	R1403N
802.937	0.701	806137	REC_WORD	0.701	n/a	LOBSTER	OceanAnimals	1	7	[0, 0, 0]	n/a	catFR1	4	R1403N
803.638	0.371	806838	REC_WORD	0.371	n/a	OYSTER	OceanAnimals	2	7	[0, 0, 0]	n/a	catFR1	4	R1403N
804.009	4.385	807209	REC_WORD	4.385	n/a	CRAB	OceanAnimals	10	7	[0, 0, 0]	n/a	catFR1	4	R1403N
808.394	0.391	811593	REC_WORD	0.391	n/a	LOBSTER	OceanAnimals	1	7	[0, 0, 0]	n/a	catFR1	4	R1403N
808.785	0.364	811984	REC_WORD	0.364	n/a	OYSTER	OceanAnimals	2	7	[0, 0, 0]	n/a	catFR1	4	R1403N
809.149	0.607	812348	REC_WORD	0.607	n/a	CRAB	OceanAnimals	10	7	[0, 0, 0]	n/a	catFR1	4	R1403N
809.756	0.472	812955	REC_WORD	0.472	n/a	VAN	Vehicles	3	7	[0, 0, 0]	n/a	catFR1	4	R1403N
810.228	0.996	813427	REC_WORD	0.996	n/a	MOTORCYCLE	Vehicles	8	7	[0, 0, 0]	n/a	catFR1	4	R1403N
811.224	0.931	814423	REC_WORD	0.931	n/a	CAR	Vehicles	7	7	[0, 0, 0]	n/a	catFR1	4	R1403N
812.155	1.44	815354	REC_WORD	1.44	n/a	TRAIN	Vehicles	4	7	[0, 0, 0]	n/a	catFR1	4	R1403N
813.595	0.513	816794	REC_WORD	0.513	n/a	SHOES	Clothing	6	7	[0, 0, 0]	n/a	catFR1	4	R1403N
814.108	2.659	817307	REC_WORD	2.659	n/a	SOCKS	Clothing	5	7	[0, 0, 0]	n/a	catFR1	4	R1403N
816.767	4.886	819966	REC_WORD	4.886	n/a	COAT	Clothing	12	7	[0, 0, 0]	n/a	catFR1	4	R1403N
821.653	8.421	824852	REC_WORD	8.421	n/a	PEARLS	n/a	-999	7	[0, 0, 0]	n/a	catFR1	4	R1403N
830.074	1.937	833273	REC_WORD	1.937	n/a	SQUID	OceanAnimals	-999	7	[0, 0, 0]	n/a	catFR1	4	R1403N
832.011	2.482	835208	REC_END	n/a	n/a	n/a	n/a	-999	7	[0, 0, 0]	n/a	catFR1	4	R1403N
834.493	10.35	837697	COUNTDOWN_START	n/a	n/a	n/a	n/a	-999	8	[0, 0, 0]	n/a	catFR1	4	R1403N
844.843	0.0	848050	COUNTDOWN_END	n/a	n/a	n/a	n/a	-999	8	[0, 0, 0]	n/a	catFR1	4	R1403N
844.843	2.135	848050	ENCODING_START	n/a	n/a	n/a	n/a	-999	8	[0, 0, 0]	n/a	catFR1	4	R1403N
846.978	1.599	850179	WORD	n/a	wordpools/wordpool_categorized_EN.txt	EAR	BodyParts	1	8	[0, 0, 0]	n/a	catFR1	4	R1403N
848.577	0.9	851784	WORD_OFF	n/a	n/a	EAR	BodyParts	1	8	[0, 0, 0]	n/a	catFR1	4	R1403N
849.477	1.6	852668	WORD	n/a	wordpools/wordpool_categorized_EN.txt	HEAD	BodyParts	2	8	[0, 0, 0]	n/a	catFR1	4	R1403N
851.077	0.85	854273	WORD_OFF	n/a	n/a	HEAD	BodyParts	2	8	[0, 0, 0]	n/a	catFR1	4	R1403N
851.927	1.616	855121	WORD	n/a	wordpools/wordpool_categorized_EN.txt	FINCH	Birds	3	8	[0, 0, 0]	n/a	catFR1	4	R1403N
853.543	0.884	856744	WORD_OFF	n/a	n/a	FINCH	Birds	3	8	[0, 0, 0]	n/a	catFR1	4	R1403N
854.427	1.616	857628	WORD	n/a	wordpools/wordpool_categorized_EN.txt	SPARROW	Birds	4	8	[0, 0, 0]	n/a	catFR1	4	R1403N
856.043	0.834	859233	WORD_OFF	n/a	n/a	SPARROW	Birds	4	8	[0, 0, 0]	n/a	catFR1	4	R1403N
856.877	1.616	860081	WORD	n/a	wordpools/wordpool_categorized_EN.txt	SNOW	Weather	5	8	[0, 0, 0]	n/a	catFR1	4	R1403N
858.493	0.866	861686	WORD_OFF	n/a	n/a	SNOW	Weather	5	8	[0, 0, 0]	n/a	catFR1	4	R1403N
859.359	1.601	862552	WORD	n/a	wordpools/wordpool_categorized_EN.txt	CLOUD	Weather	6	8	[0, 0, 0]	n/a	catFR1	4	R1403N
860.96	0.866	864157	WORD_OFF	n/a	n/a	CLOUD	Weather	6	8	[0, 0, 0]	n/a	catFR1	4	R1403N
861.826	1.601	865022	WORD	n/a	wordpools/wordpool_categorized_EN.txt	HAND	BodyParts	7	8	[0, 0, 0]	n/a	catFR1	4	R1403N
863.427	0.799	866628	WORD_OFF	n/a	n/a	HAND	BodyParts	7	8	[0, 0, 0]	n/a	catFR1	4	R1403N
864.226	1.601	867421	WORD	n/a	wordpools/wordpool_categorized_EN.txt	EYE	BodyParts	8	8	[0, 0, 0]	n/a	catFR1	4	R1403N
865.827	0.966	869027	WORD_OFF	n/a	n/a	EYE	BodyParts	8	8	[0, 0, 0]	n/a	catFR1	4	R1403N
866.793	1.6	869982	WORD	n/a	wordpools/wordpool_categorized_EN.txt	GOOSE	Birds	9	8	[0, 0, 0]	n/a	catFR1	4	R1403N
868.393	0.85	871588	WORD_OFF	n/a	n/a	GOOSE	Birds	9	8	[0, 0, 0]	n/a	catFR1	4	R1403N
869.243	1.6	872435	WORD	n/a	wordpools/wordpool_categorized_EN.txt	ROBIN	Birds	10	8	[0, 0, 0]	n/a	catFR1	4	R1403N
870.843	1.0	874041	WORD_OFF	n/a	n/a	ROBIN	Birds	10	8	[0, 0, 0]	n/a	catFR1	4	R1403N
871.843	1.6	875033	WORD	n/a	wordpools/wordpool_categorized_EN.txt	RAIN	Weather	11	8	[0, 0, 0]	n/a	catFR1	4	R1403N
873.443	0.95	876638	WORD_OFF	n/a	n/a	RAIN	Weather	11	8	[0, 0, 0]	n/a	catFR1	4	R1403N
874.393	1.616	877594	WORD	n/a	wordpools/wordpool_categorized_EN.txt	LIGHTNING	Weather	12	8	[0, 0, 0]	n/a	catFR1	4	R1403N
876.009	0.0	879199	WORD_OFF	n/a	n/a	LIGHTNING	Weather	12	8	[0, 0, 0]	n/a	catFR1	4	R1403N
876.009	0.001	879206	PROB	0.001	n/a	n/a	n/a	-999	8	[2, 7, 3]	12	catFR1	4	R1403N
876.01	0.0	879199	ENCODING_END	n/a	n/a	n/a	n/a	-999	8	[0, 0, 0]	n/a	catFR1	4	R1403N
876.01	0.0	879217	DISTRACT_START	n/a	n/a	n/a	n/a	-999	8	[0, 0, 0]	n/a	catFR1	4	R1403N
876.01	3.101	879207	START	n/a	n/a	n/a	n/a	-999	8	[-999, -999, -999]	n/a	catFR1	4	R1403N
879.111	2.965	882308	PROB	2.965	n/a	n/a	n/a	-999	8	[7, 1, 1]	9	catFR1	4	R1403N
882.076	2.383	885273	PROB	2.383	n/a	n/a	n/a	-999	8	[6, 2, 4]	12	catFR1	4	R1403N
884.459	5.4	887656	PROB	5.4	n/a	n/a	n/a	-999	8	[6, 5, 3]	14	catFR1	4	R1403N
889.859	3.368	893056	PROB	3.368	n/a	n/a	n/a	-999	8	[5, 3, 1]	9	catFR1	4	R1403N
893.227	12.282	896424	PROB	12.282	n/a	n/a	n/a	-999	8	[7, 7, 2]	16	catFR1	4	R1403N
905.509	0.0	908706	DISTRACT_END	n/a	n/a	n/a	n/a	-999	8	[0, 0, 0]	n/a	catFR1	4	R1403N
905.509	2.217	908705	STOP	n/a	n/a	n/a	n/a	-999	8	[-999, -999, -999]	n/a	catFR1	4	R1403N
907.726	2.179	910915	REC_START	n/a	n/a	n/a	n/a	-999	8	[0, 0, 0]	n/a	catFR1	4	R1403N
909.905	0.573	913101	REC_WORD	0.573	n/a	FINCH	Birds	3	8	[0, 0, 0]	n/a	catFR1	4	R1403N
910.478	2.183	913674	REC_WORD	2.183	n/a	SPARROW	Birds	4	8	[0, 0, 0]	n/a	catFR1	4	R1403N
912.661	1.231	915857	REC_WORD	1.231	n/a	ROBIN	Birds	10	8	[0, 0, 0]	n/a	catFR1	4	R1403N
913.892	2.066	917088	REC_WORD	2.066	n/a	RAIN	Weather	11	8	[0, 0, 0]	n/a	catFR1	4	R1403N
915.958	2.951	919154	REC_WORD	2.951	n/a	LIGHTNING	Weather	12	8	[0, 0, 0]	n/a	catFR1	4	R1403N
918.909	6.862	922105	REC_WORD	6.862	n/a	FOREST	Landscapes	-999	8	[0, 0, 0]	n/a	catFR1	4	R1403N
925.771	4.558	928967	REC_WORD	4.558	n/a	THUNDERSTORM	n/a	-999	8	[0, 0, 0]	n/a	catFR1	4	R1403N
930.329	7.61	933525	REC_WORD	7.61	n/a	EVERGREEN	Trees	-999	8	[0, 0, 0]	n/a	catFR1	4	R1403N
937.939	1.721	941136	REC_END	n/a	n/a	n/a	n/a	-999	8	[0, 0, 0]	n/a	catFR1	4	R1403N
939.66	10.35	942849	COUNTDOWN_START	n/a	n/a	n/a	n/a	-999	9	[0, 0, 0]	n/a	catFR1	4	R1403N
950.01	0.0	953202	COUNTDOWN_END	n/a	n/a	n/a	n/a	-999	9	[0, 0, 0]	n/a	catFR1	4	R1403N
950.01	1.966	953202	ENCODING_START	n/a	n/a	n/a	n/a	-999	9	[0, 0, 0]	n/a	catFR1	4	R1403N
951.976	1.616	955168	WORD	n/a	wordpools/wordpool_categorized_EN.txt	WIND	Weather	1	9	[0, 0, 0]	n/a	catFR1	4	R1403N
953.592	0.851	956791	WORD_OFF	n/a	n/a	WIND	Weather	1	9	[0, 0, 0]	n/a	catFR1	4	R1403N
954.443	1.6	957639	WORD	n/a	wordpools/wordpool_categorized_EN.txt	THUNDERSTORM	Weather	2	9	[0, 0, 0]	n/a	catFR1	4	R1403N
956.043	0.966	959244	WORD_OFF	n/a	n/a	THUNDERSTORM	Weather	2	9	[0, 0, 0]	n/a	catFR1	4	R1403N
957.009	1.6	960200	WORD	n/a	wordpools/wordpool_categorized_EN.txt	CHAIR	Furniture	3	9	[0, 0, 0]	n/a	catFR1	4	R1403N
958.609	0.9	961806	WORD_OFF	n/a	n/a	CHAIR	Furniture	3	9	[0, 0, 0]	n/a	catFR1	4	R1403N
959.509	1.6	962707	WORD	n/a	wordpools/wordpool_categorized_EN.txt	TABLE	Furniture	4	9	[0, 0, 0]	n/a	catFR1	4	R1403N
961.109	0.917	964313	WORD_OFF	n/a	n/a	TABLE	Furniture	4	9	[0, 0, 0]	n/a	catFR1	4	R1403N
962.026	1.6	965214	WORD	n/a	wordpools/wordpool_categorized_EN.txt	RULER	OfficeSupplies	5	9	[0, 0, 0]	n/a	catFR1	4	R1403N
963.626	1.0	966820	WORD_OFF	n/a	n/a	RULER	OfficeSupplies	5	9	[0, 0, 0]	n/a	catFR1	4	R1403N
964.626	1.617	967830	WORD	n/a	wordpools/wordpool_categorized_EN.txt	NOTEBOOK	OfficeSupplies	6	9	[0, 0, 0]	n/a	catFR1	4	R1403N
966.243	0.766	969435	WORD_OFF	n/a	n/a	NOTEBOOK	OfficeSupplies	6	9	[0, 0, 0]	n/a	catFR1	4	R1403N
967.009	1.616	970210	WORD	n/a	wordpools/wordpool_categorized_EN.txt	HUMIDITY	Weather	7	9	[0, 0, 0]	n/a	catFR1	4	R1403N
968.625	0.967	971816	WORD_OFF	n/a	n/a	HUMIDITY	Weather	7	9	[0, 0, 0]	n/a	catFR1	4	R1403N
969.592	1.601	972790	WORD	n/a	wordpools/wordpool_categorized_EN.txt	TORNADO	Weather	8	9	[0, 0, 0]	n/a	catFR1	4	R1403N
971.193	0.933	974395	WORD_OFF	n/a	n/a	TORNADO	Weather	8	9	[0, 0, 0]	n/a	catFR1	4	R1403N
972.126	1.6	975315	WORD	n/a	wordpools/wordpool_categorized_EN.txt	PEN	OfficeSupplies	9	9	[0, 0, 0]	n/a	catFR1	4	R1403N
973.726	0.883	976920	WORD_OFF	n/a	n/a	PEN	OfficeSupplies	9	9	[0, 0, 0]	n/a	catFR1	4	R1403N
974.609	1.6	977804	WORD	n/a	wordpools/wordpool_categorized_EN.txt	TAPE	OfficeSupplies	10	9	[0, 0, 0]	n/a	catFR1	4	R1403N
976.209	0.9	979409	WORD_OFF	n/a	n/a	TAPE	OfficeSupplies	10	9	[0, 0, 0]	n/a	catFR1	4	R1403N
977.109	1.6	980311	WORD	n/a	wordpools/wordpool_categorized_EN.txt	SOFA	Furniture	11	9	[0, 0, 0]	n/a	catFR1	4	R1403N
978.709	0.9	981898	WORD_OFF	n/a	n/a	SOFA	Furniture	11	9	[0, 0, 0]	n/a	catFR1	4	R1403N
979.609	1.616	982800	WORD	n/a	wordpools/wordpool_categorized_EN.txt	CABINET	Furniture	12	9	[0, 0, 0]	n/a	catFR1	4	R1403N
981.225	0.001	984423	WORD_OFF	n/a	n/a	CABINET	Furniture	12	9	[0, 0, 0]	n/a	catFR1	4	R1403N
981.226	0.001	984420	PROB	0.001	n/a	n/a	n/a	-999	9	[2, 3, 7]	12	catFR1	4	R1403N
981.227	0.0	984423	DISTRACT_START	n/a	n/a	n/a	n/a	-999	9	[0, 0, 0]	n/a	catFR1	4	R1403N
981.227	0.0	984423	ENCODING_END	n/a	n/a	n/a	n/a	-999	9	[0, 0, 0]	n/a	catFR1	4	R1403N
981.227	2.883	984421	START	n/a	n/a	n/a	n/a	-999	9	[-999, -999, -999]	n/a	catFR1	4	R1403N
984.11	3.551	987304	PROB	3.551	n/a	n/a	n/a	-999	9	[2, 4, 5]	11	catFR1	4	R1403N
987.661	4.4	990855	PROB	4.4	n/a	n/a	n/a	-999	9	[7, 4, 8]	9	catFR1	4	R1403N
992.061	5.899	995255	PROB	5.899	n/a	n/a	n/a	-999	9	[6, 6, 4]	16	catFR1	4	R1403N
997.96	2.884	1001154	PROB	2.884	n/a	n/a	n/a	-999	9	[4, 4, 4]	12	catFR1	4	R1403N
1000.844	5.198	1004037	PROB	5.198	n/a	n/a	n/a	-999	9	[7, 7, 6]	20	catFR1	4	R1403N
1006.042	0.0	1009241	DISTRACT_END	n/a	n/a	n/a	n/a	-999	9	[0, 0, 0]	n/a	catFR1	4	R1403N
1006.042	2.385	1009235	STOP	n/a	n/a	n/a	n/a	-999	9	[-999, -999, -999]	n/a	catFR1	4	R1403N
1008.427	1.543	1011612	REC_START	n/a	n/a	n/a	n/a	-999	9	[0, 0, 0]	n/a	catFR1	4	R1403N
1009.97	0.7	1013163	REC_WORD	0.7	n/a	NOTEBOOK	OfficeSupplies	6	9	[0, 0, 0]	n/a	catFR1	4	R1403N
1010.67	0.507	1013863	REC_WORD	0.507	n/a	TAPE	OfficeSupplies	10	9	[0, 0, 0]	n/a	catFR1	4	R1403N
1011.177	0.608	1014370	REC_WORD	0.608	n/a	PIN	n/a	-999	9	[0, 0, 0]	n/a	catFR1	4	R1403N
1011.785	1.63	1014978	REC_WORD	1.63	n/a	THUNDERSTORM	Weather	2	9	[0, 0, 0]	n/a	catFR1	4	R1403N
1013.415	6.627	1016608	REC_WORD	6.627	n/a	HUMIDITY	Weather	7	9	[0, 0, 0]	n/a	catFR1	4	R1403N
1020.042	18.586	1023235	REC_WORD	18.586	n/a	TORNADO	Weather	8	9	[0, 0, 0]	n/a	catFR1	4	R1403N
1038.628	2.349	1041815	REC_END	n/a	n/a	n/a	n/a	-999	9	[0, 0, 0]	n/a	catFR1	4	R1403N
1040.977	10.35	1044177	COUNTDOWN_START	n/a	n/a	n/a	n/a	-999	10	[0, 0, 0]	n/a	catFR1	4	R1403N
1051.327	0.0	1054512	COUNTDOWN_END	n/a	n/a	n/a	n/a	-999	10	[0, 0, 0]	n/a	catFR1	4	R1403N
1051.327	2.15	1054530	ENCODING_START	n/a	n/a	n/a	n/a	-999	10	[0, 0, 0]	n/a	catFR1	4	R1403N
1053.477	1.616	1056677	WORD	n/a	wordpools/wordpool_categorized_EN.txt	CORKSCREW	KitchenTools	1	10	[0, 0, 0]	n/a	catFR1	4	R1403N
1055.093	0.916	1058282	WORD_OFF	n/a	n/a	CORKSCREW	KitchenTools	1	10	[0, 0, 0]	n/a	catFR1	4	R1403N
1056.009	1.601	1059202	WORD	n/a	wordpools/wordpool_categorized_EN.txt	LADLE	KitchenTools	2	10	[0, 0, 0]	n/a	catFR1	4	R1403N
1057.61	0.899	1060807	WORD_OFF	n/a	n/a	LADLE	KitchenTools	2	10	[0, 0, 0]	n/a	catFR1	4	R1403N
1058.509	1.617	1061709	WORD	n/a	wordpools/wordpool_categorized_EN.txt	ELBOW	BodyParts	3	10	[0, 0, 0]	n/a	catFR1	4	R1403N
1060.126	0.867	1063314	WORD_OFF	n/a	n/a	ELBOW	BodyParts	3	10	[0, 0, 0]	n/a	catFR1	4	R1403N
1060.993	1.6	1064180	WORD	n/a	wordpools/wordpool_categorized_EN.txt	LEG	BodyParts	4	10	[0, 0, 0]	n/a	catFR1	4	R1403N
1062.593	0.933	1065785	WORD_OFF	n/a	n/a	LEG	BodyParts	4	10	[0, 0, 0]	n/a	catFR1	4	R1403N
1063.526	1.601	1066723	WORD	n/a	wordpools/wordpool_categorized_EN.txt	SPIDER	Insects	5	10	[0, 0, 0]	n/a	catFR1	4	R1403N
1065.127	0.816	1068310	WORD_OFF	n/a	n/a	SPIDER	Insects	5	10	[0, 0, 0]	n/a	catFR1	4	R1403N
1065.943	1.617	1069140	WORD	n/a	wordpools/wordpool_categorized_EN.txt	MOSQUITO	Insects	6	10	[0, 0, 0]	n/a	catFR1	4	R1403N
1067.56	0.983	1070745	WORD_OFF	n/a	n/a	MOSQUITO	Insects	6	10	[0, 0, 0]	n/a	catFR1	4	R1403N
1068.543	1.616	1071737	WORD	n/a	wordpools/wordpool_categorized_EN.txt	STRAINER	KitchenTools	7	10	[0, 0, 0]	n/a	catFR1	4	R1403N
1070.159	0.9	1073342	WORD_OFF	n/a	n/a	STRAINER	KitchenTools	7	10	[0, 0, 0]	n/a	catFR1	4	R1403N
1071.059	1.6	1074244	WORD	n/a	wordpools/wordpool_categorized_EN.txt	TONGS	KitchenTools	8	10	[0, 0, 0]	n/a	catFR1	4	R1403N
1072.659	0.984	1075849	WORD_OFF	n/a	n/a	TONGS	KitchenTools	8	10	[0, 0, 0]	n/a	catFR1	4	R1403N
1073.643	1.6	1076841	WORD	n/a	wordpools/wordpool_categorized_EN.txt	ANT	Insects	9	10	[0, 0, 0]	n/a	catFR1	4	R1403N
1075.243	0.783	1078429	WORD_OFF	n/a	n/a	ANT	Insects	9	10	[0, 0, 0]	n/a	catFR1	4	R1403N
1076.026	1.6	1079222	WORD	n/a	wordpools/wordpool_categorized_EN.txt	ROACH	Insects	10	10	[0, 0, 0]	n/a	catFR1	4	R1403N
1077.626	0.783	1080809	WORD_OFF	n/a	n/a	ROACH	Insects	10	10	[0, 0, 0]	n/a	catFR1	4	R1403N
1078.409	1.601	1081603	WORD	n/a	wordpools/wordpool_categorized_EN.txt	NOSE	BodyParts	11	10	[0, 0, 0]	n/a	catFR1	4	R1403N
1080.01	0.817	1083208	WORD_OFF	n/a	n/a	NOSE	BodyParts	11	10	[0, 0, 0]	n/a	catFR1	4	R1403N
1080.827	1.6	1084020	WORD	n/a	wordpools/wordpool_categorized_EN.txt	KNEE	BodyParts	12	10	[0, 0, 0]	n/a	catFR1	4	R1403N
1082.427	0.0	1085625	WORD_OFF	n/a	n/a	KNEE	BodyParts	12	10	[0, 0, 0]	n/a	catFR1	4	R1403N
1082.427	0.001	1085618	PROB	0.001	n/a	n/a	n/a	-999	10	[2, 2, 1]	5	catFR1	4	R1403N
1082.428	0.0	1085625	DISTRACT_START	n/a	n/a	n/a	n/a	-999	10	[0, 0, 0]	n/a	catFR1	4	R1403N
1082.428	0.0	1085625	ENCODING_END	n/a	n/a	n/a	n/a	-999	10	[0, 0, 0]	n/a	catFR1	4	R1403N
1082.428	4.398	1085619	START	n/a	n/a	n/a	n/a	-999	10	[-999, -999, -999]	n/a	catFR1	4	R1403N
1086.826	5.784	1090017	PROB	5.784	n/a	n/a	n/a	-999	10	[3, 8, 8]	19	catFR1	4	R1403N
1092.61	2.599	1095801	PROB	2.599	n/a	n/a	n/a	-999	10	[6, 2, 4]	12	catFR1	4	R1403N
1095.209	2.818	1098400	PROB	2.818	n/a	n/a	n/a	-999	10	[4, 2, 8]	14	catFR1	4	R1403N
1098.027	2.416	1101217	PROB	2.416	n/a	n/a	n/a	-999	10	[1, 8, 2]	11	catFR1	4	R1403N
1100.443	7.5	1103633	PROB	7.5	n/a	n/a	n/a	-999	10	[4, 1, 8]	13	catFR1	4	R1403N
1107.943	0.0	1111128	DISTRACT_END	n/a	n/a	n/a	n/a	-999	10	[0, 0, 0]	n/a	catFR1	4	R1403N
1107.943	2.283	1111133	STOP	n/a	n/a	n/a	n/a	-999	10	[-999, -999, -999]	n/a	catFR1	4	R1403N
1110.226	2.267	1113409	REC_START	n/a	n/a	n/a	n/a	-999	10	[0, 0, 0]	n/a	catFR1	4	R1403N
1112.493	0.782	1115683	REC_WORD	0.782	n/a	HEAD	BodyParts	-999	10	[0, 0, 0]	n/a	catFR1	4	R1403N
1113.275	2.036	1116465	REC_WORD	2.036	n/a	EAR	BodyParts	-999	10	[0, 0, 0]	n/a	catFR1	4	R1403N
1115.311	0.614	1118501	REC_WORD	0.614	n/a	LADLE	KitchenTools	2	10	[0, 0, 0]	n/a	catFR1	4	R1403N
1115.925	7.898	1119115	REC_WORD	7.898	n/a	CORKSCREW	KitchenTools	1	10	[0, 0, 0]	n/a	catFR1	4	R1403N
1123.823	16.604	1127013	REC_WORD_VV	16.604	n/a	<>	n/a	-999	10	[0, 0, 0]	n/a	catFR1	4	R1403N
1140.427	1.866	1143612	REC_END	n/a	n/a	n/a	n/a	-999	10	[0, 0, 0]	n/a	catFR1	4	R1403N
1142.293	10.35	1145488	COUNTDOWN_START	n/a	n/a	n/a	n/a	-999	11	[0, 0, 0]	n/a	catFR1	4	R1403N
1152.643	0.0	1155840	COUNTDOWN_END	n/a	n/a	n/a	n/a	-999	11	[0, 0, 0]	n/a	catFR1	4	R1403N
1152.643	2.233	1155840	ENCODING_START	n/a	n/a	n/a	n/a	-999	11	[0, 0, 0]	n/a	catFR1	4	R1403N
1154.876	1.601	1158059	WORD	n/a	wordpools/wordpool_categorized_EN.txt	BUTTERFLY	Insects	1	11	[0, 0, 0]	n/a	catFR1	4	R1403N
1156.477	0.982	1159664	WORD_OFF	n/a	n/a	BUTTERFLY	Insects	1	11	[0, 0, 0]	n/a	catFR1	4	R1403N
1157.459	1.601	1160656	WORD	n/a	wordpools/wordpool_categorized_EN.txt	MOTH	Insects	2	11	[0, 0, 0]	n/a	catFR1	4	R1403N
1159.06	0.85	1162243	WORD_OFF	n/a	n/a	MOTH	Insects	2	11	[0, 0, 0]	n/a	catFR1	4	R1403N
1159.91	1.616	1163091	WORD	n/a	wordpools/wordpool_categorized_EN.txt	THUNDER	Weather	3	11	[0, 0, 0]	n/a	catFR1	4	R1403N
1161.526	0.833	1164714	WORD_OFF	n/a	n/a	THUNDER	Weather	3	11	[0, 0, 0]	n/a	catFR1	4	R1403N
1162.359	1.6	1165544	WORD	n/a	wordpools/wordpool_categorized_EN.txt	FOG	Weather	4	11	[0, 0, 0]	n/a	catFR1	4	R1403N
1163.959	0.968	1167149	WORD_OFF	n/a	n/a	FOG	Weather	4	11	[0, 0, 0]	n/a	catFR1	4	R1403N
1164.927	1.599	1168123	WORD	n/a	wordpools/wordpool_categorized_EN.txt	MARBLES	Toys	5	11	[0, 0, 0]	n/a	catFR1	4	R1403N
1166.526	0.983	1169710	WORD_OFF	n/a	n/a	MARBLES	Toys	5	11	[0, 0, 0]	n/a	catFR1	4	R1403N
1167.509	1.6	1170702	WORD	n/a	wordpools/wordpool_categorized_EN.txt	BALL	Toys	6	11	[0, 0, 0]	n/a	catFR1	4	R1403N
1169.109	0.934	1172290	WORD_OFF	n/a	n/a	BALL	Toys	6	11	[0, 0, 0]	n/a	catFR1	4	R1403N
1170.043	1.6	1173228	WORD	n/a	wordpools/wordpool_categorized_EN.txt	DRIZZLE	Weather	7	11	[0, 0, 0]	n/a	catFR1	4	R1403N
1171.643	0.949	1174833	WORD_OFF	n/a	n/a	DRIZZLE	Weather	7	11	[0, 0, 0]	n/a	catFR1	4	R1403N
1172.592	1.601	1175789	WORD	n/a	wordpools/wordpool_categorized_EN.txt	HURRICANE	Weather	8	11	[0, 0, 0]	n/a	catFR1	4	R1403N
1174.193	0.95	1177376	WORD_OFF	n/a	n/a	HURRICANE	Weather	8	11	[0, 0, 0]	n/a	catFR1	4	R1403N
1175.143	1.616	1178332	WORD	n/a	wordpools/wordpool_categorized_EN.txt	BASKETBALL	Toys	9	11	[0, 0, 0]	n/a	catFR1	4	R1403N
1176.759	0.784	1179955	WORD_OFF	n/a	n/a	BASKETBALL	Toys	9	11	[0, 0, 0]	n/a	catFR1	4	R1403N
1177.543	1.6	1180731	WORD	n/a	wordpools/wordpool_categorized_EN.txt	BASEBALL	Toys	10	11	[0, 0, 0]	n/a	catFR1	4	R1403N
1179.143	0.966	1182336	WORD_OFF	n/a	n/a	BASEBALL	Toys	10	11	[0, 0, 0]	n/a	catFR1	4	R1403N
1180.109	1.6	1183292	WORD	n/a	wordpools/wordpool_categorized_EN.txt	GNAT	Insects	11	11	[0, 0, 0]	n/a	catFR1	4	R1403N
1181.709	0.8	1184897	WORD_OFF	n/a	n/a	GNAT	Insects	11	11	[0, 0, 0]	n/a	catFR1	4	R1403N
1182.509	1.616	1185691	WORD	n/a	wordpools/wordpool_categorized_EN.txt	CRICKET	Insects	12	11	[0, 0, 0]	n/a	catFR1	4	R1403N
1184.125	0.001	1187314	WORD_OFF	n/a	n/a	CRICKET	Insects	12	11	[0, 0, 0]	n/a	catFR1	4	R1403N
1184.126	0.0	1187314	DISTRACT_START	n/a	n/a	n/a	n/a	-999	11	[0, 0, 0]	n/a	catFR1	4	R1403N
1184.126	0.0	1187314	ENCODING_END	n/a	n/a	n/a	n/a	-999	11	[0, 0, 0]	n/a	catFR1	4	R1403N
1184.126	0.0	1187314	START	n/a	n/a	n/a	n/a	-999	11	[-999, -999, -999]	n/a	catFR1	4	R1403N
1184.126	6.784	1187314	PROB	6.784	n/a	n/a	n/a	-999	11	[4, 7, 5]	16	catFR1	4	R1403N
1190.91	2.717	1194098	PROB	2.717	n/a	n/a	n/a	-999	11	[1, 1, 6]	8	catFR1	4	R1403N
1193.627	3.75	1196815	PROB	3.75	n/a	n/a	n/a	-999	11	[1, 8, 4]	13	catFR1	4	R1403N
1197.377	4.933	1200564	PROB	4.933	n/a	n/a	n/a	-999	11	[5, 3, 8]	16	catFR1	4	R1403N
1202.31	3.049	1205497	PROB	3.049	n/a	n/a	n/a	-999	11	[6, 1, 1]	8	catFR1	4	R1403N
1205.359	0.0	1208543	DISTRACT_END	n/a	n/a	n/a	n/a	-999	11	[0, 0, 0]	n/a	catFR1	4	R1403N
1205.359	2.334	1208546	STOP	n/a	n/a	n/a	n/a	-999	11	[-999, -999, -999]	n/a	catFR1	4	R1403N
1207.693	1.487	1210877	REC_START	n/a	n/a	n/a	n/a	-999	11	[0, 0, 0]	n/a	catFR1	4	R1403N
1209.18	0.74	1212367	REC_WORD	0.74	n/a	MARBLES	Toys	5	11	[0, 0, 0]	n/a	catFR1	4	R1403N
1209.92	0.419	1213107	REC_WORD	0.419	n/a	BALL	Toys	6	11	[0, 0, 0]	n/a	catFR1	4	R1403N
1210.339	0.835	1213526	REC_WORD	0.835	n/a	BASKETBALL	Toys	9	11	[0, 0, 0]	n/a	catFR1	4	R1403N
1211.174	1.2	1214361	REC_WORD	1.2	n/a	BASEBALL	Toys	10	11	[0, 0, 0]	n/a	catFR1	4	R1403N
1212.374	1.584	1215561	REC_WORD	1.584	n/a	GNAT	Insects	11	11	[0, 0, 0]	n/a	catFR1	4	R1403N
1213.958	1.274	1217145	REC_WORD	1.274	n/a	BALL	Toys	6	11	[0, 0, 0]	n/a	catFR1	4	R1403N
1215.232	0.584	1218419	REC_WORD	0.584	n/a	MOTH	Insects	2	11	[0, 0, 0]	n/a	catFR1	4	R1403N
1215.816	2.461	1219003	REC_WORD	2.461	n/a	BUTTERFLY	Insects	1	11	[0, 0, 0]	n/a	catFR1	4	R1403N
1218.277	9.786	1221464	REC_WORD	9.786	n/a	CRICKET	Insects	12	11	[0, 0, 0]	n/a	catFR1	4	R1403N
1228.063	9.829	1231249	REC_WORD	9.829	n/a	THUNDER	Weather	3	11	[0, 0, 0]	n/a	catFR1	4	R1403N
1237.892	2.667	1241080	REC_END	n/a	n/a	n/a	n/a	-999	11	[0, 0, 0]	n/a	catFR1	4	R1403N
1240.559	10.351	1243750	COUNTDOWN_START	n/a	n/a	n/a	n/a	-999	12	[0, 0, 0]	n/a	catFR1	4	R1403N
1250.91	0.0	1254102	COUNTDOWN_END	n/a	n/a	n/a	n/a	-999	12	[0, 0, 0]	n/a	catFR1	4	R1403N
1250.91	1.967	1254102	ENCODING_START	n/a	n/a	n/a	n/a	-999	12	[0, 0, 0]	n/a	catFR1	4	R1403N
1252.877	1.616	1256068	WORD	n/a	wordpools/wordpool_categorized_EN.txt	BEE	Insects	1	12	[0, 0, 0]	n/a	catFR1	4	R1403N
1254.493	1.0	1257674	WORD_OFF	n/a	n/a	BEE	Insects	1	12	[0, 0, 0]	n/a	catFR1	4	R1403N
1255.493	1.6	1258684	WORD	n/a	wordpools/wordpool_categorized_EN.txt	LADYBUG	Insects	2	12	[0, 0, 0]	n/a	catFR1	4	R1403N
1257.093	0.766	1260271	WORD_OFF	n/a	n/a	LADYBUG	Insects	2	12	[0, 0, 0]	n/a	catFR1	4	R1403N
1257.859	1.6	1261046	WORD	n/a	wordpools/wordpool_categorized_EN.txt	PLANKTON	OceanAnimals	3	12	[0, 0, 0]	n/a	catFR1	4	R1403N
1259.459	0.934	1262652	WORD_OFF	n/a	n/a	PLANKTON	OceanAnimals	3	12	[0, 0, 0]	n/a	catFR1	4	R1403N
1260.393	1.616	1263572	WORD	n/a	wordpools/wordpool_categorized_EN.txt	SHRIMP	OceanAnimals	4	12	[0, 0, 0]	n/a	catFR1	4	R1403N
1262.009	0.917	1265195	WORD_OFF	n/a	n/a	SHRIMP	OceanAnimals	4	12	[0, 0, 0]	n/a	catFR1	4	R1403N
1262.926	1.617	1266115	WORD	n/a	wordpools/wordpool_categorized_EN.txt	SPATULA	KitchenTools	5	12	[0, 0, 0]	n/a	catFR1	4	R1403N
1264.543	0.9	1267738	WORD_OFF	n/a	n/a	SPATULA	KitchenTools	5	12	[0, 0, 0]	n/a	catFR1	4	R1403N
1265.443	1.616	1268622	WORD	n/a	wordpools/wordpool_categorized_EN.txt	WHISK	KitchenTools	6	12	[0, 0, 0]	n/a	catFR1	4	R1403N
1267.059	0.784	1270245	WORD_OFF	n/a	n/a	WHISK	KitchenTools	6	12	[0, 0, 0]	n/a	catFR1	4	R1403N
1267.843	1.617	1271021	WORD	n/a	wordpools/wordpool_categorized_EN.txt	BEETLE	Insects	7	12	[0, 0, 0]	n/a	catFR1	4	R1403N
1269.46	0.849	1272644	WORD_OFF	n/a	n/a	BEETLE	Insects	7	12	[0, 0, 0]	n/a	catFR1	4	R1403N
1270.309	1.618	1273492	WORD	n/a	wordpools/wordpool_categorized_EN.txt	FLY	Insects	8	12	[0, 0, 0]	n/a	catFR1	4	R1403N
1271.927	0.799	1275115	WORD_OFF	n/a	n/a	FLY	Insects	8	12	[0, 0, 0]	n/a	catFR1	4	R1403N
1272.726	1.617	1275908	WORD	n/a	wordpools/wordpool_categorized_EN.txt	TURTLE	OceanAnimals	9	12	[0, 0, 0]	n/a	catFR1	4	R1403N
1274.343	0.834	1277532	WORD_OFF	n/a	n/a	TURTLE	OceanAnimals	9	12	[0, 0, 0]	n/a	catFR1	4	R1403N
1275.177	1.616	1278361	WORD	n/a	wordpools/wordpool_categorized_EN.txt	FISH	OceanAnimals	10	12	[0, 0, 0]	n/a	catFR1	4	R1403N
1276.793	0.799	1279985	WORD_OFF	n/a	n/a	FISH	OceanAnimals	10	12	[0, 0, 0]	n/a	catFR1	4	R1403N
1277.592	1.601	1280778	WORD	n/a	wordpools/wordpool_categorized_EN.txt	KNIFE	KitchenTools	11	12	[0, 0, 0]	n/a	catFR1	4	R1403N
1279.193	0.884	1282383	WORD_OFF	n/a	n/a	KNIFE	KitchenTools	11	12	[0, 0, 0]	n/a	catFR1	4	R1403N
1280.077	1.6	1283267	WORD	n/a	wordpools/wordpool_categorized_EN.txt	COLANDER	KitchenTools	12	12	[0, 0, 0]	n/a	catFR1	4	R1403N
1281.677	0.0	1284854	WORD_OFF	n/a	n/a	COLANDER	KitchenTools	12	12	[0, 0, 0]	n/a	catFR1	4	R1403N
1281.677	0.001	1284862	PROB	0.001	n/a	n/a	n/a	-999	12	[3, 1, 7]	11	catFR1	4	R1403N
1281.678	0.0	1284872	DISTRACT_START	n/a	n/a	n/a	n/a	-999	12	[0, 0, 0]	n/a	catFR1	4	R1403N
1281.678	0.0	1284872	ENCODING_END	n/a	n/a	n/a	n/a	-999	12	[0, 0, 0]	n/a	catFR1	4	R1403N
1281.678	3.931	1284863	START	n/a	n/a	n/a	n/a	-999	12	[-999, -999, -999]	n/a	catFR1	4	R1403N
1285.609	2.901	1288794	PROB	2.901	n/a	n/a	n/a	-999	12	[4, 1, 1]	6	catFR1	4	R1403N
1288.51	5.783	1291695	PROB	5.783	n/a	n/a	n/a	-999	12	[3, 4, 1]	8	catFR1	4	R1403N
1294.293	6.166	1297477	PROB	6.166	n/a	n/a	n/a	-999	12	[4, 5, 3]	12	catFR1	4	R1403N
1300.459	4.5	1303643	PROB	4.5	n/a	n/a	n/a	-999	12	[4, 5, 2]	11	catFR1	4	R1403N
1304.959	0.0	1308139	DISTRACT_END	n/a	n/a	n/a	n/a	-999	12	[0, 0, 0]	n/a	catFR1	4	R1403N
1304.959	2.349	1308143	STOP	n/a	n/a	n/a	n/a	-999	12	[-999, -999, -999]	n/a	catFR1	4	R1403N
1307.308	0.894	1310492	REC_START	n/a	n/a	n/a	n/a	-999	12	[0, 0, 0]	n/a	catFR1	4	R1403N
1308.202	0.51	1311386	REC_WORD	0.51	n/a	BEE	Insects	1	12	[0, 0, 0]	n/a	catFR1	4	R1403N
1308.712	0.933	1311896	REC_WORD	0.933	n/a	LADYBUG	Insects	2	12	[0, 0, 0]	n/a	catFR1	4	R1403N
1309.645	0.627	1312829	REC_WORD	0.627	n/a	WHISK	KitchenTools	6	12	[0, 0, 0]	n/a	catFR1	4	R1403N
1310.272	0.673	1313456	REC_WORD	0.673	n/a	SPATULA	KitchenTools	5	12	[0, 0, 0]	n/a	catFR1	4	R1403N
1310.945	0.654	1314129	REC_WORD	0.654	n/a	KNIFE	KitchenTools	11	12	[0, 0, 0]	n/a	catFR1	4	R1403N
1311.599	0.47	1314783	REC_WORD	0.47	n/a	TURTLE	OceanAnimals	9	12	[0, 0, 0]	n/a	catFR1	4	R1403N
1312.069	25.427	1315253	REC_WORD	25.427	n/a	FISH	OceanAnimals	10	12	[0, 0, 0]	n/a	catFR1	4	R1403N
1337.496	0.0	1340677	REC_END	n/a	n/a	n/a	n/a	-999	12	[0, 0, 0]	n/a	catFR1	4	R1403N
