onset	duration	sample	trial_type	response_time	stim_file	item_name	category	serialpos	list	test	answer	experiment	session	subject
0.0	0.0	6042	INSTRUCT_START	n/a	n/a	n/a	n/a	-999	-999	[0, 0, 0]	n/a	catFR1	1	R1279P
0.0	11.072	6042	INSTRUCT_END	n/a	n/a	n/a	n/a	-999	-999	[0, 0, 0]	n/a	catFR1	1	R1279P
11.072	0.0	17114	SESS_START	n/a	n/a	n/a	n/a	-999	-999	[0, 0, 0]	n/a	catFR1	1	R1279P
11.072	220.802	17114	MIC_TEST	n/a	n/a	n/a	n/a	-999	-999	[0, 0, 0]	n/a	catFR1	1	R1279P
231.874	5.82	237904	PRACTICE_TRIAL	n/a	n/a	n/a	n/a	-999	-1	[0, 0, 0]	n/a	catFR1	1	R1279P
237.694	10.428	243724	COUNTDOWN_START	n/a	n/a	n/a	n/a	-999	-1	[0, 0, 0]	n/a	catFR1	1	R1279P
248.122	0.008	254151	COUNTDOWN_END	n/a	n/a	n/a	n/a	-999	-1	[0, 0, 0]	n/a	catFR1	1	R1279P
248.13	1.617	254159	PRACTICE_ORIENT	n/a	n/a	n/a	n/a	-999	-1	[0, 0, 0]	n/a	catFR1	1	R1279P
249.747	2.117	255776	PRACTICE_ORIENT_OFF	n/a	n/a	n/a	n/a	-999	-1	[0, 0, 0]	n/a	catFR1	1	R1279P
251.864	1.617	257893	PRACTICE_WORD	n/a	n/a	RING	n/a	-1	-1	[0, 0, 0]	n/a	catFR1	1	R1279P
253.481	0.95	259510	PRACTICE_WORD_OFF	n/a	n/a	RING	n/a	-999	-1	[0, 0, 0]	n/a	catFR1	1	R1279P
254.431	1.618	260460	PRACTICE_WORD	n/a	n/a	WAGON	n/a	-1	-1	[0, 0, 0]	n/a	catFR1	1	R1279P
256.049	0.899	262078	PRACTICE_WORD_OFF	n/a	n/a	WAGON	n/a	-999	-1	[0, 0, 0]	n/a	catFR1	1	R1279P
256.948	1.617	262977	PRACTICE_WORD	n/a	n/a	CAMEL	n/a	-1	-1	[0, 0, 0]	n/a	catFR1	1	R1279P
258.565	0.85	264594	PRACTICE_WORD_OFF	n/a	n/a	CAMEL	n/a	-999	-1	[0, 0, 0]	n/a	catFR1	1	R1279P
259.415	1.618	265444	PRACTICE_WORD	n/a	n/a	ATTIC	n/a	-1	-1	[0, 0, 0]	n/a	catFR1	1	R1279P
261.033	0.783	267062	PRACTICE_WORD_OFF	n/a	n/a	ATTIC	n/a	-999	-1	[0, 0, 0]	n/a	catFR1	1	R1279P
261.816	1.617	267845	PRACTICE_WORD	n/a	n/a	COTTON	n/a	-1	-1	[0, 0, 0]	n/a	catFR1	1	R1279P
263.433	0.95	269462	PRACTICE_WORD_OFF	n/a	n/a	COTTON	n/a	-999	-1	[0, 0, 0]	n/a	catFR1	1	R1279P
264.383	1.618	270412	PRACTICE_WORD	n/a	n/a	TONGUE	n/a	-1	-1	[0, 0, 0]	n/a	catFR1	1	R1279P
266.001	0.949	272029	PRACTICE_WORD_OFF	n/a	n/a	TONGUE	n/a	-999	-1	[0, 0, 0]	n/a	catFR1	1	R1279P
266.95	1.617	272978	PRACTICE_WORD	n/a	n/a	CHEST	n/a	-1	-1	[0, 0, 0]	n/a	catFR1	1	R1279P
268.567	0.8	274595	PRACTICE_WORD_OFF	n/a	n/a	CHEST	n/a	-999	-1	[0, 0, 0]	n/a	catFR1	1	R1279P
269.367	1.618	275395	PRACTICE_WORD	n/a	n/a	BEAM	n/a	-1	-1	[0, 0, 0]	n/a	catFR1	1	R1279P
270.985	0.849	277013	PRACTICE_WORD_OFF	n/a	n/a	BEAM	n/a	-999	-1	[0, 0, 0]	n/a	catFR1	1	R1279P
271.834	1.617	277862	PRACTICE_WORD	n/a	n/a	FLOOD	n/a	-1	-1	[0, 0, 0]	n/a	catFR1	1	R1279P
273.451	0.984	279479	PRACTICE_WORD_OFF	n/a	n/a	FLOOD	n/a	-999	-1	[0, 0, 0]	n/a	catFR1	1	R1279P
274.435	1.618	280463	PRACTICE_WORD	n/a	n/a	WATCH	n/a	-1	-1	[0, 0, 0]	n/a	catFR1	1	R1279P
276.053	0.983	282081	PRACTICE_WORD_OFF	n/a	n/a	WATCH	n/a	-999	-1	[0, 0, 0]	n/a	catFR1	1	R1279P
277.036	1.616	283064	PRACTICE_WORD	n/a	n/a	RHINO	n/a	-1	-1	[0, 0, 0]	n/a	catFR1	1	R1279P
278.652	0.9	284680	PRACTICE_WORD_OFF	n/a	n/a	RHINO	n/a	-999	-1	[0, 0, 0]	n/a	catFR1	1	R1279P
279.552	1.617	285580	PRACTICE_WORD	n/a	n/a	IRON	n/a	-1	-1	[0, 0, 0]	n/a	catFR1	1	R1279P
281.169	0.0	287197	ENCODING_END	n/a	n/a	n/a	n/a	-999	-1	[0, 0, 0]	n/a	catFR1	1	R1279P
281.169	0.001	287197	PRACTICE_WORD_OFF	n/a	n/a	IRON	n/a	-999	-1	[0, 0, 0]	n/a	catFR1	1	R1279P
281.17	0.0	287198	DISTRACT_START	n/a	n/a	n/a	n/a	-999	-1	[0, 0, 0]	n/a	catFR1	1	R1279P
281.17	0.016	287198	START	n/a	n/a	n/a	n/a	-999	-1	[-999, -999, -999]	n/a	catFR1	1	R1279P
281.186	11.719	287214	PROB	11.69	n/a	n/a	n/a	-999	-1	[2, 3, 7]	12.0	catFR1	1	R1279P
292.905	7.485	298932	PROB	7.452	n/a	n/a	n/a	-999	-1	[9, 6, 8]	23.0	catFR1	1	R1279P
300.39	4.238	306417	PROB	4.238	n/a	n/a	n/a	-999	-1	[2, 6, 7]	15.0	catFR1	1	R1279P
304.628	0.013	310654	STOP	n/a	n/a	n/a	n/a	-999	-1	[-999, -999, -999]	n/a	catFR1	1	R1279P
304.641	0.55	310667	DISTRACT_END	n/a	n/a	n/a	n/a	-999	-1	[0, 0, 0]	n/a	catFR1	1	R1279P
305.191	0.517	311217	RETRIEVAL_ORIENT	n/a	n/a	n/a	n/a	-999	-1	[0, 0, 0]	n/a	catFR1	1	R1279P
305.708	30.011	311734	PRACTICE_REC_START	n/a	n/a	n/a	n/a	-999	-1	[0, 0, 0]	n/a	catFR1	1	R1279P
335.719	14.613	341744	PRACTICE_REC_END	n/a	n/a	n/a	n/a	-999	-1	[0, 0, 0]	n/a	catFR1	1	R1279P
350.332	0.5	356356	TRIAL	n/a	n/a	n/a	n/a	-999	1	[0, 0, 0]	n/a	catFR1	1	R1279P
350.832	10.428	356856	COUNTDOWN_START	n/a	n/a	n/a	n/a	-999	1	[0, 0, 0]	n/a	catFR1	1	R1279P
361.26	0.008	367284	COUNTDOWN_END	n/a	n/a	n/a	n/a	-999	1	[0, 0, 0]	n/a	catFR1	1	R1279P
361.268	1.617	367292	ORIENT	n/a	n/a	n/a	n/a	-999	1	[0, 0, 0]	n/a	catFR1	1	R1279P
362.885	2.151	368908	ORIENT_OFF	n/a	n/a	n/a	n/a	-999	1	[0, 0, 0]	n/a	catFR1	1	R1279P
365.036	1.616	371059	WORD	n/a	wordpools/wordpool_categorized_EN.txt	PEN	OfficeSupplies	1	1	[0, 0, 0]	n/a	catFR1	1	R1279P
366.652	0.884	372675	WORD_OFF	n/a	n/a	PEN	n/a	1	1	[0, 0, 0]	n/a	catFR1	1	R1279P
367.536	1.617	373559	WORD	n/a	wordpools/wordpool_categorized_EN.txt	MARKER	OfficeSupplies	2	1	[0, 0, 0]	n/a	catFR1	1	R1279P
369.153	0.8	375176	WORD_OFF	n/a	n/a	MARKER	n/a	2	1	[0, 0, 0]	n/a	catFR1	1	R1279P
369.953	1.617	375976	WORD	n/a	wordpools/wordpool_categorized_EN.txt	LADYBUG	Insects	3	1	[0, 0, 0]	n/a	catFR1	1	R1279P
371.57	0.883	377593	WORD_OFF	n/a	n/a	LADYBUG	n/a	3	1	[0, 0, 0]	n/a	catFR1	1	R1279P
372.453	1.601	378476	WORD	n/a	wordpools/wordpool_categorized_EN.txt	ROACH	Insects	4	1	[0, 0, 0]	n/a	catFR1	1	R1279P
374.054	0.967	380077	WORD_OFF	n/a	n/a	ROACH	n/a	4	1	[0, 0, 0]	n/a	catFR1	1	R1279P
375.021	1.616	381044	WORD	n/a	wordpools/wordpool_categorized_EN.txt	RIVER	Landscapes	5	1	[0, 0, 0]	n/a	catFR1	1	R1279P
376.637	0.867	382660	WORD_OFF	n/a	n/a	RIVER	n/a	5	1	[0, 0, 0]	n/a	catFR1	1	R1279P
377.504	1.617	383527	WORD	n/a	wordpools/wordpool_categorized_EN.txt	BEACH	Landscapes	6	1	[0, 0, 0]	n/a	catFR1	1	R1279P
379.121	0.918	385144	WORD_OFF	n/a	n/a	BEACH	n/a	6	1	[0, 0, 0]	n/a	catFR1	1	R1279P
380.039	1.616	386062	WORD	n/a	wordpools/wordpool_categorized_EN.txt	FOLDER	OfficeSupplies	7	1	[0, 0, 0]	n/a	catFR1	1	R1279P
381.655	0.867	387677	WORD_OFF	n/a	n/a	FOLDER	n/a	7	1	[0, 0, 0]	n/a	catFR1	1	R1279P
382.522	1.617	388544	WORD	n/a	wordpools/wordpool_categorized_EN.txt	TAPE	OfficeSupplies	8	1	[0, 0, 0]	n/a	catFR1	1	R1279P
384.139	0.884	390161	WORD_OFF	n/a	n/a	TAPE	n/a	8	1	[0, 0, 0]	n/a	catFR1	1	R1279P
385.023	1.616	391045	WORD	n/a	wordpools/wordpool_categorized_EN.txt	CRICKET	Insects	9	1	[0, 0, 0]	n/a	catFR1	1	R1279P
386.639	1.017	392661	WORD_OFF	n/a	n/a	CRICKET	n/a	9	1	[0, 0, 0]	n/a	catFR1	1	R1279P
387.656	1.617	393678	WORD	n/a	wordpools/wordpool_categorized_EN.txt	MOTH	Insects	10	1	[0, 0, 0]	n/a	catFR1	1	R1279P
389.273	0.983	395295	WORD_OFF	n/a	n/a	MOTH	n/a	10	1	[0, 0, 0]	n/a	catFR1	1	R1279P
390.256	1.617	396278	WORD	n/a	wordpools/wordpool_categorized_EN.txt	CREEK	Landscapes	11	1	[0, 0, 0]	n/a	catFR1	1	R1279P
391.873	0.767	397895	WORD_OFF	n/a	n/a	CREEK	n/a	11	1	[0, 0, 0]	n/a	catFR1	1	R1279P
392.64	1.617	398662	WORD	n/a	wordpools/wordpool_categorized_EN.txt	HILLS	Landscapes	12	1	[0, 0, 0]	n/a	catFR1	1	R1279P
394.257	0.001	400279	WORD_OFF	n/a	n/a	HILLS	n/a	12	1	[0, 0, 0]	n/a	catFR1	1	R1279P
394.258	0.135	400280	ENCODING_END	n/a	n/a	n/a	n/a	-999	1	[0, 0, 0]	n/a	catFR1	1	R1279P
394.393	0.0	400415	DISTRACT_START	n/a	n/a	n/a	n/a	-999	1	[0, 0, 0]	n/a	catFR1	1	R1279P
394.393	0.014	400415	START	n/a	n/a	n/a	n/a	-999	1	[-999, -999, -999]	n/a	catFR1	1	R1279P
394.407	7.052	400429	PROB	7.013	n/a	n/a	n/a	-999	1	[5, 9, 7]	22.0	catFR1	1	R1279P
401.459	5.351	407480	PROB	5.32	n/a	n/a	n/a	-999	1	[8, 9, 9]	26.0	catFR1	1	R1279P
406.81	5.168	412831	PROB	5.138	n/a	n/a	n/a	-999	1	[8, 5, 4]	17.0	catFR1	1	R1279P
411.978	6.69	417999	PROB	6.69	n/a	n/a	n/a	-999	1	[9, 6, 7]	22.0	catFR1	1	R1279P
418.668	0.011	424688	STOP	n/a	n/a	n/a	n/a	-999	1	[-999, -999, -999]	n/a	catFR1	1	R1279P
418.679	0.616	424699	DISTRACT_END	n/a	n/a	n/a	n/a	-999	1	[0, 0, 0]	n/a	catFR1	1	R1279P
419.295	0.518	425315	RETRIEVAL_ORIENT	n/a	n/a	n/a	n/a	-999	1	[0, 0, 0]	n/a	catFR1	1	R1279P
419.813	1.614	425833	REC_START	n/a	n/a	n/a	n/a	-999	1	[0, 0, 0]	n/a	catFR1	1	R1279P
421.427	1.416	427447	REC_WORD	1.614	n/a	PEN	OfficeSupplies	1	1	[0, 0, 0]	n/a	catFR1	1	R1279P
422.843	26.981	428863	REC_WORD	3.03	n/a	MARKER	OfficeSupplies	2	1	[0, 0, 0]	n/a	catFR1	1	R1279P
449.824	11.762	455843	REC_END	n/a	n/a	n/a	n/a	-999	1	[0, 0, 0]	n/a	catFR1	1	R1279P
461.586	0.5	467604	TRIAL	n/a	n/a	n/a	n/a	-999	2	[0, 0, 0]	n/a	catFR1	1	R1279P
462.086	10.428	468104	COUNTDOWN_START	n/a	n/a	n/a	n/a	-999	2	[0, 0, 0]	n/a	catFR1	1	R1279P
472.514	0.008	478532	COUNTDOWN_END	n/a	n/a	n/a	n/a	-999	2	[0, 0, 0]	n/a	catFR1	1	R1279P
472.522	1.617	478540	ORIENT	n/a	n/a	n/a	n/a	-999	2	[0, 0, 0]	n/a	catFR1	1	R1279P
474.139	1.984	480157	ORIENT_OFF	n/a	n/a	n/a	n/a	-999	2	[0, 0, 0]	n/a	catFR1	1	R1279P
476.123	1.617	482140	WORD	n/a	wordpools/wordpool_categorized_EN.txt	ONION	Vegetables	1	2	[0, 0, 0]	n/a	catFR1	1	R1279P
477.74	0.883	483757	WORD_OFF	n/a	n/a	ONION	n/a	1	2	[0, 0, 0]	n/a	catFR1	1	R1279P
478.623	1.617	484640	WORD	n/a	wordpools/wordpool_categorized_EN.txt	PEAS	Vegetables	2	2	[0, 0, 0]	n/a	catFR1	1	R1279P
480.24	0.9	486257	WORD_OFF	n/a	n/a	PEAS	n/a	2	2	[0, 0, 0]	n/a	catFR1	1	R1279P
481.14	1.617	487157	WORD	n/a	wordpools/wordpool_categorized_EN.txt	LILY	Flowers	3	2	[0, 0, 0]	n/a	catFR1	1	R1279P
482.757	0.917	488774	WORD_OFF	n/a	n/a	LILY	n/a	3	2	[0, 0, 0]	n/a	catFR1	1	R1279P
483.674	1.617	489691	WORD	n/a	wordpools/wordpool_categorized_EN.txt	DAFFODIL	Flowers	4	2	[0, 0, 0]	n/a	catFR1	1	R1279P
485.291	0.9	491308	WORD_OFF	n/a	n/a	DAFFODIL	n/a	4	2	[0, 0, 0]	n/a	catFR1	1	R1279P
486.191	1.617	492208	WORD	n/a	wordpools/wordpool_categorized_EN.txt	GLUE	OfficeSupplies	5	2	[0, 0, 0]	n/a	catFR1	1	R1279P
487.808	0.884	493825	WORD_OFF	n/a	n/a	GLUE	n/a	5	2	[0, 0, 0]	n/a	catFR1	1	R1279P
488.692	1.617	494709	WORD	n/a	wordpools/wordpool_categorized_EN.txt	PENCIL	OfficeSupplies	6	2	[0, 0, 0]	n/a	catFR1	1	R1279P
490.309	0.817	496326	WORD_OFF	n/a	n/a	PENCIL	n/a	6	2	[0, 0, 0]	n/a	catFR1	1	R1279P
491.126	1.616	497143	WORD	n/a	wordpools/wordpool_categorized_EN.txt	CARNATION	Flowers	7	2	[0, 0, 0]	n/a	catFR1	1	R1279P
492.742	0.884	498759	WORD_OFF	n/a	n/a	CARNATION	n/a	7	2	[0, 0, 0]	n/a	catFR1	1	R1279P
493.626	1.617	499643	WORD	n/a	wordpools/wordpool_categorized_EN.txt	VIOLET	Flowers	8	2	[0, 0, 0]	n/a	catFR1	1	R1279P
495.243	0.784	501259	WORD_OFF	n/a	n/a	VIOLET	n/a	8	2	[0, 0, 0]	n/a	catFR1	1	R1279P
496.027	1.616	502043	WORD	n/a	wordpools/wordpool_categorized_EN.txt	CELERY	Vegetables	9	2	[0, 0, 0]	n/a	catFR1	1	R1279P
497.643	0.867	503659	WORD_OFF	n/a	n/a	CELERY	n/a	9	2	[0, 0, 0]	n/a	catFR1	1	R1279P
498.51	1.617	504526	WORD	n/a	wordpools/wordpool_categorized_EN.txt	LETTUCE	Vegetables	10	2	[0, 0, 0]	n/a	catFR1	1	R1279P
500.127	0.868	506143	WORD_OFF	n/a	n/a	LETTUCE	n/a	10	2	[0, 0, 0]	n/a	catFR1	1	R1279P
500.995	1.616	507011	WORD	n/a	wordpools/wordpool_categorized_EN.txt	PAPER	OfficeSupplies	11	2	[0, 0, 0]	n/a	catFR1	1	R1279P
502.611	0.833	508627	WORD_OFF	n/a	n/a	PAPER	n/a	11	2	[0, 0, 0]	n/a	catFR1	1	R1279P
503.444	1.618	509460	WORD	n/a	wordpools/wordpool_categorized_EN.txt	NOTEBOOK	OfficeSupplies	12	2	[0, 0, 0]	n/a	catFR1	1	R1279P
505.062	0.001	511078	WORD_OFF	n/a	n/a	NOTEBOOK	n/a	12	2	[0, 0, 0]	n/a	catFR1	1	R1279P
505.063	0.103	511079	ENCODING_END	n/a	n/a	n/a	n/a	-999	2	[0, 0, 0]	n/a	catFR1	1	R1279P
505.166	0.0	511182	DISTRACT_START	n/a	n/a	n/a	n/a	-999	2	[0, 0, 0]	n/a	catFR1	1	R1279P
505.166	0.012	511182	START	n/a	n/a	n/a	n/a	-999	2	[-999, -999, -999]	n/a	catFR1	1	R1279P
505.178	5.685	511194	PROB	5.651	n/a	n/a	n/a	-999	2	[1, 6, 5]	12.0	catFR1	1	R1279P
510.863	3.834	516879	PROB	3.805	n/a	n/a	n/a	-999	2	[3, 1, 5]	9.0	catFR1	1	R1279P
514.697	4.117	520712	PROB	4.083	n/a	n/a	n/a	-999	2	[6, 1, 2]	9.0	catFR1	1	R1279P
518.814	3.168	524829	PROB	3.134	n/a	n/a	n/a	-999	2	[1, 2, 2]	5.0	catFR1	1	R1279P
521.982	5.934	527997	PROB	5.934	n/a	n/a	n/a	-999	2	[9, 3, 8]	20.0	catFR1	1	R1279P
527.916	0.017	533931	STOP	n/a	n/a	n/a	n/a	-999	2	[-999, -999, -999]	n/a	catFR1	1	R1279P
527.933	0.633	533948	DISTRACT_END	n/a	n/a	n/a	n/a	-999	2	[0, 0, 0]	n/a	catFR1	1	R1279P
528.566	0.519	534581	RETRIEVAL_ORIENT	n/a	n/a	n/a	n/a	-999	2	[0, 0, 0]	n/a	catFR1	1	R1279P
529.085	1.674	535100	REC_START	n/a	n/a	n/a	n/a	-999	2	[0, 0, 0]	n/a	catFR1	1	R1279P
530.759	1.78	536774	REC_WORD	1.674	n/a	ONION	Vegetables	1	2	[0, 0, 0]	n/a	catFR1	1	R1279P
532.539	1.93	538554	REC_WORD	3.454	n/a	PEAS	Vegetables	2	2	[0, 0, 0]	n/a	catFR1	1	R1279P
534.469	24.628	540483	REC_WORD	5.384	n/a	DAFFODIL	Flowers	4	2	[0, 0, 0]	n/a	catFR1	1	R1279P
559.097	5.659	565110	REC_END	n/a	n/a	n/a	n/a	-999	2	[0, 0, 0]	n/a	catFR1	1	R1279P
564.756	0.5	570769	TRIAL	n/a	n/a	n/a	n/a	-999	3	[0, 0, 0]	n/a	catFR1	1	R1279P
565.256	10.428	571269	COUNTDOWN_START	n/a	n/a	n/a	n/a	-999	3	[0, 0, 0]	n/a	catFR1	1	R1279P
575.684	0.007	581696	COUNTDOWN_END	n/a	n/a	n/a	n/a	-999	3	[0, 0, 0]	n/a	catFR1	1	R1279P
575.691	1.617	581703	ORIENT	n/a	n/a	n/a	n/a	-999	3	[0, 0, 0]	n/a	catFR1	1	R1279P
577.308	1.984	583320	ORIENT_OFF	n/a	n/a	n/a	n/a	-999	3	[0, 0, 0]	n/a	catFR1	1	R1279P
579.292	1.617	585304	WORD	n/a	wordpools/wordpool_categorized_EN.txt	SHOES	Clothing	1	3	[0, 0, 0]	n/a	catFR1	1	R1279P
580.909	0.884	586921	WORD_OFF	n/a	n/a	SHOES	n/a	1	3	[0, 0, 0]	n/a	catFR1	1	R1279P
581.793	1.616	587805	WORD	n/a	wordpools/wordpool_categorized_EN.txt	SHIRT	Clothing	2	3	[0, 0, 0]	n/a	catFR1	1	R1279P
583.409	0.817	589421	WORD_OFF	n/a	n/a	SHIRT	n/a	2	3	[0, 0, 0]	n/a	catFR1	1	R1279P
584.226	1.617	590238	WORD	n/a	wordpools/wordpool_categorized_EN.txt	BUTTERFLY	Insects	3	3	[0, 0, 0]	n/a	catFR1	1	R1279P
585.843	0.817	591855	WORD_OFF	n/a	n/a	BUTTERFLY	n/a	3	3	[0, 0, 0]	n/a	catFR1	1	R1279P
586.66	1.617	592672	WORD	n/a	wordpools/wordpool_categorized_EN.txt	BEE	Insects	4	3	[0, 0, 0]	n/a	catFR1	1	R1279P
588.277	0.768	594289	WORD_OFF	n/a	n/a	BEE	n/a	4	3	[0, 0, 0]	n/a	catFR1	1	R1279P
589.045	1.616	595057	WORD	n/a	wordpools/wordpool_categorized_EN.txt	PHONE	Electronics	5	3	[0, 0, 0]	n/a	catFR1	1	R1279P
590.661	0.867	596672	WORD_OFF	n/a	n/a	PHONE	n/a	5	3	[0, 0, 0]	n/a	catFR1	1	R1279P
591.528	1.617	597539	WORD	n/a	wordpools/wordpool_categorized_EN.txt	STEREO	Electronics	6	3	[0, 0, 0]	n/a	catFR1	1	R1279P
593.145	0.851	599156	WORD_OFF	n/a	n/a	STEREO	n/a	6	3	[0, 0, 0]	n/a	catFR1	1	R1279P
593.996	1.616	600007	WORD	n/a	wordpools/wordpool_categorized_EN.txt	SHORTS	Clothing	7	3	[0, 0, 0]	n/a	catFR1	1	R1279P
595.612	0.783	601623	WORD_OFF	n/a	n/a	SHORTS	n/a	7	3	[0, 0, 0]	n/a	catFR1	1	R1279P
596.395	1.601	602406	WORD	n/a	wordpools/wordpool_categorized_EN.txt	UNDERWEAR	Clothing	8	3	[0, 0, 0]	n/a	catFR1	1	R1279P
597.996	0.933	604007	WORD_OFF	n/a	n/a	UNDERWEAR	n/a	8	3	[0, 0, 0]	n/a	catFR1	1	R1279P
598.929	1.617	604940	WORD	n/a	wordpools/wordpool_categorized_EN.txt	ANT	Insects	9	3	[0, 0, 0]	n/a	catFR1	1	R1279P
600.546	0.933	606557	WORD_OFF	n/a	n/a	ANT	n/a	9	3	[0, 0, 0]	n/a	catFR1	1	R1279P
601.479	1.618	607490	WORD	n/a	wordpools/wordpool_categorized_EN.txt	GNAT	Insects	10	3	[0, 0, 0]	n/a	catFR1	1	R1279P
603.097	0.984	609108	WORD_OFF	n/a	n/a	GNAT	n/a	10	3	[0, 0, 0]	n/a	catFR1	1	R1279P
604.081	1.616	610092	WORD	n/a	wordpools/wordpool_categorized_EN.txt	TABLET	Electronics	11	3	[0, 0, 0]	n/a	catFR1	1	R1279P
605.697	0.834	611708	WORD_OFF	n/a	n/a	TABLET	n/a	11	3	[0, 0, 0]	n/a	catFR1	1	R1279P
606.531	1.616	612542	WORD	n/a	wordpools/wordpool_categorized_EN.txt	PRINTER	Electronics	12	3	[0, 0, 0]	n/a	catFR1	1	R1279P
608.147	0.001	614158	WORD_OFF	n/a	n/a	PRINTER	n/a	12	3	[0, 0, 0]	n/a	catFR1	1	R1279P
608.148	0.107	614159	ENCODING_END	n/a	n/a	n/a	n/a	-999	3	[0, 0, 0]	n/a	catFR1	1	R1279P
608.255	0.001	614266	DISTRACT_START	n/a	n/a	n/a	n/a	-999	3	[0, 0, 0]	n/a	catFR1	1	R1279P
608.256	0.008	614267	START	n/a	n/a	n/a	n/a	-999	3	[-999, -999, -999]	n/a	catFR1	1	R1279P
608.264	6.151	614275	PROB	6.123	n/a	n/a	n/a	-999	3	[7, 9, 3]	19.0	catFR1	1	R1279P
614.415	5.185	620425	PROB	5.157	n/a	n/a	n/a	-999	3	[8, 7, 1]	16.0	catFR1	1	R1279P
619.6	3.967	625610	PROB	3.941	n/a	n/a	n/a	-999	3	[6, 1, 5]	12.0	catFR1	1	R1279P
623.567	5.062	629577	PROB	5.062	n/a	n/a	n/a	-999	3	[7, 5, 6]	18.0	catFR1	1	R1279P
628.629	0.006	634638	STOP	n/a	n/a	n/a	n/a	-999	3	[-999, -999, -999]	n/a	catFR1	1	R1279P
628.635	0.633	634644	DISTRACT_END	n/a	n/a	n/a	n/a	-999	3	[0, 0, 0]	n/a	catFR1	1	R1279P
629.268	0.518	635277	RETRIEVAL_ORIENT	n/a	n/a	n/a	n/a	-999	3	[0, 0, 0]	n/a	catFR1	1	R1279P
629.786	1.244	635795	REC_START	n/a	n/a	n/a	n/a	-999	3	[0, 0, 0]	n/a	catFR1	1	R1279P
631.03	1.895	637039	REC_WORD	1.244	n/a	SHOES	Clothing	1	3	[0, 0, 0]	n/a	catFR1	1	R1279P
632.925	2.375	638934	REC_WORD	3.139	n/a	UNDERWEAR	Clothing	8	3	[0, 0, 0]	n/a	catFR1	1	R1279P
635.3	24.496	641309	REC_WORD	5.514	n/a	SHIRT	Clothing	2	3	[0, 0, 0]	n/a	catFR1	1	R1279P
659.796	5.779	665804	REC_END	n/a	n/a	n/a	n/a	-999	3	[0, 0, 0]	n/a	catFR1	1	R1279P
665.575	0.5	671583	TRIAL	n/a	n/a	n/a	n/a	-999	4	[0, 0, 0]	n/a	catFR1	1	R1279P
666.075	10.428	672083	COUNTDOWN_START	n/a	n/a	n/a	n/a	-999	4	[0, 0, 0]	n/a	catFR1	1	R1279P
676.503	0.007	682510	COUNTDOWN_END	n/a	n/a	n/a	n/a	-999	4	[0, 0, 0]	n/a	catFR1	1	R1279P
676.51	1.601	682517	ORIENT	n/a	n/a	n/a	n/a	-999	4	[0, 0, 0]	n/a	catFR1	1	R1279P
678.111	2.117	684118	ORIENT_OFF	n/a	n/a	n/a	n/a	-999	4	[0, 0, 0]	n/a	catFR1	1	R1279P
680.228	1.617	686235	WORD	n/a	wordpools/wordpool_categorized_EN.txt	DOOR	Building	1	4	[0, 0, 0]	n/a	catFR1	1	R1279P
681.845	0.933	687852	WORD_OFF	n/a	n/a	DOOR	n/a	1	4	[0, 0, 0]	n/a	catFR1	1	R1279P
682.778	1.617	688785	WORD	n/a	wordpools/wordpool_categorized_EN.txt	WALL	Building	2	4	[0, 0, 0]	n/a	catFR1	1	R1279P
684.395	1.0	690402	WORD_OFF	n/a	n/a	WALL	n/a	2	4	[0, 0, 0]	n/a	catFR1	1	R1279P
685.395	1.618	691402	WORD	n/a	wordpools/wordpool_categorized_EN.txt	COW	FarmAnimals	3	4	[0, 0, 0]	n/a	catFR1	1	R1279P
687.013	0.933	693019	WORD_OFF	n/a	n/a	COW	n/a	3	4	[0, 0, 0]	n/a	catFR1	1	R1279P
687.946	1.617	693952	WORD	n/a	wordpools/wordpool_categorized_EN.txt	HORSE	FarmAnimals	4	4	[0, 0, 0]	n/a	catFR1	1	R1279P
689.563	0.8	695569	WORD_OFF	n/a	n/a	HORSE	n/a	4	4	[0, 0, 0]	n/a	catFR1	1	R1279P
690.363	1.618	696369	WORD	n/a	wordpools/wordpool_categorized_EN.txt	MARIGOLD	Flowers	5	4	[0, 0, 0]	n/a	catFR1	1	R1279P
691.981	0.816	697987	WORD_OFF	n/a	n/a	MARIGOLD	n/a	5	4	[0, 0, 0]	n/a	catFR1	1	R1279P
692.797	1.617	698803	WORD	n/a	wordpools/wordpool_categorized_EN.txt	TULIP	Flowers	6	4	[0, 0, 0]	n/a	catFR1	1	R1279P
694.414	0.95	700420	WORD_OFF	n/a	n/a	TULIP	n/a	6	4	[0, 0, 0]	n/a	catFR1	1	R1279P
695.364	1.618	701370	WORD	n/a	wordpools/wordpool_categorized_EN.txt	GOAT	FarmAnimals	7	4	[0, 0, 0]	n/a	catFR1	1	R1279P
696.982	0.882	702988	WORD_OFF	n/a	n/a	GOAT	n/a	7	4	[0, 0, 0]	n/a	catFR1	1	R1279P
697.864	1.617	703870	WORD	n/a	wordpools/wordpool_categorized_EN.txt	PIG	FarmAnimals	8	4	[0, 0, 0]	n/a	catFR1	1	R1279P
699.481	0.867	705487	WORD_OFF	n/a	n/a	PIG	n/a	8	4	[0, 0, 0]	n/a	catFR1	1	R1279P
700.348	1.617	706354	WORD	n/a	wordpools/wordpool_categorized_EN.txt	FLOOR	Building	9	4	[0, 0, 0]	n/a	catFR1	1	R1279P
701.965	1.0	707971	WORD_OFF	n/a	n/a	FLOOR	n/a	9	4	[0, 0, 0]	n/a	catFR1	1	R1279P
702.965	1.617	708971	WORD	n/a	wordpools/wordpool_categorized_EN.txt	FOUNDATION	Building	10	4	[0, 0, 0]	n/a	catFR1	1	R1279P
704.582	0.867	710587	WORD_OFF	n/a	n/a	FOUNDATION	n/a	10	4	[0, 0, 0]	n/a	catFR1	1	R1279P
705.449	1.618	711454	WORD	n/a	wordpools/wordpool_categorized_EN.txt	ORCHID	Flowers	11	4	[0, 0, 0]	n/a	catFR1	1	R1279P
707.067	0.866	713072	WORD_OFF	n/a	n/a	ORCHID	n/a	11	4	[0, 0, 0]	n/a	catFR1	1	R1279P
707.933	1.617	713938	WORD	n/a	wordpools/wordpool_categorized_EN.txt	ROSE	Flowers	12	4	[0, 0, 0]	n/a	catFR1	1	R1279P
709.55	0.0	715555	ENCODING_END	n/a	n/a	n/a	n/a	-999	4	[0, 0, 0]	n/a	catFR1	1	R1279P
709.55	0.135	715555	WORD_OFF	n/a	n/a	ROSE	n/a	12	4	[0, 0, 0]	n/a	catFR1	1	R1279P
709.685	0.0	715690	DISTRACT_START	n/a	n/a	n/a	n/a	-999	4	[0, 0, 0]	n/a	catFR1	1	R1279P
709.685	0.015	715690	START	n/a	n/a	n/a	n/a	-999	4	[-999, -999, -999]	n/a	catFR1	1	R1279P
709.7	8.585	715705	PROB	8.552	n/a	n/a	n/a	-999	4	[2, 8, 6]	16.0	catFR1	1	R1279P
718.285	4.567	724290	PROB	4.543	n/a	n/a	n/a	-999	4	[1, 4, 9]	14.0	catFR1	1	R1279P
722.852	4.668	728857	PROB	4.639	n/a	n/a	n/a	-999	4	[6, 1, 3]	10.0	catFR1	1	R1279P
727.52	8.884	733524	PROB	8.884	n/a	n/a	n/a	-999	4	[3, 9, 2]	15.0	catFR1	1	R1279P
736.404	0.018	742408	STOP	n/a	n/a	n/a	n/a	-999	4	[-999, -999, -999]	n/a	catFR1	1	R1279P
736.422	0.634	742426	DISTRACT_END	n/a	n/a	n/a	n/a	-999	4	[0, 0, 0]	n/a	catFR1	1	R1279P
737.056	0.517	743060	RETRIEVAL_ORIENT	n/a	n/a	n/a	n/a	-999	4	[0, 0, 0]	n/a	catFR1	1	R1279P
737.573	2.42	743577	REC_START	n/a	n/a	n/a	n/a	-999	4	[0, 0, 0]	n/a	catFR1	1	R1279P
739.993	1.81	745997	REC_WORD	2.42	n/a	FLOOR	Building	9	4	[0, 0, 0]	n/a	catFR1	1	R1279P
741.803	4.12	747807	REC_WORD	4.23	n/a	DOOR	Building	1	4	[0, 0, 0]	n/a	catFR1	1	R1279P
745.923	10.05	751926	REC_WORD	8.35	n/a	FLOOR	Building	9	4	[0, 0, 0]	n/a	catFR1	1	R1279P
755.973	11.609	761976	REC_WORD	18.4	n/a	FOUNDATION	Building	10	4	[0, 0, 0]	n/a	catFR1	1	R1279P
767.582	5.797	773584	REC_END	n/a	n/a	n/a	n/a	-999	4	[0, 0, 0]	n/a	catFR1	1	R1279P
773.379	0.5	779381	TRIAL	n/a	n/a	n/a	n/a	-999	5	[0, 0, 0]	n/a	catFR1	1	R1279P
773.879	10.428	779881	COUNTDOWN_START	n/a	n/a	n/a	n/a	-999	5	[0, 0, 0]	n/a	catFR1	1	R1279P
784.307	0.007	790308	COUNTDOWN_END	n/a	n/a	n/a	n/a	-999	5	[0, 0, 0]	n/a	catFR1	1	R1279P
784.314	1.617	790315	ORIENT	n/a	n/a	n/a	n/a	-999	5	[0, 0, 0]	n/a	catFR1	1	R1279P
785.931	2.0	791932	ORIENT_OFF	n/a	n/a	n/a	n/a	-999	5	[0, 0, 0]	n/a	catFR1	1	R1279P
787.931	1.617	793932	WORD	n/a	wordpools/wordpool_categorized_EN.txt	FLY	Insects	1	5	[0, 0, 0]	n/a	catFR1	1	R1279P
789.548	0.917	795549	WORD_OFF	n/a	n/a	FLY	n/a	1	5	[0, 0, 0]	n/a	catFR1	1	R1279P
790.465	1.618	796466	WORD	n/a	wordpools/wordpool_categorized_EN.txt	SPIDER	Insects	2	5	[0, 0, 0]	n/a	catFR1	1	R1279P
792.083	0.967	798084	WORD_OFF	n/a	n/a	SPIDER	n/a	2	5	[0, 0, 0]	n/a	catFR1	1	R1279P
793.05	1.616	799051	WORD	n/a	wordpools/wordpool_categorized_EN.txt	CHAIR	Furniture	3	5	[0, 0, 0]	n/a	catFR1	1	R1279P
794.666	0.95	800667	WORD_OFF	n/a	n/a	CHAIR	n/a	3	5	[0, 0, 0]	n/a	catFR1	1	R1279P
795.616	1.617	801617	WORD	n/a	wordpools/wordpool_categorized_EN.txt	SHELF	Furniture	4	5	[0, 0, 0]	n/a	catFR1	1	R1279P
797.233	0.801	803234	WORD_OFF	n/a	n/a	SHELF	n/a	4	5	[0, 0, 0]	n/a	catFR1	1	R1279P
798.034	1.616	804035	WORD	n/a	wordpools/wordpool_categorized_EN.txt	DRIZZLE	Weather	5	5	[0, 0, 0]	n/a	catFR1	1	R1279P
799.65	0.85	805651	WORD_OFF	n/a	n/a	DRIZZLE	n/a	5	5	[0, 0, 0]	n/a	catFR1	1	R1279P
800.5	1.617	806500	WORD	n/a	wordpools/wordpool_categorized_EN.txt	HURRICANE	Weather	6	5	[0, 0, 0]	n/a	catFR1	1	R1279P
802.117	0.935	808117	WORD_OFF	n/a	n/a	HURRICANE	n/a	6	5	[0, 0, 0]	n/a	catFR1	1	R1279P
803.052	1.616	809052	WORD	n/a	wordpools/wordpool_categorized_EN.txt	MOSQUITO	Insects	7	5	[0, 0, 0]	n/a	catFR1	1	R1279P
804.668	0.817	810668	WORD_OFF	n/a	n/a	MOSQUITO	n/a	7	5	[0, 0, 0]	n/a	catFR1	1	R1279P
805.485	1.618	811485	WORD	n/a	wordpools/wordpool_categorized_EN.txt	BEETLE	Insects	8	5	[0, 0, 0]	n/a	catFR1	1	R1279P
807.103	0.866	813103	WORD_OFF	n/a	n/a	BEETLE	n/a	8	5	[0, 0, 0]	n/a	catFR1	1	R1279P
807.969	1.616	813969	WORD	n/a	wordpools/wordpool_categorized_EN.txt	NIGHTSTAND	Furniture	9	5	[0, 0, 0]	n/a	catFR1	1	R1279P
809.585	0.784	815585	WORD_OFF	n/a	n/a	NIGHTSTAND	n/a	9	5	[0, 0, 0]	n/a	catFR1	1	R1279P
810.369	1.601	816369	WORD	n/a	wordpools/wordpool_categorized_EN.txt	BOOKCASE	Furniture	10	5	[0, 0, 0]	n/a	catFR1	1	R1279P
811.97	0.883	817970	WORD_OFF	n/a	n/a	BOOKCASE	n/a	10	5	[0, 0, 0]	n/a	catFR1	1	R1279P
812.853	1.617	818853	WORD	n/a	wordpools/wordpool_categorized_EN.txt	TORNADO	Weather	11	5	[0, 0, 0]	n/a	catFR1	1	R1279P
814.47	0.783	820470	WORD_OFF	n/a	n/a	TORNADO	n/a	11	5	[0, 0, 0]	n/a	catFR1	1	R1279P
815.253	1.617	821253	WORD	n/a	wordpools/wordpool_categorized_EN.txt	FOG	Weather	12	5	[0, 0, 0]	n/a	catFR1	1	R1279P
816.87	0.0	822870	ENCODING_END	n/a	n/a	n/a	n/a	-999	5	[0, 0, 0]	n/a	catFR1	1	R1279P
816.87	0.106	822870	WORD_OFF	n/a	n/a	FOG	n/a	12	5	[0, 0, 0]	n/a	catFR1	1	R1279P
816.976	0.0	822976	DISTRACT_START	n/a	n/a	n/a	n/a	-999	5	[0, 0, 0]	n/a	catFR1	1	R1279P
816.976	0.012	822976	START	n/a	n/a	n/a	n/a	-999	5	[-999, -999, -999]	n/a	catFR1	1	R1279P
816.988	6.933	822988	PROB	6.904	n/a	n/a	n/a	-999	5	[9, 9, 7]	25.0	catFR1	1	R1279P
823.921	4.468	829920	PROB	4.435	n/a	n/a	n/a	-999	5	[7, 2, 3]	12.0	catFR1	1	R1279P
828.389	7.001	834388	PROB	6.967	n/a	n/a	n/a	-999	5	[8, 5, 6]	19.0	catFR1	1	R1279P
835.39	5.678	841389	PROB	5.678	n/a	n/a	n/a	-999	5	[5, 4, 1]	10.0	catFR1	1	R1279P
841.068	0.008	847066	STOP	n/a	n/a	n/a	n/a	-999	5	[-999, -999, -999]	n/a	catFR1	1	R1279P
841.076	0.715	847074	DISTRACT_END	n/a	n/a	n/a	n/a	-999	5	[0, 0, 0]	n/a	catFR1	1	R1279P
841.791	0.518	847789	RETRIEVAL_ORIENT	n/a	n/a	n/a	n/a	-999	5	[0, 0, 0]	n/a	catFR1	1	R1279P
842.309	1.224	848307	REC_START	n/a	n/a	n/a	n/a	-999	5	[0, 0, 0]	n/a	catFR1	1	R1279P
843.533	2.035	849531	REC_WORD	1.224	n/a	FLY	Insects	1	5	[0, 0, 0]	n/a	catFR1	1	R1279P
845.568	3.625	851566	REC_WORD	3.259	n/a	BEETLE	Insects	8	5	[0, 0, 0]	n/a	catFR1	1	R1279P
849.193	23.124	855191	REC_WORD	6.884	n/a	SQUID	n/a	-999	5	[0, 0, 0]	n/a	catFR1	1	R1279P
872.317	5.381	878314	REC_END	n/a	n/a	n/a	n/a	-999	5	[0, 0, 0]	n/a	catFR1	1	R1279P
877.698	0.5	883694	TRIAL	n/a	n/a	n/a	n/a	-999	6	[0, 0, 0]	n/a	catFR1	1	R1279P
878.198	10.428	884194	COUNTDOWN_START	n/a	n/a	n/a	n/a	-999	6	[0, 0, 0]	n/a	catFR1	1	R1279P
888.626	0.008	894622	COUNTDOWN_END	n/a	n/a	n/a	n/a	-999	6	[0, 0, 0]	n/a	catFR1	1	R1279P
888.634	1.616	894630	ORIENT	n/a	n/a	n/a	n/a	-999	6	[0, 0, 0]	n/a	catFR1	1	R1279P
890.25	1.818	896246	ORIENT_OFF	n/a	n/a	n/a	n/a	-999	6	[0, 0, 0]	n/a	catFR1	1	R1279P
892.068	1.616	898064	WORD	n/a	wordpools/wordpool_categorized_EN.txt	SHRIMP	OceanAnimals	1	6	[0, 0, 0]	n/a	catFR1	1	R1279P
893.684	0.867	899680	WORD_OFF	n/a	n/a	SHRIMP	n/a	1	6	[0, 0, 0]	n/a	catFR1	1	R1279P
894.551	1.617	900547	WORD	n/a	wordpools/wordpool_categorized_EN.txt	CRAB	OceanAnimals	2	6	[0, 0, 0]	n/a	catFR1	1	R1279P
896.168	0.984	902163	WORD_OFF	n/a	n/a	CRAB	n/a	2	6	[0, 0, 0]	n/a	catFR1	1	R1279P
897.152	1.617	903147	WORD	n/a	wordpools/wordpool_categorized_EN.txt	BUS	Vehicles	3	6	[0, 0, 0]	n/a	catFR1	1	R1279P
898.769	1.0	904764	WORD_OFF	n/a	n/a	BUS	n/a	3	6	[0, 0, 0]	n/a	catFR1	1	R1279P
899.769	1.617	905764	WORD	n/a	wordpools/wordpool_categorized_EN.txt	JEEP	Vehicles	4	6	[0, 0, 0]	n/a	catFR1	1	R1279P
901.386	0.95	907381	WORD_OFF	n/a	n/a	JEEP	n/a	4	6	[0, 0, 0]	n/a	catFR1	1	R1279P
902.336	1.617	908331	WORD	n/a	wordpools/wordpool_categorized_EN.txt	BEER	Beverages	5	6	[0, 0, 0]	n/a	catFR1	1	R1279P
903.953	0.867	909948	WORD_OFF	n/a	n/a	BEER	n/a	5	6	[0, 0, 0]	n/a	catFR1	1	R1279P
904.82	1.617	910815	WORD	n/a	wordpools/wordpool_categorized_EN.txt	RUM	Beverages	6	6	[0, 0, 0]	n/a	catFR1	1	R1279P
906.437	0.883	912432	WORD_OFF	n/a	n/a	RUM	n/a	6	6	[0, 0, 0]	n/a	catFR1	1	R1279P
907.32	1.617	913315	WORD	n/a	wordpools/wordpool_categorized_EN.txt	LOBSTER	OceanAnimals	7	6	[0, 0, 0]	n/a	catFR1	1	R1279P
908.937	0.817	914932	WORD_OFF	n/a	n/a	LOBSTER	n/a	7	6	[0, 0, 0]	n/a	catFR1	1	R1279P
909.754	1.617	915749	WORD	n/a	wordpools/wordpool_categorized_EN.txt	FISH	OceanAnimals	8	6	[0, 0, 0]	n/a	catFR1	1	R1279P
911.371	1.0	917366	WORD_OFF	n/a	n/a	FISH	n/a	8	6	[0, 0, 0]	n/a	catFR1	1	R1279P
912.371	1.601	918366	WORD	n/a	wordpools/wordpool_categorized_EN.txt	CAR	Vehicles	9	6	[0, 0, 0]	n/a	catFR1	1	R1279P
913.972	1.001	919967	WORD_OFF	n/a	n/a	CAR	n/a	9	6	[0, 0, 0]	n/a	catFR1	1	R1279P
914.973	1.616	920967	WORD	n/a	wordpools/wordpool_categorized_EN.txt	PLANE	Vehicles	10	6	[0, 0, 0]	n/a	catFR1	1	R1279P
916.589	0.767	922583	WORD_OFF	n/a	n/a	PLANE	n/a	10	6	[0, 0, 0]	n/a	catFR1	1	R1279P
917.356	1.617	923350	WORD	n/a	wordpools/wordpool_categorized_EN.txt	COLA	Beverages	11	6	[0, 0, 0]	n/a	catFR1	1	R1279P
918.973	0.766	924967	WORD_OFF	n/a	n/a	COLA	n/a	11	6	[0, 0, 0]	n/a	catFR1	1	R1279P
919.739	1.617	925733	WORD	n/a	wordpools/wordpool_categorized_EN.txt	LEMONADE	Beverages	12	6	[0, 0, 0]	n/a	catFR1	1	R1279P
921.356	0.0	927350	ENCODING_END	n/a	n/a	n/a	n/a	-999	6	[0, 0, 0]	n/a	catFR1	1	R1279P
921.356	0.149	927350	WORD_OFF	n/a	n/a	LEMONADE	n/a	12	6	[0, 0, 0]	n/a	catFR1	1	R1279P
921.505	0.0	927499	DISTRACT_START	n/a	n/a	n/a	n/a	-999	6	[0, 0, 0]	n/a	catFR1	1	R1279P
921.505	0.018	927499	START	n/a	n/a	n/a	n/a	-999	6	[-999, -999, -999]	n/a	catFR1	1	R1279P
921.523	7.135	927517	PROB	7.105	n/a	n/a	n/a	-999	6	[5, 2, 6]	13.0	catFR1	1	R1279P
928.658	4.267	934652	PROB	4.243	n/a	n/a	n/a	-999	6	[8, 1, 8]	17.0	catFR1	1	R1279P
932.925	4.251	938919	PROB	4.214	n/a	n/a	n/a	-999	6	[3, 7, 7]	17.0	catFR1	1	R1279P
937.176	4.403	943169	PROB	4.403	n/a	n/a	n/a	-999	6	[5, 6, 3]	15.0	catFR1	1	R1279P
941.579	0.015	947572	STOP	n/a	n/a	n/a	n/a	-999	6	[-999, -999, -999]	n/a	catFR1	1	R1279P
941.594	0.533	947587	DISTRACT_END	n/a	n/a	n/a	n/a	-999	6	[0, 0, 0]	n/a	catFR1	1	R1279P
942.127	0.518	948120	RETRIEVAL_ORIENT	n/a	n/a	n/a	n/a	-999	6	[0, 0, 0]	n/a	catFR1	1	R1279P
942.645	1.029	948638	REC_START	n/a	n/a	n/a	n/a	-999	6	[0, 0, 0]	n/a	catFR1	1	R1279P
943.674	2.7	949667	REC_WORD	1.029	n/a	SHRIMP	OceanAnimals	1	6	[0, 0, 0]	n/a	catFR1	1	R1279P
946.374	3.83	952367	REC_WORD	3.729	n/a	CRAB	OceanAnimals	2	6	[0, 0, 0]	n/a	catFR1	1	R1279P
950.204	22.451	956197	REC_WORD	7.559	n/a	LOBSTER	OceanAnimals	7	6	[0, 0, 0]	n/a	catFR1	1	R1279P
972.655	5.479	978646	REC_END	n/a	n/a	n/a	n/a	-999	6	[0, 0, 0]	n/a	catFR1	1	R1279P
978.134	0.5	984125	TRIAL	n/a	n/a	n/a	n/a	-999	7	[0, 0, 0]	n/a	catFR1	1	R1279P
978.634	10.428	984625	COUNTDOWN_START	n/a	n/a	n/a	n/a	-999	7	[0, 0, 0]	n/a	catFR1	1	R1279P
989.062	0.008	995053	COUNTDOWN_END	n/a	n/a	n/a	n/a	-999	7	[0, 0, 0]	n/a	catFR1	1	R1279P
989.07	1.616	995061	ORIENT	n/a	n/a	n/a	n/a	-999	7	[0, 0, 0]	n/a	catFR1	1	R1279P
990.686	2.267	996676	ORIENT_OFF	n/a	n/a	n/a	n/a	-999	7	[0, 0, 0]	n/a	catFR1	1	R1279P
992.953	1.617	998943	WORD	n/a	wordpools/wordpool_categorized_EN.txt	VIOLIN	Instruments	1	7	[0, 0, 0]	n/a	catFR1	1	R1279P
994.57	0.784	1000560	WORD_OFF	n/a	n/a	VIOLIN	n/a	1	7	[0, 0, 0]	n/a	catFR1	1	R1279P
995.354	1.617	1001344	WORD	n/a	wordpools/wordpool_categorized_EN.txt	TRUMPET	Instruments	2	7	[0, 0, 0]	n/a	catFR1	1	R1279P
996.971	1.017	1002961	WORD_OFF	n/a	n/a	TRUMPET	n/a	2	7	[0, 0, 0]	n/a	catFR1	1	R1279P
997.988	1.616	1003978	WORD	n/a	wordpools/wordpool_categorized_EN.txt	COMPUTER	Electronics	3	7	[0, 0, 0]	n/a	catFR1	1	R1279P
999.604	0.917	1005594	WORD_OFF	n/a	n/a	COMPUTER	n/a	3	7	[0, 0, 0]	n/a	catFR1	1	R1279P
1000.521	1.617	1006511	WORD	n/a	wordpools/wordpool_categorized_EN.txt	MICROWAVE	Electronics	4	7	[0, 0, 0]	n/a	catFR1	1	R1279P
1002.138	0.901	1008128	WORD_OFF	n/a	n/a	MICROWAVE	n/a	4	7	[0, 0, 0]	n/a	catFR1	1	R1279P
1003.039	1.616	1009029	WORD	n/a	wordpools/wordpool_categorized_EN.txt	LILAC	Flowers	5	7	[0, 0, 0]	n/a	catFR1	1	R1279P
1004.655	0.9	1010645	WORD_OFF	n/a	n/a	LILAC	n/a	5	7	[0, 0, 0]	n/a	catFR1	1	R1279P
1005.555	1.617	1011545	WORD	n/a	wordpools/wordpool_categorized_EN.txt	SUNFLOWER	Flowers	6	7	[0, 0, 0]	n/a	catFR1	1	R1279P
1007.172	0.818	1013162	WORD_OFF	n/a	n/a	SUNFLOWER	n/a	6	7	[0, 0, 0]	n/a	catFR1	1	R1279P
1007.99	1.616	1013980	WORD	n/a	wordpools/wordpool_categorized_EN.txt	TELEVISION	Electronics	7	7	[0, 0, 0]	n/a	catFR1	1	R1279P
1009.606	0.95	1015595	WORD_OFF	n/a	n/a	TELEVISION	n/a	7	7	[0, 0, 0]	n/a	catFR1	1	R1279P
1010.556	1.617	1016545	WORD	n/a	wordpools/wordpool_categorized_EN.txt	SPEAKER	Electronics	8	7	[0, 0, 0]	n/a	catFR1	1	R1279P
1012.173	0.918	1018162	WORD_OFF	n/a	n/a	SPEAKER	n/a	8	7	[0, 0, 0]	n/a	catFR1	1	R1279P
1013.091	1.616	1019080	WORD	n/a	wordpools/wordpool_categorized_EN.txt	FLUTE	Instruments	9	7	[0, 0, 0]	n/a	catFR1	1	R1279P
1014.707	1.017	1020696	WORD_OFF	n/a	n/a	FLUTE	n/a	9	7	[0, 0, 0]	n/a	catFR1	1	R1279P
1015.724	1.617	1021713	WORD	n/a	wordpools/wordpool_categorized_EN.txt	TUBA	Instruments	10	7	[0, 0, 0]	n/a	catFR1	1	R1279P
1017.341	0.867	1023330	WORD_OFF	n/a	n/a	TUBA	n/a	10	7	[0, 0, 0]	n/a	catFR1	1	R1279P
1018.208	1.617	1024197	WORD	n/a	wordpools/wordpool_categorized_EN.txt	PETUNIA	Flowers	11	7	[0, 0, 0]	n/a	catFR1	1	R1279P
1019.825	0.95	1025814	WORD_OFF	n/a	n/a	PETUNIA	n/a	11	7	[0, 0, 0]	n/a	catFR1	1	R1279P
1020.775	1.617	1026764	WORD	n/a	wordpools/wordpool_categorized_EN.txt	DAISY	Flowers	12	7	[0, 0, 0]	n/a	catFR1	1	R1279P
1022.392	0.0	1028381	ENCODING_END	n/a	n/a	n/a	n/a	-999	7	[0, 0, 0]	n/a	catFR1	1	R1279P
1022.392	0.133	1028381	WORD_OFF	n/a	n/a	DAISY	n/a	12	7	[0, 0, 0]	n/a	catFR1	1	R1279P
1022.525	0.0	1028514	DISTRACT_START	n/a	n/a	n/a	n/a	-999	7	[0, 0, 0]	n/a	catFR1	1	R1279P
1022.525	0.017	1028514	START	n/a	n/a	n/a	n/a	-999	7	[-999, -999, -999]	n/a	catFR1	1	R1279P
1022.542	6.318	1028531	PROB	6.294	n/a	n/a	n/a	-999	7	[6, 8, 6]	20.0	catFR1	1	R1279P
1028.86	4.001	1034848	PROB	3.975	n/a	n/a	n/a	-999	7	[5, 2, 4]	11.0	catFR1	1	R1279P
1032.861	4.667	1038849	PROB	4.639	n/a	n/a	n/a	-999	7	[5, 8, 4]	17.0	catFR1	1	R1279P
1037.528	3.951	1043516	PROB	3.924	n/a	n/a	n/a	-999	7	[8, 1, 3]	12.0	catFR1	1	R1279P
1041.479	7.766	1047467	PROB	7.766	n/a	n/a	n/a	-999	7	[9, 9, 7]	23.0	catFR1	1	R1279P
1049.245	0.019	1055232	STOP	n/a	n/a	n/a	n/a	-999	7	[-999, -999, -999]	n/a	catFR1	1	R1279P
1049.264	0.633	1055251	DISTRACT_END	n/a	n/a	n/a	n/a	-999	7	[0, 0, 0]	n/a	catFR1	1	R1279P
1049.897	0.518	1055884	RETRIEVAL_ORIENT	n/a	n/a	n/a	n/a	-999	7	[0, 0, 0]	n/a	catFR1	1	R1279P
1050.415	1.729	1056402	REC_START	n/a	n/a	n/a	n/a	-999	7	[0, 0, 0]	n/a	catFR1	1	R1279P
1052.144	3.545	1058131	REC_WORD	1.729	n/a	TRUMPET	Instruments	2	7	[0, 0, 0]	n/a	catFR1	1	R1279P
1055.689	24.737	1061676	REC_WORD	5.274	n/a	VIOLIN	Instruments	1	7	[0, 0, 0]	n/a	catFR1	1	R1279P
1080.426	5.278	1086412	REC_END	n/a	n/a	n/a	n/a	-999	7	[0, 0, 0]	n/a	catFR1	1	R1279P
1085.704	0.5	1091690	TRIAL	n/a	n/a	n/a	n/a	-999	8	[0, 0, 0]	n/a	catFR1	1	R1279P
1086.204	10.428	1092189	COUNTDOWN_START	n/a	n/a	n/a	n/a	-999	8	[0, 0, 0]	n/a	catFR1	1	R1279P
1096.632	0.007	1102617	COUNTDOWN_END	n/a	n/a	n/a	n/a	-999	8	[0, 0, 0]	n/a	catFR1	1	R1279P
1096.639	1.617	1102624	ORIENT	n/a	n/a	n/a	n/a	-999	8	[0, 0, 0]	n/a	catFR1	1	R1279P
1098.256	2.15	1104241	ORIENT_OFF	n/a	n/a	n/a	n/a	-999	8	[0, 0, 0]	n/a	catFR1	1	R1279P
1100.406	1.602	1106391	WORD	n/a	wordpools/wordpool_categorized_EN.txt	STAIRS	Building	1	8	[0, 0, 0]	n/a	catFR1	1	R1279P
1102.008	0.866	1107993	WORD_OFF	n/a	n/a	STAIRS	n/a	1	8	[0, 0, 0]	n/a	catFR1	1	R1279P
1102.874	1.617	1108859	WORD	n/a	wordpools/wordpool_categorized_EN.txt	CEILING	Building	2	8	[0, 0, 0]	n/a	catFR1	1	R1279P
1104.491	0.933	1110476	WORD_OFF	n/a	n/a	CEILING	n/a	2	8	[0, 0, 0]	n/a	catFR1	1	R1279P
1105.424	1.618	1111408	WORD	n/a	wordpools/wordpool_categorized_EN.txt	BED	Furniture	3	8	[0, 0, 0]	n/a	catFR1	1	R1279P
1107.042	0.899	1113026	WORD_OFF	n/a	n/a	BED	n/a	3	8	[0, 0, 0]	n/a	catFR1	1	R1279P
1107.941	1.617	1113925	WORD	n/a	wordpools/wordpool_categorized_EN.txt	TABLE	Furniture	4	8	[0, 0, 0]	n/a	catFR1	1	R1279P
1109.558	0.784	1115542	WORD_OFF	n/a	n/a	TABLE	n/a	4	8	[0, 0, 0]	n/a	catFR1	1	R1279P
1110.342	1.617	1116326	WORD	n/a	wordpools/wordpool_categorized_EN.txt	MONKEY	Zoo	5	8	[0, 0, 0]	n/a	catFR1	1	R1279P
1111.959	0.883	1117943	WORD_OFF	n/a	n/a	MONKEY	n/a	5	8	[0, 0, 0]	n/a	catFR1	1	R1279P
1112.842	1.617	1118826	WORD	n/a	wordpools/wordpool_categorized_EN.txt	PANDA	Zoo	6	8	[0, 0, 0]	n/a	catFR1	1	R1279P
1114.459	0.934	1120443	WORD_OFF	n/a	n/a	PANDA	n/a	6	8	[0, 0, 0]	n/a	catFR1	1	R1279P
1115.393	1.618	1121377	WORD	n/a	wordpools/wordpool_categorized_EN.txt	ROOM	Building	7	8	[0, 0, 0]	n/a	catFR1	1	R1279P
1117.011	0.983	1122995	WORD_OFF	n/a	n/a	ROOM	n/a	7	8	[0, 0, 0]	n/a	catFR1	1	R1279P
1117.994	1.616	1123978	WORD	n/a	wordpools/wordpool_categorized_EN.txt	WINDOW	Building	8	8	[0, 0, 0]	n/a	catFR1	1	R1279P
1119.61	1.017	1125594	WORD_OFF	n/a	n/a	WINDOW	n/a	8	8	[0, 0, 0]	n/a	catFR1	1	R1279P
1120.627	1.617	1126611	WORD	n/a	wordpools/wordpool_categorized_EN.txt	DRESSER	Furniture	9	8	[0, 0, 0]	n/a	catFR1	1	R1279P
1122.244	0.883	1128228	WORD_OFF	n/a	n/a	DRESSER	n/a	9	8	[0, 0, 0]	n/a	catFR1	1	R1279P
1123.127	1.617	1129111	WORD	n/a	wordpools/wordpool_categorized_EN.txt	COUCH	Furniture	10	8	[0, 0, 0]	n/a	catFR1	1	R1279P
1124.744	0.917	1130727	WORD_OFF	n/a	n/a	COUCH	n/a	10	8	[0, 0, 0]	n/a	catFR1	1	R1279P
1125.661	1.617	1131644	WORD	n/a	wordpools/wordpool_categorized_EN.txt	ELEPHANT	Zoo	11	8	[0, 0, 0]	n/a	catFR1	1	R1279P
1127.278	0.917	1133261	WORD_OFF	n/a	n/a	ELEPHANT	n/a	11	8	[0, 0, 0]	n/a	catFR1	1	R1279P
1128.195	1.617	1134178	WORD	n/a	wordpools/wordpool_categorized_EN.txt	LION	Zoo	12	8	[0, 0, 0]	n/a	catFR1	1	R1279P
1129.812	0.0	1135795	ENCODING_END	n/a	n/a	n/a	n/a	-999	8	[0, 0, 0]	n/a	catFR1	1	R1279P
1129.812	0.107	1135795	WORD_OFF	n/a	n/a	LION	n/a	12	8	[0, 0, 0]	n/a	catFR1	1	R1279P
1129.919	0.0	1135902	DISTRACT_START	n/a	n/a	n/a	n/a	-999	8	[0, 0, 0]	n/a	catFR1	1	R1279P
1129.919	0.01	1135902	START	n/a	n/a	n/a	n/a	-999	8	[-999, -999, -999]	n/a	catFR1	1	R1279P
1129.929	5.384	1135912	PROB	5.355	n/a	n/a	n/a	-999	8	[8, 1, 1]	10.0	catFR1	1	R1279P
1135.313	4.401	1141296	PROB	4.372	n/a	n/a	n/a	-999	8	[4, 5, 3]	12.0	catFR1	1	R1279P
1139.714	4.302	1145697	PROB	4.276	n/a	n/a	n/a	-999	8	[1, 9, 4]	14.0	catFR1	1	R1279P
1144.016	4.55	1149998	PROB	4.515	n/a	n/a	n/a	-999	8	[3, 2, 5]	10.0	catFR1	1	R1279P
1148.566	4.854	1154548	PROB	4.854	n/a	n/a	n/a	-999	8	[8, 9, 2]	19.0	catFR1	1	R1279P
1153.42	0.013	1159402	STOP	n/a	n/a	n/a	n/a	-999	8	[-999, -999, -999]	n/a	catFR1	1	R1279P
1153.433	0.517	1159415	DISTRACT_END	n/a	n/a	n/a	n/a	-999	8	[0, 0, 0]	n/a	catFR1	1	R1279P
1153.95	0.518	1159932	RETRIEVAL_ORIENT	n/a	n/a	n/a	n/a	-999	8	[0, 0, 0]	n/a	catFR1	1	R1279P
1154.468	2.364	1160450	REC_START	n/a	n/a	n/a	n/a	-999	8	[0, 0, 0]	n/a	catFR1	1	R1279P
1156.832	1.685	1162814	REC_WORD	2.364	n/a	MONKEY	Zoo	5	8	[0, 0, 0]	n/a	catFR1	1	R1279P
1158.517	1.87	1164499	REC_WORD	4.049	n/a	ELEPHANT	Zoo	11	8	[0, 0, 0]	n/a	catFR1	1	R1279P
1160.387	24.092	1166369	REC_WORD	5.919	n/a	BEAR	n/a	-999	8	[0, 0, 0]	n/a	catFR1	1	R1279P
1184.479	5.128	1190459	REC_END	n/a	n/a	n/a	n/a	-999	8	[0, 0, 0]	n/a	catFR1	1	R1279P
1189.607	0.5	1195587	TRIAL	n/a	n/a	n/a	n/a	-999	9	[0, 0, 0]	n/a	catFR1	1	R1279P
1190.107	10.428	1196087	COUNTDOWN_START	n/a	n/a	n/a	n/a	-999	9	[0, 0, 0]	n/a	catFR1	1	R1279P
1200.535	0.007	1206514	COUNTDOWN_END	n/a	n/a	n/a	n/a	-999	9	[0, 0, 0]	n/a	catFR1	1	R1279P
1200.542	1.617	1206521	ORIENT	n/a	n/a	n/a	n/a	-999	9	[0, 0, 0]	n/a	catFR1	1	R1279P
1202.159	1.835	1208138	ORIENT_OFF	n/a	n/a	n/a	n/a	-999	9	[0, 0, 0]	n/a	catFR1	1	R1279P
1203.994	1.616	1209973	WORD	n/a	wordpools/wordpool_categorized_EN.txt	WILLOW	Trees	1	9	[0, 0, 0]	n/a	catFR1	1	R1279P
1205.61	0.783	1211589	WORD_OFF	n/a	n/a	WILLOW	n/a	1	9	[0, 0, 0]	n/a	catFR1	1	R1279P
1206.393	1.601	1212372	WORD	n/a	wordpools/wordpool_categorized_EN.txt	CYPRESS	Trees	2	9	[0, 0, 0]	n/a	catFR1	1	R1279P
1207.994	0.916	1213973	WORD_OFF	n/a	n/a	CYPRESS	n/a	2	9	[0, 0, 0]	n/a	catFR1	1	R1279P
1208.91	1.617	1214889	WORD	n/a	wordpools/wordpool_categorized_EN.txt	LIGHTNING	Weather	3	9	[0, 0, 0]	n/a	catFR1	1	R1279P
1210.527	0.984	1216506	WORD_OFF	n/a	n/a	LIGHTNING	n/a	3	9	[0, 0, 0]	n/a	catFR1	1	R1279P
1211.511	1.601	1217490	WORD	n/a	wordpools/wordpool_categorized_EN.txt	THUNDERSTORM	Weather	4	9	[0, 0, 0]	n/a	catFR1	1	R1279P
1213.112	0.816	1219091	WORD_OFF	n/a	n/a	THUNDERSTORM	n/a	4	9	[0, 0, 0]	n/a	catFR1	1	R1279P
1213.928	1.617	1219907	WORD	n/a	wordpools/wordpool_categorized_EN.txt	DRESS	Clothing	5	9	[0, 0, 0]	n/a	catFR1	1	R1279P
1215.545	0.917	1221524	WORD_OFF	n/a	n/a	DRESS	n/a	5	9	[0, 0, 0]	n/a	catFR1	1	R1279P
1216.462	1.618	1222441	WORD	n/a	wordpools/wordpool_categorized_EN.txt	SKIRT	Clothing	6	9	[0, 0, 0]	n/a	catFR1	1	R1279P
1218.08	0.799	1224059	WORD_OFF	n/a	n/a	SKIRT	n/a	6	9	[0, 0, 0]	n/a	catFR1	1	R1279P
1218.879	1.617	1224858	WORD	n/a	wordpools/wordpool_categorized_EN.txt	CLOUD	Weather	7	9	[0, 0, 0]	n/a	catFR1	1	R1279P
1220.496	0.817	1226474	WORD_OFF	n/a	n/a	CLOUD	n/a	7	9	[0, 0, 0]	n/a	catFR1	1	R1279P
1221.313	1.617	1227291	WORD	n/a	wordpools/wordpool_categorized_EN.txt	SNOW	Weather	8	9	[0, 0, 0]	n/a	catFR1	1	R1279P
1222.93	0.783	1228908	WORD_OFF	n/a	n/a	SNOW	n/a	8	9	[0, 0, 0]	n/a	catFR1	1	R1279P
1223.713	1.617	1229691	WORD	n/a	wordpools/wordpool_categorized_EN.txt	HICKORY	Trees	9	9	[0, 0, 0]	n/a	catFR1	1	R1279P
1225.33	0.984	1231308	WORD_OFF	n/a	n/a	HICKORY	n/a	9	9	[0, 0, 0]	n/a	catFR1	1	R1279P
1226.314	1.617	1232292	WORD	n/a	wordpools/wordpool_categorized_EN.txt	BIRCH	Trees	10	9	[0, 0, 0]	n/a	catFR1	1	R1279P
1227.931	0.916	1233909	WORD_OFF	n/a	n/a	BIRCH	n/a	10	9	[0, 0, 0]	n/a	catFR1	1	R1279P
1228.847	1.617	1234825	WORD	n/a	wordpools/wordpool_categorized_EN.txt	SOCKS	Clothing	11	9	[0, 0, 0]	n/a	catFR1	1	R1279P
1230.464	0.784	1236442	WORD_OFF	n/a	n/a	SOCKS	n/a	11	9	[0, 0, 0]	n/a	catFR1	1	R1279P
1231.248	1.617	1237226	WORD	n/a	wordpools/wordpool_categorized_EN.txt	JACKET	Clothing	12	9	[0, 0, 0]	n/a	catFR1	1	R1279P
1232.865	0.0	1238843	WORD_OFF	n/a	n/a	JACKET	n/a	12	9	[0, 0, 0]	n/a	catFR1	1	R1279P
1232.865	0.136	1238843	ENCODING_END	n/a	n/a	n/a	n/a	-999	9	[0, 0, 0]	n/a	catFR1	1	R1279P
1233.001	0.0	1238979	DISTRACT_START	n/a	n/a	n/a	n/a	-999	9	[0, 0, 0]	n/a	catFR1	1	R1279P
1233.001	0.015	1238979	START	n/a	n/a	n/a	n/a	-999	9	[-999, -999, -999]	n/a	catFR1	1	R1279P
1233.016	6.15	1238994	PROB	6.116	n/a	n/a	n/a	-999	9	[1, 6, 9]	16.0	catFR1	1	R1279P
1239.166	3.101	1245143	PROB	3.071	n/a	n/a	n/a	-999	9	[5, 2, 1]	8.0	catFR1	1	R1279P
1242.267	6.134	1248244	PROB	6.105	n/a	n/a	n/a	-999	9	[3, 9, 5]	17.0	catFR1	1	R1279P
1248.401	6.716	1254378	PROB	6.716	n/a	n/a	n/a	-999	9	[5, 8, 2]	15.0	catFR1	1	R1279P
1255.117	0.019	1261094	STOP	n/a	n/a	n/a	n/a	-999	9	[-999, -999, -999]	n/a	catFR1	1	R1279P
1255.136	0.583	1261113	DISTRACT_END	n/a	n/a	n/a	n/a	-999	9	[0, 0, 0]	n/a	catFR1	1	R1279P
1255.719	0.517	1261696	RETRIEVAL_ORIENT	n/a	n/a	n/a	n/a	-999	9	[0, 0, 0]	n/a	catFR1	1	R1279P
1256.236	2.059	1262213	REC_START	n/a	n/a	n/a	n/a	-999	9	[0, 0, 0]	n/a	catFR1	1	R1279P
1258.295	1.695	1264271	REC_WORD	2.059	n/a	DRESS	Clothing	5	9	[0, 0, 0]	n/a	catFR1	1	R1279P
1259.99	5.495	1265966	REC_WORD	3.754	n/a	THUNDERSTORM	Weather	4	9	[0, 0, 0]	n/a	catFR1	1	R1279P
1265.485	20.763	1271461	REC_WORD	9.249	n/a	CLOUD	Weather	7	9	[0, 0, 0]	n/a	catFR1	1	R1279P
1286.248	5.178	1292223	REC_END	n/a	n/a	n/a	n/a	-999	9	[0, 0, 0]	n/a	catFR1	1	R1279P
1291.426	0.5	1297401	TRIAL	n/a	n/a	n/a	n/a	-999	10	[0, 0, 0]	n/a	catFR1	1	R1279P
1291.926	10.428	1297901	COUNTDOWN_START	n/a	n/a	n/a	n/a	-999	10	[0, 0, 0]	n/a	catFR1	1	R1279P
1302.354	0.007	1308328	COUNTDOWN_END	n/a	n/a	n/a	n/a	-999	10	[0, 0, 0]	n/a	catFR1	1	R1279P
1302.361	1.618	1308335	ORIENT	n/a	n/a	n/a	n/a	-999	10	[0, 0, 0]	n/a	catFR1	1	R1279P
1303.979	2.216	1309953	ORIENT_OFF	n/a	n/a	n/a	n/a	-999	10	[0, 0, 0]	n/a	catFR1	1	R1279P
1306.195	1.617	1312169	WORD	n/a	wordpools/wordpool_categorized_EN.txt	MILK	Beverages	1	10	[0, 0, 0]	n/a	catFR1	1	R1279P
1307.812	0.767	1313786	WORD_OFF	n/a	n/a	MILK	n/a	1	10	[0, 0, 0]	n/a	catFR1	1	R1279P
1308.579	1.617	1314553	WORD	n/a	wordpools/wordpool_categorized_EN.txt	WATER	Beverages	2	10	[0, 0, 0]	n/a	catFR1	1	R1279P
1310.196	0.851	1316170	WORD_OFF	n/a	n/a	WATER	n/a	2	10	[0, 0, 0]	n/a	catFR1	1	R1279P
1311.047	1.616	1317021	WORD	n/a	wordpools/wordpool_categorized_EN.txt	RADIO	Electronics	3	10	[0, 0, 0]	n/a	catFR1	1	R1279P
1312.663	0.834	1318637	WORD_OFF	n/a	n/a	RADIO	n/a	3	10	[0, 0, 0]	n/a	catFR1	1	R1279P
1313.497	1.618	1319471	WORD	n/a	wordpools/wordpool_categorized_EN.txt	CALCULATOR	Electronics	4	10	[0, 0, 0]	n/a	catFR1	1	R1279P
1315.115	0.9	1321088	WORD_OFF	n/a	n/a	CALCULATOR	n/a	4	10	[0, 0, 0]	n/a	catFR1	1	R1279P
1316.015	1.616	1321988	WORD	n/a	wordpools/wordpool_categorized_EN.txt	CABBAGE	Vegetables	5	10	[0, 0, 0]	n/a	catFR1	1	R1279P
1317.631	0.833	1323604	WORD_OFF	n/a	n/a	CABBAGE	n/a	5	10	[0, 0, 0]	n/a	catFR1	1	R1279P
1318.464	1.618	1324437	WORD	n/a	wordpools/wordpool_categorized_EN.txt	BROCCOLI	Vegetables	6	10	[0, 0, 0]	n/a	catFR1	1	R1279P
1320.082	0.849	1326055	WORD_OFF	n/a	n/a	BROCCOLI	n/a	6	10	[0, 0, 0]	n/a	catFR1	1	R1279P
1320.931	1.617	1326904	WORD	n/a	wordpools/wordpool_categorized_EN.txt	CIDER	Beverages	7	10	[0, 0, 0]	n/a	catFR1	1	R1279P
1322.548	0.9	1328521	WORD_OFF	n/a	n/a	CIDER	n/a	7	10	[0, 0, 0]	n/a	catFR1	1	R1279P
1323.448	1.618	1329421	WORD	n/a	wordpools/wordpool_categorized_EN.txt	COFFEE	Beverages	8	10	[0, 0, 0]	n/a	catFR1	1	R1279P
1325.066	0.967	1331039	WORD_OFF	n/a	n/a	COFFEE	n/a	8	10	[0, 0, 0]	n/a	catFR1	1	R1279P
1326.033	1.616	1332006	WORD	n/a	wordpools/wordpool_categorized_EN.txt	HEADPHONES	Electronics	9	10	[0, 0, 0]	n/a	catFR1	1	R1279P
1327.649	0.783	1333622	WORD_OFF	n/a	n/a	HEADPHONES	n/a	9	10	[0, 0, 0]	n/a	catFR1	1	R1279P
1328.432	1.602	1334405	WORD	n/a	wordpools/wordpool_categorized_EN.txt	SCANNER	Electronics	10	10	[0, 0, 0]	n/a	catFR1	1	R1279P
1330.034	0.849	1336007	WORD_OFF	n/a	n/a	SCANNER	n/a	10	10	[0, 0, 0]	n/a	catFR1	1	R1279P
1330.883	1.617	1336856	WORD	n/a	wordpools/wordpool_categorized_EN.txt	CUCUMBER	Vegetables	11	10	[0, 0, 0]	n/a	catFR1	1	R1279P
1332.5	0.967	1338473	WORD_OFF	n/a	n/a	CUCUMBER	n/a	11	10	[0, 0, 0]	n/a	catFR1	1	R1279P
1333.467	1.618	1339440	WORD	n/a	wordpools/wordpool_categorized_EN.txt	CORN	Vegetables	12	10	[0, 0, 0]	n/a	catFR1	1	R1279P
1335.085	0.0	1341057	ENCODING_END	n/a	n/a	n/a	n/a	-999	10	[0, 0, 0]	n/a	catFR1	1	R1279P
1335.085	0.107	1341057	WORD_OFF	n/a	n/a	CORN	n/a	12	10	[0, 0, 0]	n/a	catFR1	1	R1279P
1335.192	0.0	1341164	DISTRACT_START	n/a	n/a	n/a	n/a	-999	10	[0, 0, 0]	n/a	catFR1	1	R1279P
1335.192	0.009	1341164	START	n/a	n/a	n/a	n/a	-999	10	[-999, -999, -999]	n/a	catFR1	1	R1279P
1335.201	3.967	1341173	PROB	3.94	n/a	n/a	n/a	-999	10	[3, 2, 1]	6.0	catFR1	1	R1279P
1339.168	4.151	1345140	PROB	4.125	n/a	n/a	n/a	-999	10	[5, 6, 6]	17.0	catFR1	1	R1279P
1343.319	4.634	1349291	PROB	4.597	n/a	n/a	n/a	-999	10	[1, 4, 8]	13.0	catFR1	1	R1279P
1347.953	4.534	1353925	PROB	4.508	n/a	n/a	n/a	-999	10	[7, 6, 1]	14.0	catFR1	1	R1279P
1352.487	3.732	1358459	PROB	3.732	n/a	n/a	n/a	-999	10	[8, 3, 1]	12.0	catFR1	1	R1279P
1356.219	0.019	1362190	STOP	n/a	n/a	n/a	n/a	-999	10	[-999, -999, -999]	n/a	catFR1	1	R1279P
1356.238	0.633	1362209	DISTRACT_END	n/a	n/a	n/a	n/a	-999	10	[0, 0, 0]	n/a	catFR1	1	R1279P
1356.871	0.518	1362842	RETRIEVAL_ORIENT	n/a	n/a	n/a	n/a	-999	10	[0, 0, 0]	n/a	catFR1	1	R1279P
1357.389	1.624	1363360	REC_START	n/a	n/a	n/a	n/a	-999	10	[0, 0, 0]	n/a	catFR1	1	R1279P
1359.013	2.11	1364984	REC_WORD	1.624	n/a	MILK	Beverages	1	10	[0, 0, 0]	n/a	catFR1	1	R1279P
1361.123	2.535	1367094	REC_WORD	3.734	n/a	CABBAGE	Vegetables	5	10	[0, 0, 0]	n/a	catFR1	1	R1279P
1363.658	23.742	1369629	REC_WORD	6.269	n/a	WATER	Beverages	2	10	[0, 0, 0]	n/a	catFR1	1	R1279P
1387.4	5.511	1393370	REC_END	n/a	n/a	n/a	n/a	-999	10	[0, 0, 0]	n/a	catFR1	1	R1279P
1392.911	0.5	1398880	TRIAL	n/a	n/a	n/a	n/a	-999	11	[0, 0, 0]	n/a	catFR1	1	R1279P
1393.411	10.428	1399380	COUNTDOWN_START	n/a	n/a	n/a	n/a	-999	11	[0, 0, 0]	n/a	catFR1	1	R1279P
1403.839	0.008	1409808	COUNTDOWN_END	n/a	n/a	n/a	n/a	-999	11	[0, 0, 0]	n/a	catFR1	1	R1279P
1403.847	1.617	1409816	ORIENT	n/a	n/a	n/a	n/a	-999	11	[0, 0, 0]	n/a	catFR1	1	R1279P
1405.464	2.15	1411433	ORIENT_OFF	n/a	n/a	n/a	n/a	-999	11	[0, 0, 0]	n/a	catFR1	1	R1279P
1407.614	1.617	1413583	WORD	n/a	wordpools/wordpool_categorized_EN.txt	RECLINER	Furniture	1	11	[0, 0, 0]	n/a	catFR1	1	R1279P
1409.231	0.917	1415200	WORD_OFF	n/a	n/a	RECLINER	n/a	1	11	[0, 0, 0]	n/a	catFR1	1	R1279P
1410.148	1.617	1416116	WORD	n/a	wordpools/wordpool_categorized_EN.txt	DESK	Furniture	2	11	[0, 0, 0]	n/a	catFR1	1	R1279P
1411.765	0.917	1417733	WORD_OFF	n/a	n/a	DESK	n/a	2	11	[0, 0, 0]	n/a	catFR1	1	R1279P
1412.682	1.617	1418650	WORD	n/a	wordpools/wordpool_categorized_EN.txt	BANANA	Fruit	3	11	[0, 0, 0]	n/a	catFR1	1	R1279P
1414.299	0.9	1420267	WORD_OFF	n/a	n/a	BANANA	n/a	3	11	[0, 0, 0]	n/a	catFR1	1	R1279P
1415.199	1.617	1421167	WORD	n/a	wordpools/wordpool_categorized_EN.txt	LEMON	Fruit	4	11	[0, 0, 0]	n/a	catFR1	1	R1279P
1416.816	0.917	1422784	WORD_OFF	n/a	n/a	LEMON	n/a	4	11	[0, 0, 0]	n/a	catFR1	1	R1279P
1417.733	1.617	1423701	WORD	n/a	wordpools/wordpool_categorized_EN.txt	BLOCKS	Toys	5	11	[0, 0, 0]	n/a	catFR1	1	R1279P
1419.35	0.783	1425318	WORD_OFF	n/a	n/a	BLOCKS	n/a	5	11	[0, 0, 0]	n/a	catFR1	1	R1279P
1420.133	1.617	1426101	WORD	n/a	wordpools/wordpool_categorized_EN.txt	DOLL	Toys	6	11	[0, 0, 0]	n/a	catFR1	1	R1279P
1421.75	0.767	1427718	WORD_OFF	n/a	n/a	DOLL	n/a	6	11	[0, 0, 0]	n/a	catFR1	1	R1279P
1422.517	1.617	1428485	WORD	n/a	wordpools/wordpool_categorized_EN.txt	SOFA	Furniture	7	11	[0, 0, 0]	n/a	catFR1	1	R1279P
1424.134	0.984	1430102	WORD_OFF	n/a	n/a	SOFA	n/a	7	11	[0, 0, 0]	n/a	catFR1	1	R1279P
1425.118	1.616	1431086	WORD	n/a	wordpools/wordpool_categorized_EN.txt	CABINET	Furniture	8	11	[0, 0, 0]	n/a	catFR1	1	R1279P
1426.734	0.884	1432702	WORD_OFF	n/a	n/a	CABINET	n/a	8	11	[0, 0, 0]	n/a	catFR1	1	R1279P
1427.618	1.617	1433586	WORD	n/a	wordpools/wordpool_categorized_EN.txt	ORANGE	Fruit	9	11	[0, 0, 0]	n/a	catFR1	1	R1279P
1429.235	0.818	1435202	WORD_OFF	n/a	n/a	ORANGE	n/a	9	11	[0, 0, 0]	n/a	catFR1	1	R1279P
1430.053	1.616	1436020	WORD	n/a	wordpools/wordpool_categorized_EN.txt	STRAWBERRY	Fruit	10	11	[0, 0, 0]	n/a	catFR1	1	R1279P
1431.669	0.9	1437636	WORD_OFF	n/a	n/a	STRAWBERRY	n/a	10	11	[0, 0, 0]	n/a	catFR1	1	R1279P
1432.569	1.617	1438536	WORD	n/a	wordpools/wordpool_categorized_EN.txt	FOOTBALL	Toys	11	11	[0, 0, 0]	n/a	catFR1	1	R1279P
1434.186	0.767	1440153	WORD_OFF	n/a	n/a	FOOTBALL	n/a	11	11	[0, 0, 0]	n/a	catFR1	1	R1279P
1434.953	1.617	1440920	WORD	n/a	wordpools/wordpool_categorized_EN.txt	BALL	Toys	12	11	[0, 0, 0]	n/a	catFR1	1	R1279P
1436.57	0.0	1442537	WORD_OFF	n/a	n/a	BALL	n/a	12	11	[0, 0, 0]	n/a	catFR1	1	R1279P
1436.57	0.107	1442537	ENCODING_END	n/a	n/a	n/a	n/a	-999	11	[0, 0, 0]	n/a	catFR1	1	R1279P
1436.677	0.0	1442644	DISTRACT_START	n/a	n/a	n/a	n/a	-999	11	[0, 0, 0]	n/a	catFR1	1	R1279P
1436.677	0.009	1442644	START	n/a	n/a	n/a	n/a	-999	11	[-999, -999, -999]	n/a	catFR1	1	R1279P
1436.686	5.868	1442653	PROB	5.846	n/a	n/a	n/a	-999	11	[9, 9, 5]	23.0	catFR1	1	R1279P
1442.554	5.785	1448521	PROB	5.747	n/a	n/a	n/a	-999	11	[3, 1, 9]	13.0	catFR1	1	R1279P
1448.339	5.267	1454305	PROB	5.241	n/a	n/a	n/a	-999	11	[5, 4, 6]	15.0	catFR1	1	R1279P
1453.606	4.486	1459572	PROB	4.486	n/a	n/a	n/a	-999	11	[8, 2, 9]	19.0	catFR1	1	R1279P
1458.092	0.017	1464058	STOP	n/a	n/a	n/a	n/a	-999	11	[-999, -999, -999]	n/a	catFR1	1	R1279P
1458.109	0.515	1464075	DISTRACT_END	n/a	n/a	n/a	n/a	-999	11	[0, 0, 0]	n/a	catFR1	1	R1279P
1458.624	0.517	1464590	RETRIEVAL_ORIENT	n/a	n/a	n/a	n/a	-999	11	[0, 0, 0]	n/a	catFR1	1	R1279P
1459.141	2.364	1465107	REC_START	n/a	n/a	n/a	n/a	-999	11	[0, 0, 0]	n/a	catFR1	1	R1279P
1461.505	2.615	1467471	REC_WORD	2.364	n/a	BANANA	Fruit	3	11	[0, 0, 0]	n/a	catFR1	1	R1279P
1464.12	2.925	1470086	REC_WORD	4.979	n/a	WATER	n/a	-999	11	[0, 0, 0]	n/a	catFR1	1	R1279P
1467.045	22.106	1473011	REC_WORD	7.904	n/a	ALMOND	n/a	-999	11	[0, 0, 0]	n/a	catFR1	1	R1279P
1489.151	5.563	1495115	REC_END	n/a	n/a	n/a	n/a	-999	11	[0, 0, 0]	n/a	catFR1	1	R1279P
1494.714	0.5	1500678	TRIAL	n/a	n/a	n/a	n/a	-999	12	[0, 0, 0]	n/a	catFR1	1	R1279P
1495.214	10.428	1501178	COUNTDOWN_START	n/a	n/a	n/a	n/a	-999	12	[0, 0, 0]	n/a	catFR1	1	R1279P
1505.642	0.007	1511605	COUNTDOWN_END	n/a	n/a	n/a	n/a	-999	12	[0, 0, 0]	n/a	catFR1	1	R1279P
1505.649	1.617	1511612	ORIENT	n/a	n/a	n/a	n/a	-999	12	[0, 0, 0]	n/a	catFR1	1	R1279P
1507.266	2.117	1513229	ORIENT_OFF	n/a	n/a	n/a	n/a	-999	12	[0, 0, 0]	n/a	catFR1	1	R1279P
1509.383	1.618	1515346	WORD	n/a	wordpools/wordpool_categorized_EN.txt	EAR	BodyParts	1	12	[0, 0, 0]	n/a	catFR1	1	R1279P
1511.001	0.866	1516964	WORD_OFF	n/a	n/a	EAR	n/a	1	12	[0, 0, 0]	n/a	catFR1	1	R1279P
1511.867	1.617	1517830	WORD	n/a	wordpools/wordpool_categorized_EN.txt	ELBOW	BodyParts	2	12	[0, 0, 0]	n/a	catFR1	1	R1279P
1513.484	0.8	1519447	WORD_OFF	n/a	n/a	ELBOW	n/a	2	12	[0, 0, 0]	n/a	catFR1	1	R1279P
1514.284	1.617	1520247	WORD	n/a	wordpools/wordpool_categorized_EN.txt	WINE	Beverages	3	12	[0, 0, 0]	n/a	catFR1	1	R1279P
1515.901	0.784	1521864	WORD_OFF	n/a	n/a	WINE	n/a	3	12	[0, 0, 0]	n/a	catFR1	1	R1279P
1516.685	1.617	1522648	WORD	n/a	wordpools/wordpool_categorized_EN.txt	SODA	Beverages	4	12	[0, 0, 0]	n/a	catFR1	1	R1279P
1518.302	0.883	1524265	WORD_OFF	n/a	n/a	SODA	n/a	4	12	[0, 0, 0]	n/a	catFR1	1	R1279P
1519.185	1.617	1525148	WORD	n/a	wordpools/wordpool_categorized_EN.txt	LEVEL	Tools	5	12	[0, 0, 0]	n/a	catFR1	1	R1279P
1520.802	0.984	1526765	WORD_OFF	n/a	n/a	LEVEL	n/a	5	12	[0, 0, 0]	n/a	catFR1	1	R1279P
1521.786	1.617	1527749	WORD	n/a	wordpools/wordpool_categorized_EN.txt	WRENCH	Tools	6	12	[0, 0, 0]	n/a	catFR1	1	R1279P
1523.403	0.8	1529366	WORD_OFF	n/a	n/a	WRENCH	n/a	6	12	[0, 0, 0]	n/a	catFR1	1	R1279P
1524.203	1.617	1530166	WORD	n/a	wordpools/wordpool_categorized_EN.txt	JUICE	Beverages	7	12	[0, 0, 0]	n/a	catFR1	1	R1279P
1525.82	1.0	1531782	WORD_OFF	n/a	n/a	JUICE	n/a	7	12	[0, 0, 0]	n/a	catFR1	1	R1279P
1526.82	1.617	1532782	WORD	n/a	wordpools/wordpool_categorized_EN.txt	TEA	Beverages	8	12	[0, 0, 0]	n/a	catFR1	1	R1279P
1528.437	0.867	1534399	WORD_OFF	n/a	n/a	TEA	n/a	8	12	[0, 0, 0]	n/a	catFR1	1	R1279P
1529.304	1.617	1535266	WORD	n/a	wordpools/wordpool_categorized_EN.txt	EYE	BodyParts	9	12	[0, 0, 0]	n/a	catFR1	1	R1279P
1530.921	0.767	1536883	WORD_OFF	n/a	n/a	EYE	n/a	9	12	[0, 0, 0]	n/a	catFR1	1	R1279P
1531.688	1.617	1537650	WORD	n/a	wordpools/wordpool_categorized_EN.txt	HAND	BodyParts	10	12	[0, 0, 0]	n/a	catFR1	1	R1279P
1533.305	0.784	1539267	WORD_OFF	n/a	n/a	HAND	n/a	10	12	[0, 0, 0]	n/a	catFR1	1	R1279P
1534.089	1.616	1540051	WORD	n/a	wordpools/wordpool_categorized_EN.txt	CROWBAR	Tools	11	12	[0, 0, 0]	n/a	catFR1	1	R1279P
1535.705	0.967	1541667	WORD_OFF	n/a	n/a	CROWBAR	n/a	11	12	[0, 0, 0]	n/a	catFR1	1	R1279P
1536.672	1.617	1542634	WORD	n/a	wordpools/wordpool_categorized_EN.txt	AXE	Tools	12	12	[0, 0, 0]	n/a	catFR1	1	R1279P
1538.289	0.0	1544251	ENCODING_END	n/a	n/a	n/a	n/a	-999	12	[0, 0, 0]	n/a	catFR1	1	R1279P
1538.289	0.142	1544251	WORD_OFF	n/a	n/a	AXE	n/a	12	12	[0, 0, 0]	n/a	catFR1	1	R1279P
1538.431	0.0	1544393	DISTRACT_START	n/a	n/a	n/a	n/a	-999	12	[0, 0, 0]	n/a	catFR1	1	R1279P
1538.431	0.008	1544393	START	n/a	n/a	n/a	n/a	-999	12	[-999, -999, -999]	n/a	catFR1	1	R1279P
1538.439	6.734	1544401	PROB	6.702	n/a	n/a	n/a	-999	12	[2, 2, 6]	10.0	catFR1	1	R1279P
1545.173	6.168	1551134	PROB	6.143	n/a	n/a	n/a	-999	12	[2, 4, 4]	10.0	catFR1	1	R1279P
1551.341	3.318	1557302	PROB	3.287	n/a	n/a	n/a	-999	12	[2, 1, 2]	5.0	catFR1	1	R1279P
1554.659	4.946	1560620	PROB	4.946	n/a	n/a	n/a	-999	12	[9, 1, 5]	15.0	catFR1	1	R1279P
1559.605	0.021	1565566	STOP	n/a	n/a	n/a	n/a	-999	12	[-999, -999, -999]	n/a	catFR1	1	R1279P
1559.626	0.534	1565587	DISTRACT_END	n/a	n/a	n/a	n/a	-999	12	[0, 0, 0]	n/a	catFR1	1	R1279P
1560.16	0.517	1566121	RETRIEVAL_ORIENT	n/a	n/a	n/a	n/a	-999	12	[0, 0, 0]	n/a	catFR1	1	R1279P
1560.677	1.574	1566638	REC_START	n/a	n/a	n/a	n/a	-999	12	[0, 0, 0]	n/a	catFR1	1	R1279P
1562.251	3.865	1568212	REC_WORD	1.574	n/a	EAR	BodyParts	1	12	[0, 0, 0]	n/a	catFR1	1	R1279P
1566.116	0.22	1572076	REC_WORD_VV	5.439	n/a	<>	n/a	-999	12	[0, 0, 0]	n/a	catFR1	1	R1279P
1566.336	2.86	1572296	REC_WORD	5.659	n/a	ELBOW	BodyParts	2	12	[0, 0, 0]	n/a	catFR1	1	R1279P
1569.196	21.491	1575156	REC_WORD	8.519	n/a	EYE	BodyParts	9	12	[0, 0, 0]	n/a	catFR1	1	R1279P
1590.687	5.079	1596646	REC_END	n/a	n/a	n/a	n/a	-999	12	[0, 0, 0]	n/a	catFR1	1	R1279P
1595.766	0.5	1601725	TRIAL	n/a	n/a	n/a	n/a	-999	13	[0, 0, 0]	n/a	catFR1	1	R1279P
1596.266	10.428	1602225	COUNTDOWN_START	n/a	n/a	n/a	n/a	-999	13	[0, 0, 0]	n/a	catFR1	1	R1279P
1606.694	0.008	1612652	COUNTDOWN_END	n/a	n/a	n/a	n/a	-999	13	[0, 0, 0]	n/a	catFR1	1	R1279P
1606.702	1.617	1612660	ORIENT	n/a	n/a	n/a	n/a	-999	13	[0, 0, 0]	n/a	catFR1	1	R1279P
1608.319	1.883	1614277	ORIENT_OFF	n/a	n/a	n/a	n/a	-999	13	[0, 0, 0]	n/a	catFR1	1	R1279P
1610.202	1.617	1616160	WORD	n/a	wordpools/wordpool_categorized_EN.txt	BLOUSE	Clothing	1	13	[0, 0, 0]	n/a	catFR1	1	R1279P
1611.819	0.984	1617777	WORD_OFF	n/a	n/a	BLOUSE	n/a	1	13	[0, 0, 0]	n/a	catFR1	1	R1279P
1612.803	1.617	1618761	WORD	n/a	wordpools/wordpool_categorized_EN.txt	PANTS	Clothing	2	13	[0, 0, 0]	n/a	catFR1	1	R1279P
1614.42	0.95	1620378	WORD_OFF	n/a	n/a	PANTS	n/a	2	13	[0, 0, 0]	n/a	catFR1	1	R1279P
1615.37	1.618	1621328	WORD	n/a	wordpools/wordpool_categorized_EN.txt	SQUID	OceanAnimals	3	13	[0, 0, 0]	n/a	catFR1	1	R1279P
1616.988	0.799	1622946	WORD_OFF	n/a	n/a	SQUID	n/a	3	13	[0, 0, 0]	n/a	catFR1	1	R1279P
1617.787	1.617	1623745	WORD	n/a	wordpools/wordpool_categorized_EN.txt	OYSTER	OceanAnimals	4	13	[0, 0, 0]	n/a	catFR1	1	R1279P
1619.404	0.867	1625362	WORD_OFF	n/a	n/a	OYSTER	n/a	4	13	[0, 0, 0]	n/a	catFR1	1	R1279P
1620.271	1.617	1626228	WORD	n/a	wordpools/wordpool_categorized_EN.txt	GRAPE	Fruit	5	13	[0, 0, 0]	n/a	catFR1	1	R1279P
1621.888	0.867	1627845	WORD_OFF	n/a	n/a	GRAPE	n/a	5	13	[0, 0, 0]	n/a	catFR1	1	R1279P
1622.755	1.617	1628712	WORD	n/a	wordpools/wordpool_categorized_EN.txt	APPLE	Fruit	6	13	[0, 0, 0]	n/a	catFR1	1	R1279P
1624.372	1.017	1630329	WORD_OFF	n/a	n/a	APPLE	n/a	6	13	[0, 0, 0]	n/a	catFR1	1	R1279P
1625.389	1.617	1631346	WORD	n/a	wordpools/wordpool_categorized_EN.txt	TURTLE	OceanAnimals	7	13	[0, 0, 0]	n/a	catFR1	1	R1279P
1627.006	1.001	1632963	WORD_OFF	n/a	n/a	TURTLE	n/a	7	13	[0, 0, 0]	n/a	catFR1	1	R1279P
1628.007	1.616	1633964	WORD	n/a	wordpools/wordpool_categorized_EN.txt	JELLYFISH	OceanAnimals	8	13	[0, 0, 0]	n/a	catFR1	1	R1279P
1629.623	0.966	1635580	WORD_OFF	n/a	n/a	JELLYFISH	n/a	8	13	[0, 0, 0]	n/a	catFR1	1	R1279P
1630.589	1.617	1636546	WORD	n/a	wordpools/wordpool_categorized_EN.txt	COAT	Clothing	9	13	[0, 0, 0]	n/a	catFR1	1	R1279P
1632.206	0.851	1638163	WORD_OFF	n/a	n/a	COAT	n/a	9	13	[0, 0, 0]	n/a	catFR1	1	R1279P
1633.057	1.617	1639014	WORD	n/a	wordpools/wordpool_categorized_EN.txt	JEANS	Clothing	10	13	[0, 0, 0]	n/a	catFR1	1	R1279P
1634.674	0.85	1640631	WORD_OFF	n/a	n/a	JEANS	n/a	10	13	[0, 0, 0]	n/a	catFR1	1	R1279P
1635.524	1.617	1641481	WORD	n/a	wordpools/wordpool_categorized_EN.txt	PLUM	Fruit	11	13	[0, 0, 0]	n/a	catFR1	1	R1279P
1637.141	0.783	1643098	WORD_OFF	n/a	n/a	PLUM	n/a	11	13	[0, 0, 0]	n/a	catFR1	1	R1279P
1637.924	1.617	1643881	WORD	n/a	wordpools/wordpool_categorized_EN.txt	PEACH	Fruit	12	13	[0, 0, 0]	n/a	catFR1	1	R1279P
1639.541	0.0	1645497	WORD_OFF	n/a	n/a	PEACH	n/a	12	13	[0, 0, 0]	n/a	catFR1	1	R1279P
1639.541	0.104	1645497	ENCODING_END	n/a	n/a	n/a	n/a	-999	13	[0, 0, 0]	n/a	catFR1	1	R1279P
1639.645	0.001	1645601	DISTRACT_START	n/a	n/a	n/a	n/a	-999	13	[0, 0, 0]	n/a	catFR1	1	R1279P
1639.646	0.012	1645602	START	n/a	n/a	n/a	n/a	-999	13	[-999, -999, -999]	n/a	catFR1	1	R1279P
1639.658	6.301	1645614	PROB	6.274	n/a	n/a	n/a	-999	13	[7, 8, 4]	19.0	catFR1	1	R1279P
1645.959	4.334	1651915	PROB	4.3	n/a	n/a	n/a	-999	13	[1, 6, 5]	12.0	catFR1	1	R1279P
1650.293	4.918	1656249	PROB	4.895	n/a	n/a	n/a	-999	13	[9, 6, 2]	17.0	catFR1	1	R1279P
1655.211	2.868	1661167	PROB	2.843	n/a	n/a	n/a	-999	13	[3, 2, 1]	6.0	catFR1	1	R1279P
1658.079	3.885	1664034	PROB	3.885	n/a	n/a	n/a	-999	13	[8, 1, 6]	15.0	catFR1	1	R1279P
1661.964	0.016	1667919	STOP	n/a	n/a	n/a	n/a	-999	13	[-999, -999, -999]	n/a	catFR1	1	R1279P
1661.98	0.699	1667935	DISTRACT_END	n/a	n/a	n/a	n/a	-999	13	[0, 0, 0]	n/a	catFR1	1	R1279P
1662.679	0.517	1668634	RETRIEVAL_ORIENT	n/a	n/a	n/a	n/a	-999	13	[0, 0, 0]	n/a	catFR1	1	R1279P
1663.196	1.995	1669151	REC_START	n/a	n/a	n/a	n/a	-999	13	[0, 0, 0]	n/a	catFR1	1	R1279P
1665.191	2.229	1671146	REC_WORD	1.995	n/a	ELBOW	n/a	-999	13	[0, 0, 0]	n/a	catFR1	1	R1279P
1667.42	5.69	1673375	REC_WORD	4.224	n/a	JUICE	n/a	-999	13	[0, 0, 0]	n/a	catFR1	1	R1279P
1673.11	20.097	1679065	REC_WORD	9.914	n/a	TEA	n/a	-999	13	[0, 0, 0]	n/a	catFR1	1	R1279P
1693.207	5.162	1699161	REC_END	n/a	n/a	n/a	n/a	-999	13	[0, 0, 0]	n/a	catFR1	1	R1279P
1698.369	0.5	1704322	TRIAL	n/a	n/a	n/a	n/a	-999	14	[0, 0, 0]	n/a	catFR1	1	R1279P
1698.869	10.428	1704822	COUNTDOWN_START	n/a	n/a	n/a	n/a	-999	14	[0, 0, 0]	n/a	catFR1	1	R1279P
1709.297	0.007	1715250	COUNTDOWN_END	n/a	n/a	n/a	n/a	-999	14	[0, 0, 0]	n/a	catFR1	1	R1279P
1709.304	1.617	1715257	ORIENT	n/a	n/a	n/a	n/a	-999	14	[0, 0, 0]	n/a	catFR1	1	R1279P
1710.921	1.984	1716874	ORIENT_OFF	n/a	n/a	n/a	n/a	-999	14	[0, 0, 0]	n/a	catFR1	1	R1279P
1712.905	1.617	1718858	WORD	n/a	wordpools/wordpool_categorized_EN.txt	EVERGREEN	Trees	1	14	[0, 0, 0]	n/a	catFR1	1	R1279P
1714.522	0.9	1720475	WORD_OFF	n/a	n/a	EVERGREEN	n/a	1	14	[0, 0, 0]	n/a	catFR1	1	R1279P
1715.422	1.618	1721374	WORD	n/a	wordpools/wordpool_categorized_EN.txt	SPRUCE	Trees	2	14	[0, 0, 0]	n/a	catFR1	1	R1279P
1717.04	0.967	1722992	WORD_OFF	n/a	n/a	SPRUCE	n/a	2	14	[0, 0, 0]	n/a	catFR1	1	R1279P
1718.007	1.616	1723959	WORD	n/a	wordpools/wordpool_categorized_EN.txt	CELLO	Instruments	3	14	[0, 0, 0]	n/a	catFR1	1	R1279P
1719.623	0.783	1725575	WORD_OFF	n/a	n/a	CELLO	n/a	3	14	[0, 0, 0]	n/a	catFR1	1	R1279P
1720.406	1.618	1726358	WORD	n/a	wordpools/wordpool_categorized_EN.txt	TROMBONE	Instruments	4	14	[0, 0, 0]	n/a	catFR1	1	R1279P
1722.024	0.933	1727976	WORD_OFF	n/a	n/a	TROMBONE	n/a	4	14	[0, 0, 0]	n/a	catFR1	1	R1279P
1722.957	1.617	1728909	WORD	n/a	wordpools/wordpool_categorized_EN.txt	ROOF	Building	5	14	[0, 0, 0]	n/a	catFR1	1	R1279P
1724.574	0.833	1730526	WORD_OFF	n/a	n/a	ROOF	n/a	5	14	[0, 0, 0]	n/a	catFR1	1	R1279P
1725.407	1.618	1731359	WORD	n/a	wordpools/wordpool_categorized_EN.txt	BATHROOM	Building	6	14	[0, 0, 0]	n/a	catFR1	1	R1279P
1727.025	0.933	1732977	WORD_OFF	n/a	n/a	BATHROOM	n/a	6	14	[0, 0, 0]	n/a	catFR1	1	R1279P
1727.958	1.617	1733910	WORD	n/a	wordpools/wordpool_categorized_EN.txt	WALNUT	Trees	7	14	[0, 0, 0]	n/a	catFR1	1	R1279P
1729.575	0.933	1735527	WORD_OFF	n/a	n/a	WALNUT	n/a	7	14	[0, 0, 0]	n/a	catFR1	1	R1279P
1730.508	1.617	1736460	WORD	n/a	wordpools/wordpool_categorized_EN.txt	OAK	Trees	8	14	[0, 0, 0]	n/a	catFR1	1	R1279P
1732.125	1.0	1738077	WORD_OFF	n/a	n/a	OAK	n/a	8	14	[0, 0, 0]	n/a	catFR1	1	R1279P
1733.125	1.617	1739077	WORD	n/a	wordpools/wordpool_categorized_EN.txt	DRUM	Instruments	9	14	[0, 0, 0]	n/a	catFR1	1	R1279P
1734.742	0.967	1740693	WORD_OFF	n/a	n/a	DRUM	n/a	9	14	[0, 0, 0]	n/a	catFR1	1	R1279P
1735.709	1.617	1741660	WORD	n/a	wordpools/wordpool_categorized_EN.txt	BANJO	Instruments	10	14	[0, 0, 0]	n/a	catFR1	1	R1279P
1737.326	1.0	1743277	WORD_OFF	n/a	n/a	BANJO	n/a	10	14	[0, 0, 0]	n/a	catFR1	1	R1279P
1738.326	1.617	1744277	WORD	n/a	wordpools/wordpool_categorized_EN.txt	ATTIC	Building	11	14	[0, 0, 0]	n/a	catFR1	1	R1279P
1739.943	0.851	1745894	WORD_OFF	n/a	n/a	ATTIC	n/a	11	14	[0, 0, 0]	n/a	catFR1	1	R1279P
1740.794	1.616	1746745	WORD	n/a	wordpools/wordpool_categorized_EN.txt	HALLWAY	Building	12	14	[0, 0, 0]	n/a	catFR1	1	R1279P
1742.41	0.001	1748361	WORD_OFF	n/a	n/a	HALLWAY	n/a	12	14	[0, 0, 0]	n/a	catFR1	1	R1279P
1742.411	0.105	1748362	ENCODING_END	n/a	n/a	n/a	n/a	-999	14	[0, 0, 0]	n/a	catFR1	1	R1279P
1742.516	0.0	1748467	DISTRACT_START	n/a	n/a	n/a	n/a	-999	14	[0, 0, 0]	n/a	catFR1	1	R1279P
1742.516	0.011	1748467	START	n/a	n/a	n/a	n/a	-999	14	[-999, -999, -999]	n/a	catFR1	1	R1279P
1742.527	7.952	1748478	PROB	7.926	n/a	n/a	n/a	-999	14	[1, 8, 9]	17.0	catFR1	1	R1279P
1750.479	3.75	1756430	PROB	3.717	n/a	n/a	n/a	-999	14	[6, 2, 8]	16.0	catFR1	1	R1279P
1754.229	3.434	1760179	PROB	3.408	n/a	n/a	n/a	-999	14	[2, 8, 2]	12.0	catFR1	1	R1279P
1757.663	2.984	1763613	PROB	2.956	n/a	n/a	n/a	-999	14	[3, 3, 3]	9.0	catFR1	1	R1279P
1760.647	3.797	1766597	PROB	3.797	n/a	n/a	n/a	-999	14	[6, 1, 9]	16.0	catFR1	1	R1279P
1764.444	0.021	1770394	STOP	n/a	n/a	n/a	n/a	-999	14	[-999, -999, -999]	n/a	catFR1	1	R1279P
1764.465	0.584	1770415	DISTRACT_END	n/a	n/a	n/a	n/a	-999	14	[0, 0, 0]	n/a	catFR1	1	R1279P
1765.049	0.517	1770999	RETRIEVAL_ORIENT	n/a	n/a	n/a	n/a	-999	14	[0, 0, 0]	n/a	catFR1	1	R1279P
1765.566	2.3	1771516	REC_START	n/a	n/a	n/a	n/a	-999	14	[0, 0, 0]	n/a	catFR1	1	R1279P
1767.866	2.395	1773816	REC_WORD	2.3	n/a	DRUM	Instruments	9	14	[0, 0, 0]	n/a	catFR1	1	R1279P
1770.261	25.315	1776211	REC_WORD	4.695	n/a	TROMBONE	Instruments	4	14	[0, 0, 0]	n/a	catFR1	1	R1279P
1795.576	5.497	1801524	REC_END	n/a	n/a	n/a	n/a	-999	14	[0, 0, 0]	n/a	catFR1	1	R1279P
1801.073	0.5	1807021	TRIAL	n/a	n/a	n/a	n/a	-999	15	[0, 0, 0]	n/a	catFR1	1	R1279P
1801.573	10.428	1807521	COUNTDOWN_START	n/a	n/a	n/a	n/a	-999	15	[0, 0, 0]	n/a	catFR1	1	R1279P
1812.001	0.007	1817948	COUNTDOWN_END	n/a	n/a	n/a	n/a	-999	15	[0, 0, 0]	n/a	catFR1	1	R1279P
1812.008	1.616	1817955	ORIENT	n/a	n/a	n/a	n/a	-999	15	[0, 0, 0]	n/a	catFR1	1	R1279P
1813.624	2.334	1819571	ORIENT_OFF	n/a	n/a	n/a	n/a	-999	15	[0, 0, 0]	n/a	catFR1	1	R1279P
1815.958	1.617	1821905	WORD	n/a	wordpools/wordpool_categorized_EN.txt	SPOON	KitchenTools	1	15	[0, 0, 0]	n/a	catFR1	1	R1279P
1817.575	0.966	1823522	WORD_OFF	n/a	n/a	SPOON	n/a	1	15	[0, 0, 0]	n/a	catFR1	1	R1279P
1818.541	1.618	1824488	WORD	n/a	wordpools/wordpool_categorized_EN.txt	CORKSCREW	KitchenTools	2	15	[0, 0, 0]	n/a	catFR1	1	R1279P
1820.159	0.834	1826106	WORD_OFF	n/a	n/a	CORKSCREW	n/a	2	15	[0, 0, 0]	n/a	catFR1	1	R1279P
1820.993	1.616	1826940	WORD	n/a	wordpools/wordpool_categorized_EN.txt	PUZZLE	Toys	3	15	[0, 0, 0]	n/a	catFR1	1	R1279P
1822.609	0.833	1828556	WORD_OFF	n/a	n/a	PUZZLE	n/a	3	15	[0, 0, 0]	n/a	catFR1	1	R1279P
1823.442	1.602	1829389	WORD	n/a	wordpools/wordpool_categorized_EN.txt	BARBIE	Toys	4	15	[0, 0, 0]	n/a	catFR1	1	R1279P
1825.044	0.899	1830991	WORD_OFF	n/a	n/a	BARBIE	n/a	4	15	[0, 0, 0]	n/a	catFR1	1	R1279P
1825.943	1.617	1831890	WORD	n/a	wordpools/wordpool_categorized_EN.txt	DOLPHIN	OceanAnimals	5	15	[0, 0, 0]	n/a	catFR1	1	R1279P
1827.56	1.017	1833507	WORD_OFF	n/a	n/a	DOLPHIN	n/a	5	15	[0, 0, 0]	n/a	catFR1	1	R1279P
1828.577	1.617	1834524	WORD	n/a	wordpools/wordpool_categorized_EN.txt	OCTOPUS	OceanAnimals	6	15	[0, 0, 0]	n/a	catFR1	1	R1279P
1830.194	0.983	1836140	WORD_OFF	n/a	n/a	OCTOPUS	n/a	6	15	[0, 0, 0]	n/a	catFR1	1	R1279P
1831.177	1.617	1837123	WORD	n/a	wordpools/wordpool_categorized_EN.txt	BASEBALL	Toys	7	15	[0, 0, 0]	n/a	catFR1	1	R1279P
1832.794	0.934	1838740	WORD_OFF	n/a	n/a	BASEBALL	n/a	7	15	[0, 0, 0]	n/a	catFR1	1	R1279P
1833.728	1.617	1839674	WORD	n/a	wordpools/wordpool_categorized_EN.txt	FRISBEE	Toys	8	15	[0, 0, 0]	n/a	catFR1	1	R1279P
1835.345	0.783	1841291	WORD_OFF	n/a	n/a	FRISBEE	n/a	8	15	[0, 0, 0]	n/a	catFR1	1	R1279P
1836.128	1.617	1842074	WORD	n/a	wordpools/wordpool_categorized_EN.txt	SPATULA	KitchenTools	9	15	[0, 0, 0]	n/a	catFR1	1	R1279P
1837.745	0.8	1843691	WORD_OFF	n/a	n/a	SPATULA	n/a	9	15	[0, 0, 0]	n/a	catFR1	1	R1279P
1838.545	1.617	1844491	WORD	n/a	wordpools/wordpool_categorized_EN.txt	PEELER	KitchenTools	10	15	[0, 0, 0]	n/a	catFR1	1	R1279P
1840.162	0.967	1846108	WORD_OFF	n/a	n/a	PEELER	n/a	10	15	[0, 0, 0]	n/a	catFR1	1	R1279P
1841.129	1.617	1847075	WORD	n/a	wordpools/wordpool_categorized_EN.txt	WHALE	OceanAnimals	11	15	[0, 0, 0]	n/a	catFR1	1	R1279P
1842.746	0.834	1848692	WORD_OFF	n/a	n/a	WHALE	n/a	11	15	[0, 0, 0]	n/a	catFR1	1	R1279P
1843.58	1.616	1849526	WORD	n/a	wordpools/wordpool_categorized_EN.txt	PLANKTON	OceanAnimals	12	15	[0, 0, 0]	n/a	catFR1	1	R1279P
1845.196	0.001	1851142	WORD_OFF	n/a	n/a	PLANKTON	n/a	12	15	[0, 0, 0]	n/a	catFR1	1	R1279P
1845.197	0.14	1851143	ENCODING_END	n/a	n/a	n/a	n/a	-999	15	[0, 0, 0]	n/a	catFR1	1	R1279P
1845.337	0.0	1851283	DISTRACT_START	n/a	n/a	n/a	n/a	-999	15	[0, 0, 0]	n/a	catFR1	1	R1279P
1845.337	0.009	1851283	START	n/a	n/a	n/a	n/a	-999	15	[-999, -999, -999]	n/a	catFR1	1	R1279P
1845.346	4.818	1851292	PROB	4.787	n/a	n/a	n/a	-999	15	[4, 8, 8]	20.0	catFR1	1	R1279P
1850.164	3.234	1856109	PROB	3.209	n/a	n/a	n/a	-999	15	[5, 1, 5]	11.0	catFR1	1	R1279P
1853.398	5.851	1859343	PROB	5.822	n/a	n/a	n/a	-999	15	[6, 8, 7]	22.0	catFR1	1	R1279P
1859.249	4.852	1865194	PROB	4.821	n/a	n/a	n/a	-999	15	[9, 9, 8]	26.0	catFR1	1	R1279P
1864.101	4.039	1870046	PROB	4.039	n/a	n/a	n/a	-999	15	[2, 9, 8]	19.0	catFR1	1	R1279P
1868.14	0.011	1874084	STOP	n/a	n/a	n/a	n/a	-999	15	[-999, -999, -999]	n/a	catFR1	1	R1279P
1868.151	0.65	1874095	DISTRACT_END	n/a	n/a	n/a	n/a	-999	15	[0, 0, 0]	n/a	catFR1	1	R1279P
1868.801	0.517	1874745	RETRIEVAL_ORIENT	n/a	n/a	n/a	n/a	-999	15	[0, 0, 0]	n/a	catFR1	1	R1279P
1869.318	2.78	1875262	REC_START	n/a	n/a	n/a	n/a	-999	15	[0, 0, 0]	n/a	catFR1	1	R1279P
1872.098	2.814	1878042	REC_WORD	2.78	n/a	CORKSCREW	KitchenTools	2	15	[0, 0, 0]	n/a	catFR1	1	R1279P
1874.912	24.418	1880856	REC_WORD	5.594	n/a	CORN	n/a	-999	15	[0, 0, 0]	n/a	catFR1	1	R1279P
1899.33	5.662	1905273	REC_END	n/a	n/a	n/a	n/a	-999	15	[0, 0, 0]	n/a	catFR1	1	R1279P
1904.992	0.5	1910935	TRIAL	n/a	n/a	n/a	n/a	-999	16	[0, 0, 0]	n/a	catFR1	1	R1279P
1905.492	10.428	1911435	COUNTDOWN_START	n/a	n/a	n/a	n/a	-999	16	[0, 0, 0]	n/a	catFR1	1	R1279P
1915.92	0.006	1921862	COUNTDOWN_END	n/a	n/a	n/a	n/a	-999	16	[0, 0, 0]	n/a	catFR1	1	R1279P
1915.926	1.617	1921868	ORIENT	n/a	n/a	n/a	n/a	-999	16	[0, 0, 0]	n/a	catFR1	1	R1279P
1917.543	2.184	1923485	ORIENT_OFF	n/a	n/a	n/a	n/a	-999	16	[0, 0, 0]	n/a	catFR1	1	R1279P
1919.727	1.617	1925669	WORD	n/a	wordpools/wordpool_categorized_EN.txt	HAWK	Birds	1	16	[0, 0, 0]	n/a	catFR1	1	R1279P
1921.344	0.917	1927286	WORD_OFF	n/a	n/a	HAWK	n/a	1	16	[0, 0, 0]	n/a	catFR1	1	R1279P
1922.261	1.617	1928203	WORD	n/a	wordpools/wordpool_categorized_EN.txt	GOOSE	Birds	2	16	[0, 0, 0]	n/a	catFR1	1	R1279P
1923.878	0.95	1929820	WORD_OFF	n/a	n/a	GOOSE	n/a	2	16	[0, 0, 0]	n/a	catFR1	1	R1279P
1924.828	1.617	1930769	WORD	n/a	wordpools/wordpool_categorized_EN.txt	COBBLER	Desserts	3	16	[0, 0, 0]	n/a	catFR1	1	R1279P
1926.445	1.0	1932386	WORD_OFF	n/a	n/a	COBBLER	n/a	3	16	[0, 0, 0]	n/a	catFR1	1	R1279P
1927.445	1.601	1933386	WORD	n/a	wordpools/wordpool_categorized_EN.txt	CHEESECAKE	Desserts	4	16	[0, 0, 0]	n/a	catFR1	1	R1279P
1929.046	0.9	1934987	WORD_OFF	n/a	n/a	CHEESECAKE	n/a	4	16	[0, 0, 0]	n/a	catFR1	1	R1279P
1929.946	1.617	1935887	WORD	n/a	wordpools/wordpool_categorized_EN.txt	TRAIN	Vehicles	5	16	[0, 0, 0]	n/a	catFR1	1	R1279P
1931.563	0.95	1937504	WORD_OFF	n/a	n/a	TRAIN	n/a	5	16	[0, 0, 0]	n/a	catFR1	1	R1279P
1932.513	1.617	1938454	WORD	n/a	wordpools/wordpool_categorized_EN.txt	MOPED	Vehicles	6	16	[0, 0, 0]	n/a	catFR1	1	R1279P
1934.13	0.951	1940071	WORD_OFF	n/a	n/a	MOPED	n/a	6	16	[0, 0, 0]	n/a	catFR1	1	R1279P
1935.081	1.616	1941022	WORD	n/a	wordpools/wordpool_categorized_EN.txt	SEAGULL	Birds	7	16	[0, 0, 0]	n/a	catFR1	1	R1279P
1936.697	1.0	1942638	WORD_OFF	n/a	n/a	SEAGULL	n/a	7	16	[0, 0, 0]	n/a	catFR1	1	R1279P
1937.697	1.617	1943638	WORD	n/a	wordpools/wordpool_categorized_EN.txt	DOVE	Birds	8	16	[0, 0, 0]	n/a	catFR1	1	R1279P
1939.314	0.867	1945255	WORD_OFF	n/a	n/a	DOVE	n/a	8	16	[0, 0, 0]	n/a	catFR1	1	R1279P
1940.181	1.617	1946122	WORD	n/a	wordpools/wordpool_categorized_EN.txt	FUDGE	Desserts	9	16	[0, 0, 0]	n/a	catFR1	1	R1279P
1941.798	1.017	1947739	WORD_OFF	n/a	n/a	FUDGE	n/a	9	16	[0, 0, 0]	n/a	catFR1	1	R1279P
1942.815	1.617	1948756	WORD	n/a	wordpools/wordpool_categorized_EN.txt	COOKIE	Desserts	10	16	[0, 0, 0]	n/a	catFR1	1	R1279P
1944.432	0.883	1950372	WORD_OFF	n/a	n/a	COOKIE	n/a	10	16	[0, 0, 0]	n/a	catFR1	1	R1279P
1945.315	1.617	1951255	WORD	n/a	wordpools/wordpool_categorized_EN.txt	TRUCK	Vehicles	11	16	[0, 0, 0]	n/a	catFR1	1	R1279P
1946.932	0.917	1952872	WORD_OFF	n/a	n/a	TRUCK	n/a	11	16	[0, 0, 0]	n/a	catFR1	1	R1279P
1947.849	1.617	1953789	WORD	n/a	wordpools/wordpool_categorized_EN.txt	SCOOTER	Vehicles	12	16	[0, 0, 0]	n/a	catFR1	1	R1279P
1949.466	0.0	1955406	ENCODING_END	n/a	n/a	n/a	n/a	-999	16	[0, 0, 0]	n/a	catFR1	1	R1279P
1949.466	0.109	1955406	WORD_OFF	n/a	n/a	SCOOTER	n/a	12	16	[0, 0, 0]	n/a	catFR1	1	R1279P
1949.575	0.0	1955515	DISTRACT_START	n/a	n/a	n/a	n/a	-999	16	[0, 0, 0]	n/a	catFR1	1	R1279P
1949.575	0.007	1955515	START	n/a	n/a	n/a	n/a	-999	16	[-999, -999, -999]	n/a	catFR1	1	R1279P
1949.582	5.935	1955522	PROB	5.902	n/a	n/a	n/a	-999	16	[6, 9, 9]	24.0	catFR1	1	R1279P
1955.517	4.318	1961457	PROB	4.279	n/a	n/a	n/a	-999	16	[4, 3, 7]	14.0	catFR1	1	R1279P
1959.835	3.767	1965775	PROB	3.738	n/a	n/a	n/a	-999	16	[1, 6, 9]	16.0	catFR1	1	R1279P
1963.602	5.301	1969541	PROB	5.266	n/a	n/a	n/a	-999	16	[3, 4, 3]	10.0	catFR1	1	R1279P
1968.903	3.404	1974842	PROB	3.404	n/a	n/a	n/a	-999	16	[4, 3, 4]	11.0	catFR1	1	R1279P
1972.307	0.014	1978246	STOP	n/a	n/a	n/a	n/a	-999	16	[-999, -999, -999]	n/a	catFR1	1	R1279P
1972.321	0.516	1978260	DISTRACT_END	n/a	n/a	n/a	n/a	-999	16	[0, 0, 0]	n/a	catFR1	1	R1279P
1972.837	0.518	1978776	RETRIEVAL_ORIENT	n/a	n/a	n/a	n/a	-999	16	[0, 0, 0]	n/a	catFR1	1	R1279P
1973.355	2.304	1979294	REC_START	n/a	n/a	n/a	n/a	-999	16	[0, 0, 0]	n/a	catFR1	1	R1279P
1975.659	2.19	1981598	REC_WORD	2.304	n/a	CHEESECAKE	Desserts	4	16	[0, 0, 0]	n/a	catFR1	1	R1279P
1977.849	25.517	1983788	REC_WORD	4.494	n/a	ELBOW	n/a	-999	16	[0, 0, 0]	n/a	catFR1	1	R1279P
2003.366	5.411	2009303	REC_END	n/a	n/a	n/a	n/a	-999	16	[0, 0, 0]	n/a	catFR1	1	R1279P
2008.777	0.5	2014714	TRIAL	n/a	n/a	n/a	n/a	-999	17	[0, 0, 0]	n/a	catFR1	1	R1279P
2009.277	10.428	2015214	COUNTDOWN_START	n/a	n/a	n/a	n/a	-999	17	[0, 0, 0]	n/a	catFR1	1	R1279P
2019.705	0.008	2025642	COUNTDOWN_END	n/a	n/a	n/a	n/a	-999	17	[0, 0, 0]	n/a	catFR1	1	R1279P
2019.713	1.617	2025650	ORIENT	n/a	n/a	n/a	n/a	-999	17	[0, 0, 0]	n/a	catFR1	1	R1279P
2021.33	2.167	2027266	ORIENT_OFF	n/a	n/a	n/a	n/a	-999	17	[0, 0, 0]	n/a	catFR1	1	R1279P
2023.497	1.618	2029433	WORD	n/a	wordpools/wordpool_categorized_EN.txt	SLINKY	Toys	1	17	[0, 0, 0]	n/a	catFR1	1	R1279P
2025.115	0.832	2031051	WORD_OFF	n/a	n/a	SLINKY	n/a	1	17	[0, 0, 0]	n/a	catFR1	1	R1279P
2025.947	1.617	2031883	WORD	n/a	wordpools/wordpool_categorized_EN.txt	BASKETBALL	Toys	2	17	[0, 0, 0]	n/a	catFR1	1	R1279P
2027.564	0.784	2033500	WORD_OFF	n/a	n/a	BASKETBALL	n/a	2	17	[0, 0, 0]	n/a	catFR1	1	R1279P
2028.348	1.617	2034284	WORD	n/a	wordpools/wordpool_categorized_EN.txt	STREAM	Landscapes	3	17	[0, 0, 0]	n/a	catFR1	1	R1279P
2029.965	0.983	2035901	WORD_OFF	n/a	n/a	STREAM	n/a	3	17	[0, 0, 0]	n/a	catFR1	1	R1279P
2030.948	1.617	2036884	WORD	n/a	wordpools/wordpool_categorized_EN.txt	ISLAND	Landscapes	4	17	[0, 0, 0]	n/a	catFR1	1	R1279P
2032.565	1.0	2038501	WORD_OFF	n/a	n/a	ISLAND	n/a	4	17	[0, 0, 0]	n/a	catFR1	1	R1279P
2033.565	1.617	2039501	WORD	n/a	wordpools/wordpool_categorized_EN.txt	WIND	Weather	5	17	[0, 0, 0]	n/a	catFR1	1	R1279P
2035.182	0.934	2041118	WORD_OFF	n/a	n/a	WIND	n/a	5	17	[0, 0, 0]	n/a	catFR1	1	R1279P
2036.116	1.617	2042052	WORD	n/a	wordpools/wordpool_categorized_EN.txt	HUMIDITY	Weather	6	17	[0, 0, 0]	n/a	catFR1	1	R1279P
2037.733	0.916	2043669	WORD_OFF	n/a	n/a	HUMIDITY	n/a	6	17	[0, 0, 0]	n/a	catFR1	1	R1279P
2038.649	1.617	2044585	WORD	n/a	wordpools/wordpool_categorized_EN.txt	MOUNTAIN	Landscapes	7	17	[0, 0, 0]	n/a	catFR1	1	R1279P
2040.266	0.967	2046201	WORD_OFF	n/a	n/a	MOUNTAIN	n/a	7	17	[0, 0, 0]	n/a	catFR1	1	R1279P
2041.233	1.617	2047168	WORD	n/a	wordpools/wordpool_categorized_EN.txt	LAKE	Landscapes	8	17	[0, 0, 0]	n/a	catFR1	1	R1279P
2042.85	0.8	2048785	WORD_OFF	n/a	n/a	LAKE	n/a	8	17	[0, 0, 0]	n/a	catFR1	1	R1279P
2043.65	1.617	2049585	WORD	n/a	wordpools/wordpool_categorized_EN.txt	MARBLES	Toys	9	17	[0, 0, 0]	n/a	catFR1	1	R1279P
2045.267	1.001	2051202	WORD_OFF	n/a	n/a	MARBLES	n/a	9	17	[0, 0, 0]	n/a	catFR1	1	R1279P
2046.268	1.617	2052203	WORD	n/a	wordpools/wordpool_categorized_EN.txt	DOLLHOUSE	Toys	10	17	[0, 0, 0]	n/a	catFR1	1	R1279P
2047.885	0.933	2053820	WORD_OFF	n/a	n/a	DOLLHOUSE	n/a	10	17	[0, 0, 0]	n/a	catFR1	1	R1279P
2048.818	1.617	2054753	WORD	n/a	wordpools/wordpool_categorized_EN.txt	RAIN	Weather	11	17	[0, 0, 0]	n/a	catFR1	1	R1279P
2050.435	0.85	2056370	WORD_OFF	n/a	n/a	RAIN	n/a	11	17	[0, 0, 0]	n/a	catFR1	1	R1279P
2051.285	1.617	2057220	WORD	n/a	wordpools/wordpool_categorized_EN.txt	THUNDER	Weather	12	17	[0, 0, 0]	n/a	catFR1	1	R1279P
2052.902	0.0	2058837	ENCODING_END	n/a	n/a	n/a	n/a	-999	17	[0, 0, 0]	n/a	catFR1	1	R1279P
2052.902	0.109	2058837	WORD_OFF	n/a	n/a	THUNDER	n/a	12	17	[0, 0, 0]	n/a	catFR1	1	R1279P
2053.011	0.0	2058946	DISTRACT_START	n/a	n/a	n/a	n/a	-999	17	[0, 0, 0]	n/a	catFR1	1	R1279P
2053.011	0.009	2058946	START	n/a	n/a	n/a	n/a	-999	17	[-999, -999, -999]	n/a	catFR1	1	R1279P
2053.02	4.951	2058955	PROB	4.928	n/a	n/a	n/a	-999	17	[9, 2, 2]	13.0	catFR1	1	R1279P
2057.971	5.2	2063906	PROB	5.177	n/a	n/a	n/a	-999	17	[8, 1, 7]	16.0	catFR1	1	R1279P
2063.171	3.417	2069105	PROB	3.378	n/a	n/a	n/a	-999	17	[7, 7, 1]	15.0	catFR1	1	R1279P
2066.588	4.519	2072522	PROB	4.481	n/a	n/a	n/a	-999	17	[9, 3, 3]	15.0	catFR1	1	R1279P
2071.107	3.963	2077041	PROB	3.963	n/a	n/a	n/a	-999	17	[1, 6, 4]	11.0	catFR1	1	R1279P
2075.07	0.021	2081004	STOP	n/a	n/a	n/a	n/a	-999	17	[-999, -999, -999]	n/a	catFR1	1	R1279P
2075.091	0.715	2081025	DISTRACT_END	n/a	n/a	n/a	n/a	-999	17	[0, 0, 0]	n/a	catFR1	1	R1279P
2075.806	0.518	2081740	RETRIEVAL_ORIENT	n/a	n/a	n/a	n/a	-999	17	[0, 0, 0]	n/a	catFR1	1	R1279P
2076.324	2.654	2082258	REC_START	n/a	n/a	n/a	n/a	-999	17	[0, 0, 0]	n/a	catFR1	1	R1279P
2078.978	2.761	2084911	REC_WORD	2.654	n/a	SLINKY	Toys	1	17	[0, 0, 0]	n/a	catFR1	1	R1279P
2081.739	9.609	2087672	REC_WORD	5.415	n/a	WIND	Weather	5	17	[0, 0, 0]	n/a	catFR1	1	R1279P
2091.348	13.76	2097281	REC_WORD	15.024	n/a	THUNDERSTORM	n/a	-999	17	[0, 0, 0]	n/a	catFR1	1	R1279P
2105.108	1.226	2111040	REC_WORD	28.784	n/a	FRISBEE	n/a	-999	17	[0, 0, 0]	n/a	catFR1	1	R1279P
2106.334	5.463	2112266	REC_END	n/a	n/a	n/a	n/a	-999	17	[0, 0, 0]	n/a	catFR1	1	R1279P
2111.797	0.5	2117729	TRIAL	n/a	n/a	n/a	n/a	-999	18	[0, 0, 0]	n/a	catFR1	1	R1279P
2112.297	10.428	2118229	COUNTDOWN_START	n/a	n/a	n/a	n/a	-999	18	[0, 0, 0]	n/a	catFR1	1	R1279P
2122.725	0.007	2128656	COUNTDOWN_END	n/a	n/a	n/a	n/a	-999	18	[0, 0, 0]	n/a	catFR1	1	R1279P
2122.732	1.617	2128663	ORIENT	n/a	n/a	n/a	n/a	-999	18	[0, 0, 0]	n/a	catFR1	1	R1279P
2124.349	2.2	2130280	ORIENT_OFF	n/a	n/a	n/a	n/a	-999	18	[0, 0, 0]	n/a	catFR1	1	R1279P
2126.549	1.617	2132480	WORD	n/a	wordpools/wordpool_categorized_EN.txt	BINDER	OfficeSupplies	1	18	[0, 0, 0]	n/a	catFR1	1	R1279P
2128.166	0.967	2134097	WORD_OFF	n/a	n/a	BINDER	n/a	1	18	[0, 0, 0]	n/a	catFR1	1	R1279P
2129.133	1.617	2135064	WORD	n/a	wordpools/wordpool_categorized_EN.txt	STAPLER	OfficeSupplies	2	18	[0, 0, 0]	n/a	catFR1	1	R1279P
2130.75	1.0	2136681	WORD_OFF	n/a	n/a	STAPLER	n/a	2	18	[0, 0, 0]	n/a	catFR1	1	R1279P
2131.75	1.617	2137681	WORD	n/a	wordpools/wordpool_categorized_EN.txt	DRILL	Tools	3	18	[0, 0, 0]	n/a	catFR1	1	R1279P
2133.367	0.817	2139298	WORD_OFF	n/a	n/a	DRILL	n/a	3	18	[0, 0, 0]	n/a	catFR1	1	R1279P
2134.184	1.617	2140115	WORD	n/a	wordpools/wordpool_categorized_EN.txt	HAMMER	Tools	4	18	[0, 0, 0]	n/a	catFR1	1	R1279P
2135.801	0.817	2141731	WORD_OFF	n/a	n/a	HAMMER	n/a	4	18	[0, 0, 0]	n/a	catFR1	1	R1279P
2136.618	1.617	2142548	WORD	n/a	wordpools/wordpool_categorized_EN.txt	PASTRY	Desserts	5	18	[0, 0, 0]	n/a	catFR1	1	R1279P
2138.235	0.933	2144165	WORD_OFF	n/a	n/a	PASTRY	n/a	5	18	[0, 0, 0]	n/a	catFR1	1	R1279P
2139.168	1.617	2145098	WORD	n/a	wordpools/wordpool_categorized_EN.txt	JELLO	Desserts	6	18	[0, 0, 0]	n/a	catFR1	1	R1279P
2140.785	0.8	2146715	WORD_OFF	n/a	n/a	JELLO	n/a	6	18	[0, 0, 0]	n/a	catFR1	1	R1279P
2141.585	1.618	2147515	WORD	n/a	wordpools/wordpool_categorized_EN.txt	SCREWDRIVER	Tools	7	18	[0, 0, 0]	n/a	catFR1	1	R1279P
2143.203	0.933	2149133	WORD_OFF	n/a	n/a	SCREWDRIVER	n/a	7	18	[0, 0, 0]	n/a	catFR1	1	R1279P
2144.136	1.617	2150066	WORD	n/a	wordpools/wordpool_categorized_EN.txt	SAW	Tools	8	18	[0, 0, 0]	n/a	catFR1	1	R1279P
2145.753	0.983	2151683	WORD_OFF	n/a	n/a	SAW	n/a	8	18	[0, 0, 0]	n/a	catFR1	1	R1279P
2146.736	1.618	2152666	WORD	n/a	wordpools/wordpool_categorized_EN.txt	ERASER	OfficeSupplies	9	18	[0, 0, 0]	n/a	catFR1	1	R1279P
2148.354	0.966	2154284	WORD_OFF	n/a	n/a	ERASER	n/a	9	18	[0, 0, 0]	n/a	catFR1	1	R1279P
2149.32	1.617	2155250	WORD	n/a	wordpools/wordpool_categorized_EN.txt	RULER	OfficeSupplies	10	18	[0, 0, 0]	n/a	catFR1	1	R1279P
2150.937	0.917	2156867	WORD_OFF	n/a	n/a	RULER	n/a	10	18	[0, 0, 0]	n/a	catFR1	1	R1279P
2151.854	1.617	2157784	WORD	n/a	wordpools/wordpool_categorized_EN.txt	PIE	Desserts	11	18	[0, 0, 0]	n/a	catFR1	1	R1279P
2153.471	0.767	2159401	WORD_OFF	n/a	n/a	PIE	n/a	11	18	[0, 0, 0]	n/a	catFR1	1	R1279P
2154.238	1.617	2160167	WORD	n/a	wordpools/wordpool_categorized_EN.txt	CAKE	Desserts	12	18	[0, 0, 0]	n/a	catFR1	1	R1279P
2155.855	0.0	2161784	ENCODING_END	n/a	n/a	n/a	n/a	-999	18	[0, 0, 0]	n/a	catFR1	1	R1279P
2155.855	0.135	2161784	WORD_OFF	n/a	n/a	CAKE	n/a	12	18	[0, 0, 0]	n/a	catFR1	1	R1279P
2155.99	0.0	2161919	DISTRACT_START	n/a	n/a	n/a	n/a	-999	18	[0, 0, 0]	n/a	catFR1	1	R1279P
2155.99	0.016	2161919	START	n/a	n/a	n/a	n/a	-999	18	[-999, -999, -999]	n/a	catFR1	1	R1279P
2156.006	7.917	2161935	PROB	7.893	n/a	n/a	n/a	-999	18	[7, 2, 6]	16.0	catFR1	1	R1279P
2163.923	5.234	2169852	PROB	5.2	n/a	n/a	n/a	-999	18	[7, 2, 9]	18.0	catFR1	1	R1279P
2169.157	4.251	2175086	PROB	4.224	n/a	n/a	n/a	-999	18	[4, 5, 7]	16.0	catFR1	1	R1279P
2173.408	6.788	2179336	PROB	6.788	n/a	n/a	n/a	-999	18	[6, 9, 2]	7.0	catFR1	1	R1279P
2180.196	0.014	2186124	STOP	n/a	n/a	n/a	n/a	-999	18	[-999, -999, -999]	n/a	catFR1	1	R1279P
2180.21	0.516	2186138	DISTRACT_END	n/a	n/a	n/a	n/a	-999	18	[0, 0, 0]	n/a	catFR1	1	R1279P
2180.726	0.518	2186654	RETRIEVAL_ORIENT	n/a	n/a	n/a	n/a	-999	18	[0, 0, 0]	n/a	catFR1	1	R1279P
2181.244	1.709	2187172	REC_START	n/a	n/a	n/a	n/a	-999	18	[0, 0, 0]	n/a	catFR1	1	R1279P
2182.953	5.04	2188881	REC_WORD	1.709	n/a	BINDER	OfficeSupplies	1	18	[0, 0, 0]	n/a	catFR1	1	R1279P
2187.993	23.261	2193921	REC_WORD	6.749	n/a	WINDOW	n/a	-999	18	[0, 0, 0]	n/a	catFR1	1	R1279P
2211.254	5.179	2217180	REC_END	n/a	n/a	n/a	n/a	-999	18	[0, 0, 0]	n/a	catFR1	1	R1279P
2216.433	0.5	2222359	TRIAL	n/a	n/a	n/a	n/a	-999	19	[0, 0, 0]	n/a	catFR1	1	R1279P
2216.933	10.428	2222859	COUNTDOWN_START	n/a	n/a	n/a	n/a	-999	19	[0, 0, 0]	n/a	catFR1	1	R1279P
2227.361	0.007	2233287	COUNTDOWN_END	n/a	n/a	n/a	n/a	-999	19	[0, 0, 0]	n/a	catFR1	1	R1279P
2227.368	1.618	2233294	ORIENT	n/a	n/a	n/a	n/a	-999	19	[0, 0, 0]	n/a	catFR1	1	R1279P
2228.986	2.001	2234912	ORIENT_OFF	n/a	n/a	n/a	n/a	-999	19	[0, 0, 0]	n/a	catFR1	1	R1279P
2230.987	1.616	2236912	WORD	n/a	wordpools/wordpool_categorized_EN.txt	LAMB	FarmAnimals	1	19	[0, 0, 0]	n/a	catFR1	1	R1279P
2232.603	0.933	2238528	WORD_OFF	n/a	n/a	LAMB	n/a	1	19	[0, 0, 0]	n/a	catFR1	1	R1279P
2233.536	1.617	2239461	WORD	n/a	wordpools/wordpool_categorized_EN.txt	ROOSTER	FarmAnimals	2	19	[0, 0, 0]	n/a	catFR1	1	R1279P
2235.153	0.885	2241078	WORD_OFF	n/a	n/a	ROOSTER	n/a	2	19	[0, 0, 0]	n/a	catFR1	1	R1279P
2236.038	1.616	2241963	WORD	n/a	wordpools/wordpool_categorized_EN.txt	MIXER	Appliances	3	19	[0, 0, 0]	n/a	catFR1	1	R1279P
2237.654	0.866	2243579	WORD_OFF	n/a	n/a	MIXER	n/a	3	19	[0, 0, 0]	n/a	catFR1	1	R1279P
2238.52	1.617	2244445	WORD	n/a	wordpools/wordpool_categorized_EN.txt	OVEN	Appliances	4	19	[0, 0, 0]	n/a	catFR1	1	R1279P
2240.137	0.868	2246062	WORD_OFF	n/a	n/a	OVEN	n/a	4	19	[0, 0, 0]	n/a	catFR1	1	R1279P
2241.005	1.616	2246930	WORD	n/a	wordpools/wordpool_categorized_EN.txt	ZEBRA	Zoo	5	19	[0, 0, 0]	n/a	catFR1	1	R1279P
2242.621	0.85	2248546	WORD_OFF	n/a	n/a	ZEBRA	n/a	5	19	[0, 0, 0]	n/a	catFR1	1	R1279P
2243.471	1.618	2249396	WORD	n/a	wordpools/wordpool_categorized_EN.txt	BEAR	Zoo	6	19	[0, 0, 0]	n/a	catFR1	1	R1279P
2245.089	0.917	2251014	WORD_OFF	n/a	n/a	BEAR	n/a	6	19	[0, 0, 0]	n/a	catFR1	1	R1279P
2246.006	1.616	2251931	WORD	n/a	wordpools/wordpool_categorized_EN.txt	HEN	FarmAnimals	7	19	[0, 0, 0]	n/a	catFR1	1	R1279P
2247.622	0.917	2253547	WORD_OFF	n/a	n/a	HEN	n/a	7	19	[0, 0, 0]	n/a	catFR1	1	R1279P
2248.539	1.617	2254464	WORD	n/a	wordpools/wordpool_categorized_EN.txt	TURKEY	FarmAnimals	8	19	[0, 0, 0]	n/a	catFR1	1	R1279P
2250.156	0.934	2256080	WORD_OFF	n/a	n/a	TURKEY	n/a	8	19	[0, 0, 0]	n/a	catFR1	1	R1279P
2251.09	1.616	2257014	WORD	n/a	wordpools/wordpool_categorized_EN.txt	IRON	Appliances	9	19	[0, 0, 0]	n/a	catFR1	1	R1279P
2252.706	0.817	2258630	WORD_OFF	n/a	n/a	IRON	n/a	9	19	[0, 0, 0]	n/a	catFR1	1	R1279P
2253.523	1.617	2259447	WORD	n/a	wordpools/wordpool_categorized_EN.txt	TOASTER	Appliances	10	19	[0, 0, 0]	n/a	catFR1	1	R1279P
2255.14	1.017	2261064	WORD_OFF	n/a	n/a	TOASTER	n/a	10	19	[0, 0, 0]	n/a	catFR1	1	R1279P
2256.157	1.617	2262081	WORD	n/a	wordpools/wordpool_categorized_EN.txt	CHIMPANZEE	Zoo	11	19	[0, 0, 0]	n/a	catFR1	1	R1279P
2257.774	0.934	2263698	WORD_OFF	n/a	n/a	CHIMPANZEE	n/a	11	19	[0, 0, 0]	n/a	catFR1	1	R1279P
2258.708	1.617	2264632	WORD	n/a	wordpools/wordpool_categorized_EN.txt	GIRAFFE	Zoo	12	19	[0, 0, 0]	n/a	catFR1	1	R1279P
2260.325	0.0	2266249	ENCODING_END	n/a	n/a	n/a	n/a	-999	19	[0, 0, 0]	n/a	catFR1	1	R1279P
2260.325	0.103	2266249	WORD_OFF	n/a	n/a	GIRAFFE	n/a	12	19	[0, 0, 0]	n/a	catFR1	1	R1279P
2260.428	0.0	2266352	DISTRACT_START	n/a	n/a	n/a	n/a	-999	19	[0, 0, 0]	n/a	catFR1	1	R1279P
2260.428	0.013	2266352	START	n/a	n/a	n/a	n/a	-999	19	[-999, -999, -999]	n/a	catFR1	1	R1279P
2260.441	3.884	2266365	PROB	3.851	n/a	n/a	n/a	-999	19	[2, 2, 3]	7.0	catFR1	1	R1279P
2264.325	5.635	2270249	PROB	5.599	n/a	n/a	n/a	-999	19	[7, 6, 1]	14.0	catFR1	1	R1279P
2269.96	4.55	2275883	PROB	4.525	n/a	n/a	n/a	-999	19	[2, 7, 1]	10.0	catFR1	1	R1279P
2274.51	8.55	2280433	PROB	8.55	n/a	n/a	n/a	-999	19	[6, 8, 5]	19.0	catFR1	1	R1279P
2283.06	0.02	2288983	STOP	n/a	n/a	n/a	n/a	-999	19	[-999, -999, -999]	n/a	catFR1	1	R1279P
2283.08	0.666	2289003	DISTRACT_END	n/a	n/a	n/a	n/a	-999	19	[0, 0, 0]	n/a	catFR1	1	R1279P
2283.746	0.517	2289669	RETRIEVAL_ORIENT	n/a	n/a	n/a	n/a	-999	19	[0, 0, 0]	n/a	catFR1	1	R1279P
2284.263	1.254	2290186	REC_START	n/a	n/a	n/a	n/a	-999	19	[0, 0, 0]	n/a	catFR1	1	R1279P
2285.517	3.2	2291440	REC_WORD	1.254	n/a	ROOSTER	FarmAnimals	2	19	[0, 0, 0]	n/a	catFR1	1	R1279P
2288.717	5.33	2294639	REC_WORD	4.454	n/a	TURKEY	FarmAnimals	8	19	[0, 0, 0]	n/a	catFR1	1	R1279P
2294.047	20.224	2299969	REC_WORD	9.784	n/a	CHIMPANZEE	Zoo	11	19	[0, 0, 0]	n/a	catFR1	1	R1279P
2314.271	5.165	2320192	REC_END	n/a	n/a	n/a	n/a	-999	19	[0, 0, 0]	n/a	catFR1	1	R1279P
2319.436	0.5	2325357	TRIAL	n/a	n/a	n/a	n/a	-999	20	[0, 0, 0]	n/a	catFR1	1	R1279P
2319.936	10.428	2325857	COUNTDOWN_START	n/a	n/a	n/a	n/a	-999	20	[0, 0, 0]	n/a	catFR1	1	R1279P
2330.364	0.007	2336284	COUNTDOWN_END	n/a	n/a	n/a	n/a	-999	20	[0, 0, 0]	n/a	catFR1	1	R1279P
2330.371	1.618	2336291	ORIENT	n/a	n/a	n/a	n/a	-999	20	[0, 0, 0]	n/a	catFR1	1	R1279P
2331.989	2.05	2337909	ORIENT_OFF	n/a	n/a	n/a	n/a	-999	20	[0, 0, 0]	n/a	catFR1	1	R1279P
2334.039	1.616	2339959	WORD	n/a	wordpools/wordpool_categorized_EN.txt	DUCK	Birds	1	20	[0, 0, 0]	n/a	catFR1	1	R1279P
2335.655	0.834	2341575	WORD_OFF	n/a	n/a	DUCK	n/a	1	20	[0, 0, 0]	n/a	catFR1	1	R1279P
2336.489	1.618	2342409	WORD	n/a	wordpools/wordpool_categorized_EN.txt	CROW	Birds	2	20	[0, 0, 0]	n/a	catFR1	1	R1279P
2338.107	0.766	2344027	WORD_OFF	n/a	n/a	CROW	n/a	2	20	[0, 0, 0]	n/a	catFR1	1	R1279P
2338.873	1.617	2344793	WORD	n/a	wordpools/wordpool_categorized_EN.txt	PLIERS	Tools	3	20	[0, 0, 0]	n/a	catFR1	1	R1279P
2340.49	0.883	2346410	WORD_OFF	n/a	n/a	PLIERS	n/a	3	20	[0, 0, 0]	n/a	catFR1	1	R1279P
2341.373	1.618	2347293	WORD	n/a	wordpools/wordpool_categorized_EN.txt	RATCHET	Tools	4	20	[0, 0, 0]	n/a	catFR1	1	R1279P
2342.991	0.766	2348911	WORD_OFF	n/a	n/a	RATCHET	n/a	4	20	[0, 0, 0]	n/a	catFR1	1	R1279P
2343.757	1.617	2349677	WORD	n/a	wordpools/wordpool_categorized_EN.txt	SPINACH	Vegetables	5	20	[0, 0, 0]	n/a	catFR1	1	R1279P
2345.374	0.8	2351293	WORD_OFF	n/a	n/a	SPINACH	n/a	5	20	[0, 0, 0]	n/a	catFR1	1	R1279P
2346.174	1.617	2352093	WORD	n/a	wordpools/wordpool_categorized_EN.txt	CARROT	Vegetables	6	20	[0, 0, 0]	n/a	catFR1	1	R1279P
2347.791	0.9	2353710	WORD_OFF	n/a	n/a	CARROT	n/a	6	20	[0, 0, 0]	n/a	catFR1	1	R1279P
2348.691	1.617	2354610	WORD	n/a	wordpools/wordpool_categorized_EN.txt	SANDER	Tools	7	20	[0, 0, 0]	n/a	catFR1	1	R1279P
2350.308	1.0	2356227	WORD_OFF	n/a	n/a	SANDER	n/a	7	20	[0, 0, 0]	n/a	catFR1	1	R1279P
2351.308	1.617	2357227	WORD	n/a	wordpools/wordpool_categorized_EN.txt	SHOVEL	Tools	8	20	[0, 0, 0]	n/a	catFR1	1	R1279P
2352.925	0.85	2358844	WORD_OFF	n/a	n/a	SHOVEL	n/a	8	20	[0, 0, 0]	n/a	catFR1	1	R1279P
2353.775	1.617	2359694	WORD	n/a	wordpools/wordpool_categorized_EN.txt	CARDINAL	Birds	9	20	[0, 0, 0]	n/a	catFR1	1	R1279P
2355.392	0.851	2361311	WORD_OFF	n/a	n/a	CARDINAL	n/a	9	20	[0, 0, 0]	n/a	catFR1	1	R1279P
2356.243	1.617	2362162	WORD	n/a	wordpools/wordpool_categorized_EN.txt	FINCH	Birds	10	20	[0, 0, 0]	n/a	catFR1	1	R1279P
2357.86	0.95	2363779	WORD_OFF	n/a	n/a	FINCH	n/a	10	20	[0, 0, 0]	n/a	catFR1	1	R1279P
2358.81	1.617	2364729	WORD	n/a	wordpools/wordpool_categorized_EN.txt	CAULIFLOWER	Vegetables	11	20	[0, 0, 0]	n/a	catFR1	1	R1279P
2360.427	0.833	2366346	WORD_OFF	n/a	n/a	CAULIFLOWER	n/a	11	20	[0, 0, 0]	n/a	catFR1	1	R1279P
2361.26	1.617	2367179	WORD	n/a	wordpools/wordpool_categorized_EN.txt	POTATO	Vegetables	12	20	[0, 0, 0]	n/a	catFR1	1	R1279P
2362.877	0.0	2368796	WORD_OFF	n/a	n/a	POTATO	n/a	12	20	[0, 0, 0]	n/a	catFR1	1	R1279P
2362.877	0.137	2368796	ENCODING_END	n/a	n/a	n/a	n/a	-999	20	[0, 0, 0]	n/a	catFR1	1	R1279P
2363.014	0.001	2368933	DISTRACT_START	n/a	n/a	n/a	n/a	-999	20	[0, 0, 0]	n/a	catFR1	1	R1279P
2363.015	0.013	2368934	START	n/a	n/a	n/a	n/a	-999	20	[-999, -999, -999]	n/a	catFR1	1	R1279P
2363.028	4.933	2368947	PROB	4.904	n/a	n/a	n/a	-999	20	[1, 7, 7]	15.0	catFR1	1	R1279P
2367.961	5.235	2373879	PROB	5.202	n/a	n/a	n/a	-999	20	[9, 5, 6]	20.0	catFR1	1	R1279P
2373.196	5.667	2379114	PROB	5.641	n/a	n/a	n/a	-999	20	[7, 3, 8]	18.0	catFR1	1	R1279P
2378.863	5.774	2384781	PROB	5.774	n/a	n/a	n/a	-999	20	[8, 4, 1]	13.0	catFR1	1	R1279P
2384.637	0.011	2390554	STOP	n/a	n/a	n/a	n/a	-999	20	[-999, -999, -999]	n/a	catFR1	1	R1279P
2384.648	0.6	2390565	DISTRACT_END	n/a	n/a	n/a	n/a	-999	20	[0, 0, 0]	n/a	catFR1	1	R1279P
2385.248	0.518	2391165	RETRIEVAL_ORIENT	n/a	n/a	n/a	n/a	-999	20	[0, 0, 0]	n/a	catFR1	1	R1279P
2385.766	1.319	2391683	REC_START	n/a	n/a	n/a	n/a	-999	20	[0, 0, 0]	n/a	catFR1	1	R1279P
2387.085	1.905	2393002	REC_WORD	1.319	n/a	DUCK	Birds	1	20	[0, 0, 0]	n/a	catFR1	1	R1279P
2388.99	1.0	2394907	REC_WORD	3.224	n/a	CAULIFLOWER	Vegetables	11	20	[0, 0, 0]	n/a	catFR1	1	R1279P
2389.99	4.446	2395907	REC_WORD_VV	4.224	n/a	<>	n/a	-999	20	[0, 0, 0]	n/a	catFR1	1	R1279P
2394.436	21.341	2400353	REC_WORD	8.67	n/a	CROW	Birds	2	20	[0, 0, 0]	n/a	catFR1	1	R1279P
2415.777	4.944	2421693	REC_END	n/a	n/a	n/a	n/a	-999	20	[0, 0, 0]	n/a	catFR1	1	R1279P
2420.721	0.5	2426636	TRIAL	n/a	n/a	n/a	n/a	-999	21	[0, 0, 0]	n/a	catFR1	1	R1279P
2421.221	10.428	2427136	COUNTDOWN_START	n/a	n/a	n/a	n/a	-999	21	[0, 0, 0]	n/a	catFR1	1	R1279P
2431.649	0.008	2437564	COUNTDOWN_END	n/a	n/a	n/a	n/a	-999	21	[0, 0, 0]	n/a	catFR1	1	R1279P
2431.657	1.617	2437572	ORIENT	n/a	n/a	n/a	n/a	-999	21	[0, 0, 0]	n/a	catFR1	1	R1279P
2433.274	2.0	2439189	ORIENT_OFF	n/a	n/a	n/a	n/a	-999	21	[0, 0, 0]	n/a	catFR1	1	R1279P
2435.274	1.617	2441189	WORD	n/a	wordpools/wordpool_categorized_EN.txt	FINGERS	BodyParts	1	21	[0, 0, 0]	n/a	catFR1	1	R1279P
2436.891	0.917	2442806	WORD_OFF	n/a	n/a	FINGERS	n/a	1	21	[0, 0, 0]	n/a	catFR1	1	R1279P
2437.808	1.617	2443723	WORD	n/a	wordpools/wordpool_categorized_EN.txt	ARM	BodyParts	2	21	[0, 0, 0]	n/a	catFR1	1	R1279P
2439.425	0.817	2445340	WORD_OFF	n/a	n/a	ARM	n/a	2	21	[0, 0, 0]	n/a	catFR1	1	R1279P
2440.242	1.617	2446156	WORD	n/a	wordpools/wordpool_categorized_EN.txt	BROWNIES	Desserts	3	21	[0, 0, 0]	n/a	catFR1	1	R1279P
2441.859	0.8	2447773	WORD_OFF	n/a	n/a	BROWNIES	n/a	3	21	[0, 0, 0]	n/a	catFR1	1	R1279P
2442.659	1.617	2448573	WORD	n/a	wordpools/wordpool_categorized_EN.txt	CUPCAKE	Desserts	4	21	[0, 0, 0]	n/a	catFR1	1	R1279P
2444.276	0.967	2450190	WORD_OFF	n/a	n/a	CUPCAKE	n/a	4	21	[0, 0, 0]	n/a	catFR1	1	R1279P
2445.243	1.617	2451157	WORD	n/a	wordpools/wordpool_categorized_EN.txt	FOREST	Landscapes	5	21	[0, 0, 0]	n/a	catFR1	1	R1279P
2446.86	0.866	2452774	WORD_OFF	n/a	n/a	FOREST	n/a	5	21	[0, 0, 0]	n/a	catFR1	1	R1279P
2447.726	1.617	2453640	WORD	n/a	wordpools/wordpool_categorized_EN.txt	VALLEY	Landscapes	6	21	[0, 0, 0]	n/a	catFR1	1	R1279P
2449.343	0.901	2455257	WORD_OFF	n/a	n/a	VALLEY	n/a	6	21	[0, 0, 0]	n/a	catFR1	1	R1279P
2450.244	1.617	2456158	WORD	n/a	wordpools/wordpool_categorized_EN.txt	MOUSSE	Desserts	7	21	[0, 0, 0]	n/a	catFR1	1	R1279P
2451.861	0.816	2457775	WORD_OFF	n/a	n/a	MOUSSE	n/a	7	21	[0, 0, 0]	n/a	catFR1	1	R1279P
2452.677	1.617	2458591	WORD	n/a	wordpools/wordpool_categorized_EN.txt	PUDDING	Desserts	8	21	[0, 0, 0]	n/a	catFR1	1	R1279P
2454.294	0.801	2460208	WORD_OFF	n/a	n/a	PUDDING	n/a	8	21	[0, 0, 0]	n/a	catFR1	1	R1279P
2455.095	1.616	2461009	WORD	n/a	wordpools/wordpool_categorized_EN.txt	TOE	BodyParts	9	21	[0, 0, 0]	n/a	catFR1	1	R1279P
2456.711	0.834	2462625	WORD_OFF	n/a	n/a	TOE	n/a	9	21	[0, 0, 0]	n/a	catFR1	1	R1279P
2457.545	1.617	2463459	WORD	n/a	wordpools/wordpool_categorized_EN.txt	HEAD	BodyParts	10	21	[0, 0, 0]	n/a	catFR1	1	R1279P
2459.162	0.951	2465075	WORD_OFF	n/a	n/a	HEAD	n/a	10	21	[0, 0, 0]	n/a	catFR1	1	R1279P
2460.113	1.616	2466026	WORD	n/a	wordpools/wordpool_categorized_EN.txt	WOODS	Landscapes	11	21	[0, 0, 0]	n/a	catFR1	1	R1279P
2461.729	0.867	2467642	WORD_OFF	n/a	n/a	WOODS	n/a	11	21	[0, 0, 0]	n/a	catFR1	1	R1279P
2462.596	1.617	2468509	WORD	n/a	wordpools/wordpool_categorized_EN.txt	OCEAN	Landscapes	12	21	[0, 0, 0]	n/a	catFR1	1	R1279P
2464.213	0.0	2470126	ENCODING_END	n/a	n/a	n/a	n/a	-999	21	[0, 0, 0]	n/a	catFR1	1	R1279P
2464.213	0.138	2470126	WORD_OFF	n/a	n/a	OCEAN	n/a	12	21	[0, 0, 0]	n/a	catFR1	1	R1279P
2464.351	0.0	2470264	DISTRACT_START	n/a	n/a	n/a	n/a	-999	21	[0, 0, 0]	n/a	catFR1	1	R1279P
2464.351	0.012	2470264	START	n/a	n/a	n/a	n/a	-999	21	[-999, -999, -999]	n/a	catFR1	1	R1279P
2464.363	5.468	2470276	PROB	5.44	n/a	n/a	n/a	-999	21	[1, 8, 1]	10.0	catFR1	1	R1279P
2469.831	4.367	2475744	PROB	4.332	n/a	n/a	n/a	-999	21	[7, 3, 2]	12.0	catFR1	1	R1279P
2474.198	6.385	2480111	PROB	6.359	n/a	n/a	n/a	-999	21	[7, 4, 9]	20.0	catFR1	1	R1279P
2480.583	4.029	2486495	PROB	4.029	n/a	n/a	n/a	-999	21	[2, 6, 5]	13.0	catFR1	1	R1279P
2484.612	0.022	2490524	STOP	n/a	n/a	n/a	n/a	-999	21	[-999, -999, -999]	n/a	catFR1	1	R1279P
2484.634	0.583	2490546	DISTRACT_END	n/a	n/a	n/a	n/a	-999	21	[0, 0, 0]	n/a	catFR1	1	R1279P
2485.217	0.517	2491129	RETRIEVAL_ORIENT	n/a	n/a	n/a	n/a	-999	21	[0, 0, 0]	n/a	catFR1	1	R1279P
2485.734	1.619	2491646	REC_START	n/a	n/a	n/a	n/a	-999	21	[0, 0, 0]	n/a	catFR1	1	R1279P
2487.353	2.215	2493265	REC_WORD	1.619	n/a	CUPCAKE	Desserts	4	21	[0, 0, 0]	n/a	catFR1	1	R1279P
2489.568	1.27	2495480	REC_WORD	3.834	n/a	ARM	BodyParts	2	21	[0, 0, 0]	n/a	catFR1	1	R1279P
2490.838	24.906	2496750	REC_WORD	5.104	n/a	FINGERS	BodyParts	1	21	[0, 0, 0]	n/a	catFR1	1	R1279P
2515.744	5.28	2521655	REC_END	n/a	n/a	n/a	n/a	-999	21	[0, 0, 0]	n/a	catFR1	1	R1279P
2521.024	0.5	2526934	TRIAL	n/a	n/a	n/a	n/a	-999	22	[0, 0, 0]	n/a	catFR1	1	R1279P
2521.524	10.428	2527434	COUNTDOWN_START	n/a	n/a	n/a	n/a	-999	22	[0, 0, 0]	n/a	catFR1	1	R1279P
2531.952	0.007	2537862	COUNTDOWN_END	n/a	n/a	n/a	n/a	-999	22	[0, 0, 0]	n/a	catFR1	1	R1279P
2531.959	1.617	2537869	ORIENT	n/a	n/a	n/a	n/a	-999	22	[0, 0, 0]	n/a	catFR1	1	R1279P
2533.576	2.117	2539486	ORIENT_OFF	n/a	n/a	n/a	n/a	-999	22	[0, 0, 0]	n/a	catFR1	1	R1279P
2535.693	1.617	2541602	WORD	n/a	wordpools/wordpool_categorized_EN.txt	REFRIGERATOR	Appliances	1	22	[0, 0, 0]	n/a	catFR1	1	R1279P
2537.31	0.95	2543219	WORD_OFF	n/a	n/a	REFRIGERATOR	n/a	1	22	[0, 0, 0]	n/a	catFR1	1	R1279P
2538.26	1.617	2544169	WORD	n/a	wordpools/wordpool_categorized_EN.txt	STOVE	Appliances	2	22	[0, 0, 0]	n/a	catFR1	1	R1279P
2539.877	0.817	2545786	WORD_OFF	n/a	n/a	STOVE	n/a	2	22	[0, 0, 0]	n/a	catFR1	1	R1279P
2540.694	1.617	2546603	WORD	n/a	wordpools/wordpool_categorized_EN.txt	BLUEBIRD	Birds	3	22	[0, 0, 0]	n/a	catFR1	1	R1279P
2542.311	0.9	2548220	WORD_OFF	n/a	n/a	BLUEBIRD	n/a	3	22	[0, 0, 0]	n/a	catFR1	1	R1279P
2543.211	1.617	2549120	WORD	n/a	wordpools/wordpool_categorized_EN.txt	PIGEON	Birds	4	22	[0, 0, 0]	n/a	catFR1	1	R1279P
2544.828	0.917	2550737	WORD_OFF	n/a	n/a	PIGEON	n/a	4	22	[0, 0, 0]	n/a	catFR1	1	R1279P
2545.745	1.617	2551654	WORD	n/a	wordpools/wordpool_categorized_EN.txt	CHERRY	Fruit	5	22	[0, 0, 0]	n/a	catFR1	1	R1279P
2547.362	0.783	2553271	WORD_OFF	n/a	n/a	CHERRY	n/a	5	22	[0, 0, 0]	n/a	catFR1	1	R1279P
2548.145	1.617	2554054	WORD	n/a	wordpools/wordpool_categorized_EN.txt	PEAR	Fruit	6	22	[0, 0, 0]	n/a	catFR1	1	R1279P
2549.762	0.817	2555671	WORD_OFF	n/a	n/a	PEAR	n/a	6	22	[0, 0, 0]	n/a	catFR1	1	R1279P
2550.579	1.617	2556488	WORD	n/a	wordpools/wordpool_categorized_EN.txt	SPARROW	Birds	7	22	[0, 0, 0]	n/a	catFR1	1	R1279P
2552.196	0.767	2558105	WORD_OFF	n/a	n/a	SPARROW	n/a	7	22	[0, 0, 0]	n/a	catFR1	1	R1279P
2552.963	1.617	2558872	WORD	n/a	wordpools/wordpool_categorized_EN.txt	ROBIN	Birds	8	22	[0, 0, 0]	n/a	catFR1	1	R1279P
2554.58	0.8	2560488	WORD_OFF	n/a	n/a	ROBIN	n/a	8	22	[0, 0, 0]	n/a	catFR1	1	R1279P
2555.38	1.618	2561288	WORD	n/a	wordpools/wordpool_categorized_EN.txt	BLENDER	Appliances	9	22	[0, 0, 0]	n/a	catFR1	1	R1279P
2556.998	0.866	2562906	WORD_OFF	n/a	n/a	BLENDER	n/a	9	22	[0, 0, 0]	n/a	catFR1	1	R1279P
2557.864	1.617	2563772	WORD	n/a	wordpools/wordpool_categorized_EN.txt	DRYER	Appliances	10	22	[0, 0, 0]	n/a	catFR1	1	R1279P
2559.481	0.95	2565389	WORD_OFF	n/a	n/a	DRYER	n/a	10	22	[0, 0, 0]	n/a	catFR1	1	R1279P
2560.431	1.618	2566339	WORD	n/a	wordpools/wordpool_categorized_EN.txt	BLUEBERRY	Fruit	11	22	[0, 0, 0]	n/a	catFR1	1	R1279P
2562.049	0.882	2567957	WORD_OFF	n/a	n/a	BLUEBERRY	n/a	11	22	[0, 0, 0]	n/a	catFR1	1	R1279P
2562.931	1.617	2568839	WORD	n/a	wordpools/wordpool_categorized_EN.txt	LIME	Fruit	12	22	[0, 0, 0]	n/a	catFR1	1	R1279P
2564.548	0.001	2570456	WORD_OFF	n/a	n/a	LIME	n/a	12	22	[0, 0, 0]	n/a	catFR1	1	R1279P
2564.549	0.104	2570457	ENCODING_END	n/a	n/a	n/a	n/a	-999	22	[0, 0, 0]	n/a	catFR1	1	R1279P
2564.653	0.0	2570561	DISTRACT_START	n/a	n/a	n/a	n/a	-999	22	[0, 0, 0]	n/a	catFR1	1	R1279P
2564.653	0.012	2570561	START	n/a	n/a	n/a	n/a	-999	22	[-999, -999, -999]	n/a	catFR1	1	R1279P
2564.665	6.785	2570573	PROB	6.754	n/a	n/a	n/a	-999	22	[5, 8, 4]	17.0	catFR1	1	R1279P
2571.45	5.017	2577358	PROB	4.986	n/a	n/a	n/a	-999	22	[2, 3, 9]	14.0	catFR1	1	R1279P
2576.467	4.801	2582374	PROB	4.77	n/a	n/a	n/a	-999	22	[4, 6, 3]	13.0	catFR1	1	R1279P
2581.268	4.784	2587175	PROB	4.784	n/a	n/a	n/a	-999	22	[3, 7, 6]	16.0	catFR1	1	R1279P
2586.052	0.018	2591959	STOP	n/a	n/a	n/a	n/a	-999	22	[-999, -999, -999]	n/a	catFR1	1	R1279P
2586.07	0.683	2591977	DISTRACT_END	n/a	n/a	n/a	n/a	-999	22	[0, 0, 0]	n/a	catFR1	1	R1279P
2586.753	0.517	2592660	RETRIEVAL_ORIENT	n/a	n/a	n/a	n/a	-999	22	[0, 0, 0]	n/a	catFR1	1	R1279P
2587.27	1.629	2593177	REC_START	n/a	n/a	n/a	n/a	-999	22	[0, 0, 0]	n/a	catFR1	1	R1279P
2588.899	5.14	2594806	REC_WORD	1.629	n/a	REFRIGERATOR	Appliances	1	22	[0, 0, 0]	n/a	catFR1	1	R1279P
2594.039	12.8	2599945	REC_WORD	6.769	n/a	BLENDER	Appliances	9	22	[0, 0, 0]	n/a	catFR1	1	R1279P
2606.839	10.442	2612745	REC_WORD	19.569	n/a	CHEESECAKE	n/a	-999	22	[0, 0, 0]	n/a	catFR1	1	R1279P
2617.281	5.262	2623186	REC_END	n/a	n/a	n/a	n/a	-999	22	[0, 0, 0]	n/a	catFR1	1	R1279P
2622.543	0.5	2628448	TRIAL	n/a	n/a	n/a	n/a	-999	23	[0, 0, 0]	n/a	catFR1	1	R1279P
2623.043	10.428	2628948	COUNTDOWN_START	n/a	n/a	n/a	n/a	-999	23	[0, 0, 0]	n/a	catFR1	1	R1279P
2633.471	0.007	2639375	COUNTDOWN_END	n/a	n/a	n/a	n/a	-999	23	[0, 0, 0]	n/a	catFR1	1	R1279P
2633.478	1.601	2639382	ORIENT	n/a	n/a	n/a	n/a	-999	23	[0, 0, 0]	n/a	catFR1	1	R1279P
2635.079	2.183	2640983	ORIENT_OFF	n/a	n/a	n/a	n/a	-999	23	[0, 0, 0]	n/a	catFR1	1	R1279P
2637.262	1.617	2643166	WORD	n/a	wordpools/wordpool_categorized_EN.txt	DISHWASHER	Appliances	1	23	[0, 0, 0]	n/a	catFR1	1	R1279P
2638.879	0.917	2644783	WORD_OFF	n/a	n/a	DISHWASHER	n/a	1	23	[0, 0, 0]	n/a	catFR1	1	R1279P
2639.796	1.617	2645700	WORD	n/a	wordpools/wordpool_categorized_EN.txt	FREEZER	Appliances	2	23	[0, 0, 0]	n/a	catFR1	1	R1279P
2641.413	0.9	2647317	WORD_OFF	n/a	n/a	FREEZER	n/a	2	23	[0, 0, 0]	n/a	catFR1	1	R1279P
2642.313	1.617	2648217	WORD	n/a	wordpools/wordpool_categorized_EN.txt	PINE	Trees	3	23	[0, 0, 0]	n/a	catFR1	1	R1279P
2643.93	0.967	2649834	WORD_OFF	n/a	n/a	PINE	n/a	3	23	[0, 0, 0]	n/a	catFR1	1	R1279P
2644.897	1.617	2650801	WORD	n/a	wordpools/wordpool_categorized_EN.txt	ELM	Trees	4	23	[0, 0, 0]	n/a	catFR1	1	R1279P
2646.514	0.867	2652418	WORD_OFF	n/a	n/a	ELM	n/a	4	23	[0, 0, 0]	n/a	catFR1	1	R1279P
2647.381	1.618	2653285	WORD	n/a	wordpools/wordpool_categorized_EN.txt	LEG	BodyParts	5	23	[0, 0, 0]	n/a	catFR1	1	R1279P
2648.999	1.0	2654903	WORD_OFF	n/a	n/a	LEG	n/a	5	23	[0, 0, 0]	n/a	catFR1	1	R1279P
2649.999	1.616	2655902	WORD	n/a	wordpools/wordpool_categorized_EN.txt	NOSE	BodyParts	6	23	[0, 0, 0]	n/a	catFR1	1	R1279P
2651.615	0.917	2657518	WORD_OFF	n/a	n/a	NOSE	n/a	6	23	[0, 0, 0]	n/a	catFR1	1	R1279P
2652.532	1.617	2658435	WORD	n/a	wordpools/wordpool_categorized_EN.txt	VACUUM	Appliances	7	23	[0, 0, 0]	n/a	catFR1	1	R1279P
2654.149	0.783	2660052	WORD_OFF	n/a	n/a	VACUUM	n/a	7	23	[0, 0, 0]	n/a	catFR1	1	R1279P
2654.932	1.617	2660835	WORD	n/a	wordpools/wordpool_categorized_EN.txt	WASHER	Appliances	8	23	[0, 0, 0]	n/a	catFR1	1	R1279P
2656.549	0.85	2662452	WORD_OFF	n/a	n/a	WASHER	n/a	8	23	[0, 0, 0]	n/a	catFR1	1	R1279P
2657.399	1.618	2663302	WORD	n/a	wordpools/wordpool_categorized_EN.txt	CEDAR	Trees	9	23	[0, 0, 0]	n/a	catFR1	1	R1279P
2659.017	0.816	2664920	WORD_OFF	n/a	n/a	CEDAR	n/a	9	23	[0, 0, 0]	n/a	catFR1	1	R1279P
2659.833	1.617	2665736	WORD	n/a	wordpools/wordpool_categorized_EN.txt	MAPLE	Trees	10	23	[0, 0, 0]	n/a	catFR1	1	R1279P
2661.45	1.0	2667353	WORD_OFF	n/a	n/a	MAPLE	n/a	10	23	[0, 0, 0]	n/a	catFR1	1	R1279P
2662.45	1.618	2668353	WORD	n/a	wordpools/wordpool_categorized_EN.txt	KNEE	BodyParts	11	23	[0, 0, 0]	n/a	catFR1	1	R1279P
2664.068	0.816	2669971	WORD_OFF	n/a	n/a	KNEE	n/a	11	23	[0, 0, 0]	n/a	catFR1	1	R1279P
