onset	duration	sample	trial_type	response_time	stim_file	item_name	category	serialpos	list	test	answer	experiment	session	subject
0.0	161.882	12754	INSTRUCT_START	n/a	n/a	n/a	n/a	-999	-999	[0, 0, 0]	n/a	catFR1	1	R1397D
161.882	41.516	174622	INSTRUCT_END	n/a	n/a	n/a	n/a	-999	-999	[0, 0, 0]	n/a	catFR1	1	R1397D
203.398	10.351	216134	COUNTDOWN_START	n/a	n/a	n/a	n/a	-999	-999	[0, 0, 0]	n/a	catFR1	1	R1397D
213.749	0.0	226489	COUNTDOWN_END	n/a	n/a	n/a	n/a	-999	-999	[0, 0, 0]	n/a	catFR1	1	R1397D
213.749	1.983	226489	ENCODING_START	n/a	n/a	n/a	n/a	-999	-1	[0, 0, 0]	n/a	catFR1	1	R1397D
215.732	1.615	228473	WORD	n/a	n/a	CIDER	Beverages	1	-1	[0, 0, 0]	n/a	catFR1	1	R1397D
217.347	0.868	230083	WORD_OFF	n/a	n/a	CIDER	Beverages	1	-1	[0, 0, 0]	n/a	catFR1	1	R1397D
218.215	1.6	230953	WORD	n/a	n/a	TEA	Beverages	2	-1	[0, 0, 0]	n/a	catFR1	1	R1397D
219.815	0.884	232553	WORD_OFF	n/a	n/a	TEA	Beverages	2	-1	[0, 0, 0]	n/a	catFR1	1	R1397D
220.699	1.616	233433	WORD	n/a	n/a	TRUMPET	Instruments	3	-1	[0, 0, 0]	n/a	catFR1	1	R1397D
222.315	0.966	235053	WORD_OFF	n/a	n/a	TRUMPET	Instruments	3	-1	[0, 0, 0]	n/a	catFR1	1	R1397D
223.281	1.601	236014	WORD	n/a	n/a	CELLO	Instruments	4	-1	[0, 0, 0]	n/a	catFR1	1	R1397D
224.882	0.983	237624	WORD_OFF	n/a	n/a	CELLO	Instruments	4	-1	[0, 0, 0]	n/a	catFR1	1	R1397D
225.865	1.6	238606	WORD	n/a	n/a	CYPRESS	Trees	5	-1	[0, 0, 0]	n/a	catFR1	1	R1397D
227.465	0.984	240205	WORD_OFF	n/a	n/a	CYPRESS	Trees	5	-1	[0, 0, 0]	n/a	catFR1	1	R1397D
228.449	1.616	241187	WORD	n/a	n/a	MAPLE	Trees	6	-1	[0, 0, 0]	n/a	catFR1	1	R1397D
230.065	0.8	242807	WORD_OFF	n/a	n/a	MAPLE	Trees	6	-1	[0, 0, 0]	n/a	catFR1	1	R1397D
230.865	1.6	243606	WORD	n/a	n/a	DRUM	Instruments	7	-1	[0, 0, 0]	n/a	catFR1	1	R1397D
232.465	0.999	245206	WORD_OFF	n/a	n/a	DRUM	Instruments	7	-1	[0, 0, 0]	n/a	catFR1	1	R1397D
233.464	1.618	246198	WORD	n/a	n/a	PIANO	Instruments	8	-1	[0, 0, 0]	n/a	catFR1	1	R1397D
235.082	0.95	247817	WORD_OFF	n/a	n/a	PIANO	Instruments	8	-1	[0, 0, 0]	n/a	catFR1	1	R1397D
236.032	1.617	248769	WORD	n/a	n/a	JUICE	Beverages	9	-1	[0, 0, 0]	n/a	catFR1	1	R1397D
237.649	0.783	250388	WORD_OFF	n/a	n/a	JUICE	Beverages	9	-1	[0, 0, 0]	n/a	catFR1	1	R1397D
238.432	1.6	251168	WORD	n/a	n/a	LEMONADE	Beverages	10	-1	[0, 0, 0]	n/a	catFR1	1	R1397D
240.032	0.833	252767	WORD_OFF	n/a	n/a	LEMONADE	Beverages	10	-1	[0, 0, 0]	n/a	catFR1	1	R1397D
240.865	1.617	253597	WORD	n/a	n/a	PINE	Trees	11	-1	[0, 0, 0]	n/a	catFR1	1	R1397D
242.482	0.8	255217	WORD_OFF	n/a	n/a	PINE	Trees	11	-1	[0, 0, 0]	n/a	catFR1	1	R1397D
243.282	1.618	256016	WORD	n/a	n/a	WILLOW	Trees	12	-1	[0, 0, 0]	n/a	catFR1	1	R1397D
244.9	0.0	257635	START	n/a	n/a	n/a	n/a	-999	-1	[-999, -999, -999]	n/a	catFR1	1	R1397D
244.9	0.0	257635	PROB	0.0	n/a	n/a	n/a	-999	-1	[2, 5, 7]	11	catFR1	1	R1397D
244.899	0.001	257636	WORD_OFF	n/a	n/a	WILLOW	Trees	12	-1	[0, 0, 0]	n/a	catFR1	1	R1397D
244.9	0.0	257636	ENCODING_END	n/a	n/a	n/a	n/a	-999	-1	[0, 0, 0]	n/a	catFR1	1	R1397D
244.9	16.766	257636	DISTRACT_START	n/a	n/a	n/a	n/a	-999	-1	[0, 0, 0]	n/a	catFR1	1	R1397D
261.666	12.982	274401	PROB	12.982	n/a	n/a	n/a	-999	-1	[8, 2, 8]	18	catFR1	1	R1397D
274.648	0.0	287382	STOP	n/a	n/a	n/a	n/a	-999	-1	[-999, -999, -999]	n/a	catFR1	1	R1397D
274.648	2.3	287386	DISTRACT_END	n/a	n/a	n/a	n/a	-999	-1	[0, 0, 0]	n/a	catFR1	1	R1397D
276.948	29.999	289681	REC_START	n/a	n/a	n/a	n/a	-999	-1	[0, 0, 0]	n/a	catFR1	1	R1397D
306.947	0.233	319679	REC_WORD_VV	0.233	n/a	<>	n/a	-999	-1	[0, 0, 0]	n/a	catFR1	1	R1397D
307.18	11.352	319909	REC_END	n/a	n/a	n/a	n/a	-999	-1	[0, 0, 0]	n/a	catFR1	1	R1397D
318.532	10.35	331267	COUNTDOWN_START	n/a	n/a	n/a	n/a	-999	1	[0, 0, 0]	n/a	catFR1	1	R1397D
328.882	0.0	341612	COUNTDOWN_END	n/a	n/a	n/a	n/a	-999	1	[0, 0, 0]	n/a	catFR1	1	R1397D
328.882	1.983	341612	ENCODING_START	n/a	n/a	n/a	n/a	-999	1	[0, 0, 0]	n/a	catFR1	1	R1397D
330.865	1.616	343596	WORD	n/a	wordpools/wordpool_categorized_EN.txt	SHOES	Clothing	1	1	[0, 0, 0]	n/a	catFR1	1	R1397D
332.481	0.918	345215	WORD_OFF	n/a	n/a	SHOES	Clothing	1	1	[0, 0, 0]	n/a	catFR1	1	R1397D
333.399	1.6	346126	WORD	n/a	wordpools/wordpool_categorized_EN.txt	SHIRT	Clothing	2	1	[0, 0, 0]	n/a	catFR1	1	R1397D
334.999	0.8	347726	WORD_OFF	n/a	n/a	SHIRT	Clothing	2	1	[0, 0, 0]	n/a	catFR1	1	R1397D
335.799	1.6	348525	WORD	n/a	wordpools/wordpool_categorized_EN.txt	DRILL	Tools	3	1	[0, 0, 0]	n/a	catFR1	1	R1397D
337.399	0.9	350135	WORD_OFF	n/a	n/a	DRILL	Tools	3	1	[0, 0, 0]	n/a	catFR1	1	R1397D
338.299	1.6	351026	WORD	n/a	wordpools/wordpool_categorized_EN.txt	AXE	Tools	4	1	[0, 0, 0]	n/a	catFR1	1	R1397D
339.899	0.799	352635	WORD_OFF	n/a	n/a	AXE	Tools	4	1	[0, 0, 0]	n/a	catFR1	1	R1397D
340.698	1.601	353435	WORD	n/a	wordpools/wordpool_categorized_EN.txt	WINE	Beverages	5	1	[0, 0, 0]	n/a	catFR1	1	R1397D
342.299	0.948	355034	WORD_OFF	n/a	n/a	WINE	Beverages	5	1	[0, 0, 0]	n/a	catFR1	1	R1397D
343.247	1.601	355975	WORD	n/a	wordpools/wordpool_categorized_EN.txt	COLA	Beverages	6	1	[0, 0, 0]	n/a	catFR1	1	R1397D
344.848	0.967	357575	WORD_OFF	n/a	n/a	COLA	Beverages	6	1	[0, 0, 0]	n/a	catFR1	1	R1397D
345.815	1.617	358547	WORD	n/a	wordpools/wordpool_categorized_EN.txt	SANDER	Tools	7	1	[0, 0, 0]	n/a	catFR1	1	R1397D
347.432	0.832	360166	WORD_OFF	n/a	n/a	SANDER	Tools	7	1	[0, 0, 0]	n/a	catFR1	1	R1397D
348.264	1.601	360996	WORD	n/a	wordpools/wordpool_categorized_EN.txt	WRENCH	Tools	8	1	[0, 0, 0]	n/a	catFR1	1	R1397D
349.865	0.9	362596	WORD_OFF	n/a	n/a	WRENCH	Tools	8	1	[0, 0, 0]	n/a	catFR1	1	R1397D
350.765	1.6	363496	WORD	n/a	wordpools/wordpool_categorized_EN.txt	BLOUSE	Clothing	9	1	[0, 0, 0]	n/a	catFR1	1	R1397D
352.365	0.867	365096	WORD_OFF	n/a	n/a	BLOUSE	Clothing	9	1	[0, 0, 0]	n/a	catFR1	1	R1397D
353.232	1.615	365966	WORD	n/a	wordpools/wordpool_categorized_EN.txt	UNDERWEAR	Clothing	10	1	[0, 0, 0]	n/a	catFR1	1	R1397D
354.847	0.935	367576	WORD_OFF	n/a	n/a	UNDERWEAR	Clothing	10	1	[0, 0, 0]	n/a	catFR1	1	R1397D
355.782	1.6	368517	WORD	n/a	wordpools/wordpool_categorized_EN.txt	WATER	Beverages	11	1	[0, 0, 0]	n/a	catFR1	1	R1397D
357.382	0.767	370116	WORD_OFF	n/a	n/a	WATER	Beverages	11	1	[0, 0, 0]	n/a	catFR1	1	R1397D
358.149	1.615	370876	WORD	n/a	wordpools/wordpool_categorized_EN.txt	BEER	Beverages	12	1	[0, 0, 0]	n/a	catFR1	1	R1397D
359.764	0.002	372495	WORD_OFF	n/a	n/a	BEER	Beverages	12	1	[0, 0, 0]	n/a	catFR1	1	R1397D
359.766	0.0	372495	ENCODING_END	n/a	n/a	n/a	n/a	-999	1	[0, 0, 0]	n/a	catFR1	1	R1397D
359.766	0.0	372495	DISTRACT_START	n/a	n/a	n/a	n/a	-999	1	[0, 0, 0]	n/a	catFR1	1	R1397D
359.765	0.001	372495	PROB	0.001	n/a	n/a	n/a	-999	1	[5, 7, 8]	20	catFR1	1	R1397D
359.766	27.216	372496	START	n/a	n/a	n/a	n/a	-999	1	[-999, -999, -999]	n/a	catFR1	1	R1397D
386.982	0.0	399710	STOP	n/a	n/a	n/a	n/a	-999	1	[-999, -999, -999]	n/a	catFR1	1	R1397D
386.982	2.016	399715	DISTRACT_END	n/a	n/a	n/a	n/a	-999	1	[0, 0, 0]	n/a	catFR1	1	R1397D
388.998	3.728	401727	REC_START	n/a	n/a	n/a	n/a	-999	1	[0, 0, 0]	n/a	catFR1	1	R1397D
392.726	1.0	405454	REC_WORD_VV	1.0	n/a	<>	n/a	-999	1	[0, 0, 0]	n/a	catFR1	1	R1397D
393.726	4.004	406454	REC_WORD_VV	4.004	n/a	<>	n/a	-999	1	[0, 0, 0]	n/a	catFR1	1	R1397D
397.73	1.85	410458	REC_WORD_VV	1.85	n/a	<>	n/a	-999	1	[0, 0, 0]	n/a	catFR1	1	R1397D
399.58	7.13	412308	REC_WORD_VV	7.13	n/a	<>	n/a	-999	1	[0, 0, 0]	n/a	catFR1	1	R1397D
406.71	3.672	419437	REC_WORD_VV	3.672	n/a	<>	n/a	-999	1	[0, 0, 0]	n/a	catFR1	1	R1397D
410.382	2.251	423109	REC_WORD	2.251	n/a	SOCKS	n/a	-999	1	[0, 0, 0]	n/a	catFR1	1	R1397D
412.633	3.292	425360	REC_WORD	3.292	n/a	UNDERWEAR	Clothing	10	1	[0, 0, 0]	n/a	catFR1	1	R1397D
415.925	3.326	428652	REC_WORD_VV	3.326	n/a	<>	n/a	-999	1	[0, 0, 0]	n/a	catFR1	1	R1397D
419.251	2.964	431975	REC_END	n/a	n/a	n/a	n/a	-999	1	[0, 0, 0]	n/a	catFR1	1	R1397D
422.215	10.351	434941	COUNTDOWN_START	n/a	n/a	n/a	n/a	-999	2	[0, 0, 0]	n/a	catFR1	1	R1397D
432.566	0.0	445296	COUNTDOWN_END	n/a	n/a	n/a	n/a	-999	2	[0, 0, 0]	n/a	catFR1	1	R1397D
432.566	2.099	445296	ENCODING_START	n/a	n/a	n/a	n/a	-999	2	[0, 0, 0]	n/a	catFR1	1	R1397D
434.665	1.617	447391	WORD	n/a	wordpools/wordpool_categorized_EN.txt	REFRIGERATOR	Appliances	1	2	[0, 0, 0]	n/a	catFR1	1	R1397D
436.282	0.766	449011	WORD_OFF	n/a	n/a	REFRIGERATOR	Appliances	1	2	[0, 0, 0]	n/a	catFR1	1	R1397D
437.048	1.601	449770	WORD	n/a	wordpools/wordpool_categorized_EN.txt	IRON	Appliances	2	2	[0, 0, 0]	n/a	catFR1	1	R1397D
438.649	0.883	451379	WORD_OFF	n/a	n/a	IRON	Appliances	2	2	[0, 0, 0]	n/a	catFR1	1	R1397D
439.532	1.6	452260	WORD	n/a	wordpools/wordpool_categorized_EN.txt	FORK	KitchenTools	3	2	[0, 0, 0]	n/a	catFR1	1	R1397D
441.132	0.833	453859	WORD_OFF	n/a	n/a	FORK	KitchenTools	3	2	[0, 0, 0]	n/a	catFR1	1	R1397D
441.965	1.617	454690	WORD	n/a	wordpools/wordpool_categorized_EN.txt	KNIFE	KitchenTools	4	2	[0, 0, 0]	n/a	catFR1	1	R1397D
443.582	0.767	456309	WORD_OFF	n/a	n/a	KNIFE	KitchenTools	4	2	[0, 0, 0]	n/a	catFR1	1	R1397D
444.349	1.616	457078	WORD	n/a	wordpools/wordpool_categorized_EN.txt	BUS	Vehicles	5	2	[0, 0, 0]	n/a	catFR1	1	R1397D
445.965	0.767	458688	WORD_OFF	n/a	n/a	BUS	Vehicles	5	2	[0, 0, 0]	n/a	catFR1	1	R1397D
446.732	1.616	459457	WORD	n/a	wordpools/wordpool_categorized_EN.txt	MOTORCYCLE	Vehicles	6	2	[0, 0, 0]	n/a	catFR1	1	R1397D
448.348	0.834	461077	WORD_OFF	n/a	n/a	MOTORCYCLE	Vehicles	6	2	[0, 0, 0]	n/a	catFR1	1	R1397D
449.182	1.616	461907	WORD	n/a	wordpools/wordpool_categorized_EN.txt	LADLE	KitchenTools	7	2	[0, 0, 0]	n/a	catFR1	1	R1397D
450.798	0.784	463526	WORD_OFF	n/a	n/a	LADLE	KitchenTools	7	2	[0, 0, 0]	n/a	catFR1	1	R1397D
451.582	1.616	464306	WORD	n/a	wordpools/wordpool_categorized_EN.txt	WHISK	KitchenTools	8	2	[0, 0, 0]	n/a	catFR1	1	R1397D
453.198	0.783	465925	WORD_OFF	n/a	n/a	WHISK	KitchenTools	8	2	[0, 0, 0]	n/a	catFR1	1	R1397D
453.981	1.601	466705	WORD	n/a	wordpools/wordpool_categorized_EN.txt	JEEP	Vehicles	9	2	[0, 0, 0]	n/a	catFR1	1	R1397D
455.582	1.0	468304	WORD_OFF	n/a	n/a	JEEP	Vehicles	9	2	[0, 0, 0]	n/a	catFR1	1	R1397D
456.582	1.616	469306	WORD	n/a	wordpools/wordpool_categorized_EN.txt	VAN	Vehicles	10	2	[0, 0, 0]	n/a	catFR1	1	R1397D
458.198	0.884	470926	WORD_OFF	n/a	n/a	VAN	Vehicles	10	2	[0, 0, 0]	n/a	catFR1	1	R1397D
459.082	1.616	471807	WORD	n/a	wordpools/wordpool_categorized_EN.txt	DISHWASHER	Appliances	11	2	[0, 0, 0]	n/a	catFR1	1	R1397D
460.698	0.817	473426	WORD_OFF	n/a	n/a	DISHWASHER	Appliances	11	2	[0, 0, 0]	n/a	catFR1	1	R1397D
461.515	1.616	474236	WORD	n/a	wordpools/wordpool_categorized_EN.txt	VACUUM	Appliances	12	2	[0, 0, 0]	n/a	catFR1	1	R1397D
463.131	0.002	475856	WORD_OFF	n/a	n/a	VACUUM	Appliances	12	2	[0, 0, 0]	n/a	catFR1	1	R1397D
463.133	0.0	475856	ENCODING_END	n/a	n/a	n/a	n/a	-999	2	[0, 0, 0]	n/a	catFR1	1	R1397D
463.133	0.0	475856	DISTRACT_START	n/a	n/a	n/a	n/a	-999	2	[0, 0, 0]	n/a	catFR1	1	R1397D
463.132	0.001	475856	PROB	0.001	n/a	n/a	n/a	-999	2	[4, 2, 2]	8	catFR1	1	R1397D
463.133	7.882	475857	START	n/a	n/a	n/a	n/a	-999	2	[-999, -999, -999]	n/a	catFR1	1	R1397D
471.015	10.134	483739	PROB	10.134	n/a	n/a	n/a	-999	2	[1, 7, 7]	15	catFR1	1	R1397D
481.149	7.951	493872	PROB	7.951	n/a	n/a	n/a	-999	2	[2, 1, 2]	5	catFR1	1	R1397D
489.1	0.0	501820	DISTRACT_END	n/a	n/a	n/a	n/a	-999	2	[0, 0, 0]	n/a	catFR1	1	R1397D
489.1	2.332	501823	STOP	n/a	n/a	n/a	n/a	-999	2	[-999, -999, -999]	n/a	catFR1	1	R1397D
491.432	2.03	504156	REC_START	n/a	n/a	n/a	n/a	-999	2	[0, 0, 0]	n/a	catFR1	1	R1397D
493.462	28.212	506185	REC_WORD	28.212	n/a	REFRIGERATOR	Appliances	1	2	[0, 0, 0]	n/a	catFR1	1	R1397D
521.674	3.925	534394	REC_END	n/a	n/a	n/a	n/a	-999	2	[0, 0, 0]	n/a	catFR1	1	R1397D
525.599	10.35	538321	COUNTDOWN_START	n/a	n/a	n/a	n/a	-999	3	[0, 0, 0]	n/a	catFR1	1	R1397D
535.949	0.0	548666	COUNTDOWN_END	n/a	n/a	n/a	n/a	-999	3	[0, 0, 0]	n/a	catFR1	1	R1397D
535.949	1.966	548676	ENCODING_START	n/a	n/a	n/a	n/a	-999	3	[0, 0, 0]	n/a	catFR1	1	R1397D
537.915	1.6	550640	WORD	n/a	wordpools/wordpool_categorized_EN.txt	SPATULA	KitchenTools	1	3	[0, 0, 0]	n/a	catFR1	1	R1397D
539.515	0.883	552239	WORD_OFF	n/a	n/a	SPATULA	KitchenTools	1	3	[0, 0, 0]	n/a	catFR1	1	R1397D
540.398	1.6	553120	WORD	n/a	wordpools/wordpool_categorized_EN.txt	CORKSCREW	KitchenTools	2	3	[0, 0, 0]	n/a	catFR1	1	R1397D
541.998	0.784	554719	WORD_OFF	n/a	n/a	CORKSCREW	KitchenTools	2	3	[0, 0, 0]	n/a	catFR1	1	R1397D
542.782	1.6	555499	WORD	n/a	wordpools/wordpool_categorized_EN.txt	DOLL	Toys	3	3	[0, 0, 0]	n/a	catFR1	1	R1397D
544.382	0.882	557098	WORD_OFF	n/a	n/a	DOLL	Toys	3	3	[0, 0, 0]	n/a	catFR1	1	R1397D
545.264	1.601	557989	WORD	n/a	wordpools/wordpool_categorized_EN.txt	BALL	Toys	4	3	[0, 0, 0]	n/a	catFR1	1	R1397D
546.865	0.816	559588	WORD_OFF	n/a	n/a	BALL	Toys	4	3	[0, 0, 0]	n/a	catFR1	1	R1397D
547.681	1.617	560398	WORD	n/a	wordpools/wordpool_categorized_EN.txt	COFFEE	Beverages	5	3	[0, 0, 0]	n/a	catFR1	1	R1397D
549.298	0.883	562018	WORD_OFF	n/a	n/a	COFFEE	Beverages	5	3	[0, 0, 0]	n/a	catFR1	1	R1397D
550.181	1.617	562898	WORD	n/a	wordpools/wordpool_categorized_EN.txt	MILK	Beverages	6	3	[0, 0, 0]	n/a	catFR1	1	R1397D
551.798	0.85	564518	WORD_OFF	n/a	n/a	MILK	Beverages	6	3	[0, 0, 0]	n/a	catFR1	1	R1397D
552.648	1.617	565368	WORD	n/a	wordpools/wordpool_categorized_EN.txt	COLANDER	KitchenTools	7	3	[0, 0, 0]	n/a	catFR1	1	R1397D
554.265	0.85	566988	WORD_OFF	n/a	n/a	COLANDER	KitchenTools	7	3	[0, 0, 0]	n/a	catFR1	1	R1397D
555.115	1.6	567838	WORD	n/a	wordpools/wordpool_categorized_EN.txt	PEELER	KitchenTools	8	3	[0, 0, 0]	n/a	catFR1	1	R1397D
556.715	0.85	569438	WORD_OFF	n/a	n/a	PEELER	KitchenTools	8	3	[0, 0, 0]	n/a	catFR1	1	R1397D
557.565	1.6	570288	WORD	n/a	wordpools/wordpool_categorized_EN.txt	RUM	Beverages	9	3	[0, 0, 0]	n/a	catFR1	1	R1397D
559.165	0.766	571887	WORD_OFF	n/a	n/a	RUM	Beverages	9	3	[0, 0, 0]	n/a	catFR1	1	R1397D
559.931	1.6	572656	WORD	n/a	wordpools/wordpool_categorized_EN.txt	SODA	Beverages	10	3	[0, 0, 0]	n/a	catFR1	1	R1397D
561.531	0.934	574256	WORD_OFF	n/a	n/a	SODA	Beverages	10	3	[0, 0, 0]	n/a	catFR1	1	R1397D
562.465	1.616	575187	WORD	n/a	wordpools/wordpool_categorized_EN.txt	FOOTBALL	Toys	11	3	[0, 0, 0]	n/a	catFR1	1	R1397D
564.081	0.967	576797	WORD_OFF	n/a	n/a	FOOTBALL	Toys	11	3	[0, 0, 0]	n/a	catFR1	1	R1397D
565.048	1.617	577768	WORD	n/a	wordpools/wordpool_categorized_EN.txt	BASEBALL	Toys	12	3	[0, 0, 0]	n/a	catFR1	1	R1397D
566.665	0.002	579384	PROB	0.002	n/a	n/a	n/a	-999	3	[1, 5, 8]	13	catFR1	1	R1397D
566.667	0.0	579386	START	n/a	n/a	n/a	n/a	-999	3	[-999, -999, -999]	n/a	catFR1	1	R1397D
566.665	0.002	579388	WORD_OFF	n/a	n/a	BASEBALL	Toys	12	3	[0, 0, 0]	n/a	catFR1	1	R1397D
566.667	0.0	579388	ENCODING_END	n/a	n/a	n/a	n/a	-999	3	[0, 0, 0]	n/a	catFR1	1	R1397D
566.667	8.9	579388	DISTRACT_START	n/a	n/a	n/a	n/a	-999	3	[0, 0, 0]	n/a	catFR1	1	R1397D
575.567	10.715	588286	PROB	10.715	n/a	n/a	n/a	-999	3	[5, 7, 8]	19	catFR1	1	R1397D
586.282	7.066	599000	PROB	7.066	n/a	n/a	n/a	-999	3	[3, 1, 8]	12	catFR1	1	R1397D
593.348	0.0	606066	STOP	n/a	n/a	n/a	n/a	-999	3	[-999, -999, -999]	n/a	catFR1	1	R1397D
593.348	2.3	606071	DISTRACT_END	n/a	n/a	n/a	n/a	-999	3	[0, 0, 0]	n/a	catFR1	1	R1397D
595.648	0.961	608366	REC_START	n/a	n/a	n/a	n/a	-999	3	[0, 0, 0]	n/a	catFR1	1	R1397D
596.609	1.0	609327	REC_WORD_VV	1.0	n/a	<>	n/a	-999	3	[0, 0, 0]	n/a	catFR1	1	R1397D
597.609	4.726	610326	REC_WORD_VV	4.726	n/a	<>	n/a	-999	3	[0, 0, 0]	n/a	catFR1	1	R1397D
602.335	3.039	615052	REC_WORD_VV	3.039	n/a	<>	n/a	-999	3	[0, 0, 0]	n/a	catFR1	1	R1397D
605.374	3.539	618091	REC_WORD	3.539	n/a	CORK	n/a	-999	3	[0, 0, 0]	n/a	catFR1	1	R1397D
608.913	1.484	621630	REC_WORD_VV	1.484	n/a	<>	n/a	-999	3	[0, 0, 0]	n/a	catFR1	1	R1397D
610.397	4.061	623114	REC_WORD	4.061	n/a	COLANDER	KitchenTools	7	3	[0, 0, 0]	n/a	catFR1	1	R1397D
614.458	8.646	627175	REC_WORD_VV	8.646	n/a	<>	n/a	-999	3	[0, 0, 0]	n/a	catFR1	1	R1397D
623.104	2.762	635820	REC_WORD	2.762	n/a	LEMON PEEL	n/a	-999	3	[0, 0, 0]	n/a	catFR1	1	R1397D
625.866	1.816	638584	REC_END	n/a	n/a	n/a	n/a	-999	3	[0, 0, 0]	n/a	catFR1	1	R1397D
627.682	10.35	640396	COUNTDOWN_START	n/a	n/a	n/a	n/a	-999	4	[0, 0, 0]	n/a	catFR1	1	R1397D
638.032	0.0	650751	COUNTDOWN_END	n/a	n/a	n/a	n/a	-999	4	[0, 0, 0]	n/a	catFR1	1	R1397D
638.032	2.083	650751	ENCODING_START	n/a	n/a	n/a	n/a	-999	4	[0, 0, 0]	n/a	catFR1	1	R1397D
640.115	1.617	652826	WORD	n/a	wordpools/wordpool_categorized_EN.txt	PHONE	Electronics	1	4	[0, 0, 0]	n/a	catFR1	1	R1397D
641.732	0.916	654446	WORD_OFF	n/a	n/a	PHONE	Electronics	1	4	[0, 0, 0]	n/a	catFR1	1	R1397D
642.648	1.601	655367	WORD	n/a	wordpools/wordpool_categorized_EN.txt	PRINTER	Electronics	2	4	[0, 0, 0]	n/a	catFR1	1	R1397D
644.249	0.765	656966	WORD_OFF	n/a	n/a	PRINTER	Electronics	2	4	[0, 0, 0]	n/a	catFR1	1	R1397D
645.014	1.601	657725	WORD	n/a	wordpools/wordpool_categorized_EN.txt	TRAIN	Vehicles	3	4	[0, 0, 0]	n/a	catFR1	1	R1397D
646.615	0.834	659335	WORD_OFF	n/a	n/a	TRAIN	Vehicles	3	4	[0, 0, 0]	n/a	catFR1	1	R1397D
647.449	1.6	660165	WORD	n/a	wordpools/wordpool_categorized_EN.txt	MOPED	Vehicles	4	4	[0, 0, 0]	n/a	catFR1	1	R1397D
649.049	0.95	661764	WORD_OFF	n/a	n/a	MOPED	Vehicles	4	4	[0, 0, 0]	n/a	catFR1	1	R1397D
649.999	1.616	662716	WORD	n/a	wordpools/wordpool_categorized_EN.txt	STAIRS	Building	5	4	[0, 0, 0]	n/a	catFR1	1	R1397D
651.615	0.95	664335	WORD_OFF	n/a	n/a	STAIRS	Building	5	4	[0, 0, 0]	n/a	catFR1	1	R1397D
652.565	1.6	665277	WORD	n/a	wordpools/wordpool_categorized_EN.txt	WALL	Building	6	4	[0, 0, 0]	n/a	catFR1	1	R1397D
654.165	0.784	666876	WORD_OFF	n/a	n/a	WALL	Building	6	4	[0, 0, 0]	n/a	catFR1	1	R1397D
654.949	1.615	667666	WORD	n/a	wordpools/wordpool_categorized_EN.txt	SCANNER	Electronics	7	4	[0, 0, 0]	n/a	catFR1	1	R1397D
656.564	0.967	669275	WORD_OFF	n/a	n/a	SCANNER	Electronics	7	4	[0, 0, 0]	n/a	catFR1	1	R1397D
657.531	1.617	670247	WORD	n/a	wordpools/wordpool_categorized_EN.txt	STEREO	Electronics	8	4	[0, 0, 0]	n/a	catFR1	1	R1397D
659.148	0.783	671866	WORD_OFF	n/a	n/a	STEREO	Electronics	8	4	[0, 0, 0]	n/a	catFR1	1	R1397D
659.931	1.6	672646	WORD	n/a	wordpools/wordpool_categorized_EN.txt	BOAT	Vehicles	9	4	[0, 0, 0]	n/a	catFR1	1	R1397D
661.531	0.917	674245	WORD_OFF	n/a	n/a	BOAT	Vehicles	9	4	[0, 0, 0]	n/a	catFR1	1	R1397D
662.448	1.6	675166	WORD	n/a	wordpools/wordpool_categorized_EN.txt	SCOOTER	Vehicles	10	4	[0, 0, 0]	n/a	catFR1	1	R1397D
664.048	0.751	676766	WORD_OFF	n/a	n/a	SCOOTER	Vehicles	10	4	[0, 0, 0]	n/a	catFR1	1	R1397D
664.799	1.616	677515	WORD	n/a	wordpools/wordpool_categorized_EN.txt	FOUNDATION	Building	11	4	[0, 0, 0]	n/a	catFR1	1	R1397D
666.415	0.867	679134	WORD_OFF	n/a	n/a	FOUNDATION	Building	11	4	[0, 0, 0]	n/a	catFR1	1	R1397D
667.282	1.6	679995	WORD	n/a	wordpools/wordpool_categorized_EN.txt	CEILING	Building	12	4	[0, 0, 0]	n/a	catFR1	1	R1397D
668.882	0.001	681594	WORD_OFF	n/a	n/a	CEILING	Building	12	4	[0, 0, 0]	n/a	catFR1	1	R1397D
668.883	0.0	681594	ENCODING_END	n/a	n/a	n/a	n/a	-999	4	[0, 0, 0]	n/a	catFR1	1	R1397D
668.883	0.001	681597	PROB	0.001	n/a	n/a	n/a	-999	4	[4, 5, 4]	13	catFR1	1	R1397D
668.884	0.0	681598	START	n/a	n/a	n/a	n/a	-999	4	[-999, -999, -999]	n/a	catFR1	1	R1397D
668.884	19.032	681604	DISTRACT_START	n/a	n/a	n/a	n/a	-999	4	[0, 0, 0]	n/a	catFR1	1	R1397D
687.916	10.333	700629	PROB	10.333	n/a	n/a	n/a	-999	4	[7, 1, 1]	9	catFR1	1	R1397D
698.249	0.0	710959	DISTRACT_END	n/a	n/a	n/a	n/a	-999	4	[0, 0, 0]	n/a	catFR1	1	R1397D
698.249	2.399	710961	STOP	n/a	n/a	n/a	n/a	-999	4	[-999, -999, -999]	n/a	catFR1	1	R1397D
700.648	2.319	713356	REC_START	n/a	n/a	n/a	n/a	-999	4	[0, 0, 0]	n/a	catFR1	1	R1397D
702.967	2.215	715679	REC_WORD	2.215	n/a	SCOOTER	Vehicles	10	4	[0, 0, 0]	n/a	catFR1	1	R1397D
705.182	4.153	717894	REC_WORD	4.153	n/a	FOUNDATION	Building	11	4	[0, 0, 0]	n/a	catFR1	1	R1397D
709.335	7.152	722047	REC_WORD_VV	7.152	n/a	<>	n/a	-999	4	[0, 0, 0]	n/a	catFR1	1	R1397D
716.487	14.389	729198	REC_WORD_VV	14.389	n/a	<>	n/a	-999	4	[0, 0, 0]	n/a	catFR1	1	R1397D
730.876	4.205	743584	REC_END	n/a	n/a	n/a	n/a	-999	4	[0, 0, 0]	n/a	catFR1	1	R1397D
735.081	10.351	747795	COUNTDOWN_START	n/a	n/a	n/a	n/a	-999	5	[0, 0, 0]	n/a	catFR1	1	R1397D
745.432	0.0	758140	COUNTDOWN_END	n/a	n/a	n/a	n/a	-999	5	[0, 0, 0]	n/a	catFR1	1	R1397D
745.432	2.032	758140	ENCODING_START	n/a	n/a	n/a	n/a	-999	5	[0, 0, 0]	n/a	catFR1	1	R1397D
747.464	1.617	760175	WORD	n/a	wordpools/wordpool_categorized_EN.txt	SPINACH	Vegetables	1	5	[0, 0, 0]	n/a	catFR1	1	R1397D
749.081	0.767	761794	WORD_OFF	n/a	n/a	SPINACH	Vegetables	1	5	[0, 0, 0]	n/a	catFR1	1	R1397D
749.848	1.6	762553	WORD	n/a	wordpools/wordpool_categorized_EN.txt	CELERY	Vegetables	2	5	[0, 0, 0]	n/a	catFR1	1	R1397D
751.448	0.933	764163	WORD_OFF	n/a	n/a	CELERY	Vegetables	2	5	[0, 0, 0]	n/a	catFR1	1	R1397D
752.381	1.601	765094	WORD	n/a	wordpools/wordpool_categorized_EN.txt	DRIZZLE	Weather	3	5	[0, 0, 0]	n/a	catFR1	1	R1397D
753.982	0.983	766694	WORD_OFF	n/a	n/a	DRIZZLE	Weather	3	5	[0, 0, 0]	n/a	catFR1	1	R1397D
754.965	1.617	767675	WORD	n/a	wordpools/wordpool_categorized_EN.txt	THUNDERSTORM	Weather	4	5	[0, 0, 0]	n/a	catFR1	1	R1397D
756.582	0.816	769295	WORD_OFF	n/a	n/a	THUNDERSTORM	Weather	4	5	[0, 0, 0]	n/a	catFR1	1	R1397D
757.398	1.601	770105	WORD	n/a	wordpools/wordpool_categorized_EN.txt	COBBLER	Desserts	5	5	[0, 0, 0]	n/a	catFR1	1	R1397D
758.999	0.867	771714	WORD_OFF	n/a	n/a	COBBLER	Desserts	5	5	[0, 0, 0]	n/a	catFR1	1	R1397D
759.866	1.616	772575	WORD	n/a	wordpools/wordpool_categorized_EN.txt	JELLO	Desserts	6	5	[0, 0, 0]	n/a	catFR1	1	R1397D
761.482	0.783	774194	WORD_OFF	n/a	n/a	JELLO	Desserts	6	5	[0, 0, 0]	n/a	catFR1	1	R1397D
762.265	1.6	774974	WORD	n/a	wordpools/wordpool_categorized_EN.txt	TORNADO	Weather	7	5	[0, 0, 0]	n/a	catFR1	1	R1397D
763.865	0.8	776573	WORD_OFF	n/a	n/a	TORNADO	Weather	7	5	[0, 0, 0]	n/a	catFR1	1	R1397D
764.665	1.6	777373	WORD	n/a	wordpools/wordpool_categorized_EN.txt	CLOUD	Weather	8	5	[0, 0, 0]	n/a	catFR1	1	R1397D
766.265	0.784	778972	WORD_OFF	n/a	n/a	CLOUD	Weather	8	5	[0, 0, 0]	n/a	catFR1	1	R1397D
767.049	1.616	779762	WORD	n/a	wordpools/wordpool_categorized_EN.txt	CUCUMBER	Vegetables	9	5	[0, 0, 0]	n/a	catFR1	1	R1397D
768.665	0.984	781371	WORD_OFF	n/a	n/a	CUCUMBER	Vegetables	9	5	[0, 0, 0]	n/a	catFR1	1	R1397D
769.649	1.616	782363	WORD	n/a	wordpools/wordpool_categorized_EN.txt	CARROT	Vegetables	10	5	[0, 0, 0]	n/a	catFR1	1	R1397D
771.265	0.884	783973	WORD_OFF	n/a	n/a	CARROT	Vegetables	10	5	[0, 0, 0]	n/a	catFR1	1	R1397D
772.149	1.6	784853	WORD	n/a	wordpools/wordpool_categorized_EN.txt	CHEESECAKE	Desserts	11	5	[0, 0, 0]	n/a	catFR1	1	R1397D
773.749	0.9	786453	WORD_OFF	n/a	n/a	CHEESECAKE	Desserts	11	5	[0, 0, 0]	n/a	catFR1	1	R1397D
774.649	1.616	787353	WORD	n/a	wordpools/wordpool_categorized_EN.txt	PIE	Desserts	12	5	[0, 0, 0]	n/a	catFR1	1	R1397D
776.265	0.002	788973	WORD_OFF	n/a	n/a	PIE	Desserts	12	5	[0, 0, 0]	n/a	catFR1	1	R1397D
776.267	0.0	788973	ENCODING_END	n/a	n/a	n/a	n/a	-999	5	[0, 0, 0]	n/a	catFR1	1	R1397D
776.266	0.001	788974	PROB	0.001	n/a	n/a	n/a	-999	5	[3, 8, 4]	15	catFR1	1	R1397D
776.267	0.0	788975	START	n/a	n/a	n/a	n/a	-999	5	[-999, -999, -999]	n/a	catFR1	1	R1397D
776.267	10.433	788983	DISTRACT_START	n/a	n/a	n/a	n/a	-999	5	[0, 0, 0]	n/a	catFR1	1	R1397D
786.7	4.733	799408	PROB	4.733	n/a	n/a	n/a	-999	5	[7, 1, 1]	9	catFR1	1	R1397D
791.433	6.882	804140	PROB	6.882	n/a	n/a	n/a	-999	5	[5, 8, 2]	15	catFR1	1	R1397D
798.315	0.0	811020	DISTRACT_END	n/a	n/a	n/a	n/a	-999	5	[0, 0, 0]	n/a	catFR1	1	R1397D
798.315	2.167	811022	STOP	n/a	n/a	n/a	n/a	-999	5	[-999, -999, -999]	n/a	catFR1	1	R1397D
800.482	1.706	813194	REC_START	n/a	n/a	n/a	n/a	-999	5	[0, 0, 0]	n/a	catFR1	1	R1397D
802.188	1.306	814895	REC_WORD	1.306	n/a	SPINACH	Vegetables	1	5	[0, 0, 0]	n/a	catFR1	1	R1397D
803.494	3.138	816201	REC_WORD	3.138	n/a	THUNDERSTORM	Weather	4	5	[0, 0, 0]	n/a	catFR1	1	R1397D
806.632	6.135	819339	REC_WORD	6.135	n/a	DRIZZLE	Weather	3	5	[0, 0, 0]	n/a	catFR1	1	R1397D
812.767	17.93	825473	REC_WORD	17.93	n/a	COTTAGE CHEESE	n/a	-999	5	[0, 0, 0]	n/a	catFR1	1	R1397D
830.697	2.435	843401	REC_END	n/a	n/a	n/a	n/a	-999	5	[0, 0, 0]	n/a	catFR1	1	R1397D
833.132	10.35	845841	COUNTDOWN_START	n/a	n/a	n/a	n/a	-999	6	[0, 0, 0]	n/a	catFR1	1	R1397D
843.482	0.001	856186	COUNTDOWN_END	n/a	n/a	n/a	n/a	-999	6	[0, 0, 0]	n/a	catFR1	1	R1397D
843.483	2.065	856186	ENCODING_START	n/a	n/a	n/a	n/a	-999	6	[0, 0, 0]	n/a	catFR1	1	R1397D
845.548	1.6	858251	WORD	n/a	wordpools/wordpool_categorized_EN.txt	LIGHTNING	Weather	1	6	[0, 0, 0]	n/a	catFR1	1	R1397D
847.148	0.817	859850	WORD_OFF	n/a	n/a	LIGHTNING	Weather	1	6	[0, 0, 0]	n/a	catFR1	1	R1397D
847.965	1.617	860670	WORD	n/a	wordpools/wordpool_categorized_EN.txt	THUNDER	Weather	2	6	[0, 0, 0]	n/a	catFR1	1	R1397D
849.582	0.933	862290	WORD_OFF	n/a	n/a	THUNDER	Weather	2	6	[0, 0, 0]	n/a	catFR1	1	R1397D
850.515	1.617	863221	WORD	n/a	wordpools/wordpool_categorized_EN.txt	GUITAR	Instruments	3	6	[0, 0, 0]	n/a	catFR1	1	R1397D
852.132	0.999	864841	WORD_OFF	n/a	n/a	GUITAR	Instruments	3	6	[0, 0, 0]	n/a	catFR1	1	R1397D
853.131	1.601	865833	WORD	n/a	wordpools/wordpool_categorized_EN.txt	VIOLIN	Instruments	4	6	[0, 0, 0]	n/a	catFR1	1	R1397D
854.732	0.917	867432	WORD_OFF	n/a	n/a	VIOLIN	Instruments	4	6	[0, 0, 0]	n/a	catFR1	1	R1397D
855.649	1.6	868353	WORD	n/a	wordpools/wordpool_categorized_EN.txt	KNEE	BodyParts	5	6	[0, 0, 0]	n/a	catFR1	1	R1397D
857.249	0.8	869953	WORD_OFF	n/a	n/a	KNEE	BodyParts	5	6	[0, 0, 0]	n/a	catFR1	1	R1397D
858.049	1.6	870752	WORD	n/a	wordpools/wordpool_categorized_EN.txt	HAND	BodyParts	6	6	[0, 0, 0]	n/a	catFR1	1	R1397D
859.649	0.816	872352	WORD_OFF	n/a	n/a	HAND	BodyParts	6	6	[0, 0, 0]	n/a	catFR1	1	R1397D
860.465	1.6	873172	WORD	n/a	wordpools/wordpool_categorized_EN.txt	BASS	Instruments	7	6	[0, 0, 0]	n/a	catFR1	1	R1397D
862.065	0.834	874771	WORD_OFF	n/a	n/a	BASS	Instruments	7	6	[0, 0, 0]	n/a	catFR1	1	R1397D
862.899	1.616	875601	WORD	n/a	wordpools/wordpool_categorized_EN.txt	FLUTE	Instruments	8	6	[0, 0, 0]	n/a	catFR1	1	R1397D
864.515	0.9	877220	WORD_OFF	n/a	n/a	FLUTE	Instruments	8	6	[0, 0, 0]	n/a	catFR1	1	R1397D
865.415	1.617	878121	WORD	n/a	wordpools/wordpool_categorized_EN.txt	TOE	BodyParts	9	6	[0, 0, 0]	n/a	catFR1	1	R1397D
867.032	0.817	879741	WORD_OFF	n/a	n/a	TOE	BodyParts	9	6	[0, 0, 0]	n/a	catFR1	1	R1397D
867.849	1.6	880551	WORD	n/a	wordpools/wordpool_categorized_EN.txt	NOSE	BodyParts	10	6	[0, 0, 0]	n/a	catFR1	1	R1397D
869.449	0.766	882150	WORD_OFF	n/a	n/a	NOSE	BodyParts	10	6	[0, 0, 0]	n/a	catFR1	1	R1397D
870.215	1.6	882919	WORD	n/a	wordpools/wordpool_categorized_EN.txt	WIND	Weather	11	6	[0, 0, 0]	n/a	catFR1	1	R1397D
871.815	0.784	884519	WORD_OFF	n/a	n/a	WIND	Weather	11	6	[0, 0, 0]	n/a	catFR1	1	R1397D
872.599	1.616	885298	WORD	n/a	wordpools/wordpool_categorized_EN.txt	RAIN	Weather	12	6	[0, 0, 0]	n/a	catFR1	1	R1397D
874.215	0.002	886918	WORD_OFF	n/a	n/a	RAIN	Weather	12	6	[0, 0, 0]	n/a	catFR1	1	R1397D
874.217	0.0	886918	ENCODING_END	n/a	n/a	n/a	n/a	-999	6	[0, 0, 0]	n/a	catFR1	1	R1397D
874.215	0.002	886918	PROB	0.002	n/a	n/a	n/a	-999	6	[4, 1, 2]	7	catFR1	1	R1397D
874.217	0.0	886920	START	n/a	n/a	n/a	n/a	-999	6	[-999, -999, -999]	n/a	catFR1	1	R1397D
874.217	13.348	886928	DISTRACT_START	n/a	n/a	n/a	n/a	-999	6	[0, 0, 0]	n/a	catFR1	1	R1397D
887.565	3.567	900268	PROB	3.567	n/a	n/a	n/a	-999	6	[5, 3, 4]	121	catFR1	1	R1397D
891.132	9.099	903834	PROB	9.099	n/a	n/a	n/a	-999	6	[5, 2, 7]	14	catFR1	1	R1397D
900.231	0.0	912932	DISTRACT_END	n/a	n/a	n/a	n/a	-999	6	[0, 0, 0]	n/a	catFR1	1	R1397D
900.231	2.051	912933	STOP	n/a	n/a	n/a	n/a	-999	6	[-999, -999, -999]	n/a	catFR1	1	R1397D
902.282	1.085	914985	REC_START	n/a	n/a	n/a	n/a	-999	6	[0, 0, 0]	n/a	catFR1	1	R1397D
903.367	0.585	916069	REC_WORD_VV	0.585	n/a	<>	n/a	-999	6	[0, 0, 0]	n/a	catFR1	1	R1397D
903.952	1.232	916654	REC_WORD	1.232	n/a	LIGHTNING	Weather	1	6	[0, 0, 0]	n/a	catFR1	1	R1397D
905.184	4.232	917886	REC_WORD	4.232	n/a	THUNDERSTORM	Weather	-999	6	[0, 0, 0]	n/a	catFR1	1	R1397D
909.416	3.243	922117	REC_WORD	3.243	n/a	GUITAR	Instruments	3	6	[0, 0, 0]	n/a	catFR1	1	R1397D
912.659	4.702	925360	REC_WORD	4.702	n/a	NOSE	BodyParts	10	6	[0, 0, 0]	n/a	catFR1	1	R1397D
917.361	15.151	930062	REC_WORD_VV	15.151	n/a	<>	n/a	-999	6	[0, 0, 0]	n/a	catFR1	1	R1397D
932.512	2.153	945213	REC_END	n/a	n/a	n/a	n/a	-999	6	[0, 0, 0]	n/a	catFR1	1	R1397D
934.665	10.35	947369	COUNTDOWN_START	n/a	n/a	n/a	n/a	-999	7	[0, 0, 0]	n/a	catFR1	1	R1397D
945.015	0.0	957714	COUNTDOWN_END	n/a	n/a	n/a	n/a	-999	7	[0, 0, 0]	n/a	catFR1	1	R1397D
945.015	2.267	957714	ENCODING_START	n/a	n/a	n/a	n/a	-999	7	[0, 0, 0]	n/a	catFR1	1	R1397D
947.282	1.6	959982	WORD	n/a	wordpools/wordpool_categorized_EN.txt	LEATHER	Fabric	1	7	[0, 0, 0]	n/a	catFR1	1	R1397D
948.882	0.817	961581	WORD_OFF	n/a	n/a	LEATHER	Fabric	1	7	[0, 0, 0]	n/a	catFR1	1	R1397D
949.699	1.6	962401	WORD	n/a	wordpools/wordpool_categorized_EN.txt	LINEN	Fabric	2	7	[0, 0, 0]	n/a	catFR1	1	R1397D
951.299	0.816	964000	WORD_OFF	n/a	n/a	LINEN	Fabric	2	7	[0, 0, 0]	n/a	catFR1	1	R1397D
952.115	1.601	964820	WORD	n/a	wordpools/wordpool_categorized_EN.txt	LEG	BodyParts	3	7	[0, 0, 0]	n/a	catFR1	1	R1397D
953.716	0.983	966419	WORD_OFF	n/a	n/a	LEG	BodyParts	3	7	[0, 0, 0]	n/a	catFR1	1	R1397D
954.699	1.615	967401	WORD	n/a	wordpools/wordpool_categorized_EN.txt	FOOT	BodyParts	4	7	[0, 0, 0]	n/a	catFR1	1	R1397D
956.314	0.868	969011	WORD_OFF	n/a	n/a	FOOT	BodyParts	4	7	[0, 0, 0]	n/a	catFR1	1	R1397D
957.182	1.6	969881	WORD	n/a	wordpools/wordpool_categorized_EN.txt	CABINET	Furniture	5	7	[0, 0, 0]	n/a	catFR1	1	R1397D
958.782	0.883	971481	WORD_OFF	n/a	n/a	CABINET	Furniture	5	7	[0, 0, 0]	n/a	catFR1	1	R1397D
959.665	1.6	972361	WORD	n/a	wordpools/wordpool_categorized_EN.txt	TABLE	Furniture	6	7	[0, 0, 0]	n/a	catFR1	1	R1397D
961.265	0.816	973961	WORD_OFF	n/a	n/a	TABLE	Furniture	6	7	[0, 0, 0]	n/a	catFR1	1	R1397D
962.081	1.601	974781	WORD	n/a	wordpools/wordpool_categorized_EN.txt	SUEDE	Fabric	7	7	[0, 0, 0]	n/a	catFR1	1	R1397D
963.682	0.983	976380	WORD_OFF	n/a	n/a	SUEDE	Fabric	7	7	[0, 0, 0]	n/a	catFR1	1	R1397D
964.665	1.6	977362	WORD	n/a	wordpools/wordpool_categorized_EN.txt	SATIN	Fabric	8	7	[0, 0, 0]	n/a	catFR1	1	R1397D
966.265	0.983	978961	WORD_OFF	n/a	n/a	SATIN	Fabric	8	7	[0, 0, 0]	n/a	catFR1	1	R1397D
967.248	1.601	979943	WORD	n/a	wordpools/wordpool_categorized_EN.txt	DESK	Furniture	9	7	[0, 0, 0]	n/a	catFR1	1	R1397D
968.849	0.915	981552	WORD_OFF	n/a	n/a	DESK	Furniture	9	7	[0, 0, 0]	n/a	catFR1	1	R1397D
969.764	1.601	982464	WORD	n/a	wordpools/wordpool_categorized_EN.txt	SOFA	Furniture	10	7	[0, 0, 0]	n/a	catFR1	1	R1397D
971.365	0.884	984063	WORD_OFF	n/a	n/a	SOFA	Furniture	10	7	[0, 0, 0]	n/a	catFR1	1	R1397D
972.249	1.6	984944	WORD	n/a	wordpools/wordpool_categorized_EN.txt	EYE	BodyParts	11	7	[0, 0, 0]	n/a	catFR1	1	R1397D
973.849	0.817	986543	WORD_OFF	n/a	n/a	EYE	BodyParts	11	7	[0, 0, 0]	n/a	catFR1	1	R1397D
974.666	1.617	987363	WORD	n/a	wordpools/wordpool_categorized_EN.txt	HEAD	BodyParts	12	7	[0, 0, 0]	n/a	catFR1	1	R1397D
976.283	0.0	988981	PROB	0.0	n/a	n/a	n/a	-999	7	[3, 8, 6]	17	catFR1	1	R1397D
976.282	0.002	988982	WORD_OFF	n/a	n/a	HEAD	BodyParts	12	7	[0, 0, 0]	n/a	catFR1	1	R1397D
976.284	0.0	988982	ENCODING_END	n/a	n/a	n/a	n/a	-999	7	[0, 0, 0]	n/a	catFR1	1	R1397D
976.284	0.0	988982	DISTRACT_START	n/a	n/a	n/a	n/a	-999	7	[0, 0, 0]	n/a	catFR1	1	R1397D
976.284	10.332	988982	START	n/a	n/a	n/a	n/a	-999	7	[-999, -999, -999]	n/a	catFR1	1	R1397D
986.616	9.016	999313	PROB	9.016	n/a	n/a	n/a	-999	7	[3, 5, 3]	11	catFR1	1	R1397D
995.632	12.383	1008329	PROB	12.383	n/a	n/a	n/a	-999	7	[1, 5, 7]	13	catFR1	1	R1397D
1008.015	0.0	1020711	STOP	n/a	n/a	n/a	n/a	-999	7	[-999, -999, -999]	n/a	catFR1	1	R1397D
1008.015	2.183	1020716	DISTRACT_END	n/a	n/a	n/a	n/a	-999	7	[0, 0, 0]	n/a	catFR1	1	R1397D
1010.198	1.302	1022890	REC_START	n/a	n/a	n/a	n/a	-999	7	[0, 0, 0]	n/a	catFR1	1	R1397D
1011.5	1.538	1024196	REC_WORD	1.538	n/a	LEATHER	Fabric	1	7	[0, 0, 0]	n/a	catFR1	1	R1397D
1013.038	1.897	1025734	REC_WORD	1.897	n/a	DESK	Furniture	9	7	[0, 0, 0]	n/a	catFR1	1	R1397D
1014.935	4.56	1027631	REC_WORD	4.56	n/a	HEAD	BodyParts	12	7	[0, 0, 0]	n/a	catFR1	1	R1397D
1019.495	1.0	1032191	REC_WORD_VV	1.0	n/a	<>	n/a	-999	7	[0, 0, 0]	n/a	catFR1	1	R1397D
1020.495	7.486	1033191	REC_WORD_VV	7.486	n/a	<>	n/a	-999	7	[0, 0, 0]	n/a	catFR1	1	R1397D
1027.981	5.993	1040676	REC_WORD_VV	5.993	n/a	<>	n/a	-999	7	[0, 0, 0]	n/a	catFR1	1	R1397D
1033.974	5.373	1046669	REC_WORD_VV	5.373	n/a	<>	n/a	-999	7	[0, 0, 0]	n/a	catFR1	1	R1397D
1039.347	1.066	1052042	REC_WORD_VV	1.066	n/a	<>	n/a	-999	7	[0, 0, 0]	n/a	catFR1	1	R1397D
1040.413	556.835	1053108	REC_END	n/a	n/a	n/a	n/a	-999	7	[0, 0, 0]	n/a	catFR1	1	R1397D
1597.248	10.351	1609913	COUNTDOWN_START	n/a	n/a	n/a	n/a	-999	8	[0, 0, 0]	n/a	catFR1	1	R1397D
1607.599	0.0	1620268	COUNTDOWN_END	n/a	n/a	n/a	n/a	-999	8	[0, 0, 0]	n/a	catFR1	1	R1397D
1607.599	2.333	1620268	ENCODING_START	n/a	n/a	n/a	n/a	-999	8	[0, 0, 0]	n/a	catFR1	1	R1397D
1609.932	1.6	1622597	WORD	n/a	wordpools/wordpool_categorized_EN.txt	ONION	Vegetables	1	8	[0, 0, 0]	n/a	catFR1	1	R1397D
1611.532	0.933	1624196	WORD_OFF	n/a	n/a	ONION	Vegetables	1	8	[0, 0, 0]	n/a	catFR1	1	R1397D
1612.465	1.617	1625127	WORD	n/a	wordpools/wordpool_categorized_EN.txt	PEAS	Vegetables	2	8	[0, 0, 0]	n/a	catFR1	1	R1397D
1614.082	0.9	1626747	WORD_OFF	n/a	n/a	PEAS	Vegetables	2	8	[0, 0, 0]	n/a	catFR1	1	R1397D
1614.982	1.615	1627648	WORD	n/a	wordpools/wordpool_categorized_EN.txt	DOLPHIN	OceanAnimals	3	8	[0, 0, 0]	n/a	catFR1	1	R1397D
1616.597	0.785	1629267	WORD_OFF	n/a	n/a	DOLPHIN	OceanAnimals	3	8	[0, 0, 0]	n/a	catFR1	1	R1397D
1617.382	1.6	1630047	WORD	n/a	wordpools/wordpool_categorized_EN.txt	OCTOPUS	OceanAnimals	4	8	[0, 0, 0]	n/a	catFR1	1	R1397D
1618.982	0.934	1631646	WORD_OFF	n/a	n/a	OCTOPUS	OceanAnimals	4	8	[0, 0, 0]	n/a	catFR1	1	R1397D
1619.916	1.616	1632577	WORD	n/a	wordpools/wordpool_categorized_EN.txt	ROOF	Building	5	8	[0, 0, 0]	n/a	catFR1	1	R1397D
1621.532	0.9	1634197	WORD_OFF	n/a	n/a	ROOF	Building	5	8	[0, 0, 0]	n/a	catFR1	1	R1397D
1622.432	1.6	1635098	WORD	n/a	wordpools/wordpool_categorized_EN.txt	DOOR	Building	6	8	[0, 0, 0]	n/a	catFR1	1	R1397D
1624.032	0.783	1636697	WORD_OFF	n/a	n/a	DOOR	Building	6	8	[0, 0, 0]	n/a	catFR1	1	R1397D
1624.815	1.617	1637477	WORD	n/a	wordpools/wordpool_categorized_EN.txt	LOBSTER	OceanAnimals	7	8	[0, 0, 0]	n/a	catFR1	1	R1397D
1626.432	0.85	1639096	WORD_OFF	n/a	n/a	LOBSTER	OceanAnimals	7	8	[0, 0, 0]	n/a	catFR1	1	R1397D
1627.282	1.6	1639946	WORD	n/a	wordpools/wordpool_categorized_EN.txt	JELLYFISH	OceanAnimals	8	8	[0, 0, 0]	n/a	catFR1	1	R1397D
1628.882	0.933	1641546	WORD_OFF	n/a	n/a	JELLYFISH	OceanAnimals	8	8	[0, 0, 0]	n/a	catFR1	1	R1397D
1629.815	1.616	1642477	WORD	n/a	wordpools/wordpool_categorized_EN.txt	HALLWAY	Building	9	8	[0, 0, 0]	n/a	catFR1	1	R1397D
1631.431	0.8	1644097	WORD_OFF	n/a	n/a	HALLWAY	Building	9	8	[0, 0, 0]	n/a	catFR1	1	R1397D
1632.231	1.6	1644896	WORD	n/a	wordpools/wordpool_categorized_EN.txt	WINDOW	Building	10	8	[0, 0, 0]	n/a	catFR1	1	R1397D
1633.831	0.867	1646496	WORD_OFF	n/a	n/a	WINDOW	Building	10	8	[0, 0, 0]	n/a	catFR1	1	R1397D
1634.698	1.617	1647366	WORD	n/a	wordpools/wordpool_categorized_EN.txt	CORN	Vegetables	11	8	[0, 0, 0]	n/a	catFR1	1	R1397D
1636.315	0.966	1648976	WORD_OFF	n/a	n/a	CORN	Vegetables	11	8	[0, 0, 0]	n/a	catFR1	1	R1397D
1637.281	1.601	1649947	WORD	n/a	wordpools/wordpool_categorized_EN.txt	CABBAGE	Vegetables	12	8	[0, 0, 0]	n/a	catFR1	1	R1397D
1638.882	0.0	1651546	PROB	0.0	n/a	n/a	n/a	-999	8	[3, 5, 1]	9	catFR1	1	R1397D
1638.881	0.002	1651547	WORD_OFF	n/a	n/a	CABBAGE	Vegetables	12	8	[0, 0, 0]	n/a	catFR1	1	R1397D
1638.883	0.0	1651547	ENCODING_END	n/a	n/a	n/a	n/a	-999	8	[0, 0, 0]	n/a	catFR1	1	R1397D
1638.883	0.0	1651547	DISTRACT_START	n/a	n/a	n/a	n/a	-999	8	[0, 0, 0]	n/a	catFR1	1	R1397D
1638.883	9.615	1651547	START	n/a	n/a	n/a	n/a	-999	8	[-999, -999, -999]	n/a	catFR1	1	R1397D
1648.498	7.05	1661162	PROB	7.05	n/a	n/a	n/a	-999	8	[5, 8, 5]	18	catFR1	1	R1397D
1655.548	11.434	1668211	PROB	11.434	n/a	n/a	n/a	-999	8	[4, 6, 3]	13	catFR1	1	R1397D
1666.982	0.0	1679645	STOP	n/a	n/a	n/a	n/a	-999	8	[-999, -999, -999]	n/a	catFR1	1	R1397D
1666.982	2.366	1679647	DISTRACT_END	n/a	n/a	n/a	n/a	-999	8	[0, 0, 0]	n/a	catFR1	1	R1397D
1669.348	1.34	1682013	REC_START	n/a	n/a	n/a	n/a	-999	8	[0, 0, 0]	n/a	catFR1	1	R1397D
1670.688	0.815	1683351	REC_WORD	0.815	n/a	PEAS	Vegetables	2	8	[0, 0, 0]	n/a	catFR1	1	R1397D
1671.503	2.244	1684165	REC_WORD	2.244	n/a	CARROTS	n/a	-999	8	[0, 0, 0]	n/a	catFR1	1	R1397D
1673.747	1.917	1686409	REC_WORD	1.917	n/a	CORN	Vegetables	11	8	[0, 0, 0]	n/a	catFR1	1	R1397D
1675.664	4.328	1688326	REC_WORD	4.328	n/a	LOBSTER	OceanAnimals	7	8	[0, 0, 0]	n/a	catFR1	1	R1397D
1679.992	19.566	1692654	REC_WORD_VV	19.566	n/a	<>	n/a	-999	8	[0, 0, 0]	n/a	catFR1	1	R1397D
1699.558	2.741	1712221	REC_END	n/a	n/a	n/a	n/a	-999	8	[0, 0, 0]	n/a	catFR1	1	R1397D
1702.299	10.35	1714964	COUNTDOWN_START	n/a	n/a	n/a	n/a	-999	9	[0, 0, 0]	n/a	catFR1	1	R1397D
1712.649	0.0	1725309	COUNTDOWN_END	n/a	n/a	n/a	n/a	-999	9	[0, 0, 0]	n/a	catFR1	1	R1397D
1712.649	1.883	1725309	ENCODING_START	n/a	n/a	n/a	n/a	-999	9	[0, 0, 0]	n/a	catFR1	1	R1397D
1714.532	1.616	1727192	WORD	n/a	wordpools/wordpool_categorized_EN.txt	CALCULATOR	Electronics	1	9	[0, 0, 0]	n/a	catFR1	1	R1397D
1716.148	0.9	1728811	WORD_OFF	n/a	n/a	CALCULATOR	Electronics	1	9	[0, 0, 0]	n/a	catFR1	1	R1397D
1717.048	1.6	1729712	WORD	n/a	wordpools/wordpool_categorized_EN.txt	HEADPHONES	Electronics	2	9	[0, 0, 0]	n/a	catFR1	1	R1397D
1718.648	0.951	1731312	WORD_OFF	n/a	n/a	HEADPHONES	Electronics	2	9	[0, 0, 0]	n/a	catFR1	1	R1397D
1719.599	1.616	1732263	WORD	n/a	wordpools/wordpool_categorized_EN.txt	EAR	BodyParts	3	9	[0, 0, 0]	n/a	catFR1	1	R1397D
1721.215	0.85	1733873	WORD_OFF	n/a	n/a	EAR	BodyParts	3	9	[0, 0, 0]	n/a	catFR1	1	R1397D
1722.065	1.616	1734723	WORD	n/a	wordpools/wordpool_categorized_EN.txt	ELBOW	BodyParts	4	9	[0, 0, 0]	n/a	catFR1	1	R1397D
1723.681	0.867	1736343	WORD_OFF	n/a	n/a	ELBOW	BodyParts	4	9	[0, 0, 0]	n/a	catFR1	1	R1397D
1724.548	1.6	1737213	WORD	n/a	wordpools/wordpool_categorized_EN.txt	FUDGE	Desserts	5	9	[0, 0, 0]	n/a	catFR1	1	R1397D
1726.148	0.967	1738812	WORD_OFF	n/a	n/a	FUDGE	Desserts	5	9	[0, 0, 0]	n/a	catFR1	1	R1397D
1727.115	1.6	1739774	WORD	n/a	wordpools/wordpool_categorized_EN.txt	CUPCAKE	Desserts	6	9	[0, 0, 0]	n/a	catFR1	1	R1397D
1728.715	0.783	1741373	WORD_OFF	n/a	n/a	CUPCAKE	Desserts	6	9	[0, 0, 0]	n/a	catFR1	1	R1397D
1729.498	1.6	1742163	WORD	n/a	wordpools/wordpool_categorized_EN.txt	ARM	BodyParts	7	9	[0, 0, 0]	n/a	catFR1	1	R1397D
1731.098	0.816	1743762	WORD_OFF	n/a	n/a	ARM	BodyParts	7	9	[0, 0, 0]	n/a	catFR1	1	R1397D
1731.914	1.601	1744572	WORD	n/a	wordpools/wordpool_categorized_EN.txt	FINGERS	BodyParts	8	9	[0, 0, 0]	n/a	catFR1	1	R1397D
1733.515	0.799	1746171	WORD_OFF	n/a	n/a	FINGERS	BodyParts	8	9	[0, 0, 0]	n/a	catFR1	1	R1397D
1734.314	1.6	1746971	WORD	n/a	wordpools/wordpool_categorized_EN.txt	MICROWAVE	Electronics	9	9	[0, 0, 0]	n/a	catFR1	1	R1397D
1735.914	0.917	1748570	WORD_OFF	n/a	n/a	MICROWAVE	Electronics	9	9	[0, 0, 0]	n/a	catFR1	1	R1397D
1736.831	1.6	1749492	WORD	n/a	wordpools/wordpool_categorized_EN.txt	RADIO	Electronics	10	9	[0, 0, 0]	n/a	catFR1	1	R1397D
1738.431	0.883	1751091	WORD_OFF	n/a	n/a	RADIO	Electronics	10	9	[0, 0, 0]	n/a	catFR1	1	R1397D
1739.314	1.6	1751972	WORD	n/a	wordpools/wordpool_categorized_EN.txt	PUDDING	Desserts	11	9	[0, 0, 0]	n/a	catFR1	1	R1397D
1740.914	0.9	1753571	WORD_OFF	n/a	n/a	PUDDING	Desserts	11	9	[0, 0, 0]	n/a	catFR1	1	R1397D
1741.814	1.6	1754472	WORD	n/a	wordpools/wordpool_categorized_EN.txt	CAKE	Desserts	12	9	[0, 0, 0]	n/a	catFR1	1	R1397D
1743.414	0.001	1756071	WORD_OFF	n/a	n/a	CAKE	Desserts	12	9	[0, 0, 0]	n/a	catFR1	1	R1397D
1743.415	0.001	1756074	PROB	0.001	n/a	n/a	n/a	-999	9	[4, 1, 2]	7	catFR1	1	R1397D
1743.416	0.0	1756075	START	n/a	n/a	n/a	n/a	-999	9	[-999, -999, -999]	n/a	catFR1	1	R1397D
1743.416	0.0	1756081	ENCODING_END	n/a	n/a	n/a	n/a	-999	9	[0, 0, 0]	n/a	catFR1	1	R1397D
1743.416	19.033	1756081	DISTRACT_START	n/a	n/a	n/a	n/a	-999	9	[0, 0, 0]	n/a	catFR1	1	R1397D
1762.449	19.016	1775107	PROB	19.016	n/a	n/a	n/a	-999	9	[6, 5, 6]	17	catFR1	1	R1397D
1781.465	0.0	1794121	DISTRACT_END	n/a	n/a	n/a	n/a	-999	9	[0, 0, 0]	n/a	catFR1	1	R1397D
1781.465	2.383	1794122	STOP	n/a	n/a	n/a	n/a	-999	9	[-999, -999, -999]	n/a	catFR1	1	R1397D
1783.848	1.012	1796508	REC_START	n/a	n/a	n/a	n/a	-999	9	[0, 0, 0]	n/a	catFR1	1	R1397D
1784.86	0.41	1797517	REC_WORD_VV	0.41	n/a	<>	n/a	-999	9	[0, 0, 0]	n/a	catFR1	1	R1397D
1785.27	0.917	1797927	REC_WORD	0.917	n/a	FISH	n/a	-999	9	[0, 0, 0]	n/a	catFR1	1	R1397D
1786.187	3.925	1798844	REC_WORD	3.925	n/a	CUPCAKE	Desserts	6	9	[0, 0, 0]	n/a	catFR1	1	R1397D
1790.112	1.0	1802768	REC_WORD	1.0	n/a	EGGS	n/a	-999	9	[0, 0, 0]	n/a	catFR1	1	R1397D
1791.112	22.953	1803768	REC_WORD_VV	22.953	n/a	<>	n/a	-999	9	[0, 0, 0]	n/a	catFR1	1	R1397D
1814.065	1.75	1826726	REC_END	n/a	n/a	n/a	n/a	-999	9	[0, 0, 0]	n/a	catFR1	1	R1397D
1815.815	10.35	1828477	COUNTDOWN_START	n/a	n/a	n/a	n/a	-999	10	[0, 0, 0]	n/a	catFR1	1	R1397D
1826.165	0.0	1838822	COUNTDOWN_END	n/a	n/a	n/a	n/a	-999	10	[0, 0, 0]	n/a	catFR1	1	R1397D
1826.165	2.033	1838822	ENCODING_START	n/a	n/a	n/a	n/a	-999	10	[0, 0, 0]	n/a	catFR1	1	R1397D
1828.198	1.602	1840857	WORD	n/a	wordpools/wordpool_categorized_EN.txt	ISLAND	Landscapes	1	10	[0, 0, 0]	n/a	catFR1	1	R1397D
1829.8	0.948	1842456	WORD_OFF	n/a	n/a	ISLAND	Landscapes	1	10	[0, 0, 0]	n/a	catFR1	1	R1397D
1830.748	1.6	1843397	WORD	n/a	wordpools/wordpool_categorized_EN.txt	BEACH	Landscapes	2	10	[0, 0, 0]	n/a	catFR1	1	R1397D
1832.348	0.866	1845007	WORD_OFF	n/a	n/a	BEACH	Landscapes	2	10	[0, 0, 0]	n/a	catFR1	1	R1397D
1833.214	1.601	1845867	WORD	n/a	wordpools/wordpool_categorized_EN.txt	TELEVISION	Electronics	3	10	[0, 0, 0]	n/a	catFR1	1	R1397D
1834.815	0.984	1847467	WORD_OFF	n/a	n/a	TELEVISION	Electronics	3	10	[0, 0, 0]	n/a	catFR1	1	R1397D
1835.799	1.599	1848449	WORD	n/a	wordpools/wordpool_categorized_EN.txt	TABLET	Electronics	4	10	[0, 0, 0]	n/a	catFR1	1	R1397D
1837.398	0.783	1850058	WORD_OFF	n/a	n/a	TABLET	Electronics	4	10	[0, 0, 0]	n/a	catFR1	1	R1397D
1838.181	1.601	1850837	WORD	n/a	wordpools/wordpool_categorized_EN.txt	SHRIMP	OceanAnimals	5	10	[0, 0, 0]	n/a	catFR1	1	R1397D
1839.782	1.0	1852437	WORD_OFF	n/a	n/a	SHRIMP	OceanAnimals	5	10	[0, 0, 0]	n/a	catFR1	1	R1397D
1840.782	1.616	1853439	WORD	n/a	wordpools/wordpool_categorized_EN.txt	WHALE	OceanAnimals	6	10	[0, 0, 0]	n/a	catFR1	1	R1397D
1842.398	0.867	1855048	WORD_OFF	n/a	n/a	WHALE	OceanAnimals	6	10	[0, 0, 0]	n/a	catFR1	1	R1397D
1843.265	1.6	1855919	WORD	n/a	wordpools/wordpool_categorized_EN.txt	SPEAKER	Electronics	7	10	[0, 0, 0]	n/a	catFR1	1	R1397D
1844.865	0.899	1857518	WORD_OFF	n/a	n/a	SPEAKER	Electronics	7	10	[0, 0, 0]	n/a	catFR1	1	R1397D
1845.764	1.601	1858419	WORD	n/a	wordpools/wordpool_categorized_EN.txt	COMPUTER	Electronics	8	10	[0, 0, 0]	n/a	catFR1	1	R1397D
1847.365	0.933	1860019	WORD_OFF	n/a	n/a	COMPUTER	Electronics	8	10	[0, 0, 0]	n/a	catFR1	1	R1397D
1848.298	1.601	1860950	WORD	n/a	wordpools/wordpool_categorized_EN.txt	TURTLE	OceanAnimals	9	10	[0, 0, 0]	n/a	catFR1	1	R1397D
1849.899	0.816	1862549	WORD_OFF	n/a	n/a	TURTLE	OceanAnimals	9	10	[0, 0, 0]	n/a	catFR1	1	R1397D
1850.715	1.617	1863369	WORD	n/a	wordpools/wordpool_categorized_EN.txt	FISH	OceanAnimals	10	10	[0, 0, 0]	n/a	catFR1	1	R1397D
1852.332	0.8	1864989	WORD_OFF	n/a	n/a	FISH	OceanAnimals	10	10	[0, 0, 0]	n/a	catFR1	1	R1397D
1853.132	1.6	1865788	WORD	n/a	wordpools/wordpool_categorized_EN.txt	LAKE	Landscapes	11	10	[0, 0, 0]	n/a	catFR1	1	R1397D
1854.732	0.85	1867388	WORD_OFF	n/a	n/a	LAKE	Landscapes	11	10	[0, 0, 0]	n/a	catFR1	1	R1397D
1855.582	1.617	1868238	WORD	n/a	wordpools/wordpool_categorized_EN.txt	HILLS	Landscapes	12	10	[0, 0, 0]	n/a	catFR1	1	R1397D
1857.199	0.0	1869847	WORD_OFF	n/a	n/a	HILLS	Landscapes	12	10	[0, 0, 0]	n/a	catFR1	1	R1397D
1857.199	0.001	1869852	PROB	0.001	n/a	n/a	n/a	-999	10	[4, 4, 6]	14	catFR1	1	R1397D
1857.2	0.0	1869853	START	n/a	n/a	n/a	n/a	-999	10	[-999, -999, -999]	n/a	catFR1	1	R1397D
1857.2	0.0	1869858	ENCODING_END	n/a	n/a	n/a	n/a	-999	10	[0, 0, 0]	n/a	catFR1	1	R1397D
1857.2	8.832	1869858	DISTRACT_START	n/a	n/a	n/a	n/a	-999	10	[0, 0, 0]	n/a	catFR1	1	R1397D
1866.032	7.35	1878684	PROB	7.35	n/a	n/a	n/a	-999	10	[8, 5, 2]	15	catFR1	1	R1397D
1873.382	3.016	1886034	PROB	3.016	n/a	n/a	n/a	-999	10	[5, 2, 2]	9	catFR1	1	R1397D
1876.398	6.334	1889050	PROB	6.334	n/a	n/a	n/a	-999	10	[1, 5, 3]	9	catFR1	1	R1397D
1882.732	0.0	1895384	STOP	n/a	n/a	n/a	n/a	-999	10	[-999, -999, -999]	n/a	catFR1	1	R1397D
1882.732	2.233	1895386	DISTRACT_END	n/a	n/a	n/a	n/a	-999	10	[0, 0, 0]	n/a	catFR1	1	R1397D
1884.965	2.457	1897621	REC_START	n/a	n/a	n/a	n/a	-999	10	[0, 0, 0]	n/a	catFR1	1	R1397D
1887.422	3.583	1900073	REC_WORD_VV	3.583	n/a	<>	n/a	-999	10	[0, 0, 0]	n/a	catFR1	1	R1397D
1891.005	1.002	1903656	REC_WORD	1.002	n/a	ICECREAM	n/a	-999	10	[0, 0, 0]	n/a	catFR1	1	R1397D
1892.007	23.17	1904658	REC_WORD	23.17	n/a	FISH	OceanAnimals	10	10	[0, 0, 0]	n/a	catFR1	1	R1397D
1915.177	1.938	1927829	REC_END	n/a	n/a	n/a	n/a	-999	10	[0, 0, 0]	n/a	catFR1	1	R1397D
1917.115	10.351	1929762	COUNTDOWN_START	n/a	n/a	n/a	n/a	-999	11	[0, 0, 0]	n/a	catFR1	1	R1397D
1927.466	0.0	1940117	COUNTDOWN_END	n/a	n/a	n/a	n/a	-999	11	[0, 0, 0]	n/a	catFR1	1	R1397D
1927.466	2.2	1940117	ENCODING_START	n/a	n/a	n/a	n/a	-999	11	[0, 0, 0]	n/a	catFR1	1	R1397D
1929.666	1.616	1942314	WORD	n/a	wordpools/wordpool_categorized_EN.txt	PLANKTON	OceanAnimals	1	11	[0, 0, 0]	n/a	catFR1	1	R1397D
1931.282	0.851	1943934	WORD_OFF	n/a	n/a	PLANKTON	OceanAnimals	1	11	[0, 0, 0]	n/a	catFR1	1	R1397D
1932.133	1.616	1944784	WORD	n/a	wordpools/wordpool_categorized_EN.txt	SQUID	OceanAnimals	2	11	[0, 0, 0]	n/a	catFR1	1	R1397D
1933.749	0.833	1946403	WORD_OFF	n/a	n/a	SQUID	OceanAnimals	2	11	[0, 0, 0]	n/a	catFR1	1	R1397D
1934.582	1.617	1947233	WORD	n/a	wordpools/wordpool_categorized_EN.txt	CARDINAL	Birds	3	11	[0, 0, 0]	n/a	catFR1	1	R1397D
1936.199	0.832	1948853	WORD_OFF	n/a	n/a	CARDINAL	Birds	3	11	[0, 0, 0]	n/a	catFR1	1	R1397D
1937.031	1.6	1949683	WORD	n/a	wordpools/wordpool_categorized_EN.txt	ROBIN	Birds	4	11	[0, 0, 0]	n/a	catFR1	1	R1397D
1938.631	0.868	1951282	WORD_OFF	n/a	n/a	ROBIN	Birds	4	11	[0, 0, 0]	n/a	catFR1	1	R1397D
1939.499	1.6	1952143	WORD	n/a	wordpools/wordpool_categorized_EN.txt	FLEECE	Fabric	5	11	[0, 0, 0]	n/a	catFR1	1	R1397D
1941.099	0.965	1953752	WORD_OFF	n/a	n/a	FLEECE	Fabric	5	11	[0, 0, 0]	n/a	catFR1	1	R1397D
1942.064	1.601	1954714	WORD	n/a	wordpools/wordpool_categorized_EN.txt	NYLON	Fabric	6	11	[0, 0, 0]	n/a	catFR1	1	R1397D
1943.665	0.917	1956313	WORD_OFF	n/a	n/a	NYLON	Fabric	6	11	[0, 0, 0]	n/a	catFR1	1	R1397D
1944.582	1.6	1957234	WORD	n/a	wordpools/wordpool_categorized_EN.txt	CRAB	OceanAnimals	7	11	[0, 0, 0]	n/a	catFR1	1	R1397D
1946.182	0.883	1958834	WORD_OFF	n/a	n/a	CRAB	OceanAnimals	7	11	[0, 0, 0]	n/a	catFR1	1	R1397D
1947.065	1.6	1959714	WORD	n/a	wordpools/wordpool_categorized_EN.txt	OYSTER	OceanAnimals	8	11	[0, 0, 0]	n/a	catFR1	1	R1397D
1948.665	0.899	1961314	WORD_OFF	n/a	n/a	OYSTER	OceanAnimals	8	11	[0, 0, 0]	n/a	catFR1	1	R1397D
1949.564	1.601	1962215	WORD	n/a	wordpools/wordpool_categorized_EN.txt	VELVET	Fabric	9	11	[0, 0, 0]	n/a	catFR1	1	R1397D
1951.165	0.967	1963814	WORD_OFF	n/a	n/a	VELVET	Fabric	9	11	[0, 0, 0]	n/a	catFR1	1	R1397D
1952.132	1.617	1964776	WORD	n/a	wordpools/wordpool_categorized_EN.txt	WOOL	Fabric	10	11	[0, 0, 0]	n/a	catFR1	1	R1397D
1953.749	0.95	1966395	WORD_OFF	n/a	n/a	WOOL	Fabric	10	11	[0, 0, 0]	n/a	catFR1	1	R1397D
1954.699	1.616	1967347	WORD	n/a	wordpools/wordpool_categorized_EN.txt	DOVE	Birds	11	11	[0, 0, 0]	n/a	catFR1	1	R1397D
1956.315	0.8	1968966	WORD_OFF	n/a	n/a	DOVE	Birds	11	11	[0, 0, 0]	n/a	catFR1	1	R1397D
1957.115	1.617	1969766	WORD	n/a	wordpools/wordpool_categorized_EN.txt	SPARROW	Birds	12	11	[0, 0, 0]	n/a	catFR1	1	R1397D
1958.732	0.001	1971376	WORD_OFF	n/a	n/a	SPARROW	Birds	12	11	[0, 0, 0]	n/a	catFR1	1	R1397D
1958.733	0.001	1971381	PROB	0.001	n/a	n/a	n/a	-999	11	[5, 8, 4]	17	catFR1	1	R1397D
1958.734	0.0	1971382	START	n/a	n/a	n/a	n/a	-999	11	[-999, -999, -999]	n/a	catFR1	1	R1397D
1958.734	0.0	1971386	ENCODING_END	n/a	n/a	n/a	n/a	-999	11	[0, 0, 0]	n/a	catFR1	1	R1397D
1958.734	9.882	1971386	DISTRACT_START	n/a	n/a	n/a	n/a	-999	11	[0, 0, 0]	n/a	catFR1	1	R1397D
1968.616	2.95	1981263	PROB	2.95	n/a	n/a	n/a	-999	11	[7, 3, 2]	12	catFR1	1	R1397D
1971.566	4.299	1984213	PROB	4.299	n/a	n/a	n/a	-999	11	[2, 8, 1]	11	catFR1	1	R1397D
1975.865	6.6	1988512	PROB	6.6	n/a	n/a	n/a	-999	11	[7, 6, 1]	14	catFR1	1	R1397D
1982.465	0.0	1995111	STOP	n/a	n/a	n/a	n/a	-999	11	[-999, -999, -999]	n/a	catFR1	1	R1397D
1982.465	2.133	1995113	DISTRACT_END	n/a	n/a	n/a	n/a	-999	11	[0, 0, 0]	n/a	catFR1	1	R1397D
1984.598	1.104	1997246	REC_START	n/a	n/a	n/a	n/a	-999	11	[0, 0, 0]	n/a	catFR1	1	R1397D
1985.702	0.458	1998348	REC_WORD_VV	0.458	n/a	<>	n/a	-999	11	[0, 0, 0]	n/a	catFR1	1	R1397D
1986.16	0.585	1998806	REC_WORD	0.585	n/a	CARDINAL	Birds	3	11	[0, 0, 0]	n/a	catFR1	1	R1397D
1986.745	3.809	1999391	REC_WORD	3.809	n/a	SPARROW	Birds	12	11	[0, 0, 0]	n/a	catFR1	1	R1397D
1990.554	4.137	2003200	REC_WORD_VV	4.137	n/a	<>	n/a	-999	11	[0, 0, 0]	n/a	catFR1	1	R1397D
1994.691	20.129	2007337	REC_WORD_VV	20.129	n/a	<>	n/a	-999	11	[0, 0, 0]	n/a	catFR1	1	R1397D
2014.82	2.678	2027464	REC_END	n/a	n/a	n/a	n/a	-999	11	[0, 0, 0]	n/a	catFR1	1	R1397D
2017.498	10.351	2030146	COUNTDOWN_START	n/a	n/a	n/a	n/a	-999	12	[0, 0, 0]	n/a	catFR1	1	R1397D
2027.849	0.0	2040492	COUNTDOWN_END	n/a	n/a	n/a	n/a	-999	12	[0, 0, 0]	n/a	catFR1	1	R1397D
2027.849	2.016	2040492	ENCODING_START	n/a	n/a	n/a	n/a	-999	12	[0, 0, 0]	n/a	catFR1	1	R1397D
2029.865	1.6	2042506	WORD	n/a	wordpools/wordpool_categorized_EN.txt	COTTON	Fabric	1	12	[0, 0, 0]	n/a	catFR1	1	R1397D
2031.465	0.984	2044105	WORD_OFF	n/a	n/a	COTTON	Fabric	1	12	[0, 0, 0]	n/a	catFR1	1	R1397D
2032.449	1.6	2045097	WORD	n/a	wordpools/wordpool_categorized_EN.txt	SILK	Fabric	2	12	[0, 0, 0]	n/a	catFR1	1	R1397D
2034.049	0.983	2046697	WORD_OFF	n/a	n/a	SILK	Fabric	2	12	[0, 0, 0]	n/a	catFR1	1	R1397D
2035.032	1.617	2047678	WORD	n/a	wordpools/wordpool_categorized_EN.txt	BATHROOM	Building	3	12	[0, 0, 0]	n/a	catFR1	1	R1397D
2036.649	0.883	2049288	WORD_OFF	n/a	n/a	BATHROOM	Building	3	12	[0, 0, 0]	n/a	catFR1	1	R1397D
2037.532	1.616	2050179	WORD	n/a	wordpools/wordpool_categorized_EN.txt	ATTIC	Building	4	12	[0, 0, 0]	n/a	catFR1	1	R1397D
2039.148	0.817	2051788	WORD_OFF	n/a	n/a	ATTIC	Building	4	12	[0, 0, 0]	n/a	catFR1	1	R1397D
2039.965	1.6	2052608	WORD	n/a	wordpools/wordpool_categorized_EN.txt	SEAGULL	Birds	5	12	[0, 0, 0]	n/a	catFR1	1	R1397D
2041.565	0.967	2054207	WORD_OFF	n/a	n/a	SEAGULL	Birds	5	12	[0, 0, 0]	n/a	catFR1	1	R1397D
2042.532	1.617	2055179	WORD	n/a	wordpools/wordpool_categorized_EN.txt	GOOSE	Birds	6	12	[0, 0, 0]	n/a	catFR1	1	R1397D
2044.149	0.833	2056789	WORD_OFF	n/a	n/a	GOOSE	Birds	6	12	[0, 0, 0]	n/a	catFR1	1	R1397D
2044.982	1.616	2057629	WORD	n/a	wordpools/wordpool_categorized_EN.txt	ROOM	Building	7	12	[0, 0, 0]	n/a	catFR1	1	R1397D
2046.598	0.817	2059238	WORD_OFF	n/a	n/a	ROOM	Building	7	12	[0, 0, 0]	n/a	catFR1	1	R1397D
2047.415	1.617	2060058	WORD	n/a	wordpools/wordpool_categorized_EN.txt	FLOOR	Building	8	12	[0, 0, 0]	n/a	catFR1	1	R1397D
2049.032	0.85	2061678	WORD_OFF	n/a	n/a	FLOOR	Building	8	12	[0, 0, 0]	n/a	catFR1	1	R1397D
2049.882	1.617	2062528	WORD	n/a	wordpools/wordpool_categorized_EN.txt	SPANDEX	Fabric	9	12	[0, 0, 0]	n/a	catFR1	1	R1397D
2051.499	0.9	2064138	WORD_OFF	n/a	n/a	SPANDEX	Fabric	9	12	[0, 0, 0]	n/a	catFR1	1	R1397D
2052.399	1.599	2065038	WORD	n/a	wordpools/wordpool_categorized_EN.txt	DENIM	Fabric	10	12	[0, 0, 0]	n/a	catFR1	1	R1397D
2053.998	0.917	2066638	WORD_OFF	n/a	n/a	DENIM	Fabric	10	12	[0, 0, 0]	n/a	catFR1	1	R1397D
2054.915	1.6	2067559	WORD	n/a	wordpools/wordpool_categorized_EN.txt	DUCK	Birds	11	12	[0, 0, 0]	n/a	catFR1	1	R1397D
2056.515	0.9	2069158	WORD_OFF	n/a	n/a	DUCK	Birds	11	12	[0, 0, 0]	n/a	catFR1	1	R1397D
2057.415	1.618	2070059	WORD	n/a	wordpools/wordpool_categorized_EN.txt	PIGEON	Birds	12	12	[0, 0, 0]	n/a	catFR1	1	R1397D
2059.033	0.001	2071676	PROB	0.001	n/a	n/a	n/a	-999	12	[6, 8, 6]	20	catFR1	1	R1397D
2059.034	0.0	2071677	START	n/a	n/a	n/a	n/a	-999	12	[-999, -999, -999]	n/a	catFR1	1	R1397D
2059.032	0.002	2071679	WORD_OFF	n/a	n/a	PIGEON	Birds	12	12	[0, 0, 0]	n/a	catFR1	1	R1397D
2059.034	0.0	2071679	ENCODING_END	n/a	n/a	n/a	n/a	-999	12	[0, 0, 0]	n/a	catFR1	1	R1397D
2059.034	12.965	2071679	DISTRACT_START	n/a	n/a	n/a	n/a	-999	12	[0, 0, 0]	n/a	catFR1	1	R1397D
2071.999	7.666	2084641	PROB	7.666	n/a	n/a	n/a	-999	12	[7, 8, 6]	1	catFR1	1	R1397D
2079.665	0.0	2092307	STOP	n/a	n/a	n/a	n/a	-999	12	[-999, -999, -999]	n/a	catFR1	1	R1397D
2079.665	2.2	2092308	DISTRACT_END	n/a	n/a	n/a	n/a	-999	12	[0, 0, 0]	n/a	catFR1	1	R1397D
2081.865	6.097	2094503	REC_START	n/a	n/a	n/a	n/a	-999	12	[0, 0, 0]	n/a	catFR1	1	R1397D
2087.962	2.28	2100603	REC_WORD_VV	2.28	n/a	<>	n/a	-999	12	[0, 0, 0]	n/a	catFR1	1	R1397D
2090.242	0.798	2102883	REC_WORD	0.798	n/a	FLOOR	Building	8	12	[0, 0, 0]	n/a	catFR1	1	R1397D
2091.04	3.052	2103681	REC_WORD	3.052	n/a	SPANDEX	Fabric	9	12	[0, 0, 0]	n/a	catFR1	1	R1397D
2094.092	17.969	2106733	REC_WORD_VV	17.969	n/a	<>	n/a	-999	12	[0, 0, 0]	n/a	catFR1	1	R1397D
2112.061	0.0	2124700	REC_END	n/a	n/a	n/a	n/a	-999	12	[0, 0, 0]	n/a	catFR1	1	R1397D
