onset	duration	sample	trial_type	response_time	stim_file	item_name	category	serialpos	list	test	answer	experiment	session	subject
0.0	356.435	792	INSTRUCT_START	n/a	n/a	n/a	n/a	-999	-999	[0, 0, 0]	n/a	catFR1	0	R1290M
356.435	4.718	357211	INSTRUCT_END	n/a	n/a	n/a	n/a	-999	-999	[0, 0, 0]	n/a	catFR1	0	R1290M
361.153	11.384	361929	MIC TEST_START	n/a	n/a	n/a	n/a	-999	-999	[0, 0, 0]	n/a	catFR1	0	R1290M
372.537	0.012	373313	MIC TEST_END	n/a	n/a	n/a	n/a	-999	-999	[0, 0, 0]	n/a	catFR1	0	R1290M
372.549	0.0	373325	TRIAL_START	n/a	n/a	n/a	n/a	-999	-1	[0, 0, 0]	n/a	catFR1	0	R1290M
372.549	0.001	373325	TRIAL	n/a	n/a	n/a	n/a	-999	-1	[0, 0, 0]	n/a	catFR1	0	R1290M
372.55	3.023	373326	WAITING_START	n/a	n/a	n/a	n/a	-999	-1	[0, 0, 0]	n/a	catFR1	0	R1290M
375.573	0.0	376349	WAITING_END	n/a	n/a	n/a	n/a	-999	-1	[0, 0, 0]	n/a	catFR1	0	R1290M
375.573	10.43	376349	COUNTDOWN_START	n/a	n/a	n/a	n/a	-999	-1	[0, 0, 0]	n/a	catFR1	0	R1290M
386.003	0.001	386778	COUNTDOWN_END	n/a	n/a	n/a	n/a	-999	-1	[0, 0, 0]	n/a	catFR1	0	R1290M
386.004	1.204	386779	ORIENT_START	n/a	n/a	n/a	n/a	-999	-1	[0, 0, 0]	n/a	catFR1	0	R1290M
387.208	0.001	387983	ORIENT_END	n/a	n/a	n/a	n/a	-999	-1	[0, 0, 0]	n/a	catFR1	0	R1290M
387.209	0.807	387984	ENCODING_START	n/a	n/a	n/a	n/a	-999	-1	[0, 0, 0]	n/a	catFR1	0	R1290M
388.016	1.626	388791	WORD	n/a	n/a	ALLEY	n/a	1	-1	[0, 0, 0]	n/a	catFR1	0	R1290M
389.642	1.006	390417	WORD_OFF	n/a	n/a	ALLEY	n/a	1	-1	[0, 0, 0]	n/a	catFR1	0	R1290M
390.648	1.626	391423	WORD	n/a	n/a	BEAM	n/a	2	-1	[0, 0, 0]	n/a	catFR1	0	R1290M
392.274	0.867	393049	WORD_OFF	n/a	n/a	BEAM	n/a	2	-1	[0, 0, 0]	n/a	catFR1	0	R1290M
393.141	1.635	393916	WORD	n/a	n/a	CAMEL	n/a	3	-1	[0, 0, 0]	n/a	catFR1	0	R1290M
394.776	0.76	395551	WORD_OFF	n/a	n/a	CAMEL	n/a	3	-1	[0, 0, 0]	n/a	catFR1	0	R1290M
395.536	1.624	396311	WORD	n/a	n/a	CHEST	n/a	4	-1	[0, 0, 0]	n/a	catFR1	0	R1290M
397.16	0.823	397935	WORD_OFF	n/a	n/a	CHEST	n/a	4	-1	[0, 0, 0]	n/a	catFR1	0	R1290M
397.983	1.627	398758	WORD	n/a	n/a	COTTON	n/a	5	-1	[0, 0, 0]	n/a	catFR1	0	R1290M
399.61	0.805	400384	WORD_OFF	n/a	n/a	COTTON	n/a	5	-1	[0, 0, 0]	n/a	catFR1	0	R1290M
400.415	1.629	401189	WORD	n/a	n/a	FLOOD	n/a	6	-1	[0, 0, 0]	n/a	catFR1	0	R1290M
402.044	1.118	402818	WORD_OFF	n/a	n/a	FLOOD	n/a	6	-1	[0, 0, 0]	n/a	catFR1	0	R1290M
403.162	1.633	403936	WORD	n/a	n/a	FAUCET	n/a	7	-1	[0, 0, 0]	n/a	catFR1	0	R1290M
404.795	0.941	405569	WORD_OFF	n/a	n/a	FAUCET	n/a	7	-1	[0, 0, 0]	n/a	catFR1	0	R1290M
405.736	1.625	406510	WORD	n/a	n/a	RHINO	n/a	8	-1	[0, 0, 0]	n/a	catFR1	0	R1290M
407.361	1.073	408135	WORD_OFF	n/a	n/a	RHINO	n/a	8	-1	[0, 0, 0]	n/a	catFR1	0	R1290M
408.434	1.628	409208	WORD	n/a	n/a	RING	n/a	9	-1	[0, 0, 0]	n/a	catFR1	0	R1290M
410.062	0.824	410836	WORD_OFF	n/a	n/a	RING	n/a	9	-1	[0, 0, 0]	n/a	catFR1	0	R1290M
410.886	1.627	411660	WORD	n/a	n/a	TONGUE	n/a	10	-1	[0, 0, 0]	n/a	catFR1	0	R1290M
412.513	0.789	413287	WORD_OFF	n/a	n/a	TONGUE	n/a	10	-1	[0, 0, 0]	n/a	catFR1	0	R1290M
413.302	1.688	414076	WORD	n/a	n/a	WAGON	n/a	11	-1	[0, 0, 0]	n/a	catFR1	0	R1290M
414.99	0.715	415764	WORD_OFF	n/a	n/a	WAGON	n/a	11	-1	[0, 0, 0]	n/a	catFR1	0	R1290M
415.705	1.624	416479	WORD	n/a	n/a	WATCH	n/a	12	-1	[0, 0, 0]	n/a	catFR1	0	R1290M
417.329	0.001	418103	WORD_OFF	n/a	n/a	WATCH	n/a	12	-1	[0, 0, 0]	n/a	catFR1	0	R1290M
417.33	0.001	418104	ENCODING_END	n/a	n/a	n/a	n/a	-999	-1	[0, 0, 0]	n/a	catFR1	0	R1290M
417.331	0.001	418105	DISTRACT_START	n/a	n/a	n/a	n/a	-999	-1	[0, 0, 0]	n/a	catFR1	0	R1290M
417.332	0.014	418106	START	n/a	n/a	n/a	n/a	-999	-1	[-999, -999, -999]	n/a	catFR1	0	R1290M
417.346	6.402	418120	PROB	6.373	n/a	n/a	n/a	-999	-1	[6, 5, 6]	17.0	catFR1	0	R1290M
423.748	6.451	424521	PROB	6.421	n/a	n/a	n/a	-999	-1	[7, 5, 4]	16.0	catFR1	0	R1290M
430.199	3.368	430972	PROB	3.338	n/a	n/a	n/a	-999	-1	[1, 9, 7]	17.0	catFR1	0	R1290M
433.567	3.45	434340	PROB	3.426	n/a	n/a	n/a	-999	-1	[4, 2, 5]	11.0	catFR1	0	R1290M
437.017	4.287	437790	PROB	4.287	n/a	n/a	n/a	-999	-1	[7, 8, 1]	16.0	catFR1	0	R1290M
441.304	0.013	442077	STOP	n/a	n/a	n/a	n/a	-999	-1	[-999, -999, -999]	n/a	catFR1	0	R1290M
441.317	0.555	442090	DISTRACT_END	n/a	n/a	n/a	n/a	-999	-1	[0, 0, 0]	n/a	catFR1	0	R1290M
441.872	1.546	442645	RETRIEVAL_ORIENT_START	n/a	n/a	n/a	n/a	-999	-1	[0, 0, 0]	n/a	catFR1	0	R1290M
443.418	0.0	444190	RETRIEVAL_ORIENT_END	n/a	n/a	n/a	n/a	-999	-1	[0, 0, 0]	n/a	catFR1	0	R1290M
443.418	2.729	444190	REC_START	n/a	n/a	n/a	n/a	-999	-1	[0, 0, 0]	n/a	catFR1	0	R1290M
446.147	0.791	446919	REC_WORD_VV	2.729	n/a	<>	n/a	-999	-1	[0, 0, 0]	n/a	catFR1	0	R1290M
446.938	0.841	447710	REC_WORD	3.52	n/a	WAGEN	n/a	-999	-1	[0, 0, 0]	n/a	catFR1	0	R1290M
447.779	5.488	448551	REC_WORD	4.361	n/a	CAMEL	n/a	3	-1	[0, 0, 0]	n/a	catFR1	0	R1290M
453.267	0.834	454039	REC_WORD	9.849	n/a	FAUCET	n/a	7	-1	[0, 0, 0]	n/a	catFR1	0	R1290M
454.101	15.278	454873	REC_WORD	10.683	n/a	FLOOD	n/a	6	-1	[0, 0, 0]	n/a	catFR1	0	R1290M
469.379	4.053	470150	REC_WORD	25.961	n/a	ALLEY	n/a	1	-1	[0, 0, 0]	n/a	catFR1	0	R1290M
473.432	0.001	474203	REC_END	n/a	n/a	n/a	n/a	-999	-1	[0, 0, 0]	n/a	catFR1	0	R1290M
473.433	8.959	474204	PRACTICE_POST_INSTRUCT_START	n/a	n/a	n/a	n/a	-999	-1	[0, 0, 0]	n/a	catFR1	0	R1290M
482.392	0.001	483163	PRACTICE_POST_INSTRUCT_END	n/a	n/a	n/a	n/a	-999	-1	[0, 0, 0]	n/a	catFR1	0	R1290M
482.393	0.023	483164	TRIAL_END	n/a	n/a	n/a	n/a	-999	-1	[0, 0, 0]	n/a	catFR1	0	R1290M
482.416	0.001	483187	TRIAL_START	n/a	n/a	n/a	n/a	-999	1	[0, 0, 0]	n/a	catFR1	0	R1290M
482.417	0.0	483188	TRIAL	n/a	n/a	n/a	n/a	-999	1	[0, 0, 0]	n/a	catFR1	0	R1290M
482.417	3.876	483188	WAITING_START	n/a	n/a	n/a	n/a	-999	1	[0, 0, 0]	n/a	catFR1	0	R1290M
486.293	0.001	487064	WAITING_END	n/a	n/a	n/a	n/a	-999	1	[0, 0, 0]	n/a	catFR1	0	R1290M
486.294	10.429	487065	COUNTDOWN_START	n/a	n/a	n/a	n/a	-999	1	[0, 0, 0]	n/a	catFR1	0	R1290M
496.723	0.001	497493	COUNTDOWN_END	n/a	n/a	n/a	n/a	-999	1	[0, 0, 0]	n/a	catFR1	0	R1290M
496.724	1.089	497494	ORIENT_START	n/a	n/a	n/a	n/a	-999	1	[0, 0, 0]	n/a	catFR1	0	R1290M
497.813	0.0	498583	ORIENT_END	n/a	n/a	n/a	n/a	-999	1	[0, 0, 0]	n/a	catFR1	0	R1290M
497.813	0.856	498583	ENCODING_START	n/a	n/a	n/a	n/a	-999	1	[0, 0, 0]	n/a	catFR1	0	R1290M
498.669	1.626	499439	WORD	n/a	wordpools/wordpool_categorized_EN.txt	STEREO	Electronics	1	1	[0, 0, 0]	n/a	catFR1	0	R1290M
500.295	1.124	501065	WORD_OFF	n/a	n/a	STEREO	Electronics	1	1	[0, 0, 0]	n/a	catFR1	0	R1290M
501.419	1.628	502189	WORD	n/a	wordpools/wordpool_categorized_EN.txt	SPEAKER	Electronics	2	1	[0, 0, 0]	n/a	catFR1	0	R1290M
503.047	0.767	503817	WORD_OFF	n/a	n/a	SPEAKER	Electronics	2	1	[0, 0, 0]	n/a	catFR1	0	R1290M
503.814	1.632	504584	WORD	n/a	wordpools/wordpool_categorized_EN.txt	CRICKET	Insects	3	1	[0, 0, 0]	n/a	catFR1	0	R1290M
505.446	0.846	506216	WORD_OFF	n/a	n/a	CRICKET	Insects	3	1	[0, 0, 0]	n/a	catFR1	0	R1290M
506.292	1.639	507062	WORD	n/a	wordpools/wordpool_categorized_EN.txt	MOSQUITO	Insects	4	1	[0, 0, 0]	n/a	catFR1	0	R1290M
507.931	0.788	508701	WORD_OFF	n/a	n/a	MOSQUITO	Insects	4	1	[0, 0, 0]	n/a	catFR1	0	R1290M
508.719	1.628	509489	WORD	n/a	wordpools/wordpool_categorized_EN.txt	BUS	Vehicles	5	1	[0, 0, 0]	n/a	catFR1	0	R1290M
510.347	0.922	511116	WORD_OFF	n/a	n/a	BUS	Vehicles	5	1	[0, 0, 0]	n/a	catFR1	0	R1290M
511.269	1.63	512038	WORD	n/a	wordpools/wordpool_categorized_EN.txt	MOTORCYCLE	Vehicles	6	1	[0, 0, 0]	n/a	catFR1	0	R1290M
512.899	0.928	513668	WORD_OFF	n/a	n/a	MOTORCYCLE	Vehicles	6	1	[0, 0, 0]	n/a	catFR1	0	R1290M
513.827	1.621	514596	WORD	n/a	wordpools/wordpool_categorized_EN.txt	PHONE	Electronics	7	1	[0, 0, 0]	n/a	catFR1	0	R1290M
515.448	0.86	516217	WORD_OFF	n/a	n/a	PHONE	Electronics	7	1	[0, 0, 0]	n/a	catFR1	0	R1290M
516.308	1.608	517077	WORD	n/a	wordpools/wordpool_categorized_EN.txt	SCANNER	Electronics	8	1	[0, 0, 0]	n/a	catFR1	0	R1290M
517.916	1.121	518685	WORD_OFF	n/a	n/a	SCANNER	Electronics	8	1	[0, 0, 0]	n/a	catFR1	0	R1290M
519.037	1.63	519806	WORD	n/a	wordpools/wordpool_categorized_EN.txt	PLANE	Vehicles	9	1	[0, 0, 0]	n/a	catFR1	0	R1290M
520.667	1.063	521436	WORD_OFF	n/a	n/a	PLANE	Vehicles	9	1	[0, 0, 0]	n/a	catFR1	0	R1290M
521.73	1.637	522499	WORD	n/a	wordpools/wordpool_categorized_EN.txt	MOPED	Vehicles	10	1	[0, 0, 0]	n/a	catFR1	0	R1290M
523.367	1.084	524136	WORD_OFF	n/a	n/a	MOPED	Vehicles	10	1	[0, 0, 0]	n/a	catFR1	0	R1290M
524.451	1.634	525220	WORD	n/a	wordpools/wordpool_categorized_EN.txt	LADYBUG	Insects	11	1	[0, 0, 0]	n/a	catFR1	0	R1290M
526.085	0.859	526854	WORD_OFF	n/a	n/a	LADYBUG	Insects	11	1	[0, 0, 0]	n/a	catFR1	0	R1290M
526.944	1.625	527713	WORD	n/a	wordpools/wordpool_categorized_EN.txt	BUTTERFLY	Insects	12	1	[0, 0, 0]	n/a	catFR1	0	R1290M
528.569	0.0	529338	WORD_OFF	n/a	n/a	BUTTERFLY	Insects	12	1	[0, 0, 0]	n/a	catFR1	0	R1290M
528.569	0.001	529338	ENCODING_END	n/a	n/a	n/a	n/a	-999	1	[0, 0, 0]	n/a	catFR1	0	R1290M
528.57	0.0	529339	DISTRACT_START	n/a	n/a	n/a	n/a	-999	1	[0, 0, 0]	n/a	catFR1	0	R1290M
528.57	0.015	529339	START	n/a	n/a	n/a	n/a	-999	1	[-999, -999, -999]	n/a	catFR1	0	R1290M
528.585	4.134	529354	PROB	4.107	n/a	n/a	n/a	-999	1	[3, 2, 4]	9.0	catFR1	0	R1290M
532.719	2.884	533487	PROB	2.853	n/a	n/a	n/a	-999	1	[8, 2, 1]	11.0	catFR1	0	R1290M
535.603	4.568	536371	PROB	4.537	n/a	n/a	n/a	-999	1	[7, 1, 9]	17.0	catFR1	0	R1290M
540.171	4.867	540939	PROB	4.831	n/a	n/a	n/a	-999	1	[4, 4, 3]	11.0	catFR1	0	R1290M
545.038	4.241	545806	PROB	4.241	n/a	n/a	n/a	-999	1	[1, 4, 3]	8.0	catFR1	0	R1290M
549.279	0.009	550047	STOP	n/a	n/a	n/a	n/a	-999	1	[-999, -999, -999]	n/a	catFR1	0	R1290M
549.288	0.582	550056	DISTRACT_END	n/a	n/a	n/a	n/a	-999	1	[0, 0, 0]	n/a	catFR1	0	R1290M
549.87	1.636	550638	RETRIEVAL_ORIENT_START	n/a	n/a	n/a	n/a	-999	1	[0, 0, 0]	n/a	catFR1	0	R1290M
551.506	0.001	552274	RETRIEVAL_ORIENT_END	n/a	n/a	n/a	n/a	-999	1	[0, 0, 0]	n/a	catFR1	0	R1290M
551.507	2.418	552275	REC_START	n/a	n/a	n/a	n/a	-999	1	[0, 0, 0]	n/a	catFR1	0	R1290M
553.925	1.258	554692	REC_WORD	2.418	n/a	LADYBUG	Insects	11	1	[0, 0, 0]	n/a	catFR1	0	R1290M
555.183	1.176	555950	REC_WORD	3.676	n/a	MOPED	Vehicles	10	1	[0, 0, 0]	n/a	catFR1	0	R1290M
556.359	3.409	557126	REC_WORD	4.852	n/a	MOTORCYCLE	Vehicles	6	1	[0, 0, 0]	n/a	catFR1	0	R1290M
559.768	2.862	560535	REC_WORD	8.261	n/a	PLANE	Vehicles	9	1	[0, 0, 0]	n/a	catFR1	0	R1290M
562.63	1.837	563397	REC_WORD	11.123	n/a	STEREO	Electronics	1	1	[0, 0, 0]	n/a	catFR1	0	R1290M
564.467	17.055	565234	REC_WORD	12.96	n/a	CRICKET	Insects	3	1	[0, 0, 0]	n/a	catFR1	0	R1290M
581.522	0.0	582288	REC_END	n/a	n/a	n/a	n/a	-999	1	[0, 0, 0]	n/a	catFR1	0	R1290M
581.522	0.022	582288	TRIAL_END	n/a	n/a	n/a	n/a	-999	1	[0, 0, 0]	n/a	catFR1	0	R1290M
581.544	0.001	582310	TRIAL_START	n/a	n/a	n/a	n/a	-999	2	[0, 0, 0]	n/a	catFR1	0	R1290M
581.545	0.001	582311	TRIAL	n/a	n/a	n/a	n/a	-999	2	[0, 0, 0]	n/a	catFR1	0	R1290M
581.546	14.469	582312	WAITING_START	n/a	n/a	n/a	n/a	-999	2	[0, 0, 0]	n/a	catFR1	0	R1290M
596.015	0.001	596781	WAITING_END	n/a	n/a	n/a	n/a	-999	2	[0, 0, 0]	n/a	catFR1	0	R1290M
596.016	10.429	596782	COUNTDOWN_START	n/a	n/a	n/a	n/a	-999	2	[0, 0, 0]	n/a	catFR1	0	R1290M
606.445	0.0	607210	COUNTDOWN_END	n/a	n/a	n/a	n/a	-999	2	[0, 0, 0]	n/a	catFR1	0	R1290M
606.445	1.139	607210	ORIENT_START	n/a	n/a	n/a	n/a	-999	2	[0, 0, 0]	n/a	catFR1	0	R1290M
607.584	0.001	608349	ORIENT_END	n/a	n/a	n/a	n/a	-999	2	[0, 0, 0]	n/a	catFR1	0	R1290M
607.585	1.079	608350	ENCODING_START	n/a	n/a	n/a	n/a	-999	2	[0, 0, 0]	n/a	catFR1	0	R1290M
608.664	1.636	609429	WORD	n/a	wordpools/wordpool_categorized_EN.txt	CARDINAL	Birds	1	2	[0, 0, 0]	n/a	catFR1	0	R1290M
610.3	0.921	611065	WORD_OFF	n/a	n/a	CARDINAL	Birds	1	2	[0, 0, 0]	n/a	catFR1	0	R1290M
611.221	1.614	611986	WORD	n/a	wordpools/wordpool_categorized_EN.txt	BLUEBIRD	Birds	2	2	[0, 0, 0]	n/a	catFR1	0	R1290M
612.835	0.832	613600	WORD_OFF	n/a	n/a	BLUEBIRD	Birds	2	2	[0, 0, 0]	n/a	catFR1	0	R1290M
613.667	1.634	614432	WORD	n/a	wordpools/wordpool_categorized_EN.txt	FLUTE	Instruments	3	2	[0, 0, 0]	n/a	catFR1	0	R1290M
615.301	1.145	616066	WORD_OFF	n/a	n/a	FLUTE	Instruments	3	2	[0, 0, 0]	n/a	catFR1	0	R1290M
616.446	1.606	617211	WORD	n/a	wordpools/wordpool_categorized_EN.txt	PIANO	Instruments	4	2	[0, 0, 0]	n/a	catFR1	0	R1290M
618.052	0.974	618817	WORD_OFF	n/a	n/a	PIANO	Instruments	4	2	[0, 0, 0]	n/a	catFR1	0	R1290M
619.026	1.627	619791	WORD	n/a	wordpools/wordpool_categorized_EN.txt	FOREST	Landscapes	5	2	[0, 0, 0]	n/a	catFR1	0	R1290M
620.653	1.095	621417	WORD_OFF	n/a	n/a	FOREST	Landscapes	5	2	[0, 0, 0]	n/a	catFR1	0	R1290M
621.748	1.621	622512	WORD	n/a	wordpools/wordpool_categorized_EN.txt	RIVER	Landscapes	6	2	[0, 0, 0]	n/a	catFR1	0	R1290M
623.369	1.023	624133	WORD_OFF	n/a	n/a	RIVER	Landscapes	6	2	[0, 0, 0]	n/a	catFR1	0	R1290M
624.392	1.629	625156	WORD	n/a	wordpools/wordpool_categorized_EN.txt	DOVE	Birds	7	2	[0, 0, 0]	n/a	catFR1	0	R1290M
626.021	0.789	626785	WORD_OFF	n/a	n/a	DOVE	Birds	7	2	[0, 0, 0]	n/a	catFR1	0	R1290M
626.81	1.627	627574	WORD	n/a	wordpools/wordpool_categorized_EN.txt	PIGEON	Birds	8	2	[0, 0, 0]	n/a	catFR1	0	R1290M
628.437	1.014	629201	WORD_OFF	n/a	n/a	PIGEON	Birds	8	2	[0, 0, 0]	n/a	catFR1	0	R1290M
629.451	1.637	630215	WORD	n/a	wordpools/wordpool_categorized_EN.txt	LAKE	Landscapes	9	2	[0, 0, 0]	n/a	catFR1	0	R1290M
631.088	1.009	631852	WORD_OFF	n/a	n/a	LAKE	Landscapes	9	2	[0, 0, 0]	n/a	catFR1	0	R1290M
632.097	1.625	632861	WORD	n/a	wordpools/wordpool_categorized_EN.txt	ISLAND	Landscapes	10	2	[0, 0, 0]	n/a	catFR1	0	R1290M
633.722	0.763	634486	WORD_OFF	n/a	n/a	ISLAND	Landscapes	10	2	[0, 0, 0]	n/a	catFR1	0	R1290M
634.485	1.638	635249	WORD	n/a	wordpools/wordpool_categorized_EN.txt	TUBA	Instruments	11	2	[0, 0, 0]	n/a	catFR1	0	R1290M
636.123	0.779	636887	WORD_OFF	n/a	n/a	TUBA	Instruments	11	2	[0, 0, 0]	n/a	catFR1	0	R1290M
636.902	1.621	637666	WORD	n/a	wordpools/wordpool_categorized_EN.txt	BASS	Instruments	12	2	[0, 0, 0]	n/a	catFR1	0	R1290M
638.523	0.001	639287	WORD_OFF	n/a	n/a	BASS	Instruments	12	2	[0, 0, 0]	n/a	catFR1	0	R1290M
638.524	0.001	639288	ENCODING_END	n/a	n/a	n/a	n/a	-999	2	[0, 0, 0]	n/a	catFR1	0	R1290M
638.525	0.0	639289	DISTRACT_START	n/a	n/a	n/a	n/a	-999	2	[0, 0, 0]	n/a	catFR1	0	R1290M
638.525	0.015	639289	START	n/a	n/a	n/a	n/a	-999	2	[-999, -999, -999]	n/a	catFR1	0	R1290M
638.54	9.285	639304	PROB	9.252	n/a	n/a	n/a	-999	2	[5, 9, 7]	21.0	catFR1	0	R1290M
647.825	5.351	648588	PROB	5.318	n/a	n/a	n/a	-999	2	[9, 7, 5]	21.0	catFR1	0	R1290M
653.176	3.467	653939	PROB	3.439	n/a	n/a	n/a	-999	2	[7, 1, 7]	15.0	catFR1	0	R1290M
656.643	4.052	657406	PROB	4.052	n/a	n/a	n/a	-999	2	[5, 5, 6]	16.0	catFR1	0	R1290M
660.695	0.016	661458	STOP	n/a	n/a	n/a	n/a	-999	2	[-999, -999, -999]	n/a	catFR1	0	R1290M
660.711	0.686	661474	DISTRACT_END	n/a	n/a	n/a	n/a	-999	2	[0, 0, 0]	n/a	catFR1	0	R1290M
661.397	1.564	662160	RETRIEVAL_ORIENT_START	n/a	n/a	n/a	n/a	-999	2	[0, 0, 0]	n/a	catFR1	0	R1290M
662.961	0.0	663724	RETRIEVAL_ORIENT_END	n/a	n/a	n/a	n/a	-999	2	[0, 0, 0]	n/a	catFR1	0	R1290M
662.961	1.924	663724	REC_START	n/a	n/a	n/a	n/a	-999	2	[0, 0, 0]	n/a	catFR1	0	R1290M
664.885	1.167	665647	REC_WORD	1.924	n/a	BLUEBERRY	n/a	-999	2	[0, 0, 0]	n/a	catFR1	0	R1290M
666.052	2.334	666814	REC_WORD	3.091	n/a	CARDINAL	Birds	1	2	[0, 0, 0]	n/a	catFR1	0	R1290M
668.386	1.594	669148	REC_WORD	5.425	n/a	PIGEON	Birds	8	2	[0, 0, 0]	n/a	catFR1	0	R1290M
669.98	1.299	670742	REC_WORD	7.019	n/a	FLUTE	Instruments	3	2	[0, 0, 0]	n/a	catFR1	0	R1290M
671.279	4.236	672041	REC_WORD	8.318	n/a	LAKE	Landscapes	9	2	[0, 0, 0]	n/a	catFR1	0	R1290M
675.515	2.593	676277	REC_WORD	12.554	n/a	DOVE	Birds	7	2	[0, 0, 0]	n/a	catFR1	0	R1290M
678.108	2.289	678870	REC_WORD	15.147	n/a	TUBA	Instruments	11	2	[0, 0, 0]	n/a	catFR1	0	R1290M
680.397	12.576	681159	REC_WORD	17.436	n/a	BASS	Instruments	12	2	[0, 0, 0]	n/a	catFR1	0	R1290M
692.973	0.001	693734	REC_END	n/a	n/a	n/a	n/a	-999	2	[0, 0, 0]	n/a	catFR1	0	R1290M
692.974	0.026	693735	TRIAL_END	n/a	n/a	n/a	n/a	-999	2	[0, 0, 0]	n/a	catFR1	0	R1290M
693.0	0.0	693761	TRIAL_START	n/a	n/a	n/a	n/a	-999	3	[0, 0, 0]	n/a	catFR1	0	R1290M
693.0	0.001	693761	TRIAL	n/a	n/a	n/a	n/a	-999	3	[0, 0, 0]	n/a	catFR1	0	R1290M
693.001	12.768	693762	WAITING_START	n/a	n/a	n/a	n/a	-999	3	[0, 0, 0]	n/a	catFR1	0	R1290M
705.769	0.001	706530	WAITING_END	n/a	n/a	n/a	n/a	-999	3	[0, 0, 0]	n/a	catFR1	0	R1290M
705.77	10.429	706531	COUNTDOWN_START	n/a	n/a	n/a	n/a	-999	3	[0, 0, 0]	n/a	catFR1	0	R1290M
716.199	0.001	716959	COUNTDOWN_END	n/a	n/a	n/a	n/a	-999	3	[0, 0, 0]	n/a	catFR1	0	R1290M
716.2	1.087	716960	ORIENT_START	n/a	n/a	n/a	n/a	-999	3	[0, 0, 0]	n/a	catFR1	0	R1290M
717.287	0.001	718047	ORIENT_END	n/a	n/a	n/a	n/a	-999	3	[0, 0, 0]	n/a	catFR1	0	R1290M
717.288	0.938	718048	ENCODING_START	n/a	n/a	n/a	n/a	-999	3	[0, 0, 0]	n/a	catFR1	0	R1290M
718.226	1.629	718986	WORD	n/a	wordpools/wordpool_categorized_EN.txt	SHIRT	Clothing	1	3	[0, 0, 0]	n/a	catFR1	0	R1290M
719.855	1.008	720615	WORD_OFF	n/a	n/a	SHIRT	Clothing	1	3	[0, 0, 0]	n/a	catFR1	0	R1290M
720.863	1.626	721623	WORD	n/a	wordpools/wordpool_categorized_EN.txt	COAT	Clothing	2	3	[0, 0, 0]	n/a	catFR1	0	R1290M
722.489	0.854	723249	WORD_OFF	n/a	n/a	COAT	Clothing	2	3	[0, 0, 0]	n/a	catFR1	0	R1290M
723.343	1.63	724103	WORD	n/a	wordpools/wordpool_categorized_EN.txt	CRAB	OceanAnimals	3	3	[0, 0, 0]	n/a	catFR1	0	R1290M
724.973	0.777	725733	WORD_OFF	n/a	n/a	CRAB	OceanAnimals	3	3	[0, 0, 0]	n/a	catFR1	0	R1290M
725.75	1.623	726510	WORD	n/a	wordpools/wordpool_categorized_EN.txt	LOBSTER	OceanAnimals	4	3	[0, 0, 0]	n/a	catFR1	0	R1290M
727.373	1.119	728133	WORD_OFF	n/a	n/a	LOBSTER	OceanAnimals	4	3	[0, 0, 0]	n/a	catFR1	0	R1290M
728.492	1.632	729252	WORD	n/a	wordpools/wordpool_categorized_EN.txt	LEVEL	Tools	5	3	[0, 0, 0]	n/a	catFR1	0	R1290M
730.124	1.115	730884	WORD_OFF	n/a	n/a	LEVEL	Tools	5	3	[0, 0, 0]	n/a	catFR1	0	R1290M
731.239	1.619	731999	WORD	n/a	wordpools/wordpool_categorized_EN.txt	HAMMER	Tools	6	3	[0, 0, 0]	n/a	catFR1	0	R1290M
732.858	0.935	733617	WORD_OFF	n/a	n/a	HAMMER	Tools	6	3	[0, 0, 0]	n/a	catFR1	0	R1290M
733.793	1.631	734552	WORD	n/a	wordpools/wordpool_categorized_EN.txt	OYSTER	OceanAnimals	7	3	[0, 0, 0]	n/a	catFR1	0	R1290M
735.424	1.067	736183	WORD_OFF	n/a	n/a	OYSTER	OceanAnimals	7	3	[0, 0, 0]	n/a	catFR1	0	R1290M
736.491	1.635	737250	WORD	n/a	wordpools/wordpool_categorized_EN.txt	SQUID	OceanAnimals	8	3	[0, 0, 0]	n/a	catFR1	0	R1290M
738.126	0.854	738885	WORD_OFF	n/a	n/a	SQUID	OceanAnimals	8	3	[0, 0, 0]	n/a	catFR1	0	R1290M
738.98	1.629	739739	WORD	n/a	wordpools/wordpool_categorized_EN.txt	BLOUSE	Clothing	9	3	[0, 0, 0]	n/a	catFR1	0	R1290M
740.609	1.139	741368	WORD_OFF	n/a	n/a	BLOUSE	Clothing	9	3	[0, 0, 0]	n/a	catFR1	0	R1290M
741.748	1.628	742507	WORD	n/a	wordpools/wordpool_categorized_EN.txt	SKIRT	Clothing	10	3	[0, 0, 0]	n/a	catFR1	0	R1290M
743.376	0.827	744135	WORD_OFF	n/a	n/a	SKIRT	Clothing	10	3	[0, 0, 0]	n/a	catFR1	0	R1290M
744.203	1.624	744962	WORD	n/a	wordpools/wordpool_categorized_EN.txt	SANDER	Tools	11	3	[0, 0, 0]	n/a	catFR1	0	R1290M
745.827	1.045	746586	WORD_OFF	n/a	n/a	SANDER	Tools	11	3	[0, 0, 0]	n/a	catFR1	0	R1290M
746.872	1.622	747631	WORD	n/a	wordpools/wordpool_categorized_EN.txt	SHOVEL	Tools	12	3	[0, 0, 0]	n/a	catFR1	0	R1290M
748.494	0.001	749253	WORD_OFF	n/a	n/a	SHOVEL	Tools	12	3	[0, 0, 0]	n/a	catFR1	0	R1290M
748.495	0.001	749254	ENCODING_END	n/a	n/a	n/a	n/a	-999	3	[0, 0, 0]	n/a	catFR1	0	R1290M
748.496	0.0	749255	DISTRACT_START	n/a	n/a	n/a	n/a	-999	3	[0, 0, 0]	n/a	catFR1	0	R1290M
748.496	0.015	749255	START	n/a	n/a	n/a	n/a	-999	3	[-999, -999, -999]	n/a	catFR1	0	R1290M
748.511	4.15	749270	PROB	4.128	n/a	n/a	n/a	-999	3	[7, 2, 4]	13.0	catFR1	0	R1290M
752.661	5.451	753420	PROB	5.415	n/a	n/a	n/a	-999	3	[4, 8, 2]	14.0	catFR1	0	R1290M
758.112	3.601	758870	PROB	3.564	n/a	n/a	n/a	-999	3	[9, 1, 2]	12.0	catFR1	0	R1290M
761.713	4.768	762471	PROB	4.729	n/a	n/a	n/a	-999	3	[1, 3, 1]	5.0	catFR1	0	R1290M
766.481	4.884	767239	PROB	4.884	n/a	n/a	n/a	-999	3	[9, 2, 9]	20.0	catFR1	0	R1290M
771.365	0.016	772123	STOP	n/a	n/a	n/a	n/a	-999	3	[-999, -999, -999]	n/a	catFR1	0	R1290M
771.381	0.608	772139	DISTRACT_END	n/a	n/a	n/a	n/a	-999	3	[0, 0, 0]	n/a	catFR1	0	R1290M
771.989	1.544	772747	RETRIEVAL_ORIENT_START	n/a	n/a	n/a	n/a	-999	3	[0, 0, 0]	n/a	catFR1	0	R1290M
773.533	0.0	774291	RETRIEVAL_ORIENT_END	n/a	n/a	n/a	n/a	-999	3	[0, 0, 0]	n/a	catFR1	0	R1290M
773.533	1.343	774291	REC_START	n/a	n/a	n/a	n/a	-999	3	[0, 0, 0]	n/a	catFR1	0	R1290M
774.876	1.214	775634	REC_WORD	1.343	n/a	SANDER	Tools	11	3	[0, 0, 0]	n/a	catFR1	0	R1290M
776.09	1.111	776847	REC_WORD	2.557	n/a	CRAB	OceanAnimals	3	3	[0, 0, 0]	n/a	catFR1	0	R1290M
777.201	1.316	777958	REC_WORD	3.668	n/a	LOBSTER	OceanAnimals	4	3	[0, 0, 0]	n/a	catFR1	0	R1290M
778.517	2.567	779274	REC_WORD	4.984	n/a	SQUID	OceanAnimals	8	3	[0, 0, 0]	n/a	catFR1	0	R1290M
781.084	1.173	781841	REC_WORD	7.551	n/a	SHIRT	Clothing	1	3	[0, 0, 0]	n/a	catFR1	0	R1290M
782.257	1.446	783014	REC_WORD	8.724	n/a	COAT	Clothing	2	3	[0, 0, 0]	n/a	catFR1	0	R1290M
783.703	19.842	784460	REC_WORD	10.17	n/a	BLOUSE	Clothing	9	3	[0, 0, 0]	n/a	catFR1	0	R1290M
803.545	0.0	804301	REC_END	n/a	n/a	n/a	n/a	-999	3	[0, 0, 0]	n/a	catFR1	0	R1290M
803.545	0.025	804301	TRIAL_END	n/a	n/a	n/a	n/a	-999	3	[0, 0, 0]	n/a	catFR1	0	R1290M
803.57	0.0	804326	TRIAL_START	n/a	n/a	n/a	n/a	-999	4	[0, 0, 0]	n/a	catFR1	0	R1290M
803.57	0.001	804326	TRIAL	n/a	n/a	n/a	n/a	-999	4	[0, 0, 0]	n/a	catFR1	0	R1290M
803.571	6.668	804327	WAITING_START	n/a	n/a	n/a	n/a	-999	4	[0, 0, 0]	n/a	catFR1	0	R1290M
810.239	0.0	810995	WAITING_END	n/a	n/a	n/a	n/a	-999	4	[0, 0, 0]	n/a	catFR1	0	R1290M
810.239	10.429	810995	COUNTDOWN_START	n/a	n/a	n/a	n/a	-999	4	[0, 0, 0]	n/a	catFR1	0	R1290M
820.668	0.001	821423	COUNTDOWN_END	n/a	n/a	n/a	n/a	-999	4	[0, 0, 0]	n/a	catFR1	0	R1290M
820.669	1.223	821424	ORIENT_START	n/a	n/a	n/a	n/a	-999	4	[0, 0, 0]	n/a	catFR1	0	R1290M
821.892	0.001	822647	ORIENT_END	n/a	n/a	n/a	n/a	-999	4	[0, 0, 0]	n/a	catFR1	0	R1290M
821.893	0.823	822648	ENCODING_START	n/a	n/a	n/a	n/a	-999	4	[0, 0, 0]	n/a	catFR1	0	R1290M
822.716	1.625	823471	WORD	n/a	wordpools/wordpool_categorized_EN.txt	ORCHID	Flowers	1	4	[0, 0, 0]	n/a	catFR1	0	R1290M
824.341	0.76	825096	WORD_OFF	n/a	n/a	ORCHID	Flowers	1	4	[0, 0, 0]	n/a	catFR1	0	R1290M
825.101	1.625	825856	WORD	n/a	wordpools/wordpool_categorized_EN.txt	PETUNIA	Flowers	2	4	[0, 0, 0]	n/a	catFR1	0	R1290M
826.726	1.076	827481	WORD_OFF	n/a	n/a	PETUNIA	Flowers	2	4	[0, 0, 0]	n/a	catFR1	0	R1290M
827.802	1.623	828557	WORD	n/a	wordpools/wordpool_categorized_EN.txt	PENCIL	OfficeSupplies	3	4	[0, 0, 0]	n/a	catFR1	0	R1290M
829.425	0.96	830180	WORD_OFF	n/a	n/a	PENCIL	OfficeSupplies	3	4	[0, 0, 0]	n/a	catFR1	0	R1290M
830.385	1.609	831140	WORD	n/a	wordpools/wordpool_categorized_EN.txt	MARKER	OfficeSupplies	4	4	[0, 0, 0]	n/a	catFR1	0	R1290M
831.994	0.977	832749	WORD_OFF	n/a	n/a	MARKER	OfficeSupplies	4	4	[0, 0, 0]	n/a	catFR1	0	R1290M
832.971	1.623	833726	WORD	n/a	wordpools/wordpool_categorized_EN.txt	HURRICANE	Weather	5	4	[0, 0, 0]	n/a	catFR1	0	R1290M
834.594	1.148	835349	WORD_OFF	n/a	n/a	HURRICANE	Weather	5	4	[0, 0, 0]	n/a	catFR1	0	R1290M
835.742	1.635	836497	WORD	n/a	wordpools/wordpool_categorized_EN.txt	SNOW	Weather	6	4	[0, 0, 0]	n/a	catFR1	0	R1290M
837.377	1.042	838132	WORD_OFF	n/a	n/a	SNOW	Weather	6	4	[0, 0, 0]	n/a	catFR1	0	R1290M
838.419	1.626	839174	WORD	n/a	wordpools/wordpool_categorized_EN.txt	VIOLET	Flowers	7	4	[0, 0, 0]	n/a	catFR1	0	R1290M
840.045	0.909	840800	WORD_OFF	n/a	n/a	VIOLET	Flowers	7	4	[0, 0, 0]	n/a	catFR1	0	R1290M
840.954	1.625	841709	WORD	n/a	wordpools/wordpool_categorized_EN.txt	DAFFODIL	Flowers	8	4	[0, 0, 0]	n/a	catFR1	0	R1290M
842.579	0.849	843333	WORD_OFF	n/a	n/a	DAFFODIL	Flowers	8	4	[0, 0, 0]	n/a	catFR1	0	R1290M
843.428	1.635	844182	WORD	n/a	wordpools/wordpool_categorized_EN.txt	PEN	OfficeSupplies	9	4	[0, 0, 0]	n/a	catFR1	0	R1290M
845.063	0.829	845817	WORD_OFF	n/a	n/a	PEN	OfficeSupplies	9	4	[0, 0, 0]	n/a	catFR1	0	R1290M
845.892	1.638	846646	WORD	n/a	wordpools/wordpool_categorized_EN.txt	FOLDER	OfficeSupplies	10	4	[0, 0, 0]	n/a	catFR1	0	R1290M
847.53	0.782	848284	WORD_OFF	n/a	n/a	FOLDER	OfficeSupplies	10	4	[0, 0, 0]	n/a	catFR1	0	R1290M
848.312	1.635	849066	WORD	n/a	wordpools/wordpool_categorized_EN.txt	TORNADO	Weather	11	4	[0, 0, 0]	n/a	catFR1	0	R1290M
849.947	1.075	850701	WORD_OFF	n/a	n/a	TORNADO	Weather	11	4	[0, 0, 0]	n/a	catFR1	0	R1290M
851.022	1.626	851776	WORD	n/a	wordpools/wordpool_categorized_EN.txt	RAIN	Weather	12	4	[0, 0, 0]	n/a	catFR1	0	R1290M
852.648	0.001	853402	WORD_OFF	n/a	n/a	RAIN	Weather	12	4	[0, 0, 0]	n/a	catFR1	0	R1290M
852.649	0.0	853403	ENCODING_END	n/a	n/a	n/a	n/a	-999	4	[0, 0, 0]	n/a	catFR1	0	R1290M
852.649	0.001	853403	DISTRACT_START	n/a	n/a	n/a	n/a	-999	4	[0, 0, 0]	n/a	catFR1	0	R1290M
852.65	0.014	853404	START	n/a	n/a	n/a	n/a	-999	4	[-999, -999, -999]	n/a	catFR1	0	R1290M
852.664	6.684	853418	PROB	6.65	n/a	n/a	n/a	-999	4	[4, 2, 7]	13.0	catFR1	0	R1290M
859.348	9.035	860102	PROB	9.007	n/a	n/a	n/a	-999	4	[6, 1, 8]	15.0	catFR1	0	R1290M
868.383	5.761	869136	PROB	5.761	n/a	n/a	n/a	-999	4	[4, 6, 9]	19.0	catFR1	0	R1290M
874.144	0.008	874897	STOP	n/a	n/a	n/a	n/a	-999	4	[-999, -999, -999]	n/a	catFR1	0	R1290M
874.152	0.626	874905	DISTRACT_END	n/a	n/a	n/a	n/a	-999	4	[0, 0, 0]	n/a	catFR1	0	R1290M
874.778	1.656	875531	RETRIEVAL_ORIENT_START	n/a	n/a	n/a	n/a	-999	4	[0, 0, 0]	n/a	catFR1	0	R1290M
876.434	0.001	877187	RETRIEVAL_ORIENT_END	n/a	n/a	n/a	n/a	-999	4	[0, 0, 0]	n/a	catFR1	0	R1290M
876.435	1.199	877188	REC_START	n/a	n/a	n/a	n/a	-999	4	[0, 0, 0]	n/a	catFR1	0	R1290M
877.634	0.784	878387	REC_WORD	1.199	n/a	ORCHID	Flowers	1	4	[0, 0, 0]	n/a	catFR1	0	R1290M
878.418	1.3	879171	REC_WORD	1.983	n/a	PETUNIA	Flowers	2	4	[0, 0, 0]	n/a	catFR1	0	R1290M
879.718	1.0	880471	REC_WORD	3.283	n/a	VIOLET	Flowers	7	4	[0, 0, 0]	n/a	catFR1	0	R1290M
880.718	1.114	881471	REC_WORD	4.283	n/a	PENCIL	OfficeSupplies	3	4	[0, 0, 0]	n/a	catFR1	0	R1290M
881.832	1.402	882585	REC_WORD	5.397	n/a	FOLDER	OfficeSupplies	10	4	[0, 0, 0]	n/a	catFR1	0	R1290M
883.234	23.214	883987	REC_WORD	6.799	n/a	PEN	OfficeSupplies	9	4	[0, 0, 0]	n/a	catFR1	0	R1290M
906.448	0.001	907200	REC_END	n/a	n/a	n/a	n/a	-999	4	[0, 0, 0]	n/a	catFR1	0	R1290M
906.449	0.022	907201	TRIAL_END	n/a	n/a	n/a	n/a	-999	4	[0, 0, 0]	n/a	catFR1	0	R1290M
906.471	0.0	907223	TRIAL_START	n/a	n/a	n/a	n/a	-999	5	[0, 0, 0]	n/a	catFR1	0	R1290M
906.471	0.001	907223	TRIAL	n/a	n/a	n/a	n/a	-999	5	[0, 0, 0]	n/a	catFR1	0	R1290M
906.472	4.637	907224	WAITING_START	n/a	n/a	n/a	n/a	-999	5	[0, 0, 0]	n/a	catFR1	0	R1290M
911.109	0.001	911860	WAITING_END	n/a	n/a	n/a	n/a	-999	5	[0, 0, 0]	n/a	catFR1	0	R1290M
911.11	10.429	911861	COUNTDOWN_START	n/a	n/a	n/a	n/a	-999	5	[0, 0, 0]	n/a	catFR1	0	R1290M
921.539	0.001	922290	COUNTDOWN_END	n/a	n/a	n/a	n/a	-999	5	[0, 0, 0]	n/a	catFR1	0	R1290M
921.54	1.138	922291	ORIENT_START	n/a	n/a	n/a	n/a	-999	5	[0, 0, 0]	n/a	catFR1	0	R1290M
922.678	0.0	923429	ORIENT_END	n/a	n/a	n/a	n/a	-999	5	[0, 0, 0]	n/a	catFR1	0	R1290M
922.678	1.044	923429	ENCODING_START	n/a	n/a	n/a	n/a	-999	5	[0, 0, 0]	n/a	catFR1	0	R1290M
923.722	1.622	924473	WORD	n/a	wordpools/wordpool_categorized_EN.txt	DRESSER	Furniture	1	5	[0, 0, 0]	n/a	catFR1	0	R1290M
925.344	0.98	926095	WORD_OFF	n/a	n/a	DRESSER	Furniture	1	5	[0, 0, 0]	n/a	catFR1	0	R1290M
926.324	1.638	927075	WORD	n/a	wordpools/wordpool_categorized_EN.txt	SHELF	Furniture	2	5	[0, 0, 0]	n/a	catFR1	0	R1290M
927.962	1.058	928713	WORD_OFF	n/a	n/a	SHELF	Furniture	2	5	[0, 0, 0]	n/a	catFR1	0	R1290M
929.02	1.626	929771	WORD	n/a	wordpools/wordpool_categorized_EN.txt	MAPLE	Trees	3	5	[0, 0, 0]	n/a	catFR1	0	R1290M
930.646	1.04	931397	WORD_OFF	n/a	n/a	MAPLE	Trees	3	5	[0, 0, 0]	n/a	catFR1	0	R1290M
931.686	1.626	932436	WORD	n/a	wordpools/wordpool_categorized_EN.txt	WALNUT	Trees	4	5	[0, 0, 0]	n/a	catFR1	0	R1290M
933.312	0.97	934062	WORD_OFF	n/a	n/a	WALNUT	Trees	4	5	[0, 0, 0]	n/a	catFR1	0	R1290M
934.282	1.615	935032	WORD	n/a	wordpools/wordpool_categorized_EN.txt	FOG	Weather	5	5	[0, 0, 0]	n/a	catFR1	0	R1290M
935.897	0.967	936647	WORD_OFF	n/a	n/a	FOG	Weather	5	5	[0, 0, 0]	n/a	catFR1	0	R1290M
936.864	1.633	937614	WORD	n/a	wordpools/wordpool_categorized_EN.txt	HUMIDITY	Weather	6	5	[0, 0, 0]	n/a	catFR1	0	R1290M
938.497	0.949	939247	WORD_OFF	n/a	n/a	HUMIDITY	Weather	6	5	[0, 0, 0]	n/a	catFR1	0	R1290M
939.446	1.619	940196	WORD	n/a	wordpools/wordpool_categorized_EN.txt	SPRUCE	Trees	7	5	[0, 0, 0]	n/a	catFR1	0	R1290M
941.065	0.801	941815	WORD_OFF	n/a	n/a	SPRUCE	Trees	7	5	[0, 0, 0]	n/a	catFR1	0	R1290M
941.866	1.633	942616	WORD	n/a	wordpools/wordpool_categorized_EN.txt	CEDAR	Trees	8	5	[0, 0, 0]	n/a	catFR1	0	R1290M
943.499	1.066	944249	WORD_OFF	n/a	n/a	CEDAR	Trees	8	5	[0, 0, 0]	n/a	catFR1	0	R1290M
944.565	1.634	945315	WORD	n/a	wordpools/wordpool_categorized_EN.txt	RECLINER	Furniture	9	5	[0, 0, 0]	n/a	catFR1	0	R1290M
946.199	0.982	946949	WORD_OFF	n/a	n/a	RECLINER	Furniture	9	5	[0, 0, 0]	n/a	catFR1	0	R1290M
947.181	1.635	947931	WORD	n/a	wordpools/wordpool_categorized_EN.txt	COUCH	Furniture	10	5	[0, 0, 0]	n/a	catFR1	0	R1290M
948.816	1.008	949566	WORD_OFF	n/a	n/a	COUCH	Furniture	10	5	[0, 0, 0]	n/a	catFR1	0	R1290M
949.824	1.625	950574	WORD	n/a	wordpools/wordpool_categorized_EN.txt	THUNDER	Weather	11	5	[0, 0, 0]	n/a	catFR1	0	R1290M
951.449	1.081	952199	WORD_OFF	n/a	n/a	THUNDER	Weather	11	5	[0, 0, 0]	n/a	catFR1	0	R1290M
952.53	1.637	953280	WORD	n/a	wordpools/wordpool_categorized_EN.txt	THUNDERSTORM	Weather	12	5	[0, 0, 0]	n/a	catFR1	0	R1290M
954.167	0.001	954916	WORD_OFF	n/a	n/a	THUNDERSTORM	Weather	12	5	[0, 0, 0]	n/a	catFR1	0	R1290M
954.168	0.001	954917	ENCODING_END	n/a	n/a	n/a	n/a	-999	5	[0, 0, 0]	n/a	catFR1	0	R1290M
954.169	0.001	954918	DISTRACT_START	n/a	n/a	n/a	n/a	-999	5	[0, 0, 0]	n/a	catFR1	0	R1290M
954.17	0.014	954919	START	n/a	n/a	n/a	n/a	-999	5	[-999, -999, -999]	n/a	catFR1	0	R1290M
954.184	4.734	954933	PROB	4.707	n/a	n/a	n/a	-999	5	[5, 8, 5]	18.0	catFR1	0	R1290M
958.918	2.684	959667	PROB	2.652	n/a	n/a	n/a	-999	5	[1, 7, 3]	11.0	catFR1	0	R1290M
961.602	2.95	962351	PROB	2.921	n/a	n/a	n/a	-999	5	[6, 9, 1]	16.0	catFR1	0	R1290M
964.552	3.084	965301	PROB	3.051	n/a	n/a	n/a	-999	5	[3, 2, 1]	6.0	catFR1	0	R1290M
967.636	5.018	968385	PROB	4.984	n/a	n/a	n/a	-999	5	[9, 6, 7]	21.0	catFR1	0	R1290M
972.654	3.855	973403	PROB	3.855	n/a	n/a	n/a	-999	5	[8, 1, 3]	11.0	catFR1	0	R1290M
976.509	0.012	977257	STOP	n/a	n/a	n/a	n/a	-999	5	[-999, -999, -999]	n/a	catFR1	0	R1290M
976.521	0.584	977269	DISTRACT_END	n/a	n/a	n/a	n/a	-999	5	[0, 0, 0]	n/a	catFR1	0	R1290M
977.105	1.6	977853	RETRIEVAL_ORIENT_START	n/a	n/a	n/a	n/a	-999	5	[0, 0, 0]	n/a	catFR1	0	R1290M
978.705	0.001	979453	RETRIEVAL_ORIENT_END	n/a	n/a	n/a	n/a	-999	5	[0, 0, 0]	n/a	catFR1	0	R1290M
978.706	4.316	979454	REC_START	n/a	n/a	n/a	n/a	-999	5	[0, 0, 0]	n/a	catFR1	0	R1290M
983.022	1.906	983770	REC_WORD	4.316	n/a	MAPLE	Trees	3	5	[0, 0, 0]	n/a	catFR1	0	R1290M
984.928	1.743	985676	REC_WORD	6.222	n/a	SPRUCE	Trees	7	5	[0, 0, 0]	n/a	catFR1	0	R1290M
986.671	0.979	987419	REC_WORD	7.965	n/a	THUNDER	Weather	11	5	[0, 0, 0]	n/a	catFR1	0	R1290M
987.65	3.784	988398	REC_WORD	8.944	n/a	THUNDERSTORM	Weather	12	5	[0, 0, 0]	n/a	catFR1	0	R1290M
991.434	17.284	992182	REC_WORD	12.728	n/a	RECLINER	Furniture	9	5	[0, 0, 0]	n/a	catFR1	0	R1290M
1008.718	0.001	1009465	REC_END	n/a	n/a	n/a	n/a	-999	5	[0, 0, 0]	n/a	catFR1	0	R1290M
1008.719	0.021	1009466	TRIAL_END	n/a	n/a	n/a	n/a	-999	5	[0, 0, 0]	n/a	catFR1	0	R1290M
1008.74	0.0	1009487	TRIAL_START	n/a	n/a	n/a	n/a	-999	6	[0, 0, 0]	n/a	catFR1	0	R1290M
1008.74	0.001	1009487	TRIAL	n/a	n/a	n/a	n/a	-999	6	[0, 0, 0]	n/a	catFR1	0	R1290M
1008.741	39.577	1009488	WAITING_START	n/a	n/a	n/a	n/a	-999	6	[0, 0, 0]	n/a	catFR1	0	R1290M
1048.318	0.0	1049063	WAITING_END	n/a	n/a	n/a	n/a	-999	6	[0, 0, 0]	n/a	catFR1	0	R1290M
1048.318	10.43	1049063	COUNTDOWN_START	n/a	n/a	n/a	n/a	-999	6	[0, 0, 0]	n/a	catFR1	0	R1290M
1058.748	0.001	1059493	COUNTDOWN_END	n/a	n/a	n/a	n/a	-999	6	[0, 0, 0]	n/a	catFR1	0	R1290M
1058.749	1.255	1059494	ORIENT_START	n/a	n/a	n/a	n/a	-999	6	[0, 0, 0]	n/a	catFR1	0	R1290M
1060.004	0.001	1060749	ORIENT_END	n/a	n/a	n/a	n/a	-999	6	[0, 0, 0]	n/a	catFR1	0	R1290M
1060.005	1.064	1060750	ENCODING_START	n/a	n/a	n/a	n/a	-999	6	[0, 0, 0]	n/a	catFR1	0	R1290M
1061.069	1.636	1061814	WORD	n/a	wordpools/wordpool_categorized_EN.txt	CALCULATOR	Electronics	1	6	[0, 0, 0]	n/a	catFR1	0	R1290M
1062.705	0.869	1063450	WORD_OFF	n/a	n/a	CALCULATOR	Electronics	1	6	[0, 0, 0]	n/a	catFR1	0	R1290M
1063.574	1.631	1064319	WORD	n/a	wordpools/wordpool_categorized_EN.txt	COMPUTER	Electronics	2	6	[0, 0, 0]	n/a	catFR1	0	R1290M
1065.205	1.14	1065949	WORD_OFF	n/a	n/a	COMPUTER	Electronics	2	6	[0, 0, 0]	n/a	catFR1	0	R1290M
1066.345	1.627	1067089	WORD	n/a	wordpools/wordpool_categorized_EN.txt	WHISK	KitchenTools	3	6	[0, 0, 0]	n/a	catFR1	0	R1290M
1067.972	0.807	1068716	WORD_OFF	n/a	n/a	WHISK	KitchenTools	3	6	[0, 0, 0]	n/a	catFR1	0	R1290M
1068.779	1.626	1069523	WORD	n/a	wordpools/wordpool_categorized_EN.txt	COLANDER	KitchenTools	4	6	[0, 0, 0]	n/a	catFR1	0	R1290M
1070.405	0.784	1071149	WORD_OFF	n/a	n/a	COLANDER	KitchenTools	4	6	[0, 0, 0]	n/a	catFR1	0	R1290M
1071.189	1.634	1071933	WORD	n/a	wordpools/wordpool_categorized_EN.txt	BIKE	Vehicles	5	6	[0, 0, 0]	n/a	catFR1	0	R1290M
1072.823	0.948	1073567	WORD_OFF	n/a	n/a	BIKE	Vehicles	5	6	[0, 0, 0]	n/a	catFR1	0	R1290M
1073.771	1.635	1074515	WORD	n/a	wordpools/wordpool_categorized_EN.txt	TRAIN	Vehicles	6	6	[0, 0, 0]	n/a	catFR1	0	R1290M
1075.406	1.042	1076150	WORD_OFF	n/a	n/a	TRAIN	Vehicles	6	6	[0, 0, 0]	n/a	catFR1	0	R1290M
1076.448	1.626	1077192	WORD	n/a	wordpools/wordpool_categorized_EN.txt	PRINTER	Electronics	7	6	[0, 0, 0]	n/a	catFR1	0	R1290M
1078.074	0.89	1078818	WORD_OFF	n/a	n/a	PRINTER	Electronics	7	6	[0, 0, 0]	n/a	catFR1	0	R1290M
1078.964	1.628	1079708	WORD	n/a	wordpools/wordpool_categorized_EN.txt	TABLET	Electronics	8	6	[0, 0, 0]	n/a	catFR1	0	R1290M
1080.592	0.967	1081336	WORD_OFF	n/a	n/a	TABLET	Electronics	8	6	[0, 0, 0]	n/a	catFR1	0	R1290M
1081.559	1.633	1082303	WORD	n/a	wordpools/wordpool_categorized_EN.txt	BOAT	Vehicles	9	6	[0, 0, 0]	n/a	catFR1	0	R1290M
1083.192	0.82	1083936	WORD_OFF	n/a	n/a	BOAT	Vehicles	9	6	[0, 0, 0]	n/a	catFR1	0	R1290M
1084.012	1.631	1084756	WORD	n/a	wordpools/wordpool_categorized_EN.txt	CAR	Vehicles	10	6	[0, 0, 0]	n/a	catFR1	0	R1290M
1085.643	1.083	1086387	WORD_OFF	n/a	n/a	CAR	Vehicles	10	6	[0, 0, 0]	n/a	catFR1	0	R1290M
1086.726	1.633	1087470	WORD	n/a	wordpools/wordpool_categorized_EN.txt	SPOON	KitchenTools	11	6	[0, 0, 0]	n/a	catFR1	0	R1290M
1088.359	0.88	1089102	WORD_OFF	n/a	n/a	SPOON	KitchenTools	11	6	[0, 0, 0]	n/a	catFR1	0	R1290M
1089.239	1.621	1089982	WORD	n/a	wordpools/wordpool_categorized_EN.txt	GRATER	KitchenTools	12	6	[0, 0, 0]	n/a	catFR1	0	R1290M
1090.86	0.001	1091603	WORD_OFF	n/a	n/a	GRATER	KitchenTools	12	6	[0, 0, 0]	n/a	catFR1	0	R1290M
1090.861	0.0	1091604	ENCODING_END	n/a	n/a	n/a	n/a	-999	6	[0, 0, 0]	n/a	catFR1	0	R1290M
1090.861	0.001	1091604	DISTRACT_START	n/a	n/a	n/a	n/a	-999	6	[0, 0, 0]	n/a	catFR1	0	R1290M
1090.862	0.015	1091605	START	n/a	n/a	n/a	n/a	-999	6	[-999, -999, -999]	n/a	catFR1	0	R1290M
1090.877	5.366	1091620	PROB	5.339	n/a	n/a	n/a	-999	6	[5, 8, 8]	21.0	catFR1	0	R1290M
1096.243	3.835	1096986	PROB	3.805	n/a	n/a	n/a	-999	6	[2, 6, 6]	14.0	catFR1	0	R1290M
1100.078	3.383	1100821	PROB	3.361	n/a	n/a	n/a	-999	6	[8, 3, 7]	18.0	catFR1	0	R1290M
1103.461	6.186	1104204	PROB	6.163	n/a	n/a	n/a	-999	6	[8, 8, 1]	17.0	catFR1	0	R1290M
1109.647	4.933	1110389	PROB	4.933	n/a	n/a	n/a	-999	6	[2, 8, 2]	12.0	catFR1	0	R1290M
1114.58	0.018	1115322	STOP	n/a	n/a	n/a	n/a	-999	6	[-999, -999, -999]	n/a	catFR1	0	R1290M
1114.598	0.701	1115340	DISTRACT_END	n/a	n/a	n/a	n/a	-999	6	[0, 0, 0]	n/a	catFR1	0	R1290M
1115.299	1.683	1116041	RETRIEVAL_ORIENT_START	n/a	n/a	n/a	n/a	-999	6	[0, 0, 0]	n/a	catFR1	0	R1290M
1116.982	0.0	1117724	RETRIEVAL_ORIENT_END	n/a	n/a	n/a	n/a	-999	6	[0, 0, 0]	n/a	catFR1	0	R1290M
1116.982	2.435	1117724	REC_START	n/a	n/a	n/a	n/a	-999	6	[0, 0, 0]	n/a	catFR1	0	R1290M
1119.417	1.375	1120159	REC_WORD	2.435	n/a	CALCULATOR	Electronics	1	6	[0, 0, 0]	n/a	catFR1	0	R1290M
1120.792	2.971	1121534	REC_WORD	3.81	n/a	PRINTER	Electronics	7	6	[0, 0, 0]	n/a	catFR1	0	R1290M
1123.763	8.965	1124505	REC_WORD	6.781	n/a	TABLET	Electronics	8	6	[0, 0, 0]	n/a	catFR1	0	R1290M
1132.728	3.153	1133469	REC_WORD	15.746	n/a	GRATER	KitchenTools	12	6	[0, 0, 0]	n/a	catFR1	0	R1290M
1135.881	8.776	1136622	REC_WORD	18.899	n/a	WHISK	KitchenTools	3	6	[0, 0, 0]	n/a	catFR1	0	R1290M
1144.657	1.977	1145398	REC_WORD	27.675	n/a	CAR	Vehicles	10	6	[0, 0, 0]	n/a	catFR1	0	R1290M
1146.634	0.36	1147375	REC_WORD	29.652	n/a	BOAT	Vehicles	9	6	[0, 0, 0]	n/a	catFR1	0	R1290M
1146.994	0.001	1147735	REC_END	n/a	n/a	n/a	n/a	-999	6	[0, 0, 0]	n/a	catFR1	0	R1290M
1146.995	0.024	1147736	TRIAL_END	n/a	n/a	n/a	n/a	-999	6	[0, 0, 0]	n/a	catFR1	0	R1290M
1147.019	0.0	1147760	TRIAL_START	n/a	n/a	n/a	n/a	-999	7	[0, 0, 0]	n/a	catFR1	0	R1290M
1147.019	0.001	1147760	TRIAL	n/a	n/a	n/a	n/a	-999	7	[0, 0, 0]	n/a	catFR1	0	R1290M
1147.02	9.553	1147761	WAITING_START	n/a	n/a	n/a	n/a	-999	7	[0, 0, 0]	n/a	catFR1	0	R1290M
1156.573	0.001	1157313	WAITING_END	n/a	n/a	n/a	n/a	-999	7	[0, 0, 0]	n/a	catFR1	0	R1290M
1156.574	10.429	1157314	COUNTDOWN_START	n/a	n/a	n/a	n/a	-999	7	[0, 0, 0]	n/a	catFR1	0	R1290M
1167.003	0.001	1167743	COUNTDOWN_END	n/a	n/a	n/a	n/a	-999	7	[0, 0, 0]	n/a	catFR1	0	R1290M
1167.004	1.188	1167744	ORIENT_START	n/a	n/a	n/a	n/a	-999	7	[0, 0, 0]	n/a	catFR1	0	R1290M
1168.192	0.001	1168932	ORIENT_END	n/a	n/a	n/a	n/a	-999	7	[0, 0, 0]	n/a	catFR1	0	R1290M
1168.193	1.106	1168933	ENCODING_START	n/a	n/a	n/a	n/a	-999	7	[0, 0, 0]	n/a	catFR1	0	R1290M
1169.299	1.627	1170039	WORD	n/a	wordpools/wordpool_categorized_EN.txt	TOE	BodyParts	1	7	[0, 0, 0]	n/a	catFR1	0	R1290M
1170.926	1.054	1171666	WORD_OFF	n/a	n/a	TOE	BodyParts	1	7	[0, 0, 0]	n/a	catFR1	0	R1290M
1171.98	1.629	1172720	WORD	n/a	wordpools/wordpool_categorized_EN.txt	LEG	BodyParts	2	7	[0, 0, 0]	n/a	catFR1	0	R1290M
1173.609	0.852	1174349	WORD_OFF	n/a	n/a	LEG	BodyParts	2	7	[0, 0, 0]	n/a	catFR1	0	R1290M
1174.461	1.632	1175201	WORD	n/a	wordpools/wordpool_categorized_EN.txt	MICROWAVE	Electronics	3	7	[0, 0, 0]	n/a	catFR1	0	R1290M
1176.093	1.073	1176832	WORD_OFF	n/a	n/a	MICROWAVE	Electronics	3	7	[0, 0, 0]	n/a	catFR1	0	R1290M
1177.166	1.611	1177905	WORD	n/a	wordpools/wordpool_categorized_EN.txt	RADIO	Electronics	4	7	[0, 0, 0]	n/a	catFR1	0	R1290M
1178.777	0.812	1179516	WORD_OFF	n/a	n/a	RADIO	Electronics	4	7	[0, 0, 0]	n/a	catFR1	0	R1290M
1179.589	1.622	1180328	WORD	n/a	wordpools/wordpool_categorized_EN.txt	PIG	FarmAnimals	5	7	[0, 0, 0]	n/a	catFR1	0	R1290M
1181.211	0.767	1181950	WORD_OFF	n/a	n/a	PIG	FarmAnimals	5	7	[0, 0, 0]	n/a	catFR1	0	R1290M
1181.978	1.633	1182717	WORD	n/a	wordpools/wordpool_categorized_EN.txt	COW	FarmAnimals	6	7	[0, 0, 0]	n/a	catFR1	0	R1290M
1183.611	0.941	1184350	WORD_OFF	n/a	n/a	COW	FarmAnimals	6	7	[0, 0, 0]	n/a	catFR1	0	R1290M
1184.552	1.627	1185291	WORD	n/a	wordpools/wordpool_categorized_EN.txt	EAR	BodyParts	7	7	[0, 0, 0]	n/a	catFR1	0	R1290M
1186.179	0.81	1186918	WORD_OFF	n/a	n/a	EAR	BodyParts	7	7	[0, 0, 0]	n/a	catFR1	0	R1290M
1186.989	1.623	1187728	WORD	n/a	wordpools/wordpool_categorized_EN.txt	FOOT	BodyParts	8	7	[0, 0, 0]	n/a	catFR1	0	R1290M
1188.612	0.753	1189351	WORD_OFF	n/a	n/a	FOOT	BodyParts	8	7	[0, 0, 0]	n/a	catFR1	0	R1290M
1189.365	1.614	1190104	WORD	n/a	wordpools/wordpool_categorized_EN.txt	HEADPHONES	Electronics	9	7	[0, 0, 0]	n/a	catFR1	0	R1290M
1190.979	1.021	1191718	WORD_OFF	n/a	n/a	HEADPHONES	Electronics	9	7	[0, 0, 0]	n/a	catFR1	0	R1290M
1192.0	1.63	1192739	WORD	n/a	wordpools/wordpool_categorized_EN.txt	TELEVISION	Electronics	10	7	[0, 0, 0]	n/a	catFR1	0	R1290M
1193.63	0.813	1194369	WORD_OFF	n/a	n/a	TELEVISION	Electronics	10	7	[0, 0, 0]	n/a	catFR1	0	R1290M
1194.443	1.637	1195182	WORD	n/a	wordpools/wordpool_categorized_EN.txt	LAMB	FarmAnimals	11	7	[0, 0, 0]	n/a	catFR1	0	R1290M
1196.08	0.837	1196819	WORD_OFF	n/a	n/a	LAMB	FarmAnimals	11	7	[0, 0, 0]	n/a	catFR1	0	R1290M
1196.917	1.631	1197656	WORD	n/a	wordpools/wordpool_categorized_EN.txt	SHEEP	FarmAnimals	12	7	[0, 0, 0]	n/a	catFR1	0	R1290M
1198.548	0.0	1199286	WORD_OFF	n/a	n/a	SHEEP	FarmAnimals	12	7	[0, 0, 0]	n/a	catFR1	0	R1290M
1198.548	0.001	1199286	ENCODING_END	n/a	n/a	n/a	n/a	-999	7	[0, 0, 0]	n/a	catFR1	0	R1290M
1198.549	0.0	1199287	DISTRACT_START	n/a	n/a	n/a	n/a	-999	7	[0, 0, 0]	n/a	catFR1	0	R1290M
1198.549	0.015	1199287	START	n/a	n/a	n/a	n/a	-999	7	[-999, -999, -999]	n/a	catFR1	0	R1290M
1198.564	7.968	1199302	PROB	7.931	n/a	n/a	n/a	-999	7	[6, 8, 3]	17.0	catFR1	0	R1290M
1206.532	5.301	1207270	PROB	5.27	n/a	n/a	n/a	-999	7	[5, 6, 7]	18.0	catFR1	0	R1290M
1211.833	4.184	1212571	PROB	4.152	n/a	n/a	n/a	-999	7	[1, 4, 5]	10.0	catFR1	0	R1290M
1216.017	2.649	1216755	PROB	2.649	n/a	n/a	n/a	-999	7	[5, 3, 7]	15.0	catFR1	0	R1290M
1218.666	0.019	1219404	STOP	n/a	n/a	n/a	n/a	-999	7	[-999, -999, -999]	n/a	catFR1	0	R1290M
1218.685	0.501	1219423	DISTRACT_END	n/a	n/a	n/a	n/a	-999	7	[0, 0, 0]	n/a	catFR1	0	R1290M
1219.186	1.716	1219924	RETRIEVAL_ORIENT_START	n/a	n/a	n/a	n/a	-999	7	[0, 0, 0]	n/a	catFR1	0	R1290M
1220.902	0.001	1221639	RETRIEVAL_ORIENT_END	n/a	n/a	n/a	n/a	-999	7	[0, 0, 0]	n/a	catFR1	0	R1290M
1220.903	1.306	1221640	REC_START	n/a	n/a	n/a	n/a	-999	7	[0, 0, 0]	n/a	catFR1	0	R1290M
1222.209	1.551	1222946	REC_WORD	1.306	n/a	LAMB	FarmAnimals	11	7	[0, 0, 0]	n/a	catFR1	0	R1290M
1223.76	0.722	1224497	REC_WORD	2.857	n/a	PIG	FarmAnimals	5	7	[0, 0, 0]	n/a	catFR1	0	R1290M
1224.482	1.272	1225219	REC_WORD	3.579	n/a	COW	FarmAnimals	6	7	[0, 0, 0]	n/a	catFR1	0	R1290M
1225.754	2.784	1226491	REC_WORD	4.851	n/a	EAR	BodyParts	7	7	[0, 0, 0]	n/a	catFR1	0	R1290M
1228.538	1.756	1229275	REC_WORD	7.635	n/a	LEG	BodyParts	2	7	[0, 0, 0]	n/a	catFR1	0	R1290M
1230.294	20.62	1231031	REC_WORD	9.391	n/a	TOE	BodyParts	1	7	[0, 0, 0]	n/a	catFR1	0	R1290M
1250.914	0.001	1251650	REC_END	n/a	n/a	n/a	n/a	-999	7	[0, 0, 0]	n/a	catFR1	0	R1290M
1250.915	0.021	1251651	TRIAL_END	n/a	n/a	n/a	n/a	-999	7	[0, 0, 0]	n/a	catFR1	0	R1290M
1250.936	0.0	1251672	TRIAL_START	n/a	n/a	n/a	n/a	-999	8	[0, 0, 0]	n/a	catFR1	0	R1290M
1250.936	0.001	1251672	TRIAL	n/a	n/a	n/a	n/a	-999	8	[0, 0, 0]	n/a	catFR1	0	R1290M
1250.937	5.105	1251673	WAITING_START	n/a	n/a	n/a	n/a	-999	8	[0, 0, 0]	n/a	catFR1	0	R1290M
1256.042	0.001	1256778	WAITING_END	n/a	n/a	n/a	n/a	-999	8	[0, 0, 0]	n/a	catFR1	0	R1290M
1256.043	10.429	1256779	COUNTDOWN_START	n/a	n/a	n/a	n/a	-999	8	[0, 0, 0]	n/a	catFR1	0	R1290M
1266.472	0.0	1267207	COUNTDOWN_END	n/a	n/a	n/a	n/a	-999	8	[0, 0, 0]	n/a	catFR1	0	R1290M
1266.472	1.022	1267207	ORIENT_START	n/a	n/a	n/a	n/a	-999	8	[0, 0, 0]	n/a	catFR1	0	R1290M
1267.494	0.001	1268229	ORIENT_END	n/a	n/a	n/a	n/a	-999	8	[0, 0, 0]	n/a	catFR1	0	R1290M
1267.495	0.958	1268230	ENCODING_START	n/a	n/a	n/a	n/a	-999	8	[0, 0, 0]	n/a	catFR1	0	R1290M
1268.453	1.608	1269188	WORD	n/a	wordpools/wordpool_categorized_EN.txt	SPARROW	Birds	1	8	[0, 0, 0]	n/a	catFR1	0	R1290M
1270.061	1.082	1270796	WORD_OFF	n/a	n/a	SPARROW	Birds	1	8	[0, 0, 0]	n/a	catFR1	0	R1290M
1271.143	1.636	1271878	WORD	n/a	wordpools/wordpool_categorized_EN.txt	DUCK	Birds	2	8	[0, 0, 0]	n/a	catFR1	0	R1290M
1272.779	1.135	1273514	WORD_OFF	n/a	n/a	DUCK	Birds	2	8	[0, 0, 0]	n/a	catFR1	0	R1290M
1273.914	1.632	1274649	WORD	n/a	wordpools/wordpool_categorized_EN.txt	TURKEY	FarmAnimals	3	8	[0, 0, 0]	n/a	catFR1	0	R1290M
1275.546	1.104	1276281	WORD_OFF	n/a	n/a	TURKEY	FarmAnimals	3	8	[0, 0, 0]	n/a	catFR1	0	R1290M
1276.65	1.629	1277385	WORD	n/a	wordpools/wordpool_categorized_EN.txt	HEN	FarmAnimals	4	8	[0, 0, 0]	n/a	catFR1	0	R1290M
1278.279	0.865	1279014	WORD_OFF	n/a	n/a	HEN	FarmAnimals	4	8	[0, 0, 0]	n/a	catFR1	0	R1290M
1279.144	1.636	1279879	WORD	n/a	wordpools/wordpool_categorized_EN.txt	KNIFE	KitchenTools	5	8	[0, 0, 0]	n/a	catFR1	0	R1290M
1280.78	0.807	1281515	WORD_OFF	n/a	n/a	KNIFE	KitchenTools	5	8	[0, 0, 0]	n/a	catFR1	0	R1290M
1281.587	1.627	1282322	WORD	n/a	wordpools/wordpool_categorized_EN.txt	PEELER	KitchenTools	6	8	[0, 0, 0]	n/a	catFR1	0	R1290M
1283.214	1.096	1283949	WORD_OFF	n/a	n/a	PEELER	KitchenTools	6	8	[0, 0, 0]	n/a	catFR1	0	R1290M
1284.31	1.638	1285045	WORD	n/a	wordpools/wordpool_categorized_EN.txt	CHICKEN	FarmAnimals	7	8	[0, 0, 0]	n/a	catFR1	0	R1290M
1285.948	0.814	1286683	WORD_OFF	n/a	n/a	CHICKEN	FarmAnimals	7	8	[0, 0, 0]	n/a	catFR1	0	R1290M
1286.762	1.635	1287497	WORD	n/a	wordpools/wordpool_categorized_EN.txt	ROOSTER	FarmAnimals	8	8	[0, 0, 0]	n/a	catFR1	0	R1290M
1288.397	0.974	1289131	WORD_OFF	n/a	n/a	ROOSTER	FarmAnimals	8	8	[0, 0, 0]	n/a	catFR1	0	R1290M
1289.371	1.628	1290105	WORD	n/a	wordpools/wordpool_categorized_EN.txt	FORK	KitchenTools	9	8	[0, 0, 0]	n/a	catFR1	0	R1290M
1290.999	0.932	1291733	WORD_OFF	n/a	n/a	FORK	KitchenTools	9	8	[0, 0, 0]	n/a	catFR1	0	R1290M
1291.931	1.635	1292665	WORD	n/a	wordpools/wordpool_categorized_EN.txt	TONGS	KitchenTools	10	8	[0, 0, 0]	n/a	catFR1	0	R1290M
1293.566	1.059	1294300	WORD_OFF	n/a	n/a	TONGS	KitchenTools	10	8	[0, 0, 0]	n/a	catFR1	0	R1290M
1294.625	1.624	1295359	WORD	n/a	wordpools/wordpool_categorized_EN.txt	FINCH	Birds	11	8	[0, 0, 0]	n/a	catFR1	0	R1290M
1296.249	0.8	1296983	WORD_OFF	n/a	n/a	FINCH	Birds	11	8	[0, 0, 0]	n/a	catFR1	0	R1290M
1297.049	1.635	1297783	WORD	n/a	wordpools/wordpool_categorized_EN.txt	ROBIN	Birds	12	8	[0, 0, 0]	n/a	catFR1	0	R1290M
1298.684	0.0	1299418	WORD_OFF	n/a	n/a	ROBIN	Birds	12	8	[0, 0, 0]	n/a	catFR1	0	R1290M
1298.684	0.001	1299418	ENCODING_END	n/a	n/a	n/a	n/a	-999	8	[0, 0, 0]	n/a	catFR1	0	R1290M
1298.685	0.0	1299419	DISTRACT_START	n/a	n/a	n/a	n/a	-999	8	[0, 0, 0]	n/a	catFR1	0	R1290M
1298.685	0.015	1299419	START	n/a	n/a	n/a	n/a	-999	8	[-999, -999, -999]	n/a	catFR1	0	R1290M
1298.7	5.7	1299434	PROB	5.674	n/a	n/a	n/a	-999	8	[7, 5, 2]	14.0	catFR1	0	R1290M
1304.4	6.602	1305134	PROB	6.566	n/a	n/a	n/a	-999	8	[3, 7, 8]	18.0	catFR1	0	R1290M
1311.002	4.018	1311735	PROB	3.981	n/a	n/a	n/a	-999	8	[3, 1, 9]	13.0	catFR1	0	R1290M
1315.02	7.441	1315753	PROB	7.441	n/a	n/a	n/a	-999	8	[3, 3, 2]	8.0	catFR1	0	R1290M
1322.461	0.011	1323194	STOP	n/a	n/a	n/a	n/a	-999	8	[-999, -999, -999]	n/a	catFR1	0	R1290M
1322.472	0.543	1323205	DISTRACT_END	n/a	n/a	n/a	n/a	-999	8	[0, 0, 0]	n/a	catFR1	0	R1290M
1323.015	1.59	1323748	RETRIEVAL_ORIENT_START	n/a	n/a	n/a	n/a	-999	8	[0, 0, 0]	n/a	catFR1	0	R1290M
1324.605	0.001	1325338	RETRIEVAL_ORIENT_END	n/a	n/a	n/a	n/a	-999	8	[0, 0, 0]	n/a	catFR1	0	R1290M
1324.606	1.113	1325339	REC_START	n/a	n/a	n/a	n/a	-999	8	[0, 0, 0]	n/a	catFR1	0	R1290M
1325.719	1.176	1326452	REC_WORD	1.113	n/a	SPARROW	Birds	1	8	[0, 0, 0]	n/a	catFR1	0	R1290M
1326.895	0.717	1327628	REC_WORD	2.289	n/a	DUCK	Birds	2	8	[0, 0, 0]	n/a	catFR1	0	R1290M
1327.612	17.827	1328345	REC_WORD	3.006	n/a	HEN	FarmAnimals	4	8	[0, 0, 0]	n/a	catFR1	0	R1290M
1345.439	9.178	1346171	REC_WORD	20.833	n/a	TURKEY	FarmAnimals	3	8	[0, 0, 0]	n/a	catFR1	0	R1290M
1354.617	0.001	1355348	REC_END	n/a	n/a	n/a	n/a	-999	8	[0, 0, 0]	n/a	catFR1	0	R1290M
1354.618	0.024	1355349	TRIAL_END	n/a	n/a	n/a	n/a	-999	8	[0, 0, 0]	n/a	catFR1	0	R1290M
1354.642	0.001	1355373	TRIAL_START	n/a	n/a	n/a	n/a	-999	9	[0, 0, 0]	n/a	catFR1	0	R1290M
1354.643	0.0	1355374	TRIAL	n/a	n/a	n/a	n/a	-999	9	[0, 0, 0]	n/a	catFR1	0	R1290M
1354.643	7.419	1355374	WAITING_START	n/a	n/a	n/a	n/a	-999	9	[0, 0, 0]	n/a	catFR1	0	R1290M
1362.062	0.001	1362793	WAITING_END	n/a	n/a	n/a	n/a	-999	9	[0, 0, 0]	n/a	catFR1	0	R1290M
1362.063	10.429	1362794	COUNTDOWN_START	n/a	n/a	n/a	n/a	-999	9	[0, 0, 0]	n/a	catFR1	0	R1290M
1372.492	0.001	1373223	COUNTDOWN_END	n/a	n/a	n/a	n/a	-999	9	[0, 0, 0]	n/a	catFR1	0	R1290M
1372.493	1.039	1373224	ORIENT_START	n/a	n/a	n/a	n/a	-999	9	[0, 0, 0]	n/a	catFR1	0	R1290M
1373.532	0.001	1374263	ORIENT_END	n/a	n/a	n/a	n/a	-999	9	[0, 0, 0]	n/a	catFR1	0	R1290M
1373.533	1.085	1374264	ENCODING_START	n/a	n/a	n/a	n/a	-999	9	[0, 0, 0]	n/a	catFR1	0	R1290M
1374.618	1.63	1375349	WORD	n/a	wordpools/wordpool_categorized_EN.txt	BLENDER	Appliances	1	9	[0, 0, 0]	n/a	catFR1	0	R1290M
1376.248	0.973	1376978	WORD_OFF	n/a	n/a	BLENDER	Appliances	1	9	[0, 0, 0]	n/a	catFR1	0	R1290M
1377.221	1.628	1377951	WORD	n/a	wordpools/wordpool_categorized_EN.txt	DISHWASHER	Appliances	2	9	[0, 0, 0]	n/a	catFR1	0	R1290M
1378.849	1.124	1379579	WORD_OFF	n/a	n/a	DISHWASHER	Appliances	2	9	[0, 0, 0]	n/a	catFR1	0	R1290M
1379.973	1.627	1380703	WORD	n/a	wordpools/wordpool_categorized_EN.txt	SPIDER	Insects	3	9	[0, 0, 0]	n/a	catFR1	0	R1290M
1381.6	0.894	1382330	WORD_OFF	n/a	n/a	SPIDER	Insects	3	9	[0, 0, 0]	n/a	catFR1	0	R1290M
1382.494	1.623	1383224	WORD	n/a	wordpools/wordpool_categorized_EN.txt	FLY	Insects	4	9	[0, 0, 0]	n/a	catFR1	0	R1290M
1384.117	1.128	1384847	WORD_OFF	n/a	n/a	FLY	Insects	4	9	[0, 0, 0]	n/a	catFR1	0	R1290M
1385.245	1.639	1385975	WORD	n/a	wordpools/wordpool_categorized_EN.txt	SPATULA	KitchenTools	5	9	[0, 0, 0]	n/a	catFR1	0	R1290M
1386.884	0.96	1387614	WORD_OFF	n/a	n/a	SPATULA	KitchenTools	5	9	[0, 0, 0]	n/a	catFR1	0	R1290M
1387.844	1.623	1388574	WORD	n/a	wordpools/wordpool_categorized_EN.txt	STRAINER	KitchenTools	6	9	[0, 0, 0]	n/a	catFR1	0	R1290M
1389.467	0.891	1390197	WORD_OFF	n/a	n/a	STRAINER	KitchenTools	6	9	[0, 0, 0]	n/a	catFR1	0	R1290M
1390.358	1.627	1391088	WORD	n/a	wordpools/wordpool_categorized_EN.txt	MOTH	Insects	7	9	[0, 0, 0]	n/a	catFR1	0	R1290M
1391.985	1.023	1392715	WORD_OFF	n/a	n/a	MOTH	Insects	7	9	[0, 0, 0]	n/a	catFR1	0	R1290M
1393.008	1.627	1393738	WORD	n/a	wordpools/wordpool_categorized_EN.txt	ANT	Insects	8	9	[0, 0, 0]	n/a	catFR1	0	R1290M
1394.635	0.835	1395365	WORD_OFF	n/a	n/a	ANT	Insects	8	9	[0, 0, 0]	n/a	catFR1	0	R1290M
1395.47	1.633	1396200	WORD	n/a	wordpools/wordpool_categorized_EN.txt	LADLE	KitchenTools	9	9	[0, 0, 0]	n/a	catFR1	0	R1290M
1397.103	0.783	1397833	WORD_OFF	n/a	n/a	LADLE	KitchenTools	9	9	[0, 0, 0]	n/a	catFR1	0	R1290M
1397.886	1.634	1398615	WORD	n/a	wordpools/wordpool_categorized_EN.txt	CORKSCREW	KitchenTools	10	9	[0, 0, 0]	n/a	catFR1	0	R1290M
1399.52	1.131	1400249	WORD_OFF	n/a	n/a	CORKSCREW	KitchenTools	10	9	[0, 0, 0]	n/a	catFR1	0	R1290M
1400.651	1.635	1401380	WORD	n/a	wordpools/wordpool_categorized_EN.txt	FREEZER	Appliances	11	9	[0, 0, 0]	n/a	catFR1	0	R1290M
1402.286	0.784	1403015	WORD_OFF	n/a	n/a	FREEZER	Appliances	11	9	[0, 0, 0]	n/a	catFR1	0	R1290M
1403.07	1.634	1403799	WORD	n/a	wordpools/wordpool_categorized_EN.txt	OVEN	Appliances	12	9	[0, 0, 0]	n/a	catFR1	0	R1290M
1404.704	0.001	1405433	WORD_OFF	n/a	n/a	OVEN	Appliances	12	9	[0, 0, 0]	n/a	catFR1	0	R1290M
1404.705	0.0	1405434	ENCODING_END	n/a	n/a	n/a	n/a	-999	9	[0, 0, 0]	n/a	catFR1	0	R1290M
1404.705	0.001	1405434	DISTRACT_START	n/a	n/a	n/a	n/a	-999	9	[0, 0, 0]	n/a	catFR1	0	R1290M
1404.706	0.015	1405435	START	n/a	n/a	n/a	n/a	-999	9	[-999, -999, -999]	n/a	catFR1	0	R1290M
1404.721	4.0	1405450	PROB	3.971	n/a	n/a	n/a	-999	9	[5, 6, 4]	15.0	catFR1	0	R1290M
1408.721	4.034	1409450	PROB	3.995	n/a	n/a	n/a	-999	9	[1, 5, 4]	10.0	catFR1	0	R1290M
1412.755	5.301	1413484	PROB	5.278	n/a	n/a	n/a	-999	9	[7, 4, 8]	19.0	catFR1	0	R1290M
1418.056	4.468	1418785	PROB	4.441	n/a	n/a	n/a	-999	9	[8, 4, 3]	15.0	catFR1	0	R1290M
1422.524	3.237	1423252	PROB	3.237	n/a	n/a	n/a	-999	9	[3, 8, 7]	18.0	catFR1	0	R1290M
1425.761	0.014	1426489	STOP	n/a	n/a	n/a	n/a	-999	9	[-999, -999, -999]	n/a	catFR1	0	R1290M
1425.775	0.579	1426503	DISTRACT_END	n/a	n/a	n/a	n/a	-999	9	[0, 0, 0]	n/a	catFR1	0	R1290M
1426.354	1.671	1427082	RETRIEVAL_ORIENT_START	n/a	n/a	n/a	n/a	-999	9	[0, 0, 0]	n/a	catFR1	0	R1290M
1428.025	0.001	1428753	RETRIEVAL_ORIENT_END	n/a	n/a	n/a	n/a	-999	9	[0, 0, 0]	n/a	catFR1	0	R1290M
1428.026	1.058	1428754	REC_START	n/a	n/a	n/a	n/a	-999	9	[0, 0, 0]	n/a	catFR1	0	R1290M
1429.084	0.81	1429812	REC_WORD	1.058	n/a	BLENDER	Appliances	1	9	[0, 0, 0]	n/a	catFR1	0	R1290M
1429.894	1.768	1430622	REC_WORD	1.868	n/a	CORKSCREW	KitchenTools	10	9	[0, 0, 0]	n/a	catFR1	0	R1290M
1431.662	2.718	1432390	REC_WORD	3.636	n/a	SPATULA	KitchenTools	5	9	[0, 0, 0]	n/a	catFR1	0	R1290M
1434.38	1.363	1435108	REC_WORD	6.354	n/a	SPIDER	Insects	3	9	[0, 0, 0]	n/a	catFR1	0	R1290M
1435.743	1.648	1436471	REC_WORD	7.717	n/a	ANT	Insects	8	9	[0, 0, 0]	n/a	catFR1	0	R1290M
1437.391	12.818	1438119	REC_WORD	9.365	n/a	FLY	Insects	4	9	[0, 0, 0]	n/a	catFR1	0	R1290M
1450.209	7.83	1450936	REC_WORD	22.183	n/a	DISHWASHER	Appliances	2	9	[0, 0, 0]	n/a	catFR1	0	R1290M
1458.039	0.001	1458766	REC_END	n/a	n/a	n/a	n/a	-999	9	[0, 0, 0]	n/a	catFR1	0	R1290M
1458.04	0.021	1458767	TRIAL_END	n/a	n/a	n/a	n/a	-999	9	[0, 0, 0]	n/a	catFR1	0	R1290M
1458.061	0.0	1458788	TRIAL_START	n/a	n/a	n/a	n/a	-999	10	[0, 0, 0]	n/a	catFR1	0	R1290M
1458.061	0.001	1458788	TRIAL	n/a	n/a	n/a	n/a	-999	10	[0, 0, 0]	n/a	catFR1	0	R1290M
1458.062	6.92	1458789	WAITING_START	n/a	n/a	n/a	n/a	-999	10	[0, 0, 0]	n/a	catFR1	0	R1290M
1464.982	0.001	1465708	WAITING_END	n/a	n/a	n/a	n/a	-999	10	[0, 0, 0]	n/a	catFR1	0	R1290M
1464.983	10.43	1465709	COUNTDOWN_START	n/a	n/a	n/a	n/a	-999	10	[0, 0, 0]	n/a	catFR1	0	R1290M
1475.413	0.001	1476139	COUNTDOWN_END	n/a	n/a	n/a	n/a	-999	10	[0, 0, 0]	n/a	catFR1	0	R1290M
1475.414	1.254	1476140	ORIENT_START	n/a	n/a	n/a	n/a	-999	10	[0, 0, 0]	n/a	catFR1	0	R1290M
1476.668	0.001	1477394	ORIENT_END	n/a	n/a	n/a	n/a	-999	10	[0, 0, 0]	n/a	catFR1	0	R1290M
1476.669	0.971	1477395	ENCODING_START	n/a	n/a	n/a	n/a	-999	10	[0, 0, 0]	n/a	catFR1	0	R1290M
1477.64	1.627	1478366	WORD	n/a	wordpools/wordpool_categorized_EN.txt	ROOF	Building	1	10	[0, 0, 0]	n/a	catFR1	0	R1290M
1479.267	0.908	1479993	WORD_OFF	n/a	n/a	ROOF	Building	1	10	[0, 0, 0]	n/a	catFR1	0	R1290M
1480.175	1.627	1480901	WORD	n/a	wordpools/wordpool_categorized_EN.txt	CEILING	Building	2	10	[0, 0, 0]	n/a	catFR1	0	R1290M
1481.802	0.854	1482528	WORD_OFF	n/a	n/a	CEILING	Building	2	10	[0, 0, 0]	n/a	catFR1	0	R1290M
1482.656	1.629	1483382	WORD	n/a	wordpools/wordpool_categorized_EN.txt	JELLYFISH	OceanAnimals	3	10	[0, 0, 0]	n/a	catFR1	0	R1290M
1484.285	1.142	1485011	WORD_OFF	n/a	n/a	JELLYFISH	OceanAnimals	3	10	[0, 0, 0]	n/a	catFR1	0	R1290M
1485.427	1.626	1486153	WORD	n/a	wordpools/wordpool_categorized_EN.txt	DOLPHIN	OceanAnimals	4	10	[0, 0, 0]	n/a	catFR1	0	R1290M
1487.053	0.958	1487778	WORD_OFF	n/a	n/a	DOLPHIN	OceanAnimals	4	10	[0, 0, 0]	n/a	catFR1	0	R1290M
1488.011	1.626	1488736	WORD	n/a	wordpools/wordpool_categorized_EN.txt	EVERGREEN	Trees	5	10	[0, 0, 0]	n/a	catFR1	0	R1290M
1489.637	0.927	1490362	WORD_OFF	n/a	n/a	EVERGREEN	Trees	5	10	[0, 0, 0]	n/a	catFR1	0	R1290M
1490.564	1.624	1491289	WORD	n/a	wordpools/wordpool_categorized_EN.txt	PINE	Trees	6	10	[0, 0, 0]	n/a	catFR1	0	R1290M
1492.188	0.88	1492913	WORD_OFF	n/a	n/a	PINE	Trees	6	10	[0, 0, 0]	n/a	catFR1	0	R1290M
1493.068	1.637	1493793	WORD	n/a	wordpools/wordpool_categorized_EN.txt	TURTLE	OceanAnimals	7	10	[0, 0, 0]	n/a	catFR1	0	R1290M
1494.705	0.828	1495430	WORD_OFF	n/a	n/a	TURTLE	OceanAnimals	7	10	[0, 0, 0]	n/a	catFR1	0	R1290M
1495.533	1.639	1496258	WORD	n/a	wordpools/wordpool_categorized_EN.txt	WHALE	OceanAnimals	8	10	[0, 0, 0]	n/a	catFR1	0	R1290M
1497.172	1.022	1497897	WORD_OFF	n/a	n/a	WHALE	OceanAnimals	8	10	[0, 0, 0]	n/a	catFR1	0	R1290M
1498.194	1.628	1498919	WORD	n/a	wordpools/wordpool_categorized_EN.txt	STAIRS	Building	9	10	[0, 0, 0]	n/a	catFR1	0	R1290M
1499.822	1.034	1500547	WORD_OFF	n/a	n/a	STAIRS	Building	9	10	[0, 0, 0]	n/a	catFR1	0	R1290M
1500.856	1.634	1501581	WORD	n/a	wordpools/wordpool_categorized_EN.txt	FLOOR	Building	10	10	[0, 0, 0]	n/a	catFR1	0	R1290M
1502.49	1.011	1503215	WORD_OFF	n/a	n/a	FLOOR	Building	10	10	[0, 0, 0]	n/a	catFR1	0	R1290M
1503.501	1.622	1504226	WORD	n/a	wordpools/wordpool_categorized_EN.txt	BIRCH	Trees	11	10	[0, 0, 0]	n/a	catFR1	0	R1290M
1505.123	1.066	1505848	WORD_OFF	n/a	n/a	BIRCH	Trees	11	10	[0, 0, 0]	n/a	catFR1	0	R1290M
1506.189	1.635	1506914	WORD	n/a	wordpools/wordpool_categorized_EN.txt	CYPRESS	Trees	12	10	[0, 0, 0]	n/a	catFR1	0	R1290M
1507.824	0.001	1508549	WORD_OFF	n/a	n/a	CYPRESS	Trees	12	10	[0, 0, 0]	n/a	catFR1	0	R1290M
1507.825	0.001	1508550	ENCODING_END	n/a	n/a	n/a	n/a	-999	10	[0, 0, 0]	n/a	catFR1	0	R1290M
1507.826	0.0	1508551	DISTRACT_START	n/a	n/a	n/a	n/a	-999	10	[0, 0, 0]	n/a	catFR1	0	R1290M
1507.826	0.014	1508551	START	n/a	n/a	n/a	n/a	-999	10	[-999, -999, -999]	n/a	catFR1	0	R1290M
1507.84	6.868	1508565	PROB	6.845	n/a	n/a	n/a	-999	10	[7, 7, 9]	21.0	catFR1	0	R1290M
1514.708	4.501	1515432	PROB	4.464	n/a	n/a	n/a	-999	10	[5, 5, 1]	11.0	catFR1	0	R1290M
1519.209	5.535	1519933	PROB	5.507	n/a	n/a	n/a	-999	10	[1, 2, 6]	9.0	catFR1	0	R1290M
1524.744	4.295	1525468	PROB	4.295	n/a	n/a	n/a	-999	10	[1, 2, 4]	7.0	catFR1	0	R1290M
1529.039	0.022	1529763	STOP	n/a	n/a	n/a	n/a	-999	10	[-999, -999, -999]	n/a	catFR1	0	R1290M
1529.061	0.663	1529785	DISTRACT_END	n/a	n/a	n/a	n/a	-999	10	[0, 0, 0]	n/a	catFR1	0	R1290M
1529.724	1.554	1530448	RETRIEVAL_ORIENT_START	n/a	n/a	n/a	n/a	-999	10	[0, 0, 0]	n/a	catFR1	0	R1290M
1531.278	0.0	1532001	RETRIEVAL_ORIENT_END	n/a	n/a	n/a	n/a	-999	10	[0, 0, 0]	n/a	catFR1	0	R1290M
1531.278	1.126	1532001	REC_START	n/a	n/a	n/a	n/a	-999	10	[0, 0, 0]	n/a	catFR1	0	R1290M
1532.404	1.715	1533127	REC_WORD	1.126	n/a	CYPRESS	Trees	12	10	[0, 0, 0]	n/a	catFR1	0	R1290M
1534.119	2.371	1534842	REC_WORD	2.841	n/a	EVERGREEN	Trees	5	10	[0, 0, 0]	n/a	catFR1	0	R1290M
1536.49	4.707	1537213	REC_WORD	5.212	n/a	PINE	Trees	6	10	[0, 0, 0]	n/a	catFR1	0	R1290M
1541.197	2.074	1541920	REC_WORD	9.919	n/a	JELLYFISH	OceanAnimals	3	10	[0, 0, 0]	n/a	catFR1	0	R1290M
1543.271	7.149	1543994	REC_WORD	11.993	n/a	DOLPHIN	OceanAnimals	4	10	[0, 0, 0]	n/a	catFR1	0	R1290M
1550.42	1.615	1551143	REC_WORD	19.142	n/a	ROOF	Building	1	10	[0, 0, 0]	n/a	catFR1	0	R1290M
1552.035	9.257	1552758	REC_WORD	20.757	n/a	CEILING	Building	2	10	[0, 0, 0]	n/a	catFR1	0	R1290M
1561.292	0.0	1562014	REC_END	n/a	n/a	n/a	n/a	-999	10	[0, 0, 0]	n/a	catFR1	0	R1290M
1561.292	0.024	1562014	TRIAL_END	n/a	n/a	n/a	n/a	-999	10	[0, 0, 0]	n/a	catFR1	0	R1290M
1561.316	0.0	1562038	TRIAL_START	n/a	n/a	n/a	n/a	-999	11	[0, 0, 0]	n/a	catFR1	0	R1290M
1561.316	0.0	1562038	TRIAL	n/a	n/a	n/a	n/a	-999	11	[0, 0, 0]	n/a	catFR1	0	R1290M
1561.316	5.353	1562038	WAITING_START	n/a	n/a	n/a	n/a	-999	11	[0, 0, 0]	n/a	catFR1	0	R1290M
1566.669	0.001	1567391	WAITING_END	n/a	n/a	n/a	n/a	-999	11	[0, 0, 0]	n/a	catFR1	0	R1290M
1566.67	10.428	1567392	COUNTDOWN_START	n/a	n/a	n/a	n/a	-999	11	[0, 0, 0]	n/a	catFR1	0	R1290M
1577.098	0.001	1577819	COUNTDOWN_END	n/a	n/a	n/a	n/a	-999	11	[0, 0, 0]	n/a	catFR1	0	R1290M
1577.099	1.122	1577820	ORIENT_START	n/a	n/a	n/a	n/a	-999	11	[0, 0, 0]	n/a	catFR1	0	R1290M
1578.221	0.001	1578942	ORIENT_END	n/a	n/a	n/a	n/a	-999	11	[0, 0, 0]	n/a	catFR1	0	R1290M
1578.222	0.83	1578943	ENCODING_START	n/a	n/a	n/a	n/a	-999	11	[0, 0, 0]	n/a	catFR1	0	R1290M
1579.052	1.636	1579773	WORD	n/a	wordpools/wordpool_categorized_EN.txt	SODA	Beverages	1	11	[0, 0, 0]	n/a	catFR1	0	R1290M
1580.688	0.919	1581409	WORD_OFF	n/a	n/a	SODA	Beverages	1	11	[0, 0, 0]	n/a	catFR1	0	R1290M
1581.607	1.63	1582328	WORD	n/a	wordpools/wordpool_categorized_EN.txt	MILK	Beverages	2	11	[0, 0, 0]	n/a	catFR1	0	R1290M
1583.237	0.959	1583958	WORD_OFF	n/a	n/a	MILK	Beverages	2	11	[0, 0, 0]	n/a	catFR1	0	R1290M
1584.196	1.626	1584917	WORD	n/a	wordpools/wordpool_categorized_EN.txt	GOOSE	Birds	3	11	[0, 0, 0]	n/a	catFR1	0	R1290M
1585.822	0.852	1586543	WORD_OFF	n/a	n/a	GOOSE	Birds	3	11	[0, 0, 0]	n/a	catFR1	0	R1290M
1586.674	1.631	1587395	WORD	n/a	wordpools/wordpool_categorized_EN.txt	HAWK	Birds	4	11	[0, 0, 0]	n/a	catFR1	0	R1290M
1588.305	0.826	1589026	WORD_OFF	n/a	n/a	HAWK	Birds	4	11	[0, 0, 0]	n/a	catFR1	0	R1290M
1589.131	1.626	1589852	WORD	n/a	wordpools/wordpool_categorized_EN.txt	DRESS	Clothing	5	11	[0, 0, 0]	n/a	catFR1	0	R1290M
1590.757	0.929	1591478	WORD_OFF	n/a	n/a	DRESS	Clothing	5	11	[0, 0, 0]	n/a	catFR1	0	R1290M
1591.686	1.637	1592407	WORD	n/a	wordpools/wordpool_categorized_EN.txt	SOCKS	Clothing	6	11	[0, 0, 0]	n/a	catFR1	0	R1290M
1593.323	0.872	1594044	WORD_OFF	n/a	n/a	SOCKS	Clothing	6	11	[0, 0, 0]	n/a	catFR1	0	R1290M
1594.195	1.629	1594916	WORD	n/a	wordpools/wordpool_categorized_EN.txt	JUICE	Beverages	7	11	[0, 0, 0]	n/a	catFR1	0	R1290M
1595.824	0.935	1596545	WORD_OFF	n/a	n/a	JUICE	Beverages	7	11	[0, 0, 0]	n/a	catFR1	0	R1290M
1596.759	1.632	1597480	WORD	n/a	wordpools/wordpool_categorized_EN.txt	BEER	Beverages	8	11	[0, 0, 0]	n/a	catFR1	0	R1290M
1598.391	0.999	1599111	WORD_OFF	n/a	n/a	BEER	Beverages	8	11	[0, 0, 0]	n/a	catFR1	0	R1290M
1599.39	1.619	1600110	WORD	n/a	wordpools/wordpool_categorized_EN.txt	SEAGULL	Birds	9	11	[0, 0, 0]	n/a	catFR1	0	R1290M
1601.009	0.87	1601729	WORD_OFF	n/a	n/a	SEAGULL	Birds	9	11	[0, 0, 0]	n/a	catFR1	0	R1290M
1601.879	1.63	1602599	WORD	n/a	wordpools/wordpool_categorized_EN.txt	CROW	Birds	10	11	[0, 0, 0]	n/a	catFR1	0	R1290M
1603.509	0.955	1604229	WORD_OFF	n/a	n/a	CROW	Birds	10	11	[0, 0, 0]	n/a	catFR1	0	R1290M
1604.464	1.629	1605184	WORD	n/a	wordpools/wordpool_categorized_EN.txt	PANTS	Clothing	11	11	[0, 0, 0]	n/a	catFR1	0	R1290M
1606.093	0.85	1606813	WORD_OFF	n/a	n/a	PANTS	Clothing	11	11	[0, 0, 0]	n/a	catFR1	0	R1290M
1606.943	1.634	1607663	WORD	n/a	wordpools/wordpool_categorized_EN.txt	SHOES	Clothing	12	11	[0, 0, 0]	n/a	catFR1	0	R1290M
1608.577	0.0	1609297	WORD_OFF	n/a	n/a	SHOES	Clothing	12	11	[0, 0, 0]	n/a	catFR1	0	R1290M
1608.577	0.001	1609297	ENCODING_END	n/a	n/a	n/a	n/a	-999	11	[0, 0, 0]	n/a	catFR1	0	R1290M
1608.578	0.0	1609298	DISTRACT_START	n/a	n/a	n/a	n/a	-999	11	[0, 0, 0]	n/a	catFR1	0	R1290M
1608.578	0.015	1609298	START	n/a	n/a	n/a	n/a	-999	11	[-999, -999, -999]	n/a	catFR1	0	R1290M
1608.593	3.584	1609313	PROB	3.55	n/a	n/a	n/a	-999	11	[3, 5, 4]	12.0	catFR1	0	R1290M
1612.177	2.434	1612897	PROB	2.407	n/a	n/a	n/a	-999	11	[1, 4, 1]	6.0	catFR1	0	R1290M
1614.611	8.667	1615331	PROB	8.629	n/a	n/a	n/a	-999	11	[4, 5, 9]	18.0	catFR1	0	R1290M
1623.278	5.185	1623997	PROB	5.148	n/a	n/a	n/a	-999	11	[3, 9, 5]	17.0	catFR1	0	R1290M
1628.463	3.396	1629182	PROB	3.396	n/a	n/a	n/a	-999	11	[1, 2, 2]	5.0	catFR1	0	R1290M
1631.859	0.022	1632578	STOP	n/a	n/a	n/a	n/a	-999	11	[-999, -999, -999]	n/a	catFR1	0	R1290M
1631.881	0.685	1632600	DISTRACT_END	n/a	n/a	n/a	n/a	-999	11	[0, 0, 0]	n/a	catFR1	0	R1290M
1632.566	1.549	1633285	RETRIEVAL_ORIENT_START	n/a	n/a	n/a	n/a	-999	11	[0, 0, 0]	n/a	catFR1	0	R1290M
1634.115	0.001	1634834	RETRIEVAL_ORIENT_END	n/a	n/a	n/a	n/a	-999	11	[0, 0, 0]	n/a	catFR1	0	R1290M
1634.116	0.799	1634835	REC_START	n/a	n/a	n/a	n/a	-999	11	[0, 0, 0]	n/a	catFR1	0	R1290M
1634.915	0.791	1635634	REC_WORD	0.799	n/a	DRESS	Clothing	5	11	[0, 0, 0]	n/a	catFR1	0	R1290M
1635.706	1.362	1636425	REC_WORD	1.59	n/a	SHOES	Clothing	12	11	[0, 0, 0]	n/a	catFR1	0	R1290M
1637.068	0.365	1637787	REC_WORD	2.952	n/a	DRESS	Clothing	5	11	[0, 0, 0]	n/a	catFR1	0	R1290M
1637.433	11.893	1638152	REC_WORD	3.317	n/a	SOCKS	Clothing	6	11	[0, 0, 0]	n/a	catFR1	0	R1290M
1649.326	14.803	1650044	REC_WORD	15.21	n/a	HAWK	Birds	4	11	[0, 0, 0]	n/a	catFR1	0	R1290M
1664.129	0.001	1664847	REC_END	n/a	n/a	n/a	n/a	-999	11	[0, 0, 0]	n/a	catFR1	0	R1290M
1664.13	0.021	1664848	TRIAL_END	n/a	n/a	n/a	n/a	-999	11	[0, 0, 0]	n/a	catFR1	0	R1290M
1664.151	0.001	1664869	TRIAL_START	n/a	n/a	n/a	n/a	-999	12	[0, 0, 0]	n/a	catFR1	0	R1290M
1664.152	0.0	1664870	TRIAL	n/a	n/a	n/a	n/a	-999	12	[0, 0, 0]	n/a	catFR1	0	R1290M
1664.152	25.289	1664870	WAITING_START	n/a	n/a	n/a	n/a	-999	12	[0, 0, 0]	n/a	catFR1	0	R1290M
1689.441	0.001	1690157	WAITING_END	n/a	n/a	n/a	n/a	-999	12	[0, 0, 0]	n/a	catFR1	0	R1290M
1689.442	10.429	1690158	COUNTDOWN_START	n/a	n/a	n/a	n/a	-999	12	[0, 0, 0]	n/a	catFR1	0	R1290M
1699.871	0.001	1700587	COUNTDOWN_END	n/a	n/a	n/a	n/a	-999	12	[0, 0, 0]	n/a	catFR1	0	R1290M
1699.872	1.173	1700588	ORIENT_START	n/a	n/a	n/a	n/a	-999	12	[0, 0, 0]	n/a	catFR1	0	R1290M
1701.045	0.0	1701761	ORIENT_END	n/a	n/a	n/a	n/a	-999	12	[0, 0, 0]	n/a	catFR1	0	R1290M
1701.045	0.882	1701761	ENCODING_START	n/a	n/a	n/a	n/a	-999	12	[0, 0, 0]	n/a	catFR1	0	R1290M
1701.927	1.635	1702643	WORD	n/a	wordpools/wordpool_categorized_EN.txt	BASEBALL	Toys	1	12	[0, 0, 0]	n/a	catFR1	0	R1290M
1703.562	1.017	1704278	WORD_OFF	n/a	n/a	BASEBALL	Toys	1	12	[0, 0, 0]	n/a	catFR1	0	R1290M
1704.579	1.633	1705295	WORD	n/a	wordpools/wordpool_categorized_EN.txt	SLINKY	Toys	2	12	[0, 0, 0]	n/a	catFR1	0	R1290M
1706.212	0.999	1706928	WORD_OFF	n/a	n/a	SLINKY	Toys	2	12	[0, 0, 0]	n/a	catFR1	0	R1290M
1707.211	1.635	1707927	WORD	n/a	wordpools/wordpool_categorized_EN.txt	CAULIFLOWER	Vegetables	3	12	[0, 0, 0]	n/a	catFR1	0	R1290M
1708.846	0.862	1709562	WORD_OFF	n/a	n/a	CAULIFLOWER	Vegetables	3	12	[0, 0, 0]	n/a	catFR1	0	R1290M
1709.708	1.638	1710423	WORD	n/a	wordpools/wordpool_categorized_EN.txt	LETTUCE	Vegetables	4	12	[0, 0, 0]	n/a	catFR1	0	R1290M
1711.346	0.83	1712061	WORD_OFF	n/a	n/a	LETTUCE	Vegetables	4	12	[0, 0, 0]	n/a	catFR1	0	R1290M
1712.176	1.638	1712891	WORD	n/a	wordpools/wordpool_categorized_EN.txt	CLOUD	Weather	5	12	[0, 0, 0]	n/a	catFR1	0	R1290M
1713.814	1.022	1714529	WORD_OFF	n/a	n/a	CLOUD	Weather	5	12	[0, 0, 0]	n/a	catFR1	0	R1290M
1714.836	1.627	1715551	WORD	n/a	wordpools/wordpool_categorized_EN.txt	DRIZZLE	Weather	6	12	[0, 0, 0]	n/a	catFR1	0	R1290M
1716.463	0.814	1717178	WORD_OFF	n/a	n/a	DRIZZLE	Weather	6	12	[0, 0, 0]	n/a	catFR1	0	R1290M
1717.277	1.638	1717992	WORD	n/a	wordpools/wordpool_categorized_EN.txt	CORN	Vegetables	7	12	[0, 0, 0]	n/a	catFR1	0	R1290M
1718.915	0.876	1719630	WORD_OFF	n/a	n/a	CORN	Vegetables	7	12	[0, 0, 0]	n/a	catFR1	0	R1290M
1719.791	1.623	1720506	WORD	n/a	wordpools/wordpool_categorized_EN.txt	CARROT	Vegetables	8	12	[0, 0, 0]	n/a	catFR1	0	R1290M
1721.414	0.946	1722129	WORD_OFF	n/a	n/a	CARROT	Vegetables	8	12	[0, 0, 0]	n/a	catFR1	0	R1290M
1722.36	1.639	1723075	WORD	n/a	wordpools/wordpool_categorized_EN.txt	DOLL	Toys	9	12	[0, 0, 0]	n/a	catFR1	0	R1290M
1723.999	0.781	1724714	WORD_OFF	n/a	n/a	DOLL	Toys	9	12	[0, 0, 0]	n/a	catFR1	0	R1290M
1724.78	1.635	1725495	WORD	n/a	wordpools/wordpool_categorized_EN.txt	FRISBEE	Toys	10	12	[0, 0, 0]	n/a	catFR1	0	R1290M
1726.415	1.02	1727130	WORD_OFF	n/a	n/a	FRISBEE	Toys	10	12	[0, 0, 0]	n/a	catFR1	0	R1290M
1727.435	1.615	1728150	WORD	n/a	wordpools/wordpool_categorized_EN.txt	LIGHTNING	Weather	11	12	[0, 0, 0]	n/a	catFR1	0	R1290M
1729.05	1.082	1729765	WORD_OFF	n/a	n/a	LIGHTNING	Weather	11	12	[0, 0, 0]	n/a	catFR1	0	R1290M
1730.132	1.635	1730847	WORD	n/a	wordpools/wordpool_categorized_EN.txt	WIND	Weather	12	12	[0, 0, 0]	n/a	catFR1	0	R1290M
1731.767	0.001	1732481	WORD_OFF	n/a	n/a	WIND	Weather	12	12	[0, 0, 0]	n/a	catFR1	0	R1290M
1731.768	0.0	1732482	ENCODING_END	n/a	n/a	n/a	n/a	-999	12	[0, 0, 0]	n/a	catFR1	0	R1290M
1731.768	0.001	1732482	DISTRACT_START	n/a	n/a	n/a	n/a	-999	12	[0, 0, 0]	n/a	catFR1	0	R1290M
1731.769	0.015	1732483	START	n/a	n/a	n/a	n/a	-999	12	[-999, -999, -999]	n/a	catFR1	0	R1290M
1731.784	6.351	1732498	PROB	6.317	n/a	n/a	n/a	-999	12	[9, 9, 8]	26.0	catFR1	0	R1290M
1738.135	4.651	1738849	PROB	4.621	n/a	n/a	n/a	-999	12	[2, 7, 6]	15.0	catFR1	0	R1290M
1742.786	4.084	1743500	PROB	4.049	n/a	n/a	n/a	-999	12	[1, 7, 4]	12.0	catFR1	0	R1290M
1746.87	4.583	1747584	PROB	4.557	n/a	n/a	n/a	-999	12	[1, 9, 4]	14.0	catFR1	0	R1290M
1751.453	4.938	1752167	PROB	4.938	n/a	n/a	n/a	-999	12	[3, 5, 8]	16.0	catFR1	0	R1290M
1756.391	0.013	1757104	STOP	n/a	n/a	n/a	n/a	-999	12	[-999, -999, -999]	n/a	catFR1	0	R1290M
1756.404	0.696	1757117	DISTRACT_END	n/a	n/a	n/a	n/a	-999	12	[0, 0, 0]	n/a	catFR1	0	R1290M
1757.1	1.606	1757813	RETRIEVAL_ORIENT_START	n/a	n/a	n/a	n/a	-999	12	[0, 0, 0]	n/a	catFR1	0	R1290M
1758.706	0.0	1759419	RETRIEVAL_ORIENT_END	n/a	n/a	n/a	n/a	-999	12	[0, 0, 0]	n/a	catFR1	0	R1290M
1758.706	1.717	1759419	REC_START	n/a	n/a	n/a	n/a	-999	12	[0, 0, 0]	n/a	catFR1	0	R1290M
1760.423	1.328	1761136	REC_WORD	1.717	n/a	LETTUCE	Vegetables	4	12	[0, 0, 0]	n/a	catFR1	0	R1290M
1761.751	0.851	1762464	REC_WORD	3.045	n/a	CARROT	Vegetables	8	12	[0, 0, 0]	n/a	catFR1	0	R1290M
1762.602	1.128	1763315	REC_WORD	3.896	n/a	CORN	Vegetables	7	12	[0, 0, 0]	n/a	catFR1	0	R1290M
1763.73	0.773	1764443	REC_WORD	5.024	n/a	DOLL	Toys	9	12	[0, 0, 0]	n/a	catFR1	0	R1290M
1764.503	1.636	1765216	REC_WORD	5.797	n/a	FRISBEE	Toys	10	12	[0, 0, 0]	n/a	catFR1	0	R1290M
1766.139	1.483	1766852	REC_WORD	7.433	n/a	CLOUD	Weather	5	12	[0, 0, 0]	n/a	catFR1	0	R1290M
1767.622	6.641	1768335	REC_WORD	8.916	n/a	DRIZZLE	Weather	6	12	[0, 0, 0]	n/a	catFR1	0	R1290M
1774.263	14.455	1774976	REC_WORD	15.557	n/a	BASEBALL	Toys	1	12	[0, 0, 0]	n/a	catFR1	0	R1290M
1788.718	0.0	1789430	REC_END	n/a	n/a	n/a	n/a	-999	12	[0, 0, 0]	n/a	catFR1	0	R1290M
1788.718	0.022	1789430	TRIAL_END	n/a	n/a	n/a	n/a	-999	12	[0, 0, 0]	n/a	catFR1	0	R1290M
1788.74	0.0	1789452	TRIAL_START	n/a	n/a	n/a	n/a	-999	13	[0, 0, 0]	n/a	catFR1	0	R1290M
1788.74	0.001	1789452	TRIAL	n/a	n/a	n/a	n/a	-999	13	[0, 0, 0]	n/a	catFR1	0	R1290M
1788.741	4.855	1789453	WAITING_START	n/a	n/a	n/a	n/a	-999	13	[0, 0, 0]	n/a	catFR1	0	R1290M
1793.596	0.001	1794308	WAITING_END	n/a	n/a	n/a	n/a	-999	13	[0, 0, 0]	n/a	catFR1	0	R1290M
1793.597	10.43	1794309	COUNTDOWN_START	n/a	n/a	n/a	n/a	-999	13	[0, 0, 0]	n/a	catFR1	0	R1290M
1804.027	0.001	1804738	COUNTDOWN_END	n/a	n/a	n/a	n/a	-999	13	[0, 0, 0]	n/a	catFR1	0	R1290M
1804.028	1.252	1804739	ORIENT_START	n/a	n/a	n/a	n/a	-999	13	[0, 0, 0]	n/a	catFR1	0	R1290M
1805.28	0.001	1805991	ORIENT_END	n/a	n/a	n/a	n/a	-999	13	[0, 0, 0]	n/a	catFR1	0	R1290M
1805.281	0.923	1805992	ENCODING_START	n/a	n/a	n/a	n/a	-999	13	[0, 0, 0]	n/a	catFR1	0	R1290M
1806.204	1.628	1806915	WORD	n/a	wordpools/wordpool_categorized_EN.txt	MIXER	Appliances	1	13	[0, 0, 0]	n/a	catFR1	0	R1290M
1807.832	1.035	1808543	WORD_OFF	n/a	n/a	MIXER	Appliances	1	13	[0, 0, 0]	n/a	catFR1	0	R1290M
1808.867	1.632	1809578	WORD	n/a	wordpools/wordpool_categorized_EN.txt	IRON	Appliances	2	13	[0, 0, 0]	n/a	catFR1	0	R1290M
1810.499	0.863	1811210	WORD_OFF	n/a	n/a	IRON	Appliances	2	13	[0, 0, 0]	n/a	catFR1	0	R1290M
1811.362	1.621	1812073	WORD	n/a	wordpools/wordpool_categorized_EN.txt	ROSE	Flowers	3	13	[0, 0, 0]	n/a	catFR1	0	R1290M
1812.983	0.913	1813694	WORD_OFF	n/a	n/a	ROSE	Flowers	3	13	[0, 0, 0]	n/a	catFR1	0	R1290M
1813.896	1.637	1814607	WORD	n/a	wordpools/wordpool_categorized_EN.txt	MARIGOLD	Flowers	4	13	[0, 0, 0]	n/a	catFR1	0	R1290M
1815.533	0.807	1816244	WORD_OFF	n/a	n/a	MARIGOLD	Flowers	4	13	[0, 0, 0]	n/a	catFR1	0	R1290M
1816.34	1.627	1817051	WORD	n/a	wordpools/wordpool_categorized_EN.txt	SOFA	Furniture	5	13	[0, 0, 0]	n/a	catFR1	0	R1290M
1817.967	1.049	1818678	WORD_OFF	n/a	n/a	SOFA	Furniture	5	13	[0, 0, 0]	n/a	catFR1	0	R1290M
1819.016	1.635	1819727	WORD	n/a	wordpools/wordpool_categorized_EN.txt	TABLE	Furniture	6	13	[0, 0, 0]	n/a	catFR1	0	R1290M
1820.651	0.867	1821361	WORD_OFF	n/a	n/a	TABLE	Furniture	6	13	[0, 0, 0]	n/a	catFR1	0	R1290M
1821.518	1.633	1822228	WORD	n/a	wordpools/wordpool_categorized_EN.txt	STOVE	Appliances	7	13	[0, 0, 0]	n/a	catFR1	0	R1290M
1823.151	0.925	1823861	WORD_OFF	n/a	n/a	STOVE	Appliances	7	13	[0, 0, 0]	n/a	catFR1	0	R1290M
1824.076	1.626	1824786	WORD	n/a	wordpools/wordpool_categorized_EN.txt	TOASTER	Appliances	8	13	[0, 0, 0]	n/a	catFR1	0	R1290M
1825.702	0.818	1826412	WORD_OFF	n/a	n/a	TOASTER	Appliances	8	13	[0, 0, 0]	n/a	catFR1	0	R1290M
1826.52	1.632	1827230	WORD	n/a	wordpools/wordpool_categorized_EN.txt	BOOKCASE	Furniture	9	13	[0, 0, 0]	n/a	catFR1	0	R1290M
1828.152	0.894	1828862	WORD_OFF	n/a	n/a	BOOKCASE	Furniture	9	13	[0, 0, 0]	n/a	catFR1	0	R1290M
1829.046	1.624	1829756	WORD	n/a	wordpools/wordpool_categorized_EN.txt	DESK	Furniture	10	13	[0, 0, 0]	n/a	catFR1	0	R1290M
1830.67	1.071	1831380	WORD_OFF	n/a	n/a	DESK	Furniture	10	13	[0, 0, 0]	n/a	catFR1	0	R1290M
1831.741	1.628	1832451	WORD	n/a	wordpools/wordpool_categorized_EN.txt	TULIP	Flowers	11	13	[0, 0, 0]	n/a	catFR1	0	R1290M
1833.369	0.864	1834079	WORD_OFF	n/a	n/a	TULIP	Flowers	11	13	[0, 0, 0]	n/a	catFR1	0	R1290M
1834.233	1.621	1834943	WORD	n/a	wordpools/wordpool_categorized_EN.txt	DAISY	Flowers	12	13	[0, 0, 0]	n/a	catFR1	0	R1290M
1835.854	0.001	1836564	WORD_OFF	n/a	n/a	DAISY	Flowers	12	13	[0, 0, 0]	n/a	catFR1	0	R1290M
1835.855	0.0	1836565	ENCODING_END	n/a	n/a	n/a	n/a	-999	13	[0, 0, 0]	n/a	catFR1	0	R1290M
1835.855	0.001	1836565	DISTRACT_START	n/a	n/a	n/a	n/a	-999	13	[0, 0, 0]	n/a	catFR1	0	R1290M
1835.856	0.014	1836566	START	n/a	n/a	n/a	n/a	-999	13	[-999, -999, -999]	n/a	catFR1	0	R1290M
1835.87	11.703	1836580	PROB	11.669	n/a	n/a	n/a	-999	13	[3, 4, 8]	15.0	catFR1	0	R1290M
1847.573	5.651	1848282	PROB	5.623	n/a	n/a	n/a	-999	13	[6, 5, 8]	19.0	catFR1	0	R1290M
1853.224	3.788	1853933	PROB	3.788	n/a	n/a	n/a	-999	13	[6, 2, 6]	14.0	catFR1	0	R1290M
1857.012	0.013	1857721	STOP	n/a	n/a	n/a	n/a	-999	13	[-999, -999, -999]	n/a	catFR1	0	R1290M
1857.025	0.605	1857734	DISTRACT_END	n/a	n/a	n/a	n/a	-999	13	[0, 0, 0]	n/a	catFR1	0	R1290M
1857.63	1.711	1858339	RETRIEVAL_ORIENT_START	n/a	n/a	n/a	n/a	-999	13	[0, 0, 0]	n/a	catFR1	0	R1290M
1859.341	0.001	1860050	RETRIEVAL_ORIENT_END	n/a	n/a	n/a	n/a	-999	13	[0, 0, 0]	n/a	catFR1	0	R1290M
1859.342	1.931	1860051	REC_START	n/a	n/a	n/a	n/a	-999	13	[0, 0, 0]	n/a	catFR1	0	R1290M
1861.273	1.599	1861982	REC_WORD	1.931	n/a	MIXER	Appliances	1	13	[0, 0, 0]	n/a	catFR1	0	R1290M
1862.872	1.22	1863581	REC_WORD	3.53	n/a	TULIP	Flowers	11	13	[0, 0, 0]	n/a	catFR1	0	R1290M
1864.092	25.263	1864801	REC_WORD	4.75	n/a	ROSE	Flowers	3	13	[0, 0, 0]	n/a	catFR1	0	R1290M
1889.355	0.0	1890062	REC_END	n/a	n/a	n/a	n/a	-999	13	[0, 0, 0]	n/a	catFR1	0	R1290M
1889.355	0.025	1890062	TRIAL_END	n/a	n/a	n/a	n/a	-999	13	[0, 0, 0]	n/a	catFR1	0	R1290M
1889.38	0.0	1890087	TRIAL_START	n/a	n/a	n/a	n/a	-999	14	[0, 0, 0]	n/a	catFR1	0	R1290M
1889.38	0.001	1890087	TRIAL	n/a	n/a	n/a	n/a	-999	14	[0, 0, 0]	n/a	catFR1	0	R1290M
1889.381	4.667	1890088	WAITING_START	n/a	n/a	n/a	n/a	-999	14	[0, 0, 0]	n/a	catFR1	0	R1290M
1894.048	0.001	1894755	WAITING_END	n/a	n/a	n/a	n/a	-999	14	[0, 0, 0]	n/a	catFR1	0	R1290M
1894.049	10.43	1894756	COUNTDOWN_START	n/a	n/a	n/a	n/a	-999	14	[0, 0, 0]	n/a	catFR1	0	R1290M
1904.479	0.0	1905186	COUNTDOWN_END	n/a	n/a	n/a	n/a	-999	14	[0, 0, 0]	n/a	catFR1	0	R1290M
1904.479	1.205	1905186	ORIENT_START	n/a	n/a	n/a	n/a	-999	14	[0, 0, 0]	n/a	catFR1	0	R1290M
1905.684	0.001	1906391	ORIENT_END	n/a	n/a	n/a	n/a	-999	14	[0, 0, 0]	n/a	catFR1	0	R1290M
1905.685	1.093	1906392	ENCODING_START	n/a	n/a	n/a	n/a	-999	14	[0, 0, 0]	n/a	catFR1	0	R1290M
1906.778	1.639	1907485	WORD	n/a	wordpools/wordpool_categorized_EN.txt	REFRIGERATOR	Appliances	1	14	[0, 0, 0]	n/a	catFR1	0	R1290M
1908.417	0.835	1909124	WORD_OFF	n/a	n/a	REFRIGERATOR	Appliances	1	14	[0, 0, 0]	n/a	catFR1	0	R1290M
1909.252	1.633	1909958	WORD	n/a	wordpools/wordpool_categorized_EN.txt	VACUUM	Appliances	2	14	[0, 0, 0]	n/a	catFR1	0	R1290M
1910.885	0.996	1911591	WORD_OFF	n/a	n/a	VACUUM	Appliances	2	14	[0, 0, 0]	n/a	catFR1	0	R1290M
1911.881	1.638	1912587	WORD	n/a	wordpools/wordpool_categorized_EN.txt	NOSE	BodyParts	3	14	[0, 0, 0]	n/a	catFR1	0	R1290M
1913.519	1.142	1914225	WORD_OFF	n/a	n/a	NOSE	BodyParts	3	14	[0, 0, 0]	n/a	catFR1	0	R1290M
1914.661	1.624	1915367	WORD	n/a	wordpools/wordpool_categorized_EN.txt	ARM	BodyParts	4	14	[0, 0, 0]	n/a	catFR1	0	R1290M
1916.285	1.133	1916991	WORD_OFF	n/a	n/a	ARM	BodyParts	4	14	[0, 0, 0]	n/a	catFR1	0	R1290M
1917.418	1.635	1918124	WORD	n/a	wordpools/wordpool_categorized_EN.txt	LIME	Fruit	5	14	[0, 0, 0]	n/a	catFR1	0	R1290M
1919.053	0.842	1919759	WORD_OFF	n/a	n/a	LIME	Fruit	5	14	[0, 0, 0]	n/a	catFR1	0	R1290M
1919.895	1.626	1920601	WORD	n/a	wordpools/wordpool_categorized_EN.txt	BLUEBERRY	Fruit	6	14	[0, 0, 0]	n/a	catFR1	0	R1290M
1921.521	0.999	1922227	WORD_OFF	n/a	n/a	BLUEBERRY	Fruit	6	14	[0, 0, 0]	n/a	catFR1	0	R1290M
1922.52	1.634	1923226	WORD	n/a	wordpools/wordpool_categorized_EN.txt	WASHER	Appliances	7	14	[0, 0, 0]	n/a	catFR1	0	R1290M
1924.154	0.905	1924860	WORD_OFF	n/a	n/a	WASHER	Appliances	7	14	[0, 0, 0]	n/a	catFR1	0	R1290M
1925.059	1.629	1925765	WORD	n/a	wordpools/wordpool_categorized_EN.txt	DRYER	Appliances	8	14	[0, 0, 0]	n/a	catFR1	0	R1290M
1926.688	0.884	1927394	WORD_OFF	n/a	n/a	DRYER	Appliances	8	14	[0, 0, 0]	n/a	catFR1	0	R1290M
1927.572	1.633	1928278	WORD	n/a	wordpools/wordpool_categorized_EN.txt	PEACH	Fruit	9	14	[0, 0, 0]	n/a	catFR1	0	R1290M
1929.205	1.129	1929911	WORD_OFF	n/a	n/a	PEACH	Fruit	9	14	[0, 0, 0]	n/a	catFR1	0	R1290M
1930.334	1.638	1931040	WORD	n/a	wordpools/wordpool_categorized_EN.txt	ORANGE	Fruit	10	14	[0, 0, 0]	n/a	catFR1	0	R1290M
1931.972	1.068	1932677	WORD_OFF	n/a	n/a	ORANGE	Fruit	10	14	[0, 0, 0]	n/a	catFR1	0	R1290M
1933.04	1.633	1933745	WORD	n/a	wordpools/wordpool_categorized_EN.txt	KNEE	BodyParts	11	14	[0, 0, 0]	n/a	catFR1	0	R1290M
1934.673	0.773	1935378	WORD_OFF	n/a	n/a	KNEE	BodyParts	11	14	[0, 0, 0]	n/a	catFR1	0	R1290M
1935.446	1.611	1936151	WORD	n/a	wordpools/wordpool_categorized_EN.txt	EYE	BodyParts	12	14	[0, 0, 0]	n/a	catFR1	0	R1290M
1937.057	0.001	1937762	WORD_OFF	n/a	n/a	EYE	BodyParts	12	14	[0, 0, 0]	n/a	catFR1	0	R1290M
1937.058	0.0	1937763	ENCODING_END	n/a	n/a	n/a	n/a	-999	14	[0, 0, 0]	n/a	catFR1	0	R1290M
1937.058	0.001	1937763	DISTRACT_START	n/a	n/a	n/a	n/a	-999	14	[0, 0, 0]	n/a	catFR1	0	R1290M
1937.059	0.014	1937764	START	n/a	n/a	n/a	n/a	-999	14	[-999, -999, -999]	n/a	catFR1	0	R1290M
1937.073	4.968	1937778	PROB	4.936	n/a	n/a	n/a	-999	14	[7, 9, 3]	19.0	catFR1	0	R1290M
1942.041	3.6	1942746	PROB	3.577	n/a	n/a	n/a	-999	14	[4, 2, 2]	8.0	catFR1	0	R1290M
1945.641	2.968	1946346	PROB	2.936	n/a	n/a	n/a	-999	14	[3, 5, 4]	12.0	catFR1	0	R1290M
1948.609	4.117	1949314	PROB	4.088	n/a	n/a	n/a	-999	14	[8, 8, 5]	21.0	catFR1	0	R1290M
1952.726	6.223	1953431	PROB	6.223	n/a	n/a	n/a	-999	14	[9, 5, 1]	15.0	catFR1	0	R1290M
1958.949	0.012	1959653	STOP	n/a	n/a	n/a	n/a	-999	14	[-999, -999, -999]	n/a	catFR1	0	R1290M
1958.961	0.67	1959665	DISTRACT_END	n/a	n/a	n/a	n/a	-999	14	[0, 0, 0]	n/a	catFR1	0	R1290M
1959.631	1.713	1960335	RETRIEVAL_ORIENT_START	n/a	n/a	n/a	n/a	-999	14	[0, 0, 0]	n/a	catFR1	0	R1290M
1961.344	0.0	1962048	RETRIEVAL_ORIENT_END	n/a	n/a	n/a	n/a	-999	14	[0, 0, 0]	n/a	catFR1	0	R1290M
1961.344	2.606	1962048	REC_START	n/a	n/a	n/a	n/a	-999	14	[0, 0, 0]	n/a	catFR1	0	R1290M
1963.95	1.085	1964654	REC_WORD	2.606	n/a	LIME	Fruit	5	14	[0, 0, 0]	n/a	catFR1	0	R1290M
1965.035	3.924	1965739	REC_WORD	3.691	n/a	ORANGE	Fruit	10	14	[0, 0, 0]	n/a	catFR1	0	R1290M
1968.959	0.778	1969663	REC_WORD	7.615	n/a	WASHER	Appliances	7	14	[0, 0, 0]	n/a	catFR1	0	R1290M
1969.737	14.945	1970441	REC_WORD	8.393	n/a	DRYER	Appliances	8	14	[0, 0, 0]	n/a	catFR1	0	R1290M
1984.682	6.674	1985385	REC_WORD	23.338	n/a	MIXER	Appliances	-999	14	[0, 0, 0]	n/a	catFR1	0	R1290M
1991.356	0.001	1992059	REC_END	n/a	n/a	n/a	n/a	-999	14	[0, 0, 0]	n/a	catFR1	0	R1290M
1991.357	0.023	1992060	TRIAL_END	n/a	n/a	n/a	n/a	-999	14	[0, 0, 0]	n/a	catFR1	0	R1290M
1991.38	0.001	1992083	TRIAL_START	n/a	n/a	n/a	n/a	-999	15	[0, 0, 0]	n/a	catFR1	0	R1290M
1991.381	0.0	1992084	TRIAL	n/a	n/a	n/a	n/a	-999	15	[0, 0, 0]	n/a	catFR1	0	R1290M
1991.381	28.074	1992084	WAITING_START	n/a	n/a	n/a	n/a	-999	15	[0, 0, 0]	n/a	catFR1	0	R1290M
2019.455	0.001	2020157	WAITING_END	n/a	n/a	n/a	n/a	-999	15	[0, 0, 0]	n/a	catFR1	0	R1290M
2019.456	10.429	2020158	COUNTDOWN_START	n/a	n/a	n/a	n/a	-999	15	[0, 0, 0]	n/a	catFR1	0	R1290M
2029.885	0.001	2030586	COUNTDOWN_END	n/a	n/a	n/a	n/a	-999	15	[0, 0, 0]	n/a	catFR1	0	R1290M
2029.886	1.156	2030587	ORIENT_START	n/a	n/a	n/a	n/a	-999	15	[0, 0, 0]	n/a	catFR1	0	R1290M
2031.042	0.0	2031743	ORIENT_END	n/a	n/a	n/a	n/a	-999	15	[0, 0, 0]	n/a	catFR1	0	R1290M
2031.042	0.929	2031743	ENCODING_START	n/a	n/a	n/a	n/a	-999	15	[0, 0, 0]	n/a	catFR1	0	R1290M
2031.971	1.638	2032672	WORD	n/a	wordpools/wordpool_categorized_EN.txt	HALLWAY	Building	1	15	[0, 0, 0]	n/a	catFR1	0	R1290M
2033.609	1.087	2034310	WORD_OFF	n/a	n/a	HALLWAY	Building	1	15	[0, 0, 0]	n/a	catFR1	0	R1290M
2034.696	1.629	2035397	WORD	n/a	wordpools/wordpool_categorized_EN.txt	WALL	Building	2	15	[0, 0, 0]	n/a	catFR1	0	R1290M
2036.325	0.827	2037026	WORD_OFF	n/a	n/a	WALL	Building	2	15	[0, 0, 0]	n/a	catFR1	0	R1290M
2037.152	1.624	2037853	WORD	n/a	wordpools/wordpool_categorized_EN.txt	PEAR	Fruit	3	15	[0, 0, 0]	n/a	catFR1	0	R1290M
2038.776	1.043	2039477	WORD_OFF	n/a	n/a	PEAR	Fruit	3	15	[0, 0, 0]	n/a	catFR1	0	R1290M
2039.819	1.624	2040520	WORD	n/a	wordpools/wordpool_categorized_EN.txt	STRAWBERRY	Fruit	4	15	[0, 0, 0]	n/a	catFR1	0	R1290M
2041.443	1.121	2042144	WORD_OFF	n/a	n/a	STRAWBERRY	Fruit	4	15	[0, 0, 0]	n/a	catFR1	0	R1290M
2042.564	1.63	2043264	WORD	n/a	wordpools/wordpool_categorized_EN.txt	AXE	Tools	5	15	[0, 0, 0]	n/a	catFR1	0	R1290M
2044.194	1.063	2044894	WORD_OFF	n/a	n/a	AXE	Tools	5	15	[0, 0, 0]	n/a	catFR1	0	R1290M
2045.257	1.621	2045957	WORD	n/a	wordpools/wordpool_categorized_EN.txt	PLIERS	Tools	6	15	[0, 0, 0]	n/a	catFR1	0	R1290M
2046.878	0.881	2047578	WORD_OFF	n/a	n/a	PLIERS	Tools	6	15	[0, 0, 0]	n/a	catFR1	0	R1290M
2047.759	1.635	2048459	WORD	n/a	wordpools/wordpool_categorized_EN.txt	APPLE	Fruit	7	15	[0, 0, 0]	n/a	catFR1	0	R1290M
2049.394	1.128	2050094	WORD_OFF	n/a	n/a	APPLE	Fruit	7	15	[0, 0, 0]	n/a	catFR1	0	R1290M
2050.522	1.624	2051222	WORD	n/a	wordpools/wordpool_categorized_EN.txt	GRAPE	Fruit	8	15	[0, 0, 0]	n/a	catFR1	0	R1290M
2052.146	0.877	2052846	WORD_OFF	n/a	n/a	GRAPE	Fruit	8	15	[0, 0, 0]	n/a	catFR1	0	R1290M
2053.023	1.64	2053723	WORD	n/a	wordpools/wordpool_categorized_EN.txt	WRENCH	Tools	9	15	[0, 0, 0]	n/a	catFR1	0	R1290M
2054.663	0.912	2055363	WORD_OFF	n/a	n/a	WRENCH	Tools	9	15	[0, 0, 0]	n/a	catFR1	0	R1290M
2055.575	1.638	2056275	WORD	n/a	wordpools/wordpool_categorized_EN.txt	CROWBAR	Tools	10	15	[0, 0, 0]	n/a	catFR1	0	R1290M
2057.213	0.753	2057913	WORD_OFF	n/a	n/a	CROWBAR	Tools	10	15	[0, 0, 0]	n/a	catFR1	0	R1290M
2057.966	1.631	2058666	WORD	n/a	wordpools/wordpool_categorized_EN.txt	WINDOW	Building	11	15	[0, 0, 0]	n/a	catFR1	0	R1290M
2059.597	1.058	2060297	WORD_OFF	n/a	n/a	WINDOW	Building	11	15	[0, 0, 0]	n/a	catFR1	0	R1290M
2060.655	1.625	2061355	WORD	n/a	wordpools/wordpool_categorized_EN.txt	DOOR	Building	12	15	[0, 0, 0]	n/a	catFR1	0	R1290M
2062.28	0.001	2062980	WORD_OFF	n/a	n/a	DOOR	Building	12	15	[0, 0, 0]	n/a	catFR1	0	R1290M
2062.281	0.0	2062981	ENCODING_END	n/a	n/a	n/a	n/a	-999	15	[0, 0, 0]	n/a	catFR1	0	R1290M
2062.281	0.001	2062981	DISTRACT_START	n/a	n/a	n/a	n/a	-999	15	[0, 0, 0]	n/a	catFR1	0	R1290M
2062.282	0.014	2062982	START	n/a	n/a	n/a	n/a	-999	15	[-999, -999, -999]	n/a	catFR1	0	R1290M
2062.296	4.219	2062996	PROB	4.19	n/a	n/a	n/a	-999	15	[9, 9, 3]	21.0	catFR1	0	R1290M
2066.515	2.799	2067214	PROB	2.761	n/a	n/a	n/a	-999	15	[1, 2, 1]	4.0	catFR1	0	R1290M
2069.314	5.236	2070013	PROB	5.203	n/a	n/a	n/a	-999	15	[7, 2, 6]	15.0	catFR1	0	R1290M
2074.55	7.051	2075249	PROB	7.024	n/a	n/a	n/a	-999	15	[9, 9, 6]	24.0	catFR1	0	R1290M
2081.601	2.757	2082300	PROB	2.757	n/a	n/a	n/a	-999	15	[6, 4, 1]	11.0	catFR1	0	R1290M
2084.358	0.01	2085057	STOP	n/a	n/a	n/a	n/a	-999	15	[-999, -999, -999]	n/a	catFR1	0	R1290M
2084.368	0.634	2085067	DISTRACT_END	n/a	n/a	n/a	n/a	-999	15	[0, 0, 0]	n/a	catFR1	0	R1290M
2085.002	1.534	2085701	RETRIEVAL_ORIENT_START	n/a	n/a	n/a	n/a	-999	15	[0, 0, 0]	n/a	catFR1	0	R1290M
2086.536	0.0	2087234	RETRIEVAL_ORIENT_END	n/a	n/a	n/a	n/a	-999	15	[0, 0, 0]	n/a	catFR1	0	R1290M
2086.536	2.016	2087234	REC_START	n/a	n/a	n/a	n/a	-999	15	[0, 0, 0]	n/a	catFR1	0	R1290M
2088.552	0.58	2089250	REC_WORD	2.016	n/a	PEAR	Fruit	3	15	[0, 0, 0]	n/a	catFR1	0	R1290M
2089.132	2.007	2089830	REC_WORD	2.596	n/a	STRAWBERRY	Fruit	4	15	[0, 0, 0]	n/a	catFR1	0	R1290M
2091.139	1.067	2091837	REC_WORD	4.603	n/a	AXE	Tools	5	15	[0, 0, 0]	n/a	catFR1	0	R1290M
2092.206	9.326	2092904	REC_WORD	5.67	n/a	CROWBAR	Tools	10	15	[0, 0, 0]	n/a	catFR1	0	R1290M
2101.532	1.405	2102230	REC_WORD	14.996	n/a	HALLWAY	Building	1	15	[0, 0, 0]	n/a	catFR1	0	R1290M
2102.937	8.178	2103635	REC_WORD	16.401	n/a	WALL	Building	2	15	[0, 0, 0]	n/a	catFR1	0	R1290M
2111.115	5.179	2111812	REC_WORD	24.579	n/a	APPLE	Fruit	7	15	[0, 0, 0]	n/a	catFR1	0	R1290M
2116.294	0.254	2116991	REC_WORD	29.758	n/a	GRAPE	Fruit	8	15	[0, 0, 0]	n/a	catFR1	0	R1290M
2116.548	0.001	2117245	REC_END	n/a	n/a	n/a	n/a	-999	15	[0, 0, 0]	n/a	catFR1	0	R1290M
2116.549	0.02	2117246	TRIAL_END	n/a	n/a	n/a	n/a	-999	15	[0, 0, 0]	n/a	catFR1	0	R1290M
2116.569	0.001	2117266	TRIAL_START	n/a	n/a	n/a	n/a	-999	16	[0, 0, 0]	n/a	catFR1	0	R1290M
2116.57	0.0	2117267	TRIAL	n/a	n/a	n/a	n/a	-999	16	[0, 0, 0]	n/a	catFR1	0	R1290M
2116.57	8.805	2117267	WAITING_START	n/a	n/a	n/a	n/a	-999	16	[0, 0, 0]	n/a	catFR1	0	R1290M
2125.375	0.001	2126072	WAITING_END	n/a	n/a	n/a	n/a	-999	16	[0, 0, 0]	n/a	catFR1	0	R1290M
2125.376	10.43	2126073	COUNTDOWN_START	n/a	n/a	n/a	n/a	-999	16	[0, 0, 0]	n/a	catFR1	0	R1290M
2135.806	0.0	2136502	COUNTDOWN_END	n/a	n/a	n/a	n/a	-999	16	[0, 0, 0]	n/a	catFR1	0	R1290M
2135.806	1.089	2136502	ORIENT_START	n/a	n/a	n/a	n/a	-999	16	[0, 0, 0]	n/a	catFR1	0	R1290M
2136.895	0.001	2137591	ORIENT_END	n/a	n/a	n/a	n/a	-999	16	[0, 0, 0]	n/a	catFR1	0	R1290M
2136.896	0.899	2137592	ENCODING_START	n/a	n/a	n/a	n/a	-999	16	[0, 0, 0]	n/a	catFR1	0	R1290M
2137.795	1.633	2138491	WORD	n/a	wordpools/wordpool_categorized_EN.txt	HAND	BodyParts	1	16	[0, 0, 0]	n/a	catFR1	0	R1290M
2139.428	0.898	2140124	WORD_OFF	n/a	n/a	HAND	BodyParts	1	16	[0, 0, 0]	n/a	catFR1	0	R1290M
2140.326	1.62	2141022	WORD	n/a	wordpools/wordpool_categorized_EN.txt	HEAD	BodyParts	2	16	[0, 0, 0]	n/a	catFR1	0	R1290M
2141.946	0.991	2142642	WORD_OFF	n/a	n/a	HEAD	BodyParts	2	16	[0, 0, 0]	n/a	catFR1	0	R1290M
2142.937	1.626	2143633	WORD	n/a	wordpools/wordpool_categorized_EN.txt	COOKIE	Desserts	3	16	[0, 0, 0]	n/a	catFR1	0	R1290M
2144.563	0.751	2145259	WORD_OFF	n/a	n/a	COOKIE	Desserts	3	16	[0, 0, 0]	n/a	catFR1	0	R1290M
2145.314	1.633	2146010	WORD	n/a	wordpools/wordpool_categorized_EN.txt	COBBLER	Desserts	4	16	[0, 0, 0]	n/a	catFR1	0	R1290M
2146.947	1.009	2147643	WORD_OFF	n/a	n/a	COBBLER	Desserts	4	16	[0, 0, 0]	n/a	catFR1	0	R1290M
2147.956	1.625	2148652	WORD	n/a	wordpools/wordpool_categorized_EN.txt	VAN	Vehicles	5	16	[0, 0, 0]	n/a	catFR1	0	R1290M
2149.581	1.009	2150277	WORD_OFF	n/a	n/a	VAN	Vehicles	5	16	[0, 0, 0]	n/a	catFR1	0	R1290M
2150.59	1.625	2151286	WORD	n/a	wordpools/wordpool_categorized_EN.txt	TRUCK	Vehicles	6	16	[0, 0, 0]	n/a	catFR1	0	R1290M
2152.215	0.928	2152911	WORD_OFF	n/a	n/a	TRUCK	Vehicles	6	16	[0, 0, 0]	n/a	catFR1	0	R1290M
2153.143	1.622	2153839	WORD	n/a	wordpools/wordpool_categorized_EN.txt	FINGERS	BodyParts	7	16	[0, 0, 0]	n/a	catFR1	0	R1290M
2154.765	1.111	2155460	WORD_OFF	n/a	n/a	FINGERS	BodyParts	7	16	[0, 0, 0]	n/a	catFR1	0	R1290M
2155.876	1.623	2156571	WORD	n/a	wordpools/wordpool_categorized_EN.txt	ELBOW	BodyParts	8	16	[0, 0, 0]	n/a	catFR1	0	R1290M
2157.499	1.078	2158194	WORD_OFF	n/a	n/a	ELBOW	BodyParts	8	16	[0, 0, 0]	n/a	catFR1	0	R1290M
2158.577	1.639	2159272	WORD	n/a	wordpools/wordpool_categorized_EN.txt	CHEESECAKE	Desserts	9	16	[0, 0, 0]	n/a	catFR1	0	R1290M
2160.216	0.946	2160911	WORD_OFF	n/a	n/a	CHEESECAKE	Desserts	9	16	[0, 0, 0]	n/a	catFR1	0	R1290M
2161.162	1.638	2161857	WORD	n/a	wordpools/wordpool_categorized_EN.txt	PASTRY	Desserts	10	16	[0, 0, 0]	n/a	catFR1	0	R1290M
2162.8	0.848	2163495	WORD_OFF	n/a	n/a	PASTRY	Desserts	10	16	[0, 0, 0]	n/a	catFR1	0	R1290M
2163.648	1.635	2164343	WORD	n/a	wordpools/wordpool_categorized_EN.txt	JEEP	Vehicles	11	16	[0, 0, 0]	n/a	catFR1	0	R1290M
2165.283	0.979	2165978	WORD_OFF	n/a	n/a	JEEP	Vehicles	11	16	[0, 0, 0]	n/a	catFR1	0	R1290M
2166.262	1.622	2166957	WORD	n/a	wordpools/wordpool_categorized_EN.txt	SCOOTER	Vehicles	12	16	[0, 0, 0]	n/a	catFR1	0	R1290M
2167.884	0.001	2168579	WORD_OFF	n/a	n/a	SCOOTER	Vehicles	12	16	[0, 0, 0]	n/a	catFR1	0	R1290M
2167.885	0.001	2168580	ENCODING_END	n/a	n/a	n/a	n/a	-999	16	[0, 0, 0]	n/a	catFR1	0	R1290M
2167.886	0.0	2168581	DISTRACT_START	n/a	n/a	n/a	n/a	-999	16	[0, 0, 0]	n/a	catFR1	0	R1290M
2167.886	0.015	2168581	START	n/a	n/a	n/a	n/a	-999	16	[-999, -999, -999]	n/a	catFR1	0	R1290M
2167.901	5.517	2168596	PROB	5.485	n/a	n/a	n/a	-999	16	[3, 9, 8]	20.0	catFR1	0	R1290M
2173.418	13.787	2174113	PROB	13.749	n/a	n/a	n/a	-999	16	[3, 4, 5]	12.0	catFR1	0	R1290M
2187.205	14.35	2187899	PROB	14.35	n/a	n/a	n/a	-999	16	[8, 3, 2]	13.0	catFR1	0	R1290M
2201.555	0.02	2202248	STOP	n/a	n/a	n/a	n/a	-999	16	[-999, -999, -999]	n/a	catFR1	0	R1290M
2201.575	0.551	2202268	DISTRACT_END	n/a	n/a	n/a	n/a	-999	16	[0, 0, 0]	n/a	catFR1	0	R1290M
2202.126	1.566	2202819	RETRIEVAL_ORIENT_START	n/a	n/a	n/a	n/a	-999	16	[0, 0, 0]	n/a	catFR1	0	R1290M
2203.692	0.0	2204385	RETRIEVAL_ORIENT_END	n/a	n/a	n/a	n/a	-999	16	[0, 0, 0]	n/a	catFR1	0	R1290M
2203.692	3.647	2204385	REC_START	n/a	n/a	n/a	n/a	-999	16	[0, 0, 0]	n/a	catFR1	0	R1290M
2207.339	2.594	2208032	REC_WORD	3.647	n/a	VAN	Vehicles	5	16	[0, 0, 0]	n/a	catFR1	0	R1290M
2209.933	0.878	2210626	REC_WORD	6.241	n/a	COBBLER	Desserts	4	16	[0, 0, 0]	n/a	catFR1	0	R1290M
2210.811	1.643	2211504	REC_WORD	7.119	n/a	CHEESECAKE	Desserts	9	16	[0, 0, 0]	n/a	catFR1	0	R1290M
2212.454	3.816	2213147	REC_WORD	8.762	n/a	PASTRY	Desserts	10	16	[0, 0, 0]	n/a	catFR1	0	R1290M
2216.27	1.401	2216963	REC_WORD	12.578	n/a	COOKIE	Desserts	3	16	[0, 0, 0]	n/a	catFR1	0	R1290M
2217.671	1.667	2218364	REC_WORD	13.979	n/a	HAND	BodyParts	1	16	[0, 0, 0]	n/a	catFR1	0	R1290M
2219.338	14.366	2220031	REC_WORD	15.646	n/a	HEAD	BodyParts	2	16	[0, 0, 0]	n/a	catFR1	0	R1290M
2233.704	0.001	2234396	REC_END	n/a	n/a	n/a	n/a	-999	16	[0, 0, 0]	n/a	catFR1	0	R1290M
2233.705	0.021	2234397	TRIAL_END	n/a	n/a	n/a	n/a	-999	16	[0, 0, 0]	n/a	catFR1	0	R1290M
2233.726	0.001	2234418	TRIAL_START	n/a	n/a	n/a	n/a	-999	17	[0, 0, 0]	n/a	catFR1	0	R1290M
2233.727	0.0	2234419	TRIAL	n/a	n/a	n/a	n/a	-999	17	[0, 0, 0]	n/a	catFR1	0	R1290M
2233.727	7.554	2234419	WAITING_START	n/a	n/a	n/a	n/a	-999	17	[0, 0, 0]	n/a	catFR1	0	R1290M
2241.281	0.001	2241973	WAITING_END	n/a	n/a	n/a	n/a	-999	17	[0, 0, 0]	n/a	catFR1	0	R1290M
2241.282	10.429	2241974	COUNTDOWN_START	n/a	n/a	n/a	n/a	-999	17	[0, 0, 0]	n/a	catFR1	0	R1290M
2251.711	0.001	2252402	COUNTDOWN_END	n/a	n/a	n/a	n/a	-999	17	[0, 0, 0]	n/a	catFR1	0	R1290M
2251.712	1.239	2252403	ORIENT_START	n/a	n/a	n/a	n/a	-999	17	[0, 0, 0]	n/a	catFR1	0	R1290M
2252.951	0.001	2253642	ORIENT_END	n/a	n/a	n/a	n/a	-999	17	[0, 0, 0]	n/a	catFR1	0	R1290M
2252.952	0.784	2253643	ENCODING_START	n/a	n/a	n/a	n/a	-999	17	[0, 0, 0]	n/a	catFR1	0	R1290M
2253.736	1.631	2254427	WORD	n/a	wordpools/wordpool_categorized_EN.txt	SHORTS	Clothing	1	17	[0, 0, 0]	n/a	catFR1	0	R1290M
2255.367	0.986	2256058	WORD_OFF	n/a	n/a	SHORTS	Clothing	1	17	[0, 0, 0]	n/a	catFR1	0	R1290M
2256.353	1.616	2257044	WORD	n/a	wordpools/wordpool_categorized_EN.txt	JACKET	Clothing	2	17	[0, 0, 0]	n/a	catFR1	0	R1290M
2257.969	1.086	2258660	WORD_OFF	n/a	n/a	JACKET	Clothing	2	17	[0, 0, 0]	n/a	catFR1	0	R1290M
2259.055	1.631	2259746	WORD	n/a	wordpools/wordpool_categorized_EN.txt	ORGAN	Instruments	3	17	[0, 0, 0]	n/a	catFR1	0	R1290M
2260.686	1.086	2261377	WORD_OFF	n/a	n/a	ORGAN	Instruments	3	17	[0, 0, 0]	n/a	catFR1	0	R1290M
2261.772	1.63	2262463	WORD	n/a	wordpools/wordpool_categorized_EN.txt	DRUM	Instruments	4	17	[0, 0, 0]	n/a	catFR1	0	R1290M
2263.402	1.021	2264093	WORD_OFF	n/a	n/a	DRUM	Instruments	4	17	[0, 0, 0]	n/a	catFR1	0	R1290M
2264.423	1.63	2265113	WORD	n/a	wordpools/wordpool_categorized_EN.txt	MONKEY	Zoo	5	17	[0, 0, 0]	n/a	catFR1	0	R1290M
2266.053	0.846	2266743	WORD_OFF	n/a	n/a	MONKEY	Zoo	5	17	[0, 0, 0]	n/a	catFR1	0	R1290M
2266.899	1.622	2267589	WORD	n/a	wordpools/wordpool_categorized_EN.txt	ZEBRA	Zoo	6	17	[0, 0, 0]	n/a	catFR1	0	R1290M
2268.521	0.815	2269211	WORD_OFF	n/a	n/a	ZEBRA	Zoo	6	17	[0, 0, 0]	n/a	catFR1	0	R1290M
2269.336	1.635	2270026	WORD	n/a	wordpools/wordpool_categorized_EN.txt	UNDERWEAR	Clothing	7	17	[0, 0, 0]	n/a	catFR1	0	R1290M
2270.971	0.93	2271661	WORD_OFF	n/a	n/a	UNDERWEAR	Clothing	7	17	[0, 0, 0]	n/a	catFR1	0	R1290M
2271.901	1.637	2272591	WORD	n/a	wordpools/wordpool_categorized_EN.txt	JEANS	Clothing	8	17	[0, 0, 0]	n/a	catFR1	0	R1290M
2273.538	1.124	2274228	WORD_OFF	n/a	n/a	JEANS	Clothing	8	17	[0, 0, 0]	n/a	catFR1	0	R1290M
2274.662	1.626	2275352	WORD	n/a	wordpools/wordpool_categorized_EN.txt	CHIMPANZEE	Zoo	9	17	[0, 0, 0]	n/a	catFR1	0	R1290M
2276.288	0.841	2276978	WORD_OFF	n/a	n/a	CHIMPANZEE	Zoo	9	17	[0, 0, 0]	n/a	catFR1	0	R1290M
2277.129	1.627	2277819	WORD	n/a	wordpools/wordpool_categorized_EN.txt	TIGER	Zoo	10	17	[0, 0, 0]	n/a	catFR1	0	R1290M
2278.756	0.79	2279446	WORD_OFF	n/a	n/a	TIGER	Zoo	10	17	[0, 0, 0]	n/a	catFR1	0	R1290M
2279.546	1.627	2280236	WORD	n/a	wordpools/wordpool_categorized_EN.txt	BANJO	Instruments	11	17	[0, 0, 0]	n/a	catFR1	0	R1290M
2281.173	0.92	2281863	WORD_OFF	n/a	n/a	BANJO	Instruments	11	17	[0, 0, 0]	n/a	catFR1	0	R1290M
2282.093	1.631	2282783	WORD	n/a	wordpools/wordpool_categorized_EN.txt	TRUMPET	Instruments	12	17	[0, 0, 0]	n/a	catFR1	0	R1290M
2283.724	0.0	2284414	WORD_OFF	n/a	n/a	TRUMPET	Instruments	12	17	[0, 0, 0]	n/a	catFR1	0	R1290M
2283.724	0.001	2284414	ENCODING_END	n/a	n/a	n/a	n/a	-999	17	[0, 0, 0]	n/a	catFR1	0	R1290M
2283.725	0.0	2284415	DISTRACT_START	n/a	n/a	n/a	n/a	-999	17	[0, 0, 0]	n/a	catFR1	0	R1290M
2283.725	0.015	2284415	START	n/a	n/a	n/a	n/a	-999	17	[-999, -999, -999]	n/a	catFR1	0	R1290M
2283.74	4.968	2284430	PROB	4.945	n/a	n/a	n/a	-999	17	[1, 3, 8]	12.0	catFR1	0	R1290M
2288.708	3.384	2289397	PROB	3.352	n/a	n/a	n/a	-999	17	[7, 4, 1]	12.0	catFR1	0	R1290M
2292.092	3.384	2292781	PROB	3.352	n/a	n/a	n/a	-999	17	[2, 1, 5]	8.0	catFR1	0	R1290M
2295.476	4.234	2296165	PROB	4.201	n/a	n/a	n/a	-999	17	[8, 3, 8]	19.0	catFR1	0	R1290M
2299.71	6.39	2300399	PROB	6.39	n/a	n/a	n/a	-999	17	[8, 6, 9]	23.0	catFR1	0	R1290M
2306.1	0.011	2306789	STOP	n/a	n/a	n/a	n/a	-999	17	[-999, -999, -999]	n/a	catFR1	0	R1290M
2306.111	0.547	2306800	DISTRACT_END	n/a	n/a	n/a	n/a	-999	17	[0, 0, 0]	n/a	catFR1	0	R1290M
2306.658	1.603	2307347	RETRIEVAL_ORIENT_START	n/a	n/a	n/a	n/a	-999	17	[0, 0, 0]	n/a	catFR1	0	R1290M
2308.261	0.0	2308950	RETRIEVAL_ORIENT_END	n/a	n/a	n/a	n/a	-999	17	[0, 0, 0]	n/a	catFR1	0	R1290M
2308.261	1.404	2308950	REC_START	n/a	n/a	n/a	n/a	-999	17	[0, 0, 0]	n/a	catFR1	0	R1290M
2309.665	1.441	2310353	REC_WORD	1.404	n/a	ORGAN	Instruments	3	17	[0, 0, 0]	n/a	catFR1	0	R1290M
2311.106	2.528	2311794	REC_WORD	2.845	n/a	DRUM	Instruments	4	17	[0, 0, 0]	n/a	catFR1	0	R1290M
2313.634	4.586	2314322	REC_WORD	5.373	n/a	CHIMPANZEE	Zoo	9	17	[0, 0, 0]	n/a	catFR1	0	R1290M
2318.22	1.673	2318908	REC_WORD	9.959	n/a	TRUMPET	Instruments	12	17	[0, 0, 0]	n/a	catFR1	0	R1290M
2319.893	4.346	2320581	REC_WORD	11.632	n/a	ZEBRA	Zoo	6	17	[0, 0, 0]	n/a	catFR1	0	R1290M
2324.239	3.353	2324927	REC_WORD	15.978	n/a	TIGER	Zoo	10	17	[0, 0, 0]	n/a	catFR1	0	R1290M
2327.592	2.851	2328280	REC_WORD	19.331	n/a	SHORTS	Clothing	1	17	[0, 0, 0]	n/a	catFR1	0	R1290M
2330.443	7.831	2331131	REC_WORD	22.182	n/a	UNDERWEAR	Clothing	7	17	[0, 0, 0]	n/a	catFR1	0	R1290M
2338.274	0.0	2338961	REC_END	n/a	n/a	n/a	n/a	-999	17	[0, 0, 0]	n/a	catFR1	0	R1290M
2338.274	0.022	2338961	TRIAL_END	n/a	n/a	n/a	n/a	-999	17	[0, 0, 0]	n/a	catFR1	0	R1290M
2338.296	0.001	2338983	TRIAL_START	n/a	n/a	n/a	n/a	-999	18	[0, 0, 0]	n/a	catFR1	0	R1290M
2338.297	0.0	2338984	TRIAL	n/a	n/a	n/a	n/a	-999	18	[0, 0, 0]	n/a	catFR1	0	R1290M
2338.297	18.056	2338984	WAITING_START	n/a	n/a	n/a	n/a	-999	18	[0, 0, 0]	n/a	catFR1	0	R1290M
2356.353	0.001	2357039	WAITING_END	n/a	n/a	n/a	n/a	-999	18	[0, 0, 0]	n/a	catFR1	0	R1290M
2356.354	10.43	2357040	COUNTDOWN_START	n/a	n/a	n/a	n/a	-999	18	[0, 0, 0]	n/a	catFR1	0	R1290M
2366.784	0.001	2367470	COUNTDOWN_END	n/a	n/a	n/a	n/a	-999	18	[0, 0, 0]	n/a	catFR1	0	R1290M
2366.785	1.188	2367471	ORIENT_START	n/a	n/a	n/a	n/a	-999	18	[0, 0, 0]	n/a	catFR1	0	R1290M
2367.973	0.001	2368659	ORIENT_END	n/a	n/a	n/a	n/a	-999	18	[0, 0, 0]	n/a	catFR1	0	R1290M
2367.974	0.944	2368660	ENCODING_START	n/a	n/a	n/a	n/a	-999	18	[0, 0, 0]	n/a	catFR1	0	R1290M
2368.918	1.639	2369604	WORD	n/a	wordpools/wordpool_categorized_EN.txt	LEMONADE	Beverages	1	18	[0, 0, 0]	n/a	catFR1	0	R1290M
2370.557	0.996	2371243	WORD_OFF	n/a	n/a	LEMONADE	Beverages	1	18	[0, 0, 0]	n/a	catFR1	0	R1290M
2371.553	1.638	2372239	WORD	n/a	wordpools/wordpool_categorized_EN.txt	COFFEE	Beverages	2	18	[0, 0, 0]	n/a	catFR1	0	R1290M
2373.191	0.882	2373877	WORD_OFF	n/a	n/a	COFFEE	Beverages	2	18	[0, 0, 0]	n/a	catFR1	0	R1290M
2374.073	1.635	2374759	WORD	n/a	wordpools/wordpool_categorized_EN.txt	MOUNTAIN	Landscapes	3	18	[0, 0, 0]	n/a	catFR1	0	R1290M
2375.708	1.038	2376393	WORD_OFF	n/a	n/a	MOUNTAIN	Landscapes	3	18	[0, 0, 0]	n/a	catFR1	0	R1290M
2376.746	1.628	2377431	WORD	n/a	wordpools/wordpool_categorized_EN.txt	HILLS	Landscapes	4	18	[0, 0, 0]	n/a	catFR1	0	R1290M
2378.374	0.807	2379059	WORD_OFF	n/a	n/a	HILLS	Landscapes	4	18	[0, 0, 0]	n/a	catFR1	0	R1290M
2379.181	1.628	2379866	WORD	n/a	wordpools/wordpool_categorized_EN.txt	CABBAGE	Vegetables	5	18	[0, 0, 0]	n/a	catFR1	0	R1290M
2380.809	1.008	2381494	WORD_OFF	n/a	n/a	CABBAGE	Vegetables	5	18	[0, 0, 0]	n/a	catFR1	0	R1290M
2381.817	1.625	2382502	WORD	n/a	wordpools/wordpool_categorized_EN.txt	ONION	Vegetables	6	18	[0, 0, 0]	n/a	catFR1	0	R1290M
2383.442	1.123	2384127	WORD_OFF	n/a	n/a	ONION	Vegetables	6	18	[0, 0, 0]	n/a	catFR1	0	R1290M
2384.565	1.629	2385250	WORD	n/a	wordpools/wordpool_categorized_EN.txt	WINE	Beverages	7	18	[0, 0, 0]	n/a	catFR1	0	R1290M
2386.194	1.075	2386879	WORD_OFF	n/a	n/a	WINE	Beverages	7	18	[0, 0, 0]	n/a	catFR1	0	R1290M
2387.269	1.625	2387954	WORD	n/a	wordpools/wordpool_categorized_EN.txt	RUM	Beverages	8	18	[0, 0, 0]	n/a	catFR1	0	R1290M
2388.894	1.069	2389579	WORD_OFF	n/a	n/a	RUM	Beverages	8	18	[0, 0, 0]	n/a	catFR1	0	R1290M
2389.963	1.632	2390648	WORD	n/a	wordpools/wordpool_categorized_EN.txt	WOODS	Landscapes	9	18	[0, 0, 0]	n/a	catFR1	0	R1290M
2391.595	1.094	2392280	WORD_OFF	n/a	n/a	WOODS	Landscapes	9	18	[0, 0, 0]	n/a	catFR1	0	R1290M
2392.689	1.622	2393374	WORD	n/a	wordpools/wordpool_categorized_EN.txt	OCEAN	Landscapes	10	18	[0, 0, 0]	n/a	catFR1	0	R1290M
2394.311	1.02	2394996	WORD_OFF	n/a	n/a	OCEAN	Landscapes	10	18	[0, 0, 0]	n/a	catFR1	0	R1290M
2395.331	1.614	2396016	WORD	n/a	wordpools/wordpool_categorized_EN.txt	POTATO	Vegetables	11	18	[0, 0, 0]	n/a	catFR1	0	R1290M
2396.945	0.851	2397630	WORD_OFF	n/a	n/a	POTATO	Vegetables	11	18	[0, 0, 0]	n/a	catFR1	0	R1290M
2397.796	1.632	2398480	WORD	n/a	wordpools/wordpool_categorized_EN.txt	SPINACH	Vegetables	12	18	[0, 0, 0]	n/a	catFR1	0	R1290M
2399.428	0.001	2400112	WORD_OFF	n/a	n/a	SPINACH	Vegetables	12	18	[0, 0, 0]	n/a	catFR1	0	R1290M
2399.429	0.001	2400113	ENCODING_END	n/a	n/a	n/a	n/a	-999	18	[0, 0, 0]	n/a	catFR1	0	R1290M
2399.43	0.0	2400114	DISTRACT_START	n/a	n/a	n/a	n/a	-999	18	[0, 0, 0]	n/a	catFR1	0	R1290M
2399.43	0.015	2400114	START	n/a	n/a	n/a	n/a	-999	18	[-999, -999, -999]	n/a	catFR1	0	R1290M
2399.445	4.901	2400129	PROB	4.87	n/a	n/a	n/a	-999	18	[8, 8, 6]	22.0	catFR1	0	R1290M
2404.346	4.318	2405030	PROB	4.29	n/a	n/a	n/a	-999	18	[3, 6, 4]	13.0	catFR1	0	R1290M
2408.664	9.352	2409348	PROB	9.323	n/a	n/a	n/a	-999	18	[2, 6, 6]	14.0	catFR1	0	R1290M
2418.016	4.201	2418700	PROB	4.201	n/a	n/a	n/a	-999	18	[2, 2, 7]	11.0	catFR1	0	R1290M
2422.217	0.016	2422900	STOP	n/a	n/a	n/a	n/a	-999	18	[-999, -999, -999]	n/a	catFR1	0	R1290M
2422.233	0.526	2422916	DISTRACT_END	n/a	n/a	n/a	n/a	-999	18	[0, 0, 0]	n/a	catFR1	0	R1290M
2422.759	1.591	2423442	RETRIEVAL_ORIENT_START	n/a	n/a	n/a	n/a	-999	18	[0, 0, 0]	n/a	catFR1	0	R1290M
2424.35	0.0	2425033	RETRIEVAL_ORIENT_END	n/a	n/a	n/a	n/a	-999	18	[0, 0, 0]	n/a	catFR1	0	R1290M
2424.35	3.205	2425033	REC_START	n/a	n/a	n/a	n/a	-999	18	[0, 0, 0]	n/a	catFR1	0	R1290M
2427.555	1.104	2428238	REC_WORD	3.205	n/a	SODA	Beverages	-999	18	[0, 0, 0]	n/a	catFR1	0	R1290M
2428.659	1.312	2429342	REC_WORD	4.309	n/a	COFFEE	Beverages	2	18	[0, 0, 0]	n/a	catFR1	0	R1290M
2429.971	1.447	2430654	REC_WORD	5.621	n/a	MOUNTAIN	Landscapes	3	18	[0, 0, 0]	n/a	catFR1	0	R1290M
2431.418	1.821	2432101	REC_WORD	7.068	n/a	HILLS	Landscapes	4	18	[0, 0, 0]	n/a	catFR1	0	R1290M
2433.239	1.5	2433922	REC_WORD	8.889	n/a	OCEAN	Landscapes	10	18	[0, 0, 0]	n/a	catFR1	0	R1290M
2434.739	1.123	2435422	REC_WORD	10.389	n/a	WOODS	Landscapes	9	18	[0, 0, 0]	n/a	catFR1	0	R1290M
2435.862	1.591	2436545	REC_WORD	11.512	n/a	WINE	Beverages	7	18	[0, 0, 0]	n/a	catFR1	0	R1290M
2437.453	2.417	2438136	REC_WORD	13.103	n/a	RUM	Beverages	8	18	[0, 0, 0]	n/a	catFR1	0	R1290M
2439.87	2.33	2440553	REC_WORD	15.52	n/a	CABBAGE	Vegetables	5	18	[0, 0, 0]	n/a	catFR1	0	R1290M
2442.2	12.162	2442882	REC_WORD	17.85	n/a	ONION	Vegetables	6	18	[0, 0, 0]	n/a	catFR1	0	R1290M
2454.362	0.001	2455044	REC_END	n/a	n/a	n/a	n/a	-999	18	[0, 0, 0]	n/a	catFR1	0	R1290M
2454.363	0.021	2455045	TRIAL_END	n/a	n/a	n/a	n/a	-999	18	[0, 0, 0]	n/a	catFR1	0	R1290M
2454.384	0.001	2455066	TRIAL_START	n/a	n/a	n/a	n/a	-999	19	[0, 0, 0]	n/a	catFR1	0	R1290M
2454.385	0.0	2455067	TRIAL	n/a	n/a	n/a	n/a	-999	19	[0, 0, 0]	n/a	catFR1	0	R1290M
2454.385	6.773	2455067	WAITING_START	n/a	n/a	n/a	n/a	-999	19	[0, 0, 0]	n/a	catFR1	0	R1290M
2461.158	0.001	2461840	WAITING_END	n/a	n/a	n/a	n/a	-999	19	[0, 0, 0]	n/a	catFR1	0	R1290M
2461.159	10.429	2461841	COUNTDOWN_START	n/a	n/a	n/a	n/a	-999	19	[0, 0, 0]	n/a	catFR1	0	R1290M
2471.588	0.0	2472269	COUNTDOWN_END	n/a	n/a	n/a	n/a	-999	19	[0, 0, 0]	n/a	catFR1	0	R1290M
2471.588	1.239	2472269	ORIENT_START	n/a	n/a	n/a	n/a	-999	19	[0, 0, 0]	n/a	catFR1	0	R1290M
2472.827	0.001	2473508	ORIENT_END	n/a	n/a	n/a	n/a	-999	19	[0, 0, 0]	n/a	catFR1	0	R1290M
2472.828	0.827	2473509	ENCODING_START	n/a	n/a	n/a	n/a	-999	19	[0, 0, 0]	n/a	catFR1	0	R1290M
2473.655	1.621	2474336	WORD	n/a	wordpools/wordpool_categorized_EN.txt	CABINET	Furniture	1	19	[0, 0, 0]	n/a	catFR1	0	R1290M
2475.276	1.073	2475957	WORD_OFF	n/a	n/a	CABINET	Furniture	1	19	[0, 0, 0]	n/a	catFR1	0	R1290M
2476.349	1.629	2477030	WORD	n/a	wordpools/wordpool_categorized_EN.txt	BED	Furniture	2	19	[0, 0, 0]	n/a	catFR1	0	R1290M
2477.978	1.114	2478659	WORD_OFF	n/a	n/a	BED	Furniture	2	19	[0, 0, 0]	n/a	catFR1	0	R1290M
2479.092	1.636	2479773	WORD	n/a	wordpools/wordpool_categorized_EN.txt	TAPE	OfficeSupplies	3	19	[0, 0, 0]	n/a	catFR1	0	R1290M
