onset	duration	sample	trial_type	response_time	stim_file	item_name	category	serialpos	list	test	answer	experiment	session	subject
0.0	32.622	28078	SESS_START	n/a	n/a	n/a	n/a	-999	-999	[0, 0, 0]	n/a	catFR1	1	R1016M
32.622	10.0	44388	COUNTDOWN_START	n/a	n/a	n/a	n/a	-999	-999	[0, 0, 0]	n/a	catFR1	1	R1016M
43.05	3.926	49602	COUNTDOWN_END	n/a	n/a	n/a	n/a	-999	-999	[0, 0, 0]	n/a	catFR1	1	R1016M
46.976	1.6	51565	PRACTICE_WORD	n/a	n/a	CHEST	n/a	-999	-999	[0, 0, 0]	n/a	catFR1	1	R1016M
49.575	1.6	52864	PRACTICE_WORD	n/a	n/a	ATTIC	n/a	-999	-999	[0, 0, 0]	n/a	catFR1	1	R1016M
52.044	1.6	54098	PRACTICE_WORD	n/a	n/a	COTTON	n/a	-999	-999	[0, 0, 0]	n/a	catFR1	1	R1016M
54.526	1.6	55339	PRACTICE_WORD	n/a	n/a	RING	n/a	-999	-999	[0, 0, 0]	n/a	catFR1	1	R1016M
56.961	1.6	56557	PRACTICE_WORD	n/a	n/a	TONGUE	n/a	-999	-999	[0, 0, 0]	n/a	catFR1	1	R1016M
59.427	1.6	57790	PRACTICE_WORD	n/a	n/a	FLOOD	n/a	-999	-999	[0, 0, 0]	n/a	catFR1	1	R1016M
61.946	1.6	59049	PRACTICE_WORD	n/a	n/a	WATCH	n/a	-999	-999	[0, 0, 0]	n/a	catFR1	1	R1016M
64.412	1.6	60282	PRACTICE_WORD	n/a	n/a	RHINO	n/a	-999	-999	[0, 0, 0]	n/a	catFR1	1	R1016M
66.795	1.6	61474	PRACTICE_WORD	n/a	n/a	CAMEL	n/a	-999	-999	[0, 0, 0]	n/a	catFR1	1	R1016M
69.313	1.6	62732	PRACTICE_WORD	n/a	n/a	BEAM	n/a	-999	-999	[0, 0, 0]	n/a	catFR1	1	R1016M
71.696	1.6	63924	PRACTICE_WORD	n/a	n/a	IRON	n/a	-999	-999	[0, 0, 0]	n/a	catFR1	1	R1016M
74.148	1.6	65150	PRACTICE_WORD	n/a	n/a	WAGON	n/a	-999	-999	[0, 0, 0]	n/a	catFR1	1	R1016M
75.764	0.0	65958	PRACTICE_DISTRACT_START	n/a	n/a	n/a	n/a	-999	-999	[0, 0, 0]	n/a	catFR1	1	R1016M
75.764	0.016	65958	START	n/a	n/a	n/a	n/a	-999	-1	[-999, -999, -999]	n/a	catFR1	1	R1016M
75.78	8.569	65966	PROB	8.54	n/a	n/a	n/a	-999	-1	[3, 7, 7]	17.0	catFR1	1	R1016M
84.349	6.702	70250	PROB	6.667	n/a	n/a	n/a	-999	-1	[6, 2, 1]	9.0	catFR1	1	R1016M
91.051	17.789	73601	PROB	17.789	n/a	n/a	n/a	-999	-1	[6, 5, 7]	19.0	catFR1	1	R1016M
108.84	0.014	82495	STOP	n/a	n/a	n/a	n/a	-999	-1	[-999, -999, -999]	n/a	catFR1	1	R1016M
108.854	0.552	82502	PRACTICE_DISTRACT_END	n/a	n/a	n/a	n/a	-999	-999	[0, 0, 0]	n/a	catFR1	1	R1016M
109.406	30.514	82778	PRACTICE_REC_START	n/a	n/a	n/a	n/a	-999	-999	[0, 0, 0]	n/a	catFR1	1	R1016M
139.92	48.649	98034	PRACTICE_REC_END	n/a	n/a	n/a	n/a	-999	-999	[0, 0, 0]	n/a	catFR1	1	R1016M
188.569	10.0	122357	COUNTDOWN_START	n/a	n/a	n/a	n/a	-999	1	[0, 0, 0]	n/a	catFR1	1	R1016M
188.569	10.428	122357	TRIAL	n/a	n/a	n/a	n/a	-999	1	[0, 0, 0]	n/a	catFR1	1	R1016M
198.997	0.008	127571	COUNTDOWN_END	n/a	n/a	n/a	n/a	-999	1	[0, 0, 0]	n/a	catFR1	1	R1016M
199.005	1.6	127575	ORIENT	n/a	n/a	n/a	n/a	-999	1	[0, 0, 0]	n/a	catFR1	1	R1016M
202.889	1.6	129517	WORD	n/a	wordpools/wordpool_categorized_EN.txt	SUNFLOWER	Flowers	1	1	[0, 0, 0]	n/a	catFR1	1	R1016M
205.456	1.6	130800	WORD	n/a	wordpools/wordpool_categorized_EN.txt	PETUNIA	Flowers	2	1	[0, 0, 0]	n/a	catFR1	1	R1016M
207.974	1.6	132059	WORD	n/a	wordpools/wordpool_categorized_EN.txt	PEELER	KitchenTools	3	1	[0, 0, 0]	n/a	catFR1	1	R1016M
210.49	1.6	133317	WORD	n/a	wordpools/wordpool_categorized_EN.txt	KNIFE	KitchenTools	4	1	[0, 0, 0]	n/a	catFR1	1	R1016M
212.89	1.6	134517	WORD	n/a	wordpools/wordpool_categorized_EN.txt	SHELF	Furniture	5	1	[0, 0, 0]	n/a	catFR1	1	R1016M
215.424	1.6	135784	WORD	n/a	wordpools/wordpool_categorized_EN.txt	CABINET	Furniture	6	1	[0, 0, 0]	n/a	catFR1	1	R1016M
217.791	1.6	136967	WORD	n/a	wordpools/wordpool_categorized_EN.txt	TONGS	KitchenTools	7	1	[0, 0, 0]	n/a	catFR1	1	R1016M
220.375	1.6	138259	WORD	n/a	wordpools/wordpool_categorized_EN.txt	SPOON	KitchenTools	8	1	[0, 0, 0]	n/a	catFR1	1	R1016M
222.759	1.6	139451	WORD	n/a	wordpools/wordpool_categorized_EN.txt	MARIGOLD	Flowers	9	1	[0, 0, 0]	n/a	catFR1	1	R1016M
225.376	1.6	140760	WORD	n/a	wordpools/wordpool_categorized_EN.txt	DAISY	Flowers	10	1	[0, 0, 0]	n/a	catFR1	1	R1016M
227.961	1.6	142052	WORD	n/a	wordpools/wordpool_categorized_EN.txt	NIGHTSTAND	Furniture	11	1	[0, 0, 0]	n/a	catFR1	1	R1016M
230.494	1.6	143318	WORD	n/a	wordpools/wordpool_categorized_EN.txt	BED	Furniture	12	1	[0, 0, 0]	n/a	catFR1	1	R1016M
232.112	0.001	144127	DISTRACT_START	n/a	n/a	n/a	n/a	-999	1	[0, 0, 0]	n/a	catFR1	1	R1016M
232.113	0.015	144128	START	n/a	n/a	n/a	n/a	-999	1	[-999, -999, -999]	n/a	catFR1	1	R1016M
232.128	14.769	144135	PROB	14.744	n/a	n/a	n/a	-999	1	[7, 4, 9]	20.0	catFR1	1	R1016M
246.897	9.703	151519	PROB	9.703	n/a	n/a	n/a	-999	1	[2, 5, 4]	11.0	catFR1	1	R1016M
256.6	0.016	156371	STOP	n/a	n/a	n/a	n/a	-999	1	[-999, -999, -999]	n/a	catFR1	1	R1016M
256.616	1.134	156379	DISTRACT_END	n/a	n/a	n/a	n/a	-999	1	[0, 0, 0]	n/a	catFR1	1	R1016M
257.75	2.64	156946	REC_START	n/a	n/a	n/a	n/a	-999	1	[0, 0, 0]	n/a	catFR1	1	R1016M
260.39	2.584	158266	REC_WORD	2.64	n/a	SUNFLOWER	Flowers	1	1	[0, 0, 0]	n/a	catFR1	1	R1016M
262.974	0.825	159557	REC_WORD_VV	5.224	n/a	<>	n/a	-999	1	[0, 0, 0]	n/a	catFR1	1	R1016M
263.799	2.946	159970	REC_WORD	6.049	n/a	KNIFE	KitchenTools	4	1	[0, 0, 0]	n/a	catFR1	1	R1016M
266.745	3.225	161443	REC_WORD_VV	8.995	n/a	<>	n/a	-999	1	[0, 0, 0]	n/a	catFR1	1	R1016M
269.97	2.71	163055	REC_WORD	12.22	n/a	LILAC	n/a	-999	1	[0, 0, 0]	n/a	catFR1	1	R1016M
272.68	14.334	164410	REC_WORD	14.93	n/a	MARIGOLD	Flowers	9	1	[0, 0, 0]	n/a	catFR1	1	R1016M
287.014	0.749	171577	REC_WORD	29.264	n/a	NUT	n/a	-999	1	[0, 0, 0]	n/a	catFR1	1	R1016M
287.763	14.045	171951	REC_END	n/a	n/a	n/a	n/a	-999	1	[0, 0, 0]	n/a	catFR1	1	R1016M
301.808	0.0	178973	TRIAL	n/a	n/a	n/a	n/a	-999	2	[0, 0, 0]	n/a	catFR1	1	R1016M
301.808	10.0	178973	COUNTDOWN_START	n/a	n/a	n/a	n/a	-999	2	[0, 0, 0]	n/a	catFR1	1	R1016M
312.236	0.007	184187	COUNTDOWN_END	n/a	n/a	n/a	n/a	-999	2	[0, 0, 0]	n/a	catFR1	1	R1016M
312.243	1.6	184191	ORIENT	n/a	n/a	n/a	n/a	-999	2	[0, 0, 0]	n/a	catFR1	1	R1016M
315.794	1.6	185966	WORD	n/a	wordpools/wordpool_categorized_EN.txt	ELEPHANT	Zoo	1	2	[0, 0, 0]	n/a	catFR1	1	R1016M
318.394	1.6	187266	WORD	n/a	wordpools/wordpool_categorized_EN.txt	ORANGUTAN	Zoo	2	2	[0, 0, 0]	n/a	catFR1	1	R1016M
320.962	1.6	188550	WORD	n/a	wordpools/wordpool_categorized_EN.txt	DISHWASHER	Appliances	3	2	[0, 0, 0]	n/a	catFR1	1	R1016M
323.479	1.6	189808	WORD	n/a	wordpools/wordpool_categorized_EN.txt	MIXER	Appliances	4	2	[0, 0, 0]	n/a	catFR1	1	R1016M
326.113	1.6	191125	WORD	n/a	wordpools/wordpool_categorized_EN.txt	STAPLER	OfficeSupplies	5	2	[0, 0, 0]	n/a	catFR1	1	R1016M
328.546	1.6	192342	WORD	n/a	wordpools/wordpool_categorized_EN.txt	GLUE	OfficeSupplies	6	2	[0, 0, 0]	n/a	catFR1	1	R1016M
331.131	1.6	193634	WORD	n/a	wordpools/wordpool_categorized_EN.txt	OVEN	Appliances	7	2	[0, 0, 0]	n/a	catFR1	1	R1016M
333.664	1.6	194900	WORD	n/a	wordpools/wordpool_categorized_EN.txt	IRON	Appliances	8	2	[0, 0, 0]	n/a	catFR1	1	R1016M
336.115	1.6	196126	WORD	n/a	wordpools/wordpool_categorized_EN.txt	BEAR	Zoo	9	2	[0, 0, 0]	n/a	catFR1	1	R1016M
338.698	1.6	197417	WORD	n/a	wordpools/wordpool_categorized_EN.txt	CHIMPANZEE	Zoo	10	2	[0, 0, 0]	n/a	catFR1	1	R1016M
341.165	1.6	198651	WORD	n/a	wordpools/wordpool_categorized_EN.txt	PAPER	OfficeSupplies	11	2	[0, 0, 0]	n/a	catFR1	1	R1016M
343.599	1.6	199868	WORD	n/a	wordpools/wordpool_categorized_EN.txt	FOLDER	OfficeSupplies	12	2	[0, 0, 0]	n/a	catFR1	1	R1016M
345.216	0.001	200676	DISTRACT_START	n/a	n/a	n/a	n/a	-999	2	[0, 0, 0]	n/a	catFR1	1	R1016M
345.217	0.016	200677	START	n/a	n/a	n/a	n/a	-999	2	[-999, -999, -999]	n/a	catFR1	1	R1016M
345.233	8.118	200685	PROB	8.094	n/a	n/a	n/a	-999	2	[2, 5, 1]	8.0	catFR1	1	R1016M
353.351	13.642	204743	PROB	13.642	n/a	n/a	n/a	-999	2	[6, 7, 1]	14.0	catFR1	1	R1016M
366.993	0.012	211564	STOP	n/a	n/a	n/a	n/a	-999	2	[-999, -999, -999]	n/a	catFR1	1	R1016M
367.005	1.051	211570	DISTRACT_END	n/a	n/a	n/a	n/a	-999	2	[0, 0, 0]	n/a	catFR1	1	R1016M
368.056	2.299	212095	REC_START	n/a	n/a	n/a	n/a	-999	2	[0, 0, 0]	n/a	catFR1	1	R1016M
370.355	1.54	213245	REC_WORD	2.299	n/a	IRON	Appliances	8	2	[0, 0, 0]	n/a	catFR1	1	R1016M
371.895	1.682	214015	REC_WORD	3.839	n/a	STAPLER	OfficeSupplies	5	2	[0, 0, 0]	n/a	catFR1	1	R1016M
373.577	1.97	214856	REC_WORD	5.521	n/a	FOLDER	OfficeSupplies	12	2	[0, 0, 0]	n/a	catFR1	1	R1016M
375.547	6.218	215841	REC_WORD	7.491	n/a	PAPER	OfficeSupplies	11	2	[0, 0, 0]	n/a	catFR1	1	R1016M
381.765	2.816	218950	REC_WORD	13.709	n/a	WALLFLOWER	n/a	-999	2	[0, 0, 0]	n/a	catFR1	1	R1016M
384.581	3.225	220357	REC_WORD_VV	16.525	n/a	<>	n/a	-999	2	[0, 0, 0]	n/a	catFR1	1	R1016M
387.806	4.558	221970	REC_WORD	19.75	n/a	CHIMPANZEE	Zoo	10	2	[0, 0, 0]	n/a	catFR1	1	R1016M
392.364	5.703	224249	REC_WORD_VV	24.308	n/a	<>	n/a	-999	2	[0, 0, 0]	n/a	catFR1	1	R1016M
398.067	10.445	227100	REC_END	n/a	n/a	n/a	n/a	-999	2	[0, 0, 0]	n/a	catFR1	1	R1016M
408.512	0.0	232322	TRIAL	n/a	n/a	n/a	n/a	-999	3	[0, 0, 0]	n/a	catFR1	1	R1016M
408.512	10.0	232322	COUNTDOWN_START	n/a	n/a	n/a	n/a	-999	3	[0, 0, 0]	n/a	catFR1	1	R1016M
418.94	0.008	237536	COUNTDOWN_END	n/a	n/a	n/a	n/a	-999	3	[0, 0, 0]	n/a	catFR1	1	R1016M
418.948	1.6	237540	ORIENT	n/a	n/a	n/a	n/a	-999	3	[0, 0, 0]	n/a	catFR1	1	R1016M
422.748	1.6	239440	WORD	n/a	wordpools/wordpool_categorized_EN.txt	PEACH	Fruit	1	3	[0, 0, 0]	n/a	catFR1	1	R1016M
425.165	1.6	240648	WORD	n/a	wordpools/wordpool_categorized_EN.txt	PEAR	Fruit	2	3	[0, 0, 0]	n/a	catFR1	1	R1016M
427.715	1.6	241923	WORD	n/a	wordpools/wordpool_categorized_EN.txt	DUCK	Birds	3	3	[0, 0, 0]	n/a	catFR1	1	R1016M
430.266	1.6	243199	WORD	n/a	wordpools/wordpool_categorized_EN.txt	BLUEBIRD	Birds	4	3	[0, 0, 0]	n/a	catFR1	1	R1016M
432.85	1.6	244491	WORD	n/a	wordpools/wordpool_categorized_EN.txt	FOREST	Landscapes	5	3	[0, 0, 0]	n/a	catFR1	1	R1016M
435.3	1.6	245716	WORD	n/a	wordpools/wordpool_categorized_EN.txt	MOUNTAIN	Landscapes	6	3	[0, 0, 0]	n/a	catFR1	1	R1016M
437.701	1.6	246916	WORD	n/a	wordpools/wordpool_categorized_EN.txt	PIGEON	Birds	7	3	[0, 0, 0]	n/a	catFR1	1	R1016M
440.136	1.6	248133	WORD	n/a	wordpools/wordpool_categorized_EN.txt	DOVE	Birds	8	3	[0, 0, 0]	n/a	catFR1	1	R1016M
442.552	1.6	249341	WORD	n/a	wordpools/wordpool_categorized_EN.txt	PLUM	Fruit	9	3	[0, 0, 0]	n/a	catFR1	1	R1016M
445.103	1.6	250617	WORD	n/a	wordpools/wordpool_categorized_EN.txt	BANANA	Fruit	10	3	[0, 0, 0]	n/a	catFR1	1	R1016M
447.519	1.6	251825	WORD	n/a	wordpools/wordpool_categorized_EN.txt	WOODS	Landscapes	11	3	[0, 0, 0]	n/a	catFR1	1	R1016M
450.021	1.6	253076	WORD	n/a	wordpools/wordpool_categorized_EN.txt	OCEAN	Landscapes	12	3	[0, 0, 0]	n/a	catFR1	1	R1016M
451.637	0.001	253884	DISTRACT_START	n/a	n/a	n/a	n/a	-999	3	[0, 0, 0]	n/a	catFR1	1	R1016M
451.638	0.015	253884	START	n/a	n/a	n/a	n/a	-999	3	[-999, -999, -999]	n/a	catFR1	1	R1016M
451.653	9.453	253892	PROB	9.428	n/a	n/a	n/a	-999	3	[6, 9, 9]	24.0	catFR1	1	R1016M
461.106	12.502	258618	PROB	12.502	n/a	n/a	n/a	-999	3	[9, 7, 2]	18.0	catFR1	1	R1016M
473.608	0.016	264868	STOP	n/a	n/a	n/a	n/a	-999	3	[-999, -999, -999]	n/a	catFR1	1	R1016M
473.624	1.034	264876	DISTRACT_END	n/a	n/a	n/a	n/a	-999	3	[0, 0, 0]	n/a	catFR1	1	R1016M
474.658	2.71	265393	REC_START	n/a	n/a	n/a	n/a	-999	3	[0, 0, 0]	n/a	catFR1	1	R1016M
477.368	1.631	266748	REC_WORD	2.71	n/a	OCEAN	Landscapes	12	3	[0, 0, 0]	n/a	catFR1	1	R1016M
478.999	1.663	267564	REC_WORD	4.341	n/a	MOUNTAIN	Landscapes	6	3	[0, 0, 0]	n/a	catFR1	1	R1016M
480.662	1.718	268395	REC_WORD	6.004	n/a	PIGEON	Birds	7	3	[0, 0, 0]	n/a	catFR1	1	R1016M
482.38	14.145	269254	REC_WORD	7.722	n/a	WOODS	Landscapes	11	3	[0, 0, 0]	n/a	catFR1	1	R1016M
496.525	2.621	276326	REC_WORD	21.867	n/a	RAINFOREST	n/a	-999	3	[0, 0, 0]	n/a	catFR1	1	R1016M
499.146	3.626	277637	REC_WORD	24.488	n/a	FOREST	Landscapes	5	3	[0, 0, 0]	n/a	catFR1	1	R1016M
502.772	1.897	279450	REC_WORD_VV	28.114	n/a	<>	n/a	-999	3	[0, 0, 0]	n/a	catFR1	1	R1016M
504.669	16.848	280398	REC_END	n/a	n/a	n/a	n/a	-999	3	[0, 0, 0]	n/a	catFR1	1	R1016M
521.517	10.0	288822	COUNTDOWN_START	n/a	n/a	n/a	n/a	-999	4	[0, 0, 0]	n/a	catFR1	1	R1016M
521.517	10.428	288822	TRIAL	n/a	n/a	n/a	n/a	-999	4	[0, 0, 0]	n/a	catFR1	1	R1016M
531.945	0.008	294035	COUNTDOWN_END	n/a	n/a	n/a	n/a	-999	4	[0, 0, 0]	n/a	catFR1	1	R1016M
531.953	1.6	294039	ORIENT	n/a	n/a	n/a	n/a	-999	4	[0, 0, 0]	n/a	catFR1	1	R1016M
535.636	1.6	295881	WORD	n/a	wordpools/wordpool_categorized_EN.txt	COLANDER	KitchenTools	1	4	[0, 0, 0]	n/a	catFR1	1	R1016M
538.154	1.6	297140	WORD	n/a	wordpools/wordpool_categorized_EN.txt	CORKSCREW	KitchenTools	2	4	[0, 0, 0]	n/a	catFR1	1	R1016M
540.604	1.6	298365	WORD	n/a	wordpools/wordpool_categorized_EN.txt	STRAWBERRY	Fruit	3	4	[0, 0, 0]	n/a	catFR1	1	R1016M
543.188	1.6	299656	WORD	n/a	wordpools/wordpool_categorized_EN.txt	BLUEBERRY	Fruit	4	4	[0, 0, 0]	n/a	catFR1	1	R1016M
545.655	1.6	300890	WORD	n/a	wordpools/wordpool_categorized_EN.txt	GOAT	FarmAnimals	5	4	[0, 0, 0]	n/a	catFR1	1	R1016M
548.239	1.6	302182	WORD	n/a	wordpools/wordpool_categorized_EN.txt	CHICKEN	FarmAnimals	6	4	[0, 0, 0]	n/a	catFR1	1	R1016M
550.773	1.6	303449	WORD	n/a	wordpools/wordpool_categorized_EN.txt	LADLE	KitchenTools	7	4	[0, 0, 0]	n/a	catFR1	1	R1016M
553.373	1.6	304749	WORD	n/a	wordpools/wordpool_categorized_EN.txt	WHISK	KitchenTools	8	4	[0, 0, 0]	n/a	catFR1	1	R1016M
555.807	1.6	305966	WORD	n/a	wordpools/wordpool_categorized_EN.txt	HORSE	FarmAnimals	9	4	[0, 0, 0]	n/a	catFR1	1	R1016M
558.424	1.6	307274	WORD	n/a	wordpools/wordpool_categorized_EN.txt	HEN	FarmAnimals	10	4	[0, 0, 0]	n/a	catFR1	1	R1016M
561.026	1.6	308575	WORD	n/a	wordpools/wordpool_categorized_EN.txt	GRAPE	Fruit	11	4	[0, 0, 0]	n/a	catFR1	1	R1016M
563.492	1.6	309808	WORD	n/a	wordpools/wordpool_categorized_EN.txt	APPLE	Fruit	12	4	[0, 0, 0]	n/a	catFR1	1	R1016M
565.093	0.001	310608	DISTRACT_START	n/a	n/a	n/a	n/a	-999	4	[0, 0, 0]	n/a	catFR1	1	R1016M
565.094	0.016	310609	START	n/a	n/a	n/a	n/a	-999	4	[-999, -999, -999]	n/a	catFR1	1	R1016M
565.11	13.836	310617	PROB	13.801	n/a	n/a	n/a	-999	4	[2, 9, 8]	19.0	catFR1	1	R1016M
578.946	12.541	317534	PROB	12.541	n/a	n/a	n/a	-999	4	[7, 1, 6]	14.0	catFR1	1	R1016M
591.487	0.01	323805	STOP	n/a	n/a	n/a	n/a	-999	4	[-999, -999, -999]	n/a	catFR1	1	R1016M
591.497	1.134	323810	DISTRACT_END	n/a	n/a	n/a	n/a	-999	4	[0, 0, 0]	n/a	catFR1	1	R1016M
592.631	2.753	324377	REC_START	n/a	n/a	n/a	n/a	-999	4	[0, 0, 0]	n/a	catFR1	1	R1016M
595.384	9.616	325753	REC_WORD	2.753	n/a	HORSE	FarmAnimals	9	4	[0, 0, 0]	n/a	catFR1	1	R1016M
605.0	4.08	330561	REC_WORD	12.369	n/a	OCEAN	n/a	-999	4	[0, 0, 0]	n/a	catFR1	1	R1016M
609.08	2.965	332601	REC_WORD	16.449	n/a	WILDLIFE	n/a	-999	4	[0, 0, 0]	n/a	catFR1	1	R1016M
612.045	1.466	334083	REC_WORD_VV	19.414	n/a	<>	n/a	-999	4	[0, 0, 0]	n/a	catFR1	1	R1016M
613.511	1.146	334816	REC_WORD	20.88	n/a	APPLE	Fruit	12	4	[0, 0, 0]	n/a	catFR1	1	R1016M
614.657	2.538	335389	REC_WORD	22.026	n/a	PEAR	n/a	-999	4	[0, 0, 0]	n/a	catFR1	1	R1016M
617.195	4.376	336658	REC_WORD	24.564	n/a	GRAPE	Fruit	11	4	[0, 0, 0]	n/a	catFR1	1	R1016M
621.571	1.075	338846	REC_WORD	28.94	n/a	WILDBERRY	n/a	-999	4	[0, 0, 0]	n/a	catFR1	1	R1016M
622.646	17.278	339383	REC_END	n/a	n/a	n/a	n/a	-999	4	[0, 0, 0]	n/a	catFR1	1	R1016M
639.924	0.0	348022	TRIAL	n/a	n/a	n/a	n/a	-999	5	[0, 0, 0]	n/a	catFR1	1	R1016M
639.924	10.0	348022	COUNTDOWN_START	n/a	n/a	n/a	n/a	-999	5	[0, 0, 0]	n/a	catFR1	1	R1016M
650.352	0.007	353235	COUNTDOWN_END	n/a	n/a	n/a	n/a	-999	5	[0, 0, 0]	n/a	catFR1	1	R1016M
650.359	1.6	353239	ORIENT	n/a	n/a	n/a	n/a	-999	5	[0, 0, 0]	n/a	catFR1	1	R1016M
654.243	1.6	355181	WORD	n/a	wordpools/wordpool_categorized_EN.txt	SEAGULL	Birds	1	5	[0, 0, 0]	n/a	catFR1	1	R1016M
656.86	1.6	356489	WORD	n/a	wordpools/wordpool_categorized_EN.txt	GOOSE	Birds	2	5	[0, 0, 0]	n/a	catFR1	1	R1016M
659.41	1.6	357764	WORD	n/a	wordpools/wordpool_categorized_EN.txt	FOG	Weather	3	5	[0, 0, 0]	n/a	catFR1	1	R1016M
661.978	1.6	359048	WORD	n/a	wordpools/wordpool_categorized_EN.txt	HUMIDITY	Weather	4	5	[0, 0, 0]	n/a	catFR1	1	R1016M
664.545	1.6	360331	WORD	n/a	wordpools/wordpool_categorized_EN.txt	CELERY	Vegetables	5	5	[0, 0, 0]	n/a	catFR1	1	R1016M
667.013	1.6	361565	WORD	n/a	wordpools/wordpool_categorized_EN.txt	SPINACH	Vegetables	6	5	[0, 0, 0]	n/a	catFR1	1	R1016M
669.412	1.6	362765	WORD	n/a	wordpools/wordpool_categorized_EN.txt	DRIZZLE	Weather	7	5	[0, 0, 0]	n/a	catFR1	1	R1016M
671.913	1.6	364015	WORD	n/a	wordpools/wordpool_categorized_EN.txt	THUNDERSTORM	Weather	8	5	[0, 0, 0]	n/a	catFR1	1	R1016M
674.297	1.6	365207	WORD	n/a	wordpools/wordpool_categorized_EN.txt	HAWK	Birds	9	5	[0, 0, 0]	n/a	catFR1	1	R1016M
676.83	1.6	366474	WORD	n/a	wordpools/wordpool_categorized_EN.txt	CROW	Birds	10	5	[0, 0, 0]	n/a	catFR1	1	R1016M
679.381	1.6	367749	WORD	n/a	wordpools/wordpool_categorized_EN.txt	POTATO	Vegetables	11	5	[0, 0, 0]	n/a	catFR1	1	R1016M
681.831	1.6	368974	WORD	n/a	wordpools/wordpool_categorized_EN.txt	CAULIFLOWER	Vegetables	12	5	[0, 0, 0]	n/a	catFR1	1	R1016M
683.448	0.001	369782	DISTRACT_START	n/a	n/a	n/a	n/a	-999	5	[0, 0, 0]	n/a	catFR1	1	R1016M
683.449	0.016	369783	START	n/a	n/a	n/a	n/a	-999	5	[-999, -999, -999]	n/a	catFR1	1	R1016M
683.465	11.537	369791	PROB	11.511	n/a	n/a	n/a	-999	5	[8, 2, 7]	17.0	catFR1	1	R1016M
695.002	5.683	375559	PROB	5.646	n/a	n/a	n/a	-999	5	[5, 5, 2]	12.0	catFR1	1	R1016M
700.685	14.252	378400	PROB	14.252	n/a	n/a	n/a	-999	5	[7, 6, 4]	17.0	catFR1	1	R1016M
714.937	0.018	385526	STOP	n/a	n/a	n/a	n/a	-999	5	[-999, -999, -999]	n/a	catFR1	1	R1016M
714.955	1.051	385535	DISTRACT_END	n/a	n/a	n/a	n/a	-999	5	[0, 0, 0]	n/a	catFR1	1	R1016M
716.006	2.458	386061	REC_START	n/a	n/a	n/a	n/a	-999	5	[0, 0, 0]	n/a	catFR1	1	R1016M
718.464	3.692	387289	REC_WORD	2.458	n/a	HAWK	Birds	9	5	[0, 0, 0]	n/a	catFR1	1	R1016M
722.156	23.863	389135	REC_WORD	6.15	n/a	SEAGULL	Birds	1	5	[0, 0, 0]	n/a	catFR1	1	R1016M
746.019	22.013	401066	REC_END	n/a	n/a	n/a	n/a	-999	5	[0, 0, 0]	n/a	catFR1	1	R1016M
768.032	10.0	412072	COUNTDOWN_START	n/a	n/a	n/a	n/a	-999	6	[0, 0, 0]	n/a	catFR1	1	R1016M
768.033	10.427	412073	TRIAL	n/a	n/a	n/a	n/a	-999	6	[0, 0, 0]	n/a	catFR1	1	R1016M
778.46	0.007	417286	COUNTDOWN_END	n/a	n/a	n/a	n/a	-999	6	[0, 0, 0]	n/a	catFR1	1	R1016M
778.467	1.6	417289	ORIENT	n/a	n/a	n/a	n/a	-999	6	[0, 0, 0]	n/a	catFR1	1	R1016M
782.135	1.6	419123	WORD	n/a	wordpools/wordpool_categorized_EN.txt	STAIRS	Building	1	6	[0, 0, 0]	n/a	catFR1	1	R1016M
784.701	1.6	420406	WORD	n/a	wordpools/wordpool_categorized_EN.txt	WINDOW	Building	2	6	[0, 0, 0]	n/a	catFR1	1	R1016M
787.302	1.6	421706	WORD	n/a	wordpools/wordpool_categorized_EN.txt	CUCUMBER	Vegetables	3	6	[0, 0, 0]	n/a	catFR1	1	R1016M
789.719	1.6	422915	WORD	n/a	wordpools/wordpool_categorized_EN.txt	CORN	Vegetables	4	6	[0, 0, 0]	n/a	catFR1	1	R1016M
792.219	1.6	424165	WORD	n/a	wordpools/wordpool_categorized_EN.txt	DRYER	Appliances	5	6	[0, 0, 0]	n/a	catFR1	1	R1016M
794.77	1.6	425440	WORD	n/a	wordpools/wordpool_categorized_EN.txt	REFRIGERATOR	Appliances	6	6	[0, 0, 0]	n/a	catFR1	1	R1016M
797.22	1.6	426665	WORD	n/a	wordpools/wordpool_categorized_EN.txt	FLOOR	Building	7	6	[0, 0, 0]	n/a	catFR1	1	R1016M
799.721	1.6	427916	WORD	n/a	wordpools/wordpool_categorized_EN.txt	FOUNDATION	Building	8	6	[0, 0, 0]	n/a	catFR1	1	R1016M
802.338	1.6	429224	WORD	n/a	wordpools/wordpool_categorized_EN.txt	STOVE	Appliances	9	6	[0, 0, 0]	n/a	catFR1	1	R1016M
804.805	1.6	430457	WORD	n/a	wordpools/wordpool_categorized_EN.txt	FREEZER	Appliances	10	6	[0, 0, 0]	n/a	catFR1	1	R1016M
807.406	1.6	431758	WORD	n/a	wordpools/wordpool_categorized_EN.txt	PEAS	Vegetables	11	6	[0, 0, 0]	n/a	catFR1	1	R1016M
809.889	1.6	432999	WORD	n/a	wordpools/wordpool_categorized_EN.txt	CARROT	Vegetables	12	6	[0, 0, 0]	n/a	catFR1	1	R1016M
811.507	0.001	433808	DISTRACT_START	n/a	n/a	n/a	n/a	-999	6	[0, 0, 0]	n/a	catFR1	1	R1016M
811.508	0.015	433809	START	n/a	n/a	n/a	n/a	-999	6	[-999, -999, -999]	n/a	catFR1	1	R1016M
811.523	8.252	433816	PROB	8.221	n/a	n/a	n/a	-999	6	[9, 2, 7]	18.0	catFR1	1	R1016M
819.775	11.085	437942	PROB	11.057	n/a	n/a	n/a	-999	6	[3, 7, 2]	13.0	catFR1	1	R1016M
830.86	12.323	443484	PROB	12.323	n/a	n/a	n/a	-999	6	[3, 9, 5]	1.0	catFR1	1	R1016M
843.183	0.013	449645	STOP	n/a	n/a	n/a	n/a	-999	6	[-999, -999, -999]	n/a	catFR1	1	R1016M
843.196	1.184	449652	DISTRACT_END	n/a	n/a	n/a	n/a	-999	6	[0, 0, 0]	n/a	catFR1	1	R1016M
844.38	3.993	450244	REC_START	n/a	n/a	n/a	n/a	-999	6	[0, 0, 0]	n/a	catFR1	1	R1016M
848.373	9.241	452240	REC_WORD	3.993	n/a	STAIRS	Building	1	6	[0, 0, 0]	n/a	catFR1	1	R1016M
857.614	5.168	456860	REC_WORD	13.234	n/a	RAILING	n/a	-999	6	[0, 0, 0]	n/a	catFR1	1	R1016M
862.782	2.486	459444	REC_WORD	18.402	n/a	REFRIGERATOR	Appliances	6	6	[0, 0, 0]	n/a	catFR1	1	R1016M
865.268	1.705	460687	REC_WORD	20.888	n/a	OVEN	n/a	-999	6	[0, 0, 0]	n/a	catFR1	1	R1016M
866.973	7.422	461540	REC_WORD	22.593	n/a	STOVE	Appliances	9	6	[0, 0, 0]	n/a	catFR1	1	R1016M
874.395	15.628	465250	REC_END	n/a	n/a	n/a	n/a	-999	6	[0, 0, 0]	n/a	catFR1	1	R1016M
890.023	0.0	473064	TRIAL	n/a	n/a	n/a	n/a	-999	7	[0, 0, 0]	n/a	catFR1	1	R1016M
890.023	10.0	473064	COUNTDOWN_START	n/a	n/a	n/a	n/a	-999	7	[0, 0, 0]	n/a	catFR1	1	R1016M
900.451	0.006	478278	COUNTDOWN_END	n/a	n/a	n/a	n/a	-999	7	[0, 0, 0]	n/a	catFR1	1	R1016M
900.457	1.6	478281	ORIENT	n/a	n/a	n/a	n/a	-999	7	[0, 0, 0]	n/a	catFR1	1	R1016M
904.241	1.6	480173	WORD	n/a	wordpools/wordpool_categorized_EN.txt	DRESS	Clothing	1	7	[0, 0, 0]	n/a	catFR1	1	R1016M
906.675	1.6	481390	WORD	n/a	wordpools/wordpool_categorized_EN.txt	JACKET	Clothing	2	7	[0, 0, 0]	n/a	catFR1	1	R1016M
909.159	1.6	482631	WORD	n/a	wordpools/wordpool_categorized_EN.txt	CROWBAR	Tools	3	7	[0, 0, 0]	n/a	catFR1	1	R1016M
911.759	1.6	483931	WORD	n/a	wordpools/wordpool_categorized_EN.txt	SHOVEL	Tools	4	7	[0, 0, 0]	n/a	catFR1	1	R1016M
914.243	1.6	485173	WORD	n/a	wordpools/wordpool_categorized_EN.txt	ARM	BodyParts	5	7	[0, 0, 0]	n/a	catFR1	1	R1016M
916.81	1.6	486457	WORD	n/a	wordpools/wordpool_categorized_EN.txt	EYE	BodyParts	6	7	[0, 0, 0]	n/a	catFR1	1	R1016M
919.261	1.6	487682	WORD	n/a	wordpools/wordpool_categorized_EN.txt	LEVEL	Tools	7	7	[0, 0, 0]	n/a	catFR1	1	R1016M
921.678	1.6	488891	WORD	n/a	wordpools/wordpool_categorized_EN.txt	RATCHET	Tools	8	7	[0, 0, 0]	n/a	catFR1	1	R1016M
924.195	1.6	490149	WORD	n/a	wordpools/wordpool_categorized_EN.txt	SHORTS	Clothing	9	7	[0, 0, 0]	n/a	catFR1	1	R1016M
926.712	1.6	491407	WORD	n/a	wordpools/wordpool_categorized_EN.txt	SKIRT	Clothing	10	7	[0, 0, 0]	n/a	catFR1	1	R1016M
929.296	1.6	492699	WORD	n/a	wordpools/wordpool_categorized_EN.txt	FINGERS	BodyParts	11	7	[0, 0, 0]	n/a	catFR1	1	R1016M
931.896	1.6	493999	WORD	n/a	wordpools/wordpool_categorized_EN.txt	ELBOW	BodyParts	12	7	[0, 0, 0]	n/a	catFR1	1	R1016M
933.513	0.001	494808	DISTRACT_START	n/a	n/a	n/a	n/a	-999	7	[0, 0, 0]	n/a	catFR1	1	R1016M
933.514	0.016	494808	START	n/a	n/a	n/a	n/a	-999	7	[-999, -999, -999]	n/a	catFR1	1	R1016M
933.53	37.085	494816	PROB	37.085	n/a	n/a	n/a	-999	7	[7, 9, 5]	21.0	catFR1	1	R1016M
970.615	0.006	513358	STOP	n/a	n/a	n/a	n/a	-999	7	[-999, -999, -999]	n/a	catFR1	1	R1016M
970.621	1.051	513361	DISTRACT_END	n/a	n/a	n/a	n/a	-999	7	[0, 0, 0]	n/a	catFR1	1	R1016M
971.672	1.969	513886	REC_START	n/a	n/a	n/a	n/a	-999	7	[0, 0, 0]	n/a	catFR1	1	R1016M
973.641	1.115	514871	REC_WORD	1.969	n/a	RATCHET	Tools	8	7	[0, 0, 0]	n/a	catFR1	1	R1016M
974.756	1.17	515428	REC_WORD	3.084	n/a	SKIRT	Clothing	10	7	[0, 0, 0]	n/a	catFR1	1	R1016M
975.926	1.357	516013	REC_WORD	4.254	n/a	SHORTS	Clothing	9	7	[0, 0, 0]	n/a	catFR1	1	R1016M
977.283	1.267	516692	REC_WORD	5.611	n/a	ELBOW	BodyParts	12	7	[0, 0, 0]	n/a	catFR1	1	R1016M
978.55	1.883	517325	REC_WORD	6.878	n/a	FINGERS	BodyParts	11	7	[0, 0, 0]	n/a	catFR1	1	R1016M
980.433	3.163	518266	REC_WORD	8.761	n/a	TOE	n/a	-999	7	[0, 0, 0]	n/a	catFR1	1	R1016M
983.596	5.385	519848	REC_WORD_VV	11.924	n/a	<>	n/a	-999	7	[0, 0, 0]	n/a	catFR1	1	R1016M
988.981	1.253	522540	REC_WORD	17.309	n/a	ARM	BodyParts	5	7	[0, 0, 0]	n/a	catFR1	1	R1016M
990.234	11.449	523167	REC_WORD	18.562	n/a	EYE	BodyParts	6	7	[0, 0, 0]	n/a	catFR1	1	R1016M
1001.683	31.317	528891	REC_END	n/a	n/a	n/a	n/a	-999	7	[0, 0, 0]	n/a	catFR1	1	R1016M
1033.0	10.0	544548	COUNTDOWN_START	n/a	n/a	n/a	n/a	-999	8	[0, 0, 0]	n/a	catFR1	1	R1016M
1033.001	10.427	544549	TRIAL	n/a	n/a	n/a	n/a	-999	8	[0, 0, 0]	n/a	catFR1	1	R1016M
1043.428	0.007	549762	COUNTDOWN_END	n/a	n/a	n/a	n/a	-999	8	[0, 0, 0]	n/a	catFR1	1	R1016M
1043.435	1.6	549766	ORIENT	n/a	n/a	n/a	n/a	-999	8	[0, 0, 0]	n/a	catFR1	1	R1016M
1046.953	1.6	551525	WORD	n/a	wordpools/wordpool_categorized_EN.txt	BLOCKS	Toys	1	8	[0, 0, 0]	n/a	catFR1	1	R1016M
1049.403	1.6	552749	WORD	n/a	wordpools/wordpool_categorized_EN.txt	MARBLES	Toys	2	8	[0, 0, 0]	n/a	catFR1	1	R1016M
1052.004	1.6	554050	WORD	n/a	wordpools/wordpool_categorized_EN.txt	LILAC	Flowers	3	8	[0, 0, 0]	n/a	catFR1	1	R1016M
1054.42	1.6	555258	WORD	n/a	wordpools/wordpool_categorized_EN.txt	TULIP	Flowers	4	8	[0, 0, 0]	n/a	catFR1	1	R1016M
1057.022	1.6	556559	WORD	n/a	wordpools/wordpool_categorized_EN.txt	HURRICANE	Weather	5	8	[0, 0, 0]	n/a	catFR1	1	R1016M
1059.588	1.6	557842	WORD	n/a	wordpools/wordpool_categorized_EN.txt	SNOW	Weather	6	8	[0, 0, 0]	n/a	catFR1	1	R1016M
1062.073	1.6	559084	WORD	n/a	wordpools/wordpool_categorized_EN.txt	DOLL	Toys	7	8	[0, 0, 0]	n/a	catFR1	1	R1016M
1064.489	1.6	560292	WORD	n/a	wordpools/wordpool_categorized_EN.txt	PUZZLE	Toys	8	8	[0, 0, 0]	n/a	catFR1	1	R1016M
1066.889	1.6	561492	WORD	n/a	wordpools/wordpool_categorized_EN.txt	THUNDER	Weather	9	8	[0, 0, 0]	n/a	catFR1	1	R1016M
1069.273	1.6	562684	WORD	n/a	wordpools/wordpool_categorized_EN.txt	WIND	Weather	10	8	[0, 0, 0]	n/a	catFR1	1	R1016M
1071.707	1.6	563901	WORD	n/a	wordpools/wordpool_categorized_EN.txt	ROSE	Flowers	11	8	[0, 0, 0]	n/a	catFR1	1	R1016M
1074.324	1.6	565209	WORD	n/a	wordpools/wordpool_categorized_EN.txt	ORCHID	Flowers	12	8	[0, 0, 0]	n/a	catFR1	1	R1016M
1075.925	0.001	566010	DISTRACT_START	n/a	n/a	n/a	n/a	-999	8	[0, 0, 0]	n/a	catFR1	1	R1016M
1075.926	0.016	566010	START	n/a	n/a	n/a	n/a	-999	8	[-999, -999, -999]	n/a	catFR1	1	R1016M
1075.942	13.119	566018	PROB	13.099	n/a	n/a	n/a	-999	8	[4, 9, 4]	17.0	catFR1	1	R1016M
1089.061	11.234	572577	PROB	11.234	n/a	n/a	n/a	-999	8	[3, 7, 9]	19.0	catFR1	1	R1016M
1100.295	0.017	578194	STOP	n/a	n/a	n/a	n/a	-999	8	[-999, -999, -999]	n/a	catFR1	1	R1016M
1100.312	1.168	578203	DISTRACT_END	n/a	n/a	n/a	n/a	-999	8	[0, 0, 0]	n/a	catFR1	1	R1016M
1101.48	2.221	578786	REC_START	n/a	n/a	n/a	n/a	-999	8	[0, 0, 0]	n/a	catFR1	1	R1016M
1103.701	1.091	579897	REC_WORD	2.221	n/a	ORCHID	Flowers	12	8	[0, 0, 0]	n/a	catFR1	1	R1016M
1104.792	1.429	580442	REC_WORD	3.312	n/a	LILAC	Flowers	3	8	[0, 0, 0]	n/a	catFR1	1	R1016M
1106.221	4.544	581157	REC_WORD	4.741	n/a	ROSE	Flowers	11	8	[0, 0, 0]	n/a	catFR1	1	R1016M
1110.765	1.925	583429	REC_WORD	9.285	n/a	THUNDER	Weather	9	8	[0, 0, 0]	n/a	catFR1	1	R1016M
1112.69	5.533	584391	REC_WORD	11.21	n/a	STORM	n/a	-999	8	[0, 0, 0]	n/a	catFR1	1	R1016M
1118.223	5.874	587158	REC_WORD	16.743	n/a	WIND	Weather	10	8	[0, 0, 0]	n/a	catFR1	1	R1016M
1124.097	7.393	590094	REC_WORD	22.617	n/a	FLOWER	n/a	-999	8	[0, 0, 0]	n/a	catFR1	1	R1016M
1131.49	26.417	593791	REC_END	n/a	n/a	n/a	n/a	-999	8	[0, 0, 0]	n/a	catFR1	1	R1016M
1157.907	0.0	606998	TRIAL	n/a	n/a	n/a	n/a	-999	9	[0, 0, 0]	n/a	catFR1	1	R1016M
1157.907	10.0	606998	COUNTDOWN_START	n/a	n/a	n/a	n/a	-999	9	[0, 0, 0]	n/a	catFR1	1	R1016M
1168.335	0.007	612212	COUNTDOWN_END	n/a	n/a	n/a	n/a	-999	9	[0, 0, 0]	n/a	catFR1	1	R1016M
1168.342	1.6	612216	ORIENT	n/a	n/a	n/a	n/a	-999	9	[0, 0, 0]	n/a	catFR1	1	R1016M
1171.81	1.6	613949	WORD	n/a	wordpools/wordpool_categorized_EN.txt	MOTORCYCLE	Vehicles	1	9	[0, 0, 0]	n/a	catFR1	1	R1016M
1174.26	1.6	615174	WORD	n/a	wordpools/wordpool_categorized_EN.txt	TRUCK	Vehicles	2	9	[0, 0, 0]	n/a	catFR1	1	R1016M
1176.844	1.6	616466	WORD	n/a	wordpools/wordpool_categorized_EN.txt	CHAIR	Furniture	3	9	[0, 0, 0]	n/a	catFR1	1	R1016M
1179.461	1.6	617775	WORD	n/a	wordpools/wordpool_categorized_EN.txt	COUCH	Furniture	4	9	[0, 0, 0]	n/a	catFR1	1	R1016M
1181.895	1.6	618992	WORD	n/a	wordpools/wordpool_categorized_EN.txt	RADIO	Electronics	5	9	[0, 0, 0]	n/a	catFR1	1	R1016M
1184.295	1.6	620192	WORD	n/a	wordpools/wordpool_categorized_EN.txt	TABLET	Electronics	6	9	[0, 0, 0]	n/a	catFR1	1	R1016M
1186.796	1.6	621442	WORD	n/a	wordpools/wordpool_categorized_EN.txt	JEEP	Vehicles	7	9	[0, 0, 0]	n/a	catFR1	1	R1016M
1189.18	1.6	622634	WORD	n/a	wordpools/wordpool_categorized_EN.txt	TRAIN	Vehicles	8	9	[0, 0, 0]	n/a	catFR1	1	R1016M
1191.614	1.6	623851	WORD	n/a	wordpools/wordpool_categorized_EN.txt	PRINTER	Electronics	9	9	[0, 0, 0]	n/a	catFR1	1	R1016M
1194.181	1.6	625134	WORD	n/a	wordpools/wordpool_categorized_EN.txt	CALCULATOR	Electronics	10	9	[0, 0, 0]	n/a	catFR1	1	R1016M
1196.681	1.6	626384	WORD	n/a	wordpools/wordpool_categorized_EN.txt	DESK	Furniture	11	9	[0, 0, 0]	n/a	catFR1	1	R1016M
1199.215	1.6	627651	WORD	n/a	wordpools/wordpool_categorized_EN.txt	BOOKCASE	Furniture	12	9	[0, 0, 0]	n/a	catFR1	1	R1016M
1200.832	0.001	628460	DISTRACT_START	n/a	n/a	n/a	n/a	-999	9	[0, 0, 0]	n/a	catFR1	1	R1016M
1200.833	0.016	628460	START	n/a	n/a	n/a	n/a	-999	9	[-999, -999, -999]	n/a	catFR1	1	R1016M
1200.849	20.263	628468	PROB	20.263	n/a	n/a	n/a	-999	9	[9, 3, 4]	16.0	catFR1	1	R1016M
1221.112	0.008	638599	STOP	n/a	n/a	n/a	n/a	-999	9	[-999, -999, -999]	n/a	catFR1	1	R1016M
1221.12	1.05	638603	DISTRACT_END	n/a	n/a	n/a	n/a	-999	9	[0, 0, 0]	n/a	catFR1	1	R1016M
1222.17	1.32	639128	REC_START	n/a	n/a	n/a	n/a	-999	9	[0, 0, 0]	n/a	catFR1	1	R1016M
1223.49	10.935	639788	REC_WORD	1.32	n/a	BOOKCASE	Furniture	12	9	[0, 0, 0]	n/a	catFR1	1	R1016M
1234.425	9.11	645255	REC_WORD	12.255	n/a	DESK	Furniture	11	9	[0, 0, 0]	n/a	catFR1	1	R1016M
1243.535	2.317	649810	REC_WORD	21.365	n/a	TRACTOR	n/a	-999	9	[0, 0, 0]	n/a	catFR1	1	R1016M
1245.852	3.395	650968	REC_WORD	23.682	n/a	TRUCK	Vehicles	2	9	[0, 0, 0]	n/a	catFR1	1	R1016M
1249.247	2.933	652666	REC_WORD	27.077	n/a	JEEP	Vehicles	7	9	[0, 0, 0]	n/a	catFR1	1	R1016M
1252.18	130.154	654132	REC_END	n/a	n/a	n/a	n/a	-999	9	[0, 0, 0]	n/a	catFR1	1	R1016M
1382.334	0.0	719205	TRIAL	n/a	n/a	n/a	n/a	-999	10	[0, 0, 0]	n/a	catFR1	1	R1016M
1382.334	10.0	719205	COUNTDOWN_START	n/a	n/a	n/a	n/a	-999	10	[0, 0, 0]	n/a	catFR1	1	R1016M
1392.762	0.007	724419	COUNTDOWN_END	n/a	n/a	n/a	n/a	-999	10	[0, 0, 0]	n/a	catFR1	1	R1016M
1392.769	1.6	724423	ORIENT	n/a	n/a	n/a	n/a	-999	10	[0, 0, 0]	n/a	catFR1	1	R1016M
1396.387	1.6	726232	WORD	n/a	wordpools/wordpool_categorized_EN.txt	CYPRESS	Trees	1	10	[0, 0, 0]	n/a	catFR1	1	R1016M
1398.904	1.6	727490	WORD	n/a	wordpools/wordpool_categorized_EN.txt	BIRCH	Trees	2	10	[0, 0, 0]	n/a	catFR1	1	R1016M
1401.487	1.6	728781	WORD	n/a	wordpools/wordpool_categorized_EN.txt	WHALE	OceanAnimals	3	10	[0, 0, 0]	n/a	catFR1	1	R1016M
1403.921	1.6	729998	WORD	n/a	wordpools/wordpool_categorized_EN.txt	OCTOPUS	OceanAnimals	4	10	[0, 0, 0]	n/a	catFR1	1	R1016M
1406.522	1.6	731299	WORD	n/a	wordpools/wordpool_categorized_EN.txt	ROBIN	Birds	5	10	[0, 0, 0]	n/a	catFR1	1	R1016M
1409.123	1.6	732599	WORD	n/a	wordpools/wordpool_categorized_EN.txt	SPARROW	Birds	6	10	[0, 0, 0]	n/a	catFR1	1	R1016M
1411.64	1.6	733858	WORD	n/a	wordpools/wordpool_categorized_EN.txt	OYSTER	OceanAnimals	7	10	[0, 0, 0]	n/a	catFR1	1	R1016M
1414.141	1.6	735108	WORD	n/a	wordpools/wordpool_categorized_EN.txt	DOLPHIN	OceanAnimals	8	10	[0, 0, 0]	n/a	catFR1	1	R1016M
1416.607	1.6	736341	WORD	n/a	wordpools/wordpool_categorized_EN.txt	MAPLE	Trees	9	10	[0, 0, 0]	n/a	catFR1	1	R1016M
1419.025	1.6	737550	WORD	n/a	wordpools/wordpool_categorized_EN.txt	ELM	Trees	10	10	[0, 0, 0]	n/a	catFR1	1	R1016M
1421.641	1.6	738858	WORD	n/a	wordpools/wordpool_categorized_EN.txt	CARDINAL	Birds	11	10	[0, 0, 0]	n/a	catFR1	1	R1016M
1424.225	1.6	740150	WORD	n/a	wordpools/wordpool_categorized_EN.txt	FINCH	Birds	12	10	[0, 0, 0]	n/a	catFR1	1	R1016M
1425.842	0.001	740958	DISTRACT_START	n/a	n/a	n/a	n/a	-999	10	[0, 0, 0]	n/a	catFR1	1	R1016M
1425.843	0.016	740959	START	n/a	n/a	n/a	n/a	-999	10	[-999, -999, -999]	n/a	catFR1	1	R1016M
1425.859	15.271	740967	PROB	15.246	n/a	n/a	n/a	-999	10	[8, 9, 8]	20.0	catFR1	1	R1016M
1441.13	13.542	748602	PROB	13.542	n/a	n/a	n/a	-999	10	[4, 6, 4]	14.0	catFR1	1	R1016M
1454.672	0.009	755372	STOP	n/a	n/a	n/a	n/a	-999	10	[-999, -999, -999]	n/a	catFR1	1	R1016M
1454.681	1.035	755377	DISTRACT_END	n/a	n/a	n/a	n/a	-999	10	[0, 0, 0]	n/a	catFR1	1	R1016M
1455.716	5.346	755894	REC_START	n/a	n/a	n/a	n/a	-999	10	[0, 0, 0]	n/a	catFR1	1	R1016M
1461.062	7.589	758567	REC_WORD	5.346	n/a	OCTOPUS	OceanAnimals	4	10	[0, 0, 0]	n/a	catFR1	1	R1016M
1468.651	3.545	762361	REC_WORD	12.935	n/a	OSTRICH	n/a	-999	10	[0, 0, 0]	n/a	catFR1	1	R1016M
1472.196	3.155	764134	REC_WORD_VV	16.48	n/a	<>	n/a	-999	10	[0, 0, 0]	n/a	catFR1	1	R1016M
1475.351	9.258	765711	REC_WORD	19.635	n/a	JELLYFISH	n/a	-999	10	[0, 0, 0]	n/a	catFR1	1	R1016M
1484.609	1.119	770340	REC_WORD	28.893	n/a	SPARROW	Birds	6	10	[0, 0, 0]	n/a	catFR1	1	R1016M
1485.728	30.432	770900	REC_END	n/a	n/a	n/a	n/a	-999	10	[0, 0, 0]	n/a	catFR1	1	R1016M
1516.16	0.0	786115	TRIAL	n/a	n/a	n/a	n/a	-999	11	[0, 0, 0]	n/a	catFR1	1	R1016M
1516.16	10.0	786115	COUNTDOWN_START	n/a	n/a	n/a	n/a	-999	11	[0, 0, 0]	n/a	catFR1	1	R1016M
1526.588	0.007	791328	COUNTDOWN_END	n/a	n/a	n/a	n/a	-999	11	[0, 0, 0]	n/a	catFR1	1	R1016M
1526.595	1.6	791332	ORIENT	n/a	n/a	n/a	n/a	-999	11	[0, 0, 0]	n/a	catFR1	1	R1016M
1530.446	1.6	793257	WORD	n/a	wordpools/wordpool_categorized_EN.txt	SCOOTER	Vehicles	1	11	[0, 0, 0]	n/a	catFR1	1	R1016M
1532.846	1.6	794457	WORD	n/a	wordpools/wordpool_categorized_EN.txt	VAN	Vehicles	2	11	[0, 0, 0]	n/a	catFR1	1	R1016M
1535.363	1.6	795716	WORD	n/a	wordpools/wordpool_categorized_EN.txt	COFFEE	Beverages	3	11	[0, 0, 0]	n/a	catFR1	1	R1016M
1537.797	1.6	796933	WORD	n/a	wordpools/wordpool_categorized_EN.txt	LEMONADE	Beverages	4	11	[0, 0, 0]	n/a	catFR1	1	R1016M
1540.398	1.6	798233	WORD	n/a	wordpools/wordpool_categorized_EN.txt	LIGHTNING	Weather	5	11	[0, 0, 0]	n/a	catFR1	1	R1016M
1542.815	1.6	799441	WORD	n/a	wordpools/wordpool_categorized_EN.txt	TORNADO	Weather	6	11	[0, 0, 0]	n/a	catFR1	1	R1016M
1545.415	1.6	800741	WORD	n/a	wordpools/wordpool_categorized_EN.txt	MILK	Beverages	7	11	[0, 0, 0]	n/a	catFR1	1	R1016M
1548.017	1.6	802042	WORD	n/a	wordpools/wordpool_categorized_EN.txt	TEA	Beverages	8	11	[0, 0, 0]	n/a	catFR1	1	R1016M
1550.4	1.6	803234	WORD	n/a	wordpools/wordpool_categorized_EN.txt	MOPED	Vehicles	9	11	[0, 0, 0]	n/a	catFR1	1	R1016M
1552.85	1.6	804459	WORD	n/a	wordpools/wordpool_categorized_EN.txt	BUS	Vehicles	10	11	[0, 0, 0]	n/a	catFR1	1	R1016M
1555.267	1.6	805667	WORD	n/a	wordpools/wordpool_categorized_EN.txt	CLOUD	Weather	11	11	[0, 0, 0]	n/a	catFR1	1	R1016M
1557.685	1.6	806876	WORD	n/a	wordpools/wordpool_categorized_EN.txt	RAIN	Weather	12	11	[0, 0, 0]	n/a	catFR1	1	R1016M
1559.301	0.002	807684	DISTRACT_START	n/a	n/a	n/a	n/a	-999	11	[0, 0, 0]	n/a	catFR1	1	R1016M
1559.303	0.015	807685	START	n/a	n/a	n/a	n/a	-999	11	[-999, -999, -999]	n/a	catFR1	1	R1016M
1559.318	21.881	807692	PROB	21.881	n/a	n/a	n/a	-999	11	[4, 3, 6]	13.0	catFR1	1	R1016M
1581.199	0.007	818632	STOP	n/a	n/a	n/a	n/a	-999	11	[-999, -999, -999]	n/a	catFR1	1	R1016M
1581.206	1.117	818636	DISTRACT_END	n/a	n/a	n/a	n/a	-999	11	[0, 0, 0]	n/a	catFR1	1	R1016M
1582.323	2.629	819194	REC_START	n/a	n/a	n/a	n/a	-999	11	[0, 0, 0]	n/a	catFR1	1	R1016M
1584.952	1.715	820509	REC_WORD	2.629	n/a	CLOUD	Weather	11	11	[0, 0, 0]	n/a	catFR1	1	R1016M
1586.667	1.792	821366	REC_WORD	4.344	n/a	MOPED	Vehicles	9	11	[0, 0, 0]	n/a	catFR1	1	R1016M
1588.459	1.629	822262	REC_WORD	6.136	n/a	BUS	Vehicles	10	11	[0, 0, 0]	n/a	catFR1	1	R1016M
1590.088	1.616	823077	REC_WORD	7.765	n/a	RAIN	Weather	12	11	[0, 0, 0]	n/a	catFR1	1	R1016M
1591.704	2.653	823884	REC_WORD	9.381	n/a	TORNADO	Weather	6	11	[0, 0, 0]	n/a	catFR1	1	R1016M
1594.357	2.418	825211	REC_WORD	12.034	n/a	THUNDERSTORM	n/a	-999	11	[0, 0, 0]	n/a	catFR1	1	R1016M
1596.775	4.555	826420	REC_WORD	14.452	n/a	LIGHTNING	Weather	5	11	[0, 0, 0]	n/a	catFR1	1	R1016M
1601.33	1.632	828697	REC_WORD	19.007	n/a	LEMONADE	Beverages	4	11	[0, 0, 0]	n/a	catFR1	1	R1016M
1602.962	3.039	829513	REC_WORD	20.639	n/a	MILK	Beverages	7	11	[0, 0, 0]	n/a	catFR1	1	R1016M
1606.001	6.337	831033	REC_WORD	23.678	n/a	TEA	Beverages	8	11	[0, 0, 0]	n/a	catFR1	1	R1016M
1612.338	31.38	834201	REC_END	n/a	n/a	n/a	n/a	-999	11	[0, 0, 0]	n/a	catFR1	1	R1016M
1643.718	0.0	849890	TRIAL	n/a	n/a	n/a	n/a	-999	12	[0, 0, 0]	n/a	catFR1	1	R1016M
1643.718	10.0	849890	COUNTDOWN_START	n/a	n/a	n/a	n/a	-999	12	[0, 0, 0]	n/a	catFR1	1	R1016M
1654.146	0.024	855104	COUNTDOWN_END	n/a	n/a	n/a	n/a	-999	12	[0, 0, 0]	n/a	catFR1	1	R1016M
1654.17	1.6	855116	ORIENT	n/a	n/a	n/a	n/a	-999	12	[0, 0, 0]	n/a	catFR1	1	R1016M
1657.955	1.6	857008	WORD	n/a	wordpools/wordpool_categorized_EN.txt	ORANGE	Fruit	1	12	[0, 0, 0]	n/a	catFR1	1	R1016M
1660.471	1.6	858266	WORD	n/a	wordpools/wordpool_categorized_EN.txt	LEMON	Fruit	2	12	[0, 0, 0]	n/a	catFR1	1	R1016M
1662.989	1.6	859525	WORD	n/a	wordpools/wordpool_categorized_EN.txt	ROOF	Building	3	12	[0, 0, 0]	n/a	catFR1	1	R1016M
1665.472	1.6	860766	WORD	n/a	wordpools/wordpool_categorized_EN.txt	ATTIC	Building	4	12	[0, 0, 0]	n/a	catFR1	1	R1016M
1667.889	1.6	861975	WORD	n/a	wordpools/wordpool_categorized_EN.txt	ERASER	OfficeSupplies	5	12	[0, 0, 0]	n/a	catFR1	1	R1016M
1670.323	1.6	863192	WORD	n/a	wordpools/wordpool_categorized_EN.txt	MARKER	OfficeSupplies	6	12	[0, 0, 0]	n/a	catFR1	1	R1016M
1672.79	1.6	864425	WORD	n/a	wordpools/wordpool_categorized_EN.txt	LIME	Fruit	7	12	[0, 0, 0]	n/a	catFR1	1	R1016M
1675.391	1.6	865726	WORD	n/a	wordpools/wordpool_categorized_EN.txt	CHERRY	Fruit	8	12	[0, 0, 0]	n/a	catFR1	1	R1016M
1677.908	1.6	866984	WORD	n/a	wordpools/wordpool_categorized_EN.txt	NOTEBOOK	OfficeSupplies	9	12	[0, 0, 0]	n/a	catFR1	1	R1016M
1680.458	1.6	868259	WORD	n/a	wordpools/wordpool_categorized_EN.txt	RULER	OfficeSupplies	10	12	[0, 0, 0]	n/a	catFR1	1	R1016M
1682.96	1.6	869510	WORD	n/a	wordpools/wordpool_categorized_EN.txt	WALL	Building	11	12	[0, 0, 0]	n/a	catFR1	1	R1016M
1685.476	1.6	870768	WORD	n/a	wordpools/wordpool_categorized_EN.txt	DOOR	Building	12	12	[0, 0, 0]	n/a	catFR1	1	R1016M
1687.077	0.001	871568	DISTRACT_START	n/a	n/a	n/a	n/a	-999	12	[0, 0, 0]	n/a	catFR1	1	R1016M
1687.078	0.016	871569	START	n/a	n/a	n/a	n/a	-999	12	[-999, -999, -999]	n/a	catFR1	1	R1016M
1687.094	21.722	871577	PROB	21.722	n/a	n/a	n/a	-999	12	[7, 8, 1]	16.0	catFR1	1	R1016M
1708.816	0.014	882437	STOP	n/a	n/a	n/a	n/a	-999	12	[-999, -999, -999]	n/a	catFR1	1	R1016M
1708.83	1.034	882444	DISTRACT_END	n/a	n/a	n/a	n/a	-999	12	[0, 0, 0]	n/a	catFR1	1	R1016M
1709.864	2.906	882961	REC_START	n/a	n/a	n/a	n/a	-999	12	[0, 0, 0]	n/a	catFR1	1	R1016M
1712.77	1.279	884414	REC_WORD	2.906	n/a	ROOF	Building	3	12	[0, 0, 0]	n/a	catFR1	1	R1016M
1714.049	1.808	885053	REC_WORD	4.185	n/a	WALL	Building	11	12	[0, 0, 0]	n/a	catFR1	1	R1016M
1715.857	8.865	885957	REC_WORD	5.993	n/a	ERASER	OfficeSupplies	5	12	[0, 0, 0]	n/a	catFR1	1	R1016M
1724.722	6.711	890390	REC_WORD_VV	14.858	n/a	<>	n/a	-999	12	[0, 0, 0]	n/a	catFR1	1	R1016M
1731.433	6.923	893745	REC_WORD	21.569	n/a	MARKER	OfficeSupplies	6	12	[0, 0, 0]	n/a	catFR1	1	R1016M
1738.356	1.523	897206	REC_WORD	28.492	n/a	DOOR	Building	12	12	[0, 0, 0]	n/a	catFR1	1	R1016M
1739.879	13.111	897968	REC_END	n/a	n/a	n/a	n/a	-999	12	[0, 0, 0]	n/a	catFR1	1	R1016M
1752.99	10.0	904523	COUNTDOWN_START	n/a	n/a	n/a	n/a	-999	13	[0, 0, 0]	n/a	catFR1	1	R1016M
1752.99	10.428	904523	TRIAL	n/a	n/a	n/a	n/a	-999	13	[0, 0, 0]	n/a	catFR1	1	R1016M
1763.418	0.006	909737	COUNTDOWN_END	n/a	n/a	n/a	n/a	-999	13	[0, 0, 0]	n/a	catFR1	1	R1016M
1763.424	1.6	909740	ORIENT	n/a	n/a	n/a	n/a	-999	13	[0, 0, 0]	n/a	catFR1	1	R1016M
1767.292	1.6	911673	WORD	n/a	wordpools/wordpool_categorized_EN.txt	PLANKTON	OceanAnimals	1	13	[0, 0, 0]	n/a	catFR1	1	R1016M
1769.709	1.6	912882	WORD	n/a	wordpools/wordpool_categorized_EN.txt	JELLYFISH	OceanAnimals	2	13	[0, 0, 0]	n/a	catFR1	1	R1016M
1772.276	1.6	914165	WORD	n/a	wordpools/wordpool_categorized_EN.txt	FUDGE	Desserts	3	13	[0, 0, 0]	n/a	catFR1	1	R1016M
1774.877	1.6	915466	WORD	n/a	wordpools/wordpool_categorized_EN.txt	JELLO	Desserts	4	13	[0, 0, 0]	n/a	catFR1	1	R1016M
1777.461	1.6	916758	WORD	n/a	wordpools/wordpool_categorized_EN.txt	RECLINER	Furniture	5	13	[0, 0, 0]	n/a	catFR1	1	R1016M
1779.979	1.6	918017	WORD	n/a	wordpools/wordpool_categorized_EN.txt	TABLE	Furniture	6	13	[0, 0, 0]	n/a	catFR1	1	R1016M
1782.411	1.6	919233	WORD	n/a	wordpools/wordpool_categorized_EN.txt	TURTLE	OceanAnimals	7	13	[0, 0, 0]	n/a	catFR1	1	R1016M
1784.862	1.6	920458	WORD	n/a	wordpools/wordpool_categorized_EN.txt	SHRIMP	OceanAnimals	8	13	[0, 0, 0]	n/a	catFR1	1	R1016M
1787.329	1.6	921691	WORD	n/a	wordpools/wordpool_categorized_EN.txt	SOFA	Furniture	9	13	[0, 0, 0]	n/a	catFR1	1	R1016M
1789.763	1.6	922908	WORD	n/a	wordpools/wordpool_categorized_EN.txt	DRESSER	Furniture	10	13	[0, 0, 0]	n/a	catFR1	1	R1016M
1792.33	1.6	924192	WORD	n/a	wordpools/wordpool_categorized_EN.txt	MOUSSE	Desserts	11	13	[0, 0, 0]	n/a	catFR1	1	R1016M
1794.797	1.6	925425	WORD	n/a	wordpools/wordpool_categorized_EN.txt	PIE	Desserts	12	13	[0, 0, 0]	n/a	catFR1	1	R1016M
1796.414	0.001	926234	DISTRACT_START	n/a	n/a	n/a	n/a	-999	13	[0, 0, 0]	n/a	catFR1	1	R1016M
1796.415	0.016	926234	START	n/a	n/a	n/a	n/a	-999	13	[-999, -999, -999]	n/a	catFR1	1	R1016M
1796.431	22.473	926242	PROB	22.473	n/a	n/a	n/a	-999	13	[5, 2, 8]	15.0	catFR1	1	R1016M
1818.904	0.014	937478	STOP	n/a	n/a	n/a	n/a	-999	13	[-999, -999, -999]	n/a	catFR1	1	R1016M
1818.918	1.119	937485	DISTRACT_END	n/a	n/a	n/a	n/a	-999	13	[0, 0, 0]	n/a	catFR1	1	R1016M
1820.037	12.747	938044	REC_START	n/a	n/a	n/a	n/a	-999	13	[0, 0, 0]	n/a	catFR1	1	R1016M
1832.784	2.899	944418	REC_WORD	12.747	n/a	PIE	Desserts	12	13	[0, 0, 0]	n/a	catFR1	1	R1016M
1835.683	4.859	945867	REC_WORD	15.646	n/a	MOUSSE	Desserts	11	13	[0, 0, 0]	n/a	catFR1	1	R1016M
1840.542	8.96	948296	REC_WORD	20.505	n/a	HOUSE	n/a	-999	13	[0, 0, 0]	n/a	catFR1	1	R1016M
1849.502	0.547	952776	REC_WORD	29.465	n/a	DRYER	n/a	-999	13	[0, 0, 0]	n/a	catFR1	1	R1016M
1850.049	28.648	953050	REC_END	n/a	n/a	n/a	n/a	-999	13	[0, 0, 0]	n/a	catFR1	1	R1016M
1878.697	0.0	967373	TRIAL	n/a	n/a	n/a	n/a	-999	14	[0, 0, 0]	n/a	catFR1	1	R1016M
1878.697	10.0	967373	COUNTDOWN_START	n/a	n/a	n/a	n/a	-999	14	[0, 0, 0]	n/a	catFR1	1	R1016M
1889.125	0.008	972586	COUNTDOWN_END	n/a	n/a	n/a	n/a	-999	14	[0, 0, 0]	n/a	catFR1	1	R1016M
1889.133	1.6	972590	ORIENT	n/a	n/a	n/a	n/a	-999	14	[0, 0, 0]	n/a	catFR1	1	R1016M
1892.633	1.6	974340	WORD	n/a	wordpools/wordpool_categorized_EN.txt	CAKE	Desserts	1	14	[0, 0, 0]	n/a	catFR1	1	R1016M
1895.2	1.6	975624	WORD	n/a	wordpools/wordpool_categorized_EN.txt	COOKIE	Desserts	2	14	[0, 0, 0]	n/a	catFR1	1	R1016M
1897.684	1.6	976866	WORD	n/a	wordpools/wordpool_categorized_EN.txt	TRUMPET	Instruments	3	14	[0, 0, 0]	n/a	catFR1	1	R1016M
1900.085	1.6	978066	WORD	n/a	wordpools/wordpool_categorized_EN.txt	GUITAR	Instruments	4	14	[0, 0, 0]	n/a	catFR1	1	R1016M
1902.635	1.6	979341	WORD	n/a	wordpools/wordpool_categorized_EN.txt	BUTTERFLY	Insects	5	14	[0, 0, 0]	n/a	catFR1	1	R1016M
1905.252	1.6	980650	WORD	n/a	wordpools/wordpool_categorized_EN.txt	FLY	Insects	6	14	[0, 0, 0]	n/a	catFR1	1	R1016M
1907.719	1.6	981883	WORD	n/a	wordpools/wordpool_categorized_EN.txt	PASTRY	Desserts	7	14	[0, 0, 0]	n/a	catFR1	1	R1016M
1910.236	1.6	983141	WORD	n/a	wordpools/wordpool_categorized_EN.txt	COBBLER	Desserts	8	14	[0, 0, 0]	n/a	catFR1	1	R1016M
1912.72	1.6	984383	WORD	n/a	wordpools/wordpool_categorized_EN.txt	LADYBUG	Insects	9	14	[0, 0, 0]	n/a	catFR1	1	R1016M
1915.321	1.6	985684	WORD	n/a	wordpools/wordpool_categorized_EN.txt	BEE	Insects	10	14	[0, 0, 0]	n/a	catFR1	1	R1016M
1917.788	1.6	986917	WORD	n/a	wordpools/wordpool_categorized_EN.txt	PIANO	Instruments	11	14	[0, 0, 0]	n/a	catFR1	1	R1016M
1920.338	1.6	988192	WORD	n/a	wordpools/wordpool_categorized_EN.txt	BASS	Instruments	12	14	[0, 0, 0]	n/a	catFR1	1	R1016M
1921.939	0.001	988993	DISTRACT_START	n/a	n/a	n/a	n/a	-999	14	[0, 0, 0]	n/a	catFR1	1	R1016M
1921.94	0.016	988993	START	n/a	n/a	n/a	n/a	-999	14	[-999, -999, -999]	n/a	catFR1	1	R1016M
1921.956	14.802	989001	PROB	14.771	n/a	n/a	n/a	-999	14	[9, 7, 3]	19.0	catFR1	1	R1016M
1936.758	10.057	996402	PROB	10.057	n/a	n/a	n/a	-999	14	[9, 9, 9]	24.0	catFR1	1	R1016M
1946.815	0.011	1001430	STOP	n/a	n/a	n/a	n/a	-999	14	[-999, -999, -999]	n/a	catFR1	1	R1016M
1946.826	1.136	1001435	DISTRACT_END	n/a	n/a	n/a	n/a	-999	14	[0, 0, 0]	n/a	catFR1	1	R1016M
1947.962	2.112	1002003	REC_START	n/a	n/a	n/a	n/a	-999	14	[0, 0, 0]	n/a	catFR1	1	R1016M
1950.074	1.404	1003059	REC_WORD	2.112	n/a	LADYBUG	Insects	9	14	[0, 0, 0]	n/a	catFR1	1	R1016M
1951.478	1.42	1003761	REC_WORD	3.516	n/a	BEE	Insects	10	14	[0, 0, 0]	n/a	catFR1	1	R1016M
1952.898	2.171	1004471	REC_WORD	4.936	n/a	BASS	Instruments	12	14	[0, 0, 0]	n/a	catFR1	1	R1016M
1955.069	2.644	1005557	REC_WORD	7.107	n/a	PIANO	Instruments	11	14	[0, 0, 0]	n/a	catFR1	1	R1016M
1957.713	20.26	1006879	REC_WORD_VV	9.751	n/a	<>	n/a	-999	14	[0, 0, 0]	n/a	catFR1	1	R1016M
1977.973	16.28	1017008	REC_END	n/a	n/a	n/a	n/a	-999	14	[0, 0, 0]	n/a	catFR1	1	R1016M
1994.253	0.0	1025147	TRIAL	n/a	n/a	n/a	n/a	-999	15	[0, 0, 0]	n/a	catFR1	1	R1016M
1994.253	10.0	1025147	COUNTDOWN_START	n/a	n/a	n/a	n/a	-999	15	[0, 0, 0]	n/a	catFR1	1	R1016M
2004.681	0.007	1030361	COUNTDOWN_END	n/a	n/a	n/a	n/a	-999	15	[0, 0, 0]	n/a	catFR1	1	R1016M
2004.688	1.6	1030365	ORIENT	n/a	n/a	n/a	n/a	-999	15	[0, 0, 0]	n/a	catFR1	1	R1016M
2008.422	1.6	1032232	WORD	n/a	wordpools/wordpool_categorized_EN.txt	HAMMER	Tools	1	15	[0, 0, 0]	n/a	catFR1	1	R1016M
2010.906	1.6	1033473	WORD	n/a	wordpools/wordpool_categorized_EN.txt	AXE	Tools	2	15	[0, 0, 0]	n/a	catFR1	1	R1016M
2013.473	1.6	1034757	WORD	n/a	wordpools/wordpool_categorized_EN.txt	FRISBEE	Toys	3	15	[0, 0, 0]	n/a	catFR1	1	R1016M
2015.941	1.6	1035991	WORD	n/a	wordpools/wordpool_categorized_EN.txt	BALL	Toys	4	15	[0, 0, 0]	n/a	catFR1	1	R1016M
2018.391	1.6	1037216	WORD	n/a	wordpools/wordpool_categorized_EN.txt	BANJO	Instruments	5	15	[0, 0, 0]	n/a	catFR1	1	R1016M
2020.959	1.6	1038500	WORD	n/a	wordpools/wordpool_categorized_EN.txt	VIOLIN	Instruments	6	15	[0, 0, 0]	n/a	catFR1	1	R1016M
2023.558	1.6	1039799	WORD	n/a	wordpools/wordpool_categorized_EN.txt	SCREWDRIVER	Tools	7	15	[0, 0, 0]	n/a	catFR1	1	R1016M
2026.175	1.6	1041108	WORD	n/a	wordpools/wordpool_categorized_EN.txt	PLIERS	Tools	8	15	[0, 0, 0]	n/a	catFR1	1	R1016M
2028.793	1.6	1042416	WORD	n/a	wordpools/wordpool_categorized_EN.txt	CELLO	Instruments	9	15	[0, 0, 0]	n/a	catFR1	1	R1016M
2031.176	1.6	1043608	WORD	n/a	wordpools/wordpool_categorized_EN.txt	TROMBONE	Instruments	10	15	[0, 0, 0]	n/a	catFR1	1	R1016M
2033.793	1.6	1044916	WORD	n/a	wordpools/wordpool_categorized_EN.txt	BARBIE	Toys	11	15	[0, 0, 0]	n/a	catFR1	1	R1016M
2036.244	1.6	1046142	WORD	n/a	wordpools/wordpool_categorized_EN.txt	BASKETBALL	Toys	12	15	[0, 0, 0]	n/a	catFR1	1	R1016M
2037.861	0.001	1046950	DISTRACT_START	n/a	n/a	n/a	n/a	-999	15	[0, 0, 0]	n/a	catFR1	1	R1016M
2037.862	0.016	1046951	START	n/a	n/a	n/a	n/a	-999	15	[-999, -999, -999]	n/a	catFR1	1	R1016M
2037.878	12.019	1046959	PROB	11.986	n/a	n/a	n/a	-999	15	[5, 8, 3]	16.0	catFR1	1	R1016M
2049.897	14.695	1052968	PROB	14.695	n/a	n/a	n/a	-999	15	[9, 3, 5]	17.0	catFR1	1	R1016M
2064.592	0.007	1060315	STOP	n/a	n/a	n/a	n/a	-999	15	[-999, -999, -999]	n/a	catFR1	1	R1016M
2064.599	1.168	1060318	DISTRACT_END	n/a	n/a	n/a	n/a	-999	15	[0, 0, 0]	n/a	catFR1	1	R1016M
2065.767	2.788	1060902	REC_START	n/a	n/a	n/a	n/a	-999	15	[0, 0, 0]	n/a	catFR1	1	R1016M
2068.555	1.727	1062296	REC_WORD	2.788	n/a	BANJO	Instruments	5	15	[0, 0, 0]	n/a	catFR1	1	R1016M
2070.282	4.309	1063160	REC_WORD	4.515	n/a	SCREWDRIVER	Tools	7	15	[0, 0, 0]	n/a	catFR1	1	R1016M
2074.591	14.312	1065314	REC_WORD	8.824	n/a	SCREW	n/a	-999	15	[0, 0, 0]	n/a	catFR1	1	R1016M
2088.903	6.876	1072470	REC_WORD	23.136	n/a	GUITAR	n/a	-999	15	[0, 0, 0]	n/a	catFR1	1	R1016M
2095.779	65.589	1075908	REC_END	n/a	n/a	n/a	n/a	-999	15	[0, 0, 0]	n/a	catFR1	1	R1016M
2161.368	10.0	1108700	COUNTDOWN_START	n/a	n/a	n/a	n/a	-999	16	[0, 0, 0]	n/a	catFR1	1	R1016M
2161.369	10.427	1108701	TRIAL	n/a	n/a	n/a	n/a	-999	16	[0, 0, 0]	n/a	catFR1	1	R1016M
2171.796	0.008	1113914	COUNTDOWN_END	n/a	n/a	n/a	n/a	-999	16	[0, 0, 0]	n/a	catFR1	1	R1016M
2171.804	1.6	1113918	ORIENT	n/a	n/a	n/a	n/a	-999	16	[0, 0, 0]	n/a	catFR1	1	R1016M
2175.438	1.6	1115735	WORD	n/a	wordpools/wordpool_categorized_EN.txt	HALLWAY	Building	1	16	[0, 0, 0]	n/a	catFR1	1	R1016M
2177.989	1.6	1117010	WORD	n/a	wordpools/wordpool_categorized_EN.txt	ROOM	Building	2	16	[0, 0, 0]	n/a	catFR1	1	R1016M
2180.522	1.6	1118277	WORD	n/a	wordpools/wordpool_categorized_EN.txt	ZEBRA	Zoo	3	16	[0, 0, 0]	n/a	catFR1	1	R1016M
2183.024	1.6	1119528	WORD	n/a	wordpools/wordpool_categorized_EN.txt	GIRAFFE	Zoo	4	16	[0, 0, 0]	n/a	catFR1	1	R1016M
2185.64	1.6	1120836	WORD	n/a	wordpools/wordpool_categorized_EN.txt	FLUTE	Instruments	5	16	[0, 0, 0]	n/a	catFR1	1	R1016M
2188.058	1.6	1122044	WORD	n/a	wordpools/wordpool_categorized_EN.txt	TUBA	Instruments	6	16	[0, 0, 0]	n/a	catFR1	1	R1016M
2190.607	1.6	1123319	WORD	n/a	wordpools/wordpool_categorized_EN.txt	GORILLA	Zoo	7	16	[0, 0, 0]	n/a	catFR1	1	R1016M
2193.042	1.6	1124536	WORD	n/a	wordpools/wordpool_categorized_EN.txt	LION	Zoo	8	16	[0, 0, 0]	n/a	catFR1	1	R1016M
2195.458	1.6	1125744	WORD	n/a	wordpools/wordpool_categorized_EN.txt	BATHROOM	Building	9	16	[0, 0, 0]	n/a	catFR1	1	R1016M
2197.993	1.6	1127012	WORD	n/a	wordpools/wordpool_categorized_EN.txt	CEILING	Building	10	16	[0, 0, 0]	n/a	catFR1	1	R1016M
2200.543	1.6	1128287	WORD	n/a	wordpools/wordpool_categorized_EN.txt	ORGAN	Instruments	11	16	[0, 0, 0]	n/a	catFR1	1	R1016M
2203.011	1.6	1129521	WORD	n/a	wordpools/wordpool_categorized_EN.txt	DRUM	Instruments	12	16	[0, 0, 0]	n/a	catFR1	1	R1016M
2204.627	0.001	1130328	DISTRACT_START	n/a	n/a	n/a	n/a	-999	16	[0, 0, 0]	n/a	catFR1	1	R1016M
2204.628	0.015	1130329	START	n/a	n/a	n/a	n/a	-999	16	[-999, -999, -999]	n/a	catFR1	1	R1016M
2204.643	8.202	1130336	PROB	8.18	n/a	n/a	n/a	-999	16	[7, 2, 2]	11.0	catFR1	1	R1016M
2212.845	9.702	1134437	PROB	9.666	n/a	n/a	n/a	-999	16	[4, 1, 6]	11.0	catFR1	1	R1016M
2222.547	19.477	1139288	PROB	19.477	n/a	n/a	n/a	-999	16	[5, 2, 9]	16.0	catFR1	1	R1016M
2242.024	0.011	1149026	STOP	n/a	n/a	n/a	n/a	-999	16	[-999, -999, -999]	n/a	catFR1	1	R1016M
2242.035	1.2	1149031	DISTRACT_END	n/a	n/a	n/a	n/a	-999	16	[0, 0, 0]	n/a	catFR1	1	R1016M
2243.235	2.608	1149631	REC_START	n/a	n/a	n/a	n/a	-999	16	[0, 0, 0]	n/a	catFR1	1	R1016M
2245.843	1.475	1150935	REC_WORD	2.608	n/a	GORILLA	Zoo	7	16	[0, 0, 0]	n/a	catFR1	1	R1016M
2247.318	5.656	1151673	REC_WORD	4.083	n/a	GIRAFFE	Zoo	4	16	[0, 0, 0]	n/a	catFR1	1	R1016M
2252.974	0.937	1154501	REC_WORD_VV	9.739	n/a	<>	n/a	-999	16	[0, 0, 0]	n/a	catFR1	1	R1016M
2253.911	2.431	1154969	REC_WORD	10.676	n/a	LION	Zoo	8	16	[0, 0, 0]	n/a	catFR1	1	R1016M
2256.342	9.688	1156184	REC_WORD	13.107	n/a	ZEBRA	Zoo	3	16	[0, 0, 0]	n/a	catFR1	1	R1016M
2266.03	1.99	1161028	REC_WORD	22.795	n/a	ORGAN	Instruments	11	16	[0, 0, 0]	n/a	catFR1	1	R1016M
2268.02	5.225	1162023	REC_WORD	24.785	n/a	FLUTE	Instruments	5	16	[0, 0, 0]	n/a	catFR1	1	R1016M
2273.245	25.884	1164635	REC_END	n/a	n/a	n/a	n/a	-999	16	[0, 0, 0]	n/a	catFR1	1	R1016M
2299.129	10.0	1177577	COUNTDOWN_START	n/a	n/a	n/a	n/a	-999	17	[0, 0, 0]	n/a	catFR1	1	R1016M
2299.13	10.427	1177577	TRIAL	n/a	n/a	n/a	n/a	-999	17	[0, 0, 0]	n/a	catFR1	1	R1016M
2309.557	0.007	1182790	COUNTDOWN_END	n/a	n/a	n/a	n/a	-999	17	[0, 0, 0]	n/a	catFR1	1	R1016M
2309.564	1.6	1182794	ORIENT	n/a	n/a	n/a	n/a	-999	17	[0, 0, 0]	n/a	catFR1	1	R1016M
2313.315	1.6	1184669	WORD	n/a	wordpools/wordpool_categorized_EN.txt	SHEEP	FarmAnimals	1	17	[0, 0, 0]	n/a	catFR1	1	R1016M
2315.848	1.6	1185936	WORD	n/a	wordpools/wordpool_categorized_EN.txt	TURKEY	FarmAnimals	2	17	[0, 0, 0]	n/a	catFR1	1	R1016M
2318.332	1.6	1187178	WORD	n/a	wordpools/wordpool_categorized_EN.txt	MOSQUITO	Insects	3	17	[0, 0, 0]	n/a	catFR1	1	R1016M
2320.866	1.6	1188445	WORD	n/a	wordpools/wordpool_categorized_EN.txt	ANT	Insects	4	17	[0, 0, 0]	n/a	catFR1	1	R1016M
2323.383	1.6	1189703	WORD	n/a	wordpools/wordpool_categorized_EN.txt	HAND	BodyParts	5	17	[0, 0, 0]	n/a	catFR1	1	R1016M
2325.783	1.6	1190903	WORD	n/a	wordpools/wordpool_categorized_EN.txt	FOOT	BodyParts	6	17	[0, 0, 0]	n/a	catFR1	1	R1016M
2328.267	1.6	1192145	WORD	n/a	wordpools/wordpool_categorized_EN.txt	ROOSTER	FarmAnimals	7	17	[0, 0, 0]	n/a	catFR1	1	R1016M
2330.718	1.6	1193370	WORD	n/a	wordpools/wordpool_categorized_EN.txt	PIG	FarmAnimals	8	17	[0, 0, 0]	n/a	catFR1	1	R1016M
2333.136	1.6	1194579	WORD	n/a	wordpools/wordpool_categorized_EN.txt	HEAD	BodyParts	9	17	[0, 0, 0]	n/a	catFR1	1	R1016M
2335.736	1.6	1195879	WORD	n/a	wordpools/wordpool_categorized_EN.txt	NOSE	BodyParts	10	17	[0, 0, 0]	n/a	catFR1	1	R1016M
2338.12	1.6	1197071	WORD	n/a	wordpools/wordpool_categorized_EN.txt	GNAT	Insects	11	17	[0, 0, 0]	n/a	catFR1	1	R1016M
2340.67	1.6	1198346	WORD	n/a	wordpools/wordpool_categorized_EN.txt	CRICKET	Insects	12	17	[0, 0, 0]	n/a	catFR1	1	R1016M
2342.287	0.001	1199155	DISTRACT_START	n/a	n/a	n/a	n/a	-999	17	[0, 0, 0]	n/a	catFR1	1	R1016M
2342.288	0.015	1199155	START	n/a	n/a	n/a	n/a	-999	17	[-999, -999, -999]	n/a	catFR1	1	R1016M
2342.303	10.419	1199163	PROB	10.393	n/a	n/a	n/a	-999	17	[9, 1, 3]	13.0	catFR1	1	R1016M
2352.722	8.952	1204372	PROB	8.917	n/a	n/a	n/a	-999	17	[3, 5, 1]	9.0	catFR1	1	R1016M
2361.674	12.053	1208847	PROB	12.053	n/a	n/a	n/a	-999	17	[6, 8, 8]	22.0	catFR1	1	R1016M
2373.727	0.016	1214874	STOP	n/a	n/a	n/a	n/a	-999	17	[-999, -999, -999]	n/a	catFR1	1	R1016M
2373.743	1.202	1214882	DISTRACT_END	n/a	n/a	n/a	n/a	-999	17	[0, 0, 0]	n/a	catFR1	1	R1016M
2374.945	4.16	1215483	REC_START	n/a	n/a	n/a	n/a	-999	17	[0, 0, 0]	n/a	catFR1	1	R1016M
2379.105	3.526	1217562	REC_WORD	4.16	n/a	GNAT	Insects	11	17	[0, 0, 0]	n/a	catFR1	1	R1016M
2382.631	2.643	1219325	REC_WORD	7.686	n/a	NOSE	BodyParts	10	17	[0, 0, 0]	n/a	catFR1	1	R1016M
2385.274	2.598	1220647	REC_WORD	10.329	n/a	FOOT	BodyParts	6	17	[0, 0, 0]	n/a	catFR1	1	R1016M
2387.872	2.979	1221946	REC_WORD	12.927	n/a	EYE	n/a	-999	17	[0, 0, 0]	n/a	catFR1	1	R1016M
2390.851	1.96	1223435	REC_WORD	15.906	n/a	HEAD	BodyParts	9	17	[0, 0, 0]	n/a	catFR1	1	R1016M
2392.811	6.394	1224415	REC_WORD	17.866	n/a	HAND	BodyParts	5	17	[0, 0, 0]	n/a	catFR1	1	R1016M
2399.205	5.751	1227612	REC_WORD	24.26	n/a	ELEPHANT	n/a	-999	17	[0, 0, 0]	n/a	catFR1	1	R1016M
2404.956	18.33	1230487	REC_END	n/a	n/a	n/a	n/a	-999	17	[0, 0, 0]	n/a	catFR1	1	R1016M
2423.286	0.0	1239652	TRIAL	n/a	n/a	n/a	n/a	-999	18	[0, 0, 0]	n/a	catFR1	1	R1016M
2423.286	10.0	1239652	COUNTDOWN_START	n/a	n/a	n/a	n/a	-999	18	[0, 0, 0]	n/a	catFR1	1	R1016M
2433.714	0.007	1244865	COUNTDOWN_END	n/a	n/a	n/a	n/a	-999	18	[0, 0, 0]	n/a	catFR1	1	R1016M
2433.721	1.6	1244869	ORIENT	n/a	n/a	n/a	n/a	-999	18	[0, 0, 0]	n/a	catFR1	1	R1016M
2437.739	1.6	1246878	WORD	n/a	wordpools/wordpool_categorized_EN.txt	WRENCH	Tools	1	18	[0, 0, 0]	n/a	catFR1	1	R1016M
2440.306	1.6	1248161	WORD	n/a	wordpools/wordpool_categorized_EN.txt	SAW	Tools	2	18	[0, 0, 0]	n/a	catFR1	1	R1016M
2442.89	1.6	1249453	WORD	n/a	wordpools/wordpool_categorized_EN.txt	ISLAND	Landscapes	3	18	[0, 0, 0]	n/a	catFR1	1	R1016M
2445.39	1.6	1250703	WORD	n/a	wordpools/wordpool_categorized_EN.txt	BEACH	Landscapes	4	18	[0, 0, 0]	n/a	catFR1	1	R1016M
2447.925	1.6	1251971	WORD	n/a	wordpools/wordpool_categorized_EN.txt	BEER	Beverages	5	18	[0, 0, 0]	n/a	catFR1	1	R1016M
2450.541	1.6	1253278	WORD	n/a	wordpools/wordpool_categorized_EN.txt	WATER	Beverages	6	18	[0, 0, 0]	n/a	catFR1	1	R1016M
2452.976	1.6	1254496	WORD	n/a	wordpools/wordpool_categorized_EN.txt	CREEK	Landscapes	7	18	[0, 0, 0]	n/a	catFR1	1	R1016M
2455.392	1.6	1255704	WORD	n/a	wordpools/wordpool_categorized_EN.txt	STREAM	Landscapes	8	18	[0, 0, 0]	n/a	catFR1	1	R1016M
2457.893	1.6	1256954	WORD	n/a	wordpools/wordpool_categorized_EN.txt	SANDER	Tools	9	18	[0, 0, 0]	n/a	catFR1	1	R1016M
2460.443	1.6	1258229	WORD	n/a	wordpools/wordpool_categorized_EN.txt	DRILL	Tools	10	18	[0, 0, 0]	n/a	catFR1	1	R1016M
2463.045	1.6	1259530	WORD	n/a	wordpools/wordpool_categorized_EN.txt	WINE	Beverages	11	18	[0, 0, 0]	n/a	catFR1	1	R1016M
2465.594	1.6	1260805	WORD	n/a	wordpools/wordpool_categorized_EN.txt	RUM	Beverages	12	18	[0, 0, 0]	n/a	catFR1	1	R1016M
2467.211	0.001	1261613	DISTRACT_START	n/a	n/a	n/a	n/a	-999	18	[0, 0, 0]	n/a	catFR1	1	R1016M
2467.212	0.016	1261613	START	n/a	n/a	n/a	n/a	-999	18	[-999, -999, -999]	n/a	catFR1	1	R1016M
2467.228	11.669	1261621	PROB	11.644	n/a	n/a	n/a	-999	18	[1, 1, 2]	4.0	catFR1	1	R1016M
2478.897	9.047	1267456	PROB	9.047	n/a	n/a	n/a	-999	18	[8, 8, 7]	23.0	catFR1	1	R1016M
2487.944	0.005	1271979	STOP	n/a	n/a	n/a	n/a	-999	18	[-999, -999, -999]	n/a	catFR1	1	R1016M
2487.949	1.051	1271981	DISTRACT_END	n/a	n/a	n/a	n/a	-999	18	[0, 0, 0]	n/a	catFR1	1	R1016M
2489.0	1.05	1272507	REC_START	n/a	n/a	n/a	n/a	-999	18	[0, 0, 0]	n/a	catFR1	1	R1016M
2490.05	6.291	1273032	REC_WORD	1.05	n/a	CREEK	Landscapes	7	18	[0, 0, 0]	n/a	catFR1	1	R1016M
2496.341	2.509	1276177	REC_WORD_VV	7.341	n/a	<>	n/a	-999	18	[0, 0, 0]	n/a	catFR1	1	R1016M
2498.85	5.759	1277432	REC_WORD	9.85	n/a	SANDER	Tools	9	18	[0, 0, 0]	n/a	catFR1	1	R1016M
2504.609	4.388	1280311	REC_WORD	15.609	n/a	SAW	Tools	2	18	[0, 0, 0]	n/a	catFR1	1	R1016M
2508.997	10.015	1282505	REC_WORD	19.997	n/a	WRENCH	Tools	1	18	[0, 0, 0]	n/a	catFR1	1	R1016M
2519.012	11.711	1287512	REC_END	n/a	n/a	n/a	n/a	-999	18	[0, 0, 0]	n/a	catFR1	1	R1016M
2530.723	0.0	1293367	TRIAL	n/a	n/a	n/a	n/a	-999	19	[0, 0, 0]	n/a	catFR1	1	R1016M
2530.723	10.0	1293367	COUNTDOWN_START	n/a	n/a	n/a	n/a	-999	19	[0, 0, 0]	n/a	catFR1	1	R1016M
2541.151	0.008	1298581	COUNTDOWN_END	n/a	n/a	n/a	n/a	-999	19	[0, 0, 0]	n/a	catFR1	1	R1016M
2541.159	1.6	1298585	ORIENT	n/a	n/a	n/a	n/a	-999	19	[0, 0, 0]	n/a	catFR1	1	R1016M
2544.543	1.6	1300277	WORD	n/a	wordpools/wordpool_categorized_EN.txt	COAT	Clothing	1	19	[0, 0, 0]	n/a	catFR1	1	R1016M
2546.944	1.6	1301477	WORD	n/a	wordpools/wordpool_categorized_EN.txt	SHOES	Clothing	2	19	[0, 0, 0]	n/a	catFR1	1	R1016M
2549.344	1.6	1302677	WORD	n/a	wordpools/wordpool_categorized_EN.txt	PENCIL	OfficeSupplies	3	19	[0, 0, 0]	n/a	catFR1	1	R1016M
2551.878	1.6	1303944	WORD	n/a	wordpools/wordpool_categorized_EN.txt	PEN	OfficeSupplies	4	19	[0, 0, 0]	n/a	catFR1	1	R1016M
2554.411	1.6	1305210	WORD	n/a	wordpools/wordpool_categorized_EN.txt	BROCCOLI	Vegetables	5	19	[0, 0, 0]	n/a	catFR1	1	R1016M
2556.828	1.6	1306419	WORD	n/a	wordpools/wordpool_categorized_EN.txt	CABBAGE	Vegetables	6	19	[0, 0, 0]	n/a	catFR1	1	R1016M
2559.329	1.6	1307669	WORD	n/a	wordpools/wordpool_categorized_EN.txt	BLOUSE	Clothing	7	19	[0, 0, 0]	n/a	catFR1	1	R1016M
2561.729	1.6	1308869	WORD	n/a	wordpools/wordpool_categorized_EN.txt	JEANS	Clothing	8	19	[0, 0, 0]	n/a	catFR1	1	R1016M
2564.28	1.6	1310145	WORD	n/a	wordpools/wordpool_categorized_EN.txt	ONION	Vegetables	9	19	[0, 0, 0]	n/a	catFR1	1	R1016M
2566.847	1.6	1311428	WORD	n/a	wordpools/wordpool_categorized_EN.txt	LETTUCE	Vegetables	10	19	[0, 0, 0]	n/a	catFR1	1	R1016M
2569.264	1.6	1312637	WORD	n/a	wordpools/wordpool_categorized_EN.txt	BINDER	OfficeSupplies	11	19	[0, 0, 0]	n/a	catFR1	1	R1016M
2571.798	1.6	1313903	WORD	n/a	wordpools/wordpool_categorized_EN.txt	TAPE	OfficeSupplies	12	19	[0, 0, 0]	n/a	catFR1	1	R1016M
2573.415	0.001	1314712	DISTRACT_START	n/a	n/a	n/a	n/a	-999	19	[0, 0, 0]	n/a	catFR1	1	R1016M
2573.416	0.016	1314712	START	n/a	n/a	n/a	n/a	-999	19	[-999, -999, -999]	n/a	catFR1	1	R1016M
2573.432	9.503	1314720	PROB	9.472	n/a	n/a	n/a	-999	19	[5, 2, 4]	11.0	catFR1	1	R1016M
2582.935	12.728	1319472	PROB	12.728	n/a	n/a	n/a	-999	19	[3, 3, 4]	10.0	catFR1	1	R1016M
2595.663	0.006	1325835	STOP	n/a	n/a	n/a	n/a	-999	19	[-999, -999, -999]	n/a	catFR1	1	R1016M
2595.669	1.052	1325838	DISTRACT_END	n/a	n/a	n/a	n/a	-999	19	[0, 0, 0]	n/a	catFR1	1	R1016M
2596.721	1.528	1326364	REC_START	n/a	n/a	n/a	n/a	-999	19	[0, 0, 0]	n/a	catFR1	1	R1016M
2598.249	28.482	1327128	REC_WORD	1.528	n/a	BLOUSE	Clothing	7	19	[0, 0, 0]	n/a	catFR1	1	R1016M
2626.731	49.205	1341368	REC_END	n/a	n/a	n/a	n/a	-999	19	[0, 0, 0]	n/a	catFR1	1	R1016M
2675.936	0.0	1365969	TRIAL	n/a	n/a	n/a	n/a	-999	20	[0, 0, 0]	n/a	catFR1	1	R1016M
2675.936	10.0	1365969	COUNTDOWN_START	n/a	n/a	n/a	n/a	-999	20	[0, 0, 0]	n/a	catFR1	1	R1016M
2686.364	0.006	1371183	COUNTDOWN_END	n/a	n/a	n/a	n/a	-999	20	[0, 0, 0]	n/a	catFR1	1	R1016M
2686.37	1.6	1371186	ORIENT	n/a	n/a	n/a	n/a	-999	20	[0, 0, 0]	n/a	catFR1	1	R1016M
2690.039	1.6	1373021	WORD	n/a	wordpools/wordpool_categorized_EN.txt	TOASTER	Appliances	1	20	[0, 0, 0]	n/a	catFR1	1	R1016M
2692.588	1.6	1374295	WORD	n/a	wordpools/wordpool_categorized_EN.txt	BLENDER	Appliances	2	20	[0, 0, 0]	n/a	catFR1	1	R1016M
2695.205	1.6	1375603	WORD	n/a	wordpools/wordpool_categorized_EN.txt	SPRUCE	Trees	3	20	[0, 0, 0]	n/a	catFR1	1	R1016M
2697.706	1.6	1376854	WORD	n/a	wordpools/wordpool_categorized_EN.txt	WALNUT	Trees	4	20	[0, 0, 0]	n/a	catFR1	1	R1016M
2700.19	1.6	1378096	WORD	n/a	wordpools/wordpool_categorized_EN.txt	CUPCAKE	Desserts	5	20	[0, 0, 0]	n/a	catFR1	1	R1016M
2702.69	1.6	1379346	WORD	n/a	wordpools/wordpool_categorized_EN.txt	BROWNIES	Desserts	6	20	[0, 0, 0]	n/a	catFR1	1	R1016M
2705.241	1.6	1380621	WORD	n/a	wordpools/wordpool_categorized_EN.txt	VACUUM	Appliances	7	20	[0, 0, 0]	n/a	catFR1	1	R1016M
2707.791	1.6	1381896	WORD	n/a	wordpools/wordpool_categorized_EN.txt	WASHER	Appliances	8	20	[0, 0, 0]	n/a	catFR1	1	R1016M
2710.208	1.6	1383105	WORD	n/a	wordpools/wordpool_categorized_EN.txt	PUDDING	Desserts	9	20	[0, 0, 0]	n/a	catFR1	1	R1016M
2712.675	1.6	1384338	WORD	n/a	wordpools/wordpool_categorized_EN.txt	CHEESECAKE	Desserts	10	20	[0, 0, 0]	n/a	catFR1	1	R1016M
2715.11	1.6	1385555	WORD	n/a	wordpools/wordpool_categorized_EN.txt	WILLOW	Trees	11	20	[0, 0, 0]	n/a	catFR1	1	R1016M
2717.493	1.6	1386747	WORD	n/a	wordpools/wordpool_categorized_EN.txt	OAK	Trees	12	20	[0, 0, 0]	n/a	catFR1	1	R1016M
2719.094	0.001	1387547	DISTRACT_START	n/a	n/a	n/a	n/a	-999	20	[0, 0, 0]	n/a	catFR1	1	R1016M
2719.095	0.016	1387548	START	n/a	n/a	n/a	n/a	-999	20	[-999, -999, -999]	n/a	catFR1	1	R1016M
2719.111	27.537	1387556	PROB	27.537	n/a	n/a	n/a	-999	20	[9, 6, 7]	23.0	catFR1	1	R1016M
2746.648	0.017	1401323	STOP	n/a	n/a	n/a	n/a	-999	20	[-999, -999, -999]	n/a	catFR1	1	R1016M
2746.665	1.168	1401332	DISTRACT_END	n/a	n/a	n/a	n/a	-999	20	[0, 0, 0]	n/a	catFR1	1	R1016M
2747.833	2.646	1401916	REC_START	n/a	n/a	n/a	n/a	-999	20	[0, 0, 0]	n/a	catFR1	1	R1016M
2750.479	0.956	1403239	REC_WORD	2.646	n/a	SPRUCE	Trees	3	20	[0, 0, 0]	n/a	catFR1	1	R1016M
2751.435	0.936	1403717	REC_WORD	3.602	n/a	PINETREE	n/a	-999	20	[0, 0, 0]	n/a	catFR1	1	R1016M
2752.371	1.324	1404185	REC_WORD	4.538	n/a	OAK	Trees	12	20	[0, 0, 0]	n/a	catFR1	1	R1016M
2753.695	2.113	1404847	REC_WORD	5.862	n/a	WILLOW	Trees	11	20	[0, 0, 0]	n/a	catFR1	1	R1016M
2755.808	20.391	1405903	REC_WORD_VV	7.975	n/a	<>	n/a	-999	20	[0, 0, 0]	n/a	catFR1	1	R1016M
2776.199	1.645	1416098	REC_WORD	28.366	n/a	MAPLE	n/a	-999	20	[0, 0, 0]	n/a	catFR1	1	R1016M
2777.844	9.963	1416921	REC_END	n/a	n/a	n/a	n/a	-999	20	[0, 0, 0]	n/a	catFR1	1	R1016M
2787.807	0.0	1421902	TRIAL	n/a	n/a	n/a	n/a	-999	21	[0, 0, 0]	n/a	catFR1	1	R1016M
2787.807	10.0	1421902	COUNTDOWN_START	n/a	n/a	n/a	n/a	-999	21	[0, 0, 0]	n/a	catFR1	1	R1016M
2798.235	0.007	1427115	COUNTDOWN_END	n/a	n/a	n/a	n/a	-999	21	[0, 0, 0]	n/a	catFR1	1	R1016M
2798.242	1.6	1427119	ORIENT	n/a	n/a	n/a	n/a	-999	21	[0, 0, 0]	n/a	catFR1	1	R1016M
2801.944	1.6	1428970	WORD	n/a	wordpools/wordpool_categorized_EN.txt	GRATER	KitchenTools	1	21	[0, 0, 0]	n/a	catFR1	1	R1016M
2804.427	1.6	1430211	WORD	n/a	wordpools/wordpool_categorized_EN.txt	STRAINER	KitchenTools	2	21	[0, 0, 0]	n/a	catFR1	1	R1016M
2806.844	1.6	1431420	WORD	n/a	wordpools/wordpool_categorized_EN.txt	SHIRT	Clothing	3	21	[0, 0, 0]	n/a	catFR1	1	R1016M
2809.328	1.6	1432662	WORD	n/a	wordpools/wordpool_categorized_EN.txt	PANTS	Clothing	4	21	[0, 0, 0]	n/a	catFR1	1	R1016M
2811.828	1.6	1433912	WORD	n/a	wordpools/wordpool_categorized_EN.txt	MOTH	Insects	5	21	[0, 0, 0]	n/a	catFR1	1	R1016M
2814.429	1.6	1435212	WORD	n/a	wordpools/wordpool_categorized_EN.txt	ROACH	Insects	6	21	[0, 0, 0]	n/a	catFR1	1	R1016M
2816.846	1.6	1436420	WORD	n/a	wordpools/wordpool_categorized_EN.txt	SOCKS	Clothing	7	21	[0, 0, 0]	n/a	catFR1	1	R1016M
2819.379	1.6	1437687	WORD	n/a	wordpools/wordpool_categorized_EN.txt	UNDERWEAR	Clothing	8	21	[0, 0, 0]	n/a	catFR1	1	R1016M
2821.948	1.6	1438971	WORD	n/a	wordpools/wordpool_categorized_EN.txt	SPATULA	KitchenTools	9	21	[0, 0, 0]	n/a	catFR1	1	R1016M
2824.397	1.6	1440196	WORD	n/a	wordpools/wordpool_categorized_EN.txt	FORK	KitchenTools	10	21	[0, 0, 0]	n/a	catFR1	1	R1016M
2826.999	1.6	1441497	WORD	n/a	wordpools/wordpool_categorized_EN.txt	BEETLE	Insects	11	21	[0, 0, 0]	n/a	catFR1	1	R1016M
2829.565	1.6	1442780	WORD	n/a	wordpools/wordpool_categorized_EN.txt	SPIDER	Insects	12	21	[0, 0, 0]	n/a	catFR1	1	R1016M
2831.182	0.001	1443588	DISTRACT_START	n/a	n/a	n/a	n/a	-999	21	[0, 0, 0]	n/a	catFR1	1	R1016M
2831.183	0.015	1443589	START	n/a	n/a	n/a	n/a	-999	21	[-999, -999, -999]	n/a	catFR1	1	R1016M
2831.198	22.554	1443596	PROB	22.554	n/a	n/a	n/a	-999	21	[1, 5, 7]	13.0	catFR1	1	R1016M
2853.752	0.017	1454872	STOP	n/a	n/a	n/a	n/a	-999	21	[-999, -999, -999]	n/a	catFR1	1	R1016M
2853.769	1.202	1454881	DISTRACT_END	n/a	n/a	n/a	n/a	-999	21	[0, 0, 0]	n/a	catFR1	1	R1016M
2854.971	2.192	1455482	REC_START	n/a	n/a	n/a	n/a	-999	21	[0, 0, 0]	n/a	catFR1	1	R1016M
2857.163	6.847	1456578	REC_WORD	2.192	n/a	MOTH	Insects	5	21	[0, 0, 0]	n/a	catFR1	1	R1016M
2864.01	20.976	1460001	REC_WORD	9.039	n/a	ROACH	Insects	6	21	[0, 0, 0]	n/a	catFR1	1	R1016M
2884.986	7.142	1470489	REC_END	n/a	n/a	n/a	n/a	-999	21	[0, 0, 0]	n/a	catFR1	1	R1016M
2892.128	0.0	1474059	TRIAL	n/a	n/a	n/a	n/a	-999	22	[0, 0, 0]	n/a	catFR1	1	R1016M
2892.128	10.0	1474059	COUNTDOWN_START	n/a	n/a	n/a	n/a	-999	22	[0, 0, 0]	n/a	catFR1	1	R1016M
2902.556	0.006	1479273	COUNTDOWN_END	n/a	n/a	n/a	n/a	-999	22	[0, 0, 0]	n/a	catFR1	1	R1016M
2902.562	1.6	1479276	ORIENT	n/a	n/a	n/a	n/a	-999	22	[0, 0, 0]	n/a	catFR1	1	R1016M
2906.031	1.6	1481010	WORD	n/a	wordpools/wordpool_categorized_EN.txt	BASEBALL	Toys	1	22	[0, 0, 0]	n/a	catFR1	1	R1016M
2908.497	1.6	1482243	WORD	n/a	wordpools/wordpool_categorized_EN.txt	DOLLHOUSE	Toys	2	22	[0, 0, 0]	n/a	catFR1	1	R1016M
2910.881	1.6	1483435	WORD	n/a	wordpools/wordpool_categorized_EN.txt	COW	FarmAnimals	3	22	[0, 0, 0]	n/a	catFR1	1	R1016M
2913.264	1.6	1484627	WORD	n/a	wordpools/wordpool_categorized_EN.txt	BULL	FarmAnimals	4	22	[0, 0, 0]	n/a	catFR1	1	R1016M
2915.815	1.6	1485902	WORD	n/a	wordpools/wordpool_categorized_EN.txt	SPEAKER	Electronics	5	22	[0, 0, 0]	n/a	catFR1	1	R1016M
2918.199	1.6	1487094	WORD	n/a	wordpools/wordpool_categorized_EN.txt	PHONE	Electronics	6	22	[0, 0, 0]	n/a	catFR1	1	R1016M
2920.666	1.6	1488327	WORD	n/a	wordpools/wordpool_categorized_EN.txt	LAMB	FarmAnimals	7	22	[0, 0, 0]	n/a	catFR1	1	R1016M
2923.25	1.6	1489619	WORD	n/a	wordpools/wordpool_categorized_EN.txt	CALF	FarmAnimals	8	22	[0, 0, 0]	n/a	catFR1	1	R1016M
2925.817	1.6	1490903	WORD	n/a	wordpools/wordpool_categorized_EN.txt	SLINKY	Toys	9	22	[0, 0, 0]	n/a	catFR1	1	R1016M
2928.317	1.6	1492153	WORD	n/a	wordpools/wordpool_categorized_EN.txt	FOOTBALL	Toys	10	22	[0, 0, 0]	n/a	catFR1	1	R1016M
2930.851	1.6	1493420	WORD	n/a	wordpools/wordpool_categorized_EN.txt	STEREO	Electronics	11	22	[0, 0, 0]	n/a	catFR1	1	R1016M
2933.452	1.6	1494720	WORD	n/a	wordpools/wordpool_categorized_EN.txt	HEADPHONES	Electronics	12	22	[0, 0, 0]	n/a	catFR1	1	R1016M
2935.07	0.001	1495529	DISTRACT_START	n/a	n/a	n/a	n/a	-999	22	[0, 0, 0]	n/a	catFR1	1	R1016M
2935.071	0.015	1495530	START	n/a	n/a	n/a	n/a	-999	22	[-999, -999, -999]	n/a	catFR1	1	R1016M
2935.086	22.074	1495537	PROB	22.074	n/a	n/a	n/a	-999	22	[8, 1, 4]	13.0	catFR1	1	R1016M
2957.16	0.013	1506573	STOP	n/a	n/a	n/a	n/a	-999	22	[-999, -999, -999]	n/a	catFR1	1	R1016M
2957.173	1.051	1506580	DISTRACT_END	n/a	n/a	n/a	n/a	-999	22	[0, 0, 0]	n/a	catFR1	1	R1016M
2958.224	3.259	1507105	REC_START	n/a	n/a	n/a	n/a	-999	22	[0, 0, 0]	n/a	catFR1	1	R1016M
2961.483	8.849	1508735	REC_WORD	3.259	n/a	BASKETBALL	n/a	-999	22	[0, 0, 0]	n/a	catFR1	1	R1016M
2970.332	14.151	1513159	REC_WORD	12.108	n/a	FOOTBALL	Toys	10	22	[0, 0, 0]	n/a	catFR1	1	R1016M
2984.483	3.752	1520234	REC_WORD	26.259	n/a	BASEBALL	Toys	1	22	[0, 0, 0]	n/a	catFR1	1	R1016M
2988.235	13.63	1522110	REC_END	n/a	n/a	n/a	n/a	-999	22	[0, 0, 0]	n/a	catFR1	1	R1016M
3001.865	0.0	1528925	TRIAL	n/a	n/a	n/a	n/a	-999	23	[0, 0, 0]	n/a	catFR1	1	R1016M
3001.865	10.0	1528925	COUNTDOWN_START	n/a	n/a	n/a	n/a	-999	23	[0, 0, 0]	n/a	catFR1	1	R1016M
3012.293	0.007	1534138	COUNTDOWN_END	n/a	n/a	n/a	n/a	-999	23	[0, 0, 0]	n/a	catFR1	1	R1016M
3012.3	1.6	1534142	ORIENT	n/a	n/a	n/a	n/a	-999	23	[0, 0, 0]	n/a	catFR1	1	R1016M
3015.784	1.6	1535884	WORD	n/a	wordpools/wordpool_categorized_EN.txt	MONKEY	Zoo	1	23	[0, 0, 0]	n/a	catFR1	1	R1016M
3018.368	1.6	1537176	WORD	n/a	wordpools/wordpool_categorized_EN.txt	CHEETAH	Zoo	2	23	[0, 0, 0]	n/a	catFR1	1	R1016M
3020.902	1.6	1538443	WORD	n/a	wordpools/wordpool_categorized_EN.txt	CAR	Vehicles	3	23	[0, 0, 0]	n/a	catFR1	1	R1016M
3023.436	1.6	1539710	WORD	n/a	wordpools/wordpool_categorized_EN.txt	BIKE	Vehicles	4	23	[0, 0, 0]	n/a	catFR1	1	R1016M
3025.937	1.6	1540960	WORD	n/a	wordpools/wordpool_categorized_EN.txt	HILLS	Landscapes	5	23	[0, 0, 0]	n/a	catFR1	1	R1016M
3028.453	1.6	1542218	WORD	n/a	wordpools/wordpool_categorized_EN.txt	RIVER	Landscapes	6	23	[0, 0, 0]	n/a	catFR1	1	R1016M
3030.921	1.6	1543452	WORD	n/a	wordpools/wordpool_categorized_EN.txt	TIGER	Zoo	7	23	[0, 0, 0]	n/a	catFR1	1	R1016M
3033.304	1.6	1544643	WORD	n/a	wordpools/wordpool_categorized_EN.txt	PANDA	Zoo	8	23	[0, 0, 0]	n/a	catFR1	1	R1016M
3035.738	1.6	1545860	WORD	n/a	wordpools/wordpool_categorized_EN.txt	LAKE	Landscapes	9	23	[0, 0, 0]	n/a	catFR1	1	R1016M
3038.155	1.6	1547069	WORD	n/a	wordpools/wordpool_categorized_EN.txt	VALLEY	Landscapes	10	23	[0, 0, 0]	n/a	catFR1	1	R1016M
3040.556	1.6	1548269	WORD	n/a	wordpools/wordpool_categorized_EN.txt	PLANE	Vehicles	11	23	[0, 0, 0]	n/a	catFR1	1	R1016M
3043.124	1.6	1549553	WORD	n/a	wordpools/wordpool_categorized_EN.txt	BOAT	Vehicles	12	23	[0, 0, 0]	n/a	catFR1	1	R1016M
3044.74	0.001	1550361	DISTRACT_START	n/a	n/a	n/a	n/a	-999	23	[0, 0, 0]	n/a	catFR1	1	R1016M
3044.741	0.016	1550361	START	n/a	n/a	n/a	n/a	-999	23	[-999, -999, -999]	n/a	catFR1	1	R1016M
3044.757	29.267	1550369	PROB	29.267	n/a	n/a	n/a	-999	23	[2, 2, 3]	7.0	catFR1	1	R1016M
3074.024	0.006	1565002	STOP	n/a	n/a	n/a	n/a	-999	23	[-999, -999, -999]	n/a	catFR1	1	R1016M
3074.03	1.034	1565005	DISTRACT_END	n/a	n/a	n/a	n/a	-999	23	[0, 0, 0]	n/a	catFR1	1	R1016M
3075.064	1.505	1565522	REC_START	n/a	n/a	n/a	n/a	-999	23	[0, 0, 0]	n/a	catFR1	1	R1016M
3076.569	1.401	1566275	REC_WORD	1.505	n/a	TIGER	Zoo	7	23	[0, 0, 0]	n/a	catFR1	1	R1016M
3077.97	2.434	1566975	REC_WORD	2.906	n/a	RIVER	Landscapes	6	23	[0, 0, 0]	n/a	catFR1	1	R1016M
3080.404	2.14	1568192	REC_WORD	5.34	n/a	PANDA	Zoo	8	23	[0, 0, 0]	n/a	catFR1	1	R1016M
3082.544	22.529	1569262	REC_WORD	7.48	n/a	LAKE	Landscapes	9	23	[0, 0, 0]	n/a	catFR1	1	R1016M
3105.073	11.949	1580526	REC_END	n/a	n/a	n/a	n/a	-999	23	[0, 0, 0]	n/a	catFR1	1	R1016M
3117.022	10.0	1586500	COUNTDOWN_START	n/a	n/a	n/a	n/a	-999	24	[0, 0, 0]	n/a	catFR1	1	R1016M
3117.022	10.428	1586500	TRIAL	n/a	n/a	n/a	n/a	-999	24	[0, 0, 0]	n/a	catFR1	1	R1016M
3127.45	0.006	1591714	COUNTDOWN_END	n/a	n/a	n/a	n/a	-999	24	[0, 0, 0]	n/a	catFR1	1	R1016M
3127.456	1.6	1591717	ORIENT	n/a	n/a	n/a	n/a	-999	24	[0, 0, 0]	n/a	catFR1	1	R1016M
3130.924	1.6	1593450	WORD	n/a	wordpools/wordpool_categorized_EN.txt	LILY	Flowers	1	24	[0, 0, 0]	n/a	catFR1	1	R1016M
3133.357	1.6	1594667	WORD	n/a	wordpools/wordpool_categorized_EN.txt	DAFFODIL	Flowers	2	24	[0, 0, 0]	n/a	catFR1	1	R1016M
3135.824	1.6	1595900	WORD	n/a	wordpools/wordpool_categorized_EN.txt	TELEVISION	Electronics	3	24	[0, 0, 0]	n/a	catFR1	1	R1016M
3138.375	1.6	1597176	WORD	n/a	wordpools/wordpool_categorized_EN.txt	COMPUTER	Electronics	4	24	[0, 0, 0]	n/a	catFR1	1	R1016M
3140.859	1.6	1598418	WORD	n/a	wordpools/wordpool_categorized_EN.txt	CRAB	OceanAnimals	5	24	[0, 0, 0]	n/a	catFR1	1	R1016M
3143.259	1.6	1599618	WORD	n/a	wordpools/wordpool_categorized_EN.txt	LOBSTER	OceanAnimals	6	24	[0, 0, 0]	n/a	catFR1	1	R1016M
3145.66	1.6	1600818	WORD	n/a	wordpools/wordpool_categorized_EN.txt	VIOLET	Flowers	7	24	[0, 0, 0]	n/a	catFR1	1	R1016M
3148.128	1.6	1602052	WORD	n/a	wordpools/wordpool_categorized_EN.txt	CARNATION	Flowers	8	24	[0, 0, 0]	n/a	catFR1	1	R1016M
3150.594	1.6	1603285	WORD	n/a	wordpools/wordpool_categorized_EN.txt	SQUID	OceanAnimals	9	24	[0, 0, 0]	n/a	catFR1	1	R1016M
3153.145	1.6	1604560	WORD	n/a	wordpools/wordpool_categorized_EN.txt	FISH	OceanAnimals	10	24	[0, 0, 0]	n/a	catFR1	1	R1016M
3155.578	1.6	1605777	WORD	n/a	wordpools/wordpool_categorized_EN.txt	SCANNER	Electronics	11	24	[0, 0, 0]	n/a	catFR1	1	R1016M
3157.963	1.6	1606969	WORD	n/a	wordpools/wordpool_categorized_EN.txt	MICROWAVE	Electronics	12	24	[0, 0, 0]	n/a	catFR1	1	R1016M
3159.579	0.001	1607777	DISTRACT_START	n/a	n/a	n/a	n/a	-999	24	[0, 0, 0]	n/a	catFR1	1	R1016M
3159.58	0.016	1607778	START	n/a	n/a	n/a	n/a	-999	24	[-999, -999, -999]	n/a	catFR1	1	R1016M
3159.596	22.396	1607786	PROB	22.396	n/a	n/a	n/a	-999	24	[8, 4, 4]	16.0	catFR1	1	R1016M
3181.992	0.009	1618983	STOP	n/a	n/a	n/a	n/a	-999	24	[-999, -999, -999]	n/a	catFR1	1	R1016M
3182.001	1.217	1618988	DISTRACT_END	n/a	n/a	n/a	n/a	-999	24	[0, 0, 0]	n/a	catFR1	1	R1016M
3183.218	3.333	1619596	REC_START	n/a	n/a	n/a	n/a	-999	24	[0, 0, 0]	n/a	catFR1	1	R1016M
3186.551	1.362	1621262	REC_WORD	3.333	n/a	TELEVISION	Electronics	3	24	[0, 0, 0]	n/a	catFR1	1	R1016M
3187.913	3.095	1621943	REC_WORD	4.695	n/a	COMPUTER	Electronics	4	24	[0, 0, 0]	n/a	catFR1	1	R1016M
3191.008	5.781	1623491	REC_WORD	7.79	n/a	CALCULATOR	n/a	-999	24	[0, 0, 0]	n/a	catFR1	1	R1016M
3196.789	3.937	1626381	REC_WORD	13.571	n/a	MICROWAVE	Electronics	12	24	[0, 0, 0]	n/a	catFR1	1	R1016M
3200.726	3.979	1628349	REC_WORD	17.508	n/a	LILAC	n/a	-999	24	[0, 0, 0]	n/a	catFR1	1	R1016M
3204.705	6.05	1630339	REC_WORD	21.487	n/a	LILY	Flowers	1	24	[0, 0, 0]	n/a	catFR1	1	R1016M
3210.755	2.474	1633364	REC_WORD	27.537	n/a	GRATER	n/a	-999	24	[0, 0, 0]	n/a	catFR1	1	R1016M
3213.229	11.462	1634601	REC_END	n/a	n/a	n/a	n/a	-999	24	[0, 0, 0]	n/a	catFR1	1	R1016M
3224.691	10.0	1640331	COUNTDOWN_START	n/a	n/a	n/a	n/a	-999	25	[0, 0, 0]	n/a	catFR1	1	R1016M
3224.692	10.427	1640332	TRIAL	n/a	n/a	n/a	n/a	-999	25	[0, 0, 0]	n/a	catFR1	1	R1016M
3235.119	0.009	1645545	COUNTDOWN_END	n/a	n/a	n/a	n/a	-999	25	[0, 0, 0]	n/a	catFR1	1	R1016M
3235.128	1.6	1645550	ORIENT	n/a	n/a	n/a	n/a	-999	25	[0, 0, 0]	n/a	catFR1	1	R1016M
3238.828	1.6	1647399	WORD	n/a	wordpools/wordpool_categorized_EN.txt	COLA	Beverages	1	25	[0, 0, 0]	n/a	catFR1	1	R1016M
3241.261	1.6	1648616	WORD	n/a	wordpools/wordpool_categorized_EN.txt	JUICE	Beverages	2	25	[0, 0, 0]	n/a	catFR1	1	R1016M
3243.712	1.6	1649841	WORD	n/a	wordpools/wordpool_categorized_EN.txt	KNEE	BodyParts	3	25	[0, 0, 0]	n/a	catFR1	1	R1016M
3246.246	1.6	1651108	WORD	n/a	wordpools/wordpool_categorized_EN.txt	LEG	BodyParts	4	25	[0, 0, 0]	n/a	catFR1	1	R1016M
3248.713	1.6	1652342	WORD	n/a	wordpools/wordpool_categorized_EN.txt	EVERGREEN	Trees	5	25	[0, 0, 0]	n/a	catFR1	1	R1016M
3251.148	1.6	1653559	WORD	n/a	wordpools/wordpool_categorized_EN.txt	PINE	Trees	6	25	[0, 0, 0]	n/a	catFR1	1	R1016M
3253.664	1.6	1654817	WORD	n/a	wordpools/wordpool_categorized_EN.txt	TOE	BodyParts	7	25	[0, 0, 0]	n/a	catFR1	1	R1016M
3256.049	1.6	1656009	WORD	n/a	wordpools/wordpool_categorized_EN.txt	EAR	BodyParts	8	25	[0, 0, 0]	n/a	catFR1	1	R1016M
3258.565	1.6	1657267	WORD	n/a	wordpools/wordpool_categorized_EN.txt	SODA	Beverages	9	25	[0, 0, 0]	n/a	catFR1	1	R1016M
3261.133	1.6	1658551	WORD	n/a	wordpools/wordpool_categorized_EN.txt	CIDER	Beverages	10	25	[0, 0, 0]	n/a	catFR1	1	R1016M
3263.733	1.6	1659851	WORD	n/a	wordpools/wordpool_categorized_EN.txt	HICKORY	Trees	11	25	[0, 0, 0]	n/a	catFR1	1	R1016M
3266.216	1.6	1661093	WORD	n/a	wordpools/wordpool_categorized_EN.txt	CEDAR	Trees	12	25	[0, 0, 0]	n/a	catFR1	1	R1016M
3267.833	0.001	1661901	DISTRACT_START	n/a	n/a	n/a	n/a	-999	25	[0, 0, 0]	n/a	catFR1	1	R1016M
3267.834	0.016	1661902	START	n/a	n/a	n/a	n/a	-999	25	[-999, -999, -999]	n/a	catFR1	1	R1016M
3267.85	9.286	1661910	PROB	9.255	n/a	n/a	n/a	-999	25	[1, 4, 8]	13.0	catFR1	1	R1016M
3277.136	9.751	1666552	PROB	9.72	n/a	n/a	n/a	-999	25	[5, 1, 1]	7.0	catFR1	1	R1016M
3286.887	20.169	1671428	PROB	20.169	n/a	n/a	n/a	-999	25	[8, 4, 1]	13.0	catFR1	1	R1016M
3307.056	0.019	1681511	STOP	n/a	n/a	n/a	n/a	-999	25	[-999, -999, -999]	n/a	catFR1	1	R1016M
3307.075	1.117	1681521	DISTRACT_END	n/a	n/a	n/a	n/a	-999	25	[0, 0, 0]	n/a	catFR1	1	R1016M
3308.192	2.711	1682079	REC_START	n/a	n/a	n/a	n/a	-999	25	[0, 0, 0]	n/a	catFR1	1	R1016M
3310.903	1.131	1683435	REC_WORD	2.711	n/a	JUICE	Beverages	2	25	[0, 0, 0]	n/a	catFR1	1	R1016M
3312.034	2.756	1684000	REC_WORD	3.842	n/a	KNEE	BodyParts	3	25	[0, 0, 0]	n/a	catFR1	1	R1016M
3314.79	3.333	1685378	REC_WORD	6.598	n/a	RING	n/a	-999	25	[0, 0, 0]	n/a	catFR1	1	R1016M
3318.123	4.638	1687045	REC_WORD	9.931	n/a	TOE	BodyParts	7	25	[0, 0, 0]	n/a	catFR1	1	R1016M
3322.761	6.901	1689363	REC_WORD	14.569	n/a	EAR	BodyParts	8	25	[0, 0, 0]	n/a	catFR1	1	R1016M
3329.662	8.54	1692814	REC_WORD	21.47	n/a	LEG	BodyParts	4	25	[0, 0, 0]	n/a	catFR1	1	R1016M
3338.202	8.38	1697084	REC_END	n/a	n/a	n/a	n/a	-999	25	[0, 0, 0]	n/a	catFR1	1	R1016M
3346.582	0.0	-1	SESS_END	n/a	n/a	n/a	n/a	-999	25	[0, 0, 0]	n/a	catFR1	1	R1016M
