onset	duration	sample	trial_type	response_time	stim_file	item_name	category	serialpos	list	test	answer	experiment	session	subject
0.0	140.315	322289	INSTRUCT_START	n/a	n/a	n/a	n/a	-999	-999	[0, 0, 0]	n/a	catFR1	0	R1477J
140.315	69.767	462602	INSTRUCT_END	n/a	n/a	n/a	n/a	-999	-999	[0, 0, 0]	n/a	catFR1	0	R1477J
210.082	10.352	532360	COUNTDOWN_START	n/a	n/a	n/a	n/a	-999	-999	[0, 0, 0]	n/a	catFR1	0	R1477J
220.434	0.0	542709	COUNTDOWN_END	n/a	n/a	n/a	n/a	-999	-999	[0, 0, 0]	n/a	catFR1	0	R1477J
220.434	2.0	542721	ENCODING_START	n/a	n/a	n/a	n/a	-999	-1	[0, 0, 0]	n/a	catFR1	0	R1477J
222.434	1.615	544717	WORD	n/a	n/a	LEMONADE	Beverages	1	-1	[0, 0, 0]	n/a	catFR1	0	R1477J
224.049	0.801	546334	WORD_OFF	n/a	n/a	LEMONADE	Beverages	1	-1	[0, 0, 0]	n/a	catFR1	0	R1477J
224.85	1.617	547130	WORD	n/a	n/a	RUM	Beverages	2	-1	[0, 0, 0]	n/a	catFR1	0	R1477J
226.467	0.949	548747	WORD_OFF	n/a	n/a	RUM	Beverages	2	-1	[0, 0, 0]	n/a	catFR1	0	R1477J
227.416	1.6	549690	WORD	n/a	n/a	DOOR	Building	3	-1	[0, 0, 0]	n/a	catFR1	0	R1477J
229.016	1.001	551294	WORD_OFF	n/a	n/a	DOOR	Building	3	-1	[0, 0, 0]	n/a	catFR1	0	R1477J
230.017	1.616	552298	WORD	n/a	n/a	WINDOW	Building	4	-1	[0, 0, 0]	n/a	catFR1	0	R1477J
231.633	0.933	553915	WORD_OFF	n/a	n/a	WINDOW	Building	4	-1	[0, 0, 0]	n/a	catFR1	0	R1477J
232.566	1.617	554845	WORD	n/a	n/a	DOLLHOUSE	Toys	5	-1	[0, 0, 0]	n/a	catFR1	0	R1477J
234.183	0.8	556462	WORD_OFF	n/a	n/a	DOLLHOUSE	Toys	5	-1	[0, 0, 0]	n/a	catFR1	0	R1477J
234.983	1.616	557258	WORD	n/a	n/a	PUZZLE	Toys	6	-1	[0, 0, 0]	n/a	catFR1	0	R1477J
236.599	0.983	558875	WORD_OFF	n/a	n/a	PUZZLE	Toys	6	-1	[0, 0, 0]	n/a	catFR1	0	R1477J
237.582	1.601	559867	WORD	n/a	n/a	WINE	Beverages	7	-1	[0, 0, 0]	n/a	catFR1	0	R1477J
239.183	0.85	561459	WORD_OFF	n/a	n/a	WINE	Beverages	7	-1	[0, 0, 0]	n/a	catFR1	0	R1477J
240.033	1.616	562316	WORD	n/a	n/a	MILK	Beverages	8	-1	[0, 0, 0]	n/a	catFR1	0	R1477J
241.649	0.783	563933	WORD_OFF	n/a	n/a	MILK	Beverages	8	-1	[0, 0, 0]	n/a	catFR1	0	R1477J
242.432	1.601	564716	WORD	n/a	n/a	BALL	Toys	9	-1	[0, 0, 0]	n/a	catFR1	0	R1477J
244.033	0.766	566309	WORD_OFF	n/a	n/a	BALL	Toys	9	-1	[0, 0, 0]	n/a	catFR1	0	R1477J
244.799	1.6	567080	WORD	n/a	n/a	FRISBEE	Toys	10	-1	[0, 0, 0]	n/a	catFR1	0	R1477J
246.399	0.95	568672	WORD_OFF	n/a	n/a	FRISBEE	Toys	10	-1	[0, 0, 0]	n/a	catFR1	0	R1477J
247.349	1.599	569628	WORD	n/a	n/a	ROOF	Building	11	-1	[0, 0, 0]	n/a	catFR1	0	R1477J
248.948	0.818	571232	WORD_OFF	n/a	n/a	ROOF	Building	11	-1	[0, 0, 0]	n/a	catFR1	0	R1477J
249.766	1.616	572040	WORD	n/a	n/a	FLOOR	Building	12	-1	[0, 0, 0]	n/a	catFR1	0	R1477J
251.382	0.0	573656	START	n/a	n/a	n/a	n/a	-999	-1	[-999, -999, -999]	n/a	catFR1	0	R1477J
251.382	0.0	573656	PROB	0.0	n/a	n/a	n/a	-999	-1	[1, 6, 6]	13	catFR1	0	R1477J
251.381	0.001	573657	WORD_OFF	n/a	n/a	FLOOR	Building	12	-1	[0, 0, 0]	n/a	catFR1	0	R1477J
251.382	0.0	573657	ENCODING_END	n/a	n/a	n/a	n/a	-999	-1	[0, 0, 0]	n/a	catFR1	0	R1477J
251.382	6.8	573657	DISTRACT_START	n/a	n/a	n/a	n/a	-999	-1	[0, 0, 0]	n/a	catFR1	0	R1477J
258.182	3.8	580455	PROB	3.8	n/a	n/a	n/a	-999	-1	[6, 5, 1]	12	catFR1	0	R1477J
261.982	3.267	584255	PROB	3.267	n/a	n/a	n/a	-999	-1	[4, 4, 3]	11	catFR1	0	R1477J
265.249	4.833	587522	PROB	4.833	n/a	n/a	n/a	-999	-1	[2, 6, 3]	11	catFR1	0	R1477J
270.082	3.699	592355	PROB	3.699	n/a	n/a	n/a	-999	-1	[5, 5, 6]	16	catFR1	0	R1477J
273.781	0.0	596054	STOP	n/a	n/a	n/a	n/a	-999	-1	[-999, -999, -999]	n/a	catFR1	0	R1477J
273.781	1.168	596056	DISTRACT_END	n/a	n/a	n/a	n/a	-999	-1	[0, 0, 0]	n/a	catFR1	0	R1477J
274.949	1.267	597232	REC_START	n/a	n/a	n/a	n/a	-999	-1	[0, 0, 0]	n/a	catFR1	0	R1477J
276.216	1.0	598489	REC_WORD	1.0	n/a	LEMONADE	Beverages	1	-1	[0, 0, 0]	n/a	catFR1	0	R1477J
277.216	0.668	599488	REC_WORD_VV	0.668	n/a	<>	n/a	-999	-1	[0, 0, 0]	n/a	catFR1	0	R1477J
277.884	1.634	600156	REC_WORD	1.634	n/a	FLOOR	Building	12	-1	[0, 0, 0]	n/a	catFR1	0	R1477J
279.518	2.069	601790	REC_WORD	2.069	n/a	DOOR	Building	3	-1	[0, 0, 0]	n/a	catFR1	0	R1477J
281.587	1.436	603859	REC_WORD	1.436	n/a	KEYS	n/a	-999	-1	[0, 0, 0]	n/a	catFR1	0	R1477J
283.023	1.665	605295	REC_WORD	1.665	n/a	RUM	Beverages	2	-1	[0, 0, 0]	n/a	catFR1	0	R1477J
284.688	1.899	606960	REC_WORD	1.899	n/a	LIQUOR	n/a	-999	-1	[0, 0, 0]	n/a	catFR1	0	R1477J
286.587	1.894	608859	REC_WORD	1.894	n/a	WINDOW	Building	4	-1	[0, 0, 0]	n/a	catFR1	0	R1477J
288.481	0.349	610753	REC_WORD_VV	0.349	n/a	<>	n/a	-999	-1	[0, 0, 0]	n/a	catFR1	0	R1477J
288.83	2.789	611102	REC_WORD	2.789	n/a	FLOOR	Building	12	-1	[0, 0, 0]	n/a	catFR1	0	R1477J
291.619	3.022	613891	REC_WORD	3.022	n/a	HOUSEKEY	n/a	-999	-1	[0, 0, 0]	n/a	catFR1	0	R1477J
294.641	3.934	616913	REC_WORD_VV	3.934	n/a	<>	n/a	-999	-1	[0, 0, 0]	n/a	catFR1	0	R1477J
298.575	1.0	620847	REC_WORD_VV	1.0	n/a	<>	n/a	-999	-1	[0, 0, 0]	n/a	catFR1	0	R1477J
299.575	6.564	621847	REC_WORD_VV	6.564	n/a	<>	n/a	-999	-1	[0, 0, 0]	n/a	catFR1	0	R1477J
306.139	29.977	628413	REC_END	n/a	n/a	n/a	n/a	-999	-1	[0, 0, 0]	n/a	catFR1	0	R1477J
336.116	10.35	658393	COUNTDOWN_START	n/a	n/a	n/a	n/a	-999	1	[0, 0, 0]	n/a	catFR1	0	R1477J
346.466	0.0	668742	COUNTDOWN_END	n/a	n/a	n/a	n/a	-999	1	[0, 0, 0]	n/a	catFR1	0	R1477J
346.466	2.284	668742	ENCODING_START	n/a	n/a	n/a	n/a	-999	1	[0, 0, 0]	n/a	catFR1	0	R1477J
348.75	1.614	671020	WORD	n/a	wordpools/wordpool_categorized_EN.txt	CABBAGE	Vegetables	1	1	[0, 0, 0]	n/a	catFR1	0	R1477J
350.364	0.885	672636	WORD_OFF	n/a	n/a	CABBAGE	Vegetables	1	1	[0, 0, 0]	n/a	catFR1	0	R1477J
351.249	1.615	673518	WORD	n/a	wordpools/wordpool_categorized_EN.txt	POTATO	Vegetables	2	1	[0, 0, 0]	n/a	catFR1	0	R1477J
352.864	0.9	675135	WORD_OFF	n/a	n/a	POTATO	Vegetables	2	1	[0, 0, 0]	n/a	catFR1	0	R1477J
353.764	1.6	676041	WORD	n/a	wordpools/wordpool_categorized_EN.txt	ROOM	Building	3	1	[0, 0, 0]	n/a	catFR1	0	R1477J
355.364	0.968	677633	WORD_OFF	n/a	n/a	ROOM	Building	3	1	[0, 0, 0]	n/a	catFR1	0	R1477J
356.332	1.6	678600	WORD	n/a	wordpools/wordpool_categorized_EN.txt	FOUNDATION	Building	4	1	[0, 0, 0]	n/a	catFR1	0	R1477J
357.932	0.783	680205	WORD_OFF	n/a	n/a	FOUNDATION	Building	4	1	[0, 0, 0]	n/a	catFR1	0	R1477J
358.715	1.601	680989	WORD	n/a	wordpools/wordpool_categorized_EN.txt	BEER	Beverages	5	1	[0, 0, 0]	n/a	catFR1	0	R1477J
360.316	0.849	682593	WORD_OFF	n/a	n/a	BEER	Beverages	5	1	[0, 0, 0]	n/a	catFR1	0	R1477J
361.165	1.617	683438	WORD	n/a	wordpools/wordpool_categorized_EN.txt	WATER	Beverages	6	1	[0, 0, 0]	n/a	catFR1	0	R1477J
362.782	0.95	685055	WORD_OFF	n/a	n/a	WATER	Beverages	6	1	[0, 0, 0]	n/a	catFR1	0	R1477J
363.732	1.615	686010	WORD	n/a	wordpools/wordpool_categorized_EN.txt	CEILING	Building	7	1	[0, 0, 0]	n/a	catFR1	0	R1477J
365.347	0.952	687626	WORD_OFF	n/a	n/a	CEILING	Building	7	1	[0, 0, 0]	n/a	catFR1	0	R1477J
366.299	1.616	688569	WORD	n/a	wordpools/wordpool_categorized_EN.txt	BATHROOM	Building	8	1	[0, 0, 0]	n/a	catFR1	0	R1477J
367.915	0.851	690186	WORD_OFF	n/a	n/a	BATHROOM	Building	8	1	[0, 0, 0]	n/a	catFR1	0	R1477J
368.766	1.616	691043	WORD	n/a	wordpools/wordpool_categorized_EN.txt	TEA	Beverages	9	1	[0, 0, 0]	n/a	catFR1	0	R1477J
370.382	0.783	692660	WORD_OFF	n/a	n/a	TEA	Beverages	9	1	[0, 0, 0]	n/a	catFR1	0	R1477J
371.165	1.6	693444	WORD	n/a	wordpools/wordpool_categorized_EN.txt	COFFEE	Beverages	10	1	[0, 0, 0]	n/a	catFR1	0	R1477J
372.765	0.884	695036	WORD_OFF	n/a	n/a	COFFEE	Beverages	10	1	[0, 0, 0]	n/a	catFR1	0	R1477J
373.649	1.616	695918	WORD	n/a	wordpools/wordpool_categorized_EN.txt	BROCCOLI	Vegetables	11	1	[0, 0, 0]	n/a	catFR1	0	R1477J
375.265	0.966	697534	WORD_OFF	n/a	n/a	BROCCOLI	Vegetables	11	1	[0, 0, 0]	n/a	catFR1	0	R1477J
376.231	1.601	698502	WORD	n/a	wordpools/wordpool_categorized_EN.txt	CELERY	Vegetables	12	1	[0, 0, 0]	n/a	catFR1	0	R1477J
377.832	0.0	700100	START	n/a	n/a	n/a	n/a	-999	1	[-999, -999, -999]	n/a	catFR1	0	R1477J
377.832	0.0	700100	PROB	0.0	n/a	n/a	n/a	-999	1	[5, 2, 7]	14	catFR1	0	R1477J
377.831	0.001	700106	WORD_OFF	n/a	n/a	CELERY	Vegetables	12	1	[0, 0, 0]	n/a	catFR1	0	R1477J
377.832	0.0	700106	ENCODING_END	n/a	n/a	n/a	n/a	-999	1	[0, 0, 0]	n/a	catFR1	0	R1477J
377.832	4.817	700106	DISTRACT_START	n/a	n/a	n/a	n/a	-999	1	[0, 0, 0]	n/a	catFR1	0	R1477J
382.649	3.284	704917	PROB	3.284	n/a	n/a	n/a	-999	1	[2, 7, 1]	10	catFR1	0	R1477J
385.933	8.683	708201	PROB	8.683	n/a	n/a	n/a	-999	1	[7, 2, 8]	17	catFR1	0	R1477J
394.616	3.533	716884	PROB	3.533	n/a	n/a	n/a	-999	1	[1, 6, 3]	10	catFR1	0	R1477J
398.149	0.0	720417	STOP	n/a	n/a	n/a	n/a	-999	1	[-999, -999, -999]	n/a	catFR1	0	R1477J
398.149	1.033	720424	DISTRACT_END	n/a	n/a	n/a	n/a	-999	1	[0, 0, 0]	n/a	catFR1	0	R1477J
399.182	1.484	721452	REC_START	n/a	n/a	n/a	n/a	-999	1	[0, 0, 0]	n/a	catFR1	0	R1477J
400.666	1.0	722933	REC_WORD	1.0	n/a	CABBAGE	Vegetables	1	1	[0, 0, 0]	n/a	catFR1	0	R1477J
401.666	0.615	723933	REC_WORD_VV	0.615	n/a	<>	n/a	-999	1	[0, 0, 0]	n/a	catFR1	0	R1477J
402.281	1.717	724548	REC_WORD	1.717	n/a	LETTUCE	n/a	-999	1	[0, 0, 0]	n/a	catFR1	0	R1477J
403.998	2.141	726265	REC_WORD	2.141	n/a	BROCCOLI	Vegetables	11	1	[0, 0, 0]	n/a	catFR1	0	R1477J
406.139	1.82	728406	REC_WORD	1.82	n/a	FLOOR	Building	-999	1	[0, 0, 0]	n/a	catFR1	0	R1477J
407.959	1.324	730226	REC_WORD_VV	1.324	n/a	<>	n/a	-999	1	[0, 0, 0]	n/a	catFR1	0	R1477J
409.283	0.286	731550	REC_WORD_VV	0.286	n/a	<>	n/a	-999	1	[0, 0, 0]	n/a	catFR1	0	R1477J
409.569	1.0	731836	REC_WORD	1.0	n/a	CEILING	Building	7	1	[0, 0, 0]	n/a	catFR1	0	R1477J
410.569	1.945	732836	REC_WORD_VV	1.945	n/a	<>	n/a	-999	1	[0, 0, 0]	n/a	catFR1	0	R1477J
412.514	1.0	734781	REC_WORD_VV	1.0	n/a	<>	n/a	-999	1	[0, 0, 0]	n/a	catFR1	0	R1477J
413.514	1.324	735781	REC_WORD_VV	1.324	n/a	<>	n/a	-999	1	[0, 0, 0]	n/a	catFR1	0	R1477J
414.838	1.51	737105	REC_WORD_VV	1.51	n/a	<>	n/a	-999	1	[0, 0, 0]	n/a	catFR1	0	R1477J
416.348	0.173	738615	REC_WORD_VV	0.173	n/a	<>	n/a	-999	1	[0, 0, 0]	n/a	catFR1	0	R1477J
416.521	1.989	738788	REC_WORD	1.989	n/a	BEER	Beverages	5	1	[0, 0, 0]	n/a	catFR1	0	R1477J
418.51	1.0	740777	REC_WORD_VV	1.0	n/a	<>	n/a	-999	1	[0, 0, 0]	n/a	catFR1	0	R1477J
419.51	5.0	741777	REC_WORD_VV	5.0	n/a	<>	n/a	-999	1	[0, 0, 0]	n/a	catFR1	0	R1477J
424.51	1.0	746776	REC_WORD_VV	1.0	n/a	<>	n/a	-999	1	[0, 0, 0]	n/a	catFR1	0	R1477J
425.51	2.179	747776	REC_WORD_VV	2.179	n/a	<>	n/a	-999	1	[0, 0, 0]	n/a	catFR1	0	R1477J
427.689	0.639	749955	REC_WORD_VV	0.639	n/a	<>	n/a	-999	1	[0, 0, 0]	n/a	catFR1	0	R1477J
428.328	2.06	750594	REC_WORD	2.06	n/a	GLASS	n/a	-999	1	[0, 0, 0]	n/a	catFR1	0	R1477J
430.388	21.711	752657	REC_END	n/a	n/a	n/a	n/a	-999	1	[0, 0, 0]	n/a	catFR1	0	R1477J
452.099	10.351	774371	COUNTDOWN_START	n/a	n/a	n/a	n/a	-999	1	[0, 0, 0]	n/a	catFR1	0	R1477J
462.45	0.0	784720	COUNTDOWN_END	n/a	n/a	n/a	n/a	-999	1	[0, 0, 0]	n/a	catFR1	0	R1477J
462.45	2.082	784720	ENCODING_START	n/a	n/a	n/a	n/a	-999	2	[0, 0, 0]	n/a	catFR1	0	R1477J
464.532	1.616	786802	WORD	n/a	wordpools/wordpool_categorized_EN.txt	JELLYFISH	OceanAnimals	1	2	[0, 0, 0]	n/a	catFR1	0	R1477J
466.148	0.918	788418	WORD_OFF	n/a	n/a	JELLYFISH	OceanAnimals	1	2	[0, 0, 0]	n/a	catFR1	0	R1477J
467.066	1.616	789337	WORD	n/a	wordpools/wordpool_categorized_EN.txt	CRAB	OceanAnimals	2	2	[0, 0, 0]	n/a	catFR1	0	R1477J
468.682	0.8	790954	WORD_OFF	n/a	n/a	CRAB	OceanAnimals	2	2	[0, 0, 0]	n/a	catFR1	0	R1477J
469.482	1.6	791750	WORD	n/a	wordpools/wordpool_categorized_EN.txt	BLOUSE	Clothing	3	2	[0, 0, 0]	n/a	catFR1	0	R1477J
471.082	0.916	793354	WORD_OFF	n/a	n/a	BLOUSE	Clothing	3	2	[0, 0, 0]	n/a	catFR1	0	R1477J
471.998	1.6	794272	WORD	n/a	wordpools/wordpool_categorized_EN.txt	SHOES	Clothing	4	2	[0, 0, 0]	n/a	catFR1	0	R1477J
473.598	0.884	795865	WORD_OFF	n/a	n/a	SHOES	Clothing	4	2	[0, 0, 0]	n/a	catFR1	0	R1477J
474.482	1.616	796746	WORD	n/a	wordpools/wordpool_categorized_EN.txt	APPLE	Fruit	5	2	[0, 0, 0]	n/a	catFR1	0	R1477J
476.098	0.833	798363	WORD_OFF	n/a	n/a	APPLE	Fruit	5	2	[0, 0, 0]	n/a	catFR1	0	R1477J
476.931	1.601	799196	WORD	n/a	wordpools/wordpool_categorized_EN.txt	LIME	Fruit	6	2	[0, 0, 0]	n/a	catFR1	0	R1477J
478.532	0.933	800800	WORD_OFF	n/a	n/a	LIME	Fruit	6	2	[0, 0, 0]	n/a	catFR1	0	R1477J
479.465	1.601	801731	WORD	n/a	wordpools/wordpool_categorized_EN.txt	WHALE	OceanAnimals	7	2	[0, 0, 0]	n/a	catFR1	0	R1477J
481.066	0.766	803335	WORD_OFF	n/a	n/a	WHALE	OceanAnimals	7	2	[0, 0, 0]	n/a	catFR1	0	R1477J
481.832	1.616	804094	WORD	n/a	wordpools/wordpool_categorized_EN.txt	LOBSTER	OceanAnimals	8	2	[0, 0, 0]	n/a	catFR1	0	R1477J
483.448	0.917	805711	WORD_OFF	n/a	n/a	LOBSTER	OceanAnimals	8	2	[0, 0, 0]	n/a	catFR1	0	R1477J
484.365	1.616	806630	WORD	n/a	wordpools/wordpool_categorized_EN.txt	BANANA	Fruit	9	2	[0, 0, 0]	n/a	catFR1	0	R1477J
485.981	0.818	808246	WORD_OFF	n/a	n/a	BANANA	Fruit	9	2	[0, 0, 0]	n/a	catFR1	0	R1477J
486.799	1.615	809067	WORD	n/a	wordpools/wordpool_categorized_EN.txt	LEMON	Fruit	10	2	[0, 0, 0]	n/a	catFR1	0	R1477J
488.414	0.835	810683	WORD_OFF	n/a	n/a	LEMON	Fruit	10	2	[0, 0, 0]	n/a	catFR1	0	R1477J
489.249	1.616	811516	WORD	n/a	wordpools/wordpool_categorized_EN.txt	SKIRT	Clothing	11	2	[0, 0, 0]	n/a	catFR1	0	R1477J
490.865	0.834	813133	WORD_OFF	n/a	n/a	SKIRT	Clothing	11	2	[0, 0, 0]	n/a	catFR1	0	R1477J
491.699	1.617	813965	WORD	n/a	wordpools/wordpool_categorized_EN.txt	SOCKS	Clothing	12	2	[0, 0, 0]	n/a	catFR1	0	R1477J
493.316	0.001	815580	PROB	0.001	n/a	n/a	n/a	-999	2	[5, 8, 3]	16	catFR1	0	R1477J
493.317	0.0	815581	START	n/a	n/a	n/a	n/a	-999	2	[-999, -999, -999]	n/a	catFR1	0	R1477J
493.316	0.001	815582	WORD_OFF	n/a	n/a	SOCKS	Clothing	12	2	[0, 0, 0]	n/a	catFR1	0	R1477J
493.317	0.0	815582	ENCODING_END	n/a	n/a	n/a	n/a	-999	2	[0, 0, 0]	n/a	catFR1	0	R1477J
493.317	5.415	815582	DISTRACT_START	n/a	n/a	n/a	n/a	-999	2	[0, 0, 0]	n/a	catFR1	0	R1477J
498.732	3.95	820995	PROB	3.95	n/a	n/a	n/a	-999	2	[3, 8, 6]	17	catFR1	0	R1477J
502.682	3.634	824945	PROB	3.634	n/a	n/a	n/a	-999	2	[7, 2, 7]	16	catFR1	0	R1477J
506.316	6.983	828579	PROB	6.983	n/a	n/a	n/a	-999	2	[4, 6, 5]	15	catFR1	0	R1477J
513.299	6.233	835562	PROB	6.233	n/a	n/a	n/a	-999	2	[2, 1, 1]	4	catFR1	0	R1477J
519.532	0.0	841795	STOP	n/a	n/a	n/a	n/a	-999	2	[-999, -999, -999]	n/a	catFR1	0	R1477J
519.532	1.199	841803	DISTRACT_END	n/a	n/a	n/a	n/a	-999	2	[0, 0, 0]	n/a	catFR1	0	R1477J
520.731	0.0	842994	REC_WORD_VV	0.0	n/a	<>	n/a	-999	2	[0, 0, 0]	n/a	catFR1	0	R1477J
520.731	1.506	843003	REC_START	n/a	n/a	n/a	n/a	-999	2	[0, 0, 0]	n/a	catFR1	0	R1477J
522.237	2.041	844500	REC_WORD	2.041	n/a	WHALE	OceanAnimals	7	2	[0, 0, 0]	n/a	catFR1	0	R1477J
524.278	2.478	846540	REC_WORD	2.478	n/a	LOBSTER	OceanAnimals	8	2	[0, 0, 0]	n/a	catFR1	0	R1477J
526.756	4.095	849018	REC_WORD	4.095	n/a	CRAB	OceanAnimals	2	2	[0, 0, 0]	n/a	catFR1	0	R1477J
530.851	1.984	853113	REC_WORD	1.984	n/a	SKIRT	Clothing	11	2	[0, 0, 0]	n/a	catFR1	0	R1477J
532.835	2.235	855097	REC_WORD	2.235	n/a	SOCKS	Clothing	12	2	[0, 0, 0]	n/a	catFR1	0	R1477J
535.07	4.278	857332	REC_WORD	4.278	n/a	BLOUSE	Clothing	3	2	[0, 0, 0]	n/a	catFR1	0	R1477J
539.348	12.588	861610	REC_WORD	12.588	n/a	SEAFOOD	n/a	-999	2	[0, 0, 0]	n/a	catFR1	0	R1477J
551.936	5.397	874208	REC_END	n/a	n/a	n/a	n/a	-999	2	[0, 0, 0]	n/a	catFR1	0	R1477J
557.333	10.349	879597	COUNTDOWN_START	n/a	n/a	n/a	n/a	-999	2	[0, 0, 0]	n/a	catFR1	0	R1477J
567.682	0.0	889945	COUNTDOWN_END	n/a	n/a	n/a	n/a	-999	2	[0, 0, 0]	n/a	catFR1	0	R1477J
567.682	2.101	889945	ENCODING_START	n/a	n/a	n/a	n/a	-999	3	[0, 0, 0]	n/a	catFR1	0	R1477J
569.783	1.615	892052	WORD	n/a	wordpools/wordpool_categorized_EN.txt	VACUUM	Appliances	1	3	[0, 0, 0]	n/a	catFR1	0	R1477J
571.398	0.902	893668	WORD_OFF	n/a	n/a	VACUUM	Appliances	1	3	[0, 0, 0]	n/a	catFR1	0	R1477J
572.3	1.616	894562	WORD	n/a	wordpools/wordpool_categorized_EN.txt	BLENDER	Appliances	2	3	[0, 0, 0]	n/a	catFR1	0	R1477J
573.916	0.9	896179	WORD_OFF	n/a	n/a	BLENDER	Appliances	2	3	[0, 0, 0]	n/a	catFR1	0	R1477J
574.816	1.617	897085	WORD	n/a	wordpools/wordpool_categorized_EN.txt	RECLINER	Furniture	3	3	[0, 0, 0]	n/a	catFR1	0	R1477J
576.433	0.984	898702	WORD_OFF	n/a	n/a	RECLINER	Furniture	3	3	[0, 0, 0]	n/a	catFR1	0	R1477J
577.417	1.616	899682	WORD	n/a	wordpools/wordpool_categorized_EN.txt	SOFA	Furniture	4	3	[0, 0, 0]	n/a	catFR1	0	R1477J
579.033	0.95	901298	WORD_OFF	n/a	n/a	SOFA	Furniture	4	3	[0, 0, 0]	n/a	catFR1	0	R1477J
579.983	1.601	902253	WORD	n/a	wordpools/wordpool_categorized_EN.txt	CUPCAKE	Desserts	5	3	[0, 0, 0]	n/a	catFR1	0	R1477J
581.584	0.882	903845	WORD_OFF	n/a	n/a	CUPCAKE	Desserts	5	3	[0, 0, 0]	n/a	catFR1	0	R1477J
582.466	1.601	904727	WORD	n/a	wordpools/wordpool_categorized_EN.txt	PUDDING	Desserts	6	3	[0, 0, 0]	n/a	catFR1	0	R1477J
584.067	0.766	906332	WORD_OFF	n/a	n/a	PUDDING	Desserts	6	3	[0, 0, 0]	n/a	catFR1	0	R1477J
584.833	1.617	907103	WORD	n/a	wordpools/wordpool_categorized_EN.txt	SHELF	Furniture	7	3	[0, 0, 0]	n/a	catFR1	0	R1477J
586.45	0.817	908720	WORD_OFF	n/a	n/a	SHELF	Furniture	7	3	[0, 0, 0]	n/a	catFR1	0	R1477J
587.267	1.6	909528	WORD	n/a	wordpools/wordpool_categorized_EN.txt	BED	Furniture	8	3	[0, 0, 0]	n/a	catFR1	0	R1477J
588.867	0.948	911132	WORD_OFF	n/a	n/a	BED	Furniture	8	3	[0, 0, 0]	n/a	catFR1	0	R1477J
589.815	1.602	912075	WORD	n/a	wordpools/wordpool_categorized_EN.txt	PASTRY	Desserts	9	3	[0, 0, 0]	n/a	catFR1	0	R1477J
591.417	0.933	913680	WORD_OFF	n/a	n/a	PASTRY	Desserts	9	3	[0, 0, 0]	n/a	catFR1	0	R1477J
592.35	1.616	914611	WORD	n/a	wordpools/wordpool_categorized_EN.txt	CHEESECAKE	Desserts	10	3	[0, 0, 0]	n/a	catFR1	0	R1477J
593.966	0.9	916227	WORD_OFF	n/a	n/a	CHEESECAKE	Desserts	10	3	[0, 0, 0]	n/a	catFR1	0	R1477J
594.866	1.601	917133	WORD	n/a	wordpools/wordpool_categorized_EN.txt	IRON	Appliances	11	3	[0, 0, 0]	n/a	catFR1	0	R1477J
596.467	0.783	918725	WORD_OFF	n/a	n/a	IRON	Appliances	11	3	[0, 0, 0]	n/a	catFR1	0	R1477J
597.25	1.6	919509	WORD	n/a	wordpools/wordpool_categorized_EN.txt	TOASTER	Appliances	12	3	[0, 0, 0]	n/a	catFR1	0	R1477J
598.85	0.002	921109	PROB	0.002	n/a	n/a	n/a	-999	3	[1, 8, 8]	17	catFR1	0	R1477J
598.852	0.0	921111	START	n/a	n/a	n/a	n/a	-999	3	[-999, -999, -999]	n/a	catFR1	0	R1477J
598.85	0.001	921114	WORD_OFF	n/a	n/a	TOASTER	Appliances	12	3	[0, 0, 0]	n/a	catFR1	0	R1477J
598.851	0.001	921114	ENCODING_END	n/a	n/a	n/a	n/a	-999	3	[0, 0, 0]	n/a	catFR1	0	R1477J
598.852	5.748	921114	DISTRACT_START	n/a	n/a	n/a	n/a	-999	3	[0, 0, 0]	n/a	catFR1	0	R1477J
604.6	3.616	926859	PROB	3.616	n/a	n/a	n/a	-999	3	[4, 4, 2]	10	catFR1	0	R1477J
608.216	3.384	930475	PROB	3.384	n/a	n/a	n/a	-999	3	[1, 6, 2]	9	catFR1	0	R1477J
611.6	3.467	933859	PROB	3.467	n/a	n/a	n/a	-999	3	[5, 8, 2]	15	catFR1	0	R1477J
615.067	4.766	937326	PROB	4.766	n/a	n/a	n/a	-999	3	[8, 3, 2]	13	catFR1	0	R1477J
619.833	0.0	942092	STOP	n/a	n/a	n/a	n/a	-999	3	[-999, -999, -999]	n/a	catFR1	0	R1477J
619.833	1.332	942093	DISTRACT_END	n/a	n/a	n/a	n/a	-999	3	[0, 0, 0]	n/a	catFR1	0	R1477J
621.165	1.713	943428	REC_START	n/a	n/a	n/a	n/a	-999	3	[0, 0, 0]	n/a	catFR1	0	R1477J
622.878	1.954	945136	REC_WORD	1.954	n/a	PASTRY	Desserts	9	3	[0, 0, 0]	n/a	catFR1	0	R1477J
624.832	1.947	947090	REC_WORD	1.947	n/a	SOFA	Furniture	4	3	[0, 0, 0]	n/a	catFR1	0	R1477J
626.779	5.148	949037	REC_WORD	5.148	n/a	RECLINER	Furniture	3	3	[0, 0, 0]	n/a	catFR1	0	R1477J
631.927	11.19	954185	REC_WORD	11.19	n/a	CHAIR	n/a	-999	3	[0, 0, 0]	n/a	catFR1	0	R1477J
643.117	9.231	965375	REC_WORD	9.231	n/a	CHEESECAKE	Desserts	10	3	[0, 0, 0]	n/a	catFR1	0	R1477J
652.348	3.452	974608	REC_END	n/a	n/a	n/a	n/a	-999	3	[0, 0, 0]	n/a	catFR1	0	R1477J
655.8	10.35	978062	COUNTDOWN_START	n/a	n/a	n/a	n/a	-999	3	[0, 0, 0]	n/a	catFR1	0	R1477J
666.15	0.0	988410	COUNTDOWN_END	n/a	n/a	n/a	n/a	-999	3	[0, 0, 0]	n/a	catFR1	0	R1477J
666.15	2.183	988410	ENCODING_START	n/a	n/a	n/a	n/a	-999	4	[0, 0, 0]	n/a	catFR1	0	R1477J
668.333	1.6	990590	WORD	n/a	wordpools/wordpool_categorized_EN.txt	PETUNIA	Flowers	1	4	[0, 0, 0]	n/a	catFR1	0	R1477J
669.933	0.967	992195	WORD_OFF	n/a	n/a	PETUNIA	Flowers	1	4	[0, 0, 0]	n/a	catFR1	0	R1477J
670.9	1.616	993162	WORD	n/a	wordpools/wordpool_categorized_EN.txt	MARIGOLD	Flowers	2	4	[0, 0, 0]	n/a	catFR1	0	R1477J
672.516	0.933	994779	WORD_OFF	n/a	n/a	MARIGOLD	Flowers	2	4	[0, 0, 0]	n/a	catFR1	0	R1477J
673.449	1.601	995710	WORD	n/a	wordpools/wordpool_categorized_EN.txt	OCTOPUS	OceanAnimals	3	4	[0, 0, 0]	n/a	catFR1	0	R1477J
675.05	0.848	997314	WORD_OFF	n/a	n/a	OCTOPUS	OceanAnimals	3	4	[0, 0, 0]	n/a	catFR1	0	R1477J
675.898	1.602	998159	WORD	n/a	wordpools/wordpool_categorized_EN.txt	PLANKTON	OceanAnimals	4	4	[0, 0, 0]	n/a	catFR1	0	R1477J
677.5	0.767	999763	WORD_OFF	n/a	n/a	PLANKTON	OceanAnimals	4	4	[0, 0, 0]	n/a	catFR1	0	R1477J
678.267	1.6	1000523	WORD	n/a	wordpools/wordpool_categorized_EN.txt	SUEDE	Fabric	5	4	[0, 0, 0]	n/a	catFR1	0	R1477J
679.867	0.8	1002127	WORD_OFF	n/a	n/a	SUEDE	Fabric	5	4	[0, 0, 0]	n/a	catFR1	0	R1477J
680.667	1.616	1002923	WORD	n/a	wordpools/wordpool_categorized_EN.txt	SPANDEX	Fabric	6	4	[0, 0, 0]	n/a	catFR1	0	R1477J
682.283	0.767	1004540	WORD_OFF	n/a	n/a	SPANDEX	Fabric	6	4	[0, 0, 0]	n/a	catFR1	0	R1477J
683.05	1.6	1005311	WORD	n/a	wordpools/wordpool_categorized_EN.txt	SHRIMP	OceanAnimals	7	4	[0, 0, 0]	n/a	catFR1	0	R1477J
684.65	0.966	1006915	WORD_OFF	n/a	n/a	SHRIMP	OceanAnimals	7	4	[0, 0, 0]	n/a	catFR1	0	R1477J
685.616	1.601	1007871	WORD	n/a	wordpools/wordpool_categorized_EN.txt	TURTLE	OceanAnimals	8	4	[0, 0, 0]	n/a	catFR1	0	R1477J
687.217	0.999	1009475	WORD_OFF	n/a	n/a	TURTLE	OceanAnimals	8	4	[0, 0, 0]	n/a	catFR1	0	R1477J
688.216	1.601	1010479	WORD	n/a	wordpools/wordpool_categorized_EN.txt	CARNATION	Flowers	9	4	[0, 0, 0]	n/a	catFR1	0	R1477J
689.817	0.816	1012071	WORD_OFF	n/a	n/a	CARNATION	Flowers	9	4	[0, 0, 0]	n/a	catFR1	0	R1477J
690.633	1.6	1012892	WORD	n/a	wordpools/wordpool_categorized_EN.txt	LILAC	Flowers	10	4	[0, 0, 0]	n/a	catFR1	0	R1477J
692.233	0.834	1014496	WORD_OFF	n/a	n/a	LILAC	Flowers	10	4	[0, 0, 0]	n/a	catFR1	0	R1477J
693.067	1.616	1015329	WORD	n/a	wordpools/wordpool_categorized_EN.txt	LEATHER	Fabric	11	4	[0, 0, 0]	n/a	catFR1	0	R1477J
694.683	0.867	1016946	WORD_OFF	n/a	n/a	LEATHER	Fabric	11	4	[0, 0, 0]	n/a	catFR1	0	R1477J
695.55	1.599	1017815	WORD	n/a	wordpools/wordpool_categorized_EN.txt	DENIM	Fabric	12	4	[0, 0, 0]	n/a	catFR1	0	R1477J
697.149	0.002	1019404	PROB	0.002	n/a	n/a	n/a	-999	4	[6, 4, 3]	13	catFR1	0	R1477J
697.151	0.0	1019406	START	n/a	n/a	n/a	n/a	-999	4	[-999, -999, -999]	n/a	catFR1	0	R1477J
697.15	0.001	1019407	WORD_OFF	n/a	n/a	DENIM	Fabric	12	4	[0, 0, 0]	n/a	catFR1	0	R1477J
697.151	0.0	1019407	ENCODING_END	n/a	n/a	n/a	n/a	-999	4	[0, 0, 0]	n/a	catFR1	0	R1477J
697.151	4.516	1019407	DISTRACT_START	n/a	n/a	n/a	n/a	-999	4	[0, 0, 0]	n/a	catFR1	0	R1477J
701.667	4.35	1023922	PROB	4.35	n/a	n/a	n/a	-999	4	[3, 8, 6]	17	catFR1	0	R1477J
706.017	4.183	1028272	PROB	4.183	n/a	n/a	n/a	-999	4	[3, 4, 5]	12	catFR1	0	R1477J
710.2	4.984	1032455	PROB	4.984	n/a	n/a	n/a	-999	4	[4, 4, 1]	9	catFR1	0	R1477J
715.184	4.931	1037439	PROB	4.931	n/a	n/a	n/a	-999	4	[3, 1, 2]	5	catFR1	0	R1477J
720.115	0.0	1042370	DISTRACT_END	n/a	n/a	n/a	n/a	-999	4	[0, 0, 0]	n/a	catFR1	0	R1477J
720.115	1.051	1042370	STOP	n/a	n/a	n/a	n/a	-999	4	[-999, -999, -999]	n/a	catFR1	0	R1477J
721.166	3.134	1043423	REC_START	n/a	n/a	n/a	n/a	-999	4	[0, 0, 0]	n/a	catFR1	0	R1477J
724.3	2.19	1046554	REC_WORD	2.19	n/a	PLANKTON	OceanAnimals	4	4	[0, 0, 0]	n/a	catFR1	0	R1477J
726.49	4.299	1048744	REC_WORD	4.299	n/a	PETUNIA	Flowers	1	4	[0, 0, 0]	n/a	catFR1	0	R1477J
730.789	7.84	1053043	REC_WORD	7.84	n/a	LIQUOR	n/a	-999	4	[0, 0, 0]	n/a	catFR1	0	R1477J
738.629	1.0	1060883	REC_WORD	1.0	n/a	SHELLFISH	n/a	-999	4	[0, 0, 0]	n/a	catFR1	0	R1477J
739.629	3.105	1061883	REC_WORD_VV	3.105	n/a	<>	n/a	-999	4	[0, 0, 0]	n/a	catFR1	0	R1477J
742.734	0.383	1064988	REC_WORD_VV	0.383	n/a	<>	n/a	-999	4	[0, 0, 0]	n/a	catFR1	0	R1477J
743.117	9.216	1065371	REC_WORD	9.216	n/a	LILAC	Flowers	10	4	[0, 0, 0]	n/a	catFR1	0	R1477J
752.333	4.15	1074592	REC_END	n/a	n/a	n/a	n/a	-999	4	[0, 0, 0]	n/a	catFR1	0	R1477J
756.483	10.35	1078744	COUNTDOWN_START	n/a	n/a	n/a	n/a	-999	4	[0, 0, 0]	n/a	catFR1	0	R1477J
766.833	0.0	1089092	COUNTDOWN_END	n/a	n/a	n/a	n/a	-999	4	[0, 0, 0]	n/a	catFR1	0	R1477J
766.833	2.234	1089092	ENCODING_START	n/a	n/a	n/a	n/a	-999	5	[0, 0, 0]	n/a	catFR1	0	R1477J
769.067	1.616	1091321	WORD	n/a	wordpools/wordpool_categorized_EN.txt	GRAPE	Fruit	1	5	[0, 0, 0]	n/a	catFR1	0	R1477J
770.683	0.817	1092938	WORD_OFF	n/a	n/a	GRAPE	Fruit	1	5	[0, 0, 0]	n/a	catFR1	0	R1477J
771.5	1.616	1093758	WORD	n/a	wordpools/wordpool_categorized_EN.txt	PLUM	Fruit	2	5	[0, 0, 0]	n/a	catFR1	0	R1477J
773.116	0.934	1095375	WORD_OFF	n/a	n/a	PLUM	Fruit	2	5	[0, 0, 0]	n/a	catFR1	0	R1477J
774.05	1.616	1096306	WORD	n/a	wordpools/wordpool_categorized_EN.txt	ORCHID	Flowers	3	5	[0, 0, 0]	n/a	catFR1	0	R1477J
775.666	0.984	1097922	WORD_OFF	n/a	n/a	ORCHID	Flowers	3	5	[0, 0, 0]	n/a	catFR1	0	R1477J
776.65	1.6	1098902	WORD	n/a	wordpools/wordpool_categorized_EN.txt	SUNFLOWER	Flowers	4	5	[0, 0, 0]	n/a	catFR1	0	R1477J
778.25	0.833	1100506	WORD_OFF	n/a	n/a	SUNFLOWER	Flowers	4	5	[0, 0, 0]	n/a	catFR1	0	R1477J
779.083	1.617	1101339	WORD	n/a	wordpools/wordpool_categorized_EN.txt	WHISK	KitchenTools	5	5	[0, 0, 0]	n/a	catFR1	0	R1477J
780.7	0.914	1102956	WORD_OFF	n/a	n/a	WHISK	KitchenTools	5	5	[0, 0, 0]	n/a	catFR1	0	R1477J
781.614	1.603	1103874	WORD	n/a	wordpools/wordpool_categorized_EN.txt	PEELER	KitchenTools	6	5	[0, 0, 0]	n/a	catFR1	0	R1477J
783.217	0.883	1105479	WORD_OFF	n/a	n/a	PEELER	KitchenTools	6	5	[0, 0, 0]	n/a	catFR1	0	R1477J
784.1	1.6	1106360	WORD	n/a	wordpools/wordpool_categorized_EN.txt	ORANGE	Fruit	7	5	[0, 0, 0]	n/a	catFR1	0	R1477J
785.7	0.899	1107952	WORD_OFF	n/a	n/a	ORANGE	Fruit	7	5	[0, 0, 0]	n/a	catFR1	0	R1477J
786.599	1.618	1108859	WORD	n/a	wordpools/wordpool_categorized_EN.txt	BLUEBERRY	Fruit	8	5	[0, 0, 0]	n/a	catFR1	0	R1477J
788.217	0.799	1110475	WORD_OFF	n/a	n/a	BLUEBERRY	Fruit	8	5	[0, 0, 0]	n/a	catFR1	0	R1477J
789.016	1.617	1111271	WORD	n/a	wordpools/wordpool_categorized_EN.txt	VIOLET	Flowers	9	5	[0, 0, 0]	n/a	catFR1	0	R1477J
790.633	0.999	1112888	WORD_OFF	n/a	n/a	VIOLET	Flowers	9	5	[0, 0, 0]	n/a	catFR1	0	R1477J
791.632	1.601	1113892	WORD	n/a	wordpools/wordpool_categorized_EN.txt	DAISY	Flowers	10	5	[0, 0, 0]	n/a	catFR1	0	R1477J
793.233	0.9	1115484	WORD_OFF	n/a	n/a	DAISY	Flowers	10	5	[0, 0, 0]	n/a	catFR1	0	R1477J
794.133	1.6	1116391	WORD	n/a	wordpools/wordpool_categorized_EN.txt	STRAINER	KitchenTools	11	5	[0, 0, 0]	n/a	catFR1	0	R1477J
795.733	0.916	1117995	WORD_OFF	n/a	n/a	STRAINER	KitchenTools	11	5	[0, 0, 0]	n/a	catFR1	0	R1477J
796.649	1.602	1118901	WORD	n/a	wordpools/wordpool_categorized_EN.txt	KNIFE	KitchenTools	12	5	[0, 0, 0]	n/a	catFR1	0	R1477J
798.251	0.001	1120502	PROB	0.001	n/a	n/a	n/a	-999	5	[3, 5, 1]	9	catFR1	0	R1477J
798.252	0.0	1120503	START	n/a	n/a	n/a	n/a	-999	5	[-999, -999, -999]	n/a	catFR1	0	R1477J
798.25	0.002	1120505	WORD_OFF	n/a	n/a	KNIFE	KitchenTools	12	5	[0, 0, 0]	n/a	catFR1	0	R1477J
798.252	0.0	1120505	ENCODING_END	n/a	n/a	n/a	n/a	-999	5	[0, 0, 0]	n/a	catFR1	0	R1477J
798.252	6.198	1120505	DISTRACT_START	n/a	n/a	n/a	n/a	-999	5	[0, 0, 0]	n/a	catFR1	0	R1477J
804.45	3.217	1126701	PROB	3.217	n/a	n/a	n/a	-999	5	[6, 2, 8]	16	catFR1	0	R1477J
807.667	3.1	1129918	PROB	3.1	n/a	n/a	n/a	-999	5	[3, 8, 8]	19	catFR1	0	R1477J
810.767	4.433	1133018	PROB	4.433	n/a	n/a	n/a	-999	5	[3, 8, 3]	14	catFR1	0	R1477J
815.2	8.415	1137451	PROB	8.415	n/a	n/a	n/a	-999	5	[5, 6, 6]	17	catFR1	0	R1477J
823.615	0.0	1145865	STOP	n/a	n/a	n/a	n/a	-999	5	[-999, -999, -999]	n/a	catFR1	0	R1477J
823.615	1.301	1145869	DISTRACT_END	n/a	n/a	n/a	n/a	-999	5	[0, 0, 0]	n/a	catFR1	0	R1477J
824.916	1.93	1147167	REC_START	n/a	n/a	n/a	n/a	-999	5	[0, 0, 0]	n/a	catFR1	0	R1477J
826.846	1.0	1149096	REC_WORD_VV	1.0	n/a	<>	n/a	-999	5	[0, 0, 0]	n/a	catFR1	0	R1477J
827.846	0.587	1150096	REC_WORD_VV	0.587	n/a	<>	n/a	-999	5	[0, 0, 0]	n/a	catFR1	0	R1477J
828.433	5.737	1150683	REC_WORD	5.737	n/a	GRAPE	Fruit	1	5	[0, 0, 0]	n/a	catFR1	0	R1477J
834.17	21.922	1156420	REC_WORD	21.922	n/a	LEMON	Fruit	-999	5	[0, 0, 0]	n/a	catFR1	0	R1477J
856.092	4.539	1178348	REC_END	n/a	n/a	n/a	n/a	-999	5	[0, 0, 0]	n/a	catFR1	0	R1477J
860.631	10.351	1182891	COUNTDOWN_START	n/a	n/a	n/a	n/a	-999	5	[0, 0, 0]	n/a	catFR1	0	R1477J
870.982	0.0	1193240	COUNTDOWN_END	n/a	n/a	n/a	n/a	-999	5	[0, 0, 0]	n/a	catFR1	0	R1477J
870.982	1.933	1193240	ENCODING_START	n/a	n/a	n/a	n/a	-999	6	[0, 0, 0]	n/a	catFR1	0	R1477J
872.915	1.601	1195163	WORD	n/a	wordpools/wordpool_categorized_EN.txt	DISHWASHER	Appliances	1	6	[0, 0, 0]	n/a	catFR1	0	R1477J
874.516	0.816	1196767	WORD_OFF	n/a	n/a	DISHWASHER	Appliances	1	6	[0, 0, 0]	n/a	catFR1	0	R1477J
875.332	1.6	1197588	WORD	n/a	wordpools/wordpool_categorized_EN.txt	STOVE	Appliances	2	6	[0, 0, 0]	n/a	catFR1	0	R1477J
876.932	0.817	1199180	WORD_OFF	n/a	n/a	STOVE	Appliances	2	6	[0, 0, 0]	n/a	catFR1	0	R1477J
877.749	1.616	1200000	WORD	n/a	wordpools/wordpool_categorized_EN.txt	ELM	Trees	3	6	[0, 0, 0]	n/a	catFR1	0	R1477J
879.365	0.867	1201617	WORD_OFF	n/a	n/a	ELM	Trees	3	6	[0, 0, 0]	n/a	catFR1	0	R1477J
880.232	1.616	1202486	WORD	n/a	wordpools/wordpool_categorized_EN.txt	SPRUCE	Trees	4	6	[0, 0, 0]	n/a	catFR1	0	R1477J
881.848	0.817	1204103	WORD_OFF	n/a	n/a	SPRUCE	Trees	4	6	[0, 0, 0]	n/a	catFR1	0	R1477J
882.665	1.617	1204911	WORD	n/a	wordpools/wordpool_categorized_EN.txt	HAWK	Birds	5	6	[0, 0, 0]	n/a	catFR1	0	R1477J
884.282	0.916	1206540	WORD_OFF	n/a	n/a	HAWK	Birds	5	6	[0, 0, 0]	n/a	catFR1	0	R1477J
885.198	1.601	1207446	WORD	n/a	wordpools/wordpool_categorized_EN.txt	GOOSE	Birds	6	6	[0, 0, 0]	n/a	catFR1	0	R1477J
886.799	0.833	1209051	WORD_OFF	n/a	n/a	GOOSE	Birds	6	6	[0, 0, 0]	n/a	catFR1	0	R1477J
887.632	1.616	1209883	WORD	n/a	wordpools/wordpool_categorized_EN.txt	FREEZER	Appliances	7	6	[0, 0, 0]	n/a	catFR1	0	R1477J
889.248	0.867	1211500	WORD_OFF	n/a	n/a	FREEZER	Appliances	7	6	[0, 0, 0]	n/a	catFR1	0	R1477J
890.115	1.616	1212369	WORD	n/a	wordpools/wordpool_categorized_EN.txt	MIXER	Appliances	8	6	[0, 0, 0]	n/a	catFR1	0	R1477J
891.731	0.851	1213986	WORD_OFF	n/a	n/a	MIXER	Appliances	8	6	[0, 0, 0]	n/a	catFR1	0	R1477J
892.582	1.616	1214831	WORD	n/a	wordpools/wordpool_categorized_EN.txt	PIGEON	Birds	9	6	[0, 0, 0]	n/a	catFR1	0	R1477J
894.198	0.85	1216448	WORD_OFF	n/a	n/a	PIGEON	Birds	9	6	[0, 0, 0]	n/a	catFR1	0	R1477J
895.048	1.6	1217305	WORD	n/a	wordpools/wordpool_categorized_EN.txt	DUCK	Birds	10	6	[0, 0, 0]	n/a	catFR1	0	R1477J
896.648	0.8	1218897	WORD_OFF	n/a	n/a	DUCK	Birds	10	6	[0, 0, 0]	n/a	catFR1	0	R1477J
897.448	1.6	1219705	WORD	n/a	wordpools/wordpool_categorized_EN.txt	MAPLE	Trees	11	6	[0, 0, 0]	n/a	catFR1	0	R1477J
899.048	0.95	1221297	WORD_OFF	n/a	n/a	MAPLE	Trees	11	6	[0, 0, 0]	n/a	catFR1	0	R1477J
899.998	1.6	1222253	WORD	n/a	wordpools/wordpool_categorized_EN.txt	OAK	Trees	12	6	[0, 0, 0]	n/a	catFR1	0	R1477J
901.598	0.001	1223845	WORD_OFF	n/a	n/a	OAK	Trees	12	6	[0, 0, 0]	n/a	catFR1	0	R1477J
901.599	0.0	1223845	ENCODING_END	n/a	n/a	n/a	n/a	-999	6	[0, 0, 0]	n/a	catFR1	0	R1477J
901.599	0.0	1223846	PROB	0.0	n/a	n/a	n/a	-999	6	[7, 2, 7]	16	catFR1	0	R1477J
901.599	0.0	1223846	START	n/a	n/a	n/a	n/a	-999	6	[-999, -999, -999]	n/a	catFR1	0	R1477J
901.599	5.434	1223857	DISTRACT_START	n/a	n/a	n/a	n/a	-999	6	[0, 0, 0]	n/a	catFR1	0	R1477J
907.033	4.699	1229280	PROB	4.699	n/a	n/a	n/a	-999	6	[3, 7, 6]	16	catFR1	0	R1477J
911.732	5.334	1233979	PROB	5.334	n/a	n/a	n/a	-999	6	[3, 4, 5]	12	catFR1	0	R1477J
917.066	5.783	1239313	PROB	5.783	n/a	n/a	n/a	-999	6	[7, 6, 3]	16	catFR1	0	R1477J
922.849	0.0	1245093	DISTRACT_END	n/a	n/a	n/a	n/a	-999	6	[0, 0, 0]	n/a	catFR1	0	R1477J
922.849	1.349	1245095	STOP	n/a	n/a	n/a	n/a	-999	6	[-999, -999, -999]	n/a	catFR1	0	R1477J
924.198	1.834	1246453	REC_START	n/a	n/a	n/a	n/a	-999	6	[0, 0, 0]	n/a	catFR1	0	R1477J
926.032	0.433	1248278	REC_WORD_VV	0.433	n/a	<>	n/a	-999	6	[0, 0, 0]	n/a	catFR1	0	R1477J
926.465	2.538	1248711	REC_WORD	2.538	n/a	DISHWASHER	Appliances	1	6	[0, 0, 0]	n/a	catFR1	0	R1477J
929.003	3.282	1251249	REC_WORD	3.282	n/a	STOVE	Appliances	2	6	[0, 0, 0]	n/a	catFR1	0	R1477J
932.285	3.206	1254531	REC_WORD	3.206	n/a	SHELF	Furniture	-999	6	[0, 0, 0]	n/a	catFR1	0	R1477J
935.491	3.058	1257737	REC_WORD	3.058	n/a	REFRIGERATOR	n/a	-999	6	[0, 0, 0]	n/a	catFR1	0	R1477J
938.549	16.875	1260795	REC_WORD	16.875	n/a	HAWK	Birds	5	6	[0, 0, 0]	n/a	catFR1	0	R1477J
955.424	2.042	1277670	REC_END	n/a	n/a	n/a	n/a	-999	6	[0, 0, 0]	n/a	catFR1	0	R1477J
957.466	10.351	1279715	COUNTDOWN_START	n/a	n/a	n/a	n/a	-999	6	[0, 0, 0]	n/a	catFR1	0	R1477J
967.817	0.0	1290064	COUNTDOWN_END	n/a	n/a	n/a	n/a	-999	6	[0, 0, 0]	n/a	catFR1	0	R1477J
967.817	2.016	1290064	ENCODING_START	n/a	n/a	n/a	n/a	-999	7	[0, 0, 0]	n/a	catFR1	0	R1477J
969.833	1.6	1292085	WORD	n/a	wordpools/wordpool_categorized_EN.txt	WASHER	Appliances	1	7	[0, 0, 0]	n/a	catFR1	0	R1477J
971.433	0.967	1293677	WORD_OFF	n/a	n/a	WASHER	Appliances	1	7	[0, 0, 0]	n/a	catFR1	0	R1477J
972.4	1.6	1294644	WORD	n/a	wordpools/wordpool_categorized_EN.txt	OVEN	Appliances	2	7	[0, 0, 0]	n/a	catFR1	0	R1477J
974.0	0.883	1296249	WORD_OFF	n/a	n/a	OVEN	Appliances	2	7	[0, 0, 0]	n/a	catFR1	0	R1477J
974.883	1.617	1297130	WORD	n/a	wordpools/wordpool_categorized_EN.txt	BIKE	Vehicles	3	7	[0, 0, 0]	n/a	catFR1	0	R1477J
976.5	0.867	1298747	WORD_OFF	n/a	n/a	BIKE	Vehicles	3	7	[0, 0, 0]	n/a	catFR1	0	R1477J
977.367	1.616	1299616	WORD	n/a	wordpools/wordpool_categorized_EN.txt	SCOOTER	Vehicles	4	7	[0, 0, 0]	n/a	catFR1	0	R1477J
978.983	0.815	1301233	WORD_OFF	n/a	n/a	SCOOTER	Vehicles	4	7	[0, 0, 0]	n/a	catFR1	0	R1477J
979.798	1.602	1302041	WORD	n/a	wordpools/wordpool_categorized_EN.txt	GRATER	KitchenTools	5	7	[0, 0, 0]	n/a	catFR1	0	R1477J
981.4	0.85	1303646	WORD_OFF	n/a	n/a	GRATER	KitchenTools	5	7	[0, 0, 0]	n/a	catFR1	0	R1477J
982.25	1.6	1304503	WORD	n/a	wordpools/wordpool_categorized_EN.txt	SPOON	KitchenTools	6	7	[0, 0, 0]	n/a	catFR1	0	R1477J
983.85	0.95	1306095	WORD_OFF	n/a	n/a	SPOON	KitchenTools	6	7	[0, 0, 0]	n/a	catFR1	0	R1477J
984.8	1.6	1307050	WORD	n/a	wordpools/wordpool_categorized_EN.txt	REFRIGERATOR	Appliances	7	7	[0, 0, 0]	n/a	catFR1	0	R1477J
986.4	0.783	1308642	WORD_OFF	n/a	n/a	REFRIGERATOR	Appliances	7	7	[0, 0, 0]	n/a	catFR1	0	R1477J
987.183	1.6	1309426	WORD	n/a	wordpools/wordpool_categorized_EN.txt	DRYER	Appliances	8	7	[0, 0, 0]	n/a	catFR1	0	R1477J
988.783	0.834	1311031	WORD_OFF	n/a	n/a	DRYER	Appliances	8	7	[0, 0, 0]	n/a	catFR1	0	R1477J
989.617	1.6	1311863	WORD	n/a	wordpools/wordpool_categorized_EN.txt	MOPED	Vehicles	9	7	[0, 0, 0]	n/a	catFR1	0	R1477J
991.217	0.983	1313468	WORD_OFF	n/a	n/a	MOPED	Vehicles	9	7	[0, 0, 0]	n/a	catFR1	0	R1477J
992.2	1.6	1314447	WORD	n/a	wordpools/wordpool_categorized_EN.txt	BOAT	Vehicles	10	7	[0, 0, 0]	n/a	catFR1	0	R1477J
993.8	0.766	1316052	WORD_OFF	n/a	n/a	BOAT	Vehicles	10	7	[0, 0, 0]	n/a	catFR1	0	R1477J
994.566	1.601	1316811	WORD	n/a	wordpools/wordpool_categorized_EN.txt	LADLE	KitchenTools	11	7	[0, 0, 0]	n/a	catFR1	0	R1477J
996.167	0.967	1318415	WORD_OFF	n/a	n/a	LADLE	KitchenTools	11	7	[0, 0, 0]	n/a	catFR1	0	R1477J
997.134	1.599	1319383	WORD	n/a	wordpools/wordpool_categorized_EN.txt	FORK	KitchenTools	12	7	[0, 0, 0]	n/a	catFR1	0	R1477J
998.733	0.0	1320975	WORD_OFF	n/a	n/a	FORK	KitchenTools	12	7	[0, 0, 0]	n/a	catFR1	0	R1477J
998.733	0.002	1320976	PROB	0.002	n/a	n/a	n/a	-999	7	[6, 3, 3]	12	catFR1	0	R1477J
998.735	0.0	1320978	START	n/a	n/a	n/a	n/a	-999	7	[-999, -999, -999]	n/a	catFR1	0	R1477J
998.735	0.0	1320987	ENCODING_END	n/a	n/a	n/a	n/a	-999	7	[0, 0, 0]	n/a	catFR1	0	R1477J
998.735	5.348	1320987	DISTRACT_START	n/a	n/a	n/a	n/a	-999	7	[0, 0, 0]	n/a	catFR1	0	R1477J
1004.083	5.083	1326326	PROB	5.083	n/a	n/a	n/a	-999	7	[2, 1, 5]	8	catFR1	0	R1477J
1009.166	4.234	1331409	PROB	4.234	n/a	n/a	n/a	-999	7	[8, 4, 6]	18	catFR1	0	R1477J
1013.4	3.616	1335643	PROB	3.616	n/a	n/a	n/a	-999	7	[5, 2, 4]	11	catFR1	0	R1477J
1017.016	3.184	1339258	PROB	3.184	n/a	n/a	n/a	-999	7	[7, 5, 3]	15	catFR1	0	R1477J
1020.2	0.0	1342442	STOP	n/a	n/a	n/a	n/a	-999	7	[-999, -999, -999]	n/a	catFR1	0	R1477J
1020.2	1.233	1342444	DISTRACT_END	n/a	n/a	n/a	n/a	-999	7	[0, 0, 0]	n/a	catFR1	0	R1477J
1021.433	0.945	1343681	REC_START	n/a	n/a	n/a	n/a	-999	7	[0, 0, 0]	n/a	catFR1	0	R1477J
1022.378	1.0	1344620	REC_WORD	1.0	n/a	REFRIGERATOR	Appliances	7	7	[0, 0, 0]	n/a	catFR1	0	R1477J
1023.378	1.44	1345620	REC_WORD_VV	1.44	n/a	<>	n/a	-999	7	[0, 0, 0]	n/a	catFR1	0	R1477J
1024.818	1.989	1347060	REC_WORD	1.989	n/a	FREEZER	Appliances	-999	7	[0, 0, 0]	n/a	catFR1	0	R1477J
1026.807	0.206	1349049	REC_WORD_VV	0.206	n/a	<>	n/a	-999	7	[0, 0, 0]	n/a	catFR1	0	R1477J
1027.013	1.886	1349255	REC_WORD	1.886	n/a	BIKE	Vehicles	3	7	[0, 0, 0]	n/a	catFR1	0	R1477J
1028.899	6.283	1351141	REC_WORD	6.283	n/a	SADDLE	n/a	-999	7	[0, 0, 0]	n/a	catFR1	0	R1477J
1035.182	9.528	1357424	REC_WORD	9.528	n/a	FORK	KitchenTools	12	7	[0, 0, 0]	n/a	catFR1	0	R1477J
1044.71	7.941	1366951	REC_WORD	7.941	n/a	CAR	n/a	-999	7	[0, 0, 0]	n/a	catFR1	0	R1477J
1052.651	3.899	1374898	REC_END	n/a	n/a	n/a	n/a	-999	7	[0, 0, 0]	n/a	catFR1	0	R1477J
1056.55	10.349	1378793	COUNTDOWN_START	n/a	n/a	n/a	n/a	-999	7	[0, 0, 0]	n/a	catFR1	0	R1477J
1066.899	0.0	1389141	COUNTDOWN_END	n/a	n/a	n/a	n/a	-999	7	[0, 0, 0]	n/a	catFR1	0	R1477J
1066.899	2.05	1389141	ENCODING_START	n/a	n/a	n/a	n/a	-999	8	[0, 0, 0]	n/a	catFR1	0	R1477J
1068.949	1.618	1391199	WORD	n/a	wordpools/wordpool_categorized_EN.txt	RADIO	Electronics	1	8	[0, 0, 0]	n/a	catFR1	0	R1477J
1070.567	0.983	1392815	WORD_OFF	n/a	n/a	RADIO	Electronics	1	8	[0, 0, 0]	n/a	catFR1	0	R1477J
1071.55	1.6	1393795	WORD	n/a	wordpools/wordpool_categorized_EN.txt	PHONE	Electronics	2	8	[0, 0, 0]	n/a	catFR1	0	R1477J
1073.15	0.95	1395399	WORD_OFF	n/a	n/a	PHONE	Electronics	2	8	[0, 0, 0]	n/a	catFR1	0	R1477J
1074.1	1.6	1396342	WORD	n/a	wordpools/wordpool_categorized_EN.txt	SPARROW	Birds	3	8	[0, 0, 0]	n/a	catFR1	0	R1477J
1075.7	1.0	1397947	WORD_OFF	n/a	n/a	SPARROW	Birds	3	8	[0, 0, 0]	n/a	catFR1	0	R1477J
1076.7	1.6	1398939	WORD	n/a	wordpools/wordpool_categorized_EN.txt	BLUEBIRD	Birds	4	8	[0, 0, 0]	n/a	catFR1	0	R1477J
1078.3	1.0	1400543	WORD_OFF	n/a	n/a	BLUEBIRD	Birds	4	8	[0, 0, 0]	n/a	catFR1	0	R1477J
1079.3	1.6	1401547	WORD	n/a	wordpools/wordpool_categorized_EN.txt	ROSE	Flowers	5	8	[0, 0, 0]	n/a	catFR1	0	R1477J
1080.9	0.934	1403140	WORD_OFF	n/a	n/a	ROSE	Flowers	5	8	[0, 0, 0]	n/a	catFR1	0	R1477J
1081.834	1.599	1404083	WORD	n/a	wordpools/wordpool_categorized_EN.txt	LILY	Flowers	6	8	[0, 0, 0]	n/a	catFR1	0	R1477J
1083.433	0.817	1405675	WORD_OFF	n/a	n/a	LILY	Flowers	6	8	[0, 0, 0]	n/a	catFR1	0	R1477J
1084.25	1.617	1406495	WORD	n/a	wordpools/wordpool_categorized_EN.txt	SPEAKER	Electronics	7	8	[0, 0, 0]	n/a	catFR1	0	R1477J
1085.867	0.883	1408112	WORD_OFF	n/a	n/a	SPEAKER	Electronics	7	8	[0, 0, 0]	n/a	catFR1	0	R1477J
1086.75	1.6	1408994	WORD	n/a	wordpools/wordpool_categorized_EN.txt	CALCULATOR	Electronics	8	8	[0, 0, 0]	n/a	catFR1	0	R1477J
1088.35	0.967	1410598	WORD_OFF	n/a	n/a	CALCULATOR	Electronics	8	8	[0, 0, 0]	n/a	catFR1	0	R1477J
1089.317	1.616	1411565	WORD	n/a	wordpools/wordpool_categorized_EN.txt	ROBIN	Birds	9	8	[0, 0, 0]	n/a	catFR1	0	R1477J
1090.933	0.767	1413182	WORD_OFF	n/a	n/a	ROBIN	Birds	9	8	[0, 0, 0]	n/a	catFR1	0	R1477J
1091.7	1.6	1413941	WORD	n/a	wordpools/wordpool_categorized_EN.txt	CROW	Birds	10	8	[0, 0, 0]	n/a	catFR1	0	R1477J
1093.3	0.933	1415546	WORD_OFF	n/a	n/a	CROW	Birds	10	8	[0, 0, 0]	n/a	catFR1	0	R1477J
1094.233	1.616	1416476	WORD	n/a	wordpools/wordpool_categorized_EN.txt	TULIP	Flowers	11	8	[0, 0, 0]	n/a	catFR1	0	R1477J
1095.849	0.985	1418093	WORD_OFF	n/a	n/a	TULIP	Flowers	11	8	[0, 0, 0]	n/a	catFR1	0	R1477J
1096.834	1.616	1419073	WORD	n/a	wordpools/wordpool_categorized_EN.txt	DAFFODIL	Flowers	12	8	[0, 0, 0]	n/a	catFR1	0	R1477J
1098.45	0.0	1420689	WORD_OFF	n/a	n/a	DAFFODIL	Flowers	12	8	[0, 0, 0]	n/a	catFR1	0	R1477J
1098.45	0.003	1420689	PROB	0.003	n/a	n/a	n/a	-999	8	[2, 2, 6]	10	catFR1	0	R1477J
1098.453	0.0	1420692	START	n/a	n/a	n/a	n/a	-999	8	[-999, -999, -999]	n/a	catFR1	0	R1477J
1098.453	0.0	1420702	ENCODING_END	n/a	n/a	n/a	n/a	-999	8	[0, 0, 0]	n/a	catFR1	0	R1477J
1098.453	6.581	1420702	DISTRACT_START	n/a	n/a	n/a	n/a	-999	8	[0, 0, 0]	n/a	catFR1	0	R1477J
1105.034	3.284	1427273	PROB	3.284	n/a	n/a	n/a	-999	8	[8, 6, 4]	18	catFR1	0	R1477J
1108.318	3.532	1430557	PROB	3.532	n/a	n/a	n/a	-999	8	[4, 3, 7]	14	catFR1	0	R1477J
1111.85	5.166	1434089	PROB	5.166	n/a	n/a	n/a	-999	8	[2, 3, 8]	13	catFR1	0	R1477J
1117.016	3.867	1439254	PROB	3.867	n/a	n/a	n/a	-999	8	[8, 3, 2]	13	catFR1	0	R1477J
1120.883	0.0	1443121	STOP	n/a	n/a	n/a	n/a	-999	8	[-999, -999, -999]	n/a	catFR1	0	R1477J
1120.883	1.066	1443126	DISTRACT_END	n/a	n/a	n/a	n/a	-999	8	[0, 0, 0]	n/a	catFR1	0	R1477J
1121.949	1.454	1444191	REC_START	n/a	n/a	n/a	n/a	-999	8	[0, 0, 0]	n/a	catFR1	0	R1477J
1123.403	2.268	1445641	REC_WORD	2.268	n/a	LILY	Flowers	6	8	[0, 0, 0]	n/a	catFR1	0	R1477J
1125.671	3.673	1447909	REC_WORD	3.673	n/a	DAFFODIL	Flowers	12	8	[0, 0, 0]	n/a	catFR1	0	R1477J
1129.344	1.0	1451582	REC_WORD	1.0	n/a	SUNFLOWER	Flowers	-999	8	[0, 0, 0]	n/a	catFR1	0	R1477J
1130.344	3.387	1452582	REC_WORD_VV	3.387	n/a	<>	n/a	-999	8	[0, 0, 0]	n/a	catFR1	0	R1477J
1133.731	4.782	1455969	REC_WORD	4.782	n/a	TULIP	Flowers	11	8	[0, 0, 0]	n/a	catFR1	0	R1477J
1138.513	6.213	1460751	REC_WORD	6.213	n/a	BIKE	Vehicles	-999	8	[0, 0, 0]	n/a	catFR1	0	R1477J
1144.726	8.441	1466963	REC_WORD	8.441	n/a	REFRIGERATOR	Appliances	-999	8	[0, 0, 0]	n/a	catFR1	0	R1477J
1153.167	3.483	1475408	REC_END	n/a	n/a	n/a	n/a	-999	8	[0, 0, 0]	n/a	catFR1	0	R1477J
1156.65	10.349	1478887	COUNTDOWN_START	n/a	n/a	n/a	n/a	-999	8	[0, 0, 0]	n/a	catFR1	0	R1477J
1166.999	0.0	1489235	COUNTDOWN_END	n/a	n/a	n/a	n/a	-999	8	[0, 0, 0]	n/a	catFR1	0	R1477J
1166.999	2.084	1489248	ENCODING_START	n/a	n/a	n/a	n/a	-999	9	[0, 0, 0]	n/a	catFR1	0	R1477J
1169.083	1.6	1491329	WORD	n/a	wordpools/wordpool_categorized_EN.txt	SEAGULL	Birds	1	9	[0, 0, 0]	n/a	catFR1	0	R1477J
1170.683	0.833	1492922	WORD_OFF	n/a	n/a	SEAGULL	Birds	1	9	[0, 0, 0]	n/a	catFR1	0	R1477J
1171.516	1.601	1493754	WORD	n/a	wordpools/wordpool_categorized_EN.txt	FINCH	Birds	2	9	[0, 0, 0]	n/a	catFR1	0	R1477J
1173.117	0.949	1495359	WORD_OFF	n/a	n/a	FINCH	Birds	2	9	[0, 0, 0]	n/a	catFR1	0	R1477J
1174.066	1.601	1496302	WORD	n/a	wordpools/wordpool_categorized_EN.txt	TABLET	Electronics	3	9	[0, 0, 0]	n/a	catFR1	0	R1477J
1175.667	0.783	1497906	WORD_OFF	n/a	n/a	TABLET	Electronics	3	9	[0, 0, 0]	n/a	catFR1	0	R1477J
1176.45	1.616	1498690	WORD	n/a	wordpools/wordpool_categorized_EN.txt	COMPUTER	Electronics	4	9	[0, 0, 0]	n/a	catFR1	0	R1477J
1178.066	1.0	1500306	WORD_OFF	n/a	n/a	COMPUTER	Electronics	4	9	[0, 0, 0]	n/a	catFR1	0	R1477J
1179.066	1.601	1501311	WORD	n/a	wordpools/wordpool_categorized_EN.txt	BASEBALL	Toys	5	9	[0, 0, 0]	n/a	catFR1	0	R1477J
1180.667	0.95	1502903	WORD_OFF	n/a	n/a	BASEBALL	Toys	5	9	[0, 0, 0]	n/a	catFR1	0	R1477J
1181.617	1.616	1503858	WORD	n/a	wordpools/wordpool_categorized_EN.txt	BLOCKS	Toys	6	9	[0, 0, 0]	n/a	catFR1	0	R1477J
1183.233	1.0	1505475	WORD_OFF	n/a	n/a	BLOCKS	Toys	6	9	[0, 0, 0]	n/a	catFR1	0	R1477J
1184.233	1.6	1506479	WORD	n/a	wordpools/wordpool_categorized_EN.txt	CARDINAL	Birds	7	9	[0, 0, 0]	n/a	catFR1	0	R1477J
1185.833	0.884	1508071	WORD_OFF	n/a	n/a	CARDINAL	Birds	7	9	[0, 0, 0]	n/a	catFR1	0	R1477J
1186.717	1.6	1508953	WORD	n/a	wordpools/wordpool_categorized_EN.txt	DOVE	Birds	8	9	[0, 0, 0]	n/a	catFR1	0	R1477J
1188.317	0.916	1510557	WORD_OFF	n/a	n/a	DOVE	Birds	8	9	[0, 0, 0]	n/a	catFR1	0	R1477J
1189.233	1.6	1511476	WORD	n/a	wordpools/wordpool_categorized_EN.txt	PRINTER	Electronics	9	9	[0, 0, 0]	n/a	catFR1	0	R1477J
1190.833	0.833	1513068	WORD_OFF	n/a	n/a	PRINTER	Electronics	9	9	[0, 0, 0]	n/a	catFR1	0	R1477J
1191.666	1.601	1513900	WORD	n/a	wordpools/wordpool_categorized_EN.txt	HEADPHONES	Electronics	10	9	[0, 0, 0]	n/a	catFR1	0	R1477J
1193.267	0.9	1515505	WORD_OFF	n/a	n/a	HEADPHONES	Electronics	10	9	[0, 0, 0]	n/a	catFR1	0	R1477J
1194.167	1.6	1516411	WORD	n/a	wordpools/wordpool_categorized_EN.txt	FOOTBALL	Toys	11	9	[0, 0, 0]	n/a	catFR1	0	R1477J
1195.767	0.966	1518003	WORD_OFF	n/a	n/a	FOOTBALL	Toys	11	9	[0, 0, 0]	n/a	catFR1	0	R1477J
1196.733	1.617	1518971	WORD	n/a	wordpools/wordpool_categorized_EN.txt	SLINKY	Toys	12	9	[0, 0, 0]	n/a	catFR1	0	R1477J
1198.35	0.001	1520585	PROB	0.001	n/a	n/a	n/a	-999	9	[7, 2, 4]	13	catFR1	0	R1477J
1198.351	0.0	1520586	START	n/a	n/a	n/a	n/a	-999	9	[-999, -999, -999]	n/a	catFR1	0	R1477J
1198.35	0.001	1520587	WORD_OFF	n/a	n/a	SLINKY	Toys	12	9	[0, 0, 0]	n/a	catFR1	0	R1477J
1198.351	0.0	1520587	ENCODING_END	n/a	n/a	n/a	n/a	-999	9	[0, 0, 0]	n/a	catFR1	0	R1477J
1198.351	7.132	1520587	DISTRACT_START	n/a	n/a	n/a	n/a	-999	9	[0, 0, 0]	n/a	catFR1	0	R1477J
1205.483	3.584	1527718	PROB	3.584	n/a	n/a	n/a	-999	9	[1, 6, 5]	12	catFR1	0	R1477J
1209.067	5.965	1531302	PROB	5.965	n/a	n/a	n/a	-999	9	[4, 6, 8]	18	catFR1	0	R1477J
1215.032	5.933	1537266	PROB	5.933	n/a	n/a	n/a	-999	9	[4, 8, 2]	14	catFR1	0	R1477J
1220.965	0.0	1543199	STOP	n/a	n/a	n/a	n/a	-999	9	[-999, -999, -999]	n/a	catFR1	0	R1477J
1220.965	1.217	1543207	DISTRACT_END	n/a	n/a	n/a	n/a	-999	9	[0, 0, 0]	n/a	catFR1	0	R1477J
1222.182	3.131	1544420	REC_START	n/a	n/a	n/a	n/a	-999	9	[0, 0, 0]	n/a	catFR1	0	R1477J
1225.313	3.031	1547547	REC_WORD	3.031	n/a	COMPUTER	Electronics	4	9	[0, 0, 0]	n/a	catFR1	0	R1477J
1228.344	3.509	1550578	REC_WORD	3.509	n/a	TABLET	Electronics	3	9	[0, 0, 0]	n/a	catFR1	0	R1477J
1231.853	0.344	1554087	REC_WORD_VV	0.344	n/a	<>	n/a	-999	9	[0, 0, 0]	n/a	catFR1	0	R1477J
1232.197	2.608	1554431	REC_WORD	2.608	n/a	DOVE	Birds	8	9	[0, 0, 0]	n/a	catFR1	0	R1477J
1234.805	18.622	1557039	REC_WORD	18.622	n/a	SEAGULL	Birds	1	9	[0, 0, 0]	n/a	catFR1	0	R1477J
1253.427	2.555	1575662	REC_END	n/a	n/a	n/a	n/a	-999	9	[0, 0, 0]	n/a	catFR1	0	R1477J
1255.982	10.35	1578221	COUNTDOWN_START	n/a	n/a	n/a	n/a	-999	9	[0, 0, 0]	n/a	catFR1	0	R1477J
1266.332	0.0	1588570	COUNTDOWN_END	n/a	n/a	n/a	n/a	-999	9	[0, 0, 0]	n/a	catFR1	0	R1477J
1266.332	2.217	1588570	ENCODING_START	n/a	n/a	n/a	n/a	-999	10	[0, 0, 0]	n/a	catFR1	0	R1477J
1268.549	1.6	1590787	WORD	n/a	wordpools/wordpool_categorized_EN.txt	OYSTER	OceanAnimals	1	10	[0, 0, 0]	n/a	catFR1	0	R1477J
1270.149	0.982	1592391	WORD_OFF	n/a	n/a	OYSTER	OceanAnimals	1	10	[0, 0, 0]	n/a	catFR1	0	R1477J
1271.131	1.6	1593371	WORD	n/a	wordpools/wordpool_categorized_EN.txt	DOLPHIN	OceanAnimals	2	10	[0, 0, 0]	n/a	catFR1	0	R1477J
1272.731	0.783	1594963	WORD_OFF	n/a	n/a	DOLPHIN	OceanAnimals	2	10	[0, 0, 0]	n/a	catFR1	0	R1477J
1273.514	1.601	1595747	WORD	n/a	wordpools/wordpool_categorized_EN.txt	KNEE	BodyParts	3	10	[0, 0, 0]	n/a	catFR1	0	R1477J
1275.115	0.884	1597351	WORD_OFF	n/a	n/a	KNEE	BodyParts	3	10	[0, 0, 0]	n/a	catFR1	0	R1477J
1275.999	1.615	1598233	WORD	n/a	wordpools/wordpool_categorized_EN.txt	EYE	BodyParts	4	10	[0, 0, 0]	n/a	catFR1	0	R1477J
1277.614	0.968	1599849	WORD_OFF	n/a	n/a	EYE	BodyParts	4	10	[0, 0, 0]	n/a	catFR1	0	R1477J
1278.582	1.616	1600817	WORD	n/a	wordpools/wordpool_categorized_EN.txt	CARROT	Vegetables	5	10	[0, 0, 0]	n/a	catFR1	0	R1477J
1280.198	0.984	1602433	WORD_OFF	n/a	n/a	CARROT	Vegetables	5	10	[0, 0, 0]	n/a	catFR1	0	R1477J
1281.182	1.6	1603413	WORD	n/a	wordpools/wordpool_categorized_EN.txt	ONION	Vegetables	6	10	[0, 0, 0]	n/a	catFR1	0	R1477J
1282.782	0.982	1605017	WORD_OFF	n/a	n/a	ONION	Vegetables	6	10	[0, 0, 0]	n/a	catFR1	0	R1477J
1283.764	1.601	1605997	WORD	n/a	wordpools/wordpool_categorized_EN.txt	SQUID	OceanAnimals	7	10	[0, 0, 0]	n/a	catFR1	0	R1477J
1285.365	0.868	1607602	WORD_OFF	n/a	n/a	SQUID	OceanAnimals	7	10	[0, 0, 0]	n/a	catFR1	0	R1477J
1286.233	1.599	1608471	WORD	n/a	wordpools/wordpool_categorized_EN.txt	FISH	OceanAnimals	8	10	[0, 0, 0]	n/a	catFR1	0	R1477J
1287.832	0.8	1610063	WORD_OFF	n/a	n/a	FISH	OceanAnimals	8	10	[0, 0, 0]	n/a	catFR1	0	R1477J
1288.632	1.6	1610872	WORD	n/a	wordpools/wordpool_categorized_EN.txt	FOOT	BodyParts	9	10	[0, 0, 0]	n/a	catFR1	0	R1477J
1290.232	0.949	1612464	WORD_OFF	n/a	n/a	FOOT	BodyParts	9	10	[0, 0, 0]	n/a	catFR1	0	R1477J
1291.181	1.6	1613419	WORD	n/a	wordpools/wordpool_categorized_EN.txt	LEG	BodyParts	10	10	[0, 0, 0]	n/a	catFR1	0	R1477J
1292.781	0.817	1615011	WORD_OFF	n/a	n/a	LEG	BodyParts	10	10	[0, 0, 0]	n/a	catFR1	0	R1477J
1293.598	1.6	1615832	WORD	n/a	wordpools/wordpool_categorized_EN.txt	SPINACH	Vegetables	11	10	[0, 0, 0]	n/a	catFR1	0	R1477J
1295.198	0.983	1617436	WORD_OFF	n/a	n/a	SPINACH	Vegetables	11	10	[0, 0, 0]	n/a	catFR1	0	R1477J
1296.181	1.602	1618416	WORD	n/a	wordpools/wordpool_categorized_EN.txt	CUCUMBER	Vegetables	12	10	[0, 0, 0]	n/a	catFR1	0	R1477J
1297.783	0.001	1620014	PROB	0.001	n/a	n/a	n/a	-999	10	[3, 7, 5]	15	catFR1	0	R1477J
1297.784	0.0	1620015	START	n/a	n/a	n/a	n/a	-999	10	[-999, -999, -999]	n/a	catFR1	0	R1477J
1297.781	0.003	1620020	WORD_OFF	n/a	n/a	CUCUMBER	Vegetables	12	10	[0, 0, 0]	n/a	catFR1	0	R1477J
1297.784	0.0	1620020	ENCODING_END	n/a	n/a	n/a	n/a	-999	10	[0, 0, 0]	n/a	catFR1	0	R1477J
1297.784	3.964	1620020	DISTRACT_START	n/a	n/a	n/a	n/a	-999	10	[0, 0, 0]	n/a	catFR1	0	R1477J
1301.748	3.95	1623979	PROB	3.95	n/a	n/a	n/a	-999	10	[8, 1, 3]	12	catFR1	0	R1477J
1305.698	3.635	1627929	PROB	3.635	n/a	n/a	n/a	-999	10	[5, 8, 3]	16	catFR1	0	R1477J
1309.333	4.383	1631564	PROB	4.383	n/a	n/a	n/a	-999	10	[4, 6, 7]	17	catFR1	0	R1477J
1313.716	3.933	1635946	PROB	3.933	n/a	n/a	n/a	-999	10	[7, 6, 6]	19	catFR1	0	R1477J
1317.649	3.9	1639879	PROB	3.9	n/a	n/a	n/a	-999	10	[5, 1, 3]	9	catFR1	0	R1477J
1321.549	0.0	1643779	DISTRACT_END	n/a	n/a	n/a	n/a	-999	10	[0, 0, 0]	n/a	catFR1	0	R1477J
1321.549	1.184	1643779	STOP	n/a	n/a	n/a	n/a	-999	10	[-999, -999, -999]	n/a	catFR1	0	R1477J
1322.733	1.771	1644967	REC_START	n/a	n/a	n/a	n/a	-999	10	[0, 0, 0]	n/a	catFR1	0	R1477J
1324.504	2.406	1646734	REC_WORD	2.406	n/a	OYSTER	OceanAnimals	1	10	[0, 0, 0]	n/a	catFR1	0	R1477J
1326.91	2.155	1649140	REC_WORD	2.155	n/a	LEG	BodyParts	10	10	[0, 0, 0]	n/a	catFR1	0	R1477J
1329.065	3.758	1651295	REC_WORD	3.758	n/a	EYE	BodyParts	4	10	[0, 0, 0]	n/a	catFR1	0	R1477J
1332.823	3.028	1655053	REC_WORD	3.028	n/a	ARM	n/a	-999	10	[0, 0, 0]	n/a	catFR1	0	R1477J
1335.851	8.39	1658081	REC_WORD	8.39	n/a	SEAGULL	Birds	-999	10	[0, 0, 0]	n/a	catFR1	0	R1477J
1344.241	9.721	1666470	REC_WORD	9.721	n/a	FOOTBALL	Toys	-999	10	[0, 0, 0]	n/a	catFR1	0	R1477J
1353.962	2.971	1676196	REC_END	n/a	n/a	n/a	n/a	-999	10	[0, 0, 0]	n/a	catFR1	0	R1477J
1356.933	10.35	1679172	COUNTDOWN_START	n/a	n/a	n/a	n/a	-999	10	[0, 0, 0]	n/a	catFR1	0	R1477J
1367.283	0.0	1689521	COUNTDOWN_END	n/a	n/a	n/a	n/a	-999	10	[0, 0, 0]	n/a	catFR1	0	R1477J
1367.283	2.284	1689521	ENCODING_START	n/a	n/a	n/a	n/a	-999	11	[0, 0, 0]	n/a	catFR1	0	R1477J
1369.567	1.616	1691799	WORD	n/a	wordpools/wordpool_categorized_EN.txt	TAPE	OfficeSupplies	1	11	[0, 0, 0]	n/a	catFR1	0	R1477J
1371.183	0.799	1693416	WORD_OFF	n/a	n/a	TAPE	OfficeSupplies	1	11	[0, 0, 0]	n/a	catFR1	0	R1477J
1371.982	1.601	1694212	WORD	n/a	wordpools/wordpool_categorized_EN.txt	RULER	OfficeSupplies	2	11	[0, 0, 0]	n/a	catFR1	0	R1477J
1373.583	0.917	1695816	WORD_OFF	n/a	n/a	RULER	OfficeSupplies	2	11	[0, 0, 0]	n/a	catFR1	0	R1477J
1374.5	1.6	1696735	WORD	n/a	wordpools/wordpool_categorized_EN.txt	VIOLIN	Instruments	3	11	[0, 0, 0]	n/a	catFR1	0	R1477J
1376.1	0.816	1698327	WORD_OFF	n/a	n/a	VIOLIN	Instruments	3	11	[0, 0, 0]	n/a	catFR1	0	R1477J
1376.916	1.601	1699147	WORD	n/a	wordpools/wordpool_categorized_EN.txt	CELLO	Instruments	4	11	[0, 0, 0]	n/a	catFR1	0	R1477J
1378.517	0.866	1700752	WORD_OFF	n/a	n/a	CELLO	Instruments	4	11	[0, 0, 0]	n/a	catFR1	0	R1477J
1379.383	1.6	1701621	WORD	n/a	wordpools/wordpool_categorized_EN.txt	JEANS	Clothing	5	11	[0, 0, 0]	n/a	catFR1	0	R1477J
1380.983	0.934	1703213	WORD_OFF	n/a	n/a	JEANS	Clothing	5	11	[0, 0, 0]	n/a	catFR1	0	R1477J
1381.917	1.6	1704144	WORD	n/a	wordpools/wordpool_categorized_EN.txt	UNDERWEAR	Clothing	6	11	[0, 0, 0]	n/a	catFR1	0	R1477J
1383.517	0.782	1705748	WORD_OFF	n/a	n/a	UNDERWEAR	Clothing	6	11	[0, 0, 0]	n/a	catFR1	0	R1477J
1384.299	1.601	1706532	WORD	n/a	wordpools/wordpool_categorized_EN.txt	PEN	OfficeSupplies	7	11	[0, 0, 0]	n/a	catFR1	0	R1477J
1385.9	0.95	1708136	WORD_OFF	n/a	n/a	PEN	OfficeSupplies	7	11	[0, 0, 0]	n/a	catFR1	0	R1477J
1386.85	1.6	1709079	WORD	n/a	wordpools/wordpool_categorized_EN.txt	NOTEBOOK	OfficeSupplies	8	11	[0, 0, 0]	n/a	catFR1	0	R1477J
1388.45	0.817	1710684	WORD_OFF	n/a	n/a	NOTEBOOK	OfficeSupplies	8	11	[0, 0, 0]	n/a	catFR1	0	R1477J
1389.267	1.6	1711492	WORD	n/a	wordpools/wordpool_categorized_EN.txt	COAT	Clothing	9	11	[0, 0, 0]	n/a	catFR1	0	R1477J
1390.867	0.949	1713096	WORD_OFF	n/a	n/a	COAT	Clothing	9	11	[0, 0, 0]	n/a	catFR1	0	R1477J
1391.816	1.601	1714052	WORD	n/a	wordpools/wordpool_categorized_EN.txt	DRESS	Clothing	10	11	[0, 0, 0]	n/a	catFR1	0	R1477J
1393.417	0.866	1715644	WORD_OFF	n/a	n/a	DRESS	Clothing	10	11	[0, 0, 0]	n/a	catFR1	0	R1477J
1394.283	1.6	1716513	WORD	n/a	wordpools/wordpool_categorized_EN.txt	TRUMPET	Instruments	11	11	[0, 0, 0]	n/a	catFR1	0	R1477J
1395.883	0.833	1718118	WORD_OFF	n/a	n/a	TRUMPET	Instruments	11	11	[0, 0, 0]	n/a	catFR1	0	R1477J
1396.716	1.6	1718950	WORD	n/a	wordpools/wordpool_categorized_EN.txt	TROMBONE	Instruments	12	11	[0, 0, 0]	n/a	catFR1	0	R1477J
1398.316	0.0	1720543	WORD_OFF	n/a	n/a	TROMBONE	Instruments	12	11	[0, 0, 0]	n/a	catFR1	0	R1477J
1398.316	0.001	1720543	PROB	0.001	n/a	n/a	n/a	-999	11	[5, 5, 7]	17	catFR1	0	R1477J
1398.317	0.0	1720544	START	n/a	n/a	n/a	n/a	-999	11	[-999, -999, -999]	n/a	catFR1	0	R1477J
1398.317	0.0	1720555	ENCODING_END	n/a	n/a	n/a	n/a	-999	11	[0, 0, 0]	n/a	catFR1	0	R1477J
1398.317	3.782	1720555	DISTRACT_START	n/a	n/a	n/a	n/a	-999	11	[0, 0, 0]	n/a	catFR1	0	R1477J
1402.099	5.0	1724326	PROB	5.0	n/a	n/a	n/a	-999	11	[4, 7, 4]	15	catFR1	0	R1477J
1407.099	4.451	1729326	PROB	4.451	n/a	n/a	n/a	-999	11	[1, 7, 5]	13	catFR1	0	R1477J
1411.55	3.366	1733776	PROB	3.366	n/a	n/a	n/a	-999	11	[7, 7, 5]	19	catFR1	0	R1477J
1414.916	4.449	1737142	PROB	4.449	n/a	n/a	n/a	-999	11	[8, 6, 1]	15	catFR1	0	R1477J
1419.365	0.0	1741591	STOP	n/a	n/a	n/a	n/a	-999	11	[-999, -999, -999]	n/a	catFR1	0	R1477J
1419.365	1.334	1741595	DISTRACT_END	n/a	n/a	n/a	n/a	-999	11	[0, 0, 0]	n/a	catFR1	0	R1477J
1420.699	2.391	1742930	REC_START	n/a	n/a	n/a	n/a	-999	11	[0, 0, 0]	n/a	catFR1	0	R1477J
1423.09	1.916	1745316	REC_WORD	1.916	n/a	TRUMPET	Instruments	11	11	[0, 0, 0]	n/a	catFR1	0	R1477J
1425.006	3.067	1747232	REC_WORD	3.067	n/a	TROMBONE	Instruments	12	11	[0, 0, 0]	n/a	catFR1	0	R1477J
1428.073	1.883	1750299	REC_WORD	1.883	n/a	COAT	Clothing	9	11	[0, 0, 0]	n/a	catFR1	0	R1477J
1429.956	2.858	1752182	REC_WORD	2.858	n/a	SKIRT	Clothing	-999	11	[0, 0, 0]	n/a	catFR1	0	R1477J
1432.814	3.483	1755040	REC_WORD	3.483	n/a	UNDERWEAR	Clothing	6	11	[0, 0, 0]	n/a	catFR1	0	R1477J
1436.297	2.539	1758522	REC_WORD	2.539	n/a	JEANS	Clothing	5	11	[0, 0, 0]	n/a	catFR1	0	R1477J
1438.836	13.077	1761061	REC_WORD	13.077	n/a	TAPE	OfficeSupplies	1	11	[0, 0, 0]	n/a	catFR1	0	R1477J
1451.913	2.737	1774147	REC_END	n/a	n/a	n/a	n/a	-999	11	[0, 0, 0]	n/a	catFR1	0	R1477J
1454.65	10.35	1776878	COUNTDOWN_START	n/a	n/a	n/a	n/a	-999	11	[0, 0, 0]	n/a	catFR1	0	R1477J
1465.0	0.0	1787227	COUNTDOWN_END	n/a	n/a	n/a	n/a	-999	11	[0, 0, 0]	n/a	catFR1	0	R1477J
1465.0	2.117	1787227	ENCODING_START	n/a	n/a	n/a	n/a	-999	12	[0, 0, 0]	n/a	catFR1	0	R1477J
1467.117	1.6	1789346	WORD	n/a	wordpools/wordpool_categorized_EN.txt	SHIRT	Clothing	1	12	[0, 0, 0]	n/a	catFR1	0	R1477J
1468.717	0.766	1790950	WORD_OFF	n/a	n/a	SHIRT	Clothing	1	12	[0, 0, 0]	n/a	catFR1	0	R1477J
1469.483	1.6	1791709	WORD	n/a	wordpools/wordpool_categorized_EN.txt	JACKET	Clothing	2	12	[0, 0, 0]	n/a	catFR1	0	R1477J
1471.083	0.867	1793314	WORD_OFF	n/a	n/a	JACKET	Clothing	2	12	[0, 0, 0]	n/a	catFR1	0	R1477J
1471.95	1.6	1794183	WORD	n/a	wordpools/wordpool_categorized_EN.txt	FINGERS	BodyParts	3	12	[0, 0, 0]	n/a	catFR1	0	R1477J
1473.55	1.0	1795788	WORD_OFF	n/a	n/a	FINGERS	BodyParts	3	12	[0, 0, 0]	n/a	catFR1	0	R1477J
1474.55	1.6	1796780	WORD	n/a	wordpools/wordpool_categorized_EN.txt	HAND	BodyParts	4	12	[0, 0, 0]	n/a	catFR1	0	R1477J
1476.15	0.967	1798384	WORD_OFF	n/a	n/a	HAND	BodyParts	4	12	[0, 0, 0]	n/a	catFR1	0	R1477J
1477.117	1.616	1799339	WORD	n/a	wordpools/wordpool_categorized_EN.txt	CHERRY	Fruit	5	12	[0, 0, 0]	n/a	catFR1	0	R1477J
1478.733	0.85	1800956	WORD_OFF	n/a	n/a	CHERRY	Fruit	5	12	[0, 0, 0]	n/a	catFR1	0	R1477J
1479.583	1.617	1801813	WORD	n/a	wordpools/wordpool_categorized_EN.txt	PEAR	Fruit	6	12	[0, 0, 0]	n/a	catFR1	0	R1477J
1481.2	0.867	1803430	WORD_OFF	n/a	n/a	PEAR	Fruit	6	12	[0, 0, 0]	n/a	catFR1	0	R1477J
1482.067	1.6	1804299	WORD	n/a	wordpools/wordpool_categorized_EN.txt	PANTS	Clothing	7	12	[0, 0, 0]	n/a	catFR1	0	R1477J
1483.667	0.949	1805891	WORD_OFF	n/a	n/a	PANTS	Clothing	7	12	[0, 0, 0]	n/a	catFR1	0	R1477J
1484.616	1.617	1806846	WORD	n/a	wordpools/wordpool_categorized_EN.txt	SHORTS	Clothing	8	12	[0, 0, 0]	n/a	catFR1	0	R1477J
1486.233	0.767	1808463	WORD_OFF	n/a	n/a	SHORTS	Clothing	8	12	[0, 0, 0]	n/a	catFR1	0	R1477J
1487.0	1.616	1809222	WORD	n/a	wordpools/wordpool_categorized_EN.txt	ELBOW	BodyParts	9	12	[0, 0, 0]	n/a	catFR1	0	R1477J
1488.616	0.816	1810839	WORD_OFF	n/a	n/a	ELBOW	BodyParts	9	12	[0, 0, 0]	n/a	catFR1	0	R1477J
1489.432	1.601	1811659	WORD	n/a	wordpools/wordpool_categorized_EN.txt	EAR	BodyParts	10	12	[0, 0, 0]	n/a	catFR1	0	R1477J
1491.033	0.783	1813264	WORD_OFF	n/a	n/a	EAR	BodyParts	10	12	[0, 0, 0]	n/a	catFR1	0	R1477J
1491.816	1.617	1814048	WORD	n/a	wordpools/wordpool_categorized_EN.txt	PEACH	Fruit	11	12	[0, 0, 0]	n/a	catFR1	0	R1477J
1493.433	0.766	1815664	WORD_OFF	n/a	n/a	PEACH	Fruit	11	12	[0, 0, 0]	n/a	catFR1	0	R1477J
1494.199	1.601	1816424	WORD	n/a	wordpools/wordpool_categorized_EN.txt	STRAWBERRY	Fruit	12	12	[0, 0, 0]	n/a	catFR1	0	R1477J
1495.8	0.0	1818023	START	n/a	n/a	n/a	n/a	-999	12	[-999, -999, -999]	n/a	catFR1	0	R1477J
1495.8	0.0	1818023	PROB	0.0	n/a	n/a	n/a	-999	12	[2, 5, 1]	8	catFR1	0	R1477J
1495.799	0.001	1818028	WORD_OFF	n/a	n/a	STRAWBERRY	Fruit	12	12	[0, 0, 0]	n/a	catFR1	0	R1477J
1495.8	0.0	1818028	ENCODING_END	n/a	n/a	n/a	n/a	-999	12	[0, 0, 0]	n/a	catFR1	0	R1477J
1495.8	8.15	1818028	DISTRACT_START	n/a	n/a	n/a	n/a	-999	12	[0, 0, 0]	n/a	catFR1	0	R1477J
1503.95	3.948	1826173	PROB	3.948	n/a	n/a	n/a	-999	12	[6, 7, 7]	20	catFR1	0	R1477J
1507.898	2.751	1830121	PROB	2.751	n/a	n/a	n/a	-999	12	[4, 1, 6]	11	catFR1	0	R1477J
1510.649	3.766	1832871	PROB	3.766	n/a	n/a	n/a	-999	12	[8, 5, 3]	16	catFR1	0	R1477J
1514.415	4.316	1836637	PROB	4.316	n/a	n/a	n/a	-999	12	[7, 8, 1]	16	catFR1	0	R1477J
1518.731	0.0	1840953	STOP	n/a	n/a	n/a	n/a	-999	12	[-999, -999, -999]	n/a	catFR1	0	R1477J
1518.731	1.118	1840954	DISTRACT_END	n/a	n/a	n/a	n/a	-999	12	[0, 0, 0]	n/a	catFR1	0	R1477J
1519.849	1.92	1842069	REC_START	n/a	n/a	n/a	n/a	-999	12	[0, 0, 0]	n/a	catFR1	0	R1477J
1521.769	2.09	1843991	REC_WORD	2.09	n/a	CHERRY	Fruit	5	12	[0, 0, 0]	n/a	catFR1	0	R1477J
1523.859	3.715	1846081	REC_WORD	3.715	n/a	STRAWBERRY	Fruit	12	12	[0, 0, 0]	n/a	catFR1	0	R1477J
1527.574	2.012	1849796	REC_WORD	2.012	n/a	ARM	n/a	-999	12	[0, 0, 0]	n/a	catFR1	0	R1477J
1529.586	2.189	1851808	REC_WORD	2.189	n/a	LEG	BodyParts	-999	12	[0, 0, 0]	n/a	catFR1	0	R1477J
1531.775	2.717	1853997	REC_WORD	2.717	n/a	ELBOW	BodyParts	9	12	[0, 0, 0]	n/a	catFR1	0	R1477J
1534.492	2.304	1856713	REC_WORD	2.304	n/a	SHORTS	Clothing	8	12	[0, 0, 0]	n/a	catFR1	0	R1477J
1536.796	0.252	1859017	REC_WORD_VV	0.252	n/a	<>	n/a	-999	12	[0, 0, 0]	n/a	catFR1	0	R1477J
1537.048	2.561	1859269	REC_WORD	2.561	n/a	JEANS	Clothing	-999	12	[0, 0, 0]	n/a	catFR1	0	R1477J
1539.609	3.021	1861830	REC_WORD	3.021	n/a	JACKET	Clothing	2	12	[0, 0, 0]	n/a	catFR1	0	R1477J
1542.63	8.449	1864851	REC_WORD	8.449	n/a	SHIRT	Clothing	1	12	[0, 0, 0]	n/a	catFR1	0	R1477J
1551.079	0.0	1873310	REC_END	n/a	n/a	n/a	n/a	-999	12	[0, 0, 0]	n/a	catFR1	0	R1477J
