onset	duration	sample	trial_type	response_time	stim_file	item_name	category	serialpos	list	test	answer	experiment	session	subject
0.0	74.428	740	INSTRUCT_START	n/a	n/a	n/a	n/a	-999	-999	[0, 0, 0]	n/a	catFR1	1	R1351M
74.428	3.484	75165	INSTRUCT_END	n/a	n/a	n/a	n/a	-999	-999	[0, 0, 0]	n/a	catFR1	1	R1351M
77.912	9.572	78649	MIC TEST_START	n/a	n/a	n/a	n/a	-999	-999	[0, 0, 0]	n/a	catFR1	1	R1351M
87.484	0.012	88220	MIC TEST_END	n/a	n/a	n/a	n/a	-999	-999	[0, 0, 0]	n/a	catFR1	1	R1351M
87.496	0.0	88232	TRIAL_START	n/a	n/a	n/a	n/a	-999	-1	[0, 0, 0]	n/a	catFR1	1	R1351M
87.496	0.001	88232	TRIAL	n/a	n/a	n/a	n/a	-999	-1	[0, 0, 0]	n/a	catFR1	1	R1351M
87.497	4.852	88233	WAITING_START	n/a	n/a	n/a	n/a	-999	-1	[0, 0, 0]	n/a	catFR1	1	R1351M
92.349	0.0	93085	COUNTDOWN_START	n/a	n/a	n/a	n/a	-999	-1	[0, 0, 0]	n/a	catFR1	1	R1351M
92.349	10.429	93085	WAITING_END	n/a	n/a	n/a	n/a	-999	-1	[0, 0, 0]	n/a	catFR1	1	R1351M
102.778	0.001	103514	COUNTDOWN_END	n/a	n/a	n/a	n/a	-999	-1	[0, 0, 0]	n/a	catFR1	1	R1351M
102.779	1.205	103515	ORIENT_START	n/a	n/a	n/a	n/a	-999	-1	[0, 0, 0]	n/a	catFR1	1	R1351M
103.984	0.0	104720	ORIENT_END	n/a	n/a	n/a	n/a	-999	-1	[0, 0, 0]	n/a	catFR1	1	R1351M
103.984	0.773	104720	ENCODING_START	n/a	n/a	n/a	n/a	-999	-1	[0, 0, 0]	n/a	catFR1	1	R1351M
104.757	1.627	105493	WORD	n/a	n/a	LEATHER	n/a	1	-1	[0, 0, 0]	n/a	catFR1	1	R1351M
106.384	0.967	107120	WORD_OFF	n/a	n/a	LEATHER	n/a	1	-1	[0, 0, 0]	n/a	catFR1	1	R1351M
107.351	1.634	108087	WORD	n/a	n/a	FIREMAN	n/a	2	-1	[0, 0, 0]	n/a	catFR1	1	R1351M
108.985	0.917	109720	WORD_OFF	n/a	n/a	FIREMAN	n/a	2	-1	[0, 0, 0]	n/a	catFR1	1	R1351M
109.902	1.632	110637	WORD	n/a	n/a	DENIM	n/a	3	-1	[0, 0, 0]	n/a	catFR1	1	R1351M
111.534	0.775	112269	WORD_OFF	n/a	n/a	DENIM	n/a	3	-1	[0, 0, 0]	n/a	catFR1	1	R1351M
112.309	1.627	113044	WORD	n/a	n/a	SECOND	n/a	4	-1	[0, 0, 0]	n/a	catFR1	1	R1351M
113.936	1.133	114671	WORD_OFF	n/a	n/a	SECOND	n/a	4	-1	[0, 0, 0]	n/a	catFR1	1	R1351M
115.069	1.633	115804	WORD	n/a	n/a	DAY	n/a	5	-1	[0, 0, 0]	n/a	catFR1	1	R1351M
116.702	0.813	117437	WORD_OFF	n/a	n/a	DAY	n/a	5	-1	[0, 0, 0]	n/a	catFR1	1	R1351M
117.515	1.622	118250	WORD	n/a	n/a	FARMER	n/a	6	-1	[0, 0, 0]	n/a	catFR1	1	R1351M
119.137	1.003	119872	WORD_OFF	n/a	n/a	FARMER	n/a	6	-1	[0, 0, 0]	n/a	catFR1	1	R1351M
120.14	1.63	120875	WORD	n/a	n/a	TEACHER	n/a	7	-1	[0, 0, 0]	n/a	catFR1	1	R1351M
121.77	0.938	122505	WORD_OFF	n/a	n/a	TEACHER	n/a	7	-1	[0, 0, 0]	n/a	catFR1	1	R1351M
122.708	1.63	123443	WORD	n/a	n/a	HOUR	n/a	8	-1	[0, 0, 0]	n/a	catFR1	1	R1351M
124.338	0.827	125073	WORD_OFF	n/a	n/a	HOUR	n/a	8	-1	[0, 0, 0]	n/a	catFR1	1	R1351M
125.165	1.622	125900	WORD	n/a	n/a	MINUTE	n/a	9	-1	[0, 0, 0]	n/a	catFR1	1	R1351M
126.787	0.848	127522	WORD_OFF	n/a	n/a	MINUTE	n/a	9	-1	[0, 0, 0]	n/a	catFR1	1	R1351M
127.635	1.637	128370	WORD	n/a	n/a	SILK	n/a	10	-1	[0, 0, 0]	n/a	catFR1	1	R1351M
129.272	0.811	130007	WORD_OFF	n/a	n/a	SILK	n/a	10	-1	[0, 0, 0]	n/a	catFR1	1	R1351M
130.083	1.622	130817	WORD	n/a	n/a	WOOL	n/a	11	-1	[0, 0, 0]	n/a	catFR1	1	R1351M
131.705	1.09	132439	WORD_OFF	n/a	n/a	WOOL	n/a	11	-1	[0, 0, 0]	n/a	catFR1	1	R1351M
132.795	1.628	133529	WORD	n/a	n/a	PLUMBER	n/a	12	-1	[0, 0, 0]	n/a	catFR1	1	R1351M
134.423	0.001	135157	WORD_OFF	n/a	n/a	PLUMBER	n/a	12	-1	[0, 0, 0]	n/a	catFR1	1	R1351M
134.424	0.0	135158	DISTRACT_START	n/a	n/a	n/a	n/a	-999	-1	[0, 0, 0]	n/a	catFR1	1	R1351M
134.424	0.0	135158	ENCODING_END	n/a	n/a	n/a	n/a	-999	-1	[0, 0, 0]	n/a	catFR1	1	R1351M
134.424	0.016	135158	START	n/a	n/a	n/a	n/a	-999	-1	[-999, -999, -999]	n/a	catFR1	1	R1351M
134.44	5.2	135174	PROB	5.173	n/a	n/a	n/a	-999	-1	[5, 5, 4]	14.0	catFR1	1	R1351M
139.64	4.618	140374	PROB	4.589	n/a	n/a	n/a	-999	-1	[4, 5, 4]	13.0	catFR1	1	R1351M
144.258	5.383	144992	PROB	5.357	n/a	n/a	n/a	-999	-1	[6, 8, 8]	22.0	catFR1	1	R1351M
149.641	3.118	150375	PROB	3.094	n/a	n/a	n/a	-999	-1	[7, 3, 1]	11.0	catFR1	1	R1351M
152.759	5.185	153492	PROB	5.185	n/a	n/a	n/a	-999	-1	[6, 5, 7]	18.0	catFR1	1	R1351M
157.944	0.017	158677	STOP	n/a	n/a	n/a	n/a	-999	-1	[-999, -999, -999]	n/a	catFR1	1	R1351M
157.961	0.546	158694	DISTRACT_END	n/a	n/a	n/a	n/a	-999	-1	[0, 0, 0]	n/a	catFR1	1	R1351M
158.507	1.538	159240	RETRIEVAL_ORIENT_START	n/a	n/a	n/a	n/a	-999	-1	[0, 0, 0]	n/a	catFR1	1	R1351M
160.045	0.0	160778	RETRIEVAL_ORIENT_END	n/a	n/a	n/a	n/a	-999	-1	[0, 0, 0]	n/a	catFR1	1	R1351M
160.045	1.264	160778	REC_START	n/a	n/a	n/a	n/a	-999	-1	[0, 0, 0]	n/a	catFR1	1	R1351M
161.309	0.857	162042	REC_WORD_VV	1.264	n/a	<>	n/a	-999	-1	[0, 0, 0]	n/a	catFR1	1	R1351M
162.166	1.376	162899	REC_WORD	2.121	n/a	DENIM	n/a	3	-1	[0, 0, 0]	n/a	catFR1	1	R1351M
163.542	1.473	164275	REC_WORD	3.497	n/a	DAY	n/a	5	-1	[0, 0, 0]	n/a	catFR1	1	R1351M
165.015	1.926	165748	REC_WORD	4.97	n/a	TEACHER	n/a	7	-1	[0, 0, 0]	n/a	catFR1	1	R1351M
166.941	2.004	167674	REC_WORD	6.896	n/a	HOUR	n/a	8	-1	[0, 0, 0]	n/a	catFR1	1	R1351M
168.945	2.123	169678	REC_WORD	8.9	n/a	MINUTE	n/a	9	-1	[0, 0, 0]	n/a	catFR1	1	R1351M
171.068	1.57	171801	REC_WORD	11.023	n/a	LEATHER	n/a	1	-1	[0, 0, 0]	n/a	catFR1	1	R1351M
172.638	1.245	173371	REC_WORD_VV	12.593	n/a	<>	n/a	-999	-1	[0, 0, 0]	n/a	catFR1	1	R1351M
173.883	7.942	174616	REC_WORD	13.838	n/a	FIREMAN	n/a	2	-1	[0, 0, 0]	n/a	catFR1	1	R1351M
181.825	8.234	182557	REC_WORD_VV	21.78	n/a	<>	n/a	-999	-1	[0, 0, 0]	n/a	catFR1	1	R1351M
190.059	0.001	190791	REC_END	n/a	n/a	n/a	n/a	-999	-1	[0, 0, 0]	n/a	catFR1	1	R1351M
190.06	9.876	190792	PRACTICE_POST_INSTRUCT_START	n/a	n/a	n/a	n/a	-999	-1	[0, 0, 0]	n/a	catFR1	1	R1351M
199.936	0.001	200667	PRACTICE_POST_INSTRUCT_END	n/a	n/a	n/a	n/a	-999	-1	[0, 0, 0]	n/a	catFR1	1	R1351M
199.937	0.025	200668	TRIAL_END	n/a	n/a	n/a	n/a	-999	-1	[0, 0, 0]	n/a	catFR1	1	R1351M
199.962	0.001	200693	TRIAL_START	n/a	n/a	n/a	n/a	-999	1	[0, 0, 0]	n/a	catFR1	1	R1351M
199.963	0.0	200694	TRIAL	n/a	n/a	n/a	n/a	-999	1	[0, 0, 0]	n/a	catFR1	1	R1351M
199.963	4.057	200694	WAITING_START	n/a	n/a	n/a	n/a	-999	1	[0, 0, 0]	n/a	catFR1	1	R1351M
204.02	0.0	204751	WAITING_END	n/a	n/a	n/a	n/a	-999	1	[0, 0, 0]	n/a	catFR1	1	R1351M
204.02	10.43	204751	COUNTDOWN_START	n/a	n/a	n/a	n/a	-999	1	[0, 0, 0]	n/a	catFR1	1	R1351M
214.45	0.001	215181	COUNTDOWN_END	n/a	n/a	n/a	n/a	-999	1	[0, 0, 0]	n/a	catFR1	1	R1351M
214.451	1.12	215182	ORIENT_START	n/a	n/a	n/a	n/a	-999	1	[0, 0, 0]	n/a	catFR1	1	R1351M
215.571	0.001	216302	ORIENT_END	n/a	n/a	n/a	n/a	-999	1	[0, 0, 0]	n/a	catFR1	1	R1351M
215.572	1.105	216303	ENCODING_START	n/a	n/a	n/a	n/a	-999	1	[0, 0, 0]	n/a	catFR1	1	R1351M
216.677	1.629	217408	WORD	n/a	wordpools/wordpool_categorized_EN.txt	NOSE	BodyParts	1	1	[0, 0, 0]	n/a	catFR1	1	R1351M
218.306	0.805	219036	WORD_OFF	n/a	n/a	NOSE	BodyParts	1	1	[0, 0, 0]	n/a	catFR1	1	R1351M
219.111	1.627	219841	WORD	n/a	wordpools/wordpool_categorized_EN.txt	ARM	BodyParts	2	1	[0, 0, 0]	n/a	catFR1	1	R1351M
220.738	0.78	221468	WORD_OFF	n/a	n/a	ARM	BodyParts	2	1	[0, 0, 0]	n/a	catFR1	1	R1351M
221.518	1.622	222248	WORD	n/a	wordpools/wordpool_categorized_EN.txt	LIME	Fruit	3	1	[0, 0, 0]	n/a	catFR1	1	R1351M
223.14	0.952	223870	WORD_OFF	n/a	n/a	LIME	Fruit	3	1	[0, 0, 0]	n/a	catFR1	1	R1351M
224.092	1.631	224822	WORD	n/a	wordpools/wordpool_categorized_EN.txt	APPLE	Fruit	4	1	[0, 0, 0]	n/a	catFR1	1	R1351M
225.723	0.766	226453	WORD_OFF	n/a	n/a	APPLE	Fruit	4	1	[0, 0, 0]	n/a	catFR1	1	R1351M
226.489	1.635	227219	WORD	n/a	wordpools/wordpool_categorized_EN.txt	STREAM	Landscapes	5	1	[0, 0, 0]	n/a	catFR1	1	R1351M
228.124	0.977	228854	WORD_OFF	n/a	n/a	STREAM	Landscapes	5	1	[0, 0, 0]	n/a	catFR1	1	R1351M
229.101	1.623	229831	WORD	n/a	wordpools/wordpool_categorized_EN.txt	BEACH	Landscapes	6	1	[0, 0, 0]	n/a	catFR1	1	R1351M
230.724	0.914	231454	WORD_OFF	n/a	n/a	BEACH	Landscapes	6	1	[0, 0, 0]	n/a	catFR1	1	R1351M
231.638	1.637	232368	WORD	n/a	wordpools/wordpool_categorized_EN.txt	ELBOW	BodyParts	7	1	[0, 0, 0]	n/a	catFR1	1	R1351M
233.275	1.031	234005	WORD_OFF	n/a	n/a	ELBOW	BodyParts	7	1	[0, 0, 0]	n/a	catFR1	1	R1351M
234.306	1.637	235036	WORD	n/a	wordpools/wordpool_categorized_EN.txt	FOOT	BodyParts	8	1	[0, 0, 0]	n/a	catFR1	1	R1351M
235.943	0.951	236673	WORD_OFF	n/a	n/a	FOOT	BodyParts	8	1	[0, 0, 0]	n/a	catFR1	1	R1351M
236.894	1.633	237624	WORD	n/a	wordpools/wordpool_categorized_EN.txt	RIVER	Landscapes	9	1	[0, 0, 0]	n/a	catFR1	1	R1351M
238.527	0.787	239257	WORD_OFF	n/a	n/a	RIVER	Landscapes	9	1	[0, 0, 0]	n/a	catFR1	1	R1351M
239.314	1.63	240044	WORD	n/a	wordpools/wordpool_categorized_EN.txt	OCEAN	Landscapes	10	1	[0, 0, 0]	n/a	catFR1	1	R1351M
240.944	0.934	241673	WORD_OFF	n/a	n/a	OCEAN	Landscapes	10	1	[0, 0, 0]	n/a	catFR1	1	R1351M
241.878	1.633	242607	WORD	n/a	wordpools/wordpool_categorized_EN.txt	BLUEBERRY	Fruit	11	1	[0, 0, 0]	n/a	catFR1	1	R1351M
243.511	0.973	244240	WORD_OFF	n/a	n/a	BLUEBERRY	Fruit	11	1	[0, 0, 0]	n/a	catFR1	1	R1351M
244.484	1.627	245213	WORD	n/a	wordpools/wordpool_categorized_EN.txt	CHERRY	Fruit	12	1	[0, 0, 0]	n/a	catFR1	1	R1351M
246.111	0.001	246840	WORD_OFF	n/a	n/a	CHERRY	Fruit	12	1	[0, 0, 0]	n/a	catFR1	1	R1351M
246.112	0.0	246841	ENCODING_END	n/a	n/a	n/a	n/a	-999	1	[0, 0, 0]	n/a	catFR1	1	R1351M
246.112	0.0	246841	DISTRACT_START	n/a	n/a	n/a	n/a	-999	1	[0, 0, 0]	n/a	catFR1	1	R1351M
246.112	0.016	246841	START	n/a	n/a	n/a	n/a	-999	1	[-999, -999, -999]	n/a	catFR1	1	R1351M
246.128	5.384	246857	PROB	5.357	n/a	n/a	n/a	-999	1	[9, 9, 6]	24.0	catFR1	1	R1351M
251.512	4.751	252241	PROB	4.717	n/a	n/a	n/a	-999	1	[6, 3, 5]	14.0	catFR1	1	R1351M
256.263	4.383	256992	PROB	4.356	n/a	n/a	n/a	-999	1	[7, 8, 8]	23.0	catFR1	1	R1351M
260.646	4.901	261375	PROB	4.87	n/a	n/a	n/a	-999	1	[4, 8, 9]	21.0	catFR1	1	R1351M
265.547	3.312	266275	PROB	3.312	n/a	n/a	n/a	-999	1	[2, 3, 6]	11.0	catFR1	1	R1351M
268.859	0.022	269587	STOP	n/a	n/a	n/a	n/a	-999	1	[-999, -999, -999]	n/a	catFR1	1	R1351M
268.881	0.571	269609	DISTRACT_END	n/a	n/a	n/a	n/a	-999	1	[0, 0, 0]	n/a	catFR1	1	R1351M
269.452	1.681	270180	RETRIEVAL_ORIENT_START	n/a	n/a	n/a	n/a	-999	1	[0, 0, 0]	n/a	catFR1	1	R1351M
271.133	0.0	271861	RETRIEVAL_ORIENT_END	n/a	n/a	n/a	n/a	-999	1	[0, 0, 0]	n/a	catFR1	1	R1351M
271.133	0.975	271861	REC_START	n/a	n/a	n/a	n/a	-999	1	[0, 0, 0]	n/a	catFR1	1	R1351M
272.108	1.802	272836	REC_WORD	0.975	n/a	NOSE	BodyParts	1	1	[0, 0, 0]	n/a	catFR1	1	R1351M
273.91	4.511	274638	REC_WORD	2.777	n/a	ELBOW	BodyParts	7	1	[0, 0, 0]	n/a	catFR1	1	R1351M
278.421	1.026	279149	REC_WORD	7.288	n/a	FINGERS	n/a	-999	1	[0, 0, 0]	n/a	catFR1	1	R1351M
279.447	1.15	280175	REC_WORD_VV	8.314	n/a	<>	n/a	-999	1	[0, 0, 0]	n/a	catFR1	1	R1351M
280.597	1.721	281325	REC_WORD	9.464	n/a	APPLE	Fruit	4	1	[0, 0, 0]	n/a	catFR1	1	R1351M
282.318	5.765	283046	REC_WORD	11.185	n/a	LIME	Fruit	3	1	[0, 0, 0]	n/a	catFR1	1	R1351M
288.083	2.011	288810	REC_WORD	16.95	n/a	STREAM	Landscapes	5	1	[0, 0, 0]	n/a	catFR1	1	R1351M
290.094	3.933	290821	REC_WORD	18.961	n/a	OCEAN	Landscapes	10	1	[0, 0, 0]	n/a	catFR1	1	R1351M
294.027	0.596	294754	REC_WORD_VV	22.894	n/a	<>	n/a	-999	1	[0, 0, 0]	n/a	catFR1	1	R1351M
294.623	6.524	295350	REC_WORD	23.49	n/a	RIVER	Landscapes	9	1	[0, 0, 0]	n/a	catFR1	1	R1351M
301.147	0.0	301874	REC_END	n/a	n/a	n/a	n/a	-999	1	[0, 0, 0]	n/a	catFR1	1	R1351M
301.147	0.022	301874	TRIAL_END	n/a	n/a	n/a	n/a	-999	1	[0, 0, 0]	n/a	catFR1	1	R1351M
301.169	0.0	301896	TRIAL_START	n/a	n/a	n/a	n/a	-999	2	[0, 0, 0]	n/a	catFR1	1	R1351M
301.169	0.0	301896	TRIAL	n/a	n/a	n/a	n/a	-999	2	[0, 0, 0]	n/a	catFR1	1	R1351M
301.169	7.904	301896	WAITING_START	n/a	n/a	n/a	n/a	-999	2	[0, 0, 0]	n/a	catFR1	1	R1351M
309.073	0.001	309799	WAITING_END	n/a	n/a	n/a	n/a	-999	2	[0, 0, 0]	n/a	catFR1	1	R1351M
309.074	10.429	309800	COUNTDOWN_START	n/a	n/a	n/a	n/a	-999	2	[0, 0, 0]	n/a	catFR1	1	R1351M
319.503	0.0	320229	COUNTDOWN_END	n/a	n/a	n/a	n/a	-999	2	[0, 0, 0]	n/a	catFR1	1	R1351M
319.503	1.072	320229	ORIENT_START	n/a	n/a	n/a	n/a	-999	2	[0, 0, 0]	n/a	catFR1	1	R1351M
320.575	0.0	321301	ENCODING_START	n/a	n/a	n/a	n/a	-999	2	[0, 0, 0]	n/a	catFR1	1	R1351M
320.575	0.926	321301	ORIENT_END	n/a	n/a	n/a	n/a	-999	2	[0, 0, 0]	n/a	catFR1	1	R1351M
321.501	1.625	322227	WORD	n/a	wordpools/wordpool_categorized_EN.txt	PIGEON	Birds	1	2	[0, 0, 0]	n/a	catFR1	1	R1351M
323.126	1.104	323852	WORD_OFF	n/a	n/a	PIGEON	Birds	1	2	[0, 0, 0]	n/a	catFR1	1	R1351M
324.23	1.629	324956	WORD	n/a	wordpools/wordpool_categorized_EN.txt	CARDINAL	Birds	2	2	[0, 0, 0]	n/a	catFR1	1	R1351M
325.859	1.147	326585	WORD_OFF	n/a	n/a	CARDINAL	Birds	2	2	[0, 0, 0]	n/a	catFR1	1	R1351M
327.006	1.637	327732	WORD	n/a	wordpools/wordpool_categorized_EN.txt	TRUCK	Vehicles	3	2	[0, 0, 0]	n/a	catFR1	1	R1351M
328.643	1.058	329368	WORD_OFF	n/a	n/a	TRUCK	Vehicles	3	2	[0, 0, 0]	n/a	catFR1	1	R1351M
329.701	1.61	330426	WORD	n/a	wordpools/wordpool_categorized_EN.txt	CAR	Vehicles	4	2	[0, 0, 0]	n/a	catFR1	1	R1351M
331.311	1.068	332036	WORD_OFF	n/a	n/a	CAR	Vehicles	4	2	[0, 0, 0]	n/a	catFR1	1	R1351M
332.379	1.616	333104	WORD	n/a	wordpools/wordpool_categorized_EN.txt	GIRAFFE	Zoo	5	2	[0, 0, 0]	n/a	catFR1	1	R1351M
333.995	1.018	334720	WORD_OFF	n/a	n/a	GIRAFFE	Zoo	5	2	[0, 0, 0]	n/a	catFR1	1	R1351M
335.013	1.631	335738	WORD	n/a	wordpools/wordpool_categorized_EN.txt	LION	Zoo	6	2	[0, 0, 0]	n/a	catFR1	1	R1351M
336.644	0.903	337369	WORD_OFF	n/a	n/a	LION	Zoo	6	2	[0, 0, 0]	n/a	catFR1	1	R1351M
337.547	1.632	338272	WORD	n/a	wordpools/wordpool_categorized_EN.txt	SEAGULL	Birds	7	2	[0, 0, 0]	n/a	catFR1	1	R1351M
339.179	1.127	339904	WORD_OFF	n/a	n/a	SEAGULL	Birds	7	2	[0, 0, 0]	n/a	catFR1	1	R1351M
340.306	1.624	341031	WORD	n/a	wordpools/wordpool_categorized_EN.txt	HAWK	Birds	8	2	[0, 0, 0]	n/a	catFR1	1	R1351M
341.93	1.131	342655	WORD_OFF	n/a	n/a	HAWK	Birds	8	2	[0, 0, 0]	n/a	catFR1	1	R1351M
343.061	1.635	343786	WORD	n/a	wordpools/wordpool_categorized_EN.txt	ORANGUTAN	Zoo	9	2	[0, 0, 0]	n/a	catFR1	1	R1351M
344.696	0.858	345421	WORD_OFF	n/a	n/a	ORANGUTAN	Zoo	9	2	[0, 0, 0]	n/a	catFR1	1	R1351M
345.554	1.627	346279	WORD	n/a	wordpools/wordpool_categorized_EN.txt	TIGER	Zoo	10	2	[0, 0, 0]	n/a	catFR1	1	R1351M
347.181	1.108	347906	WORD_OFF	n/a	n/a	TIGER	Zoo	10	2	[0, 0, 0]	n/a	catFR1	1	R1351M
348.289	1.626	349014	WORD	n/a	wordpools/wordpool_categorized_EN.txt	MOTORCYCLE	Vehicles	11	2	[0, 0, 0]	n/a	catFR1	1	R1351M
349.915	1.135	350640	WORD_OFF	n/a	n/a	MOTORCYCLE	Vehicles	11	2	[0, 0, 0]	n/a	catFR1	1	R1351M
351.05	1.631	351774	WORD	n/a	wordpools/wordpool_categorized_EN.txt	BIKE	Vehicles	12	2	[0, 0, 0]	n/a	catFR1	1	R1351M
352.681	0.0	353405	WORD_OFF	n/a	n/a	BIKE	Vehicles	12	2	[0, 0, 0]	n/a	catFR1	1	R1351M
352.681	0.001	353405	ENCODING_END	n/a	n/a	n/a	n/a	-999	2	[0, 0, 0]	n/a	catFR1	1	R1351M
352.682	0.0	353406	DISTRACT_START	n/a	n/a	n/a	n/a	-999	2	[0, 0, 0]	n/a	catFR1	1	R1351M
352.682	0.015	353406	START	n/a	n/a	n/a	n/a	-999	2	[-999, -999, -999]	n/a	catFR1	1	R1351M
352.697	3.851	353421	PROB	3.819	n/a	n/a	n/a	-999	2	[3, 3, 3]	9.0	catFR1	1	R1351M
356.548	4.051	357272	PROB	4.015	n/a	n/a	n/a	-999	2	[4, 9, 7]	20.0	catFR1	1	R1351M
360.599	3.918	361323	PROB	3.893	n/a	n/a	n/a	-999	2	[3, 7, 6]	16.0	catFR1	1	R1351M
364.517	4.651	365241	PROB	4.615	n/a	n/a	n/a	-999	2	[9, 8, 1]	18.0	catFR1	1	R1351M
369.168	4.244	369892	PROB	4.244	n/a	n/a	n/a	-999	2	[7, 8, 1]	16.0	catFR1	1	R1351M
373.412	0.007	374135	STOP	n/a	n/a	n/a	n/a	-999	2	[-999, -999, -999]	n/a	catFR1	1	R1351M
373.419	0.547	374142	DISTRACT_END	n/a	n/a	n/a	n/a	-999	2	[0, 0, 0]	n/a	catFR1	1	R1351M
373.966	1.553	374689	RETRIEVAL_ORIENT_START	n/a	n/a	n/a	n/a	-999	2	[0, 0, 0]	n/a	catFR1	1	R1351M
375.519	0.001	376242	RETRIEVAL_ORIENT_END	n/a	n/a	n/a	n/a	-999	2	[0, 0, 0]	n/a	catFR1	1	R1351M
375.52	2.567	376243	REC_START	n/a	n/a	n/a	n/a	-999	2	[0, 0, 0]	n/a	catFR1	1	R1351M
378.087	0.681	378810	REC_WORD	2.567	n/a	CARDINAL	Birds	2	2	[0, 0, 0]	n/a	catFR1	1	R1351M
378.768	1.646	379491	REC_WORD	3.248	n/a	HAWK	Birds	8	2	[0, 0, 0]	n/a	catFR1	1	R1351M
380.414	3.361	381137	REC_WORD	4.894	n/a	PIGEON	Birds	1	2	[0, 0, 0]	n/a	catFR1	1	R1351M
383.775	1.125	384498	REC_WORD	8.255	n/a	CAR	Vehicles	4	2	[0, 0, 0]	n/a	catFR1	1	R1351M
384.9	1.142	385623	REC_WORD	9.38	n/a	TRUCK	Vehicles	3	2	[0, 0, 0]	n/a	catFR1	1	R1351M
386.042	7.578	386765	REC_WORD	10.522	n/a	BIKE	Vehicles	12	2	[0, 0, 0]	n/a	catFR1	1	R1351M
393.62	6.653	394343	REC_WORD	18.1	n/a	MOTORCYCLE	Vehicles	11	2	[0, 0, 0]	n/a	catFR1	1	R1351M
400.273	5.259	400995	REC_WORD_VV	24.753	n/a	<>	n/a	-999	2	[0, 0, 0]	n/a	catFR1	1	R1351M
405.532	0.001	406254	REC_END	n/a	n/a	n/a	n/a	-999	2	[0, 0, 0]	n/a	catFR1	1	R1351M
405.533	0.025	406255	TRIAL_END	n/a	n/a	n/a	n/a	-999	2	[0, 0, 0]	n/a	catFR1	1	R1351M
405.558	0.0	406280	TRIAL_START	n/a	n/a	n/a	n/a	-999	3	[0, 0, 0]	n/a	catFR1	1	R1351M
405.558	0.0	406280	TRIAL	n/a	n/a	n/a	n/a	-999	3	[0, 0, 0]	n/a	catFR1	1	R1351M
405.558	5.084	406280	WAITING_START	n/a	n/a	n/a	n/a	-999	3	[0, 0, 0]	n/a	catFR1	1	R1351M
410.642	0.0	411364	WAITING_END	n/a	n/a	n/a	n/a	-999	3	[0, 0, 0]	n/a	catFR1	1	R1351M
410.642	10.429	411364	COUNTDOWN_START	n/a	n/a	n/a	n/a	-999	3	[0, 0, 0]	n/a	catFR1	1	R1351M
421.071	0.001	421792	COUNTDOWN_END	n/a	n/a	n/a	n/a	-999	3	[0, 0, 0]	n/a	catFR1	1	R1351M
421.072	1.09	421793	ORIENT_START	n/a	n/a	n/a	n/a	-999	3	[0, 0, 0]	n/a	catFR1	1	R1351M
422.162	0.0	422883	ENCODING_START	n/a	n/a	n/a	n/a	-999	3	[0, 0, 0]	n/a	catFR1	1	R1351M
422.162	0.857	422883	ORIENT_END	n/a	n/a	n/a	n/a	-999	3	[0, 0, 0]	n/a	catFR1	1	R1351M
423.019	1.626	423740	WORD	n/a	wordpools/wordpool_categorized_EN.txt	JACKET	Clothing	1	3	[0, 0, 0]	n/a	catFR1	1	R1351M
424.645	1.143	425366	WORD_OFF	n/a	n/a	JACKET	Clothing	1	3	[0, 0, 0]	n/a	catFR1	1	R1351M
425.788	1.625	426509	WORD	n/a	wordpools/wordpool_categorized_EN.txt	COAT	Clothing	2	3	[0, 0, 0]	n/a	catFR1	1	R1351M
427.413	0.884	428134	WORD_OFF	n/a	n/a	COAT	Clothing	2	3	[0, 0, 0]	n/a	catFR1	1	R1351M
428.297	1.633	429018	WORD	n/a	wordpools/wordpool_categorized_EN.txt	PLUM	Fruit	3	3	[0, 0, 0]	n/a	catFR1	1	R1351M
429.93	1.067	430651	WORD_OFF	n/a	n/a	PLUM	Fruit	3	3	[0, 0, 0]	n/a	catFR1	1	R1351M
430.997	1.633	431718	WORD	n/a	wordpools/wordpool_categorized_EN.txt	PEAR	Fruit	4	3	[0, 0, 0]	n/a	catFR1	1	R1351M
432.63	1.091	433351	WORD_OFF	n/a	n/a	PEAR	Fruit	4	3	[0, 0, 0]	n/a	catFR1	1	R1351M
433.721	1.627	434442	WORD	n/a	wordpools/wordpool_categorized_EN.txt	CREEK	Landscapes	5	3	[0, 0, 0]	n/a	catFR1	1	R1351M
435.348	1.014	436069	WORD_OFF	n/a	n/a	CREEK	Landscapes	5	3	[0, 0, 0]	n/a	catFR1	1	R1351M
436.362	1.636	437083	WORD	n/a	wordpools/wordpool_categorized_EN.txt	MOUNTAIN	Landscapes	6	3	[0, 0, 0]	n/a	catFR1	1	R1351M
437.998	0.775	438719	WORD_OFF	n/a	n/a	MOUNTAIN	Landscapes	6	3	[0, 0, 0]	n/a	catFR1	1	R1351M
438.773	1.626	439493	WORD	n/a	wordpools/wordpool_categorized_EN.txt	PEACH	Fruit	7	3	[0, 0, 0]	n/a	catFR1	1	R1351M
440.399	1.082	441119	WORD_OFF	n/a	n/a	PEACH	Fruit	7	3	[0, 0, 0]	n/a	catFR1	1	R1351M
441.481	1.635	442201	WORD	n/a	wordpools/wordpool_categorized_EN.txt	LEMON	Fruit	8	3	[0, 0, 0]	n/a	catFR1	1	R1351M
443.116	0.845	443836	WORD_OFF	n/a	n/a	LEMON	Fruit	8	3	[0, 0, 0]	n/a	catFR1	1	R1351M
443.961	1.621	444681	WORD	n/a	wordpools/wordpool_categorized_EN.txt	SHOES	Clothing	9	3	[0, 0, 0]	n/a	catFR1	1	R1351M
445.582	0.848	446302	WORD_OFF	n/a	n/a	SHOES	Clothing	9	3	[0, 0, 0]	n/a	catFR1	1	R1351M
446.43	1.637	447150	WORD	n/a	wordpools/wordpool_categorized_EN.txt	SHORTS	Clothing	10	3	[0, 0, 0]	n/a	catFR1	1	R1351M
448.067	0.992	448787	WORD_OFF	n/a	n/a	SHORTS	Clothing	10	3	[0, 0, 0]	n/a	catFR1	1	R1351M
449.059	1.624	449779	WORD	n/a	wordpools/wordpool_categorized_EN.txt	WOODS	Landscapes	11	3	[0, 0, 0]	n/a	catFR1	1	R1351M
450.683	0.91	451403	WORD_OFF	n/a	n/a	WOODS	Landscapes	11	3	[0, 0, 0]	n/a	catFR1	1	R1351M
451.593	1.625	452313	WORD	n/a	wordpools/wordpool_categorized_EN.txt	HILLS	Landscapes	12	3	[0, 0, 0]	n/a	catFR1	1	R1351M
453.218	0.0	453938	WORD_OFF	n/a	n/a	HILLS	Landscapes	12	3	[0, 0, 0]	n/a	catFR1	1	R1351M
453.218	0.001	453938	ENCODING_END	n/a	n/a	n/a	n/a	-999	3	[0, 0, 0]	n/a	catFR1	1	R1351M
453.219	0.0	453939	DISTRACT_START	n/a	n/a	n/a	n/a	-999	3	[0, 0, 0]	n/a	catFR1	1	R1351M
453.219	0.015	453939	START	n/a	n/a	n/a	n/a	-999	3	[-999, -999, -999]	n/a	catFR1	1	R1351M
453.234	4.918	453954	PROB	4.891	n/a	n/a	n/a	-999	3	[3, 5, 6]	14.0	catFR1	1	R1351M
458.152	3.666	458872	PROB	3.643	n/a	n/a	n/a	-999	3	[7, 4, 4]	15.0	catFR1	1	R1351M
461.818	2.951	462537	PROB	2.922	n/a	n/a	n/a	-999	3	[7, 3, 2]	12.0	catFR1	1	R1351M
464.769	4.602	465488	PROB	4.571	n/a	n/a	n/a	-999	3	[8, 9, 6]	23.0	catFR1	1	R1351M
469.371	3.15	470090	PROB	3.113	n/a	n/a	n/a	-999	3	[7, 1, 4]	12.0	catFR1	1	R1351M
472.521	3.795	473240	PROB	3.795	n/a	n/a	n/a	-999	3	[9, 2, 5]	12.0	catFR1	1	R1351M
476.316	0.006	477035	STOP	n/a	n/a	n/a	n/a	-999	3	[-999, -999, -999]	n/a	catFR1	1	R1351M
476.322	0.5	477041	DISTRACT_END	n/a	n/a	n/a	n/a	-999	3	[0, 0, 0]	n/a	catFR1	1	R1351M
476.822	1.634	477541	RETRIEVAL_ORIENT_START	n/a	n/a	n/a	n/a	-999	3	[0, 0, 0]	n/a	catFR1	1	R1351M
478.456	0.0	479175	REC_START	n/a	n/a	n/a	n/a	-999	3	[0, 0, 0]	n/a	catFR1	1	R1351M
478.456	0.917	479175	RETRIEVAL_ORIENT_END	n/a	n/a	n/a	n/a	-999	3	[0, 0, 0]	n/a	catFR1	1	R1351M
479.373	0.844	480092	REC_WORD_VV	0.917	n/a	<>	n/a	-999	3	[0, 0, 0]	n/a	catFR1	1	R1351M
480.217	1.079	480936	REC_WORD	1.761	n/a	JACKET	Clothing	1	3	[0, 0, 0]	n/a	catFR1	1	R1351M
481.296	3.65	482015	REC_WORD	2.84	n/a	COAT	Clothing	2	3	[0, 0, 0]	n/a	catFR1	1	R1351M
484.946	1.262	485664	REC_WORD	6.49	n/a	PLUM	Fruit	3	3	[0, 0, 0]	n/a	catFR1	1	R1351M
486.208	2.067	486926	REC_WORD	7.752	n/a	PEACH	Fruit	7	3	[0, 0, 0]	n/a	catFR1	1	R1351M
488.275	1.279	488993	REC_WORD_VV	9.819	n/a	<>	n/a	-999	3	[0, 0, 0]	n/a	catFR1	1	R1351M
489.554	0.773	490272	REC_WORD	11.098	n/a	LIME	Fruit	-999	3	[0, 0, 0]	n/a	catFR1	1	R1351M
490.327	10.911	491045	REC_WORD	11.871	n/a	LEMON	Fruit	8	3	[0, 0, 0]	n/a	catFR1	1	R1351M
501.238	0.829	501956	REC_WORD_VV	22.782	n/a	<>	n/a	-999	3	[0, 0, 0]	n/a	catFR1	1	R1351M
502.067	1.051	502785	REC_WORD	23.611	n/a	STREAM	Landscapes	-999	3	[0, 0, 0]	n/a	catFR1	1	R1351M
503.118	5.351	503836	REC_WORD	24.662	n/a	MOUNTAIN	Landscapes	6	3	[0, 0, 0]	n/a	catFR1	1	R1351M
508.469	0.0	509186	REC_END	n/a	n/a	n/a	n/a	-999	3	[0, 0, 0]	n/a	catFR1	1	R1351M
508.469	0.022	509186	TRIAL_END	n/a	n/a	n/a	n/a	-999	3	[0, 0, 0]	n/a	catFR1	1	R1351M
508.491	0.0	509208	TRIAL_START	n/a	n/a	n/a	n/a	-999	4	[0, 0, 0]	n/a	catFR1	1	R1351M
508.491	0.001	509208	TRIAL	n/a	n/a	n/a	n/a	-999	4	[0, 0, 0]	n/a	catFR1	1	R1351M
508.492	7.972	509209	WAITING_START	n/a	n/a	n/a	n/a	-999	4	[0, 0, 0]	n/a	catFR1	1	R1351M
516.464	0.0	517181	WAITING_END	n/a	n/a	n/a	n/a	-999	4	[0, 0, 0]	n/a	catFR1	1	R1351M
516.464	10.429	517181	COUNTDOWN_START	n/a	n/a	n/a	n/a	-999	4	[0, 0, 0]	n/a	catFR1	1	R1351M
526.893	0.0	527609	ORIENT_START	n/a	n/a	n/a	n/a	-999	4	[0, 0, 0]	n/a	catFR1	1	R1351M
526.893	1.173	527609	COUNTDOWN_END	n/a	n/a	n/a	n/a	-999	4	[0, 0, 0]	n/a	catFR1	1	R1351M
528.066	0.0	528782	ORIENT_END	n/a	n/a	n/a	n/a	-999	4	[0, 0, 0]	n/a	catFR1	1	R1351M
528.066	0.81	528782	ENCODING_START	n/a	n/a	n/a	n/a	-999	4	[0, 0, 0]	n/a	catFR1	1	R1351M
528.876	1.623	529592	WORD	n/a	wordpools/wordpool_categorized_EN.txt	COMPUTER	Electronics	1	4	[0, 0, 0]	n/a	catFR1	1	R1351M
530.499	1.047	531215	WORD_OFF	n/a	n/a	COMPUTER	Electronics	1	4	[0, 0, 0]	n/a	catFR1	1	R1351M
531.546	1.621	532262	WORD	n/a	wordpools/wordpool_categorized_EN.txt	TELEVISION	Electronics	2	4	[0, 0, 0]	n/a	catFR1	1	R1351M
533.167	0.99	533883	WORD_OFF	n/a	n/a	TELEVISION	Electronics	2	4	[0, 0, 0]	n/a	catFR1	1	R1351M
534.157	1.626	534873	WORD	n/a	wordpools/wordpool_categorized_EN.txt	FISH	OceanAnimals	3	4	[0, 0, 0]	n/a	catFR1	1	R1351M
535.783	1.109	536499	WORD_OFF	n/a	n/a	FISH	OceanAnimals	3	4	[0, 0, 0]	n/a	catFR1	1	R1351M
536.892	1.626	537608	WORD	n/a	wordpools/wordpool_categorized_EN.txt	OYSTER	OceanAnimals	4	4	[0, 0, 0]	n/a	catFR1	1	R1351M
538.518	0.781	539234	WORD_OFF	n/a	n/a	OYSTER	OceanAnimals	4	4	[0, 0, 0]	n/a	catFR1	1	R1351M
539.299	1.636	540015	WORD	n/a	wordpools/wordpool_categorized_EN.txt	ELEPHANT	Zoo	5	4	[0, 0, 0]	n/a	catFR1	1	R1351M
540.935	1.012	541651	WORD_OFF	n/a	n/a	ELEPHANT	Zoo	5	4	[0, 0, 0]	n/a	catFR1	1	R1351M
541.947	1.621	542663	WORD	n/a	wordpools/wordpool_categorized_EN.txt	CHEETAH	Zoo	6	4	[0, 0, 0]	n/a	catFR1	1	R1351M
543.568	1.117	544284	WORD_OFF	n/a	n/a	CHEETAH	Zoo	6	4	[0, 0, 0]	n/a	catFR1	1	R1351M
544.685	1.617	545401	WORD	n/a	wordpools/wordpool_categorized_EN.txt	RADIO	Electronics	7	4	[0, 0, 0]	n/a	catFR1	1	R1351M
546.302	0.966	547018	WORD_OFF	n/a	n/a	RADIO	Electronics	7	4	[0, 0, 0]	n/a	catFR1	1	R1351M
547.268	1.634	547984	WORD	n/a	wordpools/wordpool_categorized_EN.txt	STEREO	Electronics	8	4	[0, 0, 0]	n/a	catFR1	1	R1351M
548.902	0.919	549617	WORD_OFF	n/a	n/a	STEREO	Electronics	8	4	[0, 0, 0]	n/a	catFR1	1	R1351M
549.821	1.616	550536	WORD	n/a	wordpools/wordpool_categorized_EN.txt	PANDA	Zoo	9	4	[0, 0, 0]	n/a	catFR1	1	R1351M
551.437	1.079	552152	WORD_OFF	n/a	n/a	PANDA	Zoo	9	4	[0, 0, 0]	n/a	catFR1	1	R1351M
552.516	1.638	553231	WORD	n/a	wordpools/wordpool_categorized_EN.txt	MONKEY	Zoo	10	4	[0, 0, 0]	n/a	catFR1	1	R1351M
554.154	0.837	554869	WORD_OFF	n/a	n/a	MONKEY	Zoo	10	4	[0, 0, 0]	n/a	catFR1	1	R1351M
554.991	1.629	555706	WORD	n/a	wordpools/wordpool_categorized_EN.txt	OCTOPUS	OceanAnimals	11	4	[0, 0, 0]	n/a	catFR1	1	R1351M
556.62	0.865	557335	WORD_OFF	n/a	n/a	OCTOPUS	OceanAnimals	11	4	[0, 0, 0]	n/a	catFR1	1	R1351M
557.485	1.637	558200	WORD	n/a	wordpools/wordpool_categorized_EN.txt	LOBSTER	OceanAnimals	12	4	[0, 0, 0]	n/a	catFR1	1	R1351M
559.122	0.0	559837	WORD_OFF	n/a	n/a	LOBSTER	OceanAnimals	12	4	[0, 0, 0]	n/a	catFR1	1	R1351M
559.122	0.001	559837	ENCODING_END	n/a	n/a	n/a	n/a	-999	4	[0, 0, 0]	n/a	catFR1	1	R1351M
559.123	0.0	559838	DISTRACT_START	n/a	n/a	n/a	n/a	-999	4	[0, 0, 0]	n/a	catFR1	1	R1351M
559.123	0.015	559838	START	n/a	n/a	n/a	n/a	-999	4	[-999, -999, -999]	n/a	catFR1	1	R1351M
559.138	4.184	559853	PROB	4.161	n/a	n/a	n/a	-999	4	[3, 6, 3]	12.0	catFR1	1	R1351M
563.322	3.283	564037	PROB	3.256	n/a	n/a	n/a	-999	4	[6, 3, 3]	12.0	catFR1	1	R1351M
566.605	3.201	567320	PROB	3.173	n/a	n/a	n/a	-999	4	[3, 7, 3]	13.0	catFR1	1	R1351M
569.806	3.917	570521	PROB	3.884	n/a	n/a	n/a	-999	4	[1, 4, 8]	13.0	catFR1	1	R1351M
573.723	4.168	574437	PROB	4.144	n/a	n/a	n/a	-999	4	[9, 1, 4]	14.0	catFR1	1	R1351M
577.891	3.16	578605	PROB	3.16	n/a	n/a	n/a	-999	4	[2, 2, 5]	9.0	catFR1	1	R1351M
581.051	0.008	581765	STOP	n/a	n/a	n/a	n/a	-999	4	[-999, -999, -999]	n/a	catFR1	1	R1351M
581.059	0.614	581773	DISTRACT_END	n/a	n/a	n/a	n/a	-999	4	[0, 0, 0]	n/a	catFR1	1	R1351M
581.673	1.72	582387	RETRIEVAL_ORIENT_START	n/a	n/a	n/a	n/a	-999	4	[0, 0, 0]	n/a	catFR1	1	R1351M
583.393	0.0	584107	RETRIEVAL_ORIENT_END	n/a	n/a	n/a	n/a	-999	4	[0, 0, 0]	n/a	catFR1	1	R1351M
583.393	5.491	584107	REC_START	n/a	n/a	n/a	n/a	-999	4	[0, 0, 0]	n/a	catFR1	1	R1351M
588.884	1.302	589598	REC_WORD	5.491	n/a	PANDA	Zoo	9	4	[0, 0, 0]	n/a	catFR1	1	R1351M
590.186	6.341	590900	REC_WORD	6.793	n/a	ELEPHANT	Zoo	5	4	[0, 0, 0]	n/a	catFR1	1	R1351M
596.527	1.132	597240	REC_WORD	13.134	n/a	OCTOPUS	OceanAnimals	11	4	[0, 0, 0]	n/a	catFR1	1	R1351M
597.659	7.49	598372	REC_WORD	14.266	n/a	FISH	OceanAnimals	3	4	[0, 0, 0]	n/a	catFR1	1	R1351M
605.149	5.831	605862	REC_WORD	21.756	n/a	MONKEY	Zoo	10	4	[0, 0, 0]	n/a	catFR1	1	R1351M
610.98	0.748	611693	REC_WORD_VV	27.587	n/a	<>	n/a	-999	4	[0, 0, 0]	n/a	catFR1	1	R1351M
611.728	0.751	612441	REC_WORD	28.335	n/a	GIRAFFE	Zoo	-999	4	[0, 0, 0]	n/a	catFR1	1	R1351M
612.479	0.928	613192	REC_WORD_VV	29.086	n/a	<>	n/a	-999	4	[0, 0, 0]	n/a	catFR1	1	R1351M
613.407	0.0	614120	REC_END	n/a	n/a	n/a	n/a	-999	4	[0, 0, 0]	n/a	catFR1	1	R1351M
613.407	0.024	614120	TRIAL_END	n/a	n/a	n/a	n/a	-999	4	[0, 0, 0]	n/a	catFR1	1	R1351M
613.431	0.0	614144	TRIAL_START	n/a	n/a	n/a	n/a	-999	5	[0, 0, 0]	n/a	catFR1	1	R1351M
613.431	0.0	614144	TRIAL	n/a	n/a	n/a	n/a	-999	5	[0, 0, 0]	n/a	catFR1	1	R1351M
613.431	8.603	614144	WAITING_START	n/a	n/a	n/a	n/a	-999	5	[0, 0, 0]	n/a	catFR1	1	R1351M
622.034	0.0	622746	WAITING_END	n/a	n/a	n/a	n/a	-999	5	[0, 0, 0]	n/a	catFR1	1	R1351M
622.034	10.429	622746	COUNTDOWN_START	n/a	n/a	n/a	n/a	-999	5	[0, 0, 0]	n/a	catFR1	1	R1351M
632.463	0.001	633175	COUNTDOWN_END	n/a	n/a	n/a	n/a	-999	5	[0, 0, 0]	n/a	catFR1	1	R1351M
632.464	1.188	633176	ORIENT_START	n/a	n/a	n/a	n/a	-999	5	[0, 0, 0]	n/a	catFR1	1	R1351M
633.652	0.0	634364	ORIENT_END	n/a	n/a	n/a	n/a	-999	5	[0, 0, 0]	n/a	catFR1	1	R1351M
633.652	1.122	634364	ENCODING_START	n/a	n/a	n/a	n/a	-999	5	[0, 0, 0]	n/a	catFR1	1	R1351M
634.774	1.629	635486	WORD	n/a	wordpools/wordpool_categorized_EN.txt	COLANDER	KitchenTools	1	5	[0, 0, 0]	n/a	catFR1	1	R1351M
636.403	1.149	637115	WORD_OFF	n/a	n/a	COLANDER	KitchenTools	1	5	[0, 0, 0]	n/a	catFR1	1	R1351M
637.552	1.635	638263	WORD	n/a	wordpools/wordpool_categorized_EN.txt	KNIFE	KitchenTools	2	5	[0, 0, 0]	n/a	catFR1	1	R1351M
639.187	0.95	639898	WORD_OFF	n/a	n/a	KNIFE	KitchenTools	2	5	[0, 0, 0]	n/a	catFR1	1	R1351M
640.137	1.633	640848	WORD	n/a	wordpools/wordpool_categorized_EN.txt	MARKER	OfficeSupplies	3	5	[0, 0, 0]	n/a	catFR1	1	R1351M
641.77	0.779	642481	WORD_OFF	n/a	n/a	MARKER	OfficeSupplies	3	5	[0, 0, 0]	n/a	catFR1	1	R1351M
642.549	1.639	643260	WORD	n/a	wordpools/wordpool_categorized_EN.txt	NOTEBOOK	OfficeSupplies	4	5	[0, 0, 0]	n/a	catFR1	1	R1351M
644.188	1.13	644899	WORD_OFF	n/a	n/a	NOTEBOOK	OfficeSupplies	4	5	[0, 0, 0]	n/a	catFR1	1	R1351M
645.318	1.637	646029	WORD	n/a	wordpools/wordpool_categorized_EN.txt	BASKETBALL	Toys	5	5	[0, 0, 0]	n/a	catFR1	1	R1351M
646.955	0.785	647666	WORD_OFF	n/a	n/a	BASKETBALL	Toys	5	5	[0, 0, 0]	n/a	catFR1	1	R1351M
647.74	1.616	648451	WORD	n/a	wordpools/wordpool_categorized_EN.txt	SLINKY	Toys	6	5	[0, 0, 0]	n/a	catFR1	1	R1351M
649.356	0.801	650067	WORD_OFF	n/a	n/a	SLINKY	Toys	6	5	[0, 0, 0]	n/a	catFR1	1	R1351M
650.157	1.632	650868	WORD	n/a	wordpools/wordpool_categorized_EN.txt	SPOON	KitchenTools	7	5	[0, 0, 0]	n/a	catFR1	1	R1351M
651.789	1.071	652500	WORD_OFF	n/a	n/a	SPOON	KitchenTools	7	5	[0, 0, 0]	n/a	catFR1	1	R1351M
652.86	1.63	653571	WORD	n/a	wordpools/wordpool_categorized_EN.txt	WHISK	KitchenTools	8	5	[0, 0, 0]	n/a	catFR1	1	R1351M
654.49	0.839	655201	WORD_OFF	n/a	n/a	WHISK	KitchenTools	8	5	[0, 0, 0]	n/a	catFR1	1	R1351M
655.329	1.628	656040	WORD	n/a	wordpools/wordpool_categorized_EN.txt	BARBIE	Toys	9	5	[0, 0, 0]	n/a	catFR1	1	R1351M
656.957	0.905	657668	WORD_OFF	n/a	n/a	BARBIE	Toys	9	5	[0, 0, 0]	n/a	catFR1	1	R1351M
657.862	1.629	658573	WORD	n/a	wordpools/wordpool_categorized_EN.txt	BASEBALL	Toys	10	5	[0, 0, 0]	n/a	catFR1	1	R1351M
659.491	0.753	660201	WORD_OFF	n/a	n/a	BASEBALL	Toys	10	5	[0, 0, 0]	n/a	catFR1	1	R1351M
660.244	1.63	660954	WORD	n/a	wordpools/wordpool_categorized_EN.txt	PAPER	OfficeSupplies	11	5	[0, 0, 0]	n/a	catFR1	1	R1351M
661.874	1.139	662584	WORD_OFF	n/a	n/a	PAPER	OfficeSupplies	11	5	[0, 0, 0]	n/a	catFR1	1	R1351M
663.013	1.628	663723	WORD	n/a	wordpools/wordpool_categorized_EN.txt	GLUE	OfficeSupplies	12	5	[0, 0, 0]	n/a	catFR1	1	R1351M
664.641	0.001	665351	WORD_OFF	n/a	n/a	GLUE	OfficeSupplies	12	5	[0, 0, 0]	n/a	catFR1	1	R1351M
664.642	0.0	665352	ENCODING_END	n/a	n/a	n/a	n/a	-999	5	[0, 0, 0]	n/a	catFR1	1	R1351M
664.642	0.0	665352	DISTRACT_START	n/a	n/a	n/a	n/a	-999	5	[0, 0, 0]	n/a	catFR1	1	R1351M
664.642	0.016	665352	START	n/a	n/a	n/a	n/a	-999	5	[-999, -999, -999]	n/a	catFR1	1	R1351M
664.658	4.451	665368	PROB	4.427	n/a	n/a	n/a	-999	5	[5, 3, 9]	17.0	catFR1	1	R1351M
669.109	3.767	669819	PROB	3.743	n/a	n/a	n/a	-999	5	[3, 7, 4]	14.0	catFR1	1	R1351M
672.876	4.535	673586	PROB	4.497	n/a	n/a	n/a	-999	5	[2, 6, 4]	12.0	catFR1	1	R1351M
677.411	4.35	678121	PROB	4.321	n/a	n/a	n/a	-999	5	[8, 1, 7]	16.0	catFR1	1	R1351M
681.761	3.517	682470	PROB	3.517	n/a	n/a	n/a	-999	5	[4, 4, 5]	13.0	catFR1	1	R1351M
685.278	0.018	685987	STOP	n/a	n/a	n/a	n/a	-999	5	[-999, -999, -999]	n/a	catFR1	1	R1351M
685.296	0.531	686005	DISTRACT_END	n/a	n/a	n/a	n/a	-999	5	[0, 0, 0]	n/a	catFR1	1	R1351M
685.827	1.553	686536	RETRIEVAL_ORIENT_START	n/a	n/a	n/a	n/a	-999	5	[0, 0, 0]	n/a	catFR1	1	R1351M
687.38	0.0	688089	RETRIEVAL_ORIENT_END	n/a	n/a	n/a	n/a	-999	5	[0, 0, 0]	n/a	catFR1	1	R1351M
687.38	2.364	688089	REC_START	n/a	n/a	n/a	n/a	-999	5	[0, 0, 0]	n/a	catFR1	1	R1351M
689.744	0.958	690453	REC_WORD	2.364	n/a	NOTEBOOK	OfficeSupplies	4	5	[0, 0, 0]	n/a	catFR1	1	R1351M
690.702	1.682	691411	REC_WORD	3.322	n/a	MARKER	OfficeSupplies	3	5	[0, 0, 0]	n/a	catFR1	1	R1351M
692.384	7.133	693093	REC_WORD	5.004	n/a	GLUE	OfficeSupplies	12	5	[0, 0, 0]	n/a	catFR1	1	R1351M
699.517	1.313	700226	REC_WORD	12.137	n/a	COLANDER	KitchenTools	1	5	[0, 0, 0]	n/a	catFR1	1	R1351M
700.83	1.73	701539	REC_WORD_VV	13.45	n/a	<>	n/a	-999	5	[0, 0, 0]	n/a	catFR1	1	R1351M
702.56	13.914	703269	REC_WORD_VV	15.18	n/a	<>	n/a	-999	5	[0, 0, 0]	n/a	catFR1	1	R1351M
716.474	0.919	717182	REC_WORD	29.094	n/a	WHISK	KitchenTools	8	5	[0, 0, 0]	n/a	catFR1	1	R1351M
717.393	0.001	718101	REC_END	n/a	n/a	n/a	n/a	-999	5	[0, 0, 0]	n/a	catFR1	1	R1351M
717.394	0.021	718102	TRIAL_END	n/a	n/a	n/a	n/a	-999	5	[0, 0, 0]	n/a	catFR1	1	R1351M
717.415	0.001	718123	TRIAL_START	n/a	n/a	n/a	n/a	-999	6	[0, 0, 0]	n/a	catFR1	1	R1351M
717.416	0.0	718124	TRIAL	n/a	n/a	n/a	n/a	-999	6	[0, 0, 0]	n/a	catFR1	1	R1351M
717.416	28.809	718124	WAITING_START	n/a	n/a	n/a	n/a	-999	6	[0, 0, 0]	n/a	catFR1	1	R1351M
746.225	0.0	746932	WAITING_END	n/a	n/a	n/a	n/a	-999	6	[0, 0, 0]	n/a	catFR1	1	R1351M
746.225	10.429	746932	COUNTDOWN_START	n/a	n/a	n/a	n/a	-999	6	[0, 0, 0]	n/a	catFR1	1	R1351M
756.654	0.0	757360	COUNTDOWN_END	n/a	n/a	n/a	n/a	-999	6	[0, 0, 0]	n/a	catFR1	1	R1351M
756.654	1.122	757360	ORIENT_START	n/a	n/a	n/a	n/a	-999	6	[0, 0, 0]	n/a	catFR1	1	R1351M
757.776	0.0	758482	ENCODING_START	n/a	n/a	n/a	n/a	-999	6	[0, 0, 0]	n/a	catFR1	1	R1351M
757.776	0.974	758482	ORIENT_END	n/a	n/a	n/a	n/a	-999	6	[0, 0, 0]	n/a	catFR1	1	R1351M
758.75	1.611	759456	WORD	n/a	wordpools/wordpool_categorized_EN.txt	DOVE	Birds	1	6	[0, 0, 0]	n/a	catFR1	1	R1351M
760.361	1.06	761067	WORD_OFF	n/a	n/a	DOVE	Birds	1	6	[0, 0, 0]	n/a	catFR1	1	R1351M
761.421	1.623	762127	WORD	n/a	wordpools/wordpool_categorized_EN.txt	FINCH	Birds	2	6	[0, 0, 0]	n/a	catFR1	1	R1351M
763.044	0.84	763750	WORD_OFF	n/a	n/a	FINCH	Birds	2	6	[0, 0, 0]	n/a	catFR1	1	R1351M
763.884	1.611	764590	WORD	n/a	wordpools/wordpool_categorized_EN.txt	PLIERS	Tools	3	6	[0, 0, 0]	n/a	catFR1	1	R1351M
765.495	0.963	766201	WORD_OFF	n/a	n/a	PLIERS	Tools	3	6	[0, 0, 0]	n/a	catFR1	1	R1351M
766.458	1.638	767164	WORD	n/a	wordpools/wordpool_categorized_EN.txt	DRILL	Tools	4	6	[0, 0, 0]	n/a	catFR1	1	R1351M
768.096	1.109	768802	WORD_OFF	n/a	n/a	DRILL	Tools	4	6	[0, 0, 0]	n/a	catFR1	1	R1351M
769.205	1.623	769910	WORD	n/a	wordpools/wordpool_categorized_EN.txt	DOLLHOUSE	Toys	5	6	[0, 0, 0]	n/a	catFR1	1	R1351M
770.828	1.029	771533	WORD_OFF	n/a	n/a	DOLLHOUSE	Toys	5	6	[0, 0, 0]	n/a	catFR1	1	R1351M
771.857	1.64	772562	WORD	n/a	wordpools/wordpool_categorized_EN.txt	FOOTBALL	Toys	6	6	[0, 0, 0]	n/a	catFR1	1	R1351M
773.497	1.118	774202	WORD_OFF	n/a	n/a	FOOTBALL	Toys	6	6	[0, 0, 0]	n/a	catFR1	1	R1351M
774.615	1.632	775320	WORD	n/a	wordpools/wordpool_categorized_EN.txt	SANDER	Tools	7	6	[0, 0, 0]	n/a	catFR1	1	R1351M
776.247	0.796	776952	WORD_OFF	n/a	n/a	SANDER	Tools	7	6	[0, 0, 0]	n/a	catFR1	1	R1351M
777.043	1.637	777748	WORD	n/a	wordpools/wordpool_categorized_EN.txt	CROWBAR	Tools	8	6	[0, 0, 0]	n/a	catFR1	1	R1351M
778.68	1.042	779385	WORD_OFF	n/a	n/a	CROWBAR	Tools	8	6	[0, 0, 0]	n/a	catFR1	1	R1351M
779.722	1.626	780427	WORD	n/a	wordpools/wordpool_categorized_EN.txt	SPARROW	Birds	9	6	[0, 0, 0]	n/a	catFR1	1	R1351M
781.348	0.816	782053	WORD_OFF	n/a	n/a	SPARROW	Birds	9	6	[0, 0, 0]	n/a	catFR1	1	R1351M
782.164	1.633	782869	WORD	n/a	wordpools/wordpool_categorized_EN.txt	CROW	Birds	10	6	[0, 0, 0]	n/a	catFR1	1	R1351M
783.797	1.008	784502	WORD_OFF	n/a	n/a	CROW	Birds	10	6	[0, 0, 0]	n/a	catFR1	1	R1351M
784.805	1.611	785510	WORD	n/a	wordpools/wordpool_categorized_EN.txt	PUZZLE	Toys	11	6	[0, 0, 0]	n/a	catFR1	1	R1351M
786.416	0.97	787121	WORD_OFF	n/a	n/a	PUZZLE	Toys	11	6	[0, 0, 0]	n/a	catFR1	1	R1351M
787.386	1.63	788091	WORD	n/a	wordpools/wordpool_categorized_EN.txt	FRISBEE	Toys	12	6	[0, 0, 0]	n/a	catFR1	1	R1351M
789.016	0.001	789721	WORD_OFF	n/a	n/a	FRISBEE	Toys	12	6	[0, 0, 0]	n/a	catFR1	1	R1351M
789.017	0.0	789722	ENCODING_END	n/a	n/a	n/a	n/a	-999	6	[0, 0, 0]	n/a	catFR1	1	R1351M
789.017	0.0	789722	DISTRACT_START	n/a	n/a	n/a	n/a	-999	6	[0, 0, 0]	n/a	catFR1	1	R1351M
789.017	0.016	789722	START	n/a	n/a	n/a	n/a	-999	6	[-999, -999, -999]	n/a	catFR1	1	R1351M
789.033	4.533	789738	PROB	4.504	n/a	n/a	n/a	-999	6	[6, 9, 9]	24.0	catFR1	1	R1351M
793.566	4.101	794270	PROB	4.066	n/a	n/a	n/a	-999	6	[7, 6, 6]	19.0	catFR1	1	R1351M
797.667	3.601	798371	PROB	3.575	n/a	n/a	n/a	-999	6	[1, 6, 3]	10.0	catFR1	1	R1351M
801.268	4.034	801972	PROB	4.006	n/a	n/a	n/a	-999	6	[5, 3, 7]	15.0	catFR1	1	R1351M
805.302	4.74	806006	PROB	4.74	n/a	n/a	n/a	-999	6	[3, 8, 9]	20.0	catFR1	1	R1351M
810.042	0.012	810746	STOP	n/a	n/a	n/a	n/a	-999	6	[-999, -999, -999]	n/a	catFR1	1	R1351M
810.054	0.683	810758	DISTRACT_END	n/a	n/a	n/a	n/a	-999	6	[0, 0, 0]	n/a	catFR1	1	R1351M
810.737	1.55	811441	RETRIEVAL_ORIENT_START	n/a	n/a	n/a	n/a	-999	6	[0, 0, 0]	n/a	catFR1	1	R1351M
812.287	0.001	812991	RETRIEVAL_ORIENT_END	n/a	n/a	n/a	n/a	-999	6	[0, 0, 0]	n/a	catFR1	1	R1351M
812.288	0.827	812992	REC_START	n/a	n/a	n/a	n/a	-999	6	[0, 0, 0]	n/a	catFR1	1	R1351M
813.115	5.152	813819	REC_WORD	0.827	n/a	FOOTBALL	Toys	6	6	[0, 0, 0]	n/a	catFR1	1	R1351M
818.267	1.373	818970	REC_WORD	5.979	n/a	PLIERS	Tools	3	6	[0, 0, 0]	n/a	catFR1	1	R1351M
819.64	3.687	820343	REC_WORD	7.352	n/a	CROWBAR	Tools	8	6	[0, 0, 0]	n/a	catFR1	1	R1351M
823.327	2.494	824030	REC_WORD	11.039	n/a	SANDER	Tools	7	6	[0, 0, 0]	n/a	catFR1	1	R1351M
825.821	1.011	826524	REC_WORD	13.533	n/a	FINCH	Birds	2	6	[0, 0, 0]	n/a	catFR1	1	R1351M
826.832	0.489	827535	REC_WORD_VV	14.544	n/a	<>	n/a	-999	6	[0, 0, 0]	n/a	catFR1	1	R1351M
827.321	7.045	828024	REC_WORD	15.033	n/a	PIGEON	Birds	-999	6	[0, 0, 0]	n/a	catFR1	1	R1351M
834.366	4.869	835069	REC_WORD_VV	22.078	n/a	<>	n/a	-999	6	[0, 0, 0]	n/a	catFR1	1	R1351M
839.235	3.065	839937	REC_WORD	26.947	n/a	CROW	Birds	10	6	[0, 0, 0]	n/a	catFR1	1	R1351M
842.3	0.0	843002	REC_END	n/a	n/a	n/a	n/a	-999	6	[0, 0, 0]	n/a	catFR1	1	R1351M
842.3	0.022	843002	TRIAL_END	n/a	n/a	n/a	n/a	-999	6	[0, 0, 0]	n/a	catFR1	1	R1351M
842.322	0.0	843024	TRIAL_START	n/a	n/a	n/a	n/a	-999	7	[0, 0, 0]	n/a	catFR1	1	R1351M
842.322	0.0	843024	TRIAL	n/a	n/a	n/a	n/a	-999	7	[0, 0, 0]	n/a	catFR1	1	R1351M
842.322	11.907	843024	WAITING_START	n/a	n/a	n/a	n/a	-999	7	[0, 0, 0]	n/a	catFR1	1	R1351M
854.229	0.0	854931	WAITING_END	n/a	n/a	n/a	n/a	-999	7	[0, 0, 0]	n/a	catFR1	1	R1351M
854.229	10.43	854931	COUNTDOWN_START	n/a	n/a	n/a	n/a	-999	7	[0, 0, 0]	n/a	catFR1	1	R1351M
864.659	0.0	865360	ORIENT_START	n/a	n/a	n/a	n/a	-999	7	[0, 0, 0]	n/a	catFR1	1	R1351M
864.659	1.238	865360	COUNTDOWN_END	n/a	n/a	n/a	n/a	-999	7	[0, 0, 0]	n/a	catFR1	1	R1351M
865.897	0.0	866598	ORIENT_END	n/a	n/a	n/a	n/a	-999	7	[0, 0, 0]	n/a	catFR1	1	R1351M
865.897	0.917	866598	ENCODING_START	n/a	n/a	n/a	n/a	-999	7	[0, 0, 0]	n/a	catFR1	1	R1351M
866.814	1.634	867515	WORD	n/a	wordpools/wordpool_categorized_EN.txt	PRINTER	Electronics	1	7	[0, 0, 0]	n/a	catFR1	1	R1351M
868.448	0.941	869149	WORD_OFF	n/a	n/a	PRINTER	Electronics	1	7	[0, 0, 0]	n/a	catFR1	1	R1351M
869.389	1.626	870090	WORD	n/a	wordpools/wordpool_categorized_EN.txt	SCANNER	Electronics	2	7	[0, 0, 0]	n/a	catFR1	1	R1351M
871.015	1.049	871716	WORD_OFF	n/a	n/a	SCANNER	Electronics	2	7	[0, 0, 0]	n/a	catFR1	1	R1351M
872.064	1.634	872765	WORD	n/a	wordpools/wordpool_categorized_EN.txt	CELLO	Instruments	3	7	[0, 0, 0]	n/a	catFR1	1	R1351M
873.698	0.785	874399	WORD_OFF	n/a	n/a	CELLO	Instruments	3	7	[0, 0, 0]	n/a	catFR1	1	R1351M
874.483	1.633	875184	WORD	n/a	wordpools/wordpool_categorized_EN.txt	BASS	Instruments	4	7	[0, 0, 0]	n/a	catFR1	1	R1351M
876.116	1.009	876817	WORD_OFF	n/a	n/a	BASS	Instruments	4	7	[0, 0, 0]	n/a	catFR1	1	R1351M
877.125	1.624	877826	WORD	n/a	wordpools/wordpool_categorized_EN.txt	THUNDER	Weather	5	7	[0, 0, 0]	n/a	catFR1	1	R1351M
878.749	1.101	879450	WORD_OFF	n/a	n/a	THUNDER	Weather	5	7	[0, 0, 0]	n/a	catFR1	1	R1351M
879.85	1.634	880550	WORD	n/a	wordpools/wordpool_categorized_EN.txt	HUMIDITY	Weather	6	7	[0, 0, 0]	n/a	catFR1	1	R1351M
881.484	0.784	882184	WORD_OFF	n/a	n/a	HUMIDITY	Weather	6	7	[0, 0, 0]	n/a	catFR1	1	R1351M
882.268	1.632	882968	WORD	n/a	wordpools/wordpool_categorized_EN.txt	PHONE	Electronics	7	7	[0, 0, 0]	n/a	catFR1	1	R1351M
883.9	0.898	884600	WORD_OFF	n/a	n/a	PHONE	Electronics	7	7	[0, 0, 0]	n/a	catFR1	1	R1351M
884.798	1.62	885498	WORD	n/a	wordpools/wordpool_categorized_EN.txt	CALCULATOR	Electronics	8	7	[0, 0, 0]	n/a	catFR1	1	R1351M
886.418	0.813	887118	WORD_OFF	n/a	n/a	CALCULATOR	Electronics	8	7	[0, 0, 0]	n/a	catFR1	1	R1351M
887.231	1.637	887931	WORD	n/a	wordpools/wordpool_categorized_EN.txt	THUNDERSTORM	Weather	9	7	[0, 0, 0]	n/a	catFR1	1	R1351M
888.868	0.772	889568	WORD_OFF	n/a	n/a	THUNDERSTORM	Weather	9	7	[0, 0, 0]	n/a	catFR1	1	R1351M
889.64	1.613	890340	WORD	n/a	wordpools/wordpool_categorized_EN.txt	DRIZZLE	Weather	10	7	[0, 0, 0]	n/a	catFR1	1	R1351M
891.253	0.884	891953	WORD_OFF	n/a	n/a	DRIZZLE	Weather	10	7	[0, 0, 0]	n/a	catFR1	1	R1351M
892.137	1.632	892837	WORD	n/a	wordpools/wordpool_categorized_EN.txt	TUBA	Instruments	11	7	[0, 0, 0]	n/a	catFR1	1	R1351M
893.769	0.893	894469	WORD_OFF	n/a	n/a	TUBA	Instruments	11	7	[0, 0, 0]	n/a	catFR1	1	R1351M
894.662	1.625	895362	WORD	n/a	wordpools/wordpool_categorized_EN.txt	TRUMPET	Instruments	12	7	[0, 0, 0]	n/a	catFR1	1	R1351M
896.287	0.0	896987	WORD_OFF	n/a	n/a	TRUMPET	Instruments	12	7	[0, 0, 0]	n/a	catFR1	1	R1351M
896.287	0.001	896987	ENCODING_END	n/a	n/a	n/a	n/a	-999	7	[0, 0, 0]	n/a	catFR1	1	R1351M
896.288	0.0	896988	DISTRACT_START	n/a	n/a	n/a	n/a	-999	7	[0, 0, 0]	n/a	catFR1	1	R1351M
896.288	0.015	896988	START	n/a	n/a	n/a	n/a	-999	7	[-999, -999, -999]	n/a	catFR1	1	R1351M
896.303	4.701	897003	PROB	4.663	n/a	n/a	n/a	-999	7	[8, 8, 4]	20.0	catFR1	1	R1351M
901.004	4.935	901704	PROB	4.897	n/a	n/a	n/a	-999	7	[8, 4, 8]	20.0	catFR1	1	R1351M
905.939	3.799	906638	PROB	3.771	n/a	n/a	n/a	-999	7	[8, 3, 9]	20.0	catFR1	1	R1351M
909.738	4.186	910437	PROB	4.147	n/a	n/a	n/a	-999	7	[3, 1, 8]	12.0	catFR1	1	R1351M
913.924	3.099	914623	PROB	3.099	n/a	n/a	n/a	-999	7	[1, 5, 5]	11.0	catFR1	1	R1351M
917.023	0.018	917722	STOP	n/a	n/a	n/a	n/a	-999	7	[-999, -999, -999]	n/a	catFR1	1	R1351M
917.041	0.661	917740	DISTRACT_END	n/a	n/a	n/a	n/a	-999	7	[0, 0, 0]	n/a	catFR1	1	R1351M
917.702	1.606	918401	RETRIEVAL_ORIENT_START	n/a	n/a	n/a	n/a	-999	7	[0, 0, 0]	n/a	catFR1	1	R1351M
919.308	0.0	920007	RETRIEVAL_ORIENT_END	n/a	n/a	n/a	n/a	-999	7	[0, 0, 0]	n/a	catFR1	1	R1351M
919.308	1.506	920007	REC_START	n/a	n/a	n/a	n/a	-999	7	[0, 0, 0]	n/a	catFR1	1	R1351M
920.814	2.227	921513	REC_WORD	1.506	n/a	PRINTER	Electronics	1	7	[0, 0, 0]	n/a	catFR1	1	R1351M
923.041	1.788	923740	REC_WORD	3.733	n/a	COMPUTER	Electronics	-999	7	[0, 0, 0]	n/a	catFR1	1	R1351M
924.829	0.874	925527	REC_WORD	5.521	n/a	SCANNER	Electronics	2	7	[0, 0, 0]	n/a	catFR1	1	R1351M
925.703	8.711	926401	REC_WORD	6.395	n/a	PHONE	Electronics	7	7	[0, 0, 0]	n/a	catFR1	1	R1351M
934.414	0.963	935112	REC_WORD	15.106	n/a	THUNDERSTORM	Weather	9	7	[0, 0, 0]	n/a	catFR1	1	R1351M
935.377	6.351	936075	REC_WORD	16.069	n/a	DRIZZLE	Weather	10	7	[0, 0, 0]	n/a	catFR1	1	R1351M
941.728	6.718	942426	REC_WORD	22.42	n/a	HUMIDITY	Weather	6	7	[0, 0, 0]	n/a	catFR1	1	R1351M
948.446	0.876	949143	REC_WORD_VV	29.138	n/a	<>	n/a	-999	7	[0, 0, 0]	n/a	catFR1	1	R1351M
949.322	0.0	950019	REC_END	n/a	n/a	n/a	n/a	-999	7	[0, 0, 0]	n/a	catFR1	1	R1351M
949.322	0.021	950019	TRIAL_END	n/a	n/a	n/a	n/a	-999	7	[0, 0, 0]	n/a	catFR1	1	R1351M
949.343	0.001	950040	TRIAL_START	n/a	n/a	n/a	n/a	-999	8	[0, 0, 0]	n/a	catFR1	1	R1351M
949.344	0.0	950041	TRIAL	n/a	n/a	n/a	n/a	-999	8	[0, 0, 0]	n/a	catFR1	1	R1351M
949.344	13.639	950041	WAITING_START	n/a	n/a	n/a	n/a	-999	8	[0, 0, 0]	n/a	catFR1	1	R1351M
962.983	0.001	963680	WAITING_END	n/a	n/a	n/a	n/a	-999	8	[0, 0, 0]	n/a	catFR1	1	R1351M
962.984	10.428	963681	COUNTDOWN_START	n/a	n/a	n/a	n/a	-999	8	[0, 0, 0]	n/a	catFR1	1	R1351M
973.412	0.0	974108	ORIENT_START	n/a	n/a	n/a	n/a	-999	8	[0, 0, 0]	n/a	catFR1	1	R1351M
973.412	1.206	974108	COUNTDOWN_END	n/a	n/a	n/a	n/a	-999	8	[0, 0, 0]	n/a	catFR1	1	R1351M
974.618	0.0	975314	ORIENT_END	n/a	n/a	n/a	n/a	-999	8	[0, 0, 0]	n/a	catFR1	1	R1351M
974.618	1.092	975314	ENCODING_START	n/a	n/a	n/a	n/a	-999	8	[0, 0, 0]	n/a	catFR1	1	R1351M
975.71	1.626	976406	WORD	n/a	wordpools/wordpool_categorized_EN.txt	EYE	BodyParts	1	8	[0, 0, 0]	n/a	catFR1	1	R1351M
977.336	0.858	978032	WORD_OFF	n/a	n/a	EYE	BodyParts	1	8	[0, 0, 0]	n/a	catFR1	1	R1351M
978.194	1.625	978890	WORD	n/a	wordpools/wordpool_categorized_EN.txt	FINGERS	BodyParts	2	8	[0, 0, 0]	n/a	catFR1	1	R1351M
979.819	0.761	980515	WORD_OFF	n/a	n/a	FINGERS	BodyParts	2	8	[0, 0, 0]	n/a	catFR1	1	R1351M
980.58	1.624	981276	WORD	n/a	wordpools/wordpool_categorized_EN.txt	DRUM	Instruments	3	8	[0, 0, 0]	n/a	catFR1	1	R1351M
982.204	0.96	982900	WORD_OFF	n/a	n/a	DRUM	Instruments	3	8	[0, 0, 0]	n/a	catFR1	1	R1351M
983.164	1.623	983860	WORD	n/a	wordpools/wordpool_categorized_EN.txt	GUITAR	Instruments	4	8	[0, 0, 0]	n/a	catFR1	1	R1351M
984.787	0.976	985483	WORD_OFF	n/a	n/a	GUITAR	Instruments	4	8	[0, 0, 0]	n/a	catFR1	1	R1351M
985.763	1.625	986459	WORD	n/a	wordpools/wordpool_categorized_EN.txt	FOREST	Landscapes	5	8	[0, 0, 0]	n/a	catFR1	1	R1351M
987.388	0.828	988084	WORD_OFF	n/a	n/a	FOREST	Landscapes	5	8	[0, 0, 0]	n/a	catFR1	1	R1351M
988.216	1.621	988912	WORD	n/a	wordpools/wordpool_categorized_EN.txt	ISLAND	Landscapes	6	8	[0, 0, 0]	n/a	catFR1	1	R1351M
989.837	0.988	990532	WORD_OFF	n/a	n/a	ISLAND	Landscapes	6	8	[0, 0, 0]	n/a	catFR1	1	R1351M
990.825	1.614	991520	WORD	n/a	wordpools/wordpool_categorized_EN.txt	BANJO	Instruments	7	8	[0, 0, 0]	n/a	catFR1	1	R1351M
992.439	0.993	993134	WORD_OFF	n/a	n/a	BANJO	Instruments	7	8	[0, 0, 0]	n/a	catFR1	1	R1351M
993.432	1.624	994127	WORD	n/a	wordpools/wordpool_categorized_EN.txt	FLUTE	Instruments	8	8	[0, 0, 0]	n/a	catFR1	1	R1351M
995.056	0.761	995751	WORD_OFF	n/a	n/a	FLUTE	Instruments	8	8	[0, 0, 0]	n/a	catFR1	1	R1351M
995.817	1.623	996512	WORD	n/a	wordpools/wordpool_categorized_EN.txt	VALLEY	Landscapes	9	8	[0, 0, 0]	n/a	catFR1	1	R1351M
997.44	1.046	998135	WORD_OFF	n/a	n/a	VALLEY	Landscapes	9	8	[0, 0, 0]	n/a	catFR1	1	R1351M
998.486	1.621	999181	WORD	n/a	wordpools/wordpool_categorized_EN.txt	LAKE	Landscapes	10	8	[0, 0, 0]	n/a	catFR1	1	R1351M
1000.107	0.958	1000802	WORD_OFF	n/a	n/a	LAKE	Landscapes	10	8	[0, 0, 0]	n/a	catFR1	1	R1351M
1001.065	1.625	1001760	WORD	n/a	wordpools/wordpool_categorized_EN.txt	HAND	BodyParts	11	8	[0, 0, 0]	n/a	catFR1	1	R1351M
1002.69	0.889	1003385	WORD_OFF	n/a	n/a	HAND	BodyParts	11	8	[0, 0, 0]	n/a	catFR1	1	R1351M
1003.579	1.629	1004274	WORD	n/a	wordpools/wordpool_categorized_EN.txt	HEAD	BodyParts	12	8	[0, 0, 0]	n/a	catFR1	1	R1351M
1005.208	0.001	1005903	WORD_OFF	n/a	n/a	HEAD	BodyParts	12	8	[0, 0, 0]	n/a	catFR1	1	R1351M
1005.209	0.0	1005904	ENCODING_END	n/a	n/a	n/a	n/a	-999	8	[0, 0, 0]	n/a	catFR1	1	R1351M
1005.209	0.0	1005904	DISTRACT_START	n/a	n/a	n/a	n/a	-999	8	[0, 0, 0]	n/a	catFR1	1	R1351M
1005.209	0.016	1005904	START	n/a	n/a	n/a	n/a	-999	8	[-999, -999, -999]	n/a	catFR1	1	R1351M
1005.225	3.566	1005920	PROB	3.538	n/a	n/a	n/a	-999	8	[5, 1, 1]	7.0	catFR1	1	R1351M
1008.791	4.268	1009486	PROB	4.244	n/a	n/a	n/a	-999	8	[6, 3, 4]	13.0	catFR1	1	R1351M
1013.059	3.317	1013753	PROB	3.29	n/a	n/a	n/a	-999	8	[3, 3, 1]	7.0	catFR1	1	R1351M
1016.376	5.535	1017070	PROB	5.499	n/a	n/a	n/a	-999	8	[7, 1, 2]	10.0	catFR1	1	R1351M
1021.911	3.796	1022605	PROB	3.796	n/a	n/a	n/a	-999	8	[2, 3, 9]	14.0	catFR1	1	R1351M
1025.707	0.021	1026401	STOP	n/a	n/a	n/a	n/a	-999	8	[-999, -999, -999]	n/a	catFR1	1	R1351M
1025.728	0.662	1026422	DISTRACT_END	n/a	n/a	n/a	n/a	-999	8	[0, 0, 0]	n/a	catFR1	1	R1351M
1026.39	1.539	1027084	RETRIEVAL_ORIENT_START	n/a	n/a	n/a	n/a	-999	8	[0, 0, 0]	n/a	catFR1	1	R1351M
1027.929	0.0	1028623	RETRIEVAL_ORIENT_END	n/a	n/a	n/a	n/a	-999	8	[0, 0, 0]	n/a	catFR1	1	R1351M
1027.929	1.006	1028623	REC_START	n/a	n/a	n/a	n/a	-999	8	[0, 0, 0]	n/a	catFR1	1	R1351M
1028.935	0.994	1029629	REC_WORD	1.006	n/a	FINGERS	BodyParts	2	8	[0, 0, 0]	n/a	catFR1	1	R1351M
1029.929	0.769	1030623	REC_WORD_VV	2.0	n/a	<>	n/a	-999	8	[0, 0, 0]	n/a	catFR1	1	R1351M
1030.698	1.509	1031392	REC_WORD	2.769	n/a	EYE	BodyParts	1	8	[0, 0, 0]	n/a	catFR1	1	R1351M
1032.207	3.443	1032901	REC_WORD	4.278	n/a	HEAD	BodyParts	12	8	[0, 0, 0]	n/a	catFR1	1	R1351M
1035.65	0.938	1036343	REC_WORD	7.721	n/a	ISLAND	Landscapes	6	8	[0, 0, 0]	n/a	catFR1	1	R1351M
1036.588	1.524	1037281	REC_WORD	8.659	n/a	LAKE	Landscapes	10	8	[0, 0, 0]	n/a	catFR1	1	R1351M
1038.112	19.831	1038805	REC_WORD	10.183	n/a	VALLEY	Landscapes	9	8	[0, 0, 0]	n/a	catFR1	1	R1351M
1057.943	0.0	1058635	TRIAL_END	n/a	n/a	n/a	n/a	-999	8	[0, 0, 0]	n/a	catFR1	1	R1351M
1057.943	0.024	1058635	REC_END	n/a	n/a	n/a	n/a	-999	8	[0, 0, 0]	n/a	catFR1	1	R1351M
1057.967	0.001	1058659	TRIAL_START	n/a	n/a	n/a	n/a	-999	9	[0, 0, 0]	n/a	catFR1	1	R1351M
1057.968	0.0	1058660	TRIAL	n/a	n/a	n/a	n/a	-999	9	[0, 0, 0]	n/a	catFR1	1	R1351M
1057.968	8.385	1058660	WAITING_START	n/a	n/a	n/a	n/a	-999	9	[0, 0, 0]	n/a	catFR1	1	R1351M
1066.353	0.001	1067045	WAITING_END	n/a	n/a	n/a	n/a	-999	9	[0, 0, 0]	n/a	catFR1	1	R1351M
1066.354	10.429	1067046	COUNTDOWN_START	n/a	n/a	n/a	n/a	-999	9	[0, 0, 0]	n/a	catFR1	1	R1351M
1076.783	0.001	1077475	COUNTDOWN_END	n/a	n/a	n/a	n/a	-999	9	[0, 0, 0]	n/a	catFR1	1	R1351M
1076.784	1.12	1077476	ORIENT_START	n/a	n/a	n/a	n/a	-999	9	[0, 0, 0]	n/a	catFR1	1	R1351M
1077.904	0.001	1078595	ORIENT_END	n/a	n/a	n/a	n/a	-999	9	[0, 0, 0]	n/a	catFR1	1	R1351M
1077.905	0.872	1078596	ENCODING_START	n/a	n/a	n/a	n/a	-999	9	[0, 0, 0]	n/a	catFR1	1	R1351M
1078.777	1.612	1079468	WORD	n/a	wordpools/wordpool_categorized_EN.txt	LAMB	FarmAnimals	1	9	[0, 0, 0]	n/a	catFR1	1	R1351M
1080.389	0.773	1081080	WORD_OFF	n/a	n/a	LAMB	FarmAnimals	1	9	[0, 0, 0]	n/a	catFR1	1	R1351M
1081.162	1.627	1081853	WORD	n/a	wordpools/wordpool_categorized_EN.txt	COW	FarmAnimals	2	9	[0, 0, 0]	n/a	catFR1	1	R1351M
1082.789	0.93	1083480	WORD_OFF	n/a	n/a	COW	FarmAnimals	2	9	[0, 0, 0]	n/a	catFR1	1	R1351M
1083.719	1.638	1084410	WORD	n/a	wordpools/wordpool_categorized_EN.txt	CRAB	OceanAnimals	3	9	[0, 0, 0]	n/a	catFR1	1	R1351M
1085.357	0.916	1086048	WORD_OFF	n/a	n/a	CRAB	OceanAnimals	3	9	[0, 0, 0]	n/a	catFR1	1	R1351M
1086.273	1.633	1086964	WORD	n/a	wordpools/wordpool_categorized_EN.txt	SHRIMP	OceanAnimals	4	9	[0, 0, 0]	n/a	catFR1	1	R1351M
1087.906	0.787	1088597	WORD_OFF	n/a	n/a	SHRIMP	OceanAnimals	4	9	[0, 0, 0]	n/a	catFR1	1	R1351M
1088.693	1.615	1089384	WORD	n/a	wordpools/wordpool_categorized_EN.txt	CHIMPANZEE	Zoo	5	9	[0, 0, 0]	n/a	catFR1	1	R1351M
1090.308	0.847	1090999	WORD_OFF	n/a	n/a	CHIMPANZEE	Zoo	5	9	[0, 0, 0]	n/a	catFR1	1	R1351M
1091.155	1.636	1091846	WORD	n/a	wordpools/wordpool_categorized_EN.txt	GORILLA	Zoo	6	9	[0, 0, 0]	n/a	catFR1	1	R1351M
1092.791	0.986	1093482	WORD_OFF	n/a	n/a	GORILLA	Zoo	6	9	[0, 0, 0]	n/a	catFR1	1	R1351M
1093.777	1.632	1094468	WORD	n/a	wordpools/wordpool_categorized_EN.txt	PLANKTON	OceanAnimals	7	9	[0, 0, 0]	n/a	catFR1	1	R1351M
1095.409	0.772	1096100	WORD_OFF	n/a	n/a	PLANKTON	OceanAnimals	7	9	[0, 0, 0]	n/a	catFR1	1	R1351M
1096.181	1.627	1096872	WORD	n/a	wordpools/wordpool_categorized_EN.txt	WHALE	OceanAnimals	8	9	[0, 0, 0]	n/a	catFR1	1	R1351M
1097.808	0.844	1098499	WORD_OFF	n/a	n/a	WHALE	OceanAnimals	8	9	[0, 0, 0]	n/a	catFR1	1	R1351M
1098.652	1.608	1099343	WORD	n/a	wordpools/wordpool_categorized_EN.txt	BEAR	Zoo	9	9	[0, 0, 0]	n/a	catFR1	1	R1351M
1100.26	1.061	1100950	WORD_OFF	n/a	n/a	BEAR	Zoo	9	9	[0, 0, 0]	n/a	catFR1	1	R1351M
1101.321	1.623	1102011	WORD	n/a	wordpools/wordpool_categorized_EN.txt	ZEBRA	Zoo	10	9	[0, 0, 0]	n/a	catFR1	1	R1351M
1102.944	1.108	1103634	WORD_OFF	n/a	n/a	ZEBRA	Zoo	10	9	[0, 0, 0]	n/a	catFR1	1	R1351M
1104.052	1.625	1104742	WORD	n/a	wordpools/wordpool_categorized_EN.txt	ROOSTER	FarmAnimals	11	9	[0, 0, 0]	n/a	catFR1	1	R1351M
1105.677	0.998	1106367	WORD_OFF	n/a	n/a	ROOSTER	FarmAnimals	11	9	[0, 0, 0]	n/a	catFR1	1	R1351M
1106.675	1.636	1107365	WORD	n/a	wordpools/wordpool_categorized_EN.txt	TURKEY	FarmAnimals	12	9	[0, 0, 0]	n/a	catFR1	1	R1351M
1108.311	0.001	1109001	WORD_OFF	n/a	n/a	TURKEY	FarmAnimals	12	9	[0, 0, 0]	n/a	catFR1	1	R1351M
1108.312	0.0	1109002	ENCODING_END	n/a	n/a	n/a	n/a	-999	9	[0, 0, 0]	n/a	catFR1	1	R1351M
1108.312	0.0	1109002	DISTRACT_START	n/a	n/a	n/a	n/a	-999	9	[0, 0, 0]	n/a	catFR1	1	R1351M
1108.312	0.016	1109002	START	n/a	n/a	n/a	n/a	-999	9	[-999, -999, -999]	n/a	catFR1	1	R1351M
1108.328	3.249	1109018	PROB	3.224	n/a	n/a	n/a	-999	9	[1, 3, 4]	8.0	catFR1	1	R1351M
1111.577	3.802	1112267	PROB	3.768	n/a	n/a	n/a	-999	9	[1, 3, 1]	5.0	catFR1	1	R1351M
1115.379	3.317	1116069	PROB	3.285	n/a	n/a	n/a	-999	9	[8, 9, 4]	21.0	catFR1	1	R1351M
1118.696	4.984	1119386	PROB	4.96	n/a	n/a	n/a	-999	9	[9, 8, 1]	18.0	catFR1	1	R1351M
1123.68	3.934	1124369	PROB	3.912	n/a	n/a	n/a	-999	9	[1, 4, 7]	12.0	catFR1	1	R1351M
1127.614	4.402	1128303	PROB	4.402	n/a	n/a	n/a	-999	9	[9, 1, 5]	15.0	catFR1	1	R1351M
1132.016	0.017	1132705	STOP	n/a	n/a	n/a	n/a	-999	9	[-999, -999, -999]	n/a	catFR1	1	R1351M
1132.033	0.598	1132722	DISTRACT_END	n/a	n/a	n/a	n/a	-999	9	[0, 0, 0]	n/a	catFR1	1	R1351M
1132.631	1.619	1133320	RETRIEVAL_ORIENT_START	n/a	n/a	n/a	n/a	-999	9	[0, 0, 0]	n/a	catFR1	1	R1351M
1134.25	0.0	1134939	REC_START	n/a	n/a	n/a	n/a	-999	9	[0, 0, 0]	n/a	catFR1	1	R1351M
1134.25	1.151	1134939	RETRIEVAL_ORIENT_END	n/a	n/a	n/a	n/a	-999	9	[0, 0, 0]	n/a	catFR1	1	R1351M
1135.401	0.586	1136090	REC_WORD_VV	1.151	n/a	<>	n/a	-999	9	[0, 0, 0]	n/a	catFR1	1	R1351M
1135.987	1.131	1136676	REC_WORD	1.737	n/a	CHIMPANZEE	Zoo	5	9	[0, 0, 0]	n/a	catFR1	1	R1351M
1137.118	1.036	1137807	REC_WORD_VV	2.868	n/a	<>	n/a	-999	9	[0, 0, 0]	n/a	catFR1	1	R1351M
1138.154	2.49	1138843	REC_WORD	3.904	n/a	GORILLA	Zoo	6	9	[0, 0, 0]	n/a	catFR1	1	R1351M
1140.644	1.273	1141333	REC_WORD	6.394	n/a	LAMB	FarmAnimals	1	9	[0, 0, 0]	n/a	catFR1	1	R1351M
1141.917	3.574	1142606	REC_WORD	7.667	n/a	COW	FarmAnimals	2	9	[0, 0, 0]	n/a	catFR1	1	R1351M
1145.491	0.803	1146179	REC_WORD	11.241	n/a	OYSTER	OceanAnimals	-999	9	[0, 0, 0]	n/a	catFR1	1	R1351M
1146.294	0.864	1146982	REC_WORD	12.044	n/a	CRAB	OceanAnimals	3	9	[0, 0, 0]	n/a	catFR1	1	R1351M
1147.158	17.106	1147846	REC_WORD	12.908	n/a	PLANKTON	OceanAnimals	7	9	[0, 0, 0]	n/a	catFR1	1	R1351M
1164.264	0.001	1164952	REC_END	n/a	n/a	n/a	n/a	-999	9	[0, 0, 0]	n/a	catFR1	1	R1351M
1164.265	0.021	1164953	TRIAL_END	n/a	n/a	n/a	n/a	-999	9	[0, 0, 0]	n/a	catFR1	1	R1351M
1164.286	0.0	1164974	TRIAL_START	n/a	n/a	n/a	n/a	-999	10	[0, 0, 0]	n/a	catFR1	1	R1351M
1164.286	0.001	1164974	TRIAL	n/a	n/a	n/a	n/a	-999	10	[0, 0, 0]	n/a	catFR1	1	R1351M
1164.287	9.187	1164975	WAITING_START	n/a	n/a	n/a	n/a	-999	10	[0, 0, 0]	n/a	catFR1	1	R1351M
1173.474	0.001	1174161	WAITING_END	n/a	n/a	n/a	n/a	-999	10	[0, 0, 0]	n/a	catFR1	1	R1351M
1173.475	10.429	1174162	COUNTDOWN_START	n/a	n/a	n/a	n/a	-999	10	[0, 0, 0]	n/a	catFR1	1	R1351M
1183.904	0.0	1184591	ORIENT_START	n/a	n/a	n/a	n/a	-999	10	[0, 0, 0]	n/a	catFR1	1	R1351M
1183.904	1.156	1184591	COUNTDOWN_END	n/a	n/a	n/a	n/a	-999	10	[0, 0, 0]	n/a	catFR1	1	R1351M
1185.06	0.0	1185747	ENCODING_START	n/a	n/a	n/a	n/a	-999	10	[0, 0, 0]	n/a	catFR1	1	R1351M
1185.06	0.853	1185747	ORIENT_END	n/a	n/a	n/a	n/a	-999	10	[0, 0, 0]	n/a	catFR1	1	R1351M
1185.913	1.629	1186600	WORD	n/a	wordpools/wordpool_categorized_EN.txt	JUICE	Beverages	1	10	[0, 0, 0]	n/a	catFR1	1	R1351M
1187.542	0.923	1188229	WORD_OFF	n/a	n/a	JUICE	Beverages	1	10	[0, 0, 0]	n/a	catFR1	1	R1351M
1188.465	1.629	1189151	WORD	n/a	wordpools/wordpool_categorized_EN.txt	LEMONADE	Beverages	2	10	[0, 0, 0]	n/a	catFR1	1	R1351M
1190.094	0.938	1190780	WORD_OFF	n/a	n/a	LEMONADE	Beverages	2	10	[0, 0, 0]	n/a	catFR1	1	R1351M
1191.032	1.628	1191718	WORD	n/a	wordpools/wordpool_categorized_EN.txt	ROSE	Flowers	3	10	[0, 0, 0]	n/a	catFR1	1	R1351M
1192.66	0.893	1193346	WORD_OFF	n/a	n/a	ROSE	Flowers	3	10	[0, 0, 0]	n/a	catFR1	1	R1351M
1193.553	1.625	1194239	WORD	n/a	wordpools/wordpool_categorized_EN.txt	DAISY	Flowers	4	10	[0, 0, 0]	n/a	catFR1	1	R1351M
1195.178	0.761	1195864	WORD_OFF	n/a	n/a	DAISY	Flowers	4	10	[0, 0, 0]	n/a	catFR1	1	R1351M
1195.939	1.622	1196625	WORD	n/a	wordpools/wordpool_categorized_EN.txt	COUCH	Furniture	5	10	[0, 0, 0]	n/a	catFR1	1	R1351M
1197.561	1.049	1198247	WORD_OFF	n/a	n/a	COUCH	Furniture	5	10	[0, 0, 0]	n/a	catFR1	1	R1351M
1198.61	1.636	1199296	WORD	n/a	wordpools/wordpool_categorized_EN.txt	CHAIR	Furniture	6	10	[0, 0, 0]	n/a	catFR1	1	R1351M
1200.246	1.038	1200932	WORD_OFF	n/a	n/a	CHAIR	Furniture	6	10	[0, 0, 0]	n/a	catFR1	1	R1351M
1201.284	1.629	1201970	WORD	n/a	wordpools/wordpool_categorized_EN.txt	LILY	Flowers	7	10	[0, 0, 0]	n/a	catFR1	1	R1351M
1202.913	1.126	1203599	WORD_OFF	n/a	n/a	LILY	Flowers	7	10	[0, 0, 0]	n/a	catFR1	1	R1351M
1204.039	1.624	1204725	WORD	n/a	wordpools/wordpool_categorized_EN.txt	LILAC	Flowers	8	10	[0, 0, 0]	n/a	catFR1	1	R1351M
1205.663	0.83	1206349	WORD_OFF	n/a	n/a	LILAC	Flowers	8	10	[0, 0, 0]	n/a	catFR1	1	R1351M
1206.493	1.638	1207179	WORD	n/a	wordpools/wordpool_categorized_EN.txt	CABINET	Furniture	9	10	[0, 0, 0]	n/a	catFR1	1	R1351M
1208.131	1.124	1208817	WORD_OFF	n/a	n/a	CABINET	Furniture	9	10	[0, 0, 0]	n/a	catFR1	1	R1351M
1209.255	1.625	1209941	WORD	n/a	wordpools/wordpool_categorized_EN.txt	DRESSER	Furniture	10	10	[0, 0, 0]	n/a	catFR1	1	R1351M
1210.88	1.068	1211565	WORD_OFF	n/a	n/a	DRESSER	Furniture	10	10	[0, 0, 0]	n/a	catFR1	1	R1351M
1211.948	1.633	1212633	WORD	n/a	wordpools/wordpool_categorized_EN.txt	WINE	Beverages	11	10	[0, 0, 0]	n/a	catFR1	1	R1351M
1213.581	1.004	1214266	WORD_OFF	n/a	n/a	WINE	Beverages	11	10	[0, 0, 0]	n/a	catFR1	1	R1351M
1214.585	1.631	1215270	WORD	n/a	wordpools/wordpool_categorized_EN.txt	COLA	Beverages	12	10	[0, 0, 0]	n/a	catFR1	1	R1351M
1216.216	0.0	1216901	WORD_OFF	n/a	n/a	COLA	Beverages	12	10	[0, 0, 0]	n/a	catFR1	1	R1351M
1216.216	0.0	1216901	ENCODING_END	n/a	n/a	n/a	n/a	-999	10	[0, 0, 0]	n/a	catFR1	1	R1351M
1216.216	0.001	1216901	DISTRACT_START	n/a	n/a	n/a	n/a	-999	10	[0, 0, 0]	n/a	catFR1	1	R1351M
1216.217	0.015	1216902	START	n/a	n/a	n/a	n/a	-999	10	[-999, -999, -999]	n/a	catFR1	1	R1351M
1216.232	4.884	1216917	PROB	4.856	n/a	n/a	n/a	-999	10	[9, 2, 2]	13.0	catFR1	1	R1351M
1221.116	4.617	1221801	PROB	4.579	n/a	n/a	n/a	-999	10	[4, 9, 3]	16.0	catFR1	1	R1351M
1225.733	3.151	1226418	PROB	3.123	n/a	n/a	n/a	-999	10	[1, 4, 6]	11.0	catFR1	1	R1351M
1228.884	3.201	1229569	PROB	3.164	n/a	n/a	n/a	-999	10	[5, 5, 1]	11.0	catFR1	1	R1351M
1232.085	4.118	1232770	PROB	4.084	n/a	n/a	n/a	-999	10	[7, 6, 4]	17.0	catFR1	1	R1351M
1236.203	4.078	1236887	PROB	4.078	n/a	n/a	n/a	-999	10	[9, 1, 8]	18.0	catFR1	1	R1351M
1240.281	0.006	1240965	STOP	n/a	n/a	n/a	n/a	-999	10	[-999, -999, -999]	n/a	catFR1	1	R1351M
1240.287	0.684	1240971	DISTRACT_END	n/a	n/a	n/a	n/a	-999	10	[0, 0, 0]	n/a	catFR1	1	R1351M
1240.971	1.715	1241655	RETRIEVAL_ORIENT_START	n/a	n/a	n/a	n/a	-999	10	[0, 0, 0]	n/a	catFR1	1	R1351M
1242.686	0.001	1243370	RETRIEVAL_ORIENT_END	n/a	n/a	n/a	n/a	-999	10	[0, 0, 0]	n/a	catFR1	1	R1351M
1242.687	1.565	1243371	REC_START	n/a	n/a	n/a	n/a	-999	10	[0, 0, 0]	n/a	catFR1	1	R1351M
1244.252	0.757	1244936	REC_WORD	1.565	n/a	JUICE	Beverages	1	10	[0, 0, 0]	n/a	catFR1	1	R1351M
1245.009	1.408	1245693	REC_WORD	2.322	n/a	LEMONADE	Beverages	2	10	[0, 0, 0]	n/a	catFR1	1	R1351M
1246.417	1.383	1247101	REC_WORD	3.73	n/a	COLA	Beverages	12	10	[0, 0, 0]	n/a	catFR1	1	R1351M
1247.8	8.18	1248484	REC_WORD	5.113	n/a	WINE	Beverages	11	10	[0, 0, 0]	n/a	catFR1	1	R1351M
1255.98	1.132	1256663	REC_WORD	13.293	n/a	LILY	Flowers	7	10	[0, 0, 0]	n/a	catFR1	1	R1351M
1257.112	12.464	1257795	REC_WORD	14.425	n/a	LILAC	Flowers	8	10	[0, 0, 0]	n/a	catFR1	1	R1351M
1269.576	3.125	1270259	REC_WORD	26.889	n/a	ROSE	Flowers	3	10	[0, 0, 0]	n/a	catFR1	1	R1351M
1272.701	0.0	1273384	TRIAL_END	n/a	n/a	n/a	n/a	-999	10	[0, 0, 0]	n/a	catFR1	1	R1351M
1272.701	0.025	1273384	REC_END	n/a	n/a	n/a	n/a	-999	10	[0, 0, 0]	n/a	catFR1	1	R1351M
1272.726	0.0	1273409	TRIAL_START	n/a	n/a	n/a	n/a	-999	11	[0, 0, 0]	n/a	catFR1	1	R1351M
1272.726	0.0	1273409	TRIAL	n/a	n/a	n/a	n/a	-999	11	[0, 0, 0]	n/a	catFR1	1	R1351M
1272.726	5.685	1273409	WAITING_START	n/a	n/a	n/a	n/a	-999	11	[0, 0, 0]	n/a	catFR1	1	R1351M
1278.411	0.0	1279093	WAITING_END	n/a	n/a	n/a	n/a	-999	11	[0, 0, 0]	n/a	catFR1	1	R1351M
1278.411	10.429	1279093	COUNTDOWN_START	n/a	n/a	n/a	n/a	-999	11	[0, 0, 0]	n/a	catFR1	1	R1351M
1288.84	0.0	1289522	COUNTDOWN_END	n/a	n/a	n/a	n/a	-999	11	[0, 0, 0]	n/a	catFR1	1	R1351M
1288.84	1.073	1289522	ORIENT_START	n/a	n/a	n/a	n/a	-999	11	[0, 0, 0]	n/a	catFR1	1	R1351M
1289.913	0.001	1290595	ORIENT_END	n/a	n/a	n/a	n/a	-999	11	[0, 0, 0]	n/a	catFR1	1	R1351M
1289.914	0.837	1290596	ENCODING_START	n/a	n/a	n/a	n/a	-999	11	[0, 0, 0]	n/a	catFR1	1	R1351M
1290.751	1.629	1291433	WORD	n/a	wordpools/wordpool_categorized_EN.txt	LEG	BodyParts	1	11	[0, 0, 0]	n/a	catFR1	1	R1351M
1292.38	1.03	1293062	WORD_OFF	n/a	n/a	LEG	BodyParts	1	11	[0, 0, 0]	n/a	catFR1	1	R1351M
1293.41	1.621	1294092	WORD	n/a	wordpools/wordpool_categorized_EN.txt	EAR	BodyParts	2	11	[0, 0, 0]	n/a	catFR1	1	R1351M
1295.031	0.865	1295713	WORD_OFF	n/a	n/a	EAR	BodyParts	2	11	[0, 0, 0]	n/a	catFR1	1	R1351M
1295.896	1.634	1296578	WORD	n/a	wordpools/wordpool_categorized_EN.txt	DESK	Furniture	3	11	[0, 0, 0]	n/a	catFR1	1	R1351M
1297.53	1.101	1298212	WORD_OFF	n/a	n/a	DESK	Furniture	3	11	[0, 0, 0]	n/a	catFR1	1	R1351M
1298.631	1.634	1299312	WORD	n/a	wordpools/wordpool_categorized_EN.txt	SOFA	Furniture	4	11	[0, 0, 0]	n/a	catFR1	1	R1351M
1300.265	0.754	1300946	WORD_OFF	n/a	n/a	SOFA	Furniture	4	11	[0, 0, 0]	n/a	catFR1	1	R1351M
1301.019	1.629	1301700	WORD	n/a	wordpools/wordpool_categorized_EN.txt	MOPED	Vehicles	5	11	[0, 0, 0]	n/a	catFR1	1	R1351M
1302.648	0.799	1303329	WORD_OFF	n/a	n/a	MOPED	Vehicles	5	11	[0, 0, 0]	n/a	catFR1	1	R1351M
1303.447	1.636	1304128	WORD	n/a	wordpools/wordpool_categorized_EN.txt	JEEP	Vehicles	6	11	[0, 0, 0]	n/a	catFR1	1	R1351M
1305.083	0.813	1305764	WORD_OFF	n/a	n/a	JEEP	Vehicles	6	11	[0, 0, 0]	n/a	catFR1	1	R1351M
1305.896	1.637	1306577	WORD	n/a	wordpools/wordpool_categorized_EN.txt	TOE	BodyParts	7	11	[0, 0, 0]	n/a	catFR1	1	R1351M
1307.533	1.09	1308214	WORD_OFF	n/a	n/a	TOE	BodyParts	7	11	[0, 0, 0]	n/a	catFR1	1	R1351M
1308.623	1.628	1309304	WORD	n/a	wordpools/wordpool_categorized_EN.txt	KNEE	BodyParts	8	11	[0, 0, 0]	n/a	catFR1	1	R1351M
1310.251	1.084	1310932	WORD_OFF	n/a	n/a	KNEE	BodyParts	8	11	[0, 0, 0]	n/a	catFR1	1	R1351M
1311.335	1.633	1312016	WORD	n/a	wordpools/wordpool_categorized_EN.txt	PLANE	Vehicles	9	11	[0, 0, 0]	n/a	catFR1	1	R1351M
1312.968	0.832	1313649	WORD_OFF	n/a	n/a	PLANE	Vehicles	9	11	[0, 0, 0]	n/a	catFR1	1	R1351M
1313.8	1.635	1314481	WORD	n/a	wordpools/wordpool_categorized_EN.txt	VAN	Vehicles	10	11	[0, 0, 0]	n/a	catFR1	1	R1351M
1315.435	0.904	1316116	WORD_OFF	n/a	n/a	VAN	Vehicles	10	11	[0, 0, 0]	n/a	catFR1	1	R1351M
1316.339	1.63	1317020	WORD	n/a	wordpools/wordpool_categorized_EN.txt	BED	Furniture	11	11	[0, 0, 0]	n/a	catFR1	1	R1351M
1317.969	1.115	1318650	WORD_OFF	n/a	n/a	BED	Furniture	11	11	[0, 0, 0]	n/a	catFR1	1	R1351M
1319.084	1.634	1319765	WORD	n/a	wordpools/wordpool_categorized_EN.txt	NIGHTSTAND	Furniture	12	11	[0, 0, 0]	n/a	catFR1	1	R1351M
1320.718	0.001	1321398	WORD_OFF	n/a	n/a	NIGHTSTAND	Furniture	12	11	[0, 0, 0]	n/a	catFR1	1	R1351M
1320.719	0.0	1321399	ENCODING_END	n/a	n/a	n/a	n/a	-999	11	[0, 0, 0]	n/a	catFR1	1	R1351M
1320.719	0.0	1321399	DISTRACT_START	n/a	n/a	n/a	n/a	-999	11	[0, 0, 0]	n/a	catFR1	1	R1351M
1320.719	0.016	1321399	START	n/a	n/a	n/a	n/a	-999	11	[-999, -999, -999]	n/a	catFR1	1	R1351M
1320.735	4.15	1321415	PROB	4.116	n/a	n/a	n/a	-999	11	[7, 2, 3]	12.0	catFR1	1	R1351M
1324.885	3.536	1325565	PROB	3.503	n/a	n/a	n/a	-999	11	[2, 1, 7]	10.0	catFR1	1	R1351M
1328.421	4.316	1329101	PROB	4.277	n/a	n/a	n/a	-999	11	[7, 2, 7]	16.0	catFR1	1	R1351M
1332.737	3.817	1333417	PROB	3.794	n/a	n/a	n/a	-999	11	[8, 4, 7]	19.0	catFR1	1	R1351M
1336.554	3.301	1337234	PROB	3.264	n/a	n/a	n/a	-999	11	[9, 6, 6]	21.0	catFR1	1	R1351M
1339.855	3.516	1340535	PROB	3.516	n/a	n/a	n/a	-999	11	[6, 9, 8]	23.0	catFR1	1	R1351M
1343.371	0.019	1344050	STOP	n/a	n/a	n/a	n/a	-999	11	[-999, -999, -999]	n/a	catFR1	1	R1351M
1343.39	0.69	1344069	DISTRACT_END	n/a	n/a	n/a	n/a	-999	11	[0, 0, 0]	n/a	catFR1	1	R1351M
1344.08	1.66	1344759	RETRIEVAL_ORIENT_START	n/a	n/a	n/a	n/a	-999	11	[0, 0, 0]	n/a	catFR1	1	R1351M
1345.74	0.0	1346419	REC_START	n/a	n/a	n/a	n/a	-999	11	[0, 0, 0]	n/a	catFR1	1	R1351M
1345.74	1.595	1346419	RETRIEVAL_ORIENT_END	n/a	n/a	n/a	n/a	-999	11	[0, 0, 0]	n/a	catFR1	1	R1351M
1347.335	5.217	1348014	REC_WORD	1.595	n/a	PLANE	Vehicles	9	11	[0, 0, 0]	n/a	catFR1	1	R1351M
1352.552	1.115	1353231	REC_WORD	6.812	n/a	CABINET	Furniture	-999	11	[0, 0, 0]	n/a	catFR1	1	R1351M
1353.667	1.031	1354346	REC_WORD	7.927	n/a	NIGHTSTAND	Furniture	12	11	[0, 0, 0]	n/a	catFR1	1	R1351M
1354.698	4.592	1355377	REC_WORD_VV	8.958	n/a	<>	n/a	-999	11	[0, 0, 0]	n/a	catFR1	1	R1351M
1359.29	1.136	1359969	REC_WORD	13.55	n/a	LEG	BodyParts	1	11	[0, 0, 0]	n/a	catFR1	1	R1351M
1360.426	15.328	1361105	REC_WORD	14.686	n/a	EAR	BodyParts	2	11	[0, 0, 0]	n/a	catFR1	1	R1351M
1375.754	0.0	1376432	REC_END	n/a	n/a	n/a	n/a	-999	11	[0, 0, 0]	n/a	catFR1	1	R1351M
1375.754	0.022	1376432	TRIAL_END	n/a	n/a	n/a	n/a	-999	11	[0, 0, 0]	n/a	catFR1	1	R1351M
1375.776	0.0	1376454	WAITING_START	n/a	n/a	n/a	n/a	-999	12	[0, 0, 0]	n/a	catFR1	1	R1351M
1375.776	0.0	1376454	TRIAL_START	n/a	n/a	n/a	n/a	-999	12	[0, 0, 0]	n/a	catFR1	1	R1351M
1375.776	7.139	1376454	TRIAL	n/a	n/a	n/a	n/a	-999	12	[0, 0, 0]	n/a	catFR1	1	R1351M
1382.915	0.0	1383593	WAITING_END	n/a	n/a	n/a	n/a	-999	12	[0, 0, 0]	n/a	catFR1	1	R1351M
1382.915	10.43	1383593	COUNTDOWN_START	n/a	n/a	n/a	n/a	-999	12	[0, 0, 0]	n/a	catFR1	1	R1351M
1393.345	0.0	1394022	COUNTDOWN_END	n/a	n/a	n/a	n/a	-999	12	[0, 0, 0]	n/a	catFR1	1	R1351M
1393.345	1.238	1394022	ORIENT_START	n/a	n/a	n/a	n/a	-999	12	[0, 0, 0]	n/a	catFR1	1	R1351M
1394.583	0.0	1395260	ENCODING_START	n/a	n/a	n/a	n/a	-999	12	[0, 0, 0]	n/a	catFR1	1	R1351M
1394.583	0.986	1395260	ORIENT_END	n/a	n/a	n/a	n/a	-999	12	[0, 0, 0]	n/a	catFR1	1	R1351M
1395.569	1.615	1396246	WORD	n/a	wordpools/wordpool_categorized_EN.txt	MICROWAVE	Electronics	1	12	[0, 0, 0]	n/a	catFR1	1	R1351M
1397.184	0.807	1397861	WORD_OFF	n/a	n/a	MICROWAVE	Electronics	1	12	[0, 0, 0]	n/a	catFR1	1	R1351M
1397.991	1.626	1398668	WORD	n/a	wordpools/wordpool_categorized_EN.txt	HEADPHONES	Electronics	2	12	[0, 0, 0]	n/a	catFR1	1	R1351M
1399.617	1.117	1400294	WORD_OFF	n/a	n/a	HEADPHONES	Electronics	2	12	[0, 0, 0]	n/a	catFR1	1	R1351M
1400.734	1.618	1401411	WORD	n/a	wordpools/wordpool_categorized_EN.txt	PEN	OfficeSupplies	3	12	[0, 0, 0]	n/a	catFR1	1	R1351M
1402.352	0.825	1403029	WORD_OFF	n/a	n/a	PEN	OfficeSupplies	3	12	[0, 0, 0]	n/a	catFR1	1	R1351M
1403.177	1.624	1403854	WORD	n/a	wordpools/wordpool_categorized_EN.txt	STAPLER	OfficeSupplies	4	12	[0, 0, 0]	n/a	catFR1	1	R1351M
1404.801	0.816	1405478	WORD_OFF	n/a	n/a	STAPLER	OfficeSupplies	4	12	[0, 0, 0]	n/a	catFR1	1	R1351M
1405.617	1.619	1406294	WORD	n/a	wordpools/wordpool_categorized_EN.txt	CORN	Vegetables	5	12	[0, 0, 0]	n/a	catFR1	1	R1351M
1407.236	0.832	1407913	WORD_OFF	n/a	n/a	CORN	Vegetables	5	12	[0, 0, 0]	n/a	catFR1	1	R1351M
1408.068	1.634	1408745	WORD	n/a	wordpools/wordpool_categorized_EN.txt	BROCCOLI	Vegetables	6	12	[0, 0, 0]	n/a	catFR1	1	R1351M
1409.702	0.958	1410378	WORD_OFF	n/a	n/a	BROCCOLI	Vegetables	6	12	[0, 0, 0]	n/a	catFR1	1	R1351M
1410.66	1.61	1411336	WORD	n/a	wordpools/wordpool_categorized_EN.txt	TAPE	OfficeSupplies	7	12	[0, 0, 0]	n/a	catFR1	1	R1351M
1412.27	0.806	1412946	WORD_OFF	n/a	n/a	TAPE	OfficeSupplies	7	12	[0, 0, 0]	n/a	catFR1	1	R1351M
1413.076	1.627	1413752	WORD	n/a	wordpools/wordpool_categorized_EN.txt	BINDER	OfficeSupplies	8	12	[0, 0, 0]	n/a	catFR1	1	R1351M
1414.703	1.14	1415379	WORD_OFF	n/a	n/a	BINDER	OfficeSupplies	8	12	[0, 0, 0]	n/a	catFR1	1	R1351M
1415.843	1.611	1416519	WORD	n/a	wordpools/wordpool_categorized_EN.txt	SPEAKER	Electronics	9	12	[0, 0, 0]	n/a	catFR1	1	R1351M
1417.454	0.904	1418130	WORD_OFF	n/a	n/a	SPEAKER	Electronics	9	12	[0, 0, 0]	n/a	catFR1	1	R1351M
1418.358	1.631	1419034	WORD	n/a	wordpools/wordpool_categorized_EN.txt	TABLET	Electronics	10	12	[0, 0, 0]	n/a	catFR1	1	R1351M
1419.989	1.008	1420665	WORD_OFF	n/a	n/a	TABLET	Electronics	10	12	[0, 0, 0]	n/a	catFR1	1	R1351M
1420.997	1.624	1421673	WORD	n/a	wordpools/wordpool_categorized_EN.txt	CELERY	Vegetables	11	12	[0, 0, 0]	n/a	catFR1	1	R1351M
1422.621	1.148	1423297	WORD_OFF	n/a	n/a	CELERY	Vegetables	11	12	[0, 0, 0]	n/a	catFR1	1	R1351M
1423.769	1.637	1424445	WORD	n/a	wordpools/wordpool_categorized_EN.txt	PEAS	Vegetables	12	12	[0, 0, 0]	n/a	catFR1	1	R1351M
1425.406	0.001	1426082	WORD_OFF	n/a	n/a	PEAS	Vegetables	12	12	[0, 0, 0]	n/a	catFR1	1	R1351M
1425.407	0.0	1426083	ENCODING_END	n/a	n/a	n/a	n/a	-999	12	[0, 0, 0]	n/a	catFR1	1	R1351M
1425.407	0.0	1426083	DISTRACT_START	n/a	n/a	n/a	n/a	-999	12	[0, 0, 0]	n/a	catFR1	1	R1351M
1425.407	0.016	1426083	START	n/a	n/a	n/a	n/a	-999	12	[-999, -999, -999]	n/a	catFR1	1	R1351M
1425.423	4.316	1426099	PROB	4.293	n/a	n/a	n/a	-999	12	[5, 3, 5]	13.0	catFR1	1	R1351M
1429.739	3.951	1430415	PROB	3.929	n/a	n/a	n/a	-999	12	[4, 6, 9]	19.0	catFR1	1	R1351M
1433.69	3.385	1434365	PROB	3.347	n/a	n/a	n/a	-999	12	[8, 7, 1]	16.0	catFR1	1	R1351M
1437.075	4.6	1437750	PROB	4.569	n/a	n/a	n/a	-999	12	[1, 8, 5]	14.0	catFR1	1	R1351M
1441.675	3.718	1442350	PROB	3.689	n/a	n/a	n/a	-999	12	[8, 3, 7]	18.0	catFR1	1	R1351M
1445.393	3.187	1446068	PROB	3.187	n/a	n/a	n/a	-999	12	[1, 5, 5]	11.0	catFR1	1	R1351M
1448.58	0.013	1449255	STOP	n/a	n/a	n/a	n/a	-999	12	[-999, -999, -999]	n/a	catFR1	1	R1351M
1448.593	0.556	1449268	DISTRACT_END	n/a	n/a	n/a	n/a	-999	12	[0, 0, 0]	n/a	catFR1	1	R1351M
1449.149	1.594	1449824	RETRIEVAL_ORIENT_START	n/a	n/a	n/a	n/a	-999	12	[0, 0, 0]	n/a	catFR1	1	R1351M
1450.743	0.001	1451418	RETRIEVAL_ORIENT_END	n/a	n/a	n/a	n/a	-999	12	[0, 0, 0]	n/a	catFR1	1	R1351M
1450.744	1.243	1451419	REC_START	n/a	n/a	n/a	n/a	-999	12	[0, 0, 0]	n/a	catFR1	1	R1351M
1451.987	1.024	1452662	REC_WORD	1.243	n/a	SPEAKER	Electronics	9	12	[0, 0, 0]	n/a	catFR1	1	R1351M
1453.011	0.286	1453685	REC_WORD_VV	2.267	n/a	<>	n/a	-999	12	[0, 0, 0]	n/a	catFR1	1	R1351M
1453.297	17.205	1453971	REC_WORD	2.553	n/a	MICROPHONE	n/a	-999	12	[0, 0, 0]	n/a	catFR1	1	R1351M
1470.502	6.471	1471176	REC_WORD_VV	19.758	n/a	<>	n/a	-999	12	[0, 0, 0]	n/a	catFR1	1	R1351M
1476.973	3.783	1477646	REC_WORD	26.229	n/a	PEN	OfficeSupplies	3	12	[0, 0, 0]	n/a	catFR1	1	R1351M
1480.756	0.0	1481429	REC_END	n/a	n/a	n/a	n/a	-999	12	[0, 0, 0]	n/a	catFR1	1	R1351M
1480.756	0.022	1481429	TRIAL_END	n/a	n/a	n/a	n/a	-999	12	[0, 0, 0]	n/a	catFR1	1	R1351M
1480.778	0.0	1481451	TRIAL_START	n/a	n/a	n/a	n/a	-999	13	[0, 0, 0]	n/a	catFR1	1	R1351M
1480.778	0.0	1481451	TRIAL	n/a	n/a	n/a	n/a	-999	13	[0, 0, 0]	n/a	catFR1	1	R1351M
1480.778	13.658	1481451	WAITING_START	n/a	n/a	n/a	n/a	-999	13	[0, 0, 0]	n/a	catFR1	1	R1351M
1494.436	0.001	1495109	WAITING_END	n/a	n/a	n/a	n/a	-999	13	[0, 0, 0]	n/a	catFR1	1	R1351M
1494.437	10.429	1495110	COUNTDOWN_START	n/a	n/a	n/a	n/a	-999	13	[0, 0, 0]	n/a	catFR1	1	R1351M
1504.866	0.0	1505538	ORIENT_START	n/a	n/a	n/a	n/a	-999	13	[0, 0, 0]	n/a	catFR1	1	R1351M
1504.866	1.206	1505538	COUNTDOWN_END	n/a	n/a	n/a	n/a	-999	13	[0, 0, 0]	n/a	catFR1	1	R1351M
1506.072	0.0	1506744	ORIENT_END	n/a	n/a	n/a	n/a	-999	13	[0, 0, 0]	n/a	catFR1	1	R1351M
1506.072	0.942	1506744	ENCODING_START	n/a	n/a	n/a	n/a	-999	13	[0, 0, 0]	n/a	catFR1	1	R1351M
1507.014	1.624	1507686	WORD	n/a	wordpools/wordpool_categorized_EN.txt	FREEZER	Appliances	1	13	[0, 0, 0]	n/a	catFR1	1	R1351M
1508.638	0.892	1509310	WORD_OFF	n/a	n/a	FREEZER	Appliances	1	13	[0, 0, 0]	n/a	catFR1	1	R1351M
1509.53	1.626	1510202	WORD	n/a	wordpools/wordpool_categorized_EN.txt	MIXER	Appliances	2	13	[0, 0, 0]	n/a	catFR1	1	R1351M
1511.156	0.947	1511828	WORD_OFF	n/a	n/a	MIXER	Appliances	2	13	[0, 0, 0]	n/a	catFR1	1	R1351M
1512.103	1.636	1512775	WORD	n/a	wordpools/wordpool_categorized_EN.txt	UNDERWEAR	Clothing	3	13	[0, 0, 0]	n/a	catFR1	1	R1351M
1513.739	1.068	1514411	WORD_OFF	n/a	n/a	UNDERWEAR	Clothing	3	13	[0, 0, 0]	n/a	catFR1	1	R1351M
1514.807	1.634	1515479	WORD	n/a	wordpools/wordpool_categorized_EN.txt	SKIRT	Clothing	4	13	[0, 0, 0]	n/a	catFR1	1	R1351M
1516.441	1.137	1517113	WORD_OFF	n/a	n/a	SKIRT	Clothing	4	13	[0, 0, 0]	n/a	catFR1	1	R1351M
1517.578	1.613	1518250	WORD	n/a	wordpools/wordpool_categorized_EN.txt	DOLL	Toys	5	13	[0, 0, 0]	n/a	catFR1	1	R1351M
1519.191	1.13	1519862	WORD_OFF	n/a	n/a	DOLL	Toys	5	13	[0, 0, 0]	n/a	catFR1	1	R1351M
1520.321	1.637	1520992	WORD	n/a	wordpools/wordpool_categorized_EN.txt	BLOCKS	Toys	6	13	[0, 0, 0]	n/a	catFR1	1	R1351M
1521.958	0.957	1522629	WORD_OFF	n/a	n/a	BLOCKS	Toys	6	13	[0, 0, 0]	n/a	catFR1	1	R1351M
1522.915	1.626	1523586	WORD	n/a	wordpools/wordpool_categorized_EN.txt	DRESS	Clothing	7	13	[0, 0, 0]	n/a	catFR1	1	R1351M
1524.541	0.81	1525212	WORD_OFF	n/a	n/a	DRESS	Clothing	7	13	[0, 0, 0]	n/a	catFR1	1	R1351M
1525.351	1.625	1526022	WORD	n/a	wordpools/wordpool_categorized_EN.txt	PANTS	Clothing	8	13	[0, 0, 0]	n/a	catFR1	1	R1351M
1526.976	0.852	1527647	WORD_OFF	n/a	n/a	PANTS	Clothing	8	13	[0, 0, 0]	n/a	catFR1	1	R1351M
1527.828	1.632	1528499	WORD	n/a	wordpools/wordpool_categorized_EN.txt	MARBLES	Toys	9	13	[0, 0, 0]	n/a	catFR1	1	R1351M
1529.46	1.01	1530131	WORD_OFF	n/a	n/a	MARBLES	Toys	9	13	[0, 0, 0]	n/a	catFR1	1	R1351M
1530.47	1.624	1531141	WORD	n/a	wordpools/wordpool_categorized_EN.txt	BALL	Toys	10	13	[0, 0, 0]	n/a	catFR1	1	R1351M
1532.094	0.849	1532765	WORD_OFF	n/a	n/a	BALL	Toys	10	13	[0, 0, 0]	n/a	catFR1	1	R1351M
1532.943	1.634	1533614	WORD	n/a	wordpools/wordpool_categorized_EN.txt	BLENDER	Appliances	11	13	[0, 0, 0]	n/a	catFR1	1	R1351M
1534.577	0.827	1535248	WORD_OFF	n/a	n/a	BLENDER	Appliances	11	13	[0, 0, 0]	n/a	catFR1	1	R1351M
1535.404	1.624	1536075	WORD	n/a	wordpools/wordpool_categorized_EN.txt	WASHER	Appliances	12	13	[0, 0, 0]	n/a	catFR1	1	R1351M
1537.028	0.0	1537699	WORD_OFF	n/a	n/a	WASHER	Appliances	12	13	[0, 0, 0]	n/a	catFR1	1	R1351M
1537.028	0.001	1537699	ENCODING_END	n/a	n/a	n/a	n/a	-999	13	[0, 0, 0]	n/a	catFR1	1	R1351M
1537.029	0.0	1537700	DISTRACT_START	n/a	n/a	n/a	n/a	-999	13	[0, 0, 0]	n/a	catFR1	1	R1351M
1537.029	0.015	1537700	START	n/a	n/a	n/a	n/a	-999	13	[-999, -999, -999]	n/a	catFR1	1	R1351M
1537.044	4.001	1537715	PROB	3.966	n/a	n/a	n/a	-999	13	[4, 6, 3]	13.0	catFR1	1	R1351M
1541.045	4.951	1541715	PROB	4.924	n/a	n/a	n/a	-999	13	[3, 6, 8]	17.0	catFR1	1	R1351M
1545.996	3.467	1546666	PROB	3.43	n/a	n/a	n/a	-999	13	[5, 1, 8]	14.0	catFR1	1	R1351M
1549.463	5.785	1550133	PROB	5.748	n/a	n/a	n/a	-999	13	[7, 6, 9]	22.0	catFR1	1	R1351M
1555.248	4.37	1555918	PROB	4.37	n/a	n/a	n/a	-999	13	[9, 4, 3]	16.0	catFR1	1	R1351M
1559.618	0.013	1560288	STOP	n/a	n/a	n/a	n/a	-999	13	[-999, -999, -999]	n/a	catFR1	1	R1351M
1559.631	0.609	1560301	DISTRACT_END	n/a	n/a	n/a	n/a	-999	13	[0, 0, 0]	n/a	catFR1	1	R1351M
1560.24	1.709	1560910	RETRIEVAL_ORIENT_START	n/a	n/a	n/a	n/a	-999	13	[0, 0, 0]	n/a	catFR1	1	R1351M
1561.949	0.001	1562619	RETRIEVAL_ORIENT_END	n/a	n/a	n/a	n/a	-999	13	[0, 0, 0]	n/a	catFR1	1	R1351M
1561.95	3.223	1562620	REC_START	n/a	n/a	n/a	n/a	-999	13	[0, 0, 0]	n/a	catFR1	1	R1351M
1565.173	4.775	1565842	REC_WORD	3.223	n/a	FREEZER	Appliances	1	13	[0, 0, 0]	n/a	catFR1	1	R1351M
1569.948	6.49	1570617	REC_WORD	7.998	n/a	MICROWAVE	Electronics	-999	13	[0, 0, 0]	n/a	catFR1	1	R1351M
1576.438	1.12	1577107	REC_WORD	14.488	n/a	DRESS	Clothing	7	13	[0, 0, 0]	n/a	catFR1	1	R1351M
1577.558	0.946	1578227	REC_WORD	15.608	n/a	SOCKS	n/a	-999	13	[0, 0, 0]	n/a	catFR1	1	R1351M
1578.504	0.573	1579173	REC_WORD_VV	16.554	n/a	<>	n/a	-999	13	[0, 0, 0]	n/a	catFR1	1	R1351M
1579.077	5.694	1579746	REC_WORD	17.127	n/a	PANTS	Clothing	8	13	[0, 0, 0]	n/a	catFR1	1	R1351M
1584.771	7.193	1585440	REC_WORD	22.821	n/a	SKIRT	Clothing	4	13	[0, 0, 0]	n/a	catFR1	1	R1351M
1591.964	0.0	1592632	REC_END	n/a	n/a	n/a	n/a	-999	13	[0, 0, 0]	n/a	catFR1	1	R1351M
1591.964	0.025	1592632	TRIAL_END	n/a	n/a	n/a	n/a	-999	13	[0, 0, 0]	n/a	catFR1	1	R1351M
1591.989	0.0	1592657	TRIAL_START	n/a	n/a	n/a	n/a	-999	14	[0, 0, 0]	n/a	catFR1	1	R1351M
1591.989	0.0	1592657	TRIAL	n/a	n/a	n/a	n/a	-999	14	[0, 0, 0]	n/a	catFR1	1	R1351M
1591.989	8.717	1592657	WAITING_START	n/a	n/a	n/a	n/a	-999	14	[0, 0, 0]	n/a	catFR1	1	R1351M
1600.706	0.0	1601374	WAITING_END	n/a	n/a	n/a	n/a	-999	14	[0, 0, 0]	n/a	catFR1	1	R1351M
1600.706	10.43	1601374	COUNTDOWN_START	n/a	n/a	n/a	n/a	-999	14	[0, 0, 0]	n/a	catFR1	1	R1351M
1611.136	0.0	1611803	ORIENT_START	n/a	n/a	n/a	n/a	-999	14	[0, 0, 0]	n/a	catFR1	1	R1351M
1611.136	1.073	1611803	COUNTDOWN_END	n/a	n/a	n/a	n/a	-999	14	[0, 0, 0]	n/a	catFR1	1	R1351M
1612.209	0.001	1612876	ORIENT_END	n/a	n/a	n/a	n/a	-999	14	[0, 0, 0]	n/a	catFR1	1	R1351M
1612.21	1.117	1612877	ENCODING_START	n/a	n/a	n/a	n/a	-999	14	[0, 0, 0]	n/a	catFR1	1	R1351M
1613.327	1.633	1613994	WORD	n/a	wordpools/wordpool_categorized_EN.txt	SUNFLOWER	Flowers	1	14	[0, 0, 0]	n/a	catFR1	1	R1351M
1614.96	1.059	1615627	WORD_OFF	n/a	n/a	SUNFLOWER	Flowers	1	14	[0, 0, 0]	n/a	catFR1	1	R1351M
1616.019	1.624	1616686	WORD	n/a	wordpools/wordpool_categorized_EN.txt	PETUNIA	Flowers	2	14	[0, 0, 0]	n/a	catFR1	1	R1351M
1617.643	0.871	1618310	WORD_OFF	n/a	n/a	PETUNIA	Flowers	2	14	[0, 0, 0]	n/a	catFR1	1	R1351M
1618.514	1.63	1619181	WORD	n/a	wordpools/wordpool_categorized_EN.txt	ERASER	OfficeSupplies	3	14	[0, 0, 0]	n/a	catFR1	1	R1351M
1620.144	1.032	1620811	WORD_OFF	n/a	n/a	ERASER	OfficeSupplies	3	14	[0, 0, 0]	n/a	catFR1	1	R1351M
1621.176	1.634	1621843	WORD	n/a	wordpools/wordpool_categorized_EN.txt	RULER	OfficeSupplies	4	14	[0, 0, 0]	n/a	catFR1	1	R1351M
1622.81	1.048	1623477	WORD_OFF	n/a	n/a	RULER	OfficeSupplies	4	14	[0, 0, 0]	n/a	catFR1	1	R1351M
1623.858	1.637	1624525	WORD	n/a	wordpools/wordpool_categorized_EN.txt	SAW	Tools	5	14	[0, 0, 0]	n/a	catFR1	1	R1351M
1625.495	0.849	1626162	WORD_OFF	n/a	n/a	SAW	Tools	5	14	[0, 0, 0]	n/a	catFR1	1	R1351M
1626.344	1.635	1627011	WORD	n/a	wordpools/wordpool_categorized_EN.txt	RATCHET	Tools	6	14	[0, 0, 0]	n/a	catFR1	1	R1351M
1627.979	1.151	1628646	WORD_OFF	n/a	n/a	RATCHET	Tools	6	14	[0, 0, 0]	n/a	catFR1	1	R1351M
1629.13	1.632	1629796	WORD	n/a	wordpools/wordpool_categorized_EN.txt	PENCIL	OfficeSupplies	7	14	[0, 0, 0]	n/a	catFR1	1	R1351M
1630.762	0.766	1631428	WORD_OFF	n/a	n/a	PENCIL	OfficeSupplies	7	14	[0, 0, 0]	n/a	catFR1	1	R1351M
1631.528	1.635	1632194	WORD	n/a	wordpools/wordpool_categorized_EN.txt	FOLDER	OfficeSupplies	8	14	[0, 0, 0]	n/a	catFR1	1	R1351M
1633.163	1.076	1633829	WORD_OFF	n/a	n/a	FOLDER	OfficeSupplies	8	14	[0, 0, 0]	n/a	catFR1	1	R1351M
1634.239	1.624	1634905	WORD	n/a	wordpools/wordpool_categorized_EN.txt	WRENCH	Tools	9	14	[0, 0, 0]	n/a	catFR1	1	R1351M
1635.863	1.075	1636529	WORD_OFF	n/a	n/a	WRENCH	Tools	9	14	[0, 0, 0]	n/a	catFR1	1	R1351M
1636.938	1.625	1637604	WORD	n/a	wordpools/wordpool_categorized_EN.txt	SHOVEL	Tools	10	14	[0, 0, 0]	n/a	catFR1	1	R1351M
1638.563	0.849	1639229	WORD_OFF	n/a	n/a	SHOVEL	Tools	10	14	[0, 0, 0]	n/a	catFR1	1	R1351M
1639.412	1.636	1640078	WORD	n/a	wordpools/wordpool_categorized_EN.txt	ORCHID	Flowers	11	14	[0, 0, 0]	n/a	catFR1	1	R1351M
1641.048	0.836	1641714	WORD_OFF	n/a	n/a	ORCHID	Flowers	11	14	[0, 0, 0]	n/a	catFR1	1	R1351M
1641.884	1.631	1642550	WORD	n/a	wordpools/wordpool_categorized_EN.txt	VIOLET	Flowers	12	14	[0, 0, 0]	n/a	catFR1	1	R1351M
1643.515	0.001	1644181	WORD_OFF	n/a	n/a	VIOLET	Flowers	12	14	[0, 0, 0]	n/a	catFR1	1	R1351M
1643.516	0.0	1644182	ENCODING_END	n/a	n/a	n/a	n/a	-999	14	[0, 0, 0]	n/a	catFR1	1	R1351M
1643.516	0.0	1644182	DISTRACT_START	n/a	n/a	n/a	n/a	-999	14	[0, 0, 0]	n/a	catFR1	1	R1351M
1643.516	0.015	1644182	START	n/a	n/a	n/a	n/a	-999	14	[-999, -999, -999]	n/a	catFR1	1	R1351M
1643.531	4.267	1644197	PROB	4.234	n/a	n/a	n/a	-999	14	[2, 8, 7]	17.0	catFR1	1	R1351M
1647.798	4.034	1648464	PROB	4.007	n/a	n/a	n/a	-999	14	[4, 5, 9]	18.0	catFR1	1	R1351M
1651.832	4.419	1652497	PROB	4.391	n/a	n/a	n/a	-999	14	[4, 8, 2]	14.0	catFR1	1	R1351M
1656.251	2.616	1656916	PROB	2.578	n/a	n/a	n/a	-999	14	[5, 2, 2]	9.0	catFR1	1	R1351M
1658.867	3.867	1659532	PROB	3.842	n/a	n/a	n/a	-999	14	[6, 6, 3]	15.0	catFR1	1	R1351M
1662.734	4.256	1663399	PROB	4.256	n/a	n/a	n/a	-999	14	[6, 2, 6]	14.0	catFR1	1	R1351M
1666.99	0.013	1667655	STOP	n/a	n/a	n/a	n/a	-999	14	[-999, -999, -999]	n/a	catFR1	1	R1351M
1667.003	0.58	1667668	DISTRACT_END	n/a	n/a	n/a	n/a	-999	14	[0, 0, 0]	n/a	catFR1	1	R1351M
1667.583	1.604	1668248	RETRIEVAL_ORIENT_START	n/a	n/a	n/a	n/a	-999	14	[0, 0, 0]	n/a	catFR1	1	R1351M
1669.187	0.0	1669852	RETRIEVAL_ORIENT_END	n/a	n/a	n/a	n/a	-999	14	[0, 0, 0]	n/a	catFR1	1	R1351M
1669.187	0.83	1669852	REC_START	n/a	n/a	n/a	n/a	-999	14	[0, 0, 0]	n/a	catFR1	1	R1351M
1670.017	1.523	1670682	REC_WORD	0.83	n/a	PETUNIA	Flowers	2	14	[0, 0, 0]	n/a	catFR1	1	R1351M
1671.54	11.95	1672205	REC_WORD	2.353	n/a	ORCHID	Flowers	11	14	[0, 0, 0]	n/a	catFR1	1	R1351M
1683.49	2.514	1684154	REC_WORD	14.303	n/a	SAW	Tools	5	14	[0, 0, 0]	n/a	catFR1	1	R1351M
1686.004	13.197	1686668	REC_WORD	16.817	n/a	WRENCH	Tools	9	14	[0, 0, 0]	n/a	catFR1	1	R1351M
1699.201	0.0	1699864	REC_END	n/a	n/a	n/a	n/a	-999	14	[0, 0, 0]	n/a	catFR1	1	R1351M
1699.201	0.024	1699864	TRIAL_END	n/a	n/a	n/a	n/a	-999	14	[0, 0, 0]	n/a	catFR1	1	R1351M
1699.225	0.0	1699888	WAITING_START	n/a	n/a	n/a	n/a	-999	15	[0, 0, 0]	n/a	catFR1	1	R1351M
1699.225	0.0	1699888	TRIAL_START	n/a	n/a	n/a	n/a	-999	15	[0, 0, 0]	n/a	catFR1	1	R1351M
1699.225	18.021	1699888	TRIAL	n/a	n/a	n/a	n/a	-999	15	[0, 0, 0]	n/a	catFR1	1	R1351M
1717.246	0.001	1717908	WAITING_END	n/a	n/a	n/a	n/a	-999	15	[0, 0, 0]	n/a	catFR1	1	R1351M
1717.247	10.429	1717909	COUNTDOWN_START	n/a	n/a	n/a	n/a	-999	15	[0, 0, 0]	n/a	catFR1	1	R1351M
1727.676	0.001	1728338	COUNTDOWN_END	n/a	n/a	n/a	n/a	-999	15	[0, 0, 0]	n/a	catFR1	1	R1351M
1727.677	1.071	1728339	ORIENT_START	n/a	n/a	n/a	n/a	-999	15	[0, 0, 0]	n/a	catFR1	1	R1351M
1728.748	0.0	1729410	ENCODING_START	n/a	n/a	n/a	n/a	-999	15	[0, 0, 0]	n/a	catFR1	1	R1351M
1728.748	1.006	1729410	ORIENT_END	n/a	n/a	n/a	n/a	-999	15	[0, 0, 0]	n/a	catFR1	1	R1351M
1729.754	1.611	1730416	WORD	n/a	wordpools/wordpool_categorized_EN.txt	SHEEP	FarmAnimals	1	15	[0, 0, 0]	n/a	catFR1	1	R1351M
1731.365	1.007	1732027	WORD_OFF	n/a	n/a	SHEEP	FarmAnimals	1	15	[0, 0, 0]	n/a	catFR1	1	R1351M
1732.372	1.627	1733034	WORD	n/a	wordpools/wordpool_categorized_EN.txt	HORSE	FarmAnimals	2	15	[0, 0, 0]	n/a	catFR1	1	R1351M
1733.999	0.82	1734661	WORD_OFF	n/a	n/a	HORSE	FarmAnimals	2	15	[0, 0, 0]	n/a	catFR1	1	R1351M
1734.819	1.631	1735481	WORD	n/a	wordpools/wordpool_categorized_EN.txt	TULIP	Flowers	3	15	[0, 0, 0]	n/a	catFR1	1	R1351M
1736.45	0.881	1737112	WORD_OFF	n/a	n/a	TULIP	Flowers	3	15	[0, 0, 0]	n/a	catFR1	1	R1351M
1737.331	1.636	1737993	WORD	n/a	wordpools/wordpool_categorized_EN.txt	DAFFODIL	Flowers	4	15	[0, 0, 0]	n/a	catFR1	1	R1351M
1738.967	0.957	1739629	WORD_OFF	n/a	n/a	DAFFODIL	Flowers	4	15	[0, 0, 0]	n/a	catFR1	1	R1351M
1739.924	1.626	1740585	WORD	n/a	wordpools/wordpool_categorized_EN.txt	LEVEL	Tools	5	15	[0, 0, 0]	n/a	catFR1	1	R1351M
1741.55	1.105	1742211	WORD_OFF	n/a	n/a	LEVEL	Tools	5	15	[0, 0, 0]	n/a	catFR1	1	R1351M
1742.655	1.63	1743316	WORD	n/a	wordpools/wordpool_categorized_EN.txt	SCREWDRIVER	Tools	6	15	[0, 0, 0]	n/a	catFR1	1	R1351M
1744.285	1.002	1744946	WORD_OFF	n/a	n/a	SCREWDRIVER	Tools	6	15	[0, 0, 0]	n/a	catFR1	1	R1351M
1745.287	1.632	1745948	WORD	n/a	wordpools/wordpool_categorized_EN.txt	BULL	FarmAnimals	7	15	[0, 0, 0]	n/a	catFR1	1	R1351M
1746.919	0.876	1747580	WORD_OFF	n/a	n/a	BULL	FarmAnimals	7	15	[0, 0, 0]	n/a	catFR1	1	R1351M
1747.795	1.607	1748456	WORD	n/a	wordpools/wordpool_categorized_EN.txt	GOAT	FarmAnimals	8	15	[0, 0, 0]	n/a	catFR1	1	R1351M
1749.402	0.86	1750063	WORD_OFF	n/a	n/a	GOAT	FarmAnimals	8	15	[0, 0, 0]	n/a	catFR1	1	R1351M
1750.262	1.623	1750923	WORD	n/a	wordpools/wordpool_categorized_EN.txt	AXE	Tools	9	15	[0, 0, 0]	n/a	catFR1	1	R1351M
1751.885	1.144	1752546	WORD_OFF	n/a	n/a	AXE	Tools	9	15	[0, 0, 0]	n/a	catFR1	1	R1351M
1753.029	1.624	1753690	WORD	n/a	wordpools/wordpool_categorized_EN.txt	HAMMER	Tools	10	15	[0, 0, 0]	n/a	catFR1	1	R1351M
1754.653	0.912	1755314	WORD_OFF	n/a	n/a	HAMMER	Tools	10	15	[0, 0, 0]	n/a	catFR1	1	R1351M
1755.565	1.639	1756226	WORD	n/a	wordpools/wordpool_categorized_EN.txt	MARIGOLD	Flowers	11	15	[0, 0, 0]	n/a	catFR1	1	R1351M
1757.204	0.899	1757865	WORD_OFF	n/a	n/a	MARIGOLD	Flowers	11	15	[0, 0, 0]	n/a	catFR1	1	R1351M
1758.103	1.634	1758764	WORD	n/a	wordpools/wordpool_categorized_EN.txt	CARNATION	Flowers	12	15	[0, 0, 0]	n/a	catFR1	1	R1351M
1759.737	0.0	1760398	WORD_OFF	n/a	n/a	CARNATION	Flowers	12	15	[0, 0, 0]	n/a	catFR1	1	R1351M
1759.737	0.001	1760398	ENCODING_END	n/a	n/a	n/a	n/a	-999	15	[0, 0, 0]	n/a	catFR1	1	R1351M
1759.738	0.0	1760399	DISTRACT_START	n/a	n/a	n/a	n/a	-999	15	[0, 0, 0]	n/a	catFR1	1	R1351M
1759.738	0.015	1760399	START	n/a	n/a	n/a	n/a	-999	15	[-999, -999, -999]	n/a	catFR1	1	R1351M
1759.753	3.118	1760414	PROB	3.095	n/a	n/a	n/a	-999	15	[1, 4, 1]	6.0	catFR1	1	R1351M
1762.871	3.401	1763531	PROB	3.377	n/a	n/a	n/a	-999	15	[8, 4, 9]	21.0	catFR1	1	R1351M
1766.272	3.483	1766932	PROB	3.448	n/a	n/a	n/a	-999	15	[1, 3, 7]	11.0	catFR1	1	R1351M
1769.755	3.535	1770415	PROB	3.502	n/a	n/a	n/a	-999	15	[7, 2, 4]	13.0	catFR1	1	R1351M
1773.29	3.151	1773950	PROB	3.127	n/a	n/a	n/a	-999	15	[6, 9, 7]	22.0	catFR1	1	R1351M
1776.441	3.6	1777101	PROB	3.6	n/a	n/a	n/a	-999	15	[1, 1, 4]	6.0	catFR1	1	R1351M
1780.041	0.017	1780701	STOP	n/a	n/a	n/a	n/a	-999	15	[-999, -999, -999]	n/a	catFR1	1	R1351M
1780.058	0.501	1780718	DISTRACT_END	n/a	n/a	n/a	n/a	-999	15	[0, 0, 0]	n/a	catFR1	1	R1351M
1780.559	1.7	1781219	RETRIEVAL_ORIENT_START	n/a	n/a	n/a	n/a	-999	15	[0, 0, 0]	n/a	catFR1	1	R1351M
1782.259	0.0	1782919	RETRIEVAL_ORIENT_END	n/a	n/a	n/a	n/a	-999	15	[0, 0, 0]	n/a	catFR1	1	R1351M
1782.259	1.233	1782919	REC_START	n/a	n/a	n/a	n/a	-999	15	[0, 0, 0]	n/a	catFR1	1	R1351M
1783.492	1.506	1784151	REC_WORD	1.233	n/a	SHEEP	FarmAnimals	1	15	[0, 0, 0]	n/a	catFR1	1	R1351M
1784.998	2.308	1785657	REC_WORD	2.739	n/a	HORSE	FarmAnimals	2	15	[0, 0, 0]	n/a	catFR1	1	R1351M
1787.306	15.895	1787965	REC_WORD	5.047	n/a	GOAT	FarmAnimals	8	15	[0, 0, 0]	n/a	catFR1	1	R1351M
1803.201	5.858	1803860	REC_WORD_VV	20.942	n/a	<>	n/a	-999	15	[0, 0, 0]	n/a	catFR1	1	R1351M
1809.059	3.213	1809717	REC_WORD_VV	26.8	n/a	<>	n/a	-999	15	[0, 0, 0]	n/a	catFR1	1	R1351M
1812.272	0.001	1812930	REC_END	n/a	n/a	n/a	n/a	-999	15	[0, 0, 0]	n/a	catFR1	1	R1351M
1812.273	0.025	1812931	TRIAL_END	n/a	n/a	n/a	n/a	-999	15	[0, 0, 0]	n/a	catFR1	1	R1351M
1812.298	0.0	1812956	TRIAL_START	n/a	n/a	n/a	n/a	-999	16	[0, 0, 0]	n/a	catFR1	1	R1351M
1812.298	0.0	1812956	TRIAL	n/a	n/a	n/a	n/a	-999	16	[0, 0, 0]	n/a	catFR1	1	R1351M
1812.298	7.185	1812956	WAITING_START	n/a	n/a	n/a	n/a	-999	16	[0, 0, 0]	n/a	catFR1	1	R1351M
1819.483	0.0	1820141	COUNTDOWN_START	n/a	n/a	n/a	n/a	-999	16	[0, 0, 0]	n/a	catFR1	1	R1351M
1819.483	10.428	1820141	WAITING_END	n/a	n/a	n/a	n/a	-999	16	[0, 0, 0]	n/a	catFR1	1	R1351M
1829.911	0.0	1830568	COUNTDOWN_END	n/a	n/a	n/a	n/a	-999	16	[0, 0, 0]	n/a	catFR1	1	R1351M
1829.911	1.224	1830568	ORIENT_START	n/a	n/a	n/a	n/a	-999	16	[0, 0, 0]	n/a	catFR1	1	R1351M
1831.135	0.0	1831792	ORIENT_END	n/a	n/a	n/a	n/a	-999	16	[0, 0, 0]	n/a	catFR1	1	R1351M
1831.135	0.846	1831792	ENCODING_START	n/a	n/a	n/a	n/a	-999	16	[0, 0, 0]	n/a	catFR1	1	R1351M
1831.981	1.637	1832638	WORD	n/a	wordpools/wordpool_categorized_EN.txt	BANANA	Fruit	1	16	[0, 0, 0]	n/a	catFR1	1	R1351M
1833.618	0.947	1834275	WORD_OFF	n/a	n/a	BANANA	Fruit	1	16	[0, 0, 0]	n/a	catFR1	1	R1351M
1834.565	1.621	1835222	WORD	n/a	wordpools/wordpool_categorized_EN.txt	GRAPE	Fruit	2	16	[0, 0, 0]	n/a	catFR1	1	R1351M
1836.186	1.084	1836843	WORD_OFF	n/a	n/a	GRAPE	Fruit	2	16	[0, 0, 0]	n/a	catFR1	1	R1351M
1837.27	1.632	1837927	WORD	n/a	wordpools/wordpool_categorized_EN.txt	SHELF	Furniture	3	16	[0, 0, 0]	n/a	catFR1	1	R1351M
1838.902	1.06	1839559	WORD_OFF	n/a	n/a	SHELF	Furniture	3	16	[0, 0, 0]	n/a	catFR1	1	R1351M
1839.962	1.624	1840619	WORD	n/a	wordpools/wordpool_categorized_EN.txt	TABLE	Furniture	4	16	[0, 0, 0]	n/a	catFR1	1	R1351M
1841.586	1.115	1842243	WORD_OFF	n/a	n/a	TABLE	Furniture	4	16	[0, 0, 0]	n/a	catFR1	1	R1351M
1842.701	1.637	1843358	WORD	n/a	wordpools/wordpool_categorized_EN.txt	ORGAN	Instruments	5	16	[0, 0, 0]	n/a	catFR1	1	R1351M
1844.338	1.032	1844995	WORD_OFF	n/a	n/a	ORGAN	Instruments	5	16	[0, 0, 0]	n/a	catFR1	1	R1351M
1845.37	1.635	1846027	WORD	n/a	wordpools/wordpool_categorized_EN.txt	PIANO	Instruments	6	16	[0, 0, 0]	n/a	catFR1	1	R1351M
1847.005	1.013	1847662	WORD_OFF	n/a	n/a	PIANO	Instruments	6	16	[0, 0, 0]	n/a	catFR1	1	R1351M
1848.018	1.636	1848675	WORD	n/a	wordpools/wordpool_categorized_EN.txt	BOOKCASE	Furniture	7	16	[0, 0, 0]	n/a	catFR1	1	R1351M
1849.654	0.892	1850310	WORD_OFF	n/a	n/a	BOOKCASE	Furniture	7	16	[0, 0, 0]	n/a	catFR1	1	R1351M
1850.546	1.61	1851202	WORD	n/a	wordpools/wordpool_categorized_EN.txt	RECLINER	Furniture	8	16	[0, 0, 0]	n/a	catFR1	1	R1351M
1852.156	1.079	1852812	WORD_OFF	n/a	n/a	RECLINER	Furniture	8	16	[0, 0, 0]	n/a	catFR1	1	R1351M
1853.235	1.637	1853891	WORD	n/a	wordpools/wordpool_categorized_EN.txt	ORANGE	Fruit	9	16	[0, 0, 0]	n/a	catFR1	1	R1351M
1854.872	1.028	1855528	WORD_OFF	n/a	n/a	ORANGE	Fruit	9	16	[0, 0, 0]	n/a	catFR1	1	R1351M
1855.9	1.639	1856556	WORD	n/a	wordpools/wordpool_categorized_EN.txt	STRAWBERRY	Fruit	10	16	[0, 0, 0]	n/a	catFR1	1	R1351M
1857.539	0.87	1858195	WORD_OFF	n/a	n/a	STRAWBERRY	Fruit	10	16	[0, 0, 0]	n/a	catFR1	1	R1351M
1858.409	1.632	1859065	WORD	n/a	wordpools/wordpool_categorized_EN.txt	VIOLIN	Instruments	11	16	[0, 0, 0]	n/a	catFR1	1	R1351M
1860.041	0.863	1860697	WORD_OFF	n/a	n/a	VIOLIN	Instruments	11	16	[0, 0, 0]	n/a	catFR1	1	R1351M
1860.904	1.636	1861560	WORD	n/a	wordpools/wordpool_categorized_EN.txt	TROMBONE	Instruments	12	16	[0, 0, 0]	n/a	catFR1	1	R1351M
1862.54	0.0	1863196	ENCODING_END	n/a	n/a	n/a	n/a	-999	16	[0, 0, 0]	n/a	catFR1	1	R1351M
1862.54	0.001	1863196	WORD_OFF	n/a	n/a	TROMBONE	Instruments	12	16	[0, 0, 0]	n/a	catFR1	1	R1351M
1862.541	0.0	1863197	DISTRACT_START	n/a	n/a	n/a	n/a	-999	16	[0, 0, 0]	n/a	catFR1	1	R1351M
1862.541	0.016	1863197	START	n/a	n/a	n/a	n/a	-999	16	[-999, -999, -999]	n/a	catFR1	1	R1351M
1862.557	4.283	1863213	PROB	4.254	n/a	n/a	n/a	-999	16	[7, 2, 3]	12.0	catFR1	1	R1351M
1866.84	3.569	1867496	PROB	3.541	n/a	n/a	n/a	-999	16	[3, 7, 3]	13.0	catFR1	1	R1351M
1870.409	4.417	1871065	PROB	4.379	n/a	n/a	n/a	-999	16	[4, 5, 8]	17.0	catFR1	1	R1351M
1874.826	3.118	1875481	PROB	3.083	n/a	n/a	n/a	-999	16	[9, 6, 6]	21.0	catFR1	1	R1351M
1877.944	2.799	1878599	PROB	2.764	n/a	n/a	n/a	-999	16	[7, 3, 2]	12.0	catFR1	1	R1351M
1880.743	4.053	1881398	PROB	4.053	n/a	n/a	n/a	-999	16	[3, 3, 9]	15.0	catFR1	1	R1351M
1884.796	0.015	1885451	STOP	n/a	n/a	n/a	n/a	-999	16	[-999, -999, -999]	n/a	catFR1	1	R1351M
1884.811	0.638	1885466	DISTRACT_END	n/a	n/a	n/a	n/a	-999	16	[0, 0, 0]	n/a	catFR1	1	R1351M
1885.449	1.563	1886104	RETRIEVAL_ORIENT_START	n/a	n/a	n/a	n/a	-999	16	[0, 0, 0]	n/a	catFR1	1	R1351M
1887.012	0.001	1887667	RETRIEVAL_ORIENT_END	n/a	n/a	n/a	n/a	-999	16	[0, 0, 0]	n/a	catFR1	1	R1351M
1887.013	1.539	1887668	REC_START	n/a	n/a	n/a	n/a	-999	16	[0, 0, 0]	n/a	catFR1	1	R1351M
1888.552	2.882	1889207	REC_WORD	1.539	n/a	SHELF	Furniture	3	16	[0, 0, 0]	n/a	catFR1	1	R1351M
1891.434	5.325	1892089	REC_WORD	4.421	n/a	TABLE	Furniture	4	16	[0, 0, 0]	n/a	catFR1	1	R1351M
1896.759	1.371	1897413	REC_WORD	9.746	n/a	BANANA	Fruit	1	16	[0, 0, 0]	n/a	catFR1	1	R1351M
1898.13	1.962	1898784	REC_WORD	11.117	n/a	GRAPE	Fruit	2	16	[0, 0, 0]	n/a	catFR1	1	R1351M
1900.092	6.017	1900746	REC_WORD	13.079	n/a	ORANGE	Fruit	9	16	[0, 0, 0]	n/a	catFR1	1	R1351M
1906.109	10.672	1906763	REC_WORD	19.096	n/a	STRAWBERRY	Fruit	10	16	[0, 0, 0]	n/a	catFR1	1	R1351M
1916.781	0.244	1917434	REC_WORD_VV	29.768	n/a	<>	n/a	-999	16	[0, 0, 0]	n/a	catFR1	1	R1351M
1917.025	0.0	1917678	REC_END	n/a	n/a	n/a	n/a	-999	16	[0, 0, 0]	n/a	catFR1	1	R1351M
1917.025	0.022	1917678	TRIAL_END	n/a	n/a	n/a	n/a	-999	16	[0, 0, 0]	n/a	catFR1	1	R1351M
1917.047	0.0	1917700	TRIAL_START	n/a	n/a	n/a	n/a	-999	17	[0, 0, 0]	n/a	catFR1	1	R1351M
1917.047	0.0	1917700	TRIAL	n/a	n/a	n/a	n/a	-999	17	[0, 0, 0]	n/a	catFR1	1	R1351M
1917.047	7.189	1917700	WAITING_START	n/a	n/a	n/a	n/a	-999	17	[0, 0, 0]	n/a	catFR1	1	R1351M
1924.236	0.001	1924889	WAITING_END	n/a	n/a	n/a	n/a	-999	17	[0, 0, 0]	n/a	catFR1	1	R1351M
1924.237	10.429	1924890	COUNTDOWN_START	n/a	n/a	n/a	n/a	-999	17	[0, 0, 0]	n/a	catFR1	1	R1351M
1934.666	0.0	1935319	COUNTDOWN_END	n/a	n/a	n/a	n/a	-999	17	[0, 0, 0]	n/a	catFR1	1	R1351M
1934.666	1.171	1935319	ORIENT_START	n/a	n/a	n/a	n/a	-999	17	[0, 0, 0]	n/a	catFR1	1	R1351M
1935.837	0.001	1936490	ORIENT_END	n/a	n/a	n/a	n/a	-999	17	[0, 0, 0]	n/a	catFR1	1	R1351M
1935.838	0.881	1936491	ENCODING_START	n/a	n/a	n/a	n/a	-999	17	[0, 0, 0]	n/a	catFR1	1	R1351M
1936.719	1.637	1937372	WORD	n/a	wordpools/wordpool_categorized_EN.txt	BEER	Beverages	1	17	[0, 0, 0]	n/a	catFR1	1	R1351M
1938.356	0.94	1939008	WORD_OFF	n/a	n/a	BEER	Beverages	1	17	[0, 0, 0]	n/a	catFR1	1	R1351M
1939.296	1.627	1939948	WORD	n/a	wordpools/wordpool_categorized_EN.txt	CIDER	Beverages	2	17	[0, 0, 0]	n/a	catFR1	1	R1351M
1940.923	0.819	1941575	WORD_OFF	n/a	n/a	CIDER	Beverages	2	17	[0, 0, 0]	n/a	catFR1	1	R1351M
1941.742	1.614	1942394	WORD	n/a	wordpools/wordpool_categorized_EN.txt	GOOSE	Birds	3	17	[0, 0, 0]	n/a	catFR1	1	R1351M
1943.356	0.885	1944008	WORD_OFF	n/a	n/a	GOOSE	Birds	3	17	[0, 0, 0]	n/a	catFR1	1	R1351M
1944.241	1.632	1944893	WORD	n/a	wordpools/wordpool_categorized_EN.txt	ROBIN	Birds	4	17	[0, 0, 0]	n/a	catFR1	1	R1351M
1945.873	1.026	1946525	WORD_OFF	n/a	n/a	ROBIN	Birds	4	17	[0, 0, 0]	n/a	catFR1	1	R1351M
1946.899	1.609	1947551	WORD	n/a	wordpools/wordpool_categorized_EN.txt	BROWNIES	Desserts	5	17	[0, 0, 0]	n/a	catFR1	1	R1351M
1948.508	0.923	1949160	WORD_OFF	n/a	n/a	BROWNIES	Desserts	5	17	[0, 0, 0]	n/a	catFR1	1	R1351M
1949.431	1.627	1950083	WORD	n/a	wordpools/wordpool_categorized_EN.txt	PASTRY	Desserts	6	17	[0, 0, 0]	n/a	catFR1	1	R1351M
1951.058	1.057	1951710	WORD_OFF	n/a	n/a	PASTRY	Desserts	6	17	[0, 0, 0]	n/a	catFR1	1	R1351M
1952.115	1.626	1952767	WORD	n/a	wordpools/wordpool_categorized_EN.txt	BLUEBIRD	Birds	7	17	[0, 0, 0]	n/a	catFR1	1	R1351M
1953.741	0.969	1954393	WORD_OFF	n/a	n/a	BLUEBIRD	Birds	7	17	[0, 0, 0]	n/a	catFR1	1	R1351M
1954.71	1.616	1955362	WORD	n/a	wordpools/wordpool_categorized_EN.txt	DUCK	Birds	8	17	[0, 0, 0]	n/a	catFR1	1	R1351M
1956.326	1.127	1956978	WORD_OFF	n/a	n/a	DUCK	Birds	8	17	[0, 0, 0]	n/a	catFR1	1	R1351M
1957.453	1.623	1958105	WORD	n/a	wordpools/wordpool_categorized_EN.txt	CUPCAKE	Desserts	9	17	[0, 0, 0]	n/a	catFR1	1	R1351M
1959.076	0.947	1959728	WORD_OFF	n/a	n/a	CUPCAKE	Desserts	9	17	[0, 0, 0]	n/a	catFR1	1	R1351M
1960.023	1.636	1960674	WORD	n/a	wordpools/wordpool_categorized_EN.txt	COBBLER	Desserts	10	17	[0, 0, 0]	n/a	catFR1	1	R1351M
1961.659	0.759	1962310	WORD_OFF	n/a	n/a	COBBLER	Desserts	10	17	[0, 0, 0]	n/a	catFR1	1	R1351M
1962.418	1.626	1963069	WORD	n/a	wordpools/wordpool_categorized_EN.txt	MILK	Beverages	11	17	[0, 0, 0]	n/a	catFR1	1	R1351M
1964.044	1.142	1964695	WORD_OFF	n/a	n/a	MILK	Beverages	11	17	[0, 0, 0]	n/a	catFR1	1	R1351M
1965.186	1.624	1965837	WORD	n/a	wordpools/wordpool_categorized_EN.txt	RUM	Beverages	12	17	[0, 0, 0]	n/a	catFR1	1	R1351M
1966.81	0.001	1967461	WORD_OFF	n/a	n/a	RUM	Beverages	12	17	[0, 0, 0]	n/a	catFR1	1	R1351M
1966.811	0.0	1967462	DISTRACT_START	n/a	n/a	n/a	n/a	-999	17	[0, 0, 0]	n/a	catFR1	1	R1351M
1966.811	0.0	1967462	ENCODING_END	n/a	n/a	n/a	n/a	-999	17	[0, 0, 0]	n/a	catFR1	1	R1351M
1966.811	0.016	1967462	START	n/a	n/a	n/a	n/a	-999	17	[-999, -999, -999]	n/a	catFR1	1	R1351M
1966.827	4.652	1967478	PROB	4.626	n/a	n/a	n/a	-999	17	[7, 2, 9]	18.0	catFR1	1	R1351M
1971.479	2.617	1972130	PROB	2.582	n/a	n/a	n/a	-999	17	[5, 1, 1]	7.0	catFR1	1	R1351M
1974.096	4.067	1974747	PROB	4.029	n/a	n/a	n/a	-999	17	[4, 7, 1]	12.0	catFR1	1	R1351M
1978.163	3.483	1978814	PROB	3.457	n/a	n/a	n/a	-999	17	[4, 4, 2]	10.0	catFR1	1	R1351M
1981.646	3.852	1982296	PROB	3.823	n/a	n/a	n/a	-999	17	[3, 3, 6]	12.0	catFR1	1	R1351M
1985.498	4.936	1986148	PROB	4.936	n/a	n/a	n/a	-999	17	[9, 5, 3]	16.0	catFR1	1	R1351M
1990.434	0.015	1991084	STOP	n/a	n/a	n/a	n/a	-999	17	[-999, -999, -999]	n/a	catFR1	1	R1351M
1990.449	0.684	1991099	DISTRACT_END	n/a	n/a	n/a	n/a	-999	17	[0, 0, 0]	n/a	catFR1	1	R1351M
1991.133	1.699	1991783	RETRIEVAL_ORIENT_START	n/a	n/a	n/a	n/a	-999	17	[0, 0, 0]	n/a	catFR1	1	R1351M
1992.832	0.0	1993482	RETRIEVAL_ORIENT_END	n/a	n/a	n/a	n/a	-999	17	[0, 0, 0]	n/a	catFR1	1	R1351M
1992.832	2.011	1993482	REC_START	n/a	n/a	n/a	n/a	-999	17	[0, 0, 0]	n/a	catFR1	1	R1351M
1994.843	1.318	1995493	REC_WORD	2.011	n/a	BEER	Beverages	1	17	[0, 0, 0]	n/a	catFR1	1	R1351M
1996.161	1.241	1996811	REC_WORD	3.329	n/a	RUM	Beverages	12	17	[0, 0, 0]	n/a	catFR1	1	R1351M
1997.402	9.752	1998052	REC_WORD	4.57	n/a	MILK	Beverages	11	17	[0, 0, 0]	n/a	catFR1	1	R1351M
2007.154	4.815	2007803	REC_WORD	14.322	n/a	BROWNIES	Desserts	5	17	[0, 0, 0]	n/a	catFR1	1	R1351M
2011.969	10.875	2012618	REC_WORD	19.137	n/a	PASTRY	Desserts	6	17	[0, 0, 0]	n/a	catFR1	1	R1351M
2022.844	0.001	2023493	REC_END	n/a	n/a	n/a	n/a	-999	17	[0, 0, 0]	n/a	catFR1	1	R1351M
2022.845	0.023	2023494	TRIAL_END	n/a	n/a	n/a	n/a	-999	17	[0, 0, 0]	n/a	catFR1	1	R1351M
2022.868	0.001	2023517	TRIAL_START	n/a	n/a	n/a	n/a	-999	18	[0, 0, 0]	n/a	catFR1	1	R1351M
2022.869	0.0	2023518	TRIAL	n/a	n/a	n/a	n/a	-999	18	[0, 0, 0]	n/a	catFR1	1	R1351M
2022.869	37.277	2023518	WAITING_START	n/a	n/a	n/a	n/a	-999	18	[0, 0, 0]	n/a	catFR1	1	R1351M
2060.146	0.0	2060793	WAITING_END	n/a	n/a	n/a	n/a	-999	18	[0, 0, 0]	n/a	catFR1	1	R1351M
2060.146	10.43	2060793	COUNTDOWN_START	n/a	n/a	n/a	n/a	-999	18	[0, 0, 0]	n/a	catFR1	1	R1351M
2070.576	0.0	2071222	COUNTDOWN_END	n/a	n/a	n/a	n/a	-999	18	[0, 0, 0]	n/a	catFR1	1	R1351M
2070.576	1.188	2071222	ORIENT_START	n/a	n/a	n/a	n/a	-999	18	[0, 0, 0]	n/a	catFR1	1	R1351M
2071.764	0.001	2072410	ORIENT_END	n/a	n/a	n/a	n/a	-999	18	[0, 0, 0]	n/a	catFR1	1	R1351M
2071.765	1.136	2072411	ENCODING_START	n/a	n/a	n/a	n/a	-999	18	[0, 0, 0]	n/a	catFR1	1	R1351M
2072.901	1.63	2073547	WORD	n/a	wordpools/wordpool_categorized_EN.txt	FOUNDATION	Building	1	18	[0, 0, 0]	n/a	catFR1	1	R1351M
2074.531	0.84	2075177	WORD_OFF	n/a	n/a	FOUNDATION	Building	1	18	[0, 0, 0]	n/a	catFR1	1	R1351M
2075.371	1.628	2076017	WORD	n/a	wordpools/wordpool_categorized_EN.txt	FLOOR	Building	2	18	[0, 0, 0]	n/a	catFR1	1	R1351M
2076.999	1.13	2077645	WORD_OFF	n/a	n/a	FLOOR	Building	2	18	[0, 0, 0]	n/a	catFR1	1	R1351M
2078.129	1.637	2078775	WORD	n/a	wordpools/wordpool_categorized_EN.txt	BLOUSE	Clothing	3	18	[0, 0, 0]	n/a	catFR1	1	R1351M
2079.766	0.819	2080412	WORD_OFF	n/a	n/a	BLOUSE	Clothing	3	18	[0, 0, 0]	n/a	catFR1	1	R1351M
2080.585	1.632	2081231	WORD	n/a	wordpools/wordpool_categorized_EN.txt	SOCKS	Clothing	4	18	[0, 0, 0]	n/a	catFR1	1	R1351M
2082.217	0.818	2082863	WORD_OFF	n/a	n/a	SOCKS	Clothing	4	18	[0, 0, 0]	n/a	catFR1	1	R1351M
2083.035	1.632	2083681	WORD	n/a	wordpools/wordpool_categorized_EN.txt	MAPLE	Trees	5	18	[0, 0, 0]	n/a	catFR1	1	R1351M
2084.667	0.786	2085313	WORD_OFF	n/a	n/a	MAPLE	Trees	5	18	[0, 0, 0]	n/a	catFR1	1	R1351M
2085.453	1.632	2086099	WORD	n/a	wordpools/wordpool_categorized_EN.txt	ELM	Trees	6	18	[0, 0, 0]	n/a	catFR1	1	R1351M
2087.085	0.754	2087731	WORD_OFF	n/a	n/a	ELM	Trees	6	18	[0, 0, 0]	n/a	catFR1	1	R1351M
2087.839	1.613	2088485	WORD	n/a	wordpools/wordpool_categorized_EN.txt	ATTIC	Building	7	18	[0, 0, 0]	n/a	catFR1	1	R1351M
2089.452	0.989	2090098	WORD_OFF	n/a	n/a	ATTIC	Building	7	18	[0, 0, 0]	n/a	catFR1	1	R1351M
2090.441	1.628	2091087	WORD	n/a	wordpools/wordpool_categorized_EN.txt	BATHROOM	Building	8	18	[0, 0, 0]	n/a	catFR1	1	R1351M
2092.069	0.882	2092714	WORD_OFF	n/a	n/a	BATHROOM	Building	8	18	[0, 0, 0]	n/a	catFR1	1	R1351M
2092.951	1.634	2093596	WORD	n/a	wordpools/wordpool_categorized_EN.txt	SHIRT	Clothing	9	18	[0, 0, 0]	n/a	catFR1	1	R1351M
2094.585	0.818	2095230	WORD_OFF	n/a	n/a	SHIRT	Clothing	9	18	[0, 0, 0]	n/a	catFR1	1	R1351M
2095.403	1.634	2096048	WORD	n/a	wordpools/wordpool_categorized_EN.txt	JEANS	Clothing	10	18	[0, 0, 0]	n/a	catFR1	1	R1351M
2097.037	1.105	2097682	WORD_OFF	n/a	n/a	JEANS	Clothing	10	18	[0, 0, 0]	n/a	catFR1	1	R1351M
2098.142	1.627	2098787	WORD	n/a	wordpools/wordpool_categorized_EN.txt	OAK	Trees	11	18	[0, 0, 0]	n/a	catFR1	1	R1351M
2099.769	0.807	2100414	WORD_OFF	n/a	n/a	OAK	Trees	11	18	[0, 0, 0]	n/a	catFR1	1	R1351M
2100.576	1.612	2101221	WORD	n/a	wordpools/wordpool_categorized_EN.txt	PINE	Trees	12	18	[0, 0, 0]	n/a	catFR1	1	R1351M
2102.188	0.0	2102833	WORD_OFF	n/a	n/a	PINE	Trees	12	18	[0, 0, 0]	n/a	catFR1	1	R1351M
2102.188	0.0	2102833	ENCODING_END	n/a	n/a	n/a	n/a	-999	18	[0, 0, 0]	n/a	catFR1	1	R1351M
2102.188	0.001	2102833	DISTRACT_START	n/a	n/a	n/a	n/a	-999	18	[0, 0, 0]	n/a	catFR1	1	R1351M
2102.189	0.015	2102834	START	n/a	n/a	n/a	n/a	-999	18	[-999, -999, -999]	n/a	catFR1	1	R1351M
2102.204	3.767	2102849	PROB	3.745	n/a	n/a	n/a	-999	18	[4, 3, 2]	9.0	catFR1	1	R1351M
2105.971	4.468	2106616	PROB	4.433	n/a	n/a	n/a	-999	18	[8, 1, 1]	10.0	catFR1	1	R1351M
2110.439	4.818	2111084	PROB	4.789	n/a	n/a	n/a	-999	18	[4, 1, 2]	7.0	catFR1	1	R1351M
2115.257	4.616	2115901	PROB	4.578	n/a	n/a	n/a	-999	18	[7, 5, 2]	14.0	catFR1	1	R1351M
2119.873	4.595	2120517	PROB	4.595	n/a	n/a	n/a	-999	18	[2, 6, 2]	10.0	catFR1	1	R1351M
