onset	duration	sample	trial_type	response_time	stim_file	item_name	category	serialpos	list	test	answer	experiment	session	subject
0.0	0.964	11260	INSTRUCT_START	n/a	n/a	n/a	n/a	-999	-999	[0, 0, 0]	n/a	catFR1	3	R1383J
0.964	47.335	12225	INSTRUCT_END	n/a	n/a	n/a	n/a	-999	-999	[0, 0, 0]	n/a	catFR1	3	R1383J
48.299	10.0	59554	COUNTDOWN_START	n/a	n/a	n/a	n/a	-999	-999	[0, 0, 0]	n/a	catFR1	3	R1383J
58.658	0.001	69918	COUNTDOWN_END	n/a	n/a	n/a	n/a	-999	-999	[0, 0, 0]	n/a	catFR1	3	R1383J
58.659	2.156	69918	ENCODING_START	n/a	n/a	n/a	n/a	-999	-1	[0, 0, 0]	n/a	catFR1	3	R1383J
60.815	1.6	72076	WORD	n/a	n/a	LEATHER	Materials	1	-1	[0, 0, 0]	n/a	catFR1	3	R1383J
62.415	0.8	73669	WORD_OFF	n/a	n/a	LEATHER	Materials	1	-1	[0, 0, 0]	n/a	catFR1	3	R1383J
63.215	1.6	74469	WORD	n/a	n/a	DENIM	Materials	2	-1	[0, 0, 0]	n/a	catFR1	3	R1383J
64.815	0.85	76070	WORD_OFF	n/a	n/a	DENIM	Materials	2	-1	[0, 0, 0]	n/a	catFR1	3	R1383J
65.665	1.6	76923	WORD	n/a	n/a	SECOND	Times	3	-1	[0, 0, 0]	n/a	catFR1	3	R1383J
67.265	0.9	78524	WORD_OFF	n/a	n/a	SECOND	Times	3	-1	[0, 0, 0]	n/a	catFR1	3	R1383J
68.165	1.6	79420	WORD	n/a	n/a	MINUTE	Times	4	-1	[0, 0, 0]	n/a	catFR1	3	R1383J
69.782	0.916	81039	WORD_OFF	n/a	n/a	MINUTE	Times	4	-1	[0, 0, 0]	n/a	catFR1	3	R1383J
70.698	1.6	81953	WORD	n/a	n/a	FIREMAN	Professions	5	-1	[0, 0, 0]	n/a	catFR1	3	R1383J
72.315	0.784	83571	WORD_OFF	n/a	n/a	FIREMAN	Professions	5	-1	[0, 0, 0]	n/a	catFR1	3	R1383J
73.099	1.6	84354	WORD	n/a	n/a	TEACHER	Professions	6	-1	[0, 0, 0]	n/a	catFR1	3	R1383J
74.715	0.799	85973	WORD_OFF	n/a	n/a	TEACHER	Professions	6	-1	[0, 0, 0]	n/a	catFR1	3	R1383J
75.514	1.6	86773	WORD	n/a	n/a	HOUR	Times	7	-1	[0, 0, 0]	n/a	catFR1	3	R1383J
77.115	0.8	88374	WORD_OFF	n/a	n/a	HOUR	Times	7	-1	[0, 0, 0]	n/a	catFR1	3	R1383J
77.915	1.6	89175	WORD	n/a	n/a	DAY	Times	8	-1	[0, 0, 0]	n/a	catFR1	3	R1383J
79.515	0.884	90776	WORD_OFF	n/a	n/a	DAY	Times	8	-1	[0, 0, 0]	n/a	catFR1	3	R1383J
80.399	1.6	91655	WORD	n/a	n/a	WOOL	Materials	9	-1	[0, 0, 0]	n/a	catFR1	3	R1383J
81.998	0.884	93256	WORD_OFF	n/a	n/a	WOOL	Materials	9	-1	[0, 0, 0]	n/a	catFR1	3	R1383J
82.882	1.6	94135	WORD	n/a	n/a	SILK	Materials	10	-1	[0, 0, 0]	n/a	catFR1	3	R1383J
84.498	0.917	95754	WORD_OFF	n/a	n/a	SILK	Materials	10	-1	[0, 0, 0]	n/a	catFR1	3	R1383J
85.415	1.6	96667	WORD	n/a	n/a	FARMER	Professions	11	-1	[0, 0, 0]	n/a	catFR1	3	R1383J
87.031	0.784	98286	WORD_OFF	n/a	n/a	FARMER	Professions	11	-1	[0, 0, 0]	n/a	catFR1	3	R1383J
87.815	1.6	99069	WORD	n/a	n/a	PLUMBER	Professions	12	-1	[0, 0, 0]	n/a	catFR1	3	R1383J
89.415	0.002	100670	WORD_OFF	n/a	n/a	PLUMBER	Professions	12	-1	[0, 0, 0]	n/a	catFR1	3	R1383J
89.417	0.0	100670	ENCODING_END	n/a	n/a	n/a	n/a	-999	-1	[0, 0, 0]	n/a	catFR1	3	R1383J
89.417	0.001	100672	PROB	5.082	n/a	n/a	n/a	-999	-1	[1, 6, 5]	12.0	catFR1	3	R1383J
89.418	0.0	100673	START	n/a	n/a	n/a	n/a	-999	-1	[-999, -999, -999]	n/a	catFR1	3	R1383J
89.418	5.097	100679	DISTRACT_START	n/a	n/a	n/a	n/a	-999	-1	[0, 0, 0]	n/a	catFR1	3	R1383J
94.515	8.651	105770	PROB	8.633	n/a	n/a	n/a	-999	-1	[1, 7, 2]	10.0	catFR1	3	R1383J
103.166	10.932	114421	PROB	10.916	n/a	n/a	n/a	-999	-1	[4, 6, 2]	12.0	catFR1	3	R1383J
114.098	0.0	125352	STOP	n/a	n/a	n/a	n/a	-999	-1	[-999, -999, -999]	n/a	catFR1	3	R1383J
114.098	1.3	125357	DISTRACT_END	n/a	n/a	n/a	n/a	-999	-1	[0, 0, 0]	n/a	catFR1	3	R1383J
115.398	2.821	126653	REC_START	n/a	n/a	n/a	n/a	-999	-1	[0, 0, 0]	n/a	catFR1	3	R1383J
118.219	1.223	129473	REC_WORD	2.821	n/a	LEATHER	Materials	1	-1	[0, 0, 0]	n/a	catFR1	3	R1383J
119.442	2.419	130696	REC_WORD	4.044	n/a	DENIM	Materials	2	-1	[0, 0, 0]	n/a	catFR1	3	R1383J
121.861	0.979	133115	REC_WORD	6.463	n/a	FARMER	Professions	11	-1	[0, 0, 0]	n/a	catFR1	3	R1383J
122.84	10.912	134094	REC_WORD	7.442	n/a	PLUMBER	Professions	12	-1	[0, 0, 0]	n/a	catFR1	3	R1383J
133.752	11.91	145006	REC_WORD	18.354	n/a	WOOL	Materials	9	-1	[0, 0, 0]	n/a	catFR1	3	R1383J
145.662	8.752	156918	REC_END	n/a	n/a	n/a	n/a	-999	-1	[0, 0, 0]	n/a	catFR1	3	R1383J
154.414	10.0	165672	COUNTDOWN_START	n/a	n/a	n/a	n/a	-999	1	[0, 0, 0]	n/a	catFR1	3	R1383J
164.774	0.0	176027	COUNTDOWN_END	n/a	n/a	n/a	n/a	-999	1	[0, 0, 0]	n/a	catFR1	3	R1383J
164.774	2.008	176027	ENCODING_START	n/a	n/a	n/a	n/a	-999	1	[0, 0, 0]	n/a	catFR1	3	R1383J
166.782	1.6	178037	WORD	n/a	wordpools/wordpool_categorized_EN.txt	PEACH	Fruit	1	1	[0, 0, 0]	n/a	catFR1	3	R1383J
168.399	0.966	179656	WORD_OFF	n/a	n/a	PEACH	Fruit	1	1	[0, 0, 0]	n/a	catFR1	3	R1383J
169.365	1.6	180622	WORD	n/a	wordpools/wordpool_categorized_EN.txt	ORANGE	Fruit	2	1	[0, 0, 0]	n/a	catFR1	3	R1383J
170.981	1.001	182232	WORD_OFF	n/a	n/a	ORANGE	Fruit	2	1	[0, 0, 0]	n/a	catFR1	3	R1383J
171.982	1.6	183232	WORD	n/a	wordpools/wordpool_categorized_EN.txt	SCREWDRIVER	Tools	3	1	[0, 0, 0]	n/a	catFR1	3	R1383J
173.597	0.767	184851	WORD_OFF	n/a	n/a	SCREWDRIVER	Tools	3	1	[0, 0, 0]	n/a	catFR1	3	R1383J
174.364	1.6	185617	WORD	n/a	wordpools/wordpool_categorized_EN.txt	HAMMER	Tools	4	1	[0, 0, 0]	n/a	catFR1	3	R1383J
175.965	0.983	187218	WORD_OFF	n/a	n/a	HAMMER	Tools	4	1	[0, 0, 0]	n/a	catFR1	3	R1383J
176.948	1.6	188201	WORD	n/a	wordpools/wordpool_categorized_EN.txt	HEAD	Bodyparts	5	1	[0, 0, 0]	n/a	catFR1	3	R1383J
178.564	0.983	189819	WORD_OFF	n/a	n/a	HEAD	Bodyparts	5	1	[0, 0, 0]	n/a	catFR1	3	R1383J
179.547	1.6	190803	WORD	n/a	wordpools/wordpool_categorized_EN.txt	EAR	Bodyparts	6	1	[0, 0, 0]	n/a	catFR1	3	R1383J
181.148	0.867	192404	WORD_OFF	n/a	n/a	EAR	Bodyparts	6	1	[0, 0, 0]	n/a	catFR1	3	R1383J
182.015	1.6	193265	WORD	n/a	wordpools/wordpool_categorized_EN.txt	BLUEBERRY	Fruit	7	1	[0, 0, 0]	n/a	catFR1	3	R1383J
183.633	0.999	194884	WORD_OFF	n/a	n/a	BLUEBERRY	Fruit	7	1	[0, 0, 0]	n/a	catFR1	3	R1383J
184.632	1.6	195885	WORD	n/a	wordpools/wordpool_categorized_EN.txt	LIME	Fruit	8	1	[0, 0, 0]	n/a	catFR1	3	R1383J
186.248	0.833	197503	WORD_OFF	n/a	n/a	LIME	Fruit	8	1	[0, 0, 0]	n/a	catFR1	3	R1383J
187.081	1.6	198330	WORD	n/a	wordpools/wordpool_categorized_EN.txt	PLIERS	Tools	9	1	[0, 0, 0]	n/a	catFR1	3	R1383J
188.681	0.817	199931	WORD_OFF	n/a	n/a	PLIERS	Tools	9	1	[0, 0, 0]	n/a	catFR1	3	R1383J
189.498	1.6	200749	WORD	n/a	wordpools/wordpool_categorized_EN.txt	CROWBAR	Tools	10	1	[0, 0, 0]	n/a	catFR1	3	R1383J
191.098	0.834	202350	WORD_OFF	n/a	n/a	CROWBAR	Tools	10	1	[0, 0, 0]	n/a	catFR1	3	R1383J
191.932	1.6	203185	WORD	n/a	wordpools/wordpool_categorized_EN.txt	FINGERS	Bodyparts	11	1	[0, 0, 0]	n/a	catFR1	3	R1383J
193.547	0.951	204795	WORD_OFF	n/a	n/a	FINGERS	Bodyparts	11	1	[0, 0, 0]	n/a	catFR1	3	R1383J
194.498	1.6	205752	WORD	n/a	wordpools/wordpool_categorized_EN.txt	FOOT	Bodyparts	12	1	[0, 0, 0]	n/a	catFR1	3	R1383J
196.117	0.0	207368	START	n/a	n/a	n/a	n/a	-999	1	[-999, -999, -999]	n/a	catFR1	3	R1383J
196.117	0.0	207368	PROB	6.016	n/a	n/a	n/a	-999	1	[1, 8, 8]	17.0	catFR1	3	R1383J
196.115	0.002	207371	WORD_OFF	n/a	n/a	FOOT	Bodyparts	12	1	[0, 0, 0]	n/a	catFR1	3	R1383J
196.117	0.0	207371	ENCODING_END	n/a	n/a	n/a	n/a	-999	1	[0, 0, 0]	n/a	catFR1	3	R1383J
196.117	6.032	207371	DISTRACT_START	n/a	n/a	n/a	n/a	-999	1	[0, 0, 0]	n/a	catFR1	3	R1383J
202.149	11.216	213400	PROB	11.199	n/a	n/a	n/a	-999	1	[1, 8, 5]	14.0	catFR1	3	R1383J
213.365	11.999	224615	PROB	11.982	n/a	n/a	n/a	-999	1	[4, 4, 5]	13.0	catFR1	3	R1383J
225.364	0.0	236614	STOP	n/a	n/a	n/a	n/a	-999	1	[-999, -999, -999]	n/a	catFR1	3	R1383J
225.364	1.084	236618	DISTRACT_END	n/a	n/a	n/a	n/a	-999	1	[0, 0, 0]	n/a	catFR1	3	R1383J
226.448	9.128	237697	REC_START	n/a	n/a	n/a	n/a	-999	1	[0, 0, 0]	n/a	catFR1	3	R1383J
235.576	1.811	246825	REC_WORD	9.128	n/a	LIME	Fruit	8	1	[0, 0, 0]	n/a	catFR1	3	R1383J
237.387	19.342	248636	REC_WORD	10.939	n/a	BLUEBERRY	Fruit	7	1	[0, 0, 0]	n/a	catFR1	3	R1383J
256.729	3.852	267979	REC_END	n/a	n/a	n/a	n/a	-999	1	[0, 0, 0]	n/a	catFR1	3	R1383J
260.581	10.0	271833	COUNTDOWN_START	n/a	n/a	n/a	n/a	-999	2	[0, 0, 0]	n/a	catFR1	3	R1383J
270.943	0.0	282189	COUNTDOWN_END	n/a	n/a	n/a	n/a	-999	2	[0, 0, 0]	n/a	catFR1	3	R1383J
270.943	2.055	282197	ENCODING_START	n/a	n/a	n/a	n/a	-999	2	[0, 0, 0]	n/a	catFR1	3	R1383J
272.998	1.6	284251	WORD	n/a	wordpools/wordpool_categorized_EN.txt	PAPER	Officesupplies	1	2	[0, 0, 0]	n/a	catFR1	3	R1383J
274.598	1.0	285843	WORD_OFF	n/a	n/a	PAPER	Officesupplies	1	2	[0, 0, 0]	n/a	catFR1	3	R1383J
275.598	1.6	286844	WORD	n/a	wordpools/wordpool_categorized_EN.txt	ERASER	Officesupplies	2	2	[0, 0, 0]	n/a	catFR1	3	R1383J
277.214	0.868	288463	WORD_OFF	n/a	n/a	ERASER	Officesupplies	2	2	[0, 0, 0]	n/a	catFR1	3	R1383J
278.082	1.6	289333	WORD	n/a	wordpools/wordpool_categorized_EN.txt	ANT	Insects	3	2	[0, 0, 0]	n/a	catFR1	3	R1383J
279.682	0.866	290934	WORD_OFF	n/a	n/a	ANT	Insects	3	2	[0, 0, 0]	n/a	catFR1	3	R1383J
280.548	1.6	291795	WORD	n/a	wordpools/wordpool_categorized_EN.txt	MOSQUITO	Insects	4	2	[0, 0, 0]	n/a	catFR1	3	R1383J
282.164	0.818	293414	WORD_OFF	n/a	n/a	MOSQUITO	Insects	4	2	[0, 0, 0]	n/a	catFR1	3	R1383J
282.982	1.6	294232	WORD	n/a	wordpools/wordpool_categorized_EN.txt	ORCHID	Flowers	5	2	[0, 0, 0]	n/a	catFR1	3	R1383J
284.598	0.8	295850	WORD_OFF	n/a	n/a	ORCHID	Flowers	5	2	[0, 0, 0]	n/a	catFR1	3	R1383J
285.398	1.6	296642	WORD	n/a	wordpools/wordpool_categorized_EN.txt	MARIGOLD	Flowers	6	2	[0, 0, 0]	n/a	catFR1	3	R1383J
286.998	0.95	298243	WORD_OFF	n/a	n/a	MARIGOLD	Flowers	6	2	[0, 0, 0]	n/a	catFR1	3	R1383J
287.948	1.6	299200	WORD	n/a	wordpools/wordpool_categorized_EN.txt	NOTEBOOK	Officesupplies	7	2	[0, 0, 0]	n/a	catFR1	3	R1383J
289.565	0.8	300810	WORD_OFF	n/a	n/a	NOTEBOOK	Officesupplies	7	2	[0, 0, 0]	n/a	catFR1	3	R1383J
290.365	1.6	301611	WORD	n/a	wordpools/wordpool_categorized_EN.txt	MARKER	Officesupplies	8	2	[0, 0, 0]	n/a	catFR1	3	R1383J
291.981	0.885	303229	WORD_OFF	n/a	n/a	MARKER	Officesupplies	8	2	[0, 0, 0]	n/a	catFR1	3	R1383J
292.866	1.6	304117	WORD	n/a	wordpools/wordpool_categorized_EN.txt	TULIP	Flowers	9	2	[0, 0, 0]	n/a	catFR1	3	R1383J
294.465	0.899	305709	WORD_OFF	n/a	n/a	TULIP	Flowers	9	2	[0, 0, 0]	n/a	catFR1	3	R1383J
295.364	1.6	306614	WORD	n/a	wordpools/wordpool_categorized_EN.txt	PETUNIA	Flowers	10	2	[0, 0, 0]	n/a	catFR1	3	R1383J
296.965	0.967	308215	WORD_OFF	n/a	n/a	PETUNIA	Flowers	10	2	[0, 0, 0]	n/a	catFR1	3	R1383J
297.932	1.6	309181	WORD	n/a	wordpools/wordpool_categorized_EN.txt	BUTTERFLY	Insects	11	2	[0, 0, 0]	n/a	catFR1	3	R1383J
299.548	0.967	310800	WORD_OFF	n/a	n/a	BUTTERFLY	Insects	11	2	[0, 0, 0]	n/a	catFR1	3	R1383J
300.515	1.6	311766	WORD	n/a	wordpools/wordpool_categorized_EN.txt	ROACH	Insects	12	2	[0, 0, 0]	n/a	catFR1	3	R1383J
302.115	0.001	313362	PROB	6.1	n/a	n/a	n/a	-999	2	[6, 2, 7]	15.0	catFR1	3	R1383J
302.116	0.0	313363	START	n/a	n/a	n/a	n/a	-999	2	[-999, -999, -999]	n/a	catFR1	3	R1383J
302.115	0.001	313367	WORD_OFF	n/a	n/a	ROACH	Insects	12	2	[0, 0, 0]	n/a	catFR1	3	R1383J
302.116	0.0	313367	ENCODING_END	n/a	n/a	n/a	n/a	-999	2	[0, 0, 0]	n/a	catFR1	3	R1383J
302.116	6.116	313367	DISTRACT_START	n/a	n/a	n/a	n/a	-999	2	[0, 0, 0]	n/a	catFR1	3	R1383J
308.232	5.85	319479	PROB	5.833	n/a	n/a	n/a	-999	2	[1, 5, 7]	13.0	catFR1	3	R1383J
314.082	9.516	325328	PROB	9.499	n/a	n/a	n/a	-999	2	[6, 5, 2]	13.0	catFR1	3	R1383J
323.598	0.0	334843	DISTRACT_END	n/a	n/a	n/a	n/a	-999	2	[0, 0, 0]	n/a	catFR1	3	R1383J
323.598	1.183	334844	STOP	n/a	n/a	n/a	n/a	-999	2	[-999, -999, -999]	n/a	catFR1	3	R1383J
324.781	3.634	336026	REC_START	n/a	n/a	n/a	n/a	-999	2	[0, 0, 0]	n/a	catFR1	3	R1383J
328.415	0.93	339661	REC_WORD	3.634	n/a	ORCHID	Flowers	5	2	[0, 0, 0]	n/a	catFR1	3	R1383J
329.345	2.844	340591	REC_WORD	4.564	n/a	MARIGOLD	Flowers	6	2	[0, 0, 0]	n/a	catFR1	3	R1383J
332.189	3.358	343435	REC_WORD	7.408	n/a	PETUNIA	Flowers	10	2	[0, 0, 0]	n/a	catFR1	3	R1383J
335.547	19.497	346792	REC_WORD	10.766	n/a	ROACH	Insects	12	2	[0, 0, 0]	n/a	catFR1	3	R1383J
355.044	2.121	366291	REC_END	n/a	n/a	n/a	n/a	-999	2	[0, 0, 0]	n/a	catFR1	3	R1383J
357.165	10.0	368414	COUNTDOWN_START	n/a	n/a	n/a	n/a	-999	3	[0, 0, 0]	n/a	catFR1	3	R1383J
367.526	0.0	378769	COUNTDOWN_END	n/a	n/a	n/a	n/a	-999	3	[0, 0, 0]	n/a	catFR1	3	R1383J
367.526	2.156	378769	ENCODING_START	n/a	n/a	n/a	n/a	-999	3	[0, 0, 0]	n/a	catFR1	3	R1383J
369.682	1.6	380927	WORD	n/a	wordpools/wordpool_categorized_EN.txt	NOSE	Bodyparts	1	3	[0, 0, 0]	n/a	catFR1	3	R1383J
371.282	0.849	382528	WORD_OFF	n/a	n/a	NOSE	Bodyparts	1	3	[0, 0, 0]	n/a	catFR1	3	R1383J
372.131	1.6	383372	WORD	n/a	wordpools/wordpool_categorized_EN.txt	ELBOW	Bodyparts	2	3	[0, 0, 0]	n/a	catFR1	3	R1383J
373.732	0.766	384974	WORD_OFF	n/a	n/a	ELBOW	Bodyparts	2	3	[0, 0, 0]	n/a	catFR1	3	R1383J
374.498	1.6	385739	WORD	n/a	wordpools/wordpool_categorized_EN.txt	HICKORY	Trees	3	3	[0, 0, 0]	n/a	catFR1	3	R1383J
376.098	0.783	387340	WORD_OFF	n/a	n/a	HICKORY	Trees	3	3	[0, 0, 0]	n/a	catFR1	3	R1383J
376.881	1.6	388124	WORD	n/a	wordpools/wordpool_categorized_EN.txt	WILLOW	Trees	4	3	[0, 0, 0]	n/a	catFR1	3	R1383J
378.482	0.966	389725	WORD_OFF	n/a	n/a	WILLOW	Trees	4	3	[0, 0, 0]	n/a	catFR1	3	R1383J
379.448	1.6	390691	WORD	n/a	wordpools/wordpool_categorized_EN.txt	SHELF	Furniture	5	3	[0, 0, 0]	n/a	catFR1	3	R1383J
381.048	0.999	392292	WORD_OFF	n/a	n/a	SHELF	Furniture	5	3	[0, 0, 0]	n/a	catFR1	3	R1383J
382.047	1.6	393292	WORD	n/a	wordpools/wordpool_categorized_EN.txt	DESK	Furniture	6	3	[0, 0, 0]	n/a	catFR1	3	R1383J
383.648	0.767	394894	WORD_OFF	n/a	n/a	DESK	Furniture	6	3	[0, 0, 0]	n/a	catFR1	3	R1383J
384.415	1.6	395659	WORD	n/a	wordpools/wordpool_categorized_EN.txt	LEG	Bodyparts	7	3	[0, 0, 0]	n/a	catFR1	3	R1383J
386.015	0.916	397260	WORD_OFF	n/a	n/a	LEG	Bodyparts	7	3	[0, 0, 0]	n/a	catFR1	3	R1383J
386.931	1.6	398174	WORD	n/a	wordpools/wordpool_categorized_EN.txt	ARM	Bodyparts	8	3	[0, 0, 0]	n/a	catFR1	3	R1383J
388.531	0.901	399775	WORD_OFF	n/a	n/a	ARM	Bodyparts	8	3	[0, 0, 0]	n/a	catFR1	3	R1383J
389.432	1.6	400680	WORD	n/a	wordpools/wordpool_categorized_EN.txt	MAPLE	Trees	9	3	[0, 0, 0]	n/a	catFR1	3	R1383J
391.032	0.933	402273	WORD_OFF	n/a	n/a	MAPLE	Trees	9	3	[0, 0, 0]	n/a	catFR1	3	R1383J
391.965	1.6	403212	WORD	n/a	wordpools/wordpool_categorized_EN.txt	WALNUT	Trees	10	3	[0, 0, 0]	n/a	catFR1	3	R1383J
393.565	0.799	404805	WORD_OFF	n/a	n/a	WALNUT	Trees	10	3	[0, 0, 0]	n/a	catFR1	3	R1383J
394.364	1.6	405605	WORD	n/a	wordpools/wordpool_categorized_EN.txt	DRESSER	Furniture	11	3	[0, 0, 0]	n/a	catFR1	3	R1383J
395.965	0.933	407207	WORD_OFF	n/a	n/a	DRESSER	Furniture	11	3	[0, 0, 0]	n/a	catFR1	3	R1383J
396.898	1.6	408138	WORD	n/a	wordpools/wordpool_categorized_EN.txt	COUCH	Furniture	12	3	[0, 0, 0]	n/a	catFR1	3	R1383J
398.498	0.002	409739	WORD_OFF	n/a	n/a	COUCH	Furniture	12	3	[0, 0, 0]	n/a	catFR1	3	R1383J
398.5	0.0	409743	PROB	6.116	n/a	n/a	n/a	-999	3	[4, 2, 1]	7.0	catFR1	3	R1383J
398.5	0.0	409743	START	n/a	n/a	n/a	n/a	-999	3	[-999, -999, -999]	n/a	catFR1	3	R1383J
398.5	0.0	409748	ENCODING_END	n/a	n/a	n/a	n/a	-999	3	[0, 0, 0]	n/a	catFR1	3	R1383J
398.5	6.133	409748	DISTRACT_START	n/a	n/a	n/a	n/a	-999	3	[0, 0, 0]	n/a	catFR1	3	R1383J
404.633	6.133	415876	PROB	6.115	n/a	n/a	n/a	-999	3	[4, 3, 5]	12.0	catFR1	3	R1383J
410.766	5.132	422008	PROB	5.115	n/a	n/a	n/a	-999	3	[3, 1, 3]	7.0	catFR1	3	R1383J
415.898	5.783	427140	PROB	5.767	n/a	n/a	n/a	-999	3	[5, 6, 4]	15.0	catFR1	3	R1383J
421.681	0.0	432920	DISTRACT_END	n/a	n/a	n/a	n/a	-999	3	[0, 0, 0]	n/a	catFR1	3	R1383J
421.681	1.167	432923	STOP	n/a	n/a	n/a	n/a	-999	3	[-999, -999, -999]	n/a	catFR1	3	R1383J
422.848	5.817	434095	REC_START	n/a	n/a	n/a	n/a	-999	3	[0, 0, 0]	n/a	catFR1	3	R1383J
428.665	1.1	439907	REC_WORD	5.817	n/a	WALNUT	Trees	10	3	[0, 0, 0]	n/a	catFR1	3	R1383J
429.765	1.152	441007	REC_WORD	6.917	n/a	HICKORY	Trees	3	3	[0, 0, 0]	n/a	catFR1	3	R1383J
430.917	1.407	442159	REC_WORD	8.069	n/a	ERASER	Officesupplies	-999	3	[0, 0, 0]	n/a	catFR1	3	R1383J
432.324	4.82	443566	REC_WORD	9.476	n/a	PAPER	Officesupplies	-999	3	[0, 0, 0]	n/a	catFR1	3	R1383J
437.144	1.368	448385	REC_WORD	14.296	n/a	DRESSER	Furniture	11	3	[0, 0, 0]	n/a	catFR1	3	R1383J
438.512	14.611	449753	REC_WORD	15.664	n/a	COUCH	Furniture	12	3	[0, 0, 0]	n/a	catFR1	3	R1383J
453.123	3.241	464368	REC_END	n/a	n/a	n/a	n/a	-999	3	[0, 0, 0]	n/a	catFR1	3	R1383J
456.364	10.0	467605	COUNTDOWN_START	n/a	n/a	n/a	n/a	-999	4	[0, 0, 0]	n/a	catFR1	3	R1383J
466.727	0.0	477969	COUNTDOWN_END	n/a	n/a	n/a	n/a	-999	4	[0, 0, 0]	n/a	catFR1	3	R1383J
466.727	2.205	477969	ENCODING_START	n/a	n/a	n/a	n/a	-999	4	[0, 0, 0]	n/a	catFR1	3	R1383J
468.932	1.6	480171	WORD	n/a	wordpools/wordpool_categorized_EN.txt	CRICKET	Insects	1	4	[0, 0, 0]	n/a	catFR1	3	R1383J
470.548	0.833	481789	WORD_OFF	n/a	n/a	CRICKET	Insects	1	4	[0, 0, 0]	n/a	catFR1	3	R1383J
471.381	1.6	482625	WORD	n/a	wordpools/wordpool_categorized_EN.txt	BEE	Insects	2	4	[0, 0, 0]	n/a	catFR1	3	R1383J
472.998	0.767	484234	WORD_OFF	n/a	n/a	BEE	Insects	2	4	[0, 0, 0]	n/a	catFR1	3	R1383J
473.765	1.6	485009	WORD	n/a	wordpools/wordpool_categorized_EN.txt	SPRUCE	Trees	3	4	[0, 0, 0]	n/a	catFR1	3	R1383J
475.365	0.816	486610	WORD_OFF	n/a	n/a	SPRUCE	Trees	3	4	[0, 0, 0]	n/a	catFR1	3	R1383J
476.181	1.6	487419	WORD	n/a	wordpools/wordpool_categorized_EN.txt	EVERGREEN	Trees	4	4	[0, 0, 0]	n/a	catFR1	3	R1383J
477.782	0.966	489020	WORD_OFF	n/a	n/a	EVERGREEN	Trees	4	4	[0, 0, 0]	n/a	catFR1	3	R1383J
478.748	1.6	489986	WORD	n/a	wordpools/wordpool_categorized_EN.txt	SODA	Beverages	5	4	[0, 0, 0]	n/a	catFR1	3	R1383J
480.364	0.751	491605	WORD_OFF	n/a	n/a	SODA	Beverages	5	4	[0, 0, 0]	n/a	catFR1	3	R1383J
481.115	1.6	492353	WORD	n/a	wordpools/wordpool_categorized_EN.txt	RUM	Beverages	6	4	[0, 0, 0]	n/a	catFR1	3	R1383J
482.715	0.8	493954	WORD_OFF	n/a	n/a	RUM	Beverages	6	4	[0, 0, 0]	n/a	catFR1	3	R1383J
483.515	1.6	494755	WORD	n/a	wordpools/wordpool_categorized_EN.txt	GNAT	Insects	7	4	[0, 0, 0]	n/a	catFR1	3	R1383J
485.115	0.767	496356	WORD_OFF	n/a	n/a	GNAT	Insects	7	4	[0, 0, 0]	n/a	catFR1	3	R1383J
485.882	1.6	497122	WORD	n/a	wordpools/wordpool_categorized_EN.txt	BEETLE	Insects	8	4	[0, 0, 0]	n/a	catFR1	3	R1383J
487.482	0.932	498723	WORD_OFF	n/a	n/a	BEETLE	Insects	8	4	[0, 0, 0]	n/a	catFR1	3	R1383J
488.414	1.6	499654	WORD	n/a	wordpools/wordpool_categorized_EN.txt	CEDAR	Trees	9	4	[0, 0, 0]	n/a	catFR1	3	R1383J
490.015	0.916	501255	WORD_OFF	n/a	n/a	CEDAR	Trees	9	4	[0, 0, 0]	n/a	catFR1	3	R1383J
490.931	1.6	502169	WORD	n/a	wordpools/wordpool_categorized_EN.txt	ELM	Trees	10	4	[0, 0, 0]	n/a	catFR1	3	R1383J
492.532	0.899	503770	WORD_OFF	n/a	n/a	ELM	Trees	10	4	[0, 0, 0]	n/a	catFR1	3	R1383J
493.431	1.6	504666	WORD	n/a	wordpools/wordpool_categorized_EN.txt	WATER	Beverages	11	4	[0, 0, 0]	n/a	catFR1	3	R1383J
495.032	0.833	506267	WORD_OFF	n/a	n/a	WATER	Beverages	11	4	[0, 0, 0]	n/a	catFR1	3	R1383J
495.865	1.6	507103	WORD	n/a	wordpools/wordpool_categorized_EN.txt	BEER	Beverages	12	4	[0, 0, 0]	n/a	catFR1	3	R1383J
497.481	0.0	508720	PROB	7.534	n/a	n/a	n/a	-999	4	[1, 1, 5]	7.0	catFR1	3	R1383J
497.481	0.002	508721	WORD_OFF	n/a	n/a	BEER	Beverages	12	4	[0, 0, 0]	n/a	catFR1	3	R1383J
497.483	0.0	508721	ENCODING_END	n/a	n/a	n/a	n/a	-999	4	[0, 0, 0]	n/a	catFR1	3	R1383J
497.483	0.0	508721	DISTRACT_START	n/a	n/a	n/a	n/a	-999	4	[0, 0, 0]	n/a	catFR1	3	R1383J
497.483	7.549	508722	START	n/a	n/a	n/a	n/a	-999	4	[-999, -999, -999]	n/a	catFR1	3	R1383J
505.032	11.366	516271	PROB	11.35	n/a	n/a	n/a	-999	4	[5, 5, 6]	16.0	catFR1	3	R1383J
516.398	4.85	527636	PROB	4.833	n/a	n/a	n/a	-999	4	[4, 6, 3]	13.0	catFR1	3	R1383J
521.248	0.0	532486	DISTRACT_END	n/a	n/a	n/a	n/a	-999	4	[0, 0, 0]	n/a	catFR1	3	R1383J
521.248	1.183	532486	STOP	n/a	n/a	n/a	n/a	-999	4	[-999, -999, -999]	n/a	catFR1	3	R1383J
522.431	1.965	533669	REC_START	n/a	n/a	n/a	n/a	-999	4	[0, 0, 0]	n/a	catFR1	3	R1383J
524.396	2.718	535634	REC_WORD	1.965	n/a	CRICKET	Insects	1	4	[0, 0, 0]	n/a	catFR1	3	R1383J
527.114	4.581	538352	REC_WORD	4.683	n/a	BEETLE	Insects	8	4	[0, 0, 0]	n/a	catFR1	3	R1383J
531.695	2.91	542933	REC_WORD	9.264	n/a	ELBOW	Bodyparts	-999	4	[0, 0, 0]	n/a	catFR1	3	R1383J
534.605	1.918	545843	REC_WORD	12.174	n/a	ARM	Bodyparts	-999	4	[0, 0, 0]	n/a	catFR1	3	R1383J
536.523	16.182	547760	REC_WORD	14.092	n/a	LEG	Bodyparts	-999	4	[0, 0, 0]	n/a	catFR1	3	R1383J
552.705	3.177	563942	REC_END	n/a	n/a	n/a	n/a	-999	4	[0, 0, 0]	n/a	catFR1	3	R1383J
555.882	10.0	567119	COUNTDOWN_START	n/a	n/a	n/a	n/a	-999	5	[0, 0, 0]	n/a	catFR1	3	R1383J
566.244	0.0	577482	COUNTDOWN_END	n/a	n/a	n/a	n/a	-999	5	[0, 0, 0]	n/a	catFR1	3	R1383J
566.244	2.137	577482	ENCODING_START	n/a	n/a	n/a	n/a	-999	5	[0, 0, 0]	n/a	catFR1	3	R1383J
568.381	1.6	579614	WORD	n/a	wordpools/wordpool_categorized_EN.txt	THUNDER	Weather	1	5	[0, 0, 0]	n/a	catFR1	3	R1383J
569.982	0.983	581215	WORD_OFF	n/a	n/a	THUNDER	Weather	1	5	[0, 0, 0]	n/a	catFR1	3	R1383J
570.965	1.6	582199	WORD	n/a	wordpools/wordpool_categorized_EN.txt	HUMIDITY	Weather	2	5	[0, 0, 0]	n/a	catFR1	3	R1383J
572.565	0.833	583800	WORD_OFF	n/a	n/a	HUMIDITY	Weather	2	5	[0, 0, 0]	n/a	catFR1	3	R1383J
573.398	1.6	584635	WORD	n/a	wordpools/wordpool_categorized_EN.txt	BASEBALL	Toys	3	5	[0, 0, 0]	n/a	catFR1	3	R1383J
574.999	0.883	586236	WORD_OFF	n/a	n/a	BASEBALL	Toys	3	5	[0, 0, 0]	n/a	catFR1	3	R1383J
575.882	1.6	587115	WORD	n/a	wordpools/wordpool_categorized_EN.txt	FOOTBALL	Toys	4	5	[0, 0, 0]	n/a	catFR1	3	R1383J
577.497	0.868	588734	WORD_OFF	n/a	n/a	FOOTBALL	Toys	4	5	[0, 0, 0]	n/a	catFR1	3	R1383J
578.365	1.6	589604	WORD	n/a	wordpools/wordpool_categorized_EN.txt	PENCIL	Officesupplies	5	5	[0, 0, 0]	n/a	catFR1	3	R1383J
579.965	0.85	591205	WORD_OFF	n/a	n/a	PENCIL	Officesupplies	5	5	[0, 0, 0]	n/a	catFR1	3	R1383J
580.815	1.6	592049	WORD	n/a	wordpools/wordpool_categorized_EN.txt	BINDER	Officesupplies	6	5	[0, 0, 0]	n/a	catFR1	3	R1383J
582.432	1.0	593668	WORD_OFF	n/a	n/a	BINDER	Officesupplies	6	5	[0, 0, 0]	n/a	catFR1	3	R1383J
583.432	1.6	594668	WORD	n/a	wordpools/wordpool_categorized_EN.txt	SLINKY	Toys	7	5	[0, 0, 0]	n/a	catFR1	3	R1383J
585.032	0.849	596270	WORD_OFF	n/a	n/a	SLINKY	Toys	7	5	[0, 0, 0]	n/a	catFR1	3	R1383J
585.881	1.6	597114	WORD	n/a	wordpools/wordpool_categorized_EN.txt	BALL	Toys	8	5	[0, 0, 0]	n/a	catFR1	3	R1383J
587.481	0.917	598715	WORD_OFF	n/a	n/a	BALL	Toys	8	5	[0, 0, 0]	n/a	catFR1	3	R1383J
588.398	1.6	599637	WORD	n/a	wordpools/wordpool_categorized_EN.txt	GLUE	Officesupplies	9	5	[0, 0, 0]	n/a	catFR1	3	R1383J
589.998	0.966	601238	WORD_OFF	n/a	n/a	GLUE	Officesupplies	9	5	[0, 0, 0]	n/a	catFR1	3	R1383J
590.964	1.6	602204	WORD	n/a	wordpools/wordpool_categorized_EN.txt	FOLDER	Officesupplies	10	5	[0, 0, 0]	n/a	catFR1	3	R1383J
592.565	0.95	603805	WORD_OFF	n/a	n/a	FOLDER	Officesupplies	10	5	[0, 0, 0]	n/a	catFR1	3	R1383J
593.515	1.6	604754	WORD	n/a	wordpools/wordpool_categorized_EN.txt	CLOUD	Weather	11	5	[0, 0, 0]	n/a	catFR1	3	R1383J
595.132	0.767	606364	WORD_OFF	n/a	n/a	CLOUD	Weather	11	5	[0, 0, 0]	n/a	catFR1	3	R1383J
595.899	1.6	607138	WORD	n/a	wordpools/wordpool_categorized_EN.txt	TORNADO	Weather	12	5	[0, 0, 0]	n/a	catFR1	3	R1383J
597.514	0.002	608748	WORD_OFF	n/a	n/a	TORNADO	Weather	12	5	[0, 0, 0]	n/a	catFR1	3	R1383J
597.516	0.0	608748	ENCODING_END	n/a	n/a	n/a	n/a	-999	5	[0, 0, 0]	n/a	catFR1	3	R1383J
597.515	0.001	608750	PROB	7.567	n/a	n/a	n/a	-999	5	[5, 4, 7]	16.0	catFR1	3	R1383J
597.516	0.0	608751	START	n/a	n/a	n/a	n/a	-999	5	[-999, -999, -999]	n/a	catFR1	3	R1383J
597.516	7.583	608756	DISTRACT_START	n/a	n/a	n/a	n/a	-999	5	[0, 0, 0]	n/a	catFR1	3	R1383J
605.099	6.033	616334	PROB	6.016	n/a	n/a	n/a	-999	5	[3, 8, 3]	14.0	catFR1	3	R1383J
611.132	6.616	622366	PROB	6.599	n/a	n/a	n/a	-999	5	[5, 7, 3]	15.0	catFR1	3	R1383J
617.748	0.0	628979	DISTRACT_END	n/a	n/a	n/a	n/a	-999	5	[0, 0, 0]	n/a	catFR1	3	R1383J
617.748	1.3	628982	STOP	n/a	n/a	n/a	n/a	-999	5	[-999, -999, -999]	n/a	catFR1	3	R1383J
619.048	29.999	630285	REC_START	n/a	n/a	n/a	n/a	-999	5	[0, 0, 0]	n/a	catFR1	3	R1383J
649.047	0.251	660280	REC_WORD_VV	29.999	n/a	<>	n/a	-999	5	[0, 0, 0]	n/a	catFR1	3	R1383J
649.298	3.584	660532	REC_END	n/a	n/a	n/a	n/a	-999	5	[0, 0, 0]	n/a	catFR1	3	R1383J
652.882	10.0	664117	COUNTDOWN_START	n/a	n/a	n/a	n/a	-999	6	[0, 0, 0]	n/a	catFR1	3	R1383J
663.242	0.0	674472	COUNTDOWN_END	n/a	n/a	n/a	n/a	-999	6	[0, 0, 0]	n/a	catFR1	3	R1383J
663.242	2.206	674481	ENCODING_START	n/a	n/a	n/a	n/a	-999	6	[0, 0, 0]	n/a	catFR1	3	R1383J
665.448	1.6	676682	WORD	n/a	wordpools/wordpool_categorized_EN.txt	OCTOPUS	Oceananimals	1	6	[0, 0, 0]	n/a	catFR1	3	R1383J
667.048	0.95	678283	WORD_OFF	n/a	n/a	OCTOPUS	Oceananimals	1	6	[0, 0, 0]	n/a	catFR1	3	R1383J
667.998	1.6	679232	WORD	n/a	wordpools/wordpool_categorized_EN.txt	PLANKTON	Oceananimals	2	6	[0, 0, 0]	n/a	catFR1	3	R1383J
669.598	0.984	680833	WORD_OFF	n/a	n/a	PLANKTON	Oceananimals	2	6	[0, 0, 0]	n/a	catFR1	3	R1383J
670.582	1.6	681816	WORD	n/a	wordpools/wordpool_categorized_EN.txt	ISLAND	Landscapes	3	6	[0, 0, 0]	n/a	catFR1	3	R1383J
672.198	0.934	683426	WORD_OFF	n/a	n/a	ISLAND	Landscapes	3	6	[0, 0, 0]	n/a	catFR1	3	R1383J
673.132	1.6	684366	WORD	n/a	wordpools/wordpool_categorized_EN.txt	FOREST	Landscapes	4	6	[0, 0, 0]	n/a	catFR1	3	R1383J
674.749	0.832	685985	WORD_OFF	n/a	n/a	FOREST	Landscapes	4	6	[0, 0, 0]	n/a	catFR1	3	R1383J
675.581	1.6	686811	WORD	n/a	wordpools/wordpool_categorized_EN.txt	BED	Furniture	5	6	[0, 0, 0]	n/a	catFR1	3	R1383J
677.182	0.983	688412	WORD_OFF	n/a	n/a	BED	Furniture	5	6	[0, 0, 0]	n/a	catFR1	3	R1383J
678.165	1.6	689396	WORD	n/a	wordpools/wordpool_categorized_EN.txt	RECLINER	Furniture	6	6	[0, 0, 0]	n/a	catFR1	3	R1383J
679.781	1.001	691014	WORD_OFF	n/a	n/a	RECLINER	Furniture	6	6	[0, 0, 0]	n/a	catFR1	3	R1383J
680.782	1.6	692015	WORD	n/a	wordpools/wordpool_categorized_EN.txt	LOBSTER	Oceananimals	7	6	[0, 0, 0]	n/a	catFR1	3	R1383J
682.382	0.9	693616	WORD_OFF	n/a	n/a	LOBSTER	Oceananimals	7	6	[0, 0, 0]	n/a	catFR1	3	R1383J
683.282	1.6	694512	WORD	n/a	wordpools/wordpool_categorized_EN.txt	OYSTER	Oceananimals	8	6	[0, 0, 0]	n/a	catFR1	3	R1383J
684.897	0.9	696131	WORD_OFF	n/a	n/a	OYSTER	Oceananimals	8	6	[0, 0, 0]	n/a	catFR1	3	R1383J
685.797	1.6	697027	WORD	n/a	wordpools/wordpool_categorized_EN.txt	CABINET	Furniture	9	6	[0, 0, 0]	n/a	catFR1	3	R1383J
687.398	0.884	698628	WORD_OFF	n/a	n/a	CABINET	Furniture	9	6	[0, 0, 0]	n/a	catFR1	3	R1383J
688.282	1.6	699516	WORD	n/a	wordpools/wordpool_categorized_EN.txt	BOOKCASE	Furniture	10	6	[0, 0, 0]	n/a	catFR1	3	R1383J
689.898	0.917	701126	WORD_OFF	n/a	n/a	BOOKCASE	Furniture	10	6	[0, 0, 0]	n/a	catFR1	3	R1383J
690.815	1.6	702048	WORD	n/a	wordpools/wordpool_categorized_EN.txt	CREEK	Landscapes	11	6	[0, 0, 0]	n/a	catFR1	3	R1383J
692.415	0.984	703649	WORD_OFF	n/a	n/a	CREEK	Landscapes	11	6	[0, 0, 0]	n/a	catFR1	3	R1383J
693.399	1.6	704632	WORD	n/a	wordpools/wordpool_categorized_EN.txt	BEACH	Landscapes	12	6	[0, 0, 0]	n/a	catFR1	3	R1383J
695.015	0.001	706242	WORD_OFF	n/a	n/a	BEACH	Landscapes	12	6	[0, 0, 0]	n/a	catFR1	3	R1383J
695.016	0.0	706247	PROB	5.166	n/a	n/a	n/a	-999	6	[8, 1, 6]	15.0	catFR1	3	R1383J
695.016	0.0	706247	START	n/a	n/a	n/a	n/a	-999	6	[-999, -999, -999]	n/a	catFR1	3	R1383J
695.016	0.0	706251	ENCODING_END	n/a	n/a	n/a	n/a	-999	6	[0, 0, 0]	n/a	catFR1	3	R1383J
695.016	5.183	706251	DISTRACT_START	n/a	n/a	n/a	n/a	-999	6	[0, 0, 0]	n/a	catFR1	3	R1383J
700.199	5.299	711430	PROB	5.282	n/a	n/a	n/a	-999	6	[6, 2, 5]	13.0	catFR1	3	R1383J
705.498	8.101	716729	PROB	8.083	n/a	n/a	n/a	-999	6	[5, 5, 8]	18.0	catFR1	3	R1383J
713.599	6.432	724829	PROB	6.416	n/a	n/a	n/a	-999	6	[8, 8, 3]	19.0	catFR1	3	R1383J
720.031	0.0	731260	DISTRACT_END	n/a	n/a	n/a	n/a	-999	6	[0, 0, 0]	n/a	catFR1	3	R1383J
720.031	1.267	731261	STOP	n/a	n/a	n/a	n/a	-999	6	[-999, -999, -999]	n/a	catFR1	3	R1383J
721.298	3.273	732530	REC_START	n/a	n/a	n/a	n/a	-999	6	[0, 0, 0]	n/a	catFR1	3	R1383J
724.571	1.0	735801	REC_WORD	3.273	n/a	OCTOPUS	Oceananimals	1	6	[0, 0, 0]	n/a	catFR1	3	R1383J
725.571	0.779	736801	REC_WORD_VV	4.273	n/a	<>	n/a	-999	6	[0, 0, 0]	n/a	catFR1	3	R1383J
726.35	5.382	737580	REC_WORD	5.052	n/a	OYSTER	Oceananimals	8	6	[0, 0, 0]	n/a	catFR1	3	R1383J
731.732	19.849	742962	REC_WORD	10.434	n/a	RECLINER	Furniture	6	6	[0, 0, 0]	n/a	catFR1	3	R1383J
751.581	1.901	762812	REC_END	n/a	n/a	n/a	n/a	-999	6	[0, 0, 0]	n/a	catFR1	3	R1383J
753.482	10.0	764709	COUNTDOWN_START	n/a	n/a	n/a	n/a	-999	7	[0, 0, 0]	n/a	catFR1	3	R1383J
763.842	0.0	775073	COUNTDOWN_END	n/a	n/a	n/a	n/a	-999	7	[0, 0, 0]	n/a	catFR1	3	R1383J
763.842	2.14	775073	ENCODING_START	n/a	n/a	n/a	n/a	-999	7	[0, 0, 0]	n/a	catFR1	3	R1383J
765.982	1.6	777214	WORD	n/a	wordpools/wordpool_categorized_EN.txt	CELLO	Instruments	1	7	[0, 0, 0]	n/a	catFR1	3	R1383J
767.598	0.884	778824	WORD_OFF	n/a	n/a	CELLO	Instruments	1	7	[0, 0, 0]	n/a	catFR1	3	R1383J
768.482	1.6	779711	WORD	n/a	wordpools/wordpool_categorized_EN.txt	DRUM	Instruments	2	7	[0, 0, 0]	n/a	catFR1	3	R1383J
770.082	0.783	781312	WORD_OFF	n/a	n/a	DRUM	Instruments	2	7	[0, 0, 0]	n/a	catFR1	3	R1383J
770.865	1.6	782095	WORD	n/a	wordpools/wordpool_categorized_EN.txt	DRESS	Clothing	3	7	[0, 0, 0]	n/a	catFR1	3	R1383J
772.465	0.782	783696	WORD_OFF	n/a	n/a	DRESS	Clothing	3	7	[0, 0, 0]	n/a	catFR1	3	R1383J
773.247	1.6	784471	WORD	n/a	wordpools/wordpool_categorized_EN.txt	JEANS	Clothing	4	7	[0, 0, 0]	n/a	catFR1	3	R1383J
774.848	0.866	786072	WORD_OFF	n/a	n/a	JEANS	Clothing	4	7	[0, 0, 0]	n/a	catFR1	3	R1383J
775.714	1.6	786942	WORD	n/a	wordpools/wordpool_categorized_EN.txt	HILLS	Landscapes	5	7	[0, 0, 0]	n/a	catFR1	3	R1383J
777.315	0.833	788543	WORD_OFF	n/a	n/a	HILLS	Landscapes	5	7	[0, 0, 0]	n/a	catFR1	3	R1383J
778.148	1.6	789379	WORD	n/a	wordpools/wordpool_categorized_EN.txt	STREAM	Landscapes	6	7	[0, 0, 0]	n/a	catFR1	3	R1383J
779.749	0.883	790980	WORD_OFF	n/a	n/a	STREAM	Landscapes	6	7	[0, 0, 0]	n/a	catFR1	3	R1383J
780.632	1.6	791859	WORD	n/a	wordpools/wordpool_categorized_EN.txt	TRUMPET	Instruments	7	7	[0, 0, 0]	n/a	catFR1	3	R1383J
782.232	0.967	793460	WORD_OFF	n/a	n/a	TRUMPET	Instruments	7	7	[0, 0, 0]	n/a	catFR1	3	R1383J
783.199	1.6	794426	WORD	n/a	wordpools/wordpool_categorized_EN.txt	FLUTE	Instruments	8	7	[0, 0, 0]	n/a	catFR1	3	R1383J
784.799	0.766	796027	WORD_OFF	n/a	n/a	FLUTE	Instruments	8	7	[0, 0, 0]	n/a	catFR1	3	R1383J
785.565	1.6	796793	WORD	n/a	wordpools/wordpool_categorized_EN.txt	WOODS	Landscapes	9	7	[0, 0, 0]	n/a	catFR1	3	R1383J
787.165	0.85	798394	WORD_OFF	n/a	n/a	WOODS	Landscapes	9	7	[0, 0, 0]	n/a	catFR1	3	R1383J
788.015	1.6	799246	WORD	n/a	wordpools/wordpool_categorized_EN.txt	LAKE	Landscapes	10	7	[0, 0, 0]	n/a	catFR1	3	R1383J
789.632	1.0	800856	WORD_OFF	n/a	n/a	LAKE	Landscapes	10	7	[0, 0, 0]	n/a	catFR1	3	R1383J
790.632	1.6	801857	WORD	n/a	wordpools/wordpool_categorized_EN.txt	SHIRT	Clothing	11	7	[0, 0, 0]	n/a	catFR1	3	R1383J
792.249	0.799	803476	WORD_OFF	n/a	n/a	SHIRT	Clothing	11	7	[0, 0, 0]	n/a	catFR1	3	R1383J
793.048	1.6	804276	WORD	n/a	wordpools/wordpool_categorized_EN.txt	SHOES	Clothing	12	7	[0, 0, 0]	n/a	catFR1	3	R1383J
794.649	0.0	805876	PROB	7.249	n/a	n/a	n/a	-999	7	[7, 7, 2]	16.0	catFR1	3	R1383J
794.649	0.001	805877	WORD_OFF	n/a	n/a	SHOES	Clothing	12	7	[0, 0, 0]	n/a	catFR1	3	R1383J
794.65	0.001	805877	ENCODING_END	n/a	n/a	n/a	n/a	-999	7	[0, 0, 0]	n/a	catFR1	3	R1383J
794.651	0.0	805877	DISTRACT_START	n/a	n/a	n/a	n/a	-999	7	[0, 0, 0]	n/a	catFR1	3	R1383J
794.651	7.265	805878	START	n/a	n/a	n/a	n/a	-999	7	[-999, -999, -999]	n/a	catFR1	3	R1383J
801.916	10.133	813143	PROB	10.116	n/a	n/a	n/a	-999	7	[5, 8, 5]	16.0	catFR1	3	R1383J
812.049	4.566	823275	PROB	4.549	n/a	n/a	n/a	-999	7	[7, 3, 1]	11.0	catFR1	3	R1383J
816.615	0.0	827840	DISTRACT_END	n/a	n/a	n/a	n/a	-999	7	[0, 0, 0]	n/a	catFR1	3	R1383J
816.615	1.033	827841	STOP	n/a	n/a	n/a	n/a	-999	7	[-999, -999, -999]	n/a	catFR1	3	R1383J
817.648	4.211	828876	REC_START	n/a	n/a	n/a	n/a	-999	7	[0, 0, 0]	n/a	catFR1	3	R1383J
821.859	1.707	833085	REC_WORD	4.211	n/a	CELLO	Instruments	1	7	[0, 0, 0]	n/a	catFR1	3	R1383J
823.566	1.512	834792	REC_WORD	5.918	n/a	FLUTE	Instruments	8	7	[0, 0, 0]	n/a	catFR1	3	R1383J
825.078	22.805	836304	REC_WORD	7.43	n/a	TRUMPET	Instruments	7	7	[0, 0, 0]	n/a	catFR1	3	R1383J
847.883	2.232	859106	REC_END	n/a	n/a	n/a	n/a	-999	7	[0, 0, 0]	n/a	catFR1	3	R1383J
850.115	10.0	861342	COUNTDOWN_START	n/a	n/a	n/a	n/a	-999	8	[0, 0, 0]	n/a	catFR1	3	R1383J
860.475	0.0	871697	COUNTDOWN_END	n/a	n/a	n/a	n/a	-999	8	[0, 0, 0]	n/a	catFR1	3	R1383J
860.475	2.174	871706	ENCODING_START	n/a	n/a	n/a	n/a	-999	8	[0, 0, 0]	n/a	catFR1	3	R1383J
862.649	1.6	873873	WORD	n/a	wordpools/wordpool_categorized_EN.txt	WINDOW	Building	1	8	[0, 0, 0]	n/a	catFR1	3	R1383J
864.265	0.901	875491	WORD_OFF	n/a	n/a	WINDOW	Building	1	8	[0, 0, 0]	n/a	catFR1	3	R1383J
865.166	1.6	876388	WORD	n/a	wordpools/wordpool_categorized_EN.txt	WALL	Building	2	8	[0, 0, 0]	n/a	catFR1	3	R1383J
866.782	0.867	878006	WORD_OFF	n/a	n/a	WALL	Building	2	8	[0, 0, 0]	n/a	catFR1	3	R1383J
867.649	1.6	878876	WORD	n/a	wordpools/wordpool_categorized_EN.txt	FRISBEE	Toys	3	8	[0, 0, 0]	n/a	catFR1	3	R1383J
869.249	0.816	880477	WORD_OFF	n/a	n/a	FRISBEE	Toys	3	8	[0, 0, 0]	n/a	catFR1	3	R1383J
870.065	1.6	881287	WORD	n/a	wordpools/wordpool_categorized_EN.txt	DOLLHOUSE	Toys	4	8	[0, 0, 0]	n/a	catFR1	3	R1383J
871.665	0.9	882888	WORD_OFF	n/a	n/a	DOLLHOUSE	Toys	4	8	[0, 0, 0]	n/a	catFR1	3	R1383J
872.565	1.6	883793	WORD	n/a	wordpools/wordpool_categorized_EN.txt	PINE	Trees	5	8	[0, 0, 0]	n/a	catFR1	3	R1383J
874.165	0.984	885394	WORD_OFF	n/a	n/a	PINE	Trees	5	8	[0, 0, 0]	n/a	catFR1	3	R1383J
875.149	1.6	886377	WORD	n/a	wordpools/wordpool_categorized_EN.txt	BIRCH	Trees	6	8	[0, 0, 0]	n/a	catFR1	3	R1383J
876.749	0.983	887970	WORD_OFF	n/a	n/a	BIRCH	Trees	6	8	[0, 0, 0]	n/a	catFR1	3	R1383J
877.732	1.6	888953	WORD	n/a	wordpools/wordpool_categorized_EN.txt	DOLL	Toys	7	8	[0, 0, 0]	n/a	catFR1	3	R1383J
879.332	0.783	890554	WORD_OFF	n/a	n/a	DOLL	Toys	7	8	[0, 0, 0]	n/a	catFR1	3	R1383J
880.115	1.6	891337	WORD	n/a	wordpools/wordpool_categorized_EN.txt	BARBIE	Toys	8	8	[0, 0, 0]	n/a	catFR1	3	R1383J
881.715	0.884	892938	WORD_OFF	n/a	n/a	BARBIE	Toys	8	8	[0, 0, 0]	n/a	catFR1	3	R1383J
882.599	1.6	893826	WORD	n/a	wordpools/wordpool_categorized_EN.txt	CYPRESS	Trees	9	8	[0, 0, 0]	n/a	catFR1	3	R1383J
884.199	0.85	895427	WORD_OFF	n/a	n/a	CYPRESS	Trees	9	8	[0, 0, 0]	n/a	catFR1	3	R1383J
885.049	1.6	896271	WORD	n/a	wordpools/wordpool_categorized_EN.txt	OAK	Trees	10	8	[0, 0, 0]	n/a	catFR1	3	R1383J
886.649	0.916	897872	WORD_OFF	n/a	n/a	OAK	Trees	10	8	[0, 0, 0]	n/a	catFR1	3	R1383J
887.565	1.6	898786	WORD	n/a	wordpools/wordpool_categorized_EN.txt	ROOM	Building	11	8	[0, 0, 0]	n/a	catFR1	3	R1383J
889.165	0.984	900387	WORD_OFF	n/a	n/a	ROOM	Building	11	8	[0, 0, 0]	n/a	catFR1	3	R1383J
890.149	1.6	901370	WORD	n/a	wordpools/wordpool_categorized_EN.txt	FOUNDATION	Building	12	8	[0, 0, 0]	n/a	catFR1	3	R1383J
891.749	0.0	902971	WORD_OFF	n/a	n/a	FOUNDATION	Building	12	8	[0, 0, 0]	n/a	catFR1	3	R1383J
891.749	0.001	902972	PROB	5.633	n/a	n/a	n/a	-999	8	[2, 3, 1]	6.0	catFR1	3	R1383J
891.75	0.0	902973	START	n/a	n/a	n/a	n/a	-999	8	[-999, -999, -999]	n/a	catFR1	3	R1383J
891.75	0.0	902980	ENCODING_END	n/a	n/a	n/a	n/a	-999	8	[0, 0, 0]	n/a	catFR1	3	R1383J
891.75	5.649	902980	DISTRACT_START	n/a	n/a	n/a	n/a	-999	8	[0, 0, 0]	n/a	catFR1	3	R1383J
897.399	14.483	908622	PROB	14.466	n/a	n/a	n/a	-999	8	[8, 4, 3]	16.0	catFR1	3	R1383J
911.882	0.0	923104	STOP	n/a	n/a	n/a	n/a	-999	8	[-999, -999, -999]	n/a	catFR1	3	R1383J
911.882	1.299	923107	DISTRACT_END	n/a	n/a	n/a	n/a	-999	8	[0, 0, 0]	n/a	catFR1	3	R1383J
913.181	7.014	924404	REC_START	n/a	n/a	n/a	n/a	-999	8	[0, 0, 0]	n/a	catFR1	3	R1383J
920.195	1.533	931417	REC_WORD	7.014	n/a	WINDOW	Building	1	8	[0, 0, 0]	n/a	catFR1	3	R1383J
921.728	3.708	932950	REC_WORD	8.547	n/a	WALL	Building	2	8	[0, 0, 0]	n/a	catFR1	3	R1383J
925.436	5.874	936658	REC_WORD	12.255	n/a	CYPRESS	Trees	9	8	[0, 0, 0]	n/a	catFR1	3	R1383J
931.31	12.117	942532	REC_WORD	18.129	n/a	ROOM	Building	11	8	[0, 0, 0]	n/a	catFR1	3	R1383J
943.427	1.955	954651	REC_END	n/a	n/a	n/a	n/a	-999	8	[0, 0, 0]	n/a	catFR1	3	R1383J
945.382	10.0	956609	COUNTDOWN_START	n/a	n/a	n/a	n/a	-999	9	[0, 0, 0]	n/a	catFR1	3	R1383J
955.744	0.001	966964	COUNTDOWN_END	n/a	n/a	n/a	n/a	-999	9	[0, 0, 0]	n/a	catFR1	3	R1383J
955.745	2.037	966964	ENCODING_START	n/a	n/a	n/a	n/a	-999	9	[0, 0, 0]	n/a	catFR1	3	R1383J
957.782	1.6	969000	WORD	n/a	wordpools/wordpool_categorized_EN.txt	CHAIR	Furniture	1	9	[0, 0, 0]	n/a	catFR1	3	R1383J
959.399	0.982	970619	WORD_OFF	n/a	n/a	CHAIR	Furniture	1	9	[0, 0, 0]	n/a	catFR1	3	R1383J
960.381	1.6	971602	WORD	n/a	wordpools/wordpool_categorized_EN.txt	TABLE	Furniture	2	9	[0, 0, 0]	n/a	catFR1	3	R1383J
961.982	0.866	973203	WORD_OFF	n/a	n/a	TABLE	Furniture	2	9	[0, 0, 0]	n/a	catFR1	3	R1383J
962.848	1.6	974073	WORD	n/a	wordpools/wordpool_categorized_EN.txt	TIGER	Zoo	3	9	[0, 0, 0]	n/a	catFR1	3	R1383J
964.465	0.783	975683	WORD_OFF	n/a	n/a	TIGER	Zoo	3	9	[0, 0, 0]	n/a	catFR1	3	R1383J
965.248	1.6	976466	WORD	n/a	wordpools/wordpool_categorized_EN.txt	ZEBRA	Zoo	4	9	[0, 0, 0]	n/a	catFR1	3	R1383J
966.848	0.999	978067	WORD_OFF	n/a	n/a	ZEBRA	Zoo	4	9	[0, 0, 0]	n/a	catFR1	3	R1383J
967.847	1.6	979068	WORD	n/a	wordpools/wordpool_categorized_EN.txt	PIANO	Instruments	5	9	[0, 0, 0]	n/a	catFR1	3	R1383J
969.448	0.917	980669	WORD_OFF	n/a	n/a	PIANO	Instruments	5	9	[0, 0, 0]	n/a	catFR1	3	R1383J
970.365	1.6	981583	WORD	n/a	wordpools/wordpool_categorized_EN.txt	TUBA	Instruments	6	9	[0, 0, 0]	n/a	catFR1	3	R1383J
971.981	0.984	983201	WORD_OFF	n/a	n/a	TUBA	Instruments	6	9	[0, 0, 0]	n/a	catFR1	3	R1383J
972.965	1.6	984185	WORD	n/a	wordpools/wordpool_categorized_EN.txt	PANDA	Zoo	7	9	[0, 0, 0]	n/a	catFR1	3	R1383J
974.581	1.0	985803	WORD_OFF	n/a	n/a	PANDA	Zoo	7	9	[0, 0, 0]	n/a	catFR1	3	R1383J
975.581	1.6	986804	WORD	n/a	wordpools/wordpool_categorized_EN.txt	CHEETAH	Zoo	8	9	[0, 0, 0]	n/a	catFR1	3	R1383J
977.182	0.866	988405	WORD_OFF	n/a	n/a	CHEETAH	Zoo	8	9	[0, 0, 0]	n/a	catFR1	3	R1383J
978.048	1.6	989267	WORD	n/a	wordpools/wordpool_categorized_EN.txt	BANJO	Instruments	9	9	[0, 0, 0]	n/a	catFR1	3	R1383J
979.648	0.784	990868	WORD_OFF	n/a	n/a	BANJO	Instruments	9	9	[0, 0, 0]	n/a	catFR1	3	R1383J
980.432	1.6	991651	WORD	n/a	wordpools/wordpool_categorized_EN.txt	BASS	Instruments	10	9	[0, 0, 0]	n/a	catFR1	3	R1383J
982.048	0.884	993269	WORD_OFF	n/a	n/a	BASS	Instruments	10	9	[0, 0, 0]	n/a	catFR1	3	R1383J
982.932	1.6	994148	WORD	n/a	wordpools/wordpool_categorized_EN.txt	SOFA	Furniture	11	9	[0, 0, 0]	n/a	catFR1	3	R1383J
984.548	0.917	995767	WORD_OFF	n/a	n/a	SOFA	Furniture	11	9	[0, 0, 0]	n/a	catFR1	3	R1383J
985.465	1.6	996680	WORD	n/a	wordpools/wordpool_categorized_EN.txt	NIGHTSTAND	Furniture	12	9	[0, 0, 0]	n/a	catFR1	3	R1383J
987.065	0.001	998282	WORD_OFF	n/a	n/a	NIGHTSTAND	Furniture	12	9	[0, 0, 0]	n/a	catFR1	3	R1383J
987.066	0.0	998285	START	n/a	n/a	n/a	n/a	-999	9	[-999, -999, -999]	n/a	catFR1	3	R1383J
987.066	0.0	998285	PROB	6.216	n/a	n/a	n/a	-999	9	[3, 6, 7]	16.0	catFR1	3	R1383J
987.066	0.0	998290	ENCODING_END	n/a	n/a	n/a	n/a	-999	9	[0, 0, 0]	n/a	catFR1	3	R1383J
987.066	6.232	998290	DISTRACT_START	n/a	n/a	n/a	n/a	-999	9	[0, 0, 0]	n/a	catFR1	3	R1383J
993.298	3.601	1004517	PROB	3.583	n/a	n/a	n/a	-999	9	[8, 7, 7]	22.0	catFR1	3	R1383J
996.899	5.183	1008118	PROB	5.166	n/a	n/a	n/a	-999	9	[3, 6, 5]	14.0	catFR1	3	R1383J
1002.082	7.382	1013301	PROB	7.366	n/a	n/a	n/a	-999	9	[6, 3, 5]	14.0	catFR1	3	R1383J
1009.464	0.0	1020680	DISTRACT_END	n/a	n/a	n/a	n/a	-999	9	[0, 0, 0]	n/a	catFR1	3	R1383J
1009.464	1.033	1020683	STOP	n/a	n/a	n/a	n/a	-999	9	[-999, -999, -999]	n/a	catFR1	3	R1383J
1010.497	8.249	1021715	REC_START	n/a	n/a	n/a	n/a	-999	9	[0, 0, 0]	n/a	catFR1	3	R1383J
1018.746	3.251	1029964	REC_WORD	8.249	n/a	CHEETAH	Zoo	8	9	[0, 0, 0]	n/a	catFR1	3	R1383J
1021.997	9.793	1033215	REC_WORD	11.5	n/a	PIANO	Instruments	5	9	[0, 0, 0]	n/a	catFR1	3	R1383J
1031.79	2.121	1043008	REC_WORD	21.293	n/a	COUCH	Furniture	-999	9	[0, 0, 0]	n/a	catFR1	3	R1383J
1033.911	6.824	1045129	REC_WORD	23.414	n/a	CHAIR	Furniture	1	9	[0, 0, 0]	n/a	catFR1	3	R1383J
1040.735	2.247	1051954	REC_END	n/a	n/a	n/a	n/a	-999	9	[0, 0, 0]	n/a	catFR1	3	R1383J
1042.982	10.0	1054199	COUNTDOWN_START	n/a	n/a	n/a	n/a	-999	10	[0, 0, 0]	n/a	catFR1	3	R1383J
1053.342	0.0	1064554	COUNTDOWN_END	n/a	n/a	n/a	n/a	-999	10	[0, 0, 0]	n/a	catFR1	3	R1383J
1053.342	2.09	1064563	ENCODING_START	n/a	n/a	n/a	n/a	-999	10	[0, 0, 0]	n/a	catFR1	3	R1383J
1055.432	1.6	1066651	WORD	n/a	wordpools/wordpool_categorized_EN.txt	POTATO	Vegetables	1	10	[0, 0, 0]	n/a	catFR1	3	R1383J
1057.032	0.835	1068252	WORD_OFF	n/a	n/a	POTATO	Vegetables	1	10	[0, 0, 0]	n/a	catFR1	3	R1383J
1057.867	1.6	1069088	WORD	n/a	wordpools/wordpool_categorized_EN.txt	PEAS	Vegetables	2	10	[0, 0, 0]	n/a	catFR1	3	R1383J
1059.465	0.933	1070680	WORD_OFF	n/a	n/a	PEAS	Vegetables	2	10	[0, 0, 0]	n/a	catFR1	3	R1383J
1060.398	1.6	1071611	WORD	n/a	wordpools/wordpool_categorized_EN.txt	MOUSSE	Desserts	3	10	[0, 0, 0]	n/a	catFR1	3	R1383J
1061.999	0.849	1073212	WORD_OFF	n/a	n/a	MOUSSE	Desserts	3	10	[0, 0, 0]	n/a	catFR1	3	R1383J
1062.848	1.6	1074065	WORD	n/a	wordpools/wordpool_categorized_EN.txt	BROWNIES	Desserts	4	10	[0, 0, 0]	n/a	catFR1	3	R1383J
1064.449	0.866	1075666	WORD_OFF	n/a	n/a	BROWNIES	Desserts	4	10	[0, 0, 0]	n/a	catFR1	3	R1383J
1065.315	1.6	1076536	WORD	n/a	wordpools/wordpool_categorized_EN.txt	LIGHTNING	Weather	5	10	[0, 0, 0]	n/a	catFR1	3	R1383J
1066.915	1.0	1078129	WORD_OFF	n/a	n/a	LIGHTNING	Weather	5	10	[0, 0, 0]	n/a	catFR1	3	R1383J
1067.915	1.6	1079130	WORD	n/a	wordpools/wordpool_categorized_EN.txt	FOG	Weather	6	10	[0, 0, 0]	n/a	catFR1	3	R1383J
1069.515	0.984	1080731	WORD_OFF	n/a	n/a	FOG	Weather	6	10	[0, 0, 0]	n/a	catFR1	3	R1383J
1070.499	1.6	1081714	WORD	n/a	wordpools/wordpool_categorized_EN.txt	CORN	Vegetables	7	10	[0, 0, 0]	n/a	catFR1	3	R1383J
1072.099	0.768	1083315	WORD_OFF	n/a	n/a	CORN	Vegetables	7	10	[0, 0, 0]	n/a	catFR1	3	R1383J
1072.867	1.6	1084081	WORD	n/a	wordpools/wordpool_categorized_EN.txt	CABBAGE	Vegetables	8	10	[0, 0, 0]	n/a	catFR1	3	R1383J
1074.482	0.85	1085699	WORD_OFF	n/a	n/a	CABBAGE	Vegetables	8	10	[0, 0, 0]	n/a	catFR1	3	R1383J
1075.332	1.6	1086552	WORD	n/a	wordpools/wordpool_categorized_EN.txt	SNOW	Weather	9	10	[0, 0, 0]	n/a	catFR1	3	R1383J
1076.932	0.867	1088145	WORD_OFF	n/a	n/a	SNOW	Weather	9	10	[0, 0, 0]	n/a	catFR1	3	R1383J
1077.799	1.6	1089015	WORD	n/a	wordpools/wordpool_categorized_EN.txt	THUNDERSTORM	Weather	10	10	[0, 0, 0]	n/a	catFR1	3	R1383J
1079.399	0.983	1090616	WORD_OFF	n/a	n/a	THUNDERSTORM	Weather	10	10	[0, 0, 0]	n/a	catFR1	3	R1383J
1080.382	1.6	1091599	WORD	n/a	wordpools/wordpool_categorized_EN.txt	COOKIE	Desserts	11	10	[0, 0, 0]	n/a	catFR1	3	R1383J
1081.982	0.833	1093200	WORD_OFF	n/a	n/a	COOKIE	Desserts	11	10	[0, 0, 0]	n/a	catFR1	3	R1383J
1082.815	1.6	1094036	WORD	n/a	wordpools/wordpool_categorized_EN.txt	PASTRY	Desserts	12	10	[0, 0, 0]	n/a	catFR1	3	R1383J
1084.432	0.0	1095645	WORD_OFF	n/a	n/a	PASTRY	Desserts	12	10	[0, 0, 0]	n/a	catFR1	3	R1383J
1084.432	0.002	1095648	PROB	5.533	n/a	n/a	n/a	-999	10	[2, 3, 4]	9.0	catFR1	3	R1383J
1084.434	0.0	1095650	START	n/a	n/a	n/a	n/a	-999	10	[-999, -999, -999]	n/a	catFR1	3	R1383J
1084.434	0.0	1095654	ENCODING_END	n/a	n/a	n/a	n/a	-999	10	[0, 0, 0]	n/a	catFR1	3	R1383J
1084.434	5.549	1095654	DISTRACT_START	n/a	n/a	n/a	n/a	-999	10	[0, 0, 0]	n/a	catFR1	3	R1383J
1089.983	8.816	1101198	PROB	8.799	n/a	n/a	n/a	-999	10	[5, 2, 2]	9.0	catFR1	3	R1383J
1098.799	9.415	1110014	PROB	9.399	n/a	n/a	n/a	-999	10	[7, 7, 2]	16.0	catFR1	3	R1383J
1108.214	0.0	1119427	DISTRACT_END	n/a	n/a	n/a	n/a	-999	10	[0, 0, 0]	n/a	catFR1	3	R1383J
1108.214	1.267	1119429	STOP	n/a	n/a	n/a	n/a	-999	10	[-999, -999, -999]	n/a	catFR1	3	R1383J
1109.481	5.202	1120698	REC_START	n/a	n/a	n/a	n/a	-999	10	[0, 0, 0]	n/a	catFR1	3	R1383J
1114.683	1.23	1125897	REC_WORD	5.202	n/a	BROWNIES	Desserts	4	10	[0, 0, 0]	n/a	catFR1	3	R1383J
1115.913	8.895	1127127	REC_WORD	6.432	n/a	PASTRY	Desserts	12	10	[0, 0, 0]	n/a	catFR1	3	R1383J
1124.808	1.258	1136022	REC_WORD	15.327	n/a	POTATO	Vegetables	1	10	[0, 0, 0]	n/a	catFR1	3	R1383J
1126.066	13.656	1137280	REC_WORD	16.585	n/a	PEAS	Vegetables	2	10	[0, 0, 0]	n/a	catFR1	3	R1383J
1139.722	2.327	1150936	REC_END	n/a	n/a	n/a	n/a	-999	10	[0, 0, 0]	n/a	catFR1	3	R1383J
1142.049	10.0	1153268	COUNTDOWN_START	n/a	n/a	n/a	n/a	-999	11	[0, 0, 0]	n/a	catFR1	3	R1383J
1152.409	0.0	1163624	COUNTDOWN_END	n/a	n/a	n/a	n/a	-999	11	[0, 0, 0]	n/a	catFR1	3	R1383J
1152.409	2.19	1163624	ENCODING_START	n/a	n/a	n/a	n/a	-999	11	[0, 0, 0]	n/a	catFR1	3	R1383J
1154.599	1.6	1165808	WORD	n/a	wordpools/wordpool_categorized_EN.txt	DRIZZLE	Weather	1	11	[0, 0, 0]	n/a	catFR1	3	R1383J
1156.199	0.867	1167409	WORD_OFF	n/a	n/a	DRIZZLE	Weather	1	11	[0, 0, 0]	n/a	catFR1	3	R1383J
1157.066	1.6	1168288	WORD	n/a	wordpools/wordpool_categorized_EN.txt	WIND	Weather	2	11	[0, 0, 0]	n/a	catFR1	3	R1383J
1158.666	0.983	1169880	WORD_OFF	n/a	n/a	WIND	Weather	2	11	[0, 0, 0]	n/a	catFR1	3	R1383J
1159.649	1.6	1170863	WORD	n/a	wordpools/wordpool_categorized_EN.txt	STOVE	Appliances	3	11	[0, 0, 0]	n/a	catFR1	3	R1383J
1161.249	0.95	1172465	WORD_OFF	n/a	n/a	STOVE	Appliances	3	11	[0, 0, 0]	n/a	catFR1	3	R1383J
1162.199	1.6	1173413	WORD	n/a	wordpools/wordpool_categorized_EN.txt	DISHWASHER	Appliances	4	11	[0, 0, 0]	n/a	catFR1	3	R1383J
1163.799	0.833	1175014	WORD_OFF	n/a	n/a	DISHWASHER	Appliances	4	11	[0, 0, 0]	n/a	catFR1	3	R1383J
1164.632	1.6	1175850	WORD	n/a	wordpools/wordpool_categorized_EN.txt	ONION	Vegetables	5	11	[0, 0, 0]	n/a	catFR1	3	R1383J
1166.248	0.884	1177459	WORD_OFF	n/a	n/a	ONION	Vegetables	5	11	[0, 0, 0]	n/a	catFR1	3	R1383J
1167.132	1.6	1178347	WORD	n/a	wordpools/wordpool_categorized_EN.txt	BROCCOLI	Vegetables	6	11	[0, 0, 0]	n/a	catFR1	3	R1383J
1168.732	0.833	1179948	WORD_OFF	n/a	n/a	BROCCOLI	Vegetables	6	11	[0, 0, 0]	n/a	catFR1	3	R1383J
1169.565	1.6	1180775	WORD	n/a	wordpools/wordpool_categorized_EN.txt	OVEN	Appliances	7	11	[0, 0, 0]	n/a	catFR1	3	R1383J
1171.165	0.9	1182376	WORD_OFF	n/a	n/a	OVEN	Appliances	7	11	[0, 0, 0]	n/a	catFR1	3	R1383J
1172.065	1.6	1183281	WORD	n/a	wordpools/wordpool_categorized_EN.txt	VACUUM	Appliances	8	11	[0, 0, 0]	n/a	catFR1	3	R1383J
1173.665	0.817	1184882	WORD_OFF	n/a	n/a	VACUUM	Appliances	8	11	[0, 0, 0]	n/a	catFR1	3	R1383J
1174.482	1.6	1185691	WORD	n/a	wordpools/wordpool_categorized_EN.txt	HURRICANE	Weather	9	11	[0, 0, 0]	n/a	catFR1	3	R1383J
1176.083	0.832	1187292	WORD_OFF	n/a	n/a	HURRICANE	Weather	9	11	[0, 0, 0]	n/a	catFR1	3	R1383J
1176.915	1.6	1188128	WORD	n/a	wordpools/wordpool_categorized_EN.txt	RAIN	Weather	10	11	[0, 0, 0]	n/a	catFR1	3	R1383J
1178.532	0.817	1189746	WORD_OFF	n/a	n/a	RAIN	Weather	10	11	[0, 0, 0]	n/a	catFR1	3	R1383J
1179.349	1.6	1190564	WORD	n/a	wordpools/wordpool_categorized_EN.txt	CARROT	Vegetables	11	11	[0, 0, 0]	n/a	catFR1	3	R1383J
1180.949	0.8	1192157	WORD_OFF	n/a	n/a	CARROT	Vegetables	11	11	[0, 0, 0]	n/a	catFR1	3	R1383J
1181.749	1.6	1192957	WORD	n/a	wordpools/wordpool_categorized_EN.txt	CAULIFLOWER	Vegetables	12	11	[0, 0, 0]	n/a	catFR1	3	R1383J
1183.349	0.0	1194558	WORD_OFF	n/a	n/a	CAULIFLOWER	Vegetables	12	11	[0, 0, 0]	n/a	catFR1	3	R1383J
1183.349	0.001	1194561	PROB	7.566	n/a	n/a	n/a	-999	11	[3, 4, 6]	13.0	catFR1	3	R1383J
1183.35	0.0	1194562	START	n/a	n/a	n/a	n/a	-999	11	[-999, -999, -999]	n/a	catFR1	3	R1383J
1183.35	0.0	1194567	ENCODING_END	n/a	n/a	n/a	n/a	-999	11	[0, 0, 0]	n/a	catFR1	3	R1383J
1183.35	7.583	1194567	DISTRACT_START	n/a	n/a	n/a	n/a	-999	11	[0, 0, 0]	n/a	catFR1	3	R1383J
1190.933	5.082	1202144	PROB	5.065	n/a	n/a	n/a	-999	11	[8, 4, 1]	13.0	catFR1	3	R1383J
1196.015	5.984	1207226	PROB	5.966	n/a	n/a	n/a	-999	11	[3, 4, 6]	13.0	catFR1	3	R1383J
1201.999	4.466	1213210	PROB	4.449	n/a	n/a	n/a	-999	11	[2, 2, 1]	5.0	catFR1	3	R1383J
1206.465	0.0	1217676	STOP	n/a	n/a	n/a	n/a	-999	11	[-999, -999, -999]	n/a	catFR1	3	R1383J
1206.465	1.366	1217679	DISTRACT_END	n/a	n/a	n/a	n/a	-999	11	[0, 0, 0]	n/a	catFR1	3	R1383J
1207.831	3.016	1219045	REC_START	n/a	n/a	n/a	n/a	-999	11	[0, 0, 0]	n/a	catFR1	3	R1383J
1210.847	1.246	1222058	REC_WORD	3.016	n/a	CARROT	Vegetables	11	11	[0, 0, 0]	n/a	catFR1	3	R1383J
1212.093	1.054	1223304	REC_WORD	4.262	n/a	BROCCOLI	Vegetables	6	11	[0, 0, 0]	n/a	catFR1	3	R1383J
1213.147	24.924	1224357	REC_WORD	5.316	n/a	CAULIFLOWER	Vegetables	12	11	[0, 0, 0]	n/a	catFR1	3	R1383J
1238.071	2.811	1249284	REC_END	n/a	n/a	n/a	n/a	-999	11	[0, 0, 0]	n/a	catFR1	3	R1383J
1240.882	10.0	1252094	COUNTDOWN_START	n/a	n/a	n/a	n/a	-999	12	[0, 0, 0]	n/a	catFR1	3	R1383J
1251.241	0.001	1262449	COUNTDOWN_END	n/a	n/a	n/a	n/a	-999	12	[0, 0, 0]	n/a	catFR1	3	R1383J
1251.242	1.973	1262449	ENCODING_START	n/a	n/a	n/a	n/a	-999	12	[0, 0, 0]	n/a	catFR1	3	R1383J
1253.215	1.6	1264425	WORD	n/a	wordpools/wordpool_categorized_EN.txt	JEEP	Vehicles	1	12	[0, 0, 0]	n/a	catFR1	3	R1383J
1254.815	0.817	1266026	WORD_OFF	n/a	n/a	JEEP	Vehicles	1	12	[0, 0, 0]	n/a	catFR1	3	R1383J
1255.632	1.6	1266844	WORD	n/a	wordpools/wordpool_categorized_EN.txt	SCOOTER	Vehicles	2	12	[0, 0, 0]	n/a	catFR1	3	R1383J
1257.232	0.767	1268445	WORD_OFF	n/a	n/a	SCOOTER	Vehicles	2	12	[0, 0, 0]	n/a	catFR1	3	R1383J
1257.999	1.6	1269211	WORD	n/a	wordpools/wordpool_categorized_EN.txt	LETTUCE	Vegetables	3	12	[0, 0, 0]	n/a	catFR1	3	R1383J
1259.599	0.983	1270812	WORD_OFF	n/a	n/a	LETTUCE	Vegetables	3	12	[0, 0, 0]	n/a	catFR1	3	R1383J
1260.582	1.6	1271795	WORD	n/a	wordpools/wordpool_categorized_EN.txt	CELERY	Vegetables	4	12	[0, 0, 0]	n/a	catFR1	3	R1383J
1262.182	0.833	1273387	WORD_OFF	n/a	n/a	CELERY	Vegetables	4	12	[0, 0, 0]	n/a	catFR1	3	R1383J
1263.015	1.6	1274223	WORD	n/a	wordpools/wordpool_categorized_EN.txt	MIXER	Appliances	5	12	[0, 0, 0]	n/a	catFR1	3	R1383J
1264.632	1.0	1275841	WORD_OFF	n/a	n/a	MIXER	Appliances	5	12	[0, 0, 0]	n/a	catFR1	3	R1383J
1265.632	1.6	1276842	WORD	n/a	wordpools/wordpool_categorized_EN.txt	FREEZER	Appliances	6	12	[0, 0, 0]	n/a	catFR1	3	R1383J
1267.232	0.783	1278443	WORD_OFF	n/a	n/a	FREEZER	Appliances	6	12	[0, 0, 0]	n/a	catFR1	3	R1383J
1268.015	1.6	1279226	WORD	n/a	wordpools/wordpool_categorized_EN.txt	CAR	Vehicles	7	12	[0, 0, 0]	n/a	catFR1	3	R1383J
1269.632	0.85	1280845	WORD_OFF	n/a	n/a	CAR	Vehicles	7	12	[0, 0, 0]	n/a	catFR1	3	R1383J
1270.482	1.6	1281689	WORD	n/a	wordpools/wordpool_categorized_EN.txt	BOAT	Vehicles	8	12	[0, 0, 0]	n/a	catFR1	3	R1383J
1272.082	0.8	1283290	WORD_OFF	n/a	n/a	BOAT	Vehicles	8	12	[0, 0, 0]	n/a	catFR1	3	R1383J
1272.882	1.6	1284091	WORD	n/a	wordpools/wordpool_categorized_EN.txt	CUCUMBER	Vegetables	9	12	[0, 0, 0]	n/a	catFR1	3	R1383J
1274.482	0.983	1285692	WORD_OFF	n/a	n/a	CUCUMBER	Vegetables	9	12	[0, 0, 0]	n/a	catFR1	3	R1383J
1275.465	1.6	1286675	WORD	n/a	wordpools/wordpool_categorized_EN.txt	SPINACH	Vegetables	10	12	[0, 0, 0]	n/a	catFR1	3	R1383J
1277.065	0.983	1288276	WORD_OFF	n/a	n/a	SPINACH	Vegetables	10	12	[0, 0, 0]	n/a	catFR1	3	R1383J
1278.048	1.6	1289259	WORD	n/a	wordpools/wordpool_categorized_EN.txt	REFRIGERATOR	Appliances	11	12	[0, 0, 0]	n/a	catFR1	3	R1383J
1279.649	0.966	1290861	WORD_OFF	n/a	n/a	REFRIGERATOR	Appliances	11	12	[0, 0, 0]	n/a	catFR1	3	R1383J
1280.615	1.6	1291826	WORD	n/a	wordpools/wordpool_categorized_EN.txt	WASHER	Appliances	12	12	[0, 0, 0]	n/a	catFR1	3	R1383J
1282.231	0.001	1293436	WORD_OFF	n/a	n/a	WASHER	Appliances	12	12	[0, 0, 0]	n/a	catFR1	3	R1383J
1282.232	0.001	1293440	PROB	5.767	n/a	n/a	n/a	-999	12	[2, 5, 3]	10.0	catFR1	3	R1383J
1282.233	0.0	1293441	START	n/a	n/a	n/a	n/a	-999	12	[-999, -999, -999]	n/a	catFR1	3	R1383J
1282.233	0.0	1293445	ENCODING_END	n/a	n/a	n/a	n/a	-999	12	[0, 0, 0]	n/a	catFR1	3	R1383J
1282.233	5.782	1293445	DISTRACT_START	n/a	n/a	n/a	n/a	-999	12	[0, 0, 0]	n/a	catFR1	3	R1383J
1288.015	5.101	1299222	PROB	5.083	n/a	n/a	n/a	-999	12	[1, 3, 5]	9.0	catFR1	3	R1383J
1293.116	8.715	1304323	PROB	8.699	n/a	n/a	n/a	-999	12	[5, 5, 7]	17.0	catFR1	3	R1383J
1301.831	6.8	1313038	PROB	6.783	n/a	n/a	n/a	-999	12	[8, 8, 2]	18.0	catFR1	3	R1383J
1308.631	0.0	1319837	DISTRACT_END	n/a	n/a	n/a	n/a	-999	12	[0, 0, 0]	n/a	catFR1	3	R1383J
1308.631	1.15	1319838	STOP	n/a	n/a	n/a	n/a	-999	12	[-999, -999, -999]	n/a	catFR1	3	R1383J
1309.781	4.552	1320986	REC_START	n/a	n/a	n/a	n/a	-999	12	[0, 0, 0]	n/a	catFR1	3	R1383J
1314.333	1.842	1325539	REC_WORD	4.552	n/a	SCOOTER	Vehicles	2	12	[0, 0, 0]	n/a	catFR1	3	R1383J
1316.175	2.236	1327381	REC_WORD	6.394	n/a	JEEP	Vehicles	1	12	[0, 0, 0]	n/a	catFR1	3	R1383J
1318.411	5.698	1329617	REC_WORD	8.63	n/a	CAR	Vehicles	7	12	[0, 0, 0]	n/a	catFR1	3	R1383J
1324.109	2.378	1335315	REC_WORD	14.328	n/a	LETTUCE	Vegetables	3	12	[0, 0, 0]	n/a	catFR1	3	R1383J
1326.487	13.535	1337693	REC_WORD	16.706	n/a	SPINACH	Vegetables	10	12	[0, 0, 0]	n/a	catFR1	3	R1383J
1340.022	0.0	1351225	REC_END	n/a	n/a	n/a	n/a	-999	12	[0, 0, 0]	n/a	catFR1	3	R1383J
