onset	duration	sample	trial_type	response_time	stim_file	item_name	category	serialpos	list	test	answer	experiment	session	subject
0.0	4.582	448631	INSTRUCT_START	n/a	n/a	n/a	n/a	-999	-999	[0, 0, 0]	n/a	catFR1	2	R1527J
4.582	63.433	453215	INSTRUCT_END	n/a	n/a	n/a	n/a	-999	-999	[0, 0, 0]	n/a	catFR1	2	R1527J
68.015	10.352	516648	COUNTDOWN_START	n/a	n/a	n/a	n/a	-999	-999	[0, 0, 0]	n/a	catFR1	2	R1527J
78.367	0.0	526990	COUNTDOWN_END	n/a	n/a	n/a	n/a	-999	-999	[0, 0, 0]	n/a	catFR1	2	R1527J
78.367	2.214	526990	ENCODING_START	n/a	n/a	n/a	n/a	-999	-1	[0, 0, 0]	n/a	catFR1	2	R1527J
80.581	1.601	529204	WORD	n/a	n/a	BEER	Beverages	1	-1	[0, 0, 0]	n/a	catFR1	2	R1527J
82.182	0.848	530802	WORD_OFF	n/a	n/a	BEER	Beverages	1	-1	[0, 0, 0]	n/a	catFR1	2	R1527J
83.03	1.603	531656	WORD	n/a	n/a	WINE	Beverages	2	-1	[0, 0, 0]	n/a	catFR1	2	R1527J
84.633	0.997	533254	WORD_OFF	n/a	n/a	WINE	Beverages	2	-1	[0, 0, 0]	n/a	catFR1	2	R1527J
85.63	1.602	534256	WORD	n/a	n/a	COAT	Clothing	3	-1	[0, 0, 0]	n/a	catFR1	2	R1527J
87.232	0.866	535854	WORD_OFF	n/a	n/a	COAT	Clothing	3	-1	[0, 0, 0]	n/a	catFR1	2	R1527J
88.098	1.6	536726	WORD	n/a	n/a	JACKET	Clothing	4	-1	[0, 0, 0]	n/a	catFR1	2	R1527J
89.698	0.917	538325	WORD_OFF	n/a	n/a	JACKET	Clothing	4	-1	[0, 0, 0]	n/a	catFR1	2	R1527J
90.615	1.617	539243	WORD	n/a	n/a	DESK	Furniture	5	-1	[0, 0, 0]	n/a	catFR1	2	R1527J
92.232	0.95	540860	WORD_OFF	n/a	n/a	DESK	Furniture	5	-1	[0, 0, 0]	n/a	catFR1	2	R1527J
93.182	1.6	541815	WORD	n/a	n/a	CABINET	Furniture	6	-1	[0, 0, 0]	n/a	catFR1	2	R1527J
94.782	0.832	543404	WORD_OFF	n/a	n/a	CABINET	Furniture	6	-1	[0, 0, 0]	n/a	catFR1	2	R1527J
95.614	1.617	544240	WORD	n/a	n/a	SKIRT	Clothing	7	-1	[0, 0, 0]	n/a	catFR1	2	R1527J
97.231	0.851	545856	WORD_OFF	n/a	n/a	SKIRT	Clothing	7	-1	[0, 0, 0]	n/a	catFR1	2	R1527J
98.082	1.616	546701	WORD	n/a	n/a	PANTS	Clothing	8	-1	[0, 0, 0]	n/a	catFR1	2	R1527J
99.698	0.767	548327	WORD_OFF	n/a	n/a	PANTS	Clothing	8	-1	[0, 0, 0]	n/a	catFR1	2	R1527J
100.465	1.6	549090	WORD	n/a	n/a	SOFA	Furniture	9	-1	[0, 0, 0]	n/a	catFR1	2	R1527J
102.065	0.8	550688	WORD_OFF	n/a	n/a	SOFA	Furniture	9	-1	[0, 0, 0]	n/a	catFR1	2	R1527J
102.865	1.601	551487	WORD	n/a	n/a	SHELF	Furniture	10	-1	[0, 0, 0]	n/a	catFR1	2	R1527J
104.466	0.882	553085	WORD_OFF	n/a	n/a	SHELF	Furniture	10	-1	[0, 0, 0]	n/a	catFR1	2	R1527J
105.348	1.6	553976	WORD	n/a	n/a	CIDER	Beverages	11	-1	[0, 0, 0]	n/a	catFR1	2	R1527J
106.948	0.917	555574	WORD_OFF	n/a	n/a	CIDER	Beverages	11	-1	[0, 0, 0]	n/a	catFR1	2	R1527J
107.865	1.617	556493	WORD	n/a	n/a	TEA	Beverages	12	-1	[0, 0, 0]	n/a	catFR1	2	R1527J
109.482	0.001	558103	START	n/a	n/a	n/a	n/a	-999	-1	[-999, -999, -999]	n/a	catFR1	2	R1527J
109.483	0.0	558104	PROB	2.516	n/a	n/a	n/a	-999	-1	[1, 1, 7]	9.0	catFR1	2	R1527J
109.481	0.001	558109	WORD_OFF	n/a	n/a	TEA	Beverages	12	-1	[0, 0, 0]	n/a	catFR1	2	R1527J
109.482	0.0	558109	ENCODING_END	n/a	n/a	n/a	n/a	-999	-1	[0, 0, 0]	n/a	catFR1	2	R1527J
109.482	2.533	558109	DISTRACT_START	n/a	n/a	n/a	n/a	-999	-1	[0, 0, 0]	n/a	catFR1	2	R1527J
112.015	3.616	560636	PROB	3.599	n/a	n/a	n/a	-999	-1	[5, 1, 6]	12.0	catFR1	2	R1527J
115.631	2.784	564252	PROB	2.766	n/a	n/a	n/a	-999	-1	[3, 1, 2]	6.0	catFR1	2	R1527J
118.415	3.149	567036	PROB	3.133	n/a	n/a	n/a	-999	-1	[5, 7, 2]	14.0	catFR1	2	R1527J
121.564	2.867	570185	PROB	2.851	n/a	n/a	n/a	-999	-1	[8, 8, 1]	17.0	catFR1	2	R1527J
124.431	3.768	573051	PROB	3.75	n/a	n/a	n/a	-999	-1	[4, 3, 7]	14.0	catFR1	2	R1527J
128.199	2.566	576819	PROB	2.549	n/a	n/a	n/a	-999	-1	[7, 3, 1]	11.0	catFR1	2	R1527J
130.765	0.0	579385	STOP	n/a	n/a	n/a	n/a	-999	-1	[-999, -999, -999]	n/a	catFR1	2	R1527J
130.765	1.833	579391	DISTRACT_END	n/a	n/a	n/a	n/a	-999	-1	[0, 0, 0]	n/a	catFR1	2	R1527J
132.598	1.066	581219	REC_START	n/a	n/a	n/a	n/a	-999	-1	[0, 0, 0]	n/a	catFR1	2	R1527J
133.664	0.955	582284	REC_WORD	1.066	n/a	BEER	Beverages	1	-1	[0, 0, 0]	n/a	catFR1	2	R1527J
134.619	1.306	583239	REC_WORD	2.021	n/a	WINE	Beverages	2	-1	[0, 0, 0]	n/a	catFR1	2	R1527J
135.925	1.0	584545	REC_WORD	3.327	n/a	COAT	Clothing	3	-1	[0, 0, 0]	n/a	catFR1	2	R1527J
136.925	0.99	585545	REC_WORD	4.327	n/a	JACKET	Clothing	4	-1	[0, 0, 0]	n/a	catFR1	2	R1527J
137.915	1.305	586535	REC_WORD	5.317	n/a	SKIRT	Clothing	7	-1	[0, 0, 0]	n/a	catFR1	2	R1527J
139.22	1.559	587840	REC_WORD	6.622	n/a	SHELF	Furniture	10	-1	[0, 0, 0]	n/a	catFR1	2	R1527J
140.779	6.047	589399	REC_WORD	8.181	n/a	CIDER	Beverages	11	-1	[0, 0, 0]	n/a	catFR1	2	R1527J
146.826	1.065	595445	REC_WORD	14.228	n/a	TEA	Beverages	12	-1	[0, 0, 0]	n/a	catFR1	2	R1527J
147.891	9.107	596510	REC_WORD_VV	15.293	n/a	<>	n/a	-999	-1	[0, 0, 0]	n/a	catFR1	2	R1527J
156.998	5.788	605617	REC_WORD	24.4	n/a	PANTS	Clothing	8	-1	[0, 0, 0]	n/a	catFR1	2	R1527J
162.786	12.312	611402	REC_END	n/a	n/a	n/a	n/a	-999	-1	[0, 0, 0]	n/a	catFR1	2	R1527J
175.098	10.35	623719	COUNTDOWN_START	n/a	n/a	n/a	n/a	-999	1	[0, 0, 0]	n/a	catFR1	2	R1527J
185.448	0.0	634071	COUNTDOWN_END	n/a	n/a	n/a	n/a	-999	1	[0, 0, 0]	n/a	catFR1	2	R1527J
185.448	2.117	634071	ENCODING_START	n/a	n/a	n/a	n/a	-999	1	[0, 0, 0]	n/a	catFR1	2	R1527J
187.565	1.617	636183	WORD	n/a	wordpools/wordpool_categorized_EN.txt	DOLL	Toys	1	1	[0, 0, 0]	n/a	catFR1	2	R1527J
189.182	0.899	637800	WORD_OFF	n/a	n/a	DOLL	Toys	1	1	[0, 0, 0]	n/a	catFR1	2	R1527J
190.081	1.616	638700	WORD	n/a	wordpools/wordpool_categorized_EN.txt	PUZZLE	Toys	2	1	[0, 0, 0]	n/a	catFR1	2	R1527J
191.697	1.001	640317	WORD_OFF	n/a	n/a	PUZZLE	Toys	2	1	[0, 0, 0]	n/a	catFR1	2	R1527J
192.698	1.6	641318	WORD	n/a	wordpools/wordpool_categorized_EN.txt	KNEE	BodyParts	3	1	[0, 0, 0]	n/a	catFR1	2	R1527J
194.298	0.883	642916	WORD_OFF	n/a	n/a	KNEE	BodyParts	3	1	[0, 0, 0]	n/a	catFR1	2	R1527J
195.181	1.601	643798	WORD	n/a	wordpools/wordpool_categorized_EN.txt	EYE	BodyParts	4	1	[0, 0, 0]	n/a	catFR1	2	R1527J
196.782	0.865	645396	WORD_OFF	n/a	n/a	EYE	BodyParts	4	1	[0, 0, 0]	n/a	catFR1	2	R1527J
197.647	1.601	646269	WORD	n/a	wordpools/wordpool_categorized_EN.txt	UNDERWEAR	Clothing	5	1	[0, 0, 0]	n/a	catFR1	2	R1527J
199.248	0.983	647867	WORD_OFF	n/a	n/a	UNDERWEAR	Clothing	5	1	[0, 0, 0]	n/a	catFR1	2	R1527J
200.231	1.617	648850	WORD	n/a	wordpools/wordpool_categorized_EN.txt	SHOES	Clothing	6	1	[0, 0, 0]	n/a	catFR1	2	R1527J
201.848	0.817	650466	WORD_OFF	n/a	n/a	SHOES	Clothing	6	1	[0, 0, 0]	n/a	catFR1	2	R1527J
202.665	1.601	651284	WORD	n/a	wordpools/wordpool_categorized_EN.txt	BLOCKS	Toys	7	1	[0, 0, 0]	n/a	catFR1	2	R1527J
204.266	0.9	652882	WORD_OFF	n/a	n/a	BLOCKS	Toys	7	1	[0, 0, 0]	n/a	catFR1	2	R1527J
205.166	1.616	653782	WORD	n/a	wordpools/wordpool_categorized_EN.txt	MARBLES	Toys	8	1	[0, 0, 0]	n/a	catFR1	2	R1527J
206.782	0.949	655399	WORD_OFF	n/a	n/a	MARBLES	Toys	8	1	[0, 0, 0]	n/a	catFR1	2	R1527J
207.731	1.617	656354	WORD	n/a	wordpools/wordpool_categorized_EN.txt	SHORTS	Clothing	9	1	[0, 0, 0]	n/a	catFR1	2	R1527J
209.348	0.901	657962	WORD_OFF	n/a	n/a	SHORTS	Clothing	9	1	[0, 0, 0]	n/a	catFR1	2	R1527J
210.249	1.615	658871	WORD	n/a	wordpools/wordpool_categorized_EN.txt	SHIRT	Clothing	10	1	[0, 0, 0]	n/a	catFR1	2	R1527J
211.864	0.866	660478	WORD_OFF	n/a	n/a	SHIRT	Clothing	10	1	[0, 0, 0]	n/a	catFR1	2	R1527J
212.73	1.602	661351	WORD	n/a	wordpools/wordpool_categorized_EN.txt	ELBOW	BodyParts	11	1	[0, 0, 0]	n/a	catFR1	2	R1527J
214.332	0.849	662949	WORD_OFF	n/a	n/a	ELBOW	BodyParts	11	1	[0, 0, 0]	n/a	catFR1	2	R1527J
215.181	1.601	663803	WORD	n/a	wordpools/wordpool_categorized_EN.txt	HAND	BodyParts	12	1	[0, 0, 0]	n/a	catFR1	2	R1527J
216.782	0.0	665398	START	n/a	n/a	n/a	n/a	-999	1	[-999, -999, -999]	n/a	catFR1	2	R1527J
216.782	0.0	665398	PROB	3.599	n/a	n/a	n/a	-999	1	[4, 2, 6]	12.0	catFR1	2	R1527J
216.781	0.001	665401	WORD_OFF	n/a	n/a	HAND	BodyParts	12	1	[0, 0, 0]	n/a	catFR1	2	R1527J
216.782	0.0	665401	ENCODING_END	n/a	n/a	n/a	n/a	-999	1	[0, 0, 0]	n/a	catFR1	2	R1527J
216.782	3.617	665401	DISTRACT_START	n/a	n/a	n/a	n/a	-999	1	[0, 0, 0]	n/a	catFR1	2	R1527J
220.399	2.35	669014	PROB	2.332	n/a	n/a	n/a	-999	1	[1, 1, 4]	6.0	catFR1	2	R1527J
222.749	3.433	671364	PROB	3.415	n/a	n/a	n/a	-999	1	[2, 8, 3]	13.0	catFR1	2	R1527J
226.182	2.917	674797	PROB	2.899	n/a	n/a	n/a	-999	1	[7, 3, 8]	18.0	catFR1	2	R1527J
229.099	2.566	677714	PROB	2.549	n/a	n/a	n/a	-999	1	[1, 4, 4]	9.0	catFR1	2	R1527J
231.665	4.384	680280	PROB	4.366	n/a	n/a	n/a	-999	1	[5, 1, 7]	13.0	catFR1	2	R1527J
236.049	8.349	684663	PROB	8.333	n/a	n/a	n/a	-999	1	[7, 5, 7]	19.0	catFR1	2	R1527J
244.398	0.0	693012	DISTRACT_END	n/a	n/a	n/a	n/a	-999	1	[0, 0, 0]	n/a	catFR1	2	R1527J
244.398	1.767	693012	STOP	n/a	n/a	n/a	n/a	-999	1	[-999, -999, -999]	n/a	catFR1	2	R1527J
246.165	0.753	694785	REC_START	n/a	n/a	n/a	n/a	-999	1	[0, 0, 0]	n/a	catFR1	2	R1527J
246.918	1.157	695532	REC_WORD	0.753	n/a	DOLL	Toys	1	1	[0, 0, 0]	n/a	catFR1	2	R1527J
248.075	1.396	696689	REC_WORD	1.91	n/a	PUZZLE	Toys	2	1	[0, 0, 0]	n/a	catFR1	2	R1527J
249.471	1.506	698085	REC_WORD	3.306	n/a	KNEE	BodyParts	3	1	[0, 0, 0]	n/a	catFR1	2	R1527J
250.977	1.552	699591	REC_WORD	4.812	n/a	ELBOW	BodyParts	11	1	[0, 0, 0]	n/a	catFR1	2	R1527J
252.529	1.594	701143	REC_WORD	6.364	n/a	UNDERWEAR	Clothing	5	1	[0, 0, 0]	n/a	catFR1	2	R1527J
254.123	2.42	702737	REC_WORD	7.958	n/a	EYE	BodyParts	4	1	[0, 0, 0]	n/a	catFR1	2	R1527J
256.543	2.774	705156	REC_WORD	10.378	n/a	HAND	BodyParts	12	1	[0, 0, 0]	n/a	catFR1	2	R1527J
259.317	17.046	707930	REC_WORD	13.152	n/a	SHIRT	Clothing	10	1	[0, 0, 0]	n/a	catFR1	2	R1527J
276.363	1.754	724977	REC_END	n/a	n/a	n/a	n/a	-999	1	[0, 0, 0]	n/a	catFR1	2	R1527J
278.117	10.349	726731	COUNTDOWN_START	n/a	n/a	n/a	n/a	-999	2	[0, 0, 0]	n/a	catFR1	2	R1527J
288.466	0.0	737083	COUNTDOWN_END	n/a	n/a	n/a	n/a	-999	2	[0, 0, 0]	n/a	catFR1	2	R1527J
288.466	2.167	737083	ENCODING_START	n/a	n/a	n/a	n/a	-999	2	[0, 0, 0]	n/a	catFR1	2	R1527J
290.633	1.617	739250	WORD	n/a	wordpools/wordpool_categorized_EN.txt	APPLE	Fruit	1	2	[0, 0, 0]	n/a	catFR1	2	R1527J
292.25	1.0	740867	WORD_OFF	n/a	n/a	APPLE	Fruit	1	2	[0, 0, 0]	n/a	catFR1	2	R1527J
293.25	1.616	741868	WORD	n/a	wordpools/wordpool_categorized_EN.txt	STRAWBERRY	Fruit	2	2	[0, 0, 0]	n/a	catFR1	2	R1527J
294.866	0.817	743476	WORD_OFF	n/a	n/a	STRAWBERRY	Fruit	2	2	[0, 0, 0]	n/a	catFR1	2	R1527J
295.683	1.614	744293	WORD	n/a	wordpools/wordpool_categorized_EN.txt	HALLWAY	Building	3	2	[0, 0, 0]	n/a	catFR1	2	R1527J
297.297	0.82	745910	WORD_OFF	n/a	n/a	HALLWAY	Building	3	2	[0, 0, 0]	n/a	catFR1	2	R1527J
298.117	1.616	746727	WORD	n/a	wordpools/wordpool_categorized_EN.txt	BATHROOM	Building	4	2	[0, 0, 0]	n/a	catFR1	2	R1527J
299.733	0.917	748344	WORD_OFF	n/a	n/a	BATHROOM	Building	4	2	[0, 0, 0]	n/a	catFR1	2	R1527J
300.65	1.615	749262	WORD	n/a	wordpools/wordpool_categorized_EN.txt	LEMONADE	Beverages	5	2	[0, 0, 0]	n/a	catFR1	2	R1527J
302.265	0.918	750879	WORD_OFF	n/a	n/a	LEMONADE	Beverages	5	2	[0, 0, 0]	n/a	catFR1	2	R1527J
303.183	1.6	751797	WORD	n/a	wordpools/wordpool_categorized_EN.txt	COLA	Beverages	6	2	[0, 0, 0]	n/a	catFR1	2	R1527J
304.783	0.817	753396	WORD_OFF	n/a	n/a	COLA	Beverages	6	2	[0, 0, 0]	n/a	catFR1	2	R1527J
305.6	1.6	754213	WORD	n/a	wordpools/wordpool_categorized_EN.txt	CHERRY	Fruit	7	2	[0, 0, 0]	n/a	catFR1	2	R1527J
307.2	0.916	755811	WORD_OFF	n/a	n/a	CHERRY	Fruit	7	2	[0, 0, 0]	n/a	catFR1	2	R1527J
308.116	1.601	756730	WORD	n/a	wordpools/wordpool_categorized_EN.txt	BANANA	Fruit	8	2	[0, 0, 0]	n/a	catFR1	2	R1527J
309.717	0.983	758328	WORD_OFF	n/a	n/a	BANANA	Fruit	8	2	[0, 0, 0]	n/a	catFR1	2	R1527J
310.7	1.615	759311	WORD	n/a	wordpools/wordpool_categorized_EN.txt	SODA	Beverages	9	2	[0, 0, 0]	n/a	catFR1	2	R1527J
312.315	0.885	760927	WORD_OFF	n/a	n/a	SODA	Beverages	9	2	[0, 0, 0]	n/a	catFR1	2	R1527J
313.2	1.6	761818	WORD	n/a	wordpools/wordpool_categorized_EN.txt	JUICE	Beverages	10	2	[0, 0, 0]	n/a	catFR1	2	R1527J
314.8	1.0	763417	WORD_OFF	n/a	n/a	JUICE	Beverages	10	2	[0, 0, 0]	n/a	catFR1	2	R1527J
315.8	1.614	764409	WORD	n/a	wordpools/wordpool_categorized_EN.txt	FOUNDATION	Building	11	2	[0, 0, 0]	n/a	catFR1	2	R1527J
317.414	0.886	766025	WORD_OFF	n/a	n/a	FOUNDATION	Building	11	2	[0, 0, 0]	n/a	catFR1	2	R1527J
318.3	1.6	766916	WORD	n/a	wordpools/wordpool_categorized_EN.txt	ATTIC	Building	12	2	[0, 0, 0]	n/a	catFR1	2	R1527J
319.9	0.001	768510	PROB	3.233	n/a	n/a	n/a	-999	2	[2, 7, 7]	16.0	catFR1	2	R1527J
319.901	0.0	768511	START	n/a	n/a	n/a	n/a	-999	2	[-999, -999, -999]	n/a	catFR1	2	R1527J
319.9	0.001	768514	WORD_OFF	n/a	n/a	ATTIC	Building	12	2	[0, 0, 0]	n/a	catFR1	2	R1527J
319.901	0.0	768514	ENCODING_END	n/a	n/a	n/a	n/a	-999	2	[0, 0, 0]	n/a	catFR1	2	R1527J
319.901	3.248	768514	DISTRACT_START	n/a	n/a	n/a	n/a	-999	2	[0, 0, 0]	n/a	catFR1	2	R1527J
323.149	4.0	771759	PROB	3.984	n/a	n/a	n/a	-999	2	[4, 8, 8]	20.0	catFR1	2	R1527J
327.149	3.585	775759	PROB	3.566	n/a	n/a	n/a	-999	2	[4, 6, 8]	18.0	catFR1	2	R1527J
330.734	9.632	779343	PROB	9.615	n/a	n/a	n/a	-999	2	[6, 7, 6]	22.0	catFR1	2	R1527J
340.366	0.0	788975	STOP	n/a	n/a	n/a	n/a	-999	2	[-999, -999, -999]	n/a	catFR1	2	R1527J
340.366	1.832	788979	DISTRACT_END	n/a	n/a	n/a	n/a	-999	2	[0, 0, 0]	n/a	catFR1	2	R1527J
342.198	1.081	790807	REC_START	n/a	n/a	n/a	n/a	-999	2	[0, 0, 0]	n/a	catFR1	2	R1527J
343.279	2.064	791888	REC_WORD_VV	1.081	n/a	<>	n/a	-999	2	[0, 0, 0]	n/a	catFR1	2	R1527J
345.343	1.249	793952	REC_WORD	3.145	n/a	CHERRY	Fruit	7	2	[0, 0, 0]	n/a	catFR1	2	R1527J
346.592	1.257	795201	REC_WORD	4.394	n/a	COLA	Beverages	6	2	[0, 0, 0]	n/a	catFR1	2	R1527J
347.849	2.147	796458	REC_WORD	5.651	n/a	SODA	Beverages	9	2	[0, 0, 0]	n/a	catFR1	2	R1527J
349.996	0.656	798604	REC_WORD	7.798	n/a	BATHROOM	Building	4	2	[0, 0, 0]	n/a	catFR1	2	R1527J
350.652	0.961	799260	REC_WORD	8.454	n/a	HALLWAY	Building	3	2	[0, 0, 0]	n/a	catFR1	2	R1527J
351.613	1.605	800221	REC_WORD	9.415	n/a	STRAWBERRY	Fruit	2	2	[0, 0, 0]	n/a	catFR1	2	R1527J
353.218	1.631	801826	REC_WORD	11.02	n/a	BANANA	Fruit	8	2	[0, 0, 0]	n/a	catFR1	2	R1527J
354.849	17.554	803457	REC_WORD	12.651	n/a	JUICE	Beverages	10	2	[0, 0, 0]	n/a	catFR1	2	R1527J
372.403	1.547	821017	REC_END	n/a	n/a	n/a	n/a	-999	2	[0, 0, 0]	n/a	catFR1	2	R1527J
373.95	10.349	822560	COUNTDOWN_START	n/a	n/a	n/a	n/a	-999	3	[0, 0, 0]	n/a	catFR1	2	R1527J
384.299	0.0	832912	COUNTDOWN_END	n/a	n/a	n/a	n/a	-999	3	[0, 0, 0]	n/a	catFR1	2	R1527J
384.299	2.066	832912	ENCODING_START	n/a	n/a	n/a	n/a	-999	3	[0, 0, 0]	n/a	catFR1	2	R1527J
386.365	1.601	834978	WORD	n/a	wordpools/wordpool_categorized_EN.txt	PLANE	Vehicles	1	3	[0, 0, 0]	n/a	catFR1	2	R1527J
387.966	1.0	836577	WORD_OFF	n/a	n/a	PLANE	Vehicles	1	3	[0, 0, 0]	n/a	catFR1	2	R1527J
388.966	1.6	837578	WORD	n/a	wordpools/wordpool_categorized_EN.txt	BOAT	Vehicles	2	3	[0, 0, 0]	n/a	catFR1	2	R1527J
390.566	0.85	839176	WORD_OFF	n/a	n/a	BOAT	Vehicles	2	3	[0, 0, 0]	n/a	catFR1	2	R1527J
391.416	1.6	840021	WORD	n/a	wordpools/wordpool_categorized_EN.txt	BASKETBALL	Toys	3	3	[0, 0, 0]	n/a	catFR1	2	R1527J
393.016	0.899	841628	WORD_OFF	n/a	n/a	BASKETBALL	Toys	3	3	[0, 0, 0]	n/a	catFR1	2	R1527J
393.915	1.602	842519	WORD	n/a	wordpools/wordpool_categorized_EN.txt	DOLLHOUSE	Toys	4	3	[0, 0, 0]	n/a	catFR1	2	R1527J
395.517	0.816	844127	WORD_OFF	n/a	n/a	DOLLHOUSE	Toys	4	3	[0, 0, 0]	n/a	catFR1	2	R1527J
396.333	1.6	844944	WORD	n/a	wordpools/wordpool_categorized_EN.txt	MICROWAVE	Electronics	5	3	[0, 0, 0]	n/a	catFR1	2	R1527J
397.933	0.867	846542	WORD_OFF	n/a	n/a	MICROWAVE	Electronics	5	3	[0, 0, 0]	n/a	catFR1	2	R1527J
398.8	1.617	847406	WORD	n/a	wordpools/wordpool_categorized_EN.txt	TABLET	Electronics	6	3	[0, 0, 0]	n/a	catFR1	2	R1527J
400.417	0.797	849022	WORD_OFF	n/a	n/a	TABLET	Electronics	6	3	[0, 0, 0]	n/a	catFR1	2	R1527J
401.214	1.603	849822	WORD	n/a	wordpools/wordpool_categorized_EN.txt	BUS	Vehicles	7	3	[0, 0, 0]	n/a	catFR1	2	R1527J
402.817	0.816	851429	WORD_OFF	n/a	n/a	BUS	Vehicles	7	3	[0, 0, 0]	n/a	catFR1	2	R1527J
403.633	1.6	852237	WORD	n/a	wordpools/wordpool_categorized_EN.txt	CAR	Vehicles	8	3	[0, 0, 0]	n/a	catFR1	2	R1527J
405.233	0.767	853845	WORD_OFF	n/a	n/a	CAR	Vehicles	8	3	[0, 0, 0]	n/a	catFR1	2	R1527J
406.0	1.617	854607	WORD	n/a	wordpools/wordpool_categorized_EN.txt	BALL	Toys	9	3	[0, 0, 0]	n/a	catFR1	2	R1527J
407.617	0.849	856224	WORD_OFF	n/a	n/a	BALL	Toys	9	3	[0, 0, 0]	n/a	catFR1	2	R1527J
408.466	1.617	857078	WORD	n/a	wordpools/wordpool_categorized_EN.txt	BASEBALL	Toys	10	3	[0, 0, 0]	n/a	catFR1	2	R1527J
410.083	0.817	858694	WORD_OFF	n/a	n/a	BASEBALL	Toys	10	3	[0, 0, 0]	n/a	catFR1	2	R1527J
410.9	1.6	859503	WORD	n/a	wordpools/wordpool_categorized_EN.txt	CALCULATOR	Electronics	11	3	[0, 0, 0]	n/a	catFR1	2	R1527J
412.5	0.783	861110	WORD_OFF	n/a	n/a	CALCULATOR	Electronics	11	3	[0, 0, 0]	n/a	catFR1	2	R1527J
413.283	1.6	861891	WORD	n/a	wordpools/wordpool_categorized_EN.txt	RADIO	Electronics	12	3	[0, 0, 0]	n/a	catFR1	2	R1527J
414.883	0.0	863488	PROB	2.733	n/a	n/a	n/a	-999	3	[3, 1, 7]	11.0	catFR1	2	R1527J
414.883	0.002	863489	WORD_OFF	n/a	n/a	RADIO	Electronics	12	3	[0, 0, 0]	n/a	catFR1	2	R1527J
414.885	0.0	863489	ENCODING_END	n/a	n/a	n/a	n/a	-999	3	[0, 0, 0]	n/a	catFR1	2	R1527J
414.885	0.0	863490	START	n/a	n/a	n/a	n/a	-999	3	[-999, -999, -999]	n/a	catFR1	2	R1527J
414.885	2.749	863498	DISTRACT_START	n/a	n/a	n/a	n/a	-999	3	[0, 0, 0]	n/a	catFR1	2	R1527J
417.634	2.516	866239	PROB	2.499	n/a	n/a	n/a	-999	3	[5, 2, 5]	12.0	catFR1	2	R1527J
420.15	3.25	868755	PROB	3.233	n/a	n/a	n/a	-999	3	[7, 1, 7]	15.0	catFR1	2	R1527J
423.4	2.367	872005	PROB	2.35	n/a	n/a	n/a	-999	3	[1, 3, 7]	11.0	catFR1	2	R1527J
425.767	2.783	874371	PROB	2.766	n/a	n/a	n/a	-999	3	[3, 1, 6]	10.0	catFR1	2	R1527J
428.55	2.282	877154	PROB	2.266	n/a	n/a	n/a	-999	3	[1, 3, 4]	8.0	catFR1	2	R1527J
430.832	3.534	879436	PROB	3.517	n/a	n/a	n/a	-999	3	[8, 4, 4]	16.0	catFR1	2	R1527J
434.366	3.25	882970	PROB	3.233	n/a	n/a	n/a	-999	3	[4, 2, 7]	13.0	catFR1	2	R1527J
437.616	0.0	886220	STOP	n/a	n/a	n/a	n/a	-999	3	[-999, -999, -999]	n/a	catFR1	2	R1527J
437.616	1.784	886222	DISTRACT_END	n/a	n/a	n/a	n/a	-999	3	[0, 0, 0]	n/a	catFR1	2	R1527J
439.4	1.125	888004	REC_START	n/a	n/a	n/a	n/a	-999	3	[0, 0, 0]	n/a	catFR1	2	R1527J
440.525	1.089	889129	REC_WORD	1.125	n/a	BOAT	Vehicles	2	3	[0, 0, 0]	n/a	catFR1	2	R1527J
441.614	1.403	890218	REC_WORD	2.214	n/a	PLANE	Vehicles	1	3	[0, 0, 0]	n/a	catFR1	2	R1527J
443.017	1.243	891620	REC_WORD	3.617	n/a	BASKETBALL	Toys	3	3	[0, 0, 0]	n/a	catFR1	2	R1527J
444.26	1.755	892863	REC_WORD	4.86	n/a	BALL	Toys	9	3	[0, 0, 0]	n/a	catFR1	2	R1527J
446.015	1.464	894618	REC_WORD	6.615	n/a	BASEBALL	Toys	10	3	[0, 0, 0]	n/a	catFR1	2	R1527J
447.479	1.689	896082	REC_WORD	8.079	n/a	DOLLHOUSE	Toys	4	3	[0, 0, 0]	n/a	catFR1	2	R1527J
449.168	6.302	897771	REC_WORD	9.768	n/a	MICROWAVE	Electronics	5	3	[0, 0, 0]	n/a	catFR1	2	R1527J
455.47	0.688	904073	REC_WORD	16.07	n/a	HALLWAY	Building	-999	3	[0, 0, 0]	n/a	catFR1	2	R1527J
456.158	0.935	904761	REC_WORD_VV	16.758	n/a	<>	n/a	-999	3	[0, 0, 0]	n/a	catFR1	2	R1527J
457.093	12.507	905696	REC_WORD_VV	17.693	n/a	<>	n/a	-999	3	[0, 0, 0]	n/a	catFR1	2	R1527J
469.6	1.516	918205	REC_END	n/a	n/a	n/a	n/a	-999	3	[0, 0, 0]	n/a	catFR1	2	R1527J
471.116	10.351	919721	COUNTDOWN_START	n/a	n/a	n/a	n/a	-999	4	[0, 0, 0]	n/a	catFR1	2	R1527J
481.467	0.0	930072	COUNTDOWN_END	n/a	n/a	n/a	n/a	-999	4	[0, 0, 0]	n/a	catFR1	2	R1527J
481.467	1.865	930072	ENCODING_START	n/a	n/a	n/a	n/a	-999	4	[0, 0, 0]	n/a	catFR1	2	R1527J
483.332	1.601	931937	WORD	n/a	wordpools/wordpool_categorized_EN.txt	ELM	Trees	1	4	[0, 0, 0]	n/a	catFR1	2	R1527J
484.933	1.0	933535	WORD_OFF	n/a	n/a	ELM	Trees	1	4	[0, 0, 0]	n/a	catFR1	2	R1527J
485.933	1.6	934536	WORD	n/a	wordpools/wordpool_categorized_EN.txt	WALNUT	Trees	2	4	[0, 0, 0]	n/a	catFR1	2	R1527J
487.533	0.866	936135	WORD_OFF	n/a	n/a	WALNUT	Trees	2	4	[0, 0, 0]	n/a	catFR1	2	R1527J
488.399	1.601	937007	WORD	n/a	wordpools/wordpool_categorized_EN.txt	DRIZZLE	Weather	3	4	[0, 0, 0]	n/a	catFR1	2	R1527J
490.0	0.8	938605	WORD_OFF	n/a	n/a	DRIZZLE	Weather	3	4	[0, 0, 0]	n/a	catFR1	2	R1527J
490.8	1.616	939405	WORD	n/a	wordpools/wordpool_categorized_EN.txt	SNOW	Weather	4	4	[0, 0, 0]	n/a	catFR1	2	R1527J
492.416	0.767	941021	WORD_OFF	n/a	n/a	SNOW	Weather	4	4	[0, 0, 0]	n/a	catFR1	2	R1527J
493.183	1.6	941784	WORD	n/a	wordpools/wordpool_categorized_EN.txt	RATCHET	Tools	5	4	[0, 0, 0]	n/a	catFR1	2	R1527J
494.783	0.9	943391	WORD_OFF	n/a	n/a	RATCHET	Tools	5	4	[0, 0, 0]	n/a	catFR1	2	R1527J
495.683	1.6	944282	WORD	n/a	wordpools/wordpool_categorized_EN.txt	CROWBAR	Tools	6	4	[0, 0, 0]	n/a	catFR1	2	R1527J
497.283	0.799	945889	WORD_OFF	n/a	n/a	CROWBAR	Tools	6	4	[0, 0, 0]	n/a	catFR1	2	R1527J
498.082	1.601	946688	WORD	n/a	wordpools/wordpool_categorized_EN.txt	HUMIDITY	Weather	7	4	[0, 0, 0]	n/a	catFR1	2	R1527J
499.683	0.883	948287	WORD_OFF	n/a	n/a	HUMIDITY	Weather	7	4	[0, 0, 0]	n/a	catFR1	2	R1527J
500.566	1.601	949168	WORD	n/a	wordpools/wordpool_categorized_EN.txt	CLOUD	Weather	8	4	[0, 0, 0]	n/a	catFR1	2	R1527J
502.167	0.866	950767	WORD_OFF	n/a	n/a	CLOUD	Weather	8	4	[0, 0, 0]	n/a	catFR1	2	R1527J
503.033	1.6	951639	WORD	n/a	wordpools/wordpool_categorized_EN.txt	MAPLE	Trees	9	4	[0, 0, 0]	n/a	catFR1	2	R1527J
504.633	0.85	953237	WORD_OFF	n/a	n/a	MAPLE	Trees	9	4	[0, 0, 0]	n/a	catFR1	2	R1527J
505.483	1.6	954083	WORD	n/a	wordpools/wordpool_categorized_EN.txt	OAK	Trees	10	4	[0, 0, 0]	n/a	catFR1	2	R1527J
507.083	0.8	955690	WORD_OFF	n/a	n/a	OAK	Trees	10	4	[0, 0, 0]	n/a	catFR1	2	R1527J
507.883	1.617	956489	WORD	n/a	wordpools/wordpool_categorized_EN.txt	HAMMER	Tools	11	4	[0, 0, 0]	n/a	catFR1	2	R1527J
509.5	0.933	958106	WORD_OFF	n/a	n/a	HAMMER	Tools	11	4	[0, 0, 0]	n/a	catFR1	2	R1527J
510.433	1.617	959033	WORD	n/a	wordpools/wordpool_categorized_EN.txt	WRENCH	Tools	12	4	[0, 0, 0]	n/a	catFR1	2	R1527J
512.05	0.001	960650	WORD_OFF	n/a	n/a	WRENCH	Tools	12	4	[0, 0, 0]	n/a	catFR1	2	R1527J
512.051	0.0	960650	ENCODING_END	n/a	n/a	n/a	n/a	-999	4	[0, 0, 0]	n/a	catFR1	2	R1527J
512.05	0.001	960650	PROB	2.933	n/a	n/a	n/a	-999	4	[3, 6, 3]	12.0	catFR1	2	R1527J
512.051	0.0	960651	START	n/a	n/a	n/a	n/a	-999	4	[-999, -999, -999]	n/a	catFR1	2	R1527J
512.051	2.949	960659	DISTRACT_START	n/a	n/a	n/a	n/a	-999	4	[0, 0, 0]	n/a	catFR1	2	R1527J
515.0	4.849	963600	PROB	4.833	n/a	n/a	n/a	-999	4	[4, 7, 6]	18.0	catFR1	2	R1527J
519.849	3.818	968448	PROB	3.8	n/a	n/a	n/a	-999	4	[5, 3, 2]	10.0	catFR1	2	R1527J
523.667	3.966	972266	PROB	3.949	n/a	n/a	n/a	-999	4	[2, 5, 1]	8.0	catFR1	2	R1527J
527.633	5.2	976232	PROB	5.183	n/a	n/a	n/a	-999	4	[7, 7, 6]	20.0	catFR1	2	R1527J
532.833	0.0	981432	STOP	n/a	n/a	n/a	n/a	-999	4	[-999, -999, -999]	n/a	catFR1	2	R1527J
532.833	1.766	981436	DISTRACT_END	n/a	n/a	n/a	n/a	-999	4	[0, 0, 0]	n/a	catFR1	2	R1527J
534.599	1.119	983200	REC_START	n/a	n/a	n/a	n/a	-999	4	[0, 0, 0]	n/a	catFR1	2	R1527J
535.718	1.356	984317	REC_WORD	1.119	n/a	ELM	Trees	1	4	[0, 0, 0]	n/a	catFR1	2	R1527J
537.074	1.541	985672	REC_WORD	2.475	n/a	MAPLE	Trees	9	4	[0, 0, 0]	n/a	catFR1	2	R1527J
538.615	1.328	987213	REC_WORD	4.016	n/a	OAK	Trees	10	4	[0, 0, 0]	n/a	catFR1	2	R1527J
539.943	1.365	988541	REC_WORD	5.344	n/a	WALNUT	Trees	2	4	[0, 0, 0]	n/a	catFR1	2	R1527J
541.308	1.725	989906	REC_WORD	6.709	n/a	CLOUD	Weather	8	4	[0, 0, 0]	n/a	catFR1	2	R1527J
543.033	1.604	991631	REC_WORD	8.434	n/a	HUMIDITY	Weather	7	4	[0, 0, 0]	n/a	catFR1	2	R1527J
544.637	1.364	993235	REC_WORD	10.038	n/a	HAMMER	Tools	11	4	[0, 0, 0]	n/a	catFR1	2	R1527J
546.001	1.738	994599	REC_WORD	11.402	n/a	CROWBAR	Tools	6	4	[0, 0, 0]	n/a	catFR1	2	R1527J
547.739	17.038	996337	REC_WORD	13.14	n/a	RATCHET	Tools	5	4	[0, 0, 0]	n/a	catFR1	2	R1527J
564.777	1.522	1013373	REC_END	n/a	n/a	n/a	n/a	-999	4	[0, 0, 0]	n/a	catFR1	2	R1527J
566.299	10.349	1014898	COUNTDOWN_START	n/a	n/a	n/a	n/a	-999	5	[0, 0, 0]	n/a	catFR1	2	R1527J
576.648	0.0	1025249	COUNTDOWN_END	n/a	n/a	n/a	n/a	-999	5	[0, 0, 0]	n/a	catFR1	2	R1527J
576.648	2.166	1025249	ENCODING_START	n/a	n/a	n/a	n/a	-999	5	[0, 0, 0]	n/a	catFR1	2	R1527J
578.814	1.601	1027417	WORD	n/a	wordpools/wordpool_categorized_EN.txt	SHOVEL	Tools	1	5	[0, 0, 0]	n/a	catFR1	2	R1527J
580.415	0.849	1029015	WORD_OFF	n/a	n/a	SHOVEL	Tools	1	5	[0, 0, 0]	n/a	catFR1	2	R1527J
581.264	1.601	1029860	WORD	n/a	wordpools/wordpool_categorized_EN.txt	SCREWDRIVER	Tools	2	5	[0, 0, 0]	n/a	catFR1	2	R1527J
582.865	0.933	1031468	WORD_OFF	n/a	n/a	SCREWDRIVER	Tools	2	5	[0, 0, 0]	n/a	catFR1	2	R1527J
583.798	1.6	1032395	WORD	n/a	wordpools/wordpool_categorized_EN.txt	HEN	FarmAnimals	3	5	[0, 0, 0]	n/a	catFR1	2	R1527J
585.398	0.801	1033994	WORD_OFF	n/a	n/a	HEN	FarmAnimals	3	5	[0, 0, 0]	n/a	catFR1	2	R1527J
586.199	1.616	1034793	WORD	n/a	wordpools/wordpool_categorized_EN.txt	CALF	FarmAnimals	4	5	[0, 0, 0]	n/a	catFR1	2	R1527J
587.815	0.968	1036409	WORD_OFF	n/a	n/a	CALF	FarmAnimals	4	5	[0, 0, 0]	n/a	catFR1	2	R1527J
588.783	1.615	1037383	WORD	n/a	wordpools/wordpool_categorized_EN.txt	WOODS	Landscapes	5	5	[0, 0, 0]	n/a	catFR1	2	R1527J
590.398	1.0	1038999	WORD_OFF	n/a	n/a	WOODS	Landscapes	5	5	[0, 0, 0]	n/a	catFR1	2	R1527J
591.398	1.617	1039991	WORD	n/a	wordpools/wordpool_categorized_EN.txt	VALLEY	Landscapes	6	5	[0, 0, 0]	n/a	catFR1	2	R1527J
593.015	0.866	1041617	WORD_OFF	n/a	n/a	VALLEY	Landscapes	6	5	[0, 0, 0]	n/a	catFR1	2	R1527J
593.881	1.602	1042481	WORD	n/a	wordpools/wordpool_categorized_EN.txt	HORSE	FarmAnimals	7	5	[0, 0, 0]	n/a	catFR1	2	R1527J
595.483	0.765	1044079	WORD_OFF	n/a	n/a	HORSE	FarmAnimals	7	5	[0, 0, 0]	n/a	catFR1	2	R1527J
596.248	1.6	1044841	WORD	n/a	wordpools/wordpool_categorized_EN.txt	SHEEP	FarmAnimals	8	5	[0, 0, 0]	n/a	catFR1	2	R1527J
597.848	0.934	1046449	WORD_OFF	n/a	n/a	SHEEP	FarmAnimals	8	5	[0, 0, 0]	n/a	catFR1	2	R1527J
598.782	1.617	1047376	WORD	n/a	wordpools/wordpool_categorized_EN.txt	OCEAN	Landscapes	9	5	[0, 0, 0]	n/a	catFR1	2	R1527J
600.399	0.899	1048993	WORD_OFF	n/a	n/a	OCEAN	Landscapes	9	5	[0, 0, 0]	n/a	catFR1	2	R1527J
601.298	1.617	1049893	WORD	n/a	wordpools/wordpool_categorized_EN.txt	HILLS	Landscapes	10	5	[0, 0, 0]	n/a	catFR1	2	R1527J
602.915	0.966	1051510	WORD_OFF	n/a	n/a	HILLS	Landscapes	10	5	[0, 0, 0]	n/a	catFR1	2	R1527J
603.881	1.6	1052483	WORD	n/a	wordpools/wordpool_categorized_EN.txt	AXE	Tools	11	5	[0, 0, 0]	n/a	catFR1	2	R1527J
605.481	0.917	1054082	WORD_OFF	n/a	n/a	AXE	Tools	11	5	[0, 0, 0]	n/a	catFR1	2	R1527J
606.398	1.601	1054991	WORD	n/a	wordpools/wordpool_categorized_EN.txt	DRILL	Tools	12	5	[0, 0, 0]	n/a	catFR1	2	R1527J
607.999	0.001	1056594	PROB	3.466	n/a	n/a	n/a	-999	5	[3, 8, 1]	12.0	catFR1	2	R1527J
608.0	0.0	1056595	START	n/a	n/a	n/a	n/a	-999	5	[-999, -999, -999]	n/a	catFR1	2	R1527J
607.999	0.001	1056598	WORD_OFF	n/a	n/a	DRILL	Tools	12	5	[0, 0, 0]	n/a	catFR1	2	R1527J
608.0	0.0	1056598	ENCODING_END	n/a	n/a	n/a	n/a	-999	5	[0, 0, 0]	n/a	catFR1	2	R1527J
608.0	3.482	1056598	DISTRACT_START	n/a	n/a	n/a	n/a	-999	5	[0, 0, 0]	n/a	catFR1	2	R1527J
611.482	4.85	1060076	PROB	4.833	n/a	n/a	n/a	-999	5	[6, 4, 5]	15.0	catFR1	2	R1527J
616.332	2.516	1064926	PROB	2.5	n/a	n/a	n/a	-999	5	[3, 7, 4]	14.0	catFR1	2	R1527J
618.848	4.401	1067442	PROB	4.383	n/a	n/a	n/a	-999	5	[3, 6, 2]	11.0	catFR1	2	R1527J
623.249	5.816	1071843	PROB	5.799	n/a	n/a	n/a	-999	5	[1, 5, 8]	14.0	catFR1	2	R1527J
629.065	0.0	1077659	STOP	n/a	n/a	n/a	n/a	-999	5	[-999, -999, -999]	n/a	catFR1	2	R1527J
629.065	1.799	1077660	DISTRACT_END	n/a	n/a	n/a	n/a	-999	5	[0, 0, 0]	n/a	catFR1	2	R1527J
630.864	1.075	1079460	REC_START	n/a	n/a	n/a	n/a	-999	5	[0, 0, 0]	n/a	catFR1	2	R1527J
631.939	0.922	1080532	REC_WORD	1.075	n/a	VALLEY	Landscapes	6	5	[0, 0, 0]	n/a	catFR1	2	R1527J
632.861	1.867	1081454	REC_WORD	1.997	n/a	HILLS	Landscapes	10	5	[0, 0, 0]	n/a	catFR1	2	R1527J
634.728	2.463	1083321	REC_WORD	3.864	n/a	OCEAN	Landscapes	9	5	[0, 0, 0]	n/a	catFR1	2	R1527J
637.191	1.675	1085784	REC_WORD_VV	6.327	n/a	<>	n/a	-999	5	[0, 0, 0]	n/a	catFR1	2	R1527J
638.866	0.786	1087459	REC_WORD_VV	8.002	n/a	<>	n/a	-999	5	[0, 0, 0]	n/a	catFR1	2	R1527J
639.652	5.009	1088245	REC_WORD_VV	8.788	n/a	<>	n/a	-999	5	[0, 0, 0]	n/a	catFR1	2	R1527J
644.661	1.143	1093254	REC_WORD	13.797	n/a	SHEEP	FarmAnimals	8	5	[0, 0, 0]	n/a	catFR1	2	R1527J
645.804	3.023	1094397	REC_WORD	14.94	n/a	CALF	FarmAnimals	4	5	[0, 0, 0]	n/a	catFR1	2	R1527J
648.827	3.309	1097420	REC_WORD	17.963	n/a	HEN	FarmAnimals	3	5	[0, 0, 0]	n/a	catFR1	2	R1527J
652.136	1.046	1100728	REC_WORD_VV	21.272	n/a	<>	n/a	-999	5	[0, 0, 0]	n/a	catFR1	2	R1527J
653.182	1.303	1101774	REC_WORD	22.318	n/a	HORSE	FarmAnimals	7	5	[0, 0, 0]	n/a	catFR1	2	R1527J
654.485	3.111	1103077	REC_WORD_VV	23.621	n/a	<>	n/a	-999	5	[0, 0, 0]	n/a	catFR1	2	R1527J
657.596	2.913	1106188	REC_WORD_VV	26.732	n/a	<>	n/a	-999	5	[0, 0, 0]	n/a	catFR1	2	R1527J
660.509	0.539	1109101	REC_WORD	29.645	n/a	VALLEY	Landscapes	6	5	[0, 0, 0]	n/a	catFR1	2	R1527J
661.048	1.669	1109643	REC_END	n/a	n/a	n/a	n/a	-999	5	[0, 0, 0]	n/a	catFR1	2	R1527J
662.717	10.349	1111314	COUNTDOWN_START	n/a	n/a	n/a	n/a	-999	6	[0, 0, 0]	n/a	catFR1	2	R1527J
673.066	0.0	1121657	COUNTDOWN_END	n/a	n/a	n/a	n/a	-999	6	[0, 0, 0]	n/a	catFR1	2	R1527J
673.066	2.116	1121666	ENCODING_START	n/a	n/a	n/a	n/a	-999	6	[0, 0, 0]	n/a	catFR1	2	R1527J
675.182	1.601	1123779	WORD	n/a	wordpools/wordpool_categorized_EN.txt	VIOLET	Flowers	1	6	[0, 0, 0]	n/a	catFR1	2	R1527J
676.783	0.883	1125377	WORD_OFF	n/a	n/a	VIOLET	Flowers	1	6	[0, 0, 0]	n/a	catFR1	2	R1527J
677.666	1.6	1126259	WORD	n/a	wordpools/wordpool_categorized_EN.txt	PETUNIA	Flowers	2	6	[0, 0, 0]	n/a	catFR1	2	R1527J
679.266	0.917	1127857	WORD_OFF	n/a	n/a	PETUNIA	Flowers	2	6	[0, 0, 0]	n/a	catFR1	2	R1527J
680.183	1.6	1128775	WORD	n/a	wordpools/wordpool_categorized_EN.txt	ROBIN	Birds	3	6	[0, 0, 0]	n/a	catFR1	2	R1527J
681.783	0.983	1130374	WORD_OFF	n/a	n/a	ROBIN	Birds	3	6	[0, 0, 0]	n/a	catFR1	2	R1527J
682.766	1.6	1131356	WORD	n/a	wordpools/wordpool_categorized_EN.txt	FINCH	Birds	4	6	[0, 0, 0]	n/a	catFR1	2	R1527J
684.366	0.767	1132955	WORD_OFF	n/a	n/a	FINCH	Birds	4	6	[0, 0, 0]	n/a	catFR1	2	R1527J
685.133	1.6	1133726	WORD	n/a	wordpools/wordpool_categorized_EN.txt	ORANGE	Fruit	5	6	[0, 0, 0]	n/a	catFR1	2	R1527J
686.733	0.833	1135324	WORD_OFF	n/a	n/a	ORANGE	Fruit	5	6	[0, 0, 0]	n/a	catFR1	2	R1527J
687.566	1.6	1136160	WORD	n/a	wordpools/wordpool_categorized_EN.txt	LEMON	Fruit	6	6	[0, 0, 0]	n/a	catFR1	2	R1527J
689.166	0.8	1137759	WORD_OFF	n/a	n/a	LEMON	Fruit	6	6	[0, 0, 0]	n/a	catFR1	2	R1527J
689.966	1.6	1138558	WORD	n/a	wordpools/wordpool_categorized_EN.txt	GOOSE	Birds	7	6	[0, 0, 0]	n/a	catFR1	2	R1527J
691.566	0.85	1140156	WORD_OFF	n/a	n/a	GOOSE	Birds	7	6	[0, 0, 0]	n/a	catFR1	2	R1527J
692.416	1.6	1141010	WORD	n/a	wordpools/wordpool_categorized_EN.txt	SPARROW	Birds	8	6	[0, 0, 0]	n/a	catFR1	2	R1527J
694.016	0.8	1142608	WORD_OFF	n/a	n/a	SPARROW	Birds	8	6	[0, 0, 0]	n/a	catFR1	2	R1527J
694.816	1.6	1143407	WORD	n/a	wordpools/wordpool_categorized_EN.txt	ROSE	Flowers	9	6	[0, 0, 0]	n/a	catFR1	2	R1527J
696.416	0.867	1145006	WORD_OFF	n/a	n/a	ROSE	Flowers	9	6	[0, 0, 0]	n/a	catFR1	2	R1527J
697.283	1.617	1145878	WORD	n/a	wordpools/wordpool_categorized_EN.txt	SUNFLOWER	Flowers	10	6	[0, 0, 0]	n/a	catFR1	2	R1527J
698.9	0.783	1147495	WORD_OFF	n/a	n/a	SUNFLOWER	Flowers	10	6	[0, 0, 0]	n/a	catFR1	2	R1527J
699.683	1.617	1148276	WORD	n/a	wordpools/wordpool_categorized_EN.txt	PLUM	Fruit	11	6	[0, 0, 0]	n/a	catFR1	2	R1527J
701.3	0.833	1149892	WORD_OFF	n/a	n/a	PLUM	Fruit	11	6	[0, 0, 0]	n/a	catFR1	2	R1527J
702.133	1.6	1150728	WORD	n/a	wordpools/wordpool_categorized_EN.txt	PEAR	Fruit	12	6	[0, 0, 0]	n/a	catFR1	2	R1527J
703.733	0.0	1152323	PROB	3.366	n/a	n/a	n/a	-999	6	[3, 4, 1]	8.0	catFR1	2	R1527J
703.733	0.003	1152326	WORD_OFF	n/a	n/a	PEAR	Fruit	12	6	[0, 0, 0]	n/a	catFR1	2	R1527J
703.736	0.0	1152326	ENCODING_END	n/a	n/a	n/a	n/a	-999	6	[0, 0, 0]	n/a	catFR1	2	R1527J
703.736	0.0	1152326	START	n/a	n/a	n/a	n/a	-999	6	[-999, -999, -999]	n/a	catFR1	2	R1527J
703.736	3.381	1152335	DISTRACT_START	n/a	n/a	n/a	n/a	-999	6	[0, 0, 0]	n/a	catFR1	2	R1527J
707.117	3.367	1155706	PROB	3.349	n/a	n/a	n/a	-999	6	[1, 5, 2]	8.0	catFR1	2	R1527J
710.484	2.983	1159073	PROB	2.966	n/a	n/a	n/a	-999	6	[7, 7, 1]	15.0	catFR1	2	R1527J
713.467	4.182	1162056	PROB	4.166	n/a	n/a	n/a	-999	6	[4, 6, 4]	14.0	catFR1	2	R1527J
717.649	2.385	1166238	PROB	2.367	n/a	n/a	n/a	-999	6	[2, 5, 1]	8.0	catFR1	2	R1527J
720.034	2.015	1168623	PROB	1.999	n/a	n/a	n/a	-999	6	[1, 3, 4]	8.0	catFR1	2	R1527J
722.049	4.017	1170638	PROB	4.0	n/a	n/a	n/a	-999	6	[7, 8, 2]	17.0	catFR1	2	R1527J
726.066	0.0	1174654	STOP	n/a	n/a	n/a	n/a	-999	6	[-999, -999, -999]	n/a	catFR1	2	R1527J
726.066	1.765	1174655	DISTRACT_END	n/a	n/a	n/a	n/a	-999	6	[0, 0, 0]	n/a	catFR1	2	R1527J
727.831	1.058	1176419	REC_START	n/a	n/a	n/a	n/a	-999	6	[0, 0, 0]	n/a	catFR1	2	R1527J
728.889	1.467	1177477	REC_WORD	1.058	n/a	VIOLET	Flowers	1	6	[0, 0, 0]	n/a	catFR1	2	R1527J
730.356	2.425	1178944	REC_WORD	2.525	n/a	PETUNIA	Flowers	2	6	[0, 0, 0]	n/a	catFR1	2	R1527J
732.781	0.548	1181369	REC_WORD_VV	4.95	n/a	<>	n/a	-999	6	[0, 0, 0]	n/a	catFR1	2	R1527J
733.329	1.0	1181917	REC_WORD	5.498	n/a	ROSE	Flowers	9	6	[0, 0, 0]	n/a	catFR1	2	R1527J
734.329	0.853	1182917	REC_WORD_VV	6.498	n/a	<>	n/a	-999	6	[0, 0, 0]	n/a	catFR1	2	R1527J
735.182	1.775	1183770	REC_WORD	7.351	n/a	SUNFLOWER	Flowers	10	6	[0, 0, 0]	n/a	catFR1	2	R1527J
736.957	1.66	1185545	REC_WORD	9.126	n/a	ORANGE	Fruit	5	6	[0, 0, 0]	n/a	catFR1	2	R1527J
738.617	7.517	1187205	REC_WORD	10.786	n/a	PEAR	Fruit	12	6	[0, 0, 0]	n/a	catFR1	2	R1527J
746.134	8.981	1194721	REC_WORD	18.303	n/a	RATCHET	Tools	-999	6	[0, 0, 0]	n/a	catFR1	2	R1527J
755.115	2.907	1203702	REC_WORD_VV	27.284	n/a	<>	n/a	-999	6	[0, 0, 0]	n/a	catFR1	2	R1527J
758.022	1.709	1206611	REC_END	n/a	n/a	n/a	n/a	-999	6	[0, 0, 0]	n/a	catFR1	2	R1527J
759.731	10.35	1208319	COUNTDOWN_START	n/a	n/a	n/a	n/a	-999	7	[0, 0, 0]	n/a	catFR1	2	R1527J
770.081	0.0	1218671	COUNTDOWN_END	n/a	n/a	n/a	n/a	-999	7	[0, 0, 0]	n/a	catFR1	2	R1527J
770.081	2.217	1218671	ENCODING_START	n/a	n/a	n/a	n/a	-999	7	[0, 0, 0]	n/a	catFR1	2	R1527J
772.298	1.617	1220884	WORD	n/a	wordpools/wordpool_categorized_EN.txt	BARBIE	Toys	1	7	[0, 0, 0]	n/a	catFR1	2	R1527J
773.915	0.85	1222501	WORD_OFF	n/a	n/a	BARBIE	Toys	1	7	[0, 0, 0]	n/a	catFR1	2	R1527J
774.765	1.6	1223355	WORD	n/a	wordpools/wordpool_categorized_EN.txt	FOOTBALL	Toys	2	7	[0, 0, 0]	n/a	catFR1	2	R1527J
776.365	0.866	1224972	WORD_OFF	n/a	n/a	FOOTBALL	Toys	2	7	[0, 0, 0]	n/a	catFR1	2	R1527J
777.231	1.617	1225817	WORD	n/a	wordpools/wordpool_categorized_EN.txt	SPEAKER	Electronics	3	7	[0, 0, 0]	n/a	catFR1	2	R1527J
778.848	0.967	1227433	WORD_OFF	n/a	n/a	SPEAKER	Electronics	3	7	[0, 0, 0]	n/a	catFR1	2	R1527J
779.815	1.6	1228407	WORD	n/a	wordpools/wordpool_categorized_EN.txt	TELEVISION	Electronics	4	7	[0, 0, 0]	n/a	catFR1	2	R1527J
781.415	0.85	1230005	WORD_OFF	n/a	n/a	TELEVISION	Electronics	4	7	[0, 0, 0]	n/a	catFR1	2	R1527J
782.265	1.6	1230850	WORD	n/a	wordpools/wordpool_categorized_EN.txt	PLANKTON	OceanAnimals	5	7	[0, 0, 0]	n/a	catFR1	2	R1527J
783.865	0.883	1232449	WORD_OFF	n/a	n/a	PLANKTON	OceanAnimals	5	7	[0, 0, 0]	n/a	catFR1	2	R1527J
784.748	1.6	1233340	WORD	n/a	wordpools/wordpool_categorized_EN.txt	DOLPHIN	OceanAnimals	6	7	[0, 0, 0]	n/a	catFR1	2	R1527J
786.348	0.817	1234938	WORD_OFF	n/a	n/a	DOLPHIN	OceanAnimals	6	7	[0, 0, 0]	n/a	catFR1	2	R1527J
787.165	1.6	1235755	WORD	n/a	wordpools/wordpool_categorized_EN.txt	SCANNER	Electronics	7	7	[0, 0, 0]	n/a	catFR1	2	R1527J
788.765	0.783	1237353	WORD_OFF	n/a	n/a	SCANNER	Electronics	7	7	[0, 0, 0]	n/a	catFR1	2	R1527J
789.548	1.6	1238134	WORD	n/a	wordpools/wordpool_categorized_EN.txt	STEREO	Electronics	8	7	[0, 0, 0]	n/a	catFR1	2	R1527J
791.148	0.866	1239732	WORD_OFF	n/a	n/a	STEREO	Electronics	8	7	[0, 0, 0]	n/a	catFR1	2	R1527J
792.014	1.601	1240605	WORD	n/a	wordpools/wordpool_categorized_EN.txt	FRISBEE	Toys	9	7	[0, 0, 0]	n/a	catFR1	2	R1527J
793.615	1.0	1242203	WORD_OFF	n/a	n/a	FRISBEE	Toys	9	7	[0, 0, 0]	n/a	catFR1	2	R1527J
794.615	1.616	1243204	WORD	n/a	wordpools/wordpool_categorized_EN.txt	SLINKY	Toys	10	7	[0, 0, 0]	n/a	catFR1	2	R1527J
796.231	0.85	1244821	WORD_OFF	n/a	n/a	SLINKY	Toys	10	7	[0, 0, 0]	n/a	catFR1	2	R1527J
797.081	1.6	1245666	WORD	n/a	wordpools/wordpool_categorized_EN.txt	WHALE	OceanAnimals	11	7	[0, 0, 0]	n/a	catFR1	2	R1527J
798.681	0.951	1247264	WORD_OFF	n/a	n/a	WHALE	OceanAnimals	11	7	[0, 0, 0]	n/a	catFR1	2	R1527J
799.632	1.6	1248220	WORD	n/a	wordpools/wordpool_categorized_EN.txt	SQUID	OceanAnimals	12	7	[0, 0, 0]	n/a	catFR1	2	R1527J
801.232	0.0	1249816	START	n/a	n/a	n/a	n/a	-999	7	[-999, -999, -999]	n/a	catFR1	2	R1527J
801.232	0.0	1249816	PROB	2.966	n/a	n/a	n/a	-999	7	[3, 7, 5]	15.0	catFR1	2	R1527J
801.231	0.001	1249818	WORD_OFF	n/a	n/a	SQUID	OceanAnimals	12	7	[0, 0, 0]	n/a	catFR1	2	R1527J
801.232	0.0	1249818	ENCODING_END	n/a	n/a	n/a	n/a	-999	7	[0, 0, 0]	n/a	catFR1	2	R1527J
801.232	2.984	1249818	DISTRACT_START	n/a	n/a	n/a	n/a	-999	7	[0, 0, 0]	n/a	catFR1	2	R1527J
804.216	6.682	1252800	PROB	6.666	n/a	n/a	n/a	-999	7	[5, 4, 3]	12.0	catFR1	2	R1527J
810.898	4.934	1259482	PROB	4.916	n/a	n/a	n/a	-999	7	[7, 5, 7]	19.0	catFR1	2	R1527J
815.832	3.117	1264416	PROB	3.099	n/a	n/a	n/a	-999	7	[1, 6, 7]	14.0	catFR1	2	R1527J
818.949	2.166	1267532	PROB	2.149	n/a	n/a	n/a	-999	7	[1, 3, 4]	8.0	catFR1	2	R1527J
821.115	2.266	1269698	PROB	2.249	n/a	n/a	n/a	-999	7	[1, 8, 2]	11.0	catFR1	2	R1527J
823.381	0.0	1271963	DISTRACT_END	n/a	n/a	n/a	n/a	-999	7	[0, 0, 0]	n/a	catFR1	2	R1527J
823.381	1.549	1271964	STOP	n/a	n/a	n/a	n/a	-999	7	[-999, -999, -999]	n/a	catFR1	2	R1527J
824.93	0.948	1273515	REC_START	n/a	n/a	n/a	n/a	-999	7	[0, 0, 0]	n/a	catFR1	2	R1527J
825.878	1.249	1274461	REC_WORD	0.948	n/a	FRISBEE	Toys	9	7	[0, 0, 0]	n/a	catFR1	2	R1527J
827.127	1.337	1275710	REC_WORD	2.197	n/a	DOLPHIN	OceanAnimals	6	7	[0, 0, 0]	n/a	catFR1	2	R1527J
828.464	5.245	1277047	REC_WORD	3.534	n/a	FOOTBALL	Toys	2	7	[0, 0, 0]	n/a	catFR1	2	R1527J
833.709	2.453	1282292	REC_WORD_VV	8.779	n/a	<>	n/a	-999	7	[0, 0, 0]	n/a	catFR1	2	R1527J
836.162	3.192	1284745	REC_WORD_VV	11.232	n/a	<>	n/a	-999	7	[0, 0, 0]	n/a	catFR1	2	R1527J
839.354	1.595	1287936	REC_WORD	14.424	n/a	PLANKTON	OceanAnimals	5	7	[0, 0, 0]	n/a	catFR1	2	R1527J
840.949	5.369	1289531	REC_WORD	16.019	n/a	BARBIE	Toys	1	7	[0, 0, 0]	n/a	catFR1	2	R1527J
846.318	0.756	1294900	REC_WORD	21.388	n/a	MICROWAVE	Electronics	-999	7	[0, 0, 0]	n/a	catFR1	2	R1527J
847.074	0.802	1295656	REC_WORD	22.144	n/a	SCANNER	Electronics	7	7	[0, 0, 0]	n/a	catFR1	2	R1527J
847.876	1.45	1296458	REC_WORD	22.946	n/a	STEREO	Electronics	8	7	[0, 0, 0]	n/a	catFR1	2	R1527J
849.326	5.805	1297908	REC_WORD	24.396	n/a	SPEAKER	Electronics	3	7	[0, 0, 0]	n/a	catFR1	2	R1527J
855.131	1.685	1303716	REC_END	n/a	n/a	n/a	n/a	-999	7	[0, 0, 0]	n/a	catFR1	2	R1527J
856.816	10.349	1305406	COUNTDOWN_START	n/a	n/a	n/a	n/a	-999	8	[0, 0, 0]	n/a	catFR1	2	R1527J
867.165	0.001	1315749	COUNTDOWN_END	n/a	n/a	n/a	n/a	-999	8	[0, 0, 0]	n/a	catFR1	2	R1527J
867.166	2.3	1315749	ENCODING_START	n/a	n/a	n/a	n/a	-999	8	[0, 0, 0]	n/a	catFR1	2	R1527J
869.466	1.6	1318045	WORD	n/a	wordpools/wordpool_categorized_EN.txt	MARKER	OfficeSupplies	1	8	[0, 0, 0]	n/a	catFR1	2	R1527J
871.066	1.0	1319653	WORD_OFF	n/a	n/a	MARKER	OfficeSupplies	1	8	[0, 0, 0]	n/a	catFR1	2	R1527J
872.066	1.6	1320645	WORD	n/a	wordpools/wordpool_categorized_EN.txt	TAPE	OfficeSupplies	2	8	[0, 0, 0]	n/a	catFR1	2	R1527J
873.666	0.784	1322252	WORD_OFF	n/a	n/a	TAPE	OfficeSupplies	2	8	[0, 0, 0]	n/a	catFR1	2	R1527J
874.45	1.616	1323033	WORD	n/a	wordpools/wordpool_categorized_EN.txt	SUEDE	Fabric	3	8	[0, 0, 0]	n/a	catFR1	2	R1527J
876.066	0.917	1324649	WORD_OFF	n/a	n/a	SUEDE	Fabric	3	8	[0, 0, 0]	n/a	catFR1	2	R1527J
876.983	1.6	1325568	WORD	n/a	wordpools/wordpool_categorized_EN.txt	DENIM	Fabric	4	8	[0, 0, 0]	n/a	catFR1	2	R1527J
878.583	0.767	1327166	WORD_OFF	n/a	n/a	DENIM	Fabric	4	8	[0, 0, 0]	n/a	catFR1	2	R1527J
879.35	1.6	1327928	WORD	n/a	wordpools/wordpool_categorized_EN.txt	PIANO	Instruments	5	8	[0, 0, 0]	n/a	catFR1	2	R1527J
880.95	0.8	1329536	WORD_OFF	n/a	n/a	PIANO	Instruments	5	8	[0, 0, 0]	n/a	catFR1	2	R1527J
881.75	1.6	1330335	WORD	n/a	wordpools/wordpool_categorized_EN.txt	BANJO	Instruments	6	8	[0, 0, 0]	n/a	catFR1	2	R1527J
883.35	0.85	1331933	WORD_OFF	n/a	n/a	BANJO	Instruments	6	8	[0, 0, 0]	n/a	catFR1	2	R1527J
884.2	1.616	1332778	WORD	n/a	wordpools/wordpool_categorized_EN.txt	NOTEBOOK	OfficeSupplies	7	8	[0, 0, 0]	n/a	catFR1	2	R1527J
885.816	0.85	1334395	WORD_OFF	n/a	n/a	NOTEBOOK	OfficeSupplies	7	8	[0, 0, 0]	n/a	catFR1	2	R1527J
886.666	1.6	1335249	WORD	n/a	wordpools/wordpool_categorized_EN.txt	GLUE	OfficeSupplies	8	8	[0, 0, 0]	n/a	catFR1	2	R1527J
888.266	0.95	1336847	WORD_OFF	n/a	n/a	GLUE	OfficeSupplies	8	8	[0, 0, 0]	n/a	catFR1	2	R1527J
889.216	1.6	1337803	WORD	n/a	wordpools/wordpool_categorized_EN.txt	FLEECE	Fabric	9	8	[0, 0, 0]	n/a	catFR1	2	R1527J
890.816	0.867	1339401	WORD_OFF	n/a	n/a	FLEECE	Fabric	9	8	[0, 0, 0]	n/a	catFR1	2	R1527J
891.683	1.6	1340264	WORD	n/a	wordpools/wordpool_categorized_EN.txt	VELVET	Fabric	10	8	[0, 0, 0]	n/a	catFR1	2	R1527J
893.283	0.783	1341862	WORD_OFF	n/a	n/a	VELVET	Fabric	10	8	[0, 0, 0]	n/a	catFR1	2	R1527J
894.066	1.617	1342652	WORD	n/a	wordpools/wordpool_categorized_EN.txt	DRUM	Instruments	11	8	[0, 0, 0]	n/a	catFR1	2	R1527J
895.683	0.767	1344269	WORD_OFF	n/a	n/a	DRUM	Instruments	11	8	[0, 0, 0]	n/a	catFR1	2	R1527J
896.45	1.6	1345031	WORD	n/a	wordpools/wordpool_categorized_EN.txt	FLUTE	Instruments	12	8	[0, 0, 0]	n/a	catFR1	2	R1527J
898.05	0.001	1346630	WORD_OFF	n/a	n/a	FLUTE	Instruments	12	8	[0, 0, 0]	n/a	catFR1	2	R1527J
898.051	0.0	1346630	ENCODING_END	n/a	n/a	n/a	n/a	-999	8	[0, 0, 0]	n/a	catFR1	2	R1527J
898.051	0.0	1346630	PROB	2.349	n/a	n/a	n/a	-999	8	[5, 2, 2]	9.0	catFR1	2	R1527J
898.051	0.0	1346630	START	n/a	n/a	n/a	n/a	-999	8	[-999, -999, -999]	n/a	catFR1	2	R1527J
898.051	2.364	1346639	DISTRACT_START	n/a	n/a	n/a	n/a	-999	8	[0, 0, 0]	n/a	catFR1	2	R1527J
900.415	2.768	1348994	PROB	2.751	n/a	n/a	n/a	-999	8	[7, 2, 6]	15.0	catFR1	2	R1527J
903.183	3.033	1351762	PROB	3.016	n/a	n/a	n/a	-999	8	[1, 5, 8]	14.0	catFR1	2	R1527J
906.216	3.667	1354795	PROB	3.65	n/a	n/a	n/a	-999	8	[4, 6, 3]	13.0	catFR1	2	R1527J
909.883	3.55	1358462	PROB	3.533	n/a	n/a	n/a	-999	8	[4, 6, 1]	11.0	catFR1	2	R1527J
913.433	3.567	1362011	PROB	3.55	n/a	n/a	n/a	-999	8	[5, 4, 1]	10.0	catFR1	2	R1527J
917.0	3.116	1365578	PROB	3.099	n/a	n/a	n/a	-999	8	[6, 8, 4]	18.0	catFR1	2	R1527J
920.116	0.0	1368694	STOP	n/a	n/a	n/a	n/a	-999	8	[-999, -999, -999]	n/a	catFR1	2	R1527J
920.116	1.867	1368702	DISTRACT_END	n/a	n/a	n/a	n/a	-999	8	[0, 0, 0]	n/a	catFR1	2	R1527J
921.983	0.684	1370566	REC_START	n/a	n/a	n/a	n/a	-999	8	[0, 0, 0]	n/a	catFR1	2	R1527J
922.667	1.315	1371245	REC_WORD_VV	0.684	n/a	<>	n/a	-999	8	[0, 0, 0]	n/a	catFR1	2	R1527J
923.982	1.705	1372560	REC_WORD	1.999	n/a	PIANO	Instruments	5	8	[0, 0, 0]	n/a	catFR1	2	R1527J
925.687	1.133	1374265	REC_WORD	3.704	n/a	BANJO	Instruments	6	8	[0, 0, 0]	n/a	catFR1	2	R1527J
926.82	1.635	1375398	REC_WORD	4.837	n/a	VELVET	Fabric	10	8	[0, 0, 0]	n/a	catFR1	2	R1527J
928.455	1.567	1377033	REC_WORD	6.472	n/a	DENIM	Fabric	4	8	[0, 0, 0]	n/a	catFR1	2	R1527J
930.022	2.417	1378600	REC_WORD	8.039	n/a	MARKER	OfficeSupplies	1	8	[0, 0, 0]	n/a	catFR1	2	R1527J
932.439	1.78	1381016	REC_WORD	10.456	n/a	TAPE	OfficeSupplies	2	8	[0, 0, 0]	n/a	catFR1	2	R1527J
934.219	17.968	1382796	REC_WORD	12.236	n/a	GLUE	OfficeSupplies	8	8	[0, 0, 0]	n/a	catFR1	2	R1527J
952.187	1.312	1400767	REC_END	n/a	n/a	n/a	n/a	-999	8	[0, 0, 0]	n/a	catFR1	2	R1527J
953.499	10.35	1402080	COUNTDOWN_START	n/a	n/a	n/a	n/a	-999	9	[0, 0, 0]	n/a	catFR1	2	R1527J
963.849	0.0	1412423	COUNTDOWN_END	n/a	n/a	n/a	n/a	-999	9	[0, 0, 0]	n/a	catFR1	2	R1527J
963.849	1.883	1412432	ENCODING_START	n/a	n/a	n/a	n/a	-999	9	[0, 0, 0]	n/a	catFR1	2	R1527J
965.732	1.601	1414315	WORD	n/a	wordpools/wordpool_categorized_EN.txt	BLUEBERRY	Fruit	1	9	[0, 0, 0]	n/a	catFR1	2	R1527J
967.333	0.95	1415913	WORD_OFF	n/a	n/a	BLUEBERRY	Fruit	1	9	[0, 0, 0]	n/a	catFR1	2	R1527J
968.283	1.616	1416859	WORD	n/a	wordpools/wordpool_categorized_EN.txt	GRAPE	Fruit	2	9	[0, 0, 0]	n/a	catFR1	2	R1527J
969.899	0.934	1418476	WORD_OFF	n/a	n/a	GRAPE	Fruit	2	9	[0, 0, 0]	n/a	catFR1	2	R1527J
970.833	1.6	1419413	WORD	n/a	wordpools/wordpool_categorized_EN.txt	BASS	Instruments	3	9	[0, 0, 0]	n/a	catFR1	2	R1527J
972.433	0.783	1421011	WORD_OFF	n/a	n/a	BASS	Instruments	3	9	[0, 0, 0]	n/a	catFR1	2	R1527J
973.216	1.6	1421792	WORD	n/a	wordpools/wordpool_categorized_EN.txt	TRUMPET	Instruments	4	9	[0, 0, 0]	n/a	catFR1	2	R1527J
974.816	1.0	1423390	WORD_OFF	n/a	n/a	TRUMPET	Instruments	4	9	[0, 0, 0]	n/a	catFR1	2	R1527J
975.816	1.617	1424391	WORD	n/a	wordpools/wordpool_categorized_EN.txt	VACUUM	Appliances	5	9	[0, 0, 0]	n/a	catFR1	2	R1527J
977.433	0.95	1426008	WORD_OFF	n/a	n/a	VACUUM	Appliances	5	9	[0, 0, 0]	n/a	catFR1	2	R1527J
978.383	1.6	1426963	WORD	n/a	wordpools/wordpool_categorized_EN.txt	DRYER	Appliances	6	9	[0, 0, 0]	n/a	catFR1	2	R1527J
979.983	1.0	1428561	WORD_OFF	n/a	n/a	DRYER	Appliances	6	9	[0, 0, 0]	n/a	catFR1	2	R1527J
980.983	1.6	1429563	WORD	n/a	wordpools/wordpool_categorized_EN.txt	PEACH	Fruit	7	9	[0, 0, 0]	n/a	catFR1	2	R1527J
982.583	0.931	1431161	WORD_OFF	n/a	n/a	PEACH	Fruit	7	9	[0, 0, 0]	n/a	catFR1	2	R1527J
983.514	1.603	1432088	WORD	n/a	wordpools/wordpool_categorized_EN.txt	LIME	Fruit	8	9	[0, 0, 0]	n/a	catFR1	2	R1527J
985.117	0.983	1433696	WORD_OFF	n/a	n/a	LIME	Fruit	8	9	[0, 0, 0]	n/a	catFR1	2	R1527J
986.1	1.616	1434679	WORD	n/a	wordpools/wordpool_categorized_EN.txt	TUBA	Instruments	9	9	[0, 0, 0]	n/a	catFR1	2	R1527J
987.716	0.816	1436295	WORD_OFF	n/a	n/a	TUBA	Instruments	9	9	[0, 0, 0]	n/a	catFR1	2	R1527J
988.532	1.601	1437113	WORD	n/a	wordpools/wordpool_categorized_EN.txt	GUITAR	Instruments	10	9	[0, 0, 0]	n/a	catFR1	2	R1527J
990.133	0.933	1438711	WORD_OFF	n/a	n/a	GUITAR	Instruments	10	9	[0, 0, 0]	n/a	catFR1	2	R1527J
991.066	1.6	1439639	WORD	n/a	wordpools/wordpool_categorized_EN.txt	IRON	Appliances	11	9	[0, 0, 0]	n/a	catFR1	2	R1527J
992.666	0.767	1441246	WORD_OFF	n/a	n/a	IRON	Appliances	11	9	[0, 0, 0]	n/a	catFR1	2	R1527J
993.433	1.6	1442008	WORD	n/a	wordpools/wordpool_categorized_EN.txt	TOASTER	Appliances	12	9	[0, 0, 0]	n/a	catFR1	2	R1527J
995.033	0.0	1443607	WORD_OFF	n/a	n/a	TOASTER	Appliances	12	9	[0, 0, 0]	n/a	catFR1	2	R1527J
995.033	0.001	1443607	PROB	5.232	n/a	n/a	n/a	-999	9	[2, 3, 5]	10.0	catFR1	2	R1527J
995.034	0.0	1443608	START	n/a	n/a	n/a	n/a	-999	9	[-999, -999, -999]	n/a	catFR1	2	R1527J
995.034	0.0	1443616	ENCODING_END	n/a	n/a	n/a	n/a	-999	9	[0, 0, 0]	n/a	catFR1	2	R1527J
995.034	5.249	1443616	DISTRACT_START	n/a	n/a	n/a	n/a	-999	9	[0, 0, 0]	n/a	catFR1	2	R1527J
1000.283	1.983	1448857	PROB	1.965	n/a	n/a	n/a	-999	9	[5, 5, 4]	14.0	catFR1	2	R1527J
1002.266	4.783	1450840	PROB	4.765	n/a	n/a	n/a	-999	9	[8, 3, 3]	14.0	catFR1	2	R1527J
1007.049	9.451	1455622	PROB	9.433	n/a	n/a	n/a	-999	9	[3, 2, 8]	13.0	catFR1	2	R1527J
1016.5	0.0	1465072	DISTRACT_END	n/a	n/a	n/a	n/a	-999	9	[0, 0, 0]	n/a	catFR1	2	R1527J
1016.5	1.683	1465073	STOP	n/a	n/a	n/a	n/a	-999	9	[-999, -999, -999]	n/a	catFR1	2	R1527J
1018.183	1.188	1466762	REC_START	n/a	n/a	n/a	n/a	-999	9	[0, 0, 0]	n/a	catFR1	2	R1527J
1019.371	1.274	1467944	REC_WORD	1.188	n/a	BLUEBERRY	Fruit	1	9	[0, 0, 0]	n/a	catFR1	2	R1527J
1020.645	6.65	1469218	REC_WORD	2.462	n/a	GRAPE	Fruit	2	9	[0, 0, 0]	n/a	catFR1	2	R1527J
1027.295	2.033	1475867	REC_WORD_VV	9.112	n/a	<>	n/a	-999	9	[0, 0, 0]	n/a	catFR1	2	R1527J
1029.328	2.877	1477900	REC_WORD	11.145	n/a	BASS	Instruments	3	9	[0, 0, 0]	n/a	catFR1	2	R1527J
1032.205	3.952	1480777	REC_WORD	14.022	n/a	GUITAR	Instruments	10	9	[0, 0, 0]	n/a	catFR1	2	R1527J
1036.157	1.0	1484729	REC_WORD_VV	17.974	n/a	<>	n/a	-999	9	[0, 0, 0]	n/a	catFR1	2	R1527J
1037.157	3.105	1485729	REC_WORD_VV	18.974	n/a	<>	n/a	-999	9	[0, 0, 0]	n/a	catFR1	2	R1527J
1040.262	0.778	1488834	REC_WORD	22.079	n/a	TUBA	Instruments	9	9	[0, 0, 0]	n/a	catFR1	2	R1527J
1041.04	4.653	1489612	REC_WORD	22.857	n/a	TRUMPET	Instruments	4	9	[0, 0, 0]	n/a	catFR1	2	R1527J
1045.693	2.487	1494264	REC_WORD_VV	27.51	n/a	<>	n/a	-999	9	[0, 0, 0]	n/a	catFR1	2	R1527J
1048.18	0.232	1496751	REC_WORD_VV	29.997	n/a	<>	n/a	-999	9	[0, 0, 0]	n/a	catFR1	2	R1527J
1048.412	1.388	1496982	REC_END	n/a	n/a	n/a	n/a	-999	9	[0, 0, 0]	n/a	catFR1	2	R1527J
1049.8	10.349	1498378	COUNTDOWN_START	n/a	n/a	n/a	n/a	-999	10	[0, 0, 0]	n/a	catFR1	2	R1527J
1060.149	0.0	1508720	COUNTDOWN_END	n/a	n/a	n/a	n/a	-999	10	[0, 0, 0]	n/a	catFR1	2	R1527J
1060.149	2.05	1508720	ENCODING_START	n/a	n/a	n/a	n/a	-999	10	[0, 0, 0]	n/a	catFR1	2	R1527J
1062.199	1.601	1510769	WORD	n/a	wordpools/wordpool_categorized_EN.txt	PINE	Trees	1	10	[0, 0, 0]	n/a	catFR1	2	R1527J
1063.8	0.8	1512376	WORD_OFF	n/a	n/a	PINE	Trees	1	10	[0, 0, 0]	n/a	catFR1	2	R1527J
1064.6	1.599	1513175	WORD	n/a	wordpools/wordpool_categorized_EN.txt	CYPRESS	Trees	2	10	[0, 0, 0]	n/a	catFR1	2	R1527J
1066.199	0.817	1514773	WORD_OFF	n/a	n/a	CYPRESS	Trees	2	10	[0, 0, 0]	n/a	catFR1	2	R1527J
1067.016	1.618	1515591	WORD	n/a	wordpools/wordpool_categorized_EN.txt	PASTRY	Desserts	3	10	[0, 0, 0]	n/a	catFR1	2	R1527J
1068.634	0.932	1517207	WORD_OFF	n/a	n/a	PASTRY	Desserts	3	10	[0, 0, 0]	n/a	catFR1	2	R1527J
1069.566	1.6	1518135	WORD	n/a	wordpools/wordpool_categorized_EN.txt	MOUSSE	Desserts	4	10	[0, 0, 0]	n/a	catFR1	2	R1527J
1071.166	0.9	1519743	WORD_OFF	n/a	n/a	MOUSSE	Desserts	4	10	[0, 0, 0]	n/a	catFR1	2	R1527J
1072.066	1.617	1520643	WORD	n/a	wordpools/wordpool_categorized_EN.txt	HAWK	Birds	5	10	[0, 0, 0]	n/a	catFR1	2	R1527J
1073.683	0.933	1522259	WORD_OFF	n/a	n/a	HAWK	Birds	5	10	[0, 0, 0]	n/a	catFR1	2	R1527J
1074.616	1.6	1523187	WORD	n/a	wordpools/wordpool_categorized_EN.txt	BLUEBIRD	Birds	6	10	[0, 0, 0]	n/a	catFR1	2	R1527J
1076.216	1.0	1524785	WORD_OFF	n/a	n/a	BLUEBIRD	Birds	6	10	[0, 0, 0]	n/a	catFR1	2	R1527J
1077.216	1.617	1525786	WORD	n/a	wordpools/wordpool_categorized_EN.txt	CEDAR	Trees	7	10	[0, 0, 0]	n/a	catFR1	2	R1527J
1078.833	0.916	1527403	WORD_OFF	n/a	n/a	CEDAR	Trees	7	10	[0, 0, 0]	n/a	catFR1	2	R1527J
1079.749	1.601	1528322	WORD	n/a	wordpools/wordpool_categorized_EN.txt	SPRUCE	Trees	8	10	[0, 0, 0]	n/a	catFR1	2	R1527J
1081.35	0.983	1529920	WORD_OFF	n/a	n/a	SPRUCE	Trees	8	10	[0, 0, 0]	n/a	catFR1	2	R1527J
1082.333	1.616	1530903	WORD	n/a	wordpools/wordpool_categorized_EN.txt	JELLO	Desserts	9	10	[0, 0, 0]	n/a	catFR1	2	R1527J
1083.949	0.95	1532519	WORD_OFF	n/a	n/a	JELLO	Desserts	9	10	[0, 0, 0]	n/a	catFR1	2	R1527J
1084.899	1.601	1533474	WORD	n/a	wordpools/wordpool_categorized_EN.txt	CHEESECAKE	Desserts	10	10	[0, 0, 0]	n/a	catFR1	2	R1527J
1086.5	0.8	1535073	WORD_OFF	n/a	n/a	CHEESECAKE	Desserts	10	10	[0, 0, 0]	n/a	catFR1	2	R1527J
1087.3	1.6	1535872	WORD	n/a	wordpools/wordpool_categorized_EN.txt	DOVE	Birds	11	10	[0, 0, 0]	n/a	catFR1	2	R1527J
1088.9	0.915	1537470	WORD_OFF	n/a	n/a	DOVE	Birds	11	10	[0, 0, 0]	n/a	catFR1	2	R1527J
1089.815	1.602	1538389	WORD	n/a	wordpools/wordpool_categorized_EN.txt	DUCK	Birds	12	10	[0, 0, 0]	n/a	catFR1	2	R1527J
1091.417	0.0	1539986	PROB	3.098	n/a	n/a	n/a	-999	10	[2, 1, 7]	10.0	catFR1	2	R1527J
1091.416	0.002	1539987	WORD_OFF	n/a	n/a	DUCK	Birds	12	10	[0, 0, 0]	n/a	catFR1	2	R1527J
1091.418	0.0	1539987	ENCODING_END	n/a	n/a	n/a	n/a	-999	10	[0, 0, 0]	n/a	catFR1	2	R1527J
1091.418	0.0	1539987	DISTRACT_START	n/a	n/a	n/a	n/a	-999	10	[0, 0, 0]	n/a	catFR1	2	R1527J
1091.418	3.115	1539987	START	n/a	n/a	n/a	n/a	-999	10	[-999, -999, -999]	n/a	catFR1	2	R1527J
1094.533	3.067	1543102	PROB	3.05	n/a	n/a	n/a	-999	10	[4, 2, 8]	14.0	catFR1	2	R1527J
1097.6	2.083	1546169	PROB	2.066	n/a	n/a	n/a	-999	10	[1, 3, 7]	11.0	catFR1	2	R1527J
1099.683	2.033	1548252	PROB	2.015	n/a	n/a	n/a	-999	10	[1, 1, 2]	4.0	catFR1	2	R1527J
1101.716	3.651	1550284	PROB	3.634	n/a	n/a	n/a	-999	10	[7, 8, 7]	22.0	catFR1	2	R1527J
1105.367	4.166	1553935	PROB	4.149	n/a	n/a	n/a	-999	10	[8, 2, 7]	17.0	catFR1	2	R1527J
1109.533	2.85	1558101	PROB	2.833	n/a	n/a	n/a	-999	10	[6, 8, 4]	18.0	catFR1	2	R1527J
1112.383	0.0	1560951	STOP	n/a	n/a	n/a	n/a	-999	10	[-999, -999, -999]	n/a	catFR1	2	R1527J
1112.383	1.599	1560957	DISTRACT_END	n/a	n/a	n/a	n/a	-999	10	[0, 0, 0]	n/a	catFR1	2	R1527J
1113.982	1.844	1562555	REC_START	n/a	n/a	n/a	n/a	-999	10	[0, 0, 0]	n/a	catFR1	2	R1527J
1115.826	0.869	1564394	REC_WORD	1.844	n/a	PINE	Trees	1	10	[0, 0, 0]	n/a	catFR1	2	R1527J
1116.695	1.746	1565263	REC_WORD	2.713	n/a	CEDAR	Trees	7	10	[0, 0, 0]	n/a	catFR1	2	R1527J
1118.441	1.976	1567009	REC_WORD	4.459	n/a	PASTRY	Desserts	3	10	[0, 0, 0]	n/a	catFR1	2	R1527J
1120.417	2.713	1568984	REC_WORD	6.435	n/a	MOUSSE	Desserts	4	10	[0, 0, 0]	n/a	catFR1	2	R1527J
1123.13	2.175	1571697	REC_WORD	9.148	n/a	BLUEBIRD	Birds	6	10	[0, 0, 0]	n/a	catFR1	2	R1527J
1125.305	7.637	1573872	REC_WORD	11.323	n/a	CYPRESS	Trees	2	10	[0, 0, 0]	n/a	catFR1	2	R1527J
1132.942	1.095	1581509	REC_WORD	18.96	n/a	CHEESECAKE	Desserts	10	10	[0, 0, 0]	n/a	catFR1	2	R1527J
1134.037	10.176	1582604	REC_WORD_VV	20.055	n/a	<>	n/a	-999	10	[0, 0, 0]	n/a	catFR1	2	R1527J
1144.213	1.32	1592783	REC_END	n/a	n/a	n/a	n/a	-999	10	[0, 0, 0]	n/a	catFR1	2	R1527J
1145.533	10.349	1594106	COUNTDOWN_START	n/a	n/a	n/a	n/a	-999	11	[0, 0, 0]	n/a	catFR1	2	R1527J
1155.882	0.0	1604448	COUNTDOWN_END	n/a	n/a	n/a	n/a	-999	11	[0, 0, 0]	n/a	catFR1	2	R1527J
1155.882	2.134	1604448	ENCODING_START	n/a	n/a	n/a	n/a	-999	11	[0, 0, 0]	n/a	catFR1	2	R1527J
1158.016	1.616	1606588	WORD	n/a	wordpools/wordpool_categorized_EN.txt	BEACH	Landscapes	1	11	[0, 0, 0]	n/a	catFR1	2	R1527J
1159.632	0.918	1608196	WORD_OFF	n/a	n/a	BEACH	Landscapes	1	11	[0, 0, 0]	n/a	catFR1	2	R1527J
1160.55	1.616	1609114	WORD	n/a	wordpools/wordpool_categorized_EN.txt	FOREST	Landscapes	2	11	[0, 0, 0]	n/a	catFR1	2	R1527J
1162.166	0.9	1610731	WORD_OFF	n/a	n/a	FOREST	Landscapes	2	11	[0, 0, 0]	n/a	catFR1	2	R1527J
1163.066	1.6	1611631	WORD	n/a	wordpools/wordpool_categorized_EN.txt	FUDGE	Desserts	3	11	[0, 0, 0]	n/a	catFR1	2	R1527J
1164.666	0.9	1613229	WORD_OFF	n/a	n/a	FUDGE	Desserts	3	11	[0, 0, 0]	n/a	catFR1	2	R1527J
1165.566	1.617	1614130	WORD	n/a	wordpools/wordpool_categorized_EN.txt	CAKE	Desserts	4	11	[0, 0, 0]	n/a	catFR1	2	R1527J
1167.183	0.816	1615746	WORD_OFF	n/a	n/a	CAKE	Desserts	4	11	[0, 0, 0]	n/a	catFR1	2	R1527J
1167.999	1.601	1616564	WORD	n/a	wordpools/wordpool_categorized_EN.txt	BIRCH	Trees	5	11	[0, 0, 0]	n/a	catFR1	2	R1527J
1169.6	0.932	1618171	WORD_OFF	n/a	n/a	BIRCH	Trees	5	11	[0, 0, 0]	n/a	catFR1	2	R1527J
1170.532	1.599	1619099	WORD	n/a	wordpools/wordpool_categorized_EN.txt	WILLOW	Trees	6	11	[0, 0, 0]	n/a	catFR1	2	R1527J
1172.131	0.852	1620697	WORD_OFF	n/a	n/a	WILLOW	Trees	6	11	[0, 0, 0]	n/a	catFR1	2	R1527J
1172.983	1.6	1621551	WORD	n/a	wordpools/wordpool_categorized_EN.txt	PIE	Desserts	7	11	[0, 0, 0]	n/a	catFR1	2	R1527J
1174.583	0.983	1623149	WORD_OFF	n/a	n/a	PIE	Desserts	7	11	[0, 0, 0]	n/a	catFR1	2	R1527J
1175.566	1.6	1624132	WORD	n/a	wordpools/wordpool_categorized_EN.txt	BROWNIES	Desserts	8	11	[0, 0, 0]	n/a	catFR1	2	R1527J
1177.166	0.984	1625730	WORD_OFF	n/a	n/a	BROWNIES	Desserts	8	11	[0, 0, 0]	n/a	catFR1	2	R1527J
1178.15	1.6	1626713	WORD	n/a	wordpools/wordpool_categorized_EN.txt	ISLAND	Landscapes	9	11	[0, 0, 0]	n/a	catFR1	2	R1527J
1179.75	0.899	1628321	WORD_OFF	n/a	n/a	ISLAND	Landscapes	9	11	[0, 0, 0]	n/a	catFR1	2	R1527J
1180.649	1.601	1629212	WORD	n/a	wordpools/wordpool_categorized_EN.txt	RIVER	Landscapes	10	11	[0, 0, 0]	n/a	catFR1	2	R1527J
1182.25	0.832	1630819	WORD_OFF	n/a	n/a	RIVER	Landscapes	10	11	[0, 0, 0]	n/a	catFR1	2	R1527J
1183.082	1.601	1631646	WORD	n/a	wordpools/wordpool_categorized_EN.txt	HICKORY	Trees	11	11	[0, 0, 0]	n/a	catFR1	2	R1527J
1184.683	0.883	1633253	WORD_OFF	n/a	n/a	HICKORY	Trees	11	11	[0, 0, 0]	n/a	catFR1	2	R1527J
1185.566	1.601	1634135	WORD	n/a	wordpools/wordpool_categorized_EN.txt	EVERGREEN	Trees	12	11	[0, 0, 0]	n/a	catFR1	2	R1527J
1187.167	0.001	1635731	PROB	3.349	n/a	n/a	n/a	-999	11	[2, 3, 6]	11.0	catFR1	2	R1527J
1187.168	0.0	1635732	START	n/a	n/a	n/a	n/a	-999	11	[-999, -999, -999]	n/a	catFR1	2	R1527J
1187.166	0.002	1635733	WORD_OFF	n/a	n/a	EVERGREEN	Trees	12	11	[0, 0, 0]	n/a	catFR1	2	R1527J
1187.168	0.0	1635733	ENCODING_END	n/a	n/a	n/a	n/a	-999	11	[0, 0, 0]	n/a	catFR1	2	R1527J
1187.168	3.366	1635742	DISTRACT_START	n/a	n/a	n/a	n/a	-999	11	[0, 0, 0]	n/a	catFR1	2	R1527J
1190.534	3.731	1639098	PROB	3.716	n/a	n/a	n/a	-999	11	[6, 2, 2]	10.0	catFR1	2	R1527J
1194.265	2.936	1642828	PROB	2.916	n/a	n/a	n/a	-999	11	[2, 7, 8]	17.0	catFR1	2	R1527J
1197.201	8.663	1645764	PROB	8.65	n/a	n/a	n/a	-999	11	[6, 5, 7]	19.0	catFR1	2	R1527J
1205.864	5.235	1654427	PROB	5.218	n/a	n/a	n/a	-999	11	[4, 2, 5]	11.0	catFR1	2	R1527J
1211.099	0.0	1659660	DISTRACT_END	n/a	n/a	n/a	n/a	-999	11	[0, 0, 0]	n/a	catFR1	2	R1527J
1211.099	1.733	1659662	STOP	n/a	n/a	n/a	n/a	-999	11	[-999, -999, -999]	n/a	catFR1	2	R1527J
1212.832	1.271	1661396	REC_START	n/a	n/a	n/a	n/a	-999	11	[0, 0, 0]	n/a	catFR1	2	R1527J
1214.103	1.163	1662665	REC_WORD	1.271	n/a	BEACH	Landscapes	1	11	[0, 0, 0]	n/a	catFR1	2	R1527J
1215.266	1.808	1663828	REC_WORD	2.434	n/a	CYPRESS	Trees	-999	11	[0, 0, 0]	n/a	catFR1	2	R1527J
1217.074	1.932	1665636	REC_WORD	4.242	n/a	EVERGREEN	Trees	12	11	[0, 0, 0]	n/a	catFR1	2	R1527J
1219.006	2.105	1667568	REC_WORD	6.174	n/a	ISLAND	Landscapes	9	11	[0, 0, 0]	n/a	catFR1	2	R1527J
1221.111	4.568	1669673	REC_WORD	8.279	n/a	RIVER	Landscapes	10	11	[0, 0, 0]	n/a	catFR1	2	R1527J
1225.679	17.376	1674241	REC_WORD_VV	12.847	n/a	<>	n/a	-999	11	[0, 0, 0]	n/a	catFR1	2	R1527J
1243.055	1.577	1691616	REC_END	n/a	n/a	n/a	n/a	-999	11	[0, 0, 0]	n/a	catFR1	2	R1527J
1244.632	10.35	1693196	COUNTDOWN_START	n/a	n/a	n/a	n/a	-999	12	[0, 0, 0]	n/a	catFR1	2	R1527J
1254.982	0.0	1703547	COUNTDOWN_END	n/a	n/a	n/a	n/a	-999	12	[0, 0, 0]	n/a	catFR1	2	R1527J
1254.982	1.901	1703547	ENCODING_START	n/a	n/a	n/a	n/a	-999	12	[0, 0, 0]	n/a	catFR1	2	R1527J
1256.883	1.615	1705449	WORD	n/a	wordpools/wordpool_categorized_EN.txt	THUNDER	Weather	1	12	[0, 0, 0]	n/a	catFR1	2	R1527J
1258.498	0.866	1707065	WORD_OFF	n/a	n/a	THUNDER	Weather	1	12	[0, 0, 0]	n/a	catFR1	2	R1527J
1259.364	1.602	1707929	WORD	n/a	wordpools/wordpool_categorized_EN.txt	FOG	Weather	2	12	[0, 0, 0]	n/a	catFR1	2	R1527J
1260.966	0.884	1709527	WORD_OFF	n/a	n/a	FOG	Weather	2	12	[0, 0, 0]	n/a	catFR1	2	R1527J
1261.85	1.6	1710418	WORD	n/a	wordpools/wordpool_categorized_EN.txt	STREAM	Landscapes	3	12	[0, 0, 0]	n/a	catFR1	2	R1527J
1263.45	0.95	1712016	WORD_OFF	n/a	n/a	STREAM	Landscapes	3	12	[0, 0, 0]	n/a	catFR1	2	R1527J
1264.4	1.616	1712962	WORD	n/a	wordpools/wordpool_categorized_EN.txt	CREEK	Landscapes	4	12	[0, 0, 0]	n/a	catFR1	2	R1527J
1266.016	0.782	1714579	WORD_OFF	n/a	n/a	CREEK	Landscapes	4	12	[0, 0, 0]	n/a	catFR1	2	R1527J
1266.798	1.602	1715359	WORD	n/a	wordpools/wordpool_categorized_EN.txt	MOTORCYCLE	Vehicles	5	12	[0, 0, 0]	n/a	catFR1	2	R1527J
1268.4	0.966	1716958	WORD_OFF	n/a	n/a	MOTORCYCLE	Vehicles	5	12	[0, 0, 0]	n/a	catFR1	2	R1527J
1269.366	1.6	1717931	WORD	n/a	wordpools/wordpool_categorized_EN.txt	SCOOTER	Vehicles	6	12	[0, 0, 0]	n/a	catFR1	2	R1527J
1270.966	0.95	1719529	WORD_OFF	n/a	n/a	SCOOTER	Vehicles	6	12	[0, 0, 0]	n/a	catFR1	2	R1527J
1271.916	1.6	1720476	WORD	n/a	wordpools/wordpool_categorized_EN.txt	MOUNTAIN	Landscapes	7	12	[0, 0, 0]	n/a	catFR1	2	R1527J
1273.516	0.917	1722074	WORD_OFF	n/a	n/a	MOUNTAIN	Landscapes	7	12	[0, 0, 0]	n/a	catFR1	2	R1527J
1274.433	1.6	1722992	WORD	n/a	wordpools/wordpool_categorized_EN.txt	LAKE	Landscapes	8	12	[0, 0, 0]	n/a	catFR1	2	R1527J
1276.033	0.833	1724590	WORD_OFF	n/a	n/a	LAKE	Landscapes	8	12	[0, 0, 0]	n/a	catFR1	2	R1527J
1276.866	1.617	1725426	WORD	n/a	wordpools/wordpool_categorized_EN.txt	TRAIN	Vehicles	9	12	[0, 0, 0]	n/a	catFR1	2	R1527J
1278.483	0.933	1727043	WORD_OFF	n/a	n/a	TRAIN	Vehicles	9	12	[0, 0, 0]	n/a	catFR1	2	R1527J
1279.416	1.617	1727980	WORD	n/a	wordpools/wordpool_categorized_EN.txt	MOPED	Vehicles	10	12	[0, 0, 0]	n/a	catFR1	2	R1527J
1281.033	1.0	1729596	WORD_OFF	n/a	n/a	MOPED	Vehicles	10	12	[0, 0, 0]	n/a	catFR1	2	R1527J
1282.033	1.617	1730598	WORD	n/a	wordpools/wordpool_categorized_EN.txt	LIGHTNING	Weather	11	12	[0, 0, 0]	n/a	catFR1	2	R1527J
1283.65	0.966	1732214	WORD_OFF	n/a	n/a	LIGHTNING	Weather	11	12	[0, 0, 0]	n/a	catFR1	2	R1527J
1284.616	1.615	1733179	WORD	n/a	wordpools/wordpool_categorized_EN.txt	TORNADO	Weather	12	12	[0, 0, 0]	n/a	catFR1	2	R1527J
1286.231	0.001	1734790	START	n/a	n/a	n/a	n/a	-999	12	[-999, -999, -999]	n/a	catFR1	2	R1527J
1286.232	0.0	1734791	PROB	4.868	n/a	n/a	n/a	-999	12	[6, 2, 8]	16.0	catFR1	2	R1527J
1286.23	0.001	1734795	WORD_OFF	n/a	n/a	TORNADO	Weather	12	12	[0, 0, 0]	n/a	catFR1	2	R1527J
1286.231	0.0	1734795	ENCODING_END	n/a	n/a	n/a	n/a	-999	12	[0, 0, 0]	n/a	catFR1	2	R1527J
1286.231	4.885	1734795	DISTRACT_START	n/a	n/a	n/a	n/a	-999	12	[0, 0, 0]	n/a	catFR1	2	R1527J
1291.116	2.85	1739674	PROB	2.832	n/a	n/a	n/a	-999	12	[8, 5, 5]	18.0	catFR1	2	R1527J
1293.966	2.567	1742524	PROB	2.549	n/a	n/a	n/a	-999	12	[7, 3, 6]	16.0	catFR1	2	R1527J
1296.533	3.284	1745091	PROB	3.266	n/a	n/a	n/a	-999	12	[3, 6, 5]	14.0	catFR1	2	R1527J
1299.817	2.398	1748375	PROB	2.383	n/a	n/a	n/a	-999	12	[6, 4, 8]	18.0	catFR1	2	R1527J
1302.215	3.634	1750773	PROB	3.617	n/a	n/a	n/a	-999	12	[7, 4, 4]	15.0	catFR1	2	R1527J
1305.849	3.9	1754407	PROB	3.883	n/a	n/a	n/a	-999	12	[2, 1, 4]	7.0	catFR1	2	R1527J
1309.749	0.0	1758306	STOP	n/a	n/a	n/a	n/a	-999	12	[-999, -999, -999]	n/a	catFR1	2	R1527J
1309.749	1.6	1758309	DISTRACT_END	n/a	n/a	n/a	n/a	-999	12	[0, 0, 0]	n/a	catFR1	2	R1527J
1311.349	0.967	1759907	REC_START	n/a	n/a	n/a	n/a	-999	12	[0, 0, 0]	n/a	catFR1	2	R1527J
1312.316	1.387	1760873	REC_WORD	0.967	n/a	THUNDER	Weather	1	12	[0, 0, 0]	n/a	catFR1	2	R1527J
1313.703	2.795	1762260	REC_WORD	2.354	n/a	FOG	Weather	2	12	[0, 0, 0]	n/a	catFR1	2	R1527J
1316.498	1.649	1765055	REC_WORD	5.149	n/a	CREEK	Landscapes	4	12	[0, 0, 0]	n/a	catFR1	2	R1527J
1318.147	1.624	1766704	REC_WORD	6.798	n/a	MOTORCYCLE	Vehicles	5	12	[0, 0, 0]	n/a	catFR1	2	R1527J
1319.771	1.533	1768328	REC_WORD	8.422	n/a	SCOOTER	Vehicles	6	12	[0, 0, 0]	n/a	catFR1	2	R1527J
1321.304	9.828	1769861	REC_WORD	9.955	n/a	STREAM	Landscapes	3	12	[0, 0, 0]	n/a	catFR1	2	R1527J
1331.132	3.387	1779688	REC_WORD_VV	19.783	n/a	<>	n/a	-999	12	[0, 0, 0]	n/a	catFR1	2	R1527J
1334.519	1.038	1783075	REC_WORD	23.17	n/a	MOUNTAIN	Landscapes	7	12	[0, 0, 0]	n/a	catFR1	2	R1527J
1335.557	3.043	1784113	REC_WORD	24.208	n/a	LIGHTNING	Weather	11	12	[0, 0, 0]	n/a	catFR1	2	R1527J
1338.6	2.969	1787156	REC_WORD	27.251	n/a	TORNADO	Weather	12	12	[0, 0, 0]	n/a	catFR1	2	R1527J
1341.569	0.0	1790127	REC_END	n/a	n/a	n/a	n/a	-999	12	[0, 0, 0]	n/a	catFR1	2	R1527J
