onset	duration	sample	trial_type	response_time	stim_file	item_name	category	serialpos	list	test	answer	experiment	session	subject
0.0	109.653	299	INSTRUCT_START	n/a	n/a	n/a	n/a	-999	-999	[0, 0, 0]	n/a	catFR1	0	R1334T
109.653	3.532	109947	INSTRUCT_END	n/a	n/a	n/a	n/a	-999	-999	[0, 0, 0]	n/a	catFR1	0	R1334T
113.185	7.77	113478	MIC TEST_START	n/a	n/a	n/a	n/a	-999	-999	[0, 0, 0]	n/a	catFR1	0	R1334T
120.955	0.013	121248	MIC TEST_END	n/a	n/a	n/a	n/a	-999	-999	[0, 0, 0]	n/a	catFR1	0	R1334T
120.968	0.001	121261	TRIAL_START	n/a	n/a	n/a	n/a	-999	-1	[0, 0, 0]	n/a	catFR1	0	R1334T
120.969	0.0	121262	TRIAL	n/a	n/a	n/a	n/a	-999	-1	[0, 0, 0]	n/a	catFR1	0	R1334T
120.969	13.722	121262	WAITING_START	n/a	n/a	n/a	n/a	-999	-1	[0, 0, 0]	n/a	catFR1	0	R1334T
134.691	0.0	134983	COUNTDOWN_START	n/a	n/a	n/a	n/a	-999	-1	[0, 0, 0]	n/a	catFR1	0	R1334T
134.691	10.429	134983	WAITING_END	n/a	n/a	n/a	n/a	-999	-1	[0, 0, 0]	n/a	catFR1	0	R1334T
145.12	0.001	145412	COUNTDOWN_END	n/a	n/a	n/a	n/a	-999	-1	[0, 0, 0]	n/a	catFR1	0	R1334T
145.121	1.02	145413	ORIENT_START	n/a	n/a	n/a	n/a	-999	-1	[0, 0, 0]	n/a	catFR1	0	R1334T
146.141	0.001	146433	ORIENT_END	n/a	n/a	n/a	n/a	-999	-1	[0, 0, 0]	n/a	catFR1	0	R1334T
146.142	0.861	146434	ENCODING_START	n/a	n/a	n/a	n/a	-999	-1	[0, 0, 0]	n/a	catFR1	0	R1334T
147.003	1.64	147295	WORD	n/a	n/a	SECOND	n/a	1	-1	[0, 0, 0]	n/a	catFR1	0	R1334T
148.643	0.977	148935	WORD_OFF	n/a	n/a	SECOND	n/a	1	-1	[0, 0, 0]	n/a	catFR1	0	R1334T
149.62	1.623	149912	WORD	n/a	n/a	TEACHER	n/a	2	-1	[0, 0, 0]	n/a	catFR1	0	R1334T
151.243	0.771	151535	WORD_OFF	n/a	n/a	TEACHER	n/a	2	-1	[0, 0, 0]	n/a	catFR1	0	R1334T
152.014	1.63	152306	WORD	n/a	n/a	SILK	n/a	3	-1	[0, 0, 0]	n/a	catFR1	0	R1334T
153.644	0.778	153936	WORD_OFF	n/a	n/a	SILK	n/a	3	-1	[0, 0, 0]	n/a	catFR1	0	R1334T
154.422	1.637	154714	WORD	n/a	n/a	HOUR	n/a	4	-1	[0, 0, 0]	n/a	catFR1	0	R1334T
156.059	0.922	156350	WORD_OFF	n/a	n/a	HOUR	n/a	4	-1	[0, 0, 0]	n/a	catFR1	0	R1334T
156.981	1.63	157272	WORD	n/a	n/a	MINUTE	n/a	5	-1	[0, 0, 0]	n/a	catFR1	0	R1334T
158.611	1.126	158902	WORD_OFF	n/a	n/a	MINUTE	n/a	5	-1	[0, 0, 0]	n/a	catFR1	0	R1334T
159.737	1.625	160028	WORD	n/a	n/a	PLUMBER	n/a	6	-1	[0, 0, 0]	n/a	catFR1	0	R1334T
161.362	0.81	161653	WORD_OFF	n/a	n/a	PLUMBER	n/a	6	-1	[0, 0, 0]	n/a	catFR1	0	R1334T
162.172	1.623	162463	WORD	n/a	n/a	DENIM	n/a	7	-1	[0, 0, 0]	n/a	catFR1	0	R1334T
163.795	0.845	164086	WORD_OFF	n/a	n/a	DENIM	n/a	7	-1	[0, 0, 0]	n/a	catFR1	0	R1334T
164.64	1.622	164931	WORD	n/a	n/a	FARMER	n/a	8	-1	[0, 0, 0]	n/a	catFR1	0	R1334T
166.262	1.087	166553	WORD_OFF	n/a	n/a	FARMER	n/a	8	-1	[0, 0, 0]	n/a	catFR1	0	R1334T
167.349	1.631	167640	WORD	n/a	n/a	LEATHER	n/a	9	-1	[0, 0, 0]	n/a	catFR1	0	R1334T
168.98	0.813	169271	WORD_OFF	n/a	n/a	LEATHER	n/a	9	-1	[0, 0, 0]	n/a	catFR1	0	R1334T
169.793	1.637	170084	WORD	n/a	n/a	FIREMAN	n/a	10	-1	[0, 0, 0]	n/a	catFR1	0	R1334T
171.43	0.802	171721	WORD_OFF	n/a	n/a	FIREMAN	n/a	10	-1	[0, 0, 0]	n/a	catFR1	0	R1334T
172.232	1.632	172523	WORD	n/a	n/a	DAY	n/a	11	-1	[0, 0, 0]	n/a	catFR1	0	R1334T
173.864	1.007	174155	WORD_OFF	n/a	n/a	DAY	n/a	11	-1	[0, 0, 0]	n/a	catFR1	0	R1334T
174.871	1.627	175162	WORD	n/a	n/a	WOOL	n/a	12	-1	[0, 0, 0]	n/a	catFR1	0	R1334T
176.498	0.0	176788	DISTRACT_START	n/a	n/a	n/a	n/a	-999	-1	[0, 0, 0]	n/a	catFR1	0	R1334T
176.498	0.0	176788	WORD_OFF	n/a	n/a	WOOL	n/a	12	-1	[0, 0, 0]	n/a	catFR1	0	R1334T
176.498	0.001	176788	ENCODING_END	n/a	n/a	n/a	n/a	-999	-1	[0, 0, 0]	n/a	catFR1	0	R1334T
176.499	0.015	176789	START	n/a	n/a	n/a	n/a	-999	-1	[-999, -999, -999]	n/a	catFR1	0	R1334T
176.514	4.567	176804	PROB	4.567	n/a	n/a	n/a	-999	-1	[3, 2, 5]	10	catFR1	0	R1334T
181.081	2.951	181371	PROB	2.951	n/a	n/a	n/a	-999	-1	[8, 1, 1]	10	catFR1	0	R1334T
184.032	2.684	184322	PROB	2.684	n/a	n/a	n/a	-999	-1	[2, 2, 4]	8	catFR1	0	R1334T
186.716	2.934	187006	PROB	2.934	n/a	n/a	n/a	-999	-1	[5, 2, 2]	9	catFR1	0	R1334T
189.65	4.317	189940	PROB	4.317	n/a	n/a	n/a	-999	-1	[4, 9, 8]	21	catFR1	0	R1334T
193.967	2.367	194257	PROB	2.367	n/a	n/a	n/a	-999	-1	[3, 3, 1]	7	catFR1	0	R1334T
196.334	6.456	196624	PROB	6.456	n/a	n/a	n/a	-999	-1	[2, 9, 4]	15	catFR1	0	R1334T
202.79	0.012	203079	STOP	n/a	n/a	n/a	n/a	-999	-1	[-999, -999, -999]	n/a	catFR1	0	R1334T
202.802	0.568	203091	DISTRACT_END	n/a	n/a	n/a	n/a	-999	-1	[0, 0, 0]	n/a	catFR1	0	R1334T
203.37	1.583	203659	RETRIEVAL_ORIENT_START	n/a	n/a	n/a	n/a	-999	-1	[0, 0, 0]	n/a	catFR1	0	R1334T
204.953	0.0	205242	RETRIEVAL_ORIENT_END	n/a	n/a	n/a	n/a	-999	-1	[0, 0, 0]	n/a	catFR1	0	R1334T
204.953	1.079	205242	REC_START	n/a	n/a	n/a	n/a	-999	-1	[0, 0, 0]	n/a	catFR1	0	R1334T
206.032	2.228	206321	REC_WORD	2.228	n/a	SECOND	n/a	1	-1	[0, 0, 0]	n/a	catFR1	0	R1334T
208.26	2.911	208549	REC_WORD	2.911	n/a	HOUR	n/a	4	-1	[0, 0, 0]	n/a	catFR1	0	R1334T
211.171	10.005	211460	REC_WORD	10.005	n/a	FIREMAN	n/a	10	-1	[0, 0, 0]	n/a	catFR1	0	R1334T
221.176	13.79	221464	REC_WORD	13.79	n/a	MINUTE	n/a	5	-1	[0, 0, 0]	n/a	catFR1	0	R1334T
234.966	0.0	235254	REC_END	n/a	n/a	n/a	n/a	-999	-1	[0, 0, 0]	n/a	catFR1	0	R1334T
234.966	5.444	235254	PRACTICE_POST_INSTRUCT_START	n/a	n/a	n/a	n/a	-999	-1	[0, 0, 0]	n/a	catFR1	0	R1334T
240.41	0.0	240697	PRACTICE_POST_INSTRUCT_END	n/a	n/a	n/a	n/a	-999	-1	[0, 0, 0]	n/a	catFR1	0	R1334T
240.41	0.026	240697	TRIAL_END	n/a	n/a	n/a	n/a	-999	-1	[0, 0, 0]	n/a	catFR1	0	R1334T
240.436	0.0	240723	TRIAL_START	n/a	n/a	n/a	n/a	-999	1	[0, 0, 0]	n/a	catFR1	0	R1334T
240.436	0.0	240723	TRIAL	n/a	n/a	n/a	n/a	-999	1	[0, 0, 0]	n/a	catFR1	0	R1334T
240.436	51.983	240723	WAITING_START	n/a	n/a	n/a	n/a	-999	1	[0, 0, 0]	n/a	catFR1	0	R1334T
292.419	0.0	292704	COUNTDOWN_START	n/a	n/a	n/a	n/a	-999	1	[0, 0, 0]	n/a	catFR1	0	R1334T
292.419	10.43	292704	WAITING_END	n/a	n/a	n/a	n/a	-999	1	[0, 0, 0]	n/a	catFR1	0	R1334T
302.849	0.0	303134	COUNTDOWN_END	n/a	n/a	n/a	n/a	-999	1	[0, 0, 0]	n/a	catFR1	0	R1334T
302.849	1.105	303134	ORIENT_START	n/a	n/a	n/a	n/a	-999	1	[0, 0, 0]	n/a	catFR1	0	R1334T
303.954	0.0	304238	ORIENT_END	n/a	n/a	n/a	n/a	-999	1	[0, 0, 0]	n/a	catFR1	0	R1334T
303.954	0.817	304238	ENCODING_START	n/a	n/a	n/a	n/a	-999	1	[0, 0, 0]	n/a	catFR1	0	R1334T
304.771	1.634	305055	WORD	n/a	wordpools/wordpool_categorized_EN.txt	BLUEBERRY	Fruit	1	1	[0, 0, 0]	n/a	catFR1	0	R1334T
306.405	0.837	306689	WORD_OFF	n/a	n/a	BLUEBERRY	Fruit	1	1	[0, 0, 0]	n/a	catFR1	0	R1334T
307.242	1.63	307526	WORD	n/a	wordpools/wordpool_categorized_EN.txt	PLUM	Fruit	2	1	[0, 0, 0]	n/a	catFR1	0	R1334T
308.872	0.979	309156	WORD_OFF	n/a	n/a	PLUM	Fruit	2	1	[0, 0, 0]	n/a	catFR1	0	R1334T
309.851	1.638	310135	WORD	n/a	wordpools/wordpool_categorized_EN.txt	PLANKTON	OceanAnimals	3	1	[0, 0, 0]	n/a	catFR1	0	R1334T
311.489	1.109	311773	WORD_OFF	n/a	n/a	PLANKTON	OceanAnimals	3	1	[0, 0, 0]	n/a	catFR1	0	R1334T
312.598	1.625	312882	WORD	n/a	wordpools/wordpool_categorized_EN.txt	OYSTER	OceanAnimals	4	1	[0, 0, 0]	n/a	catFR1	0	R1334T
314.223	1.149	314507	WORD_OFF	n/a	n/a	OYSTER	OceanAnimals	4	1	[0, 0, 0]	n/a	catFR1	0	R1334T
315.372	1.634	315656	WORD	n/a	wordpools/wordpool_categorized_EN.txt	CAULIFLOWER	Vegetables	5	1	[0, 0, 0]	n/a	catFR1	0	R1334T
317.006	0.802	317290	WORD_OFF	n/a	n/a	CAULIFLOWER	Vegetables	5	1	[0, 0, 0]	n/a	catFR1	0	R1334T
317.808	1.632	318092	WORD	n/a	wordpools/wordpool_categorized_EN.txt	LETTUCE	Vegetables	6	1	[0, 0, 0]	n/a	catFR1	0	R1334T
319.44	0.754	319724	WORD_OFF	n/a	n/a	LETTUCE	Vegetables	6	1	[0, 0, 0]	n/a	catFR1	0	R1334T
320.194	1.63	320478	WORD	n/a	wordpools/wordpool_categorized_EN.txt	CRAB	OceanAnimals	7	1	[0, 0, 0]	n/a	catFR1	0	R1334T
321.824	1.057	322108	WORD_OFF	n/a	n/a	CRAB	OceanAnimals	7	1	[0, 0, 0]	n/a	catFR1	0	R1334T
322.881	1.627	323165	WORD	n/a	wordpools/wordpool_categorized_EN.txt	SQUID	OceanAnimals	8	1	[0, 0, 0]	n/a	catFR1	0	R1334T
324.508	1.038	324792	WORD_OFF	n/a	n/a	SQUID	OceanAnimals	8	1	[0, 0, 0]	n/a	catFR1	0	R1334T
325.546	1.628	325829	WORD	n/a	wordpools/wordpool_categorized_EN.txt	PEAR	Fruit	9	1	[0, 0, 0]	n/a	catFR1	0	R1334T
327.174	0.872	327457	WORD_OFF	n/a	n/a	PEAR	Fruit	9	1	[0, 0, 0]	n/a	catFR1	0	R1334T
328.046	1.629	328329	WORD	n/a	wordpools/wordpool_categorized_EN.txt	LEMON	Fruit	10	1	[0, 0, 0]	n/a	catFR1	0	R1334T
329.675	0.902	329958	WORD_OFF	n/a	n/a	LEMON	Fruit	10	1	[0, 0, 0]	n/a	catFR1	0	R1334T
330.577	1.632	330860	WORD	n/a	wordpools/wordpool_categorized_EN.txt	CUCUMBER	Vegetables	11	1	[0, 0, 0]	n/a	catFR1	0	R1334T
332.209	1.042	332492	WORD_OFF	n/a	n/a	CUCUMBER	Vegetables	11	1	[0, 0, 0]	n/a	catFR1	0	R1334T
333.251	1.625	333534	WORD	n/a	wordpools/wordpool_categorized_EN.txt	SPINACH	Vegetables	12	1	[0, 0, 0]	n/a	catFR1	0	R1334T
334.876	0.001	335159	WORD_OFF	n/a	n/a	SPINACH	Vegetables	12	1	[0, 0, 0]	n/a	catFR1	0	R1334T
334.877	0.0	335160	ENCODING_END	n/a	n/a	n/a	n/a	-999	1	[0, 0, 0]	n/a	catFR1	0	R1334T
334.877	0.0	335160	DISTRACT_START	n/a	n/a	n/a	n/a	-999	1	[0, 0, 0]	n/a	catFR1	0	R1334T
334.877	0.016	335160	START	n/a	n/a	n/a	n/a	-999	1	[-999, -999, -999]	n/a	catFR1	0	R1334T
334.893	5.468	335176	PROB	5.468	n/a	n/a	n/a	-999	1	[4, 7, 6]	17	catFR1	0	R1334T
340.361	3.917	340644	PROB	3.917	n/a	n/a	n/a	-999	1	[7, 7, 3]	17	catFR1	0	R1334T
344.278	5.668	344561	PROB	5.668	n/a	n/a	n/a	-999	1	[8, 9, 5]	22	catFR1	0	R1334T
349.946	5.942	350228	PROB	5.942	n/a	n/a	n/a	-999	1	[2, 9, 6]	17	catFR1	0	R1334T
355.888	0.009	356170	STOP	n/a	n/a	n/a	n/a	-999	1	[-999, -999, -999]	n/a	catFR1	0	R1334T
355.897	0.6	356179	DISTRACT_END	n/a	n/a	n/a	n/a	-999	1	[0, 0, 0]	n/a	catFR1	0	R1334T
356.497	1.583	356779	RETRIEVAL_ORIENT_START	n/a	n/a	n/a	n/a	-999	1	[0, 0, 0]	n/a	catFR1	0	R1334T
358.08	0.0	358362	RETRIEVAL_ORIENT_END	n/a	n/a	n/a	n/a	-999	1	[0, 0, 0]	n/a	catFR1	0	R1334T
358.08	1.486	358362	REC_START	n/a	n/a	n/a	n/a	-999	1	[0, 0, 0]	n/a	catFR1	0	R1334T
359.566	0.962	359848	REC_WORD	0.962	n/a	PLUM	Fruit	2	1	[0, 0, 0]	n/a	catFR1	0	R1334T
360.528	1.547	360810	REC_WORD	1.547	n/a	PRUNE	n/a	-999	1	[0, 0, 0]	n/a	catFR1	0	R1334T
362.075	1.826	362357	REC_WORD	1.826	n/a	SQUID	OceanAnimals	8	1	[0, 0, 0]	n/a	catFR1	0	R1334T
363.901	1.207	364183	REC_WORD	1.207	n/a	CUCUMBER	Vegetables	11	1	[0, 0, 0]	n/a	catFR1	0	R1334T
365.108	7.594	365390	REC_WORD	7.594	n/a	SPINACH	Vegetables	12	1	[0, 0, 0]	n/a	catFR1	0	R1334T
372.702	15.392	372983	REC_WORD	15.392	n/a	LETTUCE	Vegetables	6	1	[0, 0, 0]	n/a	catFR1	0	R1334T
388.094	0.0	388375	REC_END	n/a	n/a	n/a	n/a	-999	1	[0, 0, 0]	n/a	catFR1	0	R1334T
388.094	0.025	388375	TRIAL_END	n/a	n/a	n/a	n/a	-999	1	[0, 0, 0]	n/a	catFR1	0	R1334T
388.119	0.0	388400	TRIAL_START	n/a	n/a	n/a	n/a	-999	2	[0, 0, 0]	n/a	catFR1	0	R1334T
388.119	0.0	388400	TRIAL	n/a	n/a	n/a	n/a	-999	2	[0, 0, 0]	n/a	catFR1	0	R1334T
388.119	1.851	388400	WAITING_START	n/a	n/a	n/a	n/a	-999	2	[0, 0, 0]	n/a	catFR1	0	R1334T
389.97	0.0	390250	COUNTDOWN_START	n/a	n/a	n/a	n/a	-999	2	[0, 0, 0]	n/a	catFR1	0	R1334T
389.97	10.43	390250	WAITING_END	n/a	n/a	n/a	n/a	-999	2	[0, 0, 0]	n/a	catFR1	0	R1334T
400.4	0.0	400680	COUNTDOWN_END	n/a	n/a	n/a	n/a	-999	2	[0, 0, 0]	n/a	catFR1	0	R1334T
400.4	1.022	400680	ORIENT_START	n/a	n/a	n/a	n/a	-999	2	[0, 0, 0]	n/a	catFR1	0	R1334T
401.422	0.0	401702	ORIENT_END	n/a	n/a	n/a	n/a	-999	2	[0, 0, 0]	n/a	catFR1	0	R1334T
401.422	1.073	401702	ENCODING_START	n/a	n/a	n/a	n/a	-999	2	[0, 0, 0]	n/a	catFR1	0	R1334T
402.495	1.626	402775	WORD	n/a	wordpools/wordpool_categorized_EN.txt	SPARROW	Birds	1	2	[0, 0, 0]	n/a	catFR1	0	R1334T
404.121	1.006	404401	WORD_OFF	n/a	n/a	SPARROW	Birds	1	2	[0, 0, 0]	n/a	catFR1	0	R1334T
405.127	1.629	405407	WORD	n/a	wordpools/wordpool_categorized_EN.txt	DOVE	Birds	2	2	[0, 0, 0]	n/a	catFR1	0	R1334T
406.756	0.928	407036	WORD_OFF	n/a	n/a	DOVE	Birds	2	2	[0, 0, 0]	n/a	catFR1	0	R1334T
407.684	1.623	407964	WORD	n/a	wordpools/wordpool_categorized_EN.txt	GUITAR	Instruments	3	2	[0, 0, 0]	n/a	catFR1	0	R1334T
409.307	0.896	409587	WORD_OFF	n/a	n/a	GUITAR	Instruments	3	2	[0, 0, 0]	n/a	catFR1	0	R1334T
410.203	1.637	410482	WORD	n/a	wordpools/wordpool_categorized_EN.txt	BANJO	Instruments	4	2	[0, 0, 0]	n/a	catFR1	0	R1334T
411.84	0.898	412119	WORD_OFF	n/a	n/a	BANJO	Instruments	4	2	[0, 0, 0]	n/a	catFR1	0	R1334T
412.738	1.636	413017	WORD	n/a	wordpools/wordpool_categorized_EN.txt	JEEP	Vehicles	5	2	[0, 0, 0]	n/a	catFR1	0	R1334T
414.374	1.12	414653	WORD_OFF	n/a	n/a	JEEP	Vehicles	5	2	[0, 0, 0]	n/a	catFR1	0	R1334T
415.494	1.629	415773	WORD	n/a	wordpools/wordpool_categorized_EN.txt	PLANE	Vehicles	6	2	[0, 0, 0]	n/a	catFR1	0	R1334T
417.123	0.812	417402	WORD_OFF	n/a	n/a	PLANE	Vehicles	6	2	[0, 0, 0]	n/a	catFR1	0	R1334T
417.935	1.624	418214	WORD	n/a	wordpools/wordpool_categorized_EN.txt	TRUMPET	Instruments	7	2	[0, 0, 0]	n/a	catFR1	0	R1334T
419.559	1.013	419838	WORD_OFF	n/a	n/a	TRUMPET	Instruments	7	2	[0, 0, 0]	n/a	catFR1	0	R1334T
420.572	1.637	420851	WORD	n/a	wordpools/wordpool_categorized_EN.txt	VIOLIN	Instruments	8	2	[0, 0, 0]	n/a	catFR1	0	R1334T
422.209	0.963	422488	WORD_OFF	n/a	n/a	VIOLIN	Instruments	8	2	[0, 0, 0]	n/a	catFR1	0	R1334T
423.172	1.637	423451	WORD	n/a	wordpools/wordpool_categorized_EN.txt	CARDINAL	Birds	9	2	[0, 0, 0]	n/a	catFR1	0	R1334T
424.809	1.031	425088	WORD_OFF	n/a	n/a	CARDINAL	Birds	9	2	[0, 0, 0]	n/a	catFR1	0	R1334T
425.84	1.637	426119	WORD	n/a	wordpools/wordpool_categorized_EN.txt	SEAGULL	Birds	10	2	[0, 0, 0]	n/a	catFR1	0	R1334T
427.477	1.057	427756	WORD_OFF	n/a	n/a	SEAGULL	Birds	10	2	[0, 0, 0]	n/a	catFR1	0	R1334T
428.534	1.625	428813	WORD	n/a	wordpools/wordpool_categorized_EN.txt	TRUCK	Vehicles	11	2	[0, 0, 0]	n/a	catFR1	0	R1334T
430.159	0.821	430438	WORD_OFF	n/a	n/a	TRUCK	Vehicles	11	2	[0, 0, 0]	n/a	catFR1	0	R1334T
430.98	1.631	431259	WORD	n/a	wordpools/wordpool_categorized_EN.txt	BIKE	Vehicles	12	2	[0, 0, 0]	n/a	catFR1	0	R1334T
432.611	0.0	432889	DISTRACT_START	n/a	n/a	n/a	n/a	-999	2	[0, 0, 0]	n/a	catFR1	0	R1334T
432.611	0.0	432889	WORD_OFF	n/a	n/a	BIKE	Vehicles	12	2	[0, 0, 0]	n/a	catFR1	0	R1334T
432.611	0.001	432889	ENCODING_END	n/a	n/a	n/a	n/a	-999	2	[0, 0, 0]	n/a	catFR1	0	R1334T
432.612	0.015	432890	START	n/a	n/a	n/a	n/a	-999	2	[-999, -999, -999]	n/a	catFR1	0	R1334T
432.627	3.768	432905	PROB	3.768	n/a	n/a	n/a	-999	2	[8, 8, 8]	24	catFR1	0	R1334T
436.395	9.135	436673	PROB	9.135	n/a	n/a	n/a	-999	2	[6, 2, 7]	15	catFR1	0	R1334T
445.53	3.2	445808	PROB	3.2	n/a	n/a	n/a	-999	2	[6, 2, 3]	11	catFR1	0	R1334T
448.73	3.217	449008	PROB	3.217	n/a	n/a	n/a	-999	2	[6, 5, 1]	12	catFR1	0	R1334T
451.947	3.384	452225	PROB	3.384	n/a	n/a	n/a	-999	2	[7, 2, 9]	18	catFR1	0	R1334T
455.331	0.017	455608	STOP	n/a	n/a	n/a	n/a	-999	2	[-999, -999, -999]	n/a	catFR1	0	R1334T
455.348	0.553	455625	DISTRACT_END	n/a	n/a	n/a	n/a	-999	2	[0, 0, 0]	n/a	catFR1	0	R1334T
455.901	1.665	456178	RETRIEVAL_ORIENT_START	n/a	n/a	n/a	n/a	-999	2	[0, 0, 0]	n/a	catFR1	0	R1334T
457.566	0.0	457843	RETRIEVAL_ORIENT_END	n/a	n/a	n/a	n/a	-999	2	[0, 0, 0]	n/a	catFR1	0	R1334T
457.566	0.0	457843	REC_START	n/a	n/a	n/a	n/a	-999	2	[0, 0, 0]	n/a	catFR1	0	R1334T
457.566	1.609	457843	REC_WORD	1.609	n/a	SEAGULL	Birds	10	2	[0, 0, 0]	n/a	catFR1	0	R1334T
459.175	1.836	459452	REC_WORD	1.836	n/a	TRIKE	n/a	-999	2	[0, 0, 0]	n/a	catFR1	0	R1334T
461.011	3.93	461288	REC_WORD	3.93	n/a	TRUCK	Vehicles	11	2	[0, 0, 0]	n/a	catFR1	0	R1334T
464.941	1.117	465218	REC_WORD_VV	1.117	n/a	<>	n/a	-999	2	[0, 0, 0]	n/a	catFR1	0	R1334T
466.058	1.26	466335	REC_WORD	1.26	n/a	SPARROW	Birds	1	2	[0, 0, 0]	n/a	catFR1	0	R1334T
467.318	20.261	467595	REC_WORD	20.261	n/a	BIRD	n/a	-999	2	[0, 0, 0]	n/a	catFR1	0	R1334T
487.579	0.0	487855	REC_END	n/a	n/a	n/a	n/a	-999	2	[0, 0, 0]	n/a	catFR1	0	R1334T
487.579	0.021	487855	TRIAL_END	n/a	n/a	n/a	n/a	-999	2	[0, 0, 0]	n/a	catFR1	0	R1334T
487.6	0.001	487876	TRIAL_START	n/a	n/a	n/a	n/a	-999	3	[0, 0, 0]	n/a	catFR1	0	R1334T
487.601	0.0	487877	WAITING_START	n/a	n/a	n/a	n/a	-999	3	[0, 0, 0]	n/a	catFR1	0	R1334T
487.601	1.654	487877	TRIAL	n/a	n/a	n/a	n/a	-999	3	[0, 0, 0]	n/a	catFR1	0	R1334T
489.255	0.0	489531	COUNTDOWN_START	n/a	n/a	n/a	n/a	-999	3	[0, 0, 0]	n/a	catFR1	0	R1334T
489.255	10.428	489531	WAITING_END	n/a	n/a	n/a	n/a	-999	3	[0, 0, 0]	n/a	catFR1	0	R1334T
499.683	0.0	499958	COUNTDOWN_END	n/a	n/a	n/a	n/a	-999	3	[0, 0, 0]	n/a	catFR1	0	R1334T
499.683	1.024	499958	ORIENT_START	n/a	n/a	n/a	n/a	-999	3	[0, 0, 0]	n/a	catFR1	0	R1334T
500.707	0.0	500982	ORIENT_END	n/a	n/a	n/a	n/a	-999	3	[0, 0, 0]	n/a	catFR1	0	R1334T
500.707	1.118	500982	ENCODING_START	n/a	n/a	n/a	n/a	-999	3	[0, 0, 0]	n/a	catFR1	0	R1334T
501.825	1.632	502100	WORD	n/a	wordpools/wordpool_categorized_EN.txt	TOASTER	Appliances	1	3	[0, 0, 0]	n/a	catFR1	0	R1334T
503.457	1.086	503732	WORD_OFF	n/a	n/a	TOASTER	Appliances	1	3	[0, 0, 0]	n/a	catFR1	0	R1334T
504.543	1.63	504818	WORD	n/a	wordpools/wordpool_categorized_EN.txt	REFRIGERATOR	Appliances	2	3	[0, 0, 0]	n/a	catFR1	0	R1334T
506.173	1.061	506448	WORD_OFF	n/a	n/a	REFRIGERATOR	Appliances	2	3	[0, 0, 0]	n/a	catFR1	0	R1334T
507.234	1.624	507509	WORD	n/a	wordpools/wordpool_categorized_EN.txt	CEILING	Building	3	3	[0, 0, 0]	n/a	catFR1	0	R1334T
508.858	1.149	509133	WORD_OFF	n/a	n/a	CEILING	Building	3	3	[0, 0, 0]	n/a	catFR1	0	R1334T
510.007	1.635	510282	WORD	n/a	wordpools/wordpool_categorized_EN.txt	ROOM	Building	4	3	[0, 0, 0]	n/a	catFR1	0	R1334T
511.642	0.844	511917	WORD_OFF	n/a	n/a	ROOM	Building	4	3	[0, 0, 0]	n/a	catFR1	0	R1334T
512.486	1.622	512761	WORD	n/a	wordpools/wordpool_categorized_EN.txt	GRATER	KitchenTools	5	3	[0, 0, 0]	n/a	catFR1	0	R1334T
514.108	0.761	514383	WORD_OFF	n/a	n/a	GRATER	KitchenTools	5	3	[0, 0, 0]	n/a	catFR1	0	R1334T
514.869	1.624	515144	WORD	n/a	wordpools/wordpool_categorized_EN.txt	SPATULA	KitchenTools	6	3	[0, 0, 0]	n/a	catFR1	0	R1334T
516.493	1.046	516767	WORD_OFF	n/a	n/a	SPATULA	KitchenTools	6	3	[0, 0, 0]	n/a	catFR1	0	R1334T
517.539	1.637	517813	WORD	n/a	wordpools/wordpool_categorized_EN.txt	ROOF	Building	7	3	[0, 0, 0]	n/a	catFR1	0	R1334T
519.176	0.77	519450	WORD_OFF	n/a	n/a	ROOF	Building	7	3	[0, 0, 0]	n/a	catFR1	0	R1334T
519.946	1.631	520220	WORD	n/a	wordpools/wordpool_categorized_EN.txt	HALLWAY	Building	8	3	[0, 0, 0]	n/a	catFR1	0	R1334T
521.577	1.049	521851	WORD_OFF	n/a	n/a	HALLWAY	Building	8	3	[0, 0, 0]	n/a	catFR1	0	R1334T
522.626	1.635	522900	WORD	n/a	wordpools/wordpool_categorized_EN.txt	PEELER	KitchenTools	9	3	[0, 0, 0]	n/a	catFR1	0	R1334T
524.261	1.033	524535	WORD_OFF	n/a	n/a	PEELER	KitchenTools	9	3	[0, 0, 0]	n/a	catFR1	0	R1334T
525.294	1.634	525568	WORD	n/a	wordpools/wordpool_categorized_EN.txt	TONGS	KitchenTools	10	3	[0, 0, 0]	n/a	catFR1	0	R1334T
526.928	1.046	527202	WORD_OFF	n/a	n/a	TONGS	KitchenTools	10	3	[0, 0, 0]	n/a	catFR1	0	R1334T
527.974	1.621	528248	WORD	n/a	wordpools/wordpool_categorized_EN.txt	OVEN	Appliances	11	3	[0, 0, 0]	n/a	catFR1	0	R1334T
529.595	1.08	529869	WORD_OFF	n/a	n/a	OVEN	Appliances	11	3	[0, 0, 0]	n/a	catFR1	0	R1334T
530.675	1.637	530949	WORD	n/a	wordpools/wordpool_categorized_EN.txt	BLENDER	Appliances	12	3	[0, 0, 0]	n/a	catFR1	0	R1334T
532.312	0.001	532586	WORD_OFF	n/a	n/a	BLENDER	Appliances	12	3	[0, 0, 0]	n/a	catFR1	0	R1334T
532.313	0.0	532587	ENCODING_END	n/a	n/a	n/a	n/a	-999	3	[0, 0, 0]	n/a	catFR1	0	R1334T
532.313	0.001	532587	DISTRACT_START	n/a	n/a	n/a	n/a	-999	3	[0, 0, 0]	n/a	catFR1	0	R1334T
532.314	0.015	532588	START	n/a	n/a	n/a	n/a	-999	3	[-999, -999, -999]	n/a	catFR1	0	R1334T
532.329	7.935	532603	PROB	7.935	n/a	n/a	n/a	-999	3	[4, 8, 9]	21	catFR1	0	R1334T
540.264	3.95	540537	PROB	3.95	n/a	n/a	n/a	-999	3	[8, 4, 7]	19	catFR1	0	R1334T
544.214	4.351	544487	PROB	4.351	n/a	n/a	n/a	-999	3	[9, 3, 4]	16	catFR1	0	R1334T
548.565	3.734	548838	PROB	3.734	n/a	n/a	n/a	-999	3	[8, 5, 6]	19	catFR1	0	R1334T
552.299	3.547	552572	PROB	3.547	n/a	n/a	n/a	-999	3	[3, 9, 6]	18	catFR1	0	R1334T
555.846	0.021	556119	STOP	n/a	n/a	n/a	n/a	-999	3	[-999, -999, -999]	n/a	catFR1	0	R1334T
555.867	0.521	556140	DISTRACT_END	n/a	n/a	n/a	n/a	-999	3	[0, 0, 0]	n/a	catFR1	0	R1334T
556.388	1.629	556661	RETRIEVAL_ORIENT_START	n/a	n/a	n/a	n/a	-999	3	[0, 0, 0]	n/a	catFR1	0	R1334T
558.017	0.0	558290	RETRIEVAL_ORIENT_END	n/a	n/a	n/a	n/a	-999	3	[0, 0, 0]	n/a	catFR1	0	R1334T
558.017	0.333	558290	REC_START	n/a	n/a	n/a	n/a	-999	3	[0, 0, 0]	n/a	catFR1	0	R1334T
558.35	1.9	558623	REC_WORD	1.9	n/a	TOASTER	Appliances	1	3	[0, 0, 0]	n/a	catFR1	0	R1334T
560.25	1.561	560522	REC_WORD	1.561	n/a	OVEN	Appliances	11	3	[0, 0, 0]	n/a	catFR1	0	R1334T
561.811	1.411	562083	REC_WORD	1.411	n/a	ROOF	Building	7	3	[0, 0, 0]	n/a	catFR1	0	R1334T
563.222	1.482	563494	REC_WORD	1.482	n/a	CEILING	Building	3	3	[0, 0, 0]	n/a	catFR1	0	R1334T
564.704	2.383	564976	REC_WORD	2.383	n/a	SPATULA	KitchenTools	6	3	[0, 0, 0]	n/a	catFR1	0	R1334T
567.087	7.152	567359	REC_WORD	7.152	n/a	TONGS	KitchenTools	10	3	[0, 0, 0]	n/a	catFR1	0	R1334T
574.239	7.662	574511	REC_WORD	7.662	n/a	FORK	n/a	-999	3	[0, 0, 0]	n/a	catFR1	0	R1334T
581.901	6.131	582172	REC_WORD	6.131	n/a	REFRIGERATOR	Appliances	2	3	[0, 0, 0]	n/a	catFR1	0	R1334T
588.032	0.0	588303	REC_END	n/a	n/a	n/a	n/a	-999	3	[0, 0, 0]	n/a	catFR1	0	R1334T
588.032	0.024	588303	TRIAL_END	n/a	n/a	n/a	n/a	-999	3	[0, 0, 0]	n/a	catFR1	0	R1334T
588.056	0.0	588327	WAITING_START	n/a	n/a	n/a	n/a	-999	4	[0, 0, 0]	n/a	catFR1	0	R1334T
588.056	0.0	588327	TRIAL	n/a	n/a	n/a	n/a	-999	4	[0, 0, 0]	n/a	catFR1	0	R1334T
588.056	1.733	588327	TRIAL_START	n/a	n/a	n/a	n/a	-999	4	[0, 0, 0]	n/a	catFR1	0	R1334T
589.789	0.001	590060	WAITING_END	n/a	n/a	n/a	n/a	-999	4	[0, 0, 0]	n/a	catFR1	0	R1334T
589.79	10.429	590061	COUNTDOWN_START	n/a	n/a	n/a	n/a	-999	4	[0, 0, 0]	n/a	catFR1	0	R1334T
600.219	0.0	600490	COUNTDOWN_END	n/a	n/a	n/a	n/a	-999	4	[0, 0, 0]	n/a	catFR1	0	R1334T
600.219	1.089	600490	ORIENT_START	n/a	n/a	n/a	n/a	-999	4	[0, 0, 0]	n/a	catFR1	0	R1334T
601.308	0.001	601579	ORIENT_END	n/a	n/a	n/a	n/a	-999	4	[0, 0, 0]	n/a	catFR1	0	R1334T
601.309	0.836	601580	ENCODING_START	n/a	n/a	n/a	n/a	-999	4	[0, 0, 0]	n/a	catFR1	0	R1334T
602.145	1.63	602415	WORD	n/a	wordpools/wordpool_categorized_EN.txt	BARBIE	Toys	1	4	[0, 0, 0]	n/a	catFR1	0	R1334T
603.775	0.956	604045	WORD_OFF	n/a	n/a	BARBIE	Toys	1	4	[0, 0, 0]	n/a	catFR1	0	R1334T
604.731	1.628	605001	WORD	n/a	wordpools/wordpool_categorized_EN.txt	BALL	Toys	2	4	[0, 0, 0]	n/a	catFR1	0	R1334T
606.359	0.889	606629	WORD_OFF	n/a	n/a	BALL	Toys	2	4	[0, 0, 0]	n/a	catFR1	0	R1334T
607.248	1.628	607518	WORD	n/a	wordpools/wordpool_categorized_EN.txt	WALNUT	Trees	3	4	[0, 0, 0]	n/a	catFR1	0	R1334T
608.876	0.829	609146	WORD_OFF	n/a	n/a	WALNUT	Trees	3	4	[0, 0, 0]	n/a	catFR1	0	R1334T
609.705	1.638	609975	WORD	n/a	wordpools/wordpool_categorized_EN.txt	SPRUCE	Trees	4	4	[0, 0, 0]	n/a	catFR1	0	R1334T
611.343	0.758	611613	WORD_OFF	n/a	n/a	SPRUCE	Trees	4	4	[0, 0, 0]	n/a	catFR1	0	R1334T
612.101	1.609	612371	WORD	n/a	wordpools/wordpool_categorized_EN.txt	THUNDER	Weather	5	4	[0, 0, 0]	n/a	catFR1	0	R1334T
613.71	1.046	613980	WORD_OFF	n/a	n/a	THUNDER	Weather	5	4	[0, 0, 0]	n/a	catFR1	0	R1334T
614.756	1.638	615026	WORD	n/a	wordpools/wordpool_categorized_EN.txt	HURRICANE	Weather	6	4	[0, 0, 0]	n/a	catFR1	0	R1334T
616.394	1.064	616664	WORD_OFF	n/a	n/a	HURRICANE	Weather	6	4	[0, 0, 0]	n/a	catFR1	0	R1334T
617.458	1.636	617728	WORD	n/a	wordpools/wordpool_categorized_EN.txt	MARBLES	Toys	7	4	[0, 0, 0]	n/a	catFR1	0	R1334T
619.094	1.003	619364	WORD_OFF	n/a	n/a	MARBLES	Toys	7	4	[0, 0, 0]	n/a	catFR1	0	R1334T
620.097	1.632	620367	WORD	n/a	wordpools/wordpool_categorized_EN.txt	PUZZLE	Toys	8	4	[0, 0, 0]	n/a	catFR1	0	R1334T
621.729	0.935	621999	WORD_OFF	n/a	n/a	PUZZLE	Toys	8	4	[0, 0, 0]	n/a	catFR1	0	R1334T
622.664	1.615	622934	WORD	n/a	wordpools/wordpool_categorized_EN.txt	CEDAR	Trees	9	4	[0, 0, 0]	n/a	catFR1	0	R1334T
624.279	0.98	624548	WORD_OFF	n/a	n/a	CEDAR	Trees	9	4	[0, 0, 0]	n/a	catFR1	0	R1334T
625.259	1.637	625528	WORD	n/a	wordpools/wordpool_categorized_EN.txt	MAPLE	Trees	10	4	[0, 0, 0]	n/a	catFR1	0	R1334T
626.896	1.017	627165	WORD_OFF	n/a	n/a	MAPLE	Trees	10	4	[0, 0, 0]	n/a	catFR1	0	R1334T
627.913	1.634	628182	WORD	n/a	wordpools/wordpool_categorized_EN.txt	SNOW	Weather	11	4	[0, 0, 0]	n/a	catFR1	0	R1334T
629.547	0.963	629816	WORD_OFF	n/a	n/a	SNOW	Weather	11	4	[0, 0, 0]	n/a	catFR1	0	R1334T
630.51	1.636	630779	WORD	n/a	wordpools/wordpool_categorized_EN.txt	FOG	Weather	12	4	[0, 0, 0]	n/a	catFR1	0	R1334T
632.146	0.0	632415	WORD_OFF	n/a	n/a	FOG	Weather	12	4	[0, 0, 0]	n/a	catFR1	0	R1334T
632.146	0.001	632415	ENCODING_END	n/a	n/a	n/a	n/a	-999	4	[0, 0, 0]	n/a	catFR1	0	R1334T
632.147	0.0	632416	DISTRACT_START	n/a	n/a	n/a	n/a	-999	4	[0, 0, 0]	n/a	catFR1	0	R1334T
632.147	0.016	632416	START	n/a	n/a	n/a	n/a	-999	4	[-999, -999, -999]	n/a	catFR1	0	R1334T
632.163	5.468	632432	PROB	5.468	n/a	n/a	n/a	-999	4	[4, 4, 8]	16	catFR1	0	R1334T
637.631	2.767	637900	PROB	2.767	n/a	n/a	n/a	-999	4	[1, 1, 3]	5	catFR1	0	R1334T
640.398	3.268	640667	PROB	3.268	n/a	n/a	n/a	-999	4	[3, 1, 3]	7	catFR1	0	R1334T
643.666	2.583	643935	PROB	2.583	n/a	n/a	n/a	-999	4	[1, 4, 5]	10	catFR1	0	R1334T
646.249	2.85	646517	PROB	2.85	n/a	n/a	n/a	-999	4	[4, 2, 8]	14	catFR1	0	R1334T
649.099	2.885	649367	PROB	2.885	n/a	n/a	n/a	-999	4	[5, 4, 1]	10	catFR1	0	R1334T
651.984	5.895	652252	PROB	5.895	n/a	n/a	n/a	-999	4	[9, 5, 6]	20	catFR1	0	R1334T
657.879	0.023	658147	STOP	n/a	n/a	n/a	n/a	-999	4	[-999, -999, -999]	n/a	catFR1	0	R1334T
657.902	0.643	658170	DISTRACT_END	n/a	n/a	n/a	n/a	-999	4	[0, 0, 0]	n/a	catFR1	0	R1334T
658.545	1.539	658813	RETRIEVAL_ORIENT_START	n/a	n/a	n/a	n/a	-999	4	[0, 0, 0]	n/a	catFR1	0	R1334T
660.084	0.001	660352	RETRIEVAL_ORIENT_END	n/a	n/a	n/a	n/a	-999	4	[0, 0, 0]	n/a	catFR1	0	R1334T
660.085	0.832	660353	REC_START	n/a	n/a	n/a	n/a	-999	4	[0, 0, 0]	n/a	catFR1	0	R1334T
660.917	2.827	661185	REC_WORD	2.827	n/a	MAPLE	Trees	10	4	[0, 0, 0]	n/a	catFR1	0	R1334T
663.744	6.78	664012	REC_WORD	6.78	n/a	SNOW	Weather	11	4	[0, 0, 0]	n/a	catFR1	0	R1334T
670.524	19.574	670791	REC_WORD	19.574	n/a	TABLE	n/a	-999	4	[0, 0, 0]	n/a	catFR1	0	R1334T
690.098	0.0	690364	REC_END	n/a	n/a	n/a	n/a	-999	4	[0, 0, 0]	n/a	catFR1	0	R1334T
690.098	0.022	690364	TRIAL_END	n/a	n/a	n/a	n/a	-999	4	[0, 0, 0]	n/a	catFR1	0	R1334T
690.12	0.0	690386	TRIAL_START	n/a	n/a	n/a	n/a	-999	5	[0, 0, 0]	n/a	catFR1	0	R1334T
690.12	0.0	690386	TRIAL	n/a	n/a	n/a	n/a	-999	5	[0, 0, 0]	n/a	catFR1	0	R1334T
690.12	1.738	690386	WAITING_START	n/a	n/a	n/a	n/a	-999	5	[0, 0, 0]	n/a	catFR1	0	R1334T
691.858	0.001	692124	WAITING_END	n/a	n/a	n/a	n/a	-999	5	[0, 0, 0]	n/a	catFR1	0	R1334T
691.859	10.428	692125	COUNTDOWN_START	n/a	n/a	n/a	n/a	-999	5	[0, 0, 0]	n/a	catFR1	0	R1334T
702.287	0.001	702553	COUNTDOWN_END	n/a	n/a	n/a	n/a	-999	5	[0, 0, 0]	n/a	catFR1	0	R1334T
702.288	1.205	702554	ORIENT_START	n/a	n/a	n/a	n/a	-999	5	[0, 0, 0]	n/a	catFR1	0	R1334T
703.493	0.001	703759	ORIENT_END	n/a	n/a	n/a	n/a	-999	5	[0, 0, 0]	n/a	catFR1	0	R1334T
703.494	1.07	703760	ENCODING_START	n/a	n/a	n/a	n/a	-999	5	[0, 0, 0]	n/a	catFR1	0	R1334T
704.564	1.63	704830	WORD	n/a	wordpools/wordpool_categorized_EN.txt	IRON	Appliances	1	5	[0, 0, 0]	n/a	catFR1	0	R1334T
706.194	0.887	706460	WORD_OFF	n/a	n/a	IRON	Appliances	1	5	[0, 0, 0]	n/a	catFR1	0	R1334T
707.081	1.613	707347	WORD	n/a	wordpools/wordpool_categorized_EN.txt	VACUUM	Appliances	2	5	[0, 0, 0]	n/a	catFR1	0	R1334T
708.694	0.921	708959	WORD_OFF	n/a	n/a	VACUUM	Appliances	2	5	[0, 0, 0]	n/a	catFR1	0	R1334T
709.615	1.63	709880	WORD	n/a	wordpools/wordpool_categorized_EN.txt	ARM	BodyParts	3	5	[0, 0, 0]	n/a	catFR1	0	R1334T
711.245	0.979	711510	WORD_OFF	n/a	n/a	ARM	BodyParts	3	5	[0, 0, 0]	n/a	catFR1	0	R1334T
712.224	1.621	712489	WORD	n/a	wordpools/wordpool_categorized_EN.txt	EYE	BodyParts	4	5	[0, 0, 0]	n/a	catFR1	0	R1334T
713.845	1.145	714110	WORD_OFF	n/a	n/a	EYE	BodyParts	4	5	[0, 0, 0]	n/a	catFR1	0	R1334T
714.99	1.622	715255	WORD	n/a	wordpools/wordpool_categorized_EN.txt	BUS	Vehicles	5	5	[0, 0, 0]	n/a	catFR1	0	R1334T
716.612	0.824	716877	WORD_OFF	n/a	n/a	BUS	Vehicles	5	5	[0, 0, 0]	n/a	catFR1	0	R1334T
717.436	1.626	717701	WORD	n/a	wordpools/wordpool_categorized_EN.txt	MOTORCYCLE	Vehicles	6	5	[0, 0, 0]	n/a	catFR1	0	R1334T
719.062	0.807	719327	WORD_OFF	n/a	n/a	MOTORCYCLE	Vehicles	6	5	[0, 0, 0]	n/a	catFR1	0	R1334T
719.869	1.628	720134	WORD	n/a	wordpools/wordpool_categorized_EN.txt	HEAD	BodyParts	7	5	[0, 0, 0]	n/a	catFR1	0	R1334T
721.497	1.04	721762	WORD_OFF	n/a	n/a	HEAD	BodyParts	7	5	[0, 0, 0]	n/a	catFR1	0	R1334T
722.537	1.626	722802	WORD	n/a	wordpools/wordpool_categorized_EN.txt	FOOT	BodyParts	8	5	[0, 0, 0]	n/a	catFR1	0	R1334T
724.163	1.038	724428	WORD_OFF	n/a	n/a	FOOT	BodyParts	8	5	[0, 0, 0]	n/a	catFR1	0	R1334T
725.201	1.63	725466	WORD	n/a	wordpools/wordpool_categorized_EN.txt	DISHWASHER	Appliances	9	5	[0, 0, 0]	n/a	catFR1	0	R1334T
726.831	0.938	727096	WORD_OFF	n/a	n/a	DISHWASHER	Appliances	9	5	[0, 0, 0]	n/a	catFR1	0	R1334T
727.769	1.629	728034	WORD	n/a	wordpools/wordpool_categorized_EN.txt	STOVE	Appliances	10	5	[0, 0, 0]	n/a	catFR1	0	R1334T
729.398	1.04	729662	WORD_OFF	n/a	n/a	STOVE	Appliances	10	5	[0, 0, 0]	n/a	catFR1	0	R1334T
730.438	1.626	730702	WORD	n/a	wordpools/wordpool_categorized_EN.txt	TRAIN	Vehicles	11	5	[0, 0, 0]	n/a	catFR1	0	R1334T
732.064	0.794	732328	WORD_OFF	n/a	n/a	TRAIN	Vehicles	11	5	[0, 0, 0]	n/a	catFR1	0	R1334T
732.858	1.624	733122	WORD	n/a	wordpools/wordpool_categorized_EN.txt	VAN	Vehicles	12	5	[0, 0, 0]	n/a	catFR1	0	R1334T
734.482	0.001	734746	WORD_OFF	n/a	n/a	VAN	Vehicles	12	5	[0, 0, 0]	n/a	catFR1	0	R1334T
734.483	0.0	734747	ENCODING_END	n/a	n/a	n/a	n/a	-999	5	[0, 0, 0]	n/a	catFR1	0	R1334T
734.483	0.0	734747	DISTRACT_START	n/a	n/a	n/a	n/a	-999	5	[0, 0, 0]	n/a	catFR1	0	R1334T
734.483	0.016	734747	START	n/a	n/a	n/a	n/a	-999	5	[-999, -999, -999]	n/a	catFR1	0	R1334T
734.499	7.251	734763	PROB	7.251	n/a	n/a	n/a	-999	5	[7, 8, 8]	25	catFR1	0	R1334T
741.75	5.768	742014	PROB	5.768	n/a	n/a	n/a	-999	5	[3, 2, 4]	9	catFR1	0	R1334T
747.518	5.067	747782	PROB	5.067	n/a	n/a	n/a	-999	5	[8, 5, 8]	21	catFR1	0	R1334T
752.585	2.985	752848	PROB	2.985	n/a	n/a	n/a	-999	5	[1, 4, 3]	8	catFR1	0	R1334T
755.57	0.016	755833	STOP	n/a	n/a	n/a	n/a	-999	5	[-999, -999, -999]	n/a	catFR1	0	R1334T
755.586	0.549	755849	DISTRACT_END	n/a	n/a	n/a	n/a	-999	5	[0, 0, 0]	n/a	catFR1	0	R1334T
756.135	1.652	756398	RETRIEVAL_ORIENT_START	n/a	n/a	n/a	n/a	-999	5	[0, 0, 0]	n/a	catFR1	0	R1334T
757.787	0.0	758050	RETRIEVAL_ORIENT_END	n/a	n/a	n/a	n/a	-999	5	[0, 0, 0]	n/a	catFR1	0	R1334T
757.787	0.322	758050	REC_START	n/a	n/a	n/a	n/a	-999	5	[0, 0, 0]	n/a	catFR1	0	R1334T
758.109	1.139	758372	REC_WORD	1.139	n/a	MOTORCYCLE	Vehicles	6	5	[0, 0, 0]	n/a	catFR1	0	R1334T
759.248	2.494	759511	REC_WORD	2.494	n/a	VAN	Vehicles	12	5	[0, 0, 0]	n/a	catFR1	0	R1334T
761.742	11.309	762005	REC_WORD	11.309	n/a	TRUCK	Vehicles	-999	5	[0, 0, 0]	n/a	catFR1	0	R1334T
773.051	12.229	773313	REC_WORD	12.229	n/a	HAND	n/a	-999	5	[0, 0, 0]	n/a	catFR1	0	R1334T
785.28	2.518	785542	REC_WORD	2.518	n/a	OVEN	Appliances	-999	5	[0, 0, 0]	n/a	catFR1	0	R1334T
787.798	0.0	788060	REC_END	n/a	n/a	n/a	n/a	-999	5	[0, 0, 0]	n/a	catFR1	0	R1334T
787.798	0.022	788060	TRIAL_END	n/a	n/a	n/a	n/a	-999	5	[0, 0, 0]	n/a	catFR1	0	R1334T
787.82	0.0	788082	TRIAL_START	n/a	n/a	n/a	n/a	-999	6	[0, 0, 0]	n/a	catFR1	0	R1334T
787.82	0.0	788082	TRIAL	n/a	n/a	n/a	n/a	-999	6	[0, 0, 0]	n/a	catFR1	0	R1334T
787.82	1.422	788082	WAITING_START	n/a	n/a	n/a	n/a	-999	6	[0, 0, 0]	n/a	catFR1	0	R1334T
789.242	0.001	789504	WAITING_END	n/a	n/a	n/a	n/a	-999	6	[0, 0, 0]	n/a	catFR1	0	R1334T
789.243	10.428	789505	COUNTDOWN_START	n/a	n/a	n/a	n/a	-999	6	[0, 0, 0]	n/a	catFR1	0	R1334T
799.671	0.001	799932	COUNTDOWN_END	n/a	n/a	n/a	n/a	-999	6	[0, 0, 0]	n/a	catFR1	0	R1334T
799.672	1.222	799933	ORIENT_START	n/a	n/a	n/a	n/a	-999	6	[0, 0, 0]	n/a	catFR1	0	R1334T
800.894	0.001	801155	ORIENT_END	n/a	n/a	n/a	n/a	-999	6	[0, 0, 0]	n/a	catFR1	0	R1334T
800.895	0.749	801156	ENCODING_START	n/a	n/a	n/a	n/a	-999	6	[0, 0, 0]	n/a	catFR1	0	R1334T
801.644	1.634	801905	WORD	n/a	wordpools/wordpool_categorized_EN.txt	WASHER	Appliances	1	6	[0, 0, 0]	n/a	catFR1	0	R1334T
803.278	1.113	803539	WORD_OFF	n/a	n/a	WASHER	Appliances	1	6	[0, 0, 0]	n/a	catFR1	0	R1334T
804.391	1.638	804652	WORD	n/a	wordpools/wordpool_categorized_EN.txt	FREEZER	Appliances	2	6	[0, 0, 0]	n/a	catFR1	0	R1334T
806.029	0.854	806290	WORD_OFF	n/a	n/a	FREEZER	Appliances	2	6	[0, 0, 0]	n/a	catFR1	0	R1334T
806.883	1.629	807144	WORD	n/a	wordpools/wordpool_categorized_EN.txt	FUDGE	Desserts	3	6	[0, 0, 0]	n/a	catFR1	0	R1334T
808.512	1.057	808773	WORD_OFF	n/a	n/a	FUDGE	Desserts	3	6	[0, 0, 0]	n/a	catFR1	0	R1334T
809.569	1.627	809830	WORD	n/a	wordpools/wordpool_categorized_EN.txt	BROWNIES	Desserts	4	6	[0, 0, 0]	n/a	catFR1	0	R1334T
811.196	0.85	811457	WORD_OFF	n/a	n/a	BROWNIES	Desserts	4	6	[0, 0, 0]	n/a	catFR1	0	R1334T
812.046	1.634	812307	WORD	n/a	wordpools/wordpool_categorized_EN.txt	OAK	Trees	5	6	[0, 0, 0]	n/a	catFR1	0	R1334T
813.68	1.071	813941	WORD_OFF	n/a	n/a	OAK	Trees	5	6	[0, 0, 0]	n/a	catFR1	0	R1334T
814.751	1.63	815011	WORD	n/a	wordpools/wordpool_categorized_EN.txt	CYPRESS	Trees	6	6	[0, 0, 0]	n/a	catFR1	0	R1334T
816.381	0.819	816641	WORD_OFF	n/a	n/a	CYPRESS	Trees	6	6	[0, 0, 0]	n/a	catFR1	0	R1334T
817.2	1.631	817460	WORD	n/a	wordpools/wordpool_categorized_EN.txt	PUDDING	Desserts	7	6	[0, 0, 0]	n/a	catFR1	0	R1334T
818.831	0.833	819091	WORD_OFF	n/a	n/a	PUDDING	Desserts	7	6	[0, 0, 0]	n/a	catFR1	0	R1334T
819.664	1.634	819924	WORD	n/a	wordpools/wordpool_categorized_EN.txt	PASTRY	Desserts	8	6	[0, 0, 0]	n/a	catFR1	0	R1334T
821.298	1.14	821558	WORD_OFF	n/a	n/a	PASTRY	Desserts	8	6	[0, 0, 0]	n/a	catFR1	0	R1334T
822.438	1.626	822698	WORD	n/a	wordpools/wordpool_categorized_EN.txt	MIXER	Appliances	9	6	[0, 0, 0]	n/a	catFR1	0	R1334T
824.064	0.759	824324	WORD_OFF	n/a	n/a	MIXER	Appliances	9	6	[0, 0, 0]	n/a	catFR1	0	R1334T
824.823	1.626	825083	WORD	n/a	wordpools/wordpool_categorized_EN.txt	DRYER	Appliances	10	6	[0, 0, 0]	n/a	catFR1	0	R1334T
826.449	1.122	826709	WORD_OFF	n/a	n/a	DRYER	Appliances	10	6	[0, 0, 0]	n/a	catFR1	0	R1334T
827.571	1.628	827831	WORD	n/a	wordpools/wordpool_categorized_EN.txt	BIRCH	Trees	11	6	[0, 0, 0]	n/a	catFR1	0	R1334T
829.199	1.059	829459	WORD_OFF	n/a	n/a	BIRCH	Trees	11	6	[0, 0, 0]	n/a	catFR1	0	R1334T
830.258	1.625	830518	WORD	n/a	wordpools/wordpool_categorized_EN.txt	PINE	Trees	12	6	[0, 0, 0]	n/a	catFR1	0	R1334T
831.883	0.001	832143	WORD_OFF	n/a	n/a	PINE	Trees	12	6	[0, 0, 0]	n/a	catFR1	0	R1334T
831.884	0.0	832144	ENCODING_END	n/a	n/a	n/a	n/a	-999	6	[0, 0, 0]	n/a	catFR1	0	R1334T
831.884	0.0	832144	DISTRACT_START	n/a	n/a	n/a	n/a	-999	6	[0, 0, 0]	n/a	catFR1	0	R1334T
831.884	0.016	832144	START	n/a	n/a	n/a	n/a	-999	6	[-999, -999, -999]	n/a	catFR1	0	R1334T
831.9	3.667	832160	PROB	3.667	n/a	n/a	n/a	-999	6	[1, 6, 6]	13	catFR1	0	R1334T
835.567	4.034	835826	PROB	4.034	n/a	n/a	n/a	-999	6	[7, 6, 7]	20	catFR1	0	R1334T
839.601	5.45	839860	PROB	5.45	n/a	n/a	n/a	-999	6	[7, 8, 5]	21	catFR1	0	R1334T
845.051	3.952	845310	PROB	3.952	n/a	n/a	n/a	-999	6	[6, 7, 5]	18	catFR1	0	R1334T
849.003	5.632	849262	PROB	5.632	n/a	n/a	n/a	-999	6	[3, 8, 9]	20	catFR1	0	R1334T
854.635	0.019	854894	STOP	n/a	n/a	n/a	n/a	-999	6	[-999, -999, -999]	n/a	catFR1	0	R1334T
854.654	0.503	854913	DISTRACT_END	n/a	n/a	n/a	n/a	-999	6	[0, 0, 0]	n/a	catFR1	0	R1334T
855.157	1.698	855416	RETRIEVAL_ORIENT_START	n/a	n/a	n/a	n/a	-999	6	[0, 0, 0]	n/a	catFR1	0	R1334T
856.855	0.0	857113	RETRIEVAL_ORIENT_END	n/a	n/a	n/a	n/a	-999	6	[0, 0, 0]	n/a	catFR1	0	R1334T
856.855	0.066	857113	REC_START	n/a	n/a	n/a	n/a	-999	6	[0, 0, 0]	n/a	catFR1	0	R1334T
856.921	1.073	857179	REC_WORD	1.073	n/a	BIRCH	Trees	11	6	[0, 0, 0]	n/a	catFR1	0	R1334T
857.994	1.529	858252	REC_WORD	1.529	n/a	OAK	Trees	5	6	[0, 0, 0]	n/a	catFR1	0	R1334T
859.523	1.424	859781	REC_WORD	1.424	n/a	WOOD	n/a	-999	6	[0, 0, 0]	n/a	catFR1	0	R1334T
860.947	4.63	861205	REC_WORD	4.63	n/a	MIXER	Appliances	9	6	[0, 0, 0]	n/a	catFR1	0	R1334T
865.577	1.963	865835	REC_WORD	1.963	n/a	BROWNIE	n/a	-999	6	[0, 0, 0]	n/a	catFR1	0	R1334T
867.54	19.328	867798	REC_WORD	19.328	n/a	FUDGE	Desserts	3	6	[0, 0, 0]	n/a	catFR1	0	R1334T
886.868	0.0	887125	REC_END	n/a	n/a	n/a	n/a	-999	6	[0, 0, 0]	n/a	catFR1	0	R1334T
886.868	0.021	887125	TRIAL_END	n/a	n/a	n/a	n/a	-999	6	[0, 0, 0]	n/a	catFR1	0	R1334T
886.889	0.0	887146	TRIAL_START	n/a	n/a	n/a	n/a	-999	7	[0, 0, 0]	n/a	catFR1	0	R1334T
886.889	0.0	887146	TRIAL	n/a	n/a	n/a	n/a	-999	7	[0, 0, 0]	n/a	catFR1	0	R1334T
886.889	1.738	887146	WAITING_START	n/a	n/a	n/a	n/a	-999	7	[0, 0, 0]	n/a	catFR1	0	R1334T
888.627	0.0	888884	COUNTDOWN_START	n/a	n/a	n/a	n/a	-999	7	[0, 0, 0]	n/a	catFR1	0	R1334T
888.627	10.428	888884	WAITING_END	n/a	n/a	n/a	n/a	-999	7	[0, 0, 0]	n/a	catFR1	0	R1334T
899.055	0.001	899312	COUNTDOWN_END	n/a	n/a	n/a	n/a	-999	7	[0, 0, 0]	n/a	catFR1	0	R1334T
899.056	1.256	899313	ORIENT_START	n/a	n/a	n/a	n/a	-999	7	[0, 0, 0]	n/a	catFR1	0	R1334T
900.312	0.001	900568	ORIENT_END	n/a	n/a	n/a	n/a	-999	7	[0, 0, 0]	n/a	catFR1	0	R1334T
900.313	1.084	900569	ENCODING_START	n/a	n/a	n/a	n/a	-999	7	[0, 0, 0]	n/a	catFR1	0	R1334T
901.397	1.633	901653	WORD	n/a	wordpools/wordpool_categorized_EN.txt	CELLO	Instruments	1	7	[0, 0, 0]	n/a	catFR1	0	R1334T
903.03	1.145	903286	WORD_OFF	n/a	n/a	CELLO	Instruments	1	7	[0, 0, 0]	n/a	catFR1	0	R1334T
904.175	1.638	904431	WORD	n/a	wordpools/wordpool_categorized_EN.txt	TUBA	Instruments	2	7	[0, 0, 0]	n/a	catFR1	0	R1334T
905.813	1.102	906069	WORD_OFF	n/a	n/a	TUBA	Instruments	2	7	[0, 0, 0]	n/a	catFR1	0	R1334T
906.915	1.632	907171	WORD	n/a	wordpools/wordpool_categorized_EN.txt	JELLYFISH	OceanAnimals	3	7	[0, 0, 0]	n/a	catFR1	0	R1334T
908.547	1.058	908803	WORD_OFF	n/a	n/a	JELLYFISH	OceanAnimals	3	7	[0, 0, 0]	n/a	catFR1	0	R1334T
909.605	1.626	909861	WORD	n/a	wordpools/wordpool_categorized_EN.txt	DOLPHIN	OceanAnimals	4	7	[0, 0, 0]	n/a	catFR1	0	R1334T
911.231	0.962	911487	WORD_OFF	n/a	n/a	DOLPHIN	OceanAnimals	4	7	[0, 0, 0]	n/a	catFR1	0	R1334T
912.193	1.639	912449	WORD	n/a	wordpools/wordpool_categorized_EN.txt	SCREWDRIVER	Tools	5	7	[0, 0, 0]	n/a	catFR1	0	R1334T
913.832	0.905	914088	WORD_OFF	n/a	n/a	SCREWDRIVER	Tools	5	7	[0, 0, 0]	n/a	catFR1	0	R1334T
914.737	1.628	914993	WORD	n/a	wordpools/wordpool_categorized_EN.txt	WRENCH	Tools	6	7	[0, 0, 0]	n/a	catFR1	0	R1334T
916.365	1.147	916621	WORD_OFF	n/a	n/a	WRENCH	Tools	6	7	[0, 0, 0]	n/a	catFR1	0	R1334T
917.512	1.636	917768	WORD	n/a	wordpools/wordpool_categorized_EN.txt	FISH	OceanAnimals	7	7	[0, 0, 0]	n/a	catFR1	0	R1334T
919.148	0.918	919404	WORD_OFF	n/a	n/a	FISH	OceanAnimals	7	7	[0, 0, 0]	n/a	catFR1	0	R1334T
920.066	1.617	920322	WORD	n/a	wordpools/wordpool_categorized_EN.txt	SHRIMP	OceanAnimals	8	7	[0, 0, 0]	n/a	catFR1	0	R1334T
921.683	0.931	921938	WORD_OFF	n/a	n/a	SHRIMP	OceanAnimals	8	7	[0, 0, 0]	n/a	catFR1	0	R1334T
922.614	1.636	922869	WORD	n/a	wordpools/wordpool_categorized_EN.txt	BASS	Instruments	9	7	[0, 0, 0]	n/a	catFR1	0	R1334T
924.25	0.985	924505	WORD_OFF	n/a	n/a	BASS	Instruments	9	7	[0, 0, 0]	n/a	catFR1	0	R1334T
925.235	1.632	925490	WORD	n/a	wordpools/wordpool_categorized_EN.txt	DRUM	Instruments	10	7	[0, 0, 0]	n/a	catFR1	0	R1334T
926.867	1.056	927122	WORD_OFF	n/a	n/a	DRUM	Instruments	10	7	[0, 0, 0]	n/a	catFR1	0	R1334T
927.923	1.628	928178	WORD	n/a	wordpools/wordpool_categorized_EN.txt	HAMMER	Tools	11	7	[0, 0, 0]	n/a	catFR1	0	R1334T
929.551	1.035	929806	WORD_OFF	n/a	n/a	HAMMER	Tools	11	7	[0, 0, 0]	n/a	catFR1	0	R1334T
930.586	1.632	930841	WORD	n/a	wordpools/wordpool_categorized_EN.txt	DRILL	Tools	12	7	[0, 0, 0]	n/a	catFR1	0	R1334T
932.218	0.001	932473	WORD_OFF	n/a	n/a	DRILL	Tools	12	7	[0, 0, 0]	n/a	catFR1	0	R1334T
932.219	0.0	932474	ENCODING_END	n/a	n/a	n/a	n/a	-999	7	[0, 0, 0]	n/a	catFR1	0	R1334T
932.219	0.0	932474	DISTRACT_START	n/a	n/a	n/a	n/a	-999	7	[0, 0, 0]	n/a	catFR1	0	R1334T
932.219	0.016	932474	START	n/a	n/a	n/a	n/a	-999	7	[-999, -999, -999]	n/a	catFR1	0	R1334T
932.235	3.35	932490	PROB	3.35	n/a	n/a	n/a	-999	7	[7, 3, 7]	17	catFR1	0	R1334T
935.585	2.201	935840	PROB	2.201	n/a	n/a	n/a	-999	7	[4, 4, 1]	9	catFR1	0	R1334T
937.786	4.0	938041	PROB	4.0	n/a	n/a	n/a	-999	7	[1, 8, 3]	12	catFR1	0	R1334T
941.786	2.834	942041	PROB	2.834	n/a	n/a	n/a	-999	7	[1, 8, 4]	13	catFR1	0	R1334T
944.62	3.516	944874	PROB	3.516	n/a	n/a	n/a	-999	7	[9, 2, 8]	19	catFR1	0	R1334T
948.136	2.319	948390	PROB	2.319	n/a	n/a	n/a	-999	7	[7, 3, 1]	11	catFR1	0	R1334T
950.455	5.146	950709	PROB	5.146	n/a	n/a	n/a	-999	7	[7, 5, 2]	14	catFR1	0	R1334T
955.601	0.021	955855	STOP	n/a	n/a	n/a	n/a	-999	7	[-999, -999, -999]	n/a	catFR1	0	R1334T
955.622	0.535	955876	DISTRACT_END	n/a	n/a	n/a	n/a	-999	7	[0, 0, 0]	n/a	catFR1	0	R1334T
956.157	1.599	956411	RETRIEVAL_ORIENT_START	n/a	n/a	n/a	n/a	-999	7	[0, 0, 0]	n/a	catFR1	0	R1334T
957.756	0.0	958010	RETRIEVAL_ORIENT_END	n/a	n/a	n/a	n/a	-999	7	[0, 0, 0]	n/a	catFR1	0	R1334T
957.756	0.0	958010	REC_START	n/a	n/a	n/a	n/a	-999	7	[0, 0, 0]	n/a	catFR1	0	R1334T
957.756	2.655	958010	REC_WORD	2.655	n/a	CELLO	Instruments	1	7	[0, 0, 0]	n/a	catFR1	0	R1334T
960.411	1.515	960665	REC_WORD	1.515	n/a	SCREWDRIVER	Tools	5	7	[0, 0, 0]	n/a	catFR1	0	R1334T
961.926	1.209	962180	REC_WORD	1.209	n/a	HAMMER	Tools	11	7	[0, 0, 0]	n/a	catFR1	0	R1334T
963.135	15.866	963389	REC_WORD	15.866	n/a	WRENCH	Tools	6	7	[0, 0, 0]	n/a	catFR1	0	R1334T
979.001	8.768	979254	REC_WORD_VV	8.768	n/a	<>	n/a	-999	7	[0, 0, 0]	n/a	catFR1	0	R1334T
987.769	0.0	988021	REC_END	n/a	n/a	n/a	n/a	-999	7	[0, 0, 0]	n/a	catFR1	0	R1334T
987.769	0.023	988021	TRIAL_END	n/a	n/a	n/a	n/a	-999	7	[0, 0, 0]	n/a	catFR1	0	R1334T
987.792	0.0	988044	TRIAL_START	n/a	n/a	n/a	n/a	-999	8	[0, 0, 0]	n/a	catFR1	0	R1334T
987.792	0.0	988044	TRIAL	n/a	n/a	n/a	n/a	-999	8	[0, 0, 0]	n/a	catFR1	0	R1334T
987.792	1.57	988044	WAITING_START	n/a	n/a	n/a	n/a	-999	8	[0, 0, 0]	n/a	catFR1	0	R1334T
989.362	0.0	989614	COUNTDOWN_START	n/a	n/a	n/a	n/a	-999	8	[0, 0, 0]	n/a	catFR1	0	R1334T
989.362	10.428	989614	WAITING_END	n/a	n/a	n/a	n/a	-999	8	[0, 0, 0]	n/a	catFR1	0	R1334T
999.79	0.0	1000042	COUNTDOWN_END	n/a	n/a	n/a	n/a	-999	8	[0, 0, 0]	n/a	catFR1	0	R1334T
999.79	1.157	1000042	ORIENT_START	n/a	n/a	n/a	n/a	-999	8	[0, 0, 0]	n/a	catFR1	0	R1334T
1000.947	0.001	1001199	ORIENT_END	n/a	n/a	n/a	n/a	-999	8	[0, 0, 0]	n/a	catFR1	0	R1334T
1000.948	0.844	1001200	ENCODING_START	n/a	n/a	n/a	n/a	-999	8	[0, 0, 0]	n/a	catFR1	0	R1334T
1001.792	1.622	1002044	WORD	n/a	wordpools/wordpool_categorized_EN.txt	ELBOW	BodyParts	1	8	[0, 0, 0]	n/a	catFR1	0	R1334T
1003.414	0.811	1003666	WORD_OFF	n/a	n/a	ELBOW	BodyParts	1	8	[0, 0, 0]	n/a	catFR1	0	R1334T
1004.225	1.623	1004477	WORD	n/a	wordpools/wordpool_categorized_EN.txt	TOE	BodyParts	2	8	[0, 0, 0]	n/a	catFR1	0	R1334T
1005.848	1.086	1006099	WORD_OFF	n/a	n/a	TOE	BodyParts	2	8	[0, 0, 0]	n/a	catFR1	0	R1334T
1006.934	1.631	1007185	WORD	n/a	wordpools/wordpool_categorized_EN.txt	SHELF	Furniture	3	8	[0, 0, 0]	n/a	catFR1	0	R1334T
1008.565	0.773	1008816	WORD_OFF	n/a	n/a	SHELF	Furniture	3	8	[0, 0, 0]	n/a	catFR1	0	R1334T
1009.338	1.628	1009589	WORD	n/a	wordpools/wordpool_categorized_EN.txt	BED	Furniture	4	8	[0, 0, 0]	n/a	catFR1	0	R1334T
1010.966	0.821	1011217	WORD_OFF	n/a	n/a	BED	Furniture	4	8	[0, 0, 0]	n/a	catFR1	0	R1334T
1011.787	1.629	1012038	WORD	n/a	wordpools/wordpool_categorized_EN.txt	ELM	Trees	5	8	[0, 0, 0]	n/a	catFR1	0	R1334T
1013.416	0.792	1013667	WORD_OFF	n/a	n/a	ELM	Trees	5	8	[0, 0, 0]	n/a	catFR1	0	R1334T
1014.208	1.625	1014459	WORD	n/a	wordpools/wordpool_categorized_EN.txt	EVERGREEN	Trees	6	8	[0, 0, 0]	n/a	catFR1	0	R1334T
1015.833	1.006	1016084	WORD_OFF	n/a	n/a	EVERGREEN	Trees	6	8	[0, 0, 0]	n/a	catFR1	0	R1334T
1016.839	1.628	1017090	WORD	n/a	wordpools/wordpool_categorized_EN.txt	DRESSER	Furniture	7	8	[0, 0, 0]	n/a	catFR1	0	R1334T
1018.467	0.825	1018718	WORD_OFF	n/a	n/a	DRESSER	Furniture	7	8	[0, 0, 0]	n/a	catFR1	0	R1334T
1019.292	1.626	1019543	WORD	n/a	wordpools/wordpool_categorized_EN.txt	RECLINER	Furniture	8	8	[0, 0, 0]	n/a	catFR1	0	R1334T
1020.918	0.938	1021169	WORD_OFF	n/a	n/a	RECLINER	Furniture	8	8	[0, 0, 0]	n/a	catFR1	0	R1334T
1021.856	1.629	1022107	WORD	n/a	wordpools/wordpool_categorized_EN.txt	HICKORY	Trees	9	8	[0, 0, 0]	n/a	catFR1	0	R1334T
1023.485	0.802	1023736	WORD_OFF	n/a	n/a	HICKORY	Trees	9	8	[0, 0, 0]	n/a	catFR1	0	R1334T
1024.287	1.631	1024538	WORD	n/a	wordpools/wordpool_categorized_EN.txt	WILLOW	Trees	10	8	[0, 0, 0]	n/a	catFR1	0	R1334T
1025.918	0.96	1026169	WORD_OFF	n/a	n/a	WILLOW	Trees	10	8	[0, 0, 0]	n/a	catFR1	0	R1334T
1026.878	1.624	1027129	WORD	n/a	wordpools/wordpool_categorized_EN.txt	NOSE	BodyParts	11	8	[0, 0, 0]	n/a	catFR1	0	R1334T
1028.502	1.047	1028752	WORD_OFF	n/a	n/a	NOSE	BodyParts	11	8	[0, 0, 0]	n/a	catFR1	0	R1334T
1029.549	1.636	1029799	WORD	n/a	wordpools/wordpool_categorized_EN.txt	FINGERS	BodyParts	12	8	[0, 0, 0]	n/a	catFR1	0	R1334T
1031.185	0.001	1031435	WORD_OFF	n/a	n/a	FINGERS	BodyParts	12	8	[0, 0, 0]	n/a	catFR1	0	R1334T
1031.186	0.0	1031436	ENCODING_END	n/a	n/a	n/a	n/a	-999	8	[0, 0, 0]	n/a	catFR1	0	R1334T
1031.186	0.0	1031436	DISTRACT_START	n/a	n/a	n/a	n/a	-999	8	[0, 0, 0]	n/a	catFR1	0	R1334T
1031.186	0.017	1031436	START	n/a	n/a	n/a	n/a	-999	8	[-999, -999, -999]	n/a	catFR1	0	R1334T
1031.203	4.6	1031453	PROB	4.6	n/a	n/a	n/a	-999	8	[9, 4, 5]	18	catFR1	0	R1334T
1035.803	2.851	1036053	PROB	2.851	n/a	n/a	n/a	-999	8	[4, 1, 3]	8	catFR1	0	R1334T
1038.654	3.684	1038904	PROB	3.684	n/a	n/a	n/a	-999	8	[3, 1, 8]	12	catFR1	0	R1334T
1042.338	11.625	1042588	PROB	11.625	n/a	n/a	n/a	-999	8	[7, 8, 9]	24	catFR1	0	R1334T
1053.963	0.01	1054212	STOP	n/a	n/a	n/a	n/a	-999	8	[-999, -999, -999]	n/a	catFR1	0	R1334T
1053.973	0.594	1054222	DISTRACT_END	n/a	n/a	n/a	n/a	-999	8	[0, 0, 0]	n/a	catFR1	0	R1334T
1054.567	1.674	1054816	RETRIEVAL_ORIENT_START	n/a	n/a	n/a	n/a	-999	8	[0, 0, 0]	n/a	catFR1	0	R1334T
1056.241	0.0	1056490	RETRIEVAL_ORIENT_END	n/a	n/a	n/a	n/a	-999	8	[0, 0, 0]	n/a	catFR1	0	R1334T
1056.241	2.145	1056490	REC_START	n/a	n/a	n/a	n/a	-999	8	[0, 0, 0]	n/a	catFR1	0	R1334T
1058.386	1.521	1058635	REC_WORD	1.521	n/a	TOES	n/a	-999	8	[0, 0, 0]	n/a	catFR1	0	R1334T
1059.907	2.338	1060156	REC_WORD	2.338	n/a	CHIN	n/a	-999	8	[0, 0, 0]	n/a	catFR1	0	R1334T
1062.245	24.008	1062494	REC_WORD	24.008	n/a	ELBOW	BodyParts	1	8	[0, 0, 0]	n/a	catFR1	0	R1334T
1086.253	0.001	1086501	REC_END	n/a	n/a	n/a	n/a	-999	8	[0, 0, 0]	n/a	catFR1	0	R1334T
1086.254	0.023	1086502	TRIAL_END	n/a	n/a	n/a	n/a	-999	8	[0, 0, 0]	n/a	catFR1	0	R1334T
1086.277	0.0	1086525	TRIAL_START	n/a	n/a	n/a	n/a	-999	9	[0, 0, 0]	n/a	catFR1	0	R1334T
1086.277	0.0	1086525	TRIAL	n/a	n/a	n/a	n/a	-999	9	[0, 0, 0]	n/a	catFR1	0	R1334T
1086.277	1.603	1086525	WAITING_START	n/a	n/a	n/a	n/a	-999	9	[0, 0, 0]	n/a	catFR1	0	R1334T
1087.88	0.0	1088128	WAITING_END	n/a	n/a	n/a	n/a	-999	9	[0, 0, 0]	n/a	catFR1	0	R1334T
1087.88	10.429	1088128	COUNTDOWN_START	n/a	n/a	n/a	n/a	-999	9	[0, 0, 0]	n/a	catFR1	0	R1334T
1098.309	0.0	1098556	ORIENT_START	n/a	n/a	n/a	n/a	-999	9	[0, 0, 0]	n/a	catFR1	0	R1334T
1098.309	1.023	1098556	COUNTDOWN_END	n/a	n/a	n/a	n/a	-999	9	[0, 0, 0]	n/a	catFR1	0	R1334T
1099.332	0.0	1099579	ORIENT_END	n/a	n/a	n/a	n/a	-999	9	[0, 0, 0]	n/a	catFR1	0	R1334T
1099.332	0.829	1099579	ENCODING_START	n/a	n/a	n/a	n/a	-999	9	[0, 0, 0]	n/a	catFR1	0	R1334T
1100.161	1.638	1100408	WORD	n/a	wordpools/wordpool_categorized_EN.txt	GNAT	Insects	1	9	[0, 0, 0]	n/a	catFR1	0	R1334T
1101.799	0.782	1102046	WORD_OFF	n/a	n/a	GNAT	Insects	1	9	[0, 0, 0]	n/a	catFR1	0	R1334T
1102.581	1.635	1102828	WORD	n/a	wordpools/wordpool_categorized_EN.txt	BEETLE	Insects	2	9	[0, 0, 0]	n/a	catFR1	0	R1334T
1104.216	1.052	1104463	WORD_OFF	n/a	n/a	BEETLE	Insects	2	9	[0, 0, 0]	n/a	catFR1	0	R1334T
1105.268	1.632	1105515	WORD	n/a	wordpools/wordpool_categorized_EN.txt	OCTOPUS	OceanAnimals	3	9	[0, 0, 0]	n/a	catFR1	0	R1334T
1106.9	1.137	1107147	WORD_OFF	n/a	n/a	OCTOPUS	OceanAnimals	3	9	[0, 0, 0]	n/a	catFR1	0	R1334T
1108.037	1.613	1108284	WORD	n/a	wordpools/wordpool_categorized_EN.txt	WHALE	OceanAnimals	4	9	[0, 0, 0]	n/a	catFR1	0	R1334T
1109.65	0.936	1109897	WORD_OFF	n/a	n/a	WHALE	OceanAnimals	4	9	[0, 0, 0]	n/a	catFR1	0	R1334T
1110.586	1.631	1110833	WORD	n/a	wordpools/wordpool_categorized_EN.txt	HUMIDITY	Weather	5	9	[0, 0, 0]	n/a	catFR1	0	R1334T
1112.217	0.953	1112463	WORD_OFF	n/a	n/a	HUMIDITY	Weather	5	9	[0, 0, 0]	n/a	catFR1	0	R1334T
1113.17	1.631	1113416	WORD	n/a	wordpools/wordpool_categorized_EN.txt	THUNDERSTORM	Weather	6	9	[0, 0, 0]	n/a	catFR1	0	R1334T
1114.801	1.037	1115047	WORD_OFF	n/a	n/a	THUNDERSTORM	Weather	6	9	[0, 0, 0]	n/a	catFR1	0	R1334T
1115.838	1.63	1116084	WORD	n/a	wordpools/wordpool_categorized_EN.txt	BEE	Insects	7	9	[0, 0, 0]	n/a	catFR1	0	R1334T
1117.468	0.937	1117714	WORD_OFF	n/a	n/a	BEE	Insects	7	9	[0, 0, 0]	n/a	catFR1	0	R1334T
1118.405	1.63	1118651	WORD	n/a	wordpools/wordpool_categorized_EN.txt	BUTTERFLY	Insects	8	9	[0, 0, 0]	n/a	catFR1	0	R1334T
1120.035	0.865	1120281	WORD_OFF	n/a	n/a	BUTTERFLY	Insects	8	9	[0, 0, 0]	n/a	catFR1	0	R1334T
1120.9	1.636	1121146	WORD	n/a	wordpools/wordpool_categorized_EN.txt	CLOUD	Weather	9	9	[0, 0, 0]	n/a	catFR1	0	R1334T
1122.536	0.835	1122782	WORD_OFF	n/a	n/a	CLOUD	Weather	9	9	[0, 0, 0]	n/a	catFR1	0	R1334T
1123.371	1.632	1123617	WORD	n/a	wordpools/wordpool_categorized_EN.txt	WIND	Weather	10	9	[0, 0, 0]	n/a	catFR1	0	R1334T
1125.003	1.014	1125249	WORD_OFF	n/a	n/a	WIND	Weather	10	9	[0, 0, 0]	n/a	catFR1	0	R1334T
1126.017	1.637	1126263	WORD	n/a	wordpools/wordpool_categorized_EN.txt	LOBSTER	OceanAnimals	11	9	[0, 0, 0]	n/a	catFR1	0	R1334T
1127.654	1.049	1127900	WORD_OFF	n/a	n/a	LOBSTER	OceanAnimals	11	9	[0, 0, 0]	n/a	catFR1	0	R1334T
1128.703	1.634	1128949	WORD	n/a	wordpools/wordpool_categorized_EN.txt	TURTLE	OceanAnimals	12	9	[0, 0, 0]	n/a	catFR1	0	R1334T
1130.337	0.001	1130583	WORD_OFF	n/a	n/a	TURTLE	OceanAnimals	12	9	[0, 0, 0]	n/a	catFR1	0	R1334T
1130.338	0.0	1130584	DISTRACT_START	n/a	n/a	n/a	n/a	-999	9	[0, 0, 0]	n/a	catFR1	0	R1334T
1130.338	0.0	1130584	ENCODING_END	n/a	n/a	n/a	n/a	-999	9	[0, 0, 0]	n/a	catFR1	0	R1334T
1130.338	0.016	1130584	START	n/a	n/a	n/a	n/a	-999	9	[-999, -999, -999]	n/a	catFR1	0	R1334T
1130.354	4.101	1130600	PROB	4.101	n/a	n/a	n/a	-999	9	[9, 3, 4]	16	catFR1	0	R1334T
1134.455	5.301	1134700	PROB	5.301	n/a	n/a	n/a	-999	9	[9, 8, 4]	21	catFR1	0	R1334T
1139.756	3.183	1140001	PROB	3.183	n/a	n/a	n/a	-999	9	[3, 4, 9]	16	catFR1	0	R1334T
1142.939	3.868	1143184	PROB	3.868	n/a	n/a	n/a	-999	9	[2, 2, 6]	10	catFR1	0	R1334T
1146.807	6.412	1147052	PROB	6.412	n/a	n/a	n/a	-999	9	[6, 9, 2]	17	catFR1	0	R1334T
1153.219	0.006	1153464	STOP	n/a	n/a	n/a	n/a	-999	9	[-999, -999, -999]	n/a	catFR1	0	R1334T
1153.225	0.533	1153470	DISTRACT_END	n/a	n/a	n/a	n/a	-999	9	[0, 0, 0]	n/a	catFR1	0	R1334T
1153.758	1.684	1154003	RETRIEVAL_ORIENT_START	n/a	n/a	n/a	n/a	-999	9	[0, 0, 0]	n/a	catFR1	0	R1334T
1155.442	0.0	1155686	RETRIEVAL_ORIENT_END	n/a	n/a	n/a	n/a	-999	9	[0, 0, 0]	n/a	catFR1	0	R1334T
1155.442	0.093	1155686	REC_START	n/a	n/a	n/a	n/a	-999	9	[0, 0, 0]	n/a	catFR1	0	R1334T
1155.535	2.808	1155779	REC_WORD	2.808	n/a	LOBSTER	OceanAnimals	11	9	[0, 0, 0]	n/a	catFR1	0	R1334T
1158.343	4.915	1158587	REC_WORD	4.915	n/a	TURTLE	OceanAnimals	12	9	[0, 0, 0]	n/a	catFR1	0	R1334T
1163.258	0.649	1163502	REC_WORD	0.649	n/a	BEE	Insects	7	9	[0, 0, 0]	n/a	catFR1	0	R1334T
1163.907	12.49	1164151	REC_WORD	12.49	n/a	BUTTERFLY	Insects	8	9	[0, 0, 0]	n/a	catFR1	0	R1334T
1176.397	1.222	1176640	REC_WORD	1.222	n/a	THUNDERSTORM	Weather	6	9	[0, 0, 0]	n/a	catFR1	0	R1334T
1177.619	7.836	1177862	REC_WORD	7.836	n/a	WIND	Weather	10	9	[0, 0, 0]	n/a	catFR1	0	R1334T
1185.455	0.0	1185698	REC_END	n/a	n/a	n/a	n/a	-999	9	[0, 0, 0]	n/a	catFR1	0	R1334T
1185.455	0.021	1185698	TRIAL_END	n/a	n/a	n/a	n/a	-999	9	[0, 0, 0]	n/a	catFR1	0	R1334T
1185.476	0.0	1185719	TRIAL_START	n/a	n/a	n/a	n/a	-999	10	[0, 0, 0]	n/a	catFR1	0	R1334T
1185.476	0.001	1185719	TRIAL	n/a	n/a	n/a	n/a	-999	10	[0, 0, 0]	n/a	catFR1	0	R1334T
1185.477	2.288	1185720	WAITING_START	n/a	n/a	n/a	n/a	-999	10	[0, 0, 0]	n/a	catFR1	0	R1334T
1187.765	0.0	1188008	WAITING_END	n/a	n/a	n/a	n/a	-999	10	[0, 0, 0]	n/a	catFR1	0	R1334T
1187.765	10.429	1188008	COUNTDOWN_START	n/a	n/a	n/a	n/a	-999	10	[0, 0, 0]	n/a	catFR1	0	R1334T
1198.194	0.0	1198436	ORIENT_START	n/a	n/a	n/a	n/a	-999	10	[0, 0, 0]	n/a	catFR1	0	R1334T
1198.194	1.173	1198436	COUNTDOWN_END	n/a	n/a	n/a	n/a	-999	10	[0, 0, 0]	n/a	catFR1	0	R1334T
1199.367	0.0	1199609	ORIENT_END	n/a	n/a	n/a	n/a	-999	10	[0, 0, 0]	n/a	catFR1	0	R1334T
1199.367	0.837	1199609	ENCODING_START	n/a	n/a	n/a	n/a	-999	10	[0, 0, 0]	n/a	catFR1	0	R1334T
1200.204	1.63	1200446	WORD	n/a	wordpools/wordpool_categorized_EN.txt	BLUEBIRD	Birds	1	10	[0, 0, 0]	n/a	catFR1	0	R1334T
1201.834	0.879	1202076	WORD_OFF	n/a	n/a	BLUEBIRD	Birds	1	10	[0, 0, 0]	n/a	catFR1	0	R1334T
1202.713	1.638	1202955	WORD	n/a	wordpools/wordpool_categorized_EN.txt	DUCK	Birds	2	10	[0, 0, 0]	n/a	catFR1	0	R1334T
1204.351	1.033	1204593	WORD_OFF	n/a	n/a	DUCK	Birds	2	10	[0, 0, 0]	n/a	catFR1	0	R1334T
1205.384	1.634	1205626	WORD	n/a	wordpools/wordpool_categorized_EN.txt	PANTS	Clothing	3	10	[0, 0, 0]	n/a	catFR1	0	R1334T
1207.018	0.782	1207260	WORD_OFF	n/a	n/a	PANTS	Clothing	3	10	[0, 0, 0]	n/a	catFR1	0	R1334T
1207.8	1.635	1208042	WORD	n/a	wordpools/wordpool_categorized_EN.txt	JACKET	Clothing	4	10	[0, 0, 0]	n/a	catFR1	0	R1334T
1209.435	0.775	1209677	WORD_OFF	n/a	n/a	JACKET	Clothing	4	10	[0, 0, 0]	n/a	catFR1	0	R1334T
1210.21	1.626	1210452	WORD	n/a	wordpools/wordpool_categorized_EN.txt	ISLAND	Landscapes	5	10	[0, 0, 0]	n/a	catFR1	0	R1334T
1211.836	0.871	1212078	WORD_OFF	n/a	n/a	ISLAND	Landscapes	5	10	[0, 0, 0]	n/a	catFR1	0	R1334T
1212.707	1.629	1212949	WORD	n/a	wordpools/wordpool_categorized_EN.txt	OCEAN	Landscapes	6	10	[0, 0, 0]	n/a	catFR1	0	R1334T
1214.336	1.033	1214578	WORD_OFF	n/a	n/a	OCEAN	Landscapes	6	10	[0, 0, 0]	n/a	catFR1	0	R1334T
1215.369	1.634	1215611	WORD	n/a	wordpools/wordpool_categorized_EN.txt	ROBIN	Birds	7	10	[0, 0, 0]	n/a	catFR1	0	R1334T
1217.003	0.853	1217245	WORD_OFF	n/a	n/a	ROBIN	Birds	7	10	[0, 0, 0]	n/a	catFR1	0	R1334T
1217.856	1.631	1218098	WORD	n/a	wordpools/wordpool_categorized_EN.txt	HAWK	Birds	8	10	[0, 0, 0]	n/a	catFR1	0	R1334T
1219.487	1.116	1219728	WORD_OFF	n/a	n/a	HAWK	Birds	8	10	[0, 0, 0]	n/a	catFR1	0	R1334T
1220.603	1.634	1220844	WORD	n/a	wordpools/wordpool_categorized_EN.txt	BEACH	Landscapes	9	10	[0, 0, 0]	n/a	catFR1	0	R1334T
1222.237	0.798	1222478	WORD_OFF	n/a	n/a	BEACH	Landscapes	9	10	[0, 0, 0]	n/a	catFR1	0	R1334T
1223.035	1.636	1223276	WORD	n/a	wordpools/wordpool_categorized_EN.txt	STREAM	Landscapes	10	10	[0, 0, 0]	n/a	catFR1	0	R1334T
1224.671	0.962	1224912	WORD_OFF	n/a	n/a	STREAM	Landscapes	10	10	[0, 0, 0]	n/a	catFR1	0	R1334T
1225.633	1.622	1225874	WORD	n/a	wordpools/wordpool_categorized_EN.txt	COAT	Clothing	11	10	[0, 0, 0]	n/a	catFR1	0	R1334T
1227.255	1.119	1227496	WORD_OFF	n/a	n/a	COAT	Clothing	11	10	[0, 0, 0]	n/a	catFR1	0	R1334T
1228.374	1.631	1228615	WORD	n/a	wordpools/wordpool_categorized_EN.txt	SKIRT	Clothing	12	10	[0, 0, 0]	n/a	catFR1	0	R1334T
1230.005	0.001	1230246	WORD_OFF	n/a	n/a	SKIRT	Clothing	12	10	[0, 0, 0]	n/a	catFR1	0	R1334T
1230.006	0.0	1230247	DISTRACT_START	n/a	n/a	n/a	n/a	-999	10	[0, 0, 0]	n/a	catFR1	0	R1334T
1230.006	0.0	1230247	ENCODING_END	n/a	n/a	n/a	n/a	-999	10	[0, 0, 0]	n/a	catFR1	0	R1334T
1230.006	0.016	1230247	START	n/a	n/a	n/a	n/a	-999	10	[-999, -999, -999]	n/a	catFR1	0	R1334T
1230.022	3.917	1230263	PROB	3.917	n/a	n/a	n/a	-999	10	[7, 2, 1]	10	catFR1	0	R1334T
1233.939	4.284	1234180	PROB	4.284	n/a	n/a	n/a	-999	10	[5, 2, 4]	11	catFR1	0	R1334T
1238.223	2.618	1238464	PROB	2.618	n/a	n/a	n/a	-999	10	[3, 9, 1]	13	catFR1	0	R1334T
1240.841	2.316	1241081	PROB	2.316	n/a	n/a	n/a	-999	10	[3, 7, 3]	13	catFR1	0	R1334T
1243.157	2.818	1243397	PROB	2.818	n/a	n/a	n/a	-999	10	[3, 6, 3]	12	catFR1	0	R1334T
1245.975	2.567	1246215	PROB	2.567	n/a	n/a	n/a	-999	10	[4, 2, 2]	8	catFR1	0	R1334T
1248.542	2.486	1248782	PROB	2.486	n/a	n/a	n/a	-999	10	[2, 2, 1]	5	catFR1	0	R1334T
1251.028	0.014	1251268	STOP	n/a	n/a	n/a	n/a	-999	10	[-999, -999, -999]	n/a	catFR1	0	R1334T
1251.042	0.675	1251282	DISTRACT_END	n/a	n/a	n/a	n/a	-999	10	[0, 0, 0]	n/a	catFR1	0	R1334T
1251.717	1.543	1251957	RETRIEVAL_ORIENT_START	n/a	n/a	n/a	n/a	-999	10	[0, 0, 0]	n/a	catFR1	0	R1334T
1253.26	0.0	1253500	RETRIEVAL_ORIENT_END	n/a	n/a	n/a	n/a	-999	10	[0, 0, 0]	n/a	catFR1	0	R1334T
1253.26	0.0	1253500	REC_START	n/a	n/a	n/a	n/a	-999	10	[0, 0, 0]	n/a	catFR1	0	R1334T
1253.26	1.273	1253500	REC_WORD	1.273	n/a	GNAT	Insects	-999	10	[0, 0, 0]	n/a	catFR1	0	R1334T
1254.533	11.831	1254773	REC_WORD	11.831	n/a	OCEAN	Landscapes	6	10	[0, 0, 0]	n/a	catFR1	0	R1334T
1266.364	16.909	1266603	REC_WORD	16.909	n/a	BOAT	n/a	-999	10	[0, 0, 0]	n/a	catFR1	0	R1334T
1283.273	0.0	1283511	TRIAL_END	n/a	n/a	n/a	n/a	-999	10	[0, 0, 0]	n/a	catFR1	0	R1334T
1283.273	0.023	1283511	REC_END	n/a	n/a	n/a	n/a	-999	10	[0, 0, 0]	n/a	catFR1	0	R1334T
1283.296	0.0	1283534	TRIAL_START	n/a	n/a	n/a	n/a	-999	11	[0, 0, 0]	n/a	catFR1	0	R1334T
1283.296	0.0	1283534	TRIAL	n/a	n/a	n/a	n/a	-999	11	[0, 0, 0]	n/a	catFR1	0	R1334T
1283.296	2.57	1283534	WAITING_START	n/a	n/a	n/a	n/a	-999	11	[0, 0, 0]	n/a	catFR1	0	R1334T
1285.866	0.0	1286104	WAITING_END	n/a	n/a	n/a	n/a	-999	11	[0, 0, 0]	n/a	catFR1	0	R1334T
1285.866	10.428	1286104	COUNTDOWN_START	n/a	n/a	n/a	n/a	-999	11	[0, 0, 0]	n/a	catFR1	0	R1334T
1296.294	0.001	1296532	COUNTDOWN_END	n/a	n/a	n/a	n/a	-999	11	[0, 0, 0]	n/a	catFR1	0	R1334T
1296.295	1.089	1296533	ORIENT_START	n/a	n/a	n/a	n/a	-999	11	[0, 0, 0]	n/a	catFR1	0	R1334T
1297.384	0.001	1297622	ORIENT_END	n/a	n/a	n/a	n/a	-999	11	[0, 0, 0]	n/a	catFR1	0	R1334T
1297.385	1.111	1297623	ENCODING_START	n/a	n/a	n/a	n/a	-999	11	[0, 0, 0]	n/a	catFR1	0	R1334T
1298.496	1.638	1298734	WORD	n/a	wordpools/wordpool_categorized_EN.txt	COUCH	Furniture	1	11	[0, 0, 0]	n/a	catFR1	0	R1334T
1300.134	0.994	1300372	WORD_OFF	n/a	n/a	COUCH	Furniture	1	11	[0, 0, 0]	n/a	catFR1	0	R1334T
1301.128	1.624	1301366	WORD	n/a	wordpools/wordpool_categorized_EN.txt	CHAIR	Furniture	2	11	[0, 0, 0]	n/a	catFR1	0	R1334T
1302.752	1.081	1302990	WORD_OFF	n/a	n/a	CHAIR	Furniture	2	11	[0, 0, 0]	n/a	catFR1	0	R1334T
1303.833	1.636	1304070	WORD	n/a	wordpools/wordpool_categorized_EN.txt	GLUE	OfficeSupplies	3	11	[0, 0, 0]	n/a	catFR1	0	R1334T
1305.469	1.145	1305706	WORD_OFF	n/a	n/a	GLUE	OfficeSupplies	3	11	[0, 0, 0]	n/a	catFR1	0	R1334T
1306.614	1.622	1306851	WORD	n/a	wordpools/wordpool_categorized_EN.txt	ERASER	OfficeSupplies	4	11	[0, 0, 0]	n/a	catFR1	0	R1334T
1308.236	0.817	1308473	WORD_OFF	n/a	n/a	ERASER	OfficeSupplies	4	11	[0, 0, 0]	n/a	catFR1	0	R1334T
1309.053	1.634	1309290	WORD	n/a	wordpools/wordpool_categorized_EN.txt	LEVEL	Tools	5	11	[0, 0, 0]	n/a	catFR1	0	R1334T
1310.687	0.933	1310924	WORD_OFF	n/a	n/a	LEVEL	Tools	5	11	[0, 0, 0]	n/a	catFR1	0	R1334T
1311.62	1.634	1311857	WORD	n/a	wordpools/wordpool_categorized_EN.txt	SHOVEL	Tools	6	11	[0, 0, 0]	n/a	catFR1	0	R1334T
1313.254	0.859	1313491	WORD_OFF	n/a	n/a	SHOVEL	Tools	6	11	[0, 0, 0]	n/a	catFR1	0	R1334T
1314.113	1.625	1314350	WORD	n/a	wordpools/wordpool_categorized_EN.txt	BOOKCASE	Furniture	7	11	[0, 0, 0]	n/a	catFR1	0	R1334T
1315.738	0.984	1315975	WORD_OFF	n/a	n/a	BOOKCASE	Furniture	7	11	[0, 0, 0]	n/a	catFR1	0	R1334T
1316.722	1.633	1316959	WORD	n/a	wordpools/wordpool_categorized_EN.txt	CABINET	Furniture	8	11	[0, 0, 0]	n/a	catFR1	0	R1334T
1318.355	0.781	1318592	WORD_OFF	n/a	n/a	CABINET	Furniture	8	11	[0, 0, 0]	n/a	catFR1	0	R1334T
1319.136	1.636	1319373	WORD	n/a	wordpools/wordpool_categorized_EN.txt	SANDER	Tools	9	11	[0, 0, 0]	n/a	catFR1	0	R1334T
1320.772	0.907	1321009	WORD_OFF	n/a	n/a	SANDER	Tools	9	11	[0, 0, 0]	n/a	catFR1	0	R1334T
1321.679	1.627	1321916	WORD	n/a	wordpools/wordpool_categorized_EN.txt	AXE	Tools	10	11	[0, 0, 0]	n/a	catFR1	0	R1334T
1323.306	0.801	1323543	WORD_OFF	n/a	n/a	AXE	Tools	10	11	[0, 0, 0]	n/a	catFR1	0	R1334T
1324.107	1.616	1324344	WORD	n/a	wordpools/wordpool_categorized_EN.txt	BINDER	OfficeSupplies	11	11	[0, 0, 0]	n/a	catFR1	0	R1334T
1325.723	1.011	1325959	WORD_OFF	n/a	n/a	BINDER	OfficeSupplies	11	11	[0, 0, 0]	n/a	catFR1	0	R1334T
1326.734	1.623	1326970	WORD	n/a	wordpools/wordpool_categorized_EN.txt	FOLDER	OfficeSupplies	12	11	[0, 0, 0]	n/a	catFR1	0	R1334T
1328.357	0.0	1328593	WORD_OFF	n/a	n/a	FOLDER	OfficeSupplies	12	11	[0, 0, 0]	n/a	catFR1	0	R1334T
1328.357	0.001	1328593	ENCODING_END	n/a	n/a	n/a	n/a	-999	11	[0, 0, 0]	n/a	catFR1	0	R1334T
1328.358	0.0	1328594	DISTRACT_START	n/a	n/a	n/a	n/a	-999	11	[0, 0, 0]	n/a	catFR1	0	R1334T
1328.358	0.015	1328594	START	n/a	n/a	n/a	n/a	-999	11	[-999, -999, -999]	n/a	catFR1	0	R1334T
1328.373	4.018	1328609	PROB	4.018	n/a	n/a	n/a	-999	11	[5, 1, 7]	13	catFR1	0	R1334T
1332.391	4.067	1332627	PROB	4.067	n/a	n/a	n/a	-999	11	[6, 3, 8]	17	catFR1	0	R1334T
1336.458	5.617	1336694	PROB	5.617	n/a	n/a	n/a	-999	11	[3, 9, 8]	20	catFR1	0	R1334T
1342.075	2.468	1342311	PROB	2.468	n/a	n/a	n/a	-999	11	[1, 2, 5]	8	catFR1	0	R1334T
1344.543	2.917	1344779	PROB	2.917	n/a	n/a	n/a	-999	11	[5, 1, 8]	14	catFR1	0	R1334T
1347.46	5.945	1347695	PROB	5.945	n/a	n/a	n/a	-999	11	[4, 7, 6]	17	catFR1	0	R1334T
1353.405	0.006	1353640	STOP	n/a	n/a	n/a	n/a	-999	11	[-999, -999, -999]	n/a	catFR1	0	R1334T
1353.411	0.653	1353646	DISTRACT_END	n/a	n/a	n/a	n/a	-999	11	[0, 0, 0]	n/a	catFR1	0	R1334T
1354.064	1.598	1354299	RETRIEVAL_ORIENT_START	n/a	n/a	n/a	n/a	-999	11	[0, 0, 0]	n/a	catFR1	0	R1334T
1355.662	0.0	1355897	RETRIEVAL_ORIENT_END	n/a	n/a	n/a	n/a	-999	11	[0, 0, 0]	n/a	catFR1	0	R1334T
1355.662	0.95	1355897	REC_START	n/a	n/a	n/a	n/a	-999	11	[0, 0, 0]	n/a	catFR1	0	R1334T
1356.612	1.576	1356847	REC_WORD	1.576	n/a	COUCH	Furniture	1	11	[0, 0, 0]	n/a	catFR1	0	R1334T
1358.188	4.041	1358423	REC_WORD	4.041	n/a	CHAIR	Furniture	2	11	[0, 0, 0]	n/a	catFR1	0	R1334T
1362.229	2.102	1362464	REC_WORD	2.102	n/a	AXE	Tools	10	11	[0, 0, 0]	n/a	catFR1	0	R1334T
1364.331	8.86	1364566	REC_WORD	8.86	n/a	HANDLE	n/a	-999	11	[0, 0, 0]	n/a	catFR1	0	R1334T
1373.191	12.482	1373425	REC_WORD	12.482	n/a	TABLE	n/a	-999	11	[0, 0, 0]	n/a	catFR1	0	R1334T
1385.673	0.0	1385907	TRIAL_END	n/a	n/a	n/a	n/a	-999	11	[0, 0, 0]	n/a	catFR1	0	R1334T
1385.673	0.021	1385907	REC_END	n/a	n/a	n/a	n/a	-999	11	[0, 0, 0]	n/a	catFR1	0	R1334T
1385.694	0.001	1385928	TRIAL_START	n/a	n/a	n/a	n/a	-999	12	[0, 0, 0]	n/a	catFR1	0	R1334T
1385.695	0.0	1385929	TRIAL	n/a	n/a	n/a	n/a	-999	12	[0, 0, 0]	n/a	catFR1	0	R1334T
1385.695	2.639	1385929	WAITING_START	n/a	n/a	n/a	n/a	-999	12	[0, 0, 0]	n/a	catFR1	0	R1334T
1388.334	0.001	1388568	WAITING_END	n/a	n/a	n/a	n/a	-999	12	[0, 0, 0]	n/a	catFR1	0	R1334T
1388.335	10.429	1388569	COUNTDOWN_START	n/a	n/a	n/a	n/a	-999	12	[0, 0, 0]	n/a	catFR1	0	R1334T
1398.764	0.0	1398997	COUNTDOWN_END	n/a	n/a	n/a	n/a	-999	12	[0, 0, 0]	n/a	catFR1	0	R1334T
1398.764	1.139	1398997	ORIENT_START	n/a	n/a	n/a	n/a	-999	12	[0, 0, 0]	n/a	catFR1	0	R1334T
1399.903	0.001	1400136	ORIENT_END	n/a	n/a	n/a	n/a	-999	12	[0, 0, 0]	n/a	catFR1	0	R1334T
1399.904	0.946	1400137	ENCODING_START	n/a	n/a	n/a	n/a	-999	12	[0, 0, 0]	n/a	catFR1	0	R1334T
1400.85	1.637	1401083	WORD	n/a	wordpools/wordpool_categorized_EN.txt	BASEBALL	Toys	1	12	[0, 0, 0]	n/a	catFR1	0	R1334T
1402.487	1.126	1402720	WORD_OFF	n/a	n/a	BASEBALL	Toys	1	12	[0, 0, 0]	n/a	catFR1	0	R1334T
1403.613	1.624	1403846	WORD	n/a	wordpools/wordpool_categorized_EN.txt	BLOCKS	Toys	2	12	[0, 0, 0]	n/a	catFR1	0	R1334T
1405.237	1.03	1405470	WORD_OFF	n/a	n/a	BLOCKS	Toys	2	12	[0, 0, 0]	n/a	catFR1	0	R1334T
1406.267	1.637	1406500	WORD	n/a	wordpools/wordpool_categorized_EN.txt	LIGHTNING	Weather	3	12	[0, 0, 0]	n/a	catFR1	0	R1334T
1407.904	1.05	1408137	WORD_OFF	n/a	n/a	LIGHTNING	Weather	3	12	[0, 0, 0]	n/a	catFR1	0	R1334T
1408.954	1.634	1409187	WORD	n/a	wordpools/wordpool_categorized_EN.txt	TORNADO	Weather	4	12	[0, 0, 0]	n/a	catFR1	0	R1334T
1410.588	1.132	1410820	WORD_OFF	n/a	n/a	TORNADO	Weather	4	12	[0, 0, 0]	n/a	catFR1	0	R1334T
1411.72	1.636	1411952	WORD	n/a	wordpools/wordpool_categorized_EN.txt	BEAR	Zoo	5	12	[0, 0, 0]	n/a	catFR1	0	R1334T
1413.356	0.77	1413588	WORD_OFF	n/a	n/a	BEAR	Zoo	5	12	[0, 0, 0]	n/a	catFR1	0	R1334T
1414.126	1.63	1414358	WORD	n/a	wordpools/wordpool_categorized_EN.txt	PANDA	Zoo	6	12	[0, 0, 0]	n/a	catFR1	0	R1334T
1415.756	1.035	1415988	WORD_OFF	n/a	n/a	PANDA	Zoo	6	12	[0, 0, 0]	n/a	catFR1	0	R1334T
1416.791	1.632	1417023	WORD	n/a	wordpools/wordpool_categorized_EN.txt	DRIZZLE	Weather	7	12	[0, 0, 0]	n/a	catFR1	0	R1334T
1418.423	1.091	1418655	WORD_OFF	n/a	n/a	DRIZZLE	Weather	7	12	[0, 0, 0]	n/a	catFR1	0	R1334T
1419.514	1.625	1419746	WORD	n/a	wordpools/wordpool_categorized_EN.txt	RAIN	Weather	8	12	[0, 0, 0]	n/a	catFR1	0	R1334T
1421.139	0.815	1421371	WORD_OFF	n/a	n/a	RAIN	Weather	8	12	[0, 0, 0]	n/a	catFR1	0	R1334T
1421.954	1.637	1422186	WORD	n/a	wordpools/wordpool_categorized_EN.txt	TIGER	Zoo	9	12	[0, 0, 0]	n/a	catFR1	0	R1334T
1423.591	1.025	1423823	WORD_OFF	n/a	n/a	TIGER	Zoo	9	12	[0, 0, 0]	n/a	catFR1	0	R1334T
1424.616	1.625	1424848	WORD	n/a	wordpools/wordpool_categorized_EN.txt	GORILLA	Zoo	10	12	[0, 0, 0]	n/a	catFR1	0	R1334T
1426.241	1.068	1426473	WORD_OFF	n/a	n/a	GORILLA	Zoo	10	12	[0, 0, 0]	n/a	catFR1	0	R1334T
1427.309	1.633	1427541	WORD	n/a	wordpools/wordpool_categorized_EN.txt	SLINKY	Toys	11	12	[0, 0, 0]	n/a	catFR1	0	R1334T
1428.942	0.935	1429174	WORD_OFF	n/a	n/a	SLINKY	Toys	11	12	[0, 0, 0]	n/a	catFR1	0	R1334T
1429.877	1.632	1430109	WORD	n/a	wordpools/wordpool_categorized_EN.txt	BASKETBALL	Toys	12	12	[0, 0, 0]	n/a	catFR1	0	R1334T
1431.509	0.0	1431740	WORD_OFF	n/a	n/a	BASKETBALL	Toys	12	12	[0, 0, 0]	n/a	catFR1	0	R1334T
1431.509	0.001	1431740	ENCODING_END	n/a	n/a	n/a	n/a	-999	12	[0, 0, 0]	n/a	catFR1	0	R1334T
1431.51	0.0	1431741	DISTRACT_START	n/a	n/a	n/a	n/a	-999	12	[0, 0, 0]	n/a	catFR1	0	R1334T
1431.51	0.015	1431741	START	n/a	n/a	n/a	n/a	-999	12	[-999, -999, -999]	n/a	catFR1	0	R1334T
1431.525	5.634	1431756	PROB	5.634	n/a	n/a	n/a	-999	12	[7, 1, 4]	12	catFR1	0	R1334T
1437.159	3.468	1437390	PROB	3.468	n/a	n/a	n/a	-999	12	[7, 8, 3]	18	catFR1	0	R1334T
1440.627	7.068	1440858	PROB	7.068	n/a	n/a	n/a	-999	12	[9, 4, 7]	20	catFR1	0	R1334T
1447.695	3.818	1447926	PROB	3.818	n/a	n/a	n/a	-999	12	[7, 2, 2]	11	catFR1	0	R1334T
1451.513	0.016	1451744	STOP	n/a	n/a	n/a	n/a	-999	12	[-999, -999, -999]	n/a	catFR1	0	R1334T
1451.529	0.551	1451760	DISTRACT_END	n/a	n/a	n/a	n/a	-999	12	[0, 0, 0]	n/a	catFR1	0	R1334T
1452.08	1.55	1452311	RETRIEVAL_ORIENT_START	n/a	n/a	n/a	n/a	-999	12	[0, 0, 0]	n/a	catFR1	0	R1334T
1453.63	0.0	1453860	REC_START	n/a	n/a	n/a	n/a	-999	12	[0, 0, 0]	n/a	catFR1	0	R1334T
1453.63	0.062	1453860	RETRIEVAL_ORIENT_END	n/a	n/a	n/a	n/a	-999	12	[0, 0, 0]	n/a	catFR1	0	R1334T
1453.692	9.369	1453922	REC_WORD	9.369	n/a	SLINKY	Toys	11	12	[0, 0, 0]	n/a	catFR1	0	R1334T
1463.061	20.58	1463291	REC_WORD	20.58	n/a	PANTS	Clothing	-999	12	[0, 0, 0]	n/a	catFR1	0	R1334T
1483.641	0.001	1483870	REC_END	n/a	n/a	n/a	n/a	-999	12	[0, 0, 0]	n/a	catFR1	0	R1334T
1483.642	0.025	1483871	TRIAL_END	n/a	n/a	n/a	n/a	-999	12	[0, 0, 0]	n/a	catFR1	0	R1334T
1483.667	0.0	1483896	TRIAL_START	n/a	n/a	n/a	n/a	-999	13	[0, 0, 0]	n/a	catFR1	0	R1334T
1483.667	0.0	1483896	TRIAL	n/a	n/a	n/a	n/a	-999	13	[0, 0, 0]	n/a	catFR1	0	R1334T
1483.667	1.585	1483896	WAITING_START	n/a	n/a	n/a	n/a	-999	13	[0, 0, 0]	n/a	catFR1	0	R1334T
1485.252	0.0	1485481	COUNTDOWN_START	n/a	n/a	n/a	n/a	-999	13	[0, 0, 0]	n/a	catFR1	0	R1334T
1485.252	10.429	1485481	WAITING_END	n/a	n/a	n/a	n/a	-999	13	[0, 0, 0]	n/a	catFR1	0	R1334T
1495.681	0.001	1495909	COUNTDOWN_END	n/a	n/a	n/a	n/a	-999	13	[0, 0, 0]	n/a	catFR1	0	R1334T
1495.682	1.139	1495910	ORIENT_START	n/a	n/a	n/a	n/a	-999	13	[0, 0, 0]	n/a	catFR1	0	R1334T
1496.821	0.0	1497049	ORIENT_END	n/a	n/a	n/a	n/a	-999	13	[0, 0, 0]	n/a	catFR1	0	R1334T
1496.821	0.795	1497049	ENCODING_START	n/a	n/a	n/a	n/a	-999	13	[0, 0, 0]	n/a	catFR1	0	R1334T
1497.616	1.638	1497844	WORD	n/a	wordpools/wordpool_categorized_EN.txt	COOKIE	Desserts	1	13	[0, 0, 0]	n/a	catFR1	0	R1334T
1499.254	1.038	1499482	WORD_OFF	n/a	n/a	COOKIE	Desserts	1	13	[0, 0, 0]	n/a	catFR1	0	R1334T
1500.292	1.63	1500520	WORD	n/a	wordpools/wordpool_categorized_EN.txt	CHEESECAKE	Desserts	2	13	[0, 0, 0]	n/a	catFR1	0	R1334T
1501.922	0.823	1502150	WORD_OFF	n/a	n/a	CHEESECAKE	Desserts	2	13	[0, 0, 0]	n/a	catFR1	0	R1334T
1502.745	1.627	1502973	WORD	n/a	wordpools/wordpool_categorized_EN.txt	COLANDER	KitchenTools	3	13	[0, 0, 0]	n/a	catFR1	0	R1334T
1504.372	0.872	1504600	WORD_OFF	n/a	n/a	COLANDER	KitchenTools	3	13	[0, 0, 0]	n/a	catFR1	0	R1334T
1505.244	1.628	1505472	WORD	n/a	wordpools/wordpool_categorized_EN.txt	WHISK	KitchenTools	4	13	[0, 0, 0]	n/a	catFR1	0	R1334T
1506.872	0.902	1507100	WORD_OFF	n/a	n/a	WHISK	KitchenTools	4	13	[0, 0, 0]	n/a	catFR1	0	R1334T
1507.774	1.632	1508002	WORD	n/a	wordpools/wordpool_categorized_EN.txt	CABBAGE	Vegetables	5	13	[0, 0, 0]	n/a	catFR1	0	R1334T
1509.406	0.804	1509634	WORD_OFF	n/a	n/a	CABBAGE	Vegetables	5	13	[0, 0, 0]	n/a	catFR1	0	R1334T
1510.21	1.63	1510438	WORD	n/a	wordpools/wordpool_categorized_EN.txt	CELERY	Vegetables	6	13	[0, 0, 0]	n/a	catFR1	0	R1334T
1511.84	1.127	1512068	WORD_OFF	n/a	n/a	CELERY	Vegetables	6	13	[0, 0, 0]	n/a	catFR1	0	R1334T
1512.967	1.623	1513195	WORD	n/a	wordpools/wordpool_categorized_EN.txt	CORKSCREW	KitchenTools	7	13	[0, 0, 0]	n/a	catFR1	0	R1334T
1514.59	1.116	1514818	WORD_OFF	n/a	n/a	CORKSCREW	KitchenTools	7	13	[0, 0, 0]	n/a	catFR1	0	R1334T
1515.706	1.635	1515934	WORD	n/a	wordpools/wordpool_categorized_EN.txt	LADLE	KitchenTools	8	13	[0, 0, 0]	n/a	catFR1	0	R1334T
1517.341	0.878	1517568	WORD_OFF	n/a	n/a	LADLE	KitchenTools	8	13	[0, 0, 0]	n/a	catFR1	0	R1334T
1518.219	1.623	1518446	WORD	n/a	wordpools/wordpool_categorized_EN.txt	CAKE	Desserts	9	13	[0, 0, 0]	n/a	catFR1	0	R1334T
1519.842	1.137	1520069	WORD_OFF	n/a	n/a	CAKE	Desserts	9	13	[0, 0, 0]	n/a	catFR1	0	R1334T
1520.979	1.629	1521206	WORD	n/a	wordpools/wordpool_categorized_EN.txt	PIE	Desserts	10	13	[0, 0, 0]	n/a	catFR1	0	R1334T
1522.608	1.077	1522835	WORD_OFF	n/a	n/a	PIE	Desserts	10	13	[0, 0, 0]	n/a	catFR1	0	R1334T
1523.685	1.624	1523912	WORD	n/a	wordpools/wordpool_categorized_EN.txt	PEAS	Vegetables	11	13	[0, 0, 0]	n/a	catFR1	0	R1334T
1525.309	0.988	1525536	WORD_OFF	n/a	n/a	PEAS	Vegetables	11	13	[0, 0, 0]	n/a	catFR1	0	R1334T
1526.297	1.629	1526524	WORD	n/a	wordpools/wordpool_categorized_EN.txt	ONION	Vegetables	12	13	[0, 0, 0]	n/a	catFR1	0	R1334T
1527.926	0.001	1528153	WORD_OFF	n/a	n/a	ONION	Vegetables	12	13	[0, 0, 0]	n/a	catFR1	0	R1334T
1527.927	0.0	1528154	ENCODING_END	n/a	n/a	n/a	n/a	-999	13	[0, 0, 0]	n/a	catFR1	0	R1334T
1527.927	0.0	1528154	DISTRACT_START	n/a	n/a	n/a	n/a	-999	13	[0, 0, 0]	n/a	catFR1	0	R1334T
1527.927	0.016	1528154	START	n/a	n/a	n/a	n/a	-999	13	[-999, -999, -999]	n/a	catFR1	0	R1334T
1527.943	5.451	1528170	PROB	5.451	n/a	n/a	n/a	-999	13	[3, 4, 8]	15	catFR1	0	R1334T
1533.394	5.384	1533621	PROB	5.384	n/a	n/a	n/a	-999	13	[7, 6, 8]	21	catFR1	0	R1334T
1538.778	2.867	1539004	PROB	2.867	n/a	n/a	n/a	-999	13	[5, 1, 5]	11	catFR1	0	R1334T
1541.645	4.184	1541871	PROB	4.184	n/a	n/a	n/a	-999	13	[7, 4, 9]	20	catFR1	0	R1334T
1545.829	3.488	1546055	PROB	3.488	n/a	n/a	n/a	-999	13	[7, 9, 1]	17	catFR1	0	R1334T
1549.317	0.013	1549543	STOP	n/a	n/a	n/a	n/a	-999	13	[-999, -999, -999]	n/a	catFR1	0	R1334T
1549.33	0.568	1549556	DISTRACT_END	n/a	n/a	n/a	n/a	-999	13	[0, 0, 0]	n/a	catFR1	0	R1334T
1549.898	1.683	1550124	RETRIEVAL_ORIENT_START	n/a	n/a	n/a	n/a	-999	13	[0, 0, 0]	n/a	catFR1	0	R1334T
1551.581	0.0	1551807	RETRIEVAL_ORIENT_END	n/a	n/a	n/a	n/a	-999	13	[0, 0, 0]	n/a	catFR1	0	R1334T
1551.581	0.742	1551807	REC_START	n/a	n/a	n/a	n/a	-999	13	[0, 0, 0]	n/a	catFR1	0	R1334T
1552.323	1.309	1552549	REC_WORD	1.309	n/a	COOKIE	Desserts	1	13	[0, 0, 0]	n/a	catFR1	0	R1334T
1553.632	1.315	1553858	REC_WORD	1.315	n/a	CANDY	n/a	-999	13	[0, 0, 0]	n/a	catFR1	0	R1334T
1554.947	4.237	1555173	REC_WORD	4.237	n/a	COLANDER	KitchenTools	3	13	[0, 0, 0]	n/a	catFR1	0	R1334T
1559.184	1.734	1559409	REC_WORD	1.734	n/a	CABBAGE	Vegetables	5	13	[0, 0, 0]	n/a	catFR1	0	R1334T
1560.918	4.125	1561143	REC_WORD	4.125	n/a	PEAS	Vegetables	11	13	[0, 0, 0]	n/a	catFR1	0	R1334T
1565.043	16.551	1565268	REC_WORD	16.551	n/a	ONION	Vegetables	12	13	[0, 0, 0]	n/a	catFR1	0	R1334T
1581.594	0.0	1581818	REC_END	n/a	n/a	n/a	n/a	-999	13	[0, 0, 0]	n/a	catFR1	0	R1334T
1581.594	0.021	1581818	TRIAL_END	n/a	n/a	n/a	n/a	-999	13	[0, 0, 0]	n/a	catFR1	0	R1334T
1581.615	0.0	1581839	TRIAL	n/a	n/a	n/a	n/a	-999	14	[0, 0, 0]	n/a	catFR1	0	R1334T
1581.615	0.0	1581839	WAITING_START	n/a	n/a	n/a	n/a	-999	14	[0, 0, 0]	n/a	catFR1	0	R1334T
1581.615	1.805	1581839	TRIAL_START	n/a	n/a	n/a	n/a	-999	14	[0, 0, 0]	n/a	catFR1	0	R1334T
1583.42	0.0	1583644	WAITING_END	n/a	n/a	n/a	n/a	-999	14	[0, 0, 0]	n/a	catFR1	0	R1334T
1583.42	10.428	1583644	COUNTDOWN_START	n/a	n/a	n/a	n/a	-999	14	[0, 0, 0]	n/a	catFR1	0	R1334T
1593.848	0.0	1594072	COUNTDOWN_END	n/a	n/a	n/a	n/a	-999	14	[0, 0, 0]	n/a	catFR1	0	R1334T
1593.848	1.174	1594072	ORIENT_START	n/a	n/a	n/a	n/a	-999	14	[0, 0, 0]	n/a	catFR1	0	R1334T
1595.022	0.0	1595246	ORIENT_END	n/a	n/a	n/a	n/a	-999	14	[0, 0, 0]	n/a	catFR1	0	R1334T
1595.022	1.043	1595246	ENCODING_START	n/a	n/a	n/a	n/a	-999	14	[0, 0, 0]	n/a	catFR1	0	R1334T
1596.065	1.624	1596289	WORD	n/a	wordpools/wordpool_categorized_EN.txt	PIGEON	Birds	1	14	[0, 0, 0]	n/a	catFR1	0	R1334T
1597.689	0.749	1597913	WORD_OFF	n/a	n/a	PIGEON	Birds	1	14	[0, 0, 0]	n/a	catFR1	0	R1334T
1598.438	1.634	1598662	WORD	n/a	wordpools/wordpool_categorized_EN.txt	GOOSE	Birds	2	14	[0, 0, 0]	n/a	catFR1	0	R1334T
1600.072	0.77	1600296	WORD_OFF	n/a	n/a	GOOSE	Birds	2	14	[0, 0, 0]	n/a	catFR1	0	R1334T
1600.842	1.631	1601066	WORD	n/a	wordpools/wordpool_categorized_EN.txt	CRICKET	Insects	3	14	[0, 0, 0]	n/a	catFR1	0	R1334T
1602.473	1.069	1602696	WORD_OFF	n/a	n/a	CRICKET	Insects	3	14	[0, 0, 0]	n/a	catFR1	0	R1334T
1603.542	1.631	1603765	WORD	n/a	wordpools/wordpool_categorized_EN.txt	SPIDER	Insects	4	14	[0, 0, 0]	n/a	catFR1	0	R1334T
1605.173	0.866	1605396	WORD_OFF	n/a	n/a	SPIDER	Insects	4	14	[0, 0, 0]	n/a	catFR1	0	R1334T
1606.039	1.635	1606262	WORD	n/a	wordpools/wordpool_categorized_EN.txt	DOLL	Toys	5	14	[0, 0, 0]	n/a	catFR1	0	R1334T
1607.674	1.094	1607897	WORD_OFF	n/a	n/a	DOLL	Toys	5	14	[0, 0, 0]	n/a	catFR1	0	R1334T
1608.768	1.623	1608991	WORD	n/a	wordpools/wordpool_categorized_EN.txt	FRISBEE	Toys	6	14	[0, 0, 0]	n/a	catFR1	0	R1334T
1610.391	0.969	1610614	WORD_OFF	n/a	n/a	FRISBEE	Toys	6	14	[0, 0, 0]	n/a	catFR1	0	R1334T
1611.36	1.632	1611583	WORD	n/a	wordpools/wordpool_categorized_EN.txt	ANT	Insects	7	14	[0, 0, 0]	n/a	catFR1	0	R1334T
1612.992	0.945	1613215	WORD_OFF	n/a	n/a	ANT	Insects	7	14	[0, 0, 0]	n/a	catFR1	0	R1334T
1613.937	1.638	1614160	WORD	n/a	wordpools/wordpool_categorized_EN.txt	MOSQUITO	Insects	8	14	[0, 0, 0]	n/a	catFR1	0	R1334T
1615.575	0.818	1615798	WORD_OFF	n/a	n/a	MOSQUITO	Insects	8	14	[0, 0, 0]	n/a	catFR1	0	R1334T
1616.393	1.633	1616616	WORD	n/a	wordpools/wordpool_categorized_EN.txt	FINCH	Birds	9	14	[0, 0, 0]	n/a	catFR1	0	R1334T
1618.026	1.098	1618249	WORD_OFF	n/a	n/a	FINCH	Birds	9	14	[0, 0, 0]	n/a	catFR1	0	R1334T
1619.124	1.619	1619347	WORD	n/a	wordpools/wordpool_categorized_EN.txt	CROW	Birds	10	14	[0, 0, 0]	n/a	catFR1	0	R1334T
1620.743	0.893	1620966	WORD_OFF	n/a	n/a	CROW	Birds	10	14	[0, 0, 0]	n/a	catFR1	0	R1334T
1621.636	1.624	1621859	WORD	n/a	wordpools/wordpool_categorized_EN.txt	FOOTBALL	Toys	11	14	[0, 0, 0]	n/a	catFR1	0	R1334T
1623.26	1.044	1623482	WORD_OFF	n/a	n/a	FOOTBALL	Toys	11	14	[0, 0, 0]	n/a	catFR1	0	R1334T
1624.304	1.623	1624526	WORD	n/a	wordpools/wordpool_categorized_EN.txt	DOLLHOUSE	Toys	12	14	[0, 0, 0]	n/a	catFR1	0	R1334T
1625.927	0.001	1626149	WORD_OFF	n/a	n/a	DOLLHOUSE	Toys	12	14	[0, 0, 0]	n/a	catFR1	0	R1334T
1625.928	0.0	1626150	ENCODING_END	n/a	n/a	n/a	n/a	-999	14	[0, 0, 0]	n/a	catFR1	0	R1334T
1625.928	0.001	1626150	DISTRACT_START	n/a	n/a	n/a	n/a	-999	14	[0, 0, 0]	n/a	catFR1	0	R1334T
1625.929	0.015	1626151	START	n/a	n/a	n/a	n/a	-999	14	[-999, -999, -999]	n/a	catFR1	0	R1334T
1625.944	8.802	1626166	PROB	8.802	n/a	n/a	n/a	-999	14	[9, 9, 6]	24	catFR1	0	R1334T
1634.746	3.283	1634968	PROB	3.283	n/a	n/a	n/a	-999	14	[7, 2, 1]	10	catFR1	0	R1334T
1638.029	4.551	1638251	PROB	4.551	n/a	n/a	n/a	-999	14	[3, 9, 6]	18	catFR1	0	R1334T
1642.58	2.801	1642802	PROB	2.801	n/a	n/a	n/a	-999	14	[8, 2, 6]	16	catFR1	0	R1334T
1645.381	3.044	1645602	PROB	3.044	n/a	n/a	n/a	-999	14	[9, 5, 3]	17	catFR1	0	R1334T
1648.425	0.006	1648646	STOP	n/a	n/a	n/a	n/a	-999	14	[-999, -999, -999]	n/a	catFR1	0	R1334T
1648.431	0.523	1648652	DISTRACT_END	n/a	n/a	n/a	n/a	-999	14	[0, 0, 0]	n/a	catFR1	0	R1334T
1648.954	1.711	1649175	RETRIEVAL_ORIENT_START	n/a	n/a	n/a	n/a	-999	14	[0, 0, 0]	n/a	catFR1	0	R1334T
1650.665	0.0	1650886	RETRIEVAL_ORIENT_END	n/a	n/a	n/a	n/a	-999	14	[0, 0, 0]	n/a	catFR1	0	R1334T
1650.665	0.423	1650886	REC_START	n/a	n/a	n/a	n/a	-999	14	[0, 0, 0]	n/a	catFR1	0	R1334T
1651.088	1.964	1651309	REC_WORD	1.964	n/a	PIGEON	Birds	1	14	[0, 0, 0]	n/a	catFR1	0	R1334T
1653.052	1.415	1653273	REC_WORD	1.415	n/a	FRISBEE	Toys	6	14	[0, 0, 0]	n/a	catFR1	0	R1334T
1654.467	2.302	1654688	REC_WORD	2.302	n/a	MOSQUITO	Insects	8	14	[0, 0, 0]	n/a	catFR1	0	R1334T
1656.769	23.91	1656990	REC_WORD	23.91	n/a	ANT	Insects	7	14	[0, 0, 0]	n/a	catFR1	0	R1334T
1680.679	0.0	1680899	REC_END	n/a	n/a	n/a	n/a	-999	14	[0, 0, 0]	n/a	catFR1	0	R1334T
1680.679	0.023	1680899	TRIAL_END	n/a	n/a	n/a	n/a	-999	14	[0, 0, 0]	n/a	catFR1	0	R1334T
1680.702	0.0	1680922	TRIAL_START	n/a	n/a	n/a	n/a	-999	15	[0, 0, 0]	n/a	catFR1	0	R1334T
1680.702	0.001	1680922	TRIAL	n/a	n/a	n/a	n/a	-999	15	[0, 0, 0]	n/a	catFR1	0	R1334T
1680.703	3.401	1680923	WAITING_START	n/a	n/a	n/a	n/a	-999	15	[0, 0, 0]	n/a	catFR1	0	R1334T
1684.104	0.0	1684324	COUNTDOWN_START	n/a	n/a	n/a	n/a	-999	15	[0, 0, 0]	n/a	catFR1	0	R1334T
1684.104	10.429	1684324	WAITING_END	n/a	n/a	n/a	n/a	-999	15	[0, 0, 0]	n/a	catFR1	0	R1334T
1694.533	0.001	1694752	COUNTDOWN_END	n/a	n/a	n/a	n/a	-999	15	[0, 0, 0]	n/a	catFR1	0	R1334T
1694.534	1.173	1694753	ORIENT_START	n/a	n/a	n/a	n/a	-999	15	[0, 0, 0]	n/a	catFR1	0	R1334T
1695.707	0.0	1695926	ORIENT_END	n/a	n/a	n/a	n/a	-999	15	[0, 0, 0]	n/a	catFR1	0	R1334T
1695.707	0.794	1695926	ENCODING_START	n/a	n/a	n/a	n/a	-999	15	[0, 0, 0]	n/a	catFR1	0	R1334T
1696.501	1.622	1696720	WORD	n/a	wordpools/wordpool_categorized_EN.txt	KNEE	BodyParts	1	15	[0, 0, 0]	n/a	catFR1	0	R1334T
1698.123	0.826	1698342	WORD_OFF	n/a	n/a	KNEE	BodyParts	1	15	[0, 0, 0]	n/a	catFR1	0	R1334T
1698.949	1.625	1699168	WORD	n/a	wordpools/wordpool_categorized_EN.txt	LEG	BodyParts	2	15	[0, 0, 0]	n/a	catFR1	0	R1334T
1700.574	0.774	1700793	WORD_OFF	n/a	n/a	LEG	BodyParts	2	15	[0, 0, 0]	n/a	catFR1	0	R1334T
1701.348	1.627	1701567	WORD	n/a	wordpools/wordpool_categorized_EN.txt	SHOES	Clothing	3	15	[0, 0, 0]	n/a	catFR1	0	R1334T
1702.975	1.011	1703194	WORD_OFF	n/a	n/a	SHOES	Clothing	3	15	[0, 0, 0]	n/a	catFR1	0	R1334T
1703.986	1.623	1704205	WORD	n/a	wordpools/wordpool_categorized_EN.txt	SOCKS	Clothing	4	15	[0, 0, 0]	n/a	catFR1	0	R1334T
1705.609	1.016	1705828	WORD_OFF	n/a	n/a	SOCKS	Clothing	4	15	[0, 0, 0]	n/a	catFR1	0	R1334T
1706.625	1.634	1706844	WORD	n/a	wordpools/wordpool_categorized_EN.txt	STAPLER	OfficeSupplies	5	15	[0, 0, 0]	n/a	catFR1	0	R1334T
1708.259	1.015	1708477	WORD_OFF	n/a	n/a	STAPLER	OfficeSupplies	5	15	[0, 0, 0]	n/a	catFR1	0	R1334T
1709.274	1.635	1709492	WORD	n/a	wordpools/wordpool_categorized_EN.txt	PAPER	OfficeSupplies	6	15	[0, 0, 0]	n/a	catFR1	0	R1334T
1710.909	0.796	1711127	WORD_OFF	n/a	n/a	PAPER	OfficeSupplies	6	15	[0, 0, 0]	n/a	catFR1	0	R1334T
1711.705	1.638	1711923	WORD	n/a	wordpools/wordpool_categorized_EN.txt	BLOUSE	Clothing	7	15	[0, 0, 0]	n/a	catFR1	0	R1334T
1713.343	1.082	1713561	WORD_OFF	n/a	n/a	BLOUSE	Clothing	7	15	[0, 0, 0]	n/a	catFR1	0	R1334T
1714.425	1.634	1714643	WORD	n/a	wordpools/wordpool_categorized_EN.txt	JEANS	Clothing	8	15	[0, 0, 0]	n/a	catFR1	0	R1334T
1716.059	0.858	1716277	WORD_OFF	n/a	n/a	JEANS	Clothing	8	15	[0, 0, 0]	n/a	catFR1	0	R1334T
1716.917	1.627	1717135	WORD	n/a	wordpools/wordpool_categorized_EN.txt	EAR	BodyParts	9	15	[0, 0, 0]	n/a	catFR1	0	R1334T
1718.544	0.981	1718762	WORD_OFF	n/a	n/a	EAR	BodyParts	9	15	[0, 0, 0]	n/a	catFR1	0	R1334T
1719.525	1.635	1719743	WORD	n/a	wordpools/wordpool_categorized_EN.txt	HAND	BodyParts	10	15	[0, 0, 0]	n/a	catFR1	0	R1334T
1721.16	1.014	1721378	WORD_OFF	n/a	n/a	HAND	BodyParts	10	15	[0, 0, 0]	n/a	catFR1	0	R1334T
1722.174	1.638	1722392	WORD	n/a	wordpools/wordpool_categorized_EN.txt	MARKER	OfficeSupplies	11	15	[0, 0, 0]	n/a	catFR1	0	R1334T
1723.812	0.893	1724030	WORD_OFF	n/a	n/a	MARKER	OfficeSupplies	11	15	[0, 0, 0]	n/a	catFR1	0	R1334T
1724.705	1.624	1724923	WORD	n/a	wordpools/wordpool_categorized_EN.txt	RULER	OfficeSupplies	12	15	[0, 0, 0]	n/a	catFR1	0	R1334T
1726.329	0.001	1726547	WORD_OFF	n/a	n/a	RULER	OfficeSupplies	12	15	[0, 0, 0]	n/a	catFR1	0	R1334T
1726.33	0.0	1726548	ENCODING_END	n/a	n/a	n/a	n/a	-999	15	[0, 0, 0]	n/a	catFR1	0	R1334T
1726.33	0.0	1726548	DISTRACT_START	n/a	n/a	n/a	n/a	-999	15	[0, 0, 0]	n/a	catFR1	0	R1334T
1726.33	0.015	1726548	START	n/a	n/a	n/a	n/a	-999	15	[-999, -999, -999]	n/a	catFR1	0	R1334T
1726.345	5.618	1726563	PROB	5.618	n/a	n/a	n/a	-999	15	[8, 8, 6]	22	catFR1	0	R1334T
1731.963	3.467	1732180	PROB	3.467	n/a	n/a	n/a	-999	15	[6, 7, 5]	18	catFR1	0	R1334T
1735.43	3.018	1735647	PROB	3.018	n/a	n/a	n/a	-999	15	[1, 7, 7]	15	catFR1	0	R1334T
1738.448	3.384	1738665	PROB	3.384	n/a	n/a	n/a	-999	15	[7, 7, 8]	22	catFR1	0	R1334T
1741.832	3.667	1742049	PROB	3.667	n/a	n/a	n/a	-999	15	[3, 6, 9]	18	catFR1	0	R1334T
1745.499	4.359	1745716	PROB	4.359	n/a	n/a	n/a	-999	15	[7, 2, 4]	13	catFR1	0	R1334T
1749.858	0.009	1750075	STOP	n/a	n/a	n/a	n/a	-999	15	[-999, -999, -999]	n/a	catFR1	0	R1334T
1749.867	0.692	1750084	DISTRACT_END	n/a	n/a	n/a	n/a	-999	15	[0, 0, 0]	n/a	catFR1	0	R1334T
1750.559	1.641	1750776	RETRIEVAL_ORIENT_START	n/a	n/a	n/a	n/a	-999	15	[0, 0, 0]	n/a	catFR1	0	R1334T
1752.2	0.001	1752416	RETRIEVAL_ORIENT_END	n/a	n/a	n/a	n/a	-999	15	[0, 0, 0]	n/a	catFR1	0	R1334T
1752.201	0.344	1752417	REC_START	n/a	n/a	n/a	n/a	-999	15	[0, 0, 0]	n/a	catFR1	0	R1334T
1752.545	3.549	1752761	REC_WORD	3.549	n/a	STAPLER	OfficeSupplies	5	15	[0, 0, 0]	n/a	catFR1	0	R1334T
1756.094	1.831	1756310	REC_WORD	1.831	n/a	KNEE	BodyParts	1	15	[0, 0, 0]	n/a	catFR1	0	R1334T
1757.925	1.446	1758141	REC_WORD	1.446	n/a	LEG	BodyParts	2	15	[0, 0, 0]	n/a	catFR1	0	R1334T
1759.371	2.523	1759587	REC_WORD	2.523	n/a	SOCK	n/a	-999	15	[0, 0, 0]	n/a	catFR1	0	R1334T
1761.894	3.135	1762110	REC_WORD	3.135	n/a	ANKLE	n/a	-999	15	[0, 0, 0]	n/a	catFR1	0	R1334T
1765.029	3.943	1765245	REC_WORD	3.943	n/a	CHEST	n/a	-999	15	[0, 0, 0]	n/a	catFR1	0	R1334T
1768.972	3.281	1769188	REC_WORD	3.281	n/a	BACK	n/a	-999	15	[0, 0, 0]	n/a	catFR1	0	R1334T
1772.253	1.529	1772468	REC_WORD	1.529	n/a	BLOUSE	Clothing	7	15	[0, 0, 0]	n/a	catFR1	0	R1334T
1773.782	8.431	1773997	REC_WORD	8.431	n/a	PANTS	Clothing	-999	15	[0, 0, 0]	n/a	catFR1	0	R1334T
1782.213	0.0	1782428	REC_END	n/a	n/a	n/a	n/a	-999	15	[0, 0, 0]	n/a	catFR1	0	R1334T
1782.213	0.023	1782428	TRIAL_END	n/a	n/a	n/a	n/a	-999	15	[0, 0, 0]	n/a	catFR1	0	R1334T
1782.236	0.0	1782451	WAITING_START	n/a	n/a	n/a	n/a	-999	16	[0, 0, 0]	n/a	catFR1	0	R1334T
1782.236	0.0	1782451	TRIAL	n/a	n/a	n/a	n/a	-999	16	[0, 0, 0]	n/a	catFR1	0	R1334T
1782.236	1.67	1782451	TRIAL_START	n/a	n/a	n/a	n/a	-999	16	[0, 0, 0]	n/a	catFR1	0	R1334T
1783.906	0.001	1784121	WAITING_END	n/a	n/a	n/a	n/a	-999	16	[0, 0, 0]	n/a	catFR1	0	R1334T
1783.907	10.428	1784122	COUNTDOWN_START	n/a	n/a	n/a	n/a	-999	16	[0, 0, 0]	n/a	catFR1	0	R1334T
1794.335	0.001	1794549	COUNTDOWN_END	n/a	n/a	n/a	n/a	-999	16	[0, 0, 0]	n/a	catFR1	0	R1334T
1794.336	1.222	1794550	ORIENT_START	n/a	n/a	n/a	n/a	-999	16	[0, 0, 0]	n/a	catFR1	0	R1334T
1795.558	0.001	1795772	ORIENT_END	n/a	n/a	n/a	n/a	-999	16	[0, 0, 0]	n/a	catFR1	0	R1334T
1795.559	0.893	1795773	ENCODING_START	n/a	n/a	n/a	n/a	-999	16	[0, 0, 0]	n/a	catFR1	0	R1334T
1796.452	1.622	1796666	WORD	n/a	wordpools/wordpool_categorized_EN.txt	MILK	Beverages	1	16	[0, 0, 0]	n/a	catFR1	0	R1334T
1798.074	0.863	1798288	WORD_OFF	n/a	n/a	MILK	Beverages	1	16	[0, 0, 0]	n/a	catFR1	0	R1334T
1798.937	1.622	1799151	WORD	n/a	wordpools/wordpool_categorized_EN.txt	TEA	Beverages	2	16	[0, 0, 0]	n/a	catFR1	0	R1334T
1800.559	0.781	1800773	WORD_OFF	n/a	n/a	TEA	Beverages	2	16	[0, 0, 0]	n/a	catFR1	0	R1334T
1801.34	1.636	1801554	WORD	n/a	wordpools/wordpool_categorized_EN.txt	LILAC	Flowers	3	16	[0, 0, 0]	n/a	catFR1	0	R1334T
1802.976	0.772	1803190	WORD_OFF	n/a	n/a	LILAC	Flowers	3	16	[0, 0, 0]	n/a	catFR1	0	R1334T
1803.748	1.629	1803962	WORD	n/a	wordpools/wordpool_categorized_EN.txt	DAFFODIL	Flowers	4	16	[0, 0, 0]	n/a	catFR1	0	R1334T
1805.377	0.894	1805591	WORD_OFF	n/a	n/a	DAFFODIL	Flowers	4	16	[0, 0, 0]	n/a	catFR1	0	R1334T
1806.271	1.623	1806485	WORD	n/a	wordpools/wordpool_categorized_EN.txt	FOREST	Landscapes	5	16	[0, 0, 0]	n/a	catFR1	0	R1334T
1807.894	0.941	1808108	WORD_OFF	n/a	n/a	FOREST	Landscapes	5	16	[0, 0, 0]	n/a	catFR1	0	R1334T
1808.835	1.626	1809049	WORD	n/a	wordpools/wordpool_categorized_EN.txt	RIVER	Landscapes	6	16	[0, 0, 0]	n/a	catFR1	0	R1334T
1810.461	1.094	1810675	WORD_OFF	n/a	n/a	RIVER	Landscapes	6	16	[0, 0, 0]	n/a	catFR1	0	R1334T
1811.555	1.622	1811769	WORD	n/a	wordpools/wordpool_categorized_EN.txt	BEER	Beverages	7	16	[0, 0, 0]	n/a	catFR1	0	R1334T
1813.177	0.828	1813391	WORD_OFF	n/a	n/a	BEER	Beverages	7	16	[0, 0, 0]	n/a	catFR1	0	R1334T
1814.005	1.624	1814219	WORD	n/a	wordpools/wordpool_categorized_EN.txt	COLA	Beverages	8	16	[0, 0, 0]	n/a	catFR1	0	R1334T
1815.629	0.834	1815842	WORD_OFF	n/a	n/a	COLA	Beverages	8	16	[0, 0, 0]	n/a	catFR1	0	R1334T
1816.463	1.632	1816676	WORD	n/a	wordpools/wordpool_categorized_EN.txt	MARIGOLD	Flowers	9	16	[0, 0, 0]	n/a	catFR1	0	R1334T
1818.095	0.8	1818308	WORD_OFF	n/a	n/a	MARIGOLD	Flowers	9	16	[0, 0, 0]	n/a	catFR1	0	R1334T
1818.895	1.634	1819108	WORD	n/a	wordpools/wordpool_categorized_EN.txt	SUNFLOWER	Flowers	10	16	[0, 0, 0]	n/a	catFR1	0	R1334T
1820.529	0.886	1820742	WORD_OFF	n/a	n/a	SUNFLOWER	Flowers	10	16	[0, 0, 0]	n/a	catFR1	0	R1334T
1821.415	1.631	1821628	WORD	n/a	wordpools/wordpool_categorized_EN.txt	WOODS	Landscapes	11	16	[0, 0, 0]	n/a	catFR1	0	R1334T
1823.046	0.794	1823259	WORD_OFF	n/a	n/a	WOODS	Landscapes	11	16	[0, 0, 0]	n/a	catFR1	0	R1334T
1823.84	1.624	1824053	WORD	n/a	wordpools/wordpool_categorized_EN.txt	VALLEY	Landscapes	12	16	[0, 0, 0]	n/a	catFR1	0	R1334T
1825.464	0.0	1825677	WORD_OFF	n/a	n/a	VALLEY	Landscapes	12	16	[0, 0, 0]	n/a	catFR1	0	R1334T
1825.464	0.0	1825677	ENCODING_END	n/a	n/a	n/a	n/a	-999	16	[0, 0, 0]	n/a	catFR1	0	R1334T
1825.464	0.001	1825677	DISTRACT_START	n/a	n/a	n/a	n/a	-999	16	[0, 0, 0]	n/a	catFR1	0	R1334T
1825.465	0.015	1825678	START	n/a	n/a	n/a	n/a	-999	16	[-999, -999, -999]	n/a	catFR1	0	R1334T
1825.48	7.968	1825693	PROB	7.968	n/a	n/a	n/a	-999	16	[7, 9, 6]	23	catFR1	0	R1334T
1833.448	9.085	1833661	PROB	9.085	n/a	n/a	n/a	-999	16	[3, 9, 3]	15	catFR1	0	R1334T
1842.533	4.536	1842745	PROB	4.536	n/a	n/a	n/a	-999	16	[5, 8, 9]	22	catFR1	0	R1334T
1847.069	0.014	1847281	STOP	n/a	n/a	n/a	n/a	-999	16	[-999, -999, -999]	n/a	catFR1	0	R1334T
1847.083	0.566	1847295	DISTRACT_END	n/a	n/a	n/a	n/a	-999	16	[0, 0, 0]	n/a	catFR1	0	R1334T
1847.649	1.569	1847861	RETRIEVAL_ORIENT_START	n/a	n/a	n/a	n/a	-999	16	[0, 0, 0]	n/a	catFR1	0	R1334T
1849.218	0.0	1849430	REC_START	n/a	n/a	n/a	n/a	-999	16	[0, 0, 0]	n/a	catFR1	0	R1334T
1849.218	0.38	1849430	RETRIEVAL_ORIENT_END	n/a	n/a	n/a	n/a	-999	16	[0, 0, 0]	n/a	catFR1	0	R1334T
1849.598	3.053	1849810	REC_WORD	3.053	n/a	DAFFODIL	Flowers	4	16	[0, 0, 0]	n/a	catFR1	0	R1334T
1852.651	3.259	1852863	REC_WORD	3.259	n/a	MARIGOLD	Flowers	9	16	[0, 0, 0]	n/a	catFR1	0	R1334T
1855.91	9.793	1856122	REC_WORD	9.793	n/a	SUNFLOWER	Flowers	10	16	[0, 0, 0]	n/a	catFR1	0	R1334T
1865.703	13.528	1865914	REC_WORD	13.528	n/a	KETTLE	n/a	-999	16	[0, 0, 0]	n/a	catFR1	0	R1334T
1879.231	0.0	1879441	REC_END	n/a	n/a	n/a	n/a	-999	16	[0, 0, 0]	n/a	catFR1	0	R1334T
1879.231	0.021	1879441	TRIAL_END	n/a	n/a	n/a	n/a	-999	16	[0, 0, 0]	n/a	catFR1	0	R1334T
1879.252	0.001	1879462	TRIAL_START	n/a	n/a	n/a	n/a	-999	17	[0, 0, 0]	n/a	catFR1	0	R1334T
1879.253	0.0	1879463	WAITING_START	n/a	n/a	n/a	n/a	-999	17	[0, 0, 0]	n/a	catFR1	0	R1334T
1879.253	4.321	1879463	TRIAL	n/a	n/a	n/a	n/a	-999	17	[0, 0, 0]	n/a	catFR1	0	R1334T
1883.574	0.001	1883784	WAITING_END	n/a	n/a	n/a	n/a	-999	17	[0, 0, 0]	n/a	catFR1	0	R1334T
1883.575	10.429	1883785	COUNTDOWN_START	n/a	n/a	n/a	n/a	-999	17	[0, 0, 0]	n/a	catFR1	0	R1334T
1894.004	0.0	1894214	COUNTDOWN_END	n/a	n/a	n/a	n/a	-999	17	[0, 0, 0]	n/a	catFR1	0	R1334T
1894.004	1.022	1894214	ORIENT_START	n/a	n/a	n/a	n/a	-999	17	[0, 0, 0]	n/a	catFR1	0	R1334T
1895.026	0.001	1895236	ORIENT_END	n/a	n/a	n/a	n/a	-999	17	[0, 0, 0]	n/a	catFR1	0	R1334T
1895.027	0.822	1895237	ENCODING_START	n/a	n/a	n/a	n/a	-999	17	[0, 0, 0]	n/a	catFR1	0	R1334T
1895.849	1.628	1896059	WORD	n/a	wordpools/wordpool_categorized_EN.txt	TABLET	Electronics	1	17	[0, 0, 0]	n/a	catFR1	0	R1334T
1897.477	1.123	1897687	WORD_OFF	n/a	n/a	TABLET	Electronics	1	17	[0, 0, 0]	n/a	catFR1	0	R1334T
1898.6	1.627	1898810	WORD	n/a	wordpools/wordpool_categorized_EN.txt	MICROWAVE	Electronics	2	17	[0, 0, 0]	n/a	catFR1	0	R1334T
1900.227	0.761	1900436	WORD_OFF	n/a	n/a	MICROWAVE	Electronics	2	17	[0, 0, 0]	n/a	catFR1	0	R1334T
1900.988	1.623	1901197	WORD	n/a	wordpools/wordpool_categorized_EN.txt	ORCHID	Flowers	3	17	[0, 0, 0]	n/a	catFR1	0	R1334T
1902.611	1.144	1902820	WORD_OFF	n/a	n/a	ORCHID	Flowers	3	17	[0, 0, 0]	n/a	catFR1	0	R1334T
1903.755	1.623	1903964	WORD	n/a	wordpools/wordpool_categorized_EN.txt	TULIP	Flowers	4	17	[0, 0, 0]	n/a	catFR1	0	R1334T
1905.378	0.835	1905587	WORD_OFF	n/a	n/a	TULIP	Flowers	4	17	[0, 0, 0]	n/a	catFR1	0	R1334T
1906.213	1.632	1906422	WORD	n/a	wordpools/wordpool_categorized_EN.txt	GRAPE	Fruit	5	17	[0, 0, 0]	n/a	catFR1	0	R1334T
1907.845	0.928	1908054	WORD_OFF	n/a	n/a	GRAPE	Fruit	5	17	[0, 0, 0]	n/a	catFR1	0	R1334T
1908.773	1.639	1908982	WORD	n/a	wordpools/wordpool_categorized_EN.txt	STRAWBERRY	Fruit	6	17	[0, 0, 0]	n/a	catFR1	0	R1334T
1910.412	1.079	1910621	WORD_OFF	n/a	n/a	STRAWBERRY	Fruit	6	17	[0, 0, 0]	n/a	catFR1	0	R1334T
1911.491	1.638	1911700	WORD	n/a	wordpools/wordpool_categorized_EN.txt	PRINTER	Electronics	7	17	[0, 0, 0]	n/a	catFR1	0	R1334T
1913.129	0.942	1913338	WORD_OFF	n/a	n/a	PRINTER	Electronics	7	17	[0, 0, 0]	n/a	catFR1	0	R1334T
1914.071	1.626	1914280	WORD	n/a	wordpools/wordpool_categorized_EN.txt	COMPUTER	Electronics	8	17	[0, 0, 0]	n/a	catFR1	0	R1334T
1915.697	0.828	1915906	WORD_OFF	n/a	n/a	COMPUTER	Electronics	8	17	[0, 0, 0]	n/a	catFR1	0	R1334T
1916.525	1.621	1916734	WORD	n/a	wordpools/wordpool_categorized_EN.txt	LILY	Flowers	9	17	[0, 0, 0]	n/a	catFR1	0	R1334T
1918.146	0.955	1918355	WORD_OFF	n/a	n/a	LILY	Flowers	9	17	[0, 0, 0]	n/a	catFR1	0	R1334T
1919.101	1.63	1919310	WORD	n/a	wordpools/wordpool_categorized_EN.txt	CARNATION	Flowers	10	17	[0, 0, 0]	n/a	catFR1	0	R1334T
1920.731	1.068	1920940	WORD_OFF	n/a	n/a	CARNATION	Flowers	10	17	[0, 0, 0]	n/a	catFR1	0	R1334T
1921.799	1.632	1922007	WORD	n/a	wordpools/wordpool_categorized_EN.txt	CHERRY	Fruit	11	17	[0, 0, 0]	n/a	catFR1	0	R1334T
1923.431	1.103	1923639	WORD_OFF	n/a	n/a	CHERRY	Fruit	11	17	[0, 0, 0]	n/a	catFR1	0	R1334T
1924.534	1.63	1924742	WORD	n/a	wordpools/wordpool_categorized_EN.txt	LIME	Fruit	12	17	[0, 0, 0]	n/a	catFR1	0	R1334T
1926.164	0.001	1926372	WORD_OFF	n/a	n/a	LIME	Fruit	12	17	[0, 0, 0]	n/a	catFR1	0	R1334T
1926.165	0.0	1926373	ENCODING_END	n/a	n/a	n/a	n/a	-999	17	[0, 0, 0]	n/a	catFR1	0	R1334T
1926.165	0.0	1926373	DISTRACT_START	n/a	n/a	n/a	n/a	-999	17	[0, 0, 0]	n/a	catFR1	0	R1334T
1926.165	0.016	1926373	START	n/a	n/a	n/a	n/a	-999	17	[-999, -999, -999]	n/a	catFR1	0	R1334T
1926.181	4.884	1926389	PROB	4.884	n/a	n/a	n/a	-999	17	[2, 2, 7]	11	catFR1	0	R1334T
1931.065	4.685	1931273	PROB	4.685	n/a	n/a	n/a	-999	17	[8, 6, 7]	21	catFR1	0	R1334T
1935.75	3.851	1935958	PROB	3.851	n/a	n/a	n/a	-999	17	[3, 8, 7]	18	catFR1	0	R1334T
1939.601	2.667	1939809	PROB	2.667	n/a	n/a	n/a	-999	17	[4, 5, 5]	14	catFR1	0	R1334T
1942.268	5.639	1942475	PROB	5.639	n/a	n/a	n/a	-999	17	[6, 7, 5]	18	catFR1	0	R1334T
1947.907	0.012	1948114	STOP	n/a	n/a	n/a	n/a	-999	17	[-999, -999, -999]	n/a	catFR1	0	R1334T
1947.919	0.642	1948126	DISTRACT_END	n/a	n/a	n/a	n/a	-999	17	[0, 0, 0]	n/a	catFR1	0	R1334T
1948.561	1.624	1948768	RETRIEVAL_ORIENT_START	n/a	n/a	n/a	n/a	-999	17	[0, 0, 0]	n/a	catFR1	0	R1334T
1950.185	0.001	1950392	RETRIEVAL_ORIENT_END	n/a	n/a	n/a	n/a	-999	17	[0, 0, 0]	n/a	catFR1	0	R1334T
1950.186	0.503	1950393	REC_START	n/a	n/a	n/a	n/a	-999	17	[0, 0, 0]	n/a	catFR1	0	R1334T
1950.689	0.677	1950896	REC_WORD	0.677	n/a	ORCHID	Flowers	3	17	[0, 0, 0]	n/a	catFR1	0	R1334T
1951.366	4.48	1951573	REC_WORD	4.48	n/a	TULIP	Flowers	4	17	[0, 0, 0]	n/a	catFR1	0	R1334T
1955.846	16.089	1956053	REC_WORD	16.089	n/a	DAISY	n/a	-999	17	[0, 0, 0]	n/a	catFR1	0	R1334T
1971.935	8.263	1972141	REC_WORD	8.263	n/a	CARNATION	Flowers	10	17	[0, 0, 0]	n/a	catFR1	0	R1334T
1980.198	0.0	1980404	REC_END	n/a	n/a	n/a	n/a	-999	17	[0, 0, 0]	n/a	catFR1	0	R1334T
1980.198	0.025	1980404	TRIAL_END	n/a	n/a	n/a	n/a	-999	17	[0, 0, 0]	n/a	catFR1	0	R1334T
1980.223	0.001	1980429	TRIAL_START	n/a	n/a	n/a	n/a	-999	18	[0, 0, 0]	n/a	catFR1	0	R1334T
1980.224	0.0	1980430	TRIAL	n/a	n/a	n/a	n/a	-999	18	[0, 0, 0]	n/a	catFR1	0	R1334T
1980.224	2.268	1980430	WAITING_START	n/a	n/a	n/a	n/a	-999	18	[0, 0, 0]	n/a	catFR1	0	R1334T
1982.492	0.001	1982698	WAITING_END	n/a	n/a	n/a	n/a	-999	18	[0, 0, 0]	n/a	catFR1	0	R1334T
1982.493	10.428	1982699	COUNTDOWN_START	n/a	n/a	n/a	n/a	-999	18	[0, 0, 0]	n/a	catFR1	0	R1334T
1992.921	0.0	1993126	COUNTDOWN_END	n/a	n/a	n/a	n/a	-999	18	[0, 0, 0]	n/a	catFR1	0	R1334T
1992.921	1.057	1993126	ORIENT_START	n/a	n/a	n/a	n/a	-999	18	[0, 0, 0]	n/a	catFR1	0	R1334T
1993.978	0.0	1994183	ORIENT_END	n/a	n/a	n/a	n/a	-999	18	[0, 0, 0]	n/a	catFR1	0	R1334T
1993.978	1.142	1994183	ENCODING_START	n/a	n/a	n/a	n/a	-999	18	[0, 0, 0]	n/a	catFR1	0	R1334T
1995.12	1.608	1995325	WORD	n/a	wordpools/wordpool_categorized_EN.txt	RUM	Beverages	1	18	[0, 0, 0]	n/a	catFR1	0	R1334T
1996.728	1.091	1996933	WORD_OFF	n/a	n/a	RUM	Beverages	1	18	[0, 0, 0]	n/a	catFR1	0	R1334T
1997.819	1.626	1998024	WORD	n/a	wordpools/wordpool_categorized_EN.txt	JUICE	Beverages	2	18	[0, 0, 0]	n/a	catFR1	0	R1334T
1999.445	0.842	1999650	WORD_OFF	n/a	n/a	JUICE	Beverages	2	18	[0, 0, 0]	n/a	catFR1	0	R1334T
2000.287	1.626	2000492	WORD	n/a	wordpools/wordpool_categorized_EN.txt	ORGAN	Instruments	3	18	[0, 0, 0]	n/a	catFR1	0	R1334T
2001.913	0.803	2002118	WORD_OFF	n/a	n/a	ORGAN	Instruments	3	18	[0, 0, 0]	n/a	catFR1	0	R1334T
2002.716	1.63	2002921	WORD	n/a	wordpools/wordpool_categorized_EN.txt	FLUTE	Instruments	4	18	[0, 0, 0]	n/a	catFR1	0	R1334T
2004.346	0.831	2004551	WORD_OFF	n/a	n/a	FLUTE	Instruments	4	18	[0, 0, 0]	n/a	catFR1	0	R1334T
2005.177	1.636	2005382	WORD	n/a	wordpools/wordpool_categorized_EN.txt	PENCIL	OfficeSupplies	5	18	[0, 0, 0]	n/a	catFR1	0	R1334T
2006.813	0.776	2007017	WORD_OFF	n/a	n/a	PENCIL	OfficeSupplies	5	18	[0, 0, 0]	n/a	catFR1	0	R1334T
2007.589	1.625	2007793	WORD	n/a	wordpools/wordpool_categorized_EN.txt	NOTEBOOK	OfficeSupplies	6	18	[0, 0, 0]	n/a	catFR1	0	R1334T
2009.214	1.12	2009418	WORD_OFF	n/a	n/a	NOTEBOOK	OfficeSupplies	6	18	[0, 0, 0]	n/a	catFR1	0	R1334T
2010.334	1.63	2010538	WORD	n/a	wordpools/wordpool_categorized_EN.txt	PIANO	Instruments	7	18	[0, 0, 0]	n/a	catFR1	0	R1334T
2011.964	1.005	2012168	WORD_OFF	n/a	n/a	PIANO	Instruments	7	18	[0, 0, 0]	n/a	catFR1	0	R1334T
2012.969	1.629	2013173	WORD	n/a	wordpools/wordpool_categorized_EN.txt	TROMBONE	Instruments	8	18	[0, 0, 0]	n/a	catFR1	0	R1334T
2014.598	0.869	2014802	WORD_OFF	n/a	n/a	TROMBONE	Instruments	8	18	[0, 0, 0]	n/a	catFR1	0	R1334T
2015.467	1.63	2015671	WORD	n/a	wordpools/wordpool_categorized_EN.txt	LEMONADE	Beverages	9	18	[0, 0, 0]	n/a	catFR1	0	R1334T
2017.097	0.803	2017301	WORD_OFF	n/a	n/a	LEMONADE	Beverages	9	18	[0, 0, 0]	n/a	catFR1	0	R1334T
2017.9	1.632	2018104	WORD	n/a	wordpools/wordpool_categorized_EN.txt	WATER	Beverages	10	18	[0, 0, 0]	n/a	catFR1	0	R1334T
2019.532	0.756	2019736	WORD_OFF	n/a	n/a	WATER	Beverages	10	18	[0, 0, 0]	n/a	catFR1	0	R1334T
2020.288	1.628	2020492	WORD	n/a	wordpools/wordpool_categorized_EN.txt	TAPE	OfficeSupplies	11	18	[0, 0, 0]	n/a	catFR1	0	R1334T
2021.916	1.096	2022120	WORD_OFF	n/a	n/a	TAPE	OfficeSupplies	11	18	[0, 0, 0]	n/a	catFR1	0	R1334T
2023.012	1.621	2023216	WORD	n/a	wordpools/wordpool_categorized_EN.txt	PEN	OfficeSupplies	12	18	[0, 0, 0]	n/a	catFR1	0	R1334T
2024.633	0.001	2024837	WORD_OFF	n/a	n/a	PEN	OfficeSupplies	12	18	[0, 0, 0]	n/a	catFR1	0	R1334T
2024.634	0.0	2024838	ENCODING_END	n/a	n/a	n/a	n/a	-999	18	[0, 0, 0]	n/a	catFR1	0	R1334T
2024.634	0.0	2024838	DISTRACT_START	n/a	n/a	n/a	n/a	-999	18	[0, 0, 0]	n/a	catFR1	0	R1334T
2024.634	0.016	2024838	START	n/a	n/a	n/a	n/a	-999	18	[-999, -999, -999]	n/a	catFR1	0	R1334T
2024.65	6.367	2024854	PROB	6.367	n/a	n/a	n/a	-999	18	[5, 6, 1]	12	catFR1	0	R1334T
2031.017	2.568	2031220	PROB	2.568	n/a	n/a	n/a	-999	18	[7, 3, 1]	11	catFR1	0	R1334T
2033.585	2.3	2033788	PROB	2.3	n/a	n/a	n/a	-999	18	[3, 3, 3]	9	catFR1	0	R1334T
2035.885	3.351	2036088	PROB	3.351	n/a	n/a	n/a	-999	18	[3, 1, 8]	12	catFR1	0	R1334T
2039.236	3.35	2039439	PROB	3.35	n/a	n/a	n/a	-999	18	[1, 2, 3]	6	catFR1	0	R1334T
2042.586	4.672	2042789	PROB	4.672	n/a	n/a	n/a	-999	18	[7, 6, 5]	18	catFR1	0	R1334T
2047.258	0.013	2047461	STOP	n/a	n/a	n/a	n/a	-999	18	[-999, -999, -999]	n/a	catFR1	0	R1334T
2047.271	0.591	2047474	DISTRACT_END	n/a	n/a	n/a	n/a	-999	18	[0, 0, 0]	n/a	catFR1	0	R1334T
2047.862	1.709	2048065	RETRIEVAL_ORIENT_START	n/a	n/a	n/a	n/a	-999	18	[0, 0, 0]	n/a	catFR1	0	R1334T
2049.571	0.0	2049773	RETRIEVAL_ORIENT_END	n/a	n/a	n/a	n/a	-999	18	[0, 0, 0]	n/a	catFR1	0	R1334T
2049.571	0.449	2049773	REC_START	n/a	n/a	n/a	n/a	-999	18	[0, 0, 0]	n/a	catFR1	0	R1334T
2050.02	1.0	2050222	REC_WORD	1.0	n/a	TROMBONE	Instruments	8	18	[0, 0, 0]	n/a	catFR1	0	R1334T
2051.02	28.564	2051222	REC_WORD_VV	28.564	n/a	<>	n/a	-999	18	[0, 0, 0]	n/a	catFR1	0	R1334T
2079.584	0.0	2079785	TRIAL_END	n/a	n/a	n/a	n/a	-999	18	[0, 0, 0]	n/a	catFR1	0	R1334T
2079.584	0.022	2079785	REC_END	n/a	n/a	n/a	n/a	-999	18	[0, 0, 0]	n/a	catFR1	0	R1334T
2079.606	0.0	2079807	TRIAL_START	n/a	n/a	n/a	n/a	-999	19	[0, 0, 0]	n/a	catFR1	0	R1334T
2079.606	0.0	2079807	TRIAL	n/a	n/a	n/a	n/a	-999	19	[0, 0, 0]	n/a	catFR1	0	R1334T
2079.606	1.954	2079807	WAITING_START	n/a	n/a	n/a	n/a	-999	19	[0, 0, 0]	n/a	catFR1	0	R1334T
2081.56	0.001	2081761	WAITING_END	n/a	n/a	n/a	n/a	-999	19	[0, 0, 0]	n/a	catFR1	0	R1334T
2081.561	10.429	2081762	COUNTDOWN_START	n/a	n/a	n/a	n/a	-999	19	[0, 0, 0]	n/a	catFR1	0	R1334T
2091.99	0.001	2092190	COUNTDOWN_END	n/a	n/a	n/a	n/a	-999	19	[0, 0, 0]	n/a	catFR1	0	R1334T
2091.991	1.221	2092191	ORIENT_START	n/a	n/a	n/a	n/a	-999	19	[0, 0, 0]	n/a	catFR1	0	R1334T
2093.212	0.001	2093412	ORIENT_END	n/a	n/a	n/a	n/a	-999	19	[0, 0, 0]	n/a	catFR1	0	R1334T
2093.213	1.118	2093413	ENCODING_START	n/a	n/a	n/a	n/a	-999	19	[0, 0, 0]	n/a	catFR1	0	R1334T
2094.331	1.632	2094531	WORD	n/a	wordpools/wordpool_categorized_EN.txt	WINDOW	Building	1	19	[0, 0, 0]	n/a	catFR1	0	R1334T
2095.963	1.07	2096163	WORD_OFF	n/a	n/a	WINDOW	Building	1	19	[0, 0, 0]	n/a	catFR1	0	R1334T
2097.033	1.614	2097233	WORD	n/a	wordpools/wordpool_categorized_EN.txt	DOOR	Building	2	19	[0, 0, 0]	n/a	catFR1	0	R1334T
2098.647	0.884	2098847	WORD_OFF	n/a	n/a	DOOR	Building	2	19	[0, 0, 0]	n/a	catFR1	0	R1334T
2099.531	1.632	2099731	WORD	n/a	wordpools/wordpool_categorized_EN.txt	POTATO	Vegetables	3	19	[0, 0, 0]	n/a	catFR1	0	R1334T
2101.163	0.875	2101363	WORD_OFF	n/a	n/a	POTATO	Vegetables	3	19	[0, 0, 0]	n/a	catFR1	0	R1334T
2102.038	1.609	2102238	WORD	n/a	wordpools/wordpool_categorized_EN.txt	CARROT	Vegetables	4	19	[0, 0, 0]	n/a	catFR1	0	R1334T
2103.647	0.844	2103847	WORD_OFF	n/a	n/a	CARROT	Vegetables	4	19	[0, 0, 0]	n/a	catFR1	0	R1334T
2104.491	1.623	2104691	WORD	n/a	wordpools/wordpool_categorized_EN.txt	ZEBRA	Zoo	5	19	[0, 0, 0]	n/a	catFR1	0	R1334T
2106.114	0.885	2106314	WORD_OFF	n/a	n/a	ZEBRA	Zoo	5	19	[0, 0, 0]	n/a	catFR1	0	R1334T
2106.999	1.633	2107199	WORD	n/a	wordpools/wordpool_categorized_EN.txt	MONKEY	Zoo	6	19	[0, 0, 0]	n/a	catFR1	0	R1334T
2108.632	1.109	2108832	WORD_OFF	n/a	n/a	MONKEY	Zoo	6	19	[0, 0, 0]	n/a	catFR1	0	R1334T
2109.741	1.625	2109941	WORD	n/a	wordpools/wordpool_categorized_EN.txt	BATHROOM	Building	7	19	[0, 0, 0]	n/a	catFR1	0	R1334T
2111.366	0.82	2111566	WORD_OFF	n/a	n/a	BATHROOM	Building	7	19	[0, 0, 0]	n/a	catFR1	0	R1334T
2112.186	1.63	2112386	WORD	n/a	wordpools/wordpool_categorized_EN.txt	ATTIC	Building	8	19	[0, 0, 0]	n/a	catFR1	0	R1334T
2113.816	1.075	2114015	WORD_OFF	n/a	n/a	ATTIC	Building	8	19	[0, 0, 0]	n/a	catFR1	0	R1334T
2114.891	1.626	2115090	WORD	n/a	wordpools/wordpool_categorized_EN.txt	ELEPHANT	Zoo	9	19	[0, 0, 0]	n/a	catFR1	0	R1334T
2116.517	0.909	2116716	WORD_OFF	n/a	n/a	ELEPHANT	Zoo	9	19	[0, 0, 0]	n/a	catFR1	0	R1334T
2117.426	1.623	2117625	WORD	n/a	wordpools/wordpool_categorized_EN.txt	CHEETAH	Zoo	10	19	[0, 0, 0]	n/a	catFR1	0	R1334T
2119.049	1.036	2119248	WORD_OFF	n/a	n/a	CHEETAH	Zoo	10	19	[0, 0, 0]	n/a	catFR1	0	R1334T
2120.085	1.632	2120284	WORD	n/a	wordpools/wordpool_categorized_EN.txt	BROCCOLI	Vegetables	11	19	[0, 0, 0]	n/a	catFR1	0	R1334T
2121.717	0.897	2121916	WORD_OFF	n/a	n/a	BROCCOLI	Vegetables	11	19	[0, 0, 0]	n/a	catFR1	0	R1334T
2122.614	1.637	2122813	WORD	n/a	wordpools/wordpool_categorized_EN.txt	CORN	Vegetables	12	19	[0, 0, 0]	n/a	catFR1	0	R1334T
2124.251	0.001	2124450	WORD_OFF	n/a	n/a	CORN	Vegetables	12	19	[0, 0, 0]	n/a	catFR1	0	R1334T
2124.252	0.0	2124451	ENCODING_END	n/a	n/a	n/a	n/a	-999	19	[0, 0, 0]	n/a	catFR1	0	R1334T
2124.252	0.0	2124451	DISTRACT_START	n/a	n/a	n/a	n/a	-999	19	[0, 0, 0]	n/a	catFR1	0	R1334T
2124.252	0.016	2124451	START	n/a	n/a	n/a	n/a	-999	19	[-999, -999, -999]	n/a	catFR1	0	R1334T
2124.268	9.185	2124467	PROB	9.185	n/a	n/a	n/a	-999	19	[7, 5, 9]	21	catFR1	0	R1334T
2133.453	2.767	2133652	PROB	2.767	n/a	n/a	n/a	-999	19	[2, 1, 9]	12	catFR1	0	R1334T
