onset	duration	sample	trial_type	response_time	stim_file	item_name	category	serialpos	list	test	answer	experiment	session	subject
0.0	0.0	9411	INSTRUCT_START	n/a	n/a	n/a	n/a	-999	-999	[0, 0, 0]	n/a	catFR1	1	R1191J
0.0	10.709	9411	INSTRUCT_END	n/a	n/a	n/a	n/a	-999	-999	[0, 0, 0]	n/a	catFR1	1	R1191J
10.709	0.0	20120	SESS_START	n/a	n/a	n/a	n/a	-999	-999	[0, 0, 0]	n/a	catFR1	1	R1191J
10.709	32.001	20120	MIC_TEST	n/a	n/a	n/a	n/a	-999	-999	[0, 0, 0]	n/a	catFR1	1	R1191J
42.71	9.913	52121	PRACTICE_TRIAL	n/a	n/a	n/a	n/a	-999	-1	[0, 0, 0]	n/a	catFR1	1	R1191J
52.623	10.0	62034	COUNTDOWN_START	n/a	n/a	n/a	n/a	-999	-1	[0, 0, 0]	n/a	catFR1	1	R1191J
63.051	0.007	72462	COUNTDOWN_END	n/a	n/a	n/a	n/a	-999	-1	[0, 0, 0]	n/a	catFR1	1	R1191J
63.058	1.6	72469	PRACTICE_ORIENT	n/a	n/a	n/a	n/a	-999	-1	[0, 0, 0]	n/a	catFR1	1	R1191J
64.676	2.399	74087	PRACTICE_ORIENT_OFF	n/a	n/a	n/a	n/a	-999	-1	[0, 0, 0]	n/a	catFR1	1	R1191J
67.075	1.6	76486	PRACTICE_WORD	n/a	n/a	FLOOD	n/a	-1	-1	[0, 0, 0]	n/a	catFR1	1	R1191J
68.693	0.9	78103	PRACTICE_WORD_OFF	n/a	n/a	FLOOD	n/a	-999	-1	[0, 0, 0]	n/a	catFR1	1	R1191J
69.593	1.6	79003	PRACTICE_WORD	n/a	n/a	CAMEL	n/a	-1	-1	[0, 0, 0]	n/a	catFR1	1	R1191J
71.209	0.933	80619	PRACTICE_WORD_OFF	n/a	n/a	CAMEL	n/a	-999	-1	[0, 0, 0]	n/a	catFR1	1	R1191J
72.142	1.6	81552	PRACTICE_WORD	n/a	n/a	ATTIC	n/a	-1	-1	[0, 0, 0]	n/a	catFR1	1	R1191J
73.744	0.9	83154	PRACTICE_WORD_OFF	n/a	n/a	ATTIC	n/a	-999	-1	[0, 0, 0]	n/a	catFR1	1	R1191J
74.644	1.6	84054	PRACTICE_WORD	n/a	n/a	BEAM	n/a	-1	-1	[0, 0, 0]	n/a	catFR1	1	R1191J
76.26	0.883	85670	PRACTICE_WORD_OFF	n/a	n/a	BEAM	n/a	-999	-1	[0, 0, 0]	n/a	catFR1	1	R1191J
77.143	1.6	86553	PRACTICE_WORD	n/a	n/a	RING	n/a	-1	-1	[0, 0, 0]	n/a	catFR1	1	R1191J
78.744	0.834	88154	PRACTICE_WORD_OFF	n/a	n/a	RING	n/a	-999	-1	[0, 0, 0]	n/a	catFR1	1	R1191J
79.578	1.6	88988	PRACTICE_WORD	n/a	n/a	TONGUE	n/a	-1	-1	[0, 0, 0]	n/a	catFR1	1	R1191J
81.194	0.966	90604	PRACTICE_WORD_OFF	n/a	n/a	TONGUE	n/a	-999	-1	[0, 0, 0]	n/a	catFR1	1	R1191J
82.16	1.6	91570	PRACTICE_WORD	n/a	n/a	COTTON	n/a	-1	-1	[0, 0, 0]	n/a	catFR1	1	R1191J
83.761	0.801	93171	PRACTICE_WORD_OFF	n/a	n/a	COTTON	n/a	-999	-1	[0, 0, 0]	n/a	catFR1	1	R1191J
84.562	1.6	93972	PRACTICE_WORD	n/a	n/a	WAGON	n/a	-1	-1	[0, 0, 0]	n/a	catFR1	1	R1191J
86.178	0.983	95588	PRACTICE_WORD_OFF	n/a	n/a	WAGON	n/a	-999	-1	[0, 0, 0]	n/a	catFR1	1	R1191J
87.161	1.6	96571	PRACTICE_WORD	n/a	n/a	IRON	n/a	-1	-1	[0, 0, 0]	n/a	catFR1	1	R1191J
88.779	0.833	98189	PRACTICE_WORD_OFF	n/a	n/a	IRON	n/a	-999	-1	[0, 0, 0]	n/a	catFR1	1	R1191J
89.612	1.6	99022	PRACTICE_WORD	n/a	n/a	RHINO	n/a	-1	-1	[0, 0, 0]	n/a	catFR1	1	R1191J
91.228	0.767	100638	PRACTICE_WORD_OFF	n/a	n/a	RHINO	n/a	-999	-1	[0, 0, 0]	n/a	catFR1	1	R1191J
91.995	1.6	101405	PRACTICE_WORD	n/a	n/a	CHEST	n/a	-1	-1	[0, 0, 0]	n/a	catFR1	1	R1191J
93.613	0.917	103023	PRACTICE_WORD_OFF	n/a	n/a	CHEST	n/a	-999	-1	[0, 0, 0]	n/a	catFR1	1	R1191J
94.53	1.6	103940	PRACTICE_WORD	n/a	n/a	WATCH	n/a	-1	-1	[0, 0, 0]	n/a	catFR1	1	R1191J
96.146	0.0	105556	ENCODING_END	n/a	n/a	n/a	n/a	-999	-1	[0, 0, 0]	n/a	catFR1	1	R1191J
96.146	0.0	105556	PRACTICE_WORD_OFF	n/a	n/a	WATCH	n/a	-999	-1	[0, 0, 0]	n/a	catFR1	1	R1191J
96.146	0.001	105556	DISTRACT_START	n/a	n/a	n/a	n/a	-999	-1	[0, 0, 0]	n/a	catFR1	1	R1191J
96.147	0.015	105557	START	n/a	n/a	n/a	n/a	-999	-1	[-999, -999, -999]	n/a	catFR1	1	R1191J
96.162	14.52	105572	PROB	14.483	n/a	n/a	n/a	-999	-1	[8, 5, 6]	19.0	catFR1	1	R1191J
110.682	34.114	120092	PROB	34.114	n/a	n/a	n/a	-999	-1	[1, 5, 9]	15.0	catFR1	1	R1191J
144.796	0.007	154206	STOP	n/a	n/a	n/a	n/a	-999	-1	[-999, -999, -999]	n/a	catFR1	1	R1191J
144.803	0.7	154213	DISTRACT_END	n/a	n/a	n/a	n/a	-999	-1	[0, 0, 0]	n/a	catFR1	1	R1191J
145.503	0.522	154913	RETRIEVAL_ORIENT	n/a	n/a	n/a	n/a	-999	-1	[0, 0, 0]	n/a	catFR1	1	R1191J
146.025	30.006	155435	PRACTICE_REC_START	n/a	n/a	n/a	n/a	-999	-1	[0, 0, 0]	n/a	catFR1	1	R1191J
176.031	6.26	185441	PRACTICE_REC_END	n/a	n/a	n/a	n/a	-999	-1	[0, 0, 0]	n/a	catFR1	1	R1191J
182.291	0.5	191701	TRIAL	n/a	n/a	n/a	n/a	-999	1	[0, 0, 0]	n/a	catFR1	1	R1191J
182.791	10.0	192201	COUNTDOWN_START	n/a	n/a	n/a	n/a	-999	1	[0, 0, 0]	n/a	catFR1	1	R1191J
193.219	0.006	202629	COUNTDOWN_END	n/a	n/a	n/a	n/a	-999	1	[0, 0, 0]	n/a	catFR1	1	R1191J
193.225	1.6	202635	ORIENT	n/a	n/a	n/a	n/a	-999	1	[0, 0, 0]	n/a	catFR1	1	R1191J
194.826	1.834	204236	ORIENT_OFF	n/a	n/a	n/a	n/a	-999	1	[0, 0, 0]	n/a	catFR1	1	R1191J
196.66	1.6	206070	WORD	n/a	wordpools/wordpool_categorized_EN.txt	RIVER	Landscapes	1	1	[0, 0, 0]	n/a	catFR1	1	R1191J
198.276	0.95	207686	WORD_OFF	n/a	n/a	RIVER	n/a	1	1	[0, 0, 0]	n/a	catFR1	1	R1191J
199.226	1.6	208636	WORD	n/a	wordpools/wordpool_categorized_EN.txt	STREAM	Landscapes	2	1	[0, 0, 0]	n/a	catFR1	1	R1191J
200.844	0.767	210254	WORD_OFF	n/a	n/a	STREAM	n/a	2	1	[0, 0, 0]	n/a	catFR1	1	R1191J
201.611	1.6	211021	WORD	n/a	wordpools/wordpool_categorized_EN.txt	DAISY	Flowers	3	1	[0, 0, 0]	n/a	catFR1	1	R1191J
203.227	0.766	212637	WORD_OFF	n/a	n/a	DAISY	n/a	3	1	[0, 0, 0]	n/a	catFR1	1	R1191J
203.993	1.6	213403	WORD	n/a	wordpools/wordpool_categorized_EN.txt	SUNFLOWER	Flowers	4	1	[0, 0, 0]	n/a	catFR1	1	R1191J
205.612	0.865	215022	WORD_OFF	n/a	n/a	SUNFLOWER	n/a	4	1	[0, 0, 0]	n/a	catFR1	1	R1191J
206.477	1.6	215887	WORD	n/a	wordpools/wordpool_categorized_EN.txt	MIXER	Appliances	5	1	[0, 0, 0]	n/a	catFR1	1	R1191J
208.094	0.783	217504	WORD_OFF	n/a	n/a	MIXER	n/a	5	1	[0, 0, 0]	n/a	catFR1	1	R1191J
208.877	1.6	218287	WORD	n/a	wordpools/wordpool_categorized_EN.txt	IRON	Appliances	6	1	[0, 0, 0]	n/a	catFR1	1	R1191J
210.495	1.0	219905	WORD_OFF	n/a	n/a	IRON	n/a	6	1	[0, 0, 0]	n/a	catFR1	1	R1191J
211.495	1.6	220905	WORD	n/a	wordpools/wordpool_categorized_EN.txt	VIOLET	Flowers	7	1	[0, 0, 0]	n/a	catFR1	1	R1191J
213.111	0.984	222521	WORD_OFF	n/a	n/a	VIOLET	n/a	7	1	[0, 0, 0]	n/a	catFR1	1	R1191J
214.095	1.6	223505	WORD	n/a	wordpools/wordpool_categorized_EN.txt	CARNATION	Flowers	8	1	[0, 0, 0]	n/a	catFR1	1	R1191J
215.713	0.765	225123	WORD_OFF	n/a	n/a	CARNATION	n/a	8	1	[0, 0, 0]	n/a	catFR1	1	R1191J
216.478	1.6	225888	WORD	n/a	wordpools/wordpool_categorized_EN.txt	WOODS	Landscapes	9	1	[0, 0, 0]	n/a	catFR1	1	R1191J
218.095	0.817	227505	WORD_OFF	n/a	n/a	WOODS	n/a	9	1	[0, 0, 0]	n/a	catFR1	1	R1191J
218.912	1.6	228322	WORD	n/a	wordpools/wordpool_categorized_EN.txt	OCEAN	Landscapes	10	1	[0, 0, 0]	n/a	catFR1	1	R1191J
220.53	1.017	229940	WORD_OFF	n/a	n/a	OCEAN	n/a	10	1	[0, 0, 0]	n/a	catFR1	1	R1191J
221.547	1.6	230957	WORD	n/a	wordpools/wordpool_categorized_EN.txt	DRYER	Appliances	11	1	[0, 0, 0]	n/a	catFR1	1	R1191J
223.163	0.85	232573	WORD_OFF	n/a	n/a	DRYER	n/a	11	1	[0, 0, 0]	n/a	catFR1	1	R1191J
224.013	1.6	233423	WORD	n/a	wordpools/wordpool_categorized_EN.txt	DISHWASHER	Appliances	12	1	[0, 0, 0]	n/a	catFR1	1	R1191J
225.631	0.0	235041	WORD_OFF	n/a	n/a	DISHWASHER	n/a	12	1	[0, 0, 0]	n/a	catFR1	1	R1191J
225.631	0.128	235041	ENCODING_END	n/a	n/a	n/a	n/a	-999	1	[0, 0, 0]	n/a	catFR1	1	R1191J
225.759	0.0	235169	DISTRACT_START	n/a	n/a	n/a	n/a	-999	1	[0, 0, 0]	n/a	catFR1	1	R1191J
225.759	0.022	235169	START	n/a	n/a	n/a	n/a	-999	1	[-999, -999, -999]	n/a	catFR1	1	R1191J
225.781	15.384	235191	PROB	15.347	n/a	n/a	n/a	-999	1	[9, 2, 7]	18.0	catFR1	1	R1191J
241.165	5.747	250574	PROB	5.747	n/a	n/a	n/a	-999	1	[2, 8, 1]	11.0	catFR1	1	R1191J
246.912	0.021	256321	STOP	n/a	n/a	n/a	n/a	-999	1	[-999, -999, -999]	n/a	catFR1	1	R1191J
246.933	0.667	256342	DISTRACT_END	n/a	n/a	n/a	n/a	-999	1	[0, 0, 0]	n/a	catFR1	1	R1191J
247.6	0.517	257009	RETRIEVAL_ORIENT	n/a	n/a	n/a	n/a	-999	1	[0, 0, 0]	n/a	catFR1	1	R1191J
248.117	2.066	257526	REC_START	n/a	n/a	n/a	n/a	-999	1	[0, 0, 0]	n/a	catFR1	1	R1191J
250.183	1.513	259592	REC_WORD	2.066	n/a	DISHWASHER	Appliances	12	1	[0, 0, 0]	n/a	catFR1	1	R1191J
251.696	1.045	261105	REC_WORD	3.579	n/a	DRYER	Appliances	11	1	[0, 0, 0]	n/a	catFR1	1	R1191J
252.741	25.386	262150	REC_WORD	4.624	n/a	IRON	Appliances	6	1	[0, 0, 0]	n/a	catFR1	1	R1191J
278.127	4.428	287536	REC_END	n/a	n/a	n/a	n/a	-999	1	[0, 0, 0]	n/a	catFR1	1	R1191J
282.555	0.5	291964	TRIAL	n/a	n/a	n/a	n/a	-999	2	[0, 0, 0]	n/a	catFR1	1	R1191J
283.055	10.0	292464	COUNTDOWN_START	n/a	n/a	n/a	n/a	-999	2	[0, 0, 0]	n/a	catFR1	1	R1191J
293.483	0.007	302892	COUNTDOWN_END	n/a	n/a	n/a	n/a	-999	2	[0, 0, 0]	n/a	catFR1	1	R1191J
293.49	1.6	302899	ORIENT	n/a	n/a	n/a	n/a	-999	2	[0, 0, 0]	n/a	catFR1	1	R1191J
295.106	1.933	304515	ORIENT_OFF	n/a	n/a	n/a	n/a	-999	2	[0, 0, 0]	n/a	catFR1	1	R1191J
297.039	1.6	306448	WORD	n/a	wordpools/wordpool_categorized_EN.txt	CEDAR	Trees	1	2	[0, 0, 0]	n/a	catFR1	1	R1191J
298.641	0.966	308050	WORD_OFF	n/a	n/a	CEDAR	n/a	1	2	[0, 0, 0]	n/a	catFR1	1	R1191J
299.607	1.6	309016	WORD	n/a	wordpools/wordpool_categorized_EN.txt	OAK	Trees	2	2	[0, 0, 0]	n/a	catFR1	1	R1191J
301.223	0.917	310632	WORD_OFF	n/a	n/a	OAK	n/a	2	2	[0, 0, 0]	n/a	catFR1	1	R1191J
302.14	1.6	311549	WORD	n/a	wordpools/wordpool_categorized_EN.txt	RATCHET	Tools	3	2	[0, 0, 0]	n/a	catFR1	1	R1191J
303.741	0.851	313150	WORD_OFF	n/a	n/a	RATCHET	n/a	3	2	[0, 0, 0]	n/a	catFR1	1	R1191J
304.592	1.6	314001	WORD	n/a	wordpools/wordpool_categorized_EN.txt	LEVEL	Tools	4	2	[0, 0, 0]	n/a	catFR1	1	R1191J
306.208	0.799	315617	WORD_OFF	n/a	n/a	LEVEL	n/a	4	2	[0, 0, 0]	n/a	catFR1	1	R1191J
307.007	1.6	316416	WORD	n/a	wordpools/wordpool_categorized_EN.txt	FOOTBALL	Toys	5	2	[0, 0, 0]	n/a	catFR1	1	R1191J
308.625	0.934	318034	WORD_OFF	n/a	n/a	FOOTBALL	n/a	5	2	[0, 0, 0]	n/a	catFR1	1	R1191J
309.559	1.6	318968	WORD	n/a	wordpools/wordpool_categorized_EN.txt	SLINKY	Toys	6	2	[0, 0, 0]	n/a	catFR1	1	R1191J
311.175	0.85	320584	WORD_OFF	n/a	n/a	SLINKY	n/a	6	2	[0, 0, 0]	n/a	catFR1	1	R1191J
312.025	1.6	321434	WORD	n/a	wordpools/wordpool_categorized_EN.txt	DRILL	Tools	7	2	[0, 0, 0]	n/a	catFR1	1	R1191J
313.643	0.867	323052	WORD_OFF	n/a	n/a	DRILL	n/a	7	2	[0, 0, 0]	n/a	catFR1	1	R1191J
314.51	1.6	323919	WORD	n/a	wordpools/wordpool_categorized_EN.txt	HAMMER	Tools	8	2	[0, 0, 0]	n/a	catFR1	1	R1191J
316.125	0.783	325534	WORD_OFF	n/a	n/a	HAMMER	n/a	8	2	[0, 0, 0]	n/a	catFR1	1	R1191J
316.908	1.6	326317	WORD	n/a	wordpools/wordpool_categorized_EN.txt	SPRUCE	Trees	9	2	[0, 0, 0]	n/a	catFR1	1	R1191J
318.526	0.933	327935	WORD_OFF	n/a	n/a	SPRUCE	n/a	9	2	[0, 0, 0]	n/a	catFR1	1	R1191J
319.459	1.6	328868	WORD	n/a	wordpools/wordpool_categorized_EN.txt	BIRCH	Trees	10	2	[0, 0, 0]	n/a	catFR1	1	R1191J
321.076	1.0	330485	WORD_OFF	n/a	n/a	BIRCH	n/a	10	2	[0, 0, 0]	n/a	catFR1	1	R1191J
322.076	1.6	331485	WORD	n/a	wordpools/wordpool_categorized_EN.txt	BLOCKS	Toys	11	2	[0, 0, 0]	n/a	catFR1	1	R1191J
323.694	1.017	333103	WORD_OFF	n/a	n/a	BLOCKS	n/a	11	2	[0, 0, 0]	n/a	catFR1	1	R1191J
324.711	1.6	334120	WORD	n/a	wordpools/wordpool_categorized_EN.txt	BARBIE	Toys	12	2	[0, 0, 0]	n/a	catFR1	1	R1191J
326.326	0.001	335735	WORD_OFF	n/a	n/a	BARBIE	n/a	12	2	[0, 0, 0]	n/a	catFR1	1	R1191J
326.327	0.097	335736	ENCODING_END	n/a	n/a	n/a	n/a	-999	2	[0, 0, 0]	n/a	catFR1	1	R1191J
326.424	0.0	335833	DISTRACT_START	n/a	n/a	n/a	n/a	-999	2	[0, 0, 0]	n/a	catFR1	1	R1191J
326.424	0.019	335833	START	n/a	n/a	n/a	n/a	-999	2	[-999, -999, -999]	n/a	catFR1	1	R1191J
326.443	15.919	335852	PROB	15.889	n/a	n/a	n/a	-999	2	[1, 5, 9]	14.0	catFR1	1	R1191J
342.362	6.164	351771	PROB	6.164	n/a	n/a	n/a	-999	2	[3, 8, 2]	13.0	catFR1	1	R1191J
348.526	0.022	357935	STOP	n/a	n/a	n/a	n/a	-999	2	[-999, -999, -999]	n/a	catFR1	1	R1191J
348.548	0.582	357957	DISTRACT_END	n/a	n/a	n/a	n/a	-999	2	[0, 0, 0]	n/a	catFR1	1	R1191J
349.13	0.518	358539	RETRIEVAL_ORIENT	n/a	n/a	n/a	n/a	-999	2	[0, 0, 0]	n/a	catFR1	1	R1191J
349.648	2.323	359057	REC_START	n/a	n/a	n/a	n/a	-999	2	[0, 0, 0]	n/a	catFR1	1	R1191J
351.971	4.011	361380	REC_WORD	2.323	n/a	FOOTBALL	Toys	5	2	[0, 0, 0]	n/a	catFR1	1	R1191J
355.982	0.664	365391	REC_WORD	6.334	n/a	HAMMER	Tools	8	2	[0, 0, 0]	n/a	catFR1	1	R1191J
356.646	23.013	366055	REC_WORD	6.998	n/a	SPRUCE	Trees	9	2	[0, 0, 0]	n/a	catFR1	1	R1191J
379.659	7.977	389068	REC_END	n/a	n/a	n/a	n/a	-999	2	[0, 0, 0]	n/a	catFR1	1	R1191J
387.636	0.5	397045	TRIAL	n/a	n/a	n/a	n/a	-999	3	[0, 0, 0]	n/a	catFR1	1	R1191J
388.136	10.0	397545	COUNTDOWN_START	n/a	n/a	n/a	n/a	-999	3	[0, 0, 0]	n/a	catFR1	1	R1191J
398.564	0.007	407973	COUNTDOWN_END	n/a	n/a	n/a	n/a	-999	3	[0, 0, 0]	n/a	catFR1	1	R1191J
398.571	1.6	407980	ORIENT	n/a	n/a	n/a	n/a	-999	3	[0, 0, 0]	n/a	catFR1	1	R1191J
400.187	2.117	409596	ORIENT_OFF	n/a	n/a	n/a	n/a	-999	3	[0, 0, 0]	n/a	catFR1	1	R1191J
402.304	1.6	411713	WORD	n/a	wordpools/wordpool_categorized_EN.txt	STAPLER	OfficeSupplies	1	3	[0, 0, 0]	n/a	catFR1	1	R1191J
403.92	0.935	413328	WORD_OFF	n/a	n/a	STAPLER	n/a	1	3	[0, 0, 0]	n/a	catFR1	1	R1191J
404.855	1.6	414263	WORD	n/a	wordpools/wordpool_categorized_EN.txt	PAPER	OfficeSupplies	2	3	[0, 0, 0]	n/a	catFR1	1	R1191J
406.471	0.983	415879	WORD_OFF	n/a	n/a	PAPER	n/a	2	3	[0, 0, 0]	n/a	catFR1	1	R1191J
407.454	1.6	416862	WORD	n/a	wordpools/wordpool_categorized_EN.txt	KNEE	BodyParts	3	3	[0, 0, 0]	n/a	catFR1	1	R1191J
409.071	0.85	418479	WORD_OFF	n/a	n/a	KNEE	n/a	3	3	[0, 0, 0]	n/a	catFR1	1	R1191J
409.921	1.6	419329	WORD	n/a	wordpools/wordpool_categorized_EN.txt	FOOT	BodyParts	4	3	[0, 0, 0]	n/a	catFR1	1	R1191J
411.539	0.816	420947	WORD_OFF	n/a	n/a	FOOT	n/a	4	3	[0, 0, 0]	n/a	catFR1	1	R1191J
412.355	1.6	421763	WORD	n/a	wordpools/wordpool_categorized_EN.txt	COBBLER	Desserts	5	3	[0, 0, 0]	n/a	catFR1	1	R1191J
413.972	1.017	423380	WORD_OFF	n/a	n/a	COBBLER	n/a	5	3	[0, 0, 0]	n/a	catFR1	1	R1191J
414.989	1.6	424397	WORD	n/a	wordpools/wordpool_categorized_EN.txt	BROWNIES	Desserts	6	3	[0, 0, 0]	n/a	catFR1	1	R1191J
416.607	0.865	426015	WORD_OFF	n/a	n/a	BROWNIES	n/a	6	3	[0, 0, 0]	n/a	catFR1	1	R1191J
417.472	1.6	426880	WORD	n/a	wordpools/wordpool_categorized_EN.txt	FOLDER	OfficeSupplies	7	3	[0, 0, 0]	n/a	catFR1	1	R1191J
419.089	0.768	428497	WORD_OFF	n/a	n/a	FOLDER	n/a	7	3	[0, 0, 0]	n/a	catFR1	1	R1191J
419.857	1.6	429265	WORD	n/a	wordpools/wordpool_categorized_EN.txt	BINDER	OfficeSupplies	8	3	[0, 0, 0]	n/a	catFR1	1	R1191J
421.473	0.867	430881	WORD_OFF	n/a	n/a	BINDER	n/a	8	3	[0, 0, 0]	n/a	catFR1	1	R1191J
422.34	1.6	431748	WORD	n/a	wordpools/wordpool_categorized_EN.txt	ELBOW	BodyParts	9	3	[0, 0, 0]	n/a	catFR1	1	R1191J
423.957	0.95	433365	WORD_OFF	n/a	n/a	ELBOW	n/a	9	3	[0, 0, 0]	n/a	catFR1	1	R1191J
424.907	1.6	434315	WORD	n/a	wordpools/wordpool_categorized_EN.txt	FINGERS	BodyParts	10	3	[0, 0, 0]	n/a	catFR1	1	R1191J
426.524	1.001	435932	WORD_OFF	n/a	n/a	FINGERS	n/a	10	3	[0, 0, 0]	n/a	catFR1	1	R1191J
427.525	1.6	436933	WORD	n/a	wordpools/wordpool_categorized_EN.txt	PASTRY	Desserts	11	3	[0, 0, 0]	n/a	catFR1	1	R1191J
429.141	0.95	438549	WORD_OFF	n/a	n/a	PASTRY	n/a	11	3	[0, 0, 0]	n/a	catFR1	1	R1191J
430.091	1.6	439499	WORD	n/a	wordpools/wordpool_categorized_EN.txt	CAKE	Desserts	12	3	[0, 0, 0]	n/a	catFR1	1	R1191J
431.709	0.0	441117	ENCODING_END	n/a	n/a	n/a	n/a	-999	3	[0, 0, 0]	n/a	catFR1	1	R1191J
431.709	0.098	441117	WORD_OFF	n/a	n/a	CAKE	n/a	12	3	[0, 0, 0]	n/a	catFR1	1	R1191J
431.807	0.0	441215	DISTRACT_START	n/a	n/a	n/a	n/a	-999	3	[0, 0, 0]	n/a	catFR1	1	R1191J
431.807	0.018	441215	START	n/a	n/a	n/a	n/a	-999	3	[-999, -999, -999]	n/a	catFR1	1	R1191J
431.825	17.501	441233	PROB	17.463	n/a	n/a	n/a	-999	3	[9, 3, 8]	20.0	catFR1	1	R1191J
449.326	4.777	458734	PROB	4.777	n/a	n/a	n/a	-999	3	[8, 2, 2]	12.0	catFR1	1	R1191J
454.103	0.007	463511	STOP	n/a	n/a	n/a	n/a	-999	3	[-999, -999, -999]	n/a	catFR1	1	R1191J
454.11	0.618	463518	DISTRACT_END	n/a	n/a	n/a	n/a	-999	3	[0, 0, 0]	n/a	catFR1	1	R1191J
454.728	0.516	464136	RETRIEVAL_ORIENT	n/a	n/a	n/a	n/a	-999	3	[0, 0, 0]	n/a	catFR1	1	R1191J
455.244	1.613	464652	REC_START	n/a	n/a	n/a	n/a	-999	3	[0, 0, 0]	n/a	catFR1	1	R1191J
456.857	1.086	466265	REC_WORD	1.613	n/a	ELBOW	BodyParts	9	3	[0, 0, 0]	n/a	catFR1	1	R1191J
457.943	1.764	467351	REC_WORD	2.699	n/a	FINGERS	BodyParts	10	3	[0, 0, 0]	n/a	catFR1	1	R1191J
459.707	0.64	469115	REC_WORD_VV	4.463	n/a	<>	n/a	-999	3	[0, 0, 0]	n/a	catFR1	1	R1191J
460.347	24.908	469755	REC_WORD	5.103	n/a	ARM	n/a	-999	3	[0, 0, 0]	n/a	catFR1	1	R1191J
485.255	7.194	494663	REC_END	n/a	n/a	n/a	n/a	-999	3	[0, 0, 0]	n/a	catFR1	1	R1191J
492.449	0.5	501857	TRIAL	n/a	n/a	n/a	n/a	-999	4	[0, 0, 0]	n/a	catFR1	1	R1191J
492.949	10.0	502357	COUNTDOWN_START	n/a	n/a	n/a	n/a	-999	4	[0, 0, 0]	n/a	catFR1	1	R1191J
503.377	0.007	512785	COUNTDOWN_END	n/a	n/a	n/a	n/a	-999	4	[0, 0, 0]	n/a	catFR1	1	R1191J
503.384	1.6	512792	ORIENT	n/a	n/a	n/a	n/a	-999	4	[0, 0, 0]	n/a	catFR1	1	R1191J
505.001	1.916	514409	ORIENT_OFF	n/a	n/a	n/a	n/a	-999	4	[0, 0, 0]	n/a	catFR1	1	R1191J
506.917	1.6	516325	WORD	n/a	wordpools/wordpool_categorized_EN.txt	RUM	Beverages	1	4	[0, 0, 0]	n/a	catFR1	1	R1191J
508.535	0.933	517943	WORD_OFF	n/a	n/a	RUM	n/a	1	4	[0, 0, 0]	n/a	catFR1	1	R1191J
509.468	1.6	518876	WORD	n/a	wordpools/wordpool_categorized_EN.txt	SODA	Beverages	2	4	[0, 0, 0]	n/a	catFR1	1	R1191J
511.085	0.9	520493	WORD_OFF	n/a	n/a	SODA	n/a	2	4	[0, 0, 0]	n/a	catFR1	1	R1191J
511.985	1.6	521393	WORD	n/a	wordpools/wordpool_categorized_EN.txt	DRESS	Clothing	3	4	[0, 0, 0]	n/a	catFR1	1	R1191J
513.586	0.934	522994	WORD_OFF	n/a	n/a	DRESS	n/a	3	4	[0, 0, 0]	n/a	catFR1	1	R1191J
514.52	1.6	523928	WORD	n/a	wordpools/wordpool_categorized_EN.txt	COAT	Clothing	4	4	[0, 0, 0]	n/a	catFR1	1	R1191J
516.136	0.766	525544	WORD_OFF	n/a	n/a	COAT	n/a	4	4	[0, 0, 0]	n/a	catFR1	1	R1191J
516.902	1.6	526310	WORD	n/a	wordpools/wordpool_categorized_EN.txt	LADLE	KitchenTools	5	4	[0, 0, 0]	n/a	catFR1	1	R1191J
518.52	0.983	527928	WORD_OFF	n/a	n/a	LADLE	n/a	5	4	[0, 0, 0]	n/a	catFR1	1	R1191J
519.503	1.6	528911	WORD	n/a	wordpools/wordpool_categorized_EN.txt	WHISK	KitchenTools	6	4	[0, 0, 0]	n/a	catFR1	1	R1191J
521.119	0.934	530527	WORD_OFF	n/a	n/a	WHISK	n/a	6	4	[0, 0, 0]	n/a	catFR1	1	R1191J
522.053	1.6	531461	WORD	n/a	wordpools/wordpool_categorized_EN.txt	WATER	Beverages	7	4	[0, 0, 0]	n/a	catFR1	1	R1191J
523.654	0.816	533062	WORD_OFF	n/a	n/a	WATER	n/a	7	4	[0, 0, 0]	n/a	catFR1	1	R1191J
524.47	1.6	533878	WORD	n/a	wordpools/wordpool_categorized_EN.txt	WINE	Beverages	8	4	[0, 0, 0]	n/a	catFR1	1	R1191J
526.087	0.85	535495	WORD_OFF	n/a	n/a	WINE	n/a	8	4	[0, 0, 0]	n/a	catFR1	1	R1191J
526.937	1.6	536345	WORD	n/a	wordpools/wordpool_categorized_EN.txt	BLOUSE	Clothing	9	4	[0, 0, 0]	n/a	catFR1	1	R1191J
528.538	0.951	537946	WORD_OFF	n/a	n/a	BLOUSE	n/a	9	4	[0, 0, 0]	n/a	catFR1	1	R1191J
529.489	1.6	538897	WORD	n/a	wordpools/wordpool_categorized_EN.txt	JACKET	Clothing	10	4	[0, 0, 0]	n/a	catFR1	1	R1191J
531.105	0.933	540513	WORD_OFF	n/a	n/a	JACKET	n/a	10	4	[0, 0, 0]	n/a	catFR1	1	R1191J
532.038	1.6	541446	WORD	n/a	wordpools/wordpool_categorized_EN.txt	PEELER	KitchenTools	11	4	[0, 0, 0]	n/a	catFR1	1	R1191J
533.656	0.933	543064	WORD_OFF	n/a	n/a	PEELER	n/a	11	4	[0, 0, 0]	n/a	catFR1	1	R1191J
534.589	1.6	543997	WORD	n/a	wordpools/wordpool_categorized_EN.txt	CORKSCREW	KitchenTools	12	4	[0, 0, 0]	n/a	catFR1	1	R1191J
536.205	0.001	545613	WORD_OFF	n/a	n/a	CORKSCREW	n/a	12	4	[0, 0, 0]	n/a	catFR1	1	R1191J
536.206	0.128	545614	ENCODING_END	n/a	n/a	n/a	n/a	-999	4	[0, 0, 0]	n/a	catFR1	1	R1191J
536.334	0.0	545742	DISTRACT_START	n/a	n/a	n/a	n/a	-999	4	[0, 0, 0]	n/a	catFR1	1	R1191J
536.334	0.021	545742	START	n/a	n/a	n/a	n/a	-999	4	[-999, -999, -999]	n/a	catFR1	1	R1191J
536.355	14.535	545763	PROB	14.499	n/a	n/a	n/a	-999	4	[6, 4, 2]	12.0	catFR1	1	R1191J
550.89	8.139	560298	PROB	8.139	n/a	n/a	n/a	-999	4	[9, 3, 2]	14.0	catFR1	1	R1191J
559.029	0.013	568437	STOP	n/a	n/a	n/a	n/a	-999	4	[-999, -999, -999]	n/a	catFR1	1	R1191J
559.042	0.634	568450	DISTRACT_END	n/a	n/a	n/a	n/a	-999	4	[0, 0, 0]	n/a	catFR1	1	R1191J
559.676	0.516	569084	RETRIEVAL_ORIENT	n/a	n/a	n/a	n/a	-999	4	[0, 0, 0]	n/a	catFR1	1	R1191J
560.192	2.427	569600	REC_START	n/a	n/a	n/a	n/a	-999	4	[0, 0, 0]	n/a	catFR1	1	R1191J
562.619	2.378	572027	REC_WORD	2.427	n/a	SODA	Beverages	2	4	[0, 0, 0]	n/a	catFR1	1	R1191J
564.997	1.023	574405	REC_WORD_VV	4.805	n/a	<>	n/a	-999	4	[0, 0, 0]	n/a	catFR1	1	R1191J
566.02	0.713	575428	REC_WORD	5.828	n/a	DRESS	Clothing	3	4	[0, 0, 0]	n/a	catFR1	1	R1191J
566.733	23.468	576141	REC_WORD	6.541	n/a	SHIRT	n/a	-999	4	[0, 0, 0]	n/a	catFR1	1	R1191J
590.201	13.314	599608	REC_END	n/a	n/a	n/a	n/a	-999	4	[0, 0, 0]	n/a	catFR1	1	R1191J
603.515	0.5	612922	TRIAL	n/a	n/a	n/a	n/a	-999	5	[0, 0, 0]	n/a	catFR1	1	R1191J
604.015	10.0	613422	COUNTDOWN_START	n/a	n/a	n/a	n/a	-999	5	[0, 0, 0]	n/a	catFR1	1	R1191J
614.443	0.006	623850	COUNTDOWN_END	n/a	n/a	n/a	n/a	-999	5	[0, 0, 0]	n/a	catFR1	1	R1191J
614.449	1.6	623856	ORIENT	n/a	n/a	n/a	n/a	-999	5	[0, 0, 0]	n/a	catFR1	1	R1191J
616.066	2.117	625473	ORIENT_OFF	n/a	n/a	n/a	n/a	-999	5	[0, 0, 0]	n/a	catFR1	1	R1191J
618.183	1.6	627590	WORD	n/a	wordpools/wordpool_categorized_EN.txt	JELLO	Desserts	1	5	[0, 0, 0]	n/a	catFR1	1	R1191J
619.801	0.966	629208	WORD_OFF	n/a	n/a	JELLO	n/a	1	5	[0, 0, 0]	n/a	catFR1	1	R1191J
620.767	1.6	630174	WORD	n/a	wordpools/wordpool_categorized_EN.txt	CUPCAKE	Desserts	2	5	[0, 0, 0]	n/a	catFR1	1	R1191J
622.383	0.967	631790	WORD_OFF	n/a	n/a	CUPCAKE	n/a	2	5	[0, 0, 0]	n/a	catFR1	1	R1191J
623.35	1.6	632757	WORD	n/a	wordpools/wordpool_categorized_EN.txt	SPIDER	Insects	3	5	[0, 0, 0]	n/a	catFR1	1	R1191J
624.967	0.851	634374	WORD_OFF	n/a	n/a	SPIDER	n/a	3	5	[0, 0, 0]	n/a	catFR1	1	R1191J
625.818	1.6	635225	WORD	n/a	wordpools/wordpool_categorized_EN.txt	FLY	Insects	4	5	[0, 0, 0]	n/a	catFR1	1	R1191J
627.434	0.783	636841	WORD_OFF	n/a	n/a	FLY	n/a	4	5	[0, 0, 0]	n/a	catFR1	1	R1191J
628.217	1.6	637624	WORD	n/a	wordpools/wordpool_categorized_EN.txt	VIOLIN	Instruments	5	5	[0, 0, 0]	n/a	catFR1	1	R1191J
629.835	0.784	639242	WORD_OFF	n/a	n/a	VIOLIN	n/a	5	5	[0, 0, 0]	n/a	catFR1	1	R1191J
630.619	1.6	640026	WORD	n/a	wordpools/wordpool_categorized_EN.txt	BANJO	Instruments	6	5	[0, 0, 0]	n/a	catFR1	1	R1191J
632.235	0.916	641642	WORD_OFF	n/a	n/a	BANJO	n/a	6	5	[0, 0, 0]	n/a	catFR1	1	R1191J
633.151	1.6	642558	WORD	n/a	wordpools/wordpool_categorized_EN.txt	BUTTERFLY	Insects	7	5	[0, 0, 0]	n/a	catFR1	1	R1191J
634.769	0.934	644176	WORD_OFF	n/a	n/a	BUTTERFLY	n/a	7	5	[0, 0, 0]	n/a	catFR1	1	R1191J
635.703	1.6	645110	WORD	n/a	wordpools/wordpool_categorized_EN.txt	MOTH	Insects	8	5	[0, 0, 0]	n/a	catFR1	1	R1191J
637.318	0.884	646725	WORD_OFF	n/a	n/a	MOTH	n/a	8	5	[0, 0, 0]	n/a	catFR1	1	R1191J
638.202	1.6	647609	WORD	n/a	wordpools/wordpool_categorized_EN.txt	PUDDING	Desserts	9	5	[0, 0, 0]	n/a	catFR1	1	R1191J
639.82	0.983	649227	WORD_OFF	n/a	n/a	PUDDING	n/a	9	5	[0, 0, 0]	n/a	catFR1	1	R1191J
640.803	1.6	650210	WORD	n/a	wordpools/wordpool_categorized_EN.txt	MOUSSE	Desserts	10	5	[0, 0, 0]	n/a	catFR1	1	R1191J
642.419	0.884	651826	WORD_OFF	n/a	n/a	MOUSSE	n/a	10	5	[0, 0, 0]	n/a	catFR1	1	R1191J
643.303	1.6	652710	WORD	n/a	wordpools/wordpool_categorized_EN.txt	GUITAR	Instruments	11	5	[0, 0, 0]	n/a	catFR1	1	R1191J
644.92	0.983	654327	WORD_OFF	n/a	n/a	GUITAR	n/a	11	5	[0, 0, 0]	n/a	catFR1	1	R1191J
645.903	1.6	655310	WORD	n/a	wordpools/wordpool_categorized_EN.txt	TUBA	Instruments	12	5	[0, 0, 0]	n/a	catFR1	1	R1191J
647.521	0.0	656928	ENCODING_END	n/a	n/a	n/a	n/a	-999	5	[0, 0, 0]	n/a	catFR1	1	R1191J
647.521	0.1	656928	WORD_OFF	n/a	n/a	TUBA	n/a	12	5	[0, 0, 0]	n/a	catFR1	1	R1191J
647.621	0.0	657028	DISTRACT_START	n/a	n/a	n/a	n/a	-999	5	[0, 0, 0]	n/a	catFR1	1	R1191J
647.621	0.017	657028	START	n/a	n/a	n/a	n/a	-999	5	[-999, -999, -999]	n/a	catFR1	1	R1191J
647.638	42.084	657045	PROB	42.084	n/a	n/a	n/a	-999	5	[8, 5, 9]	22.0	catFR1	1	R1191J
689.722	0.021	699129	STOP	n/a	n/a	n/a	n/a	-999	5	[-999, -999, -999]	n/a	catFR1	1	R1191J
689.743	0.666	699150	DISTRACT_END	n/a	n/a	n/a	n/a	-999	5	[0, 0, 0]	n/a	catFR1	1	R1191J
690.409	0.522	699816	RETRIEVAL_ORIENT	n/a	n/a	n/a	n/a	-999	5	[0, 0, 0]	n/a	catFR1	1	R1191J
690.931	1.095	700338	REC_START	n/a	n/a	n/a	n/a	-999	5	[0, 0, 0]	n/a	catFR1	1	R1191J
692.026	0.885	701433	REC_WORD	1.095	n/a	GUITAR	Instruments	11	5	[0, 0, 0]	n/a	catFR1	1	R1191J
692.911	0.776	702318	REC_WORD	1.98	n/a	TUBA	Instruments	12	5	[0, 0, 0]	n/a	catFR1	1	R1191J
693.687	27.251	703094	REC_WORD	2.756	n/a	DRUM	n/a	-999	5	[0, 0, 0]	n/a	catFR1	1	R1191J
720.938	6.943	730345	REC_END	n/a	n/a	n/a	n/a	-999	5	[0, 0, 0]	n/a	catFR1	1	R1191J
727.881	0.5	737288	TRIAL	n/a	n/a	n/a	n/a	-999	6	[0, 0, 0]	n/a	catFR1	1	R1191J
728.381	10.0	737788	COUNTDOWN_START	n/a	n/a	n/a	n/a	-999	6	[0, 0, 0]	n/a	catFR1	1	R1191J
738.809	0.008	748216	COUNTDOWN_END	n/a	n/a	n/a	n/a	-999	6	[0, 0, 0]	n/a	catFR1	1	R1191J
738.817	1.6	748224	ORIENT	n/a	n/a	n/a	n/a	-999	6	[0, 0, 0]	n/a	catFR1	1	R1191J
740.432	2.235	749838	ORIENT_OFF	n/a	n/a	n/a	n/a	-999	6	[0, 0, 0]	n/a	catFR1	1	R1191J
742.667	1.6	752073	WORD	n/a	wordpools/wordpool_categorized_EN.txt	LILY	Flowers	1	6	[0, 0, 0]	n/a	catFR1	1	R1191J
744.283	0.817	753689	WORD_OFF	n/a	n/a	LILY	n/a	1	6	[0, 0, 0]	n/a	catFR1	1	R1191J
745.1	1.6	754506	WORD	n/a	wordpools/wordpool_categorized_EN.txt	PETUNIA	Flowers	2	6	[0, 0, 0]	n/a	catFR1	1	R1191J
746.717	0.784	756123	WORD_OFF	n/a	n/a	PETUNIA	n/a	2	6	[0, 0, 0]	n/a	catFR1	1	R1191J
747.501	1.6	756907	WORD	n/a	wordpools/wordpool_categorized_EN.txt	LAMB	FarmAnimals	3	6	[0, 0, 0]	n/a	catFR1	1	R1191J
749.117	0.967	758523	WORD_OFF	n/a	n/a	LAMB	n/a	3	6	[0, 0, 0]	n/a	catFR1	1	R1191J
750.084	1.6	759490	WORD	n/a	wordpools/wordpool_categorized_EN.txt	HORSE	FarmAnimals	4	6	[0, 0, 0]	n/a	catFR1	1	R1191J
751.702	0.833	761108	WORD_OFF	n/a	n/a	HORSE	n/a	4	6	[0, 0, 0]	n/a	catFR1	1	R1191J
752.535	1.6	761941	WORD	n/a	wordpools/wordpool_categorized_EN.txt	PINE	Trees	5	6	[0, 0, 0]	n/a	catFR1	1	R1191J
754.151	0.817	763557	WORD_OFF	n/a	n/a	PINE	n/a	5	6	[0, 0, 0]	n/a	catFR1	1	R1191J
754.968	1.6	764374	WORD	n/a	wordpools/wordpool_categorized_EN.txt	WILLOW	Trees	6	6	[0, 0, 0]	n/a	catFR1	1	R1191J
756.585	1.017	765991	WORD_OFF	n/a	n/a	WILLOW	n/a	6	6	[0, 0, 0]	n/a	catFR1	1	R1191J
757.602	1.6	767008	WORD	n/a	wordpools/wordpool_categorized_EN.txt	DAFFODIL	Flowers	7	6	[0, 0, 0]	n/a	catFR1	1	R1191J
759.218	0.934	768624	WORD_OFF	n/a	n/a	DAFFODIL	n/a	7	6	[0, 0, 0]	n/a	catFR1	1	R1191J
760.152	1.6	769558	WORD	n/a	wordpools/wordpool_categorized_EN.txt	LILAC	Flowers	8	6	[0, 0, 0]	n/a	catFR1	1	R1191J
761.77	0.783	771176	WORD_OFF	n/a	n/a	LILAC	n/a	8	6	[0, 0, 0]	n/a	catFR1	1	R1191J
762.553	1.6	771959	WORD	n/a	wordpools/wordpool_categorized_EN.txt	SHEEP	FarmAnimals	9	6	[0, 0, 0]	n/a	catFR1	1	R1191J
764.169	0.967	773575	WORD_OFF	n/a	n/a	SHEEP	n/a	9	6	[0, 0, 0]	n/a	catFR1	1	R1191J
765.136	1.6	774542	WORD	n/a	wordpools/wordpool_categorized_EN.txt	CHICKEN	FarmAnimals	10	6	[0, 0, 0]	n/a	catFR1	1	R1191J
766.754	0.95	776160	WORD_OFF	n/a	n/a	CHICKEN	n/a	10	6	[0, 0, 0]	n/a	catFR1	1	R1191J
767.704	1.6	777110	WORD	n/a	wordpools/wordpool_categorized_EN.txt	MAPLE	Trees	11	6	[0, 0, 0]	n/a	catFR1	1	R1191J
769.32	0.917	778726	WORD_OFF	n/a	n/a	MAPLE	n/a	11	6	[0, 0, 0]	n/a	catFR1	1	R1191J
770.237	1.6	779643	WORD	n/a	wordpools/wordpool_categorized_EN.txt	WALNUT	Trees	12	6	[0, 0, 0]	n/a	catFR1	1	R1191J
771.855	0.0	781261	ENCODING_END	n/a	n/a	n/a	n/a	-999	6	[0, 0, 0]	n/a	catFR1	1	R1191J
771.855	0.133	781261	WORD_OFF	n/a	n/a	WALNUT	n/a	12	6	[0, 0, 0]	n/a	catFR1	1	R1191J
771.988	0.001	781394	DISTRACT_START	n/a	n/a	n/a	n/a	-999	6	[0, 0, 0]	n/a	catFR1	1	R1191J
771.989	0.015	781395	START	n/a	n/a	n/a	n/a	-999	6	[-999, -999, -999]	n/a	catFR1	1	R1191J
772.004	11.536	781410	PROB	11.506	n/a	n/a	n/a	-999	6	[8, 8, 3]	19.0	catFR1	1	R1191J
783.54	8.792	792946	PROB	8.792	n/a	n/a	n/a	-999	6	[5, 3, 3]	11.0	catFR1	1	R1191J
792.332	0.008	801738	STOP	n/a	n/a	n/a	n/a	-999	6	[-999, -999, -999]	n/a	catFR1	1	R1191J
792.34	0.566	801746	DISTRACT_END	n/a	n/a	n/a	n/a	-999	6	[0, 0, 0]	n/a	catFR1	1	R1191J
792.906	0.519	802312	RETRIEVAL_ORIENT	n/a	n/a	n/a	n/a	-999	6	[0, 0, 0]	n/a	catFR1	1	R1191J
793.425	7.18	802831	REC_START	n/a	n/a	n/a	n/a	-999	6	[0, 0, 0]	n/a	catFR1	1	R1191J
800.605	10.005	810011	REC_WORD	7.18	n/a	SUNFLOWER	n/a	-999	6	[0, 0, 0]	n/a	catFR1	1	R1191J
810.61	1.146	820016	REC_WORD_VV	17.185	n/a	<>	n/a	-999	6	[0, 0, 0]	n/a	catFR1	1	R1191J
811.756	3.045	821162	REC_WORD	18.331	n/a	EAR	n/a	-999	6	[0, 0, 0]	n/a	catFR1	1	R1191J
814.801	0.581	824207	REC_WORD	21.376	n/a	LILY	Flowers	1	6	[0, 0, 0]	n/a	catFR1	1	R1191J
815.382	0.523	824788	REC_WORD	21.957	n/a	PETUNIA	Flowers	2	6	[0, 0, 0]	n/a	catFR1	1	R1191J
815.905	7.53	825311	REC_WORD	22.48	n/a	SUNFLOWER	n/a	-999	6	[0, 0, 0]	n/a	catFR1	1	R1191J
823.435	4.643	832841	REC_END	n/a	n/a	n/a	n/a	-999	6	[0, 0, 0]	n/a	catFR1	1	R1191J
828.078	0.5	837484	TRIAL	n/a	n/a	n/a	n/a	-999	7	[0, 0, 0]	n/a	catFR1	1	R1191J
828.578	10.0	837984	COUNTDOWN_START	n/a	n/a	n/a	n/a	-999	7	[0, 0, 0]	n/a	catFR1	1	R1191J
839.006	0.007	848412	COUNTDOWN_END	n/a	n/a	n/a	n/a	-999	7	[0, 0, 0]	n/a	catFR1	1	R1191J
839.013	1.6	848419	ORIENT	n/a	n/a	n/a	n/a	-999	7	[0, 0, 0]	n/a	catFR1	1	R1191J
840.631	2.067	850037	ORIENT_OFF	n/a	n/a	n/a	n/a	-999	7	[0, 0, 0]	n/a	catFR1	1	R1191J
842.698	1.6	852104	WORD	n/a	wordpools/wordpool_categorized_EN.txt	PUZZLE	Toys	1	7	[0, 0, 0]	n/a	catFR1	1	R1191J
844.314	0.766	853720	WORD_OFF	n/a	n/a	PUZZLE	n/a	1	7	[0, 0, 0]	n/a	catFR1	1	R1191J
845.08	1.6	854486	WORD	n/a	wordpools/wordpool_categorized_EN.txt	FRISBEE	Toys	2	7	[0, 0, 0]	n/a	catFR1	1	R1191J
846.698	0.9	856104	WORD_OFF	n/a	n/a	FRISBEE	n/a	2	7	[0, 0, 0]	n/a	catFR1	1	R1191J
847.598	1.6	857004	WORD	n/a	wordpools/wordpool_categorized_EN.txt	MARKER	OfficeSupplies	3	7	[0, 0, 0]	n/a	catFR1	1	R1191J
849.214	0.95	858620	WORD_OFF	n/a	n/a	MARKER	n/a	3	7	[0, 0, 0]	n/a	catFR1	1	R1191J
850.164	1.6	859570	WORD	n/a	wordpools/wordpool_categorized_EN.txt	NOTEBOOK	OfficeSupplies	4	7	[0, 0, 0]	n/a	catFR1	1	R1191J
851.765	0.917	861171	WORD_OFF	n/a	n/a	NOTEBOOK	n/a	4	7	[0, 0, 0]	n/a	catFR1	1	R1191J
852.682	1.6	862088	WORD	n/a	wordpools/wordpool_categorized_EN.txt	MICROWAVE	Electronics	5	7	[0, 0, 0]	n/a	catFR1	1	R1191J
854.298	0.95	863704	WORD_OFF	n/a	n/a	MICROWAVE	n/a	5	7	[0, 0, 0]	n/a	catFR1	1	R1191J
855.248	1.6	864654	WORD	n/a	wordpools/wordpool_categorized_EN.txt	COMPUTER	Electronics	6	7	[0, 0, 0]	n/a	catFR1	1	R1191J
856.865	0.934	866271	WORD_OFF	n/a	n/a	COMPUTER	n/a	6	7	[0, 0, 0]	n/a	catFR1	1	R1191J
857.799	1.6	867205	WORD	n/a	wordpools/wordpool_categorized_EN.txt	DOLLHOUSE	Toys	7	7	[0, 0, 0]	n/a	catFR1	1	R1191J
859.415	0.85	868821	WORD_OFF	n/a	n/a	DOLLHOUSE	n/a	7	7	[0, 0, 0]	n/a	catFR1	1	R1191J
860.265	1.6	869671	WORD	n/a	wordpools/wordpool_categorized_EN.txt	BASEBALL	Toys	8	7	[0, 0, 0]	n/a	catFR1	1	R1191J
861.865	0.918	871271	WORD_OFF	n/a	n/a	BASEBALL	n/a	8	7	[0, 0, 0]	n/a	catFR1	1	R1191J
862.783	1.6	872189	WORD	n/a	wordpools/wordpool_categorized_EN.txt	PEN	OfficeSupplies	9	7	[0, 0, 0]	n/a	catFR1	1	R1191J
864.399	0.801	873805	WORD_OFF	n/a	n/a	PEN	n/a	9	7	[0, 0, 0]	n/a	catFR1	1	R1191J
865.2	1.6	874606	WORD	n/a	wordpools/wordpool_categorized_EN.txt	RULER	OfficeSupplies	10	7	[0, 0, 0]	n/a	catFR1	1	R1191J
866.817	0.9	876223	WORD_OFF	n/a	n/a	RULER	n/a	10	7	[0, 0, 0]	n/a	catFR1	1	R1191J
867.717	1.6	877123	WORD	n/a	wordpools/wordpool_categorized_EN.txt	TELEVISION	Electronics	11	7	[0, 0, 0]	n/a	catFR1	1	R1191J
869.333	0.784	878739	WORD_OFF	n/a	n/a	TELEVISION	n/a	11	7	[0, 0, 0]	n/a	catFR1	1	R1191J
870.117	1.6	879523	WORD	n/a	wordpools/wordpool_categorized_EN.txt	PRINTER	Electronics	12	7	[0, 0, 0]	n/a	catFR1	1	R1191J
871.735	0.0	881141	ENCODING_END	n/a	n/a	n/a	n/a	-999	7	[0, 0, 0]	n/a	catFR1	1	R1191J
871.735	0.126	881141	WORD_OFF	n/a	n/a	PRINTER	n/a	12	7	[0, 0, 0]	n/a	catFR1	1	R1191J
871.861	0.0	881267	DISTRACT_START	n/a	n/a	n/a	n/a	-999	7	[0, 0, 0]	n/a	catFR1	1	R1191J
871.861	0.023	881267	START	n/a	n/a	n/a	n/a	-999	7	[-999, -999, -999]	n/a	catFR1	1	R1191J
871.884	16.636	881290	PROB	16.614	n/a	n/a	n/a	-999	7	[6, 5, 4]	15.0	catFR1	1	R1191J
888.52	51.096	897926	PROB	51.096	n/a	n/a	n/a	-999	7	[7, 8, 5]	20.0	catFR1	1	R1191J
939.616	0.011	949021	STOP	n/a	n/a	n/a	n/a	-999	7	[-999, -999, -999]	n/a	catFR1	1	R1191J
939.627	0.566	949032	DISTRACT_END	n/a	n/a	n/a	n/a	-999	7	[0, 0, 0]	n/a	catFR1	1	R1191J
940.193	0.518	949598	RETRIEVAL_ORIENT	n/a	n/a	n/a	n/a	-999	7	[0, 0, 0]	n/a	catFR1	1	R1191J
940.711	6.247	950116	REC_START	n/a	n/a	n/a	n/a	-999	7	[0, 0, 0]	n/a	catFR1	1	R1191J
946.958	2.623	956363	REC_WORD_VV	6.247	n/a	<>	n/a	-999	7	[0, 0, 0]	n/a	catFR1	1	R1191J
949.581	0.643	958986	REC_WORD	8.87	n/a	PAINT	n/a	-999	7	[0, 0, 0]	n/a	catFR1	1	R1191J
950.224	1.134	959629	REC_WORD	9.513	n/a	FRISBEE	Toys	2	7	[0, 0, 0]	n/a	catFR1	1	R1191J
951.358	1.0	960763	REC_WORD	10.647	n/a	MARKER	OfficeSupplies	3	7	[0, 0, 0]	n/a	catFR1	1	R1191J
952.358	18.365	961763	REC_WORD_VV	11.647	n/a	<>	n/a	-999	7	[0, 0, 0]	n/a	catFR1	1	R1191J
970.723	6.859	980128	REC_END	n/a	n/a	n/a	n/a	-999	7	[0, 0, 0]	n/a	catFR1	1	R1191J
977.582	0.5	986987	TRIAL	n/a	n/a	n/a	n/a	-999	8	[0, 0, 0]	n/a	catFR1	1	R1191J
978.082	10.0	987487	COUNTDOWN_START	n/a	n/a	n/a	n/a	-999	8	[0, 0, 0]	n/a	catFR1	1	R1191J
988.51	0.007	997915	COUNTDOWN_END	n/a	n/a	n/a	n/a	-999	8	[0, 0, 0]	n/a	catFR1	1	R1191J
988.517	1.6	997922	ORIENT	n/a	n/a	n/a	n/a	-999	8	[0, 0, 0]	n/a	catFR1	1	R1191J
990.133	2.217	999538	ORIENT_OFF	n/a	n/a	n/a	n/a	-999	8	[0, 0, 0]	n/a	catFR1	1	R1191J
992.35	1.6	1001755	WORD	n/a	wordpools/wordpool_categorized_EN.txt	CAULIFLOWER	Vegetables	1	8	[0, 0, 0]	n/a	catFR1	1	R1191J
993.966	0.951	1003371	WORD_OFF	n/a	n/a	CAULIFLOWER	n/a	1	8	[0, 0, 0]	n/a	catFR1	1	R1191J
994.917	1.6	1004322	WORD	n/a	wordpools/wordpool_categorized_EN.txt	PEAS	Vegetables	2	8	[0, 0, 0]	n/a	catFR1	1	R1191J
996.535	0.782	1005940	WORD_OFF	n/a	n/a	PEAS	n/a	2	8	[0, 0, 0]	n/a	catFR1	1	R1191J
997.317	1.6	1006722	WORD	n/a	wordpools/wordpool_categorized_EN.txt	SHELF	Furniture	3	8	[0, 0, 0]	n/a	catFR1	1	R1191J
998.934	0.801	1008339	WORD_OFF	n/a	n/a	SHELF	n/a	3	8	[0, 0, 0]	n/a	catFR1	1	R1191J
999.735	1.6	1009140	WORD	n/a	wordpools/wordpool_categorized_EN.txt	COUCH	Furniture	4	8	[0, 0, 0]	n/a	catFR1	1	R1191J
1001.351	0.95	1010756	WORD_OFF	n/a	n/a	COUCH	n/a	4	8	[0, 0, 0]	n/a	catFR1	1	R1191J
1002.301	1.6	1011706	WORD	n/a	wordpools/wordpool_categorized_EN.txt	ORCHID	Flowers	5	8	[0, 0, 0]	n/a	catFR1	1	R1191J
1003.918	0.851	1013323	WORD_OFF	n/a	n/a	ORCHID	n/a	5	8	[0, 0, 0]	n/a	catFR1	1	R1191J
1004.769	1.6	1014174	WORD	n/a	wordpools/wordpool_categorized_EN.txt	ROSE	Flowers	6	8	[0, 0, 0]	n/a	catFR1	1	R1191J
1006.385	0.85	1015790	WORD_OFF	n/a	n/a	ROSE	n/a	6	8	[0, 0, 0]	n/a	catFR1	1	R1191J
1007.235	1.6	1016640	WORD	n/a	wordpools/wordpool_categorized_EN.txt	LETTUCE	Vegetables	7	8	[0, 0, 0]	n/a	catFR1	1	R1191J
1008.853	1.0	1018258	WORD_OFF	n/a	n/a	LETTUCE	n/a	7	8	[0, 0, 0]	n/a	catFR1	1	R1191J
1009.853	1.6	1019258	WORD	n/a	wordpools/wordpool_categorized_EN.txt	POTATO	Vegetables	8	8	[0, 0, 0]	n/a	catFR1	1	R1191J
1011.469	0.85	1020874	WORD_OFF	n/a	n/a	POTATO	n/a	8	8	[0, 0, 0]	n/a	catFR1	1	R1191J
1012.319	1.6	1021724	WORD	n/a	wordpools/wordpool_categorized_EN.txt	CHAIR	Furniture	9	8	[0, 0, 0]	n/a	catFR1	1	R1191J
1013.936	0.802	1023341	WORD_OFF	n/a	n/a	CHAIR	n/a	9	8	[0, 0, 0]	n/a	catFR1	1	R1191J
1014.738	1.6	1024143	WORD	n/a	wordpools/wordpool_categorized_EN.txt	BOOKCASE	Furniture	10	8	[0, 0, 0]	n/a	catFR1	1	R1191J
1016.353	1.0	1025758	WORD_OFF	n/a	n/a	BOOKCASE	n/a	10	8	[0, 0, 0]	n/a	catFR1	1	R1191J
1017.353	1.6	1026758	WORD	n/a	wordpools/wordpool_categorized_EN.txt	MARIGOLD	Flowers	11	8	[0, 0, 0]	n/a	catFR1	1	R1191J
1018.97	0.868	1028375	WORD_OFF	n/a	n/a	MARIGOLD	n/a	11	8	[0, 0, 0]	n/a	catFR1	1	R1191J
1019.838	1.6	1029243	WORD	n/a	wordpools/wordpool_categorized_EN.txt	TULIP	Flowers	12	8	[0, 0, 0]	n/a	catFR1	1	R1191J
1021.454	0.0	1030859	ENCODING_END	n/a	n/a	n/a	n/a	-999	8	[0, 0, 0]	n/a	catFR1	1	R1191J
1021.454	0.1	1030859	WORD_OFF	n/a	n/a	TULIP	n/a	12	8	[0, 0, 0]	n/a	catFR1	1	R1191J
1021.554	0.0	1030959	DISTRACT_START	n/a	n/a	n/a	n/a	-999	8	[0, 0, 0]	n/a	catFR1	1	R1191J
1021.554	0.018	1030959	START	n/a	n/a	n/a	n/a	-999	8	[-999, -999, -999]	n/a	catFR1	1	R1191J
1021.572	18.169	1030977	PROB	18.13	n/a	n/a	n/a	-999	8	[1, 9, 5]	15.0	catFR1	1	R1191J
1039.741	6.943	1049146	PROB	6.943	n/a	n/a	n/a	-999	8	[9, 1, 4]	14.0	catFR1	1	R1191J
1046.684	0.008	1056089	STOP	n/a	n/a	n/a	n/a	-999	8	[-999, -999, -999]	n/a	catFR1	1	R1191J
1046.692	0.532	1056097	DISTRACT_END	n/a	n/a	n/a	n/a	-999	8	[0, 0, 0]	n/a	catFR1	1	R1191J
1047.224	0.518	1056629	RETRIEVAL_ORIENT	n/a	n/a	n/a	n/a	-999	8	[0, 0, 0]	n/a	catFR1	1	R1191J
1047.742	9.172	1057147	REC_START	n/a	n/a	n/a	n/a	-999	8	[0, 0, 0]	n/a	catFR1	1	R1191J
1056.914	1.077	1066319	REC_WORD	9.172	n/a	POTATO	Vegetables	8	8	[0, 0, 0]	n/a	catFR1	1	R1191J
1057.991	1.0	1067396	REC_WORD	10.249	n/a	CHAIR	Furniture	9	8	[0, 0, 0]	n/a	catFR1	1	R1191J
1058.991	1.0	1068396	REC_WORD_VV	11.249	n/a	<>	n/a	-999	8	[0, 0, 0]	n/a	catFR1	1	R1191J
1059.991	3.57	1069396	REC_WORD_VV	12.249	n/a	<>	n/a	-999	8	[0, 0, 0]	n/a	catFR1	1	R1191J
1063.561	14.193	1072966	REC_WORD	15.819	n/a	TULIP	Flowers	12	8	[0, 0, 0]	n/a	catFR1	1	R1191J
1077.754	7.475	1087158	REC_END	n/a	n/a	n/a	n/a	-999	8	[0, 0, 0]	n/a	catFR1	1	R1191J
1085.229	0.5	1094633	TRIAL	n/a	n/a	n/a	n/a	-999	9	[0, 0, 0]	n/a	catFR1	1	R1191J
1085.729	10.0	1095133	COUNTDOWN_START	n/a	n/a	n/a	n/a	-999	9	[0, 0, 0]	n/a	catFR1	1	R1191J
1096.157	0.007	1105561	COUNTDOWN_END	n/a	n/a	n/a	n/a	-999	9	[0, 0, 0]	n/a	catFR1	1	R1191J
1096.164	1.6	1105568	ORIENT	n/a	n/a	n/a	n/a	-999	9	[0, 0, 0]	n/a	catFR1	1	R1191J
1097.782	2.166	1107186	ORIENT_OFF	n/a	n/a	n/a	n/a	-999	9	[0, 0, 0]	n/a	catFR1	1	R1191J
1099.948	1.6	1109352	WORD	n/a	wordpools/wordpool_categorized_EN.txt	TAPE	OfficeSupplies	1	9	[0, 0, 0]	n/a	catFR1	1	R1191J
1101.566	1.0	1110970	WORD_OFF	n/a	n/a	TAPE	n/a	1	9	[0, 0, 0]	n/a	catFR1	1	R1191J
1102.566	1.6	1111970	WORD	n/a	wordpools/wordpool_categorized_EN.txt	ERASER	OfficeSupplies	2	9	[0, 0, 0]	n/a	catFR1	1	R1191J
1104.182	0.767	1113586	WORD_OFF	n/a	n/a	ERASER	n/a	2	9	[0, 0, 0]	n/a	catFR1	1	R1191J
1104.949	1.6	1114353	WORD	n/a	wordpools/wordpool_categorized_EN.txt	TRUMPET	Instruments	3	9	[0, 0, 0]	n/a	catFR1	1	R1191J
1106.566	1.017	1115970	WORD_OFF	n/a	n/a	TRUMPET	n/a	3	9	[0, 0, 0]	n/a	catFR1	1	R1191J
1107.583	1.6	1116987	WORD	n/a	wordpools/wordpool_categorized_EN.txt	FLUTE	Instruments	4	9	[0, 0, 0]	n/a	catFR1	1	R1191J
1109.199	0.833	1118603	WORD_OFF	n/a	n/a	FLUTE	n/a	4	9	[0, 0, 0]	n/a	catFR1	1	R1191J
1110.032	1.6	1119436	WORD	n/a	wordpools/wordpool_categorized_EN.txt	FOUNDATION	Building	5	9	[0, 0, 0]	n/a	catFR1	1	R1191J
1111.65	0.799	1121054	WORD_OFF	n/a	n/a	FOUNDATION	n/a	5	9	[0, 0, 0]	n/a	catFR1	1	R1191J
1112.449	1.6	1121853	WORD	n/a	wordpools/wordpool_categorized_EN.txt	STAIRS	Building	6	9	[0, 0, 0]	n/a	catFR1	1	R1191J
1114.066	1.001	1123470	WORD_OFF	n/a	n/a	STAIRS	n/a	6	9	[0, 0, 0]	n/a	catFR1	1	R1191J
1115.067	1.6	1124471	WORD	n/a	wordpools/wordpool_categorized_EN.txt	DRUM	Instruments	7	9	[0, 0, 0]	n/a	catFR1	1	R1191J
1116.684	0.85	1126088	WORD_OFF	n/a	n/a	DRUM	n/a	7	9	[0, 0, 0]	n/a	catFR1	1	R1191J
1117.534	1.6	1126938	WORD	n/a	wordpools/wordpool_categorized_EN.txt	CELLO	Instruments	8	9	[0, 0, 0]	n/a	catFR1	1	R1191J
1119.15	0.8	1128554	WORD_OFF	n/a	n/a	CELLO	n/a	8	9	[0, 0, 0]	n/a	catFR1	1	R1191J
1119.95	1.6	1129354	WORD	n/a	wordpools/wordpool_categorized_EN.txt	GLUE	OfficeSupplies	9	9	[0, 0, 0]	n/a	catFR1	1	R1191J
1121.551	0.883	1130955	WORD_OFF	n/a	n/a	GLUE	n/a	9	9	[0, 0, 0]	n/a	catFR1	1	R1191J
1122.434	1.6	1131838	WORD	n/a	wordpools/wordpool_categorized_EN.txt	PENCIL	OfficeSupplies	10	9	[0, 0, 0]	n/a	catFR1	1	R1191J
1124.051	0.801	1133455	WORD_OFF	n/a	n/a	PENCIL	n/a	10	9	[0, 0, 0]	n/a	catFR1	1	R1191J
1124.852	1.6	1134256	WORD	n/a	wordpools/wordpool_categorized_EN.txt	BATHROOM	Building	11	9	[0, 0, 0]	n/a	catFR1	1	R1191J
1126.468	0.967	1135872	WORD_OFF	n/a	n/a	BATHROOM	n/a	11	9	[0, 0, 0]	n/a	catFR1	1	R1191J
1127.435	1.6	1136839	WORD	n/a	wordpools/wordpool_categorized_EN.txt	ATTIC	Building	12	9	[0, 0, 0]	n/a	catFR1	1	R1191J
1129.052	0.0	1138456	ENCODING_END	n/a	n/a	n/a	n/a	-999	9	[0, 0, 0]	n/a	catFR1	1	R1191J
1129.052	0.13	1138456	WORD_OFF	n/a	n/a	ATTIC	n/a	12	9	[0, 0, 0]	n/a	catFR1	1	R1191J
1129.182	0.0	1138586	DISTRACT_START	n/a	n/a	n/a	n/a	-999	9	[0, 0, 0]	n/a	catFR1	1	R1191J
1129.182	0.02	1138586	START	n/a	n/a	n/a	n/a	-999	9	[-999, -999, -999]	n/a	catFR1	1	R1191J
1129.202	10.602	1138606	PROB	10.576	n/a	n/a	n/a	-999	9	[3, 9, 3]	15.0	catFR1	1	R1191J
1139.804	4.267	1149208	PROB	4.229	n/a	n/a	n/a	-999	9	[2, 4, 1]	7.0	catFR1	1	R1191J
1144.071	35.809	1153475	PROB	35.809	n/a	n/a	n/a	-999	9	[5, 9, 7]	21.0	catFR1	1	R1191J
1179.88	0.012	1189284	STOP	n/a	n/a	n/a	n/a	-999	9	[-999, -999, -999]	n/a	catFR1	1	R1191J
1179.892	0.566	1189296	DISTRACT_END	n/a	n/a	n/a	n/a	-999	9	[0, 0, 0]	n/a	catFR1	1	R1191J
1180.458	0.518	1189862	RETRIEVAL_ORIENT	n/a	n/a	n/a	n/a	-999	9	[0, 0, 0]	n/a	catFR1	1	R1191J
1180.976	1.518	1190380	REC_START	n/a	n/a	n/a	n/a	-999	9	[0, 0, 0]	n/a	catFR1	1	R1191J
1182.494	1.336	1191898	REC_WORD	1.518	n/a	ERASER	OfficeSupplies	2	9	[0, 0, 0]	n/a	catFR1	1	R1191J
1183.83	0.667	1193234	REC_WORD	2.854	n/a	GLUE	OfficeSupplies	9	9	[0, 0, 0]	n/a	catFR1	1	R1191J
1184.497	26.49	1193901	REC_WORD	3.521	n/a	PENCIL	OfficeSupplies	10	9	[0, 0, 0]	n/a	catFR1	1	R1191J
1210.987	4.611	1220391	REC_END	n/a	n/a	n/a	n/a	-999	9	[0, 0, 0]	n/a	catFR1	1	R1191J
1215.598	0.5	1225002	TRIAL	n/a	n/a	n/a	n/a	-999	10	[0, 0, 0]	n/a	catFR1	1	R1191J
1216.098	10.0	1225502	COUNTDOWN_START	n/a	n/a	n/a	n/a	-999	10	[0, 0, 0]	n/a	catFR1	1	R1191J
1226.526	0.006	1235930	COUNTDOWN_END	n/a	n/a	n/a	n/a	-999	10	[0, 0, 0]	n/a	catFR1	1	R1191J
1226.532	1.6	1235936	ORIENT	n/a	n/a	n/a	n/a	-999	10	[0, 0, 0]	n/a	catFR1	1	R1191J
1228.148	2.184	1237552	ORIENT_OFF	n/a	n/a	n/a	n/a	-999	10	[0, 0, 0]	n/a	catFR1	1	R1191J
1230.332	1.6	1239736	WORD	n/a	wordpools/wordpool_categorized_EN.txt	PIANO	Instruments	1	10	[0, 0, 0]	n/a	catFR1	1	R1191J
1231.949	0.95	1241353	WORD_OFF	n/a	n/a	PIANO	n/a	1	10	[0, 0, 0]	n/a	catFR1	1	R1191J
1232.899	1.6	1242303	WORD	n/a	wordpools/wordpool_categorized_EN.txt	BASS	Instruments	2	10	[0, 0, 0]	n/a	catFR1	1	R1191J
1234.517	0.983	1243921	WORD_OFF	n/a	n/a	BASS	n/a	2	10	[0, 0, 0]	n/a	catFR1	1	R1191J
1235.5	1.6	1244904	WORD	n/a	wordpools/wordpool_categorized_EN.txt	PEACH	Fruit	3	10	[0, 0, 0]	n/a	catFR1	1	R1191J
1237.116	0.867	1246520	WORD_OFF	n/a	n/a	PEACH	n/a	3	10	[0, 0, 0]	n/a	catFR1	1	R1191J
1237.983	1.6	1247387	WORD	n/a	wordpools/wordpool_categorized_EN.txt	CHERRY	Fruit	4	10	[0, 0, 0]	n/a	catFR1	1	R1191J
1239.601	0.983	1249005	WORD_OFF	n/a	n/a	CHERRY	n/a	4	10	[0, 0, 0]	n/a	catFR1	1	R1191J
1240.584	1.6	1249988	WORD	n/a	wordpools/wordpool_categorized_EN.txt	SPINACH	Vegetables	5	10	[0, 0, 0]	n/a	catFR1	1	R1191J
1242.2	0.767	1251603	WORD_OFF	n/a	n/a	SPINACH	n/a	5	10	[0, 0, 0]	n/a	catFR1	1	R1191J
1242.967	1.6	1252370	WORD	n/a	wordpools/wordpool_categorized_EN.txt	CELERY	Vegetables	6	10	[0, 0, 0]	n/a	catFR1	1	R1191J
1244.585	1.0	1253988	WORD_OFF	n/a	n/a	CELERY	n/a	6	10	[0, 0, 0]	n/a	catFR1	1	R1191J
1245.585	1.6	1254988	WORD	n/a	wordpools/wordpool_categorized_EN.txt	ORANGE	Fruit	7	10	[0, 0, 0]	n/a	catFR1	1	R1191J
1247.201	0.817	1256604	WORD_OFF	n/a	n/a	ORANGE	n/a	7	10	[0, 0, 0]	n/a	catFR1	1	R1191J
1248.018	1.6	1257421	WORD	n/a	wordpools/wordpool_categorized_EN.txt	BANANA	Fruit	8	10	[0, 0, 0]	n/a	catFR1	1	R1191J
1249.619	0.884	1259022	WORD_OFF	n/a	n/a	BANANA	n/a	8	10	[0, 0, 0]	n/a	catFR1	1	R1191J
1250.503	1.6	1259906	WORD	n/a	wordpools/wordpool_categorized_EN.txt	ORGAN	Instruments	9	10	[0, 0, 0]	n/a	catFR1	1	R1191J
1252.118	0.951	1261521	WORD_OFF	n/a	n/a	ORGAN	n/a	9	10	[0, 0, 0]	n/a	catFR1	1	R1191J
1253.069	1.6	1262472	WORD	n/a	wordpools/wordpool_categorized_EN.txt	TROMBONE	Instruments	10	10	[0, 0, 0]	n/a	catFR1	1	R1191J
1254.687	0.782	1264090	WORD_OFF	n/a	n/a	TROMBONE	n/a	10	10	[0, 0, 0]	n/a	catFR1	1	R1191J
1255.469	1.6	1264872	WORD	n/a	wordpools/wordpool_categorized_EN.txt	BROCCOLI	Vegetables	11	10	[0, 0, 0]	n/a	catFR1	1	R1191J
1257.086	0.9	1266489	WORD_OFF	n/a	n/a	BROCCOLI	n/a	11	10	[0, 0, 0]	n/a	catFR1	1	R1191J
1257.986	1.6	1267389	WORD	n/a	wordpools/wordpool_categorized_EN.txt	ONION	Vegetables	12	10	[0, 0, 0]	n/a	catFR1	1	R1191J
1259.604	0.0	1269007	WORD_OFF	n/a	n/a	ONION	n/a	12	10	[0, 0, 0]	n/a	catFR1	1	R1191J
1259.604	0.097	1269007	ENCODING_END	n/a	n/a	n/a	n/a	-999	10	[0, 0, 0]	n/a	catFR1	1	R1191J
1259.701	0.0	1269104	DISTRACT_START	n/a	n/a	n/a	n/a	-999	10	[0, 0, 0]	n/a	catFR1	1	R1191J
1259.701	0.019	1269104	START	n/a	n/a	n/a	n/a	-999	10	[-999, -999, -999]	n/a	catFR1	1	R1191J
1259.72	14.019	1269123	PROB	13.989	n/a	n/a	n/a	-999	10	[9, 5, 1]	15.0	catFR1	1	R1191J
1273.739	14.48	1283142	PROB	14.48	n/a	n/a	n/a	-999	10	[9, 8, 8]	25.0	catFR1	1	R1191J
1288.219	0.021	1297622	STOP	n/a	n/a	n/a	n/a	-999	10	[-999, -999, -999]	n/a	catFR1	1	R1191J
1288.24	0.551	1297643	DISTRACT_END	n/a	n/a	n/a	n/a	-999	10	[0, 0, 0]	n/a	catFR1	1	R1191J
1288.791	0.516	1298194	RETRIEVAL_ORIENT	n/a	n/a	n/a	n/a	-999	10	[0, 0, 0]	n/a	catFR1	1	R1191J
1289.307	2.258	1298710	REC_START	n/a	n/a	n/a	n/a	-999	10	[0, 0, 0]	n/a	catFR1	1	R1191J
1291.565	3.378	1300968	REC_WORD	2.258	n/a	PIANO	Instruments	1	10	[0, 0, 0]	n/a	catFR1	1	R1191J
1294.943	2.812	1304346	REC_WORD_VV	5.636	n/a	<>	n/a	-999	10	[0, 0, 0]	n/a	catFR1	1	R1191J
1297.755	0.653	1307158	REC_WORD_VV	8.448	n/a	<>	n/a	-999	10	[0, 0, 0]	n/a	catFR1	1	R1191J
1298.408	1.0	1307811	REC_WORD	9.101	n/a	BASS	Instruments	2	10	[0, 0, 0]	n/a	catFR1	1	R1191J
1299.408	1.372	1308811	REC_WORD_VV	10.101	n/a	<>	n/a	-999	10	[0, 0, 0]	n/a	catFR1	1	R1191J
1300.78	5.85	1310183	REC_WORD	11.473	n/a	PEACH	Fruit	3	10	[0, 0, 0]	n/a	catFR1	1	R1191J
1306.63	12.689	1316033	REC_WORD_VV	17.323	n/a	<>	n/a	-999	10	[0, 0, 0]	n/a	catFR1	1	R1191J
1319.319	0.0	1328722	REC_END	n/a	n/a	n/a	n/a	-999	10	[0, 0, 0]	n/a	catFR1	1	R1191J
