onset	duration	sample	trial_type	response_time	stim_file	item_name	category	serialpos	list	test	answer	experiment	session	subject
0.0	2.799	2013	INSTRUCT_START	n/a	n/a	n/a	n/a	-999	-999	[0, 0, 0]	n/a	catFR1	3	R1515T
2.799	19.817	4812	INSTRUCT_END	n/a	n/a	n/a	n/a	-999	-999	[0, 0, 0]	n/a	catFR1	3	R1515T
22.616	10.349	24633	COUNTDOWN_START	n/a	n/a	n/a	n/a	-999	-999	[0, 0, 0]	n/a	catFR1	3	R1515T
32.965	0.0	34975	COUNTDOWN_END	n/a	n/a	n/a	n/a	-999	-999	[0, 0, 0]	n/a	catFR1	3	R1515T
32.965	2.151	34985	ENCODING_START	n/a	n/a	n/a	n/a	-999	-1	[0, 0, 0]	n/a	catFR1	3	R1515T
35.116	1.616	37126	WORD	n/a	n/a	LETTUCE	Vegetables	1	-1	[0, 0, 0]	n/a	catFR1	3	R1515T
36.732	0.9	38746	WORD_OFF	n/a	n/a	LETTUCE	Vegetables	1	-1	[0, 0, 0]	n/a	catFR1	3	R1515T
37.632	1.617	39650	WORD	n/a	n/a	CUCUMBER	Vegetables	2	-1	[0, 0, 0]	n/a	catFR1	3	R1515T
39.249	0.833	41261	WORD_OFF	n/a	n/a	CUCUMBER	Vegetables	2	-1	[0, 0, 0]	n/a	catFR1	3	R1515T
40.082	1.617	42096	WORD	n/a	n/a	RIVER	Landscapes	3	-1	[0, 0, 0]	n/a	catFR1	3	R1515T
41.699	0.817	43716	WORD_OFF	n/a	n/a	RIVER	Landscapes	3	-1	[0, 0, 0]	n/a	catFR1	3	R1515T
42.516	1.616	44531	WORD	n/a	n/a	CREEK	Landscapes	4	-1	[0, 0, 0]	n/a	catFR1	3	R1515T
44.132	0.8	46142	WORD_OFF	n/a	n/a	CREEK	Landscapes	4	-1	[0, 0, 0]	n/a	catFR1	3	R1515T
44.932	1.617	46948	WORD	n/a	n/a	DAISY	Flowers	5	-1	[0, 0, 0]	n/a	catFR1	3	R1515T
46.549	0.799	48558	WORD_OFF	n/a	n/a	DAISY	Flowers	5	-1	[0, 0, 0]	n/a	catFR1	3	R1515T
47.348	1.6	49364	WORD	n/a	n/a	ORCHID	Flowers	6	-1	[0, 0, 0]	n/a	catFR1	3	R1515T
48.948	0.918	50965	WORD_OFF	n/a	n/a	ORCHID	Flowers	6	-1	[0, 0, 0]	n/a	catFR1	3	R1515T
49.866	1.615	51878	WORD	n/a	n/a	ISLAND	Landscapes	7	-1	[0, 0, 0]	n/a	catFR1	3	R1515T
51.481	0.835	53499	WORD_OFF	n/a	n/a	ISLAND	Landscapes	7	-1	[0, 0, 0]	n/a	catFR1	3	R1515T
52.316	1.616	54324	WORD	n/a	n/a	HILLS	Landscapes	8	-1	[0, 0, 0]	n/a	catFR1	3	R1515T
53.932	0.884	55944	WORD_OFF	n/a	n/a	HILLS	Landscapes	8	-1	[0, 0, 0]	n/a	catFR1	3	R1515T
54.816	1.616	56828	WORD	n/a	n/a	CAULIFLOWER	Vegetables	9	-1	[0, 0, 0]	n/a	catFR1	3	R1515T
56.432	0.784	58449	WORD_OFF	n/a	n/a	CAULIFLOWER	Vegetables	9	-1	[0, 0, 0]	n/a	catFR1	3	R1515T
57.216	1.616	59225	WORD	n/a	n/a	BROCCOLI	Vegetables	10	-1	[0, 0, 0]	n/a	catFR1	3	R1515T
58.832	0.784	60845	WORD_OFF	n/a	n/a	BROCCOLI	Vegetables	10	-1	[0, 0, 0]	n/a	catFR1	3	R1515T
59.616	1.616	61631	WORD	n/a	n/a	CARNATION	Flowers	11	-1	[0, 0, 0]	n/a	catFR1	3	R1515T
61.232	0.967	63242	WORD_OFF	n/a	n/a	CARNATION	Flowers	11	-1	[0, 0, 0]	n/a	catFR1	3	R1515T
62.199	1.617	64214	WORD	n/a	n/a	LILY	Flowers	12	-1	[0, 0, 0]	n/a	catFR1	3	R1515T
63.816	0.001	65825	WORD_OFF	n/a	n/a	LILY	Flowers	12	-1	[0, 0, 0]	n/a	catFR1	3	R1515T
63.817	0.0	65831	START	n/a	n/a	n/a	n/a	-999	-1	[-999, -999, -999]	n/a	catFR1	3	R1515T
63.817	0.0	65831	PROB	4.949	n/a	n/a	n/a	-999	-1	[1, 6, 4]	11.0	catFR1	3	R1515T
63.817	0.0	65835	ENCODING_END	n/a	n/a	n/a	n/a	-999	-1	[0, 0, 0]	n/a	catFR1	3	R1515T
63.817	4.966	65835	DISTRACT_START	n/a	n/a	n/a	n/a	-999	-1	[0, 0, 0]	n/a	catFR1	3	R1515T
68.783	8.449	70797	PROB	8.433	n/a	n/a	n/a	-999	-1	[6, 5, 8]	19.0	catFR1	3	R1515T
77.232	4.316	79245	PROB	4.3	n/a	n/a	n/a	-999	-1	[2, 2, 3]	7.0	catFR1	3	R1515T
81.548	2.416	83561	PROB	2.398	n/a	n/a	n/a	-999	-1	[4, 5, 5]	14.0	catFR1	3	R1515T
83.964	0.0	85977	STOP	n/a	n/a	n/a	n/a	-999	-1	[-999, -999, -999]	n/a	catFR1	3	R1515T
83.964	2.219	85979	DISTRACT_END	n/a	n/a	n/a	n/a	-999	-1	[0, 0, 0]	n/a	catFR1	3	R1515T
86.183	3.409	88197	REC_START	n/a	n/a	n/a	n/a	-999	-1	[0, 0, 0]	n/a	catFR1	3	R1515T
89.592	0.915	91605	REC_WORD	3.409	n/a	CAULIFLOWER	Vegetables	9	-1	[0, 0, 0]	n/a	catFR1	3	R1515T
90.507	0.747	92520	REC_WORD	4.324	n/a	BROCCOLI	Vegetables	10	-1	[0, 0, 0]	n/a	catFR1	3	R1515T
91.254	1.0	93267	REC_WORD	5.071	n/a	CUCUMBER	Vegetables	2	-1	[0, 0, 0]	n/a	catFR1	3	R1515T
92.254	3.552	94267	REC_WORD	6.071	n/a	CUCUMBER	Vegetables	2	-1	[0, 0, 0]	n/a	catFR1	3	R1515T
95.806	0.903	97818	REC_WORD_VV	9.623	n/a	<>	n/a	-999	-1	[0, 0, 0]	n/a	catFR1	3	R1515T
96.709	0.97	98721	REC_WORD	10.526	n/a	CUCUMBER	Vegetables	2	-1	[0, 0, 0]	n/a	catFR1	3	R1515T
97.679	1.376	99691	REC_WORD	11.496	n/a	LETTUCE	Vegetables	1	-1	[0, 0, 0]	n/a	catFR1	3	R1515T
99.055	0.563	101067	REC_WORD_VV	12.872	n/a	<>	n/a	-999	-1	[0, 0, 0]	n/a	catFR1	3	R1515T
99.618	1.612	101630	REC_WORD	13.435	n/a	CREEK	Landscapes	4	-1	[0, 0, 0]	n/a	catFR1	3	R1515T
101.23	1.135	103242	REC_WORD	15.047	n/a	ISLAND	Landscapes	7	-1	[0, 0, 0]	n/a	catFR1	3	R1515T
102.365	1.213	104377	REC_WORD	16.182	n/a	DAISY	Flowers	5	-1	[0, 0, 0]	n/a	catFR1	3	R1515T
103.578	1.0	105590	REC_WORD	17.395	n/a	CARNATION	Flowers	11	-1	[0, 0, 0]	n/a	catFR1	3	R1515T
104.578	2.485	106590	REC_WORD	18.395	n/a	CARNATION	Flowers	11	-1	[0, 0, 0]	n/a	catFR1	3	R1515T
107.063	3.501	109075	REC_WORD	20.88	n/a	ORCHID	Flowers	6	-1	[0, 0, 0]	n/a	catFR1	3	R1515T
110.564	1.0	112576	REC_WORD	24.381	n/a	TULIP	n/a	-999	-1	[0, 0, 0]	n/a	catFR1	3	R1515T
111.564	3.474	113576	REC_WORD	25.381	n/a	TULIP	n/a	-999	-1	[0, 0, 0]	n/a	catFR1	3	R1515T
115.038	0.735	117049	REC_WORD_VV	28.855	n/a	<>	n/a	-999	-1	[0, 0, 0]	n/a	catFR1	3	R1515T
115.773	0.611	117784	REC_WORD	29.59	n/a	CREEK	Landscapes	4	-1	[0, 0, 0]	n/a	catFR1	3	R1515T
116.384	5.649	118391	REC_END	n/a	n/a	n/a	n/a	-999	-1	[0, 0, 0]	n/a	catFR1	3	R1515T
122.033	10.349	124049	COUNTDOWN_START	n/a	n/a	n/a	n/a	-999	1	[0, 0, 0]	n/a	catFR1	3	R1515T
132.382	0.0	134391	COUNTDOWN_END	n/a	n/a	n/a	n/a	-999	1	[0, 0, 0]	n/a	catFR1	3	R1515T
132.382	2.0	134391	ENCODING_START	n/a	n/a	n/a	n/a	-999	1	[0, 0, 0]	n/a	catFR1	3	R1515T
134.382	1.617	136395	WORD	n/a	wordpools/wordpool_categorized_EN.txt	BASS	Instruments	1	1	[0, 0, 0]	n/a	catFR1	3	R1515T
135.999	0.95	138005	WORD_OFF	n/a	n/a	BASS	Instruments	1	1	[0, 0, 0]	n/a	catFR1	3	R1515T
136.949	1.617	138958	WORD	n/a	wordpools/wordpool_categorized_EN.txt	ORGAN	Instruments	2	1	[0, 0, 0]	n/a	catFR1	3	R1515T
138.566	0.849	140569	WORD_OFF	n/a	n/a	ORGAN	Instruments	2	1	[0, 0, 0]	n/a	catFR1	3	R1515T
139.415	1.601	141423	WORD	n/a	wordpools/wordpool_categorized_EN.txt	PHONE	Electronics	3	1	[0, 0, 0]	n/a	catFR1	3	R1515T
141.016	0.799	143024	WORD_OFF	n/a	n/a	PHONE	Electronics	3	1	[0, 0, 0]	n/a	catFR1	3	R1515T
141.815	1.6	143820	WORD	n/a	wordpools/wordpool_categorized_EN.txt	SCANNER	Electronics	4	1	[0, 0, 0]	n/a	catFR1	3	R1515T
143.415	0.917	145421	WORD_OFF	n/a	n/a	SCANNER	Electronics	4	1	[0, 0, 0]	n/a	catFR1	3	R1515T
144.332	1.617	146344	WORD	n/a	wordpools/wordpool_categorized_EN.txt	CIDER	Beverages	5	1	[0, 0, 0]	n/a	catFR1	3	R1515T
145.949	0.833	147955	WORD_OFF	n/a	n/a	CIDER	Beverages	5	1	[0, 0, 0]	n/a	catFR1	3	R1515T
146.782	1.616	148790	WORD	n/a	wordpools/wordpool_categorized_EN.txt	COFFEE	Beverages	6	1	[0, 0, 0]	n/a	catFR1	3	R1515T
148.398	0.934	150410	WORD_OFF	n/a	n/a	COFFEE	Beverages	6	1	[0, 0, 0]	n/a	catFR1	3	R1515T
149.332	1.617	151343	WORD	n/a	wordpools/wordpool_categorized_EN.txt	COMPUTER	Electronics	7	1	[0, 0, 0]	n/a	catFR1	3	R1515T
150.949	0.866	152954	WORD_OFF	n/a	n/a	COMPUTER	Electronics	7	1	[0, 0, 0]	n/a	catFR1	3	R1515T
151.815	1.601	153819	WORD	n/a	wordpools/wordpool_categorized_EN.txt	PRINTER	Electronics	8	1	[0, 0, 0]	n/a	catFR1	3	R1515T
153.416	0.916	155419	WORD_OFF	n/a	n/a	PRINTER	Electronics	8	1	[0, 0, 0]	n/a	catFR1	3	R1515T
154.332	1.6	156343	WORD	n/a	wordpools/wordpool_categorized_EN.txt	PIANO	Instruments	9	1	[0, 0, 0]	n/a	catFR1	3	R1515T
155.932	0.816	157944	WORD_OFF	n/a	n/a	PIANO	Instruments	9	1	[0, 0, 0]	n/a	catFR1	3	R1515T
156.748	1.601	158759	WORD	n/a	wordpools/wordpool_categorized_EN.txt	FLUTE	Instruments	10	1	[0, 0, 0]	n/a	catFR1	3	R1515T
158.349	0.917	160360	WORD_OFF	n/a	n/a	FLUTE	Instruments	10	1	[0, 0, 0]	n/a	catFR1	3	R1515T
159.266	1.616	161273	WORD	n/a	wordpools/wordpool_categorized_EN.txt	WATER	Beverages	11	1	[0, 0, 0]	n/a	catFR1	3	R1515T
160.882	0.784	162894	WORD_OFF	n/a	n/a	WATER	Beverages	11	1	[0, 0, 0]	n/a	catFR1	3	R1515T
161.666	1.616	163670	WORD	n/a	wordpools/wordpool_categorized_EN.txt	SODA	Beverages	12	1	[0, 0, 0]	n/a	catFR1	3	R1515T
163.282	0.002	165290	WORD_OFF	n/a	n/a	SODA	Beverages	12	1	[0, 0, 0]	n/a	catFR1	3	R1515T
163.284	0.0	165290	ENCODING_END	n/a	n/a	n/a	n/a	-999	1	[0, 0, 0]	n/a	catFR1	3	R1515T
163.284	0.0	165290	DISTRACT_START	n/a	n/a	n/a	n/a	-999	1	[0, 0, 0]	n/a	catFR1	3	R1515T
163.283	0.001	165292	PROB	12.216	n/a	n/a	n/a	-999	1	[1, 8, 5]	14.0	catFR1	3	R1515T
163.284	12.233	165293	START	n/a	n/a	n/a	n/a	-999	1	[-999, -999, -999]	n/a	catFR1	3	R1515T
175.517	5.615	177525	PROB	5.599	n/a	n/a	n/a	-999	1	[4, 5, 4]	13.0	catFR1	3	R1515T
181.132	2.366	183140	PROB	2.35	n/a	n/a	n/a	-999	1	[1, 1, 5]	7.0	catFR1	3	R1515T
183.498	0.0	185503	DISTRACT_END	n/a	n/a	n/a	n/a	-999	1	[0, 0, 0]	n/a	catFR1	3	R1515T
183.498	2.267	185506	STOP	n/a	n/a	n/a	n/a	-999	1	[-999, -999, -999]	n/a	catFR1	3	R1515T
185.765	1.25	187770	REC_START	n/a	n/a	n/a	n/a	-999	1	[0, 0, 0]	n/a	catFR1	3	R1515T
187.015	1.0	189023	REC_WORD	1.25	n/a	BASS	Instruments	1	1	[0, 0, 0]	n/a	catFR1	3	R1515T
188.015	0.454	190023	REC_WORD	2.25	n/a	BASS	Instruments	1	1	[0, 0, 0]	n/a	catFR1	3	R1515T
188.469	2.086	190477	REC_WORD	2.704	n/a	ORGAN	Instruments	2	1	[0, 0, 0]	n/a	catFR1	3	R1515T
190.555	1.0	192563	REC_WORD	4.79	n/a	PIANO	Instruments	9	1	[0, 0, 0]	n/a	catFR1	3	R1515T
191.555	4.108	193563	REC_WORD	5.79	n/a	PIANO	Instruments	9	1	[0, 0, 0]	n/a	catFR1	3	R1515T
195.663	0.856	197670	REC_WORD_VV	9.898	n/a	<>	n/a	-999	1	[0, 0, 0]	n/a	catFR1	3	R1515T
196.519	0.271	198526	REC_WORD	10.754	n/a	BASS	Instruments	1	1	[0, 0, 0]	n/a	catFR1	3	R1515T
196.79	0.339	198797	REC_WORD	11.025	n/a	ORGAN	Instruments	2	1	[0, 0, 0]	n/a	catFR1	3	R1515T
197.129	1.569	199136	REC_WORD	11.364	n/a	PIANO	Instruments	9	1	[0, 0, 0]	n/a	catFR1	3	R1515T
198.698	1.0	200705	REC_WORD_VV	12.933	n/a	<>	n/a	-999	1	[0, 0, 0]	n/a	catFR1	3	R1515T
199.698	2.337	201705	REC_WORD_VV	13.933	n/a	<>	n/a	-999	1	[0, 0, 0]	n/a	catFR1	3	R1515T
202.035	1.0	204042	REC_WORD	16.27	n/a	COFFEE	Beverages	6	1	[0, 0, 0]	n/a	catFR1	3	R1515T
203.035	0.384	205042	REC_WORD	17.27	n/a	COFFEE	Beverages	6	1	[0, 0, 0]	n/a	catFR1	3	R1515T
203.419	0.731	205426	REC_WORD	17.654	n/a	TEA	n/a	-999	1	[0, 0, 0]	n/a	catFR1	3	R1515T
204.15	0.842	206157	REC_WORD	18.385	n/a	WATER	Beverages	11	1	[0, 0, 0]	n/a	catFR1	3	R1515T
204.992	1.0	206999	REC_WORD	19.227	n/a	SODA	Beverages	12	1	[0, 0, 0]	n/a	catFR1	3	R1515T
205.992	8.303	207999	REC_WORD	20.227	n/a	SODA	Beverages	12	1	[0, 0, 0]	n/a	catFR1	3	R1515T
214.295	0.247	216301	REC_WORD_VV	28.53	n/a	<>	n/a	-999	1	[0, 0, 0]	n/a	catFR1	3	R1515T
214.542	1.0	216548	REC_WORD	28.777	n/a	VIOLIN	n/a	-999	1	[0, 0, 0]	n/a	catFR1	3	R1515T
215.542	0.438	217548	REC_WORD	29.777	n/a	VIOLIN	n/a	-999	1	[0, 0, 0]	n/a	catFR1	3	R1515T
215.98	1.802	217984	REC_END	n/a	n/a	n/a	n/a	-999	1	[0, 0, 0]	n/a	catFR1	3	R1515T
217.782	10.349	219791	COUNTDOWN_START	n/a	n/a	n/a	n/a	-999	2	[0, 0, 0]	n/a	catFR1	3	R1515T
228.131	0.0	230134	COUNTDOWN_END	n/a	n/a	n/a	n/a	-999	2	[0, 0, 0]	n/a	catFR1	3	R1515T
228.131	2.068	230134	ENCODING_START	n/a	n/a	n/a	n/a	-999	2	[0, 0, 0]	n/a	catFR1	3	R1515T
230.199	1.616	232206	WORD	n/a	wordpools/wordpool_categorized_EN.txt	RAIN	Weather	1	2	[0, 0, 0]	n/a	catFR1	3	R1515T
231.815	0.85	233817	WORD_OFF	n/a	n/a	RAIN	Weather	1	2	[0, 0, 0]	n/a	catFR1	3	R1515T
232.665	1.601	234671	WORD	n/a	wordpools/wordpool_categorized_EN.txt	THUNDERSTORM	Weather	2	2	[0, 0, 0]	n/a	catFR1	3	R1515T
234.266	0.916	236272	WORD_OFF	n/a	n/a	THUNDERSTORM	Weather	2	2	[0, 0, 0]	n/a	catFR1	3	R1515T
235.182	1.6	237186	WORD	n/a	wordpools/wordpool_categorized_EN.txt	ORANGE	Fruit	3	2	[0, 0, 0]	n/a	catFR1	3	R1515T
236.782	0.816	238787	WORD_OFF	n/a	n/a	ORANGE	Fruit	3	2	[0, 0, 0]	n/a	catFR1	3	R1515T
237.598	1.601	239602	WORD	n/a	wordpools/wordpool_categorized_EN.txt	APPLE	Fruit	4	2	[0, 0, 0]	n/a	catFR1	3	R1515T
239.199	0.85	241203	WORD_OFF	n/a	n/a	APPLE	Fruit	4	2	[0, 0, 0]	n/a	catFR1	3	R1515T
240.049	1.6	242047	WORD	n/a	wordpools/wordpool_categorized_EN.txt	TIGER	Zoo	5	2	[0, 0, 0]	n/a	catFR1	3	R1515T
241.649	0.9	243648	WORD_OFF	n/a	n/a	TIGER	Zoo	5	2	[0, 0, 0]	n/a	catFR1	3	R1515T
242.549	1.616	244552	WORD	n/a	wordpools/wordpool_categorized_EN.txt	MONKEY	Zoo	6	2	[0, 0, 0]	n/a	catFR1	3	R1515T
244.165	0.983	246172	WORD_OFF	n/a	n/a	MONKEY	Zoo	6	2	[0, 0, 0]	n/a	catFR1	3	R1515T
245.148	1.617	247155	WORD	n/a	wordpools/wordpool_categorized_EN.txt	GRAPE	Fruit	7	2	[0, 0, 0]	n/a	catFR1	3	R1515T
246.765	0.884	248765	WORD_OFF	n/a	n/a	GRAPE	Fruit	7	2	[0, 0, 0]	n/a	catFR1	3	R1515T
247.649	1.6	249649	WORD	n/a	wordpools/wordpool_categorized_EN.txt	PLUM	Fruit	8	2	[0, 0, 0]	n/a	catFR1	3	R1515T
249.249	0.95	251250	WORD_OFF	n/a	n/a	PLUM	Fruit	8	2	[0, 0, 0]	n/a	catFR1	3	R1515T
250.199	1.6	252203	WORD	n/a	wordpools/wordpool_categorized_EN.txt	GIRAFFE	Zoo	9	2	[0, 0, 0]	n/a	catFR1	3	R1515T
251.799	0.966	253804	WORD_OFF	n/a	n/a	GIRAFFE	Zoo	9	2	[0, 0, 0]	n/a	catFR1	3	R1515T
252.765	1.617	254767	WORD	n/a	wordpools/wordpool_categorized_EN.txt	LION	Zoo	10	2	[0, 0, 0]	n/a	catFR1	3	R1515T
254.382	0.767	256387	WORD_OFF	n/a	n/a	LION	Zoo	10	2	[0, 0, 0]	n/a	catFR1	3	R1515T
255.149	1.616	257153	WORD	n/a	wordpools/wordpool_categorized_EN.txt	SNOW	Weather	11	2	[0, 0, 0]	n/a	catFR1	3	R1515T
256.765	0.834	258764	WORD_OFF	n/a	n/a	SNOW	Weather	11	2	[0, 0, 0]	n/a	catFR1	3	R1515T
257.599	1.617	259599	WORD	n/a	wordpools/wordpool_categorized_EN.txt	WIND	Weather	12	2	[0, 0, 0]	n/a	catFR1	3	R1515T
259.216	0.001	261219	WORD_OFF	n/a	n/a	WIND	Weather	12	2	[0, 0, 0]	n/a	catFR1	3	R1515T
259.217	0.0	261219	ENCODING_END	n/a	n/a	n/a	n/a	-999	2	[0, 0, 0]	n/a	catFR1	3	R1515T
259.217	0.0	261219	DISTRACT_START	n/a	n/a	n/a	n/a	-999	2	[0, 0, 0]	n/a	catFR1	3	R1515T
259.216	0.001	261220	PROB	3.832	n/a	n/a	n/a	-999	2	[3, 3, 7]	13.0	catFR1	3	R1515T
259.217	3.849	261221	START	n/a	n/a	n/a	n/a	-999	2	[-999, -999, -999]	n/a	catFR1	3	R1515T
263.066	2.833	265070	PROB	2.815	n/a	n/a	n/a	-999	2	[4, 6, 2]	12.0	catFR1	3	R1515T
265.899	2.45	267903	PROB	2.433	n/a	n/a	n/a	-999	2	[1, 7, 1]	9.0	catFR1	3	R1515T
268.349	3.616	270353	PROB	3.6	n/a	n/a	n/a	-999	2	[5, 4, 8]	15.0	catFR1	3	R1515T
271.965	4.452	273968	PROB	4.433	n/a	n/a	n/a	-999	2	[6, 6, 3]	15.0	catFR1	3	R1515T
276.417	5.015	278420	PROB	4.999	n/a	n/a	n/a	-999	2	[4, 7, 3]	14.0	catFR1	3	R1515T
281.432	0.0	283435	STOP	n/a	n/a	n/a	n/a	-999	2	[-999, -999, -999]	n/a	catFR1	3	R1515T
281.432	2.349	283436	DISTRACT_END	n/a	n/a	n/a	n/a	-999	2	[0, 0, 0]	n/a	catFR1	3	R1515T
283.781	0.468	285782	REC_START	n/a	n/a	n/a	n/a	-999	2	[0, 0, 0]	n/a	catFR1	3	R1515T
284.249	1.0	286252	REC_WORD	0.468	n/a	TIGER	Zoo	5	2	[0, 0, 0]	n/a	catFR1	3	R1515T
285.249	0.177	287252	REC_WORD	1.468	n/a	TIGER	Zoo	5	2	[0, 0, 0]	n/a	catFR1	3	R1515T
285.426	1.0	287429	REC_WORD	1.645	n/a	MONKEY	Zoo	6	2	[0, 0, 0]	n/a	catFR1	3	R1515T
286.426	0.227	288429	REC_WORD	2.645	n/a	MONKEY	Zoo	6	2	[0, 0, 0]	n/a	catFR1	3	R1515T
286.653	0.738	288656	REC_WORD	2.872	n/a	GIRAFFE	Zoo	9	2	[0, 0, 0]	n/a	catFR1	3	R1515T
287.391	1.0	289394	REC_WORD	3.61	n/a	ZEBRA	n/a	-999	2	[0, 0, 0]	n/a	catFR1	3	R1515T
288.391	1.643	290394	REC_WORD	4.61	n/a	ZEBRA	n/a	-999	2	[0, 0, 0]	n/a	catFR1	3	R1515T
290.034	0.904	292037	REC_WORD	6.253	n/a	APPLE	Fruit	4	2	[0, 0, 0]	n/a	catFR1	3	R1515T
290.938	0.747	292941	REC_WORD	7.157	n/a	ORANGE	Fruit	3	2	[0, 0, 0]	n/a	catFR1	3	R1515T
291.685	1.0	293688	REC_WORD	7.904	n/a	PLUM	Fruit	8	2	[0, 0, 0]	n/a	catFR1	3	R1515T
292.685	4.558	294687	REC_WORD	8.904	n/a	PLUM	Fruit	8	2	[0, 0, 0]	n/a	catFR1	3	R1515T
297.243	1.0	299245	REC_WORD_VV	13.462	n/a	<>	n/a	-999	2	[0, 0, 0]	n/a	catFR1	3	R1515T
298.243	4.489	300245	REC_WORD_VV	14.462	n/a	<>	n/a	-999	2	[0, 0, 0]	n/a	catFR1	3	R1515T
302.732	1.0	304734	REC_WORD_VV	18.951	n/a	<>	n/a	-999	2	[0, 0, 0]	n/a	catFR1	3	R1515T
303.732	7.509	305734	REC_WORD_VV	19.951	n/a	<>	n/a	-999	2	[0, 0, 0]	n/a	catFR1	3	R1515T
311.241	1.0	313243	REC_WORD_VV	27.46	n/a	<>	n/a	-999	2	[0, 0, 0]	n/a	catFR1	3	R1515T
312.241	1.325	314242	REC_WORD_VV	28.46	n/a	<>	n/a	-999	2	[0, 0, 0]	n/a	catFR1	3	R1515T
313.566	0.43	315567	REC_WORD_VV	29.785	n/a	<>	n/a	-999	2	[0, 0, 0]	n/a	catFR1	3	R1515T
313.996	3.252	315996	REC_END	n/a	n/a	n/a	n/a	-999	2	[0, 0, 0]	n/a	catFR1	3	R1515T
317.248	10.35	319247	COUNTDOWN_START	n/a	n/a	n/a	n/a	-999	3	[0, 0, 0]	n/a	catFR1	3	R1515T
327.598	0.0	329599	COUNTDOWN_END	n/a	n/a	n/a	n/a	-999	3	[0, 0, 0]	n/a	catFR1	3	R1515T
327.598	1.951	329599	ENCODING_START	n/a	n/a	n/a	n/a	-999	3	[0, 0, 0]	n/a	catFR1	3	R1515T
329.549	1.616	331553	WORD	n/a	wordpools/wordpool_categorized_EN.txt	TROMBONE	Instruments	1	3	[0, 0, 0]	n/a	catFR1	3	R1515T
331.165	0.883	333164	WORD_OFF	n/a	n/a	TROMBONE	Instruments	1	3	[0, 0, 0]	n/a	catFR1	3	R1515T
332.048	1.601	334048	WORD	n/a	wordpools/wordpool_categorized_EN.txt	DRUM	Instruments	2	3	[0, 0, 0]	n/a	catFR1	3	R1515T
333.649	0.9	335649	WORD_OFF	n/a	n/a	DRUM	Instruments	2	3	[0, 0, 0]	n/a	catFR1	3	R1515T
334.549	1.6	336552	WORD	n/a	wordpools/wordpool_categorized_EN.txt	MOUNTAIN	Landscapes	3	3	[0, 0, 0]	n/a	catFR1	3	R1515T
336.149	0.9	338144	WORD_OFF	n/a	n/a	MOUNTAIN	Landscapes	3	3	[0, 0, 0]	n/a	catFR1	3	R1515T
337.049	1.616	339047	WORD	n/a	wordpools/wordpool_categorized_EN.txt	VALLEY	Landscapes	4	3	[0, 0, 0]	n/a	catFR1	3	R1515T
338.665	0.851	340668	WORD_OFF	n/a	n/a	VALLEY	Landscapes	4	3	[0, 0, 0]	n/a	catFR1	3	R1515T
339.516	1.616	341512	WORD	n/a	wordpools/wordpool_categorized_EN.txt	WALL	Building	5	3	[0, 0, 0]	n/a	catFR1	3	R1515T
341.132	0.784	343133	WORD_OFF	n/a	n/a	WALL	Building	5	3	[0, 0, 0]	n/a	catFR1	3	R1515T
341.916	1.616	343919	WORD	n/a	wordpools/wordpool_categorized_EN.txt	ROOF	Building	6	3	[0, 0, 0]	n/a	catFR1	3	R1515T
343.532	0.767	345530	WORD_OFF	n/a	n/a	ROOF	Building	6	3	[0, 0, 0]	n/a	catFR1	3	R1515T
344.299	1.617	346296	WORD	n/a	wordpools/wordpool_categorized_EN.txt	TRUMPET	Instruments	7	3	[0, 0, 0]	n/a	catFR1	3	R1515T
345.916	0.916	347916	WORD_OFF	n/a	n/a	TRUMPET	Instruments	7	3	[0, 0, 0]	n/a	catFR1	3	R1515T
346.832	1.617	348830	WORD	n/a	wordpools/wordpool_categorized_EN.txt	BANJO	Instruments	8	3	[0, 0, 0]	n/a	catFR1	3	R1515T
348.449	0.932	350450	WORD_OFF	n/a	n/a	BANJO	Instruments	8	3	[0, 0, 0]	n/a	catFR1	3	R1515T
349.381	1.601	351383	WORD	n/a	wordpools/wordpool_categorized_EN.txt	BEACH	Landscapes	9	3	[0, 0, 0]	n/a	catFR1	3	R1515T
350.982	0.933	352984	WORD_OFF	n/a	n/a	BEACH	Landscapes	9	3	[0, 0, 0]	n/a	catFR1	3	R1515T
351.915	1.6	353917	WORD	n/a	wordpools/wordpool_categorized_EN.txt	LAKE	Landscapes	10	3	[0, 0, 0]	n/a	catFR1	3	R1515T
353.515	0.901	355509	WORD_OFF	n/a	n/a	LAKE	Landscapes	10	3	[0, 0, 0]	n/a	catFR1	3	R1515T
354.416	1.6	356412	WORD	n/a	wordpools/wordpool_categorized_EN.txt	DOOR	Building	11	3	[0, 0, 0]	n/a	catFR1	3	R1515T
356.016	0.783	358013	WORD_OFF	n/a	n/a	DOOR	Building	11	3	[0, 0, 0]	n/a	catFR1	3	R1515T
356.799	1.617	358799	WORD	n/a	wordpools/wordpool_categorized_EN.txt	FLOOR	Building	12	3	[0, 0, 0]	n/a	catFR1	3	R1515T
358.416	0.0	360410	WORD_OFF	n/a	n/a	FLOOR	Building	12	3	[0, 0, 0]	n/a	catFR1	3	R1515T
358.416	0.001	360415	PROB	4.549	n/a	n/a	n/a	-999	3	[6, 8, 4]	18.0	catFR1	3	R1515T
358.417	0.0	360416	START	n/a	n/a	n/a	n/a	-999	3	[-999, -999, -999]	n/a	catFR1	3	R1515T
358.417	0.0	360419	ENCODING_END	n/a	n/a	n/a	n/a	-999	3	[0, 0, 0]	n/a	catFR1	3	R1515T
358.417	4.565	360419	DISTRACT_START	n/a	n/a	n/a	n/a	-999	3	[0, 0, 0]	n/a	catFR1	3	R1515T
362.982	2.783	364981	PROB	2.764	n/a	n/a	n/a	-999	3	[5, 2, 7]	14.0	catFR1	3	R1515T
365.765	3.634	367764	PROB	3.617	n/a	n/a	n/a	-999	3	[3, 5, 7]	15.0	catFR1	3	R1515T
369.399	5.483	371398	PROB	5.466	n/a	n/a	n/a	-999	3	[5, 7, 1]	14.0	catFR1	3	R1515T
374.882	4.017	376880	PROB	4.0	n/a	n/a	n/a	-999	3	[2, 5, 2]	9.0	catFR1	3	R1515T
378.899	0.0	380897	STOP	n/a	n/a	n/a	n/a	-999	3	[-999, -999, -999]	n/a	catFR1	3	R1515T
378.899	2.1	380898	DISTRACT_END	n/a	n/a	n/a	n/a	-999	3	[0, 0, 0]	n/a	catFR1	3	R1515T
380.999	1.417	382998	REC_START	n/a	n/a	n/a	n/a	-999	3	[0, 0, 0]	n/a	catFR1	3	R1515T
382.416	1.0	384414	REC_WORD	1.417	n/a	LAKE	Landscapes	10	3	[0, 0, 0]	n/a	catFR1	3	R1515T
383.416	1.085	385414	REC_WORD	2.417	n/a	LAKE	Landscapes	10	3	[0, 0, 0]	n/a	catFR1	3	R1515T
384.501	0.603	386499	REC_WORD	3.502	n/a	DOOR	Building	11	3	[0, 0, 0]	n/a	catFR1	3	R1515T
385.104	1.0	387102	REC_WORD	4.105	n/a	FLOOR	Building	12	3	[0, 0, 0]	n/a	catFR1	3	R1515T
386.104	4.074	388102	REC_WORD	5.105	n/a	FLOOR	Building	12	3	[0, 0, 0]	n/a	catFR1	3	R1515T
390.178	1.0	392176	REC_WORD_VV	9.179	n/a	<>	n/a	-999	3	[0, 0, 0]	n/a	catFR1	3	R1515T
391.178	1.0	393175	REC_WORD_VV	10.179	n/a	<>	n/a	-999	3	[0, 0, 0]	n/a	catFR1	3	R1515T
392.178	1.0	394175	REC_WORD_VV	11.179	n/a	<>	n/a	-999	3	[0, 0, 0]	n/a	catFR1	3	R1515T
393.178	3.231	395175	REC_WORD_VV	12.179	n/a	<>	n/a	-999	3	[0, 0, 0]	n/a	catFR1	3	R1515T
396.409	0.229	398406	REC_WORD_VV	15.41	n/a	<>	n/a	-999	3	[0, 0, 0]	n/a	catFR1	3	R1515T
396.638	1.304	398635	REC_WORD	15.639	n/a	TRUMPET	Instruments	7	3	[0, 0, 0]	n/a	catFR1	3	R1515T
397.942	1.0	399939	REC_WORD_VV	16.943	n/a	<>	n/a	-999	3	[0, 0, 0]	n/a	catFR1	3	R1515T
398.942	2.065	400939	REC_WORD_VV	17.943	n/a	<>	n/a	-999	3	[0, 0, 0]	n/a	catFR1	3	R1515T
401.007	1.0	403004	REC_WORD	20.008	n/a	TRUMPET	Instruments	7	3	[0, 0, 0]	n/a	catFR1	3	R1515T
402.007	4.4	404004	REC_WORD	21.008	n/a	TRUMPET	Instruments	7	3	[0, 0, 0]	n/a	catFR1	3	R1515T
406.407	0.187	408404	REC_WORD_VV	25.408	n/a	<>	n/a	-999	3	[0, 0, 0]	n/a	catFR1	3	R1515T
406.594	2.029	408591	REC_WORD	25.595	n/a	TUBA	n/a	-999	3	[0, 0, 0]	n/a	catFR1	3	R1515T
408.623	2.588	410620	REC_WORD_VV	27.624	n/a	<>	n/a	-999	3	[0, 0, 0]	n/a	catFR1	3	R1515T
411.211	2.287	413202	REC_END	n/a	n/a	n/a	n/a	-999	3	[0, 0, 0]	n/a	catFR1	3	R1515T
413.498	10.351	415490	COUNTDOWN_START	n/a	n/a	n/a	n/a	-999	4	[0, 0, 0]	n/a	catFR1	3	R1515T
423.849	0.0	425842	COUNTDOWN_END	n/a	n/a	n/a	n/a	-999	4	[0, 0, 0]	n/a	catFR1	3	R1515T
423.849	2.134	425842	ENCODING_START	n/a	n/a	n/a	n/a	-999	4	[0, 0, 0]	n/a	catFR1	3	R1515T
425.983	1.615	427974	WORD	n/a	wordpools/wordpool_categorized_EN.txt	TAPE	OfficeSupplies	1	4	[0, 0, 0]	n/a	catFR1	3	R1515T
427.598	0.917	429594	WORD_OFF	n/a	n/a	TAPE	OfficeSupplies	1	4	[0, 0, 0]	n/a	catFR1	3	R1515T
428.515	1.601	430508	WORD	n/a	wordpools/wordpool_categorized_EN.txt	STAPLER	OfficeSupplies	2	4	[0, 0, 0]	n/a	catFR1	3	R1515T
430.116	0.999	432109	WORD_OFF	n/a	n/a	STAPLER	OfficeSupplies	2	4	[0, 0, 0]	n/a	catFR1	3	R1515T
431.115	1.601	433110	WORD	n/a	wordpools/wordpool_categorized_EN.txt	TEA	Beverages	3	4	[0, 0, 0]	n/a	catFR1	3	R1515T
432.716	0.9	434711	WORD_OFF	n/a	n/a	TEA	Beverages	3	4	[0, 0, 0]	n/a	catFR1	3	R1515T
433.616	1.615	435605	WORD	n/a	wordpools/wordpool_categorized_EN.txt	COLA	Beverages	4	4	[0, 0, 0]	n/a	catFR1	3	R1515T
435.231	0.951	437226	WORD_OFF	n/a	n/a	COLA	Beverages	4	4	[0, 0, 0]	n/a	catFR1	3	R1515T
436.182	1.617	438178	WORD	n/a	wordpools/wordpool_categorized_EN.txt	PIE	Desserts	5	4	[0, 0, 0]	n/a	catFR1	3	R1515T
437.799	0.85	439789	WORD_OFF	n/a	n/a	PIE	Desserts	5	4	[0, 0, 0]	n/a	catFR1	3	R1515T
438.649	1.616	440644	WORD	n/a	wordpools/wordpool_categorized_EN.txt	BROWNIES	Desserts	6	4	[0, 0, 0]	n/a	catFR1	3	R1515T
440.265	0.817	442254	WORD_OFF	n/a	n/a	BROWNIES	Desserts	6	4	[0, 0, 0]	n/a	catFR1	3	R1515T
441.082	1.617	443079	WORD	n/a	wordpools/wordpool_categorized_EN.txt	PEN	OfficeSupplies	7	4	[0, 0, 0]	n/a	catFR1	3	R1515T
442.699	0.833	444690	WORD_OFF	n/a	n/a	PEN	OfficeSupplies	7	4	[0, 0, 0]	n/a	catFR1	3	R1515T
443.532	1.601	445525	WORD	n/a	wordpools/wordpool_categorized_EN.txt	RULER	OfficeSupplies	8	4	[0, 0, 0]	n/a	catFR1	3	R1515T
445.133	0.966	447126	WORD_OFF	n/a	n/a	RULER	OfficeSupplies	8	4	[0, 0, 0]	n/a	catFR1	3	R1515T
446.099	1.617	448089	WORD	n/a	wordpools/wordpool_categorized_EN.txt	COBBLER	Desserts	9	4	[0, 0, 0]	n/a	catFR1	3	R1515T
447.716	1.016	449709	WORD_OFF	n/a	n/a	COBBLER	Desserts	9	4	[0, 0, 0]	n/a	catFR1	3	R1515T
448.732	1.617	450721	WORD	n/a	wordpools/wordpool_categorized_EN.txt	JELLO	Desserts	10	4	[0, 0, 0]	n/a	catFR1	3	R1515T
450.349	0.917	452341	WORD_OFF	n/a	n/a	JELLO	Desserts	10	4	[0, 0, 0]	n/a	catFR1	3	R1515T
451.266	1.616	453255	WORD	n/a	wordpools/wordpool_categorized_EN.txt	MILK	Beverages	11	4	[0, 0, 0]	n/a	catFR1	3	R1515T
452.882	0.8	454875	WORD_OFF	n/a	n/a	MILK	Beverages	11	4	[0, 0, 0]	n/a	catFR1	3	R1515T
453.682	1.618	455671	WORD	n/a	wordpools/wordpool_categorized_EN.txt	RUM	Beverages	12	4	[0, 0, 0]	n/a	catFR1	3	R1515T
455.3	0.001	457294	PROB	3.816	n/a	n/a	n/a	-999	4	[1, 1, 4]	6.0	catFR1	3	R1515T
455.301	0.0	457295	START	n/a	n/a	n/a	n/a	-999	4	[-999, -999, -999]	n/a	catFR1	3	R1515T
455.299	0.002	457301	WORD_OFF	n/a	n/a	RUM	Beverages	12	4	[0, 0, 0]	n/a	catFR1	3	R1515T
455.301	0.0	457301	ENCODING_END	n/a	n/a	n/a	n/a	-999	4	[0, 0, 0]	n/a	catFR1	3	R1515T
455.301	3.832	457301	DISTRACT_START	n/a	n/a	n/a	n/a	-999	4	[0, 0, 0]	n/a	catFR1	3	R1515T
459.133	2.966	461127	PROB	2.949	n/a	n/a	n/a	-999	4	[7, 4, 7]	18.0	catFR1	3	R1515T
462.099	4.183	464093	PROB	4.166	n/a	n/a	n/a	-999	4	[5, 4, 8]	17.0	catFR1	3	R1515T
466.282	2.517	468276	PROB	2.5	n/a	n/a	n/a	-999	4	[2, 3, 5]	10.0	catFR1	3	R1515T
468.799	2.667	470792	PROB	2.65	n/a	n/a	n/a	-999	4	[1, 4, 2]	7.0	catFR1	3	R1515T
471.466	3.433	473459	PROB	3.416	n/a	n/a	n/a	-999	4	[2, 2, 5]	9.0	catFR1	3	R1515T
474.899	3.116	476892	PROB	3.1	n/a	n/a	n/a	-999	4	[2, 4, 3]	9.0	catFR1	3	R1515T
478.015	0.0	480008	STOP	n/a	n/a	n/a	n/a	-999	4	[-999, -999, -999]	n/a	catFR1	3	R1515T
478.015	2.134	480009	DISTRACT_END	n/a	n/a	n/a	n/a	-999	4	[0, 0, 0]	n/a	catFR1	3	R1515T
480.149	0.328	482139	REC_START	n/a	n/a	n/a	n/a	-999	4	[0, 0, 0]	n/a	catFR1	3	R1515T
480.477	1.0	482470	REC_WORD	0.328	n/a	COBBLER	Desserts	9	4	[0, 0, 0]	n/a	catFR1	3	R1515T
481.477	0.566	483470	REC_WORD	1.328	n/a	COBBLER	Desserts	9	4	[0, 0, 0]	n/a	catFR1	3	R1515T
482.043	1.0	484036	REC_WORD	1.894	n/a	PIE	Desserts	5	4	[0, 0, 0]	n/a	catFR1	3	R1515T
483.043	1.246	485036	REC_WORD	2.894	n/a	PIE	Desserts	5	4	[0, 0, 0]	n/a	catFR1	3	R1515T
484.289	1.809	486282	REC_WORD	4.14	n/a	PUDDING	n/a	-999	4	[0, 0, 0]	n/a	catFR1	3	R1515T
486.098	0.789	488091	REC_WORD	5.949	n/a	STAPLER	OfficeSupplies	2	4	[0, 0, 0]	n/a	catFR1	3	R1515T
486.887	0.731	488880	REC_WORD	6.738	n/a	RULER	OfficeSupplies	8	4	[0, 0, 0]	n/a	catFR1	3	R1515T
487.618	3.891	489611	REC_WORD	7.469	n/a	PEN	OfficeSupplies	7	4	[0, 0, 0]	n/a	catFR1	3	R1515T
491.509	0.352	493501	REC_WORD	11.36	n/a	STAPLER	OfficeSupplies	2	4	[0, 0, 0]	n/a	catFR1	3	R1515T
491.861	0.407	493853	REC_WORD	11.712	n/a	RULER	OfficeSupplies	8	4	[0, 0, 0]	n/a	catFR1	3	R1515T
492.268	11.09	494260	REC_WORD	12.119	n/a	PEN	OfficeSupplies	7	4	[0, 0, 0]	n/a	catFR1	3	R1515T
503.358	1.0	505350	REC_WORD_VV	23.209	n/a	<>	n/a	-999	4	[0, 0, 0]	n/a	catFR1	3	R1515T
504.358	1.0	506350	REC_WORD_VV	24.209	n/a	<>	n/a	-999	4	[0, 0, 0]	n/a	catFR1	3	R1515T
505.358	5.043	507350	REC_WORD_VV	25.209	n/a	<>	n/a	-999	4	[0, 0, 0]	n/a	catFR1	3	R1515T
510.401	1.181	512392	REC_END	n/a	n/a	n/a	n/a	-999	4	[0, 0, 0]	n/a	catFR1	3	R1515T
511.582	10.35	513570	COUNTDOWN_START	n/a	n/a	n/a	n/a	-999	5	[0, 0, 0]	n/a	catFR1	3	R1515T
521.932	0.0	523923	COUNTDOWN_END	n/a	n/a	n/a	n/a	-999	5	[0, 0, 0]	n/a	catFR1	3	R1515T
521.932	2.183	523923	ENCODING_START	n/a	n/a	n/a	n/a	-999	5	[0, 0, 0]	n/a	catFR1	3	R1515T
524.115	1.601	526103	WORD	n/a	wordpools/wordpool_categorized_EN.txt	CABBAGE	Vegetables	1	5	[0, 0, 0]	n/a	catFR1	3	R1515T
525.716	0.966	527704	WORD_OFF	n/a	n/a	CABBAGE	Vegetables	1	5	[0, 0, 0]	n/a	catFR1	3	R1515T
526.682	1.6	528666	WORD	n/a	wordpools/wordpool_categorized_EN.txt	SPINACH	Vegetables	2	5	[0, 0, 0]	n/a	catFR1	3	R1515T
528.282	0.95	530267	WORD_OFF	n/a	n/a	SPINACH	Vegetables	2	5	[0, 0, 0]	n/a	catFR1	3	R1515T
529.232	1.6	531220	WORD	n/a	wordpools/wordpool_categorized_EN.txt	CYPRESS	Trees	3	5	[0, 0, 0]	n/a	catFR1	3	R1515T
530.832	0.849	532821	WORD_OFF	n/a	n/a	CYPRESS	Trees	3	5	[0, 0, 0]	n/a	catFR1	3	R1515T
531.681	1.602	533666	WORD	n/a	wordpools/wordpool_categorized_EN.txt	WALNUT	Trees	4	5	[0, 0, 0]	n/a	catFR1	3	R1515T
533.283	0.882	535267	WORD_OFF	n/a	n/a	WALNUT	Trees	4	5	[0, 0, 0]	n/a	catFR1	3	R1515T
534.165	1.601	536151	WORD	n/a	wordpools/wordpool_categorized_EN.txt	FOOTBALL	Toys	5	5	[0, 0, 0]	n/a	catFR1	3	R1515T
535.766	0.983	537752	WORD_OFF	n/a	n/a	FOOTBALL	Toys	5	5	[0, 0, 0]	n/a	catFR1	3	R1515T
536.749	1.616	538734	WORD	n/a	wordpools/wordpool_categorized_EN.txt	MARBLES	Toys	6	5	[0, 0, 0]	n/a	catFR1	3	R1515T
538.365	0.984	540354	WORD_OFF	n/a	n/a	MARBLES	Toys	6	5	[0, 0, 0]	n/a	catFR1	3	R1515T
539.349	1.6	541336	WORD	n/a	wordpools/wordpool_categorized_EN.txt	CEDAR	Trees	7	5	[0, 0, 0]	n/a	catFR1	3	R1515T
540.949	1.0	542937	WORD_OFF	n/a	n/a	CEDAR	Trees	7	5	[0, 0, 0]	n/a	catFR1	3	R1515T
541.949	1.6	543939	WORD	n/a	wordpools/wordpool_categorized_EN.txt	MAPLE	Trees	8	5	[0, 0, 0]	n/a	catFR1	3	R1515T
543.549	0.883	545540	WORD_OFF	n/a	n/a	MAPLE	Trees	8	5	[0, 0, 0]	n/a	catFR1	3	R1515T
544.432	1.6	546424	WORD	n/a	wordpools/wordpool_categorized_EN.txt	BALL	Toys	9	5	[0, 0, 0]	n/a	catFR1	3	R1515T
546.032	0.884	548025	WORD_OFF	n/a	n/a	BALL	Toys	9	5	[0, 0, 0]	n/a	catFR1	3	R1515T
546.916	1.616	548899	WORD	n/a	wordpools/wordpool_categorized_EN.txt	BASEBALL	Toys	10	5	[0, 0, 0]	n/a	catFR1	3	R1515T
548.532	0.934	550520	WORD_OFF	n/a	n/a	BASEBALL	Toys	10	5	[0, 0, 0]	n/a	catFR1	3	R1515T
549.466	1.615	551453	WORD	n/a	wordpools/wordpool_categorized_EN.txt	POTATO	Vegetables	11	5	[0, 0, 0]	n/a	catFR1	3	R1515T
551.081	1.001	553065	WORD_OFF	n/a	n/a	POTATO	Vegetables	11	5	[0, 0, 0]	n/a	catFR1	3	R1515T
552.082	1.616	554066	WORD	n/a	wordpools/wordpool_categorized_EN.txt	CELERY	Vegetables	12	5	[0, 0, 0]	n/a	catFR1	3	R1515T
553.698	0.002	555686	WORD_OFF	n/a	n/a	CELERY	Vegetables	12	5	[0, 0, 0]	n/a	catFR1	3	R1515T
553.7	0.0	555686	ENCODING_END	n/a	n/a	n/a	n/a	-999	5	[0, 0, 0]	n/a	catFR1	3	R1515T
553.7	0.0	555686	DISTRACT_START	n/a	n/a	n/a	n/a	-999	5	[0, 0, 0]	n/a	catFR1	3	R1515T
553.698	0.002	555687	PROB	5.634	n/a	n/a	n/a	-999	5	[6, 2, 5]	13.0	catFR1	3	R1515T
553.7	5.649	555689	START	n/a	n/a	n/a	n/a	-999	5	[-999, -999, -999]	n/a	catFR1	3	R1515T
559.349	7.55	561338	PROB	7.533	n/a	n/a	n/a	-999	5	[4, 8, 7]	19.0	catFR1	3	R1515T
566.899	6.183	568888	PROB	6.166	n/a	n/a	n/a	-999	5	[3, 7, 4]	14.0	catFR1	3	R1515T
573.082	11.499	575070	PROB	11.483	n/a	n/a	n/a	-999	5	[3, 2, 6]	11.0	catFR1	3	R1515T
584.581	0.0	586566	DISTRACT_END	n/a	n/a	n/a	n/a	-999	5	[0, 0, 0]	n/a	catFR1	3	R1515T
584.581	2.084	586569	STOP	n/a	n/a	n/a	n/a	-999	5	[-999, -999, -999]	n/a	catFR1	3	R1515T
586.665	1.788	588646	REC_START	n/a	n/a	n/a	n/a	-999	5	[0, 0, 0]	n/a	catFR1	3	R1515T
588.453	0.154	590440	REC_WORD_VV	1.788	n/a	<>	n/a	-999	5	[0, 0, 0]	n/a	catFR1	3	R1515T
588.607	0.825	590594	REC_WORD	1.942	n/a	CYPRESS	Trees	3	5	[0, 0, 0]	n/a	catFR1	3	R1515T
589.432	1.0	591419	REC_WORD	2.767	n/a	WALNUT	Trees	4	5	[0, 0, 0]	n/a	catFR1	3	R1515T
590.432	1.971	592419	REC_WORD	3.767	n/a	WALNUT	Trees	4	5	[0, 0, 0]	n/a	catFR1	3	R1515T
592.403	0.999	594390	REC_WORD_VV	5.738	n/a	<>	n/a	-999	5	[0, 0, 0]	n/a	catFR1	3	R1515T
593.402	0.155	595389	REC_WORD_VV	6.737	n/a	<>	n/a	-999	5	[0, 0, 0]	n/a	catFR1	3	R1515T
593.557	1.0	595544	REC_WORD	6.892	n/a	POTATOES	n/a	-999	5	[0, 0, 0]	n/a	catFR1	3	R1515T
594.557	0.034	596544	REC_WORD	7.892	n/a	POTATOES	n/a	-999	5	[0, 0, 0]	n/a	catFR1	3	R1515T
594.591	1.0	596578	REC_WORD	7.926	n/a	CELERY	Vegetables	12	5	[0, 0, 0]	n/a	catFR1	3	R1515T
595.591	4.638	597578	REC_WORD	8.926	n/a	CELERY	Vegetables	12	5	[0, 0, 0]	n/a	catFR1	3	R1515T
600.229	1.0	602216	REC_WORD	13.564	n/a	CHERRY	n/a	-999	5	[0, 0, 0]	n/a	catFR1	3	R1515T
601.229	4.704	603216	REC_WORD	14.564	n/a	CHERRY	n/a	-999	5	[0, 0, 0]	n/a	catFR1	3	R1515T
605.933	1.47	607920	REC_WORD	19.268	n/a	MAPLE	Trees	8	5	[0, 0, 0]	n/a	catFR1	3	R1515T
607.403	4.581	609390	REC_WORD	20.738	n/a	OAK	n/a	-999	5	[0, 0, 0]	n/a	catFR1	3	R1515T
611.984	0.318	613970	REC_WORD_VV	25.319	n/a	<>	n/a	-999	5	[0, 0, 0]	n/a	catFR1	3	R1515T
612.302	0.769	614288	REC_WORD	25.637	n/a	WALNUT	Trees	4	5	[0, 0, 0]	n/a	catFR1	3	R1515T
613.071	3.811	615057	REC_WORD_VV	26.406	n/a	<>	n/a	-999	5	[0, 0, 0]	n/a	catFR1	3	R1515T
616.882	1.683	618870	REC_END	n/a	n/a	n/a	n/a	-999	5	[0, 0, 0]	n/a	catFR1	3	R1515T
618.565	10.35	620549	COUNTDOWN_START	n/a	n/a	n/a	n/a	-999	6	[0, 0, 0]	n/a	catFR1	3	R1515T
628.915	0.0	630901	COUNTDOWN_END	n/a	n/a	n/a	n/a	-999	6	[0, 0, 0]	n/a	catFR1	3	R1515T
628.915	2.284	630901	ENCODING_START	n/a	n/a	n/a	n/a	-999	6	[0, 0, 0]	n/a	catFR1	3	R1515T
631.199	1.616	633180	WORD	n/a	wordpools/wordpool_categorized_EN.txt	BARBIE	Toys	1	6	[0, 0, 0]	n/a	catFR1	3	R1515T
632.815	0.883	634801	WORD_OFF	n/a	n/a	BARBIE	Toys	1	6	[0, 0, 0]	n/a	catFR1	3	R1515T
633.698	1.601	635684	WORD	n/a	wordpools/wordpool_categorized_EN.txt	DOLLHOUSE	Toys	2	6	[0, 0, 0]	n/a	catFR1	3	R1515T
635.299	0.817	637285	WORD_OFF	n/a	n/a	DOLLHOUSE	Toys	2	6	[0, 0, 0]	n/a	catFR1	3	R1515T
636.116	1.616	638101	WORD	n/a	wordpools/wordpool_categorized_EN.txt	LEMONADE	Beverages	3	6	[0, 0, 0]	n/a	catFR1	3	R1515T
637.732	0.883	639711	WORD_OFF	n/a	n/a	LEMONADE	Beverages	3	6	[0, 0, 0]	n/a	catFR1	3	R1515T
638.615	1.6	640595	WORD	n/a	wordpools/wordpool_categorized_EN.txt	JUICE	Beverages	4	6	[0, 0, 0]	n/a	catFR1	3	R1515T
640.215	0.901	642196	WORD_OFF	n/a	n/a	JUICE	Beverages	4	6	[0, 0, 0]	n/a	catFR1	3	R1515T
641.116	1.616	643100	WORD	n/a	wordpools/wordpool_categorized_EN.txt	HEN	FarmAnimals	5	6	[0, 0, 0]	n/a	catFR1	3	R1515T
642.732	0.917	644711	WORD_OFF	n/a	n/a	HEN	FarmAnimals	5	6	[0, 0, 0]	n/a	catFR1	3	R1515T
643.649	1.6	645634	WORD	n/a	wordpools/wordpool_categorized_EN.txt	LAMB	FarmAnimals	6	6	[0, 0, 0]	n/a	catFR1	3	R1515T
645.249	0.9	647235	WORD_OFF	n/a	n/a	LAMB	FarmAnimals	6	6	[0, 0, 0]	n/a	catFR1	3	R1515T
646.149	1.616	648129	WORD	n/a	wordpools/wordpool_categorized_EN.txt	BASKETBALL	Toys	7	6	[0, 0, 0]	n/a	catFR1	3	R1515T
647.765	0.917	649749	WORD_OFF	n/a	n/a	BASKETBALL	Toys	7	6	[0, 0, 0]	n/a	catFR1	3	R1515T
648.682	1.6	650663	WORD	n/a	wordpools/wordpool_categorized_EN.txt	BLOCKS	Toys	8	6	[0, 0, 0]	n/a	catFR1	3	R1515T
650.282	0.95	652264	WORD_OFF	n/a	n/a	BLOCKS	Toys	8	6	[0, 0, 0]	n/a	catFR1	3	R1515T
651.232	1.617	653216	WORD	n/a	wordpools/wordpool_categorized_EN.txt	BEER	Beverages	9	6	[0, 0, 0]	n/a	catFR1	3	R1515T
652.849	0.767	654827	WORD_OFF	n/a	n/a	BEER	Beverages	9	6	[0, 0, 0]	n/a	catFR1	3	R1515T
653.616	1.616	655593	WORD	n/a	wordpools/wordpool_categorized_EN.txt	WINE	Beverages	10	6	[0, 0, 0]	n/a	catFR1	3	R1515T
655.232	0.883	657214	WORD_OFF	n/a	n/a	WINE	Beverages	10	6	[0, 0, 0]	n/a	catFR1	3	R1515T
656.115	1.601	658098	WORD	n/a	wordpools/wordpool_categorized_EN.txt	SHEEP	FarmAnimals	11	6	[0, 0, 0]	n/a	catFR1	3	R1515T
657.716	0.783	659699	WORD_OFF	n/a	n/a	SHEEP	FarmAnimals	11	6	[0, 0, 0]	n/a	catFR1	3	R1515T
658.499	1.6	660484	WORD	n/a	wordpools/wordpool_categorized_EN.txt	CALF	FarmAnimals	12	6	[0, 0, 0]	n/a	catFR1	3	R1515T
660.099	0.001	662083	PROB	2.949	n/a	n/a	n/a	-999	6	[2, 2, 5]	9.0	catFR1	3	R1515T
660.1	0.0	662084	START	n/a	n/a	n/a	n/a	-999	6	[-999, -999, -999]	n/a	catFR1	3	R1515T
660.099	0.001	662085	WORD_OFF	n/a	n/a	CALF	FarmAnimals	12	6	[0, 0, 0]	n/a	catFR1	3	R1515T
660.1	0.0	662085	ENCODING_END	n/a	n/a	n/a	n/a	-999	6	[0, 0, 0]	n/a	catFR1	3	R1515T
660.1	2.965	662085	DISTRACT_START	n/a	n/a	n/a	n/a	-999	6	[0, 0, 0]	n/a	catFR1	3	R1515T
663.065	2.785	665049	PROB	2.767	n/a	n/a	n/a	-999	6	[3, 3, 2]	8.0	catFR1	3	R1515T
665.85	8.183	667834	PROB	8.166	n/a	n/a	n/a	-999	6	[7, 8, 5]	19.0	catFR1	3	R1515T
674.033	6.099	676016	PROB	6.082	n/a	n/a	n/a	-999	6	[5, 8, 1]	14.0	catFR1	3	R1515T
680.132	0.0	682112	DISTRACT_END	n/a	n/a	n/a	n/a	-999	6	[0, 0, 0]	n/a	catFR1	3	R1515T
680.132	2.133	682115	STOP	n/a	n/a	n/a	n/a	-999	6	[-999, -999, -999]	n/a	catFR1	3	R1515T
682.265	0.463	684242	REC_START	n/a	n/a	n/a	n/a	-999	6	[0, 0, 0]	n/a	catFR1	3	R1515T
682.728	0.674	684711	REC_WORD	0.463	n/a	SHEEP	FarmAnimals	11	6	[0, 0, 0]	n/a	catFR1	3	R1515T
683.402	0.494	685385	REC_WORD	1.137	n/a	LAMB	FarmAnimals	6	6	[0, 0, 0]	n/a	catFR1	3	R1515T
683.896	1.0	685879	REC_WORD	1.631	n/a	HEN	FarmAnimals	5	6	[0, 0, 0]	n/a	catFR1	3	R1515T
684.896	1.045	686879	REC_WORD	2.631	n/a	HEN	FarmAnimals	5	6	[0, 0, 0]	n/a	catFR1	3	R1515T
685.941	0.734	687924	REC_WORD	3.676	n/a	WATER	Beverages	-999	6	[0, 0, 0]	n/a	catFR1	3	R1515T
686.675	1.0	688657	REC_WORD	4.41	n/a	WINE	Beverages	10	6	[0, 0, 0]	n/a	catFR1	3	R1515T
687.675	1.989	689657	REC_WORD	5.41	n/a	WINE	Beverages	10	6	[0, 0, 0]	n/a	catFR1	3	R1515T
689.664	0.964	691646	REC_WORD	7.399	n/a	COLA	Beverages	-999	6	[0, 0, 0]	n/a	catFR1	3	R1515T
690.628	1.0	692610	REC_WORD_VV	8.363	n/a	<>	n/a	-999	6	[0, 0, 0]	n/a	catFR1	3	R1515T
691.628	0.198	693610	REC_WORD_VV	9.363	n/a	<>	n/a	-999	6	[0, 0, 0]	n/a	catFR1	3	R1515T
691.826	4.585	693808	REC_WORD	9.561	n/a	TEA	Beverages	-999	6	[0, 0, 0]	n/a	catFR1	3	R1515T
696.411	1.0	698393	REC_WORD_VV	14.146	n/a	<>	n/a	-999	6	[0, 0, 0]	n/a	catFR1	3	R1515T
697.411	7.84	699393	REC_WORD_VV	15.146	n/a	<>	n/a	-999	6	[0, 0, 0]	n/a	catFR1	3	R1515T
705.251	0.852	707233	REC_WORD_VV	22.986	n/a	<>	n/a	-999	6	[0, 0, 0]	n/a	catFR1	3	R1515T
706.103	1.0	708085	REC_WORD	23.838	n/a	BASEBALL	Toys	-999	6	[0, 0, 0]	n/a	catFR1	3	R1515T
707.103	1.342	709084	REC_WORD	24.838	n/a	BASEBALL	Toys	-999	6	[0, 0, 0]	n/a	catFR1	3	R1515T
708.445	1.0	710426	REC_WORD_VV	26.18	n/a	<>	n/a	-999	6	[0, 0, 0]	n/a	catFR1	3	R1515T
709.445	0.201	711426	REC_WORD_VV	27.18	n/a	<>	n/a	-999	6	[0, 0, 0]	n/a	catFR1	3	R1515T
709.646	0.757	711627	REC_WORD	27.381	n/a	BARBIE	Toys	1	6	[0, 0, 0]	n/a	catFR1	3	R1515T
710.403	1.0	712384	REC_WORD	28.138	n/a	DOLLHOUSE	Toys	2	6	[0, 0, 0]	n/a	catFR1	3	R1515T
711.403	1.098	713384	REC_WORD	29.138	n/a	DOLLHOUSE	Toys	2	6	[0, 0, 0]	n/a	catFR1	3	R1515T
712.501	1.648	714485	REC_END	n/a	n/a	n/a	n/a	-999	6	[0, 0, 0]	n/a	catFR1	3	R1515T
714.149	10.35	716135	COUNTDOWN_START	n/a	n/a	n/a	n/a	-999	7	[0, 0, 0]	n/a	catFR1	3	R1515T
724.499	0.0	726477	COUNTDOWN_END	n/a	n/a	n/a	n/a	-999	7	[0, 0, 0]	n/a	catFR1	3	R1515T
724.499	2.0	726477	ENCODING_START	n/a	n/a	n/a	n/a	-999	7	[0, 0, 0]	n/a	catFR1	3	R1515T
726.499	1.616	728481	WORD	n/a	wordpools/wordpool_categorized_EN.txt	EYE	BodyParts	1	7	[0, 0, 0]	n/a	catFR1	3	R1515T
728.115	0.967	730091	WORD_OFF	n/a	n/a	EYE	BodyParts	1	7	[0, 0, 0]	n/a	catFR1	3	R1515T
729.082	1.6	731064	WORD	n/a	wordpools/wordpool_categorized_EN.txt	NOSE	BodyParts	2	7	[0, 0, 0]	n/a	catFR1	3	R1515T
730.682	0.867	732665	WORD_OFF	n/a	n/a	NOSE	BodyParts	2	7	[0, 0, 0]	n/a	catFR1	3	R1515T
731.549	1.6	733529	WORD	n/a	wordpools/wordpool_categorized_EN.txt	DRILL	Tools	3	7	[0, 0, 0]	n/a	catFR1	3	R1515T
733.149	0.833	735130	WORD_OFF	n/a	n/a	DRILL	Tools	3	7	[0, 0, 0]	n/a	catFR1	3	R1515T
733.982	1.617	735965	WORD	n/a	wordpools/wordpool_categorized_EN.txt	RATCHET	Tools	4	7	[0, 0, 0]	n/a	catFR1	3	R1515T
735.599	0.85	737576	WORD_OFF	n/a	n/a	RATCHET	Tools	4	7	[0, 0, 0]	n/a	catFR1	3	R1515T
736.449	1.617	738430	WORD	n/a	wordpools/wordpool_categorized_EN.txt	MOUSSE	Desserts	5	7	[0, 0, 0]	n/a	catFR1	3	R1515T
738.066	0.833	740041	WORD_OFF	n/a	n/a	MOUSSE	Desserts	5	7	[0, 0, 0]	n/a	catFR1	3	R1515T
738.899	1.617	740876	WORD	n/a	wordpools/wordpool_categorized_EN.txt	CAKE	Desserts	6	7	[0, 0, 0]	n/a	catFR1	3	R1515T
740.516	0.833	742496	WORD_OFF	n/a	n/a	CAKE	Desserts	6	7	[0, 0, 0]	n/a	catFR1	3	R1515T
741.349	1.616	743331	WORD	n/a	wordpools/wordpool_categorized_EN.txt	FOOT	BodyParts	7	7	[0, 0, 0]	n/a	catFR1	3	R1515T
742.965	0.767	744942	WORD_OFF	n/a	n/a	FOOT	BodyParts	7	7	[0, 0, 0]	n/a	catFR1	3	R1515T
743.732	1.617	745708	WORD	n/a	wordpools/wordpool_categorized_EN.txt	HAND	BodyParts	8	7	[0, 0, 0]	n/a	catFR1	3	R1515T
745.349	0.9	747329	WORD_OFF	n/a	n/a	HAND	BodyParts	8	7	[0, 0, 0]	n/a	catFR1	3	R1515T
746.249	1.617	748222	WORD	n/a	wordpools/wordpool_categorized_EN.txt	CUPCAKE	Desserts	9	7	[0, 0, 0]	n/a	catFR1	3	R1515T
747.866	0.998	749843	WORD_OFF	n/a	n/a	CUPCAKE	Desserts	9	7	[0, 0, 0]	n/a	catFR1	3	R1515T
748.864	1.602	750845	WORD	n/a	wordpools/wordpool_categorized_EN.txt	COOKIE	Desserts	10	7	[0, 0, 0]	n/a	catFR1	3	R1515T
750.466	0.8	752446	WORD_OFF	n/a	n/a	COOKIE	Desserts	10	7	[0, 0, 0]	n/a	catFR1	3	R1515T
751.266	1.616	753241	WORD	n/a	wordpools/wordpool_categorized_EN.txt	SCREWDRIVER	Tools	11	7	[0, 0, 0]	n/a	catFR1	3	R1515T
752.882	0.884	754862	WORD_OFF	n/a	n/a	SCREWDRIVER	Tools	11	7	[0, 0, 0]	n/a	catFR1	3	R1515T
753.766	1.6	755746	WORD	n/a	wordpools/wordpool_categorized_EN.txt	AXE	Tools	12	7	[0, 0, 0]	n/a	catFR1	3	R1515T
755.366	0.001	757345	PROB	3.533	n/a	n/a	n/a	-999	7	[4, 4, 4]	12.0	catFR1	3	R1515T
755.367	0.0	757346	START	n/a	n/a	n/a	n/a	-999	7	[-999, -999, -999]	n/a	catFR1	3	R1515T
755.366	0.001	757347	WORD_OFF	n/a	n/a	AXE	Tools	12	7	[0, 0, 0]	n/a	catFR1	3	R1515T
755.367	0.0	757347	ENCODING_END	n/a	n/a	n/a	n/a	-999	7	[0, 0, 0]	n/a	catFR1	3	R1515T
755.367	3.549	757347	DISTRACT_START	n/a	n/a	n/a	n/a	-999	7	[0, 0, 0]	n/a	catFR1	3	R1515T
758.916	4.1	760895	PROB	4.082	n/a	n/a	n/a	-999	7	[6, 3, 1]	10.0	catFR1	3	R1515T
763.016	3.184	764995	PROB	3.166	n/a	n/a	n/a	-999	7	[3, 1, 3]	7.0	catFR1	3	R1515T
766.2	2.366	768178	PROB	2.348	n/a	n/a	n/a	-999	7	[5, 3, 8]	16.0	catFR1	3	R1515T
768.566	2.467	770544	PROB	2.449	n/a	n/a	n/a	-999	7	[2, 7, 7]	16.0	catFR1	3	R1515T
771.033	8.683	773011	PROB	8.666	n/a	n/a	n/a	-999	7	[4, 2, 7]	13.0	catFR1	3	R1515T
779.716	0.0	781694	STOP	n/a	n/a	n/a	n/a	-999	7	[-999, -999, -999]	n/a	catFR1	3	R1515T
779.716	2.266	781695	DISTRACT_END	n/a	n/a	n/a	n/a	-999	7	[0, 0, 0]	n/a	catFR1	3	R1515T
781.982	0.124	783962	REC_START	n/a	n/a	n/a	n/a	-999	7	[0, 0, 0]	n/a	catFR1	3	R1515T
782.106	1.0	784084	REC_WORD	0.124	n/a	RATCHET	Tools	4	7	[0, 0, 0]	n/a	catFR1	3	R1515T
783.106	0.993	785084	REC_WORD	1.124	n/a	RATCHET	Tools	4	7	[0, 0, 0]	n/a	catFR1	3	R1515T
784.099	1.0	786077	REC_WORD_VV	2.117	n/a	<>	n/a	-999	7	[0, 0, 0]	n/a	catFR1	3	R1515T
785.099	0.762	787077	REC_WORD_VV	3.117	n/a	<>	n/a	-999	7	[0, 0, 0]	n/a	catFR1	3	R1515T
785.861	1.0	787838	REC_WORD	3.879	n/a	SCREWDRIVER	Tools	11	7	[0, 0, 0]	n/a	catFR1	3	R1515T
786.861	1.257	788838	REC_WORD	4.879	n/a	SCREWDRIVER	Tools	11	7	[0, 0, 0]	n/a	catFR1	3	R1515T
788.118	0.956	790095	REC_WORD	6.136	n/a	MOUSSE	Desserts	5	7	[0, 0, 0]	n/a	catFR1	3	R1515T
789.074	0.894	791051	REC_WORD	7.092	n/a	CAKE	Desserts	6	7	[0, 0, 0]	n/a	catFR1	3	R1515T
789.968	4.135	791945	REC_WORD	7.986	n/a	COOKIE	Desserts	10	7	[0, 0, 0]	n/a	catFR1	3	R1515T
794.103	1.573	796080	REC_WORD_VV	12.121	n/a	<>	n/a	-999	7	[0, 0, 0]	n/a	catFR1	3	R1515T
795.676	0.311	797653	REC_WORD	13.694	n/a	MOUSSE	Desserts	5	7	[0, 0, 0]	n/a	catFR1	3	R1515T
795.987	0.299	797964	REC_WORD	14.005	n/a	CAKE	Desserts	6	7	[0, 0, 0]	n/a	catFR1	3	R1515T
796.286	2.305	798263	REC_WORD	14.304	n/a	COOKIE	Desserts	10	7	[0, 0, 0]	n/a	catFR1	3	R1515T
798.591	11.895	800568	REC_WORD_VV	16.609	n/a	<>	n/a	-999	7	[0, 0, 0]	n/a	catFR1	3	R1515T
810.486	1.761	812462	REC_WORD_VV	28.504	n/a	<>	n/a	-999	7	[0, 0, 0]	n/a	catFR1	3	R1515T
812.247	2.502	814225	REC_END	n/a	n/a	n/a	n/a	-999	7	[0, 0, 0]	n/a	catFR1	3	R1515T
814.749	10.349	816729	COUNTDOWN_START	n/a	n/a	n/a	n/a	-999	8	[0, 0, 0]	n/a	catFR1	3	R1515T
825.098	0.0	827072	COUNTDOWN_END	n/a	n/a	n/a	n/a	-999	8	[0, 0, 0]	n/a	catFR1	3	R1515T
825.098	2.083	827072	ENCODING_START	n/a	n/a	n/a	n/a	-999	8	[0, 0, 0]	n/a	catFR1	3	R1515T
827.181	1.601	829154	WORD	n/a	wordpools/wordpool_categorized_EN.txt	TELEVISION	Electronics	1	8	[0, 0, 0]	n/a	catFR1	3	R1515T
828.782	0.883	830755	WORD_OFF	n/a	n/a	TELEVISION	Electronics	1	8	[0, 0, 0]	n/a	catFR1	3	R1515T
829.665	1.615	831639	WORD	n/a	wordpools/wordpool_categorized_EN.txt	MICROWAVE	Electronics	2	8	[0, 0, 0]	n/a	catFR1	3	R1515T
831.28	0.902	833250	WORD_OFF	n/a	n/a	MICROWAVE	Electronics	2	8	[0, 0, 0]	n/a	catFR1	3	R1515T
832.182	1.6	834153	WORD	n/a	wordpools/wordpool_categorized_EN.txt	KNEE	BodyParts	3	8	[0, 0, 0]	n/a	catFR1	3	R1515T
833.782	0.784	835754	WORD_OFF	n/a	n/a	KNEE	BodyParts	3	8	[0, 0, 0]	n/a	catFR1	3	R1515T
834.566	1.6	836540	WORD	n/a	wordpools/wordpool_categorized_EN.txt	LEG	BodyParts	4	8	[0, 0, 0]	n/a	catFR1	3	R1515T
836.166	0.766	838141	WORD_OFF	n/a	n/a	LEG	BodyParts	4	8	[0, 0, 0]	n/a	catFR1	3	R1515T
836.932	1.617	838907	WORD	n/a	wordpools/wordpool_categorized_EN.txt	CABINET	Furniture	5	8	[0, 0, 0]	n/a	catFR1	3	R1515T
838.549	0.917	840518	WORD_OFF	n/a	n/a	CABINET	Furniture	5	8	[0, 0, 0]	n/a	catFR1	3	R1515T
839.466	1.616	841441	WORD	n/a	wordpools/wordpool_categorized_EN.txt	NIGHTSTAND	Furniture	6	8	[0, 0, 0]	n/a	catFR1	3	R1515T
841.082	0.767	843052	WORD_OFF	n/a	n/a	NIGHTSTAND	Furniture	6	8	[0, 0, 0]	n/a	catFR1	3	R1515T
841.849	1.6	843827	WORD	n/a	wordpools/wordpool_categorized_EN.txt	ARM	BodyParts	7	8	[0, 0, 0]	n/a	catFR1	3	R1515T
843.449	0.85	845419	WORD_OFF	n/a	n/a	ARM	BodyParts	7	8	[0, 0, 0]	n/a	catFR1	3	R1515T
844.299	1.6	846273	WORD	n/a	wordpools/wordpool_categorized_EN.txt	TOE	BodyParts	8	8	[0, 0, 0]	n/a	catFR1	3	R1515T
845.899	0.817	847874	WORD_OFF	n/a	n/a	TOE	BodyParts	8	8	[0, 0, 0]	n/a	catFR1	3	R1515T
846.716	1.616	848689	WORD	n/a	wordpools/wordpool_categorized_EN.txt	DRESSER	Furniture	9	8	[0, 0, 0]	n/a	catFR1	3	R1515T
848.332	0.999	850300	WORD_OFF	n/a	n/a	DRESSER	Furniture	9	8	[0, 0, 0]	n/a	catFR1	3	R1515T
849.331	1.6	851302	WORD	n/a	wordpools/wordpool_categorized_EN.txt	CHAIR	Furniture	10	8	[0, 0, 0]	n/a	catFR1	3	R1515T
850.931	0.818	852903	WORD_OFF	n/a	n/a	CHAIR	Furniture	10	8	[0, 0, 0]	n/a	catFR1	3	R1515T
851.749	1.617	853718	WORD	n/a	wordpools/wordpool_categorized_EN.txt	HEADPHONES	Electronics	11	8	[0, 0, 0]	n/a	catFR1	3	R1515T
853.366	0.931	855339	WORD_OFF	n/a	n/a	HEADPHONES	Electronics	11	8	[0, 0, 0]	n/a	catFR1	3	R1515T
854.297	1.602	856272	WORD	n/a	wordpools/wordpool_categorized_EN.txt	STEREO	Electronics	12	8	[0, 0, 0]	n/a	catFR1	3	R1515T
855.899	0.002	857873	WORD_OFF	n/a	n/a	STEREO	Electronics	12	8	[0, 0, 0]	n/a	catFR1	3	R1515T
855.901	0.0	857873	ENCODING_END	n/a	n/a	n/a	n/a	-999	8	[0, 0, 0]	n/a	catFR1	3	R1515T
855.901	0.0	857873	DISTRACT_START	n/a	n/a	n/a	n/a	-999	8	[0, 0, 0]	n/a	catFR1	3	R1515T
855.899	0.002	857873	PROB	2.649	n/a	n/a	n/a	-999	8	[5, 8, 5]	18.0	catFR1	3	R1515T
855.901	2.665	857875	START	n/a	n/a	n/a	n/a	-999	8	[-999, -999, -999]	n/a	catFR1	3	R1515T
858.566	2.267	860540	PROB	2.25	n/a	n/a	n/a	-999	8	[2, 4, 1]	7.0	catFR1	3	R1515T
860.833	2.033	862807	PROB	2.016	n/a	n/a	n/a	-999	8	[3, 1, 3]	7.0	catFR1	3	R1515T
862.866	3.084	864840	PROB	3.065	n/a	n/a	n/a	-999	8	[6, 6, 4]	16.0	catFR1	3	R1515T
865.95	3.549	867923	PROB	3.533	n/a	n/a	n/a	-999	8	[6, 1, 8]	15.0	catFR1	3	R1515T
869.499	3.5	871472	PROB	3.483	n/a	n/a	n/a	-999	8	[1, 6, 3]	10.0	catFR1	3	R1515T
872.999	3.717	874972	PROB	3.7	n/a	n/a	n/a	-999	8	[3, 4, 2]	9.0	catFR1	3	R1515T
876.716	0.0	878685	DISTRACT_END	n/a	n/a	n/a	n/a	-999	8	[0, 0, 0]	n/a	catFR1	3	R1515T
876.716	2.199	878689	STOP	n/a	n/a	n/a	n/a	-999	8	[-999, -999, -999]	n/a	catFR1	3	R1515T
878.915	0.491	880883	REC_START	n/a	n/a	n/a	n/a	-999	8	[0, 0, 0]	n/a	catFR1	3	R1515T
879.406	0.925	881379	REC_WORD	0.491	n/a	NIGHTSTAND	Furniture	6	8	[0, 0, 0]	n/a	catFR1	3	R1515T
880.331	0.77	882304	REC_WORD	1.416	n/a	DRESSER	Furniture	9	8	[0, 0, 0]	n/a	catFR1	3	R1515T
881.101	1.0	883074	REC_WORD	2.186	n/a	HEADPHONES	Electronics	11	8	[0, 0, 0]	n/a	catFR1	3	R1515T
882.101	0.099	884074	REC_WORD	3.186	n/a	HEADPHONES	Electronics	11	8	[0, 0, 0]	n/a	catFR1	3	R1515T
882.2	1.0	884173	REC_WORD	3.285	n/a	RADIO	n/a	-999	8	[0, 0, 0]	n/a	catFR1	3	R1515T
883.2	4.653	885173	REC_WORD	4.285	n/a	RADIO	n/a	-999	8	[0, 0, 0]	n/a	catFR1	3	R1515T
887.853	1.0	889825	REC_WORD_VV	8.938	n/a	<>	n/a	-999	8	[0, 0, 0]	n/a	catFR1	3	R1515T
888.853	1.712	890825	REC_WORD_VV	9.938	n/a	<>	n/a	-999	8	[0, 0, 0]	n/a	catFR1	3	R1515T
890.565	1.0	892537	REC_WORD_VV	11.65	n/a	<>	n/a	-999	8	[0, 0, 0]	n/a	catFR1	3	R1515T
891.565	0.102	893537	REC_WORD_VV	12.65	n/a	<>	n/a	-999	8	[0, 0, 0]	n/a	catFR1	3	R1515T
891.667	1.0	893639	REC_WORD	12.752	n/a	CABINET	Furniture	5	8	[0, 0, 0]	n/a	catFR1	3	R1515T
892.667	6.808	894639	REC_WORD	13.752	n/a	CABINET	Furniture	5	8	[0, 0, 0]	n/a	catFR1	3	R1515T
899.475	1.411	901447	REC_WORD	20.56	n/a	EYE	BodyParts	-999	8	[0, 0, 0]	n/a	catFR1	3	R1515T
900.886	3.823	902858	REC_WORD	21.971	n/a	ARM	BodyParts	7	8	[0, 0, 0]	n/a	catFR1	3	R1515T
904.709	0.568	906680	REC_WORD_VV	25.794	n/a	<>	n/a	-999	8	[0, 0, 0]	n/a	catFR1	3	R1515T
905.277	1.0	907248	REC_WORD	26.362	n/a	FOOT	BodyParts	-999	8	[0, 0, 0]	n/a	catFR1	3	R1515T
906.277	2.869	908248	REC_WORD	27.362	n/a	FOOT	BodyParts	-999	8	[0, 0, 0]	n/a	catFR1	3	R1515T
909.146	1.636	911117	REC_END	n/a	n/a	n/a	n/a	-999	8	[0, 0, 0]	n/a	catFR1	3	R1515T
910.782	10.35	912757	COUNTDOWN_START	n/a	n/a	n/a	n/a	-999	9	[0, 0, 0]	n/a	catFR1	3	R1515T
921.132	0.001	923099	COUNTDOWN_END	n/a	n/a	n/a	n/a	-999	9	[0, 0, 0]	n/a	catFR1	3	R1515T
921.133	2.015	923099	ENCODING_START	n/a	n/a	n/a	n/a	-999	9	[0, 0, 0]	n/a	catFR1	3	R1515T
923.148	1.6	925113	WORD	n/a	wordpools/wordpool_categorized_EN.txt	WINDOW	Building	1	9	[0, 0, 0]	n/a	catFR1	3	R1515T
924.748	0.884	926714	WORD_OFF	n/a	n/a	WINDOW	Building	1	9	[0, 0, 0]	n/a	catFR1	3	R1515T
925.632	1.6	927597	WORD	n/a	wordpools/wordpool_categorized_EN.txt	BATHROOM	Building	2	9	[0, 0, 0]	n/a	catFR1	3	R1515T
927.232	0.966	929198	WORD_OFF	n/a	n/a	BATHROOM	Building	2	9	[0, 0, 0]	n/a	catFR1	3	R1515T
928.198	1.601	930171	WORD	n/a	wordpools/wordpool_categorized_EN.txt	HUMIDITY	Weather	3	9	[0, 0, 0]	n/a	catFR1	3	R1515T
929.799	0.916	931772	WORD_OFF	n/a	n/a	HUMIDITY	Weather	3	9	[0, 0, 0]	n/a	catFR1	3	R1515T
930.715	1.601	932685	WORD	n/a	wordpools/wordpool_categorized_EN.txt	THUNDER	Weather	4	9	[0, 0, 0]	n/a	catFR1	3	R1515T
932.316	0.766	934286	WORD_OFF	n/a	n/a	THUNDER	Weather	4	9	[0, 0, 0]	n/a	catFR1	3	R1515T
933.082	1.616	935052	WORD	n/a	wordpools/wordpool_categorized_EN.txt	SEAGULL	Birds	5	9	[0, 0, 0]	n/a	catFR1	3	R1515T
934.698	0.767	936663	WORD_OFF	n/a	n/a	SEAGULL	Birds	5	9	[0, 0, 0]	n/a	catFR1	3	R1515T
935.465	1.601	937429	WORD	n/a	wordpools/wordpool_categorized_EN.txt	GOOSE	Birds	6	9	[0, 0, 0]	n/a	catFR1	3	R1515T
937.066	0.95	939030	WORD_OFF	n/a	n/a	GOOSE	Birds	6	9	[0, 0, 0]	n/a	catFR1	3	R1515T
938.016	1.6	939983	WORD	n/a	wordpools/wordpool_categorized_EN.txt	DRIZZLE	Weather	7	9	[0, 0, 0]	n/a	catFR1	3	R1515T
939.616	0.883	941584	WORD_OFF	n/a	n/a	DRIZZLE	Weather	7	9	[0, 0, 0]	n/a	catFR1	3	R1515T
940.499	1.6	942468	WORD	n/a	wordpools/wordpool_categorized_EN.txt	LIGHTNING	Weather	8	9	[0, 0, 0]	n/a	catFR1	3	R1515T
942.099	0.784	944069	WORD_OFF	n/a	n/a	LIGHTNING	Weather	8	9	[0, 0, 0]	n/a	catFR1	3	R1515T
942.883	1.616	944854	WORD	n/a	wordpools/wordpool_categorized_EN.txt	HALLWAY	Building	9	9	[0, 0, 0]	n/a	catFR1	3	R1515T
944.499	0.9	946465	WORD_OFF	n/a	n/a	HALLWAY	Building	9	9	[0, 0, 0]	n/a	catFR1	3	R1515T
945.399	1.616	947369	WORD	n/a	wordpools/wordpool_categorized_EN.txt	ATTIC	Building	10	9	[0, 0, 0]	n/a	catFR1	3	R1515T
947.015	0.984	948980	WORD_OFF	n/a	n/a	ATTIC	Building	10	9	[0, 0, 0]	n/a	catFR1	3	R1515T
947.999	1.617	949964	WORD	n/a	wordpools/wordpool_categorized_EN.txt	BLUEBIRD	Birds	11	9	[0, 0, 0]	n/a	catFR1	3	R1515T
949.616	0.933	951582	WORD_OFF	n/a	n/a	BLUEBIRD	Birds	11	9	[0, 0, 0]	n/a	catFR1	3	R1515T
950.549	1.617	952515	WORD	n/a	wordpools/wordpool_categorized_EN.txt	HAWK	Birds	12	9	[0, 0, 0]	n/a	catFR1	3	R1515T
952.166	0.0	954135	PROB	3.266	n/a	n/a	n/a	-999	9	[4, 2, 1]	7.0	catFR1	3	R1515T
952.165	0.002	954136	WORD_OFF	n/a	n/a	HAWK	Birds	12	9	[0, 0, 0]	n/a	catFR1	3	R1515T
952.167	0.0	954136	ENCODING_END	n/a	n/a	n/a	n/a	-999	9	[0, 0, 0]	n/a	catFR1	3	R1515T
952.167	0.0	954136	DISTRACT_START	n/a	n/a	n/a	n/a	-999	9	[0, 0, 0]	n/a	catFR1	3	R1515T
952.167	3.283	954136	START	n/a	n/a	n/a	n/a	-999	9	[-999, -999, -999]	n/a	catFR1	3	R1515T
955.45	3.432	957419	PROB	3.416	n/a	n/a	n/a	-999	9	[3, 8, 3]	14.0	catFR1	3	R1515T
958.882	3.534	960851	PROB	3.517	n/a	n/a	n/a	-999	9	[8, 5, 4]	19.0	catFR1	3	R1515T
962.416	2.9	964384	PROB	2.883	n/a	n/a	n/a	-999	9	[5, 3, 8]	16.0	catFR1	3	R1515T
965.316	4.7	967284	PROB	4.683	n/a	n/a	n/a	-999	9	[7, 5, 2]	14.0	catFR1	3	R1515T
970.016	2.034	971984	PROB	2.016	n/a	n/a	n/a	-999	9	[1, 3, 1]	5.0	catFR1	3	R1515T
972.05	3.099	974018	PROB	3.082	n/a	n/a	n/a	-999	9	[3, 1, 4]	8.0	catFR1	3	R1515T
975.149	0.0	977117	STOP	n/a	n/a	n/a	n/a	-999	9	[-999, -999, -999]	n/a	catFR1	3	R1515T
975.149	2.016	977119	DISTRACT_END	n/a	n/a	n/a	n/a	-999	9	[0, 0, 0]	n/a	catFR1	3	R1515T
977.165	3.115	979131	REC_START	n/a	n/a	n/a	n/a	-999	9	[0, 0, 0]	n/a	catFR1	3	R1515T
980.28	1.0	982248	REC_WORD	3.115	n/a	SEAGULL	Birds	5	9	[0, 0, 0]	n/a	catFR1	3	R1515T
981.28	0.453	983248	REC_WORD	4.115	n/a	SEAGULL	Birds	5	9	[0, 0, 0]	n/a	catFR1	3	R1515T
981.733	1.0	983701	REC_WORD	4.568	n/a	HAWK	Birds	12	9	[0, 0, 0]	n/a	catFR1	3	R1515T
982.733	2.058	984700	REC_WORD	5.568	n/a	HAWK	Birds	12	9	[0, 0, 0]	n/a	catFR1	3	R1515T
984.791	0.552	986758	REC_WORD	7.626	n/a	SEAGULL	Birds	5	9	[0, 0, 0]	n/a	catFR1	3	R1515T
985.343	1.0	987310	REC_WORD	8.178	n/a	HAWK	Birds	12	9	[0, 0, 0]	n/a	catFR1	3	R1515T
986.343	2.189	988310	REC_WORD	9.178	n/a	HAWK	Birds	12	9	[0, 0, 0]	n/a	catFR1	3	R1515T
988.532	1.0	990499	REC_WORD_VV	11.367	n/a	<>	n/a	-999	9	[0, 0, 0]	n/a	catFR1	3	R1515T
989.532	2.015	991499	REC_WORD_VV	12.367	n/a	<>	n/a	-999	9	[0, 0, 0]	n/a	catFR1	3	R1515T
991.547	1.0	993514	REC_WORD	14.382	n/a	BATHROOM	Building	2	9	[0, 0, 0]	n/a	catFR1	3	R1515T
992.547	1.235	994514	REC_WORD	15.382	n/a	BATHROOM	Building	2	9	[0, 0, 0]	n/a	catFR1	3	R1515T
993.782	1.0	995749	REC_WORD	16.617	n/a	HALLWAY	Building	9	9	[0, 0, 0]	n/a	catFR1	3	R1515T
994.782	10.578	996749	REC_WORD	17.617	n/a	HALLWAY	Building	9	9	[0, 0, 0]	n/a	catFR1	3	R1515T
1005.36	2.053	1007326	REC_WORD_VV	28.195	n/a	<>	n/a	-999	9	[0, 0, 0]	n/a	catFR1	3	R1515T
1007.413	3.802	1009374	REC_END	n/a	n/a	n/a	n/a	-999	9	[0, 0, 0]	n/a	catFR1	3	R1515T
1011.215	10.35	1013184	COUNTDOWN_START	n/a	n/a	n/a	n/a	-999	10	[0, 0, 0]	n/a	catFR1	3	R1515T
1021.565	0.0	1023527	COUNTDOWN_END	n/a	n/a	n/a	n/a	-999	10	[0, 0, 0]	n/a	catFR1	3	R1515T
1021.565	2.334	1023527	ENCODING_START	n/a	n/a	n/a	n/a	-999	10	[0, 0, 0]	n/a	catFR1	3	R1515T
1023.899	1.6	1025864	WORD	n/a	wordpools/wordpool_categorized_EN.txt	COLANDER	KitchenTools	1	10	[0, 0, 0]	n/a	catFR1	3	R1515T
1025.499	0.766	1027465	WORD_OFF	n/a	n/a	COLANDER	KitchenTools	1	10	[0, 0, 0]	n/a	catFR1	3	R1515T
1026.265	1.616	1028231	WORD	n/a	wordpools/wordpool_categorized_EN.txt	SPATULA	KitchenTools	2	10	[0, 0, 0]	n/a	catFR1	3	R1515T
1027.881	0.984	1029842	WORD_OFF	n/a	n/a	SPATULA	KitchenTools	2	10	[0, 0, 0]	n/a	catFR1	3	R1515T
1028.865	1.6	1030824	WORD	n/a	wordpools/wordpool_categorized_EN.txt	PIGEON	Birds	3	10	[0, 0, 0]	n/a	catFR1	3	R1515T
1030.465	0.867	1032425	WORD_OFF	n/a	n/a	PIGEON	Birds	3	10	[0, 0, 0]	n/a	catFR1	3	R1515T
1031.332	1.617	1033299	WORD	n/a	wordpools/wordpool_categorized_EN.txt	FINCH	Birds	4	10	[0, 0, 0]	n/a	catFR1	3	R1515T
1032.949	0.916	1034910	WORD_OFF	n/a	n/a	FINCH	Birds	4	10	[0, 0, 0]	n/a	catFR1	3	R1515T
1033.865	1.6	1035833	WORD	n/a	wordpools/wordpool_categorized_EN.txt	WILLOW	Trees	5	10	[0, 0, 0]	n/a	catFR1	3	R1515T
1035.465	0.867	1037425	WORD_OFF	n/a	n/a	WILLOW	Trees	5	10	[0, 0, 0]	n/a	catFR1	3	R1515T
1036.332	1.6	1038299	WORD	n/a	wordpools/wordpool_categorized_EN.txt	ELM	Trees	6	10	[0, 0, 0]	n/a	catFR1	3	R1515T
1037.932	0.817	1039900	WORD_OFF	n/a	n/a	ELM	Trees	6	10	[0, 0, 0]	n/a	catFR1	3	R1515T
1038.749	1.6	1040715	WORD	n/a	wordpools/wordpool_categorized_EN.txt	FORK	KitchenTools	7	10	[0, 0, 0]	n/a	catFR1	3	R1515T
1040.349	0.933	1042316	WORD_OFF	n/a	n/a	FORK	KitchenTools	7	10	[0, 0, 0]	n/a	catFR1	3	R1515T
1041.282	1.6	1043249	WORD	n/a	wordpools/wordpool_categorized_EN.txt	CORKSCREW	KitchenTools	8	10	[0, 0, 0]	n/a	catFR1	3	R1515T
1042.882	0.8	1044840	WORD_OFF	n/a	n/a	CORKSCREW	KitchenTools	8	10	[0, 0, 0]	n/a	catFR1	3	R1515T
1043.682	1.6	1045645	WORD	n/a	wordpools/wordpool_categorized_EN.txt	EVERGREEN	Trees	9	10	[0, 0, 0]	n/a	catFR1	3	R1515T
1045.282	0.867	1047246	WORD_OFF	n/a	n/a	EVERGREEN	Trees	9	10	[0, 0, 0]	n/a	catFR1	3	R1515T
1046.149	1.6	1048111	WORD	n/a	wordpools/wordpool_categorized_EN.txt	OAK	Trees	10	10	[0, 0, 0]	n/a	catFR1	3	R1515T
1047.749	0.967	1049712	WORD_OFF	n/a	n/a	OAK	Trees	10	10	[0, 0, 0]	n/a	catFR1	3	R1515T
1048.716	1.6	1050674	WORD	n/a	wordpools/wordpool_categorized_EN.txt	DOVE	Birds	11	10	[0, 0, 0]	n/a	catFR1	3	R1515T
1050.316	0.783	1052275	WORD_OFF	n/a	n/a	DOVE	Birds	11	10	[0, 0, 0]	n/a	catFR1	3	R1515T
1051.099	1.617	1053061	WORD	n/a	wordpools/wordpool_categorized_EN.txt	DUCK	Birds	12	10	[0, 0, 0]	n/a	catFR1	3	R1515T
1052.716	0.0	1054680	PROB	4.083	n/a	n/a	n/a	-999	10	[2, 8, 7]	17.0	catFR1	3	R1515T
1052.716	0.001	1054681	WORD_OFF	n/a	n/a	DUCK	Birds	12	10	[0, 0, 0]	n/a	catFR1	3	R1515T
1052.717	0.0	1054681	ENCODING_END	n/a	n/a	n/a	n/a	-999	10	[0, 0, 0]	n/a	catFR1	3	R1515T
1052.717	0.0	1054681	DISTRACT_START	n/a	n/a	n/a	n/a	-999	10	[0, 0, 0]	n/a	catFR1	3	R1515T
1052.717	4.099	1054681	START	n/a	n/a	n/a	n/a	-999	10	[-999, -999, -999]	n/a	catFR1	3	R1515T
1056.816	4.05	1058780	PROB	4.033	n/a	n/a	n/a	-999	10	[1, 4, 2]	7.0	catFR1	3	R1515T
1060.866	4.233	1062829	PROB	4.216	n/a	n/a	n/a	-999	10	[5, 8, 3]	16.0	catFR1	3	R1515T
1065.099	11.75	1067062	PROB	11.733	n/a	n/a	n/a	-999	10	[6, 8, 7]	21.0	catFR1	3	R1515T
1076.849	0.0	1078812	STOP	n/a	n/a	n/a	n/a	-999	10	[-999, -999, -999]	n/a	catFR1	3	R1515T
1076.849	2.25	1078814	DISTRACT_END	n/a	n/a	n/a	n/a	-999	10	[0, 0, 0]	n/a	catFR1	3	R1515T
1079.099	4.282	1081061	REC_START	n/a	n/a	n/a	n/a	-999	10	[0, 0, 0]	n/a	catFR1	3	R1515T
1083.381	1.0	1085343	REC_WORD_VV	4.282	n/a	<>	n/a	-999	10	[0, 0, 0]	n/a	catFR1	3	R1515T
1084.381	1.28	1086343	REC_WORD_VV	5.282	n/a	<>	n/a	-999	10	[0, 0, 0]	n/a	catFR1	3	R1515T
1085.661	1.0	1087623	REC_WORD_VV	6.562	n/a	<>	n/a	-999	10	[0, 0, 0]	n/a	catFR1	3	R1515T
1086.661	2.444	1088623	REC_WORD_VV	7.562	n/a	<>	n/a	-999	10	[0, 0, 0]	n/a	catFR1	3	R1515T
1089.105	0.26	1091067	REC_WORD_VV	10.006	n/a	<>	n/a	-999	10	[0, 0, 0]	n/a	catFR1	3	R1515T
1089.365	1.0	1091327	REC_WORD	10.266	n/a	WILLOW	Trees	5	10	[0, 0, 0]	n/a	catFR1	3	R1515T
1090.365	1.122	1092327	REC_WORD	11.266	n/a	WILLOW	Trees	5	10	[0, 0, 0]	n/a	catFR1	3	R1515T
1091.487	1.0	1093449	REC_WORD	12.388	n/a	EVERGREEN	Trees	9	10	[0, 0, 0]	n/a	catFR1	3	R1515T
1092.487	3.77	1094449	REC_WORD	13.388	n/a	EVERGREEN	Trees	9	10	[0, 0, 0]	n/a	catFR1	3	R1515T
1096.257	1.0	1098219	REC_WORD	17.158	n/a	COLANDER	KitchenTools	1	10	[0, 0, 0]	n/a	catFR1	3	R1515T
1097.257	0.601	1099219	REC_WORD	18.158	n/a	COLANDER	KitchenTools	1	10	[0, 0, 0]	n/a	catFR1	3	R1515T
1097.858	1.0	1099820	REC_WORD	18.759	n/a	SPATULA	KitchenTools	2	10	[0, 0, 0]	n/a	catFR1	3	R1515T
1098.858	5.824	1100820	REC_WORD	19.759	n/a	SPATULA	KitchenTools	2	10	[0, 0, 0]	n/a	catFR1	3	R1515T
1104.682	1.0	1106643	REC_WORD_VV	25.583	n/a	<>	n/a	-999	10	[0, 0, 0]	n/a	catFR1	3	R1515T
1105.682	2.398	1107643	REC_WORD_VV	26.583	n/a	<>	n/a	-999	10	[0, 0, 0]	n/a	catFR1	3	R1515T
1108.08	1.0	1110041	REC_WORD_VV	28.981	n/a	<>	n/a	-999	10	[0, 0, 0]	n/a	catFR1	3	R1515T
1109.08	0.257	1111041	REC_WORD_VV	29.981	n/a	<>	n/a	-999	10	[0, 0, 0]	n/a	catFR1	3	R1515T
1109.337	5.628	1111294	REC_END	n/a	n/a	n/a	n/a	-999	10	[0, 0, 0]	n/a	catFR1	3	R1515T
1114.965	10.35	1116922	COUNTDOWN_START	n/a	n/a	n/a	n/a	-999	11	[0, 0, 0]	n/a	catFR1	3	R1515T
1125.315	0.0	1127274	COUNTDOWN_END	n/a	n/a	n/a	n/a	-999	11	[0, 0, 0]	n/a	catFR1	3	R1515T
1125.315	2.183	1127274	ENCODING_START	n/a	n/a	n/a	n/a	-999	11	[0, 0, 0]	n/a	catFR1	3	R1515T
1127.498	1.6	1129455	WORD	n/a	wordpools/wordpool_categorized_EN.txt	COUCH	Furniture	1	11	[0, 0, 0]	n/a	catFR1	3	R1515T
1129.098	0.8	1131056	WORD_OFF	n/a	n/a	COUCH	Furniture	1	11	[0, 0, 0]	n/a	catFR1	3	R1515T
1129.898	1.617	1131861	WORD	n/a	wordpools/wordpool_categorized_EN.txt	TABLE	Furniture	2	11	[0, 0, 0]	n/a	catFR1	3	R1515T
1131.515	0.767	1133472	WORD_OFF	n/a	n/a	TABLE	Furniture	2	11	[0, 0, 0]	n/a	catFR1	3	R1515T
1132.282	1.616	1134238	WORD	n/a	wordpools/wordpool_categorized_EN.txt	DAFFODIL	Flowers	3	11	[0, 0, 0]	n/a	catFR1	3	R1515T
1133.898	0.9	1135858	WORD_OFF	n/a	n/a	DAFFODIL	Flowers	3	11	[0, 0, 0]	n/a	catFR1	3	R1515T
1134.798	1.601	1136752	WORD	n/a	wordpools/wordpool_categorized_EN.txt	ROSE	Flowers	4	11	[0, 0, 0]	n/a	catFR1	3	R1515T
1136.399	0.783	1138353	WORD_OFF	n/a	n/a	ROSE	Flowers	4	11	[0, 0, 0]	n/a	catFR1	3	R1515T
1137.182	1.6	1139139	WORD	n/a	wordpools/wordpool_categorized_EN.txt	ERASER	OfficeSupplies	5	11	[0, 0, 0]	n/a	catFR1	3	R1515T
1138.782	0.784	1140740	WORD_OFF	n/a	n/a	ERASER	OfficeSupplies	5	11	[0, 0, 0]	n/a	catFR1	3	R1515T
1139.566	1.601	1141526	WORD	n/a	wordpools/wordpool_categorized_EN.txt	BINDER	OfficeSupplies	6	11	[0, 0, 0]	n/a	catFR1	3	R1515T
1141.167	0.832	1143127	WORD_OFF	n/a	n/a	BINDER	OfficeSupplies	6	11	[0, 0, 0]	n/a	catFR1	3	R1515T
1141.999	1.6	1143961	WORD	n/a	wordpools/wordpool_categorized_EN.txt	BED	Furniture	7	11	[0, 0, 0]	n/a	catFR1	3	R1515T
1143.599	0.867	1145552	WORD_OFF	n/a	n/a	BED	Furniture	7	11	[0, 0, 0]	n/a	catFR1	3	R1515T
1144.466	1.6	1146427	WORD	n/a	wordpools/wordpool_categorized_EN.txt	DESK	Furniture	8	11	[0, 0, 0]	n/a	catFR1	3	R1515T
1146.066	0.932	1148028	WORD_OFF	n/a	n/a	DESK	Furniture	8	11	[0, 0, 0]	n/a	catFR1	3	R1515T
1146.998	1.601	1148951	WORD	n/a	wordpools/wordpool_categorized_EN.txt	VIOLET	Flowers	9	11	[0, 0, 0]	n/a	catFR1	3	R1515T
1148.599	0.9	1150552	WORD_OFF	n/a	n/a	VIOLET	Flowers	9	11	[0, 0, 0]	n/a	catFR1	3	R1515T
1149.499	1.6	1151455	WORD	n/a	wordpools/wordpool_categorized_EN.txt	LILAC	Flowers	10	11	[0, 0, 0]	n/a	catFR1	3	R1515T
1151.099	0.867	1153056	WORD_OFF	n/a	n/a	LILAC	Flowers	10	11	[0, 0, 0]	n/a	catFR1	3	R1515T
1151.966	1.615	1153921	WORD	n/a	wordpools/wordpool_categorized_EN.txt	MARKER	OfficeSupplies	11	11	[0, 0, 0]	n/a	catFR1	3	R1515T
1153.581	0.851	1155541	WORD_OFF	n/a	n/a	MARKER	OfficeSupplies	11	11	[0, 0, 0]	n/a	catFR1	3	R1515T
1154.432	1.616	1156386	WORD	n/a	wordpools/wordpool_categorized_EN.txt	FOLDER	OfficeSupplies	12	11	[0, 0, 0]	n/a	catFR1	3	R1515T
1156.048	0.001	1158007	WORD_OFF	n/a	n/a	FOLDER	OfficeSupplies	12	11	[0, 0, 0]	n/a	catFR1	3	R1515T
1156.049	0.0	1158007	ENCODING_END	n/a	n/a	n/a	n/a	-999	11	[0, 0, 0]	n/a	catFR1	3	R1515T
1156.049	0.0	1158007	DISTRACT_START	n/a	n/a	n/a	n/a	-999	11	[0, 0, 0]	n/a	catFR1	3	R1515T
1156.048	0.001	1158007	PROB	11.584	n/a	n/a	n/a	-999	11	[8, 6, 5]	19.0	catFR1	3	R1515T
1156.049	11.601	1158008	START	n/a	n/a	n/a	n/a	-999	11	[-999, -999, -999]	n/a	catFR1	3	R1515T
1167.65	3.583	1169608	PROB	3.566	n/a	n/a	n/a	-999	11	[5, 1, 2]	8.0	catFR1	3	R1515T
1171.233	6.966	1173191	PROB	6.95	n/a	n/a	n/a	-999	11	[8, 1, 6]	15.0	catFR1	3	R1515T
1178.199	0.0	1180155	DISTRACT_END	n/a	n/a	n/a	n/a	-999	11	[0, 0, 0]	n/a	catFR1	3	R1515T
1178.199	2.033	1180157	STOP	n/a	n/a	n/a	n/a	-999	11	[-999, -999, -999]	n/a	catFR1	3	R1515T
1180.232	1.045	1182186	REC_START	n/a	n/a	n/a	n/a	-999	11	[0, 0, 0]	n/a	catFR1	3	R1515T
1181.277	0.767	1183234	REC_WORD	1.045	n/a	BED	Furniture	7	11	[0, 0, 0]	n/a	catFR1	3	R1515T
1182.044	1.0	1184001	REC_WORD	1.812	n/a	COUCH	Furniture	1	11	[0, 0, 0]	n/a	catFR1	3	R1515T
1183.044	0.895	1185001	REC_WORD	2.812	n/a	COUCH	Furniture	1	11	[0, 0, 0]	n/a	catFR1	3	R1515T
1183.939	1.0	1185896	REC_WORD	3.707	n/a	LILAC	Flowers	10	11	[0, 0, 0]	n/a	catFR1	3	R1515T
1184.939	0.521	1186896	REC_WORD	4.707	n/a	LILAC	Flowers	10	11	[0, 0, 0]	n/a	catFR1	3	R1515T
1185.46	1.0	1187417	REC_WORD	5.228	n/a	VIOLET	Flowers	9	11	[0, 0, 0]	n/a	catFR1	3	R1515T
1186.46	0.302	1188417	REC_WORD	6.228	n/a	VIOLET	Flowers	9	11	[0, 0, 0]	n/a	catFR1	3	R1515T
1186.762	1.0	1188719	REC_WORD	6.53	n/a	DAFFODIL	Flowers	3	11	[0, 0, 0]	n/a	catFR1	3	R1515T
1187.762	3.62	1189719	REC_WORD	7.53	n/a	DAFFODIL	Flowers	3	11	[0, 0, 0]	n/a	catFR1	3	R1515T
1191.382	1.0	1193339	REC_WORD_VV	11.15	n/a	<>	n/a	-999	11	[0, 0, 0]	n/a	catFR1	3	R1515T
1192.382	2.306	1194339	REC_WORD_VV	12.15	n/a	<>	n/a	-999	11	[0, 0, 0]	n/a	catFR1	3	R1515T
1194.688	1.0	1196645	REC_WORD_VV	14.456	n/a	<>	n/a	-999	11	[0, 0, 0]	n/a	catFR1	3	R1515T
1195.688	4.256	1197645	REC_WORD_VV	15.456	n/a	<>	n/a	-999	11	[0, 0, 0]	n/a	catFR1	3	R1515T
1199.944	1.0	1201900	REC_WORD_VV	19.712	n/a	<>	n/a	-999	11	[0, 0, 0]	n/a	catFR1	3	R1515T
1200.944	1.0	1202900	REC_WORD_VV	20.712	n/a	<>	n/a	-999	11	[0, 0, 0]	n/a	catFR1	3	R1515T
1201.944	1.0	1203900	REC_WORD_VV	21.712	n/a	<>	n/a	-999	11	[0, 0, 0]	n/a	catFR1	3	R1515T
1202.944	7.548	1204900	REC_WORD_VV	22.712	n/a	<>	n/a	-999	11	[0, 0, 0]	n/a	catFR1	3	R1515T
1210.492	1.523	1212449	REC_END	n/a	n/a	n/a	n/a	-999	11	[0, 0, 0]	n/a	catFR1	3	R1515T
1212.015	10.351	1213971	COUNTDOWN_START	n/a	n/a	n/a	n/a	-999	12	[0, 0, 0]	n/a	catFR1	3	R1515T
1222.366	0.0	1224323	COUNTDOWN_END	n/a	n/a	n/a	n/a	-999	12	[0, 0, 0]	n/a	catFR1	3	R1515T
1222.366	2.033	1224323	ENCODING_START	n/a	n/a	n/a	n/a	-999	12	[0, 0, 0]	n/a	catFR1	3	R1515T
1224.399	1.6	1226356	WORD	n/a	wordpools/wordpool_categorized_EN.txt	BIRCH	Trees	1	12	[0, 0, 0]	n/a	catFR1	3	R1515T
1225.999	0.8	1227947	WORD_OFF	n/a	n/a	BIRCH	Trees	1	12	[0, 0, 0]	n/a	catFR1	3	R1515T
1226.799	1.6	1228753	WORD	n/a	wordpools/wordpool_categorized_EN.txt	SPRUCE	Trees	2	12	[0, 0, 0]	n/a	catFR1	3	R1515T
1228.399	0.95	1230354	WORD_OFF	n/a	n/a	SPRUCE	Trees	2	12	[0, 0, 0]	n/a	catFR1	3	R1515T
1229.349	1.6	1231306	WORD	n/a	wordpools/wordpool_categorized_EN.txt	OCTOPUS	OceanAnimals	3	12	[0, 0, 0]	n/a	catFR1	3	R1515T
1230.949	0.967	1232898	WORD_OFF	n/a	n/a	OCTOPUS	OceanAnimals	3	12	[0, 0, 0]	n/a	catFR1	3	R1515T
1231.916	1.615	1233870	WORD	n/a	wordpools/wordpool_categorized_EN.txt	FISH	OceanAnimals	4	12	[0, 0, 0]	n/a	catFR1	3	R1515T
1233.531	0.885	1235481	WORD_OFF	n/a	n/a	FISH	OceanAnimals	4	12	[0, 0, 0]	n/a	catFR1	3	R1515T
1234.416	1.616	1236365	WORD	n/a	wordpools/wordpool_categorized_EN.txt	FOG	Weather	5	12	[0, 0, 0]	n/a	catFR1	3	R1515T
1236.032	0.983	1237985	WORD_OFF	n/a	n/a	FOG	Weather	5	12	[0, 0, 0]	n/a	catFR1	3	R1515T
1237.015	1.616	1238967	WORD	n/a	wordpools/wordpool_categorized_EN.txt	CLOUD	Weather	6	12	[0, 0, 0]	n/a	catFR1	3	R1515T
1238.631	0.785	1240588	WORD_OFF	n/a	n/a	CLOUD	Weather	6	12	[0, 0, 0]	n/a	catFR1	3	R1515T
1239.416	1.6	1241364	WORD	n/a	wordpools/wordpool_categorized_EN.txt	PLANKTON	OceanAnimals	7	12	[0, 0, 0]	n/a	catFR1	3	R1515T
1241.016	0.766	1242965	WORD_OFF	n/a	n/a	PLANKTON	OceanAnimals	7	12	[0, 0, 0]	n/a	catFR1	3	R1515T
1241.782	1.6	1243731	WORD	n/a	wordpools/wordpool_categorized_EN.txt	SQUID	OceanAnimals	8	12	[0, 0, 0]	n/a	catFR1	3	R1515T
1243.382	0.966	1245332	WORD_OFF	n/a	n/a	SQUID	OceanAnimals	8	12	[0, 0, 0]	n/a	catFR1	3	R1515T
1244.348	1.601	1246304	WORD	n/a	wordpools/wordpool_categorized_EN.txt	HICKORY	Trees	9	12	[0, 0, 0]	n/a	catFR1	3	R1515T
1245.949	0.983	1247905	WORD_OFF	n/a	n/a	HICKORY	Trees	9	12	[0, 0, 0]	n/a	catFR1	3	R1515T
1246.932	1.6	1248887	WORD	n/a	wordpools/wordpool_categorized_EN.txt	PINE	Trees	10	12	[0, 0, 0]	n/a	catFR1	3	R1515T
1248.532	0.783	1250488	WORD_OFF	n/a	n/a	PINE	Trees	10	12	[0, 0, 0]	n/a	catFR1	3	R1515T
1249.315	1.601	1251264	WORD	n/a	wordpools/wordpool_categorized_EN.txt	TORNADO	Weather	11	12	[0, 0, 0]	n/a	catFR1	3	R1515T
1250.916	0.85	1252865	WORD_OFF	n/a	n/a	TORNADO	Weather	11	12	[0, 0, 0]	n/a	catFR1	3	R1515T
1251.766	1.6	1253720	WORD	n/a	wordpools/wordpool_categorized_EN.txt	HURRICANE	Weather	12	12	[0, 0, 0]	n/a	catFR1	3	R1515T
1253.366	0.0	1255320	PROB	10.566	n/a	n/a	n/a	-999	12	[3, 6, 8]	17.0	catFR1	3	R1515T
1253.365	0.002	1255321	WORD_OFF	n/a	n/a	HURRICANE	Weather	12	12	[0, 0, 0]	n/a	catFR1	3	R1515T
1253.367	0.0	1255321	ENCODING_END	n/a	n/a	n/a	n/a	-999	12	[0, 0, 0]	n/a	catFR1	3	R1515T
1253.367	0.0	1255321	DISTRACT_START	n/a	n/a	n/a	n/a	-999	12	[0, 0, 0]	n/a	catFR1	3	R1515T
1253.367	10.582	1255321	START	n/a	n/a	n/a	n/a	-999	12	[-999, -999, -999]	n/a	catFR1	3	R1515T
1263.949	2.968	1265902	PROB	2.95	n/a	n/a	n/a	-999	12	[5, 3, 2]	10.0	catFR1	3	R1515T
1266.917	4.665	1268870	PROB	4.649	n/a	n/a	n/a	-999	12	[2, 1, 7]	10.0	catFR1	3	R1515T
1271.582	2.783	1273535	PROB	2.766	n/a	n/a	n/a	-999	12	[2, 1, 6]	9.0	catFR1	3	R1515T
1274.365	0.0	1276318	STOP	n/a	n/a	n/a	n/a	-999	12	[-999, -999, -999]	n/a	catFR1	3	R1515T
1274.365	2.201	1276320	DISTRACT_END	n/a	n/a	n/a	n/a	-999	12	[0, 0, 0]	n/a	catFR1	3	R1515T
1276.566	0.807	1278518	REC_START	n/a	n/a	n/a	n/a	-999	12	[0, 0, 0]	n/a	catFR1	3	R1515T
1277.373	0.691	1279326	REC_WORD	0.807	n/a	TORNADO	Weather	11	12	[0, 0, 0]	n/a	catFR1	3	R1515T
1278.064	1.0	1280017	REC_WORD	1.498	n/a	HURRICANE	Weather	12	12	[0, 0, 0]	n/a	catFR1	3	R1515T
1279.064	1.043	1281016	REC_WORD	2.498	n/a	HURRICANE	Weather	12	12	[0, 0, 0]	n/a	catFR1	3	R1515T
1280.107	1.0	1282059	REC_WORD	3.541	n/a	SPRUCE	Trees	2	12	[0, 0, 0]	n/a	catFR1	3	R1515T
1281.107	1.353	1283059	REC_WORD	4.541	n/a	SPRUCE	Trees	2	12	[0, 0, 0]	n/a	catFR1	3	R1515T
1282.46	0.946	1284412	REC_WORD_VV	5.894	n/a	<>	n/a	-999	12	[0, 0, 0]	n/a	catFR1	3	R1515T
1283.406	1.0	1285358	REC_WORD	6.84	n/a	PINE	Trees	10	12	[0, 0, 0]	n/a	catFR1	3	R1515T
1284.406	0.69	1286358	REC_WORD	7.84	n/a	PINE	Trees	10	12	[0, 0, 0]	n/a	catFR1	3	R1515T
1285.096	0.908	1287048	REC_WORD	8.53	n/a	OCTOPUS	OceanAnimals	3	12	[0, 0, 0]	n/a	catFR1	3	R1515T
1286.004	0.703	1287956	REC_WORD	9.438	n/a	PLANKTON	OceanAnimals	7	12	[0, 0, 0]	n/a	catFR1	3	R1515T
1286.707	1.0	1288659	REC_WORD	10.141	n/a	SQUID	OceanAnimals	8	12	[0, 0, 0]	n/a	catFR1	3	R1515T
1287.707	3.127	1289659	REC_WORD	11.141	n/a	SQUID	OceanAnimals	8	12	[0, 0, 0]	n/a	catFR1	3	R1515T
1290.834	1.0	1292786	REC_WORD_VV	14.268	n/a	<>	n/a	-999	12	[0, 0, 0]	n/a	catFR1	3	R1515T
1291.834	10.37	1293786	REC_WORD_VV	15.268	n/a	<>	n/a	-999	12	[0, 0, 0]	n/a	catFR1	3	R1515T
1302.204	0.204	1304155	REC_WORD_VV	25.638	n/a	<>	n/a	-999	12	[0, 0, 0]	n/a	catFR1	3	R1515T
1302.408	1.0	1304359	REC_WORD	25.842	n/a	CLOUD	Weather	6	12	[0, 0, 0]	n/a	catFR1	3	R1515T
1303.408	1.476	1305359	REC_WORD	26.842	n/a	CLOUD	Weather	6	12	[0, 0, 0]	n/a	catFR1	3	R1515T
1304.884	1.0	1306835	REC_WORD_VV	28.318	n/a	<>	n/a	-999	12	[0, 0, 0]	n/a	catFR1	3	R1515T
1305.884	0.934	1307835	REC_WORD_VV	29.318	n/a	<>	n/a	-999	12	[0, 0, 0]	n/a	catFR1	3	R1515T
1306.818	0.0	1308771	REC_END	n/a	n/a	n/a	n/a	-999	12	[0, 0, 0]	n/a	catFR1	3	R1515T
