onset	duration	sample	trial_type	response_time	stim_file	item_name	category	serialpos	list	test	answer	experiment	session	subject
0.0	0.0	29102	INSTRUCT_START	n/a	n/a	n/a	n/a	-999	-999	[0, 0, 0]	n/a	catFR1	1	R1239E
0.0	10.969	29102	INSTRUCT_END	n/a	n/a	n/a	n/a	-999	-999	[0, 0, 0]	n/a	catFR1	1	R1239E
10.969	0.0	40070	SESS_START	n/a	n/a	n/a	n/a	-999	-999	[0, 0, 0]	n/a	catFR1	1	R1239E
10.969	16.501	40070	MIC_TEST	n/a	n/a	n/a	n/a	-999	-999	[0, 0, 0]	n/a	catFR1	1	R1239E
27.47	1.834	56570	PRACTICE_TRIAL	n/a	n/a	n/a	n/a	-999	-1	[0, 0, 0]	n/a	catFR1	1	R1239E
29.304	10.0	58404	COUNTDOWN_START	n/a	n/a	n/a	n/a	-999	-1	[0, 0, 0]	n/a	catFR1	1	R1239E
39.732	0.008	68832	COUNTDOWN_END	n/a	n/a	n/a	n/a	-999	-1	[0, 0, 0]	n/a	catFR1	1	R1239E
39.74	1.6	68840	PRACTICE_ORIENT	n/a	n/a	n/a	n/a	-999	-1	[0, 0, 0]	n/a	catFR1	1	R1239E
41.357	1.917	70457	PRACTICE_ORIENT_OFF	n/a	n/a	n/a	n/a	-999	-1	[0, 0, 0]	n/a	catFR1	1	R1239E
43.274	1.6	72374	PRACTICE_WORD	n/a	n/a	TONGUE	n/a	-1	-1	[0, 0, 0]	n/a	catFR1	1	R1239E
44.891	0.817	73991	PRACTICE_WORD_OFF	n/a	n/a	TONGUE	n/a	-999	-1	[0, 0, 0]	n/a	catFR1	1	R1239E
45.708	1.6	74808	PRACTICE_WORD	n/a	n/a	CAMEL	n/a	-1	-1	[0, 0, 0]	n/a	catFR1	1	R1239E
47.325	0.883	76425	PRACTICE_WORD_OFF	n/a	n/a	CAMEL	n/a	-999	-1	[0, 0, 0]	n/a	catFR1	1	R1239E
48.208	1.6	77308	PRACTICE_WORD	n/a	n/a	FLOOD	n/a	-1	-1	[0, 0, 0]	n/a	catFR1	1	R1239E
49.825	0.967	78925	PRACTICE_WORD_OFF	n/a	n/a	FLOOD	n/a	-999	-1	[0, 0, 0]	n/a	catFR1	1	R1239E
50.792	1.6	79892	PRACTICE_WORD	n/a	n/a	RHINO	n/a	-1	-1	[0, 0, 0]	n/a	catFR1	1	R1239E
52.409	0.933	81509	PRACTICE_WORD_OFF	n/a	n/a	RHINO	n/a	-999	-1	[0, 0, 0]	n/a	catFR1	1	R1239E
53.342	1.6	82441	PRACTICE_WORD	n/a	n/a	WAGON	n/a	-1	-1	[0, 0, 0]	n/a	catFR1	1	R1239E
54.959	0.85	84058	PRACTICE_WORD_OFF	n/a	n/a	WAGON	n/a	-999	-1	[0, 0, 0]	n/a	catFR1	1	R1239E
55.809	1.6	84908	PRACTICE_WORD	n/a	n/a	ATTIC	n/a	-1	-1	[0, 0, 0]	n/a	catFR1	1	R1239E
57.426	0.917	86525	PRACTICE_WORD_OFF	n/a	n/a	ATTIC	n/a	-999	-1	[0, 0, 0]	n/a	catFR1	1	R1239E
58.343	1.6	87442	PRACTICE_WORD	n/a	n/a	BEAM	n/a	-1	-1	[0, 0, 0]	n/a	catFR1	1	R1239E
59.96	0.917	89059	PRACTICE_WORD_OFF	n/a	n/a	BEAM	n/a	-999	-1	[0, 0, 0]	n/a	catFR1	1	R1239E
60.877	1.6	89976	PRACTICE_WORD	n/a	n/a	RING	n/a	-1	-1	[0, 0, 0]	n/a	catFR1	1	R1239E
62.478	0.833	91577	PRACTICE_WORD_OFF	n/a	n/a	RING	n/a	-999	-1	[0, 0, 0]	n/a	catFR1	1	R1239E
63.311	1.6	92410	PRACTICE_WORD	n/a	n/a	CHEST	n/a	-1	-1	[0, 0, 0]	n/a	catFR1	1	R1239E
64.928	0.767	94027	PRACTICE_WORD_OFF	n/a	n/a	CHEST	n/a	-999	-1	[0, 0, 0]	n/a	catFR1	1	R1239E
65.695	1.6	94794	PRACTICE_WORD	n/a	n/a	WATCH	n/a	-1	-1	[0, 0, 0]	n/a	catFR1	1	R1239E
67.312	0.916	96411	PRACTICE_WORD_OFF	n/a	n/a	WATCH	n/a	-999	-1	[0, 0, 0]	n/a	catFR1	1	R1239E
68.228	1.6	97327	PRACTICE_WORD	n/a	n/a	COTTON	n/a	-1	-1	[0, 0, 0]	n/a	catFR1	1	R1239E
69.845	0.95	98944	PRACTICE_WORD_OFF	n/a	n/a	COTTON	n/a	-999	-1	[0, 0, 0]	n/a	catFR1	1	R1239E
70.795	1.6	99894	PRACTICE_WORD	n/a	n/a	IRON	n/a	-1	-1	[0, 0, 0]	n/a	catFR1	1	R1239E
72.412	0.001	101511	PRACTICE_WORD_OFF	n/a	n/a	IRON	n/a	-999	-1	[0, 0, 0]	n/a	catFR1	1	R1239E
72.413	0.0	101512	ENCODING_END	n/a	n/a	n/a	n/a	-999	-1	[0, 0, 0]	n/a	catFR1	1	R1239E
72.413	0.0	101512	DISTRACT_START	n/a	n/a	n/a	n/a	-999	-1	[0, 0, 0]	n/a	catFR1	1	R1239E
72.413	0.016	101512	START	n/a	n/a	n/a	n/a	-999	-1	[-999, -999, -999]	n/a	catFR1	1	R1239E
72.429	6.201	101528	PROB	6.172	n/a	n/a	n/a	-999	-1	[8, 3, 6]	17.0	catFR1	1	R1239E
78.63	2.234	107728	PROB	2.21	n/a	n/a	n/a	-999	-1	[5, 1, 5]	11.0	catFR1	1	R1239E
80.864	2.601	109962	PROB	2.576	n/a	n/a	n/a	-999	-1	[4, 3, 6]	13.0	catFR1	1	R1239E
83.465	7.701	112563	PROB	7.67	n/a	n/a	n/a	-999	-1	[8, 7, 8]	23.0	catFR1	1	R1239E
91.166	3.425	120264	PROB	3.425	n/a	n/a	n/a	-999	-1	[2, 7, 8]	17.0	catFR1	1	R1239E
94.591	0.009	123689	STOP	n/a	n/a	n/a	n/a	-999	-1	[-999, -999, -999]	n/a	catFR1	1	R1239E
94.6	0.55	123698	DISTRACT_END	n/a	n/a	n/a	n/a	-999	-1	[0, 0, 0]	n/a	catFR1	1	R1239E
95.15	0.518	124248	RETRIEVAL_ORIENT	n/a	n/a	n/a	n/a	-999	-1	[0, 0, 0]	n/a	catFR1	1	R1239E
95.668	30.01	124766	PRACTICE_REC_START	n/a	n/a	n/a	n/a	-999	-1	[0, 0, 0]	n/a	catFR1	1	R1239E
125.678	12.346	154775	PRACTICE_REC_END	n/a	n/a	n/a	n/a	-999	-1	[0, 0, 0]	n/a	catFR1	1	R1239E
138.024	0.5	167120	TRIAL	n/a	n/a	n/a	n/a	-999	1	[0, 0, 0]	n/a	catFR1	1	R1239E
138.524	10.0	167620	COUNTDOWN_START	n/a	n/a	n/a	n/a	-999	1	[0, 0, 0]	n/a	catFR1	1	R1239E
148.952	0.007	178048	COUNTDOWN_END	n/a	n/a	n/a	n/a	-999	1	[0, 0, 0]	n/a	catFR1	1	R1239E
148.959	1.6	178055	ORIENT	n/a	n/a	n/a	n/a	-999	1	[0, 0, 0]	n/a	catFR1	1	R1239E
150.576	2.134	179672	ORIENT_OFF	n/a	n/a	n/a	n/a	-999	1	[0, 0, 0]	n/a	catFR1	1	R1239E
152.71	1.6	181806	WORD	n/a	wordpools/wordpool_categorized_EN.txt	TELEVISION	Electronics	1	1	[0, 0, 0]	n/a	catFR1	1	R1239E
154.327	0.766	183423	WORD_OFF	n/a	n/a	TELEVISION	n/a	1	1	[0, 0, 0]	n/a	catFR1	1	R1239E
155.093	1.6	184189	WORD	n/a	wordpools/wordpool_categorized_EN.txt	COMPUTER	Electronics	2	1	[0, 0, 0]	n/a	catFR1	1	R1239E
156.71	0.901	185805	WORD_OFF	n/a	n/a	COMPUTER	n/a	2	1	[0, 0, 0]	n/a	catFR1	1	R1239E
157.611	1.6	186706	WORD	n/a	wordpools/wordpool_categorized_EN.txt	MOPED	Vehicles	3	1	[0, 0, 0]	n/a	catFR1	1	R1239E
159.227	0.784	188322	WORD_OFF	n/a	n/a	MOPED	n/a	3	1	[0, 0, 0]	n/a	catFR1	1	R1239E
160.011	1.6	189106	WORD	n/a	wordpools/wordpool_categorized_EN.txt	TRUCK	Vehicles	4	1	[0, 0, 0]	n/a	catFR1	1	R1239E
161.628	0.884	190723	WORD_OFF	n/a	n/a	TRUCK	n/a	4	1	[0, 0, 0]	n/a	catFR1	1	R1239E
162.512	1.6	191607	WORD	n/a	wordpools/wordpool_categorized_EN.txt	PLANKTON	OceanAnimals	5	1	[0, 0, 0]	n/a	catFR1	1	R1239E
164.128	0.934	193223	WORD_OFF	n/a	n/a	PLANKTON	n/a	5	1	[0, 0, 0]	n/a	catFR1	1	R1239E
165.062	1.6	194157	WORD	n/a	wordpools/wordpool_categorized_EN.txt	OYSTER	OceanAnimals	6	1	[0, 0, 0]	n/a	catFR1	1	R1239E
166.679	0.801	195774	WORD_OFF	n/a	n/a	OYSTER	n/a	6	1	[0, 0, 0]	n/a	catFR1	1	R1239E
167.48	1.6	196575	WORD	n/a	wordpools/wordpool_categorized_EN.txt	BUS	Vehicles	7	1	[0, 0, 0]	n/a	catFR1	1	R1239E
169.096	0.933	198191	WORD_OFF	n/a	n/a	BUS	n/a	7	1	[0, 0, 0]	n/a	catFR1	1	R1239E
170.029	1.6	199124	WORD	n/a	wordpools/wordpool_categorized_EN.txt	PLANE	Vehicles	8	1	[0, 0, 0]	n/a	catFR1	1	R1239E
171.646	0.851	200741	WORD_OFF	n/a	n/a	PLANE	n/a	8	1	[0, 0, 0]	n/a	catFR1	1	R1239E
172.497	1.6	201592	WORD	n/a	wordpools/wordpool_categorized_EN.txt	RADIO	Electronics	9	1	[0, 0, 0]	n/a	catFR1	1	R1239E
174.113	0.934	203208	WORD_OFF	n/a	n/a	RADIO	n/a	9	1	[0, 0, 0]	n/a	catFR1	1	R1239E
175.047	1.6	204142	WORD	n/a	wordpools/wordpool_categorized_EN.txt	SCANNER	Electronics	10	1	[0, 0, 0]	n/a	catFR1	1	R1239E
176.664	0.883	205759	WORD_OFF	n/a	n/a	SCANNER	n/a	10	1	[0, 0, 0]	n/a	catFR1	1	R1239E
177.547	1.6	206642	WORD	n/a	wordpools/wordpool_categorized_EN.txt	OCTOPUS	OceanAnimals	11	1	[0, 0, 0]	n/a	catFR1	1	R1239E
179.164	0.784	208259	WORD_OFF	n/a	n/a	OCTOPUS	n/a	11	1	[0, 0, 0]	n/a	catFR1	1	R1239E
179.948	1.6	209043	WORD	n/a	wordpools/wordpool_categorized_EN.txt	DOLPHIN	OceanAnimals	12	1	[0, 0, 0]	n/a	catFR1	1	R1239E
181.565	0.0	210660	ENCODING_END	n/a	n/a	n/a	n/a	-999	1	[0, 0, 0]	n/a	catFR1	1	R1239E
181.565	0.171	210660	WORD_OFF	n/a	n/a	DOLPHIN	n/a	12	1	[0, 0, 0]	n/a	catFR1	1	R1239E
181.736	0.0	210831	DISTRACT_START	n/a	n/a	n/a	n/a	-999	1	[0, 0, 0]	n/a	catFR1	1	R1239E
181.736	0.012	210831	START	n/a	n/a	n/a	n/a	-999	1	[-999, -999, -999]	n/a	catFR1	1	R1239E
181.748	4.701	210843	PROB	4.663	n/a	n/a	n/a	-999	1	[3, 8, 7]	18.0	catFR1	1	R1239E
186.449	4.567	215543	PROB	4.538	n/a	n/a	n/a	-999	1	[8, 9, 8]	25.0	catFR1	1	R1239E
191.016	3.668	220110	PROB	3.636	n/a	n/a	n/a	-999	1	[4, 2, 9]	15.0	catFR1	1	R1239E
194.684	3.3	223778	PROB	3.272	n/a	n/a	n/a	-999	1	[6, 1, 6]	17.0	catFR1	1	R1239E
197.984	6.73	227078	PROB	6.73	n/a	n/a	n/a	-999	1	[5, 6, 4]	15.0	catFR1	1	R1239E
204.714	0.022	233808	STOP	n/a	n/a	n/a	n/a	-999	1	[-999, -999, -999]	n/a	catFR1	1	R1239E
204.736	0.516	233830	DISTRACT_END	n/a	n/a	n/a	n/a	-999	1	[0, 0, 0]	n/a	catFR1	1	R1239E
205.252	0.518	234346	RETRIEVAL_ORIENT	n/a	n/a	n/a	n/a	-999	1	[0, 0, 0]	n/a	catFR1	1	R1239E
205.77	8.746	234864	REC_START	n/a	n/a	n/a	n/a	-999	1	[0, 0, 0]	n/a	catFR1	1	R1239E
214.516	21.262	243609	REC_WORD	8.746	n/a	TRUCK	Vehicles	4	1	[0, 0, 0]	n/a	catFR1	1	R1239E
235.778	6.214	264870	REC_END	n/a	n/a	n/a	n/a	-999	1	[0, 0, 0]	n/a	catFR1	1	R1239E
241.992	0.5	271084	TRIAL	n/a	n/a	n/a	n/a	-999	2	[0, 0, 0]	n/a	catFR1	1	R1239E
242.492	10.0	271584	COUNTDOWN_START	n/a	n/a	n/a	n/a	-999	2	[0, 0, 0]	n/a	catFR1	1	R1239E
252.92	0.007	282012	COUNTDOWN_END	n/a	n/a	n/a	n/a	-999	2	[0, 0, 0]	n/a	catFR1	1	R1239E
252.927	1.6	282019	ORIENT	n/a	n/a	n/a	n/a	-999	2	[0, 0, 0]	n/a	catFR1	1	R1239E
254.544	2.117	283636	ORIENT_OFF	n/a	n/a	n/a	n/a	-999	2	[0, 0, 0]	n/a	catFR1	1	R1239E
256.661	1.6	285753	WORD	n/a	wordpools/wordpool_categorized_EN.txt	HICKORY	Trees	1	2	[0, 0, 0]	n/a	catFR1	1	R1239E
258.278	0.833	287370	WORD_OFF	n/a	n/a	HICKORY	n/a	1	2	[0, 0, 0]	n/a	catFR1	1	R1239E
259.111	1.6	288203	WORD	n/a	wordpools/wordpool_categorized_EN.txt	BIRCH	Trees	2	2	[0, 0, 0]	n/a	catFR1	1	R1239E
260.728	0.884	289819	WORD_OFF	n/a	n/a	BIRCH	n/a	2	2	[0, 0, 0]	n/a	catFR1	1	R1239E
261.612	1.6	290703	WORD	n/a	wordpools/wordpool_categorized_EN.txt	ERASER	OfficeSupplies	3	2	[0, 0, 0]	n/a	catFR1	1	R1239E
263.229	0.817	292320	WORD_OFF	n/a	n/a	ERASER	n/a	3	2	[0, 0, 0]	n/a	catFR1	1	R1239E
264.046	1.6	293137	WORD	n/a	wordpools/wordpool_categorized_EN.txt	STAPLER	OfficeSupplies	4	2	[0, 0, 0]	n/a	catFR1	1	R1239E
265.663	0.851	294754	WORD_OFF	n/a	n/a	STAPLER	n/a	4	2	[0, 0, 0]	n/a	catFR1	1	R1239E
266.514	1.6	295605	WORD	n/a	wordpools/wordpool_categorized_EN.txt	BASS	Instruments	5	2	[0, 0, 0]	n/a	catFR1	1	R1239E
268.13	0.867	297221	WORD_OFF	n/a	n/a	BASS	n/a	5	2	[0, 0, 0]	n/a	catFR1	1	R1239E
268.997	1.6	298088	WORD	n/a	wordpools/wordpool_categorized_EN.txt	GUITAR	Instruments	6	2	[0, 0, 0]	n/a	catFR1	1	R1239E
270.614	0.783	299705	WORD_OFF	n/a	n/a	GUITAR	n/a	6	2	[0, 0, 0]	n/a	catFR1	1	R1239E
271.397	1.6	300488	WORD	n/a	wordpools/wordpool_categorized_EN.txt	GLUE	OfficeSupplies	7	2	[0, 0, 0]	n/a	catFR1	1	R1239E
273.014	0.95	302105	WORD_OFF	n/a	n/a	GLUE	n/a	7	2	[0, 0, 0]	n/a	catFR1	1	R1239E
273.964	1.6	303055	WORD	n/a	wordpools/wordpool_categorized_EN.txt	PAPER	OfficeSupplies	8	2	[0, 0, 0]	n/a	catFR1	1	R1239E
275.581	0.817	304672	WORD_OFF	n/a	n/a	PAPER	n/a	8	2	[0, 0, 0]	n/a	catFR1	1	R1239E
276.398	1.6	305489	WORD	n/a	wordpools/wordpool_categorized_EN.txt	MAPLE	Trees	9	2	[0, 0, 0]	n/a	catFR1	1	R1239E
278.015	0.85	307106	WORD_OFF	n/a	n/a	MAPLE	n/a	9	2	[0, 0, 0]	n/a	catFR1	1	R1239E
278.865	1.6	307956	WORD	n/a	wordpools/wordpool_categorized_EN.txt	PINE	Trees	10	2	[0, 0, 0]	n/a	catFR1	1	R1239E
280.466	0.766	309557	WORD_OFF	n/a	n/a	PINE	n/a	10	2	[0, 0, 0]	n/a	catFR1	1	R1239E
281.232	1.6	310323	WORD	n/a	wordpools/wordpool_categorized_EN.txt	DRUM	Instruments	11	2	[0, 0, 0]	n/a	catFR1	1	R1239E
282.849	0.783	311940	WORD_OFF	n/a	n/a	DRUM	n/a	11	2	[0, 0, 0]	n/a	catFR1	1	R1239E
283.632	1.6	312723	WORD	n/a	wordpools/wordpool_categorized_EN.txt	PIANO	Instruments	12	2	[0, 0, 0]	n/a	catFR1	1	R1239E
285.249	0.001	314340	WORD_OFF	n/a	n/a	PIANO	n/a	12	2	[0, 0, 0]	n/a	catFR1	1	R1239E
285.25	0.133	314341	ENCODING_END	n/a	n/a	n/a	n/a	-999	2	[0, 0, 0]	n/a	catFR1	1	R1239E
285.383	0.001	314473	DISTRACT_START	n/a	n/a	n/a	n/a	-999	2	[0, 0, 0]	n/a	catFR1	1	R1239E
285.384	0.015	314474	START	n/a	n/a	n/a	n/a	-999	2	[-999, -999, -999]	n/a	catFR1	1	R1239E
285.399	3.085	314489	PROB	3.061	n/a	n/a	n/a	-999	2	[4, 1, 4]	9.0	catFR1	1	R1239E
288.484	3.333	317574	PROB	3.31	n/a	n/a	n/a	-999	2	[9, 4, 3]	16.0	catFR1	1	R1239E
291.817	2.767	320907	PROB	2.738	n/a	n/a	n/a	-999	2	[6, 2, 8]	16.0	catFR1	1	R1239E
294.584	3.451	323674	PROB	3.418	n/a	n/a	n/a	-999	2	[2, 6, 5]	13.0	catFR1	1	R1239E
298.035	2.717	327125	PROB	2.687	n/a	n/a	n/a	-999	2	[8, 7, 2]	17.0	catFR1	1	R1239E
300.752	3.067	329842	PROB	3.035	n/a	n/a	n/a	-999	2	[2, 1, 1]	4.0	catFR1	1	R1239E
303.819	8.247	332909	PROB	8.247	n/a	n/a	n/a	-999	2	[8, 7, 6]	21.0	catFR1	1	R1239E
312.066	0.022	341155	STOP	n/a	n/a	n/a	n/a	-999	2	[-999, -999, -999]	n/a	catFR1	1	R1239E
312.088	0.666	341177	DISTRACT_END	n/a	n/a	n/a	n/a	-999	2	[0, 0, 0]	n/a	catFR1	1	R1239E
312.754	0.518	341843	RETRIEVAL_ORIENT	n/a	n/a	n/a	n/a	-999	2	[0, 0, 0]	n/a	catFR1	1	R1239E
313.272	1.131	342361	REC_START	n/a	n/a	n/a	n/a	-999	2	[0, 0, 0]	n/a	catFR1	1	R1239E
314.403	1.609	343492	REC_WORD_VV	1.131	n/a	<>	n/a	-999	2	[0, 0, 0]	n/a	catFR1	1	R1239E
316.012	2.617	345101	REC_WORD	2.74	n/a	GUITAR	Instruments	6	2	[0, 0, 0]	n/a	catFR1	1	R1239E
318.629	1.818	347718	REC_WORD	5.357	n/a	BIRCH	Trees	2	2	[0, 0, 0]	n/a	catFR1	1	R1239E
320.447	7.099	349536	REC_WORD	7.175	n/a	MOP	n/a	-999	2	[0, 0, 0]	n/a	catFR1	1	R1239E
327.546	15.734	356635	REC_WORD	14.274	n/a	HICKORY	Trees	1	2	[0, 0, 0]	n/a	catFR1	1	R1239E
343.28	4.914	372368	REC_END	n/a	n/a	n/a	n/a	-999	2	[0, 0, 0]	n/a	catFR1	1	R1239E
348.194	0.5	377282	TRIAL	n/a	n/a	n/a	n/a	-999	3	[0, 0, 0]	n/a	catFR1	1	R1239E
348.694	10.0	377782	COUNTDOWN_START	n/a	n/a	n/a	n/a	-999	3	[0, 0, 0]	n/a	catFR1	1	R1239E
359.122	0.007	388210	COUNTDOWN_END	n/a	n/a	n/a	n/a	-999	3	[0, 0, 0]	n/a	catFR1	1	R1239E
359.129	1.6	388217	ORIENT	n/a	n/a	n/a	n/a	-999	3	[0, 0, 0]	n/a	catFR1	1	R1239E
360.746	2.0	389834	ORIENT_OFF	n/a	n/a	n/a	n/a	-999	3	[0, 0, 0]	n/a	catFR1	1	R1239E
362.746	1.6	391834	WORD	n/a	wordpools/wordpool_categorized_EN.txt	HEADPHONES	Electronics	1	3	[0, 0, 0]	n/a	catFR1	1	R1239E
364.363	0.984	393450	WORD_OFF	n/a	n/a	HEADPHONES	n/a	1	3	[0, 0, 0]	n/a	catFR1	1	R1239E
365.347	1.6	394434	WORD	n/a	wordpools/wordpool_categorized_EN.txt	SPEAKER	Electronics	2	3	[0, 0, 0]	n/a	catFR1	1	R1239E
366.964	0.917	396051	WORD_OFF	n/a	n/a	SPEAKER	n/a	2	3	[0, 0, 0]	n/a	catFR1	1	R1239E
367.881	1.6	396968	WORD	n/a	wordpools/wordpool_categorized_EN.txt	LEG	BodyParts	3	3	[0, 0, 0]	n/a	catFR1	1	R1239E
369.498	0.833	398585	WORD_OFF	n/a	n/a	LEG	n/a	3	3	[0, 0, 0]	n/a	catFR1	1	R1239E
370.331	1.6	399418	WORD	n/a	wordpools/wordpool_categorized_EN.txt	ELBOW	BodyParts	4	3	[0, 0, 0]	n/a	catFR1	1	R1239E
371.948	0.8	401035	WORD_OFF	n/a	n/a	ELBOW	n/a	4	3	[0, 0, 0]	n/a	catFR1	1	R1239E
372.748	1.6	401835	WORD	n/a	wordpools/wordpool_categorized_EN.txt	TORNADO	Weather	5	3	[0, 0, 0]	n/a	catFR1	1	R1239E
374.365	0.8	403452	WORD_OFF	n/a	n/a	TORNADO	n/a	5	3	[0, 0, 0]	n/a	catFR1	1	R1239E
375.165	1.6	404252	WORD	n/a	wordpools/wordpool_categorized_EN.txt	WIND	Weather	6	3	[0, 0, 0]	n/a	catFR1	1	R1239E
376.782	0.967	405869	WORD_OFF	n/a	n/a	WIND	n/a	6	3	[0, 0, 0]	n/a	catFR1	1	R1239E
377.749	1.6	406836	WORD	n/a	wordpools/wordpool_categorized_EN.txt	CALCULATOR	Electronics	7	3	[0, 0, 0]	n/a	catFR1	1	R1239E
379.366	0.883	408453	WORD_OFF	n/a	n/a	CALCULATOR	n/a	7	3	[0, 0, 0]	n/a	catFR1	1	R1239E
380.249	1.6	409336	WORD	n/a	wordpools/wordpool_categorized_EN.txt	TABLET	Electronics	8	3	[0, 0, 0]	n/a	catFR1	1	R1239E
381.866	1.0	410953	WORD_OFF	n/a	n/a	TABLET	n/a	8	3	[0, 0, 0]	n/a	catFR1	1	R1239E
382.866	1.6	411953	WORD	n/a	wordpools/wordpool_categorized_EN.txt	FOOT	BodyParts	9	3	[0, 0, 0]	n/a	catFR1	1	R1239E
384.467	0.8	413554	WORD_OFF	n/a	n/a	FOOT	n/a	9	3	[0, 0, 0]	n/a	catFR1	1	R1239E
385.267	1.6	414354	WORD	n/a	wordpools/wordpool_categorized_EN.txt	HEAD	BodyParts	10	3	[0, 0, 0]	n/a	catFR1	1	R1239E
386.884	0.8	415971	WORD_OFF	n/a	n/a	HEAD	n/a	10	3	[0, 0, 0]	n/a	catFR1	1	R1239E
387.684	1.6	416771	WORD	n/a	wordpools/wordpool_categorized_EN.txt	RAIN	Weather	11	3	[0, 0, 0]	n/a	catFR1	1	R1239E
389.301	0.983	418387	WORD_OFF	n/a	n/a	RAIN	n/a	11	3	[0, 0, 0]	n/a	catFR1	1	R1239E
390.284	1.6	419370	WORD	n/a	wordpools/wordpool_categorized_EN.txt	HUMIDITY	Weather	12	3	[0, 0, 0]	n/a	catFR1	1	R1239E
391.901	0.001	420987	WORD_OFF	n/a	n/a	HUMIDITY	n/a	12	3	[0, 0, 0]	n/a	catFR1	1	R1239E
391.902	0.134	420988	ENCODING_END	n/a	n/a	n/a	n/a	-999	3	[0, 0, 0]	n/a	catFR1	1	R1239E
392.036	0.0	421122	DISTRACT_START	n/a	n/a	n/a	n/a	-999	3	[0, 0, 0]	n/a	catFR1	1	R1239E
392.036	0.016	421122	START	n/a	n/a	n/a	n/a	-999	3	[-999, -999, -999]	n/a	catFR1	1	R1239E
392.052	4.75	421138	PROB	4.726	n/a	n/a	n/a	-999	3	[3, 1, 9]	13.0	catFR1	1	R1239E
396.802	5.551	425888	PROB	5.52	n/a	n/a	n/a	-999	3	[7, 7, 4]	18.0	catFR1	1	R1239E
402.353	2.168	431439	PROB	2.13	n/a	n/a	n/a	-999	3	[2, 7, 3]	12.0	catFR1	1	R1239E
404.521	6.684	433607	PROB	6.651	n/a	n/a	n/a	-999	3	[5, 8, 9]	22.0	catFR1	1	R1239E
411.205	3.647	440291	PROB	3.647	n/a	n/a	n/a	-999	3	[9, 9, 3]	21.0	catFR1	1	R1239E
414.852	0.02	443937	STOP	n/a	n/a	n/a	n/a	-999	3	[-999, -999, -999]	n/a	catFR1	1	R1239E
414.872	0.601	443957	DISTRACT_END	n/a	n/a	n/a	n/a	-999	3	[0, 0, 0]	n/a	catFR1	1	R1239E
415.473	0.517	444558	RETRIEVAL_ORIENT	n/a	n/a	n/a	n/a	-999	3	[0, 0, 0]	n/a	catFR1	1	R1239E
415.99	0.789	445075	REC_START	n/a	n/a	n/a	n/a	-999	3	[0, 0, 0]	n/a	catFR1	1	R1239E
416.779	0.828	445864	REC_WORD	0.789	n/a	HEADPHONES	Electronics	1	3	[0, 0, 0]	n/a	catFR1	1	R1239E
417.607	0.832	446692	REC_WORD	1.617	n/a	SPEAKER	Electronics	2	3	[0, 0, 0]	n/a	catFR1	1	R1239E
418.439	2.055	447524	REC_WORD	2.449	n/a	RAIN	Weather	11	3	[0, 0, 0]	n/a	catFR1	1	R1239E
420.494	8.956	449579	REC_WORD	4.504	n/a	HUMIDITY	Weather	12	3	[0, 0, 0]	n/a	catFR1	1	R1239E
429.45	16.548	458535	REC_WORD	13.46	n/a	TORNADO	Weather	5	3	[0, 0, 0]	n/a	catFR1	1	R1239E
445.998	4.197	475082	REC_END	n/a	n/a	n/a	n/a	-999	3	[0, 0, 0]	n/a	catFR1	1	R1239E
450.195	0.5	479279	TRIAL	n/a	n/a	n/a	n/a	-999	4	[0, 0, 0]	n/a	catFR1	1	R1239E
450.695	10.0	479779	COUNTDOWN_START	n/a	n/a	n/a	n/a	-999	4	[0, 0, 0]	n/a	catFR1	1	R1239E
461.123	0.007	490207	COUNTDOWN_END	n/a	n/a	n/a	n/a	-999	4	[0, 0, 0]	n/a	catFR1	1	R1239E
461.13	1.6	490214	ORIENT	n/a	n/a	n/a	n/a	-999	4	[0, 0, 0]	n/a	catFR1	1	R1239E
462.747	1.817	491831	ORIENT_OFF	n/a	n/a	n/a	n/a	-999	4	[0, 0, 0]	n/a	catFR1	1	R1239E
464.564	1.6	493648	WORD	n/a	wordpools/wordpool_categorized_EN.txt	MARBLES	Toys	1	4	[0, 0, 0]	n/a	catFR1	1	R1239E
466.181	0.967	495265	WORD_OFF	n/a	n/a	MARBLES	n/a	1	4	[0, 0, 0]	n/a	catFR1	1	R1239E
467.148	1.6	496231	WORD	n/a	wordpools/wordpool_categorized_EN.txt	BLOCKS	Toys	2	4	[0, 0, 0]	n/a	catFR1	1	R1239E
468.765	0.917	497848	WORD_OFF	n/a	n/a	BLOCKS	n/a	2	4	[0, 0, 0]	n/a	catFR1	1	R1239E
469.682	1.6	498765	WORD	n/a	wordpools/wordpool_categorized_EN.txt	HEN	FarmAnimals	3	4	[0, 0, 0]	n/a	catFR1	1	R1239E
471.299	0.916	500382	WORD_OFF	n/a	n/a	HEN	n/a	3	4	[0, 0, 0]	n/a	catFR1	1	R1239E
472.215	1.6	501298	WORD	n/a	wordpools/wordpool_categorized_EN.txt	SHEEP	FarmAnimals	4	4	[0, 0, 0]	n/a	catFR1	1	R1239E
473.832	0.967	502915	WORD_OFF	n/a	n/a	SHEEP	n/a	4	4	[0, 0, 0]	n/a	catFR1	1	R1239E
474.799	1.6	503882	WORD	n/a	wordpools/wordpool_categorized_EN.txt	THUNDER	Weather	5	4	[0, 0, 0]	n/a	catFR1	1	R1239E
476.416	0.85	505499	WORD_OFF	n/a	n/a	THUNDER	n/a	5	4	[0, 0, 0]	n/a	catFR1	1	R1239E
477.266	1.6	506349	WORD	n/a	wordpools/wordpool_categorized_EN.txt	THUNDERSTORM	Weather	6	4	[0, 0, 0]	n/a	catFR1	1	R1239E
478.883	0.834	507966	WORD_OFF	n/a	n/a	THUNDERSTORM	n/a	6	4	[0, 0, 0]	n/a	catFR1	1	R1239E
479.717	1.6	508800	WORD	n/a	wordpools/wordpool_categorized_EN.txt	GOAT	FarmAnimals	7	4	[0, 0, 0]	n/a	catFR1	1	R1239E
481.334	0.866	510417	WORD_OFF	n/a	n/a	GOAT	n/a	7	4	[0, 0, 0]	n/a	catFR1	1	R1239E
482.2	1.6	511283	WORD	n/a	wordpools/wordpool_categorized_EN.txt	TURKEY	FarmAnimals	8	4	[0, 0, 0]	n/a	catFR1	1	R1239E
483.817	0.801	512900	WORD_OFF	n/a	n/a	TURKEY	n/a	8	4	[0, 0, 0]	n/a	catFR1	1	R1239E
484.618	1.6	513701	WORD	n/a	wordpools/wordpool_categorized_EN.txt	BASEBALL	Toys	9	4	[0, 0, 0]	n/a	catFR1	1	R1239E
486.235	0.8	515318	WORD_OFF	n/a	n/a	BASEBALL	n/a	9	4	[0, 0, 0]	n/a	catFR1	1	R1239E
487.035	1.6	516118	WORD	n/a	wordpools/wordpool_categorized_EN.txt	BALL	Toys	10	4	[0, 0, 0]	n/a	catFR1	1	R1239E
488.652	0.95	517735	WORD_OFF	n/a	n/a	BALL	n/a	10	4	[0, 0, 0]	n/a	catFR1	1	R1239E
489.602	1.6	518685	WORD	n/a	wordpools/wordpool_categorized_EN.txt	HURRICANE	Weather	11	4	[0, 0, 0]	n/a	catFR1	1	R1239E
491.219	0.933	520302	WORD_OFF	n/a	n/a	HURRICANE	n/a	11	4	[0, 0, 0]	n/a	catFR1	1	R1239E
492.152	1.6	521235	WORD	n/a	wordpools/wordpool_categorized_EN.txt	DRIZZLE	Weather	12	4	[0, 0, 0]	n/a	catFR1	1	R1239E
493.769	0.0	522851	ENCODING_END	n/a	n/a	n/a	n/a	-999	4	[0, 0, 0]	n/a	catFR1	1	R1239E
493.769	0.168	522851	WORD_OFF	n/a	n/a	DRIZZLE	n/a	12	4	[0, 0, 0]	n/a	catFR1	1	R1239E
493.937	0.0	523019	DISTRACT_START	n/a	n/a	n/a	n/a	-999	4	[0, 0, 0]	n/a	catFR1	1	R1239E
493.937	0.016	523019	START	n/a	n/a	n/a	n/a	-999	4	[-999, -999, -999]	n/a	catFR1	1	R1239E
493.953	3.634	523035	PROB	3.605	n/a	n/a	n/a	-999	4	[6, 5, 3]	14.0	catFR1	1	R1239E
497.587	3.1	526669	PROB	3.066	n/a	n/a	n/a	-999	4	[4, 8, 2]	14.0	catFR1	1	R1239E
500.687	3.701	529769	PROB	3.671	n/a	n/a	n/a	-999	4	[8, 3, 2]	13.0	catFR1	1	R1239E
504.388	3.25	533470	PROB	3.226	n/a	n/a	n/a	-999	4	[4, 9, 1]	14.0	catFR1	1	R1239E
507.638	7.825	536720	PROB	7.825	n/a	n/a	n/a	-999	4	[9, 9, 5]	23.0	catFR1	1	R1239E
515.463	0.011	544545	STOP	n/a	n/a	n/a	n/a	-999	4	[-999, -999, -999]	n/a	catFR1	1	R1239E
515.474	0.582	544556	DISTRACT_END	n/a	n/a	n/a	n/a	-999	4	[0, 0, 0]	n/a	catFR1	1	R1239E
516.056	0.518	545138	RETRIEVAL_ORIENT	n/a	n/a	n/a	n/a	-999	4	[0, 0, 0]	n/a	catFR1	1	R1239E
516.574	1.419	545656	REC_START	n/a	n/a	n/a	n/a	-999	4	[0, 0, 0]	n/a	catFR1	1	R1239E
517.993	0.32	547075	REC_WORD_VV	1.419	n/a	<>	n/a	-999	4	[0, 0, 0]	n/a	catFR1	1	R1239E
518.313	1.269	547394	REC_WORD	1.739	n/a	HUMIDITY	n/a	-999	4	[0, 0, 0]	n/a	catFR1	1	R1239E
519.582	0.325	548663	REC_WORD_VV	3.008	n/a	<>	n/a	-999	4	[0, 0, 0]	n/a	catFR1	1	R1239E
519.907	26.675	548988	REC_WORD	3.333	n/a	RAIN	n/a	-999	4	[0, 0, 0]	n/a	catFR1	1	R1239E
546.582	4.647	575662	REC_END	n/a	n/a	n/a	n/a	-999	4	[0, 0, 0]	n/a	catFR1	1	R1239E
551.229	0.5	580309	TRIAL	n/a	n/a	n/a	n/a	-999	5	[0, 0, 0]	n/a	catFR1	1	R1239E
551.729	10.0	580809	COUNTDOWN_START	n/a	n/a	n/a	n/a	-999	5	[0, 0, 0]	n/a	catFR1	1	R1239E
562.157	0.008	591237	COUNTDOWN_END	n/a	n/a	n/a	n/a	-999	5	[0, 0, 0]	n/a	catFR1	1	R1239E
562.165	1.6	591245	ORIENT	n/a	n/a	n/a	n/a	-999	5	[0, 0, 0]	n/a	catFR1	1	R1239E
563.781	2.218	592861	ORIENT_OFF	n/a	n/a	n/a	n/a	-999	5	[0, 0, 0]	n/a	catFR1	1	R1239E
565.999	1.6	595079	WORD	n/a	wordpools/wordpool_categorized_EN.txt	PUDDING	Desserts	1	5	[0, 0, 0]	n/a	catFR1	1	R1239E
567.615	0.852	596695	WORD_OFF	n/a	n/a	PUDDING	n/a	1	5	[0, 0, 0]	n/a	catFR1	1	R1239E
568.467	1.6	597547	WORD	n/a	wordpools/wordpool_categorized_EN.txt	CAKE	Desserts	2	5	[0, 0, 0]	n/a	catFR1	1	R1239E
570.083	0.866	599162	WORD_OFF	n/a	n/a	CAKE	n/a	2	5	[0, 0, 0]	n/a	catFR1	1	R1239E
570.949	1.6	600028	WORD	n/a	wordpools/wordpool_categorized_EN.txt	TOE	BodyParts	3	5	[0, 0, 0]	n/a	catFR1	1	R1239E
572.566	0.902	601645	WORD_OFF	n/a	n/a	TOE	n/a	3	5	[0, 0, 0]	n/a	catFR1	1	R1239E
573.468	1.6	602547	WORD	n/a	wordpools/wordpool_categorized_EN.txt	HAND	BodyParts	4	5	[0, 0, 0]	n/a	catFR1	1	R1239E
575.083	0.834	604162	WORD_OFF	n/a	n/a	HAND	n/a	4	5	[0, 0, 0]	n/a	catFR1	1	R1239E
575.917	1.6	604996	WORD	n/a	wordpools/wordpool_categorized_EN.txt	EVERGREEN	Trees	5	5	[0, 0, 0]	n/a	catFR1	1	R1239E
577.534	0.968	606613	WORD_OFF	n/a	n/a	EVERGREEN	n/a	5	5	[0, 0, 0]	n/a	catFR1	1	R1239E
578.502	1.6	607581	WORD	n/a	wordpools/wordpool_categorized_EN.txt	SPRUCE	Trees	6	5	[0, 0, 0]	n/a	catFR1	1	R1239E
580.118	0.9	609197	WORD_OFF	n/a	n/a	SPRUCE	n/a	6	5	[0, 0, 0]	n/a	catFR1	1	R1239E
581.018	1.6	610097	WORD	n/a	wordpools/wordpool_categorized_EN.txt	ARM	BodyParts	7	5	[0, 0, 0]	n/a	catFR1	1	R1239E
582.635	0.967	611714	WORD_OFF	n/a	n/a	ARM	n/a	7	5	[0, 0, 0]	n/a	catFR1	1	R1239E
583.602	1.6	612681	WORD	n/a	wordpools/wordpool_categorized_EN.txt	EAR	BodyParts	8	5	[0, 0, 0]	n/a	catFR1	1	R1239E
585.219	0.95	614298	WORD_OFF	n/a	n/a	EAR	n/a	8	5	[0, 0, 0]	n/a	catFR1	1	R1239E
586.169	1.6	615248	WORD	n/a	wordpools/wordpool_categorized_EN.txt	PIE	Desserts	9	5	[0, 0, 0]	n/a	catFR1	1	R1239E
587.786	0.95	616865	WORD_OFF	n/a	n/a	PIE	n/a	9	5	[0, 0, 0]	n/a	catFR1	1	R1239E
588.736	1.6	617815	WORD	n/a	wordpools/wordpool_categorized_EN.txt	FUDGE	Desserts	10	5	[0, 0, 0]	n/a	catFR1	1	R1239E
590.353	0.833	619432	WORD_OFF	n/a	n/a	FUDGE	n/a	10	5	[0, 0, 0]	n/a	catFR1	1	R1239E
591.186	1.6	620265	WORD	n/a	wordpools/wordpool_categorized_EN.txt	WALNUT	Trees	11	5	[0, 0, 0]	n/a	catFR1	1	R1239E
592.803	0.884	621882	WORD_OFF	n/a	n/a	WALNUT	n/a	11	5	[0, 0, 0]	n/a	catFR1	1	R1239E
593.687	1.6	622766	WORD	n/a	wordpools/wordpool_categorized_EN.txt	WILLOW	Trees	12	5	[0, 0, 0]	n/a	catFR1	1	R1239E
595.304	0.0	624383	ENCODING_END	n/a	n/a	n/a	n/a	-999	5	[0, 0, 0]	n/a	catFR1	1	R1239E
595.304	0.132	624383	WORD_OFF	n/a	n/a	WILLOW	n/a	12	5	[0, 0, 0]	n/a	catFR1	1	R1239E
595.436	0.001	624515	DISTRACT_START	n/a	n/a	n/a	n/a	-999	5	[0, 0, 0]	n/a	catFR1	1	R1239E
595.437	0.017	624516	START	n/a	n/a	n/a	n/a	-999	5	[-999, -999, -999]	n/a	catFR1	1	R1239E
595.454	7.234	624533	PROB	7.203	n/a	n/a	n/a	-999	5	[7, 8, 4]	19.0	catFR1	1	R1239E
602.688	3.701	631766	PROB	3.673	n/a	n/a	n/a	-999	5	[3, 7, 8]	18.0	catFR1	1	R1239E
606.389	5.834	635467	PROB	5.801	n/a	n/a	n/a	-999	5	[6, 4, 9]	19.0	catFR1	1	R1239E
612.223	4.265	641301	PROB	4.265	n/a	n/a	n/a	-999	5	[4, 4, 1]	9.0	catFR1	1	R1239E
616.488	0.021	645566	STOP	n/a	n/a	n/a	n/a	-999	5	[-999, -999, -999]	n/a	catFR1	1	R1239E
616.509	0.582	645587	DISTRACT_END	n/a	n/a	n/a	n/a	-999	5	[0, 0, 0]	n/a	catFR1	1	R1239E
617.091	0.517	646169	RETRIEVAL_ORIENT	n/a	n/a	n/a	n/a	-999	5	[0, 0, 0]	n/a	catFR1	1	R1239E
617.608	12.925	646686	REC_START	n/a	n/a	n/a	n/a	-999	5	[0, 0, 0]	n/a	catFR1	1	R1239E
630.533	17.084	659610	REC_WORD	12.925	n/a	WEATHER	n/a	-999	5	[0, 0, 0]	n/a	catFR1	1	R1239E
647.617	4.397	676693	REC_END	n/a	n/a	n/a	n/a	-999	5	[0, 0, 0]	n/a	catFR1	1	R1239E
652.014	0.5	681090	TRIAL	n/a	n/a	n/a	n/a	-999	6	[0, 0, 0]	n/a	catFR1	1	R1239E
652.514	10.0	681590	COUNTDOWN_START	n/a	n/a	n/a	n/a	-999	6	[0, 0, 0]	n/a	catFR1	1	R1239E
662.942	0.007	692018	COUNTDOWN_END	n/a	n/a	n/a	n/a	-999	6	[0, 0, 0]	n/a	catFR1	1	R1239E
662.949	1.6	692025	ORIENT	n/a	n/a	n/a	n/a	-999	6	[0, 0, 0]	n/a	catFR1	1	R1239E
664.566	1.85	693642	ORIENT_OFF	n/a	n/a	n/a	n/a	-999	6	[0, 0, 0]	n/a	catFR1	1	R1239E
666.416	1.6	695492	WORD	n/a	wordpools/wordpool_categorized_EN.txt	CYPRESS	Trees	1	6	[0, 0, 0]	n/a	catFR1	1	R1239E
668.033	0.9	697109	WORD_OFF	n/a	n/a	CYPRESS	n/a	1	6	[0, 0, 0]	n/a	catFR1	1	R1239E
668.933	1.6	698009	WORD	n/a	wordpools/wordpool_categorized_EN.txt	ELM	Trees	2	6	[0, 0, 0]	n/a	catFR1	1	R1239E
670.55	0.984	699626	WORD_OFF	n/a	n/a	ELM	n/a	2	6	[0, 0, 0]	n/a	catFR1	1	R1239E
671.534	1.6	700610	WORD	n/a	wordpools/wordpool_categorized_EN.txt	FOG	Weather	3	6	[0, 0, 0]	n/a	catFR1	1	R1239E
673.151	0.766	702227	WORD_OFF	n/a	n/a	FOG	n/a	3	6	[0, 0, 0]	n/a	catFR1	1	R1239E
673.917	1.6	702992	WORD	n/a	wordpools/wordpool_categorized_EN.txt	CLOUD	Weather	4	6	[0, 0, 0]	n/a	catFR1	1	R1239E
675.518	1.017	704593	WORD_OFF	n/a	n/a	CLOUD	n/a	4	6	[0, 0, 0]	n/a	catFR1	1	R1239E
676.535	1.6	705610	WORD	n/a	wordpools/wordpool_categorized_EN.txt	LION	Zoo	5	6	[0, 0, 0]	n/a	catFR1	1	R1239E
678.151	0.784	707226	WORD_OFF	n/a	n/a	LION	n/a	5	6	[0, 0, 0]	n/a	catFR1	1	R1239E
678.935	1.6	708010	WORD	n/a	wordpools/wordpool_categorized_EN.txt	CHEETAH	Zoo	6	6	[0, 0, 0]	n/a	catFR1	1	R1239E
680.552	0.9	709627	WORD_OFF	n/a	n/a	CHEETAH	n/a	6	6	[0, 0, 0]	n/a	catFR1	1	R1239E
681.452	1.6	710527	WORD	n/a	wordpools/wordpool_categorized_EN.txt	CEDAR	Trees	7	6	[0, 0, 0]	n/a	catFR1	1	R1239E
683.069	0.85	712144	WORD_OFF	n/a	n/a	CEDAR	n/a	7	6	[0, 0, 0]	n/a	catFR1	1	R1239E
683.919	1.6	712994	WORD	n/a	wordpools/wordpool_categorized_EN.txt	OAK	Trees	8	6	[0, 0, 0]	n/a	catFR1	1	R1239E
685.536	0.935	714611	WORD_OFF	n/a	n/a	OAK	n/a	8	6	[0, 0, 0]	n/a	catFR1	1	R1239E
686.471	1.6	715546	WORD	n/a	wordpools/wordpool_categorized_EN.txt	LIGHTNING	Weather	9	6	[0, 0, 0]	n/a	catFR1	1	R1239E
688.087	0.983	717162	WORD_OFF	n/a	n/a	LIGHTNING	n/a	9	6	[0, 0, 0]	n/a	catFR1	1	R1239E
689.07	1.6	718145	WORD	n/a	wordpools/wordpool_categorized_EN.txt	SNOW	Weather	10	6	[0, 0, 0]	n/a	catFR1	1	R1239E
690.687	0.933	719762	WORD_OFF	n/a	n/a	SNOW	n/a	10	6	[0, 0, 0]	n/a	catFR1	1	R1239E
691.62	1.6	720695	WORD	n/a	wordpools/wordpool_categorized_EN.txt	ELEPHANT	Zoo	11	6	[0, 0, 0]	n/a	catFR1	1	R1239E
693.237	0.817	722312	WORD_OFF	n/a	n/a	ELEPHANT	n/a	11	6	[0, 0, 0]	n/a	catFR1	1	R1239E
694.054	1.6	723129	WORD	n/a	wordpools/wordpool_categorized_EN.txt	CHIMPANZEE	Zoo	12	6	[0, 0, 0]	n/a	catFR1	1	R1239E
695.671	0.001	724746	WORD_OFF	n/a	n/a	CHIMPANZEE	n/a	12	6	[0, 0, 0]	n/a	catFR1	1	R1239E
695.672	0.176	724747	ENCODING_END	n/a	n/a	n/a	n/a	-999	6	[0, 0, 0]	n/a	catFR1	1	R1239E
695.848	0.001	724923	DISTRACT_START	n/a	n/a	n/a	n/a	-999	6	[0, 0, 0]	n/a	catFR1	1	R1239E
695.849	0.022	724924	START	n/a	n/a	n/a	n/a	-999	6	[-999, -999, -999]	n/a	catFR1	1	R1239E
695.871	4.834	724946	PROB	4.801	n/a	n/a	n/a	-999	6	[2, 7, 6]	16.0	catFR1	1	R1239E
700.705	7.485	729779	PROB	7.458	n/a	n/a	n/a	-999	6	[5, 4, 7]	16.0	catFR1	1	R1239E
708.19	4.201	737264	PROB	4.166	n/a	n/a	n/a	-999	6	[5, 4, 5]	14.0	catFR1	1	R1239E
712.391	3.796	741465	PROB	3.796	n/a	n/a	n/a	-999	6	[1, 5, 4]	10.0	catFR1	1	R1239E
716.187	0.021	745261	STOP	n/a	n/a	n/a	n/a	-999	6	[-999, -999, -999]	n/a	catFR1	1	R1239E
716.208	0.567	745282	DISTRACT_END	n/a	n/a	n/a	n/a	-999	6	[0, 0, 0]	n/a	catFR1	1	R1239E
716.775	0.517	745849	RETRIEVAL_ORIENT	n/a	n/a	n/a	n/a	-999	6	[0, 0, 0]	n/a	catFR1	1	R1239E
717.292	1.421	746366	REC_START	n/a	n/a	n/a	n/a	-999	6	[0, 0, 0]	n/a	catFR1	1	R1239E
718.713	1.0	747787	REC_WORD	1.421	n/a	CHIMPANZEE	Zoo	12	6	[0, 0, 0]	n/a	catFR1	1	R1239E
719.713	0.5	748787	REC_WORD_VV	2.421	n/a	<>	n/a	-999	6	[0, 0, 0]	n/a	catFR1	1	R1239E
720.213	1.874	749287	REC_WORD	2.921	n/a	LION	Zoo	5	6	[0, 0, 0]	n/a	catFR1	1	R1239E
722.087	1.193	751161	REC_WORD	4.795	n/a	FOG	Weather	3	6	[0, 0, 0]	n/a	catFR1	1	R1239E
723.28	2.015	752354	REC_WORD	5.988	n/a	CLOUD	Weather	4	6	[0, 0, 0]	n/a	catFR1	1	R1239E
725.295	1.38	754368	REC_WORD	8.003	n/a	CYPRESS	Trees	1	6	[0, 0, 0]	n/a	catFR1	1	R1239E
726.675	5.62	755748	REC_WORD	9.383	n/a	ELM	Trees	2	6	[0, 0, 0]	n/a	catFR1	1	R1239E
732.295	15.007	761368	REC_WORD	15.003	n/a	LION	Zoo	5	6	[0, 0, 0]	n/a	catFR1	1	R1239E
747.302	5.296	776375	REC_END	n/a	n/a	n/a	n/a	-999	6	[0, 0, 0]	n/a	catFR1	1	R1239E
752.598	0.5	781670	TRIAL	n/a	n/a	n/a	n/a	-999	7	[0, 0, 0]	n/a	catFR1	1	R1239E
753.098	10.0	782170	COUNTDOWN_START	n/a	n/a	n/a	n/a	-999	7	[0, 0, 0]	n/a	catFR1	1	R1239E
763.526	0.007	792598	COUNTDOWN_END	n/a	n/a	n/a	n/a	-999	7	[0, 0, 0]	n/a	catFR1	1	R1239E
763.533	1.6	792605	ORIENT	n/a	n/a	n/a	n/a	-999	7	[0, 0, 0]	n/a	catFR1	1	R1239E
765.15	1.817	794222	ORIENT_OFF	n/a	n/a	n/a	n/a	-999	7	[0, 0, 0]	n/a	catFR1	1	R1239E
766.967	1.6	796039	WORD	n/a	wordpools/wordpool_categorized_EN.txt	STEREO	Electronics	1	7	[0, 0, 0]	n/a	catFR1	1	R1239E
768.584	0.8	797656	WORD_OFF	n/a	n/a	STEREO	n/a	1	7	[0, 0, 0]	n/a	catFR1	1	R1239E
769.384	1.6	798456	WORD	n/a	wordpools/wordpool_categorized_EN.txt	PRINTER	Electronics	2	7	[0, 0, 0]	n/a	catFR1	1	R1239E
771.001	0.784	800073	WORD_OFF	n/a	n/a	PRINTER	n/a	2	7	[0, 0, 0]	n/a	catFR1	1	R1239E
771.785	1.6	800857	WORD	n/a	wordpools/wordpool_categorized_EN.txt	FOOTBALL	Toys	3	7	[0, 0, 0]	n/a	catFR1	1	R1239E
773.401	0.834	802473	WORD_OFF	n/a	n/a	FOOTBALL	n/a	3	7	[0, 0, 0]	n/a	catFR1	1	R1239E
774.235	1.6	803307	WORD	n/a	wordpools/wordpool_categorized_EN.txt	PUZZLE	Toys	4	7	[0, 0, 0]	n/a	catFR1	1	R1239E
775.852	0.833	804924	WORD_OFF	n/a	n/a	PUZZLE	n/a	4	7	[0, 0, 0]	n/a	catFR1	1	R1239E
776.685	1.6	805757	WORD	n/a	wordpools/wordpool_categorized_EN.txt	LADYBUG	Insects	5	7	[0, 0, 0]	n/a	catFR1	1	R1239E
778.302	0.85	807373	WORD_OFF	n/a	n/a	LADYBUG	n/a	5	7	[0, 0, 0]	n/a	catFR1	1	R1239E
779.152	1.6	808223	WORD	n/a	wordpools/wordpool_categorized_EN.txt	GNAT	Insects	6	7	[0, 0, 0]	n/a	catFR1	1	R1239E
780.769	0.801	809840	WORD_OFF	n/a	n/a	GNAT	n/a	6	7	[0, 0, 0]	n/a	catFR1	1	R1239E
781.57	1.6	810641	WORD	n/a	wordpools/wordpool_categorized_EN.txt	SLINKY	Toys	7	7	[0, 0, 0]	n/a	catFR1	1	R1239E
783.187	0.883	812258	WORD_OFF	n/a	n/a	SLINKY	n/a	7	7	[0, 0, 0]	n/a	catFR1	1	R1239E
784.07	1.6	813141	WORD	n/a	wordpools/wordpool_categorized_EN.txt	FRISBEE	Toys	8	7	[0, 0, 0]	n/a	catFR1	1	R1239E
785.687	0.883	814758	WORD_OFF	n/a	n/a	FRISBEE	n/a	8	7	[0, 0, 0]	n/a	catFR1	1	R1239E
786.57	1.6	815641	WORD	n/a	wordpools/wordpool_categorized_EN.txt	MICROWAVE	Electronics	9	7	[0, 0, 0]	n/a	catFR1	1	R1239E
788.187	0.951	817258	WORD_OFF	n/a	n/a	MICROWAVE	n/a	9	7	[0, 0, 0]	n/a	catFR1	1	R1239E
789.138	1.6	818209	WORD	n/a	wordpools/wordpool_categorized_EN.txt	PHONE	Electronics	10	7	[0, 0, 0]	n/a	catFR1	1	R1239E
790.755	0.8	819826	WORD_OFF	n/a	n/a	PHONE	n/a	10	7	[0, 0, 0]	n/a	catFR1	1	R1239E
791.555	1.6	820626	WORD	n/a	wordpools/wordpool_categorized_EN.txt	ANT	Insects	11	7	[0, 0, 0]	n/a	catFR1	1	R1239E
793.172	0.833	822243	WORD_OFF	n/a	n/a	ANT	n/a	11	7	[0, 0, 0]	n/a	catFR1	1	R1239E
794.005	1.6	823076	WORD	n/a	wordpools/wordpool_categorized_EN.txt	CRICKET	Insects	12	7	[0, 0, 0]	n/a	catFR1	1	R1239E
795.622	0.0	824693	ENCODING_END	n/a	n/a	n/a	n/a	-999	7	[0, 0, 0]	n/a	catFR1	1	R1239E
795.622	0.17	824693	WORD_OFF	n/a	n/a	CRICKET	n/a	12	7	[0, 0, 0]	n/a	catFR1	1	R1239E
795.792	0.0	824863	DISTRACT_START	n/a	n/a	n/a	n/a	-999	7	[0, 0, 0]	n/a	catFR1	1	R1239E
795.792	0.013	824863	START	n/a	n/a	n/a	n/a	-999	7	[-999, -999, -999]	n/a	catFR1	1	R1239E
795.805	6.885	824876	PROB	6.856	n/a	n/a	n/a	-999	7	[5, 4, 2]	11.0	catFR1	1	R1239E
802.69	3.351	831760	PROB	3.324	n/a	n/a	n/a	-999	7	[7, 6, 1]	14.0	catFR1	1	R1239E
806.041	2.75	835111	PROB	2.717	n/a	n/a	n/a	-999	7	[1, 2, 5]	8.0	catFR1	1	R1239E
808.791	5.434	837861	PROB	5.409	n/a	n/a	n/a	-999	7	[4, 8, 9]	21.0	catFR1	1	R1239E
814.225	6.919	843295	PROB	6.919	n/a	n/a	n/a	-999	7	[8, 7, 5]	20.0	catFR1	1	R1239E
821.144	0.016	850214	STOP	n/a	n/a	n/a	n/a	-999	7	[-999, -999, -999]	n/a	catFR1	1	R1239E
821.16	0.567	850230	DISTRACT_END	n/a	n/a	n/a	n/a	-999	7	[0, 0, 0]	n/a	catFR1	1	R1239E
821.727	0.517	850797	RETRIEVAL_ORIENT	n/a	n/a	n/a	n/a	-999	7	[0, 0, 0]	n/a	catFR1	1	R1239E
822.244	0.319	851314	REC_START	n/a	n/a	n/a	n/a	-999	7	[0, 0, 0]	n/a	catFR1	1	R1239E
822.563	0.825	851633	REC_WORD	0.319	n/a	STEREO	Electronics	1	7	[0, 0, 0]	n/a	catFR1	1	R1239E
823.388	1.2	852458	REC_WORD	1.144	n/a	PRINTER	Electronics	2	7	[0, 0, 0]	n/a	catFR1	1	R1239E
824.588	3.526	853658	REC_WORD	2.344	n/a	FOOTBALL	Toys	3	7	[0, 0, 0]	n/a	catFR1	1	R1239E
828.114	3.067	857184	REC_WORD	5.87	n/a	LADYBUG	Insects	5	7	[0, 0, 0]	n/a	catFR1	1	R1239E
831.181	21.072	860250	REC_WORD	8.937	n/a	GNAT	Insects	6	7	[0, 0, 0]	n/a	catFR1	1	R1239E
852.253	4.247	881322	REC_END	n/a	n/a	n/a	n/a	-999	7	[0, 0, 0]	n/a	catFR1	1	R1239E
856.5	0.5	885568	TRIAL	n/a	n/a	n/a	n/a	-999	8	[0, 0, 0]	n/a	catFR1	1	R1239E
857.0	10.0	886068	COUNTDOWN_START	n/a	n/a	n/a	n/a	-999	8	[0, 0, 0]	n/a	catFR1	1	R1239E
867.428	0.007	896496	COUNTDOWN_END	n/a	n/a	n/a	n/a	-999	8	[0, 0, 0]	n/a	catFR1	1	R1239E
867.435	1.6	896503	ORIENT	n/a	n/a	n/a	n/a	-999	8	[0, 0, 0]	n/a	catFR1	1	R1239E
869.052	2.317	898120	ORIENT_OFF	n/a	n/a	n/a	n/a	-999	8	[0, 0, 0]	n/a	catFR1	1	R1239E
871.369	1.6	900437	WORD	n/a	wordpools/wordpool_categorized_EN.txt	BANANA	Fruit	1	8	[0, 0, 0]	n/a	catFR1	1	R1239E
872.986	0.766	902054	WORD_OFF	n/a	n/a	BANANA	n/a	1	8	[0, 0, 0]	n/a	catFR1	1	R1239E
873.752	1.6	902820	WORD	n/a	wordpools/wordpool_categorized_EN.txt	PEAR	Fruit	2	8	[0, 0, 0]	n/a	catFR1	1	R1239E
875.369	0.984	904437	WORD_OFF	n/a	n/a	PEAR	n/a	2	8	[0, 0, 0]	n/a	catFR1	1	R1239E
876.353	1.6	905421	WORD	n/a	wordpools/wordpool_categorized_EN.txt	GRATER	KitchenTools	3	8	[0, 0, 0]	n/a	catFR1	1	R1239E
877.97	0.817	907038	WORD_OFF	n/a	n/a	GRATER	n/a	3	8	[0, 0, 0]	n/a	catFR1	1	R1239E
878.787	1.6	907855	WORD	n/a	wordpools/wordpool_categorized_EN.txt	FORK	KitchenTools	4	8	[0, 0, 0]	n/a	catFR1	1	R1239E
880.404	1.0	909471	WORD_OFF	n/a	n/a	FORK	n/a	4	8	[0, 0, 0]	n/a	catFR1	1	R1239E
881.404	1.6	910471	WORD	n/a	wordpools/wordpool_categorized_EN.txt	ORGAN	Instruments	5	8	[0, 0, 0]	n/a	catFR1	1	R1239E
883.021	0.816	912088	WORD_OFF	n/a	n/a	ORGAN	n/a	5	8	[0, 0, 0]	n/a	catFR1	1	R1239E
883.837	1.6	912904	WORD	n/a	wordpools/wordpool_categorized_EN.txt	TUBA	Instruments	6	8	[0, 0, 0]	n/a	catFR1	1	R1239E
885.455	0.833	914522	WORD_OFF	n/a	n/a	TUBA	n/a	6	8	[0, 0, 0]	n/a	catFR1	1	R1239E
886.288	1.6	915355	WORD	n/a	wordpools/wordpool_categorized_EN.txt	PEELER	KitchenTools	7	8	[0, 0, 0]	n/a	catFR1	1	R1239E
887.905	0.833	916972	WORD_OFF	n/a	n/a	PEELER	n/a	7	8	[0, 0, 0]	n/a	catFR1	1	R1239E
888.738	1.6	917805	WORD	n/a	wordpools/wordpool_categorized_EN.txt	SPOON	KitchenTools	8	8	[0, 0, 0]	n/a	catFR1	1	R1239E
890.355	0.967	919422	WORD_OFF	n/a	n/a	SPOON	n/a	8	8	[0, 0, 0]	n/a	catFR1	1	R1239E
891.322	1.6	920389	WORD	n/a	wordpools/wordpool_categorized_EN.txt	LEMON	Fruit	9	8	[0, 0, 0]	n/a	catFR1	1	R1239E
892.939	0.984	922006	WORD_OFF	n/a	n/a	LEMON	n/a	9	8	[0, 0, 0]	n/a	catFR1	1	R1239E
893.923	1.6	922990	WORD	n/a	wordpools/wordpool_categorized_EN.txt	GRAPE	Fruit	10	8	[0, 0, 0]	n/a	catFR1	1	R1239E
895.54	0.9	924607	WORD_OFF	n/a	n/a	GRAPE	n/a	10	8	[0, 0, 0]	n/a	catFR1	1	R1239E
896.44	1.6	925507	WORD	n/a	wordpools/wordpool_categorized_EN.txt	BANJO	Instruments	11	8	[0, 0, 0]	n/a	catFR1	1	R1239E
898.057	0.783	927124	WORD_OFF	n/a	n/a	BANJO	n/a	11	8	[0, 0, 0]	n/a	catFR1	1	R1239E
898.84	1.6	927907	WORD	n/a	wordpools/wordpool_categorized_EN.txt	TROMBONE	Instruments	12	8	[0, 0, 0]	n/a	catFR1	1	R1239E
900.457	0.0	929524	ENCODING_END	n/a	n/a	n/a	n/a	-999	8	[0, 0, 0]	n/a	catFR1	1	R1239E
900.457	0.134	929524	WORD_OFF	n/a	n/a	TROMBONE	n/a	12	8	[0, 0, 0]	n/a	catFR1	1	R1239E
900.591	0.001	929658	DISTRACT_START	n/a	n/a	n/a	n/a	-999	8	[0, 0, 0]	n/a	catFR1	1	R1239E
900.592	0.015	929659	START	n/a	n/a	n/a	n/a	-999	8	[-999, -999, -999]	n/a	catFR1	1	R1239E
900.607	3.601	929674	PROB	3.568	n/a	n/a	n/a	-999	8	[5, 2, 8]	15.0	catFR1	1	R1239E
904.208	4.734	933275	PROB	4.696	n/a	n/a	n/a	-999	8	[1, 3, 6]	10.0	catFR1	1	R1239E
908.942	5.834	938008	PROB	5.801	n/a	n/a	n/a	-999	8	[7, 5, 1]	13.0	catFR1	1	R1239E
914.776	4.284	943842	PROB	4.256	n/a	n/a	n/a	-999	8	[7, 6, 2]	15.0	catFR1	1	R1239E
919.06	2.98	948126	PROB	2.98	n/a	n/a	n/a	-999	8	[1, 2, 7]	10.0	catFR1	1	R1239E
922.04	0.021	951106	STOP	n/a	n/a	n/a	n/a	-999	8	[-999, -999, -999]	n/a	catFR1	1	R1239E
922.061	0.65	951127	DISTRACT_END	n/a	n/a	n/a	n/a	-999	8	[0, 0, 0]	n/a	catFR1	1	R1239E
922.711	0.52	951777	RETRIEVAL_ORIENT	n/a	n/a	n/a	n/a	-999	8	[0, 0, 0]	n/a	catFR1	1	R1239E
923.231	3.01	952297	REC_START	n/a	n/a	n/a	n/a	-999	8	[0, 0, 0]	n/a	catFR1	1	R1239E
926.241	26.997	955307	REC_WORD	3.01	n/a	BANANA	Fruit	1	8	[0, 0, 0]	n/a	catFR1	1	R1239E
953.238	9.33	982303	REC_END	n/a	n/a	n/a	n/a	-999	8	[0, 0, 0]	n/a	catFR1	1	R1239E
962.568	0.5	991632	TRIAL	n/a	n/a	n/a	n/a	-999	9	[0, 0, 0]	n/a	catFR1	1	R1239E
963.068	10.0	992132	COUNTDOWN_START	n/a	n/a	n/a	n/a	-999	9	[0, 0, 0]	n/a	catFR1	1	R1239E
973.496	0.008	1002560	COUNTDOWN_END	n/a	n/a	n/a	n/a	-999	9	[0, 0, 0]	n/a	catFR1	1	R1239E
973.504	1.6	1002568	ORIENT	n/a	n/a	n/a	n/a	-999	9	[0, 0, 0]	n/a	catFR1	1	R1239E
975.12	2.017	1004184	ORIENT_OFF	n/a	n/a	n/a	n/a	-999	9	[0, 0, 0]	n/a	catFR1	1	R1239E
977.137	1.6	1006201	WORD	n/a	wordpools/wordpool_categorized_EN.txt	RIVER	Landscapes	1	9	[0, 0, 0]	n/a	catFR1	1	R1239E
978.754	0.767	1007818	WORD_OFF	n/a	n/a	RIVER	n/a	1	9	[0, 0, 0]	n/a	catFR1	1	R1239E
979.521	1.6	1008585	WORD	n/a	wordpools/wordpool_categorized_EN.txt	OCEAN	Landscapes	2	9	[0, 0, 0]	n/a	catFR1	1	R1239E
981.138	0.8	1010202	WORD_OFF	n/a	n/a	OCEAN	n/a	2	9	[0, 0, 0]	n/a	catFR1	1	R1239E
981.938	1.6	1011002	WORD	n/a	wordpools/wordpool_categorized_EN.txt	WINDOW	Building	3	9	[0, 0, 0]	n/a	catFR1	1	R1239E
983.555	0.984	1012619	WORD_OFF	n/a	n/a	WINDOW	n/a	3	9	[0, 0, 0]	n/a	catFR1	1	R1239E
984.539	1.6	1013602	WORD	n/a	wordpools/wordpool_categorized_EN.txt	FOUNDATION	Building	4	9	[0, 0, 0]	n/a	catFR1	1	R1239E
986.156	0.866	1015219	WORD_OFF	n/a	n/a	FOUNDATION	n/a	4	9	[0, 0, 0]	n/a	catFR1	1	R1239E
987.022	1.6	1016085	WORD	n/a	wordpools/wordpool_categorized_EN.txt	STRAINER	KitchenTools	5	9	[0, 0, 0]	n/a	catFR1	1	R1239E
988.639	0.967	1017702	WORD_OFF	n/a	n/a	STRAINER	n/a	5	9	[0, 0, 0]	n/a	catFR1	1	R1239E
989.606	1.6	1018669	WORD	n/a	wordpools/wordpool_categorized_EN.txt	COLANDER	KitchenTools	6	9	[0, 0, 0]	n/a	catFR1	1	R1239E
991.223	0.9	1020286	WORD_OFF	n/a	n/a	COLANDER	n/a	6	9	[0, 0, 0]	n/a	catFR1	1	R1239E
992.123	1.6	1021186	WORD	n/a	wordpools/wordpool_categorized_EN.txt	HILLS	Landscapes	7	9	[0, 0, 0]	n/a	catFR1	1	R1239E
993.74	1.0	1022803	WORD_OFF	n/a	n/a	HILLS	n/a	7	9	[0, 0, 0]	n/a	catFR1	1	R1239E
994.74	1.6	1023803	WORD	n/a	wordpools/wordpool_categorized_EN.txt	WOODS	Landscapes	8	9	[0, 0, 0]	n/a	catFR1	1	R1239E
996.357	0.867	1025420	WORD_OFF	n/a	n/a	WOODS	n/a	8	9	[0, 0, 0]	n/a	catFR1	1	R1239E
997.224	1.6	1026287	WORD	n/a	wordpools/wordpool_categorized_EN.txt	ROOM	Building	9	9	[0, 0, 0]	n/a	catFR1	1	R1239E
998.841	0.817	1027904	WORD_OFF	n/a	n/a	ROOM	n/a	9	9	[0, 0, 0]	n/a	catFR1	1	R1239E
999.658	1.6	1028721	WORD	n/a	wordpools/wordpool_categorized_EN.txt	STAIRS	Building	10	9	[0, 0, 0]	n/a	catFR1	1	R1239E
1001.275	0.817	1030338	WORD_OFF	n/a	n/a	STAIRS	n/a	10	9	[0, 0, 0]	n/a	catFR1	1	R1239E
1002.092	1.6	1031155	WORD	n/a	wordpools/wordpool_categorized_EN.txt	KNIFE	KitchenTools	11	9	[0, 0, 0]	n/a	catFR1	1	R1239E
1003.709	0.866	1032772	WORD_OFF	n/a	n/a	KNIFE	n/a	11	9	[0, 0, 0]	n/a	catFR1	1	R1239E
1004.575	1.6	1033638	WORD	n/a	wordpools/wordpool_categorized_EN.txt	TONGS	KitchenTools	12	9	[0, 0, 0]	n/a	catFR1	1	R1239E
1006.192	0.001	1035255	WORD_OFF	n/a	n/a	TONGS	n/a	12	9	[0, 0, 0]	n/a	catFR1	1	R1239E
1006.193	0.173	1035256	ENCODING_END	n/a	n/a	n/a	n/a	-999	9	[0, 0, 0]	n/a	catFR1	1	R1239E
1006.366	0.0	1035429	DISTRACT_START	n/a	n/a	n/a	n/a	-999	9	[0, 0, 0]	n/a	catFR1	1	R1239E
1006.366	0.01	1035429	START	n/a	n/a	n/a	n/a	-999	9	[-999, -999, -999]	n/a	catFR1	1	R1239E
1006.376	4.0	1035439	PROB	3.967	n/a	n/a	n/a	-999	9	[4, 8, 4]	16.0	catFR1	1	R1239E
1010.376	9.219	1039438	PROB	9.19	n/a	n/a	n/a	-999	9	[4, 4, 9]	17.0	catFR1	1	R1239E
1019.595	19.255	1048657	PROB	19.255	n/a	n/a	n/a	-999	9	[3, 5, 3]	11.0	catFR1	1	R1239E
1038.85	0.015	1067911	STOP	n/a	n/a	n/a	n/a	-999	9	[-999, -999, -999]	n/a	catFR1	1	R1239E
1038.865	0.55	1067926	DISTRACT_END	n/a	n/a	n/a	n/a	-999	9	[0, 0, 0]	n/a	catFR1	1	R1239E
1039.415	0.517	1068476	RETRIEVAL_ORIENT	n/a	n/a	n/a	n/a	-999	9	[0, 0, 0]	n/a	catFR1	1	R1239E
1039.932	3.074	1068993	REC_START	n/a	n/a	n/a	n/a	-999	9	[0, 0, 0]	n/a	catFR1	1	R1239E
1043.006	1.952	1072067	REC_WORD_VV	3.074	n/a	<>	n/a	-999	9	[0, 0, 0]	n/a	catFR1	1	R1239E
1044.958	24.983	1074019	REC_WORD	5.026	n/a	WRITER	n/a	-999	9	[0, 0, 0]	n/a	catFR1	1	R1239E
1069.941	23.933	1099001	REC_END	n/a	n/a	n/a	n/a	-999	9	[0, 0, 0]	n/a	catFR1	1	R1239E
1093.874	0.5	1122933	TRIAL	n/a	n/a	n/a	n/a	-999	10	[0, 0, 0]	n/a	catFR1	1	R1239E
1094.374	10.0	1123433	COUNTDOWN_START	n/a	n/a	n/a	n/a	-999	10	[0, 0, 0]	n/a	catFR1	1	R1239E
1104.802	0.008	1133861	COUNTDOWN_END	n/a	n/a	n/a	n/a	-999	10	[0, 0, 0]	n/a	catFR1	1	R1239E
1104.81	1.6	1133869	ORIENT	n/a	n/a	n/a	n/a	-999	10	[0, 0, 0]	n/a	catFR1	1	R1239E
1106.427	1.933	1135486	ORIENT_OFF	n/a	n/a	n/a	n/a	-999	10	[0, 0, 0]	n/a	catFR1	1	R1239E
1108.36	1.6	1137419	WORD	n/a	wordpools/wordpool_categorized_EN.txt	ISLAND	Landscapes	1	10	[0, 0, 0]	n/a	catFR1	1	R1239E
1109.977	0.767	1139036	WORD_OFF	n/a	n/a	ISLAND	n/a	1	10	[0, 0, 0]	n/a	catFR1	1	R1239E
1110.744	1.6	1139803	WORD	n/a	wordpools/wordpool_categorized_EN.txt	MOUNTAIN	Landscapes	2	10	[0, 0, 0]	n/a	catFR1	1	R1239E
1112.361	0.817	1141420	WORD_OFF	n/a	n/a	MOUNTAIN	n/a	2	10	[0, 0, 0]	n/a	catFR1	1	R1239E
1113.178	1.6	1142236	WORD	n/a	wordpools/wordpool_categorized_EN.txt	KNEE	BodyParts	3	10	[0, 0, 0]	n/a	catFR1	1	R1239E
1114.795	0.8	1143853	WORD_OFF	n/a	n/a	KNEE	n/a	3	10	[0, 0, 0]	n/a	catFR1	1	R1239E
1115.595	1.6	1144653	WORD	n/a	wordpools/wordpool_categorized_EN.txt	FINGERS	BodyParts	4	10	[0, 0, 0]	n/a	catFR1	1	R1239E
1117.212	0.933	1146270	WORD_OFF	n/a	n/a	FINGERS	n/a	4	10	[0, 0, 0]	n/a	catFR1	1	R1239E
1118.145	1.6	1147203	WORD	n/a	wordpools/wordpool_categorized_EN.txt	JEANS	Clothing	5	10	[0, 0, 0]	n/a	catFR1	1	R1239E
1119.762	0.983	1148820	WORD_OFF	n/a	n/a	JEANS	n/a	5	10	[0, 0, 0]	n/a	catFR1	1	R1239E
1120.745	1.6	1149803	WORD	n/a	wordpools/wordpool_categorized_EN.txt	PANTS	Clothing	6	10	[0, 0, 0]	n/a	catFR1	1	R1239E
1122.363	0.933	1151421	WORD_OFF	n/a	n/a	PANTS	n/a	6	10	[0, 0, 0]	n/a	catFR1	1	R1239E
1123.296	1.6	1152354	WORD	n/a	wordpools/wordpool_categorized_EN.txt	LAKE	Landscapes	7	10	[0, 0, 0]	n/a	catFR1	1	R1239E
1124.913	0.85	1153971	WORD_OFF	n/a	n/a	LAKE	n/a	7	10	[0, 0, 0]	n/a	catFR1	1	R1239E
1125.763	1.6	1154821	WORD	n/a	wordpools/wordpool_categorized_EN.txt	CREEK	Landscapes	8	10	[0, 0, 0]	n/a	catFR1	1	R1239E
1127.38	0.85	1156438	WORD_OFF	n/a	n/a	CREEK	n/a	8	10	[0, 0, 0]	n/a	catFR1	1	R1239E
1128.23	1.6	1157288	WORD	n/a	wordpools/wordpool_categorized_EN.txt	EYE	BodyParts	9	10	[0, 0, 0]	n/a	catFR1	1	R1239E
1129.847	0.867	1158905	WORD_OFF	n/a	n/a	EYE	n/a	9	10	[0, 0, 0]	n/a	catFR1	1	R1239E
1130.714	1.6	1159772	WORD	n/a	wordpools/wordpool_categorized_EN.txt	NOSE	BodyParts	10	10	[0, 0, 0]	n/a	catFR1	1	R1239E
1132.331	0.784	1161389	WORD_OFF	n/a	n/a	NOSE	n/a	10	10	[0, 0, 0]	n/a	catFR1	1	R1239E
1133.115	1.6	1162173	WORD	n/a	wordpools/wordpool_categorized_EN.txt	BLOUSE	Clothing	11	10	[0, 0, 0]	n/a	catFR1	1	R1239E
1134.732	0.833	1163790	WORD_OFF	n/a	n/a	BLOUSE	n/a	11	10	[0, 0, 0]	n/a	catFR1	1	R1239E
1135.565	1.6	1164623	WORD	n/a	wordpools/wordpool_categorized_EN.txt	UNDERWEAR	Clothing	12	10	[0, 0, 0]	n/a	catFR1	1	R1239E
1137.182	0.0	1166240	ENCODING_END	n/a	n/a	n/a	n/a	-999	10	[0, 0, 0]	n/a	catFR1	1	R1239E
1137.182	0.136	1166240	WORD_OFF	n/a	n/a	UNDERWEAR	n/a	12	10	[0, 0, 0]	n/a	catFR1	1	R1239E
1137.318	0.0	1166376	DISTRACT_START	n/a	n/a	n/a	n/a	-999	10	[0, 0, 0]	n/a	catFR1	1	R1239E
1137.318	0.014	1166376	START	n/a	n/a	n/a	n/a	-999	10	[-999, -999, -999]	n/a	catFR1	1	R1239E
1137.332	3.084	1166390	PROB	3.052	n/a	n/a	n/a	-999	10	[1, 2, 4]	7.0	catFR1	1	R1239E
1140.416	2.35	1169473	PROB	2.32	n/a	n/a	n/a	-999	10	[5, 1, 1]	7.0	catFR1	1	R1239E
1142.766	3.418	1171823	PROB	3.386	n/a	n/a	n/a	-999	10	[2, 2, 9]	13.0	catFR1	1	R1239E
1146.184	2.75	1175241	PROB	2.721	n/a	n/a	n/a	-999	10	[2, 1, 4]	7.0	catFR1	1	R1239E
1148.934	15.918	1177991	PROB	15.918	n/a	n/a	n/a	-999	10	[7, 8, 7]	22.0	catFR1	1	R1239E
1164.852	0.018	1193908	STOP	n/a	n/a	n/a	n/a	-999	10	[-999, -999, -999]	n/a	catFR1	1	R1239E
1164.87	0.517	1193926	DISTRACT_END	n/a	n/a	n/a	n/a	-999	10	[0, 0, 0]	n/a	catFR1	1	R1239E
1165.387	0.517	1194443	RETRIEVAL_ORIENT	n/a	n/a	n/a	n/a	-999	10	[0, 0, 0]	n/a	catFR1	1	R1239E
1165.904	2.188	1194960	REC_START	n/a	n/a	n/a	n/a	-999	10	[0, 0, 0]	n/a	catFR1	1	R1239E
1168.092	1.31	1197148	REC_WORD	2.188	n/a	JEANS	Clothing	5	10	[0, 0, 0]	n/a	catFR1	1	R1239E
1169.402	1.0	1198458	REC_WORD	3.498	n/a	PANTS	Clothing	6	10	[0, 0, 0]	n/a	catFR1	1	R1239E
1170.402	10.269	1199458	REC_WORD_VV	4.498	n/a	<>	n/a	-999	10	[0, 0, 0]	n/a	catFR1	1	R1239E
1180.671	1.236	1209727	REC_WORD	14.767	n/a	ISLAND	Landscapes	1	10	[0, 0, 0]	n/a	catFR1	1	R1239E
1181.907	14.007	1210963	REC_WORD	16.003	n/a	MOUNTAIN	Landscapes	2	10	[0, 0, 0]	n/a	catFR1	1	R1239E
1195.914	4.162	1224969	REC_END	n/a	n/a	n/a	n/a	-999	10	[0, 0, 0]	n/a	catFR1	1	R1239E
1200.076	0.5	1229131	TRIAL	n/a	n/a	n/a	n/a	-999	11	[0, 0, 0]	n/a	catFR1	1	R1239E
1200.576	10.0	1229631	COUNTDOWN_START	n/a	n/a	n/a	n/a	-999	11	[0, 0, 0]	n/a	catFR1	1	R1239E
1211.004	0.008	1240059	COUNTDOWN_END	n/a	n/a	n/a	n/a	-999	11	[0, 0, 0]	n/a	catFR1	1	R1239E
1211.012	1.6	1240067	ORIENT	n/a	n/a	n/a	n/a	-999	11	[0, 0, 0]	n/a	catFR1	1	R1239E
1212.629	2.15	1241684	ORIENT_OFF	n/a	n/a	n/a	n/a	-999	11	[0, 0, 0]	n/a	catFR1	1	R1239E
1214.779	1.6	1243834	WORD	n/a	wordpools/wordpool_categorized_EN.txt	DOVE	Birds	1	11	[0, 0, 0]	n/a	catFR1	1	R1239E
1216.396	0.85	1245451	WORD_OFF	n/a	n/a	DOVE	n/a	1	11	[0, 0, 0]	n/a	catFR1	1	R1239E
1217.246	1.6	1246300	WORD	n/a	wordpools/wordpool_categorized_EN.txt	HAWK	Birds	2	11	[0, 0, 0]	n/a	catFR1	1	R1239E
1218.863	0.8	1247917	WORD_OFF	n/a	n/a	HAWK	n/a	2	11	[0, 0, 0]	n/a	catFR1	1	R1239E
1219.663	1.6	1248717	WORD	n/a	wordpools/wordpool_categorized_EN.txt	COBBLER	Desserts	3	11	[0, 0, 0]	n/a	catFR1	1	R1239E
1221.28	0.934	1250334	WORD_OFF	n/a	n/a	COBBLER	n/a	3	11	[0, 0, 0]	n/a	catFR1	1	R1239E
1222.214	1.6	1251268	WORD	n/a	wordpools/wordpool_categorized_EN.txt	BROWNIES	Desserts	4	11	[0, 0, 0]	n/a	catFR1	1	R1239E
1223.831	0.966	1252885	WORD_OFF	n/a	n/a	BROWNIES	n/a	4	11	[0, 0, 0]	n/a	catFR1	1	R1239E
1224.797	1.6	1253851	WORD	n/a	wordpools/wordpool_categorized_EN.txt	PEACH	Fruit	5	11	[0, 0, 0]	n/a	catFR1	1	R1239E
1226.414	0.984	1255468	WORD_OFF	n/a	n/a	PEACH	n/a	5	11	[0, 0, 0]	n/a	catFR1	1	R1239E
1227.398	1.6	1256452	WORD	n/a	wordpools/wordpool_categorized_EN.txt	BLUEBERRY	Fruit	6	11	[0, 0, 0]	n/a	catFR1	1	R1239E
1229.015	0.95	1258069	WORD_OFF	n/a	n/a	BLUEBERRY	n/a	6	11	[0, 0, 0]	n/a	catFR1	1	R1239E
1229.965	1.6	1259019	WORD	n/a	wordpools/wordpool_categorized_EN.txt	COOKIE	Desserts	7	11	[0, 0, 0]	n/a	catFR1	1	R1239E
1231.582	0.867	1260636	WORD_OFF	n/a	n/a	COOKIE	n/a	7	11	[0, 0, 0]	n/a	catFR1	1	R1239E
1232.449	1.6	1261503	WORD	n/a	wordpools/wordpool_categorized_EN.txt	PASTRY	Desserts	8	11	[0, 0, 0]	n/a	catFR1	1	R1239E
1234.066	0.916	1263120	WORD_OFF	n/a	n/a	PASTRY	n/a	8	11	[0, 0, 0]	n/a	catFR1	1	R1239E
1234.982	1.6	1264036	WORD	n/a	wordpools/wordpool_categorized_EN.txt	DUCK	Birds	9	11	[0, 0, 0]	n/a	catFR1	1	R1239E
1236.599	0.817	1265653	WORD_OFF	n/a	n/a	DUCK	n/a	9	11	[0, 0, 0]	n/a	catFR1	1	R1239E
1237.416	1.6	1266470	WORD	n/a	wordpools/wordpool_categorized_EN.txt	ROBIN	Birds	10	11	[0, 0, 0]	n/a	catFR1	1	R1239E
1239.033	0.867	1268087	WORD_OFF	n/a	n/a	ROBIN	n/a	10	11	[0, 0, 0]	n/a	catFR1	1	R1239E
1239.9	1.6	1268954	WORD	n/a	wordpools/wordpool_categorized_EN.txt	STRAWBERRY	Fruit	11	11	[0, 0, 0]	n/a	catFR1	1	R1239E
1241.501	0.933	1270555	WORD_OFF	n/a	n/a	STRAWBERRY	n/a	11	11	[0, 0, 0]	n/a	catFR1	1	R1239E
1242.434	1.6	1271488	WORD	n/a	wordpools/wordpool_categorized_EN.txt	LIME	Fruit	12	11	[0, 0, 0]	n/a	catFR1	1	R1239E
1244.051	0.0	1273104	ENCODING_END	n/a	n/a	n/a	n/a	-999	11	[0, 0, 0]	n/a	catFR1	1	R1239E
1244.051	0.135	1273104	WORD_OFF	n/a	n/a	LIME	n/a	12	11	[0, 0, 0]	n/a	catFR1	1	R1239E
1244.186	0.0	1273239	DISTRACT_START	n/a	n/a	n/a	n/a	-999	11	[0, 0, 0]	n/a	catFR1	1	R1239E
1244.186	0.015	1273239	START	n/a	n/a	n/a	n/a	-999	11	[-999, -999, -999]	n/a	catFR1	1	R1239E
1244.201	4.367	1273254	PROB	4.331	n/a	n/a	n/a	-999	11	[7, 8, 1]	16.0	catFR1	1	R1239E
1248.568	3.734	1277621	PROB	3.708	n/a	n/a	n/a	-999	11	[9, 7, 1]	17.0	catFR1	1	R1239E
1252.302	3.834	1281355	PROB	3.798	n/a	n/a	n/a	-999	11	[6, 3, 1]	10.0	catFR1	1	R1239E
1256.136	3.034	1285189	PROB	3.004	n/a	n/a	n/a	-999	11	[1, 4, 3]	8.0	catFR1	1	R1239E
1259.17	5.984	1288223	PROB	5.984	n/a	n/a	n/a	-999	11	[6, 8, 3]	17.0	catFR1	1	R1239E
1265.154	0.017	1294207	STOP	n/a	n/a	n/a	n/a	-999	11	[-999, -999, -999]	n/a	catFR1	1	R1239E
1265.171	0.6	1294224	DISTRACT_END	n/a	n/a	n/a	n/a	-999	11	[0, 0, 0]	n/a	catFR1	1	R1239E
1265.771	0.518	1294824	RETRIEVAL_ORIENT	n/a	n/a	n/a	n/a	-999	11	[0, 0, 0]	n/a	catFR1	1	R1239E
1266.289	1.252	1295342	REC_START	n/a	n/a	n/a	n/a	-999	11	[0, 0, 0]	n/a	catFR1	1	R1239E
1267.541	0.469	1296594	REC_WORD	1.252	n/a	PEACH	Fruit	5	11	[0, 0, 0]	n/a	catFR1	1	R1239E
1268.01	0.83	1297063	REC_WORD	1.721	n/a	BLUEBERRY	Fruit	6	11	[0, 0, 0]	n/a	catFR1	1	R1239E
1268.84	0.719	1297892	REC_WORD	2.551	n/a	PASTRY	Desserts	8	11	[0, 0, 0]	n/a	catFR1	1	R1239E
1269.559	11.938	1298611	REC_WORD	3.27	n/a	COOKIE	Desserts	7	11	[0, 0, 0]	n/a	catFR1	1	R1239E
1281.497	0.841	1310549	REC_WORD	15.208	n/a	HAWK	Birds	2	11	[0, 0, 0]	n/a	catFR1	1	R1239E
1282.338	13.959	1311390	REC_WORD	16.049	n/a	DOVE	Birds	1	11	[0, 0, 0]	n/a	catFR1	1	R1239E
1296.297	4.547	1325348	REC_END	n/a	n/a	n/a	n/a	-999	11	[0, 0, 0]	n/a	catFR1	1	R1239E
1300.844	0.5	1329895	TRIAL	n/a	n/a	n/a	n/a	-999	12	[0, 0, 0]	n/a	catFR1	1	R1239E
1301.344	10.0	1330395	COUNTDOWN_START	n/a	n/a	n/a	n/a	-999	12	[0, 0, 0]	n/a	catFR1	1	R1239E
1311.772	0.007	1340823	COUNTDOWN_END	n/a	n/a	n/a	n/a	-999	12	[0, 0, 0]	n/a	catFR1	1	R1239E
1311.779	1.6	1340830	ORIENT	n/a	n/a	n/a	n/a	-999	12	[0, 0, 0]	n/a	catFR1	1	R1239E
1313.396	1.984	1342447	ORIENT_OFF	n/a	n/a	n/a	n/a	-999	12	[0, 0, 0]	n/a	catFR1	1	R1239E
1315.38	1.6	1344431	WORD	n/a	wordpools/wordpool_categorized_EN.txt	SCOOTER	Vehicles	1	12	[0, 0, 0]	n/a	catFR1	1	R1239E
1316.997	0.8	1346048	WORD_OFF	n/a	n/a	SCOOTER	n/a	1	12	[0, 0, 0]	n/a	catFR1	1	R1239E
1317.797	1.6	1346848	WORD	n/a	wordpools/wordpool_categorized_EN.txt	BIKE	Vehicles	2	12	[0, 0, 0]	n/a	catFR1	1	R1239E
1319.414	0.85	1348465	WORD_OFF	n/a	n/a	BIKE	n/a	2	12	[0, 0, 0]	n/a	catFR1	1	R1239E
1320.264	1.6	1349314	WORD	n/a	wordpools/wordpool_categorized_EN.txt	COLA	Beverages	3	12	[0, 0, 0]	n/a	catFR1	1	R1239E
1321.881	0.884	1350931	WORD_OFF	n/a	n/a	COLA	n/a	3	12	[0, 0, 0]	n/a	catFR1	1	R1239E
1322.765	1.6	1351815	WORD	n/a	wordpools/wordpool_categorized_EN.txt	CIDER	Beverages	4	12	[0, 0, 0]	n/a	catFR1	1	R1239E
1324.382	0.883	1353432	WORD_OFF	n/a	n/a	CIDER	n/a	4	12	[0, 0, 0]	n/a	catFR1	1	R1239E
1325.265	1.6	1354315	WORD	n/a	wordpools/wordpool_categorized_EN.txt	DRESSER	Furniture	5	12	[0, 0, 0]	n/a	catFR1	1	R1239E
1326.882	0.833	1355932	WORD_OFF	n/a	n/a	DRESSER	n/a	5	12	[0, 0, 0]	n/a	catFR1	1	R1239E
1327.715	1.6	1356765	WORD	n/a	wordpools/wordpool_categorized_EN.txt	CABINET	Furniture	6	12	[0, 0, 0]	n/a	catFR1	1	R1239E
1329.333	0.95	1358383	WORD_OFF	n/a	n/a	CABINET	n/a	6	12	[0, 0, 0]	n/a	catFR1	1	R1239E
1330.283	1.6	1359333	WORD	n/a	wordpools/wordpool_categorized_EN.txt	TRAIN	Vehicles	7	12	[0, 0, 0]	n/a	catFR1	1	R1239E
1331.9	0.883	1360950	WORD_OFF	n/a	n/a	TRAIN	n/a	7	12	[0, 0, 0]	n/a	catFR1	1	R1239E
1332.783	1.6	1361833	WORD	n/a	wordpools/wordpool_categorized_EN.txt	MOTORCYCLE	Vehicles	8	12	[0, 0, 0]	n/a	catFR1	1	R1239E
1334.4	0.867	1363450	WORD_OFF	n/a	n/a	MOTORCYCLE	n/a	8	12	[0, 0, 0]	n/a	catFR1	1	R1239E
1335.267	1.6	1364317	WORD	n/a	wordpools/wordpool_categorized_EN.txt	COFFEE	Beverages	9	12	[0, 0, 0]	n/a	catFR1	1	R1239E
1336.884	0.783	1365934	WORD_OFF	n/a	n/a	COFFEE	n/a	9	12	[0, 0, 0]	n/a	catFR1	1	R1239E
1337.667	1.6	1366717	WORD	n/a	wordpools/wordpool_categorized_EN.txt	JUICE	Beverages	10	12	[0, 0, 0]	n/a	catFR1	1	R1239E
1339.284	0.984	1368334	WORD_OFF	n/a	n/a	JUICE	n/a	10	12	[0, 0, 0]	n/a	catFR1	1	R1239E
1340.268	1.6	1369318	WORD	n/a	wordpools/wordpool_categorized_EN.txt	COUCH	Furniture	11	12	[0, 0, 0]	n/a	catFR1	1	R1239E
1341.885	1.016	1370935	WORD_OFF	n/a	n/a	COUCH	n/a	11	12	[0, 0, 0]	n/a	catFR1	1	R1239E
1342.901	1.6	1371951	WORD	n/a	wordpools/wordpool_categorized_EN.txt	TABLE	Furniture	12	12	[0, 0, 0]	n/a	catFR1	1	R1239E
1344.503	0.0	1373553	ENCODING_END	n/a	n/a	n/a	n/a	-999	12	[0, 0, 0]	n/a	catFR1	1	R1239E
1344.503	0.173	1373553	WORD_OFF	n/a	n/a	TABLE	n/a	12	12	[0, 0, 0]	n/a	catFR1	1	R1239E
1344.676	0.0	1373726	DISTRACT_START	n/a	n/a	n/a	n/a	-999	12	[0, 0, 0]	n/a	catFR1	1	R1239E
1344.676	0.009	1373726	START	n/a	n/a	n/a	n/a	-999	12	[-999, -999, -999]	n/a	catFR1	1	R1239E
1344.685	5.001	1373735	PROB	4.967	n/a	n/a	n/a	-999	12	[7, 5, 8]	20.0	catFR1	1	R1239E
1349.686	4.284	1378735	PROB	4.246	n/a	n/a	n/a	-999	12	[4, 7, 2]	13.0	catFR1	1	R1239E
1353.97	2.551	1383019	PROB	2.515	n/a	n/a	n/a	-999	12	[4, 6, 1]	11.0	catFR1	1	R1239E
1356.521	2.75	1385570	PROB	2.722	n/a	n/a	n/a	-999	12	[7, 1, 9]	17.0	catFR1	1	R1239E
1359.271	6.492	1388320	PROB	6.492	n/a	n/a	n/a	-999	12	[4, 5, 3]	12.0	catFR1	1	R1239E
1365.763	0.009	1394812	STOP	n/a	n/a	n/a	n/a	-999	12	[-999, -999, -999]	n/a	catFR1	1	R1239E
1365.772	0.584	1394821	DISTRACT_END	n/a	n/a	n/a	n/a	-999	12	[0, 0, 0]	n/a	catFR1	1	R1239E
1366.356	0.517	1395405	RETRIEVAL_ORIENT	n/a	n/a	n/a	n/a	-999	12	[0, 0, 0]	n/a	catFR1	1	R1239E
1366.873	29.743	1395922	REC_START	n/a	n/a	n/a	n/a	-999	12	[0, 0, 0]	n/a	catFR1	1	R1239E
1396.616	0.266	1425664	REC_WORD_VV	29.743	n/a	<>	n/a	-999	12	[0, 0, 0]	n/a	catFR1	1	R1239E
1396.882	7.197	1425930	REC_END	n/a	n/a	n/a	n/a	-999	12	[0, 0, 0]	n/a	catFR1	1	R1239E
1404.079	0.5	1433126	TRIAL	n/a	n/a	n/a	n/a	-999	13	[0, 0, 0]	n/a	catFR1	1	R1239E
1404.579	10.0	1433626	COUNTDOWN_START	n/a	n/a	n/a	n/a	-999	13	[0, 0, 0]	n/a	catFR1	1	R1239E
1415.007	0.007	1444054	COUNTDOWN_END	n/a	n/a	n/a	n/a	-999	13	[0, 0, 0]	n/a	catFR1	1	R1239E
1415.014	1.6	1444061	ORIENT	n/a	n/a	n/a	n/a	-999	13	[0, 0, 0]	n/a	catFR1	1	R1239E
1416.631	2.1	1445678	ORIENT_OFF	n/a	n/a	n/a	n/a	-999	13	[0, 0, 0]	n/a	catFR1	1	R1239E
1418.731	1.6	1447778	WORD	n/a	wordpools/wordpool_categorized_EN.txt	PLIERS	Tools	1	13	[0, 0, 0]	n/a	catFR1	1	R1239E
1420.348	0.834	1449395	WORD_OFF	n/a	n/a	PLIERS	n/a	1	13	[0, 0, 0]	n/a	catFR1	1	R1239E
1421.182	1.6	1450229	WORD	n/a	wordpools/wordpool_categorized_EN.txt	AXE	Tools	2	13	[0, 0, 0]	n/a	catFR1	1	R1239E
1422.799	0.817	1451846	WORD_OFF	n/a	n/a	AXE	n/a	2	13	[0, 0, 0]	n/a	catFR1	1	R1239E
1423.616	1.6	1452662	WORD	n/a	wordpools/wordpool_categorized_EN.txt	GOOSE	Birds	3	13	[0, 0, 0]	n/a	catFR1	1	R1239E
1425.233	0.8	1454279	WORD_OFF	n/a	n/a	GOOSE	n/a	3	13	[0, 0, 0]	n/a	catFR1	1	R1239E
1426.033	1.6	1455079	WORD	n/a	wordpools/wordpool_categorized_EN.txt	FINCH	Birds	4	13	[0, 0, 0]	n/a	catFR1	1	R1239E
1427.65	0.95	1456696	WORD_OFF	n/a	n/a	FINCH	n/a	4	13	[0, 0, 0]	n/a	catFR1	1	R1239E
1428.6	1.6	1457646	WORD	n/a	wordpools/wordpool_categorized_EN.txt	ZEBRA	Zoo	5	13	[0, 0, 0]	n/a	catFR1	1	R1239E
1430.217	0.967	1459263	WORD_OFF	n/a	n/a	ZEBRA	n/a	5	13	[0, 0, 0]	n/a	catFR1	1	R1239E
1431.184	1.6	1460230	WORD	n/a	wordpools/wordpool_categorized_EN.txt	MONKEY	Zoo	6	13	[0, 0, 0]	n/a	catFR1	1	R1239E
1432.801	0.866	1461847	WORD_OFF	n/a	n/a	MONKEY	n/a	6	13	[0, 0, 0]	n/a	catFR1	1	R1239E
1433.667	1.6	1462713	WORD	n/a	wordpools/wordpool_categorized_EN.txt	SAW	Tools	7	13	[0, 0, 0]	n/a	catFR1	1	R1239E
1435.284	0.801	1464330	WORD_OFF	n/a	n/a	SAW	n/a	7	13	[0, 0, 0]	n/a	catFR1	1	R1239E
1436.085	1.6	1465131	WORD	n/a	wordpools/wordpool_categorized_EN.txt	WRENCH	Tools	8	13	[0, 0, 0]	n/a	catFR1	1	R1239E
1437.702	0.9	1466748	WORD_OFF	n/a	n/a	WRENCH	n/a	8	13	[0, 0, 0]	n/a	catFR1	1	R1239E
1438.602	1.6	1467648	WORD	n/a	wordpools/wordpool_categorized_EN.txt	PIGEON	Birds	9	13	[0, 0, 0]	n/a	catFR1	1	R1239E
1440.219	1.0	1469265	WORD_OFF	n/a	n/a	PIGEON	n/a	9	13	[0, 0, 0]	n/a	catFR1	1	R1239E
1441.219	1.6	1470265	WORD	n/a	wordpools/wordpool_categorized_EN.txt	BLUEBIRD	Birds	10	13	[0, 0, 0]	n/a	catFR1	1	R1239E
1442.836	0.917	1471882	WORD_OFF	n/a	n/a	BLUEBIRD	n/a	10	13	[0, 0, 0]	n/a	catFR1	1	R1239E
1443.753	1.6	1472799	WORD	n/a	wordpools/wordpool_categorized_EN.txt	BEAR	Zoo	11	13	[0, 0, 0]	n/a	catFR1	1	R1239E
1445.369	0.767	1474415	WORD_OFF	n/a	n/a	BEAR	n/a	11	13	[0, 0, 0]	n/a	catFR1	1	R1239E
1446.136	1.6	1475182	WORD	n/a	wordpools/wordpool_categorized_EN.txt	PANDA	Zoo	12	13	[0, 0, 0]	n/a	catFR1	1	R1239E
1447.753	0.0	1476799	ENCODING_END	n/a	n/a	n/a	n/a	-999	13	[0, 0, 0]	n/a	catFR1	1	R1239E
1447.753	0.134	1476799	WORD_OFF	n/a	n/a	PANDA	n/a	12	13	[0, 0, 0]	n/a	catFR1	1	R1239E
1447.887	0.001	1476933	DISTRACT_START	n/a	n/a	n/a	n/a	-999	13	[0, 0, 0]	n/a	catFR1	1	R1239E
1447.888	0.015	1476934	START	n/a	n/a	n/a	n/a	-999	13	[-999, -999, -999]	n/a	catFR1	1	R1239E
1447.903	3.701	1476949	PROB	3.678	n/a	n/a	n/a	-999	13	[3, 1, 9]	13.0	catFR1	1	R1239E
1451.604	2.384	1480649	PROB	2.345	n/a	n/a	n/a	-999	13	[6, 2, 4]	12.0	catFR1	1	R1239E
1453.988	3.317	1483033	PROB	3.288	n/a	n/a	n/a	-999	13	[6, 5, 2]	13.0	catFR1	1	R1239E
1457.305	3.634	1486350	PROB	3.603	n/a	n/a	n/a	-999	13	[7, 7, 3]	17.0	catFR1	1	R1239E
1460.939	4.584	1489984	PROB	4.554	n/a	n/a	n/a	-999	13	[4, 6, 6]	16.0	catFR1	1	R1239E
1465.523	3.474	1494568	PROB	3.474	n/a	n/a	n/a	-999	13	[5, 6, 8]	19.0	catFR1	1	R1239E
1468.997	0.01	1498042	STOP	n/a	n/a	n/a	n/a	-999	13	[-999, -999, -999]	n/a	catFR1	1	R1239E
1469.007	0.667	1498052	DISTRACT_END	n/a	n/a	n/a	n/a	-999	13	[0, 0, 0]	n/a	catFR1	1	R1239E
1469.674	0.521	1498719	RETRIEVAL_ORIENT	n/a	n/a	n/a	n/a	-999	13	[0, 0, 0]	n/a	catFR1	1	R1239E
1470.195	1.641	1499240	REC_START	n/a	n/a	n/a	n/a	-999	13	[0, 0, 0]	n/a	catFR1	1	R1239E
1471.836	0.831	1500881	REC_WORD	1.641	n/a	AXE	Tools	2	13	[0, 0, 0]	n/a	catFR1	1	R1239E
1472.667	2.465	1501712	REC_WORD	2.472	n/a	SAW	Tools	7	13	[0, 0, 0]	n/a	catFR1	1	R1239E
1475.132	2.384	1504177	REC_WORD	4.937	n/a	PANDA	Zoo	12	13	[0, 0, 0]	n/a	catFR1	1	R1239E
1477.516	22.684	1506560	REC_WORD	7.321	n/a	GOOSE	Birds	3	13	[0, 0, 0]	n/a	catFR1	1	R1239E
1500.2	12.282	1529244	REC_END	n/a	n/a	n/a	n/a	-999	13	[0, 0, 0]	n/a	catFR1	1	R1239E
1512.482	0.5	1541525	TRIAL	n/a	n/a	n/a	n/a	-999	14	[0, 0, 0]	n/a	catFR1	1	R1239E
1512.982	10.0	1542025	COUNTDOWN_START	n/a	n/a	n/a	n/a	-999	14	[0, 0, 0]	n/a	catFR1	1	R1239E
1523.41	0.007	1552453	COUNTDOWN_END	n/a	n/a	n/a	n/a	-999	14	[0, 0, 0]	n/a	catFR1	1	R1239E
1523.417	1.6	1552460	ORIENT	n/a	n/a	n/a	n/a	-999	14	[0, 0, 0]	n/a	catFR1	1	R1239E
1525.033	2.168	1554076	ORIENT_OFF	n/a	n/a	n/a	n/a	-999	14	[0, 0, 0]	n/a	catFR1	1	R1239E
1527.201	1.6	1556243	WORD	n/a	wordpools/wordpool_categorized_EN.txt	MOUSSE	Desserts	1	14	[0, 0, 0]	n/a	catFR1	1	R1239E
1528.818	0.783	1557860	WORD_OFF	n/a	n/a	MOUSSE	n/a	1	14	[0, 0, 0]	n/a	catFR1	1	R1239E
1529.601	1.6	1558643	WORD	n/a	wordpools/wordpool_categorized_EN.txt	CHEESECAKE	Desserts	2	14	[0, 0, 0]	n/a	catFR1	1	R1239E
1531.218	1.0	1560260	WORD_OFF	n/a	n/a	CHEESECAKE	n/a	2	14	[0, 0, 0]	n/a	catFR1	1	R1239E
1532.218	1.6	1561260	WORD	n/a	wordpools/wordpool_categorized_EN.txt	REFRIGERATOR	Appliances	3	14	[0, 0, 0]	n/a	catFR1	1	R1239E
1533.835	0.984	1562877	WORD_OFF	n/a	n/a	REFRIGERATOR	n/a	3	14	[0, 0, 0]	n/a	catFR1	1	R1239E
1534.819	1.6	1563861	WORD	n/a	wordpools/wordpool_categorized_EN.txt	BLENDER	Appliances	4	14	[0, 0, 0]	n/a	catFR1	1	R1239E
1536.436	0.95	1565478	WORD_OFF	n/a	n/a	BLENDER	n/a	4	14	[0, 0, 0]	n/a	catFR1	1	R1239E
1537.386	1.6	1566428	WORD	n/a	wordpools/wordpool_categorized_EN.txt	POTATO	Vegetables	5	14	[0, 0, 0]	n/a	catFR1	1	R1239E
1539.003	0.95	1568045	WORD_OFF	n/a	n/a	POTATO	n/a	5	14	[0, 0, 0]	n/a	catFR1	1	R1239E
1539.953	1.6	1568995	WORD	n/a	wordpools/wordpool_categorized_EN.txt	PEAS	Vegetables	6	14	[0, 0, 0]	n/a	catFR1	1	R1239E
1541.57	0.817	1570612	WORD_OFF	n/a	n/a	PEAS	n/a	6	14	[0, 0, 0]	n/a	catFR1	1	R1239E
1542.387	1.6	1571429	WORD	n/a	wordpools/wordpool_categorized_EN.txt	JELLO	Desserts	7	14	[0, 0, 0]	n/a	catFR1	1	R1239E
1544.004	0.8	1573046	WORD_OFF	n/a	n/a	JELLO	n/a	7	14	[0, 0, 0]	n/a	catFR1	1	R1239E
1544.804	1.6	1573846	WORD	n/a	wordpools/wordpool_categorized_EN.txt	CUPCAKE	Desserts	8	14	[0, 0, 0]	n/a	catFR1	1	R1239E
1546.421	0.8	1575463	WORD_OFF	n/a	n/a	CUPCAKE	n/a	8	14	[0, 0, 0]	n/a	catFR1	1	R1239E
1547.221	1.6	1576263	WORD	n/a	wordpools/wordpool_categorized_EN.txt	FREEZER	Appliances	9	14	[0, 0, 0]	n/a	catFR1	1	R1239E
1548.838	0.967	1577880	WORD_OFF	n/a	n/a	FREEZER	n/a	9	14	[0, 0, 0]	n/a	catFR1	1	R1239E
1549.805	1.6	1578847	WORD	n/a	wordpools/wordpool_categorized_EN.txt	OVEN	Appliances	10	14	[0, 0, 0]	n/a	catFR1	1	R1239E
1551.421	0.967	1580463	WORD_OFF	n/a	n/a	OVEN	n/a	10	14	[0, 0, 0]	n/a	catFR1	1	R1239E
1552.388	1.6	1581430	WORD	n/a	wordpools/wordpool_categorized_EN.txt	CABBAGE	Vegetables	11	14	[0, 0, 0]	n/a	catFR1	1	R1239E
1554.005	0.817	1583046	WORD_OFF	n/a	n/a	CABBAGE	n/a	11	14	[0, 0, 0]	n/a	catFR1	1	R1239E
1554.822	1.6	1583863	WORD	n/a	wordpools/wordpool_categorized_EN.txt	ONION	Vegetables	12	14	[0, 0, 0]	n/a	catFR1	1	R1239E
1556.439	0.0	1585480	ENCODING_END	n/a	n/a	n/a	n/a	-999	14	[0, 0, 0]	n/a	catFR1	1	R1239E
1556.439	0.131	1585480	WORD_OFF	n/a	n/a	ONION	n/a	12	14	[0, 0, 0]	n/a	catFR1	1	R1239E
1556.57	0.001	1585611	DISTRACT_START	n/a	n/a	n/a	n/a	-999	14	[0, 0, 0]	n/a	catFR1	1	R1239E
1556.571	0.018	1585612	START	n/a	n/a	n/a	n/a	-999	14	[-999, -999, -999]	n/a	catFR1	1	R1239E
1556.589	3.467	1585630	PROB	3.429	n/a	n/a	n/a	-999	14	[4, 6, 7]	17.0	catFR1	1	R1239E
1560.056	3.818	1589097	PROB	3.786	n/a	n/a	n/a	-999	14	[2, 4, 3]	9.0	catFR1	1	R1239E
1563.874	2.917	1592915	PROB	2.888	n/a	n/a	n/a	-999	14	[9, 3, 7]	19.0	catFR1	1	R1239E
1566.791	3.685	1595832	PROB	3.651	n/a	n/a	n/a	-999	14	[4, 5, 8]	17.0	catFR1	1	R1239E
1570.476	4.1	1599517	PROB	4.071	n/a	n/a	n/a	-999	14	[9, 4, 4]	17.0	catFR1	1	R1239E
1574.576	5.93	1603617	PROB	5.93	n/a	n/a	n/a	-999	14	[6, 9, 6]	21.0	catFR1	1	R1239E
1580.506	0.021	1609546	STOP	n/a	n/a	n/a	n/a	-999	14	[-999, -999, -999]	n/a	catFR1	1	R1239E
1580.527	0.683	1609567	DISTRACT_END	n/a	n/a	n/a	n/a	-999	14	[0, 0, 0]	n/a	catFR1	1	R1239E
1581.21	0.517	1610250	RETRIEVAL_ORIENT	n/a	n/a	n/a	n/a	-999	14	[0, 0, 0]	n/a	catFR1	1	R1239E
1581.727	1.533	1610767	REC_START	n/a	n/a	n/a	n/a	-999	14	[0, 0, 0]	n/a	catFR1	1	R1239E
1583.26	0.55	1612300	REC_WORD_VV	1.533	n/a	<>	n/a	-999	14	[0, 0, 0]	n/a	catFR1	1	R1239E
1583.81	1.0	1612850	REC_WORD	2.083	n/a	MOUSSE	Desserts	1	14	[0, 0, 0]	n/a	catFR1	1	R1239E
1584.81	0.528	1613850	REC_WORD_VV	3.083	n/a	<>	n/a	-999	14	[0, 0, 0]	n/a	catFR1	1	R1239E
1585.338	5.697	1614378	REC_WORD	3.611	n/a	CHEESECAKE	Desserts	2	14	[0, 0, 0]	n/a	catFR1	1	R1239E
1591.035	0.942	1620075	REC_WORD	9.308	n/a	POTATO	Vegetables	5	14	[0, 0, 0]	n/a	catFR1	1	R1239E
1591.977	1.929	1621017	REC_WORD	10.25	n/a	BLENDER	Appliances	4	14	[0, 0, 0]	n/a	catFR1	1	R1239E
1593.906	1.0	1622946	REC_WORD_VV	12.179	n/a	<>	n/a	-999	14	[0, 0, 0]	n/a	catFR1	1	R1239E
1594.906	1.0	1623946	REC_WORD_VV	13.179	n/a	<>	n/a	-999	14	[0, 0, 0]	n/a	catFR1	1	R1239E
1595.906	15.83	1624946	REC_WORD_VV	14.179	n/a	<>	n/a	-999	14	[0, 0, 0]	n/a	catFR1	1	R1239E
1611.736	4.897	1640775	REC_END	n/a	n/a	n/a	n/a	-999	14	[0, 0, 0]	n/a	catFR1	1	R1239E
1616.633	0.5	1645672	TRIAL	n/a	n/a	n/a	n/a	-999	15	[0, 0, 0]	n/a	catFR1	1	R1239E
1617.133	10.0	1646172	COUNTDOWN_START	n/a	n/a	n/a	n/a	-999	15	[0, 0, 0]	n/a	catFR1	1	R1239E
1627.561	0.007	1656600	COUNTDOWN_END	n/a	n/a	n/a	n/a	-999	15	[0, 0, 0]	n/a	catFR1	1	R1239E
1627.568	1.6	1656607	ORIENT	n/a	n/a	n/a	n/a	-999	15	[0, 0, 0]	n/a	catFR1	1	R1239E
1629.185	2.101	1658224	ORIENT_OFF	n/a	n/a	n/a	n/a	-999	15	[0, 0, 0]	n/a	catFR1	1	R1239E
1631.286	1.6	1660324	WORD	n/a	wordpools/wordpool_categorized_EN.txt	ORANGUTAN	Zoo	1	15	[0, 0, 0]	n/a	catFR1	1	R1239E
1632.902	0.767	1661940	WORD_OFF	n/a	n/a	ORANGUTAN	n/a	1	15	[0, 0, 0]	n/a	catFR1	1	R1239E
1633.669	1.6	1662707	WORD	n/a	wordpools/wordpool_categorized_EN.txt	TIGER	Zoo	2	15	[0, 0, 0]	n/a	catFR1	1	R1239E
1635.286	0.767	1664324	WORD_OFF	n/a	n/a	TIGER	n/a	2	15	[0, 0, 0]	n/a	catFR1	1	R1239E
1636.053	1.6	1665091	WORD	n/a	wordpools/wordpool_categorized_EN.txt	CELLO	Instruments	3	15	[0, 0, 0]	n/a	catFR1	1	R1239E
1637.67	0.917	1666708	WORD_OFF	n/a	n/a	CELLO	n/a	3	15	[0, 0, 0]	n/a	catFR1	1	R1239E
1638.587	1.6	1667625	WORD	n/a	wordpools/wordpool_categorized_EN.txt	VIOLIN	Instruments	4	15	[0, 0, 0]	n/a	catFR1	1	R1239E
1640.204	0.783	1669242	WORD_OFF	n/a	n/a	VIOLIN	n/a	4	15	[0, 0, 0]	n/a	catFR1	1	R1239E
1640.987	1.6	1670025	WORD	n/a	wordpools/wordpool_categorized_EN.txt	BEACH	Landscapes	5	15	[0, 0, 0]	n/a	catFR1	1	R1239E
1642.604	0.817	1671642	WORD_OFF	n/a	n/a	BEACH	n/a	5	15	[0, 0, 0]	n/a	catFR1	1	R1239E
1643.421	1.6	1672459	WORD	n/a	wordpools/wordpool_categorized_EN.txt	VALLEY	Landscapes	6	15	[0, 0, 0]	n/a	catFR1	1	R1239E
1645.038	0.883	1674076	WORD_OFF	n/a	n/a	VALLEY	n/a	6	15	[0, 0, 0]	n/a	catFR1	1	R1239E
1645.921	1.6	1674959	WORD	n/a	wordpools/wordpool_categorized_EN.txt	FLUTE	Instruments	7	15	[0, 0, 0]	n/a	catFR1	1	R1239E
1647.521	0.934	1676559	WORD_OFF	n/a	n/a	FLUTE	n/a	7	15	[0, 0, 0]	n/a	catFR1	1	R1239E
1648.455	1.6	1677493	WORD	n/a	wordpools/wordpool_categorized_EN.txt	TRUMPET	Instruments	8	15	[0, 0, 0]	n/a	catFR1	1	R1239E
1650.072	0.967	1679110	WORD_OFF	n/a	n/a	TRUMPET	n/a	8	15	[0, 0, 0]	n/a	catFR1	1	R1239E
1651.039	1.6	1680077	WORD	n/a	wordpools/wordpool_categorized_EN.txt	GORILLA	Zoo	9	15	[0, 0, 0]	n/a	catFR1	1	R1239E
1652.656	1.0	1681694	WORD_OFF	n/a	n/a	GORILLA	n/a	9	15	[0, 0, 0]	n/a	catFR1	1	R1239E
1653.656	1.6	1682694	WORD	n/a	wordpools/wordpool_categorized_EN.txt	GIRAFFE	Zoo	10	15	[0, 0, 0]	n/a	catFR1	1	R1239E
1655.273	0.8	1684311	WORD_OFF	n/a	n/a	GIRAFFE	n/a	10	15	[0, 0, 0]	n/a	catFR1	1	R1239E
1656.073	1.6	1685111	WORD	n/a	wordpools/wordpool_categorized_EN.txt	FOREST	Landscapes	11	15	[0, 0, 0]	n/a	catFR1	1	R1239E
1657.69	1.017	1686727	WORD_OFF	n/a	n/a	FOREST	n/a	11	15	[0, 0, 0]	n/a	catFR1	1	R1239E
1658.707	1.6	1687744	WORD	n/a	wordpools/wordpool_categorized_EN.txt	STREAM	Landscapes	12	15	[0, 0, 0]	n/a	catFR1	1	R1239E
1660.324	0.0	1689361	ENCODING_END	n/a	n/a	n/a	n/a	-999	15	[0, 0, 0]	n/a	catFR1	1	R1239E
1660.324	0.176	1689361	WORD_OFF	n/a	n/a	STREAM	n/a	12	15	[0, 0, 0]	n/a	catFR1	1	R1239E
1660.5	0.0	1689537	DISTRACT_START	n/a	n/a	n/a	n/a	-999	15	[0, 0, 0]	n/a	catFR1	1	R1239E
1660.5	0.008	1689537	START	n/a	n/a	n/a	n/a	-999	15	[-999, -999, -999]	n/a	catFR1	1	R1239E
1660.508	7.117	1689545	PROB	7.079	n/a	n/a	n/a	-999	15	[7, 4, 2]	4.0	catFR1	1	R1239E
1667.625	3.801	1696662	PROB	3.763	n/a	n/a	n/a	-999	15	[2, 4, 1]	7.0	catFR1	1	R1239E
1671.426	6.085	1700463	PROB	6.062	n/a	n/a	n/a	-999	15	[2, 5, 4]	11.0	catFR1	1	R1239E
1677.511	3.281	1706548	PROB	3.281	n/a	n/a	n/a	-999	15	[6, 7, 3]	16.0	catFR1	1	R1239E
1680.792	0.019	1709829	STOP	n/a	n/a	n/a	n/a	-999	15	[-999, -999, -999]	n/a	catFR1	1	R1239E
1680.811	0.617	1709848	DISTRACT_END	n/a	n/a	n/a	n/a	-999	15	[0, 0, 0]	n/a	catFR1	1	R1239E
1681.428	0.517	1710465	RETRIEVAL_ORIENT	n/a	n/a	n/a	n/a	-999	15	[0, 0, 0]	n/a	catFR1	1	R1239E
1681.945	0.386	1710982	REC_START	n/a	n/a	n/a	n/a	-999	15	[0, 0, 0]	n/a	catFR1	1	R1239E
1682.331	1.356	1711367	REC_WORD	0.386	n/a	ORANGUTAN	Zoo	1	15	[0, 0, 0]	n/a	catFR1	1	R1239E
1683.687	1.0	1712723	REC_WORD	1.742	n/a	TIGER	Zoo	2	15	[0, 0, 0]	n/a	catFR1	1	R1239E
1684.687	27.267	1713723	REC_WORD_VV	2.742	n/a	<>	n/a	-999	15	[0, 0, 0]	n/a	catFR1	1	R1239E
1711.954	5.163	1740989	REC_END	n/a	n/a	n/a	n/a	-999	15	[0, 0, 0]	n/a	catFR1	1	R1239E
1717.117	0.5	1746152	TRIAL	n/a	n/a	n/a	n/a	-999	16	[0, 0, 0]	n/a	catFR1	1	R1239E
1717.617	10.0	1746652	COUNTDOWN_START	n/a	n/a	n/a	n/a	-999	16	[0, 0, 0]	n/a	catFR1	1	R1239E
1728.045	0.008	1757080	COUNTDOWN_END	n/a	n/a	n/a	n/a	-999	16	[0, 0, 0]	n/a	catFR1	1	R1239E
1728.053	1.6	1757088	ORIENT	n/a	n/a	n/a	n/a	-999	16	[0, 0, 0]	n/a	catFR1	1	R1239E
1729.67	2.183	1758705	ORIENT_OFF	n/a	n/a	n/a	n/a	-999	16	[0, 0, 0]	n/a	catFR1	1	R1239E
1731.853	1.6	1760888	WORD	n/a	wordpools/wordpool_categorized_EN.txt	STOVE	Appliances	1	16	[0, 0, 0]	n/a	catFR1	1	R1239E
1733.471	0.799	1762506	WORD_OFF	n/a	n/a	STOVE	n/a	1	16	[0, 0, 0]	n/a	catFR1	1	R1239E
1734.27	1.6	1763304	WORD	n/a	wordpools/wordpool_categorized_EN.txt	DISHWASHER	Appliances	2	16	[0, 0, 0]	n/a	catFR1	1	R1239E
1735.887	0.884	1764921	WORD_OFF	n/a	n/a	DISHWASHER	n/a	2	16	[0, 0, 0]	n/a	catFR1	1	R1239E
1736.771	1.6	1765805	WORD	n/a	wordpools/wordpool_categorized_EN.txt	CHAIR	Furniture	3	16	[0, 0, 0]	n/a	catFR1	1	R1239E
1738.388	0.933	1767422	WORD_OFF	n/a	n/a	CHAIR	n/a	3	16	[0, 0, 0]	n/a	catFR1	1	R1239E
1739.321	1.6	1768355	WORD	n/a	wordpools/wordpool_categorized_EN.txt	BOOKCASE	Furniture	4	16	[0, 0, 0]	n/a	catFR1	1	R1239E
1740.938	0.9	1769972	WORD_OFF	n/a	n/a	BOOKCASE	n/a	4	16	[0, 0, 0]	n/a	catFR1	1	R1239E
1741.838	1.6	1770872	WORD	n/a	wordpools/wordpool_categorized_EN.txt	DOLL	Toys	5	16	[0, 0, 0]	n/a	catFR1	1	R1239E
1743.455	0.917	1772489	WORD_OFF	n/a	n/a	DOLL	n/a	5	16	[0, 0, 0]	n/a	catFR1	1	R1239E
1744.372	1.6	1773406	WORD	n/a	wordpools/wordpool_categorized_EN.txt	DOLLHOUSE	Toys	6	16	[0, 0, 0]	n/a	catFR1	1	R1239E
1745.989	0.933	1775023	WORD_OFF	n/a	n/a	DOLLHOUSE	n/a	6	16	[0, 0, 0]	n/a	catFR1	1	R1239E
1746.922	1.6	1775956	WORD	n/a	wordpools/wordpool_categorized_EN.txt	RECLINER	Furniture	7	16	[0, 0, 0]	n/a	catFR1	1	R1239E
1748.539	0.935	1777573	WORD_OFF	n/a	n/a	RECLINER	n/a	7	16	[0, 0, 0]	n/a	catFR1	1	R1239E
1749.474	1.6	1778508	WORD	n/a	wordpools/wordpool_categorized_EN.txt	SOFA	Furniture	8	16	[0, 0, 0]	n/a	catFR1	1	R1239E
1751.09	0.8	1780124	WORD_OFF	n/a	n/a	SOFA	n/a	8	16	[0, 0, 0]	n/a	catFR1	1	R1239E
1751.89	1.6	1780924	WORD	n/a	wordpools/wordpool_categorized_EN.txt	TOASTER	Appliances	9	16	[0, 0, 0]	n/a	catFR1	1	R1239E
1753.491	0.966	1782525	WORD_OFF	n/a	n/a	TOASTER	n/a	9	16	[0, 0, 0]	n/a	catFR1	1	R1239E
1754.457	1.6	1783491	WORD	n/a	wordpools/wordpool_categorized_EN.txt	IRON	Appliances	10	16	[0, 0, 0]	n/a	catFR1	1	R1239E
1756.074	0.85	1785108	WORD_OFF	n/a	n/a	IRON	n/a	10	16	[0, 0, 0]	n/a	catFR1	1	R1239E
1756.924	1.6	1785958	WORD	n/a	wordpools/wordpool_categorized_EN.txt	BASKETBALL	Toys	11	16	[0, 0, 0]	n/a	catFR1	1	R1239E
1758.541	1.0	1787575	WORD_OFF	n/a	n/a	BASKETBALL	n/a	11	16	[0, 0, 0]	n/a	catFR1	1	R1239E
1759.541	1.6	1788575	WORD	n/a	wordpools/wordpool_categorized_EN.txt	BARBIE	Toys	12	16	[0, 0, 0]	n/a	catFR1	1	R1239E
1761.158	0.001	1790191	WORD_OFF	n/a	n/a	BARBIE	n/a	12	16	[0, 0, 0]	n/a	catFR1	1	R1239E
1761.159	0.136	1790192	ENCODING_END	n/a	n/a	n/a	n/a	-999	16	[0, 0, 0]	n/a	catFR1	1	R1239E
1761.295	0.0	1790328	DISTRACT_START	n/a	n/a	n/a	n/a	-999	16	[0, 0, 0]	n/a	catFR1	1	R1239E
1761.295	0.013	1790328	START	n/a	n/a	n/a	n/a	-999	16	[-999, -999, -999]	n/a	catFR1	1	R1239E
1761.308	5.535	1790341	PROB	5.511	n/a	n/a	n/a	-999	16	[6, 7, 1]	14.0	catFR1	1	R1239E
1766.843	3.267	1795876	PROB	3.238	n/a	n/a	n/a	-999	16	[8, 5, 3]	16.0	catFR1	1	R1239E
1770.11	3.967	1799143	PROB	3.933	n/a	n/a	n/a	-999	16	[6, 1, 7]	14.0	catFR1	1	R1239E
1774.077	5.701	1803110	PROB	5.67	n/a	n/a	n/a	-999	16	[2, 9, 6]	17.0	catFR1	1	R1239E
1779.778	6.685	1808811	PROB	6.685	n/a	n/a	n/a	-999	16	[7, 8, 9]	23.0	catFR1	1	R1239E
1786.463	0.018	1815495	STOP	n/a	n/a	n/a	n/a	-999	16	[-999, -999, -999]	n/a	catFR1	1	R1239E
1786.481	0.665	1815513	DISTRACT_END	n/a	n/a	n/a	n/a	-999	16	[0, 0, 0]	n/a	catFR1	1	R1239E
1787.146	0.518	1816178	RETRIEVAL_ORIENT	n/a	n/a	n/a	n/a	-999	16	[0, 0, 0]	n/a	catFR1	1	R1239E
1787.664	2.012	1816696	REC_START	n/a	n/a	n/a	n/a	-999	16	[0, 0, 0]	n/a	catFR1	1	R1239E
1789.676	1.0	1818708	REC_WORD	2.012	n/a	BOOKCASE	Furniture	4	16	[0, 0, 0]	n/a	catFR1	1	R1239E
1790.676	0.643	1819708	REC_WORD_VV	3.012	n/a	<>	n/a	-999	16	[0, 0, 0]	n/a	catFR1	1	R1239E
1791.319	1.037	1820351	REC_WORD	3.655	n/a	DOLLHOUSE	Toys	6	16	[0, 0, 0]	n/a	catFR1	1	R1239E
1792.356	1.791	1821388	REC_WORD	4.692	n/a	RECLINER	Furniture	7	16	[0, 0, 0]	n/a	catFR1	1	R1239E
1794.147	0.697	1823179	REC_WORD_VV	6.483	n/a	<>	n/a	-999	16	[0, 0, 0]	n/a	catFR1	1	R1239E
1794.844	22.828	1823876	REC_WORD	7.18	n/a	BARBIE	Toys	12	16	[0, 0, 0]	n/a	catFR1	1	R1239E
1817.672	4.08	1846703	REC_END	n/a	n/a	n/a	n/a	-999	16	[0, 0, 0]	n/a	catFR1	1	R1239E
1821.752	0.5	1850783	TRIAL	n/a	n/a	n/a	n/a	-999	17	[0, 0, 0]	n/a	catFR1	1	R1239E
1822.252	10.0	1851283	COUNTDOWN_START	n/a	n/a	n/a	n/a	-999	17	[0, 0, 0]	n/a	catFR1	1	R1239E
1832.68	0.008	1861711	COUNTDOWN_END	n/a	n/a	n/a	n/a	-999	17	[0, 0, 0]	n/a	catFR1	1	R1239E
1832.688	1.6	1861719	ORIENT	n/a	n/a	n/a	n/a	-999	17	[0, 0, 0]	n/a	catFR1	1	R1239E
1834.305	2.267	1863336	ORIENT_OFF	n/a	n/a	n/a	n/a	-999	17	[0, 0, 0]	n/a	catFR1	1	R1239E
1836.572	1.6	1865603	WORD	n/a	wordpools/wordpool_categorized_EN.txt	VAN	Vehicles	1	17	[0, 0, 0]	n/a	catFR1	1	R1239E
1838.189	0.883	1867219	WORD_OFF	n/a	n/a	VAN	n/a	1	17	[0, 0, 0]	n/a	catFR1	1	R1239E
1839.072	1.6	1868102	WORD	n/a	wordpools/wordpool_categorized_EN.txt	JEEP	Vehicles	2	17	[0, 0, 0]	n/a	catFR1	1	R1239E
1840.689	0.984	1869719	WORD_OFF	n/a	n/a	JEEP	n/a	2	17	[0, 0, 0]	n/a	catFR1	1	R1239E
1841.673	1.6	1870703	WORD	n/a	wordpools/wordpool_categorized_EN.txt	CAULIFLOWER	Vegetables	3	17	[0, 0, 0]	n/a	catFR1	1	R1239E
1843.29	0.933	1872320	WORD_OFF	n/a	n/a	CAULIFLOWER	n/a	3	17	[0, 0, 0]	n/a	catFR1	1	R1239E
1844.223	1.6	1873253	WORD	n/a	wordpools/wordpool_categorized_EN.txt	CUCUMBER	Vegetables	4	17	[0, 0, 0]	n/a	catFR1	1	R1239E
1845.84	0.9	1874870	WORD_OFF	n/a	n/a	CUCUMBER	n/a	4	17	[0, 0, 0]	n/a	catFR1	1	R1239E
1846.74	1.6	1875770	WORD	n/a	wordpools/wordpool_categorized_EN.txt	CORKSCREW	KitchenTools	5	17	[0, 0, 0]	n/a	catFR1	1	R1239E
1848.357	0.984	1877387	WORD_OFF	n/a	n/a	CORKSCREW	n/a	5	17	[0, 0, 0]	n/a	catFR1	1	R1239E
1849.341	1.6	1878371	WORD	n/a	wordpools/wordpool_categorized_EN.txt	WHISK	KitchenTools	6	17	[0, 0, 0]	n/a	catFR1	1	R1239E
1850.958	0.85	1879988	WORD_OFF	n/a	n/a	WHISK	n/a	6	17	[0, 0, 0]	n/a	catFR1	1	R1239E
1851.808	1.6	1880838	WORD	n/a	wordpools/wordpool_categorized_EN.txt	CARROT	Vegetables	7	17	[0, 0, 0]	n/a	catFR1	1	R1239E
1853.425	0.983	1882455	WORD_OFF	n/a	n/a	CARROT	n/a	7	17	[0, 0, 0]	n/a	catFR1	1	R1239E
1854.408	1.6	1883438	WORD	n/a	wordpools/wordpool_categorized_EN.txt	CELERY	Vegetables	8	17	[0, 0, 0]	n/a	catFR1	1	R1239E
1856.025	0.934	1885055	WORD_OFF	n/a	n/a	CELERY	n/a	8	17	[0, 0, 0]	n/a	catFR1	1	R1239E
1856.959	1.6	1885989	WORD	n/a	wordpools/wordpool_categorized_EN.txt	CAR	Vehicles	9	17	[0, 0, 0]	n/a	catFR1	1	R1239E
1858.576	0.833	1887606	WORD_OFF	n/a	n/a	CAR	n/a	9	17	[0, 0, 0]	n/a	catFR1	1	R1239E
1859.409	1.6	1888439	WORD	n/a	wordpools/wordpool_categorized_EN.txt	BOAT	Vehicles	10	17	[0, 0, 0]	n/a	catFR1	1	R1239E
1861.026	0.917	1890056	WORD_OFF	n/a	n/a	BOAT	n/a	10	17	[0, 0, 0]	n/a	catFR1	1	R1239E
1861.943	1.6	1890973	WORD	n/a	wordpools/wordpool_categorized_EN.txt	SPATULA	KitchenTools	11	17	[0, 0, 0]	n/a	catFR1	1	R1239E
1863.56	0.951	1892589	WORD_OFF	n/a	n/a	SPATULA	n/a	11	17	[0, 0, 0]	n/a	catFR1	1	R1239E
1864.511	1.6	1893540	WORD	n/a	wordpools/wordpool_categorized_EN.txt	LADLE	KitchenTools	12	17	[0, 0, 0]	n/a	catFR1	1	R1239E
1866.127	0.0	1895156	ENCODING_END	n/a	n/a	n/a	n/a	-999	17	[0, 0, 0]	n/a	catFR1	1	R1239E
1866.127	0.136	1895156	WORD_OFF	n/a	n/a	LADLE	n/a	12	17	[0, 0, 0]	n/a	catFR1	1	R1239E
1866.263	0.0	1895292	DISTRACT_START	n/a	n/a	n/a	n/a	-999	17	[0, 0, 0]	n/a	catFR1	1	R1239E
1866.263	0.014	1895292	START	n/a	n/a	n/a	n/a	-999	17	[-999, -999, -999]	n/a	catFR1	1	R1239E
1866.277	6.684	1895306	PROB	6.651	n/a	n/a	n/a	-999	17	[4, 7, 8]	19.0	catFR1	1	R1239E
1872.961	6.536	1901990	PROB	6.505	n/a	n/a	n/a	-999	17	[9, 7, 1]	17.0	catFR1	1	R1239E
1879.497	3.5	1908526	PROB	3.473	n/a	n/a	n/a	-999	17	[2, 3, 3]	8.0	catFR1	1	R1239E
1882.997	4.245	1912026	PROB	4.245	n/a	n/a	n/a	-999	17	[6, 3, 9]	18.0	catFR1	1	R1239E
1887.242	0.005	1916271	STOP	n/a	n/a	n/a	n/a	-999	17	[-999, -999, -999]	n/a	catFR1	1	R1239E
1887.247	0.584	1916276	DISTRACT_END	n/a	n/a	n/a	n/a	-999	17	[0, 0, 0]	n/a	catFR1	1	R1239E
1887.831	0.519	1916860	RETRIEVAL_ORIENT	n/a	n/a	n/a	n/a	-999	17	[0, 0, 0]	n/a	catFR1	1	R1239E
1888.35	0.633	1917379	REC_START	n/a	n/a	n/a	n/a	-999	17	[0, 0, 0]	n/a	catFR1	1	R1239E
1888.983	1.548	1918012	REC_WORD	0.633	n/a	SPATULA	KitchenTools	11	17	[0, 0, 0]	n/a	catFR1	1	R1239E
1890.531	27.826	1919559	REC_WORD	2.181	n/a	LADLE	KitchenTools	12	17	[0, 0, 0]	n/a	catFR1	1	R1239E
1918.357	4.247	1947384	REC_END	n/a	n/a	n/a	n/a	-999	17	[0, 0, 0]	n/a	catFR1	1	R1239E
1922.604	0.5	1951631	TRIAL	n/a	n/a	n/a	n/a	-999	18	[0, 0, 0]	n/a	catFR1	1	R1239E
1923.104	10.0	1952131	COUNTDOWN_START	n/a	n/a	n/a	n/a	-999	18	[0, 0, 0]	n/a	catFR1	1	R1239E
1933.532	0.007	1962559	COUNTDOWN_END	n/a	n/a	n/a	n/a	-999	18	[0, 0, 0]	n/a	catFR1	1	R1239E
1933.539	1.6	1962566	ORIENT	n/a	n/a	n/a	n/a	-999	18	[0, 0, 0]	n/a	catFR1	1	R1239E
1935.156	1.833	1964183	ORIENT_OFF	n/a	n/a	n/a	n/a	-999	18	[0, 0, 0]	n/a	catFR1	1	R1239E
1936.989	1.6	1966016	WORD	n/a	wordpools/wordpool_categorized_EN.txt	JELLYFISH	OceanAnimals	1	18	[0, 0, 0]	n/a	catFR1	1	R1239E
1938.606	0.834	1967633	WORD_OFF	n/a	n/a	JELLYFISH	n/a	1	18	[0, 0, 0]	n/a	catFR1	1	R1239E
1939.44	1.6	1968467	WORD	n/a	wordpools/wordpool_categorized_EN.txt	FISH	OceanAnimals	2	18	[0, 0, 0]	n/a	catFR1	1	R1239E
1941.056	0.817	1970082	WORD_OFF	n/a	n/a	FISH	n/a	2	18	[0, 0, 0]	n/a	catFR1	1	R1239E
1941.873	1.6	1970899	WORD	n/a	wordpools/wordpool_categorized_EN.txt	LEVEL	Tools	3	18	[0, 0, 0]	n/a	catFR1	1	R1239E
1943.475	0.882	1972501	WORD_OFF	n/a	n/a	LEVEL	n/a	3	18	[0, 0, 0]	n/a	catFR1	1	R1239E
1944.357	1.6	1973383	WORD	n/a	wordpools/wordpool_categorized_EN.txt	SCREWDRIVER	Tools	4	18	[0, 0, 0]	n/a	catFR1	1	R1239E
1945.974	0.784	1975000	WORD_OFF	n/a	n/a	SCREWDRIVER	n/a	4	18	[0, 0, 0]	n/a	catFR1	1	R1239E
1946.758	1.6	1975784	WORD	n/a	wordpools/wordpool_categorized_EN.txt	ATTIC	Building	5	18	[0, 0, 0]	n/a	catFR1	1	R1239E
1948.375	0.817	1977401	WORD_OFF	n/a	n/a	ATTIC	n/a	5	18	[0, 0, 0]	n/a	catFR1	1	R1239E
1949.192	1.6	1978218	WORD	n/a	wordpools/wordpool_categorized_EN.txt	FLOOR	Building	6	18	[0, 0, 0]	n/a	catFR1	1	R1239E
1950.808	0.784	1979834	WORD_OFF	n/a	n/a	FLOOR	n/a	6	18	[0, 0, 0]	n/a	catFR1	1	R1239E
1951.592	1.6	1980618	WORD	n/a	wordpools/wordpool_categorized_EN.txt	CRAB	OceanAnimals	7	18	[0, 0, 0]	n/a	catFR1	1	R1239E
1953.209	1.0	1982235	WORD_OFF	n/a	n/a	CRAB	n/a	7	18	[0, 0, 0]	n/a	catFR1	1	R1239E
1954.209	1.6	1983235	WORD	n/a	wordpools/wordpool_categorized_EN.txt	SHRIMP	OceanAnimals	8	18	[0, 0, 0]	n/a	catFR1	1	R1239E
1955.826	0.817	1984852	WORD_OFF	n/a	n/a	SHRIMP	n/a	8	18	[0, 0, 0]	n/a	catFR1	1	R1239E
1956.643	1.6	1985669	WORD	n/a	wordpools/wordpool_categorized_EN.txt	CROWBAR	Tools	9	18	[0, 0, 0]	n/a	catFR1	1	R1239E
1958.26	0.867	1987286	WORD_OFF	n/a	n/a	CROWBAR	n/a	9	18	[0, 0, 0]	n/a	catFR1	1	R1239E
1959.127	1.6	1988153	WORD	n/a	wordpools/wordpool_categorized_EN.txt	HAMMER	Tools	10	18	[0, 0, 0]	n/a	catFR1	1	R1239E
1960.744	0.966	1989770	WORD_OFF	n/a	n/a	HAMMER	n/a	10	18	[0, 0, 0]	n/a	catFR1	1	R1239E
1961.71	1.6	1990736	WORD	n/a	wordpools/wordpool_categorized_EN.txt	CEILING	Building	11	18	[0, 0, 0]	n/a	catFR1	1	R1239E
1963.327	0.784	1992353	WORD_OFF	n/a	n/a	CEILING	n/a	11	18	[0, 0, 0]	n/a	catFR1	1	R1239E
1964.111	1.6	1993137	WORD	n/a	wordpools/wordpool_categorized_EN.txt	HALLWAY	Building	12	18	[0, 0, 0]	n/a	catFR1	1	R1239E
1965.728	0.0	1994754	ENCODING_END	n/a	n/a	n/a	n/a	-999	18	[0, 0, 0]	n/a	catFR1	1	R1239E
1965.728	0.169	1994754	WORD_OFF	n/a	n/a	HALLWAY	n/a	12	18	[0, 0, 0]	n/a	catFR1	1	R1239E
1965.897	0.001	1994923	DISTRACT_START	n/a	n/a	n/a	n/a	-999	18	[0, 0, 0]	n/a	catFR1	1	R1239E
1965.898	0.013	1994924	START	n/a	n/a	n/a	n/a	-999	18	[-999, -999, -999]	n/a	catFR1	1	R1239E
1965.911	3.851	1994937	PROB	3.813	n/a	n/a	n/a	-999	18	[4, 5, 8]	17.0	catFR1	1	R1239E
1969.762	3.634	1998787	PROB	3.61	n/a	n/a	n/a	-999	18	[1, 7, 1]	9.0	catFR1	1	R1239E
1973.396	2.567	2002421	PROB	2.536	n/a	n/a	n/a	-999	18	[2, 1, 8]	11.0	catFR1	1	R1239E
1975.963	5.417	2004988	PROB	5.394	n/a	n/a	n/a	-999	18	[6, 6, 6]	18.0	catFR1	1	R1239E
1981.38	3.068	2010405	PROB	3.041	n/a	n/a	n/a	-999	18	[1, 1, 9]	11.0	catFR1	1	R1239E
1984.448	4.909	2013473	PROB	4.909	n/a	n/a	n/a	-999	18	[3, 4, 9]	16.0	catFR1	1	R1239E
1989.357	0.008	2018382	STOP	n/a	n/a	n/a	n/a	-999	18	[-999, -999, -999]	n/a	catFR1	1	R1239E
1989.365	0.7	2018390	DISTRACT_END	n/a	n/a	n/a	n/a	-999	18	[0, 0, 0]	n/a	catFR1	1	R1239E
1990.065	0.518	2019090	RETRIEVAL_ORIENT	n/a	n/a	n/a	n/a	-999	18	[0, 0, 0]	n/a	catFR1	1	R1239E
1990.583	0.409	2019608	REC_START	n/a	n/a	n/a	n/a	-999	18	[0, 0, 0]	n/a	catFR1	1	R1239E
1990.992	1.522	2020017	REC_WORD	0.409	n/a	SHRIMP	OceanAnimals	8	18	[0, 0, 0]	n/a	catFR1	1	R1239E
1992.514	0.653	2021539	REC_WORD	1.931	n/a	CRAB	OceanAnimals	7	18	[0, 0, 0]	n/a	catFR1	1	R1239E
1993.167	0.73	2022191	REC_WORD	2.584	n/a	AXE	n/a	-999	18	[0, 0, 0]	n/a	catFR1	1	R1239E
1993.897	0.638	2022921	REC_WORD	3.314	n/a	FLOOR	Building	6	18	[0, 0, 0]	n/a	catFR1	1	R1239E
1994.535	3.898	2023559	REC_WORD	3.952	n/a	CEILING	Building	11	18	[0, 0, 0]	n/a	catFR1	1	R1239E
1998.433	1.351	2027457	REC_WORD	7.85	n/a	CROWBAR	Tools	9	18	[0, 0, 0]	n/a	catFR1	1	R1239E
1999.784	20.808	2028808	REC_WORD	9.201	n/a	HAMMER	Tools	10	18	[0, 0, 0]	n/a	catFR1	1	R1239E
2020.592	6.813	2049615	REC_END	n/a	n/a	n/a	n/a	-999	18	[0, 0, 0]	n/a	catFR1	1	R1239E
2027.405	0.5	2056428	TRIAL	n/a	n/a	n/a	n/a	-999	19	[0, 0, 0]	n/a	catFR1	1	R1239E
2027.905	10.0	2056928	COUNTDOWN_START	n/a	n/a	n/a	n/a	-999	19	[0, 0, 0]	n/a	catFR1	1	R1239E
2038.333	0.008	2067356	COUNTDOWN_END	n/a	n/a	n/a	n/a	-999	19	[0, 0, 0]	n/a	catFR1	1	R1239E
2038.341	1.6	2067364	ORIENT	n/a	n/a	n/a	n/a	-999	19	[0, 0, 0]	n/a	catFR1	1	R1239E
2039.958	2.383	2068981	ORIENT_OFF	n/a	n/a	n/a	n/a	-999	19	[0, 0, 0]	n/a	catFR1	1	R1239E
2042.341	1.6	2071364	WORD	n/a	wordpools/wordpool_categorized_EN.txt	APPLE	Fruit	1	19	[0, 0, 0]	n/a	catFR1	1	R1239E
2043.958	0.884	2072981	WORD_OFF	n/a	n/a	APPLE	n/a	1	19	[0, 0, 0]	n/a	catFR1	1	R1239E
2044.842	1.6	2073864	WORD	n/a	wordpools/wordpool_categorized_EN.txt	PLUM	Fruit	2	19	[0, 0, 0]	n/a	catFR1	1	R1239E
2046.46	0.882	2075482	WORD_OFF	n/a	n/a	PLUM	n/a	2	19	[0, 0, 0]	n/a	catFR1	1	R1239E
2047.342	1.6	2076364	WORD	n/a	wordpools/wordpool_categorized_EN.txt	COW	FarmAnimals	3	19	[0, 0, 0]	n/a	catFR1	1	R1239E
2048.959	0.85	2077981	WORD_OFF	n/a	n/a	COW	n/a	3	19	[0, 0, 0]	n/a	catFR1	1	R1239E
2049.809	1.6	2078831	WORD	n/a	wordpools/wordpool_categorized_EN.txt	CHICKEN	FarmAnimals	4	19	[0, 0, 0]	n/a	catFR1	1	R1239E
2051.426	0.817	2080448	WORD_OFF	n/a	n/a	CHICKEN	n/a	4	19	[0, 0, 0]	n/a	catFR1	1	R1239E
2052.243	1.6	2081265	WORD	n/a	wordpools/wordpool_categorized_EN.txt	WHALE	OceanAnimals	5	19	[0, 0, 0]	n/a	catFR1	1	R1239E
2053.86	0.917	2082882	WORD_OFF	n/a	n/a	WHALE	n/a	5	19	[0, 0, 0]	n/a	catFR1	1	R1239E
2054.777	1.6	2083799	WORD	n/a	wordpools/wordpool_categorized_EN.txt	LOBSTER	OceanAnimals	6	19	[0, 0, 0]	n/a	catFR1	1	R1239E
2056.394	0.816	2085416	WORD_OFF	n/a	n/a	LOBSTER	n/a	6	19	[0, 0, 0]	n/a	catFR1	1	R1239E
2057.21	1.6	2086232	WORD	n/a	wordpools/wordpool_categorized_EN.txt	HORSE	FarmAnimals	7	19	[0, 0, 0]	n/a	catFR1	1	R1239E
2058.828	0.8	2087850	WORD_OFF	n/a	n/a	HORSE	n/a	7	19	[0, 0, 0]	n/a	catFR1	1	R1239E
2059.628	1.6	2088650	WORD	n/a	wordpools/wordpool_categorized_EN.txt	ROOSTER	FarmAnimals	8	19	[0, 0, 0]	n/a	catFR1	1	R1239E
2061.245	0.933	2090267	WORD_OFF	n/a	n/a	ROOSTER	n/a	8	19	[0, 0, 0]	n/a	catFR1	1	R1239E
2062.178	1.6	2091200	WORD	n/a	wordpools/wordpool_categorized_EN.txt	CHERRY	Fruit	9	19	[0, 0, 0]	n/a	catFR1	1	R1239E
2063.795	0.867	2092817	WORD_OFF	n/a	n/a	CHERRY	n/a	9	19	[0, 0, 0]	n/a	catFR1	1	R1239E
2064.662	1.6	2093684	WORD	n/a	wordpools/wordpool_categorized_EN.txt	ORANGE	Fruit	10	19	[0, 0, 0]	n/a	catFR1	1	R1239E
2066.279	0.95	2095301	WORD_OFF	n/a	n/a	ORANGE	n/a	10	19	[0, 0, 0]	n/a	catFR1	1	R1239E
2067.229	1.6	2096251	WORD	n/a	wordpools/wordpool_categorized_EN.txt	TURTLE	OceanAnimals	11	19	[0, 0, 0]	n/a	catFR1	1	R1239E
2068.846	0.867	2097868	WORD_OFF	n/a	n/a	TURTLE	n/a	11	19	[0, 0, 0]	n/a	catFR1	1	R1239E
2069.713	1.6	2098735	WORD	n/a	wordpools/wordpool_categorized_EN.txt	SQUID	OceanAnimals	12	19	[0, 0, 0]	n/a	catFR1	1	R1239E
2071.33	0.0	2100351	WORD_OFF	n/a	n/a	SQUID	n/a	12	19	[0, 0, 0]	n/a	catFR1	1	R1239E
2071.33	0.135	2100351	ENCODING_END	n/a	n/a	n/a	n/a	-999	19	[0, 0, 0]	n/a	catFR1	1	R1239E
2071.465	0.0	2100486	DISTRACT_START	n/a	n/a	n/a	n/a	-999	19	[0, 0, 0]	n/a	catFR1	1	R1239E
2071.465	0.016	2100486	START	n/a	n/a	n/a	n/a	-999	19	[-999, -999, -999]	n/a	catFR1	1	R1239E
2071.481	4.566	2100502	PROB	4.535	n/a	n/a	n/a	-999	19	[8, 4, 6]	18.0	catFR1	1	R1239E
2076.047	5.518	2105068	PROB	5.481	n/a	n/a	n/a	-999	19	[8, 5, 7]	20.0	catFR1	1	R1239E
2081.565	3.952	2110586	PROB	3.916	n/a	n/a	n/a	-999	19	[2, 1, 7]	10.0	catFR1	1	R1239E
2085.517	2.149	2114538	PROB	2.124	n/a	n/a	n/a	-999	19	[1, 3, 4]	8.0	catFR1	1	R1239E
2087.666	3.067	2116687	PROB	3.031	n/a	n/a	n/a	-999	19	[6, 3, 7]	16.0	catFR1	1	R1239E
2090.733	3.091	2119754	PROB	3.091	n/a	n/a	n/a	-999	19	[8, 1, 3]	12.0	catFR1	1	R1239E
2093.824	0.01	2122845	STOP	n/a	n/a	n/a	n/a	-999	19	[-999, -999, -999]	n/a	catFR1	1	R1239E
2093.834	0.516	2122855	DISTRACT_END	n/a	n/a	n/a	n/a	-999	19	[0, 0, 0]	n/a	catFR1	1	R1239E
2094.35	0.518	2123371	RETRIEVAL_ORIENT	n/a	n/a	n/a	n/a	-999	19	[0, 0, 0]	n/a	catFR1	1	R1239E
2094.868	0.429	2123889	REC_START	n/a	n/a	n/a	n/a	-999	19	[0, 0, 0]	n/a	catFR1	1	R1239E
2095.297	0.601	2124318	REC_WORD	0.429	n/a	APPLE	Fruit	1	19	[0, 0, 0]	n/a	catFR1	1	R1239E
2095.898	1.343	2124919	REC_WORD	1.03	n/a	PLUM	Fruit	2	19	[0, 0, 0]	n/a	catFR1	1	R1239E
2097.241	1.414	2126261	REC_WORD	2.373	n/a	HORSE	FarmAnimals	7	19	[0, 0, 0]	n/a	catFR1	1	R1239E
2098.655	6.359	2127675	REC_WORD	3.787	n/a	CHERRY	Fruit	9	19	[0, 0, 0]	n/a	catFR1	1	R1239E
2105.014	19.862	2134034	REC_WORD	10.146	n/a	ROOSTER	FarmAnimals	8	19	[0, 0, 0]	n/a	catFR1	1	R1239E
2124.876	5.598	2153895	REC_END	n/a	n/a	n/a	n/a	-999	19	[0, 0, 0]	n/a	catFR1	1	R1239E
2130.474	0.5	2159493	TRIAL	n/a	n/a	n/a	n/a	-999	20	[0, 0, 0]	n/a	catFR1	1	R1239E
2130.974	10.0	2159993	COUNTDOWN_START	n/a	n/a	n/a	n/a	-999	20	[0, 0, 0]	n/a	catFR1	1	R1239E
2141.402	0.007	2170421	COUNTDOWN_END	n/a	n/a	n/a	n/a	-999	20	[0, 0, 0]	n/a	catFR1	1	R1239E
2141.409	1.6	2170428	ORIENT	n/a	n/a	n/a	n/a	-999	20	[0, 0, 0]	n/a	catFR1	1	R1239E
2143.026	2.25	2172045	ORIENT_OFF	n/a	n/a	n/a	n/a	-999	20	[0, 0, 0]	n/a	catFR1	1	R1239E
2145.276	1.6	2174295	WORD	n/a	wordpools/wordpool_categorized_EN.txt	WASHER	Appliances	1	20	[0, 0, 0]	n/a	catFR1	1	R1239E
2146.893	0.85	2175912	WORD_OFF	n/a	n/a	WASHER	n/a	1	20	[0, 0, 0]	n/a	catFR1	1	R1239E
2147.743	1.6	2176762	WORD	n/a	wordpools/wordpool_categorized_EN.txt	VACUUM	Appliances	2	20	[0, 0, 0]	n/a	catFR1	1	R1239E
2149.36	1.0	2178378	WORD_OFF	n/a	n/a	VACUUM	n/a	2	20	[0, 0, 0]	n/a	catFR1	1	R1239E
2150.36	1.6	2179378	WORD	n/a	wordpools/wordpool_categorized_EN.txt	RATCHET	Tools	3	20	[0, 0, 0]	n/a	catFR1	1	R1239E
2151.977	1.0	2180995	WORD_OFF	n/a	n/a	RATCHET	n/a	3	20	[0, 0, 0]	n/a	catFR1	1	R1239E
2152.977	1.6	2181995	WORD	n/a	wordpools/wordpool_categorized_EN.txt	SHOVEL	Tools	4	20	[0, 0, 0]	n/a	catFR1	1	R1239E
2154.594	0.8	2183612	WORD_OFF	n/a	n/a	SHOVEL	n/a	4	20	[0, 0, 0]	n/a	catFR1	1	R1239E
2155.394	1.6	2184412	WORD	n/a	wordpools/wordpool_categorized_EN.txt	COAT	Clothing	5	20	[0, 0, 0]	n/a	catFR1	1	R1239E
2157.011	0.917	2186029	WORD_OFF	n/a	n/a	COAT	n/a	5	20	[0, 0, 0]	n/a	catFR1	1	R1239E
2157.928	1.6	2186946	WORD	n/a	wordpools/wordpool_categorized_EN.txt	SHIRT	Clothing	6	20	[0, 0, 0]	n/a	catFR1	1	R1239E
2159.545	0.867	2188563	WORD_OFF	n/a	n/a	SHIRT	n/a	6	20	[0, 0, 0]	n/a	catFR1	1	R1239E
2160.412	1.6	2189430	WORD	n/a	wordpools/wordpool_categorized_EN.txt	DRYER	Appliances	7	20	[0, 0, 0]	n/a	catFR1	1	R1239E
2162.029	0.85	2191047	WORD_OFF	n/a	n/a	DRYER	n/a	7	20	[0, 0, 0]	n/a	catFR1	1	R1239E
2162.879	1.6	2191897	WORD	n/a	wordpools/wordpool_categorized_EN.txt	MIXER	Appliances	8	20	[0, 0, 0]	n/a	catFR1	1	R1239E
2164.497	1.017	2193515	WORD_OFF	n/a	n/a	MIXER	n/a	8	20	[0, 0, 0]	n/a	catFR1	1	R1239E
2165.514	1.6	2194532	WORD	n/a	wordpools/wordpool_categorized_EN.txt	SANDER	Tools	9	20	[0, 0, 0]	n/a	catFR1	1	R1239E
2167.13	0.817	2196148	WORD_OFF	n/a	n/a	SANDER	n/a	9	20	[0, 0, 0]	n/a	catFR1	1	R1239E
2167.947	1.6	2196965	WORD	n/a	wordpools/wordpool_categorized_EN.txt	DRILL	Tools	10	20	[0, 0, 0]	n/a	catFR1	1	R1239E
2169.564	0.983	2198582	WORD_OFF	n/a	n/a	DRILL	n/a	10	20	[0, 0, 0]	n/a	catFR1	1	R1239E
2170.547	1.6	2199565	WORD	n/a	wordpools/wordpool_categorized_EN.txt	SOCKS	Clothing	11	20	[0, 0, 0]	n/a	catFR1	1	R1239E
2172.164	0.834	2201182	WORD_OFF	n/a	n/a	SOCKS	n/a	11	20	[0, 0, 0]	n/a	catFR1	1	R1239E
2172.998	1.6	2202016	WORD	n/a	wordpools/wordpool_categorized_EN.txt	SKIRT	Clothing	12	20	[0, 0, 0]	n/a	catFR1	1	R1239E
2174.615	0.0	2203632	ENCODING_END	n/a	n/a	n/a	n/a	-999	20	[0, 0, 0]	n/a	catFR1	1	R1239E
2174.615	0.135	2203632	WORD_OFF	n/a	n/a	SKIRT	n/a	12	20	[0, 0, 0]	n/a	catFR1	1	R1239E
2174.75	0.0	2203767	DISTRACT_START	n/a	n/a	n/a	n/a	-999	20	[0, 0, 0]	n/a	catFR1	1	R1239E
2174.75	0.015	2203767	START	n/a	n/a	n/a	n/a	-999	20	[-999, -999, -999]	n/a	catFR1	1	R1239E
2174.765	3.217	2203782	PROB	3.18	n/a	n/a	n/a	-999	20	[1, 9, 5]	15.0	catFR1	1	R1239E
2177.982	5.317	2206999	PROB	5.283	n/a	n/a	n/a	-999	20	[5, 4, 8]	17.0	catFR1	1	R1239E
2183.299	9.719	2212316	PROB	9.692	n/a	n/a	n/a	-999	20	[8, 9, 6]	23.0	catFR1	1	R1239E
2193.018	7.523	2222035	PROB	7.523	n/a	n/a	n/a	-999	20	[8, 4, 9]	23.0	catFR1	1	R1239E
2200.541	0.012	2229557	STOP	n/a	n/a	n/a	n/a	-999	20	[-999, -999, -999]	n/a	catFR1	1	R1239E
2200.553	0.683	2229569	DISTRACT_END	n/a	n/a	n/a	n/a	-999	20	[0, 0, 0]	n/a	catFR1	1	R1239E
2201.236	0.518	2230252	RETRIEVAL_ORIENT	n/a	n/a	n/a	n/a	-999	20	[0, 0, 0]	n/a	catFR1	1	R1239E
2201.754	0.384	2230770	REC_START	n/a	n/a	n/a	n/a	-999	20	[0, 0, 0]	n/a	catFR1	1	R1239E
2202.138	0.687	2231154	REC_WORD	0.384	n/a	VACUUM	Appliances	2	20	[0, 0, 0]	n/a	catFR1	1	R1239E
2202.825	0.534	2231841	REC_WORD	1.071	n/a	RATCHET	Tools	3	20	[0, 0, 0]	n/a	catFR1	1	R1239E
2203.359	1.252	2232375	REC_WORD	1.605	n/a	SHOVEL	Tools	4	20	[0, 0, 0]	n/a	catFR1	1	R1239E
2204.611	1.006	2233627	REC_WORD	2.857	n/a	COAT	Clothing	5	20	[0, 0, 0]	n/a	catFR1	1	R1239E
2205.617	1.863	2234633	REC_WORD	3.863	n/a	DRYER	Appliances	7	20	[0, 0, 0]	n/a	catFR1	1	R1239E
2207.48	24.282	2236496	REC_WORD	5.726	n/a	SHIRT	Clothing	6	20	[0, 0, 0]	n/a	catFR1	1	R1239E
2231.762	0.0	2260777	REC_END	n/a	n/a	n/a	n/a	-999	20	[0, 0, 0]	n/a	catFR1	1	R1239E
