onset	duration	sample	trial_type	response_time	stim_file	item_name	category	serialpos	list	test	answer	experiment	session	subject
0.0	5.446	34001	INSTRUCT_START	n/a	n/a	n/a	n/a	-999	-999	[0, 0, 0]	n/a	catFR1	2	R1666S
5.446	25.129	39447	INSTRUCT_END	n/a	n/a	n/a	n/a	-999	-999	[0, 0, 0]	n/a	catFR1	2	R1666S
30.575	10.35	64571	COUNTDOWN_START	n/a	n/a	n/a	n/a	-999	-999	[0, 0, 0]	n/a	catFR1	2	R1666S
40.925	0.001	74926	COUNTDOWN_END	n/a	n/a	n/a	n/a	-999	-999	[0, 0, 0]	n/a	catFR1	2	R1666S
40.926	2.265	74926	ENCODING_START	n/a	n/a	n/a	n/a	-999	-1	[0, 0, 0]	n/a	catFR1	2	R1666S
43.191	1.599	77193	WORD	n/a	n/a	COMPUTER	Electronics	1	-1	[0, 0, 0]	n/a	catFR1	2	R1666S
44.79	0.899	78793	WORD_OFF	n/a	n/a	COMPUTER	Electronics	1	-1	[0, 0, 0]	n/a	catFR1	2	R1666S
45.689	1.609	79694	WORD	n/a	n/a	PHONE	Electronics	2	-1	[0, 0, 0]	n/a	catFR1	2	R1666S
47.298	0.859	81303	WORD_OFF	n/a	n/a	PHONE	Electronics	2	-1	[0, 0, 0]	n/a	catFR1	2	R1666S
48.157	1.601	82153	WORD	n/a	n/a	GRAPE	Fruit	3	-1	[0, 0, 0]	n/a	catFR1	2	R1666S
49.758	0.856	83753	WORD_OFF	n/a	n/a	GRAPE	Fruit	3	-1	[0, 0, 0]	n/a	catFR1	2	R1666S
50.614	1.604	84613	WORD	n/a	n/a	STRAWBERRY	Fruit	4	-1	[0, 0, 0]	n/a	catFR1	2	R1666S
52.218	0.998	86222	WORD_OFF	n/a	n/a	STRAWBERRY	Fruit	4	-1	[0, 0, 0]	n/a	catFR1	2	R1666S
53.216	1.607	87214	WORD	n/a	n/a	PINE	Trees	5	-1	[0, 0, 0]	n/a	catFR1	2	R1666S
54.823	0.859	88824	WORD_OFF	n/a	n/a	PINE	Trees	5	-1	[0, 0, 0]	n/a	catFR1	2	R1666S
55.682	1.608	89684	WORD	n/a	n/a	OAK	Trees	6	-1	[0, 0, 0]	n/a	catFR1	2	R1666S
57.29	0.89	91294	WORD_OFF	n/a	n/a	OAK	Trees	6	-1	[0, 0, 0]	n/a	catFR1	2	R1666S
58.18	1.602	92185	WORD	n/a	n/a	LIME	Fruit	7	-1	[0, 0, 0]	n/a	catFR1	2	R1666S
59.782	0.799	93784	WORD_OFF	n/a	n/a	LIME	Fruit	7	-1	[0, 0, 0]	n/a	catFR1	2	R1666S
60.581	1.609	94584	WORD	n/a	n/a	PEACH	Fruit	8	-1	[0, 0, 0]	n/a	catFR1	2	R1666S
62.19	0.95	96193	WORD_OFF	n/a	n/a	PEACH	Fruit	8	-1	[0, 0, 0]	n/a	catFR1	2	R1666S
63.14	1.608	97145	WORD	n/a	n/a	HEADPHONES	Electronics	9	-1	[0, 0, 0]	n/a	catFR1	2	R1666S
64.748	0.967	98744	WORD_OFF	n/a	n/a	HEADPHONES	Electronics	9	-1	[0, 0, 0]	n/a	catFR1	2	R1666S
65.715	1.6	99716	WORD	n/a	n/a	TABLET	Electronics	10	-1	[0, 0, 0]	n/a	catFR1	2	R1666S
67.315	0.841	101315	WORD_OFF	n/a	n/a	TABLET	Electronics	10	-1	[0, 0, 0]	n/a	catFR1	2	R1666S
68.156	1.6	102155	WORD	n/a	n/a	WALNUT	Trees	11	-1	[0, 0, 0]	n/a	catFR1	2	R1666S
69.756	0.784	103755	WORD_OFF	n/a	n/a	WALNUT	Trees	11	-1	[0, 0, 0]	n/a	catFR1	2	R1666S
70.54	1.6	104544	WORD	n/a	n/a	EVERGREEN	Trees	12	-1	[0, 0, 0]	n/a	catFR1	2	R1666S
72.14	0.004	106143	WORD_OFF	n/a	n/a	EVERGREEN	Trees	12	-1	[0, 0, 0]	n/a	catFR1	2	R1666S
72.144	0.0	106143	ENCODING_END	n/a	n/a	n/a	n/a	-999	-1	[0, 0, 0]	n/a	catFR1	2	R1666S
72.144	0.0	106143	DISTRACT_START	n/a	n/a	n/a	n/a	-999	-1	[0, 0, 0]	n/a	catFR1	2	R1666S
72.144	0.003	106145	START	n/a	n/a	n/a	n/a	-999	-1	[-999, -999, -999]	n/a	catFR1	2	R1666S
72.147	7.376	106148	PROB	7.376	n/a	n/a	n/a	-999	-1	[2, 2, 5]	9	catFR1	2	R1666S
79.523	6.442	113524	PROB	6.442	n/a	n/a	n/a	-999	-1	[3, 6, 2]	11	catFR1	2	R1666S
85.965	6.149	119966	PROB	6.149	n/a	n/a	n/a	-999	-1	[7, 1, 5]	13	catFR1	2	R1666S
92.114	9.711	126115	PROB	9.711	n/a	n/a	n/a	-999	-1	[8, 6, 3]	17	catFR1	2	R1666S
101.825	0.0	135822	DISTRACT_END	n/a	n/a	n/a	n/a	-999	-1	[0, 0, 0]	n/a	catFR1	2	R1666S
101.825	2.016	135826	STOP	n/a	n/a	n/a	n/a	-999	-1	[-999, -999, -999]	n/a	catFR1	2	R1666S
103.841	1.026	137837	REC_START	n/a	n/a	n/a	n/a	-999	-1	[0, 0, 0]	n/a	catFR1	2	R1666S
104.867	7.488	138868	REC_WORD	7.488	n/a	STRAWBERRY	Fruit	4	-1	[0, 0, 0]	n/a	catFR1	2	R1666S
112.355	6.106	146356	REC_WORD	6.106	n/a	LIME	Fruit	7	-1	[0, 0, 0]	n/a	catFR1	2	R1666S
118.461	9.76	152462	REC_WORD_VV	9.76	n/a	<>	n/a	-999	-1	[0, 0, 0]	n/a	catFR1	2	R1666S
128.221	5.767	162222	REC_WORD	5.767	n/a	VEHICLE	n/a	-999	-1	[0, 0, 0]	n/a	catFR1	2	R1666S
133.988	8.344	167981	REC_END	n/a	n/a	n/a	n/a	-999	-1	[0, 0, 0]	n/a	catFR1	2	R1666S
142.332	10.342	176332	COUNTDOWN_START	n/a	n/a	n/a	n/a	-999	1	[0, 0, 0]	n/a	catFR1	2	R1666S
152.674	0.0	186667	COUNTDOWN_END	n/a	n/a	n/a	n/a	-999	1	[0, 0, 0]	n/a	catFR1	2	R1666S
152.674	1.934	186678	ENCODING_START	n/a	n/a	n/a	n/a	-999	1	[0, 0, 0]	n/a	catFR1	2	R1666S
154.608	1.6	188611	WORD	n/a	wordpools/wordpool_categorized_EN.txt	VIOLET	Flowers	1	1	[0, 0, 0]	n/a	catFR1	2	R1666S
156.208	0.882	190210	WORD_OFF	n/a	n/a	VIOLET	Flowers	1	1	[0, 0, 0]	n/a	catFR1	2	R1666S
157.09	1.6	191091	WORD	n/a	wordpools/wordpool_categorized_EN.txt	DAFFODIL	Flowers	2	1	[0, 0, 0]	n/a	catFR1	2	R1666S
158.69	0.925	192690	WORD_OFF	n/a	n/a	DAFFODIL	Flowers	2	1	[0, 0, 0]	n/a	catFR1	2	R1666S
159.615	1.601	193611	WORD	n/a	wordpools/wordpool_categorized_EN.txt	SKIRT	Clothing	3	1	[0, 0, 0]	n/a	catFR1	2	R1666S
161.216	0.933	195211	WORD_OFF	n/a	n/a	SKIRT	Clothing	3	1	[0, 0, 0]	n/a	catFR1	2	R1666S
162.149	1.6	196152	WORD	n/a	wordpools/wordpool_categorized_EN.txt	COAT	Clothing	4	1	[0, 0, 0]	n/a	catFR1	2	R1666S
163.749	0.901	197752	WORD_OFF	n/a	n/a	COAT	Clothing	4	1	[0, 0, 0]	n/a	catFR1	2	R1666S
164.65	1.609	198652	WORD	n/a	wordpools/wordpool_categorized_EN.txt	LAKE	Landscapes	5	1	[0, 0, 0]	n/a	catFR1	2	R1666S
166.259	0.875	200262	WORD_OFF	n/a	n/a	LAKE	Landscapes	5	1	[0, 0, 0]	n/a	catFR1	2	R1666S
167.134	1.608	201132	WORD	n/a	wordpools/wordpool_categorized_EN.txt	ISLAND	Landscapes	6	1	[0, 0, 0]	n/a	catFR1	2	R1666S
168.742	0.85	202742	WORD_OFF	n/a	n/a	ISLAND	Landscapes	6	1	[0, 0, 0]	n/a	catFR1	2	R1666S
169.592	1.608	203592	WORD	n/a	wordpools/wordpool_categorized_EN.txt	SUNFLOWER	Flowers	7	1	[0, 0, 0]	n/a	catFR1	2	R1666S
171.2	0.958	205202	WORD_OFF	n/a	n/a	SUNFLOWER	Flowers	7	1	[0, 0, 0]	n/a	catFR1	2	R1666S
172.158	1.61	206153	WORD	n/a	wordpools/wordpool_categorized_EN.txt	MARIGOLD	Flowers	8	1	[0, 0, 0]	n/a	catFR1	2	R1666S
173.768	0.963	207763	WORD_OFF	n/a	n/a	MARIGOLD	Flowers	8	1	[0, 0, 0]	n/a	catFR1	2	R1666S
174.731	1.601	208724	WORD	n/a	wordpools/wordpool_categorized_EN.txt	SHORTS	Clothing	9	1	[0, 0, 0]	n/a	catFR1	2	R1666S
176.332	0.993	210334	WORD_OFF	n/a	n/a	SHORTS	Clothing	9	1	[0, 0, 0]	n/a	catFR1	2	R1666S
177.325	1.599	211326	WORD	n/a	wordpools/wordpool_categorized_EN.txt	SOCKS	Clothing	10	1	[0, 0, 0]	n/a	catFR1	2	R1666S
178.924	0.818	212925	WORD_OFF	n/a	n/a	SOCKS	Clothing	10	1	[0, 0, 0]	n/a	catFR1	2	R1666S
179.742	1.607	213735	WORD	n/a	wordpools/wordpool_categorized_EN.txt	HILLS	Landscapes	11	1	[0, 0, 0]	n/a	catFR1	2	R1666S
181.349	0.809	215344	WORD_OFF	n/a	n/a	HILLS	Landscapes	11	1	[0, 0, 0]	n/a	catFR1	2	R1666S
182.158	1.6	216154	WORD	n/a	wordpools/wordpool_categorized_EN.txt	OCEAN	Landscapes	12	1	[0, 0, 0]	n/a	catFR1	2	R1666S
183.758	0.003	217754	WORD_OFF	n/a	n/a	OCEAN	Landscapes	12	1	[0, 0, 0]	n/a	catFR1	2	R1666S
183.761	0.0	217754	ENCODING_END	n/a	n/a	n/a	n/a	-999	1	[0, 0, 0]	n/a	catFR1	2	R1666S
183.759	0.002	217759	PROB	0.002	n/a	n/a	n/a	-999	1	[1, 7, 4]	12	catFR1	2	R1666S
183.761	0.0	217761	START	n/a	n/a	n/a	n/a	-999	1	[-999, -999, -999]	n/a	catFR1	2	R1666S
183.761	4.765	217764	DISTRACT_START	n/a	n/a	n/a	n/a	-999	1	[0, 0, 0]	n/a	catFR1	2	R1666S
188.526	3.699	222526	PROB	3.699	n/a	n/a	n/a	-999	1	[1, 1, 5]	7	catFR1	2	R1666S
192.225	6.424	226225	PROB	6.424	n/a	n/a	n/a	-999	1	[4, 3, 7]	13	catFR1	2	R1666S
198.649	5.333	232649	PROB	5.333	n/a	n/a	n/a	-999	1	[7, 1, 3]	11	catFR1	2	R1666S
203.982	0.0	237978	DISTRACT_END	n/a	n/a	n/a	n/a	-999	1	[0, 0, 0]	n/a	catFR1	2	R1666S
203.982	2.202	237982	STOP	n/a	n/a	n/a	n/a	-999	1	[-999, -999, -999]	n/a	catFR1	2	R1666S
206.184	1.161	240185	REC_START	n/a	n/a	n/a	n/a	-999	1	[0, 0, 0]	n/a	catFR1	2	R1666S
207.345	1.339	241345	REC_WORD	1.339	n/a	STRAWBERRY	Fruit	-999	1	[0, 0, 0]	n/a	catFR1	2	R1666S
208.684	1.685	242684	REC_WORD	1.685	n/a	LIME	Fruit	-999	1	[0, 0, 0]	n/a	catFR1	2	R1666S
210.369	2.0	244369	REC_WORD	2.0	n/a	LAKE	Landscapes	5	1	[0, 0, 0]	n/a	catFR1	2	R1666S
212.369	6.107	246368	REC_WORD	6.107	n/a	BEACH	n/a	-999	1	[0, 0, 0]	n/a	catFR1	2	R1666S
218.476	16.72	252475	REC_WORD	16.72	n/a	DANDILION	n/a	-999	1	[0, 0, 0]	n/a	catFR1	2	R1666S
235.196	1.137	269195	REC_WORD	1.137	n/a	TRUCK	n/a	-999	1	[0, 0, 0]	n/a	catFR1	2	R1666S
236.333	2.158	270329	REC_END	n/a	n/a	n/a	n/a	-999	1	[0, 0, 0]	n/a	catFR1	2	R1666S
238.491	10.352	272486	COUNTDOWN_START	n/a	n/a	n/a	n/a	-999	2	[0, 0, 0]	n/a	catFR1	2	R1666S
248.843	0.0	282841	COUNTDOWN_END	n/a	n/a	n/a	n/a	-999	2	[0, 0, 0]	n/a	catFR1	2	R1666S
248.843	1.941	282841	ENCODING_START	n/a	n/a	n/a	n/a	-999	2	[0, 0, 0]	n/a	catFR1	2	R1666S
250.784	1.6	284784	WORD	n/a	wordpools/wordpool_categorized_EN.txt	MONKEY	Zoo	1	2	[0, 0, 0]	n/a	catFR1	2	R1666S
252.384	0.915	286384	WORD_OFF	n/a	n/a	MONKEY	Zoo	1	2	[0, 0, 0]	n/a	catFR1	2	R1666S
253.299	1.611	287295	WORD	n/a	wordpools/wordpool_categorized_EN.txt	ORANGUTAN	Zoo	2	2	[0, 0, 0]	n/a	catFR1	2	R1666S
254.91	0.891	288904	WORD_OFF	n/a	n/a	ORANGUTAN	Zoo	2	2	[0, 0, 0]	n/a	catFR1	2	R1666S
255.801	1.608	289795	WORD	n/a	wordpools/wordpool_categorized_EN.txt	DENIM	Fabric	3	2	[0, 0, 0]	n/a	catFR1	2	R1666S
257.409	0.874	291404	WORD_OFF	n/a	n/a	DENIM	Fabric	3	2	[0, 0, 0]	n/a	catFR1	2	R1666S
258.283	1.601	292285	WORD	n/a	wordpools/wordpool_categorized_EN.txt	FLEECE	Fabric	4	2	[0, 0, 0]	n/a	catFR1	2	R1666S
259.884	0.758	293884	WORD_OFF	n/a	n/a	FLEECE	Fabric	4	2	[0, 0, 0]	n/a	catFR1	2	R1666S
260.642	1.6	294644	WORD	n/a	wordpools/wordpool_categorized_EN.txt	BASEBALL	Toys	5	2	[0, 0, 0]	n/a	catFR1	2	R1666S
262.242	0.916	296243	WORD_OFF	n/a	n/a	BASEBALL	Toys	5	2	[0, 0, 0]	n/a	catFR1	2	R1666S
263.158	1.601	297154	WORD	n/a	wordpools/wordpool_categorized_EN.txt	MARBLES	Toys	6	2	[0, 0, 0]	n/a	catFR1	2	R1666S
264.759	0.858	298753	WORD_OFF	n/a	n/a	MARBLES	Toys	6	2	[0, 0, 0]	n/a	catFR1	2	R1666S
265.617	1.6	299614	WORD	n/a	wordpools/wordpool_categorized_EN.txt	BEAR	Zoo	7	2	[0, 0, 0]	n/a	catFR1	2	R1666S
267.217	0.776	301213	WORD_OFF	n/a	n/a	BEAR	Zoo	7	2	[0, 0, 0]	n/a	catFR1	2	R1666S
267.993	1.601	301992	WORD	n/a	wordpools/wordpool_categorized_EN.txt	CHIMPANZEE	Zoo	8	2	[0, 0, 0]	n/a	catFR1	2	R1666S
269.594	0.823	303592	WORD_OFF	n/a	n/a	CHIMPANZEE	Zoo	8	2	[0, 0, 0]	n/a	catFR1	2	R1666S
270.417	1.61	304412	WORD	n/a	wordpools/wordpool_categorized_EN.txt	COTTON	Fabric	9	2	[0, 0, 0]	n/a	catFR1	2	R1666S
272.027	0.775	306031	WORD_OFF	n/a	n/a	COTTON	Fabric	9	2	[0, 0, 0]	n/a	catFR1	2	R1666S
272.802	1.607	306801	WORD	n/a	wordpools/wordpool_categorized_EN.txt	NYLON	Fabric	10	2	[0, 0, 0]	n/a	catFR1	2	R1666S
274.409	0.983	308410	WORD_OFF	n/a	n/a	NYLON	Fabric	10	2	[0, 0, 0]	n/a	catFR1	2	R1666S
275.392	1.611	309392	WORD	n/a	wordpools/wordpool_categorized_EN.txt	BARBIE	Toys	11	2	[0, 0, 0]	n/a	catFR1	2	R1666S
277.003	0.856	311001	WORD_OFF	n/a	n/a	BARBIE	Toys	11	2	[0, 0, 0]	n/a	catFR1	2	R1666S
277.859	1.607	311862	WORD	n/a	wordpools/wordpool_categorized_EN.txt	FRISBEE	Toys	12	2	[0, 0, 0]	n/a	catFR1	2	R1666S
279.466	0.001	313461	WORD_OFF	n/a	n/a	FRISBEE	Toys	12	2	[0, 0, 0]	n/a	catFR1	2	R1666S
279.467	0.0	313461	ENCODING_END	n/a	n/a	n/a	n/a	-999	2	[0, 0, 0]	n/a	catFR1	2	R1666S
279.467	0.0	313461	DISTRACT_START	n/a	n/a	n/a	n/a	-999	2	[0, 0, 0]	n/a	catFR1	2	R1666S
279.466	0.001	313465	PROB	0.001	n/a	n/a	n/a	-999	2	[6, 5, 1]	12	catFR1	2	R1666S
279.467	6.25	313466	START	n/a	n/a	n/a	n/a	-999	2	[-999, -999, -999]	n/a	catFR1	2	R1666S
285.717	4.284	319716	PROB	4.284	n/a	n/a	n/a	-999	2	[2, 5, 4]	11	catFR1	2	R1666S
290.001	7.158	323999	PROB	7.158	n/a	n/a	n/a	-999	2	[4, 7, 6]	17	catFR1	2	R1666S
297.159	4.761	331157	PROB	4.761	n/a	n/a	n/a	-999	2	[6, 8, 3]	17	catFR1	2	R1666S
301.92	0.0	335913	DISTRACT_END	n/a	n/a	n/a	n/a	-999	2	[0, 0, 0]	n/a	catFR1	2	R1666S
301.92	2.24	335918	STOP	n/a	n/a	n/a	n/a	-999	2	[-999, -999, -999]	n/a	catFR1	2	R1666S
304.16	0.908	338160	REC_START	n/a	n/a	n/a	n/a	-999	2	[0, 0, 0]	n/a	catFR1	2	R1666S
305.068	0.935	339066	REC_WORD	0.935	n/a	MONKEY	Zoo	1	2	[0, 0, 0]	n/a	catFR1	2	R1666S
306.003	8.038	340001	REC_WORD	8.038	n/a	ORANGUTAN	Zoo	2	2	[0, 0, 0]	n/a	catFR1	2	R1666S
314.041	8.241	348039	REC_WORD	8.241	n/a	DENIM	Fabric	3	2	[0, 0, 0]	n/a	catFR1	2	R1666S
322.282	6.985	356280	REC_WORD	6.985	n/a	BEACH	n/a	-999	2	[0, 0, 0]	n/a	catFR1	2	R1666S
329.267	4.266	363265	REC_WORD	4.266	n/a	ISLAND	Landscapes	-999	2	[0, 0, 0]	n/a	catFR1	2	R1666S
333.533	0.769	367531	REC_WORD_VV	0.769	n/a	<>	n/a	-999	2	[0, 0, 0]	n/a	catFR1	2	R1666S
334.302	2.932	368294	REC_END	n/a	n/a	n/a	n/a	-999	2	[0, 0, 0]	n/a	catFR1	2	R1666S
337.234	10.342	371230	COUNTDOWN_START	n/a	n/a	n/a	n/a	-999	3	[0, 0, 0]	n/a	catFR1	2	R1666S
347.576	0.0	381575	COUNTDOWN_END	n/a	n/a	n/a	n/a	-999	3	[0, 0, 0]	n/a	catFR1	2	R1666S
347.576	2.184	381575	ENCODING_START	n/a	n/a	n/a	n/a	-999	3	[0, 0, 0]	n/a	catFR1	2	R1666S
349.76	1.6	383751	WORD	n/a	wordpools/wordpool_categorized_EN.txt	BASS	Instruments	1	3	[0, 0, 0]	n/a	catFR1	2	R1666S
351.36	0.866	385351	WORD_OFF	n/a	n/a	BASS	Instruments	1	3	[0, 0, 0]	n/a	catFR1	2	R1666S
352.226	1.6	386221	WORD	n/a	wordpools/wordpool_categorized_EN.txt	GUITAR	Instruments	2	3	[0, 0, 0]	n/a	catFR1	2	R1666S
353.826	0.816	387821	WORD_OFF	n/a	n/a	GUITAR	Instruments	2	3	[0, 0, 0]	n/a	catFR1	2	R1666S
354.642	1.601	388641	WORD	n/a	wordpools/wordpool_categorized_EN.txt	VALLEY	Landscapes	3	3	[0, 0, 0]	n/a	catFR1	2	R1666S
356.243	0.992	390240	WORD_OFF	n/a	n/a	VALLEY	Landscapes	3	3	[0, 0, 0]	n/a	catFR1	2	R1666S
357.235	1.601	391232	WORD	n/a	wordpools/wordpool_categorized_EN.txt	RIVER	Landscapes	4	3	[0, 0, 0]	n/a	catFR1	2	R1666S
358.836	0.999	392831	WORD_OFF	n/a	n/a	RIVER	Landscapes	4	3	[0, 0, 0]	n/a	catFR1	2	R1666S
359.835	1.607	393833	WORD	n/a	wordpools/wordpool_categorized_EN.txt	HALLWAY	Building	5	3	[0, 0, 0]	n/a	catFR1	2	R1666S
361.442	0.776	395433	WORD_OFF	n/a	n/a	HALLWAY	Building	5	3	[0, 0, 0]	n/a	catFR1	2	R1666S
362.218	1.609	396212	WORD	n/a	wordpools/wordpool_categorized_EN.txt	ROOM	Building	6	3	[0, 0, 0]	n/a	catFR1	2	R1666S
363.827	0.825	397822	WORD_OFF	n/a	n/a	ROOM	Building	6	3	[0, 0, 0]	n/a	catFR1	2	R1666S
364.652	1.607	398652	WORD	n/a	wordpools/wordpool_categorized_EN.txt	BEACH	Landscapes	7	3	[0, 0, 0]	n/a	catFR1	2	R1666S
366.259	0.976	400251	WORD_OFF	n/a	n/a	BEACH	Landscapes	7	3	[0, 0, 0]	n/a	catFR1	2	R1666S
367.235	1.609	401233	WORD	n/a	wordpools/wordpool_categorized_EN.txt	FOREST	Landscapes	8	3	[0, 0, 0]	n/a	catFR1	2	R1666S
368.844	0.956	402842	WORD_OFF	n/a	n/a	FOREST	Landscapes	8	3	[0, 0, 0]	n/a	catFR1	2	R1666S
369.8	1.602	403794	WORD	n/a	wordpools/wordpool_categorized_EN.txt	STAIRS	Building	9	3	[0, 0, 0]	n/a	catFR1	2	R1666S
371.402	0.85	405393	WORD_OFF	n/a	n/a	STAIRS	Building	9	3	[0, 0, 0]	n/a	catFR1	2	R1666S
372.252	1.607	406254	WORD	n/a	wordpools/wordpool_categorized_EN.txt	DOOR	Building	10	3	[0, 0, 0]	n/a	catFR1	2	R1666S
373.859	0.835	407853	WORD_OFF	n/a	n/a	DOOR	Building	10	3	[0, 0, 0]	n/a	catFR1	2	R1666S
374.694	1.6	408693	WORD	n/a	wordpools/wordpool_categorized_EN.txt	DRUM	Instruments	11	3	[0, 0, 0]	n/a	catFR1	2	R1666S
376.294	0.818	410292	WORD_OFF	n/a	n/a	DRUM	Instruments	11	3	[0, 0, 0]	n/a	catFR1	2	R1666S
377.112	1.599	411112	WORD	n/a	wordpools/wordpool_categorized_EN.txt	ORGAN	Instruments	12	3	[0, 0, 0]	n/a	catFR1	2	R1666S
378.711	0.0	412702	WORD_OFF	n/a	n/a	ORGAN	Instruments	12	3	[0, 0, 0]	n/a	catFR1	2	R1666S
378.711	0.003	412708	PROB	0.003	n/a	n/a	n/a	-999	3	[5, 8, 5]	18	catFR1	2	R1666S
378.714	0.0	412711	START	n/a	n/a	n/a	n/a	-999	3	[-999, -999, -999]	n/a	catFR1	2	R1666S
378.713	0.001	412712	ENCODING_END	n/a	n/a	n/a	n/a	-999	3	[0, 0, 0]	n/a	catFR1	2	R1666S
378.714	6.671	412712	DISTRACT_START	n/a	n/a	n/a	n/a	-999	3	[0, 0, 0]	n/a	catFR1	2	R1666S
385.385	5.542	419382	PROB	5.542	n/a	n/a	n/a	-999	3	[8, 7, 5]	20	catFR1	2	R1666S
390.927	5.683	424924	PROB	5.683	n/a	n/a	n/a	-999	3	[3, 4, 8]	15	catFR1	2	R1666S
396.61	5.259	430607	PROB	5.259	n/a	n/a	n/a	-999	3	[7, 6, 7]	20	catFR1	2	R1666S
401.869	0.0	435862	DISTRACT_END	n/a	n/a	n/a	n/a	-999	3	[0, 0, 0]	n/a	catFR1	2	R1666S
401.869	2.308	435866	STOP	n/a	n/a	n/a	n/a	-999	3	[-999, -999, -999]	n/a	catFR1	2	R1666S
404.177	0.986	438170	REC_START	n/a	n/a	n/a	n/a	-999	3	[0, 0, 0]	n/a	catFR1	2	R1666S
405.163	2.109	439160	REC_WORD	2.109	n/a	MONKEY	Zoo	-999	3	[0, 0, 0]	n/a	catFR1	2	R1666S
407.272	2.895	441269	REC_WORD	2.895	n/a	BEACH	Landscapes	7	3	[0, 0, 0]	n/a	catFR1	2	R1666S
410.167	7.574	444164	REC_WORD	7.574	n/a	DENIM	Fabric	-999	3	[0, 0, 0]	n/a	catFR1	2	R1666S
417.741	14.741	451738	REC_WORD	14.741	n/a	OCEAN	Landscapes	-999	3	[0, 0, 0]	n/a	catFR1	2	R1666S
432.482	1.832	466479	REC_WORD_VV	1.832	n/a	<>	n/a	-999	3	[0, 0, 0]	n/a	catFR1	2	R1666S
434.314	1.996	468304	REC_END	n/a	n/a	n/a	n/a	-999	3	[0, 0, 0]	n/a	catFR1	2	R1666S
436.31	10.35	470308	COUNTDOWN_START	n/a	n/a	n/a	n/a	-999	4	[0, 0, 0]	n/a	catFR1	2	R1666S
446.66	0.0	480654	COUNTDOWN_END	n/a	n/a	n/a	n/a	-999	4	[0, 0, 0]	n/a	catFR1	2	R1666S
446.66	2.151	480654	ENCODING_START	n/a	n/a	n/a	n/a	-999	4	[0, 0, 0]	n/a	catFR1	2	R1666S
448.811	1.6	482810	WORD	n/a	wordpools/wordpool_categorized_EN.txt	FREEZER	Appliances	1	4	[0, 0, 0]	n/a	catFR1	2	R1666S
450.411	0.8	484409	WORD_OFF	n/a	n/a	FREEZER	Appliances	1	4	[0, 0, 0]	n/a	catFR1	2	R1666S
451.211	1.602	485209	WORD	n/a	wordpools/wordpool_categorized_EN.txt	VACUUM	Appliances	2	4	[0, 0, 0]	n/a	catFR1	2	R1666S
452.813	0.78	486808	WORD_OFF	n/a	n/a	VACUUM	Appliances	2	4	[0, 0, 0]	n/a	catFR1	2	R1666S
453.593	1.6	487587	WORD	n/a	wordpools/wordpool_categorized_EN.txt	HAWK	Birds	3	4	[0, 0, 0]	n/a	catFR1	2	R1666S
455.193	0.875	489187	WORD_OFF	n/a	n/a	HAWK	Birds	3	4	[0, 0, 0]	n/a	catFR1	2	R1666S
456.068	1.6	490057	WORD	n/a	wordpools/wordpool_categorized_EN.txt	GOOSE	Birds	4	4	[0, 0, 0]	n/a	catFR1	2	R1666S
457.668	0.759	491667	WORD_OFF	n/a	n/a	GOOSE	Birds	4	4	[0, 0, 0]	n/a	catFR1	2	R1666S
458.427	1.6	492426	WORD	n/a	wordpools/wordpool_categorized_EN.txt	PEN	OfficeSupplies	5	4	[0, 0, 0]	n/a	catFR1	2	R1666S
460.027	0.925	494025	WORD_OFF	n/a	n/a	PEN	OfficeSupplies	5	4	[0, 0, 0]	n/a	catFR1	2	R1666S
460.952	1.6	494946	WORD	n/a	wordpools/wordpool_categorized_EN.txt	TAPE	OfficeSupplies	6	4	[0, 0, 0]	n/a	catFR1	2	R1666S
462.552	0.974	496546	WORD_OFF	n/a	n/a	TAPE	OfficeSupplies	6	4	[0, 0, 0]	n/a	catFR1	2	R1666S
463.526	1.6	497518	WORD	n/a	wordpools/wordpool_categorized_EN.txt	STOVE	Appliances	7	4	[0, 0, 0]	n/a	catFR1	2	R1666S
465.126	0.851	499117	WORD_OFF	n/a	n/a	STOVE	Appliances	7	4	[0, 0, 0]	n/a	catFR1	2	R1666S
465.977	1.6	499967	WORD	n/a	wordpools/wordpool_categorized_EN.txt	REFRIGERATOR	Appliances	8	4	[0, 0, 0]	n/a	catFR1	2	R1666S
467.577	0.893	501567	WORD_OFF	n/a	n/a	REFRIGERATOR	Appliances	8	4	[0, 0, 0]	n/a	catFR1	2	R1666S
468.47	1.601	502467	WORD	n/a	wordpools/wordpool_categorized_EN.txt	CROW	Birds	9	4	[0, 0, 0]	n/a	catFR1	2	R1666S
470.071	0.891	504067	WORD_OFF	n/a	n/a	CROW	Birds	9	4	[0, 0, 0]	n/a	catFR1	2	R1666S
470.962	1.599	504958	WORD	n/a	wordpools/wordpool_categorized_EN.txt	DOVE	Birds	10	4	[0, 0, 0]	n/a	catFR1	2	R1666S
472.561	0.867	506557	WORD_OFF	n/a	n/a	DOVE	Birds	10	4	[0, 0, 0]	n/a	catFR1	2	R1666S
473.428	1.6	507427	WORD	n/a	wordpools/wordpool_categorized_EN.txt	FOLDER	OfficeSupplies	11	4	[0, 0, 0]	n/a	catFR1	2	R1666S
475.028	0.807	509017	WORD_OFF	n/a	n/a	FOLDER	OfficeSupplies	11	4	[0, 0, 0]	n/a	catFR1	2	R1666S
475.835	1.602	509826	WORD	n/a	wordpools/wordpool_categorized_EN.txt	PENCIL	OfficeSupplies	12	4	[0, 0, 0]	n/a	catFR1	2	R1666S
477.437	0.0	511426	WORD_OFF	n/a	n/a	PENCIL	OfficeSupplies	12	4	[0, 0, 0]	n/a	catFR1	2	R1666S
477.436	0.004	511432	PROB	0.004	n/a	n/a	n/a	-999	4	[1, 4, 1]	6	catFR1	2	R1666S
477.44	0.0	511436	ENCODING_END	n/a	n/a	n/a	n/a	-999	4	[0, 0, 0]	n/a	catFR1	2	R1666S
477.44	0.0	511436	DISTRACT_START	n/a	n/a	n/a	n/a	-999	4	[0, 0, 0]	n/a	catFR1	2	R1666S
477.44	3.674	511436	START	n/a	n/a	n/a	n/a	-999	4	[-999, -999, -999]	n/a	catFR1	2	R1666S
481.114	4.632	515110	PROB	4.632	n/a	n/a	n/a	-999	4	[6, 5, 6]	17	catFR1	2	R1666S
485.746	5.659	519742	PROB	5.659	n/a	n/a	n/a	-999	4	[3, 2, 5]	10	catFR1	2	R1666S
491.405	4.389	525401	PROB	4.389	n/a	n/a	n/a	-999	4	[6, 1, 4]	11	catFR1	2	R1666S
495.794	5.075	529790	PROB	5.075	n/a	n/a	n/a	-999	4	[6, 7, 4]	17	catFR1	2	R1666S
500.869	0.0	534859	DISTRACT_END	n/a	n/a	n/a	n/a	-999	4	[0, 0, 0]	n/a	catFR1	2	R1666S
500.869	2.334	534865	STOP	n/a	n/a	n/a	n/a	-999	4	[-999, -999, -999]	n/a	catFR1	2	R1666S
503.203	0.899	537198	REC_START	n/a	n/a	n/a	n/a	-999	4	[0, 0, 0]	n/a	catFR1	2	R1666S
504.102	2.935	538098	REC_WORD	2.935	n/a	MONKEY	Zoo	-999	4	[0, 0, 0]	n/a	catFR1	2	R1666S
507.037	20.652	541033	REC_WORD	20.652	n/a	GARDEN	n/a	-999	4	[0, 0, 0]	n/a	catFR1	2	R1666S
527.689	3.029	561684	REC_WORD	3.029	n/a	HOME	n/a	-999	4	[0, 0, 0]	n/a	catFR1	2	R1666S
530.718	2.623	564713	REC_WORD	2.623	n/a	PLACE	n/a	-999	4	[0, 0, 0]	n/a	catFR1	2	R1666S
533.341	2.287	567332	REC_END	n/a	n/a	n/a	n/a	-999	4	[0, 0, 0]	n/a	catFR1	2	R1666S
535.628	10.342	569620	COUNTDOWN_START	n/a	n/a	n/a	n/a	-999	5	[0, 0, 0]	n/a	catFR1	2	R1666S
545.97	0.0	579965	COUNTDOWN_END	n/a	n/a	n/a	n/a	-999	5	[0, 0, 0]	n/a	catFR1	2	R1666S
545.97	2.001	579965	ENCODING_START	n/a	n/a	n/a	n/a	-999	5	[0, 0, 0]	n/a	catFR1	2	R1666S
547.971	1.6	581959	WORD	n/a	wordpools/wordpool_categorized_EN.txt	CHICKEN	FarmAnimals	1	5	[0, 0, 0]	n/a	catFR1	2	R1666S
549.571	0.933	583568	WORD_OFF	n/a	n/a	CHICKEN	FarmAnimals	1	5	[0, 0, 0]	n/a	catFR1	2	R1666S
550.504	1.599	584500	WORD	n/a	wordpools/wordpool_categorized_EN.txt	HEN	FarmAnimals	2	5	[0, 0, 0]	n/a	catFR1	2	R1666S
552.103	0.792	586099	WORD_OFF	n/a	n/a	HEN	FarmAnimals	2	5	[0, 0, 0]	n/a	catFR1	2	R1666S
552.895	1.6	586889	WORD	n/a	wordpools/wordpool_categorized_EN.txt	ARM	BodyParts	3	5	[0, 0, 0]	n/a	catFR1	2	R1666S
554.495	0.927	588488	WORD_OFF	n/a	n/a	ARM	BodyParts	3	5	[0, 0, 0]	n/a	catFR1	2	R1666S
555.422	1.6	589419	WORD	n/a	wordpools/wordpool_categorized_EN.txt	KNEE	BodyParts	4	5	[0, 0, 0]	n/a	catFR1	2	R1666S
557.022	0.832	591019	WORD_OFF	n/a	n/a	KNEE	BodyParts	4	5	[0, 0, 0]	n/a	catFR1	2	R1666S
557.854	1.601	591849	WORD	n/a	wordpools/wordpool_categorized_EN.txt	COLANDER	KitchenTools	5	5	[0, 0, 0]	n/a	catFR1	2	R1666S
559.455	0.882	593448	WORD_OFF	n/a	n/a	COLANDER	KitchenTools	5	5	[0, 0, 0]	n/a	catFR1	2	R1666S
560.337	1.599	594329	WORD	n/a	wordpools/wordpool_categorized_EN.txt	TONGS	KitchenTools	6	5	[0, 0, 0]	n/a	catFR1	2	R1666S
561.936	0.867	595928	WORD_OFF	n/a	n/a	TONGS	KitchenTools	6	5	[0, 0, 0]	n/a	catFR1	2	R1666S
562.803	1.609	596798	WORD	n/a	wordpools/wordpool_categorized_EN.txt	GOAT	FarmAnimals	7	5	[0, 0, 0]	n/a	catFR1	2	R1666S
564.412	0.834	598408	WORD_OFF	n/a	n/a	GOAT	FarmAnimals	7	5	[0, 0, 0]	n/a	catFR1	2	R1666S
565.246	1.61	599238	WORD	n/a	wordpools/wordpool_categorized_EN.txt	BULL	FarmAnimals	8	5	[0, 0, 0]	n/a	catFR1	2	R1666S
566.856	0.982	600847	WORD_OFF	n/a	n/a	BULL	FarmAnimals	8	5	[0, 0, 0]	n/a	catFR1	2	R1666S
567.838	1.6	601829	WORD	n/a	wordpools/wordpool_categorized_EN.txt	SPATULA	KitchenTools	9	5	[0, 0, 0]	n/a	catFR1	2	R1666S
569.438	0.942	603429	WORD_OFF	n/a	n/a	SPATULA	KitchenTools	9	5	[0, 0, 0]	n/a	catFR1	2	R1666S
570.38	1.6	604370	WORD	n/a	wordpools/wordpool_categorized_EN.txt	PEELER	KitchenTools	10	5	[0, 0, 0]	n/a	catFR1	2	R1666S
571.98	0.825	605969	WORD_OFF	n/a	n/a	PEELER	KitchenTools	10	5	[0, 0, 0]	n/a	catFR1	2	R1666S
572.805	1.609	606799	WORD	n/a	wordpools/wordpool_categorized_EN.txt	ELBOW	BodyParts	11	5	[0, 0, 0]	n/a	catFR1	2	R1666S
574.414	0.949	608409	WORD_OFF	n/a	n/a	ELBOW	BodyParts	11	5	[0, 0, 0]	n/a	catFR1	2	R1666S
575.363	1.6	609350	WORD	n/a	wordpools/wordpool_categorized_EN.txt	EAR	BodyParts	12	5	[0, 0, 0]	n/a	catFR1	2	R1666S
576.963	0.0	610958	PROB	0.0	n/a	n/a	n/a	-999	5	[6, 3, 8]	19	catFR1	2	R1666S
576.963	0.003	610960	WORD_OFF	n/a	n/a	EAR	BodyParts	12	5	[0, 0, 0]	n/a	catFR1	2	R1666S
576.966	0.0	610960	ENCODING_END	n/a	n/a	n/a	n/a	-999	5	[0, 0, 0]	n/a	catFR1	2	R1666S
576.966	0.0	610960	DISTRACT_START	n/a	n/a	n/a	n/a	-999	5	[0, 0, 0]	n/a	catFR1	2	R1666S
576.966	13.081	610961	START	n/a	n/a	n/a	n/a	-999	5	[-999, -999, -999]	n/a	catFR1	2	R1666S
590.047	11.632	624041	PROB	11.632	n/a	n/a	n/a	-999	5	[5, 2, 8]	15	catFR1	2	R1666S
601.679	0.0	635669	DISTRACT_END	n/a	n/a	n/a	n/a	-999	5	[0, 0, 0]	n/a	catFR1	2	R1666S
601.679	2.234	635673	STOP	n/a	n/a	n/a	n/a	-999	5	[-999, -999, -999]	n/a	catFR1	2	R1666S
603.913	1.394	637906	REC_START	n/a	n/a	n/a	n/a	-999	5	[0, 0, 0]	n/a	catFR1	2	R1666S
605.307	3.009	639301	REC_WORD	3.009	n/a	MONKEY	Zoo	-999	5	[0, 0, 0]	n/a	catFR1	2	R1666S
608.316	2.06	642310	REC_WORD	2.06	n/a	BEACH	Landscapes	-999	5	[0, 0, 0]	n/a	catFR1	2	R1666S
610.376	3.645	644370	REC_WORD	3.645	n/a	GOAT	FarmAnimals	7	5	[0, 0, 0]	n/a	catFR1	2	R1666S
614.021	8.245	648015	REC_WORD	8.245	n/a	KITCHEN	n/a	-999	5	[0, 0, 0]	n/a	catFR1	2	R1666S
622.266	2.742	656260	REC_WORD	2.742	n/a	CAR	n/a	-999	5	[0, 0, 0]	n/a	catFR1	2	R1666S
625.008	9.04	659002	REC_WORD	9.04	n/a	TRUCK	n/a	-999	5	[0, 0, 0]	n/a	catFR1	2	R1666S
634.048	2.467	668040	REC_END	n/a	n/a	n/a	n/a	-999	5	[0, 0, 0]	n/a	catFR1	2	R1666S
636.515	10.339	670510	COUNTDOWN_START	n/a	n/a	n/a	n/a	-999	6	[0, 0, 0]	n/a	catFR1	2	R1666S
646.854	0.001	680845	COUNTDOWN_END	n/a	n/a	n/a	n/a	-999	6	[0, 0, 0]	n/a	catFR1	2	R1666S
646.855	2.0	680845	ENCODING_START	n/a	n/a	n/a	n/a	-999	6	[0, 0, 0]	n/a	catFR1	2	R1666S
648.855	1.608	682849	WORD	n/a	wordpools/wordpool_categorized_EN.txt	SPEAKER	Electronics	1	6	[0, 0, 0]	n/a	catFR1	2	R1666S
650.463	0.826	684459	WORD_OFF	n/a	n/a	SPEAKER	Electronics	1	6	[0, 0, 0]	n/a	catFR1	2	R1666S
651.289	1.609	685279	WORD	n/a	wordpools/wordpool_categorized_EN.txt	CALCULATOR	Electronics	2	6	[0, 0, 0]	n/a	catFR1	2	R1666S
652.898	0.857	686888	WORD_OFF	n/a	n/a	CALCULATOR	Electronics	2	6	[0, 0, 0]	n/a	catFR1	2	R1666S
653.755	1.608	687749	WORD	n/a	wordpools/wordpool_categorized_EN.txt	CUPCAKE	Desserts	3	6	[0, 0, 0]	n/a	catFR1	2	R1666S
655.363	0.824	689358	WORD_OFF	n/a	n/a	CUPCAKE	Desserts	3	6	[0, 0, 0]	n/a	catFR1	2	R1666S
656.187	1.603	690178	WORD	n/a	wordpools/wordpool_categorized_EN.txt	FUDGE	Desserts	4	6	[0, 0, 0]	n/a	catFR1	2	R1666S
657.79	0.999	691787	WORD_OFF	n/a	n/a	FUDGE	Desserts	4	6	[0, 0, 0]	n/a	catFR1	2	R1666S
658.789	1.6	692779	WORD	n/a	wordpools/wordpool_categorized_EN.txt	BLOCKS	Toys	5	6	[0, 0, 0]	n/a	catFR1	2	R1666S
660.389	0.833	694379	WORD_OFF	n/a	n/a	BLOCKS	Toys	5	6	[0, 0, 0]	n/a	catFR1	2	R1666S
661.222	1.601	695209	WORD	n/a	wordpools/wordpool_categorized_EN.txt	DOLL	Toys	6	6	[0, 0, 0]	n/a	catFR1	2	R1666S
662.823	0.924	696818	WORD_OFF	n/a	n/a	DOLL	Toys	6	6	[0, 0, 0]	n/a	catFR1	2	R1666S
663.747	1.601	697739	WORD	n/a	wordpools/wordpool_categorized_EN.txt	TELEVISION	Electronics	7	6	[0, 0, 0]	n/a	catFR1	2	R1666S
665.348	0.99	699339	WORD_OFF	n/a	n/a	TELEVISION	Electronics	7	6	[0, 0, 0]	n/a	catFR1	2	R1666S
666.338	1.601	700331	WORD	n/a	wordpools/wordpool_categorized_EN.txt	SCANNER	Electronics	8	6	[0, 0, 0]	n/a	catFR1	2	R1666S
667.939	0.833	701930	WORD_OFF	n/a	n/a	SCANNER	Electronics	8	6	[0, 0, 0]	n/a	catFR1	2	R1666S
668.772	1.599	702770	WORD	n/a	wordpools/wordpool_categorized_EN.txt	CAKE	Desserts	9	6	[0, 0, 0]	n/a	catFR1	2	R1666S
670.371	0.967	704360	WORD_OFF	n/a	n/a	CAKE	Desserts	9	6	[0, 0, 0]	n/a	catFR1	2	R1666S
671.338	1.6	705331	WORD	n/a	wordpools/wordpool_categorized_EN.txt	PIE	Desserts	10	6	[0, 0, 0]	n/a	catFR1	2	R1666S
672.938	0.818	706931	WORD_OFF	n/a	n/a	PIE	Desserts	10	6	[0, 0, 0]	n/a	catFR1	2	R1666S
673.756	1.601	707751	WORD	n/a	wordpools/wordpool_categorized_EN.txt	SLINKY	Toys	11	6	[0, 0, 0]	n/a	catFR1	2	R1666S
675.357	0.832	709350	WORD_OFF	n/a	n/a	SLINKY	Toys	11	6	[0, 0, 0]	n/a	catFR1	2	R1666S
676.189	1.609	710180	WORD	n/a	wordpools/wordpool_categorized_EN.txt	FOOTBALL	Toys	12	6	[0, 0, 0]	n/a	catFR1	2	R1666S
677.798	0.002	711789	WORD_OFF	n/a	n/a	FOOTBALL	Toys	12	6	[0, 0, 0]	n/a	catFR1	2	R1666S
677.8	0.0	711789	ENCODING_END	n/a	n/a	n/a	n/a	-999	6	[0, 0, 0]	n/a	catFR1	2	R1666S
677.8	0.0	711789	DISTRACT_START	n/a	n/a	n/a	n/a	-999	6	[0, 0, 0]	n/a	catFR1	2	R1666S
677.799	0.001	711792	PROB	0.001	n/a	n/a	n/a	-999	6	[1, 8, 1]	10	catFR1	2	R1666S
677.8	3.355	711793	START	n/a	n/a	n/a	n/a	-999	6	[-999, -999, -999]	n/a	catFR1	2	R1666S
681.155	4.209	715148	PROB	4.209	n/a	n/a	n/a	-999	6	[4, 5, 5]	14	catFR1	2	R1666S
685.364	4.492	719357	PROB	4.492	n/a	n/a	n/a	-999	6	[7, 6, 1]	14	catFR1	2	R1666S
689.856	3.359	723849	PROB	3.359	n/a	n/a	n/a	-999	6	[6, 3, 2]	10	catFR1	2	R1666S
693.215	6.523	727208	PROB	6.523	n/a	n/a	n/a	-999	6	[5, 2, 8]	15	catFR1	2	R1666S
699.738	0.0	733725	DISTRACT_END	n/a	n/a	n/a	n/a	-999	6	[0, 0, 0]	n/a	catFR1	2	R1666S
699.738	2.217	733731	STOP	n/a	n/a	n/a	n/a	-999	6	[-999, -999, -999]	n/a	catFR1	2	R1666S
701.955	2.591	735942	REC_START	n/a	n/a	n/a	n/a	-999	6	[0, 0, 0]	n/a	catFR1	2	R1666S
704.546	2.646	738539	REC_WORD	2.646	n/a	MONKEY	Zoo	-999	6	[0, 0, 0]	n/a	catFR1	2	R1666S
707.192	8.767	741185	REC_WORD	8.767	n/a	GARDEN	n/a	-999	6	[0, 0, 0]	n/a	catFR1	2	R1666S
715.959	14.187	749952	REC_WORD	14.187	n/a	HOSE	n/a	-999	6	[0, 0, 0]	n/a	catFR1	2	R1666S
730.146	1.273	764139	REC_WORD	1.273	n/a	STOVE	Appliances	-999	6	[0, 0, 0]	n/a	catFR1	2	R1666S
731.419	0.682	765412	REC_WORD_VV	0.682	n/a	<>	n/a	-999	6	[0, 0, 0]	n/a	catFR1	2	R1666S
732.101	3.237	766086	REC_END	n/a	n/a	n/a	n/a	-999	6	[0, 0, 0]	n/a	catFR1	2	R1666S
735.338	10.343	769325	COUNTDOWN_START	n/a	n/a	n/a	n/a	-999	7	[0, 0, 0]	n/a	catFR1	2	R1666S
745.681	0.0	779671	COUNTDOWN_END	n/a	n/a	n/a	n/a	-999	7	[0, 0, 0]	n/a	catFR1	2	R1666S
745.681	2.016	779671	ENCODING_START	n/a	n/a	n/a	n/a	-999	7	[0, 0, 0]	n/a	catFR1	2	R1666S
747.697	1.608	781685	WORD	n/a	wordpools/wordpool_categorized_EN.txt	OYSTER	OceanAnimals	1	7	[0, 0, 0]	n/a	catFR1	2	R1666S
749.305	0.968	783294	WORD_OFF	n/a	n/a	OYSTER	OceanAnimals	1	7	[0, 0, 0]	n/a	catFR1	2	R1666S
750.273	1.609	784266	WORD	n/a	wordpools/wordpool_categorized_EN.txt	FISH	OceanAnimals	2	7	[0, 0, 0]	n/a	catFR1	2	R1666S
751.882	0.975	785876	WORD_OFF	n/a	n/a	FISH	OceanAnimals	2	7	[0, 0, 0]	n/a	catFR1	2	R1666S
752.857	1.599	786847	WORD	n/a	wordpools/wordpool_categorized_EN.txt	MOUNTAIN	Landscapes	3	7	[0, 0, 0]	n/a	catFR1	2	R1666S
754.456	0.983	788447	WORD_OFF	n/a	n/a	MOUNTAIN	Landscapes	3	7	[0, 0, 0]	n/a	catFR1	2	R1666S
755.439	1.6	789429	WORD	n/a	wordpools/wordpool_categorized_EN.txt	STREAM	Landscapes	4	7	[0, 0, 0]	n/a	catFR1	2	R1666S
757.039	0.825	791028	WORD_OFF	n/a	n/a	STREAM	Landscapes	4	7	[0, 0, 0]	n/a	catFR1	2	R1666S
757.864	1.602	791858	WORD	n/a	wordpools/wordpool_categorized_EN.txt	WHISK	KitchenTools	5	7	[0, 0, 0]	n/a	catFR1	2	R1666S
759.466	0.799	793457	WORD_OFF	n/a	n/a	WHISK	KitchenTools	5	7	[0, 0, 0]	n/a	catFR1	2	R1666S
760.265	1.607	794257	WORD	n/a	wordpools/wordpool_categorized_EN.txt	STRAINER	KitchenTools	6	7	[0, 0, 0]	n/a	catFR1	2	R1666S
761.872	1.0	795866	WORD_OFF	n/a	n/a	STRAINER	KitchenTools	6	7	[0, 0, 0]	n/a	catFR1	2	R1666S
762.872	1.601	796858	WORD	n/a	wordpools/wordpool_categorized_EN.txt	WHALE	OceanAnimals	7	7	[0, 0, 0]	n/a	catFR1	2	R1666S
764.473	0.808	798458	WORD_OFF	n/a	n/a	WHALE	OceanAnimals	7	7	[0, 0, 0]	n/a	catFR1	2	R1666S
765.281	1.609	799268	WORD	n/a	wordpools/wordpool_categorized_EN.txt	TURTLE	OceanAnimals	8	7	[0, 0, 0]	n/a	catFR1	2	R1666S
766.89	0.917	800877	WORD_OFF	n/a	n/a	TURTLE	OceanAnimals	8	7	[0, 0, 0]	n/a	catFR1	2	R1666S
767.807	1.601	801798	WORD	n/a	wordpools/wordpool_categorized_EN.txt	WOODS	Landscapes	9	7	[0, 0, 0]	n/a	catFR1	2	R1666S
769.408	0.907	803398	WORD_OFF	n/a	n/a	WOODS	Landscapes	9	7	[0, 0, 0]	n/a	catFR1	2	R1666S
770.315	1.608	804309	WORD	n/a	wordpools/wordpool_categorized_EN.txt	CREEK	Landscapes	10	7	[0, 0, 0]	n/a	catFR1	2	R1666S
771.923	0.959	805918	WORD_OFF	n/a	n/a	CREEK	Landscapes	10	7	[0, 0, 0]	n/a	catFR1	2	R1666S
772.882	1.601	806870	WORD	n/a	wordpools/wordpool_categorized_EN.txt	LADLE	KitchenTools	11	7	[0, 0, 0]	n/a	catFR1	2	R1666S
774.483	0.914	808479	WORD_OFF	n/a	n/a	LADLE	KitchenTools	11	7	[0, 0, 0]	n/a	catFR1	2	R1666S
775.397	1.6	809390	WORD	n/a	wordpools/wordpool_categorized_EN.txt	CORKSCREW	KitchenTools	12	7	[0, 0, 0]	n/a	catFR1	2	R1666S
776.997	0.003	810989	WORD_OFF	n/a	n/a	CORKSCREW	KitchenTools	12	7	[0, 0, 0]	n/a	catFR1	2	R1666S
777.0	0.0	810989	ENCODING_END	n/a	n/a	n/a	n/a	-999	7	[0, 0, 0]	n/a	catFR1	2	R1666S
777.0	0.0	810989	DISTRACT_START	n/a	n/a	n/a	n/a	-999	7	[0, 0, 0]	n/a	catFR1	2	R1666S
776.998	0.002	810990	PROB	0.002	n/a	n/a	n/a	-999	7	[3, 5, 8]	16	catFR1	2	R1666S
777.0	8.864	810992	START	n/a	n/a	n/a	n/a	-999	7	[-999, -999, -999]	n/a	catFR1	2	R1666S
785.864	4.126	819856	PROB	4.126	n/a	n/a	n/a	-999	7	[1, 5, 3]	9	catFR1	2	R1666S
789.99	3.211	823982	PROB	3.211	n/a	n/a	n/a	-999	7	[5, 2, 1]	8	catFR1	2	R1666S
793.201	4.805	827193	PROB	4.805	n/a	n/a	n/a	-999	7	[1, 7, 6]	14	catFR1	2	R1666S
798.006	0.0	831993	DISTRACT_END	n/a	n/a	n/a	n/a	-999	7	[0, 0, 0]	n/a	catFR1	2	R1666S
798.006	2.27	831998	STOP	n/a	n/a	n/a	n/a	-999	7	[-999, -999, -999]	n/a	catFR1	2	R1666S
800.276	1.258	834271	REC_START	n/a	n/a	n/a	n/a	-999	7	[0, 0, 0]	n/a	catFR1	2	R1666S
801.534	1.504	835526	REC_WORD	1.504	n/a	MONKEY	Zoo	-999	7	[0, 0, 0]	n/a	catFR1	2	R1666S
803.038	22.247	837030	REC_WORD	22.247	n/a	OYSTER	OceanAnimals	1	7	[0, 0, 0]	n/a	catFR1	2	R1666S
825.285	4.059	859276	REC_WORD	4.059	n/a	POT	n/a	-999	7	[0, 0, 0]	n/a	catFR1	2	R1666S
829.344	1.074	863335	REC_WORD	1.074	n/a	STOVE	Appliances	-999	7	[0, 0, 0]	n/a	catFR1	2	R1666S
830.418	2.822	864405	REC_END	n/a	n/a	n/a	n/a	-999	7	[0, 0, 0]	n/a	catFR1	2	R1666S
833.24	10.341	867230	COUNTDOWN_START	n/a	n/a	n/a	n/a	-999	8	[0, 0, 0]	n/a	catFR1	2	R1666S
843.581	0.0	877565	COUNTDOWN_END	n/a	n/a	n/a	n/a	-999	8	[0, 0, 0]	n/a	catFR1	2	R1666S
843.581	1.911	877575	ENCODING_START	n/a	n/a	n/a	n/a	-999	8	[0, 0, 0]	n/a	catFR1	2	R1666S
845.492	1.599	879478	WORD	n/a	wordpools/wordpool_categorized_EN.txt	COW	FarmAnimals	1	8	[0, 0, 0]	n/a	catFR1	2	R1666S
847.091	0.767	881077	WORD_OFF	n/a	n/a	COW	FarmAnimals	1	8	[0, 0, 0]	n/a	catFR1	2	R1666S
847.858	1.616	881846	WORD	n/a	wordpools/wordpool_categorized_EN.txt	HORSE	FarmAnimals	2	8	[0, 0, 0]	n/a	catFR1	2	R1666S
849.474	0.784	883466	WORD_OFF	n/a	n/a	HORSE	FarmAnimals	2	8	[0, 0, 0]	n/a	catFR1	2	R1666S
850.258	1.6	884245	WORD	n/a	wordpools/wordpool_categorized_EN.txt	GRATER	KitchenTools	3	8	[0, 0, 0]	n/a	catFR1	2	R1666S
851.858	0.9	885845	WORD_OFF	n/a	n/a	GRATER	KitchenTools	3	8	[0, 0, 0]	n/a	catFR1	2	R1666S
852.758	1.607	886746	WORD	n/a	wordpools/wordpool_categorized_EN.txt	FORK	KitchenTools	4	8	[0, 0, 0]	n/a	catFR1	2	R1666S
854.365	0.878	888355	WORD_OFF	n/a	n/a	FORK	KitchenTools	4	8	[0, 0, 0]	n/a	catFR1	2	R1666S
855.243	1.6	889236	WORD	n/a	wordpools/wordpool_categorized_EN.txt	FLY	Insects	5	8	[0, 0, 0]	n/a	catFR1	2	R1666S
856.843	0.781	890835	WORD_OFF	n/a	n/a	FLY	Insects	5	8	[0, 0, 0]	n/a	catFR1	2	R1666S
857.624	1.609	891615	WORD	n/a	wordpools/wordpool_categorized_EN.txt	BUTTERFLY	Insects	6	8	[0, 0, 0]	n/a	catFR1	2	R1666S
859.233	0.798	893224	WORD_OFF	n/a	n/a	BUTTERFLY	Insects	6	8	[0, 0, 0]	n/a	catFR1	2	R1666S
860.031	1.603	894024	WORD	n/a	wordpools/wordpool_categorized_EN.txt	SPOON	KitchenTools	7	8	[0, 0, 0]	n/a	catFR1	2	R1666S
861.634	0.9	895623	WORD_OFF	n/a	n/a	SPOON	KitchenTools	7	8	[0, 0, 0]	n/a	catFR1	2	R1666S
862.534	1.6	896524	WORD	n/a	wordpools/wordpool_categorized_EN.txt	KNIFE	KitchenTools	8	8	[0, 0, 0]	n/a	catFR1	2	R1666S
864.134	0.915	898123	WORD_OFF	n/a	n/a	KNIFE	KitchenTools	8	8	[0, 0, 0]	n/a	catFR1	2	R1666S
865.049	1.601	899034	WORD	n/a	wordpools/wordpool_categorized_EN.txt	BEETLE	Insects	9	8	[0, 0, 0]	n/a	catFR1	2	R1666S
866.65	0.89	900634	WORD_OFF	n/a	n/a	BEETLE	Insects	9	8	[0, 0, 0]	n/a	catFR1	2	R1666S
867.54	1.601	901524	WORD	n/a	wordpools/wordpool_categorized_EN.txt	LADYBUG	Insects	10	8	[0, 0, 0]	n/a	catFR1	2	R1666S
869.141	0.885	903134	WORD_OFF	n/a	n/a	LADYBUG	Insects	10	8	[0, 0, 0]	n/a	catFR1	2	R1666S
870.026	1.608	904015	WORD	n/a	wordpools/wordpool_categorized_EN.txt	TURKEY	FarmAnimals	11	8	[0, 0, 0]	n/a	catFR1	2	R1666S
871.634	0.907	905624	WORD_OFF	n/a	n/a	TURKEY	FarmAnimals	11	8	[0, 0, 0]	n/a	catFR1	2	R1666S
872.541	1.608	906535	WORD	n/a	wordpools/wordpool_categorized_EN.txt	CALF	FarmAnimals	12	8	[0, 0, 0]	n/a	catFR1	2	R1666S
874.149	0.0	908134	WORD_OFF	n/a	n/a	CALF	FarmAnimals	12	8	[0, 0, 0]	n/a	catFR1	2	R1666S
874.149	0.002	908140	PROB	0.002	n/a	n/a	n/a	-999	8	[6, 2, 3]	11	catFR1	2	R1666S
874.151	0.0	908142	START	n/a	n/a	n/a	n/a	-999	8	[-999, -999, -999]	n/a	catFR1	2	R1666S
874.151	0.0	908145	ENCODING_END	n/a	n/a	n/a	n/a	-999	8	[0, 0, 0]	n/a	catFR1	2	R1666S
874.151	6.2	908145	DISTRACT_START	n/a	n/a	n/a	n/a	-999	8	[0, 0, 0]	n/a	catFR1	2	R1666S
880.351	3.099	914342	PROB	3.099	n/a	n/a	n/a	-999	8	[1, 5, 2]	8	catFR1	2	R1666S
883.45	4.417	917441	PROB	4.417	n/a	n/a	n/a	-999	8	[6, 2, 4]	12	catFR1	2	R1666S
887.867	7.841	921857	PROB	7.841	n/a	n/a	n/a	-999	8	[7, 8, 6]	21	catFR1	2	R1666S
895.708	0.0	929695	DISTRACT_END	n/a	n/a	n/a	n/a	-999	8	[0, 0, 0]	n/a	catFR1	2	R1666S
895.708	2.042	929698	STOP	n/a	n/a	n/a	n/a	-999	8	[-999, -999, -999]	n/a	catFR1	2	R1666S
897.75	1.557	931740	REC_START	n/a	n/a	n/a	n/a	-999	8	[0, 0, 0]	n/a	catFR1	2	R1666S
899.307	3.854	933297	REC_WORD	3.854	n/a	COW	FarmAnimals	1	8	[0, 0, 0]	n/a	catFR1	2	R1666S
903.161	2.609	937151	REC_WORD	2.609	n/a	CAR	n/a	-999	8	[0, 0, 0]	n/a	catFR1	2	R1666S
905.77	5.336	939760	REC_WORD	5.336	n/a	TURKEY	FarmAnimals	11	8	[0, 0, 0]	n/a	catFR1	2	R1666S
911.106	9.286	945096	REC_WORD	9.286	n/a	FISH	OceanAnimals	-999	8	[0, 0, 0]	n/a	catFR1	2	R1666S
920.392	7.493	954382	REC_WORD	7.493	n/a	CORKSCREW	KitchenTools	-999	8	[0, 0, 0]	n/a	catFR1	2	R1666S
927.885	2.424	961874	REC_END	n/a	n/a	n/a	n/a	-999	8	[0, 0, 0]	n/a	catFR1	2	R1666S
930.309	10.349	964304	COUNTDOWN_START	n/a	n/a	n/a	n/a	-999	9	[0, 0, 0]	n/a	catFR1	2	R1666S
940.658	0.0	974649	COUNTDOWN_END	n/a	n/a	n/a	n/a	-999	9	[0, 0, 0]	n/a	catFR1	2	R1666S
940.658	2.16	974649	ENCODING_START	n/a	n/a	n/a	n/a	-999	9	[0, 0, 0]	n/a	catFR1	2	R1666S
942.818	1.602	976815	WORD	n/a	wordpools/wordpool_categorized_EN.txt	ANT	Insects	1	9	[0, 0, 0]	n/a	catFR1	2	R1666S
944.42	0.998	978404	WORD_OFF	n/a	n/a	ANT	Insects	1	9	[0, 0, 0]	n/a	catFR1	2	R1666S
945.418	1.607	979407	WORD	n/a	wordpools/wordpool_categorized_EN.txt	ROACH	Insects	2	9	[0, 0, 0]	n/a	catFR1	2	R1666S
947.025	0.884	981016	WORD_OFF	n/a	n/a	ROACH	Insects	2	9	[0, 0, 0]	n/a	catFR1	2	R1666S
947.909	1.609	981897	WORD	n/a	wordpools/wordpool_categorized_EN.txt	ROOSTER	FarmAnimals	3	9	[0, 0, 0]	n/a	catFR1	2	R1666S
949.518	0.825	983506	WORD_OFF	n/a	n/a	ROOSTER	FarmAnimals	3	9	[0, 0, 0]	n/a	catFR1	2	R1666S
950.343	1.6	984326	WORD	n/a	wordpools/wordpool_categorized_EN.txt	PIG	FarmAnimals	4	9	[0, 0, 0]	n/a	catFR1	2	R1666S
951.943	0.832	985936	WORD_OFF	n/a	n/a	PIG	FarmAnimals	4	9	[0, 0, 0]	n/a	catFR1	2	R1666S
952.775	1.601	986766	WORD	n/a	wordpools/wordpool_categorized_EN.txt	DESK	Furniture	5	9	[0, 0, 0]	n/a	catFR1	2	R1666S
954.376	0.874	988365	WORD_OFF	n/a	n/a	DESK	Furniture	5	9	[0, 0, 0]	n/a	catFR1	2	R1666S
955.25	1.601	989235	WORD	n/a	wordpools/wordpool_categorized_EN.txt	COUCH	Furniture	6	9	[0, 0, 0]	n/a	catFR1	2	R1666S
956.851	0.969	990845	WORD_OFF	n/a	n/a	COUCH	Furniture	6	9	[0, 0, 0]	n/a	catFR1	2	R1666S
957.82	1.6	991807	WORD	n/a	wordpools/wordpool_categorized_EN.txt	MOSQUITO	Insects	7	9	[0, 0, 0]	n/a	catFR1	2	R1666S
959.42	0.823	993406	WORD_OFF	n/a	n/a	MOSQUITO	Insects	7	9	[0, 0, 0]	n/a	catFR1	2	R1666S
960.243	1.61	994226	WORD	n/a	wordpools/wordpool_categorized_EN.txt	MOTH	Insects	8	9	[0, 0, 0]	n/a	catFR1	2	R1666S
961.853	0.873	995845	WORD_OFF	n/a	n/a	MOTH	Insects	8	9	[0, 0, 0]	n/a	catFR1	2	R1666S
962.726	1.601	996716	WORD	n/a	wordpools/wordpool_categorized_EN.txt	BOOKCASE	Furniture	9	9	[0, 0, 0]	n/a	catFR1	2	R1666S
964.327	0.933	998315	WORD_OFF	n/a	n/a	BOOKCASE	Furniture	9	9	[0, 0, 0]	n/a	catFR1	2	R1666S
965.26	1.6	999247	WORD	n/a	wordpools/wordpool_categorized_EN.txt	SOFA	Furniture	10	9	[0, 0, 0]	n/a	catFR1	2	R1666S
966.86	0.75	1000846	WORD_OFF	n/a	n/a	SOFA	Furniture	10	9	[0, 0, 0]	n/a	catFR1	2	R1666S
967.61	1.608	1001595	WORD	n/a	wordpools/wordpool_categorized_EN.txt	LAMB	FarmAnimals	11	9	[0, 0, 0]	n/a	catFR1	2	R1666S
969.218	0.909	1003204	WORD_OFF	n/a	n/a	LAMB	FarmAnimals	11	9	[0, 0, 0]	n/a	catFR1	2	R1666S
970.127	1.607	1004115	WORD	n/a	wordpools/wordpool_categorized_EN.txt	SHEEP	FarmAnimals	12	9	[0, 0, 0]	n/a	catFR1	2	R1666S
971.734	0.0	1005723	PROB	0.0	n/a	n/a	n/a	-999	9	[4, 4, 4]	12	catFR1	2	R1666S
971.733	0.003	1005725	WORD_OFF	n/a	n/a	SHEEP	FarmAnimals	12	9	[0, 0, 0]	n/a	catFR1	2	R1666S
971.736	0.0	1005725	ENCODING_END	n/a	n/a	n/a	n/a	-999	9	[0, 0, 0]	n/a	catFR1	2	R1666S
971.736	0.0	1005725	DISTRACT_START	n/a	n/a	n/a	n/a	-999	9	[0, 0, 0]	n/a	catFR1	2	R1666S
971.736	5.365	1005725	START	n/a	n/a	n/a	n/a	-999	9	[-999, -999, -999]	n/a	catFR1	2	R1666S
977.101	3.594	1011090	PROB	3.594	n/a	n/a	n/a	-999	9	[1, 3, 1]	5	catFR1	2	R1666S
980.695	5.481	1014684	PROB	5.481	n/a	n/a	n/a	-999	9	[3, 6, 5]	14	catFR1	2	R1666S
986.176	5.649	1020165	PROB	5.649	n/a	n/a	n/a	-999	9	[2, 5, 6]	13	catFR1	2	R1666S
991.825	0.0	1025808	DISTRACT_END	n/a	n/a	n/a	n/a	-999	9	[0, 0, 0]	n/a	catFR1	2	R1666S
991.825	2.07	1025814	STOP	n/a	n/a	n/a	n/a	-999	9	[-999, -999, -999]	n/a	catFR1	2	R1666S
993.895	1.798	1027883	REC_START	n/a	n/a	n/a	n/a	-999	9	[0, 0, 0]	n/a	catFR1	2	R1666S
995.693	9.014	1029682	REC_WORD	9.014	n/a	COW	FarmAnimals	-999	9	[0, 0, 0]	n/a	catFR1	2	R1666S
1004.707	4.701	1038696	REC_WORD	4.701	n/a	COFFEE	n/a	-999	9	[0, 0, 0]	n/a	catFR1	2	R1666S
1009.408	4.498	1043397	REC_WORD	4.498	n/a	KNIFE	KitchenTools	-999	9	[0, 0, 0]	n/a	catFR1	2	R1666S
1013.906	5.925	1047895	REC_WORD	5.925	n/a	SPOON	KitchenTools	-999	9	[0, 0, 0]	n/a	catFR1	2	R1666S
1019.831	4.206	1053820	REC_WORD_VV	4.206	n/a	<>	n/a	-999	9	[0, 0, 0]	n/a	catFR1	2	R1666S
1024.037	2.713	1058028	REC_END	n/a	n/a	n/a	n/a	-999	9	[0, 0, 0]	n/a	catFR1	2	R1666S
1026.75	10.335	1060740	COUNTDOWN_START	n/a	n/a	n/a	n/a	-999	10	[0, 0, 0]	n/a	catFR1	2	R1666S
1037.085	0.0	1071075	COUNTDOWN_END	n/a	n/a	n/a	n/a	-999	10	[0, 0, 0]	n/a	catFR1	2	R1666S
1037.085	1.951	1071075	ENCODING_START	n/a	n/a	n/a	n/a	-999	10	[0, 0, 0]	n/a	catFR1	2	R1666S
1039.036	1.6	1073019	WORD	n/a	wordpools/wordpool_categorized_EN.txt	RECLINER	Furniture	1	10	[0, 0, 0]	n/a	catFR1	2	R1666S
1040.636	0.848	1074618	WORD_OFF	n/a	n/a	RECLINER	Furniture	1	10	[0, 0, 0]	n/a	catFR1	2	R1666S
1041.484	1.6	1075469	WORD	n/a	wordpools/wordpool_categorized_EN.txt	DRESSER	Furniture	2	10	[0, 0, 0]	n/a	catFR1	2	R1666S
1043.084	0.826	1077068	WORD_OFF	n/a	n/a	DRESSER	Furniture	2	10	[0, 0, 0]	n/a	catFR1	2	R1666S
1043.91	1.602	1077898	WORD	n/a	wordpools/wordpool_categorized_EN.txt	CEDAR	Trees	3	10	[0, 0, 0]	n/a	catFR1	2	R1666S
1045.512	0.889	1079497	WORD_OFF	n/a	n/a	CEDAR	Trees	3	10	[0, 0, 0]	n/a	catFR1	2	R1666S
1046.401	1.601	1080388	WORD	n/a	wordpools/wordpool_categorized_EN.txt	ELM	Trees	4	10	[0, 0, 0]	n/a	catFR1	2	R1666S
1048.002	0.917	1081987	WORD_OFF	n/a	n/a	ELM	Trees	4	10	[0, 0, 0]	n/a	catFR1	2	R1666S
1048.919	1.608	1082908	WORD	n/a	wordpools/wordpool_categorized_EN.txt	COFFEE	Beverages	5	10	[0, 0, 0]	n/a	catFR1	2	R1666S
1050.527	0.925	1084518	WORD_OFF	n/a	n/a	COFFEE	Beverages	5	10	[0, 0, 0]	n/a	catFR1	2	R1666S
1051.452	1.609	1085439	WORD	n/a	wordpools/wordpool_categorized_EN.txt	JUICE	Beverages	6	10	[0, 0, 0]	n/a	catFR1	2	R1666S
1053.061	0.999	1087049	WORD_OFF	n/a	n/a	JUICE	Beverages	6	10	[0, 0, 0]	n/a	catFR1	2	R1666S
1054.06	1.601	1088051	WORD	n/a	wordpools/wordpool_categorized_EN.txt	BIRCH	Trees	7	10	[0, 0, 0]	n/a	catFR1	2	R1666S
1055.661	0.924	1089650	WORD_OFF	n/a	n/a	BIRCH	Trees	7	10	[0, 0, 0]	n/a	catFR1	2	R1666S
1056.585	1.6	1090571	WORD	n/a	wordpools/wordpool_categorized_EN.txt	MAPLE	Trees	8	10	[0, 0, 0]	n/a	catFR1	2	R1666S
1058.185	0.861	1092171	WORD_OFF	n/a	n/a	MAPLE	Trees	8	10	[0, 0, 0]	n/a	catFR1	2	R1666S
1059.046	1.615	1093031	WORD	n/a	wordpools/wordpool_categorized_EN.txt	CHAIR	Furniture	9	10	[0, 0, 0]	n/a	catFR1	2	R1666S
1060.661	0.85	1094651	WORD_OFF	n/a	n/a	CHAIR	Furniture	9	10	[0, 0, 0]	n/a	catFR1	2	R1666S
1061.511	1.599	1095501	WORD	n/a	wordpools/wordpool_categorized_EN.txt	SHELF	Furniture	10	10	[0, 0, 0]	n/a	catFR1	2	R1666S
1063.11	1.0	1097100	WORD_OFF	n/a	n/a	SHELF	Furniture	10	10	[0, 0, 0]	n/a	catFR1	2	R1666S
1064.11	1.607	1098092	WORD	n/a	wordpools/wordpool_categorized_EN.txt	TEA	Beverages	11	10	[0, 0, 0]	n/a	catFR1	2	R1666S
1065.717	0.838	1099702	WORD_OFF	n/a	n/a	TEA	Beverages	11	10	[0, 0, 0]	n/a	catFR1	2	R1666S
1066.555	1.606	1100542	WORD	n/a	wordpools/wordpool_categorized_EN.txt	MILK	Beverages	12	10	[0, 0, 0]	n/a	catFR1	2	R1666S
1068.161	0.0	1102149	PROB	0.0	n/a	n/a	n/a	-999	10	[7, 3, 3]	13	catFR1	2	R1666S
1068.16	0.004	1102151	WORD_OFF	n/a	n/a	MILK	Beverages	12	10	[0, 0, 0]	n/a	catFR1	2	R1666S
1068.164	0.0	1102151	ENCODING_END	n/a	n/a	n/a	n/a	-999	10	[0, 0, 0]	n/a	catFR1	2	R1666S
1068.164	0.0	1102151	DISTRACT_START	n/a	n/a	n/a	n/a	-999	10	[0, 0, 0]	n/a	catFR1	2	R1666S
1068.164	8.306	1102152	START	n/a	n/a	n/a	n/a	-999	10	[-999, -999, -999]	n/a	catFR1	2	R1666S
1076.47	3.916	1110458	PROB	3.916	n/a	n/a	n/a	-999	10	[2, 4, 3]	9	catFR1	2	R1666S
1080.386	3.624	1114374	PROB	3.624	n/a	n/a	n/a	-999	10	[3, 7, 1]	11	catFR1	2	R1666S
1084.01	3.951	1117998	PROB	3.951	n/a	n/a	n/a	-999	10	[2, 2, 5]	9	catFR1	2	R1666S
1087.961	4.725	1121949	PROB	4.725	n/a	n/a	n/a	-999	10	[1, 6, 7]	14	catFR1	2	R1666S
1092.686	0.0	1126668	DISTRACT_END	n/a	n/a	n/a	n/a	-999	10	[0, 0, 0]	n/a	catFR1	2	R1666S
1092.686	2.159	1126674	STOP	n/a	n/a	n/a	n/a	-999	10	[-999, -999, -999]	n/a	catFR1	2	R1666S
1094.845	2.367	1128834	REC_START	n/a	n/a	n/a	n/a	-999	10	[0, 0, 0]	n/a	catFR1	2	R1666S
1097.212	1.161	1131200	REC_WORD	1.161	n/a	COUCH	Furniture	-999	10	[0, 0, 0]	n/a	catFR1	2	R1666S
1098.373	8.255	1132361	REC_WORD	8.255	n/a	SOFA	Furniture	-999	10	[0, 0, 0]	n/a	catFR1	2	R1666S
1106.628	4.855	1140616	REC_WORD	4.855	n/a	RECLINER	Furniture	1	10	[0, 0, 0]	n/a	catFR1	2	R1666S
1111.483	3.955	1145470	REC_WORD	3.955	n/a	KNIFE	KitchenTools	-999	10	[0, 0, 0]	n/a	catFR1	2	R1666S
1115.438	1.235	1149425	REC_WORD	1.235	n/a	OCEAN	Landscapes	-999	10	[0, 0, 0]	n/a	catFR1	2	R1666S
1116.673	8.316	1150660	REC_WORD	8.316	n/a	BEACH	Landscapes	-999	10	[0, 0, 0]	n/a	catFR1	2	R1666S
1124.989	2.914	1158969	REC_END	n/a	n/a	n/a	n/a	-999	10	[0, 0, 0]	n/a	catFR1	2	R1666S
1127.903	10.35	1161894	COUNTDOWN_START	n/a	n/a	n/a	n/a	-999	11	[0, 0, 0]	n/a	catFR1	2	R1666S
1138.253	0.0	1172239	COUNTDOWN_END	n/a	n/a	n/a	n/a	-999	11	[0, 0, 0]	n/a	catFR1	2	R1666S
1138.253	2.119	1172239	ENCODING_START	n/a	n/a	n/a	n/a	-999	11	[0, 0, 0]	n/a	catFR1	2	R1666S
1140.372	1.605	1174355	WORD	n/a	wordpools/wordpool_categorized_EN.txt	RUM	Beverages	1	11	[0, 0, 0]	n/a	catFR1	2	R1666S
1141.977	0.834	1175964	WORD_OFF	n/a	n/a	RUM	Beverages	1	11	[0, 0, 0]	n/a	catFR1	2	R1666S
1142.811	1.608	1176794	WORD	n/a	wordpools/wordpool_categorized_EN.txt	COLA	Beverages	2	11	[0, 0, 0]	n/a	catFR1	2	R1666S
1144.419	0.775	1178404	WORD_OFF	n/a	n/a	COLA	Beverages	2	11	[0, 0, 0]	n/a	catFR1	2	R1666S
1145.194	1.599	1179183	WORD	n/a	wordpools/wordpool_categorized_EN.txt	BEE	Insects	3	11	[0, 0, 0]	n/a	catFR1	2	R1666S
1146.793	0.767	1180782	WORD_OFF	n/a	n/a	BEE	Insects	3	11	[0, 0, 0]	n/a	catFR1	2	R1666S
1147.56	1.6	1181542	WORD	n/a	wordpools/wordpool_categorized_EN.txt	CRICKET	Insects	4	11	[0, 0, 0]	n/a	catFR1	2	R1666S
1149.16	0.859	1183141	WORD_OFF	n/a	n/a	CRICKET	Insects	4	11	[0, 0, 0]	n/a	catFR1	2	R1666S
1150.019	1.6	1184001	WORD	n/a	wordpools/wordpool_categorized_EN.txt	TRUCK	Vehicles	5	11	[0, 0, 0]	n/a	catFR1	2	R1666S
1151.619	0.966	1185601	WORD_OFF	n/a	n/a	TRUCK	Vehicles	5	11	[0, 0, 0]	n/a	catFR1	2	R1666S
1152.585	1.602	1186572	WORD	n/a	wordpools/wordpool_categorized_EN.txt	BIKE	Vehicles	6	11	[0, 0, 0]	n/a	catFR1	2	R1666S
1154.187	0.841	1188172	WORD_OFF	n/a	n/a	BIKE	Vehicles	6	11	[0, 0, 0]	n/a	catFR1	2	R1666S
1155.028	1.599	1189012	WORD	n/a	wordpools/wordpool_categorized_EN.txt	WINE	Beverages	7	11	[0, 0, 0]	n/a	catFR1	2	R1666S
1156.627	0.792	1190611	WORD_OFF	n/a	n/a	WINE	Beverages	7	11	[0, 0, 0]	n/a	catFR1	2	R1666S
1157.419	1.601	1191401	WORD	n/a	wordpools/wordpool_categorized_EN.txt	WATER	Beverages	8	11	[0, 0, 0]	n/a	catFR1	2	R1666S
1159.02	0.949	1193000	WORD_OFF	n/a	n/a	WATER	Beverages	8	11	[0, 0, 0]	n/a	catFR1	2	R1666S
1159.969	1.6	1193952	WORD	n/a	wordpools/wordpool_categorized_EN.txt	GNAT	Insects	9	11	[0, 0, 0]	n/a	catFR1	2	R1666S
1161.569	0.884	1195551	WORD_OFF	n/a	n/a	GNAT	Insects	9	11	[0, 0, 0]	n/a	catFR1	2	R1666S
1162.453	1.6	1196442	WORD	n/a	wordpools/wordpool_categorized_EN.txt	SPIDER	Insects	10	11	[0, 0, 0]	n/a	catFR1	2	R1666S
1164.053	0.984	1198041	WORD_OFF	n/a	n/a	SPIDER	Insects	10	11	[0, 0, 0]	n/a	catFR1	2	R1666S
1165.037	1.6	1199023	WORD	n/a	wordpools/wordpool_categorized_EN.txt	TRAIN	Vehicles	11	11	[0, 0, 0]	n/a	catFR1	2	R1666S
1166.637	0.776	1200622	WORD_OFF	n/a	n/a	TRAIN	Vehicles	11	11	[0, 0, 0]	n/a	catFR1	2	R1666S
1167.413	1.609	1201402	WORD	n/a	wordpools/wordpool_categorized_EN.txt	PLANE	Vehicles	12	11	[0, 0, 0]	n/a	catFR1	2	R1666S
1169.022	0.0	1203009	PROB	0.0	n/a	n/a	n/a	-999	11	[2, 6, 4]	12	catFR1	2	R1666S
1169.022	0.002	1203011	WORD_OFF	n/a	n/a	PLANE	Vehicles	12	11	[0, 0, 0]	n/a	catFR1	2	R1666S
1169.024	0.0	1203011	ENCODING_END	n/a	n/a	n/a	n/a	-999	11	[0, 0, 0]	n/a	catFR1	2	R1666S
1169.024	0.0	1203011	DISTRACT_START	n/a	n/a	n/a	n/a	-999	11	[0, 0, 0]	n/a	catFR1	2	R1666S
1169.024	4.472	1203011	START	n/a	n/a	n/a	n/a	-999	11	[-999, -999, -999]	n/a	catFR1	2	R1666S
1173.496	5.473	1207483	PROB	5.473	n/a	n/a	n/a	-999	11	[7, 4, 1]	11	catFR1	2	R1666S
1178.969	8.326	1212956	PROB	8.326	n/a	n/a	n/a	-999	11	[8, 7, 7]	21	catFR1	2	R1666S
1187.295	3.941	1221281	PROB	3.941	n/a	n/a	n/a	-999	11	[6, 7, 1]	14	catFR1	2	R1666S
1191.236	0.0	1225220	DISTRACT_END	n/a	n/a	n/a	n/a	-999	11	[0, 0, 0]	n/a	catFR1	2	R1666S
1191.236	2.042	1225222	STOP	n/a	n/a	n/a	n/a	-999	11	[-999, -999, -999]	n/a	catFR1	2	R1666S
1193.278	3.354	1227265	REC_START	n/a	n/a	n/a	n/a	-999	11	[0, 0, 0]	n/a	catFR1	2	R1666S
1196.632	3.663	1230618	REC_WORD	3.663	n/a	SOFA	Furniture	-999	11	[0, 0, 0]	n/a	catFR1	2	R1666S
1200.295	8.302	1234281	REC_WORD	8.302	n/a	COW	FarmAnimals	-999	11	[0, 0, 0]	n/a	catFR1	2	R1666S
1208.597	14.818	1242583	REC_WORD	14.818	n/a	GARDEN	n/a	-999	11	[0, 0, 0]	n/a	catFR1	2	R1666S
1223.415	1.613	1257399	REC_END	n/a	n/a	n/a	n/a	-999	11	[0, 0, 0]	n/a	catFR1	2	R1666S
1225.028	10.334	1259019	COUNTDOWN_START	n/a	n/a	n/a	n/a	-999	12	[0, 0, 0]	n/a	catFR1	2	R1666S
1235.362	0.0	1269344	COUNTDOWN_END	n/a	n/a	n/a	n/a	-999	12	[0, 0, 0]	n/a	catFR1	2	R1666S
1235.362	1.933	1269344	ENCODING_START	n/a	n/a	n/a	n/a	-999	12	[0, 0, 0]	n/a	catFR1	2	R1666S
1237.295	1.6	1271277	WORD	n/a	wordpools/wordpool_categorized_EN.txt	WILLOW	Trees	1	12	[0, 0, 0]	n/a	catFR1	2	R1666S
1238.895	0.934	1272876	WORD_OFF	n/a	n/a	WILLOW	Trees	1	12	[0, 0, 0]	n/a	catFR1	2	R1666S
1239.829	1.6	1273818	WORD	n/a	wordpools/wordpool_categorized_EN.txt	SPRUCE	Trees	2	12	[0, 0, 0]	n/a	catFR1	2	R1666S
1241.429	0.842	1275417	WORD_OFF	n/a	n/a	SPRUCE	Trees	2	12	[0, 0, 0]	n/a	catFR1	2	R1666S
1242.271	1.6	1276257	WORD	n/a	wordpools/wordpool_categorized_EN.txt	PLANKTON	OceanAnimals	3	12	[0, 0, 0]	n/a	catFR1	2	R1666S
1243.871	0.875	1277857	WORD_OFF	n/a	n/a	PLANKTON	OceanAnimals	3	12	[0, 0, 0]	n/a	catFR1	2	R1666S
1244.746	1.61	1278727	WORD	n/a	wordpools/wordpool_categorized_EN.txt	CRAB	OceanAnimals	4	12	[0, 0, 0]	n/a	catFR1	2	R1666S
1246.356	0.989	1280337	WORD_OFF	n/a	n/a	CRAB	OceanAnimals	4	12	[0, 0, 0]	n/a	catFR1	2	R1666S
1247.345	1.61	1281329	WORD	n/a	wordpools/wordpool_categorized_EN.txt	VAN	Vehicles	5	12	[0, 0, 0]	n/a	catFR1	2	R1666S
1248.955	0.99	1282938	WORD_OFF	n/a	n/a	VAN	Vehicles	5	12	[0, 0, 0]	n/a	catFR1	2	R1666S
1249.945	1.601	1283930	WORD	n/a	wordpools/wordpool_categorized_EN.txt	JEEP	Vehicles	6	12	[0, 0, 0]	n/a	catFR1	2	R1666S
1251.546	0.885	1285529	WORD_OFF	n/a	n/a	JEEP	Vehicles	6	12	[0, 0, 0]	n/a	catFR1	2	R1666S
1252.431	1.608	1286420	WORD	n/a	wordpools/wordpool_categorized_EN.txt	HICKORY	Trees	7	12	[0, 0, 0]	n/a	catFR1	2	R1666S
1254.039	0.906	1288020	WORD_OFF	n/a	n/a	HICKORY	Trees	7	12	[0, 0, 0]	n/a	catFR1	2	R1666S
1254.945	1.6	1288931	WORD	n/a	wordpools/wordpool_categorized_EN.txt	CYPRESS	Trees	8	12	[0, 0, 0]	n/a	catFR1	2	R1666S
1256.545	0.96	1290530	WORD_OFF	n/a	n/a	CYPRESS	Trees	8	12	[0, 0, 0]	n/a	catFR1	2	R1666S
1257.505	1.602	1291492	WORD	n/a	wordpools/wordpool_categorized_EN.txt	SHRIMP	OceanAnimals	9	12	[0, 0, 0]	n/a	catFR1	2	R1666S
1259.107	0.906	1293091	WORD_OFF	n/a	n/a	SHRIMP	OceanAnimals	9	12	[0, 0, 0]	n/a	catFR1	2	R1666S
1260.013	1.6	1293992	WORD	n/a	wordpools/wordpool_categorized_EN.txt	OCTOPUS	OceanAnimals	10	12	[0, 0, 0]	n/a	catFR1	2	R1666S
1261.613	0.941	1295601	WORD_OFF	n/a	n/a	OCTOPUS	OceanAnimals	10	12	[0, 0, 0]	n/a	catFR1	2	R1666S
1262.554	1.599	1296543	WORD	n/a	wordpools/wordpool_categorized_EN.txt	CAR	Vehicles	11	12	[0, 0, 0]	n/a	catFR1	2	R1666S
1264.153	0.912	1298132	WORD_OFF	n/a	n/a	CAR	Vehicles	11	12	[0, 0, 0]	n/a	catFR1	2	R1666S
1265.065	1.605	1299053	WORD	n/a	wordpools/wordpool_categorized_EN.txt	BOAT	Vehicles	12	12	[0, 0, 0]	n/a	catFR1	2	R1666S
1266.67	0.003	1300652	WORD_OFF	n/a	n/a	BOAT	Vehicles	12	12	[0, 0, 0]	n/a	catFR1	2	R1666S
1266.673	0.0	1300652	ENCODING_END	n/a	n/a	n/a	n/a	-999	12	[0, 0, 0]	n/a	catFR1	2	R1666S
1266.671	0.002	1300656	PROB	0.002	n/a	n/a	n/a	-999	12	[2, 8, 2]	12	catFR1	2	R1666S
1266.673	0.0	1300658	START	n/a	n/a	n/a	n/a	-999	12	[-999, -999, -999]	n/a	catFR1	2	R1666S
1266.673	4.799	1300662	DISTRACT_START	n/a	n/a	n/a	n/a	-999	12	[0, 0, 0]	n/a	catFR1	2	R1666S
1271.472	7.233	1305457	PROB	7.233	n/a	n/a	n/a	-999	12	[3, 8, 4]	15	catFR1	2	R1666S
1278.705	4.1	1312690	PROB	4.1	n/a	n/a	n/a	-999	12	[2, 3, 5]	10	catFR1	2	R1666S
1282.805	4.992	1316790	PROB	4.992	n/a	n/a	n/a	-999	12	[1, 5, 7]	13	catFR1	2	R1666S
1287.797	0.0	1321778	DISTRACT_END	n/a	n/a	n/a	n/a	-999	12	[0, 0, 0]	n/a	catFR1	2	R1666S
1287.797	2.016	1321782	STOP	n/a	n/a	n/a	n/a	-999	12	[-999, -999, -999]	n/a	catFR1	2	R1666S
1289.813	1.611	1323802	REC_START	n/a	n/a	n/a	n/a	-999	12	[0, 0, 0]	n/a	catFR1	2	R1666S
1291.424	1.04	1325409	REC_WORD	1.04	n/a	VAN	Vehicles	5	12	[0, 0, 0]	n/a	catFR1	2	R1666S
1292.464	2.166	1326449	REC_WORD	2.166	n/a	CAR	Vehicles	11	12	[0, 0, 0]	n/a	catFR1	2	R1666S
1294.63	2.0	1328615	REC_WORD	2.0	n/a	OCTOPUS	OceanAnimals	10	12	[0, 0, 0]	n/a	catFR1	2	R1666S
1296.63	10.42	1330615	REC_WORD	10.42	n/a	SHRIMP	OceanAnimals	9	12	[0, 0, 0]	n/a	catFR1	2	R1666S
1307.05	1.081	1341035	REC_WORD_VV	1.081	n/a	<>	n/a	-999	12	[0, 0, 0]	n/a	catFR1	2	R1666S
1308.131	4.859	1342116	REC_WORD	4.859	n/a	WILLOW	Trees	1	12	[0, 0, 0]	n/a	catFR1	2	R1666S
1312.99	6.967	1346975	REC_WORD_VV	6.967	n/a	<>	n/a	-999	12	[0, 0, 0]	n/a	catFR1	2	R1666S
1319.957	0.0	1353937	REC_END	n/a	n/a	n/a	n/a	-999	12	[0, 0, 0]	n/a	catFR1	2	R1666S
