onset	duration	sample	trial_type	response_time	stim_file	item_name	category	serialpos	list	test	answer	experiment	session	subject
0.0	1.583	12200	INSTRUCT_START	n/a	n/a	n/a	n/a	-999	-999	[0, 0, 0]	n/a	catFR1	2	R1394E
1.583	45.866	13784	INSTRUCT_END	n/a	n/a	n/a	n/a	-999	-999	[0, 0, 0]	n/a	catFR1	2	R1394E
47.449	10.0	59653	COUNTDOWN_START	n/a	n/a	n/a	n/a	-999	-999	[0, 0, 0]	n/a	catFR1	2	R1394E
57.799	0.001	70002	COUNTDOWN_END	n/a	n/a	n/a	n/a	-999	-999	[0, 0, 0]	n/a	catFR1	2	R1394E
57.8	1.983	70002	ENCODING_START	n/a	n/a	n/a	n/a	-999	-1	[0, 0, 0]	n/a	catFR1	2	R1394E
59.783	1.6	71986	WORD	n/a	n/a	FIREMAN	Professions	1	-1	[0, 0, 0]	n/a	catFR1	2	R1394E
61.399	0.967	73600	WORD_OFF	n/a	n/a	FIREMAN	Professions	1	-1	[0, 0, 0]	n/a	catFR1	2	R1394E
62.366	1.6	74562	WORD	n/a	n/a	TEACHER	Professions	2	-1	[0, 0, 0]	n/a	catFR1	2	R1394E
63.966	0.866	76161	WORD_OFF	n/a	n/a	TEACHER	Professions	2	-1	[0, 0, 0]	n/a	catFR1	2	R1394E
64.832	1.6	77035	WORD	n/a	n/a	SILK	Materials	3	-1	[0, 0, 0]	n/a	catFR1	2	R1394E
66.433	0.849	78634	WORD_OFF	n/a	n/a	SILK	Materials	3	-1	[0, 0, 0]	n/a	catFR1	2	R1394E
67.282	1.6	79478	WORD	n/a	n/a	DENIM	Materials	4	-1	[0, 0, 0]	n/a	catFR1	2	R1394E
68.883	0.95	81077	WORD_OFF	n/a	n/a	DENIM	Materials	4	-1	[0, 0, 0]	n/a	catFR1	2	R1394E
69.833	1.6	82025	WORD	n/a	n/a	HOUR	Times	5	-1	[0, 0, 0]	n/a	catFR1	2	R1394E
71.433	0.933	83624	WORD_OFF	n/a	n/a	HOUR	Times	5	-1	[0, 0, 0]	n/a	catFR1	2	R1394E
72.366	1.6	84556	WORD	n/a	n/a	MINUTE	Times	6	-1	[0, 0, 0]	n/a	catFR1	2	R1394E
73.983	0.866	86185	WORD_OFF	n/a	n/a	MINUTE	Times	6	-1	[0, 0, 0]	n/a	catFR1	2	R1394E
74.849	1.6	87044	WORD	n/a	n/a	PLUMBER	Professions	7	-1	[0, 0, 0]	n/a	catFR1	2	R1394E
76.466	1.0	88658	WORD_OFF	n/a	n/a	PLUMBER	Professions	7	-1	[0, 0, 0]	n/a	catFR1	2	R1394E
77.466	1.6	89664	WORD	n/a	n/a	FARMER	Professions	8	-1	[0, 0, 0]	n/a	catFR1	2	R1394E
79.083	1.0	91278	WORD_OFF	n/a	n/a	FARMER	Professions	8	-1	[0, 0, 0]	n/a	catFR1	2	R1394E
80.083	1.6	92285	WORD	n/a	n/a	LEATHER	Materials	9	-1	[0, 0, 0]	n/a	catFR1	2	R1394E
81.683	0.766	93884	WORD_OFF	n/a	n/a	LEATHER	Materials	9	-1	[0, 0, 0]	n/a	catFR1	2	R1394E
82.449	1.6	94639	WORD	n/a	n/a	WOOL	Materials	10	-1	[0, 0, 0]	n/a	catFR1	2	R1394E
84.066	0.817	96268	WORD_OFF	n/a	n/a	WOOL	Materials	10	-1	[0, 0, 0]	n/a	catFR1	2	R1394E
84.883	1.6	97082	WORD	n/a	n/a	DAY	Times	11	-1	[0, 0, 0]	n/a	catFR1	2	R1394E
86.483	0.766	98681	WORD_OFF	n/a	n/a	DAY	Times	11	-1	[0, 0, 0]	n/a	catFR1	2	R1394E
87.249	1.6	99451	WORD	n/a	n/a	SECOND	Times	12	-1	[0, 0, 0]	n/a	catFR1	2	R1394E
88.866	0.001	101065	WORD_OFF	n/a	n/a	SECOND	Times	12	-1	[0, 0, 0]	n/a	catFR1	2	R1394E
88.867	0.002	101065	ENCODING_END	n/a	n/a	n/a	n/a	-999	-1	[0, 0, 0]	n/a	catFR1	2	R1394E
88.869	0.0	101065	DISTRACT_START	n/a	n/a	n/a	n/a	-999	-1	[0, 0, 0]	n/a	catFR1	2	R1394E
88.868	0.001	101065	PROB	8.016	n/a	n/a	n/a	-999	-1	[2, 2, 4]	8.0	catFR1	2	R1394E
88.869	8.031	101066	START	n/a	n/a	n/a	n/a	-999	-1	[-999, -999, -999]	n/a	catFR1	2	R1394E
96.9	4.766	109096	PROB	4.749	n/a	n/a	n/a	-999	-1	[5, 5, 3]	13.0	catFR1	2	R1394E
101.666	6.85	113862	PROB	6.833	n/a	n/a	n/a	-999	-1	[7, 4, 2]	13.0	catFR1	2	R1394E
108.516	10.816	120712	PROB	10.799	n/a	n/a	n/a	-999	-1	[1, 8, 4]	13.0	catFR1	2	R1394E
119.332	0.0	131521	DISTRACT_END	n/a	n/a	n/a	n/a	-999	-1	[0, 0, 0]	n/a	catFR1	2	R1394E
119.332	1.751	131528	STOP	n/a	n/a	n/a	n/a	-999	-1	[-999, -999, -999]	n/a	catFR1	2	R1394E
121.083	2.457	133279	REC_START	n/a	n/a	n/a	n/a	-999	-1	[0, 0, 0]	n/a	catFR1	2	R1394E
123.54	2.371	135736	REC_WORD	2.457	n/a	FIREMAN	Professions	1	-1	[0, 0, 0]	n/a	catFR1	2	R1394E
125.911	2.907	138106	REC_WORD	4.828	n/a	TEACHER	Professions	2	-1	[0, 0, 0]	n/a	catFR1	2	R1394E
128.818	2.785	141013	REC_WORD	7.735	n/a	DENIM	Materials	4	-1	[0, 0, 0]	n/a	catFR1	2	R1394E
131.603	4.38	143798	REC_WORD	10.52	n/a	LEATHER	Materials	9	-1	[0, 0, 0]	n/a	catFR1	2	R1394E
135.983	3.438	148178	REC_WORD	14.9	n/a	SECOND	Times	12	-1	[0, 0, 0]	n/a	catFR1	2	R1394E
139.421	3.444	151616	REC_WORD	18.338	n/a	MINUTE	Times	6	-1	[0, 0, 0]	n/a	catFR1	2	R1394E
142.865	4.871	155060	REC_WORD	21.782	n/a	FARMER	Professions	8	-1	[0, 0, 0]	n/a	catFR1	2	R1394E
147.736	3.642	159931	REC_WORD	26.653	n/a	WOOL	Materials	10	-1	[0, 0, 0]	n/a	catFR1	2	R1394E
151.378	6.388	163572	REC_END	n/a	n/a	n/a	n/a	-999	-1	[0, 0, 0]	n/a	catFR1	2	R1394E
157.766	10.0	169957	COUNTDOWN_START	n/a	n/a	n/a	n/a	-999	1	[0, 0, 0]	n/a	catFR1	2	R1394E
168.117	0.0	180306	COUNTDOWN_END	n/a	n/a	n/a	n/a	-999	1	[0, 0, 0]	n/a	catFR1	2	R1394E
168.117	2.182	180306	ENCODING_START	n/a	n/a	n/a	n/a	-999	1	[0, 0, 0]	n/a	catFR1	2	R1394E
170.299	1.6	182498	WORD	n/a	wordpools/wordpool_categorized_EN.txt	GIRAFFE	Zoo	1	1	[0, 0, 0]	n/a	catFR1	2	R1394E
171.899	0.883	184097	WORD_OFF	n/a	n/a	GIRAFFE	Zoo	1	1	[0, 0, 0]	n/a	catFR1	2	R1394E
172.782	1.6	184970	WORD	n/a	wordpools/wordpool_categorized_EN.txt	GORILLA	Zoo	2	1	[0, 0, 0]	n/a	catFR1	2	R1394E
174.399	0.9	186599	WORD_OFF	n/a	n/a	GORILLA	Zoo	2	1	[0, 0, 0]	n/a	catFR1	2	R1394E
175.299	1.6	187487	WORD	n/a	wordpools/wordpool_categorized_EN.txt	SPOON	Kitchentools	3	1	[0, 0, 0]	n/a	catFR1	2	R1394E
176.916	0.85	189101	WORD_OFF	n/a	n/a	SPOON	Kitchentools	3	1	[0, 0, 0]	n/a	catFR1	2	R1394E
177.766	1.6	189960	WORD	n/a	wordpools/wordpool_categorized_EN.txt	PEELER	Kitchentools	4	1	[0, 0, 0]	n/a	catFR1	2	R1394E
179.366	0.817	191559	WORD_OFF	n/a	n/a	PEELER	Kitchentools	4	1	[0, 0, 0]	n/a	catFR1	2	R1394E
180.183	1.6	192373	WORD	n/a	wordpools/wordpool_categorized_EN.txt	JEANS	Clothing	5	1	[0, 0, 0]	n/a	catFR1	2	R1394E
181.799	0.95	193987	WORD_OFF	n/a	n/a	JEANS	Clothing	5	1	[0, 0, 0]	n/a	catFR1	2	R1394E
182.749	1.6	194935	WORD	n/a	wordpools/wordpool_categorized_EN.txt	UNDERWEAR	Clothing	6	1	[0, 0, 0]	n/a	catFR1	2	R1394E
184.349	0.984	196549	WORD_OFF	n/a	n/a	UNDERWEAR	Clothing	6	1	[0, 0, 0]	n/a	catFR1	2	R1394E
185.333	1.6	197526	WORD	n/a	wordpools/wordpool_categorized_EN.txt	CHIMPANZEE	Zoo	7	1	[0, 0, 0]	n/a	catFR1	2	R1394E
186.933	0.916	199125	WORD_OFF	n/a	n/a	CHIMPANZEE	Zoo	7	1	[0, 0, 0]	n/a	catFR1	2	R1394E
187.849	1.6	200043	WORD	n/a	wordpools/wordpool_categorized_EN.txt	LION	Zoo	8	1	[0, 0, 0]	n/a	catFR1	2	R1394E
189.466	0.816	201657	WORD_OFF	n/a	n/a	LION	Zoo	8	1	[0, 0, 0]	n/a	catFR1	2	R1394E
190.282	1.6	202471	WORD	n/a	wordpools/wordpool_categorized_EN.txt	WHISK	Kitchentools	9	1	[0, 0, 0]	n/a	catFR1	2	R1394E
191.883	0.982	204070	WORD_OFF	n/a	n/a	WHISK	Kitchentools	9	1	[0, 0, 0]	n/a	catFR1	2	R1394E
192.865	1.6	205062	WORD	n/a	wordpools/wordpool_categorized_EN.txt	CORKSCREW	Kitchentools	10	1	[0, 0, 0]	n/a	catFR1	2	R1394E
194.466	0.95	206661	WORD_OFF	n/a	n/a	CORKSCREW	Kitchentools	10	1	[0, 0, 0]	n/a	catFR1	2	R1394E
195.416	1.6	207609	WORD	n/a	wordpools/wordpool_categorized_EN.txt	BLOUSE	Clothing	11	1	[0, 0, 0]	n/a	catFR1	2	R1394E
197.016	0.833	209208	WORD_OFF	n/a	n/a	BLOUSE	Clothing	11	1	[0, 0, 0]	n/a	catFR1	2	R1394E
197.849	1.6	210037	WORD	n/a	wordpools/wordpool_categorized_EN.txt	COAT	Clothing	12	1	[0, 0, 0]	n/a	catFR1	2	R1394E
199.466	0.0	211651	WORD_OFF	n/a	n/a	COAT	Clothing	12	1	[0, 0, 0]	n/a	catFR1	2	R1394E
199.466	0.002	211659	PROB	7.166	n/a	n/a	n/a	-999	1	[3, 7, 7]	17.0	catFR1	2	R1394E
199.468	0.0	211661	START	n/a	n/a	n/a	n/a	-999	1	[-999, -999, -999]	n/a	catFR1	2	R1394E
199.467	0.001	211665	ENCODING_END	n/a	n/a	n/a	n/a	-999	1	[0, 0, 0]	n/a	catFR1	2	R1394E
199.468	7.181	211665	DISTRACT_START	n/a	n/a	n/a	n/a	-999	1	[0, 0, 0]	n/a	catFR1	2	R1394E
206.649	13.033	218842	PROB	13.016	n/a	n/a	n/a	-999	1	[8, 7, 6]	21.0	catFR1	2	R1394E
219.682	0.0	231874	STOP	n/a	n/a	n/a	n/a	-999	1	[-999, -999, -999]	n/a	catFR1	2	R1394E
219.682	1.7	231876	DISTRACT_END	n/a	n/a	n/a	n/a	-999	1	[0, 0, 0]	n/a	catFR1	2	R1394E
221.382	3.412	233575	REC_START	n/a	n/a	n/a	n/a	-999	1	[0, 0, 0]	n/a	catFR1	2	R1394E
224.794	2.044	236986	REC_WORD	3.412	n/a	GIRAFFE	Zoo	1	1	[0, 0, 0]	n/a	catFR1	2	R1394E
226.838	3.167	239030	REC_WORD	5.456	n/a	GORILLA	Zoo	2	1	[0, 0, 0]	n/a	catFR1	2	R1394E
230.005	3.941	242197	REC_WORD	8.623	n/a	CHIMPANZEE	Zoo	7	1	[0, 0, 0]	n/a	catFR1	2	R1394E
233.946	4.023	246138	REC_WORD	12.564	n/a	LION	Zoo	8	1	[0, 0, 0]	n/a	catFR1	2	R1394E
237.969	13.702	250161	REC_WORD	16.587	n/a	JEANS	Clothing	5	1	[0, 0, 0]	n/a	catFR1	2	R1394E
251.671	2.412	263853	REC_END	n/a	n/a	n/a	n/a	-999	1	[0, 0, 0]	n/a	catFR1	2	R1394E
254.083	10.0	266270	COUNTDOWN_START	n/a	n/a	n/a	n/a	-999	2	[0, 0, 0]	n/a	catFR1	2	R1394E
264.474	0.0	276664	COUNTDOWN_END	n/a	n/a	n/a	n/a	-999	2	[0, 0, 0]	n/a	catFR1	2	R1394E
264.474	2.125	276664	ENCODING_START	n/a	n/a	n/a	n/a	-999	2	[0, 0, 0]	n/a	catFR1	2	R1394E
266.599	1.6	278796	WORD	n/a	wordpools/wordpool_categorized_EN.txt	VIOLET	Flowers	1	2	[0, 0, 0]	n/a	catFR1	2	R1394E
268.199	1.0	280395	WORD_OFF	n/a	n/a	VIOLET	Flowers	1	2	[0, 0, 0]	n/a	catFR1	2	R1394E
269.199	1.6	281387	WORD	n/a	wordpools/wordpool_categorized_EN.txt	TULIP	Flowers	2	2	[0, 0, 0]	n/a	catFR1	2	R1394E
270.799	0.834	282986	WORD_OFF	n/a	n/a	TULIP	Flowers	2	2	[0, 0, 0]	n/a	catFR1	2	R1394E
271.633	1.6	283815	WORD	n/a	wordpools/wordpool_categorized_EN.txt	LEMON	Fruit	3	2	[0, 0, 0]	n/a	catFR1	2	R1394E
273.248	0.868	285444	WORD_OFF	n/a	n/a	LEMON	Fruit	3	2	[0, 0, 0]	n/a	catFR1	2	R1394E
274.116	1.6	286302	WORD	n/a	wordpools/wordpool_categorized_EN.txt	GRAPE	Fruit	4	2	[0, 0, 0]	n/a	catFR1	2	R1394E
275.716	0.833	287901	WORD_OFF	n/a	n/a	GRAPE	Fruit	4	2	[0, 0, 0]	n/a	catFR1	2	R1394E
276.549	1.6	288745	WORD	n/a	wordpools/wordpool_categorized_EN.txt	TAPE	Officesupplies	5	2	[0, 0, 0]	n/a	catFR1	2	R1394E
278.166	0.883	290359	WORD_OFF	n/a	n/a	TAPE	Officesupplies	5	2	[0, 0, 0]	n/a	catFR1	2	R1394E
279.049	1.6	291233	WORD	n/a	wordpools/wordpool_categorized_EN.txt	ERASER	Officesupplies	6	2	[0, 0, 0]	n/a	catFR1	2	R1394E
280.649	0.834	292832	WORD_OFF	n/a	n/a	ERASER	Officesupplies	6	2	[0, 0, 0]	n/a	catFR1	2	R1394E
281.483	1.6	293676	WORD	n/a	wordpools/wordpool_categorized_EN.txt	PLUM	Fruit	7	2	[0, 0, 0]	n/a	catFR1	2	R1394E
283.098	0.934	295290	WORD_OFF	n/a	n/a	PLUM	Fruit	7	2	[0, 0, 0]	n/a	catFR1	2	R1394E
284.032	1.6	296222	WORD	n/a	wordpools/wordpool_categorized_EN.txt	STRAWBERRY	Fruit	8	2	[0, 0, 0]	n/a	catFR1	2	R1394E
285.649	0.833	297836	WORD_OFF	n/a	n/a	STRAWBERRY	Fruit	8	2	[0, 0, 0]	n/a	catFR1	2	R1394E
286.482	1.6	298665	WORD	n/a	wordpools/wordpool_categorized_EN.txt	ROSE	Flowers	9	2	[0, 0, 0]	n/a	catFR1	2	R1394E
288.099	0.966	300294	WORD_OFF	n/a	n/a	ROSE	Flowers	9	2	[0, 0, 0]	n/a	catFR1	2	R1394E
289.065	1.6	301256	WORD	n/a	wordpools/wordpool_categorized_EN.txt	LILAC	Flowers	10	2	[0, 0, 0]	n/a	catFR1	2	R1394E
290.666	0.983	302855	WORD_OFF	n/a	n/a	LILAC	Flowers	10	2	[0, 0, 0]	n/a	catFR1	2	R1394E
291.649	1.6	303833	WORD	n/a	wordpools/wordpool_categorized_EN.txt	GLUE	Officesupplies	11	2	[0, 0, 0]	n/a	catFR1	2	R1394E
293.265	0.867	305446	WORD_OFF	n/a	n/a	GLUE	Officesupplies	11	2	[0, 0, 0]	n/a	catFR1	2	R1394E
294.132	1.6	306320	WORD	n/a	wordpools/wordpool_categorized_EN.txt	MARKER	Officesupplies	12	2	[0, 0, 0]	n/a	catFR1	2	R1394E
295.749	0.001	307934	WORD_OFF	n/a	n/a	MARKER	Officesupplies	12	2	[0, 0, 0]	n/a	catFR1	2	R1394E
295.75	0.001	307934	ENCODING_END	n/a	n/a	n/a	n/a	-999	2	[0, 0, 0]	n/a	catFR1	2	R1394E
295.751	0.0	307934	DISTRACT_START	n/a	n/a	n/a	n/a	-999	2	[0, 0, 0]	n/a	catFR1	2	R1394E
295.75	0.001	307940	PROB	5.699	n/a	n/a	n/a	-999	2	[3, 4, 7]	14.0	catFR1	2	R1394E
295.751	5.715	307941	START	n/a	n/a	n/a	n/a	-999	2	[-999, -999, -999]	n/a	catFR1	2	R1394E
301.466	11.033	313656	PROB	11.016	n/a	n/a	n/a	-999	2	[2, 5, 6]	13.0	catFR1	2	R1394E
312.499	5.783	324688	PROB	5.766	n/a	n/a	n/a	-999	2	[5, 5, 4]	14.0	catFR1	2	R1394E
318.282	0.0	330468	DISTRACT_END	n/a	n/a	n/a	n/a	-999	2	[0, 0, 0]	n/a	catFR1	2	R1394E
318.282	1.583	330471	STOP	n/a	n/a	n/a	n/a	-999	2	[-999, -999, -999]	n/a	catFR1	2	R1394E
319.865	2.819	332049	REC_START	n/a	n/a	n/a	n/a	-999	2	[0, 0, 0]	n/a	catFR1	2	R1394E
322.684	1.0	334873	REC_WORD	2.819	n/a	STRAWBERRY	Fruit	8	2	[0, 0, 0]	n/a	catFR1	2	R1394E
323.684	2.461	335873	REC_WORD_VV	3.819	n/a	<>	n/a	-999	2	[0, 0, 0]	n/a	catFR1	2	R1394E
326.145	3.423	338334	REC_WORD	6.28	n/a	LEMON	Fruit	3	2	[0, 0, 0]	n/a	catFR1	2	R1394E
329.568	4.065	341757	REC_WORD	9.703	n/a	VIOLET	Flowers	1	2	[0, 0, 0]	n/a	catFR1	2	R1394E
333.633	9.846	345821	REC_WORD	13.768	n/a	PLUM	Fruit	7	2	[0, 0, 0]	n/a	catFR1	2	R1394E
343.479	2.13	355667	REC_WORD	23.614	n/a	GRAPE	Fruit	4	2	[0, 0, 0]	n/a	catFR1	2	R1394E
345.609	4.563	357797	REC_WORD	25.744	n/a	TAPE	Officesupplies	5	2	[0, 0, 0]	n/a	catFR1	2	R1394E
350.172	1.727	362357	REC_END	n/a	n/a	n/a	n/a	-999	2	[0, 0, 0]	n/a	catFR1	2	R1394E
351.899	10.0	364093	COUNTDOWN_START	n/a	n/a	n/a	n/a	-999	3	[0, 0, 0]	n/a	catFR1	2	R1394E
362.25	0.0	374442	COUNTDOWN_END	n/a	n/a	n/a	n/a	-999	3	[0, 0, 0]	n/a	catFR1	2	R1394E
362.25	1.949	374442	ENCODING_START	n/a	n/a	n/a	n/a	-999	3	[0, 0, 0]	n/a	catFR1	2	R1394E
364.199	1.6	376382	WORD	n/a	wordpools/wordpool_categorized_EN.txt	RUM	Beverages	1	3	[0, 0, 0]	n/a	catFR1	2	R1394E
365.816	0.9	377996	WORD_OFF	n/a	n/a	RUM	Beverages	1	3	[0, 0, 0]	n/a	catFR1	2	R1394E
366.716	1.6	378899	WORD	n/a	wordpools/wordpool_categorized_EN.txt	JUICE	Beverages	2	3	[0, 0, 0]	n/a	catFR1	2	R1394E
368.333	0.765	380513	WORD_OFF	n/a	n/a	JUICE	Beverages	2	3	[0, 0, 0]	n/a	catFR1	2	R1394E
369.098	1.6	381282	WORD	n/a	wordpools/wordpool_categorized_EN.txt	OYSTER	Oceananimals	3	3	[0, 0, 0]	n/a	catFR1	2	R1394E
370.699	1.0	382882	WORD_OFF	n/a	n/a	OYSTER	Oceananimals	3	3	[0, 0, 0]	n/a	catFR1	2	R1394E
371.699	1.6	383888	WORD	n/a	wordpools/wordpool_categorized_EN.txt	DOLPHIN	Oceananimals	4	3	[0, 0, 0]	n/a	catFR1	2	R1394E
373.299	0.917	385487	WORD_OFF	n/a	n/a	DOLPHIN	Oceananimals	4	3	[0, 0, 0]	n/a	catFR1	2	R1394E
374.216	1.6	386405	WORD	n/a	wordpools/wordpool_categorized_EN.txt	HICKORY	Trees	5	3	[0, 0, 0]	n/a	catFR1	2	R1394E
375.833	0.966	388019	WORD_OFF	n/a	n/a	HICKORY	Trees	5	3	[0, 0, 0]	n/a	catFR1	2	R1394E
376.799	1.6	388982	WORD	n/a	wordpools/wordpool_categorized_EN.txt	CEDAR	Trees	6	3	[0, 0, 0]	n/a	catFR1	2	R1394E
378.416	0.799	390595	WORD_OFF	n/a	n/a	CEDAR	Trees	6	3	[0, 0, 0]	n/a	catFR1	2	R1394E
379.215	1.6	391395	WORD	n/a	wordpools/wordpool_categorized_EN.txt	PLANKTON	Oceananimals	7	3	[0, 0, 0]	n/a	catFR1	2	R1394E
380.816	0.933	392994	WORD_OFF	n/a	n/a	PLANKTON	Oceananimals	7	3	[0, 0, 0]	n/a	catFR1	2	R1394E
381.749	1.6	393927	WORD	n/a	wordpools/wordpool_categorized_EN.txt	FISH	Oceananimals	8	3	[0, 0, 0]	n/a	catFR1	2	R1394E
383.365	0.867	395555	WORD_OFF	n/a	n/a	FISH	Oceananimals	8	3	[0, 0, 0]	n/a	catFR1	2	R1394E
384.232	1.6	396414	WORD	n/a	wordpools/wordpool_categorized_EN.txt	PINE	Trees	9	3	[0, 0, 0]	n/a	catFR1	2	R1394E
385.832	0.9	398013	WORD_OFF	n/a	n/a	PINE	Trees	9	3	[0, 0, 0]	n/a	catFR1	2	R1394E
386.732	1.6	398916	WORD	n/a	wordpools/wordpool_categorized_EN.txt	MAPLE	Trees	10	3	[0, 0, 0]	n/a	catFR1	2	R1394E
388.332	0.8	400515	WORD_OFF	n/a	n/a	MAPLE	Trees	10	3	[0, 0, 0]	n/a	catFR1	2	R1394E
389.132	1.6	401315	WORD	n/a	wordpools/wordpool_categorized_EN.txt	WINE	Beverages	11	3	[0, 0, 0]	n/a	catFR1	2	R1394E
390.748	0.918	402929	WORD_OFF	n/a	n/a	WINE	Beverages	11	3	[0, 0, 0]	n/a	catFR1	2	R1394E
391.666	1.6	403847	WORD	n/a	wordpools/wordpool_categorized_EN.txt	COLA	Beverages	12	3	[0, 0, 0]	n/a	catFR1	2	R1394E
393.282	0.0	405461	WORD_OFF	n/a	n/a	COLA	Beverages	12	3	[0, 0, 0]	n/a	catFR1	2	R1394E
393.282	0.002	405468	PROB	5.049	n/a	n/a	n/a	-999	3	[3, 2, 8]	13.0	catFR1	2	R1394E
393.284	0.0	405470	START	n/a	n/a	n/a	n/a	-999	3	[-999, -999, -999]	n/a	catFR1	2	R1394E
393.284	0.0	405475	ENCODING_END	n/a	n/a	n/a	n/a	-999	3	[0, 0, 0]	n/a	catFR1	2	R1394E
393.284	5.064	405475	DISTRACT_START	n/a	n/a	n/a	n/a	-999	3	[0, 0, 0]	n/a	catFR1	2	R1394E
398.348	6.385	410534	PROB	6.367	n/a	n/a	n/a	-999	3	[6, 7, 4]	17.0	catFR1	2	R1394E
404.733	11.583	416919	PROB	11.566	n/a	n/a	n/a	-999	3	[3, 2, 4]	9.0	catFR1	2	R1394E
416.316	0.0	428499	DISTRACT_END	n/a	n/a	n/a	n/a	-999	3	[0, 0, 0]	n/a	catFR1	2	R1394E
416.316	1.7	428502	STOP	n/a	n/a	n/a	n/a	-999	3	[-999, -999, -999]	n/a	catFR1	2	R1394E
418.016	2.869	430198	REC_START	n/a	n/a	n/a	n/a	-999	3	[0, 0, 0]	n/a	catFR1	2	R1394E
420.885	3.738	433071	REC_WORD	2.869	n/a	OYSTER	Oceananimals	3	3	[0, 0, 0]	n/a	catFR1	2	R1394E
424.623	6.393	436808	REC_WORD	6.607	n/a	DOLPHIN	Oceananimals	4	3	[0, 0, 0]	n/a	catFR1	2	R1394E
431.016	7.515	443201	REC_WORD	13.0	n/a	FISH	Oceananimals	8	3	[0, 0, 0]	n/a	catFR1	2	R1394E
438.531	2.597	450716	REC_WORD	20.515	n/a	RUM	Beverages	1	3	[0, 0, 0]	n/a	catFR1	2	R1394E
441.128	2.391	453313	REC_WORD	23.112	n/a	JUICE	Beverages	2	3	[0, 0, 0]	n/a	catFR1	2	R1394E
443.519	4.822	455704	REC_WORD	25.503	n/a	COLA	Beverages	12	3	[0, 0, 0]	n/a	catFR1	2	R1394E
448.341	3.025	460521	REC_END	n/a	n/a	n/a	n/a	-999	3	[0, 0, 0]	n/a	catFR1	2	R1394E
451.366	10.0	463544	COUNTDOWN_START	n/a	n/a	n/a	n/a	-999	4	[0, 0, 0]	n/a	catFR1	2	R1394E
461.715	0.001	473894	COUNTDOWN_END	n/a	n/a	n/a	n/a	-999	4	[0, 0, 0]	n/a	catFR1	2	R1394E
461.716	2.2	473894	ENCODING_START	n/a	n/a	n/a	n/a	-999	4	[0, 0, 0]	n/a	catFR1	2	R1394E
463.916	1.6	476100	WORD	n/a	wordpools/wordpool_categorized_EN.txt	ELEPHANT	Zoo	1	4	[0, 0, 0]	n/a	catFR1	2	R1394E
465.516	0.95	477699	WORD_OFF	n/a	n/a	ELEPHANT	Zoo	1	4	[0, 0, 0]	n/a	catFR1	2	R1394E
466.466	1.6	478646	WORD	n/a	wordpools/wordpool_categorized_EN.txt	MONKEY	Zoo	2	4	[0, 0, 0]	n/a	catFR1	2	R1394E
468.066	0.9	480246	WORD_OFF	n/a	n/a	MONKEY	Zoo	2	4	[0, 0, 0]	n/a	catFR1	2	R1394E
468.966	1.6	481149	WORD	n/a	wordpools/wordpool_categorized_EN.txt	ELM	Trees	3	4	[0, 0, 0]	n/a	catFR1	2	R1394E
470.566	0.933	482748	WORD_OFF	n/a	n/a	ELM	Trees	3	4	[0, 0, 0]	n/a	catFR1	2	R1394E
471.499	1.6	483680	WORD	n/a	wordpools/wordpool_categorized_EN.txt	SPRUCE	Trees	4	4	[0, 0, 0]	n/a	catFR1	2	R1394E
473.116	0.916	485294	WORD_OFF	n/a	n/a	SPRUCE	Trees	4	4	[0, 0, 0]	n/a	catFR1	2	R1394E
474.032	1.6	486212	WORD	n/a	wordpools/wordpool_categorized_EN.txt	FOG	Weather	5	4	[0, 0, 0]	n/a	catFR1	2	R1394E
475.632	0.934	487811	WORD_OFF	n/a	n/a	FOG	Weather	5	4	[0, 0, 0]	n/a	catFR1	2	R1394E
476.566	1.6	488744	WORD	n/a	wordpools/wordpool_categorized_EN.txt	CLOUD	Weather	6	4	[0, 0, 0]	n/a	catFR1	2	R1394E
478.182	0.85	490358	WORD_OFF	n/a	n/a	CLOUD	Weather	6	4	[0, 0, 0]	n/a	catFR1	2	R1394E
479.032	1.6	491217	WORD	n/a	wordpools/wordpool_categorized_EN.txt	BIRCH	Trees	7	4	[0, 0, 0]	n/a	catFR1	2	R1394E
480.649	0.849	492831	WORD_OFF	n/a	n/a	BIRCH	Trees	7	4	[0, 0, 0]	n/a	catFR1	2	R1394E
481.498	1.6	493674	WORD	n/a	wordpools/wordpool_categorized_EN.txt	WALNUT	Trees	8	4	[0, 0, 0]	n/a	catFR1	2	R1394E
483.099	0.8	495274	WORD_OFF	n/a	n/a	WALNUT	Trees	8	4	[0, 0, 0]	n/a	catFR1	2	R1394E
483.899	1.6	496073	WORD	n/a	wordpools/wordpool_categorized_EN.txt	TORNADO	Weather	9	4	[0, 0, 0]	n/a	catFR1	2	R1394E
485.499	0.9	497687	WORD_OFF	n/a	n/a	TORNADO	Weather	9	4	[0, 0, 0]	n/a	catFR1	2	R1394E
486.399	1.6	498575	WORD	n/a	wordpools/wordpool_categorized_EN.txt	WIND	Weather	10	4	[0, 0, 0]	n/a	catFR1	2	R1394E
487.999	0.95	500174	WORD_OFF	n/a	n/a	WIND	Weather	10	4	[0, 0, 0]	n/a	catFR1	2	R1394E
488.949	1.6	501137	WORD	n/a	wordpools/wordpool_categorized_EN.txt	PANDA	Zoo	11	4	[0, 0, 0]	n/a	catFR1	2	R1394E
490.549	0.966	502736	WORD_OFF	n/a	n/a	PANDA	Zoo	11	4	[0, 0, 0]	n/a	catFR1	2	R1394E
491.515	1.6	503698	WORD	n/a	wordpools/wordpool_categorized_EN.txt	CHEETAH	Zoo	12	4	[0, 0, 0]	n/a	catFR1	2	R1394E
493.115	0.002	505297	WORD_OFF	n/a	n/a	CHEETAH	Zoo	12	4	[0, 0, 0]	n/a	catFR1	2	R1394E
493.117	0.0	505297	ENCODING_END	n/a	n/a	n/a	n/a	-999	4	[0, 0, 0]	n/a	catFR1	2	R1394E
493.117	0.0	505297	DISTRACT_START	n/a	n/a	n/a	n/a	-999	4	[0, 0, 0]	n/a	catFR1	2	R1394E
493.116	0.001	505299	PROB	7.399	n/a	n/a	n/a	-999	4	[4, 2, 8]	14.0	catFR1	2	R1394E
493.117	7.415	505300	START	n/a	n/a	n/a	n/a	-999	4	[-999, -999, -999]	n/a	catFR1	2	R1394E
500.532	6.05	512715	PROB	6.033	n/a	n/a	n/a	-999	4	[4, 6, 8]	18.0	catFR1	2	R1394E
506.582	7.135	518765	PROB	7.118	n/a	n/a	n/a	-999	4	[1, 5, 8]	14.0	catFR1	2	R1394E
513.717	0.0	525892	DISTRACT_END	n/a	n/a	n/a	n/a	-999	4	[0, 0, 0]	n/a	catFR1	2	R1394E
513.717	1.516	525899	STOP	n/a	n/a	n/a	n/a	-999	4	[-999, -999, -999]	n/a	catFR1	2	R1394E
515.233	5.019	527414	REC_START	n/a	n/a	n/a	n/a	-999	4	[0, 0, 0]	n/a	catFR1	2	R1394E
520.252	6.623	532434	REC_WORD	5.019	n/a	PANDA	Zoo	11	4	[0, 0, 0]	n/a	catFR1	2	R1394E
526.875	3.423	539057	REC_WORD	11.642	n/a	MONKEY	Zoo	2	4	[0, 0, 0]	n/a	catFR1	2	R1394E
530.298	15.236	542480	REC_WORD	15.065	n/a	CHEETAH	Zoo	12	4	[0, 0, 0]	n/a	catFR1	2	R1394E
545.534	1.149	557707	REC_END	n/a	n/a	n/a	n/a	-999	4	[0, 0, 0]	n/a	catFR1	2	R1394E
546.683	10.0	558865	COUNTDOWN_START	n/a	n/a	n/a	n/a	-999	5	[0, 0, 0]	n/a	catFR1	2	R1394E
557.033	0.001	569214	COUNTDOWN_END	n/a	n/a	n/a	n/a	-999	5	[0, 0, 0]	n/a	catFR1	2	R1394E
557.034	2.182	569214	ENCODING_START	n/a	n/a	n/a	n/a	-999	5	[0, 0, 0]	n/a	catFR1	2	R1394E
559.216	1.6	571391	WORD	n/a	wordpools/wordpool_categorized_EN.txt	HALLWAY	Building	1	5	[0, 0, 0]	n/a	catFR1	2	R1394E
560.816	0.817	572990	WORD_OFF	n/a	n/a	HALLWAY	Building	1	5	[0, 0, 0]	n/a	catFR1	2	R1394E
561.633	1.6	573819	WORD	n/a	wordpools/wordpool_categorized_EN.txt	WALL	Building	2	5	[0, 0, 0]	n/a	catFR1	2	R1394E
563.233	0.916	575418	WORD_OFF	n/a	n/a	WALL	Building	2	5	[0, 0, 0]	n/a	catFR1	2	R1394E
564.149	1.6	576321	WORD	n/a	wordpools/wordpool_categorized_EN.txt	CREEK	Landscapes	3	5	[0, 0, 0]	n/a	catFR1	2	R1394E
565.749	0.8	577935	WORD_OFF	n/a	n/a	CREEK	Landscapes	3	5	[0, 0, 0]	n/a	catFR1	2	R1394E
566.549	1.6	578735	WORD	n/a	wordpools/wordpool_categorized_EN.txt	MOUNTAIN	Landscapes	4	5	[0, 0, 0]	n/a	catFR1	2	R1394E
568.166	0.966	580349	WORD_OFF	n/a	n/a	MOUNTAIN	Landscapes	4	5	[0, 0, 0]	n/a	catFR1	2	R1394E
569.132	1.6	581311	WORD	n/a	wordpools/wordpool_categorized_EN.txt	DESK	Furniture	5	5	[0, 0, 0]	n/a	catFR1	2	R1394E
570.749	0.85	582925	WORD_OFF	n/a	n/a	DESK	Furniture	5	5	[0, 0, 0]	n/a	catFR1	2	R1394E
571.599	1.6	583784	WORD	n/a	wordpools/wordpool_categorized_EN.txt	CHAIR	Furniture	6	5	[0, 0, 0]	n/a	catFR1	2	R1394E
573.199	0.783	585383	WORD_OFF	n/a	n/a	CHAIR	Furniture	6	5	[0, 0, 0]	n/a	catFR1	2	R1394E
573.982	1.6	586167	WORD	n/a	wordpools/wordpool_categorized_EN.txt	WOODS	Landscapes	7	5	[0, 0, 0]	n/a	catFR1	2	R1394E
575.599	0.767	587781	WORD_OFF	n/a	n/a	WOODS	Landscapes	7	5	[0, 0, 0]	n/a	catFR1	2	R1394E
576.366	1.6	588551	WORD	n/a	wordpools/wordpool_categorized_EN.txt	BEACH	Landscapes	8	5	[0, 0, 0]	n/a	catFR1	2	R1394E
577.966	0.999	590150	WORD_OFF	n/a	n/a	BEACH	Landscapes	8	5	[0, 0, 0]	n/a	catFR1	2	R1394E
578.965	1.6	591142	WORD	n/a	wordpools/wordpool_categorized_EN.txt	TABLE	Furniture	9	5	[0, 0, 0]	n/a	catFR1	2	R1394E
580.565	0.817	592741	WORD_OFF	n/a	n/a	TABLE	Furniture	9	5	[0, 0, 0]	n/a	catFR1	2	R1394E
581.382	1.6	593556	WORD	n/a	wordpools/wordpool_categorized_EN.txt	BOOKCASE	Furniture	10	5	[0, 0, 0]	n/a	catFR1	2	R1394E
582.982	0.883	595155	WORD_OFF	n/a	n/a	BOOKCASE	Furniture	10	5	[0, 0, 0]	n/a	catFR1	2	R1394E
583.865	1.6	596043	WORD	n/a	wordpools/wordpool_categorized_EN.txt	DOOR	Building	11	5	[0, 0, 0]	n/a	catFR1	2	R1394E
585.465	0.95	597642	WORD_OFF	n/a	n/a	DOOR	Building	11	5	[0, 0, 0]	n/a	catFR1	2	R1394E
586.415	1.6	598590	WORD	n/a	wordpools/wordpool_categorized_EN.txt	BATHROOM	Building	12	5	[0, 0, 0]	n/a	catFR1	2	R1394E
588.015	0.001	600189	WORD_OFF	n/a	n/a	BATHROOM	Building	12	5	[0, 0, 0]	n/a	catFR1	2	R1394E
588.016	0.001	600196	PROB	6.116	n/a	n/a	n/a	-999	5	[2, 3, 6]	11.0	catFR1	2	R1394E
588.017	0.0	600197	START	n/a	n/a	n/a	n/a	-999	5	[-999, -999, -999]	n/a	catFR1	2	R1394E
588.017	0.0	600203	ENCODING_END	n/a	n/a	n/a	n/a	-999	5	[0, 0, 0]	n/a	catFR1	2	R1394E
588.017	6.132	600203	DISTRACT_START	n/a	n/a	n/a	n/a	-999	5	[0, 0, 0]	n/a	catFR1	2	R1394E
594.149	4.583	606329	PROB	4.566	n/a	n/a	n/a	-999	5	[4, 6, 5]	15.0	catFR1	2	R1394E
598.732	8.985	610912	PROB	8.968	n/a	n/a	n/a	-999	5	[7, 7, 8]	22.0	catFR1	2	R1394E
607.717	5.166	619896	PROB	5.149	n/a	n/a	n/a	-999	5	[2, 4, 5]	11.0	catFR1	2	R1394E
612.883	0.0	625062	STOP	n/a	n/a	n/a	n/a	-999	5	[-999, -999, -999]	n/a	catFR1	2	R1394E
612.883	1.616	625063	DISTRACT_END	n/a	n/a	n/a	n/a	-999	5	[0, 0, 0]	n/a	catFR1	2	R1394E
614.499	2.674	626673	REC_START	n/a	n/a	n/a	n/a	-999	5	[0, 0, 0]	n/a	catFR1	2	R1394E
617.173	2.498	629352	REC_WORD	2.674	n/a	DESK	Furniture	5	5	[0, 0, 0]	n/a	catFR1	2	R1394E
619.671	1.824	631850	REC_WORD	5.172	n/a	CHAIR	Furniture	6	5	[0, 0, 0]	n/a	catFR1	2	R1394E
621.495	2.579	633674	REC_WORD	6.996	n/a	TABLE	Furniture	9	5	[0, 0, 0]	n/a	catFR1	2	R1394E
624.074	3.118	636253	REC_WORD	9.575	n/a	BATHROOM	Building	12	5	[0, 0, 0]	n/a	catFR1	2	R1394E
627.192	3.444	639371	REC_WORD	12.693	n/a	WALL	Building	2	5	[0, 0, 0]	n/a	catFR1	2	R1394E
630.636	14.168	642814	REC_WORD	16.137	n/a	HALLWAY	Building	1	5	[0, 0, 0]	n/a	catFR1	2	R1394E
644.804	1.379	656981	REC_END	n/a	n/a	n/a	n/a	-999	5	[0, 0, 0]	n/a	catFR1	2	R1394E
646.183	10.0	658361	COUNTDOWN_START	n/a	n/a	n/a	n/a	-999	6	[0, 0, 0]	n/a	catFR1	2	R1394E
656.533	0.0	668710	COUNTDOWN_END	n/a	n/a	n/a	n/a	-999	6	[0, 0, 0]	n/a	catFR1	2	R1394E
656.533	1.849	668710	ENCODING_START	n/a	n/a	n/a	n/a	-999	6	[0, 0, 0]	n/a	catFR1	2	R1394E
658.382	1.6	670561	WORD	n/a	wordpools/wordpool_categorized_EN.txt	RATCHET	Tools	1	6	[0, 0, 0]	n/a	catFR1	2	R1394E
659.982	1.0	672160	WORD_OFF	n/a	n/a	RATCHET	Tools	1	6	[0, 0, 0]	n/a	catFR1	2	R1394E
660.982	1.6	673152	WORD	n/a	wordpools/wordpool_categorized_EN.txt	LEVEL	Tools	2	6	[0, 0, 0]	n/a	catFR1	2	R1394E
662.599	0.817	674781	WORD_OFF	n/a	n/a	LEVEL	Tools	2	6	[0, 0, 0]	n/a	catFR1	2	R1394E
663.416	1.6	675595	WORD	n/a	wordpools/wordpool_categorized_EN.txt	BALL	Toys	3	6	[0, 0, 0]	n/a	catFR1	2	R1394E
665.032	0.817	677209	WORD_OFF	n/a	n/a	BALL	Toys	3	6	[0, 0, 0]	n/a	catFR1	2	R1394E
665.849	1.6	678023	WORD	n/a	wordpools/wordpool_categorized_EN.txt	MARBLES	Toys	4	6	[0, 0, 0]	n/a	catFR1	2	R1394E
667.449	0.933	679622	WORD_OFF	n/a	n/a	MARBLES	Toys	4	6	[0, 0, 0]	n/a	catFR1	2	R1394E
668.382	1.6	680555	WORD	n/a	wordpools/wordpool_categorized_EN.txt	FINCH	Birds	5	6	[0, 0, 0]	n/a	catFR1	2	R1394E
669.999	0.8	682169	WORD_OFF	n/a	n/a	FINCH	Birds	5	6	[0, 0, 0]	n/a	catFR1	2	R1394E
670.799	1.6	682969	WORD	n/a	wordpools/wordpool_categorized_EN.txt	CARDINAL	Birds	6	6	[0, 0, 0]	n/a	catFR1	2	R1394E
672.399	0.9	684568	WORD_OFF	n/a	n/a	CARDINAL	Birds	6	6	[0, 0, 0]	n/a	catFR1	2	R1394E
673.299	1.6	685471	WORD	n/a	wordpools/wordpool_categorized_EN.txt	DOLL	Toys	7	6	[0, 0, 0]	n/a	catFR1	2	R1394E
674.899	0.866	687070	WORD_OFF	n/a	n/a	DOLL	Toys	7	6	[0, 0, 0]	n/a	catFR1	2	R1394E
675.765	1.6	687943	WORD	n/a	wordpools/wordpool_categorized_EN.txt	BASEBALL	Toys	8	6	[0, 0, 0]	n/a	catFR1	2	R1394E
677.365	1.0	689542	WORD_OFF	n/a	n/a	BASEBALL	Toys	8	6	[0, 0, 0]	n/a	catFR1	2	R1394E
678.365	1.6	690534	WORD	n/a	wordpools/wordpool_categorized_EN.txt	SEAGULL	Birds	9	6	[0, 0, 0]	n/a	catFR1	2	R1394E
679.982	0.983	692163	WORD_OFF	n/a	n/a	SEAGULL	Birds	9	6	[0, 0, 0]	n/a	catFR1	2	R1394E
680.965	1.6	693140	WORD	n/a	wordpools/wordpool_categorized_EN.txt	DUCK	Birds	10	6	[0, 0, 0]	n/a	catFR1	2	R1394E
682.565	0.783	694739	WORD_OFF	n/a	n/a	DUCK	Birds	10	6	[0, 0, 0]	n/a	catFR1	2	R1394E
683.348	1.6	695524	WORD	n/a	wordpools/wordpool_categorized_EN.txt	AXE	Tools	11	6	[0, 0, 0]	n/a	catFR1	2	R1394E
684.948	0.967	697123	WORD_OFF	n/a	n/a	AXE	Tools	11	6	[0, 0, 0]	n/a	catFR1	2	R1394E
685.915	1.6	698086	WORD	n/a	wordpools/wordpool_categorized_EN.txt	DRILL	Tools	12	6	[0, 0, 0]	n/a	catFR1	2	R1394E
687.515	0.001	699685	WORD_OFF	n/a	n/a	DRILL	Tools	12	6	[0, 0, 0]	n/a	catFR1	2	R1394E
687.516	0.0	699685	ENCODING_END	n/a	n/a	n/a	n/a	-999	6	[0, 0, 0]	n/a	catFR1	2	R1394E
687.516	0.0	699693	PROB	9.35	n/a	n/a	n/a	-999	6	[6, 1, 3]	10.0	catFR1	2	R1394E
687.516	0.0	699693	START	n/a	n/a	n/a	n/a	-999	6	[-999, -999, -999]	n/a	catFR1	2	R1394E
687.516	9.367	699699	DISTRACT_START	n/a	n/a	n/a	n/a	-999	6	[0, 0, 0]	n/a	catFR1	2	R1394E
696.883	6.5	709059	PROB	6.483	n/a	n/a	n/a	-999	6	[1, 4, 2]	7.0	catFR1	2	R1394E
703.383	8.633	715559	PROB	8.616	n/a	n/a	n/a	-999	6	[3, 4, 7]	14.0	catFR1	2	R1394E
712.016	0.0	724188	DISTRACT_END	n/a	n/a	n/a	n/a	-999	6	[0, 0, 0]	n/a	catFR1	2	R1394E
712.016	1.516	724192	STOP	n/a	n/a	n/a	n/a	-999	6	[-999, -999, -999]	n/a	catFR1	2	R1394E
713.532	29.999	725710	REC_START	n/a	n/a	n/a	n/a	-999	6	[0, 0, 0]	n/a	catFR1	2	R1394E
743.531	0.306	755706	REC_WORD_VV	29.999	n/a	<>	n/a	-999	6	[0, 0, 0]	n/a	catFR1	2	R1394E
743.837	1.529	756010	REC_END	n/a	n/a	n/a	n/a	-999	6	[0, 0, 0]	n/a	catFR1	2	R1394E
745.366	10.0	757546	COUNTDOWN_START	n/a	n/a	n/a	n/a	-999	7	[0, 0, 0]	n/a	catFR1	2	R1394E
755.717	0.0	767896	COUNTDOWN_END	n/a	n/a	n/a	n/a	-999	7	[0, 0, 0]	n/a	catFR1	2	R1394E
755.717	2.266	767896	ENCODING_START	n/a	n/a	n/a	n/a	-999	7	[0, 0, 0]	n/a	catFR1	2	R1394E
757.983	1.6	770161	WORD	n/a	wordpools/wordpool_categorized_EN.txt	EVERGREEN	Trees	1	7	[0, 0, 0]	n/a	catFR1	2	R1394E
759.599	0.799	771775	WORD_OFF	n/a	n/a	EVERGREEN	Trees	1	7	[0, 0, 0]	n/a	catFR1	2	R1394E
760.398	1.6	772574	WORD	n/a	wordpools/wordpool_categorized_EN.txt	CYPRESS	Trees	2	7	[0, 0, 0]	n/a	catFR1	2	R1394E
761.999	0.766	774173	WORD_OFF	n/a	n/a	CYPRESS	Trees	2	7	[0, 0, 0]	n/a	catFR1	2	R1394E
762.765	1.6	774943	WORD	n/a	wordpools/wordpool_categorized_EN.txt	CUPCAKE	Desserts	3	7	[0, 0, 0]	n/a	catFR1	2	R1394E
764.382	0.933	776557	WORD_OFF	n/a	n/a	CUPCAKE	Desserts	3	7	[0, 0, 0]	n/a	catFR1	2	R1394E
765.315	1.6	777490	WORD	n/a	wordpools/wordpool_categorized_EN.txt	CHEESECAKE	Desserts	4	7	[0, 0, 0]	n/a	catFR1	2	R1394E
766.932	0.783	779104	WORD_OFF	n/a	n/a	CHEESECAKE	Desserts	4	7	[0, 0, 0]	n/a	catFR1	2	R1394E
767.715	1.6	779888	WORD	n/a	wordpools/wordpool_categorized_EN.txt	SOFA	Furniture	5	7	[0, 0, 0]	n/a	catFR1	2	R1394E
769.315	0.784	781487	WORD_OFF	n/a	n/a	SOFA	Furniture	5	7	[0, 0, 0]	n/a	catFR1	2	R1394E
770.099	1.6	782272	WORD	n/a	wordpools/wordpool_categorized_EN.txt	DRESSER	Furniture	6	7	[0, 0, 0]	n/a	catFR1	2	R1394E
771.699	0.983	783871	WORD_OFF	n/a	n/a	DRESSER	Furniture	6	7	[0, 0, 0]	n/a	catFR1	2	R1394E
772.682	1.6	784848	WORD	n/a	wordpools/wordpool_categorized_EN.txt	WILLOW	Trees	7	7	[0, 0, 0]	n/a	catFR1	2	R1394E
774.298	0.85	786477	WORD_OFF	n/a	n/a	WILLOW	Trees	7	7	[0, 0, 0]	n/a	catFR1	2	R1394E
775.148	1.6	787321	WORD	n/a	wordpools/wordpool_categorized_EN.txt	OAK	Trees	8	7	[0, 0, 0]	n/a	catFR1	2	R1394E
776.765	0.917	788935	WORD_OFF	n/a	n/a	OAK	Trees	8	7	[0, 0, 0]	n/a	catFR1	2	R1394E
777.682	1.6	789853	WORD	n/a	wordpools/wordpool_categorized_EN.txt	COUCH	Furniture	9	7	[0, 0, 0]	n/a	catFR1	2	R1394E
779.282	0.949	791452	WORD_OFF	n/a	n/a	COUCH	Furniture	9	7	[0, 0, 0]	n/a	catFR1	2	R1394E
780.231	1.6	792399	WORD	n/a	wordpools/wordpool_categorized_EN.txt	NIGHTSTAND	Furniture	10	7	[0, 0, 0]	n/a	catFR1	2	R1394E
781.832	0.866	793998	WORD_OFF	n/a	n/a	NIGHTSTAND	Furniture	10	7	[0, 0, 0]	n/a	catFR1	2	R1394E
782.698	1.6	794872	WORD	n/a	wordpools/wordpool_categorized_EN.txt	COBBLER	Desserts	11	7	[0, 0, 0]	n/a	catFR1	2	R1394E
784.299	0.783	796471	WORD_OFF	n/a	n/a	COBBLER	Desserts	11	7	[0, 0, 0]	n/a	catFR1	2	R1394E
785.082	1.6	797256	WORD	n/a	wordpools/wordpool_categorized_EN.txt	JELLO	Desserts	12	7	[0, 0, 0]	n/a	catFR1	2	R1394E
786.682	0.001	798855	WORD_OFF	n/a	n/a	JELLO	Desserts	12	7	[0, 0, 0]	n/a	catFR1	2	R1394E
786.683	0.001	798855	ENCODING_END	n/a	n/a	n/a	n/a	-999	7	[0, 0, 0]	n/a	catFR1	2	R1394E
786.684	0.0	798855	DISTRACT_START	n/a	n/a	n/a	n/a	-999	7	[0, 0, 0]	n/a	catFR1	2	R1394E
786.683	0.001	798856	PROB	7.051	n/a	n/a	n/a	-999	7	[2, 4, 5]	11.0	catFR1	2	R1394E
786.684	7.067	798857	START	n/a	n/a	n/a	n/a	-999	7	[-999, -999, -999]	n/a	catFR1	2	R1394E
793.751	7.199	805924	PROB	7.181	n/a	n/a	n/a	-999	7	[6, 2, 3]	11.0	catFR1	2	R1394E
800.95	6.915	813123	PROB	6.899	n/a	n/a	n/a	-999	7	[5, 6, 1]	12.0	catFR1	2	R1394E
807.865	0.0	820038	STOP	n/a	n/a	n/a	n/a	-999	7	[-999, -999, -999]	n/a	catFR1	2	R1394E
807.865	1.701	820042	DISTRACT_END	n/a	n/a	n/a	n/a	-999	7	[0, 0, 0]	n/a	catFR1	2	R1394E
809.566	2.075	821741	REC_START	n/a	n/a	n/a	n/a	-999	7	[0, 0, 0]	n/a	catFR1	2	R1394E
811.641	3.11	823813	REC_WORD	2.075	n/a	COUCH	Furniture	9	7	[0, 0, 0]	n/a	catFR1	2	R1394E
814.751	25.109	826923	REC_WORD	5.185	n/a	SOFA	Furniture	5	7	[0, 0, 0]	n/a	catFR1	2	R1394E
839.86	1.439	852034	REC_END	n/a	n/a	n/a	n/a	-999	7	[0, 0, 0]	n/a	catFR1	2	R1394E
841.299	10.0	853474	COUNTDOWN_START	n/a	n/a	n/a	n/a	-999	8	[0, 0, 0]	n/a	catFR1	2	R1394E
851.65	0.0	863823	COUNTDOWN_END	n/a	n/a	n/a	n/a	-999	8	[0, 0, 0]	n/a	catFR1	2	R1394E
851.65	2.116	863823	ENCODING_START	n/a	n/a	n/a	n/a	-999	8	[0, 0, 0]	n/a	catFR1	2	R1394E
853.766	1.6	865941	WORD	n/a	wordpools/wordpool_categorized_EN.txt	DRIZZLE	Weather	1	8	[0, 0, 0]	n/a	catFR1	2	R1394E
855.382	0.85	867554	WORD_OFF	n/a	n/a	DRIZZLE	Weather	1	8	[0, 0, 0]	n/a	catFR1	2	R1394E
856.232	1.6	868398	WORD	n/a	wordpools/wordpool_categorized_EN.txt	HUMIDITY	Weather	2	8	[0, 0, 0]	n/a	catFR1	2	R1394E
857.848	0.784	870012	WORD_OFF	n/a	n/a	HUMIDITY	Weather	2	8	[0, 0, 0]	n/a	catFR1	2	R1394E
858.632	1.6	870797	WORD	n/a	wordpools/wordpool_categorized_EN.txt	SHOVEL	Tools	3	8	[0, 0, 0]	n/a	catFR1	2	R1394E
860.248	0.901	872411	WORD_OFF	n/a	n/a	SHOVEL	Tools	3	8	[0, 0, 0]	n/a	catFR1	2	R1394E
861.149	1.6	873314	WORD	n/a	wordpools/wordpool_categorized_EN.txt	SAW	Tools	4	8	[0, 0, 0]	n/a	catFR1	2	R1394E
862.749	0.883	874913	WORD_OFF	n/a	n/a	SAW	Tools	4	8	[0, 0, 0]	n/a	catFR1	2	R1394E
863.632	1.6	875801	WORD	n/a	wordpools/wordpool_categorized_EN.txt	STAPLER	Officesupplies	5	8	[0, 0, 0]	n/a	catFR1	2	R1394E
865.232	0.849	877400	WORD_OFF	n/a	n/a	STAPLER	Officesupplies	5	8	[0, 0, 0]	n/a	catFR1	2	R1394E
866.081	1.6	878244	WORD	n/a	wordpools/wordpool_categorized_EN.txt	PEN	Officesupplies	6	8	[0, 0, 0]	n/a	catFR1	2	R1394E
867.682	0.783	879858	WORD_OFF	n/a	n/a	PEN	Officesupplies	6	8	[0, 0, 0]	n/a	catFR1	2	R1394E
868.465	1.6	880628	WORD	n/a	wordpools/wordpool_categorized_EN.txt	LIGHTNING	Weather	7	8	[0, 0, 0]	n/a	catFR1	2	R1394E
870.065	0.933	882227	WORD_OFF	n/a	n/a	LIGHTNING	Weather	7	8	[0, 0, 0]	n/a	catFR1	2	R1394E
870.998	1.6	883160	WORD	n/a	wordpools/wordpool_categorized_EN.txt	RAIN	Weather	8	8	[0, 0, 0]	n/a	catFR1	2	R1394E
872.615	0.817	884789	WORD_OFF	n/a	n/a	RAIN	Weather	8	8	[0, 0, 0]	n/a	catFR1	2	R1394E
873.432	1.6	885603	WORD	n/a	wordpools/wordpool_categorized_EN.txt	FOLDER	Officesupplies	9	8	[0, 0, 0]	n/a	catFR1	2	R1394E
875.048	0.917	887217	WORD_OFF	n/a	n/a	FOLDER	Officesupplies	9	8	[0, 0, 0]	n/a	catFR1	2	R1394E
875.965	1.6	888135	WORD	n/a	wordpools/wordpool_categorized_EN.txt	PENCIL	Officesupplies	10	8	[0, 0, 0]	n/a	catFR1	2	R1394E
877.565	0.85	889734	WORD_OFF	n/a	n/a	PENCIL	Officesupplies	10	8	[0, 0, 0]	n/a	catFR1	2	R1394E
878.415	1.6	890578	WORD	n/a	wordpools/wordpool_categorized_EN.txt	SANDER	Tools	11	8	[0, 0, 0]	n/a	catFR1	2	R1394E
880.016	0.934	892192	WORD_OFF	n/a	n/a	SANDER	Tools	11	8	[0, 0, 0]	n/a	catFR1	2	R1394E
880.95	1.6	893124	WORD	n/a	wordpools/wordpool_categorized_EN.txt	WRENCH	Tools	12	8	[0, 0, 0]	n/a	catFR1	2	R1394E
882.567	0.0	894737	PROB	6.599	n/a	n/a	n/a	-999	8	[3, 3, 3]	9.0	catFR1	2	R1394E
882.566	0.002	894738	WORD_OFF	n/a	n/a	WRENCH	Tools	12	8	[0, 0, 0]	n/a	catFR1	2	R1394E
882.568	0.0	894738	ENCODING_END	n/a	n/a	n/a	n/a	-999	8	[0, 0, 0]	n/a	catFR1	2	R1394E
882.568	0.0	894738	DISTRACT_START	n/a	n/a	n/a	n/a	-999	8	[0, 0, 0]	n/a	catFR1	2	R1394E
882.568	6.615	894738	START	n/a	n/a	n/a	n/a	-999	8	[-999, -999, -999]	n/a	catFR1	2	R1394E
889.183	7.25	901353	PROB	7.233	n/a	n/a	n/a	-999	8	[4, 1, 3]	8.0	catFR1	2	R1394E
896.433	5.7	908603	PROB	5.683	n/a	n/a	n/a	-999	8	[8, 5, 1]	14.0	catFR1	2	R1394E
902.133	5.468	914302	PROB	5.449	n/a	n/a	n/a	-999	8	[1, 8, 8]	17.0	catFR1	2	R1394E
907.601	0.0	919770	STOP	n/a	n/a	n/a	n/a	-999	8	[-999, -999, -999]	n/a	catFR1	2	R1394E
907.601	1.632	919775	DISTRACT_END	n/a	n/a	n/a	n/a	-999	8	[0, 0, 0]	n/a	catFR1	2	R1394E
909.233	1.897	921400	REC_START	n/a	n/a	n/a	n/a	-999	8	[0, 0, 0]	n/a	catFR1	2	R1394E
911.13	1.498	923299	REC_WORD	1.897	n/a	PEN	Officesupplies	6	8	[0, 0, 0]	n/a	catFR1	2	R1394E
912.628	2.239	924797	REC_WORD	3.395	n/a	PENCIL	Officesupplies	10	8	[0, 0, 0]	n/a	catFR1	2	R1394E
914.867	2.962	927036	REC_WORD	5.634	n/a	STAPLER	Officesupplies	5	8	[0, 0, 0]	n/a	catFR1	2	R1394E
917.829	2.967	929998	REC_WORD	8.596	n/a	RAIN	Weather	8	8	[0, 0, 0]	n/a	catFR1	2	R1394E
920.796	2.876	932965	REC_WORD	11.563	n/a	LIGHTNING	Weather	7	8	[0, 0, 0]	n/a	catFR1	2	R1394E
923.672	15.862	935841	REC_WORD	14.439	n/a	DRIZZLE	Weather	1	8	[0, 0, 0]	n/a	catFR1	2	R1394E
939.534	1.165	951708	REC_END	n/a	n/a	n/a	n/a	-999	8	[0, 0, 0]	n/a	catFR1	2	R1394E
940.699	10.0	952866	COUNTDOWN_START	n/a	n/a	n/a	n/a	-999	9	[0, 0, 0]	n/a	catFR1	2	R1394E
951.05	0.0	963216	COUNTDOWN_END	n/a	n/a	n/a	n/a	-999	9	[0, 0, 0]	n/a	catFR1	2	R1394E
951.05	2.283	963216	ENCODING_START	n/a	n/a	n/a	n/a	-999	9	[0, 0, 0]	n/a	catFR1	2	R1394E
953.333	1.6	965496	WORD	n/a	wordpools/wordpool_categorized_EN.txt	ROOF	Building	1	9	[0, 0, 0]	n/a	catFR1	2	R1394E
954.949	1.0	967110	WORD_OFF	n/a	n/a	ROOF	Building	1	9	[0, 0, 0]	n/a	catFR1	2	R1394E
955.949	1.6	968117	WORD	n/a	wordpools/wordpool_categorized_EN.txt	ATTIC	Building	2	9	[0, 0, 0]	n/a	catFR1	2	R1394E
957.549	0.834	969716	WORD_OFF	n/a	n/a	ATTIC	Building	2	9	[0, 0, 0]	n/a	catFR1	2	R1394E
958.383	1.6	970545	WORD	n/a	wordpools/wordpool_categorized_EN.txt	MOTH	Insects	3	9	[0, 0, 0]	n/a	catFR1	2	R1394E
959.983	0.766	972144	WORD_OFF	n/a	n/a	MOTH	Insects	3	9	[0, 0, 0]	n/a	catFR1	2	R1394E
960.749	1.6	972914	WORD	n/a	wordpools/wordpool_categorized_EN.txt	GNAT	Insects	4	9	[0, 0, 0]	n/a	catFR1	2	R1394E
962.366	0.883	974528	WORD_OFF	n/a	n/a	GNAT	Insects	4	9	[0, 0, 0]	n/a	catFR1	2	R1394E
963.249	1.6	975416	WORD	n/a	wordpools/wordpool_categorized_EN.txt	FLUTE	Instruments	5	9	[0, 0, 0]	n/a	catFR1	2	R1394E
964.865	0.851	977030	WORD_OFF	n/a	n/a	FLUTE	Instruments	5	9	[0, 0, 0]	n/a	catFR1	2	R1394E
965.716	1.6	977888	WORD	n/a	wordpools/wordpool_categorized_EN.txt	GUITAR	Instruments	6	9	[0, 0, 0]	n/a	catFR1	2	R1394E
967.316	0.983	979488	WORD_OFF	n/a	n/a	GUITAR	Instruments	6	9	[0, 0, 0]	n/a	catFR1	2	R1394E
968.299	1.6	980465	WORD	n/a	wordpools/wordpool_categorized_EN.txt	ROOM	Building	7	9	[0, 0, 0]	n/a	catFR1	2	R1394E
969.899	0.85	982064	WORD_OFF	n/a	n/a	ROOM	Building	7	9	[0, 0, 0]	n/a	catFR1	2	R1394E
970.749	1.6	982908	WORD	n/a	wordpools/wordpool_categorized_EN.txt	STAIRS	Building	8	9	[0, 0, 0]	n/a	catFR1	2	R1394E
972.365	0.817	984536	WORD_OFF	n/a	n/a	STAIRS	Building	8	9	[0, 0, 0]	n/a	catFR1	2	R1394E
973.182	1.6	985351	WORD	n/a	wordpools/wordpool_categorized_EN.txt	ANT	Insects	9	9	[0, 0, 0]	n/a	catFR1	2	R1394E
974.782	1.0	986950	WORD_OFF	n/a	n/a	ANT	Insects	9	9	[0, 0, 0]	n/a	catFR1	2	R1394E
975.782	1.6	987942	WORD	n/a	wordpools/wordpool_categorized_EN.txt	BUTTERFLY	Insects	10	9	[0, 0, 0]	n/a	catFR1	2	R1394E
977.383	0.899	989541	WORD_OFF	n/a	n/a	BUTTERFLY	Insects	10	9	[0, 0, 0]	n/a	catFR1	2	R1394E
978.282	1.6	990444	WORD	n/a	wordpools/wordpool_categorized_EN.txt	PIANO	Instruments	11	9	[0, 0, 0]	n/a	catFR1	2	R1394E
979.899	0.9	992058	WORD_OFF	n/a	n/a	PIANO	Instruments	11	9	[0, 0, 0]	n/a	catFR1	2	R1394E
980.799	1.6	992961	WORD	n/a	wordpools/wordpool_categorized_EN.txt	TROMBONE	Instruments	12	9	[0, 0, 0]	n/a	catFR1	2	R1394E
982.399	0.002	994560	WORD_OFF	n/a	n/a	TROMBONE	Instruments	12	9	[0, 0, 0]	n/a	catFR1	2	R1394E
982.401	0.0	994560	ENCODING_END	n/a	n/a	n/a	n/a	-999	9	[0, 0, 0]	n/a	catFR1	2	R1394E
982.4	0.001	994567	PROB	6.433	n/a	n/a	n/a	-999	9	[3, 3, 4]	10.0	catFR1	2	R1394E
982.401	0.0	994568	START	n/a	n/a	n/a	n/a	-999	9	[-999, -999, -999]	n/a	catFR1	2	R1394E
982.401	6.448	994575	DISTRACT_START	n/a	n/a	n/a	n/a	-999	9	[0, 0, 0]	n/a	catFR1	2	R1394E
988.849	7.134	1001015	PROB	7.117	n/a	n/a	n/a	-999	9	[4, 8, 3]	15.0	catFR1	2	R1394E
995.983	5.6	1008149	PROB	5.583	n/a	n/a	n/a	-999	9	[3, 3, 3]	9.0	catFR1	2	R1394E
1001.583	6.133	1013749	PROB	6.116	n/a	n/a	n/a	-999	9	[6, 6, 1]	13.0	catFR1	2	R1394E
1007.716	0.0	1019878	DISTRACT_END	n/a	n/a	n/a	n/a	-999	9	[0, 0, 0]	n/a	catFR1	2	R1394E
1007.716	1.883	1019882	STOP	n/a	n/a	n/a	n/a	-999	9	[-999, -999, -999]	n/a	catFR1	2	R1394E
1009.599	1.93	1021770	REC_START	n/a	n/a	n/a	n/a	-999	9	[0, 0, 0]	n/a	catFR1	2	R1394E
1011.529	2.036	1023695	REC_WORD	1.93	n/a	FLUTE	Instruments	5	9	[0, 0, 0]	n/a	catFR1	2	R1394E
1013.565	1.974	1025731	REC_WORD	3.966	n/a	TROMBONE	Instruments	12	9	[0, 0, 0]	n/a	catFR1	2	R1394E
1015.539	3.443	1027705	REC_WORD	5.94	n/a	GUITAR	Instruments	6	9	[0, 0, 0]	n/a	catFR1	2	R1394E
1018.982	7.064	1031147	REC_WORD	9.383	n/a	PIANO	Instruments	11	9	[0, 0, 0]	n/a	catFR1	2	R1394E
1026.046	2.085	1038211	REC_WORD	16.447	n/a	ROOF	Building	1	9	[0, 0, 0]	n/a	catFR1	2	R1394E
1028.131	11.769	1040296	REC_WORD	18.532	n/a	ATTIC	Building	2	9	[0, 0, 0]	n/a	catFR1	2	R1394E
1039.9	1.433	1052063	REC_END	n/a	n/a	n/a	n/a	-999	9	[0, 0, 0]	n/a	catFR1	2	R1394E
1041.333	10.0	1053502	COUNTDOWN_START	n/a	n/a	n/a	n/a	-999	10	[0, 0, 0]	n/a	catFR1	2	R1394E
1051.683	0.0	1063852	COUNTDOWN_END	n/a	n/a	n/a	n/a	-999	10	[0, 0, 0]	n/a	catFR1	2	R1394E
1051.683	2.116	1063852	ENCODING_START	n/a	n/a	n/a	n/a	-999	10	[0, 0, 0]	n/a	catFR1	2	R1394E
1053.799	1.6	1065969	WORD	n/a	wordpools/wordpool_categorized_EN.txt	FOUNDATION	Building	1	10	[0, 0, 0]	n/a	catFR1	2	R1394E
1055.399	0.784	1067568	WORD_OFF	n/a	n/a	FOUNDATION	Building	1	10	[0, 0, 0]	n/a	catFR1	2	R1394E
1056.183	1.6	1068338	WORD	n/a	wordpools/wordpool_categorized_EN.txt	FLOOR	Building	2	10	[0, 0, 0]	n/a	catFR1	2	R1394E
1057.799	0.866	1069967	WORD_OFF	n/a	n/a	FLOOR	Building	2	10	[0, 0, 0]	n/a	catFR1	2	R1394E
1058.665	1.6	1070825	WORD	n/a	wordpools/wordpool_categorized_EN.txt	CELLO	Instruments	3	10	[0, 0, 0]	n/a	catFR1	2	R1394E
1060.266	0.816	1072425	WORD_OFF	n/a	n/a	CELLO	Instruments	3	10	[0, 0, 0]	n/a	catFR1	2	R1394E
1061.082	1.6	1073239	WORD	n/a	wordpools/wordpool_categorized_EN.txt	ORGAN	Instruments	4	10	[0, 0, 0]	n/a	catFR1	2	R1394E
1062.683	0.999	1074838	WORD_OFF	n/a	n/a	ORGAN	Instruments	4	10	[0, 0, 0]	n/a	catFR1	2	R1394E
1063.682	1.6	1075845	WORD	n/a	wordpools/wordpool_categorized_EN.txt	PUZZLE	Toys	5	10	[0, 0, 0]	n/a	catFR1	2	R1394E
1065.299	0.833	1077459	WORD_OFF	n/a	n/a	PUZZLE	Toys	5	10	[0, 0, 0]	n/a	catFR1	2	R1394E
1066.132	1.6	1078288	WORD	n/a	wordpools/wordpool_categorized_EN.txt	FRISBEE	Toys	6	10	[0, 0, 0]	n/a	catFR1	2	R1394E
1067.732	0.967	1079902	WORD_OFF	n/a	n/a	FRISBEE	Toys	6	10	[0, 0, 0]	n/a	catFR1	2	R1394E
1068.699	1.6	1080864	WORD	n/a	wordpools/wordpool_categorized_EN.txt	TRUMPET	Instruments	7	10	[0, 0, 0]	n/a	catFR1	2	R1394E
1070.298	0.801	1082463	WORD_OFF	n/a	n/a	TRUMPET	Instruments	7	10	[0, 0, 0]	n/a	catFR1	2	R1394E
1071.099	1.6	1083262	WORD	n/a	wordpools/wordpool_categorized_EN.txt	BASS	Instruments	8	10	[0, 0, 0]	n/a	catFR1	2	R1394E
1072.699	1.0	1084861	WORD_OFF	n/a	n/a	BASS	Instruments	8	10	[0, 0, 0]	n/a	catFR1	2	R1394E
1073.699	1.6	1085868	WORD	n/a	wordpools/wordpool_categorized_EN.txt	DOLLHOUSE	Toys	9	10	[0, 0, 0]	n/a	catFR1	2	R1394E
1075.299	0.934	1087467	WORD_OFF	n/a	n/a	DOLLHOUSE	Toys	9	10	[0, 0, 0]	n/a	catFR1	2	R1394E
1076.233	1.6	1088400	WORD	n/a	wordpools/wordpool_categorized_EN.txt	BLOCKS	Toys	10	10	[0, 0, 0]	n/a	catFR1	2	R1394E
1077.833	0.766	1089999	WORD_OFF	n/a	n/a	BLOCKS	Toys	10	10	[0, 0, 0]	n/a	catFR1	2	R1394E
1078.599	1.6	1090754	WORD	n/a	wordpools/wordpool_categorized_EN.txt	CEILING	Building	11	10	[0, 0, 0]	n/a	catFR1	2	R1394E
1080.199	0.95	1092368	WORD_OFF	n/a	n/a	CEILING	Building	11	10	[0, 0, 0]	n/a	catFR1	2	R1394E
1081.149	1.6	1093316	WORD	n/a	wordpools/wordpool_categorized_EN.txt	WINDOW	Building	12	10	[0, 0, 0]	n/a	catFR1	2	R1394E
1082.75	0.001	1094913	PROB	9.233	n/a	n/a	n/a	-999	10	[7, 5, 1]	13.0	catFR1	2	R1394E
1082.751	0.0	1094914	START	n/a	n/a	n/a	n/a	-999	10	[-999, -999, -999]	n/a	catFR1	2	R1394E
1082.749	0.002	1094915	WORD_OFF	n/a	n/a	WINDOW	Building	12	10	[0, 0, 0]	n/a	catFR1	2	R1394E
1082.751	0.0	1094915	ENCODING_END	n/a	n/a	n/a	n/a	-999	10	[0, 0, 0]	n/a	catFR1	2	R1394E
1082.751	9.249	1094915	DISTRACT_START	n/a	n/a	n/a	n/a	-999	10	[0, 0, 0]	n/a	catFR1	2	R1394E
1092.0	4.533	1104163	PROB	4.516	n/a	n/a	n/a	-999	10	[8, 8, 1]	17.0	catFR1	2	R1394E
1096.533	5.534	1108696	PROB	5.516	n/a	n/a	n/a	-999	10	[3, 8, 1]	12.0	catFR1	2	R1394E
1102.067	6.132	1114230	PROB	6.116	n/a	n/a	n/a	-999	10	[1, 3, 2]	6.0	catFR1	2	R1394E
1108.199	0.0	1120361	STOP	n/a	n/a	n/a	n/a	-999	10	[-999, -999, -999]	n/a	catFR1	2	R1394E
1108.199	1.667	1120366	DISTRACT_END	n/a	n/a	n/a	n/a	-999	10	[0, 0, 0]	n/a	catFR1	2	R1394E
1109.866	3.253	1122021	REC_START	n/a	n/a	n/a	n/a	-999	10	[0, 0, 0]	n/a	catFR1	2	R1394E
1113.119	3.366	1125281	REC_WORD	3.253	n/a	ORGAN	Instruments	4	10	[0, 0, 0]	n/a	catFR1	2	R1394E
1116.485	3.2	1128647	REC_WORD	6.619	n/a	TRUMPET	Instruments	7	10	[0, 0, 0]	n/a	catFR1	2	R1394E
1119.685	20.494	1131847	REC_WORD	9.819	n/a	BASS	Instruments	8	10	[0, 0, 0]	n/a	catFR1	2	R1394E
1140.179	1.069	1152344	REC_END	n/a	n/a	n/a	n/a	-999	10	[0, 0, 0]	n/a	catFR1	2	R1394E
1141.248	10.0	1153413	COUNTDOWN_START	n/a	n/a	n/a	n/a	-999	11	[0, 0, 0]	n/a	catFR1	2	R1394E
1151.599	0.0	1163762	COUNTDOWN_END	n/a	n/a	n/a	n/a	-999	11	[0, 0, 0]	n/a	catFR1	2	R1394E
1151.599	1.949	1163762	ENCODING_START	n/a	n/a	n/a	n/a	-999	11	[0, 0, 0]	n/a	catFR1	2	R1394E
1153.548	1.6	1165702	WORD	n/a	wordpools/wordpool_categorized_EN.txt	VACUUM	Appliances	1	11	[0, 0, 0]	n/a	catFR1	2	R1394E
1155.165	0.769	1167331	WORD_OFF	n/a	n/a	VACUUM	Appliances	1	11	[0, 0, 0]	n/a	catFR1	2	R1394E
1155.934	1.6	1168101	WORD	n/a	wordpools/wordpool_categorized_EN.txt	BLENDER	Appliances	2	11	[0, 0, 0]	n/a	catFR1	2	R1394E
1157.549	0.984	1169714	WORD_OFF	n/a	n/a	BLENDER	Appliances	2	11	[0, 0, 0]	n/a	catFR1	2	R1394E
1158.533	1.6	1170692	WORD	n/a	wordpools/wordpool_categorized_EN.txt	POTATO	Vegetables	3	11	[0, 0, 0]	n/a	catFR1	2	R1394E
1160.133	0.802	1172291	WORD_OFF	n/a	n/a	POTATO	Vegetables	3	11	[0, 0, 0]	n/a	catFR1	2	R1394E
1160.935	1.6	1173090	WORD	n/a	wordpools/wordpool_categorized_EN.txt	BROCCOLI	Vegetables	4	11	[0, 0, 0]	n/a	catFR1	2	R1394E
1162.533	0.867	1174689	WORD_OFF	n/a	n/a	BROCCOLI	Vegetables	4	11	[0, 0, 0]	n/a	catFR1	2	R1394E
1163.4	1.6	1175563	WORD	n/a	wordpools/wordpool_categorized_EN.txt	PLIERS	Tools	5	11	[0, 0, 0]	n/a	catFR1	2	R1394E
1165.015	0.801	1177177	WORD_OFF	n/a	n/a	PLIERS	Tools	5	11	[0, 0, 0]	n/a	catFR1	2	R1394E
1165.816	1.6	1177976	WORD	n/a	wordpools/wordpool_categorized_EN.txt	SCREWDRIVER	Tools	6	11	[0, 0, 0]	n/a	catFR1	2	R1394E
1167.416	0.983	1179575	WORD_OFF	n/a	n/a	SCREWDRIVER	Tools	6	11	[0, 0, 0]	n/a	catFR1	2	R1394E
1168.399	1.6	1180552	WORD	n/a	wordpools/wordpool_categorized_EN.txt	CAULIFLOWER	Vegetables	7	11	[0, 0, 0]	n/a	catFR1	2	R1394E
1170.015	0.751	1182181	WORD_OFF	n/a	n/a	CAULIFLOWER	Vegetables	7	11	[0, 0, 0]	n/a	catFR1	2	R1394E
1170.766	1.6	1182921	WORD	n/a	wordpools/wordpool_categorized_EN.txt	CORN	Vegetables	8	11	[0, 0, 0]	n/a	catFR1	2	R1394E
1172.366	0.799	1184520	WORD_OFF	n/a	n/a	CORN	Vegetables	8	11	[0, 0, 0]	n/a	catFR1	2	R1394E
1173.165	1.6	1185320	WORD	n/a	wordpools/wordpool_categorized_EN.txt	DISHWASHER	Appliances	9	11	[0, 0, 0]	n/a	catFR1	2	R1394E
1174.766	0.8	1186919	WORD_OFF	n/a	n/a	DISHWASHER	Appliances	9	11	[0, 0, 0]	n/a	catFR1	2	R1394E
1175.566	1.6	1187718	WORD	n/a	wordpools/wordpool_categorized_EN.txt	TOASTER	Appliances	10	11	[0, 0, 0]	n/a	catFR1	2	R1394E
1177.166	0.866	1189318	WORD_OFF	n/a	n/a	TOASTER	Appliances	10	11	[0, 0, 0]	n/a	catFR1	2	R1394E
1178.032	1.6	1190191	WORD	n/a	wordpools/wordpool_categorized_EN.txt	HAMMER	Tools	11	11	[0, 0, 0]	n/a	catFR1	2	R1394E
1179.633	0.8	1191790	WORD_OFF	n/a	n/a	HAMMER	Tools	11	11	[0, 0, 0]	n/a	catFR1	2	R1394E
1180.433	1.6	1192590	WORD	n/a	wordpools/wordpool_categorized_EN.txt	CROWBAR	Tools	12	11	[0, 0, 0]	n/a	catFR1	2	R1394E
1182.033	0.001	1194189	WORD_OFF	n/a	n/a	CROWBAR	Tools	12	11	[0, 0, 0]	n/a	catFR1	2	R1394E
1182.034	0.0	1194189	ENCODING_END	n/a	n/a	n/a	n/a	-999	11	[0, 0, 0]	n/a	catFR1	2	R1394E
1182.034	0.0	1194193	DISTRACT_START	n/a	n/a	n/a	n/a	-999	11	[0, 0, 0]	n/a	catFR1	2	R1394E
1182.033	0.001	1194193	PROB	9.749	n/a	n/a	n/a	-999	11	[2, 4, 7]	13.0	catFR1	2	R1394E
1182.034	9.766	1194194	START	n/a	n/a	n/a	n/a	-999	11	[-999, -999, -999]	n/a	catFR1	2	R1394E
1191.8	7.317	1203960	PROB	7.299	n/a	n/a	n/a	-999	11	[7, 8, 1]	16.0	catFR1	2	R1394E
1199.117	7.482	1211276	PROB	7.466	n/a	n/a	n/a	-999	11	[8, 3, 2]	13.0	catFR1	2	R1394E
1206.599	0.0	1218752	DISTRACT_END	n/a	n/a	n/a	n/a	-999	11	[0, 0, 0]	n/a	catFR1	2	R1394E
1206.599	1.7	1218758	STOP	n/a	n/a	n/a	n/a	-999	11	[-999, -999, -999]	n/a	catFR1	2	R1394E
1208.299	3.759	1220451	REC_START	n/a	n/a	n/a	n/a	-999	11	[0, 0, 0]	n/a	catFR1	2	R1394E
1212.058	2.497	1224217	REC_WORD	3.759	n/a	PLIERS	Tools	5	11	[0, 0, 0]	n/a	catFR1	2	R1394E
1214.555	1.0	1226714	REC_WORD	6.256	n/a	SCREWDRIVER	Tools	6	11	[0, 0, 0]	n/a	catFR1	2	R1394E
1215.555	6.098	1227714	REC_WORD_VV	7.256	n/a	<>	n/a	-999	11	[0, 0, 0]	n/a	catFR1	2	R1394E
1221.653	6.876	1233812	REC_WORD_VV	13.354	n/a	<>	n/a	-999	11	[0, 0, 0]	n/a	catFR1	2	R1394E
1228.529	10.067	1240687	REC_WORD	20.23	n/a	FLOOR	Building	-999	11	[0, 0, 0]	n/a	catFR1	2	R1394E
1238.596	1.519	1250759	REC_END	n/a	n/a	n/a	n/a	-999	11	[0, 0, 0]	n/a	catFR1	2	R1394E
1240.115	10.0	1252272	COUNTDOWN_START	n/a	n/a	n/a	n/a	-999	12	[0, 0, 0]	n/a	catFR1	2	R1394E
1250.466	0.0	1262622	COUNTDOWN_END	n/a	n/a	n/a	n/a	-999	12	[0, 0, 0]	n/a	catFR1	2	R1394E
1250.466	2.017	1262622	ENCODING_START	n/a	n/a	n/a	n/a	-999	12	[0, 0, 0]	n/a	catFR1	2	R1394E
1252.483	1.6	1264635	WORD	n/a	wordpools/wordpool_categorized_EN.txt	REFRIGERATOR	Appliances	1	12	[0, 0, 0]	n/a	catFR1	2	R1394E
1254.083	1.0	1266234	WORD_OFF	n/a	n/a	REFRIGERATOR	Appliances	1	12	[0, 0, 0]	n/a	catFR1	2	R1394E
1255.083	1.6	1267241	WORD	n/a	wordpools/wordpool_categorized_EN.txt	FREEZER	Appliances	2	12	[0, 0, 0]	n/a	catFR1	2	R1394E
1256.683	0.9	1268840	WORD_OFF	n/a	n/a	FREEZER	Appliances	2	12	[0, 0, 0]	n/a	catFR1	2	R1394E
1257.583	1.6	1269743	WORD	n/a	wordpools/wordpool_categorized_EN.txt	VIOLIN	Instruments	3	12	[0, 0, 0]	n/a	catFR1	2	R1394E
1259.2	0.966	1271357	WORD_OFF	n/a	n/a	VIOLIN	Instruments	3	12	[0, 0, 0]	n/a	catFR1	2	R1394E
1260.166	1.6	1272320	WORD	n/a	wordpools/wordpool_categorized_EN.txt	BANJO	Instruments	4	12	[0, 0, 0]	n/a	catFR1	2	R1394E
1261.783	0.95	1273934	WORD_OFF	n/a	n/a	BANJO	Instruments	4	12	[0, 0, 0]	n/a	catFR1	2	R1394E
1262.733	1.6	1274881	WORD	n/a	wordpools/wordpool_categorized_EN.txt	ONION	Vegetables	5	12	[0, 0, 0]	n/a	catFR1	2	R1394E
1264.333	0.816	1276495	WORD_OFF	n/a	n/a	ONION	Vegetables	5	12	[0, 0, 0]	n/a	catFR1	2	R1394E
1265.149	1.6	1277309	WORD	n/a	wordpools/wordpool_categorized_EN.txt	CUCUMBER	Vegetables	6	12	[0, 0, 0]	n/a	catFR1	2	R1394E
1266.749	0.817	1278908	WORD_OFF	n/a	n/a	CUCUMBER	Vegetables	6	12	[0, 0, 0]	n/a	catFR1	2	R1394E
1267.566	1.6	1279723	WORD	n/a	wordpools/wordpool_categorized_EN.txt	DRUM	Instruments	7	12	[0, 0, 0]	n/a	catFR1	2	R1394E
1269.166	0.783	1281322	WORD_OFF	n/a	n/a	DRUM	Instruments	7	12	[0, 0, 0]	n/a	catFR1	2	R1394E
1269.949	1.6	1282106	WORD	n/a	wordpools/wordpool_categorized_EN.txt	TUBA	Instruments	8	12	[0, 0, 0]	n/a	catFR1	2	R1394E
1271.566	0.933	1283720	WORD_OFF	n/a	n/a	TUBA	Instruments	8	12	[0, 0, 0]	n/a	catFR1	2	R1394E
1272.499	1.6	1284653	WORD	n/a	wordpools/wordpool_categorized_EN.txt	PEAS	Vegetables	9	12	[0, 0, 0]	n/a	catFR1	2	R1394E
1274.116	0.9	1286267	WORD_OFF	n/a	n/a	PEAS	Vegetables	9	12	[0, 0, 0]	n/a	catFR1	2	R1394E
1275.016	1.6	1287170	WORD	n/a	wordpools/wordpool_categorized_EN.txt	SPINACH	Vegetables	10	12	[0, 0, 0]	n/a	catFR1	2	R1394E
1276.616	0.883	1288769	WORD_OFF	n/a	n/a	SPINACH	Vegetables	10	12	[0, 0, 0]	n/a	catFR1	2	R1394E
1277.499	1.6	1289657	WORD	n/a	wordpools/wordpool_categorized_EN.txt	IRON	Appliances	11	12	[0, 0, 0]	n/a	catFR1	2	R1394E
1279.116	0.933	1291271	WORD_OFF	n/a	n/a	IRON	Appliances	11	12	[0, 0, 0]	n/a	catFR1	2	R1394E
1280.049	1.6	1292204	WORD	n/a	wordpools/wordpool_categorized_EN.txt	MIXER	Appliances	12	12	[0, 0, 0]	n/a	catFR1	2	R1394E
1281.666	0.002	1293818	WORD_OFF	n/a	n/a	MIXER	Appliances	12	12	[0, 0, 0]	n/a	catFR1	2	R1394E
1281.668	0.0	1293818	ENCODING_END	n/a	n/a	n/a	n/a	-999	12	[0, 0, 0]	n/a	catFR1	2	R1394E
1281.668	0.0	1293818	DISTRACT_START	n/a	n/a	n/a	n/a	-999	12	[0, 0, 0]	n/a	catFR1	2	R1394E
1281.666	0.002	1293823	PROB	5.499	n/a	n/a	n/a	-999	12	[1, 1, 5]	7.0	catFR1	2	R1394E
1281.668	5.516	1293825	START	n/a	n/a	n/a	n/a	-999	12	[-999, -999, -999]	n/a	catFR1	2	R1394E
1287.184	5.066	1299340	PROB	5.049	n/a	n/a	n/a	-999	12	[2, 6, 1]	9.0	catFR1	2	R1394E
1292.25	4.683	1304406	PROB	4.666	n/a	n/a	n/a	-999	12	[6, 4, 5]	15.0	catFR1	2	R1394E
1296.933	5.95	1309089	PROB	5.933	n/a	n/a	n/a	-999	12	[4, 2, 1]	7.0	catFR1	2	R1394E
1302.883	0.0	1315035	DISTRACT_END	n/a	n/a	n/a	n/a	-999	12	[0, 0, 0]	n/a	catFR1	2	R1394E
1302.883	1.566	1315039	STOP	n/a	n/a	n/a	n/a	-999	12	[-999, -999, -999]	n/a	catFR1	2	R1394E
1304.449	2.392	1316601	REC_START	n/a	n/a	n/a	n/a	-999	12	[0, 0, 0]	n/a	catFR1	2	R1394E
1306.841	1.556	1318997	REC_WORD	2.392	n/a	REFRIGERATOR	Appliances	1	12	[0, 0, 0]	n/a	catFR1	2	R1394E
1308.397	3.479	1320553	REC_WORD	3.948	n/a	FREEZER	Appliances	2	12	[0, 0, 0]	n/a	catFR1	2	R1394E
1311.876	2.352	1324032	REC_WORD	7.427	n/a	VIOLIN	Instruments	3	12	[0, 0, 0]	n/a	catFR1	2	R1394E
1314.228	4.943	1326383	REC_WORD	9.779	n/a	BANJO	Instruments	4	12	[0, 0, 0]	n/a	catFR1	2	R1394E
1319.171	6.695	1331326	REC_WORD	14.722	n/a	TUBA	Instruments	8	12	[0, 0, 0]	n/a	catFR1	2	R1394E
1325.866	1.0	1338021	REC_WORD	21.417	n/a	CAULIFLOWER	Vegetables	-999	12	[0, 0, 0]	n/a	catFR1	2	R1394E
1326.866	0.66	1339021	REC_WORD_VV	22.417	n/a	<>	n/a	-999	12	[0, 0, 0]	n/a	catFR1	2	R1394E
1327.526	2.318	1339681	REC_WORD	23.077	n/a	BROCCOLI	Vegetables	-999	12	[0, 0, 0]	n/a	catFR1	2	R1394E
1329.844	4.903	1341999	REC_WORD	25.395	n/a	CORN	Vegetables	-999	12	[0, 0, 0]	n/a	catFR1	2	R1394E
1334.747	0.0	1346894	REC_END	n/a	n/a	n/a	n/a	-999	12	[0, 0, 0]	n/a	catFR1	2	R1394E
