onset	duration	sample	trial_type	response_time	stim_file	item_name	category	serialpos	list	test	answer	experiment	session	subject
0.0	7.851	283607	INSTRUCT_START	n/a	n/a	n/a	n/a	-999	-999	[0, 0, 0]	n/a	catFR1	6	R1525J
7.851	46.382	291453	INSTRUCT_END	n/a	n/a	n/a	n/a	-999	-999	[0, 0, 0]	n/a	catFR1	6	R1525J
54.233	10.349	337839	COUNTDOWN_START	n/a	n/a	n/a	n/a	-999	-999	[0, 0, 0]	n/a	catFR1	6	R1525J
64.582	0.0	348184	COUNTDOWN_END	n/a	n/a	n/a	n/a	-999	-999	[0, 0, 0]	n/a	catFR1	6	R1525J
64.582	2.268	348184	ENCODING_START	n/a	n/a	n/a	n/a	-999	-1	[0, 0, 0]	n/a	catFR1	6	R1525J
66.85	1.615	350451	WORD	n/a	n/a	BASEBALL	Toys	1	-1	[0, 0, 0]	n/a	catFR1	6	R1525J
68.465	0.816	352062	WORD_OFF	n/a	n/a	BASEBALL	Toys	1	-1	[0, 0, 0]	n/a	catFR1	6	R1525J
69.281	1.6	352883	WORD	n/a	n/a	BALL	Toys	2	-1	[0, 0, 0]	n/a	catFR1	6	R1525J
70.881	0.834	354479	WORD_OFF	n/a	n/a	BALL	Toys	2	-1	[0, 0, 0]	n/a	catFR1	6	R1525J
71.715	1.6	355322	WORD	n/a	n/a	JEANS	Clothing	3	-1	[0, 0, 0]	n/a	catFR1	6	R1525J
73.315	0.834	356918	WORD_OFF	n/a	n/a	JEANS	Clothing	3	-1	[0, 0, 0]	n/a	catFR1	6	R1525J
74.149	1.615	357746	WORD	n/a	n/a	COAT	Clothing	4	-1	[0, 0, 0]	n/a	catFR1	6	R1525J
75.764	0.801	359364	WORD_OFF	n/a	n/a	COAT	Clothing	4	-1	[0, 0, 0]	n/a	catFR1	6	R1525J
76.565	1.616	360162	WORD	n/a	n/a	KNEE	BodyParts	5	-1	[0, 0, 0]	n/a	catFR1	6	R1525J
78.181	0.984	361781	WORD_OFF	n/a	n/a	KNEE	BodyParts	5	-1	[0, 0, 0]	n/a	catFR1	6	R1525J
79.165	1.618	362766	WORD	n/a	n/a	ARM	BodyParts	6	-1	[0, 0, 0]	n/a	catFR1	6	R1525J
80.783	0.95	364384	WORD_OFF	n/a	n/a	ARM	BodyParts	6	-1	[0, 0, 0]	n/a	catFR1	6	R1525J
81.733	1.615	365331	WORD	n/a	n/a	MARBLES	Toys	7	-1	[0, 0, 0]	n/a	catFR1	6	R1525J
83.348	1.0	366950	WORD_OFF	n/a	n/a	MARBLES	Toys	7	-1	[0, 0, 0]	n/a	catFR1	6	R1525J
84.348	1.618	367949	WORD	n/a	n/a	BLOCKS	Toys	8	-1	[0, 0, 0]	n/a	catFR1	6	R1525J
85.966	0.95	369568	WORD_OFF	n/a	n/a	BLOCKS	Toys	8	-1	[0, 0, 0]	n/a	catFR1	6	R1525J
86.916	1.617	370515	WORD	n/a	n/a	SKIRT	Clothing	9	-1	[0, 0, 0]	n/a	catFR1	6	R1525J
88.533	0.85	372134	WORD_OFF	n/a	n/a	SKIRT	Clothing	9	-1	[0, 0, 0]	n/a	catFR1	6	R1525J
89.383	1.616	372984	WORD	n/a	n/a	BLOUSE	Clothing	10	-1	[0, 0, 0]	n/a	catFR1	6	R1525J
90.999	0.866	374602	WORD_OFF	n/a	n/a	BLOUSE	Clothing	10	-1	[0, 0, 0]	n/a	catFR1	6	R1525J
91.865	1.616	375468	WORD	n/a	n/a	EAR	BodyParts	11	-1	[0, 0, 0]	n/a	catFR1	6	R1525J
93.481	0.868	377079	WORD_OFF	n/a	n/a	EAR	BodyParts	11	-1	[0, 0, 0]	n/a	catFR1	6	R1525J
94.349	1.616	377951	WORD	n/a	n/a	EYE	BodyParts	12	-1	[0, 0, 0]	n/a	catFR1	6	R1525J
95.965	0.001	379559	PROB	0.001	n/a	n/a	n/a	-999	-1	[2, 5, 4]	11	catFR1	6	R1525J
95.966	0.0	379560	START	n/a	n/a	n/a	n/a	-999	-1	[-999, -999, -999]	n/a	catFR1	6	R1525J
95.965	0.001	379562	WORD_OFF	n/a	n/a	EYE	BodyParts	12	-1	[0, 0, 0]	n/a	catFR1	6	R1525J
95.966	0.0	379562	ENCODING_END	n/a	n/a	n/a	n/a	-999	-1	[0, 0, 0]	n/a	catFR1	6	R1525J
95.966	3.917	379562	DISTRACT_START	n/a	n/a	n/a	n/a	-999	-1	[0, 0, 0]	n/a	catFR1	6	R1525J
99.883	8.465	383477	PROB	8.465	n/a	n/a	n/a	-999	-1	[1, 7, 8]	16	catFR1	6	R1525J
108.348	8.4	391942	PROB	8.4	n/a	n/a	n/a	-999	-1	[4, 8, 7]	19	catFR1	6	R1525J
116.748	0.0	400341	STOP	n/a	n/a	n/a	n/a	-999	-1	[-999, -999, -999]	n/a	catFR1	6	R1525J
116.748	1.584	400342	DISTRACT_END	n/a	n/a	n/a	n/a	-999	-1	[0, 0, 0]	n/a	catFR1	6	R1525J
118.332	1.744	401931	REC_START	n/a	n/a	n/a	n/a	-999	-1	[0, 0, 0]	n/a	catFR1	6	R1525J
120.076	3.224	403669	REC_WORD_VV	3.224	n/a	<>	n/a	-999	-1	[0, 0, 0]	n/a	catFR1	6	R1525J
123.3	2.876	406893	REC_WORD	2.876	n/a	ARM	BodyParts	6	-1	[0, 0, 0]	n/a	catFR1	6	R1525J
126.176	1.925	409769	REC_WORD	1.925	n/a	LEG	n/a	-999	-1	[0, 0, 0]	n/a	catFR1	6	R1525J
128.101	1.868	411693	REC_WORD	1.868	n/a	BLOUSE	Clothing	10	-1	[0, 0, 0]	n/a	catFR1	6	R1525J
129.969	2.742	413561	REC_WORD	2.742	n/a	SKIRT	Clothing	9	-1	[0, 0, 0]	n/a	catFR1	6	R1525J
132.711	1.0	416303	REC_WORD	1.0	n/a	BASEBALL	Toys	1	-1	[0, 0, 0]	n/a	catFR1	6	R1525J
133.711	1.279	417303	REC_WORD_VV	1.279	n/a	<>	n/a	-999	-1	[0, 0, 0]	n/a	catFR1	6	R1525J
134.99	3.152	418582	REC_WORD	3.152	n/a	BALL	Toys	2	-1	[0, 0, 0]	n/a	catFR1	6	R1525J
138.142	1.0	421734	REC_WORD_VV	1.0	n/a	<>	n/a	-999	-1	[0, 0, 0]	n/a	catFR1	6	R1525J
139.142	2.093	422734	REC_WORD_VV	2.093	n/a	<>	n/a	-999	-1	[0, 0, 0]	n/a	catFR1	6	R1525J
141.235	0.936	424827	REC_WORD_VV	0.936	n/a	<>	n/a	-999	-1	[0, 0, 0]	n/a	catFR1	6	R1525J
142.171	3.926	425763	REC_WORD	3.926	n/a	COAT	Clothing	4	-1	[0, 0, 0]	n/a	catFR1	6	R1525J
146.097	1.328	429689	REC_WORD	1.328	n/a	SUIT	n/a	-999	-1	[0, 0, 0]	n/a	catFR1	6	R1525J
147.425	0.421	431016	REC_WORD_VV	0.421	n/a	<>	n/a	-999	-1	[0, 0, 0]	n/a	catFR1	6	R1525J
147.846	0.672	431437	REC_WORD	0.672	n/a	SUIT	n/a	-999	-1	[0, 0, 0]	n/a	catFR1	6	R1525J
148.518	7.131	432116	REC_END	n/a	n/a	n/a	n/a	-999	-1	[0, 0, 0]	n/a	catFR1	6	R1525J
155.649	10.349	439246	COUNTDOWN_START	n/a	n/a	n/a	n/a	-999	1	[0, 0, 0]	n/a	catFR1	6	R1525J
165.998	0.0	449592	COUNTDOWN_END	n/a	n/a	n/a	n/a	-999	1	[0, 0, 0]	n/a	catFR1	6	R1525J
165.998	2.134	449599	ENCODING_START	n/a	n/a	n/a	n/a	-999	1	[0, 0, 0]	n/a	catFR1	6	R1525J
168.132	1.616	451725	WORD	n/a	wordpools/wordpool_categorized_EN.txt	CYPRESS	Trees	1	1	[0, 0, 0]	n/a	catFR1	6	R1525J
169.748	0.949	453343	WORD_OFF	n/a	n/a	CYPRESS	Trees	1	1	[0, 0, 0]	n/a	catFR1	6	R1525J
170.697	1.603	454291	WORD	n/a	wordpools/wordpool_categorized_EN.txt	SPRUCE	Trees	2	1	[0, 0, 0]	n/a	catFR1	6	R1525J
172.3	1.014	455894	WORD_OFF	n/a	n/a	SPRUCE	Trees	2	1	[0, 0, 0]	n/a	catFR1	6	R1525J
173.314	1.601	456909	WORD	n/a	wordpools/wordpool_categorized_EN.txt	SPOON	KitchenTools	3	1	[0, 0, 0]	n/a	catFR1	6	R1525J
174.915	0.8	458512	WORD_OFF	n/a	n/a	SPOON	KitchenTools	3	1	[0, 0, 0]	n/a	catFR1	6	R1525J
175.715	1.601	459310	WORD	n/a	wordpools/wordpool_categorized_EN.txt	CORKSCREW	KitchenTools	4	1	[0, 0, 0]	n/a	catFR1	6	R1525J
177.316	0.85	460914	WORD_OFF	n/a	n/a	CORKSCREW	KitchenTools	4	1	[0, 0, 0]	n/a	catFR1	6	R1525J
178.166	1.599	461757	WORD	n/a	wordpools/wordpool_categorized_EN.txt	RUM	Beverages	5	1	[0, 0, 0]	n/a	catFR1	6	R1525J
179.765	0.883	463360	WORD_OFF	n/a	n/a	RUM	Beverages	5	1	[0, 0, 0]	n/a	catFR1	6	R1525J
180.648	1.617	464240	WORD	n/a	wordpools/wordpool_categorized_EN.txt	WATER	Beverages	6	1	[0, 0, 0]	n/a	catFR1	6	R1525J
182.265	0.818	465859	WORD_OFF	n/a	n/a	WATER	Beverages	6	1	[0, 0, 0]	n/a	catFR1	6	R1525J
183.083	1.6	466679	WORD	n/a	wordpools/wordpool_categorized_EN.txt	WILLOW	Trees	7	1	[0, 0, 0]	n/a	catFR1	6	R1525J
184.683	0.882	468276	WORD_OFF	n/a	n/a	WILLOW	Trees	7	1	[0, 0, 0]	n/a	catFR1	6	R1525J
185.565	1.6	469156	WORD	n/a	wordpools/wordpool_categorized_EN.txt	HICKORY	Trees	8	1	[0, 0, 0]	n/a	catFR1	6	R1525J
187.165	0.934	470759	WORD_OFF	n/a	n/a	HICKORY	Trees	8	1	[0, 0, 0]	n/a	catFR1	6	R1525J
188.099	1.616	471692	WORD	n/a	wordpools/wordpool_categorized_EN.txt	SPATULA	KitchenTools	9	1	[0, 0, 0]	n/a	catFR1	6	R1525J
189.715	0.85	473310	WORD_OFF	n/a	n/a	SPATULA	KitchenTools	9	1	[0, 0, 0]	n/a	catFR1	6	R1525J
190.565	1.6	474160	WORD	n/a	wordpools/wordpool_categorized_EN.txt	GRATER	KitchenTools	10	1	[0, 0, 0]	n/a	catFR1	6	R1525J
192.165	0.882	475757	WORD_OFF	n/a	n/a	GRATER	KitchenTools	10	1	[0, 0, 0]	n/a	catFR1	6	R1525J
193.047	1.601	476644	WORD	n/a	wordpools/wordpool_categorized_EN.txt	COLA	Beverages	11	1	[0, 0, 0]	n/a	catFR1	6	R1525J
194.648	0.967	478240	WORD_OFF	n/a	n/a	COLA	Beverages	11	1	[0, 0, 0]	n/a	catFR1	6	R1525J
195.615	1.618	479210	WORD	n/a	wordpools/wordpool_categorized_EN.txt	JUICE	Beverages	12	1	[0, 0, 0]	n/a	catFR1	6	R1525J
197.233	0.0	480822	START	n/a	n/a	n/a	n/a	-999	1	[-999, -999, -999]	n/a	catFR1	6	R1525J
197.233	0.0	480822	PROB	0.0	n/a	n/a	n/a	-999	1	[5, 4, 2]	11	catFR1	6	R1525J
197.232	0.001	480828	WORD_OFF	n/a	n/a	JUICE	Beverages	12	1	[0, 0, 0]	n/a	catFR1	6	R1525J
197.233	0.0	480828	ENCODING_END	n/a	n/a	n/a	n/a	-999	1	[0, 0, 0]	n/a	catFR1	6	R1525J
197.233	4.049	480828	DISTRACT_START	n/a	n/a	n/a	n/a	-999	1	[0, 0, 0]	n/a	catFR1	6	R1525J
201.282	8.451	484871	PROB	8.451	n/a	n/a	n/a	-999	1	[6, 4, 7]	17	catFR1	6	R1525J
209.733	5.749	493321	PROB	5.749	n/a	n/a	n/a	-999	1	[4, 4, 6]	14	catFR1	6	R1525J
215.482	4.599	499070	PROB	4.599	n/a	n/a	n/a	-999	1	[5, 2, 6]	13	catFR1	6	R1525J
220.081	0.0	503669	STOP	n/a	n/a	n/a	n/a	-999	1	[-999, -999, -999]	n/a	catFR1	6	R1525J
220.081	1.7	503674	DISTRACT_END	n/a	n/a	n/a	n/a	-999	1	[0, 0, 0]	n/a	catFR1	6	R1525J
221.781	1.887	505375	REC_START	n/a	n/a	n/a	n/a	-999	1	[0, 0, 0]	n/a	catFR1	6	R1525J
223.668	1.0	507255	REC_WORD	1.0	n/a	CYPRESS	Trees	1	1	[0, 0, 0]	n/a	catFR1	6	R1525J
224.668	1.579	508255	REC_WORD_VV	1.579	n/a	<>	n/a	-999	1	[0, 0, 0]	n/a	catFR1	6	R1525J
226.247	1.0	509834	REC_WORD	1.0	n/a	SPRUCE	Trees	2	1	[0, 0, 0]	n/a	catFR1	6	R1525J
227.247	2.429	510834	REC_WORD_VV	2.429	n/a	<>	n/a	-999	1	[0, 0, 0]	n/a	catFR1	6	R1525J
229.676	4.56	513263	REC_WORD_VV	4.56	n/a	<>	n/a	-999	1	[0, 0, 0]	n/a	catFR1	6	R1525J
234.236	4.89	517823	REC_WORD_VV	4.89	n/a	<>	n/a	-999	1	[0, 0, 0]	n/a	catFR1	6	R1525J
239.126	1.498	522713	REC_WORD	1.498	n/a	LEG	n/a	-999	1	[0, 0, 0]	n/a	catFR1	6	R1525J
240.624	3.035	524211	REC_WORD	3.035	n/a	KNEE	BodyParts	-999	1	[0, 0, 0]	n/a	catFR1	6	R1525J
243.659	4.315	527245	REC_WORD	4.315	n/a	SKIRT	Clothing	-999	1	[0, 0, 0]	n/a	catFR1	6	R1525J
247.974	3.985	531560	REC_WORD_VV	3.985	n/a	<>	n/a	-999	1	[0, 0, 0]	n/a	catFR1	6	R1525J
251.959	2.456	535552	REC_END	n/a	n/a	n/a	n/a	-999	1	[0, 0, 0]	n/a	catFR1	6	R1525J
254.415	10.349	538006	COUNTDOWN_START	n/a	n/a	n/a	n/a	-999	2	[0, 0, 0]	n/a	catFR1	6	R1525J
264.764	0.001	548351	COUNTDOWN_END	n/a	n/a	n/a	n/a	-999	2	[0, 0, 0]	n/a	catFR1	6	R1525J
264.765	2.001	548359	ENCODING_START	n/a	n/a	n/a	n/a	-999	2	[0, 0, 0]	n/a	catFR1	6	R1525J
266.766	1.615	550358	WORD	n/a	wordpools/wordpool_categorized_EN.txt	LEG	BodyParts	1	2	[0, 0, 0]	n/a	catFR1	6	R1525J
268.381	0.834	551969	WORD_OFF	n/a	n/a	LEG	BodyParts	1	2	[0, 0, 0]	n/a	catFR1	6	R1525J
269.215	1.6	552804	WORD	n/a	wordpools/wordpool_categorized_EN.txt	NOSE	BodyParts	2	2	[0, 0, 0]	n/a	catFR1	6	R1525J
270.815	0.917	554408	WORD_OFF	n/a	n/a	NOSE	BodyParts	2	2	[0, 0, 0]	n/a	catFR1	6	R1525J
271.732	1.616	555325	WORD	n/a	wordpools/wordpool_categorized_EN.txt	TELEVISION	Electronics	3	2	[0, 0, 0]	n/a	catFR1	6	R1525J
273.348	0.8	556936	WORD_OFF	n/a	n/a	TELEVISION	Electronics	3	2	[0, 0, 0]	n/a	catFR1	6	R1525J
274.148	1.618	557734	WORD	n/a	wordpools/wordpool_categorized_EN.txt	COMPUTER	Electronics	4	2	[0, 0, 0]	n/a	catFR1	6	R1525J
275.766	0.917	559353	WORD_OFF	n/a	n/a	COMPUTER	Electronics	4	2	[0, 0, 0]	n/a	catFR1	6	R1525J
276.683	1.614	560270	WORD	n/a	wordpools/wordpool_categorized_EN.txt	SANDER	Tools	5	2	[0, 0, 0]	n/a	catFR1	6	R1525J
278.297	1.001	561889	WORD_OFF	n/a	n/a	SANDER	Tools	5	2	[0, 0, 0]	n/a	catFR1	6	R1525J
279.298	1.601	562888	WORD	n/a	wordpools/wordpool_categorized_EN.txt	CROWBAR	Tools	6	2	[0, 0, 0]	n/a	catFR1	6	R1525J
280.899	0.899	564485	WORD_OFF	n/a	n/a	CROWBAR	Tools	6	2	[0, 0, 0]	n/a	catFR1	6	R1525J
281.798	1.6	565387	WORD	n/a	wordpools/wordpool_categorized_EN.txt	STEREO	Electronics	7	2	[0, 0, 0]	n/a	catFR1	6	R1525J
283.398	0.799	566991	WORD_OFF	n/a	n/a	STEREO	Electronics	7	2	[0, 0, 0]	n/a	catFR1	6	R1525J
284.197	1.6	567789	WORD	n/a	wordpools/wordpool_categorized_EN.txt	PHONE	Electronics	8	2	[0, 0, 0]	n/a	catFR1	6	R1525J
285.797	0.8	569385	WORD_OFF	n/a	n/a	PHONE	Electronics	8	2	[0, 0, 0]	n/a	catFR1	6	R1525J
286.597	1.601	570183	WORD	n/a	wordpools/wordpool_categorized_EN.txt	FOOT	BodyParts	9	2	[0, 0, 0]	n/a	catFR1	6	R1525J
288.198	0.766	571787	WORD_OFF	n/a	n/a	FOOT	BodyParts	9	2	[0, 0, 0]	n/a	catFR1	6	R1525J
288.964	1.601	572555	WORD	n/a	wordpools/wordpool_categorized_EN.txt	HAND	BodyParts	10	2	[0, 0, 0]	n/a	catFR1	6	R1525J
290.565	0.849	574151	WORD_OFF	n/a	n/a	HAND	BodyParts	10	2	[0, 0, 0]	n/a	catFR1	6	R1525J
291.414	1.601	575001	WORD	n/a	wordpools/wordpool_categorized_EN.txt	SHOVEL	Tools	11	2	[0, 0, 0]	n/a	catFR1	6	R1525J
293.015	0.8	576605	WORD_OFF	n/a	n/a	SHOVEL	Tools	11	2	[0, 0, 0]	n/a	catFR1	6	R1525J
293.815	1.617	577403	WORD	n/a	wordpools/wordpool_categorized_EN.txt	WRENCH	Tools	12	2	[0, 0, 0]	n/a	catFR1	6	R1525J
295.432	0.003	579016	PROB	0.003	n/a	n/a	n/a	-999	2	[3, 4, 1]	8	catFR1	6	R1525J
295.435	0.0	579019	START	n/a	n/a	n/a	n/a	-999	2	[-999, -999, -999]	n/a	catFR1	6	R1525J
295.432	0.003	579021	WORD_OFF	n/a	n/a	WRENCH	Tools	12	2	[0, 0, 0]	n/a	catFR1	6	R1525J
295.435	0.0	579021	ENCODING_END	n/a	n/a	n/a	n/a	-999	2	[0, 0, 0]	n/a	catFR1	6	R1525J
295.435	6.781	579029	DISTRACT_START	n/a	n/a	n/a	n/a	-999	2	[0, 0, 0]	n/a	catFR1	6	R1525J
302.216	7.683	585799	PROB	7.683	n/a	n/a	n/a	-999	2	[7, 7, 8]	22	catFR1	6	R1525J
309.899	4.9	593482	PROB	4.9	n/a	n/a	n/a	-999	2	[2, 4, 7]	13	catFR1	6	R1525J
314.799	6.366	598382	PROB	6.366	n/a	n/a	n/a	-999	2	[4, 4, 7]	15	catFR1	6	R1525J
321.165	0.0	604747	STOP	n/a	n/a	n/a	n/a	-999	2	[-999, -999, -999]	n/a	catFR1	6	R1525J
321.165	1.683	604754	DISTRACT_END	n/a	n/a	n/a	n/a	-999	2	[0, 0, 0]	n/a	catFR1	6	R1525J
322.848	0.807	606432	REC_START	n/a	n/a	n/a	n/a	-999	2	[0, 0, 0]	n/a	catFR1	6	R1525J
323.655	1.08	607237	REC_WORD_VV	1.08	n/a	<>	n/a	-999	2	[0, 0, 0]	n/a	catFR1	6	R1525J
324.735	1.54	608317	REC_WORD_VV	1.54	n/a	<>	n/a	-999	2	[0, 0, 0]	n/a	catFR1	6	R1525J
326.275	2.627	609857	REC_WORD	2.627	n/a	LEG	BodyParts	1	2	[0, 0, 0]	n/a	catFR1	6	R1525J
328.902	1.841	612484	REC_WORD	1.841	n/a	WRENCH	Tools	12	2	[0, 0, 0]	n/a	catFR1	6	R1525J
330.743	3.576	614325	REC_WORD	3.576	n/a	CROWBAR	Tools	6	2	[0, 0, 0]	n/a	catFR1	6	R1525J
334.319	2.674	617901	REC_WORD_VV	2.674	n/a	<>	n/a	-999	2	[0, 0, 0]	n/a	catFR1	6	R1525J
336.993	2.972	620574	REC_WORD	2.972	n/a	DRINK	n/a	-999	2	[0, 0, 0]	n/a	catFR1	6	R1525J
339.965	5.27	623546	REC_WORD_VV	5.27	n/a	<>	n/a	-999	2	[0, 0, 0]	n/a	catFR1	6	R1525J
345.235	6.682	628816	REC_WORD	6.682	n/a	SANDER	Tools	5	2	[0, 0, 0]	n/a	catFR1	6	R1525J
351.917	1.118	635498	REC_WORD_VV	1.118	n/a	<>	n/a	-999	2	[0, 0, 0]	n/a	catFR1	6	R1525J
353.035	1.732	636617	REC_END	n/a	n/a	n/a	n/a	-999	2	[0, 0, 0]	n/a	catFR1	6	R1525J
354.767	10.347	638355	COUNTDOWN_START	n/a	n/a	n/a	n/a	-999	3	[0, 0, 0]	n/a	catFR1	6	R1525J
365.114	0.0	648700	COUNTDOWN_END	n/a	n/a	n/a	n/a	-999	3	[0, 0, 0]	n/a	catFR1	6	R1525J
365.114	2.135	648700	ENCODING_START	n/a	n/a	n/a	n/a	-999	3	[0, 0, 0]	n/a	catFR1	6	R1525J
367.249	1.616	650833	WORD	n/a	wordpools/wordpool_categorized_EN.txt	ROOF	Building	1	3	[0, 0, 0]	n/a	catFR1	6	R1525J
368.865	0.934	652452	WORD_OFF	n/a	n/a	ROOF	Building	1	3	[0, 0, 0]	n/a	catFR1	6	R1525J
369.799	1.615	653384	WORD	n/a	wordpools/wordpool_categorized_EN.txt	FOUNDATION	Building	2	3	[0, 0, 0]	n/a	catFR1	6	R1525J
371.414	0.835	654995	WORD_OFF	n/a	n/a	FOUNDATION	Building	2	3	[0, 0, 0]	n/a	catFR1	6	R1525J
372.249	1.616	655831	WORD	n/a	wordpools/wordpool_categorized_EN.txt	DRESS	Clothing	3	3	[0, 0, 0]	n/a	catFR1	6	R1525J
373.865	0.833	657449	WORD_OFF	n/a	n/a	DRESS	Clothing	3	3	[0, 0, 0]	n/a	catFR1	6	R1525J
374.698	1.601	658284	WORD	n/a	wordpools/wordpool_categorized_EN.txt	PANTS	Clothing	4	3	[0, 0, 0]	n/a	catFR1	6	R1525J
376.299	1.0	659888	WORD_OFF	n/a	n/a	PANTS	Clothing	4	3	[0, 0, 0]	n/a	catFR1	6	R1525J
377.299	1.616	660880	WORD	n/a	wordpools/wordpool_categorized_EN.txt	DOLL	Toys	5	3	[0, 0, 0]	n/a	catFR1	6	R1525J
378.915	0.85	662499	WORD_OFF	n/a	n/a	DOLL	Toys	5	3	[0, 0, 0]	n/a	catFR1	6	R1525J
379.765	1.618	663349	WORD	n/a	wordpools/wordpool_categorized_EN.txt	FRISBEE	Toys	6	3	[0, 0, 0]	n/a	catFR1	6	R1525J
381.383	0.815	664967	WORD_OFF	n/a	n/a	FRISBEE	Toys	6	3	[0, 0, 0]	n/a	catFR1	6	R1525J
382.198	1.6	665780	WORD	n/a	wordpools/wordpool_categorized_EN.txt	CEILING	Building	7	3	[0, 0, 0]	n/a	catFR1	6	R1525J
383.798	0.983	667384	WORD_OFF	n/a	n/a	CEILING	Building	7	3	[0, 0, 0]	n/a	catFR1	6	R1525J
384.781	1.617	668368	WORD	n/a	wordpools/wordpool_categorized_EN.txt	BATHROOM	Building	8	3	[0, 0, 0]	n/a	catFR1	6	R1525J
386.398	1.001	669980	WORD_OFF	n/a	n/a	BATHROOM	Building	8	3	[0, 0, 0]	n/a	catFR1	6	R1525J
387.399	1.616	670986	WORD	n/a	wordpools/wordpool_categorized_EN.txt	DOLLHOUSE	Toys	9	3	[0, 0, 0]	n/a	catFR1	6	R1525J
389.015	0.767	672598	WORD_OFF	n/a	n/a	DOLLHOUSE	Toys	9	3	[0, 0, 0]	n/a	catFR1	6	R1525J
389.782	1.617	673366	WORD	n/a	wordpools/wordpool_categorized_EN.txt	BARBIE	Toys	10	3	[0, 0, 0]	n/a	catFR1	6	R1525J
391.399	0.916	674984	WORD_OFF	n/a	n/a	BARBIE	Toys	10	3	[0, 0, 0]	n/a	catFR1	6	R1525J
392.315	1.615	675902	WORD	n/a	wordpools/wordpool_categorized_EN.txt	UNDERWEAR	Clothing	11	3	[0, 0, 0]	n/a	catFR1	6	R1525J
393.93	0.935	677513	WORD_OFF	n/a	n/a	UNDERWEAR	Clothing	11	3	[0, 0, 0]	n/a	catFR1	6	R1525J
394.865	1.601	678445	WORD	n/a	wordpools/wordpool_categorized_EN.txt	SHORTS	Clothing	12	3	[0, 0, 0]	n/a	catFR1	6	R1525J
396.466	0.0	680044	PROB	0.0	n/a	n/a	n/a	-999	3	[5, 7, 3]	15	catFR1	6	R1525J
396.466	0.0	680044	START	n/a	n/a	n/a	n/a	-999	3	[-999, -999, -999]	n/a	catFR1	6	R1525J
396.465	0.001	680049	WORD_OFF	n/a	n/a	SHORTS	Clothing	12	3	[0, 0, 0]	n/a	catFR1	6	R1525J
396.466	0.0	680049	ENCODING_END	n/a	n/a	n/a	n/a	-999	3	[0, 0, 0]	n/a	catFR1	6	R1525J
396.466	8.766	680049	DISTRACT_START	n/a	n/a	n/a	n/a	-999	3	[0, 0, 0]	n/a	catFR1	6	R1525J
405.232	4.45	688810	PROB	4.45	n/a	n/a	n/a	-999	3	[2, 7, 3]	12	catFR1	6	R1525J
409.682	4.951	693260	PROB	4.951	n/a	n/a	n/a	-999	3	[5, 2, 3]	10	catFR1	6	R1525J
414.633	6.782	698210	PROB	6.782	n/a	n/a	n/a	-999	3	[4, 5, 3]	12	catFR1	6	R1525J
421.415	0.0	704992	STOP	n/a	n/a	n/a	n/a	-999	3	[-999, -999, -999]	n/a	catFR1	6	R1525J
421.415	1.666	704998	DISTRACT_END	n/a	n/a	n/a	n/a	-999	3	[0, 0, 0]	n/a	catFR1	6	R1525J
423.081	1.693	706661	REC_START	n/a	n/a	n/a	n/a	-999	3	[0, 0, 0]	n/a	catFR1	6	R1525J
424.774	1.328	708351	REC_WORD_VV	1.328	n/a	<>	n/a	-999	3	[0, 0, 0]	n/a	catFR1	6	R1525J
426.102	2.526	709679	REC_WORD_VV	2.526	n/a	<>	n/a	-999	3	[0, 0, 0]	n/a	catFR1	6	R1525J
428.628	2.472	712205	REC_WORD	2.472	n/a	SUIT	n/a	-999	3	[0, 0, 0]	n/a	catFR1	6	R1525J
431.1	1.0	714676	REC_WORD	1.0	n/a	FRISBEE	Toys	6	3	[0, 0, 0]	n/a	catFR1	6	R1525J
432.1	3.789	715676	REC_WORD_VV	3.789	n/a	<>	n/a	-999	3	[0, 0, 0]	n/a	catFR1	6	R1525J
435.889	3.441	719465	REC_WORD_VV	3.441	n/a	<>	n/a	-999	3	[0, 0, 0]	n/a	catFR1	6	R1525J
439.33	1.709	722906	REC_WORD	1.709	n/a	FOUNDATION	Building	2	3	[0, 0, 0]	n/a	catFR1	6	R1525J
441.039	2.812	724615	REC_WORD	2.812	n/a	ROOF	Building	1	3	[0, 0, 0]	n/a	catFR1	6	R1525J
443.851	2.336	727427	REC_WORD	2.336	n/a	WINDOW	n/a	-999	3	[0, 0, 0]	n/a	catFR1	6	R1525J
446.187	3.351	729763	REC_WORD	3.351	n/a	DRESS	Clothing	3	3	[0, 0, 0]	n/a	catFR1	6	R1525J
449.538	3.737	733113	REC_WORD_VV	3.737	n/a	<>	n/a	-999	3	[0, 0, 0]	n/a	catFR1	6	R1525J
453.275	2.123	736854	REC_END	n/a	n/a	n/a	n/a	-999	3	[0, 0, 0]	n/a	catFR1	6	R1525J
455.398	10.351	738979	COUNTDOWN_START	n/a	n/a	n/a	n/a	-999	4	[0, 0, 0]	n/a	catFR1	6	R1525J
465.749	0.0	749332	COUNTDOWN_END	n/a	n/a	n/a	n/a	-999	4	[0, 0, 0]	n/a	catFR1	6	R1525J
465.749	1.883	749332	ENCODING_START	n/a	n/a	n/a	n/a	-999	4	[0, 0, 0]	n/a	catFR1	6	R1525J
467.632	1.6	751212	WORD	n/a	wordpools/wordpool_categorized_EN.txt	VACUUM	Appliances	1	4	[0, 0, 0]	n/a	catFR1	6	R1525J
469.232	0.917	752815	WORD_OFF	n/a	n/a	VACUUM	Appliances	1	4	[0, 0, 0]	n/a	catFR1	6	R1525J
470.149	1.599	753725	WORD	n/a	wordpools/wordpool_categorized_EN.txt	WASHER	Appliances	2	4	[0, 0, 0]	n/a	catFR1	6	R1525J
471.748	0.851	755329	WORD_OFF	n/a	n/a	WASHER	Appliances	2	4	[0, 0, 0]	n/a	catFR1	6	R1525J
472.599	1.617	756179	WORD	n/a	wordpools/wordpool_categorized_EN.txt	PETUNIA	Flowers	3	4	[0, 0, 0]	n/a	catFR1	6	R1525J
474.216	0.8	757798	WORD_OFF	n/a	n/a	PETUNIA	Flowers	3	4	[0, 0, 0]	n/a	catFR1	6	R1525J
475.016	1.616	758596	WORD	n/a	wordpools/wordpool_categorized_EN.txt	CARNATION	Flowers	4	4	[0, 0, 0]	n/a	catFR1	6	R1525J
476.632	0.933	760214	WORD_OFF	n/a	n/a	CARNATION	Flowers	4	4	[0, 0, 0]	n/a	catFR1	6	R1525J
477.565	1.617	761147	WORD	n/a	wordpools/wordpool_categorized_EN.txt	VAN	Vehicles	5	4	[0, 0, 0]	n/a	catFR1	6	R1525J
479.182	0.882	762758	WORD_OFF	n/a	n/a	VAN	Vehicles	5	4	[0, 0, 0]	n/a	catFR1	6	R1525J
480.064	1.6	763645	WORD	n/a	wordpools/wordpool_categorized_EN.txt	TRUCK	Vehicles	6	4	[0, 0, 0]	n/a	catFR1	6	R1525J
481.664	0.95	765241	WORD_OFF	n/a	n/a	TRUCK	Vehicles	6	4	[0, 0, 0]	n/a	catFR1	6	R1525J
482.614	1.601	766196	WORD	n/a	wordpools/wordpool_categorized_EN.txt	LILY	Flowers	7	4	[0, 0, 0]	n/a	catFR1	6	R1525J
484.215	0.817	767792	WORD_OFF	n/a	n/a	LILY	Flowers	7	4	[0, 0, 0]	n/a	catFR1	6	R1525J
485.032	1.617	768613	WORD	n/a	wordpools/wordpool_categorized_EN.txt	DAFFODIL	Flowers	8	4	[0, 0, 0]	n/a	catFR1	6	R1525J
486.649	0.816	770231	WORD_OFF	n/a	n/a	DAFFODIL	Flowers	8	4	[0, 0, 0]	n/a	catFR1	6	R1525J
487.465	1.6	771044	WORD	n/a	wordpools/wordpool_categorized_EN.txt	CAR	Vehicles	9	4	[0, 0, 0]	n/a	catFR1	6	R1525J
489.065	0.767	772640	WORD_OFF	n/a	n/a	CAR	Vehicles	9	4	[0, 0, 0]	n/a	catFR1	6	R1525J
489.832	1.616	773409	WORD	n/a	wordpools/wordpool_categorized_EN.txt	JEEP	Vehicles	10	4	[0, 0, 0]	n/a	catFR1	6	R1525J
491.448	0.917	775027	WORD_OFF	n/a	n/a	JEEP	Vehicles	10	4	[0, 0, 0]	n/a	catFR1	6	R1525J
492.365	1.601	775945	WORD	n/a	wordpools/wordpool_categorized_EN.txt	MIXER	Appliances	11	4	[0, 0, 0]	n/a	catFR1	6	R1525J
493.966	0.782	777541	WORD_OFF	n/a	n/a	MIXER	Appliances	11	4	[0, 0, 0]	n/a	catFR1	6	R1525J
494.748	1.601	778339	WORD	n/a	wordpools/wordpool_categorized_EN.txt	TOASTER	Appliances	12	4	[0, 0, 0]	n/a	catFR1	6	R1525J
496.349	0.0	779922	START	n/a	n/a	n/a	n/a	-999	4	[-999, -999, -999]	n/a	catFR1	6	R1525J
496.349	0.0	779922	PROB	0.0	n/a	n/a	n/a	-999	4	[2, 2, 4]	8	catFR1	6	R1525J
496.348	0.001	779927	WORD_OFF	n/a	n/a	TOASTER	Appliances	12	4	[0, 0, 0]	n/a	catFR1	6	R1525J
496.349	0.0	779927	ENCODING_END	n/a	n/a	n/a	n/a	-999	4	[0, 0, 0]	n/a	catFR1	6	R1525J
496.349	5.266	779927	DISTRACT_START	n/a	n/a	n/a	n/a	-999	4	[0, 0, 0]	n/a	catFR1	6	R1525J
501.615	6.283	785188	PROB	6.283	n/a	n/a	n/a	-999	4	[1, 5, 7]	13	catFR1	6	R1525J
507.898	6.734	791470	PROB	6.734	n/a	n/a	n/a	-999	4	[7, 8, 1]	16	catFR1	6	R1525J
514.632	3.266	798204	PROB	3.266	n/a	n/a	n/a	-999	4	[1, 7, 1]	9	catFR1	6	R1525J
517.898	0.0	801470	STOP	n/a	n/a	n/a	n/a	-999	4	[-999, -999, -999]	n/a	catFR1	6	R1525J
517.898	1.833	801475	DISTRACT_END	n/a	n/a	n/a	n/a	-999	4	[0, 0, 0]	n/a	catFR1	6	R1525J
519.731	1.579	803310	REC_START	n/a	n/a	n/a	n/a	-999	4	[0, 0, 0]	n/a	catFR1	6	R1525J
521.31	1.484	804882	REC_WORD	1.484	n/a	JEEP	Vehicles	10	4	[0, 0, 0]	n/a	catFR1	6	R1525J
522.794	1.889	806366	REC_WORD	1.889	n/a	VAN	Vehicles	5	4	[0, 0, 0]	n/a	catFR1	6	R1525J
524.683	2.098	808254	REC_WORD	2.098	n/a	TRUCK	Vehicles	6	4	[0, 0, 0]	n/a	catFR1	6	R1525J
526.781	3.09	810352	REC_WORD	3.09	n/a	CAR	Vehicles	9	4	[0, 0, 0]	n/a	catFR1	6	R1525J
529.871	4.226	813442	REC_WORD	4.226	n/a	PETUNIA	Flowers	3	4	[0, 0, 0]	n/a	catFR1	6	R1525J
534.097	0.462	817668	REC_WORD_VV	0.462	n/a	<>	n/a	-999	4	[0, 0, 0]	n/a	catFR1	6	R1525J
534.559	4.098	818130	REC_WORD	4.098	n/a	CARNATION	Flowers	4	4	[0, 0, 0]	n/a	catFR1	6	R1525J
538.657	3.66	822228	REC_WORD_VV	3.66	n/a	<>	n/a	-999	4	[0, 0, 0]	n/a	catFR1	6	R1525J
542.317	1.0	825888	REC_WORD	1.0	n/a	DAFFODIL	Flowers	8	4	[0, 0, 0]	n/a	catFR1	6	R1525J
543.317	2.873	826887	REC_WORD_VV	2.873	n/a	<>	n/a	-999	4	[0, 0, 0]	n/a	catFR1	6	R1525J
546.19	3.749	829760	REC_WORD_VV	3.749	n/a	<>	n/a	-999	4	[0, 0, 0]	n/a	catFR1	6	R1525J
549.939	1.844	833510	REC_END	n/a	n/a	n/a	n/a	-999	4	[0, 0, 0]	n/a	catFR1	6	R1525J
551.783	10.349	835360	COUNTDOWN_START	n/a	n/a	n/a	n/a	-999	5	[0, 0, 0]	n/a	catFR1	6	R1525J
562.132	0.0	845705	COUNTDOWN_END	n/a	n/a	n/a	n/a	-999	5	[0, 0, 0]	n/a	catFR1	6	R1525J
562.132	2.034	845713	ENCODING_START	n/a	n/a	n/a	n/a	-999	5	[0, 0, 0]	n/a	catFR1	6	R1525J
564.166	1.616	847741	WORD	n/a	wordpools/wordpool_categorized_EN.txt	JELLYFISH	OceanAnimals	1	5	[0, 0, 0]	n/a	catFR1	6	R1525J
565.782	1.0	849360	WORD_OFF	n/a	n/a	JELLYFISH	OceanAnimals	1	5	[0, 0, 0]	n/a	catFR1	6	R1525J
566.782	1.601	850359	WORD	n/a	wordpools/wordpool_categorized_EN.txt	CRAB	OceanAnimals	2	5	[0, 0, 0]	n/a	catFR1	6	R1525J
568.383	0.915	851956	WORD_OFF	n/a	n/a	CRAB	OceanAnimals	2	5	[0, 0, 0]	n/a	catFR1	6	R1525J
569.298	1.6	852873	WORD	n/a	wordpools/wordpool_categorized_EN.txt	DAISY	Flowers	3	5	[0, 0, 0]	n/a	catFR1	6	R1525J
570.898	0.784	854469	WORD_OFF	n/a	n/a	DAISY	Flowers	3	5	[0, 0, 0]	n/a	catFR1	6	R1525J
571.682	1.6	855252	WORD	n/a	wordpools/wordpool_categorized_EN.txt	TULIP	Flowers	4	5	[0, 0, 0]	n/a	catFR1	6	R1525J
573.282	0.833	856856	WORD_OFF	n/a	n/a	TULIP	Flowers	4	5	[0, 0, 0]	n/a	catFR1	6	R1525J
574.115	1.601	857691	WORD	n/a	wordpools/wordpool_categorized_EN.txt	STAIRS	Building	5	5	[0, 0, 0]	n/a	catFR1	6	R1525J
575.716	0.799	859287	WORD_OFF	n/a	n/a	STAIRS	Building	5	5	[0, 0, 0]	n/a	catFR1	6	R1525J
576.515	1.6	860085	WORD	n/a	wordpools/wordpool_categorized_EN.txt	ATTIC	Building	6	5	[0, 0, 0]	n/a	catFR1	6	R1525J
578.115	0.934	861689	WORD_OFF	n/a	n/a	ATTIC	Building	6	5	[0, 0, 0]	n/a	catFR1	6	R1525J
579.049	1.599	862621	WORD	n/a	wordpools/wordpool_categorized_EN.txt	LILAC	Flowers	7	5	[0, 0, 0]	n/a	catFR1	6	R1525J
580.648	0.768	864225	WORD_OFF	n/a	n/a	LILAC	Flowers	7	5	[0, 0, 0]	n/a	catFR1	6	R1525J
581.416	1.615	864986	WORD	n/a	wordpools/wordpool_categorized_EN.txt	ORCHID	Flowers	8	5	[0, 0, 0]	n/a	catFR1	6	R1525J
583.031	0.966	866604	WORD_OFF	n/a	n/a	ORCHID	Flowers	8	5	[0, 0, 0]	n/a	catFR1	6	R1525J
583.997	1.602	867574	WORD	n/a	wordpools/wordpool_categorized_EN.txt	DOOR	Building	9	5	[0, 0, 0]	n/a	catFR1	6	R1525J
585.599	0.898	869170	WORD_OFF	n/a	n/a	DOOR	Building	9	5	[0, 0, 0]	n/a	catFR1	6	R1525J
586.497	1.601	870073	WORD	n/a	wordpools/wordpool_categorized_EN.txt	WINDOW	Building	10	5	[0, 0, 0]	n/a	catFR1	6	R1525J
588.098	0.834	871669	WORD_OFF	n/a	n/a	WINDOW	Building	10	5	[0, 0, 0]	n/a	catFR1	6	R1525J
588.932	1.616	872504	WORD	n/a	wordpools/wordpool_categorized_EN.txt	LOBSTER	OceanAnimals	11	5	[0, 0, 0]	n/a	catFR1	6	R1525J
590.548	0.834	874123	WORD_OFF	n/a	n/a	LOBSTER	OceanAnimals	11	5	[0, 0, 0]	n/a	catFR1	6	R1525J
591.382	1.601	874958	WORD	n/a	wordpools/wordpool_categorized_EN.txt	OCTOPUS	OceanAnimals	12	5	[0, 0, 0]	n/a	catFR1	6	R1525J
592.983	0.0	876551	START	n/a	n/a	n/a	n/a	-999	5	[-999, -999, -999]	n/a	catFR1	6	R1525J
592.983	0.0	876551	PROB	0.0	n/a	n/a	n/a	-999	5	[1, 5, 7]	13	catFR1	6	R1525J
592.982	0.001	876554	WORD_OFF	n/a	n/a	OCTOPUS	OceanAnimals	12	5	[0, 0, 0]	n/a	catFR1	6	R1525J
592.983	0.0	876554	ENCODING_END	n/a	n/a	n/a	n/a	-999	5	[0, 0, 0]	n/a	catFR1	6	R1525J
592.983	7.081	876554	DISTRACT_START	n/a	n/a	n/a	n/a	-999	5	[0, 0, 0]	n/a	catFR1	6	R1525J
600.064	5.201	883631	PROB	5.201	n/a	n/a	n/a	-999	5	[5, 8, 2]	15	catFR1	6	R1525J
605.265	5.267	888832	PROB	5.267	n/a	n/a	n/a	-999	5	[5, 2, 6]	13	catFR1	6	R1525J
610.532	5.915	894099	PROB	5.915	n/a	n/a	n/a	-999	5	[3, 1, 2]	6	catFR1	6	R1525J
616.447	0.0	900014	STOP	n/a	n/a	n/a	n/a	-999	5	[-999, -999, -999]	n/a	catFR1	6	R1525J
616.447	1.884	900019	DISTRACT_END	n/a	n/a	n/a	n/a	-999	5	[0, 0, 0]	n/a	catFR1	6	R1525J
618.331	3.667	901906	REC_START	n/a	n/a	n/a	n/a	-999	5	[0, 0, 0]	n/a	catFR1	6	R1525J
621.998	4.165	905564	REC_WORD	4.165	n/a	DAFFODIL	Flowers	-999	5	[0, 0, 0]	n/a	catFR1	6	R1525J
626.163	3.437	909729	REC_WORD_VV	3.437	n/a	<>	n/a	-999	5	[0, 0, 0]	n/a	catFR1	6	R1525J
629.6	4.327	913166	REC_WORD	4.327	n/a	LILAC	Flowers	7	5	[0, 0, 0]	n/a	catFR1	6	R1525J
633.927	1.0	917493	REC_WORD_VV	1.0	n/a	<>	n/a	-999	5	[0, 0, 0]	n/a	catFR1	6	R1525J
634.927	10.961	918493	REC_WORD_VV	10.961	n/a	<>	n/a	-999	5	[0, 0, 0]	n/a	catFR1	6	R1525J
645.888	2.663	929453	REC_WORD_VV	2.663	n/a	<>	n/a	-999	5	[0, 0, 0]	n/a	catFR1	6	R1525J
648.551	2.799	932121	REC_END	n/a	n/a	n/a	n/a	-999	5	[0, 0, 0]	n/a	catFR1	6	R1525J
651.35	10.349	934918	COUNTDOWN_START	n/a	n/a	n/a	n/a	-999	6	[0, 0, 0]	n/a	catFR1	6	R1525J
661.699	0.0	945271	COUNTDOWN_END	n/a	n/a	n/a	n/a	-999	6	[0, 0, 0]	n/a	catFR1	6	R1525J
661.699	1.984	945271	ENCODING_START	n/a	n/a	n/a	n/a	-999	6	[0, 0, 0]	n/a	catFR1	6	R1525J
663.683	1.615	947255	WORD	n/a	wordpools/wordpool_categorized_EN.txt	FOREST	Landscapes	1	6	[0, 0, 0]	n/a	catFR1	6	R1525J
665.298	0.766	948866	WORD_OFF	n/a	n/a	FOREST	Landscapes	1	6	[0, 0, 0]	n/a	catFR1	6	R1525J
666.064	1.601	949634	WORD	n/a	wordpools/wordpool_categorized_EN.txt	WOODS	Landscapes	2	6	[0, 0, 0]	n/a	catFR1	6	R1525J
667.665	0.932	951230	WORD_OFF	n/a	n/a	WOODS	Landscapes	2	6	[0, 0, 0]	n/a	catFR1	6	R1525J
668.597	1.601	952162	WORD	n/a	wordpools/wordpool_categorized_EN.txt	SHOES	Clothing	3	6	[0, 0, 0]	n/a	catFR1	6	R1525J
670.198	0.949	953766	WORD_OFF	n/a	n/a	SHOES	Clothing	3	6	[0, 0, 0]	n/a	catFR1	6	R1525J
671.147	1.602	954713	WORD	n/a	wordpools/wordpool_categorized_EN.txt	SHIRT	Clothing	4	6	[0, 0, 0]	n/a	catFR1	6	R1525J
672.749	0.967	956317	WORD_OFF	n/a	n/a	SHIRT	Clothing	4	6	[0, 0, 0]	n/a	catFR1	6	R1525J
673.716	1.616	957287	WORD	n/a	wordpools/wordpool_categorized_EN.txt	GUITAR	Instruments	5	6	[0, 0, 0]	n/a	catFR1	6	R1525J
675.332	0.932	958898	WORD_OFF	n/a	n/a	GUITAR	Instruments	5	6	[0, 0, 0]	n/a	catFR1	6	R1525J
676.264	1.601	959830	WORD	n/a	wordpools/wordpool_categorized_EN.txt	PIANO	Instruments	6	6	[0, 0, 0]	n/a	catFR1	6	R1525J
677.865	0.884	961433	WORD_OFF	n/a	n/a	PIANO	Instruments	6	6	[0, 0, 0]	n/a	catFR1	6	R1525J
678.749	1.616	962314	WORD	n/a	wordpools/wordpool_categorized_EN.txt	STREAM	Landscapes	7	6	[0, 0, 0]	n/a	catFR1	6	R1525J
680.365	0.766	963932	WORD_OFF	n/a	n/a	STREAM	Landscapes	7	6	[0, 0, 0]	n/a	catFR1	6	R1525J
681.131	1.601	964700	WORD	n/a	wordpools/wordpool_categorized_EN.txt	LAKE	Landscapes	8	6	[0, 0, 0]	n/a	catFR1	6	R1525J
682.732	0.883	966297	WORD_OFF	n/a	n/a	LAKE	Landscapes	8	6	[0, 0, 0]	n/a	catFR1	6	R1525J
683.615	1.617	967184	WORD	n/a	wordpools/wordpool_categorized_EN.txt	JACKET	Clothing	9	6	[0, 0, 0]	n/a	catFR1	6	R1525J
685.232	0.8	968803	WORD_OFF	n/a	n/a	JACKET	Clothing	9	6	[0, 0, 0]	n/a	catFR1	6	R1525J
686.032	1.616	969601	WORD	n/a	wordpools/wordpool_categorized_EN.txt	SOCKS	Clothing	10	6	[0, 0, 0]	n/a	catFR1	6	R1525J
687.648	0.984	971219	WORD_OFF	n/a	n/a	SOCKS	Clothing	10	6	[0, 0, 0]	n/a	catFR1	6	R1525J
688.632	1.6	972196	WORD	n/a	wordpools/wordpool_categorized_EN.txt	VIOLIN	Instruments	11	6	[0, 0, 0]	n/a	catFR1	6	R1525J
690.232	1.0	973800	WORD_OFF	n/a	n/a	VIOLIN	Instruments	11	6	[0, 0, 0]	n/a	catFR1	6	R1525J
691.232	1.6	974799	WORD	n/a	wordpools/wordpool_categorized_EN.txt	DRUM	Instruments	12	6	[0, 0, 0]	n/a	catFR1	6	R1525J
692.832	0.001	976395	PROB	0.001	n/a	n/a	n/a	-999	6	[8, 6, 3]	17	catFR1	6	R1525J
692.833	0.0	976396	START	n/a	n/a	n/a	n/a	-999	6	[-999, -999, -999]	n/a	catFR1	6	R1525J
692.832	0.001	976403	WORD_OFF	n/a	n/a	DRUM	Instruments	12	6	[0, 0, 0]	n/a	catFR1	6	R1525J
692.833	0.0	976403	ENCODING_END	n/a	n/a	n/a	n/a	-999	6	[0, 0, 0]	n/a	catFR1	6	R1525J
692.833	6.55	976403	DISTRACT_START	n/a	n/a	n/a	n/a	-999	6	[0, 0, 0]	n/a	catFR1	6	R1525J
699.383	3.184	982945	PROB	3.184	n/a	n/a	n/a	-999	6	[4, 4, 8]	16	catFR1	6	R1525J
702.567	2.9	986129	PROB	2.9	n/a	n/a	n/a	-999	6	[7, 2, 2]	11	catFR1	6	R1525J
705.467	9.166	989029	PROB	9.166	n/a	n/a	n/a	-999	6	[6, 8, 3]	17	catFR1	6	R1525J
714.633	0.0	998194	STOP	n/a	n/a	n/a	n/a	-999	6	[-999, -999, -999]	n/a	catFR1	6	R1525J
714.633	1.8	998197	DISTRACT_END	n/a	n/a	n/a	n/a	-999	6	[0, 0, 0]	n/a	catFR1	6	R1525J
716.433	1.194	1000002	REC_START	n/a	n/a	n/a	n/a	-999	6	[0, 0, 0]	n/a	catFR1	6	R1525J
717.627	0.664	1001188	REC_WORD_VV	0.664	n/a	<>	n/a	-999	6	[0, 0, 0]	n/a	catFR1	6	R1525J
718.291	2.056	1001852	REC_WORD	2.056	n/a	GUITAR	Instruments	5	6	[0, 0, 0]	n/a	catFR1	6	R1525J
720.347	1.546	1003908	REC_WORD	1.546	n/a	VIOLIN	Instruments	11	6	[0, 0, 0]	n/a	catFR1	6	R1525J
721.893	3.905	1005454	REC_WORD	3.905	n/a	DRUM	Instruments	12	6	[0, 0, 0]	n/a	catFR1	6	R1525J
725.798	1.894	1009359	REC_WORD_VV	1.894	n/a	<>	n/a	-999	6	[0, 0, 0]	n/a	catFR1	6	R1525J
727.692	1.479	1011253	REC_WORD	1.479	n/a	FOREST	Landscapes	1	6	[0, 0, 0]	n/a	catFR1	6	R1525J
729.171	1.72	1012732	REC_WORD	1.72	n/a	WOODS	Landscapes	2	6	[0, 0, 0]	n/a	catFR1	6	R1525J
730.891	1.937	1014452	REC_WORD	1.937	n/a	STREAM	Landscapes	7	6	[0, 0, 0]	n/a	catFR1	6	R1525J
732.828	3.314	1016388	REC_WORD	3.314	n/a	LAKE	Landscapes	8	6	[0, 0, 0]	n/a	catFR1	6	R1525J
736.142	10.501	1019702	REC_WORD_VV	10.501	n/a	<>	n/a	-999	6	[0, 0, 0]	n/a	catFR1	6	R1525J
746.643	2.421	1030210	REC_END	n/a	n/a	n/a	n/a	-999	6	[0, 0, 0]	n/a	catFR1	6	R1525J
749.064	10.351	1032626	COUNTDOWN_START	n/a	n/a	n/a	n/a	-999	7	[0, 0, 0]	n/a	catFR1	6	R1525J
759.415	0.0	1042979	COUNTDOWN_END	n/a	n/a	n/a	n/a	-999	7	[0, 0, 0]	n/a	catFR1	6	R1525J
759.415	2.133	1042979	ENCODING_START	n/a	n/a	n/a	n/a	-999	7	[0, 0, 0]	n/a	catFR1	6	R1525J
761.548	1.6	1045112	WORD	n/a	wordpools/wordpool_categorized_EN.txt	WALL	Building	1	7	[0, 0, 0]	n/a	catFR1	6	R1525J
763.148	0.951	1046708	WORD_OFF	n/a	n/a	WALL	Building	1	7	[0, 0, 0]	n/a	catFR1	6	R1525J
764.099	1.6	1047663	WORD	n/a	wordpools/wordpool_categorized_EN.txt	ROOM	Building	2	7	[0, 0, 0]	n/a	catFR1	6	R1525J
765.699	0.983	1049266	WORD_OFF	n/a	n/a	ROOM	Building	2	7	[0, 0, 0]	n/a	catFR1	6	R1525J
766.682	1.601	1050244	WORD	n/a	wordpools/wordpool_categorized_EN.txt	TEA	Beverages	3	7	[0, 0, 0]	n/a	catFR1	6	R1525J
768.283	0.882	1051847	WORD_OFF	n/a	n/a	TEA	Beverages	3	7	[0, 0, 0]	n/a	catFR1	6	R1525J
769.165	1.6	1052727	WORD	n/a	wordpools/wordpool_categorized_EN.txt	SODA	Beverages	4	7	[0, 0, 0]	n/a	catFR1	6	R1525J
770.765	0.784	1054331	WORD_OFF	n/a	n/a	SODA	Beverages	4	7	[0, 0, 0]	n/a	catFR1	6	R1525J
771.549	1.615	1055114	WORD	n/a	wordpools/wordpool_categorized_EN.txt	PUDDING	Desserts	5	7	[0, 0, 0]	n/a	catFR1	6	R1525J
773.164	0.901	1056725	WORD_OFF	n/a	n/a	PUDDING	Desserts	5	7	[0, 0, 0]	n/a	catFR1	6	R1525J
774.065	1.6	1057628	WORD	n/a	wordpools/wordpool_categorized_EN.txt	COBBLER	Desserts	6	7	[0, 0, 0]	n/a	catFR1	6	R1525J
775.665	0.817	1059231	WORD_OFF	n/a	n/a	COBBLER	Desserts	6	7	[0, 0, 0]	n/a	catFR1	6	R1525J
776.482	1.616	1060044	WORD	n/a	wordpools/wordpool_categorized_EN.txt	FLOOR	Building	7	7	[0, 0, 0]	n/a	catFR1	6	R1525J
778.098	0.766	1061663	WORD_OFF	n/a	n/a	FLOOR	Building	7	7	[0, 0, 0]	n/a	catFR1	6	R1525J
778.864	1.601	1062424	WORD	n/a	wordpools/wordpool_categorized_EN.txt	HALLWAY	Building	8	7	[0, 0, 0]	n/a	catFR1	6	R1525J
780.465	0.834	1064035	WORD_OFF	n/a	n/a	HALLWAY	Building	8	7	[0, 0, 0]	n/a	catFR1	6	R1525J
781.299	1.616	1064863	WORD	n/a	wordpools/wordpool_categorized_EN.txt	MILK	Beverages	9	7	[0, 0, 0]	n/a	catFR1	6	R1525J
782.915	0.832	1066474	WORD_OFF	n/a	n/a	MILK	Beverages	9	7	[0, 0, 0]	n/a	catFR1	6	R1525J
783.747	1.602	1067309	WORD	n/a	wordpools/wordpool_categorized_EN.txt	COFFEE	Beverages	10	7	[0, 0, 0]	n/a	catFR1	6	R1525J
785.349	0.983	1068913	WORD_OFF	n/a	n/a	COFFEE	Beverages	10	7	[0, 0, 0]	n/a	catFR1	6	R1525J
786.332	1.6	1069897	WORD	n/a	wordpools/wordpool_categorized_EN.txt	PASTRY	Desserts	11	7	[0, 0, 0]	n/a	catFR1	6	R1525J
787.932	0.8	1071493	WORD_OFF	n/a	n/a	PASTRY	Desserts	11	7	[0, 0, 0]	n/a	catFR1	6	R1525J
788.732	1.601	1072291	WORD	n/a	wordpools/wordpool_categorized_EN.txt	MOUSSE	Desserts	12	7	[0, 0, 0]	n/a	catFR1	6	R1525J
790.333	0.0	1073890	START	n/a	n/a	n/a	n/a	-999	7	[-999, -999, -999]	n/a	catFR1	6	R1525J
790.333	0.0	1073890	PROB	0.0	n/a	n/a	n/a	-999	7	[7, 1, 1]	9	catFR1	6	R1525J
790.332	0.001	1073895	WORD_OFF	n/a	n/a	MOUSSE	Desserts	12	7	[0, 0, 0]	n/a	catFR1	6	R1525J
790.333	0.0	1073895	ENCODING_END	n/a	n/a	n/a	n/a	-999	7	[0, 0, 0]	n/a	catFR1	6	R1525J
790.333	7.066	1073895	DISTRACT_START	n/a	n/a	n/a	n/a	-999	7	[0, 0, 0]	n/a	catFR1	6	R1525J
797.399	3.999	1080956	PROB	3.999	n/a	n/a	n/a	-999	7	[5, 1, 5]	11	catFR1	6	R1525J
801.398	7.885	1084955	PROB	7.885	n/a	n/a	n/a	-999	7	[4, 6, 8]	18	catFR1	6	R1525J
809.283	13.815	1092839	PROB	13.815	n/a	n/a	n/a	-999	7	[8, 6, 7]	21	catFR1	6	R1525J
823.098	0.0	1106654	STOP	n/a	n/a	n/a	n/a	-999	7	[-999, -999, -999]	n/a	catFR1	6	R1525J
823.098	1.617	1106661	DISTRACT_END	n/a	n/a	n/a	n/a	-999	7	[0, 0, 0]	n/a	catFR1	6	R1525J
824.715	2.612	1108279	REC_START	n/a	n/a	n/a	n/a	-999	7	[0, 0, 0]	n/a	catFR1	6	R1525J
827.327	2.425	1110882	REC_WORD	2.425	n/a	PASTRY	Desserts	11	7	[0, 0, 0]	n/a	catFR1	6	R1525J
829.752	2.192	1113307	REC_WORD	2.192	n/a	DESSERT	n/a	-999	7	[0, 0, 0]	n/a	catFR1	6	R1525J
831.944	3.89	1115499	REC_WORD	3.89	n/a	COBBLER	Desserts	6	7	[0, 0, 0]	n/a	catFR1	6	R1525J
835.834	8.058	1119389	REC_WORD_VV	8.058	n/a	<>	n/a	-999	7	[0, 0, 0]	n/a	catFR1	6	R1525J
843.892	6.548	1127447	REC_WORD	6.548	n/a	LAKE	Landscapes	-999	7	[0, 0, 0]	n/a	catFR1	6	R1525J
850.44	4.492	1133994	REC_WORD_VV	4.492	n/a	<>	n/a	-999	7	[0, 0, 0]	n/a	catFR1	6	R1525J
854.932	3.835	1138494	REC_END	n/a	n/a	n/a	n/a	-999	7	[0, 0, 0]	n/a	catFR1	6	R1525J
858.767	10.349	1142328	COUNTDOWN_START	n/a	n/a	n/a	n/a	-999	8	[0, 0, 0]	n/a	catFR1	6	R1525J
869.116	0.0	1152673	COUNTDOWN_END	n/a	n/a	n/a	n/a	-999	8	[0, 0, 0]	n/a	catFR1	6	R1525J
869.116	2.117	1152673	ENCODING_START	n/a	n/a	n/a	n/a	-999	8	[0, 0, 0]	n/a	catFR1	6	R1525J
871.233	1.6	1154791	WORD	n/a	wordpools/wordpool_categorized_EN.txt	SPIDER	Insects	1	8	[0, 0, 0]	n/a	catFR1	6	R1525J
872.833	0.85	1156388	WORD_OFF	n/a	n/a	SPIDER	Insects	1	8	[0, 0, 0]	n/a	catFR1	6	R1525J
873.683	1.6	1157238	WORD	n/a	wordpools/wordpool_categorized_EN.txt	GNAT	Insects	2	8	[0, 0, 0]	n/a	catFR1	6	R1525J
875.283	0.884	1158841	WORD_OFF	n/a	n/a	GNAT	Insects	2	8	[0, 0, 0]	n/a	catFR1	6	R1525J
876.167	1.601	1159722	WORD	n/a	wordpools/wordpool_categorized_EN.txt	SCOOTER	Vehicles	3	8	[0, 0, 0]	n/a	catFR1	6	R1525J
877.768	0.865	1161325	WORD_OFF	n/a	n/a	SCOOTER	Vehicles	3	8	[0, 0, 0]	n/a	catFR1	6	R1525J
878.633	1.6	1162190	WORD	n/a	wordpools/wordpool_categorized_EN.txt	MOTORCYCLE	Vehicles	4	8	[0, 0, 0]	n/a	catFR1	6	R1525J
880.233	0.784	1163794	WORD_OFF	n/a	n/a	MOTORCYCLE	Vehicles	4	8	[0, 0, 0]	n/a	catFR1	6	R1525J
881.017	1.599	1164577	WORD	n/a	wordpools/wordpool_categorized_EN.txt	DENIM	Fabric	5	8	[0, 0, 0]	n/a	catFR1	6	R1525J
882.616	0.967	1166173	WORD_OFF	n/a	n/a	DENIM	Fabric	5	8	[0, 0, 0]	n/a	catFR1	6	R1525J
883.583	1.617	1167143	WORD	n/a	wordpools/wordpool_categorized_EN.txt	VELVET	Fabric	6	8	[0, 0, 0]	n/a	catFR1	6	R1525J
885.2	0.799	1168754	WORD_OFF	n/a	n/a	VELVET	Fabric	6	8	[0, 0, 0]	n/a	catFR1	6	R1525J
885.999	1.601	1169552	WORD	n/a	wordpools/wordpool_categorized_EN.txt	BUS	Vehicles	7	8	[0, 0, 0]	n/a	catFR1	6	R1525J
887.6	1.0	1171156	WORD_OFF	n/a	n/a	BUS	Vehicles	7	8	[0, 0, 0]	n/a	catFR1	6	R1525J
888.6	1.6	1172155	WORD	n/a	wordpools/wordpool_categorized_EN.txt	PLANE	Vehicles	8	8	[0, 0, 0]	n/a	catFR1	6	R1525J
890.2	0.833	1173759	WORD_OFF	n/a	n/a	PLANE	Vehicles	8	8	[0, 0, 0]	n/a	catFR1	6	R1525J
891.033	1.6	1174594	WORD	n/a	wordpools/wordpool_categorized_EN.txt	NYLON	Fabric	9	8	[0, 0, 0]	n/a	catFR1	6	R1525J
892.633	0.799	1176190	WORD_OFF	n/a	n/a	NYLON	Fabric	9	8	[0, 0, 0]	n/a	catFR1	6	R1525J
893.432	1.616	1176988	WORD	n/a	wordpools/wordpool_categorized_EN.txt	SATIN	Fabric	10	8	[0, 0, 0]	n/a	catFR1	6	R1525J
895.048	0.918	1178607	WORD_OFF	n/a	n/a	SATIN	Fabric	10	8	[0, 0, 0]	n/a	catFR1	6	R1525J
895.966	1.617	1179524	WORD	n/a	wordpools/wordpool_categorized_EN.txt	CRICKET	Insects	11	8	[0, 0, 0]	n/a	catFR1	6	R1525J
897.583	1.0	1181143	WORD_OFF	n/a	n/a	CRICKET	Insects	11	8	[0, 0, 0]	n/a	catFR1	6	R1525J
898.583	1.6	1182142	WORD	n/a	wordpools/wordpool_categorized_EN.txt	BEE	Insects	12	8	[0, 0, 0]	n/a	catFR1	6	R1525J
900.183	0.002	1183735	PROB	0.002	n/a	n/a	n/a	-999	8	[1, 7, 5]	13	catFR1	6	R1525J
900.185	0.0	1183737	START	n/a	n/a	n/a	n/a	-999	8	[-999, -999, -999]	n/a	catFR1	6	R1525J
900.183	0.002	1183738	WORD_OFF	n/a	n/a	BEE	Insects	12	8	[0, 0, 0]	n/a	catFR1	6	R1525J
900.185	0.0	1183746	ENCODING_END	n/a	n/a	n/a	n/a	-999	8	[0, 0, 0]	n/a	catFR1	6	R1525J
900.185	6.148	1183746	DISTRACT_START	n/a	n/a	n/a	n/a	-999	8	[0, 0, 0]	n/a	catFR1	6	R1525J
906.333	5.233	1189884	PROB	5.233	n/a	n/a	n/a	-999	8	[6, 5, 2]	13	catFR1	6	R1525J
911.566	5.233	1195117	PROB	5.233	n/a	n/a	n/a	-999	8	[4, 3, 1]	8	catFR1	6	R1525J
916.799	4.217	1200350	PROB	4.217	n/a	n/a	n/a	-999	8	[7, 6, 4]	17	catFR1	6	R1525J
921.016	0.0	1204566	STOP	n/a	n/a	n/a	n/a	-999	8	[-999, -999, -999]	n/a	catFR1	6	R1525J
921.016	1.683	1204570	DISTRACT_END	n/a	n/a	n/a	n/a	-999	8	[0, 0, 0]	n/a	catFR1	6	R1525J
922.699	0.977	1206256	REC_START	n/a	n/a	n/a	n/a	-999	8	[0, 0, 0]	n/a	catFR1	6	R1525J
923.676	0.357	1207226	REC_WORD_VV	0.357	n/a	<>	n/a	-999	8	[0, 0, 0]	n/a	catFR1	6	R1525J
924.033	1.716	1207583	REC_WORD	1.716	n/a	SPIDER	Insects	1	8	[0, 0, 0]	n/a	catFR1	6	R1525J
925.749	1.997	1209299	REC_WORD	1.997	n/a	GNAT	Insects	2	8	[0, 0, 0]	n/a	catFR1	6	R1525J
927.746	8.384	1211296	REC_WORD_VV	8.384	n/a	<>	n/a	-999	8	[0, 0, 0]	n/a	catFR1	6	R1525J
936.13	1.833	1219680	REC_WORD_VV	1.833	n/a	<>	n/a	-999	8	[0, 0, 0]	n/a	catFR1	6	R1525J
937.963	1.051	1221513	REC_WORD	1.051	n/a	NYLON	Fabric	9	8	[0, 0, 0]	n/a	catFR1	6	R1525J
939.014	4.399	1222563	REC_WORD	4.399	n/a	VELVET	Fabric	6	8	[0, 0, 0]	n/a	catFR1	6	R1525J
943.413	9.509	1226962	REC_WORD	9.509	n/a	SATIN	Fabric	10	8	[0, 0, 0]	n/a	catFR1	6	R1525J
952.922	2.361	1236478	REC_END	n/a	n/a	n/a	n/a	-999	8	[0, 0, 0]	n/a	catFR1	6	R1525J
955.283	10.349	1238835	COUNTDOWN_START	n/a	n/a	n/a	n/a	-999	9	[0, 0, 0]	n/a	catFR1	6	R1525J
965.632	0.001	1249188	COUNTDOWN_END	n/a	n/a	n/a	n/a	-999	9	[0, 0, 0]	n/a	catFR1	6	R1525J
965.633	1.967	1249188	ENCODING_START	n/a	n/a	n/a	n/a	-999	9	[0, 0, 0]	n/a	catFR1	6	R1525J
967.6	1.615	1251150	WORD	n/a	wordpools/wordpool_categorized_EN.txt	TORNADO	Weather	1	9	[0, 0, 0]	n/a	catFR1	6	R1525J
969.215	0.784	1252768	WORD_OFF	n/a	n/a	TORNADO	Weather	1	9	[0, 0, 0]	n/a	catFR1	6	R1525J
969.999	1.601	1253551	WORD	n/a	wordpools/wordpool_categorized_EN.txt	THUNDER	Weather	2	9	[0, 0, 0]	n/a	catFR1	6	R1525J
971.6	0.998	1255155	WORD_OFF	n/a	n/a	THUNDER	Weather	2	9	[0, 0, 0]	n/a	catFR1	6	R1525J
972.598	1.602	1256154	WORD	n/a	wordpools/wordpool_categorized_EN.txt	PIGEON	Birds	3	9	[0, 0, 0]	n/a	catFR1	6	R1525J
974.2	0.815	1257750	WORD_OFF	n/a	n/a	PIGEON	Birds	3	9	[0, 0, 0]	n/a	catFR1	6	R1525J
975.015	1.601	1258571	WORD	n/a	wordpools/wordpool_categorized_EN.txt	FINCH	Birds	4	9	[0, 0, 0]	n/a	catFR1	6	R1525J
976.616	0.934	1260167	WORD_OFF	n/a	n/a	FINCH	Birds	4	9	[0, 0, 0]	n/a	catFR1	6	R1525J
977.55	1.6	1261099	WORD	n/a	wordpools/wordpool_categorized_EN.txt	MARIGOLD	Flowers	5	9	[0, 0, 0]	n/a	catFR1	6	R1525J
979.15	0.867	1262703	WORD_OFF	n/a	n/a	MARIGOLD	Flowers	5	9	[0, 0, 0]	n/a	catFR1	6	R1525J
980.017	1.6	1263568	WORD	n/a	wordpools/wordpool_categorized_EN.txt	VIOLET	Flowers	6	9	[0, 0, 0]	n/a	catFR1	6	R1525J
981.617	1.0	1265172	WORD_OFF	n/a	n/a	VIOLET	Flowers	6	9	[0, 0, 0]	n/a	catFR1	6	R1525J
982.617	1.616	1266171	WORD	n/a	wordpools/wordpool_categorized_EN.txt	DOVE	Birds	7	9	[0, 0, 0]	n/a	catFR1	6	R1525J
984.233	0.833	1267782	WORD_OFF	n/a	n/a	DOVE	Birds	7	9	[0, 0, 0]	n/a	catFR1	6	R1525J
985.066	1.6	1268618	WORD	n/a	wordpools/wordpool_categorized_EN.txt	CROW	Birds	8	9	[0, 0, 0]	n/a	catFR1	6	R1525J
986.666	0.817	1270221	WORD_OFF	n/a	n/a	CROW	Birds	8	9	[0, 0, 0]	n/a	catFR1	6	R1525J
987.483	1.6	1271034	WORD	n/a	wordpools/wordpool_categorized_EN.txt	THUNDERSTORM	Weather	9	9	[0, 0, 0]	n/a	catFR1	6	R1525J
989.083	0.867	1272638	WORD_OFF	n/a	n/a	THUNDERSTORM	Weather	9	9	[0, 0, 0]	n/a	catFR1	6	R1525J
989.95	1.6	1273503	WORD	n/a	wordpools/wordpool_categorized_EN.txt	WIND	Weather	10	9	[0, 0, 0]	n/a	catFR1	6	R1525J
991.55	0.766	1275099	WORD_OFF	n/a	n/a	WIND	Weather	10	9	[0, 0, 0]	n/a	catFR1	6	R1525J
992.316	1.617	1275868	WORD	n/a	wordpools/wordpool_categorized_EN.txt	SUNFLOWER	Flowers	11	9	[0, 0, 0]	n/a	catFR1	6	R1525J
993.933	0.983	1277486	WORD_OFF	n/a	n/a	SUNFLOWER	Flowers	11	9	[0, 0, 0]	n/a	catFR1	6	R1525J
994.916	1.601	1278471	WORD	n/a	wordpools/wordpool_categorized_EN.txt	ROSE	Flowers	12	9	[0, 0, 0]	n/a	catFR1	6	R1525J
996.517	0.003	1280063	PROB	0.003	n/a	n/a	n/a	-999	9	[4, 5, 7]	16	catFR1	6	R1525J
996.52	0.0	1280066	START	n/a	n/a	n/a	n/a	-999	9	[-999, -999, -999]	n/a	catFR1	6	R1525J
996.516	0.004	1280067	WORD_OFF	n/a	n/a	ROSE	Flowers	12	9	[0, 0, 0]	n/a	catFR1	6	R1525J
996.52	0.0	1280074	ENCODING_END	n/a	n/a	n/a	n/a	-999	9	[0, 0, 0]	n/a	catFR1	6	R1525J
996.52	4.979	1280074	DISTRACT_START	n/a	n/a	n/a	n/a	-999	9	[0, 0, 0]	n/a	catFR1	6	R1525J
1001.499	12.051	1285045	PROB	12.051	n/a	n/a	n/a	-999	9	[5, 4, 8]	17	catFR1	6	R1525J
1013.55	4.131	1297096	PROB	4.131	n/a	n/a	n/a	-999	9	[8, 5, 5]	18	catFR1	6	R1525J
1017.681	0.0	1301226	STOP	n/a	n/a	n/a	n/a	-999	9	[-999, -999, -999]	n/a	catFR1	6	R1525J
1017.681	1.635	1301234	DISTRACT_END	n/a	n/a	n/a	n/a	-999	9	[0, 0, 0]	n/a	catFR1	6	R1525J
1019.316	1.948	1302868	REC_START	n/a	n/a	n/a	n/a	-999	9	[0, 0, 0]	n/a	catFR1	6	R1525J
1021.264	1.0	1304809	REC_WORD_VV	1.0	n/a	<>	n/a	-999	9	[0, 0, 0]	n/a	catFR1	6	R1525J
1022.264	1.357	1305809	REC_WORD_VV	1.357	n/a	<>	n/a	-999	9	[0, 0, 0]	n/a	catFR1	6	R1525J
1023.621	11.942	1307166	REC_WORD_VV	11.942	n/a	<>	n/a	-999	9	[0, 0, 0]	n/a	catFR1	6	R1525J
1035.563	1.0	1319107	REC_WORD_VV	1.0	n/a	<>	n/a	-999	9	[0, 0, 0]	n/a	catFR1	6	R1525J
1036.563	3.372	1320107	REC_WORD_VV	3.372	n/a	<>	n/a	-999	9	[0, 0, 0]	n/a	catFR1	6	R1525J
1039.935	3.11	1323479	REC_WORD	3.11	n/a	DAFFODIL	Flowers	-999	9	[0, 0, 0]	n/a	catFR1	6	R1525J
1043.045	5.05	1326589	REC_WORD_VV	5.05	n/a	<>	n/a	-999	9	[0, 0, 0]	n/a	catFR1	6	R1525J
1048.095	1.446	1331639	REC_WORD_VV	1.446	n/a	<>	n/a	-999	9	[0, 0, 0]	n/a	catFR1	6	R1525J
1049.541	2.79	1333090	REC_END	n/a	n/a	n/a	n/a	-999	9	[0, 0, 0]	n/a	catFR1	6	R1525J
1052.331	10.351	1335880	COUNTDOWN_START	n/a	n/a	n/a	n/a	-999	10	[0, 0, 0]	n/a	catFR1	6	R1525J
1062.682	0.0	1346232	COUNTDOWN_END	n/a	n/a	n/a	n/a	-999	10	[0, 0, 0]	n/a	catFR1	6	R1525J
1062.682	1.95	1346232	ENCODING_START	n/a	n/a	n/a	n/a	-999	10	[0, 0, 0]	n/a	catFR1	6	R1525J
1064.632	1.6	1348179	WORD	n/a	wordpools/wordpool_categorized_EN.txt	BULL	FarmAnimals	1	10	[0, 0, 0]	n/a	catFR1	6	R1525J
1066.232	1.0	1349783	WORD_OFF	n/a	n/a	BULL	FarmAnimals	1	10	[0, 0, 0]	n/a	catFR1	6	R1525J
1067.232	1.6	1350782	WORD	n/a	wordpools/wordpool_categorized_EN.txt	CALF	FarmAnimals	2	10	[0, 0, 0]	n/a	catFR1	6	R1525J
1068.832	0.967	1352378	WORD_OFF	n/a	n/a	CALF	FarmAnimals	2	10	[0, 0, 0]	n/a	catFR1	6	R1525J
1069.799	1.615	1353348	WORD	n/a	wordpools/wordpool_categorized_EN.txt	GORILLA	Zoo	3	10	[0, 0, 0]	n/a	catFR1	6	R1525J
1071.414	0.85	1354959	WORD_OFF	n/a	n/a	GORILLA	Zoo	3	10	[0, 0, 0]	n/a	catFR1	6	R1525J
1072.264	1.601	1355809	WORD	n/a	wordpools/wordpool_categorized_EN.txt	ZEBRA	Zoo	4	10	[0, 0, 0]	n/a	catFR1	6	R1525J
1073.865	0.916	1357413	WORD_OFF	n/a	n/a	ZEBRA	Zoo	4	10	[0, 0, 0]	n/a	catFR1	6	R1525J
1074.781	1.617	1358330	WORD	n/a	wordpools/wordpool_categorized_EN.txt	PIE	Desserts	5	10	[0, 0, 0]	n/a	catFR1	6	R1525J
1076.398	0.851	1359949	WORD_OFF	n/a	n/a	PIE	Desserts	5	10	[0, 0, 0]	n/a	catFR1	6	R1525J
1077.249	1.616	1360799	WORD	n/a	wordpools/wordpool_categorized_EN.txt	CAKE	Desserts	6	10	[0, 0, 0]	n/a	catFR1	6	R1525J
1078.865	0.999	1362410	WORD_OFF	n/a	n/a	CAKE	Desserts	6	10	[0, 0, 0]	n/a	catFR1	6	R1525J
1079.864	1.601	1363410	WORD	n/a	wordpools/wordpool_categorized_EN.txt	LAMB	FarmAnimals	7	10	[0, 0, 0]	n/a	catFR1	6	R1525J
1081.465	0.966	1365013	WORD_OFF	n/a	n/a	LAMB	FarmAnimals	7	10	[0, 0, 0]	n/a	catFR1	6	R1525J
1082.431	1.601	1365975	WORD	n/a	wordpools/wordpool_categorized_EN.txt	GOAT	FarmAnimals	8	10	[0, 0, 0]	n/a	catFR1	6	R1525J
1084.032	0.966	1367579	WORD_OFF	n/a	n/a	GOAT	FarmAnimals	8	10	[0, 0, 0]	n/a	catFR1	6	R1525J
1084.998	1.617	1368541	WORD	n/a	wordpools/wordpool_categorized_EN.txt	GIRAFFE	Zoo	9	10	[0, 0, 0]	n/a	catFR1	6	R1525J
1086.615	0.766	1370160	WORD_OFF	n/a	n/a	GIRAFFE	Zoo	9	10	[0, 0, 0]	n/a	catFR1	6	R1525J
1087.381	1.601	1370928	WORD	n/a	wordpools/wordpool_categorized_EN.txt	CHEETAH	Zoo	10	10	[0, 0, 0]	n/a	catFR1	6	R1525J
1088.982	0.783	1372532	WORD_OFF	n/a	n/a	CHEETAH	Zoo	10	10	[0, 0, 0]	n/a	catFR1	6	R1525J
1089.765	1.6	1373315	WORD	n/a	wordpools/wordpool_categorized_EN.txt	CUPCAKE	Desserts	11	10	[0, 0, 0]	n/a	catFR1	6	R1525J
1091.365	0.983	1374911	WORD_OFF	n/a	n/a	CUPCAKE	Desserts	11	10	[0, 0, 0]	n/a	catFR1	6	R1525J
1092.348	1.601	1375895	WORD	n/a	wordpools/wordpool_categorized_EN.txt	BROWNIES	Desserts	12	10	[0, 0, 0]	n/a	catFR1	6	R1525J
1093.949	0.001	1377490	PROB	0.001	n/a	n/a	n/a	-999	10	[5, 7, 2]	14	catFR1	6	R1525J
1093.95	0.0	1377491	START	n/a	n/a	n/a	n/a	-999	10	[-999, -999, -999]	n/a	catFR1	6	R1525J
1093.949	0.001	1377492	WORD_OFF	n/a	n/a	BROWNIES	Desserts	12	10	[0, 0, 0]	n/a	catFR1	6	R1525J
1093.95	0.0	1377499	ENCODING_END	n/a	n/a	n/a	n/a	-999	10	[0, 0, 0]	n/a	catFR1	6	R1525J
1093.95	8.199	1377499	DISTRACT_START	n/a	n/a	n/a	n/a	-999	10	[0, 0, 0]	n/a	catFR1	6	R1525J
1102.149	3.966	1385690	PROB	3.966	n/a	n/a	n/a	-999	10	[2, 6, 2]	10	catFR1	6	R1525J
1106.115	5.167	1389656	PROB	5.167	n/a	n/a	n/a	-999	10	[3, 1, 3]	7	catFR1	6	R1525J
1111.282	4.565	1394822	PROB	4.565	n/a	n/a	n/a	-999	10	[4, 3, 2]	9	catFR1	6	R1525J
1115.847	0.0	1399387	STOP	n/a	n/a	n/a	n/a	-999	10	[-999, -999, -999]	n/a	catFR1	6	R1525J
1115.847	1.668	1399390	DISTRACT_END	n/a	n/a	n/a	n/a	-999	10	[0, 0, 0]	n/a	catFR1	6	R1525J
1117.515	1.628	1401061	REC_START	n/a	n/a	n/a	n/a	-999	10	[0, 0, 0]	n/a	catFR1	6	R1525J
1119.143	1.239	1402683	REC_WORD	1.239	n/a	PIE	Desserts	5	10	[0, 0, 0]	n/a	catFR1	6	R1525J
1120.382	2.59	1403922	REC_WORD	2.59	n/a	CAKE	Desserts	6	10	[0, 0, 0]	n/a	catFR1	6	R1525J
1122.972	2.645	1406512	REC_WORD	2.645	n/a	CUPCAKE	Desserts	11	10	[0, 0, 0]	n/a	catFR1	6	R1525J
1125.617	1.735	1409157	REC_WORD	1.735	n/a	BROWNIES	Desserts	12	10	[0, 0, 0]	n/a	catFR1	6	R1525J
1127.352	1.179	1410891	REC_WORD	1.179	n/a	COBBLER	Desserts	-999	10	[0, 0, 0]	n/a	catFR1	6	R1525J
1128.531	0.703	1412070	REC_WORD_VV	0.703	n/a	<>	n/a	-999	10	[0, 0, 0]	n/a	catFR1	6	R1525J
1129.234	1.089	1412773	REC_WORD_VV	1.089	n/a	<>	n/a	-999	10	[0, 0, 0]	n/a	catFR1	6	R1525J
1130.323	2.141	1413862	REC_WORD_VV	2.141	n/a	<>	n/a	-999	10	[0, 0, 0]	n/a	catFR1	6	R1525J
1132.464	1.481	1416003	REC_WORD	1.481	n/a	CALF	FarmAnimals	2	10	[0, 0, 0]	n/a	catFR1	6	R1525J
1133.945	1.947	1417484	REC_WORD	1.947	n/a	BULL	FarmAnimals	1	10	[0, 0, 0]	n/a	catFR1	6	R1525J
1135.892	1.262	1419431	REC_WORD	1.262	n/a	COW	n/a	-999	10	[0, 0, 0]	n/a	catFR1	6	R1525J
1137.154	5.496	1420693	REC_WORD	5.496	n/a	ZEBRA	Zoo	4	10	[0, 0, 0]	n/a	catFR1	6	R1525J
1142.65	0.792	1426189	REC_WORD_VV	0.792	n/a	<>	n/a	-999	10	[0, 0, 0]	n/a	catFR1	6	R1525J
1143.442	4.295	1426981	REC_WORD	4.295	n/a	LAMB	FarmAnimals	7	10	[0, 0, 0]	n/a	catFR1	6	R1525J
1147.737	2.495	1431283	REC_END	n/a	n/a	n/a	n/a	-999	10	[0, 0, 0]	n/a	catFR1	6	R1525J
1150.232	10.351	1433774	COUNTDOWN_START	n/a	n/a	n/a	n/a	-999	11	[0, 0, 0]	n/a	catFR1	6	R1525J
1160.583	0.0	1444127	COUNTDOWN_END	n/a	n/a	n/a	n/a	-999	11	[0, 0, 0]	n/a	catFR1	6	R1525J
1160.583	2.183	1444127	ENCODING_START	n/a	n/a	n/a	n/a	-999	11	[0, 0, 0]	n/a	catFR1	6	R1525J
1162.766	1.6	1446312	WORD	n/a	wordpools/wordpool_categorized_EN.txt	CLOUD	Weather	1	11	[0, 0, 0]	n/a	catFR1	6	R1525J
1164.366	0.983	1447909	WORD_OFF	n/a	n/a	CLOUD	Weather	1	11	[0, 0, 0]	n/a	catFR1	6	R1525J
1165.349	1.601	1448893	WORD	n/a	wordpools/wordpool_categorized_EN.txt	FOG	Weather	2	11	[0, 0, 0]	n/a	catFR1	6	R1525J
1166.95	0.833	1450489	WORD_OFF	n/a	n/a	FOG	Weather	2	11	[0, 0, 0]	n/a	catFR1	6	R1525J
1167.783	1.6	1451325	WORD	n/a	wordpools/wordpool_categorized_EN.txt	TAPE	OfficeSupplies	3	11	[0, 0, 0]	n/a	catFR1	6	R1525J
1169.383	0.817	1452928	WORD_OFF	n/a	n/a	TAPE	OfficeSupplies	3	11	[0, 0, 0]	n/a	catFR1	6	R1525J
1170.2	1.616	1453741	WORD	n/a	wordpools/wordpool_categorized_EN.txt	NOTEBOOK	OfficeSupplies	4	11	[0, 0, 0]	n/a	catFR1	6	R1525J
1171.816	0.967	1455360	WORD_OFF	n/a	n/a	NOTEBOOK	OfficeSupplies	4	11	[0, 0, 0]	n/a	catFR1	6	R1525J
1172.783	1.6	1456322	WORD	n/a	wordpools/wordpool_categorized_EN.txt	GOOSE	Birds	5	11	[0, 0, 0]	n/a	catFR1	6	R1525J
1174.383	0.883	1457926	WORD_OFF	n/a	n/a	GOOSE	Birds	5	11	[0, 0, 0]	n/a	catFR1	6	R1525J
1175.266	1.618	1458806	WORD	n/a	wordpools/wordpool_categorized_EN.txt	DUCK	Birds	6	11	[0, 0, 0]	n/a	catFR1	6	R1525J
1176.884	0.781	1460424	WORD_OFF	n/a	n/a	DUCK	Birds	6	11	[0, 0, 0]	n/a	catFR1	6	R1525J
1177.665	1.602	1461207	WORD	n/a	wordpools/wordpool_categorized_EN.txt	GLUE	OfficeSupplies	7	11	[0, 0, 0]	n/a	catFR1	6	R1525J
1179.267	0.933	1462811	WORD_OFF	n/a	n/a	GLUE	OfficeSupplies	7	11	[0, 0, 0]	n/a	catFR1	6	R1525J
1180.2	1.615	1463743	WORD	n/a	wordpools/wordpool_categorized_EN.txt	PAPER	OfficeSupplies	8	11	[0, 0, 0]	n/a	catFR1	6	R1525J
1181.815	0.902	1465354	WORD_OFF	n/a	n/a	PAPER	OfficeSupplies	8	11	[0, 0, 0]	n/a	catFR1	6	R1525J
1182.717	1.616	1466257	WORD	n/a	wordpools/wordpool_categorized_EN.txt	ROBIN	Birds	9	11	[0, 0, 0]	n/a	catFR1	6	R1525J
1184.333	0.9	1467875	WORD_OFF	n/a	n/a	ROBIN	Birds	9	11	[0, 0, 0]	n/a	catFR1	6	R1525J
1185.233	1.6	1468778	WORD	n/a	wordpools/wordpool_categorized_EN.txt	SEAGULL	Birds	10	11	[0, 0, 0]	n/a	catFR1	6	R1525J
1186.833	0.967	1470374	WORD_OFF	n/a	n/a	SEAGULL	Birds	10	11	[0, 0, 0]	n/a	catFR1	6	R1525J
1187.8	1.616	1471344	WORD	n/a	wordpools/wordpool_categorized_EN.txt	SNOW	Weather	11	11	[0, 0, 0]	n/a	catFR1	6	R1525J
1189.416	0.984	1472955	WORD_OFF	n/a	n/a	SNOW	Weather	11	11	[0, 0, 0]	n/a	catFR1	6	R1525J
1190.4	1.6	1473939	WORD	n/a	wordpools/wordpool_categorized_EN.txt	DRIZZLE	Weather	12	11	[0, 0, 0]	n/a	catFR1	6	R1525J
1192.0	0.001	1475536	PROB	0.001	n/a	n/a	n/a	-999	11	[3, 5, 1]	10	catFR1	6	R1525J
1192.001	0.0	1475537	START	n/a	n/a	n/a	n/a	-999	11	[-999, -999, -999]	n/a	catFR1	6	R1525J
1192.0	0.001	1475543	WORD_OFF	n/a	n/a	DRIZZLE	Weather	12	11	[0, 0, 0]	n/a	catFR1	6	R1525J
1192.001	0.0	1475543	ENCODING_END	n/a	n/a	n/a	n/a	-999	11	[0, 0, 0]	n/a	catFR1	6	R1525J
1192.001	5.816	1475543	DISTRACT_START	n/a	n/a	n/a	n/a	-999	11	[0, 0, 0]	n/a	catFR1	6	R1525J
1197.817	6.333	1481353	PROB	6.333	n/a	n/a	n/a	-999	11	[1, 8, 2]	11	catFR1	6	R1525J
1204.15	6.149	1487685	PROB	6.149	n/a	n/a	n/a	-999	11	[5, 7, 1]	13	catFR1	6	R1525J
1210.299	10.033	1493834	PROB	10.033	n/a	n/a	n/a	-999	11	[5, 7, 4]	16	catFR1	6	R1525J
1220.332	0.0	1503867	STOP	n/a	n/a	n/a	n/a	-999	11	[-999, -999, -999]	n/a	catFR1	6	R1525J
1220.332	1.717	1503871	DISTRACT_END	n/a	n/a	n/a	n/a	-999	11	[0, 0, 0]	n/a	catFR1	6	R1525J
1222.049	2.746	1505586	REC_START	n/a	n/a	n/a	n/a	-999	11	[0, 0, 0]	n/a	catFR1	6	R1525J
1224.795	1.0	1508329	REC_WORD_VV	1.0	n/a	<>	n/a	-999	11	[0, 0, 0]	n/a	catFR1	6	R1525J
1225.795	8.554	1509329	REC_WORD_VV	8.554	n/a	<>	n/a	-999	11	[0, 0, 0]	n/a	catFR1	6	R1525J
1234.349	1.0	1517883	REC_WORD_VV	1.0	n/a	<>	n/a	-999	11	[0, 0, 0]	n/a	catFR1	6	R1525J
1235.349	3.445	1518883	REC_WORD_VV	3.445	n/a	<>	n/a	-999	11	[0, 0, 0]	n/a	catFR1	6	R1525J
1238.794	5.738	1522328	REC_WORD_VV	5.738	n/a	<>	n/a	-999	11	[0, 0, 0]	n/a	catFR1	6	R1525J
1244.532	1.0	1528065	REC_WORD_VV	1.0	n/a	<>	n/a	-999	11	[0, 0, 0]	n/a	catFR1	6	R1525J
1245.532	1.0	1529065	REC_WORD_VV	1.0	n/a	<>	n/a	-999	11	[0, 0, 0]	n/a	catFR1	6	R1525J
1246.532	1.0	1530065	REC_WORD_VV	1.0	n/a	<>	n/a	-999	11	[0, 0, 0]	n/a	catFR1	6	R1525J
1247.532	1.0	1531065	REC_WORD_VV	1.0	n/a	<>	n/a	-999	11	[0, 0, 0]	n/a	catFR1	6	R1525J
1248.532	1.0	1532065	REC_WORD_VV	1.0	n/a	<>	n/a	-999	11	[0, 0, 0]	n/a	catFR1	6	R1525J
1249.532	1.0	1533065	REC_WORD_VV	1.0	n/a	<>	n/a	-999	11	[0, 0, 0]	n/a	catFR1	6	R1525J
1250.532	1.0	1534065	REC_WORD_VV	1.0	n/a	<>	n/a	-999	11	[0, 0, 0]	n/a	catFR1	6	R1525J
1251.532	0.533	1535065	REC_WORD_VV	0.533	n/a	<>	n/a	-999	11	[0, 0, 0]	n/a	catFR1	6	R1525J
1252.065	0.207	1535598	REC_WORD_VV	0.207	n/a	<>	n/a	-999	11	[0, 0, 0]	n/a	catFR1	6	R1525J
1252.272	1.777	1535809	REC_END	n/a	n/a	n/a	n/a	-999	11	[0, 0, 0]	n/a	catFR1	6	R1525J
1254.049	10.351	1537591	COUNTDOWN_START	n/a	n/a	n/a	n/a	-999	12	[0, 0, 0]	n/a	catFR1	6	R1525J
1264.4	0.0	1547936	COUNTDOWN_END	n/a	n/a	n/a	n/a	-999	12	[0, 0, 0]	n/a	catFR1	6	R1525J
1264.4	2.117	1547936	ENCODING_START	n/a	n/a	n/a	n/a	-999	12	[0, 0, 0]	n/a	catFR1	6	R1525J
1266.517	1.616	1550055	WORD	n/a	wordpools/wordpool_categorized_EN.txt	FLUTE	Instruments	1	12	[0, 0, 0]	n/a	catFR1	6	R1525J
1268.133	0.95	1551673	WORD_OFF	n/a	n/a	FLUTE	Instruments	1	12	[0, 0, 0]	n/a	catFR1	6	R1525J
1269.083	1.617	1552620	WORD	n/a	wordpools/wordpool_categorized_EN.txt	TROMBONE	Instruments	2	12	[0, 0, 0]	n/a	catFR1	6	R1525J
1270.7	0.833	1554239	WORD_OFF	n/a	n/a	TROMBONE	Instruments	2	12	[0, 0, 0]	n/a	catFR1	6	R1525J
1271.533	1.6	1555067	WORD	n/a	wordpools/wordpool_categorized_EN.txt	CHIMPANZEE	Zoo	3	12	[0, 0, 0]	n/a	catFR1	6	R1525J
1273.133	0.816	1556671	WORD_OFF	n/a	n/a	CHIMPANZEE	Zoo	3	12	[0, 0, 0]	n/a	catFR1	6	R1525J
1273.949	1.601	1557484	WORD	n/a	wordpools/wordpool_categorized_EN.txt	MONKEY	Zoo	4	12	[0, 0, 0]	n/a	catFR1	6	R1525J
1275.55	0.8	1559087	WORD_OFF	n/a	n/a	MONKEY	Zoo	4	12	[0, 0, 0]	n/a	catFR1	6	R1525J
1276.35	1.6	1559885	WORD	n/a	wordpools/wordpool_categorized_EN.txt	SPARROW	Birds	5	12	[0, 0, 0]	n/a	catFR1	6	R1525J
1277.95	0.833	1561489	WORD_OFF	n/a	n/a	SPARROW	Birds	5	12	[0, 0, 0]	n/a	catFR1	6	R1525J
1278.783	1.6	1562317	WORD	n/a	wordpools/wordpool_categorized_EN.txt	BLUEBIRD	Birds	6	12	[0, 0, 0]	n/a	catFR1	6	R1525J
1280.383	0.867	1563920	WORD_OFF	n/a	n/a	BLUEBIRD	Birds	6	12	[0, 0, 0]	n/a	catFR1	6	R1525J
1281.25	1.6	1564785	WORD	n/a	wordpools/wordpool_categorized_EN.txt	TUBA	Instruments	7	12	[0, 0, 0]	n/a	catFR1	6	R1525J
1282.85	0.917	1566389	WORD_OFF	n/a	n/a	TUBA	Instruments	7	12	[0, 0, 0]	n/a	catFR1	6	R1525J
1283.767	1.615	1567299	WORD	n/a	wordpools/wordpool_categorized_EN.txt	TRUMPET	Instruments	8	12	[0, 0, 0]	n/a	catFR1	6	R1525J
1285.382	0.835	1568918	WORD_OFF	n/a	n/a	TRUMPET	Instruments	8	12	[0, 0, 0]	n/a	catFR1	6	R1525J
1286.217	1.599	1569753	WORD	n/a	wordpools/wordpool_categorized_EN.txt	ORANGUTAN	Zoo	9	12	[0, 0, 0]	n/a	catFR1	6	R1525J
1287.816	0.95	1571349	WORD_OFF	n/a	n/a	ORANGUTAN	Zoo	9	12	[0, 0, 0]	n/a	catFR1	6	R1525J
1288.766	1.617	1572304	WORD	n/a	wordpools/wordpool_categorized_EN.txt	BEAR	Zoo	10	12	[0, 0, 0]	n/a	catFR1	6	R1525J
1290.383	0.984	1573922	WORD_OFF	n/a	n/a	BEAR	Zoo	10	12	[0, 0, 0]	n/a	catFR1	6	R1525J
1291.367	1.616	1574899	WORD	n/a	wordpools/wordpool_categorized_EN.txt	CARDINAL	Birds	11	12	[0, 0, 0]	n/a	catFR1	6	R1525J
1292.983	0.85	1576518	WORD_OFF	n/a	n/a	CARDINAL	Birds	11	12	[0, 0, 0]	n/a	catFR1	6	R1525J
1293.833	1.616	1577368	WORD	n/a	wordpools/wordpool_categorized_EN.txt	HAWK	Birds	12	12	[0, 0, 0]	n/a	catFR1	6	R1525J
1295.449	0.002	1578980	PROB	0.002	n/a	n/a	n/a	-999	12	[2, 2, 7]	11	catFR1	6	R1525J
1295.451	0.0	1578982	START	n/a	n/a	n/a	n/a	-999	12	[-999, -999, -999]	n/a	catFR1	6	R1525J
1295.45	0.001	1578987	WORD_OFF	n/a	n/a	HAWK	Birds	12	12	[0, 0, 0]	n/a	catFR1	6	R1525J
1295.451	0.0	1578987	ENCODING_END	n/a	n/a	n/a	n/a	-999	12	[0, 0, 0]	n/a	catFR1	6	R1525J
1295.451	4.615	1578987	DISTRACT_START	n/a	n/a	n/a	n/a	-999	12	[0, 0, 0]	n/a	catFR1	6	R1525J
1300.066	10.218	1583596	PROB	10.218	n/a	n/a	n/a	-999	12	[8, 5, 6]	19	catFR1	6	R1525J
1310.284	7.732	1593814	PROB	7.732	n/a	n/a	n/a	-999	12	[7, 8, 5]	20	catFR1	6	R1525J
1318.016	0.0	1601545	STOP	n/a	n/a	n/a	n/a	-999	12	[-999, -999, -999]	n/a	catFR1	6	R1525J
1318.016	1.883	1601549	DISTRACT_END	n/a	n/a	n/a	n/a	-999	12	[0, 0, 0]	n/a	catFR1	6	R1525J
1319.899	1.118	1603436	REC_START	n/a	n/a	n/a	n/a	-999	12	[0, 0, 0]	n/a	catFR1	6	R1525J
1321.017	1.048	1604546	REC_WORD_VV	1.048	n/a	<>	n/a	-999	12	[0, 0, 0]	n/a	catFR1	6	R1525J
1322.065	1.0	1605594	REC_WORD	1.0	n/a	ORANGUTAN	Zoo	9	12	[0, 0, 0]	n/a	catFR1	6	R1525J
1323.065	0.771	1606594	REC_WORD_VV	0.771	n/a	<>	n/a	-999	12	[0, 0, 0]	n/a	catFR1	6	R1525J
1323.836	2.092	1607365	REC_WORD	2.092	n/a	CHIMPANZEE	Zoo	3	12	[0, 0, 0]	n/a	catFR1	6	R1525J
1325.928	2.62	1609457	REC_WORD	2.62	n/a	MONKEY	Zoo	4	12	[0, 0, 0]	n/a	catFR1	6	R1525J
1328.548	2.218	1612077	REC_WORD	2.218	n/a	GORILLA	Zoo	-999	12	[0, 0, 0]	n/a	catFR1	6	R1525J
1330.766	3.44	1614295	REC_WORD_VV	3.44	n/a	<>	n/a	-999	12	[0, 0, 0]	n/a	catFR1	6	R1525J
1334.206	4.896	1617734	REC_WORD_VV	4.896	n/a	<>	n/a	-999	12	[0, 0, 0]	n/a	catFR1	6	R1525J
1339.102	1.0	1622630	REC_WORD_VV	1.0	n/a	<>	n/a	-999	12	[0, 0, 0]	n/a	catFR1	6	R1525J
1340.102	10.023	1623630	REC_WORD_VV	10.023	n/a	<>	n/a	-999	12	[0, 0, 0]	n/a	catFR1	6	R1525J
1350.125	0.0	1633659	REC_END	n/a	n/a	n/a	n/a	-999	12	[0, 0, 0]	n/a	catFR1	6	R1525J
