onset	duration	sample	trial_type	response_time	stim_file	item_name	category	serialpos	list	test	answer	experiment	session	subject
0.0	162.148	79189	INSTRUCT_START	n/a	n/a	n/a	n/a	-999	-999	[0, 0, 0]	n/a	catFR1	0	R1366J
162.148	38.05	241329	INSTRUCT_END	n/a	n/a	n/a	n/a	-999	-999	[0, 0, 0]	n/a	catFR1	0	R1366J
200.198	10.0	279381	COUNTDOWN_START	n/a	n/a	n/a	n/a	-999	-999	[0, 0, 0]	n/a	catFR1	0	R1366J
210.565	0.001	289745	COUNTDOWN_END	n/a	n/a	n/a	n/a	-999	-999	[0, 0, 0]	n/a	catFR1	0	R1366J
210.566	2.1	289745	ENCODING_START	n/a	n/a	n/a	n/a	-999	-1	[0, 0, 0]	n/a	catFR1	0	R1366J
212.666	1.6	291847	WORD	n/a	n/a	SECOND	Times	1	-1	[0, 0, 0]	n/a	catFR1	0	R1366J
214.282	0.95	293461	WORD_OFF	n/a	n/a	SECOND	Times	1	-1	[0, 0, 0]	n/a	catFR1	0	R1366J
215.232	1.6	294409	WORD	n/a	n/a	HOUR	Times	2	-1	[0, 0, 0]	n/a	catFR1	0	R1366J
216.832	0.984	296015	WORD_OFF	n/a	n/a	HOUR	Times	2	-1	[0, 0, 0]	n/a	catFR1	0	R1366J
217.816	1.6	296992	WORD	n/a	n/a	WOOL	Materials	3	-1	[0, 0, 0]	n/a	catFR1	0	R1366J
219.416	0.883	298599	WORD_OFF	n/a	n/a	WOOL	Materials	3	-1	[0, 0, 0]	n/a	catFR1	0	R1366J
220.299	1.6	299480	WORD	n/a	n/a	SILK	Materials	4	-1	[0, 0, 0]	n/a	catFR1	0	R1366J
221.899	0.916	301079	WORD_OFF	n/a	n/a	SILK	Materials	4	-1	[0, 0, 0]	n/a	catFR1	0	R1366J
222.815	1.6	301997	WORD	n/a	n/a	TEACHER	Professions	5	-1	[0, 0, 0]	n/a	catFR1	0	R1366J
224.432	1.0	303611	WORD_OFF	n/a	n/a	TEACHER	Professions	5	-1	[0, 0, 0]	n/a	catFR1	0	R1366J
225.432	1.6	304610	WORD	n/a	n/a	FARMER	Professions	6	-1	[0, 0, 0]	n/a	catFR1	0	R1366J
227.049	1.0	306231	WORD_OFF	n/a	n/a	FARMER	Professions	6	-1	[0, 0, 0]	n/a	catFR1	0	R1366J
228.049	1.6	307231	WORD	n/a	n/a	DAY	Times	7	-1	[0, 0, 0]	n/a	catFR1	0	R1366J
229.665	0.767	308844	WORD_OFF	n/a	n/a	DAY	Times	7	-1	[0, 0, 0]	n/a	catFR1	0	R1366J
230.432	1.6	309614	WORD	n/a	n/a	MINUTE	Times	8	-1	[0, 0, 0]	n/a	catFR1	0	R1366J
232.048	0.816	311228	WORD_OFF	n/a	n/a	MINUTE	Times	8	-1	[0, 0, 0]	n/a	catFR1	0	R1366J
232.864	1.6	312043	WORD	n/a	n/a	FIREMAN	Professions	9	-1	[0, 0, 0]	n/a	catFR1	0	R1366J
234.465	1.0	313642	WORD_OFF	n/a	n/a	FIREMAN	Professions	9	-1	[0, 0, 0]	n/a	catFR1	0	R1366J
235.465	1.6	314641	WORD	n/a	n/a	PLUMBER	Professions	10	-1	[0, 0, 0]	n/a	catFR1	0	R1366J
237.082	0.916	316262	WORD_OFF	n/a	n/a	PLUMBER	Professions	10	-1	[0, 0, 0]	n/a	catFR1	0	R1366J
237.998	1.6	317180	WORD	n/a	n/a	LEATHER	Materials	11	-1	[0, 0, 0]	n/a	catFR1	0	R1366J
239.615	0.983	318794	WORD_OFF	n/a	n/a	LEATHER	Materials	11	-1	[0, 0, 0]	n/a	catFR1	0	R1366J
240.598	1.6	319779	WORD	n/a	n/a	DENIM	Materials	12	-1	[0, 0, 0]	n/a	catFR1	0	R1366J
242.198	0.002	321378	WORD_OFF	n/a	n/a	DENIM	Materials	12	-1	[0, 0, 0]	n/a	catFR1	0	R1366J
242.2	0.001	321378	ENCODING_END	n/a	n/a	n/a	n/a	-999	-1	[0, 0, 0]	n/a	catFR1	0	R1366J
242.201	0.0	321378	DISTRACT_START	n/a	n/a	n/a	n/a	-999	-1	[0, 0, 0]	n/a	catFR1	0	R1366J
242.2	0.001	321380	PROB	9.383	n/a	n/a	n/a	-999	-1	[2, 4, 2]	8.0	catFR1	0	R1366J
242.201	9.398	321381	START	n/a	n/a	n/a	n/a	-999	-1	[-999, -999, -999]	n/a	catFR1	0	R1366J
251.599	9.75	330778	PROB	9.733	n/a	n/a	n/a	-999	-1	[2, 4, 8]	14.0	catFR1	0	R1366J
261.349	5.683	340528	PROB	5.666	n/a	n/a	n/a	-999	-1	[2, 7, 1]	10.0	catFR1	0	R1366J
267.032	0.0	346207	DISTRACT_END	n/a	n/a	n/a	n/a	-999	-1	[0, 0, 0]	n/a	catFR1	0	R1366J
267.032	1.034	346211	STOP	n/a	n/a	n/a	n/a	-999	-1	[-999, -999, -999]	n/a	catFR1	0	R1366J
268.066	12.92	347244	REC_START	n/a	n/a	n/a	n/a	-999	-1	[0, 0, 0]	n/a	catFR1	0	R1366J
280.986	3.639	360164	REC_WORD_VV	12.92	n/a	<>	n/a	-999	-1	[0, 0, 0]	n/a	catFR1	0	R1366J
284.625	1.0	363803	REC_WORD_VV	16.559	n/a	<>	n/a	-999	-1	[0, 0, 0]	n/a	catFR1	0	R1366J
285.625	1.965	364803	REC_WORD_VV	17.559	n/a	<>	n/a	-999	-1	[0, 0, 0]	n/a	catFR1	0	R1366J
287.59	0.68	366768	REC_WORD_VV	19.524	n/a	<>	n/a	-999	-1	[0, 0, 0]	n/a	catFR1	0	R1366J
288.27	1.69	367448	REC_WORD_VV	20.204	n/a	<>	n/a	-999	-1	[0, 0, 0]	n/a	catFR1	0	R1366J
289.96	0.56	369138	REC_WORD	21.894	n/a	PLUMBER	Professions	10	-1	[0, 0, 0]	n/a	catFR1	0	R1366J
290.52	1.36	369698	REC_WORD	22.454	n/a	FIREMAN	Professions	9	-1	[0, 0, 0]	n/a	catFR1	0	R1366J
291.88	6.446	371058	REC_WORD	23.814	n/a	TEACHER	Professions	5	-1	[0, 0, 0]	n/a	catFR1	0	R1366J
298.326	34.005	377500	REC_END	n/a	n/a	n/a	n/a	-999	-1	[0, 0, 0]	n/a	catFR1	0	R1366J
332.331	10.0	411509	COUNTDOWN_START	n/a	n/a	n/a	n/a	-999	1	[0, 0, 0]	n/a	catFR1	0	R1366J
342.691	0.0	421866	COUNTDOWN_END	n/a	n/a	n/a	n/a	-999	1	[0, 0, 0]	n/a	catFR1	0	R1366J
342.691	2.141	421866	ENCODING_START	n/a	n/a	n/a	n/a	-999	1	[0, 0, 0]	n/a	catFR1	0	R1366J
344.832	1.6	424005	WORD	n/a	wordpools/wordpool_categorized_EN.txt	BROWNIES	Desserts	1	1	[0, 0, 0]	n/a	catFR1	0	R1366J
346.448	0.9	425619	WORD_OFF	n/a	n/a	BROWNIES	Desserts	1	1	[0, 0, 0]	n/a	catFR1	0	R1366J
347.348	1.6	426522	WORD	n/a	wordpools/wordpool_categorized_EN.txt	MOUSSE	Desserts	2	1	[0, 0, 0]	n/a	catFR1	0	R1366J
348.965	0.917	428136	WORD_OFF	n/a	n/a	MOUSSE	Desserts	2	1	[0, 0, 0]	n/a	catFR1	0	R1366J
349.882	1.6	429054	WORD	n/a	wordpools/wordpool_categorized_EN.txt	EYE	Bodyparts	3	1	[0, 0, 0]	n/a	catFR1	0	R1366J
351.498	0.933	430675	WORD_OFF	n/a	n/a	EYE	Bodyparts	3	1	[0, 0, 0]	n/a	catFR1	0	R1366J
352.431	1.6	431608	WORD	n/a	wordpools/wordpool_categorized_EN.txt	FINGERS	Bodyparts	4	1	[0, 0, 0]	n/a	catFR1	0	R1366J
354.031	0.834	433207	WORD_OFF	n/a	n/a	FINGERS	Bodyparts	4	1	[0, 0, 0]	n/a	catFR1	0	R1366J
354.865	1.6	434036	WORD	n/a	wordpools/wordpool_categorized_EN.txt	CABINET	Furniture	5	1	[0, 0, 0]	n/a	catFR1	0	R1366J
356.481	0.933	435658	WORD_OFF	n/a	n/a	CABINET	Furniture	5	1	[0, 0, 0]	n/a	catFR1	0	R1366J
357.414	1.6	436590	WORD	n/a	wordpools/wordpool_categorized_EN.txt	RECLINER	Furniture	6	1	[0, 0, 0]	n/a	catFR1	0	R1366J
359.015	0.999	438189	WORD_OFF	n/a	n/a	RECLINER	Furniture	6	1	[0, 0, 0]	n/a	catFR1	0	R1366J
360.014	1.6	439189	WORD	n/a	wordpools/wordpool_categorized_EN.txt	COBBLER	Desserts	7	1	[0, 0, 0]	n/a	catFR1	0	R1366J
361.615	0.766	440788	WORD_OFF	n/a	n/a	COBBLER	Desserts	7	1	[0, 0, 0]	n/a	catFR1	0	R1366J
362.381	1.6	441558	WORD	n/a	wordpools/wordpool_categorized_EN.txt	FUDGE	Desserts	8	1	[0, 0, 0]	n/a	catFR1	0	R1366J
363.982	0.917	443157	WORD_OFF	n/a	n/a	FUDGE	Desserts	8	1	[0, 0, 0]	n/a	catFR1	0	R1366J
364.899	1.6	444075	WORD	n/a	wordpools/wordpool_categorized_EN.txt	FOOT	Bodyparts	9	1	[0, 0, 0]	n/a	catFR1	0	R1366J
366.499	0.967	445674	WORD_OFF	n/a	n/a	FOOT	Bodyparts	9	1	[0, 0, 0]	n/a	catFR1	0	R1366J
367.466	1.6	446636	WORD	n/a	wordpools/wordpool_categorized_EN.txt	ELBOW	Bodyparts	10	1	[0, 0, 0]	n/a	catFR1	0	R1366J
369.082	0.934	448257	WORD_OFF	n/a	n/a	ELBOW	Bodyparts	10	1	[0, 0, 0]	n/a	catFR1	0	R1366J
370.016	1.6	449190	WORD	n/a	wordpools/wordpool_categorized_EN.txt	DRESSER	Furniture	11	1	[0, 0, 0]	n/a	catFR1	0	R1366J
371.632	0.934	450804	WORD_OFF	n/a	n/a	DRESSER	Furniture	11	1	[0, 0, 0]	n/a	catFR1	0	R1366J
372.566	1.6	451737	WORD	n/a	wordpools/wordpool_categorized_EN.txt	CHAIR	Furniture	12	1	[0, 0, 0]	n/a	catFR1	0	R1366J
374.183	0.0	453357	PROB	6.233	n/a	n/a	n/a	-999	1	[1, 2, 5]	8.0	catFR1	0	R1366J
374.182	0.002	453358	WORD_OFF	n/a	n/a	CHAIR	Furniture	12	1	[0, 0, 0]	n/a	catFR1	0	R1366J
374.184	0.0	453358	ENCODING_END	n/a	n/a	n/a	n/a	-999	1	[0, 0, 0]	n/a	catFR1	0	R1366J
374.184	0.0	453358	DISTRACT_START	n/a	n/a	n/a	n/a	-999	1	[0, 0, 0]	n/a	catFR1	0	R1366J
374.184	6.249	453358	START	n/a	n/a	n/a	n/a	-999	1	[-999, -999, -999]	n/a	catFR1	0	R1366J
380.433	6.682	459607	PROB	6.665	n/a	n/a	n/a	-999	1	[7, 8, 2]	17.0	catFR1	0	R1366J
387.115	5.134	466289	PROB	5.117	n/a	n/a	n/a	-999	1	[3, 4, 3]	10.0	catFR1	0	R1366J
392.249	4.432	471423	PROB	4.416	n/a	n/a	n/a	-999	1	[2, 4, 2]	8.0	catFR1	0	R1366J
396.681	0.0	475855	STOP	n/a	n/a	n/a	n/a	-999	1	[-999, -999, -999]	n/a	catFR1	0	R1366J
396.681	1.134	475856	DISTRACT_END	n/a	n/a	n/a	n/a	-999	1	[0, 0, 0]	n/a	catFR1	0	R1366J
397.815	2.797	476988	REC_START	n/a	n/a	n/a	n/a	-999	1	[0, 0, 0]	n/a	catFR1	0	R1366J
400.612	0.893	479785	REC_WORD	2.797	n/a	DRESSER	Furniture	11	1	[0, 0, 0]	n/a	catFR1	0	R1366J
401.505	2.094	480678	REC_WORD	3.69	n/a	COBBLER	Desserts	7	1	[0, 0, 0]	n/a	catFR1	0	R1366J
403.599	8.927	482772	REC_WORD	5.784	n/a	BROWNIES	Desserts	1	1	[0, 0, 0]	n/a	catFR1	0	R1366J
412.526	2.474	491699	REC_WORD	14.711	n/a	RECLINER	Furniture	6	1	[0, 0, 0]	n/a	catFR1	0	R1366J
415.0	0.278	494173	REC_WORD	17.185	n/a	ARM	n/a	-999	1	[0, 0, 0]	n/a	catFR1	0	R1366J
415.278	12.797	494451	REC_WORD	17.463	n/a	CHAIR	Furniture	12	1	[0, 0, 0]	n/a	catFR1	0	R1366J
428.075	5.158	507244	REC_END	n/a	n/a	n/a	n/a	-999	1	[0, 0, 0]	n/a	catFR1	0	R1366J
433.233	10.0	512404	COUNTDOWN_START	n/a	n/a	n/a	n/a	-999	2	[0, 0, 0]	n/a	catFR1	0	R1366J
443.591	0.0	522761	COUNTDOWN_END	n/a	n/a	n/a	n/a	-999	2	[0, 0, 0]	n/a	catFR1	0	R1366J
443.591	1.991	522761	ENCODING_START	n/a	n/a	n/a	n/a	-999	2	[0, 0, 0]	n/a	catFR1	0	R1366J
445.582	1.6	524752	WORD	n/a	wordpools/wordpool_categorized_EN.txt	WHALE	Oceananimals	1	2	[0, 0, 0]	n/a	catFR1	0	R1366J
447.198	0.784	526366	WORD_OFF	n/a	n/a	WHALE	Oceananimals	1	2	[0, 0, 0]	n/a	catFR1	0	R1366J
447.982	1.6	527151	WORD	n/a	wordpools/wordpool_categorized_EN.txt	PLANKTON	Oceananimals	2	2	[0, 0, 0]	n/a	catFR1	0	R1366J
449.598	0.95	528765	WORD_OFF	n/a	n/a	PLANKTON	Oceananimals	2	2	[0, 0, 0]	n/a	catFR1	0	R1366J
450.548	1.6	529720	WORD	n/a	wordpools/wordpool_categorized_EN.txt	BLUEBERRY	Fruit	3	2	[0, 0, 0]	n/a	catFR1	0	R1366J
452.148	0.8	531319	WORD_OFF	n/a	n/a	BLUEBERRY	Fruit	3	2	[0, 0, 0]	n/a	catFR1	0	R1366J
452.948	1.6	532118	WORD	n/a	wordpools/wordpool_categorized_EN.txt	CHERRY	Fruit	4	2	[0, 0, 0]	n/a	catFR1	0	R1366J
454.548	0.883	533717	WORD_OFF	n/a	n/a	CHERRY	Fruit	4	2	[0, 0, 0]	n/a	catFR1	0	R1366J
455.431	1.6	534598	WORD	n/a	wordpools/wordpool_categorized_EN.txt	PEELER	Kitchentools	5	2	[0, 0, 0]	n/a	catFR1	0	R1366J
457.031	0.917	536197	WORD_OFF	n/a	n/a	PEELER	Kitchentools	5	2	[0, 0, 0]	n/a	catFR1	0	R1366J
457.948	1.6	537115	WORD	n/a	wordpools/wordpool_categorized_EN.txt	STRAINER	Kitchentools	6	2	[0, 0, 0]	n/a	catFR1	0	R1366J
459.564	0.867	538737	WORD_OFF	n/a	n/a	STRAINER	Kitchentools	6	2	[0, 0, 0]	n/a	catFR1	0	R1366J
460.431	1.6	539603	WORD	n/a	wordpools/wordpool_categorized_EN.txt	ORANGE	Fruit	7	2	[0, 0, 0]	n/a	catFR1	0	R1366J
462.048	0.85	541217	WORD_OFF	n/a	n/a	ORANGE	Fruit	7	2	[0, 0, 0]	n/a	catFR1	0	R1366J
462.898	1.6	542068	WORD	n/a	wordpools/wordpool_categorized_EN.txt	PEACH	Fruit	8	2	[0, 0, 0]	n/a	catFR1	0	R1366J
464.498	0.85	543667	WORD_OFF	n/a	n/a	PEACH	Fruit	8	2	[0, 0, 0]	n/a	catFR1	0	R1366J
465.348	1.6	544518	WORD	n/a	wordpools/wordpool_categorized_EN.txt	SPATULA	Kitchentools	9	2	[0, 0, 0]	n/a	catFR1	0	R1366J
466.949	0.766	546117	WORD_OFF	n/a	n/a	SPATULA	Kitchentools	9	2	[0, 0, 0]	n/a	catFR1	0	R1366J
467.715	1.6	546887	WORD	n/a	wordpools/wordpool_categorized_EN.txt	LADLE	Kitchentools	10	2	[0, 0, 0]	n/a	catFR1	0	R1366J
469.315	0.834	548486	WORD_OFF	n/a	n/a	LADLE	Kitchentools	10	2	[0, 0, 0]	n/a	catFR1	0	R1366J
470.149	1.6	549316	WORD	n/a	wordpools/wordpool_categorized_EN.txt	CRAB	Oceananimals	11	2	[0, 0, 0]	n/a	catFR1	0	R1366J
471.765	0.934	550944	WORD_OFF	n/a	n/a	CRAB	Oceananimals	11	2	[0, 0, 0]	n/a	catFR1	0	R1366J
472.699	1.6	551870	WORD	n/a	wordpools/wordpool_categorized_EN.txt	SHRIMP	Oceananimals	12	2	[0, 0, 0]	n/a	catFR1	0	R1366J
474.315	0.001	553483	WORD_OFF	n/a	n/a	SHRIMP	Oceananimals	12	2	[0, 0, 0]	n/a	catFR1	0	R1366J
474.316	0.001	553486	PROB	7.316	n/a	n/a	n/a	-999	2	[8, 3, 8]	19.0	catFR1	0	R1366J
474.317	0.0	553487	START	n/a	n/a	n/a	n/a	-999	2	[-999, -999, -999]	n/a	catFR1	0	R1366J
474.317	0.0	553491	ENCODING_END	n/a	n/a	n/a	n/a	-999	2	[0, 0, 0]	n/a	catFR1	0	R1366J
474.317	7.332	553491	DISTRACT_START	n/a	n/a	n/a	n/a	-999	2	[0, 0, 0]	n/a	catFR1	0	R1366J
481.649	4.317	560819	PROB	4.3	n/a	n/a	n/a	-999	2	[2, 6, 6]	14.0	catFR1	0	R1366J
485.966	4.366	565136	PROB	4.349	n/a	n/a	n/a	-999	2	[5, 4, 8]	17.0	catFR1	0	R1366J
490.332	9.149	569502	PROB	9.133	n/a	n/a	n/a	-999	2	[3, 8, 5]	16.0	catFR1	0	R1366J
499.481	0.0	578646	DISTRACT_END	n/a	n/a	n/a	n/a	-999	2	[0, 0, 0]	n/a	catFR1	0	R1366J
499.481	1.368	578650	STOP	n/a	n/a	n/a	n/a	-999	2	[-999, -999, -999]	n/a	catFR1	0	R1366J
500.849	2.677	580016	REC_START	n/a	n/a	n/a	n/a	-999	2	[0, 0, 0]	n/a	catFR1	0	R1366J
503.526	2.792	582695	REC_WORD	2.677	n/a	BLUEBERRY	Fruit	3	2	[0, 0, 0]	n/a	catFR1	0	R1366J
506.318	2.761	585487	REC_WORD	5.469	n/a	COBBLER	Desserts	-999	2	[0, 0, 0]	n/a	catFR1	0	R1366J
509.079	2.438	588248	REC_WORD	8.23	n/a	STRAINER	Kitchentools	6	2	[0, 0, 0]	n/a	catFR1	0	R1366J
511.517	19.608	590686	REC_WORD_VV	10.668	n/a	<>	n/a	-999	2	[0, 0, 0]	n/a	catFR1	0	R1366J
531.125	3.607	610294	REC_END	n/a	n/a	n/a	n/a	-999	2	[0, 0, 0]	n/a	catFR1	0	R1366J
534.732	10.0	613907	COUNTDOWN_START	n/a	n/a	n/a	n/a	-999	3	[0, 0, 0]	n/a	catFR1	0	R1366J
545.094	0.0	624263	COUNTDOWN_END	n/a	n/a	n/a	n/a	-999	3	[0, 0, 0]	n/a	catFR1	0	R1366J
545.094	1.937	624263	ENCODING_START	n/a	n/a	n/a	n/a	-999	3	[0, 0, 0]	n/a	catFR1	0	R1366J
547.031	1.6	626196	WORD	n/a	wordpools/wordpool_categorized_EN.txt	FOG	Weather	1	3	[0, 0, 0]	n/a	catFR1	0	R1366J
548.631	0.934	627795	WORD_OFF	n/a	n/a	FOG	Weather	1	3	[0, 0, 0]	n/a	catFR1	0	R1366J
549.565	1.6	628727	WORD	n/a	wordpools/wordpool_categorized_EN.txt	CLOUD	Weather	2	3	[0, 0, 0]	n/a	catFR1	0	R1366J
551.165	0.85	630334	WORD_OFF	n/a	n/a	CLOUD	Weather	2	3	[0, 0, 0]	n/a	catFR1	0	R1366J
552.015	1.6	631185	WORD	n/a	wordpools/wordpool_categorized_EN.txt	MOSQUITO	Insects	3	3	[0, 0, 0]	n/a	catFR1	0	R1366J
553.631	0.95	632799	WORD_OFF	n/a	n/a	MOSQUITO	Insects	3	3	[0, 0, 0]	n/a	catFR1	0	R1366J
554.581	1.6	633747	WORD	n/a	wordpools/wordpool_categorized_EN.txt	BUTTERFLY	Insects	4	3	[0, 0, 0]	n/a	catFR1	0	R1366J
556.198	0.95	635360	WORD_OFF	n/a	n/a	BUTTERFLY	Insects	4	3	[0, 0, 0]	n/a	catFR1	0	R1366J
557.148	1.6	636315	WORD	n/a	wordpools/wordpool_categorized_EN.txt	SLINKY	Toys	5	3	[0, 0, 0]	n/a	catFR1	0	R1366J
558.765	0.799	637929	WORD_OFF	n/a	n/a	SLINKY	Toys	5	3	[0, 0, 0]	n/a	catFR1	0	R1366J
559.564	1.6	638729	WORD	n/a	wordpools/wordpool_categorized_EN.txt	FOOTBALL	Toys	6	3	[0, 0, 0]	n/a	catFR1	0	R1366J
561.181	0.867	640350	WORD_OFF	n/a	n/a	FOOTBALL	Toys	6	3	[0, 0, 0]	n/a	catFR1	0	R1366J
562.048	1.6	641216	WORD	n/a	wordpools/wordpool_categorized_EN.txt	LADYBUG	Insects	7	3	[0, 0, 0]	n/a	catFR1	0	R1366J
563.648	0.95	642815	WORD_OFF	n/a	n/a	LADYBUG	Insects	7	3	[0, 0, 0]	n/a	catFR1	0	R1366J
564.598	1.6	643763	WORD	n/a	wordpools/wordpool_categorized_EN.txt	MOTH	Insects	8	3	[0, 0, 0]	n/a	catFR1	0	R1366J
566.198	0.85	645362	WORD_OFF	n/a	n/a	MOTH	Insects	8	3	[0, 0, 0]	n/a	catFR1	0	R1366J
567.048	1.6	646213	WORD	n/a	wordpools/wordpool_categorized_EN.txt	TORNADO	Weather	9	3	[0, 0, 0]	n/a	catFR1	0	R1366J
568.665	0.883	647827	WORD_OFF	n/a	n/a	TORNADO	Weather	9	3	[0, 0, 0]	n/a	catFR1	0	R1366J
569.548	1.6	648715	WORD	n/a	wordpools/wordpool_categorized_EN.txt	SNOW	Weather	10	3	[0, 0, 0]	n/a	catFR1	0	R1366J
571.149	0.783	650314	WORD_OFF	n/a	n/a	SNOW	Weather	10	3	[0, 0, 0]	n/a	catFR1	0	R1366J
571.932	1.6	651099	WORD	n/a	wordpools/wordpool_categorized_EN.txt	DOLL	Toys	11	3	[0, 0, 0]	n/a	catFR1	0	R1366J
573.549	0.965	652713	WORD_OFF	n/a	n/a	DOLL	Toys	11	3	[0, 0, 0]	n/a	catFR1	0	R1366J
574.514	1.6	653683	WORD	n/a	wordpools/wordpool_categorized_EN.txt	DOLLHOUSE	Toys	12	3	[0, 0, 0]	n/a	catFR1	0	R1366J
576.115	0.0	655281	PROB	5.267	n/a	n/a	n/a	-999	3	[6, 2, 1]	9.0	catFR1	0	R1366J
576.114	0.002	655282	WORD_OFF	n/a	n/a	DOLLHOUSE	Toys	12	3	[0, 0, 0]	n/a	catFR1	0	R1366J
576.116	0.0	655282	ENCODING_END	n/a	n/a	n/a	n/a	-999	3	[0, 0, 0]	n/a	catFR1	0	R1366J
576.116	0.0	655282	DISTRACT_START	n/a	n/a	n/a	n/a	-999	3	[0, 0, 0]	n/a	catFR1	0	R1366J
576.116	5.282	655282	START	n/a	n/a	n/a	n/a	-999	3	[-999, -999, -999]	n/a	catFR1	0	R1366J
581.398	3.901	660564	PROB	3.883	n/a	n/a	n/a	-999	3	[2, 4, 3]	9.0	catFR1	0	R1366J
585.299	6.099	664465	PROB	6.083	n/a	n/a	n/a	-999	3	[4, 2, 7]	13.0	catFR1	0	R1366J
591.398	4.468	670564	PROB	4.451	n/a	n/a	n/a	-999	3	[4, 5, 1]	10.0	catFR1	0	R1366J
595.866	2.799	675031	PROB	2.782	n/a	n/a	n/a	-999	3	[3, 5, 1]	9.0	catFR1	0	R1366J
598.665	0.0	677830	STOP	n/a	n/a	n/a	n/a	-999	3	[-999, -999, -999]	n/a	catFR1	0	R1366J
598.665	1.3	677831	DISTRACT_END	n/a	n/a	n/a	n/a	-999	3	[0, 0, 0]	n/a	catFR1	0	R1366J
599.965	5.289	679127	REC_START	n/a	n/a	n/a	n/a	-999	3	[0, 0, 0]	n/a	catFR1	0	R1366J
605.254	1.672	684419	REC_WORD	5.289	n/a	CLOUD	Weather	2	3	[0, 0, 0]	n/a	catFR1	0	R1366J
606.926	1.595	686091	REC_WORD	6.961	n/a	FOG	Weather	1	3	[0, 0, 0]	n/a	catFR1	0	R1366J
608.521	1.979	687686	REC_WORD	8.556	n/a	BLUEBERRY	Fruit	-999	3	[0, 0, 0]	n/a	catFR1	0	R1366J
610.5	19.721	689665	REC_WORD	10.535	n/a	COBBLER	Desserts	-999	3	[0, 0, 0]	n/a	catFR1	0	R1366J
630.221	4.628	709383	REC_END	n/a	n/a	n/a	n/a	-999	3	[0, 0, 0]	n/a	catFR1	0	R1366J
634.849	10.0	714017	COUNTDOWN_START	n/a	n/a	n/a	n/a	-999	4	[0, 0, 0]	n/a	catFR1	0	R1366J
645.212	0.0	724374	COUNTDOWN_END	n/a	n/a	n/a	n/a	-999	4	[0, 0, 0]	n/a	catFR1	0	R1366J
645.212	1.92	724374	ENCODING_START	n/a	n/a	n/a	n/a	-999	4	[0, 0, 0]	n/a	catFR1	0	R1366J
647.132	1.6	726291	WORD	n/a	wordpools/wordpool_categorized_EN.txt	TIGER	Zoo	1	4	[0, 0, 0]	n/a	catFR1	0	R1366J
648.748	0.784	727912	WORD_OFF	n/a	n/a	TIGER	Zoo	1	4	[0, 0, 0]	n/a	catFR1	0	R1366J
649.532	1.6	728697	WORD	n/a	wordpools/wordpool_categorized_EN.txt	ORANGUTAN	Zoo	2	4	[0, 0, 0]	n/a	catFR1	0	R1366J
651.148	0.867	730311	WORD_OFF	n/a	n/a	ORANGUTAN	Zoo	2	4	[0, 0, 0]	n/a	catFR1	0	R1366J
652.015	1.6	731177	WORD	n/a	wordpools/wordpool_categorized_EN.txt	ARM	Bodyparts	3	4	[0, 0, 0]	n/a	catFR1	0	R1366J
653.631	0.984	732791	WORD_OFF	n/a	n/a	ARM	Bodyparts	3	4	[0, 0, 0]	n/a	catFR1	0	R1366J
654.615	1.6	733776	WORD	n/a	wordpools/wordpool_categorized_EN.txt	NOSE	Bodyparts	4	4	[0, 0, 0]	n/a	catFR1	0	R1366J
656.215	0.816	735375	WORD_OFF	n/a	n/a	NOSE	Bodyparts	4	4	[0, 0, 0]	n/a	catFR1	0	R1366J
657.031	1.6	736196	WORD	n/a	wordpools/wordpool_categorized_EN.txt	LILAC	Flowers	5	4	[0, 0, 0]	n/a	catFR1	0	R1366J
658.648	0.983	737810	WORD_OFF	n/a	n/a	LILAC	Flowers	5	4	[0, 0, 0]	n/a	catFR1	0	R1366J
659.631	1.6	738795	WORD	n/a	wordpools/wordpool_categorized_EN.txt	DAISY	Flowers	6	4	[0, 0, 0]	n/a	catFR1	0	R1366J
661.231	0.968	740394	WORD_OFF	n/a	n/a	DAISY	Flowers	6	4	[0, 0, 0]	n/a	catFR1	0	R1366J
662.199	1.6	741364	WORD	n/a	wordpools/wordpool_categorized_EN.txt	LEG	Bodyparts	7	4	[0, 0, 0]	n/a	catFR1	0	R1366J
663.814	0.951	742978	WORD_OFF	n/a	n/a	LEG	Bodyparts	7	4	[0, 0, 0]	n/a	catFR1	0	R1366J
664.765	1.6	743925	WORD	n/a	wordpools/wordpool_categorized_EN.txt	TOE	Bodyparts	8	4	[0, 0, 0]	n/a	catFR1	0	R1366J
666.365	0.816	745524	WORD_OFF	n/a	n/a	TOE	Bodyparts	8	4	[0, 0, 0]	n/a	catFR1	0	R1366J
667.181	1.6	746346	WORD	n/a	wordpools/wordpool_categorized_EN.txt	LILY	Flowers	9	4	[0, 0, 0]	n/a	catFR1	0	R1366J
668.781	0.867	747945	WORD_OFF	n/a	n/a	LILY	Flowers	9	4	[0, 0, 0]	n/a	catFR1	0	R1366J
669.648	1.6	748811	WORD	n/a	wordpools/wordpool_categorized_EN.txt	TULIP	Flowers	10	4	[0, 0, 0]	n/a	catFR1	0	R1366J
671.248	0.817	750410	WORD_OFF	n/a	n/a	TULIP	Flowers	10	4	[0, 0, 0]	n/a	catFR1	0	R1366J
672.065	1.6	751224	WORD	n/a	wordpools/wordpool_categorized_EN.txt	CHIMPANZEE	Zoo	11	4	[0, 0, 0]	n/a	catFR1	0	R1366J
673.665	0.934	752824	WORD_OFF	n/a	n/a	CHIMPANZEE	Zoo	11	4	[0, 0, 0]	n/a	catFR1	0	R1366J
674.599	1.6	753756	WORD	n/a	wordpools/wordpool_categorized_EN.txt	ZEBRA	Zoo	12	4	[0, 0, 0]	n/a	catFR1	0	R1366J
676.215	0.0	755377	PROB	5.817	n/a	n/a	n/a	-999	4	[2, 3, 4]	9.0	catFR1	0	R1366J
676.215	0.002	755378	WORD_OFF	n/a	n/a	ZEBRA	Zoo	12	4	[0, 0, 0]	n/a	catFR1	0	R1366J
676.217	0.0	755378	ENCODING_END	n/a	n/a	n/a	n/a	-999	4	[0, 0, 0]	n/a	catFR1	0	R1366J
676.217	0.0	755378	DISTRACT_START	n/a	n/a	n/a	n/a	-999	4	[0, 0, 0]	n/a	catFR1	0	R1366J
676.217	5.832	755379	START	n/a	n/a	n/a	n/a	-999	4	[-999, -999, -999]	n/a	catFR1	0	R1366J
682.049	11.199	761211	PROB	11.183	n/a	n/a	n/a	-999	4	[2, 5, 8]	15.0	catFR1	0	R1366J
693.248	3.401	772410	PROB	3.384	n/a	n/a	n/a	-999	4	[2, 2, 5]	9.0	catFR1	0	R1366J
696.649	0.0	775810	DISTRACT_END	n/a	n/a	n/a	n/a	-999	4	[0, 0, 0]	n/a	catFR1	0	R1366J
696.649	1.05	775810	STOP	n/a	n/a	n/a	n/a	-999	4	[-999, -999, -999]	n/a	catFR1	0	R1366J
697.699	3.819	776861	REC_START	n/a	n/a	n/a	n/a	-999	4	[0, 0, 0]	n/a	catFR1	0	R1366J
701.518	1.89	780679	REC_WORD	3.819	n/a	ORANGUTAN	Zoo	2	4	[0, 0, 0]	n/a	catFR1	0	R1366J
703.408	3.233	782569	REC_WORD	5.709	n/a	TIGER	Zoo	1	4	[0, 0, 0]	n/a	catFR1	0	R1366J
706.641	4.63	785802	REC_WORD_VV	8.942	n/a	<>	n/a	-999	4	[0, 0, 0]	n/a	catFR1	0	R1366J
711.271	1.63	790432	REC_WORD	13.572	n/a	LAMB	n/a	-999	4	[0, 0, 0]	n/a	catFR1	0	R1366J
712.901	1.871	792062	REC_WORD	15.202	n/a	ARM	Bodyparts	3	4	[0, 0, 0]	n/a	catFR1	0	R1366J
714.772	3.925	793933	REC_WORD	17.073	n/a	ARM	Bodyparts	3	4	[0, 0, 0]	n/a	catFR1	0	R1366J
718.697	0.94	797858	REC_WORD	20.998	n/a	TREE	n/a	-999	4	[0, 0, 0]	n/a	catFR1	0	R1366J
719.637	8.337	798797	REC_WORD	21.938	n/a	LEAVES	n/a	-999	4	[0, 0, 0]	n/a	catFR1	0	R1366J
727.974	2.708	807132	REC_END	n/a	n/a	n/a	n/a	-999	4	[0, 0, 0]	n/a	catFR1	0	R1366J
730.682	10.0	809841	COUNTDOWN_START	n/a	n/a	n/a	n/a	-999	5	[0, 0, 0]	n/a	catFR1	0	R1366J
741.042	0.0	820198	COUNTDOWN_END	n/a	n/a	n/a	n/a	-999	5	[0, 0, 0]	n/a	catFR1	0	R1366J
741.042	1.94	820205	ENCODING_START	n/a	n/a	n/a	n/a	-999	5	[0, 0, 0]	n/a	catFR1	0	R1366J
742.982	1.6	822138	WORD	n/a	wordpools/wordpool_categorized_EN.txt	HORSE	Farmanimals	1	5	[0, 0, 0]	n/a	catFR1	0	R1366J
744.582	0.817	823737	WORD_OFF	n/a	n/a	HORSE	Farmanimals	1	5	[0, 0, 0]	n/a	catFR1	0	R1366J
745.399	1.6	824558	WORD	n/a	wordpools/wordpool_categorized_EN.txt	PIG	Farmanimals	2	5	[0, 0, 0]	n/a	catFR1	0	R1366J
747.015	0.983	826172	WORD_OFF	n/a	n/a	PIG	Farmanimals	2	5	[0, 0, 0]	n/a	catFR1	0	R1366J
747.998	1.6	827157	WORD	n/a	wordpools/wordpool_categorized_EN.txt	BLOUSE	Clothing	3	5	[0, 0, 0]	n/a	catFR1	0	R1366J
749.598	0.917	828756	WORD_OFF	n/a	n/a	BLOUSE	Clothing	3	5	[0, 0, 0]	n/a	catFR1	0	R1366J
750.515	1.6	829674	WORD	n/a	wordpools/wordpool_categorized_EN.txt	PANTS	Clothing	4	5	[0, 0, 0]	n/a	catFR1	0	R1366J
752.115	0.866	831273	WORD_OFF	n/a	n/a	PANTS	Clothing	4	5	[0, 0, 0]	n/a	catFR1	0	R1366J
752.981	1.6	832139	WORD	n/a	wordpools/wordpool_categorized_EN.txt	CEILING	Building	5	5	[0, 0, 0]	n/a	catFR1	0	R1366J
754.582	0.866	833738	WORD_OFF	n/a	n/a	CEILING	Building	5	5	[0, 0, 0]	n/a	catFR1	0	R1366J
755.448	1.6	834604	WORD	n/a	wordpools/wordpool_categorized_EN.txt	WALL	Building	6	5	[0, 0, 0]	n/a	catFR1	0	R1366J
757.048	0.933	836203	WORD_OFF	n/a	n/a	WALL	Building	6	5	[0, 0, 0]	n/a	catFR1	0	R1366J
757.981	1.6	837143	WORD	n/a	wordpools/wordpool_categorized_EN.txt	SHOES	Clothing	7	5	[0, 0, 0]	n/a	catFR1	0	R1366J
759.581	0.983	838743	WORD_OFF	n/a	n/a	SHOES	Clothing	7	5	[0, 0, 0]	n/a	catFR1	0	R1366J
760.564	1.6	839720	WORD	n/a	wordpools/wordpool_categorized_EN.txt	UNDERWEAR	Clothing	8	5	[0, 0, 0]	n/a	catFR1	0	R1366J
762.181	0.95	841341	WORD_OFF	n/a	n/a	UNDERWEAR	Clothing	8	5	[0, 0, 0]	n/a	catFR1	0	R1366J
763.131	1.6	842289	WORD	n/a	wordpools/wordpool_categorized_EN.txt	ROOF	Building	9	5	[0, 0, 0]	n/a	catFR1	0	R1366J
764.731	0.867	843888	WORD_OFF	n/a	n/a	ROOF	Building	9	5	[0, 0, 0]	n/a	catFR1	0	R1366J
765.598	1.6	844754	WORD	n/a	wordpools/wordpool_categorized_EN.txt	HALLWAY	Building	10	5	[0, 0, 0]	n/a	catFR1	0	R1366J
767.198	0.85	846353	WORD_OFF	n/a	n/a	HALLWAY	Building	10	5	[0, 0, 0]	n/a	catFR1	0	R1366J
768.048	1.6	847204	WORD	n/a	wordpools/wordpool_categorized_EN.txt	HEN	Farmanimals	11	5	[0, 0, 0]	n/a	catFR1	0	R1366J
769.648	0.85	848803	WORD_OFF	n/a	n/a	HEN	Farmanimals	11	5	[0, 0, 0]	n/a	catFR1	0	R1366J
770.498	1.6	849654	WORD	n/a	wordpools/wordpool_categorized_EN.txt	GOAT	Farmanimals	12	5	[0, 0, 0]	n/a	catFR1	0	R1366J
772.098	0.002	851254	WORD_OFF	n/a	n/a	GOAT	Farmanimals	12	5	[0, 0, 0]	n/a	catFR1	0	R1366J
772.1	0.0	851254	ENCODING_END	n/a	n/a	n/a	n/a	-999	5	[0, 0, 0]	n/a	catFR1	0	R1366J
772.099	0.001	851257	PROB	5.033	n/a	n/a	n/a	-999	5	[2, 3, 4]	9.0	catFR1	0	R1366J
772.1	0.0	851258	START	n/a	n/a	n/a	n/a	-999	5	[-999, -999, -999]	n/a	catFR1	0	R1366J
772.1	5.049	851261	DISTRACT_START	n/a	n/a	n/a	n/a	-999	5	[0, 0, 0]	n/a	catFR1	0	R1366J
777.149	5.15	856307	PROB	5.133	n/a	n/a	n/a	-999	5	[1, 8, 3]	12.0	catFR1	0	R1366J
782.299	6.016	861457	PROB	5.999	n/a	n/a	n/a	-999	5	[6, 5, 1]	12.0	catFR1	0	R1366J
788.315	3.867	867473	PROB	3.85	n/a	n/a	n/a	-999	5	[1, 7, 7]	15.0	catFR1	0	R1366J
792.182	0.0	871338	DISTRACT_END	n/a	n/a	n/a	n/a	-999	5	[0, 0, 0]	n/a	catFR1	0	R1366J
792.182	1.182	871340	STOP	n/a	n/a	n/a	n/a	-999	5	[-999, -999, -999]	n/a	catFR1	0	R1366J
793.364	22.457	872522	REC_START	n/a	n/a	n/a	n/a	-999	5	[0, 0, 0]	n/a	catFR1	0	R1366J
815.821	1.055	894978	REC_WORD	22.457	n/a	BLOUSE	Clothing	3	5	[0, 0, 0]	n/a	catFR1	0	R1366J
816.876	6.733	896033	REC_WORD	23.512	n/a	FINGERS	Bodyparts	-999	5	[0, 0, 0]	n/a	catFR1	0	R1366J
823.609	4.49	902763	REC_END	n/a	n/a	n/a	n/a	-999	5	[0, 0, 0]	n/a	catFR1	0	R1366J
828.099	10.0	907257	COUNTDOWN_START	n/a	n/a	n/a	n/a	-999	6	[0, 0, 0]	n/a	catFR1	0	R1366J
838.458	0.0	917614	COUNTDOWN_END	n/a	n/a	n/a	n/a	-999	6	[0, 0, 0]	n/a	catFR1	0	R1366J
838.458	2.057	917614	ENCODING_START	n/a	n/a	n/a	n/a	-999	6	[0, 0, 0]	n/a	catFR1	0	R1366J
840.515	1.6	919672	WORD	n/a	wordpools/wordpool_categorized_EN.txt	SHIRT	Clothing	1	6	[0, 0, 0]	n/a	catFR1	0	R1366J
842.115	0.85	921271	WORD_OFF	n/a	n/a	SHIRT	Clothing	1	6	[0, 0, 0]	n/a	catFR1	0	R1366J
842.965	1.6	922122	WORD	n/a	wordpools/wordpool_categorized_EN.txt	SOCKS	Clothing	2	6	[0, 0, 0]	n/a	catFR1	0	R1366J
844.582	0.9	923736	WORD_OFF	n/a	n/a	SOCKS	Clothing	2	6	[0, 0, 0]	n/a	catFR1	0	R1366J
845.482	1.6	924639	WORD	n/a	wordpools/wordpool_categorized_EN.txt	KNEE	Bodyparts	3	6	[0, 0, 0]	n/a	catFR1	0	R1366J
847.098	0.8	926253	WORD_OFF	n/a	n/a	KNEE	Bodyparts	3	6	[0, 0, 0]	n/a	catFR1	0	R1366J
847.898	1.6	927053	WORD	n/a	wordpools/wordpool_categorized_EN.txt	HEAD	Bodyparts	4	6	[0, 0, 0]	n/a	catFR1	0	R1366J
849.498	0.85	928652	WORD_OFF	n/a	n/a	HEAD	Bodyparts	4	6	[0, 0, 0]	n/a	catFR1	0	R1366J
850.348	1.6	929503	WORD	n/a	wordpools/wordpool_categorized_EN.txt	BEAR	Zoo	5	6	[0, 0, 0]	n/a	catFR1	0	R1366J
851.948	0.9	931102	WORD_OFF	n/a	n/a	BEAR	Zoo	5	6	[0, 0, 0]	n/a	catFR1	0	R1366J
852.848	1.6	932005	WORD	n/a	wordpools/wordpool_categorized_EN.txt	GIRAFFE	Zoo	6	6	[0, 0, 0]	n/a	catFR1	0	R1366J
854.448	0.967	933604	WORD_OFF	n/a	n/a	GIRAFFE	Zoo	6	6	[0, 0, 0]	n/a	catFR1	0	R1366J
855.415	1.6	934567	WORD	n/a	wordpools/wordpool_categorized_EN.txt	JEANS	Clothing	7	6	[0, 0, 0]	n/a	catFR1	0	R1366J
857.015	0.933	936166	WORD_OFF	n/a	n/a	JEANS	Clothing	7	6	[0, 0, 0]	n/a	catFR1	0	R1366J
857.948	1.6	937099	WORD	n/a	wordpools/wordpool_categorized_EN.txt	SKIRT	Clothing	8	6	[0, 0, 0]	n/a	catFR1	0	R1366J
859.548	0.767	938705	WORD_OFF	n/a	n/a	SKIRT	Clothing	8	6	[0, 0, 0]	n/a	catFR1	0	R1366J
860.315	1.6	939467	WORD	n/a	wordpools/wordpool_categorized_EN.txt	EAR	Bodyparts	9	6	[0, 0, 0]	n/a	catFR1	0	R1366J
861.931	0.784	941081	WORD_OFF	n/a	n/a	EAR	Bodyparts	9	6	[0, 0, 0]	n/a	catFR1	0	R1366J
862.715	1.6	941866	WORD	n/a	wordpools/wordpool_categorized_EN.txt	HAND	Bodyparts	10	6	[0, 0, 0]	n/a	catFR1	0	R1366J
864.315	0.85	943465	WORD_OFF	n/a	n/a	HAND	Bodyparts	10	6	[0, 0, 0]	n/a	catFR1	0	R1366J
865.165	1.6	944316	WORD	n/a	wordpools/wordpool_categorized_EN.txt	ELEPHANT	Zoo	11	6	[0, 0, 0]	n/a	catFR1	0	R1366J
866.764	0.884	945915	WORD_OFF	n/a	n/a	ELEPHANT	Zoo	11	6	[0, 0, 0]	n/a	catFR1	0	R1366J
867.648	1.6	946804	WORD	n/a	wordpools/wordpool_categorized_EN.txt	CHEETAH	Zoo	12	6	[0, 0, 0]	n/a	catFR1	0	R1366J
869.264	0.002	948418	WORD_OFF	n/a	n/a	CHEETAH	Zoo	12	6	[0, 0, 0]	n/a	catFR1	0	R1366J
869.266	0.0	948418	ENCODING_END	n/a	n/a	n/a	n/a	-999	6	[0, 0, 0]	n/a	catFR1	0	R1366J
869.265	0.001	948419	PROB	7.966	n/a	n/a	n/a	-999	6	[8, 4, 5]	17.0	catFR1	0	R1366J
869.266	0.0	948420	START	n/a	n/a	n/a	n/a	-999	6	[-999, -999, -999]	n/a	catFR1	0	R1366J
869.266	7.982	948425	DISTRACT_START	n/a	n/a	n/a	n/a	-999	6	[0, 0, 0]	n/a	catFR1	0	R1366J
877.248	4.351	956402	PROB	4.333	n/a	n/a	n/a	-999	6	[5, 3, 3]	11.0	catFR1	0	R1366J
881.599	4.149	960753	PROB	4.133	n/a	n/a	n/a	-999	6	[2, 3, 5]	10.0	catFR1	0	R1366J
885.748	6.534	964902	PROB	6.517	n/a	n/a	n/a	-999	6	[7, 2, 3]	12.0	catFR1	0	R1366J
892.282	0.0	971434	DISTRACT_END	n/a	n/a	n/a	n/a	-999	6	[0, 0, 0]	n/a	catFR1	0	R1366J
892.282	1.067	971436	STOP	n/a	n/a	n/a	n/a	-999	6	[-999, -999, -999]	n/a	catFR1	0	R1366J
893.349	3.789	972500	REC_START	n/a	n/a	n/a	n/a	-999	6	[0, 0, 0]	n/a	catFR1	0	R1366J
897.138	0.86	976291	REC_WORD	3.789	n/a	HAND	Bodyparts	10	6	[0, 0, 0]	n/a	catFR1	0	R1366J
897.998	4.598	977151	REC_WORD	4.649	n/a	KNEE	Bodyparts	3	6	[0, 0, 0]	n/a	catFR1	0	R1366J
902.596	2.181	981749	REC_WORD	9.247	n/a	BLOUSE	Clothing	-999	6	[0, 0, 0]	n/a	catFR1	0	R1366J
904.777	14.799	983930	REC_WORD	11.428	n/a	FINGERS	Bodyparts	-999	6	[0, 0, 0]	n/a	catFR1	0	R1366J
919.576	1.0	998728	REC_WORD_VV	26.227	n/a	<>	n/a	-999	6	[0, 0, 0]	n/a	catFR1	0	R1366J
920.576	3.034	999728	REC_WORD_VV	27.227	n/a	<>	n/a	-999	6	[0, 0, 0]	n/a	catFR1	0	R1366J
923.61	2.539	1002763	REC_END	n/a	n/a	n/a	n/a	-999	6	[0, 0, 0]	n/a	catFR1	0	R1366J
926.149	10.0	1005302	COUNTDOWN_START	n/a	n/a	n/a	n/a	-999	7	[0, 0, 0]	n/a	catFR1	0	R1366J
936.509	0.0	1015659	COUNTDOWN_END	n/a	n/a	n/a	n/a	-999	7	[0, 0, 0]	n/a	catFR1	0	R1366J
936.509	2.123	1015659	ENCODING_START	n/a	n/a	n/a	n/a	-999	7	[0, 0, 0]	n/a	catFR1	0	R1366J
938.632	1.6	1017784	WORD	n/a	wordpools/wordpool_categorized_EN.txt	WIND	Weather	1	7	[0, 0, 0]	n/a	catFR1	0	R1366J
940.232	0.983	1019383	WORD_OFF	n/a	n/a	WIND	Weather	1	7	[0, 0, 0]	n/a	catFR1	0	R1366J
941.215	1.6	1020367	WORD	n/a	wordpools/wordpool_categorized_EN.txt	HUMIDITY	Weather	2	7	[0, 0, 0]	n/a	catFR1	0	R1366J
942.815	0.85	1021966	WORD_OFF	n/a	n/a	HUMIDITY	Weather	2	7	[0, 0, 0]	n/a	catFR1	0	R1366J
943.665	1.6	1022818	WORD	n/a	wordpools/wordpool_categorized_EN.txt	TURKEY	Farmanimals	3	7	[0, 0, 0]	n/a	catFR1	0	R1366J
945.265	0.784	1024417	WORD_OFF	n/a	n/a	TURKEY	Farmanimals	3	7	[0, 0, 0]	n/a	catFR1	0	R1366J
946.049	1.6	1025201	WORD	n/a	wordpools/wordpool_categorized_EN.txt	SHEEP	Farmanimals	4	7	[0, 0, 0]	n/a	catFR1	0	R1366J
947.665	0.85	1026815	WORD_OFF	n/a	n/a	SHEEP	Farmanimals	4	7	[0, 0, 0]	n/a	catFR1	0	R1366J
948.515	1.6	1027667	WORD	n/a	wordpools/wordpool_categorized_EN.txt	FOLDER	Officesupplies	5	7	[0, 0, 0]	n/a	catFR1	0	R1366J
950.115	0.933	1029266	WORD_OFF	n/a	n/a	FOLDER	Officesupplies	5	7	[0, 0, 0]	n/a	catFR1	0	R1366J
951.048	1.6	1030198	WORD	n/a	wordpools/wordpool_categorized_EN.txt	NOTEBOOK	Officesupplies	6	7	[0, 0, 0]	n/a	catFR1	0	R1366J
952.665	0.95	1031812	WORD_OFF	n/a	n/a	NOTEBOOK	Officesupplies	6	7	[0, 0, 0]	n/a	catFR1	0	R1366J
953.615	1.6	1032767	WORD	n/a	wordpools/wordpool_categorized_EN.txt	RAIN	Weather	7	7	[0, 0, 0]	n/a	catFR1	0	R1366J
955.215	0.95	1034366	WORD_OFF	n/a	n/a	RAIN	Weather	7	7	[0, 0, 0]	n/a	catFR1	0	R1366J
956.165	1.6	1035314	WORD	n/a	wordpools/wordpool_categorized_EN.txt	DRIZZLE	Weather	8	7	[0, 0, 0]	n/a	catFR1	0	R1366J
957.765	0.966	1036913	WORD_OFF	n/a	n/a	DRIZZLE	Weather	8	7	[0, 0, 0]	n/a	catFR1	0	R1366J
958.731	1.6	1037883	WORD	n/a	wordpools/wordpool_categorized_EN.txt	COW	Farmanimals	9	7	[0, 0, 0]	n/a	catFR1	0	R1366J
960.331	0.833	1039482	WORD_OFF	n/a	n/a	COW	Farmanimals	9	7	[0, 0, 0]	n/a	catFR1	0	R1366J
961.164	1.6	1040311	WORD	n/a	wordpools/wordpool_categorized_EN.txt	BULL	Farmanimals	10	7	[0, 0, 0]	n/a	catFR1	0	R1366J
962.781	0.817	1041932	WORD_OFF	n/a	n/a	BULL	Farmanimals	10	7	[0, 0, 0]	n/a	catFR1	0	R1366J
963.598	1.6	1042746	WORD	n/a	wordpools/wordpool_categorized_EN.txt	GLUE	Officesupplies	11	7	[0, 0, 0]	n/a	catFR1	0	R1366J
965.214	0.817	1044360	WORD_OFF	n/a	n/a	GLUE	Officesupplies	11	7	[0, 0, 0]	n/a	catFR1	0	R1366J
966.031	1.6	1045182	WORD	n/a	wordpools/wordpool_categorized_EN.txt	MARKER	Officesupplies	12	7	[0, 0, 0]	n/a	catFR1	0	R1366J
967.631	0.001	1046781	WORD_OFF	n/a	n/a	MARKER	Officesupplies	12	7	[0, 0, 0]	n/a	catFR1	0	R1366J
967.632	0.0	1046781	ENCODING_END	n/a	n/a	n/a	n/a	-999	7	[0, 0, 0]	n/a	catFR1	0	R1366J
967.632	0.0	1046781	DISTRACT_START	n/a	n/a	n/a	n/a	-999	7	[0, 0, 0]	n/a	catFR1	0	R1366J
967.632	0.0	1046782	START	n/a	n/a	n/a	n/a	-999	7	[-999, -999, -999]	n/a	catFR1	0	R1366J
967.632	6.367	1046782	PROB	6.349	n/a	n/a	n/a	-999	7	[2, 6, 7]	15.0	catFR1	0	R1366J
973.999	5.633	1053149	PROB	5.616	n/a	n/a	n/a	-999	7	[6, 7, 5]	18.0	catFR1	0	R1366J
979.632	3.234	1058782	PROB	3.217	n/a	n/a	n/a	-999	7	[2, 4, 6]	12.0	catFR1	0	R1366J
982.866	3.349	1062016	PROB	3.333	n/a	n/a	n/a	-999	7	[6, 1, 7]	14.0	catFR1	0	R1366J
986.215	5.017	1065365	PROB	4.999	n/a	n/a	n/a	-999	7	[3, 6, 5]	14.0	catFR1	0	R1366J
991.232	0.0	1070382	DISTRACT_END	n/a	n/a	n/a	n/a	-999	7	[0, 0, 0]	n/a	catFR1	0	R1366J
991.232	1.033	1070382	STOP	n/a	n/a	n/a	n/a	-999	7	[-999, -999, -999]	n/a	catFR1	0	R1366J
992.265	17.988	1071411	REC_START	n/a	n/a	n/a	n/a	-999	7	[0, 0, 0]	n/a	catFR1	0	R1366J
1010.253	12.289	1089402	REC_WORD	17.988	n/a	WIND	Weather	1	7	[0, 0, 0]	n/a	catFR1	0	R1366J
1022.542	8.207	1101689	REC_END	n/a	n/a	n/a	n/a	-999	7	[0, 0, 0]	n/a	catFR1	0	R1366J
1030.749	10.0	1109899	COUNTDOWN_START	n/a	n/a	n/a	n/a	-999	8	[0, 0, 0]	n/a	catFR1	0	R1366J
1041.109	0.0	1120256	COUNTDOWN_END	n/a	n/a	n/a	n/a	-999	8	[0, 0, 0]	n/a	catFR1	0	R1366J
1041.109	2.056	1120256	ENCODING_START	n/a	n/a	n/a	n/a	-999	8	[0, 0, 0]	n/a	catFR1	0	R1366J
1043.165	1.6	1122314	WORD	n/a	wordpools/wordpool_categorized_EN.txt	PLUM	Fruit	1	8	[0, 0, 0]	n/a	catFR1	0	R1366J
1044.765	0.85	1123913	WORD_OFF	n/a	n/a	PLUM	Fruit	1	8	[0, 0, 0]	n/a	catFR1	0	R1366J
1045.615	1.6	1124764	WORD	n/a	wordpools/wordpool_categorized_EN.txt	BANANA	Fruit	2	8	[0, 0, 0]	n/a	catFR1	0	R1366J
1047.232	0.85	1126378	WORD_OFF	n/a	n/a	BANANA	Fruit	2	8	[0, 0, 0]	n/a	catFR1	0	R1366J
1048.082	1.6	1127229	WORD	n/a	wordpools/wordpool_categorized_EN.txt	SAW	Tools	3	8	[0, 0, 0]	n/a	catFR1	0	R1366J
1049.698	0.75	1128843	WORD_OFF	n/a	n/a	SAW	Tools	3	8	[0, 0, 0]	n/a	catFR1	0	R1366J
1050.448	1.6	1129591	WORD	n/a	wordpools/wordpool_categorized_EN.txt	SCREWDRIVER	Tools	4	8	[0, 0, 0]	n/a	catFR1	0	R1366J
1052.065	0.833	1131212	WORD_OFF	n/a	n/a	SCREWDRIVER	Tools	4	8	[0, 0, 0]	n/a	catFR1	0	R1366J
1052.898	1.6	1132041	WORD	n/a	wordpools/wordpool_categorized_EN.txt	CARDINAL	Birds	5	8	[0, 0, 0]	n/a	catFR1	0	R1366J
1054.498	0.784	1133641	WORD_OFF	n/a	n/a	CARDINAL	Birds	5	8	[0, 0, 0]	n/a	catFR1	0	R1366J
1055.282	1.6	1134425	WORD	n/a	wordpools/wordpool_categorized_EN.txt	BLUEBIRD	Birds	6	8	[0, 0, 0]	n/a	catFR1	0	R1366J
1056.898	0.934	1136046	WORD_OFF	n/a	n/a	BLUEBIRD	Birds	6	8	[0, 0, 0]	n/a	catFR1	0	R1366J
1057.832	1.6	1136979	WORD	n/a	wordpools/wordpool_categorized_EN.txt	HAMMER	Tools	7	8	[0, 0, 0]	n/a	catFR1	0	R1366J
1059.431	0.85	1138578	WORD_OFF	n/a	n/a	HAMMER	Tools	7	8	[0, 0, 0]	n/a	catFR1	0	R1366J
1060.281	1.6	1139429	WORD	n/a	wordpools/wordpool_categorized_EN.txt	SANDER	Tools	8	8	[0, 0, 0]	n/a	catFR1	0	R1366J
1061.882	0.866	1141028	WORD_OFF	n/a	n/a	SANDER	Tools	8	8	[0, 0, 0]	n/a	catFR1	0	R1366J
1062.748	1.6	1141895	WORD	n/a	wordpools/wordpool_categorized_EN.txt	STRAWBERRY	Fruit	9	8	[0, 0, 0]	n/a	catFR1	0	R1366J
1064.348	0.767	1143494	WORD_OFF	n/a	n/a	STRAWBERRY	Fruit	9	8	[0, 0, 0]	n/a	catFR1	0	R1366J
1065.115	1.6	1144256	WORD	n/a	wordpools/wordpool_categorized_EN.txt	PEAR	Fruit	10	8	[0, 0, 0]	n/a	catFR1	0	R1366J
1066.715	0.917	1145863	WORD_OFF	n/a	n/a	PEAR	Fruit	10	8	[0, 0, 0]	n/a	catFR1	0	R1366J
1067.632	1.6	1146773	WORD	n/a	wordpools/wordpool_categorized_EN.txt	SPARROW	Birds	11	8	[0, 0, 0]	n/a	catFR1	0	R1366J
1069.231	0.85	1148380	WORD_OFF	n/a	n/a	SPARROW	Birds	11	8	[0, 0, 0]	n/a	catFR1	0	R1366J
1070.081	1.6	1149224	WORD	n/a	wordpools/wordpool_categorized_EN.txt	SEAGULL	Birds	12	8	[0, 0, 0]	n/a	catFR1	0	R1366J
1071.681	0.001	1150823	WORD_OFF	n/a	n/a	SEAGULL	Birds	12	8	[0, 0, 0]	n/a	catFR1	0	R1366J
1071.682	0.001	1150828	PROB	13.65	n/a	n/a	n/a	-999	8	[5, 6, 7]	18.0	catFR1	0	R1366J
1071.683	0.0	1150829	START	n/a	n/a	n/a	n/a	-999	8	[-999, -999, -999]	n/a	catFR1	0	R1366J
1071.683	0.0	1150830	ENCODING_END	n/a	n/a	n/a	n/a	-999	8	[0, 0, 0]	n/a	catFR1	0	R1366J
1071.683	13.665	1150830	DISTRACT_START	n/a	n/a	n/a	n/a	-999	8	[0, 0, 0]	n/a	catFR1	0	R1366J
1085.348	6.484	1164494	PROB	6.467	n/a	n/a	n/a	-999	8	[5, 7, 8]	20.0	catFR1	0	R1366J
1091.832	0.0	1170974	DISTRACT_END	n/a	n/a	n/a	n/a	-999	8	[0, 0, 0]	n/a	catFR1	0	R1366J
1091.832	1.1	1170977	STOP	n/a	n/a	n/a	n/a	-999	8	[-999, -999, -999]	n/a	catFR1	0	R1366J
1092.932	6.394	1172077	REC_START	n/a	n/a	n/a	n/a	-999	8	[0, 0, 0]	n/a	catFR1	0	R1366J
1099.326	1.55	1178471	REC_WORD	6.394	n/a	SPARROW	Birds	11	8	[0, 0, 0]	n/a	catFR1	0	R1366J
1100.876	2.256	1180021	REC_WORD	7.944	n/a	PIGEON	n/a	-999	8	[0, 0, 0]	n/a	catFR1	0	R1366J
1103.132	5.28	1182277	REC_WORD	10.2	n/a	PEAR	Fruit	10	8	[0, 0, 0]	n/a	catFR1	0	R1366J
1108.412	0.615	1187557	REC_WORD	15.48	n/a	PINEAPPLE	n/a	-999	8	[0, 0, 0]	n/a	catFR1	0	R1366J
1109.027	14.165	1188172	REC_WORD_VV	16.095	n/a	<>	n/a	-999	8	[0, 0, 0]	n/a	catFR1	0	R1366J
1123.192	4.257	1202333	REC_END	n/a	n/a	n/a	n/a	-999	8	[0, 0, 0]	n/a	catFR1	0	R1366J
1127.449	10.0	1206597	COUNTDOWN_START	n/a	n/a	n/a	n/a	-999	9	[0, 0, 0]	n/a	catFR1	0	R1366J
1137.813	0.0	1216953	COUNTDOWN_END	n/a	n/a	n/a	n/a	-999	9	[0, 0, 0]	n/a	catFR1	0	R1366J
1137.813	2.086	1216961	ENCODING_START	n/a	n/a	n/a	n/a	-999	9	[0, 0, 0]	n/a	catFR1	0	R1366J
1139.899	1.6	1219041	WORD	n/a	wordpools/wordpool_categorized_EN.txt	SHORTS	Clothing	1	9	[0, 0, 0]	n/a	catFR1	0	R1366J
1141.514	0.868	1220655	WORD_OFF	n/a	n/a	SHORTS	Clothing	1	9	[0, 0, 0]	n/a	catFR1	0	R1366J
1142.382	1.6	1221521	WORD	n/a	wordpools/wordpool_categorized_EN.txt	DRESS	Clothing	2	9	[0, 0, 0]	n/a	catFR1	0	R1366J
1143.982	0.95	1223128	WORD_OFF	n/a	n/a	DRESS	Clothing	2	9	[0, 0, 0]	n/a	catFR1	0	R1366J
1144.932	1.6	1224075	WORD	n/a	wordpools/wordpool_categorized_EN.txt	WINDOW	Building	3	9	[0, 0, 0]	n/a	catFR1	0	R1366J
1146.549	0.833	1225689	WORD_OFF	n/a	n/a	WINDOW	Building	3	9	[0, 0, 0]	n/a	catFR1	0	R1366J
1147.382	1.6	1226525	WORD	n/a	wordpools/wordpool_categorized_EN.txt	ATTIC	Building	4	9	[0, 0, 0]	n/a	catFR1	0	R1366J
1148.982	0.85	1228125	WORD_OFF	n/a	n/a	ATTIC	Building	4	9	[0, 0, 0]	n/a	catFR1	0	R1366J
1149.832	1.6	1228976	WORD	n/a	wordpools/wordpool_categorized_EN.txt	CELLO	Instruments	5	9	[0, 0, 0]	n/a	catFR1	0	R1366J
1151.432	0.983	1230575	WORD_OFF	n/a	n/a	CELLO	Instruments	5	9	[0, 0, 0]	n/a	catFR1	0	R1366J
1152.415	1.6	1231560	WORD	n/a	wordpools/wordpool_categorized_EN.txt	GUITAR	Instruments	6	9	[0, 0, 0]	n/a	catFR1	0	R1366J
1154.015	0.884	1233159	WORD_OFF	n/a	n/a	GUITAR	Instruments	6	9	[0, 0, 0]	n/a	catFR1	0	R1366J
1154.899	1.6	1234040	WORD	n/a	wordpools/wordpool_categorized_EN.txt	COAT	Clothing	7	9	[0, 0, 0]	n/a	catFR1	0	R1366J
1156.499	0.933	1235639	WORD_OFF	n/a	n/a	COAT	Clothing	7	9	[0, 0, 0]	n/a	catFR1	0	R1366J
1157.432	1.6	1236571	WORD	n/a	wordpools/wordpool_categorized_EN.txt	JACKET	Clothing	8	9	[0, 0, 0]	n/a	catFR1	0	R1366J
1159.049	0.866	1238193	WORD_OFF	n/a	n/a	JACKET	Clothing	8	9	[0, 0, 0]	n/a	catFR1	0	R1366J
1159.915	1.6	1239059	WORD	n/a	wordpools/wordpool_categorized_EN.txt	FLUTE	Instruments	9	9	[0, 0, 0]	n/a	catFR1	0	R1366J
1161.515	0.933	1240658	WORD_OFF	n/a	n/a	FLUTE	Instruments	9	9	[0, 0, 0]	n/a	catFR1	0	R1366J
1162.448	1.6	1241591	WORD	n/a	wordpools/wordpool_categorized_EN.txt	BASS	Instruments	10	9	[0, 0, 0]	n/a	catFR1	0	R1366J
1164.048	0.817	1243190	WORD_OFF	n/a	n/a	BASS	Instruments	10	9	[0, 0, 0]	n/a	catFR1	0	R1366J
1164.865	1.6	1244004	WORD	n/a	wordpools/wordpool_categorized_EN.txt	FOUNDATION	Building	11	9	[0, 0, 0]	n/a	catFR1	0	R1366J
1166.465	0.883	1245603	WORD_OFF	n/a	n/a	FOUNDATION	Building	11	9	[0, 0, 0]	n/a	catFR1	0	R1366J
1167.348	1.6	1246491	WORD	n/a	wordpools/wordpool_categorized_EN.txt	DOOR	Building	12	9	[0, 0, 0]	n/a	catFR1	0	R1366J
1168.949	0.006	1248091	PROB	6.599	n/a	n/a	n/a	-999	9	[8, 8, 6]	22.0	catFR1	0	R1366J
1168.955	0.0	1248097	START	n/a	n/a	n/a	n/a	-999	9	[-999, -999, -999]	n/a	catFR1	0	R1366J
1168.948	0.007	1248098	WORD_OFF	n/a	n/a	DOOR	Building	12	9	[0, 0, 0]	n/a	catFR1	0	R1366J
1168.955	0.0	1248098	ENCODING_END	n/a	n/a	n/a	n/a	-999	9	[0, 0, 0]	n/a	catFR1	0	R1366J
1168.955	6.609	1248098	DISTRACT_START	n/a	n/a	n/a	n/a	-999	9	[0, 0, 0]	n/a	catFR1	0	R1366J
1175.564	4.967	1254706	PROB	4.95	n/a	n/a	n/a	-999	9	[3, 2, 7]	12.0	catFR1	0	R1366J
1180.531	3.784	1259673	PROB	3.767	n/a	n/a	n/a	-999	9	[1, 6, 2]	9.0	catFR1	0	R1366J
1184.315	2.449	1263457	PROB	2.434	n/a	n/a	n/a	-999	9	[3, 3, 3]	9.0	catFR1	0	R1366J
1186.764	3.218	1265906	PROB	3.201	n/a	n/a	n/a	-999	9	[6, 4, 1]	11.0	catFR1	0	R1366J
1189.982	0.0	1269122	DISTRACT_END	n/a	n/a	n/a	n/a	-999	9	[0, 0, 0]	n/a	catFR1	0	R1366J
1189.982	1.083	1269123	STOP	n/a	n/a	n/a	n/a	-999	9	[-999, -999, -999]	n/a	catFR1	0	R1366J
1191.065	3.35	1270203	REC_START	n/a	n/a	n/a	n/a	-999	9	[0, 0, 0]	n/a	catFR1	0	R1366J
1194.415	1.592	1273556	REC_WORD	3.35	n/a	SHORTS	Clothing	1	9	[0, 0, 0]	n/a	catFR1	0	R1366J
1196.007	1.407	1275148	REC_WORD	4.942	n/a	DRESS	Clothing	2	9	[0, 0, 0]	n/a	catFR1	0	R1366J
1197.414	1.534	1276555	REC_WORD	6.349	n/a	WINDOW	Building	3	9	[0, 0, 0]	n/a	catFR1	0	R1366J
1198.948	10.143	1278089	REC_WORD	7.883	n/a	FOUNDATION	Building	11	9	[0, 0, 0]	n/a	catFR1	0	R1366J
1209.091	12.249	1288232	REC_WORD	18.026	n/a	CELLO	Instruments	5	9	[0, 0, 0]	n/a	catFR1	0	R1366J
1221.34	2.609	1300481	REC_END	n/a	n/a	n/a	n/a	-999	9	[0, 0, 0]	n/a	catFR1	0	R1366J
1223.949	10.0	1303087	COUNTDOWN_START	n/a	n/a	n/a	n/a	-999	10	[0, 0, 0]	n/a	catFR1	0	R1366J
1234.309	0.0	1313451	COUNTDOWN_END	n/a	n/a	n/a	n/a	-999	10	[0, 0, 0]	n/a	catFR1	0	R1366J
1234.309	2.073	1313451	ENCODING_START	n/a	n/a	n/a	n/a	-999	10	[0, 0, 0]	n/a	catFR1	0	R1366J
1236.382	1.6	1315517	WORD	n/a	wordpools/wordpool_categorized_EN.txt	APPLE	Fruit	1	10	[0, 0, 0]	n/a	catFR1	0	R1366J
1237.982	0.816	1317123	WORD_OFF	n/a	n/a	APPLE	Fruit	1	10	[0, 0, 0]	n/a	catFR1	0	R1366J
1238.798	1.6	1317938	WORD	n/a	wordpools/wordpool_categorized_EN.txt	LIME	Fruit	2	10	[0, 0, 0]	n/a	catFR1	0	R1366J
1240.415	0.834	1319551	WORD_OFF	n/a	n/a	LIME	Fruit	2	10	[0, 0, 0]	n/a	catFR1	0	R1366J
1241.249	1.6	1320388	WORD	n/a	wordpools/wordpool_categorized_EN.txt	STAIRS	Building	3	10	[0, 0, 0]	n/a	catFR1	0	R1366J
1242.849	0.883	1321987	WORD_OFF	n/a	n/a	STAIRS	Building	3	10	[0, 0, 0]	n/a	catFR1	0	R1366J
1243.732	1.6	1322868	WORD	n/a	wordpools/wordpool_categorized_EN.txt	BATHROOM	Building	4	10	[0, 0, 0]	n/a	catFR1	0	R1366J
1245.349	0.8	1324489	WORD_OFF	n/a	n/a	BATHROOM	Building	4	10	[0, 0, 0]	n/a	catFR1	0	R1366J
1246.149	1.6	1325289	WORD	n/a	wordpools/wordpool_categorized_EN.txt	JELLO	Desserts	5	10	[0, 0, 0]	n/a	catFR1	0	R1366J
1247.765	0.799	1326902	WORD_OFF	n/a	n/a	JELLO	Desserts	5	10	[0, 0, 0]	n/a	catFR1	0	R1366J
1248.564	1.6	1327702	WORD	n/a	wordpools/wordpool_categorized_EN.txt	PUDDING	Desserts	6	10	[0, 0, 0]	n/a	catFR1	0	R1366J
1250.165	0.968	1329301	WORD_OFF	n/a	n/a	PUDDING	Desserts	6	10	[0, 0, 0]	n/a	catFR1	0	R1366J
1251.133	1.6	1330271	WORD	n/a	wordpools/wordpool_categorized_EN.txt	ROOM	Building	7	10	[0, 0, 0]	n/a	catFR1	0	R1366J
1252.732	0.766	1331870	WORD_OFF	n/a	n/a	ROOM	Building	7	10	[0, 0, 0]	n/a	catFR1	0	R1366J
1253.498	1.6	1332635	WORD	n/a	wordpools/wordpool_categorized_EN.txt	FLOOR	Building	8	10	[0, 0, 0]	n/a	catFR1	0	R1366J
1255.115	0.8	1334254	WORD_OFF	n/a	n/a	FLOOR	Building	8	10	[0, 0, 0]	n/a	catFR1	0	R1366J
1255.915	1.6	1335053	WORD	n/a	wordpools/wordpool_categorized_EN.txt	LEMON	Fruit	9	10	[0, 0, 0]	n/a	catFR1	0	R1366J
1257.532	0.766	1336667	WORD_OFF	n/a	n/a	LEMON	Fruit	9	10	[0, 0, 0]	n/a	catFR1	0	R1366J
1258.298	1.6	1337437	WORD	n/a	wordpools/wordpool_categorized_EN.txt	GRAPE	Fruit	10	10	[0, 0, 0]	n/a	catFR1	0	R1366J
1259.914	0.967	1339051	WORD_OFF	n/a	n/a	GRAPE	Fruit	10	10	[0, 0, 0]	n/a	catFR1	0	R1366J
1260.881	1.6	1340021	WORD	n/a	wordpools/wordpool_categorized_EN.txt	CUPCAKE	Desserts	11	10	[0, 0, 0]	n/a	catFR1	0	R1366J
1262.481	0.867	1341620	WORD_OFF	n/a	n/a	CUPCAKE	Desserts	11	10	[0, 0, 0]	n/a	catFR1	0	R1366J
1263.348	1.6	1342486	WORD	n/a	wordpools/wordpool_categorized_EN.txt	CHEESECAKE	Desserts	12	10	[0, 0, 0]	n/a	catFR1	0	R1366J
1264.965	0.001	1344100	WORD_OFF	n/a	n/a	CHEESECAKE	Desserts	12	10	[0, 0, 0]	n/a	catFR1	0	R1366J
1264.966	0.0	1344100	ENCODING_END	n/a	n/a	n/a	n/a	-999	10	[0, 0, 0]	n/a	catFR1	0	R1366J
1264.966	0.0	1344104	PROB	4.249	n/a	n/a	n/a	-999	10	[8, 2, 1]	11.0	catFR1	0	R1366J
1264.966	0.0	1344104	START	n/a	n/a	n/a	n/a	-999	10	[-999, -999, -999]	n/a	catFR1	0	R1366J
1264.966	4.266	1344107	DISTRACT_START	n/a	n/a	n/a	n/a	-999	10	[0, 0, 0]	n/a	catFR1	0	R1366J
1269.232	3.333	1348370	PROB	3.316	n/a	n/a	n/a	-999	10	[3, 1, 8]	12.0	catFR1	0	R1366J
1272.565	2.751	1351703	PROB	2.733	n/a	n/a	n/a	-999	10	[1, 3, 3]	7.0	catFR1	0	R1366J
1275.316	6.415	1354454	PROB	6.399	n/a	n/a	n/a	-999	10	[3, 3, 8]	14.0	catFR1	0	R1366J
1281.731	5.167	1360869	PROB	5.15	n/a	n/a	n/a	-999	10	[5, 2, 4]	11.0	catFR1	0	R1366J
1286.898	0.0	1366035	DISTRACT_END	n/a	n/a	n/a	n/a	-999	10	[0, 0, 0]	n/a	catFR1	0	R1366J
1286.898	1.117	1366036	STOP	n/a	n/a	n/a	n/a	-999	10	[-999, -999, -999]	n/a	catFR1	0	R1366J
1288.015	24.646	1367153	REC_START	n/a	n/a	n/a	n/a	-999	10	[0, 0, 0]	n/a	catFR1	0	R1366J
1312.661	0.467	1391798	REC_WORD_VV	24.646	n/a	<>	n/a	-999	10	[0, 0, 0]	n/a	catFR1	0	R1366J
1313.128	0.305	1392264	REC_WORD	25.113	n/a	LIME	Fruit	2	10	[0, 0, 0]	n/a	catFR1	0	R1366J
1313.433	0.552	1392569	REC_WORD	25.418	n/a	FLOOR	Building	8	10	[0, 0, 0]	n/a	catFR1	0	R1366J
1313.985	0.517	1393121	REC_WORD	25.97	n/a	LEMON	Fruit	9	10	[0, 0, 0]	n/a	catFR1	0	R1366J
1314.502	3.751	1393638	REC_WORD	26.487	n/a	HAIR	n/a	-999	10	[0, 0, 0]	n/a	catFR1	0	R1366J
1318.253	3.696	1397386	REC_END	n/a	n/a	n/a	n/a	-999	10	[0, 0, 0]	n/a	catFR1	0	R1366J
1321.949	10.0	1401088	COUNTDOWN_START	n/a	n/a	n/a	n/a	-999	11	[0, 0, 0]	n/a	catFR1	0	R1366J
1332.309	0.0	1411445	COUNTDOWN_END	n/a	n/a	n/a	n/a	-999	11	[0, 0, 0]	n/a	catFR1	0	R1366J
1332.309	1.923	1411445	ENCODING_START	n/a	n/a	n/a	n/a	-999	11	[0, 0, 0]	n/a	catFR1	0	R1366J
1334.232	1.6	1413369	WORD	n/a	wordpools/wordpool_categorized_EN.txt	OVEN	Appliances	1	11	[0, 0, 0]	n/a	catFR1	0	R1366J
1335.849	0.883	1414983	WORD_OFF	n/a	n/a	OVEN	Appliances	1	11	[0, 0, 0]	n/a	catFR1	0	R1366J
1336.732	1.6	1415864	WORD	n/a	wordpools/wordpool_categorized_EN.txt	DISHWASHER	Appliances	2	11	[0, 0, 0]	n/a	catFR1	0	R1366J
1338.349	0.85	1417485	WORD_OFF	n/a	n/a	DISHWASHER	Appliances	2	11	[0, 0, 0]	n/a	catFR1	0	R1366J
1339.199	1.6	1418329	WORD	n/a	wordpools/wordpool_categorized_EN.txt	DRUM	Instruments	3	11	[0, 0, 0]	n/a	catFR1	0	R1366J
1340.799	0.833	1419936	WORD_OFF	n/a	n/a	DRUM	Instruments	3	11	[0, 0, 0]	n/a	catFR1	0	R1366J
1341.632	1.6	1420765	WORD	n/a	wordpools/wordpool_categorized_EN.txt	TUBA	Instruments	4	11	[0, 0, 0]	n/a	catFR1	0	R1366J
1343.232	0.883	1422364	WORD_OFF	n/a	n/a	TUBA	Instruments	4	11	[0, 0, 0]	n/a	catFR1	0	R1366J
1344.115	1.6	1423252	WORD	n/a	wordpools/wordpool_categorized_EN.txt	DESK	Furniture	5	11	[0, 0, 0]	n/a	catFR1	0	R1366J
1345.731	0.851	1424866	WORD_OFF	n/a	n/a	DESK	Furniture	5	11	[0, 0, 0]	n/a	catFR1	0	R1366J
1346.582	1.6	1425718	WORD	n/a	wordpools/wordpool_categorized_EN.txt	COUCH	Furniture	6	11	[0, 0, 0]	n/a	catFR1	0	R1366J
1348.182	0.916	1427317	WORD_OFF	n/a	n/a	COUCH	Furniture	6	11	[0, 0, 0]	n/a	catFR1	0	R1366J
1349.098	1.6	1428235	WORD	n/a	wordpools/wordpool_categorized_EN.txt	TROMBONE	Instruments	7	11	[0, 0, 0]	n/a	catFR1	0	R1366J
1350.698	0.967	1429834	WORD_OFF	n/a	n/a	TROMBONE	Instruments	7	11	[0, 0, 0]	n/a	catFR1	0	R1366J
1351.665	1.6	1430796	WORD	n/a	wordpools/wordpool_categorized_EN.txt	ORGAN	Instruments	8	11	[0, 0, 0]	n/a	catFR1	0	R1366J
1353.281	0.983	1432417	WORD_OFF	n/a	n/a	ORGAN	Instruments	8	11	[0, 0, 0]	n/a	catFR1	0	R1366J
1354.264	1.6	1433394	WORD	n/a	wordpools/wordpool_categorized_EN.txt	BED	Furniture	9	11	[0, 0, 0]	n/a	catFR1	0	R1366J
1355.881	0.901	1435016	WORD_OFF	n/a	n/a	BED	Furniture	9	11	[0, 0, 0]	n/a	catFR1	0	R1366J
1356.782	1.6	1435911	WORD	n/a	wordpools/wordpool_categorized_EN.txt	NIGHTSTAND	Furniture	10	11	[0, 0, 0]	n/a	catFR1	0	R1366J
1358.398	0.8	1437533	WORD_OFF	n/a	n/a	NIGHTSTAND	Furniture	10	11	[0, 0, 0]	n/a	catFR1	0	R1366J
1359.198	1.6	1438332	WORD	n/a	wordpools/wordpool_categorized_EN.txt	DRYER	Appliances	11	11	[0, 0, 0]	n/a	catFR1	0	R1366J
1360.798	0.784	1439931	WORD_OFF	n/a	n/a	DRYER	Appliances	11	11	[0, 0, 0]	n/a	catFR1	0	R1366J
1361.582	1.6	1440716	WORD	n/a	wordpools/wordpool_categorized_EN.txt	VACUUM	Appliances	12	11	[0, 0, 0]	n/a	catFR1	0	R1366J
1363.198	0.002	1442330	WORD_OFF	n/a	n/a	VACUUM	Appliances	12	11	[0, 0, 0]	n/a	catFR1	0	R1366J
1363.2	0.0	1442330	ENCODING_END	n/a	n/a	n/a	n/a	-999	11	[0, 0, 0]	n/a	catFR1	0	R1366J
1363.199	0.001	1442333	PROB	5.532	n/a	n/a	n/a	-999	11	[1, 8, 6]	15.0	catFR1	0	R1366J
1363.2	0.0	1442334	START	n/a	n/a	n/a	n/a	-999	11	[-999, -999, -999]	n/a	catFR1	0	R1366J
1363.2	5.548	1442337	DISTRACT_START	n/a	n/a	n/a	n/a	-999	11	[0, 0, 0]	n/a	catFR1	0	R1366J
1368.748	4.451	1447882	PROB	4.433	n/a	n/a	n/a	-999	11	[8, 8, 7]	23.0	catFR1	0	R1366J
1373.199	5.75	1452333	PROB	5.733	n/a	n/a	n/a	-999	11	[6, 8, 6]	20.0	catFR1	0	R1366J
1378.949	3.766	1458083	PROB	3.749	n/a	n/a	n/a	-999	11	[7, 2, 1]	10.0	catFR1	0	R1366J
1382.715	6.866	1461849	PROB	6.849	n/a	n/a	n/a	-999	11	[6, 5, 3]	14.0	catFR1	0	R1366J
1389.581	0.0	1468714	DISTRACT_END	n/a	n/a	n/a	n/a	-999	11	[0, 0, 0]	n/a	catFR1	0	R1366J
1389.581	1.017	1468714	STOP	n/a	n/a	n/a	n/a	-999	11	[-999, -999, -999]	n/a	catFR1	0	R1366J
1390.598	2.82	1469728	REC_START	n/a	n/a	n/a	n/a	-999	11	[0, 0, 0]	n/a	catFR1	0	R1366J
1393.418	2.114	1472551	REC_WORD	2.82	n/a	TROMBONE	Instruments	7	11	[0, 0, 0]	n/a	catFR1	0	R1366J
1395.532	0.81	1474665	REC_WORD	4.934	n/a	DESK	Furniture	5	11	[0, 0, 0]	n/a	catFR1	0	R1366J
1396.342	2.11	1475475	REC_WORD	5.744	n/a	WARM	n/a	-999	11	[0, 0, 0]	n/a	catFR1	0	R1366J
1398.452	22.41	1477585	REC_WORD	7.854	n/a	NIGHTSTAND	Furniture	10	11	[0, 0, 0]	n/a	catFR1	0	R1366J
1420.862	4.22	1499992	REC_END	n/a	n/a	n/a	n/a	-999	11	[0, 0, 0]	n/a	catFR1	0	R1366J
1425.082	10.0	1504211	COUNTDOWN_START	n/a	n/a	n/a	n/a	-999	12	[0, 0, 0]	n/a	catFR1	0	R1366J
1435.441	0.0	1514575	COUNTDOWN_END	n/a	n/a	n/a	n/a	-999	12	[0, 0, 0]	n/a	catFR1	0	R1366J
1435.441	2.207	1514575	ENCODING_START	n/a	n/a	n/a	n/a	-999	12	[0, 0, 0]	n/a	catFR1	0	R1366J
1437.648	1.6	1516782	WORD	n/a	wordpools/wordpool_categorized_EN.txt	TABLE	Furniture	1	12	[0, 0, 0]	n/a	catFR1	0	R1366J
1439.249	0.932	1518381	WORD_OFF	n/a	n/a	TABLE	Furniture	1	12	[0, 0, 0]	n/a	catFR1	0	R1366J
1440.181	1.6	1519313	WORD	n/a	wordpools/wordpool_categorized_EN.txt	BOOKCASE	Furniture	2	12	[0, 0, 0]	n/a	catFR1	0	R1366J
1441.781	0.801	1520912	WORD_OFF	n/a	n/a	BOOKCASE	Furniture	2	12	[0, 0, 0]	n/a	catFR1	0	R1366J
1442.582	1.6	1521712	WORD	n/a	wordpools/wordpool_categorized_EN.txt	ROOSTER	Farmanimals	3	12	[0, 0, 0]	n/a	catFR1	0	R1366J
1444.182	0.767	1523311	WORD_OFF	n/a	n/a	ROOSTER	Farmanimals	3	12	[0, 0, 0]	n/a	catFR1	0	R1366J
1444.949	1.6	1524081	WORD	n/a	wordpools/wordpool_categorized_EN.txt	CALF	Farmanimals	4	12	[0, 0, 0]	n/a	catFR1	0	R1366J
1446.564	0.918	1525695	WORD_OFF	n/a	n/a	CALF	Farmanimals	4	12	[0, 0, 0]	n/a	catFR1	0	R1366J
1447.482	1.6	1526613	WORD	n/a	wordpools/wordpool_categorized_EN.txt	CREEK	Landscapes	5	12	[0, 0, 0]	n/a	catFR1	0	R1366J
1449.1	0.765	1528227	WORD_OFF	n/a	n/a	CREEK	Landscapes	5	12	[0, 0, 0]	n/a	catFR1	0	R1366J
1449.865	1.6	1528996	WORD	n/a	wordpools/wordpool_categorized_EN.txt	RIVER	Landscapes	6	12	[0, 0, 0]	n/a	catFR1	0	R1366J
1451.465	0.933	1530596	WORD_OFF	n/a	n/a	RIVER	Landscapes	6	12	[0, 0, 0]	n/a	catFR1	0	R1366J
1452.398	1.6	1531528	WORD	n/a	wordpools/wordpool_categorized_EN.txt	SOFA	Furniture	7	12	[0, 0, 0]	n/a	catFR1	0	R1366J
1453.998	0.884	1533127	WORD_OFF	n/a	n/a	SOFA	Furniture	7	12	[0, 0, 0]	n/a	catFR1	0	R1366J
1454.882	1.6	1534008	WORD	n/a	wordpools/wordpool_categorized_EN.txt	SHELF	Furniture	8	12	[0, 0, 0]	n/a	catFR1	0	R1366J
1456.482	0.832	1535615	WORD_OFF	n/a	n/a	SHELF	Furniture	8	12	[0, 0, 0]	n/a	catFR1	0	R1366J
1457.314	1.6	1536444	WORD	n/a	wordpools/wordpool_categorized_EN.txt	CHICKEN	Farmanimals	9	12	[0, 0, 0]	n/a	catFR1	0	R1366J
1458.915	0.883	1538043	WORD_OFF	n/a	n/a	CHICKEN	Farmanimals	9	12	[0, 0, 0]	n/a	catFR1	0	R1366J
1459.798	1.6	1538924	WORD	n/a	wordpools/wordpool_categorized_EN.txt	LAMB	Farmanimals	10	12	[0, 0, 0]	n/a	catFR1	0	R1366J
1461.398	0.784	1540530	WORD_OFF	n/a	n/a	LAMB	Farmanimals	10	12	[0, 0, 0]	n/a	catFR1	0	R1366J
1462.182	1.6	1541308	WORD	n/a	wordpools/wordpool_categorized_EN.txt	HILLS	Landscapes	11	12	[0, 0, 0]	n/a	catFR1	0	R1366J
1463.798	0.933	1542929	WORD_OFF	n/a	n/a	HILLS	Landscapes	11	12	[0, 0, 0]	n/a	catFR1	0	R1366J
1464.731	1.6	1543862	WORD	n/a	wordpools/wordpool_categorized_EN.txt	OCEAN	Landscapes	12	12	[0, 0, 0]	n/a	catFR1	0	R1366J
1466.331	0.002	1545461	WORD_OFF	n/a	n/a	OCEAN	Landscapes	12	12	[0, 0, 0]	n/a	catFR1	0	R1366J
1466.333	0.0	1545461	ENCODING_END	n/a	n/a	n/a	n/a	-999	12	[0, 0, 0]	n/a	catFR1	0	R1366J
1466.332	0.001	1545462	PROB	5.549	n/a	n/a	n/a	-999	12	[3, 3, 8]	14.0	catFR1	0	R1366J
1466.333	0.0	1545463	START	n/a	n/a	n/a	n/a	-999	12	[-999, -999, -999]	n/a	catFR1	0	R1366J
1466.333	5.565	1545468	DISTRACT_START	n/a	n/a	n/a	n/a	-999	12	[0, 0, 0]	n/a	catFR1	0	R1366J
1471.898	5.767	1551028	PROB	5.75	n/a	n/a	n/a	-999	12	[3, 1, 2]	6.0	catFR1	0	R1366J
1477.665	4.217	1556795	PROB	4.2	n/a	n/a	n/a	-999	12	[7, 5, 5]	17.0	catFR1	0	R1366J
1481.882	4.266	1561012	PROB	4.249	n/a	n/a	n/a	-999	12	[7, 4, 5]	16.0	catFR1	0	R1366J
1486.148	5.3	1565278	PROB	5.283	n/a	n/a	n/a	-999	12	[2, 6, 6]	12.0	catFR1	0	R1366J
1491.448	0.0	1570577	STOP	n/a	n/a	n/a	n/a	-999	12	[-999, -999, -999]	n/a	catFR1	0	R1366J
1491.448	1.017	1570579	DISTRACT_END	n/a	n/a	n/a	n/a	-999	12	[0, 0, 0]	n/a	catFR1	0	R1366J
1492.465	3.918	1571593	REC_START	n/a	n/a	n/a	n/a	-999	12	[0, 0, 0]	n/a	catFR1	0	R1366J
1496.383	0.766	1575512	REC_WORD	3.918	n/a	DESK	Furniture	-999	12	[0, 0, 0]	n/a	catFR1	0	R1366J
1497.149	1.289	1576278	REC_WORD	4.684	n/a	CHAIR	Furniture	-999	12	[0, 0, 0]	n/a	catFR1	0	R1366J
1498.438	24.267	1577567	REC_WORD	5.973	n/a	RIVER	Landscapes	6	12	[0, 0, 0]	n/a	catFR1	0	R1366J
1522.705	0.0	1601834	REC_END	n/a	n/a	n/a	n/a	-999	12	[0, 0, 0]	n/a	catFR1	0	R1366J
