onset	duration	sample	trial_type	response_time	stim_file	item_name	category	serialpos	list	test	answer	experiment	session	subject
0.0	14.222	239525	SESS_START	n/a	n/a	n/a	n/a	-999	-999	[0, 0, 0]	n/a	catFR1	0	R1036M
14.222	10.428	246635	COUNTDOWN_START	n/a	n/a	n/a	n/a	-999	-999	[0, 0, 0]	n/a	catFR1	0	R1036M
24.65	3.542	251849	COUNTDOWN_END	n/a	n/a	n/a	n/a	-999	-999	[0, 0, 0]	n/a	catFR1	0	R1036M
28.192	2.417	253620	PRACTICE_WORD	n/a	n/a	TONGUE	n/a	-999	-999	[0, 0, 0]	n/a	catFR1	0	R1036M
30.609	2.517	254828	PRACTICE_WORD	n/a	n/a	CAMEL	n/a	-999	-999	[0, 0, 0]	n/a	catFR1	0	R1036M
33.126	2.384	256087	PRACTICE_WORD	n/a	n/a	RING	n/a	-999	-999	[0, 0, 0]	n/a	catFR1	0	R1036M
35.51	2.5	257279	PRACTICE_WORD	n/a	n/a	COTTON	n/a	-999	-999	[0, 0, 0]	n/a	catFR1	0	R1036M
38.01	2.584	258529	PRACTICE_WORD	n/a	n/a	RHINO	n/a	-999	-999	[0, 0, 0]	n/a	catFR1	0	R1036M
40.594	2.518	259821	PRACTICE_WORD	n/a	n/a	ATTIC	n/a	-999	-999	[0, 0, 0]	n/a	catFR1	0	R1036M
43.112	2.567	261079	PRACTICE_WORD	n/a	n/a	WAGON	n/a	-999	-999	[0, 0, 0]	n/a	catFR1	0	R1036M
45.679	2.45	262363	PRACTICE_WORD	n/a	n/a	WATCH	n/a	-999	-999	[0, 0, 0]	n/a	catFR1	0	R1036M
48.129	2.467	263588	PRACTICE_WORD	n/a	n/a	IRON	n/a	-999	-999	[0, 0, 0]	n/a	catFR1	0	R1036M
50.596	2.401	264821	PRACTICE_WORD	n/a	n/a	CHEST	n/a	-999	-999	[0, 0, 0]	n/a	catFR1	0	R1036M
52.997	2.6	266022	PRACTICE_WORD	n/a	n/a	FLOOD	n/a	-999	-999	[0, 0, 0]	n/a	catFR1	0	R1036M
55.597	1.617	267322	PRACTICE_WORD	n/a	n/a	BEAM	n/a	-999	-999	[0, 0, 0]	n/a	catFR1	0	R1036M
57.214	0.001	268130	PRACTICE_DISTRACT_START	n/a	n/a	n/a	n/a	-999	-999	[0, 0, 0]	n/a	catFR1	0	R1036M
57.215	0.016	268131	START	n/a	n/a	n/a	n/a	-999	-1	[-999, -999, -999]	n/a	catFR1	0	R1036M
57.231	15.47	268139	PROB	15.47	n/a	n/a	n/a	-999	-1	[8, 4, 3]	15	catFR1	0	R1036M
72.701	9.132	275873	PROB	9.132	n/a	n/a	n/a	-999	-1	[8, 5, 5]	18	catFR1	0	R1036M
81.833	0.003	280439	STOP	n/a	n/a	n/a	n/a	-999	-1	[-999, -999, -999]	n/a	catFR1	0	R1036M
81.836	0.686	280440	PRACTICE_DISTRACT_END	n/a	n/a	n/a	n/a	-999	-999	[0, 0, 0]	n/a	catFR1	0	R1036M
82.522	30.514	280783	PRACTICE_REC_START	n/a	n/a	n/a	n/a	-999	-999	[0, 0, 0]	n/a	catFR1	0	R1036M
113.036	64.035	296040	PRACTICE_REC_END	n/a	n/a	n/a	n/a	-999	-999	[0, 0, 0]	n/a	catFR1	0	R1036M
177.071	0.0	328055	TRIAL	n/a	n/a	n/a	n/a	-999	1	[0, 0, 0]	n/a	catFR1	0	R1036M
177.071	10.428	328055	COUNTDOWN_START	n/a	n/a	n/a	n/a	-999	1	[0, 0, 0]	n/a	catFR1	0	R1036M
187.499	0.007	333269	COUNTDOWN_END	n/a	n/a	n/a	n/a	-999	1	[0, 0, 0]	n/a	catFR1	0	R1036M
187.506	3.468	333272	ORIENT	n/a	n/a	n/a	n/a	-999	1	[0, 0, 0]	n/a	catFR1	0	R1036M
190.974	2.383	335006	WORD	n/a	wordpools/wordpool_categorized_EN.txt	MIXER	Appliances	1	1	[0, 0, 0]	n/a	catFR1	0	R1036M
193.357	2.551	336198	WORD	n/a	wordpools/wordpool_categorized_EN.txt	WASHER	Appliances	2	1	[0, 0, 0]	n/a	catFR1	0	R1036M
195.908	2.45	337473	WORD	n/a	wordpools/wordpool_categorized_EN.txt	ARM	BodyParts	3	1	[0, 0, 0]	n/a	catFR1	0	R1036M
198.358	2.368	338698	WORD	n/a	wordpools/wordpool_categorized_EN.txt	LEG	BodyParts	4	1	[0, 0, 0]	n/a	catFR1	0	R1036M
200.726	2.483	339882	WORD	n/a	wordpools/wordpool_categorized_EN.txt	PASTRY	Desserts	5	1	[0, 0, 0]	n/a	catFR1	0	R1036M
203.209	2.568	341123	WORD	n/a	wordpools/wordpool_categorized_EN.txt	FUDGE	Desserts	6	1	[0, 0, 0]	n/a	catFR1	0	R1036M
205.777	2.6	342407	WORD	n/a	wordpools/wordpool_categorized_EN.txt	FOOT	BodyParts	7	1	[0, 0, 0]	n/a	catFR1	0	R1036M
208.377	2.517	343707	WORD	n/a	wordpools/wordpool_categorized_EN.txt	HAND	BodyParts	8	1	[0, 0, 0]	n/a	catFR1	0	R1036M
210.894	2.617	344966	WORD	n/a	wordpools/wordpool_categorized_EN.txt	STOVE	Appliances	9	1	[0, 0, 0]	n/a	catFR1	0	R1036M
213.511	2.601	346274	WORD	n/a	wordpools/wordpool_categorized_EN.txt	IRON	Appliances	10	1	[0, 0, 0]	n/a	catFR1	0	R1036M
216.112	2.484	347575	WORD	n/a	wordpools/wordpool_categorized_EN.txt	JELLO	Desserts	11	1	[0, 0, 0]	n/a	catFR1	0	R1036M
218.596	1.617	348817	WORD	n/a	wordpools/wordpool_categorized_EN.txt	COBBLER	Desserts	12	1	[0, 0, 0]	n/a	catFR1	0	R1036M
220.213	0.001	349625	DISTRACT_START	n/a	n/a	n/a	n/a	-999	1	[0, 0, 0]	n/a	catFR1	0	R1036M
220.214	0.015	349626	START	n/a	n/a	n/a	n/a	-999	1	[-999, -999, -999]	n/a	catFR1	0	R1036M
220.229	7.919	349633	PROB	7.919	n/a	n/a	n/a	-999	1	[1, 5, 3]	9	catFR1	0	R1036M
228.148	9.185	353592	PROB	9.185	n/a	n/a	n/a	-999	1	[6, 3, 1]	10	catFR1	0	R1036M
237.333	12.659	358185	PROB	12.659	n/a	n/a	n/a	-999	1	[3, 9, 6]	15	catFR1	0	R1036M
249.992	0.01	364514	STOP	n/a	n/a	n/a	n/a	-999	1	[-999, -999, -999]	n/a	catFR1	0	R1036M
250.002	1.072	364519	DISTRACT_END	n/a	n/a	n/a	n/a	-999	1	[0, 0, 0]	n/a	catFR1	0	R1036M
251.074	1.443	365055	REC_START	n/a	n/a	n/a	n/a	-999	1	[0, 0, 0]	n/a	catFR1	0	R1036M
252.517	1.262	365776	REC_WORD	1.262	n/a	COBBLER	Desserts	12	1	[0, 0, 0]	n/a	catFR1	0	R1036M
253.779	1.757	366407	REC_WORD	1.757	n/a	FOOT	BodyParts	7	1	[0, 0, 0]	n/a	catFR1	0	R1036M
255.536	1.641	367286	REC_WORD	1.641	n/a	ARM	BodyParts	3	1	[0, 0, 0]	n/a	catFR1	0	R1036M
257.177	1.825	368106	REC_WORD	1.825	n/a	LEG	BodyParts	4	1	[0, 0, 0]	n/a	catFR1	0	R1036M
259.002	3.226	369018	REC_WORD	3.226	n/a	WAGON	n/a	-999	1	[0, 0, 0]	n/a	catFR1	0	R1036M
262.228	3.88	370631	REC_WORD	3.88	n/a	BASEBALL	n/a	-999	1	[0, 0, 0]	n/a	catFR1	0	R1036M
266.108	3.519	372571	REC_WORD	3.519	n/a	WAGON	n/a	-999	1	[0, 0, 0]	n/a	catFR1	0	R1036M
269.627	11.454	374331	REC_WORD	11.454	n/a	JELLO	Desserts	11	1	[0, 0, 0]	n/a	catFR1	0	R1036M
281.081	33.433	380057	REC_END	n/a	n/a	n/a	n/a	-999	1	[0, 0, 0]	n/a	catFR1	0	R1036M
314.514	0.0	396773	TRIAL	n/a	n/a	n/a	n/a	-999	2	[0, 0, 0]	n/a	catFR1	0	R1036M
314.514	10.428	396773	COUNTDOWN_START	n/a	n/a	n/a	n/a	-999	2	[0, 0, 0]	n/a	catFR1	0	R1036M
324.942	0.009	401987	COUNTDOWN_END	n/a	n/a	n/a	n/a	-999	2	[0, 0, 0]	n/a	catFR1	0	R1036M
324.951	3.716	401991	ORIENT	n/a	n/a	n/a	n/a	-999	2	[0, 0, 0]	n/a	catFR1	0	R1036M
328.667	2.4	403849	WORD	n/a	wordpools/wordpool_categorized_EN.txt	ATTIC	Building	1	2	[0, 0, 0]	n/a	catFR1	0	R1036M
331.067	2.518	405049	WORD	n/a	wordpools/wordpool_categorized_EN.txt	FOUNDATION	Building	2	2	[0, 0, 0]	n/a	catFR1	0	R1036M
333.585	2.517	406308	WORD	n/a	wordpools/wordpool_categorized_EN.txt	STAPLER	OfficeSupplies	3	2	[0, 0, 0]	n/a	catFR1	0	R1036M
336.102	2.617	407566	WORD	n/a	wordpools/wordpool_categorized_EN.txt	RULER	OfficeSupplies	4	2	[0, 0, 0]	n/a	catFR1	0	R1036M
338.719	2.434	408875	WORD	n/a	wordpools/wordpool_categorized_EN.txt	JEEP	Vehicles	5	2	[0, 0, 0]	n/a	catFR1	0	R1036M
341.153	2.583	410092	WORD	n/a	wordpools/wordpool_categorized_EN.txt	BIKE	Vehicles	6	2	[0, 0, 0]	n/a	catFR1	0	R1036M
343.736	2.434	411383	WORD	n/a	wordpools/wordpool_categorized_EN.txt	HALLWAY	Building	7	2	[0, 0, 0]	n/a	catFR1	0	R1036M
346.17	2.501	412600	WORD	n/a	wordpools/wordpool_categorized_EN.txt	DOOR	Building	8	2	[0, 0, 0]	n/a	catFR1	0	R1036M
348.671	2.433	413850	WORD	n/a	wordpools/wordpool_categorized_EN.txt	VAN	Vehicles	9	2	[0, 0, 0]	n/a	catFR1	0	R1036M
351.104	2.518	415067	WORD	n/a	wordpools/wordpool_categorized_EN.txt	BOAT	Vehicles	10	2	[0, 0, 0]	n/a	catFR1	0	R1036M
353.622	2.634	416326	WORD	n/a	wordpools/wordpool_categorized_EN.txt	BINDER	OfficeSupplies	11	2	[0, 0, 0]	n/a	catFR1	0	R1036M
356.256	1.617	417643	WORD	n/a	wordpools/wordpool_categorized_EN.txt	PENCIL	OfficeSupplies	12	2	[0, 0, 0]	n/a	catFR1	0	R1036M
357.873	0.001	418451	DISTRACT_START	n/a	n/a	n/a	n/a	-999	2	[0, 0, 0]	n/a	catFR1	0	R1036M
357.874	0.015	418452	START	n/a	n/a	n/a	n/a	-999	2	[-999, -999, -999]	n/a	catFR1	0	R1036M
357.889	12.453	418459	PROB	12.453	n/a	n/a	n/a	-999	2	[3, 9, 5]	17	catFR1	0	R1036M
370.342	11.266	424685	PROB	11.266	n/a	n/a	n/a	-999	2	[7, 8, 1]	16	catFR1	0	R1036M
381.608	0.019	430318	STOP	n/a	n/a	n/a	n/a	-999	2	[-999, -999, -999]	n/a	catFR1	0	R1036M
381.627	1.134	430327	DISTRACT_END	n/a	n/a	n/a	n/a	-999	2	[0, 0, 0]	n/a	catFR1	0	R1036M
382.761	11.589	430894	REC_START	n/a	n/a	n/a	n/a	-999	2	[0, 0, 0]	n/a	catFR1	0	R1036M
394.35	1.679	436689	REC_WORD	1.679	n/a	ATTIC	Building	1	2	[0, 0, 0]	n/a	catFR1	0	R1036M
396.029	2.489	437528	REC_WORD	2.489	n/a	ARM	n/a	-999	2	[0, 0, 0]	n/a	catFR1	0	R1036M
398.518	2.919	438772	REC_WORD	2.919	n/a	LEG	n/a	-999	2	[0, 0, 0]	n/a	catFR1	0	R1036M
401.437	11.339	440232	REC_WORD	11.339	n/a	COBBLER	n/a	-999	2	[0, 0, 0]	n/a	catFR1	0	R1036M
412.776	11.526	445901	REC_END	n/a	n/a	n/a	n/a	-999	2	[0, 0, 0]	n/a	catFR1	0	R1036M
424.302	0.0	451664	COUNTDOWN_START	n/a	n/a	n/a	n/a	-999	3	[0, 0, 0]	n/a	catFR1	0	R1036M
424.302	10.428	451664	TRIAL	n/a	n/a	n/a	n/a	-999	3	[0, 0, 0]	n/a	catFR1	0	R1036M
434.73	0.008	456877	COUNTDOWN_END	n/a	n/a	n/a	n/a	-999	3	[0, 0, 0]	n/a	catFR1	0	R1036M
434.738	3.55	456881	ORIENT	n/a	n/a	n/a	n/a	-999	3	[0, 0, 0]	n/a	catFR1	0	R1036M
438.288	2.617	458656	WORD	n/a	wordpools/wordpool_categorized_EN.txt	BROCCOLI	Vegetables	1	3	[0, 0, 0]	n/a	catFR1	0	R1036M
440.905	2.551	459965	WORD	n/a	wordpools/wordpool_categorized_EN.txt	ONION	Vegetables	2	3	[0, 0, 0]	n/a	catFR1	0	R1036M
443.456	2.434	461240	WORD	n/a	wordpools/wordpool_categorized_EN.txt	GIRAFFE	Zoo	3	3	[0, 0, 0]	n/a	catFR1	0	R1036M
445.89	2.55	462457	WORD	n/a	wordpools/wordpool_categorized_EN.txt	CHEETAH	Zoo	4	3	[0, 0, 0]	n/a	catFR1	0	R1036M
448.44	2.4	463732	WORD	n/a	wordpools/wordpool_categorized_EN.txt	MAPLE	Trees	5	3	[0, 0, 0]	n/a	catFR1	0	R1036M
450.84	2.418	464932	WORD	n/a	wordpools/wordpool_categorized_EN.txt	OAK	Trees	6	3	[0, 0, 0]	n/a	catFR1	0	R1036M
453.258	2.483	466141	WORD	n/a	wordpools/wordpool_categorized_EN.txt	CORN	Vegetables	7	3	[0, 0, 0]	n/a	catFR1	0	R1036M
455.741	2.401	467382	WORD	n/a	wordpools/wordpool_categorized_EN.txt	CABBAGE	Vegetables	8	3	[0, 0, 0]	n/a	catFR1	0	R1036M
458.142	2.55	468583	WORD	n/a	wordpools/wordpool_categorized_EN.txt	CEDAR	Trees	9	3	[0, 0, 0]	n/a	catFR1	0	R1036M
460.692	2.468	469858	WORD	n/a	wordpools/wordpool_categorized_EN.txt	HICKORY	Trees	10	3	[0, 0, 0]	n/a	catFR1	0	R1036M
463.16	2.433	471092	WORD	n/a	wordpools/wordpool_categorized_EN.txt	GORILLA	Zoo	11	3	[0, 0, 0]	n/a	catFR1	0	R1036M
465.593	1.617	472308	WORD	n/a	wordpools/wordpool_categorized_EN.txt	PANDA	Zoo	12	3	[0, 0, 0]	n/a	catFR1	0	R1036M
467.21	0.001	473117	DISTRACT_START	n/a	n/a	n/a	n/a	-999	3	[0, 0, 0]	n/a	catFR1	0	R1036M
467.211	0.016	473117	START	n/a	n/a	n/a	n/a	-999	3	[-999, -999, -999]	n/a	catFR1	0	R1036M
467.227	13.553	473125	PROB	13.553	n/a	n/a	n/a	-999	3	[8, 5, 7]	20	catFR1	0	R1036M
480.78	5.651	479901	PROB	5.651	n/a	n/a	n/a	-999	3	[8, 1, 3]	12	catFR1	0	R1036M
486.431	5.778	482727	PROB	5.778	n/a	n/a	n/a	-999	3	[1, 2, 7]	10	catFR1	0	R1036M
492.209	0.006	485615	STOP	n/a	n/a	n/a	n/a	-999	3	[-999, -999, -999]	n/a	catFR1	0	R1036M
492.215	1.184	485618	DISTRACT_END	n/a	n/a	n/a	n/a	-999	3	[0, 0, 0]	n/a	catFR1	0	R1036M
493.399	0.708	486210	REC_START	n/a	n/a	n/a	n/a	-999	3	[0, 0, 0]	n/a	catFR1	0	R1036M
494.107	1.47	486564	REC_WORD	1.47	n/a	GORILLA	Zoo	11	3	[0, 0, 0]	n/a	catFR1	0	R1036M
495.577	2.722	487299	REC_WORD	2.722	n/a	CHEETAH	Zoo	4	3	[0, 0, 0]	n/a	catFR1	0	R1036M
498.299	16.89	488660	REC_WORD	16.89	n/a	GIRAFFE	Zoo	3	3	[0, 0, 0]	n/a	catFR1	0	R1036M
515.189	2.352	497105	REC_WORD	2.352	n/a	HICKORY	Trees	10	3	[0, 0, 0]	n/a	catFR1	0	R1036M
517.541	1.702	498281	REC_WORD	1.702	n/a	BARN	n/a	-999	3	[0, 0, 0]	n/a	catFR1	0	R1036M
519.243	3.447	499132	REC_WORD	3.447	n/a	MAPLE	Trees	5	3	[0, 0, 0]	n/a	catFR1	0	R1036M
522.69	0.725	500855	REC_WORD	0.725	n/a	CORN	Vegetables	7	3	[0, 0, 0]	n/a	catFR1	0	R1036M
523.415	16.743	501217	REC_END	n/a	n/a	n/a	n/a	-999	3	[0, 0, 0]	n/a	catFR1	0	R1036M
540.158	0.0	509588	COUNTDOWN_START	n/a	n/a	n/a	n/a	-999	4	[0, 0, 0]	n/a	catFR1	0	R1036M
540.158	10.428	509588	TRIAL	n/a	n/a	n/a	n/a	-999	4	[0, 0, 0]	n/a	catFR1	0	R1036M
550.586	0.007	514802	COUNTDOWN_END	n/a	n/a	n/a	n/a	-999	4	[0, 0, 0]	n/a	catFR1	0	R1036M
550.593	3.717	514806	ORIENT	n/a	n/a	n/a	n/a	-999	4	[0, 0, 0]	n/a	catFR1	0	R1036M
554.31	2.501	516664	WORD	n/a	wordpools/wordpool_categorized_EN.txt	OCTOPUS	OceanAnimals	1	4	[0, 0, 0]	n/a	catFR1	0	R1036M
556.811	2.4	517915	WORD	n/a	wordpools/wordpool_categorized_EN.txt	FISH	OceanAnimals	2	4	[0, 0, 0]	n/a	catFR1	0	R1036M
559.211	2.568	519114	WORD	n/a	wordpools/wordpool_categorized_EN.txt	MARIGOLD	Flowers	3	4	[0, 0, 0]	n/a	catFR1	0	R1036M
561.779	2.583	520398	WORD	n/a	wordpools/wordpool_categorized_EN.txt	CARNATION	Flowers	4	4	[0, 0, 0]	n/a	catFR1	0	R1036M
564.362	2.451	521690	WORD	n/a	wordpools/wordpool_categorized_EN.txt	ORANGUTAN	Zoo	5	4	[0, 0, 0]	n/a	catFR1	0	R1036M
566.813	2.583	522915	WORD	n/a	wordpools/wordpool_categorized_EN.txt	TIGER	Zoo	6	4	[0, 0, 0]	n/a	catFR1	0	R1036M
569.396	2.485	524207	WORD	n/a	wordpools/wordpool_categorized_EN.txt	SQUID	OceanAnimals	7	4	[0, 0, 0]	n/a	catFR1	0	R1036M
571.881	2.55	525449	WORD	n/a	wordpools/wordpool_categorized_EN.txt	LOBSTER	OceanAnimals	8	4	[0, 0, 0]	n/a	catFR1	0	R1036M
574.431	2.484	526724	WORD	n/a	wordpools/wordpool_categorized_EN.txt	MONKEY	Zoo	9	4	[0, 0, 0]	n/a	catFR1	0	R1036M
576.915	2.617	527966	WORD	n/a	wordpools/wordpool_categorized_EN.txt	BEAR	Zoo	10	4	[0, 0, 0]	n/a	catFR1	0	R1036M
579.532	2.45	529274	WORD	n/a	wordpools/wordpool_categorized_EN.txt	DAISY	Flowers	11	4	[0, 0, 0]	n/a	catFR1	0	R1036M
581.982	1.617	530499	WORD	n/a	wordpools/wordpool_categorized_EN.txt	PETUNIA	Flowers	12	4	[0, 0, 0]	n/a	catFR1	0	R1036M
583.599	0.002	531308	DISTRACT_START	n/a	n/a	n/a	n/a	-999	4	[0, 0, 0]	n/a	catFR1	0	R1036M
583.601	0.015	531309	START	n/a	n/a	n/a	n/a	-999	4	[-999, -999, -999]	n/a	catFR1	0	R1036M
583.616	10.619	531316	PROB	10.619	n/a	n/a	n/a	-999	4	[9, 4, 4]	17	catFR1	0	R1036M
594.235	8.652	536625	PROB	8.652	n/a	n/a	n/a	-999	4	[5, 4, 4]	13	catFR1	0	R1036M
602.887	5.946	540951	PROB	5.946	n/a	n/a	n/a	-999	4	[7, 3, 1]	11	catFR1	0	R1036M
608.833	0.005	543924	STOP	n/a	n/a	n/a	n/a	-999	4	[-999, -999, -999]	n/a	catFR1	0	R1036M
608.838	1.201	543927	DISTRACT_END	n/a	n/a	n/a	n/a	-999	4	[0, 0, 0]	n/a	catFR1	0	R1036M
610.039	1.062	544527	REC_START	n/a	n/a	n/a	n/a	-999	4	[0, 0, 0]	n/a	catFR1	0	R1036M
611.101	2.228	545058	REC_WORD	2.228	n/a	OCTOPUS	OceanAnimals	1	4	[0, 0, 0]	n/a	catFR1	0	R1036M
613.329	1.81	546172	REC_WORD	1.81	n/a	CARNATION	Flowers	4	4	[0, 0, 0]	n/a	catFR1	0	R1036M
615.139	6.542	547077	REC_WORD	6.542	n/a	SQUID	OceanAnimals	7	4	[0, 0, 0]	n/a	catFR1	0	R1036M
621.681	1.901	550348	REC_WORD	1.901	n/a	GORILLA	n/a	-999	4	[0, 0, 0]	n/a	catFR1	0	R1036M
623.582	9.379	551298	REC_WORD	9.379	n/a	ORANGUTAN	Zoo	5	4	[0, 0, 0]	n/a	catFR1	0	R1036M
632.961	5.298	555987	REC_WORD	5.298	n/a	BEAR	Zoo	10	4	[0, 0, 0]	n/a	catFR1	0	R1036M
638.259	1.791	558636	REC_WORD	1.791	n/a	TIGER	Zoo	6	4	[0, 0, 0]	n/a	catFR1	0	R1036M
640.05	14.63	559532	REC_END	n/a	n/a	n/a	n/a	-999	4	[0, 0, 0]	n/a	catFR1	0	R1036M
654.68	0.0	566846	COUNTDOWN_START	n/a	n/a	n/a	n/a	-999	5	[0, 0, 0]	n/a	catFR1	0	R1036M
654.68	10.428	566846	TRIAL	n/a	n/a	n/a	n/a	-999	5	[0, 0, 0]	n/a	catFR1	0	R1036M
665.108	0.007	572060	COUNTDOWN_END	n/a	n/a	n/a	n/a	-999	5	[0, 0, 0]	n/a	catFR1	0	R1036M
665.115	3.768	572063	ORIENT	n/a	n/a	n/a	n/a	-999	5	[0, 0, 0]	n/a	catFR1	0	R1036M
668.883	2.633	573947	WORD	n/a	wordpools/wordpool_categorized_EN.txt	GOOSE	Birds	1	5	[0, 0, 0]	n/a	catFR1	0	R1036M
671.516	2.419	575264	WORD	n/a	wordpools/wordpool_categorized_EN.txt	SEAGULL	Birds	2	5	[0, 0, 0]	n/a	catFR1	0	R1036M
673.935	2.449	576473	WORD	n/a	wordpools/wordpool_categorized_EN.txt	TURTLE	OceanAnimals	3	5	[0, 0, 0]	n/a	catFR1	0	R1036M
676.384	2.434	577698	WORD	n/a	wordpools/wordpool_categorized_EN.txt	OYSTER	OceanAnimals	4	5	[0, 0, 0]	n/a	catFR1	0	R1036M
678.818	2.417	578915	WORD	n/a	wordpools/wordpool_categorized_EN.txt	HEN	FarmAnimals	5	5	[0, 0, 0]	n/a	catFR1	0	R1036M
681.235	2.517	580123	WORD	n/a	wordpools/wordpool_categorized_EN.txt	LAMB	FarmAnimals	6	5	[0, 0, 0]	n/a	catFR1	0	R1036M
683.752	2.517	581381	WORD	n/a	wordpools/wordpool_categorized_EN.txt	SHRIMP	OceanAnimals	7	5	[0, 0, 0]	n/a	catFR1	0	R1036M
686.269	2.534	582640	WORD	n/a	wordpools/wordpool_categorized_EN.txt	DOLPHIN	OceanAnimals	8	5	[0, 0, 0]	n/a	catFR1	0	R1036M
688.803	2.434	583907	WORD	n/a	wordpools/wordpool_categorized_EN.txt	DUCK	Birds	9	5	[0, 0, 0]	n/a	catFR1	0	R1036M
691.237	2.484	585124	WORD	n/a	wordpools/wordpool_categorized_EN.txt	ROBIN	Birds	10	5	[0, 0, 0]	n/a	catFR1	0	R1036M
693.721	2.583	586366	WORD	n/a	wordpools/wordpool_categorized_EN.txt	CHICKEN	FarmAnimals	11	5	[0, 0, 0]	n/a	catFR1	0	R1036M
696.304	1.619	587657	WORD	n/a	wordpools/wordpool_categorized_EN.txt	CALF	FarmAnimals	12	5	[0, 0, 0]	n/a	catFR1	0	R1036M
697.923	0.001	588467	DISTRACT_START	n/a	n/a	n/a	n/a	-999	5	[0, 0, 0]	n/a	catFR1	0	R1036M
697.924	0.015	588467	START	n/a	n/a	n/a	n/a	-999	5	[-999, -999, -999]	n/a	catFR1	0	R1036M
697.939	12.485	588475	PROB	12.485	n/a	n/a	n/a	-999	5	[9, 6, 3]	18	catFR1	0	R1036M
710.424	11.241	594717	PROB	11.241	n/a	n/a	n/a	-999	5	[3, 6, 9]	18	catFR1	0	R1036M
721.665	0.011	600337	STOP	n/a	n/a	n/a	n/a	-999	5	[-999, -999, -999]	n/a	catFR1	0	R1036M
721.676	1.101	600342	DISTRACT_END	n/a	n/a	n/a	n/a	-999	5	[0, 0, 0]	n/a	catFR1	0	R1036M
722.777	1.082	600893	REC_START	n/a	n/a	n/a	n/a	-999	5	[0, 0, 0]	n/a	catFR1	0	R1036M
723.859	2.722	601434	REC_WORD	2.722	n/a	GOOSE	Birds	1	5	[0, 0, 0]	n/a	catFR1	0	R1036M
726.581	5.274	602795	REC_WORD	5.274	n/a	BIRD	n/a	-999	5	[0, 0, 0]	n/a	catFR1	0	R1036M
731.855	1.908	605432	REC_WORD	1.908	n/a	LAMB	FarmAnimals	6	5	[0, 0, 0]	n/a	catFR1	0	R1036M
733.763	13.905	606386	REC_WORD	13.905	n/a	OYSTER	OceanAnimals	4	5	[0, 0, 0]	n/a	catFR1	0	R1036M
747.668	5.12	613338	REC_WORD	5.12	n/a	SEAGULL	Birds	2	5	[0, 0, 0]	n/a	catFR1	0	R1036M
752.788	20.515	615898	REC_END	n/a	n/a	n/a	n/a	-999	5	[0, 0, 0]	n/a	catFR1	0	R1036M
773.303	0.0	626154	TRIAL	n/a	n/a	n/a	n/a	-999	6	[0, 0, 0]	n/a	catFR1	0	R1036M
773.303	10.428	626154	COUNTDOWN_START	n/a	n/a	n/a	n/a	-999	6	[0, 0, 0]	n/a	catFR1	0	R1036M
783.731	0.007	631368	COUNTDOWN_END	n/a	n/a	n/a	n/a	-999	6	[0, 0, 0]	n/a	catFR1	0	R1036M
783.738	3.884	631372	ORIENT	n/a	n/a	n/a	n/a	-999	6	[0, 0, 0]	n/a	catFR1	0	R1036M
787.622	2.417	633314	WORD	n/a	wordpools/wordpool_categorized_EN.txt	PEAS	Vegetables	1	6	[0, 0, 0]	n/a	catFR1	0	R1036M
790.039	2.384	634522	WORD	n/a	wordpools/wordpool_categorized_EN.txt	CAULIFLOWER	Vegetables	2	6	[0, 0, 0]	n/a	catFR1	0	R1036M
792.423	2.401	635714	WORD	n/a	wordpools/wordpool_categorized_EN.txt	SKIRT	Clothing	3	6	[0, 0, 0]	n/a	catFR1	0	R1036M
794.824	2.617	636914	WORD	n/a	wordpools/wordpool_categorized_EN.txt	JACKET	Clothing	4	6	[0, 0, 0]	n/a	catFR1	0	R1036M
797.441	2.45	638223	WORD	n/a	wordpools/wordpool_categorized_EN.txt	REFRIGERATOR	Appliances	5	6	[0, 0, 0]	n/a	catFR1	0	R1036M
799.891	2.401	639448	WORD	n/a	wordpools/wordpool_categorized_EN.txt	VACUUM	Appliances	6	6	[0, 0, 0]	n/a	catFR1	0	R1036M
802.292	2.4	640648	WORD	n/a	wordpools/wordpool_categorized_EN.txt	PANTS	Clothing	7	6	[0, 0, 0]	n/a	catFR1	0	R1036M
804.692	2.484	641848	WORD	n/a	wordpools/wordpool_categorized_EN.txt	SOCKS	Clothing	8	6	[0, 0, 0]	n/a	catFR1	0	R1036M
807.176	2.467	643090	WORD	n/a	wordpools/wordpool_categorized_EN.txt	POTATO	Vegetables	9	6	[0, 0, 0]	n/a	catFR1	0	R1036M
809.643	2.501	644323	WORD	n/a	wordpools/wordpool_categorized_EN.txt	LETTUCE	Vegetables	10	6	[0, 0, 0]	n/a	catFR1	0	R1036M
812.144	2.583	645574	WORD	n/a	wordpools/wordpool_categorized_EN.txt	DRYER	Appliances	11	6	[0, 0, 0]	n/a	catFR1	0	R1036M
814.727	1.617	646865	WORD	n/a	wordpools/wordpool_categorized_EN.txt	FREEZER	Appliances	12	6	[0, 0, 0]	n/a	catFR1	0	R1036M
816.344	0.001	647674	DISTRACT_START	n/a	n/a	n/a	n/a	-999	6	[0, 0, 0]	n/a	catFR1	0	R1036M
816.345	0.016	647674	START	n/a	n/a	n/a	n/a	-999	6	[-999, -999, -999]	n/a	catFR1	0	R1036M
816.361	9.702	647682	PROB	9.702	n/a	n/a	n/a	-999	6	[8, 3, 4]	15	catFR1	0	R1036M
826.063	6.435	652533	PROB	6.435	n/a	n/a	n/a	-999	6	[1, 4, 6]	11	catFR1	0	R1036M
832.498	13.487	655750	PROB	13.487	n/a	n/a	n/a	-999	6	[6, 7, 8]	23	catFR1	0	R1036M
845.985	0.015	662493	STOP	n/a	n/a	n/a	n/a	-999	6	[-999, -999, -999]	n/a	catFR1	0	R1036M
846.0	1.117	662501	DISTRACT_END	n/a	n/a	n/a	n/a	-999	6	[0, 0, 0]	n/a	catFR1	0	R1036M
847.117	1.105	663059	REC_START	n/a	n/a	n/a	n/a	-999	6	[0, 0, 0]	n/a	catFR1	0	R1036M
848.222	2.291	663612	REC_WORD	2.291	n/a	REFRIGERATOR	Appliances	5	6	[0, 0, 0]	n/a	catFR1	0	R1036M
850.513	7.059	664757	REC_WORD	7.059	n/a	STOVE	n/a	-999	6	[0, 0, 0]	n/a	catFR1	0	R1036M
857.572	7.854	668287	REC_WORD	7.854	n/a	FREEZER	Appliances	12	6	[0, 0, 0]	n/a	catFR1	0	R1036M
865.426	3.19	672213	REC_WORD	3.19	n/a	CAULIFLOWER	Vegetables	2	6	[0, 0, 0]	n/a	catFR1	0	R1036M
868.616	8.516	673808	REC_WORD	8.516	n/a	PEAS	Vegetables	1	6	[0, 0, 0]	n/a	catFR1	0	R1036M
877.132	64.353	678066	REC_END	n/a	n/a	n/a	n/a	-999	6	[0, 0, 0]	n/a	catFR1	0	R1036M
941.485	0.0	710241	TRIAL	n/a	n/a	n/a	n/a	-999	7	[0, 0, 0]	n/a	catFR1	0	R1036M
941.485	10.428	710241	COUNTDOWN_START	n/a	n/a	n/a	n/a	-999	7	[0, 0, 0]	n/a	catFR1	0	R1036M
951.913	0.008	715454	COUNTDOWN_END	n/a	n/a	n/a	n/a	-999	7	[0, 0, 0]	n/a	catFR1	0	R1036M
951.921	3.834	715458	ORIENT	n/a	n/a	n/a	n/a	-999	7	[0, 0, 0]	n/a	catFR1	0	R1036M
955.755	2.583	717375	WORD	n/a	wordpools/wordpool_categorized_EN.txt	GOAT	FarmAnimals	1	7	[0, 0, 0]	n/a	catFR1	0	R1036M
958.338	2.434	718667	WORD	n/a	wordpools/wordpool_categorized_EN.txt	SHEEP	FarmAnimals	2	7	[0, 0, 0]	n/a	catFR1	0	R1036M
960.772	2.534	719884	WORD	n/a	wordpools/wordpool_categorized_EN.txt	CEILING	Building	3	7	[0, 0, 0]	n/a	catFR1	0	R1036M
963.306	2.384	721151	WORD	n/a	wordpools/wordpool_categorized_EN.txt	WINDOW	Building	4	7	[0, 0, 0]	n/a	catFR1	0	R1036M
965.69	2.4	722343	WORD	n/a	wordpools/wordpool_categorized_EN.txt	NOSE	BodyParts	5	7	[0, 0, 0]	n/a	catFR1	0	R1036M
968.09	2.617	723542	WORD	n/a	wordpools/wordpool_categorized_EN.txt	TOE	BodyParts	6	7	[0, 0, 0]	n/a	catFR1	0	R1036M
970.707	2.518	724851	WORD	n/a	wordpools/wordpool_categorized_EN.txt	BATHROOM	Building	7	7	[0, 0, 0]	n/a	catFR1	0	R1036M
973.225	2.583	726110	WORD	n/a	wordpools/wordpool_categorized_EN.txt	ROOM	Building	8	7	[0, 0, 0]	n/a	catFR1	0	R1036M
975.808	2.484	727401	WORD	n/a	wordpools/wordpool_categorized_EN.txt	ROOSTER	FarmAnimals	9	7	[0, 0, 0]	n/a	catFR1	0	R1036M
978.292	2.567	728643	WORD	n/a	wordpools/wordpool_categorized_EN.txt	HORSE	FarmAnimals	10	7	[0, 0, 0]	n/a	catFR1	0	R1036M
980.859	2.501	729927	WORD	n/a	wordpools/wordpool_categorized_EN.txt	FINGERS	BodyParts	11	7	[0, 0, 0]	n/a	catFR1	0	R1036M
983.36	1.601	731177	WORD	n/a	wordpools/wordpool_categorized_EN.txt	ELBOW	BodyParts	12	7	[0, 0, 0]	n/a	catFR1	0	R1036M
984.961	0.001	731977	DISTRACT_START	n/a	n/a	n/a	n/a	-999	7	[0, 0, 0]	n/a	catFR1	0	R1036M
984.962	0.015	731978	START	n/a	n/a	n/a	n/a	-999	7	[-999, -999, -999]	n/a	catFR1	0	R1036M
984.977	7.518	731985	PROB	7.518	n/a	n/a	n/a	-999	7	[3, 2, 8]	13	catFR1	0	R1036M
992.495	6.385	735744	PROB	6.385	n/a	n/a	n/a	-999	7	[6, 3, 3]	12	catFR1	0	R1036M
998.88	11.066	738937	PROB	11.066	n/a	n/a	n/a	-999	7	[4, 9, 4]	15	catFR1	0	R1036M
1009.946	0.003	744469	STOP	n/a	n/a	n/a	n/a	-999	7	[-999, -999, -999]	n/a	catFR1	0	R1036M
1009.949	1.067	744471	DISTRACT_END	n/a	n/a	n/a	n/a	-999	7	[0, 0, 0]	n/a	catFR1	0	R1036M
1011.016	1.797	745004	REC_START	n/a	n/a	n/a	n/a	-999	7	[0, 0, 0]	n/a	catFR1	0	R1036M
1012.813	1.847	745903	REC_WORD	1.847	n/a	GOAT	FarmAnimals	1	7	[0, 0, 0]	n/a	catFR1	0	R1036M
1014.66	2.092	746826	REC_WORD	2.092	n/a	TOE	BodyParts	6	7	[0, 0, 0]	n/a	catFR1	0	R1036M
1016.752	2.393	747872	REC_WORD	2.393	n/a	NOSE	BodyParts	5	7	[0, 0, 0]	n/a	catFR1	0	R1036M
1019.145	3.09	749069	REC_WORD	3.09	n/a	ELBOW	BodyParts	12	7	[0, 0, 0]	n/a	catFR1	0	R1036M
1022.235	5.492	750613	REC_WORD	5.492	n/a	ROOSTER	FarmAnimals	9	7	[0, 0, 0]	n/a	catFR1	0	R1036M
1027.727	7.515	753359	REC_WORD	7.515	n/a	DUCK	n/a	-999	7	[0, 0, 0]	n/a	catFR1	0	R1036M
1035.242	5.785	757117	REC_WORD	5.785	n/a	CHICKEN	n/a	-999	7	[0, 0, 0]	n/a	catFR1	0	R1036M
1041.027	19.131	760009	REC_END	n/a	n/a	n/a	n/a	-999	7	[0, 0, 0]	n/a	catFR1	0	R1036M
1060.158	0.0	769574	TRIAL	n/a	n/a	n/a	n/a	-999	8	[0, 0, 0]	n/a	catFR1	0	R1036M
1060.158	10.428	769574	COUNTDOWN_START	n/a	n/a	n/a	n/a	-999	8	[0, 0, 0]	n/a	catFR1	0	R1036M
1070.586	0.007	774788	COUNTDOWN_END	n/a	n/a	n/a	n/a	-999	8	[0, 0, 0]	n/a	catFR1	0	R1036M
1070.593	3.567	774791	ORIENT	n/a	n/a	n/a	n/a	-999	8	[0, 0, 0]	n/a	catFR1	0	R1036M
1074.16	2.485	776574	WORD	n/a	wordpools/wordpool_categorized_EN.txt	CLOUD	Weather	1	8	[0, 0, 0]	n/a	catFR1	0	R1036M
1076.645	2.383	777817	WORD	n/a	wordpools/wordpool_categorized_EN.txt	SNOW	Weather	2	8	[0, 0, 0]	n/a	catFR1	0	R1036M
1079.028	2.484	779008	WORD	n/a	wordpools/wordpool_categorized_EN.txt	CHERRY	Fruit	3	8	[0, 0, 0]	n/a	catFR1	0	R1036M
1081.512	2.517	780250	WORD	n/a	wordpools/wordpool_categorized_EN.txt	GRAPE	Fruit	4	8	[0, 0, 0]	n/a	catFR1	0	R1036M
1084.029	2.567	781509	WORD	n/a	wordpools/wordpool_categorized_EN.txt	CREEK	Landscapes	5	8	[0, 0, 0]	n/a	catFR1	0	R1036M
1086.596	2.551	782792	WORD	n/a	wordpools/wordpool_categorized_EN.txt	OCEAN	Landscapes	6	8	[0, 0, 0]	n/a	catFR1	0	R1036M
1089.147	2.45	784068	WORD	n/a	wordpools/wordpool_categorized_EN.txt	RAIN	Weather	7	8	[0, 0, 0]	n/a	catFR1	0	R1036M
1091.597	2.467	785292	WORD	n/a	wordpools/wordpool_categorized_EN.txt	HURRICANE	Weather	8	8	[0, 0, 0]	n/a	catFR1	0	R1036M
1094.064	2.551	786526	WORD	n/a	wordpools/wordpool_categorized_EN.txt	VALLEY	Landscapes	9	8	[0, 0, 0]	n/a	catFR1	0	R1036M
1096.615	2.517	787801	WORD	n/a	wordpools/wordpool_categorized_EN.txt	RIVER	Landscapes	10	8	[0, 0, 0]	n/a	catFR1	0	R1036M
1099.132	2.584	789060	WORD	n/a	wordpools/wordpool_categorized_EN.txt	LIME	Fruit	11	8	[0, 0, 0]	n/a	catFR1	0	R1036M
1101.716	1.617	790352	WORD	n/a	wordpools/wordpool_categorized_EN.txt	BLUEBERRY	Fruit	12	8	[0, 0, 0]	n/a	catFR1	0	R1036M
1103.333	0.001	791160	DISTRACT_START	n/a	n/a	n/a	n/a	-999	8	[0, 0, 0]	n/a	catFR1	0	R1036M
1103.334	0.016	791161	START	n/a	n/a	n/a	n/a	-999	8	[-999, -999, -999]	n/a	catFR1	0	R1036M
1103.35	9.835	791169	PROB	9.835	n/a	n/a	n/a	-999	8	[7, 2, 6]	15	catFR1	0	R1036M
1113.185	4.834	796086	PROB	4.834	n/a	n/a	n/a	-999	8	[1, 5, 5]	11	catFR1	0	R1036M
1118.019	9.286	798503	PROB	9.286	n/a	n/a	n/a	-999	8	[6, 9, 9]	24	catFR1	0	R1036M
1127.305	0.016	803145	STOP	n/a	n/a	n/a	n/a	-999	8	[-999, -999, -999]	n/a	catFR1	0	R1036M
1127.321	1.217	803153	DISTRACT_END	n/a	n/a	n/a	n/a	-999	8	[0, 0, 0]	n/a	catFR1	0	R1036M
1128.538	2.173	803762	REC_START	n/a	n/a	n/a	n/a	-999	8	[0, 0, 0]	n/a	catFR1	0	R1036M
1130.711	1.478	804848	REC_WORD	1.478	n/a	CLOUD	Weather	1	8	[0, 0, 0]	n/a	catFR1	0	R1036M
1132.189	2.07	805587	REC_WORD	2.07	n/a	HURRICANE	Weather	8	8	[0, 0, 0]	n/a	catFR1	0	R1036M
1134.259	2.285	806622	REC_WORD	2.285	n/a	SNOW	Weather	2	8	[0, 0, 0]	n/a	catFR1	0	R1036M
1136.544	5.163	807765	REC_WORD	5.163	n/a	VALLEY	Landscapes	9	8	[0, 0, 0]	n/a	catFR1	0	R1036M
1141.707	3.038	810346	REC_WORD	3.038	n/a	RIVER	Landscapes	10	8	[0, 0, 0]	n/a	catFR1	0	R1036M
1144.745	6.29	811865	REC_WORD	6.29	n/a	OCEAN	Landscapes	6	8	[0, 0, 0]	n/a	catFR1	0	R1036M
1151.035	7.518	815010	REC_WORD	7.518	n/a	CREEK	Landscapes	5	8	[0, 0, 0]	n/a	catFR1	0	R1036M
1158.553	10.91	818769	REC_END	n/a	n/a	n/a	n/a	-999	8	[0, 0, 0]	n/a	catFR1	0	R1036M
1169.463	0.0	824223	TRIAL	n/a	n/a	n/a	n/a	-999	9	[0, 0, 0]	n/a	catFR1	0	R1036M
1169.463	10.428	824223	COUNTDOWN_START	n/a	n/a	n/a	n/a	-999	9	[0, 0, 0]	n/a	catFR1	0	R1036M
1179.891	0.007	829437	COUNTDOWN_END	n/a	n/a	n/a	n/a	-999	9	[0, 0, 0]	n/a	catFR1	0	R1036M
1179.898	3.701	829440	ORIENT	n/a	n/a	n/a	n/a	-999	9	[0, 0, 0]	n/a	catFR1	0	R1036M
1183.599	2.433	831291	WORD	n/a	wordpools/wordpool_categorized_EN.txt	STEREO	Electronics	1	9	[0, 0, 0]	n/a	catFR1	0	R1036M
1186.032	2.484	832507	WORD	n/a	wordpools/wordpool_categorized_EN.txt	RADIO	Electronics	2	9	[0, 0, 0]	n/a	catFR1	0	R1036M
1188.516	2.384	833749	WORD	n/a	wordpools/wordpool_categorized_EN.txt	CABINET	Furniture	3	9	[0, 0, 0]	n/a	catFR1	0	R1036M
1190.9	2.55	834941	WORD	n/a	wordpools/wordpool_categorized_EN.txt	COUCH	Furniture	4	9	[0, 0, 0]	n/a	catFR1	0	R1036M
1193.45	2.502	836216	WORD	n/a	wordpools/wordpool_categorized_EN.txt	FLOOR	Building	5	9	[0, 0, 0]	n/a	catFR1	0	R1036M
1195.952	2.549	837467	WORD	n/a	wordpools/wordpool_categorized_EN.txt	STAIRS	Building	6	9	[0, 0, 0]	n/a	catFR1	0	R1036M
1198.501	2.418	838741	WORD	n/a	wordpools/wordpool_categorized_EN.txt	MICROWAVE	Electronics	7	9	[0, 0, 0]	n/a	catFR1	0	R1036M
1200.919	2.5	839950	WORD	n/a	wordpools/wordpool_categorized_EN.txt	COMPUTER	Electronics	8	9	[0, 0, 0]	n/a	catFR1	0	R1036M
1203.419	2.484	841200	WORD	n/a	wordpools/wordpool_categorized_EN.txt	ROOF	Building	9	9	[0, 0, 0]	n/a	catFR1	0	R1036M
1205.903	2.567	842442	WORD	n/a	wordpools/wordpool_categorized_EN.txt	WALL	Building	10	9	[0, 0, 0]	n/a	catFR1	0	R1036M
1208.47	2.384	843726	WORD	n/a	wordpools/wordpool_categorized_EN.txt	BOOKCASE	Furniture	11	9	[0, 0, 0]	n/a	catFR1	0	R1036M
1210.854	1.617	844918	WORD	n/a	wordpools/wordpool_categorized_EN.txt	RECLINER	Furniture	12	9	[0, 0, 0]	n/a	catFR1	0	R1036M
1212.471	0.001	845726	DISTRACT_START	n/a	n/a	n/a	n/a	-999	9	[0, 0, 0]	n/a	catFR1	0	R1036M
1212.472	0.015	845727	START	n/a	n/a	n/a	n/a	-999	9	[-999, -999, -999]	n/a	catFR1	0	R1036M
1212.487	10.886	845734	PROB	10.886	n/a	n/a	n/a	-999	9	[2, 2, 8]	12	catFR1	0	R1036M
1223.373	4.817	851177	PROB	4.817	n/a	n/a	n/a	-999	9	[3, 3, 1]	7	catFR1	0	R1036M
1228.19	8.875	853585	PROB	8.875	n/a	n/a	n/a	-999	9	[6, 2, 7]	15	catFR1	0	R1036M
1237.065	0.011	858022	STOP	n/a	n/a	n/a	n/a	-999	9	[-999, -999, -999]	n/a	catFR1	0	R1036M
1237.076	1.2	858028	DISTRACT_END	n/a	n/a	n/a	n/a	-999	9	[0, 0, 0]	n/a	catFR1	0	R1036M
1238.276	0.791	858628	REC_START	n/a	n/a	n/a	n/a	-999	9	[0, 0, 0]	n/a	catFR1	0	R1036M
1239.067	5.144	859023	REC_WORD	5.144	n/a	RECLINER	Furniture	12	9	[0, 0, 0]	n/a	catFR1	0	R1036M
1244.211	3.658	861595	REC_WORD	3.658	n/a	STOVE	n/a	-999	9	[0, 0, 0]	n/a	catFR1	0	R1036M
1247.869	20.423	863424	REC_WORD	20.423	n/a	CHAIR	n/a	-999	9	[0, 0, 0]	n/a	catFR1	0	R1036M
1268.292	35.296	873635	REC_END	n/a	n/a	n/a	n/a	-999	9	[0, 0, 0]	n/a	catFR1	0	R1036M
1303.588	0.001	891282	COUNTDOWN_START	n/a	n/a	n/a	n/a	-999	10	[0, 0, 0]	n/a	catFR1	0	R1036M
1303.589	10.427	891283	TRIAL	n/a	n/a	n/a	n/a	-999	10	[0, 0, 0]	n/a	catFR1	0	R1036M
1314.016	0.008	896496	COUNTDOWN_END	n/a	n/a	n/a	n/a	-999	10	[0, 0, 0]	n/a	catFR1	0	R1036M
1314.024	3.717	896500	ORIENT	n/a	n/a	n/a	n/a	-999	10	[0, 0, 0]	n/a	catFR1	0	R1036M
1317.741	2.517	898358	WORD	n/a	wordpools/wordpool_categorized_EN.txt	LEVEL	Tools	1	10	[0, 0, 0]	n/a	catFR1	0	R1036M
1320.258	2.601	899617	WORD	n/a	wordpools/wordpool_categorized_EN.txt	SANDER	Tools	2	10	[0, 0, 0]	n/a	catFR1	0	R1036M
1322.859	2.567	900917	WORD	n/a	wordpools/wordpool_categorized_EN.txt	CIDER	Beverages	3	10	[0, 0, 0]	n/a	catFR1	0	R1036M
1325.426	2.535	902200	WORD	n/a	wordpools/wordpool_categorized_EN.txt	WINE	Beverages	4	10	[0, 0, 0]	n/a	catFR1	0	R1036M
1327.961	2.549	903468	WORD	n/a	wordpools/wordpool_categorized_EN.txt	SPEAKER	Electronics	5	10	[0, 0, 0]	n/a	catFR1	0	R1036M
1330.51	2.501	904742	WORD	n/a	wordpools/wordpool_categorized_EN.txt	TELEVISION	Electronics	6	10	[0, 0, 0]	n/a	catFR1	0	R1036M
1333.011	2.4	905993	WORD	n/a	wordpools/wordpool_categorized_EN.txt	SHOVEL	Tools	7	10	[0, 0, 0]	n/a	catFR1	0	R1036M
1335.411	2.417	907193	WORD	n/a	wordpools/wordpool_categorized_EN.txt	RATCHET	Tools	8	10	[0, 0, 0]	n/a	catFR1	0	R1036M
1337.828	2.534	908401	WORD	n/a	wordpools/wordpool_categorized_EN.txt	TABLET	Electronics	9	10	[0, 0, 0]	n/a	catFR1	0	R1036M
1340.362	2.417	909668	WORD	n/a	wordpools/wordpool_categorized_EN.txt	HEADPHONES	Electronics	10	10	[0, 0, 0]	n/a	catFR1	0	R1036M
1342.779	2.484	910876	WORD	n/a	wordpools/wordpool_categorized_EN.txt	LEMONADE	Beverages	11	10	[0, 0, 0]	n/a	catFR1	0	R1036M
1345.263	1.617	912118	WORD	n/a	wordpools/wordpool_categorized_EN.txt	MILK	Beverages	12	10	[0, 0, 0]	n/a	catFR1	0	R1036M
1346.88	0.001	912927	DISTRACT_START	n/a	n/a	n/a	n/a	-999	10	[0, 0, 0]	n/a	catFR1	0	R1036M
1346.881	0.016	912927	START	n/a	n/a	n/a	n/a	-999	10	[-999, -999, -999]	n/a	catFR1	0	R1036M
1346.897	8.868	912935	PROB	8.868	n/a	n/a	n/a	-999	10	[1, 5, 3]	9	catFR1	0	R1036M
1355.765	7.501	917369	PROB	7.501	n/a	n/a	n/a	-999	10	[8, 3, 2]	13	catFR1	0	R1036M
1363.266	6.366	921119	PROB	6.366	n/a	n/a	n/a	-999	10	[3, 2, 9]	13	catFR1	0	R1036M
1369.632	0.019	924302	STOP	n/a	n/a	n/a	n/a	-999	10	[-999, -999, -999]	n/a	catFR1	0	R1036M
1369.651	1.084	924312	DISTRACT_END	n/a	n/a	n/a	n/a	-999	10	[0, 0, 0]	n/a	catFR1	0	R1036M
1370.735	2.111	924854	REC_START	n/a	n/a	n/a	n/a	-999	10	[0, 0, 0]	n/a	catFR1	0	R1036M
1372.846	1.432	925909	REC_WORD	1.432	n/a	LEMONADE	Beverages	11	10	[0, 0, 0]	n/a	catFR1	0	R1036M
1374.278	1.841	926625	REC_WORD	1.841	n/a	MILK	Beverages	12	10	[0, 0, 0]	n/a	catFR1	0	R1036M
1376.119	14.686	927545	REC_WORD	14.686	n/a	RACKET	n/a	-999	10	[0, 0, 0]	n/a	catFR1	0	R1036M
1390.805	4.98	934888	REC_WORD	4.98	n/a	SPEAKER	Electronics	5	10	[0, 0, 0]	n/a	catFR1	0	R1036M
1395.785	2.945	937378	REC_WORD	2.945	n/a	HEADPHONES	Electronics	10	10	[0, 0, 0]	n/a	catFR1	0	R1036M
1398.73	2.017	938850	REC_WORD	2.017	n/a	STEREO	n/a	-999	10	[0, 0, 0]	n/a	catFR1	0	R1036M
1400.747	55.021	939859	REC_END	n/a	n/a	n/a	n/a	-999	10	[0, 0, 0]	n/a	catFR1	0	R1036M
1455.768	0.0	967368	TRIAL	n/a	n/a	n/a	n/a	-999	11	[0, 0, 0]	n/a	catFR1	0	R1036M
1455.768	10.428	967368	COUNTDOWN_START	n/a	n/a	n/a	n/a	-999	11	[0, 0, 0]	n/a	catFR1	0	R1036M
1466.196	0.007	972581	COUNTDOWN_END	n/a	n/a	n/a	n/a	-999	11	[0, 0, 0]	n/a	catFR1	0	R1036M
1466.203	3.451	972585	ORIENT	n/a	n/a	n/a	n/a	-999	11	[0, 0, 0]	n/a	catFR1	0	R1036M
1469.654	2.417	974310	WORD	n/a	wordpools/wordpool_categorized_EN.txt	CHAIR	Furniture	1	11	[0, 0, 0]	n/a	catFR1	0	R1036M
1472.071	2.434	975519	WORD	n/a	wordpools/wordpool_categorized_EN.txt	SOFA	Furniture	2	11	[0, 0, 0]	n/a	catFR1	0	R1036M
1474.505	2.617	976736	WORD	n/a	wordpools/wordpool_categorized_EN.txt	MARBLES	Toys	3	11	[0, 0, 0]	n/a	catFR1	0	R1036M
1477.122	2.467	978044	WORD	n/a	wordpools/wordpool_categorized_EN.txt	DOLLHOUSE	Toys	4	11	[0, 0, 0]	n/a	catFR1	0	R1036M
1479.589	2.55	979278	WORD	n/a	wordpools/wordpool_categorized_EN.txt	GLUE	OfficeSupplies	5	11	[0, 0, 0]	n/a	catFR1	0	R1036M
1482.139	2.434	980552	WORD	n/a	wordpools/wordpool_categorized_EN.txt	ERASER	OfficeSupplies	6	11	[0, 0, 0]	n/a	catFR1	0	R1036M
1484.573	2.434	981769	WORD	n/a	wordpools/wordpool_categorized_EN.txt	BALL	Toys	7	11	[0, 0, 0]	n/a	catFR1	0	R1036M
1487.007	2.401	982986	WORD	n/a	wordpools/wordpool_categorized_EN.txt	BASEBALL	Toys	8	11	[0, 0, 0]	n/a	catFR1	0	R1036M
1489.408	2.5	984187	WORD	n/a	wordpools/wordpool_categorized_EN.txt	DRESSER	Furniture	9	11	[0, 0, 0]	n/a	catFR1	0	R1036M
1491.908	2.517	985437	WORD	n/a	wordpools/wordpool_categorized_EN.txt	BED	Furniture	10	11	[0, 0, 0]	n/a	catFR1	0	R1036M
1494.425	2.401	986695	WORD	n/a	wordpools/wordpool_categorized_EN.txt	FOLDER	OfficeSupplies	11	11	[0, 0, 0]	n/a	catFR1	0	R1036M
1496.826	1.617	987896	WORD	n/a	wordpools/wordpool_categorized_EN.txt	NOTEBOOK	OfficeSupplies	12	11	[0, 0, 0]	n/a	catFR1	0	R1036M
1498.443	0.001	988704	DISTRACT_START	n/a	n/a	n/a	n/a	-999	11	[0, 0, 0]	n/a	catFR1	0	R1036M
1498.444	0.015	988705	START	n/a	n/a	n/a	n/a	-999	11	[-999, -999, -999]	n/a	catFR1	0	R1036M
1498.459	16.103	988712	PROB	16.103	n/a	n/a	n/a	-999	11	[6, 9, 7]	22	catFR1	0	R1036M
1514.562	7.895	996763	PROB	7.895	n/a	n/a	n/a	-999	11	[9, 2, 9]	20	catFR1	0	R1036M
1522.457	0.007	1000710	STOP	n/a	n/a	n/a	n/a	-999	11	[-999, -999, -999]	n/a	catFR1	0	R1036M
1522.464	1.084	1000714	DISTRACT_END	n/a	n/a	n/a	n/a	-999	11	[0, 0, 0]	n/a	catFR1	0	R1036M
1523.548	4.666	1001256	REC_START	n/a	n/a	n/a	n/a	-999	11	[0, 0, 0]	n/a	catFR1	0	R1036M
1528.214	11.187	1003589	REC_WORD	11.187	n/a	STOVE	n/a	-999	11	[0, 0, 0]	n/a	catFR1	0	R1036M
1539.401	1.869	1009182	REC_WORD	1.869	n/a	BALL	Toys	7	11	[0, 0, 0]	n/a	catFR1	0	R1036M
1541.27	4.097	1010116	REC_WORD	4.097	n/a	BASEBALL	Toys	8	11	[0, 0, 0]	n/a	catFR1	0	R1036M
1545.367	8.192	1012165	REC_WORD	8.192	n/a	HAT	n/a	-999	11	[0, 0, 0]	n/a	catFR1	0	R1036M
1553.559	37.435	1016260	REC_END	n/a	n/a	n/a	n/a	-999	11	[0, 0, 0]	n/a	catFR1	0	R1036M
1590.994	0.0	1034977	TRIAL	n/a	n/a	n/a	n/a	-999	12	[0, 0, 0]	n/a	catFR1	0	R1036M
1590.994	10.428	1034977	COUNTDOWN_START	n/a	n/a	n/a	n/a	-999	12	[0, 0, 0]	n/a	catFR1	0	R1036M
1601.422	0.007	1040191	COUNTDOWN_END	n/a	n/a	n/a	n/a	-999	12	[0, 0, 0]	n/a	catFR1	0	R1036M
1601.429	3.717	1040194	ORIENT	n/a	n/a	n/a	n/a	-999	12	[0, 0, 0]	n/a	catFR1	0	R1036M
1605.146	2.484	1042053	WORD	n/a	wordpools/wordpool_categorized_EN.txt	SHELF	Furniture	1	12	[0, 0, 0]	n/a	catFR1	0	R1036M
1607.63	2.384	1043294	WORD	n/a	wordpools/wordpool_categorized_EN.txt	DESK	Furniture	2	12	[0, 0, 0]	n/a	catFR1	0	R1036M
1610.014	2.467	1044486	WORD	n/a	wordpools/wordpool_categorized_EN.txt	COW	FarmAnimals	3	12	[0, 0, 0]	n/a	catFR1	0	R1036M
1612.481	2.551	1045720	WORD	n/a	wordpools/wordpool_categorized_EN.txt	BULL	FarmAnimals	4	12	[0, 0, 0]	n/a	catFR1	0	R1036M
1615.032	2.55	1046995	WORD	n/a	wordpools/wordpool_categorized_EN.txt	STRAWBERRY	Fruit	5	12	[0, 0, 0]	n/a	catFR1	0	R1036M
1617.582	2.467	1048270	WORD	n/a	wordpools/wordpool_categorized_EN.txt	BANANA	Fruit	6	12	[0, 0, 0]	n/a	catFR1	0	R1036M
1620.049	2.434	1049504	WORD	n/a	wordpools/wordpool_categorized_EN.txt	TABLE	Furniture	7	12	[0, 0, 0]	n/a	catFR1	0	R1036M
1622.483	2.584	1050721	WORD	n/a	wordpools/wordpool_categorized_EN.txt	NIGHTSTAND	Furniture	8	12	[0, 0, 0]	n/a	catFR1	0	R1036M
1625.067	2.484	1052012	WORD	n/a	wordpools/wordpool_categorized_EN.txt	ORANGE	Fruit	9	12	[0, 0, 0]	n/a	catFR1	0	R1036M
1627.551	2.467	1053254	WORD	n/a	wordpools/wordpool_categorized_EN.txt	PEACH	Fruit	10	12	[0, 0, 0]	n/a	catFR1	0	R1036M
1630.018	2.417	1054488	WORD	n/a	wordpools/wordpool_categorized_EN.txt	TURKEY	FarmAnimals	11	12	[0, 0, 0]	n/a	catFR1	0	R1036M
1632.435	1.617	1055696	WORD	n/a	wordpools/wordpool_categorized_EN.txt	PIG	FarmAnimals	12	12	[0, 0, 0]	n/a	catFR1	0	R1036M
1634.052	0.001	1056505	DISTRACT_START	n/a	n/a	n/a	n/a	-999	12	[0, 0, 0]	n/a	catFR1	0	R1036M
1634.053	0.016	1056505	START	n/a	n/a	n/a	n/a	-999	12	[-999, -999, -999]	n/a	catFR1	0	R1036M
1634.069	16.47	1056513	PROB	16.47	n/a	n/a	n/a	-999	12	[7, 9, 6]	22	catFR1	0	R1036M
1650.539	9.126	1064748	PROB	9.126	n/a	n/a	n/a	-999	12	[1, 3, 2]	5	catFR1	0	R1036M
1659.665	0.009	1069310	STOP	n/a	n/a	n/a	n/a	-999	12	[-999, -999, -999]	n/a	catFR1	0	R1036M
1659.674	1.15	1069315	DISTRACT_END	n/a	n/a	n/a	n/a	-999	12	[0, 0, 0]	n/a	catFR1	0	R1036M
1660.824	2.414	1069890	REC_START	n/a	n/a	n/a	n/a	-999	12	[0, 0, 0]	n/a	catFR1	0	R1036M
1663.238	1.81	1071097	REC_WORD	1.81	n/a	TURKEY	FarmAnimals	11	12	[0, 0, 0]	n/a	catFR1	0	R1036M
1665.048	2.046	1072002	REC_WORD	2.046	n/a	COW	FarmAnimals	3	12	[0, 0, 0]	n/a	catFR1	0	R1036M
1667.094	2.146	1073025	REC_WORD	2.146	n/a	BULL	FarmAnimals	4	12	[0, 0, 0]	n/a	catFR1	0	R1036M
1669.24	2.405	1074098	REC_WORD	2.405	n/a	PIG	FarmAnimals	12	12	[0, 0, 0]	n/a	catFR1	0	R1036M
1671.645	4.082	1075300	REC_WORD	4.082	n/a	DRESSER	n/a	-999	12	[0, 0, 0]	n/a	catFR1	0	R1036M
1675.727	15.11	1077341	REC_WORD	15.11	n/a	BEDROOM	n/a	-999	12	[0, 0, 0]	n/a	catFR1	0	R1036M
1690.837	27.381	1084896	REC_END	n/a	n/a	n/a	n/a	-999	12	[0, 0, 0]	n/a	catFR1	0	R1036M
1718.218	0.0	1098585	COUNTDOWN_START	n/a	n/a	n/a	n/a	-999	13	[0, 0, 0]	n/a	catFR1	0	R1036M
1718.218	10.428	1098585	TRIAL	n/a	n/a	n/a	n/a	-999	13	[0, 0, 0]	n/a	catFR1	0	R1036M
1728.646	0.008	1103799	COUNTDOWN_END	n/a	n/a	n/a	n/a	-999	13	[0, 0, 0]	n/a	catFR1	0	R1036M
1728.654	3.434	1103803	ORIENT	n/a	n/a	n/a	n/a	-999	13	[0, 0, 0]	n/a	catFR1	0	R1036M
1732.088	2.533	1105520	WORD	n/a	wordpools/wordpool_categorized_EN.txt	FOOTBALL	Toys	1	13	[0, 0, 0]	n/a	catFR1	0	R1036M
1734.621	2.601	1106786	WORD	n/a	wordpools/wordpool_categorized_EN.txt	FRISBEE	Toys	2	13	[0, 0, 0]	n/a	catFR1	0	R1036M
1737.222	2.584	1108087	WORD	n/a	wordpools/wordpool_categorized_EN.txt	CELERY	Vegetables	3	13	[0, 0, 0]	n/a	catFR1	0	R1036M
1739.806	2.617	1109379	WORD	n/a	wordpools/wordpool_categorized_EN.txt	CARROT	Vegetables	4	13	[0, 0, 0]	n/a	catFR1	0	R1036M
1742.423	2.384	1110687	WORD	n/a	wordpools/wordpool_categorized_EN.txt	COFFEE	Beverages	5	13	[0, 0, 0]	n/a	catFR1	0	R1036M
1744.807	2.45	1111879	WORD	n/a	wordpools/wordpool_categorized_EN.txt	COLA	Beverages	6	13	[0, 0, 0]	n/a	catFR1	0	R1036M
1747.257	2.567	1113104	WORD	n/a	wordpools/wordpool_categorized_EN.txt	CUCUMBER	Vegetables	7	13	[0, 0, 0]	n/a	catFR1	0	R1036M
1749.824	2.434	1114387	WORD	n/a	wordpools/wordpool_categorized_EN.txt	SPINACH	Vegetables	8	13	[0, 0, 0]	n/a	catFR1	0	R1036M
1752.258	2.584	1115604	WORD	n/a	wordpools/wordpool_categorized_EN.txt	DOLL	Toys	9	13	[0, 0, 0]	n/a	catFR1	0	R1036M
1754.842	2.434	1116896	WORD	n/a	wordpools/wordpool_categorized_EN.txt	BASKETBALL	Toys	10	13	[0, 0, 0]	n/a	catFR1	0	R1036M
1757.276	2.6	1118113	WORD	n/a	wordpools/wordpool_categorized_EN.txt	RUM	Beverages	11	13	[0, 0, 0]	n/a	catFR1	0	R1036M
1759.876	1.617	1119413	WORD	n/a	wordpools/wordpool_categorized_EN.txt	TEA	Beverages	12	13	[0, 0, 0]	n/a	catFR1	0	R1036M
1761.493	0.001	1120222	DISTRACT_START	n/a	n/a	n/a	n/a	-999	13	[0, 0, 0]	n/a	catFR1	0	R1036M
1761.494	0.016	1120222	START	n/a	n/a	n/a	n/a	-999	13	[-999, -999, -999]	n/a	catFR1	0	R1036M
1761.51	10.335	1120230	PROB	10.335	n/a	n/a	n/a	-999	13	[6, 3, 6]	15	catFR1	0	R1036M
1771.845	9.352	1125397	PROB	9.352	n/a	n/a	n/a	-999	13	[2, 8, 7]	17	catFR1	0	R1036M
1781.197	11.355	1130073	PROB	11.355	n/a	n/a	n/a	-999	13	[7, 4, 8]	18	catFR1	0	R1036M
1792.552	0.014	1135750	STOP	n/a	n/a	n/a	n/a	-999	13	[-999, -999, -999]	n/a	catFR1	0	R1036M
1792.566	1.034	1135757	DISTRACT_END	n/a	n/a	n/a	n/a	-999	13	[0, 0, 0]	n/a	catFR1	0	R1036M
1793.6	0.845	1136274	REC_START	n/a	n/a	n/a	n/a	-999	13	[0, 0, 0]	n/a	catFR1	0	R1036M
1794.445	5.867	1136697	REC_WORD	5.867	n/a	FOOTBALL	Toys	1	13	[0, 0, 0]	n/a	catFR1	0	R1036M
1800.312	2.766	1139630	REC_WORD	2.766	n/a	BASKETBALL	Toys	10	13	[0, 0, 0]	n/a	catFR1	0	R1036M
1803.078	2.978	1141013	REC_WORD	2.978	n/a	TEA	Beverages	12	13	[0, 0, 0]	n/a	catFR1	0	R1036M
1806.056	17.556	1142502	REC_WORD	17.556	n/a	COLA	Beverages	6	13	[0, 0, 0]	n/a	catFR1	0	R1036M
1823.612	163.791	1151279	REC_END	n/a	n/a	n/a	n/a	-999	13	[0, 0, 0]	n/a	catFR1	0	R1036M
1987.403	0.001	1233170	COUNTDOWN_START	n/a	n/a	n/a	n/a	-999	14	[0, 0, 0]	n/a	catFR1	0	R1036M
1987.404	10.427	1233171	TRIAL	n/a	n/a	n/a	n/a	-999	14	[0, 0, 0]	n/a	catFR1	0	R1036M
1997.831	0.008	1238384	COUNTDOWN_END	n/a	n/a	n/a	n/a	-999	14	[0, 0, 0]	n/a	catFR1	0	R1036M
1997.839	3.684	1238388	ORIENT	n/a	n/a	n/a	n/a	-999	14	[0, 0, 0]	n/a	catFR1	0	R1036M
2001.523	2.517	1240230	WORD	n/a	wordpools/wordpool_categorized_EN.txt	BASS	Instruments	1	14	[0, 0, 0]	n/a	catFR1	0	R1036M
2004.04	2.517	1241488	WORD	n/a	wordpools/wordpool_categorized_EN.txt	DRUM	Instruments	2	14	[0, 0, 0]	n/a	catFR1	0	R1036M
2006.557	2.501	1242747	WORD	n/a	wordpools/wordpool_categorized_EN.txt	TOASTER	Appliances	3	14	[0, 0, 0]	n/a	catFR1	0	R1036M
2009.058	2.533	1243997	WORD	n/a	wordpools/wordpool_categorized_EN.txt	DISHWASHER	Appliances	4	14	[0, 0, 0]	n/a	catFR1	0	R1036M
2011.591	2.551	1245264	WORD	n/a	wordpools/wordpool_categorized_EN.txt	PLUM	Fruit	5	14	[0, 0, 0]	n/a	catFR1	0	R1036M
2014.142	2.433	1246539	WORD	n/a	wordpools/wordpool_categorized_EN.txt	APPLE	Fruit	6	14	[0, 0, 0]	n/a	catFR1	0	R1036M
2016.575	2.601	1247755	WORD	n/a	wordpools/wordpool_categorized_EN.txt	BLENDER	Appliances	7	14	[0, 0, 0]	n/a	catFR1	0	R1036M
2019.176	2.601	1249056	WORD	n/a	wordpools/wordpool_categorized_EN.txt	OVEN	Appliances	8	14	[0, 0, 0]	n/a	catFR1	0	R1036M
2021.777	2.617	1250356	WORD	n/a	wordpools/wordpool_categorized_EN.txt	GUITAR	Instruments	9	14	[0, 0, 0]	n/a	catFR1	0	R1036M
2024.394	2.5	1251665	WORD	n/a	wordpools/wordpool_categorized_EN.txt	CELLO	Instruments	10	14	[0, 0, 0]	n/a	catFR1	0	R1036M
2026.894	2.618	1252915	WORD	n/a	wordpools/wordpool_categorized_EN.txt	PEAR	Fruit	11	14	[0, 0, 0]	n/a	catFR1	0	R1036M
2029.512	1.617	1254224	WORD	n/a	wordpools/wordpool_categorized_EN.txt	LEMON	Fruit	12	14	[0, 0, 0]	n/a	catFR1	0	R1036M
2031.129	0.001	1255032	DISTRACT_START	n/a	n/a	n/a	n/a	-999	14	[0, 0, 0]	n/a	catFR1	0	R1036M
2031.13	0.015	1255033	START	n/a	n/a	n/a	n/a	-999	14	[-999, -999, -999]	n/a	catFR1	0	R1036M
2031.145	9.786	1255040	PROB	9.786	n/a	n/a	n/a	-999	14	[4, 7, 7]	18	catFR1	0	R1036M
2040.931	10.318	1259933	PROB	10.318	n/a	n/a	n/a	-999	14	[8, 3, 9]	20	catFR1	0	R1036M
2051.249	0.017	1265091	STOP	n/a	n/a	n/a	n/a	-999	14	[-999, -999, -999]	n/a	catFR1	0	R1036M
2051.266	1.084	1265100	DISTRACT_END	n/a	n/a	n/a	n/a	-999	14	[0, 0, 0]	n/a	catFR1	0	R1036M
2052.35	11.964	1265642	REC_START	n/a	n/a	n/a	n/a	-999	14	[0, 0, 0]	n/a	catFR1	0	R1036M
2064.314	5.361	1271624	REC_WORD	5.361	n/a	LEMON	Fruit	12	14	[0, 0, 0]	n/a	catFR1	0	R1036M
2069.675	7.536	1274304	REC_WORD	7.536	n/a	PEAR	Fruit	11	14	[0, 0, 0]	n/a	catFR1	0	R1036M
2077.211	5.15	1278072	REC_WORD	5.15	n/a	ASPARAGUS	n/a	-999	14	[0, 0, 0]	n/a	catFR1	0	R1036M
2082.361	17.314	1280647	REC_END	n/a	n/a	n/a	n/a	-999	14	[0, 0, 0]	n/a	catFR1	0	R1036M
2099.675	0.0	1289303	TRIAL	n/a	n/a	n/a	n/a	-999	15	[0, 0, 0]	n/a	catFR1	0	R1036M
2099.675	10.428	1289303	COUNTDOWN_START	n/a	n/a	n/a	n/a	-999	15	[0, 0, 0]	n/a	catFR1	0	R1036M
2110.103	0.008	1294517	COUNTDOWN_END	n/a	n/a	n/a	n/a	-999	15	[0, 0, 0]	n/a	catFR1	0	R1036M
2110.111	3.867	1294521	ORIENT	n/a	n/a	n/a	n/a	-999	15	[0, 0, 0]	n/a	catFR1	0	R1036M
2113.978	2.617	1296454	WORD	n/a	wordpools/wordpool_categorized_EN.txt	CUPCAKE	Desserts	1	15	[0, 0, 0]	n/a	catFR1	0	R1036M
2116.595	2.5	1297763	WORD	n/a	wordpools/wordpool_categorized_EN.txt	CAKE	Desserts	2	15	[0, 0, 0]	n/a	catFR1	0	R1036M
2119.095	2.518	1299013	WORD	n/a	wordpools/wordpool_categorized_EN.txt	SCREWDRIVER	Tools	3	15	[0, 0, 0]	n/a	catFR1	0	R1036M
2121.613	2.483	1300271	WORD	n/a	wordpools/wordpool_categorized_EN.txt	AXE	Tools	4	15	[0, 0, 0]	n/a	catFR1	0	R1036M
2124.096	2.418	1301513	WORD	n/a	wordpools/wordpool_categorized_EN.txt	SHIRT	Clothing	5	15	[0, 0, 0]	n/a	catFR1	0	R1036M
2126.514	2.6	1302722	WORD	n/a	wordpools/wordpool_categorized_EN.txt	COAT	Clothing	6	15	[0, 0, 0]	n/a	catFR1	0	R1036M
2129.114	2.384	1304022	WORD	n/a	wordpools/wordpool_categorized_EN.txt	SAW	Tools	7	15	[0, 0, 0]	n/a	catFR1	0	R1036M
2131.498	2.468	1305214	WORD	n/a	wordpools/wordpool_categorized_EN.txt	CROWBAR	Tools	8	15	[0, 0, 0]	n/a	catFR1	0	R1036M
2133.966	2.583	1306448	WORD	n/a	wordpools/wordpool_categorized_EN.txt	CHEESECAKE	Desserts	9	15	[0, 0, 0]	n/a	catFR1	0	R1036M
2136.549	2.45	1307739	WORD	n/a	wordpools/wordpool_categorized_EN.txt	PIE	Desserts	10	15	[0, 0, 0]	n/a	catFR1	0	R1036M
2138.999	2.567	1308964	WORD	n/a	wordpools/wordpool_categorized_EN.txt	BLOUSE	Clothing	11	15	[0, 0, 0]	n/a	catFR1	0	R1036M
2141.566	1.617	1310247	WORD	n/a	wordpools/wordpool_categorized_EN.txt	DRESS	Clothing	12	15	[0, 0, 0]	n/a	catFR1	0	R1036M
2143.183	0.001	1311056	DISTRACT_START	n/a	n/a	n/a	n/a	-999	15	[0, 0, 0]	n/a	catFR1	0	R1036M
2143.184	0.016	1311056	START	n/a	n/a	n/a	n/a	-999	15	[-999, -999, -999]	n/a	catFR1	0	R1036M
2143.2	7.801	1311064	PROB	7.801	n/a	n/a	n/a	-999	15	[2, 9, 1]	12	catFR1	0	R1036M
2151.001	8.786	1314965	PROB	8.786	n/a	n/a	n/a	-999	15	[6, 6, 4]	16	catFR1	0	R1036M
2159.787	5.598	1319357	PROB	5.598	n/a	n/a	n/a	-999	15	[4, 1, 1]	6	catFR1	0	R1036M
2165.385	0.003	1322156	STOP	n/a	n/a	n/a	n/a	-999	15	[-999, -999, -999]	n/a	catFR1	0	R1036M
2165.388	1.2	1322158	DISTRACT_END	n/a	n/a	n/a	n/a	-999	15	[0, 0, 0]	n/a	catFR1	0	R1036M
2166.588	2.744	1322758	REC_START	n/a	n/a	n/a	n/a	-999	15	[0, 0, 0]	n/a	catFR1	0	R1036M
2169.332	24.864	1324130	REC_WORD	24.864	n/a	CROWBAR	Tools	8	15	[0, 0, 0]	n/a	catFR1	0	R1036M
2194.196	2.405	1336561	REC_WORD	2.405	n/a	RATCHET	n/a	-999	15	[0, 0, 0]	n/a	catFR1	0	R1036M
2196.601	60.688	1337763	REC_END	n/a	n/a	n/a	n/a	-999	15	[0, 0, 0]	n/a	catFR1	0	R1036M
2257.289	0.0	1368106	TRIAL	n/a	n/a	n/a	n/a	-999	16	[0, 0, 0]	n/a	catFR1	0	R1036M
2257.289	10.428	1368106	COUNTDOWN_START	n/a	n/a	n/a	n/a	-999	16	[0, 0, 0]	n/a	catFR1	0	R1036M
2267.717	0.007	1373319	COUNTDOWN_END	n/a	n/a	n/a	n/a	-999	16	[0, 0, 0]	n/a	catFR1	0	R1036M
2267.724	3.717	1373323	ORIENT	n/a	n/a	n/a	n/a	-999	16	[0, 0, 0]	n/a	catFR1	0	R1036M
2271.441	2.468	1375181	WORD	n/a	wordpools/wordpool_categorized_EN.txt	CRAB	OceanAnimals	1	16	[0, 0, 0]	n/a	catFR1	0	R1036M
2273.909	2.617	1376415	WORD	n/a	wordpools/wordpool_categorized_EN.txt	WHALE	OceanAnimals	2	16	[0, 0, 0]	n/a	catFR1	0	R1036M
2276.526	2.401	1377724	WORD	n/a	wordpools/wordpool_categorized_EN.txt	TRUMPET	Instruments	3	16	[0, 0, 0]	n/a	catFR1	0	R1036M
2278.927	2.517	1378924	WORD	n/a	wordpools/wordpool_categorized_EN.txt	PIANO	Instruments	4	16	[0, 0, 0]	n/a	catFR1	0	R1036M
2281.444	2.583	1380182	WORD	n/a	wordpools/wordpool_categorized_EN.txt	STRAINER	KitchenTools	5	16	[0, 0, 0]	n/a	catFR1	0	R1036M
2284.027	2.401	1381474	WORD	n/a	wordpools/wordpool_categorized_EN.txt	CORKSCREW	KitchenTools	6	16	[0, 0, 0]	n/a	catFR1	0	R1036M
2286.428	2.584	1382674	WORD	n/a	wordpools/wordpool_categorized_EN.txt	TROMBONE	Instruments	7	16	[0, 0, 0]	n/a	catFR1	0	R1036M
2289.012	2.5	1383966	WORD	n/a	wordpools/wordpool_categorized_EN.txt	FLUTE	Instruments	8	16	[0, 0, 0]	n/a	catFR1	0	R1036M
2291.512	2.584	1385216	WORD	n/a	wordpools/wordpool_categorized_EN.txt	PLANKTON	OceanAnimals	9	16	[0, 0, 0]	n/a	catFR1	0	R1036M
2294.096	2.567	1386508	WORD	n/a	wordpools/wordpool_categorized_EN.txt	JELLYFISH	OceanAnimals	10	16	[0, 0, 0]	n/a	catFR1	0	R1036M
2296.663	2.55	1387792	WORD	n/a	wordpools/wordpool_categorized_EN.txt	WHISK	KitchenTools	11	16	[0, 0, 0]	n/a	catFR1	0	R1036M
2299.213	1.618	1389066	WORD	n/a	wordpools/wordpool_categorized_EN.txt	PEELER	KitchenTools	12	16	[0, 0, 0]	n/a	catFR1	0	R1036M
2300.831	0.0	1389875	DISTRACT_START	n/a	n/a	n/a	n/a	-999	16	[0, 0, 0]	n/a	catFR1	0	R1036M
2300.831	0.016	1389875	START	n/a	n/a	n/a	n/a	-999	16	[-999, -999, -999]	n/a	catFR1	0	R1036M
2300.847	13.603	1389883	PROB	13.603	n/a	n/a	n/a	-999	16	[8, 6, 4]	18	catFR1	0	R1036M
2314.45	12.255	1396685	PROB	12.255	n/a	n/a	n/a	-999	16	[4, 7, 6]	17	catFR1	0	R1036M
2326.705	0.014	1402812	STOP	n/a	n/a	n/a	n/a	-999	16	[-999, -999, -999]	n/a	catFR1	0	R1036M
2326.719	1.151	1402819	DISTRACT_END	n/a	n/a	n/a	n/a	-999	16	[0, 0, 0]	n/a	catFR1	0	R1036M
2327.87	1.361	1403394	REC_START	n/a	n/a	n/a	n/a	-999	16	[0, 0, 0]	n/a	catFR1	0	R1036M
2329.231	7.097	1404075	REC_WORD	7.097	n/a	PEELER	KitchenTools	12	16	[0, 0, 0]	n/a	catFR1	0	R1036M
2336.328	12.686	1407623	REC_WORD	12.686	n/a	COBBLER	n/a	-999	16	[0, 0, 0]	n/a	catFR1	0	R1036M
2349.014	8.867	1413966	REC_WORD	8.867	n/a	AXE	n/a	-999	16	[0, 0, 0]	n/a	catFR1	0	R1036M
2357.881	25.149	1418399	REC_END	n/a	n/a	n/a	n/a	-999	16	[0, 0, 0]	n/a	catFR1	0	R1036M
2383.03	0.0	1430973	TRIAL	n/a	n/a	n/a	n/a	-999	17	[0, 0, 0]	n/a	catFR1	0	R1036M
2383.03	10.428	1430973	COUNTDOWN_START	n/a	n/a	n/a	n/a	-999	17	[0, 0, 0]	n/a	catFR1	0	R1036M
2393.458	0.007	1436186	COUNTDOWN_END	n/a	n/a	n/a	n/a	-999	17	[0, 0, 0]	n/a	catFR1	0	R1036M
2393.465	3.801	1436190	ORIENT	n/a	n/a	n/a	n/a	-999	17	[0, 0, 0]	n/a	catFR1	0	R1036M
2397.266	2.484	1438090	WORD	n/a	wordpools/wordpool_categorized_EN.txt	TULIP	Flowers	1	17	[0, 0, 0]	n/a	catFR1	0	R1036M
2399.75	2.483	1439332	WORD	n/a	wordpools/wordpool_categorized_EN.txt	DAFFODIL	Flowers	2	17	[0, 0, 0]	n/a	catFR1	0	R1036M
2402.233	2.434	1440574	WORD	n/a	wordpools/wordpool_categorized_EN.txt	MOTORCYCLE	Vehicles	3	17	[0, 0, 0]	n/a	catFR1	0	R1036M
2404.667	2.451	1441790	WORD	n/a	wordpools/wordpool_categorized_EN.txt	TRAIN	Vehicles	4	17	[0, 0, 0]	n/a	catFR1	0	R1036M
2407.118	2.584	1443016	WORD	n/a	wordpools/wordpool_categorized_EN.txt	BEER	Beverages	5	17	[0, 0, 0]	n/a	catFR1	0	R1036M
2409.702	2.517	1444308	WORD	n/a	wordpools/wordpool_categorized_EN.txt	WATER	Beverages	6	17	[0, 0, 0]	n/a	catFR1	0	R1036M
2412.219	2.467	1445566	WORD	n/a	wordpools/wordpool_categorized_EN.txt	SUNFLOWER	Flowers	7	17	[0, 0, 0]	n/a	catFR1	0	R1036M
2414.686	2.567	1446800	WORD	n/a	wordpools/wordpool_categorized_EN.txt	ROSE	Flowers	8	17	[0, 0, 0]	n/a	catFR1	0	R1036M
2417.253	2.567	1448083	WORD	n/a	wordpools/wordpool_categorized_EN.txt	SODA	Beverages	9	17	[0, 0, 0]	n/a	catFR1	0	R1036M
2419.82	2.501	1449367	WORD	n/a	wordpools/wordpool_categorized_EN.txt	JUICE	Beverages	10	17	[0, 0, 0]	n/a	catFR1	0	R1036M
2422.321	2.567	1450617	WORD	n/a	wordpools/wordpool_categorized_EN.txt	TRUCK	Vehicles	11	17	[0, 0, 0]	n/a	catFR1	0	R1036M
2424.888	1.617	1451900	WORD	n/a	wordpools/wordpool_categorized_EN.txt	PLANE	Vehicles	12	17	[0, 0, 0]	n/a	catFR1	0	R1036M
2426.505	0.001	1452709	DISTRACT_START	n/a	n/a	n/a	n/a	-999	17	[0, 0, 0]	n/a	catFR1	0	R1036M
2426.506	0.015	1452709	START	n/a	n/a	n/a	n/a	-999	17	[-999, -999, -999]	n/a	catFR1	0	R1036M
2426.521	17.187	1452717	PROB	17.187	n/a	n/a	n/a	-999	17	[4, 7, 8]	19	catFR1	0	R1036M
2443.708	10.596	1461310	PROB	10.596	n/a	n/a	n/a	-999	17	[4, 7, 6]	17	catFR1	0	R1036M
2454.304	0.006	1466608	STOP	n/a	n/a	n/a	n/a	-999	17	[-999, -999, -999]	n/a	catFR1	0	R1036M
2454.31	1.101	1466611	DISTRACT_END	n/a	n/a	n/a	n/a	-999	17	[0, 0, 0]	n/a	catFR1	0	R1036M
2455.411	3.114	1467161	REC_START	n/a	n/a	n/a	n/a	-999	17	[0, 0, 0]	n/a	catFR1	0	R1036M
2458.525	1.889	1468718	REC_WORD	1.889	n/a	BEER	Beverages	5	17	[0, 0, 0]	n/a	catFR1	0	R1036M
2460.414	2.188	1469662	REC_WORD	2.188	n/a	JUICE	Beverages	10	17	[0, 0, 0]	n/a	catFR1	0	R1036M
2462.602	2.344	1470756	REC_WORD	2.344	n/a	PLANE	Vehicles	12	17	[0, 0, 0]	n/a	catFR1	0	R1036M
2464.946	11.238	1471928	REC_WORD	11.238	n/a	TRUCK	Vehicles	11	17	[0, 0, 0]	n/a	catFR1	0	R1036M
2476.184	9.239	1477547	REC_WORD	9.239	n/a	TRAIN	Vehicles	4	17	[0, 0, 0]	n/a	catFR1	0	R1036M
2485.423	20.814	1482166	REC_END	n/a	n/a	n/a	n/a	-999	17	[0, 0, 0]	n/a	catFR1	0	R1036M
2506.237	0.0	1492573	TRIAL	n/a	n/a	n/a	n/a	-999	18	[0, 0, 0]	n/a	catFR1	0	R1036M
2506.237	10.428	1492573	COUNTDOWN_START	n/a	n/a	n/a	n/a	-999	18	[0, 0, 0]	n/a	catFR1	0	R1036M
2516.665	0.007	1497786	COUNTDOWN_END	n/a	n/a	n/a	n/a	-999	18	[0, 0, 0]	n/a	catFR1	0	R1036M
2516.672	3.568	1497790	ORIENT	n/a	n/a	n/a	n/a	-999	18	[0, 0, 0]	n/a	catFR1	0	R1036M
2520.24	2.533	1499574	WORD	n/a	wordpools/wordpool_categorized_EN.txt	SLINKY	Toys	1	18	[0, 0, 0]	n/a	catFR1	0	R1036M
2522.773	2.434	1500840	WORD	n/a	wordpools/wordpool_categorized_EN.txt	PUZZLE	Toys	2	18	[0, 0, 0]	n/a	catFR1	0	R1036M
2525.207	2.45	1502057	WORD	n/a	wordpools/wordpool_categorized_EN.txt	BEACH	Landscapes	3	18	[0, 0, 0]	n/a	catFR1	0	R1036M
2527.657	2.485	1503282	WORD	n/a	wordpools/wordpool_categorized_EN.txt	WOODS	Landscapes	4	18	[0, 0, 0]	n/a	catFR1	0	R1036M
2530.142	2.516	1504524	WORD	n/a	wordpools/wordpool_categorized_EN.txt	KNEE	BodyParts	5	18	[0, 0, 0]	n/a	catFR1	0	R1036M
2532.658	2.601	1505782	WORD	n/a	wordpools/wordpool_categorized_EN.txt	HEAD	BodyParts	6	18	[0, 0, 0]	n/a	catFR1	0	R1036M
2535.259	2.384	1507083	WORD	n/a	wordpools/wordpool_categorized_EN.txt	BLOCKS	Toys	7	18	[0, 0, 0]	n/a	catFR1	0	R1036M
2537.643	2.534	1508275	WORD	n/a	wordpools/wordpool_categorized_EN.txt	BARBIE	Toys	8	18	[0, 0, 0]	n/a	catFR1	0	R1036M
2540.177	2.617	1509542	WORD	n/a	wordpools/wordpool_categorized_EN.txt	EAR	BodyParts	9	18	[0, 0, 0]	n/a	catFR1	0	R1036M
2542.794	2.567	1510850	WORD	n/a	wordpools/wordpool_categorized_EN.txt	EYE	BodyParts	10	18	[0, 0, 0]	n/a	catFR1	0	R1036M
2545.361	2.467	1512134	WORD	n/a	wordpools/wordpool_categorized_EN.txt	MOUNTAIN	Landscapes	11	18	[0, 0, 0]	n/a	catFR1	0	R1036M
2547.828	1.617	1513367	WORD	n/a	wordpools/wordpool_categorized_EN.txt	HILLS	Landscapes	12	18	[0, 0, 0]	n/a	catFR1	0	R1036M
2549.445	0.001	1514175	DISTRACT_START	n/a	n/a	n/a	n/a	-999	18	[0, 0, 0]	n/a	catFR1	0	R1036M
2549.446	0.016	1514176	START	n/a	n/a	n/a	n/a	-999	18	[-999, -999, -999]	n/a	catFR1	0	R1036M
2549.462	10.486	1514184	PROB	10.486	n/a	n/a	n/a	-999	18	[1, 3, 2]	6	catFR1	0	R1036M
2559.948	9.334	1519427	PROB	9.334	n/a	n/a	n/a	-999	18	[4, 4, 6]	14	catFR1	0	R1036M
2569.282	6.31	1524093	PROB	6.31	n/a	n/a	n/a	-999	18	[3, 2, 7]	12	catFR1	0	R1036M
2575.592	0.008	1527248	STOP	n/a	n/a	n/a	n/a	-999	18	[-999, -999, -999]	n/a	catFR1	0	R1036M
2575.6	1.101	1527252	DISTRACT_END	n/a	n/a	n/a	n/a	-999	18	[0, 0, 0]	n/a	catFR1	0	R1036M
2576.701	2.319	1527803	REC_START	n/a	n/a	n/a	n/a	-999	18	[0, 0, 0]	n/a	catFR1	0	R1036M
2579.02	3.076	1528962	REC_WORD	3.076	n/a	MOUNTAIN	Landscapes	11	18	[0, 0, 0]	n/a	catFR1	0	R1036M
2582.096	11.892	1530500	REC_WORD	11.892	n/a	VALLEY	n/a	-999	18	[0, 0, 0]	n/a	catFR1	0	R1036M
2593.988	8.0	1536446	REC_WORD	8.0	n/a	BENCH	n/a	-999	18	[0, 0, 0]	n/a	catFR1	0	R1036M
2601.988	4.728	1540445	REC_WORD	4.728	n/a	CLOUD	n/a	-999	18	[0, 0, 0]	n/a	catFR1	0	R1036M
2606.716	32.613	1542809	REC_END	n/a	n/a	n/a	n/a	-999	18	[0, 0, 0]	n/a	catFR1	0	R1036M
2639.329	0.0	1559115	TRIAL	n/a	n/a	n/a	n/a	-999	19	[0, 0, 0]	n/a	catFR1	0	R1036M
2639.329	10.428	1559115	COUNTDOWN_START	n/a	n/a	n/a	n/a	-999	19	[0, 0, 0]	n/a	catFR1	0	R1036M
2649.757	0.008	1564329	COUNTDOWN_END	n/a	n/a	n/a	n/a	-999	19	[0, 0, 0]	n/a	catFR1	0	R1036M
2649.765	3.567	1564333	ORIENT	n/a	n/a	n/a	n/a	-999	19	[0, 0, 0]	n/a	catFR1	0	R1036M
2653.332	2.55	1566116	WORD	n/a	wordpools/wordpool_categorized_EN.txt	BEE	Insects	1	19	[0, 0, 0]	n/a	catFR1	0	R1036M
2655.882	2.601	1567391	WORD	n/a	wordpools/wordpool_categorized_EN.txt	BUTTERFLY	Insects	2	19	[0, 0, 0]	n/a	catFR1	0	R1036M
2658.483	2.468	1568691	WORD	n/a	wordpools/wordpool_categorized_EN.txt	COOKIE	Desserts	3	19	[0, 0, 0]	n/a	catFR1	0	R1036M
2660.951	2.433	1569925	WORD	n/a	wordpools/wordpool_categorized_EN.txt	MOUSSE	Desserts	4	19	[0, 0, 0]	n/a	catFR1	0	R1036M
2663.384	2.45	1571142	WORD	n/a	wordpools/wordpool_categorized_EN.txt	LION	Zoo	5	19	[0, 0, 0]	n/a	catFR1	0	R1036M
2665.834	2.618	1572367	WORD	n/a	wordpools/wordpool_categorized_EN.txt	CHIMPANZEE	Zoo	6	19	[0, 0, 0]	n/a	catFR1	0	R1036M
2668.452	2.55	1573676	WORD	n/a	wordpools/wordpool_categorized_EN.txt	PUDDING	Desserts	7	19	[0, 0, 0]	n/a	catFR1	0	R1036M
2671.002	2.584	1574950	WORD	n/a	wordpools/wordpool_categorized_EN.txt	BROWNIES	Desserts	8	19	[0, 0, 0]	n/a	catFR1	0	R1036M
2673.586	2.55	1576242	WORD	n/a	wordpools/wordpool_categorized_EN.txt	MOTH	Insects	9	19	[0, 0, 0]	n/a	catFR1	0	R1036M
2676.136	2.551	1577517	WORD	n/a	wordpools/wordpool_categorized_EN.txt	LADYBUG	Insects	10	19	[0, 0, 0]	n/a	catFR1	0	R1036M
2678.687	2.617	1578793	WORD	n/a	wordpools/wordpool_categorized_EN.txt	ELEPHANT	Zoo	11	19	[0, 0, 0]	n/a	catFR1	0	R1036M
2681.304	1.618	1580101	WORD	n/a	wordpools/wordpool_categorized_EN.txt	ZEBRA	Zoo	12	19	[0, 0, 0]	n/a	catFR1	0	R1036M
2682.922	0.001	1580910	DISTRACT_START	n/a	n/a	n/a	n/a	-999	19	[0, 0, 0]	n/a	catFR1	0	R1036M
2682.923	0.016	1580911	START	n/a	n/a	n/a	n/a	-999	19	[-999, -999, -999]	n/a	catFR1	0	R1036M
2682.939	9.05	1580919	PROB	9.05	n/a	n/a	n/a	-999	19	[4, 4, 2]	10	catFR1	0	R1036M
2691.989	12.475	1585443	PROB	12.475	n/a	n/a	n/a	-999	19	[4, 5, 9]	18	catFR1	0	R1036M
2704.464	0.011	1591681	STOP	n/a	n/a	n/a	n/a	-999	19	[-999, -999, -999]	n/a	catFR1	0	R1036M
2704.475	1.168	1591686	DISTRACT_END	n/a	n/a	n/a	n/a	-999	19	[0, 0, 0]	n/a	catFR1	0	R1036M
2705.643	1.446	1592270	REC_START	n/a	n/a	n/a	n/a	-999	19	[0, 0, 0]	n/a	catFR1	0	R1036M
2707.089	1.917	1592993	REC_WORD	1.917	n/a	ELEPHANT	Zoo	11	19	[0, 0, 0]	n/a	catFR1	0	R1036M
2709.006	20.162	1593951	REC_WORD	20.162	n/a	ZEBRA	Zoo	12	19	[0, 0, 0]	n/a	catFR1	0	R1036M
2729.168	6.487	1604032	REC_WORD	6.487	n/a	CHIMPANZEE	Zoo	6	19	[0, 0, 0]	n/a	catFR1	0	R1036M
2735.655	18.046	1607275	REC_END	n/a	n/a	n/a	n/a	-999	19	[0, 0, 0]	n/a	catFR1	0	R1036M
2753.701	0.001	1616298	COUNTDOWN_START	n/a	n/a	n/a	n/a	-999	20	[0, 0, 0]	n/a	catFR1	0	R1036M
2753.702	10.427	1616298	TRIAL	n/a	n/a	n/a	n/a	-999	20	[0, 0, 0]	n/a	catFR1	0	R1036M
2764.129	0.008	1621511	COUNTDOWN_END	n/a	n/a	n/a	n/a	-999	20	[0, 0, 0]	n/a	catFR1	0	R1036M
2764.137	3.835	1621515	ORIENT	n/a	n/a	n/a	n/a	-999	20	[0, 0, 0]	n/a	catFR1	0	R1036M
2767.972	2.566	1623433	WORD	n/a	wordpools/wordpool_categorized_EN.txt	PINE	Trees	1	20	[0, 0, 0]	n/a	catFR1	0	R1036M
2770.538	2.517	1624716	WORD	n/a	wordpools/wordpool_categorized_EN.txt	EVERGREEN	Trees	2	20	[0, 0, 0]	n/a	catFR1	0	R1036M
2773.055	2.534	1625974	WORD	n/a	wordpools/wordpool_categorized_EN.txt	GRATER	KitchenTools	3	20	[0, 0, 0]	n/a	catFR1	0	R1036M
2775.589	2.584	1627241	WORD	n/a	wordpools/wordpool_categorized_EN.txt	SPATULA	KitchenTools	4	20	[0, 0, 0]	n/a	catFR1	0	R1036M
2778.173	2.567	1628533	WORD	n/a	wordpools/wordpool_categorized_EN.txt	DRILL	Tools	5	20	[0, 0, 0]	n/a	catFR1	0	R1036M
2780.74	2.45	1629816	WORD	n/a	wordpools/wordpool_categorized_EN.txt	WRENCH	Tools	6	20	[0, 0, 0]	n/a	catFR1	0	R1036M
2783.19	2.601	1631041	WORD	n/a	wordpools/wordpool_categorized_EN.txt	SPRUCE	Trees	7	20	[0, 0, 0]	n/a	catFR1	0	R1036M
2785.791	2.45	1632342	WORD	n/a	wordpools/wordpool_categorized_EN.txt	BIRCH	Trees	8	20	[0, 0, 0]	n/a	catFR1	0	R1036M
2788.241	2.567	1633567	WORD	n/a	wordpools/wordpool_categorized_EN.txt	PLIERS	Tools	9	20	[0, 0, 0]	n/a	catFR1	0	R1036M
2790.808	2.618	1634850	WORD	n/a	wordpools/wordpool_categorized_EN.txt	HAMMER	Tools	10	20	[0, 0, 0]	n/a	catFR1	0	R1036M
2793.426	2.567	1636159	WORD	n/a	wordpools/wordpool_categorized_EN.txt	LADLE	KitchenTools	11	20	[0, 0, 0]	n/a	catFR1	0	R1036M
2795.993	1.617	1637442	WORD	n/a	wordpools/wordpool_categorized_EN.txt	FORK	KitchenTools	12	20	[0, 0, 0]	n/a	catFR1	0	R1036M
2797.61	0.001	1638251	DISTRACT_START	n/a	n/a	n/a	n/a	-999	20	[0, 0, 0]	n/a	catFR1	0	R1036M
2797.611	0.015	1638251	START	n/a	n/a	n/a	n/a	-999	20	[-999, -999, -999]	n/a	catFR1	0	R1036M
2797.626	8.202	1638259	PROB	8.202	n/a	n/a	n/a	-999	20	[1, 2, 2]	5	catFR1	0	R1036M
2805.828	11.949	1642360	PROB	11.949	n/a	n/a	n/a	-999	20	[4, 8, 5]	17	catFR1	0	R1036M
2817.777	0.003	1648334	STOP	n/a	n/a	n/a	n/a	-999	20	[-999, -999, -999]	n/a	catFR1	0	R1036M
2817.78	1.068	1648335	DISTRACT_END	n/a	n/a	n/a	n/a	-999	20	[0, 0, 0]	n/a	catFR1	0	R1036M
2818.848	2.164	1648869	REC_START	n/a	n/a	n/a	n/a	-999	20	[0, 0, 0]	n/a	catFR1	0	R1036M
2821.012	5.811	1649951	REC_WORD	5.811	n/a	WRENCH	Tools	6	20	[0, 0, 0]	n/a	catFR1	0	R1036M
2826.823	3.929	1652857	REC_WORD	3.929	n/a	LADYBUG	n/a	-999	20	[0, 0, 0]	n/a	catFR1	0	R1036M
2830.752	18.108	1654821	REC_WORD	18.108	n/a	PLIERS	Tools	9	20	[0, 0, 0]	n/a	catFR1	0	R1036M
2848.86	26.198	1663874	REC_END	n/a	n/a	n/a	n/a	-999	20	[0, 0, 0]	n/a	catFR1	0	R1036M
2875.058	0.0	1676973	TRIAL	n/a	n/a	n/a	n/a	-999	21	[0, 0, 0]	n/a	catFR1	0	R1036M
2875.058	10.428	1676973	COUNTDOWN_START	n/a	n/a	n/a	n/a	-999	21	[0, 0, 0]	n/a	catFR1	0	R1036M
2885.486	0.007	1682186	COUNTDOWN_END	n/a	n/a	n/a	n/a	-999	21	[0, 0, 0]	n/a	catFR1	0	R1036M
2885.493	3.517	1682190	ORIENT	n/a	n/a	n/a	n/a	-999	21	[0, 0, 0]	n/a	catFR1	0	R1036M
2889.01	2.434	1683948	WORD	n/a	wordpools/wordpool_categorized_EN.txt	JEANS	Clothing	1	21	[0, 0, 0]	n/a	catFR1	0	R1036M
2891.444	2.401	1685165	WORD	n/a	wordpools/wordpool_categorized_EN.txt	SHOES	Clothing	2	21	[0, 0, 0]	n/a	catFR1	0	R1036M
2893.845	2.567	1686366	WORD	n/a	wordpools/wordpool_categorized_EN.txt	ANT	Insects	3	21	[0, 0, 0]	n/a	catFR1	0	R1036M
2896.412	2.617	1687649	WORD	n/a	wordpools/wordpool_categorized_EN.txt	SPIDER	Insects	4	21	[0, 0, 0]	n/a	catFR1	0	R1036M
2899.029	2.618	1688958	WORD	n/a	wordpools/wordpool_categorized_EN.txt	STREAM	Landscapes	5	21	[0, 0, 0]	n/a	catFR1	0	R1036M
2901.647	2.417	1690267	WORD	n/a	wordpools/wordpool_categorized_EN.txt	ISLAND	Landscapes	6	21	[0, 0, 0]	n/a	catFR1	0	R1036M
2904.064	2.617	1691475	WORD	n/a	wordpools/wordpool_categorized_EN.txt	FLY	Insects	7	21	[0, 0, 0]	n/a	catFR1	0	R1036M
2906.681	2.45	1692783	WORD	n/a	wordpools/wordpool_categorized_EN.txt	GNAT	Insects	8	21	[0, 0, 0]	n/a	catFR1	0	R1036M
2909.131	2.418	1694008	WORD	n/a	wordpools/wordpool_categorized_EN.txt	UNDERWEAR	Clothing	9	21	[0, 0, 0]	n/a	catFR1	0	R1036M
2911.549	2.5	1695217	WORD	n/a	wordpools/wordpool_categorized_EN.txt	SHORTS	Clothing	10	21	[0, 0, 0]	n/a	catFR1	0	R1036M
2914.049	2.417	1696467	WORD	n/a	wordpools/wordpool_categorized_EN.txt	FOREST	Landscapes	11	21	[0, 0, 0]	n/a	catFR1	0	R1036M
2916.466	1.617	1697676	WORD	n/a	wordpools/wordpool_categorized_EN.txt	LAKE	Landscapes	12	21	[0, 0, 0]	n/a	catFR1	0	R1036M
2918.083	0.001	1698484	DISTRACT_START	n/a	n/a	n/a	n/a	-999	21	[0, 0, 0]	n/a	catFR1	0	R1036M
2918.084	0.016	1698485	START	n/a	n/a	n/a	n/a	-999	21	[-999, -999, -999]	n/a	catFR1	0	R1036M
2918.1	7.634	1698493	PROB	7.634	n/a	n/a	n/a	-999	21	[5, 7, 5]	17	catFR1	0	R1036M
2925.734	11.903	1702309	PROB	11.903	n/a	n/a	n/a	-999	21	[7, 7, 9]	23	catFR1	0	R1036M
2937.637	6.5	1708260	PROB	6.5	n/a	n/a	n/a	-999	21	[3, 3, 3]	9	catFR1	0	R1036M
2944.137	0.018	1711510	STOP	n/a	n/a	n/a	n/a	-999	21	[-999, -999, -999]	n/a	catFR1	0	R1036M
2944.155	1.034	1711519	DISTRACT_END	n/a	n/a	n/a	n/a	-999	21	[0, 0, 0]	n/a	catFR1	0	R1036M
2945.189	7.476	1712036	REC_START	n/a	n/a	n/a	n/a	-999	21	[0, 0, 0]	n/a	catFR1	0	R1036M
2952.665	22.535	1715774	REC_WORD_VV	22.535	n/a	<>	n/a	-999	21	[0, 0, 0]	n/a	catFR1	0	R1036M
2975.2	19.298	1727041	REC_END	n/a	n/a	n/a	n/a	-999	21	[0, 0, 0]	n/a	catFR1	0	R1036M
2994.498	0.0	1736689	TRIAL	n/a	n/a	n/a	n/a	-999	22	[0, 0, 0]	n/a	catFR1	0	R1036M
2994.498	10.428	1736689	COUNTDOWN_START	n/a	n/a	n/a	n/a	-999	22	[0, 0, 0]	n/a	catFR1	0	R1036M
3004.926	0.008	1741903	COUNTDOWN_END	n/a	n/a	n/a	n/a	-999	22	[0, 0, 0]	n/a	catFR1	0	R1036M
3004.934	3.9	1741907	ORIENT	n/a	n/a	n/a	n/a	-999	22	[0, 0, 0]	n/a	catFR1	0	R1036M
3008.834	2.517	1743857	WORD	n/a	wordpools/wordpool_categorized_EN.txt	MOPED	Vehicles	1	22	[0, 0, 0]	n/a	catFR1	0	R1036M
3011.351	2.568	1745115	WORD	n/a	wordpools/wordpool_categorized_EN.txt	CAR	Vehicles	2	22	[0, 0, 0]	n/a	catFR1	0	R1036M
3013.919	2.533	1746399	WORD	n/a	wordpools/wordpool_categorized_EN.txt	SCANNER	Electronics	3	22	[0, 0, 0]	n/a	catFR1	0	R1036M
3016.452	2.434	1747666	WORD	n/a	wordpools/wordpool_categorized_EN.txt	PHONE	Electronics	4	22	[0, 0, 0]	n/a	catFR1	0	R1036M
3018.886	2.584	1748883	WORD	n/a	wordpools/wordpool_categorized_EN.txt	THUNDER	Weather	5	22	[0, 0, 0]	n/a	catFR1	0	R1036M
3021.47	2.4	1750175	WORD	n/a	wordpools/wordpool_categorized_EN.txt	HUMIDITY	Weather	6	22	[0, 0, 0]	n/a	catFR1	0	R1036M
3023.87	2.551	1751375	WORD	n/a	wordpools/wordpool_categorized_EN.txt	BUS	Vehicles	7	22	[0, 0, 0]	n/a	catFR1	0	R1036M
3026.421	2.501	1752650	WORD	n/a	wordpools/wordpool_categorized_EN.txt	SCOOTER	Vehicles	8	22	[0, 0, 0]	n/a	catFR1	0	R1036M
3028.922	2.533	1753900	WORD	n/a	wordpools/wordpool_categorized_EN.txt	THUNDERSTORM	Weather	9	22	[0, 0, 0]	n/a	catFR1	0	R1036M
3031.455	2.617	1755167	WORD	n/a	wordpools/wordpool_categorized_EN.txt	LIGHTNING	Weather	10	22	[0, 0, 0]	n/a	catFR1	0	R1036M
3034.072	2.584	1756475	WORD	n/a	wordpools/wordpool_categorized_EN.txt	CALCULATOR	Electronics	11	22	[0, 0, 0]	n/a	catFR1	0	R1036M
3036.656	1.617	1757767	WORD	n/a	wordpools/wordpool_categorized_EN.txt	PRINTER	Electronics	12	22	[0, 0, 0]	n/a	catFR1	0	R1036M
3038.273	0.001	1758576	DISTRACT_START	n/a	n/a	n/a	n/a	-999	22	[0, 0, 0]	n/a	catFR1	0	R1036M
3038.274	0.016	1758576	START	n/a	n/a	n/a	n/a	-999	22	[-999, -999, -999]	n/a	catFR1	0	R1036M
3038.29	11.852	1758584	PROB	11.852	n/a	n/a	n/a	-999	22	[7, 5, 9]	21	catFR1	0	R1036M
3050.142	4.601	1764510	PROB	4.601	n/a	n/a	n/a	-999	22	[1, 4, 9]	14	catFR1	0	R1036M
3054.743	6.826	1766810	PROB	6.826	n/a	n/a	n/a	-999	22	[9, 2, 2]	13	catFR1	0	R1036M
3061.569	0.008	1770223	STOP	n/a	n/a	n/a	n/a	-999	22	[-999, -999, -999]	n/a	catFR1	0	R1036M
3061.577	1.118	1770227	DISTRACT_END	n/a	n/a	n/a	n/a	-999	22	[0, 0, 0]	n/a	catFR1	0	R1036M
3062.695	1.638	1770786	REC_START	n/a	n/a	n/a	n/a	-999	22	[0, 0, 0]	n/a	catFR1	0	R1036M
3064.333	2.471	1771605	REC_WORD	2.471	n/a	MOPED	Vehicles	1	22	[0, 0, 0]	n/a	catFR1	0	R1036M
3066.804	2.548	1772840	REC_WORD	2.548	n/a	TRUCK	n/a	-999	22	[0, 0, 0]	n/a	catFR1	0	R1036M
3069.352	4.959	1774114	REC_WORD	4.959	n/a	SCOOTER	Vehicles	8	22	[0, 0, 0]	n/a	catFR1	0	R1036M
3074.311	18.395	1776594	REC_WORD	18.395	n/a	CAR	Vehicles	2	22	[0, 0, 0]	n/a	catFR1	0	R1036M
3092.706	20.314	1785791	REC_END	n/a	n/a	n/a	n/a	-999	22	[0, 0, 0]	n/a	catFR1	0	R1036M
3113.02	0.001	1795947	COUNTDOWN_START	n/a	n/a	n/a	n/a	-999	23	[0, 0, 0]	n/a	catFR1	0	R1036M
3113.021	10.427	1795948	TRIAL	n/a	n/a	n/a	n/a	-999	23	[0, 0, 0]	n/a	catFR1	0	R1036M
3123.448	0.008	1801161	COUNTDOWN_END	n/a	n/a	n/a	n/a	-999	23	[0, 0, 0]	n/a	catFR1	0	R1036M
3123.456	3.634	1801165	ORIENT	n/a	n/a	n/a	n/a	-999	23	[0, 0, 0]	n/a	catFR1	0	R1036M
3127.09	2.601	1802982	WORD	n/a	wordpools/wordpool_categorized_EN.txt	CRICKET	Insects	1	23	[0, 0, 0]	n/a	catFR1	0	R1036M
3129.691	2.483	1804282	WORD	n/a	wordpools/wordpool_categorized_EN.txt	ROACH	Insects	2	23	[0, 0, 0]	n/a	catFR1	0	R1036M
3132.174	2.601	1805524	WORD	n/a	wordpools/wordpool_categorized_EN.txt	CROW	Birds	3	23	[0, 0, 0]	n/a	catFR1	0	R1036M
3134.775	2.517	1806824	WORD	n/a	wordpools/wordpool_categorized_EN.txt	PIGEON	Birds	4	23	[0, 0, 0]	n/a	catFR1	0	R1036M
3137.292	2.617	1808082	WORD	n/a	wordpools/wordpool_categorized_EN.txt	PEN	OfficeSupplies	5	23	[0, 0, 0]	n/a	catFR1	0	R1036M
3139.909	2.601	1809391	WORD	n/a	wordpools/wordpool_categorized_EN.txt	TAPE	OfficeSupplies	6	23	[0, 0, 0]	n/a	catFR1	0	R1036M
3142.51	2.6	1810691	WORD	n/a	wordpools/wordpool_categorized_EN.txt	MOSQUITO	Insects	7	23	[0, 0, 0]	n/a	catFR1	0	R1036M
3145.11	2.517	1811991	WORD	n/a	wordpools/wordpool_categorized_EN.txt	BEETLE	Insects	8	23	[0, 0, 0]	n/a	catFR1	0	R1036M
3147.627	2.484	1813250	WORD	n/a	wordpools/wordpool_categorized_EN.txt	MARKER	OfficeSupplies	9	23	[0, 0, 0]	n/a	catFR1	0	R1036M
3150.111	2.434	1814492	WORD	n/a	wordpools/wordpool_categorized_EN.txt	PAPER	OfficeSupplies	10	23	[0, 0, 0]	n/a	catFR1	0	R1036M
3152.545	2.6	1815708	WORD	n/a	wordpools/wordpool_categorized_EN.txt	FINCH	Birds	11	23	[0, 0, 0]	n/a	catFR1	0	R1036M
3155.145	1.617	1817008	WORD	n/a	wordpools/wordpool_categorized_EN.txt	HAWK	Birds	12	23	[0, 0, 0]	n/a	catFR1	0	R1036M
3156.762	0.001	1817817	DISTRACT_START	n/a	n/a	n/a	n/a	-999	23	[0, 0, 0]	n/a	catFR1	0	R1036M
3156.763	0.016	1817817	START	n/a	n/a	n/a	n/a	-999	23	[-999, -999, -999]	n/a	catFR1	0	R1036M
3156.779	6.401	1817825	PROB	6.401	n/a	n/a	n/a	-999	23	[1, 4, 9]	14	catFR1	0	R1036M
3163.18	4.201	1821026	PROB	4.201	n/a	n/a	n/a	-999	23	[1, 5, 5]	11	catFR1	0	R1036M
3167.381	13.844	1823126	PROB	13.844	n/a	n/a	n/a	-999	23	[4, 7, 9]	19	catFR1	0	R1036M
3181.225	0.009	1830048	STOP	n/a	n/a	n/a	n/a	-999	23	[-999, -999, -999]	n/a	catFR1	0	R1036M
3181.234	1.134	1830052	DISTRACT_END	n/a	n/a	n/a	n/a	-999	23	[0, 0, 0]	n/a	catFR1	0	R1036M
3182.368	12.267	1830619	REC_START	n/a	n/a	n/a	n/a	-999	23	[0, 0, 0]	n/a	catFR1	0	R1036M
3194.635	5.198	1836752	REC_WORD	5.198	n/a	MOSQUITO	Insects	7	23	[0, 0, 0]	n/a	catFR1	0	R1036M
3199.833	10.225	1839351	REC_WORD	10.225	n/a	BEE	n/a	-999	23	[0, 0, 0]	n/a	catFR1	0	R1036M
3210.058	2.32	1844463	REC_WORD	2.32	n/a	FLY	n/a	-999	23	[0, 0, 0]	n/a	catFR1	0	R1036M
3212.378	19.799	1845623	REC_END	n/a	n/a	n/a	n/a	-999	23	[0, 0, 0]	n/a	catFR1	0	R1036M
3232.177	0.0	1855522	TRIAL	n/a	n/a	n/a	n/a	-999	24	[0, 0, 0]	n/a	catFR1	0	R1036M
3232.177	0.0	1855522	COUNTDOWN_START	n/a	n/a	n/a	n/a	-999	24	[0, 0, 0]	n/a	catFR1	0	R1036M
