onset	duration	sample	trial_type	response_time	stim_file	item_name	category	serialpos	list	test	answer	experiment	session	subject
0.0	5.996	152993	INSTRUCT_START	n/a	n/a	n/a	n/a	-999	-999	[0, 0, 0]	n/a	catFR1	1	R1409D
5.996	2.3	158990	INSTRUCT_END	n/a	n/a	n/a	n/a	-999	-999	[0, 0, 0]	n/a	catFR1	1	R1409D
8.296	161.633	161290	INSTRUCT_START	n/a	n/a	n/a	n/a	-999	-999	[0, 0, 0]	n/a	catFR1	1	R1409D
169.929	53.683	322907	INSTRUCT_END	n/a	n/a	n/a	n/a	-999	-999	[0, 0, 0]	n/a	catFR1	1	R1409D
223.612	10.351	376587	COUNTDOWN_START	n/a	n/a	n/a	n/a	-999	-999	[0, 0, 0]	n/a	catFR1	1	R1409D
233.963	0.0	386936	COUNTDOWN_END	n/a	n/a	n/a	n/a	-999	-999	[0, 0, 0]	n/a	catFR1	1	R1409D
233.963	2.233	386947	ENCODING_START	n/a	n/a	n/a	n/a	-999	-1	[0, 0, 0]	n/a	catFR1	1	R1409D
236.196	1.6	389168	WORD	n/a	n/a	JEEP	Vehicles	1	-1	[0, 0, 0]	n/a	catFR1	1	R1409D
237.796	1.0	390768	WORD_OFF	n/a	n/a	JEEP	Vehicles	1	-1	[0, 0, 0]	n/a	catFR1	1	R1409D
238.796	1.615	391772	WORD	n/a	n/a	BUS	Vehicles	2	-1	[0, 0, 0]	n/a	catFR1	1	R1409D
240.411	0.951	393384	WORD_OFF	n/a	n/a	BUS	Vehicles	2	-1	[0, 0, 0]	n/a	catFR1	1	R1409D
241.362	1.617	394342	WORD	n/a	n/a	THUNDERSTORM	Weather	3	-1	[0, 0, 0]	n/a	catFR1	1	R1409D
242.979	1.0	395954	WORD_OFF	n/a	n/a	THUNDERSTORM	Weather	3	-1	[0, 0, 0]	n/a	catFR1	1	R1409D
243.979	1.6	396957	WORD	n/a	n/a	HUMIDITY	Weather	4	-1	[0, 0, 0]	n/a	catFR1	1	R1409D
245.579	1.0	398558	WORD_OFF	n/a	n/a	HUMIDITY	Weather	4	-1	[0, 0, 0]	n/a	catFR1	1	R1409D
246.579	1.616	399550	WORD	n/a	n/a	CABINET	Furniture	5	-1	[0, 0, 0]	n/a	catFR1	1	R1409D
248.195	0.767	401173	WORD_OFF	n/a	n/a	CABINET	Furniture	5	-1	[0, 0, 0]	n/a	catFR1	1	R1409D
248.962	1.616	401940	WORD	n/a	n/a	DRESSER	Furniture	6	-1	[0, 0, 0]	n/a	catFR1	1	R1409D
250.578	0.867	403552	WORD_OFF	n/a	n/a	DRESSER	Furniture	6	-1	[0, 0, 0]	n/a	catFR1	1	R1409D
251.445	1.6	404420	WORD	n/a	n/a	TORNADO	Weather	7	-1	[0, 0, 0]	n/a	catFR1	1	R1409D
253.045	0.967	406020	WORD_OFF	n/a	n/a	TORNADO	Weather	7	-1	[0, 0, 0]	n/a	catFR1	1	R1409D
254.012	1.617	406990	WORD	n/a	n/a	CLOUD	Weather	8	-1	[0, 0, 0]	n/a	catFR1	1	R1409D
255.629	0.833	408602	WORD_OFF	n/a	n/a	CLOUD	Weather	8	-1	[0, 0, 0]	n/a	catFR1	1	R1409D
256.462	1.616	409436	WORD	n/a	n/a	TABLE	Furniture	9	-1	[0, 0, 0]	n/a	catFR1	1	R1409D
258.078	0.917	411059	WORD_OFF	n/a	n/a	TABLE	Furniture	9	-1	[0, 0, 0]	n/a	catFR1	1	R1409D
258.995	1.617	411972	WORD	n/a	n/a	SOFA	Furniture	10	-1	[0, 0, 0]	n/a	catFR1	1	R1409D
260.612	0.984	413584	WORD_OFF	n/a	n/a	SOFA	Furniture	10	-1	[0, 0, 0]	n/a	catFR1	1	R1409D
261.596	1.599	414576	WORD	n/a	n/a	BOAT	Vehicles	11	-1	[0, 0, 0]	n/a	catFR1	1	R1409D
263.195	0.916	416166	WORD_OFF	n/a	n/a	BOAT	Vehicles	11	-1	[0, 0, 0]	n/a	catFR1	1	R1409D
264.111	1.602	417090	WORD	n/a	n/a	CAR	Vehicles	12	-1	[0, 0, 0]	n/a	catFR1	1	R1409D
265.713	0.001	418688	PROB	0.001	n/a	n/a	n/a	-999	-1	[4, 4, 7]	15	catFR1	1	R1409D
265.714	0.0	418689	START	n/a	n/a	n/a	n/a	-999	-1	[-999, -999, -999]	n/a	catFR1	1	R1409D
265.712	0.002	418691	WORD_OFF	n/a	n/a	CAR	Vehicles	12	-1	[0, 0, 0]	n/a	catFR1	1	R1409D
265.714	0.0	418691	ENCODING_END	n/a	n/a	n/a	n/a	-999	-1	[0, 0, 0]	n/a	catFR1	1	R1409D
265.714	8.515	418691	DISTRACT_START	n/a	n/a	n/a	n/a	-999	-1	[0, 0, 0]	n/a	catFR1	1	R1409D
274.229	10.65	427203	PROB	10.65	n/a	n/a	n/a	-999	-1	[6, 3, 5]	14	catFR1	1	R1409D
284.879	4.467	437853	PROB	4.467	n/a	n/a	n/a	-999	-1	[4, 4, 1]	9	catFR1	1	R1409D
289.346	0.0	442318	DISTRACT_END	n/a	n/a	n/a	n/a	-999	-1	[0, 0, 0]	n/a	catFR1	1	R1409D
289.346	2.283	442319	STOP	n/a	n/a	n/a	n/a	-999	-1	[-999, -999, -999]	n/a	catFR1	1	R1409D
291.629	2.721	444604	REC_START	n/a	n/a	n/a	n/a	-999	-1	[0, 0, 0]	n/a	catFR1	1	R1409D
294.35	0.757	447323	REC_WORD	0.757	n/a	BOAT	Vehicles	11	-1	[0, 0, 0]	n/a	catFR1	1	R1409D
295.107	2.525	448080	REC_WORD	2.525	n/a	JEEP	Vehicles	1	-1	[0, 0, 0]	n/a	catFR1	1	R1409D
297.632	1.414	450605	REC_WORD	1.414	n/a	DRAWER	n/a	-999	-1	[0, 0, 0]	n/a	catFR1	1	R1409D
299.046	2.278	452019	REC_WORD	2.278	n/a	THUNDERSTORM	Weather	3	-1	[0, 0, 0]	n/a	catFR1	1	R1409D
301.324	2.931	454297	REC_WORD	2.931	n/a	CLOUD	Weather	8	-1	[0, 0, 0]	n/a	catFR1	1	R1409D
304.255	3.501	457228	REC_WORD_VV	3.501	n/a	<>	n/a	-999	-1	[0, 0, 0]	n/a	catFR1	1	R1409D
307.756	4.821	460729	REC_WORD	4.821	n/a	TABLE	Furniture	9	-1	[0, 0, 0]	n/a	catFR1	1	R1409D
312.577	0.785	465549	REC_WORD_VV	0.785	n/a	<>	n/a	-999	-1	[0, 0, 0]	n/a	catFR1	1	R1409D
313.362	2.658	466334	REC_WORD	2.658	n/a	COUCH	n/a	-999	-1	[0, 0, 0]	n/a	catFR1	1	R1409D
316.02	5.058	468992	REC_WORD_VV	5.058	n/a	<>	n/a	-999	-1	[0, 0, 0]	n/a	catFR1	1	R1409D
321.078	0.782	474050	REC_WORD_VV	0.782	n/a	<>	n/a	-999	-1	[0, 0, 0]	n/a	catFR1	1	R1409D
321.86	20.085	474829	REC_END	n/a	n/a	n/a	n/a	-999	-1	[0, 0, 0]	n/a	catFR1	1	R1409D
341.945	10.351	494917	COUNTDOWN_START	n/a	n/a	n/a	n/a	-999	1	[0, 0, 0]	n/a	catFR1	1	R1409D
352.296	0.0	505265	COUNTDOWN_END	n/a	n/a	n/a	n/a	-999	1	[0, 0, 0]	n/a	catFR1	1	R1409D
352.296	2.0	505265	ENCODING_START	n/a	n/a	n/a	n/a	-999	1	[0, 0, 0]	n/a	catFR1	1	R1409D
354.296	1.6	507261	WORD	n/a	wordpools/wordpool_categorized_EN.txt	SNOW	Weather	1	1	[0, 0, 0]	n/a	catFR1	1	R1409D
355.896	0.9	508861	WORD_OFF	n/a	n/a	SNOW	Weather	1	1	[0, 0, 0]	n/a	catFR1	1	R1409D
356.796	1.616	509763	WORD	n/a	wordpools/wordpool_categorized_EN.txt	WIND	Weather	2	1	[0, 0, 0]	n/a	catFR1	1	R1409D
358.412	0.866	511386	WORD_OFF	n/a	n/a	WIND	Weather	2	1	[0, 0, 0]	n/a	catFR1	1	R1409D
359.278	1.601	512243	WORD	n/a	wordpools/wordpool_categorized_EN.txt	MAPLE	Trees	3	1	[0, 0, 0]	n/a	catFR1	1	R1409D
360.879	0.767	513844	WORD_OFF	n/a	n/a	MAPLE	Trees	3	1	[0, 0, 0]	n/a	catFR1	1	R1409D
361.646	1.616	514610	WORD	n/a	wordpools/wordpool_categorized_EN.txt	BIRCH	Trees	4	1	[0, 0, 0]	n/a	catFR1	1	R1409D
363.262	0.816	516234	WORD_OFF	n/a	n/a	BIRCH	Trees	4	1	[0, 0, 0]	n/a	catFR1	1	R1409D
364.078	1.601	517045	WORD	n/a	wordpools/wordpool_categorized_EN.txt	FOLDER	OfficeSupplies	5	1	[0, 0, 0]	n/a	catFR1	1	R1409D
365.679	0.867	518646	WORD_OFF	n/a	n/a	FOLDER	OfficeSupplies	5	1	[0, 0, 0]	n/a	catFR1	1	R1409D
366.546	1.615	519514	WORD	n/a	wordpools/wordpool_categorized_EN.txt	PENCIL	OfficeSupplies	6	1	[0, 0, 0]	n/a	catFR1	1	R1409D
368.161	0.801	521137	WORD_OFF	n/a	n/a	PENCIL	OfficeSupplies	6	1	[0, 0, 0]	n/a	catFR1	1	R1409D
368.962	1.618	521932	WORD	n/a	wordpools/wordpool_categorized_EN.txt	CYPRESS	Trees	7	1	[0, 0, 0]	n/a	catFR1	1	R1409D
370.58	0.998	523550	WORD_OFF	n/a	n/a	CYPRESS	Trees	7	1	[0, 0, 0]	n/a	catFR1	1	R1409D
371.578	1.601	524553	WORD	n/a	wordpools/wordpool_categorized_EN.txt	CEDAR	Trees	8	1	[0, 0, 0]	n/a	catFR1	1	R1409D
373.179	0.833	526154	WORD_OFF	n/a	n/a	CEDAR	Trees	8	1	[0, 0, 0]	n/a	catFR1	1	R1409D
374.012	1.6	526977	WORD	n/a	wordpools/wordpool_categorized_EN.txt	BINDER	OfficeSupplies	9	1	[0, 0, 0]	n/a	catFR1	1	R1409D
375.612	0.766	528577	WORD_OFF	n/a	n/a	BINDER	OfficeSupplies	9	1	[0, 0, 0]	n/a	catFR1	1	R1409D
376.378	1.601	529344	WORD	n/a	wordpools/wordpool_categorized_EN.txt	TAPE	OfficeSupplies	10	1	[0, 0, 0]	n/a	catFR1	1	R1409D
377.979	0.916	530945	WORD_OFF	n/a	n/a	TAPE	OfficeSupplies	10	1	[0, 0, 0]	n/a	catFR1	1	R1409D
378.895	1.601	531869	WORD	n/a	wordpools/wordpool_categorized_EN.txt	HURRICANE	Weather	11	1	[0, 0, 0]	n/a	catFR1	1	R1409D
380.496	1.0	533470	WORD_OFF	n/a	n/a	HURRICANE	Weather	11	1	[0, 0, 0]	n/a	catFR1	1	R1409D
381.496	1.617	534462	WORD	n/a	wordpools/wordpool_categorized_EN.txt	RAIN	Weather	12	1	[0, 0, 0]	n/a	catFR1	1	R1409D
383.113	0.001	536082	PROB	0.001	n/a	n/a	n/a	-999	1	[8, 8, 3]	19	catFR1	1	R1409D
383.114	0.0	536083	START	n/a	n/a	n/a	n/a	-999	1	[-999, -999, -999]	n/a	catFR1	1	R1409D
383.112	0.002	536085	WORD_OFF	n/a	n/a	RAIN	Weather	12	1	[0, 0, 0]	n/a	catFR1	1	R1409D
383.114	0.0	536085	ENCODING_END	n/a	n/a	n/a	n/a	-999	1	[0, 0, 0]	n/a	catFR1	1	R1409D
383.114	5.366	536085	DISTRACT_START	n/a	n/a	n/a	n/a	-999	1	[0, 0, 0]	n/a	catFR1	1	R1409D
388.48	4.932	541448	PROB	4.932	n/a	n/a	n/a	-999	1	[4, 4, 3]	11	catFR1	1	R1409D
393.412	5.8	546380	PROB	5.8	n/a	n/a	n/a	-999	1	[5, 4, 6]	15	catFR1	1	R1409D
399.212	4.0	552180	PROB	4.0	n/a	n/a	n/a	-999	1	[8, 8, 8]	24	catFR1	1	R1409D
403.212	0.0	556180	STOP	n/a	n/a	n/a	n/a	-999	1	[-999, -999, -999]	n/a	catFR1	1	R1409D
403.212	2.4	556184	DISTRACT_END	n/a	n/a	n/a	n/a	-999	1	[0, 0, 0]	n/a	catFR1	1	R1409D
405.612	2.66	558582	REC_START	n/a	n/a	n/a	n/a	-999	1	[0, 0, 0]	n/a	catFR1	1	R1409D
408.272	2.98	561239	REC_WORD	2.98	n/a	THUNDERSTORM	Weather	-999	1	[0, 0, 0]	n/a	catFR1	1	R1409D
411.252	1.675	564219	REC_WORD_VV	1.675	n/a	<>	n/a	-999	1	[0, 0, 0]	n/a	catFR1	1	R1409D
412.927	0.826	565894	REC_WORD_VV	0.826	n/a	<>	n/a	-999	1	[0, 0, 0]	n/a	catFR1	1	R1409D
413.753	2.47	566720	REC_WORD_VV	2.47	n/a	<>	n/a	-999	1	[0, 0, 0]	n/a	catFR1	1	R1409D
416.223	2.772	569190	REC_WORD_VV	2.772	n/a	<>	n/a	-999	1	[0, 0, 0]	n/a	catFR1	1	R1409D
418.995	1.793	571962	REC_WORD_VV	1.793	n/a	<>	n/a	-999	1	[0, 0, 0]	n/a	catFR1	1	R1409D
420.788	6.732	573755	REC_WORD_VV	6.732	n/a	<>	n/a	-999	1	[0, 0, 0]	n/a	catFR1	1	R1409D
427.52	0.772	580486	REC_WORD	0.772	n/a	SNOW	Weather	1	1	[0, 0, 0]	n/a	catFR1	1	R1409D
428.292	2.539	581258	REC_WORD	2.539	n/a	RAIN	Weather	12	1	[0, 0, 0]	n/a	catFR1	1	R1409D
430.831	4.99	583797	REC_WORD	4.99	n/a	BINDER	OfficeSupplies	9	1	[0, 0, 0]	n/a	catFR1	1	R1409D
435.821	4.508	588785	REC_END	n/a	n/a	n/a	n/a	-999	1	[0, 0, 0]	n/a	catFR1	1	R1409D
440.329	10.351	593294	COUNTDOWN_START	n/a	n/a	n/a	n/a	-999	2	[0, 0, 0]	n/a	catFR1	1	R1409D
450.68	0.0	603642	COUNTDOWN_END	n/a	n/a	n/a	n/a	-999	2	[0, 0, 0]	n/a	catFR1	1	R1409D
450.68	2.031	603642	ENCODING_START	n/a	n/a	n/a	n/a	-999	2	[0, 0, 0]	n/a	catFR1	1	R1409D
452.711	1.618	605671	WORD	n/a	wordpools/wordpool_categorized_EN.txt	LIME	Fruit	1	2	[0, 0, 0]	n/a	catFR1	1	R1409D
454.329	0.817	607295	WORD_OFF	n/a	n/a	LIME	Fruit	1	2	[0, 0, 0]	n/a	catFR1	1	R1409D
455.146	1.616	608106	WORD	n/a	wordpools/wordpool_categorized_EN.txt	PEACH	Fruit	2	2	[0, 0, 0]	n/a	catFR1	1	R1409D
456.762	0.833	609730	WORD_OFF	n/a	n/a	PEACH	Fruit	2	2	[0, 0, 0]	n/a	catFR1	1	R1409D
457.595	1.6	610564	WORD	n/a	wordpools/wordpool_categorized_EN.txt	PIE	Desserts	3	2	[0, 0, 0]	n/a	catFR1	1	R1409D
459.195	0.917	612165	WORD_OFF	n/a	n/a	PIE	Desserts	3	2	[0, 0, 0]	n/a	catFR1	1	R1409D
460.112	1.6	613078	WORD	n/a	wordpools/wordpool_categorized_EN.txt	FUDGE	Desserts	4	2	[0, 0, 0]	n/a	catFR1	1	R1409D
461.712	0.9	614678	WORD_OFF	n/a	n/a	FUDGE	Desserts	4	2	[0, 0, 0]	n/a	catFR1	1	R1409D
462.612	1.616	615580	WORD	n/a	wordpools/wordpool_categorized_EN.txt	PEELER	KitchenTools	5	2	[0, 0, 0]	n/a	catFR1	1	R1409D
464.228	0.901	617203	WORD_OFF	n/a	n/a	PEELER	KitchenTools	5	2	[0, 0, 0]	n/a	catFR1	1	R1409D
465.129	1.6	618094	WORD	n/a	wordpools/wordpool_categorized_EN.txt	SPATULA	KitchenTools	6	2	[0, 0, 0]	n/a	catFR1	1	R1409D
466.729	0.866	619695	WORD_OFF	n/a	n/a	SPATULA	KitchenTools	6	2	[0, 0, 0]	n/a	catFR1	1	R1409D
467.595	1.617	620563	WORD	n/a	wordpools/wordpool_categorized_EN.txt	ORANGE	Fruit	7	2	[0, 0, 0]	n/a	catFR1	1	R1409D
469.212	0.784	622175	WORD_OFF	n/a	n/a	ORANGE	Fruit	7	2	[0, 0, 0]	n/a	catFR1	1	R1409D
469.996	1.6	622964	WORD	n/a	wordpools/wordpool_categorized_EN.txt	PEAR	Fruit	8	2	[0, 0, 0]	n/a	catFR1	1	R1409D
471.596	0.866	624565	WORD_OFF	n/a	n/a	PEAR	Fruit	8	2	[0, 0, 0]	n/a	catFR1	1	R1409D
472.462	1.617	625433	WORD	n/a	wordpools/wordpool_categorized_EN.txt	CAKE	Desserts	9	2	[0, 0, 0]	n/a	catFR1	1	R1409D
474.079	0.95	627045	WORD_OFF	n/a	n/a	CAKE	Desserts	9	2	[0, 0, 0]	n/a	catFR1	1	R1409D
475.029	1.617	627991	WORD	n/a	wordpools/wordpool_categorized_EN.txt	BROWNIES	Desserts	10	2	[0, 0, 0]	n/a	catFR1	1	R1409D
476.646	0.966	629615	WORD_OFF	n/a	n/a	BROWNIES	Desserts	10	2	[0, 0, 0]	n/a	catFR1	1	R1409D
477.612	1.6	630573	WORD	n/a	wordpools/wordpool_categorized_EN.txt	STRAINER	KitchenTools	11	2	[0, 0, 0]	n/a	catFR1	1	R1409D
479.212	0.85	632174	WORD_OFF	n/a	n/a	STRAINER	KitchenTools	11	2	[0, 0, 0]	n/a	catFR1	1	R1409D
480.062	1.617	633030	WORD	n/a	wordpools/wordpool_categorized_EN.txt	COLANDER	KitchenTools	12	2	[0, 0, 0]	n/a	catFR1	1	R1409D
481.679	0.001	634642	WORD_OFF	n/a	n/a	COLANDER	KitchenTools	12	2	[0, 0, 0]	n/a	catFR1	1	R1409D
481.68	0.001	634642	ENCODING_END	n/a	n/a	n/a	n/a	-999	2	[0, 0, 0]	n/a	catFR1	1	R1409D
481.681	0.0	634642	DISTRACT_START	n/a	n/a	n/a	n/a	-999	2	[0, 0, 0]	n/a	catFR1	1	R1409D
481.679	0.002	634643	PROB	0.002	n/a	n/a	n/a	-999	2	[4, 7, 2]	13	catFR1	1	R1409D
481.681	6.082	634645	START	n/a	n/a	n/a	n/a	-999	2	[-999, -999, -999]	n/a	catFR1	1	R1409D
487.763	4.816	640726	PROB	4.816	n/a	n/a	n/a	-999	2	[6, 3, 5]	14	catFR1	1	R1409D
492.579	4.083	645542	PROB	4.083	n/a	n/a	n/a	-999	2	[7, 7, 7]	21	catFR1	1	R1409D
496.662	4.034	649625	PROB	4.034	n/a	n/a	n/a	-999	2	[8, 8, 5]	21	catFR1	1	R1409D
500.696	5.532	653659	PROB	5.532	n/a	n/a	n/a	-999	2	[2, 4, 8]	14	catFR1	1	R1409D
506.228	0.0	659190	STOP	n/a	n/a	n/a	n/a	-999	2	[-999, -999, -999]	n/a	catFR1	1	R1409D
506.228	2.183	659194	DISTRACT_END	n/a	n/a	n/a	n/a	-999	2	[0, 0, 0]	n/a	catFR1	1	R1409D
508.411	0.732	661378	REC_START	n/a	n/a	n/a	n/a	-999	2	[0, 0, 0]	n/a	catFR1	1	R1409D
509.143	2.941	662105	REC_WORD	2.941	n/a	COLANDER	KitchenTools	12	2	[0, 0, 0]	n/a	catFR1	1	R1409D
512.084	0.918	665046	REC_WORD	0.918	n/a	PEACH	Fruit	2	2	[0, 0, 0]	n/a	catFR1	1	R1409D
513.002	5.535	665964	REC_WORD	5.535	n/a	ORANGE	Fruit	7	2	[0, 0, 0]	n/a	catFR1	1	R1409D
518.537	2.843	671499	REC_WORD	2.843	n/a	PEELER	KitchenTools	5	2	[0, 0, 0]	n/a	catFR1	1	R1409D
521.38	5.099	674342	REC_WORD	5.099	n/a	STRAINER	KitchenTools	11	2	[0, 0, 0]	n/a	catFR1	1	R1409D
526.479	0.723	679440	REC_WORD	0.723	n/a	BROWNIES	Desserts	10	2	[0, 0, 0]	n/a	catFR1	1	R1409D
527.202	1.379	680163	REC_WORD	1.379	n/a	CAKE	Desserts	9	2	[0, 0, 0]	n/a	catFR1	1	R1409D
528.581	10.063	681542	REC_WORD	10.063	n/a	SPATULA	KitchenTools	6	2	[0, 0, 0]	n/a	catFR1	1	R1409D
538.644	4.452	691603	REC_END	n/a	n/a	n/a	n/a	-999	2	[0, 0, 0]	n/a	catFR1	1	R1409D
543.096	10.35	696056	COUNTDOWN_START	n/a	n/a	n/a	n/a	-999	3	[0, 0, 0]	n/a	catFR1	1	R1409D
553.446	0.0	706404	COUNTDOWN_END	n/a	n/a	n/a	n/a	-999	3	[0, 0, 0]	n/a	catFR1	1	R1409D
553.446	2.016	706404	ENCODING_START	n/a	n/a	n/a	n/a	-999	3	[0, 0, 0]	n/a	catFR1	1	R1409D
555.462	1.617	708422	WORD	n/a	wordpools/wordpool_categorized_EN.txt	SPEAKER	Electronics	1	3	[0, 0, 0]	n/a	catFR1	1	R1409D
557.079	0.9	710034	WORD_OFF	n/a	n/a	SPEAKER	Electronics	1	3	[0, 0, 0]	n/a	catFR1	1	R1409D
557.979	1.6	710936	WORD	n/a	wordpools/wordpool_categorized_EN.txt	RADIO	Electronics	2	3	[0, 0, 0]	n/a	catFR1	1	R1409D
559.579	0.983	712537	WORD_OFF	n/a	n/a	RADIO	Electronics	2	3	[0, 0, 0]	n/a	catFR1	1	R1409D
560.562	1.617	713518	WORD	n/a	wordpools/wordpool_categorized_EN.txt	MOPED	Vehicles	3	3	[0, 0, 0]	n/a	catFR1	1	R1409D
562.179	0.883	715141	WORD_OFF	n/a	n/a	MOPED	Vehicles	3	3	[0, 0, 0]	n/a	catFR1	1	R1409D
563.062	1.601	716020	WORD	n/a	wordpools/wordpool_categorized_EN.txt	MOTORCYCLE	Vehicles	4	3	[0, 0, 0]	n/a	catFR1	1	R1409D
564.663	0.782	717621	WORD_OFF	n/a	n/a	MOTORCYCLE	Vehicles	4	3	[0, 0, 0]	n/a	catFR1	1	R1409D
565.445	1.6	718410	WORD	n/a	wordpools/wordpool_categorized_EN.txt	SLINKY	Toys	5	3	[0, 0, 0]	n/a	catFR1	1	R1409D
567.045	0.967	719999	WORD_OFF	n/a	n/a	SLINKY	Toys	5	3	[0, 0, 0]	n/a	catFR1	1	R1409D
568.012	1.617	720969	WORD	n/a	wordpools/wordpool_categorized_EN.txt	FOOTBALL	Toys	6	3	[0, 0, 0]	n/a	catFR1	1	R1409D
569.629	0.833	722592	WORD_OFF	n/a	n/a	FOOTBALL	Toys	6	3	[0, 0, 0]	n/a	catFR1	1	R1409D
570.462	1.617	723426	WORD	n/a	wordpools/wordpool_categorized_EN.txt	PHONE	Electronics	7	3	[0, 0, 0]	n/a	catFR1	1	R1409D
572.079	0.933	725038	WORD_OFF	n/a	n/a	PHONE	Electronics	7	3	[0, 0, 0]	n/a	catFR1	1	R1409D
573.012	1.6	725974	WORD	n/a	wordpools/wordpool_categorized_EN.txt	CALCULATOR	Electronics	8	3	[0, 0, 0]	n/a	catFR1	1	R1409D
574.612	0.817	727575	WORD_OFF	n/a	n/a	CALCULATOR	Electronics	8	3	[0, 0, 0]	n/a	catFR1	1	R1409D
575.429	1.616	728386	WORD	n/a	wordpools/wordpool_categorized_EN.txt	TRAIN	Vehicles	9	3	[0, 0, 0]	n/a	catFR1	1	R1409D
577.045	0.884	730010	WORD_OFF	n/a	n/a	TRAIN	Vehicles	9	3	[0, 0, 0]	n/a	catFR1	1	R1409D
577.929	1.6	730889	WORD	n/a	wordpools/wordpool_categorized_EN.txt	BIKE	Vehicles	10	3	[0, 0, 0]	n/a	catFR1	1	R1409D
579.529	0.916	732490	WORD_OFF	n/a	n/a	BIKE	Vehicles	10	3	[0, 0, 0]	n/a	catFR1	1	R1409D
580.445	1.6	733403	WORD	n/a	wordpools/wordpool_categorized_EN.txt	BALL	Toys	11	3	[0, 0, 0]	n/a	catFR1	1	R1409D
582.045	0.85	735003	WORD_OFF	n/a	n/a	BALL	Toys	11	3	[0, 0, 0]	n/a	catFR1	1	R1409D
582.895	1.617	735849	WORD	n/a	wordpools/wordpool_categorized_EN.txt	PUZZLE	Toys	12	3	[0, 0, 0]	n/a	catFR1	1	R1409D
584.512	0.001	737472	WORD_OFF	n/a	n/a	PUZZLE	Toys	12	3	[0, 0, 0]	n/a	catFR1	1	R1409D
584.513	0.001	737472	ENCODING_END	n/a	n/a	n/a	n/a	-999	3	[0, 0, 0]	n/a	catFR1	1	R1409D
584.514	0.0	737472	DISTRACT_START	n/a	n/a	n/a	n/a	-999	3	[0, 0, 0]	n/a	catFR1	1	R1409D
584.514	0.0	737473	PROB	0.0	n/a	n/a	n/a	-999	3	[6, 1, 5]	12	catFR1	1	R1409D
584.514	4.665	737473	START	n/a	n/a	n/a	n/a	-999	3	[-999, -999, -999]	n/a	catFR1	1	R1409D
589.179	4.766	742137	PROB	4.766	n/a	n/a	n/a	-999	3	[4, 7, 4]	15	catFR1	1	R1409D
593.945	8.152	746903	PROB	8.152	n/a	n/a	n/a	-999	3	[7, 8, 5]	20	catFR1	1	R1409D
602.097	5.581	755055	PROB	5.581	n/a	n/a	n/a	-999	3	[5, 7, 3]	15	catFR1	1	R1409D
607.678	0.0	760635	STOP	n/a	n/a	n/a	n/a	-999	3	[-999, -999, -999]	n/a	catFR1	1	R1409D
607.678	2.333	760638	DISTRACT_END	n/a	n/a	n/a	n/a	-999	3	[0, 0, 0]	n/a	catFR1	1	R1409D
610.011	0.808	762968	REC_START	n/a	n/a	n/a	n/a	-999	3	[0, 0, 0]	n/a	catFR1	1	R1409D
610.819	3.366	763776	REC_WORD	3.366	n/a	FOOTBALL	Toys	6	3	[0, 0, 0]	n/a	catFR1	1	R1409D
614.185	3.523	767142	REC_WORD_VV	3.523	n/a	<>	n/a	-999	3	[0, 0, 0]	n/a	catFR1	1	R1409D
617.708	3.693	770665	REC_WORD	3.693	n/a	BIKE	Vehicles	10	3	[0, 0, 0]	n/a	catFR1	1	R1409D
621.401	5.675	774358	REC_WORD_VV	5.675	n/a	<>	n/a	-999	3	[0, 0, 0]	n/a	catFR1	1	R1409D
627.076	4.89	780032	REC_WORD	4.89	n/a	MUSIC	n/a	-999	3	[0, 0, 0]	n/a	catFR1	1	R1409D
631.966	8.267	784922	REC_WORD	8.267	n/a	MOPED	Vehicles	3	3	[0, 0, 0]	n/a	catFR1	1	R1409D
640.233	3.746	793193	REC_END	n/a	n/a	n/a	n/a	-999	3	[0, 0, 0]	n/a	catFR1	1	R1409D
643.979	10.35	796936	COUNTDOWN_START	n/a	n/a	n/a	n/a	-999	4	[0, 0, 0]	n/a	catFR1	1	R1409D
654.329	0.0	807284	COUNTDOWN_END	n/a	n/a	n/a	n/a	-999	4	[0, 0, 0]	n/a	catFR1	1	R1409D
654.329	1.933	807284	ENCODING_START	n/a	n/a	n/a	n/a	-999	4	[0, 0, 0]	n/a	catFR1	1	R1409D
656.262	1.617	809223	WORD	n/a	wordpools/wordpool_categorized_EN.txt	TOASTER	Appliances	1	4	[0, 0, 0]	n/a	catFR1	1	R1409D
657.879	0.817	810835	WORD_OFF	n/a	n/a	TOASTER	Appliances	1	4	[0, 0, 0]	n/a	catFR1	1	R1409D
658.696	1.616	811647	WORD	n/a	wordpools/wordpool_categorized_EN.txt	WASHER	Appliances	2	4	[0, 0, 0]	n/a	catFR1	1	R1409D
660.312	0.967	813270	WORD_OFF	n/a	n/a	WASHER	Appliances	2	4	[0, 0, 0]	n/a	catFR1	1	R1409D
661.279	1.616	814239	WORD	n/a	wordpools/wordpool_categorized_EN.txt	PASTRY	Desserts	3	4	[0, 0, 0]	n/a	catFR1	1	R1409D
662.895	0.951	815851	WORD_OFF	n/a	n/a	PASTRY	Desserts	3	4	[0, 0, 0]	n/a	catFR1	1	R1409D
663.846	1.6	816798	WORD	n/a	wordpools/wordpool_categorized_EN.txt	PUDDING	Desserts	4	4	[0, 0, 0]	n/a	catFR1	1	R1409D
665.446	0.982	818399	WORD_OFF	n/a	n/a	PUDDING	Desserts	4	4	[0, 0, 0]	n/a	catFR1	1	R1409D
666.428	1.601	819380	WORD	n/a	wordpools/wordpool_categorized_EN.txt	LILAC	Flowers	5	4	[0, 0, 0]	n/a	catFR1	1	R1409D
668.029	0.916	820980	WORD_OFF	n/a	n/a	LILAC	Flowers	5	4	[0, 0, 0]	n/a	catFR1	1	R1409D
668.945	1.6	821905	WORD	n/a	wordpools/wordpool_categorized_EN.txt	PETUNIA	Flowers	6	4	[0, 0, 0]	n/a	catFR1	1	R1409D
670.545	0.834	823505	WORD_OFF	n/a	n/a	PETUNIA	Flowers	6	4	[0, 0, 0]	n/a	catFR1	1	R1409D
671.379	1.616	824328	WORD	n/a	wordpools/wordpool_categorized_EN.txt	MOUSSE	Desserts	7	4	[0, 0, 0]	n/a	catFR1	1	R1409D
672.995	0.984	825952	WORD_OFF	n/a	n/a	MOUSSE	Desserts	7	4	[0, 0, 0]	n/a	catFR1	1	R1409D
673.979	1.6	826932	WORD	n/a	wordpools/wordpool_categorized_EN.txt	CHEESECAKE	Desserts	8	4	[0, 0, 0]	n/a	catFR1	1	R1409D
675.579	0.999	828533	WORD_OFF	n/a	n/a	CHEESECAKE	Desserts	8	4	[0, 0, 0]	n/a	catFR1	1	R1409D
676.578	1.6	829536	WORD	n/a	wordpools/wordpool_categorized_EN.txt	DISHWASHER	Appliances	9	4	[0, 0, 0]	n/a	catFR1	1	R1409D
678.178	0.784	831137	WORD_OFF	n/a	n/a	DISHWASHER	Appliances	9	4	[0, 0, 0]	n/a	catFR1	1	R1409D
678.962	1.6	831915	WORD	n/a	wordpools/wordpool_categorized_EN.txt	FREEZER	Appliances	10	4	[0, 0, 0]	n/a	catFR1	1	R1409D
680.562	0.833	833516	WORD_OFF	n/a	n/a	FREEZER	Appliances	10	4	[0, 0, 0]	n/a	catFR1	1	R1409D
681.395	1.6	834350	WORD	n/a	wordpools/wordpool_categorized_EN.txt	VIOLET	Flowers	11	4	[0, 0, 0]	n/a	catFR1	1	R1409D
682.995	0.9	835951	WORD_OFF	n/a	n/a	VIOLET	Flowers	11	4	[0, 0, 0]	n/a	catFR1	1	R1409D
683.895	1.616	836852	WORD	n/a	wordpools/wordpool_categorized_EN.txt	MARIGOLD	Flowers	12	4	[0, 0, 0]	n/a	catFR1	1	R1409D
685.511	0.002	838464	WORD_OFF	n/a	n/a	MARIGOLD	Flowers	12	4	[0, 0, 0]	n/a	catFR1	1	R1409D
685.513	0.0	838464	ENCODING_END	n/a	n/a	n/a	n/a	-999	4	[0, 0, 0]	n/a	catFR1	1	R1409D
685.513	0.0	838464	DISTRACT_START	n/a	n/a	n/a	n/a	-999	4	[0, 0, 0]	n/a	catFR1	1	R1409D
685.511	0.002	838464	PROB	0.002	n/a	n/a	n/a	-999	4	[7, 7, 1]	15	catFR1	1	R1409D
685.513	4.865	838466	START	n/a	n/a	n/a	n/a	-999	4	[-999, -999, -999]	n/a	catFR1	1	R1409D
690.378	4.6	843331	PROB	4.6	n/a	n/a	n/a	-999	4	[6, 6, 7]	19	catFR1	1	R1409D
694.978	4.484	847931	PROB	4.484	n/a	n/a	n/a	-999	4	[8, 7, 7]	22	catFR1	1	R1409D
699.462	3.583	852415	PROB	3.583	n/a	n/a	n/a	-999	4	[3, 5, 3]	11	catFR1	1	R1409D
703.045	5.0	855998	PROB	5.0	n/a	n/a	n/a	-999	4	[6, 8, 2]	16	catFR1	1	R1409D
708.045	0.0	860997	STOP	n/a	n/a	n/a	n/a	-999	4	[-999, -999, -999]	n/a	catFR1	1	R1409D
708.045	2.1	860999	DISTRACT_END	n/a	n/a	n/a	n/a	-999	4	[0, 0, 0]	n/a	catFR1	1	R1409D
710.145	1.2	863103	REC_START	n/a	n/a	n/a	n/a	-999	4	[0, 0, 0]	n/a	catFR1	1	R1409D
711.345	2.589	864297	REC_WORD	2.589	n/a	DISHWASHER	Appliances	9	4	[0, 0, 0]	n/a	catFR1	1	R1409D
713.934	10.599	866886	REC_WORD	10.599	n/a	VIOLET	Flowers	11	4	[0, 0, 0]	n/a	catFR1	1	R1409D
724.533	7.987	877484	REC_WORD	7.987	n/a	PETUNIA	Flowers	6	4	[0, 0, 0]	n/a	catFR1	1	R1409D
732.52	6.488	885471	REC_WORD	6.488	n/a	CHEESECAKE	Desserts	8	4	[0, 0, 0]	n/a	catFR1	1	R1409D
739.008	1.369	891959	REC_WORD	1.369	n/a	DISHWASHER	Appliances	9	4	[0, 0, 0]	n/a	catFR1	1	R1409D
740.377	2.284	893329	REC_END	n/a	n/a	n/a	n/a	-999	4	[0, 0, 0]	n/a	catFR1	1	R1409D
742.661	10.351	895617	COUNTDOWN_START	n/a	n/a	n/a	n/a	-999	5	[0, 0, 0]	n/a	catFR1	1	R1409D
753.012	0.0	905965	COUNTDOWN_END	n/a	n/a	n/a	n/a	-999	5	[0, 0, 0]	n/a	catFR1	1	R1409D
753.012	2.133	905965	ENCODING_START	n/a	n/a	n/a	n/a	-999	5	[0, 0, 0]	n/a	catFR1	1	R1409D
755.145	1.601	908096	WORD	n/a	wordpools/wordpool_categorized_EN.txt	BLENDER	Appliances	1	5	[0, 0, 0]	n/a	catFR1	1	R1409D
756.746	0.933	909697	WORD_OFF	n/a	n/a	BLENDER	Appliances	1	5	[0, 0, 0]	n/a	catFR1	1	R1409D
757.679	1.6	910632	WORD	n/a	wordpools/wordpool_categorized_EN.txt	STOVE	Appliances	2	5	[0, 0, 0]	n/a	catFR1	1	R1409D
759.279	0.982	912233	WORD_OFF	n/a	n/a	STOVE	Appliances	2	5	[0, 0, 0]	n/a	catFR1	1	R1409D
760.261	1.601	913214	WORD	n/a	wordpools/wordpool_categorized_EN.txt	VALLEY	Landscapes	3	5	[0, 0, 0]	n/a	catFR1	1	R1409D
761.862	0.817	914814	WORD_OFF	n/a	n/a	VALLEY	Landscapes	3	5	[0, 0, 0]	n/a	catFR1	1	R1409D
762.679	1.6	915626	WORD	n/a	wordpools/wordpool_categorized_EN.txt	STREAM	Landscapes	4	5	[0, 0, 0]	n/a	catFR1	1	R1409D
764.279	0.783	917227	WORD_OFF	n/a	n/a	STREAM	Landscapes	4	5	[0, 0, 0]	n/a	catFR1	1	R1409D
765.062	1.617	918016	WORD	n/a	wordpools/wordpool_categorized_EN.txt	PIG	FarmAnimals	5	5	[0, 0, 0]	n/a	catFR1	1	R1409D
766.679	0.817	919628	WORD_OFF	n/a	n/a	PIG	FarmAnimals	5	5	[0, 0, 0]	n/a	catFR1	1	R1409D
767.496	1.616	920440	WORD	n/a	wordpools/wordpool_categorized_EN.txt	GOAT	FarmAnimals	6	5	[0, 0, 0]	n/a	catFR1	1	R1409D
769.112	0.8	922063	WORD_OFF	n/a	n/a	GOAT	FarmAnimals	6	5	[0, 0, 0]	n/a	catFR1	1	R1409D
769.912	1.617	922863	WORD	n/a	wordpools/wordpool_categorized_EN.txt	DRYER	Appliances	7	5	[0, 0, 0]	n/a	catFR1	1	R1409D
771.529	0.833	924475	WORD_OFF	n/a	n/a	DRYER	Appliances	7	5	[0, 0, 0]	n/a	catFR1	1	R1409D
772.362	1.6	925309	WORD	n/a	wordpools/wordpool_categorized_EN.txt	VACUUM	Appliances	8	5	[0, 0, 0]	n/a	catFR1	1	R1409D
773.962	0.933	926910	WORD_OFF	n/a	n/a	VACUUM	Appliances	8	5	[0, 0, 0]	n/a	catFR1	1	R1409D
774.895	1.6	927846	WORD	n/a	wordpools/wordpool_categorized_EN.txt	CREEK	Landscapes	9	5	[0, 0, 0]	n/a	catFR1	1	R1409D
776.495	0.801	929446	WORD_OFF	n/a	n/a	CREEK	Landscapes	9	5	[0, 0, 0]	n/a	catFR1	1	R1409D
777.296	1.599	930247	WORD	n/a	wordpools/wordpool_categorized_EN.txt	MOUNTAIN	Landscapes	10	5	[0, 0, 0]	n/a	catFR1	1	R1409D
778.895	0.983	931848	WORD_OFF	n/a	n/a	MOUNTAIN	Landscapes	10	5	[0, 0, 0]	n/a	catFR1	1	R1409D
779.878	1.601	932828	WORD	n/a	wordpools/wordpool_categorized_EN.txt	BULL	FarmAnimals	11	5	[0, 0, 0]	n/a	catFR1	1	R1409D
781.479	0.766	934429	WORD_OFF	n/a	n/a	BULL	FarmAnimals	11	5	[0, 0, 0]	n/a	catFR1	1	R1409D
782.245	1.601	935196	WORD	n/a	wordpools/wordpool_categorized_EN.txt	HORSE	FarmAnimals	12	5	[0, 0, 0]	n/a	catFR1	1	R1409D
783.846	0.001	936794	PROB	0.001	n/a	n/a	n/a	-999	5	[4, 8, 1]	13	catFR1	1	R1409D
783.847	0.0	936795	START	n/a	n/a	n/a	n/a	-999	5	[-999, -999, -999]	n/a	catFR1	1	R1409D
783.846	0.001	936796	WORD_OFF	n/a	n/a	HORSE	FarmAnimals	12	5	[0, 0, 0]	n/a	catFR1	1	R1409D
783.847	0.0	936796	ENCODING_END	n/a	n/a	n/a	n/a	-999	5	[0, 0, 0]	n/a	catFR1	1	R1409D
783.847	4.632	936796	DISTRACT_START	n/a	n/a	n/a	n/a	-999	5	[0, 0, 0]	n/a	catFR1	1	R1409D
788.479	4.834	941427	PROB	4.834	n/a	n/a	n/a	-999	5	[6, 6, 2]	14	catFR1	1	R1409D
793.313	4.982	946261	PROB	4.982	n/a	n/a	n/a	-999	5	[1, 8, 8]	17	catFR1	1	R1409D
798.295	5.834	951243	PROB	5.834	n/a	n/a	n/a	-999	5	[5, 7, 2]	14	catFR1	1	R1409D
804.129	0.0	957076	DISTRACT_END	n/a	n/a	n/a	n/a	-999	5	[0, 0, 0]	n/a	catFR1	1	R1409D
804.129	2.4	957076	STOP	n/a	n/a	n/a	n/a	-999	5	[-999, -999, -999]	n/a	catFR1	1	R1409D
806.529	5.801	959474	REC_START	n/a	n/a	n/a	n/a	-999	5	[0, 0, 0]	n/a	catFR1	1	R1409D
812.33	3.591	965277	REC_WORD_VV	3.591	n/a	<>	n/a	-999	5	[0, 0, 0]	n/a	catFR1	1	R1409D
815.921	0.56	968868	REC_WORD	0.56	n/a	COW	n/a	-999	5	[0, 0, 0]	n/a	catFR1	1	R1409D
816.481	15.889	969428	REC_WORD	15.889	n/a	HORSE	FarmAnimals	12	5	[0, 0, 0]	n/a	catFR1	1	R1409D
832.37	4.369	985316	REC_WORD	4.369	n/a	PIG	FarmAnimals	5	5	[0, 0, 0]	n/a	catFR1	1	R1409D
836.739	2.107	989688	REC_END	n/a	n/a	n/a	n/a	-999	5	[0, 0, 0]	n/a	catFR1	1	R1409D
838.846	10.35	991796	COUNTDOWN_START	n/a	n/a	n/a	n/a	-999	6	[0, 0, 0]	n/a	catFR1	1	R1409D
849.196	0.0	1002144	COUNTDOWN_END	n/a	n/a	n/a	n/a	-999	6	[0, 0, 0]	n/a	catFR1	1	R1409D
849.196	2.049	1002144	ENCODING_START	n/a	n/a	n/a	n/a	-999	6	[0, 0, 0]	n/a	catFR1	1	R1409D
851.245	1.616	1004196	WORD	n/a	wordpools/wordpool_categorized_EN.txt	SUNFLOWER	Flowers	1	6	[0, 0, 0]	n/a	catFR1	1	R1409D
852.861	0.868	1005808	WORD_OFF	n/a	n/a	SUNFLOWER	Flowers	1	6	[0, 0, 0]	n/a	catFR1	1	R1409D
853.729	1.6	1006676	WORD	n/a	wordpools/wordpool_categorized_EN.txt	DAISY	Flowers	2	6	[0, 0, 0]	n/a	catFR1	1	R1409D
855.329	0.949	1008277	WORD_OFF	n/a	n/a	DAISY	Flowers	2	6	[0, 0, 0]	n/a	catFR1	1	R1409D
856.278	1.6	1009224	WORD	n/a	wordpools/wordpool_categorized_EN.txt	REFRIGERATOR	Appliances	3	6	[0, 0, 0]	n/a	catFR1	1	R1409D
857.878	0.867	1010824	WORD_OFF	n/a	n/a	REFRIGERATOR	Appliances	3	6	[0, 0, 0]	n/a	catFR1	1	R1409D
858.745	1.6	1011692	WORD	n/a	wordpools/wordpool_categorized_EN.txt	OVEN	Appliances	4	6	[0, 0, 0]	n/a	catFR1	1	R1409D
860.345	0.867	1013293	WORD_OFF	n/a	n/a	OVEN	Appliances	4	6	[0, 0, 0]	n/a	catFR1	1	R1409D
861.212	1.616	1014161	WORD	n/a	wordpools/wordpool_categorized_EN.txt	FLUTE	Instruments	5	6	[0, 0, 0]	n/a	catFR1	1	R1409D
862.828	0.95	1015773	WORD_OFF	n/a	n/a	FLUTE	Instruments	5	6	[0, 0, 0]	n/a	catFR1	1	R1409D
863.778	1.6	1016720	WORD	n/a	wordpools/wordpool_categorized_EN.txt	PIANO	Instruments	6	6	[0, 0, 0]	n/a	catFR1	1	R1409D
865.378	0.984	1018321	WORD_OFF	n/a	n/a	PIANO	Instruments	6	6	[0, 0, 0]	n/a	catFR1	1	R1409D
866.362	1.616	1019301	WORD	n/a	wordpools/wordpool_categorized_EN.txt	DAFFODIL	Flowers	7	6	[0, 0, 0]	n/a	catFR1	1	R1409D
867.978	0.984	1020925	WORD_OFF	n/a	n/a	DAFFODIL	Flowers	7	6	[0, 0, 0]	n/a	catFR1	1	R1409D
868.962	1.599	1021905	WORD	n/a	wordpools/wordpool_categorized_EN.txt	ROSE	Flowers	8	6	[0, 0, 0]	n/a	catFR1	1	R1409D
870.561	0.9	1023506	WORD_OFF	n/a	n/a	ROSE	Flowers	8	6	[0, 0, 0]	n/a	catFR1	1	R1409D
871.461	1.601	1024408	WORD	n/a	wordpools/wordpool_categorized_EN.txt	BASS	Instruments	9	6	[0, 0, 0]	n/a	catFR1	1	R1409D
873.062	0.983	1026009	WORD_OFF	n/a	n/a	BASS	Instruments	9	6	[0, 0, 0]	n/a	catFR1	1	R1409D
874.045	1.616	1026989	WORD	n/a	wordpools/wordpool_categorized_EN.txt	CELLO	Instruments	10	6	[0, 0, 0]	n/a	catFR1	1	R1409D
875.661	0.8	1028601	WORD_OFF	n/a	n/a	CELLO	Instruments	10	6	[0, 0, 0]	n/a	catFR1	1	R1409D
876.461	1.617	1029402	WORD	n/a	wordpools/wordpool_categorized_EN.txt	IRON	Appliances	11	6	[0, 0, 0]	n/a	catFR1	1	R1409D
878.078	0.984	1031025	WORD_OFF	n/a	n/a	IRON	Appliances	11	6	[0, 0, 0]	n/a	catFR1	1	R1409D
879.062	1.6	1032006	WORD	n/a	wordpools/wordpool_categorized_EN.txt	MIXER	Appliances	12	6	[0, 0, 0]	n/a	catFR1	1	R1409D
880.662	0.001	1033606	WORD_OFF	n/a	n/a	MIXER	Appliances	12	6	[0, 0, 0]	n/a	catFR1	1	R1409D
880.663	0.0	1033606	ENCODING_END	n/a	n/a	n/a	n/a	-999	6	[0, 0, 0]	n/a	catFR1	1	R1409D
880.663	0.0	1033606	DISTRACT_START	n/a	n/a	n/a	n/a	-999	6	[0, 0, 0]	n/a	catFR1	1	R1409D
880.662	0.001	1033606	PROB	0.001	n/a	n/a	n/a	-999	6	[7, 5, 7]	19	catFR1	1	R1409D
880.663	5.3	1033607	START	n/a	n/a	n/a	n/a	-999	6	[-999, -999, -999]	n/a	catFR1	1	R1409D
885.963	4.816	1038906	PROB	4.816	n/a	n/a	n/a	-999	6	[3, 5, 6]	14	catFR1	1	R1409D
890.779	5.068	1043722	PROB	5.068	n/a	n/a	n/a	-999	6	[1, 6, 3]	10	catFR1	1	R1409D
895.847	6.232	1048790	PROB	6.232	n/a	n/a	n/a	-999	6	[3, 4, 6]	13	catFR1	1	R1409D
902.079	0.0	1055021	STOP	n/a	n/a	n/a	n/a	-999	6	[-999, -999, -999]	n/a	catFR1	1	R1409D
902.079	2.117	1055025	DISTRACT_END	n/a	n/a	n/a	n/a	-999	6	[0, 0, 0]	n/a	catFR1	1	R1409D
904.196	2.507	1057141	REC_START	n/a	n/a	n/a	n/a	-999	6	[0, 0, 0]	n/a	catFR1	1	R1409D
906.703	6.565	1059645	REC_WORD	6.565	n/a	FLOWER	n/a	-999	6	[0, 0, 0]	n/a	catFR1	1	R1409D
913.268	4.113	1066210	REC_WORD_VV	4.113	n/a	<>	n/a	-999	6	[0, 0, 0]	n/a	catFR1	1	R1409D
917.381	2.557	1070323	REC_WORD_VV	2.557	n/a	<>	n/a	-999	6	[0, 0, 0]	n/a	catFR1	1	R1409D
919.938	14.488	1072880	REC_WORD	14.488	n/a	BLENDER	Appliances	-999	6	[0, 0, 0]	n/a	catFR1	1	R1409D
934.426	2.071	1087366	REC_END	n/a	n/a	n/a	n/a	-999	6	[0, 0, 0]	n/a	catFR1	1	R1409D
936.497	10.349	1089440	COUNTDOWN_START	n/a	n/a	n/a	n/a	-999	7	[0, 0, 0]	n/a	catFR1	1	R1409D
946.846	0.0	1099789	COUNTDOWN_END	n/a	n/a	n/a	n/a	-999	7	[0, 0, 0]	n/a	catFR1	1	R1409D
946.846	2.249	1099789	ENCODING_START	n/a	n/a	n/a	n/a	-999	7	[0, 0, 0]	n/a	catFR1	1	R1409D
949.095	1.617	1102032	WORD	n/a	wordpools/wordpool_categorized_EN.txt	CARNATION	Flowers	1	7	[0, 0, 0]	n/a	catFR1	1	R1409D
950.712	0.9	1103655	WORD_OFF	n/a	n/a	CARNATION	Flowers	1	7	[0, 0, 0]	n/a	catFR1	1	R1409D
951.612	1.6	1104557	WORD	n/a	wordpools/wordpool_categorized_EN.txt	ORCHID	Flowers	2	7	[0, 0, 0]	n/a	catFR1	1	R1409D
953.212	0.9	1106146	WORD_OFF	n/a	n/a	ORCHID	Flowers	2	7	[0, 0, 0]	n/a	catFR1	1	R1409D
954.112	1.6	1107048	WORD	n/a	wordpools/wordpool_categorized_EN.txt	CUCUMBER	Vegetables	3	7	[0, 0, 0]	n/a	catFR1	1	R1409D
955.712	0.95	1108649	WORD_OFF	n/a	n/a	CUCUMBER	Vegetables	3	7	[0, 0, 0]	n/a	catFR1	1	R1409D
956.662	1.599	1109596	WORD	n/a	wordpools/wordpool_categorized_EN.txt	CARROT	Vegetables	4	7	[0, 0, 0]	n/a	catFR1	1	R1409D
958.261	0.767	1111197	WORD_OFF	n/a	n/a	CARROT	Vegetables	4	7	[0, 0, 0]	n/a	catFR1	1	R1409D
959.028	1.6	1111963	WORD	n/a	wordpools/wordpool_categorized_EN.txt	MARKER	OfficeSupplies	5	7	[0, 0, 0]	n/a	catFR1	1	R1409D
960.628	0.95	1113564	WORD_OFF	n/a	n/a	MARKER	OfficeSupplies	5	7	[0, 0, 0]	n/a	catFR1	1	R1409D
961.578	1.6	1114522	WORD	n/a	wordpools/wordpool_categorized_EN.txt	PAPER	OfficeSupplies	6	7	[0, 0, 0]	n/a	catFR1	1	R1409D
963.178	0.95	1116123	WORD_OFF	n/a	n/a	PAPER	OfficeSupplies	6	7	[0, 0, 0]	n/a	catFR1	1	R1409D
964.128	1.6	1117070	WORD	n/a	wordpools/wordpool_categorized_EN.txt	CELERY	Vegetables	7	7	[0, 0, 0]	n/a	catFR1	1	R1409D
965.728	0.967	1118670	WORD_OFF	n/a	n/a	CELERY	Vegetables	7	7	[0, 0, 0]	n/a	catFR1	1	R1409D
966.695	1.616	1119640	WORD	n/a	wordpools/wordpool_categorized_EN.txt	ONION	Vegetables	8	7	[0, 0, 0]	n/a	catFR1	1	R1409D
968.311	0.801	1121252	WORD_OFF	n/a	n/a	ONION	Vegetables	8	7	[0, 0, 0]	n/a	catFR1	1	R1409D
969.112	1.6	1122052	WORD	n/a	wordpools/wordpool_categorized_EN.txt	STAPLER	OfficeSupplies	9	7	[0, 0, 0]	n/a	catFR1	1	R1409D
970.712	0.866	1123653	WORD_OFF	n/a	n/a	STAPLER	OfficeSupplies	9	7	[0, 0, 0]	n/a	catFR1	1	R1409D
971.578	1.601	1124521	WORD	n/a	wordpools/wordpool_categorized_EN.txt	ERASER	OfficeSupplies	10	7	[0, 0, 0]	n/a	catFR1	1	R1409D
973.179	0.917	1126122	WORD_OFF	n/a	n/a	ERASER	OfficeSupplies	10	7	[0, 0, 0]	n/a	catFR1	1	R1409D
974.096	1.617	1127035	WORD	n/a	wordpools/wordpool_categorized_EN.txt	LILY	Flowers	11	7	[0, 0, 0]	n/a	catFR1	1	R1409D
975.713	0.983	1128647	WORD_OFF	n/a	n/a	LILY	Flowers	11	7	[0, 0, 0]	n/a	catFR1	1	R1409D
976.696	1.617	1129639	WORD	n/a	wordpools/wordpool_categorized_EN.txt	TULIP	Flowers	12	7	[0, 0, 0]	n/a	catFR1	1	R1409D
978.313	0.002	1131251	WORD_OFF	n/a	n/a	TULIP	Flowers	12	7	[0, 0, 0]	n/a	catFR1	1	R1409D
978.315	0.0	1131251	ENCODING_END	n/a	n/a	n/a	n/a	-999	7	[0, 0, 0]	n/a	catFR1	1	R1409D
978.315	0.0	1131251	DISTRACT_START	n/a	n/a	n/a	n/a	-999	7	[0, 0, 0]	n/a	catFR1	1	R1409D
978.314	0.001	1131253	PROB	0.001	n/a	n/a	n/a	-999	7	[7, 1, 3]	11	catFR1	1	R1409D
978.315	3.931	1131254	START	n/a	n/a	n/a	n/a	-999	7	[-999, -999, -999]	n/a	catFR1	1	R1409D
982.246	4.499	1135184	PROB	4.499	n/a	n/a	n/a	-999	7	[1, 8, 7]	16	catFR1	1	R1409D
986.745	5.101	1139683	PROB	5.101	n/a	n/a	n/a	-999	7	[7, 3, 5]	15	catFR1	1	R1409D
991.846	3.834	1144784	PROB	3.834	n/a	n/a	n/a	-999	7	[3, 7, 1]	11	catFR1	1	R1409D
995.68	4.317	1148618	PROB	4.317	n/a	n/a	n/a	-999	7	[8, 2, 8]	18	catFR1	1	R1409D
999.997	0.0	1152935	STOP	n/a	n/a	n/a	n/a	-999	7	[-999, -999, -999]	n/a	catFR1	1	R1409D
999.997	2.282	1152939	DISTRACT_END	n/a	n/a	n/a	n/a	-999	7	[0, 0, 0]	n/a	catFR1	1	R1409D
1002.279	1.104	1155213	REC_START	n/a	n/a	n/a	n/a	-999	7	[0, 0, 0]	n/a	catFR1	1	R1409D
1003.383	8.809	1156320	REC_WORD	8.809	n/a	TULIP	Flowers	12	7	[0, 0, 0]	n/a	catFR1	1	R1409D
1012.192	2.691	1165129	REC_WORD_VV	2.691	n/a	<>	n/a	-999	7	[0, 0, 0]	n/a	catFR1	1	R1409D
1014.883	3.757	1167820	REC_WORD	3.757	n/a	VIOLET	Flowers	-999	7	[0, 0, 0]	n/a	catFR1	1	R1409D
1018.64	7.931	1171577	REC_WORD	7.931	n/a	CARROT	Vegetables	4	7	[0, 0, 0]	n/a	catFR1	1	R1409D
1026.571	4.693	1179507	REC_WORD_VV	4.693	n/a	<>	n/a	-999	7	[0, 0, 0]	n/a	catFR1	1	R1409D
1031.264	1.256	1184200	REC_WORD	1.256	n/a	CORSAGE	n/a	-999	7	[0, 0, 0]	n/a	catFR1	1	R1409D
1032.52	2.659	1185461	REC_END	n/a	n/a	n/a	n/a	-999	7	[0, 0, 0]	n/a	catFR1	1	R1409D
1035.179	10.35	1188110	COUNTDOWN_START	n/a	n/a	n/a	n/a	-999	8	[0, 0, 0]	n/a	catFR1	1	R1409D
1045.529	0.0	1198459	COUNTDOWN_END	n/a	n/a	n/a	n/a	-999	8	[0, 0, 0]	n/a	catFR1	1	R1409D
1045.529	2.166	1198470	ENCODING_START	n/a	n/a	n/a	n/a	-999	8	[0, 0, 0]	n/a	catFR1	1	R1409D
1047.695	1.6	1200634	WORD	n/a	wordpools/wordpool_categorized_EN.txt	CORN	Vegetables	1	8	[0, 0, 0]	n/a	catFR1	1	R1409D
1049.295	0.866	1202235	WORD_OFF	n/a	n/a	CORN	Vegetables	1	8	[0, 0, 0]	n/a	catFR1	1	R1409D
1050.161	1.6	1203092	WORD	n/a	wordpools/wordpool_categorized_EN.txt	POTATO	Vegetables	2	8	[0, 0, 0]	n/a	catFR1	1	R1409D
1051.761	0.934	1204692	WORD_OFF	n/a	n/a	POTATO	Vegetables	2	8	[0, 0, 0]	n/a	catFR1	1	R1409D
1052.695	1.617	1205628	WORD	n/a	wordpools/wordpool_categorized_EN.txt	TROMBONE	Instruments	3	8	[0, 0, 0]	n/a	catFR1	1	R1409D
1054.312	0.866	1207251	WORD_OFF	n/a	n/a	TROMBONE	Instruments	3	8	[0, 0, 0]	n/a	catFR1	1	R1409D
1055.178	1.6	1208108	WORD	n/a	wordpools/wordpool_categorized_EN.txt	TRUMPET	Instruments	4	8	[0, 0, 0]	n/a	catFR1	1	R1409D
1056.778	0.767	1209709	WORD_OFF	n/a	n/a	TRUMPET	Instruments	4	8	[0, 0, 0]	n/a	catFR1	1	R1409D
1057.545	1.616	1210475	WORD	n/a	wordpools/wordpool_categorized_EN.txt	CHERRY	Fruit	5	8	[0, 0, 0]	n/a	catFR1	1	R1409D
1059.161	0.867	1212099	WORD_OFF	n/a	n/a	CHERRY	Fruit	5	8	[0, 0, 0]	n/a	catFR1	1	R1409D
1060.028	1.6	1212967	WORD	n/a	wordpools/wordpool_categorized_EN.txt	STRAWBERRY	Fruit	6	8	[0, 0, 0]	n/a	catFR1	1	R1409D
1061.628	0.784	1214567	WORD_OFF	n/a	n/a	STRAWBERRY	Fruit	6	8	[0, 0, 0]	n/a	catFR1	1	R1409D
1062.412	1.6	1215345	WORD	n/a	wordpools/wordpool_categorized_EN.txt	GUITAR	Instruments	7	8	[0, 0, 0]	n/a	catFR1	1	R1409D
1064.012	0.833	1216946	WORD_OFF	n/a	n/a	GUITAR	Instruments	7	8	[0, 0, 0]	n/a	catFR1	1	R1409D
1064.845	1.601	1217780	WORD	n/a	wordpools/wordpool_categorized_EN.txt	ORGAN	Instruments	8	8	[0, 0, 0]	n/a	catFR1	1	R1409D
1066.446	1.0	1219381	WORD_OFF	n/a	n/a	ORGAN	Instruments	8	8	[0, 0, 0]	n/a	catFR1	1	R1409D
1067.446	1.616	1220384	WORD	n/a	wordpools/wordpool_categorized_EN.txt	CABBAGE	Vegetables	9	8	[0, 0, 0]	n/a	catFR1	1	R1409D
1069.062	0.867	1221996	WORD_OFF	n/a	n/a	CABBAGE	Vegetables	9	8	[0, 0, 0]	n/a	catFR1	1	R1409D
1069.929	1.6	1222864	WORD	n/a	wordpools/wordpool_categorized_EN.txt	CAULIFLOWER	Vegetables	10	8	[0, 0, 0]	n/a	catFR1	1	R1409D
1071.529	0.817	1224465	WORD_OFF	n/a	n/a	CAULIFLOWER	Vegetables	10	8	[0, 0, 0]	n/a	catFR1	1	R1409D
1072.346	1.6	1225276	WORD	n/a	wordpools/wordpool_categorized_EN.txt	BANANA	Fruit	11	8	[0, 0, 0]	n/a	catFR1	1	R1409D
1073.946	0.816	1226877	WORD_OFF	n/a	n/a	BANANA	Fruit	11	8	[0, 0, 0]	n/a	catFR1	1	R1409D
1074.762	1.601	1227700	WORD	n/a	wordpools/wordpool_categorized_EN.txt	BLUEBERRY	Fruit	12	8	[0, 0, 0]	n/a	catFR1	1	R1409D
1076.363	0.001	1229297	PROB	0.001	n/a	n/a	n/a	-999	8	[1, 1, 4]	6	catFR1	1	R1409D
1076.364	0.0	1229298	START	n/a	n/a	n/a	n/a	-999	8	[-999, -999, -999]	n/a	catFR1	1	R1409D
1076.362	0.002	1229301	WORD_OFF	n/a	n/a	BLUEBERRY	Fruit	12	8	[0, 0, 0]	n/a	catFR1	1	R1409D
1076.364	0.0	1229301	ENCODING_END	n/a	n/a	n/a	n/a	-999	8	[0, 0, 0]	n/a	catFR1	1	R1409D
1076.364	3.716	1229301	DISTRACT_START	n/a	n/a	n/a	n/a	-999	8	[0, 0, 0]	n/a	catFR1	1	R1409D
1080.08	5.083	1233013	PROB	5.083	n/a	n/a	n/a	-999	8	[5, 8, 6]	19	catFR1	1	R1409D
1085.163	5.099	1238096	PROB	5.099	n/a	n/a	n/a	-999	8	[7, 1, 6]	14	catFR1	1	R1409D
1090.262	4.517	1243195	PROB	4.517	n/a	n/a	n/a	-999	8	[1, 7, 3]	11	catFR1	1	R1409D
1094.779	4.999	1247712	PROB	4.999	n/a	n/a	n/a	-999	8	[3, 6, 7]	16	catFR1	1	R1409D
1099.778	0.0	1252710	STOP	n/a	n/a	n/a	n/a	-999	8	[-999, -999, -999]	n/a	catFR1	1	R1409D
1099.778	2.184	1252714	DISTRACT_END	n/a	n/a	n/a	n/a	-999	8	[0, 0, 0]	n/a	catFR1	1	R1409D
1101.962	0.662	1254898	REC_START	n/a	n/a	n/a	n/a	-999	8	[0, 0, 0]	n/a	catFR1	1	R1409D
1102.624	1.563	1255556	REC_WORD	1.563	n/a	GUITAR	Instruments	7	8	[0, 0, 0]	n/a	catFR1	1	R1409D
1104.187	1.438	1257119	REC_WORD	1.438	n/a	CELLO	Instruments	-999	8	[0, 0, 0]	n/a	catFR1	1	R1409D
1105.625	4.174	1258557	REC_WORD	4.174	n/a	PIANO	Instruments	-999	8	[0, 0, 0]	n/a	catFR1	1	R1409D
1109.799	1.184	1262731	REC_WORD_VV	1.184	n/a	<>	n/a	-999	8	[0, 0, 0]	n/a	catFR1	1	R1409D
1110.983	3.544	1263915	REC_WORD	3.544	n/a	BANANA	Fruit	11	8	[0, 0, 0]	n/a	catFR1	1	R1409D
1114.527	14.07	1267459	REC_WORD	14.07	n/a	CARROT	Vegetables	-999	8	[0, 0, 0]	n/a	catFR1	1	R1409D
1128.597	0.518	1281528	REC_WORD	0.518	n/a	PAPER	OfficeSupplies	-999	8	[0, 0, 0]	n/a	catFR1	1	R1409D
1129.115	3.082	1282046	REC_WORD	3.082	n/a	MARKER	OfficeSupplies	-999	8	[0, 0, 0]	n/a	catFR1	1	R1409D
1132.197	2.598	1285123	REC_END	n/a	n/a	n/a	n/a	-999	8	[0, 0, 0]	n/a	catFR1	1	R1409D
1134.795	10.351	1287727	COUNTDOWN_START	n/a	n/a	n/a	n/a	-999	9	[0, 0, 0]	n/a	catFR1	1	R1409D
1145.146	0.0	1298076	COUNTDOWN_END	n/a	n/a	n/a	n/a	-999	9	[0, 0, 0]	n/a	catFR1	1	R1409D
1145.146	2.049	1298076	ENCODING_START	n/a	n/a	n/a	n/a	-999	9	[0, 0, 0]	n/a	catFR1	1	R1409D
1147.195	1.6	1300127	WORD	n/a	wordpools/wordpool_categorized_EN.txt	SPIDER	Insects	1	9	[0, 0, 0]	n/a	catFR1	1	R1409D
1148.795	0.85	1301728	WORD_OFF	n/a	n/a	SPIDER	Insects	1	9	[0, 0, 0]	n/a	catFR1	1	R1409D
1149.645	1.6	1302573	WORD	n/a	wordpools/wordpool_categorized_EN.txt	CRICKET	Insects	2	9	[0, 0, 0]	n/a	catFR1	1	R1409D
1151.245	0.8	1304174	WORD_OFF	n/a	n/a	CRICKET	Insects	2	9	[0, 0, 0]	n/a	catFR1	1	R1409D
1152.045	1.617	1304975	WORD	n/a	wordpools/wordpool_categorized_EN.txt	WOOL	Fabric	3	9	[0, 0, 0]	n/a	catFR1	1	R1409D
1153.662	0.983	1306587	WORD_OFF	n/a	n/a	WOOL	Fabric	3	9	[0, 0, 0]	n/a	catFR1	1	R1409D
1154.645	1.6	1307579	WORD	n/a	wordpools/wordpool_categorized_EN.txt	SPANDEX	Fabric	4	9	[0, 0, 0]	n/a	catFR1	1	R1409D
1156.245	0.916	1309179	WORD_OFF	n/a	n/a	SPANDEX	Fabric	4	9	[0, 0, 0]	n/a	catFR1	1	R1409D
1157.161	1.617	1310092	WORD	n/a	wordpools/wordpool_categorized_EN.txt	WATER	Beverages	5	9	[0, 0, 0]	n/a	catFR1	1	R1409D
1158.778	0.767	1311704	WORD_OFF	n/a	n/a	WATER	Beverages	5	9	[0, 0, 0]	n/a	catFR1	1	R1409D
1159.545	1.6	1312471	WORD	n/a	wordpools/wordpool_categorized_EN.txt	COFFEE	Beverages	6	9	[0, 0, 0]	n/a	catFR1	1	R1409D
1161.145	0.917	1314072	WORD_OFF	n/a	n/a	COFFEE	Beverages	6	9	[0, 0, 0]	n/a	catFR1	1	R1409D
1162.062	1.6	1314996	WORD	n/a	wordpools/wordpool_categorized_EN.txt	BEE	Insects	7	9	[0, 0, 0]	n/a	catFR1	1	R1409D
1163.662	1.0	1316585	WORD_OFF	n/a	n/a	BEE	Insects	7	9	[0, 0, 0]	n/a	catFR1	1	R1409D
1164.662	1.617	1317589	WORD	n/a	wordpools/wordpool_categorized_EN.txt	MOSQUITO	Insects	8	9	[0, 0, 0]	n/a	catFR1	1	R1409D
1166.279	0.85	1319212	WORD_OFF	n/a	n/a	MOSQUITO	Insects	8	9	[0, 0, 0]	n/a	catFR1	1	R1409D
1167.129	1.6	1320057	WORD	n/a	wordpools/wordpool_categorized_EN.txt	LEATHER	Fabric	9	9	[0, 0, 0]	n/a	catFR1	1	R1409D
1168.729	0.965	1321658	WORD_OFF	n/a	n/a	LEATHER	Fabric	9	9	[0, 0, 0]	n/a	catFR1	1	R1409D
1169.694	1.602	1322628	WORD	n/a	wordpools/wordpool_categorized_EN.txt	NYLON	Fabric	10	9	[0, 0, 0]	n/a	catFR1	1	R1409D
1171.296	0.983	1324228	WORD_OFF	n/a	n/a	NYLON	Fabric	10	9	[0, 0, 0]	n/a	catFR1	1	R1409D
1172.279	1.617	1325209	WORD	n/a	wordpools/wordpool_categorized_EN.txt	CIDER	Beverages	11	9	[0, 0, 0]	n/a	catFR1	1	R1409D
1173.896	0.9	1326821	WORD_OFF	n/a	n/a	CIDER	Beverages	11	9	[0, 0, 0]	n/a	catFR1	1	R1409D
1174.796	1.6	1327723	WORD	n/a	wordpools/wordpool_categorized_EN.txt	TEA	Beverages	12	9	[0, 0, 0]	n/a	catFR1	1	R1409D
1176.396	0.002	1329324	WORD_OFF	n/a	n/a	TEA	Beverages	12	9	[0, 0, 0]	n/a	catFR1	1	R1409D
1176.398	0.0	1329324	ENCODING_END	n/a	n/a	n/a	n/a	-999	9	[0, 0, 0]	n/a	catFR1	1	R1409D
1176.398	0.0	1329324	DISTRACT_START	n/a	n/a	n/a	n/a	-999	9	[0, 0, 0]	n/a	catFR1	1	R1409D
1176.396	0.002	1329325	PROB	0.002	n/a	n/a	n/a	-999	9	[7, 7, 3]	17	catFR1	1	R1409D
1176.398	4.665	1329327	START	n/a	n/a	n/a	n/a	-999	9	[-999, -999, -999]	n/a	catFR1	1	R1409D
1181.063	3.15	1333991	PROB	3.15	n/a	n/a	n/a	-999	9	[1, 7, 1]	9	catFR1	1	R1409D
1184.213	4.833	1337141	PROB	4.833	n/a	n/a	n/a	-999	9	[7, 6, 3]	16	catFR1	1	R1409D
1189.046	6.0	1341974	PROB	6.0	n/a	n/a	n/a	-999	9	[8, 2, 2]	12	catFR1	1	R1409D
1195.046	5.049	1347974	PROB	5.049	n/a	n/a	n/a	-999	9	[3, 5, 8]	16	catFR1	1	R1409D
1200.095	0.0	1353019	DISTRACT_END	n/a	n/a	n/a	n/a	-999	9	[0, 0, 0]	n/a	catFR1	1	R1409D
1200.095	2.201	1353022	STOP	n/a	n/a	n/a	n/a	-999	9	[-999, -999, -999]	n/a	catFR1	1	R1409D
1202.296	0.611	1355225	REC_START	n/a	n/a	n/a	n/a	-999	9	[0, 0, 0]	n/a	catFR1	1	R1409D
1202.907	2.493	1355834	REC_WORD	2.493	n/a	SPIDER	Insects	1	9	[0, 0, 0]	n/a	catFR1	1	R1409D
1205.4	4.076	1358327	REC_WORD	4.076	n/a	MOSQUITO	Insects	8	9	[0, 0, 0]	n/a	catFR1	1	R1409D
1209.476	7.557	1362403	REC_WORD_VV	7.557	n/a	<>	n/a	-999	9	[0, 0, 0]	n/a	catFR1	1	R1409D
1217.033	2.532	1369960	REC_WORD_VV	2.532	n/a	<>	n/a	-999	9	[0, 0, 0]	n/a	catFR1	1	R1409D
1219.565	0.717	1372491	REC_WORD	0.717	n/a	SPIDER	Insects	1	9	[0, 0, 0]	n/a	catFR1	1	R1409D
1220.282	4.542	1373208	REC_WORD	4.542	n/a	MOSQUITO	Insects	8	9	[0, 0, 0]	n/a	catFR1	1	R1409D
1224.824	7.706	1377750	REC_WORD_VV	7.706	n/a	<>	n/a	-999	9	[0, 0, 0]	n/a	catFR1	1	R1409D
1232.53	2.116	1385450	REC_END	n/a	n/a	n/a	n/a	-999	9	[0, 0, 0]	n/a	catFR1	1	R1409D
1234.646	10.35	1387570	COUNTDOWN_START	n/a	n/a	n/a	n/a	-999	10	[0, 0, 0]	n/a	catFR1	1	R1409D
1244.996	0.0	1397918	COUNTDOWN_END	n/a	n/a	n/a	n/a	-999	10	[0, 0, 0]	n/a	catFR1	1	R1409D
1244.996	2.183	1397918	ENCODING_START	n/a	n/a	n/a	n/a	-999	10	[0, 0, 0]	n/a	catFR1	1	R1409D
1247.179	1.6	1400105	WORD	n/a	wordpools/wordpool_categorized_EN.txt	CORKSCREW	KitchenTools	1	10	[0, 0, 0]	n/a	catFR1	1	R1409D
1248.779	0.899	1401706	WORD_OFF	n/a	n/a	CORKSCREW	KitchenTools	1	10	[0, 0, 0]	n/a	catFR1	1	R1409D
1249.678	1.601	1402608	WORD	n/a	wordpools/wordpool_categorized_EN.txt	TONGS	KitchenTools	2	10	[0, 0, 0]	n/a	catFR1	1	R1409D
1251.279	0.9	1404208	WORD_OFF	n/a	n/a	TONGS	KitchenTools	2	10	[0, 0, 0]	n/a	catFR1	1	R1409D
1252.179	1.6	1405099	WORD	n/a	wordpools/wordpool_categorized_EN.txt	MARBLES	Toys	3	10	[0, 0, 0]	n/a	catFR1	1	R1409D
1253.779	0.983	1406711	WORD_OFF	n/a	n/a	MARBLES	Toys	3	10	[0, 0, 0]	n/a	catFR1	1	R1409D
1254.762	1.616	1407692	WORD	n/a	wordpools/wordpool_categorized_EN.txt	DOLLHOUSE	Toys	4	10	[0, 0, 0]	n/a	catFR1	1	R1409D
1256.378	0.784	1409304	WORD_OFF	n/a	n/a	DOLLHOUSE	Toys	4	10	[0, 0, 0]	n/a	catFR1	1	R1409D
1257.162	1.6	1410081	WORD	n/a	wordpools/wordpool_categorized_EN.txt	OCEAN	Landscapes	5	10	[0, 0, 0]	n/a	catFR1	1	R1409D
1258.762	0.967	1411682	WORD_OFF	n/a	n/a	OCEAN	Landscapes	5	10	[0, 0, 0]	n/a	catFR1	1	R1409D
1259.729	1.617	1412652	WORD	n/a	wordpools/wordpool_categorized_EN.txt	FOREST	Landscapes	6	10	[0, 0, 0]	n/a	catFR1	1	R1409D
1261.346	0.866	1414275	WORD_OFF	n/a	n/a	FOREST	Landscapes	6	10	[0, 0, 0]	n/a	catFR1	1	R1409D
1262.212	1.6	1415132	WORD	n/a	wordpools/wordpool_categorized_EN.txt	KNIFE	KitchenTools	7	10	[0, 0, 0]	n/a	catFR1	1	R1409D
1263.812	0.85	1416732	WORD_OFF	n/a	n/a	KNIFE	KitchenTools	7	10	[0, 0, 0]	n/a	catFR1	1	R1409D
1264.662	1.6	1417589	WORD	n/a	wordpools/wordpool_categorized_EN.txt	WHISK	KitchenTools	8	10	[0, 0, 0]	n/a	catFR1	1	R1409D
1266.262	0.784	1419190	WORD_OFF	n/a	n/a	WHISK	KitchenTools	8	10	[0, 0, 0]	n/a	catFR1	1	R1409D
1267.046	1.6	1419968	WORD	n/a	wordpools/wordpool_categorized_EN.txt	BARBIE	Toys	9	10	[0, 0, 0]	n/a	catFR1	1	R1409D
1268.646	0.781	1421568	WORD_OFF	n/a	n/a	BARBIE	Toys	9	10	[0, 0, 0]	n/a	catFR1	1	R1409D
1269.427	1.602	1422346	WORD	n/a	wordpools/wordpool_categorized_EN.txt	DOLL	Toys	10	10	[0, 0, 0]	n/a	catFR1	1	R1409D
1271.029	0.882	1423958	WORD_OFF	n/a	n/a	DOLL	Toys	10	10	[0, 0, 0]	n/a	catFR1	1	R1409D
1271.911	1.601	1424837	WORD	n/a	wordpools/wordpool_categorized_EN.txt	BEACH	Landscapes	11	10	[0, 0, 0]	n/a	catFR1	1	R1409D
1273.512	0.85	1426438	WORD_OFF	n/a	n/a	BEACH	Landscapes	11	10	[0, 0, 0]	n/a	catFR1	1	R1409D
1274.362	1.617	1427284	WORD	n/a	wordpools/wordpool_categorized_EN.txt	HILLS	Landscapes	12	10	[0, 0, 0]	n/a	catFR1	1	R1409D
1275.979	0.002	1428903	PROB	0.002	n/a	n/a	n/a	-999	10	[7, 6, 7]	20	catFR1	1	R1409D
1275.981	0.0	1428905	START	n/a	n/a	n/a	n/a	-999	10	[-999, -999, -999]	n/a	catFR1	1	R1409D
1275.979	0.001	1428907	WORD_OFF	n/a	n/a	HILLS	Landscapes	12	10	[0, 0, 0]	n/a	catFR1	1	R1409D
1275.98	0.001	1428907	ENCODING_END	n/a	n/a	n/a	n/a	-999	10	[0, 0, 0]	n/a	catFR1	1	R1409D
1275.981	16.665	1428907	DISTRACT_START	n/a	n/a	n/a	n/a	-999	10	[0, 0, 0]	n/a	catFR1	1	R1409D
1292.646	5.365	1445569	PROB	5.365	n/a	n/a	n/a	-999	10	[4, 2, 6]	12	catFR1	1	R1409D
1298.011	0.0	1450933	STOP	n/a	n/a	n/a	n/a	-999	10	[-999, -999, -999]	n/a	catFR1	1	R1409D
1298.011	2.018	1450934	DISTRACT_END	n/a	n/a	n/a	n/a	-999	10	[0, 0, 0]	n/a	catFR1	1	R1409D
1300.029	1.32	1452948	REC_START	n/a	n/a	n/a	n/a	-999	10	[0, 0, 0]	n/a	catFR1	1	R1409D
1301.349	3.559	1454271	REC_WORD	3.559	n/a	BEACH	Landscapes	11	10	[0, 0, 0]	n/a	catFR1	1	R1409D
1304.908	4.809	1457830	REC_WORD	4.809	n/a	CORKSCREW	KitchenTools	1	10	[0, 0, 0]	n/a	catFR1	1	R1409D
1309.717	3.779	1462639	REC_WORD_VV	3.779	n/a	<>	n/a	-999	10	[0, 0, 0]	n/a	catFR1	1	R1409D
1313.496	4.319	1466418	REC_WORD	4.319	n/a	MOUNTAIN	Landscapes	-999	10	[0, 0, 0]	n/a	catFR1	1	R1409D
1317.815	5.706	1470736	REC_WORD	5.706	n/a	FOREST	Landscapes	6	10	[0, 0, 0]	n/a	catFR1	1	R1409D
1323.521	6.734	1476442	REC_WORD	6.734	n/a	CREEK	Landscapes	-999	10	[0, 0, 0]	n/a	catFR1	1	R1409D
1330.255	2.773	1483174	REC_END	n/a	n/a	n/a	n/a	-999	10	[0, 0, 0]	n/a	catFR1	1	R1409D
1333.028	10.352	1485947	COUNTDOWN_START	n/a	n/a	n/a	n/a	-999	11	[0, 0, 0]	n/a	catFR1	1	R1409D
1343.38	0.0	1496295	COUNTDOWN_END	n/a	n/a	n/a	n/a	-999	11	[0, 0, 0]	n/a	catFR1	1	R1409D
1343.38	1.949	1496306	ENCODING_START	n/a	n/a	n/a	n/a	-999	11	[0, 0, 0]	n/a	catFR1	1	R1409D
1345.329	1.617	1498245	WORD	n/a	wordpools/wordpool_categorized_EN.txt	BEER	Beverages	1	11	[0, 0, 0]	n/a	catFR1	1	R1409D
1346.946	0.866	1499869	WORD_OFF	n/a	n/a	BEER	Beverages	1	11	[0, 0, 0]	n/a	catFR1	1	R1409D
1347.812	1.6	1500737	WORD	n/a	wordpools/wordpool_categorized_EN.txt	LEMONADE	Beverages	2	11	[0, 0, 0]	n/a	catFR1	1	R1409D
1349.412	0.983	1502337	WORD_OFF	n/a	n/a	LEMONADE	Beverages	2	11	[0, 0, 0]	n/a	catFR1	1	R1409D
1350.395	1.616	1503318	WORD	n/a	wordpools/wordpool_categorized_EN.txt	SEAGULL	Birds	3	11	[0, 0, 0]	n/a	catFR1	1	R1409D
1352.011	0.785	1504930	WORD_OFF	n/a	n/a	SEAGULL	Birds	3	11	[0, 0, 0]	n/a	catFR1	1	R1409D
1352.796	1.616	1505719	WORD	n/a	wordpools/wordpool_categorized_EN.txt	BLUEBIRD	Birds	4	11	[0, 0, 0]	n/a	catFR1	1	R1409D
1354.412	0.867	1507331	WORD_OFF	n/a	n/a	BLUEBIRD	Birds	4	11	[0, 0, 0]	n/a	catFR1	1	R1409D
1355.279	1.616	1508199	WORD	n/a	wordpools/wordpool_categorized_EN.txt	LINEN	Fabric	5	11	[0, 0, 0]	n/a	catFR1	1	R1409D
1356.895	0.851	1509811	WORD_OFF	n/a	n/a	LINEN	Fabric	5	11	[0, 0, 0]	n/a	catFR1	1	R1409D
1357.746	1.6	1510668	WORD	n/a	wordpools/wordpool_categorized_EN.txt	SATIN	Fabric	6	11	[0, 0, 0]	n/a	catFR1	1	R1409D
1359.346	1.0	1512269	WORD_OFF	n/a	n/a	SATIN	Fabric	6	11	[0, 0, 0]	n/a	catFR1	1	R1409D
1360.346	1.6	1513261	WORD	n/a	wordpools/wordpool_categorized_EN.txt	SPARROW	Birds	7	11	[0, 0, 0]	n/a	catFR1	1	R1409D
1361.946	0.983	1514861	WORD_OFF	n/a	n/a	SPARROW	Birds	7	11	[0, 0, 0]	n/a	catFR1	1	R1409D
1362.929	1.6	1515853	WORD	n/a	wordpools/wordpool_categorized_EN.txt	GOOSE	Birds	8	11	[0, 0, 0]	n/a	catFR1	1	R1409D
1364.529	0.85	1517443	WORD_OFF	n/a	n/a	GOOSE	Birds	8	11	[0, 0, 0]	n/a	catFR1	1	R1409D
1365.379	1.6	1518299	WORD	n/a	wordpools/wordpool_categorized_EN.txt	SILK	Fabric	9	11	[0, 0, 0]	n/a	catFR1	1	R1409D
1366.979	0.917	1519900	WORD_OFF	n/a	n/a	SILK	Fabric	9	11	[0, 0, 0]	n/a	catFR1	1	R1409D
1367.896	1.616	1520813	WORD	n/a	wordpools/wordpool_categorized_EN.txt	DENIM	Fabric	10	11	[0, 0, 0]	n/a	catFR1	1	R1409D
1369.512	0.834	1522425	WORD_OFF	n/a	n/a	DENIM	Fabric	10	11	[0, 0, 0]	n/a	catFR1	1	R1409D
1370.346	1.615	1523259	WORD	n/a	wordpools/wordpool_categorized_EN.txt	COLA	Beverages	11	11	[0, 0, 0]	n/a	catFR1	1	R1409D
1371.961	0.818	1524883	WORD_OFF	n/a	n/a	COLA	Beverages	11	11	[0, 0, 0]	n/a	catFR1	1	R1409D
1372.779	1.617	1525694	WORD	n/a	wordpools/wordpool_categorized_EN.txt	RUM	Beverages	12	11	[0, 0, 0]	n/a	catFR1	1	R1409D
1374.396	0.001	1527315	PROB	0.001	n/a	n/a	n/a	-999	11	[4, 6, 6]	16	catFR1	1	R1409D
1374.397	0.0	1527316	START	n/a	n/a	n/a	n/a	-999	11	[-999, -999, -999]	n/a	catFR1	1	R1409D
1374.396	0.001	1527318	WORD_OFF	n/a	n/a	RUM	Beverages	12	11	[0, 0, 0]	n/a	catFR1	1	R1409D
1374.397	0.0	1527318	ENCODING_END	n/a	n/a	n/a	n/a	-999	11	[0, 0, 0]	n/a	catFR1	1	R1409D
1374.397	5.233	1527318	DISTRACT_START	n/a	n/a	n/a	n/a	-999	11	[0, 0, 0]	n/a	catFR1	1	R1409D
1379.63	4.783	1532548	PROB	4.783	n/a	n/a	n/a	-999	11	[8, 4, 7]	19	catFR1	1	R1409D
1384.413	4.233	1537331	PROB	4.233	n/a	n/a	n/a	-999	11	[7, 7, 8]	22	catFR1	1	R1409D
1388.646	4.55	1541564	PROB	4.55	n/a	n/a	n/a	-999	11	[7, 5, 5]	17	catFR1	1	R1409D
1393.196	3.866	1546114	PROB	3.866	n/a	n/a	n/a	-999	11	[4, 1, 7]	12	catFR1	1	R1409D
1397.062	0.0	1549976	DISTRACT_END	n/a	n/a	n/a	n/a	-999	11	[0, 0, 0]	n/a	catFR1	1	R1409D
1397.062	2.333	1549979	STOP	n/a	n/a	n/a	n/a	-999	11	[-999, -999, -999]	n/a	catFR1	1	R1409D
1399.395	0.776	1552317	REC_START	n/a	n/a	n/a	n/a	-999	11	[0, 0, 0]	n/a	catFR1	1	R1409D
1400.171	0.753	1553088	REC_WORD	0.753	n/a	BEER	Beverages	1	11	[0, 0, 0]	n/a	catFR1	1	R1409D
1400.924	1.37	1553841	REC_WORD	1.37	n/a	RUM	Beverages	12	11	[0, 0, 0]	n/a	catFR1	1	R1409D
1402.294	1.957	1555211	REC_WORD	1.957	n/a	LEMONADE	Beverages	2	11	[0, 0, 0]	n/a	catFR1	1	R1409D
1404.251	3.624	1557168	REC_WORD	3.624	n/a	COLA	Beverages	11	11	[0, 0, 0]	n/a	catFR1	1	R1409D
1407.875	6.675	1560792	REC_WORD	6.675	n/a	BLUEBIRD	Birds	4	11	[0, 0, 0]	n/a	catFR1	1	R1409D
1414.55	1.039	1567467	REC_WORD	1.039	n/a	LINEN	Fabric	5	11	[0, 0, 0]	n/a	catFR1	1	R1409D
1415.589	4.888	1568506	REC_WORD	4.888	n/a	DENIM	Fabric	10	11	[0, 0, 0]	n/a	catFR1	1	R1409D
1420.477	5.547	1573393	REC_WORD	5.547	n/a	SPARROW	Birds	7	11	[0, 0, 0]	n/a	catFR1	1	R1409D
1426.024	3.586	1578940	REC_WORD	3.586	n/a	SILK	Fabric	9	11	[0, 0, 0]	n/a	catFR1	1	R1409D
1429.61	2.235	1582520	REC_END	n/a	n/a	n/a	n/a	-999	11	[0, 0, 0]	n/a	catFR1	1	R1409D
1431.845	10.351	1584763	COUNTDOWN_START	n/a	n/a	n/a	n/a	-999	12	[0, 0, 0]	n/a	catFR1	1	R1409D
1442.196	0.001	1595112	COUNTDOWN_END	n/a	n/a	n/a	n/a	-999	12	[0, 0, 0]	n/a	catFR1	1	R1409D
1442.197	1.899	1595112	ENCODING_START	n/a	n/a	n/a	n/a	-999	12	[0, 0, 0]	n/a	catFR1	1	R1409D
1444.096	1.6	1597006	WORD	n/a	wordpools/wordpool_categorized_EN.txt	FLEECE	Fabric	1	12	[0, 0, 0]	n/a	catFR1	1	R1409D
1445.696	0.965	1598606	WORD_OFF	n/a	n/a	FLEECE	Fabric	1	12	[0, 0, 0]	n/a	catFR1	1	R1409D
1446.661	1.601	1599576	WORD	n/a	wordpools/wordpool_categorized_EN.txt	VELVET	Fabric	2	12	[0, 0, 0]	n/a	catFR1	1	R1409D
1448.262	0.967	1601177	WORD_OFF	n/a	n/a	VELVET	Fabric	2	12	[0, 0, 0]	n/a	catFR1	1	R1409D
1449.229	1.6	1602146	WORD	n/a	wordpools/wordpool_categorized_EN.txt	WINE	Beverages	3	12	[0, 0, 0]	n/a	catFR1	1	R1409D
1450.829	1.0	1603747	WORD_OFF	n/a	n/a	WINE	Beverages	3	12	[0, 0, 0]	n/a	catFR1	1	R1409D
1451.829	1.6	1604739	WORD	n/a	wordpools/wordpool_categorized_EN.txt	SODA	Beverages	4	12	[0, 0, 0]	n/a	catFR1	1	R1409D
1453.429	1.0	1606339	WORD_OFF	n/a	n/a	SODA	Beverages	4	12	[0, 0, 0]	n/a	catFR1	1	R1409D
1454.429	1.6	1607343	WORD	n/a	wordpools/wordpool_categorized_EN.txt	CARDINAL	Birds	5	12	[0, 0, 0]	n/a	catFR1	1	R1409D
1456.029	0.966	1608943	WORD_OFF	n/a	n/a	CARDINAL	Birds	5	12	[0, 0, 0]	n/a	catFR1	1	R1409D
1456.995	1.601	1609913	WORD	n/a	wordpools/wordpool_categorized_EN.txt	PIGEON	Birds	6	12	[0, 0, 0]	n/a	catFR1	1	R1409D
1458.596	0.999	1611514	WORD_OFF	n/a	n/a	PIGEON	Birds	6	12	[0, 0, 0]	n/a	catFR1	1	R1409D
1459.595	1.601	1612506	WORD	n/a	wordpools/wordpool_categorized_EN.txt	JUICE	Beverages	7	12	[0, 0, 0]	n/a	catFR1	1	R1409D
1461.196	0.916	1614106	WORD_OFF	n/a	n/a	JUICE	Beverages	7	12	[0, 0, 0]	n/a	catFR1	1	R1409D
1462.112	1.6	1615031	WORD	n/a	wordpools/wordpool_categorized_EN.txt	MILK	Beverages	8	12	[0, 0, 0]	n/a	catFR1	1	R1409D
1463.712	0.884	1616631	WORD_OFF	n/a	n/a	MILK	Beverages	8	12	[0, 0, 0]	n/a	catFR1	1	R1409D
1464.596	1.6	1617511	WORD	n/a	wordpools/wordpool_categorized_EN.txt	SUEDE	Fabric	9	12	[0, 0, 0]	n/a	catFR1	1	R1409D
1466.196	0.898	1619111	WORD_OFF	n/a	n/a	SUEDE	Fabric	9	12	[0, 0, 0]	n/a	catFR1	1	R1409D
1467.094	1.602	1620013	WORD	n/a	wordpools/wordpool_categorized_EN.txt	COTTON	Fabric	10	12	[0, 0, 0]	n/a	catFR1	1	R1409D
1468.696	0.767	1621614	WORD_OFF	n/a	n/a	COTTON	Fabric	10	12	[0, 0, 0]	n/a	catFR1	1	R1409D
1469.463	1.599	1622380	WORD	n/a	wordpools/wordpool_categorized_EN.txt	FINCH	Birds	11	12	[0, 0, 0]	n/a	catFR1	1	R1409D
1471.062	0.901	1623981	WORD_OFF	n/a	n/a	FINCH	Birds	11	12	[0, 0, 0]	n/a	catFR1	1	R1409D
1471.963	1.616	1624872	WORD	n/a	wordpools/wordpool_categorized_EN.txt	DUCK	Birds	12	12	[0, 0, 0]	n/a	catFR1	1	R1409D
1473.579	0.0	1626493	PROB	0.0	n/a	n/a	n/a	-999	12	[7, 7, 8]	22	catFR1	1	R1409D
1473.579	0.001	1626495	WORD_OFF	n/a	n/a	DUCK	Birds	12	12	[0, 0, 0]	n/a	catFR1	1	R1409D
1473.58	0.001	1626495	ENCODING_END	n/a	n/a	n/a	n/a	-999	12	[0, 0, 0]	n/a	catFR1	1	R1409D
1473.581	0.0	1626495	DISTRACT_START	n/a	n/a	n/a	n/a	-999	12	[0, 0, 0]	n/a	catFR1	1	R1409D
1473.581	5.049	1626495	START	n/a	n/a	n/a	n/a	-999	12	[-999, -999, -999]	n/a	catFR1	1	R1409D
1478.63	8.216	1631543	PROB	8.216	n/a	n/a	n/a	-999	12	[7, 1, 7]	15	catFR1	1	R1409D
1486.846	6.266	1639759	PROB	6.266	n/a	n/a	n/a	-999	12	[2, 8, 5]	15	catFR1	1	R1409D
1493.112	4.183	1646025	PROB	4.183	n/a	n/a	n/a	-999	12	[1, 5, 5]	11	catFR1	1	R1409D
1497.295	0.0	1650202	DISTRACT_END	n/a	n/a	n/a	n/a	-999	12	[0, 0, 0]	n/a	catFR1	1	R1409D
1497.295	2.333	1650207	STOP	n/a	n/a	n/a	n/a	-999	12	[-999, -999, -999]	n/a	catFR1	1	R1409D
1499.628	1.568	1652543	REC_START	n/a	n/a	n/a	n/a	-999	12	[0, 0, 0]	n/a	catFR1	1	R1409D
1501.196	6.096	1654108	REC_WORD	6.096	n/a	WINE	Beverages	3	12	[0, 0, 0]	n/a	catFR1	1	R1409D
1507.292	10.047	1660204	REC_WORD_VV	10.047	n/a	<>	n/a	-999	12	[0, 0, 0]	n/a	catFR1	1	R1409D
1517.339	12.093	1670250	REC_WORD	12.093	n/a	SILK	Fabric	-999	12	[0, 0, 0]	n/a	catFR1	1	R1409D
1529.432	0.393	1682343	REC_WORD_VV	0.393	n/a	<>	n/a	-999	12	[0, 0, 0]	n/a	catFR1	1	R1409D
1529.825	0.0	1682735	REC_END	n/a	n/a	n/a	n/a	-999	12	[0, 0, 0]	n/a	catFR1	1	R1409D
