onset	duration	sample	trial_type	response_time	stim_file	item_name	category	serialpos	list	test	answer	experiment	session	subject
0.0	164.88	128642	INSTRUCT_START	n/a	n/a	n/a	n/a	-999	-999	[0, 0, 0]	n/a	catFR1	2	R1536J
164.88	29.103	293512	INSTRUCT_END	n/a	n/a	n/a	n/a	-999	-999	[0, 0, 0]	n/a	catFR1	2	R1536J
193.983	10.0	322618	COUNTDOWN_START	n/a	n/a	n/a	n/a	-999	-999	[0, 0, 0]	n/a	catFR1	2	R1536J
204.33	0.0	332964	COUNTDOWN_END	n/a	n/a	n/a	n/a	-999	-999	[0, 0, 0]	n/a	catFR1	2	R1536J
204.33	2.001	332964	ENCODING_START	n/a	n/a	n/a	n/a	-999	-1	[0, 0, 0]	n/a	catFR1	2	R1536J
206.331	1.6	334968	WORD	n/a	n/a	TABLET	Electronics	1	-1	[0, 0, 0]	n/a	catFR1	2	R1536J
207.948	0.783	336585	WORD_OFF	n/a	n/a	TABLET	Electronics	1	-1	[0, 0, 0]	n/a	catFR1	2	R1536J
208.731	1.6	337359	WORD	n/a	n/a	TELEVISION	Electronics	2	-1	[0, 0, 0]	n/a	catFR1	2	R1536J
210.347	0.783	338976	WORD_OFF	n/a	n/a	TELEVISION	Electronics	2	-1	[0, 0, 0]	n/a	catFR1	2	R1536J
211.13	1.6	339759	WORD	n/a	n/a	SPINACH	Vegetables	3	-1	[0, 0, 0]	n/a	catFR1	2	R1536J
212.748	0.864	341376	WORD_OFF	n/a	n/a	SPINACH	Vegetables	3	-1	[0, 0, 0]	n/a	catFR1	2	R1536J
213.612	1.6	342249	WORD	n/a	n/a	CABBAGE	Vegetables	4	-1	[0, 0, 0]	n/a	catFR1	2	R1536J
215.23	0.951	343866	WORD_OFF	n/a	n/a	CABBAGE	Vegetables	4	-1	[0, 0, 0]	n/a	catFR1	2	R1536J
216.181	1.6	344809	WORD	n/a	n/a	WIND	Weather	5	-1	[0, 0, 0]	n/a	catFR1	2	R1536J
217.797	0.901	346426	WORD_OFF	n/a	n/a	WIND	Weather	5	-1	[0, 0, 0]	n/a	catFR1	2	R1536J
218.698	1.6	347328	WORD	n/a	n/a	HUMIDITY	Weather	6	-1	[0, 0, 0]	n/a	catFR1	2	R1536J
220.312	0.866	348945	WORD_OFF	n/a	n/a	HUMIDITY	Weather	6	-1	[0, 0, 0]	n/a	catFR1	2	R1536J
221.178	1.6	349808	WORD	n/a	n/a	CELERY	Vegetables	7	-1	[0, 0, 0]	n/a	catFR1	2	R1536J
222.779	0.851	351415	WORD_OFF	n/a	n/a	CELERY	Vegetables	7	-1	[0, 0, 0]	n/a	catFR1	2	R1536J
223.63	1.6	352259	WORD	n/a	n/a	CAULIFLOWER	Vegetables	8	-1	[0, 0, 0]	n/a	catFR1	2	R1536J
225.246	1.0	353875	WORD_OFF	n/a	n/a	CAULIFLOWER	Vegetables	8	-1	[0, 0, 0]	n/a	catFR1	2	R1536J
226.246	1.6	354877	WORD	n/a	n/a	HEADPHONES	Electronics	9	-1	[0, 0, 0]	n/a	catFR1	2	R1536J
227.863	0.767	356494	WORD_OFF	n/a	n/a	HEADPHONES	Electronics	9	-1	[0, 0, 0]	n/a	catFR1	2	R1536J
228.63	1.6	357258	WORD	n/a	n/a	RADIO	Electronics	10	-1	[0, 0, 0]	n/a	catFR1	2	R1536J
230.23	0.767	358865	WORD_OFF	n/a	n/a	RADIO	Electronics	10	-1	[0, 0, 0]	n/a	catFR1	2	R1536J
230.997	1.6	359629	WORD	n/a	n/a	RAIN	Weather	11	-1	[0, 0, 0]	n/a	catFR1	2	R1536J
232.613	0.966	361246	WORD_OFF	n/a	n/a	RAIN	Weather	11	-1	[0, 0, 0]	n/a	catFR1	2	R1536J
233.579	1.6	362208	WORD	n/a	n/a	THUNDER	Weather	12	-1	[0, 0, 0]	n/a	catFR1	2	R1536J
235.179	0.001	363805	WORD_OFF	n/a	n/a	THUNDER	Weather	12	-1	[0, 0, 0]	n/a	catFR1	2	R1536J
235.18	0.0	363810	START	n/a	n/a	n/a	n/a	-999	-1	[-999, -999, -999]	n/a	catFR1	2	R1536J
235.18	0.0	363810	PROB	5.183	n/a	n/a	n/a	-999	-1	[5, 4, 8]	17.0	catFR1	2	R1536J
235.18	0.0	363815	ENCODING_END	n/a	n/a	n/a	n/a	-999	-1	[0, 0, 0]	n/a	catFR1	2	R1536J
235.18	5.199	363815	DISTRACT_START	n/a	n/a	n/a	n/a	-999	-1	[0, 0, 0]	n/a	catFR1	2	R1536J
240.379	4.051	369009	PROB	4.033	n/a	n/a	n/a	-999	-1	[1, 5, 7]	13.0	catFR1	2	R1536J
244.43	3.901	373060	PROB	3.882	n/a	n/a	n/a	-999	-1	[6, 7, 7]	20.0	catFR1	2	R1536J
248.331	3.416	376960	PROB	3.398	n/a	n/a	n/a	-999	-1	[3, 4, 4]	11.0	catFR1	2	R1536J
251.747	4.6	380376	PROB	4.582	n/a	n/a	n/a	-999	-1	[4, 3, 3]	10.0	catFR1	2	R1536J
256.347	0.0	384975	DISTRACT_END	n/a	n/a	n/a	n/a	-999	-1	[0, 0, 0]	n/a	catFR1	2	R1536J
256.347	1.55	384976	STOP	n/a	n/a	n/a	n/a	-999	-1	[-999, -999, -999]	n/a	catFR1	2	R1536J
257.897	2.482	386522	REC_START	n/a	n/a	n/a	n/a	-999	-1	[0, 0, 0]	n/a	catFR1	2	R1536J
260.379	1.786	389008	REC_WORD	2.482	n/a	CAULIFLOWER	Vegetables	8	-1	[0, 0, 0]	n/a	catFR1	2	R1536J
262.165	2.083	390794	REC_WORD	4.268	n/a	CORN	n/a	-999	-1	[0, 0, 0]	n/a	catFR1	2	R1536J
264.248	4.715	392877	REC_WORD	6.351	n/a	CELERY	Vegetables	7	-1	[0, 0, 0]	n/a	catFR1	2	R1536J
268.963	4.635	397591	REC_WORD	11.066	n/a	SPINACH	Vegetables	3	-1	[0, 0, 0]	n/a	catFR1	2	R1536J
273.598	14.485	402226	REC_WORD_VV	15.701	n/a	<>	n/a	-999	-1	[0, 0, 0]	n/a	catFR1	2	R1536J
288.083	4.965	416709	REC_END	n/a	n/a	n/a	n/a	-999	-1	[0, 0, 0]	n/a	catFR1	2	R1536J
293.048	10.0	421679	COUNTDOWN_START	n/a	n/a	n/a	n/a	-999	1	[0, 0, 0]	n/a	catFR1	2	R1536J
303.397	0.0	432025	COUNTDOWN_END	n/a	n/a	n/a	n/a	-999	1	[0, 0, 0]	n/a	catFR1	2	R1536J
303.397	2.066	432025	ENCODING_START	n/a	n/a	n/a	n/a	-999	1	[0, 0, 0]	n/a	catFR1	2	R1536J
305.463	1.6	434089	WORD	n/a	wordpools/wordpool_categorized_EN.txt	LIGHTNING	Weather	1	1	[0, 0, 0]	n/a	catFR1	2	R1536J
307.063	0.867	435686	WORD_OFF	n/a	n/a	LIGHTNING	Weather	1	1	[0, 0, 0]	n/a	catFR1	2	R1536J
307.93	1.6	436559	WORD	n/a	wordpools/wordpool_categorized_EN.txt	HURRICANE	Weather	2	1	[0, 0, 0]	n/a	catFR1	2	R1536J
309.546	0.951	438176	WORD_OFF	n/a	n/a	HURRICANE	Weather	2	1	[0, 0, 0]	n/a	catFR1	2	R1536J
310.497	1.6	439128	WORD	n/a	wordpools/wordpool_categorized_EN.txt	LILY	Flowers	3	1	[0, 0, 0]	n/a	catFR1	2	R1536J
312.096	0.85	440725	WORD_OFF	n/a	n/a	LILY	Flowers	3	1	[0, 0, 0]	n/a	catFR1	2	R1536J
312.946	1.6	441568	WORD	n/a	wordpools/wordpool_categorized_EN.txt	VIOLET	Flowers	4	1	[0, 0, 0]	n/a	catFR1	2	R1536J
314.564	0.831	443195	WORD_OFF	n/a	n/a	VIOLET	Flowers	4	1	[0, 0, 0]	n/a	catFR1	2	R1536J
315.395	1.6	444018	WORD	n/a	wordpools/wordpool_categorized_EN.txt	POTATO	Vegetables	5	1	[0, 0, 0]	n/a	catFR1	2	R1536J
316.996	0.833	445625	WORD_OFF	n/a	n/a	POTATO	Vegetables	5	1	[0, 0, 0]	n/a	catFR1	2	R1536J
317.829	1.6	446459	WORD	n/a	wordpools/wordpool_categorized_EN.txt	ONION	Vegetables	6	1	[0, 0, 0]	n/a	catFR1	2	R1536J
319.447	0.949	448076	WORD_OFF	n/a	n/a	ONION	Vegetables	6	1	[0, 0, 0]	n/a	catFR1	2	R1536J
320.396	1.6	449018	WORD	n/a	wordpools/wordpool_categorized_EN.txt	THUNDERSTORM	Weather	7	1	[0, 0, 0]	n/a	catFR1	2	R1536J
321.997	0.766	450625	WORD_OFF	n/a	n/a	THUNDERSTORM	Weather	7	1	[0, 0, 0]	n/a	catFR1	2	R1536J
322.763	1.6	451389	WORD	n/a	wordpools/wordpool_categorized_EN.txt	TORNADO	Weather	8	1	[0, 0, 0]	n/a	catFR1	2	R1536J
324.381	0.848	453006	WORD_OFF	n/a	n/a	TORNADO	Weather	8	1	[0, 0, 0]	n/a	catFR1	2	R1536J
325.229	1.6	453859	WORD	n/a	wordpools/wordpool_categorized_EN.txt	PETUNIA	Flowers	9	1	[0, 0, 0]	n/a	catFR1	2	R1536J
326.831	0.782	455456	WORD_OFF	n/a	n/a	PETUNIA	Flowers	9	1	[0, 0, 0]	n/a	catFR1	2	R1536J
327.613	1.6	456240	WORD	n/a	wordpools/wordpool_categorized_EN.txt	DAFFODIL	Flowers	10	1	[0, 0, 0]	n/a	catFR1	2	R1536J
329.231	0.833	457857	WORD_OFF	n/a	n/a	DAFFODIL	Flowers	10	1	[0, 0, 0]	n/a	catFR1	2	R1536J
330.064	1.6	458690	WORD	n/a	wordpools/wordpool_categorized_EN.txt	CORN	Vegetables	11	1	[0, 0, 0]	n/a	catFR1	2	R1536J
331.68	0.9	460307	WORD_OFF	n/a	n/a	CORN	Vegetables	11	1	[0, 0, 0]	n/a	catFR1	2	R1536J
332.58	1.6	461210	WORD	n/a	wordpools/wordpool_categorized_EN.txt	BROCCOLI	Vegetables	12	1	[0, 0, 0]	n/a	catFR1	2	R1536J
334.18	0.001	462805	PROB	3.05	n/a	n/a	n/a	-999	1	[5, 1, 1]	7.0	catFR1	2	R1536J
334.181	0.0	462806	START	n/a	n/a	n/a	n/a	-999	1	[-999, -999, -999]	n/a	catFR1	2	R1536J
334.18	0.001	462807	WORD_OFF	n/a	n/a	BROCCOLI	Vegetables	12	1	[0, 0, 0]	n/a	catFR1	2	R1536J
334.181	0.0	462807	ENCODING_END	n/a	n/a	n/a	n/a	-999	1	[0, 0, 0]	n/a	catFR1	2	R1536J
334.181	3.067	462807	DISTRACT_START	n/a	n/a	n/a	n/a	-999	1	[0, 0, 0]	n/a	catFR1	2	R1536J
337.248	4.416	465873	PROB	4.399	n/a	n/a	n/a	-999	1	[3, 6, 2]	11.0	catFR1	2	R1536J
341.664	3.166	470288	PROB	3.149	n/a	n/a	n/a	-999	1	[1, 5, 7]	13.0	catFR1	2	R1536J
344.83	2.386	473454	PROB	2.366	n/a	n/a	n/a	-999	1	[2, 1, 1]	4.0	catFR1	2	R1536J
347.216	3.448	475840	PROB	3.433	n/a	n/a	n/a	-999	1	[8, 4, 6]	18.0	catFR1	2	R1536J
350.664	10.483	479288	PROB	10.465	n/a	n/a	n/a	-999	1	[6, 5, 3]	14.0	catFR1	2	R1536J
361.147	0.0	489769	DISTRACT_END	n/a	n/a	n/a	n/a	-999	1	[0, 0, 0]	n/a	catFR1	2	R1536J
361.147	1.815	489770	STOP	n/a	n/a	n/a	n/a	-999	1	[-999, -999, -999]	n/a	catFR1	2	R1536J
362.962	1.925	491585	REC_START	n/a	n/a	n/a	n/a	-999	1	[0, 0, 0]	n/a	catFR1	2	R1536J
364.887	1.274	493510	REC_WORD	1.925	n/a	HURRICANE	Weather	2	1	[0, 0, 0]	n/a	catFR1	2	R1536J
366.161	2.647	494784	REC_WORD	3.199	n/a	THUNDERSTORM	Weather	7	1	[0, 0, 0]	n/a	catFR1	2	R1536J
368.808	1.805	497431	REC_WORD	5.846	n/a	LILY	Flowers	3	1	[0, 0, 0]	n/a	catFR1	2	R1536J
370.613	2.962	499236	REC_WORD	7.651	n/a	CAULIFLOWER	Vegetables	-999	1	[0, 0, 0]	n/a	catFR1	2	R1536J
373.575	3.464	502198	REC_WORD	10.613	n/a	CORN	Vegetables	11	1	[0, 0, 0]	n/a	catFR1	2	R1536J
377.039	5.574	505662	REC_WORD	14.077	n/a	VIOLET	Flowers	4	1	[0, 0, 0]	n/a	catFR1	2	R1536J
382.613	10.51	511235	REC_WORD_VV	19.651	n/a	<>	n/a	-999	1	[0, 0, 0]	n/a	catFR1	2	R1536J
393.123	2.307	521742	REC_END	n/a	n/a	n/a	n/a	-999	1	[0, 0, 0]	n/a	catFR1	2	R1536J
395.43	10.0	524053	COUNTDOWN_START	n/a	n/a	n/a	n/a	-999	2	[0, 0, 0]	n/a	catFR1	2	R1536J
405.78	0.0	534400	COUNTDOWN_END	n/a	n/a	n/a	n/a	-999	2	[0, 0, 0]	n/a	catFR1	2	R1536J
405.78	2.149	534400	ENCODING_START	n/a	n/a	n/a	n/a	-999	2	[0, 0, 0]	n/a	catFR1	2	R1536J
407.929	1.6	536552	WORD	n/a	wordpools/wordpool_categorized_EN.txt	FORK	KitchenTools	1	2	[0, 0, 0]	n/a	catFR1	2	R1536J
409.529	0.985	538149	WORD_OFF	n/a	n/a	FORK	KitchenTools	1	2	[0, 0, 0]	n/a	catFR1	2	R1536J
410.514	1.6	539131	WORD	n/a	wordpools/wordpool_categorized_EN.txt	PEELER	KitchenTools	2	2	[0, 0, 0]	n/a	catFR1	2	R1536J
412.13	0.85	540748	WORD_OFF	n/a	n/a	PEELER	KitchenTools	2	2	[0, 0, 0]	n/a	catFR1	2	R1536J
412.98	1.6	541601	WORD	n/a	wordpools/wordpool_categorized_EN.txt	BASKETBALL	Toys	3	2	[0, 0, 0]	n/a	catFR1	2	R1536J
414.58	0.982	543199	WORD_OFF	n/a	n/a	BASKETBALL	Toys	3	2	[0, 0, 0]	n/a	catFR1	2	R1536J
415.562	1.6	544181	WORD	n/a	wordpools/wordpool_categorized_EN.txt	BALL	Toys	4	2	[0, 0, 0]	n/a	catFR1	2	R1536J
417.163	0.966	545788	WORD_OFF	n/a	n/a	BALL	Toys	4	2	[0, 0, 0]	n/a	catFR1	2	R1536J
418.129	1.6	546750	WORD	n/a	wordpools/wordpool_categorized_EN.txt	TURKEY	FarmAnimals	5	2	[0, 0, 0]	n/a	catFR1	2	R1536J
419.73	0.85	548347	WORD_OFF	n/a	n/a	TURKEY	FarmAnimals	5	2	[0, 0, 0]	n/a	catFR1	2	R1536J
420.58	1.6	549200	WORD	n/a	wordpools/wordpool_categorized_EN.txt	ROOSTER	FarmAnimals	6	2	[0, 0, 0]	n/a	catFR1	2	R1536J
422.196	0.867	550817	WORD_OFF	n/a	n/a	ROOSTER	FarmAnimals	6	2	[0, 0, 0]	n/a	catFR1	2	R1536J
423.063	1.6	551680	WORD	n/a	wordpools/wordpool_categorized_EN.txt	WHISK	KitchenTools	7	2	[0, 0, 0]	n/a	catFR1	2	R1536J
424.663	1.0	553287	WORD_OFF	n/a	n/a	WHISK	KitchenTools	7	2	[0, 0, 0]	n/a	catFR1	2	R1536J
425.663	1.6	554289	WORD	n/a	wordpools/wordpool_categorized_EN.txt	STRAINER	KitchenTools	8	2	[0, 0, 0]	n/a	catFR1	2	R1536J
427.263	0.867	555886	WORD_OFF	n/a	n/a	STRAINER	KitchenTools	8	2	[0, 0, 0]	n/a	catFR1	2	R1536J
428.13	1.6	556749	WORD	n/a	wordpools/wordpool_categorized_EN.txt	FOOTBALL	Toys	9	2	[0, 0, 0]	n/a	catFR1	2	R1536J
429.73	0.983	558346	WORD_OFF	n/a	n/a	FOOTBALL	Toys	9	2	[0, 0, 0]	n/a	catFR1	2	R1536J
430.713	1.6	559338	WORD	n/a	wordpools/wordpool_categorized_EN.txt	DOLL	Toys	10	2	[0, 0, 0]	n/a	catFR1	2	R1536J
432.313	0.917	560935	WORD_OFF	n/a	n/a	DOLL	Toys	10	2	[0, 0, 0]	n/a	catFR1	2	R1536J
433.23	1.6	561848	WORD	n/a	wordpools/wordpool_categorized_EN.txt	SHEEP	FarmAnimals	11	2	[0, 0, 0]	n/a	catFR1	2	R1536J
434.83	0.967	563455	WORD_OFF	n/a	n/a	SHEEP	FarmAnimals	11	2	[0, 0, 0]	n/a	catFR1	2	R1536J
435.797	1.6	564417	WORD	n/a	wordpools/wordpool_categorized_EN.txt	HEN	FarmAnimals	12	2	[0, 0, 0]	n/a	catFR1	2	R1536J
437.413	0.0	566032	PROB	4.333	n/a	n/a	n/a	-999	2	[1, 3, 2]	6.0	catFR1	2	R1536J
437.413	0.001	566034	WORD_OFF	n/a	n/a	HEN	FarmAnimals	12	2	[0, 0, 0]	n/a	catFR1	2	R1536J
437.414	0.001	566034	ENCODING_END	n/a	n/a	n/a	n/a	-999	2	[0, 0, 0]	n/a	catFR1	2	R1536J
437.415	0.0	566034	DISTRACT_START	n/a	n/a	n/a	n/a	-999	2	[0, 0, 0]	n/a	catFR1	2	R1536J
437.415	4.347	566034	START	n/a	n/a	n/a	n/a	-999	2	[-999, -999, -999]	n/a	catFR1	2	R1536J
441.762	3.685	570381	PROB	3.668	n/a	n/a	n/a	-999	2	[3, 2, 7]	12.0	catFR1	2	R1536J
445.447	5.851	574066	PROB	5.833	n/a	n/a	n/a	-999	2	[4, 2, 7]	13.0	catFR1	2	R1536J
451.298	4.215	579917	PROB	4.198	n/a	n/a	n/a	-999	2	[4, 8, 4]	16.0	catFR1	2	R1536J
455.513	3.6	584131	PROB	3.583	n/a	n/a	n/a	-999	2	[8, 8, 1]	17.0	catFR1	2	R1536J
459.113	0.0	587729	DISTRACT_END	n/a	n/a	n/a	n/a	-999	2	[0, 0, 0]	n/a	catFR1	2	R1536J
459.113	1.75	587731	STOP	n/a	n/a	n/a	n/a	-999	2	[-999, -999, -999]	n/a	catFR1	2	R1536J
460.863	4.287	589485	REC_START	n/a	n/a	n/a	n/a	-999	2	[0, 0, 0]	n/a	catFR1	2	R1536J
465.15	1.718	593768	REC_WORD	4.287	n/a	FLOUR	n/a	-999	2	[0, 0, 0]	n/a	catFR1	2	R1536J
466.868	1.914	595486	REC_WORD	6.005	n/a	CORN	Vegetables	-999	2	[0, 0, 0]	n/a	catFR1	2	R1536J
468.782	4.628	597400	REC_WORD	7.919	n/a	STRAINER	KitchenTools	8	2	[0, 0, 0]	n/a	catFR1	2	R1536J
473.41	6.677	602028	REC_WORD	12.547	n/a	CAULIFLOWER	Vegetables	-999	2	[0, 0, 0]	n/a	catFR1	2	R1536J
480.087	11.0	608704	REC_WORD_VV	19.224	n/a	<>	n/a	-999	2	[0, 0, 0]	n/a	catFR1	2	R1536J
491.087	2.076	619702	REC_END	n/a	n/a	n/a	n/a	-999	2	[0, 0, 0]	n/a	catFR1	2	R1536J
493.163	10.0	621785	COUNTDOWN_START	n/a	n/a	n/a	n/a	-999	3	[0, 0, 0]	n/a	catFR1	2	R1536J
503.513	0.001	632131	COUNTDOWN_END	n/a	n/a	n/a	n/a	-999	3	[0, 0, 0]	n/a	catFR1	2	R1536J
503.514	2.084	632131	ENCODING_START	n/a	n/a	n/a	n/a	-999	3	[0, 0, 0]	n/a	catFR1	2	R1536J
505.598	1.6	634214	WORD	n/a	wordpools/wordpool_categorized_EN.txt	LEMONADE	Beverages	1	3	[0, 0, 0]	n/a	catFR1	2	R1536J
507.213	0.9	635831	WORD_OFF	n/a	n/a	LEMONADE	Beverages	1	3	[0, 0, 0]	n/a	catFR1	2	R1536J
508.113	1.6	636734	WORD	n/a	wordpools/wordpool_categorized_EN.txt	CIDER	Beverages	2	3	[0, 0, 0]	n/a	catFR1	2	R1536J
509.713	0.817	638331	WORD_OFF	n/a	n/a	CIDER	Beverages	2	3	[0, 0, 0]	n/a	catFR1	2	R1536J
510.53	1.6	639145	WORD	n/a	wordpools/wordpool_categorized_EN.txt	COMPUTER	Electronics	3	3	[0, 0, 0]	n/a	catFR1	2	R1536J
512.146	0.9	640762	WORD_OFF	n/a	n/a	COMPUTER	Electronics	3	3	[0, 0, 0]	n/a	catFR1	2	R1536J
513.046	1.6	641664	WORD	n/a	wordpools/wordpool_categorized_EN.txt	CALCULATOR	Electronics	4	3	[0, 0, 0]	n/a	catFR1	2	R1536J
514.647	0.933	643262	WORD_OFF	n/a	n/a	CALCULATOR	Electronics	4	3	[0, 0, 0]	n/a	catFR1	2	R1536J
515.58	1.6	644194	WORD	n/a	wordpools/wordpool_categorized_EN.txt	IRON	Appliances	5	3	[0, 0, 0]	n/a	catFR1	2	R1536J
517.18	0.9	645801	WORD_OFF	n/a	n/a	IRON	Appliances	5	3	[0, 0, 0]	n/a	catFR1	2	R1536J
518.08	1.6	646694	WORD	n/a	wordpools/wordpool_categorized_EN.txt	TOASTER	Appliances	6	3	[0, 0, 0]	n/a	catFR1	2	R1536J
519.696	0.817	648311	WORD_OFF	n/a	n/a	TOASTER	Appliances	6	3	[0, 0, 0]	n/a	catFR1	2	R1536J
520.513	1.6	649124	WORD	n/a	wordpools/wordpool_categorized_EN.txt	SPEAKER	Electronics	7	3	[0, 0, 0]	n/a	catFR1	2	R1536J
522.113	0.967	650731	WORD_OFF	n/a	n/a	SPEAKER	Electronics	7	3	[0, 0, 0]	n/a	catFR1	2	R1536J
523.08	1.6	651694	WORD	n/a	wordpools/wordpool_categorized_EN.txt	PRINTER	Electronics	8	3	[0, 0, 0]	n/a	catFR1	2	R1536J
524.68	0.784	653291	WORD_OFF	n/a	n/a	PRINTER	Electronics	8	3	[0, 0, 0]	n/a	catFR1	2	R1536J
525.464	1.6	654084	WORD	n/a	wordpools/wordpool_categorized_EN.txt	DISHWASHER	Appliances	9	3	[0, 0, 0]	n/a	catFR1	2	R1536J
527.08	1.001	655691	WORD_OFF	n/a	n/a	DISHWASHER	Appliances	9	3	[0, 0, 0]	n/a	catFR1	2	R1536J
528.081	1.6	656693	WORD	n/a	wordpools/wordpool_categorized_EN.txt	WASHER	Appliances	10	3	[0, 0, 0]	n/a	catFR1	2	R1536J
529.695	0.785	658310	WORD_OFF	n/a	n/a	WASHER	Appliances	10	3	[0, 0, 0]	n/a	catFR1	2	R1536J
530.48	1.6	659094	WORD	n/a	wordpools/wordpool_categorized_EN.txt	COLA	Beverages	11	3	[0, 0, 0]	n/a	catFR1	2	R1536J
532.097	0.916	660711	WORD_OFF	n/a	n/a	COLA	Beverages	11	3	[0, 0, 0]	n/a	catFR1	2	R1536J
533.013	1.6	661623	WORD	n/a	wordpools/wordpool_categorized_EN.txt	COFFEE	Beverages	12	3	[0, 0, 0]	n/a	catFR1	2	R1536J
534.63	0.0	663240	WORD_OFF	n/a	n/a	COFFEE	Beverages	12	3	[0, 0, 0]	n/a	catFR1	2	R1536J
534.63	0.001	663244	PROB	3.567	n/a	n/a	n/a	-999	3	[5, 5, 4]	14.0	catFR1	2	R1536J
534.631	0.0	663245	START	n/a	n/a	n/a	n/a	-999	3	[-999, -999, -999]	n/a	catFR1	2	R1536J
534.631	0.0	663250	ENCODING_END	n/a	n/a	n/a	n/a	-999	3	[0, 0, 0]	n/a	catFR1	2	R1536J
534.631	3.583	663250	DISTRACT_START	n/a	n/a	n/a	n/a	-999	3	[0, 0, 0]	n/a	catFR1	2	R1536J
538.214	2.649	666828	PROB	2.632	n/a	n/a	n/a	-999	3	[5, 5, 5]	15.0	catFR1	2	R1536J
540.863	2.633	669477	PROB	2.617	n/a	n/a	n/a	-999	3	[6, 2, 6]	14.0	catFR1	2	R1536J
543.496	2.951	672110	PROB	2.934	n/a	n/a	n/a	-999	3	[4, 2, 6]	12.0	catFR1	2	R1536J
546.447	3.033	675061	PROB	3.016	n/a	n/a	n/a	-999	3	[7, 5, 5]	17.0	catFR1	2	R1536J
549.48	6.0	678094	PROB	5.983	n/a	n/a	n/a	-999	3	[6, 5, 3]	14.0	catFR1	2	R1536J
555.48	0.0	684092	DISTRACT_END	n/a	n/a	n/a	n/a	-999	3	[0, 0, 0]	n/a	catFR1	2	R1536J
555.48	1.583	684093	STOP	n/a	n/a	n/a	n/a	-999	3	[-999, -999, -999]	n/a	catFR1	2	R1536J
557.063	4.038	685679	REC_START	n/a	n/a	n/a	n/a	-999	3	[0, 0, 0]	n/a	catFR1	2	R1536J
561.101	1.569	689714	REC_WORD	4.038	n/a	CORN	Vegetables	-999	3	[0, 0, 0]	n/a	catFR1	2	R1536J
562.67	3.139	691283	REC_WORD	5.607	n/a	DISHWASHER	Appliances	9	3	[0, 0, 0]	n/a	catFR1	2	R1536J
565.809	8.7	694422	REC_WORD	8.746	n/a	STRAINER	KitchenTools	-999	3	[0, 0, 0]	n/a	catFR1	2	R1536J
574.509	4.416	703121	REC_WORD	17.446	n/a	COFFEE	Beverages	12	3	[0, 0, 0]	n/a	catFR1	2	R1536J
578.925	3.717	707537	REC_WORD	21.862	n/a	COLA	Beverages	11	3	[0, 0, 0]	n/a	catFR1	2	R1536J
582.642	4.643	711254	REC_WORD_VV	25.579	n/a	<>	n/a	-999	3	[0, 0, 0]	n/a	catFR1	2	R1536J
587.285	2.462	715896	REC_END	n/a	n/a	n/a	n/a	-999	3	[0, 0, 0]	n/a	catFR1	2	R1536J
589.747	10.0	718366	COUNTDOWN_START	n/a	n/a	n/a	n/a	-999	4	[0, 0, 0]	n/a	catFR1	2	R1536J
600.097	0.0	728712	COUNTDOWN_END	n/a	n/a	n/a	n/a	-999	4	[0, 0, 0]	n/a	catFR1	2	R1536J
600.097	2.234	728712	ENCODING_START	n/a	n/a	n/a	n/a	-999	4	[0, 0, 0]	n/a	catFR1	2	R1536J
602.331	1.6	730944	WORD	n/a	wordpools/wordpool_categorized_EN.txt	CEILING	Building	1	4	[0, 0, 0]	n/a	catFR1	2	R1536J
603.947	0.9	732561	WORD_OFF	n/a	n/a	CEILING	Building	1	4	[0, 0, 0]	n/a	catFR1	2	R1536J
604.847	1.6	733454	WORD	n/a	wordpools/wordpool_categorized_EN.txt	WINDOW	Building	2	4	[0, 0, 0]	n/a	catFR1	2	R1536J
606.463	0.933	735071	WORD_OFF	n/a	n/a	WINDOW	Building	2	4	[0, 0, 0]	n/a	catFR1	2	R1536J
607.396	1.6	736004	WORD	n/a	wordpools/wordpool_categorized_EN.txt	BLUEBIRD	Birds	3	4	[0, 0, 0]	n/a	catFR1	2	R1536J
609.013	1.001	737620	WORD_OFF	n/a	n/a	BLUEBIRD	Birds	3	4	[0, 0, 0]	n/a	catFR1	2	R1536J
610.014	1.6	738622	WORD	n/a	wordpools/wordpool_categorized_EN.txt	HAWK	Birds	4	4	[0, 0, 0]	n/a	catFR1	2	R1536J
611.629	0.818	740239	WORD_OFF	n/a	n/a	HAWK	Birds	4	4	[0, 0, 0]	n/a	catFR1	2	R1536J
612.447	1.6	741053	WORD	n/a	wordpools/wordpool_categorized_EN.txt	OAK	Trees	5	4	[0, 0, 0]	n/a	catFR1	2	R1536J
614.063	0.883	742670	WORD_OFF	n/a	n/a	OAK	Trees	5	4	[0, 0, 0]	n/a	catFR1	2	R1536J
614.946	1.6	743553	WORD	n/a	wordpools/wordpool_categorized_EN.txt	WALNUT	Trees	6	4	[0, 0, 0]	n/a	catFR1	2	R1536J
616.547	0.916	745160	WORD_OFF	n/a	n/a	WALNUT	Trees	6	4	[0, 0, 0]	n/a	catFR1	2	R1536J
617.463	1.6	746072	WORD	n/a	wordpools/wordpool_categorized_EN.txt	DUCK	Birds	7	4	[0, 0, 0]	n/a	catFR1	2	R1536J
619.08	0.915	747689	WORD_OFF	n/a	n/a	DUCK	Birds	7	4	[0, 0, 0]	n/a	catFR1	2	R1536J
619.995	1.6	748602	WORD	n/a	wordpools/wordpool_categorized_EN.txt	FINCH	Birds	8	4	[0, 0, 0]	n/a	catFR1	2	R1536J
621.598	0.966	750209	WORD_OFF	n/a	n/a	FINCH	Birds	8	4	[0, 0, 0]	n/a	catFR1	2	R1536J
622.564	1.6	751171	WORD	n/a	wordpools/wordpool_categorized_EN.txt	ATTIC	Building	9	4	[0, 0, 0]	n/a	catFR1	2	R1536J
624.18	0.983	752788	WORD_OFF	n/a	n/a	ATTIC	Building	9	4	[0, 0, 0]	n/a	catFR1	2	R1536J
625.163	1.6	753770	WORD	n/a	wordpools/wordpool_categorized_EN.txt	STAIRS	Building	10	4	[0, 0, 0]	n/a	catFR1	2	R1536J
626.78	0.849	755387	WORD_OFF	n/a	n/a	STAIRS	Building	10	4	[0, 0, 0]	n/a	catFR1	2	R1536J
627.629	1.6	756240	WORD	n/a	wordpools/wordpool_categorized_EN.txt	EVERGREEN	Trees	11	4	[0, 0, 0]	n/a	catFR1	2	R1536J
629.23	0.882	757837	WORD_OFF	n/a	n/a	EVERGREEN	Trees	11	4	[0, 0, 0]	n/a	catFR1	2	R1536J
630.112	1.6	758720	WORD	n/a	wordpools/wordpool_categorized_EN.txt	CYPRESS	Trees	12	4	[0, 0, 0]	n/a	catFR1	2	R1536J
631.713	0.002	760322	PROB	5.233	n/a	n/a	n/a	-999	4	[7, 4, 6]	17.0	catFR1	2	R1536J
631.715	0.0	760324	START	n/a	n/a	n/a	n/a	-999	4	[-999, -999, -999]	n/a	catFR1	2	R1536J
631.714	0.001	760327	WORD_OFF	n/a	n/a	CYPRESS	Trees	12	4	[0, 0, 0]	n/a	catFR1	2	R1536J
631.715	0.0	760337	ENCODING_END	n/a	n/a	n/a	n/a	-999	4	[0, 0, 0]	n/a	catFR1	2	R1536J
631.715	5.247	760337	DISTRACT_START	n/a	n/a	n/a	n/a	-999	4	[0, 0, 0]	n/a	catFR1	2	R1536J
636.962	4.719	765571	PROB	4.701	n/a	n/a	n/a	-999	4	[3, 8, 8]	19.0	catFR1	2	R1536J
641.681	2.716	770290	PROB	2.698	n/a	n/a	n/a	-999	4	[5, 8, 5]	18.0	catFR1	2	R1536J
644.397	3.6	773006	PROB	3.583	n/a	n/a	n/a	-999	4	[4, 2, 6]	12.0	catFR1	2	R1536J
647.997	4.916	776605	PROB	4.899	n/a	n/a	n/a	-999	4	[5, 4, 8]	17.0	catFR1	2	R1536J
652.913	0.0	781521	STOP	n/a	n/a	n/a	n/a	-999	4	[-999, -999, -999]	n/a	catFR1	2	R1536J
652.913	1.851	781526	DISTRACT_END	n/a	n/a	n/a	n/a	-999	4	[0, 0, 0]	n/a	catFR1	2	R1536J
654.764	1.693	783371	REC_START	n/a	n/a	n/a	n/a	-999	4	[0, 0, 0]	n/a	catFR1	2	R1536J
656.457	1.847	785065	REC_WORD	1.693	n/a	FINCH	Birds	8	4	[0, 0, 0]	n/a	catFR1	2	R1536J
658.304	2.296	786912	REC_WORD	3.54	n/a	CYPRESS	Trees	12	4	[0, 0, 0]	n/a	catFR1	2	R1536J
660.6	2.228	789208	REC_WORD	5.836	n/a	ATTIC	Building	9	4	[0, 0, 0]	n/a	catFR1	2	R1536J
662.828	1.0	791436	REC_WORD	8.064	n/a	STAIRS	Building	10	4	[0, 0, 0]	n/a	catFR1	2	R1536J
663.828	1.63	792436	REC_WORD_VV	9.064	n/a	<>	n/a	-999	4	[0, 0, 0]	n/a	catFR1	2	R1536J
665.458	2.571	794065	REC_WORD	10.694	n/a	CEILING	Building	1	4	[0, 0, 0]	n/a	catFR1	2	R1536J
668.029	3.551	796636	REC_WORD	13.265	n/a	WINDOW	Building	2	4	[0, 0, 0]	n/a	catFR1	2	R1536J
671.58	4.205	800187	REC_WORD	16.816	n/a	VIOLET	Flowers	-999	4	[0, 0, 0]	n/a	catFR1	2	R1536J
675.785	3.111	804392	REC_WORD	21.021	n/a	CYPRESS	Trees	12	4	[0, 0, 0]	n/a	catFR1	2	R1536J
678.896	6.093	807503	REC_WORD_VV	24.132	n/a	<>	n/a	-999	4	[0, 0, 0]	n/a	catFR1	2	R1536J
684.989	1.774	813598	REC_END	n/a	n/a	n/a	n/a	-999	4	[0, 0, 0]	n/a	catFR1	2	R1536J
686.763	10.0	815373	COUNTDOWN_START	n/a	n/a	n/a	n/a	-999	5	[0, 0, 0]	n/a	catFR1	2	R1536J
697.113	0.0	825720	COUNTDOWN_END	n/a	n/a	n/a	n/a	-999	5	[0, 0, 0]	n/a	catFR1	2	R1536J
697.113	2.101	825720	ENCODING_START	n/a	n/a	n/a	n/a	-999	5	[0, 0, 0]	n/a	catFR1	2	R1536J
699.214	1.6	827823	WORD	n/a	wordpools/wordpool_categorized_EN.txt	HALLWAY	Building	1	5	[0, 0, 0]	n/a	catFR1	2	R1536J
700.83	0.933	829440	WORD_OFF	n/a	n/a	HALLWAY	Building	1	5	[0, 0, 0]	n/a	catFR1	2	R1536J
701.763	1.6	830372	WORD	n/a	wordpools/wordpool_categorized_EN.txt	DOOR	Building	2	5	[0, 0, 0]	n/a	catFR1	2	R1536J
703.379	0.785	831989	WORD_OFF	n/a	n/a	DOOR	Building	2	5	[0, 0, 0]	n/a	catFR1	2	R1536J
704.164	1.6	832773	WORD	n/a	wordpools/wordpool_categorized_EN.txt	PENCIL	OfficeSupplies	3	5	[0, 0, 0]	n/a	catFR1	2	R1536J
705.779	1.001	834390	WORD_OFF	n/a	n/a	PENCIL	OfficeSupplies	3	5	[0, 0, 0]	n/a	catFR1	2	R1536J
706.78	1.6	835382	WORD	n/a	wordpools/wordpool_categorized_EN.txt	PAPER	OfficeSupplies	4	5	[0, 0, 0]	n/a	catFR1	2	R1536J
708.396	0.834	836999	WORD_OFF	n/a	n/a	PAPER	OfficeSupplies	4	5	[0, 0, 0]	n/a	catFR1	2	R1536J
709.23	1.6	837832	WORD	n/a	wordpools/wordpool_categorized_EN.txt	STREAM	Landscapes	5	5	[0, 0, 0]	n/a	catFR1	2	R1536J
710.847	0.882	839449	WORD_OFF	n/a	n/a	STREAM	Landscapes	5	5	[0, 0, 0]	n/a	catFR1	2	R1536J
711.729	1.6	840332	WORD	n/a	wordpools/wordpool_categorized_EN.txt	BEACH	Landscapes	6	5	[0, 0, 0]	n/a	catFR1	2	R1536J
713.33	0.816	841939	WORD_OFF	n/a	n/a	BEACH	Landscapes	6	5	[0, 0, 0]	n/a	catFR1	2	R1536J
714.146	1.6	842753	WORD	n/a	wordpools/wordpool_categorized_EN.txt	MARKER	OfficeSupplies	7	5	[0, 0, 0]	n/a	catFR1	2	R1536J
715.747	0.899	844350	WORD_OFF	n/a	n/a	MARKER	OfficeSupplies	7	5	[0, 0, 0]	n/a	catFR1	2	R1536J
716.646	1.6	845252	WORD	n/a	wordpools/wordpool_categorized_EN.txt	GLUE	OfficeSupplies	8	5	[0, 0, 0]	n/a	catFR1	2	R1536J
718.247	0.883	846850	WORD_OFF	n/a	n/a	GLUE	OfficeSupplies	8	5	[0, 0, 0]	n/a	catFR1	2	R1536J
719.13	1.6	847732	WORD	n/a	wordpools/wordpool_categorized_EN.txt	MOUNTAIN	Landscapes	9	5	[0, 0, 0]	n/a	catFR1	2	R1536J
720.73	0.817	849339	WORD_OFF	n/a	n/a	MOUNTAIN	Landscapes	9	5	[0, 0, 0]	n/a	catFR1	2	R1536J
721.547	1.6	850153	WORD	n/a	wordpools/wordpool_categorized_EN.txt	HILLS	Landscapes	10	5	[0, 0, 0]	n/a	catFR1	2	R1536J
723.162	0.984	851770	WORD_OFF	n/a	n/a	HILLS	Landscapes	10	5	[0, 0, 0]	n/a	catFR1	2	R1536J
724.146	1.6	852752	WORD	n/a	wordpools/wordpool_categorized_EN.txt	WALL	Building	11	5	[0, 0, 0]	n/a	catFR1	2	R1536J
725.762	0.834	854369	WORD_OFF	n/a	n/a	WALL	Building	11	5	[0, 0, 0]	n/a	catFR1	2	R1536J
726.596	1.6	855202	WORD	n/a	wordpools/wordpool_categorized_EN.txt	FOUNDATION	Building	12	5	[0, 0, 0]	n/a	catFR1	2	R1536J
728.197	0.001	856799	WORD_OFF	n/a	n/a	FOUNDATION	Building	12	5	[0, 0, 0]	n/a	catFR1	2	R1536J
728.198	0.0	856799	ENCODING_END	n/a	n/a	n/a	n/a	-999	5	[0, 0, 0]	n/a	catFR1	2	R1536J
728.198	0.001	856802	START	n/a	n/a	n/a	n/a	-999	5	[-999, -999, -999]	n/a	catFR1	2	R1536J
728.199	0.0	856803	PROB	3.699	n/a	n/a	n/a	-999	5	[7, 7, 2]	16.0	catFR1	2	R1536J
728.198	3.715	856809	DISTRACT_START	n/a	n/a	n/a	n/a	-999	5	[0, 0, 0]	n/a	catFR1	2	R1536J
731.913	2.335	860517	PROB	2.317	n/a	n/a	n/a	-999	5	[5, 5, 1]	11.0	catFR1	2	R1536J
734.248	2.549	862852	PROB	2.533	n/a	n/a	n/a	-999	5	[1, 5, 6]	12.0	catFR1	2	R1536J
736.797	2.901	865401	PROB	2.882	n/a	n/a	n/a	-999	5	[4, 7, 3]	14.0	catFR1	2	R1536J
739.698	3.382	868302	PROB	3.365	n/a	n/a	n/a	-999	5	[5, 4, 7]	16.0	catFR1	2	R1536J
743.08	4.15	871683	PROB	4.133	n/a	n/a	n/a	-999	5	[6, 3, 8]	17.0	catFR1	2	R1536J
747.23	4.449	875833	PROB	4.433	n/a	n/a	n/a	-999	5	[3, 4, 8]	15.0	catFR1	2	R1536J
751.679	0.0	880280	DISTRACT_END	n/a	n/a	n/a	n/a	-999	5	[0, 0, 0]	n/a	catFR1	2	R1536J
751.679	1.617	880282	STOP	n/a	n/a	n/a	n/a	-999	5	[-999, -999, -999]	n/a	catFR1	2	R1536J
753.296	3.572	881897	REC_START	n/a	n/a	n/a	n/a	-999	5	[0, 0, 0]	n/a	catFR1	2	R1536J
756.868	1.208	885471	REC_WORD	3.572	n/a	DOOR	Building	2	5	[0, 0, 0]	n/a	catFR1	2	R1536J
758.076	9.733	886679	REC_WORD	4.78	n/a	HALLWAY	Building	1	5	[0, 0, 0]	n/a	catFR1	2	R1536J
767.809	1.325	896411	REC_WORD	14.513	n/a	FLOOR	n/a	-999	5	[0, 0, 0]	n/a	catFR1	2	R1536J
769.134	2.65	897736	REC_WORD	15.838	n/a	WINDOW	Building	-999	5	[0, 0, 0]	n/a	catFR1	2	R1536J
771.784	2.916	900386	REC_WORD	18.488	n/a	PAPER	OfficeSupplies	4	5	[0, 0, 0]	n/a	catFR1	2	R1536J
774.7	4.04	903302	REC_WORD	21.404	n/a	PENCIL	OfficeSupplies	3	5	[0, 0, 0]	n/a	catFR1	2	R1536J
778.74	2.456	907341	REC_WORD	25.444	n/a	MARKER	OfficeSupplies	7	5	[0, 0, 0]	n/a	catFR1	2	R1536J
781.196	2.324	909797	REC_WORD_VV	27.9	n/a	<>	n/a	-999	5	[0, 0, 0]	n/a	catFR1	2	R1536J
783.52	1.843	912123	REC_END	n/a	n/a	n/a	n/a	-999	5	[0, 0, 0]	n/a	catFR1	2	R1536J
785.363	10.0	913968	COUNTDOWN_START	n/a	n/a	n/a	n/a	-999	6	[0, 0, 0]	n/a	catFR1	2	R1536J
795.714	0.0	924315	COUNTDOWN_END	n/a	n/a	n/a	n/a	-999	6	[0, 0, 0]	n/a	catFR1	2	R1536J
795.714	2.149	924315	ENCODING_START	n/a	n/a	n/a	n/a	-999	6	[0, 0, 0]	n/a	catFR1	2	R1536J
797.863	1.6	926467	WORD	n/a	wordpools/wordpool_categorized_EN.txt	DRYER	Appliances	1	6	[0, 0, 0]	n/a	catFR1	2	R1536J
799.48	0.85	928084	WORD_OFF	n/a	n/a	DRYER	Appliances	1	6	[0, 0, 0]	n/a	catFR1	2	R1536J
800.33	1.6	928928	WORD	n/a	wordpools/wordpool_categorized_EN.txt	BLENDER	Appliances	2	6	[0, 0, 0]	n/a	catFR1	2	R1536J
801.93	0.867	930535	WORD_OFF	n/a	n/a	BLENDER	Appliances	2	6	[0, 0, 0]	n/a	catFR1	2	R1536J
802.797	1.6	931398	WORD	n/a	wordpools/wordpool_categorized_EN.txt	LADLE	KitchenTools	3	6	[0, 0, 0]	n/a	catFR1	2	R1536J
804.397	0.848	932995	WORD_OFF	n/a	n/a	LADLE	KitchenTools	3	6	[0, 0, 0]	n/a	catFR1	2	R1536J
805.245	1.6	933848	WORD	n/a	wordpools/wordpool_categorized_EN.txt	GRATER	KitchenTools	4	6	[0, 0, 0]	n/a	catFR1	2	R1536J
806.846	0.817	935445	WORD_OFF	n/a	n/a	GRATER	KitchenTools	4	6	[0, 0, 0]	n/a	catFR1	2	R1536J
807.663	1.6	936258	WORD	n/a	wordpools/wordpool_categorized_EN.txt	FRISBEE	Toys	5	6	[0, 0, 0]	n/a	catFR1	2	R1536J
809.281	0.815	937885	WORD_OFF	n/a	n/a	FRISBEE	Toys	5	6	[0, 0, 0]	n/a	catFR1	2	R1536J
810.096	1.6	938699	WORD	n/a	wordpools/wordpool_categorized_EN.txt	MARBLES	Toys	6	6	[0, 0, 0]	n/a	catFR1	2	R1536J
811.713	0.867	940316	WORD_OFF	n/a	n/a	MARBLES	Toys	6	6	[0, 0, 0]	n/a	catFR1	2	R1536J
812.58	1.6	941179	WORD	n/a	wordpools/wordpool_categorized_EN.txt	CORKSCREW	KitchenTools	7	6	[0, 0, 0]	n/a	catFR1	2	R1536J
814.18	1.0	942776	WORD_OFF	n/a	n/a	CORKSCREW	KitchenTools	7	6	[0, 0, 0]	n/a	catFR1	2	R1536J
815.18	1.6	943778	WORD	n/a	wordpools/wordpool_categorized_EN.txt	TONGS	KitchenTools	8	6	[0, 0, 0]	n/a	catFR1	2	R1536J
816.78	0.933	945385	WORD_OFF	n/a	n/a	TONGS	KitchenTools	8	6	[0, 0, 0]	n/a	catFR1	2	R1536J
817.713	1.6	946317	WORD	n/a	wordpools/wordpool_categorized_EN.txt	BARBIE	Toys	9	6	[0, 0, 0]	n/a	catFR1	2	R1536J
819.313	0.867	947914	WORD_OFF	n/a	n/a	BARBIE	Toys	9	6	[0, 0, 0]	n/a	catFR1	2	R1536J
820.18	1.6	948777	WORD	n/a	wordpools/wordpool_categorized_EN.txt	BASEBALL	Toys	10	6	[0, 0, 0]	n/a	catFR1	2	R1536J
821.796	0.9	950394	WORD_OFF	n/a	n/a	BASEBALL	Toys	10	6	[0, 0, 0]	n/a	catFR1	2	R1536J
822.696	1.6	951297	WORD	n/a	wordpools/wordpool_categorized_EN.txt	FREEZER	Appliances	11	6	[0, 0, 0]	n/a	catFR1	2	R1536J
824.296	0.9	952894	WORD_OFF	n/a	n/a	FREEZER	Appliances	11	6	[0, 0, 0]	n/a	catFR1	2	R1536J
825.196	1.6	953797	WORD	n/a	wordpools/wordpool_categorized_EN.txt	REFRIGERATOR	Appliances	12	6	[0, 0, 0]	n/a	catFR1	2	R1536J
826.797	0.002	955394	WORD_OFF	n/a	n/a	REFRIGERATOR	Appliances	12	6	[0, 0, 0]	n/a	catFR1	2	R1536J
826.799	0.0	955394	ENCODING_END	n/a	n/a	n/a	n/a	-999	6	[0, 0, 0]	n/a	catFR1	2	R1536J
826.797	0.002	955396	PROB	5.549	n/a	n/a	n/a	-999	6	[8, 7, 8]	23.0	catFR1	2	R1536J
826.799	0.0	955398	START	n/a	n/a	n/a	n/a	-999	6	[-999, -999, -999]	n/a	catFR1	2	R1536J
826.799	5.565	955404	DISTRACT_START	n/a	n/a	n/a	n/a	-999	6	[0, 0, 0]	n/a	catFR1	2	R1536J
832.364	6.583	960963	PROB	6.566	n/a	n/a	n/a	-999	6	[7, 6, 2]	15.0	catFR1	2	R1536J
838.947	5.467	967545	PROB	5.449	n/a	n/a	n/a	-999	6	[4, 2, 8]	14.0	catFR1	2	R1536J
844.414	3.866	973012	PROB	3.849	n/a	n/a	n/a	-999	6	[7, 1, 3]	11.0	catFR1	2	R1536J
848.28	0.0	976878	STOP	n/a	n/a	n/a	n/a	-999	6	[-999, -999, -999]	n/a	catFR1	2	R1536J
848.28	1.732	976881	DISTRACT_END	n/a	n/a	n/a	n/a	-999	6	[0, 0, 0]	n/a	catFR1	2	R1536J
850.012	2.758	978607	REC_START	n/a	n/a	n/a	n/a	-999	6	[0, 0, 0]	n/a	catFR1	2	R1536J
852.77	2.441	981368	REC_WORD_VV	2.758	n/a	<>	n/a	-999	6	[0, 0, 0]	n/a	catFR1	2	R1536J
855.211	2.302	983808	REC_WORD	5.199	n/a	DRYER	Appliances	1	6	[0, 0, 0]	n/a	catFR1	2	R1536J
857.513	5.377	986110	REC_WORD	7.501	n/a	PAPER	OfficeSupplies	-999	6	[0, 0, 0]	n/a	catFR1	2	R1536J
862.89	3.56	991487	REC_WORD	12.878	n/a	MARKER	OfficeSupplies	-999	6	[0, 0, 0]	n/a	catFR1	2	R1536J
866.45	13.771	995047	REC_WORD_VV	16.438	n/a	<>	n/a	-999	6	[0, 0, 0]	n/a	catFR1	2	R1536J
880.221	1.925	1008813	REC_END	n/a	n/a	n/a	n/a	-999	6	[0, 0, 0]	n/a	catFR1	2	R1536J
882.146	10.0	1010748	COUNTDOWN_START	n/a	n/a	n/a	n/a	-999	7	[0, 0, 0]	n/a	catFR1	2	R1536J
892.497	0.0	1021094	COUNTDOWN_END	n/a	n/a	n/a	n/a	-999	7	[0, 0, 0]	n/a	catFR1	2	R1536J
892.497	2.1	1021094	ENCODING_START	n/a	n/a	n/a	n/a	-999	7	[0, 0, 0]	n/a	catFR1	2	R1536J
894.597	1.6	1023197	WORD	n/a	wordpools/wordpool_categorized_EN.txt	SKIRT	Clothing	1	7	[0, 0, 0]	n/a	catFR1	2	R1536J
896.213	0.783	1024804	WORD_OFF	n/a	n/a	SKIRT	Clothing	1	7	[0, 0, 0]	n/a	catFR1	2	R1536J
896.996	1.6	1025598	WORD	n/a	wordpools/wordpool_categorized_EN.txt	SOCKS	Clothing	2	7	[0, 0, 0]	n/a	catFR1	2	R1536J
898.597	0.85	1027195	WORD_OFF	n/a	n/a	SOCKS	Clothing	2	7	[0, 0, 0]	n/a	catFR1	2	R1536J
899.447	1.6	1028038	WORD	n/a	wordpools/wordpool_categorized_EN.txt	OCEAN	Landscapes	3	7	[0, 0, 0]	n/a	catFR1	2	R1536J
901.047	0.983	1029645	WORD_OFF	n/a	n/a	OCEAN	Landscapes	3	7	[0, 0, 0]	n/a	catFR1	2	R1536J
902.03	1.6	1030627	WORD	n/a	wordpools/wordpool_categorized_EN.txt	WOODS	Landscapes	4	7	[0, 0, 0]	n/a	catFR1	2	R1536J
903.631	0.765	1032224	WORD_OFF	n/a	n/a	WOODS	Landscapes	4	7	[0, 0, 0]	n/a	catFR1	2	R1536J
904.396	1.6	1032988	WORD	n/a	wordpools/wordpool_categorized_EN.txt	MOPED	Vehicles	5	7	[0, 0, 0]	n/a	catFR1	2	R1536J
905.997	0.816	1034595	WORD_OFF	n/a	n/a	MOPED	Vehicles	5	7	[0, 0, 0]	n/a	catFR1	2	R1536J
906.813	1.6	1035409	WORD	n/a	wordpools/wordpool_categorized_EN.txt	PLANE	Vehicles	6	7	[0, 0, 0]	n/a	catFR1	2	R1536J
908.43	0.915	1037026	WORD_OFF	n/a	n/a	PLANE	Vehicles	6	7	[0, 0, 0]	n/a	catFR1	2	R1536J
909.345	1.6	1037938	WORD	n/a	wordpools/wordpool_categorized_EN.txt	VALLEY	Landscapes	7	7	[0, 0, 0]	n/a	catFR1	2	R1536J
910.947	0.884	1039545	WORD_OFF	n/a	n/a	VALLEY	Landscapes	7	7	[0, 0, 0]	n/a	catFR1	2	R1536J
911.831	1.6	1040428	WORD	n/a	wordpools/wordpool_categorized_EN.txt	ISLAND	Landscapes	8	7	[0, 0, 0]	n/a	catFR1	2	R1536J
913.446	0.783	1042045	WORD_OFF	n/a	n/a	ISLAND	Landscapes	8	7	[0, 0, 0]	n/a	catFR1	2	R1536J
914.229	1.6	1042819	WORD	n/a	wordpools/wordpool_categorized_EN.txt	JEEP	Vehicles	9	7	[0, 0, 0]	n/a	catFR1	2	R1536J
915.829	0.817	1044426	WORD_OFF	n/a	n/a	JEEP	Vehicles	9	7	[0, 0, 0]	n/a	catFR1	2	R1536J
916.646	1.6	1045239	WORD	n/a	wordpools/wordpool_categorized_EN.txt	TRAIN	Vehicles	10	7	[0, 0, 0]	n/a	catFR1	2	R1536J
918.247	0.767	1046847	WORD_OFF	n/a	n/a	TRAIN	Vehicles	10	7	[0, 0, 0]	n/a	catFR1	2	R1536J
919.014	1.6	1047610	WORD	n/a	wordpools/wordpool_categorized_EN.txt	BLOUSE	Clothing	11	7	[0, 0, 0]	n/a	catFR1	2	R1536J
920.629	0.966	1049227	WORD_OFF	n/a	n/a	BLOUSE	Clothing	11	7	[0, 0, 0]	n/a	catFR1	2	R1536J
921.595	1.6	1050190	WORD	n/a	wordpools/wordpool_categorized_EN.txt	SHORTS	Clothing	12	7	[0, 0, 0]	n/a	catFR1	2	R1536J
923.197	0.0	1051787	WORD_OFF	n/a	n/a	SHORTS	Clothing	12	7	[0, 0, 0]	n/a	catFR1	2	R1536J
923.197	0.002	1051791	PROB	5.25	n/a	n/a	n/a	-999	7	[4, 7, 4]	15.0	catFR1	2	R1536J
923.199	0.0	1051793	START	n/a	n/a	n/a	n/a	-999	7	[-999, -999, -999]	n/a	catFR1	2	R1536J
923.199	0.0	1051797	ENCODING_END	n/a	n/a	n/a	n/a	-999	7	[0, 0, 0]	n/a	catFR1	2	R1536J
923.199	5.265	1051797	DISTRACT_START	n/a	n/a	n/a	n/a	-999	7	[0, 0, 0]	n/a	catFR1	2	R1536J
928.464	2.833	1057058	PROB	2.816	n/a	n/a	n/a	-999	7	[4, 8, 2]	14.0	catFR1	2	R1536J
931.297	5.433	1059890	PROB	5.416	n/a	n/a	n/a	-999	7	[5, 3, 3]	11.0	catFR1	2	R1536J
936.73	3.167	1065323	PROB	3.15	n/a	n/a	n/a	-999	7	[3, 2, 3]	8.0	catFR1	2	R1536J
939.897	3.816	1068490	PROB	3.799	n/a	n/a	n/a	-999	7	[2, 4, 4]	10.0	catFR1	2	R1536J
943.713	0.0	1072301	DISTRACT_END	n/a	n/a	n/a	n/a	-999	7	[0, 0, 0]	n/a	catFR1	2	R1536J
943.713	1.533	1072306	STOP	n/a	n/a	n/a	n/a	-999	7	[-999, -999, -999]	n/a	catFR1	2	R1536J
945.246	3.392	1073839	REC_START	n/a	n/a	n/a	n/a	-999	7	[0, 0, 0]	n/a	catFR1	2	R1536J
948.638	1.733	1077231	REC_WORD	3.392	n/a	SKIRT	Clothing	1	7	[0, 0, 0]	n/a	catFR1	2	R1536J
950.371	1.757	1078963	REC_WORD	5.125	n/a	BLOUSE	Clothing	11	7	[0, 0, 0]	n/a	catFR1	2	R1536J
952.128	5.113	1080720	REC_WORD	6.882	n/a	MOPED	Vehicles	5	7	[0, 0, 0]	n/a	catFR1	2	R1536J
957.241	2.725	1085833	REC_WORD	11.995	n/a	SOCKS	Clothing	2	7	[0, 0, 0]	n/a	catFR1	2	R1536J
959.966	4.155	1088558	REC_WORD	14.72	n/a	DRESS	n/a	-999	7	[0, 0, 0]	n/a	catFR1	2	R1536J
964.121	11.353	1092713	REC_WORD_VV	18.875	n/a	<>	n/a	-999	7	[0, 0, 0]	n/a	catFR1	2	R1536J
975.474	2.038	1104065	REC_END	n/a	n/a	n/a	n/a	-999	7	[0, 0, 0]	n/a	catFR1	2	R1536J
977.512	10.0	1106109	COUNTDOWN_START	n/a	n/a	n/a	n/a	-999	8	[0, 0, 0]	n/a	catFR1	2	R1536J
987.862	0.001	1116455	COUNTDOWN_END	n/a	n/a	n/a	n/a	-999	8	[0, 0, 0]	n/a	catFR1	2	R1536J
987.863	2.068	1116455	ENCODING_START	n/a	n/a	n/a	n/a	-999	8	[0, 0, 0]	n/a	catFR1	2	R1536J
989.931	1.6	1118518	WORD	n/a	wordpools/wordpool_categorized_EN.txt	SHELF	Furniture	1	8	[0, 0, 0]	n/a	catFR1	2	R1536J
991.547	0.916	1120135	WORD_OFF	n/a	n/a	SHELF	Furniture	1	8	[0, 0, 0]	n/a	catFR1	2	R1536J
992.463	1.6	1121058	WORD	n/a	wordpools/wordpool_categorized_EN.txt	RECLINER	Furniture	2	8	[0, 0, 0]	n/a	catFR1	2	R1536J
994.063	1.001	1122655	WORD_OFF	n/a	n/a	RECLINER	Furniture	2	8	[0, 0, 0]	n/a	catFR1	2	R1536J
995.064	1.6	1123657	WORD	n/a	wordpools/wordpool_categorized_EN.txt	BLOCKS	Toys	3	8	[0, 0, 0]	n/a	catFR1	2	R1536J
996.664	0.816	1125254	WORD_OFF	n/a	n/a	BLOCKS	Toys	3	8	[0, 0, 0]	n/a	catFR1	2	R1536J
997.48	1.6	1126068	WORD	n/a	wordpools/wordpool_categorized_EN.txt	SLINKY	Toys	4	8	[0, 0, 0]	n/a	catFR1	2	R1536J
999.096	0.833	1127685	WORD_OFF	n/a	n/a	SLINKY	Toys	4	8	[0, 0, 0]	n/a	catFR1	2	R1536J
999.929	1.6	1128518	WORD	n/a	wordpools/wordpool_categorized_EN.txt	PANTS	Clothing	5	8	[0, 0, 0]	n/a	catFR1	2	R1536J
1001.531	0.815	1130125	WORD_OFF	n/a	n/a	PANTS	Clothing	5	8	[0, 0, 0]	n/a	catFR1	2	R1536J
1002.346	1.6	1130938	WORD	n/a	wordpools/wordpool_categorized_EN.txt	JEANS	Clothing	6	8	[0, 0, 0]	n/a	catFR1	2	R1536J
1003.963	1.0	1132555	WORD_OFF	n/a	n/a	JEANS	Clothing	6	8	[0, 0, 0]	n/a	catFR1	2	R1536J
1004.963	1.6	1133557	WORD	n/a	wordpools/wordpool_categorized_EN.txt	PUZZLE	Toys	7	8	[0, 0, 0]	n/a	catFR1	2	R1536J
1006.563	0.9	1135154	WORD_OFF	n/a	n/a	PUZZLE	Toys	7	8	[0, 0, 0]	n/a	catFR1	2	R1536J
1007.463	1.6	1136057	WORD	n/a	wordpools/wordpool_categorized_EN.txt	DOLLHOUSE	Toys	8	8	[0, 0, 0]	n/a	catFR1	2	R1536J
1009.063	1.0	1137654	WORD_OFF	n/a	n/a	DOLLHOUSE	Toys	8	8	[0, 0, 0]	n/a	catFR1	2	R1536J
1010.063	1.6	1138656	WORD	n/a	wordpools/wordpool_categorized_EN.txt	SHIRT	Clothing	9	8	[0, 0, 0]	n/a	catFR1	2	R1536J
1011.664	0.866	1140253	WORD_OFF	n/a	n/a	SHIRT	Clothing	9	8	[0, 0, 0]	n/a	catFR1	2	R1536J
1012.53	1.6	1141116	WORD	n/a	wordpools/wordpool_categorized_EN.txt	DRESS	Clothing	10	8	[0, 0, 0]	n/a	catFR1	2	R1536J
1014.145	0.868	1142733	WORD_OFF	n/a	n/a	DRESS	Clothing	10	8	[0, 0, 0]	n/a	catFR1	2	R1536J
1015.013	1.6	1143606	WORD	n/a	wordpools/wordpool_categorized_EN.txt	BOOKCASE	Furniture	11	8	[0, 0, 0]	n/a	catFR1	2	R1536J
1016.629	1.0	1145223	WORD_OFF	n/a	n/a	BOOKCASE	Furniture	11	8	[0, 0, 0]	n/a	catFR1	2	R1536J
1017.629	1.6	1146215	WORD	n/a	wordpools/wordpool_categorized_EN.txt	DESK	Furniture	12	8	[0, 0, 0]	n/a	catFR1	2	R1536J
1019.247	0.001	1147832	WORD_OFF	n/a	n/a	DESK	Furniture	12	8	[0, 0, 0]	n/a	catFR1	2	R1536J
1019.248	0.001	1147837	PROB	4.899	n/a	n/a	n/a	-999	8	[5, 8, 4]	17.0	catFR1	2	R1536J
1019.249	0.0	1147838	START	n/a	n/a	n/a	n/a	-999	8	[-999, -999, -999]	n/a	catFR1	2	R1536J
1019.249	0.0	1147842	ENCODING_END	n/a	n/a	n/a	n/a	-999	8	[0, 0, 0]	n/a	catFR1	2	R1536J
1019.249	4.914	1147842	DISTRACT_START	n/a	n/a	n/a	n/a	-999	8	[0, 0, 0]	n/a	catFR1	2	R1536J
1024.163	2.617	1152752	PROB	2.599	n/a	n/a	n/a	-999	8	[4, 2, 5]	11.0	catFR1	2	R1536J
1026.78	3.484	1155368	PROB	3.465	n/a	n/a	n/a	-999	8	[4, 2, 6]	12.0	catFR1	2	R1536J
1030.264	3.883	1158852	PROB	3.866	n/a	n/a	n/a	-999	8	[7, 7, 6]	20.0	catFR1	2	R1536J
1034.147	2.683	1162735	PROB	2.666	n/a	n/a	n/a	-999	8	[1, 5, 1]	7.0	catFR1	2	R1536J
1036.83	3.066	1165418	PROB	3.049	n/a	n/a	n/a	-999	8	[3, 3, 4]	9.0	catFR1	2	R1536J
1039.896	0.0	1168484	STOP	n/a	n/a	n/a	n/a	-999	8	[-999, -999, -999]	n/a	catFR1	2	R1536J
1039.896	1.583	1168485	DISTRACT_END	n/a	n/a	n/a	n/a	-999	8	[0, 0, 0]	n/a	catFR1	2	R1536J
1041.479	1.464	1170063	REC_START	n/a	n/a	n/a	n/a	-999	8	[0, 0, 0]	n/a	catFR1	2	R1536J
1042.943	0.544	1171531	REC_WORD	1.464	n/a	SHIRT	Clothing	9	8	[0, 0, 0]	n/a	catFR1	2	R1536J
1043.487	0.786	1172075	REC_WORD_VV	2.008	n/a	<>	n/a	-999	8	[0, 0, 0]	n/a	catFR1	2	R1536J
1044.273	5.296	1172861	REC_WORD	2.794	n/a	BLOUSE	Clothing	-999	8	[0, 0, 0]	n/a	catFR1	2	R1536J
1049.569	1.363	1178156	REC_WORD	8.09	n/a	BLOCKS	Toys	3	8	[0, 0, 0]	n/a	catFR1	2	R1536J
1050.932	2.941	1179519	REC_WORD	9.453	n/a	DOLLHOUSE	Toys	8	8	[0, 0, 0]	n/a	catFR1	2	R1536J
1053.873	4.009	1182460	REC_WORD	12.394	n/a	SKIRT	Clothing	-999	8	[0, 0, 0]	n/a	catFR1	2	R1536J
1057.882	3.111	1186469	REC_WORD	16.403	n/a	SHELF	Furniture	1	8	[0, 0, 0]	n/a	catFR1	2	R1536J
1060.993	10.696	1189580	REC_WORD_VV	19.514	n/a	<>	n/a	-999	8	[0, 0, 0]	n/a	catFR1	2	R1536J
1071.689	1.691	1200279	REC_END	n/a	n/a	n/a	n/a	-999	8	[0, 0, 0]	n/a	catFR1	2	R1536J
1073.38	10.0	1201965	COUNTDOWN_START	n/a	n/a	n/a	n/a	-999	9	[0, 0, 0]	n/a	catFR1	2	R1536J
1083.729	0.0	1212312	COUNTDOWN_END	n/a	n/a	n/a	n/a	-999	9	[0, 0, 0]	n/a	catFR1	2	R1536J
1083.729	2.352	1212322	ENCODING_START	n/a	n/a	n/a	n/a	-999	9	[0, 0, 0]	n/a	catFR1	2	R1536J
1086.081	1.6	1214663	WORD	n/a	wordpools/wordpool_categorized_EN.txt	CAR	Vehicles	1	9	[0, 0, 0]	n/a	catFR1	2	R1536J
1087.697	0.816	1216280	WORD_OFF	n/a	n/a	CAR	Vehicles	1	9	[0, 0, 0]	n/a	catFR1	2	R1536J
1088.513	1.6	1217103	WORD	n/a	wordpools/wordpool_categorized_EN.txt	VAN	Vehicles	2	9	[0, 0, 0]	n/a	catFR1	2	R1536J
1090.113	0.934	1218700	WORD_OFF	n/a	n/a	VAN	Vehicles	2	9	[0, 0, 0]	n/a	catFR1	2	R1536J
1091.047	1.6	1219633	WORD	n/a	wordpools/wordpool_categorized_EN.txt	SPRUCE	Trees	3	9	[0, 0, 0]	n/a	catFR1	2	R1536J
1092.663	0.767	1221250	WORD_OFF	n/a	n/a	SPRUCE	Trees	3	9	[0, 0, 0]	n/a	catFR1	2	R1536J
1093.43	1.6	1222014	WORD	n/a	wordpools/wordpool_categorized_EN.txt	PINE	Trees	4	9	[0, 0, 0]	n/a	catFR1	2	R1536J
1095.03	0.966	1223611	WORD_OFF	n/a	n/a	PINE	Trees	4	9	[0, 0, 0]	n/a	catFR1	2	R1536J
1095.996	1.6	1224583	WORD	n/a	wordpools/wordpool_categorized_EN.txt	COLANDER	KitchenTools	5	9	[0, 0, 0]	n/a	catFR1	2	R1536J
1097.613	0.934	1226200	WORD_OFF	n/a	n/a	COLANDER	KitchenTools	5	9	[0, 0, 0]	n/a	catFR1	2	R1536J
1098.547	1.6	1227132	WORD	n/a	wordpools/wordpool_categorized_EN.txt	SPOON	KitchenTools	6	9	[0, 0, 0]	n/a	catFR1	2	R1536J
1100.147	0.784	1228740	WORD_OFF	n/a	n/a	SPOON	KitchenTools	6	9	[0, 0, 0]	n/a	catFR1	2	R1536J
1100.931	1.6	1229513	WORD	n/a	wordpools/wordpool_categorized_EN.txt	MAPLE	Trees	7	9	[0, 0, 0]	n/a	catFR1	2	R1536J
1102.546	0.783	1231130	WORD_OFF	n/a	n/a	MAPLE	Trees	7	9	[0, 0, 0]	n/a	catFR1	2	R1536J
1103.329	1.6	1231914	WORD	n/a	wordpools/wordpool_categorized_EN.txt	BIRCH	Trees	8	9	[0, 0, 0]	n/a	catFR1	2	R1536J
1104.929	0.767	1233511	WORD_OFF	n/a	n/a	BIRCH	Trees	8	9	[0, 0, 0]	n/a	catFR1	2	R1536J
1105.696	1.6	1234285	WORD	n/a	wordpools/wordpool_categorized_EN.txt	SPATULA	KitchenTools	9	9	[0, 0, 0]	n/a	catFR1	2	R1536J
1107.297	0.932	1235882	WORD_OFF	n/a	n/a	SPATULA	KitchenTools	9	9	[0, 0, 0]	n/a	catFR1	2	R1536J
1108.229	1.6	1236814	WORD	n/a	wordpools/wordpool_categorized_EN.txt	KNIFE	KitchenTools	10	9	[0, 0, 0]	n/a	catFR1	2	R1536J
1109.829	0.884	1238412	WORD_OFF	n/a	n/a	KNIFE	KitchenTools	10	9	[0, 0, 0]	n/a	catFR1	2	R1536J
1110.713	1.6	1239294	WORD	n/a	wordpools/wordpool_categorized_EN.txt	TRUCK	Vehicles	11	9	[0, 0, 0]	n/a	catFR1	2	R1536J
1112.313	0.783	1240901	WORD_OFF	n/a	n/a	TRUCK	Vehicles	11	9	[0, 0, 0]	n/a	catFR1	2	R1536J
1113.096	1.6	1241685	WORD	n/a	wordpools/wordpool_categorized_EN.txt	MOTORCYCLE	Vehicles	12	9	[0, 0, 0]	n/a	catFR1	2	R1536J
1114.697	0.0	1243281	PROB	4.35	n/a	n/a	n/a	-999	9	[8, 3, 5]	16.0	catFR1	2	R1536J
1114.696	0.003	1243282	WORD_OFF	n/a	n/a	MOTORCYCLE	Vehicles	12	9	[0, 0, 0]	n/a	catFR1	2	R1536J
1114.699	0.0	1243282	ENCODING_END	n/a	n/a	n/a	n/a	-999	9	[0, 0, 0]	n/a	catFR1	2	R1536J
1114.699	0.0	1243282	DISTRACT_START	n/a	n/a	n/a	n/a	-999	9	[0, 0, 0]	n/a	catFR1	2	R1536J
1114.699	4.363	1243283	START	n/a	n/a	n/a	n/a	-999	9	[-999, -999, -999]	n/a	catFR1	2	R1536J
1119.062	5.152	1247646	PROB	5.134	n/a	n/a	n/a	-999	9	[8, 5, 8]	21.0	catFR1	2	R1536J
1124.214	9.317	1252797	PROB	9.299	n/a	n/a	n/a	-999	9	[7, 6, 5]	16.0	catFR1	2	R1536J
1133.531	6.199	1262114	PROB	6.182	n/a	n/a	n/a	-999	9	[5, 4, 7]	16.0	catFR1	2	R1536J
1139.73	0.0	1268310	DISTRACT_END	n/a	n/a	n/a	n/a	-999	9	[0, 0, 0]	n/a	catFR1	2	R1536J
1139.73	1.733	1268313	STOP	n/a	n/a	n/a	n/a	-999	9	[-999, -999, -999]	n/a	catFR1	2	R1536J
1141.463	1.602	1270046	REC_START	n/a	n/a	n/a	n/a	-999	9	[0, 0, 0]	n/a	catFR1	2	R1536J
1143.065	1.0	1271647	REC_WORD_VV	1.602	n/a	<>	n/a	-999	9	[0, 0, 0]	n/a	catFR1	2	R1536J
1144.065	0.304	1272647	REC_WORD_VV	2.602	n/a	<>	n/a	-999	9	[0, 0, 0]	n/a	catFR1	2	R1536J
1144.369	1.142	1272951	REC_WORD	2.906	n/a	CAR	Vehicles	1	9	[0, 0, 0]	n/a	catFR1	2	R1536J
1145.511	1.605	1274093	REC_WORD	4.048	n/a	VAN	Vehicles	2	9	[0, 0, 0]	n/a	catFR1	2	R1536J
1147.116	3.256	1275698	REC_WORD	5.653	n/a	COLANDER	KitchenTools	5	9	[0, 0, 0]	n/a	catFR1	2	R1536J
1150.372	1.494	1278954	REC_WORD	8.909	n/a	MOTORCYCLE	Vehicles	12	9	[0, 0, 0]	n/a	catFR1	2	R1536J
1151.866	4.042	1280448	REC_WORD	10.403	n/a	TRUCK	Vehicles	11	9	[0, 0, 0]	n/a	catFR1	2	R1536J
1155.908	3.941	1284490	REC_WORD	14.445	n/a	BLOUSE	Clothing	-999	9	[0, 0, 0]	n/a	catFR1	2	R1536J
1159.849	2.644	1288430	REC_WORD	18.386	n/a	SHIRT	Clothing	-999	9	[0, 0, 0]	n/a	catFR1	2	R1536J
1162.493	4.624	1291074	REC_WORD	21.03	n/a	VAN	Vehicles	2	9	[0, 0, 0]	n/a	catFR1	2	R1536J
1167.117	2.99	1295698	REC_WORD	25.654	n/a	KNIFE	KitchenTools	10	9	[0, 0, 0]	n/a	catFR1	2	R1536J
1170.107	1.558	1298688	REC_WORD_VV	28.644	n/a	<>	n/a	-999	9	[0, 0, 0]	n/a	catFR1	2	R1536J
1171.665	2.583	1300243	REC_END	n/a	n/a	n/a	n/a	-999	9	[0, 0, 0]	n/a	catFR1	2	R1536J
1174.248	10.0	1302832	COUNTDOWN_START	n/a	n/a	n/a	n/a	-999	10	[0, 0, 0]	n/a	catFR1	2	R1536J
1184.597	0.0	1313179	COUNTDOWN_END	n/a	n/a	n/a	n/a	-999	10	[0, 0, 0]	n/a	catFR1	2	R1536J
1184.597	1.867	1313179	ENCODING_START	n/a	n/a	n/a	n/a	-999	10	[0, 0, 0]	n/a	catFR1	2	R1536J
1186.464	1.6	1315043	WORD	n/a	wordpools/wordpool_categorized_EN.txt	SPIDER	Insects	1	10	[0, 0, 0]	n/a	catFR1	2	R1536J
1188.08	0.901	1316660	WORD_OFF	n/a	n/a	SPIDER	Insects	1	10	[0, 0, 0]	n/a	catFR1	2	R1536J
1188.981	1.6	1317563	WORD	n/a	wordpools/wordpool_categorized_EN.txt	LADYBUG	Insects	2	10	[0, 0, 0]	n/a	catFR1	2	R1536J
1190.597	0.916	1319180	WORD_OFF	n/a	n/a	LADYBUG	Insects	2	10	[0, 0, 0]	n/a	catFR1	2	R1536J
1191.513	1.6	1320093	WORD	n/a	wordpools/wordpool_categorized_EN.txt	BUS	Vehicles	3	10	[0, 0, 0]	n/a	catFR1	2	R1536J
1193.113	0.867	1321690	WORD_OFF	n/a	n/a	BUS	Vehicles	3	10	[0, 0, 0]	n/a	catFR1	2	R1536J
1193.98	1.6	1322563	WORD	n/a	wordpools/wordpool_categorized_EN.txt	SCOOTER	Vehicles	4	10	[0, 0, 0]	n/a	catFR1	2	R1536J
1195.579	0.834	1324160	WORD_OFF	n/a	n/a	SCOOTER	Vehicles	4	10	[0, 0, 0]	n/a	catFR1	2	R1536J
1196.413	1.6	1324993	WORD	n/a	wordpools/wordpool_categorized_EN.txt	LETTUCE	Vegetables	5	10	[0, 0, 0]	n/a	catFR1	2	R1536J
1198.013	0.817	1326590	WORD_OFF	n/a	n/a	LETTUCE	Vegetables	5	10	[0, 0, 0]	n/a	catFR1	2	R1536J
1198.83	1.6	1327414	WORD	n/a	wordpools/wordpool_categorized_EN.txt	CUCUMBER	Vegetables	6	10	[0, 0, 0]	n/a	catFR1	2	R1536J
1200.447	0.882	1329031	WORD_OFF	n/a	n/a	CUCUMBER	Vegetables	6	10	[0, 0, 0]	n/a	catFR1	2	R1536J
1201.329	1.6	1329914	WORD	n/a	wordpools/wordpool_categorized_EN.txt	ANT	Insects	7	10	[0, 0, 0]	n/a	catFR1	2	R1536J
1202.931	0.999	1331511	WORD_OFF	n/a	n/a	ANT	Insects	7	10	[0, 0, 0]	n/a	catFR1	2	R1536J
1203.93	1.6	1332513	WORD	n/a	wordpools/wordpool_categorized_EN.txt	CRICKET	Insects	8	10	[0, 0, 0]	n/a	catFR1	2	R1536J
1205.546	1.0	1334130	WORD_OFF	n/a	n/a	CRICKET	Insects	8	10	[0, 0, 0]	n/a	catFR1	2	R1536J
1206.546	1.6	1335122	WORD	n/a	wordpools/wordpool_categorized_EN.txt	CARROT	Vegetables	9	10	[0, 0, 0]	n/a	catFR1	2	R1536J
1208.146	0.984	1336729	WORD_OFF	n/a	n/a	CARROT	Vegetables	9	10	[0, 0, 0]	n/a	catFR1	2	R1536J
1209.13	1.6	1337711	WORD	n/a	wordpools/wordpool_categorized_EN.txt	PEAS	Vegetables	10	10	[0, 0, 0]	n/a	catFR1	2	R1536J
1210.746	0.768	1339328	WORD_OFF	n/a	n/a	PEAS	Vegetables	10	10	[0, 0, 0]	n/a	catFR1	2	R1536J
1211.514	1.6	1340091	WORD	n/a	wordpools/wordpool_categorized_EN.txt	BIKE	Vehicles	11	10	[0, 0, 0]	n/a	catFR1	2	R1536J
1213.131	0.965	1341708	WORD_OFF	n/a	n/a	BIKE	Vehicles	11	10	[0, 0, 0]	n/a	catFR1	2	R1536J
1214.096	1.6	1342671	WORD	n/a	wordpools/wordpool_categorized_EN.txt	BOAT	Vehicles	12	10	[0, 0, 0]	n/a	catFR1	2	R1536J
1215.697	0.0	1344276	PROB	3.6	n/a	n/a	n/a	-999	10	[6, 6, 3]	15.0	catFR1	2	R1536J
1215.696	0.003	1344278	WORD_OFF	n/a	n/a	BOAT	Vehicles	12	10	[0, 0, 0]	n/a	catFR1	2	R1536J
1215.699	0.0	1344278	ENCODING_END	n/a	n/a	n/a	n/a	-999	10	[0, 0, 0]	n/a	catFR1	2	R1536J
1215.699	0.0	1344278	DISTRACT_START	n/a	n/a	n/a	n/a	-999	10	[0, 0, 0]	n/a	catFR1	2	R1536J
1215.699	3.615	1344278	START	n/a	n/a	n/a	n/a	-999	10	[-999, -999, -999]	n/a	catFR1	2	R1536J
1219.314	2.516	1347892	PROB	2.499	n/a	n/a	n/a	-999	10	[6, 6, 3]	16.0	catFR1	2	R1536J
1221.83	3.416	1350408	PROB	3.4	n/a	n/a	n/a	-999	10	[3, 6, 6]	15.0	catFR1	2	R1536J
1225.246	3.184	1353824	PROB	3.166	n/a	n/a	n/a	-999	10	[2, 3, 6]	11.0	catFR1	2	R1536J
1228.43	6.35	1357008	PROB	6.333	n/a	n/a	n/a	-999	10	[7, 8, 8]	23.0	catFR1	2	R1536J
1234.78	5.432	1363358	PROB	5.416	n/a	n/a	n/a	-999	10	[4, 8, 3]	15.0	catFR1	2	R1536J
1240.212	0.0	1368789	STOP	n/a	n/a	n/a	n/a	-999	10	[-999, -999, -999]	n/a	catFR1	2	R1536J
1240.212	1.634	1368790	DISTRACT_END	n/a	n/a	n/a	n/a	-999	10	[0, 0, 0]	n/a	catFR1	2	R1536J
1241.846	4.689	1370427	REC_START	n/a	n/a	n/a	n/a	-999	10	[0, 0, 0]	n/a	catFR1	2	R1536J
1246.535	1.894	1375112	REC_WORD	4.689	n/a	VAN	Vehicles	-999	10	[0, 0, 0]	n/a	catFR1	2	R1536J
1248.429	1.879	1377006	REC_WORD	6.583	n/a	BIKE	Vehicles	11	10	[0, 0, 0]	n/a	catFR1	2	R1536J
1250.308	3.428	1378885	REC_WORD	8.462	n/a	CUCUMBER	Vegetables	6	10	[0, 0, 0]	n/a	catFR1	2	R1536J
1253.736	3.267	1382313	REC_WORD	11.89	n/a	SCOOTER	Vehicles	4	10	[0, 0, 0]	n/a	catFR1	2	R1536J
1257.003	3.618	1385579	REC_WORD	15.157	n/a	KNIFE	KitchenTools	-999	10	[0, 0, 0]	n/a	catFR1	2	R1536J
1260.621	2.337	1389197	REC_WORD	18.775	n/a	BIKE	Vehicles	11	10	[0, 0, 0]	n/a	catFR1	2	R1536J
1262.958	9.088	1391534	REC_WORD_VV	21.112	n/a	<>	n/a	-999	10	[0, 0, 0]	n/a	catFR1	2	R1536J
1272.046	2.202	1400623	REC_END	n/a	n/a	n/a	n/a	-999	10	[0, 0, 0]	n/a	catFR1	2	R1536J
1274.248	10.0	1402825	COUNTDOWN_START	n/a	n/a	n/a	n/a	-999	11	[0, 0, 0]	n/a	catFR1	2	R1536J
1284.597	0.0	1413172	COUNTDOWN_END	n/a	n/a	n/a	n/a	-999	11	[0, 0, 0]	n/a	catFR1	2	R1536J
1284.597	2.101	1413172	ENCODING_START	n/a	n/a	n/a	n/a	-999	11	[0, 0, 0]	n/a	catFR1	2	R1536J
1286.698	1.6	1415275	WORD	n/a	wordpools/wordpool_categorized_EN.txt	ORANGUTAN	Zoo	1	11	[0, 0, 0]	n/a	catFR1	2	R1536J
1288.298	0.916	1416872	WORD_OFF	n/a	n/a	ORANGUTAN	Zoo	1	11	[0, 0, 0]	n/a	catFR1	2	R1536J
1289.214	1.6	1417795	WORD	n/a	wordpools/wordpool_categorized_EN.txt	GORILLA	Zoo	2	11	[0, 0, 0]	n/a	catFR1	2	R1536J
1290.814	1.0	1419392	WORD_OFF	n/a	n/a	GORILLA	Zoo	2	11	[0, 0, 0]	n/a	catFR1	2	R1536J
1291.814	1.6	1420394	WORD	n/a	wordpools/wordpool_categorized_EN.txt	CARDINAL	Birds	3	11	[0, 0, 0]	n/a	catFR1	2	R1536J
1293.414	0.767	1421991	WORD_OFF	n/a	n/a	CARDINAL	Birds	3	11	[0, 0, 0]	n/a	catFR1	2	R1536J
1294.181	1.6	1422755	WORD	n/a	wordpools/wordpool_categorized_EN.txt	ROBIN	Birds	4	11	[0, 0, 0]	n/a	catFR1	2	R1536J
1295.781	0.9	1424352	WORD_OFF	n/a	n/a	ROBIN	Birds	4	11	[0, 0, 0]	n/a	catFR1	2	R1536J
1296.681	1.6	1425255	WORD	n/a	wordpools/wordpool_categorized_EN.txt	SILK	Fabric	5	11	[0, 0, 0]	n/a	catFR1	2	R1536J
1298.298	0.967	1426872	WORD_OFF	n/a	n/a	SILK	Fabric	5	11	[0, 0, 0]	n/a	catFR1	2	R1536J
1299.265	1.6	1427844	WORD	n/a	wordpools/wordpool_categorized_EN.txt	VELVET	Fabric	6	11	[0, 0, 0]	n/a	catFR1	2	R1536J
1300.881	0.983	1429461	WORD_OFF	n/a	n/a	VELVET	Fabric	6	11	[0, 0, 0]	n/a	catFR1	2	R1536J
1301.864	1.6	1430443	WORD	n/a	wordpools/wordpool_categorized_EN.txt	TIGER	Zoo	7	11	[0, 0, 0]	n/a	catFR1	2	R1536J
1303.481	0.95	1432060	WORD_OFF	n/a	n/a	TIGER	Zoo	7	11	[0, 0, 0]	n/a	catFR1	2	R1536J
1304.431	1.6	1433002	WORD	n/a	wordpools/wordpool_categorized_EN.txt	PANDA	Zoo	8	11	[0, 0, 0]	n/a	catFR1	2	R1536J
1306.048	0.933	1434619	WORD_OFF	n/a	n/a	PANDA	Zoo	8	11	[0, 0, 0]	n/a	catFR1	2	R1536J
1306.981	1.6	1435552	WORD	n/a	wordpools/wordpool_categorized_EN.txt	DOVE	Birds	9	11	[0, 0, 0]	n/a	catFR1	2	R1536J
1308.581	0.881	1437159	WORD_OFF	n/a	n/a	DOVE	Birds	9	11	[0, 0, 0]	n/a	catFR1	2	R1536J
1309.462	1.6	1438041	WORD	n/a	wordpools/wordpool_categorized_EN.txt	PIGEON	Birds	10	11	[0, 0, 0]	n/a	catFR1	2	R1536J
1311.063	0.867	1439639	WORD_OFF	n/a	n/a	PIGEON	Birds	10	11	[0, 0, 0]	n/a	catFR1	2	R1536J
1311.93	1.6	1440502	WORD	n/a	wordpools/wordpool_categorized_EN.txt	LEATHER	Fabric	11	11	[0, 0, 0]	n/a	catFR1	2	R1536J
1313.548	0.9	1442119	WORD_OFF	n/a	n/a	LEATHER	Fabric	11	11	[0, 0, 0]	n/a	catFR1	2	R1536J
1314.448	1.6	1443021	WORD	n/a	wordpools/wordpool_categorized_EN.txt	LINEN	Fabric	12	11	[0, 0, 0]	n/a	catFR1	2	R1536J
1316.064	0.004	1444638	WORD_OFF	n/a	n/a	LINEN	Fabric	12	11	[0, 0, 0]	n/a	catFR1	2	R1536J
1316.068	0.0	1444638	ENCODING_END	n/a	n/a	n/a	n/a	-999	11	[0, 0, 0]	n/a	catFR1	2	R1536J
1316.068	0.0	1444638	DISTRACT_START	n/a	n/a	n/a	n/a	-999	11	[0, 0, 0]	n/a	catFR1	2	R1536J
1316.065	0.003	1444638	PROB	8.95	n/a	n/a	n/a	-999	11	[3, 8, 3]	4.0	catFR1	2	R1536J
1316.068	8.964	1444641	START	n/a	n/a	n/a	n/a	-999	11	[-999, -999, -999]	n/a	catFR1	2	R1536J
1325.032	4.516	1453605	PROB	4.499	n/a	n/a	n/a	-999	11	[4, 3, 8]	15.0	catFR1	2	R1536J
1329.548	4.517	1458121	PROB	4.5	n/a	n/a	n/a	-999	11	[4, 4, 5]	13.0	catFR1	2	R1536J
1334.065	3.699	1462637	PROB	3.682	n/a	n/a	n/a	-999	11	[6, 5, 5]	16.0	catFR1	2	R1536J
1337.764	0.0	1466333	DISTRACT_END	n/a	n/a	n/a	n/a	-999	11	[0, 0, 0]	n/a	catFR1	2	R1536J
1337.764	1.667	1466336	STOP	n/a	n/a	n/a	n/a	-999	11	[-999, -999, -999]	n/a	catFR1	2	R1536J
1339.431	1.292	1468000	REC_START	n/a	n/a	n/a	n/a	-999	11	[0, 0, 0]	n/a	catFR1	2	R1536J
1340.723	1.773	1469295	REC_WORD	1.292	n/a	ORANGUTAN	Zoo	1	11	[0, 0, 0]	n/a	catFR1	2	R1536J
1342.496	2.74	1471068	REC_WORD	3.065	n/a	GORILLA	Zoo	2	11	[0, 0, 0]	n/a	catFR1	2	R1536J
1345.236	7.026	1473808	REC_WORD	5.805	n/a	ROBIN	Birds	4	11	[0, 0, 0]	n/a	catFR1	2	R1536J
1352.262	4.962	1480833	REC_WORD	12.831	n/a	KNIFE	KitchenTools	-999	11	[0, 0, 0]	n/a	catFR1	2	R1536J
1357.224	12.433	1485795	REC_WORD_VV	17.793	n/a	<>	n/a	-999	11	[0, 0, 0]	n/a	catFR1	2	R1536J
1369.657	1.907	1498226	REC_END	n/a	n/a	n/a	n/a	-999	11	[0, 0, 0]	n/a	catFR1	2	R1536J
1371.564	10.0	1500141	COUNTDOWN_START	n/a	n/a	n/a	n/a	-999	12	[0, 0, 0]	n/a	catFR1	2	R1536J
1381.913	0.0	1510487	COUNTDOWN_END	n/a	n/a	n/a	n/a	-999	12	[0, 0, 0]	n/a	catFR1	2	R1536J
1381.913	1.883	1510487	ENCODING_START	n/a	n/a	n/a	n/a	-999	12	[0, 0, 0]	n/a	catFR1	2	R1536J
1383.796	1.6	1512362	WORD	n/a	wordpools/wordpool_categorized_EN.txt	CROW	Birds	1	12	[0, 0, 0]	n/a	catFR1	2	R1536J
1385.396	0.901	1513969	WORD_OFF	n/a	n/a	CROW	Birds	1	12	[0, 0, 0]	n/a	catFR1	2	R1536J
1386.297	1.6	1514872	WORD	n/a	wordpools/wordpool_categorized_EN.txt	SEAGULL	Birds	2	12	[0, 0, 0]	n/a	catFR1	2	R1536J
1387.897	0.799	1516469	WORD_OFF	n/a	n/a	SEAGULL	Birds	2	12	[0, 0, 0]	n/a	catFR1	2	R1536J
1388.696	1.6	1517263	WORD	n/a	wordpools/wordpool_categorized_EN.txt	BANJO	Instruments	3	12	[0, 0, 0]	n/a	catFR1	2	R1536J
1390.297	0.833	1518870	WORD_OFF	n/a	n/a	BANJO	Instruments	3	12	[0, 0, 0]	n/a	catFR1	2	R1536J
1391.13	1.6	1519703	WORD	n/a	wordpools/wordpool_categorized_EN.txt	BASS	Instruments	4	12	[0, 0, 0]	n/a	catFR1	2	R1536J
1392.731	0.932	1521300	WORD_OFF	n/a	n/a	BASS	Instruments	4	12	[0, 0, 0]	n/a	catFR1	2	R1536J
1393.663	1.6	1522232	WORD	n/a	wordpools/wordpool_categorized_EN.txt	SANDER	Tools	5	12	[0, 0, 0]	n/a	catFR1	2	R1536J
1395.281	0.982	1523849	WORD_OFF	n/a	n/a	SANDER	Tools	5	12	[0, 0, 0]	n/a	catFR1	2	R1536J
1396.263	1.6	1524831	WORD	n/a	wordpools/wordpool_categorized_EN.txt	WRENCH	Tools	6	12	[0, 0, 0]	n/a	catFR1	2	R1536J
1397.879	0.783	1526448	WORD_OFF	n/a	n/a	WRENCH	Tools	6	12	[0, 0, 0]	n/a	catFR1	2	R1536J
1398.662	1.6	1527232	WORD	n/a	wordpools/wordpool_categorized_EN.txt	PIANO	Instruments	7	12	[0, 0, 0]	n/a	catFR1	2	R1536J
1400.262	0.868	1528829	WORD_OFF	n/a	n/a	PIANO	Instruments	7	12	[0, 0, 0]	n/a	catFR1	2	R1536J
1401.13	1.6	1529702	WORD	n/a	wordpools/wordpool_categorized_EN.txt	FLUTE	Instruments	8	12	[0, 0, 0]	n/a	catFR1	2	R1536J
1402.73	0.983	1531299	WORD_OFF	n/a	n/a	FLUTE	Instruments	8	12	[0, 0, 0]	n/a	catFR1	2	R1536J
1403.713	1.6	1532281	WORD	n/a	wordpools/wordpool_categorized_EN.txt	GOOSE	Birds	9	12	[0, 0, 0]	n/a	catFR1	2	R1536J
1405.33	0.883	1533898	WORD_OFF	n/a	n/a	GOOSE	Birds	9	12	[0, 0, 0]	n/a	catFR1	2	R1536J
1406.213	1.6	1534781	WORD	n/a	wordpools/wordpool_categorized_EN.txt	SPARROW	Birds	10	12	[0, 0, 0]	n/a	catFR1	2	R1536J
1407.813	0.867	1536378	WORD_OFF	n/a	n/a	SPARROW	Birds	10	12	[0, 0, 0]	n/a	catFR1	2	R1536J
1408.68	1.6	1537251	WORD	n/a	wordpools/wordpool_categorized_EN.txt	HAMMER	Tools	11	12	[0, 0, 0]	n/a	catFR1	2	R1536J
1410.28	1.0	1538848	WORD_OFF	n/a	n/a	HAMMER	Tools	11	12	[0, 0, 0]	n/a	catFR1	2	R1536J
1411.28	1.6	1539850	WORD	n/a	wordpools/wordpool_categorized_EN.txt	SHOVEL	Tools	12	12	[0, 0, 0]	n/a	catFR1	2	R1536J
1412.896	0.0	1541464	PROB	6.216	n/a	n/a	n/a	-999	12	[3, 5, 6]	14.0	catFR1	2	R1536J
1412.896	0.003	1541467	WORD_OFF	n/a	n/a	SHOVEL	Tools	12	12	[0, 0, 0]	n/a	catFR1	2	R1536J
1412.899	0.0	1541467	ENCODING_END	n/a	n/a	n/a	n/a	-999	12	[0, 0, 0]	n/a	catFR1	2	R1536J
1412.899	0.0	1541467	DISTRACT_START	n/a	n/a	n/a	n/a	-999	12	[0, 0, 0]	n/a	catFR1	2	R1536J
1412.899	6.232	1541467	START	n/a	n/a	n/a	n/a	-999	12	[-999, -999, -999]	n/a	catFR1	2	R1536J
1419.131	4.116	1547699	PROB	4.099	n/a	n/a	n/a	-999	12	[8, 4, 7]	19.0	catFR1	2	R1536J
1423.247	4.565	1551815	PROB	4.549	n/a	n/a	n/a	-999	12	[7, 6, 5]	18.0	catFR1	2	R1536J
1427.812	5.084	1556379	PROB	5.067	n/a	n/a	n/a	-999	12	[5, 4, 8]	17.0	catFR1	2	R1536J
1432.896	0.0	1561463	STOP	n/a	n/a	n/a	n/a	-999	12	[-999, -999, -999]	n/a	catFR1	2	R1536J
1432.896	1.683	1561466	DISTRACT_END	n/a	n/a	n/a	n/a	-999	12	[0, 0, 0]	n/a	catFR1	2	R1536J
1434.579	5.013	1563142	REC_START	n/a	n/a	n/a	n/a	-999	12	[0, 0, 0]	n/a	catFR1	2	R1536J
1439.592	3.411	1568159	REC_WORD	5.013	n/a	SEAGULL	Birds	2	12	[0, 0, 0]	n/a	catFR1	2	R1536J
1443.003	2.194	1571570	REC_WORD	8.424	n/a	DOVE	Birds	-999	12	[0, 0, 0]	n/a	catFR1	2	R1536J
1445.197	5.593	1573763	REC_WORD	10.618	n/a	SANDER	Tools	5	12	[0, 0, 0]	n/a	catFR1	2	R1536J
1450.79	2.852	1579356	REC_WORD	16.211	n/a	CROW	Birds	1	12	[0, 0, 0]	n/a	catFR1	2	R1536J
1453.642	11.142	1582208	REC_WORD_VV	19.063	n/a	<>	n/a	-999	12	[0, 0, 0]	n/a	catFR1	2	R1536J
1464.784	0.0	1593349	REC_END	n/a	n/a	n/a	n/a	-999	12	[0, 0, 0]	n/a	catFR1	2	R1536J
