onset	duration	sample	trial_type	response_time	stim_file	item_name	category	serialpos	list	test	answer	experiment	session	subject
0.0	13.212	50365	INSTRUCT_START	n/a	n/a	n/a	n/a	-999	-999	[0, 0, 0]	n/a	catFR1	4	R1383J
13.212	34.471	63574	INSTRUCT_END	n/a	n/a	n/a	n/a	-999	-999	[0, 0, 0]	n/a	catFR1	4	R1383J
47.683	10.36	98042	COUNTDOWN_START	n/a	n/a	n/a	n/a	-999	-999	[0, 0, 0]	n/a	catFR1	4	R1383J
58.043	0.001	108406	COUNTDOWN_END	n/a	n/a	n/a	n/a	-999	-999	[0, 0, 0]	n/a	catFR1	4	R1383J
58.044	2.056	108406	ENCODING_START	n/a	n/a	n/a	n/a	-999	-1	[0, 0, 0]	n/a	catFR1	4	R1383J
60.1	1.617	110460	WORD	n/a	n/a	DENIM	Materials	1	-1	[0, 0, 0]	n/a	catFR1	4	R1383J
61.717	0.9	112078	WORD_OFF	n/a	n/a	DENIM	Materials	1	-1	[0, 0, 0]	n/a	catFR1	4	R1383J
62.617	1.6	112974	WORD	n/a	n/a	SILK	Materials	2	-1	[0, 0, 0]	n/a	catFR1	4	R1383J
64.217	0.983	114584	WORD_OFF	n/a	n/a	SILK	Materials	2	-1	[0, 0, 0]	n/a	catFR1	4	R1383J
65.2	1.6	115559	WORD	n/a	n/a	FARMER	Professions	3	-1	[0, 0, 0]	n/a	catFR1	4	R1383J
66.8	0.9	117160	WORD_OFF	n/a	n/a	FARMER	Professions	3	-1	[0, 0, 0]	n/a	catFR1	4	R1383J
67.7	1.617	118056	WORD	n/a	n/a	FIREMAN	Professions	4	-1	[0, 0, 0]	n/a	catFR1	4	R1383J
69.317	0.85	119675	WORD_OFF	n/a	n/a	FIREMAN	Professions	4	-1	[0, 0, 0]	n/a	catFR1	4	R1383J
70.167	1.616	120527	WORD	n/a	n/a	MINUTE	Times	5	-1	[0, 0, 0]	n/a	catFR1	4	R1383J
71.783	0.767	122137	WORD_OFF	n/a	n/a	MINUTE	Times	5	-1	[0, 0, 0]	n/a	catFR1	4	R1383J
72.55	1.617	122903	WORD	n/a	n/a	DAY	Times	6	-1	[0, 0, 0]	n/a	catFR1	4	R1383J
74.167	0.982	124522	WORD_OFF	n/a	n/a	DAY	Times	6	-1	[0, 0, 0]	n/a	catFR1	4	R1383J
75.149	1.6	125505	WORD	n/a	n/a	PLUMBER	Professions	7	-1	[0, 0, 0]	n/a	catFR1	4	R1383J
76.749	0.917	127106	WORD_OFF	n/a	n/a	PLUMBER	Professions	7	-1	[0, 0, 0]	n/a	catFR1	4	R1383J
77.666	1.617	128020	WORD	n/a	n/a	TEACHER	Professions	8	-1	[0, 0, 0]	n/a	catFR1	4	R1383J
79.283	0.867	129638	WORD_OFF	n/a	n/a	TEACHER	Professions	8	-1	[0, 0, 0]	n/a	catFR1	4	R1383J
80.15	1.6	130508	WORD	n/a	n/a	HOUR	Times	9	-1	[0, 0, 0]	n/a	catFR1	4	R1383J
81.75	0.966	132109	WORD_OFF	n/a	n/a	HOUR	Times	9	-1	[0, 0, 0]	n/a	catFR1	4	R1383J
82.716	1.6	133075	WORD	n/a	n/a	SECOND	Times	10	-1	[0, 0, 0]	n/a	catFR1	4	R1383J
84.316	0.767	134676	WORD_OFF	n/a	n/a	SECOND	Times	10	-1	[0, 0, 0]	n/a	catFR1	4	R1383J
85.083	1.6	135442	WORD	n/a	n/a	WOOL	Materials	11	-1	[0, 0, 0]	n/a	catFR1	4	R1383J
86.683	0.95	137043	WORD_OFF	n/a	n/a	WOOL	Materials	11	-1	[0, 0, 0]	n/a	catFR1	4	R1383J
87.633	1.601	137992	WORD	n/a	n/a	LEATHER	Materials	12	-1	[0, 0, 0]	n/a	catFR1	4	R1383J
89.234	0.0	139591	PROB	5.632	n/a	n/a	n/a	-999	-1	[7, 4, 8]	19.0	catFR1	4	R1383J
89.233	0.001	139593	WORD_OFF	n/a	n/a	LEATHER	Materials	12	-1	[0, 0, 0]	n/a	catFR1	4	R1383J
89.234	0.002	139593	ENCODING_END	n/a	n/a	n/a	n/a	-999	-1	[0, 0, 0]	n/a	catFR1	4	R1383J
89.236	0.0	139593	DISTRACT_START	n/a	n/a	n/a	n/a	-999	-1	[0, 0, 0]	n/a	catFR1	4	R1383J
89.236	5.647	139593	START	n/a	n/a	n/a	n/a	-999	-1	[-999, -999, -999]	n/a	catFR1	4	R1383J
94.883	10.267	145239	PROB	10.25	n/a	n/a	n/a	-999	-1	[1, 4, 4]	9.0	catFR1	4	R1383J
105.15	3.867	155506	PROB	3.849	n/a	n/a	n/a	-999	-1	[4, 2, 1]	7.0	catFR1	4	R1383J
109.017	4.849	159373	PROB	4.832	n/a	n/a	n/a	-999	-1	[1, 2, 8]	11.0	catFR1	4	R1383J
113.866	0.0	164219	DISTRACT_END	n/a	n/a	n/a	n/a	-999	-1	[0, 0, 0]	n/a	catFR1	4	R1383J
113.866	1.035	164222	STOP	n/a	n/a	n/a	n/a	-999	-1	[-999, -999, -999]	n/a	catFR1	4	R1383J
114.901	2.68	165254	REC_START	n/a	n/a	n/a	n/a	-999	-1	[0, 0, 0]	n/a	catFR1	4	R1383J
117.581	1.17	167937	REC_WORD	2.68	n/a	DANEM	n/a	-999	-1	[0, 0, 0]	n/a	catFR1	4	R1383J
118.751	1.649	169107	REC_WORD	3.85	n/a	SAIL	n/a	-999	-1	[0, 0, 0]	n/a	catFR1	4	R1383J
120.4	1.225	170755	REC_WORD_VV	5.499	n/a	<>	n/a	-999	-1	[0, 0, 0]	n/a	catFR1	4	R1383J
121.625	23.547	171980	REC_WORD	6.724	n/a	PHONE	n/a	-999	-1	[0, 0, 0]	n/a	catFR1	4	R1383J
145.172	8.462	195528	REC_END	n/a	n/a	n/a	n/a	-999	-1	[0, 0, 0]	n/a	catFR1	4	R1383J
153.634	10.361	203986	COUNTDOWN_START	n/a	n/a	n/a	n/a	-999	1	[0, 0, 0]	n/a	catFR1	4	R1383J
163.995	0.0	214350	COUNTDOWN_END	n/a	n/a	n/a	n/a	-999	1	[0, 0, 0]	n/a	catFR1	4	R1383J
163.995	2.022	214350	ENCODING_START	n/a	n/a	n/a	n/a	-999	1	[0, 0, 0]	n/a	catFR1	4	R1383J
166.017	1.616	216369	WORD	n/a	wordpools/wordpool_categorized_EN.txt	TOE	Bodyparts	1	1	[0, 0, 0]	n/a	catFR1	4	R1383J
167.633	0.833	217987	WORD_OFF	n/a	n/a	TOE	Bodyparts	1	1	[0, 0, 0]	n/a	catFR1	4	R1383J
168.466	1.601	218822	WORD	n/a	wordpools/wordpool_categorized_EN.txt	KNEE	Bodyparts	2	1	[0, 0, 0]	n/a	catFR1	4	R1383J
170.067	0.882	220424	WORD_OFF	n/a	n/a	KNEE	Bodyparts	2	1	[0, 0, 0]	n/a	catFR1	4	R1383J
170.949	1.601	221302	WORD	n/a	wordpools/wordpool_categorized_EN.txt	TRUCK	Vehicles	3	1	[0, 0, 0]	n/a	catFR1	4	R1383J
172.55	0.917	222904	WORD_OFF	n/a	n/a	TRUCK	Vehicles	3	1	[0, 0, 0]	n/a	catFR1	4	R1383J
173.467	1.616	223817	WORD	n/a	wordpools/wordpool_categorized_EN.txt	MOTORCYCLE	Vehicles	4	1	[0, 0, 0]	n/a	catFR1	4	R1383J
175.083	1.0	225436	WORD_OFF	n/a	n/a	MOTORCYCLE	Vehicles	4	1	[0, 0, 0]	n/a	catFR1	4	R1383J
176.083	1.617	226436	WORD	n/a	wordpools/wordpool_categorized_EN.txt	DUCK	Birds	5	1	[0, 0, 0]	n/a	catFR1	4	R1383J
177.7	0.916	228055	WORD_OFF	n/a	n/a	DUCK	Birds	5	1	[0, 0, 0]	n/a	catFR1	4	R1383J
178.616	1.6	228977	WORD	n/a	wordpools/wordpool_categorized_EN.txt	FINCH	Birds	6	1	[0, 0, 0]	n/a	catFR1	4	R1383J
180.216	0.817	230570	WORD_OFF	n/a	n/a	FINCH	Birds	6	1	[0, 0, 0]	n/a	catFR1	4	R1383J
181.033	1.616	231388	WORD	n/a	wordpools/wordpool_categorized_EN.txt	MOPED	Vehicles	7	1	[0, 0, 0]	n/a	catFR1	4	R1383J
182.649	1.001	233006	WORD_OFF	n/a	n/a	MOPED	Vehicles	7	1	[0, 0, 0]	n/a	catFR1	4	R1383J
183.65	1.6	234007	WORD	n/a	wordpools/wordpool_categorized_EN.txt	TRAIN	Vehicles	8	1	[0, 0, 0]	n/a	catFR1	4	R1383J
185.25	0.916	235599	WORD_OFF	n/a	n/a	TRAIN	Vehicles	8	1	[0, 0, 0]	n/a	catFR1	4	R1383J
186.166	1.6	236522	WORD	n/a	wordpools/wordpool_categorized_EN.txt	EYE	Bodyparts	9	1	[0, 0, 0]	n/a	catFR1	4	R1383J
187.766	0.867	238123	WORD_OFF	n/a	n/a	EYE	Bodyparts	9	1	[0, 0, 0]	n/a	catFR1	4	R1383J
188.633	1.6	238984	WORD	n/a	wordpools/wordpool_categorized_EN.txt	HAND	Bodyparts	10	1	[0, 0, 0]	n/a	catFR1	4	R1383J
190.233	0.917	240586	WORD_OFF	n/a	n/a	HAND	Bodyparts	10	1	[0, 0, 0]	n/a	catFR1	4	R1383J
191.15	1.6	241499	WORD	n/a	wordpools/wordpool_categorized_EN.txt	HAWK	Birds	11	1	[0, 0, 0]	n/a	catFR1	4	R1383J
192.75	0.783	243100	WORD_OFF	n/a	n/a	HAWK	Birds	11	1	[0, 0, 0]	n/a	catFR1	4	R1383J
193.533	1.617	243883	WORD	n/a	wordpools/wordpool_categorized_EN.txt	GOOSE	Birds	12	1	[0, 0, 0]	n/a	catFR1	4	R1383J
195.15	0.002	245502	WORD_OFF	n/a	n/a	GOOSE	Birds	12	1	[0, 0, 0]	n/a	catFR1	4	R1383J
195.152	0.0	245502	ENCODING_END	n/a	n/a	n/a	n/a	-999	1	[0, 0, 0]	n/a	catFR1	4	R1383J
195.151	0.001	245503	PROB	5.716	n/a	n/a	n/a	-999	1	[4, 4, 2]	10.0	catFR1	4	R1383J
195.152	0.0	245504	START	n/a	n/a	n/a	n/a	-999	1	[-999, -999, -999]	n/a	catFR1	4	R1383J
195.152	5.732	245511	DISTRACT_START	n/a	n/a	n/a	n/a	-999	1	[0, 0, 0]	n/a	catFR1	4	R1383J
200.884	8.633	251236	PROB	8.615	n/a	n/a	n/a	-999	1	[4, 1, 5]	10.0	catFR1	4	R1383J
209.517	5.3	259869	PROB	5.283	n/a	n/a	n/a	-999	1	[5, 1, 7]	13.0	catFR1	4	R1383J
214.817	4.582	265169	PROB	4.566	n/a	n/a	n/a	-999	1	[4, 6, 2]	12.0	catFR1	4	R1383J
219.399	0.0	269750	STOP	n/a	n/a	n/a	n/a	-999	1	[-999, -999, -999]	n/a	catFR1	4	R1383J
219.399	1.15	269754	DISTRACT_END	n/a	n/a	n/a	n/a	-999	1	[0, 0, 0]	n/a	catFR1	4	R1383J
220.549	5.259	270902	REC_START	n/a	n/a	n/a	n/a	-999	1	[0, 0, 0]	n/a	catFR1	4	R1383J
225.808	5.309	276159	REC_WORD	5.259	n/a	FINCH	Birds	6	1	[0, 0, 0]	n/a	catFR1	4	R1383J
231.117	5.896	281468	REC_WORD	10.568	n/a	DUCK	Birds	5	1	[0, 0, 0]	n/a	catFR1	4	R1383J
237.013	7.462	287364	REC_WORD	16.464	n/a	GOOSE	Birds	12	1	[0, 0, 0]	n/a	catFR1	4	R1383J
244.475	6.332	294825	REC_WORD	23.926	n/a	TOE	Bodyparts	1	1	[0, 0, 0]	n/a	catFR1	4	R1383J
250.807	3.46	301158	REC_END	n/a	n/a	n/a	n/a	-999	1	[0, 0, 0]	n/a	catFR1	4	R1383J
254.267	10.362	304622	COUNTDOWN_START	n/a	n/a	n/a	n/a	-999	2	[0, 0, 0]	n/a	catFR1	4	R1383J
264.629	0.0	314977	COUNTDOWN_END	n/a	n/a	n/a	n/a	-999	2	[0, 0, 0]	n/a	catFR1	4	R1383J
264.629	1.921	314977	ENCODING_START	n/a	n/a	n/a	n/a	-999	2	[0, 0, 0]	n/a	catFR1	4	R1383J
266.55	1.616	316900	WORD	n/a	wordpools/wordpool_categorized_EN.txt	BASKETBALL	Toys	1	2	[0, 0, 0]	n/a	catFR1	4	R1383J
268.166	0.917	318518	WORD_OFF	n/a	n/a	BASKETBALL	Toys	1	2	[0, 0, 0]	n/a	catFR1	4	R1383J
269.083	1.617	319432	WORD	n/a	wordpools/wordpool_categorized_EN.txt	MARBLES	Toys	2	2	[0, 0, 0]	n/a	catFR1	4	R1383J
270.7	0.933	321051	WORD_OFF	n/a	n/a	MARBLES	Toys	2	2	[0, 0, 0]	n/a	catFR1	4	R1383J
271.633	1.616	321982	WORD	n/a	wordpools/wordpool_categorized_EN.txt	VIOLET	Flowers	3	2	[0, 0, 0]	n/a	catFR1	4	R1383J
273.249	0.917	323600	WORD_OFF	n/a	n/a	VIOLET	Flowers	3	2	[0, 0, 0]	n/a	catFR1	4	R1383J
274.166	1.6	324514	WORD	n/a	wordpools/wordpool_categorized_EN.txt	DAISY	Flowers	4	2	[0, 0, 0]	n/a	catFR1	4	R1383J
275.766	0.767	326115	WORD_OFF	n/a	n/a	DAISY	Flowers	4	2	[0, 0, 0]	n/a	catFR1	4	R1383J
276.533	1.6	326881	WORD	n/a	wordpools/wordpool_categorized_EN.txt	RIVER	Landscapes	5	2	[0, 0, 0]	n/a	catFR1	4	R1383J
278.133	0.85	328482	WORD_OFF	n/a	n/a	RIVER	Landscapes	5	2	[0, 0, 0]	n/a	catFR1	4	R1383J
278.983	1.6	329335	WORD	n/a	wordpools/wordpool_categorized_EN.txt	VALLEY	Landscapes	6	2	[0, 0, 0]	n/a	catFR1	4	R1383J
280.583	0.9	330936	WORD_OFF	n/a	n/a	VALLEY	Landscapes	6	2	[0, 0, 0]	n/a	catFR1	4	R1383J
281.483	1.6	331832	WORD	n/a	wordpools/wordpool_categorized_EN.txt	LILAC	Flowers	7	2	[0, 0, 0]	n/a	catFR1	4	R1383J
283.083	1.0	333433	WORD_OFF	n/a	n/a	LILAC	Flowers	7	2	[0, 0, 0]	n/a	catFR1	4	R1383J
284.083	1.616	334443	WORD	n/a	wordpools/wordpool_categorized_EN.txt	ROSE	Flowers	8	2	[0, 0, 0]	n/a	catFR1	4	R1383J
285.699	1.001	336052	WORD_OFF	n/a	n/a	ROSE	Flowers	8	2	[0, 0, 0]	n/a	catFR1	4	R1383J
286.7	1.616	337053	WORD	n/a	wordpools/wordpool_categorized_EN.txt	BLOCKS	Toys	9	2	[0, 0, 0]	n/a	catFR1	4	R1383J
288.316	0.983	338663	WORD_OFF	n/a	n/a	BLOCKS	Toys	9	2	[0, 0, 0]	n/a	catFR1	4	R1383J
289.299	1.601	339646	WORD	n/a	wordpools/wordpool_categorized_EN.txt	PUZZLE	Toys	10	2	[0, 0, 0]	n/a	catFR1	4	R1383J
290.9	0.834	341247	WORD_OFF	n/a	n/a	PUZZLE	Toys	10	2	[0, 0, 0]	n/a	catFR1	4	R1383J
291.734	1.6	342083	WORD	n/a	wordpools/wordpool_categorized_EN.txt	OCEAN	Landscapes	11	2	[0, 0, 0]	n/a	catFR1	4	R1383J
293.334	0.866	343684	WORD_OFF	n/a	n/a	OCEAN	Landscapes	11	2	[0, 0, 0]	n/a	catFR1	4	R1383J
294.2	1.6	344545	WORD	n/a	wordpools/wordpool_categorized_EN.txt	MOUNTAIN	Landscapes	12	2	[0, 0, 0]	n/a	catFR1	4	R1383J
295.8	0.001	346146	WORD_OFF	n/a	n/a	MOUNTAIN	Landscapes	12	2	[0, 0, 0]	n/a	catFR1	4	R1383J
295.801	0.0	346146	ENCODING_END	n/a	n/a	n/a	n/a	-999	2	[0, 0, 0]	n/a	catFR1	4	R1383J
295.801	0.0	346149	START	n/a	n/a	n/a	n/a	-999	2	[-999, -999, -999]	n/a	catFR1	4	R1383J
295.801	0.0	346149	PROB	5.333	n/a	n/a	n/a	-999	2	[2, 8, 8]	18.0	catFR1	4	R1383J
295.801	5.35	346155	DISTRACT_START	n/a	n/a	n/a	n/a	-999	2	[0, 0, 0]	n/a	catFR1	4	R1383J
301.151	9.132	351499	PROB	9.115	n/a	n/a	n/a	-999	2	[8, 4, 5]	17.0	catFR1	4	R1383J
310.283	6.649	360631	PROB	6.634	n/a	n/a	n/a	-999	2	[8, 6, 2]	16.0	catFR1	4	R1383J
316.932	0.0	367280	STOP	n/a	n/a	n/a	n/a	-999	2	[-999, -999, -999]	n/a	catFR1	4	R1383J
316.932	1.201	367283	DISTRACT_END	n/a	n/a	n/a	n/a	-999	2	[0, 0, 0]	n/a	catFR1	4	R1383J
318.133	7.14	368484	REC_START	n/a	n/a	n/a	n/a	-999	2	[0, 0, 0]	n/a	catFR1	4	R1383J
325.273	1.04	375620	REC_WORD	7.14	n/a	LILY	n/a	-999	2	[0, 0, 0]	n/a	catFR1	4	R1383J
326.313	5.618	376660	REC_WORD	8.18	n/a	LILAC	Flowers	7	2	[0, 0, 0]	n/a	catFR1	4	R1383J
331.931	1.95	382278	REC_WORD	13.798	n/a	BASKETBALL	Toys	1	2	[0, 0, 0]	n/a	catFR1	4	R1383J
333.881	0.481	384228	REC_WORD	15.748	n/a	VALLEY	Landscapes	6	2	[0, 0, 0]	n/a	catFR1	4	R1383J
334.362	14.035	384709	REC_WORD	16.229	n/a	ROSE	Flowers	8	2	[0, 0, 0]	n/a	catFR1	4	R1383J
348.397	1.87	398740	REC_END	n/a	n/a	n/a	n/a	-999	2	[0, 0, 0]	n/a	catFR1	4	R1383J
350.267	10.359	400619	COUNTDOWN_START	n/a	n/a	n/a	n/a	-999	3	[0, 0, 0]	n/a	catFR1	4	R1383J
360.626	0.0	410974	COUNTDOWN_END	n/a	n/a	n/a	n/a	-999	3	[0, 0, 0]	n/a	catFR1	4	R1383J
360.626	2.123	410974	ENCODING_START	n/a	n/a	n/a	n/a	-999	3	[0, 0, 0]	n/a	catFR1	4	R1383J
362.749	1.601	413098	WORD	n/a	wordpools/wordpool_categorized_EN.txt	BLENDER	Appliances	1	3	[0, 0, 0]	n/a	catFR1	4	R1383J
364.35	0.833	414699	WORD_OFF	n/a	n/a	BLENDER	Appliances	1	3	[0, 0, 0]	n/a	catFR1	4	R1383J
365.183	1.6	415525	WORD	n/a	wordpools/wordpool_categorized_EN.txt	DRYER	Appliances	2	3	[0, 0, 0]	n/a	catFR1	4	R1383J
366.783	0.983	417127	WORD_OFF	n/a	n/a	DRYER	Appliances	2	3	[0, 0, 0]	n/a	catFR1	4	R1383J
367.766	1.617	418110	WORD	n/a	wordpools/wordpool_categorized_EN.txt	COFFEE	Beverages	3	3	[0, 0, 0]	n/a	catFR1	4	R1383J
369.383	0.917	419728	WORD_OFF	n/a	n/a	COFFEE	Beverages	3	3	[0, 0, 0]	n/a	catFR1	4	R1383J
370.3	1.599	420642	WORD	n/a	wordpools/wordpool_categorized_EN.txt	LEMONADE	Beverages	4	3	[0, 0, 0]	n/a	catFR1	4	R1383J
371.899	0.767	422243	WORD_OFF	n/a	n/a	LEMONADE	Beverages	4	3	[0, 0, 0]	n/a	catFR1	4	R1383J
372.666	1.617	423009	WORD	n/a	wordpools/wordpool_categorized_EN.txt	CRAB	Oceananimals	5	3	[0, 0, 0]	n/a	catFR1	4	R1383J
374.283	1.0	424627	WORD_OFF	n/a	n/a	CRAB	Oceananimals	5	3	[0, 0, 0]	n/a	catFR1	4	R1383J
375.283	1.6	425628	WORD	n/a	wordpools/wordpool_categorized_EN.txt	JELLYFISH	Oceananimals	6	3	[0, 0, 0]	n/a	catFR1	4	R1383J
376.883	0.983	427229	WORD_OFF	n/a	n/a	JELLYFISH	Oceananimals	6	3	[0, 0, 0]	n/a	catFR1	4	R1383J
377.866	1.617	428213	WORD	n/a	wordpools/wordpool_categorized_EN.txt	TEA	Beverages	7	3	[0, 0, 0]	n/a	catFR1	4	R1383J
379.483	0.933	429831	WORD_OFF	n/a	n/a	TEA	Beverages	7	3	[0, 0, 0]	n/a	catFR1	4	R1383J
380.416	1.6	430762	WORD	n/a	wordpools/wordpool_categorized_EN.txt	MILK	Beverages	8	3	[0, 0, 0]	n/a	catFR1	4	R1383J
382.016	0.967	432363	WORD_OFF	n/a	n/a	MILK	Beverages	8	3	[0, 0, 0]	n/a	catFR1	4	R1383J
382.983	1.6	433329	WORD	n/a	wordpools/wordpool_categorized_EN.txt	TOASTER	Appliances	9	3	[0, 0, 0]	n/a	catFR1	4	R1383J
384.583	0.9	434930	WORD_OFF	n/a	n/a	TOASTER	Appliances	9	3	[0, 0, 0]	n/a	catFR1	4	R1383J
385.483	1.601	435827	WORD	n/a	wordpools/wordpool_categorized_EN.txt	IRON	Appliances	10	3	[0, 0, 0]	n/a	catFR1	4	R1383J
387.084	0.983	437428	WORD_OFF	n/a	n/a	IRON	Appliances	10	3	[0, 0, 0]	n/a	catFR1	4	R1383J
388.067	1.617	438411	WORD	n/a	wordpools/wordpool_categorized_EN.txt	DOLPHIN	Oceananimals	11	3	[0, 0, 0]	n/a	catFR1	4	R1383J
389.684	0.849	440030	WORD_OFF	n/a	n/a	DOLPHIN	Oceananimals	11	3	[0, 0, 0]	n/a	catFR1	4	R1383J
390.533	1.601	440874	WORD	n/a	wordpools/wordpool_categorized_EN.txt	SQUID	Oceananimals	12	3	[0, 0, 0]	n/a	catFR1	4	R1383J
392.134	0.0	442475	WORD_OFF	n/a	n/a	SQUID	Oceananimals	12	3	[0, 0, 0]	n/a	catFR1	4	R1383J
392.134	0.001	442479	PROB	4.733	n/a	n/a	n/a	-999	3	[8, 1, 1]	13.0	catFR1	4	R1383J
392.135	0.0	442480	START	n/a	n/a	n/a	n/a	-999	3	[-999, -999, -999]	n/a	catFR1	4	R1383J
392.135	0.0	442483	ENCODING_END	n/a	n/a	n/a	n/a	-999	3	[0, 0, 0]	n/a	catFR1	4	R1383J
392.135	4.749	442483	DISTRACT_START	n/a	n/a	n/a	n/a	-999	3	[0, 0, 0]	n/a	catFR1	4	R1383J
396.884	7.25	447228	PROB	7.233	n/a	n/a	n/a	-999	3	[1, 7, 8]	16.0	catFR1	4	R1383J
404.134	3.899	454478	PROB	3.882	n/a	n/a	n/a	-999	3	[3, 2, 6]	11.0	catFR1	4	R1383J
408.033	4.734	458377	PROB	4.717	n/a	n/a	n/a	-999	3	[7, 6, 8]	21.0	catFR1	4	R1383J
412.767	0.0	463107	DISTRACT_END	n/a	n/a	n/a	n/a	-999	3	[0, 0, 0]	n/a	catFR1	4	R1383J
412.767	1.1	463111	STOP	n/a	n/a	n/a	n/a	-999	3	[-999, -999, -999]	n/a	catFR1	4	R1383J
413.867	3.249	464212	REC_START	n/a	n/a	n/a	n/a	-999	3	[0, 0, 0]	n/a	catFR1	4	R1383J
417.116	4.191	467460	REC_WORD	3.249	n/a	BLENDER	Appliances	1	3	[0, 0, 0]	n/a	catFR1	4	R1383J
421.307	13.375	471650	REC_WORD	7.44	n/a	DRYER	Appliances	2	3	[0, 0, 0]	n/a	catFR1	4	R1383J
434.682	9.467	485025	REC_WORD	20.815	n/a	TOASTER	Appliances	9	3	[0, 0, 0]	n/a	catFR1	4	R1383J
444.149	7.452	494494	REC_END	n/a	n/a	n/a	n/a	-999	3	[0, 0, 0]	n/a	catFR1	4	R1383J
451.601	10.362	501943	COUNTDOWN_START	n/a	n/a	n/a	n/a	-999	4	[0, 0, 0]	n/a	catFR1	4	R1383J
461.963	0.0	512306	COUNTDOWN_END	n/a	n/a	n/a	n/a	-999	4	[0, 0, 0]	n/a	catFR1	4	R1383J
461.963	1.837	512306	ENCODING_START	n/a	n/a	n/a	n/a	-999	4	[0, 0, 0]	n/a	catFR1	4	R1383J
463.8	1.6	514142	WORD	n/a	wordpools/wordpool_categorized_EN.txt	RULER	Officesupplies	1	4	[0, 0, 0]	n/a	catFR1	4	R1383J
465.4	0.833	515744	WORD_OFF	n/a	n/a	RULER	Officesupplies	1	4	[0, 0, 0]	n/a	catFR1	4	R1383J
466.233	1.6	516579	WORD	n/a	wordpools/wordpool_categorized_EN.txt	TAPE	Officesupplies	2	4	[0, 0, 0]	n/a	catFR1	4	R1383J
467.833	0.983	518171	WORD_OFF	n/a	n/a	TAPE	Officesupplies	2	4	[0, 0, 0]	n/a	catFR1	4	R1383J
468.816	1.6	519155	WORD	n/a	wordpools/wordpool_categorized_EN.txt	AXE	Tools	3	4	[0, 0, 0]	n/a	catFR1	4	R1383J
470.416	0.8	520764	WORD_OFF	n/a	n/a	AXE	Tools	3	4	[0, 0, 0]	n/a	catFR1	4	R1383J
471.216	1.6	521556	WORD	n/a	wordpools/wordpool_categorized_EN.txt	SAW	Tools	4	4	[0, 0, 0]	n/a	catFR1	4	R1383J
472.816	0.817	523157	WORD_OFF	n/a	n/a	SAW	Tools	4	4	[0, 0, 0]	n/a	catFR1	4	R1383J
473.633	1.617	523975	WORD	n/a	wordpools/wordpool_categorized_EN.txt	FLOOR	Building	5	4	[0, 0, 0]	n/a	catFR1	4	R1383J
475.25	0.85	525594	WORD_OFF	n/a	n/a	FLOOR	Building	5	4	[0, 0, 0]	n/a	catFR1	4	R1383J
476.1	1.616	526438	WORD	n/a	wordpools/wordpool_categorized_EN.txt	ROOF	Building	6	4	[0, 0, 0]	n/a	catFR1	4	R1383J
477.716	0.966	528056	WORD_OFF	n/a	n/a	ROOF	Building	6	4	[0, 0, 0]	n/a	catFR1	4	R1383J
478.682	1.601	529022	WORD	n/a	wordpools/wordpool_categorized_EN.txt	PEN	Officesupplies	7	4	[0, 0, 0]	n/a	catFR1	4	R1383J
480.283	0.783	530624	WORD_OFF	n/a	n/a	PEN	Officesupplies	7	4	[0, 0, 0]	n/a	catFR1	4	R1383J
481.066	1.6	531407	WORD	n/a	wordpools/wordpool_categorized_EN.txt	STAPLER	Officesupplies	8	4	[0, 0, 0]	n/a	catFR1	4	R1383J
482.666	0.817	533008	WORD_OFF	n/a	n/a	STAPLER	Officesupplies	8	4	[0, 0, 0]	n/a	catFR1	4	R1383J
483.483	1.618	533826	WORD	n/a	wordpools/wordpool_categorized_EN.txt	STAIRS	Building	9	4	[0, 0, 0]	n/a	catFR1	4	R1383J
485.101	0.766	535444	WORD_OFF	n/a	n/a	STAIRS	Building	9	4	[0, 0, 0]	n/a	catFR1	4	R1383J
485.867	1.616	536210	WORD	n/a	wordpools/wordpool_categorized_EN.txt	CEILING	Building	10	4	[0, 0, 0]	n/a	catFR1	4	R1383J
487.483	0.966	537820	WORD_OFF	n/a	n/a	CEILING	Building	10	4	[0, 0, 0]	n/a	catFR1	4	R1383J
488.449	1.602	538794	WORD	n/a	wordpools/wordpool_categorized_EN.txt	SHOVEL	Tools	11	4	[0, 0, 0]	n/a	catFR1	4	R1383J
490.051	0.916	540396	WORD_OFF	n/a	n/a	SHOVEL	Tools	11	4	[0, 0, 0]	n/a	catFR1	4	R1383J
490.967	1.616	541309	WORD	n/a	wordpools/wordpool_categorized_EN.txt	WRENCH	Tools	12	4	[0, 0, 0]	n/a	catFR1	4	R1383J
492.583	0.0	542919	WORD_OFF	n/a	n/a	WRENCH	Tools	12	4	[0, 0, 0]	n/a	catFR1	4	R1383J
492.583	0.001	542923	PROB	7.633	n/a	n/a	n/a	-999	4	[2, 7, 2]	11.0	catFR1	4	R1383J
492.584	0.0	542924	START	n/a	n/a	n/a	n/a	-999	4	[-999, -999, -999]	n/a	catFR1	4	R1383J
492.584	0.0	542928	ENCODING_END	n/a	n/a	n/a	n/a	-999	4	[0, 0, 0]	n/a	catFR1	4	R1383J
492.584	7.65	542928	DISTRACT_START	n/a	n/a	n/a	n/a	-999	4	[0, 0, 0]	n/a	catFR1	4	R1383J
500.234	6.049	550574	PROB	6.032	n/a	n/a	n/a	-999	4	[5, 2, 4]	11.0	catFR1	4	R1383J
506.283	5.485	556623	PROB	5.467	n/a	n/a	n/a	-999	4	[1, 6, 2]	9.0	catFR1	4	R1383J
511.768	7.199	562108	PROB	7.182	n/a	n/a	n/a	-999	4	[6, 6, 8]	20.0	catFR1	4	R1383J
518.967	0.0	569303	DISTRACT_END	n/a	n/a	n/a	n/a	-999	4	[0, 0, 0]	n/a	catFR1	4	R1383J
518.967	1.2	569306	STOP	n/a	n/a	n/a	n/a	-999	4	[-999, -999, -999]	n/a	catFR1	4	R1383J
520.167	14.751	570504	REC_START	n/a	n/a	n/a	n/a	-999	4	[0, 0, 0]	n/a	catFR1	4	R1383J
534.918	15.533	585257	REC_WORD	14.751	n/a	WRENCH	Tools	12	4	[0, 0, 0]	n/a	catFR1	4	R1383J
550.451	2.6	600786	REC_END	n/a	n/a	n/a	n/a	-999	4	[0, 0, 0]	n/a	catFR1	4	R1383J
553.051	10.361	603388	COUNTDOWN_START	n/a	n/a	n/a	n/a	-999	5	[0, 0, 0]	n/a	catFR1	4	R1383J
563.412	0.0	613751	COUNTDOWN_END	n/a	n/a	n/a	n/a	-999	5	[0, 0, 0]	n/a	catFR1	4	R1383J
563.412	2.088	613751	ENCODING_START	n/a	n/a	n/a	n/a	-999	5	[0, 0, 0]	n/a	catFR1	4	R1383J
565.5	1.616	615840	WORD	n/a	wordpools/wordpool_categorized_EN.txt	BUS	Vehicles	1	5	[0, 0, 0]	n/a	catFR1	4	R1383J
567.116	0.883	617458	WORD_OFF	n/a	n/a	BUS	Vehicles	1	5	[0, 0, 0]	n/a	catFR1	4	R1383J
567.999	1.601	618337	WORD	n/a	wordpools/wordpool_categorized_EN.txt	BIKE	Vehicles	2	5	[0, 0, 0]	n/a	catFR1	4	R1383J
569.6	0.766	619938	WORD_OFF	n/a	n/a	BIKE	Vehicles	2	5	[0, 0, 0]	n/a	catFR1	4	R1383J
570.366	1.6	620704	WORD	n/a	wordpools/wordpool_categorized_EN.txt	GORILLA	Zoo	3	5	[0, 0, 0]	n/a	catFR1	4	R1383J
571.966	0.9	622305	WORD_OFF	n/a	n/a	GORILLA	Zoo	3	5	[0, 0, 0]	n/a	catFR1	4	R1383J
572.866	1.617	623201	WORD	n/a	wordpools/wordpool_categorized_EN.txt	LION	Zoo	4	5	[0, 0, 0]	n/a	catFR1	4	R1383J
574.483	0.833	624820	WORD_OFF	n/a	n/a	LION	Zoo	4	5	[0, 0, 0]	n/a	catFR1	4	R1383J
575.316	1.6	625655	WORD	n/a	wordpools/wordpool_categorized_EN.txt	TONGS	Kitchentools	5	5	[0, 0, 0]	n/a	catFR1	4	R1383J
576.916	0.783	627256	WORD_OFF	n/a	n/a	TONGS	Kitchentools	5	5	[0, 0, 0]	n/a	catFR1	4	R1383J
577.699	1.601	628040	WORD	n/a	wordpools/wordpool_categorized_EN.txt	FORK	Kitchentools	6	5	[0, 0, 0]	n/a	catFR1	4	R1383J
579.3	1.0	629641	WORD_OFF	n/a	n/a	FORK	Kitchentools	6	5	[0, 0, 0]	n/a	catFR1	4	R1383J
580.3	1.601	630641	WORD	n/a	wordpools/wordpool_categorized_EN.txt	PLANE	Vehicles	7	5	[0, 0, 0]	n/a	catFR1	4	R1383J
581.901	0.848	632234	WORD_OFF	n/a	n/a	PLANE	Vehicles	7	5	[0, 0, 0]	n/a	catFR1	4	R1383J
582.749	1.601	633087	WORD	n/a	wordpools/wordpool_categorized_EN.txt	VAN	Vehicles	8	5	[0, 0, 0]	n/a	catFR1	4	R1383J
584.35	0.882	634688	WORD_OFF	n/a	n/a	VAN	Vehicles	8	5	[0, 0, 0]	n/a	catFR1	4	R1383J
585.232	1.601	635567	WORD	n/a	wordpools/wordpool_categorized_EN.txt	STRAINER	Kitchentools	9	5	[0, 0, 0]	n/a	catFR1	4	R1383J
586.833	0.9	637168	WORD_OFF	n/a	n/a	STRAINER	Kitchentools	9	5	[0, 0, 0]	n/a	catFR1	4	R1383J
587.733	1.601	638073	WORD	n/a	wordpools/wordpool_categorized_EN.txt	KNIFE	Kitchentools	10	5	[0, 0, 0]	n/a	catFR1	4	R1383J
589.334	0.883	639674	WORD_OFF	n/a	n/a	KNIFE	Kitchentools	10	5	[0, 0, 0]	n/a	catFR1	4	R1383J
590.217	1.6	640553	WORD	n/a	wordpools/wordpool_categorized_EN.txt	CHIMPANZEE	Zoo	11	5	[0, 0, 0]	n/a	catFR1	4	R1383J
591.817	1.0	642154	WORD_OFF	n/a	n/a	CHIMPANZEE	Zoo	11	5	[0, 0, 0]	n/a	catFR1	4	R1383J
592.817	1.601	643155	WORD	n/a	wordpools/wordpool_categorized_EN.txt	MONKEY	Zoo	12	5	[0, 0, 0]	n/a	catFR1	4	R1383J
594.418	0.001	644754	PROB	5.598	n/a	n/a	n/a	-999	5	[7, 1, 3]	11.0	catFR1	4	R1383J
594.419	0.0	644755	START	n/a	n/a	n/a	n/a	-999	5	[-999, -999, -999]	n/a	catFR1	4	R1383J
594.417	0.002	644756	WORD_OFF	n/a	n/a	MONKEY	Zoo	12	5	[0, 0, 0]	n/a	catFR1	4	R1383J
594.419	0.0	644756	ENCODING_END	n/a	n/a	n/a	n/a	-999	5	[0, 0, 0]	n/a	catFR1	4	R1383J
594.419	5.616	644756	DISTRACT_START	n/a	n/a	n/a	n/a	-999	5	[0, 0, 0]	n/a	catFR1	4	R1383J
600.035	4.067	650371	PROB	4.049	n/a	n/a	n/a	-999	5	[5, 2, 2]	9.0	catFR1	4	R1383J
604.102	6.715	654438	PROB	6.699	n/a	n/a	n/a	-999	5	[6, 7, 6]	19.0	catFR1	4	R1383J
610.817	5.433	661153	PROB	5.417	n/a	n/a	n/a	-999	5	[1, 3, 7]	11.0	catFR1	4	R1383J
616.25	0.0	666585	STOP	n/a	n/a	n/a	n/a	-999	5	[-999, -999, -999]	n/a	catFR1	4	R1383J
616.25	1.3	666588	DISTRACT_END	n/a	n/a	n/a	n/a	-999	5	[0, 0, 0]	n/a	catFR1	4	R1383J
617.55	4.245	667885	REC_START	n/a	n/a	n/a	n/a	-999	5	[0, 0, 0]	n/a	catFR1	4	R1383J
621.795	2.037	672130	REC_WORD	4.245	n/a	BUS	Vehicles	1	5	[0, 0, 0]	n/a	catFR1	4	R1383J
623.832	1.618	674167	REC_WORD	6.282	n/a	BIKE	Vehicles	2	5	[0, 0, 0]	n/a	catFR1	4	R1383J
625.45	1.389	675785	REC_WORD	7.9	n/a	GORILLA	Zoo	3	5	[0, 0, 0]	n/a	catFR1	4	R1383J
626.839	2.05	677174	REC_WORD	9.289	n/a	CHIMPANZEE	Zoo	11	5	[0, 0, 0]	n/a	catFR1	4	R1383J
628.889	18.924	679224	REC_WORD	11.339	n/a	MONKEY	Zoo	12	5	[0, 0, 0]	n/a	catFR1	4	R1383J
647.813	4.337	698150	REC_END	n/a	n/a	n/a	n/a	-999	5	[0, 0, 0]	n/a	catFR1	4	R1383J
652.15	10.359	702483	COUNTDOWN_START	n/a	n/a	n/a	n/a	-999	6	[0, 0, 0]	n/a	catFR1	4	R1383J
662.509	0.0	712838	COUNTDOWN_END	n/a	n/a	n/a	n/a	-999	6	[0, 0, 0]	n/a	catFR1	4	R1383J
662.509	1.824	712847	ENCODING_START	n/a	n/a	n/a	n/a	-999	6	[0, 0, 0]	n/a	catFR1	4	R1383J
664.333	1.6	714666	WORD	n/a	wordpools/wordpool_categorized_EN.txt	UNDERWEAR	Clothing	1	6	[0, 0, 0]	n/a	catFR1	4	R1383J
665.933	0.833	716267	WORD_OFF	n/a	n/a	UNDERWEAR	Clothing	1	6	[0, 0, 0]	n/a	catFR1	4	R1383J
666.766	1.617	717102	WORD	n/a	wordpools/wordpool_categorized_EN.txt	JACKET	Clothing	2	6	[0, 0, 0]	n/a	catFR1	4	R1383J
668.383	0.983	718712	WORD_OFF	n/a	n/a	JACKET	Clothing	2	6	[0, 0, 0]	n/a	catFR1	4	R1383J
669.366	1.6	719695	WORD	n/a	wordpools/wordpool_categorized_EN.txt	GUITAR	Instruments	3	6	[0, 0, 0]	n/a	catFR1	4	R1383J
670.966	0.817	721296	WORD_OFF	n/a	n/a	GUITAR	Instruments	3	6	[0, 0, 0]	n/a	catFR1	4	R1383J
671.783	1.6	722114	WORD	n/a	wordpools/wordpool_categorized_EN.txt	ORGAN	Instruments	4	6	[0, 0, 0]	n/a	catFR1	4	R1383J
673.383	0.766	723715	WORD_OFF	n/a	n/a	ORGAN	Instruments	4	6	[0, 0, 0]	n/a	catFR1	4	R1383J
674.149	1.601	724481	WORD	n/a	wordpools/wordpool_categorized_EN.txt	TURTLE	Oceananimals	5	6	[0, 0, 0]	n/a	catFR1	4	R1383J
675.75	0.966	726082	WORD_OFF	n/a	n/a	TURTLE	Oceananimals	5	6	[0, 0, 0]	n/a	catFR1	4	R1383J
676.716	1.6	727048	WORD	n/a	wordpools/wordpool_categorized_EN.txt	WHALE	Oceananimals	6	6	[0, 0, 0]	n/a	catFR1	4	R1383J
678.316	0.967	728649	WORD_OFF	n/a	n/a	WHALE	Oceananimals	6	6	[0, 0, 0]	n/a	catFR1	4	R1383J
679.283	1.601	729615	WORD	n/a	wordpools/wordpool_categorized_EN.txt	VIOLIN	Instruments	7	6	[0, 0, 0]	n/a	catFR1	4	R1383J
680.884	0.916	731216	WORD_OFF	n/a	n/a	VIOLIN	Instruments	7	6	[0, 0, 0]	n/a	catFR1	4	R1383J
681.8	1.617	732130	WORD	n/a	wordpools/wordpool_categorized_EN.txt	TROMBONE	Instruments	8	6	[0, 0, 0]	n/a	catFR1	4	R1383J
683.417	0.9	733748	WORD_OFF	n/a	n/a	TROMBONE	Instruments	8	6	[0, 0, 0]	n/a	catFR1	4	R1383J
684.317	1.6	734653	WORD	n/a	wordpools/wordpool_categorized_EN.txt	SOCKS	Clothing	9	6	[0, 0, 0]	n/a	catFR1	4	R1383J
685.917	0.833	736246	WORD_OFF	n/a	n/a	SOCKS	Clothing	9	6	[0, 0, 0]	n/a	catFR1	4	R1383J
686.75	1.617	737081	WORD	n/a	wordpools/wordpool_categorized_EN.txt	SHORTS	Clothing	10	6	[0, 0, 0]	n/a	catFR1	4	R1383J
688.367	0.767	738708	WORD_OFF	n/a	n/a	SHORTS	Clothing	10	6	[0, 0, 0]	n/a	catFR1	4	R1383J
689.134	1.616	739465	WORD	n/a	wordpools/wordpool_categorized_EN.txt	SHRIMP	Oceananimals	11	6	[0, 0, 0]	n/a	catFR1	4	R1383J
690.75	0.95	741084	WORD_OFF	n/a	n/a	SHRIMP	Oceananimals	11	6	[0, 0, 0]	n/a	catFR1	4	R1383J
691.7	1.601	742032	WORD	n/a	wordpools/wordpool_categorized_EN.txt	FISH	Oceananimals	12	6	[0, 0, 0]	n/a	catFR1	4	R1383J
693.301	0.0	743633	PROB	4.499	n/a	n/a	n/a	-999	6	[2, 8, 2]	12.0	catFR1	4	R1383J
693.3	0.001	743634	WORD_OFF	n/a	n/a	FISH	Oceananimals	12	6	[0, 0, 0]	n/a	catFR1	4	R1383J
693.301	0.001	743634	ENCODING_END	n/a	n/a	n/a	n/a	-999	6	[0, 0, 0]	n/a	catFR1	4	R1383J
693.302	0.0	743634	DISTRACT_START	n/a	n/a	n/a	n/a	-999	6	[0, 0, 0]	n/a	catFR1	4	R1383J
693.302	4.516	743634	START	n/a	n/a	n/a	n/a	-999	6	[-999, -999, -999]	n/a	catFR1	4	R1383J
697.818	7.066	748150	PROB	7.049	n/a	n/a	n/a	-999	6	[4, 1, 2]	7.0	catFR1	4	R1383J
704.884	6.533	755216	PROB	6.515	n/a	n/a	n/a	-999	6	[5, 4, 6]	15.0	catFR1	4	R1383J
711.417	5.666	761749	PROB	5.65	n/a	n/a	n/a	-999	6	[5, 5, 2]	13.0	catFR1	4	R1383J
717.083	0.0	767414	STOP	n/a	n/a	n/a	n/a	-999	6	[-999, -999, -999]	n/a	catFR1	4	R1383J
717.083	1.116	767416	DISTRACT_END	n/a	n/a	n/a	n/a	-999	6	[0, 0, 0]	n/a	catFR1	4	R1383J
718.199	5.958	768529	REC_START	n/a	n/a	n/a	n/a	-999	6	[0, 0, 0]	n/a	catFR1	4	R1383J
724.157	1.612	774488	REC_WORD	5.958	n/a	PIANO	n/a	-999	6	[0, 0, 0]	n/a	catFR1	4	R1383J
725.769	1.27	776100	REC_WORD	7.57	n/a	TROMBONE	Instruments	8	6	[0, 0, 0]	n/a	catFR1	4	R1383J
727.039	7.35	777370	REC_WORD	8.84	n/a	GUITAR	Instruments	3	6	[0, 0, 0]	n/a	catFR1	4	R1383J
734.389	3.841	784720	REC_WORD	16.19	n/a	SHORTS	Clothing	10	6	[0, 0, 0]	n/a	catFR1	4	R1383J
738.23	10.213	788561	REC_WORD	20.031	n/a	UNDERWEAR	Clothing	1	6	[0, 0, 0]	n/a	catFR1	4	R1383J
748.443	2.491	798777	REC_END	n/a	n/a	n/a	n/a	-999	6	[0, 0, 0]	n/a	catFR1	4	R1383J
750.934	10.364	801265	COUNTDOWN_START	n/a	n/a	n/a	n/a	-999	7	[0, 0, 0]	n/a	catFR1	4	R1383J
761.298	0.0	811629	COUNTDOWN_END	n/a	n/a	n/a	n/a	-999	7	[0, 0, 0]	n/a	catFR1	4	R1383J
761.298	2.368	811629	ENCODING_START	n/a	n/a	n/a	n/a	-999	7	[0, 0, 0]	n/a	catFR1	4	R1383J
763.666	1.601	813996	WORD	n/a	wordpools/wordpool_categorized_EN.txt	SPIDER	Insects	1	7	[0, 0, 0]	n/a	catFR1	4	R1383J
765.267	0.966	815597	WORD_OFF	n/a	n/a	SPIDER	Insects	1	7	[0, 0, 0]	n/a	catFR1	4	R1383J
766.233	1.6	816563	WORD	n/a	wordpools/wordpool_categorized_EN.txt	LADYBUG	Insects	2	7	[0, 0, 0]	n/a	catFR1	4	R1383J
767.833	0.767	818164	WORD_OFF	n/a	n/a	LADYBUG	Insects	2	7	[0, 0, 0]	n/a	catFR1	4	R1383J
768.6	1.616	818930	WORD	n/a	wordpools/wordpool_categorized_EN.txt	BEAR	Zoo	3	7	[0, 0, 0]	n/a	catFR1	4	R1383J
770.216	0.817	820548	WORD_OFF	n/a	n/a	BEAR	Zoo	3	7	[0, 0, 0]	n/a	catFR1	4	R1383J
771.033	1.6	821366	WORD	n/a	wordpools/wordpool_categorized_EN.txt	GIRAFFE	Zoo	4	7	[0, 0, 0]	n/a	catFR1	4	R1383J
772.633	1.001	822959	WORD_OFF	n/a	n/a	GIRAFFE	Zoo	4	7	[0, 0, 0]	n/a	catFR1	4	R1383J
773.634	1.6	823959	WORD	n/a	wordpools/wordpool_categorized_EN.txt	DAFFODIL	Flowers	5	7	[0, 0, 0]	n/a	catFR1	4	R1383J
775.234	0.899	825561	WORD_OFF	n/a	n/a	DAFFODIL	Flowers	5	7	[0, 0, 0]	n/a	catFR1	4	R1383J
776.133	1.617	826466	WORD	n/a	wordpools/wordpool_categorized_EN.txt	CARNATION	Flowers	6	7	[0, 0, 0]	n/a	catFR1	4	R1383J
777.75	0.966	828075	WORD_OFF	n/a	n/a	CARNATION	Flowers	6	7	[0, 0, 0]	n/a	catFR1	4	R1383J
778.716	1.601	829041	WORD	n/a	wordpools/wordpool_categorized_EN.txt	FLY	Insects	7	7	[0, 0, 0]	n/a	catFR1	4	R1383J
780.317	0.866	830642	WORD_OFF	n/a	n/a	FLY	Insects	7	7	[0, 0, 0]	n/a	catFR1	4	R1383J
781.183	1.601	831513	WORD	n/a	wordpools/wordpool_categorized_EN.txt	MOTH	Insects	8	7	[0, 0, 0]	n/a	catFR1	4	R1383J
782.784	0.933	833114	WORD_OFF	n/a	n/a	MOTH	Insects	8	7	[0, 0, 0]	n/a	catFR1	4	R1383J
783.717	1.6	834045	WORD	n/a	wordpools/wordpool_categorized_EN.txt	ORANGUTAN	Zoo	9	7	[0, 0, 0]	n/a	catFR1	4	R1383J
785.317	0.917	835646	WORD_OFF	n/a	n/a	ORANGUTAN	Zoo	9	7	[0, 0, 0]	n/a	catFR1	4	R1383J
786.234	1.6	836560	WORD	n/a	wordpools/wordpool_categorized_EN.txt	ELEPHANT	Zoo	10	7	[0, 0, 0]	n/a	catFR1	4	R1383J
787.834	0.833	838161	WORD_OFF	n/a	n/a	ELEPHANT	Zoo	10	7	[0, 0, 0]	n/a	catFR1	4	R1383J
788.667	1.6	838996	WORD	n/a	wordpools/wordpool_categorized_EN.txt	LILY	Flowers	11	7	[0, 0, 0]	n/a	catFR1	4	R1383J
790.267	0.766	840597	WORD_OFF	n/a	n/a	LILY	Flowers	11	7	[0, 0, 0]	n/a	catFR1	4	R1383J
791.033	1.601	841363	WORD	n/a	wordpools/wordpool_categorized_EN.txt	SUNFLOWER	Flowers	12	7	[0, 0, 0]	n/a	catFR1	4	R1383J
792.634	0.001	842962	PROB	5.965	n/a	n/a	n/a	-999	7	[1, 3, 5]	9.0	catFR1	4	R1383J
792.635	0.0	842963	START	n/a	n/a	n/a	n/a	-999	7	[-999, -999, -999]	n/a	catFR1	4	R1383J
792.633	0.002	842964	WORD_OFF	n/a	n/a	SUNFLOWER	Flowers	12	7	[0, 0, 0]	n/a	catFR1	4	R1383J
792.635	0.0	842964	ENCODING_END	n/a	n/a	n/a	n/a	-999	7	[0, 0, 0]	n/a	catFR1	4	R1383J
792.635	5.981	842964	DISTRACT_START	n/a	n/a	n/a	n/a	-999	7	[0, 0, 0]	n/a	catFR1	4	R1383J
798.616	5.467	848944	PROB	5.45	n/a	n/a	n/a	-999	7	[4, 5, 6]	15.0	catFR1	4	R1383J
804.083	4.0	854411	PROB	3.983	n/a	n/a	n/a	-999	7	[7, 4, 2]	13.0	catFR1	4	R1383J
808.083	5.767	858411	PROB	5.751	n/a	n/a	n/a	-999	7	[7, 3, 6]	16.0	catFR1	4	R1383J
813.85	0.0	864178	STOP	n/a	n/a	n/a	n/a	-999	7	[-999, -999, -999]	n/a	catFR1	4	R1383J
813.85	1.249	864179	DISTRACT_END	n/a	n/a	n/a	n/a	-999	7	[0, 0, 0]	n/a	catFR1	4	R1383J
815.099	4.145	865423	REC_START	n/a	n/a	n/a	n/a	-999	7	[0, 0, 0]	n/a	catFR1	4	R1383J
819.244	2.289	869571	REC_WORD	4.145	n/a	SUNFLOWER	Flowers	12	7	[0, 0, 0]	n/a	catFR1	4	R1383J
821.533	10.07	871860	REC_WORD	6.434	n/a	LILY	Flowers	11	7	[0, 0, 0]	n/a	catFR1	4	R1383J
831.603	3.743	881930	REC_WORD	16.504	n/a	GIRAFFE	Zoo	4	7	[0, 0, 0]	n/a	catFR1	4	R1383J
835.346	10.03	885673	REC_WORD	20.247	n/a	ELEPHANT	Zoo	10	7	[0, 0, 0]	n/a	catFR1	4	R1383J
845.376	2.391	895705	REC_END	n/a	n/a	n/a	n/a	-999	7	[0, 0, 0]	n/a	catFR1	4	R1383J
847.767	10.36	898098	COUNTDOWN_START	n/a	n/a	n/a	n/a	-999	8	[0, 0, 0]	n/a	catFR1	4	R1383J
858.127	0.0	908453	COUNTDOWN_END	n/a	n/a	n/a	n/a	-999	8	[0, 0, 0]	n/a	catFR1	4	R1383J
858.127	1.957	908453	ENCODING_START	n/a	n/a	n/a	n/a	-999	8	[0, 0, 0]	n/a	catFR1	4	R1383J
860.084	1.616	910411	WORD	n/a	wordpools/wordpool_categorized_EN.txt	STRAWBERRY	Fruit	1	8	[0, 0, 0]	n/a	catFR1	4	R1383J
861.7	0.884	912030	WORD_OFF	n/a	n/a	STRAWBERRY	Fruit	1	8	[0, 0, 0]	n/a	catFR1	4	R1383J
862.584	1.6	912909	WORD	n/a	wordpools/wordpool_categorized_EN.txt	GRAPE	Fruit	2	8	[0, 0, 0]	n/a	catFR1	4	R1383J
864.184	0.883	914510	WORD_OFF	n/a	n/a	GRAPE	Fruit	2	8	[0, 0, 0]	n/a	catFR1	4	R1383J
865.067	1.6	915389	WORD	n/a	wordpools/wordpool_categorized_EN.txt	CORKSCREW	Kitchentools	3	8	[0, 0, 0]	n/a	catFR1	4	R1383J
866.667	0.783	916990	WORD_OFF	n/a	n/a	CORKSCREW	Kitchentools	3	8	[0, 0, 0]	n/a	catFR1	4	R1383J
867.45	1.6	917773	WORD	n/a	wordpools/wordpool_categorized_EN.txt	SPOON	Kitchentools	4	8	[0, 0, 0]	n/a	catFR1	4	R1383J
869.05	0.984	919374	WORD_OFF	n/a	n/a	SPOON	Kitchentools	4	8	[0, 0, 0]	n/a	catFR1	4	R1383J
870.034	1.615	920357	WORD	n/a	wordpools/wordpool_categorized_EN.txt	DOOR	Building	5	8	[0, 0, 0]	n/a	catFR1	4	R1383J
871.649	0.884	921976	WORD_OFF	n/a	n/a	DOOR	Building	5	8	[0, 0, 0]	n/a	catFR1	4	R1383J
872.533	1.601	922855	WORD	n/a	wordpools/wordpool_categorized_EN.txt	BATHROOM	Building	6	8	[0, 0, 0]	n/a	catFR1	4	R1383J
874.134	0.899	924456	WORD_OFF	n/a	n/a	BATHROOM	Building	6	8	[0, 0, 0]	n/a	catFR1	4	R1383J
875.033	1.601	925361	WORD	n/a	wordpools/wordpool_categorized_EN.txt	GRATER	Kitchentools	7	8	[0, 0, 0]	n/a	catFR1	4	R1383J
876.634	0.882	926962	WORD_OFF	n/a	n/a	GRATER	Kitchentools	7	8	[0, 0, 0]	n/a	catFR1	4	R1383J
877.516	1.601	927841	WORD	n/a	wordpools/wordpool_categorized_EN.txt	PEELER	Kitchentools	8	8	[0, 0, 0]	n/a	catFR1	4	R1383J
879.117	0.933	929442	WORD_OFF	n/a	n/a	PEELER	Kitchentools	8	8	[0, 0, 0]	n/a	catFR1	4	R1383J
880.05	1.6	930373	WORD	n/a	wordpools/wordpool_categorized_EN.txt	PLUM	Fruit	9	8	[0, 0, 0]	n/a	catFR1	4	R1383J
881.65	0.85	931974	WORD_OFF	n/a	n/a	PLUM	Fruit	9	8	[0, 0, 0]	n/a	catFR1	4	R1383J
882.5	1.6	932827	WORD	n/a	wordpools/wordpool_categorized_EN.txt	PEAR	Fruit	10	8	[0, 0, 0]	n/a	catFR1	4	R1383J
884.1	0.834	934428	WORD_OFF	n/a	n/a	PEAR	Fruit	10	8	[0, 0, 0]	n/a	catFR1	4	R1383J
884.934	1.599	935255	WORD	n/a	wordpools/wordpool_categorized_EN.txt	ATTIC	Building	11	8	[0, 0, 0]	n/a	catFR1	4	R1383J
886.533	0.866	936856	WORD_OFF	n/a	n/a	ATTIC	Building	11	8	[0, 0, 0]	n/a	catFR1	4	R1383J
887.399	1.618	937726	WORD	n/a	wordpools/wordpool_categorized_EN.txt	HALLWAY	Building	12	8	[0, 0, 0]	n/a	catFR1	4	R1383J
889.017	0.0	939342	START	n/a	n/a	n/a	n/a	-999	8	[-999, -999, -999]	n/a	catFR1	4	R1383J
889.017	0.0	939342	PROB	6.217	n/a	n/a	n/a	-999	8	[8, 1, 2]	11.0	catFR1	4	R1383J
889.016	0.001	939345	WORD_OFF	n/a	n/a	HALLWAY	Building	12	8	[0, 0, 0]	n/a	catFR1	4	R1383J
889.017	0.0	939345	ENCODING_END	n/a	n/a	n/a	n/a	-999	8	[0, 0, 0]	n/a	catFR1	4	R1383J
889.017	6.233	939345	DISTRACT_START	n/a	n/a	n/a	n/a	-999	8	[0, 0, 0]	n/a	catFR1	4	R1383J
895.25	5.1	945574	PROB	5.084	n/a	n/a	n/a	-999	8	[5, 2, 6]	13.0	catFR1	4	R1383J
900.35	5.467	950674	PROB	5.45	n/a	n/a	n/a	-999	8	[6, 1, 5]	12.0	catFR1	4	R1383J
905.817	4.249	956141	PROB	4.233	n/a	n/a	n/a	-999	8	[5, 2, 2]	9.0	catFR1	4	R1383J
910.066	0.0	960386	DISTRACT_END	n/a	n/a	n/a	n/a	-999	8	[0, 0, 0]	n/a	catFR1	4	R1383J
910.066	1.184	960390	STOP	n/a	n/a	n/a	n/a	-999	8	[-999, -999, -999]	n/a	catFR1	4	R1383J
911.25	2.871	961578	REC_START	n/a	n/a	n/a	n/a	-999	8	[0, 0, 0]	n/a	catFR1	4	R1383J
914.121	1.527	964444	REC_WORD	2.871	n/a	STRAWBERRY	Fruit	1	8	[0, 0, 0]	n/a	catFR1	4	R1383J
915.648	1.501	965971	REC_WORD	4.398	n/a	PEAR	Fruit	10	8	[0, 0, 0]	n/a	catFR1	4	R1383J
917.149	0.895	967472	REC_WORD	5.899	n/a	GRAPE	Fruit	2	8	[0, 0, 0]	n/a	catFR1	4	R1383J
918.044	13.05	968367	REC_WORD_VV	6.794	n/a	<>	n/a	-999	8	[0, 0, 0]	n/a	catFR1	4	R1383J
931.094	2.74	981417	REC_WORD	19.844	n/a	GRATER	Kitchentools	7	8	[0, 0, 0]	n/a	catFR1	4	R1383J
933.834	7.684	984157	REC_WORD	22.584	n/a	PEELER	Kitchentools	8	8	[0, 0, 0]	n/a	catFR1	4	R1383J
941.518	2.216	991842	REC_END	n/a	n/a	n/a	n/a	-999	8	[0, 0, 0]	n/a	catFR1	4	R1383J
943.734	10.359	994061	COUNTDOWN_START	n/a	n/a	n/a	n/a	-999	9	[0, 0, 0]	n/a	catFR1	4	R1383J
954.093	0.001	1004416	COUNTDOWN_END	n/a	n/a	n/a	n/a	-999	9	[0, 0, 0]	n/a	catFR1	4	R1383J
954.094	2.256	1004416	ENCODING_START	n/a	n/a	n/a	n/a	-999	9	[0, 0, 0]	n/a	catFR1	4	R1383J
956.35	1.6	1006670	WORD	n/a	wordpools/wordpool_categorized_EN.txt	PANTS	Clothing	1	9	[0, 0, 0]	n/a	catFR1	4	R1383J
957.95	0.934	1008271	WORD_OFF	n/a	n/a	PANTS	Clothing	1	9	[0, 0, 0]	n/a	catFR1	4	R1383J
958.884	1.6	1009202	WORD	n/a	wordpools/wordpool_categorized_EN.txt	SKIRT	Clothing	2	9	[0, 0, 0]	n/a	catFR1	4	R1383J
960.484	1.0	1010803	WORD_OFF	n/a	n/a	SKIRT	Clothing	2	9	[0, 0, 0]	n/a	catFR1	4	R1383J
961.484	1.616	1011804	WORD	n/a	wordpools/wordpool_categorized_EN.txt	RATCHET	Tools	3	9	[0, 0, 0]	n/a	catFR1	4	R1383J
963.1	0.834	1013423	WORD_OFF	n/a	n/a	RATCHET	Tools	3	9	[0, 0, 0]	n/a	catFR1	4	R1383J
963.934	1.6	1014258	WORD	n/a	wordpools/wordpool_categorized_EN.txt	SANDER	Tools	4	9	[0, 0, 0]	n/a	catFR1	4	R1383J
965.534	0.983	1015859	WORD_OFF	n/a	n/a	SANDER	Tools	4	9	[0, 0, 0]	n/a	catFR1	4	R1383J
966.517	1.6	1016842	WORD	n/a	wordpools/wordpool_categorized_EN.txt	CARDINAL	Birds	5	9	[0, 0, 0]	n/a	catFR1	4	R1383J
968.117	0.817	1018435	WORD_OFF	n/a	n/a	CARDINAL	Birds	5	9	[0, 0, 0]	n/a	catFR1	4	R1383J
968.934	1.6	1019253	WORD	n/a	wordpools/wordpool_categorized_EN.txt	PIGEON	Birds	6	9	[0, 0, 0]	n/a	catFR1	4	R1383J
970.534	0.849	1020854	WORD_OFF	n/a	n/a	PIGEON	Birds	6	9	[0, 0, 0]	n/a	catFR1	4	R1383J
971.383	1.601	1021707	WORD	n/a	wordpools/wordpool_categorized_EN.txt	DRILL	Tools	7	9	[0, 0, 0]	n/a	catFR1	4	R1383J
972.984	0.816	1023308	WORD_OFF	n/a	n/a	DRILL	Tools	7	9	[0, 0, 0]	n/a	catFR1	4	R1383J
973.8	1.6	1024117	WORD	n/a	wordpools/wordpool_categorized_EN.txt	LEVEL	Tools	8	9	[0, 0, 0]	n/a	catFR1	4	R1383J
975.4	0.833	1025718	WORD_OFF	n/a	n/a	LEVEL	Tools	8	9	[0, 0, 0]	n/a	catFR1	4	R1383J
976.233	1.6	1026554	WORD	n/a	wordpools/wordpool_categorized_EN.txt	BLOUSE	Clothing	9	9	[0, 0, 0]	n/a	catFR1	4	R1383J
977.833	0.766	1028155	WORD_OFF	n/a	n/a	BLOUSE	Clothing	9	9	[0, 0, 0]	n/a	catFR1	4	R1383J
978.599	1.601	1028920	WORD	n/a	wordpools/wordpool_categorized_EN.txt	COAT	Clothing	10	9	[0, 0, 0]	n/a	catFR1	4	R1383J
980.2	0.866	1030522	WORD_OFF	n/a	n/a	COAT	Clothing	10	9	[0, 0, 0]	n/a	catFR1	4	R1383J
981.066	1.601	1031383	WORD	n/a	wordpools/wordpool_categorized_EN.txt	DOVE	Birds	11	9	[0, 0, 0]	n/a	catFR1	4	R1383J
982.667	0.849	1032984	WORD_OFF	n/a	n/a	DOVE	Birds	11	9	[0, 0, 0]	n/a	catFR1	4	R1383J
983.516	1.617	1033837	WORD	n/a	wordpools/wordpool_categorized_EN.txt	ROBIN	Birds	12	9	[0, 0, 0]	n/a	catFR1	4	R1383J
985.133	0.002	1035455	WORD_OFF	n/a	n/a	ROBIN	Birds	12	9	[0, 0, 0]	n/a	catFR1	4	R1383J
985.135	0.0	1035455	ENCODING_END	n/a	n/a	n/a	n/a	-999	9	[0, 0, 0]	n/a	catFR1	4	R1383J
985.135	0.0	1035455	DISTRACT_START	n/a	n/a	n/a	n/a	-999	9	[0, 0, 0]	n/a	catFR1	4	R1383J
985.134	0.001	1035455	PROB	10.166	n/a	n/a	n/a	-999	9	[2, 5, 8]	15.0	catFR1	4	R1383J
985.135	10.181	1035456	START	n/a	n/a	n/a	n/a	-999	9	[-999, -999, -999]	n/a	catFR1	4	R1383J
995.316	6.183	1045636	PROB	6.167	n/a	n/a	n/a	-999	9	[6, 6, 8]	20.0	catFR1	4	R1383J
1001.499	3.901	1051819	PROB	3.884	n/a	n/a	n/a	-999	9	[7, 5, 1]	13.0	catFR1	4	R1383J
1005.4	0.0	1055720	STOP	n/a	n/a	n/a	n/a	-999	9	[-999, -999, -999]	n/a	catFR1	4	R1383J
1005.4	1.05	1055722	DISTRACT_END	n/a	n/a	n/a	n/a	-999	9	[0, 0, 0]	n/a	catFR1	4	R1383J
1006.45	12.83	1056766	REC_START	n/a	n/a	n/a	n/a	-999	9	[0, 0, 0]	n/a	catFR1	4	R1383J
1019.28	2.336	1069599	REC_WORD	12.83	n/a	PIGEON	Birds	6	9	[0, 0, 0]	n/a	catFR1	4	R1383J
1021.616	15.096	1071935	REC_WORD	15.166	n/a	CARDINAL	Birds	5	9	[0, 0, 0]	n/a	catFR1	4	R1383J
1036.712	2.521	1087031	REC_END	n/a	n/a	n/a	n/a	-999	9	[0, 0, 0]	n/a	catFR1	4	R1383J
1039.233	10.36	1089554	COUNTDOWN_START	n/a	n/a	n/a	n/a	-999	10	[0, 0, 0]	n/a	catFR1	4	R1383J
1049.593	0.0	1099909	COUNTDOWN_END	n/a	n/a	n/a	n/a	-999	10	[0, 0, 0]	n/a	catFR1	4	R1383J
1049.593	2.273	1099918	ENCODING_START	n/a	n/a	n/a	n/a	-999	10	[0, 0, 0]	n/a	catFR1	4	R1383J
1051.866	1.617	1102180	WORD	n/a	wordpools/wordpool_categorized_EN.txt	SHEEP	Farmanimals	1	10	[0, 0, 0]	n/a	catFR1	4	R1383J
1053.483	0.833	1103799	WORD_OFF	n/a	n/a	SHEEP	Farmanimals	1	10	[0, 0, 0]	n/a	catFR1	4	R1383J
1054.316	1.617	1104634	WORD	n/a	wordpools/wordpool_categorized_EN.txt	LAMB	Farmanimals	2	10	[0, 0, 0]	n/a	catFR1	4	R1383J
1055.933	0.949	1106253	WORD_OFF	n/a	n/a	LAMB	Farmanimals	2	10	[0, 0, 0]	n/a	catFR1	4	R1383J
1056.882	1.601	1107201	WORD	n/a	wordpools/wordpool_categorized_EN.txt	SEAGULL	Birds	3	10	[0, 0, 0]	n/a	catFR1	4	R1383J
1058.483	0.816	1108803	WORD_OFF	n/a	n/a	SEAGULL	Birds	3	10	[0, 0, 0]	n/a	catFR1	4	R1383J
1059.299	1.601	1109620	WORD	n/a	wordpools/wordpool_categorized_EN.txt	CROW	Birds	4	10	[0, 0, 0]	n/a	catFR1	4	R1383J
1060.9	0.95	1111222	WORD_OFF	n/a	n/a	CROW	Birds	4	10	[0, 0, 0]	n/a	catFR1	4	R1383J
1061.85	1.601	1112170	WORD	n/a	wordpools/wordpool_categorized_EN.txt	WHISK	Kitchentools	5	10	[0, 0, 0]	n/a	catFR1	4	R1383J
1063.451	0.783	1113771	WORD_OFF	n/a	n/a	WHISK	Kitchentools	5	10	[0, 0, 0]	n/a	catFR1	4	R1383J
1064.234	1.616	1114554	WORD	n/a	wordpools/wordpool_categorized_EN.txt	SPATULA	Kitchentools	6	10	[0, 0, 0]	n/a	catFR1	4	R1383J
1065.85	0.95	1116164	WORD_OFF	n/a	n/a	SPATULA	Kitchentools	6	10	[0, 0, 0]	n/a	catFR1	4	R1383J
1066.8	1.617	1117121	WORD	n/a	wordpools/wordpool_categorized_EN.txt	SPARROW	Birds	7	10	[0, 0, 0]	n/a	catFR1	4	R1383J
1068.417	0.917	1118731	WORD_OFF	n/a	n/a	SPARROW	Birds	7	10	[0, 0, 0]	n/a	catFR1	4	R1383J
1069.334	1.616	1119654	WORD	n/a	wordpools/wordpool_categorized_EN.txt	BLUEBIRD	Birds	8	10	[0, 0, 0]	n/a	catFR1	4	R1383J
1070.95	0.884	1121272	WORD_OFF	n/a	n/a	BLUEBIRD	Birds	8	10	[0, 0, 0]	n/a	catFR1	4	R1383J
1071.834	1.6	1122151	WORD	n/a	wordpools/wordpool_categorized_EN.txt	LADLE	Kitchentools	9	10	[0, 0, 0]	n/a	catFR1	4	R1383J
1073.434	0.799	1123752	WORD_OFF	n/a	n/a	LADLE	Kitchentools	9	10	[0, 0, 0]	n/a	catFR1	4	R1383J
1074.233	1.6	1124553	WORD	n/a	wordpools/wordpool_categorized_EN.txt	COLANDER	Kitchentools	10	10	[0, 0, 0]	n/a	catFR1	4	R1383J
1075.833	0.816	1126154	WORD_OFF	n/a	n/a	COLANDER	Kitchentools	10	10	[0, 0, 0]	n/a	catFR1	4	R1383J
1076.649	1.601	1126963	WORD	n/a	wordpools/wordpool_categorized_EN.txt	GOAT	Farmanimals	11	10	[0, 0, 0]	n/a	catFR1	4	R1383J
1078.25	0.966	1128564	WORD_OFF	n/a	n/a	GOAT	Farmanimals	11	10	[0, 0, 0]	n/a	catFR1	4	R1383J
1079.216	1.601	1129530	WORD	n/a	wordpools/wordpool_categorized_EN.txt	HEN	Farmanimals	12	10	[0, 0, 0]	n/a	catFR1	4	R1383J
1080.817	0.001	1131131	WORD_OFF	n/a	n/a	HEN	Farmanimals	12	10	[0, 0, 0]	n/a	catFR1	4	R1383J
1080.818	0.0	1131131	ENCODING_END	n/a	n/a	n/a	n/a	-999	10	[0, 0, 0]	n/a	catFR1	4	R1383J
1080.818	0.0	1131135	START	n/a	n/a	n/a	n/a	-999	10	[-999, -999, -999]	n/a	catFR1	4	R1383J
1080.818	0.0	1131135	PROB	9.949	n/a	n/a	n/a	-999	10	[8, 3, 7]	20.0	catFR1	4	R1383J
1080.818	9.966	1131140	DISTRACT_START	n/a	n/a	n/a	n/a	-999	10	[0, 0, 0]	n/a	catFR1	4	R1383J
1090.784	8.533	1141100	PROB	8.516	n/a	n/a	n/a	-999	10	[4, 3, 8]	15.0	catFR1	4	R1383J
1099.317	6.816	1149633	PROB	6.8	n/a	n/a	n/a	-999	10	[1, 6, 7]	14.0	catFR1	4	R1383J
1106.133	0.0	1156449	STOP	n/a	n/a	n/a	n/a	-999	10	[-999, -999, -999]	n/a	catFR1	4	R1383J
1106.133	1.15	1156453	DISTRACT_END	n/a	n/a	n/a	n/a	-999	10	[0, 0, 0]	n/a	catFR1	4	R1383J
1107.283	6.535	1157602	REC_START	n/a	n/a	n/a	n/a	-999	10	[0, 0, 0]	n/a	catFR1	4	R1383J
1113.818	0.99	1164133	REC_WORD	6.535	n/a	WHISK	Kitchentools	5	10	[0, 0, 0]	n/a	catFR1	4	R1383J
1114.808	3.329	1165123	REC_WORD	7.525	n/a	SPATULA	Kitchentools	6	10	[0, 0, 0]	n/a	catFR1	4	R1383J
1118.137	8.735	1168452	REC_WORD	10.854	n/a	GOAT	Farmanimals	11	10	[0, 0, 0]	n/a	catFR1	4	R1383J
1126.872	2.591	1177187	REC_WORD	19.589	n/a	SEAGULL	Birds	3	10	[0, 0, 0]	n/a	catFR1	4	R1383J
1129.463	8.082	1179778	REC_WORD	22.18	n/a	GOAT	Farmanimals	11	10	[0, 0, 0]	n/a	catFR1	4	R1383J
1137.545	4.405	1187858	REC_END	n/a	n/a	n/a	n/a	-999	10	[0, 0, 0]	n/a	catFR1	4	R1383J
1141.95	10.359	1192270	COUNTDOWN_START	n/a	n/a	n/a	n/a	-999	11	[0, 0, 0]	n/a	catFR1	4	R1383J
1152.309	0.0	1202625	COUNTDOWN_END	n/a	n/a	n/a	n/a	-999	11	[0, 0, 0]	n/a	catFR1	4	R1383J
1152.309	1.874	1202625	ENCODING_START	n/a	n/a	n/a	n/a	-999	11	[0, 0, 0]	n/a	catFR1	4	R1383J
1154.183	1.6	1204496	WORD	n/a	wordpools/wordpool_categorized_EN.txt	CHEESECAKE	Desserts	1	11	[0, 0, 0]	n/a	catFR1	4	R1383J
1155.783	0.85	1206097	WORD_OFF	n/a	n/a	CHEESECAKE	Desserts	1	11	[0, 0, 0]	n/a	catFR1	4	R1383J
1156.633	1.601	1206950	WORD	n/a	wordpools/wordpool_categorized_EN.txt	CUPCAKE	Desserts	2	11	[0, 0, 0]	n/a	catFR1	4	R1383J
1158.234	0.916	1208551	WORD_OFF	n/a	n/a	CUPCAKE	Desserts	2	11	[0, 0, 0]	n/a	catFR1	4	R1383J
1159.15	1.601	1209464	WORD	n/a	wordpools/wordpool_categorized_EN.txt	LEMON	Fruit	3	11	[0, 0, 0]	n/a	catFR1	4	R1383J
1160.751	0.783	1211065	WORD_OFF	n/a	n/a	LEMON	Fruit	3	11	[0, 0, 0]	n/a	catFR1	4	R1383J
1161.534	1.616	1211849	WORD	n/a	wordpools/wordpool_categorized_EN.txt	APPLE	Fruit	4	11	[0, 0, 0]	n/a	catFR1	4	R1383J
1163.15	0.967	1213467	WORD_OFF	n/a	n/a	APPLE	Fruit	4	11	[0, 0, 0]	n/a	catFR1	4	R1383J
1164.117	1.617	1214433	WORD	n/a	wordpools/wordpool_categorized_EN.txt	PIG	Farmanimals	5	11	[0, 0, 0]	n/a	catFR1	4	R1383J
1165.734	0.966	1216043	WORD_OFF	n/a	n/a	PIG	Farmanimals	5	11	[0, 0, 0]	n/a	catFR1	4	R1383J
1166.7	1.616	1217017	WORD	n/a	wordpools/wordpool_categorized_EN.txt	ROOSTER	Farmanimals	6	11	[0, 0, 0]	n/a	catFR1	4	R1383J
1168.316	1.001	1218627	WORD_OFF	n/a	n/a	ROOSTER	Farmanimals	6	11	[0, 0, 0]	n/a	catFR1	4	R1383J
1169.317	1.617	1219628	WORD	n/a	wordpools/wordpool_categorized_EN.txt	CHERRY	Fruit	7	11	[0, 0, 0]	n/a	catFR1	4	R1383J
1170.934	0.833	1221247	WORD_OFF	n/a	n/a	CHERRY	Fruit	7	11	[0, 0, 0]	n/a	catFR1	4	R1383J
1171.767	1.616	1222082	WORD	n/a	wordpools/wordpool_categorized_EN.txt	BANANA	Fruit	8	11	[0, 0, 0]	n/a	catFR1	4	R1383J
1173.383	0.984	1223700	WORD_OFF	n/a	n/a	BANANA	Fruit	8	11	[0, 0, 0]	n/a	catFR1	4	R1383J
1174.367	1.6	1224684	WORD	n/a	wordpools/wordpool_categorized_EN.txt	COBBLER	Desserts	9	11	[0, 0, 0]	n/a	catFR1	4	R1383J
1175.967	0.833	1226276	WORD_OFF	n/a	n/a	COBBLER	Desserts	9	11	[0, 0, 0]	n/a	catFR1	4	R1383J
1176.8	1.6	1227112	WORD	n/a	wordpools/wordpool_categorized_EN.txt	JELLO	Desserts	10	11	[0, 0, 0]	n/a	catFR1	4	R1383J
1178.4	0.967	1228713	WORD_OFF	n/a	n/a	JELLO	Desserts	10	11	[0, 0, 0]	n/a	catFR1	4	R1383J
1179.367	1.6	1229679	WORD	n/a	wordpools/wordpool_categorized_EN.txt	COW	Farmanimals	11	11	[0, 0, 0]	n/a	catFR1	4	R1383J
1180.967	0.983	1231280	WORD_OFF	n/a	n/a	COW	Farmanimals	11	11	[0, 0, 0]	n/a	catFR1	4	R1383J
1181.95	1.617	1232263	WORD	n/a	wordpools/wordpool_categorized_EN.txt	CALF	Farmanimals	12	11	[0, 0, 0]	n/a	catFR1	4	R1383J
1183.567	0.0	1233880	PROB	7.283	n/a	n/a	n/a	-999	11	[2, 2, 7]	12.0	catFR1	4	R1383J
1183.567	0.001	1233881	WORD_OFF	n/a	n/a	CALF	Farmanimals	12	11	[0, 0, 0]	n/a	catFR1	4	R1383J
1183.568	0.0	1233881	ENCODING_END	n/a	n/a	n/a	n/a	-999	11	[0, 0, 0]	n/a	catFR1	4	R1383J
1183.568	0.0	1233881	DISTRACT_START	n/a	n/a	n/a	n/a	-999	11	[0, 0, 0]	n/a	catFR1	4	R1383J
1183.568	7.299	1233881	START	n/a	n/a	n/a	n/a	-999	11	[-999, -999, -999]	n/a	catFR1	4	R1383J
1190.867	16.317	1241179	PROB	16.299	n/a	n/a	n/a	-999	11	[1, 8, 7]	17.0	catFR1	4	R1383J
1207.184	0.0	1257496	STOP	n/a	n/a	n/a	n/a	-999	11	[-999, -999, -999]	n/a	catFR1	4	R1383J
1207.184	1.133	1257498	DISTRACT_END	n/a	n/a	n/a	n/a	-999	11	[0, 0, 0]	n/a	catFR1	4	R1383J
1208.317	3.714	1258629	REC_START	n/a	n/a	n/a	n/a	-999	11	[0, 0, 0]	n/a	catFR1	4	R1383J
1212.031	2.255	1262342	REC_WORD	3.714	n/a	CHEESECAKE	Desserts	1	11	[0, 0, 0]	n/a	catFR1	4	R1383J
1214.286	24.294	1264597	REC_WORD	5.969	n/a	CUPCAKE	Desserts	2	11	[0, 0, 0]	n/a	catFR1	4	R1383J
1238.58	3.236	1288894	REC_END	n/a	n/a	n/a	n/a	-999	11	[0, 0, 0]	n/a	catFR1	4	R1383J
1241.816	10.368	1292131	COUNTDOWN_START	n/a	n/a	n/a	n/a	-999	12	[0, 0, 0]	n/a	catFR1	4	R1383J
1252.184	0.0	1302495	COUNTDOWN_END	n/a	n/a	n/a	n/a	-999	12	[0, 0, 0]	n/a	catFR1	4	R1383J
1252.184	2.25	1302495	ENCODING_START	n/a	n/a	n/a	n/a	-999	12	[0, 0, 0]	n/a	catFR1	4	R1383J
1254.434	1.599	1304740	WORD	n/a	wordpools/wordpool_categorized_EN.txt	WINE	Beverages	1	12	[0, 0, 0]	n/a	catFR1	4	R1383J
1256.033	0.834	1306341	WORD_OFF	n/a	n/a	WINE	Beverages	1	12	[0, 0, 0]	n/a	catFR1	4	R1383J
1256.867	1.6	1307176	WORD	n/a	wordpools/wordpool_categorized_EN.txt	JUICE	Beverages	2	12	[0, 0, 0]	n/a	catFR1	4	R1383J
1258.467	0.899	1308777	WORD_OFF	n/a	n/a	JUICE	Beverages	2	12	[0, 0, 0]	n/a	catFR1	4	R1383J
1259.366	1.601	1309674	WORD	n/a	wordpools/wordpool_categorized_EN.txt	BULL	Farmanimals	3	12	[0, 0, 0]	n/a	catFR1	4	R1383J
1260.967	0.782	1311275	WORD_OFF	n/a	n/a	BULL	Farmanimals	3	12	[0, 0, 0]	n/a	catFR1	4	R1383J
1261.749	1.601	1312058	WORD	n/a	wordpools/wordpool_categorized_EN.txt	CHICKEN	Farmanimals	4	12	[0, 0, 0]	n/a	catFR1	4	R1383J
1263.35	0.933	1313659	WORD_OFF	n/a	n/a	CHICKEN	Farmanimals	4	12	[0, 0, 0]	n/a	catFR1	4	R1383J
1264.283	1.6	1314590	WORD	n/a	wordpools/wordpool_categorized_EN.txt	FUDGE	Desserts	5	12	[0, 0, 0]	n/a	catFR1	4	R1383J
1265.883	0.884	1316191	WORD_OFF	n/a	n/a	FUDGE	Desserts	5	12	[0, 0, 0]	n/a	catFR1	4	R1383J
1266.767	1.6	1317079	WORD	n/a	wordpools/wordpool_categorized_EN.txt	PIE	Desserts	6	12	[0, 0, 0]	n/a	catFR1	4	R1383J
1268.367	0.783	1318680	WORD_OFF	n/a	n/a	PIE	Desserts	6	12	[0, 0, 0]	n/a	catFR1	4	R1383J
1269.15	1.617	1319463	WORD	n/a	wordpools/wordpool_categorized_EN.txt	HORSE	Farmanimals	7	12	[0, 0, 0]	n/a	catFR1	4	R1383J
1270.767	0.832	1321073	WORD_OFF	n/a	n/a	HORSE	Farmanimals	7	12	[0, 0, 0]	n/a	catFR1	4	R1383J
1271.599	1.6	1321908	WORD	n/a	wordpools/wordpool_categorized_EN.txt	TURKEY	Farmanimals	8	12	[0, 0, 0]	n/a	catFR1	4	R1383J
1273.199	0.901	1323509	WORD_OFF	n/a	n/a	TURKEY	Farmanimals	8	12	[0, 0, 0]	n/a	catFR1	4	R1383J
1274.1	1.6	1324406	WORD	n/a	wordpools/wordpool_categorized_EN.txt	PUDDING	Desserts	9	12	[0, 0, 0]	n/a	catFR1	4	R1383J
1275.7	0.85	1326007	WORD_OFF	n/a	n/a	PUDDING	Desserts	9	12	[0, 0, 0]	n/a	catFR1	4	R1383J
1276.55	1.616	1326860	WORD	n/a	wordpools/wordpool_categorized_EN.txt	CAKE	Desserts	10	12	[0, 0, 0]	n/a	catFR1	4	R1383J
1278.166	0.834	1328478	WORD_OFF	n/a	n/a	CAKE	Desserts	10	12	[0, 0, 0]	n/a	catFR1	4	R1383J
1279.0	1.6	1329314	WORD	n/a	wordpools/wordpool_categorized_EN.txt	CIDER	Beverages	11	12	[0, 0, 0]	n/a	catFR1	4	R1383J
1280.6	0.984	1330906	WORD_OFF	n/a	n/a	CIDER	Beverages	11	12	[0, 0, 0]	n/a	catFR1	4	R1383J
1281.584	1.616	1331889	WORD	n/a	wordpools/wordpool_categorized_EN.txt	COLA	Beverages	12	12	[0, 0, 0]	n/a	catFR1	4	R1383J
1283.2	0.001	1333508	WORD_OFF	n/a	n/a	COLA	Beverages	12	12	[0, 0, 0]	n/a	catFR1	4	R1383J
1283.201	0.0	1333508	ENCODING_END	n/a	n/a	n/a	n/a	-999	12	[0, 0, 0]	n/a	catFR1	4	R1383J
1283.201	0.0	1333510	START	n/a	n/a	n/a	n/a	-999	12	[-999, -999, -999]	n/a	catFR1	4	R1383J
1283.201	0.0	1333510	PROB	10.966	n/a	n/a	n/a	-999	12	[5, 3, 7]	15.0	catFR1	4	R1383J
1283.201	10.983	1333516	DISTRACT_START	n/a	n/a	n/a	n/a	-999	12	[0, 0, 0]	n/a	catFR1	4	R1383J
1294.184	4.35	1344492	PROB	4.333	n/a	n/a	n/a	-999	12	[3, 4, 6]	13.0	catFR1	4	R1383J
1298.534	5.016	1348842	PROB	4.999	n/a	n/a	n/a	-999	12	[7, 4, 3]	14.0	catFR1	4	R1383J
1303.55	0.0	1353858	STOP	n/a	n/a	n/a	n/a	-999	12	[-999, -999, -999]	n/a	catFR1	4	R1383J
1303.55	1.317	1353861	DISTRACT_END	n/a	n/a	n/a	n/a	-999	12	[0, 0, 0]	n/a	catFR1	4	R1383J
1304.867	21.824	1355175	REC_START	n/a	n/a	n/a	n/a	-999	12	[0, 0, 0]	n/a	catFR1	4	R1383J
1326.691	5.571	1376998	REC_WORD	21.824	n/a	STRAWBERRY	Fruit	-999	12	[0, 0, 0]	n/a	catFR1	4	R1383J
1332.262	2.879	1382569	REC_WORD	27.395	n/a	BULL	Farmanimals	3	12	[0, 0, 0]	n/a	catFR1	4	R1383J
1335.141	0.0	1385449	REC_END	n/a	n/a	n/a	n/a	-999	12	[0, 0, 0]	n/a	catFR1	4	R1383J
