onset	duration	sample	trial_type	response_time	stim_file	item_name	category	serialpos	list	test	answer	experiment	session	subject
0.0	54.951	13406	SESS_START	n/a	n/a	n/a	n/a	-999	-999	[0, 0, 0]	n/a	catFR1	0	R1086M
54.951	10.428	40879	COUNTDOWN_START	n/a	n/a	n/a	n/a	-999	-999	[0, 0, 0]	n/a	catFR1	0	R1086M
65.379	3.591	46093	COUNTDOWN_END	n/a	n/a	n/a	n/a	-999	-999	[0, 0, 0]	n/a	catFR1	0	R1086M
68.97	2.534	47888	PRACTICE_WORD	n/a	n/a	WAGON	n/a	-999	-999	[0, 0, 0]	n/a	catFR1	0	R1086M
71.504	2.467	49155	PRACTICE_WORD	n/a	n/a	COTTON	n/a	-999	-999	[0, 0, 0]	n/a	catFR1	0	R1086M
73.971	2.451	50389	PRACTICE_WORD	n/a	n/a	RING	n/a	-999	-999	[0, 0, 0]	n/a	catFR1	0	R1086M
76.422	2.401	51614	PRACTICE_WORD	n/a	n/a	FLOOD	n/a	-999	-999	[0, 0, 0]	n/a	catFR1	0	R1086M
78.823	2.466	52814	PRACTICE_WORD	n/a	n/a	BEAM	n/a	-999	-999	[0, 0, 0]	n/a	catFR1	0	R1086M
81.289	2.451	54047	PRACTICE_WORD	n/a	n/a	ATTIC	n/a	-999	-999	[0, 0, 0]	n/a	catFR1	0	R1086M
83.74	2.383	55273	PRACTICE_WORD	n/a	n/a	CAMEL	n/a	-999	-999	[0, 0, 0]	n/a	catFR1	0	R1086M
86.123	2.401	56464	PRACTICE_WORD	n/a	n/a	TONGUE	n/a	-999	-999	[0, 0, 0]	n/a	catFR1	0	R1086M
88.524	2.5	57665	PRACTICE_WORD	n/a	n/a	WATCH	n/a	-999	-999	[0, 0, 0]	n/a	catFR1	0	R1086M
91.024	2.484	58915	PRACTICE_WORD	n/a	n/a	CHEST	n/a	-999	-999	[0, 0, 0]	n/a	catFR1	0	R1086M
93.508	2.567	60156	PRACTICE_WORD	n/a	n/a	IRON	n/a	-999	-999	[0, 0, 0]	n/a	catFR1	0	R1086M
96.075	1.617	61440	PRACTICE_WORD	n/a	n/a	RHINO	n/a	-999	-999	[0, 0, 0]	n/a	catFR1	0	R1086M
97.692	0.001	62248	PRACTICE_DISTRACT_START	n/a	n/a	n/a	n/a	-999	-999	[0, 0, 0]	n/a	catFR1	0	R1086M
97.693	0.016	62249	START	n/a	n/a	n/a	n/a	-999	-1	[-999, -999, -999]	n/a	catFR1	0	R1086M
97.709	19.671	62257	PROB	19.671	n/a	n/a	n/a	-999	-1	[1, 8, 2]	11	catFR1	0	R1086M
117.38	3.019	72092	PROB	3.019	n/a	n/a	n/a	-999	-1	[8, 1, 2]	10	catFR1	0	R1086M
120.399	0.015	73601	STOP	n/a	n/a	n/a	n/a	-999	-1	[-999, -999, -999]	n/a	catFR1	0	R1086M
120.414	0.584	73608	PRACTICE_DISTRACT_END	n/a	n/a	n/a	n/a	-999	-999	[0, 0, 0]	n/a	catFR1	0	R1086M
120.998	30.516	73900	PRACTICE_REC_START	n/a	n/a	n/a	n/a	-999	-999	[0, 0, 0]	n/a	catFR1	0	R1086M
151.514	35.629	89157	PRACTICE_REC_END	n/a	n/a	n/a	n/a	-999	-999	[0, 0, 0]	n/a	catFR1	0	R1086M
187.143	0.0	106971	TRIAL	n/a	n/a	n/a	n/a	-999	1	[0, 0, 0]	n/a	catFR1	0	R1086M
187.143	10.428	106971	COUNTDOWN_START	n/a	n/a	n/a	n/a	-999	1	[0, 0, 0]	n/a	catFR1	0	R1086M
197.571	0.008	112184	COUNTDOWN_END	n/a	n/a	n/a	n/a	-999	1	[0, 0, 0]	n/a	catFR1	0	R1086M
197.579	3.6	112188	ORIENT	n/a	n/a	n/a	n/a	-999	1	[0, 0, 0]	n/a	catFR1	0	R1086M
201.179	2.434	113988	WORD	n/a	wordpools/wordpool_categorized_EN.txt	WHISK	KitchenTools	1	1	[0, 0, 0]	n/a	catFR1	0	R1086M
203.613	2.501	115205	WORD	n/a	wordpools/wordpool_categorized_EN.txt	KNIFE	KitchenTools	2	1	[0, 0, 0]	n/a	catFR1	0	R1086M
206.114	2.5	116456	WORD	n/a	wordpools/wordpool_categorized_EN.txt	GORILLA	Zoo	3	1	[0, 0, 0]	n/a	catFR1	0	R1086M
208.614	2.534	117705	WORD	n/a	wordpools/wordpool_categorized_EN.txt	BEAR	Zoo	4	1	[0, 0, 0]	n/a	catFR1	0	R1086M
211.148	2.5	118972	WORD	n/a	wordpools/wordpool_categorized_EN.txt	HALLWAY	Building	5	1	[0, 0, 0]	n/a	catFR1	0	R1086M
213.648	2.434	120222	WORD	n/a	wordpools/wordpool_categorized_EN.txt	WINDOW	Building	6	1	[0, 0, 0]	n/a	catFR1	0	R1086M
216.082	2.451	121439	WORD	n/a	wordpools/wordpool_categorized_EN.txt	TONGS	KitchenTools	7	1	[0, 0, 0]	n/a	catFR1	0	R1086M
218.533	2.417	122665	WORD	n/a	wordpools/wordpool_categorized_EN.txt	PEELER	KitchenTools	8	1	[0, 0, 0]	n/a	catFR1	0	R1086M
220.95	2.5	123873	WORD	n/a	wordpools/wordpool_categorized_EN.txt	CEILING	Building	9	1	[0, 0, 0]	n/a	catFR1	0	R1086M
223.45	2.484	125123	WORD	n/a	wordpools/wordpool_categorized_EN.txt	ROOM	Building	10	1	[0, 0, 0]	n/a	catFR1	0	R1086M
225.934	2.584	126365	WORD	n/a	wordpools/wordpool_categorized_EN.txt	CHEETAH	Zoo	11	1	[0, 0, 0]	n/a	catFR1	0	R1086M
228.518	1.617	127657	WORD	n/a	wordpools/wordpool_categorized_EN.txt	ZEBRA	Zoo	12	1	[0, 0, 0]	n/a	catFR1	0	R1086M
230.135	0.001	128465	DISTRACT_START	n/a	n/a	n/a	n/a	-999	1	[0, 0, 0]	n/a	catFR1	0	R1086M
230.136	0.016	128466	START	n/a	n/a	n/a	n/a	-999	1	[-999, -999, -999]	n/a	catFR1	0	R1086M
230.152	10.185	128474	PROB	10.185	n/a	n/a	n/a	-999	1	[3, 1, 3]	7	catFR1	0	R1086M
240.337	5.017	133566	PROB	5.017	n/a	n/a	n/a	-999	1	[7, 7, 6]	20	catFR1	0	R1086M
245.354	2.768	136074	PROB	2.768	n/a	n/a	n/a	-999	1	[4, 6, 1]	11	catFR1	0	R1086M
248.122	3.9	137458	PROB	3.9	n/a	n/a	n/a	-999	1	[5, 1, 3]	9	catFR1	0	R1086M
252.022	0.017	139408	STOP	n/a	n/a	n/a	n/a	-999	1	[-999, -999, -999]	n/a	catFR1	0	R1086M
252.039	1.171	139416	DISTRACT_END	n/a	n/a	n/a	n/a	-999	1	[0, 0, 0]	n/a	catFR1	0	R1086M
253.21	1.987	140002	REC_START	n/a	n/a	n/a	n/a	-999	1	[0, 0, 0]	n/a	catFR1	0	R1086M
255.197	3.707	140995	REC_WORD_VV	3.707	n/a	<>	n/a	-999	1	[0, 0, 0]	n/a	catFR1	0	R1086M
258.904	1.184	142849	REC_WORD	1.184	n/a	TONGUE	n/a	-999	1	[0, 0, 0]	n/a	catFR1	0	R1086M
260.088	4.762	143441	REC_WORD	4.762	n/a	WAGON	n/a	-999	1	[0, 0, 0]	n/a	catFR1	0	R1086M
264.85	1.216	145821	REC_WORD	1.216	n/a	CHEETAH	Zoo	11	1	[0, 0, 0]	n/a	catFR1	0	R1086M
266.066	17.149	146429	REC_WORD	17.149	n/a	BEAR	Zoo	4	1	[0, 0, 0]	n/a	catFR1	0	R1086M
283.215	20.434	155003	REC_END	n/a	n/a	n/a	n/a	-999	1	[0, 0, 0]	n/a	catFR1	0	R1086M
303.649	0.0	165220	TRIAL	n/a	n/a	n/a	n/a	-999	2	[0, 0, 0]	n/a	catFR1	0	R1086M
303.649	10.428	165220	COUNTDOWN_START	n/a	n/a	n/a	n/a	-999	2	[0, 0, 0]	n/a	catFR1	0	R1086M
314.077	0.008	170433	COUNTDOWN_END	n/a	n/a	n/a	n/a	-999	2	[0, 0, 0]	n/a	catFR1	0	R1086M
314.085	3.85	170437	ORIENT	n/a	n/a	n/a	n/a	-999	2	[0, 0, 0]	n/a	catFR1	0	R1086M
317.935	2.384	172362	WORD	n/a	wordpools/wordpool_categorized_EN.txt	HURRICANE	Weather	1	2	[0, 0, 0]	n/a	catFR1	0	R1086M
320.319	2.567	173554	WORD	n/a	wordpools/wordpool_categorized_EN.txt	WIND	Weather	2	2	[0, 0, 0]	n/a	catFR1	0	R1086M
322.886	2.534	174837	WORD	n/a	wordpools/wordpool_categorized_EN.txt	SPARROW	Birds	3	2	[0, 0, 0]	n/a	catFR1	0	R1086M
325.42	2.451	176104	WORD	n/a	wordpools/wordpool_categorized_EN.txt	ROBIN	Birds	4	2	[0, 0, 0]	n/a	catFR1	0	R1086M
327.871	2.4	177330	WORD	n/a	wordpools/wordpool_categorized_EN.txt	DOLL	Toys	5	2	[0, 0, 0]	n/a	catFR1	0	R1086M
330.271	2.417	178530	WORD	n/a	wordpools/wordpool_categorized_EN.txt	BARBIE	Toys	6	2	[0, 0, 0]	n/a	catFR1	0	R1086M
332.688	2.584	179738	WORD	n/a	wordpools/wordpool_categorized_EN.txt	FOG	Weather	7	2	[0, 0, 0]	n/a	catFR1	0	R1086M
335.272	2.467	181030	WORD	n/a	wordpools/wordpool_categorized_EN.txt	LIGHTNING	Weather	8	2	[0, 0, 0]	n/a	catFR1	0	R1086M
337.739	2.401	182263	WORD	n/a	wordpools/wordpool_categorized_EN.txt	PUZZLE	Toys	9	2	[0, 0, 0]	n/a	catFR1	0	R1086M
340.14	2.567	183464	WORD	n/a	wordpools/wordpool_categorized_EN.txt	FRISBEE	Toys	10	2	[0, 0, 0]	n/a	catFR1	0	R1086M
342.707	2.55	184747	WORD	n/a	wordpools/wordpool_categorized_EN.txt	HAWK	Birds	11	2	[0, 0, 0]	n/a	catFR1	0	R1086M
345.257	1.617	186022	WORD	n/a	wordpools/wordpool_categorized_EN.txt	CROW	Birds	12	2	[0, 0, 0]	n/a	catFR1	0	R1086M
346.874	0.001	186831	DISTRACT_START	n/a	n/a	n/a	n/a	-999	2	[0, 0, 0]	n/a	catFR1	0	R1086M
346.875	0.016	186831	START	n/a	n/a	n/a	n/a	-999	2	[-999, -999, -999]	n/a	catFR1	0	R1086M
346.891	6.835	186839	PROB	6.835	n/a	n/a	n/a	-999	2	[2, 4, 7]	13	catFR1	0	R1086M
353.726	3.034	190256	PROB	3.034	n/a	n/a	n/a	-999	2	[3, 1, 6]	10	catFR1	0	R1086M
356.76	3.084	191773	PROB	3.084	n/a	n/a	n/a	-999	2	[5, 7, 6]	18	catFR1	0	R1086M
359.844	2.433	193315	PROB	2.433	n/a	n/a	n/a	-999	2	[6, 4, 2]	12	catFR1	0	R1086M
362.277	4.401	194532	PROB	4.401	n/a	n/a	n/a	-999	2	[3, 9, 4]	16	catFR1	0	R1086M
366.678	2.193	196732	PROB	2.193	n/a	n/a	n/a	-999	2	[5, 1, 5]	11	catFR1	0	R1086M
368.871	0.008	197828	STOP	n/a	n/a	n/a	n/a	-999	2	[-999, -999, -999]	n/a	catFR1	0	R1086M
368.879	1.151	197832	DISTRACT_END	n/a	n/a	n/a	n/a	-999	2	[0, 0, 0]	n/a	catFR1	0	R1086M
370.03	1.757	198408	REC_START	n/a	n/a	n/a	n/a	-999	2	[0, 0, 0]	n/a	catFR1	0	R1086M
371.787	1.14	199286	REC_WORD	1.14	n/a	HURRICANE	Weather	1	2	[0, 0, 0]	n/a	catFR1	0	R1086M
372.927	2.553	199856	REC_WORD	2.553	n/a	WIND	Weather	2	2	[0, 0, 0]	n/a	catFR1	0	R1086M
375.48	1.41	201133	REC_WORD_VV	1.41	n/a	<>	n/a	-999	2	[0, 0, 0]	n/a	catFR1	0	R1086M
376.89	23.15	201838	REC_WORD_VV	23.15	n/a	<>	n/a	-999	2	[0, 0, 0]	n/a	catFR1	0	R1086M
400.04	18.848	213412	REC_END	n/a	n/a	n/a	n/a	-999	2	[0, 0, 0]	n/a	catFR1	0	R1086M
418.888	0.0	222835	TRIAL	n/a	n/a	n/a	n/a	-999	3	[0, 0, 0]	n/a	catFR1	0	R1086M
418.888	10.428	222835	COUNTDOWN_START	n/a	n/a	n/a	n/a	-999	3	[0, 0, 0]	n/a	catFR1	0	R1086M
429.316	0.008	228049	COUNTDOWN_END	n/a	n/a	n/a	n/a	-999	3	[0, 0, 0]	n/a	catFR1	0	R1086M
429.324	3.817	228053	ORIENT	n/a	n/a	n/a	n/a	-999	3	[0, 0, 0]	n/a	catFR1	0	R1086M
433.141	2.484	229961	WORD	n/a	wordpools/wordpool_categorized_EN.txt	LAMB	FarmAnimals	1	3	[0, 0, 0]	n/a	catFR1	0	R1086M
435.625	2.433	231203	WORD	n/a	wordpools/wordpool_categorized_EN.txt	CALF	FarmAnimals	2	3	[0, 0, 0]	n/a	catFR1	0	R1086M
438.058	2.384	232419	WORD	n/a	wordpools/wordpool_categorized_EN.txt	LIME	Fruit	3	3	[0, 0, 0]	n/a	catFR1	0	R1086M
440.442	2.601	233611	WORD	n/a	wordpools/wordpool_categorized_EN.txt	LEMON	Fruit	4	3	[0, 0, 0]	n/a	catFR1	0	R1086M
443.043	2.467	234912	WORD	n/a	wordpools/wordpool_categorized_EN.txt	COOKIE	Desserts	5	3	[0, 0, 0]	n/a	catFR1	0	R1086M
445.51	2.467	236145	WORD	n/a	wordpools/wordpool_categorized_EN.txt	PIE	Desserts	6	3	[0, 0, 0]	n/a	catFR1	0	R1086M
447.977	2.534	237379	WORD	n/a	wordpools/wordpool_categorized_EN.txt	PIG	FarmAnimals	7	3	[0, 0, 0]	n/a	catFR1	0	R1086M
450.511	2.417	238645	WORD	n/a	wordpools/wordpool_categorized_EN.txt	SHEEP	FarmAnimals	8	3	[0, 0, 0]	n/a	catFR1	0	R1086M
452.928	2.501	239854	WORD	n/a	wordpools/wordpool_categorized_EN.txt	COBBLER	Desserts	9	3	[0, 0, 0]	n/a	catFR1	0	R1086M
455.429	2.401	241104	WORD	n/a	wordpools/wordpool_categorized_EN.txt	CUPCAKE	Desserts	10	3	[0, 0, 0]	n/a	catFR1	0	R1086M
457.83	2.383	242305	WORD	n/a	wordpools/wordpool_categorized_EN.txt	BANANA	Fruit	11	3	[0, 0, 0]	n/a	catFR1	0	R1086M
460.213	1.601	243496	WORD	n/a	wordpools/wordpool_categorized_EN.txt	PLUM	Fruit	12	3	[0, 0, 0]	n/a	catFR1	0	R1086M
461.814	0.001	244297	DISTRACT_START	n/a	n/a	n/a	n/a	-999	3	[0, 0, 0]	n/a	catFR1	0	R1086M
461.815	0.016	244297	START	n/a	n/a	n/a	n/a	-999	3	[-999, -999, -999]	n/a	catFR1	0	R1086M
461.831	9.201	244305	PROB	9.201	n/a	n/a	n/a	-999	3	[4, 8, 3]	15	catFR1	0	R1086M
471.032	5.234	248905	PROB	5.234	n/a	n/a	n/a	-999	3	[7, 3, 9]	19	catFR1	0	R1086M
476.266	4.134	251522	PROB	4.134	n/a	n/a	n/a	-999	3	[5, 6, 4]	15	catFR1	0	R1086M
480.4	4.638	253589	PROB	4.638	n/a	n/a	n/a	-999	3	[5, 6, 8]	19	catFR1	0	R1086M
485.038	0.013	255908	STOP	n/a	n/a	n/a	n/a	-999	3	[-999, -999, -999]	n/a	catFR1	0	R1086M
485.051	1.034	255914	DISTRACT_END	n/a	n/a	n/a	n/a	-999	3	[0, 0, 0]	n/a	catFR1	0	R1086M
486.085	3.236	256431	REC_START	n/a	n/a	n/a	n/a	-999	3	[0, 0, 0]	n/a	catFR1	0	R1086M
489.321	26.777	258049	REC_WORD	26.777	n/a	COTTON	n/a	-999	3	[0, 0, 0]	n/a	catFR1	0	R1086M
516.098	6.227	271437	REC_END	n/a	n/a	n/a	n/a	-999	3	[0, 0, 0]	n/a	catFR1	0	R1086M
522.325	0.0	274550	TRIAL	n/a	n/a	n/a	n/a	-999	4	[0, 0, 0]	n/a	catFR1	0	R1086M
522.325	10.428	274550	COUNTDOWN_START	n/a	n/a	n/a	n/a	-999	4	[0, 0, 0]	n/a	catFR1	0	R1086M
532.753	0.007	279764	COUNTDOWN_END	n/a	n/a	n/a	n/a	-999	4	[0, 0, 0]	n/a	catFR1	0	R1086M
532.76	3.851	279767	ORIENT	n/a	n/a	n/a	n/a	-999	4	[0, 0, 0]	n/a	catFR1	0	R1086M
536.611	2.467	281692	WORD	n/a	wordpools/wordpool_categorized_EN.txt	DUCK	Birds	1	4	[0, 0, 0]	n/a	catFR1	0	R1086M
539.078	2.384	282926	WORD	n/a	wordpools/wordpool_categorized_EN.txt	DOVE	Birds	2	4	[0, 0, 0]	n/a	catFR1	0	R1086M
541.462	2.584	284118	WORD	n/a	wordpools/wordpool_categorized_EN.txt	SCANNER	Electronics	3	4	[0, 0, 0]	n/a	catFR1	0	R1086M
544.046	2.534	285410	WORD	n/a	wordpools/wordpool_categorized_EN.txt	TELEVISION	Electronics	4	4	[0, 0, 0]	n/a	catFR1	0	R1086M
546.58	2.4	286677	WORD	n/a	wordpools/wordpool_categorized_EN.txt	LAKE	Landscapes	5	4	[0, 0, 0]	n/a	catFR1	0	R1086M
548.98	2.451	287877	WORD	n/a	wordpools/wordpool_categorized_EN.txt	OCEAN	Landscapes	6	4	[0, 0, 0]	n/a	catFR1	0	R1086M
551.431	2.567	289102	WORD	n/a	wordpools/wordpool_categorized_EN.txt	PRINTER	Electronics	7	4	[0, 0, 0]	n/a	catFR1	0	R1086M
553.998	2.55	290385	WORD	n/a	wordpools/wordpool_categorized_EN.txt	PHONE	Electronics	8	4	[0, 0, 0]	n/a	catFR1	0	R1086M
556.548	2.501	291660	WORD	n/a	wordpools/wordpool_categorized_EN.txt	FINCH	Birds	9	4	[0, 0, 0]	n/a	catFR1	0	R1086M
559.049	2.383	292911	WORD	n/a	wordpools/wordpool_categorized_EN.txt	SEAGULL	Birds	10	4	[0, 0, 0]	n/a	catFR1	0	R1086M
561.432	2.618	294102	WORD	n/a	wordpools/wordpool_categorized_EN.txt	VALLEY	Landscapes	11	4	[0, 0, 0]	n/a	catFR1	0	R1086M
564.05	1.617	295411	WORD	n/a	wordpools/wordpool_categorized_EN.txt	MOUNTAIN	Landscapes	12	4	[0, 0, 0]	n/a	catFR1	0	R1086M
565.667	0.0	296219	DISTRACT_START	n/a	n/a	n/a	n/a	-999	4	[0, 0, 0]	n/a	catFR1	0	R1086M
565.667	0.016	296219	START	n/a	n/a	n/a	n/a	-999	4	[-999, -999, -999]	n/a	catFR1	0	R1086M
565.683	4.085	296227	PROB	4.085	n/a	n/a	n/a	-999	4	[7, 5, 8]	20	catFR1	0	R1086M
569.768	5.234	298270	PROB	5.234	n/a	n/a	n/a	-999	4	[1, 1, 1]	3	catFR1	0	R1086M
575.002	3.167	300887	PROB	3.167	n/a	n/a	n/a	-999	4	[6, 5, 8]	19	catFR1	0	R1086M
578.169	3.418	302470	PROB	3.418	n/a	n/a	n/a	-999	4	[1, 6, 7]	14	catFR1	0	R1086M
581.587	3.984	304179	PROB	3.984	n/a	n/a	n/a	-999	4	[1, 5, 8]	14	catFR1	0	R1086M
585.571	1.987	306171	PROB	1.987	n/a	n/a	n/a	-999	4	[1, 3, 1]	5	catFR1	0	R1086M
587.558	0.013	307164	STOP	n/a	n/a	n/a	n/a	-999	4	[-999, -999, -999]	n/a	catFR1	0	R1086M
587.571	1.134	307171	DISTRACT_END	n/a	n/a	n/a	n/a	-999	4	[0, 0, 0]	n/a	catFR1	0	R1086M
588.705	2.232	307738	REC_START	n/a	n/a	n/a	n/a	-999	4	[0, 0, 0]	n/a	catFR1	0	R1086M
590.937	5.366	308854	REC_WORD	5.366	n/a	SEAGULL	Birds	10	4	[0, 0, 0]	n/a	catFR1	0	R1086M
596.303	3.442	311536	REC_WORD_VV	3.442	n/a	<>	n/a	-999	4	[0, 0, 0]	n/a	catFR1	0	R1086M
599.745	18.97	313257	REC_WORD_VV	18.97	n/a	<>	n/a	-999	4	[0, 0, 0]	n/a	catFR1	0	R1086M
618.715	23.967	322742	REC_END	n/a	n/a	n/a	n/a	-999	4	[0, 0, 0]	n/a	catFR1	0	R1086M
642.682	0.0	334724	TRIAL	n/a	n/a	n/a	n/a	-999	5	[0, 0, 0]	n/a	catFR1	0	R1086M
642.682	10.428	334724	COUNTDOWN_START	n/a	n/a	n/a	n/a	-999	5	[0, 0, 0]	n/a	catFR1	0	R1086M
653.11	0.007	339938	COUNTDOWN_END	n/a	n/a	n/a	n/a	-999	5	[0, 0, 0]	n/a	catFR1	0	R1086M
653.117	3.634	339941	ORIENT	n/a	n/a	n/a	n/a	-999	5	[0, 0, 0]	n/a	catFR1	0	R1086M
656.751	2.451	341758	WORD	n/a	wordpools/wordpool_categorized_EN.txt	DOLPHIN	OceanAnimals	1	5	[0, 0, 0]	n/a	catFR1	0	R1086M
659.202	2.4	342984	WORD	n/a	wordpools/wordpool_categorized_EN.txt	SHRIMP	OceanAnimals	2	5	[0, 0, 0]	n/a	catFR1	0	R1086M
661.602	2.467	344184	WORD	n/a	wordpools/wordpool_categorized_EN.txt	CYPRESS	Trees	3	5	[0, 0, 0]	n/a	catFR1	0	R1086M
664.069	2.617	345417	WORD	n/a	wordpools/wordpool_categorized_EN.txt	ELM	Trees	4	5	[0, 0, 0]	n/a	catFR1	0	R1086M
666.686	2.584	346725	WORD	n/a	wordpools/wordpool_categorized_EN.txt	MOSQUITO	Insects	5	5	[0, 0, 0]	n/a	catFR1	0	R1086M
669.27	2.484	348017	WORD	n/a	wordpools/wordpool_categorized_EN.txt	CRICKET	Insects	6	5	[0, 0, 0]	n/a	catFR1	0	R1086M
671.754	2.434	349259	WORD	n/a	wordpools/wordpool_categorized_EN.txt	SQUID	OceanAnimals	7	5	[0, 0, 0]	n/a	catFR1	0	R1086M
674.188	2.55	350476	WORD	n/a	wordpools/wordpool_categorized_EN.txt	OYSTER	OceanAnimals	8	5	[0, 0, 0]	n/a	catFR1	0	R1086M
676.738	2.484	351751	WORD	n/a	wordpools/wordpool_categorized_EN.txt	SPIDER	Insects	9	5	[0, 0, 0]	n/a	catFR1	0	R1086M
679.222	2.451	352993	WORD	n/a	wordpools/wordpool_categorized_EN.txt	LADYBUG	Insects	10	5	[0, 0, 0]	n/a	catFR1	0	R1086M
681.673	2.417	354218	WORD	n/a	wordpools/wordpool_categorized_EN.txt	OAK	Trees	11	5	[0, 0, 0]	n/a	catFR1	0	R1086M
684.09	1.617	355427	WORD	n/a	wordpools/wordpool_categorized_EN.txt	MAPLE	Trees	12	5	[0, 0, 0]	n/a	catFR1	0	R1086M
685.707	0.001	356235	DISTRACT_START	n/a	n/a	n/a	n/a	-999	5	[0, 0, 0]	n/a	catFR1	0	R1086M
685.708	0.015	356236	START	n/a	n/a	n/a	n/a	-999	5	[-999, -999, -999]	n/a	catFR1	0	R1086M
685.723	3.985	356243	PROB	3.985	n/a	n/a	n/a	-999	5	[2, 3, 5]	10	catFR1	0	R1086M
689.708	2.75	358236	PROB	2.75	n/a	n/a	n/a	-999	5	[3, 6, 7]	16	catFR1	0	R1086M
692.458	2.801	359611	PROB	2.801	n/a	n/a	n/a	-999	5	[2, 3, 1]	6	catFR1	0	R1086M
695.259	2.25	361011	PROB	2.25	n/a	n/a	n/a	-999	5	[5, 3, 3]	11	catFR1	0	R1086M
697.509	3.151	362136	PROB	3.151	n/a	n/a	n/a	-999	5	[8, 9, 1]	18	catFR1	0	R1086M
700.66	3.5	363711	PROB	3.5	n/a	n/a	n/a	-999	5	[2, 6, 7]	15	catFR1	0	R1086M
704.16	2.895	365461	PROB	2.895	n/a	n/a	n/a	-999	5	[5, 5, 3]	13	catFR1	0	R1086M
707.055	0.006	366908	STOP	n/a	n/a	n/a	n/a	-999	5	[-999, -999, -999]	n/a	catFR1	0	R1086M
707.061	1.084	366911	DISTRACT_END	n/a	n/a	n/a	n/a	-999	5	[0, 0, 0]	n/a	catFR1	0	R1086M
708.145	2.694	367453	REC_START	n/a	n/a	n/a	n/a	-999	5	[0, 0, 0]	n/a	catFR1	0	R1086M
710.839	0.756	368800	REC_WORD	0.756	n/a	DOLPHIN	OceanAnimals	1	5	[0, 0, 0]	n/a	catFR1	0	R1086M
711.595	6.261	369178	REC_WORD	6.261	n/a	SHRIMP	OceanAnimals	2	5	[0, 0, 0]	n/a	catFR1	0	R1086M
717.856	0.945	372309	REC_WORD	0.945	n/a	MAPLE	Trees	12	5	[0, 0, 0]	n/a	catFR1	0	R1086M
718.801	7.005	372781	REC_WORD	7.005	n/a	TREE	n/a	-999	5	[0, 0, 0]	n/a	catFR1	0	R1086M
725.806	12.353	376283	REC_WORD	12.353	n/a	EXPRESS	n/a	-999	5	[0, 0, 0]	n/a	catFR1	0	R1086M
738.159	3.242	382459	REC_END	n/a	n/a	n/a	n/a	-999	5	[0, 0, 0]	n/a	catFR1	0	R1086M
741.401	0.0	384080	TRIAL	n/a	n/a	n/a	n/a	-999	6	[0, 0, 0]	n/a	catFR1	0	R1086M
741.401	10.428	384080	COUNTDOWN_START	n/a	n/a	n/a	n/a	-999	6	[0, 0, 0]	n/a	catFR1	0	R1086M
751.829	0.007	389294	COUNTDOWN_END	n/a	n/a	n/a	n/a	-999	6	[0, 0, 0]	n/a	catFR1	0	R1086M
751.836	3.651	389297	ORIENT	n/a	n/a	n/a	n/a	-999	6	[0, 0, 0]	n/a	catFR1	0	R1086M
755.487	2.45	391123	WORD	n/a	wordpools/wordpool_categorized_EN.txt	TOASTER	Appliances	1	6	[0, 0, 0]	n/a	catFR1	0	R1086M
757.937	2.384	392348	WORD	n/a	wordpools/wordpool_categorized_EN.txt	OVEN	Appliances	2	6	[0, 0, 0]	n/a	catFR1	0	R1086M
760.321	2.601	393540	WORD	n/a	wordpools/wordpool_categorized_EN.txt	TROMBONE	Instruments	3	6	[0, 0, 0]	n/a	catFR1	0	R1086M
762.922	2.55	394840	WORD	n/a	wordpools/wordpool_categorized_EN.txt	DRUM	Instruments	4	6	[0, 0, 0]	n/a	catFR1	0	R1086M
765.472	2.401	396115	WORD	n/a	wordpools/wordpool_categorized_EN.txt	TEA	Beverages	5	6	[0, 0, 0]	n/a	catFR1	0	R1086M
767.873	2.584	397315	WORD	n/a	wordpools/wordpool_categorized_EN.txt	MILK	Beverages	6	6	[0, 0, 0]	n/a	catFR1	0	R1086M
770.457	2.383	398607	WORD	n/a	wordpools/wordpool_categorized_EN.txt	VIOLIN	Instruments	7	6	[0, 0, 0]	n/a	catFR1	0	R1086M
772.84	2.451	399799	WORD	n/a	wordpools/wordpool_categorized_EN.txt	GUITAR	Instruments	8	6	[0, 0, 0]	n/a	catFR1	0	R1086M
775.291	2.4	401024	WORD	n/a	wordpools/wordpool_categorized_EN.txt	MIXER	Appliances	9	6	[0, 0, 0]	n/a	catFR1	0	R1086M
777.691	2.534	402224	WORD	n/a	wordpools/wordpool_categorized_EN.txt	BLENDER	Appliances	10	6	[0, 0, 0]	n/a	catFR1	0	R1086M
780.225	2.501	403491	WORD	n/a	wordpools/wordpool_categorized_EN.txt	COFFEE	Beverages	11	6	[0, 0, 0]	n/a	catFR1	0	R1086M
782.726	1.617	404741	WORD	n/a	wordpools/wordpool_categorized_EN.txt	BEER	Beverages	12	6	[0, 0, 0]	n/a	catFR1	0	R1086M
784.343	0.0	405550	DISTRACT_START	n/a	n/a	n/a	n/a	-999	6	[0, 0, 0]	n/a	catFR1	0	R1086M
784.343	0.016	405550	START	n/a	n/a	n/a	n/a	-999	6	[-999, -999, -999]	n/a	catFR1	0	R1086M
784.359	4.535	405558	PROB	4.535	n/a	n/a	n/a	-999	6	[5, 3, 8]	16	catFR1	0	R1086M
788.894	4.417	407825	PROB	4.417	n/a	n/a	n/a	-999	6	[8, 3, 4]	15	catFR1	0	R1086M
793.311	2.334	410033	PROB	2.334	n/a	n/a	n/a	-999	6	[1, 4, 6]	11	catFR1	0	R1086M
795.645	5.168	411200	PROB	5.168	n/a	n/a	n/a	-999	6	[7, 4, 3]	14	catFR1	0	R1086M
800.813	3.417	413784	PROB	3.417	n/a	n/a	n/a	-999	6	[7, 5, 4]	16	catFR1	0	R1086M
804.23	2.129	415493	PROB	2.129	n/a	n/a	n/a	-999	6	[8, 1, 2]	11	catFR1	0	R1086M
806.359	0.005	416557	STOP	n/a	n/a	n/a	n/a	-999	6	[-999, -999, -999]	n/a	catFR1	0	R1086M
806.364	1.167	416560	DISTRACT_END	n/a	n/a	n/a	n/a	-999	6	[0, 0, 0]	n/a	catFR1	0	R1086M
807.531	3.397	417143	REC_START	n/a	n/a	n/a	n/a	-999	6	[0, 0, 0]	n/a	catFR1	0	R1086M
810.928	26.612	418841	REC_WORD_VV	26.612	n/a	<>	n/a	-999	6	[0, 0, 0]	n/a	catFR1	0	R1086M
837.54	3.13	432146	REC_END	n/a	n/a	n/a	n/a	-999	6	[0, 0, 0]	n/a	catFR1	0	R1086M
840.67	0.0	433711	TRIAL	n/a	n/a	n/a	n/a	-999	7	[0, 0, 0]	n/a	catFR1	0	R1086M
840.67	10.428	433711	COUNTDOWN_START	n/a	n/a	n/a	n/a	-999	7	[0, 0, 0]	n/a	catFR1	0	R1086M
851.098	0.008	438925	COUNTDOWN_END	n/a	n/a	n/a	n/a	-999	7	[0, 0, 0]	n/a	catFR1	0	R1086M
851.106	3.6	438929	ORIENT	n/a	n/a	n/a	n/a	-999	7	[0, 0, 0]	n/a	catFR1	0	R1086M
854.706	2.401	440729	WORD	n/a	wordpools/wordpool_categorized_EN.txt	WINE	Beverages	1	7	[0, 0, 0]	n/a	catFR1	0	R1086M
857.107	2.4	441929	WORD	n/a	wordpools/wordpool_categorized_EN.txt	COLA	Beverages	2	7	[0, 0, 0]	n/a	catFR1	0	R1086M
859.507	2.401	443129	WORD	n/a	wordpools/wordpool_categorized_EN.txt	SPINACH	Vegetables	3	7	[0, 0, 0]	n/a	catFR1	0	R1086M
861.908	2.383	444330	WORD	n/a	wordpools/wordpool_categorized_EN.txt	ONION	Vegetables	4	7	[0, 0, 0]	n/a	catFR1	0	R1086M
864.291	2.418	445521	WORD	n/a	wordpools/wordpool_categorized_EN.txt	GOOSE	Birds	5	7	[0, 0, 0]	n/a	catFR1	0	R1086M
866.709	2.517	446730	WORD	n/a	wordpools/wordpool_categorized_EN.txt	CARDINAL	Birds	6	7	[0, 0, 0]	n/a	catFR1	0	R1086M
869.226	2.4	447988	WORD	n/a	wordpools/wordpool_categorized_EN.txt	POTATO	Vegetables	7	7	[0, 0, 0]	n/a	catFR1	0	R1086M
871.626	2.534	449188	WORD	n/a	wordpools/wordpool_categorized_EN.txt	CUCUMBER	Vegetables	8	7	[0, 0, 0]	n/a	catFR1	0	R1086M
874.16	2.484	450455	WORD	n/a	wordpools/wordpool_categorized_EN.txt	SODA	Beverages	9	7	[0, 0, 0]	n/a	catFR1	0	R1086M
876.644	2.617	451697	WORD	n/a	wordpools/wordpool_categorized_EN.txt	WATER	Beverages	10	7	[0, 0, 0]	n/a	catFR1	0	R1086M
879.261	2.417	453005	WORD	n/a	wordpools/wordpool_categorized_EN.txt	BLUEBIRD	Birds	11	7	[0, 0, 0]	n/a	catFR1	0	R1086M
881.678	1.617	454214	WORD	n/a	wordpools/wordpool_categorized_EN.txt	PIGEON	Birds	12	7	[0, 0, 0]	n/a	catFR1	0	R1086M
883.295	0.001	455022	DISTRACT_START	n/a	n/a	n/a	n/a	-999	7	[0, 0, 0]	n/a	catFR1	0	R1086M
883.296	0.016	455023	START	n/a	n/a	n/a	n/a	-999	7	[-999, -999, -999]	n/a	catFR1	0	R1086M
883.312	4.818	455031	PROB	4.818	n/a	n/a	n/a	-999	7	[4, 9, 7]	20	catFR1	0	R1086M
888.13	2.3	457440	PROB	2.3	n/a	n/a	n/a	-999	7	[5, 7, 4]	16	catFR1	0	R1086M
890.43	3.667	458590	PROB	3.667	n/a	n/a	n/a	-999	7	[6, 3, 6]	15	catFR1	0	R1086M
894.097	3.001	460423	PROB	3.001	n/a	n/a	n/a	-999	7	[2, 5, 7]	14	catFR1	0	R1086M
897.098	3.951	461923	PROB	3.951	n/a	n/a	n/a	-999	7	[5, 4, 7]	16	catFR1	0	R1086M
901.049	3.485	463899	PROB	3.485	n/a	n/a	n/a	-999	7	[5, 2, 2]	9	catFR1	0	R1086M
904.534	0.015	465641	STOP	n/a	n/a	n/a	n/a	-999	7	[-999, -999, -999]	n/a	catFR1	0	R1086M
904.549	1.201	465649	DISTRACT_END	n/a	n/a	n/a	n/a	-999	7	[0, 0, 0]	n/a	catFR1	0	R1086M
905.75	2.188	466249	REC_START	n/a	n/a	n/a	n/a	-999	7	[0, 0, 0]	n/a	catFR1	0	R1086M
907.938	24.589	467343	REC_WORD_VV	24.589	n/a	<>	n/a	-999	7	[0, 0, 0]	n/a	catFR1	0	R1086M
932.527	3.236	479637	REC_WORD	3.236	n/a	COFFEE	n/a	-999	7	[0, 0, 0]	n/a	catFR1	0	R1086M
935.763	2.476	481255	REC_END	n/a	n/a	n/a	n/a	-999	7	[0, 0, 0]	n/a	catFR1	0	R1086M
938.239	0.0	482492	TRIAL	n/a	n/a	n/a	n/a	-999	8	[0, 0, 0]	n/a	catFR1	0	R1086M
938.239	10.428	482492	COUNTDOWN_START	n/a	n/a	n/a	n/a	-999	8	[0, 0, 0]	n/a	catFR1	0	R1086M
948.667	0.008	487706	COUNTDOWN_END	n/a	n/a	n/a	n/a	-999	8	[0, 0, 0]	n/a	catFR1	0	R1086M
948.675	3.717	487710	ORIENT	n/a	n/a	n/a	n/a	-999	8	[0, 0, 0]	n/a	catFR1	0	R1086M
952.392	2.6	489568	WORD	n/a	wordpools/wordpool_categorized_EN.txt	BEACH	Landscapes	1	8	[0, 0, 0]	n/a	catFR1	0	R1086M
954.992	2.551	490868	WORD	n/a	wordpools/wordpool_categorized_EN.txt	RIVER	Landscapes	2	8	[0, 0, 0]	n/a	catFR1	0	R1086M
957.543	2.384	492144	WORD	n/a	wordpools/wordpool_categorized_EN.txt	LILY	Flowers	3	8	[0, 0, 0]	n/a	catFR1	0	R1086M
959.927	2.6	493336	WORD	n/a	wordpools/wordpool_categorized_EN.txt	DAFFODIL	Flowers	4	8	[0, 0, 0]	n/a	catFR1	0	R1086M
962.527	2.584	494636	WORD	n/a	wordpools/wordpool_categorized_EN.txt	COUCH	Furniture	5	8	[0, 0, 0]	n/a	catFR1	0	R1086M
965.111	2.384	495927	WORD	n/a	wordpools/wordpool_categorized_EN.txt	CHAIR	Furniture	6	8	[0, 0, 0]	n/a	catFR1	0	R1086M
967.495	2.534	497119	WORD	n/a	wordpools/wordpool_categorized_EN.txt	SUNFLOWER	Flowers	7	8	[0, 0, 0]	n/a	catFR1	0	R1086M
970.029	2.584	498386	WORD	n/a	wordpools/wordpool_categorized_EN.txt	VIOLET	Flowers	8	8	[0, 0, 0]	n/a	catFR1	0	R1086M
972.613	2.583	499678	WORD	n/a	wordpools/wordpool_categorized_EN.txt	ISLAND	Landscapes	9	8	[0, 0, 0]	n/a	catFR1	0	R1086M
975.196	2.418	500970	WORD	n/a	wordpools/wordpool_categorized_EN.txt	CREEK	Landscapes	10	8	[0, 0, 0]	n/a	catFR1	0	R1086M
977.614	2.45	502179	WORD	n/a	wordpools/wordpool_categorized_EN.txt	SHELF	Furniture	11	8	[0, 0, 0]	n/a	catFR1	0	R1086M
980.064	1.617	503403	WORD	n/a	wordpools/wordpool_categorized_EN.txt	BOOKCASE	Furniture	12	8	[0, 0, 0]	n/a	catFR1	0	R1086M
981.681	0.001	504212	DISTRACT_START	n/a	n/a	n/a	n/a	-999	8	[0, 0, 0]	n/a	catFR1	0	R1086M
981.682	0.016	504212	START	n/a	n/a	n/a	n/a	-999	8	[-999, -999, -999]	n/a	catFR1	0	R1086M
981.698	4.05	504220	PROB	4.05	n/a	n/a	n/a	-999	8	[6, 7, 6]	19	catFR1	0	R1086M
985.748	2.051	506245	PROB	2.051	n/a	n/a	n/a	-999	8	[5, 7, 7]	19	catFR1	0	R1086M
987.799	4.567	507271	PROB	4.567	n/a	n/a	n/a	-999	8	[6, 1, 4]	11	catFR1	0	R1086M
992.366	3.701	509554	PROB	3.701	n/a	n/a	n/a	-999	8	[6, 5, 8]	19	catFR1	0	R1086M
996.067	1.884	511404	PROB	1.884	n/a	n/a	n/a	-999	8	[4, 2, 5]	11	catFR1	0	R1086M
997.951	2.084	512346	PROB	2.084	n/a	n/a	n/a	-999	8	[1, 2, 7]	10	catFR1	0	R1086M
1000.035	14.067	513388	PROB	14.067	n/a	n/a	n/a	-999	8	[9, 9, 7]	25	catFR1	0	R1086M
1014.102	0.019	520421	STOP	n/a	n/a	n/a	n/a	-999	8	[-999, -999, -999]	n/a	catFR1	0	R1086M
1014.121	1.201	520431	DISTRACT_END	n/a	n/a	n/a	n/a	-999	8	[0, 0, 0]	n/a	catFR1	0	R1086M
1015.322	5.187	521031	REC_START	n/a	n/a	n/a	n/a	-999	8	[0, 0, 0]	n/a	catFR1	0	R1086M
1020.509	20.339	523625	REC_WORD_VV	20.339	n/a	<>	n/a	-999	8	[0, 0, 0]	n/a	catFR1	0	R1086M
1040.848	4.484	533793	REC_WORD	4.484	n/a	COW	n/a	-999	8	[0, 0, 0]	n/a	catFR1	0	R1086M
1045.332	3.995	536035	REC_END	n/a	n/a	n/a	n/a	-999	8	[0, 0, 0]	n/a	catFR1	0	R1086M
1049.327	0.001	538033	COUNTDOWN_START	n/a	n/a	n/a	n/a	-999	9	[0, 0, 0]	n/a	catFR1	0	R1086M
1049.328	10.427	538033	TRIAL	n/a	n/a	n/a	n/a	-999	9	[0, 0, 0]	n/a	catFR1	0	R1086M
1059.755	0.008	543246	COUNTDOWN_END	n/a	n/a	n/a	n/a	-999	9	[0, 0, 0]	n/a	catFR1	0	R1086M
1059.763	3.634	543250	ORIENT	n/a	n/a	n/a	n/a	-999	9	[0, 0, 0]	n/a	catFR1	0	R1086M
1063.397	2.55	545067	WORD	n/a	wordpools/wordpool_categorized_EN.txt	FOUNDATION	Building	1	9	[0, 0, 0]	n/a	catFR1	0	R1086M
1065.947	2.568	546342	WORD	n/a	wordpools/wordpool_categorized_EN.txt	ROOF	Building	2	9	[0, 0, 0]	n/a	catFR1	0	R1086M
1068.515	2.55	547626	WORD	n/a	wordpools/wordpool_categorized_EN.txt	BASKETBALL	Toys	3	9	[0, 0, 0]	n/a	catFR1	0	R1086M
1071.065	2.617	548901	WORD	n/a	wordpools/wordpool_categorized_EN.txt	BLOCKS	Toys	4	9	[0, 0, 0]	n/a	catFR1	0	R1086M
1073.682	2.601	550209	WORD	n/a	wordpools/wordpool_categorized_EN.txt	COW	FarmAnimals	5	9	[0, 0, 0]	n/a	catFR1	0	R1086M
1076.283	2.45	551510	WORD	n/a	wordpools/wordpool_categorized_EN.txt	GOAT	FarmAnimals	6	9	[0, 0, 0]	n/a	catFR1	0	R1086M
1078.733	2.584	552735	WORD	n/a	wordpools/wordpool_categorized_EN.txt	DOOR	Building	7	9	[0, 0, 0]	n/a	catFR1	0	R1086M
1081.317	2.467	554026	WORD	n/a	wordpools/wordpool_categorized_EN.txt	FLOOR	Building	8	9	[0, 0, 0]	n/a	catFR1	0	R1086M
1083.784	2.617	555260	WORD	n/a	wordpools/wordpool_categorized_EN.txt	TURKEY	FarmAnimals	9	9	[0, 0, 0]	n/a	catFR1	0	R1086M
1086.401	2.618	556568	WORD	n/a	wordpools/wordpool_categorized_EN.txt	BULL	FarmAnimals	10	9	[0, 0, 0]	n/a	catFR1	0	R1086M
1089.019	2.517	557877	WORD	n/a	wordpools/wordpool_categorized_EN.txt	SLINKY	Toys	11	9	[0, 0, 0]	n/a	catFR1	0	R1086M
1091.536	1.617	559136	WORD	n/a	wordpools/wordpool_categorized_EN.txt	DOLLHOUSE	Toys	12	9	[0, 0, 0]	n/a	catFR1	0	R1086M
1093.153	0.0	559944	DISTRACT_START	n/a	n/a	n/a	n/a	-999	9	[0, 0, 0]	n/a	catFR1	0	R1086M
1093.153	0.016	559944	START	n/a	n/a	n/a	n/a	-999	9	[-999, -999, -999]	n/a	catFR1	0	R1086M
1093.169	6.568	559952	PROB	6.568	n/a	n/a	n/a	-999	9	[6, 2, 2]	10	catFR1	0	R1086M
1099.737	2.751	563236	PROB	2.751	n/a	n/a	n/a	-999	9	[3, 4, 8]	15	catFR1	0	R1086M
1102.488	1.9	564611	PROB	1.9	n/a	n/a	n/a	-999	9	[1, 2, 8]	11	catFR1	0	R1086M
1104.388	1.917	565561	PROB	1.917	n/a	n/a	n/a	-999	9	[2, 2, 2]	6	catFR1	0	R1086M
1106.305	2.617	566520	PROB	2.617	n/a	n/a	n/a	-999	9	[9, 4, 1]	14	catFR1	0	R1086M
1108.922	5.173	567828	PROB	5.173	n/a	n/a	n/a	-999	9	[4, 3, 9]	16	catFR1	0	R1086M
1114.095	0.012	570414	STOP	n/a	n/a	n/a	n/a	-999	9	[-999, -999, -999]	n/a	catFR1	0	R1086M
1114.107	1.05	570420	DISTRACT_END	n/a	n/a	n/a	n/a	-999	9	[0, 0, 0]	n/a	catFR1	0	R1086M
1115.157	2.175	570945	REC_START	n/a	n/a	n/a	n/a	-999	9	[0, 0, 0]	n/a	catFR1	0	R1086M
1117.332	23.096	572033	REC_WORD	23.096	n/a	COW	FarmAnimals	5	9	[0, 0, 0]	n/a	catFR1	0	R1086M
1140.428	4.743	583580	REC_WORD	4.743	n/a	TOLERANCE	n/a	-999	9	[0, 0, 0]	n/a	catFR1	0	R1086M
1145.171	234.02	585951	REC_END	n/a	n/a	n/a	n/a	-999	9	[0, 0, 0]	n/a	catFR1	0	R1086M
1379.191	0.001	702953	COUNTDOWN_START	n/a	n/a	n/a	n/a	-999	10	[0, 0, 0]	n/a	catFR1	0	R1086M
1379.192	10.427	702954	TRIAL	n/a	n/a	n/a	n/a	-999	10	[0, 0, 0]	n/a	catFR1	0	R1086M
1389.619	0.008	708167	COUNTDOWN_END	n/a	n/a	n/a	n/a	-999	10	[0, 0, 0]	n/a	catFR1	0	R1086M
1389.627	3.467	708171	ORIENT	n/a	n/a	n/a	n/a	-999	10	[0, 0, 0]	n/a	catFR1	0	R1086M
1393.094	2.467	709904	WORD	n/a	wordpools/wordpool_categorized_EN.txt	CARROT	Vegetables	1	10	[0, 0, 0]	n/a	catFR1	0	R1086M
1395.561	2.484	711137	WORD	n/a	wordpools/wordpool_categorized_EN.txt	CAULIFLOWER	Vegetables	2	10	[0, 0, 0]	n/a	catFR1	0	R1086M
1398.045	2.417	712379	WORD	n/a	wordpools/wordpool_categorized_EN.txt	ATTIC	Building	3	10	[0, 0, 0]	n/a	catFR1	0	R1086M
1400.462	2.384	713588	WORD	n/a	wordpools/wordpool_categorized_EN.txt	WALL	Building	4	10	[0, 0, 0]	n/a	catFR1	0	R1086M
1402.846	2.567	714780	WORD	n/a	wordpools/wordpool_categorized_EN.txt	MARKER	OfficeSupplies	5	10	[0, 0, 0]	n/a	catFR1	0	R1086M
1405.413	2.434	716063	WORD	n/a	wordpools/wordpool_categorized_EN.txt	BINDER	OfficeSupplies	6	10	[0, 0, 0]	n/a	catFR1	0	R1086M
1407.847	2.484	717280	WORD	n/a	wordpools/wordpool_categorized_EN.txt	BATHROOM	Building	7	10	[0, 0, 0]	n/a	catFR1	0	R1086M
1410.331	2.617	718522	WORD	n/a	wordpools/wordpool_categorized_EN.txt	STAIRS	Building	8	10	[0, 0, 0]	n/a	catFR1	0	R1086M
1412.948	2.584	719830	WORD	n/a	wordpools/wordpool_categorized_EN.txt	CELERY	Vegetables	9	10	[0, 0, 0]	n/a	catFR1	0	R1086M
1415.532	2.517	721122	WORD	n/a	wordpools/wordpool_categorized_EN.txt	PEAS	Vegetables	10	10	[0, 0, 0]	n/a	catFR1	0	R1086M
1418.049	2.467	722381	WORD	n/a	wordpools/wordpool_categorized_EN.txt	PENCIL	OfficeSupplies	11	10	[0, 0, 0]	n/a	catFR1	0	R1086M
1420.516	1.617	723614	WORD	n/a	wordpools/wordpool_categorized_EN.txt	NOTEBOOK	OfficeSupplies	12	10	[0, 0, 0]	n/a	catFR1	0	R1086M
1422.133	0.001	724423	DISTRACT_START	n/a	n/a	n/a	n/a	-999	10	[0, 0, 0]	n/a	catFR1	0	R1086M
1422.134	0.016	724423	START	n/a	n/a	n/a	n/a	-999	10	[-999, -999, -999]	n/a	catFR1	0	R1086M
1422.15	5.067	724431	PROB	5.067	n/a	n/a	n/a	-999	10	[8, 8, 1]	17	catFR1	0	R1086M
1427.217	3.434	726964	PROB	3.434	n/a	n/a	n/a	-999	10	[1, 6, 1]	9	catFR1	0	R1086M
1430.651	2.734	728681	PROB	2.734	n/a	n/a	n/a	-999	10	[8, 4, 2]	14	catFR1	0	R1086M
1433.385	2.834	730048	PROB	2.834	n/a	n/a	n/a	-999	10	[1, 1, 3]	5	catFR1	0	R1086M
1436.219	4.501	731465	PROB	4.501	n/a	n/a	n/a	-999	10	[9, 2, 4]	16	catFR1	0	R1086M
1440.72	3.142	733715	PROB	3.142	n/a	n/a	n/a	-999	10	[2, 2, 4]	8	catFR1	0	R1086M
1443.862	0.009	735286	STOP	n/a	n/a	n/a	n/a	-999	10	[-999, -999, -999]	n/a	catFR1	0	R1086M
1443.871	1.067	735291	DISTRACT_END	n/a	n/a	n/a	n/a	-999	10	[0, 0, 0]	n/a	catFR1	0	R1086M
1444.938	6.622	735824	REC_START	n/a	n/a	n/a	n/a	-999	10	[0, 0, 0]	n/a	catFR1	0	R1086M
1451.56	5.058	739135	REC_WORD	5.058	n/a	CAULIFLOWER	Vegetables	2	10	[0, 0, 0]	n/a	catFR1	0	R1086M
1456.618	18.328	741664	REC_WORD	18.328	n/a	CARROT	Vegetables	1	10	[0, 0, 0]	n/a	catFR1	0	R1086M
1474.946	9.266	750827	REC_END	n/a	n/a	n/a	n/a	-999	10	[0, 0, 0]	n/a	catFR1	0	R1086M
1484.212	0.0	755460	TRIAL	n/a	n/a	n/a	n/a	-999	11	[0, 0, 0]	n/a	catFR1	0	R1086M
1484.212	10.428	755460	COUNTDOWN_START	n/a	n/a	n/a	n/a	-999	11	[0, 0, 0]	n/a	catFR1	0	R1086M
1494.64	0.007	760673	COUNTDOWN_END	n/a	n/a	n/a	n/a	-999	11	[0, 0, 0]	n/a	catFR1	0	R1086M
1494.647	3.751	760677	ORIENT	n/a	n/a	n/a	n/a	-999	11	[0, 0, 0]	n/a	catFR1	0	R1086M
1498.398	2.567	762552	WORD	n/a	wordpools/wordpool_categorized_EN.txt	BEE	Insects	1	11	[0, 0, 0]	n/a	catFR1	0	R1086M
1500.965	2.484	763836	WORD	n/a	wordpools/wordpool_categorized_EN.txt	BUTTERFLY	Insects	2	11	[0, 0, 0]	n/a	catFR1	0	R1086M
1503.449	2.55	765078	WORD	n/a	wordpools/wordpool_categorized_EN.txt	FORK	KitchenTools	3	11	[0, 0, 0]	n/a	catFR1	0	R1086M
1505.999	2.517	766353	WORD	n/a	wordpools/wordpool_categorized_EN.txt	GRATER	KitchenTools	4	11	[0, 0, 0]	n/a	catFR1	0	R1086M
1508.516	2.618	767611	WORD	n/a	wordpools/wordpool_categorized_EN.txt	SHIRT	Clothing	5	11	[0, 0, 0]	n/a	catFR1	0	R1086M
1511.134	2.483	768920	WORD	n/a	wordpools/wordpool_categorized_EN.txt	UNDERWEAR	Clothing	6	11	[0, 0, 0]	n/a	catFR1	0	R1086M
1513.617	2.551	770161	WORD	n/a	wordpools/wordpool_categorized_EN.txt	BEETLE	Insects	7	11	[0, 0, 0]	n/a	catFR1	0	R1086M
1516.168	2.4	771437	WORD	n/a	wordpools/wordpool_categorized_EN.txt	ROACH	Insects	8	11	[0, 0, 0]	n/a	catFR1	0	R1086M
1518.568	2.534	772637	WORD	n/a	wordpools/wordpool_categorized_EN.txt	SKIRT	Clothing	9	11	[0, 0, 0]	n/a	catFR1	0	R1086M
1521.102	2.551	773904	WORD	n/a	wordpools/wordpool_categorized_EN.txt	SHORTS	Clothing	10	11	[0, 0, 0]	n/a	catFR1	0	R1086M
1523.653	2.5	775179	WORD	n/a	wordpools/wordpool_categorized_EN.txt	LADLE	KitchenTools	11	11	[0, 0, 0]	n/a	catFR1	0	R1086M
1526.153	1.617	776429	WORD	n/a	wordpools/wordpool_categorized_EN.txt	CORKSCREW	KitchenTools	12	11	[0, 0, 0]	n/a	catFR1	0	R1086M
1527.77	0.001	777237	DISTRACT_START	n/a	n/a	n/a	n/a	-999	11	[0, 0, 0]	n/a	catFR1	0	R1086M
1527.771	0.016	777238	START	n/a	n/a	n/a	n/a	-999	11	[-999, -999, -999]	n/a	catFR1	0	R1086M
1527.787	3.801	777246	PROB	3.801	n/a	n/a	n/a	-999	11	[2, 4, 5]	11	catFR1	0	R1086M
1531.588	3.2	779146	PROB	3.2	n/a	n/a	n/a	-999	11	[9, 5, 9]	24	catFR1	0	R1086M
1534.788	2.134	780746	PROB	2.134	n/a	n/a	n/a	-999	11	[1, 4, 5]	10	catFR1	0	R1086M
1536.922	3.184	781813	PROB	3.184	n/a	n/a	n/a	-999	11	[8, 7, 7]	22	catFR1	0	R1086M
1540.106	2.917	783405	PROB	2.917	n/a	n/a	n/a	-999	11	[5, 9, 1]	15	catFR1	0	R1086M
1543.023	1.717	784863	PROB	1.717	n/a	n/a	n/a	-999	11	[4, 6, 2]	12	catFR1	0	R1086M
1544.74	4.13	785722	PROB	4.13	n/a	n/a	n/a	-999	11	[9, 1, 8]	18	catFR1	0	R1086M
1548.87	0.004	787787	STOP	n/a	n/a	n/a	n/a	-999	11	[-999, -999, -999]	n/a	catFR1	0	R1086M
1548.874	1.201	787789	DISTRACT_END	n/a	n/a	n/a	n/a	-999	11	[0, 0, 0]	n/a	catFR1	0	R1086M
1550.075	7.147	788389	REC_START	n/a	n/a	n/a	n/a	-999	11	[0, 0, 0]	n/a	catFR1	0	R1086M
1557.222	0.556	791962	REC_WORD	0.556	n/a	BEE	Insects	1	11	[0, 0, 0]	n/a	catFR1	0	R1086M
1557.778	22.306	792240	REC_WORD	22.306	n/a	BUTTERFLY	Insects	2	11	[0, 0, 0]	n/a	catFR1	0	R1086M
1580.084	5.064	803392	REC_END	n/a	n/a	n/a	n/a	-999	11	[0, 0, 0]	n/a	catFR1	0	R1086M
1585.148	0.0	805924	TRIAL	n/a	n/a	n/a	n/a	-999	12	[0, 0, 0]	n/a	catFR1	0	R1086M
1585.148	10.428	805924	COUNTDOWN_START	n/a	n/a	n/a	n/a	-999	12	[0, 0, 0]	n/a	catFR1	0	R1086M
1595.576	0.007	811138	COUNTDOWN_END	n/a	n/a	n/a	n/a	-999	12	[0, 0, 0]	n/a	catFR1	0	R1086M
1595.583	3.968	811141	ORIENT	n/a	n/a	n/a	n/a	-999	12	[0, 0, 0]	n/a	catFR1	0	R1086M
1599.551	2.617	813125	WORD	n/a	wordpools/wordpool_categorized_EN.txt	PEAR	Fruit	1	12	[0, 0, 0]	n/a	catFR1	0	R1086M
1602.168	2.55	814434	WORD	n/a	wordpools/wordpool_categorized_EN.txt	STRAWBERRY	Fruit	2	12	[0, 0, 0]	n/a	catFR1	0	R1086M
1604.718	2.518	815709	WORD	n/a	wordpools/wordpool_categorized_EN.txt	DRESSER	Furniture	3	12	[0, 0, 0]	n/a	catFR1	0	R1086M
1607.236	2.617	816968	WORD	n/a	wordpools/wordpool_categorized_EN.txt	NIGHTSTAND	Furniture	4	12	[0, 0, 0]	n/a	catFR1	0	R1086M
1609.853	2.45	818276	WORD	n/a	wordpools/wordpool_categorized_EN.txt	LEVEL	Tools	5	12	[0, 0, 0]	n/a	catFR1	0	R1086M
1612.303	2.501	819501	WORD	n/a	wordpools/wordpool_categorized_EN.txt	DRILL	Tools	6	12	[0, 0, 0]	n/a	catFR1	0	R1086M
1614.804	2.567	820751	WORD	n/a	wordpools/wordpool_categorized_EN.txt	ORANGE	Fruit	7	12	[0, 0, 0]	n/a	catFR1	0	R1086M
1617.371	2.5	822035	WORD	n/a	wordpools/wordpool_categorized_EN.txt	CHERRY	Fruit	8	12	[0, 0, 0]	n/a	catFR1	0	R1086M
1619.871	2.384	823285	WORD	n/a	wordpools/wordpool_categorized_EN.txt	AXE	Tools	9	12	[0, 0, 0]	n/a	catFR1	0	R1086M
1622.255	2.534	824477	WORD	n/a	wordpools/wordpool_categorized_EN.txt	SHOVEL	Tools	10	12	[0, 0, 0]	n/a	catFR1	0	R1086M
1624.789	2.5	825743	WORD	n/a	wordpools/wordpool_categorized_EN.txt	RECLINER	Furniture	11	12	[0, 0, 0]	n/a	catFR1	0	R1086M
1627.289	1.617	826993	WORD	n/a	wordpools/wordpool_categorized_EN.txt	SOFA	Furniture	12	12	[0, 0, 0]	n/a	catFR1	0	R1086M
1628.906	0.001	827802	DISTRACT_START	n/a	n/a	n/a	n/a	-999	12	[0, 0, 0]	n/a	catFR1	0	R1086M
1628.907	0.016	827802	START	n/a	n/a	n/a	n/a	-999	12	[-999, -999, -999]	n/a	catFR1	0	R1086M
1628.923	4.201	827810	PROB	4.201	n/a	n/a	n/a	-999	12	[5, 7, 4]	16	catFR1	0	R1086M
1633.124	3.401	829911	PROB	3.401	n/a	n/a	n/a	-999	12	[6, 3, 5]	14	catFR1	0	R1086M
1636.525	2.067	831611	PROB	2.067	n/a	n/a	n/a	-999	12	[1, 2, 1]	4	catFR1	0	R1086M
1638.592	2.65	832644	PROB	2.65	n/a	n/a	n/a	-999	12	[7, 1, 7]	15	catFR1	0	R1086M
1641.242	2.651	833969	PROB	2.651	n/a	n/a	n/a	-999	12	[5, 2, 2]	9	catFR1	0	R1086M
1643.893	3.3	835295	PROB	3.3	n/a	n/a	n/a	-999	12	[7, 4, 3]	14	catFR1	0	R1086M
1647.193	4.189	836945	PROB	4.189	n/a	n/a	n/a	-999	12	[6, 7, 7]	20	catFR1	0	R1086M
1651.382	0.012	839039	STOP	n/a	n/a	n/a	n/a	-999	12	[-999, -999, -999]	n/a	catFR1	0	R1086M
1651.394	1.201	839045	DISTRACT_END	n/a	n/a	n/a	n/a	-999	12	[0, 0, 0]	n/a	catFR1	0	R1086M
1652.595	2.076	839645	REC_START	n/a	n/a	n/a	n/a	-999	12	[0, 0, 0]	n/a	catFR1	0	R1086M
1654.671	1.187	840683	REC_WORD	1.187	n/a	PEAR	Fruit	1	12	[0, 0, 0]	n/a	catFR1	0	R1086M
1655.858	1.825	841277	REC_WORD	1.825	n/a	STRAWBERRY	Fruit	2	12	[0, 0, 0]	n/a	catFR1	0	R1086M
1657.683	7.985	842189	REC_WORD	7.985	n/a	ORANGE	Fruit	7	12	[0, 0, 0]	n/a	catFR1	0	R1086M
1665.668	16.937	846181	REC_WORD	16.937	n/a	APPLE	n/a	-999	12	[0, 0, 0]	n/a	catFR1	0	R1086M
1682.605	3.062	854649	REC_END	n/a	n/a	n/a	n/a	-999	12	[0, 0, 0]	n/a	catFR1	0	R1086M
1685.667	0.001	856180	COUNTDOWN_START	n/a	n/a	n/a	n/a	-999	13	[0, 0, 0]	n/a	catFR1	0	R1086M
1685.668	10.427	856181	TRIAL	n/a	n/a	n/a	n/a	-999	13	[0, 0, 0]	n/a	catFR1	0	R1086M
1696.095	0.008	861394	COUNTDOWN_END	n/a	n/a	n/a	n/a	-999	13	[0, 0, 0]	n/a	catFR1	0	R1086M
1696.103	3.767	861398	ORIENT	n/a	n/a	n/a	n/a	-999	13	[0, 0, 0]	n/a	catFR1	0	R1086M
1699.87	2.601	863281	WORD	n/a	wordpools/wordpool_categorized_EN.txt	BASEBALL	Toys	1	13	[0, 0, 0]	n/a	catFR1	0	R1086M
1702.471	2.55	864582	WORD	n/a	wordpools/wordpool_categorized_EN.txt	MARBLES	Toys	2	13	[0, 0, 0]	n/a	catFR1	0	R1086M
1705.021	2.584	865857	WORD	n/a	wordpools/wordpool_categorized_EN.txt	SAW	Tools	3	13	[0, 0, 0]	n/a	catFR1	0	R1086M
1707.605	2.45	867149	WORD	n/a	wordpools/wordpool_categorized_EN.txt	RATCHET	Tools	4	13	[0, 0, 0]	n/a	catFR1	0	R1086M
1710.055	2.534	868373	WORD	n/a	wordpools/wordpool_categorized_EN.txt	WALNUT	Trees	5	13	[0, 0, 0]	n/a	catFR1	0	R1086M
1712.589	2.617	869640	WORD	n/a	wordpools/wordpool_categorized_EN.txt	HICKORY	Trees	6	13	[0, 0, 0]	n/a	catFR1	0	R1086M
1715.206	2.584	870949	WORD	n/a	wordpools/wordpool_categorized_EN.txt	BALL	Toys	7	13	[0, 0, 0]	n/a	catFR1	0	R1086M
1717.79	2.451	872241	WORD	n/a	wordpools/wordpool_categorized_EN.txt	FOOTBALL	Toys	8	13	[0, 0, 0]	n/a	catFR1	0	R1086M
1720.241	2.617	873466	WORD	n/a	wordpools/wordpool_categorized_EN.txt	PINE	Trees	9	13	[0, 0, 0]	n/a	catFR1	0	R1086M
1722.858	2.617	874774	WORD	n/a	wordpools/wordpool_categorized_EN.txt	WILLOW	Trees	10	13	[0, 0, 0]	n/a	catFR1	0	R1086M
1725.475	2.617	876083	WORD	n/a	wordpools/wordpool_categorized_EN.txt	CROWBAR	Tools	11	13	[0, 0, 0]	n/a	catFR1	0	R1086M
1728.092	1.617	877391	WORD	n/a	wordpools/wordpool_categorized_EN.txt	PLIERS	Tools	12	13	[0, 0, 0]	n/a	catFR1	0	R1086M
1729.709	0.001	878200	DISTRACT_START	n/a	n/a	n/a	n/a	-999	13	[0, 0, 0]	n/a	catFR1	0	R1086M
1729.71	0.016	878200	START	n/a	n/a	n/a	n/a	-999	13	[-999, -999, -999]	n/a	catFR1	0	R1086M
1729.726	3.184	878208	PROB	3.184	n/a	n/a	n/a	-999	13	[7, 1, 3]	11	catFR1	0	R1086M
1732.91	2.667	879800	PROB	2.667	n/a	n/a	n/a	-999	13	[9, 3, 7]	19	catFR1	0	R1086M
1735.577	3.084	881134	PROB	3.084	n/a	n/a	n/a	-999	13	[2, 2, 3]	7	catFR1	0	R1086M
1738.661	1.784	882675	PROB	1.784	n/a	n/a	n/a	-999	13	[5, 1, 6]	12	catFR1	0	R1086M
1740.445	3.767	883567	PROB	3.767	n/a	n/a	n/a	-999	13	[9, 2, 7]	18	catFR1	0	R1086M
1744.212	3.534	885451	PROB	3.534	n/a	n/a	n/a	-999	13	[8, 8, 1]	17	catFR1	0	R1086M
1747.746	3.38	887218	PROB	3.38	n/a	n/a	n/a	-999	13	[1, 9, 8]	18	catFR1	0	R1086M
1751.126	0.004	888908	STOP	n/a	n/a	n/a	n/a	-999	13	[-999, -999, -999]	n/a	catFR1	0	R1086M
1751.13	1.051	888910	DISTRACT_END	n/a	n/a	n/a	n/a	-999	13	[0, 0, 0]	n/a	catFR1	0	R1086M
1752.181	3.368	889435	REC_START	n/a	n/a	n/a	n/a	-999	13	[0, 0, 0]	n/a	catFR1	0	R1086M
1755.549	0.883	891119	REC_WORD	0.883	n/a	BASEBALL	Toys	1	13	[0, 0, 0]	n/a	catFR1	0	R1086M
1756.432	11.963	891560	REC_WORD	11.963	n/a	BASKETBALL	n/a	-999	13	[0, 0, 0]	n/a	catFR1	0	R1086M
1768.395	13.795	897541	REC_WORD	13.795	n/a	MARBLES	Toys	2	13	[0, 0, 0]	n/a	catFR1	0	R1086M
1782.19	3.963	904438	REC_END	n/a	n/a	n/a	n/a	-999	13	[0, 0, 0]	n/a	catFR1	0	R1086M
1786.153	0.001	906420	COUNTDOWN_START	n/a	n/a	n/a	n/a	-999	14	[0, 0, 0]	n/a	catFR1	0	R1086M
1786.154	10.427	906420	TRIAL	n/a	n/a	n/a	n/a	-999	14	[0, 0, 0]	n/a	catFR1	0	R1086M
1796.581	0.008	911633	COUNTDOWN_END	n/a	n/a	n/a	n/a	-999	14	[0, 0, 0]	n/a	catFR1	0	R1086M
1796.589	3.967	911637	ORIENT	n/a	n/a	n/a	n/a	-999	14	[0, 0, 0]	n/a	catFR1	0	R1086M
1800.556	2.617	913621	WORD	n/a	wordpools/wordpool_categorized_EN.txt	SNOW	Weather	1	14	[0, 0, 0]	n/a	catFR1	0	R1086M
1803.173	2.418	914929	WORD	n/a	wordpools/wordpool_categorized_EN.txt	THUNDER	Weather	2	14	[0, 0, 0]	n/a	catFR1	0	R1086M
1805.591	2.417	916138	WORD	n/a	wordpools/wordpool_categorized_EN.txt	HILLS	Landscapes	3	14	[0, 0, 0]	n/a	catFR1	0	R1086M
1808.008	2.417	917347	WORD	n/a	wordpools/wordpool_categorized_EN.txt	STREAM	Landscapes	4	14	[0, 0, 0]	n/a	catFR1	0	R1086M
1810.425	2.6	918555	WORD	n/a	wordpools/wordpool_categorized_EN.txt	VACUUM	Appliances	5	14	[0, 0, 0]	n/a	catFR1	0	R1086M
1813.025	2.417	919855	WORD	n/a	wordpools/wordpool_categorized_EN.txt	DISHWASHER	Appliances	6	14	[0, 0, 0]	n/a	catFR1	0	R1086M
1815.442	2.451	921063	WORD	n/a	wordpools/wordpool_categorized_EN.txt	FOREST	Landscapes	7	14	[0, 0, 0]	n/a	catFR1	0	R1086M
1817.893	2.4	922289	WORD	n/a	wordpools/wordpool_categorized_EN.txt	WOODS	Landscapes	8	14	[0, 0, 0]	n/a	catFR1	0	R1086M
1820.293	2.535	923489	WORD	n/a	wordpools/wordpool_categorized_EN.txt	HUMIDITY	Weather	9	14	[0, 0, 0]	n/a	catFR1	0	R1086M
1822.828	2.483	924756	WORD	n/a	wordpools/wordpool_categorized_EN.txt	THUNDERSTORM	Weather	10	14	[0, 0, 0]	n/a	catFR1	0	R1086M
1825.311	2.434	925997	WORD	n/a	wordpools/wordpool_categorized_EN.txt	IRON	Appliances	11	14	[0, 0, 0]	n/a	catFR1	0	R1086M
1827.745	1.617	927214	WORD	n/a	wordpools/wordpool_categorized_EN.txt	WASHER	Appliances	12	14	[0, 0, 0]	n/a	catFR1	0	R1086M
1829.362	0.0	928023	DISTRACT_START	n/a	n/a	n/a	n/a	-999	14	[0, 0, 0]	n/a	catFR1	0	R1086M
1829.362	0.017	928023	START	n/a	n/a	n/a	n/a	-999	14	[-999, -999, -999]	n/a	catFR1	0	R1086M
1829.379	5.567	928031	PROB	5.567	n/a	n/a	n/a	-999	14	[9, 2, 3]	15	catFR1	0	R1086M
1834.946	4.651	930815	PROB	4.651	n/a	n/a	n/a	-999	14	[2, 9, 6]	17	catFR1	0	R1086M
1839.597	2.901	933140	PROB	2.901	n/a	n/a	n/a	-999	14	[5, 3, 4]	12	catFR1	0	R1086M
1842.498	3.867	934590	PROB	3.867	n/a	n/a	n/a	-999	14	[7, 2, 8]	17	catFR1	0	R1086M
1846.365	2.667	936524	PROB	2.667	n/a	n/a	n/a	-999	14	[9, 3, 1]	13	catFR1	0	R1086M
1849.032	4.934	937857	PROB	4.934	n/a	n/a	n/a	-999	14	[2, 5, 9]	16	catFR1	0	R1086M
1853.966	0.017	940324	STOP	n/a	n/a	n/a	n/a	-999	14	[-999, -999, -999]	n/a	catFR1	0	R1086M
1853.983	1.168	940332	DISTRACT_END	n/a	n/a	n/a	n/a	-999	14	[0, 0, 0]	n/a	catFR1	0	R1086M
1855.151	15.296	940916	REC_START	n/a	n/a	n/a	n/a	-999	14	[0, 0, 0]	n/a	catFR1	0	R1086M
1870.447	14.713	948564	REC_WORD	14.713	n/a	THUNDERSTORM	Weather	10	14	[0, 0, 0]	n/a	catFR1	0	R1086M
1885.16	3.697	955920	REC_END	n/a	n/a	n/a	n/a	-999	14	[0, 0, 0]	n/a	catFR1	0	R1086M
1888.857	0.0	957768	TRIAL	n/a	n/a	n/a	n/a	-999	15	[0, 0, 0]	n/a	catFR1	0	R1086M
1888.857	10.428	957768	COUNTDOWN_START	n/a	n/a	n/a	n/a	-999	15	[0, 0, 0]	n/a	catFR1	0	R1086M
1899.285	0.007	962982	COUNTDOWN_END	n/a	n/a	n/a	n/a	-999	15	[0, 0, 0]	n/a	catFR1	0	R1086M
1899.292	3.734	962985	ORIENT	n/a	n/a	n/a	n/a	-999	15	[0, 0, 0]	n/a	catFR1	0	R1086M
1903.026	2.384	964852	WORD	n/a	wordpools/wordpool_categorized_EN.txt	RADIO	Electronics	1	15	[0, 0, 0]	n/a	catFR1	0	R1086M
1905.41	2.484	966044	WORD	n/a	wordpools/wordpool_categorized_EN.txt	MICROWAVE	Electronics	2	15	[0, 0, 0]	n/a	catFR1	0	R1086M
1907.894	2.6	967286	WORD	n/a	wordpools/wordpool_categorized_EN.txt	TORNADO	Weather	3	15	[0, 0, 0]	n/a	catFR1	0	R1086M
1910.494	2.617	968586	WORD	n/a	wordpools/wordpool_categorized_EN.txt	RAIN	Weather	4	15	[0, 0, 0]	n/a	catFR1	0	R1086M
1913.111	2.584	969894	WORD	n/a	wordpools/wordpool_categorized_EN.txt	COAT	Clothing	5	15	[0, 0, 0]	n/a	catFR1	0	R1086M
1915.695	2.467	971186	WORD	n/a	wordpools/wordpool_categorized_EN.txt	DRESS	Clothing	6	15	[0, 0, 0]	n/a	catFR1	0	R1086M
1918.162	2.484	972420	WORD	n/a	wordpools/wordpool_categorized_EN.txt	DRIZZLE	Weather	7	15	[0, 0, 0]	n/a	catFR1	0	R1086M
1920.646	2.501	973662	WORD	n/a	wordpools/wordpool_categorized_EN.txt	CLOUD	Weather	8	15	[0, 0, 0]	n/a	catFR1	0	R1086M
1923.147	2.5	974912	WORD	n/a	wordpools/wordpool_categorized_EN.txt	COMPUTER	Electronics	9	15	[0, 0, 0]	n/a	catFR1	0	R1086M
1925.647	2.551	976162	WORD	n/a	wordpools/wordpool_categorized_EN.txt	TABLET	Electronics	10	15	[0, 0, 0]	n/a	catFR1	0	R1086M
1928.198	2.6	977437	WORD	n/a	wordpools/wordpool_categorized_EN.txt	SOCKS	Clothing	11	15	[0, 0, 0]	n/a	catFR1	0	R1086M
1930.798	1.617	978737	WORD	n/a	wordpools/wordpool_categorized_EN.txt	JACKET	Clothing	12	15	[0, 0, 0]	n/a	catFR1	0	R1086M
1932.415	0.001	979546	DISTRACT_START	n/a	n/a	n/a	n/a	-999	15	[0, 0, 0]	n/a	catFR1	0	R1086M
1932.416	0.016	979546	START	n/a	n/a	n/a	n/a	-999	15	[-999, -999, -999]	n/a	catFR1	0	R1086M
1932.432	4.884	979554	PROB	4.884	n/a	n/a	n/a	-999	15	[8, 6, 7]	21	catFR1	0	R1086M
1937.316	2.367	981996	PROB	2.367	n/a	n/a	n/a	-999	15	[4, 6, 5]	15	catFR1	0	R1086M
1939.683	3.034	983179	PROB	3.034	n/a	n/a	n/a	-999	15	[3, 4, 1]	8	catFR1	0	R1086M
1942.717	3.318	984696	PROB	3.318	n/a	n/a	n/a	-999	15	[2, 4, 7]	13	catFR1	0	R1086M
1946.035	2.383	986355	PROB	2.383	n/a	n/a	n/a	-999	15	[7, 3, 4]	14	catFR1	0	R1086M
1948.418	2.468	987547	PROB	2.468	n/a	n/a	n/a	-999	15	[8, 1, 1]	10	catFR1	0	R1086M
1950.886	4.129	988781	PROB	4.129	n/a	n/a	n/a	-999	15	[3, 8, 4]	15	catFR1	0	R1086M
1955.015	0.005	990845	STOP	n/a	n/a	n/a	n/a	-999	15	[-999, -999, -999]	n/a	catFR1	0	R1086M
1955.02	1.05	990847	DISTRACT_END	n/a	n/a	n/a	n/a	-999	15	[0, 0, 0]	n/a	catFR1	0	R1086M
1956.07	21.912	991372	REC_START	n/a	n/a	n/a	n/a	-999	15	[0, 0, 0]	n/a	catFR1	0	R1086M
1977.982	8.101	1002328	REC_WORD_VV	8.101	n/a	<>	n/a	-999	15	[0, 0, 0]	n/a	catFR1	0	R1086M
1986.083	2.727	1006378	REC_END	n/a	n/a	n/a	n/a	-999	15	[0, 0, 0]	n/a	catFR1	0	R1086M
1988.81	0.001	1007741	COUNTDOWN_START	n/a	n/a	n/a	n/a	-999	16	[0, 0, 0]	n/a	catFR1	0	R1086M
1988.811	10.427	1007742	TRIAL	n/a	n/a	n/a	n/a	-999	16	[0, 0, 0]	n/a	catFR1	0	R1086M
1999.238	0.007	1012955	COUNTDOWN_END	n/a	n/a	n/a	n/a	-999	16	[0, 0, 0]	n/a	catFR1	0	R1086M
1999.245	3.568	1012958	ORIENT	n/a	n/a	n/a	n/a	-999	16	[0, 0, 0]	n/a	catFR1	0	R1086M
2002.813	2.45	1014742	WORD	n/a	wordpools/wordpool_categorized_EN.txt	LION	Zoo	1	16	[0, 0, 0]	n/a	catFR1	0	R1086M
2005.263	2.4	1015967	WORD	n/a	wordpools/wordpool_categorized_EN.txt	GIRAFFE	Zoo	2	16	[0, 0, 0]	n/a	catFR1	0	R1086M
2007.663	2.417	1017167	WORD	n/a	wordpools/wordpool_categorized_EN.txt	PUDDING	Desserts	3	16	[0, 0, 0]	n/a	catFR1	0	R1086M
2010.08	2.484	1018375	WORD	n/a	wordpools/wordpool_categorized_EN.txt	JELLO	Desserts	4	16	[0, 0, 0]	n/a	catFR1	0	R1086M
2012.564	2.517	1019617	WORD	n/a	wordpools/wordpool_categorized_EN.txt	SCREWDRIVER	Tools	5	16	[0, 0, 0]	n/a	catFR1	0	R1086M
2015.081	2.401	1020876	WORD	n/a	wordpools/wordpool_categorized_EN.txt	WRENCH	Tools	6	16	[0, 0, 0]	n/a	catFR1	0	R1086M
2017.482	2.5	1022076	WORD	n/a	wordpools/wordpool_categorized_EN.txt	CAKE	Desserts	7	16	[0, 0, 0]	n/a	catFR1	0	R1086M
2019.982	2.434	1023326	WORD	n/a	wordpools/wordpool_categorized_EN.txt	FUDGE	Desserts	8	16	[0, 0, 0]	n/a	catFR1	0	R1086M
2022.416	2.484	1024543	WORD	n/a	wordpools/wordpool_categorized_EN.txt	MONKEY	Zoo	9	16	[0, 0, 0]	n/a	catFR1	0	R1086M
2024.9	2.45	1025785	WORD	n/a	wordpools/wordpool_categorized_EN.txt	CHIMPANZEE	Zoo	10	16	[0, 0, 0]	n/a	catFR1	0	R1086M
2027.35	2.468	1027010	WORD	n/a	wordpools/wordpool_categorized_EN.txt	HAMMER	Tools	11	16	[0, 0, 0]	n/a	catFR1	0	R1086M
2029.818	1.616	1028244	WORD	n/a	wordpools/wordpool_categorized_EN.txt	SANDER	Tools	12	16	[0, 0, 0]	n/a	catFR1	0	R1086M
2031.434	0.001	1029052	DISTRACT_START	n/a	n/a	n/a	n/a	-999	16	[0, 0, 0]	n/a	catFR1	0	R1086M
2031.435	0.016	1029052	START	n/a	n/a	n/a	n/a	-999	16	[-999, -999, -999]	n/a	catFR1	0	R1086M
2031.451	2.884	1029060	PROB	2.884	n/a	n/a	n/a	-999	16	[5, 4, 9]	18	catFR1	0	R1086M
2034.335	3.234	1030502	PROB	3.234	n/a	n/a	n/a	-999	16	[6, 8, 5]	19	catFR1	0	R1086M
2037.569	2.117	1032119	PROB	2.117	n/a	n/a	n/a	-999	16	[4, 2, 6]	12	catFR1	0	R1086M
2039.686	3.534	1033177	PROB	3.534	n/a	n/a	n/a	-999	16	[3, 3, 9]	15	catFR1	0	R1086M
2043.22	3.151	1034944	PROB	3.151	n/a	n/a	n/a	-999	16	[4, 2, 3]	9	catFR1	0	R1086M
2046.371	2.067	1036520	PROB	2.067	n/a	n/a	n/a	-999	16	[1, 3, 7]	11	catFR1	0	R1086M
2048.438	2.9	1037553	PROB	2.9	n/a	n/a	n/a	-999	16	[8, 4, 5]	17	catFR1	0	R1086M
2051.338	2.252	1039003	PROB	2.252	n/a	n/a	n/a	-999	16	[9, 1, 3]	13	catFR1	0	R1086M
2053.59	0.015	1040129	STOP	n/a	n/a	n/a	n/a	-999	16	[-999, -999, -999]	n/a	catFR1	0	R1086M
2053.605	1.085	1040136	DISTRACT_END	n/a	n/a	n/a	n/a	-999	16	[0, 0, 0]	n/a	catFR1	0	R1086M
2054.69	1.28	1040679	REC_START	n/a	n/a	n/a	n/a	-999	16	[0, 0, 0]	n/a	catFR1	0	R1086M
2055.97	0.593	1041319	REC_WORD	0.593	n/a	LION	Zoo	1	16	[0, 0, 0]	n/a	catFR1	0	R1086M
2056.563	1.013	1041615	REC_WORD	1.013	n/a	GIRAFFE	Zoo	2	16	[0, 0, 0]	n/a	catFR1	0	R1086M
2057.576	0.729	1042122	REC_WORD	0.729	n/a	MONKEY	Zoo	9	16	[0, 0, 0]	n/a	catFR1	0	R1086M
2058.305	9.166	1042486	REC_WORD	9.166	n/a	CHIMPANZEE	Zoo	10	16	[0, 0, 0]	n/a	catFR1	0	R1086M
2067.471	17.23	1047069	REC_WORD	17.23	n/a	SCREWDRIVER	Tools	5	16	[0, 0, 0]	n/a	catFR1	0	R1086M
2084.701	3.611	1055683	REC_END	n/a	n/a	n/a	n/a	-999	16	[0, 0, 0]	n/a	catFR1	0	R1086M
2088.312	0.0	1057489	TRIAL	n/a	n/a	n/a	n/a	-999	17	[0, 0, 0]	n/a	catFR1	0	R1086M
2088.312	10.428	1057489	COUNTDOWN_START	n/a	n/a	n/a	n/a	-999	17	[0, 0, 0]	n/a	catFR1	0	R1086M
2098.74	0.007	1062702	COUNTDOWN_END	n/a	n/a	n/a	n/a	-999	17	[0, 0, 0]	n/a	catFR1	0	R1086M
2098.747	3.868	1062706	ORIENT	n/a	n/a	n/a	n/a	-999	17	[0, 0, 0]	n/a	catFR1	0	R1086M
2102.615	2.384	1064640	WORD	n/a	wordpools/wordpool_categorized_EN.txt	TABLE	Furniture	1	17	[0, 0, 0]	n/a	catFR1	0	R1086M
2104.999	2.484	1065832	WORD	n/a	wordpools/wordpool_categorized_EN.txt	DESK	Furniture	2	17	[0, 0, 0]	n/a	catFR1	0	R1086M
2107.483	2.583	1067074	WORD	n/a	wordpools/wordpool_categorized_EN.txt	RULER	OfficeSupplies	3	17	[0, 0, 0]	n/a	catFR1	0	R1086M
2110.066	2.518	1068365	WORD	n/a	wordpools/wordpool_categorized_EN.txt	TAPE	OfficeSupplies	4	17	[0, 0, 0]	n/a	catFR1	0	R1086M
2112.584	2.433	1069624	WORD	n/a	wordpools/wordpool_categorized_EN.txt	NOSE	BodyParts	5	17	[0, 0, 0]	n/a	catFR1	0	R1086M
2115.017	2.401	1070840	WORD	n/a	wordpools/wordpool_categorized_EN.txt	KNEE	BodyParts	6	17	[0, 0, 0]	n/a	catFR1	0	R1086M
2117.418	2.617	1072041	WORD	n/a	wordpools/wordpool_categorized_EN.txt	STAPLER	OfficeSupplies	7	17	[0, 0, 0]	n/a	catFR1	0	R1086M
2120.035	2.467	1073349	WORD	n/a	wordpools/wordpool_categorized_EN.txt	PAPER	OfficeSupplies	8	17	[0, 0, 0]	n/a	catFR1	0	R1086M
2122.502	2.417	1074583	WORD	n/a	wordpools/wordpool_categorized_EN.txt	CABINET	Furniture	9	17	[0, 0, 0]	n/a	catFR1	0	R1086M
2124.919	2.601	1075791	WORD	n/a	wordpools/wordpool_categorized_EN.txt	BED	Furniture	10	17	[0, 0, 0]	n/a	catFR1	0	R1086M
2127.52	2.467	1077091	WORD	n/a	wordpools/wordpool_categorized_EN.txt	EYE	BodyParts	11	17	[0, 0, 0]	n/a	catFR1	0	R1086M
2129.987	1.617	1078325	WORD	n/a	wordpools/wordpool_categorized_EN.txt	EAR	BodyParts	12	17	[0, 0, 0]	n/a	catFR1	0	R1086M
2131.604	0.0	1079133	DISTRACT_START	n/a	n/a	n/a	n/a	-999	17	[0, 0, 0]	n/a	catFR1	0	R1086M
2131.604	0.017	1079133	START	n/a	n/a	n/a	n/a	-999	17	[-999, -999, -999]	n/a	catFR1	0	R1086M
2131.621	4.167	1079142	PROB	4.167	n/a	n/a	n/a	-999	17	[3, 9, 3]	15	catFR1	0	R1086M
2135.788	2.65	1081225	PROB	2.65	n/a	n/a	n/a	-999	17	[3, 4, 2]	9	catFR1	0	R1086M
2138.438	2.184	1082550	PROB	2.184	n/a	n/a	n/a	-999	17	[8, 1, 8]	17	catFR1	0	R1086M
2140.622	1.801	1083642	PROB	1.801	n/a	n/a	n/a	-999	17	[5, 5, 2]	12	catFR1	0	R1086M
2142.423	4.317	1084542	PROB	4.317	n/a	n/a	n/a	-999	17	[8, 3, 1]	12	catFR1	0	R1086M
2146.74	3.834	1086701	PROB	3.834	n/a	n/a	n/a	-999	17	[2, 6, 5]	13	catFR1	0	R1086M
2150.574	4.585	1088618	PROB	4.585	n/a	n/a	n/a	-999	17	[9, 4, 8]	21	catFR1	0	R1086M
2155.159	0.016	1090910	STOP	n/a	n/a	n/a	n/a	-999	17	[-999, -999, -999]	n/a	catFR1	0	R1086M
2155.175	1.101	1090918	DISTRACT_END	n/a	n/a	n/a	n/a	-999	17	[0, 0, 0]	n/a	catFR1	0	R1086M
2156.276	23.51	1091468	REC_START	n/a	n/a	n/a	n/a	-999	17	[0, 0, 0]	n/a	catFR1	0	R1086M
2179.786	6.499	1103223	REC_WORD	6.499	n/a	SCHOOL	n/a	-999	17	[0, 0, 0]	n/a	catFR1	0	R1086M
2186.285	7.581	1106472	REC_END	n/a	n/a	n/a	n/a	-999	17	[0, 0, 0]	n/a	catFR1	0	R1086M
2193.866	0.0	1110262	TRIAL	n/a	n/a	n/a	n/a	-999	18	[0, 0, 0]	n/a	catFR1	0	R1086M
2193.866	10.428	1110262	COUNTDOWN_START	n/a	n/a	n/a	n/a	-999	18	[0, 0, 0]	n/a	catFR1	0	R1086M
2204.294	0.007	1115476	COUNTDOWN_END	n/a	n/a	n/a	n/a	-999	18	[0, 0, 0]	n/a	catFR1	0	R1086M
2204.301	3.551	1115479	ORIENT	n/a	n/a	n/a	n/a	-999	18	[0, 0, 0]	n/a	catFR1	0	R1086M
2207.852	2.5	1117255	WORD	n/a	wordpools/wordpool_categorized_EN.txt	PANDA	Zoo	1	18	[0, 0, 0]	n/a	catFR1	0	R1086M
2210.352	2.418	1118504	WORD	n/a	wordpools/wordpool_categorized_EN.txt	ORANGUTAN	Zoo	2	18	[0, 0, 0]	n/a	catFR1	0	R1086M
2212.77	2.467	1119713	WORD	n/a	wordpools/wordpool_categorized_EN.txt	ROOSTER	FarmAnimals	3	18	[0, 0, 0]	n/a	catFR1	0	R1086M
2215.237	2.484	1120947	WORD	n/a	wordpools/wordpool_categorized_EN.txt	HEN	FarmAnimals	4	18	[0, 0, 0]	n/a	catFR1	0	R1086M
2217.721	2.533	1122189	WORD	n/a	wordpools/wordpool_categorized_EN.txt	BUS	Vehicles	5	18	[0, 0, 0]	n/a	catFR1	0	R1086M
2220.254	2.417	1123455	WORD	n/a	wordpools/wordpool_categorized_EN.txt	CAR	Vehicles	6	18	[0, 0, 0]	n/a	catFR1	0	R1086M
2222.671	2.601	1124664	WORD	n/a	wordpools/wordpool_categorized_EN.txt	TIGER	Zoo	7	18	[0, 0, 0]	n/a	catFR1	0	R1086M
2225.272	2.501	1125964	WORD	n/a	wordpools/wordpool_categorized_EN.txt	ELEPHANT	Zoo	8	18	[0, 0, 0]	n/a	catFR1	0	R1086M
2227.773	2.55	1127214	WORD	n/a	wordpools/wordpool_categorized_EN.txt	JEEP	Vehicles	9	18	[0, 0, 0]	n/a	catFR1	0	R1086M
2230.323	2.434	1128489	WORD	n/a	wordpools/wordpool_categorized_EN.txt	MOTORCYCLE	Vehicles	10	18	[0, 0, 0]	n/a	catFR1	0	R1086M
2232.757	2.434	1129706	WORD	n/a	wordpools/wordpool_categorized_EN.txt	HORSE	FarmAnimals	11	18	[0, 0, 0]	n/a	catFR1	0	R1086M
2235.191	1.618	1130923	WORD	n/a	wordpools/wordpool_categorized_EN.txt	CHICKEN	FarmAnimals	12	18	[0, 0, 0]	n/a	catFR1	0	R1086M
2236.809	0.0	1131732	DISTRACT_START	n/a	n/a	n/a	n/a	-999	18	[0, 0, 0]	n/a	catFR1	0	R1086M
2236.809	0.016	1131732	START	n/a	n/a	n/a	n/a	-999	18	[-999, -999, -999]	n/a	catFR1	0	R1086M
2236.825	4.333	1131740	PROB	4.333	n/a	n/a	n/a	-999	18	[1, 7, 5]	13	catFR1	0	R1086M
2241.158	3.551	1133906	PROB	3.551	n/a	n/a	n/a	-999	18	[5, 8, 7]	20	catFR1	0	R1086M
2244.709	4.251	1135682	PROB	4.251	n/a	n/a	n/a	-999	18	[2, 4, 9]	15	catFR1	0	R1086M
2248.96	3.167	1137807	PROB	3.167	n/a	n/a	n/a	-999	18	[8, 8, 6]	24	catFR1	0	R1086M
2252.127	3.685	1139390	PROB	3.685	n/a	n/a	n/a	-999	18	[6, 2, 9]	17	catFR1	0	R1086M
2255.812	6.467	1141233	PROB	6.467	n/a	n/a	n/a	-999	18	[3, 7, 7]	17	catFR1	0	R1086M
2262.279	0.017	1144466	STOP	n/a	n/a	n/a	n/a	-999	18	[-999, -999, -999]	n/a	catFR1	0	R1086M
2262.296	1.084	1144475	DISTRACT_END	n/a	n/a	n/a	n/a	-999	18	[0, 0, 0]	n/a	catFR1	0	R1086M
2263.38	8.132	1145017	REC_START	n/a	n/a	n/a	n/a	-999	18	[0, 0, 0]	n/a	catFR1	0	R1086M
2271.512	3.147	1149082	REC_WORD	3.147	n/a	PANDA	Zoo	1	18	[0, 0, 0]	n/a	catFR1	0	R1086M
2274.659	0.924	1150656	REC_WORD	0.924	n/a	TIGER	Zoo	7	18	[0, 0, 0]	n/a	catFR1	0	R1086M
2275.583	2.847	1151118	REC_WORD	2.847	n/a	LION	n/a	-999	18	[0, 0, 0]	n/a	catFR1	0	R1086M
2278.43	14.96	1152541	REC_WORD	14.96	n/a	CHIMPANZEE	n/a	-999	18	[0, 0, 0]	n/a	catFR1	0	R1086M
2293.39	12.164	1160021	REC_END	n/a	n/a	n/a	n/a	-999	18	[0, 0, 0]	n/a	catFR1	0	R1086M
2305.554	0.0	1166102	TRIAL	n/a	n/a	n/a	n/a	-999	19	[0, 0, 0]	n/a	catFR1	0	R1086M
2305.554	0.0	1166102	COUNTDOWN_START	n/a	n/a	n/a	n/a	-999	19	[0, 0, 0]	n/a	catFR1	0	R1086M
