onset	duration	sample	trial_type	response_time	stim_file	item_name	category	serialpos	list	test	answer	experiment	session	subject
0.0	34.852	1226	INSTRUCT_START	n/a	n/a	n/a	n/a	-999	-999	[0, 0, 0]	n/a	catFR1	0	R1315T
34.852	6.718	36076	INSTRUCT_END	n/a	n/a	n/a	n/a	-999	-999	[0, 0, 0]	n/a	catFR1	0	R1315T
41.57	6.569	42794	MIC TEST_START	n/a	n/a	n/a	n/a	-999	-999	[0, 0, 0]	n/a	catFR1	0	R1315T
48.139	0.012	49363	MIC TEST_END	n/a	n/a	n/a	n/a	-999	-999	[0, 0, 0]	n/a	catFR1	0	R1315T
48.151	0.0	49375	TRIAL_START	n/a	n/a	n/a	n/a	-999	-1	[0, 0, 0]	n/a	catFR1	0	R1315T
48.151	0.001	49375	TRIAL	n/a	n/a	n/a	n/a	-999	-1	[0, 0, 0]	n/a	catFR1	0	R1315T
48.152	21.023	49376	WAITING_START	n/a	n/a	n/a	n/a	-999	-1	[0, 0, 0]	n/a	catFR1	0	R1315T
69.175	0.001	70398	WAITING_END	n/a	n/a	n/a	n/a	-999	-1	[0, 0, 0]	n/a	catFR1	0	R1315T
69.176	10.429	70399	COUNTDOWN_START	n/a	n/a	n/a	n/a	-999	-1	[0, 0, 0]	n/a	catFR1	0	R1315T
79.605	0.001	80827	COUNTDOWN_END	n/a	n/a	n/a	n/a	-999	-1	[0, 0, 0]	n/a	catFR1	0	R1315T
79.606	1.138	80828	ORIENT_START	n/a	n/a	n/a	n/a	-999	-1	[0, 0, 0]	n/a	catFR1	0	R1315T
80.744	0.0	81966	ORIENT_END	n/a	n/a	n/a	n/a	-999	-1	[0, 0, 0]	n/a	catFR1	0	R1315T
80.744	0.937	81966	ENCODING_START	n/a	n/a	n/a	n/a	-999	-1	[0, 0, 0]	n/a	catFR1	0	R1315T
81.681	1.63	82903	WORD	n/a	n/a	FIREMAN	n/a	1	-1	[0, 0, 0]	n/a	catFR1	0	R1315T
83.311	0.786	84533	WORD_OFF	n/a	n/a	FIREMAN	n/a	1	-1	[0, 0, 0]	n/a	catFR1	0	R1315T
84.097	1.631	85319	WORD	n/a	n/a	DAY	n/a	2	-1	[0, 0, 0]	n/a	catFR1	0	R1315T
85.728	1.034	86950	WORD_OFF	n/a	n/a	DAY	n/a	2	-1	[0, 0, 0]	n/a	catFR1	0	R1315T
86.762	1.633	87984	WORD	n/a	n/a	TEACHER	n/a	3	-1	[0, 0, 0]	n/a	catFR1	0	R1315T
88.395	1.06	89617	WORD_OFF	n/a	n/a	TEACHER	n/a	3	-1	[0, 0, 0]	n/a	catFR1	0	R1315T
89.455	1.624	90677	WORD	n/a	n/a	MINUTE	n/a	4	-1	[0, 0, 0]	n/a	catFR1	0	R1315T
91.079	0.911	92301	WORD_OFF	n/a	n/a	MINUTE	n/a	4	-1	[0, 0, 0]	n/a	catFR1	0	R1315T
91.99	1.623	93212	WORD	n/a	n/a	PLUMBER	n/a	5	-1	[0, 0, 0]	n/a	catFR1	0	R1315T
93.613	0.821	94835	WORD_OFF	n/a	n/a	PLUMBER	n/a	5	-1	[0, 0, 0]	n/a	catFR1	0	R1315T
94.434	1.629	95656	WORD	n/a	n/a	HOUR	n/a	6	-1	[0, 0, 0]	n/a	catFR1	0	R1315T
96.063	0.867	97285	WORD_OFF	n/a	n/a	HOUR	n/a	6	-1	[0, 0, 0]	n/a	catFR1	0	R1315T
96.93	1.633	98152	WORD	n/a	n/a	LEATHER	n/a	7	-1	[0, 0, 0]	n/a	catFR1	0	R1315T
98.563	1.078	99785	WORD_OFF	n/a	n/a	LEATHER	n/a	7	-1	[0, 0, 0]	n/a	catFR1	0	R1315T
99.641	1.624	100863	WORD	n/a	n/a	WOOL	n/a	8	-1	[0, 0, 0]	n/a	catFR1	0	R1315T
101.265	0.855	102487	WORD_OFF	n/a	n/a	WOOL	n/a	8	-1	[0, 0, 0]	n/a	catFR1	0	R1315T
102.12	1.628	103341	WORD	n/a	n/a	FARMER	n/a	9	-1	[0, 0, 0]	n/a	catFR1	0	R1315T
103.748	0.843	104969	WORD_OFF	n/a	n/a	FARMER	n/a	9	-1	[0, 0, 0]	n/a	catFR1	0	R1315T
104.591	1.625	105812	WORD	n/a	n/a	SECOND	n/a	10	-1	[0, 0, 0]	n/a	catFR1	0	R1315T
106.216	0.8	107437	WORD_OFF	n/a	n/a	SECOND	n/a	10	-1	[0, 0, 0]	n/a	catFR1	0	R1315T
107.016	1.633	108237	WORD	n/a	n/a	DENIM	n/a	11	-1	[0, 0, 0]	n/a	catFR1	0	R1315T
108.649	0.951	109870	WORD_OFF	n/a	n/a	DENIM	n/a	11	-1	[0, 0, 0]	n/a	catFR1	0	R1315T
109.6	1.617	110821	WORD	n/a	n/a	SILK	n/a	12	-1	[0, 0, 0]	n/a	catFR1	0	R1315T
111.217	0.0	112438	WORD_OFF	n/a	n/a	SILK	n/a	12	-1	[0, 0, 0]	n/a	catFR1	0	R1315T
111.217	0.001	112438	ENCODING_END	n/a	n/a	n/a	n/a	-999	-1	[0, 0, 0]	n/a	catFR1	0	R1315T
111.218	0.0	112439	DISTRACT_START	n/a	n/a	n/a	n/a	-999	-1	[0, 0, 0]	n/a	catFR1	0	R1315T
111.218	0.015	112439	START	n/a	n/a	n/a	n/a	-999	-1	[-999, -999, -999]	n/a	catFR1	0	R1315T
111.233	3.7	112454	PROB	3.674	n/a	n/a	n/a	-999	-1	[5, 1, 4]	10.0	catFR1	0	R1315T
114.933	4.567	116154	PROB	4.531	n/a	n/a	n/a	-999	-1	[4, 6, 7]	17.0	catFR1	0	R1315T
119.5	6.885	120721	PROB	6.853	n/a	n/a	n/a	-999	-1	[3, 2, 9]	13.0	catFR1	0	R1315T
126.385	5.459	127605	PROB	5.459	n/a	n/a	n/a	-999	-1	[5, 4, 4]	13.0	catFR1	0	R1315T
131.844	0.009	133064	STOP	n/a	n/a	n/a	n/a	-999	-1	[-999, -999, -999]	n/a	catFR1	0	R1315T
131.853	0.52	133073	DISTRACT_END	n/a	n/a	n/a	n/a	-999	-1	[0, 0, 0]	n/a	catFR1	0	R1315T
132.373	1.647	133593	RETRIEVAL_ORIENT_START	n/a	n/a	n/a	n/a	-999	-1	[0, 0, 0]	n/a	catFR1	0	R1315T
134.02	0.0	135240	RETRIEVAL_ORIENT_END	n/a	n/a	n/a	n/a	-999	-1	[0, 0, 0]	n/a	catFR1	0	R1315T
134.02	1.22	135240	REC_START	n/a	n/a	n/a	n/a	-999	-1	[0, 0, 0]	n/a	catFR1	0	R1315T
135.24	0.751	136460	REC_WORD	1.22	n/a	FARM	n/a	-999	-1	[0, 0, 0]	n/a	catFR1	0	R1315T
135.991	28.043	137211	REC_WORD	1.971	n/a	DAY	n/a	2	-1	[0, 0, 0]	n/a	catFR1	0	R1315T
164.034	0.0	165253	REC_END	n/a	n/a	n/a	n/a	-999	-1	[0, 0, 0]	n/a	catFR1	0	R1315T
164.034	1.675	165253	PRACTICE_POST_INSTRUCT_START	n/a	n/a	n/a	n/a	-999	-1	[0, 0, 0]	n/a	catFR1	0	R1315T
165.709	0.001	166928	PRACTICE_POST_INSTRUCT_END	n/a	n/a	n/a	n/a	-999	-1	[0, 0, 0]	n/a	catFR1	0	R1315T
165.71	0.028	166929	TRIAL_END	n/a	n/a	n/a	n/a	-999	-1	[0, 0, 0]	n/a	catFR1	0	R1315T
165.738	0.0	166957	TRIAL_START	n/a	n/a	n/a	n/a	-999	1	[0, 0, 0]	n/a	catFR1	0	R1315T
165.738	0.001	166957	TRIAL	n/a	n/a	n/a	n/a	-999	1	[0, 0, 0]	n/a	catFR1	0	R1315T
165.739	1.12	166958	WAITING_START	n/a	n/a	n/a	n/a	-999	1	[0, 0, 0]	n/a	catFR1	0	R1315T
166.859	0.001	168078	WAITING_END	n/a	n/a	n/a	n/a	-999	1	[0, 0, 0]	n/a	catFR1	0	R1315T
166.86	10.43	168079	COUNTDOWN_START	n/a	n/a	n/a	n/a	-999	1	[0, 0, 0]	n/a	catFR1	0	R1315T
177.29	0.0	178508	COUNTDOWN_END	n/a	n/a	n/a	n/a	-999	1	[0, 0, 0]	n/a	catFR1	0	R1315T
177.29	1.105	178508	ORIENT_START	n/a	n/a	n/a	n/a	-999	1	[0, 0, 0]	n/a	catFR1	0	R1315T
178.395	0.0	179613	ORIENT_END	n/a	n/a	n/a	n/a	-999	1	[0, 0, 0]	n/a	catFR1	0	R1315T
178.395	0.907	179613	ENCODING_START	n/a	n/a	n/a	n/a	-999	1	[0, 0, 0]	n/a	catFR1	0	R1315T
179.302	1.626	180520	WORD	n/a	wordpools/wordpool_categorized_EN.txt	SHOES	Clothing	1	1	[0, 0, 0]	n/a	catFR1	0	R1315T
180.928	0.841	182146	WORD_OFF	n/a	n/a	SHOES	Clothing	1	1	[0, 0, 0]	n/a	catFR1	0	R1315T
181.769	1.627	182987	WORD	n/a	wordpools/wordpool_categorized_EN.txt	JEANS	Clothing	2	1	[0, 0, 0]	n/a	catFR1	0	R1315T
183.396	1.11	184614	WORD_OFF	n/a	n/a	JEANS	Clothing	2	1	[0, 0, 0]	n/a	catFR1	0	R1315T
184.506	1.623	185724	WORD	n/a	wordpools/wordpool_categorized_EN.txt	STEREO	Electronics	3	1	[0, 0, 0]	n/a	catFR1	0	R1315T
186.129	0.861	187347	WORD_OFF	n/a	n/a	STEREO	Electronics	3	1	[0, 0, 0]	n/a	catFR1	0	R1315T
186.99	1.64	188208	WORD	n/a	wordpools/wordpool_categorized_EN.txt	MICROWAVE	Electronics	4	1	[0, 0, 0]	n/a	catFR1	0	R1315T
188.63	1.132	189848	WORD_OFF	n/a	n/a	MICROWAVE	Electronics	4	1	[0, 0, 0]	n/a	catFR1	0	R1315T
189.762	1.635	190980	WORD	n/a	wordpools/wordpool_categorized_EN.txt	SCREWDRIVER	Tools	5	1	[0, 0, 0]	n/a	catFR1	0	R1315T
191.397	0.961	192615	WORD_OFF	n/a	n/a	SCREWDRIVER	Tools	5	1	[0, 0, 0]	n/a	catFR1	0	R1315T
192.358	1.623	193576	WORD	n/a	wordpools/wordpool_categorized_EN.txt	AXE	Tools	6	1	[0, 0, 0]	n/a	catFR1	0	R1315T
193.981	1.089	195198	WORD_OFF	n/a	n/a	AXE	Tools	6	1	[0, 0, 0]	n/a	catFR1	0	R1315T
195.07	1.628	196287	WORD	n/a	wordpools/wordpool_categorized_EN.txt	COAT	Clothing	7	1	[0, 0, 0]	n/a	catFR1	0	R1315T
196.698	0.933	197915	WORD_OFF	n/a	n/a	COAT	Clothing	7	1	[0, 0, 0]	n/a	catFR1	0	R1315T
197.631	1.635	198848	WORD	n/a	wordpools/wordpool_categorized_EN.txt	UNDERWEAR	Clothing	8	1	[0, 0, 0]	n/a	catFR1	0	R1315T
199.266	0.78	200483	WORD_OFF	n/a	n/a	UNDERWEAR	Clothing	8	1	[0, 0, 0]	n/a	catFR1	0	R1315T
200.046	1.636	201263	WORD	n/a	wordpools/wordpool_categorized_EN.txt	LEVEL	Tools	9	1	[0, 0, 0]	n/a	catFR1	0	R1315T
201.682	0.911	202899	WORD_OFF	n/a	n/a	LEVEL	Tools	9	1	[0, 0, 0]	n/a	catFR1	0	R1315T
202.593	1.607	203810	WORD	n/a	wordpools/wordpool_categorized_EN.txt	SAW	Tools	10	1	[0, 0, 0]	n/a	catFR1	0	R1315T
204.2	0.924	205417	WORD_OFF	n/a	n/a	SAW	Tools	10	1	[0, 0, 0]	n/a	catFR1	0	R1315T
205.124	1.626	206341	WORD	n/a	wordpools/wordpool_categorized_EN.txt	COMPUTER	Electronics	11	1	[0, 0, 0]	n/a	catFR1	0	R1315T
206.75	0.979	207967	WORD_OFF	n/a	n/a	COMPUTER	Electronics	11	1	[0, 0, 0]	n/a	catFR1	0	R1315T
207.729	1.638	208946	WORD	n/a	wordpools/wordpool_categorized_EN.txt	SPEAKER	Electronics	12	1	[0, 0, 0]	n/a	catFR1	0	R1315T
209.367	0.001	210584	WORD_OFF	n/a	n/a	SPEAKER	Electronics	12	1	[0, 0, 0]	n/a	catFR1	0	R1315T
209.368	0.0	210585	ENCODING_END	n/a	n/a	n/a	n/a	-999	1	[0, 0, 0]	n/a	catFR1	0	R1315T
209.368	0.0	210585	DISTRACT_START	n/a	n/a	n/a	n/a	-999	1	[0, 0, 0]	n/a	catFR1	0	R1315T
209.368	0.015	210585	START	n/a	n/a	n/a	n/a	-999	1	[-999, -999, -999]	n/a	catFR1	0	R1315T
209.383	3.802	210600	PROB	3.768	n/a	n/a	n/a	-999	1	[1, 9, 8]	18.0	catFR1	0	R1315T
213.185	4.983	214402	PROB	4.946	n/a	n/a	n/a	-999	1	[5, 1, 2]	8.0	catFR1	0	R1315T
218.168	2.851	219384	PROB	2.819	n/a	n/a	n/a	-999	1	[3, 8, 7]	18.0	catFR1	0	R1315T
221.019	1.934	222235	PROB	1.897	n/a	n/a	n/a	-999	1	[2, 2, 1]	5.0	catFR1	0	R1315T
222.953	6.051	224169	PROB	6.021	n/a	n/a	n/a	-999	1	[4, 7, 8]	20.0	catFR1	0	R1315T
229.004	10.508	230220	PROB	10.508	n/a	n/a	n/a	-999	1	[1, 5, 7]	13.0	catFR1	0	R1315T
239.512	0.01	240728	STOP	n/a	n/a	n/a	n/a	-999	1	[-999, -999, -999]	n/a	catFR1	0	R1315T
239.522	0.595	240738	DISTRACT_END	n/a	n/a	n/a	n/a	-999	1	[0, 0, 0]	n/a	catFR1	0	R1315T
240.117	1.656	241332	RETRIEVAL_ORIENT_START	n/a	n/a	n/a	n/a	-999	1	[0, 0, 0]	n/a	catFR1	0	R1315T
241.773	0.0	242988	REC_START	n/a	n/a	n/a	n/a	-999	1	[0, 0, 0]	n/a	catFR1	0	R1315T
241.773	12.087	242988	RETRIEVAL_ORIENT_END	n/a	n/a	n/a	n/a	-999	1	[0, 0, 0]	n/a	catFR1	0	R1315T
253.86	4.527	255075	REC_WORD	12.087	n/a	SHOES	Clothing	1	1	[0, 0, 0]	n/a	catFR1	0	R1315T
258.387	3.393	259602	REC_WORD	16.614	n/a	COMPUTER	Electronics	11	1	[0, 0, 0]	n/a	catFR1	0	R1315T
261.78	5.469	262995	REC_WORD	20.007	n/a	SPEAKER	Electronics	12	1	[0, 0, 0]	n/a	catFR1	0	R1315T
267.249	4.538	268463	REC_WORD	25.476	n/a	SAW	Tools	10	1	[0, 0, 0]	n/a	catFR1	0	R1315T
271.787	0.0	273001	REC_END	n/a	n/a	n/a	n/a	-999	1	[0, 0, 0]	n/a	catFR1	0	R1315T
271.787	0.021	273001	TRIAL_END	n/a	n/a	n/a	n/a	-999	1	[0, 0, 0]	n/a	catFR1	0	R1315T
271.808	0.0	273022	TRIAL_START	n/a	n/a	n/a	n/a	-999	2	[0, 0, 0]	n/a	catFR1	0	R1315T
271.808	0.0	273022	TRIAL	n/a	n/a	n/a	n/a	-999	2	[0, 0, 0]	n/a	catFR1	0	R1315T
271.808	1.954	273022	WAITING_START	n/a	n/a	n/a	n/a	-999	2	[0, 0, 0]	n/a	catFR1	0	R1315T
273.762	0.0	274976	WAITING_END	n/a	n/a	n/a	n/a	-999	2	[0, 0, 0]	n/a	catFR1	0	R1315T
273.762	10.429	274976	COUNTDOWN_START	n/a	n/a	n/a	n/a	-999	2	[0, 0, 0]	n/a	catFR1	0	R1315T
284.191	0.001	285405	COUNTDOWN_END	n/a	n/a	n/a	n/a	-999	2	[0, 0, 0]	n/a	catFR1	0	R1315T
284.192	1.255	285406	ORIENT_START	n/a	n/a	n/a	n/a	-999	2	[0, 0, 0]	n/a	catFR1	0	R1315T
285.447	0.001	286661	ORIENT_END	n/a	n/a	n/a	n/a	-999	2	[0, 0, 0]	n/a	catFR1	0	R1315T
285.448	0.84	286662	ENCODING_START	n/a	n/a	n/a	n/a	-999	2	[0, 0, 0]	n/a	catFR1	0	R1315T
286.288	1.626	287501	WORD	n/a	wordpools/wordpool_categorized_EN.txt	CEILING	Building	1	2	[0, 0, 0]	n/a	catFR1	0	R1315T
287.914	0.901	289127	WORD_OFF	n/a	n/a	CEILING	Building	1	2	[0, 0, 0]	n/a	catFR1	0	R1315T
288.815	1.633	290028	WORD	n/a	wordpools/wordpool_categorized_EN.txt	HALLWAY	Building	2	2	[0, 0, 0]	n/a	catFR1	0	R1315T
290.448	0.997	291661	WORD_OFF	n/a	n/a	HALLWAY	Building	2	2	[0, 0, 0]	n/a	catFR1	0	R1315T
291.445	1.637	292658	WORD	n/a	wordpools/wordpool_categorized_EN.txt	PUDDING	Desserts	3	2	[0, 0, 0]	n/a	catFR1	0	R1315T
293.082	1.11	294295	WORD_OFF	n/a	n/a	PUDDING	Desserts	3	2	[0, 0, 0]	n/a	catFR1	0	R1315T
294.192	1.624	295405	WORD	n/a	wordpools/wordpool_categorized_EN.txt	COOKIE	Desserts	4	2	[0, 0, 0]	n/a	catFR1	0	R1315T
295.816	0.968	297029	WORD_OFF	n/a	n/a	COOKIE	Desserts	4	2	[0, 0, 0]	n/a	catFR1	0	R1315T
296.784	1.633	297997	WORD	n/a	wordpools/wordpool_categorized_EN.txt	LILAC	Flowers	5	2	[0, 0, 0]	n/a	catFR1	0	R1315T
298.417	0.862	299630	WORD_OFF	n/a	n/a	LILAC	Flowers	5	2	[0, 0, 0]	n/a	catFR1	0	R1315T
299.279	1.621	300492	WORD	n/a	wordpools/wordpool_categorized_EN.txt	TULIP	Flowers	6	2	[0, 0, 0]	n/a	catFR1	0	R1315T
300.9	1.1	302113	WORD_OFF	n/a	n/a	TULIP	Flowers	6	2	[0, 0, 0]	n/a	catFR1	0	R1315T
302.0	1.634	303213	WORD	n/a	wordpools/wordpool_categorized_EN.txt	COBBLER	Desserts	7	2	[0, 0, 0]	n/a	catFR1	0	R1315T
303.634	0.902	304847	WORD_OFF	n/a	n/a	COBBLER	Desserts	7	2	[0, 0, 0]	n/a	catFR1	0	R1315T
304.536	1.632	305749	WORD	n/a	wordpools/wordpool_categorized_EN.txt	PASTRY	Desserts	8	2	[0, 0, 0]	n/a	catFR1	0	R1315T
306.168	1.089	307381	WORD_OFF	n/a	n/a	PASTRY	Desserts	8	2	[0, 0, 0]	n/a	catFR1	0	R1315T
307.257	1.628	308470	WORD	n/a	wordpools/wordpool_categorized_EN.txt	DAISY	Flowers	9	2	[0, 0, 0]	n/a	catFR1	0	R1315T
308.885	0.882	310097	WORD_OFF	n/a	n/a	DAISY	Flowers	9	2	[0, 0, 0]	n/a	catFR1	0	R1315T
309.767	1.635	310979	WORD	n/a	wordpools/wordpool_categorized_EN.txt	DAFFODIL	Flowers	10	2	[0, 0, 0]	n/a	catFR1	0	R1315T
311.402	1.129	312614	WORD_OFF	n/a	n/a	DAFFODIL	Flowers	10	2	[0, 0, 0]	n/a	catFR1	0	R1315T
312.531	1.638	313743	WORD	n/a	wordpools/wordpool_categorized_EN.txt	BATHROOM	Building	11	2	[0, 0, 0]	n/a	catFR1	0	R1315T
314.169	0.81	315381	WORD_OFF	n/a	n/a	BATHROOM	Building	11	2	[0, 0, 0]	n/a	catFR1	0	R1315T
314.979	1.624	316191	WORD	n/a	wordpools/wordpool_categorized_EN.txt	ROOF	Building	12	2	[0, 0, 0]	n/a	catFR1	0	R1315T
316.603	0.0	317815	WORD_OFF	n/a	n/a	ROOF	Building	12	2	[0, 0, 0]	n/a	catFR1	0	R1315T
316.603	0.001	317815	ENCODING_END	n/a	n/a	n/a	n/a	-999	2	[0, 0, 0]	n/a	catFR1	0	R1315T
316.604	0.0	317816	DISTRACT_START	n/a	n/a	n/a	n/a	-999	2	[0, 0, 0]	n/a	catFR1	0	R1315T
316.604	0.015	317816	START	n/a	n/a	n/a	n/a	-999	2	[-999, -999, -999]	n/a	catFR1	0	R1315T
316.619	3.918	317831	PROB	3.886	n/a	n/a	n/a	-999	2	[5, 8, 3]	16.0	catFR1	0	R1315T
320.537	2.0	321749	PROB	1.968	n/a	n/a	n/a	-999	2	[2, 5, 5]	12.0	catFR1	0	R1315T
322.537	4.084	323749	PROB	4.054	n/a	n/a	n/a	-999	2	[3, 4, 7]	14.0	catFR1	0	R1315T
326.621	6.401	327833	PROB	6.364	n/a	n/a	n/a	-999	2	[5, 7, 9]	19.0	catFR1	0	R1315T
333.022	7.817	334233	PROB	7.817	n/a	n/a	n/a	-999	2	[7, 9, 2]	18.0	catFR1	0	R1315T
340.839	0.018	342050	STOP	n/a	n/a	n/a	n/a	-999	2	[-999, -999, -999]	n/a	catFR1	0	R1315T
340.857	0.624	342068	DISTRACT_END	n/a	n/a	n/a	n/a	-999	2	[0, 0, 0]	n/a	catFR1	0	R1315T
341.481	1.593	342692	RETRIEVAL_ORIENT_START	n/a	n/a	n/a	n/a	-999	2	[0, 0, 0]	n/a	catFR1	0	R1315T
343.074	0.001	344285	RETRIEVAL_ORIENT_END	n/a	n/a	n/a	n/a	-999	2	[0, 0, 0]	n/a	catFR1	0	R1315T
343.075	1.529	344286	REC_START	n/a	n/a	n/a	n/a	-999	2	[0, 0, 0]	n/a	catFR1	0	R1315T
344.604	6.919	345815	REC_WORD	1.529	n/a	PASTRY	Desserts	8	2	[0, 0, 0]	n/a	catFR1	0	R1315T
351.523	21.565	352734	REC_WORD	8.448	n/a	BATHROOM	Building	11	2	[0, 0, 0]	n/a	catFR1	0	R1315T
373.088	0.0	374298	REC_END	n/a	n/a	n/a	n/a	-999	2	[0, 0, 0]	n/a	catFR1	0	R1315T
373.088	0.022	374298	TRIAL_END	n/a	n/a	n/a	n/a	-999	2	[0, 0, 0]	n/a	catFR1	0	R1315T
373.11	0.0	374320	TRIAL_START	n/a	n/a	n/a	n/a	-999	3	[0, 0, 0]	n/a	catFR1	0	R1315T
373.11	0.0	374320	TRIAL	n/a	n/a	n/a	n/a	-999	3	[0, 0, 0]	n/a	catFR1	0	R1315T
373.11	1.803	374320	WAITING_START	n/a	n/a	n/a	n/a	-999	3	[0, 0, 0]	n/a	catFR1	0	R1315T
374.913	0.001	376123	WAITING_END	n/a	n/a	n/a	n/a	-999	3	[0, 0, 0]	n/a	catFR1	0	R1315T
374.914	10.429	376124	COUNTDOWN_START	n/a	n/a	n/a	n/a	-999	3	[0, 0, 0]	n/a	catFR1	0	R1315T
385.343	0.0	386552	COUNTDOWN_END	n/a	n/a	n/a	n/a	-999	3	[0, 0, 0]	n/a	catFR1	0	R1315T
385.343	1.206	386552	ORIENT_START	n/a	n/a	n/a	n/a	-999	3	[0, 0, 0]	n/a	catFR1	0	R1315T
386.549	0.0	387758	ORIENT_END	n/a	n/a	n/a	n/a	-999	3	[0, 0, 0]	n/a	catFR1	0	R1315T
386.549	1.114	387758	ENCODING_START	n/a	n/a	n/a	n/a	-999	3	[0, 0, 0]	n/a	catFR1	0	R1315T
387.663	1.637	388872	WORD	n/a	wordpools/wordpool_categorized_EN.txt	BLENDER	Appliances	1	3	[0, 0, 0]	n/a	catFR1	0	R1315T
389.3	0.988	390509	WORD_OFF	n/a	n/a	BLENDER	Appliances	1	3	[0, 0, 0]	n/a	catFR1	0	R1315T
390.288	1.629	391497	WORD	n/a	wordpools/wordpool_categorized_EN.txt	REFRIGERATOR	Appliances	2	3	[0, 0, 0]	n/a	catFR1	0	R1315T
391.917	0.932	393126	WORD_OFF	n/a	n/a	REFRIGERATOR	Appliances	2	3	[0, 0, 0]	n/a	catFR1	0	R1315T
392.849	1.635	394058	WORD	n/a	wordpools/wordpool_categorized_EN.txt	ROSE	Flowers	3	3	[0, 0, 0]	n/a	catFR1	0	R1315T
394.484	0.879	395693	WORD_OFF	n/a	n/a	ROSE	Flowers	3	3	[0, 0, 0]	n/a	catFR1	0	R1315T
395.363	1.638	396572	WORD	n/a	wordpools/wordpool_categorized_EN.txt	SUNFLOWER	Flowers	4	3	[0, 0, 0]	n/a	catFR1	0	R1315T
397.001	0.939	398210	WORD_OFF	n/a	n/a	SUNFLOWER	Flowers	4	3	[0, 0, 0]	n/a	catFR1	0	R1315T
397.94	1.628	399149	WORD	n/a	wordpools/wordpool_categorized_EN.txt	RECLINER	Furniture	5	3	[0, 0, 0]	n/a	catFR1	0	R1315T
399.568	1.02	400777	WORD_OFF	n/a	n/a	RECLINER	Furniture	5	3	[0, 0, 0]	n/a	catFR1	0	R1315T
400.588	1.631	401797	WORD	n/a	wordpools/wordpool_categorized_EN.txt	BED	Furniture	6	3	[0, 0, 0]	n/a	catFR1	0	R1315T
402.219	1.001	403427	WORD_OFF	n/a	n/a	BED	Furniture	6	3	[0, 0, 0]	n/a	catFR1	0	R1315T
403.22	1.632	404428	WORD	n/a	wordpools/wordpool_categorized_EN.txt	VIOLET	Flowers	7	3	[0, 0, 0]	n/a	catFR1	0	R1315T
404.852	1.086	406060	WORD_OFF	n/a	n/a	VIOLET	Flowers	7	3	[0, 0, 0]	n/a	catFR1	0	R1315T
405.938	1.631	407146	WORD	n/a	wordpools/wordpool_categorized_EN.txt	MARIGOLD	Flowers	8	3	[0, 0, 0]	n/a	catFR1	0	R1315T
407.569	1.005	408777	WORD_OFF	n/a	n/a	MARIGOLD	Flowers	8	3	[0, 0, 0]	n/a	catFR1	0	R1315T
408.574	1.63	409782	WORD	n/a	wordpools/wordpool_categorized_EN.txt	DESK	Furniture	9	3	[0, 0, 0]	n/a	catFR1	0	R1315T
410.204	0.852	411412	WORD_OFF	n/a	n/a	DESK	Furniture	9	3	[0, 0, 0]	n/a	catFR1	0	R1315T
411.056	1.631	412264	WORD	n/a	wordpools/wordpool_categorized_EN.txt	DRESSER	Furniture	10	3	[0, 0, 0]	n/a	catFR1	0	R1315T
412.687	1.112	413895	WORD_OFF	n/a	n/a	DRESSER	Furniture	10	3	[0, 0, 0]	n/a	catFR1	0	R1315T
413.799	1.622	415007	WORD	n/a	wordpools/wordpool_categorized_EN.txt	IRON	Appliances	11	3	[0, 0, 0]	n/a	catFR1	0	R1315T
415.421	0.765	416629	WORD_OFF	n/a	n/a	IRON	Appliances	11	3	[0, 0, 0]	n/a	catFR1	0	R1315T
416.186	1.635	417394	WORD	n/a	wordpools/wordpool_categorized_EN.txt	VACUUM	Appliances	12	3	[0, 0, 0]	n/a	catFR1	0	R1315T
417.821	0.001	419029	WORD_OFF	n/a	n/a	VACUUM	Appliances	12	3	[0, 0, 0]	n/a	catFR1	0	R1315T
417.822	0.0	419030	ENCODING_END	n/a	n/a	n/a	n/a	-999	3	[0, 0, 0]	n/a	catFR1	0	R1315T
417.822	0.001	419030	DISTRACT_START	n/a	n/a	n/a	n/a	-999	3	[0, 0, 0]	n/a	catFR1	0	R1315T
417.823	0.015	419031	START	n/a	n/a	n/a	n/a	-999	3	[-999, -999, -999]	n/a	catFR1	0	R1315T
417.838	6.468	419046	PROB	6.43	n/a	n/a	n/a	-999	3	[8, 1, 4]	13.0	catFR1	0	R1315T
424.306	3.918	425513	PROB	3.895	n/a	n/a	n/a	-999	3	[3, 2, 2]	7.0	catFR1	0	R1315T
428.224	2.183	429431	PROB	2.16	n/a	n/a	n/a	-999	3	[2, 8, 3]	13.0	catFR1	0	R1315T
430.407	2.684	431614	PROB	2.65	n/a	n/a	n/a	-999	3	[6, 7, 3]	16.0	catFR1	0	R1315T
433.091	2.617	434298	PROB	2.581	n/a	n/a	n/a	-999	3	[1, 4, 6]	11.0	catFR1	0	R1315T
435.708	5.076	436915	PROB	5.076	n/a	n/a	n/a	-999	3	[6, 3, 1]	10.0	catFR1	0	R1315T
440.784	0.008	441991	STOP	n/a	n/a	n/a	n/a	-999	3	[-999, -999, -999]	n/a	catFR1	0	R1315T
440.792	0.578	441999	DISTRACT_END	n/a	n/a	n/a	n/a	-999	3	[0, 0, 0]	n/a	catFR1	0	R1315T
441.37	1.606	442577	RETRIEVAL_ORIENT_START	n/a	n/a	n/a	n/a	-999	3	[0, 0, 0]	n/a	catFR1	0	R1315T
442.976	0.0	444183	REC_START	n/a	n/a	n/a	n/a	-999	3	[0, 0, 0]	n/a	catFR1	0	R1315T
442.976	1.734	444183	RETRIEVAL_ORIENT_END	n/a	n/a	n/a	n/a	-999	3	[0, 0, 0]	n/a	catFR1	0	R1315T
444.71	3.624	445917	REC_WORD	1.734	n/a	BLENDER	Appliances	1	3	[0, 0, 0]	n/a	catFR1	0	R1315T
448.334	24.656	449540	REC_WORD	5.358	n/a	REFRIGERATOR	Appliances	2	3	[0, 0, 0]	n/a	catFR1	0	R1315T
472.99	0.001	474195	REC_END	n/a	n/a	n/a	n/a	-999	3	[0, 0, 0]	n/a	catFR1	0	R1315T
472.991	0.023	474196	TRIAL_END	n/a	n/a	n/a	n/a	-999	3	[0, 0, 0]	n/a	catFR1	0	R1315T
473.014	0.0	474219	TRIAL_START	n/a	n/a	n/a	n/a	-999	4	[0, 0, 0]	n/a	catFR1	0	R1315T
473.014	0.0	474219	TRIAL	n/a	n/a	n/a	n/a	-999	4	[0, 0, 0]	n/a	catFR1	0	R1315T
473.014	1.651	474219	WAITING_START	n/a	n/a	n/a	n/a	-999	4	[0, 0, 0]	n/a	catFR1	0	R1315T
474.665	0.0	475870	COUNTDOWN_START	n/a	n/a	n/a	n/a	-999	4	[0, 0, 0]	n/a	catFR1	0	R1315T
474.665	10.43	475870	WAITING_END	n/a	n/a	n/a	n/a	-999	4	[0, 0, 0]	n/a	catFR1	0	R1315T
485.095	0.0	486300	COUNTDOWN_END	n/a	n/a	n/a	n/a	-999	4	[0, 0, 0]	n/a	catFR1	0	R1315T
485.095	1.106	486300	ORIENT_START	n/a	n/a	n/a	n/a	-999	4	[0, 0, 0]	n/a	catFR1	0	R1315T
486.201	0.001	487406	ORIENT_END	n/a	n/a	n/a	n/a	-999	4	[0, 0, 0]	n/a	catFR1	0	R1315T
486.202	1.081	487407	ENCODING_START	n/a	n/a	n/a	n/a	-999	4	[0, 0, 0]	n/a	catFR1	0	R1315T
487.283	1.635	488488	WORD	n/a	wordpools/wordpool_categorized_EN.txt	CHEESECAKE	Desserts	1	4	[0, 0, 0]	n/a	catFR1	0	R1315T
488.918	1.044	490123	WORD_OFF	n/a	n/a	CHEESECAKE	Desserts	1	4	[0, 0, 0]	n/a	catFR1	0	R1315T
489.962	1.623	491167	WORD	n/a	wordpools/wordpool_categorized_EN.txt	JELLO	Desserts	2	4	[0, 0, 0]	n/a	catFR1	0	R1315T
491.585	1.077	492790	WORD_OFF	n/a	n/a	JELLO	Desserts	2	4	[0, 0, 0]	n/a	catFR1	0	R1315T
492.662	1.624	493867	WORD	n/a	wordpools/wordpool_categorized_EN.txt	PLANE	Vehicles	3	4	[0, 0, 0]	n/a	catFR1	0	R1315T
494.286	0.812	495490	WORD_OFF	n/a	n/a	PLANE	Vehicles	3	4	[0, 0, 0]	n/a	catFR1	0	R1315T
495.098	1.638	496302	WORD	n/a	wordpools/wordpool_categorized_EN.txt	BIKE	Vehicles	4	4	[0, 0, 0]	n/a	catFR1	0	R1315T
496.736	0.914	497940	WORD_OFF	n/a	n/a	BIKE	Vehicles	4	4	[0, 0, 0]	n/a	catFR1	0	R1315T
497.65	1.637	498854	WORD	n/a	wordpools/wordpool_categorized_EN.txt	GORILLA	Zoo	5	4	[0, 0, 0]	n/a	catFR1	0	R1315T
499.287	0.838	500491	WORD_OFF	n/a	n/a	GORILLA	Zoo	5	4	[0, 0, 0]	n/a	catFR1	0	R1315T
500.125	1.628	501329	WORD	n/a	wordpools/wordpool_categorized_EN.txt	BEAR	Zoo	6	4	[0, 0, 0]	n/a	catFR1	0	R1315T
501.753	0.906	502957	WORD_OFF	n/a	n/a	BEAR	Zoo	6	4	[0, 0, 0]	n/a	catFR1	0	R1315T
502.659	1.629	503863	WORD	n/a	wordpools/wordpool_categorized_EN.txt	PIE	Desserts	7	4	[0, 0, 0]	n/a	catFR1	0	R1315T
504.288	0.858	505492	WORD_OFF	n/a	n/a	PIE	Desserts	7	4	[0, 0, 0]	n/a	catFR1	0	R1315T
505.146	1.625	506350	WORD	n/a	wordpools/wordpool_categorized_EN.txt	MOUSSE	Desserts	8	4	[0, 0, 0]	n/a	catFR1	0	R1315T
506.771	1.149	507975	WORD_OFF	n/a	n/a	MOUSSE	Desserts	8	4	[0, 0, 0]	n/a	catFR1	0	R1315T
507.92	1.635	509124	WORD	n/a	wordpools/wordpool_categorized_EN.txt	PANDA	Zoo	9	4	[0, 0, 0]	n/a	catFR1	0	R1315T
509.555	1.061	510759	WORD_OFF	n/a	n/a	PANDA	Zoo	9	4	[0, 0, 0]	n/a	catFR1	0	R1315T
510.616	1.64	511820	WORD	n/a	wordpools/wordpool_categorized_EN.txt	CHIMPANZEE	Zoo	10	4	[0, 0, 0]	n/a	catFR1	0	R1315T
512.256	0.941	513460	WORD_OFF	n/a	n/a	CHIMPANZEE	Zoo	10	4	[0, 0, 0]	n/a	catFR1	0	R1315T
513.197	1.625	514401	WORD	n/a	wordpools/wordpool_categorized_EN.txt	TRUCK	Vehicles	11	4	[0, 0, 0]	n/a	catFR1	0	R1315T
514.822	0.755	516026	WORD_OFF	n/a	n/a	TRUCK	Vehicles	11	4	[0, 0, 0]	n/a	catFR1	0	R1315T
515.577	1.63	516781	WORD	n/a	wordpools/wordpool_categorized_EN.txt	MOPED	Vehicles	12	4	[0, 0, 0]	n/a	catFR1	0	R1315T
517.207	0.001	518410	WORD_OFF	n/a	n/a	MOPED	Vehicles	12	4	[0, 0, 0]	n/a	catFR1	0	R1315T
517.208	0.0	518411	ENCODING_END	n/a	n/a	n/a	n/a	-999	4	[0, 0, 0]	n/a	catFR1	0	R1315T
517.208	0.0	518411	DISTRACT_START	n/a	n/a	n/a	n/a	-999	4	[0, 0, 0]	n/a	catFR1	0	R1315T
517.208	0.016	518411	START	n/a	n/a	n/a	n/a	-999	4	[-999, -999, -999]	n/a	catFR1	0	R1315T
517.224	3.299	518427	PROB	3.272	n/a	n/a	n/a	-999	4	[5, 8, 5]	18.0	catFR1	0	R1315T
520.523	3.034	521726	PROB	3.006	n/a	n/a	n/a	-999	4	[3, 1, 1]	5.0	catFR1	0	R1315T
523.557	2.384	524760	PROB	2.356	n/a	n/a	n/a	-999	4	[3, 5, 7]	15.0	catFR1	0	R1315T
525.941	5.318	527144	PROB	5.292	n/a	n/a	n/a	-999	4	[4, 4, 9]	17.0	catFR1	0	R1315T
531.259	2.716	532462	PROB	2.684	n/a	n/a	n/a	-999	4	[2, 2, 3]	7.0	catFR1	0	R1315T
533.975	2.684	535178	PROB	2.649	n/a	n/a	n/a	-999	4	[1, 3, 6]	10.0	catFR1	0	R1315T
536.659	6.073	537862	PROB	6.073	n/a	n/a	n/a	-999	4	[3, 1, 2]	6.0	catFR1	0	R1315T
542.732	0.012	543934	STOP	n/a	n/a	n/a	n/a	-999	4	[-999, -999, -999]	n/a	catFR1	0	R1315T
542.744	0.688	543946	DISTRACT_END	n/a	n/a	n/a	n/a	-999	4	[0, 0, 0]	n/a	catFR1	0	R1315T
543.432	1.596	544634	RETRIEVAL_ORIENT_START	n/a	n/a	n/a	n/a	-999	4	[0, 0, 0]	n/a	catFR1	0	R1315T
545.028	0.0	546230	RETRIEVAL_ORIENT_END	n/a	n/a	n/a	n/a	-999	4	[0, 0, 0]	n/a	catFR1	0	R1315T
545.028	1.356	546230	REC_START	n/a	n/a	n/a	n/a	-999	4	[0, 0, 0]	n/a	catFR1	0	R1315T
546.384	6.272	547586	REC_WORD	1.356	n/a	PLANE	Vehicles	3	4	[0, 0, 0]	n/a	catFR1	0	R1315T
552.656	5.219	553858	REC_WORD	7.628	n/a	PANDA	Zoo	9	4	[0, 0, 0]	n/a	catFR1	0	R1315T
557.875	17.165	559077	REC_WORD	12.847	n/a	TRUCK	Vehicles	11	4	[0, 0, 0]	n/a	catFR1	0	R1315T
575.04	0.0	576241	REC_END	n/a	n/a	n/a	n/a	-999	4	[0, 0, 0]	n/a	catFR1	0	R1315T
575.04	0.025	576241	TRIAL_END	n/a	n/a	n/a	n/a	-999	4	[0, 0, 0]	n/a	catFR1	0	R1315T
575.065	0.001	576266	TRIAL_START	n/a	n/a	n/a	n/a	-999	5	[0, 0, 0]	n/a	catFR1	0	R1315T
575.066	0.0	576267	TRIAL	n/a	n/a	n/a	n/a	-999	5	[0, 0, 0]	n/a	catFR1	0	R1315T
575.066	1.668	576267	WAITING_START	n/a	n/a	n/a	n/a	-999	5	[0, 0, 0]	n/a	catFR1	0	R1315T
576.734	0.0	577935	COUNTDOWN_START	n/a	n/a	n/a	n/a	-999	5	[0, 0, 0]	n/a	catFR1	0	R1315T
576.734	10.428	577935	WAITING_END	n/a	n/a	n/a	n/a	-999	5	[0, 0, 0]	n/a	catFR1	0	R1315T
587.162	0.001	588362	COUNTDOWN_END	n/a	n/a	n/a	n/a	-999	5	[0, 0, 0]	n/a	catFR1	0	R1315T
587.163	1.04	588363	ORIENT_START	n/a	n/a	n/a	n/a	-999	5	[0, 0, 0]	n/a	catFR1	0	R1315T
588.203	0.001	589403	ORIENT_END	n/a	n/a	n/a	n/a	-999	5	[0, 0, 0]	n/a	catFR1	0	R1315T
588.204	0.898	589404	ENCODING_START	n/a	n/a	n/a	n/a	-999	5	[0, 0, 0]	n/a	catFR1	0	R1315T
589.102	1.634	590302	WORD	n/a	wordpools/wordpool_categorized_EN.txt	LEMON	Fruit	1	5	[0, 0, 0]	n/a	catFR1	0	R1315T
590.736	0.768	591936	WORD_OFF	n/a	n/a	LEMON	Fruit	1	5	[0, 0, 0]	n/a	catFR1	0	R1315T
591.504	1.633	592704	WORD	n/a	wordpools/wordpool_categorized_EN.txt	BLUEBERRY	Fruit	2	5	[0, 0, 0]	n/a	catFR1	0	R1315T
593.137	0.834	594337	WORD_OFF	n/a	n/a	BLUEBERRY	Fruit	2	5	[0, 0, 0]	n/a	catFR1	0	R1315T
593.971	1.633	595171	WORD	n/a	wordpools/wordpool_categorized_EN.txt	CELLO	Instruments	3	5	[0, 0, 0]	n/a	catFR1	0	R1315T
595.604	0.776	596804	WORD_OFF	n/a	n/a	CELLO	Instruments	3	5	[0, 0, 0]	n/a	catFR1	0	R1315T
596.38	1.624	597580	WORD	n/a	wordpools/wordpool_categorized_EN.txt	FLUTE	Instruments	4	5	[0, 0, 0]	n/a	catFR1	0	R1315T
598.004	0.915	599204	WORD_OFF	n/a	n/a	FLUTE	Instruments	4	5	[0, 0, 0]	n/a	catFR1	0	R1315T
598.919	1.636	600119	WORD	n/a	wordpools/wordpool_categorized_EN.txt	TORNADO	Weather	5	5	[0, 0, 0]	n/a	catFR1	0	R1315T
600.555	1.11	601755	WORD_OFF	n/a	n/a	TORNADO	Weather	5	5	[0, 0, 0]	n/a	catFR1	0	R1315T
601.665	1.624	602865	WORD	n/a	wordpools/wordpool_categorized_EN.txt	HUMIDITY	Weather	6	5	[0, 0, 0]	n/a	catFR1	0	R1315T
603.289	0.764	604489	WORD_OFF	n/a	n/a	HUMIDITY	Weather	6	5	[0, 0, 0]	n/a	catFR1	0	R1315T
604.053	1.636	605253	WORD	n/a	wordpools/wordpool_categorized_EN.txt	DRUM	Instruments	7	5	[0, 0, 0]	n/a	catFR1	0	R1315T
605.689	0.783	606889	WORD_OFF	n/a	n/a	DRUM	Instruments	7	5	[0, 0, 0]	n/a	catFR1	0	R1315T
606.472	1.634	607672	WORD	n/a	wordpools/wordpool_categorized_EN.txt	VIOLIN	Instruments	8	5	[0, 0, 0]	n/a	catFR1	0	R1315T
608.106	0.924	609305	WORD_OFF	n/a	n/a	VIOLIN	Instruments	8	5	[0, 0, 0]	n/a	catFR1	0	R1315T
609.03	1.626	610229	WORD	n/a	wordpools/wordpool_categorized_EN.txt	RAIN	Weather	9	5	[0, 0, 0]	n/a	catFR1	0	R1315T
610.656	0.769	611855	WORD_OFF	n/a	n/a	RAIN	Weather	9	5	[0, 0, 0]	n/a	catFR1	0	R1315T
611.425	1.632	612624	WORD	n/a	wordpools/wordpool_categorized_EN.txt	CLOUD	Weather	10	5	[0, 0, 0]	n/a	catFR1	0	R1315T
613.057	1.049	614256	WORD_OFF	n/a	n/a	CLOUD	Weather	10	5	[0, 0, 0]	n/a	catFR1	0	R1315T
614.106	1.635	615305	WORD	n/a	wordpools/wordpool_categorized_EN.txt	STRAWBERRY	Fruit	11	5	[0, 0, 0]	n/a	catFR1	0	R1315T
615.741	1.077	616940	WORD_OFF	n/a	n/a	STRAWBERRY	Fruit	11	5	[0, 0, 0]	n/a	catFR1	0	R1315T
616.818	1.623	618017	WORD	n/a	wordpools/wordpool_categorized_EN.txt	CHERRY	Fruit	12	5	[0, 0, 0]	n/a	catFR1	0	R1315T
618.441	0.001	619640	WORD_OFF	n/a	n/a	CHERRY	Fruit	12	5	[0, 0, 0]	n/a	catFR1	0	R1315T
618.442	0.0	619641	ENCODING_END	n/a	n/a	n/a	n/a	-999	5	[0, 0, 0]	n/a	catFR1	0	R1315T
618.442	0.0	619641	DISTRACT_START	n/a	n/a	n/a	n/a	-999	5	[0, 0, 0]	n/a	catFR1	0	R1315T
618.442	0.016	619641	START	n/a	n/a	n/a	n/a	-999	5	[-999, -999, -999]	n/a	catFR1	0	R1315T
618.458	6.835	619657	PROB	6.806	n/a	n/a	n/a	-999	5	[7, 1, 5]	16.0	catFR1	0	R1315T
625.293	10.051	626492	PROB	10.016	n/a	n/a	n/a	-999	5	[6, 3, 4]	13.0	catFR1	0	R1315T
635.344	7.296	636542	PROB	7.296	n/a	n/a	n/a	-999	5	[9, 5, 6]	20.0	catFR1	0	R1315T
642.64	0.022	643838	STOP	n/a	n/a	n/a	n/a	-999	5	[-999, -999, -999]	n/a	catFR1	0	R1315T
642.662	0.632	643860	DISTRACT_END	n/a	n/a	n/a	n/a	-999	5	[0, 0, 0]	n/a	catFR1	0	R1315T
643.294	1.619	644492	RETRIEVAL_ORIENT_START	n/a	n/a	n/a	n/a	-999	5	[0, 0, 0]	n/a	catFR1	0	R1315T
644.913	0.0	646111	RETRIEVAL_ORIENT_END	n/a	n/a	n/a	n/a	-999	5	[0, 0, 0]	n/a	catFR1	0	R1315T
644.913	1.109	646111	REC_START	n/a	n/a	n/a	n/a	-999	5	[0, 0, 0]	n/a	catFR1	0	R1315T
646.022	1.463	647220	REC_WORD	1.109	n/a	DRUM	Instruments	7	5	[0, 0, 0]	n/a	catFR1	0	R1315T
647.485	1.616	648683	REC_WORD	2.572	n/a	VIOLIN	Instruments	8	5	[0, 0, 0]	n/a	catFR1	0	R1315T
649.101	1.642	650299	REC_WORD	4.188	n/a	CLOUD	Weather	10	5	[0, 0, 0]	n/a	catFR1	0	R1315T
650.743	24.181	651941	REC_WORD	5.83	n/a	RAIN	Weather	9	5	[0, 0, 0]	n/a	catFR1	0	R1315T
674.924	0.0	676121	REC_END	n/a	n/a	n/a	n/a	-999	5	[0, 0, 0]	n/a	catFR1	0	R1315T
674.924	0.023	676121	TRIAL_END	n/a	n/a	n/a	n/a	-999	5	[0, 0, 0]	n/a	catFR1	0	R1315T
674.947	0.0	676144	TRIAL_START	n/a	n/a	n/a	n/a	-999	6	[0, 0, 0]	n/a	catFR1	0	R1315T
674.947	0.001	676144	TRIAL	n/a	n/a	n/a	n/a	-999	6	[0, 0, 0]	n/a	catFR1	0	R1315T
674.948	1.721	676145	WAITING_START	n/a	n/a	n/a	n/a	-999	6	[0, 0, 0]	n/a	catFR1	0	R1315T
676.669	0.0	677866	COUNTDOWN_START	n/a	n/a	n/a	n/a	-999	6	[0, 0, 0]	n/a	catFR1	0	R1315T
676.669	10.429	677866	WAITING_END	n/a	n/a	n/a	n/a	-999	6	[0, 0, 0]	n/a	catFR1	0	R1315T
687.098	0.0	688294	COUNTDOWN_END	n/a	n/a	n/a	n/a	-999	6	[0, 0, 0]	n/a	catFR1	0	R1315T
687.098	1.039	688294	ORIENT_START	n/a	n/a	n/a	n/a	-999	6	[0, 0, 0]	n/a	catFR1	0	R1315T
688.137	0.0	689333	ORIENT_END	n/a	n/a	n/a	n/a	-999	6	[0, 0, 0]	n/a	catFR1	0	R1315T
688.137	1.109	689333	ENCODING_START	n/a	n/a	n/a	n/a	-999	6	[0, 0, 0]	n/a	catFR1	0	R1315T
689.246	1.625	690442	WORD	n/a	wordpools/wordpool_categorized_EN.txt	SCANNER	Electronics	1	6	[0, 0, 0]	n/a	catFR1	0	R1315T
690.871	1.126	692067	WORD_OFF	n/a	n/a	SCANNER	Electronics	1	6	[0, 0, 0]	n/a	catFR1	0	R1315T
691.997	1.624	693193	WORD	n/a	wordpools/wordpool_categorized_EN.txt	CALCULATOR	Electronics	2	6	[0, 0, 0]	n/a	catFR1	0	R1315T
693.621	1.117	694817	WORD_OFF	n/a	n/a	CALCULATOR	Electronics	2	6	[0, 0, 0]	n/a	catFR1	0	R1315T
694.738	1.634	695934	WORD	n/a	wordpools/wordpool_categorized_EN.txt	ROACH	Insects	3	6	[0, 0, 0]	n/a	catFR1	0	R1315T
696.372	0.887	697568	WORD_OFF	n/a	n/a	ROACH	Insects	3	6	[0, 0, 0]	n/a	catFR1	0	R1315T
697.259	1.63	698455	WORD	n/a	wordpools/wordpool_categorized_EN.txt	CRICKET	Insects	4	6	[0, 0, 0]	n/a	catFR1	0	R1315T
698.889	0.763	700085	WORD_OFF	n/a	n/a	CRICKET	Insects	4	6	[0, 0, 0]	n/a	catFR1	0	R1315T
699.652	1.622	700848	WORD	n/a	wordpools/wordpool_categorized_EN.txt	CABBAGE	Vegetables	5	6	[0, 0, 0]	n/a	catFR1	0	R1315T
701.274	1.035	702469	WORD_OFF	n/a	n/a	CABBAGE	Vegetables	5	6	[0, 0, 0]	n/a	catFR1	0	R1315T
702.309	1.631	703504	WORD	n/a	wordpools/wordpool_categorized_EN.txt	PEAS	Vegetables	6	6	[0, 0, 0]	n/a	catFR1	0	R1315T
703.94	0.919	705135	WORD_OFF	n/a	n/a	PEAS	Vegetables	6	6	[0, 0, 0]	n/a	catFR1	0	R1315T
704.859	1.631	706054	WORD	n/a	wordpools/wordpool_categorized_EN.txt	TABLET	Electronics	7	6	[0, 0, 0]	n/a	catFR1	0	R1315T
706.49	0.869	707685	WORD_OFF	n/a	n/a	TABLET	Electronics	7	6	[0, 0, 0]	n/a	catFR1	0	R1315T
707.359	1.632	708554	WORD	n/a	wordpools/wordpool_categorized_EN.txt	RADIO	Electronics	8	6	[0, 0, 0]	n/a	catFR1	0	R1315T
708.991	1.066	710186	WORD_OFF	n/a	n/a	RADIO	Electronics	8	6	[0, 0, 0]	n/a	catFR1	0	R1315T
710.057	1.634	711252	WORD	n/a	wordpools/wordpool_categorized_EN.txt	SPINACH	Vegetables	9	6	[0, 0, 0]	n/a	catFR1	0	R1315T
711.691	0.774	712886	WORD_OFF	n/a	n/a	SPINACH	Vegetables	9	6	[0, 0, 0]	n/a	catFR1	0	R1315T
712.465	1.627	713660	WORD	n/a	wordpools/wordpool_categorized_EN.txt	LETTUCE	Vegetables	10	6	[0, 0, 0]	n/a	catFR1	0	R1315T
714.092	1.075	715287	WORD_OFF	n/a	n/a	LETTUCE	Vegetables	10	6	[0, 0, 0]	n/a	catFR1	0	R1315T
715.167	1.625	716362	WORD	n/a	wordpools/wordpool_categorized_EN.txt	BEE	Insects	11	6	[0, 0, 0]	n/a	catFR1	0	R1315T
716.792	1.01	717987	WORD_OFF	n/a	n/a	BEE	Insects	11	6	[0, 0, 0]	n/a	catFR1	0	R1315T
717.802	1.624	718997	WORD	n/a	wordpools/wordpool_categorized_EN.txt	BUTTERFLY	Insects	12	6	[0, 0, 0]	n/a	catFR1	0	R1315T
719.426	0.001	720621	WORD_OFF	n/a	n/a	BUTTERFLY	Insects	12	6	[0, 0, 0]	n/a	catFR1	0	R1315T
719.427	0.0	720622	ENCODING_END	n/a	n/a	n/a	n/a	-999	6	[0, 0, 0]	n/a	catFR1	0	R1315T
719.427	0.0	720622	DISTRACT_START	n/a	n/a	n/a	n/a	-999	6	[0, 0, 0]	n/a	catFR1	0	R1315T
719.427	0.016	720622	START	n/a	n/a	n/a	n/a	-999	6	[-999, -999, -999]	n/a	catFR1	0	R1315T
719.443	4.634	720638	PROB	4.608	n/a	n/a	n/a	-999	6	[6, 1, 7]	14.0	catFR1	0	R1315T
724.077	6.152	725271	PROB	6.127	n/a	n/a	n/a	-999	6	[2, 1, 5]	8.0	catFR1	0	R1315T
730.229	2.383	731423	PROB	2.359	n/a	n/a	n/a	-999	6	[8, 2, 7]	17.0	catFR1	0	R1315T
732.612	3.601	733806	PROB	3.577	n/a	n/a	n/a	-999	6	[4, 5, 1]	10.0	catFR1	0	R1315T
736.213	2.3	737407	PROB	2.271	n/a	n/a	n/a	-999	6	[9, 3, 1]	13.0	catFR1	0	R1315T
738.513	1.978	739707	PROB	1.978	n/a	n/a	n/a	-999	6	[2, 8, 1]	11.0	catFR1	0	R1315T
740.491	0.022	741685	STOP	n/a	n/a	n/a	n/a	-999	6	[-999, -999, -999]	n/a	catFR1	0	R1315T
740.513	0.644	741707	DISTRACT_END	n/a	n/a	n/a	n/a	-999	6	[0, 0, 0]	n/a	catFR1	0	R1315T
741.157	1.607	742351	RETRIEVAL_ORIENT_START	n/a	n/a	n/a	n/a	-999	6	[0, 0, 0]	n/a	catFR1	0	R1315T
742.764	0.0	743958	RETRIEVAL_ORIENT_END	n/a	n/a	n/a	n/a	-999	6	[0, 0, 0]	n/a	catFR1	0	R1315T
742.764	0.91	743958	REC_START	n/a	n/a	n/a	n/a	-999	6	[0, 0, 0]	n/a	catFR1	0	R1315T
743.674	0.873	744868	REC_WORD	0.91	n/a	ROACH	Insects	3	6	[0, 0, 0]	n/a	catFR1	0	R1315T
744.547	0.988	745741	REC_WORD	1.783	n/a	BEE	Insects	11	6	[0, 0, 0]	n/a	catFR1	0	R1315T
745.535	27.24	746729	REC_WORD	2.771	n/a	BUTTERFLY	Insects	12	6	[0, 0, 0]	n/a	catFR1	0	R1315T
772.775	0.0	773967	REC_END	n/a	n/a	n/a	n/a	-999	6	[0, 0, 0]	n/a	catFR1	0	R1315T
772.775	0.025	773967	TRIAL_END	n/a	n/a	n/a	n/a	-999	6	[0, 0, 0]	n/a	catFR1	0	R1315T
772.8	0.0	773992	TRIAL_START	n/a	n/a	n/a	n/a	-999	7	[0, 0, 0]	n/a	catFR1	0	R1315T
772.8	0.001	773992	TRIAL	n/a	n/a	n/a	n/a	-999	7	[0, 0, 0]	n/a	catFR1	0	R1315T
772.801	1.802	773993	WAITING_START	n/a	n/a	n/a	n/a	-999	7	[0, 0, 0]	n/a	catFR1	0	R1315T
774.603	0.0	775795	COUNTDOWN_START	n/a	n/a	n/a	n/a	-999	7	[0, 0, 0]	n/a	catFR1	0	R1315T
774.603	10.43	775795	WAITING_END	n/a	n/a	n/a	n/a	-999	7	[0, 0, 0]	n/a	catFR1	0	R1315T
785.033	0.001	786225	COUNTDOWN_END	n/a	n/a	n/a	n/a	-999	7	[0, 0, 0]	n/a	catFR1	0	R1315T
785.034	1.138	786226	ORIENT_START	n/a	n/a	n/a	n/a	-999	7	[0, 0, 0]	n/a	catFR1	0	R1315T
786.172	0.0	787364	ORIENT_END	n/a	n/a	n/a	n/a	-999	7	[0, 0, 0]	n/a	catFR1	0	R1315T
786.172	0.914	787364	ENCODING_START	n/a	n/a	n/a	n/a	-999	7	[0, 0, 0]	n/a	catFR1	0	R1315T
787.086	1.636	788278	WORD	n/a	wordpools/wordpool_categorized_EN.txt	LAKE	Landscapes	1	7	[0, 0, 0]	n/a	catFR1	0	R1315T
788.722	0.842	789914	WORD_OFF	n/a	n/a	LAKE	Landscapes	1	7	[0, 0, 0]	n/a	catFR1	0	R1315T
789.564	1.626	790756	WORD	n/a	wordpools/wordpool_categorized_EN.txt	BEACH	Landscapes	2	7	[0, 0, 0]	n/a	catFR1	0	R1315T
791.19	0.952	792382	WORD_OFF	n/a	n/a	BEACH	Landscapes	2	7	[0, 0, 0]	n/a	catFR1	0	R1315T
792.142	1.631	793333	WORD	n/a	wordpools/wordpool_categorized_EN.txt	BALL	Toys	3	7	[0, 0, 0]	n/a	catFR1	0	R1315T
793.773	0.768	794964	WORD_OFF	n/a	n/a	BALL	Toys	3	7	[0, 0, 0]	n/a	catFR1	0	R1315T
794.541	1.632	795732	WORD	n/a	wordpools/wordpool_categorized_EN.txt	BARBIE	Toys	4	7	[0, 0, 0]	n/a	catFR1	0	R1315T
796.173	0.753	797364	WORD_OFF	n/a	n/a	BARBIE	Toys	4	7	[0, 0, 0]	n/a	catFR1	0	R1315T
796.926	1.631	798117	WORD	n/a	wordpools/wordpool_categorized_EN.txt	HURRICANE	Weather	5	7	[0, 0, 0]	n/a	catFR1	0	R1315T
798.557	0.783	799748	WORD_OFF	n/a	n/a	HURRICANE	Weather	5	7	[0, 0, 0]	n/a	catFR1	0	R1315T
799.34	1.634	800531	WORD	n/a	wordpools/wordpool_categorized_EN.txt	THUNDER	Weather	6	7	[0, 0, 0]	n/a	catFR1	0	R1315T
800.974	0.882	802165	WORD_OFF	n/a	n/a	THUNDER	Weather	6	7	[0, 0, 0]	n/a	catFR1	0	R1315T
801.856	1.635	803047	WORD	n/a	wordpools/wordpool_categorized_EN.txt	OCEAN	Landscapes	7	7	[0, 0, 0]	n/a	catFR1	0	R1315T
803.491	0.872	804682	WORD_OFF	n/a	n/a	OCEAN	Landscapes	7	7	[0, 0, 0]	n/a	catFR1	0	R1315T
804.363	1.629	805554	WORD	n/a	wordpools/wordpool_categorized_EN.txt	FOREST	Landscapes	8	7	[0, 0, 0]	n/a	catFR1	0	R1315T
805.992	0.972	807183	WORD_OFF	n/a	n/a	FOREST	Landscapes	8	7	[0, 0, 0]	n/a	catFR1	0	R1315T
806.964	1.628	808155	WORD	n/a	wordpools/wordpool_categorized_EN.txt	MARBLES	Toys	9	7	[0, 0, 0]	n/a	catFR1	0	R1315T
808.592	0.819	809783	WORD_OFF	n/a	n/a	MARBLES	Toys	9	7	[0, 0, 0]	n/a	catFR1	0	R1315T
809.411	1.632	810602	WORD	n/a	wordpools/wordpool_categorized_EN.txt	FOOTBALL	Toys	10	7	[0, 0, 0]	n/a	catFR1	0	R1315T
811.043	1.033	812234	WORD_OFF	n/a	n/a	FOOTBALL	Toys	10	7	[0, 0, 0]	n/a	catFR1	0	R1315T
812.076	1.634	813267	WORD	n/a	wordpools/wordpool_categorized_EN.txt	DRIZZLE	Weather	11	7	[0, 0, 0]	n/a	catFR1	0	R1315T
813.71	0.904	814901	WORD_OFF	n/a	n/a	DRIZZLE	Weather	11	7	[0, 0, 0]	n/a	catFR1	0	R1315T
814.614	1.614	815805	WORD	n/a	wordpools/wordpool_categorized_EN.txt	WIND	Weather	12	7	[0, 0, 0]	n/a	catFR1	0	R1315T
816.228	0.0	817418	WORD_OFF	n/a	n/a	WIND	Weather	12	7	[0, 0, 0]	n/a	catFR1	0	R1315T
816.228	0.0	817418	ENCODING_END	n/a	n/a	n/a	n/a	-999	7	[0, 0, 0]	n/a	catFR1	0	R1315T
816.228	0.001	817418	DISTRACT_START	n/a	n/a	n/a	n/a	-999	7	[0, 0, 0]	n/a	catFR1	0	R1315T
816.229	0.015	817419	START	n/a	n/a	n/a	n/a	-999	7	[-999, -999, -999]	n/a	catFR1	0	R1315T
816.244	4.417	817434	PROB	4.379	n/a	n/a	n/a	-999	7	[8, 2, 6]	16.0	catFR1	0	R1315T
820.661	3.317	821851	PROB	3.282	n/a	n/a	n/a	-999	7	[6, 6, 8]	20.0	catFR1	0	R1315T
823.978	7.718	825168	PROB	7.68	n/a	n/a	n/a	-999	7	[9, 9, 8]	24.0	catFR1	0	R1315T
831.696	3.067	832886	PROB	3.042	n/a	n/a	n/a	-999	7	[4, 9, 1]	14.0	catFR1	0	R1315T
834.763	3.703	835953	PROB	3.703	n/a	n/a	n/a	-999	7	[5, 8, 3]	16.0	catFR1	0	R1315T
838.466	0.015	839655	STOP	n/a	n/a	n/a	n/a	-999	7	[-999, -999, -999]	n/a	catFR1	0	R1315T
838.481	0.529	839670	DISTRACT_END	n/a	n/a	n/a	n/a	-999	7	[0, 0, 0]	n/a	catFR1	0	R1315T
839.01	1.555	840199	RETRIEVAL_ORIENT_START	n/a	n/a	n/a	n/a	-999	7	[0, 0, 0]	n/a	catFR1	0	R1315T
840.565	0.0	841754	REC_START	n/a	n/a	n/a	n/a	-999	7	[0, 0, 0]	n/a	catFR1	0	R1315T
840.565	1.094	841754	RETRIEVAL_ORIENT_END	n/a	n/a	n/a	n/a	-999	7	[0, 0, 0]	n/a	catFR1	0	R1315T
841.659	1.055	842848	REC_WORD	1.094	n/a	HURRICANE	Weather	5	7	[0, 0, 0]	n/a	catFR1	0	R1315T
842.714	27.866	843903	REC_WORD	2.149	n/a	FOOTBALL	Toys	10	7	[0, 0, 0]	n/a	catFR1	0	R1315T
870.58	0.0	871768	REC_END	n/a	n/a	n/a	n/a	-999	7	[0, 0, 0]	n/a	catFR1	0	R1315T
870.58	0.023	871768	TRIAL_END	n/a	n/a	n/a	n/a	-999	7	[0, 0, 0]	n/a	catFR1	0	R1315T
870.603	0.0	871791	TRIAL_START	n/a	n/a	n/a	n/a	-999	8	[0, 0, 0]	n/a	catFR1	0	R1315T
870.603	0.001	871791	TRIAL	n/a	n/a	n/a	n/a	-999	8	[0, 0, 0]	n/a	catFR1	0	R1315T
870.604	1.483	871792	WAITING_START	n/a	n/a	n/a	n/a	-999	8	[0, 0, 0]	n/a	catFR1	0	R1315T
872.087	0.001	873275	WAITING_END	n/a	n/a	n/a	n/a	-999	8	[0, 0, 0]	n/a	catFR1	0	R1315T
872.088	10.429	873276	COUNTDOWN_START	n/a	n/a	n/a	n/a	-999	8	[0, 0, 0]	n/a	catFR1	0	R1315T
882.517	0.0	883705	ORIENT_START	n/a	n/a	n/a	n/a	-999	8	[0, 0, 0]	n/a	catFR1	0	R1315T
882.517	1.256	883705	COUNTDOWN_END	n/a	n/a	n/a	n/a	-999	8	[0, 0, 0]	n/a	catFR1	0	R1315T
883.773	0.0	884960	ORIENT_END	n/a	n/a	n/a	n/a	-999	8	[0, 0, 0]	n/a	catFR1	0	R1315T
883.773	0.913	884960	ENCODING_START	n/a	n/a	n/a	n/a	-999	8	[0, 0, 0]	n/a	catFR1	0	R1315T
884.686	1.637	885873	WORD	n/a	wordpools/wordpool_categorized_EN.txt	FUDGE	Desserts	1	8	[0, 0, 0]	n/a	catFR1	0	R1315T
886.323	0.981	887510	WORD_OFF	n/a	n/a	FUDGE	Desserts	1	8	[0, 0, 0]	n/a	catFR1	0	R1315T
887.304	1.636	888491	WORD	n/a	wordpools/wordpool_categorized_EN.txt	CAKE	Desserts	2	8	[0, 0, 0]	n/a	catFR1	0	R1315T
888.94	1.072	890127	WORD_OFF	n/a	n/a	CAKE	Desserts	2	8	[0, 0, 0]	n/a	catFR1	0	R1315T
890.012	1.629	891199	WORD	n/a	wordpools/wordpool_categorized_EN.txt	HEADPHONES	Electronics	3	8	[0, 0, 0]	n/a	catFR1	0	R1315T
891.641	0.781	892828	WORD_OFF	n/a	n/a	HEADPHONES	Electronics	3	8	[0, 0, 0]	n/a	catFR1	0	R1315T
892.422	1.636	893609	WORD	n/a	wordpools/wordpool_categorized_EN.txt	PHONE	Electronics	4	8	[0, 0, 0]	n/a	catFR1	0	R1315T
894.058	0.789	895245	WORD_OFF	n/a	n/a	PHONE	Electronics	4	8	[0, 0, 0]	n/a	catFR1	0	R1315T
894.847	1.628	896034	WORD	n/a	wordpools/wordpool_categorized_EN.txt	APPLE	Fruit	5	8	[0, 0, 0]	n/a	catFR1	0	R1315T
896.475	0.756	897662	WORD_OFF	n/a	n/a	APPLE	Fruit	5	8	[0, 0, 0]	n/a	catFR1	0	R1315T
897.231	1.628	898418	WORD	n/a	wordpools/wordpool_categorized_EN.txt	GRAPE	Fruit	6	8	[0, 0, 0]	n/a	catFR1	0	R1315T
898.859	0.806	900046	WORD_OFF	n/a	n/a	GRAPE	Fruit	6	8	[0, 0, 0]	n/a	catFR1	0	R1315T
899.665	1.612	900852	WORD	n/a	wordpools/wordpool_categorized_EN.txt	TELEVISION	Electronics	7	8	[0, 0, 0]	n/a	catFR1	0	R1315T
901.277	0.775	902464	WORD_OFF	n/a	n/a	TELEVISION	Electronics	7	8	[0, 0, 0]	n/a	catFR1	0	R1315T
902.052	1.624	903239	WORD	n/a	wordpools/wordpool_categorized_EN.txt	PRINTER	Electronics	8	8	[0, 0, 0]	n/a	catFR1	0	R1315T
903.676	0.948	904863	WORD_OFF	n/a	n/a	PRINTER	Electronics	8	8	[0, 0, 0]	n/a	catFR1	0	R1315T
904.624	1.62	905811	WORD	n/a	wordpools/wordpool_categorized_EN.txt	PEACH	Fruit	9	8	[0, 0, 0]	n/a	catFR1	0	R1315T
906.244	0.808	907431	WORD_OFF	n/a	n/a	PEACH	Fruit	9	8	[0, 0, 0]	n/a	catFR1	0	R1315T
907.052	1.625	908238	WORD	n/a	wordpools/wordpool_categorized_EN.txt	BANANA	Fruit	10	8	[0, 0, 0]	n/a	catFR1	0	R1315T
908.677	1.037	909863	WORD_OFF	n/a	n/a	BANANA	Fruit	10	8	[0, 0, 0]	n/a	catFR1	0	R1315T
909.714	1.63	910900	WORD	n/a	wordpools/wordpool_categorized_EN.txt	CUPCAKE	Desserts	11	8	[0, 0, 0]	n/a	catFR1	0	R1315T
911.344	1.094	912530	WORD_OFF	n/a	n/a	CUPCAKE	Desserts	11	8	[0, 0, 0]	n/a	catFR1	0	R1315T
912.438	1.624	913624	WORD	n/a	wordpools/wordpool_categorized_EN.txt	BROWNIES	Desserts	12	8	[0, 0, 0]	n/a	catFR1	0	R1315T
914.062	0.0	915248	DISTRACT_START	n/a	n/a	n/a	n/a	-999	8	[0, 0, 0]	n/a	catFR1	0	R1315T
914.062	0.0	915248	WORD_OFF	n/a	n/a	BROWNIES	Desserts	12	8	[0, 0, 0]	n/a	catFR1	0	R1315T
914.062	0.001	915248	ENCODING_END	n/a	n/a	n/a	n/a	-999	8	[0, 0, 0]	n/a	catFR1	0	R1315T
914.063	0.015	915249	START	n/a	n/a	n/a	n/a	-999	8	[-999, -999, -999]	n/a	catFR1	0	R1315T
914.078	4.301	915264	PROB	4.27	n/a	n/a	n/a	-999	8	[4, 2, 3]	9.0	catFR1	0	R1315T
918.379	6.902	919565	PROB	6.871	n/a	n/a	n/a	-999	8	[2, 5, 7]	13.0	catFR1	0	R1315T
925.281	5.467	926467	PROB	5.427	n/a	n/a	n/a	-999	8	[4, 4, 9]	17.0	catFR1	0	R1315T
930.748	3.377	931933	PROB	3.377	n/a	n/a	n/a	-999	8	[6, 2, 3]	11.0	catFR1	0	R1315T
934.125	0.007	935310	STOP	n/a	n/a	n/a	n/a	-999	8	[-999, -999, -999]	n/a	catFR1	0	R1315T
934.132	0.567	935317	DISTRACT_END	n/a	n/a	n/a	n/a	-999	8	[0, 0, 0]	n/a	catFR1	0	R1315T
934.699	1.7	935884	RETRIEVAL_ORIENT_START	n/a	n/a	n/a	n/a	-999	8	[0, 0, 0]	n/a	catFR1	0	R1315T
936.399	0.0	937584	RETRIEVAL_ORIENT_END	n/a	n/a	n/a	n/a	-999	8	[0, 0, 0]	n/a	catFR1	0	R1315T
936.399	1.146	937584	REC_START	n/a	n/a	n/a	n/a	-999	8	[0, 0, 0]	n/a	catFR1	0	R1315T
937.545	0.915	938730	REC_WORD	1.146	n/a	CUPCAKES	n/a	-999	8	[0, 0, 0]	n/a	catFR1	0	R1315T
938.46	1.773	939645	REC_WORD	2.061	n/a	BROWNIES	Desserts	12	8	[0, 0, 0]	n/a	catFR1	0	R1315T
940.233	26.18	941418	REC_WORD	3.834	n/a	TELEVISION	Electronics	7	8	[0, 0, 0]	n/a	catFR1	0	R1315T
966.413	0.0	967597	REC_END	n/a	n/a	n/a	n/a	-999	8	[0, 0, 0]	n/a	catFR1	0	R1315T
966.413	0.026	967597	TRIAL_END	n/a	n/a	n/a	n/a	-999	8	[0, 0, 0]	n/a	catFR1	0	R1315T
966.439	0.0	967623	TRIAL_START	n/a	n/a	n/a	n/a	-999	9	[0, 0, 0]	n/a	catFR1	0	R1315T
966.439	0.0	967623	TRIAL	n/a	n/a	n/a	n/a	-999	9	[0, 0, 0]	n/a	catFR1	0	R1315T
966.439	1.382	967623	WAITING_START	n/a	n/a	n/a	n/a	-999	9	[0, 0, 0]	n/a	catFR1	0	R1315T
967.821	0.001	969005	WAITING_END	n/a	n/a	n/a	n/a	-999	9	[0, 0, 0]	n/a	catFR1	0	R1315T
967.822	10.428	969006	COUNTDOWN_START	n/a	n/a	n/a	n/a	-999	9	[0, 0, 0]	n/a	catFR1	0	R1315T
978.25	0.001	979433	COUNTDOWN_END	n/a	n/a	n/a	n/a	-999	9	[0, 0, 0]	n/a	catFR1	0	R1315T
978.251	1.256	979434	ORIENT_START	n/a	n/a	n/a	n/a	-999	9	[0, 0, 0]	n/a	catFR1	0	R1315T
979.507	0.0	980690	ORIENT_END	n/a	n/a	n/a	n/a	-999	9	[0, 0, 0]	n/a	catFR1	0	R1315T
979.507	1.064	980690	ENCODING_START	n/a	n/a	n/a	n/a	-999	9	[0, 0, 0]	n/a	catFR1	0	R1315T
980.571	1.637	981754	WORD	n/a	wordpools/wordpool_categorized_EN.txt	TABLE	Furniture	1	9	[0, 0, 0]	n/a	catFR1	0	R1315T
982.208	1.065	983391	WORD_OFF	n/a	n/a	TABLE	Furniture	1	9	[0, 0, 0]	n/a	catFR1	0	R1315T
983.273	1.635	984456	WORD	n/a	wordpools/wordpool_categorized_EN.txt	CABINET	Furniture	2	9	[0, 0, 0]	n/a	catFR1	0	R1315T
984.908	1.006	986091	WORD_OFF	n/a	n/a	CABINET	Furniture	2	9	[0, 0, 0]	n/a	catFR1	0	R1315T
985.914	1.627	987097	WORD	n/a	wordpools/wordpool_categorized_EN.txt	SPOON	KitchenTools	3	9	[0, 0, 0]	n/a	catFR1	0	R1315T
987.541	0.996	988724	WORD_OFF	n/a	n/a	SPOON	KitchenTools	3	9	[0, 0, 0]	n/a	catFR1	0	R1315T
988.537	1.638	989720	WORD	n/a	wordpools/wordpool_categorized_EN.txt	STRAINER	KitchenTools	4	9	[0, 0, 0]	n/a	catFR1	0	R1315T
990.175	1.096	991358	WORD_OFF	n/a	n/a	STRAINER	KitchenTools	4	9	[0, 0, 0]	n/a	catFR1	0	R1315T
991.271	1.621	992454	WORD	n/a	wordpools/wordpool_categorized_EN.txt	FOG	Weather	5	9	[0, 0, 0]	n/a	catFR1	0	R1315T
992.892	0.881	994075	WORD_OFF	n/a	n/a	FOG	Weather	5	9	[0, 0, 0]	n/a	catFR1	0	R1315T
993.773	1.636	994956	WORD	n/a	wordpools/wordpool_categorized_EN.txt	LIGHTNING	Weather	6	9	[0, 0, 0]	n/a	catFR1	0	R1315T
995.409	0.898	996592	WORD_OFF	n/a	n/a	LIGHTNING	Weather	6	9	[0, 0, 0]	n/a	catFR1	0	R1315T
996.307	1.636	997490	WORD	n/a	wordpools/wordpool_categorized_EN.txt	BOOKCASE	Furniture	7	9	[0, 0, 0]	n/a	catFR1	0	R1315T
997.943	0.799	999126	WORD_OFF	n/a	n/a	BOOKCASE	Furniture	7	9	[0, 0, 0]	n/a	catFR1	0	R1315T
998.742	1.635	999924	WORD	n/a	wordpools/wordpool_categorized_EN.txt	NIGHTSTAND	Furniture	8	9	[0, 0, 0]	n/a	catFR1	0	R1315T
1000.377	0.807	1001559	WORD_OFF	n/a	n/a	NIGHTSTAND	Furniture	8	9	[0, 0, 0]	n/a	catFR1	0	R1315T
1001.184	1.627	1002366	WORD	n/a	wordpools/wordpool_categorized_EN.txt	SNOW	Weather	9	9	[0, 0, 0]	n/a	catFR1	0	R1315T
1002.811	1.11	1003993	WORD_OFF	n/a	n/a	SNOW	Weather	9	9	[0, 0, 0]	n/a	catFR1	0	R1315T
1003.921	1.64	1005103	WORD	n/a	wordpools/wordpool_categorized_EN.txt	THUNDERSTORM	Weather	10	9	[0, 0, 0]	n/a	catFR1	0	R1315T
1005.561	0.805	1006743	WORD_OFF	n/a	n/a	THUNDERSTORM	Weather	10	9	[0, 0, 0]	n/a	catFR1	0	R1315T
1006.366	1.629	1007548	WORD	n/a	wordpools/wordpool_categorized_EN.txt	SPATULA	KitchenTools	11	9	[0, 0, 0]	n/a	catFR1	0	R1315T
1007.995	0.833	1009177	WORD_OFF	n/a	n/a	SPATULA	KitchenTools	11	9	[0, 0, 0]	n/a	catFR1	0	R1315T
1008.828	1.634	1010010	WORD	n/a	wordpools/wordpool_categorized_EN.txt	KNIFE	KitchenTools	12	9	[0, 0, 0]	n/a	catFR1	0	R1315T
1010.462	0.001	1011644	WORD_OFF	n/a	n/a	KNIFE	KitchenTools	12	9	[0, 0, 0]	n/a	catFR1	0	R1315T
1010.463	0.0	1011645	ENCODING_END	n/a	n/a	n/a	n/a	-999	9	[0, 0, 0]	n/a	catFR1	0	R1315T
1010.463	0.0	1011645	DISTRACT_START	n/a	n/a	n/a	n/a	-999	9	[0, 0, 0]	n/a	catFR1	0	R1315T
1010.463	0.016	1011645	START	n/a	n/a	n/a	n/a	-999	9	[-999, -999, -999]	n/a	catFR1	0	R1315T
1010.479	3.617	1011661	PROB	3.582	n/a	n/a	n/a	-999	9	[2, 1, 8]	11.0	catFR1	0	R1315T
1014.096	2.734	1015278	PROB	2.709	n/a	n/a	n/a	-999	9	[3, 8, 2]	13.0	catFR1	0	R1315T
1016.83	2.834	1018012	PROB	2.799	n/a	n/a	n/a	-999	9	[9, 1, 8]	18.0	catFR1	0	R1315T
1019.664	6.552	1020846	PROB	6.513	n/a	n/a	n/a	-999	9	[8, 6, 8]	22.0	catFR1	0	R1315T
1026.216	4.116	1027397	PROB	4.088	n/a	n/a	n/a	-999	9	[4, 5, 2]	11.0	catFR1	0	R1315T
1030.332	5.988	1031513	PROB	5.988	n/a	n/a	n/a	-999	9	[7, 1, 6]	14.0	catFR1	0	R1315T
1036.32	0.014	1037501	STOP	n/a	n/a	n/a	n/a	-999	9	[-999, -999, -999]	n/a	catFR1	0	R1315T
1036.334	0.586	1037515	DISTRACT_END	n/a	n/a	n/a	n/a	-999	9	[0, 0, 0]	n/a	catFR1	0	R1315T
1036.92	1.714	1038101	RETRIEVAL_ORIENT_START	n/a	n/a	n/a	n/a	-999	9	[0, 0, 0]	n/a	catFR1	0	R1315T
1038.634	0.0	1039815	RETRIEVAL_ORIENT_END	n/a	n/a	n/a	n/a	-999	9	[0, 0, 0]	n/a	catFR1	0	R1315T
1038.634	2.122	1039815	REC_START	n/a	n/a	n/a	n/a	-999	9	[0, 0, 0]	n/a	catFR1	0	R1315T
1040.756	19.46	1041937	REC_WORD	2.122	n/a	FOG	Weather	5	9	[0, 0, 0]	n/a	catFR1	0	R1315T
1060.216	8.432	1061396	REC_WORD	21.582	n/a	THUNDERSTORM	Weather	10	9	[0, 0, 0]	n/a	catFR1	0	R1315T
1068.648	0.001	1069827	REC_END	n/a	n/a	n/a	n/a	-999	9	[0, 0, 0]	n/a	catFR1	0	R1315T
1068.649	0.021	1069828	TRIAL_END	n/a	n/a	n/a	n/a	-999	9	[0, 0, 0]	n/a	catFR1	0	R1315T
1068.67	0.0	1069849	TRIAL_START	n/a	n/a	n/a	n/a	-999	10	[0, 0, 0]	n/a	catFR1	0	R1315T
1068.67	0.0	1069849	TRIAL	n/a	n/a	n/a	n/a	-999	10	[0, 0, 0]	n/a	catFR1	0	R1315T
1068.67	1.32	1069849	WAITING_START	n/a	n/a	n/a	n/a	-999	10	[0, 0, 0]	n/a	catFR1	0	R1315T
1069.99	0.0	1071169	WAITING_END	n/a	n/a	n/a	n/a	-999	10	[0, 0, 0]	n/a	catFR1	0	R1315T
1069.99	10.43	1071169	COUNTDOWN_START	n/a	n/a	n/a	n/a	-999	10	[0, 0, 0]	n/a	catFR1	0	R1315T
1080.42	0.0	1081599	COUNTDOWN_END	n/a	n/a	n/a	n/a	-999	10	[0, 0, 0]	n/a	catFR1	0	R1315T
1080.42	1.172	1081599	ORIENT_START	n/a	n/a	n/a	n/a	-999	10	[0, 0, 0]	n/a	catFR1	0	R1315T
1081.592	0.0	1082771	ENCODING_START	n/a	n/a	n/a	n/a	-999	10	[0, 0, 0]	n/a	catFR1	0	R1315T
1081.592	0.878	1082771	ORIENT_END	n/a	n/a	n/a	n/a	-999	10	[0, 0, 0]	n/a	catFR1	0	R1315T
1082.47	1.639	1083649	WORD	n/a	wordpools/wordpool_categorized_EN.txt	FINGERS	BodyParts	1	10	[0, 0, 0]	n/a	catFR1	0	R1315T
1084.109	1.049	1085288	WORD_OFF	n/a	n/a	FINGERS	BodyParts	1	10	[0, 0, 0]	n/a	catFR1	0	R1315T
1085.158	1.635	1086337	WORD	n/a	wordpools/wordpool_categorized_EN.txt	FOOT	BodyParts	2	10	[0, 0, 0]	n/a	catFR1	0	R1315T
1086.793	0.755	1087972	WORD_OFF	n/a	n/a	FOOT	BodyParts	2	10	[0, 0, 0]	n/a	catFR1	0	R1315T
1087.548	1.629	1088727	WORD	n/a	wordpools/wordpool_categorized_EN.txt	STREAM	Landscapes	3	10	[0, 0, 0]	n/a	catFR1	0	R1315T
1089.177	1.008	1090356	WORD_OFF	n/a	n/a	STREAM	Landscapes	3	10	[0, 0, 0]	n/a	catFR1	0	R1315T
1090.185	1.625	1091364	WORD	n/a	wordpools/wordpool_categorized_EN.txt	VALLEY	Landscapes	4	10	[0, 0, 0]	n/a	catFR1	0	R1315T
1091.81	1.109	1092988	WORD_OFF	n/a	n/a	VALLEY	Landscapes	4	10	[0, 0, 0]	n/a	catFR1	0	R1315T
1092.919	1.625	1094097	WORD	n/a	wordpools/wordpool_categorized_EN.txt	CUCUMBER	Vegetables	5	10	[0, 0, 0]	n/a	catFR1	0	R1315T
1094.544	0.926	1095722	WORD_OFF	n/a	n/a	CUCUMBER	Vegetables	5	10	[0, 0, 0]	n/a	catFR1	0	R1315T
1095.47	1.625	1096648	WORD	n/a	wordpools/wordpool_categorized_EN.txt	POTATO	Vegetables	6	10	[0, 0, 0]	n/a	catFR1	0	R1315T
1097.095	1.066	1098273	WORD_OFF	n/a	n/a	POTATO	Vegetables	6	10	[0, 0, 0]	n/a	catFR1	0	R1315T
1098.161	1.634	1099339	WORD	n/a	wordpools/wordpool_categorized_EN.txt	CREEK	Landscapes	7	10	[0, 0, 0]	n/a	catFR1	0	R1315T
1099.795	0.844	1100973	WORD_OFF	n/a	n/a	CREEK	Landscapes	7	10	[0, 0, 0]	n/a	catFR1	0	R1315T
1100.639	1.624	1101817	WORD	n/a	wordpools/wordpool_categorized_EN.txt	RIVER	Landscapes	8	10	[0, 0, 0]	n/a	catFR1	0	R1315T
1102.263	1.135	1103441	WORD_OFF	n/a	n/a	RIVER	Landscapes	8	10	[0, 0, 0]	n/a	catFR1	0	R1315T
1103.398	1.631	1104576	WORD	n/a	wordpools/wordpool_categorized_EN.txt	TOE	BodyParts	9	10	[0, 0, 0]	n/a	catFR1	0	R1315T
1105.029	0.898	1106207	WORD_OFF	n/a	n/a	TOE	BodyParts	9	10	[0, 0, 0]	n/a	catFR1	0	R1315T
1105.927	1.636	1107105	WORD	n/a	wordpools/wordpool_categorized_EN.txt	HEAD	BodyParts	10	10	[0, 0, 0]	n/a	catFR1	0	R1315T
1107.563	0.848	1108741	WORD_OFF	n/a	n/a	HEAD	BodyParts	10	10	[0, 0, 0]	n/a	catFR1	0	R1315T
1108.411	1.636	1109589	WORD	n/a	wordpools/wordpool_categorized_EN.txt	BROCCOLI	Vegetables	11	10	[0, 0, 0]	n/a	catFR1	0	R1315T
1110.047	1.103	1111225	WORD_OFF	n/a	n/a	BROCCOLI	Vegetables	11	10	[0, 0, 0]	n/a	catFR1	0	R1315T
1111.15	1.631	1112328	WORD	n/a	wordpools/wordpool_categorized_EN.txt	ONION	Vegetables	12	10	[0, 0, 0]	n/a	catFR1	0	R1315T
1112.781	0.0	1113959	WORD_OFF	n/a	n/a	ONION	Vegetables	12	10	[0, 0, 0]	n/a	catFR1	0	R1315T
1112.781	0.001	1113959	ENCODING_END	n/a	n/a	n/a	n/a	-999	10	[0, 0, 0]	n/a	catFR1	0	R1315T
1112.782	0.0	1113960	DISTRACT_START	n/a	n/a	n/a	n/a	-999	10	[0, 0, 0]	n/a	catFR1	0	R1315T
1112.782	0.015	1113960	START	n/a	n/a	n/a	n/a	-999	10	[-999, -999, -999]	n/a	catFR1	0	R1315T
1112.797	4.151	1113975	PROB	4.121	n/a	n/a	n/a	-999	10	[9, 9, 2]	21.0	catFR1	0	R1315T
1116.948	6.319	1118125	PROB	6.288	n/a	n/a	n/a	-999	10	[2, 6, 5]	13.0	catFR1	0	R1315T
1123.267	9.367	1124444	PROB	9.341	n/a	n/a	n/a	-999	10	[8, 5, 4]	17.0	catFR1	0	R1315T
1132.634	3.934	1133811	PROB	3.934	n/a	n/a	n/a	-999	10	[8, 2, 1]	11.0	catFR1	0	R1315T
1136.568	0.017	1137745	STOP	n/a	n/a	n/a	n/a	-999	10	[-999, -999, -999]	n/a	catFR1	0	R1315T
1136.585	0.699	1137762	DISTRACT_END	n/a	n/a	n/a	n/a	-999	10	[0, 0, 0]	n/a	catFR1	0	R1315T
1137.284	1.718	1138460	RETRIEVAL_ORIENT_START	n/a	n/a	n/a	n/a	-999	10	[0, 0, 0]	n/a	catFR1	0	R1315T
1139.002	0.001	1140178	RETRIEVAL_ORIENT_END	n/a	n/a	n/a	n/a	-999	10	[0, 0, 0]	n/a	catFR1	0	R1315T
1139.003	14.357	1140179	REC_START	n/a	n/a	n/a	n/a	-999	10	[0, 0, 0]	n/a	catFR1	0	R1315T
1153.36	1.154	1154536	REC_WORD	14.357	n/a	POTATO	Vegetables	6	10	[0, 0, 0]	n/a	catFR1	0	R1315T
1154.514	14.5	1155690	REC_WORD	15.511	n/a	CUCUMBER	Vegetables	5	10	[0, 0, 0]	n/a	catFR1	0	R1315T
1169.014	0.0	1170189	REC_END	n/a	n/a	n/a	n/a	-999	10	[0, 0, 0]	n/a	catFR1	0	R1315T
1169.014	0.021	1170189	TRIAL_END	n/a	n/a	n/a	n/a	-999	10	[0, 0, 0]	n/a	catFR1	0	R1315T
1169.035	0.001	1170210	TRIAL_START	n/a	n/a	n/a	n/a	-999	11	[0, 0, 0]	n/a	catFR1	0	R1315T
1169.036	0.0	1170211	TRIAL	n/a	n/a	n/a	n/a	-999	11	[0, 0, 0]	n/a	catFR1	0	R1315T
1169.036	1.272	1170211	WAITING_START	n/a	n/a	n/a	n/a	-999	11	[0, 0, 0]	n/a	catFR1	0	R1315T
1170.308	0.0	1171483	WAITING_END	n/a	n/a	n/a	n/a	-999	11	[0, 0, 0]	n/a	catFR1	0	R1315T
1170.308	10.43	1171483	COUNTDOWN_START	n/a	n/a	n/a	n/a	-999	11	[0, 0, 0]	n/a	catFR1	0	R1315T
1180.738	0.0	1181913	COUNTDOWN_END	n/a	n/a	n/a	n/a	-999	11	[0, 0, 0]	n/a	catFR1	0	R1315T
1180.738	1.222	1181913	ORIENT_START	n/a	n/a	n/a	n/a	-999	11	[0, 0, 0]	n/a	catFR1	0	R1315T
1181.96	0.0	1183135	ORIENT_END	n/a	n/a	n/a	n/a	-999	11	[0, 0, 0]	n/a	catFR1	0	R1315T
1181.96	0.997	1183135	ENCODING_START	n/a	n/a	n/a	n/a	-999	11	[0, 0, 0]	n/a	catFR1	0	R1315T
1182.957	1.637	1184131	WORD	n/a	wordpools/wordpool_categorized_EN.txt	CHICKEN	FarmAnimals	1	11	[0, 0, 0]	n/a	catFR1	0	R1315T
1184.594	0.924	1185768	WORD_OFF	n/a	n/a	CHICKEN	FarmAnimals	1	11	[0, 0, 0]	n/a	catFR1	0	R1315T
1185.518	1.626	1186692	WORD	n/a	wordpools/wordpool_categorized_EN.txt	COW	FarmAnimals	2	11	[0, 0, 0]	n/a	catFR1	0	R1315T
1187.144	0.982	1188318	WORD_OFF	n/a	n/a	COW	FarmAnimals	2	11	[0, 0, 0]	n/a	catFR1	0	R1315T
1188.126	1.635	1189300	WORD	n/a	wordpools/wordpool_categorized_EN.txt	CORKSCREW	KitchenTools	3	11	[0, 0, 0]	n/a	catFR1	0	R1315T
1189.761	0.757	1190935	WORD_OFF	n/a	n/a	CORKSCREW	KitchenTools	3	11	[0, 0, 0]	n/a	catFR1	0	R1315T
1190.518	1.627	1191692	WORD	n/a	wordpools/wordpool_categorized_EN.txt	COLANDER	KitchenTools	4	11	[0, 0, 0]	n/a	catFR1	0	R1315T
1192.145	0.989	1193319	WORD_OFF	n/a	n/a	COLANDER	KitchenTools	4	11	[0, 0, 0]	n/a	catFR1	0	R1315T
1193.134	1.628	1194308	WORD	n/a	wordpools/wordpool_categorized_EN.txt	CHEETAH	Zoo	5	11	[0, 0, 0]	n/a	catFR1	0	R1315T
1194.762	0.95	1195936	WORD_OFF	n/a	n/a	CHEETAH	Zoo	5	11	[0, 0, 0]	n/a	catFR1	0	R1315T
1195.712	1.634	1196886	WORD	n/a	wordpools/wordpool_categorized_EN.txt	MONKEY	Zoo	6	11	[0, 0, 0]	n/a	catFR1	0	R1315T
1197.346	0.934	1198520	WORD_OFF	n/a	n/a	MONKEY	Zoo	6	11	[0, 0, 0]	n/a	catFR1	0	R1315T
1198.28	1.633	1199454	WORD	n/a	wordpools/wordpool_categorized_EN.txt	FORK	KitchenTools	7	11	[0, 0, 0]	n/a	catFR1	0	R1315T
1199.913	1.147	1201087	WORD_OFF	n/a	n/a	FORK	KitchenTools	7	11	[0, 0, 0]	n/a	catFR1	0	R1315T
1201.06	1.637	1202234	WORD	n/a	wordpools/wordpool_categorized_EN.txt	WHISK	KitchenTools	8	11	[0, 0, 0]	n/a	catFR1	0	R1315T
1202.697	0.998	1203871	WORD_OFF	n/a	n/a	WHISK	KitchenTools	8	11	[0, 0, 0]	n/a	catFR1	0	R1315T
1203.695	1.636	1204869	WORD	n/a	wordpools/wordpool_categorized_EN.txt	BULL	FarmAnimals	9	11	[0, 0, 0]	n/a	catFR1	0	R1315T
1205.331	0.864	1206505	WORD_OFF	n/a	n/a	BULL	FarmAnimals	9	11	[0, 0, 0]	n/a	catFR1	0	R1315T
1206.195	1.636	1207368	WORD	n/a	wordpools/wordpool_categorized_EN.txt	TURKEY	FarmAnimals	10	11	[0, 0, 0]	n/a	catFR1	0	R1315T
1207.831	1.05	1209004	WORD_OFF	n/a	n/a	TURKEY	FarmAnimals	10	11	[0, 0, 0]	n/a	catFR1	0	R1315T
1208.881	1.634	1210054	WORD	n/a	wordpools/wordpool_categorized_EN.txt	TIGER	Zoo	11	11	[0, 0, 0]	n/a	catFR1	0	R1315T
1210.515	1.15	1211688	WORD_OFF	n/a	n/a	TIGER	Zoo	11	11	[0, 0, 0]	n/a	catFR1	0	R1315T
1211.665	1.618	1212838	WORD	n/a	wordpools/wordpool_categorized_EN.txt	LION	Zoo	12	11	[0, 0, 0]	n/a	catFR1	0	R1315T
1213.283	0.001	1214456	WORD_OFF	n/a	n/a	LION	Zoo	12	11	[0, 0, 0]	n/a	catFR1	0	R1315T
1213.284	0.0	1214457	ENCODING_END	n/a	n/a	n/a	n/a	-999	11	[0, 0, 0]	n/a	catFR1	0	R1315T
1213.284	0.0	1214457	DISTRACT_START	n/a	n/a	n/a	n/a	-999	11	[0, 0, 0]	n/a	catFR1	0	R1315T
1213.284	0.015	1214457	START	n/a	n/a	n/a	n/a	-999	11	[-999, -999, -999]	n/a	catFR1	0	R1315T
1213.299	3.384	1214472	PROB	3.35	n/a	n/a	n/a	-999	11	[2, 3, 2]	7.0	catFR1	0	R1315T
1216.683	2.917	1217856	PROB	2.879	n/a	n/a	n/a	-999	11	[2, 6, 6]	14.0	catFR1	0	R1315T
1219.6	3.351	1220773	PROB	3.313	n/a	n/a	n/a	-999	11	[8, 9, 2]	19.0	catFR1	0	R1315T
1222.951	3.434	1224124	PROB	3.403	n/a	n/a	n/a	-999	11	[6, 3, 1]	10.0	catFR1	0	R1315T
1226.385	2.1	1227558	PROB	2.073	n/a	n/a	n/a	-999	11	[3, 7, 3]	13.0	catFR1	0	R1315T
1228.485	7.157	1229658	PROB	7.157	n/a	n/a	n/a	-999	11	[2, 3, 5]	10.0	catFR1	0	R1315T
1235.642	0.011	1236814	STOP	n/a	n/a	n/a	n/a	-999	11	[-999, -999, -999]	n/a	catFR1	0	R1315T
1235.653	0.549	1236825	DISTRACT_END	n/a	n/a	n/a	n/a	-999	11	[0, 0, 0]	n/a	catFR1	0	R1315T
1236.202	1.718	1237374	RETRIEVAL_ORIENT_START	n/a	n/a	n/a	n/a	-999	11	[0, 0, 0]	n/a	catFR1	0	R1315T
1237.92	0.0	1239092	RETRIEVAL_ORIENT_END	n/a	n/a	n/a	n/a	-999	11	[0, 0, 0]	n/a	catFR1	0	R1315T
1237.92	3.18	1239092	REC_START	n/a	n/a	n/a	n/a	-999	11	[0, 0, 0]	n/a	catFR1	0	R1315T
1241.1	1.079	1242272	REC_WORD	3.18	n/a	TIGER	Zoo	11	11	[0, 0, 0]	n/a	catFR1	0	R1315T
1242.179	25.755	1243351	REC_WORD	4.259	n/a	LION	Zoo	12	11	[0, 0, 0]	n/a	catFR1	0	R1315T
1267.934	0.0	1269105	REC_END	n/a	n/a	n/a	n/a	-999	11	[0, 0, 0]	n/a	catFR1	0	R1315T
1267.934	0.022	1269105	TRIAL_END	n/a	n/a	n/a	n/a	-999	11	[0, 0, 0]	n/a	catFR1	0	R1315T
1267.956	0.001	1269127	TRIAL_START	n/a	n/a	n/a	n/a	-999	12	[0, 0, 0]	n/a	catFR1	0	R1315T
1267.957	0.0	1269128	WAITING_START	n/a	n/a	n/a	n/a	-999	12	[0, 0, 0]	n/a	catFR1	0	R1315T
1267.957	1.202	1269128	TRIAL	n/a	n/a	n/a	n/a	-999	12	[0, 0, 0]	n/a	catFR1	0	R1315T
1269.159	0.001	1270330	WAITING_END	n/a	n/a	n/a	n/a	-999	12	[0, 0, 0]	n/a	catFR1	0	R1315T
1269.16	10.428	1270331	COUNTDOWN_START	n/a	n/a	n/a	n/a	-999	12	[0, 0, 0]	n/a	catFR1	0	R1315T
1279.588	0.001	1280758	COUNTDOWN_END	n/a	n/a	n/a	n/a	-999	12	[0, 0, 0]	n/a	catFR1	0	R1315T
1279.589	1.022	1280759	ORIENT_START	n/a	n/a	n/a	n/a	-999	12	[0, 0, 0]	n/a	catFR1	0	R1315T
1280.611	0.001	1281781	ORIENT_END	n/a	n/a	n/a	n/a	-999	12	[0, 0, 0]	n/a	catFR1	0	R1315T
1280.612	0.961	1281782	ENCODING_START	n/a	n/a	n/a	n/a	-999	12	[0, 0, 0]	n/a	catFR1	0	R1315T
1281.573	1.64	1282743	WORD	n/a	wordpools/wordpool_categorized_EN.txt	COFFEE	Beverages	1	12	[0, 0, 0]	n/a	catFR1	0	R1315T
1283.213	0.757	1284383	WORD_OFF	n/a	n/a	COFFEE	Beverages	1	12	[0, 0, 0]	n/a	catFR1	0	R1315T
1283.97	1.626	1285140	WORD	n/a	wordpools/wordpool_categorized_EN.txt	TEA	Beverages	2	12	[0, 0, 0]	n/a	catFR1	0	R1315T
1285.596	0.756	1286766	WORD_OFF	n/a	n/a	TEA	Beverages	2	12	[0, 0, 0]	n/a	catFR1	0	R1315T
1286.352	1.627	1287522	WORD	n/a	wordpools/wordpool_categorized_EN.txt	CARROT	Vegetables	3	12	[0, 0, 0]	n/a	catFR1	0	R1315T
1287.979	1.031	1289149	WORD_OFF	n/a	n/a	CARROT	Vegetables	3	12	[0, 0, 0]	n/a	catFR1	0	R1315T
1289.01	1.636	1290180	WORD	n/a	wordpools/wordpool_categorized_EN.txt	CELERY	Vegetables	4	12	[0, 0, 0]	n/a	catFR1	0	R1315T
1290.646	0.768	1291816	WORD_OFF	n/a	n/a	CELERY	Vegetables	4	12	[0, 0, 0]	n/a	catFR1	0	R1315T
1291.414	1.633	1292584	WORD	n/a	wordpools/wordpool_categorized_EN.txt	ORANGUTAN	Zoo	5	12	[0, 0, 0]	n/a	catFR1	0	R1315T
1293.047	1.147	1294217	WORD_OFF	n/a	n/a	ORANGUTAN	Zoo	5	12	[0, 0, 0]	n/a	catFR1	0	R1315T
1294.194	1.637	1295364	WORD	n/a	wordpools/wordpool_categorized_EN.txt	ELEPHANT	Zoo	6	12	[0, 0, 0]	n/a	catFR1	0	R1315T
1295.831	1.144	1297001	WORD_OFF	n/a	n/a	ELEPHANT	Zoo	6	12	[0, 0, 0]	n/a	catFR1	0	R1315T
1296.975	1.623	1298145	WORD	n/a	wordpools/wordpool_categorized_EN.txt	CORN	Vegetables	7	12	[0, 0, 0]	n/a	catFR1	0	R1315T
1298.598	1.002	1299767	WORD_OFF	n/a	n/a	CORN	Vegetables	7	12	[0, 0, 0]	n/a	catFR1	0	R1315T
1299.6	1.633	1300769	WORD	n/a	wordpools/wordpool_categorized_EN.txt	CAULIFLOWER	Vegetables	8	12	[0, 0, 0]	n/a	catFR1	0	R1315T
1301.233	0.92	1302402	WORD_OFF	n/a	n/a	CAULIFLOWER	Vegetables	8	12	[0, 0, 0]	n/a	catFR1	0	R1315T
1302.153	1.629	1303322	WORD	n/a	wordpools/wordpool_categorized_EN.txt	GIRAFFE	Zoo	9	12	[0, 0, 0]	n/a	catFR1	0	R1315T
1303.782	1.025	1304951	WORD_OFF	n/a	n/a	GIRAFFE	Zoo	9	12	[0, 0, 0]	n/a	catFR1	0	R1315T
1304.807	1.625	1305976	WORD	n/a	wordpools/wordpool_categorized_EN.txt	ZEBRA	Zoo	10	12	[0, 0, 0]	n/a	catFR1	0	R1315T
1306.432	0.769	1307601	WORD_OFF	n/a	n/a	ZEBRA	Zoo	10	12	[0, 0, 0]	n/a	catFR1	0	R1315T
1307.201	1.632	1308370	WORD	n/a	wordpools/wordpool_categorized_EN.txt	JUICE	Beverages	11	12	[0, 0, 0]	n/a	catFR1	0	R1315T
1308.833	1.045	1310002	WORD_OFF	n/a	n/a	JUICE	Beverages	11	12	[0, 0, 0]	n/a	catFR1	0	R1315T
1309.878	1.622	1311047	WORD	n/a	wordpools/wordpool_categorized_EN.txt	MILK	Beverages	12	12	[0, 0, 0]	n/a	catFR1	0	R1315T
1311.5	0.0	1312669	WORD_OFF	n/a	n/a	MILK	Beverages	12	12	[0, 0, 0]	n/a	catFR1	0	R1315T
1311.5	0.001	1312669	ENCODING_END	n/a	n/a	n/a	n/a	-999	12	[0, 0, 0]	n/a	catFR1	0	R1315T
1311.501	0.0	1312670	DISTRACT_START	n/a	n/a	n/a	n/a	-999	12	[0, 0, 0]	n/a	catFR1	0	R1315T
1311.501	0.016	1312670	START	n/a	n/a	n/a	n/a	-999	12	[-999, -999, -999]	n/a	catFR1	0	R1315T
1311.517	5.05	1312686	PROB	5.02	n/a	n/a	n/a	-999	12	[5, 2, 1]	8.0	catFR1	0	R1315T
1316.567	4.885	1317736	PROB	4.854	n/a	n/a	n/a	-999	12	[3, 9, 9]	21.0	catFR1	0	R1315T
1321.452	4.818	1322620	PROB	4.794	n/a	n/a	n/a	-999	12	[8, 5, 4]	17.0	catFR1	0	R1315T
1326.27	3.9	1327438	PROB	3.87	n/a	n/a	n/a	-999	12	[8, 9, 3]	20.0	catFR1	0	R1315T
1330.17	3.035	1331338	PROB	3.035	n/a	n/a	n/a	-999	12	[8, 1, 7]	16.0	catFR1	0	R1315T
1333.205	0.017	1334373	STOP	n/a	n/a	n/a	n/a	-999	12	[-999, -999, -999]	n/a	catFR1	0	R1315T
1333.222	0.628	1334390	DISTRACT_END	n/a	n/a	n/a	n/a	-999	12	[0, 0, 0]	n/a	catFR1	0	R1315T
1333.85	1.588	1335018	RETRIEVAL_ORIENT_START	n/a	n/a	n/a	n/a	-999	12	[0, 0, 0]	n/a	catFR1	0	R1315T
1335.438	0.0	1336606	REC_START	n/a	n/a	n/a	n/a	-999	12	[0, 0, 0]	n/a	catFR1	0	R1315T
1335.438	0.856	1336606	RETRIEVAL_ORIENT_END	n/a	n/a	n/a	n/a	-999	12	[0, 0, 0]	n/a	catFR1	0	R1315T
1336.294	29.157	1337462	REC_WORD	0.856	n/a	ELEPHANT	Zoo	6	12	[0, 0, 0]	n/a	catFR1	0	R1315T
1365.451	0.0	1366618	REC_END	n/a	n/a	n/a	n/a	-999	12	[0, 0, 0]	n/a	catFR1	0	R1315T
1365.451	0.022	1366618	TRIAL_END	n/a	n/a	n/a	n/a	-999	12	[0, 0, 0]	n/a	catFR1	0	R1315T
1365.473	0.0	1366640	TRIAL_START	n/a	n/a	n/a	n/a	-999	13	[0, 0, 0]	n/a	catFR1	0	R1315T
1365.473	0.0	1366640	TRIAL	n/a	n/a	n/a	n/a	-999	13	[0, 0, 0]	n/a	catFR1	0	R1315T
1365.473	1.204	1366640	WAITING_START	n/a	n/a	n/a	n/a	-999	13	[0, 0, 0]	n/a	catFR1	0	R1315T
1366.677	0.0	1367844	WAITING_END	n/a	n/a	n/a	n/a	-999	13	[0, 0, 0]	n/a	catFR1	0	R1315T
1366.677	10.43	1367844	COUNTDOWN_START	n/a	n/a	n/a	n/a	-999	13	[0, 0, 0]	n/a	catFR1	0	R1315T
1377.107	0.001	1378273	COUNTDOWN_END	n/a	n/a	n/a	n/a	-999	13	[0, 0, 0]	n/a	catFR1	0	R1315T
1377.108	1.271	1378274	ORIENT_START	n/a	n/a	n/a	n/a	-999	13	[0, 0, 0]	n/a	catFR1	0	R1315T
1378.379	0.0	1379545	ORIENT_END	n/a	n/a	n/a	n/a	-999	13	[0, 0, 0]	n/a	catFR1	0	R1315T
1378.379	0.919	1379545	ENCODING_START	n/a	n/a	n/a	n/a	-999	13	[0, 0, 0]	n/a	catFR1	0	R1315T
1379.298	1.631	1380464	WORD	n/a	wordpools/wordpool_categorized_EN.txt	KNEE	BodyParts	1	13	[0, 0, 0]	n/a	catFR1	0	R1315T
1380.929	0.899	1382095	WORD_OFF	n/a	n/a	KNEE	BodyParts	1	13	[0, 0, 0]	n/a	catFR1	0	R1315T
1381.828	1.635	1382994	WORD	n/a	wordpools/wordpool_categorized_EN.txt	LEG	BodyParts	2	13	[0, 0, 0]	n/a	catFR1	0	R1315T
1383.463	1.113	1384629	WORD_OFF	n/a	n/a	LEG	BodyParts	2	13	[0, 0, 0]	n/a	catFR1	0	R1315T
1384.576	1.639	1385742	WORD	n/a	wordpools/wordpool_categorized_EN.txt	ATTIC	Building	3	13	[0, 0, 0]	n/a	catFR1	0	R1315T
1386.215	0.755	1387381	WORD_OFF	n/a	n/a	ATTIC	Building	3	13	[0, 0, 0]	n/a	catFR1	0	R1315T
1386.97	1.627	1388136	WORD	n/a	wordpools/wordpool_categorized_EN.txt	WINDOW	Building	4	13	[0, 0, 0]	n/a	catFR1	0	R1315T
1388.597	0.962	1389763	WORD_OFF	n/a	n/a	WINDOW	Building	4	13	[0, 0, 0]	n/a	catFR1	0	R1315T
1389.559	1.622	1390725	WORD	n/a	wordpools/wordpool_categorized_EN.txt	SOFA	Furniture	5	13	[0, 0, 0]	n/a	catFR1	0	R1315T
1391.181	0.987	1392346	WORD_OFF	n/a	n/a	SOFA	Furniture	5	13	[0, 0, 0]	n/a	catFR1	0	R1315T
1392.168	1.63	1393333	WORD	n/a	wordpools/wordpool_categorized_EN.txt	CHAIR	Furniture	6	13	[0, 0, 0]	n/a	catFR1	0	R1315T
1393.798	0.896	1394963	WORD_OFF	n/a	n/a	CHAIR	Furniture	6	13	[0, 0, 0]	n/a	catFR1	0	R1315T
1394.694	1.638	1395859	WORD	n/a	wordpools/wordpool_categorized_EN.txt	FOUNDATION	Building	7	13	[0, 0, 0]	n/a	catFR1	0	R1315T
1396.332	0.972	1397497	WORD_OFF	n/a	n/a	FOUNDATION	Building	7	13	[0, 0, 0]	n/a	catFR1	0	R1315T
1397.304	1.629	1398469	WORD	n/a	wordpools/wordpool_categorized_EN.txt	FLOOR	Building	8	13	[0, 0, 0]	n/a	catFR1	0	R1315T
1398.933	0.923	1400098	WORD_OFF	n/a	n/a	FLOOR	Building	8	13	[0, 0, 0]	n/a	catFR1	0	R1315T
1399.856	1.627	1401021	WORD	n/a	wordpools/wordpool_categorized_EN.txt	HAND	BodyParts	9	13	[0, 0, 0]	n/a	catFR1	0	R1315T
1401.483	0.795	1402648	WORD_OFF	n/a	n/a	HAND	BodyParts	9	13	[0, 0, 0]	n/a	catFR1	0	R1315T
1402.278	1.622	1403443	WORD	n/a	wordpools/wordpool_categorized_EN.txt	ELBOW	BodyParts	10	13	[0, 0, 0]	n/a	catFR1	0	R1315T
1403.9	0.943	1405065	WORD_OFF	n/a	n/a	ELBOW	BodyParts	10	13	[0, 0, 0]	n/a	catFR1	0	R1315T
1404.843	1.624	1406008	WORD	n/a	wordpools/wordpool_categorized_EN.txt	COUCH	Furniture	11	13	[0, 0, 0]	n/a	catFR1	0	R1315T
1406.467	0.76	1407632	WORD_OFF	n/a	n/a	COUCH	Furniture	11	13	[0, 0, 0]	n/a	catFR1	0	R1315T
1407.227	1.624	1408392	WORD	n/a	wordpools/wordpool_categorized_EN.txt	SHELF	Furniture	12	13	[0, 0, 0]	n/a	catFR1	0	R1315T
1408.851	0.0	1410016	WORD_OFF	n/a	n/a	SHELF	Furniture	12	13	[0, 0, 0]	n/a	catFR1	0	R1315T
1408.851	0.001	1410016	ENCODING_END	n/a	n/a	n/a	n/a	-999	13	[0, 0, 0]	n/a	catFR1	0	R1315T
1408.852	0.0	1410017	DISTRACT_START	n/a	n/a	n/a	n/a	-999	13	[0, 0, 0]	n/a	catFR1	0	R1315T
1408.852	0.015	1410017	START	n/a	n/a	n/a	n/a	-999	13	[-999, -999, -999]	n/a	catFR1	0	R1315T
1408.867	4.451	1410032	PROB	4.429	n/a	n/a	n/a	-999	13	[5, 1, 6]	12.0	catFR1	0	R1315T
1413.318	2.317	1414482	PROB	2.281	n/a	n/a	n/a	-999	13	[4, 4, 4]	12.0	catFR1	0	R1315T
1415.635	7.302	1416799	PROB	7.278	n/a	n/a	n/a	-999	13	[4, 9, 3]	16.0	catFR1	0	R1315T
1422.937	3.767	1424101	PROB	3.735	n/a	n/a	n/a	-999	13	[9, 9, 1]	19.0	catFR1	0	R1315T
1426.704	6.892	1427868	PROB	6.892	n/a	n/a	n/a	-999	13	[9, 5, 9]	23.0	catFR1	0	R1315T
1433.596	0.01	1434760	STOP	n/a	n/a	n/a	n/a	-999	13	[-999, -999, -999]	n/a	catFR1	0	R1315T
1433.606	0.643	1434770	DISTRACT_END	n/a	n/a	n/a	n/a	-999	13	[0, 0, 0]	n/a	catFR1	0	R1315T
1434.249	1.523	1435413	RETRIEVAL_ORIENT_START	n/a	n/a	n/a	n/a	-999	13	[0, 0, 0]	n/a	catFR1	0	R1315T
1435.772	0.001	1436935	RETRIEVAL_ORIENT_END	n/a	n/a	n/a	n/a	-999	13	[0, 0, 0]	n/a	catFR1	0	R1315T
1435.773	2.663	1436936	REC_START	n/a	n/a	n/a	n/a	-999	13	[0, 0, 0]	n/a	catFR1	0	R1315T
1438.436	27.35	1439599	REC_WORD	2.663	n/a	HAND	BodyParts	9	13	[0, 0, 0]	n/a	catFR1	0	R1315T
1465.786	0.0	1466948	REC_END	n/a	n/a	n/a	n/a	-999	13	[0, 0, 0]	n/a	catFR1	0	R1315T
1465.786	0.022	1466948	TRIAL_END	n/a	n/a	n/a	n/a	-999	13	[0, 0, 0]	n/a	catFR1	0	R1315T
1465.808	0.0	1466970	TRIAL_START	n/a	n/a	n/a	n/a	-999	14	[0, 0, 0]	n/a	catFR1	0	R1315T
1465.808	0.0	1466970	TRIAL	n/a	n/a	n/a	n/a	-999	14	[0, 0, 0]	n/a	catFR1	0	R1315T
1465.808	1.137	1466970	WAITING_START	n/a	n/a	n/a	n/a	-999	14	[0, 0, 0]	n/a	catFR1	0	R1315T
1466.945	0.0	1468107	WAITING_END	n/a	n/a	n/a	n/a	-999	14	[0, 0, 0]	n/a	catFR1	0	R1315T
1466.945	10.43	1468107	COUNTDOWN_START	n/a	n/a	n/a	n/a	-999	14	[0, 0, 0]	n/a	catFR1	0	R1315T
1477.375	0.0	1478537	ORIENT_START	n/a	n/a	n/a	n/a	-999	14	[0, 0, 0]	n/a	catFR1	0	R1315T
1477.375	1.039	1478537	COUNTDOWN_END	n/a	n/a	n/a	n/a	-999	14	[0, 0, 0]	n/a	catFR1	0	R1315T
1478.414	0.0	1479576	ORIENT_END	n/a	n/a	n/a	n/a	-999	14	[0, 0, 0]	n/a	catFR1	0	R1315T
1478.414	1.03	1479576	ENCODING_START	n/a	n/a	n/a	n/a	-999	14	[0, 0, 0]	n/a	catFR1	0	R1315T
1479.444	1.637	1480606	WORD	n/a	wordpools/wordpool_categorized_EN.txt	DUCK	Birds	1	14	[0, 0, 0]	n/a	catFR1	0	R1315T
1481.081	1.043	1482243	WORD_OFF	n/a	n/a	DUCK	Birds	1	14	[0, 0, 0]	n/a	catFR1	0	R1315T
1482.124	1.624	1483285	WORD	n/a	wordpools/wordpool_categorized_EN.txt	BLUEBIRD	Birds	2	14	[0, 0, 0]	n/a	catFR1	0	R1315T
1483.748	0.981	1484909	WORD_OFF	n/a	n/a	BLUEBIRD	Birds	2	14	[0, 0, 0]	n/a	catFR1	0	R1315T
1484.729	1.636	1485890	WORD	n/a	wordpools/wordpool_categorized_EN.txt	TROMBONE	Instruments	3	14	[0, 0, 0]	n/a	catFR1	0	R1315T
1486.365	0.995	1487526	WORD_OFF	n/a	n/a	TROMBONE	Instruments	3	14	[0, 0, 0]	n/a	catFR1	0	R1315T
1487.36	1.622	1488521	WORD	n/a	wordpools/wordpool_categorized_EN.txt	ORGAN	Instruments	4	14	[0, 0, 0]	n/a	catFR1	0	R1315T
1488.982	1.081	1490143	WORD_OFF	n/a	n/a	ORGAN	Instruments	4	14	[0, 0, 0]	n/a	catFR1	0	R1315T
1490.063	1.636	1491224	WORD	n/a	wordpools/wordpool_categorized_EN.txt	PLIERS	Tools	5	14	[0, 0, 0]	n/a	catFR1	0	R1315T
1491.699	0.956	1492860	WORD_OFF	n/a	n/a	PLIERS	Tools	5	14	[0, 0, 0]	n/a	catFR1	0	R1315T
1492.655	1.612	1493816	WORD	n/a	wordpools/wordpool_categorized_EN.txt	CROWBAR	Tools	6	14	[0, 0, 0]	n/a	catFR1	0	R1315T
1494.267	0.855	1495428	WORD_OFF	n/a	n/a	CROWBAR	Tools	6	14	[0, 0, 0]	n/a	catFR1	0	R1315T
1495.122	1.628	1496283	WORD	n/a	wordpools/wordpool_categorized_EN.txt	HAWK	Birds	7	14	[0, 0, 0]	n/a	catFR1	0	R1315T
1496.75	0.843	1497911	WORD_OFF	n/a	n/a	HAWK	Birds	7	14	[0, 0, 0]	n/a	catFR1	0	R1315T
1497.593	1.626	1498754	WORD	n/a	wordpools/wordpool_categorized_EN.txt	CROW	Birds	8	14	[0, 0, 0]	n/a	catFR1	0	R1315T
1499.219	0.766	1500380	WORD_OFF	n/a	n/a	CROW	Birds	8	14	[0, 0, 0]	n/a	catFR1	0	R1315T
1499.985	1.633	1501146	WORD	n/a	wordpools/wordpool_categorized_EN.txt	WRENCH	Tools	9	14	[0, 0, 0]	n/a	catFR1	0	R1315T
1501.618	0.773	1502779	WORD_OFF	n/a	n/a	WRENCH	Tools	9	14	[0, 0, 0]	n/a	catFR1	0	R1315T
1502.391	1.627	1503552	WORD	n/a	wordpools/wordpool_categorized_EN.txt	SHOVEL	Tools	10	14	[0, 0, 0]	n/a	catFR1	0	R1315T
1504.018	0.956	1505179	WORD_OFF	n/a	n/a	SHOVEL	Tools	10	14	[0, 0, 0]	n/a	catFR1	0	R1315T
1504.974	1.628	1506134	WORD	n/a	wordpools/wordpool_categorized_EN.txt	BASS	Instruments	11	14	[0, 0, 0]	n/a	catFR1	0	R1315T
1506.602	0.83	1507762	WORD_OFF	n/a	n/a	BASS	Instruments	11	14	[0, 0, 0]	n/a	catFR1	0	R1315T
1507.432	1.637	1508592	WORD	n/a	wordpools/wordpool_categorized_EN.txt	TRUMPET	Instruments	12	14	[0, 0, 0]	n/a	catFR1	0	R1315T
1509.069	0.001	1510229	WORD_OFF	n/a	n/a	TRUMPET	Instruments	12	14	[0, 0, 0]	n/a	catFR1	0	R1315T
1509.07	0.0	1510230	DISTRACT_START	n/a	n/a	n/a	n/a	-999	14	[0, 0, 0]	n/a	catFR1	0	R1315T
1509.07	0.0	1510230	ENCODING_END	n/a	n/a	n/a	n/a	-999	14	[0, 0, 0]	n/a	catFR1	0	R1315T
1509.07	0.016	1510230	START	n/a	n/a	n/a	n/a	-999	14	[-999, -999, -999]	n/a	catFR1	0	R1315T
1509.086	7.169	1510246	PROB	7.134	n/a	n/a	n/a	-999	14	[5, 6, 7]	18.0	catFR1	0	R1315T
1516.255	4.866	1517415	PROB	4.838	n/a	n/a	n/a	-999	14	[3, 8, 8]	19.0	catFR1	0	R1315T
1521.121	3.384	1522281	PROB	3.348	n/a	n/a	n/a	-999	14	[8, 1, 3]	12.0	catFR1	0	R1315T
1524.505	3.868	1525665	PROB	3.843	n/a	n/a	n/a	-999	14	[3, 1, 6]	10.0	catFR1	0	R1315T
1528.373	7.313	1529532	PROB	7.313	n/a	n/a	n/a	-999	14	[2, 7, 6]	17.0	catFR1	0	R1315T
1535.686	0.021	1536845	STOP	n/a	n/a	n/a	n/a	-999	14	[-999, -999, -999]	n/a	catFR1	0	R1315T
1535.707	0.649	1536866	DISTRACT_END	n/a	n/a	n/a	n/a	-999	14	[0, 0, 0]	n/a	catFR1	0	R1315T
1536.356	1.719	1537515	RETRIEVAL_ORIENT_START	n/a	n/a	n/a	n/a	-999	14	[0, 0, 0]	n/a	catFR1	0	R1315T
1538.075	0.0	1539234	RETRIEVAL_ORIENT_END	n/a	n/a	n/a	n/a	-999	14	[0, 0, 0]	n/a	catFR1	0	R1315T
1538.075	6.998	1539234	REC_START	n/a	n/a	n/a	n/a	-999	14	[0, 0, 0]	n/a	catFR1	0	R1315T
1545.073	3.229	1546232	REC_WORD	6.998	n/a	CROWBAR	Tools	6	14	[0, 0, 0]	n/a	catFR1	0	R1315T
1548.302	19.784	1549461	REC_WORD	10.227	n/a	PEN	n/a	-999	14	[0, 0, 0]	n/a	catFR1	0	R1315T
1568.086	0.0	1569244	TRIAL_END	n/a	n/a	n/a	n/a	-999	14	[0, 0, 0]	n/a	catFR1	0	R1315T
1568.086	0.021	1569244	REC_END	n/a	n/a	n/a	n/a	-999	14	[0, 0, 0]	n/a	catFR1	0	R1315T
1568.107	0.001	1569265	TRIAL_START	n/a	n/a	n/a	n/a	-999	15	[0, 0, 0]	n/a	catFR1	0	R1315T
1568.108	0.0	1569266	TRIAL	n/a	n/a	n/a	n/a	-999	15	[0, 0, 0]	n/a	catFR1	0	R1315T
1568.108	1.09	1569266	WAITING_START	n/a	n/a	n/a	n/a	-999	15	[0, 0, 0]	n/a	catFR1	0	R1315T
1569.198	0.0	1570356	WAITING_END	n/a	n/a	n/a	n/a	-999	15	[0, 0, 0]	n/a	catFR1	0	R1315T
1569.198	10.43	1570356	COUNTDOWN_START	n/a	n/a	n/a	n/a	-999	15	[0, 0, 0]	n/a	catFR1	0	R1315T
1579.628	0.0	1580785	COUNTDOWN_END	n/a	n/a	n/a	n/a	-999	15	[0, 0, 0]	n/a	catFR1	0	R1315T
1579.628	1.171	1580785	ORIENT_START	n/a	n/a	n/a	n/a	-999	15	[0, 0, 0]	n/a	catFR1	0	R1315T
1580.799	0.0	1581956	ORIENT_END	n/a	n/a	n/a	n/a	-999	15	[0, 0, 0]	n/a	catFR1	0	R1315T
1580.799	0.942	1581956	ENCODING_START	n/a	n/a	n/a	n/a	-999	15	[0, 0, 0]	n/a	catFR1	0	R1315T
1581.741	1.625	1582898	WORD	n/a	wordpools/wordpool_categorized_EN.txt	RUM	Beverages	1	15	[0, 0, 0]	n/a	catFR1	0	R1315T
1583.366	1.034	1584523	WORD_OFF	n/a	n/a	RUM	Beverages	1	15	[0, 0, 0]	n/a	catFR1	0	R1315T
1584.4	1.633	1585557	WORD	n/a	wordpools/wordpool_categorized_EN.txt	COLA	Beverages	2	15	[0, 0, 0]	n/a	catFR1	0	R1315T
1586.033	1.105	1587190	WORD_OFF	n/a	n/a	COLA	Beverages	2	15	[0, 0, 0]	n/a	catFR1	0	R1315T
1587.138	1.629	1588295	WORD	n/a	wordpools/wordpool_categorized_EN.txt	SHEEP	FarmAnimals	3	15	[0, 0, 0]	n/a	catFR1	0	R1315T
1588.767	0.922	1589924	WORD_OFF	n/a	n/a	SHEEP	FarmAnimals	3	15	[0, 0, 0]	n/a	catFR1	0	R1315T
1589.689	1.628	1590846	WORD	n/a	wordpools/wordpool_categorized_EN.txt	PIG	FarmAnimals	4	15	[0, 0, 0]	n/a	catFR1	0	R1315T
1591.317	1.125	1592474	WORD_OFF	n/a	n/a	PIG	FarmAnimals	4	15	[0, 0, 0]	n/a	catFR1	0	R1315T
1592.442	1.626	1593599	WORD	n/a	wordpools/wordpool_categorized_EN.txt	HICKORY	Trees	5	15	[0, 0, 0]	n/a	catFR1	0	R1315T
1594.068	0.998	1595225	WORD_OFF	n/a	n/a	HICKORY	Trees	5	15	[0, 0, 0]	n/a	catFR1	0	R1315T
1595.066	1.636	1596223	WORD	n/a	wordpools/wordpool_categorized_EN.txt	PINE	Trees	6	15	[0, 0, 0]	n/a	catFR1	0	R1315T
1596.702	0.926	1597858	WORD_OFF	n/a	n/a	PINE	Trees	6	15	[0, 0, 0]	n/a	catFR1	0	R1315T
1597.628	1.625	1598784	WORD	n/a	wordpools/wordpool_categorized_EN.txt	WINE	Beverages	7	15	[0, 0, 0]	n/a	catFR1	0	R1315T
1599.253	1.055	1600409	WORD_OFF	n/a	n/a	WINE	Beverages	7	15	[0, 0, 0]	n/a	catFR1	0	R1315T
1600.308	1.628	1601464	WORD	n/a	wordpools/wordpool_categorized_EN.txt	BEER	Beverages	8	15	[0, 0, 0]	n/a	catFR1	0	R1315T
1601.936	1.148	1603092	WORD_OFF	n/a	n/a	BEER	Beverages	8	15	[0, 0, 0]	n/a	catFR1	0	R1315T
1603.084	1.636	1604240	WORD	n/a	wordpools/wordpool_categorized_EN.txt	LAMB	FarmAnimals	9	15	[0, 0, 0]	n/a	catFR1	0	R1315T
1604.72	1.075	1605876	WORD_OFF	n/a	n/a	LAMB	FarmAnimals	9	15	[0, 0, 0]	n/a	catFR1	0	R1315T
1605.795	1.625	1606951	WORD	n/a	wordpools/wordpool_categorized_EN.txt	ROOSTER	FarmAnimals	10	15	[0, 0, 0]	n/a	catFR1	0	R1315T
1607.42	0.91	1608576	WORD_OFF	n/a	n/a	ROOSTER	FarmAnimals	10	15	[0, 0, 0]	n/a	catFR1	0	R1315T
1608.33	1.624	1609486	WORD	n/a	wordpools/wordpool_categorized_EN.txt	SPRUCE	Trees	11	15	[0, 0, 0]	n/a	catFR1	0	R1315T
1609.954	1.005	1611110	WORD_OFF	n/a	n/a	SPRUCE	Trees	11	15	[0, 0, 0]	n/a	catFR1	0	R1315T
1610.959	1.629	1612115	WORD	n/a	wordpools/wordpool_categorized_EN.txt	WILLOW	Trees	12	15	[0, 0, 0]	n/a	catFR1	0	R1315T
1612.588	0.001	1613744	WORD_OFF	n/a	n/a	WILLOW	Trees	12	15	[0, 0, 0]	n/a	catFR1	0	R1315T
1612.589	0.0	1613745	DISTRACT_START	n/a	n/a	n/a	n/a	-999	15	[0, 0, 0]	n/a	catFR1	0	R1315T
1612.589	0.0	1613745	ENCODING_END	n/a	n/a	n/a	n/a	-999	15	[0, 0, 0]	n/a	catFR1	0	R1315T
1612.589	0.015	1613745	START	n/a	n/a	n/a	n/a	-999	15	[-999, -999, -999]	n/a	catFR1	0	R1315T
1612.604	3.619	1613760	PROB	3.59	n/a	n/a	n/a	-999	15	[7, 2, 5]	13.0	catFR1	0	R1315T
1616.223	6.117	1617379	PROB	6.077	n/a	n/a	n/a	-999	15	[6, 1, 6]	13.0	catFR1	0	R1315T
1622.34	5.534	1623495	PROB	5.498	n/a	n/a	n/a	-999	15	[1, 5, 8]	17.0	catFR1	0	R1315T
1627.874	5.368	1629029	PROB	5.368	n/a	n/a	n/a	-999	15	[3, 4, 3]	10.0	catFR1	0	R1315T
1633.242	0.017	1634397	STOP	n/a	n/a	n/a	n/a	-999	15	[-999, -999, -999]	n/a	catFR1	0	R1315T
1633.259	0.689	1634414	DISTRACT_END	n/a	n/a	n/a	n/a	-999	15	[0, 0, 0]	n/a	catFR1	0	R1315T
1633.948	1.578	1635103	RETRIEVAL_ORIENT_START	n/a	n/a	n/a	n/a	-999	15	[0, 0, 0]	n/a	catFR1	0	R1315T
1635.526	0.0	1636681	RETRIEVAL_ORIENT_END	n/a	n/a	n/a	n/a	-999	15	[0, 0, 0]	n/a	catFR1	0	R1315T
1635.526	13.872	1636681	REC_START	n/a	n/a	n/a	n/a	-999	15	[0, 0, 0]	n/a	catFR1	0	R1315T
1649.398	16.14	1650552	REC_WORD_VV	13.872	n/a	<>	n/a	-999	15	[0, 0, 0]	n/a	catFR1	0	R1315T
1665.538	0.0	1666692	REC_END	n/a	n/a	n/a	n/a	-999	15	[0, 0, 0]	n/a	catFR1	0	R1315T
1665.538	0.021	1666692	TRIAL_END	n/a	n/a	n/a	n/a	-999	15	[0, 0, 0]	n/a	catFR1	0	R1315T
1665.559	0.001	1666713	TRIAL_START	n/a	n/a	n/a	n/a	-999	16	[0, 0, 0]	n/a	catFR1	0	R1315T
1665.56	0.0	1666714	TRIAL	n/a	n/a	n/a	n/a	-999	16	[0, 0, 0]	n/a	catFR1	0	R1315T
1665.56	1.038	1666714	WAITING_START	n/a	n/a	n/a	n/a	-999	16	[0, 0, 0]	n/a	catFR1	0	R1315T
1666.598	0.0	1667751	WAITING_END	n/a	n/a	n/a	n/a	-999	16	[0, 0, 0]	n/a	catFR1	0	R1315T
1666.598	10.429	1667751	COUNTDOWN_START	n/a	n/a	n/a	n/a	-999	16	[0, 0, 0]	n/a	catFR1	0	R1315T
1677.027	0.0	1678180	COUNTDOWN_END	n/a	n/a	n/a	n/a	-999	16	[0, 0, 0]	n/a	catFR1	0	R1315T
1677.027	1.224	1678180	ORIENT_START	n/a	n/a	n/a	n/a	-999	16	[0, 0, 0]	n/a	catFR1	0	R1315T
1678.251	0.0	1679404	ENCODING_START	n/a	n/a	n/a	n/a	-999	16	[0, 0, 0]	n/a	catFR1	0	R1315T
1678.251	0.96	1679404	ORIENT_END	n/a	n/a	n/a	n/a	-999	16	[0, 0, 0]	n/a	catFR1	0	R1315T
1679.211	1.639	1680364	WORD	n/a	wordpools/wordpool_categorized_EN.txt	CARNATION	Flowers	1	16	[0, 0, 0]	n/a	catFR1	0	R1315T
1680.85	1.099	1682003	WORD_OFF	n/a	n/a	CARNATION	Flowers	1	16	[0, 0, 0]	n/a	catFR1	0	R1315T
1681.949	1.635	1683102	WORD	n/a	wordpools/wordpool_categorized_EN.txt	ORCHID	Flowers	2	16	[0, 0, 0]	n/a	catFR1	0	R1315T
1683.584	0.872	1684737	WORD_OFF	n/a	n/a	ORCHID	Flowers	2	16	[0, 0, 0]	n/a	catFR1	0	R1315T
1684.456	1.629	1685609	WORD	n/a	wordpools/wordpool_categorized_EN.txt	PIANO	Instruments	3	16	[0, 0, 0]	n/a	catFR1	0	R1315T
1686.085	0.966	1687238	WORD_OFF	n/a	n/a	PIANO	Instruments	3	16	[0, 0, 0]	n/a	catFR1	0	R1315T
1687.051	1.634	1688204	WORD	n/a	wordpools/wordpool_categorized_EN.txt	GUITAR	Instruments	4	16	[0, 0, 0]	n/a	catFR1	0	R1315T
1688.685	1.085	1689837	WORD_OFF	n/a	n/a	GUITAR	Instruments	4	16	[0, 0, 0]	n/a	catFR1	0	R1315T
1689.77	1.632	1690922	WORD	n/a	wordpools/wordpool_categorized_EN.txt	RATCHET	Tools	5	16	[0, 0, 0]	n/a	catFR1	0	R1315T
1691.402	1.129	1692554	WORD_OFF	n/a	n/a	RATCHET	Tools	5	16	[0, 0, 0]	n/a	catFR1	0	R1315T
1692.531	1.638	1693683	WORD	n/a	wordpools/wordpool_categorized_EN.txt	SANDER	Tools	6	16	[0, 0, 0]	n/a	catFR1	0	R1315T
1694.169	0.816	1695321	WORD_OFF	n/a	n/a	SANDER	Tools	6	16	[0, 0, 0]	n/a	catFR1	0	R1315T
1694.985	1.635	1696137	WORD	n/a	wordpools/wordpool_categorized_EN.txt	BANJO	Instruments	7	16	[0, 0, 0]	n/a	catFR1	0	R1315T
1696.62	0.846	1697772	WORD_OFF	n/a	n/a	BANJO	Instruments	7	16	[0, 0, 0]	n/a	catFR1	0	R1315T
1697.466	1.621	1698618	WORD	n/a	wordpools/wordpool_categorized_EN.txt	TUBA	Instruments	8	16	[0, 0, 0]	n/a	catFR1	0	R1315T
1699.087	0.982	1700239	WORD_OFF	n/a	n/a	TUBA	Instruments	8	16	[0, 0, 0]	n/a	catFR1	0	R1315T
1700.069	1.635	1701221	WORD	n/a	wordpools/wordpool_categorized_EN.txt	LILY	Flowers	9	16	[0, 0, 0]	n/a	catFR1	0	R1315T
1701.704	0.78	1702856	WORD_OFF	n/a	n/a	LILY	Flowers	9	16	[0, 0, 0]	n/a	catFR1	0	R1315T
1702.484	1.637	1703636	WORD	n/a	wordpools/wordpool_categorized_EN.txt	PETUNIA	Flowers	10	16	[0, 0, 0]	n/a	catFR1	0	R1315T
1704.121	1.104	1705273	WORD_OFF	n/a	n/a	PETUNIA	Flowers	10	16	[0, 0, 0]	n/a	catFR1	0	R1315T
1705.225	1.63	1706377	WORD	n/a	wordpools/wordpool_categorized_EN.txt	HAMMER	Tools	11	16	[0, 0, 0]	n/a	catFR1	0	R1315T
1706.855	1.025	1708007	WORD_OFF	n/a	n/a	HAMMER	Tools	11	16	[0, 0, 0]	n/a	catFR1	0	R1315T
1707.88	1.626	1709032	WORD	n/a	wordpools/wordpool_categorized_EN.txt	DRILL	Tools	12	16	[0, 0, 0]	n/a	catFR1	0	R1315T
1709.506	0.0	1710658	WORD_OFF	n/a	n/a	DRILL	Tools	12	16	[0, 0, 0]	n/a	catFR1	0	R1315T
1709.506	0.0	1710658	ENCODING_END	n/a	n/a	n/a	n/a	-999	16	[0, 0, 0]	n/a	catFR1	0	R1315T
1709.506	0.001	1710658	DISTRACT_START	n/a	n/a	n/a	n/a	-999	16	[0, 0, 0]	n/a	catFR1	0	R1315T
1709.507	0.015	1710659	START	n/a	n/a	n/a	n/a	-999	16	[-999, -999, -999]	n/a	catFR1	0	R1315T
1709.522	5.634	1710674	PROB	5.601	n/a	n/a	n/a	-999	16	[9, 8, 9]	24.0	catFR1	0	R1315T
1715.156	7.768	1716307	PROB	7.731	n/a	n/a	n/a	-999	16	[6, 7, 2]	15.0	catFR1	0	R1315T
1722.924	3.751	1724075	PROB	3.715	n/a	n/a	n/a	-999	16	[7, 1, 9]	17.0	catFR1	0	R1315T
1726.675	2.4	1727826	PROB	2.372	n/a	n/a	n/a	-999	16	[2, 3, 7]	12.0	catFR1	0	R1315T
1729.075	3.852	1730226	PROB	3.852	n/a	n/a	n/a	-999	16	[8, 3, 2]	13.0	catFR1	0	R1315T
1732.927	0.016	1734078	STOP	n/a	n/a	n/a	n/a	-999	16	[-999, -999, -999]	n/a	catFR1	0	R1315T
1732.943	0.527	1734094	DISTRACT_END	n/a	n/a	n/a	n/a	-999	16	[0, 0, 0]	n/a	catFR1	0	R1315T
1733.47	1.624	1734621	RETRIEVAL_ORIENT_START	n/a	n/a	n/a	n/a	-999	16	[0, 0, 0]	n/a	catFR1	0	R1315T
1735.094	0.0	1736244	REC_START	n/a	n/a	n/a	n/a	-999	16	[0, 0, 0]	n/a	catFR1	0	R1315T
1735.094	11.481	1736244	RETRIEVAL_ORIENT_END	n/a	n/a	n/a	n/a	-999	16	[0, 0, 0]	n/a	catFR1	0	R1315T
1746.575	18.531	1747725	REC_WORD_VV	11.481	n/a	<>	n/a	-999	16	[0, 0, 0]	n/a	catFR1	0	R1315T
1765.106	0.001	1766255	REC_END	n/a	n/a	n/a	n/a	-999	16	[0, 0, 0]	n/a	catFR1	0	R1315T
1765.107	0.023	1766256	TRIAL_END	n/a	n/a	n/a	n/a	-999	16	[0, 0, 0]	n/a	catFR1	0	R1315T
1765.13	0.0	1766279	TRIAL_START	n/a	n/a	n/a	n/a	-999	17	[0, 0, 0]	n/a	catFR1	0	R1315T
1765.13	0.0	1766279	TRIAL	n/a	n/a	n/a	n/a	-999	17	[0, 0, 0]	n/a	catFR1	0	R1315T
1765.13	0.986	1766279	WAITING_START	n/a	n/a	n/a	n/a	-999	17	[0, 0, 0]	n/a	catFR1	0	R1315T
1766.116	0.0	1767265	COUNTDOWN_START	n/a	n/a	n/a	n/a	-999	17	[0, 0, 0]	n/a	catFR1	0	R1315T
1766.116	10.429	1767265	WAITING_END	n/a	n/a	n/a	n/a	-999	17	[0, 0, 0]	n/a	catFR1	0	R1315T
1776.545	0.0	1777694	COUNTDOWN_END	n/a	n/a	n/a	n/a	-999	17	[0, 0, 0]	n/a	catFR1	0	R1315T
1776.545	1.273	1777694	ORIENT_START	n/a	n/a	n/a	n/a	-999	17	[0, 0, 0]	n/a	catFR1	0	R1315T
1777.818	0.0	1778967	ORIENT_END	n/a	n/a	n/a	n/a	-999	17	[0, 0, 0]	n/a	catFR1	0	R1315T
1777.818	1.127	1778967	ENCODING_START	n/a	n/a	n/a	n/a	-999	17	[0, 0, 0]	n/a	catFR1	0	R1315T
1778.945	1.624	1780094	WORD	n/a	wordpools/wordpool_categorized_EN.txt	DOOR	Building	1	17	[0, 0, 0]	n/a	catFR1	0	R1315T
1780.569	1.062	1781718	WORD_OFF	n/a	n/a	DOOR	Building	1	17	[0, 0, 0]	n/a	catFR1	0	R1315T
1781.631	1.639	1782779	WORD	n/a	wordpools/wordpool_categorized_EN.txt	WALL	Building	2	17	[0, 0, 0]	n/a	catFR1	0	R1315T
1783.27	1.1	1784418	WORD_OFF	n/a	n/a	WALL	Building	2	17	[0, 0, 0]	n/a	catFR1	0	R1315T
1784.37	1.633	1785518	WORD	n/a	wordpools/wordpool_categorized_EN.txt	GOAT	FarmAnimals	3	17	[0, 0, 0]	n/a	catFR1	0	R1315T
1786.003	1.112	1787151	WORD_OFF	n/a	n/a	GOAT	FarmAnimals	3	17	[0, 0, 0]	n/a	catFR1	0	R1315T
1787.115	1.638	1788263	WORD	n/a	wordpools/wordpool_categorized_EN.txt	HORSE	FarmAnimals	4	17	[0, 0, 0]	n/a	catFR1	0	R1315T
1788.753	0.802	1789901	WORD_OFF	n/a	n/a	HORSE	FarmAnimals	4	17	[0, 0, 0]	n/a	catFR1	0	R1315T
1789.555	1.633	1790703	WORD	n/a	wordpools/wordpool_categorized_EN.txt	SQUID	OceanAnimals	5	17	[0, 0, 0]	n/a	catFR1	0	R1315T
1791.188	0.77	1792336	WORD_OFF	n/a	n/a	SQUID	OceanAnimals	5	17	[0, 0, 0]	n/a	catFR1	0	R1315T
1791.958	1.629	1793106	WORD	n/a	wordpools/wordpool_categorized_EN.txt	FISH	OceanAnimals	6	17	[0, 0, 0]	n/a	catFR1	0	R1315T
1793.587	1.144	1794735	WORD_OFF	n/a	n/a	FISH	OceanAnimals	6	17	[0, 0, 0]	n/a	catFR1	0	R1315T
1794.731	1.624	1795879	WORD	n/a	wordpools/wordpool_categorized_EN.txt	CALF	FarmAnimals	7	17	[0, 0, 0]	n/a	catFR1	0	R1315T
1796.355	1.141	1797503	WORD_OFF	n/a	n/a	CALF	FarmAnimals	7	17	[0, 0, 0]	n/a	catFR1	0	R1315T
1797.496	1.626	1798644	WORD	n/a	wordpools/wordpool_categorized_EN.txt	HEN	FarmAnimals	8	17	[0, 0, 0]	n/a	catFR1	0	R1315T
1799.122	0.841	1800270	WORD_OFF	n/a	n/a	HEN	FarmAnimals	8	17	[0, 0, 0]	n/a	catFR1	0	R1315T
1799.963	1.626	1801111	WORD	n/a	wordpools/wordpool_categorized_EN.txt	TURTLE	OceanAnimals	9	17	[0, 0, 0]	n/a	catFR1	0	R1315T
1801.589	0.79	1802737	WORD_OFF	n/a	n/a	TURTLE	OceanAnimals	9	17	[0, 0, 0]	n/a	catFR1	0	R1315T
1802.379	1.627	1803527	WORD	n/a	wordpools/wordpool_categorized_EN.txt	SHRIMP	OceanAnimals	10	17	[0, 0, 0]	n/a	catFR1	0	R1315T
1804.006	0.977	1805153	WORD_OFF	n/a	n/a	SHRIMP	OceanAnimals	10	17	[0, 0, 0]	n/a	catFR1	0	R1315T
1804.983	1.623	1806130	WORD	n/a	wordpools/wordpool_categorized_EN.txt	ROOM	Building	11	17	[0, 0, 0]	n/a	catFR1	0	R1315T
1806.606	0.958	1807753	WORD_OFF	n/a	n/a	ROOM	Building	11	17	[0, 0, 0]	n/a	catFR1	0	R1315T
1807.564	1.627	1808711	WORD	n/a	wordpools/wordpool_categorized_EN.txt	STAIRS	Building	12	17	[0, 0, 0]	n/a	catFR1	0	R1315T
1809.191	0.001	1810338	WORD_OFF	n/a	n/a	STAIRS	Building	12	17	[0, 0, 0]	n/a	catFR1	0	R1315T
1809.192	0.0	1810339	ENCODING_END	n/a	n/a	n/a	n/a	-999	17	[0, 0, 0]	n/a	catFR1	0	R1315T
1809.192	0.0	1810339	DISTRACT_START	n/a	n/a	n/a	n/a	-999	17	[0, 0, 0]	n/a	catFR1	0	R1315T
1809.192	0.016	1810339	START	n/a	n/a	n/a	n/a	-999	17	[-999, -999, -999]	n/a	catFR1	0	R1315T
1809.208	3.916	1810355	PROB	3.89	n/a	n/a	n/a	-999	17	[2, 8, 4]	14.0	catFR1	0	R1315T
1813.124	6.568	1814271	PROB	6.535	n/a	n/a	n/a	-999	17	[6, 7, 5]	21.0	catFR1	0	R1315T
1819.692	3.951	1820839	PROB	3.92	n/a	n/a	n/a	-999	17	[6, 4, 7]	17.0	catFR1	0	R1315T
1823.643	6.754	1824790	PROB	6.754	n/a	n/a	n/a	-999	17	[7, 8, 7]	24.0	catFR1	0	R1315T
1830.397	0.014	1831543	STOP	n/a	n/a	n/a	n/a	-999	17	[-999, -999, -999]	n/a	catFR1	0	R1315T
1830.411	0.622	1831557	DISTRACT_END	n/a	n/a	n/a	n/a	-999	17	[0, 0, 0]	n/a	catFR1	0	R1315T
1831.033	1.545	1832179	RETRIEVAL_ORIENT_START	n/a	n/a	n/a	n/a	-999	17	[0, 0, 0]	n/a	catFR1	0	R1315T
1832.578	0.0	1833724	RETRIEVAL_ORIENT_END	n/a	n/a	n/a	n/a	-999	17	[0, 0, 0]	n/a	catFR1	0	R1315T
1832.578	2.481	1833724	REC_START	n/a	n/a	n/a	n/a	-999	17	[0, 0, 0]	n/a	catFR1	0	R1315T
1835.059	0.938	1836205	REC_WORD	2.481	n/a	DOOR	Building	1	17	[0, 0, 0]	n/a	catFR1	0	R1315T
1835.997	1.273	1837143	REC_WORD	3.419	n/a	ROOM	Building	11	17	[0, 0, 0]	n/a	catFR1	0	R1315T
1837.27	25.322	1838416	REC_WORD	4.692	n/a	WALL	Building	2	17	[0, 0, 0]	n/a	catFR1	0	R1315T
1862.592	0.0	1863737	REC_END	n/a	n/a	n/a	n/a	-999	17	[0, 0, 0]	n/a	catFR1	0	R1315T
1862.592	0.022	1863737	TRIAL_END	n/a	n/a	n/a	n/a	-999	17	[0, 0, 0]	n/a	catFR1	0	R1315T
1862.614	0.0	1863759	TRIAL_START	n/a	n/a	n/a	n/a	-999	18	[0, 0, 0]	n/a	catFR1	0	R1315T
1862.614	0.0	1863759	TRIAL	n/a	n/a	n/a	n/a	-999	18	[0, 0, 0]	n/a	catFR1	0	R1315T
1862.614	1.17	1863759	WAITING_START	n/a	n/a	n/a	n/a	-999	18	[0, 0, 0]	n/a	catFR1	0	R1315T
1863.784	0.0	1864929	WAITING_END	n/a	n/a	n/a	n/a	-999	18	[0, 0, 0]	n/a	catFR1	0	R1315T
1863.784	10.428	1864929	COUNTDOWN_START	n/a	n/a	n/a	n/a	-999	18	[0, 0, 0]	n/a	catFR1	0	R1315T
1874.212	0.0	1875356	COUNTDOWN_END	n/a	n/a	n/a	n/a	-999	18	[0, 0, 0]	n/a	catFR1	0	R1315T
1874.212	1.058	1875356	ORIENT_START	n/a	n/a	n/a	n/a	-999	18	[0, 0, 0]	n/a	catFR1	0	R1315T
1875.27	0.0	1876414	ORIENT_END	n/a	n/a	n/a	n/a	-999	18	[0, 0, 0]	n/a	catFR1	0	R1315T
1875.27	1.067	1876414	ENCODING_START	n/a	n/a	n/a	n/a	-999	18	[0, 0, 0]	n/a	catFR1	0	R1315T
1876.337	1.632	1877481	WORD	n/a	wordpools/wordpool_categorized_EN.txt	OVEN	Appliances	1	18	[0, 0, 0]	n/a	catFR1	0	R1315T
1877.969	0.983	1879113	WORD_OFF	n/a	n/a	OVEN	Appliances	1	18	[0, 0, 0]	n/a	catFR1	0	R1315T
1878.952	1.635	1880096	WORD	n/a	wordpools/wordpool_categorized_EN.txt	WASHER	Appliances	2	18	[0, 0, 0]	n/a	catFR1	0	R1315T
1880.587	0.807	1881731	WORD_OFF	n/a	n/a	WASHER	Appliances	2	18	[0, 0, 0]	n/a	catFR1	0	R1315T
1881.394	1.626	1882538	WORD	n/a	wordpools/wordpool_categorized_EN.txt	LIME	Fruit	3	18	[0, 0, 0]	n/a	catFR1	0	R1315T
1883.02	0.804	1884164	WORD_OFF	n/a	n/a	LIME	Fruit	3	18	[0, 0, 0]	n/a	catFR1	0	R1315T
1883.824	1.63	1884968	WORD	n/a	wordpools/wordpool_categorized_EN.txt	PEAR	Fruit	4	18	[0, 0, 0]	n/a	catFR1	0	R1315T
1885.454	0.783	1886598	WORD_OFF	n/a	n/a	PEAR	Fruit	4	18	[0, 0, 0]	n/a	catFR1	0	R1315T
1886.237	1.634	1887381	WORD	n/a	wordpools/wordpool_categorized_EN.txt	CEDAR	Trees	5	18	[0, 0, 0]	n/a	catFR1	0	R1315T
1887.871	1.027	1889015	WORD_OFF	n/a	n/a	CEDAR	Trees	5	18	[0, 0, 0]	n/a	catFR1	0	R1315T
1888.898	1.624	1890042	WORD	n/a	wordpools/wordpool_categorized_EN.txt	ELM	Trees	6	18	[0, 0, 0]	n/a	catFR1	0	R1315T
1890.522	1.135	1891666	WORD_OFF	n/a	n/a	ELM	Trees	6	18	[0, 0, 0]	n/a	catFR1	0	R1315T
1891.657	1.633	1892801	WORD	n/a	wordpools/wordpool_categorized_EN.txt	MIXER	Appliances	7	18	[0, 0, 0]	n/a	catFR1	0	R1315T
1893.29	0.887	1894434	WORD_OFF	n/a	n/a	MIXER	Appliances	7	18	[0, 0, 0]	n/a	catFR1	0	R1315T
1894.177	1.629	1895321	WORD	n/a	wordpools/wordpool_categorized_EN.txt	DISHWASHER	Appliances	8	18	[0, 0, 0]	n/a	catFR1	0	R1315T
1895.806	1.034	1896949	WORD_OFF	n/a	n/a	DISHWASHER	Appliances	8	18	[0, 0, 0]	n/a	catFR1	0	R1315T
1896.84	1.633	1897983	WORD	n/a	wordpools/wordpool_categorized_EN.txt	OAK	Trees	9	18	[0, 0, 0]	n/a	catFR1	0	R1315T
1898.473	0.771	1899616	WORD_OFF	n/a	n/a	OAK	Trees	9	18	[0, 0, 0]	n/a	catFR1	0	R1315T
1899.244	1.63	1900387	WORD	n/a	wordpools/wordpool_categorized_EN.txt	EVERGREEN	Trees	10	18	[0, 0, 0]	n/a	catFR1	0	R1315T
1900.874	1.013	1902017	WORD_OFF	n/a	n/a	EVERGREEN	Trees	10	18	[0, 0, 0]	n/a	catFR1	0	R1315T
1901.887	1.637	1903030	WORD	n/a	wordpools/wordpool_categorized_EN.txt	ORANGE	Fruit	11	18	[0, 0, 0]	n/a	catFR1	0	R1315T
1903.524	0.775	1904667	WORD_OFF	n/a	n/a	ORANGE	Fruit	11	18	[0, 0, 0]	n/a	catFR1	0	R1315T
1904.299	1.625	1905442	WORD	n/a	wordpools/wordpool_categorized_EN.txt	PLUM	Fruit	12	18	[0, 0, 0]	n/a	catFR1	0	R1315T
1905.924	0.001	1907067	WORD_OFF	n/a	n/a	PLUM	Fruit	12	18	[0, 0, 0]	n/a	catFR1	0	R1315T
1905.925	0.0	1907068	ENCODING_END	n/a	n/a	n/a	n/a	-999	18	[0, 0, 0]	n/a	catFR1	0	R1315T
1905.925	0.001	1907068	DISTRACT_START	n/a	n/a	n/a	n/a	-999	18	[0, 0, 0]	n/a	catFR1	0	R1315T
1905.926	0.015	1907069	START	n/a	n/a	n/a	n/a	-999	18	[-999, -999, -999]	n/a	catFR1	0	R1315T
1905.941	3.234	1907084	PROB	3.199	n/a	n/a	n/a	-999	18	[5, 8, 5]	18.0	catFR1	0	R1315T
1909.175	2.434	1910318	PROB	2.398	n/a	n/a	n/a	-999	18	[7, 7, 1]	15.0	catFR1	0	R1315T
1911.609	5.401	1912752	PROB	5.376	n/a	n/a	n/a	-999	18	[8, 5, 6]	19.0	catFR1	0	R1315T
1917.01	3.234	1918153	PROB	3.208	n/a	n/a	n/a	-999	18	[2, 1, 6]	9.0	catFR1	0	R1315T
1920.244	3.334	1921386	PROB	3.301	n/a	n/a	n/a	-999	18	[6, 4, 5]	15.0	catFR1	0	R1315T
1923.578	4.471	1924720	PROB	4.471	n/a	n/a	n/a	-999	18	[4, 9, 2]	15.0	catFR1	0	R1315T
1928.049	0.013	1929191	STOP	n/a	n/a	n/a	n/a	-999	18	[-999, -999, -999]	n/a	catFR1	0	R1315T
1928.062	0.59	1929204	DISTRACT_END	n/a	n/a	n/a	n/a	-999	18	[0, 0, 0]	n/a	catFR1	0	R1315T
1928.652	1.644	1929794	RETRIEVAL_ORIENT_START	n/a	n/a	n/a	n/a	-999	18	[0, 0, 0]	n/a	catFR1	0	R1315T
1930.296	0.0	1931438	RETRIEVAL_ORIENT_END	n/a	n/a	n/a	n/a	-999	18	[0, 0, 0]	n/a	catFR1	0	R1315T
1930.296	0.956	1931438	REC_START	n/a	n/a	n/a	n/a	-999	18	[0, 0, 0]	n/a	catFR1	0	R1315T
1931.252	5.301	1932394	REC_WORD	0.956	n/a	DISHWASHER	Appliances	8	18	[0, 0, 0]	n/a	catFR1	0	R1315T
1936.553	4.786	1937695	REC_WORD	6.257	n/a	ORANGE	Fruit	11	18	[0, 0, 0]	n/a	catFR1	0	R1315T
1941.339	18.969	1942481	REC_WORD	11.043	n/a	PLUM	Fruit	12	18	[0, 0, 0]	n/a	catFR1	0	R1315T
1960.308	0.001	1961449	REC_END	n/a	n/a	n/a	n/a	-999	18	[0, 0, 0]	n/a	catFR1	0	R1315T
1960.309	0.025	1961450	TRIAL_END	n/a	n/a	n/a	n/a	-999	18	[0, 0, 0]	n/a	catFR1	0	R1315T
1960.334	0.001	1961475	TRIAL_START	n/a	n/a	n/a	n/a	-999	19	[0, 0, 0]	n/a	catFR1	0	R1315T
1960.335	0.0	1961476	TRIAL	n/a	n/a	n/a	n/a	-999	19	[0, 0, 0]	n/a	catFR1	0	R1315T
1960.335	1.517	1961476	WAITING_START	n/a	n/a	n/a	n/a	-999	19	[0, 0, 0]	n/a	catFR1	0	R1315T
1961.852	0.0	1962993	COUNTDOWN_START	n/a	n/a	n/a	n/a	-999	19	[0, 0, 0]	n/a	catFR1	0	R1315T
1961.852	10.428	1962993	WAITING_END	n/a	n/a	n/a	n/a	-999	19	[0, 0, 0]	n/a	catFR1	0	R1315T
1972.28	0.0	1973420	COUNTDOWN_END	n/a	n/a	n/a	n/a	-999	19	[0, 0, 0]	n/a	catFR1	0	R1315T
1972.28	1.073	1973420	ORIENT_START	n/a	n/a	n/a	n/a	-999	19	[0, 0, 0]	n/a	catFR1	0	R1315T
1973.353	0.001	1974493	ORIENT_END	n/a	n/a	n/a	n/a	-999	19	[0, 0, 0]	n/a	catFR1	0	R1315T
1973.354	1.006	1974494	ENCODING_START	n/a	n/a	n/a	n/a	-999	19	[0, 0, 0]	n/a	catFR1	0	R1315T
1974.36	1.627	1975500	WORD	n/a	wordpools/wordpool_categorized_EN.txt	WATER	Beverages	1	19	[0, 0, 0]	n/a	catFR1	0	R1315T
1975.987	0.933	1977127	WORD_OFF	n/a	n/a	WATER	Beverages	1	19	[0, 0, 0]	n/a	catFR1	0	R1315T
1976.92	1.634	1978060	WORD	n/a	wordpools/wordpool_categorized_EN.txt	LEMONADE	Beverages	2	19	[0, 0, 0]	n/a	catFR1	0	R1315T
1978.554	1.005	1979694	WORD_OFF	n/a	n/a	LEMONADE	Beverages	2	19	[0, 0, 0]	n/a	catFR1	0	R1315T
1979.559	1.63	1980699	WORD	n/a	wordpools/wordpool_categorized_EN.txt	MAPLE	Trees	3	19	[0, 0, 0]	n/a	catFR1	0	R1315T
1981.189	1.038	1982329	WORD_OFF	n/a	n/a	MAPLE	Trees	3	19	[0, 0, 0]	n/a	catFR1	0	R1315T
1982.227	1.628	1983367	WORD	n/a	wordpools/wordpool_categorized_EN.txt	CYPRESS	Trees	4	19	[0, 0, 0]	n/a	catFR1	0	R1315T
1983.855	1.093	1984995	WORD_OFF	n/a	n/a	CYPRESS	Trees	4	19	[0, 0, 0]	n/a	catFR1	0	R1315T
1984.948	1.624	1986088	WORD	n/a	wordpools/wordpool_categorized_EN.txt	CAR	Vehicles	5	19	[0, 0, 0]	n/a	catFR1	0	R1315T
1986.572	0.768	1987712	WORD_OFF	n/a	n/a	CAR	Vehicles	5	19	[0, 0, 0]	n/a	catFR1	0	R1315T
1987.34	1.633	1988480	WORD	n/a	wordpools/wordpool_categorized_EN.txt	TRAIN	Vehicles	6	19	[0, 0, 0]	n/a	catFR1	0	R1315T
1988.973	0.852	1990112	WORD_OFF	n/a	n/a	TRAIN	Vehicles	6	19	[0, 0, 0]	n/a	catFR1	0	R1315T
1989.825	1.632	1990964	WORD	n/a	wordpools/wordpool_categorized_EN.txt	CIDER	Beverages	7	19	[0, 0, 0]	n/a	catFR1	0	R1315T
1991.457	0.868	1992596	WORD_OFF	n/a	n/a	CIDER	Beverages	7	19	[0, 0, 0]	n/a	catFR1	0	R1315T
1992.325	1.632	1993464	WORD	n/a	wordpools/wordpool_categorized_EN.txt	SODA	Beverages	8	19	[0, 0, 0]	n/a	catFR1	0	R1315T
1993.957	1.149	1995096	WORD_OFF	n/a	n/a	SODA	Beverages	8	19	[0, 0, 0]	n/a	catFR1	0	R1315T
1995.106	1.635	1996245	WORD	n/a	wordpools/wordpool_categorized_EN.txt	WALNUT	Trees	9	19	[0, 0, 0]	n/a	catFR1	0	R1315T
1996.741	0.784	1997880	WORD_OFF	n/a	n/a	WALNUT	Trees	9	19	[0, 0, 0]	n/a	catFR1	0	R1315T
1997.525	1.633	1998664	WORD	n/a	wordpools/wordpool_categorized_EN.txt	BIRCH	Trees	10	19	[0, 0, 0]	n/a	catFR1	0	R1315T
1999.158	0.942	2000297	WORD_OFF	n/a	n/a	BIRCH	Trees	10	19	[0, 0, 0]	n/a	catFR1	0	R1315T
2000.1	1.625	2001239	WORD	n/a	wordpools/wordpool_categorized_EN.txt	BOAT	Vehicles	11	19	[0, 0, 0]	n/a	catFR1	0	R1315T
2001.725	0.933	2002864	WORD_OFF	n/a	n/a	BOAT	Vehicles	11	19	[0, 0, 0]	n/a	catFR1	0	R1315T
2002.658	1.618	2003797	WORD	n/a	wordpools/wordpool_categorized_EN.txt	BUS	Vehicles	12	19	[0, 0, 0]	n/a	catFR1	0	R1315T
2004.276	0.001	2005415	WORD_OFF	n/a	n/a	BUS	Vehicles	12	19	[0, 0, 0]	n/a	catFR1	0	R1315T
2004.277	0.0	2005416	ENCODING_END	n/a	n/a	n/a	n/a	-999	19	[0, 0, 0]	n/a	catFR1	0	R1315T
2004.277	0.0	2005416	DISTRACT_START	n/a	n/a	n/a	n/a	-999	19	[0, 0, 0]	n/a	catFR1	0	R1315T
2004.277	0.016	2005416	START	n/a	n/a	n/a	n/a	-999	19	[-999, -999, -999]	n/a	catFR1	0	R1315T
2004.293	9.801	2005432	PROB	9.772	n/a	n/a	n/a	-999	19	[2, 3, 6]	12.0	catFR1	0	R1315T
2014.094	7.085	2015232	PROB	7.06	n/a	n/a	n/a	-999	19	[6, 1, 3]	10.0	catFR1	0	R1315T
2021.179	3.422	2022317	PROB	3.422	n/a	n/a	n/a	-999	19	[1, 9, 3]	13.0	catFR1	0	R1315T
2024.601	0.012	2025739	STOP	n/a	n/a	n/a	n/a	-999	19	[-999, -999, -999]	n/a	catFR1	0	R1315T
2024.613	0.611	2025751	DISTRACT_END	n/a	n/a	n/a	n/a	-999	19	[0, 0, 0]	n/a	catFR1	0	R1315T
2025.224	1.672	2026362	RETRIEVAL_ORIENT_START	n/a	n/a	n/a	n/a	-999	19	[0, 0, 0]	n/a	catFR1	0	R1315T
2026.896	0.001	2028034	RETRIEVAL_ORIENT_END	n/a	n/a	n/a	n/a	-999	19	[0, 0, 0]	n/a	catFR1	0	R1315T
2026.897	14.697	2028035	REC_START	n/a	n/a	n/a	n/a	-999	19	[0, 0, 0]	n/a	catFR1	0	R1315T
2041.594	15.314	2042731	REC_WORD_VV	14.697	n/a	<>	n/a	-999	19	[0, 0, 0]	n/a	catFR1	0	R1315T
2056.908	0.001	2058044	REC_END	n/a	n/a	n/a	n/a	-999	19	[0, 0, 0]	n/a	catFR1	0	R1315T
2056.909	0.021	2058045	TRIAL_END	n/a	n/a	n/a	n/a	-999	19	[0, 0, 0]	n/a	catFR1	0	R1315T
2056.93	0.0	2058066	TRIAL_START	n/a	n/a	n/a	n/a	-999	20	[0, 0, 0]	n/a	catFR1	0	R1315T
2056.93	0.001	2058066	TRIAL	n/a	n/a	n/a	n/a	-999	20	[0, 0, 0]	n/a	catFR1	0	R1315T
2056.931	1.855	2058067	WAITING_START	n/a	n/a	n/a	n/a	-999	20	[0, 0, 0]	n/a	catFR1	0	R1315T
2058.786	0.0	2059922	WAITING_END	n/a	n/a	n/a	n/a	-999	20	[0, 0, 0]	n/a	catFR1	0	R1315T
2058.786	10.429	2059922	COUNTDOWN_START	n/a	n/a	n/a	n/a	-999	20	[0, 0, 0]	n/a	catFR1	0	R1315T
2069.215	0.001	2070351	COUNTDOWN_END	n/a	n/a	n/a	n/a	-999	20	[0, 0, 0]	n/a	catFR1	0	R1315T
2069.216	1.088	2070352	ORIENT_START	n/a	n/a	n/a	n/a	-999	20	[0, 0, 0]	n/a	catFR1	0	R1315T
2070.304	0.001	2071440	ORIENT_END	n/a	n/a	n/a	n/a	-999	20	[0, 0, 0]	n/a	catFR1	0	R1315T
2070.305	1.111	2071441	ENCODING_START	n/a	n/a	n/a	n/a	-999	20	[0, 0, 0]	n/a	catFR1	0	R1315T
2071.416	1.639	2072552	WORD	n/a	wordpools/wordpool_categorized_EN.txt	SPARROW	Birds	1	20	[0, 0, 0]	n/a	catFR1	0	R1315T
2073.055	0.848	2074191	WORD_OFF	n/a	n/a	SPARROW	Birds	1	20	[0, 0, 0]	n/a	catFR1	0	R1315T
2073.903	1.636	2075039	WORD	n/a	wordpools/wordpool_categorized_EN.txt	DOVE	Birds	2	20	[0, 0, 0]	n/a	catFR1	0	R1315T
2075.539	0.792	2076675	WORD_OFF	n/a	n/a	DOVE	Birds	2	20	[0, 0, 0]	n/a	catFR1	0	R1315T
2076.331	1.625	2077467	WORD	n/a	wordpools/wordpool_categorized_EN.txt	DRESS	Clothing	3	20	[0, 0, 0]	n/a	catFR1	0	R1315T
2077.956	0.794	2079092	WORD_OFF	n/a	n/a	DRESS	Clothing	3	20	[0, 0, 0]	n/a	catFR1	0	R1315T
2078.75	1.623	2079886	WORD	n/a	wordpools/wordpool_categorized_EN.txt	SOCKS	Clothing	4	20	[0, 0, 0]	n/a	catFR1	0	R1315T
2080.373	1.063	2081508	WORD_OFF	n/a	n/a	SOCKS	Clothing	4	20	[0, 0, 0]	n/a	catFR1	0	R1315T
2081.436	1.621	2082571	WORD	n/a	wordpools/wordpool_categorized_EN.txt	FLY	Insects	5	20	[0, 0, 0]	n/a	catFR1	0	R1315T
2083.057	0.995	2084192	WORD_OFF	n/a	n/a	FLY	Insects	5	20	[0, 0, 0]	n/a	catFR1	0	R1315T
2084.052	1.622	2085187	WORD	n/a	wordpools/wordpool_categorized_EN.txt	BEETLE	Insects	6	20	[0, 0, 0]	n/a	catFR1	0	R1315T
2085.674	1.092	2086809	WORD_OFF	n/a	n/a	BEETLE	Insects	6	20	[0, 0, 0]	n/a	catFR1	0	R1315T
2086.766	1.625	2087901	WORD	n/a	wordpools/wordpool_categorized_EN.txt	SHIRT	Clothing	7	20	[0, 0, 0]	n/a	catFR1	0	R1315T
2088.391	0.875	2089526	WORD_OFF	n/a	n/a	SHIRT	Clothing	7	20	[0, 0, 0]	n/a	catFR1	0	R1315T
2089.266	1.625	2090401	WORD	n/a	wordpools/wordpool_categorized_EN.txt	PANTS	Clothing	8	20	[0, 0, 0]	n/a	catFR1	0	R1315T
2090.891	1.036	2092026	WORD_OFF	n/a	n/a	PANTS	Clothing	8	20	[0, 0, 0]	n/a	catFR1	0	R1315T
2091.927	1.632	2093062	WORD	n/a	wordpools/wordpool_categorized_EN.txt	ANT	Insects	9	20	[0, 0, 0]	n/a	catFR1	0	R1315T
2093.559	1.073	2094694	WORD_OFF	n/a	n/a	ANT	Insects	9	20	[0, 0, 0]	n/a	catFR1	0	R1315T
2094.632	1.628	2095767	WORD	n/a	wordpools/wordpool_categorized_EN.txt	GNAT	Insects	10	20	[0, 0, 0]	n/a	catFR1	0	R1315T
2096.26	0.982	2097395	WORD_OFF	n/a	n/a	GNAT	Insects	10	20	[0, 0, 0]	n/a	catFR1	0	R1315T
2097.242	1.634	2098377	WORD	n/a	wordpools/wordpool_categorized_EN.txt	GOOSE	Birds	11	20	[0, 0, 0]	n/a	catFR1	0	R1315T
2098.876	1.112	2100011	WORD_OFF	n/a	n/a	GOOSE	Birds	11	20	[0, 0, 0]	n/a	catFR1	0	R1315T
2099.988	1.622	2101123	WORD	n/a	wordpools/wordpool_categorized_EN.txt	ROBIN	Birds	12	20	[0, 0, 0]	n/a	catFR1	0	R1315T
2101.61	0.0	2102745	WORD_OFF	n/a	n/a	ROBIN	Birds	12	20	[0, 0, 0]	n/a	catFR1	0	R1315T
2101.61	0.001	2102745	ENCODING_END	n/a	n/a	n/a	n/a	-999	20	[0, 0, 0]	n/a	catFR1	0	R1315T
2101.611	0.0	2102746	DISTRACT_START	n/a	n/a	n/a	n/a	-999	20	[0, 0, 0]	n/a	catFR1	0	R1315T
2101.611	0.015	2102746	START	n/a	n/a	n/a	n/a	-999	20	[-999, -999, -999]	n/a	catFR1	0	R1315T
2101.626	3.384	2102761	PROB	3.355	n/a	n/a	n/a	-999	20	[3, 2, 5]	10.0	catFR1	0	R1315T
2105.01	2.185	2106144	PROB	2.156	n/a	n/a	n/a	-999	20	[9, 3, 1]	13.0	catFR1	0	R1315T
2107.195	5.534	2108329	PROB	5.495	n/a	n/a	n/a	-999	20	[6, 9, 8]	23.0	catFR1	0	R1315T
2112.729	2.6	2113863	PROB	2.562	n/a	n/a	n/a	-999	20	[4, 7, 3]	14.0	catFR1	0	R1315T
2115.329	3.167	2116463	PROB	3.144	n/a	n/a	n/a	-999	20	[2, 8, 3]	13.0	catFR1	0	R1315T
