onset	duration	sample	trial_type	response_time	stim_file	item_name	category	serialpos	list	test	answer	experiment	session	subject
0.0	31.83	1979	SESS_START	n/a	n/a	n/a	n/a	-999	-999	[0, 0, 0]	n/a	catFR1	0	R1157C
31.83	10.0	17892	COUNTDOWN_START	n/a	n/a	n/a	n/a	-999	-999	[0, 0, 0]	n/a	catFR1	0	R1157C
42.258	3.89	23106	COUNTDOWN_END	n/a	n/a	n/a	n/a	-999	-999	[0, 0, 0]	n/a	catFR1	0	R1157C
46.148	1.6	25051	PRACTICE_WORD	n/a	n/a	CAMEL	n/a	-999	-999	[0, 0, 0]	n/a	catFR1	0	R1157C
48.617	1.6	26285	PRACTICE_WORD	n/a	n/a	RHINO	n/a	-999	-999	[0, 0, 0]	n/a	catFR1	0	R1157C
51.216	1.6	27585	PRACTICE_WORD	n/a	n/a	COTTON	n/a	-999	-999	[0, 0, 0]	n/a	catFR1	0	R1157C
53.651	1.6	28802	PRACTICE_WORD	n/a	n/a	BEAM	n/a	-999	-999	[0, 0, 0]	n/a	catFR1	0	R1157C
56.25	1.6	30102	PRACTICE_WORD	n/a	n/a	WAGON	n/a	-999	-999	[0, 0, 0]	n/a	catFR1	0	R1157C
58.768	1.6	31360	PRACTICE_WORD	n/a	n/a	RING	n/a	-999	-999	[0, 0, 0]	n/a	catFR1	0	R1157C
61.151	1.6	32552	PRACTICE_WORD	n/a	n/a	TONGUE	n/a	-999	-999	[0, 0, 0]	n/a	catFR1	0	R1157C
63.536	1.6	33744	PRACTICE_WORD	n/a	n/a	IRON	n/a	-999	-999	[0, 0, 0]	n/a	catFR1	0	R1157C
65.92	1.6	34936	PRACTICE_WORD	n/a	n/a	CHEST	n/a	-999	-999	[0, 0, 0]	n/a	catFR1	0	R1157C
68.319	1.6	36136	PRACTICE_WORD	n/a	n/a	WATCH	n/a	-999	-999	[0, 0, 0]	n/a	catFR1	0	R1157C
70.871	1.6	37412	PRACTICE_WORD	n/a	n/a	ATTIC	n/a	-999	-999	[0, 0, 0]	n/a	catFR1	0	R1157C
73.304	1.6	38628	PRACTICE_WORD	n/a	n/a	FLOOD	n/a	-999	-999	[0, 0, 0]	n/a	catFR1	0	R1157C
74.921	0.001	39436	PRACTICE_DISTRACT_START	n/a	n/a	n/a	n/a	-999	-999	[0, 0, 0]	n/a	catFR1	0	R1157C
74.922	0.016	39437	START	n/a	n/a	n/a	n/a	-999	-1	[-999, -999, -999]	n/a	catFR1	0	R1157C
74.938	12.769	39445	PROB	12.747	n/a	n/a	n/a	-999	-1	[9, 4, 1]	14.0	catFR1	0	R1157C
87.707	4.301	45829	PROB	4.274	n/a	n/a	n/a	-999	-1	[6, 3, 3]	12.0	catFR1	0	R1157C
92.008	5.757	47979	PROB	5.757	n/a	n/a	n/a	-999	-1	[7, 4, 9]	20.0	catFR1	0	R1157C
97.765	0.011	50858	STOP	n/a	n/a	n/a	n/a	-999	-1	[-999, -999, -999]	n/a	catFR1	0	R1157C
97.776	0.702	50863	PRACTICE_DISTRACT_END	n/a	n/a	n/a	n/a	-999	-999	[0, 0, 0]	n/a	catFR1	0	R1157C
98.478	30.515	51214	PRACTICE_REC_START	n/a	n/a	n/a	n/a	-999	-999	[0, 0, 0]	n/a	catFR1	0	R1157C
128.993	31.078	66471	PRACTICE_REC_END	n/a	n/a	n/a	n/a	-999	-999	[0, 0, 0]	n/a	catFR1	0	R1157C
160.071	0.0	82009	TRIAL	n/a	n/a	n/a	n/a	-999	1	[0, 0, 0]	n/a	catFR1	0	R1157C
160.071	10.0	82009	COUNTDOWN_START	n/a	n/a	n/a	n/a	-999	1	[0, 0, 0]	n/a	catFR1	0	R1157C
170.499	0.007	87222	COUNTDOWN_END	n/a	n/a	n/a	n/a	-999	1	[0, 0, 0]	n/a	catFR1	0	R1157C
170.506	1.6	87226	ORIENT	n/a	n/a	n/a	n/a	-999	1	[0, 0, 0]	n/a	catFR1	0	R1157C
174.289	1.6	89117	WORD	n/a	wordpools/wordpool_categorized_EN.txt	PIG	FarmAnimals	1	1	[0, 0, 0]	n/a	catFR1	0	R1157C
176.874	1.6	90409	WORD	n/a	wordpools/wordpool_categorized_EN.txt	TURKEY	FarmAnimals	2	1	[0, 0, 0]	n/a	catFR1	0	R1157C
179.274	1.6	91609	WORD	n/a	wordpools/wordpool_categorized_EN.txt	DOVE	Birds	3	1	[0, 0, 0]	n/a	catFR1	0	R1157C
181.675	1.6	92810	WORD	n/a	wordpools/wordpool_categorized_EN.txt	PIGEON	Birds	4	1	[0, 0, 0]	n/a	catFR1	0	R1157C
184.208	1.6	94076	WORD	n/a	wordpools/wordpool_categorized_EN.txt	PRINTER	Electronics	5	1	[0, 0, 0]	n/a	catFR1	0	R1157C
186.826	1.6	95385	WORD	n/a	wordpools/wordpool_categorized_EN.txt	SPEAKER	Electronics	6	1	[0, 0, 0]	n/a	catFR1	0	R1157C
189.392	1.6	96668	WORD	n/a	wordpools/wordpool_categorized_EN.txt	GOAT	FarmAnimals	7	1	[0, 0, 0]	n/a	catFR1	0	R1157C
191.81	1.6	97877	WORD	n/a	wordpools/wordpool_categorized_EN.txt	COW	FarmAnimals	8	1	[0, 0, 0]	n/a	catFR1	0	R1157C
194.226	1.6	99085	WORD	n/a	wordpools/wordpool_categorized_EN.txt	HEADPHONES	Electronics	9	1	[0, 0, 0]	n/a	catFR1	0	R1157C
196.744	1.6	100344	WORD	n/a	wordpools/wordpool_categorized_EN.txt	COMPUTER	Electronics	10	1	[0, 0, 0]	n/a	catFR1	0	R1157C
199.194	1.6	101569	WORD	n/a	wordpools/wordpool_categorized_EN.txt	DUCK	Birds	11	1	[0, 0, 0]	n/a	catFR1	0	R1157C
201.579	1.6	102761	WORD	n/a	wordpools/wordpool_categorized_EN.txt	CARDINAL	Birds	12	1	[0, 0, 0]	n/a	catFR1	0	R1157C
203.195	0.001	103569	DISTRACT_START	n/a	n/a	n/a	n/a	-999	1	[0, 0, 0]	n/a	catFR1	0	R1157C
203.196	0.015	103570	START	n/a	n/a	n/a	n/a	-999	1	[-999, -999, -999]	n/a	catFR1	0	R1157C
203.211	4.018	103577	PROB	3.993	n/a	n/a	n/a	-999	1	[1, 5, 8]	14.0	catFR1	0	R1157C
207.229	6.385	105586	PROB	6.36	n/a	n/a	n/a	-999	1	[7, 5, 7]	19.0	catFR1	0	R1157C
213.614	6.035	108778	PROB	5.999	n/a	n/a	n/a	-999	1	[9, 6, 3]	18.0	catFR1	0	R1157C
219.649	5.108	111795	PROB	5.108	n/a	n/a	n/a	-999	1	[4, 5, 7]	16.0	catFR1	0	R1157C
224.757	0.009	114349	STOP	n/a	n/a	n/a	n/a	-999	1	[-999, -999, -999]	n/a	catFR1	0	R1157C
224.766	1.072	114354	DISTRACT_END	n/a	n/a	n/a	n/a	-999	1	[0, 0, 0]	n/a	catFR1	0	R1157C
225.838	29.994	114890	REC_START	n/a	n/a	n/a	n/a	-999	1	[0, 0, 0]	n/a	catFR1	0	R1157C
255.832	0.013	129886	REC_WORD_VV	29.994	n/a	<>	n/a	-999	1	[0, 0, 0]	n/a	catFR1	0	R1157C
255.845	5.527	129892	REC_END	n/a	n/a	n/a	n/a	-999	1	[0, 0, 0]	n/a	catFR1	0	R1157C
261.372	10.0	132656	COUNTDOWN_START	n/a	n/a	n/a	n/a	-999	2	[0, 0, 0]	n/a	catFR1	0	R1157C
261.373	10.427	132656	TRIAL	n/a	n/a	n/a	n/a	-999	2	[0, 0, 0]	n/a	catFR1	0	R1157C
271.8	0.009	137869	COUNTDOWN_END	n/a	n/a	n/a	n/a	-999	2	[0, 0, 0]	n/a	catFR1	0	R1157C
271.809	1.6	137874	ORIENT	n/a	n/a	n/a	n/a	-999	2	[0, 0, 0]	n/a	catFR1	0	R1157C
275.709	1.6	139824	WORD	n/a	wordpools/wordpool_categorized_EN.txt	FOG	Weather	1	2	[0, 0, 0]	n/a	catFR1	0	R1157C
278.192	1.6	141065	WORD	n/a	wordpools/wordpool_categorized_EN.txt	HUMIDITY	Weather	2	2	[0, 0, 0]	n/a	catFR1	0	R1157C
280.593	1.6	142265	WORD	n/a	wordpools/wordpool_categorized_EN.txt	TURTLE	OceanAnimals	3	2	[0, 0, 0]	n/a	catFR1	0	R1157C
283.16	1.6	143549	WORD	n/a	wordpools/wordpool_categorized_EN.txt	PLANKTON	OceanAnimals	4	2	[0, 0, 0]	n/a	catFR1	0	R1157C
285.561	1.6	144749	WORD	n/a	wordpools/wordpool_categorized_EN.txt	EYE	BodyParts	5	2	[0, 0, 0]	n/a	catFR1	0	R1157C
288.095	1.6	146016	WORD	n/a	wordpools/wordpool_categorized_EN.txt	FOOT	BodyParts	6	2	[0, 0, 0]	n/a	catFR1	0	R1157C
290.512	1.6	147225	WORD	n/a	wordpools/wordpool_categorized_EN.txt	SNOW	Weather	7	2	[0, 0, 0]	n/a	catFR1	0	R1157C
292.946	1.6	148441	WORD	n/a	wordpools/wordpool_categorized_EN.txt	LIGHTNING	Weather	8	2	[0, 0, 0]	n/a	catFR1	0	R1157C
295.513	1.6	149725	WORD	n/a	wordpools/wordpool_categorized_EN.txt	FINGERS	BodyParts	9	2	[0, 0, 0]	n/a	catFR1	0	R1157C
297.963	1.6	150950	WORD	n/a	wordpools/wordpool_categorized_EN.txt	HEAD	BodyParts	10	2	[0, 0, 0]	n/a	catFR1	0	R1157C
300.497	1.6	152217	WORD	n/a	wordpools/wordpool_categorized_EN.txt	WHALE	OceanAnimals	11	2	[0, 0, 0]	n/a	catFR1	0	R1157C
303.031	1.6	153484	WORD	n/a	wordpools/wordpool_categorized_EN.txt	JELLYFISH	OceanAnimals	12	2	[0, 0, 0]	n/a	catFR1	0	R1157C
304.648	0.001	154292	DISTRACT_START	n/a	n/a	n/a	n/a	-999	2	[0, 0, 0]	n/a	catFR1	0	R1157C
304.649	0.016	154293	START	n/a	n/a	n/a	n/a	-999	2	[-999, -999, -999]	n/a	catFR1	0	R1157C
304.665	3.834	154301	PROB	3.803	n/a	n/a	n/a	-999	2	[6, 3, 1]	10.0	catFR1	0	R1157C
308.499	3.3	156217	PROB	3.274	n/a	n/a	n/a	-999	2	[1, 9, 8]	18.0	catFR1	0	R1157C
311.799	9.219	157867	PROB	9.198	n/a	n/a	n/a	-999	2	[6, 5, 9]	20.0	catFR1	0	R1157C
321.018	4.282	162477	PROB	4.282	n/a	n/a	n/a	-999	2	[9, 7, 3]	19.0	catFR1	0	R1157C
325.3	0.018	164617	STOP	n/a	n/a	n/a	n/a	-999	2	[-999, -999, -999]	n/a	catFR1	0	R1157C
325.318	1.134	164626	DISTRACT_END	n/a	n/a	n/a	n/a	-999	2	[0, 0, 0]	n/a	catFR1	0	R1157C
326.452	17.206	165193	REC_START	n/a	n/a	n/a	n/a	-999	2	[0, 0, 0]	n/a	catFR1	0	R1157C
343.658	0.995	173796	REC_WORD_VV	17.206	n/a	<>	n/a	-999	2	[0, 0, 0]	n/a	catFR1	0	R1157C
344.653	1.0	174293	REC_WORD_VV	18.201	n/a	<>	n/a	-999	2	[0, 0, 0]	n/a	catFR1	0	R1157C
345.653	1.0	174793	REC_WORD_VV	19.201	n/a	<>	n/a	-999	2	[0, 0, 0]	n/a	catFR1	0	R1157C
346.653	1.0	175293	REC_WORD_VV	20.201	n/a	<>	n/a	-999	2	[0, 0, 0]	n/a	catFR1	0	R1157C
347.653	1.0	175793	REC_WORD_VV	21.201	n/a	<>	n/a	-999	2	[0, 0, 0]	n/a	catFR1	0	R1157C
348.653	1.0	176293	REC_WORD_VV	22.201	n/a	<>	n/a	-999	2	[0, 0, 0]	n/a	catFR1	0	R1157C
349.653	1.0	176793	REC_WORD_VV	23.201	n/a	<>	n/a	-999	2	[0, 0, 0]	n/a	catFR1	0	R1157C
350.653	5.811	177293	REC_WORD_VV	24.201	n/a	<>	n/a	-999	2	[0, 0, 0]	n/a	catFR1	0	R1157C
356.464	28.332	180198	REC_END	n/a	n/a	n/a	n/a	-999	2	[0, 0, 0]	n/a	catFR1	0	R1157C
384.796	10.0	194363	COUNTDOWN_START	n/a	n/a	n/a	n/a	-999	3	[0, 0, 0]	n/a	catFR1	0	R1157C
384.797	10.427	194364	TRIAL	n/a	n/a	n/a	n/a	-999	3	[0, 0, 0]	n/a	catFR1	0	R1157C
395.224	0.007	199577	COUNTDOWN_END	n/a	n/a	n/a	n/a	-999	3	[0, 0, 0]	n/a	catFR1	0	R1157C
395.231	1.6	199580	ORIENT	n/a	n/a	n/a	n/a	-999	3	[0, 0, 0]	n/a	catFR1	0	R1157C
398.799	1.6	201364	WORD	n/a	wordpools/wordpool_categorized_EN.txt	TORNADO	Weather	1	3	[0, 0, 0]	n/a	catFR1	0	R1157C
401.248	1.6	202589	WORD	n/a	wordpools/wordpool_categorized_EN.txt	WIND	Weather	2	3	[0, 0, 0]	n/a	catFR1	0	R1157C
403.733	1.6	203831	WORD	n/a	wordpools/wordpool_categorized_EN.txt	FOOTBALL	Toys	3	3	[0, 0, 0]	n/a	catFR1	0	R1157C
406.333	1.6	205131	WORD	n/a	wordpools/wordpool_categorized_EN.txt	DOLL	Toys	4	3	[0, 0, 0]	n/a	catFR1	0	R1157C
408.801	1.6	206365	WORD	n/a	wordpools/wordpool_categorized_EN.txt	CORKSCREW	KitchenTools	5	3	[0, 0, 0]	n/a	catFR1	0	R1157C
411.334	1.6	207631	WORD	n/a	wordpools/wordpool_categorized_EN.txt	LADLE	KitchenTools	6	3	[0, 0, 0]	n/a	catFR1	0	R1157C
413.918	1.6	208923	WORD	n/a	wordpools/wordpool_categorized_EN.txt	BARBIE	Toys	7	3	[0, 0, 0]	n/a	catFR1	0	R1157C
416.536	1.6	210232	WORD	n/a	wordpools/wordpool_categorized_EN.txt	BLOCKS	Toys	8	3	[0, 0, 0]	n/a	catFR1	0	R1157C
419.119	1.6	211524	WORD	n/a	wordpools/wordpool_categorized_EN.txt	THUNDER	Weather	9	3	[0, 0, 0]	n/a	catFR1	0	R1157C
421.57	1.6	212749	WORD	n/a	wordpools/wordpool_categorized_EN.txt	THUNDERSTORM	Weather	10	3	[0, 0, 0]	n/a	catFR1	0	R1157C
424.07	1.6	213999	WORD	n/a	wordpools/wordpool_categorized_EN.txt	KNIFE	KitchenTools	11	3	[0, 0, 0]	n/a	catFR1	0	R1157C
426.588	1.6	215258	WORD	n/a	wordpools/wordpool_categorized_EN.txt	SPOON	KitchenTools	12	3	[0, 0, 0]	n/a	catFR1	0	R1157C
428.203	0.002	216065	DISTRACT_START	n/a	n/a	n/a	n/a	-999	3	[0, 0, 0]	n/a	catFR1	0	R1157C
428.205	0.015	216066	START	n/a	n/a	n/a	n/a	-999	3	[-999, -999, -999]	n/a	catFR1	0	R1157C
428.22	3.652	216074	PROB	3.625	n/a	n/a	n/a	-999	3	[8, 2, 9]	19.0	catFR1	0	R1157C
431.872	8.168	217900	PROB	8.133	n/a	n/a	n/a	-999	3	[9, 8, 9]	26.0	catFR1	0	R1157C
440.04	3.034	221983	PROB	3.013	n/a	n/a	n/a	-999	3	[5, 1, 3]	9.0	catFR1	0	R1157C
443.074	3.15	223500	PROB	3.122	n/a	n/a	n/a	-999	3	[8, 2, 8]	18.0	catFR1	0	R1157C
446.224	4.726	225075	PROB	4.726	n/a	n/a	n/a	-999	3	[7, 4, 5]	16.0	catFR1	0	R1157C
450.95	0.009	227438	STOP	n/a	n/a	n/a	n/a	-999	3	[-999, -999, -999]	n/a	catFR1	0	R1157C
450.959	1.101	227443	DISTRACT_END	n/a	n/a	n/a	n/a	-999	3	[0, 0, 0]	n/a	catFR1	0	R1157C
452.06	2.287	227993	REC_START	n/a	n/a	n/a	n/a	-999	3	[0, 0, 0]	n/a	catFR1	0	R1157C
454.347	1.0	229136	REC_WORD_VV	2.287	n/a	<>	n/a	-999	3	[0, 0, 0]	n/a	catFR1	0	R1157C
455.347	2.101	229636	REC_WORD_VV	3.287	n/a	<>	n/a	-999	3	[0, 0, 0]	n/a	catFR1	0	R1157C
457.448	0.193	230687	REC_WORD_VV	5.388	n/a	<>	n/a	-999	3	[0, 0, 0]	n/a	catFR1	0	R1157C
457.641	0.868	230783	REC_WORD	5.581	n/a	THUNDER	Weather	9	3	[0, 0, 0]	n/a	catFR1	0	R1157C
458.509	1.108	231217	REC_WORD	6.449	n/a	THUNDERSTORM	Weather	10	3	[0, 0, 0]	n/a	catFR1	0	R1157C
459.617	1.0	231771	REC_WORD_VV	7.557	n/a	<>	n/a	-999	3	[0, 0, 0]	n/a	catFR1	0	R1157C
460.617	2.329	232271	REC_WORD_VV	8.557	n/a	<>	n/a	-999	3	[0, 0, 0]	n/a	catFR1	0	R1157C
462.946	0.278	233436	REC_WORD_VV	10.886	n/a	<>	n/a	-999	3	[0, 0, 0]	n/a	catFR1	0	R1157C
463.224	1.002	233575	REC_WORD	11.164	n/a	KNIFE	KitchenTools	11	3	[0, 0, 0]	n/a	catFR1	0	R1157C
464.226	3.118	234076	REC_WORD	12.166	n/a	BARBIE	Toys	7	3	[0, 0, 0]	n/a	catFR1	0	R1157C
467.344	6.115	235635	REC_WORD	15.284	n/a	CORKSCREW	KitchenTools	5	3	[0, 0, 0]	n/a	catFR1	0	R1157C
473.459	1.0	238692	REC_WORD_VV	21.399	n/a	<>	n/a	-999	3	[0, 0, 0]	n/a	catFR1	0	R1157C
474.459	1.0	239192	REC_WORD_VV	22.399	n/a	<>	n/a	-999	3	[0, 0, 0]	n/a	catFR1	0	R1157C
475.459	4.998	239692	REC_WORD_VV	23.399	n/a	<>	n/a	-999	3	[0, 0, 0]	n/a	catFR1	0	R1157C
480.457	0.46	242191	REC_WORD_VV	28.397	n/a	<>	n/a	-999	3	[0, 0, 0]	n/a	catFR1	0	R1157C
480.917	0.724	242421	REC_WORD	28.857	n/a	TORNADO	Weather	1	3	[0, 0, 0]	n/a	catFR1	0	R1157C
481.641	0.43	242783	REC_WORD_VV	29.581	n/a	<>	n/a	-999	3	[0, 0, 0]	n/a	catFR1	0	R1157C
482.071	34.017	242997	REC_END	n/a	n/a	n/a	n/a	-999	3	[0, 0, 0]	n/a	catFR1	0	R1157C
516.088	10.0	260005	COUNTDOWN_START	n/a	n/a	n/a	n/a	-999	4	[0, 0, 0]	n/a	catFR1	0	R1157C
516.088	10.428	260005	TRIAL	n/a	n/a	n/a	n/a	-999	4	[0, 0, 0]	n/a	catFR1	0	R1157C
526.516	0.007	265218	COUNTDOWN_END	n/a	n/a	n/a	n/a	-999	4	[0, 0, 0]	n/a	catFR1	0	R1157C
526.523	1.6	265222	ORIENT	n/a	n/a	n/a	n/a	-999	4	[0, 0, 0]	n/a	catFR1	0	R1157C
530.439	1.6	267180	WORD	n/a	wordpools/wordpool_categorized_EN.txt	BANJO	Instruments	1	4	[0, 0, 0]	n/a	catFR1	0	R1157C
532.924	1.6	268422	WORD	n/a	wordpools/wordpool_categorized_EN.txt	BASS	Instruments	2	4	[0, 0, 0]	n/a	catFR1	0	R1157C
535.541	1.6	269731	WORD	n/a	wordpools/wordpool_categorized_EN.txt	DAISY	Flowers	3	4	[0, 0, 0]	n/a	catFR1	0	R1157C
537.925	1.6	270923	WORD	n/a	wordpools/wordpool_categorized_EN.txt	PETUNIA	Flowers	4	4	[0, 0, 0]	n/a	catFR1	0	R1157C
540.425	1.6	272172	WORD	n/a	wordpools/wordpool_categorized_EN.txt	COFFEE	Beverages	5	4	[0, 0, 0]	n/a	catFR1	0	R1157C
542.893	1.6	273406	WORD	n/a	wordpools/wordpool_categorized_EN.txt	COLA	Beverages	6	4	[0, 0, 0]	n/a	catFR1	0	R1157C
545.493	1.6	274706	WORD	n/a	wordpools/wordpool_categorized_EN.txt	DRUM	Instruments	7	4	[0, 0, 0]	n/a	catFR1	0	R1157C
548.044	1.6	275982	WORD	n/a	wordpools/wordpool_categorized_EN.txt	TROMBONE	Instruments	8	4	[0, 0, 0]	n/a	catFR1	0	R1157C
550.46	1.6	277190	WORD	n/a	wordpools/wordpool_categorized_EN.txt	JUICE	Beverages	9	4	[0, 0, 0]	n/a	catFR1	0	R1157C
552.961	1.6	278440	WORD	n/a	wordpools/wordpool_categorized_EN.txt	RUM	Beverages	10	4	[0, 0, 0]	n/a	catFR1	0	R1157C
555.411	1.6	279665	WORD	n/a	wordpools/wordpool_categorized_EN.txt	LILAC	Flowers	11	4	[0, 0, 0]	n/a	catFR1	0	R1157C
557.812	1.6	280865	WORD	n/a	wordpools/wordpool_categorized_EN.txt	ROSE	Flowers	12	4	[0, 0, 0]	n/a	catFR1	0	R1157C
559.428	0.001	281673	DISTRACT_START	n/a	n/a	n/a	n/a	-999	4	[0, 0, 0]	n/a	catFR1	0	R1157C
559.429	0.016	281674	START	n/a	n/a	n/a	n/a	-999	4	[-999, -999, -999]	n/a	catFR1	0	R1157C
559.445	5.402	281682	PROB	5.368	n/a	n/a	n/a	-999	4	[3, 5, 6]	14.0	catFR1	0	R1157C
564.847	4.867	284383	PROB	4.846	n/a	n/a	n/a	-999	4	[4, 7, 5]	16.0	catFR1	0	R1157C
569.714	3.884	286816	PROB	3.851	n/a	n/a	n/a	-999	4	[1, 8, 7]	16.0	catFR1	0	R1157C
573.598	5.068	288758	PROB	5.047	n/a	n/a	n/a	-999	4	[4, 1, 9]	14.0	catFR1	0	R1157C
578.666	4.867	291292	PROB	4.867	n/a	n/a	n/a	-999	4	[2, 4, 4]	10.0	catFR1	0	R1157C
583.533	0.017	293725	STOP	n/a	n/a	n/a	n/a	-999	4	[-999, -999, -999]	n/a	catFR1	0	R1157C
583.55	1.035	293734	DISTRACT_END	n/a	n/a	n/a	n/a	-999	4	[0, 0, 0]	n/a	catFR1	0	R1157C
584.585	3.466	294251	REC_START	n/a	n/a	n/a	n/a	-999	4	[0, 0, 0]	n/a	catFR1	0	R1157C
588.051	1.0	295984	REC_WORD	3.466	n/a	BANJO	Instruments	1	4	[0, 0, 0]	n/a	catFR1	0	R1157C
589.051	12.605	296484	REC_WORD_VV	4.466	n/a	<>	n/a	-999	4	[0, 0, 0]	n/a	catFR1	0	R1157C
601.656	12.94	302786	REC_WORD	17.071	n/a	ROSE	Flowers	12	4	[0, 0, 0]	n/a	catFR1	0	R1157C
614.596	2.776	309255	REC_END	n/a	n/a	n/a	n/a	-999	4	[0, 0, 0]	n/a	catFR1	0	R1157C
617.372	10.0	310643	COUNTDOWN_START	n/a	n/a	n/a	n/a	-999	5	[0, 0, 0]	n/a	catFR1	0	R1157C
617.373	10.427	310644	TRIAL	n/a	n/a	n/a	n/a	-999	5	[0, 0, 0]	n/a	catFR1	0	R1157C
627.8	0.009	315857	COUNTDOWN_END	n/a	n/a	n/a	n/a	-999	5	[0, 0, 0]	n/a	catFR1	0	R1157C
627.809	1.6	315862	ORIENT	n/a	n/a	n/a	n/a	-999	5	[0, 0, 0]	n/a	catFR1	0	R1157C
631.559	1.6	317736	WORD	n/a	wordpools/wordpool_categorized_EN.txt	FOUNDATION	Building	1	5	[0, 0, 0]	n/a	catFR1	0	R1157C
634.11	1.6	319012	WORD	n/a	wordpools/wordpool_categorized_EN.txt	WINDOW	Building	2	5	[0, 0, 0]	n/a	catFR1	0	R1157C
636.71	1.6	320312	WORD	n/a	wordpools/wordpool_categorized_EN.txt	COAT	Clothing	3	5	[0, 0, 0]	n/a	catFR1	0	R1157C
639.343	1.6	321628	WORD	n/a	wordpools/wordpool_categorized_EN.txt	DRESS	Clothing	4	5	[0, 0, 0]	n/a	catFR1	0	R1157C
641.845	1.6	322879	WORD	n/a	wordpools/wordpool_categorized_EN.txt	CARNATION	Flowers	5	5	[0, 0, 0]	n/a	catFR1	0	R1157C
644.478	1.6	324195	WORD	n/a	wordpools/wordpool_categorized_EN.txt	MARIGOLD	Flowers	6	5	[0, 0, 0]	n/a	catFR1	0	R1157C
647.079	1.6	325496	WORD	n/a	wordpools/wordpool_categorized_EN.txt	SHORTS	Clothing	7	5	[0, 0, 0]	n/a	catFR1	0	R1157C
649.513	1.6	326713	WORD	n/a	wordpools/wordpool_categorized_EN.txt	BLOUSE	Clothing	8	5	[0, 0, 0]	n/a	catFR1	0	R1157C
652.113	1.6	328013	WORD	n/a	wordpools/wordpool_categorized_EN.txt	FLOOR	Building	9	5	[0, 0, 0]	n/a	catFR1	0	R1157C
654.53	1.6	329221	WORD	n/a	wordpools/wordpool_categorized_EN.txt	ROOF	Building	10	5	[0, 0, 0]	n/a	catFR1	0	R1157C
656.947	1.6	330430	WORD	n/a	wordpools/wordpool_categorized_EN.txt	LILY	Flowers	11	5	[0, 0, 0]	n/a	catFR1	0	R1157C
659.565	1.6	331738	WORD	n/a	wordpools/wordpool_categorized_EN.txt	VIOLET	Flowers	12	5	[0, 0, 0]	n/a	catFR1	0	R1157C
661.181	0.001	332546	DISTRACT_START	n/a	n/a	n/a	n/a	-999	5	[0, 0, 0]	n/a	catFR1	0	R1157C
661.182	0.015	332547	START	n/a	n/a	n/a	n/a	-999	5	[-999, -999, -999]	n/a	catFR1	0	R1157C
661.197	5.702	332554	PROB	5.68	n/a	n/a	n/a	-999	5	[2, 4, 1]	7.0	catFR1	0	R1157C
666.899	3.901	335405	PROB	3.874	n/a	n/a	n/a	-999	5	[7, 7, 6]	20.0	catFR1	0	R1157C
670.8	2.616	337356	PROB	2.58	n/a	n/a	n/a	-999	5	[3, 6, 1]	10.0	catFR1	0	R1157C
673.416	5.034	338663	PROB	5.004	n/a	n/a	n/a	-999	5	[6, 8, 4]	18.0	catFR1	0	R1157C
678.45	3.826	341180	PROB	3.826	n/a	n/a	n/a	-999	5	[6, 1, 3]	12.0	catFR1	0	R1157C
682.276	0.009	343093	STOP	n/a	n/a	n/a	n/a	-999	5	[-999, -999, -999]	n/a	catFR1	0	R1157C
682.285	1.117	343098	DISTRACT_END	n/a	n/a	n/a	n/a	-999	5	[0, 0, 0]	n/a	catFR1	0	R1157C
683.402	6.132	343656	REC_START	n/a	n/a	n/a	n/a	-999	5	[0, 0, 0]	n/a	catFR1	0	R1157C
689.534	0.512	346722	REC_WORD_VV	6.132	n/a	<>	n/a	-999	5	[0, 0, 0]	n/a	catFR1	0	R1157C
690.046	7.7	346978	REC_WORD	6.644	n/a	LILY	Flowers	11	5	[0, 0, 0]	n/a	catFR1	0	R1157C
697.746	1.466	350828	REC_WORD_VV	14.344	n/a	<>	n/a	-999	5	[0, 0, 0]	n/a	catFR1	0	R1157C
699.212	7.266	351561	REC_WORD	15.81	n/a	ROOF	Building	10	5	[0, 0, 0]	n/a	catFR1	0	R1157C
706.478	6.935	355193	REC_WORD	23.076	n/a	FLOOR	Building	9	5	[0, 0, 0]	n/a	catFR1	0	R1157C
713.413	4.396	358661	REC_END	n/a	n/a	n/a	n/a	-999	5	[0, 0, 0]	n/a	catFR1	0	R1157C
717.809	10.0	360858	COUNTDOWN_START	n/a	n/a	n/a	n/a	-999	6	[0, 0, 0]	n/a	catFR1	0	R1157C
717.809	10.428	360858	TRIAL	n/a	n/a	n/a	n/a	-999	6	[0, 0, 0]	n/a	catFR1	0	R1157C
728.237	0.006	366072	COUNTDOWN_END	n/a	n/a	n/a	n/a	-999	6	[0, 0, 0]	n/a	catFR1	0	R1157C
728.243	1.6	366075	ORIENT	n/a	n/a	n/a	n/a	-999	6	[0, 0, 0]	n/a	catFR1	0	R1157C
731.811	1.6	367859	WORD	n/a	wordpools/wordpool_categorized_EN.txt	DOLLHOUSE	Toys	1	6	[0, 0, 0]	n/a	catFR1	0	R1157C
734.411	1.6	369159	WORD	n/a	wordpools/wordpool_categorized_EN.txt	PUZZLE	Toys	2	6	[0, 0, 0]	n/a	catFR1	0	R1157C
736.879	1.6	370393	WORD	n/a	wordpools/wordpool_categorized_EN.txt	RULER	OfficeSupplies	3	6	[0, 0, 0]	n/a	catFR1	0	R1157C
739.378	1.6	371642	WORD	n/a	wordpools/wordpool_categorized_EN.txt	FOLDER	OfficeSupplies	4	6	[0, 0, 0]	n/a	catFR1	0	R1157C
741.963	1.6	372935	WORD	n/a	wordpools/wordpool_categorized_EN.txt	CARROT	Vegetables	5	6	[0, 0, 0]	n/a	catFR1	0	R1157C
744.497	1.6	374202	WORD	n/a	wordpools/wordpool_categorized_EN.txt	BROCCOLI	Vegetables	6	6	[0, 0, 0]	n/a	catFR1	0	R1157C
746.931	1.6	375418	WORD	n/a	wordpools/wordpool_categorized_EN.txt	MARBLES	Toys	7	6	[0, 0, 0]	n/a	catFR1	0	R1157C
749.515	1.6	376710	WORD	n/a	wordpools/wordpool_categorized_EN.txt	BASKETBALL	Toys	8	6	[0, 0, 0]	n/a	catFR1	0	R1157C
751.965	1.6	377935	WORD	n/a	wordpools/wordpool_categorized_EN.txt	CORN	Vegetables	9	6	[0, 0, 0]	n/a	catFR1	0	R1157C
754.431	1.6	379168	WORD	n/a	wordpools/wordpool_categorized_EN.txt	CAULIFLOWER	Vegetables	10	6	[0, 0, 0]	n/a	catFR1	0	R1157C
756.933	1.6	380419	WORD	n/a	wordpools/wordpool_categorized_EN.txt	BINDER	OfficeSupplies	11	6	[0, 0, 0]	n/a	catFR1	0	R1157C
759.332	1.6	381619	WORD	n/a	wordpools/wordpool_categorized_EN.txt	MARKER	OfficeSupplies	12	6	[0, 0, 0]	n/a	catFR1	0	R1157C
760.933	0.002	382419	DISTRACT_START	n/a	n/a	n/a	n/a	-999	6	[0, 0, 0]	n/a	catFR1	0	R1157C
760.935	0.015	382420	START	n/a	n/a	n/a	n/a	-999	6	[-999, -999, -999]	n/a	catFR1	0	R1157C
760.95	4.934	382427	PROB	4.911	n/a	n/a	n/a	-999	6	[4, 6, 7]	17.0	catFR1	0	R1157C
765.884	5.501	384894	PROB	5.464	n/a	n/a	n/a	-999	6	[9, 5, 2]	16.0	catFR1	0	R1157C
771.385	5.067	387645	PROB	5.035	n/a	n/a	n/a	-999	6	[2, 5, 2]	10.0	catFR1	0	R1157C
776.452	5.928	390178	PROB	5.928	n/a	n/a	n/a	-999	6	[2, 9, 2]	13.0	catFR1	0	R1157C
782.38	0.007	393142	STOP	n/a	n/a	n/a	n/a	-999	6	[-999, -999, -999]	n/a	catFR1	0	R1157C
782.387	1.218	393145	DISTRACT_END	n/a	n/a	n/a	n/a	-999	6	[0, 0, 0]	n/a	catFR1	0	R1157C
783.605	3.242	393754	REC_START	n/a	n/a	n/a	n/a	-999	6	[0, 0, 0]	n/a	catFR1	0	R1157C
786.847	0.881	395375	REC_WORD	3.242	n/a	CAULIFLOWER	Vegetables	10	6	[0, 0, 0]	n/a	catFR1	0	R1157C
787.728	1.0	395816	REC_WORD	4.123	n/a	BROCCOLI	Vegetables	6	6	[0, 0, 0]	n/a	catFR1	0	R1157C
788.728	1.23	396315	REC_WORD_VV	5.123	n/a	<>	n/a	-999	6	[0, 0, 0]	n/a	catFR1	0	R1157C
789.958	1.033	396930	REC_WORD	6.353	n/a	CORN	Vegetables	9	6	[0, 0, 0]	n/a	catFR1	0	R1157C
790.991	4.44	397447	REC_WORD	7.386	n/a	BINDER	OfficeSupplies	11	6	[0, 0, 0]	n/a	catFR1	0	R1157C
795.431	17.013	399667	REC_WORD	11.826	n/a	BASKETBALL	Toys	8	6	[0, 0, 0]	n/a	catFR1	0	R1157C
812.444	1.177	408173	REC_WORD	28.839	n/a	RULER	OfficeSupplies	3	6	[0, 0, 0]	n/a	catFR1	0	R1157C
813.621	3.14	408761	REC_END	n/a	n/a	n/a	n/a	-999	6	[0, 0, 0]	n/a	catFR1	0	R1157C
816.761	0.0	410331	TRIAL	n/a	n/a	n/a	n/a	-999	7	[0, 0, 0]	n/a	catFR1	0	R1157C
816.761	10.0	410331	COUNTDOWN_START	n/a	n/a	n/a	n/a	-999	7	[0, 0, 0]	n/a	catFR1	0	R1157C
827.189	0.006	415545	COUNTDOWN_END	n/a	n/a	n/a	n/a	-999	7	[0, 0, 0]	n/a	catFR1	0	R1157C
827.195	1.6	415548	ORIENT	n/a	n/a	n/a	n/a	-999	7	[0, 0, 0]	n/a	catFR1	0	R1157C
830.83	1.6	417365	WORD	n/a	wordpools/wordpool_categorized_EN.txt	REFRIGERATOR	Appliances	1	7	[0, 0, 0]	n/a	catFR1	0	R1157C
833.263	1.6	418581	WORD	n/a	wordpools/wordpool_categorized_EN.txt	WASHER	Appliances	2	7	[0, 0, 0]	n/a	catFR1	0	R1157C
835.898	1.6	419899	WORD	n/a	wordpools/wordpool_categorized_EN.txt	SODA	Beverages	3	7	[0, 0, 0]	n/a	catFR1	0	R1157C
838.515	1.6	421207	WORD	n/a	wordpools/wordpool_categorized_EN.txt	WINE	Beverages	4	7	[0, 0, 0]	n/a	catFR1	0	R1157C
840.982	1.6	422441	WORD	n/a	wordpools/wordpool_categorized_EN.txt	MOPED	Vehicles	5	7	[0, 0, 0]	n/a	catFR1	0	R1157C
843.516	1.6	423708	WORD	n/a	wordpools/wordpool_categorized_EN.txt	BOAT	Vehicles	6	7	[0, 0, 0]	n/a	catFR1	0	R1157C
846.066	1.6	424983	WORD	n/a	wordpools/wordpool_categorized_EN.txt	TEA	Beverages	7	7	[0, 0, 0]	n/a	catFR1	0	R1157C
848.633	1.6	426266	WORD	n/a	wordpools/wordpool_categorized_EN.txt	BEER	Beverages	8	7	[0, 0, 0]	n/a	catFR1	0	R1157C
851.266	1.6	427582	WORD	n/a	wordpools/wordpool_categorized_EN.txt	OVEN	Appliances	9	7	[0, 0, 0]	n/a	catFR1	0	R1157C
853.701	1.6	428800	WORD	n/a	wordpools/wordpool_categorized_EN.txt	DISHWASHER	Appliances	10	7	[0, 0, 0]	n/a	catFR1	0	R1157C
856.284	1.6	430091	WORD	n/a	wordpools/wordpool_categorized_EN.txt	VAN	Vehicles	11	7	[0, 0, 0]	n/a	catFR1	0	R1157C
858.852	1.6	431375	WORD	n/a	wordpools/wordpool_categorized_EN.txt	PLANE	Vehicles	12	7	[0, 0, 0]	n/a	catFR1	0	R1157C
860.468	0.001	432183	DISTRACT_START	n/a	n/a	n/a	n/a	-999	7	[0, 0, 0]	n/a	catFR1	0	R1157C
860.469	0.017	432184	START	n/a	n/a	n/a	n/a	-999	7	[-999, -999, -999]	n/a	catFR1	0	R1157C
860.486	5.101	432192	PROB	5.079	n/a	n/a	n/a	-999	7	[8, 9, 1]	18.0	catFR1	0	R1157C
865.587	3.766	434742	PROB	3.737	n/a	n/a	n/a	-999	7	[2, 1, 3]	6.0	catFR1	0	R1157C
869.353	4.635	436625	PROB	4.612	n/a	n/a	n/a	-999	7	[3, 8, 8]	19.0	catFR1	0	R1157C
873.988	5.484	438943	PROB	5.449	n/a	n/a	n/a	-999	7	[1, 7, 5]	13.0	catFR1	0	R1157C
879.472	3.972	441684	PROB	3.972	n/a	n/a	n/a	-999	7	[6, 8, 7]	21.0	catFR1	0	R1157C
883.444	0.012	443670	STOP	n/a	n/a	n/a	n/a	-999	7	[-999, -999, -999]	n/a	catFR1	0	R1157C
883.456	1.218	443676	DISTRACT_END	n/a	n/a	n/a	n/a	-999	7	[0, 0, 0]	n/a	catFR1	0	R1157C
884.674	1.355	444285	REC_START	n/a	n/a	n/a	n/a	-999	7	[0, 0, 0]	n/a	catFR1	0	R1157C
886.029	0.747	444963	REC_WORD	1.355	n/a	WINE	Beverages	4	7	[0, 0, 0]	n/a	catFR1	0	R1157C
886.776	5.838	445336	REC_WORD	2.102	n/a	BEER	Beverages	8	7	[0, 0, 0]	n/a	catFR1	0	R1157C
892.614	7.827	448255	REC_WORD	7.94	n/a	SODA	Beverages	3	7	[0, 0, 0]	n/a	catFR1	0	R1157C
900.441	14.244	452168	REC_WORD	15.767	n/a	DISHWASHER	Appliances	10	7	[0, 0, 0]	n/a	catFR1	0	R1157C
914.685	3.045	459290	REC_END	n/a	n/a	n/a	n/a	-999	7	[0, 0, 0]	n/a	catFR1	0	R1157C
917.73	0.0	460812	TRIAL	n/a	n/a	n/a	n/a	-999	8	[0, 0, 0]	n/a	catFR1	0	R1157C
917.73	10.0	460812	COUNTDOWN_START	n/a	n/a	n/a	n/a	-999	8	[0, 0, 0]	n/a	catFR1	0	R1157C
928.158	0.006	466026	COUNTDOWN_END	n/a	n/a	n/a	n/a	-999	8	[0, 0, 0]	n/a	catFR1	0	R1157C
928.164	1.6	466029	ORIENT	n/a	n/a	n/a	n/a	-999	8	[0, 0, 0]	n/a	catFR1	0	R1157C
931.599	1.6	467746	WORD	n/a	wordpools/wordpool_categorized_EN.txt	SHRIMP	OceanAnimals	1	8	[0, 0, 0]	n/a	catFR1	0	R1157C
934.066	1.6	468980	WORD	n/a	wordpools/wordpool_categorized_EN.txt	OCTOPUS	OceanAnimals	2	8	[0, 0, 0]	n/a	catFR1	0	R1157C
936.6	1.6	470246	WORD	n/a	wordpools/wordpool_categorized_EN.txt	STOVE	Appliances	3	8	[0, 0, 0]	n/a	catFR1	0	R1157C
939.084	1.6	471488	WORD	n/a	wordpools/wordpool_categorized_EN.txt	DRYER	Appliances	4	8	[0, 0, 0]	n/a	catFR1	0	R1157C
941.634	1.6	472763	WORD	n/a	wordpools/wordpool_categorized_EN.txt	VALLEY	Landscapes	5	8	[0, 0, 0]	n/a	catFR1	0	R1157C
944.15	1.6	474021	WORD	n/a	wordpools/wordpool_categorized_EN.txt	RIVER	Landscapes	6	8	[0, 0, 0]	n/a	catFR1	0	R1157C
946.769	1.6	475331	WORD	n/a	wordpools/wordpool_categorized_EN.txt	TOASTER	Appliances	7	8	[0, 0, 0]	n/a	catFR1	0	R1157C
949.251	1.6	476571	WORD	n/a	wordpools/wordpool_categorized_EN.txt	IRON	Appliances	8	8	[0, 0, 0]	n/a	catFR1	0	R1157C
951.836	1.6	477864	WORD	n/a	wordpools/wordpool_categorized_EN.txt	FISH	OceanAnimals	9	8	[0, 0, 0]	n/a	catFR1	0	R1157C
954.419	1.6	479155	WORD	n/a	wordpools/wordpool_categorized_EN.txt	CRAB	OceanAnimals	10	8	[0, 0, 0]	n/a	catFR1	0	R1157C
957.004	1.6	480448	WORD	n/a	wordpools/wordpool_categorized_EN.txt	ISLAND	Landscapes	11	8	[0, 0, 0]	n/a	catFR1	0	R1157C
959.554	1.6	481723	WORD	n/a	wordpools/wordpool_categorized_EN.txt	HILLS	Landscapes	12	8	[0, 0, 0]	n/a	catFR1	0	R1157C
961.17	0.001	482531	DISTRACT_START	n/a	n/a	n/a	n/a	-999	8	[0, 0, 0]	n/a	catFR1	0	R1157C
961.171	0.016	482531	START	n/a	n/a	n/a	n/a	-999	8	[-999, -999, -999]	n/a	catFR1	0	R1157C
961.187	5.752	482539	PROB	5.73	n/a	n/a	n/a	-999	8	[9, 5, 8]	22.0	catFR1	0	R1157C
966.939	3.216	485415	PROB	3.186	n/a	n/a	n/a	-999	8	[2, 5, 5]	12.0	catFR1	0	R1157C
970.155	4.502	487023	PROB	4.474	n/a	n/a	n/a	-999	8	[1, 6, 1]	8.0	catFR1	0	R1157C
974.657	2.851	489274	PROB	2.828	n/a	n/a	n/a	-999	8	[3, 6, 1]	10.0	catFR1	0	R1157C
977.508	4.968	490699	PROB	4.968	n/a	n/a	n/a	-999	8	[5, 3, 5]	13.0	catFR1	0	R1157C
982.476	0.016	493183	STOP	n/a	n/a	n/a	n/a	-999	8	[-999, -999, -999]	n/a	catFR1	0	R1157C
982.492	1.167	493191	DISTRACT_END	n/a	n/a	n/a	n/a	-999	8	[0, 0, 0]	n/a	catFR1	0	R1157C
983.659	2.681	493774	REC_START	n/a	n/a	n/a	n/a	-999	8	[0, 0, 0]	n/a	catFR1	0	R1157C
986.34	0.475	495115	REC_WORD	2.681	n/a	SHRIMP	OceanAnimals	1	8	[0, 0, 0]	n/a	catFR1	0	R1157C
986.815	1.333	495352	REC_WORD	3.156	n/a	OCTOPUS	OceanAnimals	2	8	[0, 0, 0]	n/a	catFR1	0	R1157C
988.148	2.056	496019	REC_WORD	4.489	n/a	CRAB	OceanAnimals	10	8	[0, 0, 0]	n/a	catFR1	0	R1157C
990.204	23.47	497047	REC_WORD	6.545	n/a	ISLAND	Landscapes	11	8	[0, 0, 0]	n/a	catFR1	0	R1157C
1013.674	3.507	508781	REC_END	n/a	n/a	n/a	n/a	-999	8	[0, 0, 0]	n/a	catFR1	0	R1157C
1017.181	0.0	510534	TRIAL	n/a	n/a	n/a	n/a	-999	9	[0, 0, 0]	n/a	catFR1	0	R1157C
1017.181	10.0	510534	COUNTDOWN_START	n/a	n/a	n/a	n/a	-999	9	[0, 0, 0]	n/a	catFR1	0	R1157C
1027.609	0.008	515748	COUNTDOWN_END	n/a	n/a	n/a	n/a	-999	9	[0, 0, 0]	n/a	catFR1	0	R1157C
1027.617	1.6	515752	ORIENT	n/a	n/a	n/a	n/a	-999	9	[0, 0, 0]	n/a	catFR1	0	R1157C
1031.283	1.6	517585	WORD	n/a	wordpools/wordpool_categorized_EN.txt	DOLPHIN	OceanAnimals	1	9	[0, 0, 0]	n/a	catFR1	0	R1157C
1033.818	1.6	518852	WORD	n/a	wordpools/wordpool_categorized_EN.txt	LOBSTER	OceanAnimals	2	9	[0, 0, 0]	n/a	catFR1	0	R1157C
1036.318	1.6	520102	WORD	n/a	wordpools/wordpool_categorized_EN.txt	GUITAR	Instruments	3	9	[0, 0, 0]	n/a	catFR1	0	R1157C
1038.936	1.6	521411	WORD	n/a	wordpools/wordpool_categorized_EN.txt	TRUMPET	Instruments	4	9	[0, 0, 0]	n/a	catFR1	0	R1157C
1041.536	1.6	522711	WORD	n/a	wordpools/wordpool_categorized_EN.txt	SLINKY	Toys	5	9	[0, 0, 0]	n/a	catFR1	0	R1157C
1044.12	1.6	524003	WORD	n/a	wordpools/wordpool_categorized_EN.txt	BASEBALL	Toys	6	9	[0, 0, 0]	n/a	catFR1	0	R1157C
1046.621	1.6	525253	WORD	n/a	wordpools/wordpool_categorized_EN.txt	OYSTER	OceanAnimals	7	9	[0, 0, 0]	n/a	catFR1	0	R1157C
1049.121	1.6	526503	WORD	n/a	wordpools/wordpool_categorized_EN.txt	SQUID	OceanAnimals	8	9	[0, 0, 0]	n/a	catFR1	0	R1157C
1051.588	1.6	527736	WORD	n/a	wordpools/wordpool_categorized_EN.txt	BALL	Toys	9	9	[0, 0, 0]	n/a	catFR1	0	R1157C
1054.154	1.6	529019	WORD	n/a	wordpools/wordpool_categorized_EN.txt	FRISBEE	Toys	10	9	[0, 0, 0]	n/a	catFR1	0	R1157C
1056.606	1.6	530245	WORD	n/a	wordpools/wordpool_categorized_EN.txt	VIOLIN	Instruments	11	9	[0, 0, 0]	n/a	catFR1	0	R1157C
1059.006	1.6	531445	WORD	n/a	wordpools/wordpool_categorized_EN.txt	TUBA	Instruments	12	9	[0, 0, 0]	n/a	catFR1	0	R1157C
1060.623	0.001	532254	DISTRACT_START	n/a	n/a	n/a	n/a	-999	9	[0, 0, 0]	n/a	catFR1	0	R1157C
1060.624	0.016	532254	START	n/a	n/a	n/a	n/a	-999	9	[-999, -999, -999]	n/a	catFR1	0	R1157C
1060.64	5.051	532262	PROB	5.029	n/a	n/a	n/a	-999	9	[7, 8, 7]	22.0	catFR1	0	R1157C
1065.691	2.934	534788	PROB	2.898	n/a	n/a	n/a	-999	9	[1, 9, 5]	15.0	catFR1	0	R1157C
1068.625	3.783	536254	PROB	3.755	n/a	n/a	n/a	-999	9	[9, 3, 2]	14.0	catFR1	0	R1157C
1072.408	7.835	538146	PROB	7.804	n/a	n/a	n/a	-999	9	[7, 6, 7]	20.0	catFR1	0	R1157C
1080.243	3.554	542063	PROB	3.554	n/a	n/a	n/a	-999	9	[4, 4, 9]	17.0	catFR1	0	R1157C
1083.797	0.014	543840	STOP	n/a	n/a	n/a	n/a	-999	9	[-999, -999, -999]	n/a	catFR1	0	R1157C
1083.811	1.118	543847	DISTRACT_END	n/a	n/a	n/a	n/a	-999	9	[0, 0, 0]	n/a	catFR1	0	R1157C
1084.929	30.0	544406	REC_START	n/a	n/a	n/a	n/a	-999	9	[0, 0, 0]	n/a	catFR1	0	R1157C
1114.929	0.011	559405	REC_WORD_VV	30.0	n/a	<>	n/a	-999	9	[0, 0, 0]	n/a	catFR1	0	R1157C
1114.94	3.861	559410	REC_END	n/a	n/a	n/a	n/a	-999	9	[0, 0, 0]	n/a	catFR1	0	R1157C
1118.801	10.0	561341	COUNTDOWN_START	n/a	n/a	n/a	n/a	-999	10	[0, 0, 0]	n/a	catFR1	0	R1157C
1118.801	10.428	561341	TRIAL	n/a	n/a	n/a	n/a	-999	10	[0, 0, 0]	n/a	catFR1	0	R1157C
1129.229	0.006	566554	COUNTDOWN_END	n/a	n/a	n/a	n/a	-999	10	[0, 0, 0]	n/a	catFR1	0	R1157C
1129.235	1.6	566557	ORIENT	n/a	n/a	n/a	n/a	-999	10	[0, 0, 0]	n/a	catFR1	0	R1157C
1132.97	1.6	568425	WORD	n/a	wordpools/wordpool_categorized_EN.txt	ORGAN	Instruments	1	10	[0, 0, 0]	n/a	catFR1	0	R1157C
1135.487	1.6	569683	WORD	n/a	wordpools/wordpool_categorized_EN.txt	PIANO	Instruments	2	10	[0, 0, 0]	n/a	catFR1	0	R1157C
1138.054	1.6	570967	WORD	n/a	wordpools/wordpool_categorized_EN.txt	MAPLE	Trees	3	10	[0, 0, 0]	n/a	catFR1	0	R1157C
1140.655	1.6	572267	WORD	n/a	wordpools/wordpool_categorized_EN.txt	PINE	Trees	4	10	[0, 0, 0]	n/a	catFR1	0	R1157C
1143.105	1.6	573492	WORD	n/a	wordpools/wordpool_categorized_EN.txt	HALLWAY	Building	5	10	[0, 0, 0]	n/a	catFR1	0	R1157C
1145.589	1.6	574734	WORD	n/a	wordpools/wordpool_categorized_EN.txt	ROOM	Building	6	10	[0, 0, 0]	n/a	catFR1	0	R1157C
1148.205	1.6	576042	WORD	n/a	wordpools/wordpool_categorized_EN.txt	EVERGREEN	Trees	7	10	[0, 0, 0]	n/a	catFR1	0	R1157C
1150.74	1.6	577309	WORD	n/a	wordpools/wordpool_categorized_EN.txt	SPRUCE	Trees	8	10	[0, 0, 0]	n/a	catFR1	0	R1157C
1153.356	1.6	578617	WORD	n/a	wordpools/wordpool_categorized_EN.txt	CELLO	Instruments	9	10	[0, 0, 0]	n/a	catFR1	0	R1157C
1155.958	1.6	579918	WORD	n/a	wordpools/wordpool_categorized_EN.txt	FLUTE	Instruments	10	10	[0, 0, 0]	n/a	catFR1	0	R1157C
1158.491	1.6	581184	WORD	n/a	wordpools/wordpool_categorized_EN.txt	DOOR	Building	11	10	[0, 0, 0]	n/a	catFR1	0	R1157C
1160.925	1.6	582401	WORD	n/a	wordpools/wordpool_categorized_EN.txt	WALL	Building	12	10	[0, 0, 0]	n/a	catFR1	0	R1157C
1162.542	0.001	583210	DISTRACT_START	n/a	n/a	n/a	n/a	-999	10	[0, 0, 0]	n/a	catFR1	0	R1157C
1162.543	0.016	583210	START	n/a	n/a	n/a	n/a	-999	10	[-999, -999, -999]	n/a	catFR1	0	R1157C
1162.559	3.984	583218	PROB	3.95	n/a	n/a	n/a	-999	10	[6, 2, 7]	15.0	catFR1	0	R1157C
1166.543	4.401	585210	PROB	4.366	n/a	n/a	n/a	-999	10	[8, 5, 5]	18.0	catFR1	0	R1157C
1170.944	8.284	587410	PROB	8.252	n/a	n/a	n/a	-999	10	[6, 5, 6]	17.0	catFR1	0	R1157C
1179.228	5.232	591552	PROB	5.232	n/a	n/a	n/a	-999	10	[5, 8, 6]	19.0	catFR1	0	R1157C
1184.46	0.02	594168	STOP	n/a	n/a	n/a	n/a	-999	10	[-999, -999, -999]	n/a	catFR1	0	R1157C
1184.48	1.217	594178	DISTRACT_END	n/a	n/a	n/a	n/a	-999	10	[0, 0, 0]	n/a	catFR1	0	R1157C
1185.697	3.198	594786	REC_START	n/a	n/a	n/a	n/a	-999	10	[0, 0, 0]	n/a	catFR1	0	R1157C
1188.895	7.659	596385	REC_WORD	3.198	n/a	ORGAN	Instruments	1	10	[0, 0, 0]	n/a	catFR1	0	R1157C
1196.554	19.156	600215	REC_WORD_VV	10.857	n/a	<>	n/a	-999	10	[0, 0, 0]	n/a	catFR1	0	R1157C
1215.71	4.442	609792	REC_END	n/a	n/a	n/a	n/a	-999	10	[0, 0, 0]	n/a	catFR1	0	R1157C
1220.152	0.0	612013	TRIAL	n/a	n/a	n/a	n/a	-999	11	[0, 0, 0]	n/a	catFR1	0	R1157C
1220.152	10.0	612013	COUNTDOWN_START	n/a	n/a	n/a	n/a	-999	11	[0, 0, 0]	n/a	catFR1	0	R1157C
1230.58	0.008	617226	COUNTDOWN_END	n/a	n/a	n/a	n/a	-999	11	[0, 0, 0]	n/a	catFR1	0	R1157C
1230.588	1.6	617230	ORIENT	n/a	n/a	n/a	n/a	-999	11	[0, 0, 0]	n/a	catFR1	0	R1157C
1234.371	1.6	619122	WORD	n/a	wordpools/wordpool_categorized_EN.txt	SCREWDRIVER	Tools	1	11	[0, 0, 0]	n/a	catFR1	0	R1157C
1236.806	1.6	620339	WORD	n/a	wordpools/wordpool_categorized_EN.txt	SHOVEL	Tools	2	11	[0, 0, 0]	n/a	catFR1	0	R1157C
1239.222	1.6	621547	WORD	n/a	wordpools/wordpool_categorized_EN.txt	ARM	BodyParts	3	11	[0, 0, 0]	n/a	catFR1	0	R1157C
1241.707	1.6	622789	WORD	n/a	wordpools/wordpool_categorized_EN.txt	EAR	BodyParts	4	11	[0, 0, 0]	n/a	catFR1	0	R1157C
1244.24	1.6	624056	WORD	n/a	wordpools/wordpool_categorized_EN.txt	JACKET	Clothing	5	11	[0, 0, 0]	n/a	catFR1	0	R1157C
1246.875	1.6	625373	WORD	n/a	wordpools/wordpool_categorized_EN.txt	UNDERWEAR	Clothing	6	11	[0, 0, 0]	n/a	catFR1	0	R1157C
1249.408	1.6	626640	WORD	n/a	wordpools/wordpool_categorized_EN.txt	AXE	Tools	7	11	[0, 0, 0]	n/a	catFR1	0	R1157C
1251.976	1.6	627924	WORD	n/a	wordpools/wordpool_categorized_EN.txt	LEVEL	Tools	8	11	[0, 0, 0]	n/a	catFR1	0	R1157C
1254.459	1.6	629165	WORD	n/a	wordpools/wordpool_categorized_EN.txt	SHIRT	Clothing	9	11	[0, 0, 0]	n/a	catFR1	0	R1157C
1256.86	1.6	630365	WORD	n/a	wordpools/wordpool_categorized_EN.txt	SHOES	Clothing	10	11	[0, 0, 0]	n/a	catFR1	0	R1157C
1259.343	1.6	631607	WORD	n/a	wordpools/wordpool_categorized_EN.txt	HAND	BodyParts	11	11	[0, 0, 0]	n/a	catFR1	0	R1157C
1261.944	1.6	632907	WORD	n/a	wordpools/wordpool_categorized_EN.txt	KNEE	BodyParts	12	11	[0, 0, 0]	n/a	catFR1	0	R1157C
1263.561	0.001	633716	DISTRACT_START	n/a	n/a	n/a	n/a	-999	11	[0, 0, 0]	n/a	catFR1	0	R1157C
1263.562	0.016	633716	START	n/a	n/a	n/a	n/a	-999	11	[-999, -999, -999]	n/a	catFR1	0	R1157C
1263.578	4.85	633724	PROB	4.818	n/a	n/a	n/a	-999	11	[7, 3, 3]	13.0	catFR1	0	R1157C
1268.428	4.052	636149	PROB	4.024	n/a	n/a	n/a	-999	11	[3, 8, 1]	12.0	catFR1	0	R1157C
1272.48	4.65	638175	PROB	4.622	n/a	n/a	n/a	-999	11	[6, 3, 9]	18.0	catFR1	0	R1157C
1277.13	5.601	640500	PROB	5.579	n/a	n/a	n/a	-999	11	[9, 2, 9]	20.0	catFR1	0	R1157C
1282.731	6.09	643300	PROB	6.09	n/a	n/a	n/a	-999	11	[8, 5, 5]	18.0	catFR1	0	R1157C
1288.821	0.012	646345	STOP	n/a	n/a	n/a	n/a	-999	11	[-999, -999, -999]	n/a	catFR1	0	R1157C
1288.833	1.067	646351	DISTRACT_END	n/a	n/a	n/a	n/a	-999	11	[0, 0, 0]	n/a	catFR1	0	R1157C
1289.9	0.793	646884	REC_START	n/a	n/a	n/a	n/a	-999	11	[0, 0, 0]	n/a	catFR1	0	R1157C
1290.693	29.219	647281	REC_WORD	0.793	n/a	SCREWDRIVER	Tools	1	11	[0, 0, 0]	n/a	catFR1	0	R1157C
1319.912	6.728	661889	REC_END	n/a	n/a	n/a	n/a	-999	11	[0, 0, 0]	n/a	catFR1	0	R1157C
1326.64	0.0	665253	TRIAL	n/a	n/a	n/a	n/a	-999	12	[0, 0, 0]	n/a	catFR1	0	R1157C
1326.64	10.0	665253	COUNTDOWN_START	n/a	n/a	n/a	n/a	-999	12	[0, 0, 0]	n/a	catFR1	0	R1157C
1337.068	0.007	670467	COUNTDOWN_END	n/a	n/a	n/a	n/a	-999	12	[0, 0, 0]	n/a	catFR1	0	R1157C
1337.075	1.6	670470	ORIENT	n/a	n/a	n/a	n/a	-999	12	[0, 0, 0]	n/a	catFR1	0	R1157C
1341.026	1.6	672446	WORD	n/a	wordpools/wordpool_categorized_EN.txt	SKIRT	Clothing	1	12	[0, 0, 0]	n/a	catFR1	0	R1157C
1343.493	1.6	673679	WORD	n/a	wordpools/wordpool_categorized_EN.txt	JEANS	Clothing	2	12	[0, 0, 0]	n/a	catFR1	0	R1157C
1345.927	1.6	674896	WORD	n/a	wordpools/wordpool_categorized_EN.txt	CLOUD	Weather	3	12	[0, 0, 0]	n/a	catFR1	0	R1157C
1348.326	1.6	676095	WORD	n/a	wordpools/wordpool_categorized_EN.txt	HURRICANE	Weather	4	12	[0, 0, 0]	n/a	catFR1	0	R1157C
1350.811	1.6	677338	WORD	n/a	wordpools/wordpool_categorized_EN.txt	CUPCAKE	Desserts	5	12	[0, 0, 0]	n/a	catFR1	0	R1157C
1353.277	1.6	678571	WORD	n/a	wordpools/wordpool_categorized_EN.txt	MOUSSE	Desserts	6	12	[0, 0, 0]	n/a	catFR1	0	R1157C
1355.879	1.6	679872	WORD	n/a	wordpools/wordpool_categorized_EN.txt	SOCKS	Clothing	7	12	[0, 0, 0]	n/a	catFR1	0	R1157C
1358.278	1.6	681071	WORD	n/a	wordpools/wordpool_categorized_EN.txt	PANTS	Clothing	8	12	[0, 0, 0]	n/a	catFR1	0	R1157C
1360.779	1.6	682321	WORD	n/a	wordpools/wordpool_categorized_EN.txt	COBBLER	Desserts	9	12	[0, 0, 0]	n/a	catFR1	0	R1157C
1363.262	1.6	683563	WORD	n/a	wordpools/wordpool_categorized_EN.txt	COOKIE	Desserts	10	12	[0, 0, 0]	n/a	catFR1	0	R1157C
1365.697	1.6	684780	WORD	n/a	wordpools/wordpool_categorized_EN.txt	DRIZZLE	Weather	11	12	[0, 0, 0]	n/a	catFR1	0	R1157C
1368.23	1.6	686047	WORD	n/a	wordpools/wordpool_categorized_EN.txt	RAIN	Weather	12	12	[0, 0, 0]	n/a	catFR1	0	R1157C
1369.831	0.001	686847	DISTRACT_START	n/a	n/a	n/a	n/a	-999	12	[0, 0, 0]	n/a	catFR1	0	R1157C
1369.832	0.016	686848	START	n/a	n/a	n/a	n/a	-999	12	[-999, -999, -999]	n/a	catFR1	0	R1157C
1369.848	4.067	686856	PROB	4.037	n/a	n/a	n/a	-999	12	[1, 8, 1]	10.0	catFR1	0	R1157C
1373.915	4.283	688889	PROB	4.257	n/a	n/a	n/a	-999	12	[5, 1, 4]	10.0	catFR1	0	R1157C
1378.198	3.752	691030	PROB	3.727	n/a	n/a	n/a	-999	12	[3, 7, 5]	15.0	catFR1	0	R1157C
1381.95	3.884	692906	PROB	3.855	n/a	n/a	n/a	-999	12	[2, 3, 6]	11.0	catFR1	0	R1157C
1385.834	5.691	694848	PROB	5.691	n/a	n/a	n/a	-999	12	[6, 8, 5]	19.0	catFR1	0	R1157C
1391.525	0.01	697693	STOP	n/a	n/a	n/a	n/a	-999	12	[-999, -999, -999]	n/a	catFR1	0	R1157C
1391.535	1.201	697698	DISTRACT_END	n/a	n/a	n/a	n/a	-999	12	[0, 0, 0]	n/a	catFR1	0	R1157C
1392.736	1.428	698299	REC_START	n/a	n/a	n/a	n/a	-999	12	[0, 0, 0]	n/a	catFR1	0	R1157C
1394.164	0.752	699013	REC_WORD	1.428	n/a	CUPCAKE	Desserts	5	12	[0, 0, 0]	n/a	catFR1	0	R1157C
1394.916	4.05	699389	REC_WORD	2.18	n/a	COOKIE	Desserts	10	12	[0, 0, 0]	n/a	catFR1	0	R1157C
1398.966	2.43	701414	REC_WORD	6.23	n/a	DRIZZLE	Weather	11	12	[0, 0, 0]	n/a	catFR1	0	R1157C
1401.396	21.355	702629	REC_WORD	8.66	n/a	RAIN	Weather	12	12	[0, 0, 0]	n/a	catFR1	0	R1157C
1422.751	2.807	713305	REC_END	n/a	n/a	n/a	n/a	-999	12	[0, 0, 0]	n/a	catFR1	0	R1157C
1425.558	10.0	714709	COUNTDOWN_START	n/a	n/a	n/a	n/a	-999	13	[0, 0, 0]	n/a	catFR1	0	R1157C
1425.559	10.427	714709	TRIAL	n/a	n/a	n/a	n/a	-999	13	[0, 0, 0]	n/a	catFR1	0	R1157C
1435.986	0.008	719922	COUNTDOWN_END	n/a	n/a	n/a	n/a	-999	13	[0, 0, 0]	n/a	catFR1	0	R1157C
1435.994	1.6	719926	ORIENT	n/a	n/a	n/a	n/a	-999	13	[0, 0, 0]	n/a	catFR1	0	R1157C
1439.544	1.6	721701	WORD	n/a	wordpools/wordpool_categorized_EN.txt	CAKE	Desserts	1	13	[0, 0, 0]	n/a	catFR1	0	R1157C
1442.028	1.6	722943	WORD	n/a	wordpools/wordpool_categorized_EN.txt	PUDDING	Desserts	2	13	[0, 0, 0]	n/a	catFR1	0	R1157C
1444.512	1.6	724185	WORD	n/a	wordpools/wordpool_categorized_EN.txt	ATTIC	Building	3	13	[0, 0, 0]	n/a	catFR1	0	R1157C
1446.996	1.6	725427	WORD	n/a	wordpools/wordpool_categorized_EN.txt	STAIRS	Building	4	13	[0, 0, 0]	n/a	catFR1	0	R1157C
1449.546	1.6	726702	WORD	n/a	wordpools/wordpool_categorized_EN.txt	ROACH	Insects	5	13	[0, 0, 0]	n/a	catFR1	0	R1157C
1451.98	1.6	727919	WORD	n/a	wordpools/wordpool_categorized_EN.txt	SPIDER	Insects	6	13	[0, 0, 0]	n/a	catFR1	0	R1157C
1454.597	1.6	729227	WORD	n/a	wordpools/wordpool_categorized_EN.txt	PASTRY	Desserts	7	13	[0, 0, 0]	n/a	catFR1	0	R1157C
1457.18	1.6	730519	WORD	n/a	wordpools/wordpool_categorized_EN.txt	JELLO	Desserts	8	13	[0, 0, 0]	n/a	catFR1	0	R1157C
1459.665	1.6	731761	WORD	n/a	wordpools/wordpool_categorized_EN.txt	BEE	Insects	9	13	[0, 0, 0]	n/a	catFR1	0	R1157C
1462.197	1.6	733027	WORD	n/a	wordpools/wordpool_categorized_EN.txt	MOSQUITO	Insects	10	13	[0, 0, 0]	n/a	catFR1	0	R1157C
1464.699	1.6	734278	WORD	n/a	wordpools/wordpool_categorized_EN.txt	CEILING	Building	11	13	[0, 0, 0]	n/a	catFR1	0	R1157C
1467.315	1.6	735586	WORD	n/a	wordpools/wordpool_categorized_EN.txt	BATHROOM	Building	12	13	[0, 0, 0]	n/a	catFR1	0	R1157C
1468.916	0.001	736386	DISTRACT_START	n/a	n/a	n/a	n/a	-999	13	[0, 0, 0]	n/a	catFR1	0	R1157C
1468.917	0.016	736387	START	n/a	n/a	n/a	n/a	-999	13	[-999, -999, -999]	n/a	catFR1	0	R1157C
1468.933	3.651	736395	PROB	3.616	n/a	n/a	n/a	-999	13	[2, 3, 5]	10.0	catFR1	0	R1157C
1472.584	4.783	738220	PROB	4.748	n/a	n/a	n/a	-999	13	[5, 6, 4]	15.0	catFR1	0	R1157C
1477.367	4.017	740611	PROB	3.989	n/a	n/a	n/a	-999	13	[7, 1, 3]	11.0	catFR1	0	R1157C
1481.384	4.918	742620	PROB	4.884	n/a	n/a	n/a	-999	13	[5, 9, 5]	19.0	catFR1	0	R1157C
1486.302	6.399	745079	PROB	6.399	n/a	n/a	n/a	-999	13	[7, 7, 5]	19.0	catFR1	0	R1157C
1492.701	0.02	748278	STOP	n/a	n/a	n/a	n/a	-999	13	[-999, -999, -999]	n/a	catFR1	0	R1157C
1492.721	1.084	748288	DISTRACT_END	n/a	n/a	n/a	n/a	-999	13	[0, 0, 0]	n/a	catFR1	0	R1157C
1493.805	1.058	748830	REC_START	n/a	n/a	n/a	n/a	-999	13	[0, 0, 0]	n/a	catFR1	0	R1157C
1494.863	0.673	749359	REC_WORD	1.058	n/a	MOSQUITO	Insects	10	13	[0, 0, 0]	n/a	catFR1	0	R1157C
1495.536	3.398	749695	REC_WORD	1.731	n/a	BEE	Insects	9	13	[0, 0, 0]	n/a	catFR1	0	R1157C
1498.934	4.434	751394	REC_WORD	5.129	n/a	CAKE	Desserts	1	13	[0, 0, 0]	n/a	catFR1	0	R1157C
1503.368	20.448	753611	REC_WORD	9.563	n/a	PUDDING	Desserts	2	13	[0, 0, 0]	n/a	catFR1	0	R1157C
1523.816	6.378	763834	REC_END	n/a	n/a	n/a	n/a	-999	13	[0, 0, 0]	n/a	catFR1	0	R1157C
1530.194	0.0	767023	TRIAL	n/a	n/a	n/a	n/a	-999	14	[0, 0, 0]	n/a	catFR1	0	R1157C
1530.194	10.0	767023	COUNTDOWN_START	n/a	n/a	n/a	n/a	-999	14	[0, 0, 0]	n/a	catFR1	0	R1157C
1540.622	0.008	772237	COUNTDOWN_END	n/a	n/a	n/a	n/a	-999	14	[0, 0, 0]	n/a	catFR1	0	R1157C
1540.63	1.6	772241	ORIENT	n/a	n/a	n/a	n/a	-999	14	[0, 0, 0]	n/a	catFR1	0	R1157C
1544.463	1.6	774157	WORD	n/a	wordpools/wordpool_categorized_EN.txt	BLUEBIRD	Birds	1	14	[0, 0, 0]	n/a	catFR1	0	R1157C
1547.015	1.6	775433	WORD	n/a	wordpools/wordpool_categorized_EN.txt	CROW	Birds	2	14	[0, 0, 0]	n/a	catFR1	0	R1157C
1549.565	1.6	776708	WORD	n/a	wordpools/wordpool_categorized_EN.txt	TRUCK	Vehicles	3	14	[0, 0, 0]	n/a	catFR1	0	R1157C
1552.082	1.6	777966	WORD	n/a	wordpools/wordpool_categorized_EN.txt	MOTORCYCLE	Vehicles	4	14	[0, 0, 0]	n/a	catFR1	0	R1157C
1554.616	1.6	779233	WORD	n/a	wordpools/wordpool_categorized_EN.txt	LADYBUG	Insects	5	14	[0, 0, 0]	n/a	catFR1	0	R1157C
1557.249	1.6	780550	WORD	n/a	wordpools/wordpool_categorized_EN.txt	BUTTERFLY	Insects	6	14	[0, 0, 0]	n/a	catFR1	0	R1157C
1559.65	1.6	781750	WORD	n/a	wordpools/wordpool_categorized_EN.txt	BUS	Vehicles	7	14	[0, 0, 0]	n/a	catFR1	0	R1157C
1562.166	1.6	783008	WORD	n/a	wordpools/wordpool_categorized_EN.txt	SCOOTER	Vehicles	8	14	[0, 0, 0]	n/a	catFR1	0	R1157C
1564.618	1.6	784234	WORD	n/a	wordpools/wordpool_categorized_EN.txt	ROBIN	Birds	9	14	[0, 0, 0]	n/a	catFR1	0	R1157C
1567.201	1.6	785525	WORD	n/a	wordpools/wordpool_categorized_EN.txt	SEAGULL	Birds	10	14	[0, 0, 0]	n/a	catFR1	0	R1157C
1569.685	1.6	786767	WORD	n/a	wordpools/wordpool_categorized_EN.txt	GNAT	Insects	11	14	[0, 0, 0]	n/a	catFR1	0	R1157C
1572.185	1.6	788017	WORD	n/a	wordpools/wordpool_categorized_EN.txt	BEETLE	Insects	12	14	[0, 0, 0]	n/a	catFR1	0	R1157C
1573.803	0.001	788826	DISTRACT_START	n/a	n/a	n/a	n/a	-999	14	[0, 0, 0]	n/a	catFR1	0	R1157C
1573.804	0.015	788827	START	n/a	n/a	n/a	n/a	-999	14	[-999, -999, -999]	n/a	catFR1	0	R1157C
1573.819	6.517	788834	PROB	6.481	n/a	n/a	n/a	-999	14	[5, 9, 5]	19.0	catFR1	0	R1157C
1580.336	4.535	792092	PROB	4.509	n/a	n/a	n/a	-999	14	[7, 4, 5]	16.0	catFR1	0	R1157C
1584.871	5.384	794360	PROB	5.349	n/a	n/a	n/a	-999	14	[6, 1, 6]	13.0	catFR1	0	R1157C
1590.255	3.726	797052	PROB	3.726	n/a	n/a	n/a	-999	14	[8, 8, 8]	24.0	catFR1	0	R1157C
1593.981	0.009	798914	STOP	n/a	n/a	n/a	n/a	-999	14	[-999, -999, -999]	n/a	catFR1	0	R1157C
1593.99	1.217	798919	DISTRACT_END	n/a	n/a	n/a	n/a	-999	14	[0, 0, 0]	n/a	catFR1	0	R1157C
1595.207	2.212	799527	REC_START	n/a	n/a	n/a	n/a	-999	14	[0, 0, 0]	n/a	catFR1	0	R1157C
1597.419	2.496	800633	REC_WORD	2.212	n/a	LADYBUG	Insects	5	14	[0, 0, 0]	n/a	catFR1	0	R1157C
1599.915	2.866	801881	REC_WORD	4.708	n/a	MOTORCYCLE	Vehicles	4	14	[0, 0, 0]	n/a	catFR1	0	R1157C
1602.781	22.438	803314	REC_WORD	7.574	n/a	BUTTERFLY	Insects	6	14	[0, 0, 0]	n/a	catFR1	0	R1157C
1625.219	3.861	814532	REC_END	n/a	n/a	n/a	n/a	-999	14	[0, 0, 0]	n/a	catFR1	0	R1157C
1629.08	0.0	816463	TRIAL	n/a	n/a	n/a	n/a	-999	15	[0, 0, 0]	n/a	catFR1	0	R1157C
1629.08	10.0	816463	COUNTDOWN_START	n/a	n/a	n/a	n/a	-999	15	[0, 0, 0]	n/a	catFR1	0	R1157C
1639.508	0.007	821676	COUNTDOWN_END	n/a	n/a	n/a	n/a	-999	15	[0, 0, 0]	n/a	catFR1	0	R1157C
1639.515	1.6	821680	ORIENT	n/a	n/a	n/a	n/a	-999	15	[0, 0, 0]	n/a	catFR1	0	R1157C
1643.265	1.6	823555	WORD	n/a	wordpools/wordpool_categorized_EN.txt	DAFFODIL	Flowers	1	15	[0, 0, 0]	n/a	catFR1	0	R1157C
1645.633	1.6	824739	WORD	n/a	wordpools/wordpool_categorized_EN.txt	SUNFLOWER	Flowers	2	15	[0, 0, 0]	n/a	catFR1	0	R1157C
1648.199	1.6	826022	WORD	n/a	wordpools/wordpool_categorized_EN.txt	CHEESECAKE	Desserts	3	15	[0, 0, 0]	n/a	catFR1	0	R1157C
1650.734	1.6	827289	WORD	n/a	wordpools/wordpool_categorized_EN.txt	FUDGE	Desserts	4	15	[0, 0, 0]	n/a	catFR1	0	R1157C
1653.15	1.6	828497	WORD	n/a	wordpools/wordpool_categorized_EN.txt	PHONE	Electronics	5	15	[0, 0, 0]	n/a	catFR1	0	R1157C
1655.602	1.6	829723	WORD	n/a	wordpools/wordpool_categorized_EN.txt	TABLET	Electronics	6	15	[0, 0, 0]	n/a	catFR1	0	R1157C
1657.985	1.6	830914	WORD	n/a	wordpools/wordpool_categorized_EN.txt	PIE	Desserts	7	15	[0, 0, 0]	n/a	catFR1	0	R1157C
1660.536	1.6	832190	WORD	n/a	wordpools/wordpool_categorized_EN.txt	BROWNIES	Desserts	8	15	[0, 0, 0]	n/a	catFR1	0	R1157C
1663.003	1.6	833423	WORD	n/a	wordpools/wordpool_categorized_EN.txt	ORCHID	Flowers	9	15	[0, 0, 0]	n/a	catFR1	0	R1157C
1665.537	1.6	834690	WORD	n/a	wordpools/wordpool_categorized_EN.txt	TULIP	Flowers	10	15	[0, 0, 0]	n/a	catFR1	0	R1157C
1668.004	1.6	835923	WORD	n/a	wordpools/wordpool_categorized_EN.txt	MICROWAVE	Electronics	11	15	[0, 0, 0]	n/a	catFR1	0	R1157C
1670.571	1.6	837207	WORD	n/a	wordpools/wordpool_categorized_EN.txt	SCANNER	Electronics	12	15	[0, 0, 0]	n/a	catFR1	0	R1157C
1672.187	0.001	838015	DISTRACT_START	n/a	n/a	n/a	n/a	-999	15	[0, 0, 0]	n/a	catFR1	0	R1157C
1672.188	0.016	838015	START	n/a	n/a	n/a	n/a	-999	15	[-999, -999, -999]	n/a	catFR1	0	R1157C
1672.204	4.084	838023	PROB	4.048	n/a	n/a	n/a	-999	15	[2, 4, 6]	10.0	catFR1	0	R1157C
1676.288	6.819	840065	PROB	6.797	n/a	n/a	n/a	-999	15	[5, 1, 2]	8.0	catFR1	0	R1157C
1683.107	3.517	843474	PROB	3.49	n/a	n/a	n/a	-999	15	[3, 5, 8]	14.0	catFR1	0	R1157C
1686.624	6.349	845233	PROB	6.349	n/a	n/a	n/a	-999	15	[5, 4, 4]	13.0	catFR1	0	R1157C
1692.973	0.019	848407	STOP	n/a	n/a	n/a	n/a	-999	15	[-999, -999, -999]	n/a	catFR1	0	R1157C
1692.992	1.151	848417	DISTRACT_END	n/a	n/a	n/a	n/a	-999	15	[0, 0, 0]	n/a	catFR1	0	R1157C
1694.143	1.658	848992	REC_START	n/a	n/a	n/a	n/a	-999	15	[0, 0, 0]	n/a	catFR1	0	R1157C
1695.801	28.354	849821	REC_WORD	1.658	n/a	MICROWAVE	Electronics	11	15	[0, 0, 0]	n/a	catFR1	0	R1157C
1724.155	3.643	863997	REC_END	n/a	n/a	n/a	n/a	-999	15	[0, 0, 0]	n/a	catFR1	0	R1157C
1727.798	10.0	865818	COUNTDOWN_START	n/a	n/a	n/a	n/a	-999	16	[0, 0, 0]	n/a	catFR1	0	R1157C
1727.799	10.427	865819	TRIAL	n/a	n/a	n/a	n/a	-999	16	[0, 0, 0]	n/a	catFR1	0	R1157C
1738.226	0.007	871032	COUNTDOWN_END	n/a	n/a	n/a	n/a	-999	16	[0, 0, 0]	n/a	catFR1	0	R1157C
1738.233	1.6	871035	ORIENT	n/a	n/a	n/a	n/a	-999	16	[0, 0, 0]	n/a	catFR1	0	R1157C
1741.934	1.6	872886	WORD	n/a	wordpools/wordpool_categorized_EN.txt	HICKORY	Trees	1	16	[0, 0, 0]	n/a	catFR1	0	R1157C
1744.35	1.6	874094	WORD	n/a	wordpools/wordpool_categorized_EN.txt	WALNUT	Trees	2	16	[0, 0, 0]	n/a	catFR1	0	R1157C
1746.735	1.6	875286	WORD	n/a	wordpools/wordpool_categorized_EN.txt	LIME	Fruit	3	16	[0, 0, 0]	n/a	catFR1	0	R1157C
1749.285	1.6	876561	WORD	n/a	wordpools/wordpool_categorized_EN.txt	BLUEBERRY	Fruit	4	16	[0, 0, 0]	n/a	catFR1	0	R1157C
1751.786	1.6	877812	WORD	n/a	wordpools/wordpool_categorized_EN.txt	PAPER	OfficeSupplies	5	16	[0, 0, 0]	n/a	catFR1	0	R1157C
1754.252	1.6	879044	WORD	n/a	wordpools/wordpool_categorized_EN.txt	PENCIL	OfficeSupplies	6	16	[0, 0, 0]	n/a	catFR1	0	R1157C
1756.687	1.6	880262	WORD	n/a	wordpools/wordpool_categorized_EN.txt	APPLE	Fruit	7	16	[0, 0, 0]	n/a	catFR1	0	R1157C
1759.237	1.6	881537	WORD	n/a	wordpools/wordpool_categorized_EN.txt	LEMON	Fruit	8	16	[0, 0, 0]	n/a	catFR1	0	R1157C
1761.705	1.6	882771	WORD	n/a	wordpools/wordpool_categorized_EN.txt	WILLOW	Trees	9	16	[0, 0, 0]	n/a	catFR1	0	R1157C
1764.338	1.6	884087	WORD	n/a	wordpools/wordpool_categorized_EN.txt	OAK	Trees	10	16	[0, 0, 0]	n/a	catFR1	0	R1157C
1766.906	1.6	885371	WORD	n/a	wordpools/wordpool_categorized_EN.txt	TAPE	OfficeSupplies	11	16	[0, 0, 0]	n/a	catFR1	0	R1157C
1769.439	1.6	886637	WORD	n/a	wordpools/wordpool_categorized_EN.txt	STAPLER	OfficeSupplies	12	16	[0, 0, 0]	n/a	catFR1	0	R1157C
1771.056	0.002	887446	DISTRACT_START	n/a	n/a	n/a	n/a	-999	16	[0, 0, 0]	n/a	catFR1	0	R1157C
1771.058	0.015	887447	START	n/a	n/a	n/a	n/a	-999	16	[-999, -999, -999]	n/a	catFR1	0	R1157C
1771.073	3.484	887454	PROB	3.46	n/a	n/a	n/a	-999	16	[1, 2, 8]	11.0	catFR1	0	R1157C
1774.557	4.318	889196	PROB	4.288	n/a	n/a	n/a	-999	16	[5, 1, 7]	13.0	catFR1	0	R1157C
1778.875	4.366	891355	PROB	4.345	n/a	n/a	n/a	-999	16	[1, 3, 7]	11.0	catFR1	0	R1157C
1783.241	3.034	893538	PROB	3.003	n/a	n/a	n/a	-999	16	[2, 6, 4]	12.0	catFR1	0	R1157C
1786.275	3.302	895055	PROB	3.266	n/a	n/a	n/a	-999	16	[2, 1, 8]	11.0	catFR1	0	R1157C
1789.577	3.46	896706	PROB	3.46	n/a	n/a	n/a	-999	16	[2, 6, 9]	17.0	catFR1	0	R1157C
1793.037	0.007	898436	STOP	n/a	n/a	n/a	n/a	-999	16	[-999, -999, -999]	n/a	catFR1	0	R1157C
1793.044	1.117	898439	DISTRACT_END	n/a	n/a	n/a	n/a	-999	16	[0, 0, 0]	n/a	catFR1	0	R1157C
1794.161	1.319	898998	REC_START	n/a	n/a	n/a	n/a	-999	16	[0, 0, 0]	n/a	catFR1	0	R1157C
1795.48	28.693	899657	REC_WORD	1.319	n/a	HICKORY	Trees	1	16	[0, 0, 0]	n/a	catFR1	0	R1157C
1824.173	2.827	914003	REC_END	n/a	n/a	n/a	n/a	-999	16	[0, 0, 0]	n/a	catFR1	0	R1157C
1827.0	10.0	915416	COUNTDOWN_START	n/a	n/a	n/a	n/a	-999	17	[0, 0, 0]	n/a	catFR1	0	R1157C
1827.001	10.427	915416	TRIAL	n/a	n/a	n/a	n/a	-999	17	[0, 0, 0]	n/a	catFR1	0	R1157C
1837.428	0.007	920630	COUNTDOWN_END	n/a	n/a	n/a	n/a	-999	17	[0, 0, 0]	n/a	catFR1	0	R1157C
1837.435	1.6	920633	ORIENT	n/a	n/a	n/a	n/a	-999	17	[0, 0, 0]	n/a	catFR1	0	R1157C
1840.92	1.6	922375	WORD	n/a	wordpools/wordpool_categorized_EN.txt	TRAIN	Vehicles	1	17	[0, 0, 0]	n/a	catFR1	0	R1157C
1843.319	1.6	923575	WORD	n/a	wordpools/wordpool_categorized_EN.txt	CAR	Vehicles	2	17	[0, 0, 0]	n/a	catFR1	0	R1157C
1845.821	1.6	924826	WORD	n/a	wordpools/wordpool_categorized_EN.txt	HORSE	FarmAnimals	3	17	[0, 0, 0]	n/a	catFR1	0	R1157C
1848.337	1.6	926084	WORD	n/a	wordpools/wordpool_categorized_EN.txt	CHICKEN	FarmAnimals	4	17	[0, 0, 0]	n/a	catFR1	0	R1157C
1850.888	1.6	927359	WORD	n/a	wordpools/wordpool_categorized_EN.txt	DRESSER	Furniture	5	17	[0, 0, 0]	n/a	catFR1	0	R1157C
1853.304	1.6	928567	WORD	n/a	wordpools/wordpool_categorized_EN.txt	NIGHTSTAND	Furniture	6	17	[0, 0, 0]	n/a	catFR1	0	R1157C
1855.839	1.6	929834	WORD	n/a	wordpools/wordpool_categorized_EN.txt	HEN	FarmAnimals	7	17	[0, 0, 0]	n/a	catFR1	0	R1157C
1858.255	1.6	931042	WORD	n/a	wordpools/wordpool_categorized_EN.txt	LAMB	FarmAnimals	8	17	[0, 0, 0]	n/a	catFR1	0	R1157C
1860.723	1.6	932276	WORD	n/a	wordpools/wordpool_categorized_EN.txt	BIKE	Vehicles	9	17	[0, 0, 0]	n/a	catFR1	0	R1157C
1863.323	1.6	933576	WORD	n/a	wordpools/wordpool_categorized_EN.txt	JEEP	Vehicles	10	17	[0, 0, 0]	n/a	catFR1	0	R1157C
1865.724	1.6	934777	WORD	n/a	wordpools/wordpool_categorized_EN.txt	CHAIR	Furniture	11	17	[0, 0, 0]	n/a	catFR1	0	R1157C
1868.357	1.6	936093	WORD	n/a	wordpools/wordpool_categorized_EN.txt	SHELF	Furniture	12	17	[0, 0, 0]	n/a	catFR1	0	R1157C
1869.958	0.001	936893	DISTRACT_START	n/a	n/a	n/a	n/a	-999	17	[0, 0, 0]	n/a	catFR1	0	R1157C
1869.959	0.016	936894	START	n/a	n/a	n/a	n/a	-999	17	[-999, -999, -999]	n/a	catFR1	0	R1157C
1869.975	3.867	936902	PROB	3.838	n/a	n/a	n/a	-999	17	[8, 2, 5]	15.0	catFR1	0	R1157C
1873.842	3.218	938835	PROB	3.187	n/a	n/a	n/a	-999	17	[2, 5, 3]	10.0	catFR1	0	R1157C
1877.06	3.166	940444	PROB	3.136	n/a	n/a	n/a	-999	17	[1, 1, 7]	9.0	catFR1	0	R1157C
1880.226	2.901	942027	PROB	2.875	n/a	n/a	n/a	-999	17	[5, 3, 1]	9.0	catFR1	0	R1157C
1883.127	3.668	943478	PROB	3.638	n/a	n/a	n/a	-999	17	[2, 1, 1]	4.0	catFR1	0	R1157C
1886.795	4.609	945311	PROB	4.609	n/a	n/a	n/a	-999	17	[9, 3, 4]	16.0	catFR1	0	R1157C
1891.404	0.007	947616	STOP	n/a	n/a	n/a	n/a	-999	17	[-999, -999, -999]	n/a	catFR1	0	R1157C
1891.411	1.169	947619	DISTRACT_END	n/a	n/a	n/a	n/a	-999	17	[0, 0, 0]	n/a	catFR1	0	R1157C
1892.58	19.041	948204	REC_START	n/a	n/a	n/a	n/a	-999	17	[0, 0, 0]	n/a	catFR1	0	R1157C
1911.621	3.021	957724	REC_WORD	19.041	n/a	JEEP	Vehicles	10	17	[0, 0, 0]	n/a	catFR1	0	R1157C
1914.642	7.95	959234	REC_WORD	22.062	n/a	BIKE	Vehicles	9	17	[0, 0, 0]	n/a	catFR1	0	R1157C
1922.592	5.66	963209	REC_END	n/a	n/a	n/a	n/a	-999	17	[0, 0, 0]	n/a	catFR1	0	R1157C
1928.252	0.0	966038	TRIAL	n/a	n/a	n/a	n/a	-999	18	[0, 0, 0]	n/a	catFR1	0	R1157C
1928.252	10.0	966038	COUNTDOWN_START	n/a	n/a	n/a	n/a	-999	18	[0, 0, 0]	n/a	catFR1	0	R1157C
1938.68	0.008	971252	COUNTDOWN_END	n/a	n/a	n/a	n/a	-999	18	[0, 0, 0]	n/a	catFR1	0	R1157C
1938.688	1.6	971256	ORIENT	n/a	n/a	n/a	n/a	-999	18	[0, 0, 0]	n/a	catFR1	0	R1157C
1942.321	1.6	973072	WORD	n/a	wordpools/wordpool_categorized_EN.txt	BED	Furniture	1	18	[0, 0, 0]	n/a	catFR1	0	R1157C
1944.906	1.6	974365	WORD	n/a	wordpools/wordpool_categorized_EN.txt	RECLINER	Furniture	2	18	[0, 0, 0]	n/a	catFR1	0	R1157C
1947.389	1.6	975606	WORD	n/a	wordpools/wordpool_categorized_EN.txt	RADIO	Electronics	3	18	[0, 0, 0]	n/a	catFR1	0	R1157C
1949.973	1.6	976898	WORD	n/a	wordpools/wordpool_categorized_EN.txt	TELEVISION	Electronics	4	18	[0, 0, 0]	n/a	catFR1	0	R1157C
1952.423	1.6	978123	WORD	n/a	wordpools/wordpool_categorized_EN.txt	MONKEY	Zoo	5	18	[0, 0, 0]	n/a	catFR1	0	R1157C
1954.941	1.6	979382	WORD	n/a	wordpools/wordpool_categorized_EN.txt	PANDA	Zoo	6	18	[0, 0, 0]	n/a	catFR1	0	R1157C
1957.34	1.6	980581	WORD	n/a	wordpools/wordpool_categorized_EN.txt	STEREO	Electronics	7	18	[0, 0, 0]	n/a	catFR1	0	R1157C
1959.859	1.6	981841	WORD	n/a	wordpools/wordpool_categorized_EN.txt	CALCULATOR	Electronics	8	18	[0, 0, 0]	n/a	catFR1	0	R1157C
1962.258	1.6	983040	WORD	n/a	wordpools/wordpool_categorized_EN.txt	DESK	Furniture	9	18	[0, 0, 0]	n/a	catFR1	0	R1157C
1964.659	1.6	984241	WORD	n/a	wordpools/wordpool_categorized_EN.txt	TABLE	Furniture	10	18	[0, 0, 0]	n/a	catFR1	0	R1157C
1967.242	1.6	985532	WORD	n/a	wordpools/wordpool_categorized_EN.txt	GORILLA	Zoo	11	18	[0, 0, 0]	n/a	catFR1	0	R1157C
1969.61	1.6	986716	WORD	n/a	wordpools/wordpool_categorized_EN.txt	ZEBRA	Zoo	12	18	[0, 0, 0]	n/a	catFR1	0	R1157C
1971.226	0.001	987524	DISTRACT_START	n/a	n/a	n/a	n/a	-999	18	[0, 0, 0]	n/a	catFR1	0	R1157C
1971.227	0.016	987524	START	n/a	n/a	n/a	n/a	-999	18	[-999, -999, -999]	n/a	catFR1	0	R1157C
1971.243	6.652	987532	PROB	6.626	n/a	n/a	n/a	-999	18	[5, 9, 6]	20.0	catFR1	0	R1157C
1977.895	3.4	990858	PROB	3.373	n/a	n/a	n/a	-999	18	[9, 1, 5]	15.0	catFR1	0	R1157C
1981.295	3.302	992558	PROB	3.278	n/a	n/a	n/a	-999	18	[2, 5, 4]	11.0	catFR1	0	R1157C
1984.597	4.184	994209	PROB	4.152	n/a	n/a	n/a	-999	18	[5, 8, 3]	16.0	catFR1	0	R1157C
1988.781	4.407	996301	PROB	4.407	n/a	n/a	n/a	-999	18	[3, 8, 9]	20.0	catFR1	0	R1157C
1993.188	0.009	998504	STOP	n/a	n/a	n/a	n/a	-999	18	[-999, -999, -999]	n/a	catFR1	0	R1157C
1993.197	1.034	998509	DISTRACT_END	n/a	n/a	n/a	n/a	-999	18	[0, 0, 0]	n/a	catFR1	0	R1157C
1994.231	3.244	999026	REC_START	n/a	n/a	n/a	n/a	-999	18	[0, 0, 0]	n/a	catFR1	0	R1157C
1997.475	0.688	1000648	REC_WORD	3.244	n/a	GORILLA	Zoo	11	18	[0, 0, 0]	n/a	catFR1	0	R1157C
1998.163	2.104	1000992	REC_WORD	3.932	n/a	ZEBRA	Zoo	12	18	[0, 0, 0]	n/a	catFR1	0	R1157C
2000.267	23.979	1002044	REC_WORD	6.036	n/a	STEREO	Electronics	7	18	[0, 0, 0]	n/a	catFR1	0	R1157C
2024.246	3.642	1014032	REC_END	n/a	n/a	n/a	n/a	-999	18	[0, 0, 0]	n/a	catFR1	0	R1157C
2027.888	10.0	1015853	COUNTDOWN_START	n/a	n/a	n/a	n/a	-999	19	[0, 0, 0]	n/a	catFR1	0	R1157C
2027.888	10.428	1015853	TRIAL	n/a	n/a	n/a	n/a	-999	19	[0, 0, 0]	n/a	catFR1	0	R1157C
2038.316	0.006	1021067	COUNTDOWN_END	n/a	n/a	n/a	n/a	-999	19	[0, 0, 0]	n/a	catFR1	0	R1157C
2038.322	1.6	1021070	ORIENT	n/a	n/a	n/a	n/a	-999	19	[0, 0, 0]	n/a	catFR1	0	R1157C
2042.007	1.6	1022912	WORD	n/a	wordpools/wordpool_categorized_EN.txt	CEDAR	Trees	1	19	[0, 0, 0]	n/a	catFR1	0	R1157C
2044.591	1.6	1024204	WORD	n/a	wordpools/wordpool_categorized_EN.txt	BIRCH	Trees	2	19	[0, 0, 0]	n/a	catFR1	0	R1157C
2047.075	1.6	1025446	WORD	n/a	wordpools/wordpool_categorized_EN.txt	CROWBAR	Tools	3	19	[0, 0, 0]	n/a	catFR1	0	R1157C
2049.642	1.6	1026729	WORD	n/a	wordpools/wordpool_categorized_EN.txt	RATCHET	Tools	4	19	[0, 0, 0]	n/a	catFR1	0	R1157C
2052.093	1.6	1027955	WORD	n/a	wordpools/wordpool_categorized_EN.txt	LAKE	Landscapes	5	19	[0, 0, 0]	n/a	catFR1	0	R1157C
2054.51	1.6	1029163	WORD	n/a	wordpools/wordpool_categorized_EN.txt	FOREST	Landscapes	6	19	[0, 0, 0]	n/a	catFR1	0	R1157C
2056.927	1.6	1030372	WORD	n/a	wordpools/wordpool_categorized_EN.txt	ELM	Trees	7	19	[0, 0, 0]	n/a	catFR1	0	R1157C
2059.46	1.6	1031638	WORD	n/a	wordpools/wordpool_categorized_EN.txt	CYPRESS	Trees	8	19	[0, 0, 0]	n/a	catFR1	0	R1157C
2061.861	1.6	1032838	WORD	n/a	wordpools/wordpool_categorized_EN.txt	WOODS	Landscapes	9	19	[0, 0, 0]	n/a	catFR1	0	R1157C
2064.411	1.6	1034113	WORD	n/a	wordpools/wordpool_categorized_EN.txt	CREEK	Landscapes	10	19	[0, 0, 0]	n/a	catFR1	0	R1157C
2066.929	1.6	1035372	WORD	n/a	wordpools/wordpool_categorized_EN.txt	DRILL	Tools	11	19	[0, 0, 0]	n/a	catFR1	0	R1157C
2069.311	1.6	1036563	WORD	n/a	wordpools/wordpool_categorized_EN.txt	SANDER	Tools	12	19	[0, 0, 0]	n/a	catFR1	0	R1157C
2070.913	0.001	1037364	DISTRACT_START	n/a	n/a	n/a	n/a	-999	19	[0, 0, 0]	n/a	catFR1	0	R1157C
2070.914	0.015	1037365	START	n/a	n/a	n/a	n/a	-999	19	[-999, -999, -999]	n/a	catFR1	0	R1157C
2070.929	4.818	1037372	PROB	4.788	n/a	n/a	n/a	-999	19	[4, 7, 4]	15.0	catFR1	0	R1157C
2075.747	4.901	1039781	PROB	4.874	n/a	n/a	n/a	-999	19	[5, 8, 6]	19.0	catFR1	0	R1157C
2080.648	4.8	1042231	PROB	4.772	n/a	n/a	n/a	-999	19	[3, 4, 8]	15.0	catFR1	0	R1157C
2085.448	3.75	1044631	PROB	3.716	n/a	n/a	n/a	-999	19	[2, 9, 4]	15.0	catFR1	0	R1157C
2089.198	3.19	1046506	PROB	3.19	n/a	n/a	n/a	-999	19	[6, 4, 1]	11.0	catFR1	0	R1157C
2092.388	0.011	1048101	STOP	n/a	n/a	n/a	n/a	-999	19	[-999, -999, -999]	n/a	catFR1	0	R1157C
2092.399	1.135	1048106	DISTRACT_END	n/a	n/a	n/a	n/a	-999	19	[0, 0, 0]	n/a	catFR1	0	R1157C
2093.534	0.961	1048674	REC_START	n/a	n/a	n/a	n/a	-999	19	[0, 0, 0]	n/a	catFR1	0	R1157C
2094.495	5.361	1049154	REC_WORD	0.961	n/a	LAKE	Landscapes	5	19	[0, 0, 0]	n/a	catFR1	0	R1157C
2099.856	23.693	1051835	REC_WORD	6.322	n/a	CREEK	Landscapes	10	19	[0, 0, 0]	n/a	catFR1	0	R1157C
2123.549	2.257	1063680	REC_END	n/a	n/a	n/a	n/a	-999	19	[0, 0, 0]	n/a	catFR1	0	R1157C
2125.806	10.0	1064809	COUNTDOWN_START	n/a	n/a	n/a	n/a	-999	20	[0, 0, 0]	n/a	catFR1	0	R1157C
2125.807	10.427	1064809	TRIAL	n/a	n/a	n/a	n/a	-999	20	[0, 0, 0]	n/a	catFR1	0	R1157C
2136.234	0.007	1070022	COUNTDOWN_END	n/a	n/a	n/a	n/a	-999	20	[0, 0, 0]	n/a	catFR1	0	R1157C
2136.241	1.6	1070026	ORIENT	n/a	n/a	n/a	n/a	-999	20	[0, 0, 0]	n/a	catFR1	0	R1157C
2139.759	1.6	1071785	WORD	n/a	wordpools/wordpool_categorized_EN.txt	ROOSTER	FarmAnimals	1	20	[0, 0, 0]	n/a	catFR1	0	R1157C
2142.175	1.6	1072993	WORD	n/a	wordpools/wordpool_categorized_EN.txt	BULL	FarmAnimals	2	20	[0, 0, 0]	n/a	catFR1	0	R1157C
2144.76	1.6	1074285	WORD	n/a	wordpools/wordpool_categorized_EN.txt	POTATO	Vegetables	3	20	[0, 0, 0]	n/a	catFR1	0	R1157C
2147.259	1.6	1075534	WORD	n/a	wordpools/wordpool_categorized_EN.txt	SPINACH	Vegetables	4	20	[0, 0, 0]	n/a	catFR1	0	R1157C
2149.827	1.6	1076818	WORD	n/a	wordpools/wordpool_categorized_EN.txt	MIXER	Appliances	5	20	[0, 0, 0]	n/a	catFR1	0	R1157C
2152.31	1.6	1078060	WORD	n/a	wordpools/wordpool_categorized_EN.txt	BLENDER	Appliances	6	20	[0, 0, 0]	n/a	catFR1	0	R1157C
2154.762	1.6	1079286	WORD	n/a	wordpools/wordpool_categorized_EN.txt	ONION	Vegetables	7	20	[0, 0, 0]	n/a	catFR1	0	R1157C
2157.378	1.6	1080594	WORD	n/a	wordpools/wordpool_categorized_EN.txt	CABBAGE	Vegetables	8	20	[0, 0, 0]	n/a	catFR1	0	R1157C
2159.763	1.6	1081786	WORD	n/a	wordpools/wordpool_categorized_EN.txt	SHEEP	FarmAnimals	9	20	[0, 0, 0]	n/a	catFR1	0	R1157C
2162.179	1.6	1082994	WORD	n/a	wordpools/wordpool_categorized_EN.txt	CALF	FarmAnimals	10	20	[0, 0, 0]	n/a	catFR1	0	R1157C
2164.597	1.6	1084203	WORD	n/a	wordpools/wordpool_categorized_EN.txt	FREEZER	Appliances	11	20	[0, 0, 0]	n/a	catFR1	0	R1157C
2167.097	1.6	1085453	WORD	n/a	wordpools/wordpool_categorized_EN.txt	VACUUM	Appliances	12	20	[0, 0, 0]	n/a	catFR1	0	R1157C
2168.714	0.001	1086261	DISTRACT_START	n/a	n/a	n/a	n/a	-999	20	[0, 0, 0]	n/a	catFR1	0	R1157C
2168.715	0.016	1086262	START	n/a	n/a	n/a	n/a	-999	20	[-999, -999, -999]	n/a	catFR1	0	R1157C
2168.731	3.851	1086270	PROB	3.826	n/a	n/a	n/a	-999	20	[3, 6, 5]	14.0	catFR1	0	R1157C
2172.582	4.134	1088195	PROB	4.103	n/a	n/a	n/a	-999	20	[9, 6, 5]	20.0	catFR1	0	R1157C
2176.716	3.767	1090262	PROB	3.744	n/a	n/a	n/a	-999	20	[6, 8, 3]	17.0	catFR1	0	R1157C
2180.483	3.933	1092145	PROB	3.905	n/a	n/a	n/a	-999	20	[7, 4, 3]	14.0	catFR1	0	R1157C
2184.416	2.635	1094112	PROB	2.605	n/a	n/a	n/a	-999	20	[1, 2, 2]	5.0	catFR1	0	R1157C
2187.051	3.49	1095429	PROB	3.49	n/a	n/a	n/a	-999	20	[2, 9, 2]	13.0	catFR1	0	R1157C
2190.541	0.011	1097174	STOP	n/a	n/a	n/a	n/a	-999	20	[-999, -999, -999]	n/a	catFR1	0	R1157C
2190.552	1.201	1097179	DISTRACT_END	n/a	n/a	n/a	n/a	-999	20	[0, 0, 0]	n/a	catFR1	0	R1157C
2191.753	1.316	1097780	REC_START	n/a	n/a	n/a	n/a	-999	20	[0, 0, 0]	n/a	catFR1	0	R1157C
2193.069	6.694	1098438	REC_WORD	1.316	n/a	ROOSTER	FarmAnimals	1	20	[0, 0, 0]	n/a	catFR1	0	R1157C
2199.763	22.002	1101785	REC_WORD	8.01	n/a	CALF	FarmAnimals	10	20	[0, 0, 0]	n/a	catFR1	0	R1157C
2221.765	2.777	1112785	REC_END	n/a	n/a	n/a	n/a	-999	20	[0, 0, 0]	n/a	catFR1	0	R1157C
2224.542	0.0	1114173	TRIAL	n/a	n/a	n/a	n/a	-999	21	[0, 0, 0]	n/a	catFR1	0	R1157C
2224.542	10.0	1114173	COUNTDOWN_START	n/a	n/a	n/a	n/a	-999	21	[0, 0, 0]	n/a	catFR1	0	R1157C
2234.97	0.007	1119387	COUNTDOWN_END	n/a	n/a	n/a	n/a	-999	21	[0, 0, 0]	n/a	catFR1	0	R1157C
2234.977	1.6	1119390	ORIENT	n/a	n/a	n/a	n/a	-999	21	[0, 0, 0]	n/a	catFR1	0	R1157C
2238.778	1.6	1121291	WORD	n/a	wordpools/wordpool_categorized_EN.txt	HAWK	Birds	1	21	[0, 0, 0]	n/a	catFR1	0	R1157C
2241.21	1.6	1122507	WORD	n/a	wordpools/wordpool_categorized_EN.txt	SPARROW	Birds	2	21	[0, 0, 0]	n/a	catFR1	0	R1157C
2243.812	1.6	1123808	WORD	n/a	wordpools/wordpool_categorized_EN.txt	COUCH	Furniture	3	21	[0, 0, 0]	n/a	catFR1	0	R1157C
2246.361	1.6	1125082	WORD	n/a	wordpools/wordpool_categorized_EN.txt	CABINET	Furniture	4	21	[0, 0, 0]	n/a	catFR1	0	R1157C
2248.929	1.6	1126366	WORD	n/a	wordpools/wordpool_categorized_EN.txt	SAW	Tools	5	21	[0, 0, 0]	n/a	catFR1	0	R1157C
2251.379	1.6	1127591	WORD	n/a	wordpools/wordpool_categorized_EN.txt	WRENCH	Tools	6	21	[0, 0, 0]	n/a	catFR1	0	R1157C
2253.847	1.6	1128825	WORD	n/a	wordpools/wordpool_categorized_EN.txt	FINCH	Birds	7	21	[0, 0, 0]	n/a	catFR1	0	R1157C
2256.363	1.6	1130083	WORD	n/a	wordpools/wordpool_categorized_EN.txt	GOOSE	Birds	8	21	[0, 0, 0]	n/a	catFR1	0	R1157C
2258.931	1.6	1131367	WORD	n/a	wordpools/wordpool_categorized_EN.txt	HAMMER	Tools	9	21	[0, 0, 0]	n/a	catFR1	0	R1157C
2261.331	1.6	1132567	WORD	n/a	wordpools/wordpool_categorized_EN.txt	PLIERS	Tools	10	21	[0, 0, 0]	n/a	catFR1	0	R1157C
2263.949	1.6	1133875	WORD	n/a	wordpools/wordpool_categorized_EN.txt	SOFA	Furniture	11	21	[0, 0, 0]	n/a	catFR1	0	R1157C
2266.465	1.6	1135133	WORD	n/a	wordpools/wordpool_categorized_EN.txt	BOOKCASE	Furniture	12	21	[0, 0, 0]	n/a	catFR1	0	R1157C
2268.066	0.001	1135934	DISTRACT_START	n/a	n/a	n/a	n/a	-999	21	[0, 0, 0]	n/a	catFR1	0	R1157C
2268.067	0.016	1135934	START	n/a	n/a	n/a	n/a	-999	21	[-999, -999, -999]	n/a	catFR1	0	R1157C
2268.083	6.25	1135942	PROB	6.217	n/a	n/a	n/a	-999	21	[2, 2, 9]	13.0	catFR1	0	R1157C
2274.333	4.051	1139067	PROB	4.023	n/a	n/a	n/a	-999	21	[5, 5, 6]	16.0	catFR1	0	R1157C
2278.384	3.568	1141092	PROB	3.541	n/a	n/a	n/a	-999	21	[5, 3, 5]	13.0	catFR1	0	R1157C
2281.952	4.718	1142876	PROB	4.693	n/a	n/a	n/a	-999	21	[8, 3, 5]	16.0	catFR1	0	R1157C
2286.67	4.59	1145235	PROB	4.59	n/a	n/a	n/a	-999	21	[2, 5, 2]	9.0	catFR1	0	R1157C
2291.26	0.01	1147530	STOP	n/a	n/a	n/a	n/a	-999	21	[-999, -999, -999]	n/a	catFR1	0	R1157C
2291.27	1.218	1147535	DISTRACT_END	n/a	n/a	n/a	n/a	-999	21	[0, 0, 0]	n/a	catFR1	0	R1157C
2292.488	1.632	1148144	REC_START	n/a	n/a	n/a	n/a	-999	21	[0, 0, 0]	n/a	catFR1	0	R1157C
2294.12	28.384	1148960	REC_WORD	1.632	n/a	HAWK	Birds	1	21	[0, 0, 0]	n/a	catFR1	0	R1157C
2322.504	3.54	1163151	REC_END	n/a	n/a	n/a	n/a	-999	21	[0, 0, 0]	n/a	catFR1	0	R1157C
2326.044	0.0	1164921	TRIAL	n/a	n/a	n/a	n/a	-999	22	[0, 0, 0]	n/a	catFR1	0	R1157C
2326.044	10.0	1164921	COUNTDOWN_START	n/a	n/a	n/a	n/a	-999	22	[0, 0, 0]	n/a	catFR1	0	R1157C
2336.472	0.007	1170134	COUNTDOWN_END	n/a	n/a	n/a	n/a	-999	22	[0, 0, 0]	n/a	catFR1	0	R1157C
2336.479	1.6	1170138	ORIENT	n/a	n/a	n/a	n/a	-999	22	[0, 0, 0]	n/a	catFR1	0	R1157C
2340.246	1.6	1172021	WORD	n/a	wordpools/wordpool_categorized_EN.txt	TIGER	Zoo	1	22	[0, 0, 0]	n/a	catFR1	0	R1157C
2342.864	1.6	1173330	WORD	n/a	wordpools/wordpool_categorized_EN.txt	GIRAFFE	Zoo	2	22	[0, 0, 0]	n/a	catFR1	0	R1157C
2345.447	1.6	1174622	WORD	n/a	wordpools/wordpool_categorized_EN.txt	STREAM	Landscapes	3	22	[0, 0, 0]	n/a	catFR1	0	R1157C
2347.865	1.6	1175831	WORD	n/a	wordpools/wordpool_categorized_EN.txt	MOUNTAIN	Landscapes	4	22	[0, 0, 0]	n/a	catFR1	0	R1157C
2350.331	1.6	1177064	WORD	n/a	wordpools/wordpool_categorized_EN.txt	ORANGE	Fruit	5	22	[0, 0, 0]	n/a	catFR1	0	R1157C
2352.716	1.6	1178256	WORD	n/a	wordpools/wordpool_categorized_EN.txt	STRAWBERRY	Fruit	6	22	[0, 0, 0]	n/a	catFR1	0	R1157C
2355.215	1.6	1179505	WORD	n/a	wordpools/wordpool_categorized_EN.txt	BEACH	Landscapes	7	22	[0, 0, 0]	n/a	catFR1	0	R1157C
2357.833	1.6	1180814	WORD	n/a	wordpools/wordpool_categorized_EN.txt	OCEAN	Landscapes	8	22	[0, 0, 0]	n/a	catFR1	0	R1157C
2360.316	1.6	1182056	WORD	n/a	wordpools/wordpool_categorized_EN.txt	LION	Zoo	9	22	[0, 0, 0]	n/a	catFR1	0	R1157C
2362.868	1.6	1183332	WORD	n/a	wordpools/wordpool_categorized_EN.txt	CHEETAH	Zoo	10	22	[0, 0, 0]	n/a	catFR1	0	R1157C
2365.4	1.6	1184597	WORD	n/a	wordpools/wordpool_categorized_EN.txt	GRAPE	Fruit	11	22	[0, 0, 0]	n/a	catFR1	0	R1157C
2367.868	1.6	1185831	WORD	n/a	wordpools/wordpool_categorized_EN.txt	PEACH	Fruit	12	22	[0, 0, 0]	n/a	catFR1	0	R1157C
2369.485	0.002	1186640	DISTRACT_START	n/a	n/a	n/a	n/a	-999	22	[0, 0, 0]	n/a	catFR1	0	R1157C
2369.487	0.015	1186641	START	n/a	n/a	n/a	n/a	-999	22	[-999, -999, -999]	n/a	catFR1	0	R1157C
2369.502	5.051	1186648	PROB	5.015	n/a	n/a	n/a	-999	22	[4, 4, 9]	17.0	catFR1	0	R1157C
2374.553	3.401	1189174	PROB	3.38	n/a	n/a	n/a	-999	22	[8, 1, 4]	13.0	catFR1	0	R1157C
2377.954	3.7	1190874	PROB	3.675	n/a	n/a	n/a	-999	22	[8, 9, 1]	18.0	catFR1	0	R1157C
2381.654	4.051	1192724	PROB	4.015	n/a	n/a	n/a	-999	22	[7, 8, 3]	18.0	catFR1	0	R1157C
2385.705	3.6	1194749	PROB	3.579	n/a	n/a	n/a	-999	22	[2, 3, 5]	10.0	catFR1	0	R1157C
2389.305	4.412	1196549	PROB	4.412	n/a	n/a	n/a	-999	22	[7, 1, 9]	17.0	catFR1	0	R1157C
2393.717	0.006	1198755	STOP	n/a	n/a	n/a	n/a	-999	22	[-999, -999, -999]	n/a	catFR1	0	R1157C
2393.723	1.118	1198758	DISTRACT_END	n/a	n/a	n/a	n/a	-999	22	[0, 0, 0]	n/a	catFR1	0	R1157C
2394.841	1.567	1199317	REC_START	n/a	n/a	n/a	n/a	-999	22	[0, 0, 0]	n/a	catFR1	0	R1157C
2396.408	0.452	1200100	REC_WORD	1.567	n/a	TIGER	Zoo	1	22	[0, 0, 0]	n/a	catFR1	0	R1157C
2396.86	0.454	1200326	REC_WORD	2.019	n/a	LION	Zoo	9	22	[0, 0, 0]	n/a	catFR1	0	R1157C
2397.314	4.984	1200553	REC_WORD	2.473	n/a	CHEETAH	Zoo	10	22	[0, 0, 0]	n/a	catFR1	0	R1157C
2402.298	4.086	1203045	REC_WORD	7.457	n/a	ORANGE	Fruit	5	22	[0, 0, 0]	n/a	catFR1	0	R1157C
2406.384	3.481	1205088	REC_WORD	11.543	n/a	GRAPE	Fruit	11	22	[0, 0, 0]	n/a	catFR1	0	R1157C
2409.865	2.118	1206828	REC_WORD	15.024	n/a	BEACH	Landscapes	7	22	[0, 0, 0]	n/a	catFR1	0	R1157C
2411.983	12.869	1207887	REC_WORD	17.142	n/a	OCEAN	Landscapes	8	22	[0, 0, 0]	n/a	catFR1	0	R1157C
2424.852	4.828	1214321	REC_END	n/a	n/a	n/a	n/a	-999	22	[0, 0, 0]	n/a	catFR1	0	R1157C
2429.68	0.0	1216735	TRIAL	n/a	n/a	n/a	n/a	-999	23	[0, 0, 0]	n/a	catFR1	0	R1157C
2429.68	10.0	1216735	COUNTDOWN_START	n/a	n/a	n/a	n/a	-999	23	[0, 0, 0]	n/a	catFR1	0	R1157C
2440.108	0.007	1221949	COUNTDOWN_END	n/a	n/a	n/a	n/a	-999	23	[0, 0, 0]	n/a	catFR1	0	R1157C
2440.115	1.6	1221952	ORIENT	n/a	n/a	n/a	n/a	-999	23	[0, 0, 0]	n/a	catFR1	0	R1157C
2443.833	1.6	1223811	WORD	n/a	wordpools/wordpool_categorized_EN.txt	ELBOW	BodyParts	1	23	[0, 0, 0]	n/a	catFR1	0	R1157C
2446.265	1.6	1225027	WORD	n/a	wordpools/wordpool_categorized_EN.txt	LEG	BodyParts	2	23	[0, 0, 0]	n/a	catFR1	0	R1157C
2448.85	1.6	1226320	WORD	n/a	wordpools/wordpool_categorized_EN.txt	ELEPHANT	Zoo	3	23	[0, 0, 0]	n/a	catFR1	0	R1157C
2451.283	1.6	1227536	WORD	n/a	wordpools/wordpool_categorized_EN.txt	BEAR	Zoo	4	23	[0, 0, 0]	n/a	catFR1	0	R1157C
2453.785	1.6	1228787	WORD	n/a	wordpools/wordpool_categorized_EN.txt	WHISK	KitchenTools	5	23	[0, 0, 0]	n/a	catFR1	0	R1157C
2456.217	1.6	1230003	WORD	n/a	wordpools/wordpool_categorized_EN.txt	GRATER	KitchenTools	6	23	[0, 0, 0]	n/a	catFR1	0	R1157C
2458.752	1.6	1231270	WORD	n/a	wordpools/wordpool_categorized_EN.txt	NOSE	BodyParts	7	23	[0, 0, 0]	n/a	catFR1	0	R1157C
2461.368	1.6	1232578	WORD	n/a	wordpools/wordpool_categorized_EN.txt	TOE	BodyParts	8	23	[0, 0, 0]	n/a	catFR1	0	R1157C
2463.903	1.6	1233846	WORD	n/a	wordpools/wordpool_categorized_EN.txt	SPATULA	KitchenTools	9	23	[0, 0, 0]	n/a	catFR1	0	R1157C
2466.319	1.6	1235054	WORD	n/a	wordpools/wordpool_categorized_EN.txt	FORK	KitchenTools	10	23	[0, 0, 0]	n/a	catFR1	0	R1157C
2468.904	1.6	1236346	WORD	n/a	wordpools/wordpool_categorized_EN.txt	CHIMPANZEE	Zoo	11	23	[0, 0, 0]	n/a	catFR1	0	R1157C
2471.42	1.6	1237604	WORD	n/a	wordpools/wordpool_categorized_EN.txt	ORANGUTAN	Zoo	12	23	[0, 0, 0]	n/a	catFR1	0	R1157C
2473.021	0.001	1238404	DISTRACT_START	n/a	n/a	n/a	n/a	-999	23	[0, 0, 0]	n/a	catFR1	0	R1157C
2473.022	0.016	1238405	START	n/a	n/a	n/a	n/a	-999	23	[-999, -999, -999]	n/a	catFR1	0	R1157C
2473.038	4.934	1238413	PROB	4.911	n/a	n/a	n/a	-999	23	[3, 8, 1]	12.0	catFR1	0	R1157C
2477.972	2.217	1240880	PROB	2.192	n/a	n/a	n/a	-999	23	[1, 1, 1]	3.0	catFR1	0	R1157C
2480.189	3.684	1241988	PROB	3.648	n/a	n/a	n/a	-999	23	[2, 9, 2]	13.0	catFR1	0	R1157C
2483.873	3.968	1243830	PROB	3.932	n/a	n/a	n/a	-999	23	[7, 5, 2]	14.0	catFR1	0	R1157C
2487.841	4.45	1245814	PROB	4.427	n/a	n/a	n/a	-999	23	[7, 6, 3]	16.0	catFR1	0	R1157C
2492.291	4.25	1248039	PROB	4.25	n/a	n/a	n/a	-999	23	[3, 3, 9]	15.0	catFR1	0	R1157C
2496.541	0.018	1250164	STOP	n/a	n/a	n/a	n/a	-999	23	[-999, -999, -999]	n/a	catFR1	0	R1157C
2496.559	1.068	1250173	DISTRACT_END	n/a	n/a	n/a	n/a	-999	23	[0, 0, 0]	n/a	catFR1	0	R1157C
2497.627	1.019	1250706	REC_START	n/a	n/a	n/a	n/a	-999	23	[0, 0, 0]	n/a	catFR1	0	R1157C
2498.646	1.996	1251216	REC_WORD	1.019	n/a	CHIMPANZEE	Zoo	11	23	[0, 0, 0]	n/a	catFR1	0	R1157C
2500.642	0.877	1252214	REC_WORD	3.015	n/a	SPATULA	KitchenTools	9	23	[0, 0, 0]	n/a	catFR1	0	R1157C
2501.519	1.004	1252652	REC_WORD	3.892	n/a	FORK	KitchenTools	10	23	[0, 0, 0]	n/a	catFR1	0	R1157C
2502.523	3.375	1253154	REC_WORD	4.896	n/a	WHISK	KitchenTools	5	23	[0, 0, 0]	n/a	catFR1	0	R1157C
2505.898	21.741	1254842	REC_WORD	8.271	n/a	ORANGUTAN	Zoo	12	23	[0, 0, 0]	n/a	catFR1	0	R1157C
2527.639	2.243	1265711	REC_END	n/a	n/a	n/a	n/a	-999	23	[0, 0, 0]	n/a	catFR1	0	R1157C
2529.882	10.0	1266833	COUNTDOWN_START	n/a	n/a	n/a	n/a	-999	24	[0, 0, 0]	n/a	catFR1	0	R1157C
2529.883	10.427	1266833	TRIAL	n/a	n/a	n/a	n/a	-999	24	[0, 0, 0]	n/a	catFR1	0	R1157C
2540.31	0.007	1272047	COUNTDOWN_END	n/a	n/a	n/a	n/a	-999	24	[0, 0, 0]	n/a	catFR1	0	R1157C
2540.317	1.6	1272050	ORIENT	n/a	n/a	n/a	n/a	-999	24	[0, 0, 0]	n/a	catFR1	0	R1157C
2544.118	1.6	1273950	WORD	n/a	wordpools/wordpool_categorized_EN.txt	CIDER	Beverages	1	24	[0, 0, 0]	n/a	catFR1	0	R1157C
2546.535	1.6	1275159	WORD	n/a	wordpools/wordpool_categorized_EN.txt	MILK	Beverages	2	24	[0, 0, 0]	n/a	catFR1	0	R1157C
2549.019	1.6	1276401	WORD	n/a	wordpools/wordpool_categorized_EN.txt	PEELER	KitchenTools	3	24	[0, 0, 0]	n/a	catFR1	0	R1157C
2551.52	1.6	1277651	WORD	n/a	wordpools/wordpool_categorized_EN.txt	STRAINER	KitchenTools	4	24	[0, 0, 0]	n/a	catFR1	0	R1157C
2554.037	1.6	1278910	WORD	n/a	wordpools/wordpool_categorized_EN.txt	GLUE	OfficeSupplies	5	24	[0, 0, 0]	n/a	catFR1	0	R1157C
2556.487	1.6	1280134	WORD	n/a	wordpools/wordpool_categorized_EN.txt	NOTEBOOK	OfficeSupplies	6	24	[0, 0, 0]	n/a	catFR1	0	R1157C
2558.921	1.6	1281351	WORD	n/a	wordpools/wordpool_categorized_EN.txt	LEMONADE	Beverages	7	24	[0, 0, 0]	n/a	catFR1	0	R1157C
2561.404	1.6	1282593	WORD	n/a	wordpools/wordpool_categorized_EN.txt	WATER	Beverages	8	24	[0, 0, 0]	n/a	catFR1	0	R1157C
2564.005	1.6	1283893	WORD	n/a	wordpools/wordpool_categorized_EN.txt	PEN	OfficeSupplies	9	24	[0, 0, 0]	n/a	catFR1	0	R1157C
2566.539	1.6	1285160	WORD	n/a	wordpools/wordpool_categorized_EN.txt	ERASER	OfficeSupplies	10	24	[0, 0, 0]	n/a	catFR1	0	R1157C
2569.04	1.6	1286411	WORD	n/a	wordpools/wordpool_categorized_EN.txt	COLANDER	KitchenTools	11	24	[0, 0, 0]	n/a	catFR1	0	R1157C
2571.456	1.6	1287618	WORD	n/a	wordpools/wordpool_categorized_EN.txt	TONGS	KitchenTools	12	24	[0, 0, 0]	n/a	catFR1	0	R1157C
2573.074	0.001	1288427	DISTRACT_START	n/a	n/a	n/a	n/a	-999	24	[0, 0, 0]	n/a	catFR1	0	R1157C
2573.075	0.015	1288428	START	n/a	n/a	n/a	n/a	-999	24	[-999, -999, -999]	n/a	catFR1	0	R1157C
2573.09	8.251	1288435	PROB	8.218	n/a	n/a	n/a	-999	24	[6, 5, 7]	18.0	catFR1	0	R1157C
2581.341	4.951	1292561	PROB	4.919	n/a	n/a	n/a	-999	24	[6, 5, 2]	13.0	catFR1	0	R1157C
2586.292	4.184	1295036	PROB	4.16	n/a	n/a	n/a	-999	24	[7, 5, 2]	14.0	catFR1	0	R1157C
2590.476	4.033	1297128	PROB	4.033	n/a	n/a	n/a	-999	24	[2, 3, 2]	7.0	catFR1	0	R1157C
2594.509	0.019	1299144	STOP	n/a	n/a	n/a	n/a	-999	24	[-999, -999, -999]	n/a	catFR1	0	R1157C
2594.528	1.167	1299154	DISTRACT_END	n/a	n/a	n/a	n/a	-999	24	[0, 0, 0]	n/a	catFR1	0	R1157C
2595.695	0.909	1299737	REC_START	n/a	n/a	n/a	n/a	-999	24	[0, 0, 0]	n/a	catFR1	0	R1157C
2596.604	0.763	1300192	REC_WORD	0.909	n/a	CIDER	Beverages	1	24	[0, 0, 0]	n/a	catFR1	0	R1157C
2597.367	13.807	1300573	REC_WORD	1.672	n/a	MILK	Beverages	2	24	[0, 0, 0]	n/a	catFR1	0	R1157C
2611.174	5.11	1307476	REC_WORD	15.479	n/a	WATER	Beverages	8	24	[0, 0, 0]	n/a	catFR1	0	R1157C
2616.284	0.622	1310031	REC_WORD	20.589	n/a	ERASER	OfficeSupplies	10	24	[0, 0, 0]	n/a	catFR1	0	R1157C
2616.906	3.655	1310342	REC_WORD	21.211	n/a	PEN	OfficeSupplies	9	24	[0, 0, 0]	n/a	catFR1	0	R1157C
2620.561	5.145	1312169	REC_WORD	24.866	n/a	NOTEBOOK	OfficeSupplies	6	24	[0, 0, 0]	n/a	catFR1	0	R1157C
2625.706	1.911	1314742	REC_END	n/a	n/a	n/a	n/a	-999	24	[0, 0, 0]	n/a	catFR1	0	R1157C
2627.617	0.0	1315697	TRIAL	n/a	n/a	n/a	n/a	-999	25	[0, 0, 0]	n/a	catFR1	0	R1157C
2627.617	10.0	1315697	COUNTDOWN_START	n/a	n/a	n/a	n/a	-999	25	[0, 0, 0]	n/a	catFR1	0	R1157C
2638.045	0.008	1320911	COUNTDOWN_END	n/a	n/a	n/a	n/a	-999	25	[0, 0, 0]	n/a	catFR1	0	R1157C
2638.053	1.6	1320915	ORIENT	n/a	n/a	n/a	n/a	-999	25	[0, 0, 0]	n/a	catFR1	0	R1157C
2641.703	1.6	1322740	WORD	n/a	wordpools/wordpool_categorized_EN.txt	BANANA	Fruit	1	25	[0, 0, 0]	n/a	catFR1	0	R1157C
2644.203	1.6	1323989	WORD	n/a	wordpools/wordpool_categorized_EN.txt	CHERRY	Fruit	2	25	[0, 0, 0]	n/a	catFR1	0	R1157C
2646.587	1.6	1325181	WORD	n/a	wordpools/wordpool_categorized_EN.txt	FLY	Insects	3	25	[0, 0, 0]	n/a	catFR1	0	R1157C
2649.071	1.6	1326423	WORD	n/a	wordpools/wordpool_categorized_EN.txt	ANT	Insects	4	25	[0, 0, 0]	n/a	catFR1	0	R1157C
2651.638	1.6	1327707	WORD	n/a	wordpools/wordpool_categorized_EN.txt	PEAS	Vegetables	5	25	[0, 0, 0]	n/a	catFR1	0	R1157C
2654.022	1.6	1328899	WORD	n/a	wordpools/wordpool_categorized_EN.txt	CUCUMBER	Vegetables	6	25	[0, 0, 0]	n/a	catFR1	0	R1157C
2656.438	1.6	1330107	WORD	n/a	wordpools/wordpool_categorized_EN.txt	CRICKET	Insects	7	25	[0, 0, 0]	n/a	catFR1	0	R1157C
2658.823	1.6	1331299	WORD	n/a	wordpools/wordpool_categorized_EN.txt	MOTH	Insects	8	25	[0, 0, 0]	n/a	catFR1	0	R1157C
2661.206	1.6	1332490	WORD	n/a	wordpools/wordpool_categorized_EN.txt	PEAR	Fruit	9	25	[0, 0, 0]	n/a	catFR1	0	R1157C
2663.641	1.6	1333708	WORD	n/a	wordpools/wordpool_categorized_EN.txt	PLUM	Fruit	10	25	[0, 0, 0]	n/a	catFR1	0	R1157C
2666.257	1.6	1335016	WORD	n/a	wordpools/wordpool_categorized_EN.txt	CELERY	Vegetables	11	25	[0, 0, 0]	n/a	catFR1	0	R1157C
2668.875	1.6	1336325	WORD	n/a	wordpools/wordpool_categorized_EN.txt	LETTUCE	Vegetables	12	25	[0, 0, 0]	n/a	catFR1	0	R1157C
2670.492	0.001	1337133	DISTRACT_START	n/a	n/a	n/a	n/a	-999	25	[0, 0, 0]	n/a	catFR1	0	R1157C
2670.493	0.016	1337134	START	n/a	n/a	n/a	n/a	-999	25	[-999, -999, -999]	n/a	catFR1	0	R1157C
2670.509	3.1	1337142	PROB	3.072	n/a	n/a	n/a	-999	25	[1, 8, 3]	12.0	catFR1	0	R1157C
2673.609	3.7	1338691	PROB	3.667	n/a	n/a	n/a	-999	25	[3, 1, 1]	5.0	catFR1	0	R1157C
2677.309	4.218	1340541	PROB	4.184	n/a	n/a	n/a	-999	25	[5, 2, 6]	13.0	catFR1	0	R1157C
2681.527	2.75	1342650	PROB	2.717	n/a	n/a	n/a	-999	25	[2, 1, 1]	4.0	catFR1	0	R1157C
2684.277	3.668	1344025	PROB	3.648	n/a	n/a	n/a	-999	25	[1, 2, 3]	6.0	catFR1	0	R1157C
2687.945	3.98	1345859	PROB	3.98	n/a	n/a	n/a	-999	25	[8, 1, 4]	13.0	catFR1	0	R1157C
2691.925	0.004	1347849	STOP	n/a	n/a	n/a	n/a	-999	25	[-999, -999, -999]	n/a	catFR1	0	R1157C
2691.929	1.217	1347851	DISTRACT_END	n/a	n/a	n/a	n/a	-999	25	[0, 0, 0]	n/a	catFR1	0	R1157C
2693.146	2.997	1348459	REC_START	n/a	n/a	n/a	n/a	-999	25	[0, 0, 0]	n/a	catFR1	0	R1157C
2696.143	0.323	1349958	REC_WORD	2.997	n/a	ANT	Insects	4	25	[0, 0, 0]	n/a	catFR1	0	R1157C
2696.466	26.691	1350119	REC_WORD	3.32	n/a	FLY	Insects	3	25	[0, 0, 0]	n/a	catFR1	0	R1157C
2723.157	50.321	1363464	REC_END	n/a	n/a	n/a	n/a	-999	25	[0, 0, 0]	n/a	catFR1	0	R1157C
2773.478	0.0	1388623	SESS_END	n/a	n/a	n/a	n/a	-999	25	[0, 0, 0]	n/a	catFR1	0	R1157C
