onset	duration	sample	trial_type	response_time	stim_file	item_name	category	serialpos	list	test	answer	experiment	session	subject
0.0	28.395	40905	SESS_START	n/a	n/a	n/a	n/a	-999	-999	[0, 0, 0]	n/a	catFR1	0	R1026D
28.395	10.0	86334	COUNTDOWN_START	n/a	n/a	n/a	n/a	-999	-999	[0, 0, 0]	n/a	catFR1	0	R1026D
38.823	3.424	103018	COUNTDOWN_END	n/a	n/a	n/a	n/a	-999	-999	[0, 0, 0]	n/a	catFR1	0	R1026D
42.247	1.6	108496	PRACTICE_WORD	n/a	n/a	WATCH	n/a	-999	-999	[0, 0, 0]	n/a	catFR1	0	R1026D
44.632	1.6	112312	PRACTICE_WORD	n/a	n/a	CAMEL	n/a	-999	-999	[0, 0, 0]	n/a	catFR1	0	R1026D
47.215	1.6	116445	PRACTICE_WORD	n/a	n/a	RHINO	n/a	-999	-999	[0, 0, 0]	n/a	catFR1	0	R1026D
49.799	1.6	120579	PRACTICE_WORD	n/a	n/a	IRON	n/a	-999	-999	[0, 0, 0]	n/a	catFR1	0	R1026D
52.266	1.6	124526	PRACTICE_WORD	n/a	n/a	FLOOD	n/a	-999	-999	[0, 0, 0]	n/a	catFR1	0	R1026D
54.717	1.6	128447	PRACTICE_WORD	n/a	n/a	RING	n/a	-999	-999	[0, 0, 0]	n/a	catFR1	0	R1026D
57.284	1.6	132554	PRACTICE_WORD	n/a	n/a	COTTON	n/a	-999	-999	[0, 0, 0]	n/a	catFR1	0	R1026D
59.734	1.6	136474	PRACTICE_WORD	n/a	n/a	WAGON	n/a	-999	-999	[0, 0, 0]	n/a	catFR1	0	R1026D
62.268	1.6	140528	PRACTICE_WORD	n/a	n/a	TONGUE	n/a	-999	-999	[0, 0, 0]	n/a	catFR1	0	R1026D
64.735	1.6	144475	PRACTICE_WORD	n/a	n/a	CHEST	n/a	-999	-999	[0, 0, 0]	n/a	catFR1	0	R1026D
67.202	1.6	148422	PRACTICE_WORD	n/a	n/a	ATTIC	n/a	-999	-999	[0, 0, 0]	n/a	catFR1	0	R1026D
69.636	1.6	152317	PRACTICE_WORD	n/a	n/a	BEAM	n/a	-999	-999	[0, 0, 0]	n/a	catFR1	0	R1026D
71.253	0.0	154904	PRACTICE_DISTRACT_START	n/a	n/a	n/a	n/a	-999	-999	[0, 0, 0]	n/a	catFR1	0	R1026D
71.253	0.017	154904	START	n/a	n/a	n/a	n/a	-999	-1	[-999, -999, -999]	n/a	catFR1	0	R1026D
71.27	7.584	154931	PROB	7.555	n/a	n/a	n/a	-999	-1	[4, 1, 6]	11.0	catFR1	0	R1026D
78.854	8.768	167065	PROB	8.747	n/a	n/a	n/a	-999	-1	[4, 8, 9]	21.0	catFR1	0	R1026D
87.622	6.083	181093	PROB	6.083	n/a	n/a	n/a	-999	-1	[4, 2, 9]	15.0	catFR1	0	R1026D
93.705	0.019	190825	STOP	n/a	n/a	n/a	n/a	-999	-1	[-999, -999, -999]	n/a	catFR1	0	R1026D
93.724	0.669	190856	PRACTICE_DISTRACT_END	n/a	n/a	n/a	n/a	-999	-999	[0, 0, 0]	n/a	catFR1	0	R1026D
94.393	30.514	191926	PRACTICE_REC_START	n/a	n/a	n/a	n/a	-999	-999	[0, 0, 0]	n/a	catFR1	0	R1026D
124.907	18.976	240746	PRACTICE_REC_END	n/a	n/a	n/a	n/a	-999	-999	[0, 0, 0]	n/a	catFR1	0	R1026D
143.883	10.0	271106	COUNTDOWN_START	n/a	n/a	n/a	n/a	-999	1	[0, 0, 0]	n/a	catFR1	0	R1026D
143.884	10.427	271108	TRIAL	n/a	n/a	n/a	n/a	-999	1	[0, 0, 0]	n/a	catFR1	0	R1026D
154.311	0.007	287790	COUNTDOWN_END	n/a	n/a	n/a	n/a	-999	1	[0, 0, 0]	n/a	catFR1	0	R1026D
154.318	1.6	287801	ORIENT	n/a	n/a	n/a	n/a	-999	1	[0, 0, 0]	n/a	catFR1	0	R1026D
158.102	1.6	293855	WORD	n/a	wordpools/wordpool_categorized_EN.txt	WINDOW	Building	1	1	[0, 0, 0]	n/a	catFR1	0	R1026D
160.653	1.6	297937	WORD	n/a	wordpools/wordpool_categorized_EN.txt	DOOR	Building	2	1	[0, 0, 0]	n/a	catFR1	0	R1026D
163.187	1.6	301991	WORD	n/a	wordpools/wordpool_categorized_EN.txt	BLOCKS	Toys	3	1	[0, 0, 0]	n/a	catFR1	0	R1026D
165.787	1.6	306151	WORD	n/a	wordpools/wordpool_categorized_EN.txt	FRISBEE	Toys	4	1	[0, 0, 0]	n/a	catFR1	0	R1026D
168.371	1.6	310285	WORD	n/a	wordpools/wordpool_categorized_EN.txt	SOCKS	Clothing	5	1	[0, 0, 0]	n/a	catFR1	0	R1026D
170.938	1.6	314392	WORD	n/a	wordpools/wordpool_categorized_EN.txt	JEANS	Clothing	6	1	[0, 0, 0]	n/a	catFR1	0	R1026D
173.555	1.6	318579	WORD	n/a	wordpools/wordpool_categorized_EN.txt	BARBIE	Toys	7	1	[0, 0, 0]	n/a	catFR1	0	R1026D
176.122	1.6	322686	WORD	n/a	wordpools/wordpool_categorized_EN.txt	BASKETBALL	Toys	8	1	[0, 0, 0]	n/a	catFR1	0	R1026D
178.69	1.6	326794	WORD	n/a	wordpools/wordpool_categorized_EN.txt	CEILING	Building	9	1	[0, 0, 0]	n/a	catFR1	0	R1026D
181.19	1.6	330794	WORD	n/a	wordpools/wordpool_categorized_EN.txt	BATHROOM	Building	10	1	[0, 0, 0]	n/a	catFR1	0	R1026D
183.574	1.6	334608	WORD	n/a	wordpools/wordpool_categorized_EN.txt	BLOUSE	Clothing	11	1	[0, 0, 0]	n/a	catFR1	0	R1026D
186.108	1.6	338663	WORD	n/a	wordpools/wordpool_categorized_EN.txt	SHORTS	Clothing	12	1	[0, 0, 0]	n/a	catFR1	0	R1026D
187.725	0.001	341250	DISTRACT_START	n/a	n/a	n/a	n/a	-999	1	[0, 0, 0]	n/a	catFR1	0	R1026D
187.726	0.015	341251	START	n/a	n/a	n/a	n/a	-999	1	[-999, -999, -999]	n/a	catFR1	0	R1026D
187.741	5.651	341275	PROB	5.628	n/a	n/a	n/a	-999	1	[5, 9, 3]	14.0	catFR1	0	R1026D
193.392	5.635	350316	PROB	5.601	n/a	n/a	n/a	-999	1	[5, 6, 2]	13.0	catFR1	0	R1026D
199.027	8.201	359332	PROB	8.182	n/a	n/a	n/a	-999	1	[5, 4, 1]	19.0	catFR1	0	R1026D
207.228	15.141	372453	PROB	15.141	n/a	n/a	n/a	-999	1	[2, 4, 7]	13.0	catFR1	0	R1026D
222.369	0.012	396677	STOP	n/a	n/a	n/a	n/a	-999	1	[-999, -999, -999]	n/a	catFR1	0	R1026D
222.381	1.188	396697	DISTRACT_END	n/a	n/a	n/a	n/a	-999	1	[0, 0, 0]	n/a	catFR1	0	R1026D
223.569	7.389	398597	REC_START	n/a	n/a	n/a	n/a	-999	1	[0, 0, 0]	n/a	catFR1	0	R1026D
230.958	1.664	410419	REC_WORD	7.389	n/a	DOOR	Building	2	1	[0, 0, 0]	n/a	catFR1	0	R1026D
232.622	2.212	413081	REC_WORD	9.053	n/a	WINDOW	Building	1	1	[0, 0, 0]	n/a	catFR1	0	R1026D
234.834	2.141	416620	REC_WORD	11.265	n/a	BLOCKS	Toys	3	1	[0, 0, 0]	n/a	catFR1	0	R1026D
236.975	2.117	420046	REC_WORD	13.406	n/a	FRISBEE	Toys	4	1	[0, 0, 0]	n/a	catFR1	0	R1026D
239.092	1.0	423433	REC_WORD	15.523	n/a	SOCKS	Clothing	5	1	[0, 0, 0]	n/a	catFR1	0	R1026D
240.092	1.37	425033	REC_WORD_VV	16.523	n/a	<>	n/a	-999	1	[0, 0, 0]	n/a	catFR1	0	R1026D
241.462	12.114	427225	REC_WORD	17.893	n/a	JEANS	Clothing	6	1	[0, 0, 0]	n/a	catFR1	0	R1026D
253.576	6.795	446606	REC_END	n/a	n/a	n/a	n/a	-999	1	[0, 0, 0]	n/a	catFR1	0	R1026D
260.371	10.0	457478	COUNTDOWN_START	n/a	n/a	n/a	n/a	-999	2	[0, 0, 0]	n/a	catFR1	0	R1026D
260.372	10.427	457479	TRIAL	n/a	n/a	n/a	n/a	-999	2	[0, 0, 0]	n/a	catFR1	0	R1026D
270.799	0.008	474162	COUNTDOWN_END	n/a	n/a	n/a	n/a	-999	2	[0, 0, 0]	n/a	catFR1	0	R1026D
270.807	1.6	474174	ORIENT	n/a	n/a	n/a	n/a	-999	2	[0, 0, 0]	n/a	catFR1	0	R1026D
274.507	1.6	480094	WORD	n/a	wordpools/wordpool_categorized_EN.txt	LION	Zoo	1	2	[0, 0, 0]	n/a	catFR1	0	R1026D
277.024	1.6	484121	WORD	n/a	wordpools/wordpool_categorized_EN.txt	ELEPHANT	Zoo	2	2	[0, 0, 0]	n/a	catFR1	0	R1026D
279.642	1.6	488310	WORD	n/a	wordpools/wordpool_categorized_EN.txt	SAW	Tools	3	2	[0, 0, 0]	n/a	catFR1	0	R1026D
282.259	1.6	492497	WORD	n/a	wordpools/wordpool_categorized_EN.txt	SCREWDRIVER	Tools	4	2	[0, 0, 0]	n/a	catFR1	0	R1026D
284.809	1.6	496576	WORD	n/a	wordpools/wordpool_categorized_EN.txt	TONGS	KitchenTools	5	2	[0, 0, 0]	n/a	catFR1	0	R1026D
287.36	1.6	500658	WORD	n/a	wordpools/wordpool_categorized_EN.txt	WHISK	KitchenTools	6	2	[0, 0, 0]	n/a	catFR1	0	R1026D
289.926	1.6	504763	WORD	n/a	wordpools/wordpool_categorized_EN.txt	WRENCH	Tools	7	2	[0, 0, 0]	n/a	catFR1	0	R1026D
292.394	1.6	508712	WORD	n/a	wordpools/wordpool_categorized_EN.txt	PLIERS	Tools	8	2	[0, 0, 0]	n/a	catFR1	0	R1026D
294.794	1.6	512552	WORD	n/a	wordpools/wordpool_categorized_EN.txt	PANDA	Zoo	9	2	[0, 0, 0]	n/a	catFR1	0	R1026D
297.395	1.6	516713	WORD	n/a	wordpools/wordpool_categorized_EN.txt	GORILLA	Zoo	10	2	[0, 0, 0]	n/a	catFR1	0	R1026D
299.862	1.6	520660	WORD	n/a	wordpools/wordpool_categorized_EN.txt	FORK	KitchenTools	11	2	[0, 0, 0]	n/a	catFR1	0	R1026D
302.329	1.6	524607	WORD	n/a	wordpools/wordpool_categorized_EN.txt	COLANDER	KitchenTools	12	2	[0, 0, 0]	n/a	catFR1	0	R1026D
303.946	0.001	527194	DISTRACT_START	n/a	n/a	n/a	n/a	-999	2	[0, 0, 0]	n/a	catFR1	0	R1026D
303.947	0.016	527196	START	n/a	n/a	n/a	n/a	-999	2	[-999, -999, -999]	n/a	catFR1	0	R1026D
303.963	5.517	527221	PROB	5.486	n/a	n/a	n/a	-999	2	[9, 1, 1]	11.0	catFR1	0	R1026D
309.48	5.568	536048	PROB	5.537	n/a	n/a	n/a	-999	2	[3, 6, 8]	17.0	catFR1	0	R1026D
315.048	5.334	544956	PROB	5.305	n/a	n/a	n/a	-999	2	[2, 9, 8]	19.0	catFR1	0	R1026D
320.382	5.556	553490	PROB	5.556	n/a	n/a	n/a	-999	2	[9, 9, 2]	20.0	catFR1	0	R1026D
325.938	0.012	562380	STOP	n/a	n/a	n/a	n/a	-999	2	[-999, -999, -999]	n/a	catFR1	0	R1026D
325.95	1.051	562399	DISTRACT_END	n/a	n/a	n/a	n/a	-999	2	[0, 0, 0]	n/a	catFR1	0	R1026D
327.001	2.395	564080	REC_START	n/a	n/a	n/a	n/a	-999	2	[0, 0, 0]	n/a	catFR1	0	R1026D
329.396	1.322	567912	REC_WORD	2.395	n/a	LION	Zoo	1	2	[0, 0, 0]	n/a	catFR1	0	R1026D
330.718	5.378	570027	REC_WORD	3.717	n/a	ELEPHANT	Zoo	2	2	[0, 0, 0]	n/a	catFR1	0	R1026D
336.096	1.395	578632	REC_WORD	9.095	n/a	FORK	KitchenTools	11	2	[0, 0, 0]	n/a	catFR1	0	R1026D
337.491	7.13	580864	REC_WORD	10.49	n/a	KNIFE	n/a	-999	2	[0, 0, 0]	n/a	catFR1	0	R1026D
344.621	5.194	592271	REC_WORD	17.62	n/a	WHISK	KitchenTools	6	2	[0, 0, 0]	n/a	catFR1	0	R1026D
349.815	2.343	600581	REC_WORD	22.814	n/a	PANDA	Zoo	9	2	[0, 0, 0]	n/a	catFR1	0	R1026D
352.158	4.854	604330	REC_WORD	25.157	n/a	COLANDER	KitchenTools	12	2	[0, 0, 0]	n/a	catFR1	0	R1026D
357.012	8.929	612096	REC_END	n/a	n/a	n/a	n/a	-999	2	[0, 0, 0]	n/a	catFR1	0	R1026D
365.941	0.0	626381	TRIAL	n/a	n/a	n/a	n/a	-999	3	[0, 0, 0]	n/a	catFR1	0	R1026D
365.941	10.0	626381	COUNTDOWN_START	n/a	n/a	n/a	n/a	-999	3	[0, 0, 0]	n/a	catFR1	0	R1026D
376.369	0.007	643065	COUNTDOWN_END	n/a	n/a	n/a	n/a	-999	3	[0, 0, 0]	n/a	catFR1	0	R1026D
376.376	1.6	643076	ORIENT	n/a	n/a	n/a	n/a	-999	3	[0, 0, 0]	n/a	catFR1	0	R1026D
380.293	1.6	649343	WORD	n/a	wordpools/wordpool_categorized_EN.txt	CRICKET	Insects	1	3	[0, 0, 0]	n/a	catFR1	0	R1026D
382.911	1.6	653532	WORD	n/a	wordpools/wordpool_categorized_EN.txt	FLY	Insects	2	3	[0, 0, 0]	n/a	catFR1	0	R1026D
385.328	1.6	657399	WORD	n/a	wordpools/wordpool_categorized_EN.txt	BIRCH	Trees	3	3	[0, 0, 0]	n/a	catFR1	0	R1026D
387.862	1.6	661453	WORD	n/a	wordpools/wordpool_categorized_EN.txt	ELM	Trees	4	3	[0, 0, 0]	n/a	catFR1	0	R1026D
390.462	1.6	665613	WORD	n/a	wordpools/wordpool_categorized_EN.txt	ATTIC	Building	5	3	[0, 0, 0]	n/a	catFR1	0	R1026D
392.929	1.6	669560	WORD	n/a	wordpools/wordpool_categorized_EN.txt	HALLWAY	Building	6	3	[0, 0, 0]	n/a	catFR1	0	R1026D
395.43	1.6	673561	WORD	n/a	wordpools/wordpool_categorized_EN.txt	HICKORY	Trees	7	3	[0, 0, 0]	n/a	catFR1	0	R1026D
397.83	1.6	677401	WORD	n/a	wordpools/wordpool_categorized_EN.txt	WILLOW	Trees	8	3	[0, 0, 0]	n/a	catFR1	0	R1026D
400.364	1.6	681455	WORD	n/a	wordpools/wordpool_categorized_EN.txt	MOSQUITO	Insects	9	3	[0, 0, 0]	n/a	catFR1	0	R1026D
402.881	1.6	685482	WORD	n/a	wordpools/wordpool_categorized_EN.txt	MOTH	Insects	10	3	[0, 0, 0]	n/a	catFR1	0	R1026D
405.448	1.6	689589	WORD	n/a	wordpools/wordpool_categorized_EN.txt	FLOOR	Building	11	3	[0, 0, 0]	n/a	catFR1	0	R1026D
407.949	1.6	693591	WORD	n/a	wordpools/wordpool_categorized_EN.txt	ROOM	Building	12	3	[0, 0, 0]	n/a	catFR1	0	R1026D
409.566	0.001	696178	DISTRACT_START	n/a	n/a	n/a	n/a	-999	3	[0, 0, 0]	n/a	catFR1	0	R1026D
409.567	0.015	696179	START	n/a	n/a	n/a	n/a	-999	3	[-999, -999, -999]	n/a	catFR1	0	R1026D
409.582	7.435	696203	PROB	7.403	n/a	n/a	n/a	-999	3	[7, 1, 2]	10.0	catFR1	0	R1026D
417.017	4.384	708099	PROB	4.352	n/a	n/a	n/a	-999	3	[8, 1, 5]	14.0	catFR1	0	R1026D
421.401	5.218	715113	PROB	5.192	n/a	n/a	n/a	-999	3	[7, 4, 3]	14.0	catFR1	0	R1026D
426.619	5.07	723461	PROB	5.07	n/a	n/a	n/a	-999	3	[4, 5, 8]	17.0	catFR1	0	R1026D
431.689	0.014	731573	STOP	n/a	n/a	n/a	n/a	-999	3	[-999, -999, -999]	n/a	catFR1	0	R1026D
431.703	1.051	731595	DISTRACT_END	n/a	n/a	n/a	n/a	-999	3	[0, 0, 0]	n/a	catFR1	0	R1026D
432.754	3.179	733277	REC_START	n/a	n/a	n/a	n/a	-999	3	[0, 0, 0]	n/a	catFR1	0	R1026D
435.933	3.393	738363	REC_WORD	3.179	n/a	CRICKET	Insects	1	3	[0, 0, 0]	n/a	catFR1	0	R1026D
439.326	4.737	743791	REC_WORD	6.572	n/a	MOSQUITO	Insects	9	3	[0, 0, 0]	n/a	catFR1	0	R1026D
444.063	1.452	751370	REC_WORD	11.309	n/a	BIRCH	Trees	3	3	[0, 0, 0]	n/a	catFR1	0	R1026D
445.515	10.89	753693	REC_WORD	12.761	n/a	ELM	Trees	4	3	[0, 0, 0]	n/a	catFR1	0	R1026D
456.405	1.413	771117	REC_WORD	23.651	n/a	HEMLOCK	n/a	-999	3	[0, 0, 0]	n/a	catFR1	0	R1026D
457.818	4.366	773377	REC_WORD	25.064	n/a	WILLOW	Trees	8	3	[0, 0, 0]	n/a	catFR1	0	R1026D
462.184	0.582	780362	REC_WORD_VV	29.43	n/a	<>	n/a	-999	3	[0, 0, 0]	n/a	catFR1	0	R1026D
462.766	18.129	781294	REC_END	n/a	n/a	n/a	n/a	-999	3	[0, 0, 0]	n/a	catFR1	0	R1026D
480.895	0.0	810299	TRIAL	n/a	n/a	n/a	n/a	-999	4	[0, 0, 0]	n/a	catFR1	0	R1026D
480.895	10.0	810299	COUNTDOWN_START	n/a	n/a	n/a	n/a	-999	4	[0, 0, 0]	n/a	catFR1	0	R1026D
491.323	0.008	826983	COUNTDOWN_END	n/a	n/a	n/a	n/a	-999	4	[0, 0, 0]	n/a	catFR1	0	R1026D
491.331	1.6	826995	ORIENT	n/a	n/a	n/a	n/a	-999	4	[0, 0, 0]	n/a	catFR1	0	R1026D
495.165	1.6	833129	WORD	n/a	wordpools/wordpool_categorized_EN.txt	DAFFODIL	Flowers	1	4	[0, 0, 0]	n/a	catFR1	0	R1026D
497.748	1.6	837262	WORD	n/a	wordpools/wordpool_categorized_EN.txt	LILY	Flowers	2	4	[0, 0, 0]	n/a	catFR1	0	R1026D
500.299	1.6	841343	WORD	n/a	wordpools/wordpool_categorized_EN.txt	PHONE	Electronics	3	4	[0, 0, 0]	n/a	catFR1	0	R1026D
502.833	1.6	845398	WORD	n/a	wordpools/wordpool_categorized_EN.txt	CALCULATOR	Electronics	4	4	[0, 0, 0]	n/a	catFR1	0	R1026D
505.233	1.6	849237	WORD	n/a	wordpools/wordpool_categorized_EN.txt	TURKEY	FarmAnimals	5	4	[0, 0, 0]	n/a	catFR1	0	R1026D
507.85	1.6	853424	WORD	n/a	wordpools/wordpool_categorized_EN.txt	GOAT	FarmAnimals	6	4	[0, 0, 0]	n/a	catFR1	0	R1026D
510.367	1.6	857451	WORD	n/a	wordpools/wordpool_categorized_EN.txt	STEREO	Electronics	7	4	[0, 0, 0]	n/a	catFR1	0	R1026D
512.951	1.6	861586	WORD	n/a	wordpools/wordpool_categorized_EN.txt	COMPUTER	Electronics	8	4	[0, 0, 0]	n/a	catFR1	0	R1026D
515.451	1.6	865585	WORD	n/a	wordpools/wordpool_categorized_EN.txt	VIOLET	Flowers	9	4	[0, 0, 0]	n/a	catFR1	0	R1026D
517.919	1.6	869534	WORD	n/a	wordpools/wordpool_categorized_EN.txt	CARNATION	Flowers	10	4	[0, 0, 0]	n/a	catFR1	0	R1026D
520.336	1.6	873401	WORD	n/a	wordpools/wordpool_categorized_EN.txt	SHEEP	FarmAnimals	11	4	[0, 0, 0]	n/a	catFR1	0	R1026D
522.903	1.6	877508	WORD	n/a	wordpools/wordpool_categorized_EN.txt	COW	FarmAnimals	12	4	[0, 0, 0]	n/a	catFR1	0	R1026D
524.52	0.001	880095	DISTRACT_START	n/a	n/a	n/a	n/a	-999	4	[0, 0, 0]	n/a	catFR1	0	R1026D
524.521	0.016	880097	START	n/a	n/a	n/a	n/a	-999	4	[-999, -999, -999]	n/a	catFR1	0	R1026D
524.537	7.851	880122	PROB	7.816	n/a	n/a	n/a	-999	4	[5, 3, 2]	10.0	catFR1	0	R1026D
532.388	5.018	892683	PROB	4.981	n/a	n/a	n/a	-999	4	[8, 7, 2]	17.0	catFR1	0	R1026D
537.406	6.234	900712	PROB	6.211	n/a	n/a	n/a	-999	4	[5, 6, 8]	19.0	catFR1	0	R1026D
543.64	17.448	910686	PROB	17.448	n/a	n/a	n/a	-999	4	[9, 7, 8]	24.0	catFR1	0	R1026D
561.088	0.005	938601	STOP	n/a	n/a	n/a	n/a	-999	4	[-999, -999, -999]	n/a	catFR1	0	R1026D
561.093	1.185	938609	DISTRACT_END	n/a	n/a	n/a	n/a	-999	4	[0, 0, 0]	n/a	catFR1	0	R1026D
562.278	13.668	940505	REC_START	n/a	n/a	n/a	n/a	-999	4	[0, 0, 0]	n/a	catFR1	0	R1026D
575.946	6.647	962373	REC_WORD	13.668	n/a	COW	FarmAnimals	12	4	[0, 0, 0]	n/a	catFR1	0	R1026D
582.593	1.406	973007	REC_WORD	20.315	n/a	PHONE	Electronics	3	4	[0, 0, 0]	n/a	catFR1	0	R1026D
583.999	6.001	975257	REC_WORD	21.721	n/a	CALCULATOR	Electronics	4	4	[0, 0, 0]	n/a	catFR1	0	R1026D
590.0	2.29	984858	REC_WORD	27.722	n/a	DAFFODIL	Flowers	1	4	[0, 0, 0]	n/a	catFR1	0	R1026D
592.29	9.894	988522	REC_END	n/a	n/a	n/a	n/a	-999	4	[0, 0, 0]	n/a	catFR1	0	R1026D
602.184	10.0	1004351	COUNTDOWN_START	n/a	n/a	n/a	n/a	-999	5	[0, 0, 0]	n/a	catFR1	0	R1026D
602.185	10.427	1004353	TRIAL	n/a	n/a	n/a	n/a	-999	5	[0, 0, 0]	n/a	catFR1	0	R1026D
612.612	0.008	1021035	COUNTDOWN_END	n/a	n/a	n/a	n/a	-999	5	[0, 0, 0]	n/a	catFR1	0	R1026D
612.62	1.6	1021048	ORIENT	n/a	n/a	n/a	n/a	-999	5	[0, 0, 0]	n/a	catFR1	0	R1026D
616.17	1.6	1026728	WORD	n/a	wordpools/wordpool_categorized_EN.txt	SPINACH	Vegetables	1	5	[0, 0, 0]	n/a	catFR1	0	R1026D
618.571	1.6	1030569	WORD	n/a	wordpools/wordpool_categorized_EN.txt	BROCCOLI	Vegetables	2	5	[0, 0, 0]	n/a	catFR1	0	R1026D
621.004	1.6	1034462	WORD	n/a	wordpools/wordpool_categorized_EN.txt	RECLINER	Furniture	3	5	[0, 0, 0]	n/a	catFR1	0	R1026D
623.538	1.6	1038516	WORD	n/a	wordpools/wordpool_categorized_EN.txt	DESK	Furniture	4	5	[0, 0, 0]	n/a	catFR1	0	R1026D
626.122	1.6	1042650	WORD	n/a	wordpools/wordpool_categorized_EN.txt	FINCH	Birds	5	5	[0, 0, 0]	n/a	catFR1	0	R1026D
628.622	1.6	1046650	WORD	n/a	wordpools/wordpool_categorized_EN.txt	HAWK	Birds	6	5	[0, 0, 0]	n/a	catFR1	0	R1026D
631.24	1.6	1050839	WORD	n/a	wordpools/wordpool_categorized_EN.txt	CUCUMBER	Vegetables	7	5	[0, 0, 0]	n/a	catFR1	0	R1026D
633.773	1.6	1054891	WORD	n/a	wordpools/wordpool_categorized_EN.txt	CABBAGE	Vegetables	8	5	[0, 0, 0]	n/a	catFR1	0	R1026D
636.174	1.6	1058733	WORD	n/a	wordpools/wordpool_categorized_EN.txt	BLUEBIRD	Birds	9	5	[0, 0, 0]	n/a	catFR1	0	R1026D
638.741	1.6	1062840	WORD	n/a	wordpools/wordpool_categorized_EN.txt	SPARROW	Birds	10	5	[0, 0, 0]	n/a	catFR1	0	R1026D
641.225	1.6	1066814	WORD	n/a	wordpools/wordpool_categorized_EN.txt	CHAIR	Furniture	11	5	[0, 0, 0]	n/a	catFR1	0	R1026D
643.742	1.6	1070841	WORD	n/a	wordpools/wordpool_categorized_EN.txt	BED	Furniture	12	5	[0, 0, 0]	n/a	catFR1	0	R1026D
645.359	0.001	1073428	DISTRACT_START	n/a	n/a	n/a	n/a	-999	5	[0, 0, 0]	n/a	catFR1	0	R1026D
645.36	0.015	1073430	START	n/a	n/a	n/a	n/a	-999	5	[-999, -999, -999]	n/a	catFR1	0	R1026D
645.375	14.57	1073454	PROB	14.538	n/a	n/a	n/a	-999	5	[3, 3, 7]	13.0	catFR1	0	R1026D
659.945	7.0	1096764	PROB	7.0	n/a	n/a	n/a	-999	5	[8, 6, 5]	19.0	catFR1	0	R1026D
666.945	0.018	1107964	STOP	n/a	n/a	n/a	n/a	-999	5	[-999, -999, -999]	n/a	catFR1	0	R1026D
666.963	1.201	1107993	DISTRACT_END	n/a	n/a	n/a	n/a	-999	5	[0, 0, 0]	n/a	catFR1	0	R1026D
668.164	8.395	1109914	REC_START	n/a	n/a	n/a	n/a	-999	5	[0, 0, 0]	n/a	catFR1	0	R1026D
676.559	1.332	1123346	REC_WORD	8.395	n/a	CHAIR	Furniture	11	5	[0, 0, 0]	n/a	catFR1	0	R1026D
677.891	20.285	1125477	REC_WORD	9.727	n/a	DESK	Furniture	4	5	[0, 0, 0]	n/a	catFR1	0	R1026D
698.176	22.93	1157931	REC_END	n/a	n/a	n/a	n/a	-999	5	[0, 0, 0]	n/a	catFR1	0	R1026D
721.106	10.0	1194617	COUNTDOWN_START	n/a	n/a	n/a	n/a	-999	6	[0, 0, 0]	n/a	catFR1	0	R1026D
721.107	10.427	1194619	TRIAL	n/a	n/a	n/a	n/a	-999	6	[0, 0, 0]	n/a	catFR1	0	R1026D
731.534	0.007	1211301	COUNTDOWN_END	n/a	n/a	n/a	n/a	-999	6	[0, 0, 0]	n/a	catFR1	0	R1026D
731.541	1.6	1211312	ORIENT	n/a	n/a	n/a	n/a	-999	6	[0, 0, 0]	n/a	catFR1	0	R1026D
735.392	1.6	1217474	WORD	n/a	wordpools/wordpool_categorized_EN.txt	DOLL	Toys	1	6	[0, 0, 0]	n/a	catFR1	0	R1026D
737.909	1.6	1221501	WORD	n/a	wordpools/wordpool_categorized_EN.txt	SLINKY	Toys	2	6	[0, 0, 0]	n/a	catFR1	0	R1026D
740.293	1.6	1225315	WORD	n/a	wordpools/wordpool_categorized_EN.txt	SEAGULL	Birds	3	6	[0, 0, 0]	n/a	catFR1	0	R1026D
742.727	1.6	1229209	WORD	n/a	wordpools/wordpool_categorized_EN.txt	GOOSE	Birds	4	6	[0, 0, 0]	n/a	catFR1	0	R1026D
745.161	1.6	1233103	WORD	n/a	wordpools/wordpool_categorized_EN.txt	FINGERS	BodyParts	5	6	[0, 0, 0]	n/a	catFR1	0	R1026D
747.611	1.6	1237023	WORD	n/a	wordpools/wordpool_categorized_EN.txt	KNEE	BodyParts	6	6	[0, 0, 0]	n/a	catFR1	0	R1026D
750.178	1.6	1241130	WORD	n/a	wordpools/wordpool_categorized_EN.txt	PUZZLE	Toys	7	6	[0, 0, 0]	n/a	catFR1	0	R1026D
752.762	1.6	1245264	WORD	n/a	wordpools/wordpool_categorized_EN.txt	MARBLES	Toys	8	6	[0, 0, 0]	n/a	catFR1	0	R1026D
755.196	1.6	1249159	WORD	n/a	wordpools/wordpool_categorized_EN.txt	EYE	BodyParts	9	6	[0, 0, 0]	n/a	catFR1	0	R1026D
757.663	1.6	1253106	WORD	n/a	wordpools/wordpool_categorized_EN.txt	FOOT	BodyParts	10	6	[0, 0, 0]	n/a	catFR1	0	R1026D
760.13	1.6	1257053	WORD	n/a	wordpools/wordpool_categorized_EN.txt	CROW	Birds	11	6	[0, 0, 0]	n/a	catFR1	0	R1026D
762.564	1.6	1260947	WORD	n/a	wordpools/wordpool_categorized_EN.txt	CARDINAL	Birds	12	6	[0, 0, 0]	n/a	catFR1	0	R1026D
764.181	0.001	1263534	DISTRACT_START	n/a	n/a	n/a	n/a	-999	6	[0, 0, 0]	n/a	catFR1	0	R1026D
764.182	0.015	1263535	START	n/a	n/a	n/a	n/a	-999	6	[-999, -999, -999]	n/a	catFR1	0	R1026D
764.197	9.969	1263559	PROB	9.94	n/a	n/a	n/a	-999	6	[3, 2, 4]	9.0	catFR1	0	R1026D
774.166	6.434	1279509	PROB	6.403	n/a	n/a	n/a	-999	6	[2, 7, 8]	17.0	catFR1	0	R1026D
780.6	5.745	1289803	PROB	5.745	n/a	n/a	n/a	-999	6	[3, 3, 9]	15.0	catFR1	0	R1026D
786.345	0.007	1298995	STOP	n/a	n/a	n/a	n/a	-999	6	[-999, -999, -999]	n/a	catFR1	0	R1026D
786.352	1.217	1299006	DISTRACT_END	n/a	n/a	n/a	n/a	-999	6	[0, 0, 0]	n/a	catFR1	0	R1026D
787.569	2.752	1300953	REC_START	n/a	n/a	n/a	n/a	-999	6	[0, 0, 0]	n/a	catFR1	0	R1026D
790.321	1.236	1305356	REC_WORD	2.752	n/a	DOLL	Toys	1	6	[0, 0, 0]	n/a	catFR1	0	R1026D
791.557	4.641	1307333	REC_WORD	3.988	n/a	SLINKY	Toys	2	6	[0, 0, 0]	n/a	catFR1	0	R1026D
796.198	12.499	1314759	REC_WORD	8.629	n/a	SPARROW	n/a	-999	6	[0, 0, 0]	n/a	catFR1	0	R1026D
808.697	3.93	1334756	REC_WORD	21.128	n/a	CROW	Birds	11	6	[0, 0, 0]	n/a	catFR1	0	R1026D
812.627	4.954	1341044	REC_WORD	25.058	n/a	PUZZLE	Toys	7	6	[0, 0, 0]	n/a	catFR1	0	R1026D
817.581	5.16	1348970	REC_END	n/a	n/a	n/a	n/a	-999	6	[0, 0, 0]	n/a	catFR1	0	R1026D
822.741	0.0	1357225	TRIAL	n/a	n/a	n/a	n/a	-999	7	[0, 0, 0]	n/a	catFR1	0	R1026D
822.741	10.0	1357225	COUNTDOWN_START	n/a	n/a	n/a	n/a	-999	7	[0, 0, 0]	n/a	catFR1	0	R1026D
833.169	0.008	1373909	COUNTDOWN_END	n/a	n/a	n/a	n/a	-999	7	[0, 0, 0]	n/a	catFR1	0	R1026D
833.177	1.6	1373922	ORIENT	n/a	n/a	n/a	n/a	-999	7	[0, 0, 0]	n/a	catFR1	0	R1026D
836.827	1.6	1379762	WORD	n/a	wordpools/wordpool_categorized_EN.txt	ISLAND	Landscapes	1	7	[0, 0, 0]	n/a	catFR1	0	R1026D
839.395	1.6	1383870	WORD	n/a	wordpools/wordpool_categorized_EN.txt	OCEAN	Landscapes	2	7	[0, 0, 0]	n/a	catFR1	0	R1026D
841.812	1.6	1387737	WORD	n/a	wordpools/wordpool_categorized_EN.txt	RULER	OfficeSupplies	3	7	[0, 0, 0]	n/a	catFR1	0	R1026D
844.245	1.6	1391630	WORD	n/a	wordpools/wordpool_categorized_EN.txt	STAPLER	OfficeSupplies	4	7	[0, 0, 0]	n/a	catFR1	0	R1026D
846.629	1.6	1395444	WORD	n/a	wordpools/wordpool_categorized_EN.txt	FOOTBALL	Toys	5	7	[0, 0, 0]	n/a	catFR1	0	R1026D
849.063	1.6	1399338	WORD	n/a	wordpools/wordpool_categorized_EN.txt	DOLLHOUSE	Toys	6	7	[0, 0, 0]	n/a	catFR1	0	R1026D
851.513	1.6	1403258	WORD	n/a	wordpools/wordpool_categorized_EN.txt	LAKE	Landscapes	7	7	[0, 0, 0]	n/a	catFR1	0	R1026D
853.947	1.6	1407152	WORD	n/a	wordpools/wordpool_categorized_EN.txt	HILLS	Landscapes	8	7	[0, 0, 0]	n/a	catFR1	0	R1026D
856.464	1.6	1411179	WORD	n/a	wordpools/wordpool_categorized_EN.txt	BASEBALL	Toys	9	7	[0, 0, 0]	n/a	catFR1	0	R1026D
858.898	1.6	1415074	WORD	n/a	wordpools/wordpool_categorized_EN.txt	BALL	Toys	10	7	[0, 0, 0]	n/a	catFR1	0	R1026D
861.465	1.6	1419181	WORD	n/a	wordpools/wordpool_categorized_EN.txt	NOTEBOOK	OfficeSupplies	11	7	[0, 0, 0]	n/a	catFR1	0	R1026D
863.982	1.6	1423208	WORD	n/a	wordpools/wordpool_categorized_EN.txt	PAPER	OfficeSupplies	12	7	[0, 0, 0]	n/a	catFR1	0	R1026D
865.599	0.001	1425795	DISTRACT_START	n/a	n/a	n/a	n/a	-999	7	[0, 0, 0]	n/a	catFR1	0	R1026D
865.6	0.016	1425796	START	n/a	n/a	n/a	n/a	-999	7	[-999, -999, -999]	n/a	catFR1	0	R1026D
865.616	7.018	1425822	PROB	6.985	n/a	n/a	n/a	-999	7	[6, 1, 6]	13.0	catFR1	0	R1026D
872.634	4.084	1437050	PROB	4.063	n/a	n/a	n/a	-999	7	[2, 2, 3]	7.0	catFR1	0	R1026D
876.718	4.584	1443584	PROB	4.563	n/a	n/a	n/a	-999	7	[1, 6, 7]	14.0	catFR1	0	R1026D
881.302	7.243	1450918	PROB	7.243	n/a	n/a	n/a	-999	7	[5, 7, 1]	13.0	catFR1	0	R1026D
888.545	0.008	1462506	STOP	n/a	n/a	n/a	n/a	-999	7	[-999, -999, -999]	n/a	catFR1	0	R1026D
888.553	1.185	1462519	DISTRACT_END	n/a	n/a	n/a	n/a	-999	7	[0, 0, 0]	n/a	catFR1	0	R1026D
889.738	7.857	1464415	REC_START	n/a	n/a	n/a	n/a	-999	7	[0, 0, 0]	n/a	catFR1	0	R1026D
897.595	2.394	1476986	REC_WORD	7.857	n/a	ISLAND	Landscapes	1	7	[0, 0, 0]	n/a	catFR1	0	R1026D
899.989	2.085	1480816	REC_WORD	10.251	n/a	RULER	OfficeSupplies	3	7	[0, 0, 0]	n/a	catFR1	0	R1026D
902.074	3.33	1484152	REC_WORD	12.336	n/a	STAPLER	OfficeSupplies	4	7	[0, 0, 0]	n/a	catFR1	0	R1026D
905.404	6.393	1489480	REC_WORD	15.666	n/a	FOOTBALL	Toys	5	7	[0, 0, 0]	n/a	catFR1	0	R1026D
911.797	7.953	1499708	REC_WORD	22.059	n/a	BASEBALL	Toys	9	7	[0, 0, 0]	n/a	catFR1	0	R1026D
919.75	5.977	1512432	REC_END	n/a	n/a	n/a	n/a	-999	7	[0, 0, 0]	n/a	catFR1	0	R1026D
925.727	0.0	1521995	TRIAL	n/a	n/a	n/a	n/a	-999	8	[0, 0, 0]	n/a	catFR1	0	R1026D
925.727	10.0	1521995	COUNTDOWN_START	n/a	n/a	n/a	n/a	-999	8	[0, 0, 0]	n/a	catFR1	0	R1026D
936.155	0.007	1538679	COUNTDOWN_END	n/a	n/a	n/a	n/a	-999	8	[0, 0, 0]	n/a	catFR1	0	R1026D
936.162	1.6	1538690	ORIENT	n/a	n/a	n/a	n/a	-999	8	[0, 0, 0]	n/a	catFR1	0	R1026D
939.78	1.6	1544478	WORD	n/a	wordpools/wordpool_categorized_EN.txt	SPRUCE	Trees	1	8	[0, 0, 0]	n/a	catFR1	0	R1026D
942.263	1.6	1548451	WORD	n/a	wordpools/wordpool_categorized_EN.txt	EVERGREEN	Trees	2	8	[0, 0, 0]	n/a	catFR1	0	R1026D
944.814	1.6	1552532	WORD	n/a	wordpools/wordpool_categorized_EN.txt	GRAPE	Fruit	3	8	[0, 0, 0]	n/a	catFR1	0	R1026D
947.414	1.6	1556692	WORD	n/a	wordpools/wordpool_categorized_EN.txt	LIME	Fruit	4	8	[0, 0, 0]	n/a	catFR1	0	R1026D
949.831	1.6	1560559	WORD	n/a	wordpools/wordpool_categorized_EN.txt	FUDGE	Desserts	5	8	[0, 0, 0]	n/a	catFR1	0	R1026D
952.382	1.6	1564641	WORD	n/a	wordpools/wordpool_categorized_EN.txt	COOKIE	Desserts	6	8	[0, 0, 0]	n/a	catFR1	0	R1026D
954.932	1.6	1568720	WORD	n/a	wordpools/wordpool_categorized_EN.txt	CYPRESS	Trees	7	8	[0, 0, 0]	n/a	catFR1	0	R1026D
957.366	1.6	1572615	WORD	n/a	wordpools/wordpool_categorized_EN.txt	CEDAR	Trees	8	8	[0, 0, 0]	n/a	catFR1	0	R1026D
959.8	1.6	1576509	WORD	n/a	wordpools/wordpool_categorized_EN.txt	PIE	Desserts	9	8	[0, 0, 0]	n/a	catFR1	0	R1026D
962.184	1.6	1580323	WORD	n/a	wordpools/wordpool_categorized_EN.txt	PASTRY	Desserts	10	8	[0, 0, 0]	n/a	catFR1	0	R1026D
964.651	1.6	1584270	WORD	n/a	wordpools/wordpool_categorized_EN.txt	BLUEBERRY	Fruit	11	8	[0, 0, 0]	n/a	catFR1	0	R1026D
967.068	1.6	1588137	WORD	n/a	wordpools/wordpool_categorized_EN.txt	BANANA	Fruit	12	8	[0, 0, 0]	n/a	catFR1	0	R1026D
968.685	0.001	1590724	DISTRACT_START	n/a	n/a	n/a	n/a	-999	8	[0, 0, 0]	n/a	catFR1	0	R1026D
968.686	0.016	1590726	START	n/a	n/a	n/a	n/a	-999	8	[-999, -999, -999]	n/a	catFR1	0	R1026D
968.702	4.801	1590751	PROB	4.771	n/a	n/a	n/a	-999	8	[1, 7, 4]	12.0	catFR1	0	R1026D
973.503	6.117	1598433	PROB	6.09	n/a	n/a	n/a	-999	8	[8, 7, 6]	21.0	catFR1	0	R1026D
979.62	4.584	1608219	PROB	4.557	n/a	n/a	n/a	-999	8	[4, 6, 8]	18.0	catFR1	0	R1026D
984.204	6.884	1615553	PROB	6.884	n/a	n/a	n/a	-999	8	[5, 4, 1]	10.0	catFR1	0	R1026D
991.088	0.018	1626567	STOP	n/a	n/a	n/a	n/a	-999	8	[-999, -999, -999]	n/a	catFR1	0	R1026D
991.106	1.184	1626596	DISTRACT_END	n/a	n/a	n/a	n/a	-999	8	[0, 0, 0]	n/a	catFR1	0	R1026D
992.29	3.345	1628490	REC_START	n/a	n/a	n/a	n/a	-999	8	[0, 0, 0]	n/a	catFR1	0	R1026D
995.635	1.002	1633842	REC_WORD	3.345	n/a	SPRUCE	Trees	1	8	[0, 0, 0]	n/a	catFR1	0	R1026D
996.637	1.194	1635445	REC_WORD_VV	4.347	n/a	<>	n/a	-999	8	[0, 0, 0]	n/a	catFR1	0	R1026D
997.831	2.894	1637355	REC_WORD	5.541	n/a	PINE	n/a	-999	8	[0, 0, 0]	n/a	catFR1	0	R1026D
1000.725	15.731	1641986	REC_WORD	8.435	n/a	CEDAR	Trees	8	8	[0, 0, 0]	n/a	catFR1	0	R1026D
1016.456	5.846	1667154	REC_WORD	24.166	n/a	HEMLOCK	n/a	-999	8	[0, 0, 0]	n/a	catFR1	0	R1026D
1022.302	6.444	1676507	REC_END	n/a	n/a	n/a	n/a	-999	8	[0, 0, 0]	n/a	catFR1	0	R1026D
1028.746	10.0	1686817	COUNTDOWN_START	n/a	n/a	n/a	n/a	-999	9	[0, 0, 0]	n/a	catFR1	0	R1026D
1028.746	10.428	1686817	TRIAL	n/a	n/a	n/a	n/a	-999	9	[0, 0, 0]	n/a	catFR1	0	R1026D
1039.174	0.007	1703501	COUNTDOWN_END	n/a	n/a	n/a	n/a	-999	9	[0, 0, 0]	n/a	catFR1	0	R1026D
1039.181	1.6	1703512	ORIENT	n/a	n/a	n/a	n/a	-999	9	[0, 0, 0]	n/a	catFR1	0	R1026D
1042.832	1.6	1709353	WORD	n/a	wordpools/wordpool_categorized_EN.txt	RADIO	Electronics	1	9	[0, 0, 0]	n/a	catFR1	0	R1026D
1045.399	1.6	1713460	WORD	n/a	wordpools/wordpool_categorized_EN.txt	HEADPHONES	Electronics	2	9	[0, 0, 0]	n/a	catFR1	0	R1026D
1047.833	1.6	1717355	WORD	n/a	wordpools/wordpool_categorized_EN.txt	BEACH	Landscapes	3	9	[0, 0, 0]	n/a	catFR1	0	R1026D
1050.3	1.6	1721302	WORD	n/a	wordpools/wordpool_categorized_EN.txt	VALLEY	Landscapes	4	9	[0, 0, 0]	n/a	catFR1	0	R1026D
1052.884	1.6	1725436	WORD	n/a	wordpools/wordpool_categorized_EN.txt	MOUSSE	Desserts	5	9	[0, 0, 0]	n/a	catFR1	0	R1026D
1055.418	1.6	1729490	WORD	n/a	wordpools/wordpool_categorized_EN.txt	CHEESECAKE	Desserts	6	9	[0, 0, 0]	n/a	catFR1	0	R1026D
1057.901	1.6	1733463	WORD	n/a	wordpools/wordpool_categorized_EN.txt	MOUNTAIN	Landscapes	7	9	[0, 0, 0]	n/a	catFR1	0	R1026D
1060.502	1.6	1737624	WORD	n/a	wordpools/wordpool_categorized_EN.txt	STREAM	Landscapes	8	9	[0, 0, 0]	n/a	catFR1	0	R1026D
1063.052	1.6	1741704	WORD	n/a	wordpools/wordpool_categorized_EN.txt	SCANNER	Electronics	9	9	[0, 0, 0]	n/a	catFR1	0	R1026D
1065.453	1.6	1745545	WORD	n/a	wordpools/wordpool_categorized_EN.txt	MICROWAVE	Electronics	10	9	[0, 0, 0]	n/a	catFR1	0	R1026D
1067.953	1.6	1749545	WORD	n/a	wordpools/wordpool_categorized_EN.txt	CAKE	Desserts	11	9	[0, 0, 0]	n/a	catFR1	0	R1026D
1070.553	1.6	1753705	WORD	n/a	wordpools/wordpool_categorized_EN.txt	CUPCAKE	Desserts	12	9	[0, 0, 0]	n/a	catFR1	0	R1026D
1072.171	0.001	1756294	DISTRACT_START	n/a	n/a	n/a	n/a	-999	9	[0, 0, 0]	n/a	catFR1	0	R1026D
1072.172	0.015	1756295	START	n/a	n/a	n/a	n/a	-999	9	[-999, -999, -999]	n/a	catFR1	0	R1026D
1072.187	9.885	1756319	PROB	9.854	n/a	n/a	n/a	-999	9	[8, 9, 4]	21.0	catFR1	0	R1026D
1082.072	5.285	1772134	PROB	5.257	n/a	n/a	n/a	-999	9	[3, 9, 4]	13.0	catFR1	0	R1026D
1087.357	4.167	1780590	PROB	4.132	n/a	n/a	n/a	-999	9	[2, 2, 2]	6.0	catFR1	0	R1026D
1091.524	7.725	1787257	PROB	7.725	n/a	n/a	n/a	-999	9	[3, 7, 8]	18.0	catFR1	0	R1026D
1099.249	0.01	1799616	STOP	n/a	n/a	n/a	n/a	-999	9	[-999, -999, -999]	n/a	catFR1	0	R1026D
1099.259	1.151	1799632	DISTRACT_END	n/a	n/a	n/a	n/a	-999	9	[0, 0, 0]	n/a	catFR1	0	R1026D
1100.41	8.778	1801474	REC_START	n/a	n/a	n/a	n/a	-999	9	[0, 0, 0]	n/a	catFR1	0	R1026D
1109.188	2.013	1815518	REC_WORD	8.778	n/a	MOUNTAIN	Landscapes	7	9	[0, 0, 0]	n/a	catFR1	0	R1026D
1111.201	2.308	1818738	REC_WORD	10.791	n/a	VALLEY	Landscapes	4	9	[0, 0, 0]	n/a	catFR1	0	R1026D
1113.509	1.65	1822431	REC_WORD	13.099	n/a	MOUSSE	Desserts	5	9	[0, 0, 0]	n/a	catFR1	0	R1026D
1115.159	15.262	1825071	REC_WORD	14.749	n/a	FUDGE	n/a	-999	9	[0, 0, 0]	n/a	catFR1	0	R1026D
1130.421	7.295	1849489	REC_END	n/a	n/a	n/a	n/a	-999	9	[0, 0, 0]	n/a	catFR1	0	R1026D
1137.716	0.0	1861160	TRIAL	n/a	n/a	n/a	n/a	-999	10	[0, 0, 0]	n/a	catFR1	0	R1026D
1137.716	10.0	1861160	COUNTDOWN_START	n/a	n/a	n/a	n/a	-999	10	[0, 0, 0]	n/a	catFR1	0	R1026D
1148.144	0.007	1877844	COUNTDOWN_END	n/a	n/a	n/a	n/a	-999	10	[0, 0, 0]	n/a	catFR1	0	R1026D
1148.151	1.6	1877856	ORIENT	n/a	n/a	n/a	n/a	-999	10	[0, 0, 0]	n/a	catFR1	0	R1026D
1151.835	1.6	1883750	WORD	n/a	wordpools/wordpool_categorized_EN.txt	HEAD	BodyParts	1	10	[0, 0, 0]	n/a	catFR1	0	R1026D
1154.352	1.6	1887777	WORD	n/a	wordpools/wordpool_categorized_EN.txt	NOSE	BodyParts	2	10	[0, 0, 0]	n/a	catFR1	0	R1026D
1156.803	1.6	1891698	WORD	n/a	wordpools/wordpool_categorized_EN.txt	STOVE	Appliances	3	10	[0, 0, 0]	n/a	catFR1	0	R1026D
1159.37	1.6	1895805	WORD	n/a	wordpools/wordpool_categorized_EN.txt	OVEN	Appliances	4	10	[0, 0, 0]	n/a	catFR1	0	R1026D
1161.97	1.6	1899965	WORD	n/a	wordpools/wordpool_categorized_EN.txt	CORN	Vegetables	5	10	[0, 0, 0]	n/a	catFR1	0	R1026D
1164.404	1.6	1903859	WORD	n/a	wordpools/wordpool_categorized_EN.txt	CARROT	Vegetables	6	10	[0, 0, 0]	n/a	catFR1	0	R1026D
1166.855	1.6	1907780	WORD	n/a	wordpools/wordpool_categorized_EN.txt	ELBOW	BodyParts	7	10	[0, 0, 0]	n/a	catFR1	0	R1026D
1169.372	1.6	1911807	WORD	n/a	wordpools/wordpool_categorized_EN.txt	ARM	BodyParts	8	10	[0, 0, 0]	n/a	catFR1	0	R1026D
1171.856	1.6	1915782	WORD	n/a	wordpools/wordpool_categorized_EN.txt	CELERY	Vegetables	9	10	[0, 0, 0]	n/a	catFR1	0	R1026D
1174.339	1.6	1919754	WORD	n/a	wordpools/wordpool_categorized_EN.txt	PEAS	Vegetables	10	10	[0, 0, 0]	n/a	catFR1	0	R1026D
1176.84	1.6	1923756	WORD	n/a	wordpools/wordpool_categorized_EN.txt	MIXER	Appliances	11	10	[0, 0, 0]	n/a	catFR1	0	R1026D
1179.307	1.6	1927703	WORD	n/a	wordpools/wordpool_categorized_EN.txt	TOASTER	Appliances	12	10	[0, 0, 0]	n/a	catFR1	0	R1026D
1180.924	0.001	1930290	DISTRACT_START	n/a	n/a	n/a	n/a	-999	10	[0, 0, 0]	n/a	catFR1	0	R1026D
1180.925	0.016	1930291	START	n/a	n/a	n/a	n/a	-999	10	[-999, -999, -999]	n/a	catFR1	0	R1026D
1180.941	8.585	1930317	PROB	8.564	n/a	n/a	n/a	-999	10	[9, 4, 3]	16.0	catFR1	0	R1026D
1189.526	4.65	1944052	PROB	4.611	n/a	n/a	n/a	-999	10	[7, 9, 1]	17.0	catFR1	0	R1026D
1194.176	8.089	1951492	PROB	8.089	n/a	n/a	n/a	-999	10	[8, 9, 8]	27.0	catFR1	0	R1026D
1202.265	0.013	1964434	STOP	n/a	n/a	n/a	n/a	-999	10	[-999, -999, -999]	n/a	catFR1	0	R1026D
1202.278	1.051	1964454	DISTRACT_END	n/a	n/a	n/a	n/a	-999	10	[0, 0, 0]	n/a	catFR1	0	R1026D
1203.329	29.994	1966136	REC_START	n/a	n/a	n/a	n/a	-999	10	[0, 0, 0]	n/a	catFR1	0	R1026D
1233.323	0.018	2014124	REC_WORD_VV	29.994	n/a	<>	n/a	-999	10	[0, 0, 0]	n/a	catFR1	0	R1026D
1233.341	28.915	2014153	REC_END	n/a	n/a	n/a	n/a	-999	10	[0, 0, 0]	n/a	catFR1	0	R1026D
1262.256	0.0	2060415	TRIAL	n/a	n/a	n/a	n/a	-999	11	[0, 0, 0]	n/a	catFR1	0	R1026D
1262.256	10.0	2060415	COUNTDOWN_START	n/a	n/a	n/a	n/a	-999	11	[0, 0, 0]	n/a	catFR1	0	R1026D
1272.684	0.007	2077099	COUNTDOWN_END	n/a	n/a	n/a	n/a	-999	11	[0, 0, 0]	n/a	catFR1	0	R1026D
1272.691	1.6	2077110	ORIENT	n/a	n/a	n/a	n/a	-999	11	[0, 0, 0]	n/a	catFR1	0	R1026D
1276.09	1.6	2082548	WORD	n/a	wordpools/wordpool_categorized_EN.txt	APPLE	Fruit	1	11	[0, 0, 0]	n/a	catFR1	0	R1026D
1278.525	1.6	2086444	WORD	n/a	wordpools/wordpool_categorized_EN.txt	STRAWBERRY	Fruit	2	11	[0, 0, 0]	n/a	catFR1	0	R1026D
1280.959	1.6	2090338	WORD	n/a	wordpools/wordpool_categorized_EN.txt	TEA	Beverages	3	11	[0, 0, 0]	n/a	catFR1	0	R1026D
1283.443	1.6	2094312	WORD	n/a	wordpools/wordpool_categorized_EN.txt	RUM	Beverages	4	11	[0, 0, 0]	n/a	catFR1	0	R1026D
1286.027	1.6	2098446	WORD	n/a	wordpools/wordpool_categorized_EN.txt	TIGER	Zoo	5	11	[0, 0, 0]	n/a	catFR1	0	R1026D
1288.427	1.6	2102286	WORD	n/a	wordpools/wordpool_categorized_EN.txt	GIRAFFE	Zoo	6	11	[0, 0, 0]	n/a	catFR1	0	R1026D
1290.811	1.6	2106100	WORD	n/a	wordpools/wordpool_categorized_EN.txt	COLA	Beverages	7	11	[0, 0, 0]	n/a	catFR1	0	R1026D
1293.445	1.6	2110315	WORD	n/a	wordpools/wordpool_categorized_EN.txt	COFFEE	Beverages	8	11	[0, 0, 0]	n/a	catFR1	0	R1026D
1296.029	1.6	2114449	WORD	n/a	wordpools/wordpool_categorized_EN.txt	PEAR	Fruit	9	11	[0, 0, 0]	n/a	catFR1	0	R1026D
1298.612	1.6	2118581	WORD	n/a	wordpools/wordpool_categorized_EN.txt	LEMON	Fruit	10	11	[0, 0, 0]	n/a	catFR1	0	R1026D
1301.046	1.6	2122476	WORD	n/a	wordpools/wordpool_categorized_EN.txt	MONKEY	Zoo	11	11	[0, 0, 0]	n/a	catFR1	0	R1026D
1303.546	1.6	2126475	WORD	n/a	wordpools/wordpool_categorized_EN.txt	BEAR	Zoo	12	11	[0, 0, 0]	n/a	catFR1	0	R1026D
1305.147	0.001	2129037	DISTRACT_START	n/a	n/a	n/a	n/a	-999	11	[0, 0, 0]	n/a	catFR1	0	R1026D
1305.148	0.015	2129038	START	n/a	n/a	n/a	n/a	-999	11	[-999, -999, -999]	n/a	catFR1	0	R1026D
1305.163	4.768	2129062	PROB	4.742	n/a	n/a	n/a	-999	11	[6, 4, 1]	11.0	catFR1	0	R1026D
1309.931	7.851	2136691	PROB	7.822	n/a	n/a	n/a	-999	11	[9, 7, 2]	18.0	catFR1	0	R1026D
1317.782	4.685	2149252	PROB	4.651	n/a	n/a	n/a	-999	11	[2, 3, 2]	7.0	catFR1	0	R1026D
1322.467	9.054	2156747	PROB	9.054	n/a	n/a	n/a	-999	11	[8, 1, 8]	17.0	catFR1	0	R1026D
1331.521	0.014	2171233	STOP	n/a	n/a	n/a	n/a	-999	11	[-999, -999, -999]	n/a	catFR1	0	R1026D
1331.535	1.118	2171256	DISTRACT_END	n/a	n/a	n/a	n/a	-999	11	[0, 0, 0]	n/a	catFR1	0	R1026D
1332.653	2.784	2173044	REC_START	n/a	n/a	n/a	n/a	-999	11	[0, 0, 0]	n/a	catFR1	0	R1026D
1335.437	0.722	2177498	REC_WORD	2.784	n/a	APPLE	Fruit	1	11	[0, 0, 0]	n/a	catFR1	0	R1026D
1336.159	2.708	2178654	REC_WORD	3.506	n/a	STRAWBERRY	Fruit	2	11	[0, 0, 0]	n/a	catFR1	0	R1026D
1338.867	1.07	2182986	REC_WORD	6.214	n/a	TEA	Beverages	3	11	[0, 0, 0]	n/a	catFR1	0	R1026D
1339.937	2.158	2184698	REC_WORD	7.284	n/a	MOUNTAIN	n/a	-999	11	[0, 0, 0]	n/a	catFR1	0	R1026D
1342.095	5.407	2188151	REC_WORD	9.442	n/a	TIGER	Zoo	5	11	[0, 0, 0]	n/a	catFR1	0	R1026D
1347.502	2.152	2196801	REC_WORD	14.849	n/a	COFFEE	Beverages	8	11	[0, 0, 0]	n/a	catFR1	0	R1026D
1349.654	13.011	2200244	REC_WORD	17.001	n/a	LEMON	Fruit	10	11	[0, 0, 0]	n/a	catFR1	0	R1026D
1362.665	6.26	2221061	REC_END	n/a	n/a	n/a	n/a	-999	11	[0, 0, 0]	n/a	catFR1	0	R1026D
1368.925	0.0	2231077	TRIAL	n/a	n/a	n/a	n/a	-999	12	[0, 0, 0]	n/a	catFR1	0	R1026D
1368.925	10.0	2231077	COUNTDOWN_START	n/a	n/a	n/a	n/a	-999	12	[0, 0, 0]	n/a	catFR1	0	R1026D
1379.353	0.008	2247761	COUNTDOWN_END	n/a	n/a	n/a	n/a	-999	12	[0, 0, 0]	n/a	catFR1	0	R1026D
1379.361	1.6	2247773	ORIENT	n/a	n/a	n/a	n/a	-999	12	[0, 0, 0]	n/a	catFR1	0	R1026D
1383.161	1.6	2253853	WORD	n/a	wordpools/wordpool_categorized_EN.txt	PINE	Trees	1	12	[0, 0, 0]	n/a	catFR1	0	R1026D
1385.712	1.6	2257934	WORD	n/a	wordpools/wordpool_categorized_EN.txt	MAPLE	Trees	2	12	[0, 0, 0]	n/a	catFR1	0	R1026D
1388.262	1.6	2262014	WORD	n/a	wordpools/wordpool_categorized_EN.txt	MOTORCYCLE	Vehicles	3	12	[0, 0, 0]	n/a	catFR1	0	R1026D
1390.679	1.6	2265881	WORD	n/a	wordpools/wordpool_categorized_EN.txt	CAR	Vehicles	4	12	[0, 0, 0]	n/a	catFR1	0	R1026D
1393.213	1.6	2269935	WORD	n/a	wordpools/wordpool_categorized_EN.txt	PENCIL	OfficeSupplies	5	12	[0, 0, 0]	n/a	catFR1	0	R1026D
1395.747	1.6	2273990	WORD	n/a	wordpools/wordpool_categorized_EN.txt	GLUE	OfficeSupplies	6	12	[0, 0, 0]	n/a	catFR1	0	R1026D
1398.131	1.6	2277804	WORD	n/a	wordpools/wordpool_categorized_EN.txt	BIKE	Vehicles	7	12	[0, 0, 0]	n/a	catFR1	0	R1026D
1400.598	1.6	2281751	WORD	n/a	wordpools/wordpool_categorized_EN.txt	TRUCK	Vehicles	8	12	[0, 0, 0]	n/a	catFR1	0	R1026D
1403.048	1.6	2285671	WORD	n/a	wordpools/wordpool_categorized_EN.txt	OAK	Trees	9	12	[0, 0, 0]	n/a	catFR1	0	R1026D
1405.465	1.6	2289538	WORD	n/a	wordpools/wordpool_categorized_EN.txt	WALNUT	Trees	10	12	[0, 0, 0]	n/a	catFR1	0	R1026D
1407.849	1.6	2293352	WORD	n/a	wordpools/wordpool_categorized_EN.txt	BINDER	OfficeSupplies	11	12	[0, 0, 0]	n/a	catFR1	0	R1026D
1410.266	1.6	2297219	WORD	n/a	wordpools/wordpool_categorized_EN.txt	ERASER	OfficeSupplies	12	12	[0, 0, 0]	n/a	catFR1	0	R1026D
1411.883	0.001	2299806	DISTRACT_START	n/a	n/a	n/a	n/a	-999	12	[0, 0, 0]	n/a	catFR1	0	R1026D
1411.884	0.016	2299808	START	n/a	n/a	n/a	n/a	-999	12	[-999, -999, -999]	n/a	catFR1	0	R1026D
1411.9	7.068	2299833	PROB	7.037	n/a	n/a	n/a	-999	12	[2, 5, 2]	9.0	catFR1	0	R1026D
1418.968	3.134	2311141	PROB	3.112	n/a	n/a	n/a	-999	12	[1, 6, 1]	8.0	catFR1	0	R1026D
1422.102	3.9	2316156	PROB	3.867	n/a	n/a	n/a	-999	12	[3, 7, 3]	13.0	catFR1	0	R1026D
1426.002	3.118	2322395	PROB	3.087	n/a	n/a	n/a	-999	12	[2, 1, 9]	12.0	catFR1	0	R1026D
1429.12	7.505	2327384	PROB	7.505	n/a	n/a	n/a	-999	12	[3, 4, 9]	16.0	catFR1	0	R1026D
1436.625	0.013	2339391	STOP	n/a	n/a	n/a	n/a	-999	12	[-999, -999, -999]	n/a	catFR1	0	R1026D
1436.638	1.051	2339412	DISTRACT_END	n/a	n/a	n/a	n/a	-999	12	[0, 0, 0]	n/a	catFR1	0	R1026D
1437.689	3.124	2341094	REC_START	n/a	n/a	n/a	n/a	-999	12	[0, 0, 0]	n/a	catFR1	0	R1026D
1440.813	1.183	2346092	REC_WORD	3.124	n/a	PINE	Trees	1	12	[0, 0, 0]	n/a	catFR1	0	R1026D
1441.996	2.511	2347984	REC_WORD	4.307	n/a	MAPLE	Trees	2	12	[0, 0, 0]	n/a	catFR1	0	R1026D
1444.507	3.939	2352002	REC_WORD	6.818	n/a	MOTORCYCLE	Vehicles	3	12	[0, 0, 0]	n/a	catFR1	0	R1026D
1448.446	2.479	2358304	REC_WORD	10.757	n/a	GLUE	OfficeSupplies	6	12	[0, 0, 0]	n/a	catFR1	0	R1026D
1450.925	10.128	2362270	REC_WORD	13.236	n/a	OAK	Trees	9	12	[0, 0, 0]	n/a	catFR1	0	R1026D
1461.053	6.648	2378474	REC_WORD	23.364	n/a	WALNUT	Trees	10	12	[0, 0, 0]	n/a	catFR1	0	R1026D
1467.701	6.16	2389110	REC_END	n/a	n/a	n/a	n/a	-999	12	[0, 0, 0]	n/a	catFR1	0	R1026D
1473.861	0.0	2398966	TRIAL	n/a	n/a	n/a	n/a	-999	13	[0, 0, 0]	n/a	catFR1	0	R1026D
1473.861	10.0	2398966	COUNTDOWN_START	n/a	n/a	n/a	n/a	-999	13	[0, 0, 0]	n/a	catFR1	0	R1026D
1484.289	0.007	2415650	COUNTDOWN_END	n/a	n/a	n/a	n/a	-999	13	[0, 0, 0]	n/a	catFR1	0	R1026D
1484.296	1.6	2415661	ORIENT	n/a	n/a	n/a	n/a	-999	13	[0, 0, 0]	n/a	catFR1	0	R1026D
1487.997	1.6	2421582	WORD	n/a	wordpools/wordpool_categorized_EN.txt	DRUM	Instruments	1	13	[0, 0, 0]	n/a	catFR1	0	R1026D
1490.414	1.6	2425449	WORD	n/a	wordpools/wordpool_categorized_EN.txt	FLUTE	Instruments	2	13	[0, 0, 0]	n/a	catFR1	0	R1026D
1493.031	1.6	2429636	WORD	n/a	wordpools/wordpool_categorized_EN.txt	POTATO	Vegetables	3	13	[0, 0, 0]	n/a	catFR1	0	R1026D
1495.498	1.6	2433583	WORD	n/a	wordpools/wordpool_categorized_EN.txt	LETTUCE	Vegetables	4	13	[0, 0, 0]	n/a	catFR1	0	R1026D
1497.899	1.6	2437425	WORD	n/a	wordpools/wordpool_categorized_EN.txt	WIND	Weather	5	13	[0, 0, 0]	n/a	catFR1	0	R1026D
1500.316	1.6	2441292	WORD	n/a	wordpools/wordpool_categorized_EN.txt	SNOW	Weather	6	13	[0, 0, 0]	n/a	catFR1	0	R1026D
1502.75	1.6	2445186	WORD	n/a	wordpools/wordpool_categorized_EN.txt	BASS	Instruments	7	13	[0, 0, 0]	n/a	catFR1	0	R1026D
1505.167	1.6	2449053	WORD	n/a	wordpools/wordpool_categorized_EN.txt	CELLO	Instruments	8	13	[0, 0, 0]	n/a	catFR1	0	R1026D
1507.767	1.6	2453213	WORD	n/a	wordpools/wordpool_categorized_EN.txt	LIGHTNING	Weather	9	13	[0, 0, 0]	n/a	catFR1	0	R1026D
1510.201	1.6	2457107	WORD	n/a	wordpools/wordpool_categorized_EN.txt	CLOUD	Weather	10	13	[0, 0, 0]	n/a	catFR1	0	R1026D
1512.602	1.6	2460948	WORD	n/a	wordpools/wordpool_categorized_EN.txt	CAULIFLOWER	Vegetables	11	13	[0, 0, 0]	n/a	catFR1	0	R1026D
1515.102	1.6	2464948	WORD	n/a	wordpools/wordpool_categorized_EN.txt	ONION	Vegetables	12	13	[0, 0, 0]	n/a	catFR1	0	R1026D
1516.719	0.001	2467535	DISTRACT_START	n/a	n/a	n/a	n/a	-999	13	[0, 0, 0]	n/a	catFR1	0	R1026D
1516.72	0.016	2467537	START	n/a	n/a	n/a	n/a	-999	13	[-999, -999, -999]	n/a	catFR1	0	R1026D
1516.736	5.918	2467562	PROB	5.881	n/a	n/a	n/a	-999	13	[1, 3, 4]	8.0	catFR1	0	R1026D
1522.654	5.934	2477031	PROB	5.899	n/a	n/a	n/a	-999	13	[1, 3, 6]	10.0	catFR1	0	R1026D
1528.588	5.284	2486525	PROB	5.253	n/a	n/a	n/a	-999	13	[9, 4, 9]	22.0	catFR1	0	R1026D
1533.872	8.137	2494979	PROB	8.137	n/a	n/a	n/a	-999	13	[3, 5, 4]	12.0	catFR1	0	R1026D
1542.009	0.015	2507997	STOP	n/a	n/a	n/a	n/a	-999	13	[-999, -999, -999]	n/a	catFR1	0	R1026D
1542.024	1.167	2508021	DISTRACT_END	n/a	n/a	n/a	n/a	-999	13	[0, 0, 0]	n/a	catFR1	0	R1026D
1543.191	2.508	2509888	REC_START	n/a	n/a	n/a	n/a	-999	13	[0, 0, 0]	n/a	catFR1	0	R1026D
1545.699	0.917	2513901	REC_WORD	2.508	n/a	DRUM	Instruments	1	13	[0, 0, 0]	n/a	catFR1	0	R1026D
1546.616	1.283	2515368	REC_WORD	3.425	n/a	FLUTE	Instruments	2	13	[0, 0, 0]	n/a	catFR1	0	R1026D
1547.899	1.831	2517421	REC_WORD	4.708	n/a	POTATO	Vegetables	3	13	[0, 0, 0]	n/a	catFR1	0	R1026D
1549.73	1.559	2520350	REC_WORD	6.539	n/a	WIND	Weather	5	13	[0, 0, 0]	n/a	catFR1	0	R1026D
1551.289	6.682	2522845	REC_WORD	8.098	n/a	SNOW	Weather	6	13	[0, 0, 0]	n/a	catFR1	0	R1026D
1557.971	4.833	2533535	REC_WORD	14.78	n/a	LETTUCE	Vegetables	4	13	[0, 0, 0]	n/a	catFR1	0	R1026D
1562.804	10.402	2541268	REC_WORD	19.613	n/a	CELLO	Instruments	8	13	[0, 0, 0]	n/a	catFR1	0	R1026D
1573.206	5.991	2557910	REC_END	n/a	n/a	n/a	n/a	-999	13	[0, 0, 0]	n/a	catFR1	0	R1026D
1579.197	0.0	2567495	TRIAL	n/a	n/a	n/a	n/a	-999	14	[0, 0, 0]	n/a	catFR1	0	R1026D
1579.197	10.0	2567495	COUNTDOWN_START	n/a	n/a	n/a	n/a	-999	14	[0, 0, 0]	n/a	catFR1	0	R1026D
1589.625	0.007	2584179	COUNTDOWN_END	n/a	n/a	n/a	n/a	-999	14	[0, 0, 0]	n/a	catFR1	0	R1026D
1589.632	1.6	2584190	ORIENT	n/a	n/a	n/a	n/a	-999	14	[0, 0, 0]	n/a	catFR1	0	R1026D
1593.567	1.6	2590486	WORD	n/a	wordpools/wordpool_categorized_EN.txt	SHELF	Furniture	1	14	[0, 0, 0]	n/a	catFR1	0	R1026D
1595.984	1.6	2594353	WORD	n/a	wordpools/wordpool_categorized_EN.txt	BOOKCASE	Furniture	2	14	[0, 0, 0]	n/a	catFR1	0	R1026D
1598.384	1.6	2598193	WORD	n/a	wordpools/wordpool_categorized_EN.txt	SQUID	OceanAnimals	3	14	[0, 0, 0]	n/a	catFR1	0	R1026D
1600.918	1.6	2602247	WORD	n/a	wordpools/wordpool_categorized_EN.txt	OYSTER	OceanAnimals	4	14	[0, 0, 0]	n/a	catFR1	0	R1026D
1603.418	1.6	2606247	WORD	n/a	wordpools/wordpool_categorized_EN.txt	GUITAR	Instruments	5	14	[0, 0, 0]	n/a	catFR1	0	R1026D
1606.002	1.6	2610381	WORD	n/a	wordpools/wordpool_categorized_EN.txt	TROMBONE	Instruments	6	14	[0, 0, 0]	n/a	catFR1	0	R1026D
1608.503	1.6	2614382	WORD	n/a	wordpools/wordpool_categorized_EN.txt	SOFA	Furniture	7	14	[0, 0, 0]	n/a	catFR1	0	R1026D
1611.07	1.6	2618489	WORD	n/a	wordpools/wordpool_categorized_EN.txt	CABINET	Furniture	8	14	[0, 0, 0]	n/a	catFR1	0	R1026D
1613.453	1.6	2622302	WORD	n/a	wordpools/wordpool_categorized_EN.txt	ORGAN	Instruments	9	14	[0, 0, 0]	n/a	catFR1	0	R1026D
1616.004	1.6	2626383	WORD	n/a	wordpools/wordpool_categorized_EN.txt	TUBA	Instruments	10	14	[0, 0, 0]	n/a	catFR1	0	R1026D
1618.437	1.6	2630276	WORD	n/a	wordpools/wordpool_categorized_EN.txt	JELLYFISH	OceanAnimals	11	14	[0, 0, 0]	n/a	catFR1	0	R1026D
1620.955	1.6	2634305	WORD	n/a	wordpools/wordpool_categorized_EN.txt	LOBSTER	OceanAnimals	12	14	[0, 0, 0]	n/a	catFR1	0	R1026D
1622.572	0.001	2636892	DISTRACT_START	n/a	n/a	n/a	n/a	-999	14	[0, 0, 0]	n/a	catFR1	0	R1026D
1622.573	0.016	2636893	START	n/a	n/a	n/a	n/a	-999	14	[-999, -999, -999]	n/a	catFR1	0	R1026D
1622.589	6.001	2636919	PROB	5.98	n/a	n/a	n/a	-999	14	[1, 7, 6]	14.0	catFR1	0	R1026D
1628.59	8.451	2646520	PROB	8.419	n/a	n/a	n/a	-999	14	[9, 3, 2]	14.0	catFR1	0	R1026D
1637.041	7.256	2660041	PROB	7.256	n/a	n/a	n/a	-999	14	[3, 1, 5]	9.0	catFR1	0	R1026D
1644.297	0.012	2671650	STOP	n/a	n/a	n/a	n/a	-999	14	[-999, -999, -999]	n/a	catFR1	0	R1026D
1644.309	1.084	2671669	DISTRACT_END	n/a	n/a	n/a	n/a	-999	14	[0, 0, 0]	n/a	catFR1	0	R1026D
1645.393	30.0	2673404	REC_START	n/a	n/a	n/a	n/a	-999	14	[0, 0, 0]	n/a	catFR1	0	R1026D
1675.393	0.011	2721401	REC_WORD_VV	30.0	n/a	<>	n/a	-999	14	[0, 0, 0]	n/a	catFR1	0	R1026D
1675.404	43.469	2721419	REC_END	n/a	n/a	n/a	n/a	-999	14	[0, 0, 0]	n/a	catFR1	0	R1026D
1718.873	0.0	2790966	TRIAL	n/a	n/a	n/a	n/a	-999	15	[0, 0, 0]	n/a	catFR1	0	R1026D
1718.873	10.0	2790966	COUNTDOWN_START	n/a	n/a	n/a	n/a	-999	15	[0, 0, 0]	n/a	catFR1	0	R1026D
1729.301	0.007	2807650	COUNTDOWN_END	n/a	n/a	n/a	n/a	-999	15	[0, 0, 0]	n/a	catFR1	0	R1026D
1729.308	1.6	2807661	ORIENT	n/a	n/a	n/a	n/a	-999	15	[0, 0, 0]	n/a	catFR1	0	R1026D
1732.976	1.6	2813529	WORD	n/a	wordpools/wordpool_categorized_EN.txt	DRESS	Clothing	1	15	[0, 0, 0]	n/a	catFR1	0	R1026D
1735.376	1.6	2817369	WORD	n/a	wordpools/wordpool_categorized_EN.txt	SKIRT	Clothing	2	15	[0, 0, 0]	n/a	catFR1	0	R1026D
1737.976	1.6	2821529	WORD	n/a	wordpools/wordpool_categorized_EN.txt	PEELER	KitchenTools	3	15	[0, 0, 0]	n/a	catFR1	0	R1026D
1740.594	1.6	2825718	WORD	n/a	wordpools/wordpool_categorized_EN.txt	GRATER	KitchenTools	4	15	[0, 0, 0]	n/a	catFR1	0	R1026D
1743.027	1.6	2829610	WORD	n/a	wordpools/wordpool_categorized_EN.txt	ORCHID	Flowers	5	15	[0, 0, 0]	n/a	catFR1	0	R1026D
1745.578	1.6	2833692	WORD	n/a	wordpools/wordpool_categorized_EN.txt	MARIGOLD	Flowers	6	15	[0, 0, 0]	n/a	catFR1	0	R1026D
1748.128	1.6	2837771	WORD	n/a	wordpools/wordpool_categorized_EN.txt	SPOON	KitchenTools	7	15	[0, 0, 0]	n/a	catFR1	0	R1026D
1750.595	1.6	2841718	WORD	n/a	wordpools/wordpool_categorized_EN.txt	KNIFE	KitchenTools	8	15	[0, 0, 0]	n/a	catFR1	0	R1026D
1753.078	1.6	2845691	WORD	n/a	wordpools/wordpool_categorized_EN.txt	SHOES	Clothing	9	15	[0, 0, 0]	n/a	catFR1	0	R1026D
1755.463	1.6	2849507	WORD	n/a	wordpools/wordpool_categorized_EN.txt	JACKET	Clothing	10	15	[0, 0, 0]	n/a	catFR1	0	R1026D
1757.897	1.6	2853401	WORD	n/a	wordpools/wordpool_categorized_EN.txt	DAISY	Flowers	11	15	[0, 0, 0]	n/a	catFR1	0	R1026D
1760.497	1.6	2857561	WORD	n/a	wordpools/wordpool_categorized_EN.txt	TULIP	Flowers	12	15	[0, 0, 0]	n/a	catFR1	0	R1026D
1762.114	0.001	2860148	DISTRACT_START	n/a	n/a	n/a	n/a	-999	15	[0, 0, 0]	n/a	catFR1	0	R1026D
1762.115	0.016	2860150	START	n/a	n/a	n/a	n/a	-999	15	[-999, -999, -999]	n/a	catFR1	0	R1026D
1762.131	13.586	2860175	PROB	13.551	n/a	n/a	n/a	-999	15	[5, 7, 5]	17.0	catFR1	0	R1026D
1775.717	6.908	2881912	PROB	6.908	n/a	n/a	n/a	-999	15	[3, 5, 8]	16.0	catFR1	0	R1026D
1782.625	0.01	2892964	STOP	n/a	n/a	n/a	n/a	-999	15	[-999, -999, -999]	n/a	catFR1	0	R1026D
1782.635	1.167	2892980	DISTRACT_END	n/a	n/a	n/a	n/a	-999	15	[0, 0, 0]	n/a	catFR1	0	R1026D
1783.802	6.004	2894847	REC_START	n/a	n/a	n/a	n/a	-999	15	[0, 0, 0]	n/a	catFR1	0	R1026D
1789.806	1.808	2904453	REC_WORD	6.004	n/a	PEELER	KitchenTools	3	15	[0, 0, 0]	n/a	catFR1	0	R1026D
1791.614	4.194	2907346	REC_WORD	7.812	n/a	GRATER	KitchenTools	4	15	[0, 0, 0]	n/a	catFR1	0	R1026D
1795.808	18.01	2914056	REC_WORD	12.006	n/a	SLICER	n/a	-999	15	[0, 0, 0]	n/a	catFR1	0	R1026D
1813.818	8.691	2942870	REC_END	n/a	n/a	n/a	n/a	-999	15	[0, 0, 0]	n/a	catFR1	0	R1026D
1822.509	0.0	2956775	TRIAL	n/a	n/a	n/a	n/a	-999	16	[0, 0, 0]	n/a	catFR1	0	R1026D
1822.509	10.0	2956775	COUNTDOWN_START	n/a	n/a	n/a	n/a	-999	16	[0, 0, 0]	n/a	catFR1	0	R1026D
1832.937	0.007	2973459	COUNTDOWN_END	n/a	n/a	n/a	n/a	-999	16	[0, 0, 0]	n/a	catFR1	0	R1026D
1832.944	1.6	2973470	ORIENT	n/a	n/a	n/a	n/a	-999	16	[0, 0, 0]	n/a	catFR1	0	R1026D
1836.645	1.6	2979392	WORD	n/a	wordpools/wordpool_categorized_EN.txt	DOLPHIN	OceanAnimals	1	16	[0, 0, 0]	n/a	catFR1	0	R1026D
1839.095	1.6	2983311	WORD	n/a	wordpools/wordpool_categorized_EN.txt	OCTOPUS	OceanAnimals	2	16	[0, 0, 0]	n/a	catFR1	0	R1026D
1841.595	1.6	2987311	WORD	n/a	wordpools/wordpool_categorized_EN.txt	JELLO	Desserts	3	16	[0, 0, 0]	n/a	catFR1	0	R1026D
1844.046	1.6	2991233	WORD	n/a	wordpools/wordpool_categorized_EN.txt	COBBLER	Desserts	4	16	[0, 0, 0]	n/a	catFR1	0	R1026D
1846.563	1.6	2995260	WORD	n/a	wordpools/wordpool_categorized_EN.txt	WASHER	Appliances	5	16	[0, 0, 0]	n/a	catFR1	0	R1026D
1848.947	1.6	2999074	WORD	n/a	wordpools/wordpool_categorized_EN.txt	DISHWASHER	Appliances	6	16	[0, 0, 0]	n/a	catFR1	0	R1026D
1851.414	1.6	3003021	WORD	n/a	wordpools/wordpool_categorized_EN.txt	TURTLE	OceanAnimals	7	16	[0, 0, 0]	n/a	catFR1	0	R1026D
1853.814	1.6	3006861	WORD	n/a	wordpools/wordpool_categorized_EN.txt	PLANKTON	OceanAnimals	8	16	[0, 0, 0]	n/a	catFR1	0	R1026D
1856.332	1.6	3010889	WORD	n/a	wordpools/wordpool_categorized_EN.txt	FREEZER	Appliances	9	16	[0, 0, 0]	n/a	catFR1	0	R1026D
1858.899	1.6	3014996	WORD	n/a	wordpools/wordpool_categorized_EN.txt	REFRIGERATOR	Appliances	10	16	[0, 0, 0]	n/a	catFR1	0	R1026D
1861.466	1.6	3019103	WORD	n/a	wordpools/wordpool_categorized_EN.txt	PUDDING	Desserts	11	16	[0, 0, 0]	n/a	catFR1	0	R1026D
1863.883	1.6	3022970	WORD	n/a	wordpools/wordpool_categorized_EN.txt	BROWNIES	Desserts	12	16	[0, 0, 0]	n/a	catFR1	0	R1026D
1865.5	0.001	3025557	DISTRACT_START	n/a	n/a	n/a	n/a	-999	16	[0, 0, 0]	n/a	catFR1	0	R1026D
1865.501	0.016	3025559	START	n/a	n/a	n/a	n/a	-999	16	[-999, -999, -999]	n/a	catFR1	0	R1026D
1865.517	10.151	3025585	PROB	10.124	n/a	n/a	n/a	-999	16	[2, 2, 8]	12.0	catFR1	0	R1026D
1875.668	5.885	3041825	PROB	5.861	n/a	n/a	n/a	-999	16	[5, 2, 6]	13.0	catFR1	0	R1026D
1881.553	4.36	3051241	PROB	4.36	n/a	n/a	n/a	-999	16	[6, 1, 7]	14.0	catFR1	0	R1026D
1885.913	0.007	3058217	STOP	n/a	n/a	n/a	n/a	-999	16	[-999, -999, -999]	n/a	catFR1	0	R1026D
1885.92	1.052	3058228	DISTRACT_END	n/a	n/a	n/a	n/a	-999	16	[0, 0, 0]	n/a	catFR1	0	R1026D
1886.972	4.529	3059911	REC_START	n/a	n/a	n/a	n/a	-999	16	[0, 0, 0]	n/a	catFR1	0	R1026D
1891.501	1.773	3067157	REC_WORD	4.529	n/a	TURTLE	OceanAnimals	7	16	[0, 0, 0]	n/a	catFR1	0	R1026D
1893.274	3.042	3069994	REC_WORD	6.302	n/a	PLANKTON	OceanAnimals	8	16	[0, 0, 0]	n/a	catFR1	0	R1026D
1896.316	4.413	3074861	REC_WORD	9.344	n/a	OCTOPUS	OceanAnimals	2	16	[0, 0, 0]	n/a	catFR1	0	R1026D
1900.729	2.458	3081921	REC_WORD	13.757	n/a	JELLO	Desserts	3	16	[0, 0, 0]	n/a	catFR1	0	R1026D
1903.187	1.803	3085854	REC_WORD	16.215	n/a	FREEZER	Appliances	9	16	[0, 0, 0]	n/a	catFR1	0	R1026D
1904.99	11.993	3088738	REC_WORD	18.018	n/a	REFRIGERATOR	Appliances	10	16	[0, 0, 0]	n/a	catFR1	0	R1026D
1916.983	72.94	3107926	REC_END	n/a	n/a	n/a	n/a	-999	16	[0, 0, 0]	n/a	catFR1	0	R1026D
1989.923	0.0	3224624	TRIAL	n/a	n/a	n/a	n/a	-999	17	[0, 0, 0]	n/a	catFR1	0	R1026D
1989.923	10.0	3224624	COUNTDOWN_START	n/a	n/a	n/a	n/a	-999	17	[0, 0, 0]	n/a	catFR1	0	R1026D
7894.434	0.0	-1	SESSION_SKIPPED	n/a	n/a	n/a	n/a	-999	17	[0, 0, 0]	n/a	catFR1	0	R1026D
