onset	duration	sample	trial_type	response_time	stim_file	item_name	category	serialpos	list	test	answer	experiment	session	subject
0.0	0.0	298447	INSTRUCT_START	n/a	n/a	n/a	n/a	-999	-999	[0, 0, 0]	n/a	catFR1	3	R1226D
0.0	11.191	298447	INSTRUCT_END	n/a	n/a	n/a	n/a	-999	-999	[0, 0, 0]	n/a	catFR1	3	R1226D
11.191	0.0	309637	SESS_START	n/a	n/a	n/a	n/a	-999	-999	[0, 0, 0]	n/a	catFR1	3	R1226D
11.191	13.001	309637	MIC_TEST	n/a	n/a	n/a	n/a	-999	-999	[0, 0, 0]	n/a	catFR1	3	R1226D
24.192	3.479	322637	PRACTICE_TRIAL	n/a	n/a	n/a	n/a	-999	-1	[0, 0, 0]	n/a	catFR1	3	R1226D
27.671	10.0	326116	COUNTDOWN_START	n/a	n/a	n/a	n/a	-999	-1	[0, 0, 0]	n/a	catFR1	3	R1226D
38.099	0.008	336543	COUNTDOWN_END	n/a	n/a	n/a	n/a	-999	-1	[0, 0, 0]	n/a	catFR1	3	R1226D
38.107	1.6	336551	PRACTICE_ORIENT	n/a	n/a	n/a	n/a	-999	-1	[0, 0, 0]	n/a	catFR1	3	R1226D
39.725	2.0	338169	PRACTICE_ORIENT_OFF	n/a	n/a	n/a	n/a	-999	-1	[0, 0, 0]	n/a	catFR1	3	R1226D
41.725	1.6	340169	PRACTICE_WORD	n/a	n/a	WAGON	n/a	-1	-1	[0, 0, 0]	n/a	catFR1	3	R1226D
43.341	0.817	341785	PRACTICE_WORD_OFF	n/a	n/a	WAGON	n/a	-999	-1	[0, 0, 0]	n/a	catFR1	3	R1226D
44.158	1.6	342602	PRACTICE_WORD	n/a	n/a	WATCH	n/a	-1	-1	[0, 0, 0]	n/a	catFR1	3	R1226D
45.775	0.867	344219	PRACTICE_WORD_OFF	n/a	n/a	WATCH	n/a	-999	-1	[0, 0, 0]	n/a	catFR1	3	R1226D
46.642	1.6	345086	PRACTICE_WORD	n/a	n/a	TONGUE	n/a	-1	-1	[0, 0, 0]	n/a	catFR1	3	R1226D
48.259	0.816	346703	PRACTICE_WORD_OFF	n/a	n/a	TONGUE	n/a	-999	-1	[0, 0, 0]	n/a	catFR1	3	R1226D
49.075	1.6	347519	PRACTICE_WORD	n/a	n/a	ATTIC	n/a	-1	-1	[0, 0, 0]	n/a	catFR1	3	R1226D
50.693	0.834	349137	PRACTICE_WORD_OFF	n/a	n/a	ATTIC	n/a	-999	-1	[0, 0, 0]	n/a	catFR1	3	R1226D
51.527	1.6	349971	PRACTICE_WORD	n/a	n/a	IRON	n/a	-1	-1	[0, 0, 0]	n/a	catFR1	3	R1226D
53.143	0.816	351587	PRACTICE_WORD_OFF	n/a	n/a	IRON	n/a	-999	-1	[0, 0, 0]	n/a	catFR1	3	R1226D
53.959	1.6	352403	PRACTICE_WORD	n/a	n/a	CAMEL	n/a	-1	-1	[0, 0, 0]	n/a	catFR1	3	R1226D
55.56	0.818	354003	PRACTICE_WORD_OFF	n/a	n/a	CAMEL	n/a	-999	-1	[0, 0, 0]	n/a	catFR1	3	R1226D
56.378	1.6	354821	PRACTICE_WORD	n/a	n/a	FLOOD	n/a	-1	-1	[0, 0, 0]	n/a	catFR1	3	R1226D
57.994	1.0	356437	PRACTICE_WORD_OFF	n/a	n/a	FLOOD	n/a	-999	-1	[0, 0, 0]	n/a	catFR1	3	R1226D
58.994	1.6	357437	PRACTICE_WORD	n/a	n/a	CHEST	n/a	-1	-1	[0, 0, 0]	n/a	catFR1	3	R1226D
60.612	0.783	359055	PRACTICE_WORD_OFF	n/a	n/a	CHEST	n/a	-999	-1	[0, 0, 0]	n/a	catFR1	3	R1226D
61.395	1.6	359838	PRACTICE_WORD	n/a	n/a	COTTON	n/a	-1	-1	[0, 0, 0]	n/a	catFR1	3	R1226D
63.011	0.884	361454	PRACTICE_WORD_OFF	n/a	n/a	COTTON	n/a	-999	-1	[0, 0, 0]	n/a	catFR1	3	R1226D
63.895	1.6	362338	PRACTICE_WORD	n/a	n/a	RING	n/a	-1	-1	[0, 0, 0]	n/a	catFR1	3	R1226D
65.513	0.983	363956	PRACTICE_WORD_OFF	n/a	n/a	RING	n/a	-999	-1	[0, 0, 0]	n/a	catFR1	3	R1226D
66.496	1.6	364939	PRACTICE_WORD	n/a	n/a	RHINO	n/a	-1	-1	[0, 0, 0]	n/a	catFR1	3	R1226D
68.112	0.834	366555	PRACTICE_WORD_OFF	n/a	n/a	RHINO	n/a	-999	-1	[0, 0, 0]	n/a	catFR1	3	R1226D
68.946	1.6	367389	PRACTICE_WORD	n/a	n/a	BEAM	n/a	-1	-1	[0, 0, 0]	n/a	catFR1	3	R1226D
70.564	0.0	369007	DISTRACT_START	n/a	n/a	n/a	n/a	-999	-1	[0, 0, 0]	n/a	catFR1	3	R1226D
70.564	0.0	369007	PRACTICE_WORD_OFF	n/a	n/a	BEAM	n/a	-999	-1	[0, 0, 0]	n/a	catFR1	3	R1226D
70.564	0.0	369007	ENCODING_END	n/a	n/a	n/a	n/a	-999	-1	[0, 0, 0]	n/a	catFR1	3	R1226D
70.564	0.016	369007	START	n/a	n/a	n/a	n/a	-999	-1	[-999, -999, -999]	n/a	catFR1	3	R1226D
70.58	5.968	369023	PROB	5.94	n/a	n/a	n/a	-999	-1	[3, 2, 5]	10.0	catFR1	3	R1226D
76.548	2.884	374990	PROB	2.86	n/a	n/a	n/a	-999	-1	[3, 8, 8]	19.0	catFR1	3	R1226D
79.432	3.05	377874	PROB	3.023	n/a	n/a	n/a	-999	-1	[9, 8, 3]	20.0	catFR1	3	R1226D
82.482	4.784	380924	PROB	4.748	n/a	n/a	n/a	-999	-1	[8, 3, 5]	16.0	catFR1	3	R1226D
87.266	3.39	385708	PROB	3.39	n/a	n/a	n/a	-999	-1	[1, 8, 4]	13.0	catFR1	3	R1226D
90.656	0.011	389098	STOP	n/a	n/a	n/a	n/a	-999	-1	[-999, -999, -999]	n/a	catFR1	3	R1226D
90.667	0.666	389109	DISTRACT_END	n/a	n/a	n/a	n/a	-999	-1	[0, 0, 0]	n/a	catFR1	3	R1226D
91.333	0.521	389774	RETRIEVAL_ORIENT	n/a	n/a	n/a	n/a	-999	-1	[0, 0, 0]	n/a	catFR1	3	R1226D
91.854	30.01	390295	PRACTICE_REC_START	n/a	n/a	n/a	n/a	-999	-1	[0, 0, 0]	n/a	catFR1	3	R1226D
121.864	16.695	420304	PRACTICE_REC_END	n/a	n/a	n/a	n/a	-999	-1	[0, 0, 0]	n/a	catFR1	3	R1226D
138.559	0.5	436998	TRIAL	n/a	n/a	n/a	n/a	-999	1	[0, 0, 0]	n/a	catFR1	3	R1226D
139.059	10.0	437498	COUNTDOWN_START	n/a	n/a	n/a	n/a	-999	1	[0, 0, 0]	n/a	catFR1	3	R1226D
149.487	0.007	447925	COUNTDOWN_END	n/a	n/a	n/a	n/a	-999	1	[0, 0, 0]	n/a	catFR1	3	R1226D
149.494	1.6	447932	ORIENT	n/a	n/a	n/a	n/a	-999	1	[0, 0, 0]	n/a	catFR1	3	R1226D
151.11	1.851	449548	ORIENT_OFF	n/a	n/a	n/a	n/a	-999	1	[0, 0, 0]	n/a	catFR1	3	R1226D
152.961	1.6	451399	WORD	n/a	wordpools/wordpool_categorized_EN.txt	FORK	KitchenTools	1	1	[0, 0, 0]	n/a	catFR1	3	R1226D
154.579	0.783	453017	WORD_OFF	n/a	n/a	FORK	n/a	1	1	[0, 0, 0]	n/a	catFR1	3	R1226D
155.362	1.6	453800	WORD	n/a	wordpools/wordpool_categorized_EN.txt	TONGS	KitchenTools	2	1	[0, 0, 0]	n/a	catFR1	3	R1226D
156.978	0.984	455416	WORD_OFF	n/a	n/a	TONGS	n/a	2	1	[0, 0, 0]	n/a	catFR1	3	R1226D
157.962	1.6	456400	WORD	n/a	wordpools/wordpool_categorized_EN.txt	OYSTER	OceanAnimals	3	1	[0, 0, 0]	n/a	catFR1	3	R1226D
159.58	0.983	458018	WORD_OFF	n/a	n/a	OYSTER	n/a	3	1	[0, 0, 0]	n/a	catFR1	3	R1226D
160.563	1.6	459001	WORD	n/a	wordpools/wordpool_categorized_EN.txt	SHRIMP	OceanAnimals	4	1	[0, 0, 0]	n/a	catFR1	3	R1226D
162.179	0.867	460617	WORD_OFF	n/a	n/a	SHRIMP	n/a	4	1	[0, 0, 0]	n/a	catFR1	3	R1226D
163.046	1.6	461484	WORD	n/a	wordpools/wordpool_categorized_EN.txt	MAPLE	Trees	5	1	[0, 0, 0]	n/a	catFR1	3	R1226D
164.647	0.967	463084	WORD_OFF	n/a	n/a	MAPLE	n/a	5	1	[0, 0, 0]	n/a	catFR1	3	R1226D
165.614	1.6	464051	WORD	n/a	wordpools/wordpool_categorized_EN.txt	PINE	Trees	6	1	[0, 0, 0]	n/a	catFR1	3	R1226D
167.23	0.934	465667	WORD_OFF	n/a	n/a	PINE	n/a	6	1	[0, 0, 0]	n/a	catFR1	3	R1226D
168.164	1.6	466601	WORD	n/a	wordpools/wordpool_categorized_EN.txt	WHALE	OceanAnimals	7	1	[0, 0, 0]	n/a	catFR1	3	R1226D
169.781	0.834	468218	WORD_OFF	n/a	n/a	WHALE	n/a	7	1	[0, 0, 0]	n/a	catFR1	3	R1226D
170.615	1.6	469052	WORD	n/a	wordpools/wordpool_categorized_EN.txt	SQUID	OceanAnimals	8	1	[0, 0, 0]	n/a	catFR1	3	R1226D
172.231	0.767	470668	WORD_OFF	n/a	n/a	SQUID	n/a	8	1	[0, 0, 0]	n/a	catFR1	3	R1226D
172.998	1.6	471435	WORD	n/a	wordpools/wordpool_categorized_EN.txt	COLANDER	KitchenTools	9	1	[0, 0, 0]	n/a	catFR1	3	R1226D
174.616	0.967	473053	WORD_OFF	n/a	n/a	COLANDER	n/a	9	1	[0, 0, 0]	n/a	catFR1	3	R1226D
175.583	1.6	474020	WORD	n/a	wordpools/wordpool_categorized_EN.txt	SPATULA	KitchenTools	10	1	[0, 0, 0]	n/a	catFR1	3	R1226D
177.199	1.0	475636	WORD_OFF	n/a	n/a	SPATULA	n/a	10	1	[0, 0, 0]	n/a	catFR1	3	R1226D
178.199	1.6	476636	WORD	n/a	wordpools/wordpool_categorized_EN.txt	EVERGREEN	Trees	11	1	[0, 0, 0]	n/a	catFR1	3	R1226D
179.816	0.918	478253	WORD_OFF	n/a	n/a	EVERGREEN	n/a	11	1	[0, 0, 0]	n/a	catFR1	3	R1226D
180.734	1.6	479171	WORD	n/a	wordpools/wordpool_categorized_EN.txt	BIRCH	Trees	12	1	[0, 0, 0]	n/a	catFR1	3	R1226D
182.35	0.0	480786	WORD_OFF	n/a	n/a	BIRCH	n/a	12	1	[0, 0, 0]	n/a	catFR1	3	R1226D
182.35	0.132	480786	ENCODING_END	n/a	n/a	n/a	n/a	-999	1	[0, 0, 0]	n/a	catFR1	3	R1226D
182.482	0.0	480918	DISTRACT_START	n/a	n/a	n/a	n/a	-999	1	[0, 0, 0]	n/a	catFR1	3	R1226D
182.482	0.019	480918	START	n/a	n/a	n/a	n/a	-999	1	[-999, -999, -999]	n/a	catFR1	3	R1226D
182.501	3.416	480937	PROB	3.394	n/a	n/a	n/a	-999	1	[9, 3, 2]	14.0	catFR1	3	R1226D
185.917	5.569	484353	PROB	5.538	n/a	n/a	n/a	-999	1	[9, 8, 7]	24.0	catFR1	3	R1226D
191.486	3.749	489922	PROB	3.712	n/a	n/a	n/a	-999	1	[3, 5, 3]	11.0	catFR1	3	R1226D
195.235	2.584	493671	PROB	2.555	n/a	n/a	n/a	-999	1	[1, 8, 5]	14.0	catFR1	3	R1226D
197.819	2.685	496255	PROB	2.661	n/a	n/a	n/a	-999	1	[9, 4, 1]	14.0	catFR1	3	R1226D
200.504	3.366	498939	PROB	3.366	n/a	n/a	n/a	-999	1	[5, 2, 2]	9.0	catFR1	3	R1226D
203.87	0.017	502305	STOP	n/a	n/a	n/a	n/a	-999	1	[-999, -999, -999]	n/a	catFR1	3	R1226D
203.887	0.534	502322	DISTRACT_END	n/a	n/a	n/a	n/a	-999	1	[0, 0, 0]	n/a	catFR1	3	R1226D
204.421	0.517	502856	RETRIEVAL_ORIENT	n/a	n/a	n/a	n/a	-999	1	[0, 0, 0]	n/a	catFR1	3	R1226D
204.938	1.767	503373	REC_START	n/a	n/a	n/a	n/a	-999	1	[0, 0, 0]	n/a	catFR1	3	R1226D
206.705	1.353	505140	REC_WORD	1.767	n/a	MAPLE	Trees	5	1	[0, 0, 0]	n/a	catFR1	3	R1226D
208.058	1.722	506493	REC_WORD	3.12	n/a	PINE	Trees	6	1	[0, 0, 0]	n/a	catFR1	3	R1226D
209.78	3.415	508215	REC_WORD	4.842	n/a	EVERGREEN	Trees	11	1	[0, 0, 0]	n/a	catFR1	3	R1226D
213.195	2.338	511630	REC_WORD	8.257	n/a	TONGS	KitchenTools	2	1	[0, 0, 0]	n/a	catFR1	3	R1226D
215.533	4.537	513968	REC_WORD	10.595	n/a	SPATULA	KitchenTools	10	1	[0, 0, 0]	n/a	catFR1	3	R1226D
220.07	2.886	518504	REC_WORD	15.132	n/a	COLANDER	KitchenTools	9	1	[0, 0, 0]	n/a	catFR1	3	R1226D
222.956	2.206	521390	REC_WORD	18.018	n/a	SQUID	OceanAnimals	8	1	[0, 0, 0]	n/a	catFR1	3	R1226D
225.162	3.609	523596	REC_WORD	20.224	n/a	SHRIMP	OceanAnimals	4	1	[0, 0, 0]	n/a	catFR1	3	R1226D
228.771	3.07	527205	REC_WORD	23.833	n/a	OYSTER	OceanAnimals	3	1	[0, 0, 0]	n/a	catFR1	3	R1226D
231.841	3.107	530275	REC_WORD	26.903	n/a	WHALE	OceanAnimals	7	1	[0, 0, 0]	n/a	catFR1	3	R1226D
234.948	22.082	533382	REC_END	n/a	n/a	n/a	n/a	-999	1	[0, 0, 0]	n/a	catFR1	3	R1226D
257.03	0.5	555462	TRIAL	n/a	n/a	n/a	n/a	-999	2	[0, 0, 0]	n/a	catFR1	3	R1226D
257.53	10.0	555962	COUNTDOWN_START	n/a	n/a	n/a	n/a	-999	2	[0, 0, 0]	n/a	catFR1	3	R1226D
267.958	0.007	566390	COUNTDOWN_END	n/a	n/a	n/a	n/a	-999	2	[0, 0, 0]	n/a	catFR1	3	R1226D
267.965	1.6	566397	ORIENT	n/a	n/a	n/a	n/a	-999	2	[0, 0, 0]	n/a	catFR1	3	R1226D
269.583	2.151	568015	ORIENT_OFF	n/a	n/a	n/a	n/a	-999	2	[0, 0, 0]	n/a	catFR1	3	R1226D
271.734	1.6	570166	WORD	n/a	wordpools/wordpool_categorized_EN.txt	WRENCH	Tools	1	2	[0, 0, 0]	n/a	catFR1	3	R1226D
273.349	0.884	571780	WORD_OFF	n/a	n/a	WRENCH	n/a	1	2	[0, 0, 0]	n/a	catFR1	3	R1226D
274.233	1.6	572664	WORD	n/a	wordpools/wordpool_categorized_EN.txt	PLIERS	Tools	2	2	[0, 0, 0]	n/a	catFR1	3	R1226D
275.85	1.0	574281	WORD_OFF	n/a	n/a	PLIERS	n/a	2	2	[0, 0, 0]	n/a	catFR1	3	R1226D
276.85	1.6	575281	WORD	n/a	wordpools/wordpool_categorized_EN.txt	ONION	Vegetables	3	2	[0, 0, 0]	n/a	catFR1	3	R1226D
278.468	0.799	576899	WORD_OFF	n/a	n/a	ONION	n/a	3	2	[0, 0, 0]	n/a	catFR1	3	R1226D
279.267	1.6	577698	WORD	n/a	wordpools/wordpool_categorized_EN.txt	CARROT	Vegetables	4	2	[0, 0, 0]	n/a	catFR1	3	R1226D
280.884	0.967	579315	WORD_OFF	n/a	n/a	CARROT	n/a	4	2	[0, 0, 0]	n/a	catFR1	3	R1226D
281.851	1.6	580282	WORD	n/a	wordpools/wordpool_categorized_EN.txt	TRUMPET	Instruments	5	2	[0, 0, 0]	n/a	catFR1	3	R1226D
283.469	0.967	581900	WORD_OFF	n/a	n/a	TRUMPET	n/a	5	2	[0, 0, 0]	n/a	catFR1	3	R1226D
284.436	1.6	582867	WORD	n/a	wordpools/wordpool_categorized_EN.txt	TROMBONE	Instruments	6	2	[0, 0, 0]	n/a	catFR1	3	R1226D
286.052	0.85	584483	WORD_OFF	n/a	n/a	TROMBONE	n/a	6	2	[0, 0, 0]	n/a	catFR1	3	R1226D
286.902	1.6	585333	WORD	n/a	wordpools/wordpool_categorized_EN.txt	BROCCOLI	Vegetables	7	2	[0, 0, 0]	n/a	catFR1	3	R1226D
288.52	0.883	586951	WORD_OFF	n/a	n/a	BROCCOLI	n/a	7	2	[0, 0, 0]	n/a	catFR1	3	R1226D
289.403	1.6	587834	WORD	n/a	wordpools/wordpool_categorized_EN.txt	CELERY	Vegetables	8	2	[0, 0, 0]	n/a	catFR1	3	R1226D
291.019	1.017	589450	WORD_OFF	n/a	n/a	CELERY	n/a	8	2	[0, 0, 0]	n/a	catFR1	3	R1226D
292.036	1.6	590466	WORD	n/a	wordpools/wordpool_categorized_EN.txt	HAMMER	Tools	9	2	[0, 0, 0]	n/a	catFR1	3	R1226D
293.654	0.884	592084	WORD_OFF	n/a	n/a	HAMMER	n/a	9	2	[0, 0, 0]	n/a	catFR1	3	R1226D
294.538	1.6	592968	WORD	n/a	wordpools/wordpool_categorized_EN.txt	DRILL	Tools	10	2	[0, 0, 0]	n/a	catFR1	3	R1226D
296.154	0.766	594584	WORD_OFF	n/a	n/a	DRILL	n/a	10	2	[0, 0, 0]	n/a	catFR1	3	R1226D
296.92	1.6	595350	WORD	n/a	wordpools/wordpool_categorized_EN.txt	BANJO	Instruments	11	2	[0, 0, 0]	n/a	catFR1	3	R1226D
298.522	0.967	596952	WORD_OFF	n/a	n/a	BANJO	n/a	11	2	[0, 0, 0]	n/a	catFR1	3	R1226D
299.489	1.6	597919	WORD	n/a	wordpools/wordpool_categorized_EN.txt	ORGAN	Instruments	12	2	[0, 0, 0]	n/a	catFR1	3	R1226D
301.105	0.0	599535	ENCODING_END	n/a	n/a	n/a	n/a	-999	2	[0, 0, 0]	n/a	catFR1	3	R1226D
301.105	0.102	599535	WORD_OFF	n/a	n/a	ORGAN	n/a	12	2	[0, 0, 0]	n/a	catFR1	3	R1226D
301.207	0.0	599637	DISTRACT_START	n/a	n/a	n/a	n/a	-999	2	[0, 0, 0]	n/a	catFR1	3	R1226D
301.207	0.014	599637	START	n/a	n/a	n/a	n/a	-999	2	[-999, -999, -999]	n/a	catFR1	3	R1226D
301.221	4.701	599651	PROB	4.666	n/a	n/a	n/a	-999	2	[7, 2, 8]	17.0	catFR1	3	R1226D
305.922	4.018	604352	PROB	3.98	n/a	n/a	n/a	-999	2	[3, 2, 1]	6.0	catFR1	3	R1226D
309.94	2.383	608369	PROB	2.346	n/a	n/a	n/a	-999	2	[3, 5, 3]	11.0	catFR1	3	R1226D
312.323	3.235	610752	PROB	3.205	n/a	n/a	n/a	-999	2	[2, 6, 2]	10.0	catFR1	3	R1226D
315.558	2.184	613987	PROB	2.16	n/a	n/a	n/a	-999	2	[2, 1, 1]	4.0	catFR1	3	R1226D
317.742	3.856	616171	PROB	3.856	n/a	n/a	n/a	-999	2	[8, 6, 8]	22.0	catFR1	3	R1226D
321.598	0.012	620027	STOP	n/a	n/a	n/a	n/a	-999	2	[-999, -999, -999]	n/a	catFR1	3	R1226D
321.61	0.698	620039	DISTRACT_END	n/a	n/a	n/a	n/a	-999	2	[0, 0, 0]	n/a	catFR1	3	R1226D
322.308	0.517	620737	RETRIEVAL_ORIENT	n/a	n/a	n/a	n/a	-999	2	[0, 0, 0]	n/a	catFR1	3	R1226D
322.825	1.525	621254	REC_START	n/a	n/a	n/a	n/a	-999	2	[0, 0, 0]	n/a	catFR1	3	R1226D
324.35	1.82	622779	REC_WORD	1.525	n/a	WRENCH	Tools	1	2	[0, 0, 0]	n/a	catFR1	3	R1226D
326.17	2.761	624599	REC_WORD	3.345	n/a	PLIERS	Tools	2	2	[0, 0, 0]	n/a	catFR1	3	R1226D
328.931	2.772	627359	REC_WORD	6.106	n/a	ORGAN	Instruments	12	2	[0, 0, 0]	n/a	catFR1	3	R1226D
331.703	17.199	630131	REC_WORD	8.878	n/a	PIANO	n/a	-999	2	[0, 0, 0]	n/a	catFR1	3	R1226D
348.902	3.934	647329	REC_WORD_VV	26.077	n/a	<>	n/a	-999	2	[0, 0, 0]	n/a	catFR1	3	R1226D
352.836	6.512	651263	REC_END	n/a	n/a	n/a	n/a	-999	2	[0, 0, 0]	n/a	catFR1	3	R1226D
359.348	0.5	657775	TRIAL	n/a	n/a	n/a	n/a	-999	3	[0, 0, 0]	n/a	catFR1	3	R1226D
359.848	10.0	658275	COUNTDOWN_START	n/a	n/a	n/a	n/a	-999	3	[0, 0, 0]	n/a	catFR1	3	R1226D
370.276	0.008	668702	COUNTDOWN_END	n/a	n/a	n/a	n/a	-999	3	[0, 0, 0]	n/a	catFR1	3	R1226D
370.284	1.6	668710	ORIENT	n/a	n/a	n/a	n/a	-999	3	[0, 0, 0]	n/a	catFR1	3	R1226D
371.901	2.067	670327	ORIENT_OFF	n/a	n/a	n/a	n/a	-999	3	[0, 0, 0]	n/a	catFR1	3	R1226D
373.968	1.6	672394	WORD	n/a	wordpools/wordpool_categorized_EN.txt	PENCIL	OfficeSupplies	1	3	[0, 0, 0]	n/a	catFR1	3	R1226D
375.586	0.95	674012	WORD_OFF	n/a	n/a	PENCIL	n/a	1	3	[0, 0, 0]	n/a	catFR1	3	R1226D
376.536	1.6	674962	WORD	n/a	wordpools/wordpool_categorized_EN.txt	MARKER	OfficeSupplies	2	3	[0, 0, 0]	n/a	catFR1	3	R1226D
378.152	0.867	676578	WORD_OFF	n/a	n/a	MARKER	n/a	2	3	[0, 0, 0]	n/a	catFR1	3	R1226D
379.019	1.6	677445	WORD	n/a	wordpools/wordpool_categorized_EN.txt	HURRICANE	Weather	3	3	[0, 0, 0]	n/a	catFR1	3	R1226D
380.637	0.867	679063	WORD_OFF	n/a	n/a	HURRICANE	n/a	3	3	[0, 0, 0]	n/a	catFR1	3	R1226D
381.504	1.6	679930	WORD	n/a	wordpools/wordpool_categorized_EN.txt	HUMIDITY	Weather	4	3	[0, 0, 0]	n/a	catFR1	3	R1226D
383.12	1.0	681545	WORD_OFF	n/a	n/a	HUMIDITY	n/a	4	3	[0, 0, 0]	n/a	catFR1	3	R1226D
384.12	1.6	682545	WORD	n/a	wordpools/wordpool_categorized_EN.txt	CABINET	Furniture	5	3	[0, 0, 0]	n/a	catFR1	3	R1226D
385.738	0.833	684163	WORD_OFF	n/a	n/a	CABINET	n/a	5	3	[0, 0, 0]	n/a	catFR1	3	R1226D
386.571	1.6	684996	WORD	n/a	wordpools/wordpool_categorized_EN.txt	CHAIR	Furniture	6	3	[0, 0, 0]	n/a	catFR1	3	R1226D
388.187	0.884	686612	WORD_OFF	n/a	n/a	CHAIR	n/a	6	3	[0, 0, 0]	n/a	catFR1	3	R1226D
389.071	1.6	687496	WORD	n/a	wordpools/wordpool_categorized_EN.txt	RULER	OfficeSupplies	7	3	[0, 0, 0]	n/a	catFR1	3	R1226D
390.689	0.816	689114	WORD_OFF	n/a	n/a	RULER	n/a	7	3	[0, 0, 0]	n/a	catFR1	3	R1226D
391.505	1.6	689930	WORD	n/a	wordpools/wordpool_categorized_EN.txt	GLUE	OfficeSupplies	8	3	[0, 0, 0]	n/a	catFR1	3	R1226D
393.121	0.984	691546	WORD_OFF	n/a	n/a	GLUE	n/a	8	3	[0, 0, 0]	n/a	catFR1	3	R1226D
394.105	1.6	692530	WORD	n/a	wordpools/wordpool_categorized_EN.txt	WIND	Weather	9	3	[0, 0, 0]	n/a	catFR1	3	R1226D
395.723	1.0	694148	WORD_OFF	n/a	n/a	WIND	n/a	9	3	[0, 0, 0]	n/a	catFR1	3	R1226D
396.723	1.6	695148	WORD	n/a	wordpools/wordpool_categorized_EN.txt	SNOW	Weather	10	3	[0, 0, 0]	n/a	catFR1	3	R1226D
398.339	0.917	696764	WORD_OFF	n/a	n/a	SNOW	n/a	10	3	[0, 0, 0]	n/a	catFR1	3	R1226D
399.256	1.6	697681	WORD	n/a	wordpools/wordpool_categorized_EN.txt	DESK	Furniture	11	3	[0, 0, 0]	n/a	catFR1	3	R1226D
400.873	0.983	699297	WORD_OFF	n/a	n/a	DESK	n/a	11	3	[0, 0, 0]	n/a	catFR1	3	R1226D
401.856	1.6	700280	WORD	n/a	wordpools/wordpool_categorized_EN.txt	NIGHTSTAND	Furniture	12	3	[0, 0, 0]	n/a	catFR1	3	R1226D
403.474	0.0	701898	ENCODING_END	n/a	n/a	n/a	n/a	-999	3	[0, 0, 0]	n/a	catFR1	3	R1226D
403.474	0.101	701898	WORD_OFF	n/a	n/a	NIGHTSTAND	n/a	12	3	[0, 0, 0]	n/a	catFR1	3	R1226D
403.575	0.0	701999	DISTRACT_START	n/a	n/a	n/a	n/a	-999	3	[0, 0, 0]	n/a	catFR1	3	R1226D
403.575	0.016	701999	START	n/a	n/a	n/a	n/a	-999	3	[-999, -999, -999]	n/a	catFR1	3	R1226D
403.591	3.2	702015	PROB	3.174	n/a	n/a	n/a	-999	3	[1, 2, 1]	4.0	catFR1	3	R1226D
406.791	4.484	705215	PROB	4.447	n/a	n/a	n/a	-999	3	[5, 7, 7]	19.0	catFR1	3	R1226D
411.275	3.034	709699	PROB	3.003	n/a	n/a	n/a	-999	3	[8, 7, 3]	18.0	catFR1	3	R1226D
414.309	2.101	712733	PROB	2.074	n/a	n/a	n/a	-999	3	[2, 4, 5]	11.0	catFR1	3	R1226D
416.41	3.416	714834	PROB	3.389	n/a	n/a	n/a	-999	3	[4, 4, 7]	15.0	catFR1	3	R1226D
419.826	9.772	718249	PROB	9.772	n/a	n/a	n/a	-999	3	[7, 9, 7]	23.0	catFR1	3	R1226D
429.598	0.015	728021	STOP	n/a	n/a	n/a	n/a	-999	3	[-999, -999, -999]	n/a	catFR1	3	R1226D
429.613	0.582	728036	DISTRACT_END	n/a	n/a	n/a	n/a	-999	3	[0, 0, 0]	n/a	catFR1	3	R1226D
430.195	0.518	728618	RETRIEVAL_ORIENT	n/a	n/a	n/a	n/a	-999	3	[0, 0, 0]	n/a	catFR1	3	R1226D
430.713	2.163	729136	REC_START	n/a	n/a	n/a	n/a	-999	3	[0, 0, 0]	n/a	catFR1	3	R1226D
432.876	2.522	731299	REC_WORD	2.163	n/a	NIGHTSTAND	Furniture	12	3	[0, 0, 0]	n/a	catFR1	3	R1226D
435.398	1.818	733821	REC_WORD	4.685	n/a	CABINET	Furniture	5	3	[0, 0, 0]	n/a	catFR1	3	R1226D
437.216	2.24	735639	REC_WORD	6.503	n/a	RULER	OfficeSupplies	7	3	[0, 0, 0]	n/a	catFR1	3	R1226D
439.456	2.059	737878	REC_WORD	8.743	n/a	DESK	Furniture	11	3	[0, 0, 0]	n/a	catFR1	3	R1226D
441.515	2.177	739937	REC_WORD	10.802	n/a	CRAYON	n/a	-999	3	[0, 0, 0]	n/a	catFR1	3	R1226D
443.692	11.692	742114	REC_WORD	12.979	n/a	PENCIL	OfficeSupplies	1	3	[0, 0, 0]	n/a	catFR1	3	R1226D
455.384	2.271	753806	REC_WORD	24.671	n/a	SNOW	Weather	10	3	[0, 0, 0]	n/a	catFR1	3	R1226D
457.655	3.069	756076	REC_WORD	26.942	n/a	HUMIDITY	Weather	4	3	[0, 0, 0]	n/a	catFR1	3	R1226D
460.724	4.878	759145	REC_END	n/a	n/a	n/a	n/a	-999	3	[0, 0, 0]	n/a	catFR1	3	R1226D
465.602	0.5	764023	TRIAL	n/a	n/a	n/a	n/a	-999	4	[0, 0, 0]	n/a	catFR1	3	R1226D
466.102	10.0	764523	COUNTDOWN_START	n/a	n/a	n/a	n/a	-999	4	[0, 0, 0]	n/a	catFR1	3	R1226D
476.53	0.008	774950	COUNTDOWN_END	n/a	n/a	n/a	n/a	-999	4	[0, 0, 0]	n/a	catFR1	3	R1226D
476.538	1.6	774958	ORIENT	n/a	n/a	n/a	n/a	-999	4	[0, 0, 0]	n/a	catFR1	3	R1226D
478.154	2.15	776574	ORIENT_OFF	n/a	n/a	n/a	n/a	-999	4	[0, 0, 0]	n/a	catFR1	3	R1226D
480.304	1.6	778724	WORD	n/a	wordpools/wordpool_categorized_EN.txt	STREAM	Landscapes	1	4	[0, 0, 0]	n/a	catFR1	3	R1226D
481.921	0.833	780341	WORD_OFF	n/a	n/a	STREAM	n/a	1	4	[0, 0, 0]	n/a	catFR1	3	R1226D
482.754	1.6	781174	WORD	n/a	wordpools/wordpool_categorized_EN.txt	HILLS	Landscapes	2	4	[0, 0, 0]	n/a	catFR1	3	R1226D
484.372	0.783	782792	WORD_OFF	n/a	n/a	HILLS	n/a	2	4	[0, 0, 0]	n/a	catFR1	3	R1226D
485.155	1.6	783575	WORD	n/a	wordpools/wordpool_categorized_EN.txt	GRAPE	Fruit	3	4	[0, 0, 0]	n/a	catFR1	3	R1226D
486.772	0.951	785192	WORD_OFF	n/a	n/a	GRAPE	n/a	3	4	[0, 0, 0]	n/a	catFR1	3	R1226D
487.723	1.6	786143	WORD	n/a	wordpools/wordpool_categorized_EN.txt	APPLE	Fruit	4	4	[0, 0, 0]	n/a	catFR1	3	R1226D
489.339	0.9	787759	WORD_OFF	n/a	n/a	APPLE	n/a	4	4	[0, 0, 0]	n/a	catFR1	3	R1226D
490.239	1.6	788659	WORD	n/a	wordpools/wordpool_categorized_EN.txt	IRON	Appliances	5	4	[0, 0, 0]	n/a	catFR1	3	R1226D
491.856	0.885	790276	WORD_OFF	n/a	n/a	IRON	n/a	5	4	[0, 0, 0]	n/a	catFR1	3	R1226D
492.741	1.6	791160	WORD	n/a	wordpools/wordpool_categorized_EN.txt	FREEZER	Appliances	6	4	[0, 0, 0]	n/a	catFR1	3	R1226D
494.358	0.949	792777	WORD_OFF	n/a	n/a	FREEZER	n/a	6	4	[0, 0, 0]	n/a	catFR1	3	R1226D
495.307	1.6	793726	WORD	n/a	wordpools/wordpool_categorized_EN.txt	BEACH	Landscapes	7	4	[0, 0, 0]	n/a	catFR1	3	R1226D
496.924	1.0	795343	WORD_OFF	n/a	n/a	BEACH	n/a	7	4	[0, 0, 0]	n/a	catFR1	3	R1226D
497.924	1.6	796343	WORD	n/a	wordpools/wordpool_categorized_EN.txt	MOUNTAIN	Landscapes	8	4	[0, 0, 0]	n/a	catFR1	3	R1226D
499.542	0.9	797961	WORD_OFF	n/a	n/a	MOUNTAIN	n/a	8	4	[0, 0, 0]	n/a	catFR1	3	R1226D
500.442	1.6	798861	WORD	n/a	wordpools/wordpool_categorized_EN.txt	PEACH	Fruit	9	4	[0, 0, 0]	n/a	catFR1	3	R1226D
502.058	0.783	800477	WORD_OFF	n/a	n/a	PEACH	n/a	9	4	[0, 0, 0]	n/a	catFR1	3	R1226D
502.841	1.6	801260	WORD	n/a	wordpools/wordpool_categorized_EN.txt	ORANGE	Fruit	10	4	[0, 0, 0]	n/a	catFR1	3	R1226D
504.459	0.783	802878	WORD_OFF	n/a	n/a	ORANGE	n/a	10	4	[0, 0, 0]	n/a	catFR1	3	R1226D
505.242	1.6	803661	WORD	n/a	wordpools/wordpool_categorized_EN.txt	DISHWASHER	Appliances	11	4	[0, 0, 0]	n/a	catFR1	3	R1226D
506.859	0.784	805278	WORD_OFF	n/a	n/a	DISHWASHER	n/a	11	4	[0, 0, 0]	n/a	catFR1	3	R1226D
507.643	1.6	806062	WORD	n/a	wordpools/wordpool_categorized_EN.txt	BLENDER	Appliances	12	4	[0, 0, 0]	n/a	catFR1	3	R1226D
509.259	0.0	807678	ENCODING_END	n/a	n/a	n/a	n/a	-999	4	[0, 0, 0]	n/a	catFR1	3	R1226D
509.259	0.131	807678	WORD_OFF	n/a	n/a	BLENDER	n/a	12	4	[0, 0, 0]	n/a	catFR1	3	R1226D
509.39	0.0	807809	DISTRACT_START	n/a	n/a	n/a	n/a	-999	4	[0, 0, 0]	n/a	catFR1	3	R1226D
509.39	0.02	807809	START	n/a	n/a	n/a	n/a	-999	4	[-999, -999, -999]	n/a	catFR1	3	R1226D
509.41	7.651	807829	PROB	7.627	n/a	n/a	n/a	-999	4	[4, 1, 8]	13.0	catFR1	3	R1226D
517.061	6.302	815479	PROB	6.266	n/a	n/a	n/a	-999	4	[9, 4, 3]	16.0	catFR1	3	R1226D
523.363	4.75	821781	PROB	4.715	n/a	n/a	n/a	-999	4	[8, 3, 5]	16.0	catFR1	3	R1226D
528.113	4.55	826531	PROB	4.55	n/a	n/a	n/a	-999	4	[2, 3, 6]	11.0	catFR1	3	R1226D
532.663	0.018	831080	STOP	n/a	n/a	n/a	n/a	-999	4	[-999, -999, -999]	n/a	catFR1	3	R1226D
532.681	0.533	831098	DISTRACT_END	n/a	n/a	n/a	n/a	-999	4	[0, 0, 0]	n/a	catFR1	3	R1226D
533.214	0.518	831631	RETRIEVAL_ORIENT	n/a	n/a	n/a	n/a	-999	4	[0, 0, 0]	n/a	catFR1	3	R1226D
533.732	2.165	832149	REC_START	n/a	n/a	n/a	n/a	-999	4	[0, 0, 0]	n/a	catFR1	3	R1226D
535.897	5.779	834314	REC_WORD	2.165	n/a	OCEAN	n/a	-999	4	[0, 0, 0]	n/a	catFR1	3	R1226D
541.676	0.974	840093	REC_WORD_VV	7.944	n/a	<>	n/a	-999	4	[0, 0, 0]	n/a	catFR1	3	R1226D
542.65	1.159	841067	REC_WORD	8.918	n/a	DISHWASHER	Appliances	11	4	[0, 0, 0]	n/a	catFR1	3	R1226D
543.809	1.795	842226	REC_WORD	10.077	n/a	MICROWAVE	n/a	-999	4	[0, 0, 0]	n/a	catFR1	3	R1226D
545.604	2.022	844021	REC_WORD	11.872	n/a	FREEZER	Appliances	6	4	[0, 0, 0]	n/a	catFR1	3	R1226D
547.626	4.872	846042	REC_WORD	13.894	n/a	IRON	Appliances	5	4	[0, 0, 0]	n/a	catFR1	3	R1226D
552.498	2.353	850914	REC_WORD	18.766	n/a	ORANGE	Fruit	10	4	[0, 0, 0]	n/a	catFR1	3	R1226D
554.851	5.018	853267	REC_WORD	21.119	n/a	PEACH	Fruit	9	4	[0, 0, 0]	n/a	catFR1	3	R1226D
559.869	2.11	858285	REC_WORD	26.137	n/a	CHERRY	n/a	-999	4	[0, 0, 0]	n/a	catFR1	3	R1226D
561.979	1.762	860395	REC_WORD	28.247	n/a	BLENDER	Appliances	12	4	[0, 0, 0]	n/a	catFR1	3	R1226D
563.741	5.596	862157	REC_END	n/a	n/a	n/a	n/a	-999	4	[0, 0, 0]	n/a	catFR1	3	R1226D
569.337	0.5	867752	TRIAL	n/a	n/a	n/a	n/a	-999	5	[0, 0, 0]	n/a	catFR1	3	R1226D
569.837	10.0	868252	COUNTDOWN_START	n/a	n/a	n/a	n/a	-999	5	[0, 0, 0]	n/a	catFR1	3	R1226D
580.265	0.007	878680	COUNTDOWN_END	n/a	n/a	n/a	n/a	-999	5	[0, 0, 0]	n/a	catFR1	3	R1226D
580.272	1.6	878687	ORIENT	n/a	n/a	n/a	n/a	-999	5	[0, 0, 0]	n/a	catFR1	3	R1226D
581.889	2.134	880304	ORIENT_OFF	n/a	n/a	n/a	n/a	-999	5	[0, 0, 0]	n/a	catFR1	3	R1226D
584.023	1.6	882437	WORD	n/a	wordpools/wordpool_categorized_EN.txt	FOOTBALL	Toys	1	5	[0, 0, 0]	n/a	catFR1	3	R1226D
585.641	0.817	884055	WORD_OFF	n/a	n/a	FOOTBALL	n/a	1	5	[0, 0, 0]	n/a	catFR1	3	R1226D
586.458	1.6	884872	WORD	n/a	wordpools/wordpool_categorized_EN.txt	SLINKY	Toys	2	5	[0, 0, 0]	n/a	catFR1	3	R1226D
588.074	0.933	886488	WORD_OFF	n/a	n/a	SLINKY	n/a	2	5	[0, 0, 0]	n/a	catFR1	3	R1226D
589.007	1.6	887421	WORD	n/a	wordpools/wordpool_categorized_EN.txt	TURKEY	FarmAnimals	3	5	[0, 0, 0]	n/a	catFR1	3	R1226D
590.625	0.95	889039	WORD_OFF	n/a	n/a	TURKEY	n/a	3	5	[0, 0, 0]	n/a	catFR1	3	R1226D
591.575	1.6	889989	WORD	n/a	wordpools/wordpool_categorized_EN.txt	COW	FarmAnimals	4	5	[0, 0, 0]	n/a	catFR1	3	R1226D
593.191	0.917	891605	WORD_OFF	n/a	n/a	COW	n/a	4	5	[0, 0, 0]	n/a	catFR1	3	R1226D
594.108	1.6	892522	WORD	n/a	wordpools/wordpool_categorized_EN.txt	LEMON	Fruit	5	5	[0, 0, 0]	n/a	catFR1	3	R1226D
595.726	0.834	894140	WORD_OFF	n/a	n/a	LEMON	n/a	5	5	[0, 0, 0]	n/a	catFR1	3	R1226D
596.56	1.6	894974	WORD	n/a	wordpools/wordpool_categorized_EN.txt	BLUEBERRY	Fruit	6	5	[0, 0, 0]	n/a	catFR1	3	R1226D
598.175	0.767	896589	WORD_OFF	n/a	n/a	BLUEBERRY	n/a	6	5	[0, 0, 0]	n/a	catFR1	3	R1226D
598.942	1.6	897356	WORD	n/a	wordpools/wordpool_categorized_EN.txt	MARBLES	Toys	7	5	[0, 0, 0]	n/a	catFR1	3	R1226D
600.543	0.867	898957	WORD_OFF	n/a	n/a	MARBLES	n/a	7	5	[0, 0, 0]	n/a	catFR1	3	R1226D
601.41	1.6	899823	WORD	n/a	wordpools/wordpool_categorized_EN.txt	BLOCKS	Toys	8	5	[0, 0, 0]	n/a	catFR1	3	R1226D
603.026	0.767	901439	WORD_OFF	n/a	n/a	BLOCKS	n/a	8	5	[0, 0, 0]	n/a	catFR1	3	R1226D
603.793	1.6	902206	WORD	n/a	wordpools/wordpool_categorized_EN.txt	CHICKEN	FarmAnimals	9	5	[0, 0, 0]	n/a	catFR1	3	R1226D
605.394	0.916	903807	WORD_OFF	n/a	n/a	CHICKEN	n/a	9	5	[0, 0, 0]	n/a	catFR1	3	R1226D
606.31	1.6	904723	WORD	n/a	wordpools/wordpool_categorized_EN.txt	BULL	FarmAnimals	10	5	[0, 0, 0]	n/a	catFR1	3	R1226D
607.927	0.785	906340	WORD_OFF	n/a	n/a	BULL	n/a	10	5	[0, 0, 0]	n/a	catFR1	3	R1226D
608.712	1.6	907125	WORD	n/a	wordpools/wordpool_categorized_EN.txt	LIME	Fruit	11	5	[0, 0, 0]	n/a	catFR1	3	R1226D
610.328	0.8	908741	WORD_OFF	n/a	n/a	LIME	n/a	11	5	[0, 0, 0]	n/a	catFR1	3	R1226D
611.128	1.6	909541	WORD	n/a	wordpools/wordpool_categorized_EN.txt	STRAWBERRY	Fruit	12	5	[0, 0, 0]	n/a	catFR1	3	R1226D
612.746	0.0	911159	WORD_OFF	n/a	n/a	STRAWBERRY	n/a	12	5	[0, 0, 0]	n/a	catFR1	3	R1226D
612.746	0.1	911159	ENCODING_END	n/a	n/a	n/a	n/a	-999	5	[0, 0, 0]	n/a	catFR1	3	R1226D
612.846	0.0	911259	DISTRACT_START	n/a	n/a	n/a	n/a	-999	5	[0, 0, 0]	n/a	catFR1	3	R1226D
612.846	0.015	911259	START	n/a	n/a	n/a	n/a	-999	5	[-999, -999, -999]	n/a	catFR1	3	R1226D
612.861	5.118	911274	PROB	5.081	n/a	n/a	n/a	-999	5	[8, 6, 2]	16.0	catFR1	3	R1226D
617.979	4.719	916392	PROB	4.683	n/a	n/a	n/a	-999	5	[5, 4, 7]	16.0	catFR1	3	R1226D
622.698	3.834	921110	PROB	3.804	n/a	n/a	n/a	-999	5	[4, 8, 7]	19.0	catFR1	3	R1226D
626.532	2.9	924944	PROB	2.874	n/a	n/a	n/a	-999	5	[8, 2, 2]	12.0	catFR1	3	R1226D
629.432	3.383	927844	PROB	3.359	n/a	n/a	n/a	-999	5	[7, 3, 5]	15.0	catFR1	3	R1226D
632.815	2.929	931227	PROB	2.929	n/a	n/a	n/a	-999	5	[1, 9, 9]	19.0	catFR1	3	R1226D
635.744	0.005	934156	STOP	n/a	n/a	n/a	n/a	-999	5	[-999, -999, -999]	n/a	catFR1	3	R1226D
635.749	0.618	934161	DISTRACT_END	n/a	n/a	n/a	n/a	-999	5	[0, 0, 0]	n/a	catFR1	3	R1226D
636.367	0.516	934779	RETRIEVAL_ORIENT	n/a	n/a	n/a	n/a	-999	5	[0, 0, 0]	n/a	catFR1	3	R1226D
636.883	3.57	935295	REC_START	n/a	n/a	n/a	n/a	-999	5	[0, 0, 0]	n/a	catFR1	3	R1226D
640.453	1.471	938864	REC_WORD	3.57	n/a	BLOCKS	Toys	8	5	[0, 0, 0]	n/a	catFR1	3	R1226D
641.924	2.245	940335	REC_WORD	5.041	n/a	MARBLES	Toys	7	5	[0, 0, 0]	n/a	catFR1	3	R1226D
644.169	2.151	942580	REC_WORD	7.286	n/a	SLINKY	Toys	2	5	[0, 0, 0]	n/a	catFR1	3	R1226D
646.32	2.74	944731	REC_WORD	9.437	n/a	CHICKEN	FarmAnimals	9	5	[0, 0, 0]	n/a	catFR1	3	R1226D
649.06	2.285	947471	REC_WORD	12.177	n/a	BULL	FarmAnimals	10	5	[0, 0, 0]	n/a	catFR1	3	R1226D
651.345	3.024	949756	REC_WORD	14.462	n/a	STRAWBERRY	Fruit	12	5	[0, 0, 0]	n/a	catFR1	3	R1226D
654.369	12.524	952780	REC_WORD	17.486	n/a	LIME	Fruit	11	5	[0, 0, 0]	n/a	catFR1	3	R1226D
666.893	4.78	965303	REC_END	n/a	n/a	n/a	n/a	-999	5	[0, 0, 0]	n/a	catFR1	3	R1226D
671.673	0.5	970083	TRIAL	n/a	n/a	n/a	n/a	-999	6	[0, 0, 0]	n/a	catFR1	3	R1226D
672.173	10.0	970583	COUNTDOWN_START	n/a	n/a	n/a	n/a	-999	6	[0, 0, 0]	n/a	catFR1	3	R1226D
682.601	0.008	981010	COUNTDOWN_END	n/a	n/a	n/a	n/a	-999	6	[0, 0, 0]	n/a	catFR1	3	R1226D
682.609	1.6	981018	ORIENT	n/a	n/a	n/a	n/a	-999	6	[0, 0, 0]	n/a	catFR1	3	R1226D
684.225	2.017	982634	ORIENT_OFF	n/a	n/a	n/a	n/a	-999	6	[0, 0, 0]	n/a	catFR1	3	R1226D
686.242	1.6	984651	WORD	n/a	wordpools/wordpool_categorized_EN.txt	GORILLA	Zoo	1	6	[0, 0, 0]	n/a	catFR1	3	R1226D
687.859	0.784	986268	WORD_OFF	n/a	n/a	GORILLA	n/a	1	6	[0, 0, 0]	n/a	catFR1	3	R1226D
688.643	1.6	987052	WORD	n/a	wordpools/wordpool_categorized_EN.txt	CHEETAH	Zoo	2	6	[0, 0, 0]	n/a	catFR1	3	R1226D
690.259	0.8	988668	WORD_OFF	n/a	n/a	CHEETAH	n/a	2	6	[0, 0, 0]	n/a	catFR1	3	R1226D
691.059	1.6	989468	WORD	n/a	wordpools/wordpool_categorized_EN.txt	CRAB	OceanAnimals	3	6	[0, 0, 0]	n/a	catFR1	3	R1226D
692.677	0.8	991085	WORD_OFF	n/a	n/a	CRAB	n/a	3	6	[0, 0, 0]	n/a	catFR1	3	R1226D
693.477	1.6	991885	WORD	n/a	wordpools/wordpool_categorized_EN.txt	DOLPHIN	OceanAnimals	4	6	[0, 0, 0]	n/a	catFR1	3	R1226D
695.093	0.934	993501	WORD_OFF	n/a	n/a	DOLPHIN	n/a	4	6	[0, 0, 0]	n/a	catFR1	3	R1226D
696.027	1.6	994435	WORD	n/a	wordpools/wordpool_categorized_EN.txt	ROOSTER	FarmAnimals	5	6	[0, 0, 0]	n/a	catFR1	3	R1226D
697.645	0.916	996053	WORD_OFF	n/a	n/a	ROOSTER	n/a	5	6	[0, 0, 0]	n/a	catFR1	3	R1226D
698.561	1.6	996969	WORD	n/a	wordpools/wordpool_categorized_EN.txt	SHEEP	FarmAnimals	6	6	[0, 0, 0]	n/a	catFR1	3	R1226D
700.177	0.967	998585	WORD_OFF	n/a	n/a	SHEEP	n/a	6	6	[0, 0, 0]	n/a	catFR1	3	R1226D
701.144	1.6	999552	WORD	n/a	wordpools/wordpool_categorized_EN.txt	OCTOPUS	OceanAnimals	7	6	[0, 0, 0]	n/a	catFR1	3	R1226D
702.761	0.868	1001169	WORD_OFF	n/a	n/a	OCTOPUS	n/a	7	6	[0, 0, 0]	n/a	catFR1	3	R1226D
703.629	1.6	1002037	WORD	n/a	wordpools/wordpool_categorized_EN.txt	FISH	OceanAnimals	8	6	[0, 0, 0]	n/a	catFR1	3	R1226D
705.245	0.783	1003653	WORD_OFF	n/a	n/a	FISH	n/a	8	6	[0, 0, 0]	n/a	catFR1	3	R1226D
706.028	1.6	1004436	WORD	n/a	wordpools/wordpool_categorized_EN.txt	MONKEY	Zoo	9	6	[0, 0, 0]	n/a	catFR1	3	R1226D
707.646	0.867	1006054	WORD_OFF	n/a	n/a	MONKEY	n/a	9	6	[0, 0, 0]	n/a	catFR1	3	R1226D
708.513	1.6	1006921	WORD	n/a	wordpools/wordpool_categorized_EN.txt	CHIMPANZEE	Zoo	10	6	[0, 0, 0]	n/a	catFR1	3	R1226D
710.129	0.767	1008537	WORD_OFF	n/a	n/a	CHIMPANZEE	n/a	10	6	[0, 0, 0]	n/a	catFR1	3	R1226D
710.896	1.6	1009303	WORD	n/a	wordpools/wordpool_categorized_EN.txt	CALF	FarmAnimals	11	6	[0, 0, 0]	n/a	catFR1	3	R1226D
712.514	0.917	1010921	WORD_OFF	n/a	n/a	CALF	n/a	11	6	[0, 0, 0]	n/a	catFR1	3	R1226D
713.431	1.6	1011838	WORD	n/a	wordpools/wordpool_categorized_EN.txt	HORSE	FarmAnimals	12	6	[0, 0, 0]	n/a	catFR1	3	R1226D
715.047	0.0	1013454	ENCODING_END	n/a	n/a	n/a	n/a	-999	6	[0, 0, 0]	n/a	catFR1	3	R1226D
715.047	0.135	1013454	WORD_OFF	n/a	n/a	HORSE	n/a	12	6	[0, 0, 0]	n/a	catFR1	3	R1226D
715.182	0.0	1013589	DISTRACT_START	n/a	n/a	n/a	n/a	-999	6	[0, 0, 0]	n/a	catFR1	3	R1226D
715.182	0.015	1013589	START	n/a	n/a	n/a	n/a	-999	6	[-999, -999, -999]	n/a	catFR1	3	R1226D
715.197	3.485	1013604	PROB	3.458	n/a	n/a	n/a	-999	6	[3, 1, 5]	9.0	catFR1	3	R1226D
718.682	2.132	1017089	PROB	2.101	n/a	n/a	n/a	-999	6	[2, 4, 6]	12.0	catFR1	3	R1226D
720.814	2.334	1019221	PROB	2.297	n/a	n/a	n/a	-999	6	[1, 9, 9]	19.0	catFR1	3	R1226D
723.148	3.302	1021555	PROB	3.268	n/a	n/a	n/a	-999	6	[5, 4, 8]	17.0	catFR1	3	R1226D
726.45	3.75	1024857	PROB	3.723	n/a	n/a	n/a	-999	6	[9, 3, 4]	16.0	catFR1	3	R1226D
730.2	3.7	1028606	PROB	3.67	n/a	n/a	n/a	-999	6	[6, 6, 4]	16.0	catFR1	3	R1226D
733.9	3.595	1032306	PROB	3.595	n/a	n/a	n/a	-999	6	[8, 2, 9]	19.0	catFR1	3	R1226D
737.495	0.007	1035901	STOP	n/a	n/a	n/a	n/a	-999	6	[-999, -999, -999]	n/a	catFR1	3	R1226D
737.502	0.582	1035908	DISTRACT_END	n/a	n/a	n/a	n/a	-999	6	[0, 0, 0]	n/a	catFR1	3	R1226D
738.084	0.519	1036490	RETRIEVAL_ORIENT	n/a	n/a	n/a	n/a	-999	6	[0, 0, 0]	n/a	catFR1	3	R1226D
738.603	2.861	1037009	REC_START	n/a	n/a	n/a	n/a	-999	6	[0, 0, 0]	n/a	catFR1	3	R1226D
741.464	2.075	1039870	REC_WORD	2.861	n/a	GORILLA	Zoo	1	6	[0, 0, 0]	n/a	catFR1	3	R1226D
743.539	3.34	1041945	REC_WORD	4.936	n/a	CHEETAH	Zoo	2	6	[0, 0, 0]	n/a	catFR1	3	R1226D
746.879	1.613	1045285	REC_WORD	8.276	n/a	COW	n/a	-999	6	[0, 0, 0]	n/a	catFR1	3	R1226D
748.492	2.943	1046897	REC_WORD	9.889	n/a	CHIMPANZEE	Zoo	10	6	[0, 0, 0]	n/a	catFR1	3	R1226D
751.435	3.049	1049840	REC_WORD	12.832	n/a	MONKEY	Zoo	9	6	[0, 0, 0]	n/a	catFR1	3	R1226D
754.484	2.675	1052889	REC_WORD	15.881	n/a	CRAB	OceanAnimals	3	6	[0, 0, 0]	n/a	catFR1	3	R1226D
757.159	5.539	1055564	REC_WORD	18.556	n/a	DOLPHIN	OceanAnimals	4	6	[0, 0, 0]	n/a	catFR1	3	R1226D
762.698	5.915	1061103	REC_WORD	24.095	n/a	OCTOPUS	OceanAnimals	7	6	[0, 0, 0]	n/a	catFR1	3	R1226D
768.613	5.079	1067017	REC_END	n/a	n/a	n/a	n/a	-999	6	[0, 0, 0]	n/a	catFR1	3	R1226D
773.692	0.5	1072096	TRIAL	n/a	n/a	n/a	n/a	-999	7	[0, 0, 0]	n/a	catFR1	3	R1226D
774.192	10.0	1072596	COUNTDOWN_START	n/a	n/a	n/a	n/a	-999	7	[0, 0, 0]	n/a	catFR1	3	R1226D
784.62	0.007	1083023	COUNTDOWN_END	n/a	n/a	n/a	n/a	-999	7	[0, 0, 0]	n/a	catFR1	3	R1226D
784.627	1.6	1083030	ORIENT	n/a	n/a	n/a	n/a	-999	7	[0, 0, 0]	n/a	catFR1	3	R1226D
786.243	2.185	1084646	ORIENT_OFF	n/a	n/a	n/a	n/a	-999	7	[0, 0, 0]	n/a	catFR1	3	R1226D
788.428	1.6	1086831	WORD	n/a	wordpools/wordpool_categorized_EN.txt	CALCULATOR	Electronics	1	7	[0, 0, 0]	n/a	catFR1	3	R1226D
790.044	0.967	1088447	WORD_OFF	n/a	n/a	CALCULATOR	n/a	1	7	[0, 0, 0]	n/a	catFR1	3	R1226D
791.011	1.6	1089414	WORD	n/a	wordpools/wordpool_categorized_EN.txt	SCANNER	Electronics	2	7	[0, 0, 0]	n/a	catFR1	3	R1226D
792.629	0.866	1091032	WORD_OFF	n/a	n/a	SCANNER	n/a	2	7	[0, 0, 0]	n/a	catFR1	3	R1226D
793.495	1.6	1091898	WORD	n/a	wordpools/wordpool_categorized_EN.txt	FLOOR	Building	3	7	[0, 0, 0]	n/a	catFR1	3	R1226D
795.111	0.984	1093514	WORD_OFF	n/a	n/a	FLOOR	n/a	3	7	[0, 0, 0]	n/a	catFR1	3	R1226D
796.095	1.6	1094498	WORD	n/a	wordpools/wordpool_categorized_EN.txt	CEILING	Building	4	7	[0, 0, 0]	n/a	catFR1	3	R1226D
797.713	0.8	1096116	WORD_OFF	n/a	n/a	CEILING	n/a	4	7	[0, 0, 0]	n/a	catFR1	3	R1226D
798.513	1.6	1096916	WORD	n/a	wordpools/wordpool_categorized_EN.txt	TRAIN	Vehicles	5	7	[0, 0, 0]	n/a	catFR1	3	R1226D
800.129	0.917	1098532	WORD_OFF	n/a	n/a	TRAIN	n/a	5	7	[0, 0, 0]	n/a	catFR1	3	R1226D
801.046	1.6	1099449	WORD	n/a	wordpools/wordpool_categorized_EN.txt	CAR	Vehicles	6	7	[0, 0, 0]	n/a	catFR1	3	R1226D
802.664	0.917	1101066	WORD_OFF	n/a	n/a	CAR	n/a	6	7	[0, 0, 0]	n/a	catFR1	3	R1226D
803.581	1.6	1101983	WORD	n/a	wordpools/wordpool_categorized_EN.txt	ROOF	Building	7	7	[0, 0, 0]	n/a	catFR1	3	R1226D
805.197	0.883	1103599	WORD_OFF	n/a	n/a	ROOF	n/a	7	7	[0, 0, 0]	n/a	catFR1	3	R1226D
806.08	1.6	1104482	WORD	n/a	wordpools/wordpool_categorized_EN.txt	BATHROOM	Building	8	7	[0, 0, 0]	n/a	catFR1	3	R1226D
807.698	0.817	1106100	WORD_OFF	n/a	n/a	BATHROOM	n/a	8	7	[0, 0, 0]	n/a	catFR1	3	R1226D
808.515	1.6	1106917	WORD	n/a	wordpools/wordpool_categorized_EN.txt	MICROWAVE	Electronics	9	7	[0, 0, 0]	n/a	catFR1	3	R1226D
810.131	0.9	1108533	WORD_OFF	n/a	n/a	MICROWAVE	n/a	9	7	[0, 0, 0]	n/a	catFR1	3	R1226D
811.031	1.6	1109433	WORD	n/a	wordpools/wordpool_categorized_EN.txt	HEADPHONES	Electronics	10	7	[0, 0, 0]	n/a	catFR1	3	R1226D
812.649	0.967	1111051	WORD_OFF	n/a	n/a	HEADPHONES	n/a	10	7	[0, 0, 0]	n/a	catFR1	3	R1226D
813.616	1.6	1112018	WORD	n/a	wordpools/wordpool_categorized_EN.txt	BOAT	Vehicles	11	7	[0, 0, 0]	n/a	catFR1	3	R1226D
815.232	0.95	1113634	WORD_OFF	n/a	n/a	BOAT	n/a	11	7	[0, 0, 0]	n/a	catFR1	3	R1226D
816.182	1.6	1114584	WORD	n/a	wordpools/wordpool_categorized_EN.txt	MOTORCYCLE	Vehicles	12	7	[0, 0, 0]	n/a	catFR1	3	R1226D
817.799	0.0	1116201	ENCODING_END	n/a	n/a	n/a	n/a	-999	7	[0, 0, 0]	n/a	catFR1	3	R1226D
817.799	0.13	1116201	WORD_OFF	n/a	n/a	MOTORCYCLE	n/a	12	7	[0, 0, 0]	n/a	catFR1	3	R1226D
817.929	0.0	1116331	DISTRACT_START	n/a	n/a	n/a	n/a	-999	7	[0, 0, 0]	n/a	catFR1	3	R1226D
817.929	0.02	1116331	START	n/a	n/a	n/a	n/a	-999	7	[-999, -999, -999]	n/a	catFR1	3	R1226D
817.949	2.917	1116351	PROB	2.881	n/a	n/a	n/a	-999	7	[9, 4, 1]	14.0	catFR1	3	R1226D
820.866	3.785	1119267	PROB	3.749	n/a	n/a	n/a	-999	7	[4, 5, 9]	18.0	catFR1	3	R1226D
824.651	3.233	1123052	PROB	3.202	n/a	n/a	n/a	-999	7	[3, 4, 1]	8.0	catFR1	3	R1226D
827.884	2.951	1126285	PROB	2.923	n/a	n/a	n/a	-999	7	[9, 7, 2]	18.0	catFR1	3	R1226D
830.835	3.15	1129236	PROB	3.124	n/a	n/a	n/a	-999	7	[7, 8, 3]	18.0	catFR1	3	R1226D
833.985	4.229	1132386	PROB	4.229	n/a	n/a	n/a	-999	7	[6, 8, 7]	21.0	catFR1	3	R1226D
838.214	0.005	1136614	STOP	n/a	n/a	n/a	n/a	-999	7	[-999, -999, -999]	n/a	catFR1	3	R1226D
838.219	0.684	1136619	DISTRACT_END	n/a	n/a	n/a	n/a	-999	7	[0, 0, 0]	n/a	catFR1	3	R1226D
838.903	0.518	1137303	RETRIEVAL_ORIENT	n/a	n/a	n/a	n/a	-999	7	[0, 0, 0]	n/a	catFR1	3	R1226D
839.421	2.189	1137821	REC_START	n/a	n/a	n/a	n/a	-999	7	[0, 0, 0]	n/a	catFR1	3	R1226D
841.61	1.0	1140010	REC_WORD	2.189	n/a	TRAIN	Vehicles	5	7	[0, 0, 0]	n/a	catFR1	3	R1226D
842.61	1.438	1141010	REC_WORD	3.189	n/a	CAR	Vehicles	6	7	[0, 0, 0]	n/a	catFR1	3	R1226D
844.048	1.758	1142448	REC_WORD	4.627	n/a	MOTORCYCLE	Vehicles	12	7	[0, 0, 0]	n/a	catFR1	3	R1226D
845.806	2.922	1144206	REC_WORD	6.385	n/a	BOAT	Vehicles	11	7	[0, 0, 0]	n/a	catFR1	3	R1226D
848.728	2.016	1147128	REC_WORD	9.307	n/a	FLOOR	Building	3	7	[0, 0, 0]	n/a	catFR1	3	R1226D
850.744	2.456	1149144	REC_WORD	11.323	n/a	CEILING	Building	4	7	[0, 0, 0]	n/a	catFR1	3	R1226D
853.2	3.192	1151600	REC_WORD	13.779	n/a	ROOF	Building	7	7	[0, 0, 0]	n/a	catFR1	3	R1226D
856.392	13.038	1154791	REC_WORD	16.971	n/a	CALCULATOR	Electronics	1	7	[0, 0, 0]	n/a	catFR1	3	R1226D
869.43	4.546	1167829	REC_END	n/a	n/a	n/a	n/a	-999	7	[0, 0, 0]	n/a	catFR1	3	R1226D
873.976	0.5	1172375	TRIAL	n/a	n/a	n/a	n/a	-999	8	[0, 0, 0]	n/a	catFR1	3	R1226D
874.476	10.0	1172874	COUNTDOWN_START	n/a	n/a	n/a	n/a	-999	8	[0, 0, 0]	n/a	catFR1	3	R1226D
884.904	0.007	1183302	COUNTDOWN_END	n/a	n/a	n/a	n/a	-999	8	[0, 0, 0]	n/a	catFR1	3	R1226D
884.911	1.6	1183309	ORIENT	n/a	n/a	n/a	n/a	-999	8	[0, 0, 0]	n/a	catFR1	3	R1226D
886.512	2.001	1184910	ORIENT_OFF	n/a	n/a	n/a	n/a	-999	8	[0, 0, 0]	n/a	catFR1	3	R1226D
888.513	1.6	1186911	WORD	n/a	wordpools/wordpool_categorized_EN.txt	HEN	FarmAnimals	1	8	[0, 0, 0]	n/a	catFR1	3	R1226D
890.129	0.967	1188527	WORD_OFF	n/a	n/a	HEN	n/a	1	8	[0, 0, 0]	n/a	catFR1	3	R1226D
891.096	1.6	1189494	WORD	n/a	wordpools/wordpool_categorized_EN.txt	LAMB	FarmAnimals	2	8	[0, 0, 0]	n/a	catFR1	3	R1226D
892.714	0.85	1191111	WORD_OFF	n/a	n/a	LAMB	n/a	2	8	[0, 0, 0]	n/a	catFR1	3	R1226D
893.564	1.6	1191961	WORD	n/a	wordpools/wordpool_categorized_EN.txt	STRAINER	KitchenTools	3	8	[0, 0, 0]	n/a	catFR1	3	R1226D
895.18	0.95	1193577	WORD_OFF	n/a	n/a	STRAINER	n/a	3	8	[0, 0, 0]	n/a	catFR1	3	R1226D
896.13	1.6	1194527	WORD	n/a	wordpools/wordpool_categorized_EN.txt	PEELER	KitchenTools	4	8	[0, 0, 0]	n/a	catFR1	3	R1226D
897.748	0.933	1196145	WORD_OFF	n/a	n/a	PEELER	n/a	4	8	[0, 0, 0]	n/a	catFR1	3	R1226D
898.681	1.6	1197078	WORD	n/a	wordpools/wordpool_categorized_EN.txt	CORN	Vegetables	5	8	[0, 0, 0]	n/a	catFR1	3	R1226D
900.297	0.901	1198694	WORD_OFF	n/a	n/a	CORN	n/a	5	8	[0, 0, 0]	n/a	catFR1	3	R1226D
901.198	1.6	1199595	WORD	n/a	wordpools/wordpool_categorized_EN.txt	POTATO	Vegetables	6	8	[0, 0, 0]	n/a	catFR1	3	R1226D
902.814	0.868	1201211	WORD_OFF	n/a	n/a	POTATO	n/a	6	8	[0, 0, 0]	n/a	catFR1	3	R1226D
903.682	1.6	1202079	WORD	n/a	wordpools/wordpool_categorized_EN.txt	GOAT	FarmAnimals	7	8	[0, 0, 0]	n/a	catFR1	3	R1226D
905.298	0.867	1203695	WORD_OFF	n/a	n/a	GOAT	n/a	7	8	[0, 0, 0]	n/a	catFR1	3	R1226D
906.165	1.6	1204562	WORD	n/a	wordpools/wordpool_categorized_EN.txt	PIG	FarmAnimals	8	8	[0, 0, 0]	n/a	catFR1	3	R1226D
907.782	0.851	1206179	WORD_OFF	n/a	n/a	PIG	n/a	8	8	[0, 0, 0]	n/a	catFR1	3	R1226D
908.633	1.6	1207030	WORD	n/a	wordpools/wordpool_categorized_EN.txt	CORKSCREW	KitchenTools	9	8	[0, 0, 0]	n/a	catFR1	3	R1226D
910.249	0.884	1208646	WORD_OFF	n/a	n/a	CORKSCREW	n/a	9	8	[0, 0, 0]	n/a	catFR1	3	R1226D
911.133	1.6	1209529	WORD	n/a	wordpools/wordpool_categorized_EN.txt	KNIFE	KitchenTools	10	8	[0, 0, 0]	n/a	catFR1	3	R1226D
912.75	0.917	1211146	WORD_OFF	n/a	n/a	KNIFE	n/a	10	8	[0, 0, 0]	n/a	catFR1	3	R1226D
913.667	1.6	1212063	WORD	n/a	wordpools/wordpool_categorized_EN.txt	SPINACH	Vegetables	11	8	[0, 0, 0]	n/a	catFR1	3	R1226D
915.283	0.801	1213679	WORD_OFF	n/a	n/a	SPINACH	n/a	11	8	[0, 0, 0]	n/a	catFR1	3	R1226D
916.084	1.6	1214480	WORD	n/a	wordpools/wordpool_categorized_EN.txt	LETTUCE	Vegetables	12	8	[0, 0, 0]	n/a	catFR1	3	R1226D
917.701	0.001	1216097	WORD_OFF	n/a	n/a	LETTUCE	n/a	12	8	[0, 0, 0]	n/a	catFR1	3	R1226D
917.702	0.102	1216098	ENCODING_END	n/a	n/a	n/a	n/a	-999	8	[0, 0, 0]	n/a	catFR1	3	R1226D
917.804	0.0	1216200	DISTRACT_START	n/a	n/a	n/a	n/a	-999	8	[0, 0, 0]	n/a	catFR1	3	R1226D
917.804	0.013	1216200	START	n/a	n/a	n/a	n/a	-999	8	[-999, -999, -999]	n/a	catFR1	3	R1226D
917.817	5.151	1216213	PROB	5.117	n/a	n/a	n/a	-999	8	[7, 7, 6]	20.0	catFR1	3	R1226D
922.968	2.668	1221364	PROB	2.639	n/a	n/a	n/a	-999	8	[2, 5, 8]	15.0	catFR1	3	R1226D
925.636	4.233	1224032	PROB	4.203	n/a	n/a	n/a	-999	8	[9, 8, 6]	23.0	catFR1	3	R1226D
929.869	4.351	1228264	PROB	4.32	n/a	n/a	n/a	-999	8	[1, 7, 9]	17.0	catFR1	3	R1226D
934.22	2.801	1232615	PROB	2.778	n/a	n/a	n/a	-999	8	[7, 1, 3]	11.0	catFR1	3	R1226D
937.021	2.753	1235416	PROB	2.753	n/a	n/a	n/a	-999	8	[2, 1, 8]	11.0	catFR1	3	R1226D
939.774	0.014	1238169	STOP	n/a	n/a	n/a	n/a	-999	8	[-999, -999, -999]	n/a	catFR1	3	R1226D
939.788	0.567	1238183	DISTRACT_END	n/a	n/a	n/a	n/a	-999	8	[0, 0, 0]	n/a	catFR1	3	R1226D
940.355	0.517	1238750	RETRIEVAL_ORIENT	n/a	n/a	n/a	n/a	-999	8	[0, 0, 0]	n/a	catFR1	3	R1226D
940.872	2.813	1239267	REC_START	n/a	n/a	n/a	n/a	-999	8	[0, 0, 0]	n/a	catFR1	3	R1226D
943.685	2.206	1242080	REC_WORD	2.813	n/a	HEN	FarmAnimals	1	8	[0, 0, 0]	n/a	catFR1	3	R1226D
945.891	1.912	1244286	REC_WORD	5.019	n/a	PIG	FarmAnimals	8	8	[0, 0, 0]	n/a	catFR1	3	R1226D
947.803	2.18	1246197	REC_WORD	6.931	n/a	LAMB	FarmAnimals	2	8	[0, 0, 0]	n/a	catFR1	3	R1226D
949.983	8.166	1248377	REC_WORD	9.111	n/a	CORKSCREW	KitchenTools	9	8	[0, 0, 0]	n/a	catFR1	3	R1226D
958.149	4.786	1256543	REC_WORD	17.277	n/a	STRAINER	KitchenTools	3	8	[0, 0, 0]	n/a	catFR1	3	R1226D
962.935	7.946	1261329	REC_WORD	22.063	n/a	CORN	Vegetables	5	8	[0, 0, 0]	n/a	catFR1	3	R1226D
970.881	4.481	1269274	REC_END	n/a	n/a	n/a	n/a	-999	8	[0, 0, 0]	n/a	catFR1	3	R1226D
975.362	0.5	1273755	TRIAL	n/a	n/a	n/a	n/a	-999	9	[0, 0, 0]	n/a	catFR1	3	R1226D
975.862	10.0	1274255	COUNTDOWN_START	n/a	n/a	n/a	n/a	-999	9	[0, 0, 0]	n/a	catFR1	3	R1226D
986.29	0.006	1284682	COUNTDOWN_END	n/a	n/a	n/a	n/a	-999	9	[0, 0, 0]	n/a	catFR1	3	R1226D
986.296	1.6	1284688	ORIENT	n/a	n/a	n/a	n/a	-999	9	[0, 0, 0]	n/a	catFR1	3	R1226D
987.913	2.317	1286305	ORIENT_OFF	n/a	n/a	n/a	n/a	-999	9	[0, 0, 0]	n/a	catFR1	3	R1226D
990.23	1.6	1288622	WORD	n/a	wordpools/wordpool_categorized_EN.txt	SOFA	Furniture	1	9	[0, 0, 0]	n/a	catFR1	3	R1226D
991.847	0.885	1290239	WORD_OFF	n/a	n/a	SOFA	n/a	1	9	[0, 0, 0]	n/a	catFR1	3	R1226D
992.732	1.6	1291124	WORD	n/a	wordpools/wordpool_categorized_EN.txt	RECLINER	Furniture	2	9	[0, 0, 0]	n/a	catFR1	3	R1226D
994.348	0.85	1292740	WORD_OFF	n/a	n/a	RECLINER	n/a	2	9	[0, 0, 0]	n/a	catFR1	3	R1226D
995.198	1.6	1293590	WORD	n/a	wordpools/wordpool_categorized_EN.txt	LOBSTER	OceanAnimals	3	9	[0, 0, 0]	n/a	catFR1	3	R1226D
996.815	0.967	1295207	WORD_OFF	n/a	n/a	LOBSTER	n/a	3	9	[0, 0, 0]	n/a	catFR1	3	R1226D
997.782	1.6	1296174	WORD	n/a	wordpools/wordpool_categorized_EN.txt	JELLYFISH	OceanAnimals	4	9	[0, 0, 0]	n/a	catFR1	3	R1226D
999.4	1.0	1297792	WORD_OFF	n/a	n/a	JELLYFISH	n/a	4	9	[0, 0, 0]	n/a	catFR1	3	R1226D
1000.4	1.6	1298792	WORD	n/a	wordpools/wordpool_categorized_EN.txt	TUBA	Instruments	5	9	[0, 0, 0]	n/a	catFR1	3	R1226D
1002.016	0.767	1300407	WORD_OFF	n/a	n/a	TUBA	n/a	5	9	[0, 0, 0]	n/a	catFR1	3	R1226D
1002.783	1.6	1301174	WORD	n/a	wordpools/wordpool_categorized_EN.txt	PIANO	Instruments	6	9	[0, 0, 0]	n/a	catFR1	3	R1226D
1004.401	0.849	1302792	WORD_OFF	n/a	n/a	PIANO	n/a	6	9	[0, 0, 0]	n/a	catFR1	3	R1226D
1005.25	1.6	1303641	WORD	n/a	wordpools/wordpool_categorized_EN.txt	PLANKTON	OceanAnimals	7	9	[0, 0, 0]	n/a	catFR1	3	R1226D
1006.867	0.883	1305258	WORD_OFF	n/a	n/a	PLANKTON	n/a	7	9	[0, 0, 0]	n/a	catFR1	3	R1226D
1007.75	1.6	1306141	WORD	n/a	wordpools/wordpool_categorized_EN.txt	TURTLE	OceanAnimals	8	9	[0, 0, 0]	n/a	catFR1	3	R1226D
1009.368	0.849	1307759	WORD_OFF	n/a	n/a	TURTLE	n/a	8	9	[0, 0, 0]	n/a	catFR1	3	R1226D
1010.217	1.6	1308608	WORD	n/a	wordpools/wordpool_categorized_EN.txt	SHELF	Furniture	9	9	[0, 0, 0]	n/a	catFR1	3	R1226D
1011.834	0.902	1310225	WORD_OFF	n/a	n/a	SHELF	n/a	9	9	[0, 0, 0]	n/a	catFR1	3	R1226D
1012.736	1.6	1311127	WORD	n/a	wordpools/wordpool_categorized_EN.txt	TABLE	Furniture	10	9	[0, 0, 0]	n/a	catFR1	3	R1226D
1014.352	0.9	1312743	WORD_OFF	n/a	n/a	TABLE	n/a	10	9	[0, 0, 0]	n/a	catFR1	3	R1226D
1015.252	1.6	1313643	WORD	n/a	wordpools/wordpool_categorized_EN.txt	FLUTE	Instruments	11	9	[0, 0, 0]	n/a	catFR1	3	R1226D
1016.869	0.851	1315260	WORD_OFF	n/a	n/a	FLUTE	n/a	11	9	[0, 0, 0]	n/a	catFR1	3	R1226D
1017.72	1.6	1316111	WORD	n/a	wordpools/wordpool_categorized_EN.txt	BASS	Instruments	12	9	[0, 0, 0]	n/a	catFR1	3	R1226D
1019.336	0.0	1317727	ENCODING_END	n/a	n/a	n/a	n/a	-999	9	[0, 0, 0]	n/a	catFR1	3	R1226D
1019.336	0.133	1317727	WORD_OFF	n/a	n/a	BASS	n/a	12	9	[0, 0, 0]	n/a	catFR1	3	R1226D
1019.469	0.001	1317860	DISTRACT_START	n/a	n/a	n/a	n/a	-999	9	[0, 0, 0]	n/a	catFR1	3	R1226D
1019.47	0.017	1317861	START	n/a	n/a	n/a	n/a	-999	9	[-999, -999, -999]	n/a	catFR1	3	R1226D
1019.487	4.217	1317878	PROB	4.191	n/a	n/a	n/a	-999	9	[9, 9, 5]	23.0	catFR1	3	R1226D
1023.704	4.768	1322094	PROB	4.736	n/a	n/a	n/a	-999	9	[4, 8, 4]	16.0	catFR1	3	R1226D
1028.472	3.533	1326862	PROB	3.502	n/a	n/a	n/a	-999	9	[5, 5, 7]	17.0	catFR1	3	R1226D
1032.005	3.167	1330395	PROB	3.137	n/a	n/a	n/a	-999	9	[4, 9, 9]	22.0	catFR1	3	R1226D
1035.172	2.601	1333562	PROB	2.563	n/a	n/a	n/a	-999	9	[5, 3, 1]	9.0	catFR1	3	R1226D
1037.773	7.89	1336163	PROB	7.89	n/a	n/a	n/a	-999	9	[9, 3, 3]	15.0	catFR1	3	R1226D
1045.663	0.012	1344052	STOP	n/a	n/a	n/a	n/a	-999	9	[-999, -999, -999]	n/a	catFR1	3	R1226D
1045.675	0.7	1344064	DISTRACT_END	n/a	n/a	n/a	n/a	-999	9	[0, 0, 0]	n/a	catFR1	3	R1226D
1046.375	0.516	1344764	RETRIEVAL_ORIENT	n/a	n/a	n/a	n/a	-999	9	[0, 0, 0]	n/a	catFR1	3	R1226D
1046.891	1.713	1345280	REC_START	n/a	n/a	n/a	n/a	-999	9	[0, 0, 0]	n/a	catFR1	3	R1226D
1048.604	1.439	1346993	REC_WORD	1.713	n/a	SOFA	Furniture	1	9	[0, 0, 0]	n/a	catFR1	3	R1226D
1050.043	1.958	1348432	REC_WORD	3.152	n/a	RECLINER	Furniture	2	9	[0, 0, 0]	n/a	catFR1	3	R1226D
1052.001	1.759	1350390	REC_WORD	5.11	n/a	SHELF	Furniture	9	9	[0, 0, 0]	n/a	catFR1	3	R1226D
1053.76	1.776	1352149	REC_WORD	6.869	n/a	LOBSTER	OceanAnimals	3	9	[0, 0, 0]	n/a	catFR1	3	R1226D
1055.536	21.367	1353925	REC_WORD	8.645	n/a	PLANKTON	OceanAnimals	7	9	[0, 0, 0]	n/a	catFR1	3	R1226D
1076.903	5.228	1375290	REC_END	n/a	n/a	n/a	n/a	-999	9	[0, 0, 0]	n/a	catFR1	3	R1226D
1082.131	0.5	1380518	TRIAL	n/a	n/a	n/a	n/a	-999	10	[0, 0, 0]	n/a	catFR1	3	R1226D
1082.631	10.0	1381018	COUNTDOWN_START	n/a	n/a	n/a	n/a	-999	10	[0, 0, 0]	n/a	catFR1	3	R1226D
1093.059	0.007	1391445	COUNTDOWN_END	n/a	n/a	n/a	n/a	-999	10	[0, 0, 0]	n/a	catFR1	3	R1226D
1093.066	1.6	1391452	ORIENT	n/a	n/a	n/a	n/a	-999	10	[0, 0, 0]	n/a	catFR1	3	R1226D
1094.684	2.283	1393070	ORIENT_OFF	n/a	n/a	n/a	n/a	-999	10	[0, 0, 0]	n/a	catFR1	3	R1226D
1096.967	1.6	1395353	WORD	n/a	wordpools/wordpool_categorized_EN.txt	LEVEL	Tools	1	10	[0, 0, 0]	n/a	catFR1	3	R1226D
1098.585	0.8	1396971	WORD_OFF	n/a	n/a	LEVEL	n/a	1	10	[0, 0, 0]	n/a	catFR1	3	R1226D
1099.385	1.6	1397771	WORD	n/a	wordpools/wordpool_categorized_EN.txt	SAW	Tools	2	10	[0, 0, 0]	n/a	catFR1	3	R1226D
1101.001	0.917	1399387	WORD_OFF	n/a	n/a	SAW	n/a	2	10	[0, 0, 0]	n/a	catFR1	3	R1226D
1101.918	1.6	1400304	WORD	n/a	wordpools/wordpool_categorized_EN.txt	STOVE	Appliances	3	10	[0, 0, 0]	n/a	catFR1	3	R1226D
1103.535	0.967	1401921	WORD_OFF	n/a	n/a	STOVE	n/a	3	10	[0, 0, 0]	n/a	catFR1	3	R1226D
1104.502	1.6	1402888	WORD	n/a	wordpools/wordpool_categorized_EN.txt	VACUUM	Appliances	4	10	[0, 0, 0]	n/a	catFR1	3	R1226D
1106.118	0.95	1404504	WORD_OFF	n/a	n/a	VACUUM	n/a	4	10	[0, 0, 0]	n/a	catFR1	3	R1226D
1107.068	1.6	1405454	WORD	n/a	wordpools/wordpool_categorized_EN.txt	DOVE	Birds	5	10	[0, 0, 0]	n/a	catFR1	3	R1226D
1108.67	0.917	1407056	WORD_OFF	n/a	n/a	DOVE	n/a	5	10	[0, 0, 0]	n/a	catFR1	3	R1226D
1109.587	1.6	1407973	WORD	n/a	wordpools/wordpool_categorized_EN.txt	SPARROW	Birds	6	10	[0, 0, 0]	n/a	catFR1	3	R1226D
1111.203	0.866	1409589	WORD_OFF	n/a	n/a	SPARROW	n/a	6	10	[0, 0, 0]	n/a	catFR1	3	R1226D
1112.069	1.6	1410454	WORD	n/a	wordpools/wordpool_categorized_EN.txt	OVEN	Appliances	7	10	[0, 0, 0]	n/a	catFR1	3	R1226D
1113.687	0.917	1412072	WORD_OFF	n/a	n/a	OVEN	n/a	7	10	[0, 0, 0]	n/a	catFR1	3	R1226D
1114.604	1.6	1412989	WORD	n/a	wordpools/wordpool_categorized_EN.txt	WASHER	Appliances	8	10	[0, 0, 0]	n/a	catFR1	3	R1226D
1116.22	0.95	1414605	WORD_OFF	n/a	n/a	WASHER	n/a	8	10	[0, 0, 0]	n/a	catFR1	3	R1226D
1117.17	1.6	1415555	WORD	n/a	wordpools/wordpool_categorized_EN.txt	SCREWDRIVER	Tools	9	10	[0, 0, 0]	n/a	catFR1	3	R1226D
1118.787	0.918	1417172	WORD_OFF	n/a	n/a	SCREWDRIVER	n/a	9	10	[0, 0, 0]	n/a	catFR1	3	R1226D
1119.705	1.6	1418090	WORD	n/a	wordpools/wordpool_categorized_EN.txt	SANDER	Tools	10	10	[0, 0, 0]	n/a	catFR1	3	R1226D
1121.321	0.917	1419706	WORD_OFF	n/a	n/a	SANDER	n/a	10	10	[0, 0, 0]	n/a	catFR1	3	R1226D
1122.238	1.6	1420623	WORD	n/a	wordpools/wordpool_categorized_EN.txt	ROBIN	Birds	11	10	[0, 0, 0]	n/a	catFR1	3	R1226D
1123.855	0.851	1422240	WORD_OFF	n/a	n/a	ROBIN	n/a	11	10	[0, 0, 0]	n/a	catFR1	3	R1226D
1124.706	1.6	1423091	WORD	n/a	wordpools/wordpool_categorized_EN.txt	HAWK	Birds	12	10	[0, 0, 0]	n/a	catFR1	3	R1226D
1126.322	0.0	1424707	ENCODING_END	n/a	n/a	n/a	n/a	-999	10	[0, 0, 0]	n/a	catFR1	3	R1226D
1126.322	0.106	1424707	WORD_OFF	n/a	n/a	HAWK	n/a	12	10	[0, 0, 0]	n/a	catFR1	3	R1226D
1126.428	0.0	1424813	DISTRACT_START	n/a	n/a	n/a	n/a	-999	10	[0, 0, 0]	n/a	catFR1	3	R1226D
1126.428	0.012	1424813	START	n/a	n/a	n/a	n/a	-999	10	[-999, -999, -999]	n/a	catFR1	3	R1226D
1126.44	3.599	1424825	PROB	3.574	n/a	n/a	n/a	-999	10	[2, 2, 4]	8.0	catFR1	3	R1226D
1130.039	3.669	1428423	PROB	3.64	n/a	n/a	n/a	-999	10	[5, 4, 8]	17.0	catFR1	3	R1226D
1133.708	2.332	1432092	PROB	2.306	n/a	n/a	n/a	-999	10	[2, 1, 1]	4.0	catFR1	3	R1226D
1136.04	4.184	1434424	PROB	4.158	n/a	n/a	n/a	-999	10	[5, 6, 7]	18.0	catFR1	3	R1226D
1140.224	6.589	1438608	PROB	6.589	n/a	n/a	n/a	-999	10	[5, 9, 6]	20.0	catFR1	3	R1226D
1146.813	0.013	1445197	STOP	n/a	n/a	n/a	n/a	-999	10	[-999, -999, -999]	n/a	catFR1	3	R1226D
1146.826	0.617	1445210	DISTRACT_END	n/a	n/a	n/a	n/a	-999	10	[0, 0, 0]	n/a	catFR1	3	R1226D
1147.443	0.517	1445827	RETRIEVAL_ORIENT	n/a	n/a	n/a	n/a	-999	10	[0, 0, 0]	n/a	catFR1	3	R1226D
1147.96	2.935	1446343	REC_START	n/a	n/a	n/a	n/a	-999	10	[0, 0, 0]	n/a	catFR1	3	R1226D
1150.895	2.253	1449278	REC_WORD	2.935	n/a	LEVEL	Tools	1	10	[0, 0, 0]	n/a	catFR1	3	R1226D
1153.148	5.482	1451531	REC_WORD	5.188	n/a	SAW	Tools	2	10	[0, 0, 0]	n/a	catFR1	3	R1226D
1158.63	18.9	1457013	REC_WORD	10.67	n/a	ROBIN	Birds	11	10	[0, 0, 0]	n/a	catFR1	3	R1226D
1177.53	0.44	1475912	REC_WORD	29.57	n/a	TABLE	n/a	-999	10	[0, 0, 0]	n/a	catFR1	3	R1226D
1177.97	5.345	1476352	REC_END	n/a	n/a	n/a	n/a	-999	10	[0, 0, 0]	n/a	catFR1	3	R1226D
1183.315	0.5	1481697	TRIAL	n/a	n/a	n/a	n/a	-999	11	[0, 0, 0]	n/a	catFR1	3	R1226D
1183.815	10.0	1482197	COUNTDOWN_START	n/a	n/a	n/a	n/a	-999	11	[0, 0, 0]	n/a	catFR1	3	R1226D
1194.243	0.008	1492624	COUNTDOWN_END	n/a	n/a	n/a	n/a	-999	11	[0, 0, 0]	n/a	catFR1	3	R1226D
1194.251	1.6	1492632	ORIENT	n/a	n/a	n/a	n/a	-999	11	[0, 0, 0]	n/a	catFR1	3	R1226D
1195.868	2.25	1494249	ORIENT_OFF	n/a	n/a	n/a	n/a	-999	11	[0, 0, 0]	n/a	catFR1	3	R1226D
1198.118	1.6	1496499	WORD	n/a	wordpools/wordpool_categorized_EN.txt	LADLE	KitchenTools	1	11	[0, 0, 0]	n/a	catFR1	3	R1226D
1199.736	0.801	1498117	WORD_OFF	n/a	n/a	LADLE	n/a	1	11	[0, 0, 0]	n/a	catFR1	3	R1226D
1200.537	1.6	1498918	WORD	n/a	wordpools/wordpool_categorized_EN.txt	SPOON	KitchenTools	2	11	[0, 0, 0]	n/a	catFR1	3	R1226D
1202.152	0.951	1500533	WORD_OFF	n/a	n/a	SPOON	n/a	2	11	[0, 0, 0]	n/a	catFR1	3	R1226D
1203.103	1.6	1501483	WORD	n/a	wordpools/wordpool_categorized_EN.txt	CRICKET	Insects	3	11	[0, 0, 0]	n/a	catFR1	3	R1226D
1204.721	0.967	1503101	WORD_OFF	n/a	n/a	CRICKET	n/a	3	11	[0, 0, 0]	n/a	catFR1	3	R1226D
1205.688	1.6	1504068	WORD	n/a	wordpools/wordpool_categorized_EN.txt	ROACH	Insects	4	11	[0, 0, 0]	n/a	catFR1	3	R1226D
1207.303	0.934	1505683	WORD_OFF	n/a	n/a	ROACH	n/a	4	11	[0, 0, 0]	n/a	catFR1	3	R1226D
1208.237	1.6	1506617	WORD	n/a	wordpools/wordpool_categorized_EN.txt	COUCH	Furniture	5	11	[0, 0, 0]	n/a	catFR1	3	R1226D
1209.854	0.917	1508234	WORD_OFF	n/a	n/a	COUCH	n/a	5	11	[0, 0, 0]	n/a	catFR1	3	R1226D
1210.771	1.6	1509151	WORD	n/a	wordpools/wordpool_categorized_EN.txt	BOOKCASE	Furniture	6	11	[0, 0, 0]	n/a	catFR1	3	R1226D
1212.389	0.849	1510769	WORD_OFF	n/a	n/a	BOOKCASE	n/a	6	11	[0, 0, 0]	n/a	catFR1	3	R1226D
1213.238	1.6	1511618	WORD	n/a	wordpools/wordpool_categorized_EN.txt	WHISK	KitchenTools	7	11	[0, 0, 0]	n/a	catFR1	3	R1226D
1214.855	0.917	1513235	WORD_OFF	n/a	n/a	WHISK	n/a	7	11	[0, 0, 0]	n/a	catFR1	3	R1226D
1215.772	1.6	1514152	WORD	n/a	wordpools/wordpool_categorized_EN.txt	GRATER	KitchenTools	8	11	[0, 0, 0]	n/a	catFR1	3	R1226D
1217.39	0.966	1515770	WORD_OFF	n/a	n/a	GRATER	n/a	8	11	[0, 0, 0]	n/a	catFR1	3	R1226D
1218.356	1.6	1516736	WORD	n/a	wordpools/wordpool_categorized_EN.txt	MOSQUITO	Insects	9	11	[0, 0, 0]	n/a	catFR1	3	R1226D
1219.972	0.851	1518352	WORD_OFF	n/a	n/a	MOSQUITO	n/a	9	11	[0, 0, 0]	n/a	catFR1	3	R1226D
1220.823	1.6	1519202	WORD	n/a	wordpools/wordpool_categorized_EN.txt	LADYBUG	Insects	10	11	[0, 0, 0]	n/a	catFR1	3	R1226D
1222.44	0.917	1520819	WORD_OFF	n/a	n/a	LADYBUG	n/a	10	11	[0, 0, 0]	n/a	catFR1	3	R1226D
1223.357	1.6	1521736	WORD	n/a	wordpools/wordpool_categorized_EN.txt	BED	Furniture	11	11	[0, 0, 0]	n/a	catFR1	3	R1226D
1224.973	0.984	1523352	WORD_OFF	n/a	n/a	BED	n/a	11	11	[0, 0, 0]	n/a	catFR1	3	R1226D
1225.957	1.6	1524336	WORD	n/a	wordpools/wordpool_categorized_EN.txt	DRESSER	Furniture	12	11	[0, 0, 0]	n/a	catFR1	3	R1226D
1227.575	0.0	1525954	ENCODING_END	n/a	n/a	n/a	n/a	-999	11	[0, 0, 0]	n/a	catFR1	3	R1226D
1227.575	0.103	1525954	WORD_OFF	n/a	n/a	DRESSER	n/a	12	11	[0, 0, 0]	n/a	catFR1	3	R1226D
1227.678	0.0	1526057	DISTRACT_START	n/a	n/a	n/a	n/a	-999	11	[0, 0, 0]	n/a	catFR1	3	R1226D
1227.678	0.014	1526057	START	n/a	n/a	n/a	n/a	-999	11	[-999, -999, -999]	n/a	catFR1	3	R1226D
1227.692	4.984	1526071	PROB	4.955	n/a	n/a	n/a	-999	11	[9, 8, 6]	23.0	catFR1	3	R1226D
1232.676	4.051	1531055	PROB	4.018	n/a	n/a	n/a	-999	11	[6, 8, 9]	23.0	catFR1	3	R1226D
1236.727	5.433	1535106	PROB	5.398	n/a	n/a	n/a	-999	11	[8, 7, 7]	22.0	catFR1	3	R1226D
1242.16	2.8	1540538	PROB	2.773	n/a	n/a	n/a	-999	11	[1, 2, 4]	7.0	catFR1	3	R1226D
1244.96	5.663	1543338	PROB	5.663	n/a	n/a	n/a	-999	11	[9, 8, 9]	26.0	catFR1	3	R1226D
1250.623	0.006	1549001	STOP	n/a	n/a	n/a	n/a	-999	11	[-999, -999, -999]	n/a	catFR1	3	R1226D
1250.629	0.649	1549007	DISTRACT_END	n/a	n/a	n/a	n/a	-999	11	[0, 0, 0]	n/a	catFR1	3	R1226D
1251.278	0.518	1549656	RETRIEVAL_ORIENT	n/a	n/a	n/a	n/a	-999	11	[0, 0, 0]	n/a	catFR1	3	R1226D
1251.796	2.08	1550174	REC_START	n/a	n/a	n/a	n/a	-999	11	[0, 0, 0]	n/a	catFR1	3	R1226D
1253.876	2.174	1552254	REC_WORD	2.08	n/a	LADLE	KitchenTools	1	11	[0, 0, 0]	n/a	catFR1	3	R1226D
1256.05	3.676	1554428	REC_WORD	4.254	n/a	SPOON	KitchenTools	2	11	[0, 0, 0]	n/a	catFR1	3	R1226D
1259.726	1.886	1558103	REC_WORD	7.93	n/a	LADYBUG	Insects	10	11	[0, 0, 0]	n/a	catFR1	3	R1226D
1261.612	1.814	1559989	REC_WORD	9.816	n/a	CRICKET	Insects	3	11	[0, 0, 0]	n/a	catFR1	3	R1226D
1263.426	8.264	1561803	REC_WORD	11.63	n/a	MOSQUITO	Insects	9	11	[0, 0, 0]	n/a	catFR1	3	R1226D
1271.69	2.954	1570067	REC_WORD	19.894	n/a	DRAWER	n/a	-999	11	[0, 0, 0]	n/a	catFR1	3	R1226D
1274.644	3.737	1573021	REC_WORD	22.848	n/a	DRESSER	Furniture	12	11	[0, 0, 0]	n/a	catFR1	3	R1226D
1278.381	3.424	1576757	REC_WORD	26.585	n/a	COUCH	Furniture	5	11	[0, 0, 0]	n/a	catFR1	3	R1226D
1281.805	5.446	1580181	REC_END	n/a	n/a	n/a	n/a	-999	11	[0, 0, 0]	n/a	catFR1	3	R1226D
1287.251	0.5	1585627	TRIAL	n/a	n/a	n/a	n/a	-999	12	[0, 0, 0]	n/a	catFR1	3	R1226D
1287.751	10.0	1586127	COUNTDOWN_START	n/a	n/a	n/a	n/a	-999	12	[0, 0, 0]	n/a	catFR1	3	R1226D
1298.179	0.008	1596554	COUNTDOWN_END	n/a	n/a	n/a	n/a	-999	12	[0, 0, 0]	n/a	catFR1	3	R1226D
1298.187	1.6	1596562	ORIENT	n/a	n/a	n/a	n/a	-999	12	[0, 0, 0]	n/a	catFR1	3	R1226D
1299.804	2.1	1598179	ORIENT_OFF	n/a	n/a	n/a	n/a	-999	12	[0, 0, 0]	n/a	catFR1	3	R1226D
1301.904	1.6	1600279	WORD	n/a	wordpools/wordpool_categorized_EN.txt	THUNDER	Weather	1	12	[0, 0, 0]	n/a	catFR1	3	R1226D
1303.522	1.017	1601897	WORD_OFF	n/a	n/a	THUNDER	n/a	1	12	[0, 0, 0]	n/a	catFR1	3	R1226D
1304.539	1.6	1602914	WORD	n/a	wordpools/wordpool_categorized_EN.txt	TORNADO	Weather	2	12	[0, 0, 0]	n/a	catFR1	3	R1226D
1306.155	0.967	1604530	WORD_OFF	n/a	n/a	TORNADO	n/a	2	12	[0, 0, 0]	n/a	catFR1	3	R1226D
1307.122	1.6	1605497	WORD	n/a	wordpools/wordpool_categorized_EN.txt	SHOVEL	Tools	3	12	[0, 0, 0]	n/a	catFR1	3	R1226D
1308.723	0.85	1607098	WORD_OFF	n/a	n/a	SHOVEL	n/a	3	12	[0, 0, 0]	n/a	catFR1	3	R1226D
1309.573	1.6	1607948	WORD	n/a	wordpools/wordpool_categorized_EN.txt	AXE	Tools	4	12	[0, 0, 0]	n/a	catFR1	3	R1226D
1311.189	0.917	1609564	WORD_OFF	n/a	n/a	AXE	n/a	4	12	[0, 0, 0]	n/a	catFR1	3	R1226D
1312.106	1.6	1610480	WORD	n/a	wordpools/wordpool_categorized_EN.txt	FOREST	Landscapes	5	12	[0, 0, 0]	n/a	catFR1	3	R1226D
1313.724	0.767	1612098	WORD_OFF	n/a	n/a	FOREST	n/a	5	12	[0, 0, 0]	n/a	catFR1	3	R1226D
1314.491	1.6	1612865	WORD	n/a	wordpools/wordpool_categorized_EN.txt	VALLEY	Landscapes	6	12	[0, 0, 0]	n/a	catFR1	3	R1226D
1316.107	0.983	1614481	WORD_OFF	n/a	n/a	VALLEY	n/a	6	12	[0, 0, 0]	n/a	catFR1	3	R1226D
1317.09	1.6	1615464	WORD	n/a	wordpools/wordpool_categorized_EN.txt	FOG	Weather	7	12	[0, 0, 0]	n/a	catFR1	3	R1226D
1318.691	0.984	1617065	WORD_OFF	n/a	n/a	FOG	n/a	7	12	[0, 0, 0]	n/a	catFR1	3	R1226D
1319.675	1.6	1618049	WORD	n/a	wordpools/wordpool_categorized_EN.txt	LIGHTNING	Weather	8	12	[0, 0, 0]	n/a	catFR1	3	R1226D
1321.291	0.883	1619665	WORD_OFF	n/a	n/a	LIGHTNING	n/a	8	12	[0, 0, 0]	n/a	catFR1	3	R1226D
1322.174	1.6	1620548	WORD	n/a	wordpools/wordpool_categorized_EN.txt	CROWBAR	Tools	9	12	[0, 0, 0]	n/a	catFR1	3	R1226D
1323.791	0.935	1622165	WORD_OFF	n/a	n/a	CROWBAR	n/a	9	12	[0, 0, 0]	n/a	catFR1	3	R1226D
1324.726	1.6	1623100	WORD	n/a	wordpools/wordpool_categorized_EN.txt	RATCHET	Tools	10	12	[0, 0, 0]	n/a	catFR1	3	R1226D
1326.342	0.833	1624716	WORD_OFF	n/a	n/a	RATCHET	n/a	10	12	[0, 0, 0]	n/a	catFR1	3	R1226D
1327.175	1.6	1625549	WORD	n/a	wordpools/wordpool_categorized_EN.txt	CREEK	Landscapes	11	12	[0, 0, 0]	n/a	catFR1	3	R1226D
1328.792	0.801	1627166	WORD_OFF	n/a	n/a	CREEK	n/a	11	12	[0, 0, 0]	n/a	catFR1	3	R1226D
1329.593	1.6	1627967	WORD	n/a	wordpools/wordpool_categorized_EN.txt	RIVER	Landscapes	12	12	[0, 0, 0]	n/a	catFR1	3	R1226D
1331.209	0.001	1629582	WORD_OFF	n/a	n/a	RIVER	n/a	12	12	[0, 0, 0]	n/a	catFR1	3	R1226D
1331.21	0.132	1629583	ENCODING_END	n/a	n/a	n/a	n/a	-999	12	[0, 0, 0]	n/a	catFR1	3	R1226D
1331.342	0.0	1629715	DISTRACT_START	n/a	n/a	n/a	n/a	-999	12	[0, 0, 0]	n/a	catFR1	3	R1226D
1331.342	0.019	1629715	START	n/a	n/a	n/a	n/a	-999	12	[-999, -999, -999]	n/a	catFR1	3	R1226D
1331.361	2.699	1629734	PROB	2.662	n/a	n/a	n/a	-999	12	[9, 2, 1]	12.0	catFR1	3	R1226D
1334.06	3.734	1632433	PROB	3.707	n/a	n/a	n/a	-999	12	[4, 3, 2]	9.0	catFR1	3	R1226D
1337.794	2.735	1636167	PROB	2.701	n/a	n/a	n/a	-999	12	[3, 7, 7]	17.0	catFR1	3	R1226D
1340.529	2.934	1638902	PROB	2.903	n/a	n/a	n/a	-999	12	[4, 3, 2]	9.0	catFR1	3	R1226D
1343.463	3.516	1641836	PROB	3.488	n/a	n/a	n/a	-999	12	[8, 5, 3]	16.0	catFR1	3	R1226D
1346.979	2.984	1645352	PROB	2.955	n/a	n/a	n/a	-999	12	[5, 6, 4]	15.0	catFR1	3	R1226D
1349.963	2.516	1648335	PROB	2.516	n/a	n/a	n/a	-999	12	[1, 4, 1]	6.0	catFR1	3	R1226D
1352.479	0.019	1650851	STOP	n/a	n/a	n/a	n/a	-999	12	[-999, -999, -999]	n/a	catFR1	3	R1226D
1352.498	0.532	1650870	DISTRACT_END	n/a	n/a	n/a	n/a	-999	12	[0, 0, 0]	n/a	catFR1	3	R1226D
1353.03	0.518	1651402	RETRIEVAL_ORIENT	n/a	n/a	n/a	n/a	-999	12	[0, 0, 0]	n/a	catFR1	3	R1226D
1353.548	1.568	1651920	REC_START	n/a	n/a	n/a	n/a	-999	12	[0, 0, 0]	n/a	catFR1	3	R1226D
1355.116	1.631	1653488	REC_WORD	1.568	n/a	THUNDER	Weather	1	12	[0, 0, 0]	n/a	catFR1	3	R1226D
1356.747	2.789	1655119	REC_WORD	3.199	n/a	LIGHTNING	Weather	8	12	[0, 0, 0]	n/a	catFR1	3	R1226D
1359.536	1.902	1657908	REC_WORD	5.988	n/a	AXE	Tools	4	12	[0, 0, 0]	n/a	catFR1	3	R1226D
1361.438	2.0	1659810	REC_WORD	7.89	n/a	VALLEY	Landscapes	6	12	[0, 0, 0]	n/a	catFR1	3	R1226D
1363.438	9.127	1661810	REC_WORD	9.89	n/a	STREAM	n/a	-999	12	[0, 0, 0]	n/a	catFR1	3	R1226D
1372.565	0.385	1670936	REC_WORD_VV	19.017	n/a	<>	n/a	-999	12	[0, 0, 0]	n/a	catFR1	3	R1226D
1372.95	7.636	1671321	REC_WORD	19.402	n/a	LIGHTNING	Weather	8	12	[0, 0, 0]	n/a	catFR1	3	R1226D
1380.586	2.974	1678957	REC_WORD	27.038	n/a	HATCHET	n/a	-999	12	[0, 0, 0]	n/a	catFR1	3	R1226D
1383.56	5.227	1681931	REC_END	n/a	n/a	n/a	n/a	-999	12	[0, 0, 0]	n/a	catFR1	3	R1226D
1388.787	0.5	1687157	TRIAL	n/a	n/a	n/a	n/a	-999	13	[0, 0, 0]	n/a	catFR1	3	R1226D
1389.287	10.0	1687657	COUNTDOWN_START	n/a	n/a	n/a	n/a	-999	13	[0, 0, 0]	n/a	catFR1	3	R1226D
1399.715	0.008	1698085	COUNTDOWN_END	n/a	n/a	n/a	n/a	-999	13	[0, 0, 0]	n/a	catFR1	3	R1226D
1399.723	1.6	1698093	ORIENT	n/a	n/a	n/a	n/a	-999	13	[0, 0, 0]	n/a	catFR1	3	R1226D
1401.339	2.185	1699709	ORIENT_OFF	n/a	n/a	n/a	n/a	-999	13	[0, 0, 0]	n/a	catFR1	3	R1226D
1403.524	1.6	1701893	WORD	n/a	wordpools/wordpool_categorized_EN.txt	ELEPHANT	Zoo	1	13	[0, 0, 0]	n/a	catFR1	3	R1226D
1405.14	0.983	1703509	WORD_OFF	n/a	n/a	ELEPHANT	n/a	1	13	[0, 0, 0]	n/a	catFR1	3	R1226D
1406.123	1.6	1704492	WORD	n/a	wordpools/wordpool_categorized_EN.txt	ZEBRA	Zoo	2	13	[0, 0, 0]	n/a	catFR1	3	R1226D
1407.741	0.967	1706110	WORD_OFF	n/a	n/a	ZEBRA	n/a	2	13	[0, 0, 0]	n/a	catFR1	3	R1226D
1408.708	1.6	1707077	WORD	n/a	wordpools/wordpool_categorized_EN.txt	PEAS	Vegetables	3	13	[0, 0, 0]	n/a	catFR1	3	R1226D
1410.324	0.833	1708693	WORD_OFF	n/a	n/a	PEAS	n/a	3	13	[0, 0, 0]	n/a	catFR1	3	R1226D
1411.157	1.6	1709526	WORD	n/a	wordpools/wordpool_categorized_EN.txt	CUCUMBER	Vegetables	4	13	[0, 0, 0]	n/a	catFR1	3	R1226D
1412.774	0.968	1711143	WORD_OFF	n/a	n/a	CUCUMBER	n/a	4	13	[0, 0, 0]	n/a	catFR1	3	R1226D
1413.742	1.6	1712111	WORD	n/a	wordpools/wordpool_categorized_EN.txt	COFFEE	Beverages	5	13	[0, 0, 0]	n/a	catFR1	3	R1226D
1415.359	0.949	1713728	WORD_OFF	n/a	n/a	COFFEE	n/a	5	13	[0, 0, 0]	n/a	catFR1	3	R1226D
1416.308	1.6	1714677	WORD	n/a	wordpools/wordpool_categorized_EN.txt	JUICE	Beverages	6	13	[0, 0, 0]	n/a	catFR1	3	R1226D
1417.925	0.834	1716294	WORD_OFF	n/a	n/a	JUICE	n/a	6	13	[0, 0, 0]	n/a	catFR1	3	R1226D
1418.759	1.6	1717128	WORD	n/a	wordpools/wordpool_categorized_EN.txt	TIGER	Zoo	7	13	[0, 0, 0]	n/a	catFR1	3	R1226D
1420.377	0.899	1718746	WORD_OFF	n/a	n/a	TIGER	n/a	7	13	[0, 0, 0]	n/a	catFR1	3	R1226D
1421.276	1.6	1719644	WORD	n/a	wordpools/wordpool_categorized_EN.txt	LION	Zoo	8	13	[0, 0, 0]	n/a	catFR1	3	R1226D
1422.893	0.983	1721261	WORD_OFF	n/a	n/a	LION	n/a	8	13	[0, 0, 0]	n/a	catFR1	3	R1226D
1423.876	1.6	1722244	WORD	n/a	wordpools/wordpool_categorized_EN.txt	CAULIFLOWER	Vegetables	9	13	[0, 0, 0]	n/a	catFR1	3	R1226D
1425.477	0.85	1723845	WORD_OFF	n/a	n/a	CAULIFLOWER	n/a	9	13	[0, 0, 0]	n/a	catFR1	3	R1226D
1426.327	1.6	1724695	WORD	n/a	wordpools/wordpool_categorized_EN.txt	CABBAGE	Vegetables	10	13	[0, 0, 0]	n/a	catFR1	3	R1226D
1427.944	0.866	1726312	WORD_OFF	n/a	n/a	CABBAGE	n/a	10	13	[0, 0, 0]	n/a	catFR1	3	R1226D
1428.81	1.6	1727178	WORD	n/a	wordpools/wordpool_categorized_EN.txt	COLA	Beverages	11	13	[0, 0, 0]	n/a	catFR1	3	R1226D
1430.412	0.849	1728780	WORD_OFF	n/a	n/a	COLA	n/a	11	13	[0, 0, 0]	n/a	catFR1	3	R1226D
1431.261	1.6	1729629	WORD	n/a	wordpools/wordpool_categorized_EN.txt	RUM	Beverages	12	13	[0, 0, 0]	n/a	catFR1	3	R1226D
1432.878	0.0	1731246	ENCODING_END	n/a	n/a	n/a	n/a	-999	13	[0, 0, 0]	n/a	catFR1	3	R1226D
1432.878	0.101	1731246	WORD_OFF	n/a	n/a	RUM	n/a	12	13	[0, 0, 0]	n/a	catFR1	3	R1226D
1432.979	0.0	1731347	DISTRACT_START	n/a	n/a	n/a	n/a	-999	13	[0, 0, 0]	n/a	catFR1	3	R1226D
1432.979	0.016	1731347	START	n/a	n/a	n/a	n/a	-999	13	[-999, -999, -999]	n/a	catFR1	3	R1226D
1432.995	4.767	1731363	PROB	4.74	n/a	n/a	n/a	-999	13	[5, 5, 8]	18.0	catFR1	3	R1226D
1437.762	5.268	1736130	PROB	5.244	n/a	n/a	n/a	-999	13	[2, 7, 5]	14.0	catFR1	3	R1226D
1443.03	3.801	1741397	PROB	3.775	n/a	n/a	n/a	-999	13	[9, 8, 6]	22.0	catFR1	3	R1226D
1446.831	3.651	1745198	PROB	3.625	n/a	n/a	n/a	-999	13	[1, 9, 1]	11.0	catFR1	3	R1226D
1450.482	2.499	1748849	PROB	2.499	n/a	n/a	n/a	-999	13	[7, 3, 2]	12.0	catFR1	3	R1226D
1452.981	0.018	1751348	STOP	n/a	n/a	n/a	n/a	-999	13	[-999, -999, -999]	n/a	catFR1	3	R1226D
1452.999	0.617	1751366	DISTRACT_END	n/a	n/a	n/a	n/a	-999	13	[0, 0, 0]	n/a	catFR1	3	R1226D
1453.616	0.517	1751983	RETRIEVAL_ORIENT	n/a	n/a	n/a	n/a	-999	13	[0, 0, 0]	n/a	catFR1	3	R1226D
1454.133	1.805	1752500	REC_START	n/a	n/a	n/a	n/a	-999	13	[0, 0, 0]	n/a	catFR1	3	R1226D
1455.938	1.832	1754305	REC_WORD	1.805	n/a	ELEPHANT	Zoo	1	13	[0, 0, 0]	n/a	catFR1	3	R1226D
1457.77	8.097	1756136	REC_WORD	3.637	n/a	PEAS	Vegetables	3	13	[0, 0, 0]	n/a	catFR1	3	R1226D
1465.867	14.484	1764233	REC_WORD	11.734	n/a	CAULIFLOWER	Vegetables	9	13	[0, 0, 0]	n/a	catFR1	3	R1226D
1480.351	3.662	1778716	REC_WORD	26.218	n/a	BROCCOLI	n/a	-999	13	[0, 0, 0]	n/a	catFR1	3	R1226D
1484.013	0.13	1782378	REC_WORD	29.88	n/a	RUM	Beverages	12	13	[0, 0, 0]	n/a	catFR1	3	R1226D
1484.143	5.446	1782508	REC_END	n/a	n/a	n/a	n/a	-999	13	[0, 0, 0]	n/a	catFR1	3	R1226D
1489.589	0.5	1787954	TRIAL	n/a	n/a	n/a	n/a	-999	14	[0, 0, 0]	n/a	catFR1	3	R1226D
1490.089	10.0	1788454	COUNTDOWN_START	n/a	n/a	n/a	n/a	-999	14	[0, 0, 0]	n/a	catFR1	3	R1226D
1500.517	0.008	1798881	COUNTDOWN_END	n/a	n/a	n/a	n/a	-999	14	[0, 0, 0]	n/a	catFR1	3	R1226D
1500.525	1.6	1798889	ORIENT	n/a	n/a	n/a	n/a	-999	14	[0, 0, 0]	n/a	catFR1	3	R1226D
1502.141	2.133	1800505	ORIENT_OFF	n/a	n/a	n/a	n/a	-999	14	[0, 0, 0]	n/a	catFR1	3	R1226D
1504.274	1.6	1802638	WORD	n/a	wordpools/wordpool_categorized_EN.txt	DUCK	Birds	1	14	[0, 0, 0]	n/a	catFR1	3	R1226D
1505.891	0.802	1804255	WORD_OFF	n/a	n/a	DUCK	n/a	1	14	[0, 0, 0]	n/a	catFR1	3	R1226D
1506.693	1.6	1805057	WORD	n/a	wordpools/wordpool_categorized_EN.txt	FINCH	Birds	2	14	[0, 0, 0]	n/a	catFR1	3	R1226D
1508.308	0.934	1806672	WORD_OFF	n/a	n/a	FINCH	n/a	2	14	[0, 0, 0]	n/a	catFR1	3	R1226D
1509.242	1.6	1807606	WORD	n/a	wordpools/wordpool_categorized_EN.txt	RADIO	Electronics	3	14	[0, 0, 0]	n/a	catFR1	3	R1226D
1510.859	0.801	1809223	WORD_OFF	n/a	n/a	RADIO	n/a	3	14	[0, 0, 0]	n/a	catFR1	3	R1226D
1511.66	1.6	1810024	WORD	n/a	wordpools/wordpool_categorized_EN.txt	TABLET	Electronics	4	14	[0, 0, 0]	n/a	catFR1	3	R1226D
1513.276	0.967	1811639	WORD_OFF	n/a	n/a	TABLET	n/a	4	14	[0, 0, 0]	n/a	catFR1	3	R1226D
1514.243	1.6	1812606	WORD	n/a	wordpools/wordpool_categorized_EN.txt	TEA	Beverages	5	14	[0, 0, 0]	n/a	catFR1	3	R1226D
1515.86	0.917	1814223	WORD_OFF	n/a	n/a	TEA	n/a	5	14	[0, 0, 0]	n/a	catFR1	3	R1226D
1516.777	1.6	1815140	WORD	n/a	wordpools/wordpool_categorized_EN.txt	SODA	Beverages	6	14	[0, 0, 0]	n/a	catFR1	3	R1226D
1518.395	0.983	1816758	WORD_OFF	n/a	n/a	SODA	n/a	6	14	[0, 0, 0]	n/a	catFR1	3	R1226D
1519.378	1.6	1817741	WORD	n/a	wordpools/wordpool_categorized_EN.txt	CARDINAL	Birds	7	14	[0, 0, 0]	n/a	catFR1	3	R1226D
1520.994	0.933	1819357	WORD_OFF	n/a	n/a	CARDINAL	n/a	7	14	[0, 0, 0]	n/a	catFR1	3	R1226D
1521.927	1.6	1820290	WORD	n/a	wordpools/wordpool_categorized_EN.txt	GOOSE	Birds	8	14	[0, 0, 0]	n/a	catFR1	3	R1226D
1523.546	0.967	1821909	WORD_OFF	n/a	n/a	GOOSE	n/a	8	14	[0, 0, 0]	n/a	catFR1	3	R1226D
1524.513	1.6	1822876	WORD	n/a	wordpools/wordpool_categorized_EN.txt	COMPUTER	Electronics	9	14	[0, 0, 0]	n/a	catFR1	3	R1226D
1526.128	0.934	1824491	WORD_OFF	n/a	n/a	COMPUTER	n/a	9	14	[0, 0, 0]	n/a	catFR1	3	R1226D
1527.062	1.6	1825425	WORD	n/a	wordpools/wordpool_categorized_EN.txt	PRINTER	Electronics	10	14	[0, 0, 0]	n/a	catFR1	3	R1226D
1528.68	0.866	1827043	WORD_OFF	n/a	n/a	PRINTER	n/a	10	14	[0, 0, 0]	n/a	catFR1	3	R1226D
1529.546	1.6	1827909	WORD	n/a	wordpools/wordpool_categorized_EN.txt	LEMONADE	Beverages	11	14	[0, 0, 0]	n/a	catFR1	3	R1226D
1531.163	0.883	1829525	WORD_OFF	n/a	n/a	LEMONADE	n/a	11	14	[0, 0, 0]	n/a	catFR1	3	R1226D
1532.046	1.6	1830408	WORD	n/a	wordpools/wordpool_categorized_EN.txt	MILK	Beverages	12	14	[0, 0, 0]	n/a	catFR1	3	R1226D
1533.664	0.0	1832026	WORD_OFF	n/a	n/a	MILK	n/a	12	14	[0, 0, 0]	n/a	catFR1	3	R1226D
1533.664	0.101	1832026	ENCODING_END	n/a	n/a	n/a	n/a	-999	14	[0, 0, 0]	n/a	catFR1	3	R1226D
1533.765	0.0	1832127	DISTRACT_START	n/a	n/a	n/a	n/a	-999	14	[0, 0, 0]	n/a	catFR1	3	R1226D
1533.765	0.015	1832127	START	n/a	n/a	n/a	n/a	-999	14	[-999, -999, -999]	n/a	catFR1	3	R1226D
1533.78	2.785	1832142	PROB	2.747	n/a	n/a	n/a	-999	14	[1, 9, 2]	12.0	catFR1	3	R1226D
1536.565	4.817	1834927	PROB	4.784	n/a	n/a	n/a	-999	14	[8, 3, 6]	17.0	catFR1	3	R1226D
1541.382	3.8	1839744	PROB	3.777	n/a	n/a	n/a	-999	14	[3, 3, 4]	11.0	catFR1	3	R1226D
1545.182	2.535	1843544	PROB	2.504	n/a	n/a	n/a	-999	14	[5, 5, 2]	12.0	catFR1	3	R1226D
1547.717	3.366	1846079	PROB	3.329	n/a	n/a	n/a	-999	14	[1, 4, 3]	8.0	catFR1	3	R1226D
1551.083	3.77	1849444	PROB	3.77	n/a	n/a	n/a	-999	14	[2, 3, 5]	10.0	catFR1	3	R1226D
1554.853	0.014	1853214	STOP	n/a	n/a	n/a	n/a	-999	14	[-999, -999, -999]	n/a	catFR1	3	R1226D
1554.867	0.618	1853228	DISTRACT_END	n/a	n/a	n/a	n/a	-999	14	[0, 0, 0]	n/a	catFR1	3	R1226D
1555.485	0.516	1853846	RETRIEVAL_ORIENT	n/a	n/a	n/a	n/a	-999	14	[0, 0, 0]	n/a	catFR1	3	R1226D
1556.001	2.641	1854362	REC_START	n/a	n/a	n/a	n/a	-999	14	[0, 0, 0]	n/a	catFR1	3	R1226D
1558.642	1.129	1857003	REC_WORD	2.641	n/a	RADIO	Electronics	3	14	[0, 0, 0]	n/a	catFR1	3	R1226D
1559.771	1.555	1858132	REC_WORD	3.77	n/a	TABLET	Electronics	4	14	[0, 0, 0]	n/a	catFR1	3	R1226D
1561.326	2.217	1859687	REC_WORD	5.325	n/a	COMPUTER	Electronics	9	14	[0, 0, 0]	n/a	catFR1	3	R1226D
1563.543	1.738	1861904	REC_WORD	7.542	n/a	PRINTER	Electronics	10	14	[0, 0, 0]	n/a	catFR1	3	R1226D
1565.281	1.895	1863642	REC_WORD	9.28	n/a	LEMONADE	Beverages	11	14	[0, 0, 0]	n/a	catFR1	3	R1226D
1567.176	2.066	1865536	REC_WORD	11.175	n/a	MILK	Beverages	12	14	[0, 0, 0]	n/a	catFR1	3	R1226D
1569.242	15.369	1867602	REC_WORD	13.241	n/a	COLA	n/a	-999	14	[0, 0, 0]	n/a	catFR1	3	R1226D
1584.611	1.4	1882971	REC_WORD	28.61	n/a	JUICE	n/a	-999	14	[0, 0, 0]	n/a	catFR1	3	R1226D
1586.011	6.33	1884370	REC_END	n/a	n/a	n/a	n/a	-999	14	[0, 0, 0]	n/a	catFR1	3	R1226D
1592.341	0.5	1890700	TRIAL	n/a	n/a	n/a	n/a	-999	15	[0, 0, 0]	n/a	catFR1	3	R1226D
1592.841	10.0	1891200	COUNTDOWN_START	n/a	n/a	n/a	n/a	-999	15	[0, 0, 0]	n/a	catFR1	3	R1226D
1603.269	0.007	1901627	COUNTDOWN_END	n/a	n/a	n/a	n/a	-999	15	[0, 0, 0]	n/a	catFR1	3	R1226D
1603.276	1.6	1901634	ORIENT	n/a	n/a	n/a	n/a	-999	15	[0, 0, 0]	n/a	catFR1	3	R1226D
1604.893	1.9	1903251	ORIENT_OFF	n/a	n/a	n/a	n/a	-999	15	[0, 0, 0]	n/a	catFR1	3	R1226D
1606.793	1.6	1905151	WORD	n/a	wordpools/wordpool_categorized_EN.txt	CROW	Birds	1	15	[0, 0, 0]	n/a	catFR1	3	R1226D
1608.394	0.866	1906752	WORD_OFF	n/a	n/a	CROW	n/a	1	15	[0, 0, 0]	n/a	catFR1	3	R1226D
1609.26	1.6	1907618	WORD	n/a	wordpools/wordpool_categorized_EN.txt	PIGEON	Birds	2	15	[0, 0, 0]	n/a	catFR1	3	R1226D
1610.877	0.835	1909235	WORD_OFF	n/a	n/a	PIGEON	n/a	2	15	[0, 0, 0]	n/a	catFR1	3	R1226D
1611.712	1.6	1910070	WORD	n/a	wordpools/wordpool_categorized_EN.txt	FOLDER	OfficeSupplies	3	15	[0, 0, 0]	n/a	catFR1	3	R1226D
1613.328	0.817	1911686	WORD_OFF	n/a	n/a	FOLDER	n/a	3	15	[0, 0, 0]	n/a	catFR1	3	R1226D
1614.145	1.6	1912503	WORD	n/a	wordpools/wordpool_categorized_EN.txt	PEN	OfficeSupplies	4	15	[0, 0, 0]	n/a	catFR1	3	R1226D
1615.761	0.802	1914119	WORD_OFF	n/a	n/a	PEN	n/a	4	15	[0, 0, 0]	n/a	catFR1	3	R1226D
1616.563	1.6	1914921	WORD	n/a	wordpools/wordpool_categorized_EN.txt	TOE	BodyParts	5	15	[0, 0, 0]	n/a	catFR1	3	R1226D
1618.179	0.85	1916537	WORD_OFF	n/a	n/a	TOE	n/a	5	15	[0, 0, 0]	n/a	catFR1	3	R1226D
1619.029	1.6	1917387	WORD	n/a	wordpools/wordpool_categorized_EN.txt	HEAD	BodyParts	6	15	[0, 0, 0]	n/a	catFR1	3	R1226D
1620.647	0.883	1919005	WORD_OFF	n/a	n/a	HEAD	n/a	6	15	[0, 0, 0]	n/a	catFR1	3	R1226D
1621.53	1.6	1919887	WORD	n/a	wordpools/wordpool_categorized_EN.txt	PAPER	OfficeSupplies	7	15	[0, 0, 0]	n/a	catFR1	3	R1226D
1623.146	0.967	1921503	WORD_OFF	n/a	n/a	PAPER	n/a	7	15	[0, 0, 0]	n/a	catFR1	3	R1226D
1624.113	1.6	1922470	WORD	n/a	wordpools/wordpool_categorized_EN.txt	ERASER	OfficeSupplies	8	15	[0, 0, 0]	n/a	catFR1	3	R1226D
1625.731	0.983	1924088	WORD_OFF	n/a	n/a	ERASER	n/a	8	15	[0, 0, 0]	n/a	catFR1	3	R1226D
1626.714	1.6	1925071	WORD	n/a	wordpools/wordpool_categorized_EN.txt	BLUEBIRD	Birds	9	15	[0, 0, 0]	n/a	catFR1	3	R1226D
1628.331	0.8	1926688	WORD_OFF	n/a	n/a	BLUEBIRD	n/a	9	15	[0, 0, 0]	n/a	catFR1	3	R1226D
1629.131	1.6	1927488	WORD	n/a	wordpools/wordpool_categorized_EN.txt	SEAGULL	Birds	10	15	[0, 0, 0]	n/a	catFR1	3	R1226D
1630.748	1.0	1929105	WORD_OFF	n/a	n/a	SEAGULL	n/a	10	15	[0, 0, 0]	n/a	catFR1	3	R1226D
1631.748	1.6	1930105	WORD	n/a	wordpools/wordpool_categorized_EN.txt	FOOT	BodyParts	11	15	[0, 0, 0]	n/a	catFR1	3	R1226D
1633.366	0.949	1931723	WORD_OFF	n/a	n/a	FOOT	n/a	11	15	[0, 0, 0]	n/a	catFR1	3	R1226D
1634.315	1.6	1932672	WORD	n/a	wordpools/wordpool_categorized_EN.txt	ELBOW	BodyParts	12	15	[0, 0, 0]	n/a	catFR1	3	R1226D
1635.932	0.0	1934289	ENCODING_END	n/a	n/a	n/a	n/a	-999	15	[0, 0, 0]	n/a	catFR1	3	R1226D
1635.932	0.134	1934289	WORD_OFF	n/a	n/a	ELBOW	n/a	12	15	[0, 0, 0]	n/a	catFR1	3	R1226D
1636.066	0.0	1934423	DISTRACT_START	n/a	n/a	n/a	n/a	-999	15	[0, 0, 0]	n/a	catFR1	3	R1226D
1636.066	0.016	1934423	START	n/a	n/a	n/a	n/a	-999	15	[-999, -999, -999]	n/a	catFR1	3	R1226D
1636.082	4.385	1934439	PROB	4.349	n/a	n/a	n/a	-999	15	[1, 3, 1]	5.0	catFR1	3	R1226D
1640.467	4.633	1938823	PROB	4.595	n/a	n/a	n/a	-999	15	[6, 8, 2]	16.0	catFR1	3	R1226D
1645.1	4.101	1943456	PROB	4.067	n/a	n/a	n/a	-999	15	[3, 5, 4]	12.0	catFR1	3	R1226D
1649.201	6.386	1947557	PROB	6.357	n/a	n/a	n/a	-999	15	[9, 5, 6]	20.0	catFR1	3	R1226D
1655.587	3.939	1953943	PROB	3.939	n/a	n/a	n/a	-999	15	[5, 3, 9]	17.0	catFR1	3	R1226D
1659.526	0.011	1957881	STOP	n/a	n/a	n/a	n/a	-999	15	[-999, -999, -999]	n/a	catFR1	3	R1226D
1659.537	0.599	1957892	DISTRACT_END	n/a	n/a	n/a	n/a	-999	15	[0, 0, 0]	n/a	catFR1	3	R1226D
1660.136	0.519	1958491	RETRIEVAL_ORIENT	n/a	n/a	n/a	n/a	-999	15	[0, 0, 0]	n/a	catFR1	3	R1226D
1660.655	1.827	1959010	REC_START	n/a	n/a	n/a	n/a	-999	15	[0, 0, 0]	n/a	catFR1	3	R1226D
1662.482	1.211	1960837	REC_WORD	1.827	n/a	CROW	Birds	1	15	[0, 0, 0]	n/a	catFR1	3	R1226D
1663.693	1.818	1962048	REC_WORD	3.038	n/a	PIGEON	Birds	2	15	[0, 0, 0]	n/a	catFR1	3	R1226D
1665.511	0.976	1963866	REC_WORD	4.856	n/a	BLUEBIRD	Birds	9	15	[0, 0, 0]	n/a	catFR1	3	R1226D
1666.487	1.876	1964842	REC_WORD	5.832	n/a	SEAGULL	Birds	10	15	[0, 0, 0]	n/a	catFR1	3	R1226D
1668.363	1.931	1966718	REC_WORD	7.708	n/a	TOE	BodyParts	5	15	[0, 0, 0]	n/a	catFR1	3	R1226D
1670.294	2.194	1968649	REC_WORD	9.639	n/a	FOOT	BodyParts	11	15	[0, 0, 0]	n/a	catFR1	3	R1226D
1672.488	2.302	1970843	REC_WORD	11.833	n/a	HEAD	BodyParts	6	15	[0, 0, 0]	n/a	catFR1	3	R1226D
1674.79	6.632	1973145	REC_WORD	14.135	n/a	ELBOW	BodyParts	12	15	[0, 0, 0]	n/a	catFR1	3	R1226D
1681.422	1.7	1979776	REC_WORD	20.767	n/a	PEN	OfficeSupplies	4	15	[0, 0, 0]	n/a	catFR1	3	R1226D
1683.122	1.884	1981476	REC_WORD	22.467	n/a	FOLDER	OfficeSupplies	3	15	[0, 0, 0]	n/a	catFR1	3	R1226D
1685.006	5.658	1983360	REC_WORD	24.351	n/a	PAPER	OfficeSupplies	7	15	[0, 0, 0]	n/a	catFR1	3	R1226D
1690.664	4.996	1989018	REC_END	n/a	n/a	n/a	n/a	-999	15	[0, 0, 0]	n/a	catFR1	3	R1226D
1695.66	0.5	1994013	TRIAL	n/a	n/a	n/a	n/a	-999	16	[0, 0, 0]	n/a	catFR1	3	R1226D
1696.16	10.0	1994513	COUNTDOWN_START	n/a	n/a	n/a	n/a	-999	16	[0, 0, 0]	n/a	catFR1	3	R1226D
1706.588	0.008	2004941	COUNTDOWN_END	n/a	n/a	n/a	n/a	-999	16	[0, 0, 0]	n/a	catFR1	3	R1226D
1706.596	1.6	2004949	ORIENT	n/a	n/a	n/a	n/a	-999	16	[0, 0, 0]	n/a	catFR1	3	R1226D
1708.212	2.05	2006565	ORIENT_OFF	n/a	n/a	n/a	n/a	-999	16	[0, 0, 0]	n/a	catFR1	3	R1226D
1710.262	1.6	2008615	WORD	n/a	wordpools/wordpool_categorized_EN.txt	CELLO	Instruments	1	16	[0, 0, 0]	n/a	catFR1	3	R1226D
1711.879	0.818	2010232	WORD_OFF	n/a	n/a	CELLO	n/a	1	16	[0, 0, 0]	n/a	catFR1	3	R1226D
1712.697	1.6	2011049	WORD	n/a	wordpools/wordpool_categorized_EN.txt	VIOLIN	Instruments	2	16	[0, 0, 0]	n/a	catFR1	3	R1226D
1714.313	0.783	2012665	WORD_OFF	n/a	n/a	VIOLIN	n/a	2	16	[0, 0, 0]	n/a	catFR1	3	R1226D
1715.096	1.6	2013448	WORD	n/a	wordpools/wordpool_categorized_EN.txt	WOODS	Landscapes	3	16	[0, 0, 0]	n/a	catFR1	3	R1226D
1716.698	1.0	2015050	WORD_OFF	n/a	n/a	WOODS	n/a	3	16	[0, 0, 0]	n/a	catFR1	3	R1226D
1717.698	1.6	2016050	WORD	n/a	wordpools/wordpool_categorized_EN.txt	LAKE	Landscapes	4	16	[0, 0, 0]	n/a	catFR1	3	R1226D
1719.314	0.85	2017666	WORD_OFF	n/a	n/a	LAKE	n/a	4	16	[0, 0, 0]	n/a	catFR1	3	R1226D
1720.164	1.6	2018516	WORD	n/a	wordpools/wordpool_categorized_EN.txt	PHONE	Electronics	5	16	[0, 0, 0]	n/a	catFR1	3	R1226D
1721.781	0.884	2020133	WORD_OFF	n/a	n/a	PHONE	n/a	5	16	[0, 0, 0]	n/a	catFR1	3	R1226D
1722.665	1.6	2021017	WORD	n/a	wordpools/wordpool_categorized_EN.txt	SPEAKER	Electronics	6	16	[0, 0, 0]	n/a	catFR1	3	R1226D
1724.281	0.817	2022633	WORD_OFF	n/a	n/a	SPEAKER	n/a	6	16	[0, 0, 0]	n/a	catFR1	3	R1226D
1725.098	1.6	2023450	WORD	n/a	wordpools/wordpool_categorized_EN.txt	OCEAN	Landscapes	7	16	[0, 0, 0]	n/a	catFR1	3	R1226D
1726.716	0.917	2025068	WORD_OFF	n/a	n/a	OCEAN	n/a	7	16	[0, 0, 0]	n/a	catFR1	3	R1226D
1727.633	1.6	2025985	WORD	n/a	wordpools/wordpool_categorized_EN.txt	ISLAND	Landscapes	8	16	[0, 0, 0]	n/a	catFR1	3	R1226D
1729.249	0.8	2027601	WORD_OFF	n/a	n/a	ISLAND	n/a	8	16	[0, 0, 0]	n/a	catFR1	3	R1226D
1730.049	1.6	2028401	WORD	n/a	wordpools/wordpool_categorized_EN.txt	DRUM	Instruments	9	16	[0, 0, 0]	n/a	catFR1	3	R1226D
1731.667	0.967	2030018	WORD_OFF	n/a	n/a	DRUM	n/a	9	16	[0, 0, 0]	n/a	catFR1	3	R1226D
1732.634	1.6	2030985	WORD	n/a	wordpools/wordpool_categorized_EN.txt	GUITAR	Instruments	10	16	[0, 0, 0]	n/a	catFR1	3	R1226D
1734.25	0.983	2032601	WORD_OFF	n/a	n/a	GUITAR	n/a	10	16	[0, 0, 0]	n/a	catFR1	3	R1226D
1735.233	1.6	2033584	WORD	n/a	wordpools/wordpool_categorized_EN.txt	STEREO	Electronics	11	16	[0, 0, 0]	n/a	catFR1	3	R1226D
1736.85	0.785	2035201	WORD_OFF	n/a	n/a	STEREO	n/a	11	16	[0, 0, 0]	n/a	catFR1	3	R1226D
1737.635	1.6	2035986	WORD	n/a	wordpools/wordpool_categorized_EN.txt	TELEVISION	Electronics	12	16	[0, 0, 0]	n/a	catFR1	3	R1226D
1739.251	0.0	2037602	ENCODING_END	n/a	n/a	n/a	n/a	-999	16	[0, 0, 0]	n/a	catFR1	3	R1226D
1739.251	0.106	2037602	WORD_OFF	n/a	n/a	TELEVISION	n/a	12	16	[0, 0, 0]	n/a	catFR1	3	R1226D
1739.357	0.0	2037708	DISTRACT_START	n/a	n/a	n/a	n/a	-999	16	[0, 0, 0]	n/a	catFR1	3	R1226D
1739.357	0.012	2037708	START	n/a	n/a	n/a	n/a	-999	16	[-999, -999, -999]	n/a	catFR1	3	R1226D
1739.369	3.267	2037720	PROB	3.229	n/a	n/a	n/a	-999	16	[9, 3, 1]	13.0	catFR1	3	R1226D
1742.636	2.984	2040987	PROB	2.947	n/a	n/a	n/a	-999	16	[2, 6, 8]	16.0	catFR1	3	R1226D
1745.62	3.183	2043971	PROB	3.153	n/a	n/a	n/a	-999	16	[8, 3, 4]	15.0	catFR1	3	R1226D
1748.803	3.367	2047154	PROB	3.339	n/a	n/a	n/a	-999	16	[3, 8, 7]	18.0	catFR1	3	R1226D
1752.17	3.634	2050520	PROB	3.605	n/a	n/a	n/a	-999	16	[9, 6, 2]	17.0	catFR1	3	R1226D
1755.804	3.434	2054154	PROB	3.411	n/a	n/a	n/a	-999	16	[7, 4, 7]	18.0	catFR1	3	R1226D
1759.238	3.888	2057588	PROB	3.888	n/a	n/a	n/a	-999	16	[7, 5, 7]	19.0	catFR1	3	R1226D
1763.126	0.013	2061476	STOP	n/a	n/a	n/a	n/a	-999	16	[-999, -999, -999]	n/a	catFR1	3	R1226D
1763.139	0.584	2061489	DISTRACT_END	n/a	n/a	n/a	n/a	-999	16	[0, 0, 0]	n/a	catFR1	3	R1226D
1763.723	0.517	2062073	RETRIEVAL_ORIENT	n/a	n/a	n/a	n/a	-999	16	[0, 0, 0]	n/a	catFR1	3	R1226D
1764.24	2.011	2062590	REC_START	n/a	n/a	n/a	n/a	-999	16	[0, 0, 0]	n/a	catFR1	3	R1226D
1766.251	1.576	2064601	REC_WORD	2.011	n/a	WOODS	Landscapes	3	16	[0, 0, 0]	n/a	catFR1	3	R1226D
1767.827	1.809	2066176	REC_WORD	3.587	n/a	LAKE	Landscapes	4	16	[0, 0, 0]	n/a	catFR1	3	R1226D
1769.636	2.001	2067985	REC_WORD	5.396	n/a	OCEAN	Landscapes	7	16	[0, 0, 0]	n/a	catFR1	3	R1226D
1771.637	1.963	2069986	REC_WORD	7.397	n/a	ISLAND	Landscapes	8	16	[0, 0, 0]	n/a	catFR1	3	R1226D
1773.6	2.207	2071949	REC_WORD	9.36	n/a	CELLO	Instruments	1	16	[0, 0, 0]	n/a	catFR1	3	R1226D
1775.807	2.11	2074156	REC_WORD	11.567	n/a	VIOLIN	Instruments	2	16	[0, 0, 0]	n/a	catFR1	3	R1226D
1777.917	2.059	2076266	REC_WORD	13.677	n/a	BASS	n/a	-999	16	[0, 0, 0]	n/a	catFR1	3	R1226D
1779.976	2.666	2078325	REC_WORD	15.736	n/a	STEREO	Electronics	11	16	[0, 0, 0]	n/a	catFR1	3	R1226D
1782.642	3.136	2080991	REC_WORD	18.402	n/a	DRUM	Instruments	9	16	[0, 0, 0]	n/a	catFR1	3	R1226D
1785.778	8.472	2084126	REC_WORD	21.538	n/a	TELEVISION	Electronics	12	16	[0, 0, 0]	n/a	catFR1	3	R1226D
1794.25	5.246	2092598	REC_END	n/a	n/a	n/a	n/a	-999	16	[0, 0, 0]	n/a	catFR1	3	R1226D
1799.496	0.5	2097844	TRIAL	n/a	n/a	n/a	n/a	-999	17	[0, 0, 0]	n/a	catFR1	3	R1226D
1799.996	10.0	2098344	COUNTDOWN_START	n/a	n/a	n/a	n/a	-999	17	[0, 0, 0]	n/a	catFR1	3	R1226D
1810.424	0.008	2108771	COUNTDOWN_END	n/a	n/a	n/a	n/a	-999	17	[0, 0, 0]	n/a	catFR1	3	R1226D
1810.432	1.6	2108779	ORIENT	n/a	n/a	n/a	n/a	-999	17	[0, 0, 0]	n/a	catFR1	3	R1226D
1812.047	2.101	2110394	ORIENT_OFF	n/a	n/a	n/a	n/a	-999	17	[0, 0, 0]	n/a	catFR1	3	R1226D
1814.148	1.6	2112495	WORD	n/a	wordpools/wordpool_categorized_EN.txt	TAPE	OfficeSupplies	1	17	[0, 0, 0]	n/a	catFR1	3	R1226D
1815.765	0.768	2114112	WORD_OFF	n/a	n/a	TAPE	n/a	1	17	[0, 0, 0]	n/a	catFR1	3	R1226D
1816.533	1.6	2114880	WORD	n/a	wordpools/wordpool_categorized_EN.txt	BINDER	OfficeSupplies	2	17	[0, 0, 0]	n/a	catFR1	3	R1226D
1818.149	0.866	2116496	WORD_OFF	n/a	n/a	BINDER	n/a	2	17	[0, 0, 0]	n/a	catFR1	3	R1226D
1819.015	1.6	2117362	WORD	n/a	wordpools/wordpool_categorized_EN.txt	ANT	Insects	3	17	[0, 0, 0]	n/a	catFR1	3	R1226D
1820.633	1.017	2118980	WORD_OFF	n/a	n/a	ANT	n/a	3	17	[0, 0, 0]	n/a	catFR1	3	R1226D
1821.65	1.6	2119997	WORD	n/a	wordpools/wordpool_categorized_EN.txt	GNAT	Insects	4	17	[0, 0, 0]	n/a	catFR1	3	R1226D
1823.266	0.85	2121612	WORD_OFF	n/a	n/a	GNAT	n/a	4	17	[0, 0, 0]	n/a	catFR1	3	R1226D
1824.116	1.6	2122462	WORD	n/a	wordpools/wordpool_categorized_EN.txt	REFRIGERATOR	Appliances	5	17	[0, 0, 0]	n/a	catFR1	3	R1226D
1825.717	0.801	2124063	WORD_OFF	n/a	n/a	REFRIGERATOR	n/a	5	17	[0, 0, 0]	n/a	catFR1	3	R1226D
1826.518	1.6	2124864	WORD	n/a	wordpools/wordpool_categorized_EN.txt	MIXER	Appliances	6	17	[0, 0, 0]	n/a	catFR1	3	R1226D
1828.134	0.85	2126480	WORD_OFF	n/a	n/a	MIXER	n/a	6	17	[0, 0, 0]	n/a	catFR1	3	R1226D
1828.984	1.6	2127330	WORD	n/a	wordpools/wordpool_categorized_EN.txt	BEE	Insects	7	17	[0, 0, 0]	n/a	catFR1	3	R1226D
1830.585	0.817	2128931	WORD_OFF	n/a	n/a	BEE	n/a	7	17	[0, 0, 0]	n/a	catFR1	3	R1226D
1831.402	1.6	2129748	WORD	n/a	wordpools/wordpool_categorized_EN.txt	MOTH	Insects	8	17	[0, 0, 0]	n/a	catFR1	3	R1226D
1833.018	0.833	2131364	WORD_OFF	n/a	n/a	MOTH	n/a	8	17	[0, 0, 0]	n/a	catFR1	3	R1226D
1833.851	1.6	2132197	WORD	n/a	wordpools/wordpool_categorized_EN.txt	STAPLER	OfficeSupplies	9	17	[0, 0, 0]	n/a	catFR1	3	R1226D
1835.453	0.967	2133799	WORD_OFF	n/a	n/a	STAPLER	n/a	9	17	[0, 0, 0]	n/a	catFR1	3	R1226D
1836.42	1.6	2134766	WORD	n/a	wordpools/wordpool_categorized_EN.txt	NOTEBOOK	OfficeSupplies	10	17	[0, 0, 0]	n/a	catFR1	3	R1226D
1838.036	0.766	2136382	WORD_OFF	n/a	n/a	NOTEBOOK	n/a	10	17	[0, 0, 0]	n/a	catFR1	3	R1226D
1838.802	1.6	2137148	WORD	n/a	wordpools/wordpool_categorized_EN.txt	TOASTER	Appliances	11	17	[0, 0, 0]	n/a	catFR1	3	R1226D
1840.403	0.8	2138748	WORD_OFF	n/a	n/a	TOASTER	n/a	11	17	[0, 0, 0]	n/a	catFR1	3	R1226D
1841.203	1.6	2139548	WORD	n/a	wordpools/wordpool_categorized_EN.txt	DRYER	Appliances	12	17	[0, 0, 0]	n/a	catFR1	3	R1226D
1842.82	0.0	2141165	ENCODING_END	n/a	n/a	n/a	n/a	-999	17	[0, 0, 0]	n/a	catFR1	3	R1226D
1842.82	0.103	2141165	WORD_OFF	n/a	n/a	DRYER	n/a	12	17	[0, 0, 0]	n/a	catFR1	3	R1226D
1842.923	0.0	2141268	DISTRACT_START	n/a	n/a	n/a	n/a	-999	17	[0, 0, 0]	n/a	catFR1	3	R1226D
1842.923	0.013	2141268	START	n/a	n/a	n/a	n/a	-999	17	[-999, -999, -999]	n/a	catFR1	3	R1226D
1842.936	4.268	2141281	PROB	4.246	n/a	n/a	n/a	-999	17	[3, 8, 4]	15.0	catFR1	3	R1226D
1847.204	3.851	2145549	PROB	3.825	n/a	n/a	n/a	-999	17	[5, 8, 7]	20.0	catFR1	3	R1226D
1851.055	4.067	2149400	PROB	4.038	n/a	n/a	n/a	-999	17	[1, 6, 4]	11.0	catFR1	3	R1226D
1855.122	4.651	2153467	PROB	4.628	n/a	n/a	n/a	-999	17	[3, 4, 8]	15.0	catFR1	3	R1226D
1859.773	3.258	2158117	PROB	3.258	n/a	n/a	n/a	-999	17	[2, 4, 5]	11.0	catFR1	3	R1226D
1863.031	0.009	2161375	STOP	n/a	n/a	n/a	n/a	-999	17	[-999, -999, -999]	n/a	catFR1	3	R1226D
1863.04	0.518	2161384	DISTRACT_END	n/a	n/a	n/a	n/a	-999	17	[0, 0, 0]	n/a	catFR1	3	R1226D
1863.558	0.516	2161902	RETRIEVAL_ORIENT	n/a	n/a	n/a	n/a	-999	17	[0, 0, 0]	n/a	catFR1	3	R1226D
1864.074	2.764	2162418	REC_START	n/a	n/a	n/a	n/a	-999	17	[0, 0, 0]	n/a	catFR1	3	R1226D
1866.838	1.575	2165182	REC_WORD	2.764	n/a	TAPE	OfficeSupplies	1	17	[0, 0, 0]	n/a	catFR1	3	R1226D
1868.413	2.498	2166757	REC_WORD	4.339	n/a	STAPLER	OfficeSupplies	9	17	[0, 0, 0]	n/a	catFR1	3	R1226D
1870.911	2.333	2169255	REC_WORD	6.837	n/a	NOTEPAD	n/a	-999	17	[0, 0, 0]	n/a	catFR1	3	R1226D
1873.244	2.128	2171588	REC_WORD	9.17	n/a	GNAT	Insects	4	17	[0, 0, 0]	n/a	catFR1	3	R1226D
1875.372	2.718	2173716	REC_WORD	11.298	n/a	ANT	Insects	3	17	[0, 0, 0]	n/a	catFR1	3	R1226D
1878.09	1.967	2176433	REC_WORD	14.016	n/a	LADYBUG	n/a	-999	17	[0, 0, 0]	n/a	catFR1	3	R1226D
1880.057	7.698	2178400	REC_WORD	15.983	n/a	REFRIGERATOR	Appliances	5	17	[0, 0, 0]	n/a	catFR1	3	R1226D
1887.755	2.114	2186098	REC_WORD	23.681	n/a	FREEZER	n/a	-999	17	[0, 0, 0]	n/a	catFR1	3	R1226D
1889.869	4.217	2188212	REC_WORD	25.795	n/a	MICROWAVE	n/a	-999	17	[0, 0, 0]	n/a	catFR1	3	R1226D
1894.086	4.495	2192429	REC_END	n/a	n/a	n/a	n/a	-999	17	[0, 0, 0]	n/a	catFR1	3	R1226D
1898.581	0.5	2196923	TRIAL	n/a	n/a	n/a	n/a	-999	18	[0, 0, 0]	n/a	catFR1	3	R1226D
1899.081	10.0	2197423	COUNTDOWN_START	n/a	n/a	n/a	n/a	-999	18	[0, 0, 0]	n/a	catFR1	3	R1226D
1909.509	0.007	2207851	COUNTDOWN_END	n/a	n/a	n/a	n/a	-999	18	[0, 0, 0]	n/a	catFR1	3	R1226D
1909.516	1.6	2207858	ORIENT	n/a	n/a	n/a	n/a	-999	18	[0, 0, 0]	n/a	catFR1	3	R1226D
1911.132	2.268	2209474	ORIENT_OFF	n/a	n/a	n/a	n/a	-999	18	[0, 0, 0]	n/a	catFR1	3	R1226D
1913.4	1.6	2211741	WORD	n/a	wordpools/wordpool_categorized_EN.txt	CARNATION	Flowers	1	18	[0, 0, 0]	n/a	catFR1	3	R1226D
1915.016	0.984	2213357	WORD_OFF	n/a	n/a	CARNATION	n/a	1	18	[0, 0, 0]	n/a	catFR1	3	R1226D
1916.0	1.6	2214341	WORD	n/a	wordpools/wordpool_categorized_EN.txt	TULIP	Flowers	2	18	[0, 0, 0]	n/a	catFR1	3	R1226D
1917.601	0.834	2215942	WORD_OFF	n/a	n/a	TULIP	n/a	2	18	[0, 0, 0]	n/a	catFR1	3	R1226D
1918.435	1.6	2216776	WORD	n/a	wordpools/wordpool_categorized_EN.txt	BROWNIES	Desserts	3	18	[0, 0, 0]	n/a	catFR1	3	R1226D
1920.051	0.95	2218392	WORD_OFF	n/a	n/a	BROWNIES	n/a	3	18	[0, 0, 0]	n/a	catFR1	3	R1226D
1921.001	1.6	2219342	WORD	n/a	wordpools/wordpool_categorized_EN.txt	CAKE	Desserts	4	18	[0, 0, 0]	n/a	catFR1	3	R1226D
1922.619	0.783	2220960	WORD_OFF	n/a	n/a	CAKE	n/a	4	18	[0, 0, 0]	n/a	catFR1	3	R1226D
1923.402	1.6	2221743	WORD	n/a	wordpools/wordpool_categorized_EN.txt	OAK	Trees	5	18	[0, 0, 0]	n/a	catFR1	3	R1226D
1925.018	0.884	2223359	WORD_OFF	n/a	n/a	OAK	n/a	5	18	[0, 0, 0]	n/a	catFR1	3	R1226D
1925.902	1.6	2224243	WORD	n/a	wordpools/wordpool_categorized_EN.txt	WILLOW	Trees	6	18	[0, 0, 0]	n/a	catFR1	3	R1226D
1927.52	0.916	2225861	WORD_OFF	n/a	n/a	WILLOW	n/a	6	18	[0, 0, 0]	n/a	catFR1	3	R1226D
1928.436	1.6	2226777	WORD	n/a	wordpools/wordpool_categorized_EN.txt	PASTRY	Desserts	7	18	[0, 0, 0]	n/a	catFR1	3	R1226D
1930.052	0.967	2228393	WORD_OFF	n/a	n/a	PASTRY	n/a	7	18	[0, 0, 0]	n/a	catFR1	3	R1226D
1931.019	1.6	2229359	WORD	n/a	wordpools/wordpool_categorized_EN.txt	COOKIE	Desserts	8	18	[0, 0, 0]	n/a	catFR1	3	R1226D
1932.637	0.85	2230977	WORD_OFF	n/a	n/a	COOKIE	n/a	8	18	[0, 0, 0]	n/a	catFR1	3	R1226D
1933.487	1.6	2231827	WORD	n/a	wordpools/wordpool_categorized_EN.txt	MARIGOLD	Flowers	9	18	[0, 0, 0]	n/a	catFR1	3	R1226D
1935.103	1.0	2233443	WORD_OFF	n/a	n/a	MARIGOLD	n/a	9	18	[0, 0, 0]	n/a	catFR1	3	R1226D
1936.103	1.6	2234443	WORD	n/a	wordpools/wordpool_categorized_EN.txt	ORCHID	Flowers	10	18	[0, 0, 0]	n/a	catFR1	3	R1226D
1937.721	0.934	2236061	WORD_OFF	n/a	n/a	ORCHID	n/a	10	18	[0, 0, 0]	n/a	catFR1	3	R1226D
1938.655	1.6	2236995	WORD	n/a	wordpools/wordpool_categorized_EN.txt	HICKORY	Trees	11	18	[0, 0, 0]	n/a	catFR1	3	R1226D
1940.271	0.834	2238611	WORD_OFF	n/a	n/a	HICKORY	n/a	11	18	[0, 0, 0]	n/a	catFR1	3	R1226D
1941.105	1.6	2239445	WORD	n/a	wordpools/wordpool_categorized_EN.txt	ELM	Trees	12	18	[0, 0, 0]	n/a	catFR1	3	R1226D
1942.722	0.001	2241062	WORD_OFF	n/a	n/a	ELM	n/a	12	18	[0, 0, 0]	n/a	catFR1	3	R1226D
1942.723	0.128	2241063	ENCODING_END	n/a	n/a	n/a	n/a	-999	18	[0, 0, 0]	n/a	catFR1	3	R1226D
1942.851	0.001	2241191	DISTRACT_START	n/a	n/a	n/a	n/a	-999	18	[0, 0, 0]	n/a	catFR1	3	R1226D
1942.852	0.019	2241192	START	n/a	n/a	n/a	n/a	-999	18	[-999, -999, -999]	n/a	catFR1	3	R1226D
1942.871	4.401	2241211	PROB	4.368	n/a	n/a	n/a	-999	18	[1, 8, 4]	13.0	catFR1	3	R1226D
1947.272	3.369	2245612	PROB	3.342	n/a	n/a	n/a	-999	18	[4, 8, 6]	18.0	catFR1	3	R1226D
1950.641	2.666	2248980	PROB	2.63	n/a	n/a	n/a	-999	18	[5, 4, 3]	12.0	catFR1	3	R1226D
1953.307	3.218	2251646	PROB	3.189	n/a	n/a	n/a	-999	18	[6, 4, 9]	19.0	catFR1	3	R1226D
1956.525	5.868	2254864	PROB	5.834	n/a	n/a	n/a	-999	18	[9, 6, 6]	21.0	catFR1	3	R1226D
1962.393	4.46	2260732	PROB	4.46	n/a	n/a	n/a	-999	18	[1, 9, 7]	17.0	catFR1	3	R1226D
1966.853	0.006	2265192	STOP	n/a	n/a	n/a	n/a	-999	18	[-999, -999, -999]	n/a	catFR1	3	R1226D
1966.859	0.601	2265198	DISTRACT_END	n/a	n/a	n/a	n/a	-999	18	[0, 0, 0]	n/a	catFR1	3	R1226D
1967.46	0.517	2265798	RETRIEVAL_ORIENT	n/a	n/a	n/a	n/a	-999	18	[0, 0, 0]	n/a	catFR1	3	R1226D
1967.977	1.765	2266315	REC_START	n/a	n/a	n/a	n/a	-999	18	[0, 0, 0]	n/a	catFR1	3	R1226D
1969.742	1.381	2268080	REC_WORD	1.765	n/a	CARNATION	Flowers	1	18	[0, 0, 0]	n/a	catFR1	3	R1226D
1971.123	1.614	2269461	REC_WORD	3.146	n/a	TULIP	Flowers	2	18	[0, 0, 0]	n/a	catFR1	3	R1226D
1972.737	1.938	2271075	REC_WORD	4.76	n/a	BROWNIES	Desserts	3	18	[0, 0, 0]	n/a	catFR1	3	R1226D
1974.675	2.156	2273013	REC_WORD	6.698	n/a	CAKE	Desserts	4	18	[0, 0, 0]	n/a	catFR1	3	R1226D
1976.831	6.815	2275169	REC_WORD	8.854	n/a	PASTRY	Desserts	7	18	[0, 0, 0]	n/a	catFR1	3	R1226D
1983.646	2.941	2281984	REC_WORD	15.669	n/a	MARIGOLD	Flowers	9	18	[0, 0, 0]	n/a	catFR1	3	R1226D
1986.587	2.027	2284924	REC_WORD	18.61	n/a	ELM	Trees	12	18	[0, 0, 0]	n/a	catFR1	3	R1226D
1988.614	4.182	2286951	REC_WORD	20.637	n/a	OAK	Trees	5	18	[0, 0, 0]	n/a	catFR1	3	R1226D
1992.796	5.191	2291133	REC_WORD	24.819	n/a	EVERGREEN	n/a	-999	18	[0, 0, 0]	n/a	catFR1	3	R1226D
1997.987	6.029	2296324	REC_END	n/a	n/a	n/a	n/a	-999	18	[0, 0, 0]	n/a	catFR1	3	R1226D
2004.016	0.5	2302352	TRIAL	n/a	n/a	n/a	n/a	-999	19	[0, 0, 0]	n/a	catFR1	3	R1226D
2004.516	10.0	2302852	COUNTDOWN_START	n/a	n/a	n/a	n/a	-999	19	[0, 0, 0]	n/a	catFR1	3	R1226D
2014.944	0.007	2313280	COUNTDOWN_END	n/a	n/a	n/a	n/a	-999	19	[0, 0, 0]	n/a	catFR1	3	R1226D
2014.951	1.6	2313287	ORIENT	n/a	n/a	n/a	n/a	-999	19	[0, 0, 0]	n/a	catFR1	3	R1226D
2016.569	2.233	2314905	ORIENT_OFF	n/a	n/a	n/a	n/a	-999	19	[0, 0, 0]	n/a	catFR1	3	R1226D
2018.802	1.6	2317138	WORD	n/a	wordpools/wordpool_categorized_EN.txt	EYE	BodyParts	1	19	[0, 0, 0]	n/a	catFR1	3	R1226D
2020.42	0.849	2318756	WORD_OFF	n/a	n/a	EYE	n/a	1	19	[0, 0, 0]	n/a	catFR1	3	R1226D
2021.269	1.6	2319605	WORD	n/a	wordpools/wordpool_categorized_EN.txt	HAND	BodyParts	2	19	[0, 0, 0]	n/a	catFR1	3	R1226D
2022.886	0.934	2321221	WORD_OFF	n/a	n/a	HAND	n/a	2	19	[0, 0, 0]	n/a	catFR1	3	R1226D
2023.82	1.6	2322155	WORD	n/a	wordpools/wordpool_categorized_EN.txt	GIRAFFE	Zoo	3	19	[0, 0, 0]	n/a	catFR1	3	R1226D
2025.438	0.882	2323773	WORD_OFF	n/a	n/a	GIRAFFE	n/a	3	19	[0, 0, 0]	n/a	catFR1	3	R1226D
2026.32	1.6	2324655	WORD	n/a	wordpools/wordpool_categorized_EN.txt	PANDA	Zoo	4	19	[0, 0, 0]	n/a	catFR1	3	R1226D
2027.937	0.917	2326272	WORD_OFF	n/a	n/a	PANDA	n/a	4	19	[0, 0, 0]	n/a	catFR1	3	R1226D
2028.854	1.6	2327189	WORD	n/a	wordpools/wordpool_categorized_EN.txt	SPRUCE	Trees	5	19	[0, 0, 0]	n/a	catFR1	3	R1226D
2030.472	0.832	2328807	WORD_OFF	n/a	n/a	SPRUCE	n/a	5	19	[0, 0, 0]	n/a	catFR1	3	R1226D
2031.304	1.6	2329639	WORD	n/a	wordpools/wordpool_categorized_EN.txt	CYPRESS	Trees	6	19	[0, 0, 0]	n/a	catFR1	3	R1226D
2032.921	0.85	2331256	WORD_OFF	n/a	n/a	CYPRESS	n/a	6	19	[0, 0, 0]	n/a	catFR1	3	R1226D
2033.771	1.6	2332106	WORD	n/a	wordpools/wordpool_categorized_EN.txt	ORANGUTAN	Zoo	7	19	[0, 0, 0]	n/a	catFR1	3	R1226D
2035.389	0.866	2333724	WORD_OFF	n/a	n/a	ORANGUTAN	n/a	7	19	[0, 0, 0]	n/a	catFR1	3	R1226D
2036.255	1.6	2334590	WORD	n/a	wordpools/wordpool_categorized_EN.txt	BEAR	Zoo	8	19	[0, 0, 0]	n/a	catFR1	3	R1226D
2037.872	0.934	2336207	WORD_OFF	n/a	n/a	BEAR	n/a	8	19	[0, 0, 0]	n/a	catFR1	3	R1226D
2038.806	1.6	2337141	WORD	n/a	wordpools/wordpool_categorized_EN.txt	FINGERS	BodyParts	9	19	[0, 0, 0]	n/a	catFR1	3	R1226D
2040.424	0.983	2338758	WORD_OFF	n/a	n/a	FINGERS	n/a	9	19	[0, 0, 0]	n/a	catFR1	3	R1226D
2041.407	1.6	2339741	WORD	n/a	wordpools/wordpool_categorized_EN.txt	NOSE	BodyParts	10	19	[0, 0, 0]	n/a	catFR1	3	R1226D
2043.023	0.833	2341357	WORD_OFF	n/a	n/a	NOSE	n/a	10	19	[0, 0, 0]	n/a	catFR1	3	R1226D
2043.856	1.6	2342190	WORD	n/a	wordpools/wordpool_categorized_EN.txt	WALNUT	Trees	11	19	[0, 0, 0]	n/a	catFR1	3	R1226D
2045.458	0.9	2343792	WORD_OFF	n/a	n/a	WALNUT	n/a	11	19	[0, 0, 0]	n/a	catFR1	3	R1226D
2046.358	1.6	2344692	WORD	n/a	wordpools/wordpool_categorized_EN.txt	CEDAR	Trees	12	19	[0, 0, 0]	n/a	catFR1	3	R1226D
2047.974	0.0	2346308	ENCODING_END	n/a	n/a	n/a	n/a	-999	19	[0, 0, 0]	n/a	catFR1	3	R1226D
2047.974	0.103	2346308	WORD_OFF	n/a	n/a	CEDAR	n/a	12	19	[0, 0, 0]	n/a	catFR1	3	R1226D
2048.077	0.0	2346411	DISTRACT_START	n/a	n/a	n/a	n/a	-999	19	[0, 0, 0]	n/a	catFR1	3	R1226D
2048.077	0.014	2346411	START	n/a	n/a	n/a	n/a	-999	19	[-999, -999, -999]	n/a	catFR1	3	R1226D
2048.091	3.9	2346425	PROB	3.876	n/a	n/a	n/a	-999	19	[8, 8, 2]	18.0	catFR1	3	R1226D
2051.991	2.719	2350325	PROB	2.687	n/a	n/a	n/a	-999	19	[4, 4, 6]	14.0	catFR1	3	R1226D
2054.71	2.783	2353044	PROB	2.76	n/a	n/a	n/a	-999	19	[5, 4, 1]	10.0	catFR1	3	R1226D
2057.493	2.6	2355827	PROB	2.568	n/a	n/a	n/a	-999	19	[2, 6, 5]	13.0	catFR1	3	R1226D
2060.093	4.385	2358426	PROB	4.362	n/a	n/a	n/a	-999	19	[9, 2, 8]	19.0	catFR1	3	R1226D
2064.478	2.951	2362811	PROB	2.914	n/a	n/a	n/a	-999	19	[1, 4, 7]	12.0	catFR1	3	R1226D
2067.429	2.376	2365762	PROB	2.376	n/a	n/a	n/a	-999	19	[7, 6, 4]	17.0	catFR1	3	R1226D
2069.805	0.007	2368138	STOP	n/a	n/a	n/a	n/a	-999	19	[-999, -999, -999]	n/a	catFR1	3	R1226D
2069.812	0.533	2368145	DISTRACT_END	n/a	n/a	n/a	n/a	-999	19	[0, 0, 0]	n/a	catFR1	3	R1226D
2070.345	0.517	2368678	RETRIEVAL_ORIENT	n/a	n/a	n/a	n/a	-999	19	[0, 0, 0]	n/a	catFR1	3	R1226D
2070.862	2.543	2369195	REC_START	n/a	n/a	n/a	n/a	-999	19	[0, 0, 0]	n/a	catFR1	3	R1226D
2073.405	1.336	2371738	REC_WORD	2.543	n/a	GIRAFFE	Zoo	3	19	[0, 0, 0]	n/a	catFR1	3	R1226D
2074.741	2.123	2373074	REC_WORD	3.879	n/a	PANDA	Zoo	4	19	[0, 0, 0]	n/a	catFR1	3	R1226D
2076.864	1.804	2375196	REC_WORD	6.002	n/a	ORANGUTAN	Zoo	7	19	[0, 0, 0]	n/a	catFR1	3	R1226D
2078.668	5.786	2377000	REC_WORD	7.806	n/a	HAND	BodyParts	2	19	[0, 0, 0]	n/a	catFR1	3	R1226D
2084.454	3.176	2382786	REC_WORD	13.592	n/a	FINGERS	BodyParts	9	19	[0, 0, 0]	n/a	catFR1	3	R1226D
2087.63	5.208	2385962	REC_WORD	16.768	n/a	SPRUCE	Trees	5	19	[0, 0, 0]	n/a	catFR1	3	R1226D
2092.838	8.036	2391170	REC_WORD	21.976	n/a	CEDAR	Trees	12	19	[0, 0, 0]	n/a	catFR1	3	R1226D
2100.874	5.344	2399205	REC_END	n/a	n/a	n/a	n/a	-999	19	[0, 0, 0]	n/a	catFR1	3	R1226D
2106.218	0.5	2404549	TRIAL	n/a	n/a	n/a	n/a	-999	20	[0, 0, 0]	n/a	catFR1	3	R1226D
2106.718	10.0	2405049	COUNTDOWN_START	n/a	n/a	n/a	n/a	-999	20	[0, 0, 0]	n/a	catFR1	3	R1226D
2117.146	0.007	2415476	COUNTDOWN_END	n/a	n/a	n/a	n/a	-999	20	[0, 0, 0]	n/a	catFR1	3	R1226D
2117.153	1.6	2415483	ORIENT	n/a	n/a	n/a	n/a	-999	20	[0, 0, 0]	n/a	catFR1	3	R1226D
2118.77	2.134	2417100	ORIENT_OFF	n/a	n/a	n/a	n/a	-999	20	[0, 0, 0]	n/a	catFR1	3	R1226D
2120.904	1.6	2419234	WORD	n/a	wordpools/wordpool_categorized_EN.txt	PLUM	Fruit	1	20	[0, 0, 0]	n/a	catFR1	3	R1226D
2122.522	0.832	2420852	WORD_OFF	n/a	n/a	PLUM	n/a	1	20	[0, 0, 0]	n/a	catFR1	3	R1226D
2123.354	1.6	2421684	WORD	n/a	wordpools/wordpool_categorized_EN.txt	BANANA	Fruit	2	20	[0, 0, 0]	n/a	catFR1	3	R1226D
2124.972	0.95	2423302	WORD_OFF	n/a	n/a	BANANA	n/a	2	20	[0, 0, 0]	n/a	catFR1	3	R1226D
2125.922	1.6	2424252	WORD	n/a	wordpools/wordpool_categorized_EN.txt	JELLO	Desserts	3	20	[0, 0, 0]	n/a	catFR1	3	R1226D
2127.54	0.966	2425870	WORD_OFF	n/a	n/a	JELLO	n/a	3	20	[0, 0, 0]	n/a	catFR1	3	R1226D
2128.506	1.6	2426836	WORD	n/a	wordpools/wordpool_categorized_EN.txt	FUDGE	Desserts	4	20	[0, 0, 0]	n/a	catFR1	3	R1226D
2130.122	0.817	2428452	WORD_OFF	n/a	n/a	FUDGE	n/a	4	20	[0, 0, 0]	n/a	catFR1	3	R1226D
2130.939	1.6	2429269	WORD	n/a	wordpools/wordpool_categorized_EN.txt	RAIN	Weather	5	20	[0, 0, 0]	n/a	catFR1	3	R1226D
2132.54	0.8	2430869	WORD_OFF	n/a	n/a	RAIN	n/a	5	20	[0, 0, 0]	n/a	catFR1	3	R1226D
2133.34	1.6	2431669	WORD	n/a	wordpools/wordpool_categorized_EN.txt	CLOUD	Weather	6	20	[0, 0, 0]	n/a	catFR1	3	R1226D
2134.957	0.967	2433286	WORD_OFF	n/a	n/a	CLOUD	n/a	6	20	[0, 0, 0]	n/a	catFR1	3	R1226D
2135.924	1.6	2434253	WORD	n/a	wordpools/wordpool_categorized_EN.txt	CHERRY	Fruit	7	20	[0, 0, 0]	n/a	catFR1	3	R1226D
2137.541	0.851	2435870	WORD_OFF	n/a	n/a	CHERRY	n/a	7	20	[0, 0, 0]	n/a	catFR1	3	R1226D
2138.392	1.6	2436721	WORD	n/a	wordpools/wordpool_categorized_EN.txt	PEAR	Fruit	8	20	[0, 0, 0]	n/a	catFR1	3	R1226D
2140.007	0.934	2438336	WORD_OFF	n/a	n/a	PEAR	n/a	8	20	[0, 0, 0]	n/a	catFR1	3	R1226D
2140.941	1.6	2439270	WORD	n/a	wordpools/wordpool_categorized_EN.txt	COBBLER	Desserts	9	20	[0, 0, 0]	n/a	catFR1	3	R1226D
2142.559	0.967	2440888	WORD_OFF	n/a	n/a	COBBLER	n/a	9	20	[0, 0, 0]	n/a	catFR1	3	R1226D
2143.526	1.6	2441855	WORD	n/a	wordpools/wordpool_categorized_EN.txt	CHEESECAKE	Desserts	10	20	[0, 0, 0]	n/a	catFR1	3	R1226D
2145.142	0.817	2443471	WORD_OFF	n/a	n/a	CHEESECAKE	n/a	10	20	[0, 0, 0]	n/a	catFR1	3	R1226D
2145.959	1.6	2444288	WORD	n/a	wordpools/wordpool_categorized_EN.txt	DRIZZLE	Weather	11	20	[0, 0, 0]	n/a	catFR1	3	R1226D
2147.577	0.85	2445906	WORD_OFF	n/a	n/a	DRIZZLE	n/a	11	20	[0, 0, 0]	n/a	catFR1	3	R1226D
2148.427	1.6	2446756	WORD	n/a	wordpools/wordpool_categorized_EN.txt	THUNDERSTORM	Weather	12	20	[0, 0, 0]	n/a	catFR1	3	R1226D
2150.043	0.0	2448371	ENCODING_END	n/a	n/a	n/a	n/a	-999	20	[0, 0, 0]	n/a	catFR1	3	R1226D
2150.043	0.135	2448371	WORD_OFF	n/a	n/a	THUNDERSTORM	n/a	12	20	[0, 0, 0]	n/a	catFR1	3	R1226D
2150.178	0.0	2448506	DISTRACT_START	n/a	n/a	n/a	n/a	-999	20	[0, 0, 0]	n/a	catFR1	3	R1226D
2150.178	0.015	2448506	START	n/a	n/a	n/a	n/a	-999	20	[-999, -999, -999]	n/a	catFR1	3	R1226D
2150.193	3.251	2448521	PROB	3.214	n/a	n/a	n/a	-999	20	[5, 8, 2]	15.0	catFR1	3	R1226D
2153.444	6.451	2451772	PROB	6.418	n/a	n/a	n/a	-999	20	[3, 8, 5]	16.0	catFR1	3	R1226D
2159.895	2.584	2458223	PROB	2.559	n/a	n/a	n/a	-999	20	[4, 1, 2]	7.0	catFR1	3	R1226D
2162.479	4.168	2460807	PROB	4.143	n/a	n/a	n/a	-999	20	[4, 3, 6]	13.0	catFR1	3	R1226D
2166.647	3.912	2464975	PROB	3.912	n/a	n/a	n/a	-999	20	[5, 9, 2]	16.0	catFR1	3	R1226D
2170.559	0.022	2468886	STOP	n/a	n/a	n/a	n/a	-999	20	[-999, -999, -999]	n/a	catFR1	3	R1226D
2170.581	0.666	2468908	DISTRACT_END	n/a	n/a	n/a	n/a	-999	20	[0, 0, 0]	n/a	catFR1	3	R1226D
2171.247	0.517	2469574	RETRIEVAL_ORIENT	n/a	n/a	n/a	n/a	-999	20	[0, 0, 0]	n/a	catFR1	3	R1226D
2171.764	3.513	2470091	REC_START	n/a	n/a	n/a	n/a	-999	20	[0, 0, 0]	n/a	catFR1	3	R1226D
2175.277	0.943	2473604	REC_WORD	3.513	n/a	JELLO	Desserts	3	20	[0, 0, 0]	n/a	catFR1	3	R1226D
2176.22	2.042	2474547	REC_WORD	4.456	n/a	PEAR	Fruit	8	20	[0, 0, 0]	n/a	catFR1	3	R1226D
2178.262	21.196	2476589	REC_WORD	6.498	n/a	BANANA	Fruit	2	20	[0, 0, 0]	n/a	catFR1	3	R1226D
2199.458	2.315	2497784	REC_WORD_VV	27.694	n/a	<>	n/a	-999	20	[0, 0, 0]	n/a	catFR1	3	R1226D
2201.773	5.464	2500099	REC_END	n/a	n/a	n/a	n/a	-999	20	[0, 0, 0]	n/a	catFR1	3	R1226D
2207.237	0.5	2505562	TRIAL	n/a	n/a	n/a	n/a	-999	21	[0, 0, 0]	n/a	catFR1	3	R1226D
2207.737	10.0	2506062	COUNTDOWN_START	n/a	n/a	n/a	n/a	-999	21	[0, 0, 0]	n/a	catFR1	3	R1226D
2218.165	0.007	2516490	COUNTDOWN_END	n/a	n/a	n/a	n/a	-999	21	[0, 0, 0]	n/a	catFR1	3	R1226D
2218.172	1.6	2516497	ORIENT	n/a	n/a	n/a	n/a	-999	21	[0, 0, 0]	n/a	catFR1	3	R1226D
2219.789	1.967	2518114	ORIENT_OFF	n/a	n/a	n/a	n/a	-999	21	[0, 0, 0]	n/a	catFR1	3	R1226D
2221.756	1.6	2520081	WORD	n/a	wordpools/wordpool_categorized_EN.txt	FLY	Insects	1	21	[0, 0, 0]	n/a	catFR1	3	R1226D
2223.374	1.0	2521698	WORD_OFF	n/a	n/a	FLY	n/a	1	21	[0, 0, 0]	n/a	catFR1	3	R1226D
2224.374	1.6	2522698	WORD	n/a	wordpools/wordpool_categorized_EN.txt	BUTTERFLY	Insects	2	21	[0, 0, 0]	n/a	catFR1	3	R1226D
2225.99	0.883	2524314	WORD_OFF	n/a	n/a	BUTTERFLY	n/a	2	21	[0, 0, 0]	n/a	catFR1	3	R1226D
