onset	duration	sample	trial_type	response_time	stim_file	item_name	category	serialpos	list	test	answer	experiment	session	subject
0.0	0.334	153244	INSTRUCT_START	n/a	n/a	n/a	n/a	-999	-999	[0, 0, 0]	n/a	catFR1	2	R1482J
0.334	24.266	153575	INSTRUCT_END	n/a	n/a	n/a	n/a	-999	-999	[0, 0, 0]	n/a	catFR1	2	R1482J
24.6	10.35	177844	COUNTDOWN_START	n/a	n/a	n/a	n/a	-999	-999	[0, 0, 0]	n/a	catFR1	2	R1482J
34.95	0.0	188187	COUNTDOWN_END	n/a	n/a	n/a	n/a	-999	-999	[0, 0, 0]	n/a	catFR1	2	R1482J
34.95	2.116	188187	ENCODING_START	n/a	n/a	n/a	n/a	-999	-1	[0, 0, 0]	n/a	catFR1	2	R1482J
37.066	1.617	190302	WORD	n/a	n/a	PAPER	OfficeSupplies	1	-1	[0, 0, 0]	n/a	catFR1	2	R1482J
38.683	0.8	191924	WORD_OFF	n/a	n/a	PAPER	OfficeSupplies	1	-1	[0, 0, 0]	n/a	catFR1	2	R1482J
39.483	1.616	192724	WORD	n/a	n/a	GLUE	OfficeSupplies	2	-1	[0, 0, 0]	n/a	catFR1	2	R1482J
41.099	0.783	194339	WORD_OFF	n/a	n/a	GLUE	OfficeSupplies	2	-1	[0, 0, 0]	n/a	catFR1	2	R1482J
41.882	1.617	195124	WORD	n/a	n/a	DRUM	Instruments	3	-1	[0, 0, 0]	n/a	catFR1	2	R1482J
43.499	0.868	196738	WORD_OFF	n/a	n/a	DRUM	Instruments	3	-1	[0, 0, 0]	n/a	catFR1	2	R1482J
44.367	1.614	197607	WORD	n/a	n/a	BANJO	Instruments	4	-1	[0, 0, 0]	n/a	catFR1	2	R1482J
45.981	0.851	199222	WORD_OFF	n/a	n/a	BANJO	Instruments	4	-1	[0, 0, 0]	n/a	catFR1	2	R1482J
46.832	1.601	200068	WORD	n/a	n/a	COFFEE	Beverages	5	-1	[0, 0, 0]	n/a	catFR1	2	R1482J
48.433	0.848	201675	WORD_OFF	n/a	n/a	COFFEE	Beverages	5	-1	[0, 0, 0]	n/a	catFR1	2	R1482J
49.281	1.601	202521	WORD	n/a	n/a	TEA	Beverages	6	-1	[0, 0, 0]	n/a	catFR1	2	R1482J
50.882	0.801	204121	WORD_OFF	n/a	n/a	TEA	Beverages	6	-1	[0, 0, 0]	n/a	catFR1	2	R1482J
51.683	1.616	204920	WORD	n/a	n/a	MARKER	OfficeSupplies	7	-1	[0, 0, 0]	n/a	catFR1	2	R1482J
53.299	0.817	206535	WORD_OFF	n/a	n/a	MARKER	OfficeSupplies	7	-1	[0, 0, 0]	n/a	catFR1	2	R1482J
54.116	1.616	207358	WORD	n/a	n/a	FOLDER	OfficeSupplies	8	-1	[0, 0, 0]	n/a	catFR1	2	R1482J
55.732	0.984	208973	WORD_OFF	n/a	n/a	FOLDER	OfficeSupplies	8	-1	[0, 0, 0]	n/a	catFR1	2	R1482J
56.716	1.601	209957	WORD	n/a	n/a	GUITAR	Instruments	9	-1	[0, 0, 0]	n/a	catFR1	2	R1482J
58.317	0.982	211557	WORD_OFF	n/a	n/a	GUITAR	Instruments	9	-1	[0, 0, 0]	n/a	catFR1	2	R1482J
59.299	1.616	212538	WORD	n/a	n/a	TROMBONE	Instruments	10	-1	[0, 0, 0]	n/a	catFR1	2	R1482J
60.915	0.884	214156	WORD_OFF	n/a	n/a	TROMBONE	Instruments	10	-1	[0, 0, 0]	n/a	catFR1	2	R1482J
61.799	1.616	215040	WORD	n/a	n/a	BEER	Beverages	11	-1	[0, 0, 0]	n/a	catFR1	2	R1482J
63.415	0.851	216655	WORD_OFF	n/a	n/a	BEER	Beverages	11	-1	[0, 0, 0]	n/a	catFR1	2	R1482J
64.266	1.615	217501	WORD	n/a	n/a	SODA	Beverages	12	-1	[0, 0, 0]	n/a	catFR1	2	R1482J
65.881	0.001	219116	WORD_OFF	n/a	n/a	SODA	Beverages	12	-1	[0, 0, 0]	n/a	catFR1	2	R1482J
65.882	0.001	219119	START	n/a	n/a	n/a	n/a	-999	-1	[-999, -999, -999]	n/a	catFR1	2	R1482J
65.883	0.0	219120	PROB	0.0	n/a	n/a	n/a	-999	-1	[4, 3, 4]	11	catFR1	2	R1482J
65.882	0.0	219124	ENCODING_END	n/a	n/a	n/a	n/a	-999	-1	[0, 0, 0]	n/a	catFR1	2	R1482J
65.882	7.685	219124	DISTRACT_START	n/a	n/a	n/a	n/a	-999	-1	[0, 0, 0]	n/a	catFR1	2	R1482J
73.567	3.666	226804	PROB	3.666	n/a	n/a	n/a	-999	-1	[5, 8, 5]	18	catFR1	2	R1482J
77.233	5.867	230469	PROB	5.867	n/a	n/a	n/a	-999	-1	[2, 5, 3]	10	catFR1	2	R1482J
83.1	5.599	236336	PROB	5.599	n/a	n/a	n/a	-999	-1	[5, 3, 2]	10	catFR1	2	R1482J
88.699	0.0	241932	DISTRACT_END	n/a	n/a	n/a	n/a	-999	-1	[0, 0, 0]	n/a	catFR1	2	R1482J
88.699	1.083	241935	STOP	n/a	n/a	n/a	n/a	-999	-1	[-999, -999, -999]	n/a	catFR1	2	R1482J
89.782	1.804	243016	REC_START	n/a	n/a	n/a	n/a	-999	-1	[0, 0, 0]	n/a	catFR1	2	R1482J
91.586	0.655	244822	REC_WORD	0.655	n/a	PAPER	OfficeSupplies	1	-1	[0, 0, 0]	n/a	catFR1	2	R1482J
92.241	0.667	245477	REC_WORD	0.667	n/a	GLUE	OfficeSupplies	2	-1	[0, 0, 0]	n/a	catFR1	2	R1482J
92.908	1.486	246144	REC_WORD	1.486	n/a	BANJO	Instruments	4	-1	[0, 0, 0]	n/a	catFR1	2	R1482J
94.394	0.732	247630	REC_WORD	0.732	n/a	GUITAR	Instruments	9	-1	[0, 0, 0]	n/a	catFR1	2	R1482J
95.126	3.556	248362	REC_WORD	3.556	n/a	FOLDER	OfficeSupplies	8	-1	[0, 0, 0]	n/a	catFR1	2	R1482J
98.682	22.29	251917	REC_WORD	22.29	n/a	TROMBONE	Instruments	10	-1	[0, 0, 0]	n/a	catFR1	2	R1482J
120.972	16.877	274207	REC_END	n/a	n/a	n/a	n/a	-999	-1	[0, 0, 0]	n/a	catFR1	2	R1482J
137.849	10.35	291086	COUNTDOWN_START	n/a	n/a	n/a	n/a	-999	1	[0, 0, 0]	n/a	catFR1	2	R1482J
148.199	0.0	301437	COUNTDOWN_END	n/a	n/a	n/a	n/a	-999	1	[0, 0, 0]	n/a	catFR1	2	R1482J
148.199	2.217	301437	ENCODING_START	n/a	n/a	n/a	n/a	-999	1	[0, 0, 0]	n/a	catFR1	2	R1482J
150.416	1.616	303651	WORD	n/a	wordpools/wordpool_categorized_EN.txt	COOKIE	Desserts	1	1	[0, 0, 0]	n/a	catFR1	2	R1482J
152.032	0.784	305266	WORD_OFF	n/a	n/a	COOKIE	Desserts	1	1	[0, 0, 0]	n/a	catFR1	2	R1482J
152.816	1.6	306051	WORD	n/a	wordpools/wordpool_categorized_EN.txt	CHEESECAKE	Desserts	2	1	[0, 0, 0]	n/a	catFR1	2	R1482J
154.416	0.8	307650	WORD_OFF	n/a	n/a	CHEESECAKE	Desserts	2	1	[0, 0, 0]	n/a	catFR1	2	R1482J
155.216	1.6	308450	WORD	n/a	wordpools/wordpool_categorized_EN.txt	NYLON	Fabric	3	1	[0, 0, 0]	n/a	catFR1	2	R1482J
156.816	0.916	310049	WORD_OFF	n/a	n/a	NYLON	Fabric	3	1	[0, 0, 0]	n/a	catFR1	2	R1482J
157.732	1.616	310964	WORD	n/a	wordpools/wordpool_categorized_EN.txt	SUEDE	Fabric	4	1	[0, 0, 0]	n/a	catFR1	2	R1482J
159.348	0.751	312579	WORD_OFF	n/a	n/a	SUEDE	Fabric	4	1	[0, 0, 0]	n/a	catFR1	2	R1482J
160.099	1.618	313333	WORD	n/a	wordpools/wordpool_categorized_EN.txt	VAN	Vehicles	5	1	[0, 0, 0]	n/a	catFR1	2	R1482J
161.717	0.799	314948	WORD_OFF	n/a	n/a	VAN	Vehicles	5	1	[0, 0, 0]	n/a	catFR1	2	R1482J
162.516	1.6	315748	WORD	n/a	wordpools/wordpool_categorized_EN.txt	TRUCK	Vehicles	6	1	[0, 0, 0]	n/a	catFR1	2	R1482J
164.116	0.766	317347	WORD_OFF	n/a	n/a	TRUCK	Vehicles	6	1	[0, 0, 0]	n/a	catFR1	2	R1482J
164.882	1.601	318116	WORD	n/a	wordpools/wordpool_categorized_EN.txt	COBBLER	Desserts	7	1	[0, 0, 0]	n/a	catFR1	2	R1482J
166.483	0.967	319716	WORD_OFF	n/a	n/a	COBBLER	Desserts	7	1	[0, 0, 0]	n/a	catFR1	2	R1482J
167.45	1.615	320684	WORD	n/a	wordpools/wordpool_categorized_EN.txt	PIE	Desserts	8	1	[0, 0, 0]	n/a	catFR1	2	R1482J
169.065	0.933	322299	WORD_OFF	n/a	n/a	PIE	Desserts	8	1	[0, 0, 0]	n/a	catFR1	2	R1482J
169.998	1.601	323230	WORD	n/a	wordpools/wordpool_categorized_EN.txt	COTTON	Fabric	9	1	[0, 0, 0]	n/a	catFR1	2	R1482J
171.599	0.967	324829	WORD_OFF	n/a	n/a	COTTON	Fabric	9	1	[0, 0, 0]	n/a	catFR1	2	R1482J
172.566	1.616	325798	WORD	n/a	wordpools/wordpool_categorized_EN.txt	VELVET	Fabric	10	1	[0, 0, 0]	n/a	catFR1	2	R1482J
174.182	0.8	327413	WORD_OFF	n/a	n/a	VELVET	Fabric	10	1	[0, 0, 0]	n/a	catFR1	2	R1482J
174.982	1.617	328213	WORD	n/a	wordpools/wordpool_categorized_EN.txt	BUS	Vehicles	11	1	[0, 0, 0]	n/a	catFR1	2	R1482J
176.599	0.833	329836	WORD_OFF	n/a	n/a	BUS	Vehicles	11	1	[0, 0, 0]	n/a	catFR1	2	R1482J
177.432	1.617	330666	WORD	n/a	wordpools/wordpool_categorized_EN.txt	PLANE	Vehicles	12	1	[0, 0, 0]	n/a	catFR1	2	R1482J
179.049	0.001	332281	WORD_OFF	n/a	n/a	PLANE	Vehicles	12	1	[0, 0, 0]	n/a	catFR1	2	R1482J
179.05	0.0	332281	ENCODING_END	n/a	n/a	n/a	n/a	-999	1	[0, 0, 0]	n/a	catFR1	2	R1482J
179.05	0.0	332282	START	n/a	n/a	n/a	n/a	-999	1	[-999, -999, -999]	n/a	catFR1	2	R1482J
179.05	0.0	332282	PROB	0.0	n/a	n/a	n/a	-999	1	[1, 1, 5]	7	catFR1	2	R1482J
179.05	4.732	332289	DISTRACT_START	n/a	n/a	n/a	n/a	-999	1	[0, 0, 0]	n/a	catFR1	2	R1482J
183.782	6.651	337014	PROB	6.651	n/a	n/a	n/a	-999	1	[7, 6, 8]	21	catFR1	2	R1482J
190.433	3.65	343665	PROB	3.65	n/a	n/a	n/a	-999	1	[7, 4, 5]	16	catFR1	2	R1482J
194.083	5.149	347314	PROB	5.149	n/a	n/a	n/a	-999	1	[8, 5, 7]	20	catFR1	2	R1482J
199.232	0.0	352463	STOP	n/a	n/a	n/a	n/a	-999	1	[-999, -999, -999]	n/a	catFR1	2	R1482J
199.232	1.234	352467	DISTRACT_END	n/a	n/a	n/a	n/a	-999	1	[0, 0, 0]	n/a	catFR1	2	R1482J
200.466	1.935	353697	REC_START	n/a	n/a	n/a	n/a	-999	1	[0, 0, 0]	n/a	catFR1	2	R1482J
202.401	0.785	355632	REC_WORD	0.785	n/a	VAN	Vehicles	5	1	[0, 0, 0]	n/a	catFR1	2	R1482J
203.186	0.937	356417	REC_WORD	0.937	n/a	TRUCK	Vehicles	6	1	[0, 0, 0]	n/a	catFR1	2	R1482J
204.123	2.531	357354	REC_WORD	2.531	n/a	PIE	Desserts	8	1	[0, 0, 0]	n/a	catFR1	2	R1482J
206.654	2.402	359885	REC_WORD	2.402	n/a	COOKIE	Desserts	1	1	[0, 0, 0]	n/a	catFR1	2	R1482J
209.056	4.859	362287	REC_WORD	4.859	n/a	VELVET	Fabric	10	1	[0, 0, 0]	n/a	catFR1	2	R1482J
213.915	9.726	367146	REC_WORD	9.726	n/a	SUEDE	Fabric	4	1	[0, 0, 0]	n/a	catFR1	2	R1482J
223.641	8.009	376871	REC_WORD	8.009	n/a	NYLON	Fabric	3	1	[0, 0, 0]	n/a	catFR1	2	R1482J
231.65	1.801	384880	REC_END	n/a	n/a	n/a	n/a	-999	1	[0, 0, 0]	n/a	catFR1	2	R1482J
233.451	10.349	386679	COUNTDOWN_START	n/a	n/a	n/a	n/a	-999	1	[0, 0, 0]	n/a	catFR1	2	R1482J
243.8	0.0	397030	COUNTDOWN_END	n/a	n/a	n/a	n/a	-999	1	[0, 0, 0]	n/a	catFR1	2	R1482J
243.8	2.167	397030	ENCODING_START	n/a	n/a	n/a	n/a	-999	2	[0, 0, 0]	n/a	catFR1	2	R1482J
245.967	1.616	399199	WORD	n/a	wordpools/wordpool_categorized_EN.txt	PLANKTON	OceanAnimals	1	2	[0, 0, 0]	n/a	catFR1	2	R1482J
247.583	0.899	400813	WORD_OFF	n/a	n/a	PLANKTON	OceanAnimals	1	2	[0, 0, 0]	n/a	catFR1	2	R1482J
248.482	1.602	401713	WORD	n/a	wordpools/wordpool_categorized_EN.txt	OCTOPUS	OceanAnimals	2	2	[0, 0, 0]	n/a	catFR1	2	R1482J
250.084	0.833	403313	WORD_OFF	n/a	n/a	OCTOPUS	OceanAnimals	2	2	[0, 0, 0]	n/a	catFR1	2	R1482J
250.917	1.6	404151	WORD	n/a	wordpools/wordpool_categorized_EN.txt	DISHWASHER	Appliances	3	2	[0, 0, 0]	n/a	catFR1	2	R1482J
252.517	0.999	405750	WORD_OFF	n/a	n/a	DISHWASHER	Appliances	3	2	[0, 0, 0]	n/a	catFR1	2	R1482J
253.516	1.601	406750	WORD	n/a	wordpools/wordpool_categorized_EN.txt	BLENDER	Appliances	4	2	[0, 0, 0]	n/a	catFR1	2	R1482J
255.117	0.767	408350	WORD_OFF	n/a	n/a	BLENDER	Appliances	4	2	[0, 0, 0]	n/a	catFR1	2	R1482J
255.884	1.616	409111	WORD	n/a	wordpools/wordpool_categorized_EN.txt	SHEEP	FarmAnimals	5	2	[0, 0, 0]	n/a	catFR1	2	R1482J
257.5	0.851	410733	WORD_OFF	n/a	n/a	SHEEP	FarmAnimals	5	2	[0, 0, 0]	n/a	catFR1	2	R1482J
258.351	1.616	411579	WORD	n/a	wordpools/wordpool_categorized_EN.txt	COW	FarmAnimals	6	2	[0, 0, 0]	n/a	catFR1	2	R1482J
259.967	0.85	413194	WORD_OFF	n/a	n/a	COW	FarmAnimals	6	2	[0, 0, 0]	n/a	catFR1	2	R1482J
260.817	1.616	414048	WORD	n/a	wordpools/wordpool_categorized_EN.txt	SQUID	OceanAnimals	7	2	[0, 0, 0]	n/a	catFR1	2	R1482J
262.433	0.983	415663	WORD_OFF	n/a	n/a	SQUID	OceanAnimals	7	2	[0, 0, 0]	n/a	catFR1	2	R1482J
263.416	1.601	416647	WORD	n/a	wordpools/wordpool_categorized_EN.txt	JELLYFISH	OceanAnimals	8	2	[0, 0, 0]	n/a	catFR1	2	R1482J
265.017	0.883	418247	WORD_OFF	n/a	n/a	JELLYFISH	OceanAnimals	8	2	[0, 0, 0]	n/a	catFR1	2	R1482J
265.9	1.617	419131	WORD	n/a	wordpools/wordpool_categorized_EN.txt	IRON	Appliances	9	2	[0, 0, 0]	n/a	catFR1	2	R1482J
267.517	0.767	420746	WORD_OFF	n/a	n/a	IRON	Appliances	9	2	[0, 0, 0]	n/a	catFR1	2	R1482J
268.284	1.617	421515	WORD	n/a	wordpools/wordpool_categorized_EN.txt	OVEN	Appliances	10	2	[0, 0, 0]	n/a	catFR1	2	R1482J
269.901	0.783	423130	WORD_OFF	n/a	n/a	OVEN	Appliances	10	2	[0, 0, 0]	n/a	catFR1	2	R1482J
270.684	1.617	423914	WORD	n/a	wordpools/wordpool_categorized_EN.txt	HORSE	FarmAnimals	11	2	[0, 0, 0]	n/a	catFR1	2	R1482J
272.301	0.9	425529	WORD_OFF	n/a	n/a	HORSE	FarmAnimals	11	2	[0, 0, 0]	n/a	catFR1	2	R1482J
273.201	1.617	426429	WORD	n/a	wordpools/wordpool_categorized_EN.txt	HEN	FarmAnimals	12	2	[0, 0, 0]	n/a	catFR1	2	R1482J
274.818	0.0	428043	WORD_OFF	n/a	n/a	HEN	FarmAnimals	12	2	[0, 0, 0]	n/a	catFR1	2	R1482J
274.818	0.001	428046	PROB	0.001	n/a	n/a	n/a	-999	2	[3, 8, 3]	14	catFR1	2	R1482J
274.819	0.0	428047	START	n/a	n/a	n/a	n/a	-999	2	[-999, -999, -999]	n/a	catFR1	2	R1482J
274.819	0.0	428051	ENCODING_END	n/a	n/a	n/a	n/a	-999	2	[0, 0, 0]	n/a	catFR1	2	R1482J
274.819	11.599	428051	DISTRACT_START	n/a	n/a	n/a	n/a	-999	2	[0, 0, 0]	n/a	catFR1	2	R1482J
286.418	4.399	439646	PROB	4.399	n/a	n/a	n/a	-999	2	[1, 5, 6]	12	catFR1	2	R1482J
290.817	5.6	444044	PROB	5.6	n/a	n/a	n/a	-999	2	[3, 7, 8]	18	catFR1	2	R1482J
296.417	0.0	449644	DISTRACT_END	n/a	n/a	n/a	n/a	-999	2	[0, 0, 0]	n/a	catFR1	2	R1482J
296.417	1.217	449644	STOP	n/a	n/a	n/a	n/a	-999	2	[-999, -999, -999]	n/a	catFR1	2	R1482J
297.634	2.277	450859	REC_START	n/a	n/a	n/a	n/a	-999	2	[0, 0, 0]	n/a	catFR1	2	R1482J
299.911	0.658	453138	REC_WORD	0.658	n/a	IRON	Appliances	9	2	[0, 0, 0]	n/a	catFR1	2	R1482J
300.569	1.992	453796	REC_WORD	1.992	n/a	OVEN	Appliances	10	2	[0, 0, 0]	n/a	catFR1	2	R1482J
302.561	1.133	455788	REC_WORD	1.133	n/a	COW	FarmAnimals	6	2	[0, 0, 0]	n/a	catFR1	2	R1482J
303.694	1.899	456921	REC_WORD	1.899	n/a	JELLYFISH	OceanAnimals	8	2	[0, 0, 0]	n/a	catFR1	2	R1482J
305.593	1.775	458820	REC_WORD	1.775	n/a	PLANKTON	OceanAnimals	1	2	[0, 0, 0]	n/a	catFR1	2	R1482J
307.368	21.468	460595	REC_WORD	21.468	n/a	OCTOPUS	OceanAnimals	2	2	[0, 0, 0]	n/a	catFR1	2	R1482J
328.836	1.748	482065	REC_END	n/a	n/a	n/a	n/a	-999	2	[0, 0, 0]	n/a	catFR1	2	R1482J
330.584	10.35	483811	COUNTDOWN_START	n/a	n/a	n/a	n/a	-999	2	[0, 0, 0]	n/a	catFR1	2	R1482J
340.934	0.0	494161	COUNTDOWN_END	n/a	n/a	n/a	n/a	-999	2	[0, 0, 0]	n/a	catFR1	2	R1482J
340.934	2.2	494161	ENCODING_START	n/a	n/a	n/a	n/a	-999	3	[0, 0, 0]	n/a	catFR1	2	R1482J
343.134	1.616	496361	WORD	n/a	wordpools/wordpool_categorized_EN.txt	EVERGREEN	Trees	1	3	[0, 0, 0]	n/a	catFR1	2	R1482J
344.75	0.934	497976	WORD_OFF	n/a	n/a	EVERGREEN	Trees	1	3	[0, 0, 0]	n/a	catFR1	2	R1482J
345.684	1.6	498914	WORD	n/a	wordpools/wordpool_categorized_EN.txt	CEDAR	Trees	2	3	[0, 0, 0]	n/a	catFR1	2	R1482J
347.284	0.8	500513	WORD_OFF	n/a	n/a	CEDAR	Trees	2	3	[0, 0, 0]	n/a	catFR1	2	R1482J
348.084	1.6	501313	WORD	n/a	wordpools/wordpool_categorized_EN.txt	STRAWBERRY	Fruit	3	3	[0, 0, 0]	n/a	catFR1	2	R1482J
349.684	0.85	502912	WORD_OFF	n/a	n/a	STRAWBERRY	Fruit	3	3	[0, 0, 0]	n/a	catFR1	2	R1482J
350.534	1.617	503758	WORD	n/a	wordpools/wordpool_categorized_EN.txt	LEMON	Fruit	4	3	[0, 0, 0]	n/a	catFR1	2	R1482J
352.151	0.899	505373	WORD_OFF	n/a	n/a	LEMON	Fruit	4	3	[0, 0, 0]	n/a	catFR1	2	R1482J
353.05	1.6	506273	WORD	n/a	wordpools/wordpool_categorized_EN.txt	ISLAND	Landscapes	5	3	[0, 0, 0]	n/a	catFR1	2	R1482J
354.65	0.949	507880	WORD_OFF	n/a	n/a	ISLAND	Landscapes	5	3	[0, 0, 0]	n/a	catFR1	2	R1482J
355.599	1.601	508826	WORD	n/a	wordpools/wordpool_categorized_EN.txt	STREAM	Landscapes	6	3	[0, 0, 0]	n/a	catFR1	2	R1482J
357.2	0.817	510426	WORD_OFF	n/a	n/a	STREAM	Landscapes	6	3	[0, 0, 0]	n/a	catFR1	2	R1482J
358.017	1.617	511241	WORD	n/a	wordpools/wordpool_categorized_EN.txt	LIME	Fruit	7	3	[0, 0, 0]	n/a	catFR1	2	R1482J
359.634	0.85	512863	WORD_OFF	n/a	n/a	LIME	Fruit	7	3	[0, 0, 0]	n/a	catFR1	2	R1482J
360.484	1.6	513709	WORD	n/a	wordpools/wordpool_categorized_EN.txt	APPLE	Fruit	8	3	[0, 0, 0]	n/a	catFR1	2	R1482J
362.084	0.832	515309	WORD_OFF	n/a	n/a	APPLE	Fruit	8	3	[0, 0, 0]	n/a	catFR1	2	R1482J
362.916	1.601	516139	WORD	n/a	wordpools/wordpool_categorized_EN.txt	FOREST	Landscapes	9	3	[0, 0, 0]	n/a	catFR1	2	R1482J
364.517	0.934	517746	WORD_OFF	n/a	n/a	FOREST	Landscapes	9	3	[0, 0, 0]	n/a	catFR1	2	R1482J
365.451	1.616	518677	WORD	n/a	wordpools/wordpool_categorized_EN.txt	RIVER	Landscapes	10	3	[0, 0, 0]	n/a	catFR1	2	R1482J
367.067	0.85	520292	WORD_OFF	n/a	n/a	RIVER	Landscapes	10	3	[0, 0, 0]	n/a	catFR1	2	R1482J
367.917	1.6	521145	WORD	n/a	wordpools/wordpool_categorized_EN.txt	MAPLE	Trees	11	3	[0, 0, 0]	n/a	catFR1	2	R1482J
369.517	0.8	522745	WORD_OFF	n/a	n/a	MAPLE	Trees	11	3	[0, 0, 0]	n/a	catFR1	2	R1482J
370.317	1.617	523545	WORD	n/a	wordpools/wordpool_categorized_EN.txt	CYPRESS	Trees	12	3	[0, 0, 0]	n/a	catFR1	2	R1482J
371.934	0.0	525158	PROB	0.0	n/a	n/a	n/a	-999	3	[6, 6, 4]	16	catFR1	2	R1482J
371.934	0.001	525159	WORD_OFF	n/a	n/a	CYPRESS	Trees	12	3	[0, 0, 0]	n/a	catFR1	2	R1482J
371.935	0.0	525159	ENCODING_END	n/a	n/a	n/a	n/a	-999	3	[0, 0, 0]	n/a	catFR1	2	R1482J
371.935	0.0	525159	START	n/a	n/a	n/a	n/a	-999	3	[-999, -999, -999]	n/a	catFR1	2	R1482J
371.935	6.633	525167	DISTRACT_START	n/a	n/a	n/a	n/a	-999	3	[0, 0, 0]	n/a	catFR1	2	R1482J
378.568	2.917	531792	PROB	2.917	n/a	n/a	n/a	-999	3	[1, 7, 7]	15	catFR1	2	R1482J
381.485	6.433	534709	PROB	6.433	n/a	n/a	n/a	-999	3	[3, 5, 4]	17	catFR1	2	R1482J
387.918	6.516	541141	PROB	6.516	n/a	n/a	n/a	-999	3	[5, 2, 4]	11	catFR1	2	R1482J
394.434	0.0	547657	STOP	n/a	n/a	n/a	n/a	-999	3	[-999, -999, -999]	n/a	catFR1	2	R1482J
394.434	1.35	547660	DISTRACT_END	n/a	n/a	n/a	n/a	-999	3	[0, 0, 0]	n/a	catFR1	2	R1482J
395.784	7.553	549006	REC_START	n/a	n/a	n/a	n/a	-999	3	[0, 0, 0]	n/a	catFR1	2	R1482J
403.337	23.69	556560	REC_WORD	23.69	n/a	CYPRESS	Trees	12	3	[0, 0, 0]	n/a	catFR1	2	R1482J
427.027	1.738	580250	REC_END	n/a	n/a	n/a	n/a	-999	3	[0, 0, 0]	n/a	catFR1	2	R1482J
428.765	10.351	581988	COUNTDOWN_START	n/a	n/a	n/a	n/a	-999	3	[0, 0, 0]	n/a	catFR1	2	R1482J
439.116	0.0	592339	COUNTDOWN_END	n/a	n/a	n/a	n/a	-999	3	[0, 0, 0]	n/a	catFR1	2	R1482J
439.116	2.25	592339	ENCODING_START	n/a	n/a	n/a	n/a	-999	4	[0, 0, 0]	n/a	catFR1	2	R1482J
441.366	1.618	594592	WORD	n/a	wordpools/wordpool_categorized_EN.txt	RECLINER	Furniture	1	4	[0, 0, 0]	n/a	catFR1	2	R1482J
442.984	0.882	596207	WORD_OFF	n/a	n/a	RECLINER	Furniture	1	4	[0, 0, 0]	n/a	catFR1	2	R1482J
443.866	1.6	597091	WORD	n/a	wordpools/wordpool_categorized_EN.txt	NIGHTSTAND	Furniture	2	4	[0, 0, 0]	n/a	catFR1	2	R1482J
445.466	0.866	598690	WORD_OFF	n/a	n/a	NIGHTSTAND	Furniture	2	4	[0, 0, 0]	n/a	catFR1	2	R1482J
446.332	1.617	599552	WORD	n/a	wordpools/wordpool_categorized_EN.txt	MOUNTAIN	Landscapes	3	4	[0, 0, 0]	n/a	catFR1	2	R1482J
447.949	0.833	601174	WORD_OFF	n/a	n/a	MOUNTAIN	Landscapes	3	4	[0, 0, 0]	n/a	catFR1	2	R1482J
448.782	1.601	602005	WORD	n/a	wordpools/wordpool_categorized_EN.txt	OCEAN	Landscapes	4	4	[0, 0, 0]	n/a	catFR1	2	R1482J
450.383	0.999	603604	WORD_OFF	n/a	n/a	OCEAN	Landscapes	4	4	[0, 0, 0]	n/a	catFR1	2	R1482J
451.382	1.6	604604	WORD	n/a	wordpools/wordpool_categorized_EN.txt	BASEBALL	Toys	5	4	[0, 0, 0]	n/a	catFR1	2	R1482J
452.982	0.784	606203	WORD_OFF	n/a	n/a	BASEBALL	Toys	5	4	[0, 0, 0]	n/a	catFR1	2	R1482J
453.766	1.6	606988	WORD	n/a	wordpools/wordpool_categorized_EN.txt	BLOCKS	Toys	6	4	[0, 0, 0]	n/a	catFR1	2	R1482J
455.366	0.967	608587	WORD_OFF	n/a	n/a	BLOCKS	Toys	6	4	[0, 0, 0]	n/a	catFR1	2	R1482J
456.333	1.601	609556	WORD	n/a	wordpools/wordpool_categorized_EN.txt	BOOKCASE	Furniture	7	4	[0, 0, 0]	n/a	catFR1	2	R1482J
457.934	0.782	611156	WORD_OFF	n/a	n/a	BOOKCASE	Furniture	7	4	[0, 0, 0]	n/a	catFR1	2	R1482J
458.716	1.617	611940	WORD	n/a	wordpools/wordpool_categorized_EN.txt	TABLE	Furniture	8	4	[0, 0, 0]	n/a	catFR1	2	R1482J
460.333	0.898	613555	WORD_OFF	n/a	n/a	TABLE	Furniture	8	4	[0, 0, 0]	n/a	catFR1	2	R1482J
461.231	1.601	614455	WORD	n/a	wordpools/wordpool_categorized_EN.txt	FOOTBALL	Toys	9	4	[0, 0, 0]	n/a	catFR1	2	R1482J
462.832	0.834	616054	WORD_OFF	n/a	n/a	FOOTBALL	Toys	9	4	[0, 0, 0]	n/a	catFR1	2	R1482J
463.666	1.6	616885	WORD	n/a	wordpools/wordpool_categorized_EN.txt	BARBIE	Toys	10	4	[0, 0, 0]	n/a	catFR1	2	R1482J
465.266	0.783	618484	WORD_OFF	n/a	n/a	BARBIE	Toys	10	4	[0, 0, 0]	n/a	catFR1	2	R1482J
466.049	1.617	619269	WORD	n/a	wordpools/wordpool_categorized_EN.txt	HILLS	Landscapes	11	4	[0, 0, 0]	n/a	catFR1	2	R1482J
467.666	0.8	620884	WORD_OFF	n/a	n/a	HILLS	Landscapes	11	4	[0, 0, 0]	n/a	catFR1	2	R1482J
468.466	1.617	621684	WORD	n/a	wordpools/wordpool_categorized_EN.txt	VALLEY	Landscapes	12	4	[0, 0, 0]	n/a	catFR1	2	R1482J
470.083	0.0	623303	START	n/a	n/a	n/a	n/a	-999	4	[-999, -999, -999]	n/a	catFR1	2	R1482J
470.083	0.0	623303	PROB	0.0	n/a	n/a	n/a	-999	4	[8, 5, 6]	19	catFR1	2	R1482J
470.082	0.001	623306	WORD_OFF	n/a	n/a	VALLEY	Landscapes	12	4	[0, 0, 0]	n/a	catFR1	2	R1482J
470.083	0.0	623306	ENCODING_END	n/a	n/a	n/a	n/a	-999	4	[0, 0, 0]	n/a	catFR1	2	R1482J
470.083	5.249	623306	DISTRACT_START	n/a	n/a	n/a	n/a	-999	4	[0, 0, 0]	n/a	catFR1	2	R1482J
475.332	3.968	628552	PROB	3.968	n/a	n/a	n/a	-999	4	[5, 4, 7]	16	catFR1	2	R1482J
479.3	6.449	632520	PROB	6.449	n/a	n/a	n/a	-999	4	[8, 3, 1]	12	catFR1	2	R1482J
485.749	4.1	638968	PROB	4.1	n/a	n/a	n/a	-999	4	[8, 4, 6]	18	catFR1	2	R1482J
489.849	4.783	643068	PROB	4.783	n/a	n/a	n/a	-999	4	[1, 8, 4]	13	catFR1	2	R1482J
494.632	0.0	647851	STOP	n/a	n/a	n/a	n/a	-999	4	[-999, -999, -999]	n/a	catFR1	2	R1482J
494.632	1.399	647852	DISTRACT_END	n/a	n/a	n/a	n/a	-999	4	[0, 0, 0]	n/a	catFR1	2	R1482J
496.031	5.814	649252	REC_START	n/a	n/a	n/a	n/a	-999	4	[0, 0, 0]	n/a	catFR1	2	R1482J
501.845	4.895	655064	REC_WORD	4.895	n/a	BASEBALL	Toys	5	4	[0, 0, 0]	n/a	catFR1	2	R1482J
506.74	0.814	659958	REC_WORD	0.814	n/a	RECLINER	Furniture	1	4	[0, 0, 0]	n/a	catFR1	2	R1482J
507.554	2.186	660772	REC_WORD	2.186	n/a	MOUNTAIN	Landscapes	3	4	[0, 0, 0]	n/a	catFR1	2	R1482J
509.74	17.492	662958	REC_WORD	17.492	n/a	ISLAND	Landscapes	-999	4	[0, 0, 0]	n/a	catFR1	2	R1482J
527.232	1.552	680450	REC_END	n/a	n/a	n/a	n/a	-999	4	[0, 0, 0]	n/a	catFR1	2	R1482J
528.784	10.349	682003	COUNTDOWN_START	n/a	n/a	n/a	n/a	-999	4	[0, 0, 0]	n/a	catFR1	2	R1482J
539.133	0.0	692354	COUNTDOWN_END	n/a	n/a	n/a	n/a	-999	4	[0, 0, 0]	n/a	catFR1	2	R1482J
539.133	2.399	692354	ENCODING_START	n/a	n/a	n/a	n/a	-999	5	[0, 0, 0]	n/a	catFR1	2	R1482J
541.532	1.602	694753	WORD	n/a	wordpools/wordpool_categorized_EN.txt	BEACH	Landscapes	1	5	[0, 0, 0]	n/a	catFR1	2	R1482J
543.134	0.867	696352	WORD_OFF	n/a	n/a	BEACH	Landscapes	1	5	[0, 0, 0]	n/a	catFR1	2	R1482J
544.001	1.616	697221	WORD	n/a	wordpools/wordpool_categorized_EN.txt	LAKE	Landscapes	2	5	[0, 0, 0]	n/a	catFR1	2	R1482J
545.617	0.998	698836	WORD_OFF	n/a	n/a	LAKE	Landscapes	2	5	[0, 0, 0]	n/a	catFR1	2	R1482J
546.615	1.602	699836	WORD	n/a	wordpools/wordpool_categorized_EN.txt	GIRAFFE	Zoo	3	5	[0, 0, 0]	n/a	catFR1	2	R1482J
548.217	0.783	701435	WORD_OFF	n/a	n/a	GIRAFFE	Zoo	3	5	[0, 0, 0]	n/a	catFR1	2	R1482J
549.0	1.617	702220	WORD	n/a	wordpools/wordpool_categorized_EN.txt	LION	Zoo	4	5	[0, 0, 0]	n/a	catFR1	2	R1482J
550.617	0.817	703835	WORD_OFF	n/a	n/a	LION	Zoo	4	5	[0, 0, 0]	n/a	catFR1	2	R1482J
551.434	1.617	704650	WORD	n/a	wordpools/wordpool_categorized_EN.txt	SOCKS	Clothing	5	5	[0, 0, 0]	n/a	catFR1	2	R1482J
553.051	0.883	706272	WORD_OFF	n/a	n/a	SOCKS	Clothing	5	5	[0, 0, 0]	n/a	catFR1	2	R1482J
553.934	1.6	707149	WORD	n/a	wordpools/wordpool_categorized_EN.txt	SHIRT	Clothing	6	5	[0, 0, 0]	n/a	catFR1	2	R1482J
555.534	0.817	708749	WORD_OFF	n/a	n/a	SHIRT	Clothing	6	5	[0, 0, 0]	n/a	catFR1	2	R1482J
556.351	1.616	709571	WORD	n/a	wordpools/wordpool_categorized_EN.txt	WOODS	Landscapes	7	5	[0, 0, 0]	n/a	catFR1	2	R1482J
557.967	0.967	711186	WORD_OFF	n/a	n/a	WOODS	Landscapes	7	5	[0, 0, 0]	n/a	catFR1	2	R1482J
558.934	1.615	712150	WORD	n/a	wordpools/wordpool_categorized_EN.txt	CREEK	Landscapes	8	5	[0, 0, 0]	n/a	catFR1	2	R1482J
560.549	0.9	713770	WORD_OFF	n/a	n/a	CREEK	Landscapes	8	5	[0, 0, 0]	n/a	catFR1	2	R1482J
561.449	1.601	714670	WORD	n/a	wordpools/wordpool_categorized_EN.txt	BLOUSE	Clothing	9	5	[0, 0, 0]	n/a	catFR1	2	R1482J
563.05	0.951	716269	WORD_OFF	n/a	n/a	BLOUSE	Clothing	9	5	[0, 0, 0]	n/a	catFR1	2	R1482J
564.001	1.6	717215	WORD	n/a	wordpools/wordpool_categorized_EN.txt	PANTS	Clothing	10	5	[0, 0, 0]	n/a	catFR1	2	R1482J
565.601	0.933	718815	WORD_OFF	n/a	n/a	PANTS	Clothing	10	5	[0, 0, 0]	n/a	catFR1	2	R1482J
566.534	1.617	719753	WORD	n/a	wordpools/wordpool_categorized_EN.txt	BEAR	Zoo	11	5	[0, 0, 0]	n/a	catFR1	2	R1482J
568.151	0.916	721368	WORD_OFF	n/a	n/a	BEAR	Zoo	11	5	[0, 0, 0]	n/a	catFR1	2	R1482J
569.067	1.617	722283	WORD	n/a	wordpools/wordpool_categorized_EN.txt	GORILLA	Zoo	12	5	[0, 0, 0]	n/a	catFR1	2	R1482J
570.684	0.0	723898	WORD_OFF	n/a	n/a	GORILLA	Zoo	12	5	[0, 0, 0]	n/a	catFR1	2	R1482J
570.684	0.001	723900	PROB	0.001	n/a	n/a	n/a	-999	5	[1, 7, 3]	11	catFR1	2	R1482J
570.685	0.0	723901	START	n/a	n/a	n/a	n/a	-999	5	[-999, -999, -999]	n/a	catFR1	2	R1482J
570.685	0.0	723905	ENCODING_END	n/a	n/a	n/a	n/a	-999	5	[0, 0, 0]	n/a	catFR1	2	R1482J
570.685	3.55	723905	DISTRACT_START	n/a	n/a	n/a	n/a	-999	5	[0, 0, 0]	n/a	catFR1	2	R1482J
574.235	12.116	727451	PROB	12.116	n/a	n/a	n/a	-999	5	[8, 5, 4]	17	catFR1	2	R1482J
586.351	3.398	739566	PROB	3.398	n/a	n/a	n/a	-999	5	[6, 6, 8]	20	catFR1	2	R1482J
589.749	12.152	742964	PROB	12.152	n/a	n/a	n/a	-999	5	[7, 2, 6]	15	catFR1	2	R1482J
601.901	0.0	755115	STOP	n/a	n/a	n/a	n/a	-999	5	[-999, -999, -999]	n/a	catFR1	2	R1482J
601.901	1.099	755119	DISTRACT_END	n/a	n/a	n/a	n/a	-999	5	[0, 0, 0]	n/a	catFR1	2	R1482J
603.0	4.516	756218	REC_START	n/a	n/a	n/a	n/a	-999	5	[0, 0, 0]	n/a	catFR1	2	R1482J
607.516	0.755	760730	REC_WORD	0.755	n/a	GIRAFFE	Zoo	3	5	[0, 0, 0]	n/a	catFR1	2	R1482J
608.271	2.59	761485	REC_WORD	2.59	n/a	LION	Zoo	4	5	[0, 0, 0]	n/a	catFR1	2	R1482J
610.861	2.054	764075	REC_WORD	2.054	n/a	BEACH	Landscapes	1	5	[0, 0, 0]	n/a	catFR1	2	R1482J
612.915	5.389	766129	REC_WORD	5.389	n/a	BEAR	Zoo	11	5	[0, 0, 0]	n/a	catFR1	2	R1482J
618.304	15.929	771518	REC_WORD	15.929	n/a	GORILLA	Zoo	12	5	[0, 0, 0]	n/a	catFR1	2	R1482J
634.233	3.351	787447	REC_END	n/a	n/a	n/a	n/a	-999	5	[0, 0, 0]	n/a	catFR1	2	R1482J
637.584	10.35	790800	COUNTDOWN_START	n/a	n/a	n/a	n/a	-999	5	[0, 0, 0]	n/a	catFR1	2	R1482J
647.934	0.0	801151	COUNTDOWN_END	n/a	n/a	n/a	n/a	-999	5	[0, 0, 0]	n/a	catFR1	2	R1482J
647.934	2.25	801151	ENCODING_START	n/a	n/a	n/a	n/a	-999	6	[0, 0, 0]	n/a	catFR1	2	R1482J
650.184	1.617	803396	WORD	n/a	wordpools/wordpool_categorized_EN.txt	MONKEY	Zoo	1	6	[0, 0, 0]	n/a	catFR1	2	R1482J
651.801	0.782	805011	WORD_OFF	n/a	n/a	MONKEY	Zoo	1	6	[0, 0, 0]	n/a	catFR1	2	R1482J
652.583	1.618	805795	WORD	n/a	wordpools/wordpool_categorized_EN.txt	PANDA	Zoo	2	6	[0, 0, 0]	n/a	catFR1	2	R1482J
654.201	0.933	807418	WORD_OFF	n/a	n/a	PANDA	Zoo	2	6	[0, 0, 0]	n/a	catFR1	2	R1482J
655.134	1.617	808348	WORD	n/a	wordpools/wordpool_categorized_EN.txt	SCREWDRIVER	Tools	3	6	[0, 0, 0]	n/a	catFR1	2	R1482J
656.751	0.933	809963	WORD_OFF	n/a	n/a	SCREWDRIVER	Tools	3	6	[0, 0, 0]	n/a	catFR1	2	R1482J
657.684	1.6	810894	WORD	n/a	wordpools/wordpool_categorized_EN.txt	SAW	Tools	4	6	[0, 0, 0]	n/a	catFR1	2	R1482J
659.284	0.983	812501	WORD_OFF	n/a	n/a	SAW	Tools	4	6	[0, 0, 0]	n/a	catFR1	2	R1482J
660.267	1.6	813478	WORD	n/a	wordpools/wordpool_categorized_EN.txt	SHORTS	Clothing	5	6	[0, 0, 0]	n/a	catFR1	2	R1482J
661.867	0.834	815077	WORD_OFF	n/a	n/a	SHORTS	Clothing	5	6	[0, 0, 0]	n/a	catFR1	2	R1482J
662.701	1.6	815915	WORD	n/a	wordpools/wordpool_categorized_EN.txt	COAT	Clothing	6	6	[0, 0, 0]	n/a	catFR1	2	R1482J
664.301	0.966	817515	WORD_OFF	n/a	n/a	COAT	Clothing	6	6	[0, 0, 0]	n/a	catFR1	2	R1482J
665.267	1.617	818476	WORD	n/a	wordpools/wordpool_categorized_EN.txt	ORANGUTAN	Zoo	7	6	[0, 0, 0]	n/a	catFR1	2	R1482J
666.884	0.983	820099	WORD_OFF	n/a	n/a	ORANGUTAN	Zoo	7	6	[0, 0, 0]	n/a	catFR1	2	R1482J
667.867	1.6	821083	WORD	n/a	wordpools/wordpool_categorized_EN.txt	ELEPHANT	Zoo	8	6	[0, 0, 0]	n/a	catFR1	2	R1482J
669.467	0.949	822682	WORD_OFF	n/a	n/a	ELEPHANT	Zoo	8	6	[0, 0, 0]	n/a	catFR1	2	R1482J
670.416	1.616	823628	WORD	n/a	wordpools/wordpool_categorized_EN.txt	SKIRT	Clothing	9	6	[0, 0, 0]	n/a	catFR1	2	R1482J
672.032	0.952	825243	WORD_OFF	n/a	n/a	SKIRT	Clothing	9	6	[0, 0, 0]	n/a	catFR1	2	R1482J
672.984	1.617	826197	WORD	n/a	wordpools/wordpool_categorized_EN.txt	JEANS	Clothing	10	6	[0, 0, 0]	n/a	catFR1	2	R1482J
674.601	0.783	827812	WORD_OFF	n/a	n/a	JEANS	Clothing	10	6	[0, 0, 0]	n/a	catFR1	2	R1482J
675.384	1.6	828596	WORD	n/a	wordpools/wordpool_categorized_EN.txt	SHOVEL	Tools	11	6	[0, 0, 0]	n/a	catFR1	2	R1482J
676.984	0.932	830195	WORD_OFF	n/a	n/a	SHOVEL	Tools	11	6	[0, 0, 0]	n/a	catFR1	2	R1482J
677.916	1.602	831126	WORD	n/a	wordpools/wordpool_categorized_EN.txt	DRILL	Tools	12	6	[0, 0, 0]	n/a	catFR1	2	R1482J
679.518	0.0	832729	PROB	0.0	n/a	n/a	n/a	-999	6	[2, 2, 4]	8	catFR1	2	R1482J
679.518	0.0	832729	START	n/a	n/a	n/a	n/a	-999	6	[-999, -999, -999]	n/a	catFR1	2	R1482J
679.517	0.001	832733	WORD_OFF	n/a	n/a	DRILL	Tools	12	6	[0, 0, 0]	n/a	catFR1	2	R1482J
679.518	0.0	832733	ENCODING_END	n/a	n/a	n/a	n/a	-999	6	[0, 0, 0]	n/a	catFR1	2	R1482J
679.518	5.083	832733	DISTRACT_START	n/a	n/a	n/a	n/a	-999	6	[0, 0, 0]	n/a	catFR1	2	R1482J
684.601	2.749	837812	PROB	2.749	n/a	n/a	n/a	-999	6	[3, 4, 5]	12	catFR1	2	R1482J
687.35	7.417	840561	PROB	7.417	n/a	n/a	n/a	-999	6	[7, 2, 3]	12	catFR1	2	R1482J
694.767	3.583	847978	PROB	3.583	n/a	n/a	n/a	-999	6	[2, 5, 5]	12	catFR1	2	R1482J
698.35	4.049	851560	PROB	4.049	n/a	n/a	n/a	-999	6	[1, 5, 4]	10	catFR1	2	R1482J
702.399	0.0	855609	STOP	n/a	n/a	n/a	n/a	-999	6	[-999, -999, -999]	n/a	catFR1	2	R1482J
702.399	1.217	855611	DISTRACT_END	n/a	n/a	n/a	n/a	-999	6	[0, 0, 0]	n/a	catFR1	2	R1482J
703.616	0.517	856826	REC_START	n/a	n/a	n/a	n/a	-999	6	[0, 0, 0]	n/a	catFR1	2	R1482J
704.133	2.64	857343	REC_WORD_VV	2.64	n/a	<>	n/a	-999	6	[0, 0, 0]	n/a	catFR1	2	R1482J
706.773	0.946	859983	REC_WORD	0.946	n/a	ORANGUTAN	Zoo	7	6	[0, 0, 0]	n/a	catFR1	2	R1482J
707.719	7.228	860929	REC_WORD	7.228	n/a	ELEPHANT	Zoo	8	6	[0, 0, 0]	n/a	catFR1	2	R1482J
714.947	2.78	868157	REC_WORD	2.78	n/a	SHORTS	Clothing	5	6	[0, 0, 0]	n/a	catFR1	2	R1482J
717.727	11.872	870937	REC_WORD	11.872	n/a	PANTS	Clothing	-999	6	[0, 0, 0]	n/a	catFR1	2	R1482J
729.599	5.264	882808	REC_WORD	5.264	n/a	SCREWDRIVER	Tools	3	6	[0, 0, 0]	n/a	catFR1	2	R1482J
734.863	1.938	888070	REC_END	n/a	n/a	n/a	n/a	-999	6	[0, 0, 0]	n/a	catFR1	2	R1482J
736.801	10.347	890015	COUNTDOWN_START	n/a	n/a	n/a	n/a	-999	6	[0, 0, 0]	n/a	catFR1	2	R1482J
747.148	0.0	900358	COUNTDOWN_END	n/a	n/a	n/a	n/a	-999	6	[0, 0, 0]	n/a	catFR1	2	R1482J
747.148	2.153	900358	ENCODING_START	n/a	n/a	n/a	n/a	-999	7	[0, 0, 0]	n/a	catFR1	2	R1482J
749.301	1.6	902511	WORD	n/a	wordpools/wordpool_categorized_EN.txt	CAKE	Desserts	1	7	[0, 0, 0]	n/a	catFR1	2	R1482J
750.901	0.832	904111	WORD_OFF	n/a	n/a	CAKE	Desserts	1	7	[0, 0, 0]	n/a	catFR1	2	R1482J
751.733	1.601	904941	WORD	n/a	wordpools/wordpool_categorized_EN.txt	PASTRY	Desserts	2	7	[0, 0, 0]	n/a	catFR1	2	R1482J
753.334	0.949	906541	WORD_OFF	n/a	n/a	PASTRY	Desserts	2	7	[0, 0, 0]	n/a	catFR1	2	R1482J
754.283	1.618	907494	WORD	n/a	wordpools/wordpool_categorized_EN.txt	ORCHID	Flowers	3	7	[0, 0, 0]	n/a	catFR1	2	R1482J
755.901	0.866	909109	WORD_OFF	n/a	n/a	ORCHID	Flowers	3	7	[0, 0, 0]	n/a	catFR1	2	R1482J
756.767	1.617	909978	WORD	n/a	wordpools/wordpool_categorized_EN.txt	PETUNIA	Flowers	4	7	[0, 0, 0]	n/a	catFR1	2	R1482J
758.384	0.799	911593	WORD_OFF	n/a	n/a	PETUNIA	Flowers	4	7	[0, 0, 0]	n/a	catFR1	2	R1482J
759.183	1.616	912393	WORD	n/a	wordpools/wordpool_categorized_EN.txt	PEAR	Fruit	5	7	[0, 0, 0]	n/a	catFR1	2	R1482J
760.799	0.967	914008	WORD_OFF	n/a	n/a	PEAR	Fruit	5	7	[0, 0, 0]	n/a	catFR1	2	R1482J
761.766	1.601	914977	WORD	n/a	wordpools/wordpool_categorized_EN.txt	PLUM	Fruit	6	7	[0, 0, 0]	n/a	catFR1	2	R1482J
763.367	0.984	916576	WORD_OFF	n/a	n/a	PLUM	Fruit	6	7	[0, 0, 0]	n/a	catFR1	2	R1482J
764.351	1.615	917561	WORD	n/a	wordpools/wordpool_categorized_EN.txt	SUNFLOWER	Flowers	7	7	[0, 0, 0]	n/a	catFR1	2	R1482J
765.966	0.801	919175	WORD_OFF	n/a	n/a	SUNFLOWER	Flowers	7	7	[0, 0, 0]	n/a	catFR1	2	R1482J
766.767	1.6	919975	WORD	n/a	wordpools/wordpool_categorized_EN.txt	MARIGOLD	Flowers	8	7	[0, 0, 0]	n/a	catFR1	2	R1482J
768.367	0.966	921575	WORD_OFF	n/a	n/a	MARIGOLD	Flowers	8	7	[0, 0, 0]	n/a	catFR1	2	R1482J
769.333	1.6	922544	WORD	n/a	wordpools/wordpool_categorized_EN.txt	MOUSSE	Desserts	9	7	[0, 0, 0]	n/a	catFR1	2	R1482J
770.933	0.801	924143	WORD_OFF	n/a	n/a	MOUSSE	Desserts	9	7	[0, 0, 0]	n/a	catFR1	2	R1482J
771.734	1.616	924943	WORD	n/a	wordpools/wordpool_categorized_EN.txt	JELLO	Desserts	10	7	[0, 0, 0]	n/a	catFR1	2	R1482J
773.35	0.801	926558	WORD_OFF	n/a	n/a	JELLO	Desserts	10	7	[0, 0, 0]	n/a	catFR1	2	R1482J
774.151	1.6	927358	WORD	n/a	wordpools/wordpool_categorized_EN.txt	PEACH	Fruit	11	7	[0, 0, 0]	n/a	catFR1	2	R1482J
775.751	0.8	928957	WORD_OFF	n/a	n/a	PEACH	Fruit	11	7	[0, 0, 0]	n/a	catFR1	2	R1482J
776.551	1.616	929757	WORD	n/a	wordpools/wordpool_categorized_EN.txt	BANANA	Fruit	12	7	[0, 0, 0]	n/a	catFR1	2	R1482J
778.167	0.002	931374	PROB	0.002	n/a	n/a	n/a	-999	7	[6, 1, 6]	13	catFR1	2	R1482J
778.169	0.0	931376	START	n/a	n/a	n/a	n/a	-999	7	[-999, -999, -999]	n/a	catFR1	2	R1482J
778.167	0.002	931379	WORD_OFF	n/a	n/a	BANANA	Fruit	12	7	[0, 0, 0]	n/a	catFR1	2	R1482J
778.169	0.0	931379	ENCODING_END	n/a	n/a	n/a	n/a	-999	7	[0, 0, 0]	n/a	catFR1	2	R1482J
778.169	4.282	931379	DISTRACT_START	n/a	n/a	n/a	n/a	-999	7	[0, 0, 0]	n/a	catFR1	2	R1482J
782.451	3.532	935658	PROB	3.532	n/a	n/a	n/a	-999	7	[8, 1, 1]	10	catFR1	2	R1482J
785.983	4.751	939190	PROB	4.751	n/a	n/a	n/a	-999	7	[3, 4, 1]	8	catFR1	2	R1482J
790.734	6.599	943941	PROB	6.599	n/a	n/a	n/a	-999	7	[8, 2, 5]	15	catFR1	2	R1482J
797.333	6.717	950539	PROB	6.717	n/a	n/a	n/a	-999	7	[4, 8, 8]	20	catFR1	2	R1482J
804.05	0.0	957256	DISTRACT_END	n/a	n/a	n/a	n/a	-999	7	[0, 0, 0]	n/a	catFR1	2	R1482J
804.05	1.315	957256	STOP	n/a	n/a	n/a	n/a	-999	7	[-999, -999, -999]	n/a	catFR1	2	R1482J
805.365	2.113	958571	REC_START	n/a	n/a	n/a	n/a	-999	7	[0, 0, 0]	n/a	catFR1	2	R1482J
807.478	6.771	960684	REC_WORD	6.771	n/a	MARIGOLD	Flowers	8	7	[0, 0, 0]	n/a	catFR1	2	R1482J
814.249	0.737	967455	REC_WORD	0.737	n/a	PEACH	Fruit	11	7	[0, 0, 0]	n/a	catFR1	2	R1482J
814.986	21.585	968192	REC_WORD	21.585	n/a	JELLY	n/a	-999	7	[0, 0, 0]	n/a	catFR1	2	R1482J
836.571	3.129	989777	REC_END	n/a	n/a	n/a	n/a	-999	7	[0, 0, 0]	n/a	catFR1	2	R1482J
839.7	10.35	992906	COUNTDOWN_START	n/a	n/a	n/a	n/a	-999	7	[0, 0, 0]	n/a	catFR1	2	R1482J
850.05	0.0	1003257	COUNTDOWN_END	n/a	n/a	n/a	n/a	-999	7	[0, 0, 0]	n/a	catFR1	2	R1482J
850.05	2.067	1003257	ENCODING_START	n/a	n/a	n/a	n/a	-999	8	[0, 0, 0]	n/a	catFR1	2	R1482J
852.117	1.6	1005326	WORD	n/a	wordpools/wordpool_categorized_EN.txt	COLANDER	KitchenTools	1	8	[0, 0, 0]	n/a	catFR1	2	R1482J
853.717	0.833	1006925	WORD_OFF	n/a	n/a	COLANDER	KitchenTools	1	8	[0, 0, 0]	n/a	catFR1	2	R1482J
854.55	1.6	1007756	WORD	n/a	wordpools/wordpool_categorized_EN.txt	CORKSCREW	KitchenTools	2	8	[0, 0, 0]	n/a	catFR1	2	R1482J
856.15	0.916	1009355	WORD_OFF	n/a	n/a	CORKSCREW	KitchenTools	2	8	[0, 0, 0]	n/a	catFR1	2	R1482J
857.066	1.601	1010270	WORD	n/a	wordpools/wordpool_categorized_EN.txt	ATTIC	Building	3	8	[0, 0, 0]	n/a	catFR1	2	R1482J
858.667	0.834	1011870	WORD_OFF	n/a	n/a	ATTIC	Building	3	8	[0, 0, 0]	n/a	catFR1	2	R1482J
859.501	1.616	1012708	WORD	n/a	wordpools/wordpool_categorized_EN.txt	FLOOR	Building	4	8	[0, 0, 0]	n/a	catFR1	2	R1482J
861.117	0.983	1014323	WORD_OFF	n/a	n/a	FLOOR	Building	4	8	[0, 0, 0]	n/a	catFR1	2	R1482J
862.1	1.601	1015307	WORD	n/a	wordpools/wordpool_categorized_EN.txt	BULL	FarmAnimals	5	8	[0, 0, 0]	n/a	catFR1	2	R1482J
863.701	0.85	1016907	WORD_OFF	n/a	n/a	BULL	FarmAnimals	5	8	[0, 0, 0]	n/a	catFR1	2	R1482J
864.551	1.6	1017753	WORD	n/a	wordpools/wordpool_categorized_EN.txt	PIG	FarmAnimals	6	8	[0, 0, 0]	n/a	catFR1	2	R1482J
866.151	0.783	1019352	WORD_OFF	n/a	n/a	PIG	FarmAnimals	6	8	[0, 0, 0]	n/a	catFR1	2	R1482J
866.934	1.616	1020136	WORD	n/a	wordpools/wordpool_categorized_EN.txt	PEELER	KitchenTools	7	8	[0, 0, 0]	n/a	catFR1	2	R1482J
868.55	0.984	1021751	WORD_OFF	n/a	n/a	PEELER	KitchenTools	7	8	[0, 0, 0]	n/a	catFR1	2	R1482J
869.534	1.6	1022736	WORD	n/a	wordpools/wordpool_categorized_EN.txt	FORK	KitchenTools	8	8	[0, 0, 0]	n/a	catFR1	2	R1482J
871.134	0.884	1024335	WORD_OFF	n/a	n/a	FORK	KitchenTools	8	8	[0, 0, 0]	n/a	catFR1	2	R1482J
872.018	1.599	1025219	WORD	n/a	wordpools/wordpool_categorized_EN.txt	ROOSTER	FarmAnimals	9	8	[0, 0, 0]	n/a	catFR1	2	R1482J
873.617	0.933	1026819	WORD_OFF	n/a	n/a	ROOSTER	FarmAnimals	9	8	[0, 0, 0]	n/a	catFR1	2	R1482J
874.55	1.601	1027757	WORD	n/a	wordpools/wordpool_categorized_EN.txt	CHICKEN	FarmAnimals	10	8	[0, 0, 0]	n/a	catFR1	2	R1482J
876.151	1.0	1029357	WORD_OFF	n/a	n/a	CHICKEN	FarmAnimals	10	8	[0, 0, 0]	n/a	catFR1	2	R1482J
877.151	1.616	1030356	WORD	n/a	wordpools/wordpool_categorized_EN.txt	FOUNDATION	Building	11	8	[0, 0, 0]	n/a	catFR1	2	R1482J
878.767	0.8	1031971	WORD_OFF	n/a	n/a	FOUNDATION	Building	11	8	[0, 0, 0]	n/a	catFR1	2	R1482J
879.567	1.6	1032771	WORD	n/a	wordpools/wordpool_categorized_EN.txt	BATHROOM	Building	12	8	[0, 0, 0]	n/a	catFR1	2	R1482J
881.167	0.001	1034370	WORD_OFF	n/a	n/a	BATHROOM	Building	12	8	[0, 0, 0]	n/a	catFR1	2	R1482J
881.168	0.001	1034371	PROB	0.001	n/a	n/a	n/a	-999	8	[3, 8, 7]	18	catFR1	2	R1482J
881.169	0.0	1034372	START	n/a	n/a	n/a	n/a	-999	8	[-999, -999, -999]	n/a	catFR1	2	R1482J
881.169	0.0	1034378	ENCODING_END	n/a	n/a	n/a	n/a	-999	8	[0, 0, 0]	n/a	catFR1	2	R1482J
881.169	10.448	1034378	DISTRACT_START	n/a	n/a	n/a	n/a	-999	8	[0, 0, 0]	n/a	catFR1	2	R1482J
891.617	6.15	1044819	PROB	6.15	n/a	n/a	n/a	-999	8	[5, 7, 2]	14	catFR1	2	R1482J
897.767	4.049	1050969	PROB	4.049	n/a	n/a	n/a	-999	8	[7, 1, 2]	10	catFR1	2	R1482J
901.816	0.0	1055018	DISTRACT_END	n/a	n/a	n/a	n/a	-999	8	[0, 0, 0]	n/a	catFR1	2	R1482J
901.816	1.132	1055018	STOP	n/a	n/a	n/a	n/a	-999	8	[-999, -999, -999]	n/a	catFR1	2	R1482J
902.948	1.698	1056148	REC_START	n/a	n/a	n/a	n/a	-999	8	[0, 0, 0]	n/a	catFR1	2	R1482J
904.646	0.724	1057848	REC_WORD	0.724	n/a	CHICKEN	FarmAnimals	10	8	[0, 0, 0]	n/a	catFR1	2	R1482J
905.37	0.697	1058572	REC_WORD	0.697	n/a	ROOSTER	FarmAnimals	9	8	[0, 0, 0]	n/a	catFR1	2	R1482J
906.067	1.828	1059269	REC_WORD	1.828	n/a	ROOSTER	FarmAnimals	9	8	[0, 0, 0]	n/a	catFR1	2	R1482J
907.895	1.182	1061097	REC_WORD	1.182	n/a	FOUNDATION	Building	11	8	[0, 0, 0]	n/a	catFR1	2	R1482J
909.077	25.095	1062279	REC_WORD	25.095	n/a	BATHROOM	Building	12	8	[0, 0, 0]	n/a	catFR1	2	R1482J
934.172	4.995	1087377	REC_END	n/a	n/a	n/a	n/a	-999	8	[0, 0, 0]	n/a	catFR1	2	R1482J
939.167	10.35	1092368	COUNTDOWN_START	n/a	n/a	n/a	n/a	-999	8	[0, 0, 0]	n/a	catFR1	2	R1482J
949.517	0.0	1102718	COUNTDOWN_END	n/a	n/a	n/a	n/a	-999	8	[0, 0, 0]	n/a	catFR1	2	R1482J
949.517	2.217	1102718	ENCODING_START	n/a	n/a	n/a	n/a	-999	9	[0, 0, 0]	n/a	catFR1	2	R1482J
951.734	1.6	1104933	WORD	n/a	wordpools/wordpool_categorized_EN.txt	SPOON	KitchenTools	1	9	[0, 0, 0]	n/a	catFR1	2	R1482J
953.334	0.885	1106533	WORD_OFF	n/a	n/a	SPOON	KitchenTools	1	9	[0, 0, 0]	n/a	catFR1	2	R1482J
954.219	1.598	1107417	WORD	n/a	wordpools/wordpool_categorized_EN.txt	KNIFE	KitchenTools	2	9	[0, 0, 0]	n/a	catFR1	2	R1482J
955.817	0.9	1109016	WORD_OFF	n/a	n/a	KNIFE	KitchenTools	2	9	[0, 0, 0]	n/a	catFR1	2	R1482J
956.717	1.6	1109916	WORD	n/a	wordpools/wordpool_categorized_EN.txt	FINCH	Birds	3	9	[0, 0, 0]	n/a	catFR1	2	R1482J
958.317	0.8	1111516	WORD_OFF	n/a	n/a	FINCH	Birds	3	9	[0, 0, 0]	n/a	catFR1	2	R1482J
959.117	1.6	1112315	WORD	n/a	wordpools/wordpool_categorized_EN.txt	BLUEBIRD	Birds	4	9	[0, 0, 0]	n/a	catFR1	2	R1482J
960.717	0.934	1113915	WORD_OFF	n/a	n/a	BLUEBIRD	Birds	4	9	[0, 0, 0]	n/a	catFR1	2	R1482J
961.651	1.6	1114853	WORD	n/a	wordpools/wordpool_categorized_EN.txt	DOOR	Building	5	9	[0, 0, 0]	n/a	catFR1	2	R1482J
963.251	0.967	1116453	WORD_OFF	n/a	n/a	DOOR	Building	5	9	[0, 0, 0]	n/a	catFR1	2	R1482J
964.218	1.616	1117422	WORD	n/a	wordpools/wordpool_categorized_EN.txt	WALL	Building	6	9	[0, 0, 0]	n/a	catFR1	2	R1482J
965.834	0.917	1119036	WORD_OFF	n/a	n/a	WALL	Building	6	9	[0, 0, 0]	n/a	catFR1	2	R1482J
966.751	1.6	1119952	WORD	n/a	wordpools/wordpool_categorized_EN.txt	GRATER	KitchenTools	7	9	[0, 0, 0]	n/a	catFR1	2	R1482J
968.351	0.832	1121551	WORD_OFF	n/a	n/a	GRATER	KitchenTools	7	9	[0, 0, 0]	n/a	catFR1	2	R1482J
969.183	1.601	1122382	WORD	n/a	wordpools/wordpool_categorized_EN.txt	SPATULA	KitchenTools	8	9	[0, 0, 0]	n/a	catFR1	2	R1482J
970.784	0.983	1123989	WORD_OFF	n/a	n/a	SPATULA	KitchenTools	8	9	[0, 0, 0]	n/a	catFR1	2	R1482J
971.767	1.617	1124965	WORD	n/a	wordpools/wordpool_categorized_EN.txt	SEAGULL	Birds	9	9	[0, 0, 0]	n/a	catFR1	2	R1482J
973.384	0.767	1126588	WORD_OFF	n/a	n/a	SEAGULL	Birds	9	9	[0, 0, 0]	n/a	catFR1	2	R1482J
974.151	1.599	1127349	WORD	n/a	wordpools/wordpool_categorized_EN.txt	DUCK	Birds	10	9	[0, 0, 0]	n/a	catFR1	2	R1482J
975.75	0.801	1128949	WORD_OFF	n/a	n/a	DUCK	Birds	10	9	[0, 0, 0]	n/a	catFR1	2	R1482J
976.551	1.616	1129749	WORD	n/a	wordpools/wordpool_categorized_EN.txt	CEILING	Building	11	9	[0, 0, 0]	n/a	catFR1	2	R1482J
978.167	0.8	1131371	WORD_OFF	n/a	n/a	CEILING	Building	11	9	[0, 0, 0]	n/a	catFR1	2	R1482J
978.967	1.617	1132163	WORD	n/a	wordpools/wordpool_categorized_EN.txt	STAIRS	Building	12	9	[0, 0, 0]	n/a	catFR1	2	R1482J
980.584	0.001	1133783	PROB	0.001	n/a	n/a	n/a	-999	9	[1, 8, 3]	12	catFR1	2	R1482J
980.585	0.0	1133784	START	n/a	n/a	n/a	n/a	-999	9	[-999, -999, -999]	n/a	catFR1	2	R1482J
980.584	0.001	1133786	WORD_OFF	n/a	n/a	STAIRS	Building	12	9	[0, 0, 0]	n/a	catFR1	2	R1482J
980.585	0.0	1133786	ENCODING_END	n/a	n/a	n/a	n/a	-999	9	[0, 0, 0]	n/a	catFR1	2	R1482J
980.585	8.498	1133786	DISTRACT_START	n/a	n/a	n/a	n/a	-999	9	[0, 0, 0]	n/a	catFR1	2	R1482J
989.083	4.85	1142281	PROB	4.85	n/a	n/a	n/a	-999	9	[3, 6, 6]	15	catFR1	2	R1482J
993.933	4.333	1147131	PROB	4.333	n/a	n/a	n/a	-999	9	[7, 1, 2]	10	catFR1	2	R1482J
998.266	5.149	1151464	PROB	5.149	n/a	n/a	n/a	-999	9	[6, 2, 7]	15	catFR1	2	R1482J
1003.415	0.0	1156613	STOP	n/a	n/a	n/a	n/a	-999	9	[-999, -999, -999]	n/a	catFR1	2	R1482J
1003.415	1.251	1156617	DISTRACT_END	n/a	n/a	n/a	n/a	-999	9	[0, 0, 0]	n/a	catFR1	2	R1482J
1004.666	2.885	1157863	REC_START	n/a	n/a	n/a	n/a	-999	9	[0, 0, 0]	n/a	catFR1	2	R1482J
1007.551	0.951	1160749	REC_WORD	0.951	n/a	SEAGULL	Birds	9	9	[0, 0, 0]	n/a	catFR1	2	R1482J
1008.502	0.534	1161700	REC_WORD	0.534	n/a	DUCK	Birds	10	9	[0, 0, 0]	n/a	catFR1	2	R1482J
1009.036	1.255	1162234	REC_WORD	1.255	n/a	CEILING	Building	11	9	[0, 0, 0]	n/a	catFR1	2	R1482J
1010.291	25.597	1163488	REC_WORD	25.597	n/a	STAIRS	Building	12	9	[0, 0, 0]	n/a	catFR1	2	R1482J
1035.888	1.812	1189084	REC_END	n/a	n/a	n/a	n/a	-999	9	[0, 0, 0]	n/a	catFR1	2	R1482J
1037.7	10.351	1190899	COUNTDOWN_START	n/a	n/a	n/a	n/a	-999	9	[0, 0, 0]	n/a	catFR1	2	R1482J
1048.051	0.0	1201249	COUNTDOWN_END	n/a	n/a	n/a	n/a	-999	9	[0, 0, 0]	n/a	catFR1	2	R1482J
1048.051	2.216	1201249	ENCODING_START	n/a	n/a	n/a	n/a	-999	10	[0, 0, 0]	n/a	catFR1	2	R1482J
1050.267	1.6	1203464	WORD	n/a	wordpools/wordpool_categorized_EN.txt	TONGS	KitchenTools	1	10	[0, 0, 0]	n/a	catFR1	2	R1482J
1051.867	0.767	1205064	WORD_OFF	n/a	n/a	TONGS	KitchenTools	1	10	[0, 0, 0]	n/a	catFR1	2	R1482J
1052.634	1.6	1205833	WORD	n/a	wordpools/wordpool_categorized_EN.txt	LADLE	KitchenTools	2	10	[0, 0, 0]	n/a	catFR1	2	R1482J
1054.234	0.766	1207432	WORD_OFF	n/a	n/a	LADLE	KitchenTools	2	10	[0, 0, 0]	n/a	catFR1	2	R1482J
1055.0	1.6	1208201	WORD	n/a	wordpools/wordpool_categorized_EN.txt	LEVEL	Tools	3	10	[0, 0, 0]	n/a	catFR1	2	R1482J
1056.6	0.967	1209801	WORD_OFF	n/a	n/a	LEVEL	Tools	3	10	[0, 0, 0]	n/a	catFR1	2	R1482J
1057.567	1.617	1210762	WORD	n/a	wordpools/wordpool_categorized_EN.txt	RATCHET	Tools	4	10	[0, 0, 0]	n/a	catFR1	2	R1482J
1059.184	0.85	1212384	WORD_OFF	n/a	n/a	RATCHET	Tools	4	10	[0, 0, 0]	n/a	catFR1	2	R1482J
1060.034	1.6	1213230	WORD	n/a	wordpools/wordpool_categorized_EN.txt	GOOSE	Birds	5	10	[0, 0, 0]	n/a	catFR1	2	R1482J
1061.634	0.967	1214830	WORD_OFF	n/a	n/a	GOOSE	Birds	5	10	[0, 0, 0]	n/a	catFR1	2	R1482J
1062.601	1.616	1215799	WORD	n/a	wordpools/wordpool_categorized_EN.txt	PIGEON	Birds	6	10	[0, 0, 0]	n/a	catFR1	2	R1482J
1064.217	0.884	1217414	WORD_OFF	n/a	n/a	PIGEON	Birds	6	10	[0, 0, 0]	n/a	catFR1	2	R1482J
1065.101	1.6	1218298	WORD	n/a	wordpools/wordpool_categorized_EN.txt	WHISK	KitchenTools	7	10	[0, 0, 0]	n/a	catFR1	2	R1482J
1066.701	0.883	1219897	WORD_OFF	n/a	n/a	WHISK	KitchenTools	7	10	[0, 0, 0]	n/a	catFR1	2	R1482J
1067.584	1.615	1220782	WORD	n/a	wordpools/wordpool_categorized_EN.txt	STRAINER	KitchenTools	8	10	[0, 0, 0]	n/a	catFR1	2	R1482J
1069.199	0.784	1222397	WORD_OFF	n/a	n/a	STRAINER	KitchenTools	8	10	[0, 0, 0]	n/a	catFR1	2	R1482J
1069.983	1.601	1223181	WORD	n/a	wordpools/wordpool_categorized_EN.txt	CROW	Birds	9	10	[0, 0, 0]	n/a	catFR1	2	R1482J
1071.584	0.85	1224781	WORD_OFF	n/a	n/a	CROW	Birds	9	10	[0, 0, 0]	n/a	catFR1	2	R1482J
1072.434	1.616	1225626	WORD	n/a	wordpools/wordpool_categorized_EN.txt	DOVE	Birds	10	10	[0, 0, 0]	n/a	catFR1	2	R1482J
1074.05	1.001	1227249	WORD_OFF	n/a	n/a	DOVE	Birds	10	10	[0, 0, 0]	n/a	catFR1	2	R1482J
1075.051	1.616	1228249	WORD	n/a	wordpools/wordpool_categorized_EN.txt	HAMMER	Tools	11	10	[0, 0, 0]	n/a	catFR1	2	R1482J
1076.667	0.783	1229864	WORD_OFF	n/a	n/a	HAMMER	Tools	11	10	[0, 0, 0]	n/a	catFR1	2	R1482J
1077.45	1.601	1230648	WORD	n/a	wordpools/wordpool_categorized_EN.txt	WRENCH	Tools	12	10	[0, 0, 0]	n/a	catFR1	2	R1482J
1079.051	0.0	1232246	PROB	0.0	n/a	n/a	n/a	-999	10	[4, 4, 6]	14	catFR1	2	R1482J
1079.05	0.003	1232247	WORD_OFF	n/a	n/a	WRENCH	Tools	12	10	[0, 0, 0]	n/a	catFR1	2	R1482J
1079.053	0.0	1232247	ENCODING_END	n/a	n/a	n/a	n/a	-999	10	[0, 0, 0]	n/a	catFR1	2	R1482J
1079.053	0.0	1232248	START	n/a	n/a	n/a	n/a	-999	10	[-999, -999, -999]	n/a	catFR1	2	R1482J
1079.053	11.647	1232255	DISTRACT_START	n/a	n/a	n/a	n/a	-999	10	[0, 0, 0]	n/a	catFR1	2	R1482J
1090.7	10.266	1243894	PROB	10.266	n/a	n/a	n/a	-999	10	[4, 5, 3]	12	catFR1	2	R1482J
1100.966	0.0	1254160	STOP	n/a	n/a	n/a	n/a	-999	10	[-999, -999, -999]	n/a	catFR1	2	R1482J
1100.966	1.183	1254164	DISTRACT_END	n/a	n/a	n/a	n/a	-999	10	[0, 0, 0]	n/a	catFR1	2	R1482J
1102.149	2.525	1255340	REC_START	n/a	n/a	n/a	n/a	-999	10	[0, 0, 0]	n/a	catFR1	2	R1482J
1104.674	0.71	1257868	REC_WORD	0.71	n/a	TONGS	KitchenTools	1	10	[0, 0, 0]	n/a	catFR1	2	R1482J
1105.384	1.052	1258578	REC_WORD	1.052	n/a	PIGEON	Birds	6	10	[0, 0, 0]	n/a	catFR1	2	R1482J
1106.436	26.962	1259629	REC_WORD	26.962	n/a	ROOF	n/a	-999	10	[0, 0, 0]	n/a	catFR1	2	R1482J
1133.398	1.753	1286592	REC_END	n/a	n/a	n/a	n/a	-999	10	[0, 0, 0]	n/a	catFR1	2	R1482J
1135.151	10.349	1288345	COUNTDOWN_START	n/a	n/a	n/a	n/a	-999	10	[0, 0, 0]	n/a	catFR1	2	R1482J
1145.5	0.0	1298696	COUNTDOWN_END	n/a	n/a	n/a	n/a	-999	10	[0, 0, 0]	n/a	catFR1	2	R1482J
1145.5	2.334	1298696	ENCODING_START	n/a	n/a	n/a	n/a	-999	11	[0, 0, 0]	n/a	catFR1	2	R1482J
1147.834	1.6	1301026	WORD	n/a	wordpools/wordpool_categorized_EN.txt	GOAT	FarmAnimals	1	11	[0, 0, 0]	n/a	catFR1	2	R1482J
1149.434	0.983	1302626	WORD_OFF	n/a	n/a	GOAT	FarmAnimals	1	11	[0, 0, 0]	n/a	catFR1	2	R1482J
1150.417	1.6	1303610	WORD	n/a	wordpools/wordpool_categorized_EN.txt	LAMB	FarmAnimals	2	11	[0, 0, 0]	n/a	catFR1	2	R1482J
1152.017	0.967	1305209	WORD_OFF	n/a	n/a	LAMB	FarmAnimals	2	11	[0, 0, 0]	n/a	catFR1	2	R1482J
1152.984	1.616	1306178	WORD	n/a	wordpools/wordpool_categorized_EN.txt	PINE	Trees	3	11	[0, 0, 0]	n/a	catFR1	2	R1482J
1154.6	0.984	1307793	WORD_OFF	n/a	n/a	PINE	Trees	3	11	[0, 0, 0]	n/a	catFR1	2	R1482J
1155.584	1.615	1308778	WORD	n/a	wordpools/wordpool_categorized_EN.txt	HICKORY	Trees	4	11	[0, 0, 0]	n/a	catFR1	2	R1482J
1157.199	0.952	1310392	WORD_OFF	n/a	n/a	HICKORY	Trees	4	11	[0, 0, 0]	n/a	catFR1	2	R1482J
1158.151	1.616	1311346	WORD	n/a	wordpools/wordpool_categorized_EN.txt	VIOLET	Flowers	5	11	[0, 0, 0]	n/a	catFR1	2	R1482J
1159.767	0.784	1312961	WORD_OFF	n/a	n/a	VIOLET	Flowers	5	11	[0, 0, 0]	n/a	catFR1	2	R1482J
1160.551	1.615	1313745	WORD	n/a	wordpools/wordpool_categorized_EN.txt	ROSE	Flowers	6	11	[0, 0, 0]	n/a	catFR1	2	R1482J
1162.166	0.868	1315360	WORD_OFF	n/a	n/a	ROSE	Flowers	6	11	[0, 0, 0]	n/a	catFR1	2	R1482J
1163.034	1.6	1316229	WORD	n/a	wordpools/wordpool_categorized_EN.txt	BIRCH	Trees	7	11	[0, 0, 0]	n/a	catFR1	2	R1482J
1164.634	0.998	1317829	WORD_OFF	n/a	n/a	BIRCH	Trees	7	11	[0, 0, 0]	n/a	catFR1	2	R1482J
1165.632	1.602	1318828	WORD	n/a	wordpools/wordpool_categorized_EN.txt	SPRUCE	Trees	8	11	[0, 0, 0]	n/a	catFR1	2	R1482J
1167.234	0.85	1320428	WORD_OFF	n/a	n/a	SPRUCE	Trees	8	11	[0, 0, 0]	n/a	catFR1	2	R1482J
1168.084	1.6	1321274	WORD	n/a	wordpools/wordpool_categorized_EN.txt	LILAC	Flowers	9	11	[0, 0, 0]	n/a	catFR1	2	R1482J
1169.684	0.899	1322873	WORD_OFF	n/a	n/a	LILAC	Flowers	9	11	[0, 0, 0]	n/a	catFR1	2	R1482J
1170.583	1.601	1323773	WORD	n/a	wordpools/wordpool_categorized_EN.txt	TULIP	Flowers	10	11	[0, 0, 0]	n/a	catFR1	2	R1482J
1172.184	0.765	1325372	WORD_OFF	n/a	n/a	TULIP	Flowers	10	11	[0, 0, 0]	n/a	catFR1	2	R1482J
1172.949	1.602	1326141	WORD	n/a	wordpools/wordpool_categorized_EN.txt	TURKEY	FarmAnimals	11	11	[0, 0, 0]	n/a	catFR1	2	R1482J
1174.551	0.799	1327741	WORD_OFF	n/a	n/a	TURKEY	FarmAnimals	11	11	[0, 0, 0]	n/a	catFR1	2	R1482J
1175.35	1.617	1328541	WORD	n/a	wordpools/wordpool_categorized_EN.txt	CALF	FarmAnimals	12	11	[0, 0, 0]	n/a	catFR1	2	R1482J
1176.967	0.0	1330155	WORD_OFF	n/a	n/a	CALF	FarmAnimals	12	11	[0, 0, 0]	n/a	catFR1	2	R1482J
1176.967	0.001	1330158	PROB	0.001	n/a	n/a	n/a	-999	11	[4, 3, 7]	14	catFR1	2	R1482J
1176.968	0.0	1330159	START	n/a	n/a	n/a	n/a	-999	11	[-999, -999, -999]	n/a	catFR1	2	R1482J
1176.968	0.0	1330163	ENCODING_END	n/a	n/a	n/a	n/a	-999	11	[0, 0, 0]	n/a	catFR1	2	R1482J
1176.968	5.282	1330163	DISTRACT_START	n/a	n/a	n/a	n/a	-999	11	[0, 0, 0]	n/a	catFR1	2	R1482J
1182.25	5.884	1335440	PROB	5.884	n/a	n/a	n/a	-999	11	[6, 3, 8]	17	catFR1	2	R1482J
1188.134	7.55	1341324	PROB	7.55	n/a	n/a	n/a	-999	11	[3, 4, 1]	8	catFR1	2	R1482J
1195.684	8.298	1348874	PROB	8.298	n/a	n/a	n/a	-999	11	[6, 3, 5]	14	catFR1	2	R1482J
1203.982	0.0	1357170	DISTRACT_END	n/a	n/a	n/a	n/a	-999	11	[0, 0, 0]	n/a	catFR1	2	R1482J
1203.982	1.351	1357171	STOP	n/a	n/a	n/a	n/a	-999	11	[-999, -999, -999]	n/a	catFR1	2	R1482J
1205.333	1.345	1358524	REC_START	n/a	n/a	n/a	n/a	-999	11	[0, 0, 0]	n/a	catFR1	2	R1482J
1206.678	0.875	1359867	REC_WORD	0.875	n/a	TULIP	Flowers	10	11	[0, 0, 0]	n/a	catFR1	2	R1482J
1207.553	1.206	1360742	REC_WORD	1.206	n/a	TURKEY	FarmAnimals	11	11	[0, 0, 0]	n/a	catFR1	2	R1482J
1208.759	27.799	1361948	REC_WORD	27.799	n/a	CAFE	n/a	-999	11	[0, 0, 0]	n/a	catFR1	2	R1482J
1236.558	2.226	1389745	REC_END	n/a	n/a	n/a	n/a	-999	11	[0, 0, 0]	n/a	catFR1	2	R1482J
1238.784	10.349	1391975	COUNTDOWN_START	n/a	n/a	n/a	n/a	-999	11	[0, 0, 0]	n/a	catFR1	2	R1482J
1249.133	0.0	1402325	COUNTDOWN_END	n/a	n/a	n/a	n/a	-999	11	[0, 0, 0]	n/a	catFR1	2	R1482J
1249.133	2.001	1402325	ENCODING_START	n/a	n/a	n/a	n/a	-999	12	[0, 0, 0]	n/a	catFR1	2	R1482J
1251.134	1.616	1404325	WORD	n/a	wordpools/wordpool_categorized_EN.txt	GRAPE	Fruit	1	12	[0, 0, 0]	n/a	catFR1	2	R1482J
1252.75	0.917	1405940	WORD_OFF	n/a	n/a	GRAPE	Fruit	1	12	[0, 0, 0]	n/a	catFR1	2	R1482J
1253.667	1.617	1406855	WORD	n/a	wordpools/wordpool_categorized_EN.txt	ORANGE	Fruit	2	12	[0, 0, 0]	n/a	catFR1	2	R1482J
1255.284	0.815	1408477	WORD_OFF	n/a	n/a	ORANGE	Fruit	2	12	[0, 0, 0]	n/a	catFR1	2	R1482J
1256.099	1.602	1409285	WORD	n/a	wordpools/wordpool_categorized_EN.txt	ROBIN	Birds	3	12	[0, 0, 0]	n/a	catFR1	2	R1482J
1257.701	0.783	1410892	WORD_OFF	n/a	n/a	ROBIN	Birds	3	12	[0, 0, 0]	n/a	catFR1	2	R1482J
1258.484	1.6	1411676	WORD	n/a	wordpools/wordpool_categorized_EN.txt	CARDINAL	Birds	4	12	[0, 0, 0]	n/a	catFR1	2	R1482J
1260.084	0.833	1413276	WORD_OFF	n/a	n/a	CARDINAL	Birds	4	12	[0, 0, 0]	n/a	catFR1	2	R1482J
1260.917	1.6	1414106	WORD	n/a	wordpools/wordpool_categorized_EN.txt	DAFFODIL	Flowers	5	12	[0, 0, 0]	n/a	catFR1	2	R1482J
1262.517	0.9	1415706	WORD_OFF	n/a	n/a	DAFFODIL	Flowers	5	12	[0, 0, 0]	n/a	catFR1	2	R1482J
1263.417	1.616	1416606	WORD	n/a	wordpools/wordpool_categorized_EN.txt	LILY	Flowers	6	12	[0, 0, 0]	n/a	catFR1	2	R1482J
1265.033	0.801	1418220	WORD_OFF	n/a	n/a	LILY	Flowers	6	12	[0, 0, 0]	n/a	catFR1	2	R1482J
1265.834	1.616	1419020	WORD	n/a	wordpools/wordpool_categorized_EN.txt	BLUEBERRY	Fruit	7	12	[0, 0, 0]	n/a	catFR1	2	R1482J
1267.45	0.983	1420635	WORD_OFF	n/a	n/a	BLUEBERRY	Fruit	7	12	[0, 0, 0]	n/a	catFR1	2	R1482J
1268.433	1.617	1421619	WORD	n/a	wordpools/wordpool_categorized_EN.txt	CHERRY	Fruit	8	12	[0, 0, 0]	n/a	catFR1	2	R1482J
1270.05	0.85	1423234	WORD_OFF	n/a	n/a	CHERRY	Fruit	8	12	[0, 0, 0]	n/a	catFR1	2	R1482J
1270.9	1.6	1424088	WORD	n/a	wordpools/wordpool_categorized_EN.txt	HAWK	Birds	9	12	[0, 0, 0]	n/a	catFR1	2	R1482J
1272.5	1.0	1425687	WORD_OFF	n/a	n/a	HAWK	Birds	9	12	[0, 0, 0]	n/a	catFR1	2	R1482J
1273.5	1.617	1426687	WORD	n/a	wordpools/wordpool_categorized_EN.txt	SPARROW	Birds	10	12	[0, 0, 0]	n/a	catFR1	2	R1482J
1275.117	0.799	1428302	WORD_OFF	n/a	n/a	SPARROW	Birds	10	12	[0, 0, 0]	n/a	catFR1	2	R1482J
1275.916	1.601	1429102	WORD	n/a	wordpools/wordpool_categorized_EN.txt	CARNATION	Flowers	11	12	[0, 0, 0]	n/a	catFR1	2	R1482J
1277.517	0.85	1430701	WORD_OFF	n/a	n/a	CARNATION	Flowers	11	12	[0, 0, 0]	n/a	catFR1	2	R1482J
1278.367	1.616	1431555	WORD	n/a	wordpools/wordpool_categorized_EN.txt	DAISY	Flowers	12	12	[0, 0, 0]	n/a	catFR1	2	R1482J
1279.983	0.0	1433169	PROB	0.0	n/a	n/a	n/a	-999	12	[6, 6, 1]	13	catFR1	2	R1482J
1279.983	0.001	1433170	WORD_OFF	n/a	n/a	DAISY	Flowers	12	12	[0, 0, 0]	n/a	catFR1	2	R1482J
1279.984	0.0	1433170	ENCODING_END	n/a	n/a	n/a	n/a	-999	12	[0, 0, 0]	n/a	catFR1	2	R1482J
1279.984	0.0	1433170	START	n/a	n/a	n/a	n/a	-999	12	[-999, -999, -999]	n/a	catFR1	2	R1482J
1279.984	8.683	1433177	DISTRACT_START	n/a	n/a	n/a	n/a	-999	12	[0, 0, 0]	n/a	catFR1	2	R1482J
1288.667	11.515	1441853	PROB	11.515	n/a	n/a	n/a	-999	12	[8, 6, 5]	19	catFR1	2	R1482J
1300.182	0.0	1453367	STOP	n/a	n/a	n/a	n/a	-999	12	[-999, -999, -999]	n/a	catFR1	2	R1482J
1300.182	1.251	1453371	DISTRACT_END	n/a	n/a	n/a	n/a	-999	12	[0, 0, 0]	n/a	catFR1	2	R1482J
1301.433	1.753	1454617	REC_START	n/a	n/a	n/a	n/a	-999	12	[0, 0, 0]	n/a	catFR1	2	R1482J
1303.186	0.572	1456371	REC_WORD	0.572	n/a	GRAPE	Fruit	1	12	[0, 0, 0]	n/a	catFR1	2	R1482J
1303.758	0.882	1456943	REC_WORD	0.882	n/a	ORANGE	Fruit	2	12	[0, 0, 0]	n/a	catFR1	2	R1482J
1304.64	0.916	1457825	REC_WORD	0.916	n/a	ROBIN	Birds	3	12	[0, 0, 0]	n/a	catFR1	2	R1482J
1305.556	3.929	1458741	REC_WORD	3.929	n/a	DAFFODIL	Flowers	5	12	[0, 0, 0]	n/a	catFR1	2	R1482J
1309.485	0.727	1462670	REC_WORD	0.727	n/a	SPIRIT	n/a	-999	12	[0, 0, 0]	n/a	catFR1	2	R1482J
1310.212	22.459	1463397	REC_WORD	22.459	n/a	SPARROW	Birds	10	12	[0, 0, 0]	n/a	catFR1	2	R1482J
1332.671	0.0	1485853	REC_END	n/a	n/a	n/a	n/a	-999	12	[0, 0, 0]	n/a	catFR1	2	R1482J
