onset	duration	sample	trial_type	response_time	stim_file	item_name	category	serialpos	list	test	answer	experiment	session	subject
0.0	16.935	707793	SESS_START	n/a	n/a	n/a	n/a	-999	-999	[0, 0, 0]	n/a	catFR1	1	R1102P
16.935	10.428	716260	COUNTDOWN_START	n/a	n/a	n/a	n/a	-999	-999	[0, 0, 0]	n/a	catFR1	1	R1102P
27.363	3.591	721474	COUNTDOWN_END	n/a	n/a	n/a	n/a	-999	-999	[0, 0, 0]	n/a	catFR1	1	R1102P
30.954	2.449	723269	PRACTICE_WORD	n/a	n/a	BEAM	n/a	-999	-999	[0, 0, 0]	n/a	catFR1	1	R1102P
33.403	2.518	724494	PRACTICE_WORD	n/a	n/a	WATCH	n/a	-999	-999	[0, 0, 0]	n/a	catFR1	1	R1102P
35.921	2.567	725752	PRACTICE_WORD	n/a	n/a	TONGUE	n/a	-999	-999	[0, 0, 0]	n/a	catFR1	1	R1102P
38.488	2.484	727036	PRACTICE_WORD	n/a	n/a	FLOOD	n/a	-999	-999	[0, 0, 0]	n/a	catFR1	1	R1102P
40.972	2.417	728278	PRACTICE_WORD	n/a	n/a	ATTIC	n/a	-999	-999	[0, 0, 0]	n/a	catFR1	1	R1102P
43.389	2.501	729486	PRACTICE_WORD	n/a	n/a	COTTON	n/a	-999	-999	[0, 0, 0]	n/a	catFR1	1	R1102P
45.89	2.4	730737	PRACTICE_WORD	n/a	n/a	IRON	n/a	-999	-999	[0, 0, 0]	n/a	catFR1	1	R1102P
48.29	2.584	731937	PRACTICE_WORD	n/a	n/a	CAMEL	n/a	-999	-999	[0, 0, 0]	n/a	catFR1	1	R1102P
50.874	2.434	733228	PRACTICE_WORD	n/a	n/a	RING	n/a	-999	-999	[0, 0, 0]	n/a	catFR1	1	R1102P
53.308	2.484	734445	PRACTICE_WORD	n/a	n/a	RHINO	n/a	-999	-999	[0, 0, 0]	n/a	catFR1	1	R1102P
55.792	2.582	735687	PRACTICE_WORD	n/a	n/a	WAGON	n/a	-999	-999	[0, 0, 0]	n/a	catFR1	1	R1102P
58.374	1.602	736978	PRACTICE_WORD	n/a	n/a	CHEST	n/a	-999	-999	[0, 0, 0]	n/a	catFR1	1	R1102P
59.976	0.0	737779	PRACTICE_DISTRACT_START	n/a	n/a	n/a	n/a	-999	-999	[0, 0, 0]	n/a	catFR1	1	R1102P
59.976	0.017	737779	START	n/a	n/a	n/a	n/a	-999	-1	[-999, -999, -999]	n/a	catFR1	1	R1102P
59.993	5.267	737788	PROB	5.246	n/a	n/a	n/a	-999	-1	[9, 4, 5]	18.0	catFR1	1	R1102P
65.26	5.167	740421	PROB	5.138	n/a	n/a	n/a	-999	-1	[9, 7, 1]	17.0	catFR1	1	R1102P
70.427	4.502	743004	PROB	4.476	n/a	n/a	n/a	-999	-1	[6, 5, 2]	13.0	catFR1	1	R1102P
74.929	5.638	745255	PROB	5.638	n/a	n/a	n/a	-999	-1	[5, 4, 7]	16.0	catFR1	1	R1102P
80.567	0.013	748074	STOP	n/a	n/a	n/a	n/a	-999	-1	[-999, -999, -999]	n/a	catFR1	1	R1102P
80.58	0.552	748080	PRACTICE_DISTRACT_END	n/a	n/a	n/a	n/a	-999	-999	[0, 0, 0]	n/a	catFR1	1	R1102P
81.132	30.515	748356	PRACTICE_REC_START	n/a	n/a	n/a	n/a	-999	-999	[0, 0, 0]	n/a	catFR1	1	R1102P
111.647	7.44	763613	PRACTICE_REC_END	n/a	n/a	n/a	n/a	-999	-999	[0, 0, 0]	n/a	catFR1	1	R1102P
119.087	0.001	767333	COUNTDOWN_START	n/a	n/a	n/a	n/a	-999	1	[0, 0, 0]	n/a	catFR1	1	R1102P
119.088	10.427	767333	TRIAL	n/a	n/a	n/a	n/a	-999	1	[0, 0, 0]	n/a	catFR1	1	R1102P
129.515	0.006	772546	COUNTDOWN_END	n/a	n/a	n/a	n/a	-999	1	[0, 0, 0]	n/a	catFR1	1	R1102P
129.521	3.868	772549	ORIENT	n/a	n/a	n/a	n/a	-999	1	[0, 0, 0]	n/a	catFR1	1	R1102P
133.389	2.451	774483	WORD	n/a	wordpools/wordpool_categorized_EN.txt	ROBIN	Birds	1	1	[0, 0, 0]	n/a	catFR1	1	R1102P
135.84	2.583	775709	WORD	n/a	wordpools/wordpool_categorized_EN.txt	CARDINAL	Birds	2	1	[0, 0, 0]	n/a	catFR1	1	R1102P
138.423	2.485	777000	WORD	n/a	wordpools/wordpool_categorized_EN.txt	ARM	BodyParts	3	1	[0, 0, 0]	n/a	catFR1	1	R1102P
140.908	2.434	778242	WORD	n/a	wordpools/wordpool_categorized_EN.txt	TOE	BodyParts	4	1	[0, 0, 0]	n/a	catFR1	1	R1102P
143.342	2.5	779459	WORD	n/a	wordpools/wordpool_categorized_EN.txt	BASS	Instruments	5	1	[0, 0, 0]	n/a	catFR1	1	R1102P
145.842	2.533	780709	WORD	n/a	wordpools/wordpool_categorized_EN.txt	FLUTE	Instruments	6	1	[0, 0, 0]	n/a	catFR1	1	R1102P
148.375	2.435	781976	WORD	n/a	wordpools/wordpool_categorized_EN.txt	BLUEBIRD	Birds	7	1	[0, 0, 0]	n/a	catFR1	1	R1102P
150.81	2.566	783193	WORD	n/a	wordpools/wordpool_categorized_EN.txt	DUCK	Birds	8	1	[0, 0, 0]	n/a	catFR1	1	R1102P
153.376	2.602	784476	WORD	n/a	wordpools/wordpool_categorized_EN.txt	TUBA	Instruments	9	1	[0, 0, 0]	n/a	catFR1	1	R1102P
155.978	2.549	785777	WORD	n/a	wordpools/wordpool_categorized_EN.txt	GUITAR	Instruments	10	1	[0, 0, 0]	n/a	catFR1	1	R1102P
158.527	2.401	787051	WORD	n/a	wordpools/wordpool_categorized_EN.txt	FINGERS	BodyParts	11	1	[0, 0, 0]	n/a	catFR1	1	R1102P
160.928	1.616	788252	WORD	n/a	wordpools/wordpool_categorized_EN.txt	NOSE	BodyParts	12	1	[0, 0, 0]	n/a	catFR1	1	R1102P
162.544	0.001	789060	DISTRACT_START	n/a	n/a	n/a	n/a	-999	1	[0, 0, 0]	n/a	catFR1	1	R1102P
162.545	0.017	789060	START	n/a	n/a	n/a	n/a	-999	1	[-999, -999, -999]	n/a	catFR1	1	R1102P
162.562	5.318	789069	PROB	5.285	n/a	n/a	n/a	-999	1	[8, 1, 9]	18.0	catFR1	1	R1102P
167.88	4.401	791728	PROB	4.367	n/a	n/a	n/a	-999	1	[9, 3, 2]	14.0	catFR1	1	R1102P
172.281	4.85	793928	PROB	4.822	n/a	n/a	n/a	-999	1	[3, 9, 5]	17.0	catFR1	1	R1102P
177.131	3.968	796353	PROB	3.938	n/a	n/a	n/a	-999	1	[2, 4, 3]	9.0	catFR1	1	R1102P
181.099	4.636	798337	PROB	4.636	n/a	n/a	n/a	-999	1	[9, 3, 1]	13.0	catFR1	1	R1102P
185.735	0.015	800654	STOP	n/a	n/a	n/a	n/a	-999	1	[-999, -999, -999]	n/a	catFR1	1	R1102P
185.75	1.134	800662	DISTRACT_END	n/a	n/a	n/a	n/a	-999	1	[0, 0, 0]	n/a	catFR1	1	R1102P
186.884	2.494	801229	REC_START	n/a	n/a	n/a	n/a	-999	1	[0, 0, 0]	n/a	catFR1	1	R1102P
189.378	0.66	802476	REC_WORD	2.494	n/a	ROBIN	Birds	1	1	[0, 0, 0]	n/a	catFR1	1	R1102P
190.038	1.536	802806	REC_WORD	3.154	n/a	CARDINAL	Birds	2	1	[0, 0, 0]	n/a	catFR1	1	R1102P
191.574	0.793	803574	REC_WORD	4.69	n/a	BLUEBIRD	Birds	7	1	[0, 0, 0]	n/a	catFR1	1	R1102P
192.367	24.529	803970	REC_WORD	5.483	n/a	DUCK	Birds	8	1	[0, 0, 0]	n/a	catFR1	1	R1102P
216.896	3.41	816234	REC_END	n/a	n/a	n/a	n/a	-999	1	[0, 0, 0]	n/a	catFR1	1	R1102P
220.306	0.001	817939	COUNTDOWN_START	n/a	n/a	n/a	n/a	-999	2	[0, 0, 0]	n/a	catFR1	1	R1102P
220.307	10.427	817939	TRIAL	n/a	n/a	n/a	n/a	-999	2	[0, 0, 0]	n/a	catFR1	1	R1102P
230.734	0.008	823152	COUNTDOWN_END	n/a	n/a	n/a	n/a	-999	2	[0, 0, 0]	n/a	catFR1	1	R1102P
230.742	3.567	823156	ORIENT	n/a	n/a	n/a	n/a	-999	2	[0, 0, 0]	n/a	catFR1	1	R1102P
234.309	2.517	824940	WORD	n/a	wordpools/wordpool_categorized_EN.txt	LAMB	FarmAnimals	1	2	[0, 0, 0]	n/a	catFR1	1	R1102P
236.826	2.566	826198	WORD	n/a	wordpools/wordpool_categorized_EN.txt	GOAT	FarmAnimals	2	2	[0, 0, 0]	n/a	catFR1	1	R1102P
239.392	2.568	827481	WORD	n/a	wordpools/wordpool_categorized_EN.txt	SPRUCE	Trees	3	2	[0, 0, 0]	n/a	catFR1	1	R1102P
241.96	2.5	828765	WORD	n/a	wordpools/wordpool_categorized_EN.txt	ELM	Trees	4	2	[0, 0, 0]	n/a	catFR1	1	R1102P
244.46	2.485	830015	WORD	n/a	wordpools/wordpool_categorized_EN.txt	SCANNER	Electronics	5	2	[0, 0, 0]	n/a	catFR1	1	R1102P
246.945	2.582	831257	WORD	n/a	wordpools/wordpool_categorized_EN.txt	MICROWAVE	Electronics	6	2	[0, 0, 0]	n/a	catFR1	1	R1102P
249.527	2.519	832548	WORD	n/a	wordpools/wordpool_categorized_EN.txt	CEDAR	Trees	7	2	[0, 0, 0]	n/a	catFR1	1	R1102P
252.046	2.416	833808	WORD	n/a	wordpools/wordpool_categorized_EN.txt	OAK	Trees	8	2	[0, 0, 0]	n/a	catFR1	1	R1102P
254.462	2.384	835016	WORD	n/a	wordpools/wordpool_categorized_EN.txt	SHEEP	FarmAnimals	9	2	[0, 0, 0]	n/a	catFR1	1	R1102P
256.846	2.384	836208	WORD	n/a	wordpools/wordpool_categorized_EN.txt	HORSE	FarmAnimals	10	2	[0, 0, 0]	n/a	catFR1	1	R1102P
259.23	2.601	837399	WORD	n/a	wordpools/wordpool_categorized_EN.txt	RADIO	Electronics	11	2	[0, 0, 0]	n/a	catFR1	1	R1102P
261.831	1.616	838700	WORD	n/a	wordpools/wordpool_categorized_EN.txt	PHONE	Electronics	12	2	[0, 0, 0]	n/a	catFR1	1	R1102P
263.447	0.001	839508	DISTRACT_START	n/a	n/a	n/a	n/a	-999	2	[0, 0, 0]	n/a	catFR1	1	R1102P
263.448	0.015	839508	START	n/a	n/a	n/a	n/a	-999	2	[-999, -999, -999]	n/a	catFR1	1	R1102P
263.463	7.035	839516	PROB	7.007	n/a	n/a	n/a	-999	2	[4, 4, 7]	15.0	catFR1	1	R1102P
270.498	2.785	843033	PROB	2.757	n/a	n/a	n/a	-999	2	[2, 8, 1]	11.0	catFR1	1	R1102P
273.283	4.634	844426	PROB	4.612	n/a	n/a	n/a	-999	2	[7, 1, 9]	17.0	catFR1	1	R1102P
277.917	3.483	846742	PROB	3.45	n/a	n/a	n/a	-999	2	[9, 3, 2]	14.0	catFR1	1	R1102P
281.4	4.311	848484	PROB	4.311	n/a	n/a	n/a	-999	2	[9, 8, 1]	18.0	catFR1	1	R1102P
285.711	0.008	850639	STOP	n/a	n/a	n/a	n/a	-999	2	[-999, -999, -999]	n/a	catFR1	1	R1102P
285.719	1.101	850643	DISTRACT_END	n/a	n/a	n/a	n/a	-999	2	[0, 0, 0]	n/a	catFR1	1	R1102P
286.82	3.853	851194	REC_START	n/a	n/a	n/a	n/a	-999	2	[0, 0, 0]	n/a	catFR1	1	R1102P
290.673	0.655	853120	REC_WORD	3.853	n/a	LAMB	FarmAnimals	1	2	[0, 0, 0]	n/a	catFR1	1	R1102P
291.328	2.256	853447	REC_WORD	4.508	n/a	GOAT	FarmAnimals	2	2	[0, 0, 0]	n/a	catFR1	1	R1102P
293.584	2.178	854575	REC_WORD	6.764	n/a	HORSE	FarmAnimals	10	2	[0, 0, 0]	n/a	catFR1	1	R1102P
295.762	0.85	855664	REC_WORD	8.942	n/a	CEDAR	Trees	7	2	[0, 0, 0]	n/a	catFR1	1	R1102P
296.612	20.218	856089	REC_WORD	9.792	n/a	OAK	Trees	8	2	[0, 0, 0]	n/a	catFR1	1	R1102P
316.83	2.528	866198	REC_END	n/a	n/a	n/a	n/a	-999	2	[0, 0, 0]	n/a	catFR1	1	R1102P
319.358	0.0	867461	TRIAL	n/a	n/a	n/a	n/a	-999	3	[0, 0, 0]	n/a	catFR1	1	R1102P
319.358	10.428	867461	COUNTDOWN_START	n/a	n/a	n/a	n/a	-999	3	[0, 0, 0]	n/a	catFR1	1	R1102P
329.786	0.008	872675	COUNTDOWN_END	n/a	n/a	n/a	n/a	-999	3	[0, 0, 0]	n/a	catFR1	1	R1102P
329.794	3.616	872679	ORIENT	n/a	n/a	n/a	n/a	-999	3	[0, 0, 0]	n/a	catFR1	1	R1102P
333.41	2.535	874487	WORD	n/a	wordpools/wordpool_categorized_EN.txt	PEN	OfficeSupplies	1	3	[0, 0, 0]	n/a	catFR1	1	R1102P
335.945	2.432	875754	WORD	n/a	wordpools/wordpool_categorized_EN.txt	PAPER	OfficeSupplies	2	3	[0, 0, 0]	n/a	catFR1	1	R1102P
338.377	2.435	876970	WORD	n/a	wordpools/wordpool_categorized_EN.txt	HEN	FarmAnimals	3	3	[0, 0, 0]	n/a	catFR1	1	R1102P
340.812	2.484	878188	WORD	n/a	wordpools/wordpool_categorized_EN.txt	CALF	FarmAnimals	4	3	[0, 0, 0]	n/a	catFR1	1	R1102P
343.296	2.567	879430	WORD	n/a	wordpools/wordpool_categorized_EN.txt	VACUUM	Appliances	5	3	[0, 0, 0]	n/a	catFR1	1	R1102P
345.863	2.501	880713	WORD	n/a	wordpools/wordpool_categorized_EN.txt	FREEZER	Appliances	6	3	[0, 0, 0]	n/a	catFR1	1	R1102P
348.364	2.4	881963	WORD	n/a	wordpools/wordpool_categorized_EN.txt	PIG	FarmAnimals	7	3	[0, 0, 0]	n/a	catFR1	1	R1102P
350.764	2.567	883163	WORD	n/a	wordpools/wordpool_categorized_EN.txt	TURKEY	FarmAnimals	8	3	[0, 0, 0]	n/a	catFR1	1	R1102P
353.331	2.401	884447	WORD	n/a	wordpools/wordpool_categorized_EN.txt	GLUE	OfficeSupplies	9	3	[0, 0, 0]	n/a	catFR1	1	R1102P
355.732	2.417	885647	WORD	n/a	wordpools/wordpool_categorized_EN.txt	FOLDER	OfficeSupplies	10	3	[0, 0, 0]	n/a	catFR1	1	R1102P
358.149	2.534	886856	WORD	n/a	wordpools/wordpool_categorized_EN.txt	DRYER	Appliances	11	3	[0, 0, 0]	n/a	catFR1	1	R1102P
360.683	1.617	888123	WORD	n/a	wordpools/wordpool_categorized_EN.txt	BLENDER	Appliances	12	3	[0, 0, 0]	n/a	catFR1	1	R1102P
362.3	0.001	888931	DISTRACT_START	n/a	n/a	n/a	n/a	-999	3	[0, 0, 0]	n/a	catFR1	1	R1102P
362.301	0.015	888932	START	n/a	n/a	n/a	n/a	-999	3	[-999, -999, -999]	n/a	catFR1	1	R1102P
362.316	4.668	888939	PROB	4.635	n/a	n/a	n/a	-999	3	[4, 2, 2]	8.0	catFR1	1	R1102P
366.984	5.051	891273	PROB	5.015	n/a	n/a	n/a	-999	3	[1, 7, 8]	16.0	catFR1	1	R1102P
372.035	3.75	893798	PROB	3.716	n/a	n/a	n/a	-999	3	[1, 7, 1]	9.0	catFR1	1	R1102P
375.785	4.468	895673	PROB	4.438	n/a	n/a	n/a	-999	3	[5, 6, 6]	17.0	catFR1	1	R1102P
380.253	3.058	897907	PROB	3.058	n/a	n/a	n/a	-999	3	[3, 2, 4]	9.0	catFR1	1	R1102P
383.311	0.009	899436	STOP	n/a	n/a	n/a	n/a	-999	3	[-999, -999, -999]	n/a	catFR1	1	R1102P
383.32	1.184	899440	DISTRACT_END	n/a	n/a	n/a	n/a	-999	3	[0, 0, 0]	n/a	catFR1	1	R1102P
384.504	3.554	900032	REC_START	n/a	n/a	n/a	n/a	-999	3	[0, 0, 0]	n/a	catFR1	1	R1102P
388.058	0.523	901809	REC_WORD	3.554	n/a	PEN	OfficeSupplies	1	3	[0, 0, 0]	n/a	catFR1	1	R1102P
388.581	2.888	902071	REC_WORD	4.077	n/a	PAPER	OfficeSupplies	2	3	[0, 0, 0]	n/a	catFR1	1	R1102P
391.469	3.313	903515	REC_WORD_VV	6.965	n/a	<>	n/a	-999	3	[0, 0, 0]	n/a	catFR1	1	R1102P
394.782	13.405	905171	REC_WORD	10.278	n/a	FREEZER	Appliances	6	3	[0, 0, 0]	n/a	catFR1	1	R1102P
408.187	6.327	911873	REC_WORD	23.683	n/a	DRYER	Appliances	11	3	[0, 0, 0]	n/a	catFR1	1	R1102P
414.514	2.579	915036	REC_END	n/a	n/a	n/a	n/a	-999	3	[0, 0, 0]	n/a	catFR1	1	R1102P
417.093	0.001	916326	COUNTDOWN_START	n/a	n/a	n/a	n/a	-999	4	[0, 0, 0]	n/a	catFR1	1	R1102P
417.094	10.427	916326	TRIAL	n/a	n/a	n/a	n/a	-999	4	[0, 0, 0]	n/a	catFR1	1	R1102P
427.521	0.007	921539	COUNTDOWN_END	n/a	n/a	n/a	n/a	-999	4	[0, 0, 0]	n/a	catFR1	1	R1102P
427.528	3.801	921543	ORIENT	n/a	n/a	n/a	n/a	-999	4	[0, 0, 0]	n/a	catFR1	1	R1102P
431.329	2.534	923443	WORD	n/a	wordpools/wordpool_categorized_EN.txt	SHOVEL	Tools	1	4	[0, 0, 0]	n/a	catFR1	1	R1102P
433.863	2.583	924710	WORD	n/a	wordpools/wordpool_categorized_EN.txt	SAW	Tools	2	4	[0, 0, 0]	n/a	catFR1	1	R1102P
436.446	2.601	926002	WORD	n/a	wordpools/wordpool_categorized_EN.txt	FLY	Insects	3	4	[0, 0, 0]	n/a	catFR1	1	R1102P
439.047	2.618	927302	WORD	n/a	wordpools/wordpool_categorized_EN.txt	BUTTERFLY	Insects	4	4	[0, 0, 0]	n/a	catFR1	1	R1102P
441.665	2.633	928611	WORD	n/a	wordpools/wordpool_categorized_EN.txt	PLANE	Vehicles	5	4	[0, 0, 0]	n/a	catFR1	1	R1102P
444.298	2.601	929927	WORD	n/a	wordpools/wordpool_categorized_EN.txt	MOPED	Vehicles	6	4	[0, 0, 0]	n/a	catFR1	1	R1102P
446.899	2.4	931228	WORD	n/a	wordpools/wordpool_categorized_EN.txt	BEETLE	Insects	7	4	[0, 0, 0]	n/a	catFR1	1	R1102P
449.299	2.401	932428	WORD	n/a	wordpools/wordpool_categorized_EN.txt	MOTH	Insects	8	4	[0, 0, 0]	n/a	catFR1	1	R1102P
451.7	2.45	933628	WORD	n/a	wordpools/wordpool_categorized_EN.txt	SANDER	Tools	9	4	[0, 0, 0]	n/a	catFR1	1	R1102P
454.15	2.383	934853	WORD	n/a	wordpools/wordpool_categorized_EN.txt	AXE	Tools	10	4	[0, 0, 0]	n/a	catFR1	1	R1102P
456.533	2.535	936044	WORD	n/a	wordpools/wordpool_categorized_EN.txt	JEEP	Vehicles	11	4	[0, 0, 0]	n/a	catFR1	1	R1102P
459.068	1.617	937312	WORD	n/a	wordpools/wordpool_categorized_EN.txt	SCOOTER	Vehicles	12	4	[0, 0, 0]	n/a	catFR1	1	R1102P
460.685	0.001	938120	DISTRACT_START	n/a	n/a	n/a	n/a	-999	4	[0, 0, 0]	n/a	catFR1	1	R1102P
460.686	0.015	938121	START	n/a	n/a	n/a	n/a	-999	4	[-999, -999, -999]	n/a	catFR1	1	R1102P
460.701	6.352	938128	PROB	6.322	n/a	n/a	n/a	-999	4	[1, 6, 5]	12.0	catFR1	1	R1102P
467.053	3.333	941304	PROB	3.306	n/a	n/a	n/a	-999	4	[4, 4, 4]	12.0	catFR1	1	R1102P
470.386	5.618	942970	PROB	5.589	n/a	n/a	n/a	-999	4	[6, 9, 1]	17.0	catFR1	1	R1102P
476.004	2.951	945779	PROB	2.923	n/a	n/a	n/a	-999	4	[9, 1, 1]	11.0	catFR1	1	R1102P
478.955	5.092	947255	PROB	5.092	n/a	n/a	n/a	-999	4	[4, 8, 8]	20.0	catFR1	1	R1102P
484.047	0.009	949800	STOP	n/a	n/a	n/a	n/a	-999	4	[-999, -999, -999]	n/a	catFR1	1	R1102P
484.056	1.067	949805	DISTRACT_END	n/a	n/a	n/a	n/a	-999	4	[0, 0, 0]	n/a	catFR1	1	R1102P
485.123	3.367	950338	REC_START	n/a	n/a	n/a	n/a	-999	4	[0, 0, 0]	n/a	catFR1	1	R1102P
488.49	1.379	952022	REC_WORD	3.367	n/a	BUTTERFLY	Insects	4	4	[0, 0, 0]	n/a	catFR1	1	R1102P
489.869	1.994	952711	REC_WORD	4.746	n/a	BEETLE	Insects	7	4	[0, 0, 0]	n/a	catFR1	1	R1102P
491.863	23.275	953708	REC_WORD	6.74	n/a	MOTH	Insects	8	4	[0, 0, 0]	n/a	catFR1	1	R1102P
515.138	3.091	965345	REC_END	n/a	n/a	n/a	n/a	-999	4	[0, 0, 0]	n/a	catFR1	1	R1102P
518.229	0.0	966890	TRIAL	n/a	n/a	n/a	n/a	-999	5	[0, 0, 0]	n/a	catFR1	1	R1102P
518.229	10.428	966890	COUNTDOWN_START	n/a	n/a	n/a	n/a	-999	5	[0, 0, 0]	n/a	catFR1	1	R1102P
528.657	0.007	972104	COUNTDOWN_END	n/a	n/a	n/a	n/a	-999	5	[0, 0, 0]	n/a	catFR1	1	R1102P
528.664	3.567	972107	ORIENT	n/a	n/a	n/a	n/a	-999	5	[0, 0, 0]	n/a	catFR1	1	R1102P
532.231	2.468	973891	WORD	n/a	wordpools/wordpool_categorized_EN.txt	MARIGOLD	Flowers	1	5	[0, 0, 0]	n/a	catFR1	1	R1102P
534.699	2.45	975125	WORD	n/a	wordpools/wordpool_categorized_EN.txt	DAFFODIL	Flowers	2	5	[0, 0, 0]	n/a	catFR1	1	R1102P
537.149	2.584	976350	WORD	n/a	wordpools/wordpool_categorized_EN.txt	GRATER	KitchenTools	3	5	[0, 0, 0]	n/a	catFR1	1	R1102P
539.733	2.617	977642	WORD	n/a	wordpools/wordpool_categorized_EN.txt	TONGS	KitchenTools	4	5	[0, 0, 0]	n/a	catFR1	1	R1102P
542.35	2.534	978950	WORD	n/a	wordpools/wordpool_categorized_EN.txt	STAIRS	Building	5	5	[0, 0, 0]	n/a	catFR1	1	R1102P
544.884	2.45	980217	WORD	n/a	wordpools/wordpool_categorized_EN.txt	WALL	Building	6	5	[0, 0, 0]	n/a	catFR1	1	R1102P
547.334	2.384	981442	WORD	n/a	wordpools/wordpool_categorized_EN.txt	SPATULA	KitchenTools	7	5	[0, 0, 0]	n/a	catFR1	1	R1102P
549.718	2.617	982634	WORD	n/a	wordpools/wordpool_categorized_EN.txt	COLANDER	KitchenTools	8	5	[0, 0, 0]	n/a	catFR1	1	R1102P
552.335	2.384	983942	WORD	n/a	wordpools/wordpool_categorized_EN.txt	DAISY	Flowers	9	5	[0, 0, 0]	n/a	catFR1	1	R1102P
554.719	2.434	985134	WORD	n/a	wordpools/wordpool_categorized_EN.txt	LILAC	Flowers	10	5	[0, 0, 0]	n/a	catFR1	1	R1102P
557.153	2.399	986351	WORD	n/a	wordpools/wordpool_categorized_EN.txt	HALLWAY	Building	11	5	[0, 0, 0]	n/a	catFR1	1	R1102P
559.552	1.618	987550	WORD	n/a	wordpools/wordpool_categorized_EN.txt	CEILING	Building	12	5	[0, 0, 0]	n/a	catFR1	1	R1102P
561.17	0.002	988359	DISTRACT_START	n/a	n/a	n/a	n/a	-999	5	[0, 0, 0]	n/a	catFR1	1	R1102P
561.172	0.015	988360	START	n/a	n/a	n/a	n/a	-999	5	[-999, -999, -999]	n/a	catFR1	1	R1102P
561.187	4.951	988368	PROB	4.924	n/a	n/a	n/a	-999	5	[1, 7, 3]	11.0	catFR1	1	R1102P
566.138	4.4	990843	PROB	4.372	n/a	n/a	n/a	-999	5	[4, 2, 8]	14.0	catFR1	1	R1102P
570.538	4.884	993043	PROB	4.86	n/a	n/a	n/a	-999	5	[1, 8, 3]	12.0	catFR1	1	R1102P
575.422	4.935	995485	PROB	4.913	n/a	n/a	n/a	-999	5	[4, 3, 2]	9.0	catFR1	1	R1102P
580.357	4.89	997952	PROB	4.89	n/a	n/a	n/a	-999	5	[2, 3, 7]	12.0	catFR1	1	R1102P
585.247	0.011	1000397	STOP	n/a	n/a	n/a	n/a	-999	5	[-999, -999, -999]	n/a	catFR1	1	R1102P
585.258	1.217	1000403	DISTRACT_END	n/a	n/a	n/a	n/a	-999	5	[0, 0, 0]	n/a	catFR1	1	R1102P
586.475	4.505	1001011	REC_START	n/a	n/a	n/a	n/a	-999	5	[0, 0, 0]	n/a	catFR1	1	R1102P
590.98	0.332	1003263	REC_WORD_VV	4.505	n/a	<>	n/a	-999	5	[0, 0, 0]	n/a	catFR1	1	R1102P
591.312	3.156	1003429	REC_WORD	4.837	n/a	GRATER	KitchenTools	3	5	[0, 0, 0]	n/a	catFR1	1	R1102P
594.468	22.019	1005007	REC_WORD	7.993	n/a	COLANDER	KitchenTools	8	5	[0, 0, 0]	n/a	catFR1	1	R1102P
616.487	35.784	1016016	REC_END	n/a	n/a	n/a	n/a	-999	5	[0, 0, 0]	n/a	catFR1	1	R1102P
652.271	0.0	1033907	TRIAL	n/a	n/a	n/a	n/a	-999	6	[0, 0, 0]	n/a	catFR1	1	R1102P
652.271	10.428	1033907	COUNTDOWN_START	n/a	n/a	n/a	n/a	-999	6	[0, 0, 0]	n/a	catFR1	1	R1102P
662.699	0.007	1039120	COUNTDOWN_END	n/a	n/a	n/a	n/a	-999	6	[0, 0, 0]	n/a	catFR1	1	R1102P
662.706	3.817	1039124	ORIENT	n/a	n/a	n/a	n/a	-999	6	[0, 0, 0]	n/a	catFR1	1	R1102P
666.523	2.551	1041032	WORD	n/a	wordpools/wordpool_categorized_EN.txt	CHIMPANZEE	Zoo	1	6	[0, 0, 0]	n/a	catFR1	1	R1102P
669.074	2.416	1042308	WORD	n/a	wordpools/wordpool_categorized_EN.txt	ZEBRA	Zoo	2	6	[0, 0, 0]	n/a	catFR1	1	R1102P
671.49	2.552	1043516	WORD	n/a	wordpools/wordpool_categorized_EN.txt	BINDER	OfficeSupplies	3	6	[0, 0, 0]	n/a	catFR1	1	R1102P
674.042	2.466	1044792	WORD	n/a	wordpools/wordpool_categorized_EN.txt	STAPLER	OfficeSupplies	4	6	[0, 0, 0]	n/a	catFR1	1	R1102P
676.508	2.584	1046024	WORD	n/a	wordpools/wordpool_categorized_EN.txt	RUM	Beverages	5	6	[0, 0, 0]	n/a	catFR1	1	R1102P
679.092	2.45	1047316	WORD	n/a	wordpools/wordpool_categorized_EN.txt	JUICE	Beverages	6	6	[0, 0, 0]	n/a	catFR1	1	R1102P
681.542	2.418	1048541	WORD	n/a	wordpools/wordpool_categorized_EN.txt	NOTEBOOK	OfficeSupplies	7	6	[0, 0, 0]	n/a	catFR1	1	R1102P
683.96	2.55	1049750	WORD	n/a	wordpools/wordpool_categorized_EN.txt	TAPE	OfficeSupplies	8	6	[0, 0, 0]	n/a	catFR1	1	R1102P
686.51	2.468	1051025	WORD	n/a	wordpools/wordpool_categorized_EN.txt	BEAR	Zoo	9	6	[0, 0, 0]	n/a	catFR1	1	R1102P
688.978	2.549	1052259	WORD	n/a	wordpools/wordpool_categorized_EN.txt	TIGER	Zoo	10	6	[0, 0, 0]	n/a	catFR1	1	R1102P
691.527	2.518	1053533	WORD	n/a	wordpools/wordpool_categorized_EN.txt	MILK	Beverages	11	6	[0, 0, 0]	n/a	catFR1	1	R1102P
694.045	1.617	1054792	WORD	n/a	wordpools/wordpool_categorized_EN.txt	WATER	Beverages	12	6	[0, 0, 0]	n/a	catFR1	1	R1102P
695.662	0.001	1055601	DISTRACT_START	n/a	n/a	n/a	n/a	-999	6	[0, 0, 0]	n/a	catFR1	1	R1102P
695.663	0.016	1055601	START	n/a	n/a	n/a	n/a	-999	6	[-999, -999, -999]	n/a	catFR1	1	R1102P
695.679	5.934	1055609	PROB	5.904	n/a	n/a	n/a	-999	6	[7, 3, 6]	16.0	catFR1	1	R1102P
701.613	4.168	1058576	PROB	4.138	n/a	n/a	n/a	-999	6	[4, 3, 1]	8.0	catFR1	1	R1102P
705.781	4.584	1060660	PROB	4.554	n/a	n/a	n/a	-999	6	[9, 2, 9]	20.0	catFR1	1	R1102P
710.365	4.15	1062952	PROB	4.129	n/a	n/a	n/a	-999	6	[7, 8, 6]	21.0	catFR1	1	R1102P
714.515	4.58	1065027	PROB	4.58	n/a	n/a	n/a	-999	6	[5, 6, 3]	14.0	catFR1	1	R1102P
719.095	0.005	1067317	STOP	n/a	n/a	n/a	n/a	-999	6	[-999, -999, -999]	n/a	catFR1	1	R1102P
719.1	1.051	1067319	DISTRACT_END	n/a	n/a	n/a	n/a	-999	6	[0, 0, 0]	n/a	catFR1	1	R1102P
720.151	2.882	1067844	REC_START	n/a	n/a	n/a	n/a	-999	6	[0, 0, 0]	n/a	catFR1	1	R1102P
723.033	0.922	1069285	REC_WORD	2.882	n/a	CHIMPANZEE	Zoo	1	6	[0, 0, 0]	n/a	catFR1	1	R1102P
723.955	2.974	1069746	REC_WORD	3.804	n/a	ZEBRA	Zoo	2	6	[0, 0, 0]	n/a	catFR1	1	R1102P
726.929	3.258	1071233	REC_WORD_VV	6.778	n/a	<>	n/a	-999	6	[0, 0, 0]	n/a	catFR1	1	R1102P
730.187	0.441	1072862	REC_WORD	10.036	n/a	BEAR	Zoo	9	6	[0, 0, 0]	n/a	catFR1	1	R1102P
730.628	19.534	1073083	REC_WORD	10.477	n/a	TIGER	Zoo	10	6	[0, 0, 0]	n/a	catFR1	1	R1102P
750.162	4.645	1082849	REC_END	n/a	n/a	n/a	n/a	-999	6	[0, 0, 0]	n/a	catFR1	1	R1102P
754.807	0.0	1085171	COUNTDOWN_START	n/a	n/a	n/a	n/a	-999	7	[0, 0, 0]	n/a	catFR1	1	R1102P
754.807	10.428	1085171	TRIAL	n/a	n/a	n/a	n/a	-999	7	[0, 0, 0]	n/a	catFR1	1	R1102P
765.235	0.007	1090385	COUNTDOWN_END	n/a	n/a	n/a	n/a	-999	7	[0, 0, 0]	n/a	catFR1	1	R1102P
765.242	3.784	1090388	ORIENT	n/a	n/a	n/a	n/a	-999	7	[0, 0, 0]	n/a	catFR1	1	R1102P
769.026	2.567	1092280	WORD	n/a	wordpools/wordpool_categorized_EN.txt	BED	Furniture	1	7	[0, 0, 0]	n/a	catFR1	1	R1102P
771.593	2.401	1093564	WORD	n/a	wordpools/wordpool_categorized_EN.txt	SHELF	Furniture	2	7	[0, 0, 0]	n/a	catFR1	1	R1102P
773.994	2.516	1094764	WORD	n/a	wordpools/wordpool_categorized_EN.txt	DRILL	Tools	3	7	[0, 0, 0]	n/a	catFR1	1	R1102P
776.51	2.385	1096022	WORD	n/a	wordpools/wordpool_categorized_EN.txt	WRENCH	Tools	4	7	[0, 0, 0]	n/a	catFR1	1	R1102P
778.895	2.433	1097215	WORD	n/a	wordpools/wordpool_categorized_EN.txt	PLANKTON	OceanAnimals	5	7	[0, 0, 0]	n/a	catFR1	1	R1102P
781.328	2.418	1098431	WORD	n/a	wordpools/wordpool_categorized_EN.txt	SQUID	OceanAnimals	6	7	[0, 0, 0]	n/a	catFR1	1	R1102P
783.746	2.55	1099640	WORD	n/a	wordpools/wordpool_categorized_EN.txt	BOOKCASE	Furniture	7	7	[0, 0, 0]	n/a	catFR1	1	R1102P
786.296	2.501	1100915	WORD	n/a	wordpools/wordpool_categorized_EN.txt	DRESSER	Furniture	8	7	[0, 0, 0]	n/a	catFR1	1	R1102P
788.797	2.517	1102165	WORD	n/a	wordpools/wordpool_categorized_EN.txt	JELLYFISH	OceanAnimals	9	7	[0, 0, 0]	n/a	catFR1	1	R1102P
791.314	2.4	1103424	WORD	n/a	wordpools/wordpool_categorized_EN.txt	OYSTER	OceanAnimals	10	7	[0, 0, 0]	n/a	catFR1	1	R1102P
793.714	2.567	1104624	WORD	n/a	wordpools/wordpool_categorized_EN.txt	LEVEL	Tools	11	7	[0, 0, 0]	n/a	catFR1	1	R1102P
796.281	1.617	1105907	WORD	n/a	wordpools/wordpool_categorized_EN.txt	PLIERS	Tools	12	7	[0, 0, 0]	n/a	catFR1	1	R1102P
797.898	0.001	1106715	DISTRACT_START	n/a	n/a	n/a	n/a	-999	7	[0, 0, 0]	n/a	catFR1	1	R1102P
797.899	0.016	1106716	START	n/a	n/a	n/a	n/a	-999	7	[-999, -999, -999]	n/a	catFR1	1	R1102P
797.915	7.985	1106724	PROB	7.956	n/a	n/a	n/a	-999	7	[9, 9, 6]	24.0	catFR1	1	R1102P
805.9	6.017	1110716	PROB	5.995	n/a	n/a	n/a	-999	7	[6, 9, 4]	18.0	catFR1	1	R1102P
811.917	5.418	1113724	PROB	5.394	n/a	n/a	n/a	-999	7	[9, 6, 8]	23.0	catFR1	1	R1102P
817.335	3.92	1116433	PROB	3.92	n/a	n/a	n/a	-999	7	[6, 2, 3]	11.0	catFR1	1	R1102P
821.255	0.014	1118393	STOP	n/a	n/a	n/a	n/a	-999	7	[-999, -999, -999]	n/a	catFR1	1	R1102P
821.269	1.068	1118400	DISTRACT_END	n/a	n/a	n/a	n/a	-999	7	[0, 0, 0]	n/a	catFR1	1	R1102P
822.337	4.566	1118934	REC_START	n/a	n/a	n/a	n/a	-999	7	[0, 0, 0]	n/a	catFR1	1	R1102P
826.903	1.221	1121217	REC_WORD	4.566	n/a	JELLYFISH	OceanAnimals	9	7	[0, 0, 0]	n/a	catFR1	1	R1102P
828.124	2.972	1121827	REC_WORD	5.787	n/a	OYSTER	OceanAnimals	10	7	[0, 0, 0]	n/a	catFR1	1	R1102P
831.096	0.34	1123313	REC_WORD_VV	8.759	n/a	<>	n/a	-999	7	[0, 0, 0]	n/a	catFR1	1	R1102P
831.436	20.912	1123483	REC_WORD	9.099	n/a	CRAWLERS	n/a	-999	7	[0, 0, 0]	n/a	catFR1	1	R1102P
852.348	2.794	1133939	REC_END	n/a	n/a	n/a	n/a	-999	7	[0, 0, 0]	n/a	catFR1	1	R1102P
855.142	0.0	1135335	TRIAL	n/a	n/a	n/a	n/a	-999	8	[0, 0, 0]	n/a	catFR1	1	R1102P
855.142	10.428	1135335	COUNTDOWN_START	n/a	n/a	n/a	n/a	-999	8	[0, 0, 0]	n/a	catFR1	1	R1102P
865.57	0.008	1140549	COUNTDOWN_END	n/a	n/a	n/a	n/a	-999	8	[0, 0, 0]	n/a	catFR1	1	R1102P
865.578	3.584	1140553	ORIENT	n/a	n/a	n/a	n/a	-999	8	[0, 0, 0]	n/a	catFR1	1	R1102P
869.162	2.382	1142345	WORD	n/a	wordpools/wordpool_categorized_EN.txt	BROCCOLI	Vegetables	1	8	[0, 0, 0]	n/a	catFR1	1	R1102P
871.544	2.469	1143536	WORD	n/a	wordpools/wordpool_categorized_EN.txt	CARROT	Vegetables	2	8	[0, 0, 0]	n/a	catFR1	1	R1102P
874.013	2.382	1144770	WORD	n/a	wordpools/wordpool_categorized_EN.txt	THUNDERSTORM	Weather	3	8	[0, 0, 0]	n/a	catFR1	1	R1102P
876.395	2.468	1145961	WORD	n/a	wordpools/wordpool_categorized_EN.txt	SNOW	Weather	4	8	[0, 0, 0]	n/a	catFR1	1	R1102P
878.863	2.451	1147195	WORD	n/a	wordpools/wordpool_categorized_EN.txt	CHICKEN	FarmAnimals	5	8	[0, 0, 0]	n/a	catFR1	1	R1102P
881.314	2.434	1148421	WORD	n/a	wordpools/wordpool_categorized_EN.txt	BULL	FarmAnimals	6	8	[0, 0, 0]	n/a	catFR1	1	R1102P
883.748	2.484	1149637	WORD	n/a	wordpools/wordpool_categorized_EN.txt	FOG	Weather	7	8	[0, 0, 0]	n/a	catFR1	1	R1102P
886.232	2.583	1150879	WORD	n/a	wordpools/wordpool_categorized_EN.txt	HUMIDITY	Weather	8	8	[0, 0, 0]	n/a	catFR1	1	R1102P
888.815	2.467	1152171	WORD	n/a	wordpools/wordpool_categorized_EN.txt	ONION	Vegetables	9	8	[0, 0, 0]	n/a	catFR1	1	R1102P
891.282	2.584	1153404	WORD	n/a	wordpools/wordpool_categorized_EN.txt	POTATO	Vegetables	10	8	[0, 0, 0]	n/a	catFR1	1	R1102P
893.866	2.384	1154696	WORD	n/a	wordpools/wordpool_categorized_EN.txt	ROOSTER	FarmAnimals	11	8	[0, 0, 0]	n/a	catFR1	1	R1102P
896.25	1.617	1155888	WORD	n/a	wordpools/wordpool_categorized_EN.txt	COW	FarmAnimals	12	8	[0, 0, 0]	n/a	catFR1	1	R1102P
897.867	0.001	1156697	DISTRACT_START	n/a	n/a	n/a	n/a	-999	8	[0, 0, 0]	n/a	catFR1	1	R1102P
897.868	0.016	1156697	START	n/a	n/a	n/a	n/a	-999	8	[-999, -999, -999]	n/a	catFR1	1	R1102P
897.884	5.367	1156705	PROB	5.339	n/a	n/a	n/a	-999	8	[9, 1, 5]	15.0	catFR1	1	R1102P
903.251	3.368	1159388	PROB	3.34	n/a	n/a	n/a	-999	8	[7, 8, 6]	21.0	catFR1	1	R1102P
906.619	4.317	1161072	PROB	4.292	n/a	n/a	n/a	-999	8	[1, 4, 5]	10.0	catFR1	1	R1102P
910.936	4.218	1163231	PROB	4.183	n/a	n/a	n/a	-999	8	[6, 4, 8]	18.0	catFR1	1	R1102P
915.154	3.324	1165339	PROB	3.324	n/a	n/a	n/a	-999	8	[1, 5, 5]	11.0	catFR1	1	R1102P
918.478	0.008	1167001	STOP	n/a	n/a	n/a	n/a	-999	8	[-999, -999, -999]	n/a	catFR1	1	R1102P
918.486	1.035	1167005	DISTRACT_END	n/a	n/a	n/a	n/a	-999	8	[0, 0, 0]	n/a	catFR1	1	R1102P
919.521	2.796	1167523	REC_START	n/a	n/a	n/a	n/a	-999	8	[0, 0, 0]	n/a	catFR1	1	R1102P
922.317	0.804	1168921	REC_WORD	2.796	n/a	BROCCOLI	Vegetables	1	8	[0, 0, 0]	n/a	catFR1	1	R1102P
923.121	0.533	1169323	REC_WORD	3.6	n/a	CARROT	Vegetables	2	8	[0, 0, 0]	n/a	catFR1	1	R1102P
923.654	0.472	1169589	REC_WORD	4.133	n/a	ONION	Vegetables	9	8	[0, 0, 0]	n/a	catFR1	1	R1102P
924.126	25.405	1169825	REC_WORD	4.605	n/a	POTATO	Vegetables	10	8	[0, 0, 0]	n/a	catFR1	1	R1102P
949.531	2.263	1182527	REC_END	n/a	n/a	n/a	n/a	-999	8	[0, 0, 0]	n/a	catFR1	1	R1102P
951.794	0.0	1183658	COUNTDOWN_START	n/a	n/a	n/a	n/a	-999	9	[0, 0, 0]	n/a	catFR1	1	R1102P
951.794	10.428	1183658	TRIAL	n/a	n/a	n/a	n/a	-999	9	[0, 0, 0]	n/a	catFR1	1	R1102P
962.222	0.007	1188872	COUNTDOWN_END	n/a	n/a	n/a	n/a	-999	9	[0, 0, 0]	n/a	catFR1	1	R1102P
962.229	3.634	1188875	ORIENT	n/a	n/a	n/a	n/a	-999	9	[0, 0, 0]	n/a	catFR1	1	R1102P
965.863	2.583	1190692	WORD	n/a	wordpools/wordpool_categorized_EN.txt	CELERY	Vegetables	1	9	[0, 0, 0]	n/a	catFR1	1	R1102P
968.446	2.468	1191984	WORD	n/a	wordpools/wordpool_categorized_EN.txt	SPINACH	Vegetables	2	9	[0, 0, 0]	n/a	catFR1	1	R1102P
970.914	2.55	1193218	WORD	n/a	wordpools/wordpool_categorized_EN.txt	BUS	Vehicles	3	9	[0, 0, 0]	n/a	catFR1	1	R1102P
973.464	2.434	1194492	WORD	n/a	wordpools/wordpool_categorized_EN.txt	CAR	Vehicles	4	9	[0, 0, 0]	n/a	catFR1	1	R1102P
975.898	2.55	1195709	WORD	n/a	wordpools/wordpool_categorized_EN.txt	TABLET	Electronics	5	9	[0, 0, 0]	n/a	catFR1	1	R1102P
978.448	2.501	1196984	WORD	n/a	wordpools/wordpool_categorized_EN.txt	STEREO	Electronics	6	9	[0, 0, 0]	n/a	catFR1	1	R1102P
980.949	2.483	1198235	WORD	n/a	wordpools/wordpool_categorized_EN.txt	CUCUMBER	Vegetables	7	9	[0, 0, 0]	n/a	catFR1	1	R1102P
983.432	2.568	1199476	WORD	n/a	wordpools/wordpool_categorized_EN.txt	LETTUCE	Vegetables	8	9	[0, 0, 0]	n/a	catFR1	1	R1102P
986.0	2.601	1200760	WORD	n/a	wordpools/wordpool_categorized_EN.txt	HEADPHONES	Electronics	9	9	[0, 0, 0]	n/a	catFR1	1	R1102P
988.601	2.517	1202060	WORD	n/a	wordpools/wordpool_categorized_EN.txt	TELEVISION	Electronics	10	9	[0, 0, 0]	n/a	catFR1	1	R1102P
991.118	2.55	1203319	WORD	n/a	wordpools/wordpool_categorized_EN.txt	BIKE	Vehicles	11	9	[0, 0, 0]	n/a	catFR1	1	R1102P
993.668	1.617	1204594	WORD	n/a	wordpools/wordpool_categorized_EN.txt	VAN	Vehicles	12	9	[0, 0, 0]	n/a	catFR1	1	R1102P
995.285	0.001	1205402	DISTRACT_START	n/a	n/a	n/a	n/a	-999	9	[0, 0, 0]	n/a	catFR1	1	R1102P
995.286	0.016	1205403	START	n/a	n/a	n/a	n/a	-999	9	[-999, -999, -999]	n/a	catFR1	1	R1102P
995.302	5.25	1205411	PROB	5.216	n/a	n/a	n/a	-999	9	[1, 3, 2]	6.0	catFR1	1	R1102P
1000.552	4.135	1208036	PROB	4.111	n/a	n/a	n/a	-999	9	[6, 8, 4]	18.0	catFR1	1	R1102P
1004.687	13.616	1210103	PROB	13.616	n/a	n/a	n/a	-999	9	[8, 8, 7]	23.0	catFR1	1	R1102P
1018.303	0.02	1216910	STOP	n/a	n/a	n/a	n/a	-999	9	[-999, -999, -999]	n/a	catFR1	1	R1102P
1018.323	1.1	1216920	DISTRACT_END	n/a	n/a	n/a	n/a	-999	9	[0, 0, 0]	n/a	catFR1	1	R1102P
1019.423	1.682	1217470	REC_START	n/a	n/a	n/a	n/a	-999	9	[0, 0, 0]	n/a	catFR1	1	R1102P
1021.105	0.656	1218311	REC_WORD_VV	1.682	n/a	<>	n/a	-999	9	[0, 0, 0]	n/a	catFR1	1	R1102P
1021.761	0.618	1218639	REC_WORD	2.338	n/a	CELERY	Vegetables	1	9	[0, 0, 0]	n/a	catFR1	1	R1102P
1022.379	0.758	1218948	REC_WORD	2.956	n/a	SPINACH	Vegetables	2	9	[0, 0, 0]	n/a	catFR1	1	R1102P
1023.137	1.574	1219327	REC_WORD	3.714	n/a	CUCUMBER	Vegetables	7	9	[0, 0, 0]	n/a	catFR1	1	R1102P
1024.711	0.385	1220114	REC_WORD_VV	5.288	n/a	<>	n/a	-999	9	[0, 0, 0]	n/a	catFR1	1	R1102P
1025.096	24.339	1220307	REC_WORD	5.673	n/a	LETTUCE	Vegetables	8	9	[0, 0, 0]	n/a	catFR1	1	R1102P
1049.435	3.411	1232475	REC_END	n/a	n/a	n/a	n/a	-999	9	[0, 0, 0]	n/a	catFR1	1	R1102P
1052.846	0.0	1234181	TRIAL	n/a	n/a	n/a	n/a	-999	10	[0, 0, 0]	n/a	catFR1	1	R1102P
1052.846	10.428	1234181	COUNTDOWN_START	n/a	n/a	n/a	n/a	-999	10	[0, 0, 0]	n/a	catFR1	1	R1102P
1063.274	0.007	1239394	COUNTDOWN_END	n/a	n/a	n/a	n/a	-999	10	[0, 0, 0]	n/a	catFR1	1	R1102P
1063.281	3.868	1239398	ORIENT	n/a	n/a	n/a	n/a	-999	10	[0, 0, 0]	n/a	catFR1	1	R1102P
1067.149	2.517	1241332	WORD	n/a	wordpools/wordpool_categorized_EN.txt	HAND	BodyParts	1	10	[0, 0, 0]	n/a	catFR1	1	R1102P
1069.666	2.484	1242590	WORD	n/a	wordpools/wordpool_categorized_EN.txt	EYE	BodyParts	2	10	[0, 0, 0]	n/a	catFR1	1	R1102P
1072.15	2.467	1243832	WORD	n/a	wordpools/wordpool_categorized_EN.txt	GRAPE	Fruit	3	10	[0, 0, 0]	n/a	catFR1	1	R1102P
1074.617	2.55	1245066	WORD	n/a	wordpools/wordpool_categorized_EN.txt	STRAWBERRY	Fruit	4	10	[0, 0, 0]	n/a	catFR1	1	R1102P
1077.167	2.417	1246340	WORD	n/a	wordpools/wordpool_categorized_EN.txt	GNAT	Insects	5	10	[0, 0, 0]	n/a	catFR1	1	R1102P
1079.584	2.451	1247549	WORD	n/a	wordpools/wordpool_categorized_EN.txt	SPIDER	Insects	6	10	[0, 0, 0]	n/a	catFR1	1	R1102P
1082.035	2.449	1248774	WORD	n/a	wordpools/wordpool_categorized_EN.txt	KNEE	BodyParts	7	10	[0, 0, 0]	n/a	catFR1	1	R1102P
1084.484	2.485	1249999	WORD	n/a	wordpools/wordpool_categorized_EN.txt	EAR	BodyParts	8	10	[0, 0, 0]	n/a	catFR1	1	R1102P
1086.969	2.55	1251241	WORD	n/a	wordpools/wordpool_categorized_EN.txt	CRICKET	Insects	9	10	[0, 0, 0]	n/a	catFR1	1	R1102P
1089.519	2.601	1252516	WORD	n/a	wordpools/wordpool_categorized_EN.txt	ANT	Insects	10	10	[0, 0, 0]	n/a	catFR1	1	R1102P
1092.12	2.55	1253816	WORD	n/a	wordpools/wordpool_categorized_EN.txt	APPLE	Fruit	11	10	[0, 0, 0]	n/a	catFR1	1	R1102P
1094.67	1.618	1255091	WORD	n/a	wordpools/wordpool_categorized_EN.txt	PLUM	Fruit	12	10	[0, 0, 0]	n/a	catFR1	1	R1102P
1096.288	0.0	1255900	DISTRACT_START	n/a	n/a	n/a	n/a	-999	10	[0, 0, 0]	n/a	catFR1	1	R1102P
1096.288	0.016	1255900	START	n/a	n/a	n/a	n/a	-999	10	[-999, -999, -999]	n/a	catFR1	1	R1102P
1096.304	4.133	1255908	PROB	4.11	n/a	n/a	n/a	-999	10	[6, 6, 9]	21.0	catFR1	1	R1102P
1100.437	4.202	1257975	PROB	4.17	n/a	n/a	n/a	-999	10	[1, 2, 5]	8.0	catFR1	1	R1102P
1104.639	5.385	1260076	PROB	5.352	n/a	n/a	n/a	-999	10	[3, 3, 5]	11.0	catFR1	1	R1102P
1110.024	4.117	1262768	PROB	4.095	n/a	n/a	n/a	-999	10	[4, 8, 2]	14.0	catFR1	1	R1102P
1114.141	4.265	1264826	PROB	4.265	n/a	n/a	n/a	-999	10	[2, 6, 7]	15.0	catFR1	1	R1102P
1118.406	0.018	1266959	STOP	n/a	n/a	n/a	n/a	-999	10	[-999, -999, -999]	n/a	catFR1	1	R1102P
1118.424	1.185	1266968	DISTRACT_END	n/a	n/a	n/a	n/a	-999	10	[0, 0, 0]	n/a	catFR1	1	R1102P
1119.609	3.416	1267560	REC_START	n/a	n/a	n/a	n/a	-999	10	[0, 0, 0]	n/a	catFR1	1	R1102P
1123.025	0.534	1269268	REC_WORD	3.416	n/a	GNAT	Insects	5	10	[0, 0, 0]	n/a	catFR1	1	R1102P
1123.559	0.93	1269535	REC_WORD	3.95	n/a	SPIDER	Insects	6	10	[0, 0, 0]	n/a	catFR1	1	R1102P
1124.489	1.045	1270000	REC_WORD	4.88	n/a	CRICKET	Insects	9	10	[0, 0, 0]	n/a	catFR1	1	R1102P
1125.534	24.091	1270522	REC_WORD	5.925	n/a	ANT	Insects	10	10	[0, 0, 0]	n/a	catFR1	1	R1102P
1149.625	14.925	1282567	REC_END	n/a	n/a	n/a	n/a	-999	10	[0, 0, 0]	n/a	catFR1	1	R1102P
1164.55	0.0	1290029	TRIAL	n/a	n/a	n/a	n/a	-999	11	[0, 0, 0]	n/a	catFR1	1	R1102P
1164.55	0.0	1290029	COUNTDOWN_START	n/a	n/a	n/a	n/a	-999	11	[0, 0, 0]	n/a	catFR1	1	R1102P
