onset	duration	sample	trial_type	response_time	stim_file	item_name	category	serialpos	list	test	answer	experiment	session	subject
0.0	17.851	4056	INSTRUCT_START	n/a	n/a	n/a	n/a	-999	-999	[0, 0, 0]	n/a	catFR1	1	R1465D
17.851	44.28	21902	INSTRUCT_END	n/a	n/a	n/a	n/a	-999	-999	[0, 0, 0]	n/a	catFR1	1	R1465D
62.131	10.351	66188	COUNTDOWN_START	n/a	n/a	n/a	n/a	-999	-999	[0, 0, 0]	n/a	catFR1	1	R1465D
72.482	0.0	76531	COUNTDOWN_END	n/a	n/a	n/a	n/a	-999	-999	[0, 0, 0]	n/a	catFR1	1	R1465D
72.482	2.183	76531	ENCODING_START	n/a	n/a	n/a	n/a	-999	-1	[0, 0, 0]	n/a	catFR1	1	R1465D
74.665	1.616	78711	WORD	n/a	n/a	PRINTER	Electronics	1	-1	[0, 0, 0]	n/a	catFR1	1	R1465D
76.281	0.834	80332	WORD_OFF	n/a	n/a	PRINTER	Electronics	1	-1	[0, 0, 0]	n/a	catFR1	1	R1465D
77.115	1.6	81167	WORD	n/a	n/a	SCANNER	Electronics	2	-1	[0, 0, 0]	n/a	catFR1	1	R1465D
78.715	0.933	82768	WORD_OFF	n/a	n/a	SCANNER	Electronics	2	-1	[0, 0, 0]	n/a	catFR1	1	R1465D
79.648	1.6	83701	WORD	n/a	n/a	MOPED	Vehicles	3	-1	[0, 0, 0]	n/a	catFR1	1	R1465D
81.248	0.767	85302	WORD_OFF	n/a	n/a	MOPED	Vehicles	3	-1	[0, 0, 0]	n/a	catFR1	1	R1465D
82.015	1.615	86068	WORD	n/a	n/a	SCOOTER	Vehicles	4	-1	[0, 0, 0]	n/a	catFR1	1	R1465D
83.63	0.9	87679	WORD_OFF	n/a	n/a	SCOOTER	Vehicles	4	-1	[0, 0, 0]	n/a	catFR1	1	R1465D
84.53	1.601	88582	WORD	n/a	n/a	PIANO	Instruments	5	-1	[0, 0, 0]	n/a	catFR1	1	R1465D
86.131	0.817	90183	WORD_OFF	n/a	n/a	PIANO	Instruments	5	-1	[0, 0, 0]	n/a	catFR1	1	R1465D
86.948	1.616	90998	WORD	n/a	n/a	DRUM	Instruments	6	-1	[0, 0, 0]	n/a	catFR1	1	R1465D
88.564	0.869	92619	WORD_OFF	n/a	n/a	DRUM	Instruments	6	-1	[0, 0, 0]	n/a	catFR1	1	R1465D
89.433	1.615	93483	WORD	n/a	n/a	COMPUTER	Electronics	7	-1	[0, 0, 0]	n/a	catFR1	1	R1465D
91.048	0.983	95094	WORD_OFF	n/a	n/a	COMPUTER	Electronics	7	-1	[0, 0, 0]	n/a	catFR1	1	R1465D
92.031	1.617	96083	WORD	n/a	n/a	TELEVISION	Electronics	8	-1	[0, 0, 0]	n/a	catFR1	1	R1465D
93.648	0.867	97697	WORD_OFF	n/a	n/a	TELEVISION	Electronics	8	-1	[0, 0, 0]	n/a	catFR1	1	R1465D
94.515	1.616	98561	WORD	n/a	n/a	MOTORCYCLE	Vehicles	9	-1	[0, 0, 0]	n/a	catFR1	1	R1465D
96.131	0.834	100182	WORD_OFF	n/a	n/a	MOTORCYCLE	Vehicles	9	-1	[0, 0, 0]	n/a	catFR1	1	R1465D
96.965	1.616	101016	WORD	n/a	n/a	TRAIN	Vehicles	10	-1	[0, 0, 0]	n/a	catFR1	1	R1465D
98.581	0.934	102627	WORD_OFF	n/a	n/a	TRAIN	Vehicles	10	-1	[0, 0, 0]	n/a	catFR1	1	R1465D
99.515	1.615	103560	WORD	n/a	n/a	VIOLIN	Instruments	11	-1	[0, 0, 0]	n/a	catFR1	1	R1465D
101.13	0.967	105181	WORD_OFF	n/a	n/a	VIOLIN	Instruments	11	-1	[0, 0, 0]	n/a	catFR1	1	R1465D
102.097	1.601	106143	WORD	n/a	n/a	BASS	Instruments	12	-1	[0, 0, 0]	n/a	catFR1	1	R1465D
103.698	0.001	107744	WORD_OFF	n/a	n/a	BASS	Instruments	12	-1	[0, 0, 0]	n/a	catFR1	1	R1465D
103.699	0.001	107748	PROB	3.499	n/a	n/a	n/a	-999	-1	[8, 5, 4]	17.0	catFR1	1	R1465D
103.7	0.0	107749	START	n/a	n/a	n/a	n/a	-999	-1	[-999, -999, -999]	n/a	catFR1	1	R1465D
103.7	0.0	107754	ENCODING_END	n/a	n/a	n/a	n/a	-999	-1	[0, 0, 0]	n/a	catFR1	1	R1465D
103.7	3.515	107754	DISTRACT_START	n/a	n/a	n/a	n/a	-999	-1	[0, 0, 0]	n/a	catFR1	1	R1465D
107.215	3.316	111264	PROB	3.3	n/a	n/a	n/a	-999	-1	[5, 4, 8]	17.0	catFR1	1	R1465D
110.531	2.451	114579	PROB	2.433	n/a	n/a	n/a	-999	-1	[6, 3, 2]	11.0	catFR1	1	R1465D
112.982	1.916	117030	PROB	1.899	n/a	n/a	n/a	-999	-1	[5, 2, 4]	11.0	catFR1	1	R1465D
114.898	2.033	118946	PROB	2.017	n/a	n/a	n/a	-999	-1	[5, 5, 3]	13.0	catFR1	1	R1465D
116.931	3.001	120979	PROB	2.983	n/a	n/a	n/a	-999	-1	[8, 3, 3]	14.0	catFR1	1	R1465D
119.932	1.816	123980	PROB	1.799	n/a	n/a	n/a	-999	-1	[6, 2, 3]	11.0	catFR1	1	R1465D
121.748	1.434	125796	PROB	1.416	n/a	n/a	n/a	-999	-1	[2, 1, 2]	5.0	catFR1	1	R1465D
123.182	2.349	127230	PROB	2.333	n/a	n/a	n/a	-999	-1	[6, 7, 1]	14.0	catFR1	1	R1465D
125.531	0.0	129578	DISTRACT_END	n/a	n/a	n/a	n/a	-999	-1	[0, 0, 0]	n/a	catFR1	1	R1465D
125.531	2.167	129579	STOP	n/a	n/a	n/a	n/a	-999	-1	[-999, -999, -999]	n/a	catFR1	1	R1465D
127.698	1.085	131747	REC_START	n/a	n/a	n/a	n/a	-999	-1	[0, 0, 0]	n/a	catFR1	1	R1465D
128.783	1.1	132831	REC_WORD	1.085	n/a	MOPED	Vehicles	3	-1	[0, 0, 0]	n/a	catFR1	1	R1465D
129.883	1.102	133930	REC_WORD	2.185	n/a	TRAIN	Vehicles	10	-1	[0, 0, 0]	n/a	catFR1	1	R1465D
130.985	4.97	135032	REC_WORD	3.287	n/a	MOTORCYCLE	Vehicles	9	-1	[0, 0, 0]	n/a	catFR1	1	R1465D
135.955	7.25	140002	REC_WORD	8.257	n/a	BIKE	n/a	-999	-1	[0, 0, 0]	n/a	catFR1	1	R1465D
143.205	1.0	147252	REC_WORD_VV	15.507	n/a	<>	n/a	-999	-1	[0, 0, 0]	n/a	catFR1	1	R1465D
144.205	1.0	148252	REC_WORD_VV	16.507	n/a	<>	n/a	-999	-1	[0, 0, 0]	n/a	catFR1	1	R1465D
145.205	1.0	149252	REC_WORD_VV	17.507	n/a	<>	n/a	-999	-1	[0, 0, 0]	n/a	catFR1	1	R1465D
146.205	1.0	150252	REC_WORD_VV	18.507	n/a	<>	n/a	-999	-1	[0, 0, 0]	n/a	catFR1	1	R1465D
147.205	3.331	151252	REC_WORD_VV	19.507	n/a	<>	n/a	-999	-1	[0, 0, 0]	n/a	catFR1	1	R1465D
150.536	0.553	154582	REC_WORD	22.838	n/a	MOPED	Vehicles	3	-1	[0, 0, 0]	n/a	catFR1	1	R1465D
151.089	0.43	155135	REC_WORD	23.391	n/a	TRAIN	Vehicles	10	-1	[0, 0, 0]	n/a	catFR1	1	R1465D
151.519	3.695	155565	REC_WORD	23.821	n/a	BIKE	n/a	-999	-1	[0, 0, 0]	n/a	catFR1	1	R1465D
155.214	0.935	159260	REC_WORD	27.516	n/a	SCOOTER	Vehicles	4	-1	[0, 0, 0]	n/a	catFR1	1	R1465D
156.149	1.0	160195	REC_WORD_VV	28.451	n/a	<>	n/a	-999	-1	[0, 0, 0]	n/a	catFR1	1	R1465D
157.149	0.736	161195	REC_WORD_VV	29.451	n/a	<>	n/a	-999	-1	[0, 0, 0]	n/a	catFR1	1	R1465D
157.885	20.563	161931	REC_END	n/a	n/a	n/a	n/a	-999	-1	[0, 0, 0]	n/a	catFR1	1	R1465D
178.448	10.349	182498	COUNTDOWN_START	n/a	n/a	n/a	n/a	-999	1	[0, 0, 0]	n/a	catFR1	1	R1465D
188.797	0.0	192840	COUNTDOWN_END	n/a	n/a	n/a	n/a	-999	1	[0, 0, 0]	n/a	catFR1	1	R1465D
188.797	2.084	192840	ENCODING_START	n/a	n/a	n/a	n/a	-999	1	[0, 0, 0]	n/a	catFR1	1	R1465D
190.881	1.617	194922	WORD	n/a	wordpools/wordpool_categorized_EN.txt	MARBLES	Toys	1	1	[0, 0, 0]	n/a	catFR1	1	R1465D
192.498	0.766	196543	WORD_OFF	n/a	n/a	MARBLES	Toys	1	1	[0, 0, 0]	n/a	catFR1	1	R1465D
193.264	1.6	197309	WORD	n/a	wordpools/wordpool_categorized_EN.txt	BASKETBALL	Toys	2	1	[0, 0, 0]	n/a	catFR1	1	R1465D
194.864	1.0	198910	WORD_OFF	n/a	n/a	BASKETBALL	Toys	2	1	[0, 0, 0]	n/a	catFR1	1	R1465D
195.864	1.601	199912	WORD	n/a	wordpools/wordpool_categorized_EN.txt	MICROWAVE	Electronics	3	1	[0, 0, 0]	n/a	catFR1	1	R1465D
197.465	0.983	201513	WORD_OFF	n/a	n/a	MICROWAVE	Electronics	3	1	[0, 0, 0]	n/a	catFR1	1	R1465D
198.448	1.6	202495	WORD	n/a	wordpools/wordpool_categorized_EN.txt	PHONE	Electronics	4	1	[0, 0, 0]	n/a	catFR1	1	R1465D
200.048	0.817	204096	WORD_OFF	n/a	n/a	PHONE	Electronics	4	1	[0, 0, 0]	n/a	catFR1	1	R1465D
200.865	1.6	204911	WORD	n/a	wordpools/wordpool_categorized_EN.txt	COAT	Clothing	5	1	[0, 0, 0]	n/a	catFR1	1	R1465D
202.465	0.899	206512	WORD_OFF	n/a	n/a	COAT	Clothing	5	1	[0, 0, 0]	n/a	catFR1	1	R1465D
203.364	1.6	207406	WORD	n/a	wordpools/wordpool_categorized_EN.txt	SHIRT	Clothing	6	1	[0, 0, 0]	n/a	catFR1	1	R1465D
204.964	0.866	209007	WORD_OFF	n/a	n/a	SHIRT	Clothing	6	1	[0, 0, 0]	n/a	catFR1	1	R1465D
205.83	1.617	209871	WORD	n/a	wordpools/wordpool_categorized_EN.txt	FOOTBALL	Toys	7	1	[0, 0, 0]	n/a	catFR1	1	R1465D
207.447	0.867	211492	WORD_OFF	n/a	n/a	FOOTBALL	Toys	7	1	[0, 0, 0]	n/a	catFR1	1	R1465D
208.314	1.617	212356	WORD	n/a	wordpools/wordpool_categorized_EN.txt	SLINKY	Toys	8	1	[0, 0, 0]	n/a	catFR1	1	R1465D
209.931	0.817	213977	WORD_OFF	n/a	n/a	SLINKY	Toys	8	1	[0, 0, 0]	n/a	catFR1	1	R1465D
210.748	1.6	214792	WORD	n/a	wordpools/wordpool_categorized_EN.txt	SPEAKER	Electronics	9	1	[0, 0, 0]	n/a	catFR1	1	R1465D
212.348	0.783	216393	WORD_OFF	n/a	n/a	SPEAKER	Electronics	9	1	[0, 0, 0]	n/a	catFR1	1	R1465D
213.131	1.617	217174	WORD	n/a	wordpools/wordpool_categorized_EN.txt	HEADPHONES	Electronics	10	1	[0, 0, 0]	n/a	catFR1	1	R1465D
214.748	1.0	218789	WORD_OFF	n/a	n/a	HEADPHONES	Electronics	10	1	[0, 0, 0]	n/a	catFR1	1	R1465D
215.748	1.6	219791	WORD	n/a	wordpools/wordpool_categorized_EN.txt	BLOUSE	Clothing	11	1	[0, 0, 0]	n/a	catFR1	1	R1465D
217.348	0.9	221392	WORD_OFF	n/a	n/a	BLOUSE	Clothing	11	1	[0, 0, 0]	n/a	catFR1	1	R1465D
218.248	1.6	222286	WORD	n/a	wordpools/wordpool_categorized_EN.txt	SOCKS	Clothing	12	1	[0, 0, 0]	n/a	catFR1	1	R1465D
219.848	0.001	223887	WORD_OFF	n/a	n/a	SOCKS	Clothing	12	1	[0, 0, 0]	n/a	catFR1	1	R1465D
219.849	0.001	223892	PROB	2.916	n/a	n/a	n/a	-999	1	[2, 8, 2]	10.0	catFR1	1	R1465D
219.85	0.0	223893	START	n/a	n/a	n/a	n/a	-999	1	[-999, -999, -999]	n/a	catFR1	1	R1465D
219.85	0.0	223897	ENCODING_END	n/a	n/a	n/a	n/a	-999	1	[0, 0, 0]	n/a	catFR1	1	R1465D
219.85	2.932	223897	DISTRACT_START	n/a	n/a	n/a	n/a	-999	1	[0, 0, 0]	n/a	catFR1	1	R1465D
222.782	1.416	226824	PROB	1.399	n/a	n/a	n/a	-999	1	[5, 1, 5]	11.0	catFR1	1	R1465D
224.198	2.834	228240	PROB	2.817	n/a	n/a	n/a	-999	1	[4, 5, 7]	16.0	catFR1	1	R1465D
227.032	2.116	231074	PROB	2.099	n/a	n/a	n/a	-999	1	[7, 2, 7]	16.0	catFR1	1	R1465D
229.148	2.401	233190	PROB	2.382	n/a	n/a	n/a	-999	1	[6, 3, 8]	17.0	catFR1	1	R1465D
231.549	1.682	235591	PROB	1.666	n/a	n/a	n/a	-999	1	[6, 2, 4]	12.0	catFR1	1	R1465D
233.231	2.6	237273	PROB	2.582	n/a	n/a	n/a	-999	1	[8, 5, 7]	20.0	catFR1	1	R1465D
235.831	2.317	239873	PROB	2.299	n/a	n/a	n/a	-999	1	[2, 8, 8]	18.0	catFR1	1	R1465D
238.148	3.065	242190	PROB	3.05	n/a	n/a	n/a	-999	1	[8, 5, 1]	14.0	catFR1	1	R1465D
241.213	0.0	245254	STOP	n/a	n/a	n/a	n/a	-999	1	[-999, -999, -999]	n/a	catFR1	1	R1465D
241.213	2.135	245259	DISTRACT_END	n/a	n/a	n/a	n/a	-999	1	[0, 0, 0]	n/a	catFR1	1	R1465D
243.348	1.02	247389	REC_START	n/a	n/a	n/a	n/a	-999	1	[0, 0, 0]	n/a	catFR1	1	R1465D
244.368	2.66	248409	REC_WORD	1.02	n/a	BLOUSE	Clothing	11	1	[0, 0, 0]	n/a	catFR1	1	R1465D
247.028	1.526	251069	REC_WORD	3.68	n/a	BASKETBALL	Toys	2	1	[0, 0, 0]	n/a	catFR1	1	R1465D
248.554	3.864	252595	REC_WORD	5.206	n/a	SOCCER	n/a	-999	1	[0, 0, 0]	n/a	catFR1	1	R1465D
252.418	1.0	256459	REC_WORD	9.07	n/a	FOOTBALL	Toys	7	1	[0, 0, 0]	n/a	catFR1	1	R1465D
253.418	0.867	257459	REC_WORD_VV	10.07	n/a	<>	n/a	-999	1	[0, 0, 0]	n/a	catFR1	1	R1465D
254.285	1.942	258326	REC_WORD	10.937	n/a	SHIRT	Clothing	6	1	[0, 0, 0]	n/a	catFR1	1	R1465D
256.227	0.54	260268	REC_WORD_VV	12.879	n/a	<>	n/a	-999	1	[0, 0, 0]	n/a	catFR1	1	R1465D
256.767	1.0	260808	REC_WORD	13.419	n/a	SKIRT	n/a	-999	1	[0, 0, 0]	n/a	catFR1	1	R1465D
257.767	1.0	261808	REC_WORD_VV	14.419	n/a	<>	n/a	-999	1	[0, 0, 0]	n/a	catFR1	1	R1465D
258.767	1.0	262808	REC_WORD_VV	15.419	n/a	<>	n/a	-999	1	[0, 0, 0]	n/a	catFR1	1	R1465D
259.767	1.0	263807	REC_WORD_VV	16.419	n/a	<>	n/a	-999	1	[0, 0, 0]	n/a	catFR1	1	R1465D
260.767	1.0	264807	REC_WORD_VV	17.419	n/a	<>	n/a	-999	1	[0, 0, 0]	n/a	catFR1	1	R1465D
261.767	1.0	265807	REC_WORD_VV	18.419	n/a	<>	n/a	-999	1	[0, 0, 0]	n/a	catFR1	1	R1465D
262.767	1.0	266807	REC_WORD_VV	19.419	n/a	<>	n/a	-999	1	[0, 0, 0]	n/a	catFR1	1	R1465D
263.767	1.0	267807	REC_WORD_VV	20.419	n/a	<>	n/a	-999	1	[0, 0, 0]	n/a	catFR1	1	R1465D
264.767	1.0	268807	REC_WORD_VV	21.419	n/a	<>	n/a	-999	1	[0, 0, 0]	n/a	catFR1	1	R1465D
265.767	1.0	269807	REC_WORD_VV	22.419	n/a	<>	n/a	-999	1	[0, 0, 0]	n/a	catFR1	1	R1465D
266.767	1.0	270807	REC_WORD_VV	23.419	n/a	<>	n/a	-999	1	[0, 0, 0]	n/a	catFR1	1	R1465D
267.767	1.0	271807	REC_WORD_VV	24.419	n/a	<>	n/a	-999	1	[0, 0, 0]	n/a	catFR1	1	R1465D
268.767	4.769	272807	REC_WORD_VV	25.419	n/a	<>	n/a	-999	1	[0, 0, 0]	n/a	catFR1	1	R1465D
273.536	10.446	277573	REC_END	n/a	n/a	n/a	n/a	-999	1	[0, 0, 0]	n/a	catFR1	1	R1465D
283.982	10.349	288023	COUNTDOWN_START	n/a	n/a	n/a	n/a	-999	2	[0, 0, 0]	n/a	catFR1	1	R1465D
294.331	0.0	298365	COUNTDOWN_END	n/a	n/a	n/a	n/a	-999	2	[0, 0, 0]	n/a	catFR1	1	R1465D
294.331	1.951	298375	ENCODING_START	n/a	n/a	n/a	n/a	-999	2	[0, 0, 0]	n/a	catFR1	1	R1465D
296.282	1.599	300320	WORD	n/a	wordpools/wordpool_categorized_EN.txt	POTATO	Vegetables	1	2	[0, 0, 0]	n/a	catFR1	1	R1465D
297.881	0.784	301921	WORD_OFF	n/a	n/a	POTATO	Vegetables	1	2	[0, 0, 0]	n/a	catFR1	1	R1465D
298.665	1.6	302707	WORD	n/a	wordpools/wordpool_categorized_EN.txt	BROCCOLI	Vegetables	2	2	[0, 0, 0]	n/a	catFR1	1	R1465D
300.265	0.981	304298	WORD_OFF	n/a	n/a	BROCCOLI	Vegetables	2	2	[0, 0, 0]	n/a	catFR1	1	R1465D
301.246	1.601	305280	WORD	n/a	wordpools/wordpool_categorized_EN.txt	DAISY	Flowers	3	2	[0, 0, 0]	n/a	catFR1	1	R1465D
302.847	0.968	306881	WORD_OFF	n/a	n/a	DAISY	Flowers	3	2	[0, 0, 0]	n/a	catFR1	1	R1465D
303.815	1.6	307853	WORD	n/a	wordpools/wordpool_categorized_EN.txt	CARNATION	Flowers	4	2	[0, 0, 0]	n/a	catFR1	1	R1465D
305.415	0.833	309454	WORD_OFF	n/a	n/a	CARNATION	Flowers	4	2	[0, 0, 0]	n/a	catFR1	1	R1465D
306.248	1.615	310289	WORD	n/a	wordpools/wordpool_categorized_EN.txt	WALL	Building	5	2	[0, 0, 0]	n/a	catFR1	1	R1465D
307.863	0.884	311900	WORD_OFF	n/a	n/a	WALL	Building	5	2	[0, 0, 0]	n/a	catFR1	1	R1465D
308.747	1.601	312784	WORD	n/a	wordpools/wordpool_categorized_EN.txt	FLOOR	Building	6	2	[0, 0, 0]	n/a	catFR1	1	R1465D
310.348	0.832	314385	WORD_OFF	n/a	n/a	FLOOR	Building	6	2	[0, 0, 0]	n/a	catFR1	1	R1465D
311.18	1.601	315220	WORD	n/a	wordpools/wordpool_categorized_EN.txt	CORN	Vegetables	7	2	[0, 0, 0]	n/a	catFR1	1	R1465D
312.781	0.883	316821	WORD_OFF	n/a	n/a	CORN	Vegetables	7	2	[0, 0, 0]	n/a	catFR1	1	R1465D
313.664	1.601	317704	WORD	n/a	wordpools/wordpool_categorized_EN.txt	CELERY	Vegetables	8	2	[0, 0, 0]	n/a	catFR1	1	R1465D
315.265	0.799	319305	WORD_OFF	n/a	n/a	CELERY	Vegetables	8	2	[0, 0, 0]	n/a	catFR1	1	R1465D
316.064	1.601	320101	WORD	n/a	wordpools/wordpool_categorized_EN.txt	TULIP	Flowers	9	2	[0, 0, 0]	n/a	catFR1	1	R1465D
317.665	0.848	321702	WORD_OFF	n/a	n/a	TULIP	Flowers	9	2	[0, 0, 0]	n/a	catFR1	1	R1465D
318.513	1.601	322547	WORD	n/a	wordpools/wordpool_categorized_EN.txt	PETUNIA	Flowers	10	2	[0, 0, 0]	n/a	catFR1	1	R1465D
320.114	0.867	324148	WORD_OFF	n/a	n/a	PETUNIA	Flowers	10	2	[0, 0, 0]	n/a	catFR1	1	R1465D
320.981	1.615	325022	WORD	n/a	wordpools/wordpool_categorized_EN.txt	DOOR	Building	11	2	[0, 0, 0]	n/a	catFR1	1	R1465D
322.596	0.752	326632	WORD_OFF	n/a	n/a	DOOR	Building	11	2	[0, 0, 0]	n/a	catFR1	1	R1465D
323.348	1.601	327389	WORD	n/a	wordpools/wordpool_categorized_EN.txt	ROOF	Building	12	2	[0, 0, 0]	n/a	catFR1	1	R1465D
324.949	0.002	328986	START	n/a	n/a	n/a	n/a	-999	2	[-999, -999, -999]	n/a	catFR1	1	R1465D
324.951	0.0	328988	PROB	3.333	n/a	n/a	n/a	-999	2	[2, 5, 4]	11.0	catFR1	1	R1465D
324.948	0.001	328990	WORD_OFF	n/a	n/a	ROOF	Building	12	2	[0, 0, 0]	n/a	catFR1	1	R1465D
324.949	0.0	328990	ENCODING_END	n/a	n/a	n/a	n/a	-999	2	[0, 0, 0]	n/a	catFR1	1	R1465D
324.949	3.349	328990	DISTRACT_START	n/a	n/a	n/a	n/a	-999	2	[0, 0, 0]	n/a	catFR1	1	R1465D
328.298	2.6	332335	PROB	2.583	n/a	n/a	n/a	-999	2	[8, 7, 4]	19.0	catFR1	1	R1465D
330.898	1.784	334935	PROB	1.767	n/a	n/a	n/a	-999	2	[6, 4, 1]	11.0	catFR1	1	R1465D
332.682	2.782	336718	PROB	2.766	n/a	n/a	n/a	-999	2	[6, 8, 8]	22.0	catFR1	1	R1465D
335.464	1.6	339500	PROB	1.583	n/a	n/a	n/a	-999	2	[7, 1, 4]	12.0	catFR1	1	R1465D
337.064	1.883	341100	PROB	1.866	n/a	n/a	n/a	-999	2	[3, 3, 2]	8.0	catFR1	1	R1465D
338.947	1.502	342983	PROB	1.484	n/a	n/a	n/a	-999	2	[4, 1, 4]	9.0	catFR1	1	R1465D
340.449	1.668	344485	PROB	1.649	n/a	n/a	n/a	-999	2	[6, 2, 1]	9.0	catFR1	1	R1465D
342.117	2.681	346153	PROB	2.666	n/a	n/a	n/a	-999	2	[6, 7, 6]	19.0	catFR1	1	R1465D
344.798	2.416	348834	PROB	2.4	n/a	n/a	n/a	-999	2	[5, 6, 6]	17.0	catFR1	1	R1465D
347.214	0.0	351246	DISTRACT_END	n/a	n/a	n/a	n/a	-999	2	[0, 0, 0]	n/a	catFR1	1	R1465D
347.214	2.151	351250	STOP	n/a	n/a	n/a	n/a	-999	2	[-999, -999, -999]	n/a	catFR1	1	R1465D
349.365	1.709	353400	REC_START	n/a	n/a	n/a	n/a	-999	2	[0, 0, 0]	n/a	catFR1	1	R1465D
351.074	1.469	355110	REC_WORD	1.709	n/a	PETUNIA	Flowers	10	2	[0, 0, 0]	n/a	catFR1	1	R1465D
352.543	1.501	356578	REC_WORD	3.178	n/a	DOOR	Building	11	2	[0, 0, 0]	n/a	catFR1	1	R1465D
354.044	4.751	358079	REC_WORD	4.679	n/a	BROCCOLI	Vegetables	2	2	[0, 0, 0]	n/a	catFR1	1	R1465D
358.795	7.311	362830	REC_WORD	9.43	n/a	TULIP	Flowers	9	2	[0, 0, 0]	n/a	catFR1	1	R1465D
366.106	6.46	370141	REC_WORD	16.741	n/a	DAISY	Flowers	3	2	[0, 0, 0]	n/a	catFR1	1	R1465D
372.566	0.421	376600	REC_WORD	23.201	n/a	DAISY	Flowers	3	2	[0, 0, 0]	n/a	catFR1	1	R1465D
372.987	1.0	377021	REC_WORD	23.622	n/a	DUKES	n/a	-999	2	[0, 0, 0]	n/a	catFR1	1	R1465D
373.987	1.0	378021	REC_WORD_VV	24.622	n/a	<>	n/a	-999	2	[0, 0, 0]	n/a	catFR1	1	R1465D
374.987	1.0	379021	REC_WORD_VV	25.622	n/a	<>	n/a	-999	2	[0, 0, 0]	n/a	catFR1	1	R1465D
375.987	1.0	380021	REC_WORD_VV	26.622	n/a	<>	n/a	-999	2	[0, 0, 0]	n/a	catFR1	1	R1465D
376.987	0.595	381021	REC_WORD_VV	27.622	n/a	<>	n/a	-999	2	[0, 0, 0]	n/a	catFR1	1	R1465D
377.582	0.919	381616	REC_WORD	28.217	n/a	FLOOR	Building	6	2	[0, 0, 0]	n/a	catFR1	1	R1465D
378.501	1.057	382535	REC_WORD	29.136	n/a	WALL	Building	5	2	[0, 0, 0]	n/a	catFR1	1	R1465D
379.558	9.774	383589	REC_END	n/a	n/a	n/a	n/a	-999	2	[0, 0, 0]	n/a	catFR1	1	R1465D
389.332	10.349	393371	COUNTDOWN_START	n/a	n/a	n/a	n/a	-999	3	[0, 0, 0]	n/a	catFR1	1	R1465D
399.681	0.0	403714	COUNTDOWN_END	n/a	n/a	n/a	n/a	-999	3	[0, 0, 0]	n/a	catFR1	1	R1465D
399.681	1.982	403714	ENCODING_START	n/a	n/a	n/a	n/a	-999	3	[0, 0, 0]	n/a	catFR1	1	R1465D
401.663	1.602	405698	WORD	n/a	wordpools/wordpool_categorized_EN.txt	SKIRT	Clothing	1	3	[0, 0, 0]	n/a	catFR1	1	R1465D
403.265	0.783	407299	WORD_OFF	n/a	n/a	SKIRT	Clothing	1	3	[0, 0, 0]	n/a	catFR1	1	R1465D
404.048	1.6	408084	WORD	n/a	wordpools/wordpool_categorized_EN.txt	DRESS	Clothing	2	3	[0, 0, 0]	n/a	catFR1	1	R1465D
405.648	0.816	409685	WORD_OFF	n/a	n/a	DRESS	Clothing	2	3	[0, 0, 0]	n/a	catFR1	1	R1465D
406.464	1.601	410501	WORD	n/a	wordpools/wordpool_categorized_EN.txt	COLA	Beverages	3	3	[0, 0, 0]	n/a	catFR1	1	R1465D
408.065	0.782	412102	WORD_OFF	n/a	n/a	COLA	Beverages	3	3	[0, 0, 0]	n/a	catFR1	1	R1465D
408.847	1.617	412878	WORD	n/a	wordpools/wordpool_categorized_EN.txt	TEA	Beverages	4	3	[0, 0, 0]	n/a	catFR1	1	R1465D
410.464	0.9	414498	WORD_OFF	n/a	n/a	TEA	Beverages	4	3	[0, 0, 0]	n/a	catFR1	1	R1465D
411.364	1.6	415392	WORD	n/a	wordpools/wordpool_categorized_EN.txt	GORILLA	Zoo	5	3	[0, 0, 0]	n/a	catFR1	1	R1465D
412.964	0.833	416993	WORD_OFF	n/a	n/a	GORILLA	Zoo	5	3	[0, 0, 0]	n/a	catFR1	1	R1465D
413.797	1.601	417828	WORD	n/a	wordpools/wordpool_categorized_EN.txt	MONKEY	Zoo	6	3	[0, 0, 0]	n/a	catFR1	1	R1465D
415.398	0.766	419429	WORD_OFF	n/a	n/a	MONKEY	Zoo	6	3	[0, 0, 0]	n/a	catFR1	1	R1465D
416.164	1.6	420195	WORD	n/a	wordpools/wordpool_categorized_EN.txt	SHOES	Clothing	7	3	[0, 0, 0]	n/a	catFR1	1	R1465D
417.764	0.767	421796	WORD_OFF	n/a	n/a	SHOES	Clothing	7	3	[0, 0, 0]	n/a	catFR1	1	R1465D
418.531	1.616	422562	WORD	n/a	wordpools/wordpool_categorized_EN.txt	SHORTS	Clothing	8	3	[0, 0, 0]	n/a	catFR1	1	R1465D
420.147	0.817	424182	WORD_OFF	n/a	n/a	SHORTS	Clothing	8	3	[0, 0, 0]	n/a	catFR1	1	R1465D
420.964	1.601	424998	WORD	n/a	wordpools/wordpool_categorized_EN.txt	RUM	Beverages	9	3	[0, 0, 0]	n/a	catFR1	1	R1465D
422.565	0.766	426599	WORD_OFF	n/a	n/a	RUM	Beverages	9	3	[0, 0, 0]	n/a	catFR1	1	R1465D
423.331	1.617	427365	WORD	n/a	wordpools/wordpool_categorized_EN.txt	JUICE	Beverages	10	3	[0, 0, 0]	n/a	catFR1	1	R1465D
424.948	0.899	428975	WORD_OFF	n/a	n/a	JUICE	Beverages	10	3	[0, 0, 0]	n/a	catFR1	1	R1465D
425.847	1.602	429879	WORD	n/a	wordpools/wordpool_categorized_EN.txt	GIRAFFE	Zoo	11	3	[0, 0, 0]	n/a	catFR1	1	R1465D
427.449	0.899	431480	WORD_OFF	n/a	n/a	GIRAFFE	Zoo	11	3	[0, 0, 0]	n/a	catFR1	1	R1465D
428.348	1.617	432384	WORD	n/a	wordpools/wordpool_categorized_EN.txt	CHEETAH	Zoo	12	3	[0, 0, 0]	n/a	catFR1	1	R1465D
429.965	0.001	433994	WORD_OFF	n/a	n/a	CHEETAH	Zoo	12	3	[0, 0, 0]	n/a	catFR1	1	R1465D
429.966	0.0	433994	ENCODING_END	n/a	n/a	n/a	n/a	-999	3	[0, 0, 0]	n/a	catFR1	1	R1465D
429.965	0.001	433996	PROB	3.216	n/a	n/a	n/a	-999	3	[5, 7, 6]	18.0	catFR1	1	R1465D
429.966	0.0	433997	START	n/a	n/a	n/a	n/a	-999	3	[-999, -999, -999]	n/a	catFR1	1	R1465D
429.966	3.231	434004	DISTRACT_START	n/a	n/a	n/a	n/a	-999	3	[0, 0, 0]	n/a	catFR1	1	R1465D
433.197	2.201	437228	PROB	2.184	n/a	n/a	n/a	-999	3	[3, 8, 2]	13.0	catFR1	1	R1465D
435.398	2.5	439429	PROB	2.483	n/a	n/a	n/a	-999	3	[7, 6, 3]	16.0	catFR1	1	R1465D
437.898	2.067	441929	PROB	2.05	n/a	n/a	n/a	-999	3	[8, 7, 1]	16.0	catFR1	1	R1465D
439.965	1.934	443996	PROB	1.916	n/a	n/a	n/a	-999	3	[4, 1, 5]	10.0	catFR1	1	R1465D
441.899	2.483	445930	PROB	2.465	n/a	n/a	n/a	-999	3	[5, 6, 4]	15.0	catFR1	1	R1465D
444.382	1.967	448412	PROB	1.949	n/a	n/a	n/a	-999	3	[3, 5, 1]	9.0	catFR1	1	R1465D
446.349	1.649	450379	PROB	1.633	n/a	n/a	n/a	-999	3	[3, 1, 1]	5.0	catFR1	1	R1465D
447.998	2.55	452028	PROB	2.533	n/a	n/a	n/a	-999	3	[4, 7, 4]	15.0	catFR1	1	R1465D
450.548	0.0	454578	STOP	n/a	n/a	n/a	n/a	-999	3	[-999, -999, -999]	n/a	catFR1	1	R1465D
450.548	2.133	454581	DISTRACT_END	n/a	n/a	n/a	n/a	-999	3	[0, 0, 0]	n/a	catFR1	1	R1465D
452.681	0.0	456710	REC_START	n/a	n/a	n/a	n/a	-999	3	[0, 0, 0]	n/a	catFR1	1	R1465D
452.681	0.992	456711	REC_WORD	0.0	n/a	CHEETAH	Zoo	12	3	[0, 0, 0]	n/a	catFR1	1	R1465D
453.673	1.0	457703	REC_WORD	0.992	n/a	GORILLA	Zoo	5	3	[0, 0, 0]	n/a	catFR1	1	R1465D
454.673	0.959	458703	REC_WORD_VV	1.992	n/a	<>	n/a	-999	3	[0, 0, 0]	n/a	catFR1	1	R1465D
455.632	3.098	459662	REC_WORD	2.951	n/a	MONKEY	Zoo	6	3	[0, 0, 0]	n/a	catFR1	1	R1465D
458.73	1.173	462760	REC_WORD	6.049	n/a	SKIRT	Clothing	1	3	[0, 0, 0]	n/a	catFR1	1	R1465D
459.903	3.855	463933	REC_WORD	7.222	n/a	DRESS	Clothing	2	3	[0, 0, 0]	n/a	catFR1	1	R1465D
463.758	1.181	467787	REC_WORD_VV	11.077	n/a	<>	n/a	-999	3	[0, 0, 0]	n/a	catFR1	1	R1465D
464.939	1.0	468968	REC_WORD	12.258	n/a	BLOUSE	Clothing	-999	3	[0, 0, 0]	n/a	catFR1	1	R1465D
465.939	1.0	469968	REC_WORD_VV	13.258	n/a	<>	n/a	-999	3	[0, 0, 0]	n/a	catFR1	1	R1465D
466.939	1.328	470968	REC_WORD_VV	14.258	n/a	<>	n/a	-999	3	[0, 0, 0]	n/a	catFR1	1	R1465D
468.267	1.27	472296	REC_WORD	15.586	n/a	SHIRT	Clothing	-999	3	[0, 0, 0]	n/a	catFR1	1	R1465D
469.537	0.782	473566	REC_WORD	16.856	n/a	SKIRT	Clothing	1	3	[0, 0, 0]	n/a	catFR1	1	R1465D
470.319	1.279	474348	REC_WORD	17.638	n/a	DRESS	Clothing	2	3	[0, 0, 0]	n/a	catFR1	1	R1465D
471.598	0.476	475627	REC_WORD	18.917	n/a	MONKEY	Zoo	6	3	[0, 0, 0]	n/a	catFR1	1	R1465D
472.074	1.969	476103	REC_WORD	19.393	n/a	GORILLA	Zoo	5	3	[0, 0, 0]	n/a	catFR1	1	R1465D
474.043	7.287	478072	REC_WORD	21.362	n/a	CHEETAH	Zoo	12	3	[0, 0, 0]	n/a	catFR1	1	R1465D
481.33	1.0	485358	REC_WORD_VV	28.649	n/a	<>	n/a	-999	3	[0, 0, 0]	n/a	catFR1	1	R1465D
482.33	0.541	486358	REC_WORD_VV	29.649	n/a	<>	n/a	-999	3	[0, 0, 0]	n/a	catFR1	1	R1465D
482.871	14.343	486894	REC_END	n/a	n/a	n/a	n/a	-999	3	[0, 0, 0]	n/a	catFR1	1	R1465D
497.214	10.351	501244	COUNTDOWN_START	n/a	n/a	n/a	n/a	-999	4	[0, 0, 0]	n/a	catFR1	1	R1465D
507.565	0.0	511596	COUNTDOWN_END	n/a	n/a	n/a	n/a	-999	4	[0, 0, 0]	n/a	catFR1	1	R1465D
507.565	1.932	511596	ENCODING_START	n/a	n/a	n/a	n/a	-999	4	[0, 0, 0]	n/a	catFR1	1	R1465D
509.497	1.601	513521	WORD	n/a	wordpools/wordpool_categorized_EN.txt	FOREST	Landscapes	1	4	[0, 0, 0]	n/a	catFR1	1	R1465D
511.098	0.85	515122	WORD_OFF	n/a	n/a	FOREST	Landscapes	1	4	[0, 0, 0]	n/a	catFR1	1	R1465D
511.948	1.6	515977	WORD	n/a	wordpools/wordpool_categorized_EN.txt	VALLEY	Landscapes	2	4	[0, 0, 0]	n/a	catFR1	1	R1465D
513.548	0.982	517578	WORD_OFF	n/a	n/a	VALLEY	Landscapes	2	4	[0, 0, 0]	n/a	catFR1	1	R1465D
514.53	1.6	518560	WORD	n/a	wordpools/wordpool_categorized_EN.txt	OYSTER	OceanAnimals	3	4	[0, 0, 0]	n/a	catFR1	1	R1465D
516.13	0.784	520161	WORD_OFF	n/a	n/a	OYSTER	OceanAnimals	3	4	[0, 0, 0]	n/a	catFR1	1	R1465D
516.914	1.6	520937	WORD	n/a	wordpools/wordpool_categorized_EN.txt	DOLPHIN	OceanAnimals	4	4	[0, 0, 0]	n/a	catFR1	1	R1465D
518.514	0.85	522538	WORD_OFF	n/a	n/a	DOLPHIN	OceanAnimals	4	4	[0, 0, 0]	n/a	catFR1	1	R1465D
519.364	1.601	523392	WORD	n/a	wordpools/wordpool_categorized_EN.txt	STAIRS	Building	5	4	[0, 0, 0]	n/a	catFR1	1	R1465D
520.965	0.866	524993	WORD_OFF	n/a	n/a	STAIRS	Building	5	4	[0, 0, 0]	n/a	catFR1	1	R1465D
521.831	1.617	525857	WORD	n/a	wordpools/wordpool_categorized_EN.txt	HALLWAY	Building	6	4	[0, 0, 0]	n/a	catFR1	1	R1465D
523.448	0.866	527478	WORD_OFF	n/a	n/a	HALLWAY	Building	6	4	[0, 0, 0]	n/a	catFR1	1	R1465D
524.314	1.617	528342	WORD	n/a	wordpools/wordpool_categorized_EN.txt	OCEAN	Landscapes	7	4	[0, 0, 0]	n/a	catFR1	1	R1465D
525.931	0.884	529953	WORD_OFF	n/a	n/a	OCEAN	Landscapes	7	4	[0, 0, 0]	n/a	catFR1	1	R1465D
526.815	1.616	530837	WORD	n/a	wordpools/wordpool_categorized_EN.txt	ISLAND	Landscapes	8	4	[0, 0, 0]	n/a	catFR1	1	R1465D
528.431	0.834	532458	WORD_OFF	n/a	n/a	ISLAND	Landscapes	8	4	[0, 0, 0]	n/a	catFR1	1	R1465D
529.265	1.6	533292	WORD	n/a	wordpools/wordpool_categorized_EN.txt	CEILING	Building	9	4	[0, 0, 0]	n/a	catFR1	1	R1465D
530.865	0.882	534893	WORD_OFF	n/a	n/a	CEILING	Building	9	4	[0, 0, 0]	n/a	catFR1	1	R1465D
531.747	1.601	535777	WORD	n/a	wordpools/wordpool_categorized_EN.txt	BATHROOM	Building	10	4	[0, 0, 0]	n/a	catFR1	1	R1465D
533.348	0.9	537378	WORD_OFF	n/a	n/a	BATHROOM	Building	10	4	[0, 0, 0]	n/a	catFR1	1	R1465D
534.248	1.617	538272	WORD	n/a	wordpools/wordpool_categorized_EN.txt	SHRIMP	OceanAnimals	11	4	[0, 0, 0]	n/a	catFR1	1	R1465D
535.865	0.816	539893	WORD_OFF	n/a	n/a	SHRIMP	OceanAnimals	11	4	[0, 0, 0]	n/a	catFR1	1	R1465D
536.681	1.617	540708	WORD	n/a	wordpools/wordpool_categorized_EN.txt	LOBSTER	OceanAnimals	12	4	[0, 0, 0]	n/a	catFR1	1	R1465D
538.298	0.001	542319	WORD_OFF	n/a	n/a	LOBSTER	OceanAnimals	12	4	[0, 0, 0]	n/a	catFR1	1	R1465D
538.299	0.0	542324	PROB	2.966	n/a	n/a	n/a	-999	4	[6, 6, 7]	19.0	catFR1	1	R1465D
538.299	0.0	542324	START	n/a	n/a	n/a	n/a	-999	4	[-999, -999, -999]	n/a	catFR1	1	R1465D
538.299	0.0	542328	ENCODING_END	n/a	n/a	n/a	n/a	-999	4	[0, 0, 0]	n/a	catFR1	1	R1465D
538.299	2.983	542328	DISTRACT_START	n/a	n/a	n/a	n/a	-999	4	[0, 0, 0]	n/a	catFR1	1	R1465D
541.282	1.516	545307	PROB	1.499	n/a	n/a	n/a	-999	4	[4, 1, 7]	12.0	catFR1	1	R1465D
542.798	1.2	546823	PROB	1.183	n/a	n/a	n/a	-999	4	[1, 3, 1]	5.0	catFR1	1	R1465D
543.998	1.733	548023	PROB	1.716	n/a	n/a	n/a	-999	4	[3, 6, 7]	16.0	catFR1	1	R1465D
545.731	1.967	549756	PROB	1.95	n/a	n/a	n/a	-999	4	[7, 6, 6]	19.0	catFR1	1	R1465D
547.698	2.067	551723	PROB	2.05	n/a	n/a	n/a	-999	4	[6, 4, 7]	17.0	catFR1	1	R1465D
549.765	1.767	553790	PROB	1.75	n/a	n/a	n/a	-999	4	[5, 5, 8]	18.0	catFR1	1	R1465D
551.532	2.199	555557	PROB	2.182	n/a	n/a	n/a	-999	4	[4, 8, 5]	17.0	catFR1	1	R1465D
553.731	2.433	557755	PROB	2.417	n/a	n/a	n/a	-999	4	[6, 3, 8]	17.0	catFR1	1	R1465D
556.164	2.817	560188	PROB	2.8	n/a	n/a	n/a	-999	4	[6, 8, 3]	17.0	catFR1	1	R1465D
558.981	0.0	563003	DISTRACT_END	n/a	n/a	n/a	n/a	-999	4	[0, 0, 0]	n/a	catFR1	1	R1465D
558.981	2.017	563005	STOP	n/a	n/a	n/a	n/a	-999	4	[-999, -999, -999]	n/a	catFR1	1	R1465D
560.998	2.035	565025	REC_START	n/a	n/a	n/a	n/a	-999	4	[0, 0, 0]	n/a	catFR1	1	R1465D
563.033	1.223	567057	REC_WORD	2.035	n/a	FLOOR	Building	-999	4	[0, 0, 0]	n/a	catFR1	1	R1465D
564.256	1.261	568280	REC_WORD	3.258	n/a	OCEAN	Landscapes	7	4	[0, 0, 0]	n/a	catFR1	1	R1465D
565.517	1.087	569541	REC_WORD	4.519	n/a	SHRIMP	OceanAnimals	11	4	[0, 0, 0]	n/a	catFR1	1	R1465D
566.604	3.599	570628	REC_WORD	5.606	n/a	LOBSTER	OceanAnimals	12	4	[0, 0, 0]	n/a	catFR1	1	R1465D
570.203	0.219	574227	REC_WORD_VV	9.205	n/a	<>	n/a	-999	4	[0, 0, 0]	n/a	catFR1	1	R1465D
570.422	2.455	574446	REC_WORD	9.424	n/a	SCALLOPS	n/a	-999	4	[0, 0, 0]	n/a	catFR1	1	R1465D
572.877	0.177	576901	REC_WORD_VV	11.879	n/a	<>	n/a	-999	4	[0, 0, 0]	n/a	catFR1	1	R1465D
573.054	1.0	577078	REC_WORD	12.056	n/a	BACON	n/a	-999	4	[0, 0, 0]	n/a	catFR1	1	R1465D
574.054	3.839	578077	REC_WORD_VV	13.056	n/a	<>	n/a	-999	4	[0, 0, 0]	n/a	catFR1	1	R1465D
577.893	0.558	581916	REC_WORD	16.895	n/a	FLOOR	Building	-999	4	[0, 0, 0]	n/a	catFR1	1	R1465D
578.451	6.293	582474	REC_WORD	17.453	n/a	OCEAN	Landscapes	7	4	[0, 0, 0]	n/a	catFR1	1	R1465D
584.744	6.13	588767	REC_WORD_VV	23.746	n/a	<>	n/a	-999	4	[0, 0, 0]	n/a	catFR1	1	R1465D
590.874	0.337	594897	REC_WORD_VV	29.876	n/a	<>	n/a	-999	4	[0, 0, 0]	n/a	catFR1	1	R1465D
591.211	31.169	595238	REC_END	n/a	n/a	n/a	n/a	-999	4	[0, 0, 0]	n/a	catFR1	1	R1465D
622.38	10.35	626403	COUNTDOWN_START	n/a	n/a	n/a	n/a	-999	5	[0, 0, 0]	n/a	catFR1	1	R1465D
632.73	0.0	636755	COUNTDOWN_END	n/a	n/a	n/a	n/a	-999	5	[0, 0, 0]	n/a	catFR1	1	R1465D
632.73	2.168	636755	ENCODING_START	n/a	n/a	n/a	n/a	-999	5	[0, 0, 0]	n/a	catFR1	1	R1465D
634.898	1.616	638916	WORD	n/a	wordpools/wordpool_categorized_EN.txt	WATER	Beverages	1	5	[0, 0, 0]	n/a	catFR1	1	R1465D
636.514	1.0	640536	WORD_OFF	n/a	n/a	WATER	Beverages	1	5	[0, 0, 0]	n/a	catFR1	1	R1465D
637.514	1.601	641538	WORD	n/a	wordpools/wordpool_categorized_EN.txt	CIDER	Beverages	2	5	[0, 0, 0]	n/a	catFR1	1	R1465D
639.115	0.95	643139	WORD_OFF	n/a	n/a	CIDER	Beverages	2	5	[0, 0, 0]	n/a	catFR1	1	R1465D
640.065	1.616	644082	WORD	n/a	wordpools/wordpool_categorized_EN.txt	PEACH	Fruit	3	5	[0, 0, 0]	n/a	catFR1	1	R1465D
641.681	0.767	645703	WORD_OFF	n/a	n/a	PEACH	Fruit	3	5	[0, 0, 0]	n/a	catFR1	1	R1465D
642.448	1.617	646469	WORD	n/a	wordpools/wordpool_categorized_EN.txt	GRAPE	Fruit	4	5	[0, 0, 0]	n/a	catFR1	1	R1465D
644.065	0.783	648089	WORD_OFF	n/a	n/a	GRAPE	Fruit	4	5	[0, 0, 0]	n/a	catFR1	1	R1465D
644.848	1.617	648865	WORD	n/a	wordpools/wordpool_categorized_EN.txt	ATTIC	Building	5	5	[0, 0, 0]	n/a	catFR1	1	R1465D
646.465	0.9	650486	WORD_OFF	n/a	n/a	ATTIC	Building	5	5	[0, 0, 0]	n/a	catFR1	1	R1465D
647.365	1.616	651380	WORD	n/a	wordpools/wordpool_categorized_EN.txt	FOUNDATION	Building	6	5	[0, 0, 0]	n/a	catFR1	1	R1465D
648.981	0.867	653000	WORD_OFF	n/a	n/a	FOUNDATION	Building	6	5	[0, 0, 0]	n/a	catFR1	1	R1465D
649.848	1.616	653865	WORD	n/a	wordpools/wordpool_categorized_EN.txt	LIME	Fruit	7	5	[0, 0, 0]	n/a	catFR1	1	R1465D
651.464	0.767	655485	WORD_OFF	n/a	n/a	LIME	Fruit	7	5	[0, 0, 0]	n/a	catFR1	1	R1465D
652.231	1.6	656251	WORD	n/a	wordpools/wordpool_categorized_EN.txt	BLUEBERRY	Fruit	8	5	[0, 0, 0]	n/a	catFR1	1	R1465D
653.831	0.967	657852	WORD_OFF	n/a	n/a	BLUEBERRY	Fruit	8	5	[0, 0, 0]	n/a	catFR1	1	R1465D
654.798	1.6	658815	WORD	n/a	wordpools/wordpool_categorized_EN.txt	BEER	Beverages	9	5	[0, 0, 0]	n/a	catFR1	1	R1465D
656.398	0.967	660416	WORD_OFF	n/a	n/a	BEER	Beverages	9	5	[0, 0, 0]	n/a	catFR1	1	R1465D
657.365	1.616	661388	WORD	n/a	wordpools/wordpool_categorized_EN.txt	COFFEE	Beverages	10	5	[0, 0, 0]	n/a	catFR1	1	R1465D
658.981	0.983	662999	WORD_OFF	n/a	n/a	COFFEE	Beverages	10	5	[0, 0, 0]	n/a	catFR1	1	R1465D
659.964	1.617	663981	WORD	n/a	wordpools/wordpool_categorized_EN.txt	WINDOW	Building	11	5	[0, 0, 0]	n/a	catFR1	1	R1465D
661.581	0.95	665602	WORD_OFF	n/a	n/a	WINDOW	Building	11	5	[0, 0, 0]	n/a	catFR1	1	R1465D
662.531	1.6	666554	WORD	n/a	wordpools/wordpool_categorized_EN.txt	ROOM	Building	12	5	[0, 0, 0]	n/a	catFR1	1	R1465D
664.131	0.001	668145	WORD_OFF	n/a	n/a	ROOM	Building	12	5	[0, 0, 0]	n/a	catFR1	1	R1465D
664.132	0.001	668151	PROB	3.133	n/a	n/a	n/a	-999	5	[1, 2, 7]	10.0	catFR1	1	R1465D
664.133	0.0	668152	START	n/a	n/a	n/a	n/a	-999	5	[-999, -999, -999]	n/a	catFR1	1	R1465D
664.133	0.0	668155	ENCODING_END	n/a	n/a	n/a	n/a	-999	5	[0, 0, 0]	n/a	catFR1	1	R1465D
664.133	3.149	668155	DISTRACT_START	n/a	n/a	n/a	n/a	-999	5	[0, 0, 0]	n/a	catFR1	1	R1465D
667.282	2.283	671300	PROB	2.266	n/a	n/a	n/a	-999	5	[4, 3, 5]	12.0	catFR1	1	R1465D
669.565	1.767	673583	PROB	1.75	n/a	n/a	n/a	-999	5	[4, 2, 2]	8.0	catFR1	1	R1465D
671.332	2.366	675350	PROB	2.35	n/a	n/a	n/a	-999	5	[8, 7, 8]	23.0	catFR1	1	R1465D
673.698	3.434	677716	PROB	3.417	n/a	n/a	n/a	-999	5	[7, 6, 1]	14.0	catFR1	1	R1465D
677.132	2.216	681150	PROB	2.199	n/a	n/a	n/a	-999	5	[2, 1, 4]	7.0	catFR1	1	R1465D
679.348	2.0	683366	PROB	1.984	n/a	n/a	n/a	-999	5	[8, 5, 5]	18.0	catFR1	1	R1465D
681.348	1.817	685366	PROB	1.8	n/a	n/a	n/a	-999	5	[4, 3, 2]	9.0	catFR1	1	R1465D
683.165	2.216	687182	PROB	2.199	n/a	n/a	n/a	-999	5	[8, 8, 5]	21.0	catFR1	1	R1465D
685.381	0.0	689398	STOP	n/a	n/a	n/a	n/a	-999	5	[-999, -999, -999]	n/a	catFR1	1	R1465D
685.381	2.084	689400	DISTRACT_END	n/a	n/a	n/a	n/a	-999	5	[0, 0, 0]	n/a	catFR1	1	R1465D
687.465	1.084	691480	REC_START	n/a	n/a	n/a	n/a	-999	5	[0, 0, 0]	n/a	catFR1	1	R1465D
688.549	1.184	692566	REC_WORD	1.084	n/a	WINDOW	Building	11	5	[0, 0, 0]	n/a	catFR1	1	R1465D
689.733	1.092	693750	REC_WORD	2.268	n/a	ATTIC	Building	5	5	[0, 0, 0]	n/a	catFR1	1	R1465D
690.825	1.32	694842	REC_WORD	3.36	n/a	ROOM	Building	12	5	[0, 0, 0]	n/a	catFR1	1	R1465D
692.145	2.786	696162	REC_WORD	4.68	n/a	PEACH	Fruit	3	5	[0, 0, 0]	n/a	catFR1	1	R1465D
694.931	1.695	698948	REC_WORD	7.466	n/a	WATER	Beverages	1	5	[0, 0, 0]	n/a	catFR1	1	R1465D
696.626	4.068	700643	REC_WORD	9.161	n/a	BEER	Beverages	9	5	[0, 0, 0]	n/a	catFR1	1	R1465D
700.694	0.29	704711	REC_WORD	13.229	n/a	PEACH	Fruit	3	5	[0, 0, 0]	n/a	catFR1	1	R1465D
700.984	0.73	705001	REC_WORD	13.519	n/a	PLUM	n/a	-999	5	[0, 0, 0]	n/a	catFR1	1	R1465D
701.714	1.0	705731	REC_WORD	14.249	n/a	GRAPE	Fruit	4	5	[0, 0, 0]	n/a	catFR1	1	R1465D
702.714	1.0	706730	REC_WORD_VV	15.249	n/a	<>	n/a	-999	5	[0, 0, 0]	n/a	catFR1	1	R1465D
703.714	1.0	707730	REC_WORD_VV	16.249	n/a	<>	n/a	-999	5	[0, 0, 0]	n/a	catFR1	1	R1465D
704.714	1.0	708730	REC_WORD_VV	17.249	n/a	<>	n/a	-999	5	[0, 0, 0]	n/a	catFR1	1	R1465D
705.714	5.979	709730	REC_WORD_VV	18.249	n/a	<>	n/a	-999	5	[0, 0, 0]	n/a	catFR1	1	R1465D
711.693	0.923	715709	REC_WORD	24.228	n/a	FOUNDATION	Building	6	5	[0, 0, 0]	n/a	catFR1	1	R1465D
712.616	1.0	716632	REC_WORD	25.151	n/a	ATTIC	Building	5	5	[0, 0, 0]	n/a	catFR1	1	R1465D
713.616	0.327	717632	REC_WORD_VV	26.151	n/a	<>	n/a	-999	5	[0, 0, 0]	n/a	catFR1	1	R1465D
713.943	1.0	717959	REC_WORD	26.478	n/a	FOUNDATION	Building	6	5	[0, 0, 0]	n/a	catFR1	1	R1465D
714.943	1.0	718959	REC_WORD_VV	27.478	n/a	<>	n/a	-999	5	[0, 0, 0]	n/a	catFR1	1	R1465D
715.943	1.0	719959	REC_WORD_VV	28.478	n/a	<>	n/a	-999	5	[0, 0, 0]	n/a	catFR1	1	R1465D
716.943	0.744	720959	REC_WORD_VV	29.478	n/a	<>	n/a	-999	5	[0, 0, 0]	n/a	catFR1	1	R1465D
717.687	25.844	721704	REC_END	n/a	n/a	n/a	n/a	-999	5	[0, 0, 0]	n/a	catFR1	1	R1465D
743.531	10.35	747545	COUNTDOWN_START	n/a	n/a	n/a	n/a	-999	6	[0, 0, 0]	n/a	catFR1	1	R1465D
753.881	0.0	757897	COUNTDOWN_END	n/a	n/a	n/a	n/a	-999	6	[0, 0, 0]	n/a	catFR1	1	R1465D
753.881	2.184	757897	ENCODING_START	n/a	n/a	n/a	n/a	-999	6	[0, 0, 0]	n/a	catFR1	1	R1465D
756.065	1.616	760077	WORD	n/a	wordpools/wordpool_categorized_EN.txt	LEG	BodyParts	1	6	[0, 0, 0]	n/a	catFR1	1	R1465D
757.681	0.867	761698	WORD_OFF	n/a	n/a	LEG	BodyParts	1	6	[0, 0, 0]	n/a	catFR1	1	R1465D
758.548	1.6	762562	WORD	n/a	wordpools/wordpool_categorized_EN.txt	TOE	BodyParts	2	6	[0, 0, 0]	n/a	catFR1	1	R1465D
760.148	0.833	764163	WORD_OFF	n/a	n/a	TOE	BodyParts	2	6	[0, 0, 0]	n/a	catFR1	1	R1465D
760.981	1.6	764998	WORD	n/a	wordpools/wordpool_categorized_EN.txt	STEREO	Electronics	3	6	[0, 0, 0]	n/a	catFR1	1	R1465D
762.581	0.934	766599	WORD_OFF	n/a	n/a	STEREO	Electronics	3	6	[0, 0, 0]	n/a	catFR1	1	R1465D
763.515	1.6	767532	WORD	n/a	wordpools/wordpool_categorized_EN.txt	TABLET	Electronics	4	6	[0, 0, 0]	n/a	catFR1	1	R1465D
765.115	0.866	769123	WORD_OFF	n/a	n/a	TABLET	Electronics	4	6	[0, 0, 0]	n/a	catFR1	1	R1465D
765.981	1.6	769997	WORD	n/a	wordpools/wordpool_categorized_EN.txt	CRAB	OceanAnimals	5	6	[0, 0, 0]	n/a	catFR1	1	R1465D
767.581	0.817	771598	WORD_OFF	n/a	n/a	CRAB	OceanAnimals	5	6	[0, 0, 0]	n/a	catFR1	1	R1465D
768.398	1.617	772413	WORD	n/a	wordpools/wordpool_categorized_EN.txt	FISH	OceanAnimals	6	6	[0, 0, 0]	n/a	catFR1	1	R1465D
770.015	0.799	774024	WORD_OFF	n/a	n/a	FISH	OceanAnimals	6	6	[0, 0, 0]	n/a	catFR1	1	R1465D
770.814	1.601	774830	WORD	n/a	wordpools/wordpool_categorized_EN.txt	EYE	BodyParts	7	6	[0, 0, 0]	n/a	catFR1	1	R1465D
772.415	0.948	776431	WORD_OFF	n/a	n/a	EYE	BodyParts	7	6	[0, 0, 0]	n/a	catFR1	1	R1465D
773.363	1.602	777373	WORD	n/a	wordpools/wordpool_categorized_EN.txt	FINGERS	BodyParts	8	6	[0, 0, 0]	n/a	catFR1	1	R1465D
774.965	0.783	778974	WORD_OFF	n/a	n/a	FINGERS	BodyParts	8	6	[0, 0, 0]	n/a	catFR1	1	R1465D
775.748	1.6	779760	WORD	n/a	wordpools/wordpool_categorized_EN.txt	WHALE	OceanAnimals	9	6	[0, 0, 0]	n/a	catFR1	1	R1465D
777.348	0.767	781361	WORD_OFF	n/a	n/a	WHALE	OceanAnimals	9	6	[0, 0, 0]	n/a	catFR1	1	R1465D
778.115	1.6	782127	WORD	n/a	wordpools/wordpool_categorized_EN.txt	PLANKTON	OceanAnimals	10	6	[0, 0, 0]	n/a	catFR1	1	R1465D
779.715	0.999	783728	WORD_OFF	n/a	n/a	PLANKTON	OceanAnimals	10	6	[0, 0, 0]	n/a	catFR1	1	R1465D
780.714	1.601	784730	WORD	n/a	wordpools/wordpool_categorized_EN.txt	CALCULATOR	Electronics	11	6	[0, 0, 0]	n/a	catFR1	1	R1465D
782.315	0.867	786331	WORD_OFF	n/a	n/a	CALCULATOR	Electronics	11	6	[0, 0, 0]	n/a	catFR1	1	R1465D
783.182	1.616	787195	WORD	n/a	wordpools/wordpool_categorized_EN.txt	RADIO	Electronics	12	6	[0, 0, 0]	n/a	catFR1	1	R1465D
784.798	0.0	788806	WORD_OFF	n/a	n/a	RADIO	Electronics	12	6	[0, 0, 0]	n/a	catFR1	1	R1465D
784.798	0.001	788810	PROB	2.45	n/a	n/a	n/a	-999	6	[2, 1, 5]	8.0	catFR1	1	R1465D
784.799	0.0	788811	START	n/a	n/a	n/a	n/a	-999	6	[-999, -999, -999]	n/a	catFR1	1	R1465D
784.799	0.0	788816	ENCODING_END	n/a	n/a	n/a	n/a	-999	6	[0, 0, 0]	n/a	catFR1	1	R1465D
784.799	2.466	788816	DISTRACT_START	n/a	n/a	n/a	n/a	-999	6	[0, 0, 0]	n/a	catFR1	1	R1465D
787.265	2.65	791277	PROB	2.633	n/a	n/a	n/a	-999	6	[4, 4, 7]	15.0	catFR1	1	R1465D
789.915	2.366	793927	PROB	2.35	n/a	n/a	n/a	-999	6	[8, 6, 3]	17.0	catFR1	1	R1465D
792.281	2.051	796293	PROB	2.032	n/a	n/a	n/a	-999	6	[6, 1, 3]	10.0	catFR1	1	R1465D
794.332	1.9	798343	PROB	1.883	n/a	n/a	n/a	-999	6	[2, 3, 3]	8.0	catFR1	1	R1465D
796.232	2.083	800243	PROB	2.065	n/a	n/a	n/a	-999	6	[5, 3, 4]	12.0	catFR1	1	R1465D
798.315	2.219	802326	PROB	2.199	n/a	n/a	n/a	-999	6	[4, 8, 7]	19.0	catFR1	1	R1465D
800.534	1.981	804545	PROB	1.966	n/a	n/a	n/a	-999	6	[1, 2, 5]	8.0	catFR1	1	R1465D
802.515	2.3	806526	PROB	2.283	n/a	n/a	n/a	-999	6	[3, 3, 4]	10.0	catFR1	1	R1465D
804.815	0.0	808823	DISTRACT_END	n/a	n/a	n/a	n/a	-999	6	[0, 0, 0]	n/a	catFR1	1	R1465D
804.815	2.35	808826	STOP	n/a	n/a	n/a	n/a	-999	6	[-999, -999, -999]	n/a	catFR1	1	R1465D
807.165	0.464	811178	REC_START	n/a	n/a	n/a	n/a	-999	6	[0, 0, 0]	n/a	catFR1	1	R1465D
807.629	1.01	811640	REC_WORD	0.464	n/a	FISH	OceanAnimals	6	6	[0, 0, 0]	n/a	catFR1	1	R1465D
808.639	1.22	812650	REC_WORD	1.474	n/a	EYE	BodyParts	7	6	[0, 0, 0]	n/a	catFR1	1	R1465D
809.859	0.754	813870	REC_WORD	2.694	n/a	CRAB	OceanAnimals	5	6	[0, 0, 0]	n/a	catFR1	1	R1465D
810.613	2.08	814624	REC_WORD	3.448	n/a	LEG	BodyParts	1	6	[0, 0, 0]	n/a	catFR1	1	R1465D
812.693	2.355	816704	REC_WORD	5.528	n/a	LOBSTER	OceanAnimals	-999	6	[0, 0, 0]	n/a	catFR1	1	R1465D
815.048	1.0	819058	REC_WORD_VV	7.883	n/a	<>	n/a	-999	6	[0, 0, 0]	n/a	catFR1	1	R1465D
816.048	1.562	820058	REC_WORD_VV	8.883	n/a	<>	n/a	-999	6	[0, 0, 0]	n/a	catFR1	1	R1465D
817.61	1.0	821620	REC_WORD	10.445	n/a	PLANKTON	OceanAnimals	10	6	[0, 0, 0]	n/a	catFR1	1	R1465D
818.61	1.0	822620	REC_WORD_VV	11.445	n/a	<>	n/a	-999	6	[0, 0, 0]	n/a	catFR1	1	R1465D
819.61	17.767	823620	REC_WORD_VV	12.445	n/a	<>	n/a	-999	6	[0, 0, 0]	n/a	catFR1	1	R1465D
837.377	32.004	841382	REC_END	n/a	n/a	n/a	n/a	-999	6	[0, 0, 0]	n/a	catFR1	1	R1465D
869.381	10.349	873391	COUNTDOWN_START	n/a	n/a	n/a	n/a	-999	7	[0, 0, 0]	n/a	catFR1	1	R1465D
879.73	0.0	883733	COUNTDOWN_END	n/a	n/a	n/a	n/a	-999	7	[0, 0, 0]	n/a	catFR1	1	R1465D
879.73	2.035	883743	ENCODING_START	n/a	n/a	n/a	n/a	-999	7	[0, 0, 0]	n/a	catFR1	1	R1465D
881.765	1.6	885776	WORD	n/a	wordpools/wordpool_categorized_EN.txt	FOOT	BodyParts	1	7	[0, 0, 0]	n/a	catFR1	1	R1465D
883.365	0.832	887368	WORD_OFF	n/a	n/a	FOOT	BodyParts	1	7	[0, 0, 0]	n/a	catFR1	1	R1465D
884.197	1.601	888202	WORD	n/a	wordpools/wordpool_categorized_EN.txt	ELBOW	BodyParts	2	7	[0, 0, 0]	n/a	catFR1	1	R1465D
885.798	0.783	889803	WORD_OFF	n/a	n/a	ELBOW	BodyParts	2	7	[0, 0, 0]	n/a	catFR1	1	R1465D
886.581	1.6	890589	WORD	n/a	wordpools/wordpool_categorized_EN.txt	WOOL	Fabric	3	7	[0, 0, 0]	n/a	catFR1	1	R1465D
888.181	0.833	892190	WORD_OFF	n/a	n/a	WOOL	Fabric	3	7	[0, 0, 0]	n/a	catFR1	1	R1465D
889.014	1.617	893025	WORD	n/a	wordpools/wordpool_categorized_EN.txt	SUEDE	Fabric	4	7	[0, 0, 0]	n/a	catFR1	1	R1465D
890.631	0.8	894636	WORD_OFF	n/a	n/a	SUEDE	Fabric	4	7	[0, 0, 0]	n/a	catFR1	1	R1465D
891.431	1.6	895441	WORD	n/a	wordpools/wordpool_categorized_EN.txt	TAPE	OfficeSupplies	5	7	[0, 0, 0]	n/a	catFR1	1	R1465D
893.031	0.767	897042	WORD_OFF	n/a	n/a	TAPE	OfficeSupplies	5	7	[0, 0, 0]	n/a	catFR1	1	R1465D
893.798	1.616	897808	WORD	n/a	wordpools/wordpool_categorized_EN.txt	PENCIL	OfficeSupplies	6	7	[0, 0, 0]	n/a	catFR1	1	R1465D
895.414	0.817	899419	WORD_OFF	n/a	n/a	PENCIL	OfficeSupplies	6	7	[0, 0, 0]	n/a	catFR1	1	R1465D
896.231	1.6	900234	WORD	n/a	wordpools/wordpool_categorized_EN.txt	KNEE	BodyParts	7	7	[0, 0, 0]	n/a	catFR1	1	R1465D
897.831	0.867	901835	WORD_OFF	n/a	n/a	KNEE	BodyParts	7	7	[0, 0, 0]	n/a	catFR1	1	R1465D
898.698	1.6	902709	WORD	n/a	wordpools/wordpool_categorized_EN.txt	ARM	BodyParts	8	7	[0, 0, 0]	n/a	catFR1	1	R1465D
900.298	0.85	904300	WORD_OFF	n/a	n/a	ARM	BodyParts	8	7	[0, 0, 0]	n/a	catFR1	1	R1465D
901.148	1.601	905155	WORD	n/a	wordpools/wordpool_categorized_EN.txt	FOLDER	OfficeSupplies	9	7	[0, 0, 0]	n/a	catFR1	1	R1465D
902.749	0.998	906756	WORD_OFF	n/a	n/a	FOLDER	OfficeSupplies	9	7	[0, 0, 0]	n/a	catFR1	1	R1465D
903.747	1.6	907757	WORD	n/a	wordpools/wordpool_categorized_EN.txt	MARKER	OfficeSupplies	10	7	[0, 0, 0]	n/a	catFR1	1	R1465D
905.347	0.884	909350	WORD_OFF	n/a	n/a	MARKER	OfficeSupplies	10	7	[0, 0, 0]	n/a	catFR1	1	R1465D
906.231	1.6	910233	WORD	n/a	wordpools/wordpool_categorized_EN.txt	LINEN	Fabric	11	7	[0, 0, 0]	n/a	catFR1	1	R1465D
907.831	0.898	911834	WORD_OFF	n/a	n/a	LINEN	Fabric	11	7	[0, 0, 0]	n/a	catFR1	1	R1465D
908.729	1.603	912737	WORD	n/a	wordpools/wordpool_categorized_EN.txt	COTTON	Fabric	12	7	[0, 0, 0]	n/a	catFR1	1	R1465D
910.332	0.0	914337	PROB	3.332	n/a	n/a	n/a	-999	7	[8, 3, 6]	17.0	catFR1	1	R1465D
910.331	0.002	914338	WORD_OFF	n/a	n/a	COTTON	Fabric	12	7	[0, 0, 0]	n/a	catFR1	1	R1465D
910.333	0.0	914338	ENCODING_END	n/a	n/a	n/a	n/a	-999	7	[0, 0, 0]	n/a	catFR1	1	R1465D
910.333	0.0	914338	DISTRACT_START	n/a	n/a	n/a	n/a	-999	7	[0, 0, 0]	n/a	catFR1	1	R1465D
910.333	3.349	914338	START	n/a	n/a	n/a	n/a	-999	7	[-999, -999, -999]	n/a	catFR1	1	R1465D
913.682	1.883	917687	PROB	1.866	n/a	n/a	n/a	-999	7	[8, 2, 4]	14.0	catFR1	1	R1465D
915.565	1.25	919570	PROB	1.233	n/a	n/a	n/a	-999	7	[2, 2, 1]	5.0	catFR1	1	R1465D
916.815	3.449	920820	PROB	3.432	n/a	n/a	n/a	-999	7	[5, 7, 2]	14.0	catFR1	1	R1465D
920.264	2.217	924269	PROB	2.2	n/a	n/a	n/a	-999	7	[7, 2, 7]	16.0	catFR1	1	R1465D
922.481	1.45	926486	PROB	1.433	n/a	n/a	n/a	-999	7	[5, 5, 2]	12.0	catFR1	1	R1465D
923.931	1.599	927935	PROB	1.583	n/a	n/a	n/a	-999	7	[3, 8, 3]	14.0	catFR1	1	R1465D
925.53	1.567	929534	PROB	1.549	n/a	n/a	n/a	-999	7	[3, 2, 8]	13.0	catFR1	1	R1465D
927.097	2.434	931101	PROB	2.417	n/a	n/a	n/a	-999	7	[6, 7, 5]	18.0	catFR1	1	R1465D
929.531	1.917	933535	PROB	1.899	n/a	n/a	n/a	-999	7	[2, 7, 5]	14.0	catFR1	1	R1465D
931.448	0.0	935452	STOP	n/a	n/a	n/a	n/a	-999	7	[-999, -999, -999]	n/a	catFR1	1	R1465D
931.448	2.383	935455	DISTRACT_END	n/a	n/a	n/a	n/a	-999	7	[0, 0, 0]	n/a	catFR1	1	R1465D
933.831	0.901	937840	REC_START	n/a	n/a	n/a	n/a	-999	7	[0, 0, 0]	n/a	catFR1	1	R1465D
934.732	1.011	938736	REC_WORD	0.901	n/a	WOOL	Fabric	3	7	[0, 0, 0]	n/a	catFR1	1	R1465D
935.743	0.802	939747	REC_WORD	1.912	n/a	COTTON	Fabric	12	7	[0, 0, 0]	n/a	catFR1	1	R1465D
936.545	3.916	940549	REC_WORD	2.714	n/a	SUEDE	Fabric	4	7	[0, 0, 0]	n/a	catFR1	1	R1465D
940.461	1.0	944465	REC_WORD	6.63	n/a	LEATHER	n/a	-999	7	[0, 0, 0]	n/a	catFR1	1	R1465D
941.461	1.0	945465	REC_WORD_VV	7.63	n/a	<>	n/a	-999	7	[0, 0, 0]	n/a	catFR1	1	R1465D
942.461	1.393	946465	REC_WORD_VV	8.63	n/a	<>	n/a	-999	7	[0, 0, 0]	n/a	catFR1	1	R1465D
943.854	1.392	947857	REC_WORD	10.023	n/a	FOOT	BodyParts	1	7	[0, 0, 0]	n/a	catFR1	1	R1465D
945.246	1.851	949249	REC_WORD	11.415	n/a	LEG	BodyParts	-999	7	[0, 0, 0]	n/a	catFR1	1	R1465D
947.097	1.238	951100	REC_WORD	13.266	n/a	ELBOW	BodyParts	2	7	[0, 0, 0]	n/a	catFR1	1	R1465D
948.335	7.238	952338	REC_WORD	14.504	n/a	ARM	BodyParts	8	7	[0, 0, 0]	n/a	catFR1	1	R1465D
955.573	8.497	959576	REC_WORD	21.742	n/a	KNEE	BodyParts	7	7	[0, 0, 0]	n/a	catFR1	1	R1465D
964.07	84.111	968073	REC_END	n/a	n/a	n/a	n/a	-999	7	[0, 0, 0]	n/a	catFR1	1	R1465D
1048.181	10.35	1052177	COUNTDOWN_START	n/a	n/a	n/a	n/a	-999	8	[0, 0, 0]	n/a	catFR1	1	R1465D
1058.531	0.0	1062529	COUNTDOWN_END	n/a	n/a	n/a	n/a	-999	8	[0, 0, 0]	n/a	catFR1	1	R1465D
1058.531	2.034	1062529	ENCODING_START	n/a	n/a	n/a	n/a	-999	8	[0, 0, 0]	n/a	catFR1	1	R1465D
1060.565	1.616	1064562	WORD	n/a	wordpools/wordpool_categorized_EN.txt	CUCUMBER	Vegetables	1	8	[0, 0, 0]	n/a	catFR1	1	R1465D
1062.181	0.85	1066183	WORD_OFF	n/a	n/a	CUCUMBER	Vegetables	1	8	[0, 0, 0]	n/a	catFR1	1	R1465D
1063.031	1.6	1067027	WORD	n/a	wordpools/wordpool_categorized_EN.txt	CARROT	Vegetables	2	8	[0, 0, 0]	n/a	catFR1	1	R1465D
1064.631	0.917	1068628	WORD_OFF	n/a	n/a	CARROT	Vegetables	2	8	[0, 0, 0]	n/a	catFR1	1	R1465D
1065.548	1.617	1069542	WORD	n/a	wordpools/wordpool_categorized_EN.txt	ZEBRA	Zoo	3	8	[0, 0, 0]	n/a	catFR1	1	R1465D
1067.165	0.799	1071162	WORD_OFF	n/a	n/a	ZEBRA	Zoo	3	8	[0, 0, 0]	n/a	catFR1	1	R1465D
1067.964	1.601	1071958	WORD	n/a	wordpools/wordpool_categorized_EN.txt	BEAR	Zoo	4	8	[0, 0, 0]	n/a	catFR1	1	R1465D
1069.565	0.816	1073559	WORD_OFF	n/a	n/a	BEAR	Zoo	4	8	[0, 0, 0]	n/a	catFR1	1	R1465D
1070.381	1.618	1074374	WORD	n/a	wordpools/wordpool_categorized_EN.txt	TABLE	Furniture	5	8	[0, 0, 0]	n/a	catFR1	1	R1465D
1071.999	0.999	1075995	WORD_OFF	n/a	n/a	TABLE	Furniture	5	8	[0, 0, 0]	n/a	catFR1	1	R1465D
1072.998	1.6	1076997	WORD	n/a	wordpools/wordpool_categorized_EN.txt	CHAIR	Furniture	6	8	[0, 0, 0]	n/a	catFR1	1	R1465D
1074.598	0.867	1078597	WORD_OFF	n/a	n/a	CHAIR	Furniture	6	8	[0, 0, 0]	n/a	catFR1	1	R1465D
1075.465	1.616	1079462	WORD	n/a	wordpools/wordpool_categorized_EN.txt	LETTUCE	Vegetables	7	8	[0, 0, 0]	n/a	catFR1	1	R1465D
1077.081	0.8	1081082	WORD_OFF	n/a	n/a	LETTUCE	Vegetables	7	8	[0, 0, 0]	n/a	catFR1	1	R1465D
1077.881	1.617	1081878	WORD	n/a	wordpools/wordpool_categorized_EN.txt	PEAS	Vegetables	8	8	[0, 0, 0]	n/a	catFR1	1	R1465D
1079.498	0.883	1083499	WORD_OFF	n/a	n/a	PEAS	Vegetables	8	8	[0, 0, 0]	n/a	catFR1	1	R1465D
1080.381	1.6	1084382	WORD	n/a	wordpools/wordpool_categorized_EN.txt	DRESSER	Furniture	9	8	[0, 0, 0]	n/a	catFR1	1	R1465D
1081.981	0.867	1085974	WORD_OFF	n/a	n/a	DRESSER	Furniture	9	8	[0, 0, 0]	n/a	catFR1	1	R1465D
1082.848	1.617	1086848	WORD	n/a	wordpools/wordpool_categorized_EN.txt	BED	Furniture	10	8	[0, 0, 0]	n/a	catFR1	1	R1465D
1084.465	0.983	1088459	WORD_OFF	n/a	n/a	BED	Furniture	10	8	[0, 0, 0]	n/a	catFR1	1	R1465D
1085.448	1.617	1089441	WORD	n/a	wordpools/wordpool_categorized_EN.txt	ORANGUTAN	Zoo	11	8	[0, 0, 0]	n/a	catFR1	1	R1465D
1087.065	0.933	1091061	WORD_OFF	n/a	n/a	ORANGUTAN	Zoo	11	8	[0, 0, 0]	n/a	catFR1	1	R1465D
1087.998	1.6	1091994	WORD	n/a	wordpools/wordpool_categorized_EN.txt	PANDA	Zoo	12	8	[0, 0, 0]	n/a	catFR1	1	R1465D
1089.598	0.0	1093594	PROB	2.849	n/a	n/a	n/a	-999	8	[8, 7, 3]	18.0	catFR1	1	R1465D
1089.598	0.002	1093595	WORD_OFF	n/a	n/a	PANDA	Zoo	12	8	[0, 0, 0]	n/a	catFR1	1	R1465D
1089.6	0.0	1093595	ENCODING_END	n/a	n/a	n/a	n/a	-999	8	[0, 0, 0]	n/a	catFR1	1	R1465D
1089.6	0.0	1093595	DISTRACT_START	n/a	n/a	n/a	n/a	-999	8	[0, 0, 0]	n/a	catFR1	1	R1465D
1089.6	2.865	1093596	START	n/a	n/a	n/a	n/a	-999	8	[-999, -999, -999]	n/a	catFR1	1	R1465D
1092.465	2.25	1096460	PROB	2.233	n/a	n/a	n/a	-999	8	[2, 7, 4]	13.0	catFR1	1	R1465D
1094.715	2.049	1098710	PROB	2.033	n/a	n/a	n/a	-999	8	[7, 6, 6]	19.0	catFR1	1	R1465D
1096.764	1.817	1100759	PROB	1.798	n/a	n/a	n/a	-999	8	[2, 1, 3]	6.0	catFR1	1	R1465D
1098.581	2.166	1102576	PROB	2.15	n/a	n/a	n/a	-999	8	[4, 5, 2]	11.0	catFR1	1	R1465D
1100.747	2.452	1104742	PROB	2.434	n/a	n/a	n/a	-999	8	[6, 7, 4]	17.0	catFR1	1	R1465D
1103.199	1.716	1107194	PROB	1.699	n/a	n/a	n/a	-999	8	[6, 5, 1]	12.0	catFR1	1	R1465D
1104.915	1.149	1108910	PROB	1.133	n/a	n/a	n/a	-999	8	[1, 5, 5]	11.0	catFR1	1	R1465D
1106.064	2.701	1110059	PROB	2.684	n/a	n/a	n/a	-999	8	[5, 4, 4]	13.0	catFR1	1	R1465D
1108.765	1.9	1112759	PROB	1.883	n/a	n/a	n/a	-999	8	[5, 2, 3]	10.0	catFR1	1	R1465D
1110.665	0.0	1114659	STOP	n/a	n/a	n/a	n/a	-999	8	[-999, -999, -999]	n/a	catFR1	1	R1465D
1110.665	2.266	1114663	DISTRACT_END	n/a	n/a	n/a	n/a	-999	8	[0, 0, 0]	n/a	catFR1	1	R1465D
1112.931	0.094	1116930	REC_START	n/a	n/a	n/a	n/a	-999	8	[0, 0, 0]	n/a	catFR1	1	R1465D
1113.025	1.52	1117019	REC_WORD	0.094	n/a	ORANGUTAN	Zoo	11	8	[0, 0, 0]	n/a	catFR1	1	R1465D
1114.545	2.798	1118539	REC_WORD_VV	1.614	n/a	<>	n/a	-999	8	[0, 0, 0]	n/a	catFR1	1	R1465D
1117.343	1.313	1121337	REC_WORD_VV	4.412	n/a	<>	n/a	-999	8	[0, 0, 0]	n/a	catFR1	1	R1465D
1118.656	1.0	1122650	REC_WORD_VV	5.725	n/a	<>	n/a	-999	8	[0, 0, 0]	n/a	catFR1	1	R1465D
1119.656	1.0	1123650	REC_WORD_VV	6.725	n/a	<>	n/a	-999	8	[0, 0, 0]	n/a	catFR1	1	R1465D
1120.656	1.0	1124650	REC_WORD_VV	7.725	n/a	<>	n/a	-999	8	[0, 0, 0]	n/a	catFR1	1	R1465D
1121.656	3.516	1125650	REC_WORD_VV	8.725	n/a	<>	n/a	-999	8	[0, 0, 0]	n/a	catFR1	1	R1465D
1125.172	5.107	1129166	REC_WORD	12.241	n/a	ZEBRA	Zoo	3	8	[0, 0, 0]	n/a	catFR1	1	R1465D
1130.279	0.655	1134272	REC_WORD_VV	17.348	n/a	<>	n/a	-999	8	[0, 0, 0]	n/a	catFR1	1	R1465D
1130.934	1.0	1134927	REC_WORD	18.003	n/a	LION	n/a	-999	8	[0, 0, 0]	n/a	catFR1	1	R1465D
1131.934	1.181	1135927	REC_WORD_VV	19.003	n/a	<>	n/a	-999	8	[0, 0, 0]	n/a	catFR1	1	R1465D
1133.115	10.046	1137108	REC_WORD	20.184	n/a	ZEBRA	Zoo	3	8	[0, 0, 0]	n/a	catFR1	1	R1465D
1143.161	83.104	1147153	REC_END	n/a	n/a	n/a	n/a	-999	8	[0, 0, 0]	n/a	catFR1	1	R1465D
1226.265	10.35	1230256	COUNTDOWN_START	n/a	n/a	n/a	n/a	-999	9	[0, 0, 0]	n/a	catFR1	1	R1465D
1236.615	0.0	1240598	COUNTDOWN_END	n/a	n/a	n/a	n/a	-999	9	[0, 0, 0]	n/a	catFR1	1	R1465D
1236.615	2.149	1240608	ENCODING_START	n/a	n/a	n/a	n/a	-999	9	[0, 0, 0]	n/a	catFR1	1	R1465D
1238.764	1.6	1242749	WORD	n/a	wordpools/wordpool_categorized_EN.txt	PAPER	OfficeSupplies	1	9	[0, 0, 0]	n/a	catFR1	1	R1465D
1240.364	0.917	1244350	WORD_OFF	n/a	n/a	PAPER	OfficeSupplies	1	9	[0, 0, 0]	n/a	catFR1	1	R1465D
1241.281	1.6	1245263	WORD	n/a	wordpools/wordpool_categorized_EN.txt	GLUE	OfficeSupplies	2	9	[0, 0, 0]	n/a	catFR1	1	R1465D
1242.881	0.916	1246864	WORD_OFF	n/a	n/a	GLUE	OfficeSupplies	2	9	[0, 0, 0]	n/a	catFR1	1	R1465D
1243.797	1.601	1247787	WORD	n/a	wordpools/wordpool_categorized_EN.txt	LAKE	Landscapes	3	9	[0, 0, 0]	n/a	catFR1	1	R1465D
1245.398	0.817	1249388	WORD_OFF	n/a	n/a	LAKE	Landscapes	3	9	[0, 0, 0]	n/a	catFR1	1	R1465D
1246.215	1.616	1250204	WORD	n/a	wordpools/wordpool_categorized_EN.txt	MOUNTAIN	Landscapes	4	9	[0, 0, 0]	n/a	catFR1	1	R1465D
1247.831	1.001	1251814	WORD_OFF	n/a	n/a	MOUNTAIN	Landscapes	4	9	[0, 0, 0]	n/a	catFR1	1	R1465D
1248.832	1.615	1252816	WORD	n/a	wordpools/wordpool_categorized_EN.txt	CROW	Birds	5	9	[0, 0, 0]	n/a	catFR1	1	R1465D
1250.447	0.917	1254437	WORD_OFF	n/a	n/a	CROW	Birds	5	9	[0, 0, 0]	n/a	catFR1	1	R1465D
1251.364	1.617	1255350	WORD	n/a	wordpools/wordpool_categorized_EN.txt	DUCK	Birds	6	9	[0, 0, 0]	n/a	catFR1	1	R1465D
1252.981	0.883	1256971	WORD_OFF	n/a	n/a	DUCK	Birds	6	9	[0, 0, 0]	n/a	catFR1	1	R1465D
1253.864	1.601	1257855	WORD	n/a	wordpools/wordpool_categorized_EN.txt	RULER	OfficeSupplies	7	9	[0, 0, 0]	n/a	catFR1	1	R1465D
1255.465	0.849	1259456	WORD_OFF	n/a	n/a	RULER	OfficeSupplies	7	9	[0, 0, 0]	n/a	catFR1	1	R1465D
1256.314	1.601	1260300	WORD	n/a	wordpools/wordpool_categorized_EN.txt	PEN	OfficeSupplies	8	9	[0, 0, 0]	n/a	catFR1	1	R1465D
1257.915	0.967	1261911	WORD_OFF	n/a	n/a	PEN	OfficeSupplies	8	9	[0, 0, 0]	n/a	catFR1	1	R1465D
1258.882	1.616	1262864	WORD	n/a	wordpools/wordpool_categorized_EN.txt	DOVE	Birds	9	9	[0, 0, 0]	n/a	catFR1	1	R1465D
1260.498	0.999	1264484	WORD_OFF	n/a	n/a	DOVE	Birds	9	9	[0, 0, 0]	n/a	catFR1	1	R1465D
1261.497	1.601	1265486	WORD	n/a	wordpools/wordpool_categorized_EN.txt	HAWK	Birds	10	9	[0, 0, 0]	n/a	catFR1	1	R1465D
1263.098	0.933	1267087	WORD_OFF	n/a	n/a	HAWK	Birds	10	9	[0, 0, 0]	n/a	catFR1	1	R1465D
1264.031	1.602	1268020	WORD	n/a	wordpools/wordpool_categorized_EN.txt	HILLS	Landscapes	11	9	[0, 0, 0]	n/a	catFR1	1	R1465D
1265.633	0.982	1269621	WORD_OFF	n/a	n/a	HILLS	Landscapes	11	9	[0, 0, 0]	n/a	catFR1	1	R1465D
1266.615	1.6	1270603	WORD	n/a	wordpools/wordpool_categorized_EN.txt	WOODS	Landscapes	12	9	[0, 0, 0]	n/a	catFR1	1	R1465D
1268.215	0.001	1272201	PROB	3.133	n/a	n/a	n/a	-999	9	[7, 2, 4]	13.0	catFR1	1	R1465D
1268.216	0.0	1272202	START	n/a	n/a	n/a	n/a	-999	9	[-999, -999, -999]	n/a	catFR1	1	R1465D
1268.214	0.002	1272204	WORD_OFF	n/a	n/a	WOODS	Landscapes	12	9	[0, 0, 0]	n/a	catFR1	1	R1465D
1268.216	0.0	1272204	ENCODING_END	n/a	n/a	n/a	n/a	-999	9	[0, 0, 0]	n/a	catFR1	1	R1465D
1268.216	3.149	1272204	DISTRACT_START	n/a	n/a	n/a	n/a	-999	9	[0, 0, 0]	n/a	catFR1	1	R1465D
1271.365	2.633	1275351	PROB	2.616	n/a	n/a	n/a	-999	9	[2, 4, 7]	13.0	catFR1	1	R1465D
1273.998	4.318	1277984	PROB	4.299	n/a	n/a	n/a	-999	9	[7, 2, 8]	17.0	catFR1	1	R1465D
1278.316	2.466	1282301	PROB	2.449	n/a	n/a	n/a	-999	9	[5, 1, 4]	10.0	catFR1	1	R1465D
1280.782	2.05	1284767	PROB	2.032	n/a	n/a	n/a	-999	9	[4, 6, 1]	11.0	catFR1	1	R1465D
1282.832	2.749	1286817	PROB	2.732	n/a	n/a	n/a	-999	9	[7, 7, 2]	16.0	catFR1	1	R1465D
1285.581	1.701	1289566	PROB	1.684	n/a	n/a	n/a	-999	9	[2, 2, 3]	7.0	catFR1	1	R1465D
1287.282	2.333	1291267	PROB	2.316	n/a	n/a	n/a	-999	9	[7, 3, 6]	16.0	catFR1	1	R1465D
1289.615	0.0	1293596	DISTRACT_END	n/a	n/a	n/a	n/a	-999	9	[0, 0, 0]	n/a	catFR1	1	R1465D
1289.615	2.05	1293600	STOP	n/a	n/a	n/a	n/a	-999	9	[-999, -999, -999]	n/a	catFR1	1	R1465D
1291.665	0.991	1295647	REC_START	n/a	n/a	n/a	n/a	-999	9	[0, 0, 0]	n/a	catFR1	1	R1465D
1292.656	1.182	1296641	REC_WORD	0.991	n/a	PAPER	OfficeSupplies	1	9	[0, 0, 0]	n/a	catFR1	1	R1465D
1293.838	3.014	1297823	REC_WORD	2.173	n/a	GLUE	OfficeSupplies	2	9	[0, 0, 0]	n/a	catFR1	1	R1465D
1296.852	1.0	1300836	REC_WORD_VV	5.187	n/a	<>	n/a	-999	9	[0, 0, 0]	n/a	catFR1	1	R1465D
1297.852	1.0	1301836	REC_WORD_VV	6.187	n/a	<>	n/a	-999	9	[0, 0, 0]	n/a	catFR1	1	R1465D
1298.852	1.0	1302836	REC_WORD_VV	7.187	n/a	<>	n/a	-999	9	[0, 0, 0]	n/a	catFR1	1	R1465D
1299.852	1.0	1303836	REC_WORD_VV	8.187	n/a	<>	n/a	-999	9	[0, 0, 0]	n/a	catFR1	1	R1465D
1300.852	1.0	1304836	REC_WORD_VV	9.187	n/a	<>	n/a	-999	9	[0, 0, 0]	n/a	catFR1	1	R1465D
1301.852	1.0	1305836	REC_WORD_VV	10.187	n/a	<>	n/a	-999	9	[0, 0, 0]	n/a	catFR1	1	R1465D
1302.852	1.243	1306836	REC_WORD_VV	11.187	n/a	<>	n/a	-999	9	[0, 0, 0]	n/a	catFR1	1	R1465D
1304.095	1.347	1308079	REC_WORD	12.43	n/a	LAKE	Landscapes	3	9	[0, 0, 0]	n/a	catFR1	1	R1465D
1305.442	2.069	1309426	REC_WORD	13.777	n/a	PEN	OfficeSupplies	8	9	[0, 0, 0]	n/a	catFR1	1	R1465D
1307.511	7.898	1311495	REC_WORD	15.846	n/a	GOAT	n/a	-999	9	[0, 0, 0]	n/a	catFR1	1	R1465D
1315.409	1.0	1319392	REC_WORD	23.744	n/a	MOUNTAIN	Landscapes	4	9	[0, 0, 0]	n/a	catFR1	1	R1465D
1316.409	1.0	1320392	REC_WORD_VV	24.744	n/a	<>	n/a	-999	9	[0, 0, 0]	n/a	catFR1	1	R1465D
1317.409	1.0	1321392	REC_WORD_VV	25.744	n/a	<>	n/a	-999	9	[0, 0, 0]	n/a	catFR1	1	R1465D
1318.409	1.0	1322392	REC_WORD_VV	26.744	n/a	<>	n/a	-999	9	[0, 0, 0]	n/a	catFR1	1	R1465D
1319.409	2.482	1323392	REC_WORD_VV	27.744	n/a	<>	n/a	-999	9	[0, 0, 0]	n/a	catFR1	1	R1465D
1321.891	20.023	1325870	REC_END	n/a	n/a	n/a	n/a	-999	9	[0, 0, 0]	n/a	catFR1	1	R1465D
1341.914	10.35	1345897	COUNTDOWN_START	n/a	n/a	n/a	n/a	-999	10	[0, 0, 0]	n/a	catFR1	1	R1465D
1352.264	0.0	1356249	COUNTDOWN_END	n/a	n/a	n/a	n/a	-999	10	[0, 0, 0]	n/a	catFR1	1	R1465D
1352.264	2.133	1356249	ENCODING_START	n/a	n/a	n/a	n/a	-999	10	[0, 0, 0]	n/a	catFR1	1	R1465D
1354.397	1.601	1358381	WORD	n/a	wordpools/wordpool_categorized_EN.txt	CABBAGE	Vegetables	1	10	[0, 0, 0]	n/a	catFR1	1	R1465D
1355.998	0.816	1359982	WORD_OFF	n/a	n/a	CABBAGE	Vegetables	1	10	[0, 0, 0]	n/a	catFR1	1	R1465D
1356.814	1.601	1360797	WORD	n/a	wordpools/wordpool_categorized_EN.txt	SPINACH	Vegetables	2	10	[0, 0, 0]	n/a	catFR1	1	R1465D
1358.415	0.833	1362398	WORD_OFF	n/a	n/a	SPINACH	Vegetables	2	10	[0, 0, 0]	n/a	catFR1	1	R1465D
1359.248	1.6	1363233	WORD	n/a	wordpools/wordpool_categorized_EN.txt	GRATER	KitchenTools	3	10	[0, 0, 0]	n/a	catFR1	1	R1465D
1360.848	0.8	1364833	WORD_OFF	n/a	n/a	GRATER	KitchenTools	3	10	[0, 0, 0]	n/a	catFR1	1	R1465D
1361.648	1.617	1365629	WORD	n/a	wordpools/wordpool_categorized_EN.txt	SPATULA	KitchenTools	4	10	[0, 0, 0]	n/a	catFR1	1	R1465D
1363.265	0.916	1367250	WORD_OFF	n/a	n/a	SPATULA	KitchenTools	4	10	[0, 0, 0]	n/a	catFR1	1	R1465D
1364.181	1.617	1368163	WORD	n/a	wordpools/wordpool_categorized_EN.txt	UNDERWEAR	Clothing	5	10	[0, 0, 0]	n/a	catFR1	1	R1465D
1365.798	0.767	1369774	WORD_OFF	n/a	n/a	UNDERWEAR	Clothing	5	10	[0, 0, 0]	n/a	catFR1	1	R1465D
1366.565	1.616	1370550	WORD	n/a	wordpools/wordpool_categorized_EN.txt	PANTS	Clothing	6	10	[0, 0, 0]	n/a	catFR1	1	R1465D
1368.181	0.867	1372161	WORD_OFF	n/a	n/a	PANTS	Clothing	6	10	[0, 0, 0]	n/a	catFR1	1	R1465D
1369.048	1.6	1373025	WORD	n/a	wordpools/wordpool_categorized_EN.txt	ONION	Vegetables	7	10	[0, 0, 0]	n/a	catFR1	1	R1465D
1370.648	0.866	1374626	WORD_OFF	n/a	n/a	ONION	Vegetables	7	10	[0, 0, 0]	n/a	catFR1	1	R1465D
1371.514	1.601	1375490	WORD	n/a	wordpools/wordpool_categorized_EN.txt	CAULIFLOWER	Vegetables	8	10	[0, 0, 0]	n/a	catFR1	1	R1465D
1373.115	0.916	1377091	WORD_OFF	n/a	n/a	CAULIFLOWER	Vegetables	8	10	[0, 0, 0]	n/a	catFR1	1	R1465D
1374.031	1.616	1378014	WORD	n/a	wordpools/wordpool_categorized_EN.txt	JACKET	Clothing	9	10	[0, 0, 0]	n/a	catFR1	1	R1465D
1375.647	0.884	1379625	WORD_OFF	n/a	n/a	JACKET	Clothing	9	10	[0, 0, 0]	n/a	catFR1	1	R1465D
1376.531	1.6	1380509	WORD	n/a	wordpools/wordpool_categorized_EN.txt	JEANS	Clothing	10	10	[0, 0, 0]	n/a	catFR1	1	R1465D
1378.131	0.784	1382110	WORD_OFF	n/a	n/a	JEANS	Clothing	10	10	[0, 0, 0]	n/a	catFR1	1	R1465D
1378.915	1.616	1382896	WORD	n/a	wordpools/wordpool_categorized_EN.txt	STRAINER	KitchenTools	11	10	[0, 0, 0]	n/a	catFR1	1	R1465D
1380.531	0.984	1384516	WORD_OFF	n/a	n/a	STRAINER	KitchenTools	11	10	[0, 0, 0]	n/a	catFR1	1	R1465D
1381.515	1.615	1385498	WORD	n/a	wordpools/wordpool_categorized_EN.txt	WHISK	KitchenTools	12	10	[0, 0, 0]	n/a	catFR1	1	R1465D
1383.13	0.002	1387109	WORD_OFF	n/a	n/a	WHISK	KitchenTools	12	10	[0, 0, 0]	n/a	catFR1	1	R1465D
1383.132	0.0	1387109	ENCODING_END	n/a	n/a	n/a	n/a	-999	10	[0, 0, 0]	n/a	catFR1	1	R1465D
1383.132	0.001	1387112	START	n/a	n/a	n/a	n/a	-999	10	[-999, -999, -999]	n/a	catFR1	1	R1465D
1383.133	0.0	1387113	PROB	3.217	n/a	n/a	n/a	-999	10	[4, 6, 7]	17.0	catFR1	1	R1465D
1383.132	3.233	1387119	DISTRACT_START	n/a	n/a	n/a	n/a	-999	10	[0, 0, 0]	n/a	catFR1	1	R1465D
1386.365	2.566	1390344	PROB	2.55	n/a	n/a	n/a	-999	10	[8, 7, 6]	21.0	catFR1	1	R1465D
1388.931	3.034	1392910	PROB	3.017	n/a	n/a	n/a	-999	10	[5, 2, 4]	11.0	catFR1	1	R1465D
1391.965	2.817	1395944	PROB	2.8	n/a	n/a	n/a	-999	10	[7, 2, 1]	10.0	catFR1	1	R1465D
1394.782	1.599	1398761	PROB	1.583	n/a	n/a	n/a	-999	10	[3, 4, 4]	11.0	catFR1	1	R1465D
1396.381	1.834	1400360	PROB	1.817	n/a	n/a	n/a	-999	10	[5, 2, 1]	8.0	catFR1	1	R1465D
1398.215	2.249	1402194	PROB	2.232	n/a	n/a	n/a	-999	10	[6, 1, 8]	15.0	catFR1	1	R1465D
1400.464	1.235	1404443	PROB	1.216	n/a	n/a	n/a	-999	10	[1, 3, 7]	11.0	catFR1	1	R1465D
1401.699	1.232	1405678	PROB	1.215	n/a	n/a	n/a	-999	10	[2, 1, 8]	11.0	catFR1	1	R1465D
1402.931	1.866	1406910	PROB	1.85	n/a	n/a	n/a	-999	10	[4, 1, 4]	9.0	catFR1	1	R1465D
1404.797	0.0	1408775	STOP	n/a	n/a	n/a	n/a	-999	10	[-999, -999, -999]	n/a	catFR1	1	R1465D
1404.797	2.084	1408776	DISTRACT_END	n/a	n/a	n/a	n/a	-999	10	[0, 0, 0]	n/a	catFR1	1	R1465D
1406.881	1.549	1410856	REC_START	n/a	n/a	n/a	n/a	-999	10	[0, 0, 0]	n/a	catFR1	1	R1465D
1408.43	0.767	1412408	REC_WORD	1.549	n/a	GRATER	KitchenTools	3	10	[0, 0, 0]	n/a	catFR1	1	R1465D
1409.197	1.0	1413175	REC_WORD	2.316	n/a	SPATULA	KitchenTools	4	10	[0, 0, 0]	n/a	catFR1	1	R1465D
1410.197	0.738	1414175	REC_WORD_VV	3.316	n/a	<>	n/a	-999	10	[0, 0, 0]	n/a	catFR1	1	R1465D
1410.935	2.384	1414913	REC_WORD	4.054	n/a	WHISK	KitchenTools	12	10	[0, 0, 0]	n/a	catFR1	1	R1465D
1413.319	1.645	1417297	REC_WORD_VV	6.438	n/a	<>	n/a	-999	10	[0, 0, 0]	n/a	catFR1	1	R1465D
1414.964	7.399	1418942	REC_WORD_VV	8.083	n/a	<>	n/a	-999	10	[0, 0, 0]	n/a	catFR1	1	R1465D
1422.363	6.383	1426341	REC_WORD_VV	15.482	n/a	<>	n/a	-999	10	[0, 0, 0]	n/a	catFR1	1	R1465D
1428.746	0.523	1432723	REC_WORD	21.865	n/a	GRATER	KitchenTools	3	10	[0, 0, 0]	n/a	catFR1	1	R1465D
1429.269	0.454	1433246	REC_WORD	22.388	n/a	SPATULA	KitchenTools	4	10	[0, 0, 0]	n/a	catFR1	1	R1465D
1429.723	4.044	1433700	REC_WORD	22.842	n/a	WHISK	KitchenTools	12	10	[0, 0, 0]	n/a	catFR1	1	R1465D
1433.767	1.0	1437744	REC_WORD_VV	26.886	n/a	<>	n/a	-999	10	[0, 0, 0]	n/a	catFR1	1	R1465D
1434.767	1.0	1438744	REC_WORD_VV	27.886	n/a	<>	n/a	-999	10	[0, 0, 0]	n/a	catFR1	1	R1465D
1435.767	1.0	1439744	REC_WORD_VV	28.886	n/a	<>	n/a	-999	10	[0, 0, 0]	n/a	catFR1	1	R1465D
1436.767	0.349	1440744	REC_WORD_VV	29.886	n/a	<>	n/a	-999	10	[0, 0, 0]	n/a	catFR1	1	R1465D
1437.116	27.08	1441090	REC_END	n/a	n/a	n/a	n/a	-999	10	[0, 0, 0]	n/a	catFR1	1	R1465D
1464.196	10.352	1468168	COUNTDOWN_START	n/a	n/a	n/a	n/a	-999	11	[0, 0, 0]	n/a	catFR1	1	R1465D
1474.548	0.0	1478521	COUNTDOWN_END	n/a	n/a	n/a	n/a	-999	11	[0, 0, 0]	n/a	catFR1	1	R1465D
1474.548	1.95	1478530	ENCODING_START	n/a	n/a	n/a	n/a	-999	11	[0, 0, 0]	n/a	catFR1	1	R1465D
1476.498	1.6	1480475	WORD	n/a	wordpools/wordpool_categorized_EN.txt	VIOLET	Flowers	1	11	[0, 0, 0]	n/a	catFR1	1	R1465D
1478.098	0.9	1482076	WORD_OFF	n/a	n/a	VIOLET	Flowers	1	11	[0, 0, 0]	n/a	catFR1	1	R1465D
1478.998	1.6	1482970	WORD	n/a	wordpools/wordpool_categorized_EN.txt	ORCHID	Flowers	2	11	[0, 0, 0]	n/a	catFR1	1	R1465D
1480.598	0.949	1484571	WORD_OFF	n/a	n/a	ORCHID	Flowers	2	11	[0, 0, 0]	n/a	catFR1	1	R1465D
1481.547	1.615	1485523	WORD	n/a	wordpools/wordpool_categorized_EN.txt	SPARROW	Birds	3	11	[0, 0, 0]	n/a	catFR1	1	R1465D
1483.162	0.835	1487134	WORD_OFF	n/a	n/a	SPARROW	Birds	3	11	[0, 0, 0]	n/a	catFR1	1	R1465D
1483.997	1.601	1487969	WORD	n/a	wordpools/wordpool_categorized_EN.txt	PIGEON	Birds	4	11	[0, 0, 0]	n/a	catFR1	1	R1465D
1485.598	0.983	1489570	WORD_OFF	n/a	n/a	PIGEON	Birds	4	11	[0, 0, 0]	n/a	catFR1	1	R1465D
1486.581	1.601	1490552	WORD	n/a	wordpools/wordpool_categorized_EN.txt	SHEEP	FarmAnimals	5	11	[0, 0, 0]	n/a	catFR1	1	R1465D
1488.182	0.933	1492153	WORD_OFF	n/a	n/a	SHEEP	FarmAnimals	5	11	[0, 0, 0]	n/a	catFR1	1	R1465D
1489.115	1.6	1493086	WORD	n/a	wordpools/wordpool_categorized_EN.txt	HEN	FarmAnimals	6	11	[0, 0, 0]	n/a	catFR1	1	R1465D
1490.715	0.783	1494687	WORD_OFF	n/a	n/a	HEN	FarmAnimals	6	11	[0, 0, 0]	n/a	catFR1	1	R1465D
1491.498	1.6	1495473	WORD	n/a	wordpools/wordpool_categorized_EN.txt	LILY	Flowers	7	11	[0, 0, 0]	n/a	catFR1	1	R1465D
1493.098	1.0	1497074	WORD_OFF	n/a	n/a	LILY	Flowers	7	11	[0, 0, 0]	n/a	catFR1	1	R1465D
1494.098	1.617	1498076	WORD	n/a	wordpools/wordpool_categorized_EN.txt	LILAC	Flowers	8	11	[0, 0, 0]	n/a	catFR1	1	R1465D
1495.715	0.966	1499686	WORD_OFF	n/a	n/a	LILAC	Flowers	8	11	[0, 0, 0]	n/a	catFR1	1	R1465D
1496.681	1.617	1500659	WORD	n/a	wordpools/wordpool_categorized_EN.txt	BULL	FarmAnimals	9	11	[0, 0, 0]	n/a	catFR1	1	R1465D
1498.298	0.85	1502270	WORD_OFF	n/a	n/a	BULL	FarmAnimals	9	11	[0, 0, 0]	n/a	catFR1	1	R1465D
1499.148	1.6	1503124	WORD	n/a	wordpools/wordpool_categorized_EN.txt	TURKEY	FarmAnimals	10	11	[0, 0, 0]	n/a	catFR1	1	R1465D
1500.748	0.766	1504725	WORD_OFF	n/a	n/a	TURKEY	FarmAnimals	10	11	[0, 0, 0]	n/a	catFR1	1	R1465D
1501.514	1.601	1505491	WORD	n/a	wordpools/wordpool_categorized_EN.txt	SEAGULL	Birds	11	11	[0, 0, 0]	n/a	catFR1	1	R1465D
1503.115	0.833	1507092	WORD_OFF	n/a	n/a	SEAGULL	Birds	11	11	[0, 0, 0]	n/a	catFR1	1	R1465D
1503.948	1.6	1507917	WORD	n/a	wordpools/wordpool_categorized_EN.txt	GOOSE	Birds	12	11	[0, 0, 0]	n/a	catFR1	1	R1465D
1505.548	0.002	1509518	WORD_OFF	n/a	n/a	GOOSE	Birds	12	11	[0, 0, 0]	n/a	catFR1	1	R1465D
1505.55	0.0	1509518	ENCODING_END	n/a	n/a	n/a	n/a	-999	11	[0, 0, 0]	n/a	catFR1	1	R1465D
1505.549	0.001	1509522	PROB	2.816	n/a	n/a	n/a	-999	11	[2, 6, 2]	10.0	catFR1	1	R1465D
1505.55	0.0	1509523	START	n/a	n/a	n/a	n/a	-999	11	[-999, -999, -999]	n/a	catFR1	1	R1465D
1505.55	2.832	1509528	DISTRACT_START	n/a	n/a	n/a	n/a	-999	11	[0, 0, 0]	n/a	catFR1	1	R1465D
1508.382	2.348	1512355	PROB	2.332	n/a	n/a	n/a	-999	11	[8, 3, 7]	18.0	catFR1	1	R1465D
1510.73	2.035	1514703	PROB	2.017	n/a	n/a	n/a	-999	11	[8, 5, 7]	20.0	catFR1	1	R1465D
1512.765	1.383	1516738	PROB	1.366	n/a	n/a	n/a	-999	11	[2, 5, 5]	12.0	catFR1	1	R1465D
1514.148	1.751	1518121	PROB	1.732	n/a	n/a	n/a	-999	11	[4, 2, 8]	14.0	catFR1	1	R1465D
1515.899	2.232	1519871	PROB	2.215	n/a	n/a	n/a	-999	11	[7, 1, 4]	12.0	catFR1	1	R1465D
1518.131	2.367	1522103	PROB	2.35	n/a	n/a	n/a	-999	11	[3, 8, 1]	12.0	catFR1	1	R1465D
1520.498	1.917	1524470	PROB	1.899	n/a	n/a	n/a	-999	11	[6, 7, 3]	16.0	catFR1	1	R1465D
1522.415	1.616	1526387	PROB	1.6	n/a	n/a	n/a	-999	11	[2, 8, 3]	13.0	catFR1	1	R1465D
1524.031	2.066	1528003	PROB	2.05	n/a	n/a	n/a	-999	11	[2, 5, 3]	10.0	catFR1	1	R1465D
1526.097	0.0	1530065	DISTRACT_END	n/a	n/a	n/a	n/a	-999	11	[0, 0, 0]	n/a	catFR1	1	R1465D
1526.097	2.184	1530069	STOP	n/a	n/a	n/a	n/a	-999	11	[-999, -999, -999]	n/a	catFR1	1	R1465D
1528.281	2.164	1532254	REC_START	n/a	n/a	n/a	n/a	-999	11	[0, 0, 0]	n/a	catFR1	1	R1465D
1530.445	0.814	1534417	REC_WORD	2.164	n/a	BULL	FarmAnimals	9	11	[0, 0, 0]	n/a	catFR1	1	R1465D
1531.259	1.119	1535231	REC_WORD	2.978	n/a	SPARROW	Birds	3	11	[0, 0, 0]	n/a	catFR1	1	R1465D
1532.378	4.062	1536350	REC_WORD	4.097	n/a	SPIDER	n/a	-999	11	[0, 0, 0]	n/a	catFR1	1	R1465D
1536.44	1.205	1540411	REC_WORD	8.159	n/a	SPARROW	Birds	3	11	[0, 0, 0]	n/a	catFR1	1	R1465D
1537.645	0.231	1541616	REC_WORD_VV	9.364	n/a	<>	n/a	-999	11	[0, 0, 0]	n/a	catFR1	1	R1465D
1537.876	0.579	1541847	REC_WORD	9.595	n/a	SPIDER	n/a	-999	11	[0, 0, 0]	n/a	catFR1	1	R1465D
1538.455	1.0	1542426	REC_WORD	10.174	n/a	SPARROW	Birds	3	11	[0, 0, 0]	n/a	catFR1	1	R1465D
1539.455	1.0	1543426	REC_WORD_VV	11.174	n/a	<>	n/a	-999	11	[0, 0, 0]	n/a	catFR1	1	R1465D
1540.455	6.539	1544426	REC_WORD_VV	12.174	n/a	<>	n/a	-999	11	[0, 0, 0]	n/a	catFR1	1	R1465D
1546.994	5.302	1550965	REC_WORD_VV	18.713	n/a	<>	n/a	-999	11	[0, 0, 0]	n/a	catFR1	1	R1465D
1552.296	4.92	1556267	REC_WORD	24.015	n/a	GOOSE	Birds	12	11	[0, 0, 0]	n/a	catFR1	1	R1465D
1557.216	1.3	1561186	REC_WORD	28.935	n/a	LILAC	Flowers	8	11	[0, 0, 0]	n/a	catFR1	1	R1465D
1558.516	38.232	1562487	REC_END	n/a	n/a	n/a	n/a	-999	11	[0, 0, 0]	n/a	catFR1	1	R1465D
1596.748	10.349	1600723	COUNTDOWN_START	n/a	n/a	n/a	n/a	-999	12	[0, 0, 0]	n/a	catFR1	1	R1465D
1607.097	0.0	1611065	COUNTDOWN_END	n/a	n/a	n/a	n/a	-999	12	[0, 0, 0]	n/a	catFR1	1	R1465D
1607.097	1.983	1611065	ENCODING_START	n/a	n/a	n/a	n/a	-999	12	[0, 0, 0]	n/a	catFR1	1	R1465D
1609.08	1.618	1613049	WORD	n/a	wordpools/wordpool_categorized_EN.txt	FINCH	Birds	1	12	[0, 0, 0]	n/a	catFR1	1	R1465D
1610.698	0.865	1614670	WORD_OFF	n/a	n/a	FINCH	Birds	1	12	[0, 0, 0]	n/a	catFR1	1	R1465D
1611.563	1.601	1615534	WORD	n/a	wordpools/wordpool_categorized_EN.txt	ROBIN	Birds	2	12	[0, 0, 0]	n/a	catFR1	1	R1465D
1613.164	0.95	1617135	WORD_OFF	n/a	n/a	ROBIN	Birds	2	12	[0, 0, 0]	n/a	catFR1	1	R1465D
1614.114	1.617	1618078	WORD	n/a	wordpools/wordpool_categorized_EN.txt	PIG	FarmAnimals	3	12	[0, 0, 0]	n/a	catFR1	1	R1465D
1615.731	0.817	1619699	WORD_OFF	n/a	n/a	PIG	FarmAnimals	3	12	[0, 0, 0]	n/a	catFR1	1	R1465D
1616.548	1.6	1620514	WORD	n/a	wordpools/wordpool_categorized_EN.txt	HORSE	FarmAnimals	4	12	[0, 0, 0]	n/a	catFR1	1	R1465D
1618.148	0.967	1622115	WORD_OFF	n/a	n/a	HORSE	FarmAnimals	4	12	[0, 0, 0]	n/a	catFR1	1	R1465D
1619.115	1.599	1623077	WORD	n/a	wordpools/wordpool_categorized_EN.txt	SUNFLOWER	Flowers	5	12	[0, 0, 0]	n/a	catFR1	1	R1465D
1620.714	0.801	1624678	WORD_OFF	n/a	n/a	SUNFLOWER	Flowers	5	12	[0, 0, 0]	n/a	catFR1	1	R1465D
1621.515	1.6	1625484	WORD	n/a	wordpools/wordpool_categorized_EN.txt	MARIGOLD	Flowers	6	12	[0, 0, 0]	n/a	catFR1	1	R1465D
1623.115	0.767	1627085	WORD_OFF	n/a	n/a	MARIGOLD	Flowers	6	12	[0, 0, 0]	n/a	catFR1	1	R1465D
1623.882	1.616	1627851	WORD	n/a	wordpools/wordpool_categorized_EN.txt	CARDINAL	Birds	7	12	[0, 0, 0]	n/a	catFR1	1	R1465D
1625.498	0.966	1629462	WORD_OFF	n/a	n/a	CARDINAL	Birds	7	12	[0, 0, 0]	n/a	catFR1	1	R1465D
1626.464	1.601	1630434	WORD	n/a	wordpools/wordpool_categorized_EN.txt	BLUEBIRD	Birds	8	12	[0, 0, 0]	n/a	catFR1	1	R1465D
1628.065	0.783	1632035	WORD_OFF	n/a	n/a	BLUEBIRD	Birds	8	12	[0, 0, 0]	n/a	catFR1	1	R1465D
1628.848	1.6	1632811	WORD	n/a	wordpools/wordpool_categorized_EN.txt	DAFFODIL	Flowers	9	12	[0, 0, 0]	n/a	catFR1	1	R1465D
1630.448	0.8	1634412	WORD_OFF	n/a	n/a	DAFFODIL	Flowers	9	12	[0, 0, 0]	n/a	catFR1	1	R1465D
1631.248	1.6	1635217	WORD	n/a	wordpools/wordpool_categorized_EN.txt	ROSE	Flowers	10	12	[0, 0, 0]	n/a	catFR1	1	R1465D
1632.848	1.0	1636818	WORD_OFF	n/a	n/a	ROSE	Flowers	10	12	[0, 0, 0]	n/a	catFR1	1	R1465D
1633.848	1.617	1637810	WORD	n/a	wordpools/wordpool_categorized_EN.txt	ROOSTER	FarmAnimals	11	12	[0, 0, 0]	n/a	catFR1	1	R1465D
1635.465	0.783	1639431	WORD_OFF	n/a	n/a	ROOSTER	FarmAnimals	11	12	[0, 0, 0]	n/a	catFR1	1	R1465D
1636.248	1.617	1640216	WORD	n/a	wordpools/wordpool_categorized_EN.txt	COW	FarmAnimals	12	12	[0, 0, 0]	n/a	catFR1	1	R1465D
1637.865	0.0	1641827	WORD_OFF	n/a	n/a	COW	FarmAnimals	12	12	[0, 0, 0]	n/a	catFR1	1	R1465D
1637.865	0.001	1641831	PROB	2.615	n/a	n/a	n/a	-999	12	[1, 5, 1]	7.0	catFR1	1	R1465D
1637.866	0.0	1641832	START	n/a	n/a	n/a	n/a	-999	12	[-999, -999, -999]	n/a	catFR1	1	R1465D
1637.866	0.0	1641837	ENCODING_END	n/a	n/a	n/a	n/a	-999	12	[0, 0, 0]	n/a	catFR1	1	R1465D
1637.866	2.632	1641837	DISTRACT_START	n/a	n/a	n/a	n/a	-999	12	[0, 0, 0]	n/a	catFR1	1	R1465D
1640.498	2.216	1644464	PROB	2.2	n/a	n/a	n/a	-999	12	[5, 2, 2]	9.0	catFR1	1	R1465D
1642.714	1.818	1646680	PROB	1.8	n/a	n/a	n/a	-999	12	[2, 2, 4]	8.0	catFR1	1	R1465D
1644.532	1.516	1648498	PROB	1.499	n/a	n/a	n/a	-999	12	[6, 3, 3]	12.0	catFR1	1	R1465D
1646.048	1.7	1650013	PROB	1.683	n/a	n/a	n/a	-999	12	[8, 2, 3]	13.0	catFR1	1	R1465D
1647.748	2.233	1651713	PROB	2.216	n/a	n/a	n/a	-999	12	[8, 3, 8]	19.0	catFR1	1	R1465D
1649.981	1.567	1653946	PROB	1.55	n/a	n/a	n/a	-999	12	[3, 2, 1]	6.0	catFR1	1	R1465D
1651.548	2.417	1655513	PROB	2.4	n/a	n/a	n/a	-999	12	[4, 7, 2]	13.0	catFR1	1	R1465D
1653.965	2.034	1657930	PROB	2.016	n/a	n/a	n/a	-999	12	[4, 1, 4]	9.0	catFR1	1	R1465D
1655.999	1.932	1659964	PROB	1.916	n/a	n/a	n/a	-999	12	[2, 3, 3]	8.0	catFR1	1	R1465D
1657.931	0.0	1661893	DISTRACT_END	n/a	n/a	n/a	n/a	-999	12	[0, 0, 0]	n/a	catFR1	1	R1465D
1657.931	2.334	1661896	STOP	n/a	n/a	n/a	n/a	-999	12	[-999, -999, -999]	n/a	catFR1	1	R1465D
1660.265	1.545	1664229	REC_START	n/a	n/a	n/a	n/a	-999	12	[0, 0, 0]	n/a	catFR1	1	R1465D
1661.81	0.938	1665775	REC_WORD	1.545	n/a	COW	FarmAnimals	12	12	[0, 0, 0]	n/a	catFR1	1	R1465D
1662.748	1.0	1666713	REC_WORD	2.483	n/a	FINCH	Birds	1	12	[0, 0, 0]	n/a	catFR1	1	R1465D
1663.748	0.473	1667713	REC_WORD_VV	3.483	n/a	<>	n/a	-999	12	[0, 0, 0]	n/a	catFR1	1	R1465D
1664.221	2.755	1668185	REC_WORD	3.956	n/a	BLUEBIRD	Birds	8	12	[0, 0, 0]	n/a	catFR1	1	R1465D
1666.976	5.116	1670940	REC_WORD	6.711	n/a	ROOSTER	FarmAnimals	11	12	[0, 0, 0]	n/a	catFR1	1	R1465D
1672.092	0.461	1676056	REC_WORD_VV	11.827	n/a	<>	n/a	-999	12	[0, 0, 0]	n/a	catFR1	1	R1465D
1672.553	1.062	1676517	REC_WORD	12.288	n/a	CHICKEN	n/a	-999	12	[0, 0, 0]	n/a	catFR1	1	R1465D
1673.615	1.041	1677579	REC_WORD	13.35	n/a	BARN	n/a	-999	12	[0, 0, 0]	n/a	catFR1	1	R1465D
1674.656	0.427	1678620	REC_WORD_VV	14.391	n/a	<>	n/a	-999	12	[0, 0, 0]	n/a	catFR1	1	R1465D
1675.083	1.028	1679047	REC_WORD	14.818	n/a	FINCH	Birds	1	12	[0, 0, 0]	n/a	catFR1	1	R1465D
1676.111	0.591	1680075	REC_WORD	15.846	n/a	SPARROW	Birds	-999	12	[0, 0, 0]	n/a	catFR1	1	R1465D
1676.702	1.166	1680666	REC_WORD	16.437	n/a	ROOSTER	FarmAnimals	11	12	[0, 0, 0]	n/a	catFR1	1	R1465D
1677.868	1.807	1681832	REC_WORD	17.603	n/a	COW	FarmAnimals	12	12	[0, 0, 0]	n/a	catFR1	1	R1465D
1679.675	0.675	1683639	REC_WORD	19.41	n/a	SPARROW	Birds	-999	12	[0, 0, 0]	n/a	catFR1	1	R1465D
1680.35	2.901	1684314	REC_WORD	20.085	n/a	FINCH	Birds	1	12	[0, 0, 0]	n/a	catFR1	1	R1465D
1683.251	1.0	1687214	REC_WORD	22.986	n/a	VIOLET	Flowers	-999	12	[0, 0, 0]	n/a	catFR1	1	R1465D
1684.251	1.0	1688214	REC_WORD_VV	23.986	n/a	<>	n/a	-999	12	[0, 0, 0]	n/a	catFR1	1	R1465D
1685.251	1.0	1689214	REC_WORD_VV	24.986	n/a	<>	n/a	-999	12	[0, 0, 0]	n/a	catFR1	1	R1465D
1686.251	1.0	1690214	REC_WORD_VV	25.986	n/a	<>	n/a	-999	12	[0, 0, 0]	n/a	catFR1	1	R1465D
1687.251	1.0	1691214	REC_WORD_VV	26.986	n/a	<>	n/a	-999	12	[0, 0, 0]	n/a	catFR1	1	R1465D
1688.251	1.0	1692214	REC_WORD_VV	27.986	n/a	<>	n/a	-999	12	[0, 0, 0]	n/a	catFR1	1	R1465D
1689.251	1.0	1693214	REC_WORD_VV	28.986	n/a	<>	n/a	-999	12	[0, 0, 0]	n/a	catFR1	1	R1465D
1690.251	0.245	1694214	REC_WORD_VV	29.986	n/a	<>	n/a	-999	12	[0, 0, 0]	n/a	catFR1	1	R1465D
1690.496	0.0	1694462	REC_END	n/a	n/a	n/a	n/a	-999	12	[0, 0, 0]	n/a	catFR1	1	R1465D
