onset	duration	sample	trial_type	response_time	stim_file	item_name	category	serialpos	list	test	answer	experiment	session	subject
0.0	1.165	1360	INSTRUCT_START	n/a	n/a	n/a	n/a	-999	-999	[0, 0, 0]	n/a	catFR1	3	R1444D
1.165	18.333	2800	INSTRUCT_END	n/a	n/a	n/a	n/a	-999	-999	[0, 0, 0]	n/a	catFR1	3	R1444D
19.498	10.349	21133	COUNTDOWN_START	n/a	n/a	n/a	n/a	-999	-999	[0, 0, 0]	n/a	catFR1	3	R1444D
29.847	0.0	31480	COUNTDOWN_END	n/a	n/a	n/a	n/a	-999	-999	[0, 0, 0]	n/a	catFR1	3	R1444D
29.847	2.301	31480	ENCODING_START	n/a	n/a	n/a	n/a	-999	-1	[0, 0, 0]	n/a	catFR1	3	R1444D
32.148	1.599	33778	WORD	n/a	n/a	ANT	Insects	1	-1	[0, 0, 0]	n/a	catFR1	3	R1444D
33.747	0.817	35372	WORD_OFF	n/a	n/a	ANT	Insects	1	-1	[0, 0, 0]	n/a	catFR1	3	R1444D
34.564	1.617	36189	WORD	n/a	n/a	BEE	Insects	2	-1	[0, 0, 0]	n/a	catFR1	3	R1444D
36.181	1.0	37809	WORD_OFF	n/a	n/a	BEE	Insects	2	-1	[0, 0, 0]	n/a	catFR1	3	R1444D
37.181	1.616	38813	WORD	n/a	n/a	PUDDING	Desserts	3	-1	[0, 0, 0]	n/a	catFR1	3	R1444D
38.797	0.967	40433	WORD_OFF	n/a	n/a	PUDDING	Desserts	3	-1	[0, 0, 0]	n/a	catFR1	3	R1444D
39.764	1.617	41400	WORD	n/a	n/a	COOKIE	Desserts	4	-1	[0, 0, 0]	n/a	catFR1	3	R1444D
41.381	0.883	43007	WORD_OFF	n/a	n/a	COOKIE	Desserts	4	-1	[0, 0, 0]	n/a	catFR1	3	R1444D
42.264	1.6	43899	WORD	n/a	n/a	REFRIGERATOR	Appliances	5	-1	[0, 0, 0]	n/a	catFR1	3	R1444D
43.864	0.999	45493	WORD_OFF	n/a	n/a	REFRIGERATOR	Appliances	5	-1	[0, 0, 0]	n/a	catFR1	3	R1444D
44.863	1.6	46498	WORD	n/a	n/a	DISHWASHER	Appliances	6	-1	[0, 0, 0]	n/a	catFR1	3	R1444D
46.463	0.801	48093	WORD_OFF	n/a	n/a	DISHWASHER	Appliances	6	-1	[0, 0, 0]	n/a	catFR1	3	R1444D
47.264	1.616	48896	WORD	n/a	n/a	CAKE	Desserts	7	-1	[0, 0, 0]	n/a	catFR1	3	R1444D
48.88	1.0	50516	WORD_OFF	n/a	n/a	CAKE	Desserts	7	-1	[0, 0, 0]	n/a	catFR1	3	R1444D
49.88	1.617	51508	WORD	n/a	n/a	PIE	Desserts	8	-1	[0, 0, 0]	n/a	catFR1	3	R1444D
51.497	0.966	53128	WORD_OFF	n/a	n/a	PIE	Desserts	8	-1	[0, 0, 0]	n/a	catFR1	3	R1444D
52.463	1.6	54095	WORD	n/a	n/a	CRICKET	Insects	9	-1	[0, 0, 0]	n/a	catFR1	3	R1444D
54.063	0.801	55690	WORD_OFF	n/a	n/a	CRICKET	Insects	9	-1	[0, 0, 0]	n/a	catFR1	3	R1444D
54.864	1.616	56506	WORD	n/a	n/a	BEETLE	Insects	10	-1	[0, 0, 0]	n/a	catFR1	3	R1444D
56.48	0.95	58113	WORD_OFF	n/a	n/a	BEETLE	Insects	10	-1	[0, 0, 0]	n/a	catFR1	3	R1444D
57.43	1.6	59055	WORD	n/a	n/a	OVEN	Appliances	11	-1	[0, 0, 0]	n/a	catFR1	3	R1444D
59.03	0.767	60662	WORD_OFF	n/a	n/a	OVEN	Appliances	11	-1	[0, 0, 0]	n/a	catFR1	3	R1444D
59.797	1.6	61428	WORD	n/a	n/a	MIXER	Appliances	12	-1	[0, 0, 0]	n/a	catFR1	3	R1444D
61.397	0.002	63023	WORD_OFF	n/a	n/a	MIXER	Appliances	12	-1	[0, 0, 0]	n/a	catFR1	3	R1444D
61.399	0.0	63023	ENCODING_END	n/a	n/a	n/a	n/a	-999	-1	[0, 0, 0]	n/a	catFR1	3	R1444D
61.399	0.0	63026	START	n/a	n/a	n/a	n/a	-999	-1	[-999, -999, -999]	n/a	catFR1	3	R1444D
61.399	0.0	63026	PROB	0.0	n/a	n/a	n/a	-999	-1	[6, 7, 3]	16	catFR1	3	R1444D
61.399	14.932	63035	DISTRACT_START	n/a	n/a	n/a	n/a	-999	-1	[0, 0, 0]	n/a	catFR1	3	R1444D
76.331	3.55	77957	PROB	3.55	n/a	n/a	n/a	-999	-1	[1, 7, 7]	15	catFR1	3	R1444D
79.881	8.233	81507	PROB	8.233	n/a	n/a	n/a	-999	-1	[7, 7, 5]	19	catFR1	3	R1444D
88.114	0.0	89739	STOP	n/a	n/a	n/a	n/a	-999	-1	[-999, -999, -999]	n/a	catFR1	3	R1444D
88.114	1.067	89744	DISTRACT_END	n/a	n/a	n/a	n/a	-999	-1	[0, 0, 0]	n/a	catFR1	3	R1444D
89.181	0.0	90806	REC_WORD	0.0	n/a	CAKE	Desserts	7	-1	[0, 0, 0]	n/a	catFR1	3	R1444D
89.181	0.283	90811	REC_START	n/a	n/a	n/a	n/a	-999	-1	[0, 0, 0]	n/a	catFR1	3	R1444D
89.464	0.384	91089	REC_WORD	0.384	n/a	CREAM	n/a	-999	-1	[0, 0, 0]	n/a	catFR1	3	R1444D
89.848	1.016	91473	REC_WORD	1.016	n/a	PIE	Desserts	8	-1	[0, 0, 0]	n/a	catFR1	3	R1444D
90.864	1.822	92489	REC_WORD	1.822	n/a	MAKER	n/a	-999	-1	[0, 0, 0]	n/a	catFR1	3	R1444D
92.686	3.965	94311	REC_WORD_VV	3.965	n/a	<>	n/a	-999	-1	[0, 0, 0]	n/a	catFR1	3	R1444D
96.651	0.428	98276	REC_WORD	0.428	n/a	MAKER	n/a	-999	-1	[0, 0, 0]	n/a	catFR1	3	R1444D
97.079	1.89	98704	REC_WORD_VV	1.89	n/a	<>	n/a	-999	-1	[0, 0, 0]	n/a	catFR1	3	R1444D
98.969	1.0	100594	REC_WORD_VV	1.0	n/a	<>	n/a	-999	-1	[0, 0, 0]	n/a	catFR1	3	R1444D
99.969	1.0	101594	REC_WORD_VV	1.0	n/a	<>	n/a	-999	-1	[0, 0, 0]	n/a	catFR1	3	R1444D
100.969	1.0	102594	REC_WORD_VV	1.0	n/a	<>	n/a	-999	-1	[0, 0, 0]	n/a	catFR1	3	R1444D
101.969	1.0	103594	REC_WORD_VV	1.0	n/a	<>	n/a	-999	-1	[0, 0, 0]	n/a	catFR1	3	R1444D
102.969	1.0	104594	REC_WORD_VV	1.0	n/a	<>	n/a	-999	-1	[0, 0, 0]	n/a	catFR1	3	R1444D
103.969	1.0	105594	REC_WORD_VV	1.0	n/a	<>	n/a	-999	-1	[0, 0, 0]	n/a	catFR1	3	R1444D
104.969	1.0	106594	REC_WORD_VV	1.0	n/a	<>	n/a	-999	-1	[0, 0, 0]	n/a	catFR1	3	R1444D
105.969	1.0	107593	REC_WORD_VV	1.0	n/a	<>	n/a	-999	-1	[0, 0, 0]	n/a	catFR1	3	R1444D
106.969	1.0	108593	REC_WORD_VV	1.0	n/a	<>	n/a	-999	-1	[0, 0, 0]	n/a	catFR1	3	R1444D
107.969	12.432	109593	REC_WORD_VV	12.432	n/a	<>	n/a	-999	-1	[0, 0, 0]	n/a	catFR1	3	R1444D
120.401	12.079	122028	REC_END	n/a	n/a	n/a	n/a	-999	-1	[0, 0, 0]	n/a	catFR1	3	R1444D
132.48	10.351	134108	COUNTDOWN_START	n/a	n/a	n/a	n/a	-999	1	[0, 0, 0]	n/a	catFR1	3	R1444D
142.831	0.0	144455	COUNTDOWN_END	n/a	n/a	n/a	n/a	-999	1	[0, 0, 0]	n/a	catFR1	3	R1444D
142.831	2.166	144455	ENCODING_START	n/a	n/a	n/a	n/a	-999	1	[0, 0, 0]	n/a	catFR1	3	R1444D
144.997	1.6	146627	WORD	n/a	wordpools/wordpool_categorized_EN.txt	BOOKCASE	Furniture	1	1	[0, 0, 0]	n/a	catFR1	3	R1444D
146.597	0.801	148222	WORD_OFF	n/a	n/a	BOOKCASE	Furniture	1	1	[0, 0, 0]	n/a	catFR1	3	R1444D
147.398	1.616	149025	WORD	n/a	wordpools/wordpool_categorized_EN.txt	CABINET	Furniture	2	1	[0, 0, 0]	n/a	catFR1	3	R1444D
149.014	0.85	150633	WORD_OFF	n/a	n/a	CABINET	Furniture	2	1	[0, 0, 0]	n/a	catFR1	3	R1444D
149.864	1.617	151487	WORD	n/a	wordpools/wordpool_categorized_EN.txt	CHEETAH	Zoo	3	1	[0, 0, 0]	n/a	catFR1	3	R1444D
151.481	0.866	153106	WORD_OFF	n/a	n/a	CHEETAH	Zoo	3	1	[0, 0, 0]	n/a	catFR1	3	R1444D
152.347	1.617	153973	WORD	n/a	wordpools/wordpool_categorized_EN.txt	GIRAFFE	Zoo	4	1	[0, 0, 0]	n/a	catFR1	3	R1444D
153.964	0.916	155593	WORD_OFF	n/a	n/a	GIRAFFE	Zoo	4	1	[0, 0, 0]	n/a	catFR1	3	R1444D
154.88	1.601	156509	WORD	n/a	wordpools/wordpool_categorized_EN.txt	VAN	Vehicles	5	1	[0, 0, 0]	n/a	catFR1	3	R1444D
156.481	0.783	158104	WORD_OFF	n/a	n/a	VAN	Vehicles	5	1	[0, 0, 0]	n/a	catFR1	3	R1444D
157.264	1.617	158883	WORD	n/a	wordpools/wordpool_categorized_EN.txt	PLANE	Vehicles	6	1	[0, 0, 0]	n/a	catFR1	3	R1444D
158.881	0.95	160502	WORD_OFF	n/a	n/a	PLANE	Vehicles	6	1	[0, 0, 0]	n/a	catFR1	3	R1444D
159.831	1.6	161457	WORD	n/a	wordpools/wordpool_categorized_EN.txt	ORANGUTAN	Zoo	7	1	[0, 0, 0]	n/a	catFR1	3	R1444D
161.431	0.866	163052	WORD_OFF	n/a	n/a	ORANGUTAN	Zoo	7	1	[0, 0, 0]	n/a	catFR1	3	R1444D
162.297	1.6	163918	WORD	n/a	wordpools/wordpool_categorized_EN.txt	ELEPHANT	Zoo	8	1	[0, 0, 0]	n/a	catFR1	3	R1444D
163.897	0.867	165525	WORD_OFF	n/a	n/a	ELEPHANT	Zoo	8	1	[0, 0, 0]	n/a	catFR1	3	R1444D
164.764	1.6	166392	WORD	n/a	wordpools/wordpool_categorized_EN.txt	MOPED	Vehicles	9	1	[0, 0, 0]	n/a	catFR1	3	R1444D
166.364	0.917	167986	WORD_OFF	n/a	n/a	MOPED	Vehicles	9	1	[0, 0, 0]	n/a	catFR1	3	R1444D
167.281	1.616	168903	WORD	n/a	wordpools/wordpool_categorized_EN.txt	CAR	Vehicles	10	1	[0, 0, 0]	n/a	catFR1	3	R1444D
168.897	0.916	170523	WORD_OFF	n/a	n/a	CAR	Vehicles	10	1	[0, 0, 0]	n/a	catFR1	3	R1444D
169.813	1.617	171440	WORD	n/a	wordpools/wordpool_categorized_EN.txt	NIGHTSTAND	Furniture	11	1	[0, 0, 0]	n/a	catFR1	3	R1444D
171.43	0.766	173059	WORD_OFF	n/a	n/a	NIGHTSTAND	Furniture	11	1	[0, 0, 0]	n/a	catFR1	3	R1444D
172.196	1.617	173825	WORD	n/a	wordpools/wordpool_categorized_EN.txt	RECLINER	Furniture	12	1	[0, 0, 0]	n/a	catFR1	3	R1444D
173.813	0.002	175433	WORD_OFF	n/a	n/a	RECLINER	Furniture	12	1	[0, 0, 0]	n/a	catFR1	3	R1444D
173.815	0.0	175433	ENCODING_END	n/a	n/a	n/a	n/a	-999	1	[0, 0, 0]	n/a	catFR1	3	R1444D
173.814	0.001	175435	PROB	0.001	n/a	n/a	n/a	-999	1	[5, 6, 6]	17	catFR1	3	R1444D
173.815	0.0	175436	START	n/a	n/a	n/a	n/a	-999	1	[-999, -999, -999]	n/a	catFR1	3	R1444D
173.815	12.583	175445	DISTRACT_START	n/a	n/a	n/a	n/a	-999	1	[0, 0, 0]	n/a	catFR1	3	R1444D
186.398	4.9	188018	PROB	4.9	n/a	n/a	n/a	-999	1	[6, 2, 4]	12	catFR1	3	R1444D
191.298	6.35	192918	PROB	6.35	n/a	n/a	n/a	-999	1	[3, 4, 1]	8	catFR1	3	R1444D
197.648	0.0	199266	DISTRACT_END	n/a	n/a	n/a	n/a	-999	1	[0, 0, 0]	n/a	catFR1	3	R1444D
197.648	1.131	199268	STOP	n/a	n/a	n/a	n/a	-999	1	[-999, -999, -999]	n/a	catFR1	3	R1444D
198.779	1.609	200396	REC_START	n/a	n/a	n/a	n/a	-999	1	[0, 0, 0]	n/a	catFR1	3	R1444D
200.388	0.694	202007	REC_WORD	0.694	n/a	NIGHTSTAND	Furniture	11	1	[0, 0, 0]	n/a	catFR1	3	R1444D
201.082	1.0	202701	REC_WORD_VV	1.0	n/a	<>	n/a	-999	1	[0, 0, 0]	n/a	catFR1	3	R1444D
202.082	1.123	203701	REC_WORD_VV	1.123	n/a	<>	n/a	-999	1	[0, 0, 0]	n/a	catFR1	3	R1444D
203.205	0.393	204824	REC_WORD_VV	0.393	n/a	<>	n/a	-999	1	[0, 0, 0]	n/a	catFR1	3	R1444D
203.598	2.1	205217	REC_WORD	2.1	n/a	RECLINER	Furniture	12	1	[0, 0, 0]	n/a	catFR1	3	R1444D
205.698	3.037	207317	REC_WORD_VV	3.037	n/a	<>	n/a	-999	1	[0, 0, 0]	n/a	catFR1	3	R1444D
208.735	3.514	210354	REC_WORD	3.514	n/a	MOPED	Vehicles	9	1	[0, 0, 0]	n/a	catFR1	3	R1444D
212.249	0.72	213868	REC_WORD	0.72	n/a	MOPED	Vehicles	9	1	[0, 0, 0]	n/a	catFR1	3	R1444D
212.969	3.818	214588	REC_WORD_VV	3.818	n/a	<>	n/a	-999	1	[0, 0, 0]	n/a	catFR1	3	R1444D
216.787	2.191	218406	REC_WORD_VV	2.191	n/a	<>	n/a	-999	1	[0, 0, 0]	n/a	catFR1	3	R1444D
218.978	0.585	220596	REC_WORD	0.585	n/a	NIGHTSTAND	Furniture	11	1	[0, 0, 0]	n/a	catFR1	3	R1444D
219.563	0.799	221181	REC_WORD	0.799	n/a	RECLINER	Furniture	12	1	[0, 0, 0]	n/a	catFR1	3	R1444D
220.362	0.446	221980	REC_WORD	0.446	n/a	NIGHTSTAND	Furniture	11	1	[0, 0, 0]	n/a	catFR1	3	R1444D
220.808	0.464	222426	REC_WORD	0.464	n/a	RECLINER	Furniture	12	1	[0, 0, 0]	n/a	catFR1	3	R1444D
221.272	2.204	222890	REC_WORD	2.204	n/a	MOPED	Vehicles	9	1	[0, 0, 0]	n/a	catFR1	3	R1444D
223.476	1.291	225094	REC_WORD	1.291	n/a	MOUSSE	n/a	-999	1	[0, 0, 0]	n/a	catFR1	3	R1444D
224.767	1.0	226385	REC_WORD_VV	1.0	n/a	<>	n/a	-999	1	[0, 0, 0]	n/a	catFR1	3	R1444D
225.767	1.0	227385	REC_WORD_VV	1.0	n/a	<>	n/a	-999	1	[0, 0, 0]	n/a	catFR1	3	R1444D
226.767	3.247	228385	REC_WORD_VV	3.247	n/a	<>	n/a	-999	1	[0, 0, 0]	n/a	catFR1	3	R1444D
230.014	6.833	231638	REC_END	n/a	n/a	n/a	n/a	-999	1	[0, 0, 0]	n/a	catFR1	3	R1444D
236.847	10.348	238469	COUNTDOWN_START	n/a	n/a	n/a	n/a	-999	1	[0, 0, 0]	n/a	catFR1	3	R1444D
247.195	0.0	248816	COUNTDOWN_END	n/a	n/a	n/a	n/a	-999	1	[0, 0, 0]	n/a	catFR1	3	R1444D
247.195	2.186	248816	ENCODING_START	n/a	n/a	n/a	n/a	-999	2	[0, 0, 0]	n/a	catFR1	3	R1444D
249.381	1.6	251000	WORD	n/a	wordpools/wordpool_categorized_EN.txt	WALNUT	Trees	1	2	[0, 0, 0]	n/a	catFR1	3	R1444D
250.981	0.949	252595	WORD_OFF	n/a	n/a	WALNUT	Trees	1	2	[0, 0, 0]	n/a	catFR1	3	R1444D
251.93	1.601	253549	WORD	n/a	wordpools/wordpool_categorized_EN.txt	BIRCH	Trees	2	2	[0, 0, 0]	n/a	catFR1	3	R1444D
253.531	0.765	255144	WORD_OFF	n/a	n/a	BIRCH	Trees	2	2	[0, 0, 0]	n/a	catFR1	3	R1444D
254.296	1.601	255910	WORD	n/a	wordpools/wordpool_categorized_EN.txt	COFFEE	Beverages	3	2	[0, 0, 0]	n/a	catFR1	3	R1444D
255.897	0.817	257517	WORD_OFF	n/a	n/a	COFFEE	Beverages	3	2	[0, 0, 0]	n/a	catFR1	3	R1444D
256.714	1.616	258334	WORD	n/a	wordpools/wordpool_categorized_EN.txt	SODA	Beverages	4	2	[0, 0, 0]	n/a	catFR1	3	R1444D
258.33	0.767	259954	WORD_OFF	n/a	n/a	SODA	Beverages	4	2	[0, 0, 0]	n/a	catFR1	3	R1444D
259.097	1.617	260720	WORD	n/a	wordpools/wordpool_categorized_EN.txt	TELEVISION	Electronics	5	2	[0, 0, 0]	n/a	catFR1	3	R1444D
260.714	0.866	262339	WORD_OFF	n/a	n/a	TELEVISION	Electronics	5	2	[0, 0, 0]	n/a	catFR1	3	R1444D
261.58	1.601	263193	WORD	n/a	wordpools/wordpool_categorized_EN.txt	COMPUTER	Electronics	6	2	[0, 0, 0]	n/a	catFR1	3	R1444D
263.181	0.883	264801	WORD_OFF	n/a	n/a	COMPUTER	Electronics	6	2	[0, 0, 0]	n/a	catFR1	3	R1444D
264.064	1.6	265680	WORD	n/a	wordpools/wordpool_categorized_EN.txt	EVERGREEN	Trees	7	2	[0, 0, 0]	n/a	catFR1	3	R1444D
265.664	0.933	267287	WORD_OFF	n/a	n/a	EVERGREEN	Trees	7	2	[0, 0, 0]	n/a	catFR1	3	R1444D
266.597	1.6	268216	WORD	n/a	wordpools/wordpool_categorized_EN.txt	PINE	Trees	8	2	[0, 0, 0]	n/a	catFR1	3	R1444D
268.197	1.0	269811	WORD_OFF	n/a	n/a	PINE	Trees	8	2	[0, 0, 0]	n/a	catFR1	3	R1444D
269.197	1.6	270815	WORD	n/a	wordpools/wordpool_categorized_EN.txt	CIDER	Beverages	9	2	[0, 0, 0]	n/a	catFR1	3	R1444D
270.797	0.867	272410	WORD_OFF	n/a	n/a	CIDER	Beverages	9	2	[0, 0, 0]	n/a	catFR1	3	R1444D
271.664	1.6	273276	WORD	n/a	wordpools/wordpool_categorized_EN.txt	JUICE	Beverages	10	2	[0, 0, 0]	n/a	catFR1	3	R1444D
273.264	0.8	274884	WORD_OFF	n/a	n/a	JUICE	Beverages	10	2	[0, 0, 0]	n/a	catFR1	3	R1444D
274.064	1.617	275687	WORD	n/a	wordpools/wordpool_categorized_EN.txt	PRINTER	Electronics	11	2	[0, 0, 0]	n/a	catFR1	3	R1444D
275.681	0.883	277295	WORD_OFF	n/a	n/a	PRINTER	Electronics	11	2	[0, 0, 0]	n/a	catFR1	3	R1444D
276.564	1.601	278186	WORD	n/a	wordpools/wordpool_categorized_EN.txt	STEREO	Electronics	12	2	[0, 0, 0]	n/a	catFR1	3	R1444D
278.165	0.0	279780	PROB	0.0	n/a	n/a	n/a	-999	2	[8, 7, 5]	20	catFR1	3	R1444D
278.164	0.003	279781	WORD_OFF	n/a	n/a	STEREO	Electronics	12	2	[0, 0, 0]	n/a	catFR1	3	R1444D
278.167	0.0	279781	ENCODING_END	n/a	n/a	n/a	n/a	-999	2	[0, 0, 0]	n/a	catFR1	3	R1444D
278.167	0.0	279781	DISTRACT_START	n/a	n/a	n/a	n/a	-999	2	[0, 0, 0]	n/a	catFR1	3	R1444D
278.167	15.065	279782	START	n/a	n/a	n/a	n/a	-999	2	[-999, -999, -999]	n/a	catFR1	3	R1444D
293.232	5.464	294847	PROB	5.464	n/a	n/a	n/a	-999	2	[2, 4, 7]	13	catFR1	3	R1444D
298.696	0.0	300310	STOP	n/a	n/a	n/a	n/a	-999	2	[-999, -999, -999]	n/a	catFR1	3	R1444D
298.696	1.017	300312	DISTRACT_END	n/a	n/a	n/a	n/a	-999	2	[0, 0, 0]	n/a	catFR1	3	R1444D
299.713	2.344	301329	REC_START	n/a	n/a	n/a	n/a	-999	2	[0, 0, 0]	n/a	catFR1	3	R1444D
302.057	0.695	303671	REC_WORD	0.695	n/a	CIDER	Beverages	9	2	[0, 0, 0]	n/a	catFR1	3	R1444D
302.752	1.286	304366	REC_WORD	1.286	n/a	PINE	Trees	8	2	[0, 0, 0]	n/a	catFR1	3	R1444D
304.038	2.64	305652	REC_WORD_VV	2.64	n/a	<>	n/a	-999	2	[0, 0, 0]	n/a	catFR1	3	R1444D
306.678	3.373	308292	REC_WORD_VV	3.373	n/a	<>	n/a	-999	2	[0, 0, 0]	n/a	catFR1	3	R1444D
310.051	0.895	311665	REC_WORD	0.895	n/a	CIDER	Beverages	9	2	[0, 0, 0]	n/a	catFR1	3	R1444D
310.946	2.557	312560	REC_WORD	2.557	n/a	PINE	Trees	8	2	[0, 0, 0]	n/a	catFR1	3	R1444D
313.503	0.707	315116	REC_WORD	0.707	n/a	CIDER	Beverages	9	2	[0, 0, 0]	n/a	catFR1	3	R1444D
314.21	2.152	315823	REC_WORD	2.152	n/a	PINE	Trees	8	2	[0, 0, 0]	n/a	catFR1	3	R1444D
316.362	2.956	317975	REC_WORD	2.956	n/a	GREEN	n/a	-999	2	[0, 0, 0]	n/a	catFR1	3	R1444D
319.318	6.061	320931	REC_WORD_VV	6.061	n/a	<>	n/a	-999	2	[0, 0, 0]	n/a	catFR1	3	R1444D
325.379	1.0	326992	REC_WORD_VV	1.0	n/a	<>	n/a	-999	2	[0, 0, 0]	n/a	catFR1	3	R1444D
326.379	1.0	327992	REC_WORD_VV	1.0	n/a	<>	n/a	-999	2	[0, 0, 0]	n/a	catFR1	3	R1444D
327.379	3.561	328992	REC_WORD_VV	3.561	n/a	<>	n/a	-999	2	[0, 0, 0]	n/a	catFR1	3	R1444D
330.94	6.174	332558	REC_END	n/a	n/a	n/a	n/a	-999	2	[0, 0, 0]	n/a	catFR1	3	R1444D
337.114	10.35	338736	COUNTDOWN_START	n/a	n/a	n/a	n/a	-999	2	[0, 0, 0]	n/a	catFR1	3	R1444D
347.464	0.0	349083	COUNTDOWN_END	n/a	n/a	n/a	n/a	-999	2	[0, 0, 0]	n/a	catFR1	3	R1444D
347.464	2.284	349083	ENCODING_START	n/a	n/a	n/a	n/a	-999	3	[0, 0, 0]	n/a	catFR1	3	R1444D
349.748	1.6	351368	WORD	n/a	wordpools/wordpool_categorized_EN.txt	VIOLET	Flowers	1	3	[0, 0, 0]	n/a	catFR1	3	R1444D
351.348	0.85	352963	WORD_OFF	n/a	n/a	VIOLET	Flowers	1	3	[0, 0, 0]	n/a	catFR1	3	R1444D
352.198	1.616	353817	WORD	n/a	wordpools/wordpool_categorized_EN.txt	LILY	Flowers	2	3	[0, 0, 0]	n/a	catFR1	3	R1444D
353.814	0.9	355424	WORD_OFF	n/a	n/a	LILY	Flowers	2	3	[0, 0, 0]	n/a	catFR1	3	R1444D
354.714	1.617	356328	WORD	n/a	wordpools/wordpool_categorized_EN.txt	ARM	BodyParts	3	3	[0, 0, 0]	n/a	catFR1	3	R1444D
356.331	0.815	357948	WORD_OFF	n/a	n/a	ARM	BodyParts	3	3	[0, 0, 0]	n/a	catFR1	3	R1444D
357.146	1.601	358764	WORD	n/a	wordpools/wordpool_categorized_EN.txt	EAR	BodyParts	4	3	[0, 0, 0]	n/a	catFR1	3	R1444D
358.747	0.851	360359	WORD_OFF	n/a	n/a	EAR	BodyParts	4	3	[0, 0, 0]	n/a	catFR1	3	R1444D
359.598	1.616	361213	WORD	n/a	wordpools/wordpool_categorized_EN.txt	OCEAN	Landscapes	5	3	[0, 0, 0]	n/a	catFR1	3	R1444D
361.214	0.883	362833	WORD_OFF	n/a	n/a	OCEAN	Landscapes	5	3	[0, 0, 0]	n/a	catFR1	3	R1444D
362.097	1.6	363712	WORD	n/a	wordpools/wordpool_categorized_EN.txt	ISLAND	Landscapes	6	3	[0, 0, 0]	n/a	catFR1	3	R1444D
363.697	0.783	365306	WORD_OFF	n/a	n/a	ISLAND	Landscapes	6	3	[0, 0, 0]	n/a	catFR1	3	R1444D
364.48	1.618	366097	WORD	n/a	wordpools/wordpool_categorized_EN.txt	SUNFLOWER	Flowers	7	3	[0, 0, 0]	n/a	catFR1	3	R1444D
366.098	0.85	367717	WORD_OFF	n/a	n/a	SUNFLOWER	Flowers	7	3	[0, 0, 0]	n/a	catFR1	3	R1444D
366.948	1.599	368559	WORD	n/a	wordpools/wordpool_categorized_EN.txt	LILAC	Flowers	8	3	[0, 0, 0]	n/a	catFR1	3	R1444D
368.547	0.867	370166	WORD_OFF	n/a	n/a	LILAC	Flowers	8	3	[0, 0, 0]	n/a	catFR1	3	R1444D
369.414	1.6	371032	WORD	n/a	wordpools/wordpool_categorized_EN.txt	FOOT	BodyParts	9	3	[0, 0, 0]	n/a	catFR1	3	R1444D
371.014	0.849	372627	WORD_OFF	n/a	n/a	FOOT	BodyParts	9	3	[0, 0, 0]	n/a	catFR1	3	R1444D
371.863	1.601	373481	WORD	n/a	wordpools/wordpool_categorized_EN.txt	EYE	BodyParts	10	3	[0, 0, 0]	n/a	catFR1	3	R1444D
373.464	0.883	375076	WORD_OFF	n/a	n/a	EYE	BodyParts	10	3	[0, 0, 0]	n/a	catFR1	3	R1444D
374.347	1.601	375955	WORD	n/a	wordpools/wordpool_categorized_EN.txt	LAKE	Landscapes	11	3	[0, 0, 0]	n/a	catFR1	3	R1444D
375.948	0.866	377562	WORD_OFF	n/a	n/a	LAKE	Landscapes	11	3	[0, 0, 0]	n/a	catFR1	3	R1444D
376.814	1.617	378428	WORD	n/a	wordpools/wordpool_categorized_EN.txt	STREAM	Landscapes	12	3	[0, 0, 0]	n/a	catFR1	3	R1444D
378.431	0.001	380041	PROB	0.001	n/a	n/a	n/a	-999	3	[8, 8, 4]	18	catFR1	3	R1444D
378.432	0.0	380042	START	n/a	n/a	n/a	n/a	-999	3	[-999, -999, -999]	n/a	catFR1	3	R1444D
378.431	0.001	380048	WORD_OFF	n/a	n/a	STREAM	Landscapes	12	3	[0, 0, 0]	n/a	catFR1	3	R1444D
378.432	0.0	380048	ENCODING_END	n/a	n/a	n/a	n/a	-999	3	[0, 0, 0]	n/a	catFR1	3	R1444D
378.432	13.083	380048	DISTRACT_START	n/a	n/a	n/a	n/a	-999	3	[0, 0, 0]	n/a	catFR1	3	R1444D
391.515	5.866	393124	PROB	5.866	n/a	n/a	n/a	-999	3	[7, 1, 4]	12	catFR1	3	R1444D
397.381	7.216	398990	PROB	7.216	n/a	n/a	n/a	-999	3	[5, 3, 4]	12	catFR1	3	R1444D
404.597	0.0	406204	DISTRACT_END	n/a	n/a	n/a	n/a	-999	3	[0, 0, 0]	n/a	catFR1	3	R1444D
404.597	1.399	406206	STOP	n/a	n/a	n/a	n/a	-999	3	[-999, -999, -999]	n/a	catFR1	3	R1444D
405.996	1.367	407611	REC_START	n/a	n/a	n/a	n/a	-999	3	[0, 0, 0]	n/a	catFR1	3	R1444D
407.363	1.0	408971	REC_WORD_VV	1.0	n/a	<>	n/a	-999	3	[0, 0, 0]	n/a	catFR1	3	R1444D
408.363	2.205	409971	REC_WORD_VV	2.205	n/a	<>	n/a	-999	3	[0, 0, 0]	n/a	catFR1	3	R1444D
410.568	1.134	412176	REC_WORD	1.134	n/a	FIRE	n/a	-999	3	[0, 0, 0]	n/a	catFR1	3	R1444D
411.702	0.524	413310	REC_WORD	0.524	n/a	FIRE	n/a	-999	3	[0, 0, 0]	n/a	catFR1	3	R1444D
412.226	0.352	413834	REC_WORD	0.352	n/a	LAKE	Landscapes	11	3	[0, 0, 0]	n/a	catFR1	3	R1444D
412.578	1.915	414186	REC_WORD	1.915	n/a	STREAM	Landscapes	12	3	[0, 0, 0]	n/a	catFR1	3	R1444D
414.493	2.878	416101	REC_WORD_VV	2.878	n/a	<>	n/a	-999	3	[0, 0, 0]	n/a	catFR1	3	R1444D
417.371	0.899	418979	REC_WORD	0.899	n/a	FIRE	n/a	-999	3	[0, 0, 0]	n/a	catFR1	3	R1444D
418.27	0.324	419878	REC_WORD	0.324	n/a	LAKE	Landscapes	11	3	[0, 0, 0]	n/a	catFR1	3	R1444D
418.594	2.382	420202	REC_WORD	2.382	n/a	STREAM	Landscapes	12	3	[0, 0, 0]	n/a	catFR1	3	R1444D
420.976	16.263	422584	REC_WORD_VV	16.263	n/a	<>	n/a	-999	3	[0, 0, 0]	n/a	catFR1	3	R1444D
437.239	9.408	438852	REC_END	n/a	n/a	n/a	n/a	-999	3	[0, 0, 0]	n/a	catFR1	3	R1444D
446.647	10.35	448258	COUNTDOWN_START	n/a	n/a	n/a	n/a	-999	3	[0, 0, 0]	n/a	catFR1	3	R1444D
456.997	0.0	458605	COUNTDOWN_END	n/a	n/a	n/a	n/a	-999	3	[0, 0, 0]	n/a	catFR1	3	R1444D
456.997	2.217	458605	ENCODING_START	n/a	n/a	n/a	n/a	-999	4	[0, 0, 0]	n/a	catFR1	3	R1444D
459.214	1.616	460827	WORD	n/a	wordpools/wordpool_categorized_EN.txt	PIG	FarmAnimals	1	4	[0, 0, 0]	n/a	catFR1	3	R1444D
460.83	1.001	462434	WORD_OFF	n/a	n/a	PIG	FarmAnimals	1	4	[0, 0, 0]	n/a	catFR1	3	R1444D
461.831	1.617	463439	WORD	n/a	wordpools/wordpool_categorized_EN.txt	LAMB	FarmAnimals	2	4	[0, 0, 0]	n/a	catFR1	3	R1444D
463.448	0.915	465059	WORD_OFF	n/a	n/a	LAMB	FarmAnimals	2	4	[0, 0, 0]	n/a	catFR1	3	R1444D
464.363	1.601	465975	WORD	n/a	wordpools/wordpool_categorized_EN.txt	BED	Furniture	3	4	[0, 0, 0]	n/a	catFR1	3	R1444D
465.964	0.9	467570	WORD_OFF	n/a	n/a	BED	Furniture	3	4	[0, 0, 0]	n/a	catFR1	3	R1444D
466.864	1.601	468474	WORD	n/a	wordpools/wordpool_categorized_EN.txt	COUCH	Furniture	4	4	[0, 0, 0]	n/a	catFR1	3	R1444D
468.465	0.883	470069	WORD_OFF	n/a	n/a	COUCH	Furniture	4	4	[0, 0, 0]	n/a	catFR1	3	R1444D
469.348	1.616	470961	WORD	n/a	wordpools/wordpool_categorized_EN.txt	STAPLER	OfficeSupplies	5	4	[0, 0, 0]	n/a	catFR1	3	R1444D
470.964	0.966	472568	WORD_OFF	n/a	n/a	STAPLER	OfficeSupplies	5	4	[0, 0, 0]	n/a	catFR1	3	R1444D
471.93	1.601	473535	WORD	n/a	wordpools/wordpool_categorized_EN.txt	FOLDER	OfficeSupplies	6	4	[0, 0, 0]	n/a	catFR1	3	R1444D
473.531	0.967	475142	WORD_OFF	n/a	n/a	FOLDER	OfficeSupplies	6	4	[0, 0, 0]	n/a	catFR1	3	R1444D
474.498	1.616	476109	WORD	n/a	wordpools/wordpool_categorized_EN.txt	SOFA	Furniture	7	4	[0, 0, 0]	n/a	catFR1	3	R1444D
476.114	0.967	477716	WORD_OFF	n/a	n/a	SOFA	Furniture	7	4	[0, 0, 0]	n/a	catFR1	3	R1444D
477.081	1.616	478683	WORD	n/a	wordpools/wordpool_categorized_EN.txt	DRESSER	Furniture	8	4	[0, 0, 0]	n/a	catFR1	3	R1444D
478.697	0.8	480303	WORD_OFF	n/a	n/a	DRESSER	Furniture	8	4	[0, 0, 0]	n/a	catFR1	3	R1444D
479.497	1.6	481107	WORD	n/a	wordpools/wordpool_categorized_EN.txt	HORSE	FarmAnimals	9	4	[0, 0, 0]	n/a	catFR1	3	R1444D
481.097	1.001	482701	WORD_OFF	n/a	n/a	HORSE	FarmAnimals	9	4	[0, 0, 0]	n/a	catFR1	3	R1444D
482.098	1.615	483706	WORD	n/a	wordpools/wordpool_categorized_EN.txt	ROOSTER	FarmAnimals	10	4	[0, 0, 0]	n/a	catFR1	3	R1444D
483.713	1.001	485326	WORD_OFF	n/a	n/a	ROOSTER	FarmAnimals	10	4	[0, 0, 0]	n/a	catFR1	3	R1444D
484.714	1.617	486318	WORD	n/a	wordpools/wordpool_categorized_EN.txt	BINDER	OfficeSupplies	11	4	[0, 0, 0]	n/a	catFR1	3	R1444D
486.331	0.899	487938	WORD_OFF	n/a	n/a	BINDER	OfficeSupplies	11	4	[0, 0, 0]	n/a	catFR1	3	R1444D
487.23	1.601	488842	WORD	n/a	wordpools/wordpool_categorized_EN.txt	RULER	OfficeSupplies	12	4	[0, 0, 0]	n/a	catFR1	3	R1444D
488.831	0.0	490435	PROB	0.0	n/a	n/a	n/a	-999	4	[2, 4, 7]	13	catFR1	3	R1444D
488.831	0.001	490436	WORD_OFF	n/a	n/a	RULER	OfficeSupplies	12	4	[0, 0, 0]	n/a	catFR1	3	R1444D
488.832	0.0	490436	ENCODING_END	n/a	n/a	n/a	n/a	-999	4	[0, 0, 0]	n/a	catFR1	3	R1444D
488.832	0.0	490436	DISTRACT_START	n/a	n/a	n/a	n/a	-999	4	[0, 0, 0]	n/a	catFR1	3	R1444D
488.832	13.215	490436	START	n/a	n/a	n/a	n/a	-999	4	[-999, -999, -999]	n/a	catFR1	3	R1444D
502.047	7.517	503650	PROB	7.517	n/a	n/a	n/a	-999	4	[5, 8, 4]	17	catFR1	3	R1444D
509.564	0.0	511167	STOP	n/a	n/a	n/a	n/a	-999	4	[-999, -999, -999]	n/a	catFR1	3	R1444D
509.564	1.166	511168	DISTRACT_END	n/a	n/a	n/a	n/a	-999	4	[0, 0, 0]	n/a	catFR1	3	R1444D
510.73	4.068	512336	REC_START	n/a	n/a	n/a	n/a	-999	4	[0, 0, 0]	n/a	catFR1	3	R1444D
514.798	0.323	516401	REC_WORD	0.323	n/a	PIG	FarmAnimals	1	4	[0, 0, 0]	n/a	catFR1	3	R1444D
515.121	1.424	516724	REC_WORD	1.424	n/a	FOREST	n/a	-999	4	[0, 0, 0]	n/a	catFR1	3	R1444D
516.545	1.0	518148	REC_WORD_VV	1.0	n/a	<>	n/a	-999	4	[0, 0, 0]	n/a	catFR1	3	R1444D
517.545	1.0	519148	REC_WORD_VV	1.0	n/a	<>	n/a	-999	4	[0, 0, 0]	n/a	catFR1	3	R1444D
518.545	1.091	520148	REC_WORD_VV	1.091	n/a	<>	n/a	-999	4	[0, 0, 0]	n/a	catFR1	3	R1444D
519.636	3.517	521238	REC_WORD	3.517	n/a	LAMB	FarmAnimals	2	4	[0, 0, 0]	n/a	catFR1	3	R1444D
523.153	2.056	524755	REC_WORD_VV	2.056	n/a	<>	n/a	-999	4	[0, 0, 0]	n/a	catFR1	3	R1444D
525.209	1.52	526811	REC_WORD	1.52	n/a	LOBSTER	n/a	-999	4	[0, 0, 0]	n/a	catFR1	3	R1444D
526.729	1.416	528331	REC_WORD	1.416	n/a	COUCH	Furniture	4	4	[0, 0, 0]	n/a	catFR1	3	R1444D
528.145	1.851	529747	REC_WORD_VV	1.851	n/a	<>	n/a	-999	4	[0, 0, 0]	n/a	catFR1	3	R1444D
529.996	2.47	531598	REC_WORD	2.47	n/a	POTATO	n/a	-999	4	[0, 0, 0]	n/a	catFR1	3	R1444D
532.466	5.201	534068	REC_WORD_VV	5.201	n/a	<>	n/a	-999	4	[0, 0, 0]	n/a	catFR1	3	R1444D
537.667	4.302	539269	REC_WORD_VV	4.302	n/a	<>	n/a	-999	4	[0, 0, 0]	n/a	catFR1	3	R1444D
541.969	3.128	543577	REC_END	n/a	n/a	n/a	n/a	-999	4	[0, 0, 0]	n/a	catFR1	3	R1444D
545.097	10.35	546704	COUNTDOWN_START	n/a	n/a	n/a	n/a	-999	4	[0, 0, 0]	n/a	catFR1	3	R1444D
555.447	0.001	557051	COUNTDOWN_END	n/a	n/a	n/a	n/a	-999	4	[0, 0, 0]	n/a	catFR1	3	R1444D
555.448	2.048	557051	ENCODING_START	n/a	n/a	n/a	n/a	-999	5	[0, 0, 0]	n/a	catFR1	3	R1444D
557.496	1.601	559098	WORD	n/a	wordpools/wordpool_categorized_EN.txt	FOOTBALL	Toys	1	5	[0, 0, 0]	n/a	catFR1	3	R1444D
559.097	0.784	560705	WORD_OFF	n/a	n/a	FOOTBALL	Toys	1	5	[0, 0, 0]	n/a	catFR1	3	R1444D
559.881	1.616	561484	WORD	n/a	wordpools/wordpool_categorized_EN.txt	BASKETBALL	Toys	2	5	[0, 0, 0]	n/a	catFR1	3	R1444D
561.497	0.8	563103	WORD_OFF	n/a	n/a	BASKETBALL	Toys	2	5	[0, 0, 0]	n/a	catFR1	3	R1444D
562.297	1.601	563895	WORD	n/a	wordpools/wordpool_categorized_EN.txt	WASHER	Appliances	3	5	[0, 0, 0]	n/a	catFR1	3	R1444D
563.898	0.865	565502	WORD_OFF	n/a	n/a	WASHER	Appliances	3	5	[0, 0, 0]	n/a	catFR1	3	R1444D
564.763	1.6	566368	WORD	n/a	wordpools/wordpool_categorized_EN.txt	FREEZER	Appliances	4	5	[0, 0, 0]	n/a	catFR1	3	R1444D
566.363	0.834	567963	WORD_OFF	n/a	n/a	FREEZER	Appliances	4	5	[0, 0, 0]	n/a	catFR1	3	R1444D
567.197	1.615	568804	WORD	n/a	wordpools/wordpool_categorized_EN.txt	DRIZZLE	Weather	5	5	[0, 0, 0]	n/a	catFR1	3	R1444D
568.812	0.836	570412	WORD_OFF	n/a	n/a	DRIZZLE	Weather	5	5	[0, 0, 0]	n/a	catFR1	3	R1444D
569.648	1.6	571253	WORD	n/a	wordpools/wordpool_categorized_EN.txt	SNOW	Weather	6	5	[0, 0, 0]	n/a	catFR1	3	R1444D
571.248	0.882	572848	WORD_OFF	n/a	n/a	SNOW	Weather	6	5	[0, 0, 0]	n/a	catFR1	3	R1444D
572.13	1.601	573727	WORD	n/a	wordpools/wordpool_categorized_EN.txt	BARBIE	Toys	7	5	[0, 0, 0]	n/a	catFR1	3	R1444D
573.731	0.783	575334	WORD_OFF	n/a	n/a	BARBIE	Toys	7	5	[0, 0, 0]	n/a	catFR1	3	R1444D
574.514	1.617	576112	WORD	n/a	wordpools/wordpool_categorized_EN.txt	DOLL	Toys	8	5	[0, 0, 0]	n/a	catFR1	3	R1444D
576.131	0.867	577732	WORD_OFF	n/a	n/a	DOLL	Toys	8	5	[0, 0, 0]	n/a	catFR1	3	R1444D
576.998	1.599	578599	WORD	n/a	wordpools/wordpool_categorized_EN.txt	IRON	Appliances	9	5	[0, 0, 0]	n/a	catFR1	3	R1444D
578.597	0.984	580193	WORD_OFF	n/a	n/a	IRON	Appliances	9	5	[0, 0, 0]	n/a	catFR1	3	R1444D
579.581	1.617	581185	WORD	n/a	wordpools/wordpool_categorized_EN.txt	TOASTER	Appliances	10	5	[0, 0, 0]	n/a	catFR1	3	R1444D
581.198	0.966	582805	WORD_OFF	n/a	n/a	TOASTER	Appliances	10	5	[0, 0, 0]	n/a	catFR1	3	R1444D
582.164	1.616	583772	WORD	n/a	wordpools/wordpool_categorized_EN.txt	THUNDERSTORM	Weather	11	5	[0, 0, 0]	n/a	catFR1	3	R1444D
583.78	0.968	585380	WORD_OFF	n/a	n/a	THUNDERSTORM	Weather	11	5	[0, 0, 0]	n/a	catFR1	3	R1444D
584.748	1.617	586346	WORD	n/a	wordpools/wordpool_categorized_EN.txt	CLOUD	Weather	12	5	[0, 0, 0]	n/a	catFR1	3	R1444D
586.365	0.001	587964	PROB	0.001	n/a	n/a	n/a	-999	5	[7, 8, 7]	22	catFR1	3	R1444D
586.366	0.0	587965	START	n/a	n/a	n/a	n/a	-999	5	[-999, -999, -999]	n/a	catFR1	3	R1444D
586.364	0.002	587966	WORD_OFF	n/a	n/a	CLOUD	Weather	12	5	[0, 0, 0]	n/a	catFR1	3	R1444D
586.366	0.0	587966	ENCODING_END	n/a	n/a	n/a	n/a	-999	5	[0, 0, 0]	n/a	catFR1	3	R1444D
586.366	46.448	587966	DISTRACT_START	n/a	n/a	n/a	n/a	-999	5	[0, 0, 0]	n/a	catFR1	3	R1444D
632.814	0.0	634410	STOP	n/a	n/a	n/a	n/a	-999	5	[-999, -999, -999]	n/a	catFR1	3	R1444D
632.814	1.217	634414	DISTRACT_END	n/a	n/a	n/a	n/a	-999	5	[0, 0, 0]	n/a	catFR1	3	R1444D
634.031	0.4	635632	REC_START	n/a	n/a	n/a	n/a	-999	5	[0, 0, 0]	n/a	catFR1	3	R1444D
634.431	3.828	636027	REC_WORD	3.828	n/a	THUNDERSTORM	Weather	11	5	[0, 0, 0]	n/a	catFR1	3	R1444D
638.259	1.0	639855	REC_WORD	1.0	n/a	THUNDERSTORM	Weather	11	5	[0, 0, 0]	n/a	catFR1	3	R1444D
639.259	1.0	640855	REC_WORD_VV	1.0	n/a	<>	n/a	-999	5	[0, 0, 0]	n/a	catFR1	3	R1444D
640.259	0.687	641855	REC_WORD_VV	0.687	n/a	<>	n/a	-999	5	[0, 0, 0]	n/a	catFR1	3	R1444D
640.946	0.762	642542	REC_WORD	0.762	n/a	COUCH	Furniture	-999	5	[0, 0, 0]	n/a	catFR1	3	R1444D
641.708	1.845	643304	REC_WORD	1.845	n/a	RADAR	n/a	-999	5	[0, 0, 0]	n/a	catFR1	3	R1444D
643.553	3.013	645149	REC_WORD_VV	3.013	n/a	<>	n/a	-999	5	[0, 0, 0]	n/a	catFR1	3	R1444D
646.566	1.741	648162	REC_WORD	1.741	n/a	CRICKET	Insects	-999	5	[0, 0, 0]	n/a	catFR1	3	R1444D
648.307	4.675	649903	REC_WORD_VV	4.675	n/a	<>	n/a	-999	5	[0, 0, 0]	n/a	catFR1	3	R1444D
652.982	2.613	654577	REC_WORD_VV	2.613	n/a	<>	n/a	-999	5	[0, 0, 0]	n/a	catFR1	3	R1444D
655.595	1.752	657190	REC_WORD	1.752	n/a	MOBILE	n/a	-999	5	[0, 0, 0]	n/a	catFR1	3	R1444D
657.347	7.932	658942	REC_WORD_VV	7.932	n/a	<>	n/a	-999	5	[0, 0, 0]	n/a	catFR1	3	R1444D
665.279	3.469	666874	REC_END	n/a	n/a	n/a	n/a	-999	5	[0, 0, 0]	n/a	catFR1	3	R1444D
668.748	10.35	670352	COUNTDOWN_START	n/a	n/a	n/a	n/a	-999	5	[0, 0, 0]	n/a	catFR1	3	R1444D
679.098	0.0	680699	COUNTDOWN_END	n/a	n/a	n/a	n/a	-999	5	[0, 0, 0]	n/a	catFR1	3	R1444D
679.098	1.95	680699	ENCODING_START	n/a	n/a	n/a	n/a	-999	6	[0, 0, 0]	n/a	catFR1	3	R1444D
681.048	1.616	682646	WORD	n/a	wordpools/wordpool_categorized_EN.txt	DAFFODIL	Flowers	1	6	[0, 0, 0]	n/a	catFR1	3	R1444D
682.664	0.767	684265	WORD_OFF	n/a	n/a	DAFFODIL	Flowers	1	6	[0, 0, 0]	n/a	catFR1	3	R1444D
683.431	1.617	685031	WORD	n/a	wordpools/wordpool_categorized_EN.txt	TULIP	Flowers	2	6	[0, 0, 0]	n/a	catFR1	3	R1444D
685.048	0.766	686639	WORD_OFF	n/a	n/a	TULIP	Flowers	2	6	[0, 0, 0]	n/a	catFR1	3	R1444D
685.814	1.6	687405	WORD	n/a	wordpools/wordpool_categorized_EN.txt	SHEEP	FarmAnimals	3	6	[0, 0, 0]	n/a	catFR1	3	R1444D
687.414	0.8	689012	WORD_OFF	n/a	n/a	SHEEP	FarmAnimals	3	6	[0, 0, 0]	n/a	catFR1	3	R1444D
688.214	1.617	689816	WORD	n/a	wordpools/wordpool_categorized_EN.txt	CHICKEN	FarmAnimals	4	6	[0, 0, 0]	n/a	catFR1	3	R1444D
689.831	0.9	691423	WORD_OFF	n/a	n/a	CHICKEN	FarmAnimals	4	6	[0, 0, 0]	n/a	catFR1	3	R1444D
690.731	1.616	692327	WORD	n/a	wordpools/wordpool_categorized_EN.txt	PEACH	Fruit	5	6	[0, 0, 0]	n/a	catFR1	3	R1444D
692.347	0.984	693947	WORD_OFF	n/a	n/a	PEACH	Fruit	5	6	[0, 0, 0]	n/a	catFR1	3	R1444D
693.331	1.6	694926	WORD	n/a	wordpools/wordpool_categorized_EN.txt	CHERRY	Fruit	6	6	[0, 0, 0]	n/a	catFR1	3	R1444D
694.931	0.883	696521	WORD_OFF	n/a	n/a	CHERRY	Fruit	6	6	[0, 0, 0]	n/a	catFR1	3	R1444D
695.814	1.617	697413	WORD	n/a	wordpools/wordpool_categorized_EN.txt	ORCHID	Flowers	7	6	[0, 0, 0]	n/a	catFR1	3	R1444D
697.431	0.817	699032	WORD_OFF	n/a	n/a	ORCHID	Flowers	7	6	[0, 0, 0]	n/a	catFR1	3	R1444D
698.248	1.616	699849	WORD	n/a	wordpools/wordpool_categorized_EN.txt	MARIGOLD	Flowers	8	6	[0, 0, 0]	n/a	catFR1	3	R1444D
699.864	0.933	701456	WORD_OFF	n/a	n/a	MARIGOLD	Flowers	8	6	[0, 0, 0]	n/a	catFR1	3	R1444D
700.797	1.601	702398	WORD	n/a	wordpools/wordpool_categorized_EN.txt	BULL	FarmAnimals	9	6	[0, 0, 0]	n/a	catFR1	3	R1444D
702.398	0.982	703992	WORD_OFF	n/a	n/a	BULL	FarmAnimals	9	6	[0, 0, 0]	n/a	catFR1	3	R1444D
703.38	1.601	704972	WORD	n/a	wordpools/wordpool_categorized_EN.txt	COW	FarmAnimals	10	6	[0, 0, 0]	n/a	catFR1	3	R1444D
704.981	0.766	706579	WORD_OFF	n/a	n/a	COW	FarmAnimals	10	6	[0, 0, 0]	n/a	catFR1	3	R1444D
705.747	1.617	707345	WORD	n/a	wordpools/wordpool_categorized_EN.txt	PEAR	Fruit	11	6	[0, 0, 0]	n/a	catFR1	3	R1444D
707.364	0.917	708965	WORD_OFF	n/a	n/a	PEAR	Fruit	11	6	[0, 0, 0]	n/a	catFR1	3	R1444D
708.281	1.617	709882	WORD	n/a	wordpools/wordpool_categorized_EN.txt	PLUM	Fruit	12	6	[0, 0, 0]	n/a	catFR1	3	R1444D
709.898	0.001	711489	WORD_OFF	n/a	n/a	PLUM	Fruit	12	6	[0, 0, 0]	n/a	catFR1	3	R1444D
709.899	0.002	711491	PROB	0.002	n/a	n/a	n/a	-999	6	[3, 1, 4]	8	catFR1	3	R1444D
709.901	0.0	711493	START	n/a	n/a	n/a	n/a	-999	6	[-999, -999, -999]	n/a	catFR1	3	R1444D
709.901	0.0	711502	ENCODING_END	n/a	n/a	n/a	n/a	-999	6	[0, 0, 0]	n/a	catFR1	3	R1444D
709.901	9.613	711502	DISTRACT_START	n/a	n/a	n/a	n/a	-999	6	[0, 0, 0]	n/a	catFR1	3	R1444D
719.514	4.084	721106	PROB	4.084	n/a	n/a	n/a	-999	6	[6, 1, 3]	10	catFR1	3	R1444D
723.598	15.95	725190	PROB	15.95	n/a	n/a	n/a	-999	6	[6, 4, 4]	14	catFR1	3	R1444D
739.548	0.0	741136	DISTRACT_END	n/a	n/a	n/a	n/a	-999	6	[0, 0, 0]	n/a	catFR1	3	R1444D
739.548	1.033	741139	STOP	n/a	n/a	n/a	n/a	-999	6	[-999, -999, -999]	n/a	catFR1	3	R1444D
740.581	0.419	742178	REC_START	n/a	n/a	n/a	n/a	-999	6	[0, 0, 0]	n/a	catFR1	3	R1444D
741.0	5.934	742591	REC_WORD	5.934	n/a	ORCHID	Flowers	7	6	[0, 0, 0]	n/a	catFR1	3	R1444D
746.934	2.779	748524	REC_WORD	2.779	n/a	ORCHID	Flowers	7	6	[0, 0, 0]	n/a	catFR1	3	R1444D
749.713	11.531	751303	REC_WORD_VV	11.531	n/a	<>	n/a	-999	6	[0, 0, 0]	n/a	catFR1	3	R1444D
761.244	1.861	762834	REC_WORD	1.861	n/a	ORCHID	Flowers	7	6	[0, 0, 0]	n/a	catFR1	3	R1444D
763.105	1.984	764695	REC_WORD	1.984	n/a	ORCHID	Flowers	7	6	[0, 0, 0]	n/a	catFR1	3	R1444D
765.089	1.541	766678	REC_WORD	1.541	n/a	THUNDERSTORM	Weather	-999	6	[0, 0, 0]	n/a	catFR1	3	R1444D
766.63	5.191	768219	REC_WORD_VV	5.191	n/a	<>	n/a	-999	6	[0, 0, 0]	n/a	catFR1	3	R1444D
771.821	22.977	773407	REC_END	n/a	n/a	n/a	n/a	-999	6	[0, 0, 0]	n/a	catFR1	3	R1444D
794.798	10.349	796386	COUNTDOWN_START	n/a	n/a	n/a	n/a	-999	6	[0, 0, 0]	n/a	catFR1	3	R1444D
805.147	0.0	806733	COUNTDOWN_END	n/a	n/a	n/a	n/a	-999	6	[0, 0, 0]	n/a	catFR1	3	R1444D
805.147	2.034	806733	ENCODING_START	n/a	n/a	n/a	n/a	-999	7	[0, 0, 0]	n/a	catFR1	3	R1444D
807.181	1.616	808768	WORD	n/a	wordpools/wordpool_categorized_EN.txt	ORGAN	Instruments	1	7	[0, 0, 0]	n/a	catFR1	3	R1444D
808.797	0.983	810388	WORD_OFF	n/a	n/a	ORGAN	Instruments	1	7	[0, 0, 0]	n/a	catFR1	3	R1444D
809.78	1.601	811367	WORD	n/a	wordpools/wordpool_categorized_EN.txt	BANJO	Instruments	2	7	[0, 0, 0]	n/a	catFR1	3	R1444D
811.381	0.983	812974	WORD_OFF	n/a	n/a	BANJO	Instruments	2	7	[0, 0, 0]	n/a	catFR1	3	R1444D
812.364	1.6	813954	WORD	n/a	wordpools/wordpool_categorized_EN.txt	CREEK	Landscapes	3	7	[0, 0, 0]	n/a	catFR1	3	R1444D
813.964	0.933	815548	WORD_OFF	n/a	n/a	CREEK	Landscapes	3	7	[0, 0, 0]	n/a	catFR1	3	R1444D
814.897	1.601	816490	WORD	n/a	wordpools/wordpool_categorized_EN.txt	MOUNTAIN	Landscapes	4	7	[0, 0, 0]	n/a	catFR1	3	R1444D
816.498	0.916	818085	WORD_OFF	n/a	n/a	MOUNTAIN	Landscapes	4	7	[0, 0, 0]	n/a	catFR1	3	R1444D
817.414	1.617	819002	WORD	n/a	wordpools/wordpool_categorized_EN.txt	CYPRESS	Trees	5	7	[0, 0, 0]	n/a	catFR1	3	R1444D
819.031	0.816	820621	WORD_OFF	n/a	n/a	CYPRESS	Trees	5	7	[0, 0, 0]	n/a	catFR1	3	R1444D
819.847	1.617	821438	WORD	n/a	wordpools/wordpool_categorized_EN.txt	MAPLE	Trees	6	7	[0, 0, 0]	n/a	catFR1	3	R1444D
821.464	0.784	823057	WORD_OFF	n/a	n/a	MAPLE	Trees	6	7	[0, 0, 0]	n/a	catFR1	3	R1444D
822.248	1.616	823836	WORD	n/a	wordpools/wordpool_categorized_EN.txt	VALLEY	Landscapes	7	7	[0, 0, 0]	n/a	catFR1	3	R1444D
823.864	0.933	825456	WORD_OFF	n/a	n/a	VALLEY	Landscapes	7	7	[0, 0, 0]	n/a	catFR1	3	R1444D
824.797	1.601	826385	WORD	n/a	wordpools/wordpool_categorized_EN.txt	WOODS	Landscapes	8	7	[0, 0, 0]	n/a	catFR1	3	R1444D
826.398	0.782	827992	WORD_OFF	n/a	n/a	WOODS	Landscapes	8	7	[0, 0, 0]	n/a	catFR1	3	R1444D
827.18	1.6	828771	WORD	n/a	wordpools/wordpool_categorized_EN.txt	HICKORY	Trees	9	7	[0, 0, 0]	n/a	catFR1	3	R1444D
828.78	0.951	830366	WORD_OFF	n/a	n/a	HICKORY	Trees	9	7	[0, 0, 0]	n/a	catFR1	3	R1444D
829.731	1.614	831320	WORD	n/a	wordpools/wordpool_categorized_EN.txt	WILLOW	Trees	10	7	[0, 0, 0]	n/a	catFR1	3	R1444D
831.345	0.886	832940	WORD_OFF	n/a	n/a	WILLOW	Trees	10	7	[0, 0, 0]	n/a	catFR1	3	R1444D
832.231	1.6	833819	WORD	n/a	wordpools/wordpool_categorized_EN.txt	PIANO	Instruments	11	7	[0, 0, 0]	n/a	catFR1	3	R1444D
833.831	0.933	835414	WORD_OFF	n/a	n/a	PIANO	Instruments	11	7	[0, 0, 0]	n/a	catFR1	3	R1444D
834.764	1.617	836355	WORD	n/a	wordpools/wordpool_categorized_EN.txt	GUITAR	Instruments	12	7	[0, 0, 0]	n/a	catFR1	3	R1444D
836.381	0.004	837967	PROB	0.004	n/a	n/a	n/a	-999	7	[8, 8, 5]	21	catFR1	3	R1444D
836.385	0.0	837971	START	n/a	n/a	n/a	n/a	-999	7	[-999, -999, -999]	n/a	catFR1	3	R1444D
836.381	0.004	837975	WORD_OFF	n/a	n/a	GUITAR	Instruments	12	7	[0, 0, 0]	n/a	catFR1	3	R1444D
836.385	0.0	837975	ENCODING_END	n/a	n/a	n/a	n/a	-999	7	[0, 0, 0]	n/a	catFR1	3	R1444D
836.385	9.263	837975	DISTRACT_START	n/a	n/a	n/a	n/a	-999	7	[0, 0, 0]	n/a	catFR1	3	R1444D
845.648	8.916	847233	PROB	8.916	n/a	n/a	n/a	-999	7	[4, 1, 8]	13	catFR1	3	R1444D
854.564	3.25	856149	PROB	3.25	n/a	n/a	n/a	-999	7	[6, 4, 1]	11	catFR1	3	R1444D
857.814	0.0	859397	DISTRACT_END	n/a	n/a	n/a	n/a	-999	7	[0, 0, 0]	n/a	catFR1	3	R1444D
857.814	1.217	859398	STOP	n/a	n/a	n/a	n/a	-999	7	[-999, -999, -999]	n/a	catFR1	3	R1444D
859.031	0.876	860615	REC_START	n/a	n/a	n/a	n/a	-999	7	[0, 0, 0]	n/a	catFR1	3	R1444D
859.907	1.0	861491	REC_WORD_VV	1.0	n/a	<>	n/a	-999	7	[0, 0, 0]	n/a	catFR1	3	R1444D
860.907	1.604	862491	REC_WORD_VV	1.604	n/a	<>	n/a	-999	7	[0, 0, 0]	n/a	catFR1	3	R1444D
862.511	1.0	864095	REC_WORD	1.0	n/a	CYPRESS	Trees	5	7	[0, 0, 0]	n/a	catFR1	3	R1444D
863.511	1.521	865095	REC_WORD_VV	1.521	n/a	<>	n/a	-999	7	[0, 0, 0]	n/a	catFR1	3	R1444D
865.032	3.172	866616	REC_WORD_VV	3.172	n/a	<>	n/a	-999	7	[0, 0, 0]	n/a	catFR1	3	R1444D
868.204	1.366	869788	REC_WORD_VV	1.366	n/a	<>	n/a	-999	7	[0, 0, 0]	n/a	catFR1	3	R1444D
869.57	1.633	871154	REC_WORD	1.633	n/a	PEACH	Fruit	-999	7	[0, 0, 0]	n/a	catFR1	3	R1444D
871.203	6.078	872787	REC_WORD	6.078	n/a	PEACH	Fruit	-999	7	[0, 0, 0]	n/a	catFR1	3	R1444D
877.281	6.108	878864	REC_WORD	6.108	n/a	PEACH	Fruit	-999	7	[0, 0, 0]	n/a	catFR1	3	R1444D
883.389	3.519	884972	REC_WORD	3.519	n/a	ORCHID	Flowers	-999	7	[0, 0, 0]	n/a	catFR1	3	R1444D
886.908	3.372	888491	REC_WORD	3.372	n/a	ORCHID	Flowers	-999	7	[0, 0, 0]	n/a	catFR1	3	R1444D
890.28	25.134	891870	REC_END	n/a	n/a	n/a	n/a	-999	7	[0, 0, 0]	n/a	catFR1	3	R1444D
915.414	10.35	916996	COUNTDOWN_START	n/a	n/a	n/a	n/a	-999	7	[0, 0, 0]	n/a	catFR1	3	R1444D
925.764	0.0	927343	COUNTDOWN_END	n/a	n/a	n/a	n/a	-999	7	[0, 0, 0]	n/a	catFR1	3	R1444D
925.764	2.2	927356	ENCODING_START	n/a	n/a	n/a	n/a	-999	8	[0, 0, 0]	n/a	catFR1	3	R1444D
927.964	1.6	929553	WORD	n/a	wordpools/wordpool_categorized_EN.txt	HALLWAY	Building	1	8	[0, 0, 0]	n/a	catFR1	3	R1444D
929.564	0.833	931148	WORD_OFF	n/a	n/a	HALLWAY	Building	1	8	[0, 0, 0]	n/a	catFR1	3	R1444D
930.397	1.617	931976	WORD	n/a	wordpools/wordpool_categorized_EN.txt	FLOOR	Building	2	8	[0, 0, 0]	n/a	catFR1	3	R1444D
932.014	0.817	933596	WORD_OFF	n/a	n/a	FLOOR	Building	2	8	[0, 0, 0]	n/a	catFR1	3	R1444D
932.831	1.6	934413	WORD	n/a	wordpools/wordpool_categorized_EN.txt	CELLO	Instruments	3	8	[0, 0, 0]	n/a	catFR1	3	R1444D
934.431	0.899	936020	WORD_OFF	n/a	n/a	CELLO	Instruments	3	8	[0, 0, 0]	n/a	catFR1	3	R1444D
935.33	1.6	936911	WORD	n/a	wordpools/wordpool_categorized_EN.txt	VIOLIN	Instruments	4	8	[0, 0, 0]	n/a	catFR1	3	R1444D
936.93	0.951	938519	WORD_OFF	n/a	n/a	VIOLIN	Instruments	4	8	[0, 0, 0]	n/a	catFR1	3	R1444D
937.881	1.6	939460	WORD	n/a	wordpools/wordpool_categorized_EN.txt	FOREST	Landscapes	5	8	[0, 0, 0]	n/a	catFR1	3	R1444D
939.481	0.899	941068	WORD_OFF	n/a	n/a	FOREST	Landscapes	5	8	[0, 0, 0]	n/a	catFR1	3	R1444D
940.38	1.601	941959	WORD	n/a	wordpools/wordpool_categorized_EN.txt	RIVER	Landscapes	6	8	[0, 0, 0]	n/a	catFR1	3	R1444D
941.981	0.915	943567	WORD_OFF	n/a	n/a	RIVER	Landscapes	6	8	[0, 0, 0]	n/a	catFR1	3	R1444D
942.896	1.602	944483	WORD	n/a	wordpools/wordpool_categorized_EN.txt	TROMBONE	Instruments	7	8	[0, 0, 0]	n/a	catFR1	3	R1444D
944.498	0.983	946078	WORD_OFF	n/a	n/a	TROMBONE	Instruments	7	8	[0, 0, 0]	n/a	catFR1	3	R1444D
945.481	1.617	947057	WORD	n/a	wordpools/wordpool_categorized_EN.txt	TRUMPET	Instruments	8	8	[0, 0, 0]	n/a	catFR1	3	R1444D
947.098	0.782	948677	WORD_OFF	n/a	n/a	TRUMPET	Instruments	8	8	[0, 0, 0]	n/a	catFR1	3	R1444D
947.88	1.601	949456	WORD	n/a	wordpools/wordpool_categorized_EN.txt	ROOM	Building	9	8	[0, 0, 0]	n/a	catFR1	3	R1444D
949.481	0.833	951063	WORD_OFF	n/a	n/a	ROOM	Building	9	8	[0, 0, 0]	n/a	catFR1	3	R1444D
950.314	1.616	951892	WORD	n/a	wordpools/wordpool_categorized_EN.txt	ROOF	Building	10	8	[0, 0, 0]	n/a	catFR1	3	R1444D
951.93	0.816	953512	WORD_OFF	n/a	n/a	ROOF	Building	10	8	[0, 0, 0]	n/a	catFR1	3	R1444D
952.746	1.601	954328	WORD	n/a	wordpools/wordpool_categorized_EN.txt	BEACH	Landscapes	11	8	[0, 0, 0]	n/a	catFR1	3	R1444D
954.347	0.767	955923	WORD_OFF	n/a	n/a	BEACH	Landscapes	11	8	[0, 0, 0]	n/a	catFR1	3	R1444D
955.114	1.616	956701	WORD	n/a	wordpools/wordpool_categorized_EN.txt	HILLS	Landscapes	12	8	[0, 0, 0]	n/a	catFR1	3	R1444D
956.73	0.001	958308	WORD_OFF	n/a	n/a	HILLS	Landscapes	12	8	[0, 0, 0]	n/a	catFR1	3	R1444D
956.731	0.004	958310	PROB	0.004	n/a	n/a	n/a	-999	8	[4, 7, 5]	16	catFR1	3	R1444D
956.735	0.0	958314	START	n/a	n/a	n/a	n/a	-999	8	[-999, -999, -999]	n/a	catFR1	3	R1444D
956.735	0.0	958321	ENCODING_END	n/a	n/a	n/a	n/a	-999	8	[0, 0, 0]	n/a	catFR1	3	R1444D
956.735	11.163	958321	DISTRACT_START	n/a	n/a	n/a	n/a	-999	8	[0, 0, 0]	n/a	catFR1	3	R1444D
967.898	2.932	969477	PROB	2.932	n/a	n/a	n/a	-999	8	[2, 1, 2]	5	catFR1	3	R1444D
970.83	8.133	972408	PROB	8.133	n/a	n/a	n/a	-999	8	[5, 8, 3]	16	catFR1	3	R1444D
978.963	0.0	980541	STOP	n/a	n/a	n/a	n/a	-999	8	[-999, -999, -999]	n/a	catFR1	3	R1444D
978.963	1.067	980547	DISTRACT_END	n/a	n/a	n/a	n/a	-999	8	[0, 0, 0]	n/a	catFR1	3	R1444D
980.03	1.891	981614	REC_START	n/a	n/a	n/a	n/a	-999	8	[0, 0, 0]	n/a	catFR1	3	R1444D
981.921	1.0	983499	REC_WORD_VV	1.0	n/a	<>	n/a	-999	8	[0, 0, 0]	n/a	catFR1	3	R1444D
982.921	1.0	984499	REC_WORD_VV	1.0	n/a	<>	n/a	-999	8	[0, 0, 0]	n/a	catFR1	3	R1444D
983.921	1.469	985499	REC_WORD_VV	1.469	n/a	<>	n/a	-999	8	[0, 0, 0]	n/a	catFR1	3	R1444D
985.39	2.382	986968	REC_WORD	2.382	n/a	HILLS	Landscapes	12	8	[0, 0, 0]	n/a	catFR1	3	R1444D
987.772	3.151	989350	REC_WORD	3.151	n/a	TRUMPET	Instruments	8	8	[0, 0, 0]	n/a	catFR1	3	R1444D
990.923	9.075	992500	REC_WORD_VV	9.075	n/a	<>	n/a	-999	8	[0, 0, 0]	n/a	catFR1	3	R1444D
999.998	1.0	1001575	REC_WORD_VV	1.0	n/a	<>	n/a	-999	8	[0, 0, 0]	n/a	catFR1	3	R1444D
1000.998	0.195	1002575	REC_WORD_VV	0.195	n/a	<>	n/a	-999	8	[0, 0, 0]	n/a	catFR1	3	R1444D
1001.193	2.235	1002770	REC_WORD	2.235	n/a	CYPRESS	Trees	-999	8	[0, 0, 0]	n/a	catFR1	3	R1444D
1003.428	1.453	1005005	REC_WORD	1.453	n/a	CYPRESS	Trees	-999	8	[0, 0, 0]	n/a	catFR1	3	R1444D
1004.881	3.077	1006458	REC_WORD	3.077	n/a	TOMBSTONE	n/a	-999	8	[0, 0, 0]	n/a	catFR1	3	R1444D
1007.958	3.303	1009535	REC_WORD_VV	3.303	n/a	<>	n/a	-999	8	[0, 0, 0]	n/a	catFR1	3	R1444D
1011.261	5.12	1012843	REC_END	n/a	n/a	n/a	n/a	-999	8	[0, 0, 0]	n/a	catFR1	3	R1444D
1016.381	10.349	1017966	COUNTDOWN_START	n/a	n/a	n/a	n/a	-999	8	[0, 0, 0]	n/a	catFR1	3	R1444D
1026.73	0.0	1028313	COUNTDOWN_END	n/a	n/a	n/a	n/a	-999	8	[0, 0, 0]	n/a	catFR1	3	R1444D
1026.73	2.334	1028313	ENCODING_START	n/a	n/a	n/a	n/a	-999	9	[0, 0, 0]	n/a	catFR1	3	R1444D
1029.064	1.6	1030636	WORD	n/a	wordpools/wordpool_categorized_EN.txt	SUEDE	Fabric	1	9	[0, 0, 0]	n/a	catFR1	3	R1444D
1030.664	0.95	1032244	WORD_OFF	n/a	n/a	SUEDE	Fabric	1	9	[0, 0, 0]	n/a	catFR1	3	R1444D
1031.614	1.617	1033198	WORD	n/a	wordpools/wordpool_categorized_EN.txt	LINEN	Fabric	2	9	[0, 0, 0]	n/a	catFR1	3	R1444D
1033.231	0.767	1034805	WORD_OFF	n/a	n/a	LINEN	Fabric	2	9	[0, 0, 0]	n/a	catFR1	3	R1444D
1033.998	1.6	1035571	WORD	n/a	wordpools/wordpool_categorized_EN.txt	STAIRS	Building	3	9	[0, 0, 0]	n/a	catFR1	3	R1444D
1035.598	0.982	1037179	WORD_OFF	n/a	n/a	STAIRS	Building	3	9	[0, 0, 0]	n/a	catFR1	3	R1444D
1036.58	1.601	1038158	WORD	n/a	wordpools/wordpool_categorized_EN.txt	ATTIC	Building	4	9	[0, 0, 0]	n/a	catFR1	3	R1444D
1038.181	0.867	1039765	WORD_OFF	n/a	n/a	ATTIC	Building	4	9	[0, 0, 0]	n/a	catFR1	3	R1444D
1039.048	1.615	1040619	WORD	n/a	wordpools/wordpool_categorized_EN.txt	FINCH	Birds	5	9	[0, 0, 0]	n/a	catFR1	3	R1444D
1040.663	0.9	1042239	WORD_OFF	n/a	n/a	FINCH	Birds	5	9	[0, 0, 0]	n/a	catFR1	3	R1444D
1041.563	1.618	1043143	WORD	n/a	wordpools/wordpool_categorized_EN.txt	CROW	Birds	6	9	[0, 0, 0]	n/a	catFR1	3	R1444D
1043.181	0.95	1044763	WORD_OFF	n/a	n/a	CROW	Birds	6	9	[0, 0, 0]	n/a	catFR1	3	R1444D
1044.131	1.6	1045705	WORD	n/a	wordpools/wordpool_categorized_EN.txt	CEILING	Building	7	9	[0, 0, 0]	n/a	catFR1	3	R1444D
1045.731	0.817	1047312	WORD_OFF	n/a	n/a	CEILING	Building	7	9	[0, 0, 0]	n/a	catFR1	3	R1444D
1046.548	1.616	1048128	WORD	n/a	wordpools/wordpool_categorized_EN.txt	FOUNDATION	Building	8	9	[0, 0, 0]	n/a	catFR1	3	R1444D
1048.164	0.934	1049736	WORD_OFF	n/a	n/a	FOUNDATION	Building	8	9	[0, 0, 0]	n/a	catFR1	3	R1444D
1049.098	1.616	1050677	WORD	n/a	wordpools/wordpool_categorized_EN.txt	PIGEON	Birds	9	9	[0, 0, 0]	n/a	catFR1	3	R1444D
1050.714	0.817	1052297	WORD_OFF	n/a	n/a	PIGEON	Birds	9	9	[0, 0, 0]	n/a	catFR1	3	R1444D
1051.531	1.6	1053113	WORD	n/a	wordpools/wordpool_categorized_EN.txt	SPARROW	Birds	10	9	[0, 0, 0]	n/a	catFR1	3	R1444D
1053.131	0.999	1054708	WORD_OFF	n/a	n/a	SPARROW	Birds	10	9	[0, 0, 0]	n/a	catFR1	3	R1444D
1054.13	1.6	1055700	WORD	n/a	wordpools/wordpool_categorized_EN.txt	COTTON	Fabric	11	9	[0, 0, 0]	n/a	catFR1	3	R1444D
1055.73	0.817	1057307	WORD_OFF	n/a	n/a	COTTON	Fabric	11	9	[0, 0, 0]	n/a	catFR1	3	R1444D
1056.547	1.6	1058124	WORD	n/a	wordpools/wordpool_categorized_EN.txt	NYLON	Fabric	12	9	[0, 0, 0]	n/a	catFR1	3	R1444D
1058.147	0.0	1059718	WORD_OFF	n/a	n/a	NYLON	Fabric	12	9	[0, 0, 0]	n/a	catFR1	3	R1444D
1058.147	0.001	1059721	PROB	0.001	n/a	n/a	n/a	-999	9	[4, 3, 2]	9	catFR1	3	R1444D
1058.148	0.0	1059722	START	n/a	n/a	n/a	n/a	-999	9	[-999, -999, -999]	n/a	catFR1	3	R1444D
1058.148	0.0	1059731	ENCODING_END	n/a	n/a	n/a	n/a	-999	9	[0, 0, 0]	n/a	catFR1	3	R1444D
1058.148	16.283	1059731	DISTRACT_START	n/a	n/a	n/a	n/a	-999	9	[0, 0, 0]	n/a	catFR1	3	R1444D
1074.431	9.933	1076004	PROB	9.933	n/a	n/a	n/a	-999	9	[1, 7, 1]	9	catFR1	3	R1444D
1084.364	0.0	1085936	STOP	n/a	n/a	n/a	n/a	-999	9	[-999, -999, -999]	n/a	catFR1	3	R1444D
1084.364	1.067	1085937	DISTRACT_END	n/a	n/a	n/a	n/a	-999	9	[0, 0, 0]	n/a	catFR1	3	R1444D
1085.431	0.0	1087003	REC_WORD_VV	0.0	n/a	<>	n/a	-999	9	[0, 0, 0]	n/a	catFR1	3	R1444D
1085.431	1.942	1087005	REC_START	n/a	n/a	n/a	n/a	-999	9	[0, 0, 0]	n/a	catFR1	3	R1444D
1087.373	1.254	1088945	REC_WORD	1.254	n/a	SPARROW	Birds	10	9	[0, 0, 0]	n/a	catFR1	3	R1444D
1088.627	2.006	1090199	REC_WORD	2.006	n/a	COTTON	Fabric	11	9	[0, 0, 0]	n/a	catFR1	3	R1444D
1090.633	5.051	1092205	REC_WORD_VV	5.051	n/a	<>	n/a	-999	9	[0, 0, 0]	n/a	catFR1	3	R1444D
1095.684	0.577	1097256	REC_WORD	0.577	n/a	SPARROW	Birds	10	9	[0, 0, 0]	n/a	catFR1	3	R1444D
1096.261	0.382	1097833	REC_WORD	0.382	n/a	COTTON	Fabric	11	9	[0, 0, 0]	n/a	catFR1	3	R1444D
1096.643	1.266	1098215	REC_WORD	1.266	n/a	ORCHID	Flowers	-999	9	[0, 0, 0]	n/a	catFR1	3	R1444D
1097.909	6.307	1099481	REC_WORD_VV	6.307	n/a	<>	n/a	-999	9	[0, 0, 0]	n/a	catFR1	3	R1444D
1104.216	9.771	1105787	REC_WORD_VV	9.771	n/a	<>	n/a	-999	9	[0, 0, 0]	n/a	catFR1	3	R1444D
1113.987	2.682	1115558	REC_WORD	2.682	n/a	ORCHID	Flowers	-999	9	[0, 0, 0]	n/a	catFR1	3	R1444D
1116.669	7.611	1118246	REC_END	n/a	n/a	n/a	n/a	-999	9	[0, 0, 0]	n/a	catFR1	3	R1444D
1124.28	10.351	1125856	COUNTDOWN_START	n/a	n/a	n/a	n/a	-999	9	[0, 0, 0]	n/a	catFR1	3	R1444D
1134.631	0.0	1136203	COUNTDOWN_END	n/a	n/a	n/a	n/a	-999	9	[0, 0, 0]	n/a	catFR1	3	R1444D
1134.631	2.317	1136203	ENCODING_START	n/a	n/a	n/a	n/a	-999	10	[0, 0, 0]	n/a	catFR1	3	R1444D
1136.948	1.6	1138526	WORD	n/a	wordpools/wordpool_categorized_EN.txt	MILK	Beverages	1	10	[0, 0, 0]	n/a	catFR1	3	R1444D
1138.548	0.833	1140121	WORD_OFF	n/a	n/a	MILK	Beverages	1	10	[0, 0, 0]	n/a	catFR1	3	R1444D
1139.381	1.616	1140949	WORD	n/a	wordpools/wordpool_categorized_EN.txt	RUM	Beverages	2	10	[0, 0, 0]	n/a	catFR1	3	R1444D
1140.997	0.834	1142569	WORD_OFF	n/a	n/a	RUM	Beverages	2	10	[0, 0, 0]	n/a	catFR1	3	R1444D
1141.831	1.6	1143398	WORD	n/a	wordpools/wordpool_categorized_EN.txt	STRAINER	KitchenTools	3	10	[0, 0, 0]	n/a	catFR1	3	R1444D
1143.431	0.817	1145005	WORD_OFF	n/a	n/a	STRAINER	KitchenTools	3	10	[0, 0, 0]	n/a	catFR1	3	R1444D
1144.248	1.6	1145821	WORD	n/a	wordpools/wordpool_categorized_EN.txt	GRATER	KitchenTools	4	10	[0, 0, 0]	n/a	catFR1	3	R1444D
1145.848	0.917	1147416	WORD_OFF	n/a	n/a	GRATER	KitchenTools	4	10	[0, 0, 0]	n/a	catFR1	3	R1444D
1146.765	1.616	1148345	WORD	n/a	wordpools/wordpool_categorized_EN.txt	HAWK	Birds	5	10	[0, 0, 0]	n/a	catFR1	3	R1444D
1148.381	0.866	1149953	WORD_OFF	n/a	n/a	HAWK	Birds	5	10	[0, 0, 0]	n/a	catFR1	3	R1444D
1149.247	1.6	1150819	WORD	n/a	wordpools/wordpool_categorized_EN.txt	DOVE	Birds	6	10	[0, 0, 0]	n/a	catFR1	3	R1444D
1150.847	0.934	1152414	WORD_OFF	n/a	n/a	DOVE	Birds	6	10	[0, 0, 0]	n/a	catFR1	3	R1444D
1151.781	1.6	1153356	WORD	n/a	wordpools/wordpool_categorized_EN.txt	WATER	Beverages	7	10	[0, 0, 0]	n/a	catFR1	3	R1444D
1153.381	0.982	1154950	WORD_OFF	n/a	n/a	WATER	Beverages	7	10	[0, 0, 0]	n/a	catFR1	3	R1444D
1154.363	1.601	1155930	WORD	n/a	wordpools/wordpool_categorized_EN.txt	WINE	Beverages	8	10	[0, 0, 0]	n/a	catFR1	3	R1444D
1155.964	0.966	1157537	WORD_OFF	n/a	n/a	WINE	Beverages	8	10	[0, 0, 0]	n/a	catFR1	3	R1444D
1156.93	1.601	1158504	WORD	n/a	wordpools/wordpool_categorized_EN.txt	LADLE	KitchenTools	9	10	[0, 0, 0]	n/a	catFR1	3	R1444D
1158.531	0.849	1160099	WORD_OFF	n/a	n/a	LADLE	KitchenTools	9	10	[0, 0, 0]	n/a	catFR1	3	R1444D
1159.38	1.6	1160952	WORD	n/a	wordpools/wordpool_categorized_EN.txt	SPOON	KitchenTools	10	10	[0, 0, 0]	n/a	catFR1	3	R1444D
1160.98	0.933	1162547	WORD_OFF	n/a	n/a	SPOON	KitchenTools	10	10	[0, 0, 0]	n/a	catFR1	3	R1444D
1161.913	1.601	1163489	WORD	n/a	wordpools/wordpool_categorized_EN.txt	BLUEBIRD	Birds	11	10	[0, 0, 0]	n/a	catFR1	3	R1444D
1163.514	0.984	1165084	WORD_OFF	n/a	n/a	BLUEBIRD	Birds	11	10	[0, 0, 0]	n/a	catFR1	3	R1444D
1164.498	1.616	1166063	WORD	n/a	wordpools/wordpool_categorized_EN.txt	CARDINAL	Birds	12	10	[0, 0, 0]	n/a	catFR1	3	R1444D
1166.114	0.0	1167682	PROB	0.0	n/a	n/a	n/a	-999	10	[4, 4, 3]	11	catFR1	3	R1444D
1166.113	0.002	1167683	WORD_OFF	n/a	n/a	CARDINAL	Birds	12	10	[0, 0, 0]	n/a	catFR1	3	R1444D
1166.115	0.0	1167683	ENCODING_END	n/a	n/a	n/a	n/a	-999	10	[0, 0, 0]	n/a	catFR1	3	R1444D
1166.115	0.0	1167683	DISTRACT_START	n/a	n/a	n/a	n/a	-999	10	[0, 0, 0]	n/a	catFR1	3	R1444D
1166.115	7.084	1167683	START	n/a	n/a	n/a	n/a	-999	10	[-999, -999, -999]	n/a	catFR1	3	R1444D
1173.199	8.666	1174767	PROB	8.666	n/a	n/a	n/a	-999	10	[4, 5, 4]	13	catFR1	3	R1444D
1181.865	7.566	1183432	PROB	7.566	n/a	n/a	n/a	-999	10	[8, 2, 3]	13	catFR1	3	R1444D
1189.431	0.0	1190998	STOP	n/a	n/a	n/a	n/a	-999	10	[-999, -999, -999]	n/a	catFR1	3	R1444D
1189.431	1.317	1191001	DISTRACT_END	n/a	n/a	n/a	n/a	-999	10	[0, 0, 0]	n/a	catFR1	3	R1444D
1190.748	3.251	1192320	REC_START	n/a	n/a	n/a	n/a	-999	10	[0, 0, 0]	n/a	catFR1	3	R1444D
1193.999	4.169	1195566	REC_WORD_VV	4.169	n/a	<>	n/a	-999	10	[0, 0, 0]	n/a	catFR1	3	R1444D
1198.168	0.863	1199734	REC_WORD_VV	0.863	n/a	<>	n/a	-999	10	[0, 0, 0]	n/a	catFR1	3	R1444D
1199.031	1.521	1200597	REC_WORD	1.521	n/a	CARDINAL	Birds	12	10	[0, 0, 0]	n/a	catFR1	3	R1444D
1200.552	1.095	1202118	REC_WORD	1.095	n/a	BIRD	n/a	-999	10	[0, 0, 0]	n/a	catFR1	3	R1444D
1201.647	4.268	1203213	REC_WORD_VV	4.268	n/a	<>	n/a	-999	10	[0, 0, 0]	n/a	catFR1	3	R1444D
1205.915	2.175	1207481	REC_WORD_VV	2.175	n/a	<>	n/a	-999	10	[0, 0, 0]	n/a	catFR1	3	R1444D
1208.09	10.895	1209656	REC_WORD	10.895	n/a	NOODLE	n/a	-999	10	[0, 0, 0]	n/a	catFR1	3	R1444D
1218.985	2.975	1220550	REC_WORD_VV	2.975	n/a	<>	n/a	-999	10	[0, 0, 0]	n/a	catFR1	3	R1444D
1221.96	5.221	1223524	REC_END	n/a	n/a	n/a	n/a	-999	10	[0, 0, 0]	n/a	catFR1	3	R1444D
1227.181	10.349	1228747	COUNTDOWN_START	n/a	n/a	n/a	n/a	-999	10	[0, 0, 0]	n/a	catFR1	3	R1444D
1237.53	0.0	1239094	COUNTDOWN_END	n/a	n/a	n/a	n/a	-999	10	[0, 0, 0]	n/a	catFR1	3	R1444D
1237.53	1.9	1239094	ENCODING_START	n/a	n/a	n/a	n/a	-999	11	[0, 0, 0]	n/a	catFR1	3	R1444D
1239.43	1.601	1241003	WORD	n/a	wordpools/wordpool_categorized_EN.txt	WINDOW	Building	1	11	[0, 0, 0]	n/a	catFR1	3	R1444D
1241.031	0.916	1242598	WORD_OFF	n/a	n/a	WINDOW	Building	1	11	[0, 0, 0]	n/a	catFR1	3	R1444D
1241.947	1.6	1243514	WORD	n/a	wordpools/wordpool_categorized_EN.txt	DOOR	Building	2	11	[0, 0, 0]	n/a	catFR1	3	R1444D
1243.547	1.0	1245109	WORD_OFF	n/a	n/a	DOOR	Building	2	11	[0, 0, 0]	n/a	catFR1	3	R1444D
1244.547	1.617	1246114	WORD	n/a	wordpools/wordpool_categorized_EN.txt	BOAT	Vehicles	3	11	[0, 0, 0]	n/a	catFR1	3	R1444D
1246.164	0.966	1247734	WORD_OFF	n/a	n/a	BOAT	Vehicles	3	11	[0, 0, 0]	n/a	catFR1	3	R1444D
1247.13	1.6	1248700	WORD	n/a	wordpools/wordpool_categorized_EN.txt	TRAIN	Vehicles	4	11	[0, 0, 0]	n/a	catFR1	3	R1444D
1248.73	0.767	1250295	WORD_OFF	n/a	n/a	TRAIN	Vehicles	4	11	[0, 0, 0]	n/a	catFR1	3	R1444D
1249.497	1.6	1251061	WORD	n/a	wordpools/wordpool_categorized_EN.txt	DRUM	Instruments	5	11	[0, 0, 0]	n/a	catFR1	3	R1444D
1251.097	0.801	1252668	WORD_OFF	n/a	n/a	DRUM	Instruments	5	11	[0, 0, 0]	n/a	catFR1	3	R1444D
1251.898	1.599	1253460	WORD	n/a	wordpools/wordpool_categorized_EN.txt	TUBA	Instruments	6	11	[0, 0, 0]	n/a	catFR1	3	R1444D
1253.497	0.884	1255067	WORD_OFF	n/a	n/a	TUBA	Instruments	6	11	[0, 0, 0]	n/a	catFR1	3	R1444D
1254.381	1.617	1255946	WORD	n/a	wordpools/wordpool_categorized_EN.txt	MOTORCYCLE	Vehicles	7	11	[0, 0, 0]	n/a	catFR1	3	R1444D
1255.998	0.782	1257566	WORD_OFF	n/a	n/a	MOTORCYCLE	Vehicles	7	11	[0, 0, 0]	n/a	catFR1	3	R1444D
1256.78	1.6	1258344	WORD	n/a	wordpools/wordpool_categorized_EN.txt	BIKE	Vehicles	8	11	[0, 0, 0]	n/a	catFR1	3	R1444D
1258.38	0.933	1259952	WORD_OFF	n/a	n/a	BIKE	Vehicles	8	11	[0, 0, 0]	n/a	catFR1	3	R1444D
1259.313	1.618	1260881	WORD	n/a	wordpools/wordpool_categorized_EN.txt	FLUTE	Instruments	9	11	[0, 0, 0]	n/a	catFR1	3	R1444D
1260.931	0.865	1262501	WORD_OFF	n/a	n/a	FLUTE	Instruments	9	11	[0, 0, 0]	n/a	catFR1	3	R1444D
1261.796	1.601	1263367	WORD	n/a	wordpools/wordpool_categorized_EN.txt	BASS	Instruments	10	11	[0, 0, 0]	n/a	catFR1	3	R1444D
1263.397	0.933	1264962	WORD_OFF	n/a	n/a	BASS	Instruments	10	11	[0, 0, 0]	n/a	catFR1	3	R1444D
1264.33	1.601	1265891	WORD	n/a	wordpools/wordpool_categorized_EN.txt	BATHROOM	Building	11	11	[0, 0, 0]	n/a	catFR1	3	R1444D
1265.931	0.982	1267498	WORD_OFF	n/a	n/a	BATHROOM	Building	11	11	[0, 0, 0]	n/a	catFR1	3	R1444D
1266.913	1.602	1268478	WORD	n/a	wordpools/wordpool_categorized_EN.txt	WALL	Building	12	11	[0, 0, 0]	n/a	catFR1	3	R1444D
1268.515	0.001	1270078	PROB	0.001	n/a	n/a	n/a	-999	11	[4, 1, 8]	13	catFR1	3	R1444D
1268.516	0.0	1270079	START	n/a	n/a	n/a	n/a	-999	11	[-999, -999, -999]	n/a	catFR1	3	R1444D
1268.514	0.002	1270085	WORD_OFF	n/a	n/a	WALL	Building	12	11	[0, 0, 0]	n/a	catFR1	3	R1444D
1268.516	0.0	1270085	ENCODING_END	n/a	n/a	n/a	n/a	-999	11	[0, 0, 0]	n/a	catFR1	3	R1444D
1268.516	10.315	1270085	DISTRACT_START	n/a	n/a	n/a	n/a	-999	11	[0, 0, 0]	n/a	catFR1	3	R1444D
1278.831	4.15	1280393	PROB	4.15	n/a	n/a	n/a	-999	11	[5, 5, 1]	11	catFR1	3	R1444D
1282.981	11.7	1284543	PROB	11.7	n/a	n/a	n/a	-999	11	[4, 4, 7]	15	catFR1	3	R1444D
1294.681	0.0	1296241	DISTRACT_END	n/a	n/a	n/a	n/a	-999	11	[0, 0, 0]	n/a	catFR1	3	R1444D
1294.681	1.199	1296242	STOP	n/a	n/a	n/a	n/a	-999	11	[-999, -999, -999]	n/a	catFR1	3	R1444D
1295.88	3.145	1297447	REC_START	n/a	n/a	n/a	n/a	-999	11	[0, 0, 0]	n/a	catFR1	3	R1444D
1299.025	1.0	1300586	REC_WORD_VV	1.0	n/a	<>	n/a	-999	11	[0, 0, 0]	n/a	catFR1	3	R1444D
1300.025	2.554	1301586	REC_WORD_VV	2.554	n/a	<>	n/a	-999	11	[0, 0, 0]	n/a	catFR1	3	R1444D
1302.579	1.062	1304140	REC_WORD_VV	1.062	n/a	<>	n/a	-999	11	[0, 0, 0]	n/a	catFR1	3	R1444D
1303.641	2.832	1305202	REC_WORD	2.832	n/a	BOAT	Vehicles	3	11	[0, 0, 0]	n/a	catFR1	3	R1444D
1306.473	1.523	1308034	REC_WORD	1.523	n/a	BOAT	Vehicles	3	11	[0, 0, 0]	n/a	catFR1	3	R1444D
1307.996	0.42	1309557	REC_WORD	0.42	n/a	CAR	Vehicles	-999	11	[0, 0, 0]	n/a	catFR1	3	R1444D
1308.416	2.026	1309977	REC_WORD	2.026	n/a	MOTORCYCLE	Vehicles	7	11	[0, 0, 0]	n/a	catFR1	3	R1444D
1310.442	3.582	1312002	REC_WORD_VV	3.582	n/a	<>	n/a	-999	11	[0, 0, 0]	n/a	catFR1	3	R1444D
1314.024	0.506	1315584	REC_WORD	0.506	n/a	PEACH	Fruit	-999	11	[0, 0, 0]	n/a	catFR1	3	R1444D
1314.53	0.42	1316090	REC_WORD	0.42	n/a	PLUM	Fruit	-999	11	[0, 0, 0]	n/a	catFR1	3	R1444D
1314.95	0.694	1316510	REC_WORD	0.694	n/a	PEAR	Fruit	-999	11	[0, 0, 0]	n/a	catFR1	3	R1444D
1315.644	4.597	1317204	REC_WORD	4.597	n/a	APPLE	n/a	-999	11	[0, 0, 0]	n/a	catFR1	3	R1444D
1320.241	6.878	1321801	REC_WORD_VV	6.878	n/a	<>	n/a	-999	11	[0, 0, 0]	n/a	catFR1	3	R1444D
1327.119	5.595	1328676	REC_END	n/a	n/a	n/a	n/a	-999	11	[0, 0, 0]	n/a	catFR1	3	R1444D
1332.714	10.349	1334276	COUNTDOWN_START	n/a	n/a	n/a	n/a	-999	11	[0, 0, 0]	n/a	catFR1	3	R1444D
1343.063	0.0	1344623	COUNTDOWN_END	n/a	n/a	n/a	n/a	-999	11	[0, 0, 0]	n/a	catFR1	3	R1444D
1343.063	1.935	1344623	ENCODING_START	n/a	n/a	n/a	n/a	-999	12	[0, 0, 0]	n/a	catFR1	3	R1444D
1344.998	1.615	1346557	WORD	n/a	wordpools/wordpool_categorized_EN.txt	TRUCK	Vehicles	1	12	[0, 0, 0]	n/a	catFR1	3	R1444D
1346.613	0.768	1348177	WORD_OFF	n/a	n/a	TRUCK	Vehicles	1	12	[0, 0, 0]	n/a	catFR1	3	R1444D
1347.381	1.616	1348943	WORD	n/a	wordpools/wordpool_categorized_EN.txt	JEEP	Vehicles	2	12	[0, 0, 0]	n/a	catFR1	3	R1444D
1348.997	1.0	1350562	WORD_OFF	n/a	n/a	JEEP	Vehicles	2	12	[0, 0, 0]	n/a	catFR1	3	R1444D
1349.997	1.617	1351554	WORD	n/a	wordpools/wordpool_categorized_EN.txt	SPANDEX	Fabric	3	12	[0, 0, 0]	n/a	catFR1	3	R1444D
1351.614	0.85	1353174	WORD_OFF	n/a	n/a	SPANDEX	Fabric	3	12	[0, 0, 0]	n/a	catFR1	3	R1444D
1352.464	1.6	1354028	WORD	n/a	wordpools/wordpool_categorized_EN.txt	WOOL	Fabric	4	12	[0, 0, 0]	n/a	catFR1	3	R1444D
1354.064	0.95	1355623	WORD_OFF	n/a	n/a	WOOL	Fabric	4	12	[0, 0, 0]	n/a	catFR1	3	R1444D
1355.014	1.6	1356577	WORD	n/a	wordpools/wordpool_categorized_EN.txt	SPIDER	Insects	5	12	[0, 0, 0]	n/a	catFR1	3	R1444D
1356.614	0.816	1358172	WORD_OFF	n/a	n/a	SPIDER	Insects	5	12	[0, 0, 0]	n/a	catFR1	3	R1444D
1357.43	1.601	1358988	WORD	n/a	wordpools/wordpool_categorized_EN.txt	LADYBUG	Insects	6	12	[0, 0, 0]	n/a	catFR1	3	R1444D
1359.031	0.882	1360595	WORD_OFF	n/a	n/a	LADYBUG	Insects	6	12	[0, 0, 0]	n/a	catFR1	3	R1444D
1359.913	1.617	1361474	WORD	n/a	wordpools/wordpool_categorized_EN.txt	SILK	Fabric	7	12	[0, 0, 0]	n/a	catFR1	3	R1444D
1361.53	1.0	1363094	WORD_OFF	n/a	n/a	SILK	Fabric	7	12	[0, 0, 0]	n/a	catFR1	3	R1444D
1362.53	1.618	1364086	WORD	n/a	wordpools/wordpool_categorized_EN.txt	DENIM	Fabric	8	12	[0, 0, 0]	n/a	catFR1	3	R1444D
1364.148	0.983	1365706	WORD_OFF	n/a	n/a	DENIM	Fabric	8	12	[0, 0, 0]	n/a	catFR1	3	R1444D
1365.131	1.616	1366686	WORD	n/a	wordpools/wordpool_categorized_EN.txt	MOSQUITO	Insects	9	12	[0, 0, 0]	n/a	catFR1	3	R1444D
1366.747	0.883	1368305	WORD_OFF	n/a	n/a	MOSQUITO	Insects	9	12	[0, 0, 0]	n/a	catFR1	3	R1444D
1367.63	1.6	1369184	WORD	n/a	wordpools/wordpool_categorized_EN.txt	FLY	Insects	10	12	[0, 0, 0]	n/a	catFR1	3	R1444D
1369.23	0.984	1370792	WORD_OFF	n/a	n/a	FLY	Insects	10	12	[0, 0, 0]	n/a	catFR1	3	R1444D
1370.214	1.6	1371771	WORD	n/a	wordpools/wordpool_categorized_EN.txt	BUS	Vehicles	11	12	[0, 0, 0]	n/a	catFR1	3	R1444D
1371.814	0.884	1373378	WORD_OFF	n/a	n/a	BUS	Vehicles	11	12	[0, 0, 0]	n/a	catFR1	3	R1444D
1372.698	1.6	1374257	WORD	n/a	wordpools/wordpool_categorized_EN.txt	SCOOTER	Vehicles	12	12	[0, 0, 0]	n/a	catFR1	3	R1444D
1374.298	0.0	1375852	WORD_OFF	n/a	n/a	SCOOTER	Vehicles	12	12	[0, 0, 0]	n/a	catFR1	3	R1444D
1374.298	0.001	1375855	PROB	0.001	n/a	n/a	n/a	-999	12	[7, 2, 3]	12	catFR1	3	R1444D
1374.299	0.0	1375856	START	n/a	n/a	n/a	n/a	-999	12	[-999, -999, -999]	n/a	catFR1	3	R1444D
1374.299	0.0	1375865	ENCODING_END	n/a	n/a	n/a	n/a	-999	12	[0, 0, 0]	n/a	catFR1	3	R1444D
1374.299	7.5	1375865	DISTRACT_START	n/a	n/a	n/a	n/a	-999	12	[0, 0, 0]	n/a	catFR1	3	R1444D
1381.799	4.9	1383356	PROB	4.9	n/a	n/a	n/a	-999	12	[8, 2, 1]	11	catFR1	3	R1444D
1386.699	12.215	1388255	PROB	12.215	n/a	n/a	n/a	-999	12	[2, 5, 5]	12	catFR1	3	R1444D
1398.914	0.0	1400470	STOP	n/a	n/a	n/a	n/a	-999	12	[-999, -999, -999]	n/a	catFR1	3	R1444D
1398.914	1.017	1400476	DISTRACT_END	n/a	n/a	n/a	n/a	-999	12	[0, 0, 0]	n/a	catFR1	3	R1444D
1399.931	0.788	1401493	REC_START	n/a	n/a	n/a	n/a	-999	12	[0, 0, 0]	n/a	catFR1	3	R1444D
1400.719	0.349	1402275	REC_WORD	0.349	n/a	SCOOTER	Vehicles	12	12	[0, 0, 0]	n/a	catFR1	3	R1444D
1401.068	0.767	1402624	REC_WORD	0.767	n/a	MOSQUITO	Insects	9	12	[0, 0, 0]	n/a	catFR1	3	R1444D
1401.835	0.436	1403391	REC_WORD	0.436	n/a	BUG	n/a	-999	12	[0, 0, 0]	n/a	catFR1	3	R1444D
1402.271	1.803	1403827	REC_WORD	1.803	n/a	FLY	Insects	10	12	[0, 0, 0]	n/a	catFR1	3	R1444D
1404.074	3.562	1405629	REC_WORD_VV	3.562	n/a	<>	n/a	-999	12	[0, 0, 0]	n/a	catFR1	3	R1444D
1407.636	1.354	1409191	REC_WORD	1.354	n/a	MOSQUITO	Insects	9	12	[0, 0, 0]	n/a	catFR1	3	R1444D
1408.99	2.916	1410545	REC_WORD	2.916	n/a	BUG	n/a	-999	12	[0, 0, 0]	n/a	catFR1	3	R1444D
1411.906	2.005	1413461	REC_WORD	2.005	n/a	FLY	Insects	10	12	[0, 0, 0]	n/a	catFR1	3	R1444D
1413.911	4.877	1415466	REC_WORD_VV	4.877	n/a	<>	n/a	-999	12	[0, 0, 0]	n/a	catFR1	3	R1444D
1418.788	0.542	1420343	REC_WORD_VV	0.542	n/a	<>	n/a	-999	12	[0, 0, 0]	n/a	catFR1	3	R1444D
1419.33	5.578	1420885	REC_WORD	5.578	n/a	ZEBRA	n/a	-999	12	[0, 0, 0]	n/a	catFR1	3	R1444D
1424.908	0.9	1426462	REC_WORD_VV	0.9	n/a	<>	n/a	-999	12	[0, 0, 0]	n/a	catFR1	3	R1444D
1425.808	5.355	1427362	REC_WORD	5.355	n/a	PILOT	n/a	-999	12	[0, 0, 0]	n/a	catFR1	3	R1444D
1431.163	0.0	1432723	REC_END	n/a	n/a	n/a	n/a	-999	12	[0, 0, 0]	n/a	catFR1	3	R1444D
