onset	duration	sample	trial_type	response_time	stim_file	item_name	category	serialpos	list	test	answer	experiment	session	subject
0.0	11.582	77881	INSTRUCT_START	n/a	n/a	n/a	n/a	-999	-999	[0, 0, 0]	n/a	catFR1	0	R1388T
11.582	11.499	89464	INSTRUCT_END	n/a	n/a	n/a	n/a	-999	-999	[0, 0, 0]	n/a	catFR1	0	R1388T
23.081	103.634	100960	INSTRUCT_START	n/a	n/a	n/a	n/a	-999	-999	[0, 0, 0]	n/a	catFR1	0	R1388T
126.715	98.733	204595	INSTRUCT_END	n/a	n/a	n/a	n/a	-999	-999	[0, 0, 0]	n/a	catFR1	0	R1388T
225.448	10.0	303318	COUNTDOWN_START	n/a	n/a	n/a	n/a	-999	-999	[0, 0, 0]	n/a	catFR1	0	R1388T
235.799	0.001	313666	COUNTDOWN_END	n/a	n/a	n/a	n/a	-999	-999	[0, 0, 0]	n/a	catFR1	0	R1388T
235.8	2.182	313666	ENCODING_START	n/a	n/a	n/a	n/a	-999	-1	[0, 0, 0]	n/a	catFR1	0	R1388T
237.982	1.6	315854	WORD	n/a	n/a	MINUTE	Times	1	-1	[0, 0, 0]	n/a	catFR1	0	R1388T
239.598	0.95	317468	WORD_OFF	n/a	n/a	MINUTE	Times	1	-1	[0, 0, 0]	n/a	catFR1	0	R1388T
240.548	1.6	318422	WORD	n/a	n/a	HOUR	Times	2	-1	[0, 0, 0]	n/a	catFR1	0	R1388T
242.165	0.766	320036	WORD_OFF	n/a	n/a	HOUR	Times	2	-1	[0, 0, 0]	n/a	catFR1	0	R1388T
242.931	1.6	320804	WORD	n/a	n/a	FARMER	Professions	3	-1	[0, 0, 0]	n/a	catFR1	0	R1388T
244.531	0.8	322399	WORD_OFF	n/a	n/a	FARMER	Professions	3	-1	[0, 0, 0]	n/a	catFR1	0	R1388T
245.331	1.6	323199	WORD	n/a	n/a	FIREMAN	Professions	4	-1	[0, 0, 0]	n/a	catFR1	0	R1388T
246.931	0.934	324802	WORD_OFF	n/a	n/a	FIREMAN	Professions	4	-1	[0, 0, 0]	n/a	catFR1	0	R1388T
247.865	1.6	325735	WORD	n/a	n/a	LEATHER	Materials	5	-1	[0, 0, 0]	n/a	catFR1	0	R1388T
249.465	0.966	327330	WORD_OFF	n/a	n/a	LEATHER	Materials	5	-1	[0, 0, 0]	n/a	catFR1	0	R1388T
250.431	1.6	328303	WORD	n/a	n/a	WOOL	Materials	6	-1	[0, 0, 0]	n/a	catFR1	0	R1388T
252.031	0.934	329898	WORD_OFF	n/a	n/a	WOOL	Materials	6	-1	[0, 0, 0]	n/a	catFR1	0	R1388T
252.965	1.6	330831	WORD	n/a	n/a	DAY	Times	7	-1	[0, 0, 0]	n/a	catFR1	0	R1388T
254.565	0.866	332436	WORD_OFF	n/a	n/a	DAY	Times	7	-1	[0, 0, 0]	n/a	catFR1	0	R1388T
255.431	1.6	333302	WORD	n/a	n/a	SECOND	Times	8	-1	[0, 0, 0]	n/a	catFR1	0	R1388T
257.048	0.85	334916	WORD_OFF	n/a	n/a	SECOND	Times	8	-1	[0, 0, 0]	n/a	catFR1	0	R1388T
257.898	1.6	335762	WORD	n/a	n/a	DENIM	Materials	9	-1	[0, 0, 0]	n/a	catFR1	0	R1388T
259.515	0.765	337386	WORD_OFF	n/a	n/a	DENIM	Materials	9	-1	[0, 0, 0]	n/a	catFR1	0	R1388T
260.28	1.6	338145	WORD	n/a	n/a	SILK	Materials	10	-1	[0, 0, 0]	n/a	catFR1	0	R1388T
261.881	0.767	339750	WORD_OFF	n/a	n/a	SILK	Materials	10	-1	[0, 0, 0]	n/a	catFR1	0	R1388T
262.648	1.6	340518	WORD	n/a	n/a	TEACHER	Professions	11	-1	[0, 0, 0]	n/a	catFR1	0	R1388T
264.248	0.917	342113	WORD_OFF	n/a	n/a	TEACHER	Professions	11	-1	[0, 0, 0]	n/a	catFR1	0	R1388T
265.165	1.6	343037	WORD	n/a	n/a	PLUMBER	Professions	12	-1	[0, 0, 0]	n/a	catFR1	0	R1388T
266.765	0.001	344632	WORD_OFF	n/a	n/a	PLUMBER	Professions	12	-1	[0, 0, 0]	n/a	catFR1	0	R1388T
266.766	0.002	344632	ENCODING_END	n/a	n/a	n/a	n/a	-999	-1	[0, 0, 0]	n/a	catFR1	0	R1388T
266.768	0.0	344632	DISTRACT_START	n/a	n/a	n/a	n/a	-999	-1	[0, 0, 0]	n/a	catFR1	0	R1388T
266.766	0.002	344632	PROB	26.284	n/a	n/a	n/a	-999	-1	[5, 7, 7]	15.0	catFR1	0	R1388T
266.768	26.297	344634	START	n/a	n/a	n/a	n/a	-999	-1	[-999, -999, -999]	n/a	catFR1	0	R1388T
293.065	0.0	370929	DISTRACT_END	n/a	n/a	n/a	n/a	-999	-1	[0, 0, 0]	n/a	catFR1	0	R1388T
293.065	1.133	370930	STOP	n/a	n/a	n/a	n/a	-999	-1	[-999, -999, -999]	n/a	catFR1	0	R1388T
294.198	3.8	372067	REC_START	n/a	n/a	n/a	n/a	-999	-1	[0, 0, 0]	n/a	catFR1	0	R1388T
297.998	0.5	375863	REC_WORD_VV	3.8	n/a	<>	n/a	-999	-1	[0, 0, 0]	n/a	catFR1	0	R1388T
298.498	0.5	376363	REC_WORD_VV	4.3	n/a	<>	n/a	-999	-1	[0, 0, 0]	n/a	catFR1	0	R1388T
298.998	0.5	376863	REC_WORD_VV	4.8	n/a	<>	n/a	-999	-1	[0, 0, 0]	n/a	catFR1	0	R1388T
299.498	0.5	377363	REC_WORD_VV	5.3	n/a	<>	n/a	-999	-1	[0, 0, 0]	n/a	catFR1	0	R1388T
299.998	0.504	377863	REC_WORD_VV	5.8	n/a	<>	n/a	-999	-1	[0, 0, 0]	n/a	catFR1	0	R1388T
300.502	0.5	378367	REC_WORD_VV	6.304	n/a	<>	n/a	-999	-1	[0, 0, 0]	n/a	catFR1	0	R1388T
301.002	0.5	378867	REC_WORD_VV	6.804	n/a	<>	n/a	-999	-1	[0, 0, 0]	n/a	catFR1	0	R1388T
301.502	0.5	379367	REC_WORD_VV	7.304	n/a	<>	n/a	-999	-1	[0, 0, 0]	n/a	catFR1	0	R1388T
302.002	0.243	379867	REC_WORD_VV	7.804	n/a	<>	n/a	-999	-1	[0, 0, 0]	n/a	catFR1	0	R1388T
302.245	0.663	380110	REC_WORD	8.047	n/a	DAY	Times	7	-1	[0, 0, 0]	n/a	catFR1	0	R1388T
302.908	1.397	380773	REC_WORD	8.71	n/a	TEACHER	Professions	11	-1	[0, 0, 0]	n/a	catFR1	0	R1388T
304.305	0.5	382170	REC_WORD_VV	10.107	n/a	<>	n/a	-999	-1	[0, 0, 0]	n/a	catFR1	0	R1388T
304.805	4.482	382670	REC_WORD_VV	10.607	n/a	<>	n/a	-999	-1	[0, 0, 0]	n/a	catFR1	0	R1388T
309.287	2.103	387151	REC_WORD_VV	15.089	n/a	<>	n/a	-999	-1	[0, 0, 0]	n/a	catFR1	0	R1388T
311.39	0.5	389254	REC_WORD_VV	17.192	n/a	<>	n/a	-999	-1	[0, 0, 0]	n/a	catFR1	0	R1388T
311.89	0.5	389754	REC_WORD_VV	17.692	n/a	<>	n/a	-999	-1	[0, 0, 0]	n/a	catFR1	0	R1388T
312.39	0.5	390254	REC_WORD_VV	18.192	n/a	<>	n/a	-999	-1	[0, 0, 0]	n/a	catFR1	0	R1388T
312.89	0.5	390754	REC_WORD_VV	18.692	n/a	<>	n/a	-999	-1	[0, 0, 0]	n/a	catFR1	0	R1388T
313.39	0.5	391254	REC_WORD_VV	19.192	n/a	<>	n/a	-999	-1	[0, 0, 0]	n/a	catFR1	0	R1388T
313.89	0.5	391754	REC_WORD_VV	19.692	n/a	<>	n/a	-999	-1	[0, 0, 0]	n/a	catFR1	0	R1388T
314.39	0.5	392254	REC_WORD_VV	20.192	n/a	<>	n/a	-999	-1	[0, 0, 0]	n/a	catFR1	0	R1388T
314.89	0.5	392754	REC_WORD_VV	20.692	n/a	<>	n/a	-999	-1	[0, 0, 0]	n/a	catFR1	0	R1388T
315.39	8.158	393254	REC_WORD_VV	21.192	n/a	<>	n/a	-999	-1	[0, 0, 0]	n/a	catFR1	0	R1388T
323.548	0.909	401412	REC_WORD_VV	29.35	n/a	<>	n/a	-999	-1	[0, 0, 0]	n/a	catFR1	0	R1388T
324.457	68.273	402323	REC_END	n/a	n/a	n/a	n/a	-999	-1	[0, 0, 0]	n/a	catFR1	0	R1388T
392.73	10.0	470596	COUNTDOWN_START	n/a	n/a	n/a	n/a	-999	1	[0, 0, 0]	n/a	catFR1	0	R1388T
403.081	0.0	480944	COUNTDOWN_END	n/a	n/a	n/a	n/a	-999	1	[0, 0, 0]	n/a	catFR1	0	R1388T
403.081	1.999	480944	ENCODING_START	n/a	n/a	n/a	n/a	-999	1	[0, 0, 0]	n/a	catFR1	0	R1388T
405.08	1.6	482938	WORD	n/a	wordpools/wordpool_categorized_EN.txt	GRATER	Kitchentools	1	1	[0, 0, 0]	n/a	catFR1	0	R1388T
406.681	0.851	484543	WORD_OFF	n/a	n/a	GRATER	Kitchentools	1	1	[0, 0, 0]	n/a	catFR1	0	R1388T
407.532	1.6	485389	WORD	n/a	wordpools/wordpool_categorized_EN.txt	PEELER	Kitchentools	2	1	[0, 0, 0]	n/a	catFR1	0	R1388T
409.148	0.934	487013	WORD_OFF	n/a	n/a	PEELER	Kitchentools	2	1	[0, 0, 0]	n/a	catFR1	0	R1388T
410.082	1.6	487946	WORD	n/a	wordpools/wordpool_categorized_EN.txt	DRIZZLE	Weather	3	1	[0, 0, 0]	n/a	catFR1	0	R1388T
411.682	0.783	489541	WORD_OFF	n/a	n/a	DRIZZLE	Weather	3	1	[0, 0, 0]	n/a	catFR1	0	R1388T
412.465	1.6	490329	WORD	n/a	wordpools/wordpool_categorized_EN.txt	TORNADO	Weather	4	1	[0, 0, 0]	n/a	catFR1	0	R1388T
414.081	0.9	491944	WORD_OFF	n/a	n/a	TORNADO	Weather	4	1	[0, 0, 0]	n/a	catFR1	0	R1388T
414.981	1.6	492838	WORD	n/a	wordpools/wordpool_categorized_EN.txt	GNAT	Insects	5	1	[0, 0, 0]	n/a	catFR1	0	R1388T
416.582	0.783	494443	WORD_OFF	n/a	n/a	GNAT	Insects	5	1	[0, 0, 0]	n/a	catFR1	0	R1388T
417.365	1.6	495221	WORD	n/a	wordpools/wordpool_categorized_EN.txt	ROACH	Insects	6	1	[0, 0, 0]	n/a	catFR1	0	R1388T
418.981	0.934	496845	WORD_OFF	n/a	n/a	ROACH	Insects	6	1	[0, 0, 0]	n/a	catFR1	0	R1388T
419.915	1.6	497779	WORD	n/a	wordpools/wordpool_categorized_EN.txt	STRAINER	Kitchentools	7	1	[0, 0, 0]	n/a	catFR1	0	R1388T
421.531	0.867	499393	WORD_OFF	n/a	n/a	STRAINER	Kitchentools	7	1	[0, 0, 0]	n/a	catFR1	0	R1388T
422.398	1.6	500259	WORD	n/a	wordpools/wordpool_categorized_EN.txt	SPOON	Kitchentools	8	1	[0, 0, 0]	n/a	catFR1	0	R1388T
423.998	0.799	501854	WORD_OFF	n/a	n/a	SPOON	Kitchentools	8	1	[0, 0, 0]	n/a	catFR1	0	R1388T
424.797	1.6	502661	WORD	n/a	wordpools/wordpool_categorized_EN.txt	CRICKET	Insects	9	1	[0, 0, 0]	n/a	catFR1	0	R1388T
426.398	0.783	504256	WORD_OFF	n/a	n/a	CRICKET	Insects	9	1	[0, 0, 0]	n/a	catFR1	0	R1388T
427.181	1.6	505044	WORD	n/a	wordpools/wordpool_categorized_EN.txt	ANT	Insects	10	1	[0, 0, 0]	n/a	catFR1	0	R1388T
428.781	0.984	506639	WORD_OFF	n/a	n/a	ANT	Insects	10	1	[0, 0, 0]	n/a	catFR1	0	R1388T
429.765	1.6	507621	WORD	n/a	wordpools/wordpool_categorized_EN.txt	THUNDERSTORM	Weather	11	1	[0, 0, 0]	n/a	catFR1	0	R1388T
431.365	0.783	509226	WORD_OFF	n/a	n/a	THUNDERSTORM	Weather	11	1	[0, 0, 0]	n/a	catFR1	0	R1388T
432.148	1.6	510004	WORD	n/a	wordpools/wordpool_categorized_EN.txt	THUNDER	Weather	12	1	[0, 0, 0]	n/a	catFR1	0	R1388T
433.749	0.001	511607	PROB	8.598	n/a	n/a	n/a	-999	1	[4, 2, 5]	11.0	catFR1	0	R1388T
433.75	0.0	511608	START	n/a	n/a	n/a	n/a	-999	1	[-999, -999, -999]	n/a	catFR1	0	R1388T
433.748	0.002	511609	WORD_OFF	n/a	n/a	THUNDER	Weather	12	1	[0, 0, 0]	n/a	catFR1	0	R1388T
433.75	0.0	511609	ENCODING_END	n/a	n/a	n/a	n/a	-999	1	[0, 0, 0]	n/a	catFR1	0	R1388T
433.75	8.616	511609	DISTRACT_START	n/a	n/a	n/a	n/a	-999	1	[0, 0, 0]	n/a	catFR1	0	R1388T
442.366	10.316	520224	PROB	10.299	n/a	n/a	n/a	-999	1	[8, 6, 4]	20.0	catFR1	0	R1388T
452.682	40.417	530539	PROB	40.399	n/a	n/a	n/a	-999	1	[8, 5, 1]	14.0	catFR1	0	R1388T
493.099	0.0	570954	DISTRACT_END	n/a	n/a	n/a	n/a	-999	1	[0, 0, 0]	n/a	catFR1	0	R1388T
493.099	1.065	570954	STOP	n/a	n/a	n/a	n/a	-999	1	[-999, -999, -999]	n/a	catFR1	0	R1388T
494.164	11.998	572023	REC_START	n/a	n/a	n/a	n/a	-999	1	[0, 0, 0]	n/a	catFR1	0	R1388T
506.162	0.635	584016	REC_WORD_VV	11.998	n/a	<>	n/a	-999	1	[0, 0, 0]	n/a	catFR1	0	R1388T
506.797	0.115	584651	REC_WORD_VV	12.633	n/a	<>	n/a	-999	1	[0, 0, 0]	n/a	catFR1	0	R1388T
506.912	1.349	584766	REC_WORD	12.748	n/a	SPOON	Kitchentools	8	1	[0, 0, 0]	n/a	catFR1	0	R1388T
508.261	1.187	586115	REC_WORD	14.097	n/a	THUNDERSTORM	Weather	11	1	[0, 0, 0]	n/a	catFR1	0	R1388T
509.448	0.955	587302	REC_WORD	15.284	n/a	THUNDER	Weather	12	1	[0, 0, 0]	n/a	catFR1	0	R1388T
510.403	0.944	588257	REC_WORD	16.239	n/a	ANT	Insects	10	1	[0, 0, 0]	n/a	catFR1	0	R1388T
511.347	1.126	589201	REC_WORD	17.183	n/a	CRICKET	Insects	9	1	[0, 0, 0]	n/a	catFR1	0	R1388T
512.473	1.442	590327	REC_WORD	18.309	n/a	ROACH	Insects	6	1	[0, 0, 0]	n/a	catFR1	0	R1388T
513.915	9.386	591769	REC_WORD_VV	19.751	n/a	<>	n/a	-999	1	[0, 0, 0]	n/a	catFR1	0	R1388T
523.301	0.5	601155	REC_WORD_VV	29.137	n/a	<>	n/a	-999	1	[0, 0, 0]	n/a	catFR1	0	R1388T
523.801	0.639	601655	REC_WORD_VV	29.637	n/a	<>	n/a	-999	1	[0, 0, 0]	n/a	catFR1	0	R1388T
524.44	3.308	602299	REC_END	n/a	n/a	n/a	n/a	-999	1	[0, 0, 0]	n/a	catFR1	0	R1388T
527.748	10.0	605605	COUNTDOWN_START	n/a	n/a	n/a	n/a	-999	2	[0, 0, 0]	n/a	catFR1	0	R1388T
538.099	0.0	615953	COUNTDOWN_END	n/a	n/a	n/a	n/a	-999	2	[0, 0, 0]	n/a	catFR1	0	R1388T
538.099	1.866	615953	ENCODING_START	n/a	n/a	n/a	n/a	-999	2	[0, 0, 0]	n/a	catFR1	0	R1388T
539.965	1.6	617821	WORD	n/a	wordpools/wordpool_categorized_EN.txt	DOLL	Toys	1	2	[0, 0, 0]	n/a	catFR1	0	R1388T
541.565	0.966	619416	WORD_OFF	n/a	n/a	DOLL	Toys	1	2	[0, 0, 0]	n/a	catFR1	0	R1388T
542.531	1.6	620388	WORD	n/a	wordpools/wordpool_categorized_EN.txt	MARBLES	Toys	2	2	[0, 0, 0]	n/a	catFR1	0	R1388T
544.148	0.817	622003	WORD_OFF	n/a	n/a	MARBLES	Toys	2	2	[0, 0, 0]	n/a	catFR1	0	R1388T
544.965	1.6	622820	WORD	n/a	wordpools/wordpool_categorized_EN.txt	PANTS	Clothing	3	2	[0, 0, 0]	n/a	catFR1	0	R1388T
546.565	0.8	624414	WORD_OFF	n/a	n/a	PANTS	Clothing	3	2	[0, 0, 0]	n/a	catFR1	0	R1388T
547.365	1.6	625222	WORD	n/a	wordpools/wordpool_categorized_EN.txt	UNDERWEAR	Clothing	4	2	[0, 0, 0]	n/a	catFR1	0	R1388T
548.965	0.916	626817	WORD_OFF	n/a	n/a	UNDERWEAR	Clothing	4	2	[0, 0, 0]	n/a	catFR1	0	R1388T
549.881	1.6	627731	WORD	n/a	wordpools/wordpool_categorized_EN.txt	ATTIC	Building	5	2	[0, 0, 0]	n/a	catFR1	0	R1388T
551.481	0.984	629336	WORD_OFF	n/a	n/a	ATTIC	Building	5	2	[0, 0, 0]	n/a	catFR1	0	R1388T
552.465	1.6	630318	WORD	n/a	wordpools/wordpool_categorized_EN.txt	FOUNDATION	Building	6	2	[0, 0, 0]	n/a	catFR1	0	R1388T
554.065	0.8	631913	WORD_OFF	n/a	n/a	FOUNDATION	Building	6	2	[0, 0, 0]	n/a	catFR1	0	R1388T
554.865	1.6	632720	WORD	n/a	wordpools/wordpool_categorized_EN.txt	BARBIE	Toys	7	2	[0, 0, 0]	n/a	catFR1	0	R1388T
556.464	0.834	634315	WORD_OFF	n/a	n/a	BARBIE	Toys	7	2	[0, 0, 0]	n/a	catFR1	0	R1388T
557.298	1.6	635151	WORD	n/a	wordpools/wordpool_categorized_EN.txt	SLINKY	Toys	8	2	[0, 0, 0]	n/a	catFR1	0	R1388T
558.898	0.983	636750	WORD_OFF	n/a	n/a	SLINKY	Toys	8	2	[0, 0, 0]	n/a	catFR1	0	R1388T
559.881	1.6	637738	WORD	n/a	wordpools/wordpool_categorized_EN.txt	BATHROOM	Building	9	2	[0, 0, 0]	n/a	catFR1	0	R1388T
561.498	0.883	639353	WORD_OFF	n/a	n/a	BATHROOM	Building	9	2	[0, 0, 0]	n/a	catFR1	0	R1388T
562.381	1.6	640238	WORD	n/a	wordpools/wordpool_categorized_EN.txt	STAIRS	Building	10	2	[0, 0, 0]	n/a	catFR1	0	R1388T
563.998	0.783	641852	WORD_OFF	n/a	n/a	STAIRS	Building	10	2	[0, 0, 0]	n/a	catFR1	0	R1388T
564.781	1.6	642630	WORD	n/a	wordpools/wordpool_categorized_EN.txt	JEANS	Clothing	11	2	[0, 0, 0]	n/a	catFR1	0	R1388T
566.381	0.849	644235	WORD_OFF	n/a	n/a	JEANS	Clothing	11	2	[0, 0, 0]	n/a	catFR1	0	R1388T
567.23	1.6	645081	WORD	n/a	wordpools/wordpool_categorized_EN.txt	SHIRT	Clothing	12	2	[0, 0, 0]	n/a	catFR1	0	R1388T
568.832	0.001	646683	PROB	9.149	n/a	n/a	n/a	-999	2	[1, 5, 4]	10.0	catFR1	0	R1388T
568.833	0.0	646684	START	n/a	n/a	n/a	n/a	-999	2	[-999, -999, -999]	n/a	catFR1	0	R1388T
568.831	0.001	646686	WORD_OFF	n/a	n/a	SHIRT	Clothing	12	2	[0, 0, 0]	n/a	catFR1	0	R1388T
568.832	0.001	646686	ENCODING_END	n/a	n/a	n/a	n/a	-999	2	[0, 0, 0]	n/a	catFR1	0	R1388T
568.833	9.165	646686	DISTRACT_START	n/a	n/a	n/a	n/a	-999	2	[0, 0, 0]	n/a	catFR1	0	R1388T
577.998	10.601	655849	PROB	10.583	n/a	n/a	n/a	-999	2	[3, 7, 6]	16.0	catFR1	0	R1388T
588.599	11.332	666449	PROB	11.316	n/a	n/a	n/a	-999	2	[6, 6, 2]	14.0	catFR1	0	R1388T
599.931	0.0	677778	DISTRACT_END	n/a	n/a	n/a	n/a	-999	2	[0, 0, 0]	n/a	catFR1	0	R1388T
599.931	1.334	677781	STOP	n/a	n/a	n/a	n/a	-999	2	[-999, -999, -999]	n/a	catFR1	0	R1388T
601.265	23.862	679120	REC_START	n/a	n/a	n/a	n/a	-999	2	[0, 0, 0]	n/a	catFR1	0	R1388T
625.127	1.841	702975	REC_WORD_VV	23.862	n/a	<>	n/a	-999	2	[0, 0, 0]	n/a	catFR1	0	R1388T
626.968	0.5	704816	REC_WORD_VV	25.703	n/a	<>	n/a	-999	2	[0, 0, 0]	n/a	catFR1	0	R1388T
627.468	4.063	705316	REC_WORD_VV	26.203	n/a	<>	n/a	-999	2	[0, 0, 0]	n/a	catFR1	0	R1388T
631.531	6.266	709376	REC_END	n/a	n/a	n/a	n/a	-999	2	[0, 0, 0]	n/a	catFR1	0	R1388T
637.797	10.0	715649	COUNTDOWN_START	n/a	n/a	n/a	n/a	-999	3	[0, 0, 0]	n/a	catFR1	0	R1388T
648.149	0.0	725997	COUNTDOWN_END	n/a	n/a	n/a	n/a	-999	3	[0, 0, 0]	n/a	catFR1	0	R1388T
648.149	2.082	725997	ENCODING_START	n/a	n/a	n/a	n/a	-999	3	[0, 0, 0]	n/a	catFR1	0	R1388T
650.231	1.6	728078	WORD	n/a	wordpools/wordpool_categorized_EN.txt	PETUNIA	Flowers	1	3	[0, 0, 0]	n/a	catFR1	0	R1388T
651.848	0.817	729693	WORD_OFF	n/a	n/a	PETUNIA	Flowers	1	3	[0, 0, 0]	n/a	catFR1	0	R1388T
652.665	1.6	730510	WORD	n/a	wordpools/wordpool_categorized_EN.txt	DAISY	Flowers	2	3	[0, 0, 0]	n/a	catFR1	0	R1388T
654.265	0.85	732114	WORD_OFF	n/a	n/a	DAISY	Flowers	2	3	[0, 0, 0]	n/a	catFR1	0	R1388T
655.115	1.6	732961	WORD	n/a	wordpools/wordpool_categorized_EN.txt	HUMIDITY	Weather	3	3	[0, 0, 0]	n/a	catFR1	0	R1388T
656.731	0.95	734575	WORD_OFF	n/a	n/a	HUMIDITY	Weather	3	3	[0, 0, 0]	n/a	catFR1	0	R1388T
657.681	1.6	735528	WORD	n/a	wordpools/wordpool_categorized_EN.txt	HURRICANE	Weather	4	3	[0, 0, 0]	n/a	catFR1	0	R1388T
659.298	0.866	737143	WORD_OFF	n/a	n/a	HURRICANE	Weather	4	3	[0, 0, 0]	n/a	catFR1	0	R1388T
660.164	1.6	738008	WORD	n/a	wordpools/wordpool_categorized_EN.txt	FOREST	Landscapes	5	3	[0, 0, 0]	n/a	catFR1	0	R1388T
661.765	0.783	739613	WORD_OFF	n/a	n/a	FOREST	Landscapes	5	3	[0, 0, 0]	n/a	catFR1	0	R1388T
662.548	1.6	740391	WORD	n/a	wordpools/wordpool_categorized_EN.txt	WOODS	Landscapes	6	3	[0, 0, 0]	n/a	catFR1	0	R1388T
664.148	0.85	741996	WORD_OFF	n/a	n/a	WOODS	Landscapes	6	3	[0, 0, 0]	n/a	catFR1	0	R1388T
664.998	1.6	742842	WORD	n/a	wordpools/wordpool_categorized_EN.txt	CLOUD	Weather	7	3	[0, 0, 0]	n/a	catFR1	0	R1388T
666.615	0.95	744466	WORD_OFF	n/a	n/a	CLOUD	Weather	7	3	[0, 0, 0]	n/a	catFR1	0	R1388T
667.565	1.6	745409	WORD	n/a	wordpools/wordpool_categorized_EN.txt	RAIN	Weather	8	3	[0, 0, 0]	n/a	catFR1	0	R1388T
669.181	0.966	747033	WORD_OFF	n/a	n/a	RAIN	Weather	8	3	[0, 0, 0]	n/a	catFR1	0	R1388T
670.147	1.6	747996	WORD	n/a	wordpools/wordpool_categorized_EN.txt	ROSE	Flowers	9	3	[0, 0, 0]	n/a	catFR1	0	R1388T
671.747	0.768	749591	WORD_OFF	n/a	n/a	ROSE	Flowers	9	3	[0, 0, 0]	n/a	catFR1	0	R1388T
672.515	1.6	750360	WORD	n/a	wordpools/wordpool_categorized_EN.txt	LILAC	Flowers	10	3	[0, 0, 0]	n/a	catFR1	0	R1388T
674.131	0.8	751974	WORD_OFF	n/a	n/a	LILAC	Flowers	10	3	[0, 0, 0]	n/a	catFR1	0	R1388T
674.931	1.6	752781	WORD	n/a	wordpools/wordpool_categorized_EN.txt	STREAM	Landscapes	11	3	[0, 0, 0]	n/a	catFR1	0	R1388T
676.547	0.85	754396	WORD_OFF	n/a	n/a	STREAM	Landscapes	11	3	[0, 0, 0]	n/a	catFR1	0	R1388T
677.397	1.6	755242	WORD	n/a	wordpools/wordpool_categorized_EN.txt	BEACH	Landscapes	12	3	[0, 0, 0]	n/a	catFR1	0	R1388T
678.999	0.0	756845	PROB	11.566	n/a	n/a	n/a	-999	3	[2, 6, 2]	10.0	catFR1	0	R1388T
678.998	0.002	756846	WORD_OFF	n/a	n/a	BEACH	Landscapes	12	3	[0, 0, 0]	n/a	catFR1	0	R1388T
679.0	0.0	756846	ENCODING_END	n/a	n/a	n/a	n/a	-999	3	[0, 0, 0]	n/a	catFR1	0	R1388T
679.0	0.0	756846	DISTRACT_START	n/a	n/a	n/a	n/a	-999	3	[0, 0, 0]	n/a	catFR1	0	R1388T
679.0	11.582	756846	START	n/a	n/a	n/a	n/a	-999	3	[-999, -999, -999]	n/a	catFR1	0	R1388T
690.582	6.301	768427	PROB	6.283	n/a	n/a	n/a	-999	3	[6, 3, 1]	8.0	catFR1	0	R1388T
696.883	8.732	774728	PROB	8.716	n/a	n/a	n/a	-999	3	[4, 3, 8]	15.0	catFR1	0	R1388T
705.615	0.0	783459	STOP	n/a	n/a	n/a	n/a	-999	3	[-999, -999, -999]	n/a	catFR1	0	R1388T
705.615	1.166	783465	DISTRACT_END	n/a	n/a	n/a	n/a	-999	3	[0, 0, 0]	n/a	catFR1	0	R1388T
706.781	1.353	784622	REC_START	n/a	n/a	n/a	n/a	-999	3	[0, 0, 0]	n/a	catFR1	0	R1388T
708.134	28.946	785978	REC_WORD_VV	1.353	n/a	<>	n/a	-999	3	[0, 0, 0]	n/a	catFR1	0	R1388T
737.08	3.734	814927	REC_END	n/a	n/a	n/a	n/a	-999	3	[0, 0, 0]	n/a	catFR1	0	R1388T
740.814	10.0	818662	COUNTDOWN_START	n/a	n/a	n/a	n/a	-999	4	[0, 0, 0]	n/a	catFR1	0	R1388T
751.165	0.001	829010	COUNTDOWN_END	n/a	n/a	n/a	n/a	-999	4	[0, 0, 0]	n/a	catFR1	0	R1388T
751.166	1.964	829010	ENCODING_START	n/a	n/a	n/a	n/a	-999	4	[0, 0, 0]	n/a	catFR1	0	R1388T
753.13	1.6	830974	WORD	n/a	wordpools/wordpool_categorized_EN.txt	GUITAR	Instruments	1	4	[0, 0, 0]	n/a	catFR1	0	R1388T
754.731	0.784	832579	WORD_OFF	n/a	n/a	GUITAR	Instruments	1	4	[0, 0, 0]	n/a	catFR1	0	R1388T
755.515	1.6	833357	WORD	n/a	wordpools/wordpool_categorized_EN.txt	BANJO	Instruments	2	4	[0, 0, 0]	n/a	catFR1	0	R1388T
757.115	0.766	834962	WORD_OFF	n/a	n/a	BANJO	Instruments	2	4	[0, 0, 0]	n/a	catFR1	0	R1388T
757.881	1.6	835720	WORD	n/a	wordpools/wordpool_categorized_EN.txt	SHORTS	Clothing	3	4	[0, 0, 0]	n/a	catFR1	0	R1388T
759.481	0.884	837325	WORD_OFF	n/a	n/a	SHORTS	Clothing	3	4	[0, 0, 0]	n/a	catFR1	0	R1388T
760.365	1.6	838210	WORD	n/a	wordpools/wordpool_categorized_EN.txt	COAT	Clothing	4	4	[0, 0, 0]	n/a	catFR1	0	R1388T
761.965	0.783	839805	WORD_OFF	n/a	n/a	COAT	Clothing	4	4	[0, 0, 0]	n/a	catFR1	0	R1388T
762.748	1.6	840593	WORD	n/a	wordpools/wordpool_categorized_EN.txt	CROWBAR	Tools	5	4	[0, 0, 0]	n/a	catFR1	0	R1388T
764.365	0.766	842207	WORD_OFF	n/a	n/a	CROWBAR	Tools	5	4	[0, 0, 0]	n/a	catFR1	0	R1388T
765.131	1.6	842975	WORD	n/a	wordpools/wordpool_categorized_EN.txt	DRILL	Tools	6	4	[0, 0, 0]	n/a	catFR1	0	R1388T
766.747	0.767	844590	WORD_OFF	n/a	n/a	DRILL	Tools	6	4	[0, 0, 0]	n/a	catFR1	0	R1388T
767.514	1.6	845358	WORD	n/a	wordpools/wordpool_categorized_EN.txt	TROMBONE	Instruments	7	4	[0, 0, 0]	n/a	catFR1	0	R1388T
769.114	0.916	846953	WORD_OFF	n/a	n/a	TROMBONE	Instruments	7	4	[0, 0, 0]	n/a	catFR1	0	R1388T
770.03	1.6	847877	WORD	n/a	wordpools/wordpool_categorized_EN.txt	FLUTE	Instruments	8	4	[0, 0, 0]	n/a	catFR1	0	R1388T
771.631	0.917	849472	WORD_OFF	n/a	n/a	FLUTE	Instruments	8	4	[0, 0, 0]	n/a	catFR1	0	R1388T
772.548	1.6	850386	WORD	n/a	wordpools/wordpool_categorized_EN.txt	RATCHET	Tools	9	4	[0, 0, 0]	n/a	catFR1	0	R1388T
774.164	0.984	852010	WORD_OFF	n/a	n/a	RATCHET	Tools	9	4	[0, 0, 0]	n/a	catFR1	0	R1388T
775.148	1.6	852993	WORD	n/a	wordpools/wordpool_categorized_EN.txt	SANDER	Tools	10	4	[0, 0, 0]	n/a	catFR1	0	R1388T
776.748	0.917	854588	WORD_OFF	n/a	n/a	SANDER	Tools	10	4	[0, 0, 0]	n/a	catFR1	0	R1388T
777.665	1.6	855502	WORD	n/a	wordpools/wordpool_categorized_EN.txt	DRESS	Clothing	11	4	[0, 0, 0]	n/a	catFR1	0	R1388T
779.281	1.0	857126	WORD_OFF	n/a	n/a	DRESS	Clothing	11	4	[0, 0, 0]	n/a	catFR1	0	R1388T
780.281	1.6	858128	WORD	n/a	wordpools/wordpool_categorized_EN.txt	JACKET	Clothing	12	4	[0, 0, 0]	n/a	catFR1	0	R1388T
781.881	0.002	859723	WORD_OFF	n/a	n/a	JACKET	Clothing	12	4	[0, 0, 0]	n/a	catFR1	0	R1388T
781.883	0.0	859723	ENCODING_END	n/a	n/a	n/a	n/a	-999	4	[0, 0, 0]	n/a	catFR1	0	R1388T
781.883	0.0	859723	DISTRACT_START	n/a	n/a	n/a	n/a	-999	4	[0, 0, 0]	n/a	catFR1	0	R1388T
781.882	0.001	859723	PROB	9.35	n/a	n/a	n/a	-999	4	[5, 2, 3]	10.0	catFR1	0	R1388T
781.883	9.365	859724	START	n/a	n/a	n/a	n/a	-999	4	[-999, -999, -999]	n/a	catFR1	0	R1388T
791.248	14.716	869088	PROB	14.7	n/a	n/a	n/a	-999	4	[8, 6, 5]	15.0	catFR1	0	R1388T
805.964	0.0	883803	DISTRACT_END	n/a	n/a	n/a	n/a	-999	4	[0, 0, 0]	n/a	catFR1	0	R1388T
805.964	1.117	883803	STOP	n/a	n/a	n/a	n/a	-999	4	[-999, -999, -999]	n/a	catFR1	0	R1388T
807.081	0.0	884920	REC_WORD_VV	0.0	n/a	<>	n/a	-999	4	[0, 0, 0]	n/a	catFR1	0	R1388T
807.081	29.999	884921	REC_START	n/a	n/a	n/a	n/a	-999	4	[0, 0, 0]	n/a	catFR1	0	R1388T
837.08	0.297	914918	REC_WORD_VV	29.999	n/a	<>	n/a	-999	4	[0, 0, 0]	n/a	catFR1	0	R1388T
837.377	25.105	915216	REC_END	n/a	n/a	n/a	n/a	-999	4	[0, 0, 0]	n/a	catFR1	0	R1388T
862.482	10.0	940318	COUNTDOWN_START	n/a	n/a	n/a	n/a	-999	5	[0, 0, 0]	n/a	catFR1	0	R1388T
872.832	0.0	950666	COUNTDOWN_END	n/a	n/a	n/a	n/a	-999	5	[0, 0, 0]	n/a	catFR1	0	R1388T
872.832	2.182	950675	ENCODING_START	n/a	n/a	n/a	n/a	-999	5	[0, 0, 0]	n/a	catFR1	0	R1388T
875.014	1.6	952854	WORD	n/a	wordpools/wordpool_categorized_EN.txt	DISHWASHER	Appliances	1	5	[0, 0, 0]	n/a	catFR1	0	R1388T
876.615	0.8	954449	WORD_OFF	n/a	n/a	DISHWASHER	Appliances	1	5	[0, 0, 0]	n/a	catFR1	0	R1388T
877.415	1.6	955256	WORD	n/a	wordpools/wordpool_categorized_EN.txt	REFRIGERATOR	Appliances	2	5	[0, 0, 0]	n/a	catFR1	0	R1388T
879.015	0.817	956851	WORD_OFF	n/a	n/a	REFRIGERATOR	Appliances	2	5	[0, 0, 0]	n/a	catFR1	0	R1388T
879.832	1.6	957668	WORD	n/a	wordpools/wordpool_categorized_EN.txt	BASEBALL	Toys	3	5	[0, 0, 0]	n/a	catFR1	0	R1388T
881.431	0.8	959263	WORD_OFF	n/a	n/a	BASEBALL	Toys	3	5	[0, 0, 0]	n/a	catFR1	0	R1388T
882.231	1.6	960070	WORD	n/a	wordpools/wordpool_categorized_EN.txt	BLOCKS	Toys	4	5	[0, 0, 0]	n/a	catFR1	0	R1388T
883.832	0.783	961665	WORD_OFF	n/a	n/a	BLOCKS	Toys	4	5	[0, 0, 0]	n/a	catFR1	0	R1388T
884.615	1.6	962453	WORD	n/a	wordpools/wordpool_categorized_EN.txt	TRAIN	Vehicles	5	5	[0, 0, 0]	n/a	catFR1	0	R1388T
886.215	1.0	964048	WORD_OFF	n/a	n/a	TRAIN	Vehicles	5	5	[0, 0, 0]	n/a	catFR1	0	R1388T
887.215	1.6	965050	WORD	n/a	wordpools/wordpool_categorized_EN.txt	BOAT	Vehicles	6	5	[0, 0, 0]	n/a	catFR1	0	R1388T
888.815	0.85	966654	WORD_OFF	n/a	n/a	BOAT	Vehicles	6	5	[0, 0, 0]	n/a	catFR1	0	R1388T
889.665	1.6	967500	WORD	n/a	wordpools/wordpool_categorized_EN.txt	PUZZLE	Toys	7	5	[0, 0, 0]	n/a	catFR1	0	R1388T
891.265	0.933	969105	WORD_OFF	n/a	n/a	PUZZLE	Toys	7	5	[0, 0, 0]	n/a	catFR1	0	R1388T
892.198	1.6	970029	WORD	n/a	wordpools/wordpool_categorized_EN.txt	FOOTBALL	Toys	8	5	[0, 0, 0]	n/a	catFR1	0	R1388T
893.798	0.883	971634	WORD_OFF	n/a	n/a	FOOTBALL	Toys	8	5	[0, 0, 0]	n/a	catFR1	0	R1388T
894.681	1.6	972519	WORD	n/a	wordpools/wordpool_categorized_EN.txt	VAN	Vehicles	9	5	[0, 0, 0]	n/a	catFR1	0	R1388T
896.281	0.933	974114	WORD_OFF	n/a	n/a	VAN	Vehicles	9	5	[0, 0, 0]	n/a	catFR1	0	R1388T
897.214	1.6	975047	WORD	n/a	wordpools/wordpool_categorized_EN.txt	PLANE	Vehicles	10	5	[0, 0, 0]	n/a	catFR1	0	R1388T
898.815	0.816	976652	WORD_OFF	n/a	n/a	PLANE	Vehicles	10	5	[0, 0, 0]	n/a	catFR1	0	R1388T
899.631	1.6	977469	WORD	n/a	wordpools/wordpool_categorized_EN.txt	DRYER	Appliances	11	5	[0, 0, 0]	n/a	catFR1	0	R1388T
901.247	0.801	979083	WORD_OFF	n/a	n/a	DRYER	Appliances	11	5	[0, 0, 0]	n/a	catFR1	0	R1388T
902.048	1.6	979881	WORD	n/a	wordpools/wordpool_categorized_EN.txt	VACUUM	Appliances	12	5	[0, 0, 0]	n/a	catFR1	0	R1388T
903.648	0.002	981482	PROB	8.133	n/a	n/a	n/a	-999	5	[2, 5, 2]	9.0	catFR1	0	R1388T
903.65	0.0	981484	START	n/a	n/a	n/a	n/a	-999	5	[-999, -999, -999]	n/a	catFR1	0	R1388T
903.648	0.002	981486	WORD_OFF	n/a	n/a	VACUUM	Appliances	12	5	[0, 0, 0]	n/a	catFR1	0	R1388T
903.65	0.0	981486	ENCODING_END	n/a	n/a	n/a	n/a	-999	5	[0, 0, 0]	n/a	catFR1	0	R1388T
903.65	8.148	981486	DISTRACT_START	n/a	n/a	n/a	n/a	-999	5	[0, 0, 0]	n/a	catFR1	0	R1388T
911.798	10.418	989632	PROB	10.4	n/a	n/a	n/a	-999	5	[6, 6, 3]	15.0	catFR1	0	R1388T
922.216	12.9	1000049	PROB	12.882	n/a	n/a	n/a	-999	5	[6, 1, 1]	8.0	catFR1	0	R1388T
935.116	0.0	1012948	DISTRACT_END	n/a	n/a	n/a	n/a	-999	5	[0, 0, 0]	n/a	catFR1	0	R1388T
935.116	1.181	1012949	STOP	n/a	n/a	n/a	n/a	-999	5	[-999, -999, -999]	n/a	catFR1	0	R1388T
936.297	5.161	1014134	REC_START	n/a	n/a	n/a	n/a	-999	5	[0, 0, 0]	n/a	catFR1	0	R1388T
941.458	1.221	1019290	REC_WORD_VV	5.161	n/a	<>	n/a	-999	5	[0, 0, 0]	n/a	catFR1	0	R1388T
942.679	15.36	1020511	REC_WORD_VV	6.382	n/a	<>	n/a	-999	5	[0, 0, 0]	n/a	catFR1	0	R1388T
958.039	3.064	1035871	REC_WORD_VV	21.742	n/a	<>	n/a	-999	5	[0, 0, 0]	n/a	catFR1	0	R1388T
961.103	5.45	1038934	REC_WORD_VV	24.806	n/a	<>	n/a	-999	5	[0, 0, 0]	n/a	catFR1	0	R1388T
966.553	5.495	1044380	REC_END	n/a	n/a	n/a	n/a	-999	5	[0, 0, 0]	n/a	catFR1	0	R1388T
972.048	10.0	1049885	COUNTDOWN_START	n/a	n/a	n/a	n/a	-999	6	[0, 0, 0]	n/a	catFR1	0	R1388T
982.399	0.0	1060233	COUNTDOWN_END	n/a	n/a	n/a	n/a	-999	6	[0, 0, 0]	n/a	catFR1	0	R1388T
982.399	2.166	1060233	ENCODING_START	n/a	n/a	n/a	n/a	-999	6	[0, 0, 0]	n/a	catFR1	0	R1388T
984.565	1.6	1062392	WORD	n/a	wordpools/wordpool_categorized_EN.txt	BUTTERFLY	Insects	1	6	[0, 0, 0]	n/a	catFR1	0	R1388T
986.181	0.834	1064016	WORD_OFF	n/a	n/a	BUTTERFLY	Insects	1	6	[0, 0, 0]	n/a	catFR1	0	R1388T
987.015	1.6	1064843	WORD	n/a	wordpools/wordpool_categorized_EN.txt	MOTH	Insects	2	6	[0, 0, 0]	n/a	catFR1	0	R1388T
988.615	0.9	1066447	WORD_OFF	n/a	n/a	MOTH	Insects	2	6	[0, 0, 0]	n/a	catFR1	0	R1388T
989.515	1.6	1067342	WORD	n/a	wordpools/wordpool_categorized_EN.txt	SOFA	Furniture	3	6	[0, 0, 0]	n/a	catFR1	0	R1388T
991.115	0.816	1068947	WORD_OFF	n/a	n/a	SOFA	Furniture	3	6	[0, 0, 0]	n/a	catFR1	0	R1388T
991.931	1.6	1069764	WORD	n/a	wordpools/wordpool_categorized_EN.txt	RECLINER	Furniture	4	6	[0, 0, 0]	n/a	catFR1	0	R1388T
993.531	0.951	1071359	WORD_OFF	n/a	n/a	RECLINER	Furniture	4	6	[0, 0, 0]	n/a	catFR1	0	R1388T
994.482	1.6	1072312	WORD	n/a	wordpools/wordpool_categorized_EN.txt	GOAT	Farmanimals	5	6	[0, 0, 0]	n/a	catFR1	0	R1388T
996.098	0.967	1073926	WORD_OFF	n/a	n/a	GOAT	Farmanimals	5	6	[0, 0, 0]	n/a	catFR1	0	R1388T
997.065	1.6	1074899	WORD	n/a	wordpools/wordpool_categorized_EN.txt	ROOSTER	Farmanimals	6	6	[0, 0, 0]	n/a	catFR1	0	R1388T
998.681	0.967	1076513	WORD_OFF	n/a	n/a	ROOSTER	Farmanimals	6	6	[0, 0, 0]	n/a	catFR1	0	R1388T
999.648	1.6	1077476	WORD	n/a	wordpools/wordpool_categorized_EN.txt	FLY	Insects	7	6	[0, 0, 0]	n/a	catFR1	0	R1388T
1001.265	0.916	1079091	WORD_OFF	n/a	n/a	FLY	Insects	7	6	[0, 0, 0]	n/a	catFR1	0	R1388T
1002.181	1.6	1080015	WORD	n/a	wordpools/wordpool_categorized_EN.txt	BEE	Insects	8	6	[0, 0, 0]	n/a	catFR1	0	R1388T
1003.781	0.816	1081609	WORD_OFF	n/a	n/a	BEE	Insects	8	6	[0, 0, 0]	n/a	catFR1	0	R1388T
1004.597	1.6	1082426	WORD	n/a	wordpools/wordpool_categorized_EN.txt	CALF	Farmanimals	9	6	[0, 0, 0]	n/a	catFR1	0	R1388T
1006.198	0.9	1084031	WORD_OFF	n/a	n/a	CALF	Farmanimals	9	6	[0, 0, 0]	n/a	catFR1	0	R1388T
1007.098	1.6	1084926	WORD	n/a	wordpools/wordpool_categorized_EN.txt	BULL	Farmanimals	10	6	[0, 0, 0]	n/a	catFR1	0	R1388T
1008.715	0.983	1086550	WORD_OFF	n/a	n/a	BULL	Farmanimals	10	6	[0, 0, 0]	n/a	catFR1	0	R1388T
1009.698	1.6	1087532	WORD	n/a	wordpools/wordpool_categorized_EN.txt	CABINET	Furniture	11	6	[0, 0, 0]	n/a	catFR1	0	R1388T
1011.315	0.966	1089147	WORD_OFF	n/a	n/a	CABINET	Furniture	11	6	[0, 0, 0]	n/a	catFR1	0	R1388T
1012.281	1.6	1090110	WORD	n/a	wordpools/wordpool_categorized_EN.txt	TABLE	Furniture	12	6	[0, 0, 0]	n/a	catFR1	0	R1388T
1013.882	0.001	1091711	PROB	7.216	n/a	n/a	n/a	-999	6	[6, 2, 2]	10.0	catFR1	0	R1388T
1013.883	0.0	1091712	START	n/a	n/a	n/a	n/a	-999	6	[-999, -999, -999]	n/a	catFR1	0	R1388T
1013.881	0.002	1091714	WORD_OFF	n/a	n/a	TABLE	Furniture	12	6	[0, 0, 0]	n/a	catFR1	0	R1388T
1013.883	0.0	1091714	ENCODING_END	n/a	n/a	n/a	n/a	-999	6	[0, 0, 0]	n/a	catFR1	0	R1388T
1013.883	7.232	1091714	DISTRACT_START	n/a	n/a	n/a	n/a	-999	6	[0, 0, 0]	n/a	catFR1	0	R1388T
1021.115	13.232	1098943	PROB	13.217	n/a	n/a	n/a	-999	6	[7, 6, 8]	20.0	catFR1	0	R1388T
1034.347	0.0	1112175	STOP	n/a	n/a	n/a	n/a	-999	6	[-999, -999, -999]	n/a	catFR1	0	R1388T
1034.347	1.017	1112177	DISTRACT_END	n/a	n/a	n/a	n/a	-999	6	[0, 0, 0]	n/a	catFR1	0	R1388T
1035.364	5.453	1113188	REC_START	n/a	n/a	n/a	n/a	-999	6	[0, 0, 0]	n/a	catFR1	0	R1388T
1040.817	1.472	1118644	REC_WORD	5.453	n/a	SOFA	Furniture	3	6	[0, 0, 0]	n/a	catFR1	0	R1388T
1042.289	1.443	1120116	REC_WORD	6.925	n/a	RECLINER	Furniture	4	6	[0, 0, 0]	n/a	catFR1	0	R1388T
1043.732	1.736	1121559	REC_WORD	8.368	n/a	REFRIGERATOR	Appliances	-999	6	[0, 0, 0]	n/a	catFR1	0	R1388T
1045.468	2.842	1123295	REC_WORD_VV	10.104	n/a	<>	n/a	-999	6	[0, 0, 0]	n/a	catFR1	0	R1388T
1048.31	2.977	1126137	REC_WORD	12.946	n/a	GOAT	Farmanimals	5	6	[0, 0, 0]	n/a	catFR1	0	R1388T
1051.287	2.788	1129114	REC_WORD_VV	15.923	n/a	<>	n/a	-999	6	[0, 0, 0]	n/a	catFR1	0	R1388T
1054.075	1.547	1131902	REC_WORD	18.711	n/a	TABLE	Furniture	12	6	[0, 0, 0]	n/a	catFR1	0	R1388T
1055.622	6.472	1133449	REC_WORD	20.258	n/a	CHAIR	n/a	-999	6	[0, 0, 0]	n/a	catFR1	0	R1388T
1062.094	0.5	1139920	REC_WORD_VV	26.73	n/a	<>	n/a	-999	6	[0, 0, 0]	n/a	catFR1	0	R1388T
1062.594	0.5	1140420	REC_WORD_VV	27.23	n/a	<>	n/a	-999	6	[0, 0, 0]	n/a	catFR1	0	R1388T
1063.094	0.5	1140920	REC_WORD_VV	27.73	n/a	<>	n/a	-999	6	[0, 0, 0]	n/a	catFR1	0	R1388T
1063.594	2.005	1141420	REC_WORD_VV	28.23	n/a	<>	n/a	-999	6	[0, 0, 0]	n/a	catFR1	0	R1388T
1065.599	22.749	1143425	REC_END	n/a	n/a	n/a	n/a	-999	6	[0, 0, 0]	n/a	catFR1	0	R1388T
1088.348	10.0	1166173	COUNTDOWN_START	n/a	n/a	n/a	n/a	-999	7	[0, 0, 0]	n/a	catFR1	0	R1388T
1098.698	0.001	1176520	COUNTDOWN_END	n/a	n/a	n/a	n/a	-999	7	[0, 0, 0]	n/a	catFR1	0	R1388T
1098.699	2.049	1176520	ENCODING_START	n/a	n/a	n/a	n/a	-999	7	[0, 0, 0]	n/a	catFR1	0	R1388T
1100.748	1.6	1178573	WORD	n/a	wordpools/wordpool_categorized_EN.txt	DRESSER	Furniture	1	7	[0, 0, 0]	n/a	catFR1	0	R1388T
1102.364	0.85	1180187	WORD_OFF	n/a	n/a	DRESSER	Furniture	1	7	[0, 0, 0]	n/a	catFR1	0	R1388T
1103.214	1.6	1181043	WORD	n/a	wordpools/wordpool_categorized_EN.txt	NIGHTSTAND	Furniture	2	7	[0, 0, 0]	n/a	catFR1	0	R1388T
1104.815	0.833	1182638	WORD_OFF	n/a	n/a	NIGHTSTAND	Furniture	2	7	[0, 0, 0]	n/a	catFR1	0	R1388T
1105.648	1.6	1183474	WORD	n/a	wordpools/wordpool_categorized_EN.txt	BEER	Beverages	3	7	[0, 0, 0]	n/a	catFR1	0	R1388T
1107.264	0.9	1185089	WORD_OFF	n/a	n/a	BEER	Beverages	3	7	[0, 0, 0]	n/a	catFR1	0	R1388T
1108.164	1.6	1185993	WORD	n/a	wordpools/wordpool_categorized_EN.txt	LEMONADE	Beverages	4	7	[0, 0, 0]	n/a	catFR1	0	R1388T
1109.764	0.967	1187588	WORD_OFF	n/a	n/a	LEMONADE	Beverages	4	7	[0, 0, 0]	n/a	catFR1	0	R1388T
1110.731	1.6	1188551	WORD	n/a	wordpools/wordpool_categorized_EN.txt	EVERGREEN	Trees	5	7	[0, 0, 0]	n/a	catFR1	0	R1388T
1112.331	0.767	1190156	WORD_OFF	n/a	n/a	EVERGREEN	Trees	5	7	[0, 0, 0]	n/a	catFR1	0	R1388T
1113.098	1.6	1190924	WORD	n/a	wordpools/wordpool_categorized_EN.txt	OAK	Trees	6	7	[0, 0, 0]	n/a	catFR1	0	R1388T
1114.715	0.849	1192538	WORD_OFF	n/a	n/a	OAK	Trees	6	7	[0, 0, 0]	n/a	catFR1	0	R1388T
1115.564	1.6	1193384	WORD	n/a	wordpools/wordpool_categorized_EN.txt	SODA	Beverages	7	7	[0, 0, 0]	n/a	catFR1	0	R1388T
1117.164	0.9	1194989	WORD_OFF	n/a	n/a	SODA	Beverages	7	7	[0, 0, 0]	n/a	catFR1	0	R1388T
1118.064	1.6	1195884	WORD	n/a	wordpools/wordpool_categorized_EN.txt	RUM	Beverages	8	7	[0, 0, 0]	n/a	catFR1	0	R1388T
1119.681	0.8	1197508	WORD_OFF	n/a	n/a	RUM	Beverages	8	7	[0, 0, 0]	n/a	catFR1	0	R1388T
1120.481	1.6	1198306	WORD	n/a	wordpools/wordpool_categorized_EN.txt	BOOKCASE	Furniture	9	7	[0, 0, 0]	n/a	catFR1	0	R1388T
1122.081	0.883	1199910	WORD_OFF	n/a	n/a	BOOKCASE	Furniture	9	7	[0, 0, 0]	n/a	catFR1	0	R1388T
1122.964	1.6	1200786	WORD	n/a	wordpools/wordpool_categorized_EN.txt	DESK	Furniture	10	7	[0, 0, 0]	n/a	catFR1	0	R1388T
1124.564	0.767	1202390	WORD_OFF	n/a	n/a	DESK	Furniture	10	7	[0, 0, 0]	n/a	catFR1	0	R1388T
1125.331	1.6	1203159	WORD	n/a	wordpools/wordpool_categorized_EN.txt	MAPLE	Trees	11	7	[0, 0, 0]	n/a	catFR1	0	R1388T
1126.947	0.884	1204773	WORD_OFF	n/a	n/a	MAPLE	Trees	11	7	[0, 0, 0]	n/a	catFR1	0	R1388T
1127.831	1.6	1205658	WORD	n/a	wordpools/wordpool_categorized_EN.txt	ELM	Trees	12	7	[0, 0, 0]	n/a	catFR1	0	R1388T
1129.431	0.002	1207253	WORD_OFF	n/a	n/a	ELM	Trees	12	7	[0, 0, 0]	n/a	catFR1	0	R1388T
1129.433	0.0	1207253	ENCODING_END	n/a	n/a	n/a	n/a	-999	7	[0, 0, 0]	n/a	catFR1	0	R1388T
1129.433	0.0	1207253	DISTRACT_START	n/a	n/a	n/a	n/a	-999	7	[0, 0, 0]	n/a	catFR1	0	R1388T
1129.432	0.001	1207255	PROB	12.149	n/a	n/a	n/a	-999	7	[3, 4, 4]	11.0	catFR1	0	R1388T
1129.433	0.0	1207256	START	n/a	n/a	n/a	n/a	-999	7	[-999, -999, -999]	n/a	catFR1	0	R1388T
