onset	duration	sample	trial_type	response_time	stim_file	item_name	category	serialpos	list	test	answer	experiment	session	subject
0.0	0.831	397059	INSTRUCT_START	n/a	n/a	n/a	n/a	-999	-999	[0, 0, 0]	n/a	catFR1	1	R1485J
0.831	29.368	397893	INSTRUCT_END	n/a	n/a	n/a	n/a	-999	-999	[0, 0, 0]	n/a	catFR1	1	R1485J
30.199	10.349	427258	COUNTDOWN_START	n/a	n/a	n/a	n/a	-999	-999	[0, 0, 0]	n/a	catFR1	1	R1485J
40.548	0.0	437606	COUNTDOWN_END	n/a	n/a	n/a	n/a	-999	-999	[0, 0, 0]	n/a	catFR1	1	R1485J
40.548	2.034	437606	ENCODING_START	n/a	n/a	n/a	n/a	-999	-1	[0, 0, 0]	n/a	catFR1	1	R1485J
42.582	1.617	439647	WORD	n/a	n/a	WALL	Building	1	-1	[0, 0, 0]	n/a	catFR1	1	R1485J
44.199	0.833	441259	WORD_OFF	n/a	n/a	WALL	Building	1	-1	[0, 0, 0]	n/a	catFR1	1	R1485J
45.032	1.6	442093	WORD	n/a	n/a	ATTIC	Building	2	-1	[0, 0, 0]	n/a	catFR1	1	R1485J
46.632	0.933	443694	WORD_OFF	n/a	n/a	ATTIC	Building	2	-1	[0, 0, 0]	n/a	catFR1	1	R1485J
47.565	1.6	444629	WORD	n/a	n/a	PEAR	Fruit	3	-1	[0, 0, 0]	n/a	catFR1	1	R1485J
49.165	0.817	446230	WORD_OFF	n/a	n/a	PEAR	Fruit	3	-1	[0, 0, 0]	n/a	catFR1	1	R1485J
49.982	1.6	447042	WORD	n/a	n/a	CHERRY	Fruit	4	-1	[0, 0, 0]	n/a	catFR1	1	R1485J
51.582	0.799	448642	WORD_OFF	n/a	n/a	CHERRY	Fruit	4	-1	[0, 0, 0]	n/a	catFR1	1	R1485J
52.381	1.6	449443	WORD	n/a	n/a	TORNADO	Weather	5	-1	[0, 0, 0]	n/a	catFR1	1	R1485J
53.981	0.934	451044	WORD_OFF	n/a	n/a	TORNADO	Weather	5	-1	[0, 0, 0]	n/a	catFR1	1	R1485J
54.915	1.616	451979	WORD	n/a	n/a	HURRICANE	Weather	6	-1	[0, 0, 0]	n/a	catFR1	1	R1485J
56.531	0.95	453591	WORD_OFF	n/a	n/a	HURRICANE	Weather	6	-1	[0, 0, 0]	n/a	catFR1	1	R1485J
57.481	1.601	454538	WORD	n/a	n/a	LEMON	Fruit	7	-1	[0, 0, 0]	n/a	catFR1	1	R1485J
59.082	0.882	456139	WORD_OFF	n/a	n/a	LEMON	Fruit	7	-1	[0, 0, 0]	n/a	catFR1	1	R1485J
59.964	1.616	457029	WORD	n/a	n/a	ORANGE	Fruit	8	-1	[0, 0, 0]	n/a	catFR1	1	R1485J
61.58	0.884	458641	WORD_OFF	n/a	n/a	ORANGE	Fruit	8	-1	[0, 0, 0]	n/a	catFR1	1	R1485J
62.464	1.601	459521	WORD	n/a	n/a	THUNDERSTORM	Weather	9	-1	[0, 0, 0]	n/a	catFR1	1	R1485J
64.065	0.849	461121	WORD_OFF	n/a	n/a	THUNDERSTORM	Weather	9	-1	[0, 0, 0]	n/a	catFR1	1	R1485J
64.914	1.601	461978	WORD	n/a	n/a	DRIZZLE	Weather	10	-1	[0, 0, 0]	n/a	catFR1	1	R1485J
66.515	0.883	463579	WORD_OFF	n/a	n/a	DRIZZLE	Weather	10	-1	[0, 0, 0]	n/a	catFR1	1	R1485J
67.398	1.602	464458	WORD	n/a	n/a	ROOM	Building	11	-1	[0, 0, 0]	n/a	catFR1	1	R1485J
69.0	0.798	466059	WORD_OFF	n/a	n/a	ROOM	Building	11	-1	[0, 0, 0]	n/a	catFR1	1	R1485J
69.798	1.617	466859	WORD	n/a	n/a	DOOR	Building	12	-1	[0, 0, 0]	n/a	catFR1	1	R1485J
71.415	0.001	468467	PROB	0.001	n/a	n/a	n/a	-999	-1	[7, 5, 5]	17	catFR1	1	R1485J
71.416	0.0	468468	START	n/a	n/a	n/a	n/a	-999	-1	[-999, -999, -999]	n/a	catFR1	1	R1485J
71.414	0.002	468471	WORD_OFF	n/a	n/a	DOOR	Building	12	-1	[0, 0, 0]	n/a	catFR1	1	R1485J
71.416	0.0	468471	ENCODING_END	n/a	n/a	n/a	n/a	-999	-1	[0, 0, 0]	n/a	catFR1	1	R1485J
71.416	4.166	468471	DISTRACT_START	n/a	n/a	n/a	n/a	-999	-1	[0, 0, 0]	n/a	catFR1	1	R1485J
75.582	4.615	472634	PROB	4.615	n/a	n/a	n/a	-999	-1	[4, 2, 8]	14	catFR1	1	R1485J
80.197	4.985	477248	PROB	4.985	n/a	n/a	n/a	-999	-1	[5, 3, 6]	14	catFR1	1	R1485J
85.182	3.216	482233	PROB	3.216	n/a	n/a	n/a	-999	-1	[6, 4, 1]	11	catFR1	1	R1485J
88.398	4.749	485449	PROB	4.749	n/a	n/a	n/a	-999	-1	[8, 4, 5]	17	catFR1	1	R1485J
93.147	0.0	490198	STOP	n/a	n/a	n/a	n/a	-999	-1	[-999, -999, -999]	n/a	catFR1	1	R1485J
93.147	2.301	490205	DISTRACT_END	n/a	n/a	n/a	n/a	-999	-1	[0, 0, 0]	n/a	catFR1	1	R1485J
95.448	1.845	492501	REC_START	n/a	n/a	n/a	n/a	-999	-1	[0, 0, 0]	n/a	catFR1	1	R1485J
97.293	1.331	494344	REC_WORD	1.331	n/a	WALL	Building	1	-1	[0, 0, 0]	n/a	catFR1	1	R1485J
98.624	1.622	495675	REC_WORD	1.622	n/a	ATTIC	Building	2	-1	[0, 0, 0]	n/a	catFR1	1	R1485J
100.246	3.549	497297	REC_WORD	3.549	n/a	THUNDERSTORM	Weather	9	-1	[0, 0, 0]	n/a	catFR1	1	R1485J
103.795	16.564	500846	REC_WORD	16.564	n/a	PEAR	Fruit	3	-1	[0, 0, 0]	n/a	catFR1	1	R1485J
120.359	5.288	517409	REC_WORD	5.288	n/a	HURRICANE	Weather	6	-1	[0, 0, 0]	n/a	catFR1	1	R1485J
125.647	15.518	522704	REC_END	n/a	n/a	n/a	n/a	-999	-1	[0, 0, 0]	n/a	catFR1	1	R1485J
141.165	10.35	538227	COUNTDOWN_START	n/a	n/a	n/a	n/a	-999	1	[0, 0, 0]	n/a	catFR1	1	R1485J
151.515	0.0	548575	COUNTDOWN_END	n/a	n/a	n/a	n/a	-999	1	[0, 0, 0]	n/a	catFR1	1	R1485J
151.515	2.166	548575	ENCODING_START	n/a	n/a	n/a	n/a	-999	1	[0, 0, 0]	n/a	catFR1	1	R1485J
153.681	1.601	550739	WORD	n/a	wordpools/wordpool_categorized_EN.txt	SHELF	Furniture	1	1	[0, 0, 0]	n/a	catFR1	1	R1485J
155.282	0.849	552340	WORD_OFF	n/a	n/a	SHELF	Furniture	1	1	[0, 0, 0]	n/a	catFR1	1	R1485J
156.131	1.617	553186	WORD	n/a	wordpools/wordpool_categorized_EN.txt	RECLINER	Furniture	2	1	[0, 0, 0]	n/a	catFR1	1	R1485J
157.748	0.999	554798	WORD_OFF	n/a	n/a	RECLINER	Furniture	2	1	[0, 0, 0]	n/a	catFR1	1	R1485J
158.747	1.6	555801	WORD	n/a	wordpools/wordpool_categorized_EN.txt	CREEK	Landscapes	3	1	[0, 0, 0]	n/a	catFR1	1	R1485J
160.347	0.935	557402	WORD_OFF	n/a	n/a	CREEK	Landscapes	3	1	[0, 0, 0]	n/a	catFR1	1	R1485J
161.282	1.616	558337	WORD	n/a	wordpools/wordpool_categorized_EN.txt	BEACH	Landscapes	4	1	[0, 0, 0]	n/a	catFR1	1	R1485J
162.898	0.966	559949	WORD_OFF	n/a	n/a	BEACH	Landscapes	4	1	[0, 0, 0]	n/a	catFR1	1	R1485J
163.864	1.6	560919	WORD	n/a	wordpools/wordpool_categorized_EN.txt	WILLOW	Trees	5	1	[0, 0, 0]	n/a	catFR1	1	R1485J
165.464	0.899	562519	WORD_OFF	n/a	n/a	WILLOW	Trees	5	1	[0, 0, 0]	n/a	catFR1	1	R1485J
166.363	1.601	563421	WORD	n/a	wordpools/wordpool_categorized_EN.txt	EVERGREEN	Trees	6	1	[0, 0, 0]	n/a	catFR1	1	R1485J
167.964	0.816	565022	WORD_OFF	n/a	n/a	EVERGREEN	Trees	6	1	[0, 0, 0]	n/a	catFR1	1	R1485J
168.78	1.601	565834	WORD	n/a	wordpools/wordpool_categorized_EN.txt	VALLEY	Landscapes	7	1	[0, 0, 0]	n/a	catFR1	1	R1485J
170.381	0.966	567434	WORD_OFF	n/a	n/a	VALLEY	Landscapes	7	1	[0, 0, 0]	n/a	catFR1	1	R1485J
171.347	1.601	568404	WORD	n/a	wordpools/wordpool_categorized_EN.txt	MOUNTAIN	Landscapes	8	1	[0, 0, 0]	n/a	catFR1	1	R1485J
172.948	1.0	570005	WORD_OFF	n/a	n/a	MOUNTAIN	Landscapes	8	1	[0, 0, 0]	n/a	catFR1	1	R1485J
173.948	1.616	570997	WORD	n/a	wordpools/wordpool_categorized_EN.txt	TABLE	Furniture	9	1	[0, 0, 0]	n/a	catFR1	1	R1485J
175.564	0.933	572620	WORD_OFF	n/a	n/a	TABLE	Furniture	9	1	[0, 0, 0]	n/a	catFR1	1	R1485J
176.497	1.601	573555	WORD	n/a	wordpools/wordpool_categorized_EN.txt	COUCH	Furniture	10	1	[0, 0, 0]	n/a	catFR1	1	R1485J
178.098	0.933	575156	WORD_OFF	n/a	n/a	COUCH	Furniture	10	1	[0, 0, 0]	n/a	catFR1	1	R1485J
179.031	1.6	576081	WORD	n/a	wordpools/wordpool_categorized_EN.txt	PINE	Trees	11	1	[0, 0, 0]	n/a	catFR1	1	R1485J
180.631	0.834	577681	WORD_OFF	n/a	n/a	PINE	Trees	11	1	[0, 0, 0]	n/a	catFR1	1	R1485J
181.465	1.616	578515	WORD	n/a	wordpools/wordpool_categorized_EN.txt	ELM	Trees	12	1	[0, 0, 0]	n/a	catFR1	1	R1485J
183.081	0.001	580128	PROB	0.001	n/a	n/a	n/a	-999	1	[7, 4, 6]	17	catFR1	1	R1485J
183.082	0.0	580129	START	n/a	n/a	n/a	n/a	-999	1	[-999, -999, -999]	n/a	catFR1	1	R1485J
183.081	0.001	580139	WORD_OFF	n/a	n/a	ELM	Trees	12	1	[0, 0, 0]	n/a	catFR1	1	R1485J
183.082	0.0	580139	ENCODING_END	n/a	n/a	n/a	n/a	-999	1	[0, 0, 0]	n/a	catFR1	1	R1485J
183.082	4.0	580139	DISTRACT_START	n/a	n/a	n/a	n/a	-999	1	[0, 0, 0]	n/a	catFR1	1	R1485J
187.082	5.049	584129	PROB	5.049	n/a	n/a	n/a	-999	1	[7, 6, 6]	19	catFR1	1	R1485J
192.131	4.284	589178	PROB	4.284	n/a	n/a	n/a	-999	1	[7, 4, 7]	18	catFR1	1	R1485J
196.415	5.383	593462	PROB	5.383	n/a	n/a	n/a	-999	1	[8, 5, 4]	17	catFR1	1	R1485J
201.798	6.833	598844	PROB	6.833	n/a	n/a	n/a	-999	1	[7, 4, 4]	15	catFR1	1	R1485J
208.631	0.0	605677	STOP	n/a	n/a	n/a	n/a	-999	1	[-999, -999, -999]	n/a	catFR1	1	R1485J
208.631	2.333	605683	DISTRACT_END	n/a	n/a	n/a	n/a	-999	1	[0, 0, 0]	n/a	catFR1	1	R1485J
210.964	1.741	608013	REC_START	n/a	n/a	n/a	n/a	-999	1	[0, 0, 0]	n/a	catFR1	1	R1485J
212.705	1.304	609751	REC_WORD	1.304	n/a	BEACH	Landscapes	4	1	[0, 0, 0]	n/a	catFR1	1	R1485J
214.009	1.717	611055	REC_WORD	1.717	n/a	ELM	Trees	12	1	[0, 0, 0]	n/a	catFR1	1	R1485J
215.726	22.52	612772	REC_WORD	22.52	n/a	WILLOW	Trees	5	1	[0, 0, 0]	n/a	catFR1	1	R1485J
238.246	2.9	635291	REC_WORD_VV	2.9	n/a	<>	n/a	-999	1	[0, 0, 0]	n/a	catFR1	1	R1485J
241.146	2.853	638193	REC_END	n/a	n/a	n/a	n/a	-999	1	[0, 0, 0]	n/a	catFR1	1	R1485J
243.999	10.349	641057	COUNTDOWN_START	n/a	n/a	n/a	n/a	-999	2	[0, 0, 0]	n/a	catFR1	1	R1485J
254.348	0.001	651405	COUNTDOWN_END	n/a	n/a	n/a	n/a	-999	2	[0, 0, 0]	n/a	catFR1	1	R1485J
254.349	2.081	651405	ENCODING_START	n/a	n/a	n/a	n/a	-999	2	[0, 0, 0]	n/a	catFR1	1	R1485J
256.43	1.602	653479	WORD	n/a	wordpools/wordpool_categorized_EN.txt	ROACH	Insects	1	2	[0, 0, 0]	n/a	catFR1	1	R1485J
258.032	0.782	655080	WORD_OFF	n/a	n/a	ROACH	Insects	1	2	[0, 0, 0]	n/a	catFR1	1	R1485J
258.814	1.6	655869	WORD	n/a	wordpools/wordpool_categorized_EN.txt	ANT	Insects	2	2	[0, 0, 0]	n/a	catFR1	1	R1485J
260.414	0.9	657470	WORD_OFF	n/a	n/a	ANT	Insects	2	2	[0, 0, 0]	n/a	catFR1	1	R1485J
261.314	1.617	658360	WORD	n/a	wordpools/wordpool_categorized_EN.txt	SPINACH	Vegetables	3	2	[0, 0, 0]	n/a	catFR1	1	R1485J
262.931	0.816	659983	WORD_OFF	n/a	n/a	SPINACH	Vegetables	3	2	[0, 0, 0]	n/a	catFR1	1	R1485J
263.747	1.617	660795	WORD	n/a	wordpools/wordpool_categorized_EN.txt	CELERY	Vegetables	4	2	[0, 0, 0]	n/a	catFR1	1	R1485J
265.364	0.868	662418	WORD_OFF	n/a	n/a	CELERY	Vegetables	4	2	[0, 0, 0]	n/a	catFR1	1	R1485J
266.232	1.616	663286	WORD	n/a	wordpools/wordpool_categorized_EN.txt	FOOTBALL	Toys	5	2	[0, 0, 0]	n/a	catFR1	1	R1485J
267.848	0.766	664898	WORD_OFF	n/a	n/a	FOOTBALL	Toys	5	2	[0, 0, 0]	n/a	catFR1	1	R1485J
268.614	1.6	665665	WORD	n/a	wordpools/wordpool_categorized_EN.txt	BALL	Toys	6	2	[0, 0, 0]	n/a	catFR1	1	R1485J
270.214	0.834	667266	WORD_OFF	n/a	n/a	BALL	Toys	6	2	[0, 0, 0]	n/a	catFR1	1	R1485J
271.048	1.615	668100	WORD	n/a	wordpools/wordpool_categorized_EN.txt	GNAT	Insects	7	2	[0, 0, 0]	n/a	catFR1	1	R1485J
272.663	0.768	669712	WORD_OFF	n/a	n/a	GNAT	Insects	7	2	[0, 0, 0]	n/a	catFR1	1	R1485J
273.431	1.617	670478	WORD	n/a	wordpools/wordpool_categorized_EN.txt	BEE	Insects	8	2	[0, 0, 0]	n/a	catFR1	1	R1485J
275.048	0.782	672102	WORD_OFF	n/a	n/a	BEE	Insects	8	2	[0, 0, 0]	n/a	catFR1	1	R1485J
275.83	1.601	672879	WORD	n/a	wordpools/wordpool_categorized_EN.txt	BROCCOLI	Vegetables	9	2	[0, 0, 0]	n/a	catFR1	1	R1485J
277.431	1.0	674480	WORD_OFF	n/a	n/a	BROCCOLI	Vegetables	9	2	[0, 0, 0]	n/a	catFR1	1	R1485J
278.431	1.601	675483	WORD	n/a	wordpools/wordpool_categorized_EN.txt	POTATO	Vegetables	10	2	[0, 0, 0]	n/a	catFR1	1	R1485J
280.032	0.883	677084	WORD_OFF	n/a	n/a	POTATO	Vegetables	10	2	[0, 0, 0]	n/a	catFR1	1	R1485J
280.915	1.616	677963	WORD	n/a	wordpools/wordpool_categorized_EN.txt	SLINKY	Toys	11	2	[0, 0, 0]	n/a	catFR1	1	R1485J
282.531	0.917	679575	WORD_OFF	n/a	n/a	SLINKY	Toys	11	2	[0, 0, 0]	n/a	catFR1	1	R1485J
283.448	1.616	680500	WORD	n/a	wordpools/wordpool_categorized_EN.txt	DOLLHOUSE	Toys	12	2	[0, 0, 0]	n/a	catFR1	1	R1485J
285.064	0.0	682107	START	n/a	n/a	n/a	n/a	-999	2	[-999, -999, -999]	n/a	catFR1	1	R1485J
285.064	0.0	682107	PROB	0.0	n/a	n/a	n/a	-999	2	[6, 2, 1]	9	catFR1	1	R1485J
285.063	0.001	682112	WORD_OFF	n/a	n/a	DOLLHOUSE	Toys	12	2	[0, 0, 0]	n/a	catFR1	1	R1485J
285.064	0.0	682112	ENCODING_END	n/a	n/a	n/a	n/a	-999	2	[0, 0, 0]	n/a	catFR1	1	R1485J
285.064	4.001	682112	DISTRACT_START	n/a	n/a	n/a	n/a	-999	2	[0, 0, 0]	n/a	catFR1	1	R1485J
289.065	5.05	686108	PROB	5.05	n/a	n/a	n/a	-999	2	[3, 6, 7]	16	catFR1	1	R1485J
294.115	6.867	691158	PROB	6.867	n/a	n/a	n/a	-999	2	[1, 8, 8]	17	catFR1	1	R1485J
300.982	17.849	698024	PROB	17.849	n/a	n/a	n/a	-999	2	[7, 8, 8]	23	catFR1	1	R1485J
318.831	0.0	715873	STOP	n/a	n/a	n/a	n/a	-999	2	[-999, -999, -999]	n/a	catFR1	1	R1485J
318.831	2.183	715885	DISTRACT_END	n/a	n/a	n/a	n/a	-999	2	[0, 0, 0]	n/a	catFR1	1	R1485J
321.014	9.133	718057	REC_START	n/a	n/a	n/a	n/a	-999	2	[0, 0, 0]	n/a	catFR1	1	R1485J
330.147	16.1	727188	REC_WORD	16.1	n/a	SPINACH	Vegetables	3	2	[0, 0, 0]	n/a	catFR1	1	R1485J
346.247	1.752	743287	REC_WORD	1.752	n/a	ANT	Insects	2	2	[0, 0, 0]	n/a	catFR1	1	R1485J
347.999	3.211	745039	REC_WORD	3.211	n/a	ROACH	Insects	1	2	[0, 0, 0]	n/a	catFR1	1	R1485J
351.21	3.321	748260	REC_END	n/a	n/a	n/a	n/a	-999	2	[0, 0, 0]	n/a	catFR1	1	R1485J
354.531	10.35	751586	COUNTDOWN_START	n/a	n/a	n/a	n/a	-999	3	[0, 0, 0]	n/a	catFR1	1	R1485J
364.881	0.0	761923	COUNTDOWN_END	n/a	n/a	n/a	n/a	-999	3	[0, 0, 0]	n/a	catFR1	1	R1485J
364.881	2.316	761934	ENCODING_START	n/a	n/a	n/a	n/a	-999	3	[0, 0, 0]	n/a	catFR1	1	R1485J
367.197	1.601	764245	WORD	n/a	wordpools/wordpool_categorized_EN.txt	LADLE	KitchenTools	1	3	[0, 0, 0]	n/a	catFR1	1	R1485J
368.798	0.899	765846	WORD_OFF	n/a	n/a	LADLE	KitchenTools	1	3	[0, 0, 0]	n/a	catFR1	1	R1485J
369.697	1.601	766747	WORD	n/a	wordpools/wordpool_categorized_EN.txt	SPATULA	KitchenTools	2	3	[0, 0, 0]	n/a	catFR1	1	R1485J
371.298	0.951	768348	WORD_OFF	n/a	n/a	SPATULA	KitchenTools	2	3	[0, 0, 0]	n/a	catFR1	1	R1485J
372.249	1.616	769295	WORD	n/a	wordpools/wordpool_categorized_EN.txt	ARM	BodyParts	3	3	[0, 0, 0]	n/a	catFR1	1	R1485J
373.865	0.849	770907	WORD_OFF	n/a	n/a	ARM	BodyParts	3	3	[0, 0, 0]	n/a	catFR1	1	R1485J
374.714	1.617	771764	WORD	n/a	wordpools/wordpool_categorized_EN.txt	EYE	BodyParts	4	3	[0, 0, 0]	n/a	catFR1	1	R1485J
376.331	0.966	773376	WORD_OFF	n/a	n/a	EYE	BodyParts	4	3	[0, 0, 0]	n/a	catFR1	1	R1485J
377.297	1.618	774345	WORD	n/a	wordpools/wordpool_categorized_EN.txt	WOOL	Fabric	5	3	[0, 0, 0]	n/a	catFR1	1	R1485J
378.915	0.932	775957	WORD_OFF	n/a	n/a	WOOL	Fabric	5	3	[0, 0, 0]	n/a	catFR1	1	R1485J
379.847	1.601	776893	WORD	n/a	wordpools/wordpool_categorized_EN.txt	SATIN	Fabric	6	3	[0, 0, 0]	n/a	catFR1	1	R1485J
381.448	0.782	778505	WORD_OFF	n/a	n/a	SATIN	Fabric	6	3	[0, 0, 0]	n/a	catFR1	1	R1485J
382.23	1.601	779271	WORD	n/a	wordpools/wordpool_categorized_EN.txt	FOOT	BodyParts	7	3	[0, 0, 0]	n/a	catFR1	1	R1485J
383.831	0.866	780872	WORD_OFF	n/a	n/a	FOOT	BodyParts	7	3	[0, 0, 0]	n/a	catFR1	1	R1485J
384.697	1.6	781740	WORD	n/a	wordpools/wordpool_categorized_EN.txt	HEAD	BodyParts	8	3	[0, 0, 0]	n/a	catFR1	1	R1485J
386.297	0.934	783341	WORD_OFF	n/a	n/a	HEAD	BodyParts	8	3	[0, 0, 0]	n/a	catFR1	1	R1485J
387.231	1.617	784276	WORD	n/a	wordpools/wordpool_categorized_EN.txt	FORK	KitchenTools	9	3	[0, 0, 0]	n/a	catFR1	1	R1485J
388.848	0.883	785888	WORD_OFF	n/a	n/a	FORK	KitchenTools	9	3	[0, 0, 0]	n/a	catFR1	1	R1485J
389.731	1.617	786779	WORD	n/a	wordpools/wordpool_categorized_EN.txt	COLANDER	KitchenTools	10	3	[0, 0, 0]	n/a	catFR1	1	R1485J
391.348	0.866	788391	WORD_OFF	n/a	n/a	COLANDER	KitchenTools	10	3	[0, 0, 0]	n/a	catFR1	1	R1485J
392.214	1.6	789259	WORD	n/a	wordpools/wordpool_categorized_EN.txt	COTTON	Fabric	11	3	[0, 0, 0]	n/a	catFR1	1	R1485J
393.814	0.783	790860	WORD_OFF	n/a	n/a	COTTON	Fabric	11	3	[0, 0, 0]	n/a	catFR1	1	R1485J
394.597	1.601	791637	WORD	n/a	wordpools/wordpool_categorized_EN.txt	LINEN	Fabric	12	3	[0, 0, 0]	n/a	catFR1	1	R1485J
396.198	0.001	793236	PROB	0.001	n/a	n/a	n/a	-999	3	[7, 2, 2]	11	catFR1	1	R1485J
396.199	0.0	793237	START	n/a	n/a	n/a	n/a	-999	3	[-999, -999, -999]	n/a	catFR1	1	R1485J
396.197	0.002	793238	WORD_OFF	n/a	n/a	LINEN	Fabric	12	3	[0, 0, 0]	n/a	catFR1	1	R1485J
396.199	0.0	793249	ENCODING_END	n/a	n/a	n/a	n/a	-999	3	[0, 0, 0]	n/a	catFR1	1	R1485J
396.199	3.816	793249	DISTRACT_START	n/a	n/a	n/a	n/a	-999	3	[0, 0, 0]	n/a	catFR1	1	R1485J
400.015	4.35	797053	PROB	4.35	n/a	n/a	n/a	-999	3	[7, 4, 2]	13	catFR1	1	R1485J
404.365	3.484	801403	PROB	3.484	n/a	n/a	n/a	-999	3	[4, 2, 2]	8	catFR1	1	R1485J
407.849	11.665	804887	PROB	11.665	n/a	n/a	n/a	-999	3	[8, 6, 1]	15	catFR1	1	R1485J
419.514	0.0	816551	STOP	n/a	n/a	n/a	n/a	-999	3	[-999, -999, -999]	n/a	catFR1	1	R1485J
419.514	2.266	816561	DISTRACT_END	n/a	n/a	n/a	n/a	-999	3	[0, 0, 0]	n/a	catFR1	1	R1485J
421.78	1.975	818824	REC_START	n/a	n/a	n/a	n/a	-999	3	[0, 0, 0]	n/a	catFR1	1	R1485J
423.755	1.595	820792	REC_WORD	1.595	n/a	LINEN	Fabric	12	3	[0, 0, 0]	n/a	catFR1	1	R1485J
425.35	1.116	822387	REC_WORD	1.116	n/a	COTTON	Fabric	11	3	[0, 0, 0]	n/a	catFR1	1	R1485J
426.466	2.377	823503	REC_WORD	2.377	n/a	WOOL	Fabric	5	3	[0, 0, 0]	n/a	catFR1	1	R1485J
428.843	1.148	825880	REC_WORD	1.148	n/a	EYE	BodyParts	4	3	[0, 0, 0]	n/a	catFR1	1	R1485J
429.991	2.012	827028	REC_WORD	2.012	n/a	HEAD	BodyParts	8	3	[0, 0, 0]	n/a	catFR1	1	R1485J
432.003	7.034	829040	REC_WORD	7.034	n/a	SPATULA	KitchenTools	2	3	[0, 0, 0]	n/a	catFR1	1	R1485J
439.037	3.262	836074	REC_WORD	3.262	n/a	ARM	BodyParts	3	3	[0, 0, 0]	n/a	catFR1	1	R1485J
442.299	9.696	839336	REC_WORD	9.696	n/a	COLANDER	KitchenTools	10	3	[0, 0, 0]	n/a	catFR1	1	R1485J
451.995	2.488	849038	REC_END	n/a	n/a	n/a	n/a	-999	3	[0, 0, 0]	n/a	catFR1	1	R1485J
454.483	10.348	851529	COUNTDOWN_START	n/a	n/a	n/a	n/a	-999	4	[0, 0, 0]	n/a	catFR1	1	R1485J
464.831	0.001	861878	COUNTDOWN_END	n/a	n/a	n/a	n/a	-999	4	[0, 0, 0]	n/a	catFR1	1	R1485J
464.832	2.317	861878	ENCODING_START	n/a	n/a	n/a	n/a	-999	4	[0, 0, 0]	n/a	catFR1	1	R1485J
467.149	1.6	864189	WORD	n/a	wordpools/wordpool_categorized_EN.txt	FUDGE	Desserts	1	4	[0, 0, 0]	n/a	catFR1	1	R1485J
468.749	0.933	865789	WORD_OFF	n/a	n/a	FUDGE	Desserts	1	4	[0, 0, 0]	n/a	catFR1	1	R1485J
469.682	1.617	866725	WORD	n/a	wordpools/wordpool_categorized_EN.txt	PUDDING	Desserts	2	4	[0, 0, 0]	n/a	catFR1	1	R1485J
471.299	0.883	868337	WORD_OFF	n/a	n/a	PUDDING	Desserts	2	4	[0, 0, 0]	n/a	catFR1	1	R1485J
472.182	1.617	869228	WORD	n/a	wordpools/wordpool_categorized_EN.txt	FLUTE	Instruments	3	4	[0, 0, 0]	n/a	catFR1	1	R1485J
473.799	0.9	870840	WORD_OFF	n/a	n/a	FLUTE	Instruments	3	4	[0, 0, 0]	n/a	catFR1	1	R1485J
474.699	1.617	871741	WORD	n/a	wordpools/wordpool_categorized_EN.txt	ORGAN	Instruments	4	4	[0, 0, 0]	n/a	catFR1	1	R1485J
476.316	0.866	873353	WORD_OFF	n/a	n/a	ORGAN	Instruments	4	4	[0, 0, 0]	n/a	catFR1	1	R1485J
477.182	1.617	874221	WORD	n/a	wordpools/wordpool_categorized_EN.txt	DRILL	Tools	5	4	[0, 0, 0]	n/a	catFR1	1	R1485J
478.799	0.783	875845	WORD_OFF	n/a	n/a	DRILL	Tools	5	4	[0, 0, 0]	n/a	catFR1	1	R1485J
479.582	1.617	876623	WORD	n/a	wordpools/wordpool_categorized_EN.txt	RATCHET	Tools	6	4	[0, 0, 0]	n/a	catFR1	1	R1485J
481.199	0.816	878246	WORD_OFF	n/a	n/a	RATCHET	Tools	6	4	[0, 0, 0]	n/a	catFR1	1	R1485J
482.015	1.601	879057	WORD	n/a	wordpools/wordpool_categorized_EN.txt	BANJO	Instruments	7	4	[0, 0, 0]	n/a	catFR1	1	R1485J
483.616	0.815	880658	WORD_OFF	n/a	n/a	BANJO	Instruments	7	4	[0, 0, 0]	n/a	catFR1	1	R1485J
484.431	1.601	881470	WORD	n/a	wordpools/wordpool_categorized_EN.txt	PIANO	Instruments	8	4	[0, 0, 0]	n/a	catFR1	1	R1485J
486.032	0.95	883071	WORD_OFF	n/a	n/a	PIANO	Instruments	8	4	[0, 0, 0]	n/a	catFR1	1	R1485J
486.982	1.617	884029	WORD	n/a	wordpools/wordpool_categorized_EN.txt	COOKIE	Desserts	9	4	[0, 0, 0]	n/a	catFR1	1	R1485J
488.599	0.85	885641	WORD_OFF	n/a	n/a	COOKIE	Desserts	9	4	[0, 0, 0]	n/a	catFR1	1	R1485J
489.449	1.617	886486	WORD	n/a	wordpools/wordpool_categorized_EN.txt	BROWNIES	Desserts	10	4	[0, 0, 0]	n/a	catFR1	1	R1485J
491.066	0.8	888109	WORD_OFF	n/a	n/a	BROWNIES	Desserts	10	4	[0, 0, 0]	n/a	catFR1	1	R1485J
491.866	1.6	888910	WORD	n/a	wordpools/wordpool_categorized_EN.txt	HAMMER	Tools	11	4	[0, 0, 0]	n/a	catFR1	1	R1485J
493.466	0.85	890511	WORD_OFF	n/a	n/a	HAMMER	Tools	11	4	[0, 0, 0]	n/a	catFR1	1	R1485J
494.316	1.616	891356	WORD	n/a	wordpools/wordpool_categorized_EN.txt	LEVEL	Tools	12	4	[0, 0, 0]	n/a	catFR1	1	R1485J
495.932	0.002	892966	PROB	0.002	n/a	n/a	n/a	-999	4	[8, 3, 4]	15	catFR1	1	R1485J
495.934	0.0	892968	START	n/a	n/a	n/a	n/a	-999	4	[-999, -999, -999]	n/a	catFR1	1	R1485J
495.931	0.003	892979	WORD_OFF	n/a	n/a	LEVEL	Tools	12	4	[0, 0, 0]	n/a	catFR1	1	R1485J
495.934	0.0	892979	ENCODING_END	n/a	n/a	n/a	n/a	-999	4	[0, 0, 0]	n/a	catFR1	1	R1485J
495.934	7.099	892979	DISTRACT_START	n/a	n/a	n/a	n/a	-999	4	[0, 0, 0]	n/a	catFR1	1	R1485J
503.033	9.282	900067	PROB	9.282	n/a	n/a	n/a	-999	4	[6, 8, 8]	22	catFR1	1	R1485J
512.315	3.817	909349	PROB	3.817	n/a	n/a	n/a	-999	4	[8, 7, 2]	17	catFR1	1	R1485J
516.132	0.0	913165	STOP	n/a	n/a	n/a	n/a	-999	4	[-999, -999, -999]	n/a	catFR1	1	R1485J
516.132	2.265	913169	DISTRACT_END	n/a	n/a	n/a	n/a	-999	4	[0, 0, 0]	n/a	catFR1	1	R1485J
518.397	1.411	915442	REC_START	n/a	n/a	n/a	n/a	-999	4	[0, 0, 0]	n/a	catFR1	1	R1485J
519.808	1.549	916841	REC_WORD	1.549	n/a	FUDGE	Desserts	1	4	[0, 0, 0]	n/a	catFR1	1	R1485J
521.357	1.737	918390	REC_WORD	1.737	n/a	PUDDING	Desserts	2	4	[0, 0, 0]	n/a	catFR1	1	R1485J
523.094	10.034	920127	REC_WORD	10.034	n/a	BROWNIES	Desserts	10	4	[0, 0, 0]	n/a	catFR1	1	R1485J
533.128	15.478	930161	REC_WORD	15.478	n/a	FLUTE	Instruments	3	4	[0, 0, 0]	n/a	catFR1	1	R1485J
548.606	2.792	945645	REC_END	n/a	n/a	n/a	n/a	-999	4	[0, 0, 0]	n/a	catFR1	1	R1485J
551.398	10.35	948441	COUNTDOWN_START	n/a	n/a	n/a	n/a	-999	5	[0, 0, 0]	n/a	catFR1	1	R1485J
561.748	0.0	958789	COUNTDOWN_END	n/a	n/a	n/a	n/a	-999	5	[0, 0, 0]	n/a	catFR1	1	R1485J
561.748	1.983	958789	ENCODING_START	n/a	n/a	n/a	n/a	-999	5	[0, 0, 0]	n/a	catFR1	1	R1485J
563.731	1.6	960773	WORD	n/a	wordpools/wordpool_categorized_EN.txt	BINDER	OfficeSupplies	1	5	[0, 0, 0]	n/a	catFR1	1	R1485J
565.331	0.95	962374	WORD_OFF	n/a	n/a	BINDER	OfficeSupplies	1	5	[0, 0, 0]	n/a	catFR1	1	R1485J
566.281	1.616	963321	WORD	n/a	wordpools/wordpool_categorized_EN.txt	RULER	OfficeSupplies	2	5	[0, 0, 0]	n/a	catFR1	1	R1485J
567.897	0.966	964933	WORD_OFF	n/a	n/a	RULER	OfficeSupplies	2	5	[0, 0, 0]	n/a	catFR1	1	R1485J
568.863	1.602	965902	WORD	n/a	wordpools/wordpool_categorized_EN.txt	CELLO	Instruments	3	5	[0, 0, 0]	n/a	catFR1	1	R1485J
570.465	0.866	967503	WORD_OFF	n/a	n/a	CELLO	Instruments	3	5	[0, 0, 0]	n/a	catFR1	1	R1485J
571.331	1.6	968371	WORD	n/a	wordpools/wordpool_categorized_EN.txt	TROMBONE	Instruments	4	5	[0, 0, 0]	n/a	catFR1	1	R1485J
572.931	0.883	969972	WORD_OFF	n/a	n/a	TROMBONE	Instruments	4	5	[0, 0, 0]	n/a	catFR1	1	R1485J
573.814	1.617	970851	WORD	n/a	wordpools/wordpool_categorized_EN.txt	COLA	Beverages	5	5	[0, 0, 0]	n/a	catFR1	1	R1485J
575.431	0.917	972463	WORD_OFF	n/a	n/a	COLA	Beverages	5	5	[0, 0, 0]	n/a	catFR1	1	R1485J
576.348	1.601	973388	WORD	n/a	wordpools/wordpool_categorized_EN.txt	JUICE	Beverages	6	5	[0, 0, 0]	n/a	catFR1	1	R1485J
577.949	0.815	974988	WORD_OFF	n/a	n/a	JUICE	Beverages	6	5	[0, 0, 0]	n/a	catFR1	1	R1485J
578.764	1.617	975800	WORD	n/a	wordpools/wordpool_categorized_EN.txt	ERASER	OfficeSupplies	7	5	[0, 0, 0]	n/a	catFR1	1	R1485J
580.381	0.951	977423	WORD_OFF	n/a	n/a	ERASER	OfficeSupplies	7	5	[0, 0, 0]	n/a	catFR1	1	R1485J
581.332	1.616	978370	WORD	n/a	wordpools/wordpool_categorized_EN.txt	PENCIL	OfficeSupplies	8	5	[0, 0, 0]	n/a	catFR1	1	R1485J
582.948	0.816	979982	WORD_OFF	n/a	n/a	PENCIL	OfficeSupplies	8	5	[0, 0, 0]	n/a	catFR1	1	R1485J
583.764	1.616	980805	WORD	n/a	wordpools/wordpool_categorized_EN.txt	BASS	Instruments	9	5	[0, 0, 0]	n/a	catFR1	1	R1485J
585.38	0.9	982417	WORD_OFF	n/a	n/a	BASS	Instruments	9	5	[0, 0, 0]	n/a	catFR1	1	R1485J
586.28	1.618	983319	WORD	n/a	wordpools/wordpool_categorized_EN.txt	TRUMPET	Instruments	10	5	[0, 0, 0]	n/a	catFR1	1	R1485J
587.898	0.884	984931	WORD_OFF	n/a	n/a	TRUMPET	Instruments	10	5	[0, 0, 0]	n/a	catFR1	1	R1485J
588.782	1.616	985821	WORD	n/a	wordpools/wordpool_categorized_EN.txt	WATER	Beverages	11	5	[0, 0, 0]	n/a	catFR1	1	R1485J
590.398	0.917	987433	WORD_OFF	n/a	n/a	WATER	Beverages	11	5	[0, 0, 0]	n/a	catFR1	1	R1485J
591.315	1.617	988358	WORD	n/a	wordpools/wordpool_categorized_EN.txt	RUM	Beverages	12	5	[0, 0, 0]	n/a	catFR1	1	R1485J
592.932	0.0	989962	START	n/a	n/a	n/a	n/a	-999	5	[-999, -999, -999]	n/a	catFR1	1	R1485J
592.932	0.0	989962	PROB	0.0	n/a	n/a	n/a	-999	5	[8, 8, 5]	21	catFR1	1	R1485J
592.931	0.001	989970	WORD_OFF	n/a	n/a	RUM	Beverages	12	5	[0, 0, 0]	n/a	catFR1	1	R1485J
592.932	0.0	989970	ENCODING_END	n/a	n/a	n/a	n/a	-999	5	[0, 0, 0]	n/a	catFR1	1	R1485J
592.932	7.117	989970	DISTRACT_START	n/a	n/a	n/a	n/a	-999	5	[0, 0, 0]	n/a	catFR1	1	R1485J
600.049	4.966	997079	PROB	4.966	n/a	n/a	n/a	-999	5	[2, 1, 4]	7	catFR1	1	R1485J
605.015	8.865	1002045	PROB	8.865	n/a	n/a	n/a	-999	5	[6, 5, 7]	18	catFR1	1	R1485J
613.88	0.0	1010909	STOP	n/a	n/a	n/a	n/a	-999	5	[-999, -999, -999]	n/a	catFR1	1	R1485J
613.88	2.151	1010914	DISTRACT_END	n/a	n/a	n/a	n/a	-999	5	[0, 0, 0]	n/a	catFR1	1	R1485J
616.031	30.015	1013064	REC_START	n/a	n/a	n/a	n/a	-999	5	[0, 0, 0]	n/a	catFR1	1	R1485J
646.046	0.203	1043074	REC_WORD_VV	0.203	n/a	<>	n/a	-999	5	[0, 0, 0]	n/a	catFR1	1	R1485J
646.249	2.567	1043278	REC_END	n/a	n/a	n/a	n/a	-999	5	[0, 0, 0]	n/a	catFR1	1	R1485J
648.816	10.35	1045849	COUNTDOWN_START	n/a	n/a	n/a	n/a	-999	6	[0, 0, 0]	n/a	catFR1	1	R1485J
659.166	0.0	1056197	COUNTDOWN_END	n/a	n/a	n/a	n/a	-999	6	[0, 0, 0]	n/a	catFR1	1	R1485J
659.166	2.167	1056197	ENCODING_START	n/a	n/a	n/a	n/a	-999	6	[0, 0, 0]	n/a	catFR1	1	R1485J
661.333	1.6	1058361	WORD	n/a	wordpools/wordpool_categorized_EN.txt	PRINTER	Electronics	1	6	[0, 0, 0]	n/a	catFR1	1	R1485J
662.933	0.766	1059962	WORD_OFF	n/a	n/a	PRINTER	Electronics	1	6	[0, 0, 0]	n/a	catFR1	1	R1485J
663.699	1.616	1060729	WORD	n/a	wordpools/wordpool_categorized_EN.txt	TABLET	Electronics	2	6	[0, 0, 0]	n/a	catFR1	1	R1485J
665.315	1.001	1062352	WORD_OFF	n/a	n/a	TABLET	Electronics	2	6	[0, 0, 0]	n/a	catFR1	1	R1485J
666.316	1.616	1063355	WORD	n/a	wordpools/wordpool_categorized_EN.txt	CIDER	Beverages	3	6	[0, 0, 0]	n/a	catFR1	1	R1485J
667.932	0.767	1064967	WORD_OFF	n/a	n/a	CIDER	Beverages	3	6	[0, 0, 0]	n/a	catFR1	1	R1485J
668.699	1.617	1065734	WORD	n/a	wordpools/wordpool_categorized_EN.txt	WINE	Beverages	4	6	[0, 0, 0]	n/a	catFR1	1	R1485J
670.316	0.95	1067346	WORD_OFF	n/a	n/a	WINE	Beverages	4	6	[0, 0, 0]	n/a	catFR1	1	R1485J
671.266	1.616	1068304	WORD	n/a	wordpools/wordpool_categorized_EN.txt	SPRUCE	Trees	5	6	[0, 0, 0]	n/a	catFR1	1	R1485J
672.882	0.764	1069916	WORD_OFF	n/a	n/a	SPRUCE	Trees	5	6	[0, 0, 0]	n/a	catFR1	1	R1485J
673.646	1.603	1070682	WORD	n/a	wordpools/wordpool_categorized_EN.txt	CEDAR	Trees	6	6	[0, 0, 0]	n/a	catFR1	1	R1485J
675.249	0.95	1072283	WORD_OFF	n/a	n/a	CEDAR	Trees	6	6	[0, 0, 0]	n/a	catFR1	1	R1485J
676.199	1.6	1073230	WORD	n/a	wordpools/wordpool_categorized_EN.txt	STEREO	Electronics	7	6	[0, 0, 0]	n/a	catFR1	1	R1485J
677.799	0.85	1074831	WORD_OFF	n/a	n/a	STEREO	Electronics	7	6	[0, 0, 0]	n/a	catFR1	1	R1485J
678.649	1.6	1075687	WORD	n/a	wordpools/wordpool_categorized_EN.txt	COMPUTER	Electronics	8	6	[0, 0, 0]	n/a	catFR1	1	R1485J
680.249	0.817	1077277	WORD_OFF	n/a	n/a	COMPUTER	Electronics	8	6	[0, 0, 0]	n/a	catFR1	1	R1485J
681.066	1.6	1078100	WORD	n/a	wordpools/wordpool_categorized_EN.txt	WALNUT	Trees	9	6	[0, 0, 0]	n/a	catFR1	1	R1485J
682.666	0.966	1079701	WORD_OFF	n/a	n/a	WALNUT	Trees	9	6	[0, 0, 0]	n/a	catFR1	1	R1485J
683.632	1.6	1080670	WORD	n/a	wordpools/wordpool_categorized_EN.txt	OAK	Trees	10	6	[0, 0, 0]	n/a	catFR1	1	R1485J
685.232	0.85	1082271	WORD_OFF	n/a	n/a	OAK	Trees	10	6	[0, 0, 0]	n/a	catFR1	1	R1485J
686.082	1.6	1083116	WORD	n/a	wordpools/wordpool_categorized_EN.txt	BEER	Beverages	11	6	[0, 0, 0]	n/a	catFR1	1	R1485J
687.682	0.967	1084717	WORD_OFF	n/a	n/a	BEER	Beverages	11	6	[0, 0, 0]	n/a	catFR1	1	R1485J
688.649	1.616	1085686	WORD	n/a	wordpools/wordpool_categorized_EN.txt	SODA	Beverages	12	6	[0, 0, 0]	n/a	catFR1	1	R1485J
690.265	0.0	1087291	START	n/a	n/a	n/a	n/a	-999	6	[-999, -999, -999]	n/a	catFR1	1	R1485J
690.265	0.0	1087291	PROB	0.0	n/a	n/a	n/a	-999	6	[8, 7, 5]	20	catFR1	1	R1485J
690.264	0.001	1087298	WORD_OFF	n/a	n/a	SODA	Beverages	12	6	[0, 0, 0]	n/a	catFR1	1	R1485J
690.265	0.0	1087298	ENCODING_END	n/a	n/a	n/a	n/a	-999	6	[0, 0, 0]	n/a	catFR1	1	R1485J
690.265	10.701	1087298	DISTRACT_START	n/a	n/a	n/a	n/a	-999	6	[0, 0, 0]	n/a	catFR1	1	R1485J
700.966	5.9	1097992	PROB	5.9	n/a	n/a	n/a	-999	6	[6, 3, 7]	16	catFR1	1	R1485J
706.866	3.9	1103892	PROB	3.9	n/a	n/a	n/a	-999	6	[7, 8, 7]	22	catFR1	1	R1485J
710.766	0.0	1107791	STOP	n/a	n/a	n/a	n/a	-999	6	[-999, -999, -999]	n/a	catFR1	1	R1485J
710.766	2.316	1107803	DISTRACT_END	n/a	n/a	n/a	n/a	-999	6	[0, 0, 0]	n/a	catFR1	1	R1485J
713.082	0.957	1110111	REC_START	n/a	n/a	n/a	n/a	-999	6	[0, 0, 0]	n/a	catFR1	1	R1485J
714.039	1.6	1111064	REC_WORD	1.6	n/a	CIDER	Beverages	3	6	[0, 0, 0]	n/a	catFR1	1	R1485J
715.639	1.826	1112664	REC_WORD	1.826	n/a	COLA	Beverages	-999	6	[0, 0, 0]	n/a	catFR1	1	R1485J
717.465	2.785	1114490	REC_WORD	2.785	n/a	WINE	Beverages	4	6	[0, 0, 0]	n/a	catFR1	1	R1485J
720.25	23.037	1117275	REC_WORD	23.037	n/a	BEER	Beverages	11	6	[0, 0, 0]	n/a	catFR1	1	R1485J
743.287	12.244	1140314	REC_END	n/a	n/a	n/a	n/a	-999	6	[0, 0, 0]	n/a	catFR1	1	R1485J
755.531	10.349	1152567	COUNTDOWN_START	n/a	n/a	n/a	n/a	-999	7	[0, 0, 0]	n/a	catFR1	1	R1485J
765.88	0.0	1162905	COUNTDOWN_END	n/a	n/a	n/a	n/a	-999	7	[0, 0, 0]	n/a	catFR1	1	R1485J
765.88	2.018	1162916	ENCODING_START	n/a	n/a	n/a	n/a	-999	7	[0, 0, 0]	n/a	catFR1	1	R1485J
767.898	1.615	1164922	WORD	n/a	wordpools/wordpool_categorized_EN.txt	HICKORY	Trees	1	7	[0, 0, 0]	n/a	catFR1	1	R1485J
769.513	0.951	1166546	WORD_OFF	n/a	n/a	HICKORY	Trees	1	7	[0, 0, 0]	n/a	catFR1	1	R1485J
770.464	1.616	1167492	WORD	n/a	wordpools/wordpool_categorized_EN.txt	CYPRESS	Trees	2	7	[0, 0, 0]	n/a	catFR1	1	R1485J
772.08	0.884	1169104	WORD_OFF	n/a	n/a	CYPRESS	Trees	2	7	[0, 0, 0]	n/a	catFR1	1	R1485J
772.964	1.617	1169995	WORD	n/a	wordpools/wordpool_categorized_EN.txt	SANDER	Tools	3	7	[0, 0, 0]	n/a	catFR1	1	R1485J
774.581	0.95	1171607	WORD_OFF	n/a	n/a	SANDER	Tools	3	7	[0, 0, 0]	n/a	catFR1	1	R1485J
775.531	1.6	1172565	WORD	n/a	wordpools/wordpool_categorized_EN.txt	CROWBAR	Tools	4	7	[0, 0, 0]	n/a	catFR1	1	R1485J
777.131	0.816	1174166	WORD_OFF	n/a	n/a	CROWBAR	Tools	4	7	[0, 0, 0]	n/a	catFR1	1	R1485J
777.947	1.617	1174978	WORD	n/a	wordpools/wordpool_categorized_EN.txt	MOTH	Insects	5	7	[0, 0, 0]	n/a	catFR1	1	R1485J
779.564	0.8	1176590	WORD_OFF	n/a	n/a	MOTH	Insects	5	7	[0, 0, 0]	n/a	catFR1	1	R1485J
780.364	1.6	1177390	WORD	n/a	wordpools/wordpool_categorized_EN.txt	MOSQUITO	Insects	6	7	[0, 0, 0]	n/a	catFR1	1	R1485J
781.964	0.884	1178991	WORD_OFF	n/a	n/a	MOSQUITO	Insects	6	7	[0, 0, 0]	n/a	catFR1	1	R1485J
782.848	1.599	1179881	WORD	n/a	wordpools/wordpool_categorized_EN.txt	WRENCH	Tools	7	7	[0, 0, 0]	n/a	catFR1	1	R1485J
784.447	0.899	1181482	WORD_OFF	n/a	n/a	WRENCH	Tools	7	7	[0, 0, 0]	n/a	catFR1	1	R1485J
785.346	1.602	1182372	WORD	n/a	wordpools/wordpool_categorized_EN.txt	PLIERS	Tools	8	7	[0, 0, 0]	n/a	catFR1	1	R1485J
786.948	0.916	1183973	WORD_OFF	n/a	n/a	PLIERS	Tools	8	7	[0, 0, 0]	n/a	catFR1	1	R1485J
787.864	1.6	1184898	WORD	n/a	wordpools/wordpool_categorized_EN.txt	BEETLE	Insects	9	7	[0, 0, 0]	n/a	catFR1	1	R1485J
789.464	0.869	1186498	WORD_OFF	n/a	n/a	BEETLE	Insects	9	7	[0, 0, 0]	n/a	catFR1	1	R1485J
790.333	1.615	1187366	WORD	n/a	wordpools/wordpool_categorized_EN.txt	SPIDER	Insects	10	7	[0, 0, 0]	n/a	catFR1	1	R1485J
791.948	0.883	1188978	WORD_OFF	n/a	n/a	SPIDER	Insects	10	7	[0, 0, 0]	n/a	catFR1	1	R1485J
792.831	1.617	1189858	WORD	n/a	wordpools/wordpool_categorized_EN.txt	BIRCH	Trees	11	7	[0, 0, 0]	n/a	catFR1	1	R1485J
794.448	0.983	1191481	WORD_OFF	n/a	n/a	BIRCH	Trees	11	7	[0, 0, 0]	n/a	catFR1	1	R1485J
795.431	1.617	1192462	WORD	n/a	wordpools/wordpool_categorized_EN.txt	MAPLE	Trees	12	7	[0, 0, 0]	n/a	catFR1	1	R1485J
797.048	0.0	1194070	START	n/a	n/a	n/a	n/a	-999	7	[-999, -999, -999]	n/a	catFR1	1	R1485J
797.048	0.0	1194070	PROB	0.0	n/a	n/a	n/a	-999	7	[8, 4, 8]	20	catFR1	1	R1485J
797.047	0.001	1194074	WORD_OFF	n/a	n/a	MAPLE	Trees	12	7	[0, 0, 0]	n/a	catFR1	1	R1485J
797.048	0.0	1194074	ENCODING_END	n/a	n/a	n/a	n/a	-999	7	[0, 0, 0]	n/a	catFR1	1	R1485J
797.048	8.7	1194074	DISTRACT_START	n/a	n/a	n/a	n/a	-999	7	[0, 0, 0]	n/a	catFR1	1	R1485J
805.748	3.55	1202769	PROB	3.55	n/a	n/a	n/a	-999	7	[5, 1, 6]	12	catFR1	1	R1485J
809.298	8.366	1206319	PROB	8.366	n/a	n/a	n/a	-999	7	[3, 5, 6]	14	catFR1	1	R1485J
817.664	0.0	1214685	STOP	n/a	n/a	n/a	n/a	-999	7	[-999, -999, -999]	n/a	catFR1	1	R1485J
817.664	2.316	1214691	DISTRACT_END	n/a	n/a	n/a	n/a	-999	7	[0, 0, 0]	n/a	catFR1	1	R1485J
819.98	5.032	1217010	REC_START	n/a	n/a	n/a	n/a	-999	7	[0, 0, 0]	n/a	catFR1	1	R1485J
825.012	2.284	1222033	REC_WORD	2.284	n/a	SANDER	Tools	3	7	[0, 0, 0]	n/a	catFR1	1	R1485J
827.296	22.885	1224317	REC_WORD	22.885	n/a	HICKORY	Trees	1	7	[0, 0, 0]	n/a	catFR1	1	R1485J
850.181	2.217	1247213	REC_END	n/a	n/a	n/a	n/a	-999	7	[0, 0, 0]	n/a	catFR1	1	R1485J
852.398	10.35	1249423	COUNTDOWN_START	n/a	n/a	n/a	n/a	-999	8	[0, 0, 0]	n/a	catFR1	1	R1485J
862.748	0.0	1259771	COUNTDOWN_END	n/a	n/a	n/a	n/a	-999	8	[0, 0, 0]	n/a	catFR1	1	R1485J
862.748	1.917	1259771	ENCODING_START	n/a	n/a	n/a	n/a	-999	8	[0, 0, 0]	n/a	catFR1	1	R1485J
864.665	1.6	1261687	WORD	n/a	wordpools/wordpool_categorized_EN.txt	HEN	FarmAnimals	1	8	[0, 0, 0]	n/a	catFR1	1	R1485J
866.265	0.833	1263288	WORD_OFF	n/a	n/a	HEN	FarmAnimals	1	8	[0, 0, 0]	n/a	catFR1	1	R1485J
867.098	1.6	1264122	WORD	n/a	wordpools/wordpool_categorized_EN.txt	PIG	FarmAnimals	2	8	[0, 0, 0]	n/a	catFR1	1	R1485J
868.698	0.901	1265723	WORD_OFF	n/a	n/a	PIG	FarmAnimals	2	8	[0, 0, 0]	n/a	catFR1	1	R1485J
869.599	1.6	1266625	WORD	n/a	wordpools/wordpool_categorized_EN.txt	FISH	OceanAnimals	3	8	[0, 0, 0]	n/a	catFR1	1	R1485J
871.199	0.8	1268225	WORD_OFF	n/a	n/a	FISH	OceanAnimals	3	8	[0, 0, 0]	n/a	catFR1	1	R1485J
871.999	1.617	1269026	WORD	n/a	wordpools/wordpool_categorized_EN.txt	DOLPHIN	OceanAnimals	4	8	[0, 0, 0]	n/a	catFR1	1	R1485J
873.616	0.783	1270638	WORD_OFF	n/a	n/a	DOLPHIN	OceanAnimals	4	8	[0, 0, 0]	n/a	catFR1	1	R1485J
874.399	1.6	1271427	WORD	n/a	wordpools/wordpool_categorized_EN.txt	STRAWBERRY	Fruit	5	8	[0, 0, 0]	n/a	catFR1	1	R1485J
875.999	0.933	1273028	WORD_OFF	n/a	n/a	STRAWBERRY	Fruit	5	8	[0, 0, 0]	n/a	catFR1	1	R1485J
876.932	1.6	1273963	WORD	n/a	wordpools/wordpool_categorized_EN.txt	PLUM	Fruit	6	8	[0, 0, 0]	n/a	catFR1	1	R1485J
878.532	0.766	1275553	WORD_OFF	n/a	n/a	PLUM	Fruit	6	8	[0, 0, 0]	n/a	catFR1	1	R1485J
879.298	1.601	1276319	WORD	n/a	wordpools/wordpool_categorized_EN.txt	GOAT	FarmAnimals	7	8	[0, 0, 0]	n/a	catFR1	1	R1485J
880.899	0.982	1277920	WORD_OFF	n/a	n/a	GOAT	FarmAnimals	7	8	[0, 0, 0]	n/a	catFR1	1	R1485J
881.881	1.601	1278901	WORD	n/a	wordpools/wordpool_categorized_EN.txt	LAMB	FarmAnimals	8	8	[0, 0, 0]	n/a	catFR1	1	R1485J
883.482	0.933	1280501	WORD_OFF	n/a	n/a	LAMB	FarmAnimals	8	8	[0, 0, 0]	n/a	catFR1	1	R1485J
884.415	1.601	1281437	WORD	n/a	wordpools/wordpool_categorized_EN.txt	LIME	Fruit	9	8	[0, 0, 0]	n/a	catFR1	1	R1485J
886.016	0.898	1283038	WORD_OFF	n/a	n/a	LIME	Fruit	9	8	[0, 0, 0]	n/a	catFR1	1	R1485J
886.914	1.602	1283940	WORD	n/a	wordpools/wordpool_categorized_EN.txt	APPLE	Fruit	10	8	[0, 0, 0]	n/a	catFR1	1	R1485J
888.516	0.916	1285540	WORD_OFF	n/a	n/a	APPLE	Fruit	10	8	[0, 0, 0]	n/a	catFR1	1	R1485J
889.432	1.599	1286453	WORD	n/a	wordpools/wordpool_categorized_EN.txt	PLANKTON	OceanAnimals	11	8	[0, 0, 0]	n/a	catFR1	1	R1485J
891.031	0.967	1288054	WORD_OFF	n/a	n/a	PLANKTON	OceanAnimals	11	8	[0, 0, 0]	n/a	catFR1	1	R1485J
891.998	1.602	1289024	WORD	n/a	wordpools/wordpool_categorized_EN.txt	SQUID	OceanAnimals	12	8	[0, 0, 0]	n/a	catFR1	1	R1485J
893.6	0.001	1290618	PROB	0.001	n/a	n/a	n/a	-999	8	[4, 5, 3]	12	catFR1	1	R1485J
893.601	0.0	1290619	START	n/a	n/a	n/a	n/a	-999	8	[-999, -999, -999]	n/a	catFR1	1	R1485J
893.599	0.002	1290624	WORD_OFF	n/a	n/a	SQUID	OceanAnimals	12	8	[0, 0, 0]	n/a	catFR1	1	R1485J
893.601	0.0	1290624	ENCODING_END	n/a	n/a	n/a	n/a	-999	8	[0, 0, 0]	n/a	catFR1	1	R1485J
893.601	5.582	1290624	DISTRACT_START	n/a	n/a	n/a	n/a	-999	8	[0, 0, 0]	n/a	catFR1	1	R1485J
899.183	3.434	1296201	PROB	3.434	n/a	n/a	n/a	-999	8	[8, 7, 3]	18	catFR1	1	R1485J
902.617	5.383	1299634	PROB	5.383	n/a	n/a	n/a	-999	8	[7, 8, 6]	21	catFR1	1	R1485J
908.0	5.482	1305017	PROB	5.482	n/a	n/a	n/a	-999	8	[1, 6, 5]	12	catFR1	1	R1485J
913.482	7.3	1310499	PROB	7.3	n/a	n/a	n/a	-999	8	[7, 1, 7]	15	catFR1	1	R1485J
920.782	0.0	1317799	STOP	n/a	n/a	n/a	n/a	-999	8	[-999, -999, -999]	n/a	catFR1	1	R1485J
920.782	2.349	1317803	DISTRACT_END	n/a	n/a	n/a	n/a	-999	8	[0, 0, 0]	n/a	catFR1	1	R1485J
923.131	30.016	1320156	REC_START	n/a	n/a	n/a	n/a	-999	8	[0, 0, 0]	n/a	catFR1	1	R1485J
953.147	0.215	1350162	REC_WORD_VV	0.215	n/a	<>	n/a	-999	8	[0, 0, 0]	n/a	catFR1	1	R1485J
953.362	3.787	1350381	REC_END	n/a	n/a	n/a	n/a	-999	8	[0, 0, 0]	n/a	catFR1	1	R1485J
957.149	10.35	1354169	COUNTDOWN_START	n/a	n/a	n/a	n/a	-999	9	[0, 0, 0]	n/a	catFR1	1	R1485J
967.499	0.0	1364517	COUNTDOWN_END	n/a	n/a	n/a	n/a	-999	9	[0, 0, 0]	n/a	catFR1	1	R1485J
967.499	1.85	1364517	ENCODING_START	n/a	n/a	n/a	n/a	-999	9	[0, 0, 0]	n/a	catFR1	1	R1485J
969.349	1.6	1366366	WORD	n/a	wordpools/wordpool_categorized_EN.txt	FLY	Insects	1	9	[0, 0, 0]	n/a	catFR1	1	R1485J
970.949	0.983	1367967	WORD_OFF	n/a	n/a	FLY	Insects	1	9	[0, 0, 0]	n/a	catFR1	1	R1485J
971.932	1.6	1368959	WORD	n/a	wordpools/wordpool_categorized_EN.txt	LADYBUG	Insects	2	9	[0, 0, 0]	n/a	catFR1	1	R1485J
973.532	0.815	1370559	WORD_OFF	n/a	n/a	LADYBUG	Insects	2	9	[0, 0, 0]	n/a	catFR1	1	R1485J
974.347	1.601	1371371	WORD	n/a	wordpools/wordpool_categorized_EN.txt	TUBA	Instruments	3	9	[0, 0, 0]	n/a	catFR1	1	R1485J
975.948	0.784	1372972	WORD_OFF	n/a	n/a	TUBA	Instruments	3	9	[0, 0, 0]	n/a	catFR1	1	R1485J
976.732	1.6	1373749	WORD	n/a	wordpools/wordpool_categorized_EN.txt	DRUM	Instruments	4	9	[0, 0, 0]	n/a	catFR1	1	R1485J
978.332	0.8	1375350	WORD_OFF	n/a	n/a	DRUM	Instruments	4	9	[0, 0, 0]	n/a	catFR1	1	R1485J
979.132	1.617	1376151	WORD	n/a	wordpools/wordpool_categorized_EN.txt	BANANA	Fruit	5	9	[0, 0, 0]	n/a	catFR1	1	R1485J
980.749	0.883	1377774	WORD_OFF	n/a	n/a	BANANA	Fruit	5	9	[0, 0, 0]	n/a	catFR1	1	R1485J
981.632	1.6	1378653	WORD	n/a	wordpools/wordpool_categorized_EN.txt	BLUEBERRY	Fruit	6	9	[0, 0, 0]	n/a	catFR1	1	R1485J
983.232	0.784	1380254	WORD_OFF	n/a	n/a	BLUEBERRY	Fruit	6	9	[0, 0, 0]	n/a	catFR1	1	R1485J
984.016	1.616	1381032	WORD	n/a	wordpools/wordpool_categorized_EN.txt	BUTTERFLY	Insects	7	9	[0, 0, 0]	n/a	catFR1	1	R1485J
985.632	0.951	1382655	WORD_OFF	n/a	n/a	BUTTERFLY	Insects	7	9	[0, 0, 0]	n/a	catFR1	1	R1485J
986.583	1.599	1383602	WORD	n/a	wordpools/wordpool_categorized_EN.txt	CRICKET	Insects	8	9	[0, 0, 0]	n/a	catFR1	1	R1485J
988.182	0.999	1385202	WORD_OFF	n/a	n/a	CRICKET	Insects	8	9	[0, 0, 0]	n/a	catFR1	1	R1485J
989.181	1.601	1386206	WORD	n/a	wordpools/wordpool_categorized_EN.txt	GRAPE	Fruit	9	9	[0, 0, 0]	n/a	catFR1	1	R1485J
990.782	0.884	1387806	WORD_OFF	n/a	n/a	GRAPE	Fruit	9	9	[0, 0, 0]	n/a	catFR1	1	R1485J
991.666	1.601	1388686	WORD	n/a	wordpools/wordpool_categorized_EN.txt	PEACH	Fruit	10	9	[0, 0, 0]	n/a	catFR1	1	R1485J
993.267	0.932	1390286	WORD_OFF	n/a	n/a	PEACH	Fruit	10	9	[0, 0, 0]	n/a	catFR1	1	R1485J
994.199	1.616	1391222	WORD	n/a	wordpools/wordpool_categorized_EN.txt	GUITAR	Instruments	11	9	[0, 0, 0]	n/a	catFR1	1	R1485J
995.815	1.001	1392834	WORD_OFF	n/a	n/a	GUITAR	Instruments	11	9	[0, 0, 0]	n/a	catFR1	1	R1485J
996.816	1.601	1393837	WORD	n/a	wordpools/wordpool_categorized_EN.txt	VIOLIN	Instruments	12	9	[0, 0, 0]	n/a	catFR1	1	R1485J
998.417	0.0	1395430	START	n/a	n/a	n/a	n/a	-999	9	[-999, -999, -999]	n/a	catFR1	1	R1485J
998.417	0.0	1395430	PROB	0.0	n/a	n/a	n/a	-999	9	[3, 2, 5]	10	catFR1	1	R1485J
998.416	0.001	1395438	WORD_OFF	n/a	n/a	VIOLIN	Instruments	12	9	[0, 0, 0]	n/a	catFR1	1	R1485J
998.417	0.0	1395438	ENCODING_END	n/a	n/a	n/a	n/a	-999	9	[0, 0, 0]	n/a	catFR1	1	R1485J
998.417	4.214	1395438	DISTRACT_START	n/a	n/a	n/a	n/a	-999	9	[0, 0, 0]	n/a	catFR1	1	R1485J
1002.631	6.218	1399644	PROB	6.218	n/a	n/a	n/a	-999	9	[7, 8, 6]	21	catFR1	1	R1485J
1008.849	4.035	1405862	PROB	4.035	n/a	n/a	n/a	-999	9	[6, 4, 3]	13	catFR1	1	R1485J
1012.884	3.397	1409897	PROB	3.397	n/a	n/a	n/a	-999	9	[3, 1, 3]	7	catFR1	1	R1485J
1016.281	3.85	1413294	PROB	3.85	n/a	n/a	n/a	-999	9	[4, 4, 4]	12	catFR1	1	R1485J
1020.131	0.0	1417144	STOP	n/a	n/a	n/a	n/a	-999	9	[-999, -999, -999]	n/a	catFR1	1	R1485J
1020.131	2.05	1417149	DISTRACT_END	n/a	n/a	n/a	n/a	-999	9	[0, 0, 0]	n/a	catFR1	1	R1485J
1022.181	6.463	1419198	REC_START	n/a	n/a	n/a	n/a	-999	9	[0, 0, 0]	n/a	catFR1	1	R1485J
1028.644	23.734	1425656	REC_WORD	23.734	n/a	GUITAR	Instruments	11	9	[0, 0, 0]	n/a	catFR1	1	R1485J
1052.378	3.104	1449401	REC_END	n/a	n/a	n/a	n/a	-999	9	[0, 0, 0]	n/a	catFR1	1	R1485J
1055.482	10.349	1452501	COUNTDOWN_START	n/a	n/a	n/a	n/a	-999	10	[0, 0, 0]	n/a	catFR1	1	R1485J
1065.831	0.0	1462849	COUNTDOWN_END	n/a	n/a	n/a	n/a	-999	10	[0, 0, 0]	n/a	catFR1	1	R1485J
1065.831	2.117	1462849	ENCODING_START	n/a	n/a	n/a	n/a	-999	10	[0, 0, 0]	n/a	catFR1	1	R1485J
1067.948	1.601	1464968	WORD	n/a	wordpools/wordpool_categorized_EN.txt	VELVET	Fabric	1	10	[0, 0, 0]	n/a	catFR1	1	R1485J
1069.549	0.833	1466569	WORD_OFF	n/a	n/a	VELVET	Fabric	1	10	[0, 0, 0]	n/a	catFR1	1	R1485J
1070.382	1.6	1467403	WORD	n/a	wordpools/wordpool_categorized_EN.txt	LEATHER	Fabric	2	10	[0, 0, 0]	n/a	catFR1	1	R1485J
1071.982	0.917	1469004	WORD_OFF	n/a	n/a	LEATHER	Fabric	2	10	[0, 0, 0]	n/a	catFR1	1	R1485J
1072.899	1.6	1469917	WORD	n/a	wordpools/wordpool_categorized_EN.txt	CHICKEN	FarmAnimals	3	10	[0, 0, 0]	n/a	catFR1	1	R1485J
1074.499	0.849	1471518	WORD_OFF	n/a	n/a	CHICKEN	FarmAnimals	3	10	[0, 0, 0]	n/a	catFR1	1	R1485J
1075.348	1.601	1472363	WORD	n/a	wordpools/wordpool_categorized_EN.txt	ROOSTER	FarmAnimals	4	10	[0, 0, 0]	n/a	catFR1	1	R1485J
1076.949	0.783	1473964	WORD_OFF	n/a	n/a	ROOSTER	FarmAnimals	4	10	[0, 0, 0]	n/a	catFR1	1	R1485J
1077.732	1.6	1474753	WORD	n/a	wordpools/wordpool_categorized_EN.txt	BLOCKS	Toys	5	10	[0, 0, 0]	n/a	catFR1	1	R1485J
1079.332	0.817	1476354	WORD_OFF	n/a	n/a	BLOCKS	Toys	5	10	[0, 0, 0]	n/a	catFR1	1	R1485J
1080.149	1.616	1477165	WORD	n/a	wordpools/wordpool_categorized_EN.txt	FRISBEE	Toys	6	10	[0, 0, 0]	n/a	catFR1	1	R1485J
1081.765	0.801	1478777	WORD_OFF	n/a	n/a	FRISBEE	Toys	6	10	[0, 0, 0]	n/a	catFR1	1	R1485J
1082.566	1.616	1479578	WORD	n/a	wordpools/wordpool_categorized_EN.txt	TURKEY	FarmAnimals	7	10	[0, 0, 0]	n/a	catFR1	1	R1485J
1084.182	0.817	1481201	WORD_OFF	n/a	n/a	TURKEY	FarmAnimals	7	10	[0, 0, 0]	n/a	catFR1	1	R1485J
1084.999	1.616	1482013	WORD	n/a	wordpools/wordpool_categorized_EN.txt	BULL	FarmAnimals	8	10	[0, 0, 0]	n/a	catFR1	1	R1485J
1086.615	0.917	1483636	WORD_OFF	n/a	n/a	BULL	FarmAnimals	8	10	[0, 0, 0]	n/a	catFR1	1	R1485J
1087.532	1.6	1484549	WORD	n/a	wordpools/wordpool_categorized_EN.txt	BASKETBALL	Toys	9	10	[0, 0, 0]	n/a	catFR1	1	R1485J
1089.132	0.884	1486150	WORD_OFF	n/a	n/a	BASKETBALL	Toys	9	10	[0, 0, 0]	n/a	catFR1	1	R1485J
1090.016	1.6	1487029	WORD	n/a	wordpools/wordpool_categorized_EN.txt	BARBIE	Toys	10	10	[0, 0, 0]	n/a	catFR1	1	R1485J
1091.616	0.883	1488630	WORD_OFF	n/a	n/a	BARBIE	Toys	10	10	[0, 0, 0]	n/a	catFR1	1	R1485J
1092.499	1.616	1489520	WORD	n/a	wordpools/wordpool_categorized_EN.txt	DENIM	Fabric	11	10	[0, 0, 0]	n/a	catFR1	1	R1485J
1094.115	0.901	1491132	WORD_OFF	n/a	n/a	DENIM	Fabric	11	10	[0, 0, 0]	n/a	catFR1	1	R1485J
1095.016	1.6	1492034	WORD	n/a	wordpools/wordpool_categorized_EN.txt	NYLON	Fabric	12	10	[0, 0, 0]	n/a	catFR1	1	R1485J
1096.616	0.001	1493625	PROB	0.001	n/a	n/a	n/a	-999	10	[5, 2, 4]	11	catFR1	1	R1485J
1096.617	0.0	1493626	START	n/a	n/a	n/a	n/a	-999	10	[-999, -999, -999]	n/a	catFR1	1	R1485J
1096.616	0.001	1493635	WORD_OFF	n/a	n/a	NYLON	Fabric	12	10	[0, 0, 0]	n/a	catFR1	1	R1485J
1096.617	0.0	1493635	ENCODING_END	n/a	n/a	n/a	n/a	-999	10	[0, 0, 0]	n/a	catFR1	1	R1485J
1096.617	5.33	1493635	DISTRACT_START	n/a	n/a	n/a	n/a	-999	10	[0, 0, 0]	n/a	catFR1	1	R1485J
1101.947	2.936	1498956	PROB	2.936	n/a	n/a	n/a	-999	10	[3, 7, 3]	13	catFR1	1	R1485J
1104.883	4.533	1501892	PROB	4.533	n/a	n/a	n/a	-999	10	[5, 6, 2]	13	catFR1	1	R1485J
1109.416	2.716	1506425	PROB	2.716	n/a	n/a	n/a	-999	10	[3, 3, 3]	9	catFR1	1	R1485J
1112.132	3.667	1509141	PROB	3.667	n/a	n/a	n/a	-999	10	[6, 4, 1]	11	catFR1	1	R1485J
1115.799	16.532	1512808	PROB	16.532	n/a	n/a	n/a	-999	10	[8, 5, 7]	21	catFR1	1	R1485J
1132.331	0.0	1529339	STOP	n/a	n/a	n/a	n/a	-999	10	[-999, -999, -999]	n/a	catFR1	1	R1485J
1132.331	2.25	1529347	DISTRACT_END	n/a	n/a	n/a	n/a	-999	10	[0, 0, 0]	n/a	catFR1	1	R1485J
1134.581	2.234	1531598	REC_START	n/a	n/a	n/a	n/a	-999	10	[0, 0, 0]	n/a	catFR1	1	R1485J
1136.815	0.361	1533823	REC_WORD_VV	0.361	n/a	<>	n/a	-999	10	[0, 0, 0]	n/a	catFR1	1	R1485J
1137.176	1.986	1534184	REC_WORD	1.986	n/a	VELVET	Fabric	1	10	[0, 0, 0]	n/a	catFR1	1	R1485J
1139.162	2.662	1536170	REC_WORD	2.662	n/a	LEATHER	Fabric	2	10	[0, 0, 0]	n/a	catFR1	1	R1485J
1141.824	1.627	1538832	REC_WORD	1.627	n/a	CHICKEN	FarmAnimals	3	10	[0, 0, 0]	n/a	catFR1	1	R1485J
1143.451	6.249	1540458	REC_WORD	6.249	n/a	TURKEY	FarmAnimals	7	10	[0, 0, 0]	n/a	catFR1	1	R1485J
1149.7	15.092	1546707	REC_WORD	15.092	n/a	BULL	FarmAnimals	8	10	[0, 0, 0]	n/a	catFR1	1	R1485J
1164.792	3.389	1561801	REC_END	n/a	n/a	n/a	n/a	-999	10	[0, 0, 0]	n/a	catFR1	1	R1485J
1168.181	10.351	1565194	COUNTDOWN_START	n/a	n/a	n/a	n/a	-999	11	[0, 0, 0]	n/a	catFR1	1	R1485J
1178.532	0.0	1575542	COUNTDOWN_END	n/a	n/a	n/a	n/a	-999	11	[0, 0, 0]	n/a	catFR1	1	R1485J
1178.532	2.266	1575542	ENCODING_START	n/a	n/a	n/a	n/a	-999	11	[0, 0, 0]	n/a	catFR1	1	R1485J
1180.798	1.601	1577808	WORD	n/a	wordpools/wordpool_categorized_EN.txt	CABBAGE	Vegetables	1	11	[0, 0, 0]	n/a	catFR1	1	R1485J
1182.399	0.933	1579409	WORD_OFF	n/a	n/a	CABBAGE	Vegetables	1	11	[0, 0, 0]	n/a	catFR1	1	R1485J
1183.332	1.617	1580345	WORD	n/a	wordpools/wordpool_categorized_EN.txt	ONION	Vegetables	2	11	[0, 0, 0]	n/a	catFR1	1	R1485J
1184.949	0.833	1581957	WORD_OFF	n/a	n/a	ONION	Vegetables	2	11	[0, 0, 0]	n/a	catFR1	1	R1485J
1185.782	1.6	1582791	WORD	n/a	wordpools/wordpool_categorized_EN.txt	COW	FarmAnimals	3	11	[0, 0, 0]	n/a	catFR1	1	R1485J
1187.382	0.884	1584391	WORD_OFF	n/a	n/a	COW	FarmAnimals	3	11	[0, 0, 0]	n/a	catFR1	1	R1485J
1188.266	1.615	1585282	WORD	n/a	wordpools/wordpool_categorized_EN.txt	CALF	FarmAnimals	4	11	[0, 0, 0]	n/a	catFR1	1	R1485J
1189.881	0.935	1586894	WORD_OFF	n/a	n/a	CALF	FarmAnimals	4	11	[0, 0, 0]	n/a	catFR1	1	R1485J
1190.816	1.6	1587830	WORD	n/a	wordpools/wordpool_categorized_EN.txt	MIXER	Appliances	5	11	[0, 0, 0]	n/a	catFR1	1	R1485J
1192.416	0.949	1589430	WORD_OFF	n/a	n/a	MIXER	Appliances	5	11	[0, 0, 0]	n/a	catFR1	1	R1485J
1193.365	1.6	1590377	WORD	n/a	wordpools/wordpool_categorized_EN.txt	REFRIGERATOR	Appliances	6	11	[0, 0, 0]	n/a	catFR1	1	R1485J
1194.965	0.817	1591978	WORD_OFF	n/a	n/a	REFRIGERATOR	Appliances	6	11	[0, 0, 0]	n/a	catFR1	1	R1485J
1195.782	1.6	1592790	WORD	n/a	wordpools/wordpool_categorized_EN.txt	CORN	Vegetables	7	11	[0, 0, 0]	n/a	catFR1	1	R1485J
1197.382	0.832	1594390	WORD_OFF	n/a	n/a	CORN	Vegetables	7	11	[0, 0, 0]	n/a	catFR1	1	R1485J
1198.214	1.6	1595225	WORD	n/a	wordpools/wordpool_categorized_EN.txt	PEAS	Vegetables	8	11	[0, 0, 0]	n/a	catFR1	1	R1485J
1199.814	0.901	1596825	WORD_OFF	n/a	n/a	PEAS	Vegetables	8	11	[0, 0, 0]	n/a	catFR1	1	R1485J
1200.715	1.6	1597727	WORD	n/a	wordpools/wordpool_categorized_EN.txt	STOVE	Appliances	9	11	[0, 0, 0]	n/a	catFR1	1	R1485J
1202.315	0.917	1599328	WORD_OFF	n/a	n/a	STOVE	Appliances	9	11	[0, 0, 0]	n/a	catFR1	1	R1485J
1203.232	1.617	1600241	WORD	n/a	wordpools/wordpool_categorized_EN.txt	BLENDER	Appliances	10	11	[0, 0, 0]	n/a	catFR1	1	R1485J
1204.849	0.899	1601864	WORD_OFF	n/a	n/a	BLENDER	Appliances	10	11	[0, 0, 0]	n/a	catFR1	1	R1485J
1205.748	1.617	1602755	WORD	n/a	wordpools/wordpool_categorized_EN.txt	HORSE	FarmAnimals	11	11	[0, 0, 0]	n/a	catFR1	1	R1485J
1207.365	0.85	1604378	WORD_OFF	n/a	n/a	HORSE	FarmAnimals	11	11	[0, 0, 0]	n/a	catFR1	1	R1485J
1208.215	1.6	1605223	WORD	n/a	wordpools/wordpool_categorized_EN.txt	SHEEP	FarmAnimals	12	11	[0, 0, 0]	n/a	catFR1	1	R1485J
1209.815	0.002	1606820	PROB	0.002	n/a	n/a	n/a	-999	11	[5, 6, 4]	15	catFR1	1	R1485J
1209.817	0.0	1606822	START	n/a	n/a	n/a	n/a	-999	11	[-999, -999, -999]	n/a	catFR1	1	R1485J
1209.815	0.002	1606824	WORD_OFF	n/a	n/a	SHEEP	FarmAnimals	12	11	[0, 0, 0]	n/a	catFR1	1	R1485J
1209.817	0.0	1606824	ENCODING_END	n/a	n/a	n/a	n/a	-999	11	[0, 0, 0]	n/a	catFR1	1	R1485J
1209.817	3.598	1606835	DISTRACT_START	n/a	n/a	n/a	n/a	-999	11	[0, 0, 0]	n/a	catFR1	1	R1485J
1213.415	4.133	1610420	PROB	4.133	n/a	n/a	n/a	-999	11	[1, 6, 1]	8	catFR1	1	R1485J
1217.548	3.767	1614552	PROB	3.767	n/a	n/a	n/a	-999	11	[4, 1, 3]	8	catFR1	1	R1485J
1221.315	6.95	1618319	PROB	6.95	n/a	n/a	n/a	-999	11	[7, 6, 6]	17	catFR1	1	R1485J
1228.265	4.932	1625269	PROB	4.932	n/a	n/a	n/a	-999	11	[3, 7, 4]	14	catFR1	1	R1485J
1233.197	0.0	1630201	STOP	n/a	n/a	n/a	n/a	-999	11	[-999, -999, -999]	n/a	catFR1	1	R1485J
1233.197	2.201	1630204	DISTRACT_END	n/a	n/a	n/a	n/a	-999	11	[0, 0, 0]	n/a	catFR1	1	R1485J
1235.398	1.044	1632410	REC_START	n/a	n/a	n/a	n/a	-999	11	[0, 0, 0]	n/a	catFR1	1	R1485J
1236.442	0.79	1633446	REC_WORD	0.79	n/a	HORSE	FarmAnimals	11	11	[0, 0, 0]	n/a	catFR1	1	R1485J
1237.232	1.091	1634236	REC_WORD	1.091	n/a	COW	FarmAnimals	3	11	[0, 0, 0]	n/a	catFR1	1	R1485J
1238.323	1.785	1635327	REC_WORD	1.785	n/a	CALF	FarmAnimals	4	11	[0, 0, 0]	n/a	catFR1	1	R1485J
1240.108	0.844	1637111	REC_WORD	0.844	n/a	ONION	Vegetables	2	11	[0, 0, 0]	n/a	catFR1	1	R1485J
1240.952	5.091	1637955	REC_WORD	5.091	n/a	CABBAGE	Vegetables	1	11	[0, 0, 0]	n/a	catFR1	1	R1485J
1246.043	19.57	1643046	REC_WORD	19.57	n/a	SHEEP	FarmAnimals	12	11	[0, 0, 0]	n/a	catFR1	1	R1485J
1265.613	2.453	1662624	REC_END	n/a	n/a	n/a	n/a	-999	11	[0, 0, 0]	n/a	catFR1	1	R1485J
1268.066	10.348	1665082	COUNTDOWN_START	n/a	n/a	n/a	n/a	-999	12	[0, 0, 0]	n/a	catFR1	1	R1485J
1278.414	0.0	1675419	COUNTDOWN_END	n/a	n/a	n/a	n/a	-999	12	[0, 0, 0]	n/a	catFR1	1	R1485J
1278.414	2.052	1675430	ENCODING_START	n/a	n/a	n/a	n/a	-999	12	[0, 0, 0]	n/a	catFR1	1	R1485J
1280.466	1.616	1677470	WORD	n/a	wordpools/wordpool_categorized_EN.txt	NOSE	BodyParts	1	12	[0, 0, 0]	n/a	catFR1	1	R1485J
1282.082	0.767	1679094	WORD_OFF	n/a	n/a	NOSE	BodyParts	1	12	[0, 0, 0]	n/a	catFR1	1	R1485J
1282.849	1.6	1679860	WORD	n/a	wordpools/wordpool_categorized_EN.txt	EAR	BodyParts	2	12	[0, 0, 0]	n/a	catFR1	1	R1485J
1284.449	1.0	1681461	WORD_OFF	n/a	n/a	EAR	BodyParts	2	12	[0, 0, 0]	n/a	catFR1	1	R1485J
1285.449	1.6	1682453	WORD	n/a	wordpools/wordpool_categorized_EN.txt	OVEN	Appliances	3	12	[0, 0, 0]	n/a	catFR1	1	R1485J
1287.049	0.967	1684054	WORD_OFF	n/a	n/a	OVEN	Appliances	3	12	[0, 0, 0]	n/a	catFR1	1	R1485J
1288.016	1.6	1685023	WORD	n/a	wordpools/wordpool_categorized_EN.txt	VACUUM	Appliances	4	12	[0, 0, 0]	n/a	catFR1	1	R1485J
1289.616	1.0	1686624	WORD_OFF	n/a	n/a	VACUUM	Appliances	4	12	[0, 0, 0]	n/a	catFR1	1	R1485J
1290.616	1.6	1687627	WORD	n/a	wordpools/wordpool_categorized_EN.txt	DOLL	Toys	5	12	[0, 0, 0]	n/a	catFR1	1	R1485J
1292.216	0.965	1689228	WORD_OFF	n/a	n/a	DOLL	Toys	5	12	[0, 0, 0]	n/a	catFR1	1	R1485J
1293.181	1.618	1690186	WORD	n/a	wordpools/wordpool_categorized_EN.txt	PUZZLE	Toys	6	12	[0, 0, 0]	n/a	catFR1	1	R1485J
1294.799	0.85	1691809	WORD_OFF	n/a	n/a	PUZZLE	Toys	6	12	[0, 0, 0]	n/a	catFR1	1	R1485J
1295.649	1.616	1692655	WORD	n/a	wordpools/wordpool_categorized_EN.txt	ELBOW	BodyParts	7	12	[0, 0, 0]	n/a	catFR1	1	R1485J
1297.265	0.8	1694278	WORD_OFF	n/a	n/a	ELBOW	BodyParts	7	12	[0, 0, 0]	n/a	catFR1	1	R1485J
1298.065	1.617	1695078	WORD	n/a	wordpools/wordpool_categorized_EN.txt	LEG	BodyParts	8	12	[0, 0, 0]	n/a	catFR1	1	R1485J
1299.682	0.833	1696690	WORD_OFF	n/a	n/a	LEG	BodyParts	8	12	[0, 0, 0]	n/a	catFR1	1	R1485J
1300.515	1.6	1697524	WORD	n/a	wordpools/wordpool_categorized_EN.txt	FREEZER	Appliances	9	12	[0, 0, 0]	n/a	catFR1	1	R1485J
1302.115	0.8	1699125	WORD_OFF	n/a	n/a	FREEZER	Appliances	9	12	[0, 0, 0]	n/a	catFR1	1	R1485J
1302.915	1.6	1699926	WORD	n/a	wordpools/wordpool_categorized_EN.txt	IRON	Appliances	10	12	[0, 0, 0]	n/a	catFR1	1	R1485J
1304.515	0.8	1701526	WORD_OFF	n/a	n/a	IRON	Appliances	10	12	[0, 0, 0]	n/a	catFR1	1	R1485J
1305.315	1.616	1702327	WORD	n/a	wordpools/wordpool_categorized_EN.txt	BASEBALL	Toys	11	12	[0, 0, 0]	n/a	catFR1	1	R1485J
1306.931	0.917	1703939	WORD_OFF	n/a	n/a	BASEBALL	Toys	11	12	[0, 0, 0]	n/a	catFR1	1	R1485J
1307.848	1.617	1704852	WORD	n/a	wordpools/wordpool_categorized_EN.txt	MARBLES	Toys	12	12	[0, 0, 0]	n/a	catFR1	1	R1485J
1309.465	0.0	1706466	START	n/a	n/a	n/a	n/a	-999	12	[-999, -999, -999]	n/a	catFR1	1	R1485J
1309.465	0.0	1706466	PROB	0.0	n/a	n/a	n/a	-999	12	[4, 2, 8]	14	catFR1	1	R1485J
1309.464	0.001	1706475	WORD_OFF	n/a	n/a	MARBLES	Toys	12	12	[0, 0, 0]	n/a	catFR1	1	R1485J
1309.465	0.0	1706475	ENCODING_END	n/a	n/a	n/a	n/a	-999	12	[0, 0, 0]	n/a	catFR1	1	R1485J
1309.465	3.216	1706475	DISTRACT_START	n/a	n/a	n/a	n/a	-999	12	[0, 0, 0]	n/a	catFR1	1	R1485J
1312.681	2.367	1709681	PROB	2.367	n/a	n/a	n/a	-999	12	[1, 2, 1]	4	catFR1	1	R1485J
1315.048	7.9	1712048	PROB	7.9	n/a	n/a	n/a	-999	12	[6, 8, 7]	21	catFR1	1	R1485J
1322.948	5.0	1719948	PROB	5.0	n/a	n/a	n/a	-999	12	[8, 6, 7]	21	catFR1	1	R1485J
1327.948	4.233	1724948	PROB	4.233	n/a	n/a	n/a	-999	12	[3, 1, 4]	8	catFR1	1	R1485J
1332.181	0.0	1729181	STOP	n/a	n/a	n/a	n/a	-999	12	[-999, -999, -999]	n/a	catFR1	1	R1485J
1332.181	2.233	1729190	DISTRACT_END	n/a	n/a	n/a	n/a	-999	12	[0, 0, 0]	n/a	catFR1	1	R1485J
1334.414	0.94	1731418	REC_START	n/a	n/a	n/a	n/a	-999	12	[0, 0, 0]	n/a	catFR1	1	R1485J
1335.354	2.457	1732353	REC_WORD	2.457	n/a	IRON	Appliances	10	12	[0, 0, 0]	n/a	catFR1	1	R1485J
1337.811	0.781	1734810	REC_WORD	0.781	n/a	ELBOW	BodyParts	7	12	[0, 0, 0]	n/a	catFR1	1	R1485J
1338.592	1.652	1735591	REC_WORD	1.652	n/a	LEG	BodyParts	8	12	[0, 0, 0]	n/a	catFR1	1	R1485J
1340.244	0.592	1737243	REC_WORD	0.592	n/a	EAR	BodyParts	2	12	[0, 0, 0]	n/a	catFR1	1	R1485J
1340.836	23.811	1737835	REC_WORD	23.811	n/a	NOSE	BodyParts	1	12	[0, 0, 0]	n/a	catFR1	1	R1485J
1364.647	0.0	1761655	REC_END	n/a	n/a	n/a	n/a	-999	12	[0, 0, 0]	n/a	catFR1	1	R1485J
