onset	duration	sample	trial_type	response_time	stim_file	item_name	category	serialpos	list	test	answer	experiment	session	subject
0.0	2.833	25360	INSTRUCT_START	n/a	n/a	n/a	n/a	-999	-999	[0, 0, 0]	n/a	catFR1	1	R1527J
2.833	36.416	28189	INSTRUCT_END	n/a	n/a	n/a	n/a	-999	-999	[0, 0, 0]	n/a	catFR1	1	R1527J
39.249	10.351	64608	COUNTDOWN_START	n/a	n/a	n/a	n/a	-999	-999	[0, 0, 0]	n/a	catFR1	1	R1527J
49.6	0.0	74951	COUNTDOWN_END	n/a	n/a	n/a	n/a	-999	-999	[0, 0, 0]	n/a	catFR1	1	R1527J
49.6	2.017	74960	ENCODING_START	n/a	n/a	n/a	n/a	-999	-1	[0, 0, 0]	n/a	catFR1	1	R1527J
51.617	1.616	76971	WORD	n/a	n/a	COUCH	Furniture	1	-1	[0, 0, 0]	n/a	catFR1	1	R1527J
53.233	0.984	78588	WORD_OFF	n/a	n/a	COUCH	Furniture	1	-1	[0, 0, 0]	n/a	catFR1	1	R1527J
54.217	1.617	79571	WORD	n/a	n/a	BED	Furniture	2	-1	[0, 0, 0]	n/a	catFR1	1	R1527J
55.834	0.833	81187	WORD_OFF	n/a	n/a	BED	Furniture	2	-1	[0, 0, 0]	n/a	catFR1	1	R1527J
56.667	1.616	82023	WORD	n/a	n/a	CAULIFLOWER	Vegetables	3	-1	[0, 0, 0]	n/a	catFR1	1	R1527J
58.283	0.784	83640	WORD_OFF	n/a	n/a	CAULIFLOWER	Vegetables	3	-1	[0, 0, 0]	n/a	catFR1	1	R1527J
59.067	1.6	84421	WORD	n/a	n/a	ONION	Vegetables	4	-1	[0, 0, 0]	n/a	catFR1	1	R1527J
60.667	0.816	86019	WORD_OFF	n/a	n/a	ONION	Vegetables	4	-1	[0, 0, 0]	n/a	catFR1	1	R1527J
61.483	1.6	86836	WORD	n/a	n/a	TROMBONE	Instruments	5	-1	[0, 0, 0]	n/a	catFR1	1	R1527J
63.083	0.866	88434	WORD_OFF	n/a	n/a	TROMBONE	Instruments	5	-1	[0, 0, 0]	n/a	catFR1	1	R1527J
63.949	1.618	89298	WORD	n/a	n/a	VIOLIN	Instruments	6	-1	[0, 0, 0]	n/a	catFR1	1	R1527J
65.567	0.783	90918	WORD_OFF	n/a	n/a	VIOLIN	Instruments	6	-1	[0, 0, 0]	n/a	catFR1	1	R1527J
66.35	1.615	91704	WORD	n/a	n/a	CUCUMBER	Vegetables	7	-1	[0, 0, 0]	n/a	catFR1	1	R1527J
67.965	0.934	93321	WORD_OFF	n/a	n/a	CUCUMBER	Vegetables	7	-1	[0, 0, 0]	n/a	catFR1	1	R1527J
68.899	1.6	94249	WORD	n/a	n/a	SPINACH	Vegetables	8	-1	[0, 0, 0]	n/a	catFR1	1	R1527J
70.499	0.834	95850	WORD_OFF	n/a	n/a	SPINACH	Vegetables	8	-1	[0, 0, 0]	n/a	catFR1	1	R1527J
71.333	1.6	96683	WORD	n/a	n/a	ORGAN	Instruments	9	-1	[0, 0, 0]	n/a	catFR1	1	R1527J
72.933	0.865	98281	WORD_OFF	n/a	n/a	ORGAN	Instruments	9	-1	[0, 0, 0]	n/a	catFR1	1	R1527J
73.798	1.601	99154	WORD	n/a	n/a	CELLO	Instruments	10	-1	[0, 0, 0]	n/a	catFR1	1	R1527J
75.399	0.867	100752	WORD_OFF	n/a	n/a	CELLO	Instruments	10	-1	[0, 0, 0]	n/a	catFR1	1	R1527J
76.266	1.6	101615	WORD	n/a	n/a	NIGHTSTAND	Furniture	11	-1	[0, 0, 0]	n/a	catFR1	1	R1527J
77.866	0.782	103213	WORD_OFF	n/a	n/a	NIGHTSTAND	Furniture	11	-1	[0, 0, 0]	n/a	catFR1	1	R1527J
78.648	1.619	104003	WORD	n/a	n/a	BOOKCASE	Furniture	12	-1	[0, 0, 0]	n/a	catFR1	1	R1527J
80.267	0.003	105616	PROB	0.003	n/a	n/a	n/a	-999	-1	[3, 7, 8]	18	catFR1	1	R1527J
80.27	0.0	105619	START	n/a	n/a	n/a	n/a	-999	-1	[-999, -999, -999]	n/a	catFR1	1	R1527J
80.266	0.004	105620	WORD_OFF	n/a	n/a	BOOKCASE	Furniture	12	-1	[0, 0, 0]	n/a	catFR1	1	R1527J
80.27	0.0	105620	ENCODING_END	n/a	n/a	n/a	n/a	-999	-1	[0, 0, 0]	n/a	catFR1	1	R1527J
80.27	3.763	105620	DISTRACT_START	n/a	n/a	n/a	n/a	-999	-1	[0, 0, 0]	n/a	catFR1	1	R1527J
84.033	2.982	109382	PROB	2.982	n/a	n/a	n/a	-999	-1	[4, 4, 4]	12	catFR1	1	R1527J
87.015	4.667	112363	PROB	4.667	n/a	n/a	n/a	-999	-1	[4, 8, 5]	17	catFR1	1	R1527J
91.682	3.434	117030	PROB	3.434	n/a	n/a	n/a	-999	-1	[6, 2, 1]	9	catFR1	1	R1527J
95.116	6.317	120464	PROB	6.317	n/a	n/a	n/a	-999	-1	[4, 8, 3]	15	catFR1	1	R1527J
101.433	0.0	126781	STOP	n/a	n/a	n/a	n/a	-999	-1	[-999, -999, -999]	n/a	catFR1	1	R1527J
101.433	1.598	126783	DISTRACT_END	n/a	n/a	n/a	n/a	-999	-1	[0, 0, 0]	n/a	catFR1	1	R1527J
103.031	1.162	128381	REC_START	n/a	n/a	n/a	n/a	-999	-1	[0, 0, 0]	n/a	catFR1	1	R1527J
104.193	1.219	129541	REC_WORD	1.219	n/a	COUCH	Furniture	1	-1	[0, 0, 0]	n/a	catFR1	1	R1527J
105.412	1.353	130759	REC_WORD	1.353	n/a	BED	Furniture	2	-1	[0, 0, 0]	n/a	catFR1	1	R1527J
106.765	1.687	132112	REC_WORD	1.687	n/a	CAULIFLOWER	Vegetables	3	-1	[0, 0, 0]	n/a	catFR1	1	R1527J
108.452	1.905	133799	REC_WORD	1.905	n/a	TROMBONE	Instruments	5	-1	[0, 0, 0]	n/a	catFR1	1	R1527J
110.357	1.496	135704	REC_WORD	1.496	n/a	VIOLIN	Instruments	6	-1	[0, 0, 0]	n/a	catFR1	1	R1527J
111.853	1.896	137200	REC_WORD	1.896	n/a	NIGHTSTAND	Furniture	11	-1	[0, 0, 0]	n/a	catFR1	1	R1527J
113.749	3.356	139096	REC_WORD	3.356	n/a	CUCUMBER	Vegetables	7	-1	[0, 0, 0]	n/a	catFR1	1	R1527J
117.105	0.707	142452	REC_WORD_VV	0.707	n/a	<>	n/a	-999	-1	[0, 0, 0]	n/a	catFR1	1	R1527J
117.812	3.73	143159	REC_WORD	3.73	n/a	SPINACH	Vegetables	8	-1	[0, 0, 0]	n/a	catFR1	1	R1527J
121.542	11.702	146889	REC_WORD_VV	11.702	n/a	<>	n/a	-999	-1	[0, 0, 0]	n/a	catFR1	1	R1527J
133.244	8.071	158591	REC_END	n/a	n/a	n/a	n/a	-999	-1	[0, 0, 0]	n/a	catFR1	1	R1527J
141.315	10.35	166665	COUNTDOWN_START	n/a	n/a	n/a	n/a	-999	1	[0, 0, 0]	n/a	catFR1	1	R1527J
151.665	0.0	177016	COUNTDOWN_END	n/a	n/a	n/a	n/a	-999	1	[0, 0, 0]	n/a	catFR1	1	R1527J
151.665	2.3	177016	ENCODING_START	n/a	n/a	n/a	n/a	-999	1	[0, 0, 0]	n/a	catFR1	1	R1527J
153.965	1.616	179313	WORD	n/a	wordpools/wordpool_categorized_EN.txt	PLIERS	Tools	1	1	[0, 0, 0]	n/a	catFR1	1	R1527J
155.581	0.984	180929	WORD_OFF	n/a	n/a	PLIERS	Tools	1	1	[0, 0, 0]	n/a	catFR1	1	R1527J
156.565	1.6	181912	WORD	n/a	wordpools/wordpool_categorized_EN.txt	LEVEL	Tools	2	1	[0, 0, 0]	n/a	catFR1	1	R1527J
158.165	0.933	183510	WORD_OFF	n/a	n/a	LEVEL	Tools	2	1	[0, 0, 0]	n/a	catFR1	1	R1527J
159.098	1.6	184447	WORD	n/a	wordpools/wordpool_categorized_EN.txt	DOOR	Building	3	1	[0, 0, 0]	n/a	catFR1	1	R1527J
160.698	0.767	186045	WORD_OFF	n/a	n/a	DOOR	Building	3	1	[0, 0, 0]	n/a	catFR1	1	R1527J
161.465	1.601	186808	WORD	n/a	wordpools/wordpool_categorized_EN.txt	FLOOR	Building	4	1	[0, 0, 0]	n/a	catFR1	1	R1527J
163.066	0.815	188415	WORD_OFF	n/a	n/a	FLOOR	Building	4	1	[0, 0, 0]	n/a	catFR1	1	R1527J
163.881	1.601	189233	WORD	n/a	wordpools/wordpool_categorized_EN.txt	KNIFE	KitchenTools	5	1	[0, 0, 0]	n/a	catFR1	1	R1527J
165.482	0.982	190831	WORD_OFF	n/a	n/a	KNIFE	KitchenTools	5	1	[0, 0, 0]	n/a	catFR1	1	R1527J
166.464	1.6	191814	WORD	n/a	wordpools/wordpool_categorized_EN.txt	SPATULA	KitchenTools	6	1	[0, 0, 0]	n/a	catFR1	1	R1527J
168.064	0.817	193412	WORD_OFF	n/a	n/a	SPATULA	KitchenTools	6	1	[0, 0, 0]	n/a	catFR1	1	R1527J
168.881	1.617	194229	WORD	n/a	wordpools/wordpool_categorized_EN.txt	SAW	Tools	7	1	[0, 0, 0]	n/a	catFR1	1	R1527J
170.498	0.867	195846	WORD_OFF	n/a	n/a	SAW	Tools	7	1	[0, 0, 0]	n/a	catFR1	1	R1527J
171.365	1.616	196709	WORD	n/a	wordpools/wordpool_categorized_EN.txt	SANDER	Tools	8	1	[0, 0, 0]	n/a	catFR1	1	R1527J
172.981	1.0	198326	WORD_OFF	n/a	n/a	SANDER	Tools	8	1	[0, 0, 0]	n/a	catFR1	1	R1527J
173.981	1.6	199327	WORD	n/a	wordpools/wordpool_categorized_EN.txt	GRATER	KitchenTools	9	1	[0, 0, 0]	n/a	catFR1	1	R1527J
175.581	0.767	200925	WORD_OFF	n/a	n/a	GRATER	KitchenTools	9	1	[0, 0, 0]	n/a	catFR1	1	R1527J
176.348	1.6	201697	WORD	n/a	wordpools/wordpool_categorized_EN.txt	WHISK	KitchenTools	10	1	[0, 0, 0]	n/a	catFR1	1	R1527J
177.948	0.866	203295	WORD_OFF	n/a	n/a	WHISK	KitchenTools	10	1	[0, 0, 0]	n/a	catFR1	1	R1527J
178.814	1.601	204159	WORD	n/a	wordpools/wordpool_categorized_EN.txt	ROOF	Building	11	1	[0, 0, 0]	n/a	catFR1	1	R1527J
180.415	0.884	205766	WORD_OFF	n/a	n/a	ROOF	Building	11	1	[0, 0, 0]	n/a	catFR1	1	R1527J
181.299	1.601	206648	WORD	n/a	wordpools/wordpool_categorized_EN.txt	WINDOW	Building	12	1	[0, 0, 0]	n/a	catFR1	1	R1527J
182.9	0.001	208243	PROB	0.001	n/a	n/a	n/a	-999	1	[4, 3, 2]	9	catFR1	1	R1527J
182.901	0.0	208244	START	n/a	n/a	n/a	n/a	-999	1	[-999, -999, -999]	n/a	catFR1	1	R1527J
182.9	0.001	208246	WORD_OFF	n/a	n/a	WINDOW	Building	12	1	[0, 0, 0]	n/a	catFR1	1	R1527J
182.901	0.0	208246	ENCODING_END	n/a	n/a	n/a	n/a	-999	1	[0, 0, 0]	n/a	catFR1	1	R1527J
182.901	15.398	208246	DISTRACT_START	n/a	n/a	n/a	n/a	-999	1	[0, 0, 0]	n/a	catFR1	1	R1527J
198.299	4.15	223642	PROB	4.15	n/a	n/a	n/a	-999	1	[4, 2, 6]	12	catFR1	1	R1527J
202.449	4.933	227791	PROB	4.933	n/a	n/a	n/a	-999	1	[2, 7, 8]	17	catFR1	1	R1527J
207.382	0.0	232724	DISTRACT_END	n/a	n/a	n/a	n/a	-999	1	[0, 0, 0]	n/a	catFR1	1	R1527J
207.382	1.75	232724	STOP	n/a	n/a	n/a	n/a	-999	1	[-999, -999, -999]	n/a	catFR1	1	R1527J
209.132	1.163	234479	REC_START	n/a	n/a	n/a	n/a	-999	1	[0, 0, 0]	n/a	catFR1	1	R1527J
210.295	1.173	235637	REC_WORD	1.173	n/a	GRATER	KitchenTools	9	1	[0, 0, 0]	n/a	catFR1	1	R1527J
211.468	1.0	236810	REC_WORD	1.0	n/a	PLIERS	Tools	1	1	[0, 0, 0]	n/a	catFR1	1	R1527J
212.468	0.689	237810	REC_WORD_VV	0.689	n/a	<>	n/a	-999	1	[0, 0, 0]	n/a	catFR1	1	R1527J
213.157	2.852	238499	REC_WORD	2.852	n/a	SAW	Tools	7	1	[0, 0, 0]	n/a	catFR1	1	R1527J
216.009	4.14	241351	REC_WORD_VV	4.14	n/a	<>	n/a	-999	1	[0, 0, 0]	n/a	catFR1	1	R1527J
220.149	1.504	245490	REC_WORD_VV	1.504	n/a	<>	n/a	-999	1	[0, 0, 0]	n/a	catFR1	1	R1527J
221.653	2.085	246994	REC_WORD_VV	2.085	n/a	<>	n/a	-999	1	[0, 0, 0]	n/a	catFR1	1	R1527J
223.738	6.155	249079	REC_WORD_VV	6.155	n/a	<>	n/a	-999	1	[0, 0, 0]	n/a	catFR1	1	R1527J
229.893	4.786	255234	REC_WORD_VV	4.786	n/a	<>	n/a	-999	1	[0, 0, 0]	n/a	catFR1	1	R1527J
234.679	0.373	260020	REC_WORD	0.373	n/a	GRATER	KitchenTools	9	1	[0, 0, 0]	n/a	catFR1	1	R1527J
235.052	0.36	260393	REC_WORD	0.36	n/a	PLIERS	Tools	1	1	[0, 0, 0]	n/a	catFR1	1	R1527J
235.412	1.205	260753	REC_WORD	1.205	n/a	SAW	Tools	7	1	[0, 0, 0]	n/a	catFR1	1	R1527J
236.617	1.461	261958	REC_WORD	1.461	n/a	SANDER	Tools	8	1	[0, 0, 0]	n/a	catFR1	1	R1527J
238.078	1.293	263418	REC_WORD_VV	1.293	n/a	<>	n/a	-999	1	[0, 0, 0]	n/a	catFR1	1	R1527J
239.371	1.846	264716	REC_END	n/a	n/a	n/a	n/a	-999	1	[0, 0, 0]	n/a	catFR1	1	R1527J
241.217	10.349	266563	COUNTDOWN_START	n/a	n/a	n/a	n/a	-999	1	[0, 0, 0]	n/a	catFR1	1	R1527J
251.566	0.0	276905	COUNTDOWN_END	n/a	n/a	n/a	n/a	-999	1	[0, 0, 0]	n/a	catFR1	1	R1527J
251.566	1.984	276914	ENCODING_START	n/a	n/a	n/a	n/a	-999	2	[0, 0, 0]	n/a	catFR1	1	R1527J
253.55	1.6	278889	WORD	n/a	wordpools/wordpool_categorized_EN.txt	CABBAGE	Vegetables	1	2	[0, 0, 0]	n/a	catFR1	1	R1527J
255.15	0.95	280497	WORD_OFF	n/a	n/a	CABBAGE	Vegetables	1	2	[0, 0, 0]	n/a	catFR1	1	R1527J
256.1	1.6	281443	WORD	n/a	wordpools/wordpool_categorized_EN.txt	LETTUCE	Vegetables	2	2	[0, 0, 0]	n/a	catFR1	1	R1527J
257.7	0.783	283041	WORD_OFF	n/a	n/a	LETTUCE	Vegetables	2	2	[0, 0, 0]	n/a	catFR1	1	R1527J
258.483	1.617	283822	WORD	n/a	wordpools/wordpool_categorized_EN.txt	PUDDING	Desserts	3	2	[0, 0, 0]	n/a	catFR1	1	R1527J
260.1	0.917	285438	WORD_OFF	n/a	n/a	PUDDING	Desserts	3	2	[0, 0, 0]	n/a	catFR1	1	R1527J
261.017	1.615	286357	WORD	n/a	wordpools/wordpool_categorized_EN.txt	CUPCAKE	Desserts	4	2	[0, 0, 0]	n/a	catFR1	1	R1527J
262.632	0.784	287973	WORD_OFF	n/a	n/a	CUPCAKE	Desserts	4	2	[0, 0, 0]	n/a	catFR1	1	R1527J
263.416	1.6	288754	WORD	n/a	wordpools/wordpool_categorized_EN.txt	WALL	Building	5	2	[0, 0, 0]	n/a	catFR1	1	R1527J
265.016	0.767	290361	WORD_OFF	n/a	n/a	WALL	Building	5	2	[0, 0, 0]	n/a	catFR1	1	R1527J
265.783	1.6	291124	WORD	n/a	wordpools/wordpool_categorized_EN.txt	ROOM	Building	6	2	[0, 0, 0]	n/a	catFR1	1	R1527J
267.383	0.816	292722	WORD_OFF	n/a	n/a	ROOM	Building	6	2	[0, 0, 0]	n/a	catFR1	1	R1527J
268.199	1.617	293540	WORD	n/a	wordpools/wordpool_categorized_EN.txt	PEAS	Vegetables	7	2	[0, 0, 0]	n/a	catFR1	1	R1527J
269.816	0.767	295156	WORD_OFF	n/a	n/a	PEAS	Vegetables	7	2	[0, 0, 0]	n/a	catFR1	1	R1527J
270.583	1.6	295928	WORD	n/a	wordpools/wordpool_categorized_EN.txt	CARROT	Vegetables	8	2	[0, 0, 0]	n/a	catFR1	1	R1527J
272.183	0.767	297526	WORD_OFF	n/a	n/a	CARROT	Vegetables	8	2	[0, 0, 0]	n/a	catFR1	1	R1527J
272.95	1.616	298288	WORD	n/a	wordpools/wordpool_categorized_EN.txt	STAIRS	Building	9	2	[0, 0, 0]	n/a	catFR1	1	R1527J
274.566	0.849	299905	WORD_OFF	n/a	n/a	STAIRS	Building	9	2	[0, 0, 0]	n/a	catFR1	1	R1527J
275.415	1.617	300759	WORD	n/a	wordpools/wordpool_categorized_EN.txt	CEILING	Building	10	2	[0, 0, 0]	n/a	catFR1	1	R1527J
277.032	0.784	302376	WORD_OFF	n/a	n/a	CEILING	Building	10	2	[0, 0, 0]	n/a	catFR1	1	R1527J
277.816	1.6	303156	WORD	n/a	wordpools/wordpool_categorized_EN.txt	COOKIE	Desserts	11	2	[0, 0, 0]	n/a	catFR1	1	R1527J
279.416	0.784	304755	WORD_OFF	n/a	n/a	COOKIE	Desserts	11	2	[0, 0, 0]	n/a	catFR1	1	R1527J
280.2	1.615	305545	WORD	n/a	wordpools/wordpool_categorized_EN.txt	COBBLER	Desserts	12	2	[0, 0, 0]	n/a	catFR1	1	R1527J
281.815	0.0	307152	WORD_OFF	n/a	n/a	COBBLER	Desserts	12	2	[0, 0, 0]	n/a	catFR1	1	R1527J
281.815	0.001	307153	PROB	0.001	n/a	n/a	n/a	-999	2	[7, 5, 4]	16	catFR1	1	R1527J
281.816	0.0	307154	START	n/a	n/a	n/a	n/a	-999	2	[-999, -999, -999]	n/a	catFR1	1	R1527J
281.816	0.0	307161	ENCODING_END	n/a	n/a	n/a	n/a	-999	2	[0, 0, 0]	n/a	catFR1	1	R1527J
281.816	6.516	307161	DISTRACT_START	n/a	n/a	n/a	n/a	-999	2	[0, 0, 0]	n/a	catFR1	1	R1527J
288.332	2.301	313670	PROB	2.301	n/a	n/a	n/a	-999	2	[5, 1, 5]	11	catFR1	1	R1527J
290.633	3.283	315971	PROB	3.283	n/a	n/a	n/a	-999	2	[4, 3, 5]	12	catFR1	1	R1527J
293.916	3.049	319253	PROB	3.049	n/a	n/a	n/a	-999	2	[5, 2, 1]	8	catFR1	1	R1527J
296.965	2.817	322302	PROB	2.817	n/a	n/a	n/a	-999	2	[6, 1, 7]	14	catFR1	1	R1527J
299.782	2.516	325119	PROB	2.516	n/a	n/a	n/a	-999	2	[1, 1, 3]	5	catFR1	1	R1527J
302.298	0.0	327635	DISTRACT_END	n/a	n/a	n/a	n/a	-999	2	[0, 0, 0]	n/a	catFR1	1	R1527J
302.298	1.6	327635	STOP	n/a	n/a	n/a	n/a	-999	2	[-999, -999, -999]	n/a	catFR1	1	R1527J
303.898	0.75	329242	REC_START	n/a	n/a	n/a	n/a	-999	2	[0, 0, 0]	n/a	catFR1	1	R1527J
304.648	2.565	329985	REC_WORD_VV	2.565	n/a	<>	n/a	-999	2	[0, 0, 0]	n/a	catFR1	1	R1527J
307.213	0.778	332550	REC_WORD	0.778	n/a	WALL	Building	5	2	[0, 0, 0]	n/a	catFR1	1	R1527J
307.991	2.159	333328	REC_WORD	2.159	n/a	CEILING	Building	10	2	[0, 0, 0]	n/a	catFR1	1	R1527J
310.15	1.022	335487	REC_WORD_VV	1.022	n/a	<>	n/a	-999	2	[0, 0, 0]	n/a	catFR1	1	R1527J
311.172	1.806	336509	REC_WORD	1.806	n/a	CABBAGE	Vegetables	1	2	[0, 0, 0]	n/a	catFR1	1	R1527J
312.978	1.586	338314	REC_WORD	1.586	n/a	LETTUCE	Vegetables	2	2	[0, 0, 0]	n/a	catFR1	1	R1527J
314.564	2.469	339900	REC_WORD	2.469	n/a	PUDDING	Desserts	3	2	[0, 0, 0]	n/a	catFR1	1	R1527J
317.033	4.839	342369	REC_WORD_VV	4.839	n/a	<>	n/a	-999	2	[0, 0, 0]	n/a	catFR1	1	R1527J
321.872	0.475	347208	REC_WORD	0.475	n/a	COUCH	Furniture	-999	2	[0, 0, 0]	n/a	catFR1	1	R1527J
322.347	0.689	347683	REC_WORD_VV	0.689	n/a	<>	n/a	-999	2	[0, 0, 0]	n/a	catFR1	1	R1527J
323.036	3.59	348372	REC_WORD_VV	3.59	n/a	<>	n/a	-999	2	[0, 0, 0]	n/a	catFR1	1	R1527J
326.626	4.992	351962	REC_WORD_VV	4.992	n/a	<>	n/a	-999	2	[0, 0, 0]	n/a	catFR1	1	R1527J
331.618	2.519	356953	REC_WORD	2.519	n/a	CUPCAKE	Desserts	4	2	[0, 0, 0]	n/a	catFR1	1	R1527J
334.137	1.779	359471	REC_END	n/a	n/a	n/a	n/a	-999	2	[0, 0, 0]	n/a	catFR1	1	R1527J
335.916	10.35	361253	COUNTDOWN_START	n/a	n/a	n/a	n/a	-999	2	[0, 0, 0]	n/a	catFR1	1	R1527J
346.266	0.0	371604	COUNTDOWN_END	n/a	n/a	n/a	n/a	-999	2	[0, 0, 0]	n/a	catFR1	1	R1527J
346.266	1.917	371604	ENCODING_START	n/a	n/a	n/a	n/a	-999	3	[0, 0, 0]	n/a	catFR1	1	R1527J
348.183	1.601	373524	WORD	n/a	wordpools/wordpool_categorized_EN.txt	DRESSER	Furniture	1	3	[0, 0, 0]	n/a	catFR1	1	R1527J
349.784	0.833	375122	WORD_OFF	n/a	n/a	DRESSER	Furniture	1	3	[0, 0, 0]	n/a	catFR1	1	R1527J
350.617	1.616	375958	WORD	n/a	wordpools/wordpool_categorized_EN.txt	RECLINER	Furniture	2	3	[0, 0, 0]	n/a	catFR1	1	R1527J
352.233	0.817	377575	WORD_OFF	n/a	n/a	RECLINER	Furniture	2	3	[0, 0, 0]	n/a	catFR1	1	R1527J
353.05	1.617	378383	WORD	n/a	wordpools/wordpool_categorized_EN.txt	VAN	Vehicles	3	3	[0, 0, 0]	n/a	catFR1	1	R1527J
354.667	0.882	380000	WORD_OFF	n/a	n/a	VAN	Vehicles	3	3	[0, 0, 0]	n/a	catFR1	1	R1527J
355.549	1.601	380891	WORD	n/a	wordpools/wordpool_categorized_EN.txt	JEEP	Vehicles	4	3	[0, 0, 0]	n/a	catFR1	1	R1527J
357.15	0.917	382489	WORD_OFF	n/a	n/a	JEEP	Vehicles	4	3	[0, 0, 0]	n/a	catFR1	1	R1527J
358.067	1.614	383407	WORD	n/a	wordpools/wordpool_categorized_EN.txt	POTATO	Vegetables	5	3	[0, 0, 0]	n/a	catFR1	1	R1527J
359.681	0.886	385015	WORD_OFF	n/a	n/a	POTATO	Vegetables	5	3	[0, 0, 0]	n/a	catFR1	1	R1527J
360.567	1.616	385906	WORD	n/a	wordpools/wordpool_categorized_EN.txt	BROCCOLI	Vegetables	6	3	[0, 0, 0]	n/a	catFR1	1	R1527J
362.183	0.816	387522	WORD_OFF	n/a	n/a	BROCCOLI	Vegetables	6	3	[0, 0, 0]	n/a	catFR1	1	R1527J
362.999	1.601	388340	WORD	n/a	wordpools/wordpool_categorized_EN.txt	TRUCK	Vehicles	7	3	[0, 0, 0]	n/a	catFR1	1	R1527J
364.6	0.85	389938	WORD_OFF	n/a	n/a	TRUCK	Vehicles	7	3	[0, 0, 0]	n/a	catFR1	1	R1527J
365.45	1.616	390783	WORD	n/a	wordpools/wordpool_categorized_EN.txt	BIKE	Vehicles	8	3	[0, 0, 0]	n/a	catFR1	1	R1527J
367.066	0.816	392400	WORD_OFF	n/a	n/a	BIKE	Vehicles	8	3	[0, 0, 0]	n/a	catFR1	1	R1527J
367.882	1.6	393217	WORD	n/a	wordpools/wordpool_categorized_EN.txt	CORN	Vegetables	9	3	[0, 0, 0]	n/a	catFR1	1	R1527J
369.482	0.95	394815	WORD_OFF	n/a	n/a	CORN	Vegetables	9	3	[0, 0, 0]	n/a	catFR1	1	R1527J
370.432	1.617	395771	WORD	n/a	wordpools/wordpool_categorized_EN.txt	CELERY	Vegetables	10	3	[0, 0, 0]	n/a	catFR1	1	R1527J
372.049	0.899	397387	WORD_OFF	n/a	n/a	CELERY	Vegetables	10	3	[0, 0, 0]	n/a	catFR1	1	R1527J
372.948	1.602	398287	WORD	n/a	wordpools/wordpool_categorized_EN.txt	CHAIR	Furniture	11	3	[0, 0, 0]	n/a	catFR1	1	R1527J
374.55	0.882	399886	WORD_OFF	n/a	n/a	CHAIR	Furniture	11	3	[0, 0, 0]	n/a	catFR1	1	R1527J
375.432	1.6	400767	WORD	n/a	wordpools/wordpool_categorized_EN.txt	TABLE	Furniture	12	3	[0, 0, 0]	n/a	catFR1	1	R1527J
377.032	0.0	402365	PROB	0.0	n/a	n/a	n/a	-999	3	[5, 7, 2]	14	catFR1	1	R1527J
377.032	0.001	402366	WORD_OFF	n/a	n/a	TABLE	Furniture	12	3	[0, 0, 0]	n/a	catFR1	1	R1527J
377.033	0.0	402366	START	n/a	n/a	n/a	n/a	-999	3	[-999, -999, -999]	n/a	catFR1	1	R1527J
377.033	0.0	402375	ENCODING_END	n/a	n/a	n/a	n/a	-999	3	[0, 0, 0]	n/a	catFR1	1	R1527J
377.033	5.767	402375	DISTRACT_START	n/a	n/a	n/a	n/a	-999	3	[0, 0, 0]	n/a	catFR1	1	R1527J
382.8	3.316	408133	PROB	3.316	n/a	n/a	n/a	-999	3	[5, 3, 5]	13	catFR1	1	R1527J
386.116	3.3	411449	PROB	3.3	n/a	n/a	n/a	-999	3	[1, 4, 2]	7	catFR1	1	R1527J
389.416	2.583	414748	PROB	2.583	n/a	n/a	n/a	-999	3	[8, 1, 2]	11	catFR1	1	R1527J
391.999	4.167	417331	PROB	4.167	n/a	n/a	n/a	-999	3	[5, 2, 2]	9	catFR1	1	R1527J
396.166	3.5	421498	PROB	3.5	n/a	n/a	n/a	-999	3	[8, 2, 7]	17	catFR1	1	R1527J
399.666	0.0	424998	DISTRACT_END	n/a	n/a	n/a	n/a	-999	3	[0, 0, 0]	n/a	catFR1	1	R1527J
399.666	1.833	424998	STOP	n/a	n/a	n/a	n/a	-999	3	[-999, -999, -999]	n/a	catFR1	1	R1527J
401.499	0.805	426835	REC_START	n/a	n/a	n/a	n/a	-999	3	[0, 0, 0]	n/a	catFR1	1	R1527J
402.304	0.842	427636	REC_WORD_VV	0.842	n/a	<>	n/a	-999	3	[0, 0, 0]	n/a	catFR1	1	R1527J
403.146	1.297	428478	REC_WORD	1.297	n/a	VAN	Vehicles	3	3	[0, 0, 0]	n/a	catFR1	1	R1527J
404.443	1.233	429775	REC_WORD	1.233	n/a	JEEP	Vehicles	4	3	[0, 0, 0]	n/a	catFR1	1	R1527J
405.676	2.043	431008	REC_WORD	2.043	n/a	TRUCK	Vehicles	7	3	[0, 0, 0]	n/a	catFR1	1	R1527J
407.719	1.698	433050	REC_WORD	1.698	n/a	BIKE	Vehicles	8	3	[0, 0, 0]	n/a	catFR1	1	R1527J
409.417	1.893	434748	REC_WORD	1.893	n/a	CELERY	Vegetables	10	3	[0, 0, 0]	n/a	catFR1	1	R1527J
411.31	2.728	436641	REC_WORD	2.728	n/a	POTATO	Vegetables	5	3	[0, 0, 0]	n/a	catFR1	1	R1527J
414.038	8.936	439369	REC_WORD_VV	8.936	n/a	<>	n/a	-999	3	[0, 0, 0]	n/a	catFR1	1	R1527J
422.974	0.456	448305	REC_WORD	0.456	n/a	CELERY	Vegetables	10	3	[0, 0, 0]	n/a	catFR1	1	R1527J
423.43	6.23	448761	REC_WORD	6.23	n/a	POTATO	Vegetables	5	3	[0, 0, 0]	n/a	catFR1	1	R1527J
429.66	0.953	454990	REC_WORD_VV	0.953	n/a	<>	n/a	-999	3	[0, 0, 0]	n/a	catFR1	1	R1527J
430.613	1.123	455943	REC_WORD_VV	1.123	n/a	<>	n/a	-999	3	[0, 0, 0]	n/a	catFR1	1	R1527J
431.736	1.713	457072	REC_END	n/a	n/a	n/a	n/a	-999	3	[0, 0, 0]	n/a	catFR1	1	R1527J
433.449	10.351	458781	COUNTDOWN_START	n/a	n/a	n/a	n/a	-999	3	[0, 0, 0]	n/a	catFR1	1	R1527J
443.8	0.0	469133	COUNTDOWN_END	n/a	n/a	n/a	n/a	-999	3	[0, 0, 0]	n/a	catFR1	1	R1527J
443.8	2.349	469133	ENCODING_START	n/a	n/a	n/a	n/a	-999	4	[0, 0, 0]	n/a	catFR1	1	R1527J
446.149	1.601	471484	WORD	n/a	wordpools/wordpool_categorized_EN.txt	NOSE	BodyParts	1	4	[0, 0, 0]	n/a	catFR1	1	R1527J
447.75	1.0	473082	WORD_OFF	n/a	n/a	NOSE	BodyParts	1	4	[0, 0, 0]	n/a	catFR1	1	R1527J
448.75	1.6	474083	WORD	n/a	wordpools/wordpool_categorized_EN.txt	FOOT	BodyParts	2	4	[0, 0, 0]	n/a	catFR1	1	R1527J
450.35	0.835	475682	WORD_OFF	n/a	n/a	FOOT	BodyParts	2	4	[0, 0, 0]	n/a	catFR1	1	R1527J
451.185	1.615	476517	WORD	n/a	wordpools/wordpool_categorized_EN.txt	ORANGUTAN	Zoo	3	4	[0, 0, 0]	n/a	catFR1	1	R1527J
452.8	0.833	478134	WORD_OFF	n/a	n/a	ORANGUTAN	Zoo	3	4	[0, 0, 0]	n/a	catFR1	1	R1527J
453.633	1.617	478961	WORD	n/a	wordpools/wordpool_categorized_EN.txt	GORILLA	Zoo	4	4	[0, 0, 0]	n/a	catFR1	1	R1527J
455.25	0.766	480577	WORD_OFF	n/a	n/a	GORILLA	Zoo	4	4	[0, 0, 0]	n/a	catFR1	1	R1527J
456.016	1.616	481349	WORD	n/a	wordpools/wordpool_categorized_EN.txt	OYSTER	OceanAnimals	5	4	[0, 0, 0]	n/a	catFR1	1	R1527J
457.632	0.851	482965	WORD_OFF	n/a	n/a	OYSTER	OceanAnimals	5	4	[0, 0, 0]	n/a	catFR1	1	R1527J
458.483	1.6	483810	WORD	n/a	wordpools/wordpool_categorized_EN.txt	SHRIMP	OceanAnimals	6	4	[0, 0, 0]	n/a	catFR1	1	R1527J
460.083	0.966	485418	WORD_OFF	n/a	n/a	SHRIMP	OceanAnimals	6	4	[0, 0, 0]	n/a	catFR1	1	R1527J
461.049	1.6	486382	WORD	n/a	wordpools/wordpool_categorized_EN.txt	ARM	BodyParts	7	4	[0, 0, 0]	n/a	catFR1	1	R1527J
462.649	0.817	487981	WORD_OFF	n/a	n/a	ARM	BodyParts	7	4	[0, 0, 0]	n/a	catFR1	1	R1527J
463.466	1.617	488798	WORD	n/a	wordpools/wordpool_categorized_EN.txt	FINGERS	BodyParts	8	4	[0, 0, 0]	n/a	catFR1	1	R1527J
465.083	0.917	490415	WORD_OFF	n/a	n/a	FINGERS	BodyParts	8	4	[0, 0, 0]	n/a	catFR1	1	R1527J
466.0	1.599	491333	WORD	n/a	wordpools/wordpool_categorized_EN.txt	LOBSTER	OceanAnimals	9	4	[0, 0, 0]	n/a	catFR1	1	R1527J
467.599	0.8	492931	WORD_OFF	n/a	n/a	LOBSTER	OceanAnimals	9	4	[0, 0, 0]	n/a	catFR1	1	R1527J
468.399	1.601	493730	WORD	n/a	wordpools/wordpool_categorized_EN.txt	CRAB	OceanAnimals	10	4	[0, 0, 0]	n/a	catFR1	1	R1527J
470.0	0.933	495329	WORD_OFF	n/a	n/a	CRAB	OceanAnimals	10	4	[0, 0, 0]	n/a	catFR1	1	R1527J
470.933	1.616	496266	WORD	n/a	wordpools/wordpool_categorized_EN.txt	GIRAFFE	Zoo	11	4	[0, 0, 0]	n/a	catFR1	1	R1527J
472.549	0.851	497882	WORD_OFF	n/a	n/a	GIRAFFE	Zoo	11	4	[0, 0, 0]	n/a	catFR1	1	R1527J
473.4	1.6	498727	WORD	n/a	wordpools/wordpool_categorized_EN.txt	CHIMPANZEE	Zoo	12	4	[0, 0, 0]	n/a	catFR1	1	R1527J
475.0	0.001	500328	PROB	0.001	n/a	n/a	n/a	-999	4	[8, 1, 8]	17	catFR1	1	R1527J
475.001	0.0	500329	START	n/a	n/a	n/a	n/a	-999	4	[-999, -999, -999]	n/a	catFR1	1	R1527J
475.0	0.001	500335	WORD_OFF	n/a	n/a	CHIMPANZEE	Zoo	12	4	[0, 0, 0]	n/a	catFR1	1	R1527J
475.001	0.0	500335	ENCODING_END	n/a	n/a	n/a	n/a	-999	4	[0, 0, 0]	n/a	catFR1	1	R1527J
475.001	4.132	500335	DISTRACT_START	n/a	n/a	n/a	n/a	-999	4	[0, 0, 0]	n/a	catFR1	1	R1527J
479.133	5.1	504461	PROB	5.1	n/a	n/a	n/a	-999	4	[3, 4, 6]	13	catFR1	1	R1527J
484.233	2.933	509560	PROB	2.933	n/a	n/a	n/a	-999	4	[1, 2, 4]	7	catFR1	1	R1527J
487.166	3.183	512493	PROB	3.183	n/a	n/a	n/a	-999	4	[8, 5, 4]	17	catFR1	1	R1527J
490.349	2.534	515676	PROB	2.534	n/a	n/a	n/a	-999	4	[3, 7, 1]	11	catFR1	1	R1527J
492.883	4.315	518210	PROB	4.315	n/a	n/a	n/a	-999	4	[4, 8, 7]	19	catFR1	1	R1527J
497.198	0.0	522525	STOP	n/a	n/a	n/a	n/a	-999	4	[-999, -999, -999]	n/a	catFR1	1	R1527J
497.198	1.866	522526	DISTRACT_END	n/a	n/a	n/a	n/a	-999	4	[0, 0, 0]	n/a	catFR1	1	R1527J
499.064	0.863	524391	REC_START	n/a	n/a	n/a	n/a	-999	4	[0, 0, 0]	n/a	catFR1	1	R1527J
499.927	1.05	525254	REC_WORD	1.05	n/a	ORANGUTAN	Zoo	3	4	[0, 0, 0]	n/a	catFR1	1	R1527J
500.977	1.052	526304	REC_WORD	1.052	n/a	GORILLA	Zoo	4	4	[0, 0, 0]	n/a	catFR1	1	R1527J
502.029	1.434	527355	REC_WORD	1.434	n/a	GIRAFFE	Zoo	11	4	[0, 0, 0]	n/a	catFR1	1	R1527J
503.463	1.456	528789	REC_WORD	1.456	n/a	NOSE	BodyParts	1	4	[0, 0, 0]	n/a	catFR1	1	R1527J
504.919	4.24	530245	REC_WORD	4.24	n/a	FOOT	BodyParts	2	4	[0, 0, 0]	n/a	catFR1	1	R1527J
509.159	7.668	534485	REC_WORD_VV	7.668	n/a	<>	n/a	-999	4	[0, 0, 0]	n/a	catFR1	1	R1527J
516.827	0.571	542153	REC_WORD	0.571	n/a	SHRIMP	OceanAnimals	6	4	[0, 0, 0]	n/a	catFR1	1	R1527J
517.398	1.569	542724	REC_WORD	1.569	n/a	LOBSTER	OceanAnimals	9	4	[0, 0, 0]	n/a	catFR1	1	R1527J
518.967	1.883	544293	REC_WORD	1.883	n/a	CRAB	OceanAnimals	10	4	[0, 0, 0]	n/a	catFR1	1	R1527J
520.85	0.598	546176	REC_WORD_VV	0.598	n/a	<>	n/a	-999	4	[0, 0, 0]	n/a	catFR1	1	R1527J
521.448	3.671	546773	REC_WORD_VV	3.671	n/a	<>	n/a	-999	4	[0, 0, 0]	n/a	catFR1	1	R1527J
525.119	0.225	550444	REC_WORD_VV	0.225	n/a	<>	n/a	-999	4	[0, 0, 0]	n/a	catFR1	1	R1527J
525.344	3.954	550669	REC_WORD	3.954	n/a	CHEEK	n/a	-999	4	[0, 0, 0]	n/a	catFR1	1	R1527J
529.298	1.735	554628	REC_END	n/a	n/a	n/a	n/a	-999	4	[0, 0, 0]	n/a	catFR1	1	R1527J
531.033	10.35	556364	COUNTDOWN_START	n/a	n/a	n/a	n/a	-999	4	[0, 0, 0]	n/a	catFR1	1	R1527J
541.383	0.001	566707	COUNTDOWN_END	n/a	n/a	n/a	n/a	-999	4	[0, 0, 0]	n/a	catFR1	1	R1527J
541.384	2.033	566716	ENCODING_START	n/a	n/a	n/a	n/a	-999	5	[0, 0, 0]	n/a	catFR1	1	R1527J
543.417	1.616	568746	WORD	n/a	wordpools/wordpool_categorized_EN.txt	HEADPHONES	Electronics	1	5	[0, 0, 0]	n/a	catFR1	1	R1527J
545.033	0.916	570362	WORD_OFF	n/a	n/a	HEADPHONES	Electronics	1	5	[0, 0, 0]	n/a	catFR1	1	R1527J
545.949	1.601	571272	WORD	n/a	wordpools/wordpool_categorized_EN.txt	PRINTER	Electronics	2	5	[0, 0, 0]	n/a	catFR1	1	R1527J
547.55	0.983	572879	WORD_OFF	n/a	n/a	PRINTER	Electronics	2	5	[0, 0, 0]	n/a	catFR1	1	R1527J
548.533	1.616	573862	WORD	n/a	wordpools/wordpool_categorized_EN.txt	RUM	Beverages	3	5	[0, 0, 0]	n/a	catFR1	1	R1527J
550.149	0.968	575479	WORD_OFF	n/a	n/a	RUM	Beverages	3	5	[0, 0, 0]	n/a	catFR1	1	R1527J
551.117	1.6	576443	WORD	n/a	wordpools/wordpool_categorized_EN.txt	MILK	Beverages	4	5	[0, 0, 0]	n/a	catFR1	1	R1527J
552.717	0.947	578041	WORD_OFF	n/a	n/a	MILK	Beverages	4	5	[0, 0, 0]	n/a	catFR1	1	R1527J
553.664	1.602	578987	WORD	n/a	wordpools/wordpool_categorized_EN.txt	LION	Zoo	5	5	[0, 0, 0]	n/a	catFR1	1	R1527J
555.266	0.917	580595	WORD_OFF	n/a	n/a	LION	Zoo	5	5	[0, 0, 0]	n/a	catFR1	1	R1527J
556.183	1.6	581513	WORD	n/a	wordpools/wordpool_categorized_EN.txt	ZEBRA	Zoo	6	5	[0, 0, 0]	n/a	catFR1	1	R1527J
557.783	0.85	583111	WORD_OFF	n/a	n/a	ZEBRA	Zoo	6	5	[0, 0, 0]	n/a	catFR1	1	R1527J
558.633	1.616	583957	WORD	n/a	wordpools/wordpool_categorized_EN.txt	PHONE	Electronics	7	5	[0, 0, 0]	n/a	catFR1	1	R1527J
560.249	0.9	585573	WORD_OFF	n/a	n/a	PHONE	Electronics	7	5	[0, 0, 0]	n/a	catFR1	1	R1527J
561.149	1.6	586473	WORD	n/a	wordpools/wordpool_categorized_EN.txt	COMPUTER	Electronics	8	5	[0, 0, 0]	n/a	catFR1	1	R1527J
562.749	0.884	588081	WORD_OFF	n/a	n/a	COMPUTER	Electronics	8	5	[0, 0, 0]	n/a	catFR1	1	R1527J
563.633	1.615	588962	WORD	n/a	wordpools/wordpool_categorized_EN.txt	BEAR	Zoo	9	5	[0, 0, 0]	n/a	catFR1	1	R1527J
565.248	0.851	590570	WORD_OFF	n/a	n/a	BEAR	Zoo	9	5	[0, 0, 0]	n/a	catFR1	1	R1527J
566.099	1.599	591424	WORD	n/a	wordpools/wordpool_categorized_EN.txt	MONKEY	Zoo	10	5	[0, 0, 0]	n/a	catFR1	1	R1527J
567.698	0.867	593022	WORD_OFF	n/a	n/a	MONKEY	Zoo	10	5	[0, 0, 0]	n/a	catFR1	1	R1527J
568.565	1.617	593895	WORD	n/a	wordpools/wordpool_categorized_EN.txt	COFFEE	Beverages	11	5	[0, 0, 0]	n/a	catFR1	1	R1527J
570.182	0.901	595511	WORD_OFF	n/a	n/a	COFFEE	Beverages	11	5	[0, 0, 0]	n/a	catFR1	1	R1527J
571.083	1.616	596412	WORD	n/a	wordpools/wordpool_categorized_EN.txt	WATER	Beverages	12	5	[0, 0, 0]	n/a	catFR1	1	R1527J
572.699	0.003	598022	PROB	0.003	n/a	n/a	n/a	-999	5	[7, 3, 6]	16	catFR1	1	R1527J
572.702	0.0	598025	START	n/a	n/a	n/a	n/a	-999	5	[-999, -999, -999]	n/a	catFR1	1	R1527J
572.699	0.003	598028	WORD_OFF	n/a	n/a	WATER	Beverages	12	5	[0, 0, 0]	n/a	catFR1	1	R1527J
572.702	0.0	598028	ENCODING_END	n/a	n/a	n/a	n/a	-999	5	[0, 0, 0]	n/a	catFR1	1	R1527J
572.702	3.463	598028	DISTRACT_START	n/a	n/a	n/a	n/a	-999	5	[0, 0, 0]	n/a	catFR1	1	R1527J
576.165	4.784	601488	PROB	4.784	n/a	n/a	n/a	-999	5	[7, 4, 1]	12	catFR1	1	R1527J
580.949	4.65	606271	PROB	4.65	n/a	n/a	n/a	-999	5	[5, 4, 2]	11	catFR1	1	R1527J
585.599	4.351	610921	PROB	4.351	n/a	n/a	n/a	-999	5	[2, 1, 3]	6	catFR1	1	R1527J
589.95	3.482	615272	PROB	3.482	n/a	n/a	n/a	-999	5	[3, 3, 6]	12	catFR1	1	R1527J
593.432	0.0	618754	STOP	n/a	n/a	n/a	n/a	-999	5	[-999, -999, -999]	n/a	catFR1	1	R1527J
593.432	1.532	618759	DISTRACT_END	n/a	n/a	n/a	n/a	-999	5	[0, 0, 0]	n/a	catFR1	1	R1527J
594.964	0.882	620284	REC_START	n/a	n/a	n/a	n/a	-999	5	[0, 0, 0]	n/a	catFR1	1	R1527J
595.846	2.588	621168	REC_WORD_VV	2.588	n/a	<>	n/a	-999	5	[0, 0, 0]	n/a	catFR1	1	R1527J
598.434	1.301	623755	REC_WORD	1.301	n/a	HEADPHONES	Electronics	1	5	[0, 0, 0]	n/a	catFR1	1	R1527J
599.735	2.175	625056	REC_WORD	2.175	n/a	PRINTER	Electronics	2	5	[0, 0, 0]	n/a	catFR1	1	R1527J
601.91	1.41	627231	REC_WORD_VV	1.41	n/a	<>	n/a	-999	5	[0, 0, 0]	n/a	catFR1	1	R1527J
603.32	1.779	628641	REC_WORD	1.779	n/a	BEAR	Zoo	9	5	[0, 0, 0]	n/a	catFR1	1	R1527J
605.099	1.0	630420	REC_WORD	1.0	n/a	LION	Zoo	5	5	[0, 0, 0]	n/a	catFR1	1	R1527J
606.099	1.874	631420	REC_WORD_VV	1.874	n/a	<>	n/a	-999	5	[0, 0, 0]	n/a	catFR1	1	R1527J
607.973	9.325	633294	REC_WORD_VV	9.325	n/a	<>	n/a	-999	5	[0, 0, 0]	n/a	catFR1	1	R1527J
617.298	1.739	642618	REC_WORD_VV	1.739	n/a	<>	n/a	-999	5	[0, 0, 0]	n/a	catFR1	1	R1527J
619.037	1.777	644357	REC_WORD_VV	1.777	n/a	<>	n/a	-999	5	[0, 0, 0]	n/a	catFR1	1	R1527J
620.814	4.386	646134	REC_WORD_VV	4.386	n/a	<>	n/a	-999	5	[0, 0, 0]	n/a	catFR1	1	R1527J
625.2	1.583	650522	REC_END	n/a	n/a	n/a	n/a	-999	5	[0, 0, 0]	n/a	catFR1	1	R1527J
626.783	10.349	652111	COUNTDOWN_START	n/a	n/a	n/a	n/a	-999	5	[0, 0, 0]	n/a	catFR1	1	R1527J
637.132	0.001	662453	COUNTDOWN_END	n/a	n/a	n/a	n/a	-999	5	[0, 0, 0]	n/a	catFR1	1	R1527J
637.133	2.018	662453	ENCODING_START	n/a	n/a	n/a	n/a	-999	6	[0, 0, 0]	n/a	catFR1	1	R1527J
639.151	1.599	664474	WORD	n/a	wordpools/wordpool_categorized_EN.txt	JEANS	Clothing	1	6	[0, 0, 0]	n/a	catFR1	1	R1527J
640.75	0.85	666072	WORD_OFF	n/a	n/a	JEANS	Clothing	1	6	[0, 0, 0]	n/a	catFR1	1	R1527J
641.6	1.6	666917	WORD	n/a	wordpools/wordpool_categorized_EN.txt	SOCKS	Clothing	2	6	[0, 0, 0]	n/a	catFR1	1	R1527J
643.2	0.767	668524	WORD_OFF	n/a	n/a	SOCKS	Clothing	2	6	[0, 0, 0]	n/a	catFR1	1	R1527J
643.967	1.617	669287	WORD	n/a	wordpools/wordpool_categorized_EN.txt	MIXER	Appliances	3	6	[0, 0, 0]	n/a	catFR1	1	R1527J
645.584	0.849	670903	WORD_OFF	n/a	n/a	MIXER	Appliances	3	6	[0, 0, 0]	n/a	catFR1	1	R1527J
646.433	1.6	671758	WORD	n/a	wordpools/wordpool_categorized_EN.txt	WASHER	Appliances	4	6	[0, 0, 0]	n/a	catFR1	1	R1527J
648.033	0.916	673356	WORD_OFF	n/a	n/a	WASHER	Appliances	4	6	[0, 0, 0]	n/a	catFR1	1	R1527J
648.949	1.601	674274	WORD	n/a	wordpools/wordpool_categorized_EN.txt	LEG	BodyParts	5	6	[0, 0, 0]	n/a	catFR1	1	R1527J
650.55	0.967	675873	WORD_OFF	n/a	n/a	LEG	BodyParts	5	6	[0, 0, 0]	n/a	catFR1	1	R1527J
651.517	1.599	676837	WORD	n/a	wordpools/wordpool_categorized_EN.txt	TOE	BodyParts	6	6	[0, 0, 0]	n/a	catFR1	1	R1527J
653.116	0.983	678435	WORD_OFF	n/a	n/a	TOE	BodyParts	6	6	[0, 0, 0]	n/a	catFR1	1	R1527J
654.099	1.6	679418	WORD	n/a	wordpools/wordpool_categorized_EN.txt	OVEN	Appliances	7	6	[0, 0, 0]	n/a	catFR1	1	R1527J
655.699	0.95	681016	WORD_OFF	n/a	n/a	OVEN	Appliances	7	6	[0, 0, 0]	n/a	catFR1	1	R1527J
656.649	1.617	681972	WORD	n/a	wordpools/wordpool_categorized_EN.txt	DISHWASHER	Appliances	8	6	[0, 0, 0]	n/a	catFR1	1	R1527J
658.266	0.867	683588	WORD_OFF	n/a	n/a	DISHWASHER	Appliances	8	6	[0, 0, 0]	n/a	catFR1	1	R1527J
659.133	1.6	684452	WORD	n/a	wordpools/wordpool_categorized_EN.txt	EAR	BodyParts	9	6	[0, 0, 0]	n/a	catFR1	1	R1527J
660.733	0.916	686050	WORD_OFF	n/a	n/a	EAR	BodyParts	9	6	[0, 0, 0]	n/a	catFR1	1	R1527J
661.649	1.616	686968	WORD	n/a	wordpools/wordpool_categorized_EN.txt	HEAD	BodyParts	10	6	[0, 0, 0]	n/a	catFR1	1	R1527J
663.265	0.8	688585	WORD_OFF	n/a	n/a	HEAD	BodyParts	10	6	[0, 0, 0]	n/a	catFR1	1	R1527J
664.065	1.6	689384	WORD	n/a	wordpools/wordpool_categorized_EN.txt	DRESS	Clothing	11	6	[0, 0, 0]	n/a	catFR1	1	R1527J
665.665	0.967	690982	WORD_OFF	n/a	n/a	DRESS	Clothing	11	6	[0, 0, 0]	n/a	catFR1	1	R1527J
666.632	1.617	691956	WORD	n/a	wordpools/wordpool_categorized_EN.txt	BLOUSE	Clothing	12	6	[0, 0, 0]	n/a	catFR1	1	R1527J
668.249	0.001	693567	PROB	0.001	n/a	n/a	n/a	-999	6	[2, 2, 4]	8	catFR1	1	R1527J
668.25	0.0	693568	START	n/a	n/a	n/a	n/a	-999	6	[-999, -999, -999]	n/a	catFR1	1	R1527J
668.249	0.001	693572	WORD_OFF	n/a	n/a	BLOUSE	Clothing	12	6	[0, 0, 0]	n/a	catFR1	1	R1527J
668.25	0.0	693572	ENCODING_END	n/a	n/a	n/a	n/a	-999	6	[0, 0, 0]	n/a	catFR1	1	R1527J
668.25	3.633	693572	DISTRACT_START	n/a	n/a	n/a	n/a	-999	6	[0, 0, 0]	n/a	catFR1	1	R1527J
671.883	2.016	697201	PROB	2.016	n/a	n/a	n/a	-999	6	[5, 1, 5]	11	catFR1	1	R1527J
673.899	3.017	699216	PROB	3.017	n/a	n/a	n/a	-999	6	[3, 3, 1]	7	catFR1	1	R1527J
676.916	2.833	702233	PROB	2.833	n/a	n/a	n/a	-999	6	[2, 4, 4]	10	catFR1	1	R1527J
679.749	3.951	705066	PROB	3.951	n/a	n/a	n/a	-999	6	[6, 7, 1]	14	catFR1	1	R1527J
683.7	4.033	709017	PROB	4.033	n/a	n/a	n/a	-999	6	[4, 3, 8]	15	catFR1	1	R1527J
687.733	4.598	713050	PROB	4.598	n/a	n/a	n/a	-999	6	[7, 5, 6]	18	catFR1	1	R1527J
692.331	0.0	717647	DISTRACT_END	n/a	n/a	n/a	n/a	-999	6	[0, 0, 0]	n/a	catFR1	1	R1527J
692.331	1.602	717647	STOP	n/a	n/a	n/a	n/a	-999	6	[-999, -999, -999]	n/a	catFR1	1	R1527J
693.933	0.962	719254	REC_START	n/a	n/a	n/a	n/a	-999	6	[0, 0, 0]	n/a	catFR1	1	R1527J
694.895	0.58	720211	REC_WORD_VV	0.58	n/a	<>	n/a	-999	6	[0, 0, 0]	n/a	catFR1	1	R1527J
695.475	1.074	720791	REC_WORD	1.074	n/a	JEANS	Clothing	1	6	[0, 0, 0]	n/a	catFR1	1	R1527J
696.549	2.2	721865	REC_WORD	2.2	n/a	SOCKS	Clothing	2	6	[0, 0, 0]	n/a	catFR1	1	R1527J
698.749	1.22	724065	REC_WORD	1.22	n/a	LEG	BodyParts	5	6	[0, 0, 0]	n/a	catFR1	1	R1527J
699.969	1.318	725285	REC_WORD	1.318	n/a	HEAD	BodyParts	10	6	[0, 0, 0]	n/a	catFR1	1	R1527J
701.287	1.456	726603	REC_WORD	1.456	n/a	EAR	BodyParts	9	6	[0, 0, 0]	n/a	catFR1	1	R1527J
702.743	1.688	728059	REC_WORD	1.688	n/a	MIXER	Appliances	3	6	[0, 0, 0]	n/a	catFR1	1	R1527J
704.431	2.492	729747	REC_WORD	2.492	n/a	WASHER	Appliances	4	6	[0, 0, 0]	n/a	catFR1	1	R1527J
706.923	14.705	732239	REC_WORD_VV	14.705	n/a	<>	n/a	-999	6	[0, 0, 0]	n/a	catFR1	1	R1527J
721.628	2.561	746943	REC_WORD	2.561	n/a	CORN	Vegetables	-999	6	[0, 0, 0]	n/a	catFR1	1	R1527J
724.189	1.678	749510	REC_END	n/a	n/a	n/a	n/a	-999	6	[0, 0, 0]	n/a	catFR1	1	R1527J
725.867	10.348	751182	COUNTDOWN_START	n/a	n/a	n/a	n/a	-999	6	[0, 0, 0]	n/a	catFR1	1	R1527J
736.215	0.001	761534	COUNTDOWN_END	n/a	n/a	n/a	n/a	-999	6	[0, 0, 0]	n/a	catFR1	1	R1527J
736.216	2.133	761534	ENCODING_START	n/a	n/a	n/a	n/a	-999	7	[0, 0, 0]	n/a	catFR1	1	R1527J
738.349	1.599	763665	WORD	n/a	wordpools/wordpool_categorized_EN.txt	ROOSTER	FarmAnimals	1	7	[0, 0, 0]	n/a	catFR1	1	R1527J
739.948	0.985	765263	WORD_OFF	n/a	n/a	ROOSTER	FarmAnimals	1	7	[0, 0, 0]	n/a	catFR1	1	R1527J
740.933	1.617	766246	WORD	n/a	wordpools/wordpool_categorized_EN.txt	CHICKEN	FarmAnimals	2	7	[0, 0, 0]	n/a	catFR1	1	R1527J
742.55	0.849	767862	WORD_OFF	n/a	n/a	CHICKEN	FarmAnimals	2	7	[0, 0, 0]	n/a	catFR1	1	R1527J
743.399	1.6	768716	WORD	n/a	wordpools/wordpool_categorized_EN.txt	THUNDERSTORM	Weather	3	7	[0, 0, 0]	n/a	catFR1	1	R1527J
744.999	0.967	770315	WORD_OFF	n/a	n/a	THUNDERSTORM	Weather	3	7	[0, 0, 0]	n/a	catFR1	1	R1527J
745.966	1.6	771279	WORD	n/a	wordpools/wordpool_categorized_EN.txt	HURRICANE	Weather	4	7	[0, 0, 0]	n/a	catFR1	1	R1527J
747.566	0.9	772886	WORD_OFF	n/a	n/a	HURRICANE	Weather	4	7	[0, 0, 0]	n/a	catFR1	1	R1527J
748.466	1.6	773777	WORD	n/a	wordpools/wordpool_categorized_EN.txt	FISH	OceanAnimals	5	7	[0, 0, 0]	n/a	catFR1	1	R1527J
750.066	0.816	775385	WORD_OFF	n/a	n/a	FISH	OceanAnimals	5	7	[0, 0, 0]	n/a	catFR1	1	R1527J
750.882	1.601	776202	WORD	n/a	wordpools/wordpool_categorized_EN.txt	TURTLE	OceanAnimals	6	7	[0, 0, 0]	n/a	catFR1	1	R1527J
752.483	0.916	777801	WORD_OFF	n/a	n/a	TURTLE	OceanAnimals	6	7	[0, 0, 0]	n/a	catFR1	1	R1527J
753.399	1.617	778719	WORD	n/a	wordpools/wordpool_categorized_EN.txt	LAMB	FarmAnimals	7	7	[0, 0, 0]	n/a	catFR1	1	R1527J
755.016	0.8	780336	WORD_OFF	n/a	n/a	LAMB	FarmAnimals	7	7	[0, 0, 0]	n/a	catFR1	1	R1527J
755.816	1.6	781135	WORD	n/a	wordpools/wordpool_categorized_EN.txt	BULL	FarmAnimals	8	7	[0, 0, 0]	n/a	catFR1	1	R1527J
757.416	0.766	782733	WORD_OFF	n/a	n/a	BULL	FarmAnimals	8	7	[0, 0, 0]	n/a	catFR1	1	R1527J
758.182	1.6	783495	WORD	n/a	wordpools/wordpool_categorized_EN.txt	OCTOPUS	OceanAnimals	9	7	[0, 0, 0]	n/a	catFR1	1	R1527J
759.782	0.8	785094	WORD_OFF	n/a	n/a	OCTOPUS	OceanAnimals	9	7	[0, 0, 0]	n/a	catFR1	1	R1527J
760.582	1.601	785902	WORD	n/a	wordpools/wordpool_categorized_EN.txt	JELLYFISH	OceanAnimals	10	7	[0, 0, 0]	n/a	catFR1	1	R1527J
762.183	0.799	787500	WORD_OFF	n/a	n/a	JELLYFISH	OceanAnimals	10	7	[0, 0, 0]	n/a	catFR1	1	R1527J
762.982	1.6	788299	WORD	n/a	wordpools/wordpool_categorized_EN.txt	RAIN	Weather	11	7	[0, 0, 0]	n/a	catFR1	1	R1527J
764.582	0.966	789897	WORD_OFF	n/a	n/a	RAIN	Weather	11	7	[0, 0, 0]	n/a	catFR1	1	R1527J
765.548	1.601	790862	WORD	n/a	wordpools/wordpool_categorized_EN.txt	WIND	Weather	12	7	[0, 0, 0]	n/a	catFR1	1	R1527J
767.149	0.002	792461	PROB	0.002	n/a	n/a	n/a	-999	7	[4, 1, 6]	11	catFR1	1	R1527J
767.151	0.0	792463	START	n/a	n/a	n/a	n/a	-999	7	[-999, -999, -999]	n/a	catFR1	1	R1527J
767.15	0.001	792469	WORD_OFF	n/a	n/a	WIND	Weather	12	7	[0, 0, 0]	n/a	catFR1	1	R1527J
767.151	0.0	792469	ENCODING_END	n/a	n/a	n/a	n/a	-999	7	[0, 0, 0]	n/a	catFR1	1	R1527J
767.151	3.631	792469	DISTRACT_START	n/a	n/a	n/a	n/a	-999	7	[0, 0, 0]	n/a	catFR1	1	R1527J
770.782	2.717	796094	PROB	2.717	n/a	n/a	n/a	-999	7	[2, 4, 6]	12	catFR1	1	R1527J
773.499	3.332	798811	PROB	3.332	n/a	n/a	n/a	-999	7	[4, 1, 3]	8	catFR1	1	R1527J
776.831	2.485	802143	PROB	2.485	n/a	n/a	n/a	-999	7	[8, 2, 2]	12	catFR1	1	R1527J
779.316	2.4	804628	PROB	2.4	n/a	n/a	n/a	-999	7	[1, 1, 6]	8	catFR1	1	R1527J
781.716	3.833	807028	PROB	3.833	n/a	n/a	n/a	-999	7	[8, 7, 7]	22	catFR1	1	R1527J
785.549	3.999	810861	PROB	3.999	n/a	n/a	n/a	-999	7	[6, 8, 1]	15	catFR1	1	R1527J
789.548	0.0	814859	STOP	n/a	n/a	n/a	n/a	-999	7	[-999, -999, -999]	n/a	catFR1	1	R1527J
789.548	1.884	814863	DISTRACT_END	n/a	n/a	n/a	n/a	-999	7	[0, 0, 0]	n/a	catFR1	1	R1527J
791.432	1.019	816746	REC_START	n/a	n/a	n/a	n/a	-999	7	[0, 0, 0]	n/a	catFR1	1	R1527J
792.451	1.261	817762	REC_WORD	1.261	n/a	ROOSTER	FarmAnimals	1	7	[0, 0, 0]	n/a	catFR1	1	R1527J
793.712	1.434	819023	REC_WORD	1.434	n/a	CHICKEN	FarmAnimals	2	7	[0, 0, 0]	n/a	catFR1	1	R1527J
795.146	1.761	820457	REC_WORD	1.761	n/a	FISH	OceanAnimals	5	7	[0, 0, 0]	n/a	catFR1	1	R1527J
796.907	1.0	822218	REC_WORD	1.0	n/a	JELLYFISH	OceanAnimals	10	7	[0, 0, 0]	n/a	catFR1	1	R1527J
797.907	1.034	823218	REC_WORD_VV	1.034	n/a	<>	n/a	-999	7	[0, 0, 0]	n/a	catFR1	1	R1527J
798.941	1.763	824252	REC_WORD	1.763	n/a	OCTOPUS	OceanAnimals	9	7	[0, 0, 0]	n/a	catFR1	1	R1527J
800.704	0.52	826015	REC_WORD_VV	0.52	n/a	<>	n/a	-999	7	[0, 0, 0]	n/a	catFR1	1	R1527J
801.224	2.634	826535	REC_WORD	2.634	n/a	THUNDERSTORM	Weather	3	7	[0, 0, 0]	n/a	catFR1	1	R1527J
803.858	9.939	829169	REC_WORD	9.939	n/a	HURRICANE	Weather	4	7	[0, 0, 0]	n/a	catFR1	1	R1527J
813.797	7.883	839107	REC_WORD_VV	7.883	n/a	<>	n/a	-999	7	[0, 0, 0]	n/a	catFR1	1	R1527J
821.68	1.77	846992	REC_END	n/a	n/a	n/a	n/a	-999	7	[0, 0, 0]	n/a	catFR1	1	R1527J
823.45	10.35	848765	COUNTDOWN_START	n/a	n/a	n/a	n/a	-999	7	[0, 0, 0]	n/a	catFR1	1	R1527J
833.8	0.0	859108	COUNTDOWN_END	n/a	n/a	n/a	n/a	-999	7	[0, 0, 0]	n/a	catFR1	1	R1527J
833.8	2.05	859117	ENCODING_START	n/a	n/a	n/a	n/a	-999	8	[0, 0, 0]	n/a	catFR1	1	R1527J
835.85	1.6	861165	WORD	n/a	wordpools/wordpool_categorized_EN.txt	CHEETAH	Zoo	1	8	[0, 0, 0]	n/a	catFR1	1	R1527J
837.45	0.9	862763	WORD_OFF	n/a	n/a	CHEETAH	Zoo	1	8	[0, 0, 0]	n/a	catFR1	1	R1527J
838.35	1.6	863664	WORD	n/a	wordpools/wordpool_categorized_EN.txt	ELEPHANT	Zoo	2	8	[0, 0, 0]	n/a	catFR1	1	R1527J
839.95	0.799	865262	WORD_OFF	n/a	n/a	ELEPHANT	Zoo	2	8	[0, 0, 0]	n/a	catFR1	1	R1527J
840.749	1.601	866061	WORD	n/a	wordpools/wordpool_categorized_EN.txt	ROACH	Insects	3	8	[0, 0, 0]	n/a	catFR1	1	R1527J
842.35	0.817	867659	WORD_OFF	n/a	n/a	ROACH	Insects	3	8	[0, 0, 0]	n/a	catFR1	1	R1527J
843.167	1.616	868477	WORD	n/a	wordpools/wordpool_categorized_EN.txt	BUTTERFLY	Insects	4	8	[0, 0, 0]	n/a	catFR1	1	R1527J
844.783	0.984	870093	WORD_OFF	n/a	n/a	BUTTERFLY	Insects	4	8	[0, 0, 0]	n/a	catFR1	1	R1527J
845.767	1.616	871076	WORD	n/a	wordpools/wordpool_categorized_EN.txt	TURKEY	FarmAnimals	5	8	[0, 0, 0]	n/a	catFR1	1	R1527J
847.383	0.983	872693	WORD_OFF	n/a	n/a	TURKEY	FarmAnimals	5	8	[0, 0, 0]	n/a	catFR1	1	R1527J
848.366	1.6	873675	WORD	n/a	wordpools/wordpool_categorized_EN.txt	GOAT	FarmAnimals	6	8	[0, 0, 0]	n/a	catFR1	1	R1527J
849.966	0.9	875274	WORD_OFF	n/a	n/a	GOAT	FarmAnimals	6	8	[0, 0, 0]	n/a	catFR1	1	R1527J
850.866	1.6	876174	WORD	n/a	wordpools/wordpool_categorized_EN.txt	CRICKET	Insects	7	8	[0, 0, 0]	n/a	catFR1	1	R1527J
852.466	0.983	877781	WORD_OFF	n/a	n/a	CRICKET	Insects	7	8	[0, 0, 0]	n/a	catFR1	1	R1527J
853.449	1.616	878764	WORD	n/a	wordpools/wordpool_categorized_EN.txt	ANT	Insects	8	8	[0, 0, 0]	n/a	catFR1	1	R1527J
855.065	0.934	880371	WORD_OFF	n/a	n/a	ANT	Insects	8	8	[0, 0, 0]	n/a	catFR1	1	R1527J
855.999	1.617	881308	WORD	n/a	wordpools/wordpool_categorized_EN.txt	PANDA	Zoo	9	8	[0, 0, 0]	n/a	catFR1	1	R1527J
857.616	0.966	882925	WORD_OFF	n/a	n/a	PANDA	Zoo	9	8	[0, 0, 0]	n/a	catFR1	1	R1527J
858.582	1.618	883889	WORD	n/a	wordpools/wordpool_categorized_EN.txt	TIGER	Zoo	10	8	[0, 0, 0]	n/a	catFR1	1	R1527J
860.2	0.798	885506	WORD_OFF	n/a	n/a	TIGER	Zoo	10	8	[0, 0, 0]	n/a	catFR1	1	R1527J
860.998	1.617	886305	WORD	n/a	wordpools/wordpool_categorized_EN.txt	PIG	FarmAnimals	11	8	[0, 0, 0]	n/a	catFR1	1	R1527J
862.615	0.768	887922	WORD_OFF	n/a	n/a	PIG	FarmAnimals	11	8	[0, 0, 0]	n/a	catFR1	1	R1527J
863.383	1.616	888693	WORD	n/a	wordpools/wordpool_categorized_EN.txt	COW	FarmAnimals	12	8	[0, 0, 0]	n/a	catFR1	1	R1527J
864.999	0.001	890306	PROB	0.001	n/a	n/a	n/a	-999	8	[8, 6, 6]	20	catFR1	1	R1527J
865.0	0.0	890307	START	n/a	n/a	n/a	n/a	-999	8	[-999, -999, -999]	n/a	catFR1	1	R1527J
864.998	0.001	890310	WORD_OFF	n/a	n/a	COW	FarmAnimals	12	8	[0, 0, 0]	n/a	catFR1	1	R1527J
864.999	0.001	890310	ENCODING_END	n/a	n/a	n/a	n/a	-999	8	[0, 0, 0]	n/a	catFR1	1	R1527J
865.0	6.517	890310	DISTRACT_START	n/a	n/a	n/a	n/a	-999	8	[0, 0, 0]	n/a	catFR1	1	R1527J
871.517	3.516	896824	PROB	3.516	n/a	n/a	n/a	-999	8	[5, 3, 5]	13	catFR1	1	R1527J
875.033	3.467	900340	PROB	3.467	n/a	n/a	n/a	-999	8	[3, 8, 1]	12	catFR1	1	R1527J
878.5	2.698	903807	PROB	2.698	n/a	n/a	n/a	-999	8	[8, 1, 8]	17	catFR1	1	R1527J
881.198	3.251	906504	PROB	3.251	n/a	n/a	n/a	-999	8	[1, 1, 7]	9	catFR1	1	R1527J
884.449	2.883	909755	PROB	2.883	n/a	n/a	n/a	-999	8	[8, 8, 1]	17	catFR1	1	R1527J
887.332	0.0	912638	STOP	n/a	n/a	n/a	n/a	-999	8	[-999, -999, -999]	n/a	catFR1	1	R1527J
887.332	1.633	912639	DISTRACT_END	n/a	n/a	n/a	n/a	-999	8	[0, 0, 0]	n/a	catFR1	1	R1527J
888.965	0.749	914274	REC_START	n/a	n/a	n/a	n/a	-999	8	[0, 0, 0]	n/a	catFR1	1	R1527J
889.714	1.047	915020	REC_WORD_VV	1.047	n/a	<>	n/a	-999	8	[0, 0, 0]	n/a	catFR1	1	R1527J
890.761	1.734	916067	REC_WORD	1.734	n/a	PANDA	Zoo	9	8	[0, 0, 0]	n/a	catFR1	1	R1527J
892.495	1.512	917801	REC_WORD	1.512	n/a	ROACH	Insects	3	8	[0, 0, 0]	n/a	catFR1	1	R1527J
894.007	1.823	919313	REC_WORD	1.823	n/a	ANT	Insects	8	8	[0, 0, 0]	n/a	catFR1	1	R1527J
895.83	3.971	921136	REC_WORD_VV	3.971	n/a	<>	n/a	-999	8	[0, 0, 0]	n/a	catFR1	1	R1527J
899.801	1.595	925106	REC_WORD_VV	1.595	n/a	<>	n/a	-999	8	[0, 0, 0]	n/a	catFR1	1	R1527J
901.396	0.22	926701	REC_WORD	0.22	n/a	PANDA	Zoo	9	8	[0, 0, 0]	n/a	catFR1	1	R1527J
901.616	0.859	926921	REC_WORD	0.859	n/a	ROACH	Insects	3	8	[0, 0, 0]	n/a	catFR1	1	R1527J
902.475	5.008	927780	REC_WORD	5.008	n/a	ANT	Insects	8	8	[0, 0, 0]	n/a	catFR1	1	R1527J
907.483	2.631	932788	REC_WORD_VV	2.631	n/a	<>	n/a	-999	8	[0, 0, 0]	n/a	catFR1	1	R1527J
910.114	9.101	935419	REC_WORD	9.101	n/a	LION	Zoo	-999	8	[0, 0, 0]	n/a	catFR1	1	R1527J
919.215	1.518	944521	REC_END	n/a	n/a	n/a	n/a	-999	8	[0, 0, 0]	n/a	catFR1	1	R1527J
920.733	10.35	946045	COUNTDOWN_START	n/a	n/a	n/a	n/a	-999	8	[0, 0, 0]	n/a	catFR1	1	R1527J
931.083	0.0	956388	COUNTDOWN_END	n/a	n/a	n/a	n/a	-999	8	[0, 0, 0]	n/a	catFR1	1	R1527J
931.083	2.016	956388	ENCODING_START	n/a	n/a	n/a	n/a	-999	9	[0, 0, 0]	n/a	catFR1	1	R1527J
933.099	1.601	958409	WORD	n/a	wordpools/wordpool_categorized_EN.txt	PEELER	KitchenTools	1	9	[0, 0, 0]	n/a	catFR1	1	R1527J
934.7	0.983	960007	WORD_OFF	n/a	n/a	PEELER	KitchenTools	1	9	[0, 0, 0]	n/a	catFR1	1	R1527J
935.683	1.6	960990	WORD	n/a	wordpools/wordpool_categorized_EN.txt	LADLE	KitchenTools	2	9	[0, 0, 0]	n/a	catFR1	1	R1527J
937.283	0.883	962588	WORD_OFF	n/a	n/a	LADLE	KitchenTools	2	9	[0, 0, 0]	n/a	catFR1	1	R1527J
938.166	1.617	963470	WORD	n/a	wordpools/wordpool_categorized_EN.txt	REFRIGERATOR	Appliances	3	9	[0, 0, 0]	n/a	catFR1	1	R1527J
939.783	0.866	965086	WORD_OFF	n/a	n/a	REFRIGERATOR	Appliances	3	9	[0, 0, 0]	n/a	catFR1	1	R1527J
940.649	1.601	965959	WORD	n/a	wordpools/wordpool_categorized_EN.txt	BLENDER	Appliances	4	9	[0, 0, 0]	n/a	catFR1	1	R1527J
942.25	0.883	967557	WORD_OFF	n/a	n/a	BLENDER	Appliances	4	9	[0, 0, 0]	n/a	catFR1	1	R1527J
943.133	1.617	968439	WORD	n/a	wordpools/wordpool_categorized_EN.txt	SPANDEX	Fabric	5	9	[0, 0, 0]	n/a	catFR1	1	R1527J
944.75	0.815	970056	WORD_OFF	n/a	n/a	SPANDEX	Fabric	5	9	[0, 0, 0]	n/a	catFR1	1	R1527J
945.565	1.601	970873	WORD	n/a	wordpools/wordpool_categorized_EN.txt	COTTON	Fabric	6	9	[0, 0, 0]	n/a	catFR1	1	R1527J
947.166	0.95	972471	WORD_OFF	n/a	n/a	COTTON	Fabric	6	9	[0, 0, 0]	n/a	catFR1	1	R1527J
948.116	1.6	973421	WORD	n/a	wordpools/wordpool_categorized_EN.txt	COLANDER	KitchenTools	7	9	[0, 0, 0]	n/a	catFR1	1	R1527J
949.716	0.9	975025	WORD_OFF	n/a	n/a	COLANDER	KitchenTools	7	9	[0, 0, 0]	n/a	catFR1	1	R1527J
950.616	1.6	975925	WORD	n/a	wordpools/wordpool_categorized_EN.txt	CORKSCREW	KitchenTools	8	9	[0, 0, 0]	n/a	catFR1	1	R1527J
952.216	0.983	977523	WORD_OFF	n/a	n/a	CORKSCREW	KitchenTools	8	9	[0, 0, 0]	n/a	catFR1	1	R1527J
953.199	1.6	978506	WORD	n/a	wordpools/wordpool_categorized_EN.txt	SATIN	Fabric	9	9	[0, 0, 0]	n/a	catFR1	1	R1527J
954.799	0.883	980104	WORD_OFF	n/a	n/a	SATIN	Fabric	9	9	[0, 0, 0]	n/a	catFR1	1	R1527J
955.682	1.601	980986	WORD	n/a	wordpools/wordpool_categorized_EN.txt	SILK	Fabric	10	9	[0, 0, 0]	n/a	catFR1	1	R1527J
957.283	0.833	982584	WORD_OFF	n/a	n/a	SILK	Fabric	10	9	[0, 0, 0]	n/a	catFR1	1	R1527J
958.116	1.615	983420	WORD	n/a	wordpools/wordpool_categorized_EN.txt	STOVE	Appliances	11	9	[0, 0, 0]	n/a	catFR1	1	R1527J
959.731	0.934	985037	WORD_OFF	n/a	n/a	STOVE	Appliances	11	9	[0, 0, 0]	n/a	catFR1	1	R1527J
960.665	1.601	985973	WORD	n/a	wordpools/wordpool_categorized_EN.txt	FREEZER	Appliances	12	9	[0, 0, 0]	n/a	catFR1	1	R1527J
962.266	0.0	987568	START	n/a	n/a	n/a	n/a	-999	9	[-999, -999, -999]	n/a	catFR1	1	R1527J
962.266	0.0	987568	PROB	0.0	n/a	n/a	n/a	-999	9	[5, 7, 6]	18	catFR1	1	R1527J
962.265	0.001	987572	WORD_OFF	n/a	n/a	FREEZER	Appliances	12	9	[0, 0, 0]	n/a	catFR1	1	R1527J
962.266	0.0	987581	ENCODING_END	n/a	n/a	n/a	n/a	-999	9	[0, 0, 0]	n/a	catFR1	1	R1527J
962.266	4.983	987590	DISTRACT_START	n/a	n/a	n/a	n/a	-999	9	[0, 0, 0]	n/a	catFR1	1	R1527J
967.249	4.182	992551	PROB	4.182	n/a	n/a	n/a	-999	9	[8, 4, 1]	13	catFR1	1	R1527J
971.431	3.752	996733	PROB	3.752	n/a	n/a	n/a	-999	9	[2, 7, 7]	16	catFR1	1	R1527J
975.183	5.433	1000485	PROB	5.433	n/a	n/a	n/a	-999	9	[4, 6, 7]	17	catFR1	1	R1527J
980.616	3.735	1005917	PROB	3.735	n/a	n/a	n/a	-999	9	[3, 4, 6]	13	catFR1	1	R1527J
984.351	0.0	1009652	STOP	n/a	n/a	n/a	n/a	-999	9	[-999, -999, -999]	n/a	catFR1	1	R1527J
984.351	1.898	1009653	DISTRACT_END	n/a	n/a	n/a	n/a	-999	9	[0, 0, 0]	n/a	catFR1	1	R1527J
986.249	0.823	1011554	REC_START	n/a	n/a	n/a	n/a	-999	9	[0, 0, 0]	n/a	catFR1	1	R1527J
987.072	0.64	1012373	REC_WORD_VV	0.64	n/a	<>	n/a	-999	9	[0, 0, 0]	n/a	catFR1	1	R1527J
987.712	1.52	1013013	REC_WORD	1.52	n/a	PEELER	KitchenTools	1	9	[0, 0, 0]	n/a	catFR1	1	R1527J
989.232	1.342	1014533	REC_WORD	1.342	n/a	CORKSCREW	KitchenTools	8	9	[0, 0, 0]	n/a	catFR1	1	R1527J
990.574	1.794	1015875	REC_WORD	1.794	n/a	LADLE	KitchenTools	2	9	[0, 0, 0]	n/a	catFR1	1	R1527J
992.368	1.617	1017669	REC_WORD	1.617	n/a	COLANDER	KitchenTools	7	9	[0, 0, 0]	n/a	catFR1	1	R1527J
993.985	1.877	1019286	REC_WORD	1.877	n/a	FREEZER	Appliances	12	9	[0, 0, 0]	n/a	catFR1	1	R1527J
995.862	1.798	1021162	REC_WORD	1.798	n/a	SATIN	Fabric	9	9	[0, 0, 0]	n/a	catFR1	1	R1527J
997.66	1.394	1022960	REC_WORD	1.394	n/a	SILK	Fabric	10	9	[0, 0, 0]	n/a	catFR1	1	R1527J
999.054	1.047	1024354	REC_WORD	1.047	n/a	COTTON	Fabric	6	9	[0, 0, 0]	n/a	catFR1	1	R1527J
1000.101	1.0	1025401	REC_WORD	1.0	n/a	SPANDEX	Fabric	5	9	[0, 0, 0]	n/a	catFR1	1	R1527J
1001.101	4.812	1026401	REC_WORD_VV	4.812	n/a	<>	n/a	-999	9	[0, 0, 0]	n/a	catFR1	1	R1527J
1005.913	5.543	1031213	REC_WORD_VV	5.543	n/a	<>	n/a	-999	9	[0, 0, 0]	n/a	catFR1	1	R1527J
1011.456	0.862	1036756	REC_WORD	0.862	n/a	REFRIGERATOR	Appliances	3	9	[0, 0, 0]	n/a	catFR1	1	R1527J
1012.318	0.998	1037618	REC_WORD_VV	0.998	n/a	<>	n/a	-999	9	[0, 0, 0]	n/a	catFR1	1	R1527J
1013.316	3.182	1038615	REC_WORD_VV	3.182	n/a	<>	n/a	-999	9	[0, 0, 0]	n/a	catFR1	1	R1527J
1016.498	1.485	1041801	REC_END	n/a	n/a	n/a	n/a	-999	9	[0, 0, 0]	n/a	catFR1	1	R1527J
1017.983	10.349	1043289	COUNTDOWN_START	n/a	n/a	n/a	n/a	-999	9	[0, 0, 0]	n/a	catFR1	1	R1527J
1028.332	0.0	1053631	COUNTDOWN_END	n/a	n/a	n/a	n/a	-999	9	[0, 0, 0]	n/a	catFR1	1	R1527J
1028.332	2.118	1053631	ENCODING_START	n/a	n/a	n/a	n/a	-999	10	[0, 0, 0]	n/a	catFR1	1	R1527J
1030.45	1.6	1055753	WORD	n/a	wordpools/wordpool_categorized_EN.txt	PEN	OfficeSupplies	1	10	[0, 0, 0]	n/a	catFR1	1	R1527J
1032.05	0.817	1057351	WORD_OFF	n/a	n/a	PEN	OfficeSupplies	1	10	[0, 0, 0]	n/a	catFR1	1	R1527J
1032.867	1.6	1058169	WORD	n/a	wordpools/wordpool_categorized_EN.txt	PAPER	OfficeSupplies	2	10	[0, 0, 0]	n/a	catFR1	1	R1527J
1034.467	0.799	1059767	WORD_OFF	n/a	n/a	PAPER	OfficeSupplies	2	10	[0, 0, 0]	n/a	catFR1	1	R1527J
1035.266	1.617	1060566	WORD	n/a	wordpools/wordpool_categorized_EN.txt	LADYBUG	Insects	3	10	[0, 0, 0]	n/a	catFR1	1	R1527J
1036.883	0.967	1062183	WORD_OFF	n/a	n/a	LADYBUG	Insects	3	10	[0, 0, 0]	n/a	catFR1	1	R1527J
1037.85	1.616	1063147	WORD	n/a	wordpools/wordpool_categorized_EN.txt	SPIDER	Insects	4	10	[0, 0, 0]	n/a	catFR1	1	R1527J
1039.466	0.766	1064764	WORD_OFF	n/a	n/a	SPIDER	Insects	4	10	[0, 0, 0]	n/a	catFR1	1	R1527J
1040.232	1.601	1065535	WORD	n/a	wordpools/wordpool_categorized_EN.txt	PIGEON	Birds	5	10	[0, 0, 0]	n/a	catFR1	1	R1527J
1041.833	0.783	1067134	WORD_OFF	n/a	n/a	PIGEON	Birds	5	10	[0, 0, 0]	n/a	catFR1	1	R1527J
1042.616	1.6	1067914	WORD	n/a	wordpools/wordpool_categorized_EN.txt	SEAGULL	Birds	6	10	[0, 0, 0]	n/a	catFR1	1	R1527J
1044.216	0.833	1069513	WORD_OFF	n/a	n/a	SEAGULL	Birds	6	10	[0, 0, 0]	n/a	catFR1	1	R1527J
1045.049	1.617	1070349	WORD	n/a	wordpools/wordpool_categorized_EN.txt	GNAT	Insects	7	10	[0, 0, 0]	n/a	catFR1	1	R1527J
1046.666	0.933	1071965	WORD_OFF	n/a	n/a	GNAT	Insects	7	10	[0, 0, 0]	n/a	catFR1	1	R1527J
1047.599	1.6	1072902	WORD	n/a	wordpools/wordpool_categorized_EN.txt	FLY	Insects	8	10	[0, 0, 0]	n/a	catFR1	1	R1527J
1049.199	1.0	1074500	WORD_OFF	n/a	n/a	FLY	Insects	8	10	[0, 0, 0]	n/a	catFR1	1	R1527J
1050.199	1.6	1075501	WORD	n/a	wordpools/wordpool_categorized_EN.txt	CROW	Birds	9	10	[0, 0, 0]	n/a	catFR1	1	R1527J
1051.799	0.983	1077100	WORD_OFF	n/a	n/a	CROW	Birds	9	10	[0, 0, 0]	n/a	catFR1	1	R1527J
1052.782	1.601	1078082	WORD	n/a	wordpools/wordpool_categorized_EN.txt	CARDINAL	Birds	10	10	[0, 0, 0]	n/a	catFR1	1	R1527J
1054.383	0.866	1079681	WORD_OFF	n/a	n/a	CARDINAL	Birds	10	10	[0, 0, 0]	n/a	catFR1	1	R1527J
1055.249	1.616	1080544	WORD	n/a	wordpools/wordpool_categorized_EN.txt	STAPLER	OfficeSupplies	11	10	[0, 0, 0]	n/a	catFR1	1	R1527J
1056.865	0.884	1082161	WORD_OFF	n/a	n/a	STAPLER	OfficeSupplies	11	10	[0, 0, 0]	n/a	catFR1	1	R1527J
1057.749	1.618	1083052	WORD	n/a	wordpools/wordpool_categorized_EN.txt	PENCIL	OfficeSupplies	12	10	[0, 0, 0]	n/a	catFR1	1	R1527J
1059.367	0.0	1084664	PROB	0.0	n/a	n/a	n/a	-999	10	[4, 2, 3]	9	catFR1	1	R1527J
1059.367	0.0	1084664	START	n/a	n/a	n/a	n/a	-999	10	[-999, -999, -999]	n/a	catFR1	1	R1527J
1059.365	0.002	1084668	WORD_OFF	n/a	n/a	PENCIL	OfficeSupplies	12	10	[0, 0, 0]	n/a	catFR1	1	R1527J
1059.367	0.0	1084668	ENCODING_END	n/a	n/a	n/a	n/a	-999	10	[0, 0, 0]	n/a	catFR1	1	R1527J
1059.367	3.732	1084668	DISTRACT_START	n/a	n/a	n/a	n/a	-999	10	[0, 0, 0]	n/a	catFR1	1	R1527J
1063.099	2.317	1088396	PROB	2.317	n/a	n/a	n/a	-999	10	[1, 6, 6]	13	catFR1	1	R1527J
1065.416	3.4	1090713	PROB	3.4	n/a	n/a	n/a	-999	10	[4, 8, 6]	18	catFR1	1	R1527J
1068.816	3.299	1094113	PROB	3.299	n/a	n/a	n/a	-999	10	[8, 5, 4]	17	catFR1	1	R1527J
1072.115	3.667	1097411	PROB	3.667	n/a	n/a	n/a	-999	10	[6, 2, 4]	12	catFR1	1	R1527J
1075.782	2.35	1101078	PROB	2.35	n/a	n/a	n/a	-999	10	[1, 4, 6]	11	catFR1	1	R1527J
1078.132	4.082	1103428	PROB	4.082	n/a	n/a	n/a	-999	10	[8, 3, 6]	17	catFR1	1	R1527J
1082.214	0.0	1107510	STOP	n/a	n/a	n/a	n/a	-999	10	[-999, -999, -999]	n/a	catFR1	1	R1527J
1082.214	1.784	1107512	DISTRACT_END	n/a	n/a	n/a	n/a	-999	10	[0, 0, 0]	n/a	catFR1	1	R1527J
1083.998	0.477	1109294	REC_START	n/a	n/a	n/a	n/a	-999	10	[0, 0, 0]	n/a	catFR1	1	R1527J
1084.475	0.931	1109771	REC_WORD_VV	0.931	n/a	<>	n/a	-999	10	[0, 0, 0]	n/a	catFR1	1	R1527J
1085.406	1.335	1110702	REC_WORD	1.335	n/a	STAPLER	OfficeSupplies	11	10	[0, 0, 0]	n/a	catFR1	1	R1527J
1086.741	1.927	1112037	REC_WORD	1.927	n/a	CROW	Birds	9	10	[0, 0, 0]	n/a	catFR1	1	R1527J
1088.668	1.601	1113964	REC_WORD_VV	1.601	n/a	<>	n/a	-999	10	[0, 0, 0]	n/a	catFR1	1	R1527J
1090.269	2.233	1115564	REC_WORD	2.233	n/a	ROACH	Insects	-999	10	[0, 0, 0]	n/a	catFR1	1	R1527J
1092.502	4.507	1117797	REC_WORD_VV	4.507	n/a	<>	n/a	-999	10	[0, 0, 0]	n/a	catFR1	1	R1527J
1097.009	4.023	1122304	REC_WORD_VV	4.023	n/a	<>	n/a	-999	10	[0, 0, 0]	n/a	catFR1	1	R1527J
1101.032	3.656	1126327	REC_WORD_VV	3.656	n/a	<>	n/a	-999	10	[0, 0, 0]	n/a	catFR1	1	R1527J
1104.688	2.371	1129983	REC_WORD	2.371	n/a	LADYBUG	Insects	3	10	[0, 0, 0]	n/a	catFR1	1	R1527J
1107.059	7.181	1132354	REC_WORD	7.181	n/a	SPIDER	Insects	4	10	[0, 0, 0]	n/a	catFR1	1	R1527J
1114.24	1.427	1139540	REC_END	n/a	n/a	n/a	n/a	-999	10	[0, 0, 0]	n/a	catFR1	1	R1527J
1115.667	10.349	1140964	COUNTDOWN_START	n/a	n/a	n/a	n/a	-999	10	[0, 0, 0]	n/a	catFR1	1	R1527J
1126.016	0.0	1151316	COUNTDOWN_END	n/a	n/a	n/a	n/a	-999	10	[0, 0, 0]	n/a	catFR1	1	R1527J
1126.016	1.999	1151316	ENCODING_START	n/a	n/a	n/a	n/a	-999	11	[0, 0, 0]	n/a	catFR1	1	R1527J
1128.015	1.601	1153309	WORD	n/a	wordpools/wordpool_categorized_EN.txt	LINEN	Fabric	1	11	[0, 0, 0]	n/a	catFR1	1	R1527J
1129.616	0.867	1154916	WORD_OFF	n/a	n/a	LINEN	Fabric	1	11	[0, 0, 0]	n/a	catFR1	1	R1527J
1130.483	1.617	1155780	WORD	n/a	wordpools/wordpool_categorized_EN.txt	WOOL	Fabric	2	11	[0, 0, 0]	n/a	catFR1	1	R1527J
1132.1	0.899	1157396	WORD_OFF	n/a	n/a	WOOL	Fabric	2	11	[0, 0, 0]	n/a	catFR1	1	R1527J
1132.999	1.601	1158297	WORD	n/a	wordpools/wordpool_categorized_EN.txt	MOSQUITO	Insects	3	11	[0, 0, 0]	n/a	catFR1	1	R1527J
1134.6	0.9	1159895	WORD_OFF	n/a	n/a	MOSQUITO	Insects	3	11	[0, 0, 0]	n/a	catFR1	1	R1527J
1135.5	1.6	1160795	WORD	n/a	wordpools/wordpool_categorized_EN.txt	BEETLE	Insects	4	11	[0, 0, 0]	n/a	catFR1	1	R1527J
1137.1	0.848	1162393	WORD_OFF	n/a	n/a	BEETLE	Insects	4	11	[0, 0, 0]	n/a	catFR1	1	R1527J
1137.948	1.601	1163247	WORD	n/a	wordpools/wordpool_categorized_EN.txt	TULIP	Flowers	5	11	[0, 0, 0]	n/a	catFR1	1	R1527J
1139.549	0.801	1164846	WORD_OFF	n/a	n/a	TULIP	Flowers	5	11	[0, 0, 0]	n/a	catFR1	1	R1527J
1140.35	1.616	1165645	WORD	n/a	wordpools/wordpool_categorized_EN.txt	LILY	Flowers	6	11	[0, 0, 0]	n/a	catFR1	1	R1527J
1141.966	0.933	1167261	WORD_OFF	n/a	n/a	LILY	Flowers	6	11	[0, 0, 0]	n/a	catFR1	1	R1527J
1142.899	1.616	1168198	WORD	n/a	wordpools/wordpool_categorized_EN.txt	LEATHER	Fabric	7	11	[0, 0, 0]	n/a	catFR1	1	R1527J
1144.515	0.984	1169815	WORD_OFF	n/a	n/a	LEATHER	Fabric	7	11	[0, 0, 0]	n/a	catFR1	1	R1527J
1145.499	1.601	1170798	WORD	n/a	wordpools/wordpool_categorized_EN.txt	NYLON	Fabric	8	11	[0, 0, 0]	n/a	catFR1	1	R1527J
1147.1	0.766	1172396	WORD_OFF	n/a	n/a	NYLON	Fabric	8	11	[0, 0, 0]	n/a	catFR1	1	R1527J
1147.866	1.6	1173158	WORD	n/a	wordpools/wordpool_categorized_EN.txt	MOTH	Insects	9	11	[0, 0, 0]	n/a	catFR1	1	R1527J
1149.466	0.983	1174756	WORD_OFF	n/a	n/a	MOTH	Insects	9	11	[0, 0, 0]	n/a	catFR1	1	R1527J
1150.449	1.6	1175739	WORD	n/a	wordpools/wordpool_categorized_EN.txt	BEE	Insects	10	11	[0, 0, 0]	n/a	catFR1	1	R1527J
1152.049	0.866	1177347	WORD_OFF	n/a	n/a	BEE	Insects	10	11	[0, 0, 0]	n/a	catFR1	1	R1527J
1152.915	1.6	1178210	WORD	n/a	wordpools/wordpool_categorized_EN.txt	CARNATION	Flowers	11	11	[0, 0, 0]	n/a	catFR1	1	R1527J
1154.515	0.967	1179808	WORD_OFF	n/a	n/a	CARNATION	Flowers	11	11	[0, 0, 0]	n/a	catFR1	1	R1527J
1155.482	1.6	1180773	WORD	n/a	wordpools/wordpool_categorized_EN.txt	DAFFODIL	Flowers	12	11	[0, 0, 0]	n/a	catFR1	1	R1527J
1157.082	0.001	1182374	PROB	0.001	n/a	n/a	n/a	-999	11	[8, 2, 1]	11	catFR1	1	R1527J
1157.083	0.0	1182375	START	n/a	n/a	n/a	n/a	-999	11	[-999, -999, -999]	n/a	catFR1	1	R1527J
1157.082	0.001	1182380	WORD_OFF	n/a	n/a	DAFFODIL	Flowers	12	11	[0, 0, 0]	n/a	catFR1	1	R1527J
1157.083	0.0	1182380	ENCODING_END	n/a	n/a	n/a	n/a	-999	11	[0, 0, 0]	n/a	catFR1	1	R1527J
1157.083	2.766	1182380	DISTRACT_START	n/a	n/a	n/a	n/a	-999	11	[0, 0, 0]	n/a	catFR1	1	R1527J
1159.849	3.384	1185141	PROB	3.384	n/a	n/a	n/a	-999	11	[8, 3, 2]	13	catFR1	1	R1527J
1163.233	2.932	1188525	PROB	2.932	n/a	n/a	n/a	-999	11	[8, 7, 2]	17	catFR1	1	R1527J
1166.165	2.667	1191456	PROB	2.667	n/a	n/a	n/a	-999	11	[7, 4, 1]	12	catFR1	1	R1527J
1168.832	3.634	1194123	PROB	3.634	n/a	n/a	n/a	-999	11	[3, 1, 3]	7	catFR1	1	R1527J
1172.466	2.5	1197757	PROB	2.5	n/a	n/a	n/a	-999	11	[8, 2, 7]	17	catFR1	1	R1527J
1174.966	2.366	1200257	PROB	2.366	n/a	n/a	n/a	-999	11	[2, 2, 6]	10	catFR1	1	R1527J
1177.332	0.0	1202623	STOP	n/a	n/a	n/a	n/a	-999	11	[-999, -999, -999]	n/a	catFR1	1	R1527J
1177.332	1.733	1202624	DISTRACT_END	n/a	n/a	n/a	n/a	-999	11	[0, 0, 0]	n/a	catFR1	1	R1527J
1179.065	1.15	1204360	REC_START	n/a	n/a	n/a	n/a	-999	11	[0, 0, 0]	n/a	catFR1	1	R1527J
1180.215	1.37	1205506	REC_WORD	1.37	n/a	CARNATION	Flowers	11	11	[0, 0, 0]	n/a	catFR1	1	R1527J
1181.585	1.502	1206876	REC_WORD	1.502	n/a	LILY	Flowers	6	11	[0, 0, 0]	n/a	catFR1	1	R1527J
1183.087	1.874	1208378	REC_WORD	1.874	n/a	DAFFODIL	Flowers	12	11	[0, 0, 0]	n/a	catFR1	1	R1527J
1184.961	1.026	1210251	REC_WORD_VV	1.026	n/a	<>	n/a	-999	11	[0, 0, 0]	n/a	catFR1	1	R1527J
1185.987	5.085	1211277	REC_WORD	5.085	n/a	BEETLE	Insects	4	11	[0, 0, 0]	n/a	catFR1	1	R1527J
1191.072	7.57	1216362	REC_WORD_VV	7.57	n/a	<>	n/a	-999	11	[0, 0, 0]	n/a	catFR1	1	R1527J
1198.642	0.62	1223932	REC_WORD_VV	0.62	n/a	<>	n/a	-999	11	[0, 0, 0]	n/a	catFR1	1	R1527J
1199.262	7.146	1224552	REC_WORD_VV	7.146	n/a	<>	n/a	-999	11	[0, 0, 0]	n/a	catFR1	1	R1527J
1206.408	2.897	1231697	REC_WORD_VV	2.897	n/a	<>	n/a	-999	11	[0, 0, 0]	n/a	catFR1	1	R1527J
1209.305	1.562	1234598	REC_END	n/a	n/a	n/a	n/a	-999	11	[0, 0, 0]	n/a	catFR1	1	R1527J
1210.867	10.348	1236159	COUNTDOWN_START	n/a	n/a	n/a	n/a	-999	11	[0, 0, 0]	n/a	catFR1	1	R1527J
1221.215	0.0	1246511	COUNTDOWN_END	n/a	n/a	n/a	n/a	-999	11	[0, 0, 0]	n/a	catFR1	1	R1527J
1221.215	2.235	1246511	ENCODING_START	n/a	n/a	n/a	n/a	-999	12	[0, 0, 0]	n/a	catFR1	1	R1527J
1223.45	1.617	1248743	WORD	n/a	wordpools/wordpool_categorized_EN.txt	FOLDER	OfficeSupplies	1	12	[0, 0, 0]	n/a	catFR1	1	R1527J
1225.067	0.783	1250360	WORD_OFF	n/a	n/a	FOLDER	OfficeSupplies	1	12	[0, 0, 0]	n/a	catFR1	1	R1527J
1225.85	1.6	1251140	WORD	n/a	wordpools/wordpool_categorized_EN.txt	RULER	OfficeSupplies	2	12	[0, 0, 0]	n/a	catFR1	1	R1527J
1227.45	1.0	1252739	WORD_OFF	n/a	n/a	RULER	OfficeSupplies	2	12	[0, 0, 0]	n/a	catFR1	1	R1527J
1228.45	1.6	1253740	WORD	n/a	wordpools/wordpool_categorized_EN.txt	STRAINER	KitchenTools	3	12	[0, 0, 0]	n/a	catFR1	1	R1527J
1230.05	0.866	1255338	WORD_OFF	n/a	n/a	STRAINER	KitchenTools	3	12	[0, 0, 0]	n/a	catFR1	1	R1527J
1230.916	1.617	1256211	WORD	n/a	wordpools/wordpool_categorized_EN.txt	TONGS	KitchenTools	4	12	[0, 0, 0]	n/a	catFR1	1	R1527J
1232.533	0.8	1257827	WORD_OFF	n/a	n/a	TONGS	KitchenTools	4	12	[0, 0, 0]	n/a	catFR1	1	R1527J
1233.333	1.616	1258626	WORD	n/a	wordpools/wordpool_categorized_EN.txt	ORCHID	Flowers	5	12	[0, 0, 0]	n/a	catFR1	1	R1527J
1234.949	0.984	1260243	WORD_OFF	n/a	n/a	ORCHID	Flowers	5	12	[0, 0, 0]	n/a	catFR1	1	R1527J
1235.933	1.6	1261226	WORD	n/a	wordpools/wordpool_categorized_EN.txt	DAISY	Flowers	6	12	[0, 0, 0]	n/a	catFR1	1	R1527J
1237.533	0.998	1262824	WORD_OFF	n/a	n/a	DAISY	Flowers	6	12	[0, 0, 0]	n/a	catFR1	1	R1527J
1238.531	1.619	1263825	WORD	n/a	wordpools/wordpool_categorized_EN.txt	SPOON	KitchenTools	7	12	[0, 0, 0]	n/a	catFR1	1	R1527J
1240.15	0.783	1265442	WORD_OFF	n/a	n/a	SPOON	KitchenTools	7	12	[0, 0, 0]	n/a	catFR1	1	R1527J
1240.933	1.6	1266222	WORD	n/a	wordpools/wordpool_categorized_EN.txt	FORK	KitchenTools	8	12	[0, 0, 0]	n/a	catFR1	1	R1527J
1242.533	0.766	1267821	WORD_OFF	n/a	n/a	FORK	KitchenTools	8	12	[0, 0, 0]	n/a	catFR1	1	R1527J
1243.299	1.6	1268592	WORD	n/a	wordpools/wordpool_categorized_EN.txt	LILAC	Flowers	9	12	[0, 0, 0]	n/a	catFR1	1	R1527J
1244.899	0.8	1270190	WORD_OFF	n/a	n/a	LILAC	Flowers	9	12	[0, 0, 0]	n/a	catFR1	1	R1527J
1245.699	1.616	1270990	WORD	n/a	wordpools/wordpool_categorized_EN.txt	MARIGOLD	Flowers	10	12	[0, 0, 0]	n/a	catFR1	1	R1527J
1247.315	0.834	1272606	WORD_OFF	n/a	n/a	MARIGOLD	Flowers	10	12	[0, 0, 0]	n/a	catFR1	1	R1527J
1248.149	1.616	1273442	WORD	n/a	wordpools/wordpool_categorized_EN.txt	BINDER	OfficeSupplies	11	12	[0, 0, 0]	n/a	catFR1	1	R1527J
1249.765	0.999	1275059	WORD_OFF	n/a	n/a	BINDER	OfficeSupplies	11	12	[0, 0, 0]	n/a	catFR1	1	R1527J
1250.764	1.601	1276051	WORD	n/a	wordpools/wordpool_categorized_EN.txt	ERASER	OfficeSupplies	12	12	[0, 0, 0]	n/a	catFR1	1	R1527J
1252.365	0.002	1277652	PROB	0.002	n/a	n/a	n/a	-999	12	[3, 1, 2]	6	catFR1	1	R1527J
1252.367	0.0	1277654	START	n/a	n/a	n/a	n/a	-999	12	[-999, -999, -999]	n/a	catFR1	1	R1527J
1252.365	0.002	1277658	WORD_OFF	n/a	n/a	ERASER	OfficeSupplies	12	12	[0, 0, 0]	n/a	catFR1	1	R1527J
1252.367	0.0	1277658	ENCODING_END	n/a	n/a	n/a	n/a	-999	12	[0, 0, 0]	n/a	catFR1	1	R1527J
1252.367	3.982	1277658	DISTRACT_START	n/a	n/a	n/a	n/a	-999	12	[0, 0, 0]	n/a	catFR1	1	R1527J
1256.349	5.0	1281636	PROB	5.0	n/a	n/a	n/a	-999	12	[4, 8, 4]	16	catFR1	1	R1527J
1261.349	3.833	1286635	PROB	3.833	n/a	n/a	n/a	-999	12	[3, 1, 6]	10	catFR1	1	R1527J
1265.182	4.0	1290468	PROB	4.0	n/a	n/a	n/a	-999	12	[7, 4, 1]	12	catFR1	1	R1527J
1269.182	2.867	1294468	PROB	2.867	n/a	n/a	n/a	-999	12	[2, 2, 5]	9	catFR1	1	R1527J
1272.049	2.798	1297335	PROB	2.798	n/a	n/a	n/a	-999	12	[1, 7, 1]	9	catFR1	1	R1527J
1274.847	0.0	1300133	STOP	n/a	n/a	n/a	n/a	-999	12	[-999, -999, -999]	n/a	catFR1	1	R1527J
1274.847	1.667	1300134	DISTRACT_END	n/a	n/a	n/a	n/a	-999	12	[0, 0, 0]	n/a	catFR1	1	R1527J
1276.514	0.594	1301806	REC_START	n/a	n/a	n/a	n/a	-999	12	[0, 0, 0]	n/a	catFR1	1	R1527J
1277.108	0.671	1302394	REC_WORD_VV	0.671	n/a	<>	n/a	-999	12	[0, 0, 0]	n/a	catFR1	1	R1527J
1277.779	1.315	1303065	REC_WORD	1.315	n/a	FOLDER	OfficeSupplies	1	12	[0, 0, 0]	n/a	catFR1	1	R1527J
1279.094	2.054	1304379	REC_WORD	2.054	n/a	RULER	OfficeSupplies	2	12	[0, 0, 0]	n/a	catFR1	1	R1527J
1281.148	1.772	1306433	REC_WORD	1.772	n/a	PENCIL	OfficeSupplies	-999	12	[0, 0, 0]	n/a	catFR1	1	R1527J
1282.92	1.126	1308205	REC_WORD	1.126	n/a	DAFFODIL	Flowers	-999	12	[0, 0, 0]	n/a	catFR1	1	R1527J
1284.046	1.43	1309331	REC_WORD	1.43	n/a	LILAC	Flowers	9	12	[0, 0, 0]	n/a	catFR1	1	R1527J
1285.476	2.367	1310761	REC_WORD	2.367	n/a	ORCHID	Flowers	5	12	[0, 0, 0]	n/a	catFR1	1	R1527J
1287.843	0.694	1313128	REC_WORD_VV	0.694	n/a	<>	n/a	-999	12	[0, 0, 0]	n/a	catFR1	1	R1527J
1288.537	2.54	1313822	REC_WORD	2.54	n/a	ERASER	OfficeSupplies	12	12	[0, 0, 0]	n/a	catFR1	1	R1527J
1291.077	1.734	1316362	REC_WORD_VV	1.734	n/a	<>	n/a	-999	12	[0, 0, 0]	n/a	catFR1	1	R1527J
1292.811	13.453	1318096	REC_WORD	13.453	n/a	BINDER	OfficeSupplies	11	12	[0, 0, 0]	n/a	catFR1	1	R1527J
1306.264	0.488	1331548	REC_WORD_VV	0.488	n/a	<>	n/a	-999	12	[0, 0, 0]	n/a	catFR1	1	R1527J
1306.752	0.0	1332034	REC_END	n/a	n/a	n/a	n/a	-999	12	[0, 0, 0]	n/a	catFR1	1	R1527J
