onset	duration	sample	trial_type	response_time	stim_file	item_name	category	serialpos	list	test	answer	experiment	session	subject
0.0	164.846	45978	INSTRUCT_START	n/a	n/a	n/a	n/a	-999	-999	[0, 0, 0]	n/a	catFR1	0	R1518T
164.846	29.483	210805	INSTRUCT_END	n/a	n/a	n/a	n/a	-999	-999	[0, 0, 0]	n/a	catFR1	0	R1518T
194.329	10.0	240291	COUNTDOWN_START	n/a	n/a	n/a	n/a	-999	-999	[0, 0, 0]	n/a	catFR1	0	R1518T
204.678	0.0	250641	COUNTDOWN_END	n/a	n/a	n/a	n/a	-999	-999	[0, 0, 0]	n/a	catFR1	0	R1518T
204.678	2.168	250641	ENCODING_START	n/a	n/a	n/a	n/a	-999	-1	[0, 0, 0]	n/a	catFR1	0	R1518T
206.846	1.6	252804	WORD	n/a	n/a	COUCH	Furniture	1	-1	[0, 0, 0]	n/a	catFR1	0	R1518T
208.462	0.782	254430	WORD_OFF	n/a	n/a	COUCH	Furniture	1	-1	[0, 0, 0]	n/a	catFR1	0	R1518T
209.244	1.6	255206	WORD	n/a	n/a	SHELF	Furniture	2	-1	[0, 0, 0]	n/a	catFR1	0	R1518T
210.846	0.832	256808	WORD_OFF	n/a	n/a	SHELF	Furniture	2	-1	[0, 0, 0]	n/a	catFR1	0	R1518T
211.678	1.6	257645	WORD	n/a	n/a	SHIRT	Clothing	3	-1	[0, 0, 0]	n/a	catFR1	0	R1518T
213.278	0.784	259246	WORD_OFF	n/a	n/a	SHIRT	Clothing	3	-1	[0, 0, 0]	n/a	catFR1	0	R1518T
214.062	1.6	260023	WORD	n/a	n/a	JACKET	Clothing	4	-1	[0, 0, 0]	n/a	catFR1	0	R1518T
215.662	0.9	261625	WORD_OFF	n/a	n/a	JACKET	Clothing	4	-1	[0, 0, 0]	n/a	catFR1	0	R1518T
216.562	1.6	262521	WORD	n/a	n/a	BANJO	Instruments	5	-1	[0, 0, 0]	n/a	catFR1	0	R1518T
218.179	0.917	264146	WORD_OFF	n/a	n/a	BANJO	Instruments	5	-1	[0, 0, 0]	n/a	catFR1	0	R1518T
219.096	1.6	265055	WORD	n/a	n/a	CELLO	Instruments	6	-1	[0, 0, 0]	n/a	catFR1	0	R1518T
220.696	0.85	266656	WORD_OFF	n/a	n/a	CELLO	Instruments	6	-1	[0, 0, 0]	n/a	catFR1	0	R1518T
221.546	1.6	267505	WORD	n/a	n/a	SOCKS	Clothing	7	-1	[0, 0, 0]	n/a	catFR1	0	R1518T
223.162	0.984	269118	WORD_OFF	n/a	n/a	SOCKS	Clothing	7	-1	[0, 0, 0]	n/a	catFR1	0	R1518T
224.146	1.6	270110	WORD	n/a	n/a	JEANS	Clothing	8	-1	[0, 0, 0]	n/a	catFR1	0	R1518T
225.746	0.949	271712	WORD_OFF	n/a	n/a	JEANS	Clothing	8	-1	[0, 0, 0]	n/a	catFR1	0	R1518T
226.695	1.6	272656	WORD	n/a	n/a	ORGAN	Instruments	9	-1	[0, 0, 0]	n/a	catFR1	0	R1518T
228.295	0.984	274258	WORD_OFF	n/a	n/a	ORGAN	Instruments	9	-1	[0, 0, 0]	n/a	catFR1	0	R1518T
229.279	1.6	275238	WORD	n/a	n/a	TROMBONE	Instruments	10	-1	[0, 0, 0]	n/a	catFR1	0	R1518T
230.879	1.169	276839	WORD_OFF	n/a	n/a	TROMBONE	Instruments	10	-1	[0, 0, 0]	n/a	catFR1	0	R1518T
232.048	0.027	278004	REC_WORD_VV	-26.281	n/a	<>	n/a	-999	-1	[0, 0, 0]	n/a	catFR1	0	R1518T
232.075	0.0	278031	REC_WORD_VV	-26.254	n/a	<>	n/a	-999	-1	[0, 0, 0]	n/a	catFR1	0	R1518T
231.762	1.6	277724	WORD	n/a	n/a	CHAIR	Furniture	11	-1	[0, 0, 0]	n/a	catFR1	0	R1518T
233.075	0.105	279031	REC_WORD_VV	-25.254	n/a	<>	n/a	-999	-1	[0, 0, 0]	n/a	catFR1	0	R1518T
233.18	0.999	279136	REC_WORD_VV	-25.149	n/a	<>	n/a	-999	-1	[0, 0, 0]	n/a	catFR1	0	R1518T
234.179	0.031	280135	REC_WORD_VV	-24.15	n/a	<>	n/a	-999	-1	[0, 0, 0]	n/a	catFR1	0	R1518T
234.21	0.0	280166	REC_WORD_VV	-24.119	n/a	<>	n/a	-999	-1	[0, 0, 0]	n/a	catFR1	0	R1518T
233.379	1.8	279337	WORD_OFF	n/a	n/a	CHAIR	Furniture	11	-1	[0, 0, 0]	n/a	catFR1	0	R1518T
235.179	0.0	281135	REC_WORD_VV	-23.15	n/a	<>	n/a	-999	-1	[0, 0, 0]	n/a	catFR1	0	R1518T
234.18	1.6	280138	WORD	n/a	n/a	BOOKCASE	Furniture	12	-1	[0, 0, 0]	n/a	catFR1	0	R1518T
235.21	1.0	281166	REC_WORD_VV	-23.119	n/a	<>	n/a	-999	-1	[0, 0, 0]	n/a	catFR1	0	R1518T
236.21	0.0	282166	REC_WORD_VV	-22.119	n/a	<>	n/a	-999	-1	[0, 0, 0]	n/a	catFR1	0	R1518T
235.796	0.001	281751	WORD_OFF	n/a	n/a	BOOKCASE	Furniture	12	-1	[0, 0, 0]	n/a	catFR1	0	R1518T
235.797	0.0	281753	START	n/a	n/a	n/a	n/a	-999	-1	[-999, -999, -999]	n/a	catFR1	0	R1518T
235.797	0.0	281753	PROB	16.633	n/a	n/a	n/a	-999	-1	[1, 2, 7]	10.0	catFR1	0	R1518T
235.797	0.0	281763	ENCODING_END	n/a	n/a	n/a	n/a	-999	-1	[0, 0, 0]	n/a	catFR1	0	R1518T
235.797	1.412	281763	DISTRACT_START	n/a	n/a	n/a	n/a	-999	-1	[0, 0, 0]	n/a	catFR1	0	R1518T
237.209	1.001	283165	REC_WORD_VV	-21.12	n/a	<>	n/a	-999	-1	[0, 0, 0]	n/a	catFR1	0	R1518T
238.21	1.0	284166	REC_WORD_VV	-20.119	n/a	<>	n/a	-999	-1	[0, 0, 0]	n/a	catFR1	0	R1518T
239.21	0.408	285166	REC_WORD_VV	-19.119	n/a	<>	n/a	-999	-1	[0, 0, 0]	n/a	catFR1	0	R1518T
239.618	0.959	285574	REC_WORD_VV	-18.711	n/a	<>	n/a	-999	-1	[0, 0, 0]	n/a	catFR1	0	R1518T
240.577	0.403	286532	REC_WORD_VV	-17.752	n/a	<>	n/a	-999	-1	[0, 0, 0]	n/a	catFR1	0	R1518T
240.98	0.849	286935	REC_WORD	-17.349	n/a	SHIRT	Clothing	3	-1	[0, 0, 0]	n/a	catFR1	0	R1518T
241.829	0.338	287784	REC_WORD_VV	-16.5	n/a	<>	n/a	-999	-1	[0, 0, 0]	n/a	catFR1	0	R1518T
242.167	0.026	288122	REC_WORD_VV	-16.162	n/a	<>	n/a	-999	-1	[0, 0, 0]	n/a	catFR1	0	R1518T
242.193	0.912	288148	REC_WORD	-16.136	n/a	LOOP	n/a	-999	-1	[0, 0, 0]	n/a	catFR1	0	R1518T
243.105	0.06	289060	REC_WORD_VV	-15.224	n/a	<>	n/a	-999	-1	[0, 0, 0]	n/a	catFR1	0	R1518T
243.165	1.0	289120	REC_WORD_VV	-15.164	n/a	<>	n/a	-999	-1	[0, 0, 0]	n/a	catFR1	0	R1518T
244.165	8.281	290120	REC_WORD_VV	-14.164	n/a	<>	n/a	-999	-1	[0, 0, 0]	n/a	catFR1	0	R1518T
252.446	3.566	298401	PROB	3.55	n/a	n/a	n/a	-999	-1	[4, 2, 3]	9.0	catFR1	0	R1518T
256.012	0.0	301967	STOP	n/a	n/a	n/a	n/a	-999	-1	[-999, -999, -999]	n/a	catFR1	0	R1518T
256.012	1.094	301974	DISTRACT_END	n/a	n/a	n/a	n/a	-999	-1	[0, 0, 0]	n/a	catFR1	0	R1518T
257.106	1.0	303061	REC_WORD_VV	-1.223	n/a	<>	n/a	-999	-1	[0, 0, 0]	n/a	catFR1	0	R1518T
258.106	0.223	304061	REC_WORD_VV	-0.223	n/a	<>	n/a	-999	-1	[0, 0, 0]	n/a	catFR1	0	R1518T
258.329	0.778	304288	REC_START	n/a	n/a	n/a	n/a	-999	-1	[0, 0, 0]	n/a	catFR1	0	R1518T
259.107	1.37	305062	REC_WORD_VV	0.778	n/a	<>	n/a	-999	-1	[0, 0, 0]	n/a	catFR1	0	R1518T
260.477	1.931	306431	REC_WORD_VV	2.148	n/a	<>	n/a	-999	-1	[0, 0, 0]	n/a	catFR1	0	R1518T
262.408	0.927	308362	REC_WORD_VV	4.079	n/a	<>	n/a	-999	-1	[0, 0, 0]	n/a	catFR1	0	R1518T
263.335	0.073	309289	REC_WORD_VV	5.006	n/a	<>	n/a	-999	-1	[0, 0, 0]	n/a	catFR1	0	R1518T
263.408	1.0	309362	REC_WORD_VV	5.079	n/a	<>	n/a	-999	-1	[0, 0, 0]	n/a	catFR1	0	R1518T
264.408	0.061	310362	REC_WORD_VV	6.079	n/a	<>	n/a	-999	-1	[0, 0, 0]	n/a	catFR1	0	R1518T
264.469	1.004	310423	REC_WORD	6.14	n/a	CELLO	Instruments	6	-1	[0, 0, 0]	n/a	catFR1	0	R1518T
265.473	1.0	311427	REC_WORD_VV	7.144	n/a	<>	n/a	-999	-1	[0, 0, 0]	n/a	catFR1	0	R1518T
266.473	0.075	312427	REC_WORD_VV	8.144	n/a	<>	n/a	-999	-1	[0, 0, 0]	n/a	catFR1	0	R1518T
266.548	0.925	312502	REC_WORD_VV	8.219	n/a	<>	n/a	-999	-1	[0, 0, 0]	n/a	catFR1	0	R1518T
267.473	0.204	313427	REC_WORD_VV	9.144	n/a	<>	n/a	-999	-1	[0, 0, 0]	n/a	catFR1	0	R1518T
267.677	0.798	313631	REC_WORD_VV	9.348	n/a	<>	n/a	-999	-1	[0, 0, 0]	n/a	catFR1	0	R1518T
268.475	0.202	314429	REC_WORD_VV	10.146	n/a	<>	n/a	-999	-1	[0, 0, 0]	n/a	catFR1	0	R1518T
268.677	0.797	314631	REC_WORD_VV	10.348	n/a	<>	n/a	-999	-1	[0, 0, 0]	n/a	catFR1	0	R1518T
269.474	1.474	315428	REC_WORD_VV	11.145	n/a	<>	n/a	-999	-1	[0, 0, 0]	n/a	catFR1	0	R1518T
270.948	1.22	316902	REC_WORD_VV	12.619	n/a	<>	n/a	-999	-1	[0, 0, 0]	n/a	catFR1	0	R1518T
272.168	1.0	318122	REC_WORD_VV	13.839	n/a	<>	n/a	-999	-1	[0, 0, 0]	n/a	catFR1	0	R1518T
273.168	2.156	319122	REC_WORD_VV	14.839	n/a	<>	n/a	-999	-1	[0, 0, 0]	n/a	catFR1	0	R1518T
275.324	1.331	321278	REC_WORD_VV	16.995	n/a	<>	n/a	-999	-1	[0, 0, 0]	n/a	catFR1	0	R1518T
276.655	1.0	322609	REC_WORD_VV	18.326	n/a	<>	n/a	-999	-1	[0, 0, 0]	n/a	catFR1	0	R1518T
277.655	5.914	323609	REC_WORD_VV	19.326	n/a	<>	n/a	-999	-1	[0, 0, 0]	n/a	catFR1	0	R1518T
283.569	1.174	329522	REC_WORD_VV	25.24	n/a	<>	n/a	-999	-1	[0, 0, 0]	n/a	catFR1	0	R1518T
284.743	1.309	330696	REC_WORD_VV	26.414	n/a	<>	n/a	-999	-1	[0, 0, 0]	n/a	catFR1	0	R1518T
286.052	0.336	332005	REC_WORD_VV	27.723	n/a	<>	n/a	-999	-1	[0, 0, 0]	n/a	catFR1	0	R1518T
286.388	0.712	332341	REC_WORD	28.059	n/a	COUCH	Furniture	1	-1	[0, 0, 0]	n/a	catFR1	0	R1518T
287.1	0.909	333053	REC_WORD	28.771	n/a	SHIRT	Clothing	3	-1	[0, 0, 0]	n/a	catFR1	0	R1518T
288.009	1.44	333962	REC_WORD	29.68	n/a	CELLO	Instruments	6	-1	[0, 0, 0]	n/a	catFR1	0	R1518T
289.449	87.137	335402	REC_WORD_VV	31.12	n/a	<>	n/a	-999	-1	[0, 0, 0]	n/a	catFR1	0	R1518T
376.586	32.826	422543	REC_END	n/a	n/a	n/a	n/a	-999	-1	[0, 0, 0]	n/a	catFR1	0	R1518T
409.412	10.0	455363	COUNTDOWN_START	n/a	n/a	n/a	n/a	-999	1	[0, 0, 0]	n/a	catFR1	0	R1518T
419.762	0.0	465713	COUNTDOWN_END	n/a	n/a	n/a	n/a	-999	1	[0, 0, 0]	n/a	catFR1	0	R1518T
419.762	1.984	465713	ENCODING_START	n/a	n/a	n/a	n/a	-999	1	[0, 0, 0]	n/a	catFR1	0	R1518T
421.746	1.6	467697	WORD	n/a	wordpools/wordpool_categorized_EN.txt	VIOLIN	Instruments	1	1	[0, 0, 0]	n/a	catFR1	0	R1518T
423.362	0.95	469311	WORD_OFF	n/a	n/a	VIOLIN	Instruments	1	1	[0, 0, 0]	n/a	catFR1	0	R1518T
424.312	1.6	470267	WORD	n/a	wordpools/wordpool_categorized_EN.txt	TRUMPET	Instruments	2	1	[0, 0, 0]	n/a	catFR1	0	R1518T
425.912	0.867	471869	WORD_OFF	n/a	n/a	TRUMPET	Instruments	2	1	[0, 0, 0]	n/a	catFR1	0	R1518T
426.779	1.6	472729	WORD	n/a	wordpools/wordpool_categorized_EN.txt	BLUEBERRY	Fruit	3	1	[0, 0, 0]	n/a	catFR1	0	R1518T
428.396	0.9	474343	WORD_OFF	n/a	n/a	BLUEBERRY	Fruit	3	1	[0, 0, 0]	n/a	catFR1	0	R1518T
429.296	1.6	475251	WORD	n/a	wordpools/wordpool_categorized_EN.txt	ORANGE	Fruit	4	1	[0, 0, 0]	n/a	catFR1	0	R1518T
430.896	0.916	476841	WORD_OFF	n/a	n/a	ORANGE	Fruit	4	1	[0, 0, 0]	n/a	catFR1	0	R1518T
431.812	1.6	477761	WORD	n/a	wordpools/wordpool_categorized_EN.txt	ISLAND	Landscapes	5	1	[0, 0, 0]	n/a	catFR1	0	R1518T
433.412	0.967	479362	WORD_OFF	n/a	n/a	ISLAND	Landscapes	5	1	[0, 0, 0]	n/a	catFR1	0	R1518T
434.379	1.6	480330	WORD	n/a	wordpools/wordpool_categorized_EN.txt	WOODS	Landscapes	6	1	[0, 0, 0]	n/a	catFR1	0	R1518T
435.979	0.849	481932	WORD_OFF	n/a	n/a	WOODS	Landscapes	6	1	[0, 0, 0]	n/a	catFR1	0	R1518T
436.828	1.6	482781	WORD	n/a	wordpools/wordpool_categorized_EN.txt	STRAWBERRY	Fruit	7	1	[0, 0, 0]	n/a	catFR1	0	R1518T
438.429	0.817	484382	WORD_OFF	n/a	n/a	STRAWBERRY	Fruit	7	1	[0, 0, 0]	n/a	catFR1	0	R1518T
439.246	1.6	485195	WORD	n/a	wordpools/wordpool_categorized_EN.txt	APPLE	Fruit	8	1	[0, 0, 0]	n/a	catFR1	0	R1518T
440.846	0.9	486796	WORD_OFF	n/a	n/a	APPLE	Fruit	8	1	[0, 0, 0]	n/a	catFR1	0	R1518T
441.746	1.6	487693	WORD	n/a	wordpools/wordpool_categorized_EN.txt	PIANO	Instruments	9	1	[0, 0, 0]	n/a	catFR1	0	R1518T
443.346	0.849	489294	WORD_OFF	n/a	n/a	PIANO	Instruments	9	1	[0, 0, 0]	n/a	catFR1	0	R1518T
444.195	1.6	490143	WORD	n/a	wordpools/wordpool_categorized_EN.txt	TUBA	Instruments	10	1	[0, 0, 0]	n/a	catFR1	0	R1518T
445.795	0.967	491744	WORD_OFF	n/a	n/a	TUBA	Instruments	10	1	[0, 0, 0]	n/a	catFR1	0	R1518T
446.762	1.6	492713	WORD	n/a	wordpools/wordpool_categorized_EN.txt	MOUNTAIN	Landscapes	11	1	[0, 0, 0]	n/a	catFR1	0	R1518T
448.362	0.766	494314	WORD_OFF	n/a	n/a	MOUNTAIN	Landscapes	11	1	[0, 0, 0]	n/a	catFR1	0	R1518T
449.128	1.6	495079	WORD	n/a	wordpools/wordpool_categorized_EN.txt	STREAM	Landscapes	12	1	[0, 0, 0]	n/a	catFR1	0	R1518T
450.729	0.001	496673	PROB	3.483	n/a	n/a	n/a	-999	1	[5, 4, 1]	10.0	catFR1	0	R1518T
450.73	0.0	496674	START	n/a	n/a	n/a	n/a	-999	1	[-999, -999, -999]	n/a	catFR1	0	R1518T
450.729	0.001	496681	WORD_OFF	n/a	n/a	STREAM	Landscapes	12	1	[0, 0, 0]	n/a	catFR1	0	R1518T
450.73	0.0	496681	ENCODING_END	n/a	n/a	n/a	n/a	-999	1	[0, 0, 0]	n/a	catFR1	0	R1518T
450.73	3.499	496681	DISTRACT_START	n/a	n/a	n/a	n/a	-999	1	[0, 0, 0]	n/a	catFR1	0	R1518T
454.229	2.734	500173	PROB	2.716	n/a	n/a	n/a	-999	1	[2, 6, 3]	11.0	catFR1	0	R1518T
456.963	3.282	502907	PROB	3.265	n/a	n/a	n/a	-999	1	[5, 4, 4]	13.0	catFR1	0	R1518T
460.245	2.751	506189	PROB	2.734	n/a	n/a	n/a	-999	1	[2, 1, 6]	9.0	catFR1	0	R1518T
462.996	3.883	508940	PROB	3.866	n/a	n/a	n/a	-999	1	[8, 5, 8]	21.0	catFR1	0	R1518T
466.879	3.517	512823	PROB	3.5	n/a	n/a	n/a	-999	1	[4, 3, 5]	12.0	catFR1	0	R1518T
470.396	3.516	516339	PROB	3.499	n/a	n/a	n/a	-999	1	[1, 7, 8]	16.0	catFR1	0	R1518T
473.912	0.0	519855	DISTRACT_END	n/a	n/a	n/a	n/a	-999	1	[0, 0, 0]	n/a	catFR1	0	R1518T
473.912	2.25	519855	STOP	n/a	n/a	n/a	n/a	-999	1	[-999, -999, -999]	n/a	catFR1	0	R1518T
476.162	1.496	522110	REC_START	n/a	n/a	n/a	n/a	-999	1	[0, 0, 0]	n/a	catFR1	0	R1518T
477.658	1.052	523601	REC_WORD	1.496	n/a	VIOLIN	Instruments	1	1	[0, 0, 0]	n/a	catFR1	0	R1518T
478.71	0.949	524653	REC_WORD	2.548	n/a	TRUMPET	Instruments	2	1	[0, 0, 0]	n/a	catFR1	0	R1518T
479.659	1.08	525602	REC_WORD	3.497	n/a	TUBA	Instruments	10	1	[0, 0, 0]	n/a	catFR1	0	R1518T
480.739	0.936	526682	REC_WORD	4.577	n/a	APPLE	Fruit	8	1	[0, 0, 0]	n/a	catFR1	0	R1518T
481.675	1.943	527618	REC_WORD	5.513	n/a	ORANGE	Fruit	4	1	[0, 0, 0]	n/a	catFR1	0	R1518T
483.618	0.48	529561	REC_WORD_VV	7.456	n/a	<>	n/a	-999	1	[0, 0, 0]	n/a	catFR1	0	R1518T
484.098	2.337	530041	REC_WORD	7.936	n/a	BLUEBERRY	Fruit	3	1	[0, 0, 0]	n/a	catFR1	0	R1518T
486.435	3.122	532378	REC_WORD	10.273	n/a	WOOD	n/a	-999	1	[0, 0, 0]	n/a	catFR1	0	R1518T
489.557	4.802	535499	REC_WORD_VV	13.395	n/a	<>	n/a	-999	1	[0, 0, 0]	n/a	catFR1	0	R1518T
494.359	1.0	540301	REC_WORD_VV	18.197	n/a	<>	n/a	-999	1	[0, 0, 0]	n/a	catFR1	0	R1518T
495.359	10.193	541301	REC_WORD_VV	19.197	n/a	<>	n/a	-999	1	[0, 0, 0]	n/a	catFR1	0	R1518T
505.552	0.787	551494	REC_WORD_VV	29.39	n/a	<>	n/a	-999	1	[0, 0, 0]	n/a	catFR1	0	R1518T
506.339	69.722	552280	REC_END	n/a	n/a	n/a	n/a	-999	1	[0, 0, 0]	n/a	catFR1	0	R1518T
576.061	10.0	622007	COUNTDOWN_START	n/a	n/a	n/a	n/a	-999	2	[0, 0, 0]	n/a	catFR1	0	R1518T
586.411	0.0	632357	COUNTDOWN_END	n/a	n/a	n/a	n/a	-999	2	[0, 0, 0]	n/a	catFR1	0	R1518T
586.411	1.901	632357	ENCODING_START	n/a	n/a	n/a	n/a	-999	2	[0, 0, 0]	n/a	catFR1	0	R1518T
588.312	1.6	634258	WORD	n/a	wordpools/wordpool_categorized_EN.txt	VACUUM	Appliances	1	2	[0, 0, 0]	n/a	catFR1	0	R1518T
589.929	0.949	635871	WORD_OFF	n/a	n/a	VACUUM	Appliances	1	2	[0, 0, 0]	n/a	catFR1	0	R1518T
590.878	1.6	636815	WORD	n/a	wordpools/wordpool_categorized_EN.txt	REFRIGERATOR	Appliances	2	2	[0, 0, 0]	n/a	catFR1	0	R1518T
592.478	0.851	638417	WORD_OFF	n/a	n/a	REFRIGERATOR	Appliances	2	2	[0, 0, 0]	n/a	catFR1	0	R1518T
593.329	1.6	639265	WORD	n/a	wordpools/wordpool_categorized_EN.txt	CHICKEN	FarmAnimals	3	2	[0, 0, 0]	n/a	catFR1	0	R1518T
594.929	0.883	640867	WORD_OFF	n/a	n/a	CHICKEN	FarmAnimals	3	2	[0, 0, 0]	n/a	catFR1	0	R1518T
595.812	1.6	641751	WORD	n/a	wordpools/wordpool_categorized_EN.txt	COW	FarmAnimals	4	2	[0, 0, 0]	n/a	catFR1	0	R1518T
597.412	0.984	643353	WORD_OFF	n/a	n/a	COW	FarmAnimals	4	2	[0, 0, 0]	n/a	catFR1	0	R1518T
598.396	1.6	644333	WORD	n/a	wordpools/wordpool_categorized_EN.txt	DOOR	Building	5	2	[0, 0, 0]	n/a	catFR1	0	R1518T
600.012	0.867	645958	WORD_OFF	n/a	n/a	DOOR	Building	5	2	[0, 0, 0]	n/a	catFR1	0	R1518T
600.879	1.6	646819	WORD	n/a	wordpools/wordpool_categorized_EN.txt	HALLWAY	Building	6	2	[0, 0, 0]	n/a	catFR1	0	R1518T
602.495	0.967	648433	WORD_OFF	n/a	n/a	HALLWAY	Building	6	2	[0, 0, 0]	n/a	catFR1	0	R1518T
603.462	1.6	649401	WORD	n/a	wordpools/wordpool_categorized_EN.txt	STOVE	Appliances	7	2	[0, 0, 0]	n/a	catFR1	0	R1518T
605.063	0.882	651002	WORD_OFF	n/a	n/a	STOVE	Appliances	7	2	[0, 0, 0]	n/a	catFR1	0	R1518T
605.945	1.6	651887	WORD	n/a	wordpools/wordpool_categorized_EN.txt	MIXER	Appliances	8	2	[0, 0, 0]	n/a	catFR1	0	R1518T
607.546	0.916	653488	WORD_OFF	n/a	n/a	MIXER	Appliances	8	2	[0, 0, 0]	n/a	catFR1	0	R1518T
608.462	1.6	654408	WORD	n/a	wordpools/wordpool_categorized_EN.txt	WINDOW	Building	9	2	[0, 0, 0]	n/a	catFR1	0	R1518T
610.063	0.866	655998	WORD_OFF	n/a	n/a	WINDOW	Building	9	2	[0, 0, 0]	n/a	catFR1	0	R1518T
610.929	1.6	656870	WORD	n/a	wordpools/wordpool_categorized_EN.txt	ROOM	Building	10	2	[0, 0, 0]	n/a	catFR1	0	R1518T
612.529	0.933	658472	WORD_OFF	n/a	n/a	ROOM	Building	10	2	[0, 0, 0]	n/a	catFR1	0	R1518T
613.462	1.6	659404	WORD	n/a	wordpools/wordpool_categorized_EN.txt	CALF	FarmAnimals	11	2	[0, 0, 0]	n/a	catFR1	0	R1518T
615.063	0.916	661006	WORD_OFF	n/a	n/a	CALF	FarmAnimals	11	2	[0, 0, 0]	n/a	catFR1	0	R1518T
615.979	1.6	661914	WORD	n/a	wordpools/wordpool_categorized_EN.txt	BULL	FarmAnimals	12	2	[0, 0, 0]	n/a	catFR1	0	R1518T
617.597	0.0	663533	START	n/a	n/a	n/a	n/a	-999	2	[-999, -999, -999]	n/a	catFR1	0	R1518T
617.597	0.0	663533	PROB	7.099	n/a	n/a	n/a	-999	2	[7, 6, 3]	16.0	catFR1	0	R1518T
617.596	0.001	663540	WORD_OFF	n/a	n/a	BULL	FarmAnimals	12	2	[0, 0, 0]	n/a	catFR1	0	R1518T
617.597	0.0	663540	ENCODING_END	n/a	n/a	n/a	n/a	-999	2	[0, 0, 0]	n/a	catFR1	0	R1518T
617.597	7.115	663540	DISTRACT_START	n/a	n/a	n/a	n/a	-999	2	[0, 0, 0]	n/a	catFR1	0	R1518T
624.712	4.084	670647	PROB	4.066	n/a	n/a	n/a	-999	2	[2, 1, 5]	8.0	catFR1	0	R1518T
628.796	4.15	674731	PROB	4.133	n/a	n/a	n/a	-999	2	[5, 8, 8]	21.0	catFR1	0	R1518T
632.946	2.651	678881	PROB	2.633	n/a	n/a	n/a	-999	2	[1, 3, 7]	11.0	catFR1	0	R1518T
635.597	3.065	681532	PROB	3.049	n/a	n/a	n/a	-999	2	[5, 7, 3]	15.0	catFR1	0	R1518T
638.662	0.0	684597	STOP	n/a	n/a	n/a	n/a	-999	2	[-999, -999, -999]	n/a	catFR1	0	R1518T
638.662	2.201	684599	DISTRACT_END	n/a	n/a	n/a	n/a	-999	2	[0, 0, 0]	n/a	catFR1	0	R1518T
640.863	0.904	686806	REC_START	n/a	n/a	n/a	n/a	-999	2	[0, 0, 0]	n/a	catFR1	0	R1518T
641.767	1.075	687701	REC_WORD	0.904	n/a	CALF	FarmAnimals	11	2	[0, 0, 0]	n/a	catFR1	0	R1518T
642.842	0.937	688776	REC_WORD	1.979	n/a	BULL	FarmAnimals	12	2	[0, 0, 0]	n/a	catFR1	0	R1518T
643.779	1.041	689713	REC_WORD	2.916	n/a	WINDOW	Building	9	2	[0, 0, 0]	n/a	catFR1	0	R1518T
644.82	0.902	690754	REC_WORD	3.957	n/a	DOOR	Building	5	2	[0, 0, 0]	n/a	catFR1	0	R1518T
645.722	2.417	691656	REC_WORD	4.859	n/a	HALLWAY	Building	6	2	[0, 0, 0]	n/a	catFR1	0	R1518T
648.139	2.232	694073	REC_WORD_VV	7.276	n/a	<>	n/a	-999	2	[0, 0, 0]	n/a	catFR1	0	R1518T
650.371	2.974	696305	REC_WORD_VV	9.508	n/a	<>	n/a	-999	2	[0, 0, 0]	n/a	catFR1	0	R1518T
653.345	10.422	699279	REC_WORD_VV	12.482	n/a	<>	n/a	-999	2	[0, 0, 0]	n/a	catFR1	0	R1518T
663.767	1.0	709700	REC_WORD_VV	22.904	n/a	<>	n/a	-999	2	[0, 0, 0]	n/a	catFR1	0	R1518T
664.767	1.0	710700	REC_WORD_VV	23.904	n/a	<>	n/a	-999	2	[0, 0, 0]	n/a	catFR1	0	R1518T
665.767	5.289	711700	REC_WORD_VV	24.904	n/a	<>	n/a	-999	2	[0, 0, 0]	n/a	catFR1	0	R1518T
671.056	184.989	716988	REC_END	n/a	n/a	n/a	n/a	-999	2	[0, 0, 0]	n/a	catFR1	0	R1518T
856.045	10.0	901978	COUNTDOWN_START	n/a	n/a	n/a	n/a	-999	3	[0, 0, 0]	n/a	catFR1	0	R1518T
866.395	0.0	912328	COUNTDOWN_END	n/a	n/a	n/a	n/a	-999	3	[0, 0, 0]	n/a	catFR1	0	R1518T
866.395	1.817	912328	ENCODING_START	n/a	n/a	n/a	n/a	-999	3	[0, 0, 0]	n/a	catFR1	0	R1518T
868.212	1.6	914145	WORD	n/a	wordpools/wordpool_categorized_EN.txt	OCEAN	Landscapes	1	3	[0, 0, 0]	n/a	catFR1	0	R1518T
869.812	0.917	915734	WORD_OFF	n/a	n/a	OCEAN	Landscapes	1	3	[0, 0, 0]	n/a	catFR1	0	R1518T
870.729	1.6	916655	WORD	n/a	wordpools/wordpool_categorized_EN.txt	RIVER	Landscapes	2	3	[0, 0, 0]	n/a	catFR1	0	R1518T
872.329	0.9	918256	WORD_OFF	n/a	n/a	RIVER	Landscapes	2	3	[0, 0, 0]	n/a	catFR1	0	R1518T
873.229	1.6	919153	WORD	n/a	wordpools/wordpool_categorized_EN.txt	SUNFLOWER	Flowers	3	3	[0, 0, 0]	n/a	catFR1	0	R1518T
874.846	0.9	920778	WORD_OFF	n/a	n/a	SUNFLOWER	Flowers	3	3	[0, 0, 0]	n/a	catFR1	0	R1518T
875.746	1.6	921674	WORD	n/a	wordpools/wordpool_categorized_EN.txt	DAFFODIL	Flowers	4	3	[0, 0, 0]	n/a	catFR1	0	R1518T
877.346	0.783	923276	WORD_OFF	n/a	n/a	DAFFODIL	Flowers	4	3	[0, 0, 0]	n/a	catFR1	0	R1518T
878.129	1.6	924053	WORD	n/a	wordpools/wordpool_categorized_EN.txt	SILK	Fabric	5	3	[0, 0, 0]	n/a	catFR1	0	R1518T
879.746	0.766	925678	WORD_OFF	n/a	n/a	SILK	Fabric	5	3	[0, 0, 0]	n/a	catFR1	0	R1518T
880.512	1.6	926443	WORD	n/a	wordpools/wordpool_categorized_EN.txt	SUEDE	Fabric	6	3	[0, 0, 0]	n/a	catFR1	0	R1518T
882.112	0.784	928045	WORD_OFF	n/a	n/a	SUEDE	Fabric	6	3	[0, 0, 0]	n/a	catFR1	0	R1518T
882.896	1.6	928822	WORD	n/a	wordpools/wordpool_categorized_EN.txt	HILLS	Landscapes	7	3	[0, 0, 0]	n/a	catFR1	0	R1518T
884.496	0.983	930423	WORD_OFF	n/a	n/a	HILLS	Landscapes	7	3	[0, 0, 0]	n/a	catFR1	0	R1518T
885.479	1.6	931403	WORD	n/a	wordpools/wordpool_categorized_EN.txt	LAKE	Landscapes	8	3	[0, 0, 0]	n/a	catFR1	0	R1518T
887.079	0.95	933005	WORD_OFF	n/a	n/a	LAKE	Landscapes	8	3	[0, 0, 0]	n/a	catFR1	0	R1518T
888.029	1.6	933961	WORD	n/a	wordpools/wordpool_categorized_EN.txt	VELVET	Fabric	9	3	[0, 0, 0]	n/a	catFR1	0	R1518T
889.629	0.984	935551	WORD_OFF	n/a	n/a	VELVET	Fabric	9	3	[0, 0, 0]	n/a	catFR1	0	R1518T
890.613	1.6	936543	WORD	n/a	wordpools/wordpool_categorized_EN.txt	FLEECE	Fabric	10	3	[0, 0, 0]	n/a	catFR1	0	R1518T
892.228	0.968	938156	WORD_OFF	n/a	n/a	FLEECE	Fabric	10	3	[0, 0, 0]	n/a	catFR1	0	R1518T
893.196	1.6	939124	WORD	n/a	wordpools/wordpool_categorized_EN.txt	VIOLET	Flowers	11	3	[0, 0, 0]	n/a	catFR1	0	R1518T
894.796	0.9	940726	WORD_OFF	n/a	n/a	VIOLET	Flowers	11	3	[0, 0, 0]	n/a	catFR1	0	R1518T
895.696	1.6	941622	WORD	n/a	wordpools/wordpool_categorized_EN.txt	ROSE	Flowers	12	3	[0, 0, 0]	n/a	catFR1	0	R1518T
897.312	0.001	943233	PROB	6.017	n/a	n/a	n/a	-999	3	[5, 1, 3]	9.0	catFR1	0	R1518T
897.313	0.0	943234	START	n/a	n/a	n/a	n/a	-999	3	[-999, -999, -999]	n/a	catFR1	0	R1518T
897.312	0.001	943236	WORD_OFF	n/a	n/a	ROSE	Flowers	12	3	[0, 0, 0]	n/a	catFR1	0	R1518T
897.313	0.0	943236	ENCODING_END	n/a	n/a	n/a	n/a	-999	3	[0, 0, 0]	n/a	catFR1	0	R1518T
897.313	6.033	943247	DISTRACT_START	n/a	n/a	n/a	n/a	-999	3	[0, 0, 0]	n/a	catFR1	0	R1518T
903.346	10.084	949267	PROB	10.066	n/a	n/a	n/a	-999	3	[5, 8, 5]	16.0	catFR1	0	R1518T
913.43	4.615	959350	PROB	4.599	n/a	n/a	n/a	-999	3	[7, 7, 3]	17.0	catFR1	0	R1518T
918.045	0.0	963965	STOP	n/a	n/a	n/a	n/a	-999	3	[-999, -999, -999]	n/a	catFR1	0	R1518T
918.045	2.217	963972	DISTRACT_END	n/a	n/a	n/a	n/a	-999	3	[0, 0, 0]	n/a	catFR1	0	R1518T
920.262	0.744	966191	REC_START	n/a	n/a	n/a	n/a	-999	3	[0, 0, 0]	n/a	catFR1	0	R1518T
921.006	0.969	966926	REC_WORD	0.744	n/a	OCEAN	Landscapes	1	3	[0, 0, 0]	n/a	catFR1	0	R1518T
921.975	1.548	967895	REC_WORD	1.713	n/a	RIVER	Landscapes	2	3	[0, 0, 0]	n/a	catFR1	0	R1518T
923.523	1.006	969443	REC_WORD	3.261	n/a	SUNFLOWER	Flowers	3	3	[0, 0, 0]	n/a	catFR1	0	R1518T
924.529	2.082	970449	REC_WORD	4.267	n/a	DAFFODIL	Flowers	4	3	[0, 0, 0]	n/a	catFR1	0	R1518T
926.611	5.348	972531	REC_WORD	6.349	n/a	VIOLET	Flowers	11	3	[0, 0, 0]	n/a	catFR1	0	R1518T
931.959	5.229	977878	REC_WORD_VV	11.697	n/a	<>	n/a	-999	3	[0, 0, 0]	n/a	catFR1	0	R1518T
937.188	3.004	983107	REC_WORD_VV	16.926	n/a	<>	n/a	-999	3	[0, 0, 0]	n/a	catFR1	0	R1518T
940.192	0.85	986111	REC_WORD	19.93	n/a	WATER	n/a	-999	3	[0, 0, 0]	n/a	catFR1	0	R1518T
941.042	4.768	986961	REC_WORD_VV	20.78	n/a	<>	n/a	-999	3	[0, 0, 0]	n/a	catFR1	0	R1518T
945.81	4.649	991729	REC_WORD_VV	25.548	n/a	<>	n/a	-999	3	[0, 0, 0]	n/a	catFR1	0	R1518T
950.459	9.72	996385	REC_END	n/a	n/a	n/a	n/a	-999	3	[0, 0, 0]	n/a	catFR1	0	R1518T
960.179	10.0	1006102	COUNTDOWN_START	n/a	n/a	n/a	n/a	-999	4	[0, 0, 0]	n/a	catFR1	0	R1518T
970.528	0.001	1016452	COUNTDOWN_END	n/a	n/a	n/a	n/a	-999	4	[0, 0, 0]	n/a	catFR1	0	R1518T
970.529	2.316	1016452	ENCODING_START	n/a	n/a	n/a	n/a	-999	4	[0, 0, 0]	n/a	catFR1	0	R1518T
972.845	1.6	1018771	WORD	n/a	wordpools/wordpool_categorized_EN.txt	JEEP	Vehicles	1	4	[0, 0, 0]	n/a	catFR1	0	R1518T
974.446	0.982	1020372	WORD_OFF	n/a	n/a	JEEP	Vehicles	1	4	[0, 0, 0]	n/a	catFR1	0	R1518T
975.428	1.6	1021352	WORD	n/a	wordpools/wordpool_categorized_EN.txt	VAN	Vehicles	2	4	[0, 0, 0]	n/a	catFR1	0	R1518T
977.029	0.967	1022954	WORD_OFF	n/a	n/a	VAN	Vehicles	2	4	[0, 0, 0]	n/a	catFR1	0	R1518T
977.996	1.6	1023922	WORD	n/a	wordpools/wordpool_categorized_EN.txt	FOREST	Landscapes	3	4	[0, 0, 0]	n/a	catFR1	0	R1518T
979.596	0.9	1025513	WORD_OFF	n/a	n/a	FOREST	Landscapes	3	4	[0, 0, 0]	n/a	catFR1	0	R1518T
980.496	1.6	1026420	WORD	n/a	wordpools/wordpool_categorized_EN.txt	BEACH	Landscapes	4	4	[0, 0, 0]	n/a	catFR1	0	R1518T
982.096	0.983	1028022	WORD_OFF	n/a	n/a	BEACH	Landscapes	4	4	[0, 0, 0]	n/a	catFR1	0	R1518T
983.079	1.6	1029002	WORD	n/a	wordpools/wordpool_categorized_EN.txt	ARM	BodyParts	5	4	[0, 0, 0]	n/a	catFR1	0	R1518T
984.68	0.932	1030603	WORD_OFF	n/a	n/a	ARM	BodyParts	5	4	[0, 0, 0]	n/a	catFR1	0	R1518T
985.612	1.6	1031535	WORD	n/a	wordpools/wordpool_categorized_EN.txt	HEAD	BodyParts	6	4	[0, 0, 0]	n/a	catFR1	0	R1518T
987.212	0.8	1033137	WORD_OFF	n/a	n/a	HEAD	BodyParts	6	4	[0, 0, 0]	n/a	catFR1	0	R1518T
988.012	1.6	1033938	WORD	n/a	wordpools/wordpool_categorized_EN.txt	TRUCK	Vehicles	7	4	[0, 0, 0]	n/a	catFR1	0	R1518T
989.612	1.0	1035539	WORD_OFF	n/a	n/a	TRUCK	Vehicles	7	4	[0, 0, 0]	n/a	catFR1	0	R1518T
990.612	1.6	1036531	WORD	n/a	wordpools/wordpool_categorized_EN.txt	TRAIN	Vehicles	8	4	[0, 0, 0]	n/a	catFR1	0	R1518T
992.228	0.834	1038145	WORD_OFF	n/a	n/a	TRAIN	Vehicles	8	4	[0, 0, 0]	n/a	catFR1	0	R1518T
993.062	1.6	1038981	WORD	n/a	wordpools/wordpool_categorized_EN.txt	CREEK	Landscapes	9	4	[0, 0, 0]	n/a	catFR1	0	R1518T
994.662	0.884	1040583	WORD_OFF	n/a	n/a	CREEK	Landscapes	9	4	[0, 0, 0]	n/a	catFR1	0	R1518T
995.546	1.6	1041467	WORD	n/a	wordpools/wordpool_categorized_EN.txt	VALLEY	Landscapes	10	4	[0, 0, 0]	n/a	catFR1	0	R1518T
997.162	0.95	1043081	WORD_OFF	n/a	n/a	VALLEY	Landscapes	10	4	[0, 0, 0]	n/a	catFR1	0	R1518T
998.112	1.6	1044037	WORD	n/a	wordpools/wordpool_categorized_EN.txt	HAND	BodyParts	11	4	[0, 0, 0]	n/a	catFR1	0	R1518T
999.728	0.868	1045650	WORD_OFF	n/a	n/a	HAND	BodyParts	11	4	[0, 0, 0]	n/a	catFR1	0	R1518T
1000.596	1.6	1046511	WORD	n/a	wordpools/wordpool_categorized_EN.txt	KNEE	BodyParts	12	4	[0, 0, 0]	n/a	catFR1	0	R1518T
1002.213	0.001	1048129	PROB	4.349	n/a	n/a	n/a	-999	4	[4, 6, 4]	14.0	catFR1	0	R1518T
1002.214	0.0	1048130	START	n/a	n/a	n/a	n/a	-999	4	[-999, -999, -999]	n/a	catFR1	0	R1518T
1002.212	0.002	1048136	WORD_OFF	n/a	n/a	KNEE	BodyParts	12	4	[0, 0, 0]	n/a	catFR1	0	R1518T
1002.214	0.0	1048136	ENCODING_END	n/a	n/a	n/a	n/a	-999	4	[0, 0, 0]	n/a	catFR1	0	R1518T
1002.214	4.365	1048136	DISTRACT_START	n/a	n/a	n/a	n/a	-999	4	[0, 0, 0]	n/a	catFR1	0	R1518T
1006.579	3.3	1052494	PROB	3.283	n/a	n/a	n/a	-999	4	[7, 1, 6]	14.0	catFR1	0	R1518T
1009.879	4.984	1055794	PROB	4.966	n/a	n/a	n/a	-999	4	[7, 2, 6]	15.0	catFR1	0	R1518T
1014.863	4.8	1060778	PROB	4.782	n/a	n/a	n/a	-999	4	[8, 2, 5]	15.0	catFR1	0	R1518T
1019.663	8.332	1065578	PROB	8.315	n/a	n/a	n/a	-999	4	[5, 2, 4]	11.0	catFR1	0	R1518T
1027.995	0.0	1073909	STOP	n/a	n/a	n/a	n/a	-999	4	[-999, -999, -999]	n/a	catFR1	0	R1518T
1027.995	2.033	1073917	DISTRACT_END	n/a	n/a	n/a	n/a	-999	4	[0, 0, 0]	n/a	catFR1	0	R1518T
1030.028	2.671	1075944	REC_START	n/a	n/a	n/a	n/a	-999	4	[0, 0, 0]	n/a	catFR1	0	R1518T
1032.699	2.129	1078613	REC_WORD_VV	2.671	n/a	<>	n/a	-999	4	[0, 0, 0]	n/a	catFR1	0	R1518T
1034.828	0.561	1080742	REC_WORD_VV	4.8	n/a	<>	n/a	-999	4	[0, 0, 0]	n/a	catFR1	0	R1518T
1035.389	2.524	1081303	REC_WORD	5.361	n/a	RIVER	Landscapes	-999	4	[0, 0, 0]	n/a	catFR1	0	R1518T
1037.913	3.97	1083827	REC_WORD_VV	7.885	n/a	<>	n/a	-999	4	[0, 0, 0]	n/a	catFR1	0	R1518T
1041.883	1.0	1087797	REC_WORD_VV	11.855	n/a	<>	n/a	-999	4	[0, 0, 0]	n/a	catFR1	0	R1518T
1042.883	13.046	1088797	REC_WORD_VV	12.855	n/a	<>	n/a	-999	4	[0, 0, 0]	n/a	catFR1	0	R1518T
1055.929	1.445	1101842	REC_WORD_VV	25.901	n/a	<>	n/a	-999	4	[0, 0, 0]	n/a	catFR1	0	R1518T
1057.374	1.465	1103287	REC_WORD	27.346	n/a	LAKE	Landscapes	-999	4	[0, 0, 0]	n/a	catFR1	0	R1518T
1058.839	0.904	1104752	REC_WORD	28.811	n/a	OCEAN	Landscapes	-999	4	[0, 0, 0]	n/a	catFR1	0	R1518T
1059.743	0.46	1105656	REC_WORD	29.715	n/a	BEACH	Landscapes	4	4	[0, 0, 0]	n/a	catFR1	0	R1518T
1060.203	13.144	1106127	REC_END	n/a	n/a	n/a	n/a	-999	4	[0, 0, 0]	n/a	catFR1	0	R1518T
1073.347	10.0	1119262	COUNTDOWN_START	n/a	n/a	n/a	n/a	-999	5	[0, 0, 0]	n/a	catFR1	0	R1518T
1083.695	0.0	1129612	COUNTDOWN_END	n/a	n/a	n/a	n/a	-999	5	[0, 0, 0]	n/a	catFR1	0	R1518T
1083.695	2.301	1129612	ENCODING_START	n/a	n/a	n/a	n/a	-999	5	[0, 0, 0]	n/a	catFR1	0	R1518T
1085.996	1.6	1131907	WORD	n/a	wordpools/wordpool_categorized_EN.txt	TIGER	Zoo	1	5	[0, 0, 0]	n/a	catFR1	0	R1518T
1087.596	0.983	1133508	WORD_OFF	n/a	n/a	TIGER	Zoo	1	5	[0, 0, 0]	n/a	catFR1	0	R1518T
1088.579	1.6	1134500	WORD	n/a	wordpools/wordpool_categorized_EN.txt	ORANGUTAN	Zoo	2	5	[0, 0, 0]	n/a	catFR1	0	R1518T
1090.196	0.883	1136114	WORD_OFF	n/a	n/a	ORANGUTAN	Zoo	2	5	[0, 0, 0]	n/a	catFR1	0	R1518T
1091.079	1.6	1136998	WORD	n/a	wordpools/wordpool_categorized_EN.txt	SOFA	Furniture	3	5	[0, 0, 0]	n/a	catFR1	0	R1518T
1092.696	0.783	1138612	WORD_OFF	n/a	n/a	SOFA	Furniture	3	5	[0, 0, 0]	n/a	catFR1	0	R1518T
1093.479	1.6	1139400	WORD	n/a	wordpools/wordpool_categorized_EN.txt	RECLINER	Furniture	4	5	[0, 0, 0]	n/a	catFR1	0	R1518T
1095.079	0.767	1140990	WORD_OFF	n/a	n/a	RECLINER	Furniture	4	5	[0, 0, 0]	n/a	catFR1	0	R1518T
1095.846	1.6	1141767	WORD	n/a	wordpools/wordpool_categorized_EN.txt	GUITAR	Instruments	5	5	[0, 0, 0]	n/a	catFR1	0	R1518T
1097.445	0.917	1143356	WORD_OFF	n/a	n/a	GUITAR	Instruments	5	5	[0, 0, 0]	n/a	catFR1	0	R1518T
1098.362	1.6	1144277	WORD	n/a	wordpools/wordpool_categorized_EN.txt	FLUTE	Instruments	6	5	[0, 0, 0]	n/a	catFR1	0	R1518T
1099.962	0.833	1145878	WORD_OFF	n/a	n/a	FLUTE	Instruments	6	5	[0, 0, 0]	n/a	catFR1	0	R1518T
1100.795	1.6	1146715	WORD	n/a	wordpools/wordpool_categorized_EN.txt	TABLE	Furniture	7	5	[0, 0, 0]	n/a	catFR1	0	R1518T
1102.395	0.9	1148316	WORD_OFF	n/a	n/a	TABLE	Furniture	7	5	[0, 0, 0]	n/a	catFR1	0	R1518T
1103.295	1.6	1149213	WORD	n/a	wordpools/wordpool_categorized_EN.txt	BED	Furniture	8	5	[0, 0, 0]	n/a	catFR1	0	R1518T
1104.895	0.884	1150814	WORD_OFF	n/a	n/a	BED	Furniture	8	5	[0, 0, 0]	n/a	catFR1	0	R1518T
1105.779	1.6	1151699	WORD	n/a	wordpools/wordpool_categorized_EN.txt	BASS	Instruments	9	5	[0, 0, 0]	n/a	catFR1	0	R1518T
1107.379	0.816	1153300	WORD_OFF	n/a	n/a	BASS	Instruments	9	5	[0, 0, 0]	n/a	catFR1	0	R1518T
1108.195	1.6	1154113	WORD	n/a	wordpools/wordpool_categorized_EN.txt	DRUM	Instruments	10	5	[0, 0, 0]	n/a	catFR1	0	R1518T
1109.813	0.799	1155727	WORD_OFF	n/a	n/a	DRUM	Instruments	10	5	[0, 0, 0]	n/a	catFR1	0	R1518T
1110.612	1.6	1156527	WORD	n/a	wordpools/wordpool_categorized_EN.txt	CHEETAH	Zoo	11	5	[0, 0, 0]	n/a	catFR1	0	R1518T
1112.229	0.784	1158141	WORD_OFF	n/a	n/a	CHEETAH	Zoo	11	5	[0, 0, 0]	n/a	catFR1	0	R1518T
1113.013	1.6	1158930	WORD	n/a	wordpools/wordpool_categorized_EN.txt	PANDA	Zoo	12	5	[0, 0, 0]	n/a	catFR1	0	R1518T
1114.613	0.001	1160523	PROB	2.916	n/a	n/a	n/a	-999	5	[1, 6, 1]	8.0	catFR1	0	R1518T
1114.614	0.0	1160524	START	n/a	n/a	n/a	n/a	-999	5	[-999, -999, -999]	n/a	catFR1	0	R1518T
1114.612	0.002	1160531	WORD_OFF	n/a	n/a	PANDA	Zoo	12	5	[0, 0, 0]	n/a	catFR1	0	R1518T
1114.614	0.0	1160531	ENCODING_END	n/a	n/a	n/a	n/a	-999	5	[0, 0, 0]	n/a	catFR1	0	R1518T
1114.614	2.932	1160531	DISTRACT_START	n/a	n/a	n/a	n/a	-999	5	[0, 0, 0]	n/a	catFR1	0	R1518T
1117.546	3.699	1163456	PROB	3.683	n/a	n/a	n/a	-999	5	[8, 4, 6]	18.0	catFR1	0	R1518T
1121.245	4.218	1167154	PROB	4.2	n/a	n/a	n/a	-999	5	[7, 6, 8]	21.0	catFR1	0	R1518T
1125.463	2.516	1171372	PROB	2.499	n/a	n/a	n/a	-999	5	[4, 2, 5]	11.0	catFR1	0	R1518T
1127.979	3.366	1173888	PROB	3.35	n/a	n/a	n/a	-999	5	[1, 5, 2]	8.0	catFR1	0	R1518T
1131.345	7.067	1177254	PROB	7.051	n/a	n/a	n/a	-999	5	[4, 7, 8]	19.0	catFR1	0	R1518T
1138.412	0.0	1184320	STOP	n/a	n/a	n/a	n/a	-999	5	[-999, -999, -999]	n/a	catFR1	0	R1518T
1138.412	2.184	1184327	DISTRACT_END	n/a	n/a	n/a	n/a	-999	5	[0, 0, 0]	n/a	catFR1	0	R1518T
1140.596	1.158	1186510	REC_START	n/a	n/a	n/a	n/a	-999	5	[0, 0, 0]	n/a	catFR1	0	R1518T
1141.754	0.43	1187662	REC_WORD_VV	1.158	n/a	<>	n/a	-999	5	[0, 0, 0]	n/a	catFR1	0	R1518T
1142.184	0.877	1188092	REC_WORD	1.588	n/a	TIGER	Zoo	1	5	[0, 0, 0]	n/a	catFR1	0	R1518T
1143.061	1.351	1188969	REC_WORD	2.465	n/a	ORANGUTAN	Zoo	2	5	[0, 0, 0]	n/a	catFR1	0	R1518T
1144.412	1.647	1190320	REC_WORD	3.816	n/a	CHEETAH	Zoo	11	5	[0, 0, 0]	n/a	catFR1	0	R1518T
1146.059	1.167	1191967	REC_WORD	5.463	n/a	TABLE	Furniture	7	5	[0, 0, 0]	n/a	catFR1	0	R1518T
1147.226	1.594	1193134	REC_WORD	6.63	n/a	BED	Furniture	8	5	[0, 0, 0]	n/a	catFR1	0	R1518T
1148.82	1.263	1194728	REC_WORD	8.224	n/a	SOFA	Furniture	3	5	[0, 0, 0]	n/a	catFR1	0	R1518T
1150.083	1.412	1195991	REC_WORD	9.487	n/a	BASS	Instruments	9	5	[0, 0, 0]	n/a	catFR1	0	R1518T
1151.495	1.338	1197403	REC_WORD	10.899	n/a	DRUM	Instruments	10	5	[0, 0, 0]	n/a	catFR1	0	R1518T
1152.833	4.974	1198741	REC_WORD	12.237	n/a	GUITAR	Instruments	5	5	[0, 0, 0]	n/a	catFR1	0	R1518T
1157.807	1.0	1203715	REC_WORD_VV	17.211	n/a	<>	n/a	-999	5	[0, 0, 0]	n/a	catFR1	0	R1518T
1158.807	11.987	1204714	REC_WORD_VV	18.211	n/a	<>	n/a	-999	5	[0, 0, 0]	n/a	catFR1	0	R1518T
1170.794	16.302	1216705	REC_END	n/a	n/a	n/a	n/a	-999	5	[0, 0, 0]	n/a	catFR1	0	R1518T
1187.096	10.0	1233007	COUNTDOWN_START	n/a	n/a	n/a	n/a	-999	6	[0, 0, 0]	n/a	catFR1	0	R1518T
1197.445	0.0	1243357	COUNTDOWN_END	n/a	n/a	n/a	n/a	-999	6	[0, 0, 0]	n/a	catFR1	0	R1518T
1197.445	2.184	1243357	ENCODING_START	n/a	n/a	n/a	n/a	-999	6	[0, 0, 0]	n/a	catFR1	0	R1518T
1199.629	1.6	1245544	WORD	n/a	wordpools/wordpool_categorized_EN.txt	LINEN	Fabric	1	6	[0, 0, 0]	n/a	catFR1	0	R1518T
1201.229	0.933	1247134	WORD_OFF	n/a	n/a	LINEN	Fabric	1	6	[0, 0, 0]	n/a	catFR1	0	R1518T
1202.162	1.6	1248066	WORD	n/a	wordpools/wordpool_categorized_EN.txt	NYLON	Fabric	2	6	[0, 0, 0]	n/a	catFR1	0	R1518T
1203.762	0.884	1249668	WORD_OFF	n/a	n/a	NYLON	Fabric	2	6	[0, 0, 0]	n/a	catFR1	0	R1518T
1204.646	1.6	1250552	WORD	n/a	wordpools/wordpool_categorized_EN.txt	WATER	Beverages	3	6	[0, 0, 0]	n/a	catFR1	0	R1518T
1206.246	0.983	1252154	WORD_OFF	n/a	n/a	WATER	Beverages	3	6	[0, 0, 0]	n/a	catFR1	0	R1518T
1207.229	1.6	1253134	WORD	n/a	wordpools/wordpool_categorized_EN.txt	COFFEE	Beverages	4	6	[0, 0, 0]	n/a	catFR1	0	R1518T
1208.846	0.982	1254759	WORD_OFF	n/a	n/a	COFFEE	Beverages	4	6	[0, 0, 0]	n/a	catFR1	0	R1518T
1209.828	1.6	1255739	WORD	n/a	wordpools/wordpool_categorized_EN.txt	DOLLHOUSE	Toys	5	6	[0, 0, 0]	n/a	catFR1	0	R1518T
1211.429	0.85	1257341	WORD_OFF	n/a	n/a	DOLLHOUSE	Toys	5	6	[0, 0, 0]	n/a	catFR1	0	R1518T
1212.279	1.6	1258189	WORD	n/a	wordpools/wordpool_categorized_EN.txt	FRISBEE	Toys	6	6	[0, 0, 0]	n/a	catFR1	0	R1518T
1213.896	0.832	1259803	WORD_OFF	n/a	n/a	FRISBEE	Toys	6	6	[0, 0, 0]	n/a	catFR1	0	R1518T
1214.728	1.6	1260639	WORD	n/a	wordpools/wordpool_categorized_EN.txt	LEATHER	Fabric	7	6	[0, 0, 0]	n/a	catFR1	0	R1518T
1216.329	0.967	1262241	WORD_OFF	n/a	n/a	LEATHER	Fabric	7	6	[0, 0, 0]	n/a	catFR1	0	R1518T
1217.296	1.6	1263209	WORD	n/a	wordpools/wordpool_categorized_EN.txt	SATIN	Fabric	8	6	[0, 0, 0]	n/a	catFR1	0	R1518T
1218.896	0.816	1264811	WORD_OFF	n/a	n/a	SATIN	Fabric	8	6	[0, 0, 0]	n/a	catFR1	0	R1518T
1219.712	1.6	1265623	WORD	n/a	wordpools/wordpool_categorized_EN.txt	WINE	Beverages	9	6	[0, 0, 0]	n/a	catFR1	0	R1518T
1221.313	0.833	1267225	WORD_OFF	n/a	n/a	WINE	Beverages	9	6	[0, 0, 0]	n/a	catFR1	0	R1518T
1222.146	1.6	1268050	WORD	n/a	wordpools/wordpool_categorized_EN.txt	JUICE	Beverages	10	6	[0, 0, 0]	n/a	catFR1	0	R1518T
1223.746	0.917	1269651	WORD_OFF	n/a	n/a	JUICE	Beverages	10	6	[0, 0, 0]	n/a	catFR1	0	R1518T
1224.663	1.6	1270571	WORD	n/a	wordpools/wordpool_categorized_EN.txt	BARBIE	Toys	11	6	[0, 0, 0]	n/a	catFR1	0	R1518T
1226.279	0.817	1272185	WORD_OFF	n/a	n/a	BARBIE	Toys	11	6	[0, 0, 0]	n/a	catFR1	0	R1518T
1227.096	1.6	1273010	WORD	n/a	wordpools/wordpool_categorized_EN.txt	MARBLES	Toys	12	6	[0, 0, 0]	n/a	catFR1	0	R1518T
1228.696	0.0	1274599	WORD_OFF	n/a	n/a	MARBLES	Toys	12	6	[0, 0, 0]	n/a	catFR1	0	R1518T
1228.696	0.001	1274600	PROB	3.95	n/a	n/a	n/a	-999	6	[5, 4, 8]	17.0	catFR1	0	R1518T
1228.697	0.0	1274601	START	n/a	n/a	n/a	n/a	-999	6	[-999, -999, -999]	n/a	catFR1	0	R1518T
1228.697	0.0	1274611	ENCODING_END	n/a	n/a	n/a	n/a	-999	6	[0, 0, 0]	n/a	catFR1	0	R1518T
1228.697	3.966	1274611	DISTRACT_START	n/a	n/a	n/a	n/a	-999	6	[0, 0, 0]	n/a	catFR1	0	R1518T
1232.663	1.752	1278567	PROB	1.732	n/a	n/a	n/a	-999	6	[2, 1, 2]	5.0	catFR1	0	R1518T
1234.415	2.631	1280318	PROB	2.616	n/a	n/a	n/a	-999	6	[2, 5, 7]	14.0	catFR1	0	R1518T
1237.046	1.836	1282949	PROB	1.816	n/a	n/a	n/a	-999	6	[6, 6, 2]	14.0	catFR1	0	R1518T
1238.882	2.663	1284785	PROB	2.65	n/a	n/a	n/a	-999	6	[4, 3, 4]	11.0	catFR1	0	R1518T
1241.545	3.734	1287448	PROB	3.717	n/a	n/a	n/a	-999	6	[8, 8, 2]	18.0	catFR1	0	R1518T
1245.279	3.5	1291182	PROB	3.483	n/a	n/a	n/a	-999	6	[7, 8, 2]	17.0	catFR1	0	R1518T
1248.779	0.0	1294682	STOP	n/a	n/a	n/a	n/a	-999	6	[-999, -999, -999]	n/a	catFR1	0	R1518T
1248.779	2.316	1294690	DISTRACT_END	n/a	n/a	n/a	n/a	-999	6	[0, 0, 0]	n/a	catFR1	0	R1518T
1251.095	0.714	1297005	REC_START	n/a	n/a	n/a	n/a	-999	6	[0, 0, 0]	n/a	catFR1	0	R1518T
1251.809	2.335	1297712	REC_WORD	0.714	n/a	NYLON	Fabric	2	6	[0, 0, 0]	n/a	catFR1	0	R1518T
1254.144	1.243	1300046	REC_WORD	3.049	n/a	LINEN	Fabric	1	6	[0, 0, 0]	n/a	catFR1	0	R1518T
1255.387	2.033	1301289	REC_WORD	4.292	n/a	LEATHER	Fabric	7	6	[0, 0, 0]	n/a	catFR1	0	R1518T
1257.42	2.171	1303322	REC_WORD	6.325	n/a	BARBIE	Toys	11	6	[0, 0, 0]	n/a	catFR1	0	R1518T
1259.591	3.197	1305493	REC_WORD	8.496	n/a	WATER	Beverages	3	6	[0, 0, 0]	n/a	catFR1	0	R1518T
1262.788	16.9	1308690	REC_WORD_VV	11.693	n/a	<>	n/a	-999	6	[0, 0, 0]	n/a	catFR1	0	R1518T
1279.688	1.601	1325589	REC_WORD_VV	28.593	n/a	<>	n/a	-999	6	[0, 0, 0]	n/a	catFR1	0	R1518T
1281.289	32.94	1327199	REC_END	n/a	n/a	n/a	n/a	-999	6	[0, 0, 0]	n/a	catFR1	0	R1518T
1314.229	10.0	1360138	COUNTDOWN_START	n/a	n/a	n/a	n/a	-999	7	[0, 0, 0]	n/a	catFR1	0	R1518T
1324.579	0.0	1370488	COUNTDOWN_END	n/a	n/a	n/a	n/a	-999	7	[0, 0, 0]	n/a	catFR1	0	R1518T
1324.579	2.083	1370488	ENCODING_START	n/a	n/a	n/a	n/a	-999	7	[0, 0, 0]	n/a	catFR1	0	R1518T
1326.662	1.6	1372568	WORD	n/a	wordpools/wordpool_categorized_EN.txt	BOAT	Vehicles	1	7	[0, 0, 0]	n/a	catFR1	0	R1518T
1328.262	0.85	1374170	WORD_OFF	n/a	n/a	BOAT	Vehicles	1	7	[0, 0, 0]	n/a	catFR1	0	R1518T
1329.112	1.6	1375018	WORD	n/a	wordpools/wordpool_categorized_EN.txt	SCOOTER	Vehicles	2	7	[0, 0, 0]	n/a	catFR1	0	R1518T
1330.729	0.968	1376632	WORD_OFF	n/a	n/a	SCOOTER	Vehicles	2	7	[0, 0, 0]	n/a	catFR1	0	R1518T
1331.697	1.6	1377600	WORD	n/a	wordpools/wordpool_categorized_EN.txt	DOLPHIN	OceanAnimals	3	7	[0, 0, 0]	n/a	catFR1	0	R1518T
1333.296	0.799	1379201	WORD_OFF	n/a	n/a	DOLPHIN	OceanAnimals	3	7	[0, 0, 0]	n/a	catFR1	0	R1518T
1334.095	1.6	1380002	WORD	n/a	wordpools/wordpool_categorized_EN.txt	TURTLE	OceanAnimals	4	7	[0, 0, 0]	n/a	catFR1	0	R1518T
1335.697	0.899	1381604	WORD_OFF	n/a	n/a	TURTLE	OceanAnimals	4	7	[0, 0, 0]	n/a	catFR1	0	R1518T
1336.596	1.6	1382500	WORD	n/a	wordpools/wordpool_categorized_EN.txt	ELBOW	BodyParts	5	7	[0, 0, 0]	n/a	catFR1	0	R1518T
1338.211	0.818	1384113	WORD_OFF	n/a	n/a	ELBOW	BodyParts	5	7	[0, 0, 0]	n/a	catFR1	0	R1518T
1339.029	1.6	1384926	WORD	n/a	wordpools/wordpool_categorized_EN.txt	EYE	BodyParts	6	7	[0, 0, 0]	n/a	catFR1	0	R1518T
1340.629	0.867	1386528	WORD_OFF	n/a	n/a	EYE	BodyParts	6	7	[0, 0, 0]	n/a	catFR1	0	R1518T
1341.496	1.6	1387400	WORD	n/a	wordpools/wordpool_categorized_EN.txt	FISH	OceanAnimals	7	7	[0, 0, 0]	n/a	catFR1	0	R1518T
1343.096	0.782	1389002	WORD_OFF	n/a	n/a	FISH	OceanAnimals	7	7	[0, 0, 0]	n/a	catFR1	0	R1518T
1343.878	1.6	1389779	WORD	n/a	wordpools/wordpool_categorized_EN.txt	OYSTER	OceanAnimals	8	7	[0, 0, 0]	n/a	catFR1	0	R1518T
1345.479	0.834	1391380	WORD_OFF	n/a	n/a	OYSTER	OceanAnimals	8	7	[0, 0, 0]	n/a	catFR1	0	R1518T
1346.313	1.6	1392217	WORD	n/a	wordpools/wordpool_categorized_EN.txt	FINGERS	BodyParts	9	7	[0, 0, 0]	n/a	catFR1	0	R1518T
1347.929	0.867	1393830	WORD_OFF	n/a	n/a	FINGERS	BodyParts	9	7	[0, 0, 0]	n/a	catFR1	0	R1518T
1348.796	1.6	1394703	WORD	n/a	wordpools/wordpool_categorized_EN.txt	NOSE	BodyParts	10	7	[0, 0, 0]	n/a	catFR1	0	R1518T
1350.412	0.85	1396316	WORD_OFF	n/a	n/a	NOSE	BodyParts	10	7	[0, 0, 0]	n/a	catFR1	0	R1518T
1351.262	1.6	1397165	WORD	n/a	wordpools/wordpool_categorized_EN.txt	BIKE	Vehicles	11	7	[0, 0, 0]	n/a	catFR1	0	R1518T
1352.879	0.8	1398778	WORD_OFF	n/a	n/a	BIKE	Vehicles	11	7	[0, 0, 0]	n/a	catFR1	0	R1518T
1353.679	1.6	1399579	WORD	n/a	wordpools/wordpool_categorized_EN.txt	MOPED	Vehicles	12	7	[0, 0, 0]	n/a	catFR1	0	R1518T
1355.296	0.0	1401193	WORD_OFF	n/a	n/a	MOPED	Vehicles	12	7	[0, 0, 0]	n/a	catFR1	0	R1518T
1355.296	0.001	1401193	PROB	6.816	n/a	n/a	n/a	-999	7	[7, 5, 6]	18.0	catFR1	0	R1518T
1355.297	0.0	1401194	START	n/a	n/a	n/a	n/a	-999	7	[-999, -999, -999]	n/a	catFR1	0	R1518T
1355.297	0.0	1401205	ENCODING_END	n/a	n/a	n/a	n/a	-999	7	[0, 0, 0]	n/a	catFR1	0	R1518T
1355.297	6.833	1401205	DISTRACT_START	n/a	n/a	n/a	n/a	-999	7	[0, 0, 0]	n/a	catFR1	0	R1518T
1362.13	2.933	1408027	PROB	2.916	n/a	n/a	n/a	-999	7	[7, 1, 3]	11.0	catFR1	0	R1518T
1365.063	3.549	1410960	PROB	3.533	n/a	n/a	n/a	-999	7	[7, 2, 1]	10.0	catFR1	0	R1518T
1368.612	2.25	1414508	PROB	2.233	n/a	n/a	n/a	-999	7	[2, 3, 5]	10.0	catFR1	0	R1518T
1370.862	2.251	1416758	PROB	2.233	n/a	n/a	n/a	-999	7	[8, 4, 1]	13.0	catFR1	0	R1518T
1373.113	2.933	1419009	PROB	2.916	n/a	n/a	n/a	-999	7	[2, 2, 3]	7.0	catFR1	0	R1518T
1376.046	0.0	1421942	STOP	n/a	n/a	n/a	n/a	-999	7	[-999, -999, -999]	n/a	catFR1	0	R1518T
1376.046	2.399	1421953	DISTRACT_END	n/a	n/a	n/a	n/a	-999	7	[0, 0, 0]	n/a	catFR1	0	R1518T
1378.445	1.185	1424351	REC_START	n/a	n/a	n/a	n/a	-999	7	[0, 0, 0]	n/a	catFR1	0	R1518T
1379.63	1.016	1425526	REC_WORD	1.185	n/a	ELBOW	BodyParts	5	7	[0, 0, 0]	n/a	catFR1	0	R1518T
1380.646	1.114	1426542	REC_WORD	2.201	n/a	NOSE	BodyParts	10	7	[0, 0, 0]	n/a	catFR1	0	R1518T
1381.76	2.069	1427656	REC_WORD	3.315	n/a	EYE	BodyParts	6	7	[0, 0, 0]	n/a	catFR1	0	R1518T
1383.829	0.729	1429725	REC_WORD	5.384	n/a	MOPED	Vehicles	12	7	[0, 0, 0]	n/a	catFR1	0	R1518T
1384.558	1.112	1430454	REC_WORD	6.113	n/a	SCOOTER	Vehicles	2	7	[0, 0, 0]	n/a	catFR1	0	R1518T
1385.67	2.722	1431566	REC_WORD	7.225	n/a	BIKE	Vehicles	11	7	[0, 0, 0]	n/a	catFR1	0	R1518T
1388.392	1.362	1434287	REC_WORD_VV	9.947	n/a	<>	n/a	-999	7	[0, 0, 0]	n/a	catFR1	0	R1518T
1389.754	0.977	1435649	REC_WORD	11.309	n/a	OYSTER	OceanAnimals	8	7	[0, 0, 0]	n/a	catFR1	0	R1518T
1390.731	1.317	1436626	REC_WORD	12.286	n/a	FISH	OceanAnimals	7	7	[0, 0, 0]	n/a	catFR1	0	R1518T
1392.048	1.811	1437943	REC_WORD	13.603	n/a	TURTLE	OceanAnimals	4	7	[0, 0, 0]	n/a	catFR1	0	R1518T
1393.859	11.199	1439754	REC_WORD	15.414	n/a	DOLPHIN	OceanAnimals	3	7	[0, 0, 0]	n/a	catFR1	0	R1518T
1405.058	1.0	1450953	REC_WORD_VV	26.613	n/a	<>	n/a	-999	7	[0, 0, 0]	n/a	catFR1	0	R1518T
1406.058	1.0	1451953	REC_WORD_VV	27.613	n/a	<>	n/a	-999	7	[0, 0, 0]	n/a	catFR1	0	R1518T
1407.058	1.562	1452952	REC_WORD_VV	28.613	n/a	<>	n/a	-999	7	[0, 0, 0]	n/a	catFR1	0	R1518T
1408.62	25.526	1454521	REC_END	n/a	n/a	n/a	n/a	-999	7	[0, 0, 0]	n/a	catFR1	0	R1518T
1434.146	10.0	1480039	COUNTDOWN_START	n/a	n/a	n/a	n/a	-999	8	[0, 0, 0]	n/a	catFR1	0	R1518T
1444.496	0.0	1490389	COUNTDOWN_END	n/a	n/a	n/a	n/a	-999	8	[0, 0, 0]	n/a	catFR1	0	R1518T
1444.496	2.083	1490389	ENCODING_START	n/a	n/a	n/a	n/a	-999	8	[0, 0, 0]	n/a	catFR1	0	R1518T
1446.579	1.6	1492480	WORD	n/a	wordpools/wordpool_categorized_EN.txt	EAR	BodyParts	1	8	[0, 0, 0]	n/a	catFR1	0	R1518T
1448.179	0.9	1494082	WORD_OFF	n/a	n/a	EAR	BodyParts	1	8	[0, 0, 0]	n/a	catFR1	0	R1518T
1449.079	1.6	1494978	WORD	n/a	wordpools/wordpool_categorized_EN.txt	FOOT	BodyParts	2	8	[0, 0, 0]	n/a	catFR1	0	R1518T
1450.696	0.8	1496592	WORD_OFF	n/a	n/a	FOOT	BodyParts	2	8	[0, 0, 0]	n/a	catFR1	0	R1518T
1451.496	1.6	1497393	WORD	n/a	wordpools/wordpool_categorized_EN.txt	BALL	Toys	3	8	[0, 0, 0]	n/a	catFR1	0	R1518T
1453.112	0.833	1499006	WORD_OFF	n/a	n/a	BALL	Toys	3	8	[0, 0, 0]	n/a	catFR1	0	R1518T
1453.945	1.6	1499843	WORD	n/a	wordpools/wordpool_categorized_EN.txt	PUZZLE	Toys	4	8	[0, 0, 0]	n/a	catFR1	0	R1518T
1455.546	0.8	1501444	WORD_OFF	n/a	n/a	PUZZLE	Toys	4	8	[0, 0, 0]	n/a	catFR1	0	R1518T
1456.346	1.6	1502245	WORD	n/a	wordpools/wordpool_categorized_EN.txt	PLANE	Vehicles	5	8	[0, 0, 0]	n/a	catFR1	0	R1518T
1457.962	0.867	1503858	WORD_OFF	n/a	n/a	PLANE	Vehicles	5	8	[0, 0, 0]	n/a	catFR1	0	R1518T
1458.829	1.6	1504731	WORD	n/a	wordpools/wordpool_categorized_EN.txt	CAR	Vehicles	6	8	[0, 0, 0]	n/a	catFR1	0	R1518T
1460.429	0.866	1506333	WORD_OFF	n/a	n/a	CAR	Vehicles	6	8	[0, 0, 0]	n/a	catFR1	0	R1518T
1461.295	1.6	1507193	WORD	n/a	wordpools/wordpool_categorized_EN.txt	BLOCKS	Toys	7	8	[0, 0, 0]	n/a	catFR1	0	R1518T
1462.895	0.783	1508795	WORD_OFF	n/a	n/a	BLOCKS	Toys	7	8	[0, 0, 0]	n/a	catFR1	0	R1518T
1463.678	1.6	1509571	WORD	n/a	wordpools/wordpool_categorized_EN.txt	BASEBALL	Toys	8	8	[0, 0, 0]	n/a	catFR1	0	R1518T
1465.278	0.95	1511173	WORD_OFF	n/a	n/a	BASEBALL	Toys	8	8	[0, 0, 0]	n/a	catFR1	0	R1518T
1466.228	1.6	1512129	WORD	n/a	wordpools/wordpool_categorized_EN.txt	BUS	Vehicles	9	8	[0, 0, 0]	n/a	catFR1	0	R1518T
1467.829	1.0	1513731	WORD_OFF	n/a	n/a	BUS	Vehicles	9	8	[0, 0, 0]	n/a	catFR1	0	R1518T
1468.829	1.6	1514723	WORD	n/a	wordpools/wordpool_categorized_EN.txt	MOTORCYCLE	Vehicles	10	8	[0, 0, 0]	n/a	catFR1	0	R1518T
1470.429	0.984	1516324	WORD_OFF	n/a	n/a	MOTORCYCLE	Vehicles	10	8	[0, 0, 0]	n/a	catFR1	0	R1518T
1471.413	1.6	1517304	WORD	n/a	wordpools/wordpool_categorized_EN.txt	TOE	BodyParts	11	8	[0, 0, 0]	n/a	catFR1	0	R1518T
1473.012	0.901	1518906	WORD_OFF	n/a	n/a	TOE	BodyParts	11	8	[0, 0, 0]	n/a	catFR1	0	R1518T
1473.913	1.6	1519814	WORD	n/a	wordpools/wordpool_categorized_EN.txt	LEG	BodyParts	12	8	[0, 0, 0]	n/a	catFR1	0	R1518T
1475.529	0.001	1521420	PROB	5.183	n/a	n/a	n/a	-999	8	[3, 5, 5]	13.0	catFR1	0	R1518T
1475.53	0.0	1521421	START	n/a	n/a	n/a	n/a	-999	8	[-999, -999, -999]	n/a	catFR1	0	R1518T
1475.529	0.001	1521428	WORD_OFF	n/a	n/a	LEG	BodyParts	12	8	[0, 0, 0]	n/a	catFR1	0	R1518T
1475.53	0.0	1521428	ENCODING_END	n/a	n/a	n/a	n/a	-999	8	[0, 0, 0]	n/a	catFR1	0	R1518T
1475.53	5.2	1521428	DISTRACT_START	n/a	n/a	n/a	n/a	-999	8	[0, 0, 0]	n/a	catFR1	0	R1518T
1480.73	2.316	1526621	PROB	2.298	n/a	n/a	n/a	-999	8	[1, 4, 2]	6.0	catFR1	0	R1518T
1483.046	2.117	1528936	PROB	2.099	n/a	n/a	n/a	-999	8	[4, 6, 3]	13.0	catFR1	0	R1518T
1485.163	3.917	1531053	PROB	3.9	n/a	n/a	n/a	-999	8	[8, 4, 3]	15.0	catFR1	0	R1518T
1489.08	7.232	1534970	PROB	7.216	n/a	n/a	n/a	-999	8	[7, 5, 8]	20.0	catFR1	0	R1518T
1496.312	0.0	1542202	STOP	n/a	n/a	n/a	n/a	-999	8	[-999, -999, -999]	n/a	catFR1	0	R1518T
1496.312	2.2	1542212	DISTRACT_END	n/a	n/a	n/a	n/a	-999	8	[0, 0, 0]	n/a	catFR1	0	R1518T
1498.512	1.126	1544407	REC_START	n/a	n/a	n/a	n/a	-999	8	[0, 0, 0]	n/a	catFR1	0	R1518T
1499.638	1.01	1545528	REC_WORD_VV	1.126	n/a	<>	n/a	-999	8	[0, 0, 0]	n/a	catFR1	0	R1518T
1500.648	0.94	1546538	REC_WORD	2.136	n/a	BLOCKS	Toys	7	8	[0, 0, 0]	n/a	catFR1	0	R1518T
1501.588	1.326	1547478	REC_WORD	3.076	n/a	TOE	BodyParts	11	8	[0, 0, 0]	n/a	catFR1	0	R1518T
1502.914	2.474	1548803	REC_WORD	4.402	n/a	LEG	BodyParts	12	8	[0, 0, 0]	n/a	catFR1	0	R1518T
1505.388	0.218	1551277	REC_WORD_VV	6.876	n/a	<>	n/a	-999	8	[0, 0, 0]	n/a	catFR1	0	R1518T
1505.606	1.645	1551495	REC_WORD	7.094	n/a	MOTORCYCLE	Vehicles	10	8	[0, 0, 0]	n/a	catFR1	0	R1518T
1507.251	2.136	1553140	REC_WORD	8.739	n/a	BUS	Vehicles	9	8	[0, 0, 0]	n/a	catFR1	0	R1518T
1509.387	2.811	1555276	REC_WORD	10.875	n/a	CAR	Vehicles	6	8	[0, 0, 0]	n/a	catFR1	0	R1518T
1512.198	4.626	1558087	REC_WORD_VV	13.686	n/a	<>	n/a	-999	8	[0, 0, 0]	n/a	catFR1	0	R1518T
1516.824	0.775	1562713	REC_WORD	18.312	n/a	FEET	n/a	-999	8	[0, 0, 0]	n/a	catFR1	0	R1518T
1517.599	4.617	1563488	REC_WORD	19.087	n/a	FOOT	BodyParts	2	8	[0, 0, 0]	n/a	catFR1	0	R1518T
1522.216	3.802	1568104	REC_WORD	23.704	n/a	BALL	Toys	3	8	[0, 0, 0]	n/a	catFR1	0	R1518T
1526.018	2.693	1571906	REC_WORD_VV	27.506	n/a	<>	n/a	-999	8	[0, 0, 0]	n/a	catFR1	0	R1518T
1528.711	15.718	1574601	REC_END	n/a	n/a	n/a	n/a	-999	8	[0, 0, 0]	n/a	catFR1	0	R1518T
1544.429	10.0	1590318	COUNTDOWN_START	n/a	n/a	n/a	n/a	-999	9	[0, 0, 0]	n/a	catFR1	0	R1518T
1554.778	0.0	1600668	COUNTDOWN_END	n/a	n/a	n/a	n/a	-999	9	[0, 0, 0]	n/a	catFR1	0	R1518T
1554.778	2.217	1600668	ENCODING_START	n/a	n/a	n/a	n/a	-999	9	[0, 0, 0]	n/a	catFR1	0	R1518T
1556.995	1.6	1602891	WORD	n/a	wordpools/wordpool_categorized_EN.txt	STAIRS	Building	1	9	[0, 0, 0]	n/a	catFR1	0	R1518T
1558.612	0.867	1604505	WORD_OFF	n/a	n/a	STAIRS	Building	1	9	[0, 0, 0]	n/a	catFR1	0	R1518T
1559.479	1.6	1605365	WORD	n/a	wordpools/wordpool_categorized_EN.txt	ATTIC	Building	2	9	[0, 0, 0]	n/a	catFR1	0	R1518T
1561.079	0.8	1606967	WORD_OFF	n/a	n/a	ATTIC	Building	2	9	[0, 0, 0]	n/a	catFR1	0	R1518T
1561.879	1.6	1607767	WORD	n/a	wordpools/wordpool_categorized_EN.txt	CHERRY	Fruit	3	9	[0, 0, 0]	n/a	catFR1	0	R1518T
1563.496	0.783	1609381	WORD_OFF	n/a	n/a	CHERRY	Fruit	3	9	[0, 0, 0]	n/a	catFR1	0	R1518T
1564.279	1.6	1610170	WORD	n/a	wordpools/wordpool_categorized_EN.txt	PEAR	Fruit	4	9	[0, 0, 0]	n/a	catFR1	0	R1518T
1565.879	0.85	1611771	WORD_OFF	n/a	n/a	PEAR	Fruit	4	9	[0, 0, 0]	n/a	catFR1	0	R1518T
1566.729	1.6	1612620	WORD	n/a	wordpools/wordpool_categorized_EN.txt	RADIO	Electronics	5	9	[0, 0, 0]	n/a	catFR1	0	R1518T
1568.329	0.9	1614221	WORD_OFF	n/a	n/a	RADIO	Electronics	5	9	[0, 0, 0]	n/a	catFR1	0	R1518T
1569.229	1.6	1615118	WORD	n/a	wordpools/wordpool_categorized_EN.txt	TELEVISION	Electronics	6	9	[0, 0, 0]	n/a	catFR1	0	R1518T
1570.846	0.832	1616731	WORD_OFF	n/a	n/a	TELEVISION	Electronics	6	9	[0, 0, 0]	n/a	catFR1	0	R1518T
1571.678	1.6	1617568	WORD	n/a	wordpools/wordpool_categorized_EN.txt	WALL	Building	7	9	[0, 0, 0]	n/a	catFR1	0	R1518T
1573.278	0.883	1619169	WORD_OFF	n/a	n/a	WALL	Building	7	9	[0, 0, 0]	n/a	catFR1	0	R1518T
1574.161	1.6	1620054	WORD	n/a	wordpools/wordpool_categorized_EN.txt	FOUNDATION	Building	8	9	[0, 0, 0]	n/a	catFR1	0	R1518T
1575.762	0.817	1621655	WORD_OFF	n/a	n/a	FOUNDATION	Building	8	9	[0, 0, 0]	n/a	catFR1	0	R1518T
1576.579	1.6	1622468	WORD	n/a	wordpools/wordpool_categorized_EN.txt	TABLET	Electronics	9	9	[0, 0, 0]	n/a	catFR1	0	R1518T
1578.196	0.933	1624082	WORD_OFF	n/a	n/a	TABLET	Electronics	9	9	[0, 0, 0]	n/a	catFR1	0	R1518T
1579.129	1.6	1625014	WORD	n/a	wordpools/wordpool_categorized_EN.txt	CALCULATOR	Electronics	10	9	[0, 0, 0]	n/a	catFR1	0	R1518T
1580.745	0.951	1626639	WORD_OFF	n/a	n/a	CALCULATOR	Electronics	10	9	[0, 0, 0]	n/a	catFR1	0	R1518T
1581.696	1.6	1627583	WORD	n/a	wordpools/wordpool_categorized_EN.txt	PEACH	Fruit	11	9	[0, 0, 0]	n/a	catFR1	0	R1518T
1583.312	0.917	1629197	WORD_OFF	n/a	n/a	PEACH	Fruit	11	9	[0, 0, 0]	n/a	catFR1	0	R1518T
1584.229	1.6	1630117	WORD	n/a	wordpools/wordpool_categorized_EN.txt	LEMON	Fruit	12	9	[0, 0, 0]	n/a	catFR1	0	R1518T
1585.83	0.001	1631715	PROB	4.866	n/a	n/a	n/a	-999	9	[3, 2, 6]	11.0	catFR1	0	R1518T
1585.831	0.0	1631716	START	n/a	n/a	n/a	n/a	-999	9	[-999, -999, -999]	n/a	catFR1	0	R1518T
1585.829	0.002	1631719	WORD_OFF	n/a	n/a	LEMON	Fruit	12	9	[0, 0, 0]	n/a	catFR1	0	R1518T
1585.831	0.0	1631719	ENCODING_END	n/a	n/a	n/a	n/a	-999	9	[0, 0, 0]	n/a	catFR1	0	R1518T
1585.831	4.882	1631719	DISTRACT_START	n/a	n/a	n/a	n/a	-999	9	[0, 0, 0]	n/a	catFR1	0	R1518T
1590.713	2.75	1636598	PROB	2.732	n/a	n/a	n/a	-999	9	[2, 3, 5]	10.0	catFR1	0	R1518T
1593.463	3.666	1639348	PROB	3.649	n/a	n/a	n/a	-999	9	[2, 8, 8]	18.0	catFR1	0	R1518T
1597.129	2.15	1643013	PROB	2.133	n/a	n/a	n/a	-999	9	[4, 6, 3]	13.0	catFR1	0	R1518T
1599.279	2.817	1645163	PROB	2.8	n/a	n/a	n/a	-999	9	[6, 3, 5]	14.0	catFR1	0	R1518T
1602.096	2.6	1647980	PROB	2.583	n/a	n/a	n/a	-999	9	[5, 3, 7]	15.0	catFR1	0	R1518T
1604.696	3.351	1650580	PROB	3.333	n/a	n/a	n/a	-999	9	[3, 4, 3]	10.0	catFR1	0	R1518T
1608.047	0.0	1653931	STOP	n/a	n/a	n/a	n/a	-999	9	[-999, -999, -999]	n/a	catFR1	0	R1518T
1608.047	2.148	1653937	DISTRACT_END	n/a	n/a	n/a	n/a	-999	9	[0, 0, 0]	n/a	catFR1	0	R1518T
1610.195	1.099	1656085	REC_START	n/a	n/a	n/a	n/a	-999	9	[0, 0, 0]	n/a	catFR1	0	R1518T
1611.294	0.991	1657178	REC_WORD	1.099	n/a	CHERRY	Fruit	3	9	[0, 0, 0]	n/a	catFR1	0	R1518T
1612.285	1.096	1658169	REC_WORD	2.09	n/a	PEAR	Fruit	4	9	[0, 0, 0]	n/a	catFR1	0	R1518T
1613.381	0.877	1659265	REC_WORD	3.186	n/a	PEACH	Fruit	11	9	[0, 0, 0]	n/a	catFR1	0	R1518T
1614.258	1.2	1660142	REC_WORD	4.063	n/a	STAIRS	Building	1	9	[0, 0, 0]	n/a	catFR1	0	R1518T
1615.458	0.944	1661342	REC_WORD	5.263	n/a	ATTIC	Building	2	9	[0, 0, 0]	n/a	catFR1	0	R1518T
1616.402	3.376	1662286	REC_WORD	6.207	n/a	WALL	Building	7	9	[0, 0, 0]	n/a	catFR1	0	R1518T
1619.778	1.509	1665661	REC_WORD_VV	9.583	n/a	<>	n/a	-999	9	[0, 0, 0]	n/a	catFR1	0	R1518T
1621.287	3.669	1667170	REC_WORD	11.092	n/a	FOUNDATION	Building	8	9	[0, 0, 0]	n/a	catFR1	0	R1518T
1624.956	1.001	1670839	REC_WORD_VV	14.761	n/a	<>	n/a	-999	9	[0, 0, 0]	n/a	catFR1	0	R1518T
1625.957	7.975	1671840	REC_WORD_VV	15.762	n/a	<>	n/a	-999	9	[0, 0, 0]	n/a	catFR1	0	R1518T
1633.932	1.0	1679815	REC_WORD_VV	23.737	n/a	<>	n/a	-999	9	[0, 0, 0]	n/a	catFR1	0	R1518T
1634.932	5.44	1680815	REC_WORD_VV	24.737	n/a	<>	n/a	-999	9	[0, 0, 0]	n/a	catFR1	0	R1518T
1640.372	9.807	1686255	REC_END	n/a	n/a	n/a	n/a	-999	9	[0, 0, 0]	n/a	catFR1	0	R1518T
1650.179	10.0	1696067	COUNTDOWN_START	n/a	n/a	n/a	n/a	-999	10	[0, 0, 0]	n/a	catFR1	0	R1518T
1660.529	0.0	1706418	COUNTDOWN_END	n/a	n/a	n/a	n/a	-999	10	[0, 0, 0]	n/a	catFR1	0	R1518T
1660.529	1.949	1706418	ENCODING_START	n/a	n/a	n/a	n/a	-999	10	[0, 0, 0]	n/a	catFR1	0	R1518T
1662.478	1.6	1708366	WORD	n/a	wordpools/wordpool_categorized_EN.txt	SHOVEL	Tools	1	10	[0, 0, 0]	n/a	catFR1	0	R1518T
1664.078	0.934	1709967	WORD_OFF	n/a	n/a	SHOVEL	Tools	1	10	[0, 0, 0]	n/a	catFR1	0	R1518T
1665.012	1.6	1710899	WORD	n/a	wordpools/wordpool_categorized_EN.txt	DRILL	Tools	2	10	[0, 0, 0]	n/a	catFR1	0	R1518T
1666.612	0.766	1712501	WORD_OFF	n/a	n/a	DRILL	Tools	2	10	[0, 0, 0]	n/a	catFR1	0	R1518T
1667.378	1.6	1713266	WORD	n/a	wordpools/wordpool_categorized_EN.txt	LADYBUG	Insects	3	10	[0, 0, 0]	n/a	catFR1	0	R1518T
1668.996	0.866	1714879	WORD_OFF	n/a	n/a	LADYBUG	Insects	3	10	[0, 0, 0]	n/a	catFR1	0	R1518T
1669.862	1.6	1715752	WORD	n/a	wordpools/wordpool_categorized_EN.txt	CRICKET	Insects	4	10	[0, 0, 0]	n/a	catFR1	0	R1518T
1671.463	0.833	1717353	WORD_OFF	n/a	n/a	CRICKET	Insects	4	10	[0, 0, 0]	n/a	catFR1	0	R1518T
1672.296	1.6	1718178	WORD	n/a	wordpools/wordpool_categorized_EN.txt	CEILING	Building	5	10	[0, 0, 0]	n/a	catFR1	0	R1518T
1673.896	0.883	1719780	WORD_OFF	n/a	n/a	CEILING	Building	5	10	[0, 0, 0]	n/a	catFR1	0	R1518T
1674.779	1.6	1720664	WORD	n/a	wordpools/wordpool_categorized_EN.txt	FLOOR	Building	6	10	[0, 0, 0]	n/a	catFR1	0	R1518T
1676.396	0.817	1722278	WORD_OFF	n/a	n/a	FLOOR	Building	6	10	[0, 0, 0]	n/a	catFR1	0	R1518T
1677.213	1.6	1723102	WORD	n/a	wordpools/wordpool_categorized_EN.txt	ANT	Insects	7	10	[0, 0, 0]	n/a	catFR1	0	R1518T
1678.829	0.767	1724716	WORD_OFF	n/a	n/a	ANT	Insects	7	10	[0, 0, 0]	n/a	catFR1	0	R1518T
1679.596	1.6	1725481	WORD	n/a	wordpools/wordpool_categorized_EN.txt	BUTTERFLY	Insects	8	10	[0, 0, 0]	n/a	catFR1	0	R1518T
1681.196	0.999	1727082	WORD_OFF	n/a	n/a	BUTTERFLY	Insects	8	10	[0, 0, 0]	n/a	catFR1	0	R1518T
1682.195	1.6	1728086	WORD	n/a	wordpools/wordpool_categorized_EN.txt	LEVEL	Tools	9	10	[0, 0, 0]	n/a	catFR1	0	R1518T
1683.812	0.784	1729700	WORD_OFF	n/a	n/a	LEVEL	Tools	9	10	[0, 0, 0]	n/a	catFR1	0	R1518T
1684.596	1.6	1730477	WORD	n/a	wordpools/wordpool_categorized_EN.txt	CROWBAR	Tools	10	10	[0, 0, 0]	n/a	catFR1	0	R1518T
1686.196	0.95	1732078	WORD_OFF	n/a	n/a	CROWBAR	Tools	10	10	[0, 0, 0]	n/a	catFR1	0	R1518T
1687.146	1.6	1733034	WORD	n/a	wordpools/wordpool_categorized_EN.txt	ROOF	Building	11	10	[0, 0, 0]	n/a	catFR1	0	R1518T
1688.746	0.833	1734636	WORD_OFF	n/a	n/a	ROOF	Building	11	10	[0, 0, 0]	n/a	catFR1	0	R1518T
1689.579	1.6	1735460	WORD	n/a	wordpools/wordpool_categorized_EN.txt	BATHROOM	Building	12	10	[0, 0, 0]	n/a	catFR1	0	R1518T
1691.196	0.001	1737076	PROB	6.566	n/a	n/a	n/a	-999	10	[2, 4, 8]	14.0	catFR1	0	R1518T
1691.197	0.0	1737077	START	n/a	n/a	n/a	n/a	-999	10	[-999, -999, -999]	n/a	catFR1	0	R1518T
1691.196	0.001	1737086	WORD_OFF	n/a	n/a	BATHROOM	Building	12	10	[0, 0, 0]	n/a	catFR1	0	R1518T
1691.197	0.0	1737086	ENCODING_END	n/a	n/a	n/a	n/a	-999	10	[0, 0, 0]	n/a	catFR1	0	R1518T
1691.197	6.582	1737086	DISTRACT_START	n/a	n/a	n/a	n/a	-999	10	[0, 0, 0]	n/a	catFR1	0	R1518T
1697.779	7.217	1743658	PROB	7.2	n/a	n/a	n/a	-999	10	[7, 6, 6]	19.0	catFR1	0	R1518T
1704.996	6.218	1750875	PROB	6.2	n/a	n/a	n/a	-999	10	[7, 4, 5]	16.0	catFR1	0	R1518T
1711.214	0.0	1757093	DISTRACT_END	n/a	n/a	n/a	n/a	-999	10	[0, 0, 0]	n/a	catFR1	0	R1518T
1711.214	2.232	1757093	STOP	n/a	n/a	n/a	n/a	-999	10	[-999, -999, -999]	n/a	catFR1	0	R1518T
1713.446	1.85	1759324	REC_START	n/a	n/a	n/a	n/a	-999	10	[0, 0, 0]	n/a	catFR1	0	R1518T
1715.296	1.278	1761174	REC_WORD	1.85	n/a	FLOOR	Building	6	10	[0, 0, 0]	n/a	catFR1	0	R1518T
1716.574	1.502	1762452	REC_WORD	3.128	n/a	CEILING	Building	5	10	[0, 0, 0]	n/a	catFR1	0	R1518T
1718.076	2.144	1763954	REC_WORD	4.63	n/a	ROOF	Building	11	10	[0, 0, 0]	n/a	catFR1	0	R1518T
1720.22	0.966	1766098	REC_WORD	6.774	n/a	LEVEL	Tools	9	10	[0, 0, 0]	n/a	catFR1	0	R1518T
1721.186	2.722	1767064	REC_WORD	7.74	n/a	CROWBAR	Tools	10	10	[0, 0, 0]	n/a	catFR1	0	R1518T
1723.908	6.927	1769786	REC_WORD_VV	10.462	n/a	<>	n/a	-999	10	[0, 0, 0]	n/a	catFR1	0	R1518T
1730.835	1.0	1776713	REC_WORD_VV	17.389	n/a	<>	n/a	-999	10	[0, 0, 0]	n/a	catFR1	0	R1518T
1731.835	5.573	1777712	REC_WORD_VV	18.389	n/a	<>	n/a	-999	10	[0, 0, 0]	n/a	catFR1	0	R1518T
1737.408	6.241	1783285	REC_WORD	23.962	n/a	SHOVEL	Tools	1	10	[0, 0, 0]	n/a	catFR1	0	R1518T
1743.649	8.596	1789530	REC_END	n/a	n/a	n/a	n/a	-999	10	[0, 0, 0]	n/a	catFR1	0	R1518T
1752.245	10.0	1798124	COUNTDOWN_START	n/a	n/a	n/a	n/a	-999	11	[0, 0, 0]	n/a	catFR1	0	R1518T
1762.595	0.0	1808474	COUNTDOWN_END	n/a	n/a	n/a	n/a	-999	11	[0, 0, 0]	n/a	catFR1	0	R1518T
1762.595	1.917	1808474	ENCODING_START	n/a	n/a	n/a	n/a	-999	11	[0, 0, 0]	n/a	catFR1	0	R1518T
1764.512	1.6	1810398	WORD	n/a	wordpools/wordpool_categorized_EN.txt	CABINET	Furniture	1	11	[0, 0, 0]	n/a	catFR1	0	R1518T
1766.112	0.817	1811988	WORD_OFF	n/a	n/a	CABINET	Furniture	1	11	[0, 0, 0]	n/a	catFR1	0	R1518T
1766.929	1.6	1812812	WORD	n/a	wordpools/wordpool_categorized_EN.txt	NIGHTSTAND	Furniture	2	11	[0, 0, 0]	n/a	catFR1	0	R1518T
1768.529	0.8	1814414	WORD_OFF	n/a	n/a	NIGHTSTAND	Furniture	2	11	[0, 0, 0]	n/a	catFR1	0	R1518T
1769.329	1.6	1815215	WORD	n/a	wordpools/wordpool_categorized_EN.txt	HAMMER	Tools	3	11	[0, 0, 0]	n/a	catFR1	0	R1518T
1770.929	1.0	1816804	WORD_OFF	n/a	n/a	HAMMER	Tools	3	11	[0, 0, 0]	n/a	catFR1	0	R1518T
1771.929	1.6	1817808	WORD	n/a	wordpools/wordpool_categorized_EN.txt	RATCHET	Tools	4	11	[0, 0, 0]	n/a	catFR1	0	R1518T
1773.546	0.816	1819422	WORD_OFF	n/a	n/a	RATCHET	Tools	4	11	[0, 0, 0]	n/a	catFR1	0	R1518T
1774.362	1.6	1820246	WORD	n/a	wordpools/wordpool_categorized_EN.txt	DOLL	Toys	5	11	[0, 0, 0]	n/a	catFR1	0	R1518T
1775.962	0.9	1821848	WORD_OFF	n/a	n/a	DOLL	Toys	5	11	[0, 0, 0]	n/a	catFR1	0	R1518T
1776.862	1.6	1822744	WORD	n/a	wordpools/wordpool_categorized_EN.txt	BASKETBALL	Toys	6	11	[0, 0, 0]	n/a	catFR1	0	R1518T
1778.462	0.766	1824346	WORD_OFF	n/a	n/a	BASKETBALL	Toys	6	11	[0, 0, 0]	n/a	catFR1	0	R1518T
1779.228	1.6	1825111	WORD	n/a	wordpools/wordpool_categorized_EN.txt	PLIERS	Tools	7	11	[0, 0, 0]	n/a	catFR1	0	R1518T
1780.828	0.833	1826712	WORD_OFF	n/a	n/a	PLIERS	Tools	7	11	[0, 0, 0]	n/a	catFR1	0	R1518T
1781.661	1.6	1827537	WORD	n/a	wordpools/wordpool_categorized_EN.txt	SAW	Tools	8	11	[0, 0, 0]	n/a	catFR1	0	R1518T
1783.262	0.817	1829139	WORD_OFF	n/a	n/a	SAW	Tools	8	11	[0, 0, 0]	n/a	catFR1	0	R1518T
1784.079	1.6	1829963	WORD	n/a	wordpools/wordpool_categorized_EN.txt	FOOTBALL	Toys	9	11	[0, 0, 0]	n/a	catFR1	0	R1518T
1785.696	1.0	1831577	WORD_OFF	n/a	n/a	FOOTBALL	Toys	9	11	[0, 0, 0]	n/a	catFR1	0	R1518T
1786.696	1.6	1832581	WORD	n/a	wordpools/wordpool_categorized_EN.txt	SLINKY	Toys	10	11	[0, 0, 0]	n/a	catFR1	0	R1518T
1788.296	0.816	1834170	WORD_OFF	n/a	n/a	SLINKY	Toys	10	11	[0, 0, 0]	n/a	catFR1	0	R1518T
1789.112	1.6	1834995	WORD	n/a	wordpools/wordpool_categorized_EN.txt	DESK	Furniture	11	11	[0, 0, 0]	n/a	catFR1	0	R1518T
1790.713	0.816	1836597	WORD_OFF	n/a	n/a	DESK	Furniture	11	11	[0, 0, 0]	n/a	catFR1	0	R1518T
1791.529	1.6	1837409	WORD	n/a	wordpools/wordpool_categorized_EN.txt	DRESSER	Furniture	12	11	[0, 0, 0]	n/a	catFR1	0	R1518T
1793.129	0.002	1839003	PROB	5.182	n/a	n/a	n/a	-999	11	[5, 7, 1]	13.0	catFR1	0	R1518T
1793.131	0.0	1839005	START	n/a	n/a	n/a	n/a	-999	11	[-999, -999, -999]	n/a	catFR1	0	R1518T
1793.129	0.002	1839011	WORD_OFF	n/a	n/a	DRESSER	Furniture	12	11	[0, 0, 0]	n/a	catFR1	0	R1518T
1793.131	0.0	1839011	ENCODING_END	n/a	n/a	n/a	n/a	-999	11	[0, 0, 0]	n/a	catFR1	0	R1518T
1793.131	5.198	1839011	DISTRACT_START	n/a	n/a	n/a	n/a	-999	11	[0, 0, 0]	n/a	catFR1	0	R1518T
1798.329	2.017	1844203	PROB	2.0	n/a	n/a	n/a	-999	11	[5, 5, 5]	15.0	catFR1	0	R1518T
1800.346	2.95	1846220	PROB	2.933	n/a	n/a	n/a	-999	11	[4, 3, 4]	11.0	catFR1	0	R1518T
1803.296	3.516	1849170	PROB	3.5	n/a	n/a	n/a	-999	11	[4, 1, 7]	12.0	catFR1	0	R1518T
1806.812	2.584	1852686	PROB	2.567	n/a	n/a	n/a	-999	11	[7, 1, 3]	11.0	catFR1	0	R1518T
1809.396	3.75	1855269	PROB	3.734	n/a	n/a	n/a	-999	11	[8, 5, 8]	21.0	catFR1	0	R1518T
1813.146	0.0	1859018	DISTRACT_END	n/a	n/a	n/a	n/a	-999	11	[0, 0, 0]	n/a	catFR1	0	R1518T
1813.146	2.266	1859019	STOP	n/a	n/a	n/a	n/a	-999	11	[-999, -999, -999]	n/a	catFR1	0	R1518T
1815.412	1.142	1861285	REC_START	n/a	n/a	n/a	n/a	-999	11	[0, 0, 0]	n/a	catFR1	0	R1518T
1816.554	0.998	1862427	REC_WORD	1.142	n/a	NIGHTSTAND	Furniture	2	11	[0, 0, 0]	n/a	catFR1	0	R1518T
1817.552	0.89	1863425	REC_WORD	2.14	n/a	NIGHTSTAND	Furniture	2	11	[0, 0, 0]	n/a	catFR1	0	R1518T
1818.442	1.092	1864315	REC_WORD	3.03	n/a	DESK	Furniture	11	11	[0, 0, 0]	n/a	catFR1	0	R1518T
1819.534	1.294	1865407	REC_WORD	4.122	n/a	DRAWERS	n/a	-999	11	[0, 0, 0]	n/a	catFR1	0	R1518T
1820.828	1.294	1866701	REC_WORD	5.416	n/a	HAMMER	Tools	3	11	[0, 0, 0]	n/a	catFR1	0	R1518T
1822.122	0.984	1867995	REC_WORD	6.71	n/a	RATCHET	Tools	4	11	[0, 0, 0]	n/a	catFR1	0	R1518T
1823.106	1.55	1868979	REC_WORD	7.694	n/a	FOOTBALL	Toys	9	11	[0, 0, 0]	n/a	catFR1	0	R1518T
1824.656	2.758	1870529	REC_WORD	9.244	n/a	SLINKY	Toys	10	11	[0, 0, 0]	n/a	catFR1	0	R1518T
1827.414	3.061	1873286	REC_WORD_VV	12.002	n/a	<>	n/a	-999	11	[0, 0, 0]	n/a	catFR1	0	R1518T
1830.475	3.317	1876347	REC_WORD	15.063	n/a	CABINET	Furniture	1	11	[0, 0, 0]	n/a	catFR1	0	R1518T
1833.792	1.684	1879664	REC_WORD_VV	18.38	n/a	<>	n/a	-999	11	[0, 0, 0]	n/a	catFR1	0	R1518T
1835.476	4.421	1881348	REC_WORD	20.064	n/a	BASKETBALL	Toys	6	11	[0, 0, 0]	n/a	catFR1	0	R1518T
1839.897	1.0	1885769	REC_WORD_VV	24.485	n/a	<>	n/a	-999	11	[0, 0, 0]	n/a	catFR1	0	R1518T
1840.897	4.729	1886769	REC_WORD_VV	25.485	n/a	<>	n/a	-999	11	[0, 0, 0]	n/a	catFR1	0	R1518T
1845.626	23.386	1891503	REC_END	n/a	n/a	n/a	n/a	-999	11	[0, 0, 0]	n/a	catFR1	0	R1518T
1869.012	10.0	1914893	COUNTDOWN_START	n/a	n/a	n/a	n/a	-999	12	[0, 0, 0]	n/a	catFR1	0	R1518T
1879.362	0.0	1925231	COUNTDOWN_END	n/a	n/a	n/a	n/a	-999	12	[0, 0, 0]	n/a	catFR1	0	R1518T
1879.362	2.184	1925243	ENCODING_START	n/a	n/a	n/a	n/a	-999	12	[0, 0, 0]	n/a	catFR1	0	R1518T
1881.546	1.6	1927418	WORD	n/a	wordpools/wordpool_categorized_EN.txt	FLY	Insects	1	12	[0, 0, 0]	n/a	catFR1	0	R1518T
1883.146	0.999	1929020	WORD_OFF	n/a	n/a	FLY	Insects	1	12	[0, 0, 0]	n/a	catFR1	0	R1518T
1884.145	1.6	1930024	WORD	n/a	wordpools/wordpool_categorized_EN.txt	BEETLE	Insects	2	12	[0, 0, 0]	n/a	catFR1	0	R1518T
1885.746	0.767	1931625	WORD_OFF	n/a	n/a	BEETLE	Insects	2	12	[0, 0, 0]	n/a	catFR1	0	R1518T
1886.513	1.6	1932390	WORD	n/a	wordpools/wordpool_categorized_EN.txt	MICROWAVE	Electronics	3	12	[0, 0, 0]	n/a	catFR1	0	R1518T
1888.129	0.85	1934004	WORD_OFF	n/a	n/a	MICROWAVE	Electronics	3	12	[0, 0, 0]	n/a	catFR1	0	R1518T
1888.979	1.6	1934852	WORD	n/a	wordpools/wordpool_categorized_EN.txt	HEADPHONES	Electronics	4	12	[0, 0, 0]	n/a	catFR1	0	R1518T
1890.58	0.781	1936454	WORD_OFF	n/a	n/a	HEADPHONES	Electronics	4	12	[0, 0, 0]	n/a	catFR1	0	R1518T
1891.361	1.6	1937231	WORD	n/a	wordpools/wordpool_categorized_EN.txt	AXE	Tools	5	12	[0, 0, 0]	n/a	catFR1	0	R1518T
1892.962	0.833	1938832	WORD_OFF	n/a	n/a	AXE	Tools	5	12	[0, 0, 0]	n/a	catFR1	0	R1518T
1893.795	1.6	1939669	WORD	n/a	wordpools/wordpool_categorized_EN.txt	WRENCH	Tools	6	12	[0, 0, 0]	n/a	catFR1	0	R1518T
1895.395	0.834	1941270	WORD_OFF	n/a	n/a	WRENCH	Tools	6	12	[0, 0, 0]	n/a	catFR1	0	R1518T
1896.229	1.6	1942107	WORD	n/a	wordpools/wordpool_categorized_EN.txt	ROACH	Insects	7	12	[0, 0, 0]	n/a	catFR1	0	R1518T
1897.829	0.967	1943697	WORD_OFF	n/a	n/a	ROACH	Insects	7	12	[0, 0, 0]	n/a	catFR1	0	R1518T
1898.796	1.6	1944665	WORD	n/a	wordpools/wordpool_categorized_EN.txt	SPIDER	Insects	8	12	[0, 0, 0]	n/a	catFR1	0	R1518T
1900.396	0.933	1946266	WORD_OFF	n/a	n/a	SPIDER	Insects	8	12	[0, 0, 0]	n/a	catFR1	0	R1518T
1901.329	1.6	1947198	WORD	n/a	wordpools/wordpool_categorized_EN.txt	SANDER	Tools	9	12	[0, 0, 0]	n/a	catFR1	0	R1518T
1902.945	0.901	1948824	WORD_OFF	n/a	n/a	SANDER	Tools	9	12	[0, 0, 0]	n/a	catFR1	0	R1518T
1903.846	1.6	1949720	WORD	n/a	wordpools/wordpool_categorized_EN.txt	SCREWDRIVER	Tools	10	12	[0, 0, 0]	n/a	catFR1	0	R1518T
1905.462	0.85	1951334	WORD_OFF	n/a	n/a	SCREWDRIVER	Tools	10	12	[0, 0, 0]	n/a	catFR1	0	R1518T
1906.312	1.6	1952182	WORD	n/a	wordpools/wordpool_categorized_EN.txt	STEREO	Electronics	11	12	[0, 0, 0]	n/a	catFR1	0	R1518T
1907.929	0.833	1953808	WORD_OFF	n/a	n/a	STEREO	Electronics	11	12	[0, 0, 0]	n/a	catFR1	0	R1518T
1908.762	1.6	1954633	WORD	n/a	wordpools/wordpool_categorized_EN.txt	SCANNER	Electronics	12	12	[0, 0, 0]	n/a	catFR1	0	R1518T
1910.38	0.001	1956248	PROB	6.682	n/a	n/a	n/a	-999	12	[8, 3, 4]	15.0	catFR1	0	R1518T
1910.381	0.0	1956249	START	n/a	n/a	n/a	n/a	-999	12	[-999, -999, -999]	n/a	catFR1	0	R1518T
1910.379	0.002	1956258	WORD_OFF	n/a	n/a	SCANNER	Electronics	12	12	[0, 0, 0]	n/a	catFR1	0	R1518T
1910.381	0.0	1956258	ENCODING_END	n/a	n/a	n/a	n/a	-999	12	[0, 0, 0]	n/a	catFR1	0	R1518T
1910.381	6.697	1956258	DISTRACT_START	n/a	n/a	n/a	n/a	-999	12	[0, 0, 0]	n/a	catFR1	0	R1518T
1917.078	1.801	1962946	PROB	1.784	n/a	n/a	n/a	-999	12	[7, 3, 3]	13.0	catFR1	0	R1518T
1918.879	4.734	1964747	PROB	4.716	n/a	n/a	n/a	-999	12	[6, 1, 3]	10.0	catFR1	0	R1518T
1923.613	4.366	1969480	PROB	4.35	n/a	n/a	n/a	-999	12	[8, 4, 6]	18.0	catFR1	0	R1518T
1927.979	2.966	1973846	PROB	2.95	n/a	n/a	n/a	-999	12	[4, 1, 1]	6.0	catFR1	0	R1518T
1930.945	0.0	1976812	STOP	n/a	n/a	n/a	n/a	-999	12	[-999, -999, -999]	n/a	catFR1	0	R1518T
1930.945	2.301	1976815	DISTRACT_END	n/a	n/a	n/a	n/a	-999	12	[0, 0, 0]	n/a	catFR1	0	R1518T
1933.246	0.928	1979118	REC_START	n/a	n/a	n/a	n/a	-999	12	[0, 0, 0]	n/a	catFR1	0	R1518T
1934.174	1.125	1980041	REC_WORD_VV	0.928	n/a	<>	n/a	-999	12	[0, 0, 0]	n/a	catFR1	0	R1518T
1935.299	0.764	1981166	REC_WORD_VV	2.053	n/a	<>	n/a	-999	12	[0, 0, 0]	n/a	catFR1	0	R1518T
1936.063	1.133	1981930	REC_WORD	2.817	n/a	SCREWDRIVER	Tools	10	12	[0, 0, 0]	n/a	catFR1	0	R1518T
1937.196	1.7	1983063	REC_WORD	3.95	n/a	WRENCH	Tools	6	12	[0, 0, 0]	n/a	catFR1	0	R1518T
1938.896	1.231	1984763	REC_WORD	5.65	n/a	ROACH	Insects	7	12	[0, 0, 0]	n/a	catFR1	0	R1518T
1940.127	2.1	1985994	REC_WORD	6.881	n/a	FLY	Insects	1	12	[0, 0, 0]	n/a	catFR1	0	R1518T
1942.227	3.323	1988093	REC_WORD	8.981	n/a	BEETLE	Insects	2	12	[0, 0, 0]	n/a	catFR1	0	R1518T
1945.55	0.485	1991416	REC_WORD_VV	12.304	n/a	<>	n/a	-999	12	[0, 0, 0]	n/a	catFR1	0	R1518T
1946.035	1.12	1991901	REC_WORD	12.789	n/a	MICROWAVE	Electronics	3	12	[0, 0, 0]	n/a	catFR1	0	R1518T
1947.155	7.434	1993021	REC_WORD	13.909	n/a	SCANNER	Electronics	12	12	[0, 0, 0]	n/a	catFR1	0	R1518T
1954.589	0.997	2000455	REC_WORD_VV	21.343	n/a	<>	n/a	-999	12	[0, 0, 0]	n/a	catFR1	0	R1518T
1955.586	5.454	2001452	REC_WORD_VV	22.34	n/a	<>	n/a	-999	12	[0, 0, 0]	n/a	catFR1	0	R1518T
1961.04	0.771	2006906	REC_WORD_VV	27.794	n/a	<>	n/a	-999	12	[0, 0, 0]	n/a	catFR1	0	R1518T
1961.811	0.587	2007676	REC_WORD	28.565	n/a	WALL	Building	-999	12	[0, 0, 0]	n/a	catFR1	0	R1518T
1962.398	1.048	2008263	REC_WORD_VV	29.152	n/a	<>	n/a	-999	12	[0, 0, 0]	n/a	catFR1	0	R1518T
1963.446	0.0	2009312	REC_END	n/a	n/a	n/a	n/a	-999	12	[0, 0, 0]	n/a	catFR1	0	R1518T
