onset	duration	sample	trial_type	response_time	stim_file	item_name	category	serialpos	list	test	answer	experiment	session	subject
0.0	164.882	25792	INSTRUCT_START	n/a	n/a	n/a	n/a	-999	-999	[0, 0, 0]	n/a	catFR1	3	R1450D
164.882	42.35	190665	INSTRUCT_END	n/a	n/a	n/a	n/a	-999	-999	[0, 0, 0]	n/a	catFR1	3	R1450D
207.232	10.0	233014	COUNTDOWN_START	n/a	n/a	n/a	n/a	-999	-999	[0, 0, 0]	n/a	catFR1	3	R1450D
217.582	0.0	243356	COUNTDOWN_END	n/a	n/a	n/a	n/a	-999	-999	[0, 0, 0]	n/a	catFR1	3	R1450D
217.582	1.899	243364	ENCODING_START	n/a	n/a	n/a	n/a	-999	-1	[0, 0, 0]	n/a	catFR1	3	R1450D
219.481	1.6	245260	WORD	n/a	n/a	CAR	Vehicles	1	-1	[0, 0, 0]	n/a	catFR1	3	R1450D
221.081	0.884	246858	WORD_OFF	n/a	n/a	CAR	Vehicles	1	-1	[0, 0, 0]	n/a	catFR1	3	R1450D
221.965	1.6	247745	WORD	n/a	n/a	TRUCK	Vehicles	2	-1	[0, 0, 0]	n/a	catFR1	3	R1450D
223.565	0.966	249343	WORD_OFF	n/a	n/a	TRUCK	Vehicles	2	-1	[0, 0, 0]	n/a	catFR1	3	R1450D
224.531	1.6	250308	WORD	n/a	n/a	LOBSTER	OceanAnimals	3	-1	[0, 0, 0]	n/a	catFR1	3	R1450D
226.131	0.867	251906	WORD_OFF	n/a	n/a	LOBSTER	OceanAnimals	3	-1	[0, 0, 0]	n/a	catFR1	3	R1450D
226.998	1.6	252775	WORD	n/a	n/a	CRAB	OceanAnimals	4	-1	[0, 0, 0]	n/a	catFR1	3	R1450D
228.614	0.967	254390	WORD_OFF	n/a	n/a	CRAB	OceanAnimals	4	-1	[0, 0, 0]	n/a	catFR1	3	R1450D
229.581	1.6	255356	WORD	n/a	n/a	WALL	Building	5	-1	[0, 0, 0]	n/a	catFR1	3	R1450D
231.198	0.949	256971	WORD_OFF	n/a	n/a	WALL	Building	5	-1	[0, 0, 0]	n/a	catFR1	3	R1450D
232.147	1.6	257928	WORD	n/a	n/a	WINDOW	Building	6	-1	[0, 0, 0]	n/a	catFR1	3	R1450D
233.748	0.849	259526	WORD_OFF	n/a	n/a	WINDOW	Building	6	-1	[0, 0, 0]	n/a	catFR1	3	R1450D
234.597	1.6	260377	WORD	n/a	n/a	MOTORCYCLE	Vehicles	7	-1	[0, 0, 0]	n/a	catFR1	3	R1450D
236.198	0.866	261975	WORD_OFF	n/a	n/a	MOTORCYCLE	Vehicles	7	-1	[0, 0, 0]	n/a	catFR1	3	R1450D
237.064	1.6	262844	WORD	n/a	n/a	MOPED	Vehicles	8	-1	[0, 0, 0]	n/a	catFR1	3	R1450D
238.664	0.801	264442	WORD_OFF	n/a	n/a	MOPED	Vehicles	8	-1	[0, 0, 0]	n/a	catFR1	3	R1450D
239.465	1.6	265241	WORD	n/a	n/a	OYSTER	OceanAnimals	9	-1	[0, 0, 0]	n/a	catFR1	3	R1450D
241.081	0.85	266856	WORD_OFF	n/a	n/a	OYSTER	OceanAnimals	9	-1	[0, 0, 0]	n/a	catFR1	3	R1450D
241.931	1.6	267708	WORD	n/a	n/a	SQUID	OceanAnimals	10	-1	[0, 0, 0]	n/a	catFR1	3	R1450D
243.548	0.8	269323	WORD_OFF	n/a	n/a	SQUID	OceanAnimals	10	-1	[0, 0, 0]	n/a	catFR1	3	R1450D
244.348	1.6	270122	WORD	n/a	n/a	ATTIC	Building	11	-1	[0, 0, 0]	n/a	catFR1	3	R1450D
245.964	0.784	271737	WORD_OFF	n/a	n/a	ATTIC	Building	11	-1	[0, 0, 0]	n/a	catFR1	3	R1450D
246.748	1.6	272527	WORD	n/a	n/a	FOUNDATION	Building	12	-1	[0, 0, 0]	n/a	catFR1	3	R1450D
248.366	0.0	274137	START	n/a	n/a	n/a	n/a	-999	-1	[-999, -999, -999]	n/a	catFR1	3	R1450D
248.366	0.0	274137	PROB	17.382	n/a	n/a	n/a	-999	-1	[7, 5, 5]	17.0	catFR1	3	R1450D
248.365	0.001	274143	WORD_OFF	n/a	n/a	FOUNDATION	Building	12	-1	[0, 0, 0]	n/a	catFR1	3	R1450D
248.366	0.0	274143	ENCODING_END	n/a	n/a	n/a	n/a	-999	-1	[0, 0, 0]	n/a	catFR1	3	R1450D
248.366	17.399	274143	DISTRACT_START	n/a	n/a	n/a	n/a	-999	-1	[0, 0, 0]	n/a	catFR1	3	R1450D
265.765	12.749	291535	PROB	12.732	n/a	n/a	n/a	-999	-1	[5, 3, 3]	11.0	catFR1	3	R1450D
278.514	0.0	304284	STOP	n/a	n/a	n/a	n/a	-999	-1	[-999, -999, -999]	n/a	catFR1	3	R1450D
278.514	2.217	304289	DISTRACT_END	n/a	n/a	n/a	n/a	-999	-1	[0, 0, 0]	n/a	catFR1	3	R1450D
280.731	7.528	306509	REC_START	n/a	n/a	n/a	n/a	-999	-1	[0, 0, 0]	n/a	catFR1	3	R1450D
288.259	1.0	314028	REC_WORD_VV	7.528	n/a	<>	n/a	-999	-1	[0, 0, 0]	n/a	catFR1	3	R1450D
289.259	1.0	315028	REC_WORD_VV	8.528	n/a	<>	n/a	-999	-1	[0, 0, 0]	n/a	catFR1	3	R1450D
290.259	20.667	316028	REC_WORD_VV	9.528	n/a	<>	n/a	-999	-1	[0, 0, 0]	n/a	catFR1	3	R1450D
310.926	6.072	336700	REC_END	n/a	n/a	n/a	n/a	-999	-1	[0, 0, 0]	n/a	catFR1	3	R1450D
316.998	10.0	342775	COUNTDOWN_START	n/a	n/a	n/a	n/a	-999	1	[0, 0, 0]	n/a	catFR1	3	R1450D
327.348	0.001	353119	COUNTDOWN_END	n/a	n/a	n/a	n/a	-999	1	[0, 0, 0]	n/a	catFR1	3	R1450D
327.349	2.349	353125	ENCODING_START	n/a	n/a	n/a	n/a	-999	1	[0, 0, 0]	n/a	catFR1	3	R1450D
329.698	1.6	355469	WORD	n/a	wordpools/wordpool_categorized_EN.txt	RIVER	Landscapes	1	1	[0, 0, 0]	n/a	catFR1	3	R1450D
331.312	0.853	357084	WORD_OFF	n/a	n/a	RIVER	Landscapes	1	1	[0, 0, 0]	n/a	catFR1	3	R1450D
332.165	1.6	357936	WORD	n/a	wordpools/wordpool_categorized_EN.txt	BEACH	Landscapes	2	1	[0, 0, 0]	n/a	catFR1	3	R1450D
333.781	0.95	359551	WORD_OFF	n/a	n/a	BEACH	Landscapes	2	1	[0, 0, 0]	n/a	catFR1	3	R1450D
334.731	1.6	360499	WORD	n/a	wordpools/wordpool_categorized_EN.txt	CARROT	Vegetables	3	1	[0, 0, 0]	n/a	catFR1	3	R1450D
336.331	0.917	362106	WORD_OFF	n/a	n/a	CARROT	Vegetables	3	1	[0, 0, 0]	n/a	catFR1	3	R1450D
337.248	1.6	363019	WORD	n/a	wordpools/wordpool_categorized_EN.txt	CUCUMBER	Vegetables	4	1	[0, 0, 0]	n/a	catFR1	3	R1450D
338.848	0.8	364616	WORD_OFF	n/a	n/a	CUCUMBER	Vegetables	4	1	[0, 0, 0]	n/a	catFR1	3	R1450D
339.648	1.6	365424	WORD	n/a	wordpools/wordpool_categorized_EN.txt	WHALE	OceanAnimals	5	1	[0, 0, 0]	n/a	catFR1	3	R1450D
341.248	0.867	367022	WORD_OFF	n/a	n/a	WHALE	OceanAnimals	5	1	[0, 0, 0]	n/a	catFR1	3	R1450D
342.115	1.6	367882	WORD	n/a	wordpools/wordpool_categorized_EN.txt	FISH	OceanAnimals	6	1	[0, 0, 0]	n/a	catFR1	3	R1450D
343.73	0.918	369506	WORD_OFF	n/a	n/a	FISH	OceanAnimals	6	1	[0, 0, 0]	n/a	catFR1	3	R1450D
344.648	1.6	370419	WORD	n/a	wordpools/wordpool_categorized_EN.txt	HILLS	Landscapes	7	1	[0, 0, 0]	n/a	catFR1	3	R1450D
346.248	0.966	372017	WORD_OFF	n/a	n/a	HILLS	Landscapes	7	1	[0, 0, 0]	n/a	catFR1	3	R1450D
347.214	1.6	372983	WORD	n/a	wordpools/wordpool_categorized_EN.txt	WOODS	Landscapes	8	1	[0, 0, 0]	n/a	catFR1	3	R1450D
348.815	0.917	374589	WORD_OFF	n/a	n/a	WOODS	Landscapes	8	1	[0, 0, 0]	n/a	catFR1	3	R1450D
349.732	1.6	375502	WORD	n/a	wordpools/wordpool_categorized_EN.txt	SPINACH	Vegetables	9	1	[0, 0, 0]	n/a	catFR1	3	R1450D
351.346	0.852	377117	WORD_OFF	n/a	n/a	SPINACH	Vegetables	9	1	[0, 0, 0]	n/a	catFR1	3	R1450D
352.198	1.6	377969	WORD	n/a	wordpools/wordpool_categorized_EN.txt	LETTUCE	Vegetables	10	1	[0, 0, 0]	n/a	catFR1	3	R1450D
353.814	0.984	379584	WORD_OFF	n/a	n/a	LETTUCE	Vegetables	10	1	[0, 0, 0]	n/a	catFR1	3	R1450D
354.798	1.6	380567	WORD	n/a	wordpools/wordpool_categorized_EN.txt	PLANKTON	OceanAnimals	11	1	[0, 0, 0]	n/a	catFR1	3	R1450D
356.415	0.8	382183	WORD_OFF	n/a	n/a	PLANKTON	OceanAnimals	11	1	[0, 0, 0]	n/a	catFR1	3	R1450D
357.215	1.6	382982	WORD	n/a	wordpools/wordpool_categorized_EN.txt	TURTLE	OceanAnimals	12	1	[0, 0, 0]	n/a	catFR1	3	R1450D
358.831	0.002	384597	PROB	12.049	n/a	n/a	n/a	-999	1	[2, 3, 6]	11.0	catFR1	3	R1450D
358.833	0.0	384599	START	n/a	n/a	n/a	n/a	-999	1	[-999, -999, -999]	n/a	catFR1	3	R1450D
358.831	0.002	384606	WORD_OFF	n/a	n/a	TURTLE	OceanAnimals	12	1	[0, 0, 0]	n/a	catFR1	3	R1450D
358.833	0.0	384606	ENCODING_END	n/a	n/a	n/a	n/a	-999	1	[0, 0, 0]	n/a	catFR1	3	R1450D
358.833	12.065	384606	DISTRACT_START	n/a	n/a	n/a	n/a	-999	1	[0, 0, 0]	n/a	catFR1	3	R1450D
370.898	10.6	396663	PROB	10.583	n/a	n/a	n/a	-999	1	[2, 1, 6]	9.0	catFR1	3	R1450D
381.498	0.0	407263	STOP	n/a	n/a	n/a	n/a	-999	1	[-999, -999, -999]	n/a	catFR1	3	R1450D
381.498	2.3	407264	DISTRACT_END	n/a	n/a	n/a	n/a	-999	1	[0, 0, 0]	n/a	catFR1	3	R1450D
383.798	2.039	409563	REC_START	n/a	n/a	n/a	n/a	-999	1	[0, 0, 0]	n/a	catFR1	3	R1450D
385.837	5.779	411601	REC_WORD_VV	2.039	n/a	<>	n/a	-999	1	[0, 0, 0]	n/a	catFR1	3	R1450D
391.616	1.0	417380	REC_WORD_VV	7.818	n/a	<>	n/a	-999	1	[0, 0, 0]	n/a	catFR1	3	R1450D
392.616	1.0	418380	REC_WORD_VV	8.818	n/a	<>	n/a	-999	1	[0, 0, 0]	n/a	catFR1	3	R1450D
393.616	3.139	419380	REC_WORD_VV	9.818	n/a	<>	n/a	-999	1	[0, 0, 0]	n/a	catFR1	3	R1450D
396.755	4.58	422519	REC_WORD_VV	12.957	n/a	<>	n/a	-999	1	[0, 0, 0]	n/a	catFR1	3	R1450D
401.335	3.118	427099	REC_WORD	17.537	n/a	CARROT	Vegetables	3	1	[0, 0, 0]	n/a	catFR1	3	R1450D
404.453	9.161	430217	REC_WORD	20.655	n/a	OYSTER	OceanAnimals	-999	1	[0, 0, 0]	n/a	catFR1	3	R1450D
413.614	0.421	439377	REC_WORD_VV	29.816	n/a	<>	n/a	-999	1	[0, 0, 0]	n/a	catFR1	3	R1450D
414.035	6.93	439806	REC_END	n/a	n/a	n/a	n/a	-999	1	[0, 0, 0]	n/a	catFR1	3	R1450D
420.965	10.0	446733	COUNTDOWN_START	n/a	n/a	n/a	n/a	-999	2	[0, 0, 0]	n/a	catFR1	3	R1450D
431.315	0.0	457083	COUNTDOWN_END	n/a	n/a	n/a	n/a	-999	2	[0, 0, 0]	n/a	catFR1	3	R1450D
431.315	2.133	457083	ENCODING_START	n/a	n/a	n/a	n/a	-999	2	[0, 0, 0]	n/a	catFR1	3	R1450D
433.448	1.6	459216	WORD	n/a	wordpools/wordpool_categorized_EN.txt	ONION	Vegetables	1	2	[0, 0, 0]	n/a	catFR1	3	R1450D
435.048	0.767	460814	WORD_OFF	n/a	n/a	ONION	Vegetables	1	2	[0, 0, 0]	n/a	catFR1	3	R1450D
435.815	1.6	461578	WORD	n/a	wordpools/wordpool_categorized_EN.txt	POTATO	Vegetables	2	2	[0, 0, 0]	n/a	catFR1	3	R1450D
437.431	0.834	463202	WORD_OFF	n/a	n/a	POTATO	Vegetables	2	2	[0, 0, 0]	n/a	catFR1	3	R1450D
438.265	1.6	464027	WORD	n/a	wordpools/wordpool_categorized_EN.txt	BARBIE	Toys	3	2	[0, 0, 0]	n/a	catFR1	3	R1450D
439.865	0.8	465634	WORD_OFF	n/a	n/a	BARBIE	Toys	3	2	[0, 0, 0]	n/a	catFR1	3	R1450D
440.665	1.6	466432	WORD	n/a	wordpools/wordpool_categorized_EN.txt	PUZZLE	Toys	4	2	[0, 0, 0]	n/a	catFR1	3	R1450D
442.281	0.917	468048	WORD_OFF	n/a	n/a	PUZZLE	Toys	4	2	[0, 0, 0]	n/a	catFR1	3	R1450D
443.198	1.6	468966	WORD	n/a	wordpools/wordpool_categorized_EN.txt	LEMON	Fruit	5	2	[0, 0, 0]	n/a	catFR1	3	R1450D
444.815	0.866	470585	WORD_OFF	n/a	n/a	LEMON	Fruit	5	2	[0, 0, 0]	n/a	catFR1	3	R1450D
445.681	1.6	471445	WORD	n/a	wordpools/wordpool_categorized_EN.txt	BLUEBERRY	Fruit	6	2	[0, 0, 0]	n/a	catFR1	3	R1450D
447.299	0.999	473069	WORD_OFF	n/a	n/a	BLUEBERRY	Fruit	6	2	[0, 0, 0]	n/a	catFR1	3	R1450D
448.298	1.6	474061	WORD	n/a	wordpools/wordpool_categorized_EN.txt	FRISBEE	Toys	7	2	[0, 0, 0]	n/a	catFR1	3	R1450D
449.898	0.85	475668	WORD_OFF	n/a	n/a	FRISBEE	Toys	7	2	[0, 0, 0]	n/a	catFR1	3	R1450D
450.748	1.6	476510	WORD	n/a	wordpools/wordpool_categorized_EN.txt	BLOCKS	Toys	8	2	[0, 0, 0]	n/a	catFR1	3	R1450D
452.348	0.867	478117	WORD_OFF	n/a	n/a	BLOCKS	Toys	8	2	[0, 0, 0]	n/a	catFR1	3	R1450D
453.215	1.6	478977	WORD	n/a	wordpools/wordpool_categorized_EN.txt	APPLE	Fruit	9	2	[0, 0, 0]	n/a	catFR1	3	R1450D
454.815	0.95	480584	WORD_OFF	n/a	n/a	APPLE	Fruit	9	2	[0, 0, 0]	n/a	catFR1	3	R1450D
455.765	1.6	481532	WORD	n/a	wordpools/wordpool_categorized_EN.txt	PEAR	Fruit	10	2	[0, 0, 0]	n/a	catFR1	3	R1450D
457.38	0.785	483147	WORD_OFF	n/a	n/a	PEAR	Fruit	10	2	[0, 0, 0]	n/a	catFR1	3	R1450D
458.165	1.6	483928	WORD	n/a	wordpools/wordpool_categorized_EN.txt	CAULIFLOWER	Vegetables	11	2	[0, 0, 0]	n/a	catFR1	3	R1450D
459.781	0.9	485544	WORD_OFF	n/a	n/a	CAULIFLOWER	Vegetables	11	2	[0, 0, 0]	n/a	catFR1	3	R1450D
460.681	1.6	486448	WORD	n/a	wordpools/wordpool_categorized_EN.txt	PEAS	Vegetables	12	2	[0, 0, 0]	n/a	catFR1	3	R1450D
462.281	0.001	488042	PROB	11.783	n/a	n/a	n/a	-999	2	[7, 3, 2]	12.0	catFR1	3	R1450D
462.282	0.0	488043	START	n/a	n/a	n/a	n/a	-999	2	[-999, -999, -999]	n/a	catFR1	3	R1450D
462.281	0.001	488046	WORD_OFF	n/a	n/a	PEAS	Vegetables	12	2	[0, 0, 0]	n/a	catFR1	3	R1450D
462.282	0.0	488046	ENCODING_END	n/a	n/a	n/a	n/a	-999	2	[0, 0, 0]	n/a	catFR1	3	R1450D
462.282	11.799	488054	DISTRACT_START	n/a	n/a	n/a	n/a	-999	2	[0, 0, 0]	n/a	catFR1	3	R1450D
474.081	9.533	499841	PROB	9.516	n/a	n/a	n/a	-999	2	[3, 4, 4]	11.0	catFR1	3	R1450D
483.614	0.0	509373	STOP	n/a	n/a	n/a	n/a	-999	2	[-999, -999, -999]	n/a	catFR1	3	R1450D
483.614	2.067	509378	DISTRACT_END	n/a	n/a	n/a	n/a	-999	2	[0, 0, 0]	n/a	catFR1	3	R1450D
485.681	1.863	511449	REC_START	n/a	n/a	n/a	n/a	-999	2	[0, 0, 0]	n/a	catFR1	3	R1450D
487.544	2.283	513303	REC_WORD_VV	1.863	n/a	<>	n/a	-999	2	[0, 0, 0]	n/a	catFR1	3	R1450D
489.827	1.0	515586	REC_WORD_VV	4.146	n/a	<>	n/a	-999	2	[0, 0, 0]	n/a	catFR1	3	R1450D
490.827	1.0	516586	REC_WORD_VV	5.146	n/a	<>	n/a	-999	2	[0, 0, 0]	n/a	catFR1	3	R1450D
491.827	11.254	517586	REC_WORD_VV	6.146	n/a	<>	n/a	-999	2	[0, 0, 0]	n/a	catFR1	3	R1450D
503.081	6.273	528840	REC_WORD_VV	17.4	n/a	<>	n/a	-999	2	[0, 0, 0]	n/a	catFR1	3	R1450D
509.354	6.515	535112	REC_WORD	23.673	n/a	SQUID	OceanAnimals	-999	2	[0, 0, 0]	n/a	catFR1	3	R1450D
515.869	12.597	541631	REC_END	n/a	n/a	n/a	n/a	-999	2	[0, 0, 0]	n/a	catFR1	3	R1450D
528.466	10.0	554229	COUNTDOWN_START	n/a	n/a	n/a	n/a	-999	3	[0, 0, 0]	n/a	catFR1	3	R1450D
538.814	0.0	564579	COUNTDOWN_END	n/a	n/a	n/a	n/a	-999	3	[0, 0, 0]	n/a	catFR1	3	R1450D
538.814	2.034	564579	ENCODING_START	n/a	n/a	n/a	n/a	-999	3	[0, 0, 0]	n/a	catFR1	3	R1450D
540.848	1.6	566607	WORD	n/a	wordpools/wordpool_categorized_EN.txt	CALCULATOR	Electronics	1	3	[0, 0, 0]	n/a	catFR1	3	R1450D
542.466	0.949	568231	WORD_OFF	n/a	n/a	CALCULATOR	Electronics	1	3	[0, 0, 0]	n/a	catFR1	3	R1450D
543.415	1.6	569179	WORD	n/a	wordpools/wordpool_categorized_EN.txt	HEADPHONES	Electronics	2	3	[0, 0, 0]	n/a	catFR1	3	R1450D
545.031	0.934	570794	WORD_OFF	n/a	n/a	HEADPHONES	Electronics	2	3	[0, 0, 0]	n/a	catFR1	3	R1450D
545.965	1.6	571725	WORD	n/a	wordpools/wordpool_categorized_EN.txt	GORILLA	Zoo	3	3	[0, 0, 0]	n/a	catFR1	3	R1450D
547.565	0.8	573323	WORD_OFF	n/a	n/a	GORILLA	Zoo	3	3	[0, 0, 0]	n/a	catFR1	3	R1450D
548.365	1.6	574130	WORD	n/a	wordpools/wordpool_categorized_EN.txt	ELEPHANT	Zoo	4	3	[0, 0, 0]	n/a	catFR1	3	R1450D
549.98	0.935	575745	WORD_OFF	n/a	n/a	ELEPHANT	Zoo	4	3	[0, 0, 0]	n/a	catFR1	3	R1450D
550.915	1.6	576676	WORD	n/a	wordpools/wordpool_categorized_EN.txt	SPANDEX	Fabric	5	3	[0, 0, 0]	n/a	catFR1	3	R1450D
552.531	0.917	578291	WORD_OFF	n/a	n/a	SPANDEX	Fabric	5	3	[0, 0, 0]	n/a	catFR1	3	R1450D
553.448	1.6	579213	WORD	n/a	wordpools/wordpool_categorized_EN.txt	WOOL	Fabric	6	3	[0, 0, 0]	n/a	catFR1	3	R1450D
555.064	0.866	580828	WORD_OFF	n/a	n/a	WOOL	Fabric	6	3	[0, 0, 0]	n/a	catFR1	3	R1450D
555.93	1.6	581689	WORD	n/a	wordpools/wordpool_categorized_EN.txt	CHEETAH	Zoo	7	3	[0, 0, 0]	n/a	catFR1	3	R1450D
557.53	0.801	583295	WORD_OFF	n/a	n/a	CHEETAH	Zoo	7	3	[0, 0, 0]	n/a	catFR1	3	R1450D
558.331	1.6	584094	WORD	n/a	wordpools/wordpool_categorized_EN.txt	LION	Zoo	8	3	[0, 0, 0]	n/a	catFR1	3	R1450D
559.948	0.866	585709	WORD_OFF	n/a	n/a	LION	Zoo	8	3	[0, 0, 0]	n/a	catFR1	3	R1450D
560.814	1.6	586578	WORD	n/a	wordpools/wordpool_categorized_EN.txt	COTTON	Fabric	9	3	[0, 0, 0]	n/a	catFR1	3	R1450D
562.415	0.9	588176	WORD_OFF	n/a	n/a	COTTON	Fabric	9	3	[0, 0, 0]	n/a	catFR1	3	R1450D
563.315	1.6	589072	WORD	n/a	wordpools/wordpool_categorized_EN.txt	LINEN	Fabric	10	3	[0, 0, 0]	n/a	catFR1	3	R1450D
564.915	0.8	590678	WORD_OFF	n/a	n/a	LINEN	Fabric	10	3	[0, 0, 0]	n/a	catFR1	3	R1450D
565.715	1.6	591477	WORD	n/a	wordpools/wordpool_categorized_EN.txt	SPEAKER	Electronics	11	3	[0, 0, 0]	n/a	catFR1	3	R1450D
567.331	0.884	593092	WORD_OFF	n/a	n/a	SPEAKER	Electronics	11	3	[0, 0, 0]	n/a	catFR1	3	R1450D
568.215	1.6	593979	WORD	n/a	wordpools/wordpool_categorized_EN.txt	MICROWAVE	Electronics	12	3	[0, 0, 0]	n/a	catFR1	3	R1450D
569.832	0.001	595587	PROB	10.782	n/a	n/a	n/a	-999	3	[1, 8, 7]	16.0	catFR1	3	R1450D
569.833	0.0	595588	START	n/a	n/a	n/a	n/a	-999	3	[-999, -999, -999]	n/a	catFR1	3	R1450D
569.831	0.002	595594	WORD_OFF	n/a	n/a	MICROWAVE	Electronics	12	3	[0, 0, 0]	n/a	catFR1	3	R1450D
569.833	0.0	595594	ENCODING_END	n/a	n/a	n/a	n/a	-999	3	[0, 0, 0]	n/a	catFR1	3	R1450D
569.833	10.799	595594	DISTRACT_START	n/a	n/a	n/a	n/a	-999	3	[0, 0, 0]	n/a	catFR1	3	R1450D
580.632	9.399	606387	PROB	9.382	n/a	n/a	n/a	-999	3	[3, 4, 4]	11.0	catFR1	3	R1450D
590.031	0.0	615785	STOP	n/a	n/a	n/a	n/a	-999	3	[-999, -999, -999]	n/a	catFR1	3	R1450D
590.031	2.267	615794	DISTRACT_END	n/a	n/a	n/a	n/a	-999	3	[0, 0, 0]	n/a	catFR1	3	R1450D
592.298	2.588	618058	REC_START	n/a	n/a	n/a	n/a	-999	3	[0, 0, 0]	n/a	catFR1	3	R1450D
594.886	5.806	620640	REC_WORD	2.588	n/a	OYSTER	OceanAnimals	-999	3	[0, 0, 0]	n/a	catFR1	3	R1450D
600.692	8.124	626446	REC_WORD	8.394	n/a	LION	Zoo	8	3	[0, 0, 0]	n/a	catFR1	3	R1450D
608.816	1.0	634569	REC_WORD_VV	16.518	n/a	<>	n/a	-999	3	[0, 0, 0]	n/a	catFR1	3	R1450D
609.816	6.349	635569	REC_WORD_VV	17.518	n/a	<>	n/a	-999	3	[0, 0, 0]	n/a	catFR1	3	R1450D
616.165	1.0	641918	REC_WORD_VV	23.867	n/a	<>	n/a	-999	3	[0, 0, 0]	n/a	catFR1	3	R1450D
617.165	4.879	642918	REC_WORD_VV	24.867	n/a	<>	n/a	-999	3	[0, 0, 0]	n/a	catFR1	3	R1450D
622.044	0.459	647797	REC_WORD_VV	29.746	n/a	<>	n/a	-999	3	[0, 0, 0]	n/a	catFR1	3	R1450D
622.503	32.329	648258	REC_END	n/a	n/a	n/a	n/a	-999	3	[0, 0, 0]	n/a	catFR1	3	R1450D
654.832	10.0	680590	COUNTDOWN_START	n/a	n/a	n/a	n/a	-999	4	[0, 0, 0]	n/a	catFR1	3	R1450D
665.181	0.0	690940	COUNTDOWN_END	n/a	n/a	n/a	n/a	-999	4	[0, 0, 0]	n/a	catFR1	3	R1450D
665.181	2.05	690940	ENCODING_START	n/a	n/a	n/a	n/a	-999	4	[0, 0, 0]	n/a	catFR1	3	R1450D
667.231	1.6	692986	WORD	n/a	wordpools/wordpool_categorized_EN.txt	DESK	Furniture	1	4	[0, 0, 0]	n/a	catFR1	3	R1450D
668.831	0.85	694583	WORD_OFF	n/a	n/a	DESK	Furniture	1	4	[0, 0, 0]	n/a	catFR1	3	R1450D
669.681	1.6	695435	WORD	n/a	wordpools/wordpool_categorized_EN.txt	BED	Furniture	2	4	[0, 0, 0]	n/a	catFR1	3	R1450D
671.282	0.916	697033	WORD_OFF	n/a	n/a	BED	Furniture	2	4	[0, 0, 0]	n/a	catFR1	3	R1450D
672.198	1.6	697955	WORD	n/a	wordpools/wordpool_categorized_EN.txt	CABBAGE	Vegetables	3	4	[0, 0, 0]	n/a	catFR1	3	R1450D
673.798	0.983	699552	WORD_OFF	n/a	n/a	CABBAGE	Vegetables	3	4	[0, 0, 0]	n/a	catFR1	3	R1450D
674.781	1.6	700535	WORD	n/a	wordpools/wordpool_categorized_EN.txt	BROCCOLI	Vegetables	4	4	[0, 0, 0]	n/a	catFR1	3	R1450D
676.381	0.934	702133	WORD_OFF	n/a	n/a	BROCCOLI	Vegetables	4	4	[0, 0, 0]	n/a	catFR1	3	R1450D
677.315	1.6	703073	WORD	n/a	wordpools/wordpool_categorized_EN.txt	FINCH	Birds	5	4	[0, 0, 0]	n/a	catFR1	3	R1450D
678.915	0.832	704670	WORD_OFF	n/a	n/a	FINCH	Birds	5	4	[0, 0, 0]	n/a	catFR1	3	R1450D
679.747	1.6	705504	WORD	n/a	wordpools/wordpool_categorized_EN.txt	GOOSE	Birds	6	4	[0, 0, 0]	n/a	catFR1	3	R1450D
681.348	0.767	707102	WORD_OFF	n/a	n/a	GOOSE	Birds	6	4	[0, 0, 0]	n/a	catFR1	3	R1450D
682.115	1.6	707866	WORD	n/a	wordpools/wordpool_categorized_EN.txt	CORN	Vegetables	7	4	[0, 0, 0]	n/a	catFR1	3	R1450D
683.715	0.949	709472	WORD_OFF	n/a	n/a	CORN	Vegetables	7	4	[0, 0, 0]	n/a	catFR1	3	R1450D
684.664	1.6	710420	WORD	n/a	wordpools/wordpool_categorized_EN.txt	CELERY	Vegetables	8	4	[0, 0, 0]	n/a	catFR1	3	R1450D
686.265	0.966	712018	WORD_OFF	n/a	n/a	CELERY	Vegetables	8	4	[0, 0, 0]	n/a	catFR1	3	R1450D
687.231	1.6	712984	WORD	n/a	wordpools/wordpool_categorized_EN.txt	PIGEON	Birds	9	4	[0, 0, 0]	n/a	catFR1	3	R1450D
688.831	0.917	714590	WORD_OFF	n/a	n/a	PIGEON	Birds	9	4	[0, 0, 0]	n/a	catFR1	3	R1450D
689.748	1.6	715503	WORD	n/a	wordpools/wordpool_categorized_EN.txt	HAWK	Birds	10	4	[0, 0, 0]	n/a	catFR1	3	R1450D
691.364	0.851	717119	WORD_OFF	n/a	n/a	HAWK	Birds	10	4	[0, 0, 0]	n/a	catFR1	3	R1450D
692.215	1.6	717970	WORD	n/a	wordpools/wordpool_categorized_EN.txt	SHELF	Furniture	11	4	[0, 0, 0]	n/a	catFR1	3	R1450D
693.815	0.916	719568	WORD_OFF	n/a	n/a	SHELF	Furniture	11	4	[0, 0, 0]	n/a	catFR1	3	R1450D
694.731	1.6	720481	WORD	n/a	wordpools/wordpool_categorized_EN.txt	CHAIR	Furniture	12	4	[0, 0, 0]	n/a	catFR1	3	R1450D
696.332	0.001	722081	PROB	11.283	n/a	n/a	n/a	-999	4	[8, 3, 7]	18.0	catFR1	3	R1450D
696.333	0.0	722082	START	n/a	n/a	n/a	n/a	-999	4	[-999, -999, -999]	n/a	catFR1	3	R1450D
696.331	0.002	722087	WORD_OFF	n/a	n/a	CHAIR	Furniture	12	4	[0, 0, 0]	n/a	catFR1	3	R1450D
696.333	0.0	722087	ENCODING_END	n/a	n/a	n/a	n/a	-999	4	[0, 0, 0]	n/a	catFR1	3	R1450D
696.333	11.299	722087	DISTRACT_START	n/a	n/a	n/a	n/a	-999	4	[0, 0, 0]	n/a	catFR1	3	R1450D
707.632	15.899	733380	PROB	15.883	n/a	n/a	n/a	-999	4	[8, 4, 1]	13.0	catFR1	3	R1450D
723.531	0.0	749278	STOP	n/a	n/a	n/a	n/a	-999	4	[-999, -999, -999]	n/a	catFR1	3	R1450D
723.531	2.084	749284	DISTRACT_END	n/a	n/a	n/a	n/a	-999	4	[0, 0, 0]	n/a	catFR1	3	R1450D
725.615	13.599	751364	REC_START	n/a	n/a	n/a	n/a	-999	4	[0, 0, 0]	n/a	catFR1	3	R1450D
739.214	1.335	764961	REC_WORD	13.599	n/a	DESK	Furniture	1	4	[0, 0, 0]	n/a	catFR1	3	R1450D
740.549	15.275	766296	REC_WORD	14.934	n/a	CHAIR	Furniture	12	4	[0, 0, 0]	n/a	catFR1	3	R1450D
755.824	12.941	781572	REC_END	n/a	n/a	n/a	n/a	-999	4	[0, 0, 0]	n/a	catFR1	3	R1450D
768.765	10.0	794512	COUNTDOWN_START	n/a	n/a	n/a	n/a	-999	5	[0, 0, 0]	n/a	catFR1	3	R1450D
779.114	0.0	804862	COUNTDOWN_END	n/a	n/a	n/a	n/a	-999	5	[0, 0, 0]	n/a	catFR1	3	R1450D
779.114	2.267	804862	ENCODING_START	n/a	n/a	n/a	n/a	-999	5	[0, 0, 0]	n/a	catFR1	3	R1450D
781.381	1.6	807127	WORD	n/a	wordpools/wordpool_categorized_EN.txt	STRAINER	KitchenTools	1	5	[0, 0, 0]	n/a	catFR1	3	R1450D
782.981	0.9	808734	WORD_OFF	n/a	n/a	STRAINER	KitchenTools	1	5	[0, 0, 0]	n/a	catFR1	3	R1450D
783.881	1.6	809629	WORD	n/a	wordpools/wordpool_categorized_EN.txt	TONGS	KitchenTools	2	5	[0, 0, 0]	n/a	catFR1	3	R1450D
785.498	0.883	811244	WORD_OFF	n/a	n/a	TONGS	KitchenTools	2	5	[0, 0, 0]	n/a	catFR1	3	R1450D
786.381	1.6	812131	WORD	n/a	wordpools/wordpool_categorized_EN.txt	OCEAN	Landscapes	3	5	[0, 0, 0]	n/a	catFR1	3	R1450D
787.998	0.766	813746	WORD_OFF	n/a	n/a	OCEAN	Landscapes	3	5	[0, 0, 0]	n/a	catFR1	3	R1450D
788.764	1.6	814510	WORD	n/a	wordpools/wordpool_categorized_EN.txt	VALLEY	Landscapes	4	5	[0, 0, 0]	n/a	catFR1	3	R1450D
790.365	0.983	816117	WORD_OFF	n/a	n/a	VALLEY	Landscapes	4	5	[0, 0, 0]	n/a	catFR1	3	R1450D
791.348	1.6	817100	WORD	n/a	wordpools/wordpool_categorized_EN.txt	CEDAR	Trees	5	5	[0, 0, 0]	n/a	catFR1	3	R1450D
792.948	0.9	818698	WORD_OFF	n/a	n/a	CEDAR	Trees	5	5	[0, 0, 0]	n/a	catFR1	3	R1450D
793.848	1.6	819593	WORD	n/a	wordpools/wordpool_categorized_EN.txt	CYPRESS	Trees	6	5	[0, 0, 0]	n/a	catFR1	3	R1450D
795.448	0.848	821199	WORD_OFF	n/a	n/a	CYPRESS	Trees	6	5	[0, 0, 0]	n/a	catFR1	3	R1450D
796.296	1.6	822042	WORD	n/a	wordpools/wordpool_categorized_EN.txt	CREEK	Landscapes	7	5	[0, 0, 0]	n/a	catFR1	3	R1450D
797.898	0.917	823649	WORD_OFF	n/a	n/a	CREEK	Landscapes	7	5	[0, 0, 0]	n/a	catFR1	3	R1450D
798.815	1.6	824562	WORD	n/a	wordpools/wordpool_categorized_EN.txt	ISLAND	Landscapes	8	5	[0, 0, 0]	n/a	catFR1	3	R1450D
800.432	0.966	826177	WORD_OFF	n/a	n/a	ISLAND	Landscapes	8	5	[0, 0, 0]	n/a	catFR1	3	R1450D
801.398	1.6	827143	WORD	n/a	wordpools/wordpool_categorized_EN.txt	PINE	Trees	9	5	[0, 0, 0]	n/a	catFR1	3	R1450D
802.998	0.917	828749	WORD_OFF	n/a	n/a	PINE	Trees	9	5	[0, 0, 0]	n/a	catFR1	3	R1450D
803.915	1.6	829662	WORD	n/a	wordpools/wordpool_categorized_EN.txt	HICKORY	Trees	10	5	[0, 0, 0]	n/a	catFR1	3	R1450D
805.531	0.784	831277	WORD_OFF	n/a	n/a	HICKORY	Trees	10	5	[0, 0, 0]	n/a	catFR1	3	R1450D
806.315	1.6	832059	WORD	n/a	wordpools/wordpool_categorized_EN.txt	CORKSCREW	KitchenTools	11	5	[0, 0, 0]	n/a	catFR1	3	R1450D
807.931	0.934	833683	WORD_OFF	n/a	n/a	CORKSCREW	KitchenTools	11	5	[0, 0, 0]	n/a	catFR1	3	R1450D
808.865	1.6	834613	WORD	n/a	wordpools/wordpool_categorized_EN.txt	LADLE	KitchenTools	12	5	[0, 0, 0]	n/a	catFR1	3	R1450D
810.482	0.0	836225	START	n/a	n/a	n/a	n/a	-999	5	[-999, -999, -999]	n/a	catFR1	3	R1450D
810.482	0.0	836225	PROB	19.166	n/a	n/a	n/a	-999	5	[5, 4, 8]	17.0	catFR1	3	R1450D
810.481	0.001	836229	WORD_OFF	n/a	n/a	LADLE	KitchenTools	12	5	[0, 0, 0]	n/a	catFR1	3	R1450D
810.482	0.0	836229	ENCODING_END	n/a	n/a	n/a	n/a	-999	5	[0, 0, 0]	n/a	catFR1	3	R1450D
810.482	19.183	836229	DISTRACT_START	n/a	n/a	n/a	n/a	-999	5	[0, 0, 0]	n/a	catFR1	3	R1450D
829.665	7.635	855407	PROB	7.617	n/a	n/a	n/a	-999	5	[6, 2, 1]	9.0	catFR1	3	R1450D
837.3	0.0	863042	STOP	n/a	n/a	n/a	n/a	-999	5	[-999, -999, -999]	n/a	catFR1	3	R1450D
837.3	2.381	863048	DISTRACT_END	n/a	n/a	n/a	n/a	-999	5	[0, 0, 0]	n/a	catFR1	3	R1450D
839.681	0.219	865426	REC_START	n/a	n/a	n/a	n/a	-999	5	[0, 0, 0]	n/a	catFR1	3	R1450D
839.9	3.352	865642	REC_WORD	0.219	n/a	CORKSCREW	KitchenTools	11	5	[0, 0, 0]	n/a	catFR1	3	R1450D
843.252	4.478	868993	REC_WORD_VV	3.571	n/a	<>	n/a	-999	5	[0, 0, 0]	n/a	catFR1	3	R1450D
847.73	9.783	873471	REC_WORD	8.049	n/a	LADLE	KitchenTools	12	5	[0, 0, 0]	n/a	catFR1	3	R1450D
857.513	9.943	883254	REC_WORD_VV	17.832	n/a	<>	n/a	-999	5	[0, 0, 0]	n/a	catFR1	3	R1450D
867.456	2.432	893196	REC_WORD_VV	27.775	n/a	<>	n/a	-999	5	[0, 0, 0]	n/a	catFR1	3	R1450D
869.888	7.927	895635	REC_END	n/a	n/a	n/a	n/a	-999	5	[0, 0, 0]	n/a	catFR1	3	R1450D
877.815	10.0	903562	COUNTDOWN_START	n/a	n/a	n/a	n/a	-999	6	[0, 0, 0]	n/a	catFR1	3	R1450D
888.165	0.0	913912	COUNTDOWN_END	n/a	n/a	n/a	n/a	-999	6	[0, 0, 0]	n/a	catFR1	3	R1450D
888.165	2.333	913912	ENCODING_START	n/a	n/a	n/a	n/a	-999	6	[0, 0, 0]	n/a	catFR1	3	R1450D
890.498	1.6	916238	WORD	n/a	wordpools/wordpool_categorized_EN.txt	SUNFLOWER	Flowers	1	6	[0, 0, 0]	n/a	catFR1	3	R1450D
892.098	0.85	917845	WORD_OFF	n/a	n/a	SUNFLOWER	Flowers	1	6	[0, 0, 0]	n/a	catFR1	3	R1450D
892.948	1.6	918688	WORD	n/a	wordpools/wordpool_categorized_EN.txt	ROSE	Flowers	2	6	[0, 0, 0]	n/a	catFR1	3	R1450D
894.564	0.934	920303	WORD_OFF	n/a	n/a	ROSE	Flowers	2	6	[0, 0, 0]	n/a	catFR1	3	R1450D
895.498	1.6	921242	WORD	n/a	wordpools/wordpool_categorized_EN.txt	BANJO	Instruments	3	6	[0, 0, 0]	n/a	catFR1	3	R1450D
897.112	0.869	922857	WORD_OFF	n/a	n/a	BANJO	Instruments	3	6	[0, 0, 0]	n/a	catFR1	3	R1450D
897.981	1.6	923727	WORD	n/a	wordpools/wordpool_categorized_EN.txt	TUBA	Instruments	4	6	[0, 0, 0]	n/a	catFR1	3	R1450D
899.581	0.932	925324	WORD_OFF	n/a	n/a	TUBA	Instruments	4	6	[0, 0, 0]	n/a	catFR1	3	R1450D
900.513	1.6	926255	WORD	n/a	wordpools/wordpool_categorized_EN.txt	TIGER	Zoo	5	6	[0, 0, 0]	n/a	catFR1	3	R1450D
902.115	0.883	927861	WORD_OFF	n/a	n/a	TIGER	Zoo	5	6	[0, 0, 0]	n/a	catFR1	3	R1450D
902.998	1.6	928739	WORD	n/a	wordpools/wordpool_categorized_EN.txt	PANDA	Zoo	6	6	[0, 0, 0]	n/a	catFR1	3	R1450D
904.598	0.833	930337	WORD_OFF	n/a	n/a	PANDA	Zoo	6	6	[0, 0, 0]	n/a	catFR1	3	R1450D
905.431	1.6	931171	WORD	n/a	wordpools/wordpool_categorized_EN.txt	CARNATION	Flowers	7	6	[0, 0, 0]	n/a	catFR1	3	R1450D
907.031	1.0	932777	WORD_OFF	n/a	n/a	CARNATION	Flowers	7	6	[0, 0, 0]	n/a	catFR1	3	R1450D
908.031	1.6	933778	WORD	n/a	wordpools/wordpool_categorized_EN.txt	PETUNIA	Flowers	8	6	[0, 0, 0]	n/a	catFR1	3	R1450D
909.647	0.951	935394	WORD_OFF	n/a	n/a	PETUNIA	Flowers	8	6	[0, 0, 0]	n/a	catFR1	3	R1450D
910.598	1.6	936342	WORD	n/a	wordpools/wordpool_categorized_EN.txt	GUITAR	Instruments	9	6	[0, 0, 0]	n/a	catFR1	3	R1450D
912.214	0.883	937957	WORD_OFF	n/a	n/a	GUITAR	Instruments	9	6	[0, 0, 0]	n/a	catFR1	3	R1450D
913.097	1.6	938844	WORD	n/a	wordpools/wordpool_categorized_EN.txt	ORGAN	Instruments	10	6	[0, 0, 0]	n/a	catFR1	3	R1450D
914.697	0.951	940441	WORD_OFF	n/a	n/a	ORGAN	Instruments	10	6	[0, 0, 0]	n/a	catFR1	3	R1450D
915.648	1.6	941389	WORD	n/a	wordpools/wordpool_categorized_EN.txt	CHIMPANZEE	Zoo	11	6	[0, 0, 0]	n/a	catFR1	3	R1450D
917.262	0.902	943005	WORD_OFF	n/a	n/a	CHIMPANZEE	Zoo	11	6	[0, 0, 0]	n/a	catFR1	3	R1450D
918.164	1.6	943909	WORD	n/a	wordpools/wordpool_categorized_EN.txt	BEAR	Zoo	12	6	[0, 0, 0]	n/a	catFR1	3	R1450D
919.766	0.0	945503	PROB	10.432	n/a	n/a	n/a	-999	6	[8, 1, 7]	16.0	catFR1	3	R1450D
919.766	0.0	945503	START	n/a	n/a	n/a	n/a	-999	6	[-999, -999, -999]	n/a	catFR1	3	R1450D
919.765	0.001	945507	WORD_OFF	n/a	n/a	BEAR	Zoo	12	6	[0, 0, 0]	n/a	catFR1	3	R1450D
919.766	0.0	945507	ENCODING_END	n/a	n/a	n/a	n/a	-999	6	[0, 0, 0]	n/a	catFR1	3	R1450D
919.766	10.449	945507	DISTRACT_START	n/a	n/a	n/a	n/a	-999	6	[0, 0, 0]	n/a	catFR1	3	R1450D
930.215	15.582	955952	PROB	15.566	n/a	n/a	n/a	-999	6	[7, 1, 7]	15.0	catFR1	3	R1450D
945.797	0.0	971533	STOP	n/a	n/a	n/a	n/a	-999	6	[-999, -999, -999]	n/a	catFR1	3	R1450D
945.797	2.234	971536	DISTRACT_END	n/a	n/a	n/a	n/a	-999	6	[0, 0, 0]	n/a	catFR1	3	R1450D
948.031	7.183	973773	REC_START	n/a	n/a	n/a	n/a	-999	6	[0, 0, 0]	n/a	catFR1	3	R1450D
955.214	14.092	980950	REC_WORD_VV	7.183	n/a	<>	n/a	-999	6	[0, 0, 0]	n/a	catFR1	3	R1450D
969.306	7.74	995041	REC_WORD	21.275	n/a	BANJO	Instruments	3	6	[0, 0, 0]	n/a	catFR1	3	R1450D
977.046	1.215	1002781	REC_WORD_VV	29.015	n/a	<>	n/a	-999	6	[0, 0, 0]	n/a	catFR1	3	R1450D
978.261	6.32	1004000	REC_END	n/a	n/a	n/a	n/a	-999	6	[0, 0, 0]	n/a	catFR1	3	R1450D
984.581	10.0	1010320	COUNTDOWN_START	n/a	n/a	n/a	n/a	-999	7	[0, 0, 0]	n/a	catFR1	3	R1450D
994.932	0.0	1020670	COUNTDOWN_END	n/a	n/a	n/a	n/a	-999	7	[0, 0, 0]	n/a	catFR1	3	R1450D
994.932	2.149	1020670	ENCODING_START	n/a	n/a	n/a	n/a	-999	7	[0, 0, 0]	n/a	catFR1	3	R1450D
997.081	1.6	1022821	WORD	n/a	wordpools/wordpool_categorized_EN.txt	RAIN	Weather	1	7	[0, 0, 0]	n/a	catFR1	3	R1450D
998.681	0.95	1024419	WORD_OFF	n/a	n/a	RAIN	Weather	1	7	[0, 0, 0]	n/a	catFR1	3	R1450D
999.631	1.6	1025367	WORD	n/a	wordpools/wordpool_categorized_EN.txt	WIND	Weather	2	7	[0, 0, 0]	n/a	catFR1	3	R1450D
1001.231	0.85	1026973	WORD_OFF	n/a	n/a	WIND	Weather	2	7	[0, 0, 0]	n/a	catFR1	3	R1450D
1002.081	1.6	1027816	WORD	n/a	wordpools/wordpool_categorized_EN.txt	LIME	Fruit	3	7	[0, 0, 0]	n/a	catFR1	3	R1450D
1003.681	0.833	1029423	WORD_OFF	n/a	n/a	LIME	Fruit	3	7	[0, 0, 0]	n/a	catFR1	3	R1450D
1004.514	1.6	1030248	WORD	n/a	wordpools/wordpool_categorized_EN.txt	ORANGE	Fruit	4	7	[0, 0, 0]	n/a	catFR1	3	R1450D
1006.114	0.767	1031854	WORD_OFF	n/a	n/a	ORANGE	Fruit	4	7	[0, 0, 0]	n/a	catFR1	3	R1450D
1006.881	1.6	1032618	WORD	n/a	wordpools/wordpool_categorized_EN.txt	PUDDING	Desserts	5	7	[0, 0, 0]	n/a	catFR1	3	R1450D
1008.481	0.834	1034216	WORD_OFF	n/a	n/a	PUDDING	Desserts	5	7	[0, 0, 0]	n/a	catFR1	3	R1450D
1009.315	1.6	1035050	WORD	n/a	wordpools/wordpool_categorized_EN.txt	MOUSSE	Desserts	6	7	[0, 0, 0]	n/a	catFR1	3	R1450D
1010.915	0.933	1036656	WORD_OFF	n/a	n/a	MOUSSE	Desserts	6	7	[0, 0, 0]	n/a	catFR1	3	R1450D
1011.848	1.6	1037587	WORD	n/a	wordpools/wordpool_categorized_EN.txt	FOG	Weather	7	7	[0, 0, 0]	n/a	catFR1	3	R1450D
1013.448	0.983	1039185	WORD_OFF	n/a	n/a	FOG	Weather	7	7	[0, 0, 0]	n/a	catFR1	3	R1450D
1014.431	1.6	1040168	WORD	n/a	wordpools/wordpool_categorized_EN.txt	THUNDER	Weather	8	7	[0, 0, 0]	n/a	catFR1	3	R1450D
1016.048	0.85	1041783	WORD_OFF	n/a	n/a	THUNDER	Weather	8	7	[0, 0, 0]	n/a	catFR1	3	R1450D
1016.898	1.6	1042635	WORD	n/a	wordpools/wordpool_categorized_EN.txt	CAKE	Desserts	9	7	[0, 0, 0]	n/a	catFR1	3	R1450D
1018.498	0.967	1044233	WORD_OFF	n/a	n/a	CAKE	Desserts	9	7	[0, 0, 0]	n/a	catFR1	3	R1450D
1019.465	1.6	1045207	WORD	n/a	wordpools/wordpool_categorized_EN.txt	CHEESECAKE	Desserts	10	7	[0, 0, 0]	n/a	catFR1	3	R1450D
1021.081	0.8	1046822	WORD_OFF	n/a	n/a	CHEESECAKE	Desserts	10	7	[0, 0, 0]	n/a	catFR1	3	R1450D
1021.881	1.6	1047621	WORD	n/a	wordpools/wordpool_categorized_EN.txt	GRAPE	Fruit	11	7	[0, 0, 0]	n/a	catFR1	3	R1450D
1023.481	0.766	1049219	WORD_OFF	n/a	n/a	GRAPE	Fruit	11	7	[0, 0, 0]	n/a	catFR1	3	R1450D
1024.247	1.6	1049983	WORD	n/a	wordpools/wordpool_categorized_EN.txt	PEACH	Fruit	12	7	[0, 0, 0]	n/a	catFR1	3	R1450D
1025.848	0.002	1051580	PROB	10.882	n/a	n/a	n/a	-999	7	[4, 3, 7]	14.0	catFR1	3	R1450D
1025.85	0.0	1051582	START	n/a	n/a	n/a	n/a	-999	7	[-999, -999, -999]	n/a	catFR1	3	R1450D
1025.848	0.002	1051589	WORD_OFF	n/a	n/a	PEACH	Fruit	12	7	[0, 0, 0]	n/a	catFR1	3	R1450D
1025.85	0.0	1051589	ENCODING_END	n/a	n/a	n/a	n/a	-999	7	[0, 0, 0]	n/a	catFR1	3	R1450D
1025.85	10.898	1051589	DISTRACT_START	n/a	n/a	n/a	n/a	-999	7	[0, 0, 0]	n/a	catFR1	3	R1450D
1036.748	10.9	1062480	PROB	10.883	n/a	n/a	n/a	-999	7	[4, 3, 7]	14.0	catFR1	3	R1450D
1047.648	0.0	1073379	STOP	n/a	n/a	n/a	n/a	-999	7	[-999, -999, -999]	n/a	catFR1	3	R1450D
1047.648	2.366	1073387	DISTRACT_END	n/a	n/a	n/a	n/a	-999	7	[0, 0, 0]	n/a	catFR1	3	R1450D
1050.014	21.3	1075748	REC_START	n/a	n/a	n/a	n/a	-999	7	[0, 0, 0]	n/a	catFR1	3	R1450D
1071.314	8.914	1097044	REC_WORD_VV	21.3	n/a	<>	n/a	-999	7	[0, 0, 0]	n/a	catFR1	3	R1450D
1080.228	3.737	1105965	REC_END	n/a	n/a	n/a	n/a	-999	7	[0, 0, 0]	n/a	catFR1	3	R1450D
1083.965	10.0	1109704	COUNTDOWN_START	n/a	n/a	n/a	n/a	-999	8	[0, 0, 0]	n/a	catFR1	3	R1450D
1094.314	0.0	1120046	COUNTDOWN_END	n/a	n/a	n/a	n/a	-999	8	[0, 0, 0]	n/a	catFR1	3	R1450D
1094.314	2.3	1120046	ENCODING_START	n/a	n/a	n/a	n/a	-999	8	[0, 0, 0]	n/a	catFR1	3	R1450D
1096.614	1.6	1122346	WORD	n/a	wordpools/wordpool_categorized_EN.txt	CUPCAKE	Desserts	1	8	[0, 0, 0]	n/a	catFR1	3	R1450D
1098.215	1.0	1123944	WORD_OFF	n/a	n/a	CUPCAKE	Desserts	1	8	[0, 0, 0]	n/a	catFR1	3	R1450D
1099.215	1.6	1124944	WORD	n/a	wordpools/wordpool_categorized_EN.txt	PIE	Desserts	2	8	[0, 0, 0]	n/a	catFR1	3	R1450D
1100.831	0.85	1126568	WORD_OFF	n/a	n/a	PIE	Desserts	2	8	[0, 0, 0]	n/a	catFR1	3	R1450D
1101.681	1.6	1127411	WORD	n/a	wordpools/wordpool_categorized_EN.txt	RULER	OfficeSupplies	3	8	[0, 0, 0]	n/a	catFR1	3	R1450D
1103.281	0.884	1129018	WORD_OFF	n/a	n/a	RULER	OfficeSupplies	3	8	[0, 0, 0]	n/a	catFR1	3	R1450D
1104.165	1.6	1129896	WORD	n/a	wordpools/wordpool_categorized_EN.txt	GLUE	OfficeSupplies	4	8	[0, 0, 0]	n/a	catFR1	3	R1450D
1105.781	0.767	1131511	WORD_OFF	n/a	n/a	GLUE	OfficeSupplies	4	8	[0, 0, 0]	n/a	catFR1	3	R1450D
1106.548	1.6	1132283	WORD	n/a	wordpools/wordpool_categorized_EN.txt	FINGERS	BodyParts	5	8	[0, 0, 0]	n/a	catFR1	3	R1450D
1108.148	0.866	1133881	WORD_OFF	n/a	n/a	FINGERS	BodyParts	5	8	[0, 0, 0]	n/a	catFR1	3	R1450D
1109.014	1.6	1134750	WORD	n/a	wordpools/wordpool_categorized_EN.txt	FOOT	BodyParts	6	8	[0, 0, 0]	n/a	catFR1	3	R1450D
1110.615	0.916	1136348	WORD_OFF	n/a	n/a	FOOT	BodyParts	6	8	[0, 0, 0]	n/a	catFR1	3	R1450D
1111.531	1.6	1137261	WORD	n/a	wordpools/wordpool_categorized_EN.txt	STAPLER	OfficeSupplies	7	8	[0, 0, 0]	n/a	catFR1	3	R1450D
1113.131	0.766	1138868	WORD_OFF	n/a	n/a	STAPLER	OfficeSupplies	7	8	[0, 0, 0]	n/a	catFR1	3	R1450D
1113.897	1.6	1139631	WORD	n/a	wordpools/wordpool_categorized_EN.txt	TAPE	OfficeSupplies	8	8	[0, 0, 0]	n/a	catFR1	3	R1450D
1115.514	0.783	1141247	WORD_OFF	n/a	n/a	TAPE	OfficeSupplies	8	8	[0, 0, 0]	n/a	catFR1	3	R1450D
1116.297	1.6	1142028	WORD	n/a	wordpools/wordpool_categorized_EN.txt	BROWNIES	Desserts	9	8	[0, 0, 0]	n/a	catFR1	3	R1450D
1117.898	0.833	1143634	WORD_OFF	n/a	n/a	BROWNIES	Desserts	9	8	[0, 0, 0]	n/a	catFR1	3	R1450D
1118.731	1.6	1144468	WORD	n/a	wordpools/wordpool_categorized_EN.txt	FUDGE	Desserts	10	8	[0, 0, 0]	n/a	catFR1	3	R1450D
1120.348	0.767	1146084	WORD_OFF	n/a	n/a	FUDGE	Desserts	10	8	[0, 0, 0]	n/a	catFR1	3	R1450D
1121.115	1.6	1146847	WORD	n/a	wordpools/wordpool_categorized_EN.txt	NOSE	BodyParts	11	8	[0, 0, 0]	n/a	catFR1	3	R1450D
1122.731	0.984	1148463	WORD_OFF	n/a	n/a	NOSE	BodyParts	11	8	[0, 0, 0]	n/a	catFR1	3	R1450D
1123.715	1.6	1149446	WORD	n/a	wordpools/wordpool_categorized_EN.txt	KNEE	BodyParts	12	8	[0, 0, 0]	n/a	catFR1	3	R1450D
1125.332	0.001	1151059	PROB	11.999	n/a	n/a	n/a	-999	8	[2, 3, 1]	6.0	catFR1	3	R1450D
1125.333	0.0	1151060	START	n/a	n/a	n/a	n/a	-999	8	[-999, -999, -999]	n/a	catFR1	3	R1450D
1125.331	0.002	1151061	WORD_OFF	n/a	n/a	KNEE	BodyParts	12	8	[0, 0, 0]	n/a	catFR1	3	R1450D
1125.333	0.0	1151061	ENCODING_END	n/a	n/a	n/a	n/a	-999	8	[0, 0, 0]	n/a	catFR1	3	R1450D
1125.333	12.015	1151070	DISTRACT_START	n/a	n/a	n/a	n/a	-999	8	[0, 0, 0]	n/a	catFR1	3	R1450D
1137.348	12.15	1163074	PROB	12.133	n/a	n/a	n/a	-999	8	[3, 6, 1]	10.0	catFR1	3	R1450D
1149.498	0.0	1175224	STOP	n/a	n/a	n/a	n/a	-999	8	[-999, -999, -999]	n/a	catFR1	3	R1450D
1149.498	2.184	1175229	DISTRACT_END	n/a	n/a	n/a	n/a	-999	8	[0, 0, 0]	n/a	catFR1	3	R1450D
1151.682	1.727	1177414	REC_START	n/a	n/a	n/a	n/a	-999	8	[0, 0, 0]	n/a	catFR1	3	R1450D
1153.409	1.287	1179135	REC_WORD	1.727	n/a	PEACH	Fruit	-999	8	[0, 0, 0]	n/a	catFR1	3	R1450D
1154.696	2.179	1180422	REC_WORD	3.014	n/a	TREE	n/a	-999	8	[0, 0, 0]	n/a	catFR1	3	R1450D
1156.875	2.863	1182601	REC_WORD	5.193	n/a	LEMON	Fruit	-999	8	[0, 0, 0]	n/a	catFR1	3	R1450D
1159.738	22.193	1185463	REC_WORD	8.056	n/a	LIME	Fruit	-999	8	[0, 0, 0]	n/a	catFR1	3	R1450D
1181.931	3.816	1207658	REC_END	n/a	n/a	n/a	n/a	-999	8	[0, 0, 0]	n/a	catFR1	3	R1450D
1185.747	10.0	1211477	COUNTDOWN_START	n/a	n/a	n/a	n/a	-999	9	[0, 0, 0]	n/a	catFR1	3	R1450D
1196.098	0.0	1221827	COUNTDOWN_END	n/a	n/a	n/a	n/a	-999	9	[0, 0, 0]	n/a	catFR1	3	R1450D
1196.098	1.933	1221827	ENCODING_START	n/a	n/a	n/a	n/a	-999	9	[0, 0, 0]	n/a	catFR1	3	R1450D
1198.031	1.6	1223758	WORD	n/a	wordpools/wordpool_categorized_EN.txt	SEAGULL	Birds	1	9	[0, 0, 0]	n/a	catFR1	3	R1450D
1199.648	0.85	1225373	WORD_OFF	n/a	n/a	SEAGULL	Birds	1	9	[0, 0, 0]	n/a	catFR1	3	R1450D
1200.498	1.6	1226225	WORD	n/a	wordpools/wordpool_categorized_EN.txt	CARDINAL	Birds	2	9	[0, 0, 0]	n/a	catFR1	3	R1450D
1202.114	0.934	1227840	WORD_OFF	n/a	n/a	CARDINAL	Birds	2	9	[0, 0, 0]	n/a	catFR1	3	R1450D
1203.048	1.6	1228780	WORD	n/a	wordpools/wordpool_categorized_EN.txt	SAW	Tools	3	9	[0, 0, 0]	n/a	catFR1	3	R1450D
1204.663	1.001	1230395	WORD_OFF	n/a	n/a	SAW	Tools	3	9	[0, 0, 0]	n/a	catFR1	3	R1450D
1205.664	1.6	1231387	WORD	n/a	wordpools/wordpool_categorized_EN.txt	DRILL	Tools	4	9	[0, 0, 0]	n/a	catFR1	3	R1450D
1207.264	0.917	1232993	WORD_OFF	n/a	n/a	DRILL	Tools	4	9	[0, 0, 0]	n/a	catFR1	3	R1450D
1208.181	1.6	1233906	WORD	n/a	wordpools/wordpool_categorized_EN.txt	PANTS	Clothing	5	9	[0, 0, 0]	n/a	catFR1	3	R1450D
1209.798	0.999	1235530	WORD_OFF	n/a	n/a	PANTS	Clothing	5	9	[0, 0, 0]	n/a	catFR1	3	R1450D
1210.797	1.6	1236522	WORD	n/a	wordpools/wordpool_categorized_EN.txt	SHIRT	Clothing	6	9	[0, 0, 0]	n/a	catFR1	3	R1450D
1212.398	0.9	1238129	WORD_OFF	n/a	n/a	SHIRT	Clothing	6	9	[0, 0, 0]	n/a	catFR1	3	R1450D
1213.298	1.6	1239024	WORD	n/a	wordpools/wordpool_categorized_EN.txt	SPARROW	Birds	7	9	[0, 0, 0]	n/a	catFR1	3	R1450D
1214.915	0.8	1240640	WORD_OFF	n/a	n/a	SPARROW	Birds	7	9	[0, 0, 0]	n/a	catFR1	3	R1450D
1215.715	1.6	1241439	WORD	n/a	wordpools/wordpool_categorized_EN.txt	ROBIN	Birds	8	9	[0, 0, 0]	n/a	catFR1	3	R1450D
1217.331	0.884	1243054	WORD_OFF	n/a	n/a	ROBIN	Birds	8	9	[0, 0, 0]	n/a	catFR1	3	R1450D
1218.215	1.6	1243940	WORD	n/a	wordpools/wordpool_categorized_EN.txt	LEVEL	Tools	9	9	[0, 0, 0]	n/a	catFR1	3	R1450D
1219.831	0.9	1245556	WORD_OFF	n/a	n/a	LEVEL	Tools	9	9	[0, 0, 0]	n/a	catFR1	3	R1450D
1220.731	1.6	1246460	WORD	n/a	wordpools/wordpool_categorized_EN.txt	SANDER	Tools	10	9	[0, 0, 0]	n/a	catFR1	3	R1450D
1222.331	0.966	1248058	WORD_OFF	n/a	n/a	SANDER	Tools	10	9	[0, 0, 0]	n/a	catFR1	3	R1450D
1223.297	1.6	1249023	WORD	n/a	wordpools/wordpool_categorized_EN.txt	COAT	Clothing	11	9	[0, 0, 0]	n/a	catFR1	3	R1450D
1224.898	0.95	1250621	WORD_OFF	n/a	n/a	COAT	Clothing	11	9	[0, 0, 0]	n/a	catFR1	3	R1450D
1225.848	1.6	1251578	WORD	n/a	wordpools/wordpool_categorized_EN.txt	BLOUSE	Clothing	12	9	[0, 0, 0]	n/a	catFR1	3	R1450D
1227.464	0.002	1253186	PROB	11.55	n/a	n/a	n/a	-999	9	[4, 1, 2]	7.0	catFR1	3	R1450D
1227.466	0.0	1253188	START	n/a	n/a	n/a	n/a	-999	9	[-999, -999, -999]	n/a	catFR1	3	R1450D
1227.464	0.002	1253193	WORD_OFF	n/a	n/a	BLOUSE	Clothing	12	9	[0, 0, 0]	n/a	catFR1	3	R1450D
1227.466	0.0	1253193	ENCODING_END	n/a	n/a	n/a	n/a	-999	9	[0, 0, 0]	n/a	catFR1	3	R1450D
1227.466	11.566	1253193	DISTRACT_START	n/a	n/a	n/a	n/a	-999	9	[0, 0, 0]	n/a	catFR1	3	R1450D
1239.032	18.183	1264753	PROB	18.166	n/a	n/a	n/a	-999	9	[3, 7, 8]	18.0	catFR1	3	R1450D
1257.215	0.0	1282935	STOP	n/a	n/a	n/a	n/a	-999	9	[-999, -999, -999]	n/a	catFR1	3	R1450D
1257.215	2.35	1282944	DISTRACT_END	n/a	n/a	n/a	n/a	-999	9	[0, 0, 0]	n/a	catFR1	3	R1450D
1259.565	3.615	1285288	REC_START	n/a	n/a	n/a	n/a	-999	9	[0, 0, 0]	n/a	catFR1	3	R1450D
1263.18	1.975	1288900	REC_WORD_VV	3.615	n/a	<>	n/a	-999	9	[0, 0, 0]	n/a	catFR1	3	R1450D
1265.155	12.418	1290875	REC_WORD_VV	5.59	n/a	<>	n/a	-999	9	[0, 0, 0]	n/a	catFR1	3	R1450D
1277.573	12.216	1303292	REC_WORD_VV	18.008	n/a	<>	n/a	-999	9	[0, 0, 0]	n/a	catFR1	3	R1450D
1289.789	5.39	1315514	REC_END	n/a	n/a	n/a	n/a	-999	9	[0, 0, 0]	n/a	catFR1	3	R1450D
1295.179	10.0	1320904	COUNTDOWN_START	n/a	n/a	n/a	n/a	-999	10	[0, 0, 0]	n/a	catFR1	3	R1450D
1305.531	0.0	1331254	COUNTDOWN_END	n/a	n/a	n/a	n/a	-999	10	[0, 0, 0]	n/a	catFR1	3	R1450D
1305.531	1.984	1331254	ENCODING_START	n/a	n/a	n/a	n/a	-999	10	[0, 0, 0]	n/a	catFR1	3	R1450D
1307.515	1.6	1333238	WORD	n/a	wordpools/wordpool_categorized_EN.txt	LADYBUG	Insects	1	10	[0, 0, 0]	n/a	catFR1	3	R1450D
1309.131	0.817	1334853	WORD_OFF	n/a	n/a	LADYBUG	Insects	1	10	[0, 0, 0]	n/a	catFR1	3	R1450D
1309.948	1.6	1335670	WORD	n/a	wordpools/wordpool_categorized_EN.txt	FLY	Insects	2	10	[0, 0, 0]	n/a	catFR1	3	R1450D
1311.549	0.881	1337267	WORD_OFF	n/a	n/a	FLY	Insects	2	10	[0, 0, 0]	n/a	catFR1	3	R1450D
1312.43	1.6	1338154	WORD	n/a	wordpools/wordpool_categorized_EN.txt	SPOON	KitchenTools	3	10	[0, 0, 0]	n/a	catFR1	3	R1450D
1314.031	0.984	1339752	WORD_OFF	n/a	n/a	SPOON	KitchenTools	3	10	[0, 0, 0]	n/a	catFR1	3	R1450D
1315.015	1.6	1340735	WORD	n/a	wordpools/wordpool_categorized_EN.txt	PEELER	KitchenTools	4	10	[0, 0, 0]	n/a	catFR1	3	R1450D
1316.631	0.917	1342350	WORD_OFF	n/a	n/a	PEELER	KitchenTools	4	10	[0, 0, 0]	n/a	catFR1	3	R1450D
1317.548	1.6	1343272	WORD	n/a	wordpools/wordpool_categorized_EN.txt	BIRCH	Trees	5	10	[0, 0, 0]	n/a	catFR1	3	R1450D
1319.148	0.966	1344870	WORD_OFF	n/a	n/a	BIRCH	Trees	5	10	[0, 0, 0]	n/a	catFR1	3	R1450D
1320.114	1.6	1345835	WORD	n/a	wordpools/wordpool_categorized_EN.txt	OAK	Trees	6	10	[0, 0, 0]	n/a	catFR1	3	R1450D
1321.715	0.899	1347433	WORD_OFF	n/a	n/a	OAK	Trees	6	10	[0, 0, 0]	n/a	catFR1	3	R1450D
1322.614	1.6	1348337	WORD	n/a	wordpools/wordpool_categorized_EN.txt	CRICKET	Insects	7	10	[0, 0, 0]	n/a	catFR1	3	R1450D
1324.215	0.95	1349935	WORD_OFF	n/a	n/a	CRICKET	Insects	7	10	[0, 0, 0]	n/a	catFR1	3	R1450D
1325.165	1.6	1350883	WORD	n/a	wordpools/wordpool_categorized_EN.txt	SPIDER	Insects	8	10	[0, 0, 0]	n/a	catFR1	3	R1450D
1326.782	0.966	1352507	WORD_OFF	n/a	n/a	SPIDER	Insects	8	10	[0, 0, 0]	n/a	catFR1	3	R1450D
1327.748	1.6	1353473	WORD	n/a	wordpools/wordpool_categorized_EN.txt	ELM	Trees	9	10	[0, 0, 0]	n/a	catFR1	3	R1450D
1329.365	0.883	1355097	WORD_OFF	n/a	n/a	ELM	Trees	9	10	[0, 0, 0]	n/a	catFR1	3	R1450D
1330.248	1.6	1355966	WORD	n/a	wordpools/wordpool_categorized_EN.txt	WALNUT	Trees	10	10	[0, 0, 0]	n/a	catFR1	3	R1450D
1331.848	0.949	1357573	WORD_OFF	n/a	n/a	WALNUT	Trees	10	10	[0, 0, 0]	n/a	catFR1	3	R1450D
1332.797	1.6	1358521	WORD	n/a	wordpools/wordpool_categorized_EN.txt	FORK	KitchenTools	11	10	[0, 0, 0]	n/a	catFR1	3	R1450D
1334.398	0.9	1360119	WORD_OFF	n/a	n/a	FORK	KitchenTools	11	10	[0, 0, 0]	n/a	catFR1	3	R1450D
1335.298	1.6	1361023	WORD	n/a	wordpools/wordpool_categorized_EN.txt	GRATER	KitchenTools	12	10	[0, 0, 0]	n/a	catFR1	3	R1450D
1336.899	0.0	1362615	START	n/a	n/a	n/a	n/a	-999	10	[-999, -999, -999]	n/a	catFR1	3	R1450D
1336.899	0.0	1362615	PROB	11.549	n/a	n/a	n/a	-999	10	[5, 3, 8]	16.0	catFR1	3	R1450D
1336.898	0.001	1362620	WORD_OFF	n/a	n/a	GRATER	KitchenTools	12	10	[0, 0, 0]	n/a	catFR1	3	R1450D
1336.899	0.0	1362620	ENCODING_END	n/a	n/a	n/a	n/a	-999	10	[0, 0, 0]	n/a	catFR1	3	R1450D
1336.899	11.566	1362620	DISTRACT_START	n/a	n/a	n/a	n/a	-999	10	[0, 0, 0]	n/a	catFR1	3	R1450D
1348.465	15.733	1374181	PROB	15.716	n/a	n/a	n/a	-999	10	[6, 7, 4]	17.0	catFR1	3	R1450D
1364.198	0.0	1389913	STOP	n/a	n/a	n/a	n/a	-999	10	[-999, -999, -999]	n/a	catFR1	3	R1450D
1364.198	2.166	1389922	DISTRACT_END	n/a	n/a	n/a	n/a	-999	10	[0, 0, 0]	n/a	catFR1	3	R1450D
1366.364	0.905	1392081	REC_START	n/a	n/a	n/a	n/a	-999	10	[0, 0, 0]	n/a	catFR1	3	R1450D
1367.269	5.889	1392984	REC_WORD_VV	0.905	n/a	<>	n/a	-999	10	[0, 0, 0]	n/a	catFR1	3	R1450D
1373.158	19.541	1398873	REC_WORD	6.794	n/a	SPOON	KitchenTools	3	10	[0, 0, 0]	n/a	catFR1	3	R1450D
1392.699	1.956	1418413	REC_WORD	26.335	n/a	HAND	n/a	-999	10	[0, 0, 0]	n/a	catFR1	3	R1450D
1394.655	1.922	1420369	REC_WORD	28.291	n/a	PEACH	Fruit	-999	10	[0, 0, 0]	n/a	catFR1	3	R1450D
1396.577	8.104	1422298	REC_END	n/a	n/a	n/a	n/a	-999	10	[0, 0, 0]	n/a	catFR1	3	R1450D
1404.681	10.0	1430401	COUNTDOWN_START	n/a	n/a	n/a	n/a	-999	11	[0, 0, 0]	n/a	catFR1	3	R1450D
1415.032	0.0	1440751	COUNTDOWN_END	n/a	n/a	n/a	n/a	-999	11	[0, 0, 0]	n/a	catFR1	3	R1450D
1415.032	2.348	1440751	ENCODING_START	n/a	n/a	n/a	n/a	-999	11	[0, 0, 0]	n/a	catFR1	3	R1450D
1417.38	1.6	1443095	WORD	n/a	wordpools/wordpool_categorized_EN.txt	CROWBAR	Tools	1	11	[0, 0, 0]	n/a	catFR1	3	R1450D
1418.981	0.833	1444702	WORD_OFF	n/a	n/a	CROWBAR	Tools	1	11	[0, 0, 0]	n/a	catFR1	3	R1450D
1419.814	1.6	1445527	WORD	n/a	wordpools/wordpool_categorized_EN.txt	SCREWDRIVER	Tools	2	11	[0, 0, 0]	n/a	catFR1	3	R1450D
1421.415	0.9	1447134	WORD_OFF	n/a	n/a	SCREWDRIVER	Tools	2	11	[0, 0, 0]	n/a	catFR1	3	R1450D
1422.315	1.6	1448029	WORD	n/a	wordpools/wordpool_categorized_EN.txt	CLOUD	Weather	3	11	[0, 0, 0]	n/a	catFR1	3	R1450D
1423.915	0.817	1449635	WORD_OFF	n/a	n/a	CLOUD	Weather	3	11	[0, 0, 0]	n/a	catFR1	3	R1450D
1424.732	1.6	1450452	WORD	n/a	wordpools/wordpool_categorized_EN.txt	SNOW	Weather	4	11	[0, 0, 0]	n/a	catFR1	3	R1450D
1426.331	0.8	1452050	WORD_OFF	n/a	n/a	SNOW	Weather	4	11	[0, 0, 0]	n/a	catFR1	3	R1450D
1427.131	1.6	1452848	WORD	n/a	wordpools/wordpool_categorized_EN.txt	BASS	Instruments	5	11	[0, 0, 0]	n/a	catFR1	3	R1450D
1428.748	0.767	1454464	WORD_OFF	n/a	n/a	BASS	Instruments	5	11	[0, 0, 0]	n/a	catFR1	3	R1450D
1429.515	1.6	1455228	WORD	n/a	wordpools/wordpool_categorized_EN.txt	CELLO	Instruments	6	11	[0, 0, 0]	n/a	catFR1	3	R1450D
1431.129	0.969	1456843	WORD_OFF	n/a	n/a	CELLO	Instruments	6	11	[0, 0, 0]	n/a	catFR1	3	R1450D
1432.098	1.6	1457817	WORD	n/a	wordpools/wordpool_categorized_EN.txt	RATCHET	Tools	7	11	[0, 0, 0]	n/a	catFR1	3	R1450D
1433.698	0.95	1459415	WORD_OFF	n/a	n/a	RATCHET	Tools	7	11	[0, 0, 0]	n/a	catFR1	3	R1450D
1434.648	1.6	1460363	WORD	n/a	wordpools/wordpool_categorized_EN.txt	SHOVEL	Tools	8	11	[0, 0, 0]	n/a	catFR1	3	R1450D
1436.248	0.767	1461961	WORD_OFF	n/a	n/a	SHOVEL	Tools	8	11	[0, 0, 0]	n/a	catFR1	3	R1450D
1437.015	1.6	1462733	WORD	n/a	wordpools/wordpool_categorized_EN.txt	HUMIDITY	Weather	9	11	[0, 0, 0]	n/a	catFR1	3	R1450D
1438.631	0.984	1464349	WORD_OFF	n/a	n/a	HUMIDITY	Weather	9	11	[0, 0, 0]	n/a	catFR1	3	R1450D
1439.615	1.6	1465332	WORD	n/a	wordpools/wordpool_categorized_EN.txt	DRIZZLE	Weather	10	11	[0, 0, 0]	n/a	catFR1	3	R1450D
1441.215	0.966	1466930	WORD_OFF	n/a	n/a	DRIZZLE	Weather	10	11	[0, 0, 0]	n/a	catFR1	3	R1450D
1442.181	1.6	1467895	WORD	n/a	wordpools/wordpool_categorized_EN.txt	VIOLIN	Instruments	11	11	[0, 0, 0]	n/a	catFR1	3	R1450D
1443.782	0.949	1469493	WORD_OFF	n/a	n/a	VIOLIN	Instruments	11	11	[0, 0, 0]	n/a	catFR1	3	R1450D
1444.731	1.6	1470450	WORD	n/a	wordpools/wordpool_categorized_EN.txt	DRUM	Instruments	12	11	[0, 0, 0]	n/a	catFR1	3	R1450D
1446.349	0.0	1472060	START	n/a	n/a	n/a	n/a	-999	11	[-999, -999, -999]	n/a	catFR1	3	R1450D
1446.349	0.0	1472060	PROB	12.899	n/a	n/a	n/a	-999	11	[7, 2, 4]	13.0	catFR1	3	R1450D
1446.348	0.001	1472065	WORD_OFF	n/a	n/a	DRUM	Instruments	12	11	[0, 0, 0]	n/a	catFR1	3	R1450D
1446.349	0.0	1472065	ENCODING_END	n/a	n/a	n/a	n/a	-999	11	[0, 0, 0]	n/a	catFR1	3	R1450D
1446.349	12.915	1472065	DISTRACT_START	n/a	n/a	n/a	n/a	-999	11	[0, 0, 0]	n/a	catFR1	3	R1450D
1459.264	9.084	1484974	PROB	9.067	n/a	n/a	n/a	-999	11	[2, 1, 6]	9.0	catFR1	3	R1450D
1468.348	0.0	1494058	STOP	n/a	n/a	n/a	n/a	-999	11	[-999, -999, -999]	n/a	catFR1	3	R1450D
1468.348	2.183	1494065	DISTRACT_END	n/a	n/a	n/a	n/a	-999	11	[0, 0, 0]	n/a	catFR1	3	R1450D
1470.531	10.117	1496250	REC_START	n/a	n/a	n/a	n/a	-999	11	[0, 0, 0]	n/a	catFR1	3	R1450D
1480.648	2.656	1506357	REC_WORD	10.117	n/a	BOAT	n/a	-999	11	[0, 0, 0]	n/a	catFR1	3	R1450D
1483.304	4.041	1509013	REC_WORD	12.773	n/a	WATER	n/a	-999	11	[0, 0, 0]	n/a	catFR1	3	R1450D
1487.345	1.0	1513054	REC_WORD_VV	16.814	n/a	<>	n/a	-999	11	[0, 0, 0]	n/a	catFR1	3	R1450D
1488.345	5.222	1514054	REC_WORD_VV	17.814	n/a	<>	n/a	-999	11	[0, 0, 0]	n/a	catFR1	3	R1450D
1493.567	7.176	1519276	REC_WORD_VV	23.036	n/a	<>	n/a	-999	11	[0, 0, 0]	n/a	catFR1	3	R1450D
1500.743	3.821	1526458	REC_END	n/a	n/a	n/a	n/a	-999	11	[0, 0, 0]	n/a	catFR1	3	R1450D
1504.564	10.0	1530277	COUNTDOWN_START	n/a	n/a	n/a	n/a	-999	12	[0, 0, 0]	n/a	catFR1	3	R1450D
1514.914	0.0	1540627	COUNTDOWN_END	n/a	n/a	n/a	n/a	-999	12	[0, 0, 0]	n/a	catFR1	3	R1450D
1514.914	2.051	1540627	ENCODING_START	n/a	n/a	n/a	n/a	-999	12	[0, 0, 0]	n/a	catFR1	3	R1450D
1516.965	1.6	1542673	WORD	n/a	wordpools/wordpool_categorized_EN.txt	FOREST	Landscapes	1	12	[0, 0, 0]	n/a	catFR1	3	R1450D
1518.581	0.884	1544297	WORD_OFF	n/a	n/a	FOREST	Landscapes	1	12	[0, 0, 0]	n/a	catFR1	3	R1450D
1519.465	1.6	1545175	WORD	n/a	wordpools/wordpool_categorized_EN.txt	LAKE	Landscapes	2	12	[0, 0, 0]	n/a	catFR1	3	R1450D
1521.081	0.967	1546790	WORD_OFF	n/a	n/a	LAKE	Landscapes	2	12	[0, 0, 0]	n/a	catFR1	3	R1450D
1522.048	1.6	1547764	WORD	n/a	wordpools/wordpool_categorized_EN.txt	MOSQUITO	Insects	3	12	[0, 0, 0]	n/a	catFR1	3	R1450D
1523.648	0.917	1549362	WORD_OFF	n/a	n/a	MOSQUITO	Insects	3	12	[0, 0, 0]	n/a	catFR1	3	R1450D
1524.565	1.6	1550275	WORD	n/a	wordpools/wordpool_categorized_EN.txt	GNAT	Insects	4	12	[0, 0, 0]	n/a	catFR1	3	R1450D
1526.165	0.966	1551873	WORD_OFF	n/a	n/a	GNAT	Insects	4	12	[0, 0, 0]	n/a	catFR1	3	R1450D
1527.131	1.6	1552847	WORD	n/a	wordpools/wordpool_categorized_EN.txt	SKIRT	Clothing	5	12	[0, 0, 0]	n/a	catFR1	3	R1450D
1528.731	0.85	1554445	WORD_OFF	n/a	n/a	SKIRT	Clothing	5	12	[0, 0, 0]	n/a	catFR1	3	R1450D
1529.581	1.6	1555297	WORD	n/a	wordpools/wordpool_categorized_EN.txt	JEANS	Clothing	6	12	[0, 0, 0]	n/a	catFR1	3	R1450D
1531.198	0.767	1556912	WORD_OFF	n/a	n/a	JEANS	Clothing	6	12	[0, 0, 0]	n/a	catFR1	3	R1450D
1531.965	1.6	1557676	WORD	n/a	wordpools/wordpool_categorized_EN.txt	ROACH	Insects	7	12	[0, 0, 0]	n/a	catFR1	3	R1450D
1533.565	0.85	1559273	WORD_OFF	n/a	n/a	ROACH	Insects	7	12	[0, 0, 0]	n/a	catFR1	3	R1450D
1534.415	1.6	1560125	WORD	n/a	wordpools/wordpool_categorized_EN.txt	MOTH	Insects	8	12	[0, 0, 0]	n/a	catFR1	3	R1450D
1536.031	0.934	1561740	WORD_OFF	n/a	n/a	MOTH	Insects	8	12	[0, 0, 0]	n/a	catFR1	3	R1450D
1536.965	1.6	1562680	WORD	n/a	wordpools/wordpool_categorized_EN.txt	SOCKS	Clothing	9	12	[0, 0, 0]	n/a	catFR1	3	R1450D
1538.565	0.9	1564277	WORD_OFF	n/a	n/a	SOCKS	Clothing	9	12	[0, 0, 0]	n/a	catFR1	3	R1450D
1539.465	1.6	1565173	WORD	n/a	wordpools/wordpool_categorized_EN.txt	DRESS	Clothing	10	12	[0, 0, 0]	n/a	catFR1	3	R1450D
1541.081	1.0	1566797	WORD_OFF	n/a	n/a	DRESS	Clothing	10	12	[0, 0, 0]	n/a	catFR1	3	R1450D
1542.081	1.6	1567789	WORD	n/a	wordpools/wordpool_categorized_EN.txt	STREAM	Landscapes	11	12	[0, 0, 0]	n/a	catFR1	3	R1450D
1543.697	0.9	1569404	WORD_OFF	n/a	n/a	STREAM	Landscapes	11	12	[0, 0, 0]	n/a	catFR1	3	R1450D
1544.597	1.6	1570308	WORD	n/a	wordpools/wordpool_categorized_EN.txt	MOUNTAIN	Landscapes	12	12	[0, 0, 0]	n/a	catFR1	3	R1450D
1546.216	0.0	1571922	PROB	22.249	n/a	n/a	n/a	-999	12	[8, 7, 7]	21.0	catFR1	3	R1450D
1546.216	0.0	1571922	START	n/a	n/a	n/a	n/a	-999	12	[-999, -999, -999]	n/a	catFR1	3	R1450D
1546.215	0.001	1571924	WORD_OFF	n/a	n/a	MOUNTAIN	Landscapes	12	12	[0, 0, 0]	n/a	catFR1	3	R1450D
1546.216	0.0	1571924	ENCODING_END	n/a	n/a	n/a	n/a	-999	12	[0, 0, 0]	n/a	catFR1	3	R1450D
1546.216	22.265	1571932	DISTRACT_START	n/a	n/a	n/a	n/a	-999	12	[0, 0, 0]	n/a	catFR1	3	R1450D
1568.481	0.0	1594186	STOP	n/a	n/a	n/a	n/a	-999	12	[-999, -999, -999]	n/a	catFR1	3	R1450D
1568.481	2.051	1594195	DISTRACT_END	n/a	n/a	n/a	n/a	-999	12	[0, 0, 0]	n/a	catFR1	3	R1450D
1570.532	30.0	1596240	REC_START	n/a	n/a	n/a	n/a	-999	12	[0, 0, 0]	n/a	catFR1	3	R1450D
1600.532	0.231	1626235	REC_WORD_VV	30.0	n/a	<>	n/a	-999	12	[0, 0, 0]	n/a	catFR1	3	R1450D
1600.763	0.0	1626475	REC_END	n/a	n/a	n/a	n/a	-999	12	[0, 0, 0]	n/a	catFR1	3	R1450D
