onset	duration	sample	trial_type	response_time	stim_file	item_name	category	serialpos	list	test	answer	experiment	session	subject
0.0	34.934	567060	INSTRUCT_START	n/a	n/a	n/a	n/a	-999	-999	[0, 0, 0]	n/a	catFR1	4	R1616S
34.934	35.498	601989	INSTRUCT_END	n/a	n/a	n/a	n/a	-999	-999	[0, 0, 0]	n/a	catFR1	4	R1616S
70.432	10.349	637492	COUNTDOWN_START	n/a	n/a	n/a	n/a	-999	-999	[0, 0, 0]	n/a	catFR1	4	R1616S
80.781	0.0	647831	COUNTDOWN_END	n/a	n/a	n/a	n/a	-999	-999	[0, 0, 0]	n/a	catFR1	4	R1616S
80.781	2.118	647831	ENCODING_START	n/a	n/a	n/a	n/a	-999	-1	[0, 0, 0]	n/a	catFR1	4	R1616S
82.899	1.615	649955	WORD	n/a	n/a	DAISY	Flowers	1	-1	[0, 0, 0]	n/a	catFR1	4	R1616S
84.514	0.851	651561	WORD_OFF	n/a	n/a	DAISY	Flowers	1	-1	[0, 0, 0]	n/a	catFR1	4	R1616S
85.365	1.6	652414	WORD	n/a	n/a	TULIP	Flowers	2	-1	[0, 0, 0]	n/a	catFR1	4	R1616S
86.965	0.866	654020	WORD_OFF	n/a	n/a	TULIP	Flowers	2	-1	[0, 0, 0]	n/a	catFR1	4	R1616S
87.831	1.601	654887	WORD	n/a	n/a	GUITAR	Instruments	3	-1	[0, 0, 0]	n/a	catFR1	4	R1616S
89.432	0.883	656479	WORD_OFF	n/a	n/a	GUITAR	Instruments	3	-1	[0, 0, 0]	n/a	catFR1	4	R1616S
90.315	1.617	657374	WORD	n/a	n/a	TRUMPET	Instruments	4	-1	[0, 0, 0]	n/a	catFR1	4	R1616S
91.932	0.782	658980	WORD_OFF	n/a	n/a	TRUMPET	Instruments	4	-1	[0, 0, 0]	n/a	catFR1	4	R1616S
92.714	1.601	659763	WORD	n/a	n/a	CABINET	Furniture	5	-1	[0, 0, 0]	n/a	catFR1	4	R1616S
94.315	0.883	661369	WORD_OFF	n/a	n/a	CABINET	Furniture	5	-1	[0, 0, 0]	n/a	catFR1	4	R1616S
95.198	1.601	662250	WORD	n/a	n/a	DRESSER	Furniture	6	-1	[0, 0, 0]	n/a	catFR1	4	R1616S
96.799	0.9	663856	WORD_OFF	n/a	n/a	DRESSER	Furniture	6	-1	[0, 0, 0]	n/a	catFR1	4	R1616S
97.699	1.616	664751	WORD	n/a	n/a	PETUNIA	Flowers	7	-1	[0, 0, 0]	n/a	catFR1	4	R1616S
99.315	0.95	666371	WORD_OFF	n/a	n/a	PETUNIA	Flowers	7	-1	[0, 0, 0]	n/a	catFR1	4	R1616S
100.265	1.6	667321	WORD	n/a	n/a	VIOLET	Flowers	8	-1	[0, 0, 0]	n/a	catFR1	4	R1616S
101.865	0.867	668914	WORD_OFF	n/a	n/a	VIOLET	Flowers	8	-1	[0, 0, 0]	n/a	catFR1	4	R1616S
102.732	1.6	669781	WORD	n/a	n/a	RECLINER	Furniture	9	-1	[0, 0, 0]	n/a	catFR1	4	R1616S
104.332	0.883	671387	WORD_OFF	n/a	n/a	RECLINER	Furniture	9	-1	[0, 0, 0]	n/a	catFR1	4	R1616S
105.215	1.617	672268	WORD	n/a	n/a	SOFA	Furniture	10	-1	[0, 0, 0]	n/a	catFR1	4	R1616S
106.832	0.967	673888	WORD_OFF	n/a	n/a	SOFA	Furniture	10	-1	[0, 0, 0]	n/a	catFR1	4	R1616S
107.799	1.616	674852	WORD	n/a	n/a	FLUTE	Instruments	11	-1	[0, 0, 0]	n/a	catFR1	4	R1616S
109.415	0.817	676473	WORD_OFF	n/a	n/a	FLUTE	Instruments	11	-1	[0, 0, 0]	n/a	catFR1	4	R1616S
110.232	1.615	677283	WORD	n/a	n/a	CELLO	Instruments	12	-1	[0, 0, 0]	n/a	catFR1	4	R1616S
111.847	0.001	678896	START	n/a	n/a	n/a	n/a	-999	-1	[-999, -999, -999]	n/a	catFR1	4	R1616S
111.848	0.0	678897	PROB	0.0	n/a	n/a	n/a	-999	-1	[1, 5, 8]	14	catFR1	4	R1616S
111.846	0.001	678904	WORD_OFF	n/a	n/a	CELLO	Instruments	12	-1	[0, 0, 0]	n/a	catFR1	4	R1616S
111.847	0.0	678904	ENCODING_END	n/a	n/a	n/a	n/a	-999	-1	[0, 0, 0]	n/a	catFR1	4	R1616S
111.847	6.186	678904	DISTRACT_START	n/a	n/a	n/a	n/a	-999	-1	[0, 0, 0]	n/a	catFR1	4	R1616S
118.033	6.482	685082	PROB	6.482	n/a	n/a	n/a	-999	-1	[8, 3, 1]	12	catFR1	4	R1616S
124.515	5.168	691563	PROB	5.168	n/a	n/a	n/a	-999	-1	[8, 2, 1]	11	catFR1	4	R1616S
129.683	4.083	696731	PROB	4.083	n/a	n/a	n/a	-999	-1	[6, 2, 3]	11	catFR1	4	R1616S
133.766	0.0	700812	DISTRACT_END	n/a	n/a	n/a	n/a	-999	-1	[0, 0, 0]	n/a	catFR1	4	R1616S
133.766	1.248	700814	STOP	n/a	n/a	n/a	n/a	-999	-1	[-999, -999, -999]	n/a	catFR1	4	R1616S
135.014	1.72	702069	REC_START	n/a	n/a	n/a	n/a	-999	-1	[0, 0, 0]	n/a	catFR1	4	R1616S
136.734	0.816	703782	REC_WORD	0.816	n/a	FLUTE	Instruments	11	-1	[0, 0, 0]	n/a	catFR1	4	R1616S
137.55	1.21	704598	REC_WORD	1.21	n/a	CELLO	Instruments	12	-1	[0, 0, 0]	n/a	catFR1	4	R1616S
138.76	1.592	705808	REC_WORD	1.592	n/a	CABINET	Furniture	5	-1	[0, 0, 0]	n/a	catFR1	4	R1616S
140.352	0.902	707399	REC_WORD	0.902	n/a	TULIP	Flowers	2	-1	[0, 0, 0]	n/a	catFR1	4	R1616S
141.254	2.279	708301	REC_WORD	2.279	n/a	DAISY	Flowers	1	-1	[0, 0, 0]	n/a	catFR1	4	R1616S
143.533	5.027	710580	REC_WORD_VV	5.027	n/a	<>	n/a	-999	-1	[0, 0, 0]	n/a	catFR1	4	R1616S
148.56	1.05	715607	REC_WORD_VV	1.05	n/a	<>	n/a	-999	-1	[0, 0, 0]	n/a	catFR1	4	R1616S
149.61	5.329	716657	REC_WORD_VV	5.329	n/a	<>	n/a	-999	-1	[0, 0, 0]	n/a	catFR1	4	R1616S
154.939	1.338	721986	REC_WORD	1.338	n/a	TROMBONE	n/a	-999	-1	[0, 0, 0]	n/a	catFR1	4	R1616S
156.277	3.706	723324	REC_WORD	3.706	n/a	TRUMPET	Instruments	4	-1	[0, 0, 0]	n/a	catFR1	4	R1616S
159.983	6.221	727030	REC_WORD_VV	6.221	n/a	<>	n/a	-999	-1	[0, 0, 0]	n/a	catFR1	4	R1616S
166.204	10.461	733254	REC_END	n/a	n/a	n/a	n/a	-999	-1	[0, 0, 0]	n/a	catFR1	4	R1616S
176.665	10.351	743719	COUNTDOWN_START	n/a	n/a	n/a	n/a	-999	1	[0, 0, 0]	n/a	catFR1	4	R1616S
187.016	0.0	754059	COUNTDOWN_END	n/a	n/a	n/a	n/a	-999	1	[0, 0, 0]	n/a	catFR1	4	R1616S
187.016	2.266	754073	ENCODING_START	n/a	n/a	n/a	n/a	-999	1	[0, 0, 0]	n/a	catFR1	4	R1616S
189.282	1.617	756336	WORD	n/a	wordpools/wordpool_categorized_EN.txt	MAPLE	Trees	1	1	[0, 0, 0]	n/a	catFR1	4	R1616S
190.899	0.983	757943	WORD_OFF	n/a	n/a	MAPLE	Trees	1	1	[0, 0, 0]	n/a	catFR1	4	R1616S
191.882	1.617	758935	WORD	n/a	wordpools/wordpool_categorized_EN.txt	CYPRESS	Trees	2	1	[0, 0, 0]	n/a	catFR1	4	R1616S
193.499	0.8	760541	WORD_OFF	n/a	n/a	CYPRESS	Trees	2	1	[0, 0, 0]	n/a	catFR1	4	R1616S
194.299	1.6	761352	WORD	n/a	wordpools/wordpool_categorized_EN.txt	MOPED	Vehicles	3	1	[0, 0, 0]	n/a	catFR1	4	R1616S
195.899	0.766	762945	WORD_OFF	n/a	n/a	MOPED	Vehicles	3	1	[0, 0, 0]	n/a	catFR1	4	R1616S
196.665	1.616	763713	WORD	n/a	wordpools/wordpool_categorized_EN.txt	TRUCK	Vehicles	4	1	[0, 0, 0]	n/a	catFR1	4	R1616S
198.281	1.001	765334	WORD_OFF	n/a	n/a	TRUCK	Vehicles	4	1	[0, 0, 0]	n/a	catFR1	4	R1616S
199.282	1.6	766326	WORD	n/a	wordpools/wordpool_categorized_EN.txt	COOKIE	Desserts	5	1	[0, 0, 0]	n/a	catFR1	4	R1616S
200.882	0.95	767933	WORD_OFF	n/a	n/a	COOKIE	Desserts	5	1	[0, 0, 0]	n/a	catFR1	4	R1616S
201.832	1.6	768883	WORD	n/a	wordpools/wordpool_categorized_EN.txt	CHEESECAKE	Desserts	6	1	[0, 0, 0]	n/a	catFR1	4	R1616S
203.432	0.95	770475	WORD_OFF	n/a	n/a	CHEESECAKE	Desserts	6	1	[0, 0, 0]	n/a	catFR1	4	R1616S
204.382	1.616	771426	WORD	n/a	wordpools/wordpool_categorized_EN.txt	VAN	Vehicles	7	1	[0, 0, 0]	n/a	catFR1	4	R1616S
205.998	0.851	773046	WORD_OFF	n/a	n/a	VAN	Vehicles	7	1	[0, 0, 0]	n/a	catFR1	4	R1616S
206.849	1.6	773899	WORD	n/a	wordpools/wordpool_categorized_EN.txt	MOTORCYCLE	Vehicles	8	1	[0, 0, 0]	n/a	catFR1	4	R1616S
208.449	0.967	775491	WORD_OFF	n/a	n/a	MOTORCYCLE	Vehicles	8	1	[0, 0, 0]	n/a	catFR1	4	R1616S
209.416	1.616	776455	WORD	n/a	wordpools/wordpool_categorized_EN.txt	BROWNIES	Desserts	9	1	[0, 0, 0]	n/a	catFR1	4	R1616S
211.032	0.767	778076	WORD_OFF	n/a	n/a	BROWNIES	Desserts	9	1	[0, 0, 0]	n/a	catFR1	4	R1616S
211.799	1.6	778845	WORD	n/a	wordpools/wordpool_categorized_EN.txt	PIE	Desserts	10	1	[0, 0, 0]	n/a	catFR1	4	R1616S
213.399	0.849	780451	WORD_OFF	n/a	n/a	PIE	Desserts	10	1	[0, 0, 0]	n/a	catFR1	4	R1616S
214.248	1.601	781290	WORD	n/a	wordpools/wordpool_categorized_EN.txt	OAK	Trees	11	1	[0, 0, 0]	n/a	catFR1	4	R1616S
215.849	0.916	782896	WORD_OFF	n/a	n/a	OAK	Trees	11	1	[0, 0, 0]	n/a	catFR1	4	R1616S
216.765	1.616	783818	WORD	n/a	wordpools/wordpool_categorized_EN.txt	PINE	Trees	12	1	[0, 0, 0]	n/a	catFR1	4	R1616S
218.381	0.001	785425	WORD_OFF	n/a	n/a	PINE	Trees	12	1	[0, 0, 0]	n/a	catFR1	4	R1616S
218.382	0.0	785425	ENCODING_END	n/a	n/a	n/a	n/a	-999	1	[0, 0, 0]	n/a	catFR1	4	R1616S
218.382	0.0	785425	DISTRACT_START	n/a	n/a	n/a	n/a	-999	1	[0, 0, 0]	n/a	catFR1	4	R1616S
218.381	0.001	785425	PROB	0.001	n/a	n/a	n/a	-999	1	[5, 8, 4]	17	catFR1	4	R1616S
218.382	5.817	785426	START	n/a	n/a	n/a	n/a	-999	1	[-999, -999, -999]	n/a	catFR1	4	R1616S
224.199	7.75	791242	PROB	7.75	n/a	n/a	n/a	-999	1	[5, 4, 8]	17	catFR1	4	R1616S
231.949	4.5	798992	PROB	4.5	n/a	n/a	n/a	-999	1	[2, 5, 2]	9	catFR1	4	R1616S
236.449	6.499	803492	PROB	6.499	n/a	n/a	n/a	-999	1	[2, 4, 8]	14	catFR1	4	R1616S
242.948	0.0	809988	DISTRACT_END	n/a	n/a	n/a	n/a	-999	1	[0, 0, 0]	n/a	catFR1	4	R1616S
242.948	1.184	809991	STOP	n/a	n/a	n/a	n/a	-999	1	[-999, -999, -999]	n/a	catFR1	4	R1616S
244.132	1.01	811175	REC_START	n/a	n/a	n/a	n/a	-999	1	[0, 0, 0]	n/a	catFR1	4	R1616S
245.142	0.495	812184	REC_WORD_VV	0.495	n/a	<>	n/a	-999	1	[0, 0, 0]	n/a	catFR1	4	R1616S
245.637	0.624	812679	REC_WORD	0.624	n/a	OAK	Trees	11	1	[0, 0, 0]	n/a	catFR1	4	R1616S
246.261	0.728	813303	REC_WORD	0.728	n/a	POLLEN	n/a	-999	1	[0, 0, 0]	n/a	catFR1	4	R1616S
246.989	0.515	814031	REC_WORD	0.515	n/a	WOODS	n/a	-999	1	[0, 0, 0]	n/a	catFR1	4	R1616S
247.504	1.933	814546	REC_WORD	1.933	n/a	CYPRESS	Trees	2	1	[0, 0, 0]	n/a	catFR1	4	R1616S
249.437	3.223	816479	REC_WORD_VV	3.223	n/a	<>	n/a	-999	1	[0, 0, 0]	n/a	catFR1	4	R1616S
252.66	12.47	819702	REC_WORD	12.47	n/a	MAPLE	Trees	1	1	[0, 0, 0]	n/a	catFR1	4	R1616S
265.13	10.191	832172	REC_WORD_VV	10.191	n/a	<>	n/a	-999	1	[0, 0, 0]	n/a	catFR1	4	R1616S
275.321	1.594	842360	REC_END	n/a	n/a	n/a	n/a	-999	1	[0, 0, 0]	n/a	catFR1	4	R1616S
276.915	10.35	843967	COUNTDOWN_START	n/a	n/a	n/a	n/a	-999	1	[0, 0, 0]	n/a	catFR1	4	R1616S
287.265	0.0	854306	COUNTDOWN_END	n/a	n/a	n/a	n/a	-999	1	[0, 0, 0]	n/a	catFR1	4	R1616S
287.265	2.117	854306	ENCODING_START	n/a	n/a	n/a	n/a	-999	2	[0, 0, 0]	n/a	catFR1	4	R1616S
289.382	1.617	856430	WORD	n/a	wordpools/wordpool_categorized_EN.txt	RADIO	Electronics	1	2	[0, 0, 0]	n/a	catFR1	4	R1616S
290.999	0.833	858037	WORD_OFF	n/a	n/a	RADIO	Electronics	1	2	[0, 0, 0]	n/a	catFR1	4	R1616S
291.832	1.6	858875	WORD	n/a	wordpools/wordpool_categorized_EN.txt	COMPUTER	Electronics	2	2	[0, 0, 0]	n/a	catFR1	4	R1616S
293.432	0.966	860469	WORD_OFF	n/a	n/a	COMPUTER	Electronics	2	2	[0, 0, 0]	n/a	catFR1	4	R1616S
294.398	1.617	861446	WORD	n/a	wordpools/wordpool_categorized_EN.txt	LEG	BodyParts	3	2	[0, 0, 0]	n/a	catFR1	4	R1616S
296.015	0.917	863053	WORD_OFF	n/a	n/a	LEG	BodyParts	3	2	[0, 0, 0]	n/a	catFR1	4	R1616S
296.932	1.617	863975	WORD	n/a	wordpools/wordpool_categorized_EN.txt	ARM	BodyParts	4	2	[0, 0, 0]	n/a	catFR1	4	R1616S
298.549	0.9	865596	WORD_OFF	n/a	n/a	ARM	BodyParts	4	2	[0, 0, 0]	n/a	catFR1	4	R1616S
299.449	1.6	866490	WORD	n/a	wordpools/wordpool_categorized_EN.txt	PANTS	Clothing	5	2	[0, 0, 0]	n/a	catFR1	4	R1616S
301.049	0.95	868097	WORD_OFF	n/a	n/a	PANTS	Clothing	5	2	[0, 0, 0]	n/a	catFR1	4	R1616S
301.999	1.615	869047	WORD	n/a	wordpools/wordpool_categorized_EN.txt	SOCKS	Clothing	6	2	[0, 0, 0]	n/a	catFR1	4	R1616S
303.614	0.768	870653	WORD_OFF	n/a	n/a	SOCKS	Clothing	6	2	[0, 0, 0]	n/a	catFR1	4	R1616S
304.382	1.6	871422	WORD	n/a	wordpools/wordpool_categorized_EN.txt	TOE	BodyParts	7	2	[0, 0, 0]	n/a	catFR1	4	R1616S
305.982	0.85	873029	WORD_OFF	n/a	n/a	TOE	BodyParts	7	2	[0, 0, 0]	n/a	catFR1	4	R1616S
306.832	1.617	873881	WORD	n/a	wordpools/wordpool_categorized_EN.txt	KNEE	BodyParts	8	2	[0, 0, 0]	n/a	catFR1	4	R1616S
308.449	0.949	875488	WORD_OFF	n/a	n/a	KNEE	BodyParts	8	2	[0, 0, 0]	n/a	catFR1	4	R1616S
309.398	1.617	876438	WORD	n/a	wordpools/wordpool_categorized_EN.txt	JEANS	Clothing	9	2	[0, 0, 0]	n/a	catFR1	4	R1616S
311.015	0.95	878058	WORD_OFF	n/a	n/a	JEANS	Clothing	9	2	[0, 0, 0]	n/a	catFR1	4	R1616S
311.965	1.6	879009	WORD	n/a	wordpools/wordpool_categorized_EN.txt	SKIRT	Clothing	10	2	[0, 0, 0]	n/a	catFR1	4	R1616S
313.565	0.817	880601	WORD_OFF	n/a	n/a	SKIRT	Clothing	10	2	[0, 0, 0]	n/a	catFR1	4	R1616S
314.382	1.615	881426	WORD	n/a	wordpools/wordpool_categorized_EN.txt	TELEVISION	Electronics	11	2	[0, 0, 0]	n/a	catFR1	4	R1616S
315.997	0.852	883032	WORD_OFF	n/a	n/a	TELEVISION	Electronics	11	2	[0, 0, 0]	n/a	catFR1	4	R1616S
316.849	1.616	883885	WORD	n/a	wordpools/wordpool_categorized_EN.txt	SCANNER	Electronics	12	2	[0, 0, 0]	n/a	catFR1	4	R1616S
318.465	0.002	885505	WORD_OFF	n/a	n/a	SCANNER	Electronics	12	2	[0, 0, 0]	n/a	catFR1	4	R1616S
318.467	0.0	885505	ENCODING_END	n/a	n/a	n/a	n/a	-999	2	[0, 0, 0]	n/a	catFR1	4	R1616S
318.467	0.0	885505	DISTRACT_START	n/a	n/a	n/a	n/a	-999	2	[0, 0, 0]	n/a	catFR1	4	R1616S
318.466	0.001	885505	PROB	0.001	n/a	n/a	n/a	-999	2	[5, 1, 7]	13	catFR1	4	R1616S
318.467	5.148	885506	START	n/a	n/a	n/a	n/a	-999	2	[-999, -999, -999]	n/a	catFR1	4	R1616S
323.615	4.551	890654	PROB	4.551	n/a	n/a	n/a	-999	2	[4, 3, 3]	10	catFR1	4	R1616S
328.166	3.382	895204	PROB	3.382	n/a	n/a	n/a	-999	2	[2, 8, 4]	14	catFR1	4	R1616S
331.548	3.785	898586	PROB	3.785	n/a	n/a	n/a	-999	2	[6, 6, 2]	14	catFR1	4	R1616S
335.333	5.582	902371	PROB	5.582	n/a	n/a	n/a	-999	2	[1, 7, 5]	13	catFR1	4	R1616S
340.915	0.0	907953	STOP	n/a	n/a	n/a	n/a	-999	2	[-999, -999, -999]	n/a	catFR1	4	R1616S
340.915	1.167	907958	DISTRACT_END	n/a	n/a	n/a	n/a	-999	2	[0, 0, 0]	n/a	catFR1	4	R1616S
342.082	2.789	909118	REC_START	n/a	n/a	n/a	n/a	-999	2	[0, 0, 0]	n/a	catFR1	4	R1616S
344.871	0.74	911909	REC_WORD	0.74	n/a	SKIRT	Clothing	10	2	[0, 0, 0]	n/a	catFR1	4	R1616S
345.611	0.644	912649	REC_WORD	0.644	n/a	PANTS	Clothing	5	2	[0, 0, 0]	n/a	catFR1	4	R1616S
346.255	1.817	913293	REC_WORD	1.817	n/a	LEG	BodyParts	3	2	[0, 0, 0]	n/a	catFR1	4	R1616S
348.072	0.998	915110	REC_WORD	0.998	n/a	SHOES	n/a	-999	2	[0, 0, 0]	n/a	catFR1	4	R1616S
349.07	0.908	916107	REC_WORD	0.908	n/a	SOCKS	Clothing	6	2	[0, 0, 0]	n/a	catFR1	4	R1616S
349.978	0.814	917015	REC_WORD	0.814	n/a	TOE	BodyParts	7	2	[0, 0, 0]	n/a	catFR1	4	R1616S
350.792	4.103	917829	REC_WORD	4.103	n/a	KNEE	BodyParts	8	2	[0, 0, 0]	n/a	catFR1	4	R1616S
354.895	10.185	921932	REC_WORD	10.185	n/a	ARM	BodyParts	4	2	[0, 0, 0]	n/a	catFR1	4	R1616S
365.08	0.704	932117	REC_WORD	0.704	n/a	SHOES	n/a	-999	2	[0, 0, 0]	n/a	catFR1	4	R1616S
365.784	0.97	932821	REC_WORD	0.97	n/a	KNEE	BodyParts	8	2	[0, 0, 0]	n/a	catFR1	4	R1616S
366.754	1.29	933791	REC_WORD	1.29	n/a	SOCKS	Clothing	6	2	[0, 0, 0]	n/a	catFR1	4	R1616S
368.044	1.741	935081	REC_WORD	1.741	n/a	ARM	BodyParts	4	2	[0, 0, 0]	n/a	catFR1	4	R1616S
369.785	0.979	936821	REC_WORD	0.979	n/a	LEG	BodyParts	3	2	[0, 0, 0]	n/a	catFR1	4	R1616S
370.764	0.339	937800	REC_WORD	0.339	n/a	PANTS	Clothing	5	2	[0, 0, 0]	n/a	catFR1	4	R1616S
371.103	2.196	938139	REC_WORD	2.196	n/a	SKIRT	Clothing	10	2	[0, 0, 0]	n/a	catFR1	4	R1616S
373.299	3.116	940331	REC_END	n/a	n/a	n/a	n/a	-999	2	[0, 0, 0]	n/a	catFR1	4	R1616S
376.415	10.35	943461	COUNTDOWN_START	n/a	n/a	n/a	n/a	-999	2	[0, 0, 0]	n/a	catFR1	4	R1616S
386.765	0.0	953800	COUNTDOWN_END	n/a	n/a	n/a	n/a	-999	2	[0, 0, 0]	n/a	catFR1	4	R1616S
386.765	2.117	953800	ENCODING_START	n/a	n/a	n/a	n/a	-999	3	[0, 0, 0]	n/a	catFR1	4	R1616S
388.882	1.617	955923	WORD	n/a	wordpools/wordpool_categorized_EN.txt	FOOTBALL	Toys	1	3	[0, 0, 0]	n/a	catFR1	4	R1616S
390.499	0.95	957530	WORD_OFF	n/a	n/a	FOOTBALL	Toys	1	3	[0, 0, 0]	n/a	catFR1	4	R1616S
391.449	1.616	958480	WORD	n/a	wordpools/wordpool_categorized_EN.txt	BLOCKS	Toys	2	3	[0, 0, 0]	n/a	catFR1	4	R1616S
393.065	0.984	960101	WORD_OFF	n/a	n/a	BLOCKS	Toys	2	3	[0, 0, 0]	n/a	catFR1	4	R1616S
394.049	1.6	961093	WORD	n/a	wordpools/wordpool_categorized_EN.txt	HURRICANE	Weather	3	3	[0, 0, 0]	n/a	catFR1	4	R1616S
395.649	0.816	962686	WORD_OFF	n/a	n/a	HURRICANE	Weather	3	3	[0, 0, 0]	n/a	catFR1	4	R1616S
396.465	1.6	963510	WORD	n/a	wordpools/wordpool_categorized_EN.txt	HUMIDITY	Weather	4	3	[0, 0, 0]	n/a	catFR1	4	R1616S
398.065	0.9	965103	WORD_OFF	n/a	n/a	HUMIDITY	Weather	4	3	[0, 0, 0]	n/a	catFR1	4	R1616S
398.965	1.616	965997	WORD	n/a	wordpools/wordpool_categorized_EN.txt	PEACH	Fruit	5	3	[0, 0, 0]	n/a	catFR1	4	R1616S
400.581	1.001	967618	WORD_OFF	n/a	n/a	PEACH	Fruit	5	3	[0, 0, 0]	n/a	catFR1	4	R1616S
401.582	1.617	968624	WORD	n/a	wordpools/wordpool_categorized_EN.txt	PLUM	Fruit	6	3	[0, 0, 0]	n/a	catFR1	4	R1616S
403.199	0.897	970230	WORD_OFF	n/a	n/a	PLUM	Fruit	6	3	[0, 0, 0]	n/a	catFR1	4	R1616S
404.096	1.602	971139	WORD	n/a	wordpools/wordpool_categorized_EN.txt	FOG	Weather	7	3	[0, 0, 0]	n/a	catFR1	4	R1616S
405.698	0.901	972731	WORD_OFF	n/a	n/a	FOG	Weather	7	3	[0, 0, 0]	n/a	catFR1	4	R1616S
406.599	1.6	973640	WORD	n/a	wordpools/wordpool_categorized_EN.txt	THUNDER	Weather	8	3	[0, 0, 0]	n/a	catFR1	4	R1616S
408.199	0.915	975232	WORD_OFF	n/a	n/a	THUNDER	Weather	8	3	[0, 0, 0]	n/a	catFR1	4	R1616S
409.114	1.601	976155	WORD	n/a	wordpools/wordpool_categorized_EN.txt	PEAR	Fruit	9	3	[0, 0, 0]	n/a	catFR1	4	R1616S
410.715	0.833	977747	WORD_OFF	n/a	n/a	PEAR	Fruit	9	3	[0, 0, 0]	n/a	catFR1	4	R1616S
411.548	1.601	978586	WORD	n/a	wordpools/wordpool_categorized_EN.txt	APPLE	Fruit	10	3	[0, 0, 0]	n/a	catFR1	4	R1616S
413.149	0.8	980192	WORD_OFF	n/a	n/a	APPLE	Fruit	10	3	[0, 0, 0]	n/a	catFR1	4	R1616S
413.949	1.6	980989	WORD	n/a	wordpools/wordpool_categorized_EN.txt	FRISBEE	Toys	11	3	[0, 0, 0]	n/a	catFR1	4	R1616S
415.549	0.8	982582	WORD_OFF	n/a	n/a	FRISBEE	Toys	11	3	[0, 0, 0]	n/a	catFR1	4	R1616S
416.349	1.616	983392	WORD	n/a	wordpools/wordpool_categorized_EN.txt	BASKETBALL	Toys	12	3	[0, 0, 0]	n/a	catFR1	4	R1616S
417.965	0.001	984999	WORD_OFF	n/a	n/a	BASKETBALL	Toys	12	3	[0, 0, 0]	n/a	catFR1	4	R1616S
417.966	0.0	984999	ENCODING_END	n/a	n/a	n/a	n/a	-999	3	[0, 0, 0]	n/a	catFR1	4	R1616S
417.966	0.0	984999	DISTRACT_START	n/a	n/a	n/a	n/a	-999	3	[0, 0, 0]	n/a	catFR1	4	R1616S
417.966	0.0	985000	PROB	0.0	n/a	n/a	n/a	-999	3	[1, 3, 3]	7	catFR1	4	R1616S
417.966	6.366	985000	START	n/a	n/a	n/a	n/a	-999	3	[-999, -999, -999]	n/a	catFR1	4	R1616S
424.332	8.5	991366	PROB	8.5	n/a	n/a	n/a	-999	3	[3, 4, 5]	12	catFR1	4	R1616S
432.832	4.666	999865	PROB	4.666	n/a	n/a	n/a	-999	3	[7, 8, 5]	20	catFR1	4	R1616S
437.498	4.334	1004531	PROB	4.334	n/a	n/a	n/a	-999	3	[6, 2, 8]	16	catFR1	4	R1616S
441.832	0.0	1008863	DISTRACT_END	n/a	n/a	n/a	n/a	-999	3	[0, 0, 0]	n/a	catFR1	4	R1616S
441.832	1.383	1008865	STOP	n/a	n/a	n/a	n/a	-999	3	[-999, -999, -999]	n/a	catFR1	4	R1616S
443.215	0.0	1010246	REC_START	n/a	n/a	n/a	n/a	-999	3	[0, 0, 0]	n/a	catFR1	4	R1616S
443.215	1.009	1010248	REC_WORD_VV	1.009	n/a	<>	n/a	-999	3	[0, 0, 0]	n/a	catFR1	4	R1616S
444.224	1.24	1011257	REC_WORD_VV	1.24	n/a	<>	n/a	-999	3	[0, 0, 0]	n/a	catFR1	4	R1616S
445.464	0.629	1012497	REC_WORD	0.629	n/a	APPLE	Fruit	10	3	[0, 0, 0]	n/a	catFR1	4	R1616S
446.093	1.149	1013126	REC_WORD_VV	1.149	n/a	<>	n/a	-999	3	[0, 0, 0]	n/a	catFR1	4	R1616S
447.242	1.359	1014275	REC_WORD_VV	1.359	n/a	<>	n/a	-999	3	[0, 0, 0]	n/a	catFR1	4	R1616S
448.601	1.281	1015634	REC_WORD	1.281	n/a	APPLE	Fruit	10	3	[0, 0, 0]	n/a	catFR1	4	R1616S
449.882	1.024	1016915	REC_WORD	1.024	n/a	MAPLE	Trees	-999	3	[0, 0, 0]	n/a	catFR1	4	R1616S
450.906	1.198	1017939	REC_WORD	1.198	n/a	FOG	Weather	7	3	[0, 0, 0]	n/a	catFR1	4	R1616S
452.104	1.225	1019137	REC_WORD	1.225	n/a	THUNDER	Weather	8	3	[0, 0, 0]	n/a	catFR1	4	R1616S
453.329	1.999	1020361	REC_WORD	1.999	n/a	CLOUD	n/a	-999	3	[0, 0, 0]	n/a	catFR1	4	R1616S
455.328	0.369	1022360	REC_WORD_VV	0.369	n/a	<>	n/a	-999	3	[0, 0, 0]	n/a	catFR1	4	R1616S
455.697	3.559	1022729	REC_WORD	3.559	n/a	TREE	n/a	-999	3	[0, 0, 0]	n/a	catFR1	4	R1616S
459.256	0.975	1026288	REC_WORD_VV	0.975	n/a	<>	n/a	-999	3	[0, 0, 0]	n/a	catFR1	4	R1616S
460.231	0.985	1027263	REC_WORD_VV	0.985	n/a	<>	n/a	-999	3	[0, 0, 0]	n/a	catFR1	4	R1616S
461.216	2.17	1028248	REC_WORD_VV	2.17	n/a	<>	n/a	-999	3	[0, 0, 0]	n/a	catFR1	4	R1616S
463.386	1.808	1030418	REC_WORD	1.808	n/a	HURRICANE	Weather	3	3	[0, 0, 0]	n/a	catFR1	4	R1616S
465.194	1.035	1032226	REC_WORD_VV	1.035	n/a	<>	n/a	-999	3	[0, 0, 0]	n/a	catFR1	4	R1616S
466.229	0.326	1033261	REC_WORD_VV	0.326	n/a	<>	n/a	-999	3	[0, 0, 0]	n/a	catFR1	4	R1616S
466.555	5.109	1033587	REC_WORD_VV	5.109	n/a	<>	n/a	-999	3	[0, 0, 0]	n/a	catFR1	4	R1616S
471.664	2.755	1038696	REC_WORD_VV	2.755	n/a	<>	n/a	-999	3	[0, 0, 0]	n/a	catFR1	4	R1616S
474.419	5.03	1041459	REC_END	n/a	n/a	n/a	n/a	-999	3	[0, 0, 0]	n/a	catFR1	4	R1616S
479.449	10.349	1046489	COUNTDOWN_START	n/a	n/a	n/a	n/a	-999	3	[0, 0, 0]	n/a	catFR1	4	R1616S
489.798	0.0	1056828	COUNTDOWN_END	n/a	n/a	n/a	n/a	-999	3	[0, 0, 0]	n/a	catFR1	4	R1616S
489.798	1.884	1056828	ENCODING_START	n/a	n/a	n/a	n/a	-999	4	[0, 0, 0]	n/a	catFR1	4	R1616S
491.682	1.616	1058714	WORD	n/a	wordpools/wordpool_categorized_EN.txt	ELEPHANT	Zoo	1	4	[0, 0, 0]	n/a	catFR1	4	R1616S
493.298	0.934	1060335	WORD_OFF	n/a	n/a	ELEPHANT	Zoo	1	4	[0, 0, 0]	n/a	catFR1	4	R1616S
494.232	1.614	1061271	WORD	n/a	wordpools/wordpool_categorized_EN.txt	LION	Zoo	2	4	[0, 0, 0]	n/a	catFR1	4	R1616S
495.846	0.986	1062878	WORD_OFF	n/a	n/a	LION	Zoo	2	4	[0, 0, 0]	n/a	catFR1	4	R1616S
496.832	1.6	1063870	WORD	n/a	wordpools/wordpool_categorized_EN.txt	OCTOPUS	OceanAnimals	3	4	[0, 0, 0]	n/a	catFR1	4	R1616S
498.432	1.0	1065462	WORD_OFF	n/a	n/a	OCTOPUS	OceanAnimals	3	4	[0, 0, 0]	n/a	catFR1	4	R1616S
499.432	1.6	1066468	WORD	n/a	wordpools/wordpool_categorized_EN.txt	CRAB	OceanAnimals	4	4	[0, 0, 0]	n/a	catFR1	4	R1616S
501.032	0.767	1068061	WORD_OFF	n/a	n/a	CRAB	OceanAnimals	4	4	[0, 0, 0]	n/a	catFR1	4	R1616S
501.799	1.615	1068830	WORD	n/a	wordpools/wordpool_categorized_EN.txt	TABLET	Electronics	5	4	[0, 0, 0]	n/a	catFR1	4	R1616S
503.414	0.818	1070450	WORD_OFF	n/a	n/a	TABLET	Electronics	5	4	[0, 0, 0]	n/a	catFR1	4	R1616S
504.232	1.616	1071261	WORD	n/a	wordpools/wordpool_categorized_EN.txt	PHONE	Electronics	6	4	[0, 0, 0]	n/a	catFR1	4	R1616S
505.848	0.934	1072881	WORD_OFF	n/a	n/a	PHONE	Electronics	6	4	[0, 0, 0]	n/a	catFR1	4	R1616S
506.782	1.616	1073818	WORD	n/a	wordpools/wordpool_categorized_EN.txt	MONKEY	Zoo	7	4	[0, 0, 0]	n/a	catFR1	4	R1616S
508.398	0.884	1075438	WORD_OFF	n/a	n/a	MONKEY	Zoo	7	4	[0, 0, 0]	n/a	catFR1	4	R1616S
509.282	1.616	1076319	WORD	n/a	wordpools/wordpool_categorized_EN.txt	CHEETAH	Zoo	8	4	[0, 0, 0]	n/a	catFR1	4	R1616S
510.898	0.934	1077925	WORD_OFF	n/a	n/a	CHEETAH	Zoo	8	4	[0, 0, 0]	n/a	catFR1	4	R1616S
511.832	1.6	1078861	WORD	n/a	wordpools/wordpool_categorized_EN.txt	OYSTER	OceanAnimals	9	4	[0, 0, 0]	n/a	catFR1	4	R1616S
513.432	0.867	1080468	WORD_OFF	n/a	n/a	OYSTER	OceanAnimals	9	4	[0, 0, 0]	n/a	catFR1	4	R1616S
514.299	1.6	1081334	WORD	n/a	wordpools/wordpool_categorized_EN.txt	TURTLE	OceanAnimals	10	4	[0, 0, 0]	n/a	catFR1	4	R1616S
515.899	0.9	1082927	WORD_OFF	n/a	n/a	TURTLE	OceanAnimals	10	4	[0, 0, 0]	n/a	catFR1	4	R1616S
516.799	1.616	1083835	WORD	n/a	wordpools/wordpool_categorized_EN.txt	HEADPHONES	Electronics	11	4	[0, 0, 0]	n/a	catFR1	4	R1616S
518.415	0.884	1085442	WORD_OFF	n/a	n/a	HEADPHONES	Electronics	11	4	[0, 0, 0]	n/a	catFR1	4	R1616S
519.299	1.616	1086336	WORD	n/a	wordpools/wordpool_categorized_EN.txt	CALCULATOR	Electronics	12	4	[0, 0, 0]	n/a	catFR1	4	R1616S
520.915	0.001	1087943	WORD_OFF	n/a	n/a	CALCULATOR	Electronics	12	4	[0, 0, 0]	n/a	catFR1	4	R1616S
520.916	0.0	1087943	ENCODING_END	n/a	n/a	n/a	n/a	-999	4	[0, 0, 0]	n/a	catFR1	4	R1616S
520.915	0.002	1087944	PROB	0.002	n/a	n/a	n/a	-999	4	[2, 2, 3]	7	catFR1	4	R1616S
520.917	0.0	1087946	START	n/a	n/a	n/a	n/a	-999	4	[-999, -999, -999]	n/a	catFR1	4	R1616S
520.917	6.081	1087957	DISTRACT_START	n/a	n/a	n/a	n/a	-999	4	[0, 0, 0]	n/a	catFR1	4	R1616S
526.998	4.0	1094027	PROB	4.0	n/a	n/a	n/a	-999	4	[1, 3, 7]	11	catFR1	4	R1616S
530.998	4.434	1098027	PROB	4.434	n/a	n/a	n/a	-999	4	[8, 3, 8]	19	catFR1	4	R1616S
535.432	4.583	1102461	PROB	4.583	n/a	n/a	n/a	-999	4	[7, 4, 2]	13	catFR1	4	R1616S
540.015	7.75	1107043	PROB	7.75	n/a	n/a	n/a	-999	4	[7, 4, 7]	18	catFR1	4	R1616S
547.765	0.0	1114793	STOP	n/a	n/a	n/a	n/a	-999	4	[-999, -999, -999]	n/a	catFR1	4	R1616S
547.765	1.217	1114797	DISTRACT_END	n/a	n/a	n/a	n/a	-999	4	[0, 0, 0]	n/a	catFR1	4	R1616S
548.982	1.337	1116012	REC_START	n/a	n/a	n/a	n/a	-999	4	[0, 0, 0]	n/a	catFR1	4	R1616S
550.319	1.764	1117347	REC_WORD	1.764	n/a	OCTOPUS	OceanAnimals	3	4	[0, 0, 0]	n/a	catFR1	4	R1616S
552.083	0.625	1119111	REC_WORD_VV	0.625	n/a	<>	n/a	-999	4	[0, 0, 0]	n/a	catFR1	4	R1616S
552.708	0.685	1119736	REC_WORD	0.685	n/a	LION	Zoo	2	4	[0, 0, 0]	n/a	catFR1	4	R1616S
553.393	3.615	1120421	REC_WORD	3.615	n/a	ELEPHANT	Zoo	1	4	[0, 0, 0]	n/a	catFR1	4	R1616S
557.008	1.0	1124036	REC_WORD_VV	1.0	n/a	<>	n/a	-999	4	[0, 0, 0]	n/a	catFR1	4	R1616S
558.008	1.0	1125035	REC_WORD_VV	1.0	n/a	<>	n/a	-999	4	[0, 0, 0]	n/a	catFR1	4	R1616S
559.008	2.794	1126035	REC_WORD_VV	2.794	n/a	<>	n/a	-999	4	[0, 0, 0]	n/a	catFR1	4	R1616S
561.802	4.4	1128829	REC_WORD	4.4	n/a	CHEETAH	Zoo	8	4	[0, 0, 0]	n/a	catFR1	4	R1616S
566.202	0.459	1133229	REC_WORD	0.459	n/a	CHEETAH	Zoo	8	4	[0, 0, 0]	n/a	catFR1	4	R1616S
566.661	0.354	1133688	REC_WORD	0.354	n/a	LION	Zoo	2	4	[0, 0, 0]	n/a	catFR1	4	R1616S
567.015	0.672	1134042	REC_WORD	0.672	n/a	ELEPHANT	Zoo	1	4	[0, 0, 0]	n/a	catFR1	4	R1616S
567.687	2.807	1134714	REC_WORD	2.807	n/a	OCTOPUS	OceanAnimals	3	4	[0, 0, 0]	n/a	catFR1	4	R1616S
570.494	1.0	1137521	REC_WORD_VV	1.0	n/a	<>	n/a	-999	4	[0, 0, 0]	n/a	catFR1	4	R1616S
571.494	1.0	1138521	REC_WORD_VV	1.0	n/a	<>	n/a	-999	4	[0, 0, 0]	n/a	catFR1	4	R1616S
572.494	2.878	1139521	REC_WORD_VV	2.878	n/a	<>	n/a	-999	4	[0, 0, 0]	n/a	catFR1	4	R1616S
575.372	2.784	1142399	REC_WORD	2.784	n/a	CRAB	OceanAnimals	4	4	[0, 0, 0]	n/a	catFR1	4	R1616S
578.156	2.049	1145183	REC_WORD_VV	2.049	n/a	<>	n/a	-999	4	[0, 0, 0]	n/a	catFR1	4	R1616S
580.205	2.659	1147239	REC_END	n/a	n/a	n/a	n/a	-999	4	[0, 0, 0]	n/a	catFR1	4	R1616S
582.864	10.35	1149894	COUNTDOWN_START	n/a	n/a	n/a	n/a	-999	4	[0, 0, 0]	n/a	catFR1	4	R1616S
593.214	0.001	1160247	COUNTDOWN_END	n/a	n/a	n/a	n/a	-999	4	[0, 0, 0]	n/a	catFR1	4	R1616S
593.215	2.016	1160247	ENCODING_START	n/a	n/a	n/a	n/a	-999	5	[0, 0, 0]	n/a	catFR1	4	R1616S
595.231	1.601	1162259	WORD	n/a	wordpools/wordpool_categorized_EN.txt	ORGAN	Instruments	1	5	[0, 0, 0]	n/a	catFR1	4	R1616S
596.832	0.783	1163866	WORD_OFF	n/a	n/a	ORGAN	Instruments	1	5	[0, 0, 0]	n/a	catFR1	4	R1616S
597.615	1.6	1164648	WORD	n/a	wordpools/wordpool_categorized_EN.txt	PIANO	Instruments	2	5	[0, 0, 0]	n/a	catFR1	4	R1616S
599.215	0.967	1166241	WORD_OFF	n/a	n/a	PIANO	Instruments	2	5	[0, 0, 0]	n/a	catFR1	4	R1616S
600.182	1.6	1167205	WORD	n/a	wordpools/wordpool_categorized_EN.txt	MARBLES	Toys	3	5	[0, 0, 0]	n/a	catFR1	4	R1616S
601.782	0.916	1168812	WORD_OFF	n/a	n/a	MARBLES	Toys	3	5	[0, 0, 0]	n/a	catFR1	4	R1616S
602.698	1.602	1169720	WORD	n/a	wordpools/wordpool_categorized_EN.txt	BASEBALL	Toys	4	5	[0, 0, 0]	n/a	catFR1	4	R1616S
604.3	0.899	1171327	WORD_OFF	n/a	n/a	BASEBALL	Toys	4	5	[0, 0, 0]	n/a	catFR1	4	R1616S
605.199	1.6	1172221	WORD	n/a	wordpools/wordpool_categorized_EN.txt	SPRUCE	Trees	5	5	[0, 0, 0]	n/a	catFR1	4	R1616S
606.799	0.816	1173842	WORD_OFF	n/a	n/a	SPRUCE	Trees	5	5	[0, 0, 0]	n/a	catFR1	4	R1616S
607.615	1.616	1174638	WORD	n/a	wordpools/wordpool_categorized_EN.txt	ELM	Trees	6	5	[0, 0, 0]	n/a	catFR1	4	R1616S
609.231	0.9	1176259	WORD_OFF	n/a	n/a	ELM	Trees	6	5	[0, 0, 0]	n/a	catFR1	4	R1616S
610.131	1.601	1177153	WORD	n/a	wordpools/wordpool_categorized_EN.txt	BALL	Toys	7	5	[0, 0, 0]	n/a	catFR1	4	R1616S
611.732	0.916	1178760	WORD_OFF	n/a	n/a	BALL	Toys	7	5	[0, 0, 0]	n/a	catFR1	4	R1616S
612.648	1.6	1179682	WORD	n/a	wordpools/wordpool_categorized_EN.txt	BARBIE	Toys	8	5	[0, 0, 0]	n/a	catFR1	4	R1616S
614.248	0.767	1181275	WORD_OFF	n/a	n/a	BARBIE	Toys	8	5	[0, 0, 0]	n/a	catFR1	4	R1616S
615.015	1.617	1182043	WORD	n/a	wordpools/wordpool_categorized_EN.txt	DRUM	Instruments	9	5	[0, 0, 0]	n/a	catFR1	4	R1616S
616.632	0.783	1183664	WORD_OFF	n/a	n/a	DRUM	Instruments	9	5	[0, 0, 0]	n/a	catFR1	4	R1616S
617.415	1.6	1184446	WORD	n/a	wordpools/wordpool_categorized_EN.txt	TUBA	Instruments	10	5	[0, 0, 0]	n/a	catFR1	4	R1616S
619.015	0.867	1186039	WORD_OFF	n/a	n/a	TUBA	Instruments	10	5	[0, 0, 0]	n/a	catFR1	4	R1616S
619.882	1.6	1186905	WORD	n/a	wordpools/wordpool_categorized_EN.txt	WALNUT	Trees	11	5	[0, 0, 0]	n/a	catFR1	4	R1616S
621.482	0.8	1188512	WORD_OFF	n/a	n/a	WALNUT	Trees	11	5	[0, 0, 0]	n/a	catFR1	4	R1616S
622.282	1.601	1189309	WORD	n/a	wordpools/wordpool_categorized_EN.txt	CEDAR	Trees	12	5	[0, 0, 0]	n/a	catFR1	4	R1616S
623.883	0.001	1190907	PROB	0.001	n/a	n/a	n/a	-999	5	[5, 7, 7]	19	catFR1	4	R1616S
623.884	0.0	1190908	START	n/a	n/a	n/a	n/a	-999	5	[-999, -999, -999]	n/a	catFR1	4	R1616S
623.882	0.002	1190915	WORD_OFF	n/a	n/a	CEDAR	Trees	12	5	[0, 0, 0]	n/a	catFR1	4	R1616S
623.884	0.0	1190915	ENCODING_END	n/a	n/a	n/a	n/a	-999	5	[0, 0, 0]	n/a	catFR1	4	R1616S
623.884	4.364	1190915	DISTRACT_START	n/a	n/a	n/a	n/a	-999	5	[0, 0, 0]	n/a	catFR1	4	R1616S
628.248	3.534	1195272	PROB	3.534	n/a	n/a	n/a	-999	5	[1, 3, 1]	5	catFR1	4	R1616S
631.782	6.517	1198806	PROB	6.517	n/a	n/a	n/a	-999	5	[7, 1, 4]	12	catFR1	4	R1616S
638.299	3.983	1205323	PROB	3.983	n/a	n/a	n/a	-999	5	[5, 5, 5]	15	catFR1	4	R1616S
642.282	5.967	1209305	PROB	5.967	n/a	n/a	n/a	-999	5	[6, 1, 2]	9	catFR1	4	R1616S
648.249	0.0	1215268	DISTRACT_END	n/a	n/a	n/a	n/a	-999	5	[0, 0, 0]	n/a	catFR1	4	R1616S
648.249	1.15	1215272	STOP	n/a	n/a	n/a	n/a	-999	5	[-999, -999, -999]	n/a	catFR1	4	R1616S
649.399	1.384	1216428	REC_START	n/a	n/a	n/a	n/a	-999	5	[0, 0, 0]	n/a	catFR1	4	R1616S
650.783	2.29	1217806	REC_WORD	2.29	n/a	MARBLES	Toys	3	5	[0, 0, 0]	n/a	catFR1	4	R1616S
653.073	2.266	1220096	REC_WORD	2.266	n/a	BARBIE	Toys	8	5	[0, 0, 0]	n/a	catFR1	4	R1616S
655.339	1.63	1222362	REC_WORD	1.63	n/a	DOLLHOUSE	n/a	-999	5	[0, 0, 0]	n/a	catFR1	4	R1616S
656.969	1.042	1223992	REC_WORD_VV	1.042	n/a	<>	n/a	-999	5	[0, 0, 0]	n/a	catFR1	4	R1616S
658.011	3.516	1225034	REC_WORD	3.516	n/a	DOLL	n/a	-999	5	[0, 0, 0]	n/a	catFR1	4	R1616S
661.527	1.0	1228550	REC_WORD_VV	1.0	n/a	<>	n/a	-999	5	[0, 0, 0]	n/a	catFR1	4	R1616S
662.527	1.0	1229549	REC_WORD_VV	1.0	n/a	<>	n/a	-999	5	[0, 0, 0]	n/a	catFR1	4	R1616S
663.527	1.0	1230549	REC_WORD_VV	1.0	n/a	<>	n/a	-999	5	[0, 0, 0]	n/a	catFR1	4	R1616S
664.527	1.0	1231549	REC_WORD_VV	1.0	n/a	<>	n/a	-999	5	[0, 0, 0]	n/a	catFR1	4	R1616S
665.527	1.0	1232549	REC_WORD_VV	1.0	n/a	<>	n/a	-999	5	[0, 0, 0]	n/a	catFR1	4	R1616S
666.527	1.0	1233549	REC_WORD_VV	1.0	n/a	<>	n/a	-999	5	[0, 0, 0]	n/a	catFR1	4	R1616S
667.527	4.702	1234549	REC_WORD_VV	4.702	n/a	<>	n/a	-999	5	[0, 0, 0]	n/a	catFR1	4	R1616S
672.229	1.0	1239251	REC_WORD_VV	1.0	n/a	<>	n/a	-999	5	[0, 0, 0]	n/a	catFR1	4	R1616S
673.229	1.0	1240251	REC_WORD_VV	1.0	n/a	<>	n/a	-999	5	[0, 0, 0]	n/a	catFR1	4	R1616S
674.229	1.0	1241251	REC_WORD_VV	1.0	n/a	<>	n/a	-999	5	[0, 0, 0]	n/a	catFR1	4	R1616S
675.229	1.0	1242251	REC_WORD_VV	1.0	n/a	<>	n/a	-999	5	[0, 0, 0]	n/a	catFR1	4	R1616S
676.229	1.0	1243251	REC_WORD_VV	1.0	n/a	<>	n/a	-999	5	[0, 0, 0]	n/a	catFR1	4	R1616S
677.229	1.0	1244251	REC_WORD_VV	1.0	n/a	<>	n/a	-999	5	[0, 0, 0]	n/a	catFR1	4	R1616S
678.229	1.0	1245251	REC_WORD_VV	1.0	n/a	<>	n/a	-999	5	[0, 0, 0]	n/a	catFR1	4	R1616S
679.229	1.398	1246251	REC_WORD_VV	1.398	n/a	<>	n/a	-999	5	[0, 0, 0]	n/a	catFR1	4	R1616S
680.627	1.888	1247655	REC_END	n/a	n/a	n/a	n/a	-999	5	[0, 0, 0]	n/a	catFR1	4	R1616S
682.515	10.35	1249541	COUNTDOWN_START	n/a	n/a	n/a	n/a	-999	5	[0, 0, 0]	n/a	catFR1	4	R1616S
692.865	0.0	1259894	COUNTDOWN_END	n/a	n/a	n/a	n/a	-999	5	[0, 0, 0]	n/a	catFR1	4	R1616S
692.865	2.135	1259894	ENCODING_START	n/a	n/a	n/a	n/a	-999	6	[0, 0, 0]	n/a	catFR1	4	R1616S
695.0	1.614	1262018	WORD	n/a	wordpools/wordpool_categorized_EN.txt	DRIZZLE	Weather	1	6	[0, 0, 0]	n/a	catFR1	4	R1616S
696.614	0.85	1263639	WORD_OFF	n/a	n/a	DRIZZLE	Weather	1	6	[0, 0, 0]	n/a	catFR1	4	R1616S
697.464	1.6	1264491	WORD	n/a	wordpools/wordpool_categorized_EN.txt	TORNADO	Weather	2	6	[0, 0, 0]	n/a	catFR1	4	R1616S
699.064	0.967	1266084	WORD_OFF	n/a	n/a	TORNADO	Weather	2	6	[0, 0, 0]	n/a	catFR1	4	R1616S
700.031	1.617	1267048	WORD	n/a	wordpools/wordpool_categorized_EN.txt	CAR	Vehicles	3	6	[0, 0, 0]	n/a	catFR1	4	R1616S
701.648	0.867	1268669	WORD_OFF	n/a	n/a	CAR	Vehicles	3	6	[0, 0, 0]	n/a	catFR1	4	R1616S
702.515	1.6	1269535	WORD	n/a	wordpools/wordpool_categorized_EN.txt	SCOOTER	Vehicles	4	6	[0, 0, 0]	n/a	catFR1	4	R1616S
704.115	0.95	1271142	WORD_OFF	n/a	n/a	SCOOTER	Vehicles	4	6	[0, 0, 0]	n/a	catFR1	4	R1616S
705.065	1.6	1272092	WORD	n/a	wordpools/wordpool_categorized_EN.txt	MICROWAVE	Electronics	5	6	[0, 0, 0]	n/a	catFR1	4	R1616S
706.665	0.832	1273684	WORD_OFF	n/a	n/a	MICROWAVE	Electronics	5	6	[0, 0, 0]	n/a	catFR1	4	R1616S
707.497	1.6	1274523	WORD	n/a	wordpools/wordpool_categorized_EN.txt	PRINTER	Electronics	6	6	[0, 0, 0]	n/a	catFR1	4	R1616S
709.097	0.818	1276116	WORD_OFF	n/a	n/a	PRINTER	Electronics	6	6	[0, 0, 0]	n/a	catFR1	4	R1616S
709.915	1.616	1276940	WORD	n/a	wordpools/wordpool_categorized_EN.txt	SNOW	Weather	7	6	[0, 0, 0]	n/a	catFR1	4	R1616S
711.531	0.851	1278561	WORD_OFF	n/a	n/a	SNOW	Weather	7	6	[0, 0, 0]	n/a	catFR1	4	R1616S
712.382	1.618	1279399	WORD	n/a	wordpools/wordpool_categorized_EN.txt	WIND	Weather	8	6	[0, 0, 0]	n/a	catFR1	4	R1616S
714.0	0.899	1281020	WORD_OFF	n/a	n/a	WIND	Weather	8	6	[0, 0, 0]	n/a	catFR1	4	R1616S
714.899	1.6	1281928	WORD	n/a	wordpools/wordpool_categorized_EN.txt	BIKE	Vehicles	9	6	[0, 0, 0]	n/a	catFR1	4	R1616S
716.499	0.966	1283521	WORD_OFF	n/a	n/a	BIKE	Vehicles	9	6	[0, 0, 0]	n/a	catFR1	4	R1616S
717.465	1.6	1284485	WORD	n/a	wordpools/wordpool_categorized_EN.txt	PLANE	Vehicles	10	6	[0, 0, 0]	n/a	catFR1	4	R1616S
719.065	0.999	1286091	WORD_OFF	n/a	n/a	PLANE	Vehicles	10	6	[0, 0, 0]	n/a	catFR1	4	R1616S
720.064	1.601	1287083	WORD	n/a	wordpools/wordpool_categorized_EN.txt	STEREO	Electronics	11	6	[0, 0, 0]	n/a	catFR1	4	R1616S
721.665	0.783	1288690	WORD_OFF	n/a	n/a	STEREO	Electronics	11	6	[0, 0, 0]	n/a	catFR1	4	R1616S
722.448	1.601	1289473	WORD	n/a	wordpools/wordpool_categorized_EN.txt	SPEAKER	Electronics	12	6	[0, 0, 0]	n/a	catFR1	4	R1616S
724.049	0.0	1291065	WORD_OFF	n/a	n/a	SPEAKER	Electronics	12	6	[0, 0, 0]	n/a	catFR1	4	R1616S
724.049	0.001	1291069	PROB	0.001	n/a	n/a	n/a	-999	6	[8, 6, 2]	16	catFR1	4	R1616S
724.05	0.0	1291070	START	n/a	n/a	n/a	n/a	-999	6	[-999, -999, -999]	n/a	catFR1	4	R1616S
724.05	0.0	1291079	ENCODING_END	n/a	n/a	n/a	n/a	-999	6	[0, 0, 0]	n/a	catFR1	4	R1616S
724.05	9.999	1291079	DISTRACT_START	n/a	n/a	n/a	n/a	-999	6	[0, 0, 0]	n/a	catFR1	4	R1616S
734.049	3.983	1301068	PROB	3.983	n/a	n/a	n/a	-999	6	[2, 7, 2]	11	catFR1	4	R1616S
738.032	3.501	1305051	PROB	3.501	n/a	n/a	n/a	-999	6	[2, 1, 1]	4	catFR1	4	R1616S
741.533	6.432	1308552	PROB	6.432	n/a	n/a	n/a	-999	6	[1, 2, 4]	7	catFR1	4	R1616S
747.965	0.0	1314983	STOP	n/a	n/a	n/a	n/a	-999	6	[-999, -999, -999]	n/a	catFR1	4	R1616S
747.965	1.049	1314985	DISTRACT_END	n/a	n/a	n/a	n/a	-999	6	[0, 0, 0]	n/a	catFR1	4	R1616S
749.014	1.78	1316033	REC_START	n/a	n/a	n/a	n/a	-999	6	[0, 0, 0]	n/a	catFR1	4	R1616S
750.794	1.1	1317812	REC_WORD_VV	1.1	n/a	<>	n/a	-999	6	[0, 0, 0]	n/a	catFR1	4	R1616S
751.894	1.145	1318912	REC_WORD_VV	1.145	n/a	<>	n/a	-999	6	[0, 0, 0]	n/a	catFR1	4	R1616S
753.039	2.255	1320057	REC_WORD_VV	2.255	n/a	<>	n/a	-999	6	[0, 0, 0]	n/a	catFR1	4	R1616S
755.294	0.726	1322312	REC_WORD	0.726	n/a	PLANE	Vehicles	10	6	[0, 0, 0]	n/a	catFR1	4	R1616S
756.02	0.829	1323038	REC_WORD	0.829	n/a	MARBLES	Toys	-999	6	[0, 0, 0]	n/a	catFR1	4	R1616S
756.849	1.986	1323867	REC_WORD	1.986	n/a	TOYS	n/a	-999	6	[0, 0, 0]	n/a	catFR1	4	R1616S
758.835	0.775	1325853	REC_WORD_VV	0.775	n/a	<>	n/a	-999	6	[0, 0, 0]	n/a	catFR1	4	R1616S
759.61	0.78	1326628	REC_WORD	0.78	n/a	CAR	Vehicles	3	6	[0, 0, 0]	n/a	catFR1	4	R1616S
760.39	1.902	1327408	REC_WORD	1.902	n/a	BIKE	Vehicles	9	6	[0, 0, 0]	n/a	catFR1	4	R1616S
762.292	1.0	1329310	REC_WORD_VV	1.0	n/a	<>	n/a	-999	6	[0, 0, 0]	n/a	catFR1	4	R1616S
763.292	1.0	1330310	REC_WORD_VV	1.0	n/a	<>	n/a	-999	6	[0, 0, 0]	n/a	catFR1	4	R1616S
764.292	1.591	1331310	REC_WORD_VV	1.591	n/a	<>	n/a	-999	6	[0, 0, 0]	n/a	catFR1	4	R1616S
765.883	0.925	1332901	REC_WORD_VV	0.925	n/a	<>	n/a	-999	6	[0, 0, 0]	n/a	catFR1	4	R1616S
766.808	2.735	1333825	REC_WORD	2.735	n/a	TORNADO	Weather	2	6	[0, 0, 0]	n/a	catFR1	4	R1616S
769.543	1.444	1336560	REC_WORD	1.444	n/a	CAR	Vehicles	3	6	[0, 0, 0]	n/a	catFR1	4	R1616S
770.987	9.25	1338004	REC_WORD	9.25	n/a	HURRICANE	Weather	-999	6	[0, 0, 0]	n/a	catFR1	4	R1616S
780.237	47.745	1347260	REC_END	n/a	n/a	n/a	n/a	-999	6	[0, 0, 0]	n/a	catFR1	4	R1616S
827.982	10.349	1395002	COUNTDOWN_START	n/a	n/a	n/a	n/a	-999	6	[0, 0, 0]	n/a	catFR1	4	R1616S
838.331	0.0	1405341	COUNTDOWN_END	n/a	n/a	n/a	n/a	-999	6	[0, 0, 0]	n/a	catFR1	4	R1616S
838.331	1.885	1405355	ENCODING_START	n/a	n/a	n/a	n/a	-999	7	[0, 0, 0]	n/a	catFR1	4	R1616S
840.216	1.599	1407227	WORD	n/a	wordpools/wordpool_categorized_EN.txt	DOLPHIN	OceanAnimals	1	7	[0, 0, 0]	n/a	catFR1	4	R1616S
841.815	0.934	1408834	WORD_OFF	n/a	n/a	DOLPHIN	OceanAnimals	1	7	[0, 0, 0]	n/a	catFR1	4	R1616S
842.749	1.6	1409770	WORD	n/a	wordpools/wordpool_categorized_EN.txt	FISH	OceanAnimals	2	7	[0, 0, 0]	n/a	catFR1	4	R1616S
844.349	0.833	1411363	WORD_OFF	n/a	n/a	FISH	OceanAnimals	2	7	[0, 0, 0]	n/a	catFR1	4	R1616S
845.182	1.616	1412201	WORD	n/a	wordpools/wordpool_categorized_EN.txt	ORANGUTAN	Zoo	3	7	[0, 0, 0]	n/a	catFR1	4	R1616S
846.798	0.95	1413808	WORD_OFF	n/a	n/a	ORANGUTAN	Zoo	3	7	[0, 0, 0]	n/a	catFR1	4	R1616S
847.748	1.601	1414758	WORD	n/a	wordpools/wordpool_categorized_EN.txt	BEAR	Zoo	4	7	[0, 0, 0]	n/a	catFR1	4	R1616S
849.349	0.915	1416365	WORD_OFF	n/a	n/a	BEAR	Zoo	4	7	[0, 0, 0]	n/a	catFR1	4	R1616S
850.264	1.601	1417287	WORD	n/a	wordpools/wordpool_categorized_EN.txt	RIVER	Landscapes	5	7	[0, 0, 0]	n/a	catFR1	4	R1616S
851.865	0.767	1418880	WORD_OFF	n/a	n/a	RIVER	Landscapes	5	7	[0, 0, 0]	n/a	catFR1	4	R1616S
852.632	1.617	1419648	WORD	n/a	wordpools/wordpool_categorized_EN.txt	HILLS	Landscapes	6	7	[0, 0, 0]	n/a	catFR1	4	R1616S
854.249	0.783	1421269	WORD_OFF	n/a	n/a	HILLS	Landscapes	6	7	[0, 0, 0]	n/a	catFR1	4	R1616S
855.032	1.616	1422051	WORD	n/a	wordpools/wordpool_categorized_EN.txt	SHRIMP	OceanAnimals	7	7	[0, 0, 0]	n/a	catFR1	4	R1616S
856.648	1.0	1423658	WORD_OFF	n/a	n/a	SHRIMP	OceanAnimals	7	7	[0, 0, 0]	n/a	catFR1	4	R1616S
857.648	1.6	1424678	WORD	n/a	wordpools/wordpool_categorized_EN.txt	PLANKTON	OceanAnimals	8	7	[0, 0, 0]	n/a	catFR1	4	R1616S
859.248	0.969	1426271	WORD_OFF	n/a	n/a	PLANKTON	OceanAnimals	8	7	[0, 0, 0]	n/a	catFR1	4	R1616S
860.217	1.614	1427235	WORD	n/a	wordpools/wordpool_categorized_EN.txt	ZEBRA	Zoo	9	7	[0, 0, 0]	n/a	catFR1	4	R1616S
861.831	0.834	1428841	WORD_OFF	n/a	n/a	ZEBRA	Zoo	9	7	[0, 0, 0]	n/a	catFR1	4	R1616S
862.665	1.6	1429680	WORD	n/a	wordpools/wordpool_categorized_EN.txt	TIGER	Zoo	10	7	[0, 0, 0]	n/a	catFR1	4	R1616S
864.265	0.867	1431287	WORD_OFF	n/a	n/a	TIGER	Zoo	10	7	[0, 0, 0]	n/a	catFR1	4	R1616S
865.132	1.6	1432153	WORD	n/a	wordpools/wordpool_categorized_EN.txt	BEACH	Landscapes	11	7	[0, 0, 0]	n/a	catFR1	4	R1616S
866.732	0.9	1433746	WORD_OFF	n/a	n/a	BEACH	Landscapes	11	7	[0, 0, 0]	n/a	catFR1	4	R1616S
867.632	1.6	1434654	WORD	n/a	wordpools/wordpool_categorized_EN.txt	OCEAN	Landscapes	12	7	[0, 0, 0]	n/a	catFR1	4	R1616S
869.232	0.001	1436245	PROB	0.001	n/a	n/a	n/a	-999	7	[6, 8, 6]	20	catFR1	4	R1616S
869.233	0.0	1436246	START	n/a	n/a	n/a	n/a	-999	7	[-999, -999, -999]	n/a	catFR1	4	R1616S
869.232	0.001	1436247	WORD_OFF	n/a	n/a	OCEAN	Landscapes	12	7	[0, 0, 0]	n/a	catFR1	4	R1616S
869.233	0.0	1436247	ENCODING_END	n/a	n/a	n/a	n/a	-999	7	[0, 0, 0]	n/a	catFR1	4	R1616S
869.233	6.115	1436247	DISTRACT_START	n/a	n/a	n/a	n/a	-999	7	[0, 0, 0]	n/a	catFR1	4	R1616S
875.348	5.335	1442360	PROB	5.335	n/a	n/a	n/a	-999	7	[7, 4, 8]	19	catFR1	4	R1616S
880.683	6.216	1447695	PROB	6.216	n/a	n/a	n/a	-999	7	[5, 3, 2]	10	catFR1	4	R1616S
886.899	7.199	1453911	PROB	7.199	n/a	n/a	n/a	-999	7	[4, 6, 5]	15	catFR1	4	R1616S
894.098	0.0	1461109	STOP	n/a	n/a	n/a	n/a	-999	7	[-999, -999, -999]	n/a	catFR1	4	R1616S
894.098	1.25	1461116	DISTRACT_END	n/a	n/a	n/a	n/a	-999	7	[0, 0, 0]	n/a	catFR1	4	R1616S
895.348	1.181	1462360	REC_START	n/a	n/a	n/a	n/a	-999	7	[0, 0, 0]	n/a	catFR1	4	R1616S
896.529	0.606	1463540	REC_WORD_VV	0.606	n/a	<>	n/a	-999	7	[0, 0, 0]	n/a	catFR1	4	R1616S
897.135	0.592	1464146	REC_WORD	0.592	n/a	FISH	OceanAnimals	2	7	[0, 0, 0]	n/a	catFR1	4	R1616S
897.727	0.976	1464738	REC_WORD	0.976	n/a	PLANKTON	OceanAnimals	8	7	[0, 0, 0]	n/a	catFR1	4	R1616S
898.703	4.273	1465714	REC_WORD	4.273	n/a	SHRIMP	OceanAnimals	7	7	[0, 0, 0]	n/a	catFR1	4	R1616S
902.976	5.21	1469987	REC_WORD_VV	5.21	n/a	<>	n/a	-999	7	[0, 0, 0]	n/a	catFR1	4	R1616S
908.186	0.802	1475197	REC_WORD	0.802	n/a	SHRIMP	OceanAnimals	7	7	[0, 0, 0]	n/a	catFR1	4	R1616S
908.988	1.358	1475999	REC_WORD_VV	1.358	n/a	<>	n/a	-999	7	[0, 0, 0]	n/a	catFR1	4	R1616S
910.346	0.782	1477357	REC_WORD	0.782	n/a	PLANKTON	OceanAnimals	8	7	[0, 0, 0]	n/a	catFR1	4	R1616S
911.128	6.483	1478139	REC_WORD	6.483	n/a	FISH	OceanAnimals	2	7	[0, 0, 0]	n/a	catFR1	4	R1616S
917.611	8.974	1484621	REC_WORD_VV	8.974	n/a	<>	n/a	-999	7	[0, 0, 0]	n/a	catFR1	4	R1616S
926.585	5.413	1493601	REC_END	n/a	n/a	n/a	n/a	-999	7	[0, 0, 0]	n/a	catFR1	4	R1616S
931.998	10.351	1499008	COUNTDOWN_START	n/a	n/a	n/a	n/a	-999	7	[0, 0, 0]	n/a	catFR1	4	R1616S
942.349	0.0	1509361	COUNTDOWN_END	n/a	n/a	n/a	n/a	-999	7	[0, 0, 0]	n/a	catFR1	4	R1616S
942.349	2.165	1509361	ENCODING_START	n/a	n/a	n/a	n/a	-999	8	[0, 0, 0]	n/a	catFR1	4	R1616S
944.514	1.616	1511527	WORD	n/a	wordpools/wordpool_categorized_EN.txt	LEMONADE	Beverages	1	8	[0, 0, 0]	n/a	catFR1	4	R1616S
946.13	0.901	1513147	WORD_OFF	n/a	n/a	LEMONADE	Beverages	1	8	[0, 0, 0]	n/a	catFR1	4	R1616S
947.031	1.6	1514042	WORD	n/a	wordpools/wordpool_categorized_EN.txt	SODA	Beverages	2	8	[0, 0, 0]	n/a	catFR1	4	R1616S
948.631	0.95	1515648	WORD_OFF	n/a	n/a	SODA	Beverages	2	8	[0, 0, 0]	n/a	catFR1	4	R1616S
949.581	1.601	1516598	WORD	n/a	wordpools/wordpool_categorized_EN.txt	SPANDEX	Fabric	3	8	[0, 0, 0]	n/a	catFR1	4	R1616S
951.182	0.783	1518191	WORD_OFF	n/a	n/a	SPANDEX	Fabric	3	8	[0, 0, 0]	n/a	catFR1	4	R1616S
951.965	1.6	1518974	WORD	n/a	wordpools/wordpool_categorized_EN.txt	NYLON	Fabric	4	8	[0, 0, 0]	n/a	catFR1	4	R1616S
953.565	0.784	1520580	WORD_OFF	n/a	n/a	NYLON	Fabric	4	8	[0, 0, 0]	n/a	catFR1	4	R1616S
954.349	1.616	1521363	WORD	n/a	wordpools/wordpool_categorized_EN.txt	HAND	BodyParts	5	8	[0, 0, 0]	n/a	catFR1	4	R1616S
955.965	0.8	1522970	WORD_OFF	n/a	n/a	HAND	BodyParts	5	8	[0, 0, 0]	n/a	catFR1	4	R1616S
956.765	1.6	1523780	WORD	n/a	wordpools/wordpool_categorized_EN.txt	FOOT	BodyParts	6	8	[0, 0, 0]	n/a	catFR1	4	R1616S
958.365	0.767	1525373	WORD_OFF	n/a	n/a	FOOT	BodyParts	6	8	[0, 0, 0]	n/a	catFR1	4	R1616S
959.132	1.6	1526141	WORD	n/a	wordpools/wordpool_categorized_EN.txt	SILK	Fabric	7	8	[0, 0, 0]	n/a	catFR1	4	R1616S
960.732	0.85	1527748	WORD_OFF	n/a	n/a	SILK	Fabric	7	8	[0, 0, 0]	n/a	catFR1	4	R1616S
961.582	1.616	1528586	WORD	n/a	wordpools/wordpool_categorized_EN.txt	WOOL	Fabric	8	8	[0, 0, 0]	n/a	catFR1	4	R1616S
963.198	0.768	1530207	WORD_OFF	n/a	n/a	WOOL	Fabric	8	8	[0, 0, 0]	n/a	catFR1	4	R1616S
963.966	1.615	1530975	WORD	n/a	wordpools/wordpool_categorized_EN.txt	WATER	Beverages	9	8	[0, 0, 0]	n/a	catFR1	4	R1616S
965.581	0.968	1532596	WORD_OFF	n/a	n/a	WATER	Beverages	9	8	[0, 0, 0]	n/a	catFR1	4	R1616S
966.549	1.599	1533560	WORD	n/a	wordpools/wordpool_categorized_EN.txt	CIDER	Beverages	10	8	[0, 0, 0]	n/a	catFR1	4	R1616S
968.148	0.834	1535153	WORD_OFF	n/a	n/a	CIDER	Beverages	10	8	[0, 0, 0]	n/a	catFR1	4	R1616S
968.982	1.6	1535991	WORD	n/a	wordpools/wordpool_categorized_EN.txt	HEAD	BodyParts	11	8	[0, 0, 0]	n/a	catFR1	4	R1616S
970.582	0.9	1537598	WORD_OFF	n/a	n/a	HEAD	BodyParts	11	8	[0, 0, 0]	n/a	catFR1	4	R1616S
971.482	1.601	1538492	WORD	n/a	wordpools/wordpool_categorized_EN.txt	EYE	BodyParts	12	8	[0, 0, 0]	n/a	catFR1	4	R1616S
973.083	0.001	1540091	PROB	0.001	n/a	n/a	n/a	-999	8	[1, 8, 5]	14	catFR1	4	R1616S
973.084	0.0	1540092	START	n/a	n/a	n/a	n/a	-999	8	[-999, -999, -999]	n/a	catFR1	4	R1616S
973.082	0.002	1540099	WORD_OFF	n/a	n/a	EYE	BodyParts	12	8	[0, 0, 0]	n/a	catFR1	4	R1616S
973.084	0.0	1540099	ENCODING_END	n/a	n/a	n/a	n/a	-999	8	[0, 0, 0]	n/a	catFR1	4	R1616S
973.084	5.565	1540099	DISTRACT_START	n/a	n/a	n/a	n/a	-999	8	[0, 0, 0]	n/a	catFR1	4	R1616S
978.649	7.017	1545656	PROB	7.017	n/a	n/a	n/a	-999	8	[6, 3, 6]	15	catFR1	4	R1616S
985.666	5.65	1552673	PROB	5.65	n/a	n/a	n/a	-999	8	[4, 7, 1]	12	catFR1	4	R1616S
991.316	4.282	1558323	PROB	4.282	n/a	n/a	n/a	-999	8	[5, 1, 5]	11	catFR1	4	R1616S
995.598	0.0	1562605	STOP	n/a	n/a	n/a	n/a	-999	8	[-999, -999, -999]	n/a	catFR1	4	R1616S
995.598	1.05	1562608	DISTRACT_END	n/a	n/a	n/a	n/a	-999	8	[0, 0, 0]	n/a	catFR1	4	R1616S
996.648	1.451	1563656	REC_START	n/a	n/a	n/a	n/a	-999	8	[0, 0, 0]	n/a	catFR1	4	R1616S
998.099	3.096	1565105	REC_WORD_VV	3.096	n/a	<>	n/a	-999	8	[0, 0, 0]	n/a	catFR1	4	R1616S
1001.195	0.8	1568201	REC_WORD_VV	0.8	n/a	<>	n/a	-999	8	[0, 0, 0]	n/a	catFR1	4	R1616S
1001.995	0.619	1569001	REC_WORD	0.619	n/a	SPANDEX	Fabric	3	8	[0, 0, 0]	n/a	catFR1	4	R1616S
1002.614	3.407	1569620	REC_WORD	3.407	n/a	CIDER	Beverages	10	8	[0, 0, 0]	n/a	catFR1	4	R1616S
1006.021	0.982	1573027	REC_WORD_VV	0.982	n/a	<>	n/a	-999	8	[0, 0, 0]	n/a	catFR1	4	R1616S
1007.003	4.986	1574009	REC_WORD	4.986	n/a	NYLON	Fabric	4	8	[0, 0, 0]	n/a	catFR1	4	R1616S
1011.989	6.913	1578995	REC_WORD	6.913	n/a	SILK	Fabric	7	8	[0, 0, 0]	n/a	catFR1	4	R1616S
1018.902	5.95	1585907	REC_WORD	5.95	n/a	WOOL	Fabric	8	8	[0, 0, 0]	n/a	catFR1	4	R1616S
1024.852	1.0	1591857	REC_WORD_VV	1.0	n/a	<>	n/a	-999	8	[0, 0, 0]	n/a	catFR1	4	R1616S
1025.852	2.019	1592857	REC_WORD_VV	2.019	n/a	<>	n/a	-999	8	[0, 0, 0]	n/a	catFR1	4	R1616S
1027.871	4.193	1594883	REC_END	n/a	n/a	n/a	n/a	-999	8	[0, 0, 0]	n/a	catFR1	4	R1616S
1032.064	10.352	1599074	COUNTDOWN_START	n/a	n/a	n/a	n/a	-999	8	[0, 0, 0]	n/a	catFR1	4	R1616S
1042.416	0.0	1609427	COUNTDOWN_END	n/a	n/a	n/a	n/a	-999	8	[0, 0, 0]	n/a	catFR1	4	R1616S
1042.416	2.099	1609427	ENCODING_START	n/a	n/a	n/a	n/a	-999	9	[0, 0, 0]	n/a	catFR1	4	R1616S
1044.515	1.601	1611523	WORD	n/a	wordpools/wordpool_categorized_EN.txt	PUDDING	Desserts	1	9	[0, 0, 0]	n/a	catFR1	4	R1616S
1046.116	0.949	1613116	WORD_OFF	n/a	n/a	PUDDING	Desserts	1	9	[0, 0, 0]	n/a	catFR1	4	R1616S
1047.065	1.6	1614066	WORD	n/a	wordpools/wordpool_categorized_EN.txt	CAKE	Desserts	2	9	[0, 0, 0]	n/a	catFR1	4	R1616S
1048.665	0.999	1615673	WORD_OFF	n/a	n/a	CAKE	Desserts	2	9	[0, 0, 0]	n/a	catFR1	4	R1616S
1049.664	1.601	1616665	WORD	n/a	wordpools/wordpool_categorized_EN.txt	CLOUD	Weather	3	9	[0, 0, 0]	n/a	catFR1	4	R1616S
1051.265	0.8	1618271	WORD_OFF	n/a	n/a	CLOUD	Weather	3	9	[0, 0, 0]	n/a	catFR1	4	R1616S
1052.065	1.6	1619068	WORD	n/a	wordpools/wordpool_categorized_EN.txt	RAIN	Weather	4	9	[0, 0, 0]	n/a	catFR1	4	R1616S
1053.665	0.983	1620675	WORD_OFF	n/a	n/a	RAIN	Weather	4	9	[0, 0, 0]	n/a	catFR1	4	R1616S
1054.648	1.601	1621653	WORD	n/a	wordpools/wordpool_categorized_EN.txt	FLOOR	Building	5	9	[0, 0, 0]	n/a	catFR1	4	R1616S
1056.249	0.85	1623259	WORD_OFF	n/a	n/a	FLOOR	Building	5	9	[0, 0, 0]	n/a	catFR1	4	R1616S
1057.099	1.616	1624112	WORD	n/a	wordpools/wordpool_categorized_EN.txt	BATHROOM	Building	6	9	[0, 0, 0]	n/a	catFR1	4	R1616S
1058.715	0.917	1625718	WORD_OFF	n/a	n/a	BATHROOM	Building	6	9	[0, 0, 0]	n/a	catFR1	4	R1616S
1059.632	1.617	1626640	WORD	n/a	wordpools/wordpool_categorized_EN.txt	LIGHTNING	Weather	7	9	[0, 0, 0]	n/a	catFR1	4	R1616S
1061.249	0.983	1628261	WORD_OFF	n/a	n/a	LIGHTNING	Weather	7	9	[0, 0, 0]	n/a	catFR1	4	R1616S
1062.232	1.6	1629239	WORD	n/a	wordpools/wordpool_categorized_EN.txt	THUNDERSTORM	Weather	8	9	[0, 0, 0]	n/a	catFR1	4	R1616S
1063.832	0.966	1630832	WORD_OFF	n/a	n/a	THUNDERSTORM	Weather	8	9	[0, 0, 0]	n/a	catFR1	4	R1616S
1064.798	1.601	1631810	WORD	n/a	wordpools/wordpool_categorized_EN.txt	FUDGE	Desserts	9	9	[0, 0, 0]	n/a	catFR1	4	R1616S
1066.399	0.866	1633403	WORD_OFF	n/a	n/a	FUDGE	Desserts	9	9	[0, 0, 0]	n/a	catFR1	4	R1616S
1067.265	1.616	1634269	WORD	n/a	wordpools/wordpool_categorized_EN.txt	PASTRY	Desserts	10	9	[0, 0, 0]	n/a	catFR1	4	R1616S
1068.881	0.818	1635890	WORD_OFF	n/a	n/a	PASTRY	Desserts	10	9	[0, 0, 0]	n/a	catFR1	4	R1616S
1069.699	1.616	1636700	WORD	n/a	wordpools/wordpool_categorized_EN.txt	WINDOW	Building	11	9	[0, 0, 0]	n/a	catFR1	4	R1616S
1071.315	0.884	1638321	WORD_OFF	n/a	n/a	WINDOW	Building	11	9	[0, 0, 0]	n/a	catFR1	4	R1616S
1072.199	1.617	1639201	WORD	n/a	wordpools/wordpool_categorized_EN.txt	DOOR	Building	12	9	[0, 0, 0]	n/a	catFR1	4	R1616S
1073.816	0.0	1640819	PROB	0.0	n/a	n/a	n/a	-999	9	[6, 4, 7]	18	catFR1	4	R1616S
1073.815	0.004	1640822	WORD_OFF	n/a	n/a	DOOR	Building	12	9	[0, 0, 0]	n/a	catFR1	4	R1616S
1073.819	0.0	1640822	ENCODING_END	n/a	n/a	n/a	n/a	-999	9	[0, 0, 0]	n/a	catFR1	4	R1616S
1073.819	0.0	1640822	DISTRACT_START	n/a	n/a	n/a	n/a	-999	9	[0, 0, 0]	n/a	catFR1	4	R1616S
1073.819	5.447	1640822	START	n/a	n/a	n/a	n/a	-999	9	[-999, -999, -999]	n/a	catFR1	4	R1616S
1079.266	7.049	1646269	PROB	7.049	n/a	n/a	n/a	-999	9	[3, 2, 6]	11	catFR1	4	R1616S
1086.315	4.917	1653317	PROB	4.917	n/a	n/a	n/a	-999	9	[4, 6, 8]	18	catFR1	4	R1616S
1091.232	4.15	1658234	PROB	4.15	n/a	n/a	n/a	-999	9	[3, 2, 7]	12	catFR1	4	R1616S
1095.382	0.0	1662380	DISTRACT_END	n/a	n/a	n/a	n/a	-999	9	[0, 0, 0]	n/a	catFR1	4	R1616S
1095.382	1.167	1662384	STOP	n/a	n/a	n/a	n/a	-999	9	[-999, -999, -999]	n/a	catFR1	4	R1616S
1096.549	4.809	1663554	REC_START	n/a	n/a	n/a	n/a	-999	9	[0, 0, 0]	n/a	catFR1	4	R1616S
1101.358	3.604	1668359	REC_WORD_VV	3.604	n/a	<>	n/a	-999	9	[0, 0, 0]	n/a	catFR1	4	R1616S
1104.962	1.0	1671963	REC_WORD_VV	1.0	n/a	<>	n/a	-999	9	[0, 0, 0]	n/a	catFR1	4	R1616S
1105.962	4.366	1672963	REC_WORD_VV	4.366	n/a	<>	n/a	-999	9	[0, 0, 0]	n/a	catFR1	4	R1616S
1110.328	0.85	1677329	REC_WORD_VV	0.85	n/a	<>	n/a	-999	9	[0, 0, 0]	n/a	catFR1	4	R1616S
1111.178	3.269	1678179	REC_WORD	3.269	n/a	WINDOW	Building	11	9	[0, 0, 0]	n/a	catFR1	4	R1616S
1114.447	1.0	1681448	REC_WORD_VV	1.0	n/a	<>	n/a	-999	9	[0, 0, 0]	n/a	catFR1	4	R1616S
1115.447	10.318	1682448	REC_WORD_VV	10.318	n/a	<>	n/a	-999	9	[0, 0, 0]	n/a	catFR1	4	R1616S
1125.765	2.013	1692765	REC_WORD_VV	2.013	n/a	<>	n/a	-999	9	[0, 0, 0]	n/a	catFR1	4	R1616S
1127.778	27.053	1694781	REC_END	n/a	n/a	n/a	n/a	-999	9	[0, 0, 0]	n/a	catFR1	4	R1616S
1154.831	10.35	1721830	COUNTDOWN_START	n/a	n/a	n/a	n/a	-999	9	[0, 0, 0]	n/a	catFR1	4	R1616S
1165.181	0.0	1732184	COUNTDOWN_END	n/a	n/a	n/a	n/a	-999	9	[0, 0, 0]	n/a	catFR1	4	R1616S
1165.181	2.401	1732184	ENCODING_START	n/a	n/a	n/a	n/a	-999	10	[0, 0, 0]	n/a	catFR1	4	R1616S
1167.582	1.6	1734587	WORD	n/a	wordpools/wordpool_categorized_EN.txt	STAIRS	Building	1	10	[0, 0, 0]	n/a	catFR1	4	R1616S
1169.182	0.95	1736180	WORD_OFF	n/a	n/a	STAIRS	Building	1	10	[0, 0, 0]	n/a	catFR1	4	R1616S
1170.132	1.616	1737130	WORD	n/a	wordpools/wordpool_categorized_EN.txt	ROOM	Building	2	10	[0, 0, 0]	n/a	catFR1	4	R1616S
1171.748	0.95	1738750	WORD_OFF	n/a	n/a	ROOM	Building	2	10	[0, 0, 0]	n/a	catFR1	4	R1616S
1172.698	1.601	1739700	WORD	n/a	wordpools/wordpool_categorized_EN.txt	FINGERS	BodyParts	3	10	[0, 0, 0]	n/a	catFR1	4	R1616S
1174.299	0.766	1741293	WORD_OFF	n/a	n/a	FINGERS	BodyParts	3	10	[0, 0, 0]	n/a	catFR1	4	R1616S
1175.065	1.6	1742062	WORD	n/a	wordpools/wordpool_categorized_EN.txt	EAR	BodyParts	4	10	[0, 0, 0]	n/a	catFR1	4	R1616S
1176.665	0.784	1743668	WORD_OFF	n/a	n/a	EAR	BodyParts	4	10	[0, 0, 0]	n/a	catFR1	4	R1616S
1177.449	1.616	1744451	WORD	n/a	wordpools/wordpool_categorized_EN.txt	LEATHER	Fabric	5	10	[0, 0, 0]	n/a	catFR1	4	R1616S
1179.065	0.884	1746072	WORD_OFF	n/a	n/a	LEATHER	Fabric	5	10	[0, 0, 0]	n/a	catFR1	4	R1616S
1179.949	1.6	1746952	WORD	n/a	wordpools/wordpool_categorized_EN.txt	LINEN	Fabric	6	10	[0, 0, 0]	n/a	catFR1	4	R1616S
1181.549	0.916	1748545	WORD_OFF	n/a	n/a	LINEN	Fabric	6	10	[0, 0, 0]	n/a	catFR1	4	R1616S
1182.465	1.6	1749467	WORD	n/a	wordpools/wordpool_categorized_EN.txt	ROOF	Building	7	10	[0, 0, 0]	n/a	catFR1	4	R1616S
1184.065	0.934	1751060	WORD_OFF	n/a	n/a	ROOF	Building	7	10	[0, 0, 0]	n/a	catFR1	4	R1616S
1184.999	1.6	1751996	WORD	n/a	wordpools/wordpool_categorized_EN.txt	ATTIC	Building	8	10	[0, 0, 0]	n/a	catFR1	4	R1616S
1186.599	0.999	1753602	WORD_OFF	n/a	n/a	ATTIC	Building	8	10	[0, 0, 0]	n/a	catFR1	4	R1616S
1187.598	1.601	1754594	WORD	n/a	wordpools/wordpool_categorized_EN.txt	NOSE	BodyParts	9	10	[0, 0, 0]	n/a	catFR1	4	R1616S
1189.199	0.9	1756201	WORD_OFF	n/a	n/a	NOSE	BodyParts	9	10	[0, 0, 0]	n/a	catFR1	4	R1616S
1190.099	1.616	1757095	WORD	n/a	wordpools/wordpool_categorized_EN.txt	ELBOW	BodyParts	10	10	[0, 0, 0]	n/a	catFR1	4	R1616S
1191.715	0.766	1758716	WORD_OFF	n/a	n/a	ELBOW	BodyParts	10	10	[0, 0, 0]	n/a	catFR1	4	R1616S
1192.481	1.601	1759485	WORD	n/a	wordpools/wordpool_categorized_EN.txt	FLEECE	Fabric	11	10	[0, 0, 0]	n/a	catFR1	4	R1616S
1194.082	0.867	1761077	WORD_OFF	n/a	n/a	FLEECE	Fabric	11	10	[0, 0, 0]	n/a	catFR1	4	R1616S
1194.949	1.6	1761944	WORD	n/a	wordpools/wordpool_categorized_EN.txt	VELVET	Fabric	12	10	[0, 0, 0]	n/a	catFR1	4	R1616S
1196.549	0.001	1763546	PROB	0.001	n/a	n/a	n/a	-999	10	[2, 3, 4]	9	catFR1	4	R1616S
1196.55	0.0	1763547	START	n/a	n/a	n/a	n/a	-999	10	[-999, -999, -999]	n/a	catFR1	4	R1616S
1196.549	0.001	1763550	WORD_OFF	n/a	n/a	VELVET	Fabric	12	10	[0, 0, 0]	n/a	catFR1	4	R1616S
1196.55	0.0	1763550	ENCODING_END	n/a	n/a	n/a	n/a	-999	10	[0, 0, 0]	n/a	catFR1	4	R1616S
1196.55	4.982	1763550	DISTRACT_START	n/a	n/a	n/a	n/a	-999	10	[0, 0, 0]	n/a	catFR1	4	R1616S
1201.532	3.999	1768529	PROB	3.999	n/a	n/a	n/a	-999	10	[1, 2, 4]	7	catFR1	4	R1616S
1205.531	4.918	1772527	PROB	4.918	n/a	n/a	n/a	-999	10	[3, 3, 8]	14	catFR1	4	R1616S
1210.449	7.967	1777445	PROB	7.967	n/a	n/a	n/a	-999	10	[6, 2, 7]	15	catFR1	4	R1616S
1218.416	0.0	1785412	STOP	n/a	n/a	n/a	n/a	-999	10	[-999, -999, -999]	n/a	catFR1	4	R1616S
1218.416	1.216	1785416	DISTRACT_END	n/a	n/a	n/a	n/a	-999	10	[0, 0, 0]	n/a	catFR1	4	R1616S
1219.632	0.672	1786632	REC_START	n/a	n/a	n/a	n/a	-999	10	[0, 0, 0]	n/a	catFR1	4	R1616S
1220.304	0.684	1787300	REC_WORD	0.684	n/a	STAIRS	Building	1	10	[0, 0, 0]	n/a	catFR1	4	R1616S
1220.988	0.589	1787984	REC_WORD	0.589	n/a	LINEN	Fabric	6	10	[0, 0, 0]	n/a	catFR1	4	R1616S
1221.577	0.673	1788573	REC_WORD	0.673	n/a	ATTIC	Building	8	10	[0, 0, 0]	n/a	catFR1	4	R1616S
1222.25	1.739	1789246	REC_WORD	1.739	n/a	ROOF	Building	7	10	[0, 0, 0]	n/a	catFR1	4	R1616S
1223.989	7.978	1790985	REC_WORD_VV	7.978	n/a	<>	n/a	-999	10	[0, 0, 0]	n/a	catFR1	4	R1616S
1231.967	4.163	1798962	REC_WORD_VV	4.163	n/a	<>	n/a	-999	10	[0, 0, 0]	n/a	catFR1	4	R1616S
1236.13	1.0	1803125	REC_WORD_VV	1.0	n/a	<>	n/a	-999	10	[0, 0, 0]	n/a	catFR1	4	R1616S
1237.13	6.053	1804125	REC_WORD_VV	6.053	n/a	<>	n/a	-999	10	[0, 0, 0]	n/a	catFR1	4	R1616S
1243.183	7.688	1810178	REC_WORD_VV	7.688	n/a	<>	n/a	-999	10	[0, 0, 0]	n/a	catFR1	4	R1616S
1250.871	2.661	1817873	REC_END	n/a	n/a	n/a	n/a	-999	10	[0, 0, 0]	n/a	catFR1	4	R1616S
1253.532	10.35	1820541	COUNTDOWN_START	n/a	n/a	n/a	n/a	-999	10	[0, 0, 0]	n/a	catFR1	4	R1616S
1263.882	0.0	1830881	COUNTDOWN_END	n/a	n/a	n/a	n/a	-999	10	[0, 0, 0]	n/a	catFR1	4	R1616S
1263.882	1.967	1830881	ENCODING_START	n/a	n/a	n/a	n/a	-999	11	[0, 0, 0]	n/a	catFR1	4	R1616S
1265.849	1.6	1832851	WORD	n/a	wordpools/wordpool_categorized_EN.txt	STRAWBERRY	Fruit	1	11	[0, 0, 0]	n/a	catFR1	4	R1616S
1267.449	0.815	1834443	WORD_OFF	n/a	n/a	STRAWBERRY	Fruit	1	11	[0, 0, 0]	n/a	catFR1	4	R1616S
1268.264	1.601	1835254	WORD	n/a	wordpools/wordpool_categorized_EN.txt	CHERRY	Fruit	2	11	[0, 0, 0]	n/a	catFR1	4	R1616S
1269.865	0.85	1836860	WORD_OFF	n/a	n/a	CHERRY	Fruit	2	11	[0, 0, 0]	n/a	catFR1	4	R1616S
1270.715	1.617	1837713	WORD	n/a	wordpools/wordpool_categorized_EN.txt	STOVE	Appliances	3	11	[0, 0, 0]	n/a	catFR1	4	R1616S
1272.332	0.816	1839333	WORD_OFF	n/a	n/a	STOVE	Appliances	3	11	[0, 0, 0]	n/a	catFR1	4	R1616S
1273.148	1.6	1840144	WORD	n/a	wordpools/wordpool_categorized_EN.txt	MIXER	Appliances	4	11	[0, 0, 0]	n/a	catFR1	4	R1616S
1274.748	1.0	1841751	WORD_OFF	n/a	n/a	MIXER	Appliances	4	11	[0, 0, 0]	n/a	catFR1	4	R1616S
1275.748	1.601	1842743	WORD	n/a	wordpools/wordpool_categorized_EN.txt	GIRAFFE	Zoo	5	11	[0, 0, 0]	n/a	catFR1	4	R1616S
1277.349	0.766	1844349	WORD_OFF	n/a	n/a	GIRAFFE	Zoo	5	11	[0, 0, 0]	n/a	catFR1	4	R1616S
1278.115	1.6	1845118	WORD	n/a	wordpools/wordpool_categorized_EN.txt	PANDA	Zoo	6	11	[0, 0, 0]	n/a	catFR1	4	R1616S
1279.715	0.967	1846711	WORD_OFF	n/a	n/a	PANDA	Zoo	6	11	[0, 0, 0]	n/a	catFR1	4	R1616S
1280.682	1.617	1847675	WORD	n/a	wordpools/wordpool_categorized_EN.txt	GRAPE	Fruit	7	11	[0, 0, 0]	n/a	catFR1	4	R1616S
1282.299	0.933	1849295	WORD_OFF	n/a	n/a	GRAPE	Fruit	7	11	[0, 0, 0]	n/a	catFR1	4	R1616S
1283.232	1.6	1850232	WORD	n/a	wordpools/wordpool_categorized_EN.txt	BLUEBERRY	Fruit	8	11	[0, 0, 0]	n/a	catFR1	4	R1616S
1284.832	0.817	1851824	WORD_OFF	n/a	n/a	BLUEBERRY	Fruit	8	11	[0, 0, 0]	n/a	catFR1	4	R1616S
1285.649	1.6	1852649	WORD	n/a	wordpools/wordpool_categorized_EN.txt	REFRIGERATOR	Appliances	9	11	[0, 0, 0]	n/a	catFR1	4	R1616S
1287.249	0.766	1854241	WORD_OFF	n/a	n/a	REFRIGERATOR	Appliances	9	11	[0, 0, 0]	n/a	catFR1	4	R1616S
1288.015	1.6	1855010	WORD	n/a	wordpools/wordpool_categorized_EN.txt	WASHER	Appliances	10	11	[0, 0, 0]	n/a	catFR1	4	R1616S
1289.615	0.916	1856617	WORD_OFF	n/a	n/a	WASHER	Appliances	10	11	[0, 0, 0]	n/a	catFR1	4	R1616S
1290.531	1.618	1857525	WORD	n/a	wordpools/wordpool_categorized_EN.txt	CHIMPANZEE	Zoo	11	11	[0, 0, 0]	n/a	catFR1	4	R1616S
1292.149	0.8	1859146	WORD_OFF	n/a	n/a	CHIMPANZEE	Zoo	11	11	[0, 0, 0]	n/a	catFR1	4	R1616S
1292.949	1.617	1859942	WORD	n/a	wordpools/wordpool_categorized_EN.txt	GORILLA	Zoo	12	11	[0, 0, 0]	n/a	catFR1	4	R1616S
1294.566	0.001	1861558	PROB	0.001	n/a	n/a	n/a	-999	11	[2, 7, 1]	10	catFR1	4	R1616S
1294.567	0.0	1861559	START	n/a	n/a	n/a	n/a	-999	11	[-999, -999, -999]	n/a	catFR1	4	R1616S
1294.565	0.002	1861563	WORD_OFF	n/a	n/a	GORILLA	Zoo	12	11	[0, 0, 0]	n/a	catFR1	4	R1616S
1294.567	0.0	1861563	ENCODING_END	n/a	n/a	n/a	n/a	-999	11	[0, 0, 0]	n/a	catFR1	4	R1616S
1294.567	6.431	1861563	DISTRACT_START	n/a	n/a	n/a	n/a	-999	11	[0, 0, 0]	n/a	catFR1	4	R1616S
1300.998	4.985	1867990	PROB	4.985	n/a	n/a	n/a	-999	11	[3, 8, 7]	18	catFR1	4	R1616S
1305.983	2.633	1872975	PROB	2.633	n/a	n/a	n/a	-999	11	[2, 1, 1]	3	catFR1	4	R1616S
1308.616	8.799	1875608	PROB	8.799	n/a	n/a	n/a	-999	11	[7, 2, 7]	16	catFR1	4	R1616S
1317.415	0.0	1884406	STOP	n/a	n/a	n/a	n/a	-999	11	[-999, -999, -999]	n/a	catFR1	4	R1616S
1317.415	1.367	1884407	DISTRACT_END	n/a	n/a	n/a	n/a	-999	11	[0, 0, 0]	n/a	catFR1	4	R1616S
1318.782	1.127	1885776	REC_START	n/a	n/a	n/a	n/a	-999	11	[0, 0, 0]	n/a	catFR1	4	R1616S
1319.909	1.435	1886900	REC_WORD	1.435	n/a	STRAWBERRY	Fruit	1	11	[0, 0, 0]	n/a	catFR1	4	R1616S
1321.344	1.131	1888335	REC_WORD	1.131	n/a	CHERRY	Fruit	2	11	[0, 0, 0]	n/a	catFR1	4	R1616S
1322.475	1.387	1889466	REC_WORD	1.387	n/a	BLUEBERRY	Fruit	8	11	[0, 0, 0]	n/a	catFR1	4	R1616S
1323.862	1.288	1890853	REC_WORD	1.288	n/a	RASPBERRY	n/a	-999	11	[0, 0, 0]	n/a	catFR1	4	R1616S
1325.15	1.936	1892141	REC_WORD	1.936	n/a	GRAPE	Fruit	7	11	[0, 0, 0]	n/a	catFR1	4	R1616S
1327.086	0.384	1894077	REC_WORD_VV	0.384	n/a	<>	n/a	-999	11	[0, 0, 0]	n/a	catFR1	4	R1616S
1327.47	3.054	1894461	REC_WORD	3.054	n/a	PANDA	Zoo	6	11	[0, 0, 0]	n/a	catFR1	4	R1616S
1330.524	2.011	1897515	REC_WORD_VV	2.011	n/a	<>	n/a	-999	11	[0, 0, 0]	n/a	catFR1	4	R1616S
1332.535	0.696	1899525	REC_WORD	0.696	n/a	PANDA	Zoo	6	11	[0, 0, 0]	n/a	catFR1	4	R1616S
1333.231	1.117	1900221	REC_WORD	1.117	n/a	CHIMPANZEE	Zoo	11	11	[0, 0, 0]	n/a	catFR1	4	R1616S
1334.348	3.351	1901338	REC_WORD	3.351	n/a	GORILLA	Zoo	12	11	[0, 0, 0]	n/a	catFR1	4	R1616S
1337.699	3.124	1904689	REC_WORD_VV	3.124	n/a	<>	n/a	-999	11	[0, 0, 0]	n/a	catFR1	4	R1616S
1340.823	1.0	1907813	REC_WORD_VV	1.0	n/a	<>	n/a	-999	11	[0, 0, 0]	n/a	catFR1	4	R1616S
1341.823	5.135	1908813	REC_WORD_VV	5.135	n/a	<>	n/a	-999	11	[0, 0, 0]	n/a	catFR1	4	R1616S
1346.958	1.0	1913948	REC_WORD_VV	1.0	n/a	<>	n/a	-999	11	[0, 0, 0]	n/a	catFR1	4	R1616S
1347.958	2.074	1914948	REC_WORD_VV	2.074	n/a	<>	n/a	-999	11	[0, 0, 0]	n/a	catFR1	4	R1616S
1350.032	2.817	1917019	REC_END	n/a	n/a	n/a	n/a	-999	11	[0, 0, 0]	n/a	catFR1	4	R1616S
1352.849	10.35	1919839	COUNTDOWN_START	n/a	n/a	n/a	n/a	-999	11	[0, 0, 0]	n/a	catFR1	4	R1616S
1363.199	0.0	1930192	COUNTDOWN_END	n/a	n/a	n/a	n/a	-999	11	[0, 0, 0]	n/a	catFR1	4	R1616S
1363.199	1.983	1930192	ENCODING_START	n/a	n/a	n/a	n/a	-999	12	[0, 0, 0]	n/a	catFR1	4	R1616S
1365.182	1.616	1932176	WORD	n/a	wordpools/wordpool_categorized_EN.txt	WOODS	Landscapes	1	12	[0, 0, 0]	n/a	catFR1	4	R1616S
1366.798	0.767	1933783	WORD_OFF	n/a	n/a	WOODS	Landscapes	1	12	[0, 0, 0]	n/a	catFR1	4	R1616S
1367.565	1.6	1934551	WORD	n/a	wordpools/wordpool_categorized_EN.txt	ISLAND	Landscapes	2	12	[0, 0, 0]	n/a	catFR1	4	R1616S
1369.165	0.783	1936158	WORD_OFF	n/a	n/a	ISLAND	Landscapes	2	12	[0, 0, 0]	n/a	catFR1	4	R1616S
1369.948	1.601	1936941	WORD	n/a	wordpools/wordpool_categorized_EN.txt	DOLLHOUSE	Toys	3	12	[0, 0, 0]	n/a	catFR1	4	R1616S
1371.549	0.866	1938547	WORD_OFF	n/a	n/a	DOLLHOUSE	Toys	3	12	[0, 0, 0]	n/a	catFR1	4	R1616S
1372.415	1.617	1939400	WORD	n/a	wordpools/wordpool_categorized_EN.txt	SLINKY	Toys	4	12	[0, 0, 0]	n/a	catFR1	4	R1616S
1374.032	0.833	1941020	WORD_OFF	n/a	n/a	SLINKY	Toys	4	12	[0, 0, 0]	n/a	catFR1	4	R1616S
1374.865	1.617	1941859	WORD	n/a	wordpools/wordpool_categorized_EN.txt	IRON	Appliances	5	12	[0, 0, 0]	n/a	catFR1	4	R1616S
1376.482	0.767	1943479	WORD_OFF	n/a	n/a	IRON	Appliances	5	12	[0, 0, 0]	n/a	catFR1	4	R1616S
1377.249	1.615	1944234	WORD	n/a	wordpools/wordpool_categorized_EN.txt	OVEN	Appliances	6	12	[0, 0, 0]	n/a	catFR1	4	R1616S
1378.864	0.784	1945855	WORD_OFF	n/a	n/a	OVEN	Appliances	6	12	[0, 0, 0]	n/a	catFR1	4	R1616S
1379.648	1.617	1946637	WORD	n/a	wordpools/wordpool_categorized_EN.txt	PUZZLE	Toys	7	12	[0, 0, 0]	n/a	catFR1	4	R1616S
1381.265	0.833	1948258	WORD_OFF	n/a	n/a	PUZZLE	Toys	7	12	[0, 0, 0]	n/a	catFR1	4	R1616S
1382.098	1.616	1949096	WORD	n/a	wordpools/wordpool_categorized_EN.txt	DOLL	Toys	8	12	[0, 0, 0]	n/a	catFR1	4	R1616S
1383.714	1.001	1950703	WORD_OFF	n/a	n/a	DOLL	Toys	8	12	[0, 0, 0]	n/a	catFR1	4	R1616S
1384.715	1.6	1951709	WORD	n/a	wordpools/wordpool_categorized_EN.txt	CREEK	Landscapes	9	12	[0, 0, 0]	n/a	catFR1	4	R1616S
1386.315	0.766	1953302	WORD_OFF	n/a	n/a	CREEK	Landscapes	9	12	[0, 0, 0]	n/a	catFR1	4	R1616S
1387.081	1.6	1954070	WORD	n/a	wordpools/wordpool_categorized_EN.txt	VALLEY	Landscapes	10	12	[0, 0, 0]	n/a	catFR1	4	R1616S
1388.681	0.967	1955677	WORD_OFF	n/a	n/a	VALLEY	Landscapes	10	12	[0, 0, 0]	n/a	catFR1	4	R1616S
1389.648	1.617	1956641	WORD	n/a	wordpools/wordpool_categorized_EN.txt	TOASTER	Appliances	11	12	[0, 0, 0]	n/a	catFR1	4	R1616S
1391.265	0.766	1958262	WORD_OFF	n/a	n/a	TOASTER	Appliances	11	12	[0, 0, 0]	n/a	catFR1	4	R1616S
1392.031	1.602	1959016	WORD	n/a	wordpools/wordpool_categorized_EN.txt	BLENDER	Appliances	12	12	[0, 0, 0]	n/a	catFR1	4	R1616S
1393.633	0.0	1960620	PROB	0.0	n/a	n/a	n/a	-999	12	[6, 7, 2]	15	catFR1	4	R1616S
1393.632	0.004	1960623	WORD_OFF	n/a	n/a	BLENDER	Appliances	12	12	[0, 0, 0]	n/a	catFR1	4	R1616S
1393.636	0.0	1960623	ENCODING_END	n/a	n/a	n/a	n/a	-999	12	[0, 0, 0]	n/a	catFR1	4	R1616S
1393.636	0.0	1960623	DISTRACT_START	n/a	n/a	n/a	n/a	-999	12	[0, 0, 0]	n/a	catFR1	4	R1616S
1393.636	7.38	1960623	START	n/a	n/a	n/a	n/a	-999	12	[-999, -999, -999]	n/a	catFR1	4	R1616S
1401.016	4.583	1968003	PROB	4.583	n/a	n/a	n/a	-999	12	[6, 1, 2]	9	catFR1	4	R1616S
1405.599	5.333	1972586	PROB	5.333	n/a	n/a	n/a	-999	12	[3, 4, 6]	13	catFR1	4	R1616S
1410.932	3.5	1977919	PROB	3.5	n/a	n/a	n/a	-999	12	[4, 2, 4]	10	catFR1	4	R1616S
1414.432	0.0	1981418	STOP	n/a	n/a	n/a	n/a	-999	12	[-999, -999, -999]	n/a	catFR1	4	R1616S
1414.432	1.283	1981427	DISTRACT_END	n/a	n/a	n/a	n/a	-999	12	[0, 0, 0]	n/a	catFR1	4	R1616S
1415.715	1.001	1982698	REC_START	n/a	n/a	n/a	n/a	-999	12	[0, 0, 0]	n/a	catFR1	4	R1616S
1416.716	0.605	1983702	REC_WORD	0.605	n/a	DOLL	Toys	8	12	[0, 0, 0]	n/a	catFR1	4	R1616S
1417.321	1.138	1984307	REC_WORD	1.138	n/a	DOLLHOUSE	Toys	3	12	[0, 0, 0]	n/a	catFR1	4	R1616S
1418.459	1.101	1985445	REC_WORD	1.101	n/a	WOODS	Landscapes	1	12	[0, 0, 0]	n/a	catFR1	4	R1616S
1419.56	1.504	1986546	REC_WORD	1.504	n/a	ISLAND	Landscapes	2	12	[0, 0, 0]	n/a	catFR1	4	R1616S
1421.064	1.521	1988050	REC_WORD_VV	1.521	n/a	<>	n/a	-999	12	[0, 0, 0]	n/a	catFR1	4	R1616S
1422.585	3.58	1989571	REC_WORD	3.58	n/a	CREEK	Landscapes	9	12	[0, 0, 0]	n/a	catFR1	4	R1616S
1426.165	0.7	1993151	REC_WORD_VV	0.7	n/a	<>	n/a	-999	12	[0, 0, 0]	n/a	catFR1	4	R1616S
1426.865	11.056	1993851	REC_WORD	11.056	n/a	IRON	Appliances	5	12	[0, 0, 0]	n/a	catFR1	4	R1616S
1437.921	1.0	2004906	REC_WORD_VV	1.0	n/a	<>	n/a	-999	12	[0, 0, 0]	n/a	catFR1	4	R1616S
1438.921	3.841	2005906	REC_WORD_VV	3.841	n/a	<>	n/a	-999	12	[0, 0, 0]	n/a	catFR1	4	R1616S
1442.762	1.0	2009747	REC_WORD_VV	1.0	n/a	<>	n/a	-999	12	[0, 0, 0]	n/a	catFR1	4	R1616S
1443.762	3.171	2010747	REC_WORD_VV	3.171	n/a	<>	n/a	-999	12	[0, 0, 0]	n/a	catFR1	4	R1616S
1446.933	0.0	2013925	REC_END	n/a	n/a	n/a	n/a	-999	12	[0, 0, 0]	n/a	catFR1	4	R1616S
