onset	duration	sample	trial_type	response_time	stim_file	item_name	category	serialpos	list	test	answer	experiment	session	subject
0.0	0.186	-1	Logging	n/a	n/a	n/a	n/a	-999	13	[0, 0, 0]	n/a	catFR1	1	R1320D
0.186	0.0	-1	INSTRUCT_START	n/a	n/a	n/a	n/a	-999	-999	[0, 0, 0]	n/a	catFR1	1	R1320D
0.186	0.0	-1	INSTRUCT_END	n/a	n/a	n/a	n/a	-999	-999	[0, 0, 0]	n/a	catFR1	1	R1320D
0.186	0.0	-1	MIC	n/a	n/a	n/a	n/a	-999	-999	[0, 0, 0]	n/a	catFR1	1	R1320D
0.186	0.0	-1	MIC	n/a	n/a	n/a	n/a	-999	-999	[0, 0, 0]	n/a	catFR1	1	R1320D
0.186	0.0	-1	TRIAL_START	n/a	n/a	n/a	n/a	-999	-1	[0, 0, 0]	n/a	catFR1	1	R1320D
0.186	0.0	-1	TRIAL	n/a	n/a	n/a	n/a	-999	-1	[0, 0, 0]	n/a	catFR1	1	R1320D
0.186	0.013	-1	WAITING_START	n/a	n/a	n/a	n/a	-999	-1	[0, 0, 0]	n/a	catFR1	1	R1320D
0.199	295.587	-1	Logging	n/a	n/a	n/a	n/a	-999	-999	[0, 0, 0]	n/a	catFR1	1	R1320D
295.786	10.0	277213	COUNTDOWN_START	n/a	n/a	n/a	n/a	-999	-1	[0, 0, 0]	n/a	catFR1	1	R1320D
295.786	0.0	277213	ORIENT_START	n/a	n/a	n/a	n/a	-999	-1	[0, 0, 0]	n/a	catFR1	1	R1320D
295.786	0.0	277213	WAITING_END	n/a	n/a	n/a	n/a	-999	-1	[0, 0, 0]	n/a	catFR1	1	R1320D
295.786	11.619	277213	COUNTDOWN_END	n/a	n/a	n/a	n/a	-999	-1	[0, 0, 0]	n/a	catFR1	1	R1320D
307.405	0.0	288831	ORIENT_END	n/a	n/a	n/a	n/a	-999	-1	[0, 0, 0]	n/a	catFR1	1	R1320D
307.405	0.967	288831	ENCODING_START	n/a	n/a	n/a	n/a	-999	-1	[0, 0, 0]	n/a	catFR1	1	R1320D
308.372	1.6	289798	WORD	n/a	n/a	LEATHER	n/a	1	-1	[0, 0, 0]	n/a	catFR1	1	R1320D
310.005	0.753	291431	WORD_OFF	n/a	n/a	LEATHER	n/a	1	-1	[0, 0, 0]	n/a	catFR1	1	R1320D
310.758	1.6	292184	WORD	n/a	n/a	DAY	n/a	2	-1	[0, 0, 0]	n/a	catFR1	1	R1320D
312.389	0.945	293815	WORD_OFF	n/a	n/a	DAY	n/a	2	-1	[0, 0, 0]	n/a	catFR1	1	R1320D
313.334	1.6	294760	WORD	n/a	n/a	DENIM	n/a	3	-1	[0, 0, 0]	n/a	catFR1	1	R1320D
314.973	0.873	296399	WORD_OFF	n/a	n/a	DENIM	n/a	3	-1	[0, 0, 0]	n/a	catFR1	1	R1320D
315.846	1.6	297272	WORD	n/a	n/a	MINUTE	n/a	4	-1	[0, 0, 0]	n/a	catFR1	1	R1320D
317.474	1.121	298900	WORD_OFF	n/a	n/a	MINUTE	n/a	4	-1	[0, 0, 0]	n/a	catFR1	1	R1320D
318.595	1.6	300021	WORD	n/a	n/a	HOUR	n/a	5	-1	[0, 0, 0]	n/a	catFR1	1	R1320D
320.223	0.767	301648	WORD_OFF	n/a	n/a	HOUR	n/a	5	-1	[0, 0, 0]	n/a	catFR1	1	R1320D
320.99	1.6	302415	WORD	n/a	n/a	FIREMAN	n/a	6	-1	[0, 0, 0]	n/a	catFR1	1	R1320D
322.624	1.049	304049	WORD_OFF	n/a	n/a	FIREMAN	n/a	6	-1	[0, 0, 0]	n/a	catFR1	1	R1320D
323.673	1.6	305098	WORD	n/a	n/a	PLUMBER	n/a	7	-1	[0, 0, 0]	n/a	catFR1	1	R1320D
325.308	1.099	306733	WORD_OFF	n/a	n/a	PLUMBER	n/a	7	-1	[0, 0, 0]	n/a	catFR1	1	R1320D
326.407	1.6	307832	WORD	n/a	n/a	SECOND	n/a	8	-1	[0, 0, 0]	n/a	catFR1	1	R1320D
328.041	1.096	309466	WORD_OFF	n/a	n/a	SECOND	n/a	8	-1	[0, 0, 0]	n/a	catFR1	1	R1320D
329.137	1.6	310562	WORD	n/a	n/a	FARMER	n/a	9	-1	[0, 0, 0]	n/a	catFR1	1	R1320D
330.759	0.947	312184	WORD_OFF	n/a	n/a	FARMER	n/a	9	-1	[0, 0, 0]	n/a	catFR1	1	R1320D
331.706	1.6	313131	WORD	n/a	n/a	SILK	n/a	10	-1	[0, 0, 0]	n/a	catFR1	1	R1320D
333.343	1.075	314768	WORD_OFF	n/a	n/a	SILK	n/a	10	-1	[0, 0, 0]	n/a	catFR1	1	R1320D
334.418	1.6	315843	WORD	n/a	n/a	TEACHER	n/a	11	-1	[0, 0, 0]	n/a	catFR1	1	R1320D
336.043	1.121	317468	WORD_OFF	n/a	n/a	TEACHER	n/a	11	-1	[0, 0, 0]	n/a	catFR1	1	R1320D
337.164	1.6	318589	WORD	n/a	n/a	WOOL	n/a	12	-1	[0, 0, 0]	n/a	catFR1	1	R1320D
338.778	0.0	320202	WORD_OFF	n/a	n/a	WOOL	n/a	12	-1	[0, 0, 0]	n/a	catFR1	1	R1320D
338.778	0.0	320202	ENCODING_END	n/a	n/a	n/a	n/a	-999	-1	[0, 0, 0]	n/a	catFR1	1	R1320D
338.778	0.001	320202	DISTRACT_START	n/a	n/a	n/a	n/a	-999	-1	[0, 0, 0]	n/a	catFR1	1	R1320D
338.779	0.015	320203	START	n/a	n/a	n/a	n/a	-999	-1	[-999, -999, -999]	n/a	catFR1	1	R1320D
338.794	8.284	320218	PROB	8.253	n/a	n/a	n/a	-999	-1	[9, 7, 6]	22.0	catFR1	1	R1320D
347.078	12.602	328502	PROB	12.602	n/a	n/a	n/a	-999	-1	[7, 8, 2]	17.0	catFR1	1	R1320D
359.68	0.018	341103	STOP	n/a	n/a	n/a	n/a	-999	-1	[-999, -999, -999]	n/a	catFR1	1	R1320D
359.698	1.056	341121	DISTRACT_END	n/a	n/a	n/a	n/a	-999	-1	[0, 0, 0]	n/a	catFR1	1	R1320D
360.754	1.6	342177	RETRIEVAL_ORIENT_START	n/a	n/a	n/a	n/a	-999	-1	[0, 0, 0]	n/a	catFR1	1	R1320D
361.782	0.0	343205	RETRIEVAL_ORIENT_END	n/a	n/a	n/a	n/a	-999	-1	[0, 0, 0]	n/a	catFR1	1	R1320D
361.782	0.139	343205	REC_START	n/a	n/a	n/a	n/a	-999	-1	[0, 0, 0]	n/a	catFR1	1	R1320D
361.921	30.373	343344	REC_WORD_VV	0.139	n/a	<>	n/a	-999	-1	[0, 0, 0]	n/a	catFR1	1	R1320D
392.294	0.0	373716	REC_END	n/a	n/a	n/a	n/a	-999	-1	[0, 0, 0]	n/a	catFR1	1	R1320D
392.294	6.028	373716	PRACTICE_POST_INSTRUCT_START	n/a	n/a	n/a	n/a	-999	-1	[0, 0, 0]	n/a	catFR1	1	R1320D
398.322	0.0	379743	WAITING_START	n/a	n/a	n/a	n/a	-999	1	[0, 0, 0]	n/a	catFR1	1	R1320D
398.322	0.0	379743	TRIAL	n/a	n/a	n/a	n/a	-999	1	[0, 0, 0]	n/a	catFR1	1	R1320D
398.322	0.0	379743	TRIAL_END	n/a	n/a	n/a	n/a	-999	-1	[0, 0, 0]	n/a	catFR1	1	R1320D
398.322	0.0	379743	TRIAL_START	n/a	n/a	n/a	n/a	-999	1	[0, 0, 0]	n/a	catFR1	1	R1320D
398.322	1.966	379743	PRACTICE_POST_INSTRUCT_END	n/a	n/a	n/a	n/a	-999	-1	[0, 0, 0]	n/a	catFR1	1	R1320D
400.288	0.0	381709	WAITING_END	n/a	n/a	n/a	n/a	-999	1	[0, 0, 0]	n/a	catFR1	1	R1320D
400.288	10.0	381709	COUNTDOWN_START	n/a	n/a	n/a	n/a	-999	1	[0, 0, 0]	n/a	catFR1	1	R1320D
400.288	0.0	381709	COUNTDOWN_END	n/a	n/a	n/a	n/a	-999	1	[0, 0, 0]	n/a	catFR1	1	R1320D
400.288	11.469	381709	ORIENT_START	n/a	n/a	n/a	n/a	-999	1	[0, 0, 0]	n/a	catFR1	1	R1320D
411.757	0.0	393178	ORIENT_END	n/a	n/a	n/a	n/a	-999	1	[0, 0, 0]	n/a	catFR1	1	R1320D
411.757	0.75	393178	ENCODING_START	n/a	n/a	n/a	n/a	-999	1	[0, 0, 0]	n/a	catFR1	1	R1320D
412.507	1.6	393928	WORD	n/a	wordpools/wordpool_categorized_EN.txt	ARM	BodyParts	1	1	[0, 0, 0]	n/a	catFR1	1	R1320D
414.14	1.114	395561	WORD_OFF	n/a	n/a	ARM	BodyParts	1	1	[0, 0, 0]	n/a	catFR1	1	R1320D
415.254	1.6	396675	WORD	n/a	wordpools/wordpool_categorized_EN.txt	FINGERS	BodyParts	2	1	[0, 0, 0]	n/a	catFR1	1	R1320D
416.892	0.814	398313	WORD_OFF	n/a	n/a	FINGERS	BodyParts	2	1	[0, 0, 0]	n/a	catFR1	1	R1320D
417.706	1.6	399126	WORD	n/a	wordpools/wordpool_categorized_EN.txt	HICKORY	Trees	3	1	[0, 0, 0]	n/a	catFR1	1	R1320D
419.342	1.075	400762	WORD_OFF	n/a	n/a	HICKORY	Trees	3	1	[0, 0, 0]	n/a	catFR1	1	R1320D
420.417	1.6	401837	WORD	n/a	wordpools/wordpool_categorized_EN.txt	MAPLE	Trees	4	1	[0, 0, 0]	n/a	catFR1	1	R1320D
422.042	0.912	403462	WORD_OFF	n/a	n/a	MAPLE	Trees	4	1	[0, 0, 0]	n/a	catFR1	1	R1320D
422.954	1.6	404374	WORD	n/a	wordpools/wordpool_categorized_EN.txt	ONION	Vegetables	5	1	[0, 0, 0]	n/a	catFR1	1	R1320D
424.576	0.977	405996	WORD_OFF	n/a	n/a	ONION	Vegetables	5	1	[0, 0, 0]	n/a	catFR1	1	R1320D
425.553	1.6	406973	WORD	n/a	wordpools/wordpool_categorized_EN.txt	BROCCOLI	Vegetables	6	1	[0, 0, 0]	n/a	catFR1	1	R1320D
427.176	1.009	408596	WORD_OFF	n/a	n/a	BROCCOLI	Vegetables	6	1	[0, 0, 0]	n/a	catFR1	1	R1320D
428.185	1.6	409605	WORD	n/a	wordpools/wordpool_categorized_EN.txt	CEDAR	Trees	7	1	[0, 0, 0]	n/a	catFR1	1	R1320D
429.811	0.903	411231	WORD_OFF	n/a	n/a	CEDAR	Trees	7	1	[0, 0, 0]	n/a	catFR1	1	R1320D
430.714	1.6	412134	WORD	n/a	wordpools/wordpool_categorized_EN.txt	WALNUT	Trees	8	1	[0, 0, 0]	n/a	catFR1	1	R1320D
432.344	1.079	413764	WORD_OFF	n/a	n/a	WALNUT	Trees	8	1	[0, 0, 0]	n/a	catFR1	1	R1320D
433.423	1.6	414843	WORD	n/a	wordpools/wordpool_categorized_EN.txt	LEG	BodyParts	9	1	[0, 0, 0]	n/a	catFR1	1	R1320D
435.044	0.784	416464	WORD_OFF	n/a	n/a	LEG	BodyParts	9	1	[0, 0, 0]	n/a	catFR1	1	R1320D
435.828	1.6	417248	WORD	n/a	wordpools/wordpool_categorized_EN.txt	ELBOW	BodyParts	10	1	[0, 0, 0]	n/a	catFR1	1	R1320D
437.462	0.794	418881	WORD_OFF	n/a	n/a	ELBOW	BodyParts	10	1	[0, 0, 0]	n/a	catFR1	1	R1320D
438.256	1.6	419675	WORD	n/a	wordpools/wordpool_categorized_EN.txt	SPINACH	Vegetables	11	1	[0, 0, 0]	n/a	catFR1	1	R1320D
439.863	1.006	421282	WORD_OFF	n/a	n/a	SPINACH	Vegetables	11	1	[0, 0, 0]	n/a	catFR1	1	R1320D
440.869	1.6	422288	WORD	n/a	wordpools/wordpool_categorized_EN.txt	CORN	Vegetables	12	1	[0, 0, 0]	n/a	catFR1	1	R1320D
442.496	0.0	423915	WORD_OFF	n/a	n/a	CORN	Vegetables	12	1	[0, 0, 0]	n/a	catFR1	1	R1320D
442.496	0.0	423915	ENCODING_END	n/a	n/a	n/a	n/a	-999	1	[0, 0, 0]	n/a	catFR1	1	R1320D
442.496	0.001	423915	DISTRACT_START	n/a	n/a	n/a	n/a	-999	1	[0, 0, 0]	n/a	catFR1	1	R1320D
442.497	0.016	423916	START	n/a	n/a	n/a	n/a	-999	1	[-999, -999, -999]	n/a	catFR1	1	R1320D
442.513	4.834	423932	PROB	4.808	n/a	n/a	n/a	-999	1	[7, 6, 1]	14.0	catFR1	1	R1320D
447.347	6.851	428766	PROB	6.821	n/a	n/a	n/a	-999	1	[9, 9, 8]	24.0	catFR1	1	R1320D
454.198	10.698	435617	PROB	10.698	n/a	n/a	n/a	-999	1	[9, 6, 9]	24.0	catFR1	1	R1320D
464.896	0.021	446314	STOP	n/a	n/a	n/a	n/a	-999	1	[-999, -999, -999]	n/a	catFR1	1	R1320D
464.917	1.215	446335	DISTRACT_END	n/a	n/a	n/a	n/a	-999	1	[0, 0, 0]	n/a	catFR1	1	R1320D
466.132	1.6	447550	RETRIEVAL_ORIENT_START	n/a	n/a	n/a	n/a	-999	1	[0, 0, 0]	n/a	catFR1	1	R1320D
467.167	0.0	448585	REC_START	n/a	n/a	n/a	n/a	-999	1	[0, 0, 0]	n/a	catFR1	1	R1320D
467.167	3.457	448585	RETRIEVAL_ORIENT_END	n/a	n/a	n/a	n/a	-999	1	[0, 0, 0]	n/a	catFR1	1	R1320D
470.624	1.0	452042	REC_WORD	3.457	n/a	BROCCOLI	Vegetables	6	1	[0, 0, 0]	n/a	catFR1	1	R1320D
471.624	6.258	453042	REC_WORD_VV	4.457	n/a	<>	n/a	-999	1	[0, 0, 0]	n/a	catFR1	1	R1320D
477.882	9.105	459299	REC_WORD	10.715	n/a	CORN	Vegetables	12	1	[0, 0, 0]	n/a	catFR1	1	R1320D
486.987	10.694	468404	REC_WORD_VV	19.82	n/a	<>	n/a	-999	1	[0, 0, 0]	n/a	catFR1	1	R1320D
497.681	0.0	479097	REC_END	n/a	n/a	n/a	n/a	-999	1	[0, 0, 0]	n/a	catFR1	1	R1320D
497.681	0.0	479097	TRIAL_END	n/a	n/a	n/a	n/a	-999	1	[0, 0, 0]	n/a	catFR1	1	R1320D
497.681	0.0	479097	TRIAL_START	n/a	n/a	n/a	n/a	-999	2	[0, 0, 0]	n/a	catFR1	1	R1320D
497.681	0.0	479097	TRIAL	n/a	n/a	n/a	n/a	-999	2	[0, 0, 0]	n/a	catFR1	1	R1320D
497.681	3.508	479097	WAITING_START	n/a	n/a	n/a	n/a	-999	2	[0, 0, 0]	n/a	catFR1	1	R1320D
501.189	0.0	482605	WAITING_END	n/a	n/a	n/a	n/a	-999	2	[0, 0, 0]	n/a	catFR1	1	R1320D
501.189	10.0	482605	COUNTDOWN_START	n/a	n/a	n/a	n/a	-999	2	[0, 0, 0]	n/a	catFR1	1	R1320D
501.189	0.0	482605	COUNTDOWN_END	n/a	n/a	n/a	n/a	-999	2	[0, 0, 0]	n/a	catFR1	1	R1320D
501.189	11.687	482605	ORIENT_START	n/a	n/a	n/a	n/a	-999	2	[0, 0, 0]	n/a	catFR1	1	R1320D
512.876	0.0	494292	ORIENT_END	n/a	n/a	n/a	n/a	-999	2	[0, 0, 0]	n/a	catFR1	1	R1320D
512.876	0.942	494292	ENCODING_START	n/a	n/a	n/a	n/a	-999	2	[0, 0, 0]	n/a	catFR1	1	R1320D
513.818	1.6	495234	WORD	n/a	wordpools/wordpool_categorized_EN.txt	SPARROW	Birds	1	2	[0, 0, 0]	n/a	catFR1	1	R1320D
515.443	0.772	496858	WORD_OFF	n/a	n/a	SPARROW	Birds	1	2	[0, 0, 0]	n/a	catFR1	1	R1320D
516.215	1.6	497630	WORD	n/a	wordpools/wordpool_categorized_EN.txt	CROW	Birds	2	2	[0, 0, 0]	n/a	catFR1	1	R1320D
517.843	0.816	499258	WORD_OFF	n/a	n/a	CROW	Birds	2	2	[0, 0, 0]	n/a	catFR1	1	R1320D
518.659	1.6	500074	WORD	n/a	wordpools/wordpool_categorized_EN.txt	WHISK	KitchenTools	3	2	[0, 0, 0]	n/a	catFR1	1	R1320D
520.293	0.837	501708	WORD_OFF	n/a	n/a	WHISK	KitchenTools	3	2	[0, 0, 0]	n/a	catFR1	1	R1320D
521.13	1.6	502545	WORD	n/a	wordpools/wordpool_categorized_EN.txt	SPOON	KitchenTools	4	2	[0, 0, 0]	n/a	catFR1	1	R1320D
522.761	0.956	504176	WORD_OFF	n/a	n/a	SPOON	KitchenTools	4	2	[0, 0, 0]	n/a	catFR1	1	R1320D
523.717	1.6	505132	WORD	n/a	wordpools/wordpool_categorized_EN.txt	GLUE	OfficeSupplies	5	2	[0, 0, 0]	n/a	catFR1	1	R1320D
525.345	0.874	506760	WORD_OFF	n/a	n/a	GLUE	OfficeSupplies	5	2	[0, 0, 0]	n/a	catFR1	1	R1320D
526.219	1.6	507634	WORD	n/a	wordpools/wordpool_categorized_EN.txt	STAPLER	OfficeSupplies	6	2	[0, 0, 0]	n/a	catFR1	1	R1320D
527.845	0.885	509260	WORD_OFF	n/a	n/a	STAPLER	OfficeSupplies	6	2	[0, 0, 0]	n/a	catFR1	1	R1320D
528.73	1.6	510145	WORD	n/a	wordpools/wordpool_categorized_EN.txt	COLANDER	KitchenTools	7	2	[0, 0, 0]	n/a	catFR1	1	R1320D
530.362	1.142	511777	WORD_OFF	n/a	n/a	COLANDER	KitchenTools	7	2	[0, 0, 0]	n/a	catFR1	1	R1320D
531.504	1.6	512919	WORD	n/a	wordpools/wordpool_categorized_EN.txt	GRATER	KitchenTools	8	2	[0, 0, 0]	n/a	catFR1	1	R1320D
533.128	0.925	514543	WORD_OFF	n/a	n/a	GRATER	KitchenTools	8	2	[0, 0, 0]	n/a	catFR1	1	R1320D
534.053	1.6	515468	WORD	n/a	wordpools/wordpool_categorized_EN.txt	NOTEBOOK	OfficeSupplies	9	2	[0, 0, 0]	n/a	catFR1	1	R1320D
535.663	1.009	517077	WORD_OFF	n/a	n/a	NOTEBOOK	OfficeSupplies	9	2	[0, 0, 0]	n/a	catFR1	1	R1320D
536.672	1.6	518086	WORD	n/a	wordpools/wordpool_categorized_EN.txt	ERASER	OfficeSupplies	10	2	[0, 0, 0]	n/a	catFR1	1	R1320D
538.297	0.953	519711	WORD_OFF	n/a	n/a	ERASER	OfficeSupplies	10	2	[0, 0, 0]	n/a	catFR1	1	R1320D
539.25	1.6	520664	WORD	n/a	wordpools/wordpool_categorized_EN.txt	BLUEBIRD	Birds	11	2	[0, 0, 0]	n/a	catFR1	1	R1320D
540.881	1.139	522295	WORD_OFF	n/a	n/a	BLUEBIRD	Birds	11	2	[0, 0, 0]	n/a	catFR1	1	R1320D
542.02	1.6	523434	WORD	n/a	wordpools/wordpool_categorized_EN.txt	FINCH	Birds	12	2	[0, 0, 0]	n/a	catFR1	1	R1320D
543.648	0.0	525062	DISTRACT_START	n/a	n/a	n/a	n/a	-999	2	[0, 0, 0]	n/a	catFR1	1	R1320D
543.648	0.0	525062	WORD_OFF	n/a	n/a	FINCH	Birds	12	2	[0, 0, 0]	n/a	catFR1	1	R1320D
543.648	0.001	525062	ENCODING_END	n/a	n/a	n/a	n/a	-999	2	[0, 0, 0]	n/a	catFR1	1	R1320D
543.649	0.016	525063	START	n/a	n/a	n/a	n/a	-999	2	[-999, -999, -999]	n/a	catFR1	1	R1320D
543.665	4.55	525079	PROB	4.519	n/a	n/a	n/a	-999	2	[3, 1, 6]	10.0	catFR1	1	R1320D
548.215	11.918	529629	PROB	11.896	n/a	n/a	n/a	-999	2	[7, 7, 4]	18.0	catFR1	1	R1320D
560.133	8.067	541546	PROB	8.067	n/a	n/a	n/a	-999	2	[9, 9, 2]	20.0	catFR1	1	R1320D
568.2	0.018	549613	STOP	n/a	n/a	n/a	n/a	-999	2	[-999, -999, -999]	n/a	catFR1	1	R1320D
568.218	1.064	549631	DISTRACT_END	n/a	n/a	n/a	n/a	-999	2	[0, 0, 0]	n/a	catFR1	1	R1320D
569.282	1.6	550695	RETRIEVAL_ORIENT_START	n/a	n/a	n/a	n/a	-999	2	[0, 0, 0]	n/a	catFR1	1	R1320D
570.303	0.0	551716	RETRIEVAL_ORIENT_END	n/a	n/a	n/a	n/a	-999	2	[0, 0, 0]	n/a	catFR1	1	R1320D
570.303	13.261	551716	REC_START	n/a	n/a	n/a	n/a	-999	2	[0, 0, 0]	n/a	catFR1	1	R1320D
583.564	3.129	564976	REC_WORD	13.261	n/a	STAPLES	n/a	-999	2	[0, 0, 0]	n/a	catFR1	1	R1320D
586.693	6.73	568105	REC_WORD_VV	16.39	n/a	<>	n/a	-999	2	[0, 0, 0]	n/a	catFR1	1	R1320D
593.423	7.391	574835	REC_WORD	23.12	n/a	BROCCOLI	Vegetables	-999	2	[0, 0, 0]	n/a	catFR1	1	R1320D
600.814	0.0	582225	REC_END	n/a	n/a	n/a	n/a	-999	2	[0, 0, 0]	n/a	catFR1	1	R1320D
600.814	0.0	582225	TRIAL_END	n/a	n/a	n/a	n/a	-999	2	[0, 0, 0]	n/a	catFR1	1	R1320D
600.814	0.0	582225	TRIAL_START	n/a	n/a	n/a	n/a	-999	3	[0, 0, 0]	n/a	catFR1	1	R1320D
600.814	0.0	582225	TRIAL	n/a	n/a	n/a	n/a	-999	3	[0, 0, 0]	n/a	catFR1	1	R1320D
600.814	2.344	582225	WAITING_START	n/a	n/a	n/a	n/a	-999	3	[0, 0, 0]	n/a	catFR1	1	R1320D
603.158	0.0	584569	ORIENT_START	n/a	n/a	n/a	n/a	-999	3	[0, 0, 0]	n/a	catFR1	1	R1320D
603.158	10.0	584569	COUNTDOWN_START	n/a	n/a	n/a	n/a	-999	3	[0, 0, 0]	n/a	catFR1	1	R1320D
603.158	0.0	584569	COUNTDOWN_END	n/a	n/a	n/a	n/a	-999	3	[0, 0, 0]	n/a	catFR1	1	R1320D
603.158	11.536	584569	WAITING_END	n/a	n/a	n/a	n/a	-999	3	[0, 0, 0]	n/a	catFR1	1	R1320D
614.694	0.0	596104	ORIENT_END	n/a	n/a	n/a	n/a	-999	3	[0, 0, 0]	n/a	catFR1	1	R1320D
614.694	0.756	596104	ENCODING_START	n/a	n/a	n/a	n/a	-999	3	[0, 0, 0]	n/a	catFR1	1	R1320D
615.45	1.6	596860	WORD	n/a	wordpools/wordpool_categorized_EN.txt	JEANS	Clothing	1	3	[0, 0, 0]	n/a	catFR1	1	R1320D
617.077	0.883	598487	WORD_OFF	n/a	n/a	JEANS	Clothing	1	3	[0, 0, 0]	n/a	catFR1	1	R1320D
617.96	1.6	599370	WORD	n/a	wordpools/wordpool_categorized_EN.txt	PANTS	Clothing	2	3	[0, 0, 0]	n/a	catFR1	1	R1320D
619.595	1.04	601005	WORD_OFF	n/a	n/a	PANTS	Clothing	2	3	[0, 0, 0]	n/a	catFR1	1	R1320D
620.635	1.6	602045	WORD	n/a	wordpools/wordpool_categorized_EN.txt	BUTTERFLY	Insects	3	3	[0, 0, 0]	n/a	catFR1	1	R1320D
622.261	1.08	603671	WORD_OFF	n/a	n/a	BUTTERFLY	Insects	3	3	[0, 0, 0]	n/a	catFR1	1	R1320D
623.341	1.6	604751	WORD	n/a	wordpools/wordpool_categorized_EN.txt	SPIDER	Insects	4	3	[0, 0, 0]	n/a	catFR1	1	R1320D
624.98	0.921	606390	WORD_OFF	n/a	n/a	SPIDER	Insects	4	3	[0, 0, 0]	n/a	catFR1	1	R1320D
625.901	1.6	607311	WORD	n/a	wordpools/wordpool_categorized_EN.txt	LADLE	KitchenTools	5	3	[0, 0, 0]	n/a	catFR1	1	R1320D
627.53	0.809	608940	WORD_OFF	n/a	n/a	LADLE	KitchenTools	5	3	[0, 0, 0]	n/a	catFR1	1	R1320D
628.339	1.6	609749	WORD	n/a	wordpools/wordpool_categorized_EN.txt	KNIFE	KitchenTools	6	3	[0, 0, 0]	n/a	catFR1	1	R1320D
629.964	0.774	611374	WORD_OFF	n/a	n/a	KNIFE	KitchenTools	6	3	[0, 0, 0]	n/a	catFR1	1	R1320D
630.738	1.6	612148	WORD	n/a	wordpools/wordpool_categorized_EN.txt	SHORTS	Clothing	7	3	[0, 0, 0]	n/a	catFR1	1	R1320D
632.364	0.938	613774	WORD_OFF	n/a	n/a	SHORTS	Clothing	7	3	[0, 0, 0]	n/a	catFR1	1	R1320D
633.302	1.6	614711	WORD	n/a	wordpools/wordpool_categorized_EN.txt	JACKET	Clothing	8	3	[0, 0, 0]	n/a	catFR1	1	R1320D
634.931	1.033	616340	WORD_OFF	n/a	n/a	JACKET	Clothing	8	3	[0, 0, 0]	n/a	catFR1	1	R1320D
635.964	1.6	617373	WORD	n/a	wordpools/wordpool_categorized_EN.txt	PEELER	KitchenTools	9	3	[0, 0, 0]	n/a	catFR1	1	R1320D
637.599	1.121	619008	WORD_OFF	n/a	n/a	PEELER	KitchenTools	9	3	[0, 0, 0]	n/a	catFR1	1	R1320D
638.72	1.6	620129	WORD	n/a	wordpools/wordpool_categorized_EN.txt	TONGS	KitchenTools	10	3	[0, 0, 0]	n/a	catFR1	1	R1320D
640.349	0.936	621758	WORD_OFF	n/a	n/a	TONGS	KitchenTools	10	3	[0, 0, 0]	n/a	catFR1	1	R1320D
641.285	1.6	622694	WORD	n/a	wordpools/wordpool_categorized_EN.txt	BEE	Insects	11	3	[0, 0, 0]	n/a	catFR1	1	R1320D
642.916	0.974	624325	WORD_OFF	n/a	n/a	BEE	Insects	11	3	[0, 0, 0]	n/a	catFR1	1	R1320D
643.89	1.6	625299	WORD	n/a	wordpools/wordpool_categorized_EN.txt	LADYBUG	Insects	12	3	[0, 0, 0]	n/a	catFR1	1	R1320D
645.517	0.0	626926	WORD_OFF	n/a	n/a	LADYBUG	Insects	12	3	[0, 0, 0]	n/a	catFR1	1	R1320D
645.517	0.0	626926	ENCODING_END	n/a	n/a	n/a	n/a	-999	3	[0, 0, 0]	n/a	catFR1	1	R1320D
645.517	0.001	626926	DISTRACT_START	n/a	n/a	n/a	n/a	-999	3	[0, 0, 0]	n/a	catFR1	1	R1320D
645.518	0.015	626927	START	n/a	n/a	n/a	n/a	-999	3	[-999, -999, -999]	n/a	catFR1	1	R1320D
645.533	6.885	626942	PROB	6.851	n/a	n/a	n/a	-999	3	[9, 9, 9]	27.0	catFR1	1	R1320D
652.418	19.246	633827	PROB	19.246	n/a	n/a	n/a	-999	3	[8, 7, 4]	19.0	catFR1	1	R1320D
671.664	0.007	653072	STOP	n/a	n/a	n/a	n/a	-999	3	[-999, -999, -999]	n/a	catFR1	1	R1320D
671.671	1.206	653079	DISTRACT_END	n/a	n/a	n/a	n/a	-999	3	[0, 0, 0]	n/a	catFR1	1	R1320D
672.877	1.6	654284	RETRIEVAL_ORIENT_START	n/a	n/a	n/a	n/a	-999	3	[0, 0, 0]	n/a	catFR1	1	R1320D
673.905	0.0	655312	RETRIEVAL_ORIENT_END	n/a	n/a	n/a	n/a	-999	3	[0, 0, 0]	n/a	catFR1	1	R1320D
673.905	17.797	655312	REC_START	n/a	n/a	n/a	n/a	-999	3	[0, 0, 0]	n/a	catFR1	1	R1320D
691.702	12.716	673109	REC_WORD_VV	17.797	n/a	<>	n/a	-999	3	[0, 0, 0]	n/a	catFR1	1	R1320D
704.418	0.0	685824	WAITING_START	n/a	n/a	n/a	n/a	-999	4	[0, 0, 0]	n/a	catFR1	1	R1320D
704.418	0.0	685824	TRIAL	n/a	n/a	n/a	n/a	-999	4	[0, 0, 0]	n/a	catFR1	1	R1320D
704.418	0.0	685824	TRIAL_END	n/a	n/a	n/a	n/a	-999	3	[0, 0, 0]	n/a	catFR1	1	R1320D
704.418	0.0	685824	TRIAL_START	n/a	n/a	n/a	n/a	-999	4	[0, 0, 0]	n/a	catFR1	1	R1320D
704.418	3.31	685824	REC_END	n/a	n/a	n/a	n/a	-999	3	[0, 0, 0]	n/a	catFR1	1	R1320D
707.728	0.0	689134	WAITING_END	n/a	n/a	n/a	n/a	-999	4	[0, 0, 0]	n/a	catFR1	1	R1320D
707.728	10.0	689134	COUNTDOWN_START	n/a	n/a	n/a	n/a	-999	4	[0, 0, 0]	n/a	catFR1	1	R1320D
707.728	0.0	689134	COUNTDOWN_END	n/a	n/a	n/a	n/a	-999	4	[0, 0, 0]	n/a	catFR1	1	R1320D
707.728	11.652	689134	ORIENT_START	n/a	n/a	n/a	n/a	-999	4	[0, 0, 0]	n/a	catFR1	1	R1320D
719.38	0.0	700785	ORIENT_END	n/a	n/a	n/a	n/a	-999	4	[0, 0, 0]	n/a	catFR1	1	R1320D
719.38	0.863	700785	ENCODING_START	n/a	n/a	n/a	n/a	-999	4	[0, 0, 0]	n/a	catFR1	1	R1320D
720.243	1.6	701648	WORD	n/a	wordpools/wordpool_categorized_EN.txt	REFRIGERATOR	Appliances	1	4	[0, 0, 0]	n/a	catFR1	1	R1320D
721.881	0.779	703286	WORD_OFF	n/a	n/a	REFRIGERATOR	Appliances	1	4	[0, 0, 0]	n/a	catFR1	1	R1320D
722.66	1.6	704065	WORD	n/a	wordpools/wordpool_categorized_EN.txt	IRON	Appliances	2	4	[0, 0, 0]	n/a	catFR1	1	R1320D
724.28	0.936	705685	WORD_OFF	n/a	n/a	IRON	Appliances	2	4	[0, 0, 0]	n/a	catFR1	1	R1320D
725.216	1.6	706621	WORD	n/a	wordpools/wordpool_categorized_EN.txt	PEAR	Fruit	3	4	[0, 0, 0]	n/a	catFR1	1	R1320D
726.848	0.765	708253	WORD_OFF	n/a	n/a	PEAR	Fruit	3	4	[0, 0, 0]	n/a	catFR1	1	R1320D
727.613	1.6	709018	WORD	n/a	wordpools/wordpool_categorized_EN.txt	LEMON	Fruit	4	4	[0, 0, 0]	n/a	catFR1	1	R1320D
729.248	0.764	710653	WORD_OFF	n/a	n/a	LEMON	Fruit	4	4	[0, 0, 0]	n/a	catFR1	1	R1320D
730.012	1.6	711417	WORD	n/a	wordpools/wordpool_categorized_EN.txt	JEEP	Vehicles	5	4	[0, 0, 0]	n/a	catFR1	1	R1320D
731.649	1.104	713053	WORD_OFF	n/a	n/a	JEEP	Vehicles	5	4	[0, 0, 0]	n/a	catFR1	1	R1320D
732.753	1.6	714157	WORD	n/a	wordpools/wordpool_categorized_EN.txt	SCOOTER	Vehicles	6	4	[0, 0, 0]	n/a	catFR1	1	R1320D
734.383	1.078	715787	WORD_OFF	n/a	n/a	SCOOTER	Vehicles	6	4	[0, 0, 0]	n/a	catFR1	1	R1320D
735.461	1.6	716865	WORD	n/a	wordpools/wordpool_categorized_EN.txt	FREEZER	Appliances	7	4	[0, 0, 0]	n/a	catFR1	1	R1320D
737.082	0.869	718486	WORD_OFF	n/a	n/a	FREEZER	Appliances	7	4	[0, 0, 0]	n/a	catFR1	1	R1320D
737.951	1.6	719355	WORD	n/a	wordpools/wordpool_categorized_EN.txt	BLENDER	Appliances	8	4	[0, 0, 0]	n/a	catFR1	1	R1320D
739.584	0.824	720988	WORD_OFF	n/a	n/a	BLENDER	Appliances	8	4	[0, 0, 0]	n/a	catFR1	1	R1320D
740.408	1.6	721812	WORD	n/a	wordpools/wordpool_categorized_EN.txt	CHERRY	Fruit	9	4	[0, 0, 0]	n/a	catFR1	1	R1320D
742.033	1.138	723437	WORD_OFF	n/a	n/a	CHERRY	Fruit	9	4	[0, 0, 0]	n/a	catFR1	1	R1320D
743.171	1.6	724575	WORD	n/a	wordpools/wordpool_categorized_EN.txt	PEACH	Fruit	10	4	[0, 0, 0]	n/a	catFR1	1	R1320D
744.785	1.094	726189	WORD_OFF	n/a	n/a	PEACH	Fruit	10	4	[0, 0, 0]	n/a	catFR1	1	R1320D
745.879	1.6	727283	WORD	n/a	wordpools/wordpool_categorized_EN.txt	BOAT	Vehicles	11	4	[0, 0, 0]	n/a	catFR1	1	R1320D
747.502	1.042	728906	WORD_OFF	n/a	n/a	BOAT	Vehicles	11	4	[0, 0, 0]	n/a	catFR1	1	R1320D
748.544	1.6	729948	WORD	n/a	wordpools/wordpool_categorized_EN.txt	BUS	Vehicles	12	4	[0, 0, 0]	n/a	catFR1	1	R1320D
750.168	0.0	731572	WORD_OFF	n/a	n/a	BUS	Vehicles	12	4	[0, 0, 0]	n/a	catFR1	1	R1320D
750.168	0.0	731572	ENCODING_END	n/a	n/a	n/a	n/a	-999	4	[0, 0, 0]	n/a	catFR1	1	R1320D
750.168	0.001	731572	DISTRACT_START	n/a	n/a	n/a	n/a	-999	4	[0, 0, 0]	n/a	catFR1	1	R1320D
750.169	0.016	731573	START	n/a	n/a	n/a	n/a	-999	4	[-999, -999, -999]	n/a	catFR1	1	R1320D
750.185	6.419	731589	PROB	6.384	n/a	n/a	n/a	-999	4	[9, 6, 9]	24.0	catFR1	1	R1320D
756.604	10.085	738007	PROB	10.053	n/a	n/a	n/a	-999	4	[4, 3, 5]	12.0	catFR1	1	R1320D
766.689	6.719	748092	PROB	6.719	n/a	n/a	n/a	-999	4	[6, 3, 9]	18.0	catFR1	1	R1320D
773.408	0.015	754810	STOP	n/a	n/a	n/a	n/a	-999	4	[-999, -999, -999]	n/a	catFR1	1	R1320D
773.423	1.317	754825	DISTRACT_END	n/a	n/a	n/a	n/a	-999	4	[0, 0, 0]	n/a	catFR1	1	R1320D
774.74	1.6	756142	RETRIEVAL_ORIENT_START	n/a	n/a	n/a	n/a	-999	4	[0, 0, 0]	n/a	catFR1	1	R1320D
775.774	0.0	757176	RETRIEVAL_ORIENT_END	n/a	n/a	n/a	n/a	-999	4	[0, 0, 0]	n/a	catFR1	1	R1320D
775.774	5.397	757176	REC_START	n/a	n/a	n/a	n/a	-999	4	[0, 0, 0]	n/a	catFR1	1	R1320D
781.171	0.631	762573	REC_WORD_VV	5.397	n/a	<>	n/a	-999	4	[0, 0, 0]	n/a	catFR1	1	R1320D
781.802	6.599	763204	REC_WORD	6.028	n/a	BOAT	Vehicles	11	4	[0, 0, 0]	n/a	catFR1	1	R1320D
788.401	3.629	769803	REC_WORD_VV	12.627	n/a	<>	n/a	-999	4	[0, 0, 0]	n/a	catFR1	1	R1320D
792.03	14.256	773431	REC_WORD	16.256	n/a	BLENDER	Appliances	8	4	[0, 0, 0]	n/a	catFR1	1	R1320D
806.286	0.0	787687	REC_END	n/a	n/a	n/a	n/a	-999	4	[0, 0, 0]	n/a	catFR1	1	R1320D
806.286	0.0	787687	TRIAL_END	n/a	n/a	n/a	n/a	-999	4	[0, 0, 0]	n/a	catFR1	1	R1320D
806.286	0.0	787687	TRIAL_START	n/a	n/a	n/a	n/a	-999	5	[0, 0, 0]	n/a	catFR1	1	R1320D
806.286	0.0	787687	TRIAL	n/a	n/a	n/a	n/a	-999	5	[0, 0, 0]	n/a	catFR1	1	R1320D
806.286	2.943	787687	WAITING_START	n/a	n/a	n/a	n/a	-999	5	[0, 0, 0]	n/a	catFR1	1	R1320D
809.229	0.0	790630	WAITING_END	n/a	n/a	n/a	n/a	-999	5	[0, 0, 0]	n/a	catFR1	1	R1320D
809.229	10.0	790630	COUNTDOWN_START	n/a	n/a	n/a	n/a	-999	5	[0, 0, 0]	n/a	catFR1	1	R1320D
809.229	0.0	790630	COUNTDOWN_END	n/a	n/a	n/a	n/a	-999	5	[0, 0, 0]	n/a	catFR1	1	R1320D
809.229	11.536	790630	ORIENT_START	n/a	n/a	n/a	n/a	-999	5	[0, 0, 0]	n/a	catFR1	1	R1320D
820.765	0.0	802165	ENCODING_START	n/a	n/a	n/a	n/a	-999	5	[0, 0, 0]	n/a	catFR1	1	R1320D
820.765	0.81	802165	ORIENT_END	n/a	n/a	n/a	n/a	-999	5	[0, 0, 0]	n/a	catFR1	1	R1320D
821.575	1.6	802975	WORD	n/a	wordpools/wordpool_categorized_EN.txt	MIXER	Appliances	1	5	[0, 0, 0]	n/a	catFR1	1	R1320D
823.198	0.993	804598	WORD_OFF	n/a	n/a	MIXER	Appliances	1	5	[0, 0, 0]	n/a	catFR1	1	R1320D
824.191	1.6	805591	WORD	n/a	wordpools/wordpool_categorized_EN.txt	VACUUM	Appliances	2	5	[0, 0, 0]	n/a	catFR1	1	R1320D
825.8	1.088	807200	WORD_OFF	n/a	n/a	VACUUM	Appliances	2	5	[0, 0, 0]	n/a	catFR1	1	R1320D
826.888	1.6	808288	WORD	n/a	wordpools/wordpool_categorized_EN.txt	HEN	FarmAnimals	3	5	[0, 0, 0]	n/a	catFR1	1	R1320D
828.517	1.013	809917	WORD_OFF	n/a	n/a	HEN	FarmAnimals	3	5	[0, 0, 0]	n/a	catFR1	1	R1320D
829.53	1.6	810930	WORD	n/a	wordpools/wordpool_categorized_EN.txt	GOAT	FarmAnimals	4	5	[0, 0, 0]	n/a	catFR1	1	R1320D
831.166	0.835	812565	WORD_OFF	n/a	n/a	GOAT	FarmAnimals	4	5	[0, 0, 0]	n/a	catFR1	1	R1320D
832.001	1.6	813400	WORD	n/a	wordpools/wordpool_categorized_EN.txt	TORNADO	Weather	5	5	[0, 0, 0]	n/a	catFR1	1	R1320D
833.617	0.934	815016	WORD_OFF	n/a	n/a	TORNADO	Weather	5	5	[0, 0, 0]	n/a	catFR1	1	R1320D
834.551	1.6	815950	WORD	n/a	wordpools/wordpool_categorized_EN.txt	RAIN	Weather	6	5	[0, 0, 0]	n/a	catFR1	1	R1320D
836.184	1.075	817583	WORD_OFF	n/a	n/a	RAIN	Weather	6	5	[0, 0, 0]	n/a	catFR1	1	R1320D
837.259	1.6	818658	WORD	n/a	wordpools/wordpool_categorized_EN.txt	DRYER	Appliances	7	5	[0, 0, 0]	n/a	catFR1	1	R1320D
838.885	0.837	820284	WORD_OFF	n/a	n/a	DRYER	Appliances	7	5	[0, 0, 0]	n/a	catFR1	1	R1320D
839.722	1.6	821121	WORD	n/a	wordpools/wordpool_categorized_EN.txt	OVEN	Appliances	8	5	[0, 0, 0]	n/a	catFR1	1	R1320D
841.352	0.766	822751	WORD_OFF	n/a	n/a	OVEN	Appliances	8	5	[0, 0, 0]	n/a	catFR1	1	R1320D
842.118	1.6	823517	WORD	n/a	wordpools/wordpool_categorized_EN.txt	HUMIDITY	Weather	9	5	[0, 0, 0]	n/a	catFR1	1	R1320D
843.753	0.931	825152	WORD_OFF	n/a	n/a	HUMIDITY	Weather	9	5	[0, 0, 0]	n/a	catFR1	1	R1320D
844.684	1.6	826083	WORD	n/a	wordpools/wordpool_categorized_EN.txt	THUNDER	Weather	10	5	[0, 0, 0]	n/a	catFR1	1	R1320D
846.32	1.127	827719	WORD_OFF	n/a	n/a	THUNDER	Weather	10	5	[0, 0, 0]	n/a	catFR1	1	R1320D
847.447	1.6	828846	WORD	n/a	wordpools/wordpool_categorized_EN.txt	COW	FarmAnimals	11	5	[0, 0, 0]	n/a	catFR1	1	R1320D
849.07	1.015	830469	WORD_OFF	n/a	n/a	COW	FarmAnimals	11	5	[0, 0, 0]	n/a	catFR1	1	R1320D
850.085	1.6	831483	WORD	n/a	wordpools/wordpool_categorized_EN.txt	HORSE	FarmAnimals	12	5	[0, 0, 0]	n/a	catFR1	1	R1320D
851.721	0.0	833119	WORD_OFF	n/a	n/a	HORSE	FarmAnimals	12	5	[0, 0, 0]	n/a	catFR1	1	R1320D
851.721	0.0	833119	ENCODING_END	n/a	n/a	n/a	n/a	-999	5	[0, 0, 0]	n/a	catFR1	1	R1320D
851.721	0.001	833119	DISTRACT_START	n/a	n/a	n/a	n/a	-999	5	[0, 0, 0]	n/a	catFR1	1	R1320D
851.722	0.016	833120	START	n/a	n/a	n/a	n/a	-999	5	[-999, -999, -999]	n/a	catFR1	1	R1320D
851.738	7.218	833136	PROB	7.191	n/a	n/a	n/a	-999	5	[3, 8, 2]	13.0	catFR1	1	R1320D
858.956	3.817	840354	PROB	3.789	n/a	n/a	n/a	-999	5	[5, 5, 1]	11.0	catFR1	1	R1320D
862.773	3.951	844171	PROB	3.916	n/a	n/a	n/a	-999	5	[3, 3, 1]	7.0	catFR1	1	R1320D
866.724	6.829	848122	PROB	6.829	n/a	n/a	n/a	-999	5	[4, 4, 3]	11.0	catFR1	1	R1320D
873.553	0.022	854950	STOP	n/a	n/a	n/a	n/a	-999	5	[-999, -999, -999]	n/a	catFR1	1	R1320D
873.575	1.215	854972	DISTRACT_END	n/a	n/a	n/a	n/a	-999	5	[0, 0, 0]	n/a	catFR1	1	R1320D
874.79	1.6	856187	RETRIEVAL_ORIENT_START	n/a	n/a	n/a	n/a	-999	5	[0, 0, 0]	n/a	catFR1	1	R1320D
875.825	0.0	857222	RETRIEVAL_ORIENT_END	n/a	n/a	n/a	n/a	-999	5	[0, 0, 0]	n/a	catFR1	1	R1320D
875.825	4.421	857222	REC_START	n/a	n/a	n/a	n/a	-999	5	[0, 0, 0]	n/a	catFR1	1	R1320D
880.246	2.678	861643	REC_WORD	4.421	n/a	TORNADO	Weather	5	5	[0, 0, 0]	n/a	catFR1	1	R1320D
882.924	2.353	864321	REC_WORD	7.099	n/a	COW	FarmAnimals	11	5	[0, 0, 0]	n/a	catFR1	1	R1320D
885.277	9.186	866674	REC_WORD_VV	9.452	n/a	<>	n/a	-999	5	[0, 0, 0]	n/a	catFR1	1	R1320D
894.463	11.873	875859	REC_WORD	18.638	n/a	COW	FarmAnimals	11	5	[0, 0, 0]	n/a	catFR1	1	R1320D
906.336	0.0	887732	WAITING_START	n/a	n/a	n/a	n/a	-999	6	[0, 0, 0]	n/a	catFR1	1	R1320D
906.336	0.0	887732	TRIAL	n/a	n/a	n/a	n/a	-999	6	[0, 0, 0]	n/a	catFR1	1	R1320D
906.336	0.0	887732	TRIAL_END	n/a	n/a	n/a	n/a	-999	5	[0, 0, 0]	n/a	catFR1	1	R1320D
906.336	0.0	887732	TRIAL_START	n/a	n/a	n/a	n/a	-999	6	[0, 0, 0]	n/a	catFR1	1	R1320D
906.336	2.728	887732	REC_END	n/a	n/a	n/a	n/a	-999	5	[0, 0, 0]	n/a	catFR1	1	R1320D
909.064	0.0	890459	ORIENT_START	n/a	n/a	n/a	n/a	-999	6	[0, 0, 0]	n/a	catFR1	1	R1320D
909.064	0.0	890459	WAITING_END	n/a	n/a	n/a	n/a	-999	6	[0, 0, 0]	n/a	catFR1	1	R1320D
909.064	10.0	890459	COUNTDOWN_START	n/a	n/a	n/a	n/a	-999	6	[0, 0, 0]	n/a	catFR1	1	R1320D
909.064	11.619	890459	COUNTDOWN_END	n/a	n/a	n/a	n/a	-999	6	[0, 0, 0]	n/a	catFR1	1	R1320D
920.683	0.0	902078	ORIENT_END	n/a	n/a	n/a	n/a	-999	6	[0, 0, 0]	n/a	catFR1	1	R1320D
920.683	0.992	902078	ENCODING_START	n/a	n/a	n/a	n/a	-999	6	[0, 0, 0]	n/a	catFR1	1	R1320D
921.675	1.6	903070	WORD	n/a	wordpools/wordpool_categorized_EN.txt	UNDERWEAR	Clothing	1	6	[0, 0, 0]	n/a	catFR1	1	R1320D
923.301	1.11	904696	WORD_OFF	n/a	n/a	UNDERWEAR	Clothing	1	6	[0, 0, 0]	n/a	catFR1	1	R1320D
924.411	1.6	905806	WORD	n/a	wordpools/wordpool_categorized_EN.txt	COAT	Clothing	2	6	[0, 0, 0]	n/a	catFR1	1	R1320D
926.033	0.871	907428	WORD_OFF	n/a	n/a	COAT	Clothing	2	6	[0, 0, 0]	n/a	catFR1	1	R1320D
926.904	1.6	908299	WORD	n/a	wordpools/wordpool_categorized_EN.txt	CREEK	Landscapes	3	6	[0, 0, 0]	n/a	catFR1	1	R1320D
928.535	0.917	909929	WORD_OFF	n/a	n/a	CREEK	Landscapes	3	6	[0, 0, 0]	n/a	catFR1	1	R1320D
929.452	1.6	910846	WORD	n/a	wordpools/wordpool_categorized_EN.txt	FOREST	Landscapes	4	6	[0, 0, 0]	n/a	catFR1	1	R1320D
931.084	0.752	912478	WORD_OFF	n/a	n/a	FOREST	Landscapes	4	6	[0, 0, 0]	n/a	catFR1	1	R1320D
931.836	1.6	913230	WORD	n/a	wordpools/wordpool_categorized_EN.txt	CARROT	Vegetables	5	6	[0, 0, 0]	n/a	catFR1	1	R1320D
933.469	0.985	914863	WORD_OFF	n/a	n/a	CARROT	Vegetables	5	6	[0, 0, 0]	n/a	catFR1	1	R1320D
934.454	1.6	915848	WORD	n/a	wordpools/wordpool_categorized_EN.txt	CELERY	Vegetables	6	6	[0, 0, 0]	n/a	catFR1	1	R1320D
936.085	0.91	917479	WORD_OFF	n/a	n/a	CELERY	Vegetables	6	6	[0, 0, 0]	n/a	catFR1	1	R1320D
936.995	1.6	918389	WORD	n/a	wordpools/wordpool_categorized_EN.txt	SKIRT	Clothing	7	6	[0, 0, 0]	n/a	catFR1	1	R1320D
938.62	0.892	920014	WORD_OFF	n/a	n/a	SKIRT	Clothing	7	6	[0, 0, 0]	n/a	catFR1	1	R1320D
939.512	1.6	920906	WORD	n/a	wordpools/wordpool_categorized_EN.txt	BLOUSE	Clothing	8	6	[0, 0, 0]	n/a	catFR1	1	R1320D
941.136	1.098	922530	WORD_OFF	n/a	n/a	BLOUSE	Clothing	8	6	[0, 0, 0]	n/a	catFR1	1	R1320D
942.234	1.6	923628	WORD	n/a	wordpools/wordpool_categorized_EN.txt	CABBAGE	Vegetables	9	6	[0, 0, 0]	n/a	catFR1	1	R1320D
943.871	1.085	925265	WORD_OFF	n/a	n/a	CABBAGE	Vegetables	9	6	[0, 0, 0]	n/a	catFR1	1	R1320D
944.956	1.6	926350	WORD	n/a	wordpools/wordpool_categorized_EN.txt	CAULIFLOWER	Vegetables	10	6	[0, 0, 0]	n/a	catFR1	1	R1320D
946.588	1.069	927982	WORD_OFF	n/a	n/a	CAULIFLOWER	Vegetables	10	6	[0, 0, 0]	n/a	catFR1	1	R1320D
947.657	1.6	929051	WORD	n/a	wordpools/wordpool_categorized_EN.txt	HILLS	Landscapes	11	6	[0, 0, 0]	n/a	catFR1	1	R1320D
949.288	1.035	930681	WORD_OFF	n/a	n/a	HILLS	Landscapes	11	6	[0, 0, 0]	n/a	catFR1	1	R1320D
950.323	1.6	931716	WORD	n/a	wordpools/wordpool_categorized_EN.txt	BEACH	Landscapes	12	6	[0, 0, 0]	n/a	catFR1	1	R1320D
951.956	0.0	933349	WORD_OFF	n/a	n/a	BEACH	Landscapes	12	6	[0, 0, 0]	n/a	catFR1	1	R1320D
951.956	0.0	933349	ENCODING_END	n/a	n/a	n/a	n/a	-999	6	[0, 0, 0]	n/a	catFR1	1	R1320D
951.956	0.001	933349	DISTRACT_START	n/a	n/a	n/a	n/a	-999	6	[0, 0, 0]	n/a	catFR1	1	R1320D
951.957	0.015	933350	START	n/a	n/a	n/a	n/a	-999	6	[-999, -999, -999]	n/a	catFR1	1	R1320D
951.972	12.703	933365	PROB	12.669	n/a	n/a	n/a	-999	6	[5, 3, 3]	11.0	catFR1	1	R1320D
964.675	6.801	946068	PROB	6.765	n/a	n/a	n/a	-999	6	[2, 9, 4]	15.0	catFR1	1	R1320D
971.476	8.181	952868	PROB	8.181	n/a	n/a	n/a	-999	6	[9, 5, 2]	16.0	catFR1	1	R1320D
979.657	0.021	961049	STOP	n/a	n/a	n/a	n/a	-999	6	[-999, -999, -999]	n/a	catFR1	1	R1320D
979.678	1.236	961070	DISTRACT_END	n/a	n/a	n/a	n/a	-999	6	[0, 0, 0]	n/a	catFR1	1	R1320D
980.914	1.6	962306	RETRIEVAL_ORIENT_START	n/a	n/a	n/a	n/a	-999	6	[0, 0, 0]	n/a	catFR1	1	R1320D
981.945	0.0	963337	REC_START	n/a	n/a	n/a	n/a	-999	6	[0, 0, 0]	n/a	catFR1	1	R1320D
981.945	5.347	963337	RETRIEVAL_ORIENT_END	n/a	n/a	n/a	n/a	-999	6	[0, 0, 0]	n/a	catFR1	1	R1320D
987.292	25.164	968683	REC_WORD	5.347	n/a	CAULIFLOWER	Vegetables	10	6	[0, 0, 0]	n/a	catFR1	1	R1320D
1012.456	0.0	993846	WAITING_START	n/a	n/a	n/a	n/a	-999	7	[0, 0, 0]	n/a	catFR1	1	R1320D
1012.456	0.0	993846	TRIAL	n/a	n/a	n/a	n/a	-999	7	[0, 0, 0]	n/a	catFR1	1	R1320D
1012.456	0.0	993846	TRIAL_START	n/a	n/a	n/a	n/a	-999	7	[0, 0, 0]	n/a	catFR1	1	R1320D
1012.456	0.0	993846	REC_END	n/a	n/a	n/a	n/a	-999	6	[0, 0, 0]	n/a	catFR1	1	R1320D
1012.456	4.295	993846	TRIAL_END	n/a	n/a	n/a	n/a	-999	6	[0, 0, 0]	n/a	catFR1	1	R1320D
1016.751	10.0	998141	COUNTDOWN_START	n/a	n/a	n/a	n/a	-999	7	[0, 0, 0]	n/a	catFR1	1	R1320D
1016.751	0.0	998141	ORIENT_START	n/a	n/a	n/a	n/a	-999	7	[0, 0, 0]	n/a	catFR1	1	R1320D
1016.751	0.0	998141	WAITING_END	n/a	n/a	n/a	n/a	-999	7	[0, 0, 0]	n/a	catFR1	1	R1320D
1016.751	11.501	998141	COUNTDOWN_END	n/a	n/a	n/a	n/a	-999	7	[0, 0, 0]	n/a	catFR1	1	R1320D
1028.252	0.0	1009641	ORIENT_END	n/a	n/a	n/a	n/a	-999	7	[0, 0, 0]	n/a	catFR1	1	R1320D
1028.252	0.886	1009641	ENCODING_START	n/a	n/a	n/a	n/a	-999	7	[0, 0, 0]	n/a	catFR1	1	R1320D
1029.138	1.6	1010527	WORD	n/a	wordpools/wordpool_categorized_EN.txt	SHIRT	Clothing	1	7	[0, 0, 0]	n/a	catFR1	1	R1320D
1030.753	0.947	1012142	WORD_OFF	n/a	n/a	SHIRT	Clothing	1	7	[0, 0, 0]	n/a	catFR1	1	R1320D
1031.7	1.6	1013089	WORD	n/a	wordpools/wordpool_categorized_EN.txt	SHOES	Clothing	2	7	[0, 0, 0]	n/a	catFR1	1	R1320D
1033.337	0.811	1014726	WORD_OFF	n/a	n/a	SHOES	Clothing	2	7	[0, 0, 0]	n/a	catFR1	1	R1320D
1034.148	1.6	1015537	WORD	n/a	wordpools/wordpool_categorized_EN.txt	MOUSSE	Desserts	3	7	[0, 0, 0]	n/a	catFR1	1	R1320D
1035.788	1.092	1017177	WORD_OFF	n/a	n/a	MOUSSE	Desserts	3	7	[0, 0, 0]	n/a	catFR1	1	R1320D
1036.88	1.6	1018269	WORD	n/a	wordpools/wordpool_categorized_EN.txt	CAKE	Desserts	4	7	[0, 0, 0]	n/a	catFR1	1	R1320D
1038.505	1.069	1019894	WORD_OFF	n/a	n/a	CAKE	Desserts	4	7	[0, 0, 0]	n/a	catFR1	1	R1320D
1039.574	1.6	1020963	WORD	n/a	wordpools/wordpool_categorized_EN.txt	LEVEL	Tools	5	7	[0, 0, 0]	n/a	catFR1	1	R1320D
1041.204	0.845	1022593	WORD_OFF	n/a	n/a	LEVEL	Tools	5	7	[0, 0, 0]	n/a	catFR1	1	R1320D
1042.049	1.6	1023438	WORD	n/a	wordpools/wordpool_categorized_EN.txt	DRILL	Tools	6	7	[0, 0, 0]	n/a	catFR1	1	R1320D
1043.673	1.058	1025062	WORD_OFF	n/a	n/a	DRILL	Tools	6	7	[0, 0, 0]	n/a	catFR1	1	R1320D
1044.731	1.6	1026120	WORD	n/a	wordpools/wordpool_categorized_EN.txt	SOCKS	Clothing	7	7	[0, 0, 0]	n/a	catFR1	1	R1320D
1046.356	0.99	1027744	WORD_OFF	n/a	n/a	SOCKS	Clothing	7	7	[0, 0, 0]	n/a	catFR1	1	R1320D
1047.346	1.6	1028734	WORD	n/a	wordpools/wordpool_categorized_EN.txt	DRESS	Clothing	8	7	[0, 0, 0]	n/a	catFR1	1	R1320D
1048.974	1.002	1030362	WORD_OFF	n/a	n/a	DRESS	Clothing	8	7	[0, 0, 0]	n/a	catFR1	1	R1320D
1049.976	1.6	1031364	WORD	n/a	wordpools/wordpool_categorized_EN.txt	COOKIE	Desserts	9	7	[0, 0, 0]	n/a	catFR1	1	R1320D
1051.607	1.047	1032995	WORD_OFF	n/a	n/a	COOKIE	Desserts	9	7	[0, 0, 0]	n/a	catFR1	1	R1320D
1052.654	1.6	1034042	WORD	n/a	wordpools/wordpool_categorized_EN.txt	CUPCAKE	Desserts	10	7	[0, 0, 0]	n/a	catFR1	1	R1320D
1054.29	1.062	1035678	WORD_OFF	n/a	n/a	CUPCAKE	Desserts	10	7	[0, 0, 0]	n/a	catFR1	1	R1320D
1055.352	1.6	1036740	WORD	n/a	wordpools/wordpool_categorized_EN.txt	CROWBAR	Tools	11	7	[0, 0, 0]	n/a	catFR1	1	R1320D
1056.992	0.888	1038380	WORD_OFF	n/a	n/a	CROWBAR	Tools	11	7	[0, 0, 0]	n/a	catFR1	1	R1320D
1057.88	1.6	1039268	WORD	n/a	wordpools/wordpool_categorized_EN.txt	HAMMER	Tools	12	7	[0, 0, 0]	n/a	catFR1	1	R1320D
1059.509	0.0	1040897	WORD_OFF	n/a	n/a	HAMMER	Tools	12	7	[0, 0, 0]	n/a	catFR1	1	R1320D
1059.509	0.0	1040897	ENCODING_END	n/a	n/a	n/a	n/a	-999	7	[0, 0, 0]	n/a	catFR1	1	R1320D
1059.509	0.001	1040897	DISTRACT_START	n/a	n/a	n/a	n/a	-999	7	[0, 0, 0]	n/a	catFR1	1	R1320D
1059.51	0.016	1040898	START	n/a	n/a	n/a	n/a	-999	7	[-999, -999, -999]	n/a	catFR1	1	R1320D
1059.526	6.967	1040914	PROB	6.93	n/a	n/a	n/a	-999	7	[8, 3, 3]	14.0	catFR1	1	R1320D
1066.493	6.502	1047880	PROB	6.476	n/a	n/a	n/a	-999	7	[5, 6, 5]	16.0	catFR1	1	R1320D
1072.995	10.79	1054382	PROB	10.79	n/a	n/a	n/a	-999	7	[8, 8, 8]	24.0	catFR1	1	R1320D
1083.785	0.012	1065172	STOP	n/a	n/a	n/a	n/a	-999	7	[-999, -999, -999]	n/a	catFR1	1	R1320D
1083.797	1.262	1065184	DISTRACT_END	n/a	n/a	n/a	n/a	-999	7	[0, 0, 0]	n/a	catFR1	1	R1320D
1085.059	1.6	1066446	RETRIEVAL_ORIENT_START	n/a	n/a	n/a	n/a	-999	7	[0, 0, 0]	n/a	catFR1	1	R1320D
1086.079	0.0	1067465	RETRIEVAL_ORIENT_END	n/a	n/a	n/a	n/a	-999	7	[0, 0, 0]	n/a	catFR1	1	R1320D
1086.079	26.951	1067465	REC_START	n/a	n/a	n/a	n/a	-999	7	[0, 0, 0]	n/a	catFR1	1	R1320D
1113.03	2.287	1094415	REC_WORD_VV	26.951	n/a	<>	n/a	-999	7	[0, 0, 0]	n/a	catFR1	1	R1320D
1115.317	1.273	1096702	REC_WORD_VV	29.238	n/a	<>	n/a	-999	7	[0, 0, 0]	n/a	catFR1	1	R1320D
1116.59	0.0	1097975	WAITING_START	n/a	n/a	n/a	n/a	-999	8	[0, 0, 0]	n/a	catFR1	1	R1320D
1116.59	0.0	1097975	TRIAL	n/a	n/a	n/a	n/a	-999	8	[0, 0, 0]	n/a	catFR1	1	R1320D
1116.59	0.0	1097975	REC_END	n/a	n/a	n/a	n/a	-999	7	[0, 0, 0]	n/a	catFR1	1	R1320D
1116.59	0.0	1097975	TRIAL_END	n/a	n/a	n/a	n/a	-999	7	[0, 0, 0]	n/a	catFR1	1	R1320D
1116.59	5.964	1097975	TRIAL_START	n/a	n/a	n/a	n/a	-999	8	[0, 0, 0]	n/a	catFR1	1	R1320D
1122.554	0.0	1103939	WAITING_END	n/a	n/a	n/a	n/a	-999	8	[0, 0, 0]	n/a	catFR1	1	R1320D
1122.554	10.0	1103939	COUNTDOWN_START	n/a	n/a	n/a	n/a	-999	8	[0, 0, 0]	n/a	catFR1	1	R1320D
1122.554	0.0	1103939	COUNTDOWN_END	n/a	n/a	n/a	n/a	-999	8	[0, 0, 0]	n/a	catFR1	1	R1320D
1122.554	11.667	1103939	ORIENT_START	n/a	n/a	n/a	n/a	-999	8	[0, 0, 0]	n/a	catFR1	1	R1320D
1134.221	0.0	1115605	ORIENT_END	n/a	n/a	n/a	n/a	-999	8	[0, 0, 0]	n/a	catFR1	1	R1320D
1134.221	1.015	1115605	ENCODING_START	n/a	n/a	n/a	n/a	-999	8	[0, 0, 0]	n/a	catFR1	1	R1320D
1135.236	1.6	1116620	WORD	n/a	wordpools/wordpool_categorized_EN.txt	KNEE	BodyParts	1	8	[0, 0, 0]	n/a	catFR1	1	R1320D
1136.873	0.994	1118257	WORD_OFF	n/a	n/a	KNEE	BodyParts	1	8	[0, 0, 0]	n/a	catFR1	1	R1320D
1137.867	1.6	1119251	WORD	n/a	wordpools/wordpool_categorized_EN.txt	TOE	BodyParts	2	8	[0, 0, 0]	n/a	catFR1	1	R1320D
1139.49	0.817	1120874	WORD_OFF	n/a	n/a	TOE	BodyParts	2	8	[0, 0, 0]	n/a	catFR1	1	R1320D
1140.307	1.6	1121691	WORD	n/a	wordpools/wordpool_categorized_EN.txt	CALCULATOR	Electronics	3	8	[0, 0, 0]	n/a	catFR1	1	R1320D
1141.941	0.775	1123325	WORD_OFF	n/a	n/a	CALCULATOR	Electronics	3	8	[0, 0, 0]	n/a	catFR1	1	R1320D
1142.716	1.6	1124100	WORD	n/a	wordpools/wordpool_categorized_EN.txt	TELEVISION	Electronics	4	8	[0, 0, 0]	n/a	catFR1	1	R1320D
1144.341	0.77	1125725	WORD_OFF	n/a	n/a	TELEVISION	Electronics	4	8	[0, 0, 0]	n/a	catFR1	1	R1320D
1145.111	1.6	1126494	WORD	n/a	wordpools/wordpool_categorized_EN.txt	WILLOW	Trees	5	8	[0, 0, 0]	n/a	catFR1	1	R1320D
1146.741	0.953	1128124	WORD_OFF	n/a	n/a	WILLOW	Trees	5	8	[0, 0, 0]	n/a	catFR1	1	R1320D
1147.694	1.6	1129077	WORD	n/a	wordpools/wordpool_categorized_EN.txt	SPRUCE	Trees	6	8	[0, 0, 0]	n/a	catFR1	1	R1320D
1149.325	1.068	1130708	WORD_OFF	n/a	n/a	SPRUCE	Trees	6	8	[0, 0, 0]	n/a	catFR1	1	R1320D
1150.393	1.6	1131776	WORD	n/a	wordpools/wordpool_categorized_EN.txt	TABLET	Electronics	7	8	[0, 0, 0]	n/a	catFR1	1	R1320D
1152.025	0.774	1133408	WORD_OFF	n/a	n/a	TABLET	Electronics	7	8	[0, 0, 0]	n/a	catFR1	1	R1320D
1152.799	1.6	1134182	WORD	n/a	wordpools/wordpool_categorized_EN.txt	SPEAKER	Electronics	8	8	[0, 0, 0]	n/a	catFR1	1	R1320D
1154.426	1.089	1135809	WORD_OFF	n/a	n/a	SPEAKER	Electronics	8	8	[0, 0, 0]	n/a	catFR1	1	R1320D
1155.515	1.6	1136898	WORD	n/a	wordpools/wordpool_categorized_EN.txt	OAK	Trees	9	8	[0, 0, 0]	n/a	catFR1	1	R1320D
1157.142	0.838	1138525	WORD_OFF	n/a	n/a	OAK	Trees	9	8	[0, 0, 0]	n/a	catFR1	1	R1320D
1157.98	1.6	1139363	WORD	n/a	wordpools/wordpool_categorized_EN.txt	PINE	Trees	10	8	[0, 0, 0]	n/a	catFR1	1	R1320D
1159.61	0.97	1140993	WORD_OFF	n/a	n/a	PINE	Trees	10	8	[0, 0, 0]	n/a	catFR1	1	R1320D
1160.58	1.6	1141963	WORD	n/a	wordpools/wordpool_categorized_EN.txt	HEAD	BodyParts	11	8	[0, 0, 0]	n/a	catFR1	1	R1320D
1162.21	0.988	1143593	WORD_OFF	n/a	n/a	HEAD	BodyParts	11	8	[0, 0, 0]	n/a	catFR1	1	R1320D
1163.198	1.6	1144581	WORD	n/a	wordpools/wordpool_categorized_EN.txt	EYE	BodyParts	12	8	[0, 0, 0]	n/a	catFR1	1	R1320D
1164.811	0.0	1146193	DISTRACT_START	n/a	n/a	n/a	n/a	-999	8	[0, 0, 0]	n/a	catFR1	1	R1320D
1164.811	0.0	1146193	WORD_OFF	n/a	n/a	EYE	BodyParts	12	8	[0, 0, 0]	n/a	catFR1	1	R1320D
1164.811	0.002	1146193	ENCODING_END	n/a	n/a	n/a	n/a	-999	8	[0, 0, 0]	n/a	catFR1	1	R1320D
1164.813	0.015	1146195	START	n/a	n/a	n/a	n/a	-999	8	[-999, -999, -999]	n/a	catFR1	1	R1320D
1164.828	7.384	1146210	PROB	7.348	n/a	n/a	n/a	-999	8	[6, 4, 2]	12.0	catFR1	1	R1320D
1172.212	6.818	1153594	PROB	6.781	n/a	n/a	n/a	-999	8	[5, 4, 2]	11.0	catFR1	1	R1320D
1179.03	10.106	1160412	PROB	10.106	n/a	n/a	n/a	-999	8	[9, 6, 5]	20.0	catFR1	1	R1320D
1189.136	0.012	1170517	STOP	n/a	n/a	n/a	n/a	-999	8	[-999, -999, -999]	n/a	catFR1	1	R1320D
1189.148	1.218	1170529	DISTRACT_END	n/a	n/a	n/a	n/a	-999	8	[0, 0, 0]	n/a	catFR1	1	R1320D
1190.366	1.6	1171747	RETRIEVAL_ORIENT_START	n/a	n/a	n/a	n/a	-999	8	[0, 0, 0]	n/a	catFR1	1	R1320D
1191.4	0.0	1172781	REC_START	n/a	n/a	n/a	n/a	-999	8	[0, 0, 0]	n/a	catFR1	1	R1320D
1191.4	2.81	1172781	RETRIEVAL_ORIENT_END	n/a	n/a	n/a	n/a	-999	8	[0, 0, 0]	n/a	catFR1	1	R1320D
1194.21	6.385	1175591	REC_WORD	2.81	n/a	TABLE	n/a	-999	8	[0, 0, 0]	n/a	catFR1	1	R1320D
1200.595	7.079	1181976	REC_WORD	9.195	n/a	CALCULATOR	Electronics	3	8	[0, 0, 0]	n/a	catFR1	1	R1320D
1207.674	13.214	1189054	REC_WORD_VV	16.274	n/a	<>	n/a	-999	8	[0, 0, 0]	n/a	catFR1	1	R1320D
1220.888	1.022	1202268	REC_WORD_VV	29.488	n/a	<>	n/a	-999	8	[0, 0, 0]	n/a	catFR1	1	R1320D
1221.91	0.0	1203290	REC_END	n/a	n/a	n/a	n/a	-999	8	[0, 0, 0]	n/a	catFR1	1	R1320D
1221.91	0.0	1203290	TRIAL_END	n/a	n/a	n/a	n/a	-999	8	[0, 0, 0]	n/a	catFR1	1	R1320D
1221.91	0.0	1203290	TRIAL_START	n/a	n/a	n/a	n/a	-999	9	[0, 0, 0]	n/a	catFR1	1	R1320D
1221.91	0.0	1203290	TRIAL	n/a	n/a	n/a	n/a	-999	9	[0, 0, 0]	n/a	catFR1	1	R1320D
1221.91	3.046	1203290	WAITING_START	n/a	n/a	n/a	n/a	-999	9	[0, 0, 0]	n/a	catFR1	1	R1320D
1224.956	0.0	1206335	WAITING_END	n/a	n/a	n/a	n/a	-999	9	[0, 0, 0]	n/a	catFR1	1	R1320D
1224.956	10.0	1206335	COUNTDOWN_START	n/a	n/a	n/a	n/a	-999	9	[0, 0, 0]	n/a	catFR1	1	R1320D
1224.956	0.0	1206335	COUNTDOWN_END	n/a	n/a	n/a	n/a	-999	9	[0, 0, 0]	n/a	catFR1	1	R1320D
1224.956	11.618	1206335	ORIENT_START	n/a	n/a	n/a	n/a	-999	9	[0, 0, 0]	n/a	catFR1	1	R1320D
1236.574	0.0	1217953	ENCODING_START	n/a	n/a	n/a	n/a	-999	9	[0, 0, 0]	n/a	catFR1	1	R1320D
1236.574	0.818	1217953	ORIENT_END	n/a	n/a	n/a	n/a	-999	9	[0, 0, 0]	n/a	catFR1	1	R1320D
1237.392	1.6	1218771	WORD	n/a	wordpools/wordpool_categorized_EN.txt	CALF	FarmAnimals	1	9	[0, 0, 0]	n/a	catFR1	1	R1320D
1239.024	0.907	1220403	WORD_OFF	n/a	n/a	CALF	FarmAnimals	1	9	[0, 0, 0]	n/a	catFR1	1	R1320D
1239.931	1.6	1221310	WORD	n/a	wordpools/wordpool_categorized_EN.txt	SHEEP	FarmAnimals	2	9	[0, 0, 0]	n/a	catFR1	1	R1320D
1241.559	1.008	1222938	WORD_OFF	n/a	n/a	SHEEP	FarmAnimals	2	9	[0, 0, 0]	n/a	catFR1	1	R1320D
1242.567	1.6	1223946	WORD	n/a	wordpools/wordpool_categorized_EN.txt	TABLE	Furniture	3	9	[0, 0, 0]	n/a	catFR1	1	R1320D
1244.192	0.985	1225570	WORD_OFF	n/a	n/a	TABLE	Furniture	3	9	[0, 0, 0]	n/a	catFR1	1	R1320D
1245.177	1.6	1226555	WORD	n/a	wordpools/wordpool_categorized_EN.txt	SHELF	Furniture	4	9	[0, 0, 0]	n/a	catFR1	1	R1320D
1246.81	0.956	1228188	WORD_OFF	n/a	n/a	SHELF	Furniture	4	9	[0, 0, 0]	n/a	catFR1	1	R1320D
1247.766	1.6	1229144	WORD	n/a	wordpools/wordpool_categorized_EN.txt	ELM	Trees	5	9	[0, 0, 0]	n/a	catFR1	1	R1320D
1249.393	1.124	1230771	WORD_OFF	n/a	n/a	ELM	Trees	5	9	[0, 0, 0]	n/a	catFR1	1	R1320D
1250.517	1.6	1231895	WORD	n/a	wordpools/wordpool_categorized_EN.txt	EVERGREEN	Trees	6	9	[0, 0, 0]	n/a	catFR1	1	R1320D
1252.143	0.78	1233521	WORD_OFF	n/a	n/a	EVERGREEN	Trees	6	9	[0, 0, 0]	n/a	catFR1	1	R1320D
1252.923	1.6	1234301	WORD	n/a	wordpools/wordpool_categorized_EN.txt	SOFA	Furniture	7	9	[0, 0, 0]	n/a	catFR1	1	R1320D
1254.528	0.912	1235906	WORD_OFF	n/a	n/a	SOFA	Furniture	7	9	[0, 0, 0]	n/a	catFR1	1	R1320D
1255.44	1.6	1236818	WORD	n/a	wordpools/wordpool_categorized_EN.txt	CABINET	Furniture	8	9	[0, 0, 0]	n/a	catFR1	1	R1320D
1257.061	0.896	1238439	WORD_OFF	n/a	n/a	CABINET	Furniture	8	9	[0, 0, 0]	n/a	catFR1	1	R1320D
1257.957	1.6	1239335	WORD	n/a	wordpools/wordpool_categorized_EN.txt	ROOSTER	FarmAnimals	9	9	[0, 0, 0]	n/a	catFR1	1	R1320D
1259.579	0.951	1240957	WORD_OFF	n/a	n/a	ROOSTER	FarmAnimals	9	9	[0, 0, 0]	n/a	catFR1	1	R1320D
1260.53	1.6	1241908	WORD	n/a	wordpools/wordpool_categorized_EN.txt	CHICKEN	FarmAnimals	10	9	[0, 0, 0]	n/a	catFR1	1	R1320D
1262.161	0.812	1243539	WORD_OFF	n/a	n/a	CHICKEN	FarmAnimals	10	9	[0, 0, 0]	n/a	catFR1	1	R1320D
1262.973	1.6	1244350	WORD	n/a	wordpools/wordpool_categorized_EN.txt	BIRCH	Trees	11	9	[0, 0, 0]	n/a	catFR1	1	R1320D
1264.596	1.049	1245973	WORD_OFF	n/a	n/a	BIRCH	Trees	11	9	[0, 0, 0]	n/a	catFR1	1	R1320D
1265.645	1.6	1247022	WORD	n/a	wordpools/wordpool_categorized_EN.txt	CYPRESS	Trees	12	9	[0, 0, 0]	n/a	catFR1	1	R1320D
1267.279	0.0	1248656	WORD_OFF	n/a	n/a	CYPRESS	Trees	12	9	[0, 0, 0]	n/a	catFR1	1	R1320D
1267.279	0.0	1248656	ENCODING_END	n/a	n/a	n/a	n/a	-999	9	[0, 0, 0]	n/a	catFR1	1	R1320D
1267.279	0.001	1248656	DISTRACT_START	n/a	n/a	n/a	n/a	-999	9	[0, 0, 0]	n/a	catFR1	1	R1320D
1267.28	0.017	1248657	START	n/a	n/a	n/a	n/a	-999	9	[-999, -999, -999]	n/a	catFR1	1	R1320D
1267.297	6.584	1248674	PROB	6.559	n/a	n/a	n/a	-999	9	[1, 7, 2]	10.0	catFR1	1	R1320D
1273.881	6.918	1255258	PROB	6.895	n/a	n/a	n/a	-999	9	[5, 4, 2]	11.0	catFR1	1	R1320D
1280.799	6.922	1262176	PROB	6.922	n/a	n/a	n/a	-999	9	[4, 8, 1]	13.0	catFR1	1	R1320D
1287.721	0.013	1269097	STOP	n/a	n/a	n/a	n/a	-999	9	[-999, -999, -999]	n/a	catFR1	1	R1320D
1287.734	1.196	1269110	DISTRACT_END	n/a	n/a	n/a	n/a	-999	9	[0, 0, 0]	n/a	catFR1	1	R1320D
1288.93	1.6	1270306	RETRIEVAL_ORIENT_START	n/a	n/a	n/a	n/a	-999	9	[0, 0, 0]	n/a	catFR1	1	R1320D
1289.951	0.0	1271327	RETRIEVAL_ORIENT_END	n/a	n/a	n/a	n/a	-999	9	[0, 0, 0]	n/a	catFR1	1	R1320D
1289.951	28.49	1271327	REC_START	n/a	n/a	n/a	n/a	-999	9	[0, 0, 0]	n/a	catFR1	1	R1320D
1318.441	2.024	1299816	REC_WORD_VV	28.49	n/a	<>	n/a	-999	9	[0, 0, 0]	n/a	catFR1	1	R1320D
1320.465	0.0	1301840	TRIAL	n/a	n/a	n/a	n/a	-999	10	[0, 0, 0]	n/a	catFR1	1	R1320D
1320.465	0.0	1301840	WAITING_START	n/a	n/a	n/a	n/a	-999	10	[0, 0, 0]	n/a	catFR1	1	R1320D
1320.465	0.0	1301840	TRIAL_END	n/a	n/a	n/a	n/a	-999	9	[0, 0, 0]	n/a	catFR1	1	R1320D
1320.465	0.0	1301840	TRIAL_START	n/a	n/a	n/a	n/a	-999	10	[0, 0, 0]	n/a	catFR1	1	R1320D
1320.465	11.494	1301840	REC_END	n/a	n/a	n/a	n/a	-999	9	[0, 0, 0]	n/a	catFR1	1	R1320D
1331.959	0.0	1313333	ORIENT_START	n/a	n/a	n/a	n/a	-999	10	[0, 0, 0]	n/a	catFR1	1	R1320D
1331.959	0.0	1313333	WAITING_END	n/a	n/a	n/a	n/a	-999	10	[0, 0, 0]	n/a	catFR1	1	R1320D
1331.959	10.0	1313333	COUNTDOWN_START	n/a	n/a	n/a	n/a	-999	10	[0, 0, 0]	n/a	catFR1	1	R1320D
1331.959	11.685	1313333	COUNTDOWN_END	n/a	n/a	n/a	n/a	-999	10	[0, 0, 0]	n/a	catFR1	1	R1320D
1343.644	0.0	1325017	ORIENT_END	n/a	n/a	n/a	n/a	-999	10	[0, 0, 0]	n/a	catFR1	1	R1320D
1343.644	0.817	1325017	ENCODING_START	n/a	n/a	n/a	n/a	-999	10	[0, 0, 0]	n/a	catFR1	1	R1320D
1344.461	1.6	1325834	WORD	n/a	wordpools/wordpool_categorized_EN.txt	ROOM	Building	1	10	[0, 0, 0]	n/a	catFR1	1	R1320D
1346.094	0.912	1327467	WORD_OFF	n/a	n/a	ROOM	Building	1	10	[0, 0, 0]	n/a	catFR1	1	R1320D
1347.006	1.6	1328379	WORD	n/a	wordpools/wordpool_categorized_EN.txt	ROOF	Building	2	10	[0, 0, 0]	n/a	catFR1	1	R1320D
1348.611	1.038	1329984	WORD_OFF	n/a	n/a	ROOF	Building	2	10	[0, 0, 0]	n/a	catFR1	1	R1320D
1349.649	1.6	1331022	WORD	n/a	wordpools/wordpool_categorized_EN.txt	SPATULA	KitchenTools	3	10	[0, 0, 0]	n/a	catFR1	1	R1320D
1351.278	0.761	1332651	WORD_OFF	n/a	n/a	SPATULA	KitchenTools	3	10	[0, 0, 0]	n/a	catFR1	1	R1320D
1352.039	1.6	1333412	WORD	n/a	wordpools/wordpool_categorized_EN.txt	CORKSCREW	KitchenTools	4	10	[0, 0, 0]	n/a	catFR1	1	R1320D
1353.662	0.837	1335035	WORD_OFF	n/a	n/a	CORKSCREW	KitchenTools	4	10	[0, 0, 0]	n/a	catFR1	1	R1320D
1354.499	1.6	1335872	WORD	n/a	wordpools/wordpool_categorized_EN.txt	JELLYFISH	OceanAnimals	5	10	[0, 0, 0]	n/a	catFR1	1	R1320D
1356.129	0.973	1337502	WORD_OFF	n/a	n/a	JELLYFISH	OceanAnimals	5	10	[0, 0, 0]	n/a	catFR1	1	R1320D
1357.102	1.6	1338475	WORD	n/a	wordpools/wordpool_categorized_EN.txt	CRAB	OceanAnimals	6	10	[0, 0, 0]	n/a	catFR1	1	R1320D
1358.73	0.825	1340103	WORD_OFF	n/a	n/a	CRAB	OceanAnimals	6	10	[0, 0, 0]	n/a	catFR1	1	R1320D
1359.555	1.6	1340928	WORD	n/a	wordpools/wordpool_categorized_EN.txt	FORK	KitchenTools	7	10	[0, 0, 0]	n/a	catFR1	1	R1320D
1361.18	0.821	1342552	WORD_OFF	n/a	n/a	FORK	KitchenTools	7	10	[0, 0, 0]	n/a	catFR1	1	R1320D
1362.001	1.6	1343373	WORD	n/a	wordpools/wordpool_categorized_EN.txt	STRAINER	KitchenTools	8	10	[0, 0, 0]	n/a	catFR1	1	R1320D
1363.631	1.022	1345003	WORD_OFF	n/a	n/a	STRAINER	KitchenTools	8	10	[0, 0, 0]	n/a	catFR1	1	R1320D
1364.653	1.6	1346025	WORD	n/a	wordpools/wordpool_categorized_EN.txt	OYSTER	OceanAnimals	9	10	[0, 0, 0]	n/a	catFR1	1	R1320D
1366.281	0.909	1347653	WORD_OFF	n/a	n/a	OYSTER	OceanAnimals	9	10	[0, 0, 0]	n/a	catFR1	1	R1320D
1367.19	1.6	1348562	WORD	n/a	wordpools/wordpool_categorized_EN.txt	SQUID	OceanAnimals	10	10	[0, 0, 0]	n/a	catFR1	1	R1320D
1368.798	1.132	1350170	WORD_OFF	n/a	n/a	SQUID	OceanAnimals	10	10	[0, 0, 0]	n/a	catFR1	1	R1320D
1369.93	1.6	1351302	WORD	n/a	wordpools/wordpool_categorized_EN.txt	BATHROOM	Building	11	10	[0, 0, 0]	n/a	catFR1	1	R1320D
1371.566	1.133	1352938	WORD_OFF	n/a	n/a	BATHROOM	Building	11	10	[0, 0, 0]	n/a	catFR1	1	R1320D
1372.699	1.6	1354071	WORD	n/a	wordpools/wordpool_categorized_EN.txt	WALL	Building	12	10	[0, 0, 0]	n/a	catFR1	1	R1320D
1374.333	0.0	1355705	WORD_OFF	n/a	n/a	WALL	Building	12	10	[0, 0, 0]	n/a	catFR1	1	R1320D
1374.333	0.0	1355705	ENCODING_END	n/a	n/a	n/a	n/a	-999	10	[0, 0, 0]	n/a	catFR1	1	R1320D
1374.333	0.001	1355705	DISTRACT_START	n/a	n/a	n/a	n/a	-999	10	[0, 0, 0]	n/a	catFR1	1	R1320D
1374.334	0.016	1355706	START	n/a	n/a	n/a	n/a	-999	10	[-999, -999, -999]	n/a	catFR1	1	R1320D
1374.35	4.384	1355722	PROB	4.347	n/a	n/a	n/a	-999	10	[5, 4, 5]	14.0	catFR1	1	R1320D
1378.734	3.817	1360106	PROB	3.787	n/a	n/a	n/a	-999	10	[5, 5, 5]	15.0	catFR1	1	R1320D
1382.551	8.852	1363922	PROB	8.818	n/a	n/a	n/a	-999	10	[9, 8, 3]	16.0	catFR1	1	R1320D
1391.403	13.636	1372774	PROB	13.636	n/a	n/a	n/a	-999	10	[9, 4, 8]	21.0	catFR1	1	R1320D
1405.039	0.015	1386409	STOP	n/a	n/a	n/a	n/a	-999	10	[-999, -999, -999]	n/a	catFR1	1	R1320D
1405.054	1.284	1386424	DISTRACT_END	n/a	n/a	n/a	n/a	-999	10	[0, 0, 0]	n/a	catFR1	1	R1320D
1406.338	1.6	1387708	RETRIEVAL_ORIENT_START	n/a	n/a	n/a	n/a	-999	10	[0, 0, 0]	n/a	catFR1	1	R1320D
1407.372	0.0	1388742	RETRIEVAL_ORIENT_END	n/a	n/a	n/a	n/a	-999	10	[0, 0, 0]	n/a	catFR1	1	R1320D
1407.372	2.822	1388742	REC_START	n/a	n/a	n/a	n/a	-999	10	[0, 0, 0]	n/a	catFR1	1	R1320D
1410.194	4.107	1391564	REC_WORD	2.822	n/a	OYSTER	OceanAnimals	9	10	[0, 0, 0]	n/a	catFR1	1	R1320D
1414.301	11.786	1395671	REC_WORD	6.929	n/a	NAPKIN	n/a	-999	10	[0, 0, 0]	n/a	catFR1	1	R1320D
1426.087	11.796	1407456	REC_WORD	18.715	n/a	FORK	KitchenTools	7	10	[0, 0, 0]	n/a	catFR1	1	R1320D
1437.883	0.0	1419252	WAITING_START	n/a	n/a	n/a	n/a	-999	11	[0, 0, 0]	n/a	catFR1	1	R1320D
1437.883	0.0	1419252	TRIAL	n/a	n/a	n/a	n/a	-999	11	[0, 0, 0]	n/a	catFR1	1	R1320D
1437.883	0.0	1419252	TRIAL_END	n/a	n/a	n/a	n/a	-999	10	[0, 0, 0]	n/a	catFR1	1	R1320D
1437.883	0.0	1419252	TRIAL_START	n/a	n/a	n/a	n/a	-999	11	[0, 0, 0]	n/a	catFR1	1	R1320D
1437.883	21.482	1419252	REC_END	n/a	n/a	n/a	n/a	-999	10	[0, 0, 0]	n/a	catFR1	1	R1320D
1459.365	0.0	1440732	WAITING_END	n/a	n/a	n/a	n/a	-999	11	[0, 0, 0]	n/a	catFR1	1	R1320D
1459.365	10.0	1440732	COUNTDOWN_START	n/a	n/a	n/a	n/a	-999	11	[0, 0, 0]	n/a	catFR1	1	R1320D
1459.365	0.0	1440732	COUNTDOWN_END	n/a	n/a	n/a	n/a	-999	11	[0, 0, 0]	n/a	catFR1	1	R1320D
1459.365	11.486	1440732	ORIENT_START	n/a	n/a	n/a	n/a	-999	11	[0, 0, 0]	n/a	catFR1	1	R1320D
1470.851	0.0	1452218	ORIENT_END	n/a	n/a	n/a	n/a	-999	11	[0, 0, 0]	n/a	catFR1	1	R1320D
1470.851	0.856	1452218	ENCODING_START	n/a	n/a	n/a	n/a	-999	11	[0, 0, 0]	n/a	catFR1	1	R1320D
1471.707	1.6	1453074	WORD	n/a	wordpools/wordpool_categorized_EN.txt	ORCHID	Flowers	1	11	[0, 0, 0]	n/a	catFR1	1	R1320D
1473.334	0.877	1454701	WORD_OFF	n/a	n/a	ORCHID	Flowers	1	11	[0, 0, 0]	n/a	catFR1	1	R1320D
1474.211	1.6	1455578	WORD	n/a	wordpools/wordpool_categorized_EN.txt	SUNFLOWER	Flowers	2	11	[0, 0, 0]	n/a	catFR1	1	R1320D
1475.835	0.885	1457202	WORD_OFF	n/a	n/a	SUNFLOWER	Flowers	2	11	[0, 0, 0]	n/a	catFR1	1	R1320D
1476.72	1.6	1458087	WORD	n/a	wordpools/wordpool_categorized_EN.txt	RATCHET	Tools	3	11	[0, 0, 0]	n/a	catFR1	1	R1320D
1478.352	1.086	1459719	WORD_OFF	n/a	n/a	RATCHET	Tools	3	11	[0, 0, 0]	n/a	catFR1	1	R1320D
1479.438	1.6	1460804	WORD	n/a	wordpools/wordpool_categorized_EN.txt	PLIERS	Tools	4	11	[0, 0, 0]	n/a	catFR1	1	R1320D
1481.068	0.75	1462434	WORD_OFF	n/a	n/a	PLIERS	Tools	4	11	[0, 0, 0]	n/a	catFR1	1	R1320D
1481.818	1.6	1463184	WORD	n/a	wordpools/wordpool_categorized_EN.txt	BEAR	Zoo	5	11	[0, 0, 0]	n/a	catFR1	1	R1320D
1483.453	0.758	1464819	WORD_OFF	n/a	n/a	BEAR	Zoo	5	11	[0, 0, 0]	n/a	catFR1	1	R1320D
1484.211	1.6	1465577	WORD	n/a	wordpools/wordpool_categorized_EN.txt	GORILLA	Zoo	6	11	[0, 0, 0]	n/a	catFR1	1	R1320D
1485.837	0.96	1467203	WORD_OFF	n/a	n/a	GORILLA	Zoo	6	11	[0, 0, 0]	n/a	catFR1	1	R1320D
1486.797	1.6	1468163	WORD	n/a	wordpools/wordpool_categorized_EN.txt	AXE	Tools	7	11	[0, 0, 0]	n/a	catFR1	1	R1320D
1488.42	0.761	1469786	WORD_OFF	n/a	n/a	AXE	Tools	7	11	[0, 0, 0]	n/a	catFR1	1	R1320D
1489.181	1.6	1470547	WORD	n/a	wordpools/wordpool_categorized_EN.txt	WRENCH	Tools	8	11	[0, 0, 0]	n/a	catFR1	1	R1320D
1490.787	0.816	1472153	WORD_OFF	n/a	n/a	WRENCH	Tools	8	11	[0, 0, 0]	n/a	catFR1	1	R1320D
1491.603	1.6	1472969	WORD	n/a	wordpools/wordpool_categorized_EN.txt	PANDA	Zoo	9	11	[0, 0, 0]	n/a	catFR1	1	R1320D
1493.237	0.827	1474603	WORD_OFF	n/a	n/a	PANDA	Zoo	9	11	[0, 0, 0]	n/a	catFR1	1	R1320D
1494.064	1.6	1475430	WORD	n/a	wordpools/wordpool_categorized_EN.txt	ELEPHANT	Zoo	10	11	[0, 0, 0]	n/a	catFR1	1	R1320D
1495.689	1.125	1477055	WORD_OFF	n/a	n/a	ELEPHANT	Zoo	10	11	[0, 0, 0]	n/a	catFR1	1	R1320D
1496.814	1.6	1478180	WORD	n/a	wordpools/wordpool_categorized_EN.txt	ROSE	Flowers	11	11	[0, 0, 0]	n/a	catFR1	1	R1320D
1498.439	0.949	1479804	WORD_OFF	n/a	n/a	ROSE	Flowers	11	11	[0, 0, 0]	n/a	catFR1	1	R1320D
1499.388	1.6	1480753	WORD	n/a	wordpools/wordpool_categorized_EN.txt	LILAC	Flowers	12	11	[0, 0, 0]	n/a	catFR1	1	R1320D
1501.022	0.0	1482387	WORD_OFF	n/a	n/a	LILAC	Flowers	12	11	[0, 0, 0]	n/a	catFR1	1	R1320D
1501.022	0.0	1482387	ENCODING_END	n/a	n/a	n/a	n/a	-999	11	[0, 0, 0]	n/a	catFR1	1	R1320D
1501.022	0.001	1482387	DISTRACT_START	n/a	n/a	n/a	n/a	-999	11	[0, 0, 0]	n/a	catFR1	1	R1320D
1501.023	0.016	1482388	START	n/a	n/a	n/a	n/a	-999	11	[-999, -999, -999]	n/a	catFR1	1	R1320D
1501.039	4.535	1482404	PROB	4.506	n/a	n/a	n/a	-999	11	[5, 2, 3]	10.0	catFR1	1	R1320D
1505.574	8.968	1486939	PROB	8.939	n/a	n/a	n/a	-999	11	[1, 3, 5]	10.0	catFR1	1	R1320D
1514.542	9.066	1495907	PROB	9.066	n/a	n/a	n/a	-999	11	[2, 5, 3]	10.0	catFR1	1	R1320D
1523.608	0.019	1504972	STOP	n/a	n/a	n/a	n/a	-999	11	[-999, -999, -999]	n/a	catFR1	1	R1320D
1523.627	1.066	1504991	DISTRACT_END	n/a	n/a	n/a	n/a	-999	11	[0, 0, 0]	n/a	catFR1	1	R1320D
1524.693	1.6	1506057	RETRIEVAL_ORIENT_START	n/a	n/a	n/a	n/a	-999	11	[0, 0, 0]	n/a	catFR1	1	R1320D
1525.727	0.0	1507091	REC_START	n/a	n/a	n/a	n/a	-999	11	[0, 0, 0]	n/a	catFR1	1	R1320D
1525.727	3.007	1507091	RETRIEVAL_ORIENT_END	n/a	n/a	n/a	n/a	-999	11	[0, 0, 0]	n/a	catFR1	1	R1320D
1528.734	5.101	1510098	REC_WORD	3.007	n/a	FLOWER	n/a	-999	11	[0, 0, 0]	n/a	catFR1	1	R1320D
1533.835	7.124	1515199	REC_WORD	8.108	n/a	COLANDER	KitchenTools	-999	11	[0, 0, 0]	n/a	catFR1	1	R1320D
1540.959	15.279	1522322	REC_WORD_VV	15.232	n/a	<>	n/a	-999	11	[0, 0, 0]	n/a	catFR1	1	R1320D
1556.238	0.0	1537601	REC_END	n/a	n/a	n/a	n/a	-999	11	[0, 0, 0]	n/a	catFR1	1	R1320D
1556.238	0.0	1537601	TRIAL_END	n/a	n/a	n/a	n/a	-999	11	[0, 0, 0]	n/a	catFR1	1	R1320D
1556.238	0.0	1537601	TRIAL_START	n/a	n/a	n/a	n/a	-999	12	[0, 0, 0]	n/a	catFR1	1	R1320D
1556.238	0.0	1537601	TRIAL	n/a	n/a	n/a	n/a	-999	12	[0, 0, 0]	n/a	catFR1	1	R1320D
1556.238	2.844	1537601	WAITING_START	n/a	n/a	n/a	n/a	-999	12	[0, 0, 0]	n/a	catFR1	1	R1320D
1559.082	0.0	1540444	WAITING_END	n/a	n/a	n/a	n/a	-999	12	[0, 0, 0]	n/a	catFR1	1	R1320D
1559.082	10.0	1540444	COUNTDOWN_START	n/a	n/a	n/a	n/a	-999	12	[0, 0, 0]	n/a	catFR1	1	R1320D
1559.082	0.0	1540444	COUNTDOWN_END	n/a	n/a	n/a	n/a	-999	12	[0, 0, 0]	n/a	catFR1	1	R1320D
1559.082	11.47	1540444	ORIENT_START	n/a	n/a	n/a	n/a	-999	12	[0, 0, 0]	n/a	catFR1	1	R1320D
1570.552	0.0	1551914	ORIENT_END	n/a	n/a	n/a	n/a	-999	12	[0, 0, 0]	n/a	catFR1	1	R1320D
1570.552	1.121	1551914	ENCODING_START	n/a	n/a	n/a	n/a	-999	12	[0, 0, 0]	n/a	catFR1	1	R1320D
1571.673	1.6	1553035	WORD	n/a	wordpools/wordpool_categorized_EN.txt	WHALE	OceanAnimals	1	12	[0, 0, 0]	n/a	catFR1	1	R1320D
1573.303	0.899	1554665	WORD_OFF	n/a	n/a	WHALE	OceanAnimals	1	12	[0, 0, 0]	n/a	catFR1	1	R1320D
1574.202	1.6	1555564	WORD	n/a	wordpools/wordpool_categorized_EN.txt	DOLPHIN	OceanAnimals	2	12	[0, 0, 0]	n/a	catFR1	1	R1320D
1575.836	0.886	1557198	WORD_OFF	n/a	n/a	DOLPHIN	OceanAnimals	2	12	[0, 0, 0]	n/a	catFR1	1	R1320D
1576.722	1.6	1558084	WORD	n/a	wordpools/wordpool_categorized_EN.txt	PEN	OfficeSupplies	3	12	[0, 0, 0]	n/a	catFR1	1	R1320D
1578.354	0.963	1559715	WORD_OFF	n/a	n/a	PEN	OfficeSupplies	3	12	[0, 0, 0]	n/a	catFR1	1	R1320D
1579.317	1.6	1560678	WORD	n/a	wordpools/wordpool_categorized_EN.txt	TAPE	OfficeSupplies	4	12	[0, 0, 0]	n/a	catFR1	1	R1320D
1580.954	0.965	1562315	WORD_OFF	n/a	n/a	TAPE	OfficeSupplies	4	12	[0, 0, 0]	n/a	catFR1	1	R1320D
1581.919	1.6	1563280	WORD	n/a	wordpools/wordpool_categorized_EN.txt	LION	Zoo	5	12	[0, 0, 0]	n/a	catFR1	1	R1320D
1583.555	1.077	1564916	WORD_OFF	n/a	n/a	LION	Zoo	5	12	[0, 0, 0]	n/a	catFR1	1	R1320D
1584.632	1.6	1565993	WORD	n/a	wordpools/wordpool_categorized_EN.txt	ZEBRA	Zoo	6	12	[0, 0, 0]	n/a	catFR1	1	R1320D
1586.254	1.013	1567615	WORD_OFF	n/a	n/a	ZEBRA	Zoo	6	12	[0, 0, 0]	n/a	catFR1	1	R1320D
1587.267	1.6	1568628	WORD	n/a	wordpools/wordpool_categorized_EN.txt	PAPER	OfficeSupplies	7	12	[0, 0, 0]	n/a	catFR1	1	R1320D
1588.906	0.768	1570267	WORD_OFF	n/a	n/a	PAPER	OfficeSupplies	7	12	[0, 0, 0]	n/a	catFR1	1	R1320D
1589.674	1.6	1571035	WORD	n/a	wordpools/wordpool_categorized_EN.txt	MARKER	OfficeSupplies	8	12	[0, 0, 0]	n/a	catFR1	1	R1320D
1591.306	0.754	1572667	WORD_OFF	n/a	n/a	MARKER	OfficeSupplies	8	12	[0, 0, 0]	n/a	catFR1	1	R1320D
1592.06	1.6	1573421	WORD	n/a	wordpools/wordpool_categorized_EN.txt	GIRAFFE	Zoo	9	12	[0, 0, 0]	n/a	catFR1	1	R1320D
1593.69	0.866	1575051	WORD_OFF	n/a	n/a	GIRAFFE	Zoo	9	12	[0, 0, 0]	n/a	catFR1	1	R1320D
1594.556	1.6	1575917	WORD	n/a	wordpools/wordpool_categorized_EN.txt	TIGER	Zoo	10	12	[0, 0, 0]	n/a	catFR1	1	R1320D
1596.189	0.82	1577550	WORD_OFF	n/a	n/a	TIGER	Zoo	10	12	[0, 0, 0]	n/a	catFR1	1	R1320D
1597.009	1.6	1578369	WORD	n/a	wordpools/wordpool_categorized_EN.txt	OCTOPUS	OceanAnimals	11	12	[0, 0, 0]	n/a	catFR1	1	R1320D
1598.641	0.843	1580001	WORD_OFF	n/a	n/a	OCTOPUS	OceanAnimals	11	12	[0, 0, 0]	n/a	catFR1	1	R1320D
1599.484	1.6	1580844	WORD	n/a	wordpools/wordpool_categorized_EN.txt	SHRIMP	OceanAnimals	12	12	[0, 0, 0]	n/a	catFR1	1	R1320D
1601.107	0.0	1582467	WORD_OFF	n/a	n/a	SHRIMP	OceanAnimals	12	12	[0, 0, 0]	n/a	catFR1	1	R1320D
1601.107	0.0	1582467	ENCODING_END	n/a	n/a	n/a	n/a	-999	12	[0, 0, 0]	n/a	catFR1	1	R1320D
1601.107	0.001	1582467	DISTRACT_START	n/a	n/a	n/a	n/a	-999	12	[0, 0, 0]	n/a	catFR1	1	R1320D
1601.108	0.015	1582468	START	n/a	n/a	n/a	n/a	-999	12	[-999, -999, -999]	n/a	catFR1	1	R1320D
1601.123	9.169	1582483	PROB	9.14	n/a	n/a	n/a	-999	12	[9, 6, 5]	19.0	catFR1	1	R1320D
1610.292	9.718	1591652	PROB	9.685	n/a	n/a	n/a	-999	12	[3, 8, 8]	19.0	catFR1	1	R1320D
1620.01	6.678	1601369	PROB	6.678	n/a	n/a	n/a	-999	12	[3, 6, 3]	12.0	catFR1	1	R1320D
1626.688	0.008	1608047	STOP	n/a	n/a	n/a	n/a	-999	12	[-999, -999, -999]	n/a	catFR1	1	R1320D
1626.696	1.238	1608055	DISTRACT_END	n/a	n/a	n/a	n/a	-999	12	[0, 0, 0]	n/a	catFR1	1	R1320D
1627.934	1.6	1609293	RETRIEVAL_ORIENT_START	n/a	n/a	n/a	n/a	-999	12	[0, 0, 0]	n/a	catFR1	1	R1320D
1628.963	0.0	1610322	RETRIEVAL_ORIENT_END	n/a	n/a	n/a	n/a	-999	12	[0, 0, 0]	n/a	catFR1	1	R1320D
1628.963	6.515	1610322	REC_START	n/a	n/a	n/a	n/a	-999	12	[0, 0, 0]	n/a	catFR1	1	R1320D
1635.478	4.262	1616837	REC_WORD	6.515	n/a	DOLPHIN	OceanAnimals	2	12	[0, 0, 0]	n/a	catFR1	1	R1320D
1639.74	5.348	1621098	REC_WORD	10.777	n/a	LION	Zoo	5	12	[0, 0, 0]	n/a	catFR1	1	R1320D
1645.088	14.387	1626446	REC_WORD	16.125	n/a	WHALE	OceanAnimals	1	12	[0, 0, 0]	n/a	catFR1	1	R1320D
1659.475	0.0	1640832	REC_END	n/a	n/a	n/a	n/a	-999	12	[0, 0, 0]	n/a	catFR1	1	R1320D
1659.475	0.0	1640832	TRIAL_END	n/a	n/a	n/a	n/a	-999	12	[0, 0, 0]	n/a	catFR1	1	R1320D
1659.475	0.0	1640832	TRIAL_START	n/a	n/a	n/a	n/a	-999	13	[0, 0, 0]	n/a	catFR1	1	R1320D
1659.475	0.0	1640832	TRIAL	n/a	n/a	n/a	n/a	-999	13	[0, 0, 0]	n/a	catFR1	1	R1320D
1659.475	2.676	1640832	WAITING_START	n/a	n/a	n/a	n/a	-999	13	[0, 0, 0]	n/a	catFR1	1	R1320D
1662.151	0.0	1643508	ORIENT_START	n/a	n/a	n/a	n/a	-999	13	[0, 0, 0]	n/a	catFR1	1	R1320D
1662.151	0.0	1643508	COUNTDOWN_END	n/a	n/a	n/a	n/a	-999	13	[0, 0, 0]	n/a	catFR1	1	R1320D
1662.151	10.0	1643508	COUNTDOWN_START	n/a	n/a	n/a	n/a	-999	13	[0, 0, 0]	n/a	catFR1	1	R1320D
1662.151	11.47	1643508	WAITING_END	n/a	n/a	n/a	n/a	-999	13	[0, 0, 0]	n/a	catFR1	1	R1320D
1673.621	0.0	1654978	ORIENT_END	n/a	n/a	n/a	n/a	-999	13	[0, 0, 0]	n/a	catFR1	1	R1320D
1673.621	1.027	1654978	ENCODING_START	n/a	n/a	n/a	n/a	-999	13	[0, 0, 0]	n/a	catFR1	1	R1320D
1674.648	1.6	1656005	WORD	n/a	wordpools/wordpool_categorized_EN.txt	HAND	BodyParts	1	13	[0, 0, 0]	n/a	catFR1	1	R1320D
1676.271	0.849	1657627	WORD_OFF	n/a	n/a	HAND	BodyParts	1	13	[0, 0, 0]	n/a	catFR1	1	R1320D
1677.12	1.6	1658476	WORD	n/a	wordpools/wordpool_categorized_EN.txt	FOOT	BodyParts	2	13	[0, 0, 0]	n/a	catFR1	1	R1320D
1678.755	0.911	1660111	WORD_OFF	n/a	n/a	FOOT	BodyParts	2	13	[0, 0, 0]	n/a	catFR1	1	R1320D
1679.666	1.6	1661022	WORD	n/a	wordpools/wordpool_categorized_EN.txt	DAFFODIL	Flowers	3	13	[0, 0, 0]	n/a	catFR1	1	R1320D
1681.288	0.848	1662644	WORD_OFF	n/a	n/a	DAFFODIL	Flowers	3	13	[0, 0, 0]	n/a	catFR1	1	R1320D
1682.136	1.6	1663492	WORD	n/a	wordpools/wordpool_categorized_EN.txt	MARIGOLD	Flowers	4	13	[0, 0, 0]	n/a	catFR1	1	R1320D
1683.773	1.066	1665129	WORD_OFF	n/a	n/a	MARIGOLD	Flowers	4	13	[0, 0, 0]	n/a	catFR1	1	R1320D
1684.839	1.6	1666195	WORD	n/a	wordpools/wordpool_categorized_EN.txt	ISLAND	Landscapes	5	13	[0, 0, 0]	n/a	catFR1	1	R1320D
1686.473	0.826	1667829	WORD_OFF	n/a	n/a	ISLAND	Landscapes	5	13	[0, 0, 0]	n/a	catFR1	1	R1320D
1687.299	1.6	1668655	WORD	n/a	wordpools/wordpool_categorized_EN.txt	LAKE	Landscapes	6	13	[0, 0, 0]	n/a	catFR1	1	R1320D
1688.924	0.968	1670280	WORD_OFF	n/a	n/a	LAKE	Landscapes	6	13	[0, 0, 0]	n/a	catFR1	1	R1320D
1689.892	1.6	1671248	WORD	n/a	wordpools/wordpool_categorized_EN.txt	EAR	BodyParts	7	13	[0, 0, 0]	n/a	catFR1	1	R1320D
1691.524	0.971	1672880	WORD_OFF	n/a	n/a	EAR	BodyParts	7	13	[0, 0, 0]	n/a	catFR1	1	R1320D
1692.495	1.6	1673851	WORD	n/a	wordpools/wordpool_categorized_EN.txt	NOSE	BodyParts	8	13	[0, 0, 0]	n/a	catFR1	1	R1320D
1694.124	0.95	1675480	WORD_OFF	n/a	n/a	NOSE	BodyParts	8	13	[0, 0, 0]	n/a	catFR1	1	R1320D
1695.074	1.6	1676429	WORD	n/a	wordpools/wordpool_categorized_EN.txt	VALLEY	Landscapes	9	13	[0, 0, 0]	n/a	catFR1	1	R1320D
1696.709	0.821	1678064	WORD_OFF	n/a	n/a	VALLEY	Landscapes	9	13	[0, 0, 0]	n/a	catFR1	1	R1320D
1697.53	1.6	1678885	WORD	n/a	wordpools/wordpool_categorized_EN.txt	OCEAN	Landscapes	10	13	[0, 0, 0]	n/a	catFR1	1	R1320D
1699.158	1.109	1680513	WORD_OFF	n/a	n/a	OCEAN	Landscapes	10	13	[0, 0, 0]	n/a	catFR1	1	R1320D
1700.267	1.6	1681622	WORD	n/a	wordpools/wordpool_categorized_EN.txt	VIOLET	Flowers	11	13	[0, 0, 0]	n/a	catFR1	1	R1320D
1701.893	0.876	1683248	WORD_OFF	n/a	n/a	VIOLET	Flowers	11	13	[0, 0, 0]	n/a	catFR1	1	R1320D
1702.769	1.6	1684124	WORD	n/a	wordpools/wordpool_categorized_EN.txt	TULIP	Flowers	12	13	[0, 0, 0]	n/a	catFR1	1	R1320D
1704.393	0.0	1685748	DISTRACT_START	n/a	n/a	n/a	n/a	-999	13	[0, 0, 0]	n/a	catFR1	1	R1320D
1704.393	0.0	1685748	ENCODING_END	n/a	n/a	n/a	n/a	-999	13	[0, 0, 0]	n/a	catFR1	1	R1320D
1704.393	0.002	1685748	WORD_OFF	n/a	n/a	TULIP	Flowers	12	13	[0, 0, 0]	n/a	catFR1	1	R1320D
1704.395	0.015	1685750	START	n/a	n/a	n/a	n/a	-999	13	[-999, -999, -999]	n/a	catFR1	1	R1320D
1704.41	5.084	1685765	PROB	5.047	n/a	n/a	n/a	-999	13	[5, 1, 6]	12.0	catFR1	1	R1320D
1709.494	11.219	1690849	PROB	11.194	n/a	n/a	n/a	-999	13	[6, 8, 9]	23.0	catFR1	1	R1320D
1720.713	6.855	1702067	PROB	6.855	n/a	n/a	n/a	-999	13	[4, 4, 6]	14.0	catFR1	1	R1320D
1727.568	0.013	1708922	STOP	n/a	n/a	n/a	n/a	-999	13	[-999, -999, -999]	n/a	catFR1	1	R1320D
1727.581	1.102	1708935	DISTRACT_END	n/a	n/a	n/a	n/a	-999	13	[0, 0, 0]	n/a	catFR1	1	R1320D
1728.683	1.6	1710037	RETRIEVAL_ORIENT_START	n/a	n/a	n/a	n/a	-999	13	[0, 0, 0]	n/a	catFR1	1	R1320D
1729.715	0.0	1711069	RETRIEVAL_ORIENT_END	n/a	n/a	n/a	n/a	-999	13	[0, 0, 0]	n/a	catFR1	1	R1320D
1729.715	15.254	1711069	REC_START	n/a	n/a	n/a	n/a	-999	13	[0, 0, 0]	n/a	catFR1	1	R1320D
1744.969	15.256	1726322	REC_WORD_VV	15.254	n/a	<>	n/a	-999	13	[0, 0, 0]	n/a	catFR1	1	R1320D
1760.225	0.0	1741577	REC_END	n/a	n/a	n/a	n/a	-999	13	[0, 0, 0]	n/a	catFR1	1	R1320D
1760.225	0.0	1741577	TRIAL_END	n/a	n/a	n/a	n/a	-999	13	[0, 0, 0]	n/a	catFR1	1	R1320D
