onset	duration	sample	trial_type	response_time	stim_file	item_name	category	serialpos	list	test	answer	experiment	session	subject
0.0	1.266	20147	INSTRUCT_START	n/a	n/a	n/a	n/a	-999	-999	[0, 0, 0]	n/a	catFR1	2	R1474T
1.266	34.482	21404	INSTRUCT_END	n/a	n/a	n/a	n/a	-999	-999	[0, 0, 0]	n/a	catFR1	2	R1474T
35.748	10.35	55887	COUNTDOWN_START	n/a	n/a	n/a	n/a	-999	-999	[0, 0, 0]	n/a	catFR1	2	R1474T
46.098	0.0	66240	COUNTDOWN_END	n/a	n/a	n/a	n/a	-999	-999	[0, 0, 0]	n/a	catFR1	2	R1474T
46.098	2.168	66240	ENCODING_START	n/a	n/a	n/a	n/a	-999	-1	[0, 0, 0]	n/a	catFR1	2	R1474T
48.266	1.617	68406	WORD	n/a	n/a	PIG	FarmAnimals	1	-1	[0, 0, 0]	n/a	catFR1	2	R1474T
49.883	0.815	70026	WORD_OFF	n/a	n/a	PIG	FarmAnimals	1	-1	[0, 0, 0]	n/a	catFR1	2	R1474T
50.698	1.601	70837	WORD	n/a	n/a	CHICKEN	FarmAnimals	2	-1	[0, 0, 0]	n/a	catFR1	2	R1474T
52.299	0.95	72443	WORD_OFF	n/a	n/a	CHICKEN	FarmAnimals	2	-1	[0, 0, 0]	n/a	catFR1	2	R1474T
53.249	1.6	73393	WORD	n/a	n/a	GIRAFFE	Zoo	3	-1	[0, 0, 0]	n/a	catFR1	2	R1474T
54.849	0.967	74986	WORD_OFF	n/a	n/a	GIRAFFE	Zoo	3	-1	[0, 0, 0]	n/a	catFR1	2	R1474T
55.816	1.616	75950	WORD	n/a	n/a	ELEPHANT	Zoo	4	-1	[0, 0, 0]	n/a	catFR1	2	R1474T
57.432	0.867	77571	WORD_OFF	n/a	n/a	ELEPHANT	Zoo	4	-1	[0, 0, 0]	n/a	catFR1	2	R1474T
58.299	1.615	78437	WORD	n/a	n/a	BIKE	Vehicles	5	-1	[0, 0, 0]	n/a	catFR1	2	R1474T
59.914	0.834	80058	WORD_OFF	n/a	n/a	BIKE	Vehicles	5	-1	[0, 0, 0]	n/a	catFR1	2	R1474T
60.748	1.617	80882	WORD	n/a	n/a	TRUCK	Vehicles	6	-1	[0, 0, 0]	n/a	catFR1	2	R1474T
62.365	0.9	82503	WORD_OFF	n/a	n/a	TRUCK	Vehicles	6	-1	[0, 0, 0]	n/a	catFR1	2	R1474T
63.265	1.617	83397	WORD	n/a	n/a	HEN	FarmAnimals	7	-1	[0, 0, 0]	n/a	catFR1	2	R1474T
64.882	1.0	85018	WORD_OFF	n/a	n/a	HEN	FarmAnimals	7	-1	[0, 0, 0]	n/a	catFR1	2	R1474T
65.882	1.6	86024	WORD	n/a	n/a	HORSE	FarmAnimals	8	-1	[0, 0, 0]	n/a	catFR1	2	R1474T
67.482	0.949	87617	WORD_OFF	n/a	n/a	HORSE	FarmAnimals	8	-1	[0, 0, 0]	n/a	catFR1	2	R1474T
68.431	1.618	88567	WORD	n/a	n/a	TIGER	Zoo	9	-1	[0, 0, 0]	n/a	catFR1	2	R1474T
70.049	0.966	90188	WORD_OFF	n/a	n/a	TIGER	Zoo	9	-1	[0, 0, 0]	n/a	catFR1	2	R1474T
71.015	1.6	91152	WORD	n/a	n/a	CHIMPANZEE	Zoo	10	-1	[0, 0, 0]	n/a	catFR1	2	R1474T
72.615	0.95	92758	WORD_OFF	n/a	n/a	CHIMPANZEE	Zoo	10	-1	[0, 0, 0]	n/a	catFR1	2	R1474T
73.565	1.6	93709	WORD	n/a	n/a	TRAIN	Vehicles	11	-1	[0, 0, 0]	n/a	catFR1	2	R1474T
75.165	0.933	95301	WORD_OFF	n/a	n/a	TRAIN	Vehicles	11	-1	[0, 0, 0]	n/a	catFR1	2	R1474T
76.098	1.601	96237	WORD	n/a	n/a	PLANE	Vehicles	12	-1	[0, 0, 0]	n/a	catFR1	2	R1474T
77.699	0.001	97830	WORD_OFF	n/a	n/a	PLANE	Vehicles	12	-1	[0, 0, 0]	n/a	catFR1	2	R1474T
77.7	0.001	97838	START	n/a	n/a	n/a	n/a	-999	-1	[-999, -999, -999]	n/a	catFR1	2	R1474T
77.701	0.0	97839	PROB	6.999	n/a	n/a	n/a	-999	-1	[2, 6, 5]	13.0	catFR1	2	R1474T
77.7	0.0	97844	ENCODING_END	n/a	n/a	n/a	n/a	-999	-1	[0, 0, 0]	n/a	catFR1	2	R1474T
77.7	7.016	97844	DISTRACT_START	n/a	n/a	n/a	n/a	-999	-1	[0, 0, 0]	n/a	catFR1	2	R1474T
84.716	4.783	104854	PROB	4.766	n/a	n/a	n/a	-999	-1	[7, 7, 4]	18.0	catFR1	2	R1474T
89.499	5.682	109637	PROB	5.666	n/a	n/a	n/a	-999	-1	[8, 1, 8]	17.0	catFR1	2	R1474T
95.181	7.651	115318	PROB	7.634	n/a	n/a	n/a	-999	-1	[2, 6, 2]	10.0	catFR1	2	R1474T
102.832	0.0	122965	DISTRACT_END	n/a	n/a	n/a	n/a	-999	-1	[0, 0, 0]	n/a	catFR1	2	R1474T
102.832	2.132	122969	STOP	n/a	n/a	n/a	n/a	-999	-1	[-999, -999, -999]	n/a	catFR1	2	R1474T
104.964	1.358	125097	REC_START	n/a	n/a	n/a	n/a	-999	-1	[0, 0, 0]	n/a	catFR1	2	R1474T
106.322	1.213	126459	REC_WORD	1.358	n/a	PIG	FarmAnimals	1	-1	[0, 0, 0]	n/a	catFR1	2	R1474T
107.535	3.181	127672	REC_WORD	2.571	n/a	CHICKEN	FarmAnimals	2	-1	[0, 0, 0]	n/a	catFR1	2	R1474T
110.716	3.087	130853	REC_WORD	5.752	n/a	HEN	FarmAnimals	7	-1	[0, 0, 0]	n/a	catFR1	2	R1474T
113.803	1.0	133940	REC_WORD	8.839	n/a	CHIMPANZEE	Zoo	10	-1	[0, 0, 0]	n/a	catFR1	2	R1474T
114.803	6.57	134940	REC_WORD	9.839	n/a	CHIMPANZEE	Zoo	10	-1	[0, 0, 0]	n/a	catFR1	2	R1474T
121.373	13.784	141509	REC_WORD	16.409	n/a	TRUCK	Vehicles	6	-1	[0, 0, 0]	n/a	catFR1	2	R1474T
135.157	8.375	155296	REC_END	n/a	n/a	n/a	n/a	-999	-1	[0, 0, 0]	n/a	catFR1	2	R1474T
143.532	10.348	163665	COUNTDOWN_START	n/a	n/a	n/a	n/a	-999	1	[0, 0, 0]	n/a	catFR1	2	R1474T
153.88	0.0	174019	COUNTDOWN_END	n/a	n/a	n/a	n/a	-999	1	[0, 0, 0]	n/a	catFR1	2	R1474T
153.88	2.15	174019	ENCODING_START	n/a	n/a	n/a	n/a	-999	1	[0, 0, 0]	n/a	catFR1	2	R1474T
156.03	1.602	176170	WORD	n/a	wordpools/wordpool_categorized_EN.txt	LIME	Fruit	1	1	[0, 0, 0]	n/a	catFR1	2	R1474T
157.632	0.783	177763	WORD_OFF	n/a	n/a	LIME	Fruit	1	1	[0, 0, 0]	n/a	catFR1	2	R1474T
158.415	1.6	178545	WORD	n/a	wordpools/wordpool_categorized_EN.txt	APPLE	Fruit	2	1	[0, 0, 0]	n/a	catFR1	2	R1474T
160.015	0.8	180152	WORD_OFF	n/a	n/a	APPLE	Fruit	2	1	[0, 0, 0]	n/a	catFR1	2	R1474T
160.815	1.6	180949	WORD	n/a	wordpools/wordpool_categorized_EN.txt	MOUSSE	Desserts	3	1	[0, 0, 0]	n/a	catFR1	2	R1474T
162.415	0.883	182541	WORD_OFF	n/a	n/a	MOUSSE	Desserts	3	1	[0, 0, 0]	n/a	catFR1	2	R1474T
163.298	1.601	183436	WORD	n/a	wordpools/wordpool_categorized_EN.txt	CAKE	Desserts	4	1	[0, 0, 0]	n/a	catFR1	2	R1474T
164.899	0.916	185028	WORD_OFF	n/a	n/a	CAKE	Desserts	4	1	[0, 0, 0]	n/a	catFR1	2	R1474T
165.815	1.601	185950	WORD	n/a	wordpools/wordpool_categorized_EN.txt	CRICKET	Insects	5	1	[0, 0, 0]	n/a	catFR1	2	R1474T
167.416	0.816	187543	WORD_OFF	n/a	n/a	CRICKET	Insects	5	1	[0, 0, 0]	n/a	catFR1	2	R1474T
168.232	1.617	188368	WORD	n/a	wordpools/wordpool_categorized_EN.txt	ROACH	Insects	6	1	[0, 0, 0]	n/a	catFR1	2	R1474T
169.849	0.95	189974	WORD_OFF	n/a	n/a	ROACH	Insects	6	1	[0, 0, 0]	n/a	catFR1	2	R1474T
170.799	1.616	190938	WORD	n/a	wordpools/wordpool_categorized_EN.txt	LEMON	Fruit	7	1	[0, 0, 0]	n/a	catFR1	2	R1474T
172.415	0.783	192545	WORD_OFF	n/a	n/a	LEMON	Fruit	7	1	[0, 0, 0]	n/a	catFR1	2	R1474T
173.198	1.6	193328	WORD	n/a	wordpools/wordpool_categorized_EN.txt	ORANGE	Fruit	8	1	[0, 0, 0]	n/a	catFR1	2	R1474T
174.798	0.966	194934	WORD_OFF	n/a	n/a	ORANGE	Fruit	8	1	[0, 0, 0]	n/a	catFR1	2	R1474T
175.764	1.601	195898	WORD	n/a	wordpools/wordpool_categorized_EN.txt	BEETLE	Insects	9	1	[0, 0, 0]	n/a	catFR1	2	R1474T
177.365	0.8	197491	WORD_OFF	n/a	n/a	BEETLE	Insects	9	1	[0, 0, 0]	n/a	catFR1	2	R1474T
178.165	1.6	198302	WORD	n/a	wordpools/wordpool_categorized_EN.txt	MOTH	Insects	10	1	[0, 0, 0]	n/a	catFR1	2	R1474T
179.765	0.783	199894	WORD_OFF	n/a	n/a	MOTH	Insects	10	1	[0, 0, 0]	n/a	catFR1	2	R1474T
180.548	1.601	200677	WORD	n/a	wordpools/wordpool_categorized_EN.txt	PUDDING	Desserts	11	1	[0, 0, 0]	n/a	catFR1	2	R1474T
182.149	0.966	202284	WORD_OFF	n/a	n/a	PUDDING	Desserts	11	1	[0, 0, 0]	n/a	catFR1	2	R1474T
183.115	1.618	203248	WORD	n/a	wordpools/wordpool_categorized_EN.txt	PIE	Desserts	12	1	[0, 0, 0]	n/a	catFR1	2	R1474T
184.733	0.0	204866	START	n/a	n/a	n/a	n/a	-999	1	[-999, -999, -999]	n/a	catFR1	2	R1474T
184.733	0.0	204866	PROB	13.032	n/a	n/a	n/a	-999	1	[8, 5, 1]	14.0	catFR1	2	R1474T
184.732	0.001	204868	WORD_OFF	n/a	n/a	PIE	Desserts	12	1	[0, 0, 0]	n/a	catFR1	2	R1474T
184.733	0.0	204868	ENCODING_END	n/a	n/a	n/a	n/a	-999	1	[0, 0, 0]	n/a	catFR1	2	R1474T
184.733	13.049	204868	DISTRACT_START	n/a	n/a	n/a	n/a	-999	1	[0, 0, 0]	n/a	catFR1	2	R1474T
197.782	8.549	217914	PROB	8.533	n/a	n/a	n/a	-999	1	[4, 7, 5]	16.0	catFR1	2	R1474T
206.331	0.0	226455	DISTRACT_END	n/a	n/a	n/a	n/a	-999	1	[0, 0, 0]	n/a	catFR1	2	R1474T
206.331	2.368	226463	STOP	n/a	n/a	n/a	n/a	-999	1	[-999, -999, -999]	n/a	catFR1	2	R1474T
208.699	1.641	228824	REC_START	n/a	n/a	n/a	n/a	-999	1	[0, 0, 0]	n/a	catFR1	2	R1474T
210.34	1.164	230472	REC_WORD	1.641	n/a	LIME	Fruit	1	1	[0, 0, 0]	n/a	catFR1	2	R1474T
211.504	2.371	231636	REC_WORD	2.805	n/a	APPLE	Fruit	2	1	[0, 0, 0]	n/a	catFR1	2	R1474T
213.875	4.828	234006	REC_WORD	5.176	n/a	MOUSSE	Desserts	3	1	[0, 0, 0]	n/a	catFR1	2	R1474T
218.703	3.883	238834	REC_WORD	10.004	n/a	CAKE	Desserts	4	1	[0, 0, 0]	n/a	catFR1	2	R1474T
222.586	4.319	242717	REC_WORD	13.887	n/a	ROACH	Insects	6	1	[0, 0, 0]	n/a	catFR1	2	R1474T
226.905	4.652	247036	REC_WORD	18.206	n/a	PUDDING	Desserts	11	1	[0, 0, 0]	n/a	catFR1	2	R1474T
231.557	7.381	251688	REC_WORD	22.858	n/a	MOTH	Insects	10	1	[0, 0, 0]	n/a	catFR1	2	R1474T
238.938	3.778	259065	REC_END	n/a	n/a	n/a	n/a	-999	1	[0, 0, 0]	n/a	catFR1	2	R1474T
242.716	10.348	262851	COUNTDOWN_START	n/a	n/a	n/a	n/a	-999	2	[0, 0, 0]	n/a	catFR1	2	R1474T
253.064	0.001	273190	COUNTDOWN_END	n/a	n/a	n/a	n/a	-999	2	[0, 0, 0]	n/a	catFR1	2	R1474T
253.065	2.2	273190	ENCODING_START	n/a	n/a	n/a	n/a	-999	2	[0, 0, 0]	n/a	catFR1	2	R1474T
255.265	1.6	275398	WORD	n/a	wordpools/wordpool_categorized_EN.txt	LAMB	FarmAnimals	1	2	[0, 0, 0]	n/a	catFR1	2	R1474T
256.865	0.933	276991	WORD_OFF	n/a	n/a	LAMB	FarmAnimals	1	2	[0, 0, 0]	n/a	catFR1	2	R1474T
257.798	1.601	277927	WORD	n/a	wordpools/wordpool_categorized_EN.txt	SHEEP	FarmAnimals	2	2	[0, 0, 0]	n/a	catFR1	2	R1474T
259.399	0.766	279520	WORD_OFF	n/a	n/a	SHEEP	FarmAnimals	2	2	[0, 0, 0]	n/a	catFR1	2	R1474T
260.165	1.6	280288	WORD	n/a	wordpools/wordpool_categorized_EN.txt	MOSQUITO	Insects	3	2	[0, 0, 0]	n/a	catFR1	2	R1474T
261.765	0.866	281895	WORD_OFF	n/a	n/a	MOSQUITO	Insects	3	2	[0, 0, 0]	n/a	catFR1	2	R1474T
262.631	1.601	282761	WORD	n/a	wordpools/wordpool_categorized_EN.txt	LADYBUG	Insects	4	2	[0, 0, 0]	n/a	catFR1	2	R1474T
264.232	0.833	284354	WORD_OFF	n/a	n/a	LADYBUG	Insects	4	2	[0, 0, 0]	n/a	catFR1	2	R1474T
265.065	1.6	285192	WORD	n/a	wordpools/wordpool_categorized_EN.txt	CLOUD	Weather	5	2	[0, 0, 0]	n/a	catFR1	2	R1474T
266.665	0.999	286799	WORD_OFF	n/a	n/a	CLOUD	Weather	5	2	[0, 0, 0]	n/a	catFR1	2	R1474T
267.664	1.618	287791	WORD	n/a	wordpools/wordpool_categorized_EN.txt	THUNDER	Weather	6	2	[0, 0, 0]	n/a	catFR1	2	R1474T
269.282	0.783	289412	WORD_OFF	n/a	n/a	THUNDER	Weather	6	2	[0, 0, 0]	n/a	catFR1	2	R1474T
270.065	1.617	290194	WORD	n/a	wordpools/wordpool_categorized_EN.txt	BULL	FarmAnimals	7	2	[0, 0, 0]	n/a	catFR1	2	R1474T
271.682	0.8	291815	WORD_OFF	n/a	n/a	BULL	FarmAnimals	7	2	[0, 0, 0]	n/a	catFR1	2	R1474T
272.482	1.602	292611	WORD	n/a	wordpools/wordpool_categorized_EN.txt	CALF	FarmAnimals	8	2	[0, 0, 0]	n/a	catFR1	2	R1474T
274.084	0.915	294218	WORD_OFF	n/a	n/a	CALF	FarmAnimals	8	2	[0, 0, 0]	n/a	catFR1	2	R1474T
274.999	1.6	295126	WORD	n/a	wordpools/wordpool_categorized_EN.txt	HURRICANE	Weather	9	2	[0, 0, 0]	n/a	catFR1	2	R1474T
276.599	0.9	296719	WORD_OFF	n/a	n/a	HURRICANE	Weather	9	2	[0, 0, 0]	n/a	catFR1	2	R1474T
277.499	1.618	297627	WORD	n/a	wordpools/wordpool_categorized_EN.txt	LIGHTNING	Weather	10	2	[0, 0, 0]	n/a	catFR1	2	R1474T
279.117	0.832	299248	WORD_OFF	n/a	n/a	LIGHTNING	Weather	10	2	[0, 0, 0]	n/a	catFR1	2	R1474T
279.949	1.616	300072	WORD	n/a	wordpools/wordpool_categorized_EN.txt	FLY	Insects	11	2	[0, 0, 0]	n/a	catFR1	2	R1474T
281.565	0.984	301693	WORD_OFF	n/a	n/a	FLY	Insects	11	2	[0, 0, 0]	n/a	catFR1	2	R1474T
282.549	1.615	302671	WORD	n/a	wordpools/wordpool_categorized_EN.txt	GNAT	Insects	12	2	[0, 0, 0]	n/a	catFR1	2	R1474T
284.164	0.002	304292	WORD_OFF	n/a	n/a	GNAT	Insects	12	2	[0, 0, 0]	n/a	catFR1	2	R1474T
284.166	0.0	304292	ENCODING_END	n/a	n/a	n/a	n/a	-999	2	[0, 0, 0]	n/a	catFR1	2	R1474T
284.166	0.0	304292	DISTRACT_START	n/a	n/a	n/a	n/a	-999	2	[0, 0, 0]	n/a	catFR1	2	R1474T
284.165	0.001	304293	PROB	5.667	n/a	n/a	n/a	-999	2	[8, 6, 2]	16.0	catFR1	2	R1474T
284.166	5.683	304294	START	n/a	n/a	n/a	n/a	-999	2	[-999, -999, -999]	n/a	catFR1	2	R1474T
289.849	8.567	309977	PROB	8.549	n/a	n/a	n/a	-999	2	[3, 6, 5]	14.0	catFR1	2	R1474T
298.416	3.066	318543	PROB	3.049	n/a	n/a	n/a	-999	2	[1, 7, 1]	9.0	catFR1	2	R1474T
301.482	3.666	321609	PROB	3.649	n/a	n/a	n/a	-999	2	[6, 6, 1]	13.0	catFR1	2	R1474T
305.148	0.0	325275	STOP	n/a	n/a	n/a	n/a	-999	2	[-999, -999, -999]	n/a	catFR1	2	R1474T
305.148	2.051	325277	DISTRACT_END	n/a	n/a	n/a	n/a	-999	2	[0, 0, 0]	n/a	catFR1	2	R1474T
307.199	2.507	327325	REC_START	n/a	n/a	n/a	n/a	-999	2	[0, 0, 0]	n/a	catFR1	2	R1474T
309.706	1.41	329833	REC_WORD	2.507	n/a	THUNDER	Weather	6	2	[0, 0, 0]	n/a	catFR1	2	R1474T
311.116	1.753	331243	REC_WORD	3.917	n/a	LIGHTNING	Weather	10	2	[0, 0, 0]	n/a	catFR1	2	R1474T
312.869	1.0	332995	REC_WORD	5.67	n/a	HURRICANE	Weather	9	2	[0, 0, 0]	n/a	catFR1	2	R1474T
313.869	2.63	333995	REC_WORD	6.67	n/a	HURRICANE	Weather	9	2	[0, 0, 0]	n/a	catFR1	2	R1474T
316.499	1.0	336625	REC_WORD	9.3	n/a	GNAT	Insects	12	2	[0, 0, 0]	n/a	catFR1	2	R1474T
317.499	5.757	337625	REC_WORD	10.3	n/a	GNAT	Insects	12	2	[0, 0, 0]	n/a	catFR1	2	R1474T
323.256	1.0	343382	REC_WORD	16.057	n/a	SHEEP	FarmAnimals	2	2	[0, 0, 0]	n/a	catFR1	2	R1474T
324.256	5.453	344382	REC_WORD	17.057	n/a	SHEEP	FarmAnimals	2	2	[0, 0, 0]	n/a	catFR1	2	R1474T
329.709	1.0	349835	REC_WORD	22.51	n/a	CALF	FarmAnimals	8	2	[0, 0, 0]	n/a	catFR1	2	R1474T
330.709	6.684	350835	REC_WORD	23.51	n/a	CALF	FarmAnimals	8	2	[0, 0, 0]	n/a	catFR1	2	R1474T
337.393	3.156	357524	REC_END	n/a	n/a	n/a	n/a	-999	2	[0, 0, 0]	n/a	catFR1	2	R1474T
340.549	10.349	360668	COUNTDOWN_START	n/a	n/a	n/a	n/a	-999	3	[0, 0, 0]	n/a	catFR1	2	R1474T
350.898	0.0	371021	COUNTDOWN_END	n/a	n/a	n/a	n/a	-999	3	[0, 0, 0]	n/a	catFR1	2	R1474T
350.898	2.132	371021	ENCODING_START	n/a	n/a	n/a	n/a	-999	3	[0, 0, 0]	n/a	catFR1	2	R1474T
353.03	1.602	373159	WORD	n/a	wordpools/wordpool_categorized_EN.txt	GORILLA	Zoo	1	3	[0, 0, 0]	n/a	catFR1	2	R1474T
354.632	0.9	374752	WORD_OFF	n/a	n/a	GORILLA	Zoo	1	3	[0, 0, 0]	n/a	catFR1	2	R1474T
355.532	1.616	375660	WORD	n/a	wordpools/wordpool_categorized_EN.txt	LION	Zoo	2	3	[0, 0, 0]	n/a	catFR1	2	R1474T
357.148	0.784	377267	WORD_OFF	n/a	n/a	LION	Zoo	2	3	[0, 0, 0]	n/a	catFR1	2	R1474T
357.932	1.617	378049	WORD	n/a	wordpools/wordpool_categorized_EN.txt	CORN	Vegetables	3	3	[0, 0, 0]	n/a	catFR1	2	R1474T
359.549	0.766	379670	WORD_OFF	n/a	n/a	CORN	Vegetables	3	3	[0, 0, 0]	n/a	catFR1	2	R1474T
360.315	1.6	380438	WORD	n/a	wordpools/wordpool_categorized_EN.txt	CUCUMBER	Vegetables	4	3	[0, 0, 0]	n/a	catFR1	2	R1474T
361.915	0.834	382031	WORD_OFF	n/a	n/a	CUCUMBER	Vegetables	4	3	[0, 0, 0]	n/a	catFR1	2	R1474T
362.749	1.6	382869	WORD	n/a	wordpools/wordpool_categorized_EN.txt	BLOCKS	Toys	5	3	[0, 0, 0]	n/a	catFR1	2	R1474T
364.349	1.0	384476	WORD_OFF	n/a	n/a	BLOCKS	Toys	5	3	[0, 0, 0]	n/a	catFR1	2	R1474T
365.349	1.617	385468	WORD	n/a	wordpools/wordpool_categorized_EN.txt	DOLL	Toys	6	3	[0, 0, 0]	n/a	catFR1	2	R1474T
366.966	0.95	387089	WORD_OFF	n/a	n/a	DOLL	Toys	6	3	[0, 0, 0]	n/a	catFR1	2	R1474T
367.916	1.599	388039	WORD	n/a	wordpools/wordpool_categorized_EN.txt	ZEBRA	Zoo	7	3	[0, 0, 0]	n/a	catFR1	2	R1474T
369.515	0.967	389632	WORD_OFF	n/a	n/a	ZEBRA	Zoo	7	3	[0, 0, 0]	n/a	catFR1	2	R1474T
370.482	1.616	390610	WORD	n/a	wordpools/wordpool_categorized_EN.txt	ORANGUTAN	Zoo	8	3	[0, 0, 0]	n/a	catFR1	2	R1474T
372.098	0.868	392216	WORD_OFF	n/a	n/a	ORANGUTAN	Zoo	8	3	[0, 0, 0]	n/a	catFR1	2	R1474T
372.966	1.616	393083	WORD	n/a	wordpools/wordpool_categorized_EN.txt	BALL	Toys	9	3	[0, 0, 0]	n/a	catFR1	2	R1474T
374.582	0.883	394703	WORD_OFF	n/a	n/a	BALL	Toys	9	3	[0, 0, 0]	n/a	catFR1	2	R1474T
375.465	1.6	395584	WORD	n/a	wordpools/wordpool_categorized_EN.txt	FOOTBALL	Toys	10	3	[0, 0, 0]	n/a	catFR1	2	R1474T
377.065	1.0	397190	WORD_OFF	n/a	n/a	FOOTBALL	Toys	10	3	[0, 0, 0]	n/a	catFR1	2	R1474T
378.065	1.6	398182	WORD	n/a	wordpools/wordpool_categorized_EN.txt	POTATO	Vegetables	11	3	[0, 0, 0]	n/a	catFR1	2	R1474T
379.665	0.95	399789	WORD_OFF	n/a	n/a	POTATO	Vegetables	11	3	[0, 0, 0]	n/a	catFR1	2	R1474T
380.615	1.6	400739	WORD	n/a	wordpools/wordpool_categorized_EN.txt	CABBAGE	Vegetables	12	3	[0, 0, 0]	n/a	catFR1	2	R1474T
382.215	0.001	402332	WORD_OFF	n/a	n/a	CABBAGE	Vegetables	12	3	[0, 0, 0]	n/a	catFR1	2	R1474T
382.216	0.001	402339	PROB	6.166	n/a	n/a	n/a	-999	3	[4, 6, 3]	12.0	catFR1	2	R1474T
382.217	0.0	402340	START	n/a	n/a	n/a	n/a	-999	3	[-999, -999, -999]	n/a	catFR1	2	R1474T
382.217	0.0	402346	ENCODING_END	n/a	n/a	n/a	n/a	-999	3	[0, 0, 0]	n/a	catFR1	2	R1474T
382.217	6.182	402346	DISTRACT_START	n/a	n/a	n/a	n/a	-999	3	[0, 0, 0]	n/a	catFR1	2	R1474T
388.399	5.366	408522	PROB	5.35	n/a	n/a	n/a	-999	3	[4, 4, 2]	10.0	catFR1	2	R1474T
393.765	6.483	413887	PROB	6.466	n/a	n/a	n/a	-999	3	[7, 6, 6]	19.0	catFR1	2	R1474T
400.248	9.082	420370	PROB	9.066	n/a	n/a	n/a	-999	3	[1, 8, 5]	14.0	catFR1	2	R1474T
409.33	0.0	429451	DISTRACT_END	n/a	n/a	n/a	n/a	-999	3	[0, 0, 0]	n/a	catFR1	2	R1474T
409.33	2.184	429451	STOP	n/a	n/a	n/a	n/a	-999	3	[-999, -999, -999]	n/a	catFR1	2	R1474T
411.514	1.784	431639	REC_START	n/a	n/a	n/a	n/a	-999	3	[0, 0, 0]	n/a	catFR1	2	R1474T
413.298	1.0	433419	REC_WORD	1.784	n/a	FOOTBALL	Toys	10	3	[0, 0, 0]	n/a	catFR1	2	R1474T
414.298	10.052	434419	REC_WORD	2.784	n/a	FOOTBALL	Toys	10	3	[0, 0, 0]	n/a	catFR1	2	R1474T
424.35	1.0	444471	REC_WORD	12.836	n/a	ORANGUTAN	Zoo	8	3	[0, 0, 0]	n/a	catFR1	2	R1474T
425.35	4.097	445471	REC_WORD	13.836	n/a	ORANGUTAN	Zoo	8	3	[0, 0, 0]	n/a	catFR1	2	R1474T
429.447	12.305	449568	REC_WORD	17.933	n/a	ZEBRA	Zoo	7	3	[0, 0, 0]	n/a	catFR1	2	R1474T
441.752	7.147	461866	REC_END	n/a	n/a	n/a	n/a	-999	3	[0, 0, 0]	n/a	catFR1	2	R1474T
448.899	10.35	469020	COUNTDOWN_START	n/a	n/a	n/a	n/a	-999	4	[0, 0, 0]	n/a	catFR1	2	R1474T
459.249	0.0	479373	COUNTDOWN_END	n/a	n/a	n/a	n/a	-999	4	[0, 0, 0]	n/a	catFR1	2	R1474T
459.249	1.967	479373	ENCODING_START	n/a	n/a	n/a	n/a	-999	4	[0, 0, 0]	n/a	catFR1	2	R1474T
461.216	1.599	481329	WORD	n/a	wordpools/wordpool_categorized_EN.txt	CALCULATOR	Electronics	1	4	[0, 0, 0]	n/a	catFR1	2	R1474T
462.815	0.999	482935	WORD_OFF	n/a	n/a	CALCULATOR	Electronics	1	4	[0, 0, 0]	n/a	catFR1	2	R1474T
463.814	1.6	483927	WORD	n/a	wordpools/wordpool_categorized_EN.txt	COMPUTER	Electronics	2	4	[0, 0, 0]	n/a	catFR1	2	R1474T
465.414	0.966	485534	WORD_OFF	n/a	n/a	COMPUTER	Electronics	2	4	[0, 0, 0]	n/a	catFR1	2	R1474T
466.38	1.601	486498	WORD	n/a	wordpools/wordpool_categorized_EN.txt	LEMONADE	Beverages	3	4	[0, 0, 0]	n/a	catFR1	2	R1474T
467.981	0.918	488105	WORD_OFF	n/a	n/a	LEMONADE	Beverages	3	4	[0, 0, 0]	n/a	catFR1	2	R1474T
468.899	1.616	489013	WORD	n/a	wordpools/wordpool_categorized_EN.txt	JUICE	Beverages	4	4	[0, 0, 0]	n/a	catFR1	2	R1474T
470.515	0.949	490634	WORD_OFF	n/a	n/a	JUICE	Beverages	4	4	[0, 0, 0]	n/a	catFR1	2	R1474T
471.464	1.601	491584	WORD	n/a	wordpools/wordpool_categorized_EN.txt	HICKORY	Trees	5	4	[0, 0, 0]	n/a	catFR1	2	R1474T
473.065	0.899	493177	WORD_OFF	n/a	n/a	HICKORY	Trees	5	4	[0, 0, 0]	n/a	catFR1	2	R1474T
473.964	1.601	494085	WORD	n/a	wordpools/wordpool_categorized_EN.txt	CEDAR	Trees	6	4	[0, 0, 0]	n/a	catFR1	2	R1474T
475.565	0.933	495678	WORD_OFF	n/a	n/a	CEDAR	Trees	6	4	[0, 0, 0]	n/a	catFR1	2	R1474T
476.498	1.601	496614	WORD	n/a	wordpools/wordpool_categorized_EN.txt	WATER	Beverages	7	4	[0, 0, 0]	n/a	catFR1	2	R1474T
478.099	0.799	498221	WORD_OFF	n/a	n/a	WATER	Beverages	7	4	[0, 0, 0]	n/a	catFR1	2	R1474T
478.898	1.601	499017	WORD	n/a	wordpools/wordpool_categorized_EN.txt	COFFEE	Beverages	8	4	[0, 0, 0]	n/a	catFR1	2	R1474T
480.499	0.816	500610	WORD_OFF	n/a	n/a	COFFEE	Beverages	8	4	[0, 0, 0]	n/a	catFR1	2	R1474T
481.315	1.615	501434	WORD	n/a	wordpools/wordpool_categorized_EN.txt	CYPRESS	Trees	9	4	[0, 0, 0]	n/a	catFR1	2	R1474T
482.93	0.802	503041	WORD_OFF	n/a	n/a	CYPRESS	Trees	9	4	[0, 0, 0]	n/a	catFR1	2	R1474T
483.732	1.616	503851	WORD	n/a	wordpools/wordpool_categorized_EN.txt	BIRCH	Trees	10	4	[0, 0, 0]	n/a	catFR1	2	R1474T
485.348	0.901	505458	WORD_OFF	n/a	n/a	BIRCH	Trees	10	4	[0, 0, 0]	n/a	catFR1	2	R1474T
486.249	1.615	506366	WORD	n/a	wordpools/wordpool_categorized_EN.txt	PRINTER	Electronics	11	4	[0, 0, 0]	n/a	catFR1	2	R1474T
487.864	0.916	507987	WORD_OFF	n/a	n/a	PRINTER	Electronics	11	4	[0, 0, 0]	n/a	catFR1	2	R1474T
488.78	1.602	508895	WORD	n/a	wordpools/wordpool_categorized_EN.txt	SPEAKER	Electronics	12	4	[0, 0, 0]	n/a	catFR1	2	R1474T
490.382	0.0	510499	PROB	4.45	n/a	n/a	n/a	-999	4	[1, 3, 1]	5.0	catFR1	2	R1474T
490.381	0.004	510502	WORD_OFF	n/a	n/a	SPEAKER	Electronics	12	4	[0, 0, 0]	n/a	catFR1	2	R1474T
490.385	0.0	510502	ENCODING_END	n/a	n/a	n/a	n/a	-999	4	[0, 0, 0]	n/a	catFR1	2	R1474T
490.385	0.0	510502	DISTRACT_START	n/a	n/a	n/a	n/a	-999	4	[0, 0, 0]	n/a	catFR1	2	R1474T
490.385	4.464	510502	START	n/a	n/a	n/a	n/a	-999	4	[-999, -999, -999]	n/a	catFR1	2	R1474T
494.849	3.783	514966	PROB	3.766	n/a	n/a	n/a	-999	4	[6, 3, 2]	11.0	catFR1	2	R1474T
498.632	3.767	518749	PROB	3.75	n/a	n/a	n/a	-999	4	[4, 5, 2]	11.0	catFR1	2	R1474T
502.399	6.633	522516	PROB	6.615	n/a	n/a	n/a	-999	4	[7, 5, 4]	16.0	catFR1	2	R1474T
509.032	4.9	529148	PROB	4.883	n/a	n/a	n/a	-999	4	[4, 6, 4]	12.0	catFR1	2	R1474T
513.932	0.0	534044	DISTRACT_END	n/a	n/a	n/a	n/a	-999	4	[0, 0, 0]	n/a	catFR1	2	R1474T
513.932	2.216	534048	STOP	n/a	n/a	n/a	n/a	-999	4	[-999, -999, -999]	n/a	catFR1	2	R1474T
516.148	1.457	536260	REC_START	n/a	n/a	n/a	n/a	-999	4	[0, 0, 0]	n/a	catFR1	2	R1474T
517.605	1.0	537721	REC_WORD	1.457	n/a	COMPUTER	Electronics	2	4	[0, 0, 0]	n/a	catFR1	2	R1474T
518.605	2.254	538721	REC_WORD	2.457	n/a	COMPUTER	Electronics	2	4	[0, 0, 0]	n/a	catFR1	2	R1474T
520.859	1.0	540975	REC_WORD	4.711	n/a	CALCULATOR	Electronics	1	4	[0, 0, 0]	n/a	catFR1	2	R1474T
521.859	2.33	541975	REC_WORD	5.711	n/a	CALCULATOR	Electronics	1	4	[0, 0, 0]	n/a	catFR1	2	R1474T
524.189	1.0	544305	REC_WORD	8.041	n/a	LEMONADE	Beverages	3	4	[0, 0, 0]	n/a	catFR1	2	R1474T
525.189	2.118	545305	REC_WORD	9.041	n/a	LEMONADE	Beverages	3	4	[0, 0, 0]	n/a	catFR1	2	R1474T
527.307	1.0	547423	REC_WORD	11.159	n/a	JUICE	Beverages	4	4	[0, 0, 0]	n/a	catFR1	2	R1474T
528.307	3.44	548422	REC_WORD	12.159	n/a	JUICE	Beverages	4	4	[0, 0, 0]	n/a	catFR1	2	R1474T
531.747	14.634	551862	REC_WORD	15.599	n/a	WATER	Beverages	7	4	[0, 0, 0]	n/a	catFR1	2	R1474T
546.381	5.201	566487	REC_END	n/a	n/a	n/a	n/a	-999	4	[0, 0, 0]	n/a	catFR1	2	R1474T
551.582	10.35	571698	COUNTDOWN_START	n/a	n/a	n/a	n/a	-999	5	[0, 0, 0]	n/a	catFR1	2	R1474T
561.932	0.0	582052	COUNTDOWN_END	n/a	n/a	n/a	n/a	-999	5	[0, 0, 0]	n/a	catFR1	2	R1474T
561.932	2.349	582052	ENCODING_START	n/a	n/a	n/a	n/a	-999	5	[0, 0, 0]	n/a	catFR1	2	R1474T
564.281	1.601	584399	WORD	n/a	wordpools/wordpool_categorized_EN.txt	RIVER	Landscapes	1	5	[0, 0, 0]	n/a	catFR1	2	R1474T
565.882	0.767	585992	WORD_OFF	n/a	n/a	RIVER	Landscapes	1	5	[0, 0, 0]	n/a	catFR1	2	R1474T
566.649	1.6	586760	WORD	n/a	wordpools/wordpool_categorized_EN.txt	BEACH	Landscapes	2	5	[0, 0, 0]	n/a	catFR1	2	R1474T
568.249	0.967	588367	WORD_OFF	n/a	n/a	BEACH	Landscapes	2	5	[0, 0, 0]	n/a	catFR1	2	R1474T
569.216	1.616	589331	WORD	n/a	wordpools/wordpool_categorized_EN.txt	FRISBEE	Toys	3	5	[0, 0, 0]	n/a	catFR1	2	R1474T
570.832	1.0	590938	WORD_OFF	n/a	n/a	FRISBEE	Toys	3	5	[0, 0, 0]	n/a	catFR1	2	R1474T
571.832	1.6	591944	WORD	n/a	wordpools/wordpool_categorized_EN.txt	BARBIE	Toys	4	5	[0, 0, 0]	n/a	catFR1	2	R1474T
573.432	0.8	593550	WORD_OFF	n/a	n/a	BARBIE	Toys	4	5	[0, 0, 0]	n/a	catFR1	2	R1474T
574.232	1.616	594347	WORD	n/a	wordpools/wordpool_categorized_EN.txt	SHRIMP	OceanAnimals	5	5	[0, 0, 0]	n/a	catFR1	2	R1474T
575.848	0.966	595953	WORD_OFF	n/a	n/a	SHRIMP	OceanAnimals	5	5	[0, 0, 0]	n/a	catFR1	2	R1474T
576.814	1.6	596932	WORD	n/a	wordpools/wordpool_categorized_EN.txt	OCTOPUS	OceanAnimals	6	5	[0, 0, 0]	n/a	catFR1	2	R1474T
578.414	0.8	598524	WORD_OFF	n/a	n/a	OCTOPUS	OceanAnimals	6	5	[0, 0, 0]	n/a	catFR1	2	R1474T
579.214	1.601	599321	WORD	n/a	wordpools/wordpool_categorized_EN.txt	LAKE	Landscapes	7	5	[0, 0, 0]	n/a	catFR1	2	R1474T
580.815	0.849	600927	WORD_OFF	n/a	n/a	LAKE	Landscapes	7	5	[0, 0, 0]	n/a	catFR1	2	R1474T
581.664	1.601	601780	WORD	n/a	wordpools/wordpool_categorized_EN.txt	FOREST	Landscapes	8	5	[0, 0, 0]	n/a	catFR1	2	R1474T
583.265	0.9	603372	WORD_OFF	n/a	n/a	FOREST	Landscapes	8	5	[0, 0, 0]	n/a	catFR1	2	R1474T
584.165	1.616	604281	WORD	n/a	wordpools/wordpool_categorized_EN.txt	JELLYFISH	OceanAnimals	9	5	[0, 0, 0]	n/a	catFR1	2	R1474T
585.781	0.801	605887	WORD_OFF	n/a	n/a	JELLYFISH	OceanAnimals	9	5	[0, 0, 0]	n/a	catFR1	2	R1474T
586.582	1.617	606698	WORD	n/a	wordpools/wordpool_categorized_EN.txt	PLANKTON	OceanAnimals	10	5	[0, 0, 0]	n/a	catFR1	2	R1474T
588.199	1.0	608305	WORD_OFF	n/a	n/a	PLANKTON	OceanAnimals	10	5	[0, 0, 0]	n/a	catFR1	2	R1474T
589.199	1.6	609310	WORD	n/a	wordpools/wordpool_categorized_EN.txt	BASKETBALL	Toys	11	5	[0, 0, 0]	n/a	catFR1	2	R1474T
590.799	0.915	610903	WORD_OFF	n/a	n/a	BASKETBALL	Toys	11	5	[0, 0, 0]	n/a	catFR1	2	R1474T
591.714	1.601	611825	WORD	n/a	wordpools/wordpool_categorized_EN.txt	PUZZLE	Toys	12	5	[0, 0, 0]	n/a	catFR1	2	R1474T
593.315	0.001	613427	PROB	8.399	n/a	n/a	n/a	-999	5	[7, 4, 6]	17.0	catFR1	2	R1474T
593.316	0.0	613428	START	n/a	n/a	n/a	n/a	-999	5	[-999, -999, -999]	n/a	catFR1	2	R1474T
593.315	0.001	613432	WORD_OFF	n/a	n/a	PUZZLE	Toys	12	5	[0, 0, 0]	n/a	catFR1	2	R1474T
593.316	0.0	613432	ENCODING_END	n/a	n/a	n/a	n/a	-999	5	[0, 0, 0]	n/a	catFR1	2	R1474T
593.316	8.416	613432	DISTRACT_START	n/a	n/a	n/a	n/a	-999	5	[0, 0, 0]	n/a	catFR1	2	R1474T
601.732	7.083	621844	PROB	7.067	n/a	n/a	n/a	-999	5	[5, 8, 3]	16.0	catFR1	2	R1474T
608.815	4.267	628926	PROB	4.25	n/a	n/a	n/a	-999	5	[7, 1, 8]	16.0	catFR1	2	R1474T
613.082	5.717	633193	PROB	5.699	n/a	n/a	n/a	-999	5	[6, 1, 7]	14.0	catFR1	2	R1474T
618.799	0.0	638903	DISTRACT_END	n/a	n/a	n/a	n/a	-999	5	[0, 0, 0]	n/a	catFR1	2	R1474T
618.799	2.132	638910	STOP	n/a	n/a	n/a	n/a	-999	5	[-999, -999, -999]	n/a	catFR1	2	R1474T
620.931	1.92	641035	REC_START	n/a	n/a	n/a	n/a	-999	5	[0, 0, 0]	n/a	catFR1	2	R1474T
622.851	1.604	642962	REC_WORD	1.92	n/a	BEACH	Landscapes	2	5	[0, 0, 0]	n/a	catFR1	2	R1474T
624.455	1.0	644566	REC_WORD	3.524	n/a	LAKE	Landscapes	7	5	[0, 0, 0]	n/a	catFR1	2	R1474T
625.455	1.27	645566	REC_WORD	4.524	n/a	LAKE	Landscapes	7	5	[0, 0, 0]	n/a	catFR1	2	R1474T
626.725	4.038	646835	REC_WORD	5.794	n/a	BARBIE	Toys	4	5	[0, 0, 0]	n/a	catFR1	2	R1474T
630.763	1.0	650873	REC_WORD	9.832	n/a	JELLYFISH	OceanAnimals	9	5	[0, 0, 0]	n/a	catFR1	2	R1474T
631.763	1.992	651873	REC_WORD	10.832	n/a	JELLYFISH	OceanAnimals	9	5	[0, 0, 0]	n/a	catFR1	2	R1474T
633.755	1.0	653865	REC_WORD	12.824	n/a	PLANKTON	OceanAnimals	10	5	[0, 0, 0]	n/a	catFR1	2	R1474T
634.755	16.417	654865	REC_WORD	13.824	n/a	PLANKTON	OceanAnimals	10	5	[0, 0, 0]	n/a	catFR1	2	R1474T
651.172	5.609	671276	REC_END	n/a	n/a	n/a	n/a	-999	5	[0, 0, 0]	n/a	catFR1	2	R1474T
656.781	10.351	676892	COUNTDOWN_START	n/a	n/a	n/a	n/a	-999	6	[0, 0, 0]	n/a	catFR1	2	R1474T
667.132	0.0	687245	COUNTDOWN_END	n/a	n/a	n/a	n/a	-999	6	[0, 0, 0]	n/a	catFR1	2	R1474T
667.132	2.266	687245	ENCODING_START	n/a	n/a	n/a	n/a	-999	6	[0, 0, 0]	n/a	catFR1	2	R1474T
669.398	1.616	689509	WORD	n/a	wordpools/wordpool_categorized_EN.txt	MARIGOLD	Flowers	1	6	[0, 0, 0]	n/a	catFR1	2	R1474T
671.014	0.784	691116	WORD_OFF	n/a	n/a	MARIGOLD	Flowers	1	6	[0, 0, 0]	n/a	catFR1	2	R1474T
671.798	1.6	691912	WORD	n/a	wordpools/wordpool_categorized_EN.txt	TULIP	Flowers	2	6	[0, 0, 0]	n/a	catFR1	2	R1474T
673.398	0.917	693505	WORD_OFF	n/a	n/a	TULIP	Flowers	2	6	[0, 0, 0]	n/a	catFR1	2	R1474T
674.315	1.6	694427	WORD	n/a	wordpools/wordpool_categorized_EN.txt	ORGAN	Instruments	3	6	[0, 0, 0]	n/a	catFR1	2	R1474T
675.915	0.816	696020	WORD_OFF	n/a	n/a	ORGAN	Instruments	3	6	[0, 0, 0]	n/a	catFR1	2	R1474T
676.731	1.6	696844	WORD	n/a	wordpools/wordpool_categorized_EN.txt	TUBA	Instruments	4	6	[0, 0, 0]	n/a	catFR1	2	R1474T
678.331	0.834	698437	WORD_OFF	n/a	n/a	TUBA	Instruments	4	6	[0, 0, 0]	n/a	catFR1	2	R1474T
679.165	1.617	699275	WORD	n/a	wordpools/wordpool_categorized_EN.txt	RUM	Beverages	5	6	[0, 0, 0]	n/a	catFR1	2	R1474T
680.782	0.883	700882	WORD_OFF	n/a	n/a	RUM	Beverages	5	6	[0, 0, 0]	n/a	catFR1	2	R1474T
681.665	1.6	701776	WORD	n/a	wordpools/wordpool_categorized_EN.txt	BEER	Beverages	6	6	[0, 0, 0]	n/a	catFR1	2	R1474T
683.265	0.85	703369	WORD_OFF	n/a	n/a	BEER	Beverages	6	6	[0, 0, 0]	n/a	catFR1	2	R1474T
684.115	1.6	704221	WORD	n/a	wordpools/wordpool_categorized_EN.txt	SUNFLOWER	Flowers	7	6	[0, 0, 0]	n/a	catFR1	2	R1474T
685.715	0.884	705828	WORD_OFF	n/a	n/a	SUNFLOWER	Flowers	7	6	[0, 0, 0]	n/a	catFR1	2	R1474T
686.599	1.6	706708	WORD	n/a	wordpools/wordpool_categorized_EN.txt	LILAC	Flowers	8	6	[0, 0, 0]	n/a	catFR1	2	R1474T
688.199	0.783	708301	WORD_OFF	n/a	n/a	LILAC	Flowers	8	6	[0, 0, 0]	n/a	catFR1	2	R1474T
688.982	1.615	709083	WORD	n/a	wordpools/wordpool_categorized_EN.txt	TEA	Beverages	9	6	[0, 0, 0]	n/a	catFR1	2	R1474T
690.597	0.985	710704	WORD_OFF	n/a	n/a	TEA	Beverages	9	6	[0, 0, 0]	n/a	catFR1	2	R1474T
691.582	1.599	711682	WORD	n/a	wordpools/wordpool_categorized_EN.txt	MILK	Beverages	10	6	[0, 0, 0]	n/a	catFR1	2	R1474T
693.181	0.934	713289	WORD_OFF	n/a	n/a	MILK	Beverages	10	6	[0, 0, 0]	n/a	catFR1	2	R1474T
694.115	1.617	714225	WORD	n/a	wordpools/wordpool_categorized_EN.txt	CELLO	Instruments	11	6	[0, 0, 0]	n/a	catFR1	2	R1474T
695.732	0.949	715832	WORD_OFF	n/a	n/a	CELLO	Instruments	11	6	[0, 0, 0]	n/a	catFR1	2	R1474T
696.681	1.6	716782	WORD	n/a	wordpools/wordpool_categorized_EN.txt	GUITAR	Instruments	12	6	[0, 0, 0]	n/a	catFR1	2	R1474T
698.281	0.003	718389	WORD_OFF	n/a	n/a	GUITAR	Instruments	12	6	[0, 0, 0]	n/a	catFR1	2	R1474T
698.284	0.0	718389	ENCODING_END	n/a	n/a	n/a	n/a	-999	6	[0, 0, 0]	n/a	catFR1	2	R1474T
698.284	0.0	718389	DISTRACT_START	n/a	n/a	n/a	n/a	-999	6	[0, 0, 0]	n/a	catFR1	2	R1474T
698.282	0.002	718389	PROB	4.667	n/a	n/a	n/a	-999	6	[3, 1, 2]	6.0	catFR1	2	R1474T
698.284	4.681	718391	START	n/a	n/a	n/a	n/a	-999	6	[-999, -999, -999]	n/a	catFR1	2	R1474T
702.965	8.067	723072	PROB	8.05	n/a	n/a	n/a	-999	6	[5, 3, 6]	14.0	catFR1	2	R1474T
711.032	4.451	731138	PROB	4.432	n/a	n/a	n/a	-999	6	[6, 4, 1]	10.0	catFR1	2	R1474T
715.483	7.032	735589	PROB	7.015	n/a	n/a	n/a	-999	6	[2, 8, 6]	16.0	catFR1	2	R1474T
722.515	0.0	742616	DISTRACT_END	n/a	n/a	n/a	n/a	-999	6	[0, 0, 0]	n/a	catFR1	2	R1474T
722.515	2.149	742621	STOP	n/a	n/a	n/a	n/a	-999	6	[-999, -999, -999]	n/a	catFR1	2	R1474T
724.664	2.16	744761	REC_START	n/a	n/a	n/a	n/a	-999	6	[0, 0, 0]	n/a	catFR1	2	R1474T
726.824	1.0	746929	REC_WORD	2.16	n/a	MARIGOLD	Flowers	1	6	[0, 0, 0]	n/a	catFR1	2	R1474T
727.824	4.795	747929	REC_WORD	3.16	n/a	MARIGOLD	Flowers	1	6	[0, 0, 0]	n/a	catFR1	2	R1474T
732.619	4.285	752724	REC_WORD	7.955	n/a	TUBA	Instruments	4	6	[0, 0, 0]	n/a	catFR1	2	R1474T
736.904	2.733	757009	REC_WORD	12.24	n/a	RUM	Beverages	5	6	[0, 0, 0]	n/a	catFR1	2	R1474T
739.637	3.308	759742	REC_WORD	14.973	n/a	BEER	Beverages	6	6	[0, 0, 0]	n/a	catFR1	2	R1474T
742.945	1.0	763050	REC_WORD	18.281	n/a	TULIP	Flowers	2	6	[0, 0, 0]	n/a	catFR1	2	R1474T
743.945	10.967	764050	REC_WORD	19.281	n/a	TULIP	Flowers	2	6	[0, 0, 0]	n/a	catFR1	2	R1474T
754.912	5.47	775016	REC_END	n/a	n/a	n/a	n/a	-999	6	[0, 0, 0]	n/a	catFR1	2	R1474T
760.382	10.349	780479	COUNTDOWN_START	n/a	n/a	n/a	n/a	-999	7	[0, 0, 0]	n/a	catFR1	2	R1474T
770.731	0.0	790832	COUNTDOWN_END	n/a	n/a	n/a	n/a	-999	7	[0, 0, 0]	n/a	catFR1	2	R1474T
770.731	2.151	790832	ENCODING_START	n/a	n/a	n/a	n/a	-999	7	[0, 0, 0]	n/a	catFR1	2	R1474T
772.882	1.6	792984	WORD	n/a	wordpools/wordpool_categorized_EN.txt	OAK	Trees	1	7	[0, 0, 0]	n/a	catFR1	2	R1474T
774.482	0.966	794577	WORD_OFF	n/a	n/a	OAK	Trees	1	7	[0, 0, 0]	n/a	catFR1	2	R1474T
775.448	1.601	795555	WORD	n/a	wordpools/wordpool_categorized_EN.txt	EVERGREEN	Trees	2	7	[0, 0, 0]	n/a	catFR1	2	R1474T
777.049	0.783	797148	WORD_OFF	n/a	n/a	EVERGREEN	Trees	2	7	[0, 0, 0]	n/a	catFR1	2	R1474T
777.832	1.617	797930	WORD	n/a	wordpools/wordpool_categorized_EN.txt	SOCKS	Clothing	3	7	[0, 0, 0]	n/a	catFR1	2	R1474T
779.449	0.816	799551	WORD_OFF	n/a	n/a	SOCKS	Clothing	3	7	[0, 0, 0]	n/a	catFR1	2	R1474T
780.265	1.6	800361	WORD	n/a	wordpools/wordpool_categorized_EN.txt	JACKET	Clothing	4	7	[0, 0, 0]	n/a	catFR1	2	R1474T
781.865	0.901	801968	WORD_OFF	n/a	n/a	JACKET	Clothing	4	7	[0, 0, 0]	n/a	catFR1	2	R1474T
782.766	1.6	802862	WORD	n/a	wordpools/wordpool_categorized_EN.txt	SPINACH	Vegetables	5	7	[0, 0, 0]	n/a	catFR1	2	R1474T
784.366	0.8	804469	WORD_OFF	n/a	n/a	SPINACH	Vegetables	5	7	[0, 0, 0]	n/a	catFR1	2	R1474T
785.166	1.615	805265	WORD	n/a	wordpools/wordpool_categorized_EN.txt	LETTUCE	Vegetables	6	7	[0, 0, 0]	n/a	catFR1	2	R1474T
786.781	0.901	806886	WORD_OFF	n/a	n/a	LETTUCE	Vegetables	6	7	[0, 0, 0]	n/a	catFR1	2	R1474T
787.682	1.615	807780	WORD	n/a	wordpools/wordpool_categorized_EN.txt	SPRUCE	Trees	7	7	[0, 0, 0]	n/a	catFR1	2	R1474T
789.297	0.869	809401	WORD_OFF	n/a	n/a	SPRUCE	Trees	7	7	[0, 0, 0]	n/a	catFR1	2	R1474T
790.166	1.6	810267	WORD	n/a	wordpools/wordpool_categorized_EN.txt	MAPLE	Trees	8	7	[0, 0, 0]	n/a	catFR1	2	R1474T
791.766	0.915	811860	WORD_OFF	n/a	n/a	MAPLE	Trees	8	7	[0, 0, 0]	n/a	catFR1	2	R1474T
792.681	1.601	812782	WORD	n/a	wordpools/wordpool_categorized_EN.txt	CARROT	Vegetables	9	7	[0, 0, 0]	n/a	catFR1	2	R1474T
794.282	0.967	814389	WORD_OFF	n/a	n/a	CARROT	Vegetables	9	7	[0, 0, 0]	n/a	catFR1	2	R1474T
795.249	1.6	815353	WORD	n/a	wordpools/wordpool_categorized_EN.txt	PEAS	Vegetables	10	7	[0, 0, 0]	n/a	catFR1	2	R1474T
796.849	0.833	816946	WORD_OFF	n/a	n/a	PEAS	Vegetables	10	7	[0, 0, 0]	n/a	catFR1	2	R1474T
797.682	1.616	817784	WORD	n/a	wordpools/wordpool_categorized_EN.txt	SHIRT	Clothing	11	7	[0, 0, 0]	n/a	catFR1	2	R1474T
799.298	0.901	819405	WORD_OFF	n/a	n/a	SHIRT	Clothing	11	7	[0, 0, 0]	n/a	catFR1	2	R1474T
800.199	1.6	820299	WORD	n/a	wordpools/wordpool_categorized_EN.txt	BLOUSE	Clothing	12	7	[0, 0, 0]	n/a	catFR1	2	R1474T
801.799	0.003	821901	PROB	7.066	n/a	n/a	n/a	-999	7	[7, 7, 5]	19.0	catFR1	2	R1474T
801.802	0.0	821904	START	n/a	n/a	n/a	n/a	-999	7	[-999, -999, -999]	n/a	catFR1	2	R1474T
801.799	0.001	821906	WORD_OFF	n/a	n/a	BLOUSE	Clothing	12	7	[0, 0, 0]	n/a	catFR1	2	R1474T
801.8	0.002	821906	ENCODING_END	n/a	n/a	n/a	n/a	-999	7	[0, 0, 0]	n/a	catFR1	2	R1474T
801.802	7.08	821906	DISTRACT_START	n/a	n/a	n/a	n/a	-999	7	[0, 0, 0]	n/a	catFR1	2	R1474T
808.882	10.167	828983	PROB	10.15	n/a	n/a	n/a	-999	7	[5, 7, 8]	20.0	catFR1	2	R1474T
819.049	3.616	839150	PROB	3.6	n/a	n/a	n/a	-999	7	[5, 3, 5]	13.0	catFR1	2	R1474T
822.665	0.0	842765	STOP	n/a	n/a	n/a	n/a	-999	7	[-999, -999, -999]	n/a	catFR1	2	R1474T
822.665	2.267	842766	DISTRACT_END	n/a	n/a	n/a	n/a	-999	7	[0, 0, 0]	n/a	catFR1	2	R1474T
824.932	1.703	845037	REC_START	n/a	n/a	n/a	n/a	-999	7	[0, 0, 0]	n/a	catFR1	2	R1474T
826.635	1.0	846735	REC_WORD	1.703	n/a	BLOUSE	Clothing	12	7	[0, 0, 0]	n/a	catFR1	2	R1474T
827.635	1.242	847735	REC_WORD	2.703	n/a	BLOUSE	Clothing	12	7	[0, 0, 0]	n/a	catFR1	2	R1474T
828.877	1.0	848977	REC_WORD	3.945	n/a	SHIRT	Clothing	11	7	[0, 0, 0]	n/a	catFR1	2	R1474T
829.877	2.956	849977	REC_WORD	4.945	n/a	SHIRT	Clothing	11	7	[0, 0, 0]	n/a	catFR1	2	R1474T
832.833	1.0	852933	REC_WORD	7.901	n/a	CARROT	Vegetables	9	7	[0, 0, 0]	n/a	catFR1	2	R1474T
833.833	7.16	853933	REC_WORD	8.901	n/a	CARROT	Vegetables	9	7	[0, 0, 0]	n/a	catFR1	2	R1474T
840.993	1.0	861093	REC_WORD	16.061	n/a	PEAS	Vegetables	10	7	[0, 0, 0]	n/a	catFR1	2	R1474T
841.993	13.172	862093	REC_WORD	17.061	n/a	PEAS	Vegetables	10	7	[0, 0, 0]	n/a	catFR1	2	R1474T
855.165	3.101	875264	REC_END	n/a	n/a	n/a	n/a	-999	7	[0, 0, 0]	n/a	catFR1	2	R1474T
858.266	10.35	878366	COUNTDOWN_START	n/a	n/a	n/a	n/a	-999	8	[0, 0, 0]	n/a	catFR1	2	R1474T
868.616	0.0	888719	COUNTDOWN_END	n/a	n/a	n/a	n/a	-999	8	[0, 0, 0]	n/a	catFR1	2	R1474T
868.616	2.2	888719	ENCODING_START	n/a	n/a	n/a	n/a	-999	8	[0, 0, 0]	n/a	catFR1	2	R1474T
870.816	1.6	890913	WORD	n/a	wordpools/wordpool_categorized_EN.txt	NYLON	Fabric	1	8	[0, 0, 0]	n/a	catFR1	2	R1474T
872.416	0.799	892519	WORD_OFF	n/a	n/a	NYLON	Fabric	1	8	[0, 0, 0]	n/a	catFR1	2	R1474T
873.215	1.617	893316	WORD	n/a	wordpools/wordpool_categorized_EN.txt	WOOL	Fabric	2	8	[0, 0, 0]	n/a	catFR1	2	R1474T
874.832	0.917	894922	WORD_OFF	n/a	n/a	WOOL	Fabric	2	8	[0, 0, 0]	n/a	catFR1	2	R1474T
875.749	1.6	895845	WORD	n/a	wordpools/wordpool_categorized_EN.txt	PAPER	OfficeSupplies	3	8	[0, 0, 0]	n/a	catFR1	2	R1474T
877.349	0.933	897451	WORD_OFF	n/a	n/a	PAPER	OfficeSupplies	3	8	[0, 0, 0]	n/a	catFR1	2	R1474T
878.282	1.615	898373	WORD	n/a	wordpools/wordpool_categorized_EN.txt	TAPE	OfficeSupplies	4	8	[0, 0, 0]	n/a	catFR1	2	R1474T
879.897	0.885	899994	WORD_OFF	n/a	n/a	TAPE	OfficeSupplies	4	8	[0, 0, 0]	n/a	catFR1	2	R1474T
880.782	1.616	900874	WORD	n/a	wordpools/wordpool_categorized_EN.txt	CROW	Birds	5	8	[0, 0, 0]	n/a	catFR1	2	R1474T
882.398	0.817	902495	WORD_OFF	n/a	n/a	CROW	Birds	5	8	[0, 0, 0]	n/a	catFR1	2	R1474T
883.215	1.616	903305	WORD	n/a	wordpools/wordpool_categorized_EN.txt	ROBIN	Birds	6	8	[0, 0, 0]	n/a	catFR1	2	R1474T
884.831	0.867	904926	WORD_OFF	n/a	n/a	ROBIN	Birds	6	8	[0, 0, 0]	n/a	catFR1	2	R1474T
885.698	1.601	905792	WORD	n/a	wordpools/wordpool_categorized_EN.txt	SPANDEX	Fabric	7	8	[0, 0, 0]	n/a	catFR1	2	R1474T
887.299	0.766	907399	WORD_OFF	n/a	n/a	SPANDEX	Fabric	7	8	[0, 0, 0]	n/a	catFR1	2	R1474T
888.065	1.617	908168	WORD	n/a	wordpools/wordpool_categorized_EN.txt	SUEDE	Fabric	8	8	[0, 0, 0]	n/a	catFR1	2	R1474T
889.682	1.0	909774	WORD_OFF	n/a	n/a	SUEDE	Fabric	8	8	[0, 0, 0]	n/a	catFR1	2	R1474T
890.682	1.6	910780	WORD	n/a	wordpools/wordpool_categorized_EN.txt	GOOSE	Birds	9	8	[0, 0, 0]	n/a	catFR1	2	R1474T
892.282	0.767	912373	WORD_OFF	n/a	n/a	GOOSE	Birds	9	8	[0, 0, 0]	n/a	catFR1	2	R1474T
893.049	1.6	913142	WORD	n/a	wordpools/wordpool_categorized_EN.txt	DUCK	Birds	10	8	[0, 0, 0]	n/a	catFR1	2	R1474T
894.649	0.882	914748	WORD_OFF	n/a	n/a	DUCK	Birds	10	8	[0, 0, 0]	n/a	catFR1	2	R1474T
895.531	1.601	915629	WORD	n/a	wordpools/wordpool_categorized_EN.txt	MARKER	OfficeSupplies	11	8	[0, 0, 0]	n/a	catFR1	2	R1474T
897.132	0.934	917221	WORD_OFF	n/a	n/a	MARKER	OfficeSupplies	11	8	[0, 0, 0]	n/a	catFR1	2	R1474T
898.066	1.616	918158	WORD	n/a	wordpools/wordpool_categorized_EN.txt	BINDER	OfficeSupplies	12	8	[0, 0, 0]	n/a	catFR1	2	R1474T
899.682	0.001	919778	WORD_OFF	n/a	n/a	BINDER	OfficeSupplies	12	8	[0, 0, 0]	n/a	catFR1	2	R1474T
899.683	0.0	919778	ENCODING_END	n/a	n/a	n/a	n/a	-999	8	[0, 0, 0]	n/a	catFR1	2	R1474T
899.683	0.0	919778	DISTRACT_START	n/a	n/a	n/a	n/a	-999	8	[0, 0, 0]	n/a	catFR1	2	R1474T
899.682	0.001	919779	PROB	7.283	n/a	n/a	n/a	-999	8	[6, 5, 2]	13.0	catFR1	2	R1474T
899.683	7.299	919780	START	n/a	n/a	n/a	n/a	-999	8	[-999, -999, -999]	n/a	catFR1	2	R1474T
906.982	5.367	927078	PROB	5.35	n/a	n/a	n/a	-999	8	[8, 6, 2]	16.0	catFR1	2	R1474T
912.349	8.1	932445	PROB	8.083	n/a	n/a	n/a	-999	8	[8, 5, 7]	20.0	catFR1	2	R1474T
920.449	0.0	940540	DISTRACT_END	n/a	n/a	n/a	n/a	-999	8	[0, 0, 0]	n/a	catFR1	2	R1474T
920.449	2.183	940544	STOP	n/a	n/a	n/a	n/a	-999	8	[-999, -999, -999]	n/a	catFR1	2	R1474T
922.632	1.407	942728	REC_START	n/a	n/a	n/a	n/a	-999	8	[0, 0, 0]	n/a	catFR1	2	R1474T
924.039	1.0	944134	REC_WORD	1.407	n/a	NYLON	Fabric	1	8	[0, 0, 0]	n/a	catFR1	2	R1474T
925.039	0.474	945134	REC_WORD	2.407	n/a	NYLON	Fabric	1	8	[0, 0, 0]	n/a	catFR1	2	R1474T
925.513	2.471	945608	REC_WORD	2.881	n/a	PAPER	OfficeSupplies	3	8	[0, 0, 0]	n/a	catFR1	2	R1474T
927.984	2.445	948079	REC_WORD	5.352	n/a	TAPE	OfficeSupplies	4	8	[0, 0, 0]	n/a	catFR1	2	R1474T
930.429	22.451	950524	REC_WORD	7.797	n/a	DUCK	Birds	10	8	[0, 0, 0]	n/a	catFR1	2	R1474T
952.88	2.985	972969	REC_END	n/a	n/a	n/a	n/a	-999	8	[0, 0, 0]	n/a	catFR1	2	R1474T
955.865	10.349	975959	COUNTDOWN_START	n/a	n/a	n/a	n/a	-999	9	[0, 0, 0]	n/a	catFR1	2	R1474T
966.214	0.0	986312	COUNTDOWN_END	n/a	n/a	n/a	n/a	-999	9	[0, 0, 0]	n/a	catFR1	2	R1474T
966.214	2.35	986312	ENCODING_START	n/a	n/a	n/a	n/a	-999	9	[0, 0, 0]	n/a	catFR1	2	R1474T
968.564	1.601	988659	WORD	n/a	wordpools/wordpool_categorized_EN.txt	HALLWAY	Building	1	9	[0, 0, 0]	n/a	catFR1	2	R1474T
970.165	0.834	990252	WORD_OFF	n/a	n/a	HALLWAY	Building	1	9	[0, 0, 0]	n/a	catFR1	2	R1474T
970.999	1.6	991090	WORD	n/a	wordpools/wordpool_categorized_EN.txt	FOUNDATION	Building	2	9	[0, 0, 0]	n/a	catFR1	2	R1474T
972.599	0.95	992697	WORD_OFF	n/a	n/a	FOUNDATION	Building	2	9	[0, 0, 0]	n/a	catFR1	2	R1474T
973.549	1.6	993633	WORD	n/a	wordpools/wordpool_categorized_EN.txt	EAR	BodyParts	3	9	[0, 0, 0]	n/a	catFR1	2	R1474T
975.149	0.866	995240	WORD_OFF	n/a	n/a	EAR	BodyParts	3	9	[0, 0, 0]	n/a	catFR1	2	R1474T
976.015	1.6	996106	WORD	n/a	wordpools/wordpool_categorized_EN.txt	LEG	BodyParts	4	9	[0, 0, 0]	n/a	catFR1	2	R1474T
977.615	0.816	997713	WORD_OFF	n/a	n/a	LEG	BodyParts	4	9	[0, 0, 0]	n/a	catFR1	2	R1474T
978.431	1.618	998523	WORD	n/a	wordpools/wordpool_categorized_EN.txt	PANTS	Clothing	5	9	[0, 0, 0]	n/a	catFR1	2	R1474T
980.049	0.998	1000144	WORD_OFF	n/a	n/a	PANTS	Clothing	5	9	[0, 0, 0]	n/a	catFR1	2	R1474T
981.047	1.6	1001136	WORD	n/a	wordpools/wordpool_categorized_EN.txt	SHOES	Clothing	6	9	[0, 0, 0]	n/a	catFR1	2	R1474T
982.647	1.002	1002743	WORD_OFF	n/a	n/a	SHOES	Clothing	6	9	[0, 0, 0]	n/a	catFR1	2	R1474T
983.649	1.616	1003735	WORD	n/a	wordpools/wordpool_categorized_EN.txt	BATHROOM	Building	7	9	[0, 0, 0]	n/a	catFR1	2	R1474T
985.265	0.883	1005356	WORD_OFF	n/a	n/a	BATHROOM	Building	7	9	[0, 0, 0]	n/a	catFR1	2	R1474T
986.148	1.601	1006236	WORD	n/a	wordpools/wordpool_categorized_EN.txt	ROOM	Building	8	9	[0, 0, 0]	n/a	catFR1	2	R1474T
987.749	0.866	1007843	WORD_OFF	n/a	n/a	ROOM	Building	8	9	[0, 0, 0]	n/a	catFR1	2	R1474T
988.615	1.617	1008709	WORD	n/a	wordpools/wordpool_categorized_EN.txt	HEAD	BodyParts	9	9	[0, 0, 0]	n/a	catFR1	2	R1474T
990.232	0.783	1010330	WORD_OFF	n/a	n/a	HEAD	BodyParts	9	9	[0, 0, 0]	n/a	catFR1	2	R1474T
991.015	1.615	1011112	WORD	n/a	wordpools/wordpool_categorized_EN.txt	ARM	BodyParts	10	9	[0, 0, 0]	n/a	catFR1	2	R1474T
992.63	0.885	1012719	WORD_OFF	n/a	n/a	ARM	BodyParts	10	9	[0, 0, 0]	n/a	catFR1	2	R1474T
993.515	1.615	1013599	WORD	n/a	wordpools/wordpool_categorized_EN.txt	SKIRT	Clothing	11	9	[0, 0, 0]	n/a	catFR1	2	R1474T
995.13	0.902	1015220	WORD_OFF	n/a	n/a	SKIRT	Clothing	11	9	[0, 0, 0]	n/a	catFR1	2	R1474T
996.032	1.6	1016128	WORD	n/a	wordpools/wordpool_categorized_EN.txt	JEANS	Clothing	12	9	[0, 0, 0]	n/a	catFR1	2	R1474T
997.632	0.002	1017721	WORD_OFF	n/a	n/a	JEANS	Clothing	12	9	[0, 0, 0]	n/a	catFR1	2	R1474T
997.634	0.0	1017721	ENCODING_END	n/a	n/a	n/a	n/a	-999	9	[0, 0, 0]	n/a	catFR1	2	R1474T
997.634	0.0	1017721	DISTRACT_START	n/a	n/a	n/a	n/a	-999	9	[0, 0, 0]	n/a	catFR1	2	R1474T
997.634	0.002	1017726	START	n/a	n/a	n/a	n/a	-999	9	[-999, -999, -999]	n/a	catFR1	2	R1474T
997.636	3.162	1017728	PROB	3.148	n/a	n/a	n/a	-999	9	[4, 4, 1]	9.0	catFR1	2	R1474T
1000.798	5.016	1020889	PROB	4.999	n/a	n/a	n/a	-999	9	[6, 3, 3]	12.0	catFR1	2	R1474T
1005.814	4.685	1025905	PROB	4.668	n/a	n/a	n/a	-999	9	[7, 6, 1]	14.0	catFR1	2	R1474T
1010.499	2.566	1030590	PROB	2.55	n/a	n/a	n/a	-999	9	[4, 4, 1]	9.0	catFR1	2	R1474T
1013.065	6.917	1033156	PROB	6.9	n/a	n/a	n/a	-999	9	[6, 4, 7]	18.0	catFR1	2	R1474T
1019.982	0.0	1040072	STOP	n/a	n/a	n/a	n/a	-999	9	[-999, -999, -999]	n/a	catFR1	2	R1474T
1019.982	2.249	1040076	DISTRACT_END	n/a	n/a	n/a	n/a	-999	9	[0, 0, 0]	n/a	catFR1	2	R1474T
1022.231	1.552	1042319	REC_START	n/a	n/a	n/a	n/a	-999	9	[0, 0, 0]	n/a	catFR1	2	R1474T
1023.783	1.0	1043873	REC_WORD	1.552	n/a	SKIRT	Clothing	11	9	[0, 0, 0]	n/a	catFR1	2	R1474T
1024.783	1.646	1044873	REC_WORD	2.552	n/a	SKIRT	Clothing	11	9	[0, 0, 0]	n/a	catFR1	2	R1474T
1026.429	3.661	1046519	REC_WORD	4.198	n/a	LEG	BodyParts	4	9	[0, 0, 0]	n/a	catFR1	2	R1474T
1030.09	2.376	1050180	REC_WORD	7.859	n/a	EAR	BodyParts	3	9	[0, 0, 0]	n/a	catFR1	2	R1474T
1032.466	1.0	1052556	REC_WORD	10.235	n/a	PANTS	Clothing	5	9	[0, 0, 0]	n/a	catFR1	2	R1474T
1033.466	2.964	1053556	REC_WORD	11.235	n/a	PANTS	Clothing	5	9	[0, 0, 0]	n/a	catFR1	2	R1474T
1036.43	16.054	1056520	REC_WORD	14.199	n/a	HEAD	BodyParts	9	9	[0, 0, 0]	n/a	catFR1	2	R1474T
1052.484	1.981	1072574	REC_END	n/a	n/a	n/a	n/a	-999	9	[0, 0, 0]	n/a	catFR1	2	R1474T
1054.465	10.35	1074558	COUNTDOWN_START	n/a	n/a	n/a	n/a	-999	10	[0, 0, 0]	n/a	catFR1	2	R1474T
1064.815	0.0	1084897	COUNTDOWN_END	n/a	n/a	n/a	n/a	-999	10	[0, 0, 0]	n/a	catFR1	2	R1474T
1064.815	2.1	1084897	ENCODING_START	n/a	n/a	n/a	n/a	-999	10	[0, 0, 0]	n/a	catFR1	2	R1474T
1066.915	1.616	1087007	WORD	n/a	wordpools/wordpool_categorized_EN.txt	FOOT	BodyParts	1	10	[0, 0, 0]	n/a	catFR1	2	R1474T
1068.531	0.951	1088614	WORD_OFF	n/a	n/a	FOOT	BodyParts	1	10	[0, 0, 0]	n/a	catFR1	2	R1474T
1069.482	1.6	1089564	WORD	n/a	wordpools/wordpool_categorized_EN.txt	KNEE	BodyParts	2	10	[0, 0, 0]	n/a	catFR1	2	R1474T
1071.082	0.8	1091171	WORD_OFF	n/a	n/a	KNEE	BodyParts	2	10	[0, 0, 0]	n/a	catFR1	2	R1474T
1071.882	1.601	1091967	WORD	n/a	wordpools/wordpool_categorized_EN.txt	WRENCH	Tools	3	10	[0, 0, 0]	n/a	catFR1	2	R1474T
1073.483	0.998	1093574	WORD_OFF	n/a	n/a	WRENCH	Tools	3	10	[0, 0, 0]	n/a	catFR1	2	R1474T
1074.481	1.601	1094566	WORD	n/a	wordpools/wordpool_categorized_EN.txt	SAW	Tools	4	10	[0, 0, 0]	n/a	catFR1	2	R1474T
1076.082	0.934	1096172	WORD_OFF	n/a	n/a	SAW	Tools	4	10	[0, 0, 0]	n/a	catFR1	2	R1474T
1077.016	1.599	1097109	WORD	n/a	wordpools/wordpool_categorized_EN.txt	COAT	Clothing	5	10	[0, 0, 0]	n/a	catFR1	2	R1474T
1078.615	0.967	1098701	WORD_OFF	n/a	n/a	COAT	Clothing	5	10	[0, 0, 0]	n/a	catFR1	2	R1474T
1079.582	1.6	1099665	WORD	n/a	wordpools/wordpool_categorized_EN.txt	DRESS	Clothing	6	10	[0, 0, 0]	n/a	catFR1	2	R1474T
1081.182	0.767	1101272	WORD_OFF	n/a	n/a	DRESS	Clothing	6	10	[0, 0, 0]	n/a	catFR1	2	R1474T
1081.949	1.617	1102041	WORD	n/a	wordpools/wordpool_categorized_EN.txt	PLIERS	Tools	7	10	[0, 0, 0]	n/a	catFR1	2	R1474T
1083.566	0.85	1103647	WORD_OFF	n/a	n/a	PLIERS	Tools	7	10	[0, 0, 0]	n/a	catFR1	2	R1474T
1084.416	1.615	1104500	WORD	n/a	wordpools/wordpool_categorized_EN.txt	DRILL	Tools	8	10	[0, 0, 0]	n/a	catFR1	2	R1474T
1086.031	0.883	1106120	WORD_OFF	n/a	n/a	DRILL	Tools	8	10	[0, 0, 0]	n/a	catFR1	2	R1474T
1086.914	1.601	1107001	WORD	n/a	wordpools/wordpool_categorized_EN.txt	TOE	BodyParts	9	10	[0, 0, 0]	n/a	catFR1	2	R1474T
1088.515	0.783	1108607	WORD_OFF	n/a	n/a	TOE	BodyParts	9	10	[0, 0, 0]	n/a	catFR1	2	R1474T
1089.298	1.6	1109390	WORD	n/a	wordpools/wordpool_categorized_EN.txt	FINGERS	BodyParts	10	10	[0, 0, 0]	n/a	catFR1	2	R1474T
1090.898	0.933	1110983	WORD_OFF	n/a	n/a	FINGERS	BodyParts	10	10	[0, 0, 0]	n/a	catFR1	2	R1474T
1091.831	1.601	1111919	WORD	n/a	wordpools/wordpool_categorized_EN.txt	SHORTS	Clothing	11	10	[0, 0, 0]	n/a	catFR1	2	R1474T
1093.432	0.933	1113512	WORD_OFF	n/a	n/a	SHORTS	Clothing	11	10	[0, 0, 0]	n/a	catFR1	2	R1474T
1094.365	1.616	1114448	WORD	n/a	wordpools/wordpool_categorized_EN.txt	UNDERWEAR	Clothing	12	10	[0, 0, 0]	n/a	catFR1	2	R1474T
1095.981	0.001	1116068	WORD_OFF	n/a	n/a	UNDERWEAR	Clothing	12	10	[0, 0, 0]	n/a	catFR1	2	R1474T
1095.982	0.0	1116068	ENCODING_END	n/a	n/a	n/a	n/a	-999	10	[0, 0, 0]	n/a	catFR1	2	R1474T
1095.982	0.0	1116068	DISTRACT_START	n/a	n/a	n/a	n/a	-999	10	[0, 0, 0]	n/a	catFR1	2	R1474T
1095.982	0.0	1116069	START	n/a	n/a	n/a	n/a	-999	10	[-999, -999, -999]	n/a	catFR1	2	R1474T
1095.982	4.467	1116069	PROB	4.45	n/a	n/a	n/a	-999	10	[1, 3, 4]	8.0	catFR1	2	R1474T
1100.449	4.734	1120535	PROB	4.716	n/a	n/a	n/a	-999	10	[7, 4, 7]	18.0	catFR1	2	R1474T
1105.183	9.9	1125269	PROB	9.883	n/a	n/a	n/a	-999	10	[3, 3, 8]	14.0	catFR1	2	R1474T
1115.083	4.748	1135169	PROB	4.731	n/a	n/a	n/a	-999	10	[4, 6, 6]	16.0	catFR1	2	R1474T
1119.831	0.0	1139916	STOP	n/a	n/a	n/a	n/a	-999	10	[-999, -999, -999]	n/a	catFR1	2	R1474T
1119.831	2.217	1139918	DISTRACT_END	n/a	n/a	n/a	n/a	-999	10	[0, 0, 0]	n/a	catFR1	2	R1474T
1122.048	1.197	1142134	REC_START	n/a	n/a	n/a	n/a	-999	10	[0, 0, 0]	n/a	catFR1	2	R1474T
1123.245	1.0	1143330	REC_WORD	1.197	n/a	WRENCH	Tools	3	10	[0, 0, 0]	n/a	catFR1	2	R1474T
1124.245	28.05	1144330	REC_WORD	2.197	n/a	WRENCH	Tools	3	10	[0, 0, 0]	n/a	catFR1	2	R1474T
1152.295	1.97	1172375	REC_END	n/a	n/a	n/a	n/a	-999	10	[0, 0, 0]	n/a	catFR1	2	R1474T
1154.265	10.351	1174345	COUNTDOWN_START	n/a	n/a	n/a	n/a	-999	11	[0, 0, 0]	n/a	catFR1	2	R1474T
1164.616	0.0	1184698	COUNTDOWN_END	n/a	n/a	n/a	n/a	-999	11	[0, 0, 0]	n/a	catFR1	2	R1474T
1164.616	2.183	1184698	ENCODING_START	n/a	n/a	n/a	n/a	-999	11	[0, 0, 0]	n/a	catFR1	2	R1474T
1166.799	1.615	1186878	WORD	n/a	wordpools/wordpool_categorized_EN.txt	HAND	BodyParts	1	11	[0, 0, 0]	n/a	catFR1	2	R1474T
1168.414	0.885	1188498	WORD_OFF	n/a	n/a	HAND	BodyParts	1	11	[0, 0, 0]	n/a	catFR1	2	R1474T
1169.299	1.6	1189378	WORD	n/a	wordpools/wordpool_categorized_EN.txt	NOSE	BodyParts	2	11	[0, 0, 0]	n/a	catFR1	2	R1474T
1170.899	0.849	1190985	WORD_OFF	n/a	n/a	NOSE	BodyParts	2	11	[0, 0, 0]	n/a	catFR1	2	R1474T
1171.748	1.6	1191824	WORD	n/a	wordpools/wordpool_categorized_EN.txt	HAWK	Birds	3	11	[0, 0, 0]	n/a	catFR1	2	R1474T
1173.348	0.851	1193430	WORD_OFF	n/a	n/a	HAWK	Birds	3	11	[0, 0, 0]	n/a	catFR1	2	R1474T
1174.199	1.6	1194283	WORD	n/a	wordpools/wordpool_categorized_EN.txt	DOVE	Birds	4	11	[0, 0, 0]	n/a	catFR1	2	R1474T
1175.799	0.933	1195875	WORD_OFF	n/a	n/a	DOVE	Birds	4	11	[0, 0, 0]	n/a	catFR1	2	R1474T
1176.732	1.6	1196812	WORD	n/a	wordpools/wordpool_categorized_EN.txt	CAULIFLOWER	Vegetables	5	11	[0, 0, 0]	n/a	catFR1	2	R1474T
1178.332	0.767	1198418	WORD_OFF	n/a	n/a	CAULIFLOWER	Vegetables	5	11	[0, 0, 0]	n/a	catFR1	2	R1474T
1179.099	1.616	1199187	WORD	n/a	wordpools/wordpool_categorized_EN.txt	ONION	Vegetables	6	11	[0, 0, 0]	n/a	catFR1	2	R1474T
1180.715	0.834	1200793	WORD_OFF	n/a	n/a	ONION	Vegetables	6	11	[0, 0, 0]	n/a	catFR1	2	R1474T
1181.549	1.616	1201632	WORD	n/a	wordpools/wordpool_categorized_EN.txt	EYE	BodyParts	7	11	[0, 0, 0]	n/a	catFR1	2	R1474T
1183.165	0.783	1203252	WORD_OFF	n/a	n/a	EYE	BodyParts	7	11	[0, 0, 0]	n/a	catFR1	2	R1474T
1183.948	1.601	1204035	WORD	n/a	wordpools/wordpool_categorized_EN.txt	ELBOW	BodyParts	8	11	[0, 0, 0]	n/a	catFR1	2	R1474T
1185.549	0.948	1205628	WORD_OFF	n/a	n/a	ELBOW	BodyParts	8	11	[0, 0, 0]	n/a	catFR1	2	R1474T
1186.497	1.602	1206578	WORD	n/a	wordpools/wordpool_categorized_EN.txt	CELERY	Vegetables	9	11	[0, 0, 0]	n/a	catFR1	2	R1474T
1188.099	0.866	1208185	WORD_OFF	n/a	n/a	CELERY	Vegetables	9	11	[0, 0, 0]	n/a	catFR1	2	R1474T
1188.965	1.616	1209051	WORD	n/a	wordpools/wordpool_categorized_EN.txt	BROCCOLI	Vegetables	10	11	[0, 0, 0]	n/a	catFR1	2	R1474T
1190.581	1.003	1210658	WORD_OFF	n/a	n/a	BROCCOLI	Vegetables	10	11	[0, 0, 0]	n/a	catFR1	2	R1474T
1191.584	1.615	1211664	WORD	n/a	wordpools/wordpool_categorized_EN.txt	CARDINAL	Birds	11	11	[0, 0, 0]	n/a	catFR1	2	R1474T
1193.199	0.85	1213284	WORD_OFF	n/a	n/a	CARDINAL	Birds	11	11	[0, 0, 0]	n/a	catFR1	2	R1474T
1194.049	1.6	1214123	WORD	n/a	wordpools/wordpool_categorized_EN.txt	SPARROW	Birds	12	11	[0, 0, 0]	n/a	catFR1	2	R1474T
1195.649	0.001	1215729	WORD_OFF	n/a	n/a	SPARROW	Birds	12	11	[0, 0, 0]	n/a	catFR1	2	R1474T
1195.65	0.0	1215729	ENCODING_END	n/a	n/a	n/a	n/a	-999	11	[0, 0, 0]	n/a	catFR1	2	R1474T
1195.65	0.0	1215729	DISTRACT_START	n/a	n/a	n/a	n/a	-999	11	[0, 0, 0]	n/a	catFR1	2	R1474T
1195.649	0.001	1215730	PROB	9.015	n/a	n/a	n/a	-999	11	[4, 5, 3]	12.0	catFR1	2	R1474T
1195.65	9.032	1215731	START	n/a	n/a	n/a	n/a	-999	11	[-999, -999, -999]	n/a	catFR1	2	R1474T
1204.682	9.117	1224763	PROB	9.099	n/a	n/a	n/a	-999	11	[7, 6, 4]	17.0	catFR1	2	R1474T
1213.799	5.915	1233880	PROB	5.9	n/a	n/a	n/a	-999	11	[3, 6, 8]	17.0	catFR1	2	R1474T
1219.714	0.0	1239789	DISTRACT_END	n/a	n/a	n/a	n/a	-999	11	[0, 0, 0]	n/a	catFR1	2	R1474T
1219.714	2.183	1239794	STOP	n/a	n/a	n/a	n/a	-999	11	[-999, -999, -999]	n/a	catFR1	2	R1474T
1221.897	1.057	1241976	REC_START	n/a	n/a	n/a	n/a	-999	11	[0, 0, 0]	n/a	catFR1	2	R1474T
1222.954	1.0	1243034	REC_WORD	1.057	n/a	HAND	BodyParts	1	11	[0, 0, 0]	n/a	catFR1	2	R1474T
1223.954	3.119	1244034	REC_WORD	2.057	n/a	HAND	BodyParts	1	11	[0, 0, 0]	n/a	catFR1	2	R1474T
1227.073	1.057	1247153	REC_WORD	5.176	n/a	NOSE	BodyParts	2	11	[0, 0, 0]	n/a	catFR1	2	R1474T
1228.13	1.0	1248210	REC_WORD	6.233	n/a	SPARROW	Birds	12	11	[0, 0, 0]	n/a	catFR1	2	R1474T
1229.13	3.089	1249210	REC_WORD	7.233	n/a	SPARROW	Birds	12	11	[0, 0, 0]	n/a	catFR1	2	R1474T
1232.219	1.0	1252299	REC_WORD	10.322	n/a	ELBOW	BodyParts	8	11	[0, 0, 0]	n/a	catFR1	2	R1474T
1233.219	1.15	1253299	REC_WORD	11.322	n/a	ELBOW	BodyParts	8	11	[0, 0, 0]	n/a	catFR1	2	R1474T
1234.369	1.0	1254449	REC_WORD	12.472	n/a	CAULIFLOWER	Vegetables	5	11	[0, 0, 0]	n/a	catFR1	2	R1474T
1235.369	2.836	1255449	REC_WORD	13.472	n/a	CAULIFLOWER	Vegetables	5	11	[0, 0, 0]	n/a	catFR1	2	R1474T
1238.205	1.0	1258284	REC_WORD	16.308	n/a	BROCCOLI	Vegetables	10	11	[0, 0, 0]	n/a	catFR1	2	R1474T
1239.205	4.86	1259284	REC_WORD	17.308	n/a	BROCCOLI	Vegetables	10	11	[0, 0, 0]	n/a	catFR1	2	R1474T
1244.065	1.0	1264144	REC_WORD	22.168	n/a	CARDINAL	Birds	11	11	[0, 0, 0]	n/a	catFR1	2	R1474T
1245.065	7.051	1265144	REC_WORD	23.168	n/a	CARDINAL	Birds	11	11	[0, 0, 0]	n/a	catFR1	2	R1474T
1252.116	2.416	1272189	REC_END	n/a	n/a	n/a	n/a	-999	11	[0, 0, 0]	n/a	catFR1	2	R1474T
1254.532	10.349	1274607	COUNTDOWN_START	n/a	n/a	n/a	n/a	-999	12	[0, 0, 0]	n/a	catFR1	2	R1474T
1264.881	0.0	1284960	COUNTDOWN_END	n/a	n/a	n/a	n/a	-999	12	[0, 0, 0]	n/a	catFR1	2	R1474T
1264.881	2.368	1284960	ENCODING_START	n/a	n/a	n/a	n/a	-999	12	[0, 0, 0]	n/a	catFR1	2	R1474T
1267.249	1.616	1287321	WORD	n/a	wordpools/wordpool_categorized_EN.txt	ISLAND	Landscapes	1	12	[0, 0, 0]	n/a	catFR1	2	R1474T
1268.865	0.849	1288942	WORD_OFF	n/a	n/a	ISLAND	Landscapes	1	12	[0, 0, 0]	n/a	catFR1	2	R1474T
1269.714	1.602	1289794	WORD	n/a	wordpools/wordpool_categorized_EN.txt	MOUNTAIN	Landscapes	2	12	[0, 0, 0]	n/a	catFR1	2	R1474T
1271.316	0.898	1291401	WORD_OFF	n/a	n/a	MOUNTAIN	Landscapes	2	12	[0, 0, 0]	n/a	catFR1	2	R1474T
1272.214	1.601	1292295	WORD	n/a	wordpools/wordpool_categorized_EN.txt	LEATHER	Fabric	3	12	[0, 0, 0]	n/a	catFR1	2	R1474T
1273.815	0.984	1293888	WORD_OFF	n/a	n/a	LEATHER	Fabric	3	12	[0, 0, 0]	n/a	catFR1	2	R1474T
1274.799	1.6	1294880	WORD	n/a	wordpools/wordpool_categorized_EN.txt	SATIN	Fabric	4	12	[0, 0, 0]	n/a	catFR1	2	R1474T
1276.399	0.833	1296472	WORD_OFF	n/a	n/a	SATIN	Fabric	4	12	[0, 0, 0]	n/a	catFR1	2	R1474T
1277.232	1.617	1297311	WORD	n/a	wordpools/wordpool_categorized_EN.txt	STAPLER	OfficeSupplies	5	12	[0, 0, 0]	n/a	catFR1	2	R1474T
1278.849	0.816	1298932	WORD_OFF	n/a	n/a	STAPLER	OfficeSupplies	5	12	[0, 0, 0]	n/a	catFR1	2	R1474T
1279.665	1.601	1299742	WORD	n/a	wordpools/wordpool_categorized_EN.txt	PEN	OfficeSupplies	6	12	[0, 0, 0]	n/a	catFR1	2	R1474T
1281.266	0.949	1301335	WORD_OFF	n/a	n/a	PEN	OfficeSupplies	6	12	[0, 0, 0]	n/a	catFR1	2	R1474T
1282.215	1.6	1302285	WORD	n/a	wordpools/wordpool_categorized_EN.txt	LINEN	Fabric	7	12	[0, 0, 0]	n/a	catFR1	2	R1474T
1283.815	0.982	1303892	WORD_OFF	n/a	n/a	LINEN	Fabric	7	12	[0, 0, 0]	n/a	catFR1	2	R1474T
1284.797	1.602	1304870	WORD	n/a	wordpools/wordpool_categorized_EN.txt	SILK	Fabric	8	12	[0, 0, 0]	n/a	catFR1	2	R1474T
1286.399	0.9	1306476	WORD_OFF	n/a	n/a	SILK	Fabric	8	12	[0, 0, 0]	n/a	catFR1	2	R1474T
1287.299	1.616	1307370	WORD	n/a	wordpools/wordpool_categorized_EN.txt	CREEK	Landscapes	9	12	[0, 0, 0]	n/a	catFR1	2	R1474T
1288.915	0.833	1308991	WORD_OFF	n/a	n/a	CREEK	Landscapes	9	12	[0, 0, 0]	n/a	catFR1	2	R1474T
1289.748	1.601	1309830	WORD	n/a	wordpools/wordpool_categorized_EN.txt	VALLEY	Landscapes	10	12	[0, 0, 0]	n/a	catFR1	2	R1474T
1291.349	0.766	1311422	WORD_OFF	n/a	n/a	VALLEY	Landscapes	10	12	[0, 0, 0]	n/a	catFR1	2	R1474T
1292.115	1.6	1312191	WORD	n/a	wordpools/wordpool_categorized_EN.txt	ERASER	OfficeSupplies	11	12	[0, 0, 0]	n/a	catFR1	2	R1474T
1293.715	0.917	1313785	WORD_OFF	n/a	n/a	ERASER	OfficeSupplies	11	12	[0, 0, 0]	n/a	catFR1	2	R1474T
1294.632	1.6	1314706	WORD	n/a	wordpools/wordpool_categorized_EN.txt	FOLDER	OfficeSupplies	12	12	[0, 0, 0]	n/a	catFR1	2	R1474T
1296.232	0.002	1316308	PROB	7.05	n/a	n/a	n/a	-999	12	[2, 8, 5]	15.0	catFR1	2	R1474T
1296.234	0.0	1316310	START	n/a	n/a	n/a	n/a	-999	12	[-999, -999, -999]	n/a	catFR1	2	R1474T
1296.231	0.003	1316312	WORD_OFF	n/a	n/a	FOLDER	OfficeSupplies	12	12	[0, 0, 0]	n/a	catFR1	2	R1474T
1296.234	0.0	1316312	ENCODING_END	n/a	n/a	n/a	n/a	-999	12	[0, 0, 0]	n/a	catFR1	2	R1474T
1296.234	7.065	1316312	DISTRACT_START	n/a	n/a	n/a	n/a	-999	12	[0, 0, 0]	n/a	catFR1	2	R1474T
1303.299	5.882	1323375	PROB	5.866	n/a	n/a	n/a	-999	12	[3, 8, 8]	19.0	catFR1	2	R1474T
1309.181	4.868	1329257	PROB	4.85	n/a	n/a	n/a	-999	12	[8, 8, 1]	17.0	catFR1	2	R1474T
1314.049	7.666	1334124	PROB	7.65	n/a	n/a	n/a	-999	12	[7, 7, 7]	21.0	catFR1	2	R1474T
1321.715	0.0	1341783	DISTRACT_END	n/a	n/a	n/a	n/a	-999	12	[0, 0, 0]	n/a	catFR1	2	R1474T
1321.715	2.167	1341790	STOP	n/a	n/a	n/a	n/a	-999	12	[-999, -999, -999]	n/a	catFR1	2	R1474T
1323.882	1.178	1343957	REC_START	n/a	n/a	n/a	n/a	-999	12	[0, 0, 0]	n/a	catFR1	2	R1474T
1325.06	1.0	1345135	REC_WORD	1.178	n/a	ISLAND	Landscapes	1	12	[0, 0, 0]	n/a	catFR1	2	R1474T
1326.06	2.491	1346135	REC_WORD	2.178	n/a	ISLAND	Landscapes	1	12	[0, 0, 0]	n/a	catFR1	2	R1474T
1328.551	1.0	1348626	REC_WORD	4.669	n/a	SATIN	Fabric	4	12	[0, 0, 0]	n/a	catFR1	2	R1474T
1329.551	5.896	1349626	REC_WORD	5.669	n/a	SATIN	Fabric	4	12	[0, 0, 0]	n/a	catFR1	2	R1474T
1335.447	3.027	1355521	REC_WORD	11.565	n/a	PEN	OfficeSupplies	6	12	[0, 0, 0]	n/a	catFR1	2	R1474T
1338.474	1.0	1358548	REC_WORD	14.592	n/a	MOUNTAIN	Landscapes	2	12	[0, 0, 0]	n/a	catFR1	2	R1474T
1339.474	8.625	1359548	REC_WORD	15.592	n/a	MOUNTAIN	Landscapes	2	12	[0, 0, 0]	n/a	catFR1	2	R1474T
1348.099	6.02	1368173	REC_WORD	24.217	n/a	LEATHER	Fabric	3	12	[0, 0, 0]	n/a	catFR1	2	R1474T
1354.119	0.0	1374198	REC_END	n/a	n/a	n/a	n/a	-999	12	[0, 0, 0]	n/a	catFR1	2	R1474T
