onset	duration	sample	trial_type	response_time	stim_file	item_name	category	serialpos	list	test	answer	experiment	session	subject
0.0	166.482	12583	INSTRUCT_START	n/a	n/a	n/a	n/a	-999	-999	[0, 0, 0]	n/a	catFR1	0	R1423E
166.482	50.815	177384	INSTRUCT_END	n/a	n/a	n/a	n/a	-999	-999	[0, 0, 0]	n/a	catFR1	0	R1423E
217.297	10.399	228203	COUNTDOWN_START	n/a	n/a	n/a	n/a	-999	-999	[0, 0, 0]	n/a	catFR1	0	R1423E
227.696	0.0	238597	COUNTDOWN_END	n/a	n/a	n/a	n/a	-999	-999	[0, 0, 0]	n/a	catFR1	0	R1423E
227.696	2.001	238597	ENCODING_START	n/a	n/a	n/a	n/a	-999	-1	[0, 0, 0]	n/a	catFR1	0	R1423E
229.697	1.616	240603	WORD	n/a	n/a	ANT	Insects	1	-1	[0, 0, 0]	n/a	catFR1	0	R1423E
231.313	0.833	242220	WORD_OFF	n/a	n/a	ANT	Insects	1	-1	[0, 0, 0]	n/a	catFR1	0	R1423E
232.146	1.617	243050	WORD	n/a	n/a	BUTTERFLY	Insects	2	-1	[0, 0, 0]	n/a	catFR1	0	R1423E
233.763	0.917	244668	WORD_OFF	n/a	n/a	BUTTERFLY	Insects	2	-1	[0, 0, 0]	n/a	catFR1	0	R1423E
234.68	1.616	245584	WORD	n/a	n/a	MAPLE	Trees	3	-1	[0, 0, 0]	n/a	catFR1	0	R1423E
236.296	0.933	247201	WORD_OFF	n/a	n/a	MAPLE	Trees	3	-1	[0, 0, 0]	n/a	catFR1	0	R1423E
237.229	1.617	248129	WORD	n/a	n/a	WILLOW	Trees	4	-1	[0, 0, 0]	n/a	catFR1	0	R1423E
238.846	0.95	249746	WORD_OFF	n/a	n/a	WILLOW	Trees	4	-1	[0, 0, 0]	n/a	catFR1	0	R1423E
239.796	1.6	250695	WORD	n/a	n/a	SUNFLOWER	Flowers	5	-1	[0, 0, 0]	n/a	catFR1	0	R1423E
241.396	0.9	252302	WORD_OFF	n/a	n/a	SUNFLOWER	Flowers	5	-1	[0, 0, 0]	n/a	catFR1	0	R1423E
242.296	1.6	253197	WORD	n/a	n/a	DAISY	Flowers	6	-1	[0, 0, 0]	n/a	catFR1	0	R1423E
243.896	0.867	254803	WORD_OFF	n/a	n/a	DAISY	Flowers	6	-1	[0, 0, 0]	n/a	catFR1	0	R1423E
244.763	1.616	255666	WORD	n/a	n/a	WALNUT	Trees	7	-1	[0, 0, 0]	n/a	catFR1	0	R1423E
246.379	0.883	257283	WORD_OFF	n/a	n/a	WALNUT	Trees	7	-1	[0, 0, 0]	n/a	catFR1	0	R1423E
247.262	1.616	258167	WORD	n/a	n/a	PINE	Trees	8	-1	[0, 0, 0]	n/a	catFR1	0	R1423E
248.878	0.984	259785	WORD_OFF	n/a	n/a	PINE	Trees	8	-1	[0, 0, 0]	n/a	catFR1	0	R1423E
249.862	1.617	260766	WORD	n/a	n/a	LADYBUG	Insects	9	-1	[0, 0, 0]	n/a	catFR1	0	R1423E
251.479	0.932	262383	WORD_OFF	n/a	n/a	LADYBUG	Insects	9	-1	[0, 0, 0]	n/a	catFR1	0	R1423E
252.411	1.601	263311	WORD	n/a	n/a	CRICKET	Insects	10	-1	[0, 0, 0]	n/a	catFR1	0	R1423E
254.012	1.0	264917	WORD_OFF	n/a	n/a	CRICKET	Insects	10	-1	[0, 0, 0]	n/a	catFR1	0	R1423E
255.012	1.617	265920	WORD	n/a	n/a	ORCHID	Flowers	11	-1	[0, 0, 0]	n/a	catFR1	0	R1423E
256.629	0.766	267537	WORD_OFF	n/a	n/a	ORCHID	Flowers	11	-1	[0, 0, 0]	n/a	catFR1	0	R1423E
257.395	1.618	268303	WORD	n/a	n/a	PETUNIA	Flowers	12	-1	[0, 0, 0]	n/a	catFR1	0	R1423E
259.013	0.0	269916	START	n/a	n/a	n/a	n/a	-999	-1	[-999, -999, -999]	n/a	catFR1	0	R1423E
259.013	0.0	269916	PROB	4.649	n/a	n/a	n/a	-999	-1	[7, 3, 6]	16.0	catFR1	0	R1423E
259.012	0.001	269920	WORD_OFF	n/a	n/a	PETUNIA	Flowers	12	-1	[0, 0, 0]	n/a	catFR1	0	R1423E
259.013	0.0	269920	ENCODING_END	n/a	n/a	n/a	n/a	-999	-1	[0, 0, 0]	n/a	catFR1	0	R1423E
259.013	4.666	269920	DISTRACT_START	n/a	n/a	n/a	n/a	-999	-1	[0, 0, 0]	n/a	catFR1	0	R1423E
263.679	4.299	274582	PROB	4.282	n/a	n/a	n/a	-999	-1	[6, 5, 7]	18.0	catFR1	0	R1423E
267.978	4.65	278881	PROB	4.633	n/a	n/a	n/a	-999	-1	[3, 2, 6]	11.0	catFR1	0	R1423E
272.628	3.349	283531	PROB	3.333	n/a	n/a	n/a	-999	-1	[2, 1, 8]	11.0	catFR1	0	R1423E
275.977	3.867	286880	PROB	3.85	n/a	n/a	n/a	-999	-1	[8, 8, 5]	21.0	catFR1	0	R1423E
279.844	0.0	290747	STOP	n/a	n/a	n/a	n/a	-999	-1	[-999, -999, -999]	n/a	catFR1	0	R1423E
279.844	2.2	290752	DISTRACT_END	n/a	n/a	n/a	n/a	-999	-1	[0, 0, 0]	n/a	catFR1	0	R1423E
282.044	2.62	292949	REC_START	n/a	n/a	n/a	n/a	-999	-1	[0, 0, 0]	n/a	catFR1	0	R1423E
284.664	0.355	295567	REC_WORD_VV	2.62	n/a	<>	n/a	-999	-1	[0, 0, 0]	n/a	catFR1	0	R1423E
285.019	1.132	295922	REC_WORD	2.975	n/a	ANT	Insects	1	-1	[0, 0, 0]	n/a	catFR1	0	R1423E
286.151	0.527	297054	REC_WORD_VV	4.107	n/a	<>	n/a	-999	-1	[0, 0, 0]	n/a	catFR1	0	R1423E
286.678	0.874	297581	REC_WORD	4.634	n/a	BUTTERFLY	Insects	2	-1	[0, 0, 0]	n/a	catFR1	0	R1423E
287.552	2.084	298455	REC_WORD	5.508	n/a	PETUNIA	Flowers	12	-1	[0, 0, 0]	n/a	catFR1	0	R1423E
289.636	5.329	300539	REC_WORD_VV	7.592	n/a	<>	n/a	-999	-1	[0, 0, 0]	n/a	catFR1	0	R1423E
294.965	2.51	305868	REC_WORD_VV	12.921	n/a	<>	n/a	-999	-1	[0, 0, 0]	n/a	catFR1	0	R1423E
297.475	12.599	308378	REC_WORD	15.431	n/a	CRICKET	Insects	10	-1	[0, 0, 0]	n/a	catFR1	0	R1423E
310.074	1.0	320977	REC_WORD_VV	28.03	n/a	<>	n/a	-999	-1	[0, 0, 0]	n/a	catFR1	0	R1423E
311.074	1.249	321977	REC_WORD_VV	29.03	n/a	<>	n/a	-999	-1	[0, 0, 0]	n/a	catFR1	0	R1423E
312.323	41.419	323230	REC_END	n/a	n/a	n/a	n/a	-999	-1	[0, 0, 0]	n/a	catFR1	0	R1423E
353.742	10.35	364646	COUNTDOWN_START	n/a	n/a	n/a	n/a	-999	1	[0, 0, 0]	n/a	catFR1	0	R1423E
364.092	0.0	374997	COUNTDOWN_END	n/a	n/a	n/a	n/a	-999	1	[0, 0, 0]	n/a	catFR1	0	R1423E
364.092	2.116	374997	ENCODING_START	n/a	n/a	n/a	n/a	-999	1	[0, 0, 0]	n/a	catFR1	0	R1423E
366.208	1.617	377110	WORD	n/a	wordpools/wordpool_categorized_EN.txt	BOAT	Vehicles	1	1	[0, 0, 0]	n/a	catFR1	0	R1423E
367.825	0.95	378728	WORD_OFF	n/a	n/a	BOAT	Vehicles	1	1	[0, 0, 0]	n/a	catFR1	0	R1423E
368.775	1.616	379676	WORD	n/a	wordpools/wordpool_categorized_EN.txt	PLANE	Vehicles	2	1	[0, 0, 0]	n/a	catFR1	0	R1423E
370.391	0.966	381294	WORD_OFF	n/a	n/a	PLANE	Vehicles	2	1	[0, 0, 0]	n/a	catFR1	0	R1423E
371.357	1.62	382264	WORD	n/a	wordpools/wordpool_categorized_EN.txt	DOLL	Toys	3	1	[0, 0, 0]	n/a	catFR1	0	R1423E
372.977	0.831	383882	WORD_OFF	n/a	n/a	DOLL	Toys	3	1	[0, 0, 0]	n/a	catFR1	0	R1423E
373.808	1.616	384712	WORD	n/a	wordpools/wordpool_categorized_EN.txt	MARBLES	Toys	4	1	[0, 0, 0]	n/a	catFR1	0	R1423E
375.424	0.883	386329	WORD_OFF	n/a	n/a	MARBLES	Toys	4	1	[0, 0, 0]	n/a	catFR1	0	R1423E
376.307	1.601	387214	WORD	n/a	wordpools/wordpool_categorized_EN.txt	ZEBRA	Zoo	5	1	[0, 0, 0]	n/a	catFR1	0	R1423E
377.908	0.982	388809	WORD_OFF	n/a	n/a	ZEBRA	Zoo	5	1	[0, 0, 0]	n/a	catFR1	0	R1423E
378.89	1.601	389791	WORD	n/a	wordpools/wordpool_categorized_EN.txt	MONKEY	Zoo	6	1	[0, 0, 0]	n/a	catFR1	0	R1423E
380.491	0.833	391397	WORD_OFF	n/a	n/a	MONKEY	Zoo	6	1	[0, 0, 0]	n/a	catFR1	0	R1423E
381.324	1.617	392227	WORD	n/a	wordpools/wordpool_categorized_EN.txt	MOPED	Vehicles	7	1	[0, 0, 0]	n/a	catFR1	0	R1423E
382.941	1.0	393845	WORD_OFF	n/a	n/a	MOPED	Vehicles	7	1	[0, 0, 0]	n/a	catFR1	0	R1423E
383.941	1.617	394848	WORD	n/a	wordpools/wordpool_categorized_EN.txt	CAR	Vehicles	8	1	[0, 0, 0]	n/a	catFR1	0	R1423E
385.558	0.883	396465	WORD_OFF	n/a	n/a	CAR	Vehicles	8	1	[0, 0, 0]	n/a	catFR1	0	R1423E
386.441	1.616	397349	WORD	n/a	wordpools/wordpool_categorized_EN.txt	FRISBEE	Toys	9	1	[0, 0, 0]	n/a	catFR1	0	R1423E
388.057	0.983	398967	WORD_OFF	n/a	n/a	FRISBEE	Toys	9	1	[0, 0, 0]	n/a	catFR1	0	R1423E
389.04	1.6	399948	WORD	n/a	wordpools/wordpool_categorized_EN.txt	BALL	Toys	10	1	[0, 0, 0]	n/a	catFR1	0	R1423E
390.64	0.884	401544	WORD_OFF	n/a	n/a	BALL	Toys	10	1	[0, 0, 0]	n/a	catFR1	0	R1423E
391.524	1.616	402428	WORD	n/a	wordpools/wordpool_categorized_EN.txt	ORANGUTAN	Zoo	11	1	[0, 0, 0]	n/a	catFR1	0	R1423E
393.14	0.866	404045	WORD_OFF	n/a	n/a	ORANGUTAN	Zoo	11	1	[0, 0, 0]	n/a	catFR1	0	R1423E
394.006	1.617	404908	WORD	n/a	wordpools/wordpool_categorized_EN.txt	CHEETAH	Zoo	12	1	[0, 0, 0]	n/a	catFR1	0	R1423E
395.623	0.002	406525	WORD_OFF	n/a	n/a	CHEETAH	Zoo	12	1	[0, 0, 0]	n/a	catFR1	0	R1423E
395.625	0.0	406525	ENCODING_END	n/a	n/a	n/a	n/a	-999	1	[0, 0, 0]	n/a	catFR1	0	R1423E
395.623	0.002	406526	PROB	5.5	n/a	n/a	n/a	-999	1	[4, 7, 6]	17.0	catFR1	0	R1423E
395.625	0.0	406528	START	n/a	n/a	n/a	n/a	-999	1	[-999, -999, -999]	n/a	catFR1	0	R1423E
395.625	5.516	406536	DISTRACT_START	n/a	n/a	n/a	n/a	-999	1	[0, 0, 0]	n/a	catFR1	0	R1423E
401.141	3.333	412044	PROB	3.316	n/a	n/a	n/a	-999	1	[7, 4, 4]	15.0	catFR1	0	R1423E
404.474	3.366	415377	PROB	3.35	n/a	n/a	n/a	-999	1	[8, 3, 7]	18.0	catFR1	0	R1423E
407.84	4.267	418743	PROB	4.249	n/a	n/a	n/a	-999	1	[2, 6, 7]	15.0	catFR1	0	R1423E
412.107	2.749	423010	PROB	2.733	n/a	n/a	n/a	-999	1	[3, 8, 6]	17.0	catFR1	0	R1423E
414.856	2.834	425759	PROB	2.816	n/a	n/a	n/a	-999	1	[3, 1, 7]	11.0	catFR1	0	R1423E
417.69	0.0	428593	STOP	n/a	n/a	n/a	n/a	-999	1	[-999, -999, -999]	n/a	catFR1	0	R1423E
417.69	2.083	428597	DISTRACT_END	n/a	n/a	n/a	n/a	-999	1	[0, 0, 0]	n/a	catFR1	0	R1423E
419.773	1.819	430675	REC_START	n/a	n/a	n/a	n/a	-999	1	[0, 0, 0]	n/a	catFR1	0	R1423E
421.592	1.196	432495	REC_WORD	1.819	n/a	BOAT	Vehicles	1	1	[0, 0, 0]	n/a	catFR1	0	R1423E
422.788	0.559	433691	REC_WORD_VV	3.015	n/a	<>	n/a	-999	1	[0, 0, 0]	n/a	catFR1	0	R1423E
423.347	12.78	434250	REC_WORD	3.574	n/a	PLANE	Vehicles	2	1	[0, 0, 0]	n/a	catFR1	0	R1423E
436.127	12.666	447030	REC_WORD	16.354	n/a	ORAN	n/a	-999	1	[0, 0, 0]	n/a	catFR1	0	R1423E
448.793	1.256	459696	REC_WORD	29.02	n/a	MARBLES	Toys	4	1	[0, 0, 0]	n/a	catFR1	0	R1423E
450.049	3.456	460956	REC_END	n/a	n/a	n/a	n/a	-999	1	[0, 0, 0]	n/a	catFR1	0	R1423E
453.505	10.35	464417	COUNTDOWN_START	n/a	n/a	n/a	n/a	-999	2	[0, 0, 0]	n/a	catFR1	0	R1423E
463.855	0.0	474757	COUNTDOWN_END	n/a	n/a	n/a	n/a	-999	2	[0, 0, 0]	n/a	catFR1	0	R1423E
463.855	2.149	474757	ENCODING_START	n/a	n/a	n/a	n/a	-999	2	[0, 0, 0]	n/a	catFR1	0	R1423E
466.004	1.6	476903	WORD	n/a	wordpools/wordpool_categorized_EN.txt	OAK	Trees	1	2	[0, 0, 0]	n/a	catFR1	0	R1423E
467.604	1.0	478510	WORD_OFF	n/a	n/a	OAK	Trees	1	2	[0, 0, 0]	n/a	catFR1	0	R1423E
468.604	1.617	479513	WORD	n/a	wordpools/wordpool_categorized_EN.txt	SPRUCE	Trees	2	2	[0, 0, 0]	n/a	catFR1	0	R1423E
470.221	0.983	481130	WORD_OFF	n/a	n/a	SPRUCE	Trees	2	2	[0, 0, 0]	n/a	catFR1	0	R1423E
471.204	1.601	482111	WORD	n/a	wordpools/wordpool_categorized_EN.txt	CORN	Vegetables	3	2	[0, 0, 0]	n/a	catFR1	0	R1423E
472.805	0.916	483707	WORD_OFF	n/a	n/a	CORN	Vegetables	3	2	[0, 0, 0]	n/a	catFR1	0	R1423E
473.721	1.6	484624	WORD	n/a	wordpools/wordpool_categorized_EN.txt	PEAS	Vegetables	4	2	[0, 0, 0]	n/a	catFR1	0	R1423E
475.321	0.9	486230	WORD_OFF	n/a	n/a	PEAS	Vegetables	4	2	[0, 0, 0]	n/a	catFR1	0	R1423E
476.221	1.617	487125	WORD	n/a	wordpools/wordpool_categorized_EN.txt	SCOOTER	Vehicles	5	2	[0, 0, 0]	n/a	catFR1	0	R1423E
477.838	0.8	488742	WORD_OFF	n/a	n/a	SCOOTER	Vehicles	5	2	[0, 0, 0]	n/a	catFR1	0	R1423E
478.638	1.6	489540	WORD	n/a	wordpools/wordpool_categorized_EN.txt	TRUCK	Vehicles	6	2	[0, 0, 0]	n/a	catFR1	0	R1423E
480.238	0.866	491147	WORD_OFF	n/a	n/a	TRUCK	Vehicles	6	2	[0, 0, 0]	n/a	catFR1	0	R1423E
481.104	1.6	492010	WORD	n/a	wordpools/wordpool_categorized_EN.txt	BIRCH	Trees	7	2	[0, 0, 0]	n/a	catFR1	0	R1423E
482.704	0.95	493605	WORD_OFF	n/a	n/a	BIRCH	Trees	7	2	[0, 0, 0]	n/a	catFR1	0	R1423E
483.654	1.616	494554	WORD	n/a	wordpools/wordpool_categorized_EN.txt	HICKORY	Trees	8	2	[0, 0, 0]	n/a	catFR1	0	R1423E
485.27	0.766	496172	WORD_OFF	n/a	n/a	HICKORY	Trees	8	2	[0, 0, 0]	n/a	catFR1	0	R1423E
486.036	1.601	496937	WORD	n/a	wordpools/wordpool_categorized_EN.txt	JEEP	Vehicles	9	2	[0, 0, 0]	n/a	catFR1	0	R1423E
487.637	0.883	498544	WORD_OFF	n/a	n/a	JEEP	Vehicles	9	2	[0, 0, 0]	n/a	catFR1	0	R1423E
488.52	1.6	499428	WORD	n/a	wordpools/wordpool_categorized_EN.txt	VAN	Vehicles	10	2	[0, 0, 0]	n/a	catFR1	0	R1423E
490.12	0.899	501024	WORD_OFF	n/a	n/a	VAN	Vehicles	10	2	[0, 0, 0]	n/a	catFR1	0	R1423E
491.019	1.6	501919	WORD	n/a	wordpools/wordpool_categorized_EN.txt	LETTUCE	Vegetables	11	2	[0, 0, 0]	n/a	catFR1	0	R1423E
492.619	0.851	503525	WORD_OFF	n/a	n/a	LETTUCE	Vegetables	11	2	[0, 0, 0]	n/a	catFR1	0	R1423E
493.47	1.617	504377	WORD	n/a	wordpools/wordpool_categorized_EN.txt	SPINACH	Vegetables	12	2	[0, 0, 0]	n/a	catFR1	0	R1423E
495.087	0.001	505990	PROB	4.882	n/a	n/a	n/a	-999	2	[4, 1, 7]	12.0	catFR1	0	R1423E
495.088	0.0	505991	START	n/a	n/a	n/a	n/a	-999	2	[-999, -999, -999]	n/a	catFR1	0	R1423E
495.086	0.002	505995	WORD_OFF	n/a	n/a	SPINACH	Vegetables	12	2	[0, 0, 0]	n/a	catFR1	0	R1423E
495.088	0.0	505995	ENCODING_END	n/a	n/a	n/a	n/a	-999	2	[0, 0, 0]	n/a	catFR1	0	R1423E
495.088	4.899	505995	DISTRACT_START	n/a	n/a	n/a	n/a	-999	2	[0, 0, 0]	n/a	catFR1	0	R1423E
499.987	3.016	510890	PROB	3.0	n/a	n/a	n/a	-999	2	[5, 8, 7]	20.0	catFR1	0	R1423E
503.003	5.851	513906	PROB	5.833	n/a	n/a	n/a	-999	2	[3, 2, 3]	8.0	catFR1	0	R1423E
508.854	2.766	519757	PROB	2.749	n/a	n/a	n/a	-999	2	[1, 3, 4]	8.0	catFR1	0	R1423E
511.62	3.25	522523	PROB	3.232	n/a	n/a	n/a	-999	2	[4, 2, 7]	13.0	catFR1	0	R1423E
514.87	7.066	525773	PROB	7.049	n/a	n/a	n/a	-999	2	[6, 3, 4]	13.0	catFR1	0	R1423E
521.936	0.0	532839	STOP	n/a	n/a	n/a	n/a	-999	2	[-999, -999, -999]	n/a	catFR1	0	R1423E
521.936	2.1	532843	DISTRACT_END	n/a	n/a	n/a	n/a	-999	2	[0, 0, 0]	n/a	catFR1	0	R1423E
524.036	1.389	534943	REC_START	n/a	n/a	n/a	n/a	-999	2	[0, 0, 0]	n/a	catFR1	0	R1423E
525.425	1.007	536328	REC_WORD	1.389	n/a	OAK	Trees	1	2	[0, 0, 0]	n/a	catFR1	0	R1423E
526.432	1.138	537335	REC_WORD	2.396	n/a	TRUCK	Vehicles	6	2	[0, 0, 0]	n/a	catFR1	0	R1423E
527.57	11.33	538473	REC_WORD	3.534	n/a	JEEP	Vehicles	9	2	[0, 0, 0]	n/a	catFR1	0	R1423E
538.9	15.407	549803	REC_WORD	14.864	n/a	CORN	Vegetables	3	2	[0, 0, 0]	n/a	catFR1	0	R1423E
554.307	3.511	565213	REC_END	n/a	n/a	n/a	n/a	-999	2	[0, 0, 0]	n/a	catFR1	0	R1423E
557.818	10.349	568728	COUNTDOWN_START	n/a	n/a	n/a	n/a	-999	3	[0, 0, 0]	n/a	catFR1	0	R1423E
568.167	0.0	579068	COUNTDOWN_END	n/a	n/a	n/a	n/a	-999	3	[0, 0, 0]	n/a	catFR1	0	R1423E
568.167	1.9	579068	ENCODING_START	n/a	n/a	n/a	n/a	-999	3	[0, 0, 0]	n/a	catFR1	0	R1423E
570.067	1.599	580966	WORD	n/a	wordpools/wordpool_categorized_EN.txt	CEDAR	Trees	1	3	[0, 0, 0]	n/a	catFR1	0	R1423E
571.666	0.967	582573	WORD_OFF	n/a	n/a	CEDAR	Trees	1	3	[0, 0, 0]	n/a	catFR1	0	R1423E
572.633	1.601	583543	WORD	n/a	wordpools/wordpool_categorized_EN.txt	CYPRESS	Trees	2	3	[0, 0, 0]	n/a	catFR1	0	R1423E
574.234	0.883	585139	WORD_OFF	n/a	n/a	CYPRESS	Trees	2	3	[0, 0, 0]	n/a	catFR1	0	R1423E
575.117	1.6	586023	WORD	n/a	wordpools/wordpool_categorized_EN.txt	FUDGE	Desserts	3	3	[0, 0, 0]	n/a	catFR1	0	R1423E
576.717	0.867	587619	WORD_OFF	n/a	n/a	FUDGE	Desserts	3	3	[0, 0, 0]	n/a	catFR1	0	R1423E
577.584	1.615	588492	WORD	n/a	wordpools/wordpool_categorized_EN.txt	CUPCAKE	Desserts	4	3	[0, 0, 0]	n/a	catFR1	0	R1423E
579.199	0.902	590099	WORD_OFF	n/a	n/a	CUPCAKE	Desserts	4	3	[0, 0, 0]	n/a	catFR1	0	R1423E
580.101	1.599	591005	WORD	n/a	wordpools/wordpool_categorized_EN.txt	GOOSE	Birds	5	3	[0, 0, 0]	n/a	catFR1	0	R1423E
581.7	0.934	592601	WORD_OFF	n/a	n/a	GOOSE	Birds	5	3	[0, 0, 0]	n/a	catFR1	0	R1423E
582.634	1.616	593539	WORD	n/a	wordpools/wordpool_categorized_EN.txt	CROW	Birds	6	3	[0, 0, 0]	n/a	catFR1	0	R1423E
584.25	0.9	595156	WORD_OFF	n/a	n/a	CROW	Birds	6	3	[0, 0, 0]	n/a	catFR1	0	R1423E
585.15	1.6	596051	WORD	n/a	wordpools/wordpool_categorized_EN.txt	BROWNIES	Desserts	7	3	[0, 0, 0]	n/a	catFR1	0	R1423E
586.75	0.851	597658	WORD_OFF	n/a	n/a	BROWNIES	Desserts	7	3	[0, 0, 0]	n/a	catFR1	0	R1423E
587.601	1.616	598509	WORD	n/a	wordpools/wordpool_categorized_EN.txt	CHEESECAKE	Desserts	8	3	[0, 0, 0]	n/a	catFR1	0	R1423E
589.217	0.983	600127	WORD_OFF	n/a	n/a	CHEESECAKE	Desserts	8	3	[0, 0, 0]	n/a	catFR1	0	R1423E
590.2	1.616	601108	WORD	n/a	wordpools/wordpool_categorized_EN.txt	CARDINAL	Birds	9	3	[0, 0, 0]	n/a	catFR1	0	R1423E
591.816	0.833	602725	WORD_OFF	n/a	n/a	CARDINAL	Birds	9	3	[0, 0, 0]	n/a	catFR1	0	R1423E
592.649	1.618	603556	WORD	n/a	wordpools/wordpool_categorized_EN.txt	PIGEON	Birds	10	3	[0, 0, 0]	n/a	catFR1	0	R1423E
594.267	0.915	605173	WORD_OFF	n/a	n/a	PIGEON	Birds	10	3	[0, 0, 0]	n/a	catFR1	0	R1423E
595.182	1.601	606090	WORD	n/a	wordpools/wordpool_categorized_EN.txt	ELM	Trees	11	3	[0, 0, 0]	n/a	catFR1	0	R1423E
596.783	1.0	607685	WORD_OFF	n/a	n/a	ELM	Trees	11	3	[0, 0, 0]	n/a	catFR1	0	R1423E
597.783	1.617	608688	WORD	n/a	wordpools/wordpool_categorized_EN.txt	EVERGREEN	Trees	12	3	[0, 0, 0]	n/a	catFR1	0	R1423E
599.4	0.001	610303	PROB	4.466	n/a	n/a	n/a	-999	3	[2, 3, 8]	13.0	catFR1	0	R1423E
599.401	0.0	610304	START	n/a	n/a	n/a	n/a	-999	3	[-999, -999, -999]	n/a	catFR1	0	R1423E
599.4	0.001	610306	WORD_OFF	n/a	n/a	EVERGREEN	Trees	12	3	[0, 0, 0]	n/a	catFR1	0	R1423E
599.401	0.0	610306	ENCODING_END	n/a	n/a	n/a	n/a	-999	3	[0, 0, 0]	n/a	catFR1	0	R1423E
599.401	4.482	610306	DISTRACT_START	n/a	n/a	n/a	n/a	-999	3	[0, 0, 0]	n/a	catFR1	0	R1423E
603.883	4.617	614786	PROB	4.6	n/a	n/a	n/a	-999	3	[3, 6, 6]	15.0	catFR1	0	R1423E
608.5	3.399	619403	PROB	3.383	n/a	n/a	n/a	-999	3	[7, 5, 3]	15.0	catFR1	0	R1423E
611.899	3.601	622802	PROB	3.584	n/a	n/a	n/a	-999	3	[6, 2, 6]	14.0	catFR1	0	R1423E
615.5	8.832	626403	PROB	8.816	n/a	n/a	n/a	-999	3	[8, 8, 6]	22.0	catFR1	0	R1423E
624.332	0.0	635235	DISTRACT_END	n/a	n/a	n/a	n/a	-999	3	[0, 0, 0]	n/a	catFR1	0	R1423E
624.332	2.35	635235	STOP	n/a	n/a	n/a	n/a	-999	3	[-999, -999, -999]	n/a	catFR1	0	R1423E
626.682	1.836	637583	REC_START	n/a	n/a	n/a	n/a	-999	3	[0, 0, 0]	n/a	catFR1	0	R1423E
628.518	1.234	639421	REC_WORD	1.836	n/a	CEDAR	Trees	1	3	[0, 0, 0]	n/a	catFR1	0	R1423E
629.752	27.241	640655	REC_WORD	3.07	n/a	CYPRESS	Trees	2	3	[0, 0, 0]	n/a	catFR1	0	R1423E
656.993	2.688	667895	REC_END	n/a	n/a	n/a	n/a	-999	3	[0, 0, 0]	n/a	catFR1	0	R1423E
659.681	10.353	670591	COUNTDOWN_START	n/a	n/a	n/a	n/a	-999	4	[0, 0, 0]	n/a	catFR1	0	R1423E
670.034	0.0	680942	COUNTDOWN_END	n/a	n/a	n/a	n/a	-999	4	[0, 0, 0]	n/a	catFR1	0	R1423E
670.034	2.18	680942	ENCODING_START	n/a	n/a	n/a	n/a	-999	4	[0, 0, 0]	n/a	catFR1	0	R1423E
672.214	1.617	683120	WORD	n/a	wordpools/wordpool_categorized_EN.txt	KNEE	BodyParts	1	4	[0, 0, 0]	n/a	catFR1	0	R1423E
673.831	0.916	684738	WORD_OFF	n/a	n/a	KNEE	BodyParts	1	4	[0, 0, 0]	n/a	catFR1	0	R1423E
674.747	1.617	685654	WORD	n/a	wordpools/wordpool_categorized_EN.txt	LEG	BodyParts	2	4	[0, 0, 0]	n/a	catFR1	0	R1423E
676.364	0.783	687272	WORD_OFF	n/a	n/a	LEG	BodyParts	2	4	[0, 0, 0]	n/a	catFR1	0	R1423E
677.147	1.617	688048	WORD	n/a	wordpools/wordpool_categorized_EN.txt	TONGS	KitchenTools	3	4	[0, 0, 0]	n/a	catFR1	0	R1423E
678.764	0.85	689665	WORD_OFF	n/a	n/a	TONGS	KitchenTools	3	4	[0, 0, 0]	n/a	catFR1	0	R1423E
679.614	1.6	690517	WORD	n/a	wordpools/wordpool_categorized_EN.txt	KNIFE	KitchenTools	4	4	[0, 0, 0]	n/a	catFR1	0	R1423E
681.214	0.866	692113	WORD_OFF	n/a	n/a	KNIFE	KitchenTools	4	4	[0, 0, 0]	n/a	catFR1	0	R1423E
682.08	1.6	692987	WORD	n/a	wordpools/wordpool_categorized_EN.txt	COFFEE	Beverages	5	4	[0, 0, 0]	n/a	catFR1	0	R1423E
683.68	0.917	694582	WORD_OFF	n/a	n/a	COFFEE	Beverages	5	4	[0, 0, 0]	n/a	catFR1	0	R1423E
684.597	1.6	695499	WORD	n/a	wordpools/wordpool_categorized_EN.txt	BEER	Beverages	6	4	[0, 0, 0]	n/a	catFR1	0	R1423E
686.197	0.849	697105	WORD_OFF	n/a	n/a	BEER	Beverages	6	4	[0, 0, 0]	n/a	catFR1	0	R1423E
687.046	1.601	697947	WORD	n/a	wordpools/wordpool_categorized_EN.txt	TOE	BodyParts	7	4	[0, 0, 0]	n/a	catFR1	0	R1423E
688.647	0.983	699553	WORD_OFF	n/a	n/a	TOE	BodyParts	7	4	[0, 0, 0]	n/a	catFR1	0	R1423E
689.63	1.6	700534	WORD	n/a	wordpools/wordpool_categorized_EN.txt	FINGERS	BodyParts	8	4	[0, 0, 0]	n/a	catFR1	0	R1423E
691.23	0.802	702130	WORD_OFF	n/a	n/a	FINGERS	BodyParts	8	4	[0, 0, 0]	n/a	catFR1	0	R1423E
692.032	1.614	702939	WORD	n/a	wordpools/wordpool_categorized_EN.txt	SPATULA	KitchenTools	9	4	[0, 0, 0]	n/a	catFR1	0	R1423E
693.646	0.95	704556	WORD_OFF	n/a	n/a	SPATULA	KitchenTools	9	4	[0, 0, 0]	n/a	catFR1	0	R1423E
694.596	1.6	705505	WORD	n/a	wordpools/wordpool_categorized_EN.txt	LADLE	KitchenTools	10	4	[0, 0, 0]	n/a	catFR1	0	R1423E
696.196	0.899	707101	WORD_OFF	n/a	n/a	LADLE	KitchenTools	10	4	[0, 0, 0]	n/a	catFR1	0	R1423E
697.095	1.601	707996	WORD	n/a	wordpools/wordpool_categorized_EN.txt	RUM	Beverages	11	4	[0, 0, 0]	n/a	catFR1	0	R1423E
698.696	0.817	709603	WORD_OFF	n/a	n/a	RUM	Beverages	11	4	[0, 0, 0]	n/a	catFR1	0	R1423E
699.513	1.616	710422	WORD	n/a	wordpools/wordpool_categorized_EN.txt	SODA	Beverages	12	4	[0, 0, 0]	n/a	catFR1	0	R1423E
701.129	0.0	712029	WORD_OFF	n/a	n/a	SODA	Beverages	12	4	[0, 0, 0]	n/a	catFR1	0	R1423E
701.129	0.001	712032	PROB	5.233	n/a	n/a	n/a	-999	4	[3, 8, 4]	15.0	catFR1	0	R1423E
701.13	0.0	712033	START	n/a	n/a	n/a	n/a	-999	4	[-999, -999, -999]	n/a	catFR1	0	R1423E
701.13	0.0	712039	ENCODING_END	n/a	n/a	n/a	n/a	-999	4	[0, 0, 0]	n/a	catFR1	0	R1423E
701.13	5.25	712039	DISTRACT_START	n/a	n/a	n/a	n/a	-999	4	[0, 0, 0]	n/a	catFR1	0	R1423E
706.38	3.832	717283	PROB	3.816	n/a	n/a	n/a	-999	4	[4, 8, 2]	14.0	catFR1	0	R1423E
710.212	3.717	721115	PROB	3.7	n/a	n/a	n/a	-999	4	[3, 3, 7]	13.0	catFR1	0	R1423E
713.929	2.517	724832	PROB	2.5	n/a	n/a	n/a	-999	4	[2, 5, 2]	9.0	catFR1	0	R1423E
716.446	3.333	727349	PROB	3.316	n/a	n/a	n/a	-999	4	[4, 4, 1]	9.0	catFR1	0	R1423E
719.779	5.632	730682	PROB	5.616	n/a	n/a	n/a	-999	4	[4, 7, 1]	12.0	catFR1	0	R1423E
725.411	0.0	736311	DISTRACT_END	n/a	n/a	n/a	n/a	-999	4	[0, 0, 0]	n/a	catFR1	0	R1423E
725.411	2.017	736314	STOP	n/a	n/a	n/a	n/a	-999	4	[-999, -999, -999]	n/a	catFR1	0	R1423E
727.428	1.904	738335	REC_START	n/a	n/a	n/a	n/a	-999	4	[0, 0, 0]	n/a	catFR1	0	R1423E
729.332	0.834	740235	REC_WORD	1.904	n/a	KNEE	BodyParts	1	4	[0, 0, 0]	n/a	catFR1	0	R1423E
730.166	3.958	741069	REC_WORD	2.738	n/a	LEG	BodyParts	2	4	[0, 0, 0]	n/a	catFR1	0	R1423E
734.124	3.253	745027	REC_WORD	6.696	n/a	TOE	BodyParts	7	4	[0, 0, 0]	n/a	catFR1	0	R1423E
737.377	10.089	748280	REC_WORD	9.949	n/a	TONGS	KitchenTools	3	4	[0, 0, 0]	n/a	catFR1	0	R1423E
747.466	10.261	758369	REC_WORD	20.038	n/a	CHEESECAKE	Desserts	-999	4	[0, 0, 0]	n/a	catFR1	0	R1423E
757.727	3.167	768637	REC_END	n/a	n/a	n/a	n/a	-999	4	[0, 0, 0]	n/a	catFR1	0	R1423E
760.894	10.349	771797	COUNTDOWN_START	n/a	n/a	n/a	n/a	-999	5	[0, 0, 0]	n/a	catFR1	0	R1423E
771.243	0.0	782148	COUNTDOWN_END	n/a	n/a	n/a	n/a	-999	5	[0, 0, 0]	n/a	catFR1	0	R1423E
771.243	2.067	782148	ENCODING_START	n/a	n/a	n/a	n/a	-999	5	[0, 0, 0]	n/a	catFR1	0	R1423E
773.31	1.616	784229	WORD	n/a	wordpools/wordpool_categorized_EN.txt	CABINET	Furniture	1	5	[0, 0, 0]	n/a	catFR1	0	R1423E
774.926	0.917	785835	WORD_OFF	n/a	n/a	CABINET	Furniture	1	5	[0, 0, 0]	n/a	catFR1	0	R1423E
775.843	1.617	786752	WORD	n/a	wordpools/wordpool_categorized_EN.txt	TABLE	Furniture	2	5	[0, 0, 0]	n/a	catFR1	0	R1423E
777.46	0.982	788369	WORD_OFF	n/a	n/a	TABLE	Furniture	2	5	[0, 0, 0]	n/a	catFR1	0	R1423E
778.442	1.601	789351	WORD	n/a	wordpools/wordpool_categorized_EN.txt	DOOR	Building	3	5	[0, 0, 0]	n/a	catFR1	0	R1423E
780.043	0.95	790946	WORD_OFF	n/a	n/a	DOOR	Building	3	5	[0, 0, 0]	n/a	catFR1	0	R1423E
780.993	1.616	791895	WORD	n/a	wordpools/wordpool_categorized_EN.txt	ROOF	Building	4	5	[0, 0, 0]	n/a	catFR1	0	R1423E
782.609	0.817	793513	WORD_OFF	n/a	n/a	ROOF	Building	4	5	[0, 0, 0]	n/a	catFR1	0	R1423E
783.426	1.616	794332	WORD	n/a	wordpools/wordpool_categorized_EN.txt	DRESS	Clothing	5	5	[0, 0, 0]	n/a	catFR1	0	R1423E
785.042	0.8	795950	WORD_OFF	n/a	n/a	DRESS	Clothing	5	5	[0, 0, 0]	n/a	catFR1	0	R1423E
785.842	1.617	796747	WORD	n/a	wordpools/wordpool_categorized_EN.txt	SHOES	Clothing	6	5	[0, 0, 0]	n/a	catFR1	0	R1423E
787.459	0.867	798365	WORD_OFF	n/a	n/a	SHOES	Clothing	6	5	[0, 0, 0]	n/a	catFR1	0	R1423E
788.326	1.6	799227	WORD	n/a	wordpools/wordpool_categorized_EN.txt	ATTIC	Building	7	5	[0, 0, 0]	n/a	catFR1	0	R1423E
789.926	0.949	800834	WORD_OFF	n/a	n/a	ATTIC	Building	7	5	[0, 0, 0]	n/a	catFR1	0	R1423E
790.875	1.617	801783	WORD	n/a	wordpools/wordpool_categorized_EN.txt	HALLWAY	Building	8	5	[0, 0, 0]	n/a	catFR1	0	R1423E
792.492	0.783	803400	WORD_OFF	n/a	n/a	HALLWAY	Building	8	5	[0, 0, 0]	n/a	catFR1	0	R1423E
793.275	1.617	804177	WORD	n/a	wordpools/wordpool_categorized_EN.txt	JEANS	Clothing	9	5	[0, 0, 0]	n/a	catFR1	0	R1423E
794.892	0.933	805794	WORD_OFF	n/a	n/a	JEANS	Clothing	9	5	[0, 0, 0]	n/a	catFR1	0	R1423E
795.825	1.617	806732	WORD	n/a	wordpools/wordpool_categorized_EN.txt	BLOUSE	Clothing	10	5	[0, 0, 0]	n/a	catFR1	0	R1423E
797.442	0.933	808350	WORD_OFF	n/a	n/a	BLOUSE	Clothing	10	5	[0, 0, 0]	n/a	catFR1	0	R1423E
798.375	1.6	809277	WORD	n/a	wordpools/wordpool_categorized_EN.txt	RECLINER	Furniture	11	5	[0, 0, 0]	n/a	catFR1	0	R1423E
799.975	0.917	810883	WORD_OFF	n/a	n/a	RECLINER	Furniture	11	5	[0, 0, 0]	n/a	catFR1	0	R1423E
800.892	1.617	811800	WORD	n/a	wordpools/wordpool_categorized_EN.txt	CHAIR	Furniture	12	5	[0, 0, 0]	n/a	catFR1	0	R1423E
802.509	0.001	813412	PROB	3.384	n/a	n/a	n/a	-999	5	[7, 6, 1]	14.0	catFR1	0	R1423E
802.51	0.0	813413	START	n/a	n/a	n/a	n/a	-999	5	[-999, -999, -999]	n/a	catFR1	0	R1423E
802.509	0.001	813417	WORD_OFF	n/a	n/a	CHAIR	Furniture	12	5	[0, 0, 0]	n/a	catFR1	0	R1423E
802.51	0.0	813417	ENCODING_END	n/a	n/a	n/a	n/a	-999	5	[0, 0, 0]	n/a	catFR1	0	R1423E
802.51	3.401	813417	DISTRACT_START	n/a	n/a	n/a	n/a	-999	5	[0, 0, 0]	n/a	catFR1	0	R1423E
805.911	3.931	816814	PROB	3.915	n/a	n/a	n/a	-999	5	[6, 2, 2]	10.0	catFR1	0	R1423E
809.842	2.766	820745	PROB	2.75	n/a	n/a	n/a	-999	5	[4, 3, 7]	14.0	catFR1	0	R1423E
812.608	2.885	823511	PROB	2.867	n/a	n/a	n/a	-999	5	[2, 8, 6]	16.0	catFR1	0	R1423E
815.493	3.566	826396	PROB	3.549	n/a	n/a	n/a	-999	5	[3, 8, 6]	17.0	catFR1	0	R1423E
819.059	5.766	829962	PROB	5.749	n/a	n/a	n/a	-999	5	[4, 7, 4]	15.0	catFR1	0	R1423E
824.825	0.0	835727	DISTRACT_END	n/a	n/a	n/a	n/a	-999	5	[0, 0, 0]	n/a	catFR1	0	R1423E
824.825	2.283	835728	STOP	n/a	n/a	n/a	n/a	-999	5	[-999, -999, -999]	n/a	catFR1	0	R1423E
827.108	1.107	838010	REC_START	n/a	n/a	n/a	n/a	-999	5	[0, 0, 0]	n/a	catFR1	0	R1423E
828.215	29.222	839118	REC_WORD	1.107	n/a	CABINET	Furniture	1	5	[0, 0, 0]	n/a	catFR1	0	R1423E
857.437	2.32	868344	REC_END	n/a	n/a	n/a	n/a	-999	5	[0, 0, 0]	n/a	catFR1	0	R1423E
859.757	10.35	870662	COUNTDOWN_START	n/a	n/a	n/a	n/a	-999	6	[0, 0, 0]	n/a	catFR1	0	R1423E
870.107	0.0	881014	COUNTDOWN_END	n/a	n/a	n/a	n/a	-999	6	[0, 0, 0]	n/a	catFR1	0	R1423E
870.107	1.916	881014	ENCODING_START	n/a	n/a	n/a	n/a	-999	6	[0, 0, 0]	n/a	catFR1	0	R1423E
872.023	1.6	882933	WORD	n/a	wordpools/wordpool_categorized_EN.txt	HURRICANE	Weather	1	6	[0, 0, 0]	n/a	catFR1	0	R1423E
873.623	0.966	884529	WORD_OFF	n/a	n/a	HURRICANE	Weather	1	6	[0, 0, 0]	n/a	catFR1	0	R1423E
874.589	1.6	885499	WORD	n/a	wordpools/wordpool_categorized_EN.txt	CLOUD	Weather	2	6	[0, 0, 0]	n/a	catFR1	0	R1423E
876.189	0.85	887095	WORD_OFF	n/a	n/a	CLOUD	Weather	2	6	[0, 0, 0]	n/a	catFR1	0	R1423E
877.039	1.617	887947	WORD	n/a	wordpools/wordpool_categorized_EN.txt	BULL	FarmAnimals	3	6	[0, 0, 0]	n/a	catFR1	0	R1423E
878.656	0.817	889564	WORD_OFF	n/a	n/a	BULL	FarmAnimals	3	6	[0, 0, 0]	n/a	catFR1	0	R1423E
879.473	1.616	890384	WORD	n/a	wordpools/wordpool_categorized_EN.txt	COW	FarmAnimals	4	6	[0, 0, 0]	n/a	catFR1	0	R1423E
881.089	0.919	891990	WORD_OFF	n/a	n/a	COW	FarmAnimals	4	6	[0, 0, 0]	n/a	catFR1	0	R1423E
882.008	1.614	892918	WORD	n/a	wordpools/wordpool_categorized_EN.txt	HAWK	Birds	5	6	[0, 0, 0]	n/a	catFR1	0	R1423E
883.622	0.8	894524	WORD_OFF	n/a	n/a	HAWK	Birds	5	6	[0, 0, 0]	n/a	catFR1	0	R1423E
884.422	1.617	895322	WORD	n/a	wordpools/wordpool_categorized_EN.txt	ROBIN	Birds	6	6	[0, 0, 0]	n/a	catFR1	0	R1423E
886.039	0.783	896939	WORD_OFF	n/a	n/a	ROBIN	Birds	6	6	[0, 0, 0]	n/a	catFR1	0	R1423E
886.822	1.6	897727	WORD	n/a	wordpools/wordpool_categorized_EN.txt	FOG	Weather	7	6	[0, 0, 0]	n/a	catFR1	0	R1423E
888.422	0.783	899322	WORD_OFF	n/a	n/a	FOG	Weather	7	6	[0, 0, 0]	n/a	catFR1	0	R1423E
889.205	1.6	900110	WORD	n/a	wordpools/wordpool_categorized_EN.txt	HUMIDITY	Weather	8	6	[0, 0, 0]	n/a	catFR1	0	R1423E
890.805	1.0	901705	WORD_OFF	n/a	n/a	HUMIDITY	Weather	8	6	[0, 0, 0]	n/a	catFR1	0	R1423E
891.805	1.6	902708	WORD	n/a	wordpools/wordpool_categorized_EN.txt	CALF	FarmAnimals	9	6	[0, 0, 0]	n/a	catFR1	0	R1423E
893.405	0.8	904315	WORD_OFF	n/a	n/a	CALF	FarmAnimals	9	6	[0, 0, 0]	n/a	catFR1	0	R1423E
894.205	1.601	905113	WORD	n/a	wordpools/wordpool_categorized_EN.txt	TURKEY	FarmAnimals	10	6	[0, 0, 0]	n/a	catFR1	0	R1423E
895.806	0.766	906708	WORD_OFF	n/a	n/a	TURKEY	FarmAnimals	10	6	[0, 0, 0]	n/a	catFR1	0	R1423E
896.572	1.616	907474	WORD	n/a	wordpools/wordpool_categorized_EN.txt	BLUEBIRD	Birds	11	6	[0, 0, 0]	n/a	catFR1	0	R1423E
898.188	0.867	909091	WORD_OFF	n/a	n/a	BLUEBIRD	Birds	11	6	[0, 0, 0]	n/a	catFR1	0	R1423E
899.055	1.601	909965	WORD	n/a	wordpools/wordpool_categorized_EN.txt	SEAGULL	Birds	12	6	[0, 0, 0]	n/a	catFR1	0	R1423E
900.656	0.001	911559	PROB	4.166	n/a	n/a	n/a	-999	6	[1, 7, 8]	16.0	catFR1	0	R1423E
900.657	0.0	911560	START	n/a	n/a	n/a	n/a	-999	6	[-999, -999, -999]	n/a	catFR1	0	R1423E
900.656	0.001	911561	WORD_OFF	n/a	n/a	SEAGULL	Birds	12	6	[0, 0, 0]	n/a	catFR1	0	R1423E
900.657	0.0	911561	ENCODING_END	n/a	n/a	n/a	n/a	-999	6	[0, 0, 0]	n/a	catFR1	0	R1423E
900.657	4.181	911561	DISTRACT_START	n/a	n/a	n/a	n/a	-999	6	[0, 0, 0]	n/a	catFR1	0	R1423E
904.838	2.334	915741	PROB	2.317	n/a	n/a	n/a	-999	6	[7, 3, 2]	12.0	catFR1	0	R1423E
907.172	4.333	918075	PROB	4.316	n/a	n/a	n/a	-999	6	[4, 7, 6]	17.0	catFR1	0	R1423E
911.505	2.55	922408	PROB	2.533	n/a	n/a	n/a	-999	6	[2, 6, 2]	10.0	catFR1	0	R1423E
914.055	12.167	924958	PROB	12.15	n/a	n/a	n/a	-999	6	[5, 7, 4]	16.0	catFR1	0	R1423E
926.222	0.0	937125	STOP	n/a	n/a	n/a	n/a	-999	6	[-999, -999, -999]	n/a	catFR1	0	R1423E
926.222	2.249	937126	DISTRACT_END	n/a	n/a	n/a	n/a	-999	6	[0, 0, 0]	n/a	catFR1	0	R1423E
928.471	0.812	939377	REC_START	n/a	n/a	n/a	n/a	-999	6	[0, 0, 0]	n/a	catFR1	0	R1423E
929.283	2.028	940186	REC_WORD	0.812	n/a	HURRICANE	Weather	1	6	[0, 0, 0]	n/a	catFR1	0	R1423E
931.311	2.41	942214	REC_WORD	2.84	n/a	CLOUD	Weather	2	6	[0, 0, 0]	n/a	catFR1	0	R1423E
933.721	25.07	944624	REC_WORD	5.25	n/a	BULL	FarmAnimals	3	6	[0, 0, 0]	n/a	catFR1	0	R1423E
958.791	2.179	969700	REC_END	n/a	n/a	n/a	n/a	-999	6	[0, 0, 0]	n/a	catFR1	0	R1423E
960.97	10.35	971878	COUNTDOWN_START	n/a	n/a	n/a	n/a	-999	7	[0, 0, 0]	n/a	catFR1	0	R1423E
971.32	0.0	982230	COUNTDOWN_END	n/a	n/a	n/a	n/a	-999	7	[0, 0, 0]	n/a	catFR1	0	R1423E
971.32	2.166	982230	ENCODING_START	n/a	n/a	n/a	n/a	-999	7	[0, 0, 0]	n/a	catFR1	0	R1423E
973.486	1.617	984386	WORD	n/a	wordpools/wordpool_categorized_EN.txt	APPLE	Fruit	1	7	[0, 0, 0]	n/a	catFR1	0	R1423E
975.103	0.916	986004	WORD_OFF	n/a	n/a	APPLE	Fruit	1	7	[0, 0, 0]	n/a	catFR1	0	R1423E
976.019	1.6	986920	WORD	n/a	wordpools/wordpool_categorized_EN.txt	LIME	Fruit	2	7	[0, 0, 0]	n/a	catFR1	0	R1423E
977.619	0.934	988527	WORD_OFF	n/a	n/a	LIME	Fruit	2	7	[0, 0, 0]	n/a	catFR1	0	R1423E
978.553	1.616	989454	WORD	n/a	wordpools/wordpool_categorized_EN.txt	PAPER	OfficeSupplies	3	7	[0, 0, 0]	n/a	catFR1	0	R1423E
980.169	0.867	991072	WORD_OFF	n/a	n/a	PAPER	OfficeSupplies	3	7	[0, 0, 0]	n/a	catFR1	0	R1423E
981.036	1.6	991945	WORD	n/a	wordpools/wordpool_categorized_EN.txt	PENCIL	OfficeSupplies	4	7	[0, 0, 0]	n/a	catFR1	0	R1423E
982.636	0.867	993541	WORD_OFF	n/a	n/a	PENCIL	OfficeSupplies	4	7	[0, 0, 0]	n/a	catFR1	0	R1423E
983.503	1.599	994403	WORD	n/a	wordpools/wordpool_categorized_EN.txt	SHOVEL	Tools	5	7	[0, 0, 0]	n/a	catFR1	0	R1423E
985.102	0.983	996010	WORD_OFF	n/a	n/a	SHOVEL	Tools	5	7	[0, 0, 0]	n/a	catFR1	0	R1423E
986.085	1.601	996991	WORD	n/a	wordpools/wordpool_categorized_EN.txt	PLIERS	Tools	6	7	[0, 0, 0]	n/a	catFR1	0	R1423E
987.686	0.949	998587	WORD_OFF	n/a	n/a	PLIERS	Tools	6	7	[0, 0, 0]	n/a	catFR1	0	R1423E
988.635	1.6	999536	WORD	n/a	wordpools/wordpool_categorized_EN.txt	STAPLER	OfficeSupplies	7	7	[0, 0, 0]	n/a	catFR1	0	R1423E
990.235	1.0	1001142	WORD_OFF	n/a	n/a	STAPLER	OfficeSupplies	7	7	[0, 0, 0]	n/a	catFR1	0	R1423E
991.235	1.617	1002145	WORD	n/a	wordpools/wordpool_categorized_EN.txt	TAPE	OfficeSupplies	8	7	[0, 0, 0]	n/a	catFR1	0	R1423E
992.852	0.866	1003752	WORD_OFF	n/a	n/a	TAPE	OfficeSupplies	8	7	[0, 0, 0]	n/a	catFR1	0	R1423E
993.718	1.617	1004625	WORD	n/a	wordpools/wordpool_categorized_EN.txt	PLUM	Fruit	9	7	[0, 0, 0]	n/a	catFR1	0	R1423E
995.335	0.817	1006243	WORD_OFF	n/a	n/a	PLUM	Fruit	9	7	[0, 0, 0]	n/a	catFR1	0	R1423E
996.152	1.6	1007062	WORD	n/a	wordpools/wordpool_categorized_EN.txt	CHERRY	Fruit	10	7	[0, 0, 0]	n/a	catFR1	0	R1423E
997.752	0.916	1008658	WORD_OFF	n/a	n/a	CHERRY	Fruit	10	7	[0, 0, 0]	n/a	catFR1	0	R1423E
998.668	1.6	1009574	WORD	n/a	wordpools/wordpool_categorized_EN.txt	CROWBAR	Tools	11	7	[0, 0, 0]	n/a	catFR1	0	R1423E
1000.268	0.934	1011170	WORD_OFF	n/a	n/a	CROWBAR	Tools	11	7	[0, 0, 0]	n/a	catFR1	0	R1423E
1001.202	1.617	1012108	WORD	n/a	wordpools/wordpool_categorized_EN.txt	DRILL	Tools	12	7	[0, 0, 0]	n/a	catFR1	0	R1423E
1002.819	0.001	1013722	PROB	3.416	n/a	n/a	n/a	-999	7	[7, 6, 8]	21.0	catFR1	0	R1423E
1002.82	0.0	1013723	START	n/a	n/a	n/a	n/a	-999	7	[-999, -999, -999]	n/a	catFR1	0	R1423E
1002.819	0.001	1013726	WORD_OFF	n/a	n/a	DRILL	Tools	12	7	[0, 0, 0]	n/a	catFR1	0	R1423E
1002.82	0.0	1013726	ENCODING_END	n/a	n/a	n/a	n/a	-999	7	[0, 0, 0]	n/a	catFR1	0	R1423E
1002.82	3.432	1013726	DISTRACT_START	n/a	n/a	n/a	n/a	-999	7	[0, 0, 0]	n/a	catFR1	0	R1423E
1006.252	2.567	1017155	PROB	2.55	n/a	n/a	n/a	-999	7	[6, 4, 2]	12.0	catFR1	0	R1423E
1008.819	3.099	1019722	PROB	3.082	n/a	n/a	n/a	-999	7	[7, 4, 3]	14.0	catFR1	0	R1423E
1011.918	3.651	1022821	PROB	3.634	n/a	n/a	n/a	-999	7	[1, 4, 1]	6.0	catFR1	0	R1423E
1015.569	5.383	1026472	PROB	5.365	n/a	n/a	n/a	-999	7	[4, 8, 5]	17.0	catFR1	0	R1423E
1020.952	3.733	1031855	PROB	3.715	n/a	n/a	n/a	-999	7	[1, 4, 8]	13.0	catFR1	0	R1423E
1024.685	0.0	1035588	STOP	n/a	n/a	n/a	n/a	-999	7	[-999, -999, -999]	n/a	catFR1	0	R1423E
1024.685	2.233	1035593	DISTRACT_END	n/a	n/a	n/a	n/a	-999	7	[0, 0, 0]	n/a	catFR1	0	R1423E
1026.918	1.091	1037822	REC_START	n/a	n/a	n/a	n/a	-999	7	[0, 0, 0]	n/a	catFR1	0	R1423E
1028.009	0.987	1038912	REC_WORD	1.091	n/a	APPLE	Fruit	1	7	[0, 0, 0]	n/a	catFR1	0	R1423E
1028.996	1.87	1039899	REC_WORD	2.078	n/a	LIME	Fruit	2	7	[0, 0, 0]	n/a	catFR1	0	R1423E
1030.866	0.774	1041769	REC_WORD	3.948	n/a	PAPER	OfficeSupplies	3	7	[0, 0, 0]	n/a	catFR1	0	R1423E
1031.64	25.605	1042543	REC_WORD	4.722	n/a	PENCIL	OfficeSupplies	4	7	[0, 0, 0]	n/a	catFR1	0	R1423E
1057.245	2.072	1068146	REC_END	n/a	n/a	n/a	n/a	-999	7	[0, 0, 0]	n/a	catFR1	0	R1423E
1059.317	10.349	1070227	COUNTDOWN_START	n/a	n/a	n/a	n/a	-999	8	[0, 0, 0]	n/a	catFR1	0	R1423E
1069.666	0.0	1080578	COUNTDOWN_END	n/a	n/a	n/a	n/a	-999	8	[0, 0, 0]	n/a	catFR1	0	R1423E
1069.666	2.25	1080578	ENCODING_START	n/a	n/a	n/a	n/a	-999	8	[0, 0, 0]	n/a	catFR1	0	R1423E
1071.916	1.617	1082821	WORD	n/a	wordpools/wordpool_categorized_EN.txt	FOREST	Landscapes	1	8	[0, 0, 0]	n/a	catFR1	0	R1423E
1073.533	0.783	1084438	WORD_OFF	n/a	n/a	FOREST	Landscapes	1	8	[0, 0, 0]	n/a	catFR1	0	R1423E
1074.316	1.617	1085225	WORD	n/a	wordpools/wordpool_categorized_EN.txt	WOODS	Landscapes	2	8	[0, 0, 0]	n/a	catFR1	0	R1423E
1075.933	1.0	1086843	WORD_OFF	n/a	n/a	WOODS	Landscapes	2	8	[0, 0, 0]	n/a	catFR1	0	R1423E
1076.933	1.616	1087835	WORD	n/a	wordpools/wordpool_categorized_EN.txt	SNOW	Weather	3	8	[0, 0, 0]	n/a	catFR1	0	R1423E
1078.549	0.783	1089452	WORD_OFF	n/a	n/a	SNOW	Weather	3	8	[0, 0, 0]	n/a	catFR1	0	R1423E
1079.332	1.617	1090239	WORD	n/a	wordpools/wordpool_categorized_EN.txt	THUNDERSTORM	Weather	4	8	[0, 0, 0]	n/a	catFR1	0	R1423E
1080.949	0.783	1091856	WORD_OFF	n/a	n/a	THUNDERSTORM	Weather	4	8	[0, 0, 0]	n/a	catFR1	0	R1423E
1081.732	1.617	1092633	WORD	n/a	wordpools/wordpool_categorized_EN.txt	STRAINER	KitchenTools	5	8	[0, 0, 0]	n/a	catFR1	0	R1423E
1083.349	0.766	1094250	WORD_OFF	n/a	n/a	STRAINER	KitchenTools	5	8	[0, 0, 0]	n/a	catFR1	0	R1423E
1084.115	1.6	1095016	WORD	n/a	wordpools/wordpool_categorized_EN.txt	SPOON	KitchenTools	6	8	[0, 0, 0]	n/a	catFR1	0	R1423E
1085.715	0.884	1096622	WORD_OFF	n/a	n/a	SPOON	KitchenTools	6	8	[0, 0, 0]	n/a	catFR1	0	R1423E
1086.599	1.6	1097507	WORD	n/a	wordpools/wordpool_categorized_EN.txt	ISLAND	Landscapes	7	8	[0, 0, 0]	n/a	catFR1	0	R1423E
1088.199	0.883	1099102	WORD_OFF	n/a	n/a	ISLAND	Landscapes	7	8	[0, 0, 0]	n/a	catFR1	0	R1423E
1089.082	1.6	1099987	WORD	n/a	wordpools/wordpool_categorized_EN.txt	STREAM	Landscapes	8	8	[0, 0, 0]	n/a	catFR1	0	R1423E
1090.682	0.816	1101582	WORD_OFF	n/a	n/a	STREAM	Landscapes	8	8	[0, 0, 0]	n/a	catFR1	0	R1423E
1091.498	1.617	1102402	WORD	n/a	wordpools/wordpool_categorized_EN.txt	PEELER	KitchenTools	9	8	[0, 0, 0]	n/a	catFR1	0	R1423E
1093.115	0.966	1104019	WORD_OFF	n/a	n/a	PEELER	KitchenTools	9	8	[0, 0, 0]	n/a	catFR1	0	R1423E
1094.081	1.601	1104990	WORD	n/a	wordpools/wordpool_categorized_EN.txt	CORKSCREW	KitchenTools	10	8	[0, 0, 0]	n/a	catFR1	0	R1423E
1095.682	0.883	1106586	WORD_OFF	n/a	n/a	CORKSCREW	KitchenTools	10	8	[0, 0, 0]	n/a	catFR1	0	R1423E
1096.565	1.601	1107480	WORD	n/a	wordpools/wordpool_categorized_EN.txt	TORNADO	Weather	11	8	[0, 0, 0]	n/a	catFR1	0	R1423E
1098.166	0.783	1109066	WORD_OFF	n/a	n/a	TORNADO	Weather	11	8	[0, 0, 0]	n/a	catFR1	0	R1423E
1098.949	1.616	1109853	WORD	n/a	wordpools/wordpool_categorized_EN.txt	WIND	Weather	12	8	[0, 0, 0]	n/a	catFR1	0	R1423E
1100.565	0.001	1111468	PROB	5.684	n/a	n/a	n/a	-999	8	[8, 5, 8]	23.0	catFR1	0	R1423E
1100.566	0.0	1111469	START	n/a	n/a	n/a	n/a	-999	8	[-999, -999, -999]	n/a	catFR1	0	R1423E
1100.564	0.002	1111470	WORD_OFF	n/a	n/a	WIND	Weather	12	8	[0, 0, 0]	n/a	catFR1	0	R1423E
1100.566	0.0	1111470	ENCODING_END	n/a	n/a	n/a	n/a	-999	8	[0, 0, 0]	n/a	catFR1	0	R1423E
1100.566	5.7	1111470	DISTRACT_START	n/a	n/a	n/a	n/a	-999	8	[0, 0, 0]	n/a	catFR1	0	R1423E
1106.266	4.533	1117169	PROB	4.515	n/a	n/a	n/a	-999	8	[6, 3, 4]	13.0	catFR1	0	R1423E
1110.799	5.299	1121702	PROB	5.282	n/a	n/a	n/a	-999	8	[4, 3, 8]	15.0	catFR1	0	R1423E
1116.098	2.6	1127001	PROB	2.583	n/a	n/a	n/a	-999	8	[4, 3, 7]	14.0	catFR1	0	R1423E
1118.698	2.617	1129601	PROB	2.582	n/a	n/a	n/a	-999	8	[2, 7, 6]	15.0	catFR1	0	R1423E
1121.315	0.0	1132216	DISTRACT_END	n/a	n/a	n/a	n/a	-999	8	[0, 0, 0]	n/a	catFR1	0	R1423E
1121.315	2.149	1132218	STOP	n/a	n/a	n/a	n/a	-999	8	[-999, -999, -999]	n/a	catFR1	0	R1423E
1123.464	1.544	1134370	REC_START	n/a	n/a	n/a	n/a	-999	8	[0, 0, 0]	n/a	catFR1	0	R1423E
1125.008	2.666	1135911	REC_WORD	1.544	n/a	THUNDERSTORM	Weather	4	8	[0, 0, 0]	n/a	catFR1	0	R1423E
1127.674	18.381	1138577	REC_WORD	4.21	n/a	TORNADO	Weather	11	8	[0, 0, 0]	n/a	catFR1	0	R1423E
1146.055	7.732	1156958	REC_WORD	22.591	n/a	HURRICANE	Weather	-999	8	[0, 0, 0]	n/a	catFR1	0	R1423E
1153.787	2.409	1164693	REC_END	n/a	n/a	n/a	n/a	-999	8	[0, 0, 0]	n/a	catFR1	0	R1423E
1156.196	10.351	1167097	COUNTDOWN_START	n/a	n/a	n/a	n/a	-999	9	[0, 0, 0]	n/a	catFR1	0	R1423E
1166.547	0.0	1177449	COUNTDOWN_END	n/a	n/a	n/a	n/a	-999	9	[0, 0, 0]	n/a	catFR1	0	R1423E
1166.547	2.249	1177449	ENCODING_START	n/a	n/a	n/a	n/a	-999	9	[0, 0, 0]	n/a	catFR1	0	R1423E
1168.796	1.6	1179702	WORD	n/a	wordpools/wordpool_categorized_EN.txt	WHISK	KitchenTools	1	9	[0, 0, 0]	n/a	catFR1	0	R1423E
1170.396	0.784	1181298	WORD_OFF	n/a	n/a	WHISK	KitchenTools	1	9	[0, 0, 0]	n/a	catFR1	0	R1423E
1171.18	1.616	1182085	WORD	n/a	wordpools/wordpool_categorized_EN.txt	GRATER	KitchenTools	2	9	[0, 0, 0]	n/a	catFR1	0	R1423E
1172.796	0.949	1183703	WORD_OFF	n/a	n/a	GRATER	KitchenTools	2	9	[0, 0, 0]	n/a	catFR1	0	R1423E
1173.745	1.601	1184652	WORD	n/a	wordpools/wordpool_categorized_EN.txt	LEMON	Fruit	3	9	[0, 0, 0]	n/a	catFR1	0	R1423E
1175.346	0.933	1186247	WORD_OFF	n/a	n/a	LEMON	Fruit	3	9	[0, 0, 0]	n/a	catFR1	0	R1423E
1176.279	1.617	1187185	WORD	n/a	wordpools/wordpool_categorized_EN.txt	PEACH	Fruit	4	9	[0, 0, 0]	n/a	catFR1	0	R1423E
1177.896	0.966	1188803	WORD_OFF	n/a	n/a	PEACH	Fruit	4	9	[0, 0, 0]	n/a	catFR1	0	R1423E
1178.862	1.6	1189763	WORD	n/a	wordpools/wordpool_categorized_EN.txt	SILK	Fabric	5	9	[0, 0, 0]	n/a	catFR1	0	R1423E
1180.462	0.9	1191369	WORD_OFF	n/a	n/a	SILK	Fabric	5	9	[0, 0, 0]	n/a	catFR1	0	R1423E
1181.362	1.617	1192264	WORD	n/a	wordpools/wordpool_categorized_EN.txt	SPANDEX	Fabric	6	9	[0, 0, 0]	n/a	catFR1	0	R1423E
1182.979	0.85	1193881	WORD_OFF	n/a	n/a	SPANDEX	Fabric	6	9	[0, 0, 0]	n/a	catFR1	0	R1423E
1183.829	1.616	1194733	WORD	n/a	wordpools/wordpool_categorized_EN.txt	FORK	KitchenTools	7	9	[0, 0, 0]	n/a	catFR1	0	R1423E
1185.445	0.867	1196351	WORD_OFF	n/a	n/a	FORK	KitchenTools	7	9	[0, 0, 0]	n/a	catFR1	0	R1423E
1186.312	1.616	1197213	WORD	n/a	wordpools/wordpool_categorized_EN.txt	COLANDER	KitchenTools	8	9	[0, 0, 0]	n/a	catFR1	0	R1423E
1187.928	0.967	1198831	WORD_OFF	n/a	n/a	COLANDER	KitchenTools	8	9	[0, 0, 0]	n/a	catFR1	0	R1423E
1188.895	1.617	1199801	WORD	n/a	wordpools/wordpool_categorized_EN.txt	BANANA	Fruit	9	9	[0, 0, 0]	n/a	catFR1	0	R1423E
1190.512	0.916	1201418	WORD_OFF	n/a	n/a	BANANA	Fruit	9	9	[0, 0, 0]	n/a	catFR1	0	R1423E
1191.428	1.617	1202335	WORD	n/a	wordpools/wordpool_categorized_EN.txt	PEAR	Fruit	10	9	[0, 0, 0]	n/a	catFR1	0	R1423E
1193.045	1.0	1203952	WORD_OFF	n/a	n/a	PEAR	Fruit	10	9	[0, 0, 0]	n/a	catFR1	0	R1423E
1194.045	1.616	1204955	WORD	n/a	wordpools/wordpool_categorized_EN.txt	LINEN	Fabric	11	9	[0, 0, 0]	n/a	catFR1	0	R1423E
1195.661	0.867	1206562	WORD_OFF	n/a	n/a	LINEN	Fabric	11	9	[0, 0, 0]	n/a	catFR1	0	R1423E
1196.528	1.6	1207435	WORD	n/a	wordpools/wordpool_categorized_EN.txt	COTTON	Fabric	12	9	[0, 0, 0]	n/a	catFR1	0	R1423E
1198.128	0.001	1209031	WORD_OFF	n/a	n/a	COTTON	Fabric	12	9	[0, 0, 0]	n/a	catFR1	0	R1423E
1198.129	0.0	1209031	ENCODING_END	n/a	n/a	n/a	n/a	-999	9	[0, 0, 0]	n/a	catFR1	0	R1423E
1198.129	0.0	1209031	DISTRACT_START	n/a	n/a	n/a	n/a	-999	9	[0, 0, 0]	n/a	catFR1	0	R1423E
1198.129	0.0	1209032	START	n/a	n/a	n/a	n/a	-999	9	[-999, -999, -999]	n/a	catFR1	0	R1423E
1198.129	3.749	1209032	PROB	3.732	n/a	n/a	n/a	-999	9	[1, 8, 4]	13.0	catFR1	0	R1423E
1201.878	6.1	1212781	PROB	6.083	n/a	n/a	n/a	-999	9	[4, 5, 7]	16.0	catFR1	0	R1423E
1207.978	2.5	1218881	PROB	2.483	n/a	n/a	n/a	-999	9	[4, 4, 7]	15.0	catFR1	0	R1423E
1210.478	2.434	1221381	PROB	2.417	n/a	n/a	n/a	-999	9	[7, 3, 3]	13.0	catFR1	0	R1423E
1212.912	3.501	1223815	PROB	3.483	n/a	n/a	n/a	-999	9	[4, 2, 5]	11.0	catFR1	0	R1423E
1216.413	2.431	1227316	PROB	2.416	n/a	n/a	n/a	-999	9	[2, 1, 6]	9.0	catFR1	0	R1423E
1218.844	0.0	1229744	DISTRACT_END	n/a	n/a	n/a	n/a	-999	9	[0, 0, 0]	n/a	catFR1	0	R1423E
1218.844	2.136	1229747	STOP	n/a	n/a	n/a	n/a	-999	9	[-999, -999, -999]	n/a	catFR1	0	R1423E
1220.98	1.09	1231887	REC_START	n/a	n/a	n/a	n/a	-999	9	[0, 0, 0]	n/a	catFR1	0	R1423E
1222.07	1.019	1232973	REC_WORD	1.09	n/a	LINEN	Fabric	11	9	[0, 0, 0]	n/a	catFR1	0	R1423E
1223.089	5.04	1233992	REC_WORD	2.109	n/a	SPANDEX	Fabric	6	9	[0, 0, 0]	n/a	catFR1	0	R1423E
1228.129	3.573	1239032	REC_WORD	7.149	n/a	PEACH	Fruit	4	9	[0, 0, 0]	n/a	catFR1	0	R1423E
1231.702	19.627	1242605	REC_WORD	10.722	n/a	PEAR	Fruit	10	9	[0, 0, 0]	n/a	catFR1	0	R1423E
1251.329	1.98	1262232	REC_END	n/a	n/a	n/a	n/a	-999	9	[0, 0, 0]	n/a	catFR1	0	R1423E
1253.309	10.352	1264216	COUNTDOWN_START	n/a	n/a	n/a	n/a	-999	10	[0, 0, 0]	n/a	catFR1	0	R1423E
1263.661	0.0	1274568	COUNTDOWN_END	n/a	n/a	n/a	n/a	-999	10	[0, 0, 0]	n/a	catFR1	0	R1423E
1263.661	2.248	1274568	ENCODING_START	n/a	n/a	n/a	n/a	-999	10	[0, 0, 0]	n/a	catFR1	0	R1423E
1265.909	1.601	1276810	WORD	n/a	wordpools/wordpool_categorized_EN.txt	COLA	Beverages	1	10	[0, 0, 0]	n/a	catFR1	0	R1423E
1267.51	0.833	1278417	WORD_OFF	n/a	n/a	COLA	Beverages	1	10	[0, 0, 0]	n/a	catFR1	0	R1423E
1268.343	1.615	1279247	WORD	n/a	wordpools/wordpool_categorized_EN.txt	WATER	Beverages	2	10	[0, 0, 0]	n/a	catFR1	0	R1423E
1269.958	0.851	1280865	WORD_OFF	n/a	n/a	WATER	Beverages	2	10	[0, 0, 0]	n/a	catFR1	0	R1423E
1270.809	1.616	1281717	WORD	n/a	wordpools/wordpool_categorized_EN.txt	ORANGE	Fruit	3	10	[0, 0, 0]	n/a	catFR1	0	R1423E
1272.425	0.918	1283334	WORD_OFF	n/a	n/a	ORANGE	Fruit	3	10	[0, 0, 0]	n/a	catFR1	0	R1423E
1273.343	1.599	1284250	WORD	n/a	wordpools/wordpool_categorized_EN.txt	BLUEBERRY	Fruit	4	10	[0, 0, 0]	n/a	catFR1	0	R1423E
1274.942	0.983	1285846	WORD_OFF	n/a	n/a	BLUEBERRY	Fruit	4	10	[0, 0, 0]	n/a	catFR1	0	R1423E
1275.925	1.601	1286827	WORD	n/a	wordpools/wordpool_categorized_EN.txt	LEATHER	Fabric	5	10	[0, 0, 0]	n/a	catFR1	0	R1423E
1277.526	0.799	1288434	WORD_OFF	n/a	n/a	LEATHER	Fabric	5	10	[0, 0, 0]	n/a	catFR1	0	R1423E
1278.325	1.6	1289232	WORD	n/a	wordpools/wordpool_categorized_EN.txt	WOOL	Fabric	6	10	[0, 0, 0]	n/a	catFR1	0	R1423E
1279.925	0.851	1290828	WORD_OFF	n/a	n/a	WOOL	Fabric	6	10	[0, 0, 0]	n/a	catFR1	0	R1423E
1280.776	1.616	1291680	WORD	n/a	wordpools/wordpool_categorized_EN.txt	LEMONADE	Beverages	7	10	[0, 0, 0]	n/a	catFR1	0	R1423E
1282.392	0.783	1293297	WORD_OFF	n/a	n/a	LEMONADE	Beverages	7	10	[0, 0, 0]	n/a	catFR1	0	R1423E
1283.175	1.616	1294084	WORD	n/a	wordpools/wordpool_categorized_EN.txt	WINE	Beverages	8	10	[0, 0, 0]	n/a	catFR1	0	R1423E
1284.791	0.9	1295691	WORD_OFF	n/a	n/a	WINE	Beverages	8	10	[0, 0, 0]	n/a	catFR1	0	R1423E
1285.691	1.601	1296597	WORD	n/a	wordpools/wordpool_categorized_EN.txt	GRAPE	Fruit	9	10	[0, 0, 0]	n/a	catFR1	0	R1423E
1287.292	0.916	1298192	WORD_OFF	n/a	n/a	GRAPE	Fruit	9	10	[0, 0, 0]	n/a	catFR1	0	R1423E
1288.208	1.617	1299109	WORD	n/a	wordpools/wordpool_categorized_EN.txt	STRAWBERRY	Fruit	10	10	[0, 0, 0]	n/a	catFR1	0	R1423E
1289.825	0.917	1300726	WORD_OFF	n/a	n/a	STRAWBERRY	Fruit	10	10	[0, 0, 0]	n/a	catFR1	0	R1423E
1290.742	1.615	1301643	WORD	n/a	wordpools/wordpool_categorized_EN.txt	SUEDE	Fabric	11	10	[0, 0, 0]	n/a	catFR1	0	R1423E
1292.357	0.951	1303260	WORD_OFF	n/a	n/a	SUEDE	Fabric	11	10	[0, 0, 0]	n/a	catFR1	0	R1423E
1293.308	1.616	1304209	WORD	n/a	wordpools/wordpool_categorized_EN.txt	NYLON	Fabric	12	10	[0, 0, 0]	n/a	catFR1	0	R1423E
1294.924	0.001	1305826	WORD_OFF	n/a	n/a	NYLON	Fabric	12	10	[0, 0, 0]	n/a	catFR1	0	R1423E
1294.925	0.006	1305828	PROB	3.4	n/a	n/a	n/a	-999	10	[1, 7, 8]	16.0	catFR1	0	R1423E
1294.931	0.0	1305834	START	n/a	n/a	n/a	n/a	-999	10	[-999, -999, -999]	n/a	catFR1	0	R1423E
1294.931	0.0	1305837	ENCODING_END	n/a	n/a	n/a	n/a	-999	10	[0, 0, 0]	n/a	catFR1	0	R1423E
1294.931	3.412	1305837	DISTRACT_START	n/a	n/a	n/a	n/a	-999	10	[0, 0, 0]	n/a	catFR1	0	R1423E
1298.343	2.516	1309246	PROB	2.499	n/a	n/a	n/a	-999	10	[6, 3, 7]	16.0	catFR1	0	R1423E
1300.859	3.882	1311762	PROB	3.865	n/a	n/a	n/a	-999	10	[8, 6, 4]	18.0	catFR1	0	R1423E
1304.741	3.184	1315644	PROB	3.166	n/a	n/a	n/a	-999	10	[4, 2, 2]	8.0	catFR1	0	R1423E
1307.925	2.566	1318828	PROB	2.549	n/a	n/a	n/a	-999	10	[6, 2, 1]	9.0	catFR1	0	R1423E
1310.491	2.384	1321394	PROB	2.366	n/a	n/a	n/a	-999	10	[4, 3, 1]	8.0	catFR1	0	R1423E
1312.875	3.866	1323778	PROB	3.85	n/a	n/a	n/a	-999	10	[8, 7, 6]	21.0	catFR1	0	R1423E
1316.741	0.0	1327644	STOP	n/a	n/a	n/a	n/a	-999	10	[-999, -999, -999]	n/a	catFR1	0	R1423E
1316.741	2.267	1327650	DISTRACT_END	n/a	n/a	n/a	n/a	-999	10	[0, 0, 0]	n/a	catFR1	0	R1423E
1319.008	0.498	1329912	REC_START	n/a	n/a	n/a	n/a	-999	10	[0, 0, 0]	n/a	catFR1	0	R1423E
1319.506	1.062	1330409	REC_WORD	0.498	n/a	COLA	Beverages	1	10	[0, 0, 0]	n/a	catFR1	0	R1423E
1320.568	2.913	1331471	REC_WORD	1.56	n/a	ORANGE	Fruit	3	10	[0, 0, 0]	n/a	catFR1	0	R1423E
1323.481	0.993	1334384	REC_WORD	4.473	n/a	LEMON	Fruit	-999	10	[0, 0, 0]	n/a	catFR1	0	R1423E
1324.474	9.507	1335377	REC_WORD	5.466	n/a	STRAWBERRY	Fruit	10	10	[0, 0, 0]	n/a	catFR1	0	R1423E
1333.981	15.348	1344884	REC_WORD	14.973	n/a	LINEN	Fabric	-999	10	[0, 0, 0]	n/a	catFR1	0	R1423E
1349.329	1.894	1360235	REC_END	n/a	n/a	n/a	n/a	-999	10	[0, 0, 0]	n/a	catFR1	0	R1423E
1351.223	10.351	1362133	COUNTDOWN_START	n/a	n/a	n/a	n/a	-999	11	[0, 0, 0]	n/a	catFR1	0	R1423E
1361.574	0.0	1372484	COUNTDOWN_END	n/a	n/a	n/a	n/a	-999	11	[0, 0, 0]	n/a	catFR1	0	R1423E
1361.574	2.115	1372484	ENCODING_START	n/a	n/a	n/a	n/a	-999	11	[0, 0, 0]	n/a	catFR1	0	R1423E
1363.689	1.6	1374598	WORD	n/a	wordpools/wordpool_categorized_EN.txt	CIDER	Beverages	1	11	[0, 0, 0]	n/a	catFR1	0	R1423E
1365.289	0.95	1376194	WORD_OFF	n/a	n/a	CIDER	Beverages	1	11	[0, 0, 0]	n/a	catFR1	0	R1423E
1366.239	1.617	1377143	WORD	n/a	wordpools/wordpool_categorized_EN.txt	JUICE	Beverages	2	11	[0, 0, 0]	n/a	catFR1	0	R1423E
1367.856	0.866	1378760	WORD_OFF	n/a	n/a	JUICE	Beverages	2	11	[0, 0, 0]	n/a	catFR1	0	R1423E
1368.722	1.601	1379623	WORD	n/a	wordpools/wordpool_categorized_EN.txt	SKIRT	Clothing	3	11	[0, 0, 0]	n/a	catFR1	0	R1423E
1370.323	0.983	1381229	WORD_OFF	n/a	n/a	SKIRT	Clothing	3	11	[0, 0, 0]	n/a	catFR1	0	R1423E
1371.306	1.616	1382210	WORD	n/a	wordpools/wordpool_categorized_EN.txt	COAT	Clothing	4	11	[0, 0, 0]	n/a	catFR1	0	R1423E
1372.922	0.85	1383828	WORD_OFF	n/a	n/a	COAT	Clothing	4	11	[0, 0, 0]	n/a	catFR1	0	R1423E
1373.772	1.616	1384680	WORD	n/a	wordpools/wordpool_categorized_EN.txt	FINCH	Birds	5	11	[0, 0, 0]	n/a	catFR1	0	R1423E
1375.388	0.884	1386297	WORD_OFF	n/a	n/a	FINCH	Birds	5	11	[0, 0, 0]	n/a	catFR1	0	R1423E
1376.272	1.6	1387181	WORD	n/a	wordpools/wordpool_categorized_EN.txt	DOVE	Birds	6	11	[0, 0, 0]	n/a	catFR1	0	R1423E
1377.872	0.783	1388777	WORD_OFF	n/a	n/a	DOVE	Birds	6	11	[0, 0, 0]	n/a	catFR1	0	R1423E
1378.655	1.617	1389564	WORD	n/a	wordpools/wordpool_categorized_EN.txt	MILK	Beverages	7	11	[0, 0, 0]	n/a	catFR1	0	R1423E
1380.272	0.783	1391181	WORD_OFF	n/a	n/a	MILK	Beverages	7	11	[0, 0, 0]	n/a	catFR1	0	R1423E
1381.055	1.6	1391958	WORD	n/a	wordpools/wordpool_categorized_EN.txt	TEA	Beverages	8	11	[0, 0, 0]	n/a	catFR1	0	R1423E
1382.655	0.934	1393564	WORD_OFF	n/a	n/a	TEA	Beverages	8	11	[0, 0, 0]	n/a	catFR1	0	R1423E
1383.589	1.6	1394492	WORD	n/a	wordpools/wordpool_categorized_EN.txt	SHORTS	Clothing	9	11	[0, 0, 0]	n/a	catFR1	0	R1423E
1385.189	0.983	1396098	WORD_OFF	n/a	n/a	SHORTS	Clothing	9	11	[0, 0, 0]	n/a	catFR1	0	R1423E
1386.172	1.616	1397080	WORD	n/a	wordpools/wordpool_categorized_EN.txt	SHIRT	Clothing	10	11	[0, 0, 0]	n/a	catFR1	0	R1423E
1387.788	0.85	1398697	WORD_OFF	n/a	n/a	SHIRT	Clothing	10	11	[0, 0, 0]	n/a	catFR1	0	R1423E
1388.638	1.617	1399538	WORD	n/a	wordpools/wordpool_categorized_EN.txt	SPARROW	Birds	11	11	[0, 0, 0]	n/a	catFR1	0	R1423E
1390.255	0.95	1401155	WORD_OFF	n/a	n/a	SPARROW	Birds	11	11	[0, 0, 0]	n/a	catFR1	0	R1423E
1391.205	1.601	1402115	WORD	n/a	wordpools/wordpool_categorized_EN.txt	DUCK	Birds	12	11	[0, 0, 0]	n/a	catFR1	0	R1423E
1392.806	0.001	1403709	PROB	2.998	n/a	n/a	n/a	-999	11	[3, 7, 4]	14.0	catFR1	0	R1423E
1392.807	0.0	1403710	START	n/a	n/a	n/a	n/a	-999	11	[-999, -999, -999]	n/a	catFR1	0	R1423E
1392.806	0.001	1403711	WORD_OFF	n/a	n/a	DUCK	Birds	12	11	[0, 0, 0]	n/a	catFR1	0	R1423E
1392.807	0.0	1403711	ENCODING_END	n/a	n/a	n/a	n/a	-999	11	[0, 0, 0]	n/a	catFR1	0	R1423E
1392.807	3.015	1403711	DISTRACT_START	n/a	n/a	n/a	n/a	-999	11	[0, 0, 0]	n/a	catFR1	0	R1423E
1395.822	3.733	1406725	PROB	3.716	n/a	n/a	n/a	-999	11	[3, 2, 6]	11.0	catFR1	0	R1423E
1399.555	3.001	1410458	PROB	2.982	n/a	n/a	n/a	-999	11	[1, 4, 2]	7.0	catFR1	0	R1423E
1402.556	2.765	1413459	PROB	2.749	n/a	n/a	n/a	-999	11	[2, 4, 2]	9.0	catFR1	0	R1423E
1405.321	3.052	1416224	PROB	3.032	n/a	n/a	n/a	-999	11	[7, 7, 8]	22.0	catFR1	0	R1423E
1408.373	2.382	1419276	PROB	2.366	n/a	n/a	n/a	-999	11	[5, 5, 1]	11.0	catFR1	0	R1423E
1410.755	2.582	1421658	PROB	2.566	n/a	n/a	n/a	-999	11	[6, 4, 7]	17.0	catFR1	0	R1423E
1413.337	0.0	1424240	STOP	n/a	n/a	n/a	n/a	-999	11	[-999, -999, -999]	n/a	catFR1	0	R1423E
1413.337	2.267	1424241	DISTRACT_END	n/a	n/a	n/a	n/a	-999	11	[0, 0, 0]	n/a	catFR1	0	R1423E
1415.604	0.499	1426513	REC_START	n/a	n/a	n/a	n/a	-999	11	[0, 0, 0]	n/a	catFR1	0	R1423E
1416.103	1.221	1427006	REC_WORD	0.499	n/a	SKIRT	Clothing	3	11	[0, 0, 0]	n/a	catFR1	0	R1423E
1417.324	1.447	1428227	REC_WORD	1.72	n/a	COAT	Clothing	4	11	[0, 0, 0]	n/a	catFR1	0	R1423E
1418.771	12.934	1429674	REC_WORD	3.167	n/a	MILK	Beverages	7	11	[0, 0, 0]	n/a	catFR1	0	R1423E
1431.705	14.243	1442608	REC_WORD	16.101	n/a	SHIRT	Clothing	10	11	[0, 0, 0]	n/a	catFR1	0	R1423E
1445.948	1.954	1456858	REC_END	n/a	n/a	n/a	n/a	-999	11	[0, 0, 0]	n/a	catFR1	0	R1423E
1447.902	10.352	1458810	COUNTDOWN_START	n/a	n/a	n/a	n/a	-999	12	[0, 0, 0]	n/a	catFR1	0	R1423E
1458.254	0.0	1469161	COUNTDOWN_END	n/a	n/a	n/a	n/a	-999	12	[0, 0, 0]	n/a	catFR1	0	R1423E
1458.254	2.115	1469161	ENCODING_START	n/a	n/a	n/a	n/a	-999	12	[0, 0, 0]	n/a	catFR1	0	R1423E
1460.369	1.617	1471275	WORD	n/a	wordpools/wordpool_categorized_EN.txt	PANTS	Clothing	1	12	[0, 0, 0]	n/a	catFR1	0	R1423E
1461.986	0.933	1472892	WORD_OFF	n/a	n/a	PANTS	Clothing	1	12	[0, 0, 0]	n/a	catFR1	0	R1423E
1462.919	1.6	1473819	WORD	n/a	wordpools/wordpool_categorized_EN.txt	UNDERWEAR	Clothing	2	12	[0, 0, 0]	n/a	catFR1	0	R1423E
1464.519	0.784	1475426	WORD_OFF	n/a	n/a	UNDERWEAR	Clothing	2	12	[0, 0, 0]	n/a	catFR1	0	R1423E
1465.303	1.615	1476213	WORD	n/a	wordpools/wordpool_categorized_EN.txt	ELBOW	BodyParts	3	12	[0, 0, 0]	n/a	catFR1	0	R1423E
1466.918	0.917	1477820	WORD_OFF	n/a	n/a	ELBOW	BodyParts	3	12	[0, 0, 0]	n/a	catFR1	0	R1423E
1467.835	1.601	1478736	WORD	n/a	wordpools/wordpool_categorized_EN.txt	EYE	BodyParts	4	12	[0, 0, 0]	n/a	catFR1	0	R1423E
1469.436	0.866	1480343	WORD_OFF	n/a	n/a	EYE	BodyParts	4	12	[0, 0, 0]	n/a	catFR1	0	R1423E
1470.302	1.616	1481205	WORD	n/a	wordpools/wordpool_categorized_EN.txt	VELVET	Fabric	5	12	[0, 0, 0]	n/a	catFR1	0	R1423E
1471.918	0.968	1482823	WORD_OFF	n/a	n/a	VELVET	Fabric	5	12	[0, 0, 0]	n/a	catFR1	0	R1423E
1472.886	1.6	1483793	WORD	n/a	wordpools/wordpool_categorized_EN.txt	DENIM	Fabric	6	12	[0, 0, 0]	n/a	catFR1	0	R1423E
1474.486	0.883	1485389	WORD_OFF	n/a	n/a	DENIM	Fabric	6	12	[0, 0, 0]	n/a	catFR1	0	R1423E
1475.369	1.6	1486273	WORD	n/a	wordpools/wordpool_categorized_EN.txt	SOCKS	Clothing	7	12	[0, 0, 0]	n/a	catFR1	0	R1423E
1476.969	0.916	1487869	WORD_OFF	n/a	n/a	SOCKS	Clothing	7	12	[0, 0, 0]	n/a	catFR1	0	R1423E
1477.885	1.6	1488786	WORD	n/a	wordpools/wordpool_categorized_EN.txt	JACKET	Clothing	8	12	[0, 0, 0]	n/a	catFR1	0	R1423E
1479.485	0.933	1490392	WORD_OFF	n/a	n/a	JACKET	Clothing	8	12	[0, 0, 0]	n/a	catFR1	0	R1423E
1480.418	1.601	1491320	WORD	n/a	wordpools/wordpool_categorized_EN.txt	FLEECE	Fabric	9	12	[0, 0, 0]	n/a	catFR1	0	R1423E
1482.019	0.766	1492926	WORD_OFF	n/a	n/a	FLEECE	Fabric	9	12	[0, 0, 0]	n/a	catFR1	0	R1423E
1482.785	1.616	1493692	WORD	n/a	wordpools/wordpool_categorized_EN.txt	SATIN	Fabric	10	12	[0, 0, 0]	n/a	catFR1	0	R1423E
1484.401	0.984	1495309	WORD_OFF	n/a	n/a	SATIN	Fabric	10	12	[0, 0, 0]	n/a	catFR1	0	R1423E
1485.385	1.6	1496290	WORD	n/a	wordpools/wordpool_categorized_EN.txt	FOOT	BodyParts	11	12	[0, 0, 0]	n/a	catFR1	0	R1423E
1486.985	0.95	1497886	WORD_OFF	n/a	n/a	FOOT	BodyParts	11	12	[0, 0, 0]	n/a	catFR1	0	R1423E
1487.935	1.601	1498835	WORD	n/a	wordpools/wordpool_categorized_EN.txt	HAND	BodyParts	12	12	[0, 0, 0]	n/a	catFR1	0	R1423E
1489.536	0.001	1500439	PROB	4.982	n/a	n/a	n/a	-999	12	[4, 8, 6]	18.0	catFR1	0	R1423E
1489.537	0.0	1500440	START	n/a	n/a	n/a	n/a	-999	12	[-999, -999, -999]	n/a	catFR1	0	R1423E
1489.535	0.002	1500442	WORD_OFF	n/a	n/a	HAND	BodyParts	12	12	[0, 0, 0]	n/a	catFR1	0	R1423E
1489.537	0.0	1500442	ENCODING_END	n/a	n/a	n/a	n/a	-999	12	[0, 0, 0]	n/a	catFR1	0	R1423E
1489.537	4.997	1500442	DISTRACT_START	n/a	n/a	n/a	n/a	-999	12	[0, 0, 0]	n/a	catFR1	0	R1423E
1494.534	2.233	1505437	PROB	2.217	n/a	n/a	n/a	-999	12	[1, 1, 7]	9.0	catFR1	0	R1423E
1496.767	5.601	1507670	PROB	5.583	n/a	n/a	n/a	-999	12	[2, 5, 3]	10.0	catFR1	0	R1423E
1502.368	2.45	1513271	PROB	2.433	n/a	n/a	n/a	-999	12	[2, 3, 2]	7.0	catFR1	0	R1423E
1504.818	2.553	1515721	PROB	2.533	n/a	n/a	n/a	-999	12	[6, 3, 5]	14.0	catFR1	0	R1423E
1507.371	2.796	1518274	PROB	2.783	n/a	n/a	n/a	-999	12	[2, 8, 6]	16.0	catFR1	0	R1423E
1510.167	0.0	1521069	DISTRACT_END	n/a	n/a	n/a	n/a	-999	12	[0, 0, 0]	n/a	catFR1	0	R1423E
1510.167	2.084	1521070	STOP	n/a	n/a	n/a	n/a	-999	12	[-999, -999, -999]	n/a	catFR1	0	R1423E
1512.251	0.735	1523158	REC_START	n/a	n/a	n/a	n/a	-999	12	[0, 0, 0]	n/a	catFR1	0	R1423E
1512.986	1.657	1523889	REC_WORD	0.735	n/a	DENIM	Fabric	6	12	[0, 0, 0]	n/a	catFR1	0	R1423E
1514.643	2.323	1525546	REC_WORD	2.392	n/a	JACKET	Clothing	8	12	[0, 0, 0]	n/a	catFR1	0	R1423E
1516.966	25.627	1527869	REC_WORD	4.715	n/a	COAT	Clothing	-999	12	[0, 0, 0]	n/a	catFR1	0	R1423E
1542.593	0.0	1553503	REC_END	n/a	n/a	n/a	n/a	-999	12	[0, 0, 0]	n/a	catFR1	0	R1423E
