onset	duration	sample	trial_type	response_time	stim_file	item_name	category	serialpos	list	test	answer	experiment	session	subject
0.0	20.62	155266	SESS_START	n/a	n/a	n/a	n/a	-999	-999	[0, 0, 0]	n/a	catFR1	0	R1031M
20.62	10.428	165575	COUNTDOWN_START	n/a	n/a	n/a	n/a	-999	-999	[0, 0, 0]	n/a	catFR1	0	R1031M
31.048	3.958	170789	COUNTDOWN_END	n/a	n/a	n/a	n/a	-999	-999	[0, 0, 0]	n/a	catFR1	0	R1031M
35.006	2.584	172767	PRACTICE_WORD	n/a	n/a	RHINO	n/a	-999	-999	[0, 0, 0]	n/a	catFR1	0	R1031M
37.59	2.384	174059	PRACTICE_WORD	n/a	n/a	RING	n/a	-999	-999	[0, 0, 0]	n/a	catFR1	0	R1031M
39.974	2.4	175251	PRACTICE_WORD	n/a	n/a	FLOOD	n/a	-999	-999	[0, 0, 0]	n/a	catFR1	0	R1031M
42.374	2.551	176451	PRACTICE_WORD	n/a	n/a	TONGUE	n/a	-999	-999	[0, 0, 0]	n/a	catFR1	0	R1031M
44.925	2.567	177726	PRACTICE_WORD	n/a	n/a	IRON	n/a	-999	-999	[0, 0, 0]	n/a	catFR1	0	R1031M
47.492	2.551	179010	PRACTICE_WORD	n/a	n/a	ATTIC	n/a	-999	-999	[0, 0, 0]	n/a	catFR1	0	R1031M
50.043	2.4	180285	PRACTICE_WORD	n/a	n/a	CHEST	n/a	-999	-999	[0, 0, 0]	n/a	catFR1	0	R1031M
52.443	2.417	181485	PRACTICE_WORD	n/a	n/a	WAGON	n/a	-999	-999	[0, 0, 0]	n/a	catFR1	0	R1031M
54.86	2.567	182693	PRACTICE_WORD	n/a	n/a	BEAM	n/a	-999	-999	[0, 0, 0]	n/a	catFR1	0	R1031M
57.427	2.567	183977	PRACTICE_WORD	n/a	n/a	WATCH	n/a	-999	-999	[0, 0, 0]	n/a	catFR1	0	R1031M
59.994	2.618	185260	PRACTICE_WORD	n/a	n/a	COTTON	n/a	-999	-999	[0, 0, 0]	n/a	catFR1	0	R1031M
62.612	1.616	186569	PRACTICE_WORD	n/a	n/a	CAMEL	n/a	-999	-999	[0, 0, 0]	n/a	catFR1	0	R1031M
64.228	0.001	187377	PRACTICE_DISTRACT_START	n/a	n/a	n/a	n/a	-999	-999	[0, 0, 0]	n/a	catFR1	0	R1031M
64.229	0.016	187377	START	n/a	n/a	n/a	n/a	-999	-1	[-999, -999, -999]	n/a	catFR1	0	R1031M
64.245	10.569	187385	PROB	10.569	n/a	n/a	n/a	-999	-1	[4, 6, 7]	17	catFR1	0	R1031M
74.814	2.95	192669	PROB	2.95	n/a	n/a	n/a	-999	-1	[5, 2, 3]	10	catFR1	0	R1031M
77.764	2.584	194144	PROB	2.584	n/a	n/a	n/a	-999	-1	[6, 1, 2]	9	catFR1	0	R1031M
80.348	2.851	195436	PROB	2.851	n/a	n/a	n/a	-999	-1	[7, 9, 6]	22	catFR1	0	R1031M
83.199	2.836	196861	PROB	2.836	n/a	n/a	n/a	-999	-1	[3, 7, 4]	14	catFR1	0	R1031M
86.035	0.015	198279	STOP	n/a	n/a	n/a	n/a	-999	-1	[-999, -999, -999]	n/a	catFR1	0	R1031M
86.05	0.652	198287	PRACTICE_DISTRACT_END	n/a	n/a	n/a	n/a	-999	-999	[0, 0, 0]	n/a	catFR1	0	R1031M
86.702	30.514	198613	PRACTICE_REC_START	n/a	n/a	n/a	n/a	-999	-999	[0, 0, 0]	n/a	catFR1	0	R1031M
117.216	24.628	213868	PRACTICE_REC_END	n/a	n/a	n/a	n/a	-999	-999	[0, 0, 0]	n/a	catFR1	0	R1031M
141.844	0.0	226181	TRIAL	n/a	n/a	n/a	n/a	-999	1	[0, 0, 0]	n/a	catFR1	0	R1031M
141.844	10.428	226181	COUNTDOWN_START	n/a	n/a	n/a	n/a	-999	1	[0, 0, 0]	n/a	catFR1	0	R1031M
152.272	0.007	231394	COUNTDOWN_END	n/a	n/a	n/a	n/a	-999	1	[0, 0, 0]	n/a	catFR1	0	R1031M
152.279	3.484	231398	ORIENT	n/a	n/a	n/a	n/a	-999	1	[0, 0, 0]	n/a	catFR1	0	R1031M
155.763	2.534	233140	WORD	n/a	wordpools/wordpool_categorized_EN.txt	TUBA	Instruments	1	1	[0, 0, 0]	n/a	catFR1	0	R1031M
158.297	2.433	234407	WORD	n/a	wordpools/wordpool_categorized_EN.txt	TROMBONE	Instruments	2	1	[0, 0, 0]	n/a	catFR1	0	R1031M
160.73	2.501	235623	WORD	n/a	wordpools/wordpool_categorized_EN.txt	ORCHID	Flowers	3	1	[0, 0, 0]	n/a	catFR1	0	R1031M
163.231	2.551	236873	WORD	n/a	wordpools/wordpool_categorized_EN.txt	LILAC	Flowers	4	1	[0, 0, 0]	n/a	catFR1	0	R1031M
165.782	2.417	238149	WORD	n/a	wordpools/wordpool_categorized_EN.txt	CHEESECAKE	Desserts	5	1	[0, 0, 0]	n/a	catFR1	0	R1031M
168.199	2.45	239357	WORD	n/a	wordpools/wordpool_categorized_EN.txt	CUPCAKE	Desserts	6	1	[0, 0, 0]	n/a	catFR1	0	R1031M
170.649	2.535	240582	WORD	n/a	wordpools/wordpool_categorized_EN.txt	SUNFLOWER	Flowers	7	1	[0, 0, 0]	n/a	catFR1	0	R1031M
173.184	2.5	241849	WORD	n/a	wordpools/wordpool_categorized_EN.txt	MARIGOLD	Flowers	8	1	[0, 0, 0]	n/a	catFR1	0	R1031M
175.684	2.567	243099	WORD	n/a	wordpools/wordpool_categorized_EN.txt	GUITAR	Instruments	9	1	[0, 0, 0]	n/a	catFR1	0	R1031M
178.251	2.45	244383	WORD	n/a	wordpools/wordpool_categorized_EN.txt	CELLO	Instruments	10	1	[0, 0, 0]	n/a	catFR1	0	R1031M
180.701	2.584	245607	WORD	n/a	wordpools/wordpool_categorized_EN.txt	PIE	Desserts	11	1	[0, 0, 0]	n/a	catFR1	0	R1031M
183.285	1.617	246899	WORD	n/a	wordpools/wordpool_categorized_EN.txt	BROWNIES	Desserts	12	1	[0, 0, 0]	n/a	catFR1	0	R1031M
184.902	0.001	247708	DISTRACT_START	n/a	n/a	n/a	n/a	-999	1	[0, 0, 0]	n/a	catFR1	0	R1031M
184.903	0.016	247708	START	n/a	n/a	n/a	n/a	-999	1	[-999, -999, -999]	n/a	catFR1	0	R1031M
184.919	3.817	247716	PROB	3.817	n/a	n/a	n/a	-999	1	[8, 9, 4]	21	catFR1	0	R1031M
188.736	3.151	249624	PROB	3.151	n/a	n/a	n/a	-999	1	[4, 7, 6]	17	catFR1	0	R1031M
191.887	3.033	251200	PROB	3.033	n/a	n/a	n/a	-999	1	[3, 8, 9]	20	catFR1	0	R1031M
194.92	3.001	252716	PROB	3.001	n/a	n/a	n/a	-999	1	[9, 3, 9]	21	catFR1	0	R1031M
197.921	2.951	254216	PROB	2.951	n/a	n/a	n/a	-999	1	[6, 2, 2]	10	catFR1	0	R1031M
200.872	2.884	255692	PROB	2.884	n/a	n/a	n/a	-999	1	[7, 9, 7]	23	catFR1	0	R1031M
203.756	2.528	257134	PROB	2.528	n/a	n/a	n/a	-999	1	[3, 1, 7]	11	catFR1	0	R1031M
206.284	0.006	258398	STOP	n/a	n/a	n/a	n/a	-999	1	[-999, -999, -999]	n/a	catFR1	0	R1031M
206.29	1.084	258401	DISTRACT_END	n/a	n/a	n/a	n/a	-999	1	[0, 0, 0]	n/a	catFR1	0	R1031M
207.374	2.511	258942	REC_START	n/a	n/a	n/a	n/a	-999	1	[0, 0, 0]	n/a	catFR1	0	R1031M
209.885	1.393	260198	REC_WORD	1.393	n/a	CELLO	Instruments	10	1	[0, 0, 0]	n/a	catFR1	0	R1031M
211.278	3.509	260894	REC_WORD	3.509	n/a	GUITAR	Instruments	9	1	[0, 0, 0]	n/a	catFR1	0	R1031M
214.787	22.599	262649	REC_WORD	22.599	n/a	TUBA	Instruments	1	1	[0, 0, 0]	n/a	catFR1	0	R1031M
237.386	2.343	273947	REC_END	n/a	n/a	n/a	n/a	-999	1	[0, 0, 0]	n/a	catFR1	0	R1031M
239.729	0.001	275118	COUNTDOWN_START	n/a	n/a	n/a	n/a	-999	2	[0, 0, 0]	n/a	catFR1	0	R1031M
239.73	10.427	275119	TRIAL	n/a	n/a	n/a	n/a	-999	2	[0, 0, 0]	n/a	catFR1	0	R1031M
250.157	0.009	280332	COUNTDOWN_END	n/a	n/a	n/a	n/a	-999	2	[0, 0, 0]	n/a	catFR1	0	R1031M
250.166	3.633	280336	ORIENT	n/a	n/a	n/a	n/a	-999	2	[0, 0, 0]	n/a	catFR1	0	R1031M
253.799	2.517	282153	WORD	n/a	wordpools/wordpool_categorized_EN.txt	ZEBRA	Zoo	1	2	[0, 0, 0]	n/a	catFR1	0	R1031M
256.316	2.4	283411	WORD	n/a	wordpools/wordpool_categorized_EN.txt	BEAR	Zoo	2	2	[0, 0, 0]	n/a	catFR1	0	R1031M
258.716	2.501	284611	WORD	n/a	wordpools/wordpool_categorized_EN.txt	TAPE	OfficeSupplies	3	2	[0, 0, 0]	n/a	catFR1	0	R1031M
261.217	2.584	285861	WORD	n/a	wordpools/wordpool_categorized_EN.txt	FOLDER	OfficeSupplies	4	2	[0, 0, 0]	n/a	catFR1	0	R1031M
263.801	2.583	287153	WORD	n/a	wordpools/wordpool_categorized_EN.txt	HEAD	BodyParts	5	2	[0, 0, 0]	n/a	catFR1	0	R1031M
266.384	2.568	288444	WORD	n/a	wordpools/wordpool_categorized_EN.txt	FINGERS	BodyParts	6	2	[0, 0, 0]	n/a	catFR1	0	R1031M
268.952	2.533	289728	WORD	n/a	wordpools/wordpool_categorized_EN.txt	NOTEBOOK	OfficeSupplies	7	2	[0, 0, 0]	n/a	catFR1	0	R1031M
271.485	2.367	290995	WORD	n/a	wordpools/wordpool_categorized_EN.txt	PENCIL	OfficeSupplies	8	2	[0, 0, 0]	n/a	catFR1	0	R1031M
273.852	2.434	292178	WORD	n/a	wordpools/wordpool_categorized_EN.txt	LION	Zoo	9	2	[0, 0, 0]	n/a	catFR1	0	R1031M
276.286	2.434	293395	WORD	n/a	wordpools/wordpool_categorized_EN.txt	PANDA	Zoo	10	2	[0, 0, 0]	n/a	catFR1	0	R1031M
278.72	2.452	294612	WORD	n/a	wordpools/wordpool_categorized_EN.txt	ELBOW	BodyParts	11	2	[0, 0, 0]	n/a	catFR1	0	R1031M
281.172	1.616	295838	WORD	n/a	wordpools/wordpool_categorized_EN.txt	FOOT	BodyParts	12	2	[0, 0, 0]	n/a	catFR1	0	R1031M
282.788	0.001	296646	DISTRACT_START	n/a	n/a	n/a	n/a	-999	2	[0, 0, 0]	n/a	catFR1	0	R1031M
282.789	0.015	296646	START	n/a	n/a	n/a	n/a	-999	2	[-999, -999, -999]	n/a	catFR1	0	R1031M
282.804	4.568	296654	PROB	4.568	n/a	n/a	n/a	-999	2	[4, 8, 3]	15	catFR1	0	R1031M
287.372	2.685	298937	PROB	2.685	n/a	n/a	n/a	-999	2	[6, 4, 1]	11	catFR1	0	R1031M
290.057	4.1	300280	PROB	4.1	n/a	n/a	n/a	-999	2	[1, 5, 8]	14	catFR1	0	R1031M
294.157	3.918	302329	PROB	3.918	n/a	n/a	n/a	-999	2	[4, 9, 5]	18	catFR1	0	R1031M
298.075	2.633	304288	PROB	2.633	n/a	n/a	n/a	-999	2	[1, 8, 3]	12	catFR1	0	R1031M
300.708	2.656	305605	PROB	2.656	n/a	n/a	n/a	-999	2	[4, 3, 3]	10	catFR1	0	R1031M
303.364	0.011	306932	STOP	n/a	n/a	n/a	n/a	-999	2	[-999, -999, -999]	n/a	catFR1	0	R1031M
303.375	1.167	306938	DISTRACT_END	n/a	n/a	n/a	n/a	-999	2	[0, 0, 0]	n/a	catFR1	0	R1031M
304.542	1.962	307521	REC_START	n/a	n/a	n/a	n/a	-999	2	[0, 0, 0]	n/a	catFR1	0	R1031M
306.504	7.346	308502	REC_WORD	7.346	n/a	FINGERS	BodyParts	6	2	[0, 0, 0]	n/a	catFR1	0	R1031M
313.85	1.43	312175	REC_WORD	1.43	n/a	ZEBRA	Zoo	1	2	[0, 0, 0]	n/a	catFR1	0	R1031M
315.28	5.666	312890	REC_WORD	5.666	n/a	BEAR	Zoo	2	2	[0, 0, 0]	n/a	catFR1	0	R1031M
320.946	13.611	315723	REC_WORD	13.611	n/a	TAPE	OfficeSupplies	3	2	[0, 0, 0]	n/a	catFR1	0	R1031M
334.557	2.258	322527	REC_END	n/a	n/a	n/a	n/a	-999	2	[0, 0, 0]	n/a	catFR1	0	R1031M
336.815	0.0	323656	COUNTDOWN_START	n/a	n/a	n/a	n/a	-999	3	[0, 0, 0]	n/a	catFR1	0	R1031M
336.815	10.428	323656	TRIAL	n/a	n/a	n/a	n/a	-999	3	[0, 0, 0]	n/a	catFR1	0	R1031M
347.243	0.007	328870	COUNTDOWN_END	n/a	n/a	n/a	n/a	-999	3	[0, 0, 0]	n/a	catFR1	0	R1031M
347.25	3.651	328873	ORIENT	n/a	n/a	n/a	n/a	-999	3	[0, 0, 0]	n/a	catFR1	0	R1031M
350.901	2.6	330699	WORD	n/a	wordpools/wordpool_categorized_EN.txt	STRAINER	KitchenTools	1	3	[0, 0, 0]	n/a	catFR1	0	R1031M
353.501	2.384	331998	WORD	n/a	wordpools/wordpool_categorized_EN.txt	LADLE	KitchenTools	2	3	[0, 0, 0]	n/a	catFR1	0	R1031M
355.885	2.534	333190	WORD	n/a	wordpools/wordpool_categorized_EN.txt	LAKE	Landscapes	3	3	[0, 0, 0]	n/a	catFR1	0	R1031M
358.419	2.5	334457	WORD	n/a	wordpools/wordpool_categorized_EN.txt	CREEK	Landscapes	4	3	[0, 0, 0]	n/a	catFR1	0	R1031M
360.919	2.484	335707	WORD	n/a	wordpools/wordpool_categorized_EN.txt	BLOCKS	Toys	5	3	[0, 0, 0]	n/a	catFR1	0	R1031M
363.403	2.384	336949	WORD	n/a	wordpools/wordpool_categorized_EN.txt	BASEBALL	Toys	6	3	[0, 0, 0]	n/a	catFR1	0	R1031M
365.787	2.567	338141	WORD	n/a	wordpools/wordpool_categorized_EN.txt	TONGS	KitchenTools	7	3	[0, 0, 0]	n/a	catFR1	0	R1031M
368.354	2.417	339424	WORD	n/a	wordpools/wordpool_categorized_EN.txt	SPOON	KitchenTools	8	3	[0, 0, 0]	n/a	catFR1	0	R1031M
370.771	2.385	340632	WORD	n/a	wordpools/wordpool_categorized_EN.txt	BARBIE	Toys	9	3	[0, 0, 0]	n/a	catFR1	0	R1031M
373.156	2.533	341825	WORD	n/a	wordpools/wordpool_categorized_EN.txt	FRISBEE	Toys	10	3	[0, 0, 0]	n/a	catFR1	0	R1031M
375.689	2.584	343091	WORD	n/a	wordpools/wordpool_categorized_EN.txt	VALLEY	Landscapes	11	3	[0, 0, 0]	n/a	catFR1	0	R1031M
378.273	1.617	344383	WORD	n/a	wordpools/wordpool_categorized_EN.txt	WOODS	Landscapes	12	3	[0, 0, 0]	n/a	catFR1	0	R1031M
379.89	0.001	345191	DISTRACT_START	n/a	n/a	n/a	n/a	-999	3	[0, 0, 0]	n/a	catFR1	0	R1031M
379.891	0.015	345192	START	n/a	n/a	n/a	n/a	-999	3	[-999, -999, -999]	n/a	catFR1	0	R1031M
379.906	4.351	345199	PROB	4.351	n/a	n/a	n/a	-999	3	[9, 4, 8]	21	catFR1	0	R1031M
384.257	3.034	347375	PROB	3.034	n/a	n/a	n/a	-999	3	[6, 8, 3]	17	catFR1	0	R1031M
387.291	2.117	348892	PROB	2.117	n/a	n/a	n/a	-999	3	[1, 1, 1]	3	catFR1	0	R1031M
389.408	2.652	349950	PROB	2.652	n/a	n/a	n/a	-999	3	[9, 6, 2]	17	catFR1	0	R1031M
392.06	2.566	351276	PROB	2.566	n/a	n/a	n/a	-999	3	[7, 6, 8]	21	catFR1	0	R1031M
394.626	2.518	352559	PROB	2.518	n/a	n/a	n/a	-999	3	[8, 6, 7]	22	catFR1	0	R1031M
397.144	3.116	353818	PROB	3.116	n/a	n/a	n/a	-999	3	[3, 5, 8]	16	catFR1	0	R1031M
400.26	0.017	355375	STOP	n/a	n/a	n/a	n/a	-999	3	[-999, -999, -999]	n/a	catFR1	0	R1031M
400.277	1.085	355384	DISTRACT_END	n/a	n/a	n/a	n/a	-999	3	[0, 0, 0]	n/a	catFR1	0	R1031M
401.362	1.624	355926	REC_START	n/a	n/a	n/a	n/a	-999	3	[0, 0, 0]	n/a	catFR1	0	R1031M
402.986	2.258	356738	REC_WORD	2.258	n/a	BASEBALL	Toys	6	3	[0, 0, 0]	n/a	catFR1	0	R1031M
405.244	7.542	357867	REC_WORD	7.542	n/a	BLOCKS	Toys	5	3	[0, 0, 0]	n/a	catFR1	0	R1031M
412.786	18.587	361638	REC_WORD	18.587	n/a	WOODS	Landscapes	12	3	[0, 0, 0]	n/a	catFR1	0	R1031M
431.373	2.695	370930	REC_END	n/a	n/a	n/a	n/a	-999	3	[0, 0, 0]	n/a	catFR1	0	R1031M
434.068	0.0	372278	TRIAL	n/a	n/a	n/a	n/a	-999	4	[0, 0, 0]	n/a	catFR1	0	R1031M
434.068	10.428	372278	COUNTDOWN_START	n/a	n/a	n/a	n/a	-999	4	[0, 0, 0]	n/a	catFR1	0	R1031M
444.496	0.006	377491	COUNTDOWN_END	n/a	n/a	n/a	n/a	-999	4	[0, 0, 0]	n/a	catFR1	0	R1031M
444.502	3.602	377494	ORIENT	n/a	n/a	n/a	n/a	-999	4	[0, 0, 0]	n/a	catFR1	0	R1031M
448.104	2.566	379295	WORD	n/a	wordpools/wordpool_categorized_EN.txt	CABBAGE	Vegetables	1	4	[0, 0, 0]	n/a	catFR1	0	R1031M
450.67	2.518	380578	WORD	n/a	wordpools/wordpool_categorized_EN.txt	LETTUCE	Vegetables	2	4	[0, 0, 0]	n/a	catFR1	0	R1031M
453.188	2.516	381837	WORD	n/a	wordpools/wordpool_categorized_EN.txt	LIGHTNING	Weather	3	4	[0, 0, 0]	n/a	catFR1	0	R1031M
455.704	2.501	383095	WORD	n/a	wordpools/wordpool_categorized_EN.txt	TORNADO	Weather	4	4	[0, 0, 0]	n/a	catFR1	0	R1031M
458.205	2.6	384345	WORD	n/a	wordpools/wordpool_categorized_EN.txt	STAPLER	OfficeSupplies	5	4	[0, 0, 0]	n/a	catFR1	0	R1031M
460.805	2.418	385645	WORD	n/a	wordpools/wordpool_categorized_EN.txt	PEN	OfficeSupplies	6	4	[0, 0, 0]	n/a	catFR1	0	R1031M
463.223	2.533	386854	WORD	n/a	wordpools/wordpool_categorized_EN.txt	SNOW	Weather	7	4	[0, 0, 0]	n/a	catFR1	0	R1031M
465.756	2.402	388120	WORD	n/a	wordpools/wordpool_categorized_EN.txt	FOG	Weather	8	4	[0, 0, 0]	n/a	catFR1	0	R1031M
468.158	2.533	389321	WORD	n/a	wordpools/wordpool_categorized_EN.txt	CUCUMBER	Vegetables	9	4	[0, 0, 0]	n/a	catFR1	0	R1031M
470.691	2.451	390587	WORD	n/a	wordpools/wordpool_categorized_EN.txt	CARROT	Vegetables	10	4	[0, 0, 0]	n/a	catFR1	0	R1031M
473.142	2.483	391813	WORD	n/a	wordpools/wordpool_categorized_EN.txt	MARKER	OfficeSupplies	11	4	[0, 0, 0]	n/a	catFR1	0	R1031M
475.625	1.617	393054	WORD	n/a	wordpools/wordpool_categorized_EN.txt	GLUE	OfficeSupplies	12	4	[0, 0, 0]	n/a	catFR1	0	R1031M
477.242	0.001	393862	DISTRACT_START	n/a	n/a	n/a	n/a	-999	4	[0, 0, 0]	n/a	catFR1	0	R1031M
477.243	0.016	393863	START	n/a	n/a	n/a	n/a	-999	4	[-999, -999, -999]	n/a	catFR1	0	R1031M
477.259	3.5	393871	PROB	3.5	n/a	n/a	n/a	-999	4	[9, 7, 1]	17	catFR1	0	R1031M
480.759	3.051	395621	PROB	3.051	n/a	n/a	n/a	-999	4	[9, 6, 7]	22	catFR1	0	R1031M
483.81	3.268	397146	PROB	3.268	n/a	n/a	n/a	-999	4	[9, 8, 3]	20	catFR1	0	R1031M
487.078	4.051	398780	PROB	4.051	n/a	n/a	n/a	-999	4	[8, 3, 4]	15	catFR1	0	R1031M
491.129	2.8	400805	PROB	2.8	n/a	n/a	n/a	-999	4	[7, 4, 8]	19	catFR1	0	R1031M
493.929	2.583	402205	PROB	2.583	n/a	n/a	n/a	-999	4	[5, 3, 4]	12	catFR1	0	R1031M
496.512	2.924	403496	PROB	2.924	n/a	n/a	n/a	-999	4	[8, 8, 2]	18	catFR1	0	R1031M
499.436	0.01	404958	STOP	n/a	n/a	n/a	n/a	-999	4	[-999, -999, -999]	n/a	catFR1	0	R1031M
499.446	1.051	404963	DISTRACT_END	n/a	n/a	n/a	n/a	-999	4	[0, 0, 0]	n/a	catFR1	0	R1031M
500.497	2.084	405489	REC_START	n/a	n/a	n/a	n/a	-999	4	[0, 0, 0]	n/a	catFR1	0	R1031M
502.581	4.477	406531	REC_WORD	4.477	n/a	CUCUMBER	Vegetables	9	4	[0, 0, 0]	n/a	catFR1	0	R1031M
507.058	1.4	408769	REC_WORD	1.4	n/a	TORNADO	Weather	4	4	[0, 0, 0]	n/a	catFR1	0	R1031M
508.458	4.957	409469	REC_WORD	4.957	n/a	FOG	Weather	8	4	[0, 0, 0]	n/a	catFR1	0	R1031M
513.415	11.22	411947	REC_WORD	11.22	n/a	LIGHTNING	Weather	3	4	[0, 0, 0]	n/a	catFR1	0	R1031M
524.635	2.269	417556	REC_WORD	2.269	n/a	LETTUCE	Vegetables	2	4	[0, 0, 0]	n/a	catFR1	0	R1031M
526.904	3.604	418691	REC_WORD	3.604	n/a	CELERY	n/a	-999	4	[0, 0, 0]	n/a	catFR1	0	R1031M
530.508	4.211	420493	REC_END	n/a	n/a	n/a	n/a	-999	4	[0, 0, 0]	n/a	catFR1	0	R1031M
534.719	0.001	422598	COUNTDOWN_START	n/a	n/a	n/a	n/a	-999	5	[0, 0, 0]	n/a	catFR1	0	R1031M
534.72	10.427	422598	TRIAL	n/a	n/a	n/a	n/a	-999	5	[0, 0, 0]	n/a	catFR1	0	R1031M
545.147	0.009	427811	COUNTDOWN_END	n/a	n/a	n/a	n/a	-999	5	[0, 0, 0]	n/a	catFR1	0	R1031M
545.156	3.866	427816	ORIENT	n/a	n/a	n/a	n/a	-999	5	[0, 0, 0]	n/a	catFR1	0	R1031M
549.022	2.418	429749	WORD	n/a	wordpools/wordpool_categorized_EN.txt	EVERGREEN	Trees	1	5	[0, 0, 0]	n/a	catFR1	0	R1031M
551.44	2.583	430958	WORD	n/a	wordpools/wordpool_categorized_EN.txt	BIRCH	Trees	2	5	[0, 0, 0]	n/a	catFR1	0	R1031M
554.023	2.401	432249	WORD	n/a	wordpools/wordpool_categorized_EN.txt	COAT	Clothing	3	5	[0, 0, 0]	n/a	catFR1	0	R1031M
556.424	2.55	433449	WORD	n/a	wordpools/wordpool_categorized_EN.txt	SKIRT	Clothing	4	5	[0, 0, 0]	n/a	catFR1	0	R1031M
558.974	2.568	434724	WORD	n/a	wordpools/wordpool_categorized_EN.txt	NOSE	BodyParts	5	5	[0, 0, 0]	n/a	catFR1	0	R1031M
561.542	2.4	436008	WORD	n/a	wordpools/wordpool_categorized_EN.txt	LEG	BodyParts	6	5	[0, 0, 0]	n/a	catFR1	0	R1031M
563.942	2.451	437208	WORD	n/a	wordpools/wordpool_categorized_EN.txt	HICKORY	Trees	7	5	[0, 0, 0]	n/a	catFR1	0	R1031M
566.393	2.517	438433	WORD	n/a	wordpools/wordpool_categorized_EN.txt	SPRUCE	Trees	8	5	[0, 0, 0]	n/a	catFR1	0	R1031M
568.91	2.567	439692	WORD	n/a	wordpools/wordpool_categorized_EN.txt	HAND	BodyParts	9	5	[0, 0, 0]	n/a	catFR1	0	R1031M
571.477	2.5	440975	WORD	n/a	wordpools/wordpool_categorized_EN.txt	KNEE	BodyParts	10	5	[0, 0, 0]	n/a	catFR1	0	R1031M
573.977	2.617	442225	WORD	n/a	wordpools/wordpool_categorized_EN.txt	JEANS	Clothing	11	5	[0, 0, 0]	n/a	catFR1	0	R1031M
576.594	1.602	443533	WORD	n/a	wordpools/wordpool_categorized_EN.txt	SHIRT	Clothing	12	5	[0, 0, 0]	n/a	catFR1	0	R1031M
578.196	0.0	444334	DISTRACT_START	n/a	n/a	n/a	n/a	-999	5	[0, 0, 0]	n/a	catFR1	0	R1031M
578.196	0.015	444334	START	n/a	n/a	n/a	n/a	-999	5	[-999, -999, -999]	n/a	catFR1	0	R1031M
578.211	3.134	444342	PROB	3.134	n/a	n/a	n/a	-999	5	[2, 2, 7]	11	catFR1	0	R1031M
581.345	2.735	445908	PROB	2.735	n/a	n/a	n/a	-999	5	[7, 3, 2]	12	catFR1	0	R1031M
584.08	3.084	447276	PROB	3.084	n/a	n/a	n/a	-999	5	[4, 3, 4]	11	catFR1	0	R1031M
587.164	2.7	448818	PROB	2.7	n/a	n/a	n/a	-999	5	[8, 2, 4]	14	catFR1	0	R1031M
589.864	2.567	450168	PROB	2.567	n/a	n/a	n/a	-999	5	[5, 2, 1]	8	catFR1	0	R1031M
592.431	2.751	451451	PROB	2.751	n/a	n/a	n/a	-999	5	[7, 7, 8]	22	catFR1	0	R1031M
595.182	2.833	452826	PROB	2.833	n/a	n/a	n/a	-999	5	[1, 2, 2]	5	catFR1	0	R1031M
598.015	2.765	454243	PROB	2.765	n/a	n/a	n/a	-999	5	[5, 2, 2]	9	catFR1	0	R1031M
600.78	0.019	455625	STOP	n/a	n/a	n/a	n/a	-999	5	[-999, -999, -999]	n/a	catFR1	0	R1031M
600.799	1.168	455634	DISTRACT_END	n/a	n/a	n/a	n/a	-999	5	[0, 0, 0]	n/a	catFR1	0	R1031M
601.967	1.034	456218	REC_START	n/a	n/a	n/a	n/a	-999	5	[0, 0, 0]	n/a	catFR1	0	R1031M
603.001	1.074	456735	REC_WORD	1.074	n/a	EVERGREEN	Trees	1	5	[0, 0, 0]	n/a	catFR1	0	R1031M
604.075	1.58	457272	REC_WORD	1.58	n/a	SPRUCE	Trees	8	5	[0, 0, 0]	n/a	catFR1	0	R1031M
605.655	5.777	458062	REC_WORD	5.777	n/a	BIRCH	Trees	2	5	[0, 0, 0]	n/a	catFR1	0	R1031M
611.432	0.808	460950	REC_WORD	0.808	n/a	ELBOW	n/a	-999	5	[0, 0, 0]	n/a	catFR1	0	R1031M
612.24	5.828	461354	REC_WORD	5.828	n/a	KNEE	BodyParts	10	5	[0, 0, 0]	n/a	catFR1	0	R1031M
618.068	0.82	464268	REC_WORD	0.82	n/a	SHIRT	Clothing	12	5	[0, 0, 0]	n/a	catFR1	0	R1031M
618.888	13.091	464678	REC_WORD	13.091	n/a	JEANS	Clothing	11	5	[0, 0, 0]	n/a	catFR1	0	R1031M
631.979	3.86	471223	REC_END	n/a	n/a	n/a	n/a	-999	5	[0, 0, 0]	n/a	catFR1	0	R1031M
635.839	0.001	473153	COUNTDOWN_START	n/a	n/a	n/a	n/a	-999	6	[0, 0, 0]	n/a	catFR1	0	R1031M
635.84	10.427	473153	TRIAL	n/a	n/a	n/a	n/a	-999	6	[0, 0, 0]	n/a	catFR1	0	R1031M
646.267	0.008	478366	COUNTDOWN_END	n/a	n/a	n/a	n/a	-999	6	[0, 0, 0]	n/a	catFR1	0	R1031M
646.275	3.617	478370	ORIENT	n/a	n/a	n/a	n/a	-999	6	[0, 0, 0]	n/a	catFR1	0	R1031M
649.892	2.4	480178	WORD	n/a	wordpools/wordpool_categorized_EN.txt	RULER	OfficeSupplies	1	6	[0, 0, 0]	n/a	catFR1	0	R1031M
652.292	2.534	481378	WORD	n/a	wordpools/wordpool_categorized_EN.txt	ERASER	OfficeSupplies	2	6	[0, 0, 0]	n/a	catFR1	0	R1031M
654.826	2.467	482645	WORD	n/a	wordpools/wordpool_categorized_EN.txt	HALLWAY	Building	3	6	[0, 0, 0]	n/a	catFR1	0	R1031M
657.293	2.384	483879	WORD	n/a	wordpools/wordpool_categorized_EN.txt	ROOF	Building	4	6	[0, 0, 0]	n/a	catFR1	0	R1031M
659.677	2.402	485070	WORD	n/a	wordpools/wordpool_categorized_EN.txt	PLANE	Vehicles	5	6	[0, 0, 0]	n/a	catFR1	0	R1031M
662.079	2.499	486271	WORD	n/a	wordpools/wordpool_categorized_EN.txt	TRUCK	Vehicles	6	6	[0, 0, 0]	n/a	catFR1	0	R1031M
664.578	2.485	487521	WORD	n/a	wordpools/wordpool_categorized_EN.txt	FOUNDATION	Building	7	6	[0, 0, 0]	n/a	catFR1	0	R1031M
667.063	2.533	488763	WORD	n/a	wordpools/wordpool_categorized_EN.txt	FLOOR	Building	8	6	[0, 0, 0]	n/a	catFR1	0	R1031M
669.596	2.585	490029	WORD	n/a	wordpools/wordpool_categorized_EN.txt	PAPER	OfficeSupplies	9	6	[0, 0, 0]	n/a	catFR1	0	R1031M
672.181	2.432	491322	WORD	n/a	wordpools/wordpool_categorized_EN.txt	BINDER	OfficeSupplies	10	6	[0, 0, 0]	n/a	catFR1	0	R1031M
674.613	2.401	492538	WORD	n/a	wordpools/wordpool_categorized_EN.txt	SCOOTER	Vehicles	11	6	[0, 0, 0]	n/a	catFR1	0	R1031M
677.014	1.617	493738	WORD	n/a	wordpools/wordpool_categorized_EN.txt	MOTORCYCLE	Vehicles	12	6	[0, 0, 0]	n/a	catFR1	0	R1031M
678.631	0.001	494546	DISTRACT_START	n/a	n/a	n/a	n/a	-999	6	[0, 0, 0]	n/a	catFR1	0	R1031M
678.632	0.015	494547	START	n/a	n/a	n/a	n/a	-999	6	[-999, -999, -999]	n/a	catFR1	0	R1031M
678.647	4.018	494554	PROB	4.018	n/a	n/a	n/a	-999	6	[5, 8, 6]	19	catFR1	0	R1031M
682.665	3.468	496563	PROB	3.468	n/a	n/a	n/a	-999	6	[7, 7, 5]	19	catFR1	0	R1031M
686.133	3.051	498297	PROB	3.051	n/a	n/a	n/a	-999	6	[2, 9, 8]	19	catFR1	0	R1031M
689.184	2.917	499822	PROB	2.917	n/a	n/a	n/a	-999	6	[1, 3, 3]	7	catFR1	0	R1031M
692.101	2.5	501281	PROB	2.5	n/a	n/a	n/a	-999	6	[1, 2, 5]	8	catFR1	0	R1031M
694.601	3.75	502531	PROB	3.75	n/a	n/a	n/a	-999	6	[4, 3, 6]	13	catFR1	0	R1031M
698.351	2.445	504405	PROB	2.445	n/a	n/a	n/a	-999	6	[1, 1, 2]	4	catFR1	0	R1031M
700.796	0.006	505628	STOP	n/a	n/a	n/a	n/a	-999	6	[-999, -999, -999]	n/a	catFR1	0	R1031M
700.802	1.051	505631	DISTRACT_END	n/a	n/a	n/a	n/a	-999	6	[0, 0, 0]	n/a	catFR1	0	R1031M
701.853	1.328	506156	REC_START	n/a	n/a	n/a	n/a	-999	6	[0, 0, 0]	n/a	catFR1	0	R1031M
703.181	1.01	506820	REC_WORD	1.01	n/a	MOTORCYCLE	Vehicles	12	6	[0, 0, 0]	n/a	catFR1	0	R1031M
704.191	27.674	507325	REC_WORD	27.674	n/a	SCOOTER	Vehicles	11	6	[0, 0, 0]	n/a	catFR1	0	R1031M
731.865	3.96	521161	REC_END	n/a	n/a	n/a	n/a	-999	6	[0, 0, 0]	n/a	catFR1	0	R1031M
735.825	0.0	523140	TRIAL	n/a	n/a	n/a	n/a	-999	7	[0, 0, 0]	n/a	catFR1	0	R1031M
735.825	10.428	523140	COUNTDOWN_START	n/a	n/a	n/a	n/a	-999	7	[0, 0, 0]	n/a	catFR1	0	R1031M
746.253	0.008	528354	COUNTDOWN_END	n/a	n/a	n/a	n/a	-999	7	[0, 0, 0]	n/a	catFR1	0	R1031M
746.261	3.667	528358	ORIENT	n/a	n/a	n/a	n/a	-999	7	[0, 0, 0]	n/a	catFR1	0	R1031M
749.928	2.517	530191	WORD	n/a	wordpools/wordpool_categorized_EN.txt	CROWBAR	Tools	1	7	[0, 0, 0]	n/a	catFR1	0	R1031M
752.445	2.401	531450	WORD	n/a	wordpools/wordpool_categorized_EN.txt	SHOVEL	Tools	2	7	[0, 0, 0]	n/a	catFR1	0	R1031M
754.846	2.533	532650	WORD	n/a	wordpools/wordpool_categorized_EN.txt	TOE	BodyParts	3	7	[0, 0, 0]	n/a	catFR1	0	R1031M
757.379	2.534	533916	WORD	n/a	wordpools/wordpool_categorized_EN.txt	EYE	BodyParts	4	7	[0, 0, 0]	n/a	catFR1	0	R1031M
759.913	2.384	535183	WORD	n/a	wordpools/wordpool_categorized_EN.txt	APPLE	Fruit	5	7	[0, 0, 0]	n/a	catFR1	0	R1031M
762.297	2.534	536375	WORD	n/a	wordpools/wordpool_categorized_EN.txt	PLUM	Fruit	6	7	[0, 0, 0]	n/a	catFR1	0	R1031M
764.831	2.6	537642	WORD	n/a	wordpools/wordpool_categorized_EN.txt	SAW	Tools	7	7	[0, 0, 0]	n/a	catFR1	0	R1031M
767.431	2.484	538942	WORD	n/a	wordpools/wordpool_categorized_EN.txt	AXE	Tools	8	7	[0, 0, 0]	n/a	catFR1	0	R1031M
769.915	2.434	540184	WORD	n/a	wordpools/wordpool_categorized_EN.txt	BANANA	Fruit	9	7	[0, 0, 0]	n/a	catFR1	0	R1031M
772.349	2.467	541401	WORD	n/a	wordpools/wordpool_categorized_EN.txt	PEAR	Fruit	10	7	[0, 0, 0]	n/a	catFR1	0	R1031M
774.816	2.617	542634	WORD	n/a	wordpools/wordpool_categorized_EN.txt	ARM	BodyParts	11	7	[0, 0, 0]	n/a	catFR1	0	R1031M
777.433	1.618	543942	WORD	n/a	wordpools/wordpool_categorized_EN.txt	EAR	BodyParts	12	7	[0, 0, 0]	n/a	catFR1	0	R1031M
779.051	0.002	544751	DISTRACT_START	n/a	n/a	n/a	n/a	-999	7	[0, 0, 0]	n/a	catFR1	0	R1031M
779.053	0.015	544752	START	n/a	n/a	n/a	n/a	-999	7	[-999, -999, -999]	n/a	catFR1	0	R1031M
779.068	4.084	544760	PROB	4.084	n/a	n/a	n/a	-999	7	[2, 8, 9]	19	catFR1	0	R1031M
783.152	3.183	546801	PROB	3.183	n/a	n/a	n/a	-999	7	[7, 2, 7]	16	catFR1	0	R1031M
786.335	2.884	548393	PROB	2.884	n/a	n/a	n/a	-999	7	[7, 1, 5]	13	catFR1	0	R1031M
789.219	2.55	549835	PROB	2.55	n/a	n/a	n/a	-999	7	[3, 2, 4]	9	catFR1	0	R1031M
791.769	3.251	551110	PROB	3.251	n/a	n/a	n/a	-999	7	[3, 5, 6]	14	catFR1	0	R1031M
795.02	3.017	552735	PROB	3.017	n/a	n/a	n/a	-999	7	[3, 4, 3]	10	catFR1	0	R1031M
798.037	2.791	554243	PROB	2.791	n/a	n/a	n/a	-999	7	[9, 9, 4]	22	catFR1	0	R1031M
800.828	0.01	555639	STOP	n/a	n/a	n/a	n/a	-999	7	[-999, -999, -999]	n/a	catFR1	0	R1031M
800.838	1.117	555644	DISTRACT_END	n/a	n/a	n/a	n/a	-999	7	[0, 0, 0]	n/a	catFR1	0	R1031M
801.955	1.934	556202	REC_START	n/a	n/a	n/a	n/a	-999	7	[0, 0, 0]	n/a	catFR1	0	R1031M
803.889	1.673	557169	REC_WORD	1.673	n/a	TOE	BodyParts	3	7	[0, 0, 0]	n/a	catFR1	0	R1031M
805.562	2.377	558005	REC_WORD	2.377	n/a	ARM	BodyParts	11	7	[0, 0, 0]	n/a	catFR1	0	R1031M
807.939	2.807	559194	REC_WORD	2.807	n/a	EYE	BodyParts	4	7	[0, 0, 0]	n/a	catFR1	0	R1031M
810.746	7.264	560597	REC_WORD	7.264	n/a	LEG	n/a	-999	7	[0, 0, 0]	n/a	catFR1	0	R1031M
818.01	1.663	564229	REC_WORD	1.663	n/a	CROWBAR	Tools	1	7	[0, 0, 0]	n/a	catFR1	0	R1031M
819.673	5.11	565060	REC_WORD	5.11	n/a	AXE	Tools	8	7	[0, 0, 0]	n/a	catFR1	0	R1031M
824.783	1.916	567615	REC_WORD	1.916	n/a	APPLE	Fruit	5	7	[0, 0, 0]	n/a	catFR1	0	R1031M
826.699	5.271	568573	REC_WORD	5.271	n/a	PEAR	Fruit	10	7	[0, 0, 0]	n/a	catFR1	0	R1031M
831.97	2.908	571208	REC_END	n/a	n/a	n/a	n/a	-999	7	[0, 0, 0]	n/a	catFR1	0	R1031M
834.878	0.0	572662	COUNTDOWN_START	n/a	n/a	n/a	n/a	-999	8	[0, 0, 0]	n/a	catFR1	0	R1031M
834.878	10.428	572662	TRIAL	n/a	n/a	n/a	n/a	-999	8	[0, 0, 0]	n/a	catFR1	0	R1031M
845.306	0.007	577875	COUNTDOWN_END	n/a	n/a	n/a	n/a	-999	8	[0, 0, 0]	n/a	catFR1	0	R1031M
845.313	3.701	577879	ORIENT	n/a	n/a	n/a	n/a	-999	8	[0, 0, 0]	n/a	catFR1	0	R1031M
849.014	2.484	579729	WORD	n/a	wordpools/wordpool_categorized_EN.txt	BEACH	Landscapes	1	8	[0, 0, 0]	n/a	catFR1	0	R1031M
851.498	2.467	580971	WORD	n/a	wordpools/wordpool_categorized_EN.txt	MOUNTAIN	Landscapes	2	8	[0, 0, 0]	n/a	catFR1	0	R1031M
853.965	2.467	582204	WORD	n/a	wordpools/wordpool_categorized_EN.txt	COOKIE	Desserts	3	8	[0, 0, 0]	n/a	catFR1	0	R1031M
856.432	2.584	583438	WORD	n/a	wordpools/wordpool_categorized_EN.txt	PUDDING	Desserts	4	8	[0, 0, 0]	n/a	catFR1	0	R1031M
859.016	2.6	584730	WORD	n/a	wordpools/wordpool_categorized_EN.txt	SOFA	Furniture	5	8	[0, 0, 0]	n/a	catFR1	0	R1031M
861.616	2.468	586029	WORD	n/a	wordpools/wordpool_categorized_EN.txt	RECLINER	Furniture	6	8	[0, 0, 0]	n/a	catFR1	0	R1031M
864.084	2.433	587263	WORD	n/a	wordpools/wordpool_categorized_EN.txt	ISLAND	Landscapes	7	8	[0, 0, 0]	n/a	catFR1	0	R1031M
866.517	2.501	588480	WORD	n/a	wordpools/wordpool_categorized_EN.txt	OCEAN	Landscapes	8	8	[0, 0, 0]	n/a	catFR1	0	R1031M
869.018	2.517	589730	WORD	n/a	wordpools/wordpool_categorized_EN.txt	BOOKCASE	Furniture	9	8	[0, 0, 0]	n/a	catFR1	0	R1031M
871.535	2.535	590988	WORD	n/a	wordpools/wordpool_categorized_EN.txt	BED	Furniture	10	8	[0, 0, 0]	n/a	catFR1	0	R1031M
874.07	2.416	592256	WORD	n/a	wordpools/wordpool_categorized_EN.txt	PASTRY	Desserts	11	8	[0, 0, 0]	n/a	catFR1	0	R1031M
876.486	1.618	593464	WORD	n/a	wordpools/wordpool_categorized_EN.txt	JELLO	Desserts	12	8	[0, 0, 0]	n/a	catFR1	0	R1031M
878.104	0.001	594273	DISTRACT_START	n/a	n/a	n/a	n/a	-999	8	[0, 0, 0]	n/a	catFR1	0	R1031M
878.105	0.015	594273	START	n/a	n/a	n/a	n/a	-999	8	[-999, -999, -999]	n/a	catFR1	0	R1031M
878.12	3.55	594281	PROB	3.55	n/a	n/a	n/a	-999	8	[3, 7, 5]	15	catFR1	0	R1031M
881.67	3.301	596055	PROB	3.301	n/a	n/a	n/a	-999	8	[7, 1, 3]	11	catFR1	0	R1031M
884.971	3.784	597706	PROB	3.784	n/a	n/a	n/a	-999	8	[9, 4, 5]	18	catFR1	0	R1031M
888.755	3.2	599597	PROB	3.2	n/a	n/a	n/a	-999	8	[6, 2, 7]	15	catFR1	0	R1031M
891.955	2.468	601197	PROB	2.468	n/a	n/a	n/a	-999	8	[1, 9, 2]	12	catFR1	0	R1031M
894.423	2.85	602431	PROB	2.85	n/a	n/a	n/a	-999	8	[3, 7, 5]	15	catFR1	0	R1031M
897.273	8.403	603856	PROB	8.403	n/a	n/a	n/a	-999	8	[2, 5, 9]	13	catFR1	0	R1031M
905.676	0.015	608057	STOP	n/a	n/a	n/a	n/a	-999	8	[-999, -999, -999]	n/a	catFR1	0	R1031M
905.691	1.068	608065	DISTRACT_END	n/a	n/a	n/a	n/a	-999	8	[0, 0, 0]	n/a	catFR1	0	R1031M
906.759	4.852	608599	REC_START	n/a	n/a	n/a	n/a	-999	8	[0, 0, 0]	n/a	catFR1	0	R1031M
911.611	25.16	611024	REC_WORD_VV	25.16	n/a	<>	n/a	-999	8	[0, 0, 0]	n/a	catFR1	0	R1031M
936.771	42.269	623603	REC_END	n/a	n/a	n/a	n/a	-999	8	[0, 0, 0]	n/a	catFR1	0	R1031M
979.04	0.0	644735	TRIAL	n/a	n/a	n/a	n/a	-999	9	[0, 0, 0]	n/a	catFR1	0	R1031M
979.04	10.428	644735	COUNTDOWN_START	n/a	n/a	n/a	n/a	-999	9	[0, 0, 0]	n/a	catFR1	0	R1031M
989.468	0.006	649949	COUNTDOWN_END	n/a	n/a	n/a	n/a	-999	9	[0, 0, 0]	n/a	catFR1	0	R1031M
989.474	3.451	649952	ORIENT	n/a	n/a	n/a	n/a	-999	9	[0, 0, 0]	n/a	catFR1	0	R1031M
992.925	2.5	651677	WORD	n/a	wordpools/wordpool_categorized_EN.txt	DOOR	Building	1	9	[0, 0, 0]	n/a	catFR1	0	R1031M
995.425	2.601	652927	WORD	n/a	wordpools/wordpool_categorized_EN.txt	BATHROOM	Building	2	9	[0, 0, 0]	n/a	catFR1	0	R1031M
998.026	2.434	654227	WORD	n/a	wordpools/wordpool_categorized_EN.txt	CARDINAL	Birds	3	9	[0, 0, 0]	n/a	catFR1	0	R1031M
1000.46	2.55	655444	WORD	n/a	wordpools/wordpool_categorized_EN.txt	GOOSE	Birds	4	9	[0, 0, 0]	n/a	catFR1	0	R1031M
1003.01	2.534	656719	WORD	n/a	wordpools/wordpool_categorized_EN.txt	ROSE	Flowers	5	9	[0, 0, 0]	n/a	catFR1	0	R1031M
1005.544	2.535	657986	WORD	n/a	wordpools/wordpool_categorized_EN.txt	DAISY	Flowers	6	9	[0, 0, 0]	n/a	catFR1	0	R1031M
1008.079	2.416	659253	WORD	n/a	wordpools/wordpool_categorized_EN.txt	ROOM	Building	7	9	[0, 0, 0]	n/a	catFR1	0	R1031M
1010.495	2.384	660461	WORD	n/a	wordpools/wordpool_categorized_EN.txt	WINDOW	Building	8	9	[0, 0, 0]	n/a	catFR1	0	R1031M
1012.879	2.417	661653	WORD	n/a	wordpools/wordpool_categorized_EN.txt	LILY	Flowers	9	9	[0, 0, 0]	n/a	catFR1	0	R1031M
1015.296	2.5	662861	WORD	n/a	wordpools/wordpool_categorized_EN.txt	TULIP	Flowers	10	9	[0, 0, 0]	n/a	catFR1	0	R1031M
1017.796	2.451	664111	WORD	n/a	wordpools/wordpool_categorized_EN.txt	HAWK	Birds	11	9	[0, 0, 0]	n/a	catFR1	0	R1031M
1020.247	1.617	665337	WORD	n/a	wordpools/wordpool_categorized_EN.txt	FINCH	Birds	12	9	[0, 0, 0]	n/a	catFR1	0	R1031M
1021.864	0.001	666145	DISTRACT_START	n/a	n/a	n/a	n/a	-999	9	[0, 0, 0]	n/a	catFR1	0	R1031M
1021.865	0.016	666146	START	n/a	n/a	n/a	n/a	-999	9	[-999, -999, -999]	n/a	catFR1	0	R1031M
1021.881	3.417	666154	PROB	3.417	n/a	n/a	n/a	-999	9	[3, 7, 6]	16	catFR1	0	R1031M
1025.298	2.6	667862	PROB	2.6	n/a	n/a	n/a	-999	9	[6, 2, 3]	11	catFR1	0	R1031M
1027.898	3.501	669162	PROB	3.501	n/a	n/a	n/a	-999	9	[2, 9, 7]	18	catFR1	0	R1031M
1031.399	3.301	670912	PROB	3.301	n/a	n/a	n/a	-999	9	[4, 3, 9]	16	catFR1	0	R1031M
1034.7	3.134	672562	PROB	3.134	n/a	n/a	n/a	-999	9	[9, 1, 8]	18	catFR1	0	R1031M
1037.834	3.351	674129	PROB	3.351	n/a	n/a	n/a	-999	9	[4, 1, 2]	7	catFR1	0	R1031M
1041.185	3.395	675805	PROB	3.395	n/a	n/a	n/a	-999	9	[6, 3, 8]	17	catFR1	0	R1031M
1044.58	0.005	677502	STOP	n/a	n/a	n/a	n/a	-999	9	[-999, -999, -999]	n/a	catFR1	0	R1031M
1044.585	1.134	677504	DISTRACT_END	n/a	n/a	n/a	n/a	-999	9	[0, 0, 0]	n/a	catFR1	0	R1031M
1045.719	1.421	678071	REC_START	n/a	n/a	n/a	n/a	-999	9	[0, 0, 0]	n/a	catFR1	0	R1031M
1047.14	28.595	678782	REC_WORD	28.595	n/a	FINCH	Birds	12	9	[0, 0, 0]	n/a	catFR1	0	R1031M
1075.735	10.359	693078	REC_END	n/a	n/a	n/a	n/a	-999	9	[0, 0, 0]	n/a	catFR1	0	R1031M
1086.094	0.0	698257	TRIAL	n/a	n/a	n/a	n/a	-999	10	[0, 0, 0]	n/a	catFR1	0	R1031M
1086.094	10.428	698257	COUNTDOWN_START	n/a	n/a	n/a	n/a	-999	10	[0, 0, 0]	n/a	catFR1	0	R1031M
1096.522	0.006	703470	COUNTDOWN_END	n/a	n/a	n/a	n/a	-999	10	[0, 0, 0]	n/a	catFR1	0	R1031M
1096.528	3.635	703473	ORIENT	n/a	n/a	n/a	n/a	-999	10	[0, 0, 0]	n/a	catFR1	0	R1031M
1100.163	2.5	705290	WORD	n/a	wordpools/wordpool_categorized_EN.txt	JACKET	Clothing	1	10	[0, 0, 0]	n/a	catFR1	0	R1031M
1102.663	2.401	706540	WORD	n/a	wordpools/wordpool_categorized_EN.txt	UNDERWEAR	Clothing	2	10	[0, 0, 0]	n/a	catFR1	0	R1031M
1105.064	2.6	707741	WORD	n/a	wordpools/wordpool_categorized_EN.txt	PLIERS	Tools	3	10	[0, 0, 0]	n/a	catFR1	0	R1031M
1107.664	2.55	709041	WORD	n/a	wordpools/wordpool_categorized_EN.txt	RATCHET	Tools	4	10	[0, 0, 0]	n/a	catFR1	0	R1031M
1110.214	2.384	710315	WORD	n/a	wordpools/wordpool_categorized_EN.txt	BOAT	Vehicles	5	10	[0, 0, 0]	n/a	catFR1	0	R1031M
1112.598	2.384	711507	WORD	n/a	wordpools/wordpool_categorized_EN.txt	CAR	Vehicles	6	10	[0, 0, 0]	n/a	catFR1	0	R1031M
1114.982	2.617	712699	WORD	n/a	wordpools/wordpool_categorized_EN.txt	PANTS	Clothing	7	10	[0, 0, 0]	n/a	catFR1	0	R1031M
1117.599	2.485	714008	WORD	n/a	wordpools/wordpool_categorized_EN.txt	SHORTS	Clothing	8	10	[0, 0, 0]	n/a	catFR1	0	R1031M
1120.084	2.399	715250	WORD	n/a	wordpools/wordpool_categorized_EN.txt	JEEP	Vehicles	9	10	[0, 0, 0]	n/a	catFR1	0	R1031M
1122.483	2.368	716449	WORD	n/a	wordpools/wordpool_categorized_EN.txt	BUS	Vehicles	10	10	[0, 0, 0]	n/a	catFR1	0	R1031M
1124.851	2.567	717633	WORD	n/a	wordpools/wordpool_categorized_EN.txt	SANDER	Tools	11	10	[0, 0, 0]	n/a	catFR1	0	R1031M
1127.418	1.617	718917	WORD	n/a	wordpools/wordpool_categorized_EN.txt	SCREWDRIVER	Tools	12	10	[0, 0, 0]	n/a	catFR1	0	R1031M
1129.035	0.001	719725	DISTRACT_START	n/a	n/a	n/a	n/a	-999	10	[0, 0, 0]	n/a	catFR1	0	R1031M
1129.036	0.016	719725	START	n/a	n/a	n/a	n/a	-999	10	[-999, -999, -999]	n/a	catFR1	0	R1031M
1129.052	3.683	719733	PROB	3.683	n/a	n/a	n/a	-999	10	[7, 3, 8]	19	catFR1	0	R1031M
1132.735	4.018	721575	PROB	4.018	n/a	n/a	n/a	-999	10	[9, 3, 7]	19	catFR1	0	R1031M
1136.753	2.984	723584	PROB	2.984	n/a	n/a	n/a	-999	10	[8, 3, 5]	16	catFR1	0	R1031M
1139.737	3.034	725075	PROB	3.034	n/a	n/a	n/a	-999	10	[7, 4, 9]	20	catFR1	0	R1031M
1142.771	3.117	726592	PROB	3.117	n/a	n/a	n/a	-999	10	[3, 4, 7]	14	catFR1	0	R1031M
1145.888	3.253	728151	PROB	3.253	n/a	n/a	n/a	-999	10	[4, 7, 1]	12	catFR1	0	R1031M
1149.141	0.015	729777	STOP	n/a	n/a	n/a	n/a	-999	10	[-999, -999, -999]	n/a	catFR1	0	R1031M
1149.156	1.1	729784	DISTRACT_END	n/a	n/a	n/a	n/a	-999	10	[0, 0, 0]	n/a	catFR1	0	R1031M
1150.256	1.486	730334	REC_START	n/a	n/a	n/a	n/a	-999	10	[0, 0, 0]	n/a	catFR1	0	R1031M
1151.742	0.841	731077	REC_WORD	0.841	n/a	SHORTS	Clothing	8	10	[0, 0, 0]	n/a	catFR1	0	R1031M
1152.583	1.644	731498	REC_WORD	1.644	n/a	UNDERWEAR	Clothing	2	10	[0, 0, 0]	n/a	catFR1	0	R1031M
1154.227	2.185	732320	REC_WORD	2.185	n/a	PANTS	Clothing	7	10	[0, 0, 0]	n/a	catFR1	0	R1031M
1156.412	4.516	733412	REC_WORD	4.516	n/a	SCREWDRIVER	Tools	12	10	[0, 0, 0]	n/a	catFR1	0	R1031M
1160.928	14.229	735670	REC_WORD	14.229	n/a	PLIERS	Tools	3	10	[0, 0, 0]	n/a	catFR1	0	R1031M
1175.157	5.115	742784	REC_WORD	5.115	n/a	TULIP	n/a	-999	10	[0, 0, 0]	n/a	catFR1	0	R1031M
1180.272	83.823	745341	REC_END	n/a	n/a	n/a	n/a	-999	10	[0, 0, 0]	n/a	catFR1	0	R1031M
1264.095	0.0	787248	COUNTDOWN_START	n/a	n/a	n/a	n/a	-999	11	[0, 0, 0]	n/a	catFR1	0	R1031M
1264.095	10.428	787248	TRIAL	n/a	n/a	n/a	n/a	-999	11	[0, 0, 0]	n/a	catFR1	0	R1031M
1274.523	0.006	792461	COUNTDOWN_END	n/a	n/a	n/a	n/a	-999	11	[0, 0, 0]	n/a	catFR1	0	R1031M
1274.529	3.435	792464	ORIENT	n/a	n/a	n/a	n/a	-999	11	[0, 0, 0]	n/a	catFR1	0	R1031M
1277.964	2.4	794182	WORD	n/a	wordpools/wordpool_categorized_EN.txt	WILLOW	Trees	1	11	[0, 0, 0]	n/a	catFR1	0	R1031M
1280.364	2.617	795382	WORD	n/a	wordpools/wordpool_categorized_EN.txt	MAPLE	Trees	2	11	[0, 0, 0]	n/a	catFR1	0	R1031M
1282.981	2.484	796690	WORD	n/a	wordpools/wordpool_categorized_EN.txt	PRINTER	Electronics	3	11	[0, 0, 0]	n/a	catFR1	0	R1031M
1285.465	2.567	797932	WORD	n/a	wordpools/wordpool_categorized_EN.txt	PHONE	Electronics	4	11	[0, 0, 0]	n/a	catFR1	0	R1031M
1288.032	2.434	799215	WORD	n/a	wordpools/wordpool_categorized_EN.txt	HUMIDITY	Weather	5	11	[0, 0, 0]	n/a	catFR1	0	R1031M
1290.466	2.618	800432	WORD	n/a	wordpools/wordpool_categorized_EN.txt	HURRICANE	Weather	6	11	[0, 0, 0]	n/a	catFR1	0	R1031M
1293.084	2.583	801741	WORD	n/a	wordpools/wordpool_categorized_EN.txt	RADIO	Electronics	7	11	[0, 0, 0]	n/a	catFR1	0	R1031M
1295.667	2.468	803032	WORD	n/a	wordpools/wordpool_categorized_EN.txt	TELEVISION	Electronics	8	11	[0, 0, 0]	n/a	catFR1	0	R1031M
1298.135	2.416	804266	WORD	n/a	wordpools/wordpool_categorized_EN.txt	ELM	Trees	9	11	[0, 0, 0]	n/a	catFR1	0	R1031M
1300.551	2.518	805474	WORD	n/a	wordpools/wordpool_categorized_EN.txt	CYPRESS	Trees	10	11	[0, 0, 0]	n/a	catFR1	0	R1031M
1303.069	2.45	806733	WORD	n/a	wordpools/wordpool_categorized_EN.txt	WIND	Weather	11	11	[0, 0, 0]	n/a	catFR1	0	R1031M
1305.519	1.601	807958	WORD	n/a	wordpools/wordpool_categorized_EN.txt	RAIN	Weather	12	11	[0, 0, 0]	n/a	catFR1	0	R1031M
1307.12	0.001	808758	DISTRACT_START	n/a	n/a	n/a	n/a	-999	11	[0, 0, 0]	n/a	catFR1	0	R1031M
1307.121	0.016	808759	START	n/a	n/a	n/a	n/a	-999	11	[-999, -999, -999]	n/a	catFR1	0	R1031M
1307.137	3.416	808767	PROB	3.416	n/a	n/a	n/a	-999	11	[6, 1, 6]	13	catFR1	0	R1031M
1310.553	6.951	810474	PROB	6.951	n/a	n/a	n/a	-999	11	[5, 7, 9]	21	catFR1	0	R1031M
1317.504	2.652	813950	PROB	2.652	n/a	n/a	n/a	-999	11	[5, 5, 9]	19	catFR1	0	R1031M
1320.156	2.783	815275	PROB	2.783	n/a	n/a	n/a	-999	11	[1, 9, 1]	11	catFR1	0	R1031M
1322.939	2.8	816667	PROB	2.8	n/a	n/a	n/a	-999	11	[7, 3, 5]	15	catFR1	0	R1031M
1325.739	3.402	818067	PROB	3.402	n/a	n/a	n/a	-999	11	[3, 6, 7]	16	catFR1	0	R1031M
1329.141	0.017	819767	STOP	n/a	n/a	n/a	n/a	-999	11	[-999, -999, -999]	n/a	catFR1	0	R1031M
1329.158	1.217	819776	DISTRACT_END	n/a	n/a	n/a	n/a	-999	11	[0, 0, 0]	n/a	catFR1	0	R1031M
1330.375	1.534	820384	REC_START	n/a	n/a	n/a	n/a	-999	11	[0, 0, 0]	n/a	catFR1	0	R1031M
1331.909	1.14	821151	REC_WORD	1.14	n/a	WILLOW	Trees	1	11	[0, 0, 0]	n/a	catFR1	0	R1031M
1333.049	1.852	821721	REC_WORD	1.852	n/a	MAPLE	Trees	2	11	[0, 0, 0]	n/a	catFR1	0	R1031M
1334.901	4.894	822647	REC_WORD	4.894	n/a	ELM	Trees	9	11	[0, 0, 0]	n/a	catFR1	0	R1031M
1339.795	2.38	825094	REC_WORD	2.38	n/a	RAIN	Weather	12	11	[0, 0, 0]	n/a	catFR1	0	R1031M
1342.175	3.789	826284	REC_WORD	3.789	n/a	WIND	Weather	11	11	[0, 0, 0]	n/a	catFR1	0	R1031M
1345.964	14.423	828178	REC_WORD	14.423	n/a	TELEVISION	Electronics	8	11	[0, 0, 0]	n/a	catFR1	0	R1031M
1360.387	3.126	835389	REC_END	n/a	n/a	n/a	n/a	-999	11	[0, 0, 0]	n/a	catFR1	0	R1031M
1363.513	0.0	836952	TRIAL	n/a	n/a	n/a	n/a	-999	12	[0, 0, 0]	n/a	catFR1	0	R1031M
1363.513	10.428	836952	COUNTDOWN_START	n/a	n/a	n/a	n/a	-999	12	[0, 0, 0]	n/a	catFR1	0	R1031M
1373.941	0.008	842165	COUNTDOWN_END	n/a	n/a	n/a	n/a	-999	12	[0, 0, 0]	n/a	catFR1	0	R1031M
1373.949	3.867	842169	ORIENT	n/a	n/a	n/a	n/a	-999	12	[0, 0, 0]	n/a	catFR1	0	R1031M
1377.816	2.634	844102	WORD	n/a	wordpools/wordpool_categorized_EN.txt	POTATO	Vegetables	1	12	[0, 0, 0]	n/a	catFR1	0	R1031M
1380.45	2.45	845419	WORD	n/a	wordpools/wordpool_categorized_EN.txt	CORN	Vegetables	2	12	[0, 0, 0]	n/a	catFR1	0	R1031M
1382.9	2.618	846644	WORD	n/a	wordpools/wordpool_categorized_EN.txt	ORANGUTAN	Zoo	3	12	[0, 0, 0]	n/a	catFR1	0	R1031M
1385.518	2.383	847953	WORD	n/a	wordpools/wordpool_categorized_EN.txt	ELEPHANT	Zoo	4	12	[0, 0, 0]	n/a	catFR1	0	R1031M
1387.901	2.584	849144	WORD	n/a	wordpools/wordpool_categorized_EN.txt	CRICKET	Insects	5	12	[0, 0, 0]	n/a	catFR1	0	R1031M
1390.485	2.451	850436	WORD	n/a	wordpools/wordpool_categorized_EN.txt	MOSQUITO	Insects	6	12	[0, 0, 0]	n/a	catFR1	0	R1031M
1392.936	2.4	851662	WORD	n/a	wordpools/wordpool_categorized_EN.txt	ONION	Vegetables	7	12	[0, 0, 0]	n/a	catFR1	0	R1031M
1395.336	2.567	852862	WORD	n/a	wordpools/wordpool_categorized_EN.txt	BROCCOLI	Vegetables	8	12	[0, 0, 0]	n/a	catFR1	0	R1031M
1397.903	2.384	854145	WORD	n/a	wordpools/wordpool_categorized_EN.txt	ANT	Insects	9	12	[0, 0, 0]	n/a	catFR1	0	R1031M
1400.287	2.401	855337	WORD	n/a	wordpools/wordpool_categorized_EN.txt	ROACH	Insects	10	12	[0, 0, 0]	n/a	catFR1	0	R1031M
1402.688	2.401	856537	WORD	n/a	wordpools/wordpool_categorized_EN.txt	CHIMPANZEE	Zoo	11	12	[0, 0, 0]	n/a	catFR1	0	R1031M
1405.089	1.616	857738	WORD	n/a	wordpools/wordpool_categorized_EN.txt	GIRAFFE	Zoo	12	12	[0, 0, 0]	n/a	catFR1	0	R1031M
1406.705	0.001	858545	DISTRACT_START	n/a	n/a	n/a	n/a	-999	12	[0, 0, 0]	n/a	catFR1	0	R1031M
1406.706	0.016	858546	START	n/a	n/a	n/a	n/a	-999	12	[-999, -999, -999]	n/a	catFR1	0	R1031M
1406.722	2.984	858554	PROB	2.984	n/a	n/a	n/a	-999	12	[2, 2, 1]	5	catFR1	0	R1031M
1409.706	3.15	860046	PROB	3.15	n/a	n/a	n/a	-999	12	[2, 5, 9]	16	catFR1	0	R1031M
1412.856	3.834	861621	PROB	3.834	n/a	n/a	n/a	-999	12	[9, 9, 4]	22	catFR1	0	R1031M
1416.69	3.151	863537	PROB	3.151	n/a	n/a	n/a	-999	12	[2, 7, 8]	17	catFR1	0	R1031M
1419.841	2.767	865113	PROB	2.767	n/a	n/a	n/a	-999	12	[1, 7, 3]	11	catFR1	0	R1031M
1422.608	3.535	866496	PROB	3.535	n/a	n/a	n/a	-999	12	[2, 7, 7]	16	catFR1	0	R1031M
1426.143	3.629	868263	PROB	3.629	n/a	n/a	n/a	-999	12	[8, 6, 9]	23	catFR1	0	R1031M
1429.772	0.004	870078	STOP	n/a	n/a	n/a	n/a	-999	12	[-999, -999, -999]	n/a	catFR1	0	R1031M
1429.776	1.118	870080	DISTRACT_END	n/a	n/a	n/a	n/a	-999	12	[0, 0, 0]	n/a	catFR1	0	R1031M
1430.894	1.643	870639	REC_START	n/a	n/a	n/a	n/a	-999	12	[0, 0, 0]	n/a	catFR1	0	R1031M
1432.537	2.495	871460	REC_WORD	2.495	n/a	CHIMPANZEE	Zoo	11	12	[0, 0, 0]	n/a	catFR1	0	R1031M
1435.032	2.664	872707	REC_WORD	2.664	n/a	ORANGUTAN	Zoo	3	12	[0, 0, 0]	n/a	catFR1	0	R1031M
1437.696	3.488	874039	REC_WORD	3.488	n/a	GIRAFFE	Zoo	12	12	[0, 0, 0]	n/a	catFR1	0	R1031M
1441.184	2.29	875783	REC_WORD	2.29	n/a	ELEPHANT	Zoo	4	12	[0, 0, 0]	n/a	catFR1	0	R1031M
1443.474	2.359	876928	REC_WORD	2.359	n/a	ANT	Insects	9	12	[0, 0, 0]	n/a	catFR1	0	R1031M
1445.833	4.503	878107	REC_WORD	4.503	n/a	MOSQUITO	Insects	6	12	[0, 0, 0]	n/a	catFR1	0	R1031M
1450.336	10.569	880359	REC_WORD	10.569	n/a	CRICKET	Insects	5	12	[0, 0, 0]	n/a	catFR1	0	R1031M
1460.905	3.128	885643	REC_END	n/a	n/a	n/a	n/a	-999	12	[0, 0, 0]	n/a	catFR1	0	R1031M
1464.033	0.0	887206	TRIAL	n/a	n/a	n/a	n/a	-999	13	[0, 0, 0]	n/a	catFR1	0	R1031M
1464.033	10.428	887206	COUNTDOWN_START	n/a	n/a	n/a	n/a	-999	13	[0, 0, 0]	n/a	catFR1	0	R1031M
1474.461	0.007	892420	COUNTDOWN_END	n/a	n/a	n/a	n/a	-999	13	[0, 0, 0]	n/a	catFR1	0	R1031M
1474.468	3.818	892423	ORIENT	n/a	n/a	n/a	n/a	-999	13	[0, 0, 0]	n/a	catFR1	0	R1031M
1478.286	2.433	894332	WORD	n/a	wordpools/wordpool_categorized_EN.txt	FUDGE	Desserts	1	13	[0, 0, 0]	n/a	catFR1	0	R1031M
1480.719	2.567	895549	WORD	n/a	wordpools/wordpool_categorized_EN.txt	CAKE	Desserts	2	13	[0, 0, 0]	n/a	catFR1	0	R1031M
1483.286	2.384	896832	WORD	n/a	wordpools/wordpool_categorized_EN.txt	GRATER	KitchenTools	3	13	[0, 0, 0]	n/a	catFR1	0	R1031M
1485.67	2.634	898024	WORD	n/a	wordpools/wordpool_categorized_EN.txt	COLANDER	KitchenTools	4	13	[0, 0, 0]	n/a	catFR1	0	R1031M
1488.304	2.434	899341	WORD	n/a	wordpools/wordpool_categorized_EN.txt	BLUEBIRD	Birds	5	13	[0, 0, 0]	n/a	catFR1	0	R1031M
1490.738	2.601	900558	WORD	n/a	wordpools/wordpool_categorized_EN.txt	SEAGULL	Birds	6	13	[0, 0, 0]	n/a	catFR1	0	R1031M
1493.339	2.416	901858	WORD	n/a	wordpools/wordpool_categorized_EN.txt	KNIFE	KitchenTools	7	13	[0, 0, 0]	n/a	catFR1	0	R1031M
1495.755	2.435	903066	WORD	n/a	wordpools/wordpool_categorized_EN.txt	WHISK	KitchenTools	8	13	[0, 0, 0]	n/a	catFR1	0	R1031M
1498.19	2.55	904283	WORD	n/a	wordpools/wordpool_categorized_EN.txt	COBBLER	Desserts	9	13	[0, 0, 0]	n/a	catFR1	0	R1031M
1500.74	2.5	905558	WORD	n/a	wordpools/wordpool_categorized_EN.txt	MOUSSE	Desserts	10	13	[0, 0, 0]	n/a	catFR1	0	R1031M
1503.24	2.618	906808	WORD	n/a	wordpools/wordpool_categorized_EN.txt	DUCK	Birds	11	13	[0, 0, 0]	n/a	catFR1	0	R1031M
1505.858	1.617	908117	WORD	n/a	wordpools/wordpool_categorized_EN.txt	DOVE	Birds	12	13	[0, 0, 0]	n/a	catFR1	0	R1031M
1507.475	0.001	908925	DISTRACT_START	n/a	n/a	n/a	n/a	-999	13	[0, 0, 0]	n/a	catFR1	0	R1031M
1507.476	0.015	908926	START	n/a	n/a	n/a	n/a	-999	13	[-999, -999, -999]	n/a	catFR1	0	R1031M
1507.491	3.818	908933	PROB	3.818	n/a	n/a	n/a	-999	13	[7, 8, 9]	24	catFR1	0	R1031M
1511.309	4.517	910842	PROB	4.517	n/a	n/a	n/a	-999	13	[6, 9, 8]	23	catFR1	0	R1031M
1515.826	3.034	913100	PROB	3.034	n/a	n/a	n/a	-999	13	[6, 5, 2]	13	catFR1	0	R1031M
1518.86	3.434	914617	PROB	3.434	n/a	n/a	n/a	-999	13	[4, 9, 8]	21	catFR1	0	R1031M
1522.294	3.134	916334	PROB	3.134	n/a	n/a	n/a	-999	13	[5, 4, 5]	14	catFR1	0	R1031M
1525.428	2.528	917901	PROB	2.528	n/a	n/a	n/a	-999	13	[4, 3, 1]	8	catFR1	0	R1031M
1527.956	0.006	919165	STOP	n/a	n/a	n/a	n/a	-999	13	[-999, -999, -999]	n/a	catFR1	0	R1031M
1527.962	1.135	919168	DISTRACT_END	n/a	n/a	n/a	n/a	-999	13	[0, 0, 0]	n/a	catFR1	0	R1031M
1529.097	1.695	919735	REC_START	n/a	n/a	n/a	n/a	-999	13	[0, 0, 0]	n/a	catFR1	0	R1031M
1530.792	2.654	920582	REC_WORD	2.654	n/a	MOUSSE	Desserts	10	13	[0, 0, 0]	n/a	catFR1	0	R1031M
1533.446	1.946	921909	REC_WORD	1.946	n/a	COLANDER	KitchenTools	4	13	[0, 0, 0]	n/a	catFR1	0	R1031M
1535.392	23.717	922882	REC_WORD	23.717	n/a	STRAINER	n/a	-999	13	[0, 0, 0]	n/a	catFR1	0	R1031M
1559.109	63.704	934740	REC_END	n/a	n/a	n/a	n/a	-999	13	[0, 0, 0]	n/a	catFR1	0	R1031M
1622.813	0.001	966588	COUNTDOWN_START	n/a	n/a	n/a	n/a	-999	14	[0, 0, 0]	n/a	catFR1	0	R1031M
1622.814	10.427	966589	TRIAL	n/a	n/a	n/a	n/a	-999	14	[0, 0, 0]	n/a	catFR1	0	R1031M
1633.241	0.008	971802	COUNTDOWN_END	n/a	n/a	n/a	n/a	-999	14	[0, 0, 0]	n/a	catFR1	0	R1031M
1633.249	3.751	971806	ORIENT	n/a	n/a	n/a	n/a	-999	14	[0, 0, 0]	n/a	catFR1	0	R1031M
1637.0	2.466	973681	WORD	n/a	wordpools/wordpool_categorized_EN.txt	SPARROW	Birds	1	14	[0, 0, 0]	n/a	catFR1	0	R1031M
1639.466	2.535	974914	WORD	n/a	wordpools/wordpool_categorized_EN.txt	CROW	Birds	2	14	[0, 0, 0]	n/a	catFR1	0	R1031M
1642.001	2.383	976181	WORD	n/a	wordpools/wordpool_categorized_EN.txt	TRAIN	Vehicles	3	14	[0, 0, 0]	n/a	catFR1	0	R1031M
1644.384	2.484	977373	WORD	n/a	wordpools/wordpool_categorized_EN.txt	VAN	Vehicles	4	14	[0, 0, 0]	n/a	catFR1	0	R1031M
1646.868	2.417	978614	WORD	n/a	wordpools/wordpool_categorized_EN.txt	DOLPHIN	OceanAnimals	5	14	[0, 0, 0]	n/a	catFR1	0	R1031M
1649.285	2.601	979823	WORD	n/a	wordpools/wordpool_categorized_EN.txt	TURTLE	OceanAnimals	6	14	[0, 0, 0]	n/a	catFR1	0	R1031M
1651.886	2.517	981123	WORD	n/a	wordpools/wordpool_categorized_EN.txt	BIKE	Vehicles	7	14	[0, 0, 0]	n/a	catFR1	0	R1031M
1654.403	2.484	982382	WORD	n/a	wordpools/wordpool_categorized_EN.txt	MOPED	Vehicles	8	14	[0, 0, 0]	n/a	catFR1	0	R1031M
1656.887	2.5	983623	WORD	n/a	wordpools/wordpool_categorized_EN.txt	ROBIN	Birds	9	14	[0, 0, 0]	n/a	catFR1	0	R1031M
1659.387	2.584	984873	WORD	n/a	wordpools/wordpool_categorized_EN.txt	PIGEON	Birds	10	14	[0, 0, 0]	n/a	catFR1	0	R1031M
1661.971	2.551	986165	WORD	n/a	wordpools/wordpool_categorized_EN.txt	PLANKTON	OceanAnimals	11	14	[0, 0, 0]	n/a	catFR1	0	R1031M
1664.522	1.617	987441	WORD	n/a	wordpools/wordpool_categorized_EN.txt	OCTOPUS	OceanAnimals	12	14	[0, 0, 0]	n/a	catFR1	0	R1031M
1666.139	0.002	988249	DISTRACT_START	n/a	n/a	n/a	n/a	-999	14	[0, 0, 0]	n/a	catFR1	0	R1031M
1666.141	0.015	988250	START	n/a	n/a	n/a	n/a	-999	14	[-999, -999, -999]	n/a	catFR1	0	R1031M
1666.156	3.583	988257	PROB	3.583	n/a	n/a	n/a	-999	14	[2, 8, 4]	14	catFR1	0	R1031M
1669.739	3.484	990049	PROB	3.484	n/a	n/a	n/a	-999	14	[2, 9, 4]	15	catFR1	0	R1031M
1673.223	2.734	991791	PROB	2.734	n/a	n/a	n/a	-999	14	[8, 3, 9]	20	catFR1	0	R1031M
1675.957	2.684	993157	PROB	2.684	n/a	n/a	n/a	-999	14	[5, 6, 1]	12	catFR1	0	R1031M
1678.641	3.084	994499	PROB	3.084	n/a	n/a	n/a	-999	14	[5, 9, 3]	17	catFR1	0	R1031M
1681.725	3.034	996041	PROB	3.034	n/a	n/a	n/a	-999	14	[9, 3, 6]	18	catFR1	0	R1031M
1684.759	2.789	997558	PROB	2.789	n/a	n/a	n/a	-999	14	[1, 7, 3]	11	catFR1	0	R1031M
1687.548	0.011	998952	STOP	n/a	n/a	n/a	n/a	-999	14	[-999, -999, -999]	n/a	catFR1	0	R1031M
1687.559	1.185	998958	DISTRACT_END	n/a	n/a	n/a	n/a	-999	14	[0, 0, 0]	n/a	catFR1	0	R1031M
1688.744	1.349	999550	REC_START	n/a	n/a	n/a	n/a	-999	14	[0, 0, 0]	n/a	catFR1	0	R1031M
1690.093	2.776	1000225	REC_WORD	2.776	n/a	OCTOPUS	OceanAnimals	12	14	[0, 0, 0]	n/a	catFR1	0	R1031M
1692.869	25.887	1001613	REC_WORD	25.887	n/a	SPARROW	Birds	1	14	[0, 0, 0]	n/a	catFR1	0	R1031M
1718.756	61.271	1014555	REC_END	n/a	n/a	n/a	n/a	-999	14	[0, 0, 0]	n/a	catFR1	0	R1031M
1780.027	0.0	1045187	TRIAL	n/a	n/a	n/a	n/a	-999	15	[0, 0, 0]	n/a	catFR1	0	R1031M
1780.027	10.428	1045187	COUNTDOWN_START	n/a	n/a	n/a	n/a	-999	15	[0, 0, 0]	n/a	catFR1	0	R1031M
1790.455	0.008	1050400	COUNTDOWN_END	n/a	n/a	n/a	n/a	-999	15	[0, 0, 0]	n/a	catFR1	0	R1031M
1790.463	3.734	1050404	ORIENT	n/a	n/a	n/a	n/a	-999	15	[0, 0, 0]	n/a	catFR1	0	R1031M
1794.197	2.517	1052271	WORD	n/a	wordpools/wordpool_categorized_EN.txt	CABINET	Furniture	1	15	[0, 0, 0]	n/a	catFR1	0	R1031M
1796.714	2.401	1053530	WORD	n/a	wordpools/wordpool_categorized_EN.txt	TABLE	Furniture	2	15	[0, 0, 0]	n/a	catFR1	0	R1031M
1799.115	2.533	1054730	WORD	n/a	wordpools/wordpool_categorized_EN.txt	BUTTERFLY	Insects	3	15	[0, 0, 0]	n/a	catFR1	0	R1031M
1801.648	2.384	1055996	WORD	n/a	wordpools/wordpool_categorized_EN.txt	SPIDER	Insects	4	15	[0, 0, 0]	n/a	catFR1	0	R1031M
1804.032	2.45	1057188	WORD	n/a	wordpools/wordpool_categorized_EN.txt	BLOUSE	Clothing	5	15	[0, 0, 0]	n/a	catFR1	0	R1031M
1806.482	2.534	1058413	WORD	n/a	wordpools/wordpool_categorized_EN.txt	SHOES	Clothing	6	15	[0, 0, 0]	n/a	catFR1	0	R1031M
1809.016	2.567	1059680	WORD	n/a	wordpools/wordpool_categorized_EN.txt	COUCH	Furniture	7	15	[0, 0, 0]	n/a	catFR1	0	R1031M
1811.583	2.502	1060963	WORD	n/a	wordpools/wordpool_categorized_EN.txt	SHELF	Furniture	8	15	[0, 0, 0]	n/a	catFR1	0	R1031M
1814.085	2.533	1062214	WORD	n/a	wordpools/wordpool_categorized_EN.txt	DRESS	Clothing	9	15	[0, 0, 0]	n/a	catFR1	0	R1031M
1816.618	2.501	1063481	WORD	n/a	wordpools/wordpool_categorized_EN.txt	SOCKS	Clothing	10	15	[0, 0, 0]	n/a	catFR1	0	R1031M
1819.119	2.449	1064731	WORD	n/a	wordpools/wordpool_categorized_EN.txt	LADYBUG	Insects	11	15	[0, 0, 0]	n/a	catFR1	0	R1031M
1821.568	1.602	1065955	WORD	n/a	wordpools/wordpool_categorized_EN.txt	BEETLE	Insects	12	15	[0, 0, 0]	n/a	catFR1	0	R1031M
1823.17	0.001	1066756	DISTRACT_START	n/a	n/a	n/a	n/a	-999	15	[0, 0, 0]	n/a	catFR1	0	R1031M
1823.171	0.016	1066757	START	n/a	n/a	n/a	n/a	-999	15	[-999, -999, -999]	n/a	catFR1	0	R1031M
1823.187	3.499	1066765	PROB	3.499	n/a	n/a	n/a	-999	15	[4, 7, 3]	14	catFR1	0	R1031M
1826.686	3.267	1068514	PROB	3.267	n/a	n/a	n/a	-999	15	[7, 4, 9]	20	catFR1	0	R1031M
1829.953	3.202	1070147	PROB	3.202	n/a	n/a	n/a	-999	15	[9, 5, 5]	19	catFR1	0	R1031M
1833.155	2.65	1071748	PROB	2.65	n/a	n/a	n/a	-999	15	[3, 5, 4]	12	catFR1	0	R1031M
1835.805	2.95	1073073	PROB	2.95	n/a	n/a	n/a	-999	15	[2, 9, 2]	13	catFR1	0	R1031M
1838.755	2.801	1074548	PROB	2.801	n/a	n/a	n/a	-999	15	[7, 2, 4]	13	catFR1	0	R1031M
1841.556	2.32	1075948	PROB	2.32	n/a	n/a	n/a	-999	15	[6, 4, 2]	12	catFR1	0	R1031M
1843.876	0.014	1077108	STOP	n/a	n/a	n/a	n/a	-999	15	[-999, -999, -999]	n/a	catFR1	0	R1031M
1843.89	1.067	1077115	DISTRACT_END	n/a	n/a	n/a	n/a	-999	15	[0, 0, 0]	n/a	catFR1	0	R1031M
1844.957	1.626	1077649	REC_START	n/a	n/a	n/a	n/a	-999	15	[0, 0, 0]	n/a	catFR1	0	R1031M
1846.583	4.341	1078462	REC_WORD	4.341	n/a	BLOUSE	Clothing	5	15	[0, 0, 0]	n/a	catFR1	0	R1031M
1850.924	3.154	1080632	REC_WORD	3.154	n/a	CABINET	Furniture	1	15	[0, 0, 0]	n/a	catFR1	0	R1031M
1854.078	10.095	1082209	REC_WORD	10.095	n/a	SHELF	Furniture	8	15	[0, 0, 0]	n/a	catFR1	0	R1031M
1864.173	2.186	1087256	REC_WORD	2.186	n/a	BUTTERFLY	Insects	3	15	[0, 0, 0]	n/a	catFR1	0	R1031M
1866.359	4.426	1088348	REC_WORD	4.426	n/a	LADYBUG	Insects	11	15	[0, 0, 0]	n/a	catFR1	0	R1031M
1870.785	4.183	1090561	REC_WORD	4.183	n/a	ROACH	n/a	-999	15	[0, 0, 0]	n/a	catFR1	0	R1031M
1874.968	3.745	1092653	REC_END	n/a	n/a	n/a	n/a	-999	15	[0, 0, 0]	n/a	catFR1	0	R1031M
1878.713	0.0	1094525	TRIAL	n/a	n/a	n/a	n/a	-999	16	[0, 0, 0]	n/a	catFR1	0	R1031M
1878.713	10.428	1094525	COUNTDOWN_START	n/a	n/a	n/a	n/a	-999	16	[0, 0, 0]	n/a	catFR1	0	R1031M
1889.141	0.008	1099738	COUNTDOWN_END	n/a	n/a	n/a	n/a	-999	16	[0, 0, 0]	n/a	catFR1	0	R1031M
1889.149	3.65	1099742	ORIENT	n/a	n/a	n/a	n/a	-999	16	[0, 0, 0]	n/a	catFR1	0	R1031M
1892.799	2.617	1101567	WORD	n/a	wordpools/wordpool_categorized_EN.txt	SCANNER	Electronics	1	16	[0, 0, 0]	n/a	catFR1	0	R1031M
1895.416	2.567	1102875	WORD	n/a	wordpools/wordpool_categorized_EN.txt	HEADPHONES	Electronics	2	16	[0, 0, 0]	n/a	catFR1	0	R1031M
1897.983	2.484	1104159	WORD	n/a	wordpools/wordpool_categorized_EN.txt	CELERY	Vegetables	3	16	[0, 0, 0]	n/a	catFR1	0	R1031M
1900.467	2.484	1105401	WORD	n/a	wordpools/wordpool_categorized_EN.txt	SPINACH	Vegetables	4	16	[0, 0, 0]	n/a	catFR1	0	R1031M
1902.951	2.467	1106643	WORD	n/a	wordpools/wordpool_categorized_EN.txt	ATTIC	Building	5	16	[0, 0, 0]	n/a	catFR1	0	R1031M
1905.418	2.501	1107876	WORD	n/a	wordpools/wordpool_categorized_EN.txt	STAIRS	Building	6	16	[0, 0, 0]	n/a	catFR1	0	R1031M
1907.919	2.383	1109126	WORD	n/a	wordpools/wordpool_categorized_EN.txt	MICROWAVE	Electronics	7	16	[0, 0, 0]	n/a	catFR1	0	R1031M
1910.302	2.601	1110318	WORD	n/a	wordpools/wordpool_categorized_EN.txt	CALCULATOR	Electronics	8	16	[0, 0, 0]	n/a	catFR1	0	R1031M
1912.903	2.6	1111618	WORD	n/a	wordpools/wordpool_categorized_EN.txt	WALL	Building	9	16	[0, 0, 0]	n/a	catFR1	0	R1031M
1915.503	2.552	1112918	WORD	n/a	wordpools/wordpool_categorized_EN.txt	CEILING	Building	10	16	[0, 0, 0]	n/a	catFR1	0	R1031M
1918.055	2.383	1114194	WORD	n/a	wordpools/wordpool_categorized_EN.txt	PEAS	Vegetables	11	16	[0, 0, 0]	n/a	catFR1	0	R1031M
1920.438	1.618	1115385	WORD	n/a	wordpools/wordpool_categorized_EN.txt	CAULIFLOWER	Vegetables	12	16	[0, 0, 0]	n/a	catFR1	0	R1031M
1922.056	0.001	1116194	DISTRACT_START	n/a	n/a	n/a	n/a	-999	16	[0, 0, 0]	n/a	catFR1	0	R1031M
1922.057	0.015	1116195	START	n/a	n/a	n/a	n/a	-999	16	[-999, -999, -999]	n/a	catFR1	0	R1031M
1922.072	3.5	1116202	PROB	3.5	n/a	n/a	n/a	-999	16	[8, 3, 8]	19	catFR1	0	R1031M
1925.572	2.951	1117952	PROB	2.951	n/a	n/a	n/a	-999	16	[9, 4, 2]	14	catFR1	0	R1031M
1928.523	3.117	1119427	PROB	3.117	n/a	n/a	n/a	-999	16	[4, 5, 6]	15	catFR1	0	R1031M
1931.64	2.584	1120986	PROB	2.584	n/a	n/a	n/a	-999	16	[1, 2, 6]	9	catFR1	0	R1031M
1934.224	2.984	1122277	PROB	2.984	n/a	n/a	n/a	-999	16	[4, 3, 9]	16	catFR1	0	R1031M
1937.208	2.733	1123769	PROB	2.733	n/a	n/a	n/a	-999	16	[4, 2, 8]	14	catFR1	0	R1031M
1939.941	2.575	1125136	PROB	2.575	n/a	n/a	n/a	-999	16	[6, 1, 6]	13	catFR1	0	R1031M
1942.516	0.009	1126423	STOP	n/a	n/a	n/a	n/a	-999	16	[-999, -999, -999]	n/a	catFR1	0	R1031M
1942.525	1.218	1126428	DISTRACT_END	n/a	n/a	n/a	n/a	-999	16	[0, 0, 0]	n/a	catFR1	0	R1031M
1943.743	4.247	1127036	REC_START	n/a	n/a	n/a	n/a	-999	16	[0, 0, 0]	n/a	catFR1	0	R1031M
1947.99	6.62	1129160	REC_WORD	6.62	n/a	CEILING	Building	10	16	[0, 0, 0]	n/a	catFR1	0	R1031M
1954.61	3.279	1132469	REC_WORD	3.279	n/a	ROOF	n/a	-999	16	[0, 0, 0]	n/a	catFR1	0	R1031M
1957.889	2.401	1134109	REC_WORD	2.401	n/a	CAULIFLOWER	Vegetables	12	16	[0, 0, 0]	n/a	catFR1	0	R1031M
1960.29	13.464	1135309	REC_WORD	13.464	n/a	PEAS	Vegetables	11	16	[0, 0, 0]	n/a	catFR1	0	R1031M
1973.754	40.885	1142040	REC_END	n/a	n/a	n/a	n/a	-999	16	[0, 0, 0]	n/a	catFR1	0	R1031M
2014.639	0.0	1162481	TRIAL	n/a	n/a	n/a	n/a	-999	17	[0, 0, 0]	n/a	catFR1	0	R1031M
2014.639	10.428	1162481	COUNTDOWN_START	n/a	n/a	n/a	n/a	-999	17	[0, 0, 0]	n/a	catFR1	0	R1031M
2025.067	0.008	1167694	COUNTDOWN_END	n/a	n/a	n/a	n/a	-999	17	[0, 0, 0]	n/a	catFR1	0	R1031M
2025.075	3.667	1167698	ORIENT	n/a	n/a	n/a	n/a	-999	17	[0, 0, 0]	n/a	catFR1	0	R1031M
2028.742	2.55	1169532	WORD	n/a	wordpools/wordpool_categorized_EN.txt	BALL	Toys	1	17	[0, 0, 0]	n/a	catFR1	0	R1031M
2031.292	2.518	1170806	WORD	n/a	wordpools/wordpool_categorized_EN.txt	DOLLHOUSE	Toys	2	17	[0, 0, 0]	n/a	catFR1	0	R1031M
2033.81	2.533	1172065	WORD	n/a	wordpools/wordpool_categorized_EN.txt	MIXER	Appliances	3	17	[0, 0, 0]	n/a	catFR1	0	R1031M
2036.343	2.418	1173332	WORD	n/a	wordpools/wordpool_categorized_EN.txt	DRYER	Appliances	4	17	[0, 0, 0]	n/a	catFR1	0	R1031M
2038.761	2.567	1174540	WORD	n/a	wordpools/wordpool_categorized_EN.txt	JUICE	Beverages	5	17	[0, 0, 0]	n/a	catFR1	0	R1031M
2041.328	2.567	1175824	WORD	n/a	wordpools/wordpool_categorized_EN.txt	COLA	Beverages	6	17	[0, 0, 0]	n/a	catFR1	0	R1031M
2043.895	2.534	1177107	WORD	n/a	wordpools/wordpool_categorized_EN.txt	PUZZLE	Toys	7	17	[0, 0, 0]	n/a	catFR1	0	R1031M
2046.429	2.533	1178374	WORD	n/a	wordpools/wordpool_categorized_EN.txt	MARBLES	Toys	8	17	[0, 0, 0]	n/a	catFR1	0	R1031M
2048.962	2.551	1179640	WORD	n/a	wordpools/wordpool_categorized_EN.txt	COFFEE	Beverages	9	17	[0, 0, 0]	n/a	catFR1	0	R1031M
2051.513	2.568	1180916	WORD	n/a	wordpools/wordpool_categorized_EN.txt	WATER	Beverages	10	17	[0, 0, 0]	n/a	catFR1	0	R1031M
2054.081	2.383	1182200	WORD	n/a	wordpools/wordpool_categorized_EN.txt	IRON	Appliances	11	17	[0, 0, 0]	n/a	catFR1	0	R1031M
2056.464	1.618	1183391	WORD	n/a	wordpools/wordpool_categorized_EN.txt	REFRIGERATOR	Appliances	12	17	[0, 0, 0]	n/a	catFR1	0	R1031M
2058.082	0.001	1184200	DISTRACT_START	n/a	n/a	n/a	n/a	-999	17	[0, 0, 0]	n/a	catFR1	0	R1031M
2058.083	0.016	1184200	START	n/a	n/a	n/a	n/a	-999	17	[-999, -999, -999]	n/a	catFR1	0	R1031M
2058.099	4.349	1184208	PROB	4.349	n/a	n/a	n/a	-999	17	[8, 1, 4]	13	catFR1	0	R1031M
2062.448	4.401	1186383	PROB	4.401	n/a	n/a	n/a	-999	17	[7, 9, 1]	17	catFR1	0	R1031M
2066.849	2.484	1188583	PROB	2.484	n/a	n/a	n/a	-999	17	[2, 5, 5]	12	catFR1	0	R1031M
2069.333	2.867	1189825	PROB	2.867	n/a	n/a	n/a	-999	17	[7, 6, 7]	20	catFR1	0	R1031M
2072.2	3.118	1191258	PROB	3.118	n/a	n/a	n/a	-999	17	[3, 2, 2]	7	catFR1	0	R1031M
2075.318	2.417	1192817	PROB	2.417	n/a	n/a	n/a	-999	17	[1, 3, 3]	7	catFR1	0	R1031M
2077.735	2.293	1194025	PROB	2.293	n/a	n/a	n/a	-999	17	[3, 3, 3]	9	catFR1	0	R1031M
2080.028	0.007	1195172	STOP	n/a	n/a	n/a	n/a	-999	17	[-999, -999, -999]	n/a	catFR1	0	R1031M
2080.035	1.136	1195175	DISTRACT_END	n/a	n/a	n/a	n/a	-999	17	[0, 0, 0]	n/a	catFR1	0	R1031M
2081.171	7.107	1195743	REC_START	n/a	n/a	n/a	n/a	-999	17	[0, 0, 0]	n/a	catFR1	0	R1031M
2088.278	22.905	1199296	REC_WORD	22.905	n/a	IRON	Appliances	11	17	[0, 0, 0]	n/a	catFR1	0	R1031M
2111.183	6.376	1210748	REC_END	n/a	n/a	n/a	n/a	-999	17	[0, 0, 0]	n/a	catFR1	0	R1031M
2117.559	0.0	1213935	TRIAL	n/a	n/a	n/a	n/a	-999	18	[0, 0, 0]	n/a	catFR1	0	R1031M
2117.559	10.428	1213935	COUNTDOWN_START	n/a	n/a	n/a	n/a	-999	18	[0, 0, 0]	n/a	catFR1	0	R1031M
2127.987	0.007	1219149	COUNTDOWN_END	n/a	n/a	n/a	n/a	-999	18	[0, 0, 0]	n/a	catFR1	0	R1031M
2127.994	3.651	1219152	ORIENT	n/a	n/a	n/a	n/a	-999	18	[0, 0, 0]	n/a	catFR1	0	R1031M
2131.645	2.418	1220978	WORD	n/a	wordpools/wordpool_categorized_EN.txt	VIOLET	Flowers	1	18	[0, 0, 0]	n/a	catFR1	0	R1031M
2134.063	2.55	1222187	WORD	n/a	wordpools/wordpool_categorized_EN.txt	DAFFODIL	Flowers	2	18	[0, 0, 0]	n/a	catFR1	0	R1031M
2136.613	2.501	1223461	WORD	n/a	wordpools/wordpool_categorized_EN.txt	CHERRY	Fruit	3	18	[0, 0, 0]	n/a	catFR1	0	R1031M
2139.114	2.433	1224712	WORD	n/a	wordpools/wordpool_categorized_EN.txt	LIME	Fruit	4	18	[0, 0, 0]	n/a	catFR1	0	R1031M
2141.547	2.602	1225928	WORD	n/a	wordpools/wordpool_categorized_EN.txt	ROOSTER	FarmAnimals	5	18	[0, 0, 0]	n/a	catFR1	0	R1031M
2144.149	2.516	1227229	WORD	n/a	wordpools/wordpool_categorized_EN.txt	PIG	FarmAnimals	6	18	[0, 0, 0]	n/a	catFR1	0	R1031M
2146.665	2.384	1228487	WORD	n/a	wordpools/wordpool_categorized_EN.txt	CARNATION	Flowers	7	18	[0, 0, 0]	n/a	catFR1	0	R1031M
2149.049	2.567	1229679	WORD	n/a	wordpools/wordpool_categorized_EN.txt	PETUNIA	Flowers	8	18	[0, 0, 0]	n/a	catFR1	0	R1031M
2151.616	2.434	1230962	WORD	n/a	wordpools/wordpool_categorized_EN.txt	CHICKEN	FarmAnimals	9	18	[0, 0, 0]	n/a	catFR1	0	R1031M
2154.05	2.6	1232179	WORD	n/a	wordpools/wordpool_categorized_EN.txt	LAMB	FarmAnimals	10	18	[0, 0, 0]	n/a	catFR1	0	R1031M
2156.65	2.535	1233479	WORD	n/a	wordpools/wordpool_categorized_EN.txt	STRAWBERRY	Fruit	11	18	[0, 0, 0]	n/a	catFR1	0	R1031M
2159.185	1.616	1234746	WORD	n/a	wordpools/wordpool_categorized_EN.txt	ORANGE	Fruit	12	18	[0, 0, 0]	n/a	catFR1	0	R1031M
2160.801	0.001	1235554	DISTRACT_START	n/a	n/a	n/a	n/a	-999	18	[0, 0, 0]	n/a	catFR1	0	R1031M
2160.802	0.015	1235555	START	n/a	n/a	n/a	n/a	-999	18	[-999, -999, -999]	n/a	catFR1	0	R1031M
2160.817	4.051	1235562	PROB	4.051	n/a	n/a	n/a	-999	18	[7, 7, 2]	16	catFR1	0	R1031M
2164.868	3.252	1237587	PROB	3.252	n/a	n/a	n/a	-999	18	[6, 6, 8]	20	catFR1	0	R1031M
2168.12	2.934	1239213	PROB	2.934	n/a	n/a	n/a	-999	18	[6, 5, 7]	18	catFR1	0	R1031M
2171.054	2.783	1240680	PROB	2.783	n/a	n/a	n/a	-999	18	[7, 5, 1]	13	catFR1	0	R1031M
2173.837	3.218	1242071	PROB	3.218	n/a	n/a	n/a	-999	18	[2, 4, 7]	13	catFR1	0	R1031M
2177.055	3.067	1243680	PROB	3.067	n/a	n/a	n/a	-999	18	[6, 3, 8]	17	catFR1	0	R1031M
2180.122	3.234	1245214	PROB	3.234	n/a	n/a	n/a	-999	18	[3, 8, 9]	20	catFR1	0	R1031M
2183.356	0.016	1246830	STOP	n/a	n/a	n/a	n/a	-999	18	[-999, -999, -999]	n/a	catFR1	0	R1031M
2183.372	1.117	1246838	DISTRACT_END	n/a	n/a	n/a	n/a	-999	18	[0, 0, 0]	n/a	catFR1	0	R1031M
2184.489	1.309	1247397	REC_START	n/a	n/a	n/a	n/a	-999	18	[0, 0, 0]	n/a	catFR1	0	R1031M
2185.798	3.81	1248051	REC_WORD	3.81	n/a	VIOLET	Flowers	1	18	[0, 0, 0]	n/a	catFR1	0	R1031M
2189.608	4.078	1249956	REC_WORD	4.078	n/a	CHERRY	Fruit	3	18	[0, 0, 0]	n/a	catFR1	0	R1031M
2193.686	5.491	1251995	REC_WORD	5.491	n/a	PETUNIA	Flowers	8	18	[0, 0, 0]	n/a	catFR1	0	R1031M
2199.177	5.761	1254740	REC_WORD	5.761	n/a	LIME	Fruit	4	18	[0, 0, 0]	n/a	catFR1	0	R1031M
2204.938	6.812	1257620	REC_WORD	6.812	n/a	DAFFODIL	Flowers	2	18	[0, 0, 0]	n/a	catFR1	0	R1031M
2211.75	2.755	1261026	REC_WORD	2.755	n/a	ORANGE	Fruit	12	18	[0, 0, 0]	n/a	catFR1	0	R1031M
2214.505	2.608	1262403	REC_END	n/a	n/a	n/a	n/a	-999	18	[0, 0, 0]	n/a	catFR1	0	R1031M
2217.113	0.0	1263707	COUNTDOWN_START	n/a	n/a	n/a	n/a	-999	19	[0, 0, 0]	n/a	catFR1	0	R1031M
2217.113	10.428	1263707	TRIAL	n/a	n/a	n/a	n/a	-999	19	[0, 0, 0]	n/a	catFR1	0	R1031M
2227.541	0.006	1268921	COUNTDOWN_END	n/a	n/a	n/a	n/a	-999	19	[0, 0, 0]	n/a	catFR1	0	R1031M
2227.547	3.701	1268924	ORIENT	n/a	n/a	n/a	n/a	-999	19	[0, 0, 0]	n/a	catFR1	0	R1031M
2231.248	2.4	1270774	WORD	n/a	wordpools/wordpool_categorized_EN.txt	BLENDER	Appliances	1	19	[0, 0, 0]	n/a	catFR1	0	R1031M
2233.648	2.384	1271974	WORD	n/a	wordpools/wordpool_categorized_EN.txt	WASHER	Appliances	2	19	[0, 0, 0]	n/a	catFR1	0	R1031M
2236.032	2.584	1273166	WORD	n/a	wordpools/wordpool_categorized_EN.txt	OAK	Trees	3	19	[0, 0, 0]	n/a	catFR1	0	R1031M
2238.616	2.417	1274458	WORD	n/a	wordpools/wordpool_categorized_EN.txt	PINE	Trees	4	19	[0, 0, 0]	n/a	catFR1	0	R1031M
2241.033	2.384	1275666	WORD	n/a	wordpools/wordpool_categorized_EN.txt	GNAT	Insects	5	19	[0, 0, 0]	n/a	catFR1	0	R1031M
2243.417	2.417	1276858	WORD	n/a	wordpools/wordpool_categorized_EN.txt	FLY	Insects	6	19	[0, 0, 0]	n/a	catFR1	0	R1031M
2245.834	2.45	1278066	WORD	n/a	wordpools/wordpool_categorized_EN.txt	WALNUT	Trees	7	19	[0, 0, 0]	n/a	catFR1	0	R1031M
2248.284	2.618	1279291	WORD	n/a	wordpools/wordpool_categorized_EN.txt	CEDAR	Trees	8	19	[0, 0, 0]	n/a	catFR1	0	R1031M
2250.902	2.55	1280600	WORD	n/a	wordpools/wordpool_categorized_EN.txt	OVEN	Appliances	9	19	[0, 0, 0]	n/a	catFR1	0	R1031M
2253.452	2.484	1281875	WORD	n/a	wordpools/wordpool_categorized_EN.txt	FREEZER	Appliances	10	19	[0, 0, 0]	n/a	catFR1	0	R1031M
2255.936	2.55	1283117	WORD	n/a	wordpools/wordpool_categorized_EN.txt	MOTH	Insects	11	19	[0, 0, 0]	n/a	catFR1	0	R1031M
2258.486	1.601	1284392	WORD	n/a	wordpools/wordpool_categorized_EN.txt	BEE	Insects	12	19	[0, 0, 0]	n/a	catFR1	0	R1031M
2260.087	0.001	1285192	DISTRACT_START	n/a	n/a	n/a	n/a	-999	19	[0, 0, 0]	n/a	catFR1	0	R1031M
2260.088	0.016	1285192	START	n/a	n/a	n/a	n/a	-999	19	[-999, -999, -999]	n/a	catFR1	0	R1031M
2260.104	4.018	1285200	PROB	4.018	n/a	n/a	n/a	-999	19	[8, 3, 2]	13	catFR1	0	R1031M
2264.122	2.666	1287209	PROB	2.666	n/a	n/a	n/a	-999	19	[2, 3, 7]	12	catFR1	0	R1031M
2266.788	2.684	1288542	PROB	2.684	n/a	n/a	n/a	-999	19	[8, 8, 1]	17	catFR1	0	R1031M
2269.472	3.45	1289884	PROB	3.45	n/a	n/a	n/a	-999	19	[1, 6, 8]	15	catFR1	0	R1031M
2272.922	2.818	1291609	PROB	2.818	n/a	n/a	n/a	-999	19	[8, 6, 3]	17	catFR1	0	R1031M
2275.74	2.884	1293018	PROB	2.884	n/a	n/a	n/a	-999	19	[1, 5, 9]	15	catFR1	0	R1031M
2278.624	2.66	1294459	PROB	2.66	n/a	n/a	n/a	-999	19	[8, 2, 7]	17	catFR1	0	R1031M
2281.284	0.007	1295789	STOP	n/a	n/a	n/a	n/a	-999	19	[-999, -999, -999]	n/a	catFR1	0	R1031M
2281.291	1.117	1295793	DISTRACT_END	n/a	n/a	n/a	n/a	-999	19	[0, 0, 0]	n/a	catFR1	0	R1031M
2282.408	8.327	1296351	REC_START	n/a	n/a	n/a	n/a	-999	19	[0, 0, 0]	n/a	catFR1	0	R1031M
2290.735	17.493	1300514	REC_WORD	17.493	n/a	GNAT	Insects	5	19	[0, 0, 0]	n/a	catFR1	0	R1031M
2308.228	4.195	1309260	REC_WORD	4.195	n/a	BLENDER	Appliances	1	19	[0, 0, 0]	n/a	catFR1	0	R1031M
2312.423	50.217	1311357	REC_END	n/a	n/a	n/a	n/a	-999	19	[0, 0, 0]	n/a	catFR1	0	R1031M
2362.64	0.0	1336463	TRIAL	n/a	n/a	n/a	n/a	-999	20	[0, 0, 0]	n/a	catFR1	0	R1031M
2362.64	10.428	1336463	COUNTDOWN_START	n/a	n/a	n/a	n/a	-999	20	[0, 0, 0]	n/a	catFR1	0	R1031M
2373.068	0.008	1341677	COUNTDOWN_END	n/a	n/a	n/a	n/a	-999	20	[0, 0, 0]	n/a	catFR1	0	R1031M
2373.076	3.65	1341681	ORIENT	n/a	n/a	n/a	n/a	-999	20	[0, 0, 0]	n/a	catFR1	0	R1031M
2376.726	2.418	1343505	WORD	n/a	wordpools/wordpool_categorized_EN.txt	DISHWASHER	Appliances	1	20	[0, 0, 0]	n/a	catFR1	0	R1031M
2379.144	2.499	1344714	WORD	n/a	wordpools/wordpool_categorized_EN.txt	TOASTER	Appliances	2	20	[0, 0, 0]	n/a	catFR1	0	R1031M
2381.643	2.502	1345964	WORD	n/a	wordpools/wordpool_categorized_EN.txt	DRUM	Instruments	3	20	[0, 0, 0]	n/a	catFR1	0	R1031M
2384.145	2.466	1347214	WORD	n/a	wordpools/wordpool_categorized_EN.txt	TRUMPET	Instruments	4	20	[0, 0, 0]	n/a	catFR1	0	R1031M
2386.611	2.552	1348447	WORD	n/a	wordpools/wordpool_categorized_EN.txt	HILLS	Landscapes	5	20	[0, 0, 0]	n/a	catFR1	0	R1031M
2389.163	2.482	1349723	WORD	n/a	wordpools/wordpool_categorized_EN.txt	RIVER	Landscapes	6	20	[0, 0, 0]	n/a	catFR1	0	R1031M
2391.645	2.618	1350964	WORD	n/a	wordpools/wordpool_categorized_EN.txt	STOVE	Appliances	7	20	[0, 0, 0]	n/a	catFR1	0	R1031M
2394.263	2.45	1352273	WORD	n/a	wordpools/wordpool_categorized_EN.txt	VACUUM	Appliances	8	20	[0, 0, 0]	n/a	catFR1	0	R1031M
2396.713	2.484	1353498	WORD	n/a	wordpools/wordpool_categorized_EN.txt	FOREST	Landscapes	9	20	[0, 0, 0]	n/a	catFR1	0	R1031M
2399.197	2.434	1354740	WORD	n/a	wordpools/wordpool_categorized_EN.txt	STREAM	Landscapes	10	20	[0, 0, 0]	n/a	catFR1	0	R1031M
2401.631	2.484	1355957	WORD	n/a	wordpools/wordpool_categorized_EN.txt	ORGAN	Instruments	11	20	[0, 0, 0]	n/a	catFR1	0	R1031M
2404.115	1.616	1357198	WORD	n/a	wordpools/wordpool_categorized_EN.txt	PIANO	Instruments	12	20	[0, 0, 0]	n/a	catFR1	0	R1031M
2405.731	0.001	1358006	DISTRACT_START	n/a	n/a	n/a	n/a	-999	20	[0, 0, 0]	n/a	catFR1	0	R1031M
2405.732	0.016	1358007	START	n/a	n/a	n/a	n/a	-999	20	[-999, -999, -999]	n/a	catFR1	0	R1031M
2405.748	3.517	1358015	PROB	3.517	n/a	n/a	n/a	-999	20	[7, 2, 7]	16	catFR1	0	R1031M
2409.265	2.819	1359773	PROB	2.819	n/a	n/a	n/a	-999	20	[3, 8, 4]	15	catFR1	0	R1031M
2412.084	3.883	1361183	PROB	3.883	n/a	n/a	n/a	-999	20	[1, 4, 2]	7	catFR1	0	R1031M
2415.967	2.884	1363124	PROB	2.884	n/a	n/a	n/a	-999	20	[3, 3, 2]	8	catFR1	0	R1031M
2418.851	3.45	1364566	PROB	3.45	n/a	n/a	n/a	-999	20	[2, 1, 8]	11	catFR1	0	R1031M
2422.301	3.084	1366290	PROB	3.084	n/a	n/a	n/a	-999	20	[5, 5, 5]	15	catFR1	0	R1031M
2425.385	3.387	1367832	PROB	3.387	n/a	n/a	n/a	-999	20	[7, 9, 6]	22	catFR1	0	R1031M
2428.772	0.014	1369526	STOP	n/a	n/a	n/a	n/a	-999	20	[-999, -999, -999]	n/a	catFR1	0	R1031M
2428.786	1.051	1369533	DISTRACT_END	n/a	n/a	n/a	n/a	-999	20	[0, 0, 0]	n/a	catFR1	0	R1031M
2429.837	1.999	1370058	REC_START	n/a	n/a	n/a	n/a	-999	20	[0, 0, 0]	n/a	catFR1	0	R1031M
2431.836	1.443	1371058	REC_WORD	1.443	n/a	RIVER	Landscapes	6	20	[0, 0, 0]	n/a	catFR1	0	R1031M
2433.279	26.569	1371779	REC_WORD	26.569	n/a	STREAM	Landscapes	10	20	[0, 0, 0]	n/a	catFR1	0	R1031M
2459.848	33.684	1385062	REC_END	n/a	n/a	n/a	n/a	-999	20	[0, 0, 0]	n/a	catFR1	0	R1031M
2493.532	0.0	1401902	TRIAL	n/a	n/a	n/a	n/a	-999	21	[0, 0, 0]	n/a	catFR1	0	R1031M
2493.532	10.428	1401902	COUNTDOWN_START	n/a	n/a	n/a	n/a	-999	21	[0, 0, 0]	n/a	catFR1	0	R1031M
2503.96	0.007	1407116	COUNTDOWN_END	n/a	n/a	n/a	n/a	-999	21	[0, 0, 0]	n/a	catFR1	0	R1031M
2503.967	3.884	1407119	ORIENT	n/a	n/a	n/a	n/a	-999	21	[0, 0, 0]	n/a	catFR1	0	R1031M
2507.851	2.534	1409061	WORD	n/a	wordpools/wordpool_categorized_EN.txt	WRENCH	Tools	1	21	[0, 0, 0]	n/a	catFR1	0	R1031M
2510.385	2.45	1410328	WORD	n/a	wordpools/wordpool_categorized_EN.txt	LEVEL	Tools	2	21	[0, 0, 0]	n/a	catFR1	0	R1031M
2512.835	2.401	1411553	WORD	n/a	wordpools/wordpool_categorized_EN.txt	DOLL	Toys	3	21	[0, 0, 0]	n/a	catFR1	0	R1031M
2515.236	2.45	1412753	WORD	n/a	wordpools/wordpool_categorized_EN.txt	BASKETBALL	Toys	4	21	[0, 0, 0]	n/a	catFR1	0	R1031M
2517.686	2.402	1413978	WORD	n/a	wordpools/wordpool_categorized_EN.txt	MONKEY	Zoo	5	21	[0, 0, 0]	n/a	catFR1	0	R1031M
2520.088	2.583	1415179	WORD	n/a	wordpools/wordpool_categorized_EN.txt	CHEETAH	Zoo	6	21	[0, 0, 0]	n/a	catFR1	0	R1031M
2522.671	2.55	1416470	WORD	n/a	wordpools/wordpool_categorized_EN.txt	FOOTBALL	Toys	7	21	[0, 0, 0]	n/a	catFR1	0	R1031M
2525.221	2.384	1417745	WORD	n/a	wordpools/wordpool_categorized_EN.txt	SLINKY	Toys	8	21	[0, 0, 0]	n/a	catFR1	0	R1031M
2527.605	2.384	1418937	WORD	n/a	wordpools/wordpool_categorized_EN.txt	DRILL	Tools	9	21	[0, 0, 0]	n/a	catFR1	0	R1031M
2529.989	2.4	1420129	WORD	n/a	wordpools/wordpool_categorized_EN.txt	HAMMER	Tools	10	21	[0, 0, 0]	n/a	catFR1	0	R1031M
2532.389	2.567	1421329	WORD	n/a	wordpools/wordpool_categorized_EN.txt	TIGER	Zoo	11	21	[0, 0, 0]	n/a	catFR1	0	R1031M
2534.956	1.617	1422612	WORD	n/a	wordpools/wordpool_categorized_EN.txt	GORILLA	Zoo	12	21	[0, 0, 0]	n/a	catFR1	0	R1031M
2536.573	0.001	1423421	DISTRACT_START	n/a	n/a	n/a	n/a	-999	21	[0, 0, 0]	n/a	catFR1	0	R1031M
2536.574	0.016	1423421	START	n/a	n/a	n/a	n/a	-999	21	[-999, -999, -999]	n/a	catFR1	0	R1031M
2536.59	4.284	1423429	PROB	4.284	n/a	n/a	n/a	-999	21	[4, 3, 5]	12	catFR1	0	R1031M
2540.874	2.984	1425571	PROB	2.984	n/a	n/a	n/a	-999	21	[2, 9, 8]	19	catFR1	0	R1031M
2543.858	2.884	1427063	PROB	2.884	n/a	n/a	n/a	-999	21	[7, 7, 4]	18	catFR1	0	R1031M
2546.742	3.551	1428505	PROB	3.551	n/a	n/a	n/a	-999	21	[7, 2, 5]	14	catFR1	0	R1031M
2550.293	3.367	1430280	PROB	3.367	n/a	n/a	n/a	-999	21	[9, 5, 4]	18	catFR1	0	R1031M
2553.66	2.634	1431963	PROB	2.634	n/a	n/a	n/a	-999	21	[1, 4, 8]	13	catFR1	0	R1031M
2556.294	2.879	1433280	PROB	2.879	n/a	n/a	n/a	-999	21	[8, 4, 2]	14	catFR1	0	R1031M
2559.173	0.006	1434719	STOP	n/a	n/a	n/a	n/a	-999	21	[-999, -999, -999]	n/a	catFR1	0	R1031M
2559.179	1.166	1434722	DISTRACT_END	n/a	n/a	n/a	n/a	-999	21	[0, 0, 0]	n/a	catFR1	0	R1031M
2560.345	1.439	1435305	REC_START	n/a	n/a	n/a	n/a	-999	21	[0, 0, 0]	n/a	catFR1	0	R1031M
2561.784	7.365	1436025	REC_WORD	7.365	n/a	CHEETAH	Zoo	6	21	[0, 0, 0]	n/a	catFR1	0	R1031M
2569.149	2.083	1439707	REC_WORD	2.083	n/a	WRENCH	Tools	1	21	[0, 0, 0]	n/a	catFR1	0	R1031M
2571.232	19.125	1440748	REC_WORD	19.125	n/a	HAMMER	Tools	10	21	[0, 0, 0]	n/a	catFR1	0	R1031M
2590.357	7.779	1450310	REC_END	n/a	n/a	n/a	n/a	-999	21	[0, 0, 0]	n/a	catFR1	0	R1031M
2598.136	0.0	1454199	COUNTDOWN_START	n/a	n/a	n/a	n/a	-999	22	[0, 0, 0]	n/a	catFR1	0	R1031M
2598.136	10.428	1454199	TRIAL	n/a	n/a	n/a	n/a	-999	22	[0, 0, 0]	n/a	catFR1	0	R1031M
2608.564	0.007	1459412	COUNTDOWN_END	n/a	n/a	n/a	n/a	-999	22	[0, 0, 0]	n/a	catFR1	0	R1031M
2608.571	3.434	1459416	ORIENT	n/a	n/a	n/a	n/a	-999	22	[0, 0, 0]	n/a	catFR1	0	R1031M
2612.005	2.5	1461133	WORD	n/a	wordpools/wordpool_categorized_EN.txt	FISH	OceanAnimals	1	22	[0, 0, 0]	n/a	catFR1	0	R1031M
2614.505	2.568	1462382	WORD	n/a	wordpools/wordpool_categorized_EN.txt	JELLYFISH	OceanAnimals	2	22	[0, 0, 0]	n/a	catFR1	0	R1031M
2617.073	2.583	1463666	WORD	n/a	wordpools/wordpool_categorized_EN.txt	GOAT	FarmAnimals	3	22	[0, 0, 0]	n/a	catFR1	0	R1031M
2619.656	2.518	1464958	WORD	n/a	wordpools/wordpool_categorized_EN.txt	CALF	FarmAnimals	4	22	[0, 0, 0]	n/a	catFR1	0	R1031M
2622.174	2.566	1466217	WORD	n/a	wordpools/wordpool_categorized_EN.txt	LEMONADE	Beverages	5	22	[0, 0, 0]	n/a	catFR1	0	R1031M
2624.74	2.551	1467499	WORD	n/a	wordpools/wordpool_categorized_EN.txt	WINE	Beverages	6	22	[0, 0, 0]	n/a	catFR1	0	R1031M
2627.291	2.434	1468775	WORD	n/a	wordpools/wordpool_categorized_EN.txt	COW	FarmAnimals	7	22	[0, 0, 0]	n/a	catFR1	0	R1031M
2629.725	2.418	1469992	WORD	n/a	wordpools/wordpool_categorized_EN.txt	HORSE	FarmAnimals	8	22	[0, 0, 0]	n/a	catFR1	0	R1031M
2632.143	2.382	1471201	WORD	n/a	wordpools/wordpool_categorized_EN.txt	WHALE	OceanAnimals	9	22	[0, 0, 0]	n/a	catFR1	0	R1031M
2634.525	2.586	1472391	WORD	n/a	wordpools/wordpool_categorized_EN.txt	SQUID	OceanAnimals	10	22	[0, 0, 0]	n/a	catFR1	0	R1031M
2637.111	2.499	1473684	WORD	n/a	wordpools/wordpool_categorized_EN.txt	MILK	Beverages	11	22	[0, 0, 0]	n/a	catFR1	0	R1031M
2639.61	1.617	1474934	WORD	n/a	wordpools/wordpool_categorized_EN.txt	RUM	Beverages	12	22	[0, 0, 0]	n/a	catFR1	0	R1031M
2641.227	0.001	1475742	DISTRACT_START	n/a	n/a	n/a	n/a	-999	22	[0, 0, 0]	n/a	catFR1	0	R1031M
2641.228	0.016	1475743	START	n/a	n/a	n/a	n/a	-999	22	[-999, -999, -999]	n/a	catFR1	0	R1031M
2641.244	4.567	1475751	PROB	4.567	n/a	n/a	n/a	-999	22	[4, 5, 8]	17	catFR1	0	R1031M
2645.811	3.235	1478034	PROB	3.235	n/a	n/a	n/a	-999	22	[2, 6, 5]	13	catFR1	0	R1031M
2649.046	2.833	1479651	PROB	2.833	n/a	n/a	n/a	-999	22	[5, 3, 1]	9	catFR1	0	R1031M
2651.879	2.701	1481068	PROB	2.701	n/a	n/a	n/a	-999	22	[8, 2, 3]	13	catFR1	0	R1031M
2654.58	2.75	1482418	PROB	2.75	n/a	n/a	n/a	-999	22	[6, 8, 2]	16	catFR1	0	R1031M
2657.33	2.901	1483793	PROB	2.901	n/a	n/a	n/a	-999	22	[2, 9, 7]	18	catFR1	0	R1031M
2660.231	2.533	1485243	PROB	2.533	n/a	n/a	n/a	-999	22	[2, 2, 2]	6	catFR1	0	R1031M
2662.764	0.017	1486509	STOP	n/a	n/a	n/a	n/a	-999	22	[-999, -999, -999]	n/a	catFR1	0	R1031M
2662.781	1.101	1486518	DISTRACT_END	n/a	n/a	n/a	n/a	-999	22	[0, 0, 0]	n/a	catFR1	0	R1031M
2663.882	3.186	1487068	REC_START	n/a	n/a	n/a	n/a	-999	22	[0, 0, 0]	n/a	catFR1	0	R1031M
2667.068	1.605	1488661	REC_WORD	1.605	n/a	GOAT	FarmAnimals	3	22	[0, 0, 0]	n/a	catFR1	0	R1031M
2668.673	15.182	1489464	REC_WORD	15.182	n/a	CALF	FarmAnimals	4	22	[0, 0, 0]	n/a	catFR1	0	R1031M
2683.855	6.227	1497054	REC_WORD	6.227	n/a	MILK	Beverages	11	22	[0, 0, 0]	n/a	catFR1	0	R1031M
2690.082	1.359	1500167	REC_WORD	1.359	n/a	COW	FarmAnimals	7	22	[0, 0, 0]	n/a	catFR1	0	R1031M
2691.441	2.452	1500846	REC_WORD	2.452	n/a	HORSE	FarmAnimals	8	22	[0, 0, 0]	n/a	catFR1	0	R1031M
2693.893	76.576	1502072	REC_END	n/a	n/a	n/a	n/a	-999	22	[0, 0, 0]	n/a	catFR1	0	R1031M
2770.469	0.0	1540356	TRIAL	n/a	n/a	n/a	n/a	-999	23	[0, 0, 0]	n/a	catFR1	0	R1031M
2770.469	10.428	1540356	COUNTDOWN_START	n/a	n/a	n/a	n/a	-999	23	[0, 0, 0]	n/a	catFR1	0	R1031M
2780.897	0.007	1545570	COUNTDOWN_END	n/a	n/a	n/a	n/a	-999	23	[0, 0, 0]	n/a	catFR1	0	R1031M
2780.904	3.901	1545573	ORIENT	n/a	n/a	n/a	n/a	-999	23	[0, 0, 0]	n/a	catFR1	0	R1031M
2784.805	2.433	1547524	WORD	n/a	wordpools/wordpool_categorized_EN.txt	HEN	FarmAnimals	1	23	[0, 0, 0]	n/a	catFR1	0	R1031M
2787.238	2.468	1548740	WORD	n/a	wordpools/wordpool_categorized_EN.txt	BULL	FarmAnimals	2	23	[0, 0, 0]	n/a	catFR1	0	R1031M
2789.706	2.583	1549974	WORD	n/a	wordpools/wordpool_categorized_EN.txt	NIGHTSTAND	Furniture	3	23	[0, 0, 0]	n/a	catFR1	0	R1031M
2792.289	2.584	1551265	WORD	n/a	wordpools/wordpool_categorized_EN.txt	DESK	Furniture	4	23	[0, 0, 0]	n/a	catFR1	0	R1031M
2794.873	2.417	1552557	WORD	n/a	wordpools/wordpool_categorized_EN.txt	DRIZZLE	Weather	5	23	[0, 0, 0]	n/a	catFR1	0	R1031M
2797.29	2.434	1553765	WORD	n/a	wordpools/wordpool_categorized_EN.txt	THUNDERSTORM	Weather	6	23	[0, 0, 0]	n/a	catFR1	0	R1031M
2799.724	2.402	1554982	WORD	n/a	wordpools/wordpool_categorized_EN.txt	TURKEY	FarmAnimals	7	23	[0, 0, 0]	n/a	catFR1	0	R1031M
2802.126	2.466	1556183	WORD	n/a	wordpools/wordpool_categorized_EN.txt	SHEEP	FarmAnimals	8	23	[0, 0, 0]	n/a	catFR1	0	R1031M
2804.592	2.501	1557416	WORD	n/a	wordpools/wordpool_categorized_EN.txt	CLOUD	Weather	9	23	[0, 0, 0]	n/a	catFR1	0	R1031M
2807.093	2.45	1558666	WORD	n/a	wordpools/wordpool_categorized_EN.txt	THUNDER	Weather	10	23	[0, 0, 0]	n/a	catFR1	0	R1031M
2809.543	2.618	1559891	WORD	n/a	wordpools/wordpool_categorized_EN.txt	CHAIR	Furniture	11	23	[0, 0, 0]	n/a	catFR1	0	R1031M
2812.161	1.616	1561200	WORD	n/a	wordpools/wordpool_categorized_EN.txt	DRESSER	Furniture	12	23	[0, 0, 0]	n/a	catFR1	0	R1031M
2813.777	0.001	1562008	DISTRACT_START	n/a	n/a	n/a	n/a	-999	23	[0, 0, 0]	n/a	catFR1	0	R1031M
2813.778	0.016	1562009	START	n/a	n/a	n/a	n/a	-999	23	[-999, -999, -999]	n/a	catFR1	0	R1031M
2813.794	3.684	1562017	PROB	3.684	n/a	n/a	n/a	-999	23	[4, 7, 5]	16	catFR1	0	R1031M
2817.478	2.867	1563858	PROB	2.867	n/a	n/a	n/a	-999	23	[2, 2, 9]	13	catFR1	0	R1031M
2820.345	2.684	1565292	PROB	2.684	n/a	n/a	n/a	-999	23	[1, 7, 1]	9	catFR1	0	R1031M
2823.029	3.184	1566634	PROB	3.184	n/a	n/a	n/a	-999	23	[4, 3, 8]	15	catFR1	0	R1031M
2826.213	2.7	1568225	PROB	2.7	n/a	n/a	n/a	-999	23	[5, 6, 2]	13	catFR1	0	R1031M
2828.913	4.751	1569575	PROB	4.751	n/a	n/a	n/a	-999	23	[3, 3, 9]	15	catFR1	0	R1031M
2833.664	2.924	1571951	PROB	2.924	n/a	n/a	n/a	-999	23	[7, 4, 9]	20	catFR1	0	R1031M
2836.588	0.01	1573412	STOP	n/a	n/a	n/a	n/a	-999	23	[-999, -999, -999]	n/a	catFR1	0	R1031M
2836.598	1.134	1573417	DISTRACT_END	n/a	n/a	n/a	n/a	-999	23	[0, 0, 0]	n/a	catFR1	0	R1031M
2837.732	1.113	1573984	REC_START	n/a	n/a	n/a	n/a	-999	23	[0, 0, 0]	n/a	catFR1	0	R1031M
2838.845	0.994	1574541	REC_WORD	0.994	n/a	CHAIR	Furniture	11	23	[0, 0, 0]	n/a	catFR1	0	R1031M
2839.839	27.906	1575038	REC_WORD	27.906	n/a	NIGHTSTAND	Furniture	3	23	[0, 0, 0]	n/a	catFR1	0	R1031M
2867.745	7.027	1588989	REC_END	n/a	n/a	n/a	n/a	-999	23	[0, 0, 0]	n/a	catFR1	0	R1031M
2874.772	0.0	1592502	TRIAL	n/a	n/a	n/a	n/a	-999	24	[0, 0, 0]	n/a	catFR1	0	R1031M
2874.772	10.428	1592502	COUNTDOWN_START	n/a	n/a	n/a	n/a	-999	24	[0, 0, 0]	n/a	catFR1	0	R1031M
2885.2	0.007	1597716	COUNTDOWN_END	n/a	n/a	n/a	n/a	-999	24	[0, 0, 0]	n/a	catFR1	0	R1031M
2885.207	3.468	1597719	ORIENT	n/a	n/a	n/a	n/a	-999	24	[0, 0, 0]	n/a	catFR1	0	R1031M
2888.675	2.451	1599453	WORD	n/a	wordpools/wordpool_categorized_EN.txt	CORKSCREW	KitchenTools	1	24	[0, 0, 0]	n/a	catFR1	0	R1031M
2891.126	2.416	1600679	WORD	n/a	wordpools/wordpool_categorized_EN.txt	FORK	KitchenTools	2	24	[0, 0, 0]	n/a	catFR1	0	R1031M
2893.542	2.451	1601886	WORD	n/a	wordpools/wordpool_categorized_EN.txt	CRAB	OceanAnimals	3	24	[0, 0, 0]	n/a	catFR1	0	R1031M
2895.993	2.5	1603112	WORD	n/a	wordpools/wordpool_categorized_EN.txt	OYSTER	OceanAnimals	4	24	[0, 0, 0]	n/a	catFR1	0	R1031M
2898.493	2.534	1604362	WORD	n/a	wordpools/wordpool_categorized_EN.txt	VIOLIN	Instruments	5	24	[0, 0, 0]	n/a	catFR1	0	R1031M
2901.027	2.451	1605629	WORD	n/a	wordpools/wordpool_categorized_EN.txt	BASS	Instruments	6	24	[0, 0, 0]	n/a	catFR1	0	R1031M
2903.478	2.601	1606854	WORD	n/a	wordpools/wordpool_categorized_EN.txt	SHRIMP	OceanAnimals	7	24	[0, 0, 0]	n/a	catFR1	0	R1031M
2906.079	2.616	1608154	WORD	n/a	wordpools/wordpool_categorized_EN.txt	LOBSTER	OceanAnimals	8	24	[0, 0, 0]	n/a	catFR1	0	R1031M
2908.695	2.618	1609462	WORD	n/a	wordpools/wordpool_categorized_EN.txt	PEELER	KitchenTools	9	24	[0, 0, 0]	n/a	catFR1	0	R1031M
2911.313	2.517	1610771	WORD	n/a	wordpools/wordpool_categorized_EN.txt	SPATULA	KitchenTools	10	24	[0, 0, 0]	n/a	catFR1	0	R1031M
2913.83	2.517	1612029	WORD	n/a	wordpools/wordpool_categorized_EN.txt	FLUTE	Instruments	11	24	[0, 0, 0]	n/a	catFR1	0	R1031M
2916.347	1.617	1613288	WORD	n/a	wordpools/wordpool_categorized_EN.txt	BANJO	Instruments	12	24	[0, 0, 0]	n/a	catFR1	0	R1031M
2917.964	0.001	1614096	DISTRACT_START	n/a	n/a	n/a	n/a	-999	24	[0, 0, 0]	n/a	catFR1	0	R1031M
2917.965	0.015	1614097	START	n/a	n/a	n/a	n/a	-999	24	[-999, -999, -999]	n/a	catFR1	0	R1031M
2917.98	2.684	1614104	PROB	2.684	n/a	n/a	n/a	-999	24	[5, 3, 1]	9	catFR1	0	R1031M
2920.664	2.901	1615446	PROB	2.901	n/a	n/a	n/a	-999	24	[8, 4, 1]	13	catFR1	0	R1031M
2923.565	3.034	1616896	PROB	3.034	n/a	n/a	n/a	-999	24	[7, 6, 1]	14	catFR1	0	R1031M
2926.599	3.4	1618413	PROB	3.4	n/a	n/a	n/a	-999	24	[3, 3, 7]	13	catFR1	0	R1031M
2929.999	2.801	1620113	PROB	2.801	n/a	n/a	n/a	-999	24	[1, 7, 3]	11	catFR1	0	R1031M
2932.8	2.784	1621513	PROB	2.784	n/a	n/a	n/a	-999	24	[8, 2, 5]	15	catFR1	0	R1031M
2935.584	2.948	1622905	PROB	2.948	n/a	n/a	n/a	-999	24	[3, 4, 9]	16	catFR1	0	R1031M
2938.532	0.019	1624379	STOP	n/a	n/a	n/a	n/a	-999	24	[-999, -999, -999]	n/a	catFR1	0	R1031M
2938.551	1.201	1624389	DISTRACT_END	n/a	n/a	n/a	n/a	-999	24	[0, 0, 0]	n/a	catFR1	0	R1031M
2939.752	0.939	1624989	REC_START	n/a	n/a	n/a	n/a	-999	24	[0, 0, 0]	n/a	catFR1	0	R1031M
2940.691	1.961	1625458	REC_WORD	1.961	n/a	LOBSTER	OceanAnimals	8	24	[0, 0, 0]	n/a	catFR1	0	R1031M
2942.652	1.532	1626439	REC_WORD	1.532	n/a	CRAB	OceanAnimals	3	24	[0, 0, 0]	n/a	catFR1	0	R1031M
2944.184	25.579	1627205	REC_WORD	25.579	n/a	SHRIMP	OceanAnimals	7	24	[0, 0, 0]	n/a	catFR1	0	R1031M
2969.763	17.181	1639993	REC_END	n/a	n/a	n/a	n/a	-999	24	[0, 0, 0]	n/a	catFR1	0	R1031M
2986.944	0.0	1648583	TRIAL	n/a	n/a	n/a	n/a	-999	25	[0, 0, 0]	n/a	catFR1	0	R1031M
2986.944	10.428	1648583	COUNTDOWN_START	n/a	n/a	n/a	n/a	-999	25	[0, 0, 0]	n/a	catFR1	0	R1031M
2997.372	0.007	1653796	COUNTDOWN_END	n/a	n/a	n/a	n/a	-999	25	[0, 0, 0]	n/a	catFR1	0	R1031M
2997.379	3.752	1653800	ORIENT	n/a	n/a	n/a	n/a	-999	25	[0, 0, 0]	n/a	catFR1	0	R1031M
3001.131	2.433	1655675	WORD	n/a	wordpools/wordpool_categorized_EN.txt	COMPUTER	Electronics	1	25	[0, 0, 0]	n/a	catFR1	0	R1031M
3003.564	2.535	1656892	WORD	n/a	wordpools/wordpool_categorized_EN.txt	STEREO	Electronics	2	25	[0, 0, 0]	n/a	catFR1	0	R1031M
3006.099	2.616	1658159	WORD	n/a	wordpools/wordpool_categorized_EN.txt	SODA	Beverages	3	25	[0, 0, 0]	n/a	catFR1	0	R1031M
3008.715	2.451	1659467	WORD	n/a	wordpools/wordpool_categorized_EN.txt	BEER	Beverages	4	25	[0, 0, 0]	n/a	catFR1	0	R1031M
3011.166	2.516	1660692	WORD	n/a	wordpools/wordpool_categorized_EN.txt	PEACH	Fruit	5	25	[0, 0, 0]	n/a	catFR1	0	R1031M
3013.682	2.617	1661950	WORD	n/a	wordpools/wordpool_categorized_EN.txt	LEMON	Fruit	6	25	[0, 0, 0]	n/a	catFR1	0	R1031M
3016.299	2.401	1663259	WORD	n/a	wordpools/wordpool_categorized_EN.txt	TEA	Beverages	7	25	[0, 0, 0]	n/a	catFR1	0	R1031M
3018.7	2.55	1664459	WORD	n/a	wordpools/wordpool_categorized_EN.txt	CIDER	Beverages	8	25	[0, 0, 0]	n/a	catFR1	0	R1031M
3021.25	2.634	1665734	WORD	n/a	wordpools/wordpool_categorized_EN.txt	SPEAKER	Electronics	9	25	[0, 0, 0]	n/a	catFR1	0	R1031M
3023.884	2.484	1667051	WORD	n/a	wordpools/wordpool_categorized_EN.txt	TABLET	Electronics	10	25	[0, 0, 0]	n/a	catFR1	0	R1031M
3026.368	2.534	1668293	WORD	n/a	wordpools/wordpool_categorized_EN.txt	GRAPE	Fruit	11	25	[0, 0, 0]	n/a	catFR1	0	R1031M
3028.902	1.617	1669559	WORD	n/a	wordpools/wordpool_categorized_EN.txt	BLUEBERRY	Fruit	12	25	[0, 0, 0]	n/a	catFR1	0	R1031M
3030.519	0.001	1670368	DISTRACT_START	n/a	n/a	n/a	n/a	-999	25	[0, 0, 0]	n/a	catFR1	0	R1031M
3030.52	0.016	1670368	START	n/a	n/a	n/a	n/a	-999	25	[-999, -999, -999]	n/a	catFR1	0	R1031M
3030.536	3.817	1670376	PROB	3.817	n/a	n/a	n/a	-999	25	[7, 2, 8]	17	catFR1	0	R1031M
3034.353	2.884	1672285	PROB	2.884	n/a	n/a	n/a	-999	25	[5, 9, 5]	19	catFR1	0	R1031M
3037.237	2.517	1673726	PROB	2.517	n/a	n/a	n/a	-999	25	[7, 4, 1]	12	catFR1	0	R1031M
3039.754	2.584	1674985	PROB	2.584	n/a	n/a	n/a	-999	25	[1, 5, 2]	8	catFR1	0	R1031M
3042.338	4.752	1676277	PROB	4.752	n/a	n/a	n/a	-999	25	[2, 2, 4]	8	catFR1	0	R1031M
3047.09	4.154	1678652	PROB	4.154	n/a	n/a	n/a	-999	25	[9, 5, 8]	22	catFR1	0	R1031M
3051.244	0.012	1680729	STOP	n/a	n/a	n/a	n/a	-999	25	[-999, -999, -999]	n/a	catFR1	0	R1031M
3051.256	1.134	1680735	DISTRACT_END	n/a	n/a	n/a	n/a	-999	25	[0, 0, 0]	n/a	catFR1	0	R1031M
3052.39	1.559	1681302	REC_START	n/a	n/a	n/a	n/a	-999	25	[0, 0, 0]	n/a	catFR1	0	R1031M
3053.949	5.746	1682082	REC_WORD	5.746	n/a	BLUEBERRY	Fruit	12	25	[0, 0, 0]	n/a	catFR1	0	R1031M
3059.695	3.787	1684954	REC_WORD	3.787	n/a	LEMON	Fruit	6	25	[0, 0, 0]	n/a	catFR1	0	R1031M
3063.482	1.799	1686848	REC_WORD	1.799	n/a	BEER	Beverages	4	25	[0, 0, 0]	n/a	catFR1	0	R1031M
3065.281	3.924	1687747	REC_WORD	3.924	n/a	SODA	Beverages	3	25	[0, 0, 0]	n/a	catFR1	0	R1031M
3069.205	1.99	1689709	REC_WORD	1.99	n/a	COMPUTER	Electronics	1	25	[0, 0, 0]	n/a	catFR1	0	R1031M
3071.195	4.498	1690704	REC_WORD	4.498	n/a	SPEAKER	Electronics	9	25	[0, 0, 0]	n/a	catFR1	0	R1031M
3075.693	4.449	1692952	REC_WORD	4.449	n/a	TABLET	Electronics	10	25	[0, 0, 0]	n/a	catFR1	0	R1031M
3080.142	2.263	1695177	REC_WORD	2.263	n/a	PEACH	Fruit	5	25	[0, 0, 0]	n/a	catFR1	0	R1031M
3082.405	70.805	1696308	REC_END	n/a	n/a	n/a	n/a	-999	25	[0, 0, 0]	n/a	catFR1	0	R1031M
3153.21	0.0	1731707	SESS_END	n/a	n/a	n/a	n/a	-999	25	[0, 0, 0]	n/a	catFR1	0	R1031M
