onset	duration	sample	trial_type	response_time	stim_file	item_name	category	serialpos	list	test	answer	experiment	session	subject
0.0	164.765	45370	INSTRUCT_START	n/a	n/a	n/a	n/a	-999	-999	[0, 0, 0]	n/a	catFR1	0	R1491T
164.765	92.399	210124	INSTRUCT_END	n/a	n/a	n/a	n/a	-999	-999	[0, 0, 0]	n/a	catFR1	0	R1491T
257.164	10.35	302518	COUNTDOWN_START	n/a	n/a	n/a	n/a	-999	-999	[0, 0, 0]	n/a	catFR1	0	R1491T
267.514	0.0	312865	COUNTDOWN_END	n/a	n/a	n/a	n/a	-999	-999	[0, 0, 0]	n/a	catFR1	0	R1491T
267.514	1.801	312865	ENCODING_START	n/a	n/a	n/a	n/a	-999	-1	[0, 0, 0]	n/a	catFR1	0	R1491T
269.315	1.616	314670	WORD	n/a	n/a	PUDDING	Desserts	1	-1	[0, 0, 0]	n/a	catFR1	0	R1491T
270.931	0.966	316282	WORD_OFF	n/a	n/a	PUDDING	Desserts	1	-1	[0, 0, 0]	n/a	catFR1	0	R1491T
271.897	1.6	317246	WORD	n/a	n/a	CUPCAKE	Desserts	2	-1	[0, 0, 0]	n/a	catFR1	0	R1491T
273.497	0.9	318845	WORD_OFF	n/a	n/a	CUPCAKE	Desserts	2	-1	[0, 0, 0]	n/a	catFR1	0	R1491T
274.397	1.6	319740	WORD	n/a	n/a	PEELER	KitchenTools	3	-1	[0, 0, 0]	n/a	catFR1	0	R1491T
275.997	0.917	321338	WORD_OFF	n/a	n/a	PEELER	KitchenTools	3	-1	[0, 0, 0]	n/a	catFR1	0	R1491T
276.914	1.6	322261	WORD	n/a	n/a	GRATER	KitchenTools	4	-1	[0, 0, 0]	n/a	catFR1	0	R1491T
278.514	0.784	323860	WORD_OFF	n/a	n/a	GRATER	KitchenTools	4	-1	[0, 0, 0]	n/a	catFR1	0	R1491T
279.298	1.616	324645	WORD	n/a	n/a	STREAM	Landscapes	5	-1	[0, 0, 0]	n/a	catFR1	0	R1491T
280.914	0.85	326257	WORD_OFF	n/a	n/a	STREAM	Landscapes	5	-1	[0, 0, 0]	n/a	catFR1	0	R1491T
281.764	1.6	327111	WORD	n/a	n/a	BEACH	Landscapes	6	-1	[0, 0, 0]	n/a	catFR1	0	R1491T
283.364	0.766	328709	WORD_OFF	n/a	n/a	BEACH	Landscapes	6	-1	[0, 0, 0]	n/a	catFR1	0	R1491T
284.13	1.601	329481	WORD	n/a	n/a	LADLE	KitchenTools	7	-1	[0, 0, 0]	n/a	catFR1	0	R1491T
285.731	0.983	331079	WORD_OFF	n/a	n/a	LADLE	KitchenTools	7	-1	[0, 0, 0]	n/a	catFR1	0	R1491T
286.714	1.6	332057	WORD	n/a	n/a	CORKSCREW	KitchenTools	8	-1	[0, 0, 0]	n/a	catFR1	0	R1491T
288.314	0.901	333656	WORD_OFF	n/a	n/a	CORKSCREW	KitchenTools	8	-1	[0, 0, 0]	n/a	catFR1	0	R1491T
289.215	1.616	334565	WORD	n/a	n/a	CREEK	Landscapes	9	-1	[0, 0, 0]	n/a	catFR1	0	R1491T
290.831	0.967	336177	WORD_OFF	n/a	n/a	CREEK	Landscapes	9	-1	[0, 0, 0]	n/a	catFR1	0	R1491T
291.798	1.6	337141	WORD	n/a	n/a	VALLEY	Landscapes	10	-1	[0, 0, 0]	n/a	catFR1	0	R1491T
293.398	0.833	338740	WORD_OFF	n/a	n/a	VALLEY	Landscapes	10	-1	[0, 0, 0]	n/a	catFR1	0	R1491T
294.231	1.6	339580	WORD	n/a	n/a	CHEESECAKE	Desserts	11	-1	[0, 0, 0]	n/a	catFR1	0	R1491T
295.831	1.0	341178	WORD_OFF	n/a	n/a	CHEESECAKE	Desserts	11	-1	[0, 0, 0]	n/a	catFR1	0	R1491T
296.831	1.617	342184	WORD	n/a	n/a	JELLO	Desserts	12	-1	[0, 0, 0]	n/a	catFR1	0	R1491T
298.448	0.001	343796	WORD_OFF	n/a	n/a	JELLO	Desserts	12	-1	[0, 0, 0]	n/a	catFR1	0	R1491T
298.449	0.0	343796	ENCODING_END	n/a	n/a	n/a	n/a	-999	-1	[0, 0, 0]	n/a	catFR1	0	R1491T
298.449	0.0	343796	DISTRACT_START	n/a	n/a	n/a	n/a	-999	-1	[0, 0, 0]	n/a	catFR1	0	R1491T
298.449	0.0	343799	START	n/a	n/a	n/a	n/a	-999	-1	[-999, -999, -999]	n/a	catFR1	0	R1491T
298.449	12.799	343799	PROB	12.783	n/a	n/a	n/a	-999	-1	[8, 1, 6]	15.0	catFR1	0	R1491T
311.248	6.984	356597	PROB	6.966	n/a	n/a	n/a	-999	-1	[7, 6, 2]	15.0	catFR1	0	R1491T
318.232	5.582	363581	PROB	5.566	n/a	n/a	n/a	-999	-1	[5, 3, 2]	10.0	catFR1	0	R1491T
323.814	0.0	369161	DISTRACT_END	n/a	n/a	n/a	n/a	-999	-1	[0, 0, 0]	n/a	catFR1	0	R1491T
323.814	2.135	369162	STOP	n/a	n/a	n/a	n/a	-999	-1	[-999, -999, -999]	n/a	catFR1	0	R1491T
325.949	7.279	371291	REC_START	n/a	n/a	n/a	n/a	-999	-1	[0, 0, 0]	n/a	catFR1	0	R1491T
333.228	1.0	378576	REC_WORD_VV	7.279	n/a	<>	n/a	-999	-1	[0, 0, 0]	n/a	catFR1	0	R1491T
334.228	0.503	379576	REC_WORD_VV	8.279	n/a	<>	n/a	-999	-1	[0, 0, 0]	n/a	catFR1	0	R1491T
334.731	1.0	380079	REC_WORD_VV	8.782	n/a	<>	n/a	-999	-1	[0, 0, 0]	n/a	catFR1	0	R1491T
335.731	1.468	381079	REC_WORD_VV	9.782	n/a	<>	n/a	-999	-1	[0, 0, 0]	n/a	catFR1	0	R1491T
337.199	1.0	382547	REC_WORD_VV	11.25	n/a	<>	n/a	-999	-1	[0, 0, 0]	n/a	catFR1	0	R1491T
338.199	0.538	383547	REC_WORD_VV	12.25	n/a	<>	n/a	-999	-1	[0, 0, 0]	n/a	catFR1	0	R1491T
338.737	2.526	384085	REC_WORD_VV	12.788	n/a	<>	n/a	-999	-1	[0, 0, 0]	n/a	catFR1	0	R1491T
341.263	0.275	386610	REC_WORD_VV	15.314	n/a	<>	n/a	-999	-1	[0, 0, 0]	n/a	catFR1	0	R1491T
341.538	3.418	386885	REC_WORD	15.589	n/a	LOOP	n/a	-999	-1	[0, 0, 0]	n/a	catFR1	0	R1491T
344.956	1.0	390303	REC_WORD_VV	19.007	n/a	<>	n/a	-999	-1	[0, 0, 0]	n/a	catFR1	0	R1491T
345.956	2.005	391303	REC_WORD_VV	20.007	n/a	<>	n/a	-999	-1	[0, 0, 0]	n/a	catFR1	0	R1491T
347.961	0.422	393308	REC_WORD_VV	22.012	n/a	<>	n/a	-999	-1	[0, 0, 0]	n/a	catFR1	0	R1491T
348.383	0.998	393730	REC_WORD	22.434	n/a	PEELER	KitchenTools	3	-1	[0, 0, 0]	n/a	catFR1	0	R1491T
349.381	2.702	394728	REC_WORD	23.432	n/a	PEELER	KitchenTools	3	-1	[0, 0, 0]	n/a	catFR1	0	R1491T
352.083	0.998	397430	REC_WORD	26.134	n/a	SAND	n/a	-999	-1	[0, 0, 0]	n/a	catFR1	0	R1491T
353.081	3.056	398428	REC_WORD	27.132	n/a	SAND	n/a	-999	-1	[0, 0, 0]	n/a	catFR1	0	R1491T
356.137	102.761	401484	REC_END	n/a	n/a	n/a	n/a	-999	-1	[0, 0, 0]	n/a	catFR1	0	R1491T
458.898	10.35	504238	COUNTDOWN_START	n/a	n/a	n/a	n/a	-999	1	[0, 0, 0]	n/a	catFR1	0	R1491T
469.248	0.0	514585	COUNTDOWN_END	n/a	n/a	n/a	n/a	-999	1	[0, 0, 0]	n/a	catFR1	0	R1491T
469.248	2.216	514585	ENCODING_START	n/a	n/a	n/a	n/a	-999	1	[0, 0, 0]	n/a	catFR1	0	R1491T
471.464	1.6	516804	WORD	n/a	wordpools/wordpool_categorized_EN.txt	LILY	Flowers	1	1	[0, 0, 0]	n/a	catFR1	0	R1491T
473.064	0.817	518402	WORD_OFF	n/a	n/a	LILY	Flowers	1	1	[0, 0, 0]	n/a	catFR1	0	R1491T
473.881	1.616	519215	WORD	n/a	wordpools/wordpool_categorized_EN.txt	MARIGOLD	Flowers	2	1	[0, 0, 0]	n/a	catFR1	0	R1491T
475.497	0.834	520840	WORD_OFF	n/a	n/a	MARIGOLD	Flowers	2	1	[0, 0, 0]	n/a	catFR1	0	R1491T
476.331	1.616	521667	WORD	n/a	wordpools/wordpool_categorized_EN.txt	CELERY	Vegetables	3	1	[0, 0, 0]	n/a	catFR1	0	R1491T
477.947	0.883	523279	WORD_OFF	n/a	n/a	CELERY	Vegetables	3	1	[0, 0, 0]	n/a	catFR1	0	R1491T
478.83	1.6	524161	WORD	n/a	wordpools/wordpool_categorized_EN.txt	BROCCOLI	Vegetables	4	1	[0, 0, 0]	n/a	catFR1	0	R1491T
480.43	0.951	525773	WORD_OFF	n/a	n/a	BROCCOLI	Vegetables	4	1	[0, 0, 0]	n/a	catFR1	0	R1491T
481.381	1.616	526724	WORD	n/a	wordpools/wordpool_categorized_EN.txt	JELLYFISH	OceanAnimals	5	1	[0, 0, 0]	n/a	catFR1	0	R1491T
482.997	1.0	528336	WORD_OFF	n/a	n/a	JELLYFISH	OceanAnimals	5	1	[0, 0, 0]	n/a	catFR1	0	R1491T
483.997	1.617	529341	WORD	n/a	wordpools/wordpool_categorized_EN.txt	PLANKTON	OceanAnimals	6	1	[0, 0, 0]	n/a	catFR1	0	R1491T
485.614	0.766	530953	WORD_OFF	n/a	n/a	PLANKTON	OceanAnimals	6	1	[0, 0, 0]	n/a	catFR1	0	R1491T
486.38	1.601	531711	WORD	n/a	wordpools/wordpool_categorized_EN.txt	VIOLET	Flowers	7	1	[0, 0, 0]	n/a	catFR1	0	R1491T
487.981	0.85	533323	WORD_OFF	n/a	n/a	VIOLET	Flowers	7	1	[0, 0, 0]	n/a	catFR1	0	R1491T
488.831	1.616	534164	WORD	n/a	wordpools/wordpool_categorized_EN.txt	DAFFODIL	Flowers	8	1	[0, 0, 0]	n/a	catFR1	0	R1491T
490.447	0.767	535789	WORD_OFF	n/a	n/a	DAFFODIL	Flowers	8	1	[0, 0, 0]	n/a	catFR1	0	R1491T
491.214	1.616	536547	WORD	n/a	wordpools/wordpool_categorized_EN.txt	ONION	Vegetables	9	1	[0, 0, 0]	n/a	catFR1	0	R1491T
492.83	1.0	538173	WORD_OFF	n/a	n/a	ONION	Vegetables	9	1	[0, 0, 0]	n/a	catFR1	0	R1491T
493.83	1.601	539165	WORD	n/a	wordpools/wordpool_categorized_EN.txt	PEAS	Vegetables	10	1	[0, 0, 0]	n/a	catFR1	0	R1491T
495.431	0.967	540763	WORD_OFF	n/a	n/a	PEAS	Vegetables	10	1	[0, 0, 0]	n/a	catFR1	0	R1491T
496.398	1.616	541741	WORD	n/a	wordpools/wordpool_categorized_EN.txt	TURTLE	OceanAnimals	11	1	[0, 0, 0]	n/a	catFR1	0	R1491T
498.014	0.767	543353	WORD_OFF	n/a	n/a	TURTLE	OceanAnimals	11	1	[0, 0, 0]	n/a	catFR1	0	R1491T
498.781	1.601	544111	WORD	n/a	wordpools/wordpool_categorized_EN.txt	SQUID	OceanAnimals	12	1	[0, 0, 0]	n/a	catFR1	0	R1491T
500.382	0.001	545721	PROB	7.649	n/a	n/a	n/a	-999	1	[7, 7, 1]	15.0	catFR1	0	R1491T
500.383	0.0	545722	START	n/a	n/a	n/a	n/a	-999	1	[-999, -999, -999]	n/a	catFR1	0	R1491T
500.381	0.001	545723	WORD_OFF	n/a	n/a	SQUID	OceanAnimals	12	1	[0, 0, 0]	n/a	catFR1	0	R1491T
500.382	0.001	545723	ENCODING_END	n/a	n/a	n/a	n/a	-999	1	[0, 0, 0]	n/a	catFR1	0	R1491T
500.383	7.665	545723	DISTRACT_START	n/a	n/a	n/a	n/a	-999	1	[0, 0, 0]	n/a	catFR1	0	R1491T
508.048	4.999	553387	PROB	4.983	n/a	n/a	n/a	-999	1	[8, 8, 1]	17.0	catFR1	0	R1491T
513.047	4.768	558386	PROB	4.75	n/a	n/a	n/a	-999	1	[7, 4, 2]	13.0	catFR1	0	R1491T
517.815	4.617	563153	PROB	4.599	n/a	n/a	n/a	-999	1	[1, 3, 3]	7.0	catFR1	0	R1491T
522.432	0.0	567767	DISTRACT_END	n/a	n/a	n/a	n/a	-999	1	[0, 0, 0]	n/a	catFR1	0	R1491T
522.432	2.115	567770	STOP	n/a	n/a	n/a	n/a	-999	1	[-999, -999, -999]	n/a	catFR1	0	R1491T
524.547	0.82	569883	REC_START	n/a	n/a	n/a	n/a	-999	1	[0, 0, 0]	n/a	catFR1	0	R1491T
525.367	0.741	570705	REC_WORD_VV	0.82	n/a	<>	n/a	-999	1	[0, 0, 0]	n/a	catFR1	0	R1491T
526.108	1.0	571446	REC_WORD	1.561	n/a	JELLYFISH	OceanAnimals	5	1	[0, 0, 0]	n/a	catFR1	0	R1491T
527.108	2.677	572446	REC_WORD	2.561	n/a	JELLYFISH	OceanAnimals	5	1	[0, 0, 0]	n/a	catFR1	0	R1491T
529.785	1.0	575123	REC_WORD	5.238	n/a	MARIGOLD	Flowers	2	1	[0, 0, 0]	n/a	catFR1	0	R1491T
530.785	3.973	576123	REC_WORD	6.238	n/a	MARIGOLD	Flowers	2	1	[0, 0, 0]	n/a	catFR1	0	R1491T
534.758	6.851	580095	REC_WORD_VV	10.211	n/a	<>	n/a	-999	1	[0, 0, 0]	n/a	catFR1	0	R1491T
541.609	12.524	586946	REC_WORD_VV	17.062	n/a	<>	n/a	-999	1	[0, 0, 0]	n/a	catFR1	0	R1491T
554.133	0.633	599470	REC_WORD_VV	29.586	n/a	<>	n/a	-999	1	[0, 0, 0]	n/a	catFR1	0	R1491T
554.766	7.715	600104	REC_END	n/a	n/a	n/a	n/a	-999	1	[0, 0, 0]	n/a	catFR1	0	R1491T
562.481	10.35	607819	COUNTDOWN_START	n/a	n/a	n/a	n/a	-999	2	[0, 0, 0]	n/a	catFR1	0	R1491T
572.831	0.0	618167	COUNTDOWN_END	n/a	n/a	n/a	n/a	-999	2	[0, 0, 0]	n/a	catFR1	0	R1491T
572.831	1.883	618167	ENCODING_START	n/a	n/a	n/a	n/a	-999	2	[0, 0, 0]	n/a	catFR1	0	R1491T
574.714	1.6	620040	WORD	n/a	wordpools/wordpool_categorized_EN.txt	NOSE	BodyParts	1	2	[0, 0, 0]	n/a	catFR1	0	R1491T
576.314	0.95	621652	WORD_OFF	n/a	n/a	NOSE	BodyParts	1	2	[0, 0, 0]	n/a	catFR1	0	R1491T
577.264	1.617	622603	WORD	n/a	wordpools/wordpool_categorized_EN.txt	ELBOW	BodyParts	2	2	[0, 0, 0]	n/a	catFR1	0	R1491T
578.881	0.899	624215	WORD_OFF	n/a	n/a	ELBOW	BodyParts	2	2	[0, 0, 0]	n/a	catFR1	0	R1491T
579.78	1.6	625111	WORD	n/a	wordpools/wordpool_categorized_EN.txt	TRUCK	Vehicles	3	2	[0, 0, 0]	n/a	catFR1	0	R1491T
581.38	0.85	626709	WORD_OFF	n/a	n/a	TRUCK	Vehicles	3	2	[0, 0, 0]	n/a	catFR1	0	R1491T
582.23	1.601	627563	WORD	n/a	wordpools/wordpool_categorized_EN.txt	MOTORCYCLE	Vehicles	4	2	[0, 0, 0]	n/a	catFR1	0	R1491T
583.831	0.883	629161	WORD_OFF	n/a	n/a	MOTORCYCLE	Vehicles	4	2	[0, 0, 0]	n/a	catFR1	0	R1491T
584.714	1.6	630043	WORD	n/a	wordpools/wordpool_categorized_EN.txt	SHELF	Furniture	5	2	[0, 0, 0]	n/a	catFR1	0	R1491T
586.314	0.833	631641	WORD_OFF	n/a	n/a	SHELF	Furniture	5	2	[0, 0, 0]	n/a	catFR1	0	R1491T
587.147	1.6	632482	WORD	n/a	wordpools/wordpool_categorized_EN.txt	BED	Furniture	6	2	[0, 0, 0]	n/a	catFR1	0	R1491T
588.747	0.884	634080	WORD_OFF	n/a	n/a	BED	Furniture	6	2	[0, 0, 0]	n/a	catFR1	0	R1491T
589.631	1.616	634962	WORD	n/a	wordpools/wordpool_categorized_EN.txt	BUS	Vehicles	7	2	[0, 0, 0]	n/a	catFR1	0	R1491T
591.247	0.834	636574	WORD_OFF	n/a	n/a	BUS	Vehicles	7	2	[0, 0, 0]	n/a	catFR1	0	R1491T
592.081	1.617	637414	WORD	n/a	wordpools/wordpool_categorized_EN.txt	MOPED	Vehicles	8	2	[0, 0, 0]	n/a	catFR1	0	R1491T
593.698	0.766	639026	WORD_OFF	n/a	n/a	MOPED	Vehicles	8	2	[0, 0, 0]	n/a	catFR1	0	R1491T
594.464	1.6	639798	WORD	n/a	wordpools/wordpool_categorized_EN.txt	LEG	BodyParts	9	2	[0, 0, 0]	n/a	catFR1	0	R1491T
596.064	0.967	641396	WORD_OFF	n/a	n/a	LEG	BodyParts	9	2	[0, 0, 0]	n/a	catFR1	0	R1491T
597.031	1.616	642360	WORD	n/a	wordpools/wordpool_categorized_EN.txt	FOOT	BodyParts	10	2	[0, 0, 0]	n/a	catFR1	0	R1491T
598.647	0.901	643972	WORD_OFF	n/a	n/a	FOOT	BodyParts	10	2	[0, 0, 0]	n/a	catFR1	0	R1491T
599.548	1.616	644882	WORD	n/a	wordpools/wordpool_categorized_EN.txt	CABINET	Furniture	11	2	[0, 0, 0]	n/a	catFR1	0	R1491T
601.164	0.784	646494	WORD_OFF	n/a	n/a	CABINET	Furniture	11	2	[0, 0, 0]	n/a	catFR1	0	R1491T
601.948	1.615	647279	WORD	n/a	wordpools/wordpool_categorized_EN.txt	CHAIR	Furniture	12	2	[0, 0, 0]	n/a	catFR1	0	R1491T
603.563	0.002	648891	WORD_OFF	n/a	n/a	CHAIR	Furniture	12	2	[0, 0, 0]	n/a	catFR1	0	R1491T
603.565	0.0	648891	ENCODING_END	n/a	n/a	n/a	n/a	-999	2	[0, 0, 0]	n/a	catFR1	0	R1491T
603.564	0.001	648898	PROB	6.1	n/a	n/a	n/a	-999	2	[4, 3, 2]	9.0	catFR1	0	R1491T
603.565	0.0	648899	START	n/a	n/a	n/a	n/a	-999	2	[-999, -999, -999]	n/a	catFR1	0	R1491T
603.565	6.117	648905	DISTRACT_START	n/a	n/a	n/a	n/a	-999	2	[0, 0, 0]	n/a	catFR1	0	R1491T
609.682	4.183	655016	PROB	4.166	n/a	n/a	n/a	-999	2	[6, 2, 2]	10.0	catFR1	0	R1491T
613.865	3.6	659198	PROB	3.583	n/a	n/a	n/a	-999	2	[4, 6, 1]	11.0	catFR1	0	R1491T
617.465	4.583	662798	PROB	4.566	n/a	n/a	n/a	-999	2	[8, 5, 1]	14.0	catFR1	0	R1491T
622.048	7.016	667381	PROB	6.999	n/a	n/a	n/a	-999	2	[5, 6, 2]	13.0	catFR1	0	R1491T
629.064	0.0	674394	DISTRACT_END	n/a	n/a	n/a	n/a	-999	2	[0, 0, 0]	n/a	catFR1	0	R1491T
629.064	2.117	674397	STOP	n/a	n/a	n/a	n/a	-999	2	[-999, -999, -999]	n/a	catFR1	0	R1491T
631.181	0.561	676510	REC_START	n/a	n/a	n/a	n/a	-999	2	[0, 0, 0]	n/a	catFR1	0	R1491T
631.742	1.0	677075	REC_WORD	0.561	n/a	MOPED	Vehicles	8	2	[0, 0, 0]	n/a	catFR1	0	R1491T
632.742	2.439	678074	REC_WORD	1.561	n/a	MOPED	Vehicles	8	2	[0, 0, 0]	n/a	catFR1	0	R1491T
635.181	0.555	680513	REC_WORD_VV	4.0	n/a	<>	n/a	-999	2	[0, 0, 0]	n/a	catFR1	0	R1491T
635.736	1.633	681068	REC_WORD	4.555	n/a	TRUCK	Vehicles	3	2	[0, 0, 0]	n/a	catFR1	0	R1491T
637.369	7.273	682701	REC_WORD	6.188	n/a	ELBOW	BodyParts	2	2	[0, 0, 0]	n/a	catFR1	0	R1491T
644.642	1.0	689974	REC_WORD	13.461	n/a	MOTORCYCLE	Vehicles	4	2	[0, 0, 0]	n/a	catFR1	0	R1491T
645.642	15.767	690974	REC_WORD	14.461	n/a	MOTORCYCLE	Vehicles	4	2	[0, 0, 0]	n/a	catFR1	0	R1491T
661.409	2.839	706744	REC_END	n/a	n/a	n/a	n/a	-999	2	[0, 0, 0]	n/a	catFR1	0	R1491T
664.248	10.349	709582	COUNTDOWN_START	n/a	n/a	n/a	n/a	-999	3	[0, 0, 0]	n/a	catFR1	0	R1491T
674.597	0.0	719929	COUNTDOWN_END	n/a	n/a	n/a	n/a	-999	3	[0, 0, 0]	n/a	catFR1	0	R1491T
674.597	2.117	719929	ENCODING_START	n/a	n/a	n/a	n/a	-999	3	[0, 0, 0]	n/a	catFR1	0	R1491T
676.714	1.6	722037	WORD	n/a	wordpools/wordpool_categorized_EN.txt	COLANDER	KitchenTools	1	3	[0, 0, 0]	n/a	catFR1	0	R1491T
678.314	0.884	723635	WORD_OFF	n/a	n/a	COLANDER	KitchenTools	1	3	[0, 0, 0]	n/a	catFR1	0	R1491T
679.198	1.616	724531	WORD	n/a	wordpools/wordpool_categorized_EN.txt	WHISK	KitchenTools	2	3	[0, 0, 0]	n/a	catFR1	0	R1491T
680.814	0.999	726143	WORD_OFF	n/a	n/a	WHISK	KitchenTools	2	3	[0, 0, 0]	n/a	catFR1	0	R1491T
681.813	1.601	727135	WORD	n/a	wordpools/wordpool_categorized_EN.txt	SOFA	Furniture	3	3	[0, 0, 0]	n/a	catFR1	0	R1491T
683.414	0.967	728747	WORD_OFF	n/a	n/a	SOFA	Furniture	3	3	[0, 0, 0]	n/a	catFR1	0	R1491T
684.381	1.616	729711	WORD	n/a	wordpools/wordpool_categorized_EN.txt	NIGHTSTAND	Furniture	4	3	[0, 0, 0]	n/a	catFR1	0	R1491T
685.997	0.8	731323	WORD_OFF	n/a	n/a	NIGHTSTAND	Furniture	4	3	[0, 0, 0]	n/a	catFR1	0	R1491T
686.797	1.6	732122	WORD	n/a	wordpools/wordpool_categorized_EN.txt	CRAB	OceanAnimals	5	3	[0, 0, 0]	n/a	catFR1	0	R1491T
688.397	0.983	733721	WORD_OFF	n/a	n/a	CRAB	OceanAnimals	5	3	[0, 0, 0]	n/a	catFR1	0	R1491T
689.38	1.6	734713	WORD	n/a	wordpools/wordpool_categorized_EN.txt	SHRIMP	OceanAnimals	6	3	[0, 0, 0]	n/a	catFR1	0	R1491T
690.98	0.918	736311	WORD_OFF	n/a	n/a	SHRIMP	OceanAnimals	6	3	[0, 0, 0]	n/a	catFR1	0	R1491T
691.898	1.6	737220	WORD	n/a	wordpools/wordpool_categorized_EN.txt	RECLINER	Furniture	7	3	[0, 0, 0]	n/a	catFR1	0	R1491T
693.498	0.983	738818	WORD_OFF	n/a	n/a	RECLINER	Furniture	7	3	[0, 0, 0]	n/a	catFR1	0	R1491T
694.481	1.616	739810	WORD	n/a	wordpools/wordpool_categorized_EN.txt	DESK	Furniture	8	3	[0, 0, 0]	n/a	catFR1	0	R1491T
696.097	0.884	741422	WORD_OFF	n/a	n/a	DESK	Furniture	8	3	[0, 0, 0]	n/a	catFR1	0	R1491T
696.981	1.6	742304	WORD	n/a	wordpools/wordpool_categorized_EN.txt	SPOON	KitchenTools	9	3	[0, 0, 0]	n/a	catFR1	0	R1491T
698.581	0.9	743902	WORD_OFF	n/a	n/a	SPOON	KitchenTools	9	3	[0, 0, 0]	n/a	catFR1	0	R1491T
699.481	1.6	744812	WORD	n/a	wordpools/wordpool_categorized_EN.txt	KNIFE	KitchenTools	10	3	[0, 0, 0]	n/a	catFR1	0	R1491T
701.081	1.0	746410	WORD_OFF	n/a	n/a	KNIFE	KitchenTools	10	3	[0, 0, 0]	n/a	catFR1	0	R1491T
702.081	1.617	747402	WORD	n/a	wordpools/wordpool_categorized_EN.txt	FISH	OceanAnimals	11	3	[0, 0, 0]	n/a	catFR1	0	R1491T
703.698	0.848	749028	WORD_OFF	n/a	n/a	FISH	OceanAnimals	11	3	[0, 0, 0]	n/a	catFR1	0	R1491T
704.546	1.602	749868	WORD	n/a	wordpools/wordpool_categorized_EN.txt	DOLPHIN	OceanAnimals	12	3	[0, 0, 0]	n/a	catFR1	0	R1491T
706.148	0.001	751477	PROB	30.983	n/a	n/a	n/a	-999	3	[6, 1, 5]	12.0	catFR1	0	R1491T
706.149	0.0	751478	START	n/a	n/a	n/a	n/a	-999	3	[-999, -999, -999]	n/a	catFR1	0	R1491T
706.148	0.001	751480	WORD_OFF	n/a	n/a	DOLPHIN	OceanAnimals	12	3	[0, 0, 0]	n/a	catFR1	0	R1491T
706.149	0.0	751480	ENCODING_END	n/a	n/a	n/a	n/a	-999	3	[0, 0, 0]	n/a	catFR1	0	R1491T
706.149	30.999	751480	DISTRACT_START	n/a	n/a	n/a	n/a	-999	3	[0, 0, 0]	n/a	catFR1	0	R1491T
737.148	0.0	782466	DISTRACT_END	n/a	n/a	n/a	n/a	-999	3	[0, 0, 0]	n/a	catFR1	0	R1491T
737.148	2.133	782475	STOP	n/a	n/a	n/a	n/a	-999	3	[-999, -999, -999]	n/a	catFR1	0	R1491T
739.281	1.251	784610	REC_START	n/a	n/a	n/a	n/a	-999	3	[0, 0, 0]	n/a	catFR1	0	R1491T
740.532	5.679	785859	REC_WORD_VV	1.251	n/a	<>	n/a	-999	3	[0, 0, 0]	n/a	catFR1	0	R1491T
746.211	1.0	791538	REC_WORD	6.93	n/a	COLANDER	KitchenTools	1	3	[0, 0, 0]	n/a	catFR1	0	R1491T
747.211	4.032	792538	REC_WORD	7.93	n/a	COLANDER	KitchenTools	1	3	[0, 0, 0]	n/a	catFR1	0	R1491T
751.243	1.12	796569	REC_WORD_VV	11.962	n/a	<>	n/a	-999	3	[0, 0, 0]	n/a	catFR1	0	R1491T
752.363	2.863	797689	REC_WORD	13.082	n/a	SHRIMP	OceanAnimals	6	3	[0, 0, 0]	n/a	catFR1	0	R1491T
755.226	3.962	800552	REC_WORD	15.945	n/a	CRAB	OceanAnimals	5	3	[0, 0, 0]	n/a	catFR1	0	R1491T
759.188	1.0	804514	REC_WORD	19.907	n/a	NIGHTSTAND	Furniture	4	3	[0, 0, 0]	n/a	catFR1	0	R1491T
760.188	2.032	805514	REC_WORD	20.907	n/a	NIGHTSTAND	Furniture	4	3	[0, 0, 0]	n/a	catFR1	0	R1491T
762.22	7.3	807546	REC_WORD	22.939	n/a	DESK	Furniture	8	3	[0, 0, 0]	n/a	catFR1	0	R1491T
769.52	2.261	814844	REC_END	n/a	n/a	n/a	n/a	-999	3	[0, 0, 0]	n/a	catFR1	0	R1491T
771.781	10.35	817104	COUNTDOWN_START	n/a	n/a	n/a	n/a	-999	4	[0, 0, 0]	n/a	catFR1	0	R1491T
782.131	0.0	827451	COUNTDOWN_END	n/a	n/a	n/a	n/a	-999	4	[0, 0, 0]	n/a	catFR1	0	R1491T
782.131	1.933	827451	ENCODING_START	n/a	n/a	n/a	n/a	-999	4	[0, 0, 0]	n/a	catFR1	0	R1491T
784.064	1.617	829393	WORD	n/a	wordpools/wordpool_categorized_EN.txt	LEVEL	Tools	1	4	[0, 0, 0]	n/a	catFR1	0	R1491T
785.681	0.916	831005	WORD_OFF	n/a	n/a	LEVEL	Tools	1	4	[0, 0, 0]	n/a	catFR1	0	R1491T
786.597	1.601	831915	WORD	n/a	wordpools/wordpool_categorized_EN.txt	RATCHET	Tools	2	4	[0, 0, 0]	n/a	catFR1	0	R1491T
788.198	0.916	833513	WORD_OFF	n/a	n/a	RATCHET	Tools	2	4	[0, 0, 0]	n/a	catFR1	0	R1491T
789.114	1.6	834436	WORD	n/a	wordpools/wordpool_categorized_EN.txt	GLUE	OfficeSupplies	3	4	[0, 0, 0]	n/a	catFR1	0	R1491T
790.714	1.0	836034	WORD_OFF	n/a	n/a	GLUE	OfficeSupplies	3	4	[0, 0, 0]	n/a	catFR1	0	R1491T
791.714	1.6	837040	WORD	n/a	wordpools/wordpool_categorized_EN.txt	TAPE	OfficeSupplies	4	4	[0, 0, 0]	n/a	catFR1	0	R1491T
793.314	0.949	838638	WORD_OFF	n/a	n/a	TAPE	OfficeSupplies	4	4	[0, 0, 0]	n/a	catFR1	0	R1491T
794.263	1.601	839589	WORD	n/a	wordpools/wordpool_categorized_EN.txt	CEDAR	Trees	5	4	[0, 0, 0]	n/a	catFR1	0	R1491T
795.864	0.767	841187	WORD_OFF	n/a	n/a	CEDAR	Trees	5	4	[0, 0, 0]	n/a	catFR1	0	R1491T
796.631	1.6	841945	WORD	n/a	wordpools/wordpool_categorized_EN.txt	ELM	Trees	6	4	[0, 0, 0]	n/a	catFR1	0	R1491T
798.231	0.849	843557	WORD_OFF	n/a	n/a	ELM	Trees	6	4	[0, 0, 0]	n/a	catFR1	0	R1491T
799.08	1.601	844397	WORD	n/a	wordpools/wordpool_categorized_EN.txt	AXE	Tools	7	4	[0, 0, 0]	n/a	catFR1	0	R1491T
800.681	0.833	846009	WORD_OFF	n/a	n/a	AXE	Tools	7	4	[0, 0, 0]	n/a	catFR1	0	R1491T
801.514	1.6	846836	WORD	n/a	wordpools/wordpool_categorized_EN.txt	SANDER	Tools	8	4	[0, 0, 0]	n/a	catFR1	0	R1491T
803.114	1.0	848434	WORD_OFF	n/a	n/a	SANDER	Tools	8	4	[0, 0, 0]	n/a	catFR1	0	R1491T
804.114	1.617	849440	WORD	n/a	wordpools/wordpool_categorized_EN.txt	SPRUCE	Trees	9	4	[0, 0, 0]	n/a	catFR1	0	R1491T
805.731	0.8	851052	WORD_OFF	n/a	n/a	SPRUCE	Trees	9	4	[0, 0, 0]	n/a	catFR1	0	R1491T
806.531	1.617	851851	WORD	n/a	wordpools/wordpool_categorized_EN.txt	BIRCH	Trees	10	4	[0, 0, 0]	n/a	catFR1	0	R1491T
808.148	0.8	853463	WORD_OFF	n/a	n/a	BIRCH	Trees	10	4	[0, 0, 0]	n/a	catFR1	0	R1491T
808.948	1.6	854262	WORD	n/a	wordpools/wordpool_categorized_EN.txt	RULER	OfficeSupplies	11	4	[0, 0, 0]	n/a	catFR1	0	R1491T
810.548	0.883	855874	WORD_OFF	n/a	n/a	RULER	OfficeSupplies	11	4	[0, 0, 0]	n/a	catFR1	0	R1491T
811.431	1.6	856756	WORD	n/a	wordpools/wordpool_categorized_EN.txt	PENCIL	OfficeSupplies	12	4	[0, 0, 0]	n/a	catFR1	0	R1491T
813.031	0.002	858354	WORD_OFF	n/a	n/a	PENCIL	OfficeSupplies	12	4	[0, 0, 0]	n/a	catFR1	0	R1491T
813.033	0.0	858354	ENCODING_END	n/a	n/a	n/a	n/a	-999	4	[0, 0, 0]	n/a	catFR1	0	R1491T
813.033	0.0	858354	DISTRACT_START	n/a	n/a	n/a	n/a	-999	4	[0, 0, 0]	n/a	catFR1	0	R1491T
813.032	0.001	858355	PROB	14.416	n/a	n/a	n/a	-999	4	[6, 2, 5]	13.0	catFR1	0	R1491T
813.033	14.432	858356	START	n/a	n/a	n/a	n/a	-999	4	[-999, -999, -999]	n/a	catFR1	0	R1491T
827.465	6.549	872787	PROB	6.533	n/a	n/a	n/a	-999	4	[2, 5, 3]	10.0	catFR1	0	R1491T
834.014	0.0	879336	STOP	n/a	n/a	n/a	n/a	-999	4	[-999, -999, -999]	n/a	catFR1	0	R1491T
834.014	2.067	879338	DISTRACT_END	n/a	n/a	n/a	n/a	-999	4	[0, 0, 0]	n/a	catFR1	0	R1491T
836.081	2.848	881399	REC_START	n/a	n/a	n/a	n/a	-999	4	[0, 0, 0]	n/a	catFR1	0	R1491T
838.929	1.0	884251	REC_WORD_VV	2.848	n/a	<>	n/a	-999	4	[0, 0, 0]	n/a	catFR1	0	R1491T
839.929	1.0	885251	REC_WORD_VV	3.848	n/a	<>	n/a	-999	4	[0, 0, 0]	n/a	catFR1	0	R1491T
840.929	25.389	886251	REC_WORD_VV	4.848	n/a	<>	n/a	-999	4	[0, 0, 0]	n/a	catFR1	0	R1491T
866.318	7.996	911633	REC_END	n/a	n/a	n/a	n/a	-999	4	[0, 0, 0]	n/a	catFR1	0	R1491T
874.314	10.35	919638	COUNTDOWN_START	n/a	n/a	n/a	n/a	-999	5	[0, 0, 0]	n/a	catFR1	0	R1491T
884.664	0.001	929985	COUNTDOWN_END	n/a	n/a	n/a	n/a	-999	5	[0, 0, 0]	n/a	catFR1	0	R1491T
884.665	1.966	929985	ENCODING_START	n/a	n/a	n/a	n/a	-999	5	[0, 0, 0]	n/a	catFR1	0	R1491T
886.631	1.616	931941	WORD	n/a	wordpools/wordpool_categorized_EN.txt	BARBIE	Toys	1	5	[0, 0, 0]	n/a	catFR1	0	R1491T
888.247	0.9	933567	WORD_OFF	n/a	n/a	BARBIE	Toys	1	5	[0, 0, 0]	n/a	catFR1	0	R1491T
889.147	1.6	934463	WORD	n/a	wordpools/wordpool_categorized_EN.txt	BALL	Toys	2	5	[0, 0, 0]	n/a	catFR1	0	R1491T
890.747	0.9	936061	WORD_OFF	n/a	n/a	BALL	Toys	2	5	[0, 0, 0]	n/a	catFR1	0	R1491T
891.647	1.6	936970	WORD	n/a	wordpools/wordpool_categorized_EN.txt	TRUMPET	Instruments	3	5	[0, 0, 0]	n/a	catFR1	0	R1491T
893.247	0.917	938568	WORD_OFF	n/a	n/a	TRUMPET	Instruments	3	5	[0, 0, 0]	n/a	catFR1	0	R1491T
894.164	1.617	939478	WORD	n/a	wordpools/wordpool_categorized_EN.txt	TROMBONE	Instruments	4	5	[0, 0, 0]	n/a	catFR1	0	R1491T
895.781	0.917	941092	WORD_OFF	n/a	n/a	TROMBONE	Instruments	4	5	[0, 0, 0]	n/a	catFR1	0	R1491T
896.698	1.6	942013	WORD	n/a	wordpools/wordpool_categorized_EN.txt	SPANDEX	Fabric	5	5	[0, 0, 0]	n/a	catFR1	0	R1491T
898.298	0.882	943611	WORD_OFF	n/a	n/a	SPANDEX	Fabric	5	5	[0, 0, 0]	n/a	catFR1	0	R1491T
899.18	1.601	944493	WORD	n/a	wordpools/wordpool_categorized_EN.txt	VELVET	Fabric	6	5	[0, 0, 0]	n/a	catFR1	0	R1491T
900.781	0.95	946091	WORD_OFF	n/a	n/a	VELVET	Fabric	6	5	[0, 0, 0]	n/a	catFR1	0	R1491T
901.731	1.6	947042	WORD	n/a	wordpools/wordpool_categorized_EN.txt	FLUTE	Instruments	7	5	[0, 0, 0]	n/a	catFR1	0	R1491T
903.331	0.833	948654	WORD_OFF	n/a	n/a	FLUTE	Instruments	7	5	[0, 0, 0]	n/a	catFR1	0	R1491T
904.164	1.6	949480	WORD	n/a	wordpools/wordpool_categorized_EN.txt	DRUM	Instruments	8	5	[0, 0, 0]	n/a	catFR1	0	R1491T
905.764	0.817	951079	WORD_OFF	n/a	n/a	DRUM	Instruments	8	5	[0, 0, 0]	n/a	catFR1	0	R1491T
906.581	1.6	951892	WORD	n/a	wordpools/wordpool_categorized_EN.txt	SUEDE	Fabric	9	5	[0, 0, 0]	n/a	catFR1	0	R1491T
908.181	0.783	953490	WORD_OFF	n/a	n/a	SUEDE	Fabric	9	5	[0, 0, 0]	n/a	catFR1	0	R1491T
908.964	1.6	954275	WORD	n/a	wordpools/wordpool_categorized_EN.txt	LEATHER	Fabric	10	5	[0, 0, 0]	n/a	catFR1	0	R1491T
910.564	0.966	955887	WORD_OFF	n/a	n/a	LEATHER	Fabric	10	5	[0, 0, 0]	n/a	catFR1	0	R1491T
911.53	1.601	956852	WORD	n/a	wordpools/wordpool_categorized_EN.txt	BASKETBALL	Toys	11	5	[0, 0, 0]	n/a	catFR1	0	R1491T
913.131	0.966	958450	WORD_OFF	n/a	n/a	BASKETBALL	Toys	11	5	[0, 0, 0]	n/a	catFR1	0	R1491T
914.097	1.601	959414	WORD	n/a	wordpools/wordpool_categorized_EN.txt	BASEBALL	Toys	12	5	[0, 0, 0]	n/a	catFR1	0	R1491T
915.698	0.003	961012	WORD_OFF	n/a	n/a	BASEBALL	Toys	12	5	[0, 0, 0]	n/a	catFR1	0	R1491T
915.701	0.0	961012	ENCODING_END	n/a	n/a	n/a	n/a	-999	5	[0, 0, 0]	n/a	catFR1	0	R1491T
915.701	0.0	961012	DISTRACT_START	n/a	n/a	n/a	n/a	-999	5	[0, 0, 0]	n/a	catFR1	0	R1491T
915.698	0.003	961016	PROB	5.132	n/a	n/a	n/a	-999	5	[7, 6, 3]	16.0	catFR1	0	R1491T
915.701	5.147	961019	START	n/a	n/a	n/a	n/a	-999	5	[-999, -999, -999]	n/a	catFR1	0	R1491T
920.848	7.483	966166	PROB	7.466	n/a	n/a	n/a	-999	5	[4, 8, 4]	16.0	catFR1	0	R1491T
928.331	6.634	973648	PROB	6.616	n/a	n/a	n/a	-999	5	[6, 6, 3]	15.0	catFR1	0	R1491T
934.965	8.118	980282	PROB	8.099	n/a	n/a	n/a	-999	5	[2, 2, 8]	12.0	catFR1	0	R1491T
943.083	0.0	988399	STOP	n/a	n/a	n/a	n/a	-999	5	[-999, -999, -999]	n/a	catFR1	0	R1491T
943.083	2.33	988403	DISTRACT_END	n/a	n/a	n/a	n/a	-999	5	[0, 0, 0]	n/a	catFR1	0	R1491T
945.413	0.34	990725	REC_START	n/a	n/a	n/a	n/a	-999	5	[0, 0, 0]	n/a	catFR1	0	R1491T
945.753	1.036	991069	REC_WORD	0.34	n/a	TRUMP	n/a	-999	5	[0, 0, 0]	n/a	catFR1	0	R1491T
946.789	1.0	992105	REC_WORD	1.376	n/a	SUEDE	Fabric	9	5	[0, 0, 0]	n/a	catFR1	0	R1491T
947.789	1.907	993105	REC_WORD	2.376	n/a	SUEDE	Fabric	9	5	[0, 0, 0]	n/a	catFR1	0	R1491T
949.696	1.0	995012	REC_WORD_VV	4.283	n/a	<>	n/a	-999	5	[0, 0, 0]	n/a	catFR1	0	R1491T
950.696	16.682	996012	REC_WORD_VV	5.283	n/a	<>	n/a	-999	5	[0, 0, 0]	n/a	catFR1	0	R1491T
967.378	1.0	1012693	REC_WORD_VV	21.965	n/a	<>	n/a	-999	5	[0, 0, 0]	n/a	catFR1	0	R1491T
968.378	7.252	1013693	REC_WORD_VV	22.965	n/a	<>	n/a	-999	5	[0, 0, 0]	n/a	catFR1	0	R1491T
975.63	4.134	1020946	REC_END	n/a	n/a	n/a	n/a	-999	5	[0, 0, 0]	n/a	catFR1	0	R1491T
979.764	10.351	1025079	COUNTDOWN_START	n/a	n/a	n/a	n/a	-999	6	[0, 0, 0]	n/a	catFR1	0	R1491T
990.115	0.0	1035426	COUNTDOWN_END	n/a	n/a	n/a	n/a	-999	6	[0, 0, 0]	n/a	catFR1	0	R1491T
990.115	1.965	1035426	ENCODING_START	n/a	n/a	n/a	n/a	-999	6	[0, 0, 0]	n/a	catFR1	0	R1491T
992.08	1.601	1037396	WORD	n/a	wordpools/wordpool_categorized_EN.txt	FRISBEE	Toys	1	6	[0, 0, 0]	n/a	catFR1	0	R1491T
993.681	0.799	1038995	WORD_OFF	n/a	n/a	FRISBEE	Toys	1	6	[0, 0, 0]	n/a	catFR1	0	R1491T
994.48	1.6	1039794	WORD	n/a	wordpools/wordpool_categorized_EN.txt	DOLLHOUSE	Toys	2	6	[0, 0, 0]	n/a	catFR1	0	R1491T
996.08	0.8	1041392	WORD_OFF	n/a	n/a	DOLLHOUSE	Toys	2	6	[0, 0, 0]	n/a	catFR1	0	R1491T
996.88	1.601	1042191	WORD	n/a	wordpools/wordpool_categorized_EN.txt	TEA	Beverages	3	6	[0, 0, 0]	n/a	catFR1	0	R1491T
998.481	0.816	1043789	WORD_OFF	n/a	n/a	TEA	Beverages	3	6	[0, 0, 0]	n/a	catFR1	0	R1491T
999.297	1.601	1044602	WORD	n/a	wordpools/wordpool_categorized_EN.txt	COLA	Beverages	4	6	[0, 0, 0]	n/a	catFR1	0	R1491T
1000.898	0.932	1046214	WORD_OFF	n/a	n/a	COLA	Beverages	4	6	[0, 0, 0]	n/a	catFR1	0	R1491T
1001.83	1.601	1047137	WORD	n/a	wordpools/wordpool_categorized_EN.txt	MAPLE	Trees	5	6	[0, 0, 0]	n/a	catFR1	0	R1491T
1003.431	0.999	1048735	WORD_OFF	n/a	n/a	MAPLE	Trees	5	6	[0, 0, 0]	n/a	catFR1	0	R1491T
1004.43	1.601	1049741	WORD	n/a	wordpools/wordpool_categorized_EN.txt	HICKORY	Trees	6	6	[0, 0, 0]	n/a	catFR1	0	R1491T
1006.031	0.85	1051339	WORD_OFF	n/a	n/a	HICKORY	Trees	6	6	[0, 0, 0]	n/a	catFR1	0	R1491T
1006.881	1.6	1052194	WORD	n/a	wordpools/wordpool_categorized_EN.txt	RUM	Beverages	7	6	[0, 0, 0]	n/a	catFR1	0	R1491T
1008.481	1.0	1053792	WORD_OFF	n/a	n/a	RUM	Beverages	7	6	[0, 0, 0]	n/a	catFR1	0	R1491T
1009.481	1.616	1054798	WORD	n/a	wordpools/wordpool_categorized_EN.txt	WATER	Beverages	8	6	[0, 0, 0]	n/a	catFR1	0	R1491T
1011.097	0.967	1056410	WORD_OFF	n/a	n/a	WATER	Beverages	8	6	[0, 0, 0]	n/a	catFR1	0	R1491T
1012.064	1.617	1057374	WORD	n/a	wordpools/wordpool_categorized_EN.txt	WILLOW	Trees	9	6	[0, 0, 0]	n/a	catFR1	0	R1491T
1013.681	0.833	1058986	WORD_OFF	n/a	n/a	WILLOW	Trees	9	6	[0, 0, 0]	n/a	catFR1	0	R1491T
1014.514	1.616	1059827	WORD	n/a	wordpools/wordpool_categorized_EN.txt	OAK	Trees	10	6	[0, 0, 0]	n/a	catFR1	0	R1491T
1016.13	0.934	1061439	WORD_OFF	n/a	n/a	OAK	Trees	10	6	[0, 0, 0]	n/a	catFR1	0	R1491T
1017.064	1.617	1062375	WORD	n/a	wordpools/wordpool_categorized_EN.txt	PUZZLE	Toys	11	6	[0, 0, 0]	n/a	catFR1	0	R1491T
1018.681	1.0	1063987	WORD_OFF	n/a	n/a	PUZZLE	Toys	11	6	[0, 0, 0]	n/a	catFR1	0	R1491T
1019.681	1.616	1064993	WORD	n/a	wordpools/wordpool_categorized_EN.txt	DOLL	Toys	12	6	[0, 0, 0]	n/a	catFR1	0	R1491T
1021.297	0.002	1066605	WORD_OFF	n/a	n/a	DOLL	Toys	12	6	[0, 0, 0]	n/a	catFR1	0	R1491T
1021.299	0.0	1066605	ENCODING_END	n/a	n/a	n/a	n/a	-999	6	[0, 0, 0]	n/a	catFR1	0	R1491T
1021.299	0.0	1066605	DISTRACT_START	n/a	n/a	n/a	n/a	-999	6	[0, 0, 0]	n/a	catFR1	0	R1491T
1021.298	0.001	1066610	PROB	9.0	n/a	n/a	n/a	-999	6	[4, 3, 5]	12.0	catFR1	0	R1491T
1021.299	9.016	1066611	START	n/a	n/a	n/a	n/a	-999	6	[-999, -999, -999]	n/a	catFR1	0	R1491T
1030.315	4.6	1075627	PROB	4.583	n/a	n/a	n/a	-999	6	[1, 7, 1]	9.0	catFR1	0	R1491T
1034.915	4.282	1080227	PROB	4.266	n/a	n/a	n/a	-999	6	[8, 2, 3]	13.0	catFR1	0	R1491T
1039.197	5.667	1084508	PROB	5.65	n/a	n/a	n/a	-999	6	[8, 7, 7]	22.0	catFR1	0	R1491T
1044.864	0.0	1090175	STOP	n/a	n/a	n/a	n/a	-999	6	[-999, -999, -999]	n/a	catFR1	0	R1491T
1044.864	2.367	1090179	DISTRACT_END	n/a	n/a	n/a	n/a	-999	6	[0, 0, 0]	n/a	catFR1	0	R1491T
1047.231	1.019	1092543	REC_START	n/a	n/a	n/a	n/a	-999	6	[0, 0, 0]	n/a	catFR1	0	R1491T
1048.25	1.322	1093561	REC_WORD	1.019	n/a	RUM	Beverages	7	6	[0, 0, 0]	n/a	catFR1	0	R1491T
1049.572	1.0	1094883	REC_WORD	2.341	n/a	DOLLHOUSE	Toys	2	6	[0, 0, 0]	n/a	catFR1	0	R1491T
1050.572	2.723	1095883	REC_WORD	3.341	n/a	DOLLHOUSE	Toys	2	6	[0, 0, 0]	n/a	catFR1	0	R1491T
1053.295	4.521	1098606	REC_WORD_VV	6.064	n/a	<>	n/a	-999	6	[0, 0, 0]	n/a	catFR1	0	R1491T
1057.816	19.669	1103127	REC_WORD_VV	10.585	n/a	<>	n/a	-999	6	[0, 0, 0]	n/a	catFR1	0	R1491T
1077.485	2.713	1122791	REC_END	n/a	n/a	n/a	n/a	-999	6	[0, 0, 0]	n/a	catFR1	0	R1491T
1080.198	10.349	1125505	COUNTDOWN_START	n/a	n/a	n/a	n/a	-999	7	[0, 0, 0]	n/a	catFR1	0	R1491T
1090.547	0.0	1135852	COUNTDOWN_END	n/a	n/a	n/a	n/a	-999	7	[0, 0, 0]	n/a	catFR1	0	R1491T
1090.547	2.25	1135852	ENCODING_START	n/a	n/a	n/a	n/a	-999	7	[0, 0, 0]	n/a	catFR1	0	R1491T
1092.797	1.6	1138098	WORD	n/a	wordpools/wordpool_categorized_EN.txt	ROSE	Flowers	1	7	[0, 0, 0]	n/a	catFR1	0	R1491T
1094.397	0.95	1139710	WORD_OFF	n/a	n/a	ROSE	Flowers	1	7	[0, 0, 0]	n/a	catFR1	0	R1491T
1095.347	1.6	1140647	WORD	n/a	wordpools/wordpool_categorized_EN.txt	TULIP	Flowers	2	7	[0, 0, 0]	n/a	catFR1	0	R1491T
1096.947	0.85	1142259	WORD_OFF	n/a	n/a	TULIP	Flowers	2	7	[0, 0, 0]	n/a	catFR1	0	R1491T
1097.797	1.6	1143099	WORD	n/a	wordpools/wordpool_categorized_EN.txt	EVERGREEN	Trees	3	7	[0, 0, 0]	n/a	catFR1	0	R1491T
1099.397	0.934	1144698	WORD_OFF	n/a	n/a	EVERGREEN	Trees	3	7	[0, 0, 0]	n/a	catFR1	0	R1491T
1100.331	1.616	1145634	WORD	n/a	wordpools/wordpool_categorized_EN.txt	CYPRESS	Trees	4	7	[0, 0, 0]	n/a	catFR1	0	R1491T
1101.947	0.967	1147246	WORD_OFF	n/a	n/a	CYPRESS	Trees	4	7	[0, 0, 0]	n/a	catFR1	0	R1491T
1102.914	1.6	1148225	WORD	n/a	wordpools/wordpool_categorized_EN.txt	JEANS	Clothing	5	7	[0, 0, 0]	n/a	catFR1	0	R1491T
1104.514	0.801	1149823	WORD_OFF	n/a	n/a	JEANS	Clothing	5	7	[0, 0, 0]	n/a	catFR1	0	R1491T
1105.315	1.616	1150622	WORD	n/a	wordpools/wordpool_categorized_EN.txt	SHIRT	Clothing	6	7	[0, 0, 0]	n/a	catFR1	0	R1491T
1106.931	1.0	1152234	WORD_OFF	n/a	n/a	SHIRT	Clothing	6	7	[0, 0, 0]	n/a	catFR1	0	R1491T
1107.931	1.617	1153240	WORD	n/a	wordpools/wordpool_categorized_EN.txt	PINE	Trees	7	7	[0, 0, 0]	n/a	catFR1	0	R1491T
1109.548	0.965	1154852	WORD_OFF	n/a	n/a	PINE	Trees	7	7	[0, 0, 0]	n/a	catFR1	0	R1491T
1110.513	1.601	1155816	WORD	n/a	wordpools/wordpool_categorized_EN.txt	WALNUT	Trees	8	7	[0, 0, 0]	n/a	catFR1	0	R1491T
1112.114	0.934	1157414	WORD_OFF	n/a	n/a	WALNUT	Trees	8	7	[0, 0, 0]	n/a	catFR1	0	R1491T
1113.048	1.616	1158351	WORD	n/a	wordpools/wordpool_categorized_EN.txt	SKIRT	Clothing	9	7	[0, 0, 0]	n/a	catFR1	0	R1491T
1114.664	0.95	1159977	WORD_OFF	n/a	n/a	SKIRT	Clothing	9	7	[0, 0, 0]	n/a	catFR1	0	R1491T
1115.614	1.6	1160914	WORD	n/a	wordpools/wordpool_categorized_EN.txt	COAT	Clothing	10	7	[0, 0, 0]	n/a	catFR1	0	R1491T
1117.214	0.916	1162526	WORD_OFF	n/a	n/a	COAT	Clothing	10	7	[0, 0, 0]	n/a	catFR1	0	R1491T
1118.13	1.601	1163435	WORD	n/a	wordpools/wordpool_categorized_EN.txt	SUNFLOWER	Flowers	11	7	[0, 0, 0]	n/a	catFR1	0	R1491T
1119.731	0.849	1165034	WORD_OFF	n/a	n/a	SUNFLOWER	Flowers	11	7	[0, 0, 0]	n/a	catFR1	0	R1491T
1120.58	1.6	1165888	WORD	n/a	wordpools/wordpool_categorized_EN.txt	DAISY	Flowers	12	7	[0, 0, 0]	n/a	catFR1	0	R1491T
1122.18	0.001	1167486	WORD_OFF	n/a	n/a	DAISY	Flowers	12	7	[0, 0, 0]	n/a	catFR1	0	R1491T
1122.181	0.0	1167486	ENCODING_END	n/a	n/a	n/a	n/a	-999	7	[0, 0, 0]	n/a	catFR1	0	R1491T
1122.18	0.001	1167487	PROB	5.934	n/a	n/a	n/a	-999	7	[7, 6, 5]	18.0	catFR1	0	R1491T
1122.181	0.0	1167488	START	n/a	n/a	n/a	n/a	-999	7	[-999, -999, -999]	n/a	catFR1	0	R1491T
1122.181	5.95	1167500	DISTRACT_START	n/a	n/a	n/a	n/a	-999	7	[0, 0, 0]	n/a	catFR1	0	R1491T
1128.131	5.367	1173438	PROB	5.349	n/a	n/a	n/a	-999	7	[8, 7, 7]	22.0	catFR1	0	R1491T
1133.498	6.051	1178805	PROB	6.032	n/a	n/a	n/a	-999	7	[5, 5, 7]	17.0	catFR1	0	R1491T
1139.549	7.415	1184855	PROB	7.399	n/a	n/a	n/a	-999	7	[6, 6, 2]	14.0	catFR1	0	R1491T
1146.964	0.0	1192270	STOP	n/a	n/a	n/a	n/a	-999	7	[-999, -999, -999]	n/a	catFR1	0	R1491T
1146.964	2.267	1192272	DISTRACT_END	n/a	n/a	n/a	n/a	-999	7	[0, 0, 0]	n/a	catFR1	0	R1491T
1149.231	5.761	1194540	REC_START	n/a	n/a	n/a	n/a	-999	7	[0, 0, 0]	n/a	catFR1	0	R1491T
1154.992	4.351	1200298	REC_WORD	5.761	n/a	PINE	Trees	7	7	[0, 0, 0]	n/a	catFR1	0	R1491T
1159.343	1.0	1204648	REC_WORD	10.112	n/a	EVERGREEN	Trees	3	7	[0, 0, 0]	n/a	catFR1	0	R1491T
1160.343	3.637	1205648	REC_WORD	11.112	n/a	EVERGREEN	Trees	3	7	[0, 0, 0]	n/a	catFR1	0	R1491T
1163.98	1.0	1209285	REC_WORD	14.749	n/a	JEANS	Clothing	5	7	[0, 0, 0]	n/a	catFR1	0	R1491T
1164.98	2.934	1210285	REC_WORD	15.749	n/a	JEANS	Clothing	5	7	[0, 0, 0]	n/a	catFR1	0	R1491T
1167.914	1.0	1213219	REC_WORD	18.683	n/a	SKIRT	Clothing	9	7	[0, 0, 0]	n/a	catFR1	0	R1491T
1168.914	10.562	1214219	REC_WORD	19.683	n/a	SKIRT	Clothing	9	7	[0, 0, 0]	n/a	catFR1	0	R1491T
1179.476	2.488	1224774	REC_END	n/a	n/a	n/a	n/a	-999	7	[0, 0, 0]	n/a	catFR1	0	R1491T
1181.964	10.35	1227268	COUNTDOWN_START	n/a	n/a	n/a	n/a	-999	8	[0, 0, 0]	n/a	catFR1	0	R1491T
1192.314	0.0	1237615	COUNTDOWN_END	n/a	n/a	n/a	n/a	-999	8	[0, 0, 0]	n/a	catFR1	0	R1491T
1192.314	2.049	1237615	ENCODING_START	n/a	n/a	n/a	n/a	-999	8	[0, 0, 0]	n/a	catFR1	0	R1491T
1194.363	1.601	1239668	WORD	n/a	wordpools/wordpool_categorized_EN.txt	DOVE	Birds	1	8	[0, 0, 0]	n/a	catFR1	0	R1491T
1195.964	0.867	1241266	WORD_OFF	n/a	n/a	DOVE	Birds	1	8	[0, 0, 0]	n/a	catFR1	0	R1491T
1196.831	1.616	1242134	WORD	n/a	wordpools/wordpool_categorized_EN.txt	DUCK	Birds	2	8	[0, 0, 0]	n/a	catFR1	0	R1491T
1198.447	0.766	1243746	WORD_OFF	n/a	n/a	DUCK	Birds	2	8	[0, 0, 0]	n/a	catFR1	0	R1491T
1199.213	1.601	1244518	WORD	n/a	wordpools/wordpool_categorized_EN.txt	REFRIGERATOR	Appliances	3	8	[0, 0, 0]	n/a	catFR1	0	R1491T
1200.814	0.783	1246116	WORD_OFF	n/a	n/a	REFRIGERATOR	Appliances	3	8	[0, 0, 0]	n/a	catFR1	0	R1491T
1201.597	1.616	1246901	WORD	n/a	wordpools/wordpool_categorized_EN.txt	STOVE	Appliances	4	8	[0, 0, 0]	n/a	catFR1	0	R1491T
1203.213	0.801	1248513	WORD_OFF	n/a	n/a	STOVE	Appliances	4	8	[0, 0, 0]	n/a	catFR1	0	R1491T
1204.014	1.6	1249312	WORD	n/a	wordpools/wordpool_categorized_EN.txt	PEAR	Fruit	5	8	[0, 0, 0]	n/a	catFR1	0	R1491T
1205.614	0.8	1250910	WORD_OFF	n/a	n/a	PEAR	Fruit	5	8	[0, 0, 0]	n/a	catFR1	0	R1491T
1206.414	1.6	1251710	WORD	n/a	wordpools/wordpool_categorized_EN.txt	BANANA	Fruit	6	8	[0, 0, 0]	n/a	catFR1	0	R1491T
1208.014	0.784	1253322	WORD_OFF	n/a	n/a	BANANA	Fruit	6	8	[0, 0, 0]	n/a	catFR1	0	R1491T
1208.798	1.615	1254093	WORD	n/a	wordpools/wordpool_categorized_EN.txt	CARDINAL	Birds	7	8	[0, 0, 0]	n/a	catFR1	0	R1491T
1210.413	1.001	1255719	WORD_OFF	n/a	n/a	CARDINAL	Birds	7	8	[0, 0, 0]	n/a	catFR1	0	R1491T
1211.414	1.616	1256711	WORD	n/a	wordpools/wordpool_categorized_EN.txt	SEAGULL	Birds	8	8	[0, 0, 0]	n/a	catFR1	0	R1491T
1213.03	0.984	1258337	WORD_OFF	n/a	n/a	SEAGULL	Birds	8	8	[0, 0, 0]	n/a	catFR1	0	R1491T
1214.014	1.6	1259315	WORD	n/a	wordpools/wordpool_categorized_EN.txt	BLENDER	Appliances	9	8	[0, 0, 0]	n/a	catFR1	0	R1491T
1215.614	0.9	1260913	WORD_OFF	n/a	n/a	BLENDER	Appliances	9	8	[0, 0, 0]	n/a	catFR1	0	R1491T
1216.514	1.615	1261809	WORD	n/a	wordpools/wordpool_categorized_EN.txt	MIXER	Appliances	10	8	[0, 0, 0]	n/a	catFR1	0	R1491T
1218.129	0.835	1263434	WORD_OFF	n/a	n/a	MIXER	Appliances	10	8	[0, 0, 0]	n/a	catFR1	0	R1491T
1218.964	1.617	1264261	WORD	n/a	wordpools/wordpool_categorized_EN.txt	GRAPE	Fruit	11	8	[0, 0, 0]	n/a	catFR1	0	R1491T
1220.581	0.917	1265887	WORD_OFF	n/a	n/a	GRAPE	Fruit	11	8	[0, 0, 0]	n/a	catFR1	0	R1491T
1221.498	1.6	1266796	WORD	n/a	wordpools/wordpool_categorized_EN.txt	STRAWBERRY	Fruit	12	8	[0, 0, 0]	n/a	catFR1	0	R1491T
1223.098	0.001	1268394	WORD_OFF	n/a	n/a	STRAWBERRY	Fruit	12	8	[0, 0, 0]	n/a	catFR1	0	R1491T
1223.099	0.0	1268394	ENCODING_END	n/a	n/a	n/a	n/a	-999	8	[0, 0, 0]	n/a	catFR1	0	R1491T
1223.098	0.001	1268400	PROB	8.582	n/a	n/a	n/a	-999	8	[1, 1, 1]	3.0	catFR1	0	R1491T
1223.099	0.0	1268401	START	n/a	n/a	n/a	n/a	-999	8	[-999, -999, -999]	n/a	catFR1	0	R1491T
1223.099	8.6	1268408	DISTRACT_START	n/a	n/a	n/a	n/a	-999	8	[0, 0, 0]	n/a	catFR1	0	R1491T
1231.699	4.215	1277001	PROB	4.199	n/a	n/a	n/a	-999	8	[4, 4, 1]	9.0	catFR1	0	R1491T
1235.914	4.516	1281215	PROB	4.5	n/a	n/a	n/a	-999	8	[5, 6, 8]	19.0	catFR1	0	R1491T
1240.43	7.467	1285731	PROB	7.451	n/a	n/a	n/a	-999	8	[8, 1, 5]	14.0	catFR1	0	R1491T
1247.897	0.0	1293194	DISTRACT_END	n/a	n/a	n/a	n/a	-999	8	[0, 0, 0]	n/a	catFR1	0	R1491T
1247.897	2.051	1293198	STOP	n/a	n/a	n/a	n/a	-999	8	[-999, -999, -999]	n/a	catFR1	0	R1491T
1249.948	4.632	1295241	REC_START	n/a	n/a	n/a	n/a	-999	8	[0, 0, 0]	n/a	catFR1	0	R1491T
1254.58	9.198	1299880	REC_WORD_VV	4.632	n/a	<>	n/a	-999	8	[0, 0, 0]	n/a	catFR1	0	R1491T
1263.778	1.0	1309078	REC_WORD_VV	13.83	n/a	<>	n/a	-999	8	[0, 0, 0]	n/a	catFR1	0	R1491T
1264.778	15.407	1310078	REC_WORD_VV	14.83	n/a	<>	n/a	-999	8	[0, 0, 0]	n/a	catFR1	0	R1491T
1280.185	2.295	1325476	REC_END	n/a	n/a	n/a	n/a	-999	8	[0, 0, 0]	n/a	catFR1	0	R1491T
1282.48	10.35	1327777	COUNTDOWN_START	n/a	n/a	n/a	n/a	-999	9	[0, 0, 0]	n/a	catFR1	0	R1491T
1292.83	0.0	1338124	COUNTDOWN_END	n/a	n/a	n/a	n/a	-999	9	[0, 0, 0]	n/a	catFR1	0	R1491T
1292.83	2.284	1338124	ENCODING_START	n/a	n/a	n/a	n/a	-999	9	[0, 0, 0]	n/a	catFR1	0	R1491T
1295.114	1.616	1340411	WORD	n/a	wordpools/wordpool_categorized_EN.txt	CROW	Birds	1	9	[0, 0, 0]	n/a	catFR1	0	R1491T
1296.73	1.0	1342023	WORD_OFF	n/a	n/a	CROW	Birds	1	9	[0, 0, 0]	n/a	catFR1	0	R1491T
1297.73	1.6	1343029	WORD	n/a	wordpools/wordpool_categorized_EN.txt	HAWK	Birds	2	9	[0, 0, 0]	n/a	catFR1	0	R1491T
1299.33	0.95	1344627	WORD_OFF	n/a	n/a	HAWK	Birds	2	9	[0, 0, 0]	n/a	catFR1	0	R1491T
1300.28	1.601	1345577	WORD	n/a	wordpools/wordpool_categorized_EN.txt	MOTH	Insects	3	9	[0, 0, 0]	n/a	catFR1	0	R1491T
1301.881	0.916	1347176	WORD_OFF	n/a	n/a	MOTH	Insects	3	9	[0, 0, 0]	n/a	catFR1	0	R1491T
1302.797	1.6	1348099	WORD	n/a	wordpools/wordpool_categorized_EN.txt	BEETLE	Insects	4	9	[0, 0, 0]	n/a	catFR1	0	R1491T
1304.397	0.967	1349697	WORD_OFF	n/a	n/a	BEETLE	Insects	4	9	[0, 0, 0]	n/a	catFR1	0	R1491T
1305.364	1.616	1350661	WORD	n/a	wordpools/wordpool_categorized_EN.txt	ORCHID	Flowers	5	9	[0, 0, 0]	n/a	catFR1	0	R1491T
1306.98	0.85	1352273	WORD_OFF	n/a	n/a	ORCHID	Flowers	5	9	[0, 0, 0]	n/a	catFR1	0	R1491T
1307.83	1.6	1353128	WORD	n/a	wordpools/wordpool_categorized_EN.txt	CARNATION	Flowers	6	9	[0, 0, 0]	n/a	catFR1	0	R1491T
1309.43	0.801	1354726	WORD_OFF	n/a	n/a	CARNATION	Flowers	6	9	[0, 0, 0]	n/a	catFR1	0	R1491T
1310.231	1.617	1355525	WORD	n/a	wordpools/wordpool_categorized_EN.txt	ROBIN	Birds	7	9	[0, 0, 0]	n/a	catFR1	0	R1491T
1311.848	0.766	1357137	WORD_OFF	n/a	n/a	ROBIN	Birds	7	9	[0, 0, 0]	n/a	catFR1	0	R1491T
1312.614	1.617	1357909	WORD	n/a	wordpools/wordpool_categorized_EN.txt	FINCH	Birds	8	9	[0, 0, 0]	n/a	catFR1	0	R1491T
1314.231	0.817	1359521	WORD_OFF	n/a	n/a	FINCH	Birds	8	9	[0, 0, 0]	n/a	catFR1	0	R1491T
1315.048	1.6	1360347	WORD	n/a	wordpools/wordpool_categorized_EN.txt	ANT	Insects	9	9	[0, 0, 0]	n/a	catFR1	0	R1491T
1316.648	0.949	1361945	WORD_OFF	n/a	n/a	ANT	Insects	9	9	[0, 0, 0]	n/a	catFR1	0	R1491T
1317.597	1.601	1362896	WORD	n/a	wordpools/wordpool_categorized_EN.txt	GNAT	Insects	10	9	[0, 0, 0]	n/a	catFR1	0	R1491T
1319.198	0.816	1364494	WORD_OFF	n/a	n/a	GNAT	Insects	10	9	[0, 0, 0]	n/a	catFR1	0	R1491T
1320.014	1.616	1365307	WORD	n/a	wordpools/wordpool_categorized_EN.txt	LILAC	Flowers	11	9	[0, 0, 0]	n/a	catFR1	0	R1491T
1321.63	0.901	1366919	WORD_OFF	n/a	n/a	LILAC	Flowers	11	9	[0, 0, 0]	n/a	catFR1	0	R1491T
1322.531	1.6	1367829	WORD	n/a	wordpools/wordpool_categorized_EN.txt	PETUNIA	Flowers	12	9	[0, 0, 0]	n/a	catFR1	0	R1491T
1324.131	0.001	1369427	WORD_OFF	n/a	n/a	PETUNIA	Flowers	12	9	[0, 0, 0]	n/a	catFR1	0	R1491T
1324.132	0.0	1369427	ENCODING_END	n/a	n/a	n/a	n/a	-999	9	[0, 0, 0]	n/a	catFR1	0	R1491T
1324.131	0.001	1369428	PROB	3.95	n/a	n/a	n/a	-999	9	[4, 4, 1]	9.0	catFR1	0	R1491T
1324.132	0.0	1369429	START	n/a	n/a	n/a	n/a	-999	9	[-999, -999, -999]	n/a	catFR1	0	R1491T
1324.132	3.966	1369441	DISTRACT_START	n/a	n/a	n/a	n/a	-999	9	[0, 0, 0]	n/a	catFR1	0	R1491T
1328.098	6.034	1373395	PROB	6.016	n/a	n/a	n/a	-999	9	[4, 7, 6]	18.0	catFR1	0	R1491T
1334.132	5.632	1379428	PROB	5.616	n/a	n/a	n/a	-999	9	[6, 1, 3]	10.0	catFR1	0	R1491T
1339.764	4.267	1385060	PROB	4.25	n/a	n/a	n/a	-999	9	[7, 6, 2]	15.0	catFR1	0	R1491T
1344.031	4.783	1389327	PROB	4.766	n/a	n/a	n/a	-999	9	[5, 8, 2]	14.0	catFR1	0	R1491T
1348.814	0.0	1394103	DISTRACT_END	n/a	n/a	n/a	n/a	-999	9	[0, 0, 0]	n/a	catFR1	0	R1491T
1348.814	2.034	1394110	STOP	n/a	n/a	n/a	n/a	-999	9	[-999, -999, -999]	n/a	catFR1	0	R1491T
1350.848	1.729	1396136	REC_START	n/a	n/a	n/a	n/a	-999	9	[0, 0, 0]	n/a	catFR1	0	R1491T
1352.577	3.848	1397872	REC_WORD	1.729	n/a	CROW	Birds	1	9	[0, 0, 0]	n/a	catFR1	0	R1491T
1356.425	1.0	1401720	REC_WORD_VV	5.577	n/a	<>	n/a	-999	9	[0, 0, 0]	n/a	catFR1	0	R1491T
1357.425	1.917	1402720	REC_WORD_VV	6.577	n/a	<>	n/a	-999	9	[0, 0, 0]	n/a	catFR1	0	R1491T
1359.342	21.72	1404637	REC_WORD	8.494	n/a	MOTH	Insects	3	9	[0, 0, 0]	n/a	catFR1	0	R1491T
1381.062	4.269	1426356	REC_END	n/a	n/a	n/a	n/a	-999	9	[0, 0, 0]	n/a	catFR1	0	R1491T
1385.331	10.349	1430628	COUNTDOWN_START	n/a	n/a	n/a	n/a	-999	10	[0, 0, 0]	n/a	catFR1	0	R1491T
1395.68	0.0	1440975	COUNTDOWN_END	n/a	n/a	n/a	n/a	-999	10	[0, 0, 0]	n/a	catFR1	0	R1491T
1395.68	2.084	1440975	ENCODING_START	n/a	n/a	n/a	n/a	-999	10	[0, 0, 0]	n/a	catFR1	0	R1491T
1397.764	1.617	1443055	WORD	n/a	wordpools/wordpool_categorized_EN.txt	GUITAR	Instruments	1	10	[0, 0, 0]	n/a	catFR1	0	R1491T
1399.381	0.832	1444667	WORD_OFF	n/a	n/a	GUITAR	Instruments	1	10	[0, 0, 0]	n/a	catFR1	0	R1491T
1400.213	1.618	1445508	WORD	n/a	wordpools/wordpool_categorized_EN.txt	ORGAN	Instruments	2	10	[0, 0, 0]	n/a	catFR1	0	R1491T
1401.831	0.849	1447120	WORD_OFF	n/a	n/a	ORGAN	Instruments	2	10	[0, 0, 0]	n/a	catFR1	0	R1491T
1402.68	1.6	1447974	WORD	n/a	wordpools/wordpool_categorized_EN.txt	CEILING	Building	3	10	[0, 0, 0]	n/a	catFR1	0	R1491T
1404.28	0.867	1449572	WORD_OFF	n/a	n/a	CEILING	Building	3	10	[0, 0, 0]	n/a	catFR1	0	R1491T
1405.147	1.601	1450440	WORD	n/a	wordpools/wordpool_categorized_EN.txt	FLOOR	Building	4	10	[0, 0, 0]	n/a	catFR1	0	R1491T
1406.748	0.799	1452038	WORD_OFF	n/a	n/a	FLOOR	Building	4	10	[0, 0, 0]	n/a	catFR1	0	R1491T
1407.547	1.6	1452837	WORD	n/a	wordpools/wordpool_categorized_EN.txt	DISHWASHER	Appliances	5	10	[0, 0, 0]	n/a	catFR1	0	R1491T
1409.147	1.184	1454436	WORD_OFF	n/a	n/a	DISHWASHER	Appliances	5	10	[0, 0, 0]	n/a	catFR1	0	R1491T
1410.331	1.616	1455620	WORD	n/a	wordpools/wordpool_categorized_EN.txt	VACUUM	Appliances	6	10	[0, 0, 0]	n/a	catFR1	0	R1491T
1411.947	0.834	1457232	WORD_OFF	n/a	n/a	VACUUM	Appliances	6	10	[0, 0, 0]	n/a	catFR1	0	R1491T
1412.781	1.6	1458073	WORD	n/a	wordpools/wordpool_categorized_EN.txt	BASS	Instruments	7	10	[0, 0, 0]	n/a	catFR1	0	R1491T
1414.381	0.883	1459671	WORD_OFF	n/a	n/a	BASS	Instruments	7	10	[0, 0, 0]	n/a	catFR1	0	R1491T
1415.264	1.6	1460553	WORD	n/a	wordpools/wordpool_categorized_EN.txt	BANJO	Instruments	8	10	[0, 0, 0]	n/a	catFR1	0	R1491T
1416.864	0.917	1462151	WORD_OFF	n/a	n/a	BANJO	Instruments	8	10	[0, 0, 0]	n/a	catFR1	0	R1491T
1417.781	1.601	1463074	WORD	n/a	wordpools/wordpool_categorized_EN.txt	TOASTER	Appliances	9	10	[0, 0, 0]	n/a	catFR1	0	R1491T
1419.382	0.831	1464672	WORD_OFF	n/a	n/a	TOASTER	Appliances	9	10	[0, 0, 0]	n/a	catFR1	0	R1491T
1420.213	1.602	1465499	WORD	n/a	wordpools/wordpool_categorized_EN.txt	WASHER	Appliances	10	10	[0, 0, 0]	n/a	catFR1	0	R1491T
1421.815	1.0	1467111	WORD_OFF	n/a	n/a	WASHER	Appliances	10	10	[0, 0, 0]	n/a	catFR1	0	R1491T
1422.815	1.599	1468103	WORD	n/a	wordpools/wordpool_categorized_EN.txt	BATHROOM	Building	11	10	[0, 0, 0]	n/a	catFR1	0	R1491T
1424.414	0.767	1469701	WORD_OFF	n/a	n/a	BATHROOM	Building	11	10	[0, 0, 0]	n/a	catFR1	0	R1491T
1425.181	1.616	1470473	WORD	n/a	wordpools/wordpool_categorized_EN.txt	FOUNDATION	Building	12	10	[0, 0, 0]	n/a	catFR1	0	R1491T
1426.797	0.001	1472085	WORD_OFF	n/a	n/a	FOUNDATION	Building	12	10	[0, 0, 0]	n/a	catFR1	0	R1491T
1426.798	0.0	1472085	ENCODING_END	n/a	n/a	n/a	n/a	-999	10	[0, 0, 0]	n/a	catFR1	0	R1491T
1426.798	0.0	1472085	DISTRACT_START	n/a	n/a	n/a	n/a	-999	10	[0, 0, 0]	n/a	catFR1	0	R1491T
1426.797	0.001	1472088	PROB	5.067	n/a	n/a	n/a	-999	10	[5, 2, 7]	14.0	catFR1	0	R1491T
1426.798	5.084	1472089	START	n/a	n/a	n/a	n/a	-999	10	[-999, -999, -999]	n/a	catFR1	0	R1491T
1431.882	4.632	1477173	PROB	4.616	n/a	n/a	n/a	-999	10	[1, 8, 8]	17.0	catFR1	0	R1491T
1436.514	7.067	1481805	PROB	7.05	n/a	n/a	n/a	-999	10	[6, 2, 4]	12.0	catFR1	0	R1491T
1443.581	5.7	1488872	PROB	5.683	n/a	n/a	n/a	-999	10	[1, 4, 1]	6.0	catFR1	0	R1491T
1449.281	0.0	1494570	DISTRACT_END	n/a	n/a	n/a	n/a	-999	10	[0, 0, 0]	n/a	catFR1	0	R1491T
1449.281	2.067	1494571	STOP	n/a	n/a	n/a	n/a	-999	10	[-999, -999, -999]	n/a	catFR1	0	R1491T
1451.348	1.72	1496631	REC_START	n/a	n/a	n/a	n/a	-999	10	[0, 0, 0]	n/a	catFR1	0	R1491T
1453.068	1.0	1498358	REC_WORD	1.72	n/a	FLOOR	Building	4	10	[0, 0, 0]	n/a	catFR1	0	R1491T
1454.068	1.745	1499358	REC_WORD	2.72	n/a	FLOOR	Building	4	10	[0, 0, 0]	n/a	catFR1	0	R1491T
1455.813	1.014	1501103	REC_WORD_VV	4.465	n/a	<>	n/a	-999	10	[0, 0, 0]	n/a	catFR1	0	R1491T
1456.827	4.893	1502117	REC_WORD	5.479	n/a	PIANO	n/a	-999	10	[0, 0, 0]	n/a	catFR1	0	R1491T
1461.72	1.0	1507010	REC_WORD	10.372	n/a	BASS	Instruments	7	10	[0, 0, 0]	n/a	catFR1	0	R1491T
1462.72	7.648	1508010	REC_WORD	11.372	n/a	BASS	Instruments	7	10	[0, 0, 0]	n/a	catFR1	0	R1491T
1470.368	1.0	1515657	REC_WORD	19.02	n/a	WASHER	Appliances	10	10	[0, 0, 0]	n/a	catFR1	0	R1491T
1471.368	6.556	1516657	REC_WORD	20.02	n/a	WASHER	Appliances	10	10	[0, 0, 0]	n/a	catFR1	0	R1491T
1477.924	3.654	1523213	REC_WORD_VV	26.576	n/a	<>	n/a	-999	10	[0, 0, 0]	n/a	catFR1	0	R1491T
1481.578	3.386	1526865	REC_END	n/a	n/a	n/a	n/a	-999	10	[0, 0, 0]	n/a	catFR1	0	R1491T
1484.964	10.351	1530255	COUNTDOWN_START	n/a	n/a	n/a	n/a	-999	11	[0, 0, 0]	n/a	catFR1	0	R1491T
1495.315	0.0	1540602	COUNTDOWN_END	n/a	n/a	n/a	n/a	-999	11	[0, 0, 0]	n/a	catFR1	0	R1491T
1495.315	1.833	1540602	ENCODING_START	n/a	n/a	n/a	n/a	-999	11	[0, 0, 0]	n/a	catFR1	0	R1491T
1497.148	1.616	1542434	WORD	n/a	wordpools/wordpool_categorized_EN.txt	FREEZER	Appliances	1	11	[0, 0, 0]	n/a	catFR1	0	R1491T
1498.764	0.85	1544046	WORD_OFF	n/a	n/a	FREEZER	Appliances	1	11	[0, 0, 0]	n/a	catFR1	0	R1491T
1499.614	1.617	1544900	WORD	n/a	wordpools/wordpool_categorized_EN.txt	OVEN	Appliances	2	11	[0, 0, 0]	n/a	catFR1	0	R1491T
1501.231	0.766	1546512	WORD_OFF	n/a	n/a	OVEN	Appliances	2	11	[0, 0, 0]	n/a	catFR1	0	R1491T
1501.997	1.601	1547284	WORD	n/a	wordpools/wordpool_categorized_EN.txt	SCANNER	Electronics	3	11	[0, 0, 0]	n/a	catFR1	0	R1491T
1503.598	0.95	1548882	WORD_OFF	n/a	n/a	SCANNER	Electronics	3	11	[0, 0, 0]	n/a	catFR1	0	R1491T
1504.548	1.6	1549833	WORD	n/a	wordpools/wordpool_categorized_EN.txt	SPEAKER	Electronics	4	11	[0, 0, 0]	n/a	catFR1	0	R1491T
1506.148	0.865	1551431	WORD_OFF	n/a	n/a	SPEAKER	Electronics	4	11	[0, 0, 0]	n/a	catFR1	0	R1491T
1507.013	1.601	1552299	WORD	n/a	wordpools/wordpool_categorized_EN.txt	ROOM	Building	5	11	[0, 0, 0]	n/a	catFR1	0	R1491T
1508.614	0.917	1553897	WORD_OFF	n/a	n/a	ROOM	Building	5	11	[0, 0, 0]	n/a	catFR1	0	R1491T
1509.531	1.599	1554820	WORD	n/a	wordpools/wordpool_categorized_EN.txt	WALL	Building	6	11	[0, 0, 0]	n/a	catFR1	0	R1491T
1511.13	0.901	1556419	WORD_OFF	n/a	n/a	WALL	Building	6	11	[0, 0, 0]	n/a	catFR1	0	R1491T
1512.031	1.616	1557314	WORD	n/a	wordpools/wordpool_categorized_EN.txt	IRON	Appliances	7	11	[0, 0, 0]	n/a	catFR1	0	R1491T
1513.647	0.801	1558926	WORD_OFF	n/a	n/a	IRON	Appliances	7	11	[0, 0, 0]	n/a	catFR1	0	R1491T
1514.448	1.616	1559739	WORD	n/a	wordpools/wordpool_categorized_EN.txt	DRYER	Appliances	8	11	[0, 0, 0]	n/a	catFR1	0	R1491T
1516.064	0.917	1561351	WORD_OFF	n/a	n/a	DRYER	Appliances	8	11	[0, 0, 0]	n/a	catFR1	0	R1491T
1516.981	1.615	1562260	WORD	n/a	wordpools/wordpool_categorized_EN.txt	ATTIC	Building	9	11	[0, 0, 0]	n/a	catFR1	0	R1491T
1518.596	0.868	1563886	WORD_OFF	n/a	n/a	ATTIC	Building	9	11	[0, 0, 0]	n/a	catFR1	0	R1491T
1519.464	1.6	1564754	WORD	n/a	wordpools/wordpool_categorized_EN.txt	STAIRS	Building	10	11	[0, 0, 0]	n/a	catFR1	0	R1491T
1521.064	0.834	1566352	WORD_OFF	n/a	n/a	STAIRS	Building	10	11	[0, 0, 0]	n/a	catFR1	0	R1491T
1521.898	1.616	1567179	WORD	n/a	wordpools/wordpool_categorized_EN.txt	STEREO	Electronics	11	11	[0, 0, 0]	n/a	catFR1	0	R1491T
1523.514	0.9	1568805	WORD_OFF	n/a	n/a	STEREO	Electronics	11	11	[0, 0, 0]	n/a	catFR1	0	R1491T
1524.414	1.6	1569700	WORD	n/a	wordpools/wordpool_categorized_EN.txt	MICROWAVE	Electronics	12	11	[0, 0, 0]	n/a	catFR1	0	R1491T
1526.014	0.002	1571299	WORD_OFF	n/a	n/a	MICROWAVE	Electronics	12	11	[0, 0, 0]	n/a	catFR1	0	R1491T
1526.016	0.0	1571299	ENCODING_END	n/a	n/a	n/a	n/a	-999	11	[0, 0, 0]	n/a	catFR1	0	R1491T
1526.016	0.0	1571299	DISTRACT_START	n/a	n/a	n/a	n/a	-999	11	[0, 0, 0]	n/a	catFR1	0	R1491T
1526.014	0.002	1571300	PROB	7.0	n/a	n/a	n/a	-999	11	[8, 1, 6]	15.0	catFR1	0	R1491T
1526.016	7.015	1571302	START	n/a	n/a	n/a	n/a	-999	11	[-999, -999, -999]	n/a	catFR1	0	R1491T
1533.031	4.634	1578317	PROB	4.616	n/a	n/a	n/a	-999	11	[4, 5, 8]	17.0	catFR1	0	R1491T
1537.665	4.867	1582951	PROB	4.849	n/a	n/a	n/a	-999	11	[5, 3, 7]	15.0	catFR1	0	R1491T
1542.532	4.049	1587818	PROB	4.032	n/a	n/a	n/a	-999	11	[8, 7, 1]	16.0	catFR1	0	R1491T
1546.581	0.0	1591866	STOP	n/a	n/a	n/a	n/a	-999	11	[-999, -999, -999]	n/a	catFR1	0	R1491T
1546.581	2.383	1591869	DISTRACT_END	n/a	n/a	n/a	n/a	-999	11	[0, 0, 0]	n/a	catFR1	0	R1491T
1548.964	3.719	1594247	REC_START	n/a	n/a	n/a	n/a	-999	11	[0, 0, 0]	n/a	catFR1	0	R1491T
1552.683	1.0	1597968	REC_WORD	3.719	n/a	MICROWAVE	Electronics	12	11	[0, 0, 0]	n/a	catFR1	0	R1491T
1553.683	1.915	1598968	REC_WORD	4.719	n/a	MICROWAVE	Electronics	12	11	[0, 0, 0]	n/a	catFR1	0	R1491T
1555.598	3.297	1600883	REC_WORD	6.634	n/a	SPEAKER	Electronics	4	11	[0, 0, 0]	n/a	catFR1	0	R1491T
1558.895	0.999	1604180	REC_WORD	9.931	n/a	STAIRS	Building	10	11	[0, 0, 0]	n/a	catFR1	0	R1491T
1559.894	6.941	1605179	REC_WORD	10.93	n/a	STAIRS	Building	10	11	[0, 0, 0]	n/a	catFR1	0	R1491T
1566.835	12.356	1612119	REC_WORD	17.871	n/a	IRON	Appliances	7	11	[0, 0, 0]	n/a	catFR1	0	R1491T
1579.191	8.273	1624467	REC_END	n/a	n/a	n/a	n/a	-999	11	[0, 0, 0]	n/a	catFR1	0	R1491T
1587.464	10.35	1632747	COUNTDOWN_START	n/a	n/a	n/a	n/a	-999	12	[0, 0, 0]	n/a	catFR1	0	R1491T
1597.814	0.001	1643094	COUNTDOWN_END	n/a	n/a	n/a	n/a	-999	12	[0, 0, 0]	n/a	catFR1	0	R1491T
1597.815	2.116	1643094	ENCODING_START	n/a	n/a	n/a	n/a	-999	12	[0, 0, 0]	n/a	catFR1	0	R1491T
1599.931	1.616	1645216	WORD	n/a	wordpools/wordpool_categorized_EN.txt	TELEVISION	Electronics	1	12	[0, 0, 0]	n/a	catFR1	0	R1491T
1601.547	0.984	1646828	WORD_OFF	n/a	n/a	TELEVISION	Electronics	1	12	[0, 0, 0]	n/a	catFR1	0	R1491T
1602.531	1.616	1647806	WORD	n/a	wordpools/wordpool_categorized_EN.txt	CALCULATOR	Electronics	2	12	[0, 0, 0]	n/a	catFR1	0	R1491T
1604.147	0.933	1649432	WORD_OFF	n/a	n/a	CALCULATOR	Electronics	2	12	[0, 0, 0]	n/a	catFR1	0	R1491T
1605.08	1.617	1650355	WORD	n/a	wordpools/wordpool_categorized_EN.txt	WINDOW	Building	3	12	[0, 0, 0]	n/a	catFR1	0	R1491T
1606.697	0.933	1651981	WORD_OFF	n/a	n/a	WINDOW	Building	3	12	[0, 0, 0]	n/a	catFR1	0	R1491T
1607.63	1.617	1652904	WORD	n/a	wordpools/wordpool_categorized_EN.txt	ROOF	Building	4	12	[0, 0, 0]	n/a	catFR1	0	R1491T
1609.247	0.951	1654530	WORD_OFF	n/a	n/a	ROOF	Building	4	12	[0, 0, 0]	n/a	catFR1	0	R1491T
1610.198	1.615	1655481	WORD	n/a	wordpools/wordpool_categorized_EN.txt	CORN	Vegetables	5	12	[0, 0, 0]	n/a	catFR1	0	R1491T
1611.813	0.967	1657093	WORD_OFF	n/a	n/a	CORN	Vegetables	5	12	[0, 0, 0]	n/a	catFR1	0	R1491T
1612.78	1.601	1658057	WORD	n/a	wordpools/wordpool_categorized_EN.txt	CUCUMBER	Vegetables	6	12	[0, 0, 0]	n/a	catFR1	0	R1491T
1614.381	0.899	1659655	WORD_OFF	n/a	n/a	CUCUMBER	Vegetables	6	12	[0, 0, 0]	n/a	catFR1	0	R1491T
1615.28	1.601	1660565	WORD	n/a	wordpools/wordpool_categorized_EN.txt	HALLWAY	Building	7	12	[0, 0, 0]	n/a	catFR1	0	R1491T
1616.881	0.833	1662163	WORD_OFF	n/a	n/a	HALLWAY	Building	7	12	[0, 0, 0]	n/a	catFR1	0	R1491T
1617.714	1.617	1662990	WORD	n/a	wordpools/wordpool_categorized_EN.txt	DOOR	Building	8	12	[0, 0, 0]	n/a	catFR1	0	R1491T
1619.331	0.849	1664615	WORD_OFF	n/a	n/a	DOOR	Building	8	12	[0, 0, 0]	n/a	catFR1	0	R1491T
1620.18	1.601	1665456	WORD	n/a	wordpools/wordpool_categorized_EN.txt	PHONE	Electronics	9	12	[0, 0, 0]	n/a	catFR1	0	R1491T
1621.781	0.982	1667054	WORD_OFF	n/a	n/a	PHONE	Electronics	9	12	[0, 0, 0]	n/a	catFR1	0	R1491T
1622.763	1.6	1668046	WORD	n/a	wordpools/wordpool_categorized_EN.txt	COMPUTER	Electronics	10	12	[0, 0, 0]	n/a	catFR1	0	R1491T
1624.363	0.984	1669644	WORD_OFF	n/a	n/a	COMPUTER	Electronics	10	12	[0, 0, 0]	n/a	catFR1	0	R1491T
1625.347	1.601	1670622	WORD	n/a	wordpools/wordpool_categorized_EN.txt	CARROT	Vegetables	11	12	[0, 0, 0]	n/a	catFR1	0	R1491T
1626.948	0.916	1672222	WORD_OFF	n/a	n/a	CARROT	Vegetables	11	12	[0, 0, 0]	n/a	catFR1	0	R1491T
1627.864	1.6	1673144	WORD	n/a	wordpools/wordpool_categorized_EN.txt	SPINACH	Vegetables	12	12	[0, 0, 0]	n/a	catFR1	0	R1491T
1629.464	0.005	1674742	WORD_OFF	n/a	n/a	SPINACH	Vegetables	12	12	[0, 0, 0]	n/a	catFR1	0	R1491T
1629.469	0.0	1674742	ENCODING_END	n/a	n/a	n/a	n/a	-999	12	[0, 0, 0]	n/a	catFR1	0	R1491T
1629.465	0.004	1674746	PROB	5.816	n/a	n/a	n/a	-999	12	[7, 2, 6]	15.0	catFR1	0	R1491T
1629.469	0.0	1674750	START	n/a	n/a	n/a	n/a	-999	12	[-999, -999, -999]	n/a	catFR1	0	R1491T
1629.469	5.829	1674756	DISTRACT_START	n/a	n/a	n/a	n/a	-999	12	[0, 0, 0]	n/a	catFR1	0	R1491T
1635.298	4.518	1680579	PROB	4.5	n/a	n/a	n/a	-999	12	[1, 1, 6]	8.0	catFR1	0	R1491T
1639.816	4.948	1685097	PROB	4.933	n/a	n/a	n/a	-999	12	[7, 1, 5]	13.0	catFR1	0	R1491T
1644.764	4.266	1690044	PROB	4.25	n/a	n/a	n/a	-999	12	[2, 3, 4]	9.0	catFR1	0	R1491T
1649.03	5.051	1694310	PROB	5.034	n/a	n/a	n/a	-999	12	[4, 8, 3]	15.0	catFR1	0	R1491T
1654.081	0.0	1699361	STOP	n/a	n/a	n/a	n/a	-999	12	[-999, -999, -999]	n/a	catFR1	0	R1491T
1654.081	2.132	1699363	DISTRACT_END	n/a	n/a	n/a	n/a	-999	12	[0, 0, 0]	n/a	catFR1	0	R1491T
1656.213	0.468	1701493	REC_START	n/a	n/a	n/a	n/a	-999	12	[0, 0, 0]	n/a	catFR1	0	R1491T
1656.681	0.509	1701961	REC_WORD_VV	0.468	n/a	<>	n/a	-999	12	[0, 0, 0]	n/a	catFR1	0	R1491T
1657.19	1.0	1702470	REC_WORD	0.977	n/a	CORN	Vegetables	5	12	[0, 0, 0]	n/a	catFR1	0	R1491T
1658.19	1.809	1703470	REC_WORD	1.977	n/a	CORN	Vegetables	5	12	[0, 0, 0]	n/a	catFR1	0	R1491T
1659.999	1.0	1705279	REC_WORD	3.786	n/a	SPINACH	Vegetables	12	12	[0, 0, 0]	n/a	catFR1	0	R1491T
1660.999	9.725	1706278	REC_WORD	4.786	n/a	SPINACH	Vegetables	12	12	[0, 0, 0]	n/a	catFR1	0	R1491T
1670.724	15.704	1716003	REC_WORD_VV	14.511	n/a	<>	n/a	-999	12	[0, 0, 0]	n/a	catFR1	0	R1491T
1686.428	0.0	1731699	REC_END	n/a	n/a	n/a	n/a	-999	12	[0, 0, 0]	n/a	catFR1	0	R1491T
