onset	duration	sample	trial_type	response_time	stim_file	item_name	category	serialpos	list	test	answer	experiment	session	subject
0.0	8.47	223326	INSTRUCT_START	n/a	n/a	n/a	n/a	-999	-999	[0, 0, 0]	n/a	catFR1	10	R1662S
8.47	27.352	231804	INSTRUCT_END	n/a	n/a	n/a	n/a	-999	-999	[0, 0, 0]	n/a	catFR1	10	R1662S
35.822	10.368	259154	COUNTDOWN_START	n/a	n/a	n/a	n/a	-999	-999	[0, 0, 0]	n/a	catFR1	10	R1662S
46.19	0.001	269523	COUNTDOWN_END	n/a	n/a	n/a	n/a	-999	-999	[0, 0, 0]	n/a	catFR1	10	R1662S
46.191	2.21	269523	ENCODING_START	n/a	n/a	n/a	n/a	-999	-1	[0, 0, 0]	n/a	catFR1	10	R1662S
48.401	1.605	271727	WORD	n/a	n/a	HEADPHONES	Electronics	1	-1	[0, 0, 0]	n/a	catFR1	10	R1662S
50.006	0.941	273341	WORD_OFF	n/a	n/a	HEADPHONES	Electronics	1	-1	[0, 0, 0]	n/a	catFR1	10	R1662S
50.947	1.618	274276	WORD	n/a	n/a	PRINTER	Electronics	2	-1	[0, 0, 0]	n/a	catFR1	10	R1662S
52.565	0.99	275902	WORD_OFF	n/a	n/a	PRINTER	Electronics	2	-1	[0, 0, 0]	n/a	catFR1	10	R1662S
53.555	1.6	276883	WORD	n/a	n/a	SHOVEL	Tools	3	-1	[0, 0, 0]	n/a	catFR1	10	R1662S
55.155	0.991	278486	WORD_OFF	n/a	n/a	SHOVEL	Tools	3	-1	[0, 0, 0]	n/a	catFR1	10	R1662S
56.146	1.609	279478	WORD	n/a	n/a	LEVEL	Tools	4	-1	[0, 0, 0]	n/a	catFR1	10	R1662S
57.755	0.998	281081	WORD_OFF	n/a	n/a	LEVEL	Tools	4	-1	[0, 0, 0]	n/a	catFR1	10	R1662S
58.753	1.6	282085	WORD	n/a	n/a	CUCUMBER	Vegetables	5	-1	[0, 0, 0]	n/a	catFR1	10	R1662S
60.353	0.835	283688	WORD_OFF	n/a	n/a	CUCUMBER	Vegetables	5	-1	[0, 0, 0]	n/a	catFR1	10	R1662S
61.188	1.608	284519	WORD	n/a	n/a	BROCCOLI	Vegetables	6	-1	[0, 0, 0]	n/a	catFR1	10	R1662S
62.796	0.984	286122	WORD_OFF	n/a	n/a	BROCCOLI	Vegetables	6	-1	[0, 0, 0]	n/a	catFR1	10	R1662S
63.78	1.609	287114	WORD	n/a	n/a	SPEAKER	Electronics	7	-1	[0, 0, 0]	n/a	catFR1	10	R1662S
65.389	0.931	288717	WORD_OFF	n/a	n/a	SPEAKER	Electronics	7	-1	[0, 0, 0]	n/a	catFR1	10	R1662S
66.32	1.601	289652	WORD	n/a	n/a	TABLET	Electronics	8	-1	[0, 0, 0]	n/a	catFR1	10	R1662S
67.921	0.984	291255	WORD_OFF	n/a	n/a	TABLET	Electronics	8	-1	[0, 0, 0]	n/a	catFR1	10	R1662S
68.905	1.607	292236	WORD	n/a	n/a	RATCHET	Tools	9	-1	[0, 0, 0]	n/a	catFR1	10	R1662S
70.512	0.892	293839	WORD_OFF	n/a	n/a	RATCHET	Tools	9	-1	[0, 0, 0]	n/a	catFR1	10	R1662S
71.404	1.601	294739	WORD	n/a	n/a	AXE	Tools	10	-1	[0, 0, 0]	n/a	catFR1	10	R1662S
73.005	1.0	296330	WORD_OFF	n/a	n/a	AXE	Tools	10	-1	[0, 0, 0]	n/a	catFR1	10	R1662S
74.005	1.601	297334	WORD	n/a	n/a	CAULIFLOWER	Vegetables	11	-1	[0, 0, 0]	n/a	catFR1	10	R1662S
75.606	0.791	298937	WORD_OFF	n/a	n/a	CAULIFLOWER	Vegetables	11	-1	[0, 0, 0]	n/a	catFR1	10	R1662S
76.397	1.601	299733	WORD	n/a	n/a	CELERY	Vegetables	12	-1	[0, 0, 0]	n/a	catFR1	10	R1662S
77.998	0.008	301337	WORD_OFF	n/a	n/a	CELERY	Vegetables	12	-1	[0, 0, 0]	n/a	catFR1	10	R1662S
78.006	0.0	301337	ENCODING_END	n/a	n/a	n/a	n/a	-999	-1	[0, 0, 0]	n/a	catFR1	10	R1662S
78.006	0.0	301337	DISTRACT_START	n/a	n/a	n/a	n/a	-999	-1	[0, 0, 0]	n/a	catFR1	10	R1662S
78.003	0.003	301338	PROB	0.003	n/a	n/a	n/a	-999	-1	[3, 5, 3]	11	catFR1	10	R1662S
78.006	5.507	301341	START	n/a	n/a	n/a	n/a	-999	-1	[-999, -999, -999]	n/a	catFR1	10	R1662S
83.513	5.891	306848	PROB	5.891	n/a	n/a	n/a	-999	-1	[8, 5, 6]	19	catFR1	10	R1662S
89.404	3.933	312739	PROB	3.933	n/a	n/a	n/a	-999	-1	[2, 4, 6]	12	catFR1	10	R1662S
93.337	3.375	316672	PROB	3.375	n/a	n/a	n/a	-999	-1	[8, 2, 3]	13	catFR1	10	R1662S
96.712	4.726	320047	PROB	4.726	n/a	n/a	n/a	-999	-1	[6, 5, 4]	15	catFR1	10	R1662S
101.438	0.0	324764	DISTRACT_END	n/a	n/a	n/a	n/a	-999	-1	[0, 0, 0]	n/a	catFR1	10	R1662S
101.438	2.268	324773	STOP	n/a	n/a	n/a	n/a	-999	-1	[-999, -999, -999]	n/a	catFR1	10	R1662S
103.706	1.174	327036	REC_START	n/a	n/a	n/a	n/a	-999	-1	[0, 0, 0]	n/a	catFR1	10	R1662S
104.88	2.226	328215	REC_WORD	2.226	n/a	BROCCOLI	Vegetables	6	-1	[0, 0, 0]	n/a	catFR1	10	R1662S
107.106	0.81	330441	REC_WORD	0.81	n/a	CELERY	Vegetables	12	-1	[0, 0, 0]	n/a	catFR1	10	R1662S
107.916	1.135	331251	REC_WORD	1.135	n/a	CAULIFLOWER	Vegetables	11	-1	[0, 0, 0]	n/a	catFR1	10	R1662S
109.051	0.645	332386	REC_WORD	0.645	n/a	HEADPHONES	Electronics	1	-1	[0, 0, 0]	n/a	catFR1	10	R1662S
109.696	1.381	333031	REC_WORD	1.381	n/a	SPEAKER	Electronics	7	-1	[0, 0, 0]	n/a	catFR1	10	R1662S
111.077	3.349	334412	REC_WORD	3.349	n/a	LEVEL	Tools	4	-1	[0, 0, 0]	n/a	catFR1	10	R1662S
114.426	0.967	337761	REC_WORD	0.967	n/a	AXE	Tools	10	-1	[0, 0, 0]	n/a	catFR1	10	R1662S
115.393	3.102	338728	REC_WORD	3.102	n/a	RATCHET	Tools	9	-1	[0, 0, 0]	n/a	catFR1	10	R1662S
118.495	0.538	341830	REC_WORD	0.538	n/a	HEADPHONES	Electronics	1	-1	[0, 0, 0]	n/a	catFR1	10	R1662S
119.033	1.0	342368	REC_WORD_VV	1.0	n/a	<>	n/a	-999	-1	[0, 0, 0]	n/a	catFR1	10	R1662S
120.033	8.657	343368	REC_WORD_VV	8.657	n/a	<>	n/a	-999	-1	[0, 0, 0]	n/a	catFR1	10	R1662S
128.69	1.0	352025	REC_WORD_VV	1.0	n/a	<>	n/a	-999	-1	[0, 0, 0]	n/a	catFR1	10	R1662S
129.69	4.173	353025	REC_WORD_VV	4.173	n/a	<>	n/a	-999	-1	[0, 0, 0]	n/a	catFR1	10	R1662S
133.863	11.823	357188	REC_END	n/a	n/a	n/a	n/a	-999	-1	[0, 0, 0]	n/a	catFR1	10	R1662S
145.686	10.343	369023	COUNTDOWN_START	n/a	n/a	n/a	n/a	-999	1	[0, 0, 0]	n/a	catFR1	10	R1662S
156.029	0.001	379358	COUNTDOWN_END	n/a	n/a	n/a	n/a	-999	1	[0, 0, 0]	n/a	catFR1	10	R1662S
156.03	1.89	379358	ENCODING_START	n/a	n/a	n/a	n/a	-999	1	[0, 0, 0]	n/a	catFR1	10	R1662S
157.92	1.609	381250	WORD	n/a	wordpools/wordpool_categorized_EN.txt	MARBLES	Toys	1	1	[0, 0, 0]	n/a	catFR1	10	R1662S
159.529	0.849	382865	WORD_OFF	n/a	n/a	MARBLES	Toys	1	1	[0, 0, 0]	n/a	catFR1	10	R1662S
160.378	1.609	383707	WORD	n/a	wordpools/wordpool_categorized_EN.txt	FOOTBALL	Toys	2	1	[0, 0, 0]	n/a	catFR1	10	R1662S
161.987	0.8	385322	WORD_OFF	n/a	n/a	FOOTBALL	Toys	2	1	[0, 0, 0]	n/a	catFR1	10	R1662S
162.787	1.6	386118	WORD	n/a	wordpools/wordpool_categorized_EN.txt	PAPER	OfficeSupplies	3	1	[0, 0, 0]	n/a	catFR1	10	R1662S
164.387	0.842	387721	WORD_OFF	n/a	n/a	PAPER	OfficeSupplies	3	1	[0, 0, 0]	n/a	catFR1	10	R1662S
165.229	1.601	388563	WORD	n/a	wordpools/wordpool_categorized_EN.txt	FOLDER	OfficeSupplies	4	1	[0, 0, 0]	n/a	catFR1	10	R1662S
166.83	0.833	390155	WORD_OFF	n/a	n/a	FOLDER	OfficeSupplies	4	1	[0, 0, 0]	n/a	catFR1	10	R1662S
167.663	1.598	390997	WORD	n/a	wordpools/wordpool_categorized_EN.txt	BLUEBIRD	Birds	5	1	[0, 0, 0]	n/a	catFR1	10	R1662S
169.261	0.951	392589	WORD_OFF	n/a	n/a	BLUEBIRD	Birds	5	1	[0, 0, 0]	n/a	catFR1	10	R1662S
170.212	1.609	393546	WORD	n/a	wordpools/wordpool_categorized_EN.txt	CROW	Birds	6	1	[0, 0, 0]	n/a	catFR1	10	R1662S
171.821	0.809	395150	WORD_OFF	n/a	n/a	CROW	Birds	6	1	[0, 0, 0]	n/a	catFR1	10	R1662S
172.63	1.607	395969	WORD	n/a	wordpools/wordpool_categorized_EN.txt	BASKETBALL	Toys	7	1	[0, 0, 0]	n/a	catFR1	10	R1662S
174.237	0.808	397572	WORD_OFF	n/a	n/a	BASKETBALL	Toys	7	1	[0, 0, 0]	n/a	catFR1	10	R1662S
175.045	1.601	398380	WORD	n/a	wordpools/wordpool_categorized_EN.txt	BALL	Toys	8	1	[0, 0, 0]	n/a	catFR1	10	R1662S
176.646	0.941	399971	WORD_OFF	n/a	n/a	BALL	Toys	8	1	[0, 0, 0]	n/a	catFR1	10	R1662S
177.587	1.6	400917	WORD	n/a	wordpools/wordpool_categorized_EN.txt	DOVE	Birds	9	1	[0, 0, 0]	n/a	catFR1	10	R1662S
179.187	1.0	402521	WORD_OFF	n/a	n/a	DOVE	Birds	9	1	[0, 0, 0]	n/a	catFR1	10	R1662S
180.187	1.609	403524	WORD	n/a	wordpools/wordpool_categorized_EN.txt	DUCK	Birds	10	1	[0, 0, 0]	n/a	catFR1	10	R1662S
181.796	0.825	405127	WORD_OFF	n/a	n/a	DUCK	Birds	10	1	[0, 0, 0]	n/a	catFR1	10	R1662S
182.621	1.608	405946	WORD	n/a	wordpools/wordpool_categorized_EN.txt	TAPE	OfficeSupplies	11	1	[0, 0, 0]	n/a	catFR1	10	R1662S
184.229	0.808	407561	WORD_OFF	n/a	n/a	TAPE	OfficeSupplies	11	1	[0, 0, 0]	n/a	catFR1	10	R1662S
185.037	1.601	408369	WORD	n/a	wordpools/wordpool_categorized_EN.txt	RULER	OfficeSupplies	12	1	[0, 0, 0]	n/a	catFR1	10	R1662S
186.638	0.003	409972	WORD_OFF	n/a	n/a	RULER	OfficeSupplies	12	1	[0, 0, 0]	n/a	catFR1	10	R1662S
186.641	0.0	409972	ENCODING_END	n/a	n/a	n/a	n/a	-999	1	[0, 0, 0]	n/a	catFR1	10	R1662S
186.641	0.0	409972	DISTRACT_START	n/a	n/a	n/a	n/a	-999	1	[0, 0, 0]	n/a	catFR1	10	R1662S
186.638	0.003	409974	PROB	0.003	n/a	n/a	n/a	-999	1	[4, 5, 2]	11	catFR1	10	R1662S
186.641	4.154	409977	START	n/a	n/a	n/a	n/a	-999	1	[-999, -999, -999]	n/a	catFR1	10	R1662S
190.795	4.424	414131	PROB	4.424	n/a	n/a	n/a	-999	1	[7, 8, 2]	17	catFR1	10	R1662S
195.219	3.326	418555	PROB	3.326	n/a	n/a	n/a	-999	1	[7, 1, 7]	15	catFR1	10	R1662S
198.545	3.309	421881	PROB	3.309	n/a	n/a	n/a	-999	1	[3, 6, 1]	10	catFR1	10	R1662S
201.854	3.585	425190	PROB	3.585	n/a	n/a	n/a	-999	1	[2, 3, 6]	11	catFR1	10	R1662S
205.439	3.181	428775	PROB	3.181	n/a	n/a	n/a	-999	1	[3, 4, 4]	10	catFR1	10	R1662S
208.62	0.0	431946	DISTRACT_END	n/a	n/a	n/a	n/a	-999	1	[0, 0, 0]	n/a	catFR1	10	R1662S
208.62	2.244	431956	STOP	n/a	n/a	n/a	n/a	-999	1	[-999, -999, -999]	n/a	catFR1	10	R1662S
210.864	4.098	434195	REC_START	n/a	n/a	n/a	n/a	-999	1	[0, 0, 0]	n/a	catFR1	10	R1662S
214.962	4.746	438298	REC_WORD_VV	4.746	n/a	<>	n/a	-999	1	[0, 0, 0]	n/a	catFR1	10	R1662S
219.708	1.0	443044	REC_WORD_VV	1.0	n/a	<>	n/a	-999	1	[0, 0, 0]	n/a	catFR1	10	R1662S
220.708	1.0	444044	REC_WORD_VV	1.0	n/a	<>	n/a	-999	1	[0, 0, 0]	n/a	catFR1	10	R1662S
221.708	1.2	445044	REC_WORD_VV	1.2	n/a	<>	n/a	-999	1	[0, 0, 0]	n/a	catFR1	10	R1662S
222.908	0.701	446244	REC_WORD	0.701	n/a	DUCK	Birds	10	1	[0, 0, 0]	n/a	catFR1	10	R1662S
223.609	0.352	446945	REC_WORD	0.352	n/a	TAPE	OfficeSupplies	11	1	[0, 0, 0]	n/a	catFR1	10	R1662S
223.961	0.884	447297	REC_WORD	0.884	n/a	RULER	OfficeSupplies	12	1	[0, 0, 0]	n/a	catFR1	10	R1662S
224.845	0.637	448181	REC_WORD	0.637	n/a	DOVE	Birds	9	1	[0, 0, 0]	n/a	catFR1	10	R1662S
225.482	0.755	448818	REC_WORD	0.755	n/a	BLUEBIRD	Birds	5	1	[0, 0, 0]	n/a	catFR1	10	R1662S
226.237	1.165	449573	REC_WORD	1.165	n/a	STENCIL	n/a	-999	1	[0, 0, 0]	n/a	catFR1	10	R1662S
227.402	1.798	450738	REC_WORD	1.798	n/a	PENCIL	n/a	-999	1	[0, 0, 0]	n/a	catFR1	10	R1662S
229.2	6.441	452536	REC_WORD_VV	6.441	n/a	<>	n/a	-999	1	[0, 0, 0]	n/a	catFR1	10	R1662S
235.641	0.39	458977	REC_WORD	0.39	n/a	BALL	Toys	8	1	[0, 0, 0]	n/a	catFR1	10	R1662S
236.031	0.595	459367	REC_WORD	0.595	n/a	BASKETBALL	Toys	7	1	[0, 0, 0]	n/a	catFR1	10	R1662S
236.626	2.482	459962	REC_WORD	2.482	n/a	FOOTBALL	Toys	2	1	[0, 0, 0]	n/a	catFR1	10	R1662S
239.108	1.507	462444	REC_WORD	1.507	n/a	RULER	OfficeSupplies	12	1	[0, 0, 0]	n/a	catFR1	10	R1662S
240.615	0.402	463951	REC_WORD	0.402	n/a	BINDER	n/a	-999	1	[0, 0, 0]	n/a	catFR1	10	R1662S
241.017	2.394	464347	REC_END	n/a	n/a	n/a	n/a	-999	1	[0, 0, 0]	n/a	catFR1	10	R1662S
243.411	10.342	466747	COUNTDOWN_START	n/a	n/a	n/a	n/a	-999	2	[0, 0, 0]	n/a	catFR1	10	R1662S
253.753	0.0	477082	COUNTDOWN_END	n/a	n/a	n/a	n/a	-999	2	[0, 0, 0]	n/a	catFR1	10	R1662S
253.753	1.927	477082	ENCODING_START	n/a	n/a	n/a	n/a	-999	2	[0, 0, 0]	n/a	catFR1	10	R1662S
255.68	1.606	479008	WORD	n/a	wordpools/wordpool_categorized_EN.txt	FOG	Weather	1	2	[0, 0, 0]	n/a	catFR1	10	R1662S
257.286	0.891	480612	WORD_OFF	n/a	n/a	FOG	Weather	1	2	[0, 0, 0]	n/a	catFR1	10	R1662S
258.177	1.6	481511	WORD	n/a	wordpools/wordpool_categorized_EN.txt	TORNADO	Weather	2	2	[0, 0, 0]	n/a	catFR1	10	R1662S
259.777	0.967	483103	WORD_OFF	n/a	n/a	TORNADO	Weather	2	2	[0, 0, 0]	n/a	catFR1	10	R1662S
260.744	1.601	484072	WORD	n/a	wordpools/wordpool_categorized_EN.txt	PIE	Desserts	3	2	[0, 0, 0]	n/a	catFR1	10	R1662S
262.345	0.974	485675	WORD_OFF	n/a	n/a	PIE	Desserts	3	2	[0, 0, 0]	n/a	catFR1	10	R1662S
263.319	1.609	486644	WORD	n/a	wordpools/wordpool_categorized_EN.txt	BROWNIES	Desserts	4	2	[0, 0, 0]	n/a	catFR1	10	R1662S
264.928	0.808	488259	WORD_OFF	n/a	n/a	BROWNIES	Desserts	4	2	[0, 0, 0]	n/a	catFR1	10	R1662S
265.736	1.601	489067	WORD	n/a	wordpools/wordpool_categorized_EN.txt	CALF	FarmAnimals	5	2	[0, 0, 0]	n/a	catFR1	10	R1662S
267.337	0.966	490670	WORD_OFF	n/a	n/a	CALF	FarmAnimals	5	2	[0, 0, 0]	n/a	catFR1	10	R1662S
268.303	1.608	491639	WORD	n/a	wordpools/wordpool_categorized_EN.txt	HEN	FarmAnimals	6	2	[0, 0, 0]	n/a	catFR1	10	R1662S
269.911	0.901	493242	WORD_OFF	n/a	n/a	HEN	FarmAnimals	6	2	[0, 0, 0]	n/a	catFR1	10	R1662S
270.812	1.6	494142	WORD	n/a	wordpools/wordpool_categorized_EN.txt	RAIN	Weather	7	2	[0, 0, 0]	n/a	catFR1	10	R1662S
272.412	0.933	495745	WORD_OFF	n/a	n/a	RAIN	Weather	7	2	[0, 0, 0]	n/a	catFR1	10	R1662S
273.345	1.603	496680	WORD	n/a	wordpools/wordpool_categorized_EN.txt	LIGHTNING	Weather	8	2	[0, 0, 0]	n/a	catFR1	10	R1662S
274.948	0.963	498283	WORD_OFF	n/a	n/a	LIGHTNING	Weather	8	2	[0, 0, 0]	n/a	catFR1	10	R1662S
275.911	1.608	499240	WORD	n/a	wordpools/wordpool_categorized_EN.txt	JELLO	Desserts	9	2	[0, 0, 0]	n/a	catFR1	10	R1662S
277.519	0.925	500855	WORD_OFF	n/a	n/a	JELLO	Desserts	9	2	[0, 0, 0]	n/a	catFR1	10	R1662S
278.444	1.6	501778	WORD	n/a	wordpools/wordpool_categorized_EN.txt	PUDDING	Desserts	10	2	[0, 0, 0]	n/a	catFR1	10	R1662S
280.044	0.893	503370	WORD_OFF	n/a	n/a	PUDDING	Desserts	10	2	[0, 0, 0]	n/a	catFR1	10	R1662S
280.937	1.602	504270	WORD	n/a	wordpools/wordpool_categorized_EN.txt	TURKEY	FarmAnimals	11	2	[0, 0, 0]	n/a	catFR1	10	R1662S
282.539	0.773	505873	WORD_OFF	n/a	n/a	TURKEY	FarmAnimals	11	2	[0, 0, 0]	n/a	catFR1	10	R1662S
283.312	1.607	506646	WORD	n/a	wordpools/wordpool_categorized_EN.txt	COW	FarmAnimals	12	2	[0, 0, 0]	n/a	catFR1	10	R1662S
284.919	0.003	508249	WORD_OFF	n/a	n/a	COW	FarmAnimals	12	2	[0, 0, 0]	n/a	catFR1	10	R1662S
284.922	0.0	508249	ENCODING_END	n/a	n/a	n/a	n/a	-999	2	[0, 0, 0]	n/a	catFR1	10	R1662S
284.922	0.0	508249	DISTRACT_START	n/a	n/a	n/a	n/a	-999	2	[0, 0, 0]	n/a	catFR1	10	R1662S
284.92	0.002	508256	PROB	0.002	n/a	n/a	n/a	-999	2	[8, 2, 5]	15	catFR1	10	R1662S
284.922	3.931	508258	START	n/a	n/a	n/a	n/a	-999	2	[-999, -999, -999]	n/a	catFR1	10	R1662S
288.853	4.975	512189	PROB	4.975	n/a	n/a	n/a	-999	2	[5, 6, 6]	17	catFR1	10	R1662S
293.828	3.241	517164	PROB	3.241	n/a	n/a	n/a	-999	2	[8, 1, 6]	15	catFR1	10	R1662S
297.069	5.909	520405	PROB	5.909	n/a	n/a	n/a	-999	2	[6, 2, 7]	15	catFR1	10	R1662S
302.978	3.316	526314	PROB	3.316	n/a	n/a	n/a	-999	2	[7, 4, 7]	18	catFR1	10	R1662S
306.294	0.0	529623	DISTRACT_END	n/a	n/a	n/a	n/a	-999	2	[0, 0, 0]	n/a	catFR1	10	R1662S
306.294	2.342	529630	STOP	n/a	n/a	n/a	n/a	-999	2	[-999, -999, -999]	n/a	catFR1	10	R1662S
308.636	0.223	531965	REC_START	n/a	n/a	n/a	n/a	-999	2	[0, 0, 0]	n/a	catFR1	10	R1662S
308.859	0.811	532195	REC_WORD	0.811	n/a	FOG	Weather	1	2	[0, 0, 0]	n/a	catFR1	10	R1662S
309.67	0.96	533006	REC_WORD	0.96	n/a	COW	FarmAnimals	12	2	[0, 0, 0]	n/a	catFR1	10	R1662S
310.63	1.501	533966	REC_WORD	1.501	n/a	CALF	FarmAnimals	5	2	[0, 0, 0]	n/a	catFR1	10	R1662S
312.131	0.765	535467	REC_WORD_VV	0.765	n/a	<>	n/a	-999	2	[0, 0, 0]	n/a	catFR1	10	R1662S
312.896	1.033	536232	REC_WORD	1.033	n/a	LIGHTNING	Weather	8	2	[0, 0, 0]	n/a	catFR1	10	R1662S
313.929	2.456	537265	REC_WORD	2.456	n/a	RAIN	Weather	7	2	[0, 0, 0]	n/a	catFR1	10	R1662S
316.385	2.41	539721	REC_WORD	2.41	n/a	HEN	FarmAnimals	6	2	[0, 0, 0]	n/a	catFR1	10	R1662S
318.795	3.72	542131	REC_WORD	3.72	n/a	JELLO	Desserts	9	2	[0, 0, 0]	n/a	catFR1	10	R1662S
322.515	3.241	545851	REC_WORD	3.241	n/a	PUDDING	Desserts	10	2	[0, 0, 0]	n/a	catFR1	10	R1662S
325.756	4.501	549092	REC_WORD	4.501	n/a	PIE	Desserts	3	2	[0, 0, 0]	n/a	catFR1	10	R1662S
330.257	8.52	553593	REC_WORD_VV	8.52	n/a	<>	n/a	-999	2	[0, 0, 0]	n/a	catFR1	10	R1662S
338.777	1.951	562106	REC_END	n/a	n/a	n/a	n/a	-999	2	[0, 0, 0]	n/a	catFR1	10	R1662S
340.728	10.341	564066	COUNTDOWN_START	n/a	n/a	n/a	n/a	-999	3	[0, 0, 0]	n/a	catFR1	10	R1662S
351.069	0.0	574402	COUNTDOWN_END	n/a	n/a	n/a	n/a	-999	3	[0, 0, 0]	n/a	catFR1	10	R1662S
351.069	2.168	574402	ENCODING_START	n/a	n/a	n/a	n/a	-999	3	[0, 0, 0]	n/a	catFR1	10	R1662S
353.237	1.601	576570	WORD	n/a	wordpools/wordpool_categorized_EN.txt	TRUCK	Vehicles	1	3	[0, 0, 0]	n/a	catFR1	10	R1662S
354.838	0.833	578174	WORD_OFF	n/a	n/a	TRUCK	Vehicles	1	3	[0, 0, 0]	n/a	catFR1	10	R1662S
355.671	1.607	579004	WORD	n/a	wordpools/wordpool_categorized_EN.txt	MOPED	Vehicles	2	3	[0, 0, 0]	n/a	catFR1	10	R1662S
357.278	0.809	580607	WORD_OFF	n/a	n/a	MOPED	Vehicles	2	3	[0, 0, 0]	n/a	catFR1	10	R1662S
358.087	1.608	581415	WORD	n/a	wordpools/wordpool_categorized_EN.txt	WOODS	Landscapes	3	3	[0, 0, 0]	n/a	catFR1	10	R1662S
359.695	0.991	583030	WORD_OFF	n/a	n/a	WOODS	Landscapes	3	3	[0, 0, 0]	n/a	catFR1	10	R1662S
360.686	1.601	584022	WORD	n/a	wordpools/wordpool_categorized_EN.txt	RIVER	Landscapes	4	3	[0, 0, 0]	n/a	catFR1	10	R1662S
362.287	0.85	585625	WORD_OFF	n/a	n/a	RIVER	Landscapes	4	3	[0, 0, 0]	n/a	catFR1	10	R1662S
363.137	1.607	586467	WORD	n/a	wordpools/wordpool_categorized_EN.txt	FOOT	BodyParts	5	3	[0, 0, 0]	n/a	catFR1	10	R1662S
364.744	0.9	588071	WORD_OFF	n/a	n/a	FOOT	BodyParts	5	3	[0, 0, 0]	n/a	catFR1	10	R1662S
365.644	1.601	588982	WORD	n/a	wordpools/wordpool_categorized_EN.txt	TOE	BodyParts	6	3	[0, 0, 0]	n/a	catFR1	10	R1662S
367.245	0.792	590574	WORD_OFF	n/a	n/a	TOE	BodyParts	6	3	[0, 0, 0]	n/a	catFR1	10	R1662S
368.037	1.608	591370	WORD	n/a	wordpools/wordpool_categorized_EN.txt	MOUNTAIN	Landscapes	7	3	[0, 0, 0]	n/a	catFR1	10	R1662S
369.645	0.925	592973	WORD_OFF	n/a	n/a	MOUNTAIN	Landscapes	7	3	[0, 0, 0]	n/a	catFR1	10	R1662S
370.57	1.609	593896	WORD	n/a	wordpools/wordpool_categorized_EN.txt	VALLEY	Landscapes	8	3	[0, 0, 0]	n/a	catFR1	10	R1662S
372.179	0.766	595511	WORD_OFF	n/a	n/a	VALLEY	Landscapes	8	3	[0, 0, 0]	n/a	catFR1	10	R1662S
372.945	1.6	596283	WORD	n/a	wordpools/wordpool_categorized_EN.txt	BOAT	Vehicles	9	3	[0, 0, 0]	n/a	catFR1	10	R1662S
374.545	0.916	597875	WORD_OFF	n/a	n/a	BOAT	Vehicles	9	3	[0, 0, 0]	n/a	catFR1	10	R1662S
375.461	1.601	598798	WORD	n/a	wordpools/wordpool_categorized_EN.txt	CAR	Vehicles	10	3	[0, 0, 0]	n/a	catFR1	10	R1662S
377.062	0.925	600390	WORD_OFF	n/a	n/a	CAR	Vehicles	10	3	[0, 0, 0]	n/a	catFR1	10	R1662S
377.987	1.599	601324	WORD	n/a	wordpools/wordpool_categorized_EN.txt	HAND	BodyParts	11	3	[0, 0, 0]	n/a	catFR1	10	R1662S
379.586	0.885	602916	WORD_OFF	n/a	n/a	HAND	BodyParts	11	3	[0, 0, 0]	n/a	catFR1	10	R1662S
380.471	1.608	603804	WORD	n/a	wordpools/wordpool_categorized_EN.txt	ARM	BodyParts	12	3	[0, 0, 0]	n/a	catFR1	10	R1662S
382.079	0.003	605407	WORD_OFF	n/a	n/a	ARM	BodyParts	12	3	[0, 0, 0]	n/a	catFR1	10	R1662S
382.082	0.0	605407	ENCODING_END	n/a	n/a	n/a	n/a	-999	3	[0, 0, 0]	n/a	catFR1	10	R1662S
382.078	0.004	605414	PROB	0.004	n/a	n/a	n/a	-999	3	[1, 5, 2]	8	catFR1	10	R1662S
382.082	0.0	605418	START	n/a	n/a	n/a	n/a	-999	3	[-999, -999, -999]	n/a	catFR1	10	R1662S
382.082	4.537	605419	DISTRACT_START	n/a	n/a	n/a	n/a	-999	3	[0, 0, 0]	n/a	catFR1	10	R1662S
386.619	2.776	609955	PROB	2.776	n/a	n/a	n/a	-999	3	[6, 2, 4]	12	catFR1	10	R1662S
389.395	7.076	612731	PROB	7.076	n/a	n/a	n/a	-999	3	[6, 5, 7]	18	catFR1	10	R1662S
396.471	6.789	619807	PROB	6.789	n/a	n/a	n/a	-999	3	[2, 6, 5]	13	catFR1	10	R1662S
403.26	0.0	626585	DISTRACT_END	n/a	n/a	n/a	n/a	-999	3	[0, 0, 0]	n/a	catFR1	10	R1662S
403.26	2.242	626596	STOP	n/a	n/a	n/a	n/a	-999	3	[-999, -999, -999]	n/a	catFR1	10	R1662S
405.502	1.109	628835	REC_START	n/a	n/a	n/a	n/a	-999	3	[0, 0, 0]	n/a	catFR1	10	R1662S
406.611	0.716	629947	REC_WORD	0.716	n/a	TRUCK	Vehicles	1	3	[0, 0, 0]	n/a	catFR1	10	R1662S
407.327	1.049	630663	REC_WORD	1.049	n/a	MOPED	Vehicles	2	3	[0, 0, 0]	n/a	catFR1	10	R1662S
408.376	2.422	631712	REC_WORD	2.422	n/a	BOAT	Vehicles	9	3	[0, 0, 0]	n/a	catFR1	10	R1662S
410.798	3.773	634134	REC_WORD	3.773	n/a	RIVER	Landscapes	4	3	[0, 0, 0]	n/a	catFR1	10	R1662S
414.571	5.109	637907	REC_WORD_VV	5.109	n/a	<>	n/a	-999	3	[0, 0, 0]	n/a	catFR1	10	R1662S
419.68	0.593	643016	REC_WORD	0.593	n/a	RAIN	Weather	-999	3	[0, 0, 0]	n/a	catFR1	10	R1662S
420.273	6.336	643609	REC_WORD	6.336	n/a	LIGHTNING	Weather	-999	3	[0, 0, 0]	n/a	catFR1	10	R1662S
426.609	1.0	649945	REC_WORD_VV	1.0	n/a	<>	n/a	-999	3	[0, 0, 0]	n/a	catFR1	10	R1662S
427.609	8.036	650945	REC_WORD_VV	8.036	n/a	<>	n/a	-999	3	[0, 0, 0]	n/a	catFR1	10	R1662S
435.645	2.107	658975	REC_END	n/a	n/a	n/a	n/a	-999	3	[0, 0, 0]	n/a	catFR1	10	R1662S
437.752	10.35	661086	COUNTDOWN_START	n/a	n/a	n/a	n/a	-999	4	[0, 0, 0]	n/a	catFR1	10	R1662S
448.102	0.0	671433	COUNTDOWN_END	n/a	n/a	n/a	n/a	-999	4	[0, 0, 0]	n/a	catFR1	10	R1662S
448.102	1.943	671433	ENCODING_START	n/a	n/a	n/a	n/a	-999	4	[0, 0, 0]	n/a	catFR1	10	R1662S
450.045	1.608	673382	WORD	n/a	wordpools/wordpool_categorized_EN.txt	BLOUSE	Clothing	1	4	[0, 0, 0]	n/a	catFR1	10	R1662S
451.653	0.875	674986	WORD_OFF	n/a	n/a	BLOUSE	Clothing	1	4	[0, 0, 0]	n/a	catFR1	10	R1662S
452.528	1.609	675862	WORD	n/a	wordpools/wordpool_categorized_EN.txt	PANTS	Clothing	2	4	[0, 0, 0]	n/a	catFR1	10	R1662S
454.137	0.992	677466	WORD_OFF	n/a	n/a	PANTS	Clothing	2	4	[0, 0, 0]	n/a	catFR1	10	R1662S
455.129	1.601	678458	WORD	n/a	wordpools/wordpool_categorized_EN.txt	JUICE	Beverages	3	4	[0, 0, 0]	n/a	catFR1	10	R1662S
456.73	0.947	680061	WORD_OFF	n/a	n/a	JUICE	Beverages	3	4	[0, 0, 0]	n/a	catFR1	10	R1662S
457.677	1.6	681007	WORD	n/a	wordpools/wordpool_categorized_EN.txt	COFFEE	Beverages	4	4	[0, 0, 0]	n/a	catFR1	10	R1662S
459.277	0.901	682610	WORD_OFF	n/a	n/a	COFFEE	Beverages	4	4	[0, 0, 0]	n/a	catFR1	10	R1662S
460.178	1.599	683510	WORD	n/a	wordpools/wordpool_categorized_EN.txt	TROMBONE	Instruments	5	4	[0, 0, 0]	n/a	catFR1	10	R1662S
461.777	0.967	685113	WORD_OFF	n/a	n/a	TROMBONE	Instruments	5	4	[0, 0, 0]	n/a	catFR1	10	R1662S
462.744	1.608	686071	WORD	n/a	wordpools/wordpool_categorized_EN.txt	GUITAR	Instruments	6	4	[0, 0, 0]	n/a	catFR1	10	R1662S
464.352	0.759	687686	WORD_OFF	n/a	n/a	GUITAR	Instruments	6	4	[0, 0, 0]	n/a	catFR1	10	R1662S
465.111	1.609	688447	WORD	n/a	wordpools/wordpool_categorized_EN.txt	WATER	Beverages	7	4	[0, 0, 0]	n/a	catFR1	10	R1662S
466.72	0.864	690050	WORD_OFF	n/a	n/a	WATER	Beverages	7	4	[0, 0, 0]	n/a	catFR1	10	R1662S
467.584	1.601	690915	WORD	n/a	wordpools/wordpool_categorized_EN.txt	SODA	Beverages	8	4	[0, 0, 0]	n/a	catFR1	10	R1662S
469.185	0.859	692519	WORD_OFF	n/a	n/a	SODA	Beverages	8	4	[0, 0, 0]	n/a	catFR1	10	R1662S
470.044	1.6	693372	WORD	n/a	wordpools/wordpool_categorized_EN.txt	FLUTE	Instruments	9	4	[0, 0, 0]	n/a	catFR1	10	R1662S
471.644	0.966	694976	WORD_OFF	n/a	n/a	FLUTE	Instruments	9	4	[0, 0, 0]	n/a	catFR1	10	R1662S
472.61	1.602	695945	WORD	n/a	wordpools/wordpool_categorized_EN.txt	PIANO	Instruments	10	4	[0, 0, 0]	n/a	catFR1	10	R1662S
474.212	0.79	697548	WORD_OFF	n/a	n/a	PIANO	Instruments	10	4	[0, 0, 0]	n/a	catFR1	10	R1662S
475.002	1.601	698332	WORD	n/a	wordpools/wordpool_categorized_EN.txt	SHIRT	Clothing	11	4	[0, 0, 0]	n/a	catFR1	10	R1662S
476.603	0.892	699936	WORD_OFF	n/a	n/a	SHIRT	Clothing	11	4	[0, 0, 0]	n/a	catFR1	10	R1662S
477.495	1.608	700824	WORD	n/a	wordpools/wordpool_categorized_EN.txt	DRESS	Clothing	12	4	[0, 0, 0]	n/a	catFR1	10	R1662S
479.103	0.004	702439	WORD_OFF	n/a	n/a	DRESS	Clothing	12	4	[0, 0, 0]	n/a	catFR1	10	R1662S
479.107	0.0	702439	ENCODING_END	n/a	n/a	n/a	n/a	-999	4	[0, 0, 0]	n/a	catFR1	10	R1662S
479.107	0.0	702439	DISTRACT_START	n/a	n/a	n/a	n/a	-999	4	[0, 0, 0]	n/a	catFR1	10	R1662S
479.103	0.004	702440	PROB	0.004	n/a	n/a	n/a	-999	4	[5, 6, 8]	19	catFR1	10	R1662S
479.107	6.206	702444	START	n/a	n/a	n/a	n/a	-999	4	[-999, -999, -999]	n/a	catFR1	10	R1662S
485.313	5.122	708650	PROB	5.122	n/a	n/a	n/a	-999	4	[5, 2, 4]	9	catFR1	10	R1662S
490.435	3.576	713772	PROB	3.576	n/a	n/a	n/a	-999	4	[1, 6, 7]	14	catFR1	10	R1662S
494.011	3.108	717348	PROB	3.108	n/a	n/a	n/a	-999	4	[3, 3, 1]	7	catFR1	10	R1662S
497.119	5.658	720456	PROB	5.658	n/a	n/a	n/a	-999	4	[2, 6, 7]	15	catFR1	10	R1662S
502.777	0.0	726108	DISTRACT_END	n/a	n/a	n/a	n/a	-999	4	[0, 0, 0]	n/a	catFR1	10	R1662S
502.777	2.059	726114	STOP	n/a	n/a	n/a	n/a	-999	4	[-999, -999, -999]	n/a	catFR1	10	R1662S
504.836	0.895	728173	REC_START	n/a	n/a	n/a	n/a	-999	4	[0, 0, 0]	n/a	catFR1	10	R1662S
505.731	1.408	729068	REC_WORD	1.408	n/a	PIANO	Instruments	10	4	[0, 0, 0]	n/a	catFR1	10	R1662S
507.139	1.117	730476	REC_WORD	1.117	n/a	FLUTE	Instruments	9	4	[0, 0, 0]	n/a	catFR1	10	R1662S
508.256	1.519	731593	REC_WORD	1.519	n/a	DRESS	Clothing	12	4	[0, 0, 0]	n/a	catFR1	10	R1662S
509.775	1.228	733112	REC_WORD	1.228	n/a	BLOUSE	Clothing	1	4	[0, 0, 0]	n/a	catFR1	10	R1662S
511.003	2.684	734340	REC_WORD	2.684	n/a	PANTS	Clothing	2	4	[0, 0, 0]	n/a	catFR1	10	R1662S
513.687	15.477	737024	REC_WORD_VV	15.477	n/a	<>	n/a	-999	4	[0, 0, 0]	n/a	catFR1	10	R1662S
529.164	1.344	752501	REC_WORD_VV	1.344	n/a	<>	n/a	-999	4	[0, 0, 0]	n/a	catFR1	10	R1662S
530.508	1.137	753845	REC_WORD	1.137	n/a	TROMBONE	Instruments	5	4	[0, 0, 0]	n/a	catFR1	10	R1662S
531.645	1.559	754982	REC_WORD_VV	1.559	n/a	<>	n/a	-999	4	[0, 0, 0]	n/a	catFR1	10	R1662S
533.204	1.786	756541	REC_WORD_VV	1.786	n/a	<>	n/a	-999	4	[0, 0, 0]	n/a	catFR1	10	R1662S
534.99	2.22	758325	REC_END	n/a	n/a	n/a	n/a	-999	4	[0, 0, 0]	n/a	catFR1	10	R1662S
537.21	10.341	760540	COUNTDOWN_START	n/a	n/a	n/a	n/a	-999	5	[0, 0, 0]	n/a	catFR1	10	R1662S
547.551	0.001	770887	COUNTDOWN_END	n/a	n/a	n/a	n/a	-999	5	[0, 0, 0]	n/a	catFR1	10	R1662S
547.552	1.926	770887	ENCODING_START	n/a	n/a	n/a	n/a	-999	5	[0, 0, 0]	n/a	catFR1	10	R1662S
549.478	1.607	772813	WORD	n/a	wordpools/wordpool_categorized_EN.txt	SUNFLOWER	Flowers	1	5	[0, 0, 0]	n/a	catFR1	10	R1662S
551.085	0.991	774416	WORD_OFF	n/a	n/a	SUNFLOWER	Flowers	1	5	[0, 0, 0]	n/a	catFR1	10	R1662S
552.076	1.609	775408	WORD	n/a	wordpools/wordpool_categorized_EN.txt	ORCHID	Flowers	2	5	[0, 0, 0]	n/a	catFR1	10	R1662S
553.685	0.825	777023	WORD_OFF	n/a	n/a	ORCHID	Flowers	2	5	[0, 0, 0]	n/a	catFR1	10	R1662S
554.51	1.609	777842	WORD	n/a	wordpools/wordpool_categorized_EN.txt	PLANKTON	OceanAnimals	3	5	[0, 0, 0]	n/a	catFR1	10	R1662S
556.119	0.866	779457	WORD_OFF	n/a	n/a	PLANKTON	OceanAnimals	3	5	[0, 0, 0]	n/a	catFR1	10	R1662S
556.985	1.6	780322	WORD	n/a	wordpools/wordpool_categorized_EN.txt	SHRIMP	OceanAnimals	4	5	[0, 0, 0]	n/a	catFR1	10	R1662S
558.585	0.944	781914	WORD_OFF	n/a	n/a	SHRIMP	OceanAnimals	4	5	[0, 0, 0]	n/a	catFR1	10	R1662S
559.529	1.606	782860	WORD	n/a	wordpools/wordpool_categorized_EN.txt	SPRUCE	Trees	5	5	[0, 0, 0]	n/a	catFR1	10	R1662S
561.135	0.958	784463	WORD_OFF	n/a	n/a	SPRUCE	Trees	5	5	[0, 0, 0]	n/a	catFR1	10	R1662S
562.093	1.61	785421	WORD	n/a	wordpools/wordpool_categorized_EN.txt	BIRCH	Trees	6	5	[0, 0, 0]	n/a	catFR1	10	R1662S
563.703	0.899	787036	WORD_OFF	n/a	n/a	BIRCH	Trees	6	5	[0, 0, 0]	n/a	catFR1	10	R1662S
564.602	1.607	787935	WORD	n/a	wordpools/wordpool_categorized_EN.txt	CARNATION	Flowers	7	5	[0, 0, 0]	n/a	catFR1	10	R1662S
566.209	0.926	789539	WORD_OFF	n/a	n/a	CARNATION	Flowers	7	5	[0, 0, 0]	n/a	catFR1	10	R1662S
567.135	1.6	790473	WORD	n/a	wordpools/wordpool_categorized_EN.txt	VIOLET	Flowers	8	5	[0, 0, 0]	n/a	catFR1	10	R1662S
568.735	0.776	792065	WORD_OFF	n/a	n/a	VIOLET	Flowers	8	5	[0, 0, 0]	n/a	catFR1	10	R1662S
569.511	1.607	792849	WORD	n/a	wordpools/wordpool_categorized_EN.txt	TURTLE	OceanAnimals	9	5	[0, 0, 0]	n/a	catFR1	10	R1662S
571.118	0.984	794452	WORD_OFF	n/a	n/a	TURTLE	OceanAnimals	9	5	[0, 0, 0]	n/a	catFR1	10	R1662S
572.102	1.599	795433	WORD	n/a	wordpools/wordpool_categorized_EN.txt	CRAB	OceanAnimals	10	5	[0, 0, 0]	n/a	catFR1	10	R1662S
573.701	0.884	797036	WORD_OFF	n/a	n/a	CRAB	OceanAnimals	10	5	[0, 0, 0]	n/a	catFR1	10	R1662S
574.585	1.608	797924	WORD	n/a	wordpools/wordpool_categorized_EN.txt	EVERGREEN	Trees	11	5	[0, 0, 0]	n/a	catFR1	10	R1662S
576.193	0.99	799528	WORD_OFF	n/a	n/a	EVERGREEN	Trees	11	5	[0, 0, 0]	n/a	catFR1	10	R1662S
577.183	1.603	800520	WORD	n/a	wordpools/wordpool_categorized_EN.txt	OAK	Trees	12	5	[0, 0, 0]	n/a	catFR1	10	R1662S
578.786	0.003	802123	WORD_OFF	n/a	n/a	OAK	Trees	12	5	[0, 0, 0]	n/a	catFR1	10	R1662S
578.789	0.0	802123	ENCODING_END	n/a	n/a	n/a	n/a	-999	5	[0, 0, 0]	n/a	catFR1	10	R1662S
578.789	0.0	802123	DISTRACT_START	n/a	n/a	n/a	n/a	-999	5	[0, 0, 0]	n/a	catFR1	10	R1662S
578.786	0.003	802123	PROB	0.003	n/a	n/a	n/a	-999	5	[2, 8, 5]	15	catFR1	10	R1662S
578.789	4.871	802126	START	n/a	n/a	n/a	n/a	-999	5	[-999, -999, -999]	n/a	catFR1	10	R1662S
583.66	3.068	806997	PROB	3.068	n/a	n/a	n/a	-999	5	[3, 5, 5]	13	catFR1	10	R1662S
586.728	1.865	810065	PROB	1.865	n/a	n/a	n/a	-999	5	[4, 1, 6]	11	catFR1	10	R1662S
588.593	3.852	811930	PROB	3.852	n/a	n/a	n/a	-999	5	[3, 8, 5]	16	catFR1	10	R1662S
592.445	3.881	815782	PROB	3.881	n/a	n/a	n/a	-999	5	[5, 4, 2]	11	catFR1	10	R1662S
596.326	3.426	819663	PROB	3.426	n/a	n/a	n/a	-999	5	[3, 8, 5]	16	catFR1	10	R1662S
599.752	0.0	823082	DISTRACT_END	n/a	n/a	n/a	n/a	-999	5	[0, 0, 0]	n/a	catFR1	10	R1662S
599.752	2.142	823089	STOP	n/a	n/a	n/a	n/a	-999	5	[-999, -999, -999]	n/a	catFR1	10	R1662S
601.894	0.984	825228	REC_START	n/a	n/a	n/a	n/a	-999	5	[0, 0, 0]	n/a	catFR1	10	R1662S
602.878	1.024	826215	REC_WORD	1.024	n/a	EVERGREEN	Trees	11	5	[0, 0, 0]	n/a	catFR1	10	R1662S
603.902	0.706	827239	REC_WORD	0.706	n/a	OAK	Trees	12	5	[0, 0, 0]	n/a	catFR1	10	R1662S
604.608	1.772	827945	REC_WORD	1.772	n/a	SPRUCE	Trees	5	5	[0, 0, 0]	n/a	catFR1	10	R1662S
606.38	1.847	829717	REC_WORD	1.847	n/a	PLANKTON	OceanAnimals	3	5	[0, 0, 0]	n/a	catFR1	10	R1662S
608.227	2.264	831564	REC_WORD	2.264	n/a	SHRIMP	OceanAnimals	4	5	[0, 0, 0]	n/a	catFR1	10	R1662S
610.491	0.915	833828	REC_WORD	0.915	n/a	CRAB	OceanAnimals	10	5	[0, 0, 0]	n/a	catFR1	10	R1662S
611.406	3.203	834743	REC_WORD	3.203	n/a	VIOLET	Flowers	8	5	[0, 0, 0]	n/a	catFR1	10	R1662S
614.609	2.321	837946	REC_WORD	2.321	n/a	DAISY	n/a	-999	5	[0, 0, 0]	n/a	catFR1	10	R1662S
616.93	4.411	840267	REC_WORD	4.411	n/a	CARNATION	Flowers	7	5	[0, 0, 0]	n/a	catFR1	10	R1662S
621.341	7.12	844678	REC_WORD_VV	7.12	n/a	<>	n/a	-999	5	[0, 0, 0]	n/a	catFR1	10	R1662S
628.461	0.454	851798	REC_WORD_VV	0.454	n/a	<>	n/a	-999	5	[0, 0, 0]	n/a	catFR1	10	R1662S
628.915	1.1	852252	REC_WORD	1.1	n/a	EVERGREEN	Trees	11	5	[0, 0, 0]	n/a	catFR1	10	R1662S
630.015	2.02	853352	REC_WORD_VV	2.02	n/a	<>	n/a	-999	5	[0, 0, 0]	n/a	catFR1	10	R1662S
632.035	6.174	855368	REC_END	n/a	n/a	n/a	n/a	-999	5	[0, 0, 0]	n/a	catFR1	10	R1662S
638.209	10.342	861539	COUNTDOWN_START	n/a	n/a	n/a	n/a	-999	6	[0, 0, 0]	n/a	catFR1	10	R1662S
648.551	0.0	871886	COUNTDOWN_END	n/a	n/a	n/a	n/a	-999	6	[0, 0, 0]	n/a	catFR1	10	R1662S
648.551	2.359	871886	ENCODING_START	n/a	n/a	n/a	n/a	-999	6	[0, 0, 0]	n/a	catFR1	10	R1662S
650.91	1.609	874239	WORD	n/a	wordpools/wordpool_categorized_EN.txt	LOBSTER	OceanAnimals	1	6	[0, 0, 0]	n/a	catFR1	10	R1662S
652.519	0.757	875854	WORD_OFF	n/a	n/a	LOBSTER	OceanAnimals	1	6	[0, 0, 0]	n/a	catFR1	10	R1662S
653.276	1.601	876615	WORD	n/a	wordpools/wordpool_categorized_EN.txt	DOLPHIN	OceanAnimals	2	6	[0, 0, 0]	n/a	catFR1	10	R1662S
654.877	0.816	878207	WORD_OFF	n/a	n/a	DOLPHIN	OceanAnimals	2	6	[0, 0, 0]	n/a	catFR1	10	R1662S
655.693	1.601	879026	WORD	n/a	wordpools/wordpool_categorized_EN.txt	BEAR	Zoo	3	6	[0, 0, 0]	n/a	catFR1	10	R1662S
657.294	0.791	880630	WORD_OFF	n/a	n/a	BEAR	Zoo	3	6	[0, 0, 0]	n/a	catFR1	10	R1662S
658.085	1.608	881425	WORD	n/a	wordpools/wordpool_categorized_EN.txt	CHEETAH	Zoo	4	6	[0, 0, 0]	n/a	catFR1	10	R1662S
659.693	0.891	883029	WORD_OFF	n/a	n/a	CHEETAH	Zoo	4	6	[0, 0, 0]	n/a	catFR1	10	R1662S
660.584	1.601	883917	WORD	n/a	wordpools/wordpool_categorized_EN.txt	PIG	FarmAnimals	5	6	[0, 0, 0]	n/a	catFR1	10	R1662S
662.185	0.898	885520	WORD_OFF	n/a	n/a	PIG	FarmAnimals	5	6	[0, 0, 0]	n/a	catFR1	10	R1662S
663.083	1.602	886420	WORD	n/a	wordpools/wordpool_categorized_EN.txt	HORSE	FarmAnimals	6	6	[0, 0, 0]	n/a	catFR1	10	R1662S
664.685	0.873	888023	WORD_OFF	n/a	n/a	HORSE	FarmAnimals	6	6	[0, 0, 0]	n/a	catFR1	10	R1662S
665.558	1.601	888889	WORD	n/a	wordpools/wordpool_categorized_EN.txt	FISH	OceanAnimals	7	6	[0, 0, 0]	n/a	catFR1	10	R1662S
667.159	0.977	890492	WORD_OFF	n/a	n/a	FISH	OceanAnimals	7	6	[0, 0, 0]	n/a	catFR1	10	R1662S
668.136	1.598	891472	WORD	n/a	wordpools/wordpool_categorized_EN.txt	JELLYFISH	OceanAnimals	8	6	[0, 0, 0]	n/a	catFR1	10	R1662S
669.734	0.868	893064	WORD_OFF	n/a	n/a	JELLYFISH	OceanAnimals	8	6	[0, 0, 0]	n/a	catFR1	10	R1662S
670.602	1.6	893941	WORD	n/a	wordpools/wordpool_categorized_EN.txt	LION	Zoo	9	6	[0, 0, 0]	n/a	catFR1	10	R1662S
672.202	0.891	895533	WORD_OFF	n/a	n/a	LION	Zoo	9	6	[0, 0, 0]	n/a	catFR1	10	R1662S
673.093	1.608	896421	WORD	n/a	wordpools/wordpool_categorized_EN.txt	PANDA	Zoo	10	6	[0, 0, 0]	n/a	catFR1	10	R1662S
674.701	0.851	898036	WORD_OFF	n/a	n/a	PANDA	Zoo	10	6	[0, 0, 0]	n/a	catFR1	10	R1662S
675.552	1.609	898889	WORD	n/a	wordpools/wordpool_categorized_EN.txt	ROOSTER	FarmAnimals	11	6	[0, 0, 0]	n/a	catFR1	10	R1662S
677.161	0.981	900493	WORD_OFF	n/a	n/a	ROOSTER	FarmAnimals	11	6	[0, 0, 0]	n/a	catFR1	10	R1662S
678.142	1.61	901473	WORD	n/a	wordpools/wordpool_categorized_EN.txt	SHEEP	FarmAnimals	12	6	[0, 0, 0]	n/a	catFR1	10	R1662S
679.752	0.004	903088	WORD_OFF	n/a	n/a	SHEEP	FarmAnimals	12	6	[0, 0, 0]	n/a	catFR1	10	R1662S
679.756	0.0	903088	ENCODING_END	n/a	n/a	n/a	n/a	-999	6	[0, 0, 0]	n/a	catFR1	10	R1662S
679.756	0.0	903088	DISTRACT_START	n/a	n/a	n/a	n/a	-999	6	[0, 0, 0]	n/a	catFR1	10	R1662S
679.751	0.005	903088	PROB	0.005	n/a	n/a	n/a	-999	6	[4, 8, 1]	13	catFR1	10	R1662S
679.756	6.487	903093	START	n/a	n/a	n/a	n/a	-999	6	[-999, -999, -999]	n/a	catFR1	10	R1662S
686.243	2.367	909580	PROB	2.367	n/a	n/a	n/a	-999	6	[2, 5, 4]	11	catFR1	10	R1662S
688.61	3.916	911947	PROB	3.916	n/a	n/a	n/a	-999	6	[2, 7, 4]	13	catFR1	10	R1662S
692.526	1.759	915863	PROB	1.759	n/a	n/a	n/a	-999	6	[1, 3, 7]	11	catFR1	10	R1662S
694.285	2.774	917622	PROB	2.774	n/a	n/a	n/a	-999	6	[6, 2, 3]	11	catFR1	10	R1662S
697.059	4.059	920396	PROB	4.059	n/a	n/a	n/a	-999	6	[6, 8, 3]	17	catFR1	10	R1662S
701.118	0.0	924451	DISTRACT_END	n/a	n/a	n/a	n/a	-999	6	[0, 0, 0]	n/a	catFR1	10	R1662S
701.118	2.4	924456	STOP	n/a	n/a	n/a	n/a	-999	6	[-999, -999, -999]	n/a	catFR1	10	R1662S
703.518	0.274	926850	REC_START	n/a	n/a	n/a	n/a	-999	6	[0, 0, 0]	n/a	catFR1	10	R1662S
703.792	1.192	927130	REC_WORD	1.192	n/a	LION	Zoo	9	6	[0, 0, 0]	n/a	catFR1	10	R1662S
704.984	0.853	928322	REC_WORD	0.853	n/a	BEAR	Zoo	3	6	[0, 0, 0]	n/a	catFR1	10	R1662S
705.837	0.847	929175	REC_WORD	0.847	n/a	PANDA	Zoo	10	6	[0, 0, 0]	n/a	catFR1	10	R1662S
706.684	0.892	930022	REC_WORD	0.892	n/a	ROOSTER	FarmAnimals	11	6	[0, 0, 0]	n/a	catFR1	10	R1662S
707.576	3.105	930914	REC_WORD	3.105	n/a	SHEEP	FarmAnimals	12	6	[0, 0, 0]	n/a	catFR1	10	R1662S
710.681	3.215	934019	REC_WORD_VV	3.215	n/a	<>	n/a	-999	6	[0, 0, 0]	n/a	catFR1	10	R1662S
713.896	6.664	937234	REC_WORD	6.664	n/a	LOBSTER	OceanAnimals	1	6	[0, 0, 0]	n/a	catFR1	10	R1662S
720.56	4.86	943898	REC_WORD_VV	4.86	n/a	<>	n/a	-999	6	[0, 0, 0]	n/a	catFR1	10	R1662S
725.42	2.062	948758	REC_WORD	2.062	n/a	JELLYFISH	OceanAnimals	8	6	[0, 0, 0]	n/a	catFR1	10	R1662S
727.482	0.766	950820	REC_WORD	0.766	n/a	FISH	OceanAnimals	7	6	[0, 0, 0]	n/a	catFR1	10	R1662S
728.248	4.775	951586	REC_WORD_VV	4.775	n/a	<>	n/a	-999	6	[0, 0, 0]	n/a	catFR1	10	R1662S
733.023	0.649	956361	REC_WORD	0.649	n/a	DOLPHIN	OceanAnimals	2	6	[0, 0, 0]	n/a	catFR1	10	R1662S
733.672	2.771	957002	REC_END	n/a	n/a	n/a	n/a	-999	6	[0, 0, 0]	n/a	catFR1	10	R1662S
736.443	10.341	959782	COUNTDOWN_START	n/a	n/a	n/a	n/a	-999	7	[0, 0, 0]	n/a	catFR1	10	R1662S
746.784	0.0	970117	COUNTDOWN_END	n/a	n/a	n/a	n/a	-999	7	[0, 0, 0]	n/a	catFR1	10	R1662S
746.784	2.174	970117	ENCODING_START	n/a	n/a	n/a	n/a	-999	7	[0, 0, 0]	n/a	catFR1	10	R1662S
748.958	1.6	972286	WORD	n/a	wordpools/wordpool_categorized_EN.txt	PENCIL	OfficeSupplies	1	7	[0, 0, 0]	n/a	catFR1	10	R1662S
750.558	0.842	973889	WORD_OFF	n/a	n/a	PENCIL	OfficeSupplies	1	7	[0, 0, 0]	n/a	catFR1	10	R1662S
751.4	1.602	974731	WORD	n/a	wordpools/wordpool_categorized_EN.txt	GLUE	OfficeSupplies	2	7	[0, 0, 0]	n/a	catFR1	10	R1662S
753.002	0.957	976334	WORD_OFF	n/a	n/a	GLUE	OfficeSupplies	2	7	[0, 0, 0]	n/a	catFR1	10	R1662S
753.959	1.601	977292	WORD	n/a	wordpools/wordpool_categorized_EN.txt	PEACH	Fruit	3	7	[0, 0, 0]	n/a	catFR1	10	R1662S
755.56	0.916	978895	WORD_OFF	n/a	n/a	PEACH	Fruit	3	7	[0, 0, 0]	n/a	catFR1	10	R1662S
756.476	1.601	979806	WORD	n/a	wordpools/wordpool_categorized_EN.txt	PLUM	Fruit	4	7	[0, 0, 0]	n/a	catFR1	10	R1662S
758.077	0.917	981410	WORD_OFF	n/a	n/a	PLUM	Fruit	4	7	[0, 0, 0]	n/a	catFR1	10	R1662S
758.994	1.607	982333	WORD	n/a	wordpools/wordpool_categorized_EN.txt	DAFFODIL	Flowers	5	7	[0, 0, 0]	n/a	catFR1	10	R1662S
760.601	0.834	983936	WORD_OFF	n/a	n/a	DAFFODIL	Flowers	5	7	[0, 0, 0]	n/a	catFR1	10	R1662S
761.435	1.599	984766	WORD	n/a	wordpools/wordpool_categorized_EN.txt	MARIGOLD	Flowers	6	7	[0, 0, 0]	n/a	catFR1	10	R1662S
763.034	0.91	986370	WORD_OFF	n/a	n/a	MARIGOLD	Flowers	6	7	[0, 0, 0]	n/a	catFR1	10	R1662S
763.944	1.606	987281	WORD	n/a	wordpools/wordpool_categorized_EN.txt	GRAPE	Fruit	7	7	[0, 0, 0]	n/a	catFR1	10	R1662S
765.55	0.954	988884	WORD_OFF	n/a	n/a	GRAPE	Fruit	7	7	[0, 0, 0]	n/a	catFR1	10	R1662S
766.504	1.605	989830	WORD	n/a	wordpools/wordpool_categorized_EN.txt	LEMON	Fruit	8	7	[0, 0, 0]	n/a	catFR1	10	R1662S
768.109	0.875	991445	WORD_OFF	n/a	n/a	LEMON	Fruit	8	7	[0, 0, 0]	n/a	catFR1	10	R1662S
768.984	1.6	992322	WORD	n/a	wordpools/wordpool_categorized_EN.txt	ROSE	Flowers	9	7	[0, 0, 0]	n/a	catFR1	10	R1662S
770.584	0.786	993914	WORD_OFF	n/a	n/a	ROSE	Flowers	9	7	[0, 0, 0]	n/a	catFR1	10	R1662S
771.37	1.606	994698	WORD	n/a	wordpools/wordpool_categorized_EN.txt	LILAC	Flowers	10	7	[0, 0, 0]	n/a	catFR1	10	R1662S
772.976	0.783	996313	WORD_OFF	n/a	n/a	LILAC	Flowers	10	7	[0, 0, 0]	n/a	catFR1	10	R1662S
773.759	1.6	997097	WORD	n/a	wordpools/wordpool_categorized_EN.txt	NOTEBOOK	OfficeSupplies	11	7	[0, 0, 0]	n/a	catFR1	10	R1662S
775.359	0.992	998689	WORD_OFF	n/a	n/a	NOTEBOOK	OfficeSupplies	11	7	[0, 0, 0]	n/a	catFR1	10	R1662S
776.351	1.6	999681	WORD	n/a	wordpools/wordpool_categorized_EN.txt	MARKER	OfficeSupplies	12	7	[0, 0, 0]	n/a	catFR1	10	R1662S
777.951	0.002	1001284	WORD_OFF	n/a	n/a	MARKER	OfficeSupplies	12	7	[0, 0, 0]	n/a	catFR1	10	R1662S
777.953	0.0	1001284	ENCODING_END	n/a	n/a	n/a	n/a	-999	7	[0, 0, 0]	n/a	catFR1	10	R1662S
777.953	0.0	1001284	DISTRACT_START	n/a	n/a	n/a	n/a	-999	7	[0, 0, 0]	n/a	catFR1	10	R1662S
777.951	0.002	1001289	PROB	0.002	n/a	n/a	n/a	-999	7	[1, 2, 5]	8	catFR1	10	R1662S
777.953	4.558	1001291	START	n/a	n/a	n/a	n/a	-999	7	[-999, -999, -999]	n/a	catFR1	10	R1662S
782.511	3.325	1005849	PROB	3.325	n/a	n/a	n/a	-999	7	[8, 4, 1]	13	catFR1	10	R1662S
785.836	4.565	1009174	PROB	4.565	n/a	n/a	n/a	-999	7	[3, 4, 5]	12	catFR1	10	R1662S
790.401	4.05	1013739	PROB	4.05	n/a	n/a	n/a	-999	7	[6, 3, 8]	17	catFR1	10	R1662S
794.451	3.907	1017789	PROB	3.907	n/a	n/a	n/a	-999	7	[7, 7, 6]	20	catFR1	10	R1662S
798.358	0.0	1021690	DISTRACT_END	n/a	n/a	n/a	n/a	-999	7	[0, 0, 0]	n/a	catFR1	10	R1662S
798.358	2.05	1021696	STOP	n/a	n/a	n/a	n/a	-999	7	[-999, -999, -999]	n/a	catFR1	10	R1662S
800.408	1.42	1023743	REC_START	n/a	n/a	n/a	n/a	-999	7	[0, 0, 0]	n/a	catFR1	10	R1662S
801.828	0.9	1025166	REC_WORD	0.9	n/a	PENCIL	OfficeSupplies	1	7	[0, 0, 0]	n/a	catFR1	10	R1662S
802.728	1.412	1026066	REC_WORD	1.412	n/a	TAPE	OfficeSupplies	-999	7	[0, 0, 0]	n/a	catFR1	10	R1662S
804.14	1.138	1027478	REC_WORD	1.138	n/a	LILAC	Flowers	10	7	[0, 0, 0]	n/a	catFR1	10	R1662S
805.278	1.888	1028616	REC_WORD	1.888	n/a	MARKER	OfficeSupplies	12	7	[0, 0, 0]	n/a	catFR1	10	R1662S
807.166	3.247	1030504	REC_WORD	3.247	n/a	DAFFODIL	Flowers	5	7	[0, 0, 0]	n/a	catFR1	10	R1662S
810.413	3.805	1033751	REC_WORD_VV	3.805	n/a	<>	n/a	-999	7	[0, 0, 0]	n/a	catFR1	10	R1662S
814.218	3.596	1037556	REC_WORD	3.596	n/a	ROSE	Flowers	9	7	[0, 0, 0]	n/a	catFR1	10	R1662S
817.814	1.416	1041152	REC_WORD	1.416	n/a	MARIGOLD	Flowers	6	7	[0, 0, 0]	n/a	catFR1	10	R1662S
819.23	4.475	1042568	REC_WORD	4.475	n/a	LEMON	Fruit	8	7	[0, 0, 0]	n/a	catFR1	10	R1662S
823.705	2.425	1047043	REC_WORD_VV	2.425	n/a	<>	n/a	-999	7	[0, 0, 0]	n/a	catFR1	10	R1662S
826.13	1.188	1049468	REC_WORD	1.188	n/a	ROSE	Flowers	9	7	[0, 0, 0]	n/a	catFR1	10	R1662S
827.318	3.237	1050656	REC_WORD_VV	3.237	n/a	<>	n/a	-999	7	[0, 0, 0]	n/a	catFR1	10	R1662S
830.555	2.261	1053883	REC_END	n/a	n/a	n/a	n/a	-999	7	[0, 0, 0]	n/a	catFR1	10	R1662S
832.816	10.344	1056156	COUNTDOWN_START	n/a	n/a	n/a	n/a	-999	8	[0, 0, 0]	n/a	catFR1	10	R1662S
843.16	0.0	1066491	COUNTDOWN_END	n/a	n/a	n/a	n/a	-999	8	[0, 0, 0]	n/a	catFR1	10	R1662S
843.16	2.207	1066491	ENCODING_START	n/a	n/a	n/a	n/a	-999	8	[0, 0, 0]	n/a	catFR1	10	R1662S
845.367	1.601	1068706	WORD	n/a	wordpools/wordpool_categorized_EN.txt	BLUEBERRY	Fruit	1	8	[0, 0, 0]	n/a	catFR1	10	R1662S
846.968	0.841	1070298	WORD_OFF	n/a	n/a	BLUEBERRY	Fruit	1	8	[0, 0, 0]	n/a	catFR1	10	R1662S
847.809	1.608	1071140	WORD	n/a	wordpools/wordpool_categorized_EN.txt	STRAWBERRY	Fruit	2	8	[0, 0, 0]	n/a	catFR1	10	R1662S
849.417	0.867	1072754	WORD_OFF	n/a	n/a	STRAWBERRY	Fruit	2	8	[0, 0, 0]	n/a	catFR1	10	R1662S
850.284	1.6	1073620	WORD	n/a	wordpools/wordpool_categorized_EN.txt	OYSTER	OceanAnimals	3	8	[0, 0, 0]	n/a	catFR1	10	R1662S
851.884	0.935	1075223	WORD_OFF	n/a	n/a	OYSTER	OceanAnimals	3	8	[0, 0, 0]	n/a	catFR1	10	R1662S
852.819	1.599	1076157	WORD	n/a	wordpools/wordpool_categorized_EN.txt	WHALE	OceanAnimals	4	8	[0, 0, 0]	n/a	catFR1	10	R1662S
854.418	0.8	1077749	WORD_OFF	n/a	n/a	WHALE	OceanAnimals	4	8	[0, 0, 0]	n/a	catFR1	10	R1662S
855.218	1.61	1078556	WORD	n/a	wordpools/wordpool_categorized_EN.txt	DAISY	Flowers	5	8	[0, 0, 0]	n/a	catFR1	10	R1662S
856.828	0.791	1080160	WORD_OFF	n/a	n/a	DAISY	Flowers	5	8	[0, 0, 0]	n/a	catFR1	10	R1662S
857.619	1.599	1080956	WORD	n/a	wordpools/wordpool_categorized_EN.txt	LILY	Flowers	6	8	[0, 0, 0]	n/a	catFR1	10	R1662S
859.218	0.9	1082548	WORD_OFF	n/a	n/a	LILY	Flowers	6	8	[0, 0, 0]	n/a	catFR1	10	R1662S
860.118	1.599	1083447	WORD	n/a	wordpools/wordpool_categorized_EN.txt	SQUID	OceanAnimals	7	8	[0, 0, 0]	n/a	catFR1	10	R1662S
861.717	0.885	1085051	WORD_OFF	n/a	n/a	SQUID	OceanAnimals	7	8	[0, 0, 0]	n/a	catFR1	10	R1662S
862.602	1.608	1085939	WORD	n/a	wordpools/wordpool_categorized_EN.txt	OCTOPUS	OceanAnimals	8	8	[0, 0, 0]	n/a	catFR1	10	R1662S
864.21	0.931	1087542	WORD_OFF	n/a	n/a	OCTOPUS	OceanAnimals	8	8	[0, 0, 0]	n/a	catFR1	10	R1662S
865.141	1.601	1088476	WORD	n/a	wordpools/wordpool_categorized_EN.txt	TULIP	Flowers	9	8	[0, 0, 0]	n/a	catFR1	10	R1662S
866.742	0.917	1090080	WORD_OFF	n/a	n/a	TULIP	Flowers	9	8	[0, 0, 0]	n/a	catFR1	10	R1662S
867.659	1.6	1090991	WORD	n/a	wordpools/wordpool_categorized_EN.txt	PETUNIA	Flowers	10	8	[0, 0, 0]	n/a	catFR1	10	R1662S
869.259	0.84	1092594	WORD_OFF	n/a	n/a	PETUNIA	Flowers	10	8	[0, 0, 0]	n/a	catFR1	10	R1662S
870.099	1.61	1093436	WORD	n/a	wordpools/wordpool_categorized_EN.txt	ORANGE	Fruit	11	8	[0, 0, 0]	n/a	catFR1	10	R1662S
871.709	0.884	1095040	WORD_OFF	n/a	n/a	ORANGE	Fruit	11	8	[0, 0, 0]	n/a	catFR1	10	R1662S
872.593	1.609	1095928	WORD	n/a	wordpools/wordpool_categorized_EN.txt	CHERRY	Fruit	12	8	[0, 0, 0]	n/a	catFR1	10	R1662S
874.202	0.0	1097531	WORD_OFF	n/a	n/a	CHERRY	Fruit	12	8	[0, 0, 0]	n/a	catFR1	10	R1662S
874.201	0.004	1097539	PROB	0.004	n/a	n/a	n/a	-999	8	[8, 8, 1]	17	catFR1	10	R1662S
874.205	0.0	1097543	ENCODING_END	n/a	n/a	n/a	n/a	-999	8	[0, 0, 0]	n/a	catFR1	10	R1662S
874.205	0.0	1097543	DISTRACT_START	n/a	n/a	n/a	n/a	-999	8	[0, 0, 0]	n/a	catFR1	10	R1662S
874.205	5.062	1097543	START	n/a	n/a	n/a	n/a	-999	8	[-999, -999, -999]	n/a	catFR1	10	R1662S
879.267	3.249	1102605	PROB	3.249	n/a	n/a	n/a	-999	8	[5, 3, 6]	14	catFR1	10	R1662S
882.516	3.252	1105854	PROB	3.252	n/a	n/a	n/a	-999	8	[5, 2, 8]	15	catFR1	10	R1662S
885.768	3.49	1109106	PROB	3.49	n/a	n/a	n/a	-999	8	[5, 7, 3]	15	catFR1	10	R1662S
889.258	2.542	1112596	PROB	2.542	n/a	n/a	n/a	-999	8	[2, 8, 4]	14	catFR1	10	R1662S
891.8	2.667	1115138	PROB	2.667	n/a	n/a	n/a	-999	8	[4, 3, 5]	12	catFR1	10	R1662S
894.467	0.0	1117798	DISTRACT_END	n/a	n/a	n/a	n/a	-999	8	[0, 0, 0]	n/a	catFR1	10	R1662S
894.467	2.217	1117805	STOP	n/a	n/a	n/a	n/a	-999	8	[-999, -999, -999]	n/a	catFR1	10	R1662S
896.684	1.24	1120013	REC_START	n/a	n/a	n/a	n/a	-999	8	[0, 0, 0]	n/a	catFR1	10	R1662S
897.924	0.97	1121262	REC_WORD	0.97	n/a	ORANGE	Fruit	11	8	[0, 0, 0]	n/a	catFR1	10	R1662S
898.894	1.424	1122232	REC_WORD	1.424	n/a	CHERRY	Fruit	12	8	[0, 0, 0]	n/a	catFR1	10	R1662S
900.318	1.079	1123656	REC_WORD	1.079	n/a	DAISY	Flowers	5	8	[0, 0, 0]	n/a	catFR1	10	R1662S
901.397	3.858	1124735	REC_WORD	3.858	n/a	PETUNIA	Flowers	10	8	[0, 0, 0]	n/a	catFR1	10	R1662S
905.255	1.177	1128593	REC_WORD	1.177	n/a	OCTOPUS	OceanAnimals	8	8	[0, 0, 0]	n/a	catFR1	10	R1662S
906.432	8.327	1129770	REC_WORD	8.327	n/a	SQUID	OceanAnimals	7	8	[0, 0, 0]	n/a	catFR1	10	R1662S
914.759	1.193	1138097	REC_WORD	1.193	n/a	CHERRY	Fruit	12	8	[0, 0, 0]	n/a	catFR1	10	R1662S
915.952	0.79	1139290	REC_WORD	0.79	n/a	BLUEBERRY	Fruit	1	8	[0, 0, 0]	n/a	catFR1	10	R1662S
916.742	10.094	1140080	REC_WORD	10.094	n/a	STRAWBERRY	Fruit	2	8	[0, 0, 0]	n/a	catFR1	10	R1662S
926.836	2.114	1150165	REC_END	n/a	n/a	n/a	n/a	-999	8	[0, 0, 0]	n/a	catFR1	10	R1662S
928.95	10.341	1152287	COUNTDOWN_START	n/a	n/a	n/a	n/a	-999	9	[0, 0, 0]	n/a	catFR1	10	R1662S
939.291	0.0	1162623	COUNTDOWN_END	n/a	n/a	n/a	n/a	-999	9	[0, 0, 0]	n/a	catFR1	10	R1662S
939.291	1.984	1162623	ENCODING_START	n/a	n/a	n/a	n/a	-999	9	[0, 0, 0]	n/a	catFR1	10	R1662S
941.275	1.6	1164607	WORD	n/a	wordpools/wordpool_categorized_EN.txt	CHEESECAKE	Desserts	1	9	[0, 0, 0]	n/a	catFR1	10	R1662S
942.875	0.775	1166210	WORD_OFF	n/a	n/a	CHEESECAKE	Desserts	1	9	[0, 0, 0]	n/a	catFR1	10	R1662S
943.65	1.6	1166983	WORD	n/a	wordpools/wordpool_categorized_EN.txt	PASTRY	Desserts	2	9	[0, 0, 0]	n/a	catFR1	10	R1662S
945.25	0.875	1168586	WORD_OFF	n/a	n/a	PASTRY	Desserts	2	9	[0, 0, 0]	n/a	catFR1	10	R1662S
946.125	1.617	1169463	WORD	n/a	wordpools/wordpool_categorized_EN.txt	ORGAN	Instruments	3	9	[0, 0, 0]	n/a	catFR1	10	R1662S
947.742	0.782	1171078	WORD_OFF	n/a	n/a	ORGAN	Instruments	3	9	[0, 0, 0]	n/a	catFR1	10	R1662S
948.524	1.601	1171862	WORD	n/a	wordpools/wordpool_categorized_EN.txt	BASS	Instruments	4	9	[0, 0, 0]	n/a	catFR1	10	R1662S
950.125	0.792	1173465	WORD_OFF	n/a	n/a	BASS	Instruments	4	9	[0, 0, 0]	n/a	catFR1	10	R1662S
950.917	1.608	1174250	WORD	n/a	wordpools/wordpool_categorized_EN.txt	WINE	Beverages	5	9	[0, 0, 0]	n/a	catFR1	10	R1662S
952.525	0.825	1175865	WORD_OFF	n/a	n/a	WINE	Beverages	5	9	[0, 0, 0]	n/a	catFR1	10	R1662S
953.35	1.601	1176684	WORD	n/a	wordpools/wordpool_categorized_EN.txt	TEA	Beverages	6	9	[0, 0, 0]	n/a	catFR1	10	R1662S
954.951	0.847	1178287	WORD_OFF	n/a	n/a	TEA	Beverages	6	9	[0, 0, 0]	n/a	catFR1	10	R1662S
955.798	1.6	1179129	WORD	n/a	wordpools/wordpool_categorized_EN.txt	TRUMPET	Instruments	7	9	[0, 0, 0]	n/a	catFR1	10	R1662S
957.398	0.917	1180732	WORD_OFF	n/a	n/a	TRUMPET	Instruments	7	9	[0, 0, 0]	n/a	catFR1	10	R1662S
958.315	1.601	1181644	WORD	n/a	wordpools/wordpool_categorized_EN.txt	VIOLIN	Instruments	8	9	[0, 0, 0]	n/a	catFR1	10	R1662S
959.916	0.8	1183247	WORD_OFF	n/a	n/a	VIOLIN	Instruments	8	9	[0, 0, 0]	n/a	catFR1	10	R1662S
960.716	1.601	1184054	WORD	n/a	wordpools/wordpool_categorized_EN.txt	COLA	Beverages	9	9	[0, 0, 0]	n/a	catFR1	10	R1662S
962.317	0.956	1185646	WORD_OFF	n/a	n/a	COLA	Beverages	9	9	[0, 0, 0]	n/a	catFR1	10	R1662S
963.273	1.602	1186604	WORD	n/a	wordpools/wordpool_categorized_EN.txt	BEER	Beverages	10	9	[0, 0, 0]	n/a	catFR1	10	R1662S
964.875	0.908	1188207	WORD_OFF	n/a	n/a	BEER	Beverages	10	9	[0, 0, 0]	n/a	catFR1	10	R1662S
965.783	1.607	1189118	WORD	n/a	wordpools/wordpool_categorized_EN.txt	FUDGE	Desserts	11	9	[0, 0, 0]	n/a	catFR1	10	R1662S
967.39	1.001	1190722	WORD_OFF	n/a	n/a	FUDGE	Desserts	11	9	[0, 0, 0]	n/a	catFR1	10	R1662S
968.391	1.6	1191725	WORD	n/a	wordpools/wordpool_categorized_EN.txt	MOUSSE	Desserts	12	9	[0, 0, 0]	n/a	catFR1	10	R1662S
969.991	0.003	1193328	WORD_OFF	n/a	n/a	MOUSSE	Desserts	12	9	[0, 0, 0]	n/a	catFR1	10	R1662S
969.994	0.0	1193328	ENCODING_END	n/a	n/a	n/a	n/a	-999	9	[0, 0, 0]	n/a	catFR1	10	R1662S
969.994	0.0	1193328	DISTRACT_START	n/a	n/a	n/a	n/a	-999	9	[0, 0, 0]	n/a	catFR1	10	R1662S
969.992	0.002	1193331	PROB	0.002	n/a	n/a	n/a	-999	9	[1, 4, 5]	10	catFR1	10	R1662S
969.994	6.155	1193333	START	n/a	n/a	n/a	n/a	-999	9	[-999, -999, -999]	n/a	catFR1	10	R1662S
976.149	2.319	1199488	PROB	2.319	n/a	n/a	n/a	-999	9	[1, 8, 2]	11	catFR1	10	R1662S
978.468	3.331	1201807	PROB	3.331	n/a	n/a	n/a	-999	9	[1, 8, 4]	13	catFR1	10	R1662S
981.799	2.684	1205138	PROB	2.684	n/a	n/a	n/a	-999	9	[5, 1, 4]	10	catFR1	10	R1662S
984.483	2.375	1207822	PROB	2.375	n/a	n/a	n/a	-999	9	[3, 5, 3]	11	catFR1	10	R1662S
986.858	2.016	1210197	PROB	2.016	n/a	n/a	n/a	-999	9	[2, 8, 2]	12	catFR1	10	R1662S
988.874	2.791	1212213	PROB	2.791	n/a	n/a	n/a	-999	9	[7, 2, 3]	12	catFR1	10	R1662S
991.665	0.0	1215002	DISTRACT_END	n/a	n/a	n/a	n/a	-999	9	[0, 0, 0]	n/a	catFR1	10	R1662S
991.665	2.168	1215004	STOP	n/a	n/a	n/a	n/a	-999	9	[-999, -999, -999]	n/a	catFR1	10	R1662S
993.833	0.409	1217171	REC_START	n/a	n/a	n/a	n/a	-999	9	[0, 0, 0]	n/a	catFR1	10	R1662S
994.242	1.215	1217581	REC_WORD	1.215	n/a	FUDGE	Desserts	11	9	[0, 0, 0]	n/a	catFR1	10	R1662S
995.457	1.218	1218796	REC_WORD	1.218	n/a	MOUSSE	Desserts	12	9	[0, 0, 0]	n/a	catFR1	10	R1662S
996.675	1.322	1220014	REC_WORD	1.322	n/a	COLA	Beverages	9	9	[0, 0, 0]	n/a	catFR1	10	R1662S
997.997	2.163	1221336	REC_WORD	2.163	n/a	BEER	Beverages	10	9	[0, 0, 0]	n/a	catFR1	10	R1662S
1000.16	1.193	1223499	REC_WORD	1.193	n/a	WINE	Beverages	5	9	[0, 0, 0]	n/a	catFR1	10	R1662S
1001.353	4.549	1224692	REC_WORD	4.549	n/a	CHEESECAKE	Desserts	1	9	[0, 0, 0]	n/a	catFR1	10	R1662S
1005.902	5.61	1229241	REC_WORD_VV	5.61	n/a	<>	n/a	-999	9	[0, 0, 0]	n/a	catFR1	10	R1662S
1011.512	11.063	1234851	REC_WORD	11.063	n/a	OYSTER	OceanAnimals	-999	9	[0, 0, 0]	n/a	catFR1	10	R1662S
1022.575	0.425	1245914	REC_WORD	0.425	n/a	COLA	Beverages	9	9	[0, 0, 0]	n/a	catFR1	10	R1662S
1023.0	0.978	1246339	REC_WORD	0.978	n/a	SODA	Beverages	-999	9	[0, 0, 0]	n/a	catFR1	10	R1662S
1023.978	2.754	1247312	REC_END	n/a	n/a	n/a	n/a	-999	9	[0, 0, 0]	n/a	catFR1	10	R1662S
1026.732	10.336	1250069	COUNTDOWN_START	n/a	n/a	n/a	n/a	-999	10	[0, 0, 0]	n/a	catFR1	10	R1662S
1037.068	0.002	1260404	COUNTDOWN_END	n/a	n/a	n/a	n/a	-999	10	[0, 0, 0]	n/a	catFR1	10	R1662S
1037.07	1.847	1260404	ENCODING_START	n/a	n/a	n/a	n/a	-999	10	[0, 0, 0]	n/a	catFR1	10	R1662S
1038.917	1.608	1262249	WORD	n/a	wordpools/wordpool_categorized_EN.txt	BINDER	OfficeSupplies	1	10	[0, 0, 0]	n/a	catFR1	10	R1662S
1040.525	0.943	1263864	WORD_OFF	n/a	n/a	BINDER	OfficeSupplies	1	10	[0, 0, 0]	n/a	catFR1	10	R1662S
1041.468	1.607	1264799	WORD	n/a	wordpools/wordpool_categorized_EN.txt	STAPLER	OfficeSupplies	2	10	[0, 0, 0]	n/a	catFR1	10	R1662S
1043.075	0.841	1266413	WORD_OFF	n/a	n/a	STAPLER	OfficeSupplies	2	10	[0, 0, 0]	n/a	catFR1	10	R1662S
1043.916	1.601	1267255	WORD	n/a	wordpools/wordpool_categorized_EN.txt	EAR	BodyParts	3	10	[0, 0, 0]	n/a	catFR1	10	R1662S
1045.517	0.957	1268859	WORD_OFF	n/a	n/a	EAR	BodyParts	3	10	[0, 0, 0]	n/a	catFR1	10	R1662S
1046.474	1.609	1269805	WORD	n/a	wordpools/wordpool_categorized_EN.txt	EYE	BodyParts	4	10	[0, 0, 0]	n/a	catFR1	10	R1662S
1048.083	0.892	1271420	WORD_OFF	n/a	n/a	EYE	BodyParts	4	10	[0, 0, 0]	n/a	catFR1	10	R1662S
1048.975	1.6	1272308	WORD	n/a	wordpools/wordpool_categorized_EN.txt	CABBAGE	Vegetables	5	10	[0, 0, 0]	n/a	catFR1	10	R1662S
1050.575	0.923	1273911	WORD_OFF	n/a	n/a	CABBAGE	Vegetables	5	10	[0, 0, 0]	n/a	catFR1	10	R1662S
1051.498	1.602	1274834	WORD	n/a	wordpools/wordpool_categorized_EN.txt	LETTUCE	Vegetables	6	10	[0, 0, 0]	n/a	catFR1	10	R1662S
1053.1	0.998	1276437	WORD_OFF	n/a	n/a	LETTUCE	Vegetables	6	10	[0, 0, 0]	n/a	catFR1	10	R1662S
1054.098	1.603	1277429	WORD	n/a	wordpools/wordpool_categorized_EN.txt	FINGERS	BodyParts	7	10	[0, 0, 0]	n/a	catFR1	10	R1662S
1055.701	0.756	1279033	WORD_OFF	n/a	n/a	FINGERS	BodyParts	7	10	[0, 0, 0]	n/a	catFR1	10	R1662S
1056.457	1.61	1279794	WORD	n/a	wordpools/wordpool_categorized_EN.txt	ELBOW	BodyParts	8	10	[0, 0, 0]	n/a	catFR1	10	R1662S
1058.067	0.783	1281397	WORD_OFF	n/a	n/a	ELBOW	BodyParts	8	10	[0, 0, 0]	n/a	catFR1	10	R1662S
1058.85	1.601	1282182	WORD	n/a	wordpools/wordpool_categorized_EN.txt	CORN	Vegetables	9	10	[0, 0, 0]	n/a	catFR1	10	R1662S
1060.451	0.915	1283785	WORD_OFF	n/a	n/a	CORN	Vegetables	9	10	[0, 0, 0]	n/a	catFR1	10	R1662S
1061.366	1.601	1284696	WORD	n/a	wordpools/wordpool_categorized_EN.txt	PEAS	Vegetables	10	10	[0, 0, 0]	n/a	catFR1	10	R1662S
1062.967	0.817	1286300	WORD_OFF	n/a	n/a	PEAS	Vegetables	10	10	[0, 0, 0]	n/a	catFR1	10	R1662S
1063.784	1.607	1287119	WORD	n/a	wordpools/wordpool_categorized_EN.txt	ERASER	OfficeSupplies	11	10	[0, 0, 0]	n/a	catFR1	10	R1662S
1065.391	0.825	1288722	WORD_OFF	n/a	n/a	ERASER	OfficeSupplies	11	10	[0, 0, 0]	n/a	catFR1	10	R1662S
1066.216	1.6	1289552	WORD	n/a	wordpools/wordpool_categorized_EN.txt	PEN	OfficeSupplies	12	10	[0, 0, 0]	n/a	catFR1	10	R1662S
1067.816	0.002	1291144	WORD_OFF	n/a	n/a	PEN	OfficeSupplies	12	10	[0, 0, 0]	n/a	catFR1	10	R1662S
1067.818	0.0	1291156	ENCODING_END	n/a	n/a	n/a	n/a	-999	10	[0, 0, 0]	n/a	catFR1	10	R1662S
1067.818	0.0	1291156	DISTRACT_START	n/a	n/a	n/a	n/a	-999	10	[0, 0, 0]	n/a	catFR1	10	R1662S
1067.818	0.0	1291157	START	n/a	n/a	n/a	n/a	-999	10	[-999, -999, -999]	n/a	catFR1	10	R1662S
1067.818	4.223	1291157	PROB	4.223	n/a	n/a	n/a	-999	10	[6, 1, 2]	9	catFR1	10	R1662S
1072.041	2.276	1295380	PROB	2.276	n/a	n/a	n/a	-999	10	[7, 7, 7]	21	catFR1	10	R1662S
1074.317	3.075	1297656	PROB	3.075	n/a	n/a	n/a	-999	10	[5, 2, 1]	8	catFR1	10	R1662S
1077.392	2.091	1300731	PROB	2.091	n/a	n/a	n/a	-999	10	[1, 6, 5]	12	catFR1	10	R1662S
1079.483	2.867	1302822	PROB	2.867	n/a	n/a	n/a	-999	10	[2, 7, 4]	13	catFR1	10	R1662S
1082.35	3.349	1305689	PROB	3.349	n/a	n/a	n/a	-999	10	[3, 1, 5]	9	catFR1	10	R1662S
1085.699	2.649	1309038	PROB	2.649	n/a	n/a	n/a	-999	10	[1, 7, 1]	9	catFR1	10	R1662S
1088.348	0.0	1311687	STOP	n/a	n/a	n/a	n/a	-999	10	[-999, -999, -999]	n/a	catFR1	10	R1662S
1088.348	2.176	1311688	DISTRACT_END	n/a	n/a	n/a	n/a	-999	10	[0, 0, 0]	n/a	catFR1	10	R1662S
1090.524	1.39	1313856	REC_START	n/a	n/a	n/a	n/a	-999	10	[0, 0, 0]	n/a	catFR1	10	R1662S
1091.914	0.77	1315253	REC_WORD	0.77	n/a	PEN	OfficeSupplies	12	10	[0, 0, 0]	n/a	catFR1	10	R1662S
1092.684	1.045	1316023	REC_WORD	1.045	n/a	ERASER	OfficeSupplies	11	10	[0, 0, 0]	n/a	catFR1	10	R1662S
1093.729	0.935	1317068	REC_WORD	0.935	n/a	CABBAGE	Vegetables	5	10	[0, 0, 0]	n/a	catFR1	10	R1662S
1094.664	1.899	1318003	REC_WORD	1.899	n/a	CORN	Vegetables	9	10	[0, 0, 0]	n/a	catFR1	10	R1662S
1096.563	2.996	1319902	REC_WORD	2.996	n/a	PEAS	Vegetables	10	10	[0, 0, 0]	n/a	catFR1	10	R1662S
1099.559	7.52	1322898	REC_WORD_VV	7.52	n/a	<>	n/a	-999	10	[0, 0, 0]	n/a	catFR1	10	R1662S
1107.079	6.21	1330418	REC_WORD	6.21	n/a	STAPLER	OfficeSupplies	2	10	[0, 0, 0]	n/a	catFR1	10	R1662S
1113.289	7.387	1336628	REC_WORD_VV	7.387	n/a	<>	n/a	-999	10	[0, 0, 0]	n/a	catFR1	10	R1662S
1120.676	1.98	1344009	REC_END	n/a	n/a	n/a	n/a	-999	10	[0, 0, 0]	n/a	catFR1	10	R1662S
1122.656	10.344	1345993	COUNTDOWN_START	n/a	n/a	n/a	n/a	-999	11	[0, 0, 0]	n/a	catFR1	10	R1662S
1133.0	0.0	1356339	COUNTDOWN_END	n/a	n/a	n/a	n/a	-999	11	[0, 0, 0]	n/a	catFR1	10	R1662S
1133.0	2.125	1356339	ENCODING_START	n/a	n/a	n/a	n/a	-999	11	[0, 0, 0]	n/a	catFR1	10	R1662S
1135.125	1.598	1358462	WORD	n/a	wordpools/wordpool_categorized_EN.txt	NOSE	BodyParts	1	11	[0, 0, 0]	n/a	catFR1	10	R1662S
1136.723	0.959	1360054	WORD_OFF	n/a	n/a	NOSE	BodyParts	1	11	[0, 0, 0]	n/a	catFR1	10	R1662S
1137.682	1.609	1361011	WORD	n/a	wordpools/wordpool_categorized_EN.txt	LEG	BodyParts	2	11	[0, 0, 0]	n/a	catFR1	10	R1662S
1139.291	0.924	1362626	WORD_OFF	n/a	n/a	LEG	BodyParts	2	11	[0, 0, 0]	n/a	catFR1	10	R1662S
1140.215	1.601	1363560	WORD	n/a	wordpools/wordpool_categorized_EN.txt	ORANGUTAN	Zoo	3	11	[0, 0, 0]	n/a	catFR1	10	R1662S
1141.816	0.992	1365152	WORD_OFF	n/a	n/a	ORANGUTAN	Zoo	3	11	[0, 0, 0]	n/a	catFR1	10	R1662S
1142.808	1.599	1366144	WORD	n/a	wordpools/wordpool_categorized_EN.txt	MONKEY	Zoo	4	11	[0, 0, 0]	n/a	catFR1	10	R1662S
1144.407	0.901	1367747	WORD_OFF	n/a	n/a	MONKEY	Zoo	4	11	[0, 0, 0]	n/a	catFR1	10	R1662S
1145.308	1.608	1368647	WORD	n/a	wordpools/wordpool_categorized_EN.txt	WIND	Weather	5	11	[0, 0, 0]	n/a	catFR1	10	R1662S
1146.916	0.841	1370250	WORD_OFF	n/a	n/a	WIND	Weather	5	11	[0, 0, 0]	n/a	catFR1	10	R1662S
1147.757	1.601	1371092	WORD	n/a	wordpools/wordpool_categorized_EN.txt	HUMIDITY	Weather	6	11	[0, 0, 0]	n/a	catFR1	10	R1662S
1149.358	0.841	1372696	WORD_OFF	n/a	n/a	HUMIDITY	Weather	6	11	[0, 0, 0]	n/a	catFR1	10	R1662S
1150.199	1.608	1373538	WORD	n/a	wordpools/wordpool_categorized_EN.txt	KNEE	BodyParts	7	11	[0, 0, 0]	n/a	catFR1	10	R1662S
1151.807	0.841	1375141	WORD_OFF	n/a	n/a	KNEE	BodyParts	7	11	[0, 0, 0]	n/a	catFR1	10	R1662S
1152.648	1.601	1375983	WORD	n/a	wordpools/wordpool_categorized_EN.txt	HEAD	BodyParts	8	11	[0, 0, 0]	n/a	catFR1	10	R1662S
1154.249	0.958	1377587	WORD_OFF	n/a	n/a	HEAD	BodyParts	8	11	[0, 0, 0]	n/a	catFR1	10	R1662S
1155.207	1.6	1378544	WORD	n/a	wordpools/wordpool_categorized_EN.txt	THUNDER	Weather	9	11	[0, 0, 0]	n/a	catFR1	10	R1662S
1156.807	0.826	1380147	WORD_OFF	n/a	n/a	THUNDER	Weather	9	11	[0, 0, 0]	n/a	catFR1	10	R1662S
1157.633	1.608	1380966	WORD	n/a	wordpools/wordpool_categorized_EN.txt	HURRICANE	Weather	10	11	[0, 0, 0]	n/a	catFR1	10	R1662S
1159.241	0.85	1382581	WORD_OFF	n/a	n/a	HURRICANE	Weather	10	11	[0, 0, 0]	n/a	catFR1	10	R1662S
1160.091	1.607	1383423	WORD	n/a	wordpools/wordpool_categorized_EN.txt	CHIMPANZEE	Zoo	11	11	[0, 0, 0]	n/a	catFR1	10	R1662S
1161.698	0.851	1385038	WORD_OFF	n/a	n/a	CHIMPANZEE	Zoo	11	11	[0, 0, 0]	n/a	catFR1	10	R1662S
1162.549	1.6	1385880	WORD	n/a	wordpools/wordpool_categorized_EN.txt	ELEPHANT	Zoo	12	11	[0, 0, 0]	n/a	catFR1	10	R1662S
1164.149	0.003	1387483	WORD_OFF	n/a	n/a	ELEPHANT	Zoo	12	11	[0, 0, 0]	n/a	catFR1	10	R1662S
1164.152	0.0	1387483	ENCODING_END	n/a	n/a	n/a	n/a	-999	11	[0, 0, 0]	n/a	catFR1	10	R1662S
1164.152	0.0	1387483	DISTRACT_START	n/a	n/a	n/a	n/a	-999	11	[0, 0, 0]	n/a	catFR1	10	R1662S
1164.149	0.003	1387488	PROB	0.003	n/a	n/a	n/a	-999	11	[6, 6, 4]	16	catFR1	10	R1662S
1164.152	8.03	1387491	START	n/a	n/a	n/a	n/a	-999	11	[-999, -999, -999]	n/a	catFR1	10	R1662S
1172.182	3.509	1395521	PROB	3.509	n/a	n/a	n/a	-999	11	[2, 1, 1]	4	catFR1	10	R1662S
1175.691	2.849	1399030	PROB	2.849	n/a	n/a	n/a	-999	11	[2, 5, 3]	10	catFR1	10	R1662S
1178.54	2.942	1401879	PROB	2.942	n/a	n/a	n/a	-999	11	[3, 3, 7]	13	catFR1	10	R1662S
1181.482	5.799	1404821	PROB	5.799	n/a	n/a	n/a	-999	11	[8, 5, 7]	20	catFR1	10	R1662S
1187.281	0.0	1410611	DISTRACT_END	n/a	n/a	n/a	n/a	-999	11	[0, 0, 0]	n/a	catFR1	10	R1662S
1187.281	2.285	1410620	STOP	n/a	n/a	n/a	n/a	-999	11	[-999, -999, -999]	n/a	catFR1	10	R1662S
1189.566	1.197	1412895	REC_START	n/a	n/a	n/a	n/a	-999	11	[0, 0, 0]	n/a	catFR1	10	R1662S
1190.763	0.857	1414102	REC_WORD	0.857	n/a	ELEPHANT	Zoo	12	11	[0, 0, 0]	n/a	catFR1	10	R1662S
1191.62	1.362	1414959	REC_WORD	1.362	n/a	ORANGUTAN	Zoo	3	11	[0, 0, 0]	n/a	catFR1	10	R1662S
1192.982	1.322	1416321	REC_WORD	1.322	n/a	CHIMPANZEE	Zoo	11	11	[0, 0, 0]	n/a	catFR1	10	R1662S
1194.304	0.946	1417643	REC_WORD	0.946	n/a	HEAD	BodyParts	8	11	[0, 0, 0]	n/a	catFR1	10	R1662S
1195.25	2.902	1418589	REC_WORD	2.902	n/a	ARM	BodyParts	-999	11	[0, 0, 0]	n/a	catFR1	10	R1662S
1198.152	3.504	1421491	REC_WORD	3.504	n/a	LEG	BodyParts	2	11	[0, 0, 0]	n/a	catFR1	10	R1662S
1201.656	0.929	1424995	REC_WORD	0.929	n/a	ELBOW	BodyParts	-999	11	[0, 0, 0]	n/a	catFR1	10	R1662S
1202.585	1.799	1425924	REC_WORD	1.799	n/a	KNEE	BodyParts	7	11	[0, 0, 0]	n/a	catFR1	10	R1662S
1204.384	6.096	1427723	REC_WORD	6.096	n/a	TOE	BodyParts	-999	11	[0, 0, 0]	n/a	catFR1	10	R1662S
1210.48	1.0	1433819	REC_WORD_VV	1.0	n/a	<>	n/a	-999	11	[0, 0, 0]	n/a	catFR1	10	R1662S
1211.48	8.239	1434819	REC_WORD_VV	8.239	n/a	<>	n/a	-999	11	[0, 0, 0]	n/a	catFR1	10	R1662S
1219.719	2.037	1443058	REC_END	n/a	n/a	n/a	n/a	-999	11	[0, 0, 0]	n/a	catFR1	10	R1662S
1221.756	10.344	1445089	COUNTDOWN_START	n/a	n/a	n/a	n/a	-999	12	[0, 0, 0]	n/a	catFR1	10	R1662S
1232.1	0.001	1455435	COUNTDOWN_END	n/a	n/a	n/a	n/a	-999	12	[0, 0, 0]	n/a	catFR1	10	R1662S
1232.101	2.064	1455435	ENCODING_START	n/a	n/a	n/a	n/a	-999	12	[0, 0, 0]	n/a	catFR1	10	R1662S
1234.165	1.6	1457500	WORD	n/a	wordpools/wordpool_categorized_EN.txt	CARROT	Vegetables	1	12	[0, 0, 0]	n/a	catFR1	10	R1662S
1235.765	0.809	1459104	WORD_OFF	n/a	n/a	CARROT	Vegetables	1	12	[0, 0, 0]	n/a	catFR1	10	R1662S
1236.574	1.608	1459911	WORD	n/a	wordpools/wordpool_categorized_EN.txt	SPINACH	Vegetables	2	12	[0, 0, 0]	n/a	catFR1	10	R1662S
1238.182	0.774	1461514	WORD_OFF	n/a	n/a	SPINACH	Vegetables	2	12	[0, 0, 0]	n/a	catFR1	10	R1662S
1238.956	1.601	1462287	WORD	n/a	wordpools/wordpool_categorized_EN.txt	BANJO	Instruments	3	12	[0, 0, 0]	n/a	catFR1	10	R1662S
1240.557	0.908	1463890	WORD_OFF	n/a	n/a	BANJO	Instruments	3	12	[0, 0, 0]	n/a	catFR1	10	R1662S
1241.465	1.609	1464802	WORD	n/a	wordpools/wordpool_categorized_EN.txt	CELLO	Instruments	4	12	[0, 0, 0]	n/a	catFR1	10	R1662S
1243.074	0.89	1466405	WORD_OFF	n/a	n/a	CELLO	Instruments	4	12	[0, 0, 0]	n/a	catFR1	10	R1662S
1243.964	1.601	1467293	WORD	n/a	wordpools/wordpool_categorized_EN.txt	MOTORCYCLE	Vehicles	5	12	[0, 0, 0]	n/a	catFR1	10	R1662S
1245.565	0.95	1468897	WORD_OFF	n/a	n/a	MOTORCYCLE	Vehicles	5	12	[0, 0, 0]	n/a	catFR1	10	R1662S
1246.515	1.601	1469854	WORD	n/a	wordpools/wordpool_categorized_EN.txt	TRAIN	Vehicles	6	12	[0, 0, 0]	n/a	catFR1	10	R1662S
1248.116	1.0	1471446	WORD_OFF	n/a	n/a	TRAIN	Vehicles	6	12	[0, 0, 0]	n/a	catFR1	10	R1662S
1249.116	1.608	1472449	WORD	n/a	wordpools/wordpool_categorized_EN.txt	POTATO	Vegetables	7	12	[0, 0, 0]	n/a	catFR1	10	R1662S
1250.724	0.982	1474064	WORD_OFF	n/a	n/a	POTATO	Vegetables	7	12	[0, 0, 0]	n/a	catFR1	10	R1662S
1251.706	1.601	1475045	WORD	n/a	wordpools/wordpool_categorized_EN.txt	ONION	Vegetables	8	12	[0, 0, 0]	n/a	catFR1	10	R1662S
1253.307	0.84	1476648	WORD_OFF	n/a	n/a	ONION	Vegetables	8	12	[0, 0, 0]	n/a	catFR1	10	R1662S
1254.147	1.608	1477479	WORD	n/a	wordpools/wordpool_categorized_EN.txt	BIKE	Vehicles	9	12	[0, 0, 0]	n/a	catFR1	10	R1662S
1255.755	0.768	1479093	WORD_OFF	n/a	n/a	BIKE	Vehicles	9	12	[0, 0, 0]	n/a	catFR1	10	R1662S
1256.523	1.601	1479855	WORD	n/a	wordpools/wordpool_categorized_EN.txt	PLANE	Vehicles	10	12	[0, 0, 0]	n/a	catFR1	10	R1662S
1258.124	0.841	1481458	WORD_OFF	n/a	n/a	PLANE	Vehicles	10	12	[0, 0, 0]	n/a	catFR1	10	R1662S
1258.965	1.599	1482300	WORD	n/a	wordpools/wordpool_categorized_EN.txt	TUBA	Instruments	11	12	[0, 0, 0]	n/a	catFR1	10	R1662S
1260.564	0.978	1483904	WORD_OFF	n/a	n/a	TUBA	Instruments	11	12	[0, 0, 0]	n/a	catFR1	10	R1662S
1261.542	1.606	1484872	WORD	n/a	wordpools/wordpool_categorized_EN.txt	DRUM	Instruments	12	12	[0, 0, 0]	n/a	catFR1	10	R1662S
1263.148	0.002	1486487	WORD_OFF	n/a	n/a	DRUM	Instruments	12	12	[0, 0, 0]	n/a	catFR1	10	R1662S
1263.15	0.0	1486487	ENCODING_END	n/a	n/a	n/a	n/a	-999	12	[0, 0, 0]	n/a	catFR1	10	R1662S
1263.15	0.0	1486487	DISTRACT_START	n/a	n/a	n/a	n/a	-999	12	[0, 0, 0]	n/a	catFR1	10	R1662S
1263.148	0.002	1486488	PROB	0.002	n/a	n/a	n/a	-999	12	[5, 6, 1]	12	catFR1	10	R1662S
1263.15	4.623	1486490	START	n/a	n/a	n/a	n/a	-999	12	[-999, -999, -999]	n/a	catFR1	10	R1662S
1267.773	4.701	1491113	PROB	4.701	n/a	n/a	n/a	-999	12	[7, 2, 4]	13	catFR1	10	R1662S
1272.474	6.624	1495814	PROB	6.624	n/a	n/a	n/a	-999	12	[5, 7, 6]	18	catFR1	10	R1662S
1279.098	6.775	1502438	PROB	6.775	n/a	n/a	n/a	-999	12	[3, 5, 8]	16	catFR1	10	R1662S
1285.873	0.0	1509211	DISTRACT_END	n/a	n/a	n/a	n/a	-999	12	[0, 0, 0]	n/a	catFR1	10	R1662S
1285.873	2.033	1509213	STOP	n/a	n/a	n/a	n/a	-999	12	[-999, -999, -999]	n/a	catFR1	10	R1662S
1287.906	1.043	1511241	REC_START	n/a	n/a	n/a	n/a	-999	12	[0, 0, 0]	n/a	catFR1	10	R1662S
1288.949	1.155	1512289	REC_WORD	1.155	n/a	BIKE	Vehicles	9	12	[0, 0, 0]	n/a	catFR1	10	R1662S
1290.104	1.307	1513444	REC_WORD	1.307	n/a	PLANE	Vehicles	10	12	[0, 0, 0]	n/a	catFR1	10	R1662S
1291.411	1.283	1514751	REC_WORD	1.283	n/a	TUBA	Instruments	11	12	[0, 0, 0]	n/a	catFR1	10	R1662S
1292.694	1.546	1516034	REC_WORD	1.546	n/a	DRUM	Instruments	12	12	[0, 0, 0]	n/a	catFR1	10	R1662S
1294.24	1.727	1517580	REC_WORD	1.727	n/a	BANJO	Instruments	3	12	[0, 0, 0]	n/a	catFR1	10	R1662S
1295.967	2.37	1519307	REC_WORD	2.37	n/a	CELLO	Instruments	4	12	[0, 0, 0]	n/a	catFR1	10	R1662S
1298.337	2.646	1521677	REC_WORD	2.646	n/a	CARROT	Vegetables	1	12	[0, 0, 0]	n/a	catFR1	10	R1662S
1300.983	6.092	1524323	REC_WORD	6.092	n/a	SPINACH	Vegetables	2	12	[0, 0, 0]	n/a	catFR1	10	R1662S
1307.075	5.115	1530415	REC_WORD_VV	5.115	n/a	<>	n/a	-999	12	[0, 0, 0]	n/a	catFR1	10	R1662S
1312.19	1.0	1535530	REC_WORD_VV	1.0	n/a	<>	n/a	-999	12	[0, 0, 0]	n/a	catFR1	10	R1662S
1313.19	3.498	1536530	REC_WORD_VV	3.498	n/a	<>	n/a	-999	12	[0, 0, 0]	n/a	catFR1	10	R1662S
1316.688	1.373	1540028	REC_WORD	1.373	n/a	CELLO	Instruments	4	12	[0, 0, 0]	n/a	catFR1	10	R1662S
1318.061	0.0	1541393	REC_END	n/a	n/a	n/a	n/a	-999	12	[0, 0, 0]	n/a	catFR1	10	R1662S
