onset	duration	sample	trial_type	response_time	stim_file	item_name	category	serialpos	list	test	answer	experiment	session	subject
0.0	1.395	6052	INSTRUCT_START	n/a	n/a	n/a	n/a	-999	-999	[0, 0, 0]	n/a	catFR1	1	R1541T
1.395	25.532	7444	INSTRUCT_END	n/a	n/a	n/a	n/a	-999	-999	[0, 0, 0]	n/a	catFR1	1	R1541T
26.927	10.0	32981	COUNTDOWN_START	n/a	n/a	n/a	n/a	-999	-999	[0, 0, 0]	n/a	catFR1	1	R1541T
37.276	0.0	43320	COUNTDOWN_END	n/a	n/a	n/a	n/a	-999	-999	[0, 0, 0]	n/a	catFR1	1	R1541T
37.276	2.117	43329	ENCODING_START	n/a	n/a	n/a	n/a	-999	-1	[0, 0, 0]	n/a	catFR1	1	R1541T
39.393	1.6	45440	WORD	n/a	n/a	GIRAFFE	Zoo	1	-1	[0, 0, 0]	n/a	catFR1	1	R1541T
41.009	0.766	47060	WORD_OFF	n/a	n/a	GIRAFFE	Zoo	1	-1	[0, 0, 0]	n/a	catFR1	1	R1541T
41.775	1.6	47825	WORD	n/a	n/a	MONKEY	Zoo	2	-1	[0, 0, 0]	n/a	catFR1	1	R1541T
43.376	0.95	49427	WORD_OFF	n/a	n/a	MONKEY	Zoo	2	-1	[0, 0, 0]	n/a	catFR1	1	R1541T
44.326	1.6	50373	WORD	n/a	n/a	BLUEBERRY	Fruit	3	-1	[0, 0, 0]	n/a	catFR1	1	R1541T
45.942	0.901	51993	WORD_OFF	n/a	n/a	BLUEBERRY	Fruit	3	-1	[0, 0, 0]	n/a	catFR1	1	R1541T
46.843	1.6	52894	WORD	n/a	n/a	LIME	Fruit	4	-1	[0, 0, 0]	n/a	catFR1	1	R1541T
48.459	0.85	54505	WORD_OFF	n/a	n/a	LIME	Fruit	4	-1	[0, 0, 0]	n/a	catFR1	1	R1541T
49.309	1.6	55360	WORD	n/a	n/a	TOASTER	Appliances	5	-1	[0, 0, 0]	n/a	catFR1	1	R1541T
50.909	0.933	56953	WORD_OFF	n/a	n/a	TOASTER	Appliances	5	-1	[0, 0, 0]	n/a	catFR1	1	R1541T
51.842	1.6	57890	WORD	n/a	n/a	VACUUM	Appliances	6	-1	[0, 0, 0]	n/a	catFR1	1	R1541T
53.442	0.899	59492	WORD_OFF	n/a	n/a	VACUUM	Appliances	6	-1	[0, 0, 0]	n/a	catFR1	1	R1541T
54.341	1.6	60393	WORD	n/a	n/a	GRAPE	Fruit	7	-1	[0, 0, 0]	n/a	catFR1	1	R1541T
55.941	0.767	61986	WORD_OFF	n/a	n/a	GRAPE	Fruit	7	-1	[0, 0, 0]	n/a	catFR1	1	R1541T
56.708	1.6	62759	WORD	n/a	n/a	LEMON	Fruit	8	-1	[0, 0, 0]	n/a	catFR1	1	R1541T
58.308	0.817	64352	WORD_OFF	n/a	n/a	LEMON	Fruit	8	-1	[0, 0, 0]	n/a	catFR1	1	R1541T
59.125	1.6	65171	WORD	n/a	n/a	FREEZER	Appliances	9	-1	[0, 0, 0]	n/a	catFR1	1	R1541T
60.726	0.766	66773	WORD_OFF	n/a	n/a	FREEZER	Appliances	9	-1	[0, 0, 0]	n/a	catFR1	1	R1541T
61.492	1.6	67537	WORD	n/a	n/a	MIXER	Appliances	10	-1	[0, 0, 0]	n/a	catFR1	1	R1541T
63.109	0.816	69157	WORD_OFF	n/a	n/a	MIXER	Appliances	10	-1	[0, 0, 0]	n/a	catFR1	1	R1541T
63.925	1.6	69976	WORD	n/a	n/a	TIGER	Zoo	11	-1	[0, 0, 0]	n/a	catFR1	1	R1541T
65.542	0.884	71587	WORD_OFF	n/a	n/a	TIGER	Zoo	11	-1	[0, 0, 0]	n/a	catFR1	1	R1541T
66.426	1.6	72470	WORD	n/a	n/a	GORILLA	Zoo	12	-1	[0, 0, 0]	n/a	catFR1	1	R1541T
68.043	0.001	74085	PROB	3.666	n/a	n/a	n/a	-999	-1	[7, 8, 8]	23.0	catFR1	1	R1541T
68.044	0.0	74086	START	n/a	n/a	n/a	n/a	-999	-1	[-999, -999, -999]	n/a	catFR1	1	R1541T
68.042	0.002	74090	WORD_OFF	n/a	n/a	GORILLA	Zoo	12	-1	[0, 0, 0]	n/a	catFR1	1	R1541T
68.044	0.0	74090	ENCODING_END	n/a	n/a	n/a	n/a	-999	-1	[0, 0, 0]	n/a	catFR1	1	R1541T
68.044	3.682	74090	DISTRACT_START	n/a	n/a	n/a	n/a	-999	-1	[0, 0, 0]	n/a	catFR1	1	R1541T
71.726	4.366	77768	PROB	4.348	n/a	n/a	n/a	-999	-1	[6, 1, 3]	10.0	catFR1	1	R1541T
76.092	2.384	82134	PROB	2.366	n/a	n/a	n/a	-999	-1	[1, 3, 4]	8.0	catFR1	1	R1541T
78.476	3.183	84518	PROB	3.166	n/a	n/a	n/a	-999	-1	[7, 8, 5]	20.0	catFR1	1	R1541T
81.659	3.032	87701	PROB	3.014	n/a	n/a	n/a	-999	-1	[1, 2, 7]	10.0	catFR1	1	R1541T
84.691	3.067	90733	PROB	3.051	n/a	n/a	n/a	-999	-1	[6, 4, 5]	15.0	catFR1	1	R1541T
87.758	3.2	93800	PROB	3.182	n/a	n/a	n/a	-999	-1	[5, 8, 1]	14.0	catFR1	1	R1541T
90.958	0.0	97000	STOP	n/a	n/a	n/a	n/a	-999	-1	[-999, -999, -999]	n/a	catFR1	1	R1541T
90.958	1.55	97006	DISTRACT_END	n/a	n/a	n/a	n/a	-999	-1	[0, 0, 0]	n/a	catFR1	1	R1541T
92.508	0.688	98553	REC_START	n/a	n/a	n/a	n/a	-999	-1	[0, 0, 0]	n/a	catFR1	1	R1541T
93.196	1.226	99238	REC_WORD	0.688	n/a	GIRAFFE	Zoo	1	-1	[0, 0, 0]	n/a	catFR1	1	R1541T
94.422	2.666	100464	REC_WORD	1.914	n/a	MONKEY	Zoo	2	-1	[0, 0, 0]	n/a	catFR1	1	R1541T
97.088	9.443	103129	REC_WORD	4.58	n/a	MIXER	Appliances	10	-1	[0, 0, 0]	n/a	catFR1	1	R1541T
106.531	1.187	112572	REC_WORD	14.023	n/a	LIME	Fruit	4	-1	[0, 0, 0]	n/a	catFR1	1	R1541T
107.718	8.94	113759	REC_WORD	15.21	n/a	BLUEBERRY	Fruit	3	-1	[0, 0, 0]	n/a	catFR1	1	R1541T
116.658	6.051	122699	REC_WORD	24.15	n/a	ELEPHANT	n/a	-999	-1	[0, 0, 0]	n/a	catFR1	1	R1541T
122.709	6.315	128759	REC_END	n/a	n/a	n/a	n/a	-999	-1	[0, 0, 0]	n/a	catFR1	1	R1541T
129.024	10.0	135075	COUNTDOWN_START	n/a	n/a	n/a	n/a	-999	1	[0, 0, 0]	n/a	catFR1	1	R1541T
139.374	0.0	145423	COUNTDOWN_END	n/a	n/a	n/a	n/a	-999	1	[0, 0, 0]	n/a	catFR1	1	R1541T
139.374	1.999	145423	ENCODING_START	n/a	n/a	n/a	n/a	-999	1	[0, 0, 0]	n/a	catFR1	1	R1541T
141.373	1.6	147416	WORD	n/a	wordpools/wordpool_categorized_EN.txt	COLA	Beverages	1	1	[0, 0, 0]	n/a	catFR1	1	R1541T
142.974	0.816	149018	WORD_OFF	n/a	n/a	COLA	Beverages	1	1	[0, 0, 0]	n/a	catFR1	1	R1541T
143.79	1.6	149837	WORD	n/a	wordpools/wordpool_categorized_EN.txt	JUICE	Beverages	2	1	[0, 0, 0]	n/a	catFR1	1	R1541T
145.406	1.0	151448	WORD_OFF	n/a	n/a	JUICE	Beverages	2	1	[0, 0, 0]	n/a	catFR1	1	R1541T
146.406	1.6	152449	WORD	n/a	wordpools/wordpool_categorized_EN.txt	LION	Zoo	3	1	[0, 0, 0]	n/a	catFR1	1	R1541T
148.006	0.883	154051	WORD_OFF	n/a	n/a	LION	Zoo	3	1	[0, 0, 0]	n/a	catFR1	1	R1541T
148.889	1.6	154933	WORD	n/a	wordpools/wordpool_categorized_EN.txt	PANDA	Zoo	4	1	[0, 0, 0]	n/a	catFR1	1	R1541T
150.49	0.95	156535	WORD_OFF	n/a	n/a	PANDA	Zoo	4	1	[0, 0, 0]	n/a	catFR1	1	R1541T
151.44	1.6	157482	WORD	n/a	wordpools/wordpool_categorized_EN.txt	SAW	Tools	5	1	[0, 0, 0]	n/a	catFR1	1	R1541T
153.056	0.967	159102	WORD_OFF	n/a	n/a	SAW	Tools	5	1	[0, 0, 0]	n/a	catFR1	1	R1541T
154.023	1.6	160066	WORD	n/a	wordpools/wordpool_categorized_EN.txt	SHOVEL	Tools	6	1	[0, 0, 0]	n/a	catFR1	1	R1541T
155.639	0.934	161686	WORD_OFF	n/a	n/a	SHOVEL	Tools	6	1	[0, 0, 0]	n/a	catFR1	1	R1541T
156.573	1.6	162615	WORD	n/a	wordpools/wordpool_categorized_EN.txt	MILK	Beverages	7	1	[0, 0, 0]	n/a	catFR1	1	R1541T
158.173	0.784	164216	WORD_OFF	n/a	n/a	MILK	Beverages	7	1	[0, 0, 0]	n/a	catFR1	1	R1541T
158.957	1.6	164999	WORD	n/a	wordpools/wordpool_categorized_EN.txt	CIDER	Beverages	8	1	[0, 0, 0]	n/a	catFR1	1	R1541T
160.573	0.984	166619	WORD_OFF	n/a	n/a	CIDER	Beverages	8	1	[0, 0, 0]	n/a	catFR1	1	R1541T
161.557	1.6	167602	WORD	n/a	wordpools/wordpool_categorized_EN.txt	AXE	Tools	9	1	[0, 0, 0]	n/a	catFR1	1	R1541T
163.173	0.783	169222	WORD_OFF	n/a	n/a	AXE	Tools	9	1	[0, 0, 0]	n/a	catFR1	1	R1541T
163.956	1.6	170005	WORD	n/a	wordpools/wordpool_categorized_EN.txt	DRILL	Tools	10	1	[0, 0, 0]	n/a	catFR1	1	R1541T
165.572	0.85	171615	WORD_OFF	n/a	n/a	DRILL	Tools	10	1	[0, 0, 0]	n/a	catFR1	1	R1541T
166.422	1.6	172471	WORD	n/a	wordpools/wordpool_categorized_EN.txt	BEAR	Zoo	11	1	[0, 0, 0]	n/a	catFR1	1	R1541T
168.023	0.9	174064	WORD_OFF	n/a	n/a	BEAR	Zoo	11	1	[0, 0, 0]	n/a	catFR1	1	R1541T
168.923	1.6	174965	WORD	n/a	wordpools/wordpool_categorized_EN.txt	ELEPHANT	Zoo	12	1	[0, 0, 0]	n/a	catFR1	1	R1541T
170.538	0.001	176578	PROB	3.634	n/a	n/a	n/a	-999	1	[6, 6, 6]	18.0	catFR1	1	R1541T
170.539	0.0	176579	START	n/a	n/a	n/a	n/a	-999	1	[-999, -999, -999]	n/a	catFR1	1	R1541T
170.538	0.001	176585	WORD_OFF	n/a	n/a	ELEPHANT	Zoo	12	1	[0, 0, 0]	n/a	catFR1	1	R1541T
170.539	0.0	176585	ENCODING_END	n/a	n/a	n/a	n/a	-999	1	[0, 0, 0]	n/a	catFR1	1	R1541T
170.539	3.65	176585	DISTRACT_START	n/a	n/a	n/a	n/a	-999	1	[0, 0, 0]	n/a	catFR1	1	R1541T
174.189	2.418	180228	PROB	2.4	n/a	n/a	n/a	-999	1	[3, 7, 1]	11.0	catFR1	1	R1541T
176.607	3.032	182646	PROB	3.015	n/a	n/a	n/a	-999	1	[4, 8, 8]	22.0	catFR1	1	R1541T
179.639	3.084	185678	PROB	3.067	n/a	n/a	n/a	-999	1	[1, 3, 1]	5.0	catFR1	1	R1541T
182.723	5.1	188762	PROB	5.083	n/a	n/a	n/a	-999	1	[7, 7, 8]	22.0	catFR1	1	R1541T
187.823	3.816	193862	PROB	3.799	n/a	n/a	n/a	-999	1	[5, 7, 2]	14.0	catFR1	1	R1541T
191.639	0.0	197678	STOP	n/a	n/a	n/a	n/a	-999	1	[-999, -999, -999]	n/a	catFR1	1	R1541T
191.639	1.75	197680	DISTRACT_END	n/a	n/a	n/a	n/a	-999	1	[0, 0, 0]	n/a	catFR1	1	R1541T
193.389	2.704	199437	REC_START	n/a	n/a	n/a	n/a	-999	1	[0, 0, 0]	n/a	catFR1	1	R1541T
196.093	1.266	202132	REC_WORD	2.704	n/a	SODA	n/a	-999	1	[0, 0, 0]	n/a	catFR1	1	R1541T
197.359	1.06	203398	REC_WORD	3.97	n/a	JUICE	Beverages	2	1	[0, 0, 0]	n/a	catFR1	1	R1541T
198.419	1.316	204458	REC_WORD	5.03	n/a	ELEPHANT	Zoo	12	1	[0, 0, 0]	n/a	catFR1	1	R1541T
199.735	1.097	205774	REC_WORD	6.346	n/a	LION	Zoo	3	1	[0, 0, 0]	n/a	catFR1	1	R1541T
200.832	1.146	206871	REC_WORD	7.443	n/a	PANDA	Zoo	4	1	[0, 0, 0]	n/a	catFR1	1	R1541T
201.978	1.108	208017	REC_WORD	8.589	n/a	SHOVEL	Tools	6	1	[0, 0, 0]	n/a	catFR1	1	R1541T
203.086	20.5	209125	REC_WORD	9.697	n/a	SAW	Tools	5	1	[0, 0, 0]	n/a	catFR1	1	R1541T
223.586	2.352	229625	REC_END	n/a	n/a	n/a	n/a	-999	1	[0, 0, 0]	n/a	catFR1	1	R1541T
225.938	10.0	231982	COUNTDOWN_START	n/a	n/a	n/a	n/a	-999	2	[0, 0, 0]	n/a	catFR1	1	R1541T
236.287	0.0	242329	COUNTDOWN_END	n/a	n/a	n/a	n/a	-999	2	[0, 0, 0]	n/a	catFR1	1	R1541T
236.287	1.884	242329	ENCODING_START	n/a	n/a	n/a	n/a	-999	2	[0, 0, 0]	n/a	catFR1	1	R1541T
238.171	1.6	244213	WORD	n/a	wordpools/wordpool_categorized_EN.txt	LADYBUG	Insects	1	2	[0, 0, 0]	n/a	catFR1	1	R1541T
239.787	1.001	245833	WORD_OFF	n/a	n/a	LADYBUG	Insects	1	2	[0, 0, 0]	n/a	catFR1	1	R1541T
240.788	1.6	246834	WORD	n/a	wordpools/wordpool_categorized_EN.txt	FLY	Insects	2	2	[0, 0, 0]	n/a	catFR1	1	R1541T
242.402	0.984	248445	WORD_OFF	n/a	n/a	FLY	Insects	2	2	[0, 0, 0]	n/a	catFR1	1	R1541T
243.386	1.6	249428	WORD	n/a	wordpools/wordpool_categorized_EN.txt	ZEBRA	Zoo	3	2	[0, 0, 0]	n/a	catFR1	1	R1541T
244.987	0.784	251030	WORD_OFF	n/a	n/a	ZEBRA	Zoo	3	2	[0, 0, 0]	n/a	catFR1	1	R1541T
245.771	1.6	251813	WORD	n/a	wordpools/wordpool_categorized_EN.txt	CHIMPANZEE	Zoo	4	2	[0, 0, 0]	n/a	catFR1	1	R1541T
247.387	0.783	253433	WORD_OFF	n/a	n/a	CHIMPANZEE	Zoo	4	2	[0, 0, 0]	n/a	catFR1	1	R1541T
248.17	1.6	254215	WORD	n/a	wordpools/wordpool_categorized_EN.txt	SPRUCE	Trees	5	2	[0, 0, 0]	n/a	catFR1	1	R1541T
249.771	0.833	255817	WORD_OFF	n/a	n/a	SPRUCE	Trees	5	2	[0, 0, 0]	n/a	catFR1	1	R1541T
250.604	1.6	256645	WORD	n/a	wordpools/wordpool_categorized_EN.txt	HICKORY	Trees	6	2	[0, 0, 0]	n/a	catFR1	1	R1541T
252.204	0.934	258247	WORD_OFF	n/a	n/a	HICKORY	Trees	6	2	[0, 0, 0]	n/a	catFR1	1	R1541T
253.138	1.6	259184	WORD	n/a	wordpools/wordpool_categorized_EN.txt	MOTH	Insects	7	2	[0, 0, 0]	n/a	catFR1	1	R1541T
254.753	0.851	260795	WORD_OFF	n/a	n/a	MOTH	Insects	7	2	[0, 0, 0]	n/a	catFR1	1	R1541T
255.604	1.6	261642	WORD	n/a	wordpools/wordpool_categorized_EN.txt	BUTTERFLY	Insects	8	2	[0, 0, 0]	n/a	catFR1	1	R1541T
257.22	0.766	263262	WORD_OFF	n/a	n/a	BUTTERFLY	Insects	8	2	[0, 0, 0]	n/a	catFR1	1	R1541T
257.986	1.6	264026	WORD	n/a	wordpools/wordpool_categorized_EN.txt	CHEETAH	Zoo	9	2	[0, 0, 0]	n/a	catFR1	1	R1541T
259.587	0.95	265628	WORD_OFF	n/a	n/a	CHEETAH	Zoo	9	2	[0, 0, 0]	n/a	catFR1	1	R1541T
260.537	1.6	266574	WORD	n/a	wordpools/wordpool_categorized_EN.txt	ORANGUTAN	Zoo	10	2	[0, 0, 0]	n/a	catFR1	1	R1541T
262.137	0.784	268176	WORD_OFF	n/a	n/a	ORANGUTAN	Zoo	10	2	[0, 0, 0]	n/a	catFR1	1	R1541T
262.921	1.6	268959	WORD	n/a	wordpools/wordpool_categorized_EN.txt	WILLOW	Trees	11	2	[0, 0, 0]	n/a	catFR1	1	R1541T
264.537	0.884	270579	WORD_OFF	n/a	n/a	WILLOW	Trees	11	2	[0, 0, 0]	n/a	catFR1	1	R1541T
265.421	1.6	271462	WORD	n/a	wordpools/wordpool_categorized_EN.txt	BIRCH	Trees	12	2	[0, 0, 0]	n/a	catFR1	1	R1541T
267.037	0.001	273074	PROB	3.566	n/a	n/a	n/a	-999	2	[2, 7, 3]	12.0	catFR1	1	R1541T
267.038	0.0	273075	START	n/a	n/a	n/a	n/a	-999	2	[-999, -999, -999]	n/a	catFR1	1	R1541T
267.036	0.002	273081	WORD_OFF	n/a	n/a	BIRCH	Trees	12	2	[0, 0, 0]	n/a	catFR1	1	R1541T
267.038	0.0	273081	ENCODING_END	n/a	n/a	n/a	n/a	-999	2	[0, 0, 0]	n/a	catFR1	1	R1541T
267.038	3.583	273081	DISTRACT_START	n/a	n/a	n/a	n/a	-999	2	[0, 0, 0]	n/a	catFR1	1	R1541T
270.621	4.316	276658	PROB	4.3	n/a	n/a	n/a	-999	2	[7, 4, 6]	17.0	catFR1	1	R1541T
274.937	2.766	280974	PROB	2.748	n/a	n/a	n/a	-999	2	[5, 8, 2]	15.0	catFR1	1	R1541T
277.703	3.435	283740	PROB	3.417	n/a	n/a	n/a	-999	2	[3, 4, 3]	10.0	catFR1	1	R1541T
281.138	2.733	287175	PROB	2.716	n/a	n/a	n/a	-999	2	[6, 1, 7]	14.0	catFR1	1	R1541T
283.871	3.766	289907	PROB	3.749	n/a	n/a	n/a	-999	2	[6, 8, 2]	16.0	catFR1	1	R1541T
287.637	0.0	293673	STOP	n/a	n/a	n/a	n/a	-999	2	[-999, -999, -999]	n/a	catFR1	1	R1541T
287.637	1.751	293677	DISTRACT_END	n/a	n/a	n/a	n/a	-999	2	[0, 0, 0]	n/a	catFR1	1	R1541T
289.388	1.442	295433	REC_START	n/a	n/a	n/a	n/a	-999	2	[0, 0, 0]	n/a	catFR1	1	R1541T
290.83	1.0	296866	REC_WORD	1.442	n/a	ORANGUTAN	Zoo	10	2	[0, 0, 0]	n/a	catFR1	1	R1541T
291.83	0.994	297866	REC_WORD_VV	2.442	n/a	<>	n/a	-999	2	[0, 0, 0]	n/a	catFR1	1	R1541T
292.824	1.449	298860	REC_WORD	3.436	n/a	ELEPHANT	Zoo	-999	2	[0, 0, 0]	n/a	catFR1	1	R1541T
294.273	1.0	300309	REC_WORD	4.885	n/a	CHIMPANZEE	Zoo	4	2	[0, 0, 0]	n/a	catFR1	1	R1541T
295.273	2.684	301309	REC_WORD_VV	5.885	n/a	<>	n/a	-999	2	[0, 0, 0]	n/a	catFR1	1	R1541T
297.957	0.887	303993	REC_WORD	8.569	n/a	ASH	n/a	-999	2	[0, 0, 0]	n/a	catFR1	1	R1541T
298.844	1.0	304880	REC_WORD	9.456	n/a	SPRUCE	Trees	5	2	[0, 0, 0]	n/a	catFR1	1	R1541T
299.844	14.992	305880	REC_WORD_VV	10.456	n/a	<>	n/a	-999	2	[0, 0, 0]	n/a	catFR1	1	R1541T
314.836	4.755	320872	REC_WORD	25.448	n/a	SODA	n/a	-999	2	[0, 0, 0]	n/a	catFR1	1	R1541T
319.591	1.212	325630	REC_END	n/a	n/a	n/a	n/a	-999	2	[0, 0, 0]	n/a	catFR1	1	R1541T
320.803	10.0	326850	COUNTDOWN_START	n/a	n/a	n/a	n/a	-999	3	[0, 0, 0]	n/a	catFR1	1	R1541T
331.151	0.001	337188	COUNTDOWN_END	n/a	n/a	n/a	n/a	-999	3	[0, 0, 0]	n/a	catFR1	1	R1541T
331.152	2.117	337197	ENCODING_START	n/a	n/a	n/a	n/a	-999	3	[0, 0, 0]	n/a	catFR1	1	R1541T
333.269	1.6	339309	WORD	n/a	wordpools/wordpool_categorized_EN.txt	KNIFE	KitchenTools	1	3	[0, 0, 0]	n/a	catFR1	1	R1541T
334.869	0.981	340911	WORD_OFF	n/a	n/a	KNIFE	KitchenTools	1	3	[0, 0, 0]	n/a	catFR1	1	R1541T
335.85	1.6	341893	WORD	n/a	wordpools/wordpool_categorized_EN.txt	WHISK	KitchenTools	2	3	[0, 0, 0]	n/a	catFR1	1	R1541T
337.452	0.967	343495	WORD_OFF	n/a	n/a	WHISK	KitchenTools	2	3	[0, 0, 0]	n/a	catFR1	1	R1541T
338.419	1.6	344460	WORD	n/a	wordpools/wordpool_categorized_EN.txt	CREEK	Landscapes	3	3	[0, 0, 0]	n/a	catFR1	1	R1541T
340.035	0.816	346071	WORD_OFF	n/a	n/a	CREEK	Landscapes	3	3	[0, 0, 0]	n/a	catFR1	1	R1541T
340.851	1.6	346890	WORD	n/a	wordpools/wordpool_categorized_EN.txt	MOUNTAIN	Landscapes	4	3	[0, 0, 0]	n/a	catFR1	1	R1541T
342.452	0.833	348492	WORD_OFF	n/a	n/a	MOUNTAIN	Landscapes	4	3	[0, 0, 0]	n/a	catFR1	1	R1541T
343.285	1.6	349329	WORD	n/a	wordpools/wordpool_categorized_EN.txt	BEETLE	Insects	5	3	[0, 0, 0]	n/a	catFR1	1	R1541T
344.902	0.967	350940	WORD_OFF	n/a	n/a	BEETLE	Insects	5	3	[0, 0, 0]	n/a	catFR1	1	R1541T
345.869	1.6	351904	WORD	n/a	wordpools/wordpool_categorized_EN.txt	ROACH	Insects	6	3	[0, 0, 0]	n/a	catFR1	1	R1541T
347.484	0.767	353524	WORD_OFF	n/a	n/a	ROACH	Insects	6	3	[0, 0, 0]	n/a	catFR1	1	R1541T
348.251	1.6	354289	WORD	n/a	wordpools/wordpool_categorized_EN.txt	WOODS	Landscapes	7	3	[0, 0, 0]	n/a	catFR1	1	R1541T
349.851	0.934	355891	WORD_OFF	n/a	n/a	WOODS	Landscapes	7	3	[0, 0, 0]	n/a	catFR1	1	R1541T
350.785	1.6	356828	WORD	n/a	wordpools/wordpool_categorized_EN.txt	LAKE	Landscapes	8	3	[0, 0, 0]	n/a	catFR1	1	R1541T
352.402	0.983	358439	WORD_OFF	n/a	n/a	LAKE	Landscapes	8	3	[0, 0, 0]	n/a	catFR1	1	R1541T
353.385	1.6	359422	WORD	n/a	wordpools/wordpool_categorized_EN.txt	SPATULA	KitchenTools	9	3	[0, 0, 0]	n/a	catFR1	1	R1541T
355.002	0.983	361042	WORD_OFF	n/a	n/a	SPATULA	KitchenTools	9	3	[0, 0, 0]	n/a	catFR1	1	R1541T
355.985	1.6	362025	WORD	n/a	wordpools/wordpool_categorized_EN.txt	PEELER	KitchenTools	10	3	[0, 0, 0]	n/a	catFR1	1	R1541T
357.602	0.8	363645	WORD_OFF	n/a	n/a	PEELER	KitchenTools	10	3	[0, 0, 0]	n/a	catFR1	1	R1541T
358.402	1.6	364436	WORD	n/a	wordpools/wordpool_categorized_EN.txt	CRICKET	Insects	11	3	[0, 0, 0]	n/a	catFR1	1	R1541T
360.018	0.799	366056	WORD_OFF	n/a	n/a	CRICKET	Insects	11	3	[0, 0, 0]	n/a	catFR1	1	R1541T
360.817	1.6	366857	WORD	n/a	wordpools/wordpool_categorized_EN.txt	BEE	Insects	12	3	[0, 0, 0]	n/a	catFR1	1	R1541T
362.419	0.001	368453	PROB	4.033	n/a	n/a	n/a	-999	3	[8, 2, 2]	12.0	catFR1	1	R1541T
362.42	0.0	368454	START	n/a	n/a	n/a	n/a	-999	3	[-999, -999, -999]	n/a	catFR1	1	R1541T
362.418	0.002	368459	WORD_OFF	n/a	n/a	BEE	Insects	12	3	[0, 0, 0]	n/a	catFR1	1	R1541T
362.42	0.0	368459	ENCODING_END	n/a	n/a	n/a	n/a	-999	3	[0, 0, 0]	n/a	catFR1	1	R1541T
362.42	4.048	368459	DISTRACT_START	n/a	n/a	n/a	n/a	-999	3	[0, 0, 0]	n/a	catFR1	1	R1541T
366.468	2.735	372502	PROB	2.716	n/a	n/a	n/a	-999	3	[3, 6, 2]	11.0	catFR1	1	R1541T
369.203	3.015	375237	PROB	2.999	n/a	n/a	n/a	-999	3	[1, 6, 8]	15.0	catFR1	1	R1541T
372.218	2.616	378252	PROB	2.6	n/a	n/a	n/a	-999	3	[5, 3, 2]	10.0	catFR1	1	R1541T
374.834	2.784	380868	PROB	2.767	n/a	n/a	n/a	-999	3	[6, 7, 4]	17.0	catFR1	1	R1541T
377.618	3.25	383652	PROB	3.233	n/a	n/a	n/a	-999	3	[1, 1, 8]	10.0	catFR1	1	R1541T
380.868	2.6	386902	PROB	2.583	n/a	n/a	n/a	-999	3	[5, 3, 3]	11.0	catFR1	1	R1541T
383.468	0.0	389502	STOP	n/a	n/a	n/a	n/a	-999	3	[-999, -999, -999]	n/a	catFR1	1	R1541T
383.468	1.633	389509	DISTRACT_END	n/a	n/a	n/a	n/a	-999	3	[0, 0, 0]	n/a	catFR1	1	R1541T
385.101	0.71	391139	REC_START	n/a	n/a	n/a	n/a	-999	3	[0, 0, 0]	n/a	catFR1	1	R1541T
385.811	0.95	391845	REC_WORD	0.71	n/a	KNIFE	KitchenTools	1	3	[0, 0, 0]	n/a	catFR1	1	R1541T
386.761	0.976	392795	REC_WORD	1.66	n/a	WHISK	KitchenTools	2	3	[0, 0, 0]	n/a	catFR1	1	R1541T
387.737	0.888	393771	REC_WORD	2.636	n/a	PEELER	KitchenTools	10	3	[0, 0, 0]	n/a	catFR1	1	R1541T
388.625	14.301	394659	REC_WORD	3.524	n/a	SPATULA	KitchenTools	9	3	[0, 0, 0]	n/a	catFR1	1	R1541T
402.926	1.0	408959	REC_WORD	17.825	n/a	LADYBUG	Insects	-999	3	[0, 0, 0]	n/a	catFR1	1	R1541T
403.926	1.657	409959	REC_WORD_VV	18.825	n/a	<>	n/a	-999	3	[0, 0, 0]	n/a	catFR1	1	R1541T
405.583	9.717	411616	REC_WORD	20.482	n/a	BEETLE	Insects	5	3	[0, 0, 0]	n/a	catFR1	1	R1541T
415.3	2.75	421335	REC_END	n/a	n/a	n/a	n/a	-999	3	[0, 0, 0]	n/a	catFR1	1	R1541T
418.05	10.0	424093	COUNTDOWN_START	n/a	n/a	n/a	n/a	-999	4	[0, 0, 0]	n/a	catFR1	1	R1541T
428.4	0.0	434441	COUNTDOWN_END	n/a	n/a	n/a	n/a	-999	4	[0, 0, 0]	n/a	catFR1	1	R1541T
428.4	1.984	434441	ENCODING_START	n/a	n/a	n/a	n/a	-999	4	[0, 0, 0]	n/a	catFR1	1	R1541T
430.384	1.6	436425	WORD	n/a	wordpools/wordpool_categorized_EN.txt	BANANA	Fruit	1	4	[0, 0, 0]	n/a	catFR1	1	R1541T
431.983	0.9	438017	WORD_OFF	n/a	n/a	BANANA	Fruit	1	4	[0, 0, 0]	n/a	catFR1	1	R1541T
432.883	1.6	438918	WORD	n/a	wordpools/wordpool_categorized_EN.txt	STRAWBERRY	Fruit	2	4	[0, 0, 0]	n/a	catFR1	1	R1541T
434.483	0.767	440520	WORD_OFF	n/a	n/a	STRAWBERRY	Fruit	2	4	[0, 0, 0]	n/a	catFR1	1	R1541T
435.25	1.6	441285	WORD	n/a	wordpools/wordpool_categorized_EN.txt	MOPED	Vehicles	3	4	[0, 0, 0]	n/a	catFR1	1	R1541T
436.866	0.816	442904	WORD_OFF	n/a	n/a	MOPED	Vehicles	3	4	[0, 0, 0]	n/a	catFR1	1	R1541T
437.682	1.6	443714	WORD	n/a	wordpools/wordpool_categorized_EN.txt	CAR	Vehicles	4	4	[0, 0, 0]	n/a	catFR1	1	R1541T
439.282	0.901	445316	WORD_OFF	n/a	n/a	CAR	Vehicles	4	4	[0, 0, 0]	n/a	catFR1	1	R1541T
440.183	1.6	446217	WORD	n/a	wordpools/wordpool_categorized_EN.txt	PIE	Desserts	5	4	[0, 0, 0]	n/a	catFR1	1	R1541T
441.799	0.868	447837	WORD_OFF	n/a	n/a	PIE	Desserts	5	4	[0, 0, 0]	n/a	catFR1	1	R1541T
442.667	1.6	448702	WORD	n/a	wordpools/wordpool_categorized_EN.txt	COOKIE	Desserts	6	4	[0, 0, 0]	n/a	catFR1	1	R1541T
444.283	0.983	450322	WORD_OFF	n/a	n/a	COOKIE	Desserts	6	4	[0, 0, 0]	n/a	catFR1	1	R1541T
445.266	1.6	451305	WORD	n/a	wordpools/wordpool_categorized_EN.txt	PEACH	Fruit	7	4	[0, 0, 0]	n/a	catFR1	1	R1541T
446.883	0.8	452916	WORD_OFF	n/a	n/a	PEACH	Fruit	7	4	[0, 0, 0]	n/a	catFR1	1	R1541T
447.683	1.6	453716	WORD	n/a	wordpools/wordpool_categorized_EN.txt	PEAR	Fruit	8	4	[0, 0, 0]	n/a	catFR1	1	R1541T
449.283	0.849	455318	WORD_OFF	n/a	n/a	PEAR	Fruit	8	4	[0, 0, 0]	n/a	catFR1	1	R1541T
450.132	1.6	456165	WORD	n/a	wordpools/wordpool_categorized_EN.txt	SCOOTER	Vehicles	9	4	[0, 0, 0]	n/a	catFR1	1	R1541T
451.733	0.883	457766	WORD_OFF	n/a	n/a	SCOOTER	Vehicles	9	4	[0, 0, 0]	n/a	catFR1	1	R1541T
452.616	1.6	458649	WORD	n/a	wordpools/wordpool_categorized_EN.txt	PLANE	Vehicles	10	4	[0, 0, 0]	n/a	catFR1	1	R1541T
454.232	0.967	460269	WORD_OFF	n/a	n/a	PLANE	Vehicles	10	4	[0, 0, 0]	n/a	catFR1	1	R1541T
455.199	1.6	461234	WORD	n/a	wordpools/wordpool_categorized_EN.txt	CHEESECAKE	Desserts	11	4	[0, 0, 0]	n/a	catFR1	1	R1541T
456.816	0.9	462854	WORD_OFF	n/a	n/a	CHEESECAKE	Desserts	11	4	[0, 0, 0]	n/a	catFR1	1	R1541T
457.716	1.6	463755	WORD	n/a	wordpools/wordpool_categorized_EN.txt	COBBLER	Desserts	12	4	[0, 0, 0]	n/a	catFR1	1	R1541T
459.317	0.001	465349	PROB	2.866	n/a	n/a	n/a	-999	4	[1, 5, 3]	9.0	catFR1	1	R1541T
459.318	0.0	465350	START	n/a	n/a	n/a	n/a	-999	4	[-999, -999, -999]	n/a	catFR1	1	R1541T
459.316	0.002	465356	WORD_OFF	n/a	n/a	COBBLER	Desserts	12	4	[0, 0, 0]	n/a	catFR1	1	R1541T
459.318	0.0	465356	ENCODING_END	n/a	n/a	n/a	n/a	-999	4	[0, 0, 0]	n/a	catFR1	1	R1541T
459.318	2.882	465356	DISTRACT_START	n/a	n/a	n/a	n/a	-999	4	[0, 0, 0]	n/a	catFR1	1	R1541T
462.2	2.433	468232	PROB	2.416	n/a	n/a	n/a	-999	4	[1, 1, 6]	8.0	catFR1	1	R1541T
464.633	2.917	470665	PROB	2.9	n/a	n/a	n/a	-999	4	[8, 6, 5]	19.0	catFR1	1	R1541T
467.55	2.583	473581	PROB	2.566	n/a	n/a	n/a	-999	4	[3, 4, 8]	15.0	catFR1	1	R1541T
470.133	3.033	476164	PROB	3.016	n/a	n/a	n/a	-999	4	[7, 6, 6]	19.0	catFR1	1	R1541T
473.166	2.933	479197	PROB	2.915	n/a	n/a	n/a	-999	4	[7, 5, 1]	13.0	catFR1	1	R1541T
476.099	3.617	482130	PROB	3.6	n/a	n/a	n/a	-999	4	[4, 7, 8]	19.0	catFR1	1	R1541T
479.716	0.0	485747	STOP	n/a	n/a	n/a	n/a	-999	4	[-999, -999, -999]	n/a	catFR1	1	R1541T
479.716	1.649	485752	DISTRACT_END	n/a	n/a	n/a	n/a	-999	4	[0, 0, 0]	n/a	catFR1	1	R1541T
481.365	0.83	487399	REC_START	n/a	n/a	n/a	n/a	-999	4	[0, 0, 0]	n/a	catFR1	1	R1541T
482.195	0.815	488226	REC_WORD	0.83	n/a	MOPED	Vehicles	3	4	[0, 0, 0]	n/a	catFR1	1	R1541T
483.01	3.773	489041	REC_WORD	1.645	n/a	SCOOTER	Vehicles	9	4	[0, 0, 0]	n/a	catFR1	1	R1541T
486.783	1.279	492814	REC_WORD	5.418	n/a	BIKE	n/a	-999	4	[0, 0, 0]	n/a	catFR1	1	R1541T
488.062	3.402	494093	REC_WORD	6.697	n/a	BANANA	Fruit	1	4	[0, 0, 0]	n/a	catFR1	1	R1541T
491.464	20.096	497495	REC_WORD	10.099	n/a	STRAWBERRY	Fruit	2	4	[0, 0, 0]	n/a	catFR1	1	R1541T
511.56	1.838	517596	REC_END	n/a	n/a	n/a	n/a	-999	4	[0, 0, 0]	n/a	catFR1	1	R1541T
513.398	10.0	519434	COUNTDOWN_START	n/a	n/a	n/a	n/a	-999	5	[0, 0, 0]	n/a	catFR1	1	R1541T
523.748	0.0	529782	COUNTDOWN_END	n/a	n/a	n/a	n/a	-999	5	[0, 0, 0]	n/a	catFR1	1	R1541T
523.748	2.199	529782	ENCODING_START	n/a	n/a	n/a	n/a	-999	5	[0, 0, 0]	n/a	catFR1	1	R1541T
525.947	1.6	531984	WORD	n/a	wordpools/wordpool_categorized_EN.txt	SCANNER	Electronics	1	5	[0, 0, 0]	n/a	catFR1	1	R1541T
527.564	0.899	533595	WORD_OFF	n/a	n/a	SCANNER	Electronics	1	5	[0, 0, 0]	n/a	catFR1	1	R1541T
528.463	1.6	534496	WORD	n/a	wordpools/wordpool_categorized_EN.txt	PRINTER	Electronics	2	5	[0, 0, 0]	n/a	catFR1	1	R1541T
530.064	0.966	536098	WORD_OFF	n/a	n/a	PRINTER	Electronics	2	5	[0, 0, 0]	n/a	catFR1	1	R1541T
531.03	1.6	537063	WORD	n/a	wordpools/wordpool_categorized_EN.txt	PANTS	Clothing	3	5	[0, 0, 0]	n/a	catFR1	1	R1541T
532.631	0.866	538664	WORD_OFF	n/a	n/a	PANTS	Clothing	3	5	[0, 0, 0]	n/a	catFR1	1	R1541T
533.497	1.6	539529	WORD	n/a	wordpools/wordpool_categorized_EN.txt	SHOES	Clothing	4	5	[0, 0, 0]	n/a	catFR1	1	R1541T
535.097	0.983	541131	WORD_OFF	n/a	n/a	SHOES	Clothing	4	5	[0, 0, 0]	n/a	catFR1	1	R1541T
536.08	1.6	542114	WORD	n/a	wordpools/wordpool_categorized_EN.txt	DRUM	Instruments	5	5	[0, 0, 0]	n/a	catFR1	1	R1541T
537.681	0.833	543715	WORD_OFF	n/a	n/a	DRUM	Instruments	5	5	[0, 0, 0]	n/a	catFR1	1	R1541T
538.514	1.6	544553	WORD	n/a	wordpools/wordpool_categorized_EN.txt	TUBA	Instruments	6	5	[0, 0, 0]	n/a	catFR1	1	R1541T
540.131	0.85	546163	WORD_OFF	n/a	n/a	TUBA	Instruments	6	5	[0, 0, 0]	n/a	catFR1	1	R1541T
540.981	1.6	547019	WORD	n/a	wordpools/wordpool_categorized_EN.txt	PHONE	Electronics	7	5	[0, 0, 0]	n/a	catFR1	1	R1541T
542.597	0.866	548630	WORD_OFF	n/a	n/a	PHONE	Electronics	7	5	[0, 0, 0]	n/a	catFR1	1	R1541T
543.463	1.6	549494	WORD	n/a	wordpools/wordpool_categorized_EN.txt	HEADPHONES	Electronics	8	5	[0, 0, 0]	n/a	catFR1	1	R1541T
545.064	0.983	551096	WORD_OFF	n/a	n/a	HEADPHONES	Electronics	8	5	[0, 0, 0]	n/a	catFR1	1	R1541T
546.047	1.6	552079	WORD	n/a	wordpools/wordpool_categorized_EN.txt	JEANS	Clothing	9	5	[0, 0, 0]	n/a	catFR1	1	R1541T
547.663	0.918	553699	WORD_OFF	n/a	n/a	JEANS	Clothing	9	5	[0, 0, 0]	n/a	catFR1	1	R1541T
548.581	1.6	554618	WORD	n/a	wordpools/wordpool_categorized_EN.txt	SKIRT	Clothing	10	5	[0, 0, 0]	n/a	catFR1	1	R1541T
550.197	0.916	556229	WORD_OFF	n/a	n/a	SKIRT	Clothing	10	5	[0, 0, 0]	n/a	catFR1	1	R1541T
551.113	1.6	557148	WORD	n/a	wordpools/wordpool_categorized_EN.txt	PIANO	Instruments	11	5	[0, 0, 0]	n/a	catFR1	1	R1541T
552.714	0.983	558750	WORD_OFF	n/a	n/a	PIANO	Instruments	11	5	[0, 0, 0]	n/a	catFR1	1	R1541T
553.697	1.6	559733	WORD	n/a	wordpools/wordpool_categorized_EN.txt	FLUTE	Instruments	12	5	[0, 0, 0]	n/a	catFR1	1	R1541T
555.314	0.0	561343	PROB	4.416	n/a	n/a	n/a	-999	5	[4, 6, 8]	18.0	catFR1	1	R1541T
555.313	0.002	561344	WORD_OFF	n/a	n/a	FLUTE	Instruments	12	5	[0, 0, 0]	n/a	catFR1	1	R1541T
555.315	0.0	561344	START	n/a	n/a	n/a	n/a	-999	5	[-999, -999, -999]	n/a	catFR1	1	R1541T
555.315	0.0	561353	ENCODING_END	n/a	n/a	n/a	n/a	-999	5	[0, 0, 0]	n/a	catFR1	1	R1541T
555.315	4.432	561353	DISTRACT_START	n/a	n/a	n/a	n/a	-999	5	[0, 0, 0]	n/a	catFR1	1	R1541T
559.747	3.1	565776	PROB	3.083	n/a	n/a	n/a	-999	5	[6, 8, 7]	21.0	catFR1	1	R1541T
562.847	3.116	568876	PROB	3.1	n/a	n/a	n/a	-999	5	[5, 3, 2]	10.0	catFR1	1	R1541T
565.963	4.467	571992	PROB	4.45	n/a	n/a	n/a	-999	5	[2, 7, 6]	15.0	catFR1	1	R1541T
570.43	2.983	576459	PROB	2.966	n/a	n/a	n/a	-999	5	[7, 4, 2]	13.0	catFR1	1	R1541T
573.413	2.8	579442	PROB	2.783	n/a	n/a	n/a	-999	5	[1, 5, 1]	7.0	catFR1	1	R1541T
576.213	0.0	582242	STOP	n/a	n/a	n/a	n/a	-999	5	[-999, -999, -999]	n/a	catFR1	1	R1541T
576.213	1.634	582249	DISTRACT_END	n/a	n/a	n/a	n/a	-999	5	[0, 0, 0]	n/a	catFR1	1	R1541T
577.847	1.428	583878	REC_START	n/a	n/a	n/a	n/a	-999	5	[0, 0, 0]	n/a	catFR1	1	R1541T
579.275	1.318	585303	REC_WORD	1.428	n/a	TUBA	Instruments	6	5	[0, 0, 0]	n/a	catFR1	1	R1541T
580.593	3.873	586621	REC_WORD	2.746	n/a	DRUM	Instruments	5	5	[0, 0, 0]	n/a	catFR1	1	R1541T
584.466	17.161	590494	REC_WORD	6.619	n/a	FLUTE	Instruments	12	5	[0, 0, 0]	n/a	catFR1	1	R1541T
601.627	0.841	607655	REC_WORD	23.78	n/a	TELEPHONE	n/a	-999	5	[0, 0, 0]	n/a	catFR1	1	R1541T
602.468	4.357	608496	REC_WORD	24.621	n/a	PHONE	Electronics	7	5	[0, 0, 0]	n/a	catFR1	1	R1541T
606.825	0.908	612853	REC_WORD	28.978	n/a	SCANNER	Electronics	1	5	[0, 0, 0]	n/a	catFR1	1	R1541T
607.733	0.302	613761	REC_WORD	29.886	n/a	PRINTER	Electronics	2	5	[0, 0, 0]	n/a	catFR1	1	R1541T
608.035	1.961	614065	REC_END	n/a	n/a	n/a	n/a	-999	5	[0, 0, 0]	n/a	catFR1	1	R1541T
609.996	10.0	616031	COUNTDOWN_START	n/a	n/a	n/a	n/a	-999	6	[0, 0, 0]	n/a	catFR1	1	R1541T
620.346	0.0	626379	COUNTDOWN_END	n/a	n/a	n/a	n/a	-999	6	[0, 0, 0]	n/a	catFR1	1	R1541T
620.346	2.266	626379	ENCODING_START	n/a	n/a	n/a	n/a	-999	6	[0, 0, 0]	n/a	catFR1	1	R1541T
622.612	1.6	628645	WORD	n/a	wordpools/wordpool_categorized_EN.txt	JACKET	Clothing	1	6	[0, 0, 0]	n/a	catFR1	1	R1541T
624.228	0.901	630256	WORD_OFF	n/a	n/a	JACKET	Clothing	1	6	[0, 0, 0]	n/a	catFR1	1	R1541T
625.129	1.6	631157	WORD	n/a	wordpools/wordpool_categorized_EN.txt	SOCKS	Clothing	2	6	[0, 0, 0]	n/a	catFR1	1	R1541T
626.746	0.849	632777	WORD_OFF	n/a	n/a	SOCKS	Clothing	2	6	[0, 0, 0]	n/a	catFR1	1	R1541T
627.595	1.6	633623	WORD	n/a	wordpools/wordpool_categorized_EN.txt	PIG	FarmAnimals	3	6	[0, 0, 0]	n/a	catFR1	1	R1541T
629.212	0.899	635243	WORD_OFF	n/a	n/a	PIG	FarmAnimals	3	6	[0, 0, 0]	n/a	catFR1	1	R1541T
630.111	1.6	636144	WORD	n/a	wordpools/wordpool_categorized_EN.txt	HORSE	FarmAnimals	4	6	[0, 0, 0]	n/a	catFR1	1	R1541T
631.711	0.884	637746	WORD_OFF	n/a	n/a	HORSE	FarmAnimals	4	6	[0, 0, 0]	n/a	catFR1	1	R1541T
632.595	1.6	638629	WORD	n/a	wordpools/wordpool_categorized_EN.txt	CABBAGE	Vegetables	5	6	[0, 0, 0]	n/a	catFR1	1	R1541T
634.212	0.883	640240	WORD_OFF	n/a	n/a	CABBAGE	Vegetables	5	6	[0, 0, 0]	n/a	catFR1	1	R1541T
635.095	1.6	641131	WORD	n/a	wordpools/wordpool_categorized_EN.txt	CARROT	Vegetables	6	6	[0, 0, 0]	n/a	catFR1	1	R1541T
636.712	0.866	642742	WORD_OFF	n/a	n/a	CARROT	Vegetables	6	6	[0, 0, 0]	n/a	catFR1	1	R1541T
637.578	1.6	643607	WORD	n/a	wordpools/wordpool_categorized_EN.txt	COW	FarmAnimals	7	6	[0, 0, 0]	n/a	catFR1	1	R1541T
639.193	0.969	645227	WORD_OFF	n/a	n/a	COW	FarmAnimals	7	6	[0, 0, 0]	n/a	catFR1	1	R1541T
640.162	1.6	646192	WORD	n/a	wordpools/wordpool_categorized_EN.txt	CALF	FarmAnimals	8	6	[0, 0, 0]	n/a	catFR1	1	R1541T
641.778	0.95	647812	WORD_OFF	n/a	n/a	CALF	FarmAnimals	8	6	[0, 0, 0]	n/a	catFR1	1	R1541T
642.728	1.6	648758	WORD	n/a	wordpools/wordpool_categorized_EN.txt	ONION	Vegetables	9	6	[0, 0, 0]	n/a	catFR1	1	R1541T
644.328	0.967	650360	WORD_OFF	n/a	n/a	ONION	Vegetables	9	6	[0, 0, 0]	n/a	catFR1	1	R1541T
645.295	1.6	651324	WORD	n/a	wordpools/wordpool_categorized_EN.txt	POTATO	Vegetables	10	6	[0, 0, 0]	n/a	catFR1	1	R1541T
646.895	0.816	652926	WORD_OFF	n/a	n/a	POTATO	Vegetables	10	6	[0, 0, 0]	n/a	catFR1	1	R1541T
647.711	1.6	653745	WORD	n/a	wordpools/wordpool_categorized_EN.txt	UNDERWEAR	Clothing	11	6	[0, 0, 0]	n/a	catFR1	1	R1541T
649.328	0.883	655356	WORD_OFF	n/a	n/a	UNDERWEAR	Clothing	11	6	[0, 0, 0]	n/a	catFR1	1	R1541T
650.211	1.6	656239	WORD	n/a	wordpools/wordpool_categorized_EN.txt	COAT	Clothing	12	6	[0, 0, 0]	n/a	catFR1	1	R1541T
651.812	0.001	657839	PROB	4.083	n/a	n/a	n/a	-999	6	[3, 8, 3]	14.0	catFR1	1	R1541T
651.813	0.0	657840	START	n/a	n/a	n/a	n/a	-999	6	[-999, -999, -999]	n/a	catFR1	1	R1541T
651.812	0.001	657841	WORD_OFF	n/a	n/a	COAT	Clothing	12	6	[0, 0, 0]	n/a	catFR1	1	R1541T
651.813	0.0	657841	ENCODING_END	n/a	n/a	n/a	n/a	-999	6	[0, 0, 0]	n/a	catFR1	1	R1541T
651.813	4.098	657850	DISTRACT_START	n/a	n/a	n/a	n/a	-999	6	[0, 0, 0]	n/a	catFR1	1	R1541T
655.911	3.167	661937	PROB	3.15	n/a	n/a	n/a	-999	6	[6, 6, 2]	14.0	catFR1	1	R1541T
659.078	2.633	665104	PROB	2.616	n/a	n/a	n/a	-999	6	[7, 3, 7]	17.0	catFR1	1	R1541T
661.711	4.068	667737	PROB	4.049	n/a	n/a	n/a	-999	6	[2, 7, 1]	10.0	catFR1	1	R1541T
665.779	2.516	671805	PROB	2.499	n/a	n/a	n/a	-999	6	[3, 4, 2]	9.0	catFR1	1	R1541T
668.295	3.548	674321	PROB	3.532	n/a	n/a	n/a	-999	6	[6, 4, 8]	18.0	catFR1	1	R1541T
671.843	0.0	677869	STOP	n/a	n/a	n/a	n/a	-999	6	[-999, -999, -999]	n/a	catFR1	1	R1541T
671.843	1.551	677872	DISTRACT_END	n/a	n/a	n/a	n/a	-999	6	[0, 0, 0]	n/a	catFR1	1	R1541T
673.394	0.846	679428	REC_START	n/a	n/a	n/a	n/a	-999	6	[0, 0, 0]	n/a	catFR1	1	R1541T
674.24	0.931	680266	REC_WORD	0.846	n/a	JACKET	Clothing	1	6	[0, 0, 0]	n/a	catFR1	1	R1541T
675.171	1.277	681197	REC_WORD	1.777	n/a	SOCKS	Clothing	2	6	[0, 0, 0]	n/a	catFR1	1	R1541T
676.448	1.117	682474	REC_WORD	3.054	n/a	UNDERWEAR	Clothing	11	6	[0, 0, 0]	n/a	catFR1	1	R1541T
677.565	7.302	683591	REC_WORD	4.171	n/a	COAT	Clothing	12	6	[0, 0, 0]	n/a	catFR1	1	R1541T
684.867	6.57	690893	REC_WORD	11.473	n/a	PIG	FarmAnimals	3	6	[0, 0, 0]	n/a	catFR1	1	R1541T
691.437	12.16	697462	REC_WORD	18.043	n/a	HORSE	FarmAnimals	4	6	[0, 0, 0]	n/a	catFR1	1	R1541T
703.597	1.963	709625	REC_END	n/a	n/a	n/a	n/a	-999	6	[0, 0, 0]	n/a	catFR1	1	R1541T
705.56	10.0	711591	COUNTDOWN_START	n/a	n/a	n/a	n/a	-999	7	[0, 0, 0]	n/a	catFR1	1	R1541T
715.909	0.0	721938	COUNTDOWN_END	n/a	n/a	n/a	n/a	-999	7	[0, 0, 0]	n/a	catFR1	1	R1541T
715.909	1.984	721938	ENCODING_START	n/a	n/a	n/a	n/a	-999	7	[0, 0, 0]	n/a	catFR1	1	R1541T
717.893	1.6	723922	WORD	n/a	wordpools/wordpool_categorized_EN.txt	JELLYFISH	OceanAnimals	1	7	[0, 0, 0]	n/a	catFR1	1	R1541T
719.51	0.966	725542	WORD_OFF	n/a	n/a	JELLYFISH	OceanAnimals	1	7	[0, 0, 0]	n/a	catFR1	1	R1541T
720.476	1.6	726507	WORD	n/a	wordpools/wordpool_categorized_EN.txt	OYSTER	OceanAnimals	2	7	[0, 0, 0]	n/a	catFR1	1	R1541T
722.093	0.833	728118	WORD_OFF	n/a	n/a	OYSTER	OceanAnimals	2	7	[0, 0, 0]	n/a	catFR1	1	R1541T
722.926	1.6	728955	WORD	n/a	wordpools/wordpool_categorized_EN.txt	STAIRS	Building	3	7	[0, 0, 0]	n/a	catFR1	1	R1541T
724.526	0.917	730557	WORD_OFF	n/a	n/a	STAIRS	Building	3	7	[0, 0, 0]	n/a	catFR1	1	R1541T
725.443	1.6	731476	WORD	n/a	wordpools/wordpool_categorized_EN.txt	ROOF	Building	4	7	[0, 0, 0]	n/a	catFR1	1	R1541T
727.043	0.916	733069	WORD_OFF	n/a	n/a	ROOF	Building	4	7	[0, 0, 0]	n/a	catFR1	1	R1541T
727.959	1.6	733988	WORD	n/a	wordpools/wordpool_categorized_EN.txt	BASS	Instruments	5	7	[0, 0, 0]	n/a	catFR1	1	R1541T
729.56	0.915	735590	WORD_OFF	n/a	n/a	BASS	Instruments	5	7	[0, 0, 0]	n/a	catFR1	1	R1541T
730.475	1.6	736500	WORD	n/a	wordpools/wordpool_categorized_EN.txt	TROMBONE	Instruments	6	7	[0, 0, 0]	n/a	catFR1	1	R1541T
732.093	0.966	738120	WORD_OFF	n/a	n/a	TROMBONE	Instruments	6	7	[0, 0, 0]	n/a	catFR1	1	R1541T
733.059	1.6	739085	WORD	n/a	wordpools/wordpool_categorized_EN.txt	FLOOR	Building	7	7	[0, 0, 0]	n/a	catFR1	1	R1541T
734.659	0.834	740686	WORD_OFF	n/a	n/a	FLOOR	Building	7	7	[0, 0, 0]	n/a	catFR1	1	R1541T
735.493	1.6	741524	WORD	n/a	wordpools/wordpool_categorized_EN.txt	ROOM	Building	8	7	[0, 0, 0]	n/a	catFR1	1	R1541T
737.109	0.983	743144	WORD_OFF	n/a	n/a	ROOM	Building	8	7	[0, 0, 0]	n/a	catFR1	1	R1541T
738.092	1.6	744117	WORD	n/a	wordpools/wordpool_categorized_EN.txt	BANJO	Instruments	9	7	[0, 0, 0]	n/a	catFR1	1	R1541T
739.693	0.816	745719	WORD_OFF	n/a	n/a	BANJO	Instruments	9	7	[0, 0, 0]	n/a	catFR1	1	R1541T
740.509	1.6	746538	WORD	n/a	wordpools/wordpool_categorized_EN.txt	CELLO	Instruments	10	7	[0, 0, 0]	n/a	catFR1	1	R1541T
742.125	0.968	748158	WORD_OFF	n/a	n/a	CELLO	Instruments	10	7	[0, 0, 0]	n/a	catFR1	1	R1541T
743.093	1.6	749123	WORD	n/a	wordpools/wordpool_categorized_EN.txt	CRAB	OceanAnimals	11	7	[0, 0, 0]	n/a	catFR1	1	R1541T
744.707	0.902	750734	WORD_OFF	n/a	n/a	CRAB	OceanAnimals	11	7	[0, 0, 0]	n/a	catFR1	1	R1541T
745.609	1.6	751635	WORD	n/a	wordpools/wordpool_categorized_EN.txt	LOBSTER	OceanAnimals	12	7	[0, 0, 0]	n/a	catFR1	1	R1541T
747.227	0.001	753251	PROB	3.849	n/a	n/a	n/a	-999	7	[4, 6, 7]	17.0	catFR1	1	R1541T
747.228	0.0	753252	START	n/a	n/a	n/a	n/a	-999	7	[-999, -999, -999]	n/a	catFR1	1	R1541T
747.226	0.001	753255	WORD_OFF	n/a	n/a	LOBSTER	OceanAnimals	12	7	[0, 0, 0]	n/a	catFR1	1	R1541T
747.227	0.001	753255	ENCODING_END	n/a	n/a	n/a	n/a	-999	7	[0, 0, 0]	n/a	catFR1	1	R1541T
747.228	3.865	753255	DISTRACT_START	n/a	n/a	n/a	n/a	-999	7	[0, 0, 0]	n/a	catFR1	1	R1541T
751.093	3.283	757117	PROB	3.266	n/a	n/a	n/a	-999	7	[7, 1, 8]	16.0	catFR1	1	R1541T
754.376	2.783	760400	PROB	2.766	n/a	n/a	n/a	-999	7	[8, 2, 7]	17.0	catFR1	1	R1541T
757.159	5.333	763183	PROB	5.316	n/a	n/a	n/a	-999	7	[7, 6, 4]	17.0	catFR1	1	R1541T
762.492	2.582	768516	PROB	2.564	n/a	n/a	n/a	-999	7	[3, 3, 7]	13.0	catFR1	1	R1541T
765.074	3.05	771097	PROB	3.035	n/a	n/a	n/a	-999	7	[7, 1, 5]	13.0	catFR1	1	R1541T
768.124	0.0	774147	STOP	n/a	n/a	n/a	n/a	-999	7	[-999, -999, -999]	n/a	catFR1	1	R1541T
768.124	1.551	774150	DISTRACT_END	n/a	n/a	n/a	n/a	-999	7	[0, 0, 0]	n/a	catFR1	1	R1541T
769.675	1.484	775707	REC_START	n/a	n/a	n/a	n/a	-999	7	[0, 0, 0]	n/a	catFR1	1	R1541T
771.159	1.0	777182	REC_WORD	1.484	n/a	JELLYFISH	OceanAnimals	1	7	[0, 0, 0]	n/a	catFR1	1	R1541T
772.159	0.379	778182	REC_WORD_VV	2.484	n/a	<>	n/a	-999	7	[0, 0, 0]	n/a	catFR1	1	R1541T
772.538	1.147	778561	REC_WORD	2.863	n/a	OYSTER	OceanAnimals	2	7	[0, 0, 0]	n/a	catFR1	1	R1541T
773.685	1.336	779708	REC_WORD	4.01	n/a	TROMBONE	Instruments	6	7	[0, 0, 0]	n/a	catFR1	1	R1541T
775.021	6.803	781044	REC_WORD	5.346	n/a	BASS	Instruments	5	7	[0, 0, 0]	n/a	catFR1	1	R1541T
781.824	2.931	787847	REC_WORD	12.149	n/a	LOBSTER	OceanAnimals	12	7	[0, 0, 0]	n/a	catFR1	1	R1541T
784.755	11.393	790778	REC_WORD	15.08	n/a	CRAB	OceanAnimals	11	7	[0, 0, 0]	n/a	catFR1	1	R1541T
796.148	1.0	802171	REC_WORD	26.473	n/a	STAIRS	Building	3	7	[0, 0, 0]	n/a	catFR1	1	R1541T
797.148	0.637	803171	REC_WORD_VV	27.473	n/a	<>	n/a	-999	7	[0, 0, 0]	n/a	catFR1	1	R1541T
797.785	2.093	803808	REC_WORD	28.11	n/a	HOUSE	n/a	-999	7	[0, 0, 0]	n/a	catFR1	1	R1541T
799.878	1.613	805903	REC_END	n/a	n/a	n/a	n/a	-999	7	[0, 0, 0]	n/a	catFR1	1	R1541T
801.491	10.0	807523	COUNTDOWN_START	n/a	n/a	n/a	n/a	-999	8	[0, 0, 0]	n/a	catFR1	1	R1541T
811.841	0.0	817871	COUNTDOWN_END	n/a	n/a	n/a	n/a	-999	8	[0, 0, 0]	n/a	catFR1	1	R1541T
811.841	2.1	817871	ENCODING_START	n/a	n/a	n/a	n/a	-999	8	[0, 0, 0]	n/a	catFR1	1	R1541T
813.941	1.6	819964	WORD	n/a	wordpools/wordpool_categorized_EN.txt	TONGS	KitchenTools	1	8	[0, 0, 0]	n/a	catFR1	1	R1541T
815.541	0.916	821566	WORD_OFF	n/a	n/a	TONGS	KitchenTools	1	8	[0, 0, 0]	n/a	catFR1	1	R1541T
816.457	1.6	822485	WORD	n/a	wordpools/wordpool_categorized_EN.txt	COLANDER	KitchenTools	2	8	[0, 0, 0]	n/a	catFR1	1	R1541T
818.074	0.9	824096	WORD_OFF	n/a	n/a	COLANDER	KitchenTools	2	8	[0, 0, 0]	n/a	catFR1	1	R1541T
818.974	1.6	824997	WORD	n/a	wordpools/wordpool_categorized_EN.txt	FISH	OceanAnimals	3	8	[0, 0, 0]	n/a	catFR1	1	R1541T
820.59	0.884	826617	WORD_OFF	n/a	n/a	FISH	OceanAnimals	3	8	[0, 0, 0]	n/a	catFR1	1	R1541T
821.474	1.6	827500	WORD	n/a	wordpools/wordpool_categorized_EN.txt	DOLPHIN	OceanAnimals	4	8	[0, 0, 0]	n/a	catFR1	1	R1541T
823.091	0.833	829120	WORD_OFF	n/a	n/a	DOLPHIN	OceanAnimals	4	8	[0, 0, 0]	n/a	catFR1	1	R1541T
823.924	1.6	829948	WORD	n/a	wordpools/wordpool_categorized_EN.txt	PASTRY	Desserts	5	8	[0, 0, 0]	n/a	catFR1	1	R1541T
825.541	0.883	831568	WORD_OFF	n/a	n/a	PASTRY	Desserts	5	8	[0, 0, 0]	n/a	catFR1	1	R1541T
826.424	1.6	832451	WORD	n/a	wordpools/wordpool_categorized_EN.txt	BROWNIES	Desserts	6	8	[0, 0, 0]	n/a	catFR1	1	R1541T
828.04	0.917	834062	WORD_OFF	n/a	n/a	BROWNIES	Desserts	6	8	[0, 0, 0]	n/a	catFR1	1	R1541T
828.957	1.6	834981	WORD	n/a	wordpools/wordpool_categorized_EN.txt	LADLE	KitchenTools	7	8	[0, 0, 0]	n/a	catFR1	1	R1541T
830.557	0.867	836583	WORD_OFF	n/a	n/a	LADLE	KitchenTools	7	8	[0, 0, 0]	n/a	catFR1	1	R1541T
831.424	1.6	837447	WORD	n/a	wordpools/wordpool_categorized_EN.txt	SPOON	KitchenTools	8	8	[0, 0, 0]	n/a	catFR1	1	R1541T
833.041	0.983	839067	WORD_OFF	n/a	n/a	SPOON	KitchenTools	8	8	[0, 0, 0]	n/a	catFR1	1	R1541T
834.024	1.6	840050	WORD	n/a	wordpools/wordpool_categorized_EN.txt	MOUSSE	Desserts	9	8	[0, 0, 0]	n/a	catFR1	1	R1541T
835.64	0.9	841670	WORD_OFF	n/a	n/a	MOUSSE	Desserts	9	8	[0, 0, 0]	n/a	catFR1	1	R1541T
836.54	1.6	842565	WORD	n/a	wordpools/wordpool_categorized_EN.txt	FUDGE	Desserts	10	8	[0, 0, 0]	n/a	catFR1	1	R1541T
838.14	1.0	844164	WORD_OFF	n/a	n/a	FUDGE	Desserts	10	8	[0, 0, 0]	n/a	catFR1	1	R1541T
839.14	1.6	845165	WORD	n/a	wordpools/wordpool_categorized_EN.txt	OCTOPUS	OceanAnimals	11	8	[0, 0, 0]	n/a	catFR1	1	R1541T
840.757	0.9	846785	WORD_OFF	n/a	n/a	OCTOPUS	OceanAnimals	11	8	[0, 0, 0]	n/a	catFR1	1	R1541T
841.657	1.6	847686	WORD	n/a	wordpools/wordpool_categorized_EN.txt	PLANKTON	OceanAnimals	12	8	[0, 0, 0]	n/a	catFR1	1	R1541T
843.257	0.001	849278	PROB	3.833	n/a	n/a	n/a	-999	8	[2, 3, 7]	12.0	catFR1	1	R1541T
843.258	0.0	849279	START	n/a	n/a	n/a	n/a	-999	8	[-999, -999, -999]	n/a	catFR1	1	R1541T
843.257	0.001	849288	WORD_OFF	n/a	n/a	PLANKTON	OceanAnimals	12	8	[0, 0, 0]	n/a	catFR1	1	R1541T
843.258	0.0	849288	ENCODING_END	n/a	n/a	n/a	n/a	-999	8	[0, 0, 0]	n/a	catFR1	1	R1541T
843.258	3.849	849288	DISTRACT_START	n/a	n/a	n/a	n/a	-999	8	[0, 0, 0]	n/a	catFR1	1	R1541T
847.107	2.651	853128	PROB	2.633	n/a	n/a	n/a	-999	8	[1, 1, 8]	10.0	catFR1	1	R1541T
849.758	2.766	855779	PROB	2.749	n/a	n/a	n/a	-999	8	[1, 5, 2]	8.0	catFR1	1	R1541T
852.524	2.366	858545	PROB	2.349	n/a	n/a	n/a	-999	8	[4, 7, 1]	12.0	catFR1	1	R1541T
854.89	2.551	860911	PROB	2.533	n/a	n/a	n/a	-999	8	[5, 2, 1]	8.0	catFR1	1	R1541T
857.441	2.616	863462	PROB	2.599	n/a	n/a	n/a	-999	8	[8, 1, 2]	11.0	catFR1	1	R1541T
860.057	2.333	866078	PROB	2.316	n/a	n/a	n/a	-999	8	[1, 4, 7]	12.0	catFR1	1	R1541T
862.39	2.683	868411	PROB	2.666	n/a	n/a	n/a	-999	8	[1, 2, 8]	11.0	catFR1	1	R1541T
865.073	0.0	871094	STOP	n/a	n/a	n/a	n/a	-999	8	[-999, -999, -999]	n/a	catFR1	1	R1541T
865.073	1.566	871102	DISTRACT_END	n/a	n/a	n/a	n/a	-999	8	[0, 0, 0]	n/a	catFR1	1	R1541T
866.639	0.711	872668	REC_START	n/a	n/a	n/a	n/a	-999	8	[0, 0, 0]	n/a	catFR1	1	R1541T
867.35	1.0	873371	REC_WORD	0.711	n/a	OCTOPUS	OceanAnimals	11	8	[0, 0, 0]	n/a	catFR1	1	R1541T
868.35	0.256	874371	REC_WORD_VV	1.711	n/a	<>	n/a	-999	8	[0, 0, 0]	n/a	catFR1	1	R1541T
868.606	8.591	874627	REC_WORD	1.967	n/a	PLANKTON	OceanAnimals	12	8	[0, 0, 0]	n/a	catFR1	1	R1541T
877.197	1.0	883217	REC_WORD	10.558	n/a	JELLYFISH	OceanAnimals	-999	8	[0, 0, 0]	n/a	catFR1	1	R1541T
878.197	3.767	884217	REC_WORD_VV	11.558	n/a	<>	n/a	-999	8	[0, 0, 0]	n/a	catFR1	1	R1541T
881.964	3.144	887984	REC_WORD	15.325	n/a	LADLE	KitchenTools	7	8	[0, 0, 0]	n/a	catFR1	1	R1541T
885.108	4.504	891128	REC_WORD	18.469	n/a	BROWNIES	Desserts	6	8	[0, 0, 0]	n/a	catFR1	1	R1541T
889.612	7.241	895632	REC_WORD	22.973	n/a	MOUSSE	Desserts	9	8	[0, 0, 0]	n/a	catFR1	1	R1541T
896.853	1.769	902874	REC_END	n/a	n/a	n/a	n/a	-999	8	[0, 0, 0]	n/a	catFR1	1	R1541T
898.622	10.0	904648	COUNTDOWN_START	n/a	n/a	n/a	n/a	-999	9	[0, 0, 0]	n/a	catFR1	1	R1541T
908.971	0.0	914996	COUNTDOWN_END	n/a	n/a	n/a	n/a	-999	9	[0, 0, 0]	n/a	catFR1	1	R1541T
908.971	2.184	914996	ENCODING_START	n/a	n/a	n/a	n/a	-999	9	[0, 0, 0]	n/a	catFR1	1	R1541T
911.155	1.6	917180	WORD	n/a	wordpools/wordpool_categorized_EN.txt	MARBLES	Toys	1	9	[0, 0, 0]	n/a	catFR1	1	R1541T
912.772	0.983	918800	WORD_OFF	n/a	n/a	MARBLES	Toys	1	9	[0, 0, 0]	n/a	catFR1	1	R1541T
913.755	1.6	919783	WORD	n/a	wordpools/wordpool_categorized_EN.txt	PUZZLE	Toys	2	9	[0, 0, 0]	n/a	catFR1	1	R1541T
915.372	0.85	921394	WORD_OFF	n/a	n/a	PUZZLE	Toys	2	9	[0, 0, 0]	n/a	catFR1	1	R1541T
916.222	1.6	922250	WORD	n/a	wordpools/wordpool_categorized_EN.txt	VELVET	Fabric	3	9	[0, 0, 0]	n/a	catFR1	1	R1541T
917.836	0.986	923860	WORD_OFF	n/a	n/a	VELVET	Fabric	3	9	[0, 0, 0]	n/a	catFR1	1	R1541T
918.822	1.6	924843	WORD	n/a	wordpools/wordpool_categorized_EN.txt	SILK	Fabric	4	9	[0, 0, 0]	n/a	catFR1	1	R1541T
920.438	0.967	926463	WORD_OFF	n/a	n/a	SILK	Fabric	4	9	[0, 0, 0]	n/a	catFR1	1	R1541T
921.405	1.6	927428	WORD	n/a	wordpools/wordpool_categorized_EN.txt	SPINACH	Vegetables	5	9	[0, 0, 0]	n/a	catFR1	1	R1541T
923.021	0.867	929048	WORD_OFF	n/a	n/a	SPINACH	Vegetables	5	9	[0, 0, 0]	n/a	catFR1	1	R1541T
923.888	1.6	929912	WORD	n/a	wordpools/wordpool_categorized_EN.txt	CELERY	Vegetables	6	9	[0, 0, 0]	n/a	catFR1	1	R1541T
925.488	0.884	931514	WORD_OFF	n/a	n/a	CELERY	Vegetables	6	9	[0, 0, 0]	n/a	catFR1	1	R1541T
926.372	1.6	932397	WORD	n/a	wordpools/wordpool_categorized_EN.txt	DOLLHOUSE	Toys	7	9	[0, 0, 0]	n/a	catFR1	1	R1541T
927.988	0.933	934017	WORD_OFF	n/a	n/a	DOLLHOUSE	Toys	7	9	[0, 0, 0]	n/a	catFR1	1	R1541T
928.921	1.6	934945	WORD	n/a	wordpools/wordpool_categorized_EN.txt	BASKETBALL	Toys	8	9	[0, 0, 0]	n/a	catFR1	1	R1541T
930.538	0.85	936565	WORD_OFF	n/a	n/a	BASKETBALL	Toys	8	9	[0, 0, 0]	n/a	catFR1	1	R1541T
931.388	1.6	937412	WORD	n/a	wordpools/wordpool_categorized_EN.txt	LINEN	Fabric	9	9	[0, 0, 0]	n/a	catFR1	1	R1541T
932.988	0.833	939013	WORD_OFF	n/a	n/a	LINEN	Fabric	9	9	[0, 0, 0]	n/a	catFR1	1	R1541T
933.821	1.6	939842	WORD	n/a	wordpools/wordpool_categorized_EN.txt	SATIN	Fabric	10	9	[0, 0, 0]	n/a	catFR1	1	R1541T
935.438	0.85	941462	WORD_OFF	n/a	n/a	SATIN	Fabric	10	9	[0, 0, 0]	n/a	catFR1	1	R1541T
936.288	1.6	942308	WORD	n/a	wordpools/wordpool_categorized_EN.txt	BROCCOLI	Vegetables	11	9	[0, 0, 0]	n/a	catFR1	1	R1541T
937.904	0.984	943928	WORD_OFF	n/a	n/a	BROCCOLI	Vegetables	11	9	[0, 0, 0]	n/a	catFR1	1	R1541T
938.888	1.6	944911	WORD	n/a	wordpools/wordpool_categorized_EN.txt	CORN	Vegetables	12	9	[0, 0, 0]	n/a	catFR1	1	R1541T
940.489	0.0	946508	START	n/a	n/a	n/a	n/a	-999	9	[-999, -999, -999]	n/a	catFR1	1	R1541T
940.489	0.0	946508	PROB	3.549	n/a	n/a	n/a	-999	9	[2, 4, 5]	11.0	catFR1	1	R1541T
940.488	0.001	946513	WORD_OFF	n/a	n/a	CORN	Vegetables	12	9	[0, 0, 0]	n/a	catFR1	1	R1541T
940.489	0.0	946513	ENCODING_END	n/a	n/a	n/a	n/a	-999	9	[0, 0, 0]	n/a	catFR1	1	R1541T
940.489	3.566	946513	DISTRACT_START	n/a	n/a	n/a	n/a	-999	9	[0, 0, 0]	n/a	catFR1	1	R1541T
944.055	4.7	950074	PROB	4.683	n/a	n/a	n/a	-999	9	[1, 1, 1]	3.0	catFR1	1	R1541T
948.755	2.5	954773	PROB	2.483	n/a	n/a	n/a	-999	9	[1, 4, 7]	12.0	catFR1	1	R1541T
951.255	2.867	957273	PROB	2.849	n/a	n/a	n/a	-999	9	[8, 3, 6]	17.0	catFR1	1	R1541T
954.122	4.216	960140	PROB	4.199	n/a	n/a	n/a	-999	9	[6, 5, 4]	15.0	catFR1	1	R1541T
958.338	3.366	964356	PROB	3.349	n/a	n/a	n/a	-999	9	[5, 4, 2]	11.0	catFR1	1	R1541T
961.704	0.0	967722	STOP	n/a	n/a	n/a	n/a	-999	9	[-999, -999, -999]	n/a	catFR1	1	R1541T
961.704	1.833	967727	DISTRACT_END	n/a	n/a	n/a	n/a	-999	9	[0, 0, 0]	n/a	catFR1	1	R1541T
963.537	0.999	969556	REC_START	n/a	n/a	n/a	n/a	-999	9	[0, 0, 0]	n/a	catFR1	1	R1541T
964.536	1.221	970554	REC_WORD	0.999	n/a	MARBLES	Toys	1	9	[0, 0, 0]	n/a	catFR1	1	R1541T
965.757	1.0	971775	REC_WORD	2.22	n/a	DOLLHOUSE	Toys	7	9	[0, 0, 0]	n/a	catFR1	1	R1541T
966.757	13.952	972775	REC_WORD_VV	3.22	n/a	<>	n/a	-999	9	[0, 0, 0]	n/a	catFR1	1	R1541T
980.709	9.157	986727	REC_WORD	17.172	n/a	COLANDER	KitchenTools	-999	9	[0, 0, 0]	n/a	catFR1	1	R1541T
989.866	0.851	995883	REC_WORD	26.329	n/a	VELVET	Fabric	3	9	[0, 0, 0]	n/a	catFR1	1	R1541T
990.717	1.12	996734	REC_WORD	27.18	n/a	SILK	Fabric	4	9	[0, 0, 0]	n/a	catFR1	1	R1541T
991.837	1.91	997854	REC_WORD	28.3	n/a	DENIM	n/a	-999	9	[0, 0, 0]	n/a	catFR1	1	R1541T
993.747	1.489	999771	REC_END	n/a	n/a	n/a	n/a	-999	9	[0, 0, 0]	n/a	catFR1	1	R1541T
995.236	10.0	1001264	COUNTDOWN_START	n/a	n/a	n/a	n/a	-999	10	[0, 0, 0]	n/a	catFR1	1	R1541T
1005.585	0.001	1011611	COUNTDOWN_END	n/a	n/a	n/a	n/a	-999	10	[0, 0, 0]	n/a	catFR1	1	R1541T
1005.586	2.084	1011611	ENCODING_START	n/a	n/a	n/a	n/a	-999	10	[0, 0, 0]	n/a	catFR1	1	R1541T
1007.67	1.6	1013696	WORD	n/a	wordpools/wordpool_categorized_EN.txt	GUITAR	Instruments	1	10	[0, 0, 0]	n/a	catFR1	1	R1541T
1009.286	0.817	1015306	WORD_OFF	n/a	n/a	GUITAR	Instruments	1	10	[0, 0, 0]	n/a	catFR1	1	R1541T
1010.103	1.6	1016125	WORD	n/a	wordpools/wordpool_categorized_EN.txt	TRUMPET	Instruments	2	10	[0, 0, 0]	n/a	catFR1	1	R1541T
1011.719	0.999	1017736	WORD_OFF	n/a	n/a	TRUMPET	Instruments	2	10	[0, 0, 0]	n/a	catFR1	1	R1541T
1012.718	1.6	1018737	WORD	n/a	wordpools/wordpool_categorized_EN.txt	VIOLET	Flowers	3	10	[0, 0, 0]	n/a	catFR1	1	R1541T
1014.333	0.836	1020357	WORD_OFF	n/a	n/a	VIOLET	Flowers	3	10	[0, 0, 0]	n/a	catFR1	1	R1541T
1015.169	1.6	1021195	WORD	n/a	wordpools/wordpool_categorized_EN.txt	PETUNIA	Flowers	4	10	[0, 0, 0]	n/a	catFR1	1	R1541T
1016.769	0.983	1022787	WORD_OFF	n/a	n/a	PETUNIA	Flowers	4	10	[0, 0, 0]	n/a	catFR1	1	R1541T
1017.752	1.6	1023770	WORD	n/a	wordpools/wordpool_categorized_EN.txt	SHELF	Furniture	5	10	[0, 0, 0]	n/a	catFR1	1	R1541T
1019.369	0.8	1025390	WORD_OFF	n/a	n/a	SHELF	Furniture	5	10	[0, 0, 0]	n/a	catFR1	1	R1541T
1020.169	1.6	1026191	WORD	n/a	wordpools/wordpool_categorized_EN.txt	SOFA	Furniture	6	10	[0, 0, 0]	n/a	catFR1	1	R1541T
1021.769	0.9	1027793	WORD_OFF	n/a	n/a	SOFA	Furniture	6	10	[0, 0, 0]	n/a	catFR1	1	R1541T
1022.669	1.6	1028694	WORD	n/a	wordpools/wordpool_categorized_EN.txt	LILAC	Flowers	7	10	[0, 0, 0]	n/a	catFR1	1	R1541T
1024.286	0.766	1030305	WORD_OFF	n/a	n/a	LILAC	Flowers	7	10	[0, 0, 0]	n/a	catFR1	1	R1541T
1025.052	1.6	1031069	WORD	n/a	wordpools/wordpool_categorized_EN.txt	ROSE	Flowers	8	10	[0, 0, 0]	n/a	catFR1	1	R1541T
1026.652	0.917	1032671	WORD_OFF	n/a	n/a	ROSE	Flowers	8	10	[0, 0, 0]	n/a	catFR1	1	R1541T
1027.569	1.6	1033590	WORD	n/a	wordpools/wordpool_categorized_EN.txt	DESK	Furniture	9	10	[0, 0, 0]	n/a	catFR1	1	R1541T
1029.169	1.0	1035192	WORD_OFF	n/a	n/a	DESK	Furniture	9	10	[0, 0, 0]	n/a	catFR1	1	R1541T
1030.169	1.6	1036193	WORD	n/a	wordpools/wordpool_categorized_EN.txt	CABINET	Furniture	10	10	[0, 0, 0]	n/a	catFR1	1	R1541T
1031.786	0.933	1037804	WORD_OFF	n/a	n/a	CABINET	Furniture	10	10	[0, 0, 0]	n/a	catFR1	1	R1541T
1032.719	1.6	1038741	WORD	n/a	wordpools/wordpool_categorized_EN.txt	VIOLIN	Instruments	11	10	[0, 0, 0]	n/a	catFR1	1	R1541T
1034.334	0.852	1040352	WORD_OFF	n/a	n/a	VIOLIN	Instruments	11	10	[0, 0, 0]	n/a	catFR1	1	R1541T
1035.186	1.6	1041208	WORD	n/a	wordpools/wordpool_categorized_EN.txt	ORGAN	Instruments	12	10	[0, 0, 0]	n/a	catFR1	1	R1541T
1036.802	0.0	1042818	WORD_OFF	n/a	n/a	ORGAN	Instruments	12	10	[0, 0, 0]	n/a	catFR1	1	R1541T
1036.802	0.001	1042818	PROB	3.633	n/a	n/a	n/a	-999	10	[2, 4, 6]	12.0	catFR1	1	R1541T
1036.803	0.0	1042819	START	n/a	n/a	n/a	n/a	-999	10	[-999, -999, -999]	n/a	catFR1	1	R1541T
1036.803	0.0	1042828	ENCODING_END	n/a	n/a	n/a	n/a	-999	10	[0, 0, 0]	n/a	catFR1	1	R1541T
1036.803	3.649	1042828	DISTRACT_START	n/a	n/a	n/a	n/a	-999	10	[0, 0, 0]	n/a	catFR1	1	R1541T
1040.452	2.217	1046468	PROB	2.2	n/a	n/a	n/a	-999	10	[3, 1, 8]	12.0	catFR1	1	R1541T
1042.669	2.517	1048685	PROB	2.5	n/a	n/a	n/a	-999	10	[1, 3, 7]	11.0	catFR1	1	R1541T
1045.186	2.749	1051202	PROB	2.732	n/a	n/a	n/a	-999	10	[8, 3, 6]	17.0	catFR1	1	R1541T
1047.935	3.2	1053951	PROB	3.182	n/a	n/a	n/a	-999	10	[6, 7, 4]	17.0	catFR1	1	R1541T
1051.135	3.033	1057151	PROB	3.016	n/a	n/a	n/a	-999	10	[2, 4, 1]	7.0	catFR1	1	R1541T
1054.168	2.933	1060184	PROB	2.916	n/a	n/a	n/a	-999	10	[2, 2, 3]	7.0	catFR1	1	R1541T
1057.101	0.0	1063117	STOP	n/a	n/a	n/a	n/a	-999	10	[-999, -999, -999]	n/a	catFR1	1	R1541T
1057.101	1.9	1063123	DISTRACT_END	n/a	n/a	n/a	n/a	-999	10	[0, 0, 0]	n/a	catFR1	1	R1541T
1059.001	0.621	1065025	REC_START	n/a	n/a	n/a	n/a	-999	10	[0, 0, 0]	n/a	catFR1	1	R1541T
1059.622	0.967	1065637	REC_WORD	0.621	n/a	GUITAR	Instruments	1	10	[0, 0, 0]	n/a	catFR1	1	R1541T
1060.589	0.769	1066604	REC_WORD	1.588	n/a	TRUMPET	Instruments	2	10	[0, 0, 0]	n/a	catFR1	1	R1541T
1061.358	0.985	1067373	REC_WORD	2.357	n/a	VIOLET	Flowers	3	10	[0, 0, 0]	n/a	catFR1	1	R1541T
1062.343	2.956	1068358	REC_WORD	3.342	n/a	VIOLIN	Instruments	11	10	[0, 0, 0]	n/a	catFR1	1	R1541T
1065.299	3.699	1071314	REC_WORD	6.298	n/a	ROSE	Flowers	8	10	[0, 0, 0]	n/a	catFR1	1	R1541T
1068.998	5.948	1075013	REC_WORD	9.997	n/a	LILAC	Flowers	7	10	[0, 0, 0]	n/a	catFR1	1	R1541T
1074.946	2.273	1080961	REC_WORD	15.945	n/a	LAVENDAR	n/a	-999	10	[0, 0, 0]	n/a	catFR1	1	R1541T
1077.219	1.812	1083234	REC_WORD	18.218	n/a	PETUNIA	Flowers	4	10	[0, 0, 0]	n/a	catFR1	1	R1541T
1079.031	10.192	1085046	REC_WORD	20.03	n/a	CABINET	Furniture	10	10	[0, 0, 0]	n/a	catFR1	1	R1541T
1089.223	1.544	1095240	REC_END	n/a	n/a	n/a	n/a	-999	10	[0, 0, 0]	n/a	catFR1	1	R1541T
1090.767	10.0	1096787	COUNTDOWN_START	n/a	n/a	n/a	n/a	-999	11	[0, 0, 0]	n/a	catFR1	1	R1541T
1101.117	0.0	1107135	COUNTDOWN_END	n/a	n/a	n/a	n/a	-999	11	[0, 0, 0]	n/a	catFR1	1	R1541T
1101.117	2.1	1107135	ENCODING_START	n/a	n/a	n/a	n/a	-999	11	[0, 0, 0]	n/a	catFR1	1	R1541T
1103.217	1.6	1109237	WORD	n/a	wordpools/wordpool_categorized_EN.txt	SHORTS	Clothing	1	11	[0, 0, 0]	n/a	catFR1	1	R1541T
1104.833	0.984	1110849	WORD_OFF	n/a	n/a	SHORTS	Clothing	1	11	[0, 0, 0]	n/a	catFR1	1	R1541T
1105.817	1.6	1111840	WORD	n/a	wordpools/wordpool_categorized_EN.txt	SHIRT	Clothing	2	11	[0, 0, 0]	n/a	catFR1	1	R1541T
1107.434	0.816	1113451	WORD_OFF	n/a	n/a	SHIRT	Clothing	2	11	[0, 0, 0]	n/a	catFR1	1	R1541T
1108.25	1.6	1114270	WORD	n/a	wordpools/wordpool_categorized_EN.txt	CEILING	Building	3	11	[0, 0, 0]	n/a	catFR1	1	R1541T
1109.85	0.782	1115871	WORD_OFF	n/a	n/a	CEILING	Building	3	11	[0, 0, 0]	n/a	catFR1	1	R1541T
1110.632	1.6	1116654	WORD	n/a	wordpools/wordpool_categorized_EN.txt	HALLWAY	Building	4	11	[0, 0, 0]	n/a	catFR1	1	R1541T
1112.234	0.816	1118265	WORD_OFF	n/a	n/a	HALLWAY	Building	4	11	[0, 0, 0]	n/a	catFR1	1	R1541T
1113.05	1.6	1119066	WORD	n/a	wordpools/wordpool_categorized_EN.txt	BASEBALL	Toys	5	11	[0, 0, 0]	n/a	catFR1	1	R1541T
1114.65	0.916	1120668	WORD_OFF	n/a	n/a	BASEBALL	Toys	5	11	[0, 0, 0]	n/a	catFR1	1	R1541T
1115.566	1.6	1121587	WORD	n/a	wordpools/wordpool_categorized_EN.txt	BLOCKS	Toys	6	11	[0, 0, 0]	n/a	catFR1	1	R1541T
1117.167	0.783	1123189	WORD_OFF	n/a	n/a	BLOCKS	Toys	6	11	[0, 0, 0]	n/a	catFR1	1	R1541T
1117.95	1.6	1123971	WORD	n/a	wordpools/wordpool_categorized_EN.txt	WINDOW	Building	7	11	[0, 0, 0]	n/a	catFR1	1	R1541T
1119.567	0.782	1125582	WORD_OFF	n/a	n/a	WINDOW	Building	7	11	[0, 0, 0]	n/a	catFR1	1	R1541T
1120.349	1.6	1126365	WORD	n/a	wordpools/wordpool_categorized_EN.txt	ATTIC	Building	8	11	[0, 0, 0]	n/a	catFR1	1	R1541T
1121.964	0.819	1127985	WORD_OFF	n/a	n/a	ATTIC	Building	8	11	[0, 0, 0]	n/a	catFR1	1	R1541T
1122.783	1.6	1128804	WORD	n/a	wordpools/wordpool_categorized_EN.txt	DOLL	Toys	9	11	[0, 0, 0]	n/a	catFR1	1	R1541T
1124.4	0.849	1130415	WORD_OFF	n/a	n/a	DOLL	Toys	9	11	[0, 0, 0]	n/a	catFR1	1	R1541T
1125.249	1.6	1131270	WORD	n/a	wordpools/wordpool_categorized_EN.txt	FRISBEE	Toys	10	11	[0, 0, 0]	n/a	catFR1	1	R1541T
1126.85	0.883	1132872	WORD_OFF	n/a	n/a	FRISBEE	Toys	10	11	[0, 0, 0]	n/a	catFR1	1	R1541T
1127.733	1.6	1133755	WORD	n/a	wordpools/wordpool_categorized_EN.txt	DRESS	Clothing	11	11	[0, 0, 0]	n/a	catFR1	1	R1541T
1129.333	0.917	1135356	WORD_OFF	n/a	n/a	DRESS	Clothing	11	11	[0, 0, 0]	n/a	catFR1	1	R1541T
1130.25	1.6	1136267	WORD	n/a	wordpools/wordpool_categorized_EN.txt	BLOUSE	Clothing	12	11	[0, 0, 0]	n/a	catFR1	1	R1541T
1131.85	0.0	1137864	PROB	4.999	n/a	n/a	n/a	-999	11	[3, 8, 4]	15.0	catFR1	1	R1541T
1131.85	0.004	1137868	WORD_OFF	n/a	n/a	BLOUSE	Clothing	12	11	[0, 0, 0]	n/a	catFR1	1	R1541T
1131.854	0.0	1137868	ENCODING_END	n/a	n/a	n/a	n/a	-999	11	[0, 0, 0]	n/a	catFR1	1	R1541T
1131.854	0.0	1137868	DISTRACT_START	n/a	n/a	n/a	n/a	-999	11	[0, 0, 0]	n/a	catFR1	1	R1541T
1131.854	5.013	1137868	START	n/a	n/a	n/a	n/a	-999	11	[-999, -999, -999]	n/a	catFR1	1	R1541T
1136.867	2.283	1142880	PROB	2.266	n/a	n/a	n/a	-999	11	[3, 1, 4]	8.0	catFR1	1	R1541T
1139.15	3.133	1145163	PROB	3.116	n/a	n/a	n/a	-999	11	[7, 4, 7]	18.0	catFR1	1	R1541T
1142.283	2.966	1148296	PROB	2.95	n/a	n/a	n/a	-999	11	[7, 1, 6]	14.0	catFR1	1	R1541T
1145.249	3.0	1151262	PROB	2.984	n/a	n/a	n/a	-999	11	[5, 6, 3]	14.0	catFR1	1	R1541T
1148.249	2.918	1154262	PROB	2.899	n/a	n/a	n/a	-999	11	[2, 8, 3]	13.0	catFR1	1	R1541T
1151.167	3.315	1157180	PROB	3.299	n/a	n/a	n/a	-999	11	[8, 5, 5]	18.0	catFR1	1	R1541T
1154.482	0.0	1160495	STOP	n/a	n/a	n/a	n/a	-999	11	[-999, -999, -999]	n/a	catFR1	1	R1541T
1154.482	1.734	1160502	DISTRACT_END	n/a	n/a	n/a	n/a	-999	11	[0, 0, 0]	n/a	catFR1	1	R1541T
1156.216	0.814	1162231	REC_START	n/a	n/a	n/a	n/a	-999	11	[0, 0, 0]	n/a	catFR1	1	R1541T
1157.03	0.68	1163043	REC_WORD	0.814	n/a	DOLL	Toys	9	11	[0, 0, 0]	n/a	catFR1	1	R1541T
1157.71	1.926	1163723	REC_WORD	1.494	n/a	FRISBEE	Toys	10	11	[0, 0, 0]	n/a	catFR1	1	R1541T
1159.636	1.879	1165649	REC_WORD	3.42	n/a	DRESS	Clothing	11	11	[0, 0, 0]	n/a	catFR1	1	R1541T
1161.515	2.363	1167528	REC_WORD	5.299	n/a	BLOUSE	Clothing	12	11	[0, 0, 0]	n/a	catFR1	1	R1541T
1163.878	1.0	1169891	REC_WORD	7.662	n/a	STAIRS	Building	-999	11	[0, 0, 0]	n/a	catFR1	1	R1541T
1164.878	0.073	1170891	REC_WORD_VV	8.662	n/a	<>	n/a	-999	11	[0, 0, 0]	n/a	catFR1	1	R1541T
1164.951	10.226	1170964	REC_WORD	8.735	n/a	HALLWAY	Building	4	11	[0, 0, 0]	n/a	catFR1	1	R1541T
1175.177	5.132	1181189	REC_WORD	18.961	n/a	BALL	n/a	-999	11	[0, 0, 0]	n/a	catFR1	1	R1541T
1180.309	6.131	1186321	REC_WORD	24.093	n/a	ATTIC	Building	8	11	[0, 0, 0]	n/a	catFR1	1	R1541T
1186.44	1.175	1192456	REC_END	n/a	n/a	n/a	n/a	-999	11	[0, 0, 0]	n/a	catFR1	1	R1541T
1187.615	10.0	1193630	COUNTDOWN_START	n/a	n/a	n/a	n/a	-999	12	[0, 0, 0]	n/a	catFR1	1	R1541T
1197.965	0.0	1203977	COUNTDOWN_END	n/a	n/a	n/a	n/a	-999	12	[0, 0, 0]	n/a	catFR1	1	R1541T
1197.965	2.067	1203986	ENCODING_START	n/a	n/a	n/a	n/a	-999	12	[0, 0, 0]	n/a	catFR1	1	R1541T
1200.032	1.6	1206052	WORD	n/a	wordpools/wordpool_categorized_EN.txt	PEAS	Vegetables	1	12	[0, 0, 0]	n/a	catFR1	1	R1541T
1201.648	0.883	1207663	WORD_OFF	n/a	n/a	PEAS	Vegetables	1	12	[0, 0, 0]	n/a	catFR1	1	R1541T
1202.531	1.6	1208546	WORD	n/a	wordpools/wordpool_categorized_EN.txt	CUCUMBER	Vegetables	2	12	[0, 0, 0]	n/a	catFR1	1	R1541T
1204.148	0.766	1210166	WORD_OFF	n/a	n/a	CUCUMBER	Vegetables	2	12	[0, 0, 0]	n/a	catFR1	1	R1541T
1204.914	1.6	1210930	WORD	n/a	wordpools/wordpool_categorized_EN.txt	WALL	Building	3	12	[0, 0, 0]	n/a	catFR1	1	R1541T
1206.531	0.917	1212550	WORD_OFF	n/a	n/a	WALL	Building	3	12	[0, 0, 0]	n/a	catFR1	1	R1541T
1207.448	1.6	1213460	WORD	n/a	wordpools/wordpool_categorized_EN.txt	BATHROOM	Building	4	12	[0, 0, 0]	n/a	catFR1	1	R1541T
1209.065	0.817	1215080	WORD_OFF	n/a	n/a	BATHROOM	Building	4	12	[0, 0, 0]	n/a	catFR1	1	R1541T
1209.882	1.6	1215900	WORD	n/a	wordpools/wordpool_categorized_EN.txt	DRESSER	Furniture	5	12	[0, 0, 0]	n/a	catFR1	1	R1541T
1211.481	0.983	1217501	WORD_OFF	n/a	n/a	DRESSER	Furniture	5	12	[0, 0, 0]	n/a	catFR1	1	R1541T
1212.464	1.6	1218475	WORD	n/a	wordpools/wordpool_categorized_EN.txt	COUCH	Furniture	6	12	[0, 0, 0]	n/a	catFR1	1	R1541T
1214.065	0.782	1220077	WORD_OFF	n/a	n/a	COUCH	Furniture	6	12	[0, 0, 0]	n/a	catFR1	1	R1541T
1214.847	1.6	1220860	WORD	n/a	wordpools/wordpool_categorized_EN.txt	CAULIFLOWER	Vegetables	7	12	[0, 0, 0]	n/a	catFR1	1	R1541T
1216.448	0.967	1222461	WORD_OFF	n/a	n/a	CAULIFLOWER	Vegetables	7	12	[0, 0, 0]	n/a	catFR1	1	R1541T
1217.415	1.6	1223426	WORD	n/a	wordpools/wordpool_categorized_EN.txt	LETTUCE	Vegetables	8	12	[0, 0, 0]	n/a	catFR1	1	R1541T
1219.031	0.917	1225046	WORD_OFF	n/a	n/a	LETTUCE	Vegetables	8	12	[0, 0, 0]	n/a	catFR1	1	R1541T
1219.948	1.6	1225965	WORD	n/a	wordpools/wordpool_categorized_EN.txt	RECLINER	Furniture	9	12	[0, 0, 0]	n/a	catFR1	1	R1541T
1221.548	0.933	1227567	WORD_OFF	n/a	n/a	RECLINER	Furniture	9	12	[0, 0, 0]	n/a	catFR1	1	R1541T
1222.481	1.6	1228495	WORD	n/a	wordpools/wordpool_categorized_EN.txt	TABLE	Furniture	10	12	[0, 0, 0]	n/a	catFR1	1	R1541T
1224.081	0.983	1230097	WORD_OFF	n/a	n/a	TABLE	Furniture	10	12	[0, 0, 0]	n/a	catFR1	1	R1541T
1225.064	1.6	1231080	WORD	n/a	wordpools/wordpool_categorized_EN.txt	DOOR	Building	11	12	[0, 0, 0]	n/a	catFR1	1	R1541T
1226.681	0.983	1232700	WORD_OFF	n/a	n/a	DOOR	Building	11	12	[0, 0, 0]	n/a	catFR1	1	R1541T
1227.664	1.6	1233683	WORD	n/a	wordpools/wordpool_categorized_EN.txt	FOUNDATION	Building	12	12	[0, 0, 0]	n/a	catFR1	1	R1541T
1229.264	0.001	1235275	WORD_OFF	n/a	n/a	FOUNDATION	Building	12	12	[0, 0, 0]	n/a	catFR1	1	R1541T
1229.265	0.0	1235276	START	n/a	n/a	n/a	n/a	-999	12	[-999, -999, -999]	n/a	catFR1	1	R1541T
1229.265	0.0	1235276	PROB	3.149	n/a	n/a	n/a	-999	12	[1, 3, 2]	6.0	catFR1	1	R1541T
1229.265	0.0	1235284	ENCODING_END	n/a	n/a	n/a	n/a	-999	12	[0, 0, 0]	n/a	catFR1	1	R1541T
1229.265	3.166	1235284	DISTRACT_START	n/a	n/a	n/a	n/a	-999	12	[0, 0, 0]	n/a	catFR1	1	R1541T
1232.431	2.099	1238442	PROB	2.082	n/a	n/a	n/a	-999	12	[6, 2, 1]	9.0	catFR1	1	R1541T
1234.53	3.084	1240541	PROB	3.067	n/a	n/a	n/a	-999	12	[8, 6, 5]	19.0	catFR1	1	R1541T
1237.614	3.017	1243625	PROB	3.0	n/a	n/a	n/a	-999	12	[8, 5, 5]	18.0	catFR1	1	R1541T
1240.631	2.483	1246642	PROB	2.466	n/a	n/a	n/a	-999	12	[2, 4, 2]	8.0	catFR1	1	R1541T
1243.114	3.099	1249125	PROB	3.083	n/a	n/a	n/a	-999	12	[1, 7, 3]	11.0	catFR1	1	R1541T
1246.213	2.968	1252223	PROB	2.951	n/a	n/a	n/a	-999	12	[7, 3, 5]	15.0	catFR1	1	R1541T
1249.181	3.183	1255191	PROB	3.166	n/a	n/a	n/a	-999	12	[5, 8, 6]	19.0	catFR1	1	R1541T
1252.364	0.0	1258374	STOP	n/a	n/a	n/a	n/a	-999	12	[-999, -999, -999]	n/a	catFR1	1	R1541T
1252.364	1.833	1258383	DISTRACT_END	n/a	n/a	n/a	n/a	-999	12	[0, 0, 0]	n/a	catFR1	1	R1541T
1254.197	1.426	1260212	REC_START	n/a	n/a	n/a	n/a	-999	12	[0, 0, 0]	n/a	catFR1	1	R1541T
1255.623	1.273	1261633	REC_WORD	1.426	n/a	PEAS	Vegetables	1	12	[0, 0, 0]	n/a	catFR1	1	R1541T
1256.896	1.0	1262906	REC_WORD	2.699	n/a	CAULIFLOWER	Vegetables	7	12	[0, 0, 0]	n/a	catFR1	1	R1541T
1257.896	2.024	1263906	REC_WORD_VV	3.699	n/a	<>	n/a	-999	12	[0, 0, 0]	n/a	catFR1	1	R1541T
1259.92	1.0	1265930	REC_WORD	5.723	n/a	SPINACH	Vegetables	-999	12	[0, 0, 0]	n/a	catFR1	1	R1541T
1260.92	2.73	1266930	REC_WORD_VV	6.723	n/a	<>	n/a	-999	12	[0, 0, 0]	n/a	catFR1	1	R1541T
1263.65	0.997	1269660	REC_WORD	9.453	n/a	WALL	Building	3	12	[0, 0, 0]	n/a	catFR1	1	R1541T
1264.647	0.856	1270657	REC_WORD	10.45	n/a	CHAIR	n/a	-999	12	[0, 0, 0]	n/a	catFR1	1	R1541T
1265.503	18.918	1271513	REC_WORD	11.306	n/a	RECLINER	Furniture	9	12	[0, 0, 0]	n/a	catFR1	1	R1541T
1284.421	0.0	1290436	REC_END	n/a	n/a	n/a	n/a	-999	12	[0, 0, 0]	n/a	catFR1	1	R1541T
