onset	duration	sample	trial_type	response_time	stim_file	item_name	category	serialpos	list	test	answer	experiment	session	subject
0.0	0.0	180242	INSTRUCT_START	n/a	n/a	n/a	n/a	-999	-999	[0, 0, 0]	n/a	catFR1	2	R1273D
0.0	11.186	180242	INSTRUCT_END	n/a	n/a	n/a	n/a	-999	-999	[0, 0, 0]	n/a	catFR1	2	R1273D
11.186	0.0	191428	SESS_START	n/a	n/a	n/a	n/a	-999	-999	[0, 0, 0]	n/a	catFR1	2	R1273D
11.186	177.261	191428	MIC_TEST	n/a	n/a	n/a	n/a	-999	-999	[0, 0, 0]	n/a	catFR1	2	R1273D
188.447	58.031	368679	PRACTICE_TRIAL	n/a	n/a	n/a	n/a	-999	-1	[0, 0, 0]	n/a	catFR1	2	R1273D
246.478	10.428	426706	COUNTDOWN_START	n/a	n/a	n/a	n/a	-999	-1	[0, 0, 0]	n/a	catFR1	2	R1273D
256.906	0.007	437134	COUNTDOWN_END	n/a	n/a	n/a	n/a	-999	-1	[0, 0, 0]	n/a	catFR1	2	R1273D
256.913	1.616	437141	PRACTICE_ORIENT	n/a	n/a	n/a	n/a	-999	-1	[0, 0, 0]	n/a	catFR1	2	R1273D
258.529	2.285	438757	PRACTICE_ORIENT_OFF	n/a	n/a	n/a	n/a	-999	-1	[0, 0, 0]	n/a	catFR1	2	R1273D
260.814	1.616	441042	PRACTICE_WORD	n/a	n/a	FLOOD	n/a	-1	-1	[0, 0, 0]	n/a	catFR1	2	R1273D
262.43	0.817	442658	PRACTICE_WORD_OFF	n/a	n/a	FLOOD	n/a	-999	-1	[0, 0, 0]	n/a	catFR1	2	R1273D
263.247	1.601	443475	PRACTICE_WORD	n/a	n/a	COTTON	n/a	-1	-1	[0, 0, 0]	n/a	catFR1	2	R1273D
264.848	0.933	445075	PRACTICE_WORD_OFF	n/a	n/a	COTTON	n/a	-999	-1	[0, 0, 0]	n/a	catFR1	2	R1273D
265.781	1.616	446008	PRACTICE_WORD	n/a	n/a	ATTIC	n/a	-1	-1	[0, 0, 0]	n/a	catFR1	2	R1273D
267.397	0.984	447624	PRACTICE_WORD_OFF	n/a	n/a	ATTIC	n/a	-999	-1	[0, 0, 0]	n/a	catFR1	2	R1273D
268.381	1.601	448608	PRACTICE_WORD	n/a	n/a	RHINO	n/a	-1	-1	[0, 0, 0]	n/a	catFR1	2	R1273D
269.982	0.934	450209	PRACTICE_WORD_OFF	n/a	n/a	RHINO	n/a	-999	-1	[0, 0, 0]	n/a	catFR1	2	R1273D
270.916	1.616	451143	PRACTICE_WORD	n/a	n/a	WATCH	n/a	-1	-1	[0, 0, 0]	n/a	catFR1	2	R1273D
272.532	0.917	452759	PRACTICE_WORD_OFF	n/a	n/a	WATCH	n/a	-999	-1	[0, 0, 0]	n/a	catFR1	2	R1273D
273.449	1.616	453676	PRACTICE_WORD	n/a	n/a	CHEST	n/a	-1	-1	[0, 0, 0]	n/a	catFR1	2	R1273D
275.065	0.802	455292	PRACTICE_WORD_OFF	n/a	n/a	CHEST	n/a	-999	-1	[0, 0, 0]	n/a	catFR1	2	R1273D
275.867	1.616	456094	PRACTICE_WORD	n/a	n/a	IRON	n/a	-1	-1	[0, 0, 0]	n/a	catFR1	2	R1273D
277.483	0.9	457710	PRACTICE_WORD_OFF	n/a	n/a	IRON	n/a	-999	-1	[0, 0, 0]	n/a	catFR1	2	R1273D
278.383	1.618	458610	PRACTICE_WORD	n/a	n/a	RING	n/a	-1	-1	[0, 0, 0]	n/a	catFR1	2	R1273D
280.001	0.866	460228	PRACTICE_WORD_OFF	n/a	n/a	RING	n/a	-999	-1	[0, 0, 0]	n/a	catFR1	2	R1273D
280.867	1.616	461094	PRACTICE_WORD	n/a	n/a	WAGON	n/a	-1	-1	[0, 0, 0]	n/a	catFR1	2	R1273D
282.483	0.967	462709	PRACTICE_WORD_OFF	n/a	n/a	WAGON	n/a	-999	-1	[0, 0, 0]	n/a	catFR1	2	R1273D
283.45	1.617	463676	PRACTICE_WORD	n/a	n/a	CAMEL	n/a	-1	-1	[0, 0, 0]	n/a	catFR1	2	R1273D
285.067	1.0	465293	PRACTICE_WORD_OFF	n/a	n/a	CAMEL	n/a	-999	-1	[0, 0, 0]	n/a	catFR1	2	R1273D
286.067	1.617	466293	PRACTICE_WORD	n/a	n/a	BEAM	n/a	-1	-1	[0, 0, 0]	n/a	catFR1	2	R1273D
287.684	0.867	467910	PRACTICE_WORD_OFF	n/a	n/a	BEAM	n/a	-999	-1	[0, 0, 0]	n/a	catFR1	2	R1273D
288.551	1.617	468777	PRACTICE_WORD	n/a	n/a	TONGUE	n/a	-1	-1	[0, 0, 0]	n/a	catFR1	2	R1273D
290.168	0.0	470394	ENCODING_END	n/a	n/a	n/a	n/a	-999	-1	[0, 0, 0]	n/a	catFR1	2	R1273D
290.168	0.001	470394	PRACTICE_WORD_OFF	n/a	n/a	TONGUE	n/a	-999	-1	[0, 0, 0]	n/a	catFR1	2	R1273D
290.169	0.0	470395	DISTRACT_START	n/a	n/a	n/a	n/a	-999	-1	[0, 0, 0]	n/a	catFR1	2	R1273D
290.169	0.016	470395	START	n/a	n/a	n/a	n/a	-999	-1	[-999, -999, -999]	n/a	catFR1	2	R1273D
290.185	14.352	470411	PROB	14.33	n/a	n/a	n/a	-999	-1	[7, 2, 2]	11.0	catFR1	2	R1273D
304.537	4.202	484762	PROB	4.169	n/a	n/a	n/a	-999	-1	[2, 9, 8]	18.0	catFR1	2	R1273D
308.739	30.17	488964	PROB	30.17	n/a	n/a	n/a	-999	-1	[5, 9, 7]	23.0	catFR1	2	R1273D
338.909	0.019	519132	STOP	n/a	n/a	n/a	n/a	-999	-1	[-999, -999, -999]	n/a	catFR1	2	R1273D
338.928	0.699	519151	DISTRACT_END	n/a	n/a	n/a	n/a	-999	-1	[0, 0, 0]	n/a	catFR1	2	R1273D
339.627	0.518	519850	RETRIEVAL_ORIENT	n/a	n/a	n/a	n/a	-999	-1	[0, 0, 0]	n/a	catFR1	2	R1273D
340.145	30.012	520368	PRACTICE_REC_START	n/a	n/a	n/a	n/a	-999	-1	[0, 0, 0]	n/a	catFR1	2	R1273D
370.157	18.479	550378	PRACTICE_REC_END	n/a	n/a	n/a	n/a	-999	-1	[0, 0, 0]	n/a	catFR1	2	R1273D
388.636	0.5	568856	TRIAL	n/a	n/a	n/a	n/a	-999	1	[0, 0, 0]	n/a	catFR1	2	R1273D
389.136	10.428	569356	COUNTDOWN_START	n/a	n/a	n/a	n/a	-999	1	[0, 0, 0]	n/a	catFR1	2	R1273D
399.564	0.007	579784	COUNTDOWN_END	n/a	n/a	n/a	n/a	-999	1	[0, 0, 0]	n/a	catFR1	2	R1273D
399.571	1.617	579791	ORIENT	n/a	n/a	n/a	n/a	-999	1	[0, 0, 0]	n/a	catFR1	2	R1273D
401.188	2.001	581408	ORIENT_OFF	n/a	n/a	n/a	n/a	-999	1	[0, 0, 0]	n/a	catFR1	2	R1273D
403.189	1.618	583409	WORD	n/a	wordpools/wordpool_categorized_EN.txt	LEMONADE	Beverages	1	1	[0, 0, 0]	n/a	catFR1	2	R1273D
404.807	0.799	585027	WORD_OFF	n/a	n/a	LEMONADE	n/a	1	1	[0, 0, 0]	n/a	catFR1	2	R1273D
405.606	1.617	585825	WORD	n/a	wordpools/wordpool_categorized_EN.txt	JUICE	Beverages	2	1	[0, 0, 0]	n/a	catFR1	2	R1273D
407.223	0.967	587442	WORD_OFF	n/a	n/a	JUICE	n/a	2	1	[0, 0, 0]	n/a	catFR1	2	R1273D
408.19	1.618	588409	WORD	n/a	wordpools/wordpool_categorized_EN.txt	COOKIE	Desserts	3	1	[0, 0, 0]	n/a	catFR1	2	R1273D
409.808	0.983	590027	WORD_OFF	n/a	n/a	COOKIE	n/a	3	1	[0, 0, 0]	n/a	catFR1	2	R1273D
410.791	1.616	591010	WORD	n/a	wordpools/wordpool_categorized_EN.txt	JELLO	Desserts	4	1	[0, 0, 0]	n/a	catFR1	2	R1273D
412.407	0.867	592626	WORD_OFF	n/a	n/a	JELLO	n/a	4	1	[0, 0, 0]	n/a	catFR1	2	R1273D
413.274	1.618	593493	WORD	n/a	wordpools/wordpool_categorized_EN.txt	DOLL	Toys	5	1	[0, 0, 0]	n/a	catFR1	2	R1273D
414.892	0.967	595111	WORD_OFF	n/a	n/a	DOLL	n/a	5	1	[0, 0, 0]	n/a	catFR1	2	R1273D
415.859	1.616	596078	WORD	n/a	wordpools/wordpool_categorized_EN.txt	BASEBALL	Toys	6	1	[0, 0, 0]	n/a	catFR1	2	R1273D
417.475	1.0	597694	WORD_OFF	n/a	n/a	BASEBALL	n/a	6	1	[0, 0, 0]	n/a	catFR1	2	R1273D
418.475	1.617	598694	WORD	n/a	wordpools/wordpool_categorized_EN.txt	COFFEE	Beverages	7	1	[0, 0, 0]	n/a	catFR1	2	R1273D
420.092	0.884	600311	WORD_OFF	n/a	n/a	COFFEE	n/a	7	1	[0, 0, 0]	n/a	catFR1	2	R1273D
420.976	1.616	601195	WORD	n/a	wordpools/wordpool_categorized_EN.txt	RUM	Beverages	8	1	[0, 0, 0]	n/a	catFR1	2	R1273D
422.592	0.917	602811	WORD_OFF	n/a	n/a	RUM	n/a	8	1	[0, 0, 0]	n/a	catFR1	2	R1273D
423.509	1.617	603727	WORD	n/a	wordpools/wordpool_categorized_EN.txt	BROWNIES	Desserts	9	1	[0, 0, 0]	n/a	catFR1	2	R1273D
425.126	1.017	605344	WORD_OFF	n/a	n/a	BROWNIES	n/a	9	1	[0, 0, 0]	n/a	catFR1	2	R1273D
426.143	1.618	606361	WORD	n/a	wordpools/wordpool_categorized_EN.txt	PASTRY	Desserts	10	1	[0, 0, 0]	n/a	catFR1	2	R1273D
427.761	0.816	607979	WORD_OFF	n/a	n/a	PASTRY	n/a	10	1	[0, 0, 0]	n/a	catFR1	2	R1273D
428.577	1.617	608795	WORD	n/a	wordpools/wordpool_categorized_EN.txt	MARBLES	Toys	11	1	[0, 0, 0]	n/a	catFR1	2	R1273D
430.194	0.834	610412	WORD_OFF	n/a	n/a	MARBLES	n/a	11	1	[0, 0, 0]	n/a	catFR1	2	R1273D
431.028	1.616	611246	WORD	n/a	wordpools/wordpool_categorized_EN.txt	BALL	Toys	12	1	[0, 0, 0]	n/a	catFR1	2	R1273D
432.644	0.0	612862	ENCODING_END	n/a	n/a	n/a	n/a	-999	1	[0, 0, 0]	n/a	catFR1	2	R1273D
432.644	0.136	612862	WORD_OFF	n/a	n/a	BALL	n/a	12	1	[0, 0, 0]	n/a	catFR1	2	R1273D
432.78	0.0	612998	DISTRACT_START	n/a	n/a	n/a	n/a	-999	1	[0, 0, 0]	n/a	catFR1	2	R1273D
432.78	0.015	612998	START	n/a	n/a	n/a	n/a	-999	1	[-999, -999, -999]	n/a	catFR1	2	R1273D
432.795	11.401	613013	PROB	11.377	n/a	n/a	n/a	-999	1	[7, 9, 7]	27.0	catFR1	2	R1273D
444.196	4.552	624413	PROB	4.528	n/a	n/a	n/a	-999	1	[6, 3, 1]	10.0	catFR1	2	R1273D
448.748	8.656	628965	PROB	8.656	n/a	n/a	n/a	-999	1	[9, 2, 4]	14.0	catFR1	2	R1273D
457.404	0.012	637621	STOP	n/a	n/a	n/a	n/a	-999	1	[-999, -999, -999]	n/a	catFR1	2	R1273D
457.416	0.616	637633	DISTRACT_END	n/a	n/a	n/a	n/a	-999	1	[0, 0, 0]	n/a	catFR1	2	R1273D
458.032	0.518	638249	RETRIEVAL_ORIENT	n/a	n/a	n/a	n/a	-999	1	[0, 0, 0]	n/a	catFR1	2	R1273D
458.55	0.862	638767	REC_START	n/a	n/a	n/a	n/a	-999	1	[0, 0, 0]	n/a	catFR1	2	R1273D
459.412	2.996	639628	REC_WORD_VV	0.862	n/a	<>	n/a	-999	1	[0, 0, 0]	n/a	catFR1	2	R1273D
462.408	3.376	642624	REC_WORD	3.858	n/a	BALL	Toys	12	1	[0, 0, 0]	n/a	catFR1	2	R1273D
465.784	3.821	646000	REC_WORD_VV	7.234	n/a	<>	n/a	-999	1	[0, 0, 0]	n/a	catFR1	2	R1273D
469.605	1.297	649821	REC_WORD	11.055	n/a	SUGAR	n/a	-999	1	[0, 0, 0]	n/a	catFR1	2	R1273D
470.902	2.477	651118	REC_WORD	12.352	n/a	PLUM	n/a	-999	1	[0, 0, 0]	n/a	catFR1	2	R1273D
473.379	1.621	653595	REC_WORD	14.829	n/a	LEMON	n/a	-999	1	[0, 0, 0]	n/a	catFR1	2	R1273D
475.0	0.926	655216	REC_WORD	16.45	n/a	LEMONADE	Beverages	1	1	[0, 0, 0]	n/a	catFR1	2	R1273D
475.926	0.629	656142	REC_WORD	17.376	n/a	JUICE	Beverages	2	1	[0, 0, 0]	n/a	catFR1	2	R1273D
476.555	0.877	656770	REC_WORD	18.005	n/a	BROWNIES	Desserts	9	1	[0, 0, 0]	n/a	catFR1	2	R1273D
477.432	0.159	657647	REC_WORD_VV	18.882	n/a	<>	n/a	-999	1	[0, 0, 0]	n/a	catFR1	2	R1273D
477.591	7.965	657806	REC_WORD	19.041	n/a	PASTRY	Desserts	10	1	[0, 0, 0]	n/a	catFR1	2	R1273D
485.556	3.004	665771	REC_WORD_VV	27.006	n/a	<>	n/a	-999	1	[0, 0, 0]	n/a	catFR1	2	R1273D
488.56	5.845	668775	REC_END	n/a	n/a	n/a	n/a	-999	1	[0, 0, 0]	n/a	catFR1	2	R1273D
494.405	0.5	674619	TRIAL	n/a	n/a	n/a	n/a	-999	2	[0, 0, 0]	n/a	catFR1	2	R1273D
494.905	10.428	675119	COUNTDOWN_START	n/a	n/a	n/a	n/a	-999	2	[0, 0, 0]	n/a	catFR1	2	R1273D
505.333	0.008	685547	COUNTDOWN_END	n/a	n/a	n/a	n/a	-999	2	[0, 0, 0]	n/a	catFR1	2	R1273D
505.341	1.618	685555	ORIENT	n/a	n/a	n/a	n/a	-999	2	[0, 0, 0]	n/a	catFR1	2	R1273D
506.959	1.817	687173	ORIENT_OFF	n/a	n/a	n/a	n/a	-999	2	[0, 0, 0]	n/a	catFR1	2	R1273D
508.776	1.616	688990	WORD	n/a	wordpools/wordpool_categorized_EN.txt	LETTUCE	Vegetables	1	2	[0, 0, 0]	n/a	catFR1	2	R1273D
510.392	0.933	690606	WORD_OFF	n/a	n/a	LETTUCE	n/a	1	2	[0, 0, 0]	n/a	catFR1	2	R1273D
511.325	1.601	691539	WORD	n/a	wordpools/wordpool_categorized_EN.txt	CARROT	Vegetables	2	2	[0, 0, 0]	n/a	catFR1	2	R1273D
512.926	0.951	693139	WORD_OFF	n/a	n/a	CARROT	n/a	2	2	[0, 0, 0]	n/a	catFR1	2	R1273D
513.877	1.616	694090	WORD	n/a	wordpools/wordpool_categorized_EN.txt	UNDERWEAR	Clothing	3	2	[0, 0, 0]	n/a	catFR1	2	R1273D
515.493	0.85	695706	WORD_OFF	n/a	n/a	UNDERWEAR	n/a	3	2	[0, 0, 0]	n/a	catFR1	2	R1273D
516.343	1.618	696556	WORD	n/a	wordpools/wordpool_categorized_EN.txt	DRESS	Clothing	4	2	[0, 0, 0]	n/a	catFR1	2	R1273D
517.961	0.9	698174	WORD_OFF	n/a	n/a	DRESS	n/a	4	2	[0, 0, 0]	n/a	catFR1	2	R1273D
518.861	1.616	699074	WORD	n/a	wordpools/wordpool_categorized_EN.txt	GNAT	Insects	5	2	[0, 0, 0]	n/a	catFR1	2	R1273D
520.477	0.9	700690	WORD_OFF	n/a	n/a	GNAT	n/a	5	2	[0, 0, 0]	n/a	catFR1	2	R1273D
521.377	1.618	701590	WORD	n/a	wordpools/wordpool_categorized_EN.txt	LADYBUG	Insects	6	2	[0, 0, 0]	n/a	catFR1	2	R1273D
522.995	0.983	703208	WORD_OFF	n/a	n/a	LADYBUG	n/a	6	2	[0, 0, 0]	n/a	catFR1	2	R1273D
523.978	1.616	704191	WORD	n/a	wordpools/wordpool_categorized_EN.txt	PEAS	Vegetables	7	2	[0, 0, 0]	n/a	catFR1	2	R1273D
525.594	0.867	705807	WORD_OFF	n/a	n/a	PEAS	n/a	7	2	[0, 0, 0]	n/a	catFR1	2	R1273D
526.461	1.617	706674	WORD	n/a	wordpools/wordpool_categorized_EN.txt	SPINACH	Vegetables	8	2	[0, 0, 0]	n/a	catFR1	2	R1273D
528.078	1.017	708291	WORD_OFF	n/a	n/a	SPINACH	n/a	8	2	[0, 0, 0]	n/a	catFR1	2	R1273D
529.095	1.617	709308	WORD	n/a	wordpools/wordpool_categorized_EN.txt	SOCKS	Clothing	9	2	[0, 0, 0]	n/a	catFR1	2	R1273D
530.712	0.95	710924	WORD_OFF	n/a	n/a	SOCKS	n/a	9	2	[0, 0, 0]	n/a	catFR1	2	R1273D
531.662	1.617	711874	WORD	n/a	wordpools/wordpool_categorized_EN.txt	SHOES	Clothing	10	2	[0, 0, 0]	n/a	catFR1	2	R1273D
533.279	0.9	713491	WORD_OFF	n/a	n/a	SHOES	n/a	10	2	[0, 0, 0]	n/a	catFR1	2	R1273D
534.179	1.601	714391	WORD	n/a	wordpools/wordpool_categorized_EN.txt	FLY	Insects	11	2	[0, 0, 0]	n/a	catFR1	2	R1273D
535.78	0.984	715992	WORD_OFF	n/a	n/a	FLY	n/a	11	2	[0, 0, 0]	n/a	catFR1	2	R1273D
536.764	1.616	716976	WORD	n/a	wordpools/wordpool_categorized_EN.txt	SPIDER	Insects	12	2	[0, 0, 0]	n/a	catFR1	2	R1273D
538.38	0.0	718592	WORD_OFF	n/a	n/a	SPIDER	n/a	12	2	[0, 0, 0]	n/a	catFR1	2	R1273D
538.38	0.103	718592	ENCODING_END	n/a	n/a	n/a	n/a	-999	2	[0, 0, 0]	n/a	catFR1	2	R1273D
538.483	0.001	718695	DISTRACT_START	n/a	n/a	n/a	n/a	-999	2	[0, 0, 0]	n/a	catFR1	2	R1273D
538.484	0.013	718696	START	n/a	n/a	n/a	n/a	-999	2	[-999, -999, -999]	n/a	catFR1	2	R1273D
538.497	23.706	718709	PROB	23.706	n/a	n/a	n/a	-999	2	[3, 4, 4]	12.0	catFR1	2	R1273D
562.203	0.015	742414	STOP	n/a	n/a	n/a	n/a	-999	2	[-999, -999, -999]	n/a	catFR1	2	R1273D
562.218	0.684	742429	DISTRACT_END	n/a	n/a	n/a	n/a	-999	2	[0, 0, 0]	n/a	catFR1	2	R1273D
562.902	0.516	743113	RETRIEVAL_ORIENT	n/a	n/a	n/a	n/a	-999	2	[0, 0, 0]	n/a	catFR1	2	R1273D
563.418	3.256	743629	REC_START	n/a	n/a	n/a	n/a	-999	2	[0, 0, 0]	n/a	catFR1	2	R1273D
566.674	0.397	746884	REC_WORD	3.256	n/a	GNAT	Insects	5	2	[0, 0, 0]	n/a	catFR1	2	R1273D
567.071	1.002	747281	REC_WORD	3.653	n/a	SPINACH	Vegetables	8	2	[0, 0, 0]	n/a	catFR1	2	R1273D
568.073	1.398	748283	REC_WORD	4.655	n/a	LADYBUG	Insects	6	2	[0, 0, 0]	n/a	catFR1	2	R1273D
569.471	7.39	749681	REC_WORD_VV	6.053	n/a	<>	n/a	-999	2	[0, 0, 0]	n/a	catFR1	2	R1273D
576.861	0.584	757071	REC_WORD	13.443	n/a	FOOD	n/a	-999	2	[0, 0, 0]	n/a	catFR1	2	R1273D
577.445	11.816	757655	REC_WORD	14.027	n/a	LETTUCE	Vegetables	1	2	[0, 0, 0]	n/a	catFR1	2	R1273D
589.261	4.167	769470	REC_WORD_VV	25.843	n/a	<>	n/a	-999	2	[0, 0, 0]	n/a	catFR1	2	R1273D
593.428	8.196	773637	REC_END	n/a	n/a	n/a	n/a	-999	2	[0, 0, 0]	n/a	catFR1	2	R1273D
601.624	0.5	781832	TRIAL	n/a	n/a	n/a	n/a	-999	3	[0, 0, 0]	n/a	catFR1	2	R1273D
602.124	10.428	782332	COUNTDOWN_START	n/a	n/a	n/a	n/a	-999	3	[0, 0, 0]	n/a	catFR1	2	R1273D
612.552	0.008	792760	COUNTDOWN_END	n/a	n/a	n/a	n/a	-999	3	[0, 0, 0]	n/a	catFR1	2	R1273D
612.56	1.617	792768	ORIENT	n/a	n/a	n/a	n/a	-999	3	[0, 0, 0]	n/a	catFR1	2	R1273D
614.177	2.184	794385	ORIENT_OFF	n/a	n/a	n/a	n/a	-999	3	[0, 0, 0]	n/a	catFR1	2	R1273D
616.361	1.618	796569	WORD	n/a	wordpools/wordpool_categorized_EN.txt	COBBLER	Desserts	1	3	[0, 0, 0]	n/a	catFR1	2	R1273D
617.979	0.9	798186	WORD_OFF	n/a	n/a	COBBLER	n/a	1	3	[0, 0, 0]	n/a	catFR1	2	R1273D
618.879	1.616	799086	WORD	n/a	wordpools/wordpool_categorized_EN.txt	PUDDING	Desserts	2	3	[0, 0, 0]	n/a	catFR1	2	R1273D
620.495	0.9	800702	WORD_OFF	n/a	n/a	PUDDING	n/a	2	3	[0, 0, 0]	n/a	catFR1	2	R1273D
621.395	1.618	801602	WORD	n/a	wordpools/wordpool_categorized_EN.txt	PLANE	Vehicles	3	3	[0, 0, 0]	n/a	catFR1	2	R1273D
623.013	0.834	803220	WORD_OFF	n/a	n/a	PLANE	n/a	3	3	[0, 0, 0]	n/a	catFR1	2	R1273D
623.847	1.615	804054	WORD	n/a	wordpools/wordpool_categorized_EN.txt	BUS	Vehicles	4	3	[0, 0, 0]	n/a	catFR1	2	R1273D
625.462	0.951	805669	WORD_OFF	n/a	n/a	BUS	n/a	4	3	[0, 0, 0]	n/a	catFR1	2	R1273D
626.413	1.618	806620	WORD	n/a	wordpools/wordpool_categorized_EN.txt	BED	Furniture	5	3	[0, 0, 0]	n/a	catFR1	2	R1273D
628.031	0.8	808238	WORD_OFF	n/a	n/a	BED	n/a	5	3	[0, 0, 0]	n/a	catFR1	2	R1273D
628.831	1.616	809038	WORD	n/a	wordpools/wordpool_categorized_EN.txt	SHELF	Furniture	6	3	[0, 0, 0]	n/a	catFR1	2	R1273D
630.447	0.85	810654	WORD_OFF	n/a	n/a	SHELF	n/a	6	3	[0, 0, 0]	n/a	catFR1	2	R1273D
631.297	1.618	811504	WORD	n/a	wordpools/wordpool_categorized_EN.txt	SCOOTER	Vehicles	7	3	[0, 0, 0]	n/a	catFR1	2	R1273D
632.915	0.833	813122	WORD_OFF	n/a	n/a	SCOOTER	n/a	7	3	[0, 0, 0]	n/a	catFR1	2	R1273D
633.748	1.616	813955	WORD	n/a	wordpools/wordpool_categorized_EN.txt	BOAT	Vehicles	8	3	[0, 0, 0]	n/a	catFR1	2	R1273D
635.364	0.984	815571	WORD_OFF	n/a	n/a	BOAT	n/a	8	3	[0, 0, 0]	n/a	catFR1	2	R1273D
636.348	1.618	816554	WORD	n/a	wordpools/wordpool_categorized_EN.txt	CAKE	Desserts	9	3	[0, 0, 0]	n/a	catFR1	2	R1273D
637.966	0.85	818172	WORD_OFF	n/a	n/a	CAKE	n/a	9	3	[0, 0, 0]	n/a	catFR1	2	R1273D
638.816	1.616	819022	WORD	n/a	wordpools/wordpool_categorized_EN.txt	PIE	Desserts	10	3	[0, 0, 0]	n/a	catFR1	2	R1273D
640.432	0.916	820638	WORD_OFF	n/a	n/a	PIE	n/a	10	3	[0, 0, 0]	n/a	catFR1	2	R1273D
641.348	1.619	821554	WORD	n/a	wordpools/wordpool_categorized_EN.txt	DRESSER	Furniture	11	3	[0, 0, 0]	n/a	catFR1	2	R1273D
642.967	0.833	823173	WORD_OFF	n/a	n/a	DRESSER	n/a	11	3	[0, 0, 0]	n/a	catFR1	2	R1273D
643.8	1.616	824006	WORD	n/a	wordpools/wordpool_categorized_EN.txt	BOOKCASE	Furniture	12	3	[0, 0, 0]	n/a	catFR1	2	R1273D
645.416	0.0	825622	ENCODING_END	n/a	n/a	n/a	n/a	-999	3	[0, 0, 0]	n/a	catFR1	2	R1273D
645.416	0.103	825622	WORD_OFF	n/a	n/a	BOOKCASE	n/a	12	3	[0, 0, 0]	n/a	catFR1	2	R1273D
645.519	0.0	825725	DISTRACT_START	n/a	n/a	n/a	n/a	-999	3	[0, 0, 0]	n/a	catFR1	2	R1273D
645.519	0.014	825725	START	n/a	n/a	n/a	n/a	-999	3	[-999, -999, -999]	n/a	catFR1	2	R1273D
645.533	27.326	825739	PROB	27.326	n/a	n/a	n/a	-999	3	[4, 7, 6]	19.0	catFR1	2	R1273D
672.859	0.013	853063	STOP	n/a	n/a	n/a	n/a	-999	3	[-999, -999, -999]	n/a	catFR1	2	R1273D
672.872	0.533	853076	DISTRACT_END	n/a	n/a	n/a	n/a	-999	3	[0, 0, 0]	n/a	catFR1	2	R1273D
673.405	0.518	853609	RETRIEVAL_ORIENT	n/a	n/a	n/a	n/a	-999	3	[0, 0, 0]	n/a	catFR1	2	R1273D
673.923	0.675	854127	REC_START	n/a	n/a	n/a	n/a	-999	3	[0, 0, 0]	n/a	catFR1	2	R1273D
674.598	1.847	854802	REC_WORD_VV	0.675	n/a	<>	n/a	-999	3	[0, 0, 0]	n/a	catFR1	2	R1273D
676.445	1.778	856649	REC_WORD	2.522	n/a	COBBLER	Desserts	1	3	[0, 0, 0]	n/a	catFR1	2	R1273D
678.223	4.187	858427	REC_WORD	4.3	n/a	PUDDING	Desserts	2	3	[0, 0, 0]	n/a	catFR1	2	R1273D
682.41	21.525	862614	REC_WORD_VV	8.487	n/a	<>	n/a	-999	3	[0, 0, 0]	n/a	catFR1	2	R1273D
703.935	6.443	884138	REC_END	n/a	n/a	n/a	n/a	-999	3	[0, 0, 0]	n/a	catFR1	2	R1273D
710.378	0.5	890580	TRIAL	n/a	n/a	n/a	n/a	-999	4	[0, 0, 0]	n/a	catFR1	2	R1273D
710.878	10.428	891080	COUNTDOWN_START	n/a	n/a	n/a	n/a	-999	4	[0, 0, 0]	n/a	catFR1	2	R1273D
721.306	0.007	901508	COUNTDOWN_END	n/a	n/a	n/a	n/a	-999	4	[0, 0, 0]	n/a	catFR1	2	R1273D
721.313	1.618	901515	ORIENT	n/a	n/a	n/a	n/a	-999	4	[0, 0, 0]	n/a	catFR1	2	R1273D
722.931	2.133	903133	ORIENT_OFF	n/a	n/a	n/a	n/a	-999	4	[0, 0, 0]	n/a	catFR1	2	R1273D
725.064	1.617	905265	WORD	n/a	wordpools/wordpool_categorized_EN.txt	GLUE	OfficeSupplies	1	4	[0, 0, 0]	n/a	catFR1	2	R1273D
726.681	0.85	906882	WORD_OFF	n/a	n/a	GLUE	n/a	1	4	[0, 0, 0]	n/a	catFR1	2	R1273D
727.531	1.617	907732	WORD	n/a	wordpools/wordpool_categorized_EN.txt	NOTEBOOK	OfficeSupplies	2	4	[0, 0, 0]	n/a	catFR1	2	R1273D
729.148	0.784	909349	WORD_OFF	n/a	n/a	NOTEBOOK	n/a	2	4	[0, 0, 0]	n/a	catFR1	2	R1273D
729.932	1.616	910133	WORD	n/a	wordpools/wordpool_categorized_EN.txt	HAND	BodyParts	3	4	[0, 0, 0]	n/a	catFR1	2	R1273D
731.548	0.934	911749	WORD_OFF	n/a	n/a	HAND	n/a	3	4	[0, 0, 0]	n/a	catFR1	2	R1273D
732.482	1.617	912683	WORD	n/a	wordpools/wordpool_categorized_EN.txt	EAR	BodyParts	4	4	[0, 0, 0]	n/a	catFR1	2	R1273D
734.099	0.983	914300	WORD_OFF	n/a	n/a	EAR	n/a	4	4	[0, 0, 0]	n/a	catFR1	2	R1273D
735.082	1.617	915283	WORD	n/a	wordpools/wordpool_categorized_EN.txt	HUMIDITY	Weather	5	4	[0, 0, 0]	n/a	catFR1	2	R1273D
736.699	0.8	916900	WORD_OFF	n/a	n/a	HUMIDITY	n/a	5	4	[0, 0, 0]	n/a	catFR1	2	R1273D
737.499	1.617	917700	WORD	n/a	wordpools/wordpool_categorized_EN.txt	HURRICANE	Weather	6	4	[0, 0, 0]	n/a	catFR1	2	R1273D
739.116	0.984	919317	WORD_OFF	n/a	n/a	HURRICANE	n/a	6	4	[0, 0, 0]	n/a	catFR1	2	R1273D
740.1	1.617	920301	WORD	n/a	wordpools/wordpool_categorized_EN.txt	FOOT	BodyParts	7	4	[0, 0, 0]	n/a	catFR1	2	R1273D
741.717	0.817	921918	WORD_OFF	n/a	n/a	FOOT	n/a	7	4	[0, 0, 0]	n/a	catFR1	2	R1273D
742.534	1.617	922734	WORD	n/a	wordpools/wordpool_categorized_EN.txt	EYE	BodyParts	8	4	[0, 0, 0]	n/a	catFR1	2	R1273D
744.151	0.966	924351	WORD_OFF	n/a	n/a	EYE	n/a	8	4	[0, 0, 0]	n/a	catFR1	2	R1273D
745.117	1.619	925317	WORD	n/a	wordpools/wordpool_categorized_EN.txt	PENCIL	OfficeSupplies	9	4	[0, 0, 0]	n/a	catFR1	2	R1273D
746.736	0.832	926936	WORD_OFF	n/a	n/a	PENCIL	n/a	9	4	[0, 0, 0]	n/a	catFR1	2	R1273D
747.568	1.617	927768	WORD	n/a	wordpools/wordpool_categorized_EN.txt	MARKER	OfficeSupplies	10	4	[0, 0, 0]	n/a	catFR1	2	R1273D
749.185	0.867	929385	WORD_OFF	n/a	n/a	MARKER	n/a	10	4	[0, 0, 0]	n/a	catFR1	2	R1273D
750.052	1.617	930252	WORD	n/a	wordpools/wordpool_categorized_EN.txt	WIND	Weather	11	4	[0, 0, 0]	n/a	catFR1	2	R1273D
751.669	0.917	931869	WORD_OFF	n/a	n/a	WIND	n/a	11	4	[0, 0, 0]	n/a	catFR1	2	R1273D
752.586	1.616	932786	WORD	n/a	wordpools/wordpool_categorized_EN.txt	RAIN	Weather	12	4	[0, 0, 0]	n/a	catFR1	2	R1273D
754.202	0.001	934402	WORD_OFF	n/a	n/a	RAIN	n/a	12	4	[0, 0, 0]	n/a	catFR1	2	R1273D
754.203	0.135	934403	ENCODING_END	n/a	n/a	n/a	n/a	-999	4	[0, 0, 0]	n/a	catFR1	2	R1273D
754.338	0.0	934538	DISTRACT_START	n/a	n/a	n/a	n/a	-999	4	[0, 0, 0]	n/a	catFR1	2	R1273D
754.338	0.014	934538	START	n/a	n/a	n/a	n/a	-999	4	[-999, -999, -999]	n/a	catFR1	2	R1273D
754.352	8.702	934552	PROB	8.667	n/a	n/a	n/a	-999	4	[9, 8, 9]	25.0	catFR1	2	R1273D
763.054	12.652	943253	PROB	12.652	n/a	n/a	n/a	-999	4	[8, 6, 9]	24.0	catFR1	2	R1273D
775.706	0.018	955905	STOP	n/a	n/a	n/a	n/a	-999	4	[-999, -999, -999]	n/a	catFR1	2	R1273D
775.724	0.699	955923	DISTRACT_END	n/a	n/a	n/a	n/a	-999	4	[0, 0, 0]	n/a	catFR1	2	R1273D
776.423	0.519	956622	RETRIEVAL_ORIENT	n/a	n/a	n/a	n/a	-999	4	[0, 0, 0]	n/a	catFR1	2	R1273D
776.942	3.204	957141	REC_START	n/a	n/a	n/a	n/a	-999	4	[0, 0, 0]	n/a	catFR1	2	R1273D
780.146	26.806	960344	REC_WORD_VV	3.204	n/a	<>	n/a	-999	4	[0, 0, 0]	n/a	catFR1	2	R1273D
806.952	6.395	987149	REC_END	n/a	n/a	n/a	n/a	-999	4	[0, 0, 0]	n/a	catFR1	2	R1273D
813.347	0.5	993543	TRIAL	n/a	n/a	n/a	n/a	-999	5	[0, 0, 0]	n/a	catFR1	2	R1273D
813.847	10.428	994043	COUNTDOWN_START	n/a	n/a	n/a	n/a	-999	5	[0, 0, 0]	n/a	catFR1	2	R1273D
824.275	0.007	1004471	COUNTDOWN_END	n/a	n/a	n/a	n/a	-999	5	[0, 0, 0]	n/a	catFR1	2	R1273D
824.282	1.618	1004478	ORIENT	n/a	n/a	n/a	n/a	-999	5	[0, 0, 0]	n/a	catFR1	2	R1273D
825.9	1.95	1006096	ORIENT_OFF	n/a	n/a	n/a	n/a	-999	5	[0, 0, 0]	n/a	catFR1	2	R1273D
827.85	1.616	1008046	WORD	n/a	wordpools/wordpool_categorized_EN.txt	PEN	OfficeSupplies	1	5	[0, 0, 0]	n/a	catFR1	2	R1273D
829.466	0.784	1009662	WORD_OFF	n/a	n/a	PEN	n/a	1	5	[0, 0, 0]	n/a	catFR1	2	R1273D
830.25	1.618	1010446	WORD	n/a	wordpools/wordpool_categorized_EN.txt	BINDER	OfficeSupplies	2	5	[0, 0, 0]	n/a	catFR1	2	R1273D
831.868	0.9	1012063	WORD_OFF	n/a	n/a	BINDER	n/a	2	5	[0, 0, 0]	n/a	catFR1	2	R1273D
832.768	1.616	1012963	WORD	n/a	wordpools/wordpool_categorized_EN.txt	COLANDER	KitchenTools	3	5	[0, 0, 0]	n/a	catFR1	2	R1273D
834.384	1.0	1014579	WORD_OFF	n/a	n/a	COLANDER	n/a	3	5	[0, 0, 0]	n/a	catFR1	2	R1273D
835.384	1.618	1015579	WORD	n/a	wordpools/wordpool_categorized_EN.txt	WHISK	KitchenTools	4	5	[0, 0, 0]	n/a	catFR1	2	R1273D
837.002	0.933	1017197	WORD_OFF	n/a	n/a	WHISK	n/a	4	5	[0, 0, 0]	n/a	catFR1	2	R1273D
837.935	1.616	1018130	WORD	n/a	wordpools/wordpool_categorized_EN.txt	MOUSSE	Desserts	5	5	[0, 0, 0]	n/a	catFR1	2	R1273D
839.551	0.934	1019746	WORD_OFF	n/a	n/a	MOUSSE	n/a	5	5	[0, 0, 0]	n/a	catFR1	2	R1273D
840.485	1.617	1020680	WORD	n/a	wordpools/wordpool_categorized_EN.txt	CHEESECAKE	Desserts	6	5	[0, 0, 0]	n/a	catFR1	2	R1273D
842.102	0.768	1022297	WORD_OFF	n/a	n/a	CHEESECAKE	n/a	6	5	[0, 0, 0]	n/a	catFR1	2	R1273D
842.87	1.616	1023065	WORD	n/a	wordpools/wordpool_categorized_EN.txt	FOLDER	OfficeSupplies	7	5	[0, 0, 0]	n/a	catFR1	2	R1273D
844.486	0.85	1024681	WORD_OFF	n/a	n/a	FOLDER	n/a	7	5	[0, 0, 0]	n/a	catFR1	2	R1273D
845.336	1.618	1025531	WORD	n/a	wordpools/wordpool_categorized_EN.txt	ERASER	OfficeSupplies	8	5	[0, 0, 0]	n/a	catFR1	2	R1273D
846.954	0.983	1027149	WORD_OFF	n/a	n/a	ERASER	n/a	8	5	[0, 0, 0]	n/a	catFR1	2	R1273D
847.937	1.616	1028132	WORD	n/a	wordpools/wordpool_categorized_EN.txt	GRATER	KitchenTools	9	5	[0, 0, 0]	n/a	catFR1	2	R1273D
849.553	1.0	1029747	WORD_OFF	n/a	n/a	GRATER	n/a	9	5	[0, 0, 0]	n/a	catFR1	2	R1273D
850.553	1.617	1030747	WORD	n/a	wordpools/wordpool_categorized_EN.txt	CORKSCREW	KitchenTools	10	5	[0, 0, 0]	n/a	catFR1	2	R1273D
852.17	0.9	1032364	WORD_OFF	n/a	n/a	CORKSCREW	n/a	10	5	[0, 0, 0]	n/a	catFR1	2	R1273D
853.07	1.617	1033264	WORD	n/a	wordpools/wordpool_categorized_EN.txt	CUPCAKE	Desserts	11	5	[0, 0, 0]	n/a	catFR1	2	R1273D
854.687	0.784	1034881	WORD_OFF	n/a	n/a	CUPCAKE	n/a	11	5	[0, 0, 0]	n/a	catFR1	2	R1273D
855.471	1.617	1035665	WORD	n/a	wordpools/wordpool_categorized_EN.txt	FUDGE	Desserts	12	5	[0, 0, 0]	n/a	catFR1	2	R1273D
857.088	0.0	1037282	ENCODING_END	n/a	n/a	n/a	n/a	-999	5	[0, 0, 0]	n/a	catFR1	2	R1273D
857.088	0.102	1037282	WORD_OFF	n/a	n/a	FUDGE	n/a	12	5	[0, 0, 0]	n/a	catFR1	2	R1273D
857.19	0.0	1037384	DISTRACT_START	n/a	n/a	n/a	n/a	-999	5	[0, 0, 0]	n/a	catFR1	2	R1273D
857.19	0.015	1037384	START	n/a	n/a	n/a	n/a	-999	5	[-999, -999, -999]	n/a	catFR1	2	R1273D
857.205	7.501	1037399	PROB	7.469	n/a	n/a	n/a	-999	5	[8, 3, 3]	15.0	catFR1	2	R1273D
864.706	3.884	1044900	PROB	3.858	n/a	n/a	n/a	-999	5	[7, 1, 8]	16.0	catFR1	2	R1273D
868.59	23.764	1048783	PROB	23.764	n/a	n/a	n/a	-999	5	[6, 1, 8]	15.0	catFR1	2	R1273D
892.354	0.007	1072546	STOP	n/a	n/a	n/a	n/a	-999	5	[-999, -999, -999]	n/a	catFR1	2	R1273D
892.361	0.568	1072553	DISTRACT_END	n/a	n/a	n/a	n/a	-999	5	[0, 0, 0]	n/a	catFR1	2	R1273D
892.929	0.516	1073121	RETRIEVAL_ORIENT	n/a	n/a	n/a	n/a	-999	5	[0, 0, 0]	n/a	catFR1	2	R1273D
893.445	2.761	1073637	REC_START	n/a	n/a	n/a	n/a	-999	5	[0, 0, 0]	n/a	catFR1	2	R1273D
896.206	2.152	1076398	REC_WORD	2.761	n/a	COLANDER	KitchenTools	3	5	[0, 0, 0]	n/a	catFR1	2	R1273D
898.358	0.823	1078550	REC_WORD	4.913	n/a	RULER	n/a	-999	5	[0, 0, 0]	n/a	catFR1	2	R1273D
899.181	0.868	1079373	REC_WORD	5.736	n/a	PEN	OfficeSupplies	1	5	[0, 0, 0]	n/a	catFR1	2	R1273D
900.049	2.208	1080241	REC_WORD	6.604	n/a	BINDER	OfficeSupplies	2	5	[0, 0, 0]	n/a	catFR1	2	R1273D
902.257	3.037	1082448	REC_WORD_VV	8.812	n/a	<>	n/a	-999	5	[0, 0, 0]	n/a	catFR1	2	R1273D
905.294	2.438	1085485	REC_WORD	11.849	n/a	STRAINER	n/a	-999	5	[0, 0, 0]	n/a	catFR1	2	R1273D
907.732	2.846	1087923	REC_WORD_VV	14.287	n/a	<>	n/a	-999	5	[0, 0, 0]	n/a	catFR1	2	R1273D
910.578	3.894	1090769	REC_WORD	17.133	n/a	CHEESECAKE	Desserts	6	5	[0, 0, 0]	n/a	catFR1	2	R1273D
914.472	8.981	1094663	REC_WORD_VV	21.027	n/a	<>	n/a	-999	5	[0, 0, 0]	n/a	catFR1	2	R1273D
923.453	13.367	1103643	REC_END	n/a	n/a	n/a	n/a	-999	5	[0, 0, 0]	n/a	catFR1	2	R1273D
936.82	0.5	1117009	TRIAL	n/a	n/a	n/a	n/a	-999	6	[0, 0, 0]	n/a	catFR1	2	R1273D
937.32	10.428	1117509	COUNTDOWN_START	n/a	n/a	n/a	n/a	-999	6	[0, 0, 0]	n/a	catFR1	2	R1273D
947.748	0.007	1127937	COUNTDOWN_END	n/a	n/a	n/a	n/a	-999	6	[0, 0, 0]	n/a	catFR1	2	R1273D
947.755	1.616	1127944	ORIENT	n/a	n/a	n/a	n/a	-999	6	[0, 0, 0]	n/a	catFR1	2	R1273D
949.371	2.251	1129560	ORIENT_OFF	n/a	n/a	n/a	n/a	-999	6	[0, 0, 0]	n/a	catFR1	2	R1273D
951.622	1.617	1131811	WORD	n/a	wordpools/wordpool_categorized_EN.txt	APPLE	Fruit	1	6	[0, 0, 0]	n/a	catFR1	2	R1273D
953.239	0.916	1133428	WORD_OFF	n/a	n/a	APPLE	n/a	1	6	[0, 0, 0]	n/a	catFR1	2	R1273D
954.155	1.601	1134344	WORD	n/a	wordpools/wordpool_categorized_EN.txt	PEAR	Fruit	2	6	[0, 0, 0]	n/a	catFR1	2	R1273D
955.756	0.984	1135944	WORD_OFF	n/a	n/a	PEAR	n/a	2	6	[0, 0, 0]	n/a	catFR1	2	R1273D
956.74	1.616	1136928	WORD	n/a	wordpools/wordpool_categorized_EN.txt	STREAM	Landscapes	3	6	[0, 0, 0]	n/a	catFR1	2	R1273D
958.356	0.867	1138544	WORD_OFF	n/a	n/a	STREAM	n/a	3	6	[0, 0, 0]	n/a	catFR1	2	R1273D
959.223	1.618	1139411	WORD	n/a	wordpools/wordpool_categorized_EN.txt	LAKE	Landscapes	4	6	[0, 0, 0]	n/a	catFR1	2	R1273D
960.841	0.9	1141029	WORD_OFF	n/a	n/a	LAKE	n/a	4	6	[0, 0, 0]	n/a	catFR1	2	R1273D
961.741	1.616	1141929	WORD	n/a	wordpools/wordpool_categorized_EN.txt	COLA	Beverages	5	6	[0, 0, 0]	n/a	catFR1	2	R1273D
963.357	0.85	1143545	WORD_OFF	n/a	n/a	COLA	n/a	5	6	[0, 0, 0]	n/a	catFR1	2	R1273D
964.207	1.618	1144395	WORD	n/a	wordpools/wordpool_categorized_EN.txt	WATER	Beverages	6	6	[0, 0, 0]	n/a	catFR1	2	R1273D
965.825	0.883	1146013	WORD_OFF	n/a	n/a	WATER	n/a	6	6	[0, 0, 0]	n/a	catFR1	2	R1273D
966.708	1.617	1146896	WORD	n/a	wordpools/wordpool_categorized_EN.txt	PEACH	Fruit	7	6	[0, 0, 0]	n/a	catFR1	2	R1273D
968.325	0.85	1148513	WORD_OFF	n/a	n/a	PEACH	n/a	7	6	[0, 0, 0]	n/a	catFR1	2	R1273D
969.175	1.601	1149363	WORD	n/a	wordpools/wordpool_categorized_EN.txt	GRAPE	Fruit	8	6	[0, 0, 0]	n/a	catFR1	2	R1273D
970.776	0.866	1150964	WORD_OFF	n/a	n/a	GRAPE	n/a	8	6	[0, 0, 0]	n/a	catFR1	2	R1273D
971.642	1.617	1151830	WORD	n/a	wordpools/wordpool_categorized_EN.txt	WOODS	Landscapes	9	6	[0, 0, 0]	n/a	catFR1	2	R1273D
973.259	0.8	1153446	WORD_OFF	n/a	n/a	WOODS	n/a	9	6	[0, 0, 0]	n/a	catFR1	2	R1273D
974.059	1.617	1154246	WORD	n/a	wordpools/wordpool_categorized_EN.txt	OCEAN	Landscapes	10	6	[0, 0, 0]	n/a	catFR1	2	R1273D
975.676	0.8	1155863	WORD_OFF	n/a	n/a	OCEAN	n/a	10	6	[0, 0, 0]	n/a	catFR1	2	R1273D
976.476	1.617	1156663	WORD	n/a	wordpools/wordpool_categorized_EN.txt	WINE	Beverages	11	6	[0, 0, 0]	n/a	catFR1	2	R1273D
978.093	0.935	1158280	WORD_OFF	n/a	n/a	WINE	n/a	11	6	[0, 0, 0]	n/a	catFR1	2	R1273D
979.028	1.616	1159215	WORD	n/a	wordpools/wordpool_categorized_EN.txt	MILK	Beverages	12	6	[0, 0, 0]	n/a	catFR1	2	R1273D
980.644	0.0	1160831	ENCODING_END	n/a	n/a	n/a	n/a	-999	6	[0, 0, 0]	n/a	catFR1	2	R1273D
980.644	0.134	1160831	WORD_OFF	n/a	n/a	MILK	n/a	12	6	[0, 0, 0]	n/a	catFR1	2	R1273D
980.778	0.0	1160965	DISTRACT_START	n/a	n/a	n/a	n/a	-999	6	[0, 0, 0]	n/a	catFR1	2	R1273D
980.778	0.017	1160965	START	n/a	n/a	n/a	n/a	-999	6	[-999, -999, -999]	n/a	catFR1	2	R1273D
980.795	10.567	1160982	PROB	10.544	n/a	n/a	n/a	-999	6	[9, 6, 4]	19.0	catFR1	2	R1273D
991.362	4.734	1171548	PROB	4.712	n/a	n/a	n/a	-999	6	[1, 1, 6]	8.0	catFR1	2	R1273D
996.096	5.812	1176282	PROB	5.812	n/a	n/a	n/a	-999	6	[1, 5, 3]	89.0	catFR1	2	R1273D
1001.908	0.007	1182094	STOP	n/a	n/a	n/a	n/a	-999	6	[-999, -999, -999]	n/a	catFR1	2	R1273D
1001.915	0.649	1182101	DISTRACT_END	n/a	n/a	n/a	n/a	-999	6	[0, 0, 0]	n/a	catFR1	2	R1273D
1002.564	0.518	1182750	RETRIEVAL_ORIENT	n/a	n/a	n/a	n/a	-999	6	[0, 0, 0]	n/a	catFR1	2	R1273D
1003.082	29.071	1183268	REC_START	n/a	n/a	n/a	n/a	-999	6	[0, 0, 0]	n/a	catFR1	2	R1273D
1032.153	0.94	1212337	REC_WORD_VV	29.071	n/a	<>	n/a	-999	6	[0, 0, 0]	n/a	catFR1	2	R1273D
1033.093	5.745	1213277	REC_END	n/a	n/a	n/a	n/a	-999	6	[0, 0, 0]	n/a	catFR1	2	R1273D
1038.838	0.5	1219022	TRIAL	n/a	n/a	n/a	n/a	-999	7	[0, 0, 0]	n/a	catFR1	2	R1273D
1039.338	10.428	1219522	COUNTDOWN_START	n/a	n/a	n/a	n/a	-999	7	[0, 0, 0]	n/a	catFR1	2	R1273D
1049.766	0.008	1229949	COUNTDOWN_END	n/a	n/a	n/a	n/a	-999	7	[0, 0, 0]	n/a	catFR1	2	R1273D
1049.774	1.616	1229957	ORIENT	n/a	n/a	n/a	n/a	-999	7	[0, 0, 0]	n/a	catFR1	2	R1273D
1051.39	1.884	1231573	ORIENT_OFF	n/a	n/a	n/a	n/a	-999	7	[0, 0, 0]	n/a	catFR1	2	R1273D
1053.274	1.617	1233457	WORD	n/a	wordpools/wordpool_categorized_EN.txt	SODA	Beverages	1	7	[0, 0, 0]	n/a	catFR1	2	R1273D
1054.891	0.884	1235074	WORD_OFF	n/a	n/a	SODA	n/a	1	7	[0, 0, 0]	n/a	catFR1	2	R1273D
1055.775	1.616	1235958	WORD	n/a	wordpools/wordpool_categorized_EN.txt	BEER	Beverages	2	7	[0, 0, 0]	n/a	catFR1	2	R1273D
1057.391	0.967	1237574	WORD_OFF	n/a	n/a	BEER	n/a	2	7	[0, 0, 0]	n/a	catFR1	2	R1273D
1058.358	1.601	1238541	WORD	n/a	wordpools/wordpool_categorized_EN.txt	WILLOW	Trees	3	7	[0, 0, 0]	n/a	catFR1	2	R1273D
1059.959	1.017	1240142	WORD_OFF	n/a	n/a	WILLOW	n/a	3	7	[0, 0, 0]	n/a	catFR1	2	R1273D
1060.976	1.616	1241158	WORD	n/a	wordpools/wordpool_categorized_EN.txt	SPRUCE	Trees	4	7	[0, 0, 0]	n/a	catFR1	2	R1273D
1062.592	0.783	1242774	WORD_OFF	n/a	n/a	SPRUCE	n/a	4	7	[0, 0, 0]	n/a	catFR1	2	R1273D
1063.375	1.618	1243557	WORD	n/a	wordpools/wordpool_categorized_EN.txt	CHEETAH	Zoo	5	7	[0, 0, 0]	n/a	catFR1	2	R1273D
1064.993	0.951	1245175	WORD_OFF	n/a	n/a	CHEETAH	n/a	5	7	[0, 0, 0]	n/a	catFR1	2	R1273D
1065.944	1.615	1246126	WORD	n/a	wordpools/wordpool_categorized_EN.txt	BEAR	Zoo	6	7	[0, 0, 0]	n/a	catFR1	2	R1273D
1067.559	0.984	1247741	WORD_OFF	n/a	n/a	BEAR	n/a	6	7	[0, 0, 0]	n/a	catFR1	2	R1273D
1068.543	1.617	1248725	WORD	n/a	wordpools/wordpool_categorized_EN.txt	MAPLE	Trees	7	7	[0, 0, 0]	n/a	catFR1	2	R1273D
1070.16	0.784	1250342	WORD_OFF	n/a	n/a	MAPLE	n/a	7	7	[0, 0, 0]	n/a	catFR1	2	R1273D
1070.944	1.616	1251126	WORD	n/a	wordpools/wordpool_categorized_EN.txt	ELM	Trees	8	7	[0, 0, 0]	n/a	catFR1	2	R1273D
1072.56	0.984	1252742	WORD_OFF	n/a	n/a	ELM	n/a	8	7	[0, 0, 0]	n/a	catFR1	2	R1273D
1073.544	1.617	1253726	WORD	n/a	wordpools/wordpool_categorized_EN.txt	TEA	Beverages	9	7	[0, 0, 0]	n/a	catFR1	2	R1273D
1075.161	0.834	1255343	WORD_OFF	n/a	n/a	TEA	n/a	9	7	[0, 0, 0]	n/a	catFR1	2	R1273D
1075.995	1.616	1256177	WORD	n/a	wordpools/wordpool_categorized_EN.txt	CIDER	Beverages	10	7	[0, 0, 0]	n/a	catFR1	2	R1273D
1077.611	0.767	1257793	WORD_OFF	n/a	n/a	CIDER	n/a	10	7	[0, 0, 0]	n/a	catFR1	2	R1273D
1078.378	1.601	1258560	WORD	n/a	wordpools/wordpool_categorized_EN.txt	ELEPHANT	Zoo	11	7	[0, 0, 0]	n/a	catFR1	2	R1273D
1079.979	0.767	1260160	WORD_OFF	n/a	n/a	ELEPHANT	n/a	11	7	[0, 0, 0]	n/a	catFR1	2	R1273D
1080.746	1.616	1260927	WORD	n/a	wordpools/wordpool_categorized_EN.txt	MONKEY	Zoo	12	7	[0, 0, 0]	n/a	catFR1	2	R1273D
1082.362	0.0	1262543	ENCODING_END	n/a	n/a	n/a	n/a	-999	7	[0, 0, 0]	n/a	catFR1	2	R1273D
1082.362	0.131	1262543	WORD_OFF	n/a	n/a	MONKEY	n/a	12	7	[0, 0, 0]	n/a	catFR1	2	R1273D
1082.493	0.0	1262674	DISTRACT_START	n/a	n/a	n/a	n/a	-999	7	[0, 0, 0]	n/a	catFR1	2	R1273D
1082.493	0.019	1262674	START	n/a	n/a	n/a	n/a	-999	7	[-999, -999, -999]	n/a	catFR1	2	R1273D
1082.512	18.587	1262693	PROB	18.556	n/a	n/a	n/a	-999	7	[6, 5, 6]	17.0	catFR1	2	R1273D
1101.099	5.271	1281279	PROB	5.271	n/a	n/a	n/a	-999	7	[1, 2, 3]	6.0	catFR1	2	R1273D
1106.37	0.013	1286550	STOP	n/a	n/a	n/a	n/a	-999	7	[-999, -999, -999]	n/a	catFR1	2	R1273D
1106.383	0.7	1286563	DISTRACT_END	n/a	n/a	n/a	n/a	-999	7	[0, 0, 0]	n/a	catFR1	2	R1273D
1107.083	0.518	1287263	RETRIEVAL_ORIENT	n/a	n/a	n/a	n/a	-999	7	[0, 0, 0]	n/a	catFR1	2	R1273D
1107.601	8.304	1287781	REC_START	n/a	n/a	n/a	n/a	-999	7	[0, 0, 0]	n/a	catFR1	2	R1273D
1115.905	0.565	1296084	REC_WORD	8.304	n/a	MONKEY	Zoo	12	7	[0, 0, 0]	n/a	catFR1	2	R1273D
1116.47	0.477	1296649	REC_WORD_VV	8.869	n/a	<>	n/a	-999	7	[0, 0, 0]	n/a	catFR1	2	R1273D
1116.947	0.95	1297126	REC_WORD	9.346	n/a	BEAR	Zoo	6	7	[0, 0, 0]	n/a	catFR1	2	R1273D
1117.897	0.392	1298076	REC_WORD_VV	10.296	n/a	<>	n/a	-999	7	[0, 0, 0]	n/a	catFR1	2	R1273D
1118.289	0.768	1298468	REC_WORD	10.688	n/a	WATER	n/a	-999	7	[0, 0, 0]	n/a	catFR1	2	R1273D
1119.057	18.555	1299236	REC_WORD	11.456	n/a	SODA	Beverages	1	7	[0, 0, 0]	n/a	catFR1	2	R1273D
1137.612	8.995	1317790	REC_END	n/a	n/a	n/a	n/a	-999	7	[0, 0, 0]	n/a	catFR1	2	R1273D
1146.607	0.5	1326785	TRIAL	n/a	n/a	n/a	n/a	-999	8	[0, 0, 0]	n/a	catFR1	2	R1273D
1147.107	10.428	1327285	COUNTDOWN_START	n/a	n/a	n/a	n/a	-999	8	[0, 0, 0]	n/a	catFR1	2	R1273D
1157.535	0.007	1337712	COUNTDOWN_END	n/a	n/a	n/a	n/a	-999	8	[0, 0, 0]	n/a	catFR1	2	R1273D
1157.542	1.617	1337719	ORIENT	n/a	n/a	n/a	n/a	-999	8	[0, 0, 0]	n/a	catFR1	2	R1273D
1159.159	2.034	1339336	ORIENT_OFF	n/a	n/a	n/a	n/a	-999	8	[0, 0, 0]	n/a	catFR1	2	R1273D
1161.193	1.618	1341370	WORD	n/a	wordpools/wordpool_categorized_EN.txt	HALLWAY	Building	1	8	[0, 0, 0]	n/a	catFR1	2	R1273D
1162.811	0.833	1342988	WORD_OFF	n/a	n/a	HALLWAY	n/a	1	8	[0, 0, 0]	n/a	catFR1	2	R1273D
1163.644	1.617	1343821	WORD	n/a	wordpools/wordpool_categorized_EN.txt	CEILING	Building	2	8	[0, 0, 0]	n/a	catFR1	2	R1273D
1165.261	0.966	1345438	WORD_OFF	n/a	n/a	CEILING	n/a	2	8	[0, 0, 0]	n/a	catFR1	2	R1273D
1166.227	1.618	1346404	WORD	n/a	wordpools/wordpool_categorized_EN.txt	ROBIN	Birds	3	8	[0, 0, 0]	n/a	catFR1	2	R1273D
1167.845	0.799	1348021	WORD_OFF	n/a	n/a	ROBIN	n/a	3	8	[0, 0, 0]	n/a	catFR1	2	R1273D
1168.644	1.617	1348820	WORD	n/a	wordpools/wordpool_categorized_EN.txt	SEAGULL	Birds	4	8	[0, 0, 0]	n/a	catFR1	2	R1273D
1170.261	0.768	1350437	WORD_OFF	n/a	n/a	SEAGULL	n/a	4	8	[0, 0, 0]	n/a	catFR1	2	R1273D
1171.029	1.616	1351205	WORD	n/a	wordpools/wordpool_categorized_EN.txt	MOTORCYCLE	Vehicles	5	8	[0, 0, 0]	n/a	catFR1	2	R1273D
1172.645	0.917	1352821	WORD_OFF	n/a	n/a	MOTORCYCLE	n/a	5	8	[0, 0, 0]	n/a	catFR1	2	R1273D
1173.562	1.617	1353738	WORD	n/a	wordpools/wordpool_categorized_EN.txt	TRAIN	Vehicles	6	8	[0, 0, 0]	n/a	catFR1	2	R1273D
1175.179	0.784	1355355	WORD_OFF	n/a	n/a	TRAIN	n/a	6	8	[0, 0, 0]	n/a	catFR1	2	R1273D
1175.963	1.616	1356139	WORD	n/a	wordpools/wordpool_categorized_EN.txt	HAWK	Birds	7	8	[0, 0, 0]	n/a	catFR1	2	R1273D
1177.579	0.817	1357755	WORD_OFF	n/a	n/a	HAWK	n/a	7	8	[0, 0, 0]	n/a	catFR1	2	R1273D
1178.396	1.601	1358572	WORD	n/a	wordpools/wordpool_categorized_EN.txt	GOOSE	Birds	8	8	[0, 0, 0]	n/a	catFR1	2	R1273D
1179.997	0.801	1360173	WORD_OFF	n/a	n/a	GOOSE	n/a	8	8	[0, 0, 0]	n/a	catFR1	2	R1273D
1180.798	1.616	1360974	WORD	n/a	wordpools/wordpool_categorized_EN.txt	ATTIC	Building	9	8	[0, 0, 0]	n/a	catFR1	2	R1273D
1182.414	0.95	1362590	WORD_OFF	n/a	n/a	ATTIC	n/a	9	8	[0, 0, 0]	n/a	catFR1	2	R1273D
1183.364	1.618	1363540	WORD	n/a	wordpools/wordpool_categorized_EN.txt	FOUNDATION	Building	10	8	[0, 0, 0]	n/a	catFR1	2	R1273D
1184.982	0.916	1365157	WORD_OFF	n/a	n/a	FOUNDATION	n/a	10	8	[0, 0, 0]	n/a	catFR1	2	R1273D
1185.898	1.617	1366073	WORD	n/a	wordpools/wordpool_categorized_EN.txt	TRUCK	Vehicles	11	8	[0, 0, 0]	n/a	catFR1	2	R1273D
1187.515	0.85	1367690	WORD_OFF	n/a	n/a	TRUCK	n/a	11	8	[0, 0, 0]	n/a	catFR1	2	R1273D
1188.365	1.618	1368540	WORD	n/a	wordpools/wordpool_categorized_EN.txt	VAN	Vehicles	12	8	[0, 0, 0]	n/a	catFR1	2	R1273D
1189.983	0.0	1370158	ENCODING_END	n/a	n/a	n/a	n/a	-999	8	[0, 0, 0]	n/a	catFR1	2	R1273D
1189.983	0.1	1370158	WORD_OFF	n/a	n/a	VAN	n/a	12	8	[0, 0, 0]	n/a	catFR1	2	R1273D
1190.083	0.001	1370258	DISTRACT_START	n/a	n/a	n/a	n/a	-999	8	[0, 0, 0]	n/a	catFR1	2	R1273D
1190.084	0.014	1370259	START	n/a	n/a	n/a	n/a	-999	8	[-999, -999, -999]	n/a	catFR1	2	R1273D
1190.098	27.136	1370273	PROB	27.136	n/a	n/a	n/a	-999	8	[8, 6, 8]	27.0	catFR1	2	R1273D
1217.234	0.02	1397408	STOP	n/a	n/a	n/a	n/a	-999	8	[-999, -999, -999]	n/a	catFR1	2	R1273D
1217.254	0.534	1397428	DISTRACT_END	n/a	n/a	n/a	n/a	-999	8	[0, 0, 0]	n/a	catFR1	2	R1273D
1217.788	0.516	1397962	RETRIEVAL_ORIENT	n/a	n/a	n/a	n/a	-999	8	[0, 0, 0]	n/a	catFR1	2	R1273D
1218.304	0.225	1398478	REC_START	n/a	n/a	n/a	n/a	-999	8	[0, 0, 0]	n/a	catFR1	2	R1273D
1218.529	4.742	1398703	REC_WORD_VV	0.225	n/a	<>	n/a	-999	8	[0, 0, 0]	n/a	catFR1	2	R1273D
1223.271	2.981	1403444	REC_WORD	4.967	n/a	GOOSE	Birds	8	8	[0, 0, 0]	n/a	catFR1	2	R1273D
1226.252	4.817	1406425	REC_WORD_VV	7.948	n/a	<>	n/a	-999	8	[0, 0, 0]	n/a	catFR1	2	R1273D
1231.069	0.882	1411242	REC_WORD	12.765	n/a	SODA	n/a	-999	8	[0, 0, 0]	n/a	catFR1	2	R1273D
1231.951	1.051	1412124	REC_WORD	13.647	n/a	WATER	n/a	-999	8	[0, 0, 0]	n/a	catFR1	2	R1273D
1233.002	9.373	1413175	REC_WORD	14.698	n/a	BEER	n/a	-999	8	[0, 0, 0]	n/a	catFR1	2	R1273D
1242.375	1.79	1422547	REC_WORD	24.071	n/a	GOOSE	Birds	8	8	[0, 0, 0]	n/a	catFR1	2	R1273D
1244.165	4.151	1424337	REC_WORD_VV	25.861	n/a	<>	n/a	-999	8	[0, 0, 0]	n/a	catFR1	2	R1273D
1248.316	8.128	1428488	REC_END	n/a	n/a	n/a	n/a	-999	8	[0, 0, 0]	n/a	catFR1	2	R1273D
1256.444	0.5	1436615	TRIAL	n/a	n/a	n/a	n/a	-999	9	[0, 0, 0]	n/a	catFR1	2	R1273D
1256.944	10.428	1437115	COUNTDOWN_START	n/a	n/a	n/a	n/a	-999	9	[0, 0, 0]	n/a	catFR1	2	R1273D
1267.372	0.007	1447543	COUNTDOWN_END	n/a	n/a	n/a	n/a	-999	9	[0, 0, 0]	n/a	catFR1	2	R1273D
1267.379	1.618	1447550	ORIENT	n/a	n/a	n/a	n/a	-999	9	[0, 0, 0]	n/a	catFR1	2	R1273D
1268.997	2.083	1449168	ORIENT_OFF	n/a	n/a	n/a	n/a	-999	9	[0, 0, 0]	n/a	catFR1	2	R1273D
1271.08	1.617	1451251	WORD	n/a	wordpools/wordpool_categorized_EN.txt	BATHROOM	Building	1	9	[0, 0, 0]	n/a	catFR1	2	R1273D
1272.697	0.8	1452868	WORD_OFF	n/a	n/a	BATHROOM	n/a	1	9	[0, 0, 0]	n/a	catFR1	2	R1273D
1273.497	1.617	1453667	WORD	n/a	wordpools/wordpool_categorized_EN.txt	WALL	Building	2	9	[0, 0, 0]	n/a	catFR1	2	R1273D
1275.114	0.901	1455284	WORD_OFF	n/a	n/a	WALL	n/a	2	9	[0, 0, 0]	n/a	catFR1	2	R1273D
1276.015	1.616	1456185	WORD	n/a	wordpools/wordpool_categorized_EN.txt	CUCUMBER	Vegetables	3	9	[0, 0, 0]	n/a	catFR1	2	R1273D
1277.631	0.9	1457801	WORD_OFF	n/a	n/a	CUCUMBER	n/a	3	9	[0, 0, 0]	n/a	catFR1	2	R1273D
1278.531	1.617	1458701	WORD	n/a	wordpools/wordpool_categorized_EN.txt	CELERY	Vegetables	4	9	[0, 0, 0]	n/a	catFR1	2	R1273D
1280.148	0.95	1460318	WORD_OFF	n/a	n/a	CELERY	n/a	4	9	[0, 0, 0]	n/a	catFR1	2	R1273D
1281.098	1.617	1461268	WORD	n/a	wordpools/wordpool_categorized_EN.txt	JELLYFISH	OceanAnimals	5	9	[0, 0, 0]	n/a	catFR1	2	R1273D
1282.715	1.0	1462885	WORD_OFF	n/a	n/a	JELLYFISH	n/a	5	9	[0, 0, 0]	n/a	catFR1	2	R1273D
1283.715	1.617	1463885	WORD	n/a	wordpools/wordpool_categorized_EN.txt	SHRIMP	OceanAnimals	6	9	[0, 0, 0]	n/a	catFR1	2	R1273D
1285.332	0.917	1465502	WORD_OFF	n/a	n/a	SHRIMP	n/a	6	9	[0, 0, 0]	n/a	catFR1	2	R1273D
1286.249	1.618	1466419	WORD	n/a	wordpools/wordpool_categorized_EN.txt	WINDOW	Building	7	9	[0, 0, 0]	n/a	catFR1	2	R1273D
1287.867	0.867	1468037	WORD_OFF	n/a	n/a	WINDOW	n/a	7	9	[0, 0, 0]	n/a	catFR1	2	R1273D
1288.734	1.616	1468904	WORD	n/a	wordpools/wordpool_categorized_EN.txt	DOOR	Building	8	9	[0, 0, 0]	n/a	catFR1	2	R1273D
1290.35	0.967	1470520	WORD_OFF	n/a	n/a	DOOR	n/a	8	9	[0, 0, 0]	n/a	catFR1	2	R1273D
1291.317	1.618	1471486	WORD	n/a	wordpools/wordpool_categorized_EN.txt	CORN	Vegetables	9	9	[0, 0, 0]	n/a	catFR1	2	R1273D
1292.935	0.983	1473104	WORD_OFF	n/a	n/a	CORN	n/a	9	9	[0, 0, 0]	n/a	catFR1	2	R1273D
1293.918	1.616	1474087	WORD	n/a	wordpools/wordpool_categorized_EN.txt	BROCCOLI	Vegetables	10	9	[0, 0, 0]	n/a	catFR1	2	R1273D
1295.534	0.884	1475703	WORD_OFF	n/a	n/a	BROCCOLI	n/a	10	9	[0, 0, 0]	n/a	catFR1	2	R1273D
1296.418	1.617	1476587	WORD	n/a	wordpools/wordpool_categorized_EN.txt	WHALE	OceanAnimals	11	9	[0, 0, 0]	n/a	catFR1	2	R1273D
1298.035	0.801	1478204	WORD_OFF	n/a	n/a	WHALE	n/a	11	9	[0, 0, 0]	n/a	catFR1	2	R1273D
1298.836	1.616	1479005	WORD	n/a	wordpools/wordpool_categorized_EN.txt	SQUID	OceanAnimals	12	9	[0, 0, 0]	n/a	catFR1	2	R1273D
1300.452	0.0	1480621	WORD_OFF	n/a	n/a	SQUID	n/a	12	9	[0, 0, 0]	n/a	catFR1	2	R1273D
1300.452	0.134	1480621	ENCODING_END	n/a	n/a	n/a	n/a	-999	9	[0, 0, 0]	n/a	catFR1	2	R1273D
1300.586	0.0	1480755	DISTRACT_START	n/a	n/a	n/a	n/a	-999	9	[0, 0, 0]	n/a	catFR1	2	R1273D
1300.586	0.016	1480755	START	n/a	n/a	n/a	n/a	-999	9	[-999, -999, -999]	n/a	catFR1	2	R1273D
1300.602	10.819	1480771	PROB	10.794	n/a	n/a	n/a	-999	9	[9, 1, 8]	18.0	catFR1	2	R1273D
1311.421	109.23	1491589	PROB	109.23	n/a	n/a	n/a	-999	9	[4, 2, 6]	12.0	catFR1	2	R1273D
1420.651	0.006	1600813	STOP	n/a	n/a	n/a	n/a	-999	9	[-999, -999, -999]	n/a	catFR1	2	R1273D
1420.657	0.65	1600819	DISTRACT_END	n/a	n/a	n/a	n/a	-999	9	[0, 0, 0]	n/a	catFR1	2	R1273D
1421.307	0.518	1601469	RETRIEVAL_ORIENT	n/a	n/a	n/a	n/a	-999	9	[0, 0, 0]	n/a	catFR1	2	R1273D
1421.825	27.353	1601987	REC_START	n/a	n/a	n/a	n/a	-999	9	[0, 0, 0]	n/a	catFR1	2	R1273D
1449.178	2.657	1629339	REC_WORD_VV	27.353	n/a	<>	n/a	-999	9	[0, 0, 0]	n/a	catFR1	2	R1273D
1451.835	7.446	1631995	REC_END	n/a	n/a	n/a	n/a	-999	9	[0, 0, 0]	n/a	catFR1	2	R1273D
1459.281	0.5	1639441	TRIAL	n/a	n/a	n/a	n/a	-999	10	[0, 0, 0]	n/a	catFR1	2	R1273D
1459.781	10.428	1639941	COUNTDOWN_START	n/a	n/a	n/a	n/a	-999	10	[0, 0, 0]	n/a	catFR1	2	R1273D
1470.209	0.007	1650368	COUNTDOWN_END	n/a	n/a	n/a	n/a	-999	10	[0, 0, 0]	n/a	catFR1	2	R1273D
1470.216	1.618	1650375	ORIENT	n/a	n/a	n/a	n/a	-999	10	[0, 0, 0]	n/a	catFR1	2	R1273D
1471.834	2.216	1651993	ORIENT_OFF	n/a	n/a	n/a	n/a	-999	10	[0, 0, 0]	n/a	catFR1	2	R1273D
1474.05	1.617	1654209	WORD	n/a	wordpools/wordpool_categorized_EN.txt	CROWBAR	Tools	1	10	[0, 0, 0]	n/a	catFR1	2	R1273D
1475.667	0.9	1655826	WORD_OFF	n/a	n/a	CROWBAR	n/a	1	10	[0, 0, 0]	n/a	catFR1	2	R1273D
1476.567	1.617	1656726	WORD	n/a	wordpools/wordpool_categorized_EN.txt	SAW	Tools	2	10	[0, 0, 0]	n/a	catFR1	2	R1273D
1478.184	0.967	1658343	WORD_OFF	n/a	n/a	SAW	n/a	2	10	[0, 0, 0]	n/a	catFR1	2	R1273D
1479.151	1.618	1659310	WORD	n/a	wordpools/wordpool_categorized_EN.txt	BIRCH	Trees	3	10	[0, 0, 0]	n/a	catFR1	2	R1273D
1480.769	0.832	1660928	WORD_OFF	n/a	n/a	BIRCH	n/a	3	10	[0, 0, 0]	n/a	catFR1	2	R1273D
1481.601	1.617	1661760	WORD	n/a	wordpools/wordpool_categorized_EN.txt	WALNUT	Trees	4	10	[0, 0, 0]	n/a	catFR1	2	R1273D
1483.218	0.867	1663377	WORD_OFF	n/a	n/a	WALNUT	n/a	4	10	[0, 0, 0]	n/a	catFR1	2	R1273D
1484.085	1.617	1664244	WORD	n/a	wordpools/wordpool_categorized_EN.txt	BANANA	Fruit	5	10	[0, 0, 0]	n/a	catFR1	2	R1273D
1485.702	0.884	1665861	WORD_OFF	n/a	n/a	BANANA	n/a	5	10	[0, 0, 0]	n/a	catFR1	2	R1273D
1486.586	1.616	1666744	WORD	n/a	wordpools/wordpool_categorized_EN.txt	CHERRY	Fruit	6	10	[0, 0, 0]	n/a	catFR1	2	R1273D
1488.202	0.802	1668360	WORD_OFF	n/a	n/a	CHERRY	n/a	6	10	[0, 0, 0]	n/a	catFR1	2	R1273D
1489.004	1.616	1669162	WORD	n/a	wordpools/wordpool_categorized_EN.txt	DRILL	Tools	7	10	[0, 0, 0]	n/a	catFR1	2	R1273D
1490.62	0.866	1670778	WORD_OFF	n/a	n/a	DRILL	n/a	7	10	[0, 0, 0]	n/a	catFR1	2	R1273D
1491.486	1.617	1671644	WORD	n/a	wordpools/wordpool_categorized_EN.txt	SCREWDRIVER	Tools	8	10	[0, 0, 0]	n/a	catFR1	2	R1273D
1493.103	0.918	1673261	WORD_OFF	n/a	n/a	SCREWDRIVER	n/a	8	10	[0, 0, 0]	n/a	catFR1	2	R1273D
1494.021	1.616	1674179	WORD	n/a	wordpools/wordpool_categorized_EN.txt	CEDAR	Trees	9	10	[0, 0, 0]	n/a	catFR1	2	R1273D
1495.637	0.834	1675795	WORD_OFF	n/a	n/a	CEDAR	n/a	9	10	[0, 0, 0]	n/a	catFR1	2	R1273D
1496.471	1.617	1676629	WORD	n/a	wordpools/wordpool_categorized_EN.txt	HICKORY	Trees	10	10	[0, 0, 0]	n/a	catFR1	2	R1273D
1498.088	0.784	1678246	WORD_OFF	n/a	n/a	HICKORY	n/a	10	10	[0, 0, 0]	n/a	catFR1	2	R1273D
1498.872	1.616	1679030	WORD	n/a	wordpools/wordpool_categorized_EN.txt	LIME	Fruit	11	10	[0, 0, 0]	n/a	catFR1	2	R1273D
1500.488	0.867	1680646	WORD_OFF	n/a	n/a	LIME	n/a	11	10	[0, 0, 0]	n/a	catFR1	2	R1273D
1501.355	1.601	1681513	WORD	n/a	wordpools/wordpool_categorized_EN.txt	ORANGE	Fruit	12	10	[0, 0, 0]	n/a	catFR1	2	R1273D
1502.956	0.0	1683114	ENCODING_END	n/a	n/a	n/a	n/a	-999	10	[0, 0, 0]	n/a	catFR1	2	R1273D
1502.956	0.103	1683114	WORD_OFF	n/a	n/a	ORANGE	n/a	12	10	[0, 0, 0]	n/a	catFR1	2	R1273D
1503.059	0.0	1683217	DISTRACT_START	n/a	n/a	n/a	n/a	-999	10	[0, 0, 0]	n/a	catFR1	2	R1273D
1503.059	0.013	1683217	START	n/a	n/a	n/a	n/a	-999	10	[-999, -999, -999]	n/a	catFR1	2	R1273D
1503.072	5.151	1683230	PROB	5.123	n/a	n/a	n/a	-999	10	[1, 7, 6]	14.0	catFR1	2	R1273D
1508.223	19.068	1688380	PROB	19.068	n/a	n/a	n/a	-999	10	[9, 8, 1]	18.0	catFR1	2	R1273D
1527.291	0.019	1707447	STOP	n/a	n/a	n/a	n/a	-999	10	[-999, -999, -999]	n/a	catFR1	2	R1273D
1527.31	0.634	1707466	DISTRACT_END	n/a	n/a	n/a	n/a	-999	10	[0, 0, 0]	n/a	catFR1	2	R1273D
1527.944	0.516	1708100	RETRIEVAL_ORIENT	n/a	n/a	n/a	n/a	-999	10	[0, 0, 0]	n/a	catFR1	2	R1273D
1528.46	3.062	1708616	REC_START	n/a	n/a	n/a	n/a	-999	10	[0, 0, 0]	n/a	catFR1	2	R1273D
1531.522	2.664	1711678	REC_WORD	3.062	n/a	SCREWDRIVER	Tools	8	10	[0, 0, 0]	n/a	catFR1	2	R1273D
1534.186	3.763	1714342	REC_WORD_VV	5.726	n/a	<>	n/a	-999	10	[0, 0, 0]	n/a	catFR1	2	R1273D
1537.949	4.489	1718105	REC_WORD_VV	9.489	n/a	<>	n/a	-999	10	[0, 0, 0]	n/a	catFR1	2	R1273D
1542.438	5.007	1722593	REC_WORD	13.978	n/a	CRUMB	n/a	-999	10	[0, 0, 0]	n/a	catFR1	2	R1273D
1547.445	11.025	1727600	REC_WORD_VV	18.985	n/a	<>	n/a	-999	10	[0, 0, 0]	n/a	catFR1	2	R1273D
1558.47	6.514	1738624	REC_END	n/a	n/a	n/a	n/a	-999	10	[0, 0, 0]	n/a	catFR1	2	R1273D
1564.984	0.5	1745138	TRIAL	n/a	n/a	n/a	n/a	-999	11	[0, 0, 0]	n/a	catFR1	2	R1273D
1565.484	10.428	1745638	COUNTDOWN_START	n/a	n/a	n/a	n/a	-999	11	[0, 0, 0]	n/a	catFR1	2	R1273D
1575.912	0.008	1756065	COUNTDOWN_END	n/a	n/a	n/a	n/a	-999	11	[0, 0, 0]	n/a	catFR1	2	R1273D
1575.92	1.615	1756073	ORIENT	n/a	n/a	n/a	n/a	-999	11	[0, 0, 0]	n/a	catFR1	2	R1273D
1577.535	1.901	1757688	ORIENT_OFF	n/a	n/a	n/a	n/a	-999	11	[0, 0, 0]	n/a	catFR1	2	R1273D
1579.436	1.617	1759589	WORD	n/a	wordpools/wordpool_categorized_EN.txt	TAPE	OfficeSupplies	1	11	[0, 0, 0]	n/a	catFR1	2	R1273D
1581.053	0.918	1761206	WORD_OFF	n/a	n/a	TAPE	n/a	1	11	[0, 0, 0]	n/a	catFR1	2	R1273D
1581.971	1.615	1762124	WORD	n/a	wordpools/wordpool_categorized_EN.txt	RULER	OfficeSupplies	2	11	[0, 0, 0]	n/a	catFR1	2	R1273D
1583.586	0.884	1763739	WORD_OFF	n/a	n/a	RULER	n/a	2	11	[0, 0, 0]	n/a	catFR1	2	R1273D
1584.47	1.617	1764623	WORD	n/a	wordpools/wordpool_categorized_EN.txt	SHORTS	Clothing	3	11	[0, 0, 0]	n/a	catFR1	2	R1273D
1586.087	0.834	1766240	WORD_OFF	n/a	n/a	SHORTS	n/a	3	11	[0, 0, 0]	n/a	catFR1	2	R1273D
1586.921	1.616	1767074	WORD	n/a	wordpools/wordpool_categorized_EN.txt	JACKET	Clothing	4	11	[0, 0, 0]	n/a	catFR1	2	R1273D
1588.537	0.867	1768690	WORD_OFF	n/a	n/a	JACKET	n/a	4	11	[0, 0, 0]	n/a	catFR1	2	R1273D
1589.404	1.618	1769557	WORD	n/a	wordpools/wordpool_categorized_EN.txt	ISLAND	Landscapes	5	11	[0, 0, 0]	n/a	catFR1	2	R1273D
1591.022	0.917	1771175	WORD_OFF	n/a	n/a	ISLAND	n/a	5	11	[0, 0, 0]	n/a	catFR1	2	R1273D
1591.939	1.616	1772092	WORD	n/a	wordpools/wordpool_categorized_EN.txt	BEACH	Landscapes	6	11	[0, 0, 0]	n/a	catFR1	2	R1273D
1593.555	0.95	1773707	WORD_OFF	n/a	n/a	BEACH	n/a	6	11	[0, 0, 0]	n/a	catFR1	2	R1273D
1594.505	1.617	1774657	WORD	n/a	wordpools/wordpool_categorized_EN.txt	COAT	Clothing	7	11	[0, 0, 0]	n/a	catFR1	2	R1273D
1596.122	0.768	1776274	WORD_OFF	n/a	n/a	COAT	n/a	7	11	[0, 0, 0]	n/a	catFR1	2	R1273D
1596.89	1.616	1777042	WORD	n/a	wordpools/wordpool_categorized_EN.txt	JEANS	Clothing	8	11	[0, 0, 0]	n/a	catFR1	2	R1273D
1598.506	0.833	1778658	WORD_OFF	n/a	n/a	JEANS	n/a	8	11	[0, 0, 0]	n/a	catFR1	2	R1273D
1599.339	1.618	1779491	WORD	n/a	wordpools/wordpool_categorized_EN.txt	PAPER	OfficeSupplies	9	11	[0, 0, 0]	n/a	catFR1	2	R1273D
1600.957	0.884	1781109	WORD_OFF	n/a	n/a	PAPER	n/a	9	11	[0, 0, 0]	n/a	catFR1	2	R1273D
1601.841	1.616	1781993	WORD	n/a	wordpools/wordpool_categorized_EN.txt	STAPLER	OfficeSupplies	10	11	[0, 0, 0]	n/a	catFR1	2	R1273D
1603.457	0.867	1783609	WORD_OFF	n/a	n/a	STAPLER	n/a	10	11	[0, 0, 0]	n/a	catFR1	2	R1273D
1604.324	1.618	1784476	WORD	n/a	wordpools/wordpool_categorized_EN.txt	CREEK	Landscapes	11	11	[0, 0, 0]	n/a	catFR1	2	R1273D
1605.942	0.883	1786094	WORD_OFF	n/a	n/a	CREEK	n/a	11	11	[0, 0, 0]	n/a	catFR1	2	R1273D
1606.825	1.616	1786977	WORD	n/a	wordpools/wordpool_categorized_EN.txt	HILLS	Landscapes	12	11	[0, 0, 0]	n/a	catFR1	2	R1273D
1608.441	0.0	1788593	WORD_OFF	n/a	n/a	HILLS	n/a	12	11	[0, 0, 0]	n/a	catFR1	2	R1273D
1608.441	0.104	1788593	ENCODING_END	n/a	n/a	n/a	n/a	-999	11	[0, 0, 0]	n/a	catFR1	2	R1273D
1608.545	0.0	1788697	DISTRACT_START	n/a	n/a	n/a	n/a	-999	11	[0, 0, 0]	n/a	catFR1	2	R1273D
1608.545	0.013	1788697	START	n/a	n/a	n/a	n/a	-999	11	[-999, -999, -999]	n/a	catFR1	2	R1273D
1608.558	8.668	1788710	PROB	8.645	n/a	n/a	n/a	-999	11	[9, 6, 2]	17.0	catFR1	2	R1273D
1617.226	41.296	1797377	PROB	41.296	n/a	n/a	n/a	-999	11	[5, 2, 7]	14.0	catFR1	2	R1273D
1658.522	0.012	1838671	STOP	n/a	n/a	n/a	n/a	-999	11	[-999, -999, -999]	n/a	catFR1	2	R1273D
1658.534	0.65	1838683	DISTRACT_END	n/a	n/a	n/a	n/a	-999	11	[0, 0, 0]	n/a	catFR1	2	R1273D
1659.184	0.517	1839333	RETRIEVAL_ORIENT	n/a	n/a	n/a	n/a	-999	11	[0, 0, 0]	n/a	catFR1	2	R1273D
1659.701	1.27	1839850	REC_START	n/a	n/a	n/a	n/a	-999	11	[0, 0, 0]	n/a	catFR1	2	R1273D
1660.971	28.741	1841120	REC_WORD_VV	1.27	n/a	<>	n/a	-999	11	[0, 0, 0]	n/a	catFR1	2	R1273D
1689.712	5.096	1869859	REC_END	n/a	n/a	n/a	n/a	-999	11	[0, 0, 0]	n/a	catFR1	2	R1273D
1694.808	0.5	1874955	TRIAL	n/a	n/a	n/a	n/a	-999	12	[0, 0, 0]	n/a	catFR1	2	R1273D
1695.308	10.428	1875455	COUNTDOWN_START	n/a	n/a	n/a	n/a	-999	12	[0, 0, 0]	n/a	catFR1	2	R1273D
1705.736	0.007	1885882	COUNTDOWN_END	n/a	n/a	n/a	n/a	-999	12	[0, 0, 0]	n/a	catFR1	2	R1273D
1705.743	1.616	1885889	ORIENT	n/a	n/a	n/a	n/a	-999	12	[0, 0, 0]	n/a	catFR1	2	R1273D
1707.359	2.117	1887505	ORIENT_OFF	n/a	n/a	n/a	n/a	-999	12	[0, 0, 0]	n/a	catFR1	2	R1273D
1709.476	1.617	1889622	WORD	n/a	wordpools/wordpool_categorized_EN.txt	MOUNTAIN	Landscapes	1	12	[0, 0, 0]	n/a	catFR1	2	R1273D
1711.093	0.851	1891239	WORD_OFF	n/a	n/a	MOUNTAIN	n/a	1	12	[0, 0, 0]	n/a	catFR1	2	R1273D
1711.944	1.616	1892090	WORD	n/a	wordpools/wordpool_categorized_EN.txt	VALLEY	Landscapes	2	12	[0, 0, 0]	n/a	catFR1	2	R1273D
1713.56	0.867	1893706	WORD_OFF	n/a	n/a	VALLEY	n/a	2	12	[0, 0, 0]	n/a	catFR1	2	R1273D
1714.427	1.617	1894573	WORD	n/a	wordpools/wordpool_categorized_EN.txt	FLOOR	Building	3	12	[0, 0, 0]	n/a	catFR1	2	R1273D
1716.044	0.768	1896190	WORD_OFF	n/a	n/a	FLOOR	n/a	3	12	[0, 0, 0]	n/a	catFR1	2	R1273D
1716.812	1.616	1896957	WORD	n/a	wordpools/wordpool_categorized_EN.txt	STAIRS	Building	4	12	[0, 0, 0]	n/a	catFR1	2	R1273D
1718.428	0.95	1898573	WORD_OFF	n/a	n/a	STAIRS	n/a	4	12	[0, 0, 0]	n/a	catFR1	2	R1273D
1719.378	1.618	1899523	WORD	n/a	wordpools/wordpool_categorized_EN.txt	IRON	Appliances	5	12	[0, 0, 0]	n/a	catFR1	2	R1273D
1720.996	0.95	1901141	WORD_OFF	n/a	n/a	IRON	n/a	5	12	[0, 0, 0]	n/a	catFR1	2	R1273D
1721.946	1.616	1902091	WORD	n/a	wordpools/wordpool_categorized_EN.txt	TOASTER	Appliances	6	12	[0, 0, 0]	n/a	catFR1	2	R1273D
1723.562	0.833	1903707	WORD_OFF	n/a	n/a	TOASTER	n/a	6	12	[0, 0, 0]	n/a	catFR1	2	R1273D
1724.395	1.618	1904540	WORD	n/a	wordpools/wordpool_categorized_EN.txt	ROOM	Building	7	12	[0, 0, 0]	n/a	catFR1	2	R1273D
1726.013	0.884	1906158	WORD_OFF	n/a	n/a	ROOM	n/a	7	12	[0, 0, 0]	n/a	catFR1	2	R1273D
1726.897	1.616	1907042	WORD	n/a	wordpools/wordpool_categorized_EN.txt	ROOF	Building	8	12	[0, 0, 0]	n/a	catFR1	2	R1273D
1728.513	0.9	1908658	WORD_OFF	n/a	n/a	ROOF	n/a	8	12	[0, 0, 0]	n/a	catFR1	2	R1273D
1729.413	1.618	1909558	WORD	n/a	wordpools/wordpool_categorized_EN.txt	RIVER	Landscapes	9	12	[0, 0, 0]	n/a	catFR1	2	R1273D
1731.031	0.984	1911176	WORD_OFF	n/a	n/a	RIVER	n/a	9	12	[0, 0, 0]	n/a	catFR1	2	R1273D
1732.015	1.615	1912160	WORD	n/a	wordpools/wordpool_categorized_EN.txt	FOREST	Landscapes	10	12	[0, 0, 0]	n/a	catFR1	2	R1273D
1733.63	0.817	1913775	WORD_OFF	n/a	n/a	FOREST	n/a	10	12	[0, 0, 0]	n/a	catFR1	2	R1273D
1734.447	1.617	1914591	WORD	n/a	wordpools/wordpool_categorized_EN.txt	OVEN	Appliances	11	12	[0, 0, 0]	n/a	catFR1	2	R1273D
1736.064	0.818	1916208	WORD_OFF	n/a	n/a	OVEN	n/a	11	12	[0, 0, 0]	n/a	catFR1	2	R1273D
1736.882	1.616	1917026	WORD	n/a	wordpools/wordpool_categorized_EN.txt	BLENDER	Appliances	12	12	[0, 0, 0]	n/a	catFR1	2	R1273D
1738.498	0.0	1918642	ENCODING_END	n/a	n/a	n/a	n/a	-999	12	[0, 0, 0]	n/a	catFR1	2	R1273D
1738.498	0.133	1918642	WORD_OFF	n/a	n/a	BLENDER	n/a	12	12	[0, 0, 0]	n/a	catFR1	2	R1273D
1738.631	0.001	1918775	DISTRACT_START	n/a	n/a	n/a	n/a	-999	12	[0, 0, 0]	n/a	catFR1	2	R1273D
1738.632	0.016	1918776	START	n/a	n/a	n/a	n/a	-999	12	[-999, -999, -999]	n/a	catFR1	2	R1273D
1738.648	18.97	1918792	PROB	18.931	n/a	n/a	n/a	-999	12	[8, 6, 8]	24.0	catFR1	2	R1273D
1757.618	3.362	1937761	PROB	3.362	n/a	n/a	n/a	-999	12	[1, 9, 2]	12.0	catFR1	2	R1273D
1760.98	0.006	1941123	STOP	n/a	n/a	n/a	n/a	-999	12	[-999, -999, -999]	n/a	catFR1	2	R1273D
1760.986	0.616	1941129	DISTRACT_END	n/a	n/a	n/a	n/a	-999	12	[0, 0, 0]	n/a	catFR1	2	R1273D
1761.602	0.517	1941745	RETRIEVAL_ORIENT	n/a	n/a	n/a	n/a	-999	12	[0, 0, 0]	n/a	catFR1	2	R1273D
1762.119	3.774	1942262	REC_START	n/a	n/a	n/a	n/a	-999	12	[0, 0, 0]	n/a	catFR1	2	R1273D
1765.893	15.897	1946036	REC_WORD_VV	3.774	n/a	<>	n/a	-999	12	[0, 0, 0]	n/a	catFR1	2	R1273D
1781.79	10.34	1961932	REC_WORD_VV	19.671	n/a	<>	n/a	-999	12	[0, 0, 0]	n/a	catFR1	2	R1273D
1792.13	700.288	1972271	REC_END	n/a	n/a	n/a	n/a	-999	12	[0, 0, 0]	n/a	catFR1	2	R1273D
2492.418	0.5	2672520	TRIAL	n/a	n/a	n/a	n/a	-999	13	[0, 0, 0]	n/a	catFR1	2	R1273D
2492.918	10.428	2673020	COUNTDOWN_START	n/a	n/a	n/a	n/a	-999	13	[0, 0, 0]	n/a	catFR1	2	R1273D
2503.346	0.008	2683447	COUNTDOWN_END	n/a	n/a	n/a	n/a	-999	13	[0, 0, 0]	n/a	catFR1	2	R1273D
2503.354	1.617	2683455	ORIENT	n/a	n/a	n/a	n/a	-999	13	[0, 0, 0]	n/a	catFR1	2	R1273D
2504.971	2.3	2685072	ORIENT_OFF	n/a	n/a	n/a	n/a	-999	13	[0, 0, 0]	n/a	catFR1	2	R1273D
2507.271	1.618	2687372	WORD	n/a	wordpools/wordpool_categorized_EN.txt	LILY	Flowers	1	13	[0, 0, 0]	n/a	catFR1	2	R1273D
2508.889	0.816	2688990	WORD_OFF	n/a	n/a	LILY	n/a	1	13	[0, 0, 0]	n/a	catFR1	2	R1273D
2509.705	1.617	2689806	WORD	n/a	wordpools/wordpool_categorized_EN.txt	VIOLET	Flowers	2	13	[0, 0, 0]	n/a	catFR1	2	R1273D
2511.322	0.966	2691423	WORD_OFF	n/a	n/a	VIOLET	n/a	2	13	[0, 0, 0]	n/a	catFR1	2	R1273D
2512.288	1.618	2692389	WORD	n/a	wordpools/wordpool_categorized_EN.txt	BARBIE	Toys	3	13	[0, 0, 0]	n/a	catFR1	2	R1273D
2513.906	0.851	2694006	WORD_OFF	n/a	n/a	BARBIE	n/a	3	13	[0, 0, 0]	n/a	catFR1	2	R1273D
2514.757	1.616	2694857	WORD	n/a	wordpools/wordpool_categorized_EN.txt	SLINKY	Toys	4	13	[0, 0, 0]	n/a	catFR1	2	R1273D
2516.373	0.95	2696473	WORD_OFF	n/a	n/a	SLINKY	n/a	4	13	[0, 0, 0]	n/a	catFR1	2	R1273D
2517.323	1.618	2697423	WORD	n/a	wordpools/wordpool_categorized_EN.txt	OYSTER	OceanAnimals	5	13	[0, 0, 0]	n/a	catFR1	2	R1273D
2518.941	1.017	2699041	WORD_OFF	n/a	n/a	OYSTER	n/a	5	13	[0, 0, 0]	n/a	catFR1	2	R1273D
2519.958	1.615	2700058	WORD	n/a	wordpools/wordpool_categorized_EN.txt	LOBSTER	OceanAnimals	6	13	[0, 0, 0]	n/a	catFR1	2	R1273D
2521.573	0.817	2701673	WORD_OFF	n/a	n/a	LOBSTER	n/a	6	13	[0, 0, 0]	n/a	catFR1	2	R1273D
2522.39	1.618	2702490	WORD	n/a	wordpools/wordpool_categorized_EN.txt	BLOCKS	Toys	7	13	[0, 0, 0]	n/a	catFR1	2	R1273D
2524.008	0.917	2704108	WORD_OFF	n/a	n/a	BLOCKS	n/a	7	13	[0, 0, 0]	n/a	catFR1	2	R1273D
2524.925	1.616	2705025	WORD	n/a	wordpools/wordpool_categorized_EN.txt	FRISBEE	Toys	8	13	[0, 0, 0]	n/a	catFR1	2	R1273D
2526.541	0.883	2706641	WORD_OFF	n/a	n/a	FRISBEE	n/a	8	13	[0, 0, 0]	n/a	catFR1	2	R1273D
2527.424	1.617	2707524	WORD	n/a	wordpools/wordpool_categorized_EN.txt	ORCHID	Flowers	9	13	[0, 0, 0]	n/a	catFR1	2	R1273D
2529.041	0.952	2709141	WORD_OFF	n/a	n/a	ORCHID	n/a	9	13	[0, 0, 0]	n/a	catFR1	2	R1273D
2529.993	1.616	2710093	WORD	n/a	wordpools/wordpool_categorized_EN.txt	ROSE	Flowers	10	13	[0, 0, 0]	n/a	catFR1	2	R1273D
2531.609	0.85	2711708	WORD_OFF	n/a	n/a	ROSE	n/a	10	13	[0, 0, 0]	n/a	catFR1	2	R1273D
2532.459	1.617	2712558	WORD	n/a	wordpools/wordpool_categorized_EN.txt	OCTOPUS	OceanAnimals	11	13	[0, 0, 0]	n/a	catFR1	2	R1273D
2534.076	1.0	2714175	WORD_OFF	n/a	n/a	OCTOPUS	n/a	11	13	[0, 0, 0]	n/a	catFR1	2	R1273D
2535.076	1.617	2715175	WORD	n/a	wordpools/wordpool_categorized_EN.txt	DOLPHIN	OceanAnimals	12	13	[0, 0, 0]	n/a	catFR1	2	R1273D
2536.693	0.0	2716792	ENCODING_END	n/a	n/a	n/a	n/a	-999	13	[0, 0, 0]	n/a	catFR1	2	R1273D
2536.693	0.107	2716792	WORD_OFF	n/a	n/a	DOLPHIN	n/a	12	13	[0, 0, 0]	n/a	catFR1	2	R1273D
2536.8	0.0	2716899	DISTRACT_START	n/a	n/a	n/a	n/a	-999	13	[0, 0, 0]	n/a	catFR1	2	R1273D
2536.8	0.01	2716899	START	n/a	n/a	n/a	n/a	-999	13	[-999, -999, -999]	n/a	catFR1	2	R1273D
2536.81	4.267	2716909	PROB	4.234	n/a	n/a	n/a	-999	13	[5, 5, 7]	17.0	catFR1	2	R1273D
2541.077	16.998	2721176	PROB	16.998	n/a	n/a	n/a	-999	13	[8, 4, 7]	19.0	catFR1	2	R1273D
2558.075	0.022	2738173	STOP	n/a	n/a	n/a	n/a	-999	13	[-999, -999, -999]	n/a	catFR1	2	R1273D
2558.097	0.701	2738195	DISTRACT_END	n/a	n/a	n/a	n/a	-999	13	[0, 0, 0]	n/a	catFR1	2	R1273D
2558.798	0.517	2738896	RETRIEVAL_ORIENT	n/a	n/a	n/a	n/a	-999	13	[0, 0, 0]	n/a	catFR1	2	R1273D
2559.315	0.155	2739413	REC_START	n/a	n/a	n/a	n/a	-999	13	[0, 0, 0]	n/a	catFR1	2	R1273D
2559.47	2.471	2739568	REC_WORD_VV	0.155	n/a	<>	n/a	-999	13	[0, 0, 0]	n/a	catFR1	2	R1273D
2561.941	0.598	2742039	REC_WORD	2.626	n/a	DOLPHIN	OceanAnimals	12	13	[0, 0, 0]	n/a	catFR1	2	R1273D
2562.539	2.208	2742637	REC_WORD	3.224	n/a	OCTOPUS	OceanAnimals	11	13	[0, 0, 0]	n/a	catFR1	2	R1273D
2564.747	2.719	2744845	REC_WORD_VV	5.432	n/a	<>	n/a	-999	13	[0, 0, 0]	n/a	catFR1	2	R1273D
2567.466	2.217	2747563	REC_WORD	8.151	n/a	SQUID	n/a	-999	13	[0, 0, 0]	n/a	catFR1	2	R1273D
2569.683	0.327	2749780	REC_WORD	10.368	n/a	DOLPHIN	OceanAnimals	12	13	[0, 0, 0]	n/a	catFR1	2	R1273D
2570.01	6.75	2750107	REC_WORD	10.695	n/a	OCTOPUS	OceanAnimals	11	13	[0, 0, 0]	n/a	catFR1	2	R1273D
2576.76	4.178	2756857	REC_WORD_VV	17.445	n/a	<>	n/a	-999	13	[0, 0, 0]	n/a	catFR1	2	R1273D
2580.938	0.441	2761035	REC_WORD	21.623	n/a	DOLPHIN	OceanAnimals	12	13	[0, 0, 0]	n/a	catFR1	2	R1273D
2581.379	1.798	2761476	REC_WORD	22.064	n/a	OCTOPUS	OceanAnimals	11	13	[0, 0, 0]	n/a	catFR1	2	R1273D
2583.177	1.686	2763274	REC_WORD_VV	23.862	n/a	<>	n/a	-999	13	[0, 0, 0]	n/a	catFR1	2	R1273D
2584.863	1.336	2764959	REC_WORD	25.548	n/a	ROSE	Flowers	10	13	[0, 0, 0]	n/a	catFR1	2	R1273D
2586.199	1.032	2766295	REC_WORD_VV	26.884	n/a	<>	n/a	-999	13	[0, 0, 0]	n/a	catFR1	2	R1273D
2587.231	2.094	2767327	REC_WORD	27.916	n/a	BARBIE	Toys	3	13	[0, 0, 0]	n/a	catFR1	2	R1273D
2589.325	10.464	2769421	REC_END	n/a	n/a	n/a	n/a	-999	13	[0, 0, 0]	n/a	catFR1	2	R1273D
2599.789	0.5	2779885	TRIAL	n/a	n/a	n/a	n/a	-999	14	[0, 0, 0]	n/a	catFR1	2	R1273D
2600.289	10.428	2780385	COUNTDOWN_START	n/a	n/a	n/a	n/a	-999	14	[0, 0, 0]	n/a	catFR1	2	R1273D
2610.717	0.007	2790812	COUNTDOWN_END	n/a	n/a	n/a	n/a	-999	14	[0, 0, 0]	n/a	catFR1	2	R1273D
2610.724	1.616	2790819	ORIENT	n/a	n/a	n/a	n/a	-999	14	[0, 0, 0]	n/a	catFR1	2	R1273D
2612.34	1.95	2792435	ORIENT_OFF	n/a	n/a	n/a	n/a	-999	14	[0, 0, 0]	n/a	catFR1	2	R1273D
2614.29	1.601	2794385	WORD	n/a	wordpools/wordpool_categorized_EN.txt	PANTS	Clothing	1	14	[0, 0, 0]	n/a	catFR1	2	R1273D
2615.891	0.984	2795986	WORD_OFF	n/a	n/a	PANTS	n/a	1	14	[0, 0, 0]	n/a	catFR1	2	R1273D
2616.875	1.616	2796970	WORD	n/a	wordpools/wordpool_categorized_EN.txt	BLOUSE	Clothing	2	14	[0, 0, 0]	n/a	catFR1	2	R1273D
2618.491	0.8	2798586	WORD_OFF	n/a	n/a	BLOUSE	n/a	2	14	[0, 0, 0]	n/a	catFR1	2	R1273D
2619.291	1.601	2799386	WORD	n/a	wordpools/wordpool_categorized_EN.txt	LADLE	KitchenTools	3	14	[0, 0, 0]	n/a	catFR1	2	R1273D
2620.892	0.901	2800986	WORD_OFF	n/a	n/a	LADLE	n/a	3	14	[0, 0, 0]	n/a	catFR1	2	R1273D
2621.793	1.616	2801887	WORD	n/a	wordpools/wordpool_categorized_EN.txt	SPATULA	KitchenTools	4	14	[0, 0, 0]	n/a	catFR1	2	R1273D
2623.409	0.85	2803503	WORD_OFF	n/a	n/a	SPATULA	n/a	4	14	[0, 0, 0]	n/a	catFR1	2	R1273D
2624.259	1.618	2804353	WORD	n/a	wordpools/wordpool_categorized_EN.txt	NOSE	BodyParts	5	14	[0, 0, 0]	n/a	catFR1	2	R1273D
2625.877	1.017	2805971	WORD_OFF	n/a	n/a	NOSE	n/a	5	14	[0, 0, 0]	n/a	catFR1	2	R1273D
2626.894	1.615	2806988	WORD	n/a	wordpools/wordpool_categorized_EN.txt	HEAD	BodyParts	6	14	[0, 0, 0]	n/a	catFR1	2	R1273D
2628.509	0.934	2808603	WORD_OFF	n/a	n/a	HEAD	n/a	6	14	[0, 0, 0]	n/a	catFR1	2	R1273D
2629.443	1.617	2809537	WORD	n/a	wordpools/wordpool_categorized_EN.txt	STRAINER	KitchenTools	7	14	[0, 0, 0]	n/a	catFR1	2	R1273D
2631.06	0.784	2811154	WORD_OFF	n/a	n/a	STRAINER	n/a	7	14	[0, 0, 0]	n/a	catFR1	2	R1273D
2631.844	1.616	2811938	WORD	n/a	wordpools/wordpool_categorized_EN.txt	PEELER	KitchenTools	8	14	[0, 0, 0]	n/a	catFR1	2	R1273D
2633.46	0.951	2813554	WORD_OFF	n/a	n/a	PEELER	n/a	8	14	[0, 0, 0]	n/a	catFR1	2	R1273D
2634.411	1.618	2814505	WORD	n/a	wordpools/wordpool_categorized_EN.txt	SHIRT	Clothing	9	14	[0, 0, 0]	n/a	catFR1	2	R1273D
2636.029	0.833	2816123	WORD_OFF	n/a	n/a	SHIRT	n/a	9	14	[0, 0, 0]	n/a	catFR1	2	R1273D
2636.862	1.616	2816956	WORD	n/a	wordpools/wordpool_categorized_EN.txt	SKIRT	Clothing	10	14	[0, 0, 0]	n/a	catFR1	2	R1273D
2638.478	0.784	2818571	WORD_OFF	n/a	n/a	SKIRT	n/a	10	14	[0, 0, 0]	n/a	catFR1	2	R1273D
2639.262	1.617	2819355	WORD	n/a	wordpools/wordpool_categorized_EN.txt	FINGERS	BodyParts	11	14	[0, 0, 0]	n/a	catFR1	2	R1273D
2640.879	0.851	2820972	WORD_OFF	n/a	n/a	FINGERS	n/a	11	14	[0, 0, 0]	n/a	catFR1	2	R1273D
2641.73	1.616	2821823	WORD	n/a	wordpools/wordpool_categorized_EN.txt	LEG	BodyParts	12	14	[0, 0, 0]	n/a	catFR1	2	R1273D
2643.346	0.0	2823439	ENCODING_END	n/a	n/a	n/a	n/a	-999	14	[0, 0, 0]	n/a	catFR1	2	R1273D
2643.346	0.105	2823439	WORD_OFF	n/a	n/a	LEG	n/a	12	14	[0, 0, 0]	n/a	catFR1	2	R1273D
2643.451	0.0	2823544	DISTRACT_START	n/a	n/a	n/a	n/a	-999	14	[0, 0, 0]	n/a	catFR1	2	R1273D
2643.451	0.011	2823544	START	n/a	n/a	n/a	n/a	-999	14	[-999, -999, -999]	n/a	catFR1	2	R1273D
2643.462	5.084	2823555	PROB	5.061	n/a	n/a	n/a	-999	14	[1, 5, 1]	7.0	catFR1	2	R1273D
2648.546	4.352	2828639	PROB	4.315	n/a	n/a	n/a	-999	14	[5, 9, 2]	16.0	catFR1	2	R1273D
2652.898	35.392	2832991	PROB	35.392	n/a	n/a	n/a	-999	14	[6, 1, 7]	14.0	catFR1	2	R1273D
2688.29	0.014	2868381	STOP	n/a	n/a	n/a	n/a	-999	14	[-999, -999, -999]	n/a	catFR1	2	R1273D
2688.304	0.584	2868395	DISTRACT_END	n/a	n/a	n/a	n/a	-999	14	[0, 0, 0]	n/a	catFR1	2	R1273D
2688.888	0.517	2868979	RETRIEVAL_ORIENT	n/a	n/a	n/a	n/a	-999	14	[0, 0, 0]	n/a	catFR1	2	R1273D
2689.405	1.011	2869496	REC_START	n/a	n/a	n/a	n/a	-999	14	[0, 0, 0]	n/a	catFR1	2	R1273D
2690.416	2.516	2870506	REC_WORD_VV	1.011	n/a	<>	n/a	-999	14	[0, 0, 0]	n/a	catFR1	2	R1273D
2692.932	1.035	2873022	REC_WORD	3.527	n/a	LADLE	KitchenTools	3	14	[0, 0, 0]	n/a	catFR1	2	R1273D
2693.967	2.215	2874057	REC_WORD	4.562	n/a	LEG	BodyParts	12	14	[0, 0, 0]	n/a	catFR1	2	R1273D
2696.182	1.211	2876272	REC_WORD	6.777	n/a	OCTOPUS	n/a	-999	14	[0, 0, 0]	n/a	catFR1	2	R1273D
2697.393	2.135	2877483	REC_WORD	7.988	n/a	SQUID	n/a	-999	14	[0, 0, 0]	n/a	catFR1	2	R1273D
2699.528	2.82	2879618	REC_WORD_VV	10.123	n/a	<>	n/a	-999	14	[0, 0, 0]	n/a	catFR1	2	R1273D
2702.348	4.415	2882438	REC_WORD_VV	12.943	n/a	<>	n/a	-999	14	[0, 0, 0]	n/a	catFR1	2	R1273D
2706.763	11.142	2886853	REC_WORD_VV	17.358	n/a	<>	n/a	-999	14	[0, 0, 0]	n/a	catFR1	2	R1273D
2717.905	1.509	2897994	REC_WORD_VV	28.5	n/a	<>	n/a	-999	14	[0, 0, 0]	n/a	catFR1	2	R1273D
2719.414	7.464	2899503	REC_END	n/a	n/a	n/a	n/a	-999	14	[0, 0, 0]	n/a	catFR1	2	R1273D
2726.878	0.5	2906966	TRIAL	n/a	n/a	n/a	n/a	-999	15	[0, 0, 0]	n/a	catFR1	2	R1273D
2727.378	10.428	2907466	COUNTDOWN_START	n/a	n/a	n/a	n/a	-999	15	[0, 0, 0]	n/a	catFR1	2	R1273D
2737.806	0.008	2917894	COUNTDOWN_END	n/a	n/a	n/a	n/a	-999	15	[0, 0, 0]	n/a	catFR1	2	R1273D
2737.814	1.616	2917902	ORIENT	n/a	n/a	n/a	n/a	-999	15	[0, 0, 0]	n/a	catFR1	2	R1273D
2739.43	2.283	2919518	ORIENT_OFF	n/a	n/a	n/a	n/a	-999	15	[0, 0, 0]	n/a	catFR1	2	R1273D
2741.713	1.617	2921801	WORD	n/a	wordpools/wordpool_categorized_EN.txt	BLUEBIRD	Birds	1	15	[0, 0, 0]	n/a	catFR1	2	R1273D
2743.33	0.984	2923418	WORD_OFF	n/a	n/a	BLUEBIRD	n/a	1	15	[0, 0, 0]	n/a	catFR1	2	R1273D
2744.314	1.618	2924401	WORD	n/a	wordpools/wordpool_categorized_EN.txt	DUCK	Birds	2	15	[0, 0, 0]	n/a	catFR1	2	R1273D
2745.932	0.8	2926019	WORD_OFF	n/a	n/a	DUCK	n/a	2	15	[0, 0, 0]	n/a	catFR1	2	R1273D
2746.732	1.616	2926819	WORD	n/a	wordpools/wordpool_categorized_EN.txt	AXE	Tools	3	15	[0, 0, 0]	n/a	catFR1	2	R1273D
2748.348	0.967	2928435	WORD_OFF	n/a	n/a	AXE	n/a	3	15	[0, 0, 0]	n/a	catFR1	2	R1273D
2749.315	1.618	2929402	WORD	n/a	wordpools/wordpool_categorized_EN.txt	WRENCH	Tools	4	15	[0, 0, 0]	n/a	catFR1	2	R1273D
2750.933	0.9	2931020	WORD_OFF	n/a	n/a	WRENCH	n/a	4	15	[0, 0, 0]	n/a	catFR1	2	R1273D
2751.833	1.616	2931920	WORD	n/a	wordpools/wordpool_categorized_EN.txt	NIGHTSTAND	Furniture	5	15	[0, 0, 0]	n/a	catFR1	2	R1273D
2753.449	0.966	2933536	WORD_OFF	n/a	n/a	NIGHTSTAND	n/a	5	15	[0, 0, 0]	n/a	catFR1	2	R1273D
2754.415	1.602	2934502	WORD	n/a	wordpools/wordpool_categorized_EN.txt	CHAIR	Furniture	6	15	[0, 0, 0]	n/a	catFR1	2	R1273D
2756.017	0.967	2936104	WORD_OFF	n/a	n/a	CHAIR	n/a	6	15	[0, 0, 0]	n/a	catFR1	2	R1273D
2756.984	1.616	2937071	WORD	n/a	wordpools/wordpool_categorized_EN.txt	PLIERS	Tools	7	15	[0, 0, 0]	n/a	catFR1	2	R1273D
2758.6	0.8	2938687	WORD_OFF	n/a	n/a	PLIERS	n/a	7	15	[0, 0, 0]	n/a	catFR1	2	R1273D
2759.4	1.618	2939487	WORD	n/a	wordpools/wordpool_categorized_EN.txt	LEVEL	Tools	8	15	[0, 0, 0]	n/a	catFR1	2	R1273D
2761.018	0.833	2941105	WORD_OFF	n/a	n/a	LEVEL	n/a	8	15	[0, 0, 0]	n/a	catFR1	2	R1273D
2761.851	1.616	2941937	WORD	n/a	wordpools/wordpool_categorized_EN.txt	SPARROW	Birds	9	15	[0, 0, 0]	n/a	catFR1	2	R1273D
2763.467	0.917	2943553	WORD_OFF	n/a	n/a	SPARROW	n/a	9	15	[0, 0, 0]	n/a	catFR1	2	R1273D
2764.384	1.601	2944470	WORD	n/a	wordpools/wordpool_categorized_EN.txt	FINCH	Birds	10	15	[0, 0, 0]	n/a	catFR1	2	R1273D
2765.985	0.8	2946071	WORD_OFF	n/a	n/a	FINCH	n/a	10	15	[0, 0, 0]	n/a	catFR1	2	R1273D
2766.785	1.617	2946871	WORD	n/a	wordpools/wordpool_categorized_EN.txt	SOFA	Furniture	11	15	[0, 0, 0]	n/a	catFR1	2	R1273D
2768.402	0.783	2948488	WORD_OFF	n/a	n/a	SOFA	n/a	11	15	[0, 0, 0]	n/a	catFR1	2	R1273D
2769.185	1.618	2949271	WORD	n/a	wordpools/wordpool_categorized_EN.txt	CABINET	Furniture	12	15	[0, 0, 0]	n/a	catFR1	2	R1273D
2770.803	0.0	2950889	WORD_OFF	n/a	n/a	CABINET	n/a	12	15	[0, 0, 0]	n/a	catFR1	2	R1273D
2770.803	0.137	2950889	ENCODING_END	n/a	n/a	n/a	n/a	-999	15	[0, 0, 0]	n/a	catFR1	2	R1273D
2770.94	0.0	2951026	DISTRACT_START	n/a	n/a	n/a	n/a	-999	15	[0, 0, 0]	n/a	catFR1	2	R1273D
2770.94	0.013	2951026	START	n/a	n/a	n/a	n/a	-999	15	[-999, -999, -999]	n/a	catFR1	2	R1273D
2770.953	42.497	2951039	PROB	42.497	n/a	n/a	n/a	-999	15	[2, 7, 5]	13.0	catFR1	2	R1273D
2813.45	0.01	2993534	STOP	n/a	n/a	n/a	n/a	-999	15	[-999, -999, -999]	n/a	catFR1	2	R1273D
2813.46	0.534	2993544	DISTRACT_END	n/a	n/a	n/a	n/a	-999	15	[0, 0, 0]	n/a	catFR1	2	R1273D
2813.994	0.517	2994078	RETRIEVAL_ORIENT	n/a	n/a	n/a	n/a	-999	15	[0, 0, 0]	n/a	catFR1	2	R1273D
2814.511	13.468	2994594	REC_START	n/a	n/a	n/a	n/a	-999	15	[0, 0, 0]	n/a	catFR1	2	R1273D
2827.979	16.541	3008062	REC_WORD_VV	13.468	n/a	<>	n/a	-999	15	[0, 0, 0]	n/a	catFR1	2	R1273D
2844.52	6.847	3024602	REC_END	n/a	n/a	n/a	n/a	-999	15	[0, 0, 0]	n/a	catFR1	2	R1273D
2851.367	0.5	3031448	TRIAL	n/a	n/a	n/a	n/a	-999	16	[0, 0, 0]	n/a	catFR1	2	R1273D
2851.867	10.428	3031948	COUNTDOWN_START	n/a	n/a	n/a	n/a	-999	16	[0, 0, 0]	n/a	catFR1	2	R1273D
2862.295	0.007	3042376	COUNTDOWN_END	n/a	n/a	n/a	n/a	-999	16	[0, 0, 0]	n/a	catFR1	2	R1273D
2862.302	1.601	3042383	ORIENT	n/a	n/a	n/a	n/a	-999	16	[0, 0, 0]	n/a	catFR1	2	R1273D
2863.903	2.051	3043984	ORIENT_OFF	n/a	n/a	n/a	n/a	-999	16	[0, 0, 0]	n/a	catFR1	2	R1273D
2865.954	1.616	3046035	WORD	n/a	wordpools/wordpool_categorized_EN.txt	CALF	FarmAnimals	1	16	[0, 0, 0]	n/a	catFR1	2	R1273D
2867.57	0.866	3047650	WORD_OFF	n/a	n/a	CALF	n/a	1	16	[0, 0, 0]	n/a	catFR1	2	R1273D
2868.436	1.617	3048516	WORD	n/a	wordpools/wordpool_categorized_EN.txt	GOAT	FarmAnimals	2	16	[0, 0, 0]	n/a	catFR1	2	R1273D
2870.053	0.902	3050133	WORD_OFF	n/a	n/a	GOAT	n/a	2	16	[0, 0, 0]	n/a	catFR1	2	R1273D
2870.955	1.616	3051035	WORD	n/a	wordpools/wordpool_categorized_EN.txt	RECLINER	Furniture	3	16	[0, 0, 0]	n/a	catFR1	2	R1273D
2872.571	0.85	3052651	WORD_OFF	n/a	n/a	RECLINER	n/a	3	16	[0, 0, 0]	n/a	catFR1	2	R1273D
2873.421	1.617	3053501	WORD	n/a	wordpools/wordpool_categorized_EN.txt	COUCH	Furniture	4	16	[0, 0, 0]	n/a	catFR1	2	R1273D
2875.038	0.784	3055118	WORD_OFF	n/a	n/a	COUCH	n/a	4	16	[0, 0, 0]	n/a	catFR1	2	R1273D
2875.822	1.616	3055902	WORD	n/a	wordpools/wordpool_categorized_EN.txt	SPOON	KitchenTools	5	16	[0, 0, 0]	n/a	catFR1	2	R1273D
2877.438	1.0	3057518	WORD_OFF	n/a	n/a	SPOON	n/a	5	16	[0, 0, 0]	n/a	catFR1	2	R1273D
2878.438	1.617	3058518	WORD	n/a	wordpools/wordpool_categorized_EN.txt	FORK	KitchenTools	6	16	[0, 0, 0]	n/a	catFR1	2	R1273D
2880.055	0.984	3060135	WORD_OFF	n/a	n/a	FORK	n/a	6	16	[0, 0, 0]	n/a	catFR1	2	R1273D
2881.039	1.617	3061119	WORD	n/a	wordpools/wordpool_categorized_EN.txt	TABLE	Furniture	7	16	[0, 0, 0]	n/a	catFR1	2	R1273D
2882.656	1.0	3062736	WORD_OFF	n/a	n/a	TABLE	n/a	7	16	[0, 0, 0]	n/a	catFR1	2	R1273D
2883.656	1.617	3063736	WORD	n/a	wordpools/wordpool_categorized_EN.txt	DESK	Furniture	8	16	[0, 0, 0]	n/a	catFR1	2	R1273D
2885.273	0.966	3065352	WORD_OFF	n/a	n/a	DESK	n/a	8	16	[0, 0, 0]	n/a	catFR1	2	R1273D
2886.239	1.619	3066318	WORD	n/a	wordpools/wordpool_categorized_EN.txt	BULL	FarmAnimals	9	16	[0, 0, 0]	n/a	catFR1	2	R1273D
2887.858	0.9	3067937	WORD_OFF	n/a	n/a	BULL	n/a	9	16	[0, 0, 0]	n/a	catFR1	2	R1273D
2888.758	1.616	3068837	WORD	n/a	wordpools/wordpool_categorized_EN.txt	HORSE	FarmAnimals	10	16	[0, 0, 0]	n/a	catFR1	2	R1273D
2890.374	1.0	3070453	WORD_OFF	n/a	n/a	HORSE	n/a	10	16	[0, 0, 0]	n/a	catFR1	2	R1273D
2891.374	1.618	3071453	WORD	n/a	wordpools/wordpool_categorized_EN.txt	TONGS	KitchenTools	11	16	[0, 0, 0]	n/a	catFR1	2	R1273D
2892.992	0.85	3073071	WORD_OFF	n/a	n/a	TONGS	n/a	11	16	[0, 0, 0]	n/a	catFR1	2	R1273D
2893.842	1.616	3073921	WORD	n/a	wordpools/wordpool_categorized_EN.txt	KNIFE	KitchenTools	12	16	[0, 0, 0]	n/a	catFR1	2	R1273D
2895.458	0.0	3075537	ENCODING_END	n/a	n/a	n/a	n/a	-999	16	[0, 0, 0]	n/a	catFR1	2	R1273D
2895.458	0.11	3075537	WORD_OFF	n/a	n/a	KNIFE	n/a	12	16	[0, 0, 0]	n/a	catFR1	2	R1273D
2895.568	0.0	3075647	DISTRACT_START	n/a	n/a	n/a	n/a	-999	16	[0, 0, 0]	n/a	catFR1	2	R1273D
2895.568	0.023	3075647	START	n/a	n/a	n/a	n/a	-999	16	[-999, -999, -999]	n/a	catFR1	2	R1273D
2895.591	18.087	3075670	PROB	18.053	n/a	n/a	n/a	-999	16	[7, 7, 6]	22.0	catFR1	2	R1273D
2913.678	10.564	3093756	PROB	10.564	n/a	n/a	n/a	-999	16	[8, 5, 6]	19.0	catFR1	2	R1273D
2924.242	0.022	3104319	STOP	n/a	n/a	n/a	n/a	-999	16	[-999, -999, -999]	n/a	catFR1	2	R1273D
2924.264	0.7	3104341	DISTRACT_END	n/a	n/a	n/a	n/a	-999	16	[0, 0, 0]	n/a	catFR1	2	R1273D
2924.964	0.517	3105041	RETRIEVAL_ORIENT	n/a	n/a	n/a	n/a	-999	16	[0, 0, 0]	n/a	catFR1	2	R1273D
2925.481	1.299	3105558	REC_START	n/a	n/a	n/a	n/a	-999	16	[0, 0, 0]	n/a	catFR1	2	R1273D
2926.78	4.917	3106857	REC_WORD_VV	1.299	n/a	<>	n/a	-999	16	[0, 0, 0]	n/a	catFR1	2	R1273D
2931.697	0.663	3111774	REC_WORD_VV	6.216	n/a	<>	n/a	-999	16	[0, 0, 0]	n/a	catFR1	2	R1273D
2932.36	0.532	3112437	REC_WORD	6.879	n/a	TONGS	KitchenTools	11	16	[0, 0, 0]	n/a	catFR1	2	R1273D
2932.892	0.326	3112969	REC_WORD_VV	7.411	n/a	<>	n/a	-999	16	[0, 0, 0]	n/a	catFR1	2	R1273D
2933.218	3.02	3113295	REC_WORD	7.737	n/a	CALF	FarmAnimals	1	16	[0, 0, 0]	n/a	catFR1	2	R1273D
2936.238	0.872	3116315	REC_WORD	10.757	n/a	BULL	FarmAnimals	9	16	[0, 0, 0]	n/a	catFR1	2	R1273D
2937.11	0.359	3117187	REC_WORD_VV	11.629	n/a	<>	n/a	-999	16	[0, 0, 0]	n/a	catFR1	2	R1273D
2937.469	2.956	3117546	REC_WORD	11.988	n/a	HORSE	FarmAnimals	10	16	[0, 0, 0]	n/a	catFR1	2	R1273D
2940.425	6.309	3120501	REC_WORD_VV	14.944	n/a	<>	n/a	-999	16	[0, 0, 0]	n/a	catFR1	2	R1273D
2946.734	8.758	3126810	REC_WORD_VV	21.253	n/a	<>	n/a	-999	16	[0, 0, 0]	n/a	catFR1	2	R1273D
2955.492	5.911	3135568	REC_END	n/a	n/a	n/a	n/a	-999	16	[0, 0, 0]	n/a	catFR1	2	R1273D
2961.403	0.5	3141478	TRIAL	n/a	n/a	n/a	n/a	-999	17	[0, 0, 0]	n/a	catFR1	2	R1273D
2961.903	10.428	3141978	COUNTDOWN_START	n/a	n/a	n/a	n/a	-999	17	[0, 0, 0]	n/a	catFR1	2	R1273D
2972.331	0.008	3152406	COUNTDOWN_END	n/a	n/a	n/a	n/a	-999	17	[0, 0, 0]	n/a	catFR1	2	R1273D
2972.339	1.618	3152414	ORIENT	n/a	n/a	n/a	n/a	-999	17	[0, 0, 0]	n/a	catFR1	2	R1273D
2973.957	1.833	3154031	ORIENT_OFF	n/a	n/a	n/a	n/a	-999	17	[0, 0, 0]	n/a	catFR1	2	R1273D
2975.79	1.616	3155864	WORD	n/a	wordpools/wordpool_categorized_EN.txt	STRAWBERRY	Fruit	1	17	[0, 0, 0]	n/a	catFR1	2	R1273D
2977.406	0.817	3157480	WORD_OFF	n/a	n/a	STRAWBERRY	n/a	1	17	[0, 0, 0]	n/a	catFR1	2	R1273D
2978.223	1.618	3158297	WORD	n/a	wordpools/wordpool_categorized_EN.txt	PLUM	Fruit	2	17	[0, 0, 0]	n/a	catFR1	2	R1273D
2979.841	0.983	3159915	WORD_OFF	n/a	n/a	PLUM	n/a	2	17	[0, 0, 0]	n/a	catFR1	2	R1273D
2980.824	1.616	3160898	WORD	n/a	wordpools/wordpool_categorized_EN.txt	DOVE	Birds	3	17	[0, 0, 0]	n/a	catFR1	2	R1273D
2982.44	0.984	3162514	WORD_OFF	n/a	n/a	DOVE	n/a	3	17	[0, 0, 0]	n/a	catFR1	2	R1273D
2983.424	1.617	3163498	WORD	n/a	wordpools/wordpool_categorized_EN.txt	CROW	Birds	4	17	[0, 0, 0]	n/a	catFR1	2	R1273D
2985.041	0.784	3165115	WORD_OFF	n/a	n/a	CROW	n/a	4	17	[0, 0, 0]	n/a	catFR1	2	R1273D
2985.825	1.616	3165899	WORD	n/a	wordpools/wordpool_categorized_EN.txt	CRAB	OceanAnimals	5	17	[0, 0, 0]	n/a	catFR1	2	R1273D
2987.441	0.967	3167515	WORD_OFF	n/a	n/a	CRAB	n/a	5	17	[0, 0, 0]	n/a	catFR1	2	R1273D
2988.408	1.618	3168482	WORD	n/a	wordpools/wordpool_categorized_EN.txt	PLANKTON	OceanAnimals	6	17	[0, 0, 0]	n/a	catFR1	2	R1273D
2990.026	0.8	3170100	WORD_OFF	n/a	n/a	PLANKTON	n/a	6	17	[0, 0, 0]	n/a	catFR1	2	R1273D
2990.826	1.616	3170900	WORD	n/a	wordpools/wordpool_categorized_EN.txt	LEMON	Fruit	7	17	[0, 0, 0]	n/a	catFR1	2	R1273D
2992.442	1.0	3172515	WORD_OFF	n/a	n/a	LEMON	n/a	7	17	[0, 0, 0]	n/a	catFR1	2	R1273D
2993.442	1.617	3173515	WORD	n/a	wordpools/wordpool_categorized_EN.txt	BLUEBERRY	Fruit	8	17	[0, 0, 0]	n/a	catFR1	2	R1273D
2995.059	0.984	3175132	WORD_OFF	n/a	n/a	BLUEBERRY	n/a	8	17	[0, 0, 0]	n/a	catFR1	2	R1273D
2996.043	1.617	3176116	WORD	n/a	wordpools/wordpool_categorized_EN.txt	CARDINAL	Birds	9	17	[0, 0, 0]	n/a	catFR1	2	R1273D
2997.66	0.783	3177733	WORD_OFF	n/a	n/a	CARDINAL	n/a	9	17	[0, 0, 0]	n/a	catFR1	2	R1273D
2998.443	1.617	3178516	WORD	n/a	wordpools/wordpool_categorized_EN.txt	PIGEON	Birds	10	17	[0, 0, 0]	n/a	catFR1	2	R1273D
3000.06	0.835	3180133	WORD_OFF	n/a	n/a	PIGEON	n/a	10	17	[0, 0, 0]	n/a	catFR1	2	R1273D
3000.895	1.616	3180968	WORD	n/a	wordpools/wordpool_categorized_EN.txt	FISH	OceanAnimals	11	17	[0, 0, 0]	n/a	catFR1	2	R1273D
3002.511	0.967	3182584	WORD_OFF	n/a	n/a	FISH	n/a	11	17	[0, 0, 0]	n/a	catFR1	2	R1273D
3003.478	1.617	3183551	WORD	n/a	wordpools/wordpool_categorized_EN.txt	TURTLE	OceanAnimals	12	17	[0, 0, 0]	n/a	catFR1	2	R1273D
3005.095	0.0	3185168	ENCODING_END	n/a	n/a	n/a	n/a	-999	17	[0, 0, 0]	n/a	catFR1	2	R1273D
3005.095	0.11	3185168	WORD_OFF	n/a	n/a	TURTLE	n/a	12	17	[0, 0, 0]	n/a	catFR1	2	R1273D
3005.205	0.0	3185278	DISTRACT_START	n/a	n/a	n/a	n/a	-999	17	[0, 0, 0]	n/a	catFR1	2	R1273D
3005.205	0.023	3185278	START	n/a	n/a	n/a	n/a	-999	17	[-999, -999, -999]	n/a	catFR1	2	R1273D
3005.228	8.101	3185301	PROB	8.071	n/a	n/a	n/a	-999	17	[4, 7, 5]	16.0	catFR1	2	R1273D
3013.329	14.706	3193401	PROB	14.706	n/a	n/a	n/a	-999	17	[4, 4, 9]	17.0	catFR1	2	R1273D
3028.035	0.014	3208106	STOP	n/a	n/a	n/a	n/a	-999	17	[-999, -999, -999]	n/a	catFR1	2	R1273D
3028.049	0.533	3208120	DISTRACT_END	n/a	n/a	n/a	n/a	-999	17	[0, 0, 0]	n/a	catFR1	2	R1273D
3028.582	0.517	3208653	RETRIEVAL_ORIENT	n/a	n/a	n/a	n/a	-999	17	[0, 0, 0]	n/a	catFR1	2	R1273D
3029.099	0.412	3209170	REC_START	n/a	n/a	n/a	n/a	-999	17	[0, 0, 0]	n/a	catFR1	2	R1273D
3029.511	6.433	3209582	REC_WORD_VV	0.412	n/a	<>	n/a	-999	17	[0, 0, 0]	n/a	catFR1	2	R1273D
3035.944	2.654	3216015	REC_WORD	6.845	n/a	TURTLE	OceanAnimals	12	17	[0, 0, 0]	n/a	catFR1	2	R1273D
3038.598	2.472	3218669	REC_WORD	9.499	n/a	LEMON	Fruit	7	17	[0, 0, 0]	n/a	catFR1	2	R1273D
3041.07	6.115	3221141	REC_WORD_VV	11.971	n/a	<>	n/a	-999	17	[0, 0, 0]	n/a	catFR1	2	R1273D
3047.185	4.118	3227255	REC_WORD	18.086	n/a	STRAWBERRY	Fruit	1	17	[0, 0, 0]	n/a	catFR1	2	R1273D
3051.303	7.807	3231373	REC_WORD_VV	22.204	n/a	<>	n/a	-999	17	[0, 0, 0]	n/a	catFR1	2	R1273D
3059.11	5.979	3239180	REC_END	n/a	n/a	n/a	n/a	-999	17	[0, 0, 0]	n/a	catFR1	2	R1273D
3065.089	0.5	3245158	TRIAL	n/a	n/a	n/a	n/a	-999	18	[0, 0, 0]	n/a	catFR1	2	R1273D
3065.589	10.428	3245658	COUNTDOWN_START	n/a	n/a	n/a	n/a	-999	18	[0, 0, 0]	n/a	catFR1	2	R1273D
3076.017	0.008	3256086	COUNTDOWN_END	n/a	n/a	n/a	n/a	-999	18	[0, 0, 0]	n/a	catFR1	2	R1273D
3076.025	1.616	3256094	ORIENT	n/a	n/a	n/a	n/a	-999	18	[0, 0, 0]	n/a	catFR1	2	R1273D
3077.641	2.034	3257710	ORIENT_OFF	n/a	n/a	n/a	n/a	-999	18	[0, 0, 0]	n/a	catFR1	2	R1273D
3079.675	1.617	3259744	WORD	n/a	wordpools/wordpool_categorized_EN.txt	RATCHET	Tools	1	18	[0, 0, 0]	n/a	catFR1	2	R1273D
3081.292	0.917	3261360	WORD_OFF	n/a	n/a	RATCHET	n/a	1	18	[0, 0, 0]	n/a	catFR1	2	R1273D
3082.209	1.618	3262277	WORD	n/a	wordpools/wordpool_categorized_EN.txt	SANDER	Tools	2	18	[0, 0, 0]	n/a	catFR1	2	R1273D
3083.827	1.0	3263895	WORD_OFF	n/a	n/a	SANDER	n/a	2	18	[0, 0, 0]	n/a	catFR1	2	R1273D
3084.827	1.616	3264895	WORD	n/a	wordpools/wordpool_categorized_EN.txt	BANJO	Instruments	3	18	[0, 0, 0]	n/a	catFR1	2	R1273D
3086.443	0.9	3266511	WORD_OFF	n/a	n/a	BANJO	n/a	3	18	[0, 0, 0]	n/a	catFR1	2	R1273D
3087.343	1.618	3267411	WORD	n/a	wordpools/wordpool_categorized_EN.txt	DRUM	Instruments	4	18	[0, 0, 0]	n/a	catFR1	2	R1273D
3088.961	0.917	3269029	WORD_OFF	n/a	n/a	DRUM	n/a	4	18	[0, 0, 0]	n/a	catFR1	2	R1273D
3089.878	1.616	3269946	WORD	n/a	wordpools/wordpool_categorized_EN.txt	MOTH	Insects	5	18	[0, 0, 0]	n/a	catFR1	2	R1273D
3091.494	0.916	3271562	WORD_OFF	n/a	n/a	MOTH	n/a	5	18	[0, 0, 0]	n/a	catFR1	2	R1273D
3092.41	1.619	3272478	WORD	n/a	wordpools/wordpool_categorized_EN.txt	BUTTERFLY	Insects	6	18	[0, 0, 0]	n/a	catFR1	2	R1273D
3094.029	0.8	3274097	WORD_OFF	n/a	n/a	BUTTERFLY	n/a	6	18	[0, 0, 0]	n/a	catFR1	2	R1273D
3094.829	1.616	3274897	WORD	n/a	wordpools/wordpool_categorized_EN.txt	HAMMER	Tools	7	18	[0, 0, 0]	n/a	catFR1	2	R1273D
3096.445	1.016	3276513	WORD_OFF	n/a	n/a	HAMMER	n/a	7	18	[0, 0, 0]	n/a	catFR1	2	R1273D
3097.461	1.617	3277529	WORD	n/a	wordpools/wordpool_categorized_EN.txt	SHOVEL	Tools	8	18	[0, 0, 0]	n/a	catFR1	2	R1273D
3099.078	0.885	3279145	WORD_OFF	n/a	n/a	SHOVEL	n/a	8	18	[0, 0, 0]	n/a	catFR1	2	R1273D
3099.963	1.616	3280030	WORD	n/a	wordpools/wordpool_categorized_EN.txt	TRUMPET	Instruments	9	18	[0, 0, 0]	n/a	catFR1	2	R1273D
3101.579	0.767	3281646	WORD_OFF	n/a	n/a	TRUMPET	n/a	9	18	[0, 0, 0]	n/a	catFR1	2	R1273D
3102.346	1.618	3282413	WORD	n/a	wordpools/wordpool_categorized_EN.txt	TROMBONE	Instruments	10	18	[0, 0, 0]	n/a	catFR1	2	R1273D
3103.964	0.933	3284031	WORD_OFF	n/a	n/a	TROMBONE	n/a	10	18	[0, 0, 0]	n/a	catFR1	2	R1273D
3104.897	1.616	3284964	WORD	n/a	wordpools/wordpool_categorized_EN.txt	ROACH	Insects	11	18	[0, 0, 0]	n/a	catFR1	2	R1273D
3106.513	0.884	3286580	WORD_OFF	n/a	n/a	ROACH	n/a	11	18	[0, 0, 0]	n/a	catFR1	2	R1273D
3107.397	1.617	3287464	WORD	n/a	wordpools/wordpool_categorized_EN.txt	BEE	Insects	12	18	[0, 0, 0]	n/a	catFR1	2	R1273D
3109.014	0.001	3289081	WORD_OFF	n/a	n/a	BEE	n/a	12	18	[0, 0, 0]	n/a	catFR1	2	R1273D
3109.015	0.129	3289082	ENCODING_END	n/a	n/a	n/a	n/a	-999	18	[0, 0, 0]	n/a	catFR1	2	R1273D
3109.144	0.0	3289211	DISTRACT_START	n/a	n/a	n/a	n/a	-999	18	[0, 0, 0]	n/a	catFR1	2	R1273D
3109.144	0.019	3289211	START	n/a	n/a	n/a	n/a	-999	18	[-999, -999, -999]	n/a	catFR1	2	R1273D
3109.163	12.604	3289230	PROB	12.576	n/a	n/a	n/a	-999	18	[9, 5, 5]	19.0	catFR1	2	R1273D
3121.767	6.733	3301833	PROB	6.7	n/a	n/a	n/a	-999	18	[1, 5, 1]	7.0	catFR1	2	R1273D
3128.5	5.814	3308566	PROB	5.814	n/a	n/a	n/a	-999	18	[8, 3, 2]	13.0	catFR1	2	R1273D
3134.314	0.021	3314379	STOP	n/a	n/a	n/a	n/a	-999	18	[-999, -999, -999]	n/a	catFR1	2	R1273D
3134.335	0.7	3314400	DISTRACT_END	n/a	n/a	n/a	n/a	-999	18	[0, 0, 0]	n/a	catFR1	2	R1273D
3135.035	0.517	3315100	RETRIEVAL_ORIENT	n/a	n/a	n/a	n/a	-999	18	[0, 0, 0]	n/a	catFR1	2	R1273D
3135.552	0.3	3315617	REC_START	n/a	n/a	n/a	n/a	-999	18	[0, 0, 0]	n/a	catFR1	2	R1273D
3135.852	15.88	3315917	REC_WORD_VV	0.3	n/a	<>	n/a	-999	18	[0, 0, 0]	n/a	catFR1	2	R1273D
3151.732	0.804	3331796	REC_WORD	16.18	n/a	TRUMPET	Instruments	9	18	[0, 0, 0]	n/a	catFR1	2	R1273D
3152.536	2.374	3332600	REC_WORD	16.984	n/a	TROMBONE	Instruments	10	18	[0, 0, 0]	n/a	catFR1	2	R1273D
3154.91	3.9	3334974	REC_WORD_VV	19.358	n/a	<>	n/a	-999	18	[0, 0, 0]	n/a	catFR1	2	R1273D
3158.81	1.775	3338874	REC_WORD	23.258	n/a	TRUMPET	Instruments	9	18	[0, 0, 0]	n/a	catFR1	2	R1273D
3160.585	2.608	3340649	REC_WORD	25.033	n/a	TROMBONE	Instruments	10	18	[0, 0, 0]	n/a	catFR1	2	R1273D
3163.193	2.37	3343257	REC_WORD	27.641	n/a	FLUTE	n/a	-999	18	[0, 0, 0]	n/a	catFR1	2	R1273D
3165.563	5.912	3345627	REC_END	n/a	n/a	n/a	n/a	-999	18	[0, 0, 0]	n/a	catFR1	2	R1273D
3171.475	0.5	3351538	TRIAL	n/a	n/a	n/a	n/a	-999	19	[0, 0, 0]	n/a	catFR1	2	R1273D
3171.975	10.428	3352038	COUNTDOWN_START	n/a	n/a	n/a	n/a	-999	19	[0, 0, 0]	n/a	catFR1	2	R1273D
3182.403	0.007	3362466	COUNTDOWN_END	n/a	n/a	n/a	n/a	-999	19	[0, 0, 0]	n/a	catFR1	2	R1273D
3182.41	1.601	3362473	ORIENT	n/a	n/a	n/a	n/a	-999	19	[0, 0, 0]	n/a	catFR1	2	R1273D
3184.011	2.25	3364074	ORIENT_OFF	n/a	n/a	n/a	n/a	-999	19	[0, 0, 0]	n/a	catFR1	2	R1273D
3186.261	1.618	3366324	WORD	n/a	wordpools/wordpool_categorized_EN.txt	ELBOW	BodyParts	1	19	[0, 0, 0]	n/a	catFR1	2	R1273D
3187.879	0.867	3367941	WORD_OFF	n/a	n/a	ELBOW	n/a	1	19	[0, 0, 0]	n/a	catFR1	2	R1273D
3188.746	1.616	3368808	WORD	n/a	wordpools/wordpool_categorized_EN.txt	ARM	BodyParts	2	19	[0, 0, 0]	n/a	catFR1	2	R1273D
3190.362	1.0	3370424	WORD_OFF	n/a	n/a	ARM	n/a	2	19	[0, 0, 0]	n/a	catFR1	2	R1273D
3191.362	1.618	3371424	WORD	n/a	wordpools/wordpool_categorized_EN.txt	PIANO	Instruments	3	19	[0, 0, 0]	n/a	catFR1	2	R1273D
3192.98	0.967	3373042	WORD_OFF	n/a	n/a	PIANO	n/a	3	19	[0, 0, 0]	n/a	catFR1	2	R1273D
3193.947	1.616	3374009	WORD	n/a	wordpools/wordpool_categorized_EN.txt	GUITAR	Instruments	4	19	[0, 0, 0]	n/a	catFR1	2	R1273D
3195.563	0.95	3375625	WORD_OFF	n/a	n/a	GUITAR	n/a	4	19	[0, 0, 0]	n/a	catFR1	2	R1273D
3196.513	1.617	3376575	WORD	n/a	wordpools/wordpool_categorized_EN.txt	JEEP	Vehicles	5	19	[0, 0, 0]	n/a	catFR1	2	R1273D
3198.13	0.933	3378192	WORD_OFF	n/a	n/a	JEEP	n/a	5	19	[0, 0, 0]	n/a	catFR1	2	R1273D
3199.063	1.617	3379125	WORD	n/a	wordpools/wordpool_categorized_EN.txt	CAR	Vehicles	6	19	[0, 0, 0]	n/a	catFR1	2	R1273D
3200.68	0.934	3380742	WORD_OFF	n/a	n/a	CAR	n/a	6	19	[0, 0, 0]	n/a	catFR1	2	R1273D
3201.614	1.617	3381676	WORD	n/a	wordpools/wordpool_categorized_EN.txt	CELLO	Instruments	7	19	[0, 0, 0]	n/a	catFR1	2	R1273D
3203.231	0.833	3383293	WORD_OFF	n/a	n/a	CELLO	n/a	7	19	[0, 0, 0]	n/a	catFR1	2	R1273D
3204.064	1.617	3384125	WORD	n/a	wordpools/wordpool_categorized_EN.txt	BASS	Instruments	8	19	[0, 0, 0]	n/a	catFR1	2	R1273D
3205.681	0.85	3385742	WORD_OFF	n/a	n/a	BASS	n/a	8	19	[0, 0, 0]	n/a	catFR1	2	R1273D
3206.531	1.617	3386592	WORD	n/a	wordpools/wordpool_categorized_EN.txt	KNEE	BodyParts	9	19	[0, 0, 0]	n/a	catFR1	2	R1273D
3208.148	0.801	3388209	WORD_OFF	n/a	n/a	KNEE	n/a	9	19	[0, 0, 0]	n/a	catFR1	2	R1273D
3208.949	1.616	3389010	WORD	n/a	wordpools/wordpool_categorized_EN.txt	TOE	BodyParts	10	19	[0, 0, 0]	n/a	catFR1	2	R1273D
3210.565	0.95	3390626	WORD_OFF	n/a	n/a	TOE	n/a	10	19	[0, 0, 0]	n/a	catFR1	2	R1273D
3211.515	1.617	3391576	WORD	n/a	wordpools/wordpool_categorized_EN.txt	BIKE	Vehicles	11	19	[0, 0, 0]	n/a	catFR1	2	R1273D
3213.132	0.818	3393193	WORD_OFF	n/a	n/a	BIKE	n/a	11	19	[0, 0, 0]	n/a	catFR1	2	R1273D
3213.95	1.616	3394011	WORD	n/a	wordpools/wordpool_categorized_EN.txt	MOPED	Vehicles	12	19	[0, 0, 0]	n/a	catFR1	2	R1273D
3215.566	0.0	3395627	ENCODING_END	n/a	n/a	n/a	n/a	-999	19	[0, 0, 0]	n/a	catFR1	2	R1273D
3215.566	0.101	3395627	WORD_OFF	n/a	n/a	MOPED	n/a	12	19	[0, 0, 0]	n/a	catFR1	2	R1273D
3215.667	0.0	3395728	DISTRACT_START	n/a	n/a	n/a	n/a	-999	19	[0, 0, 0]	n/a	catFR1	2	R1273D
3215.667	0.016	3395728	START	n/a	n/a	n/a	n/a	-999	19	[-999, -999, -999]	n/a	catFR1	2	R1273D
3215.683	8.818	3395744	PROB	8.784	n/a	n/a	n/a	-999	19	[5, 6, 9]	20.0	catFR1	2	R1273D
3224.501	4.834	3404561	PROB	4.805	n/a	n/a	n/a	-999	19	[1, 6, 3]	9.0	catFR1	2	R1273D
3229.335	3.435	3409395	PROB	3.405	n/a	n/a	n/a	-999	19	[1, 4, 1]	6.0	catFR1	2	R1273D
3232.77	14.857	3412830	PROB	14.857	n/a	n/a	n/a	-999	19	[2, 7, 3]	12.0	catFR1	2	R1273D
3247.627	0.012	3427686	STOP	n/a	n/a	n/a	n/a	-999	19	[-999, -999, -999]	n/a	catFR1	2	R1273D
3247.639	0.55	3427698	DISTRACT_END	n/a	n/a	n/a	n/a	-999	19	[0, 0, 0]	n/a	catFR1	2	R1273D
3248.189	0.517	3428248	RETRIEVAL_ORIENT	n/a	n/a	n/a	n/a	-999	19	[0, 0, 0]	n/a	catFR1	2	R1273D
3248.706	0.573	3428765	REC_START	n/a	n/a	n/a	n/a	-999	19	[0, 0, 0]	n/a	catFR1	2	R1273D
3249.279	3.851	3429338	REC_WORD_VV	0.573	n/a	<>	n/a	-999	19	[0, 0, 0]	n/a	catFR1	2	R1273D
3253.13	1.227	3433189	REC_WORD	4.424	n/a	JEEP	Vehicles	5	19	[0, 0, 0]	n/a	catFR1	2	R1273D
3254.357	3.065	3434416	REC_WORD_VV	5.651	n/a	<>	n/a	-999	19	[0, 0, 0]	n/a	catFR1	2	R1273D
3257.422	4.4	3437480	REC_WORD_VV	8.716	n/a	<>	n/a	-999	19	[0, 0, 0]	n/a	catFR1	2	R1273D
3261.822	3.104	3441880	REC_WORD_VV	13.116	n/a	<>	n/a	-999	19	[0, 0, 0]	n/a	catFR1	2	R1273D
3264.926	2.896	3444984	REC_WORD_VV	16.22	n/a	<>	n/a	-999	19	[0, 0, 0]	n/a	catFR1	2	R1273D
3267.822	10.896	3447880	REC_WORD_VV	19.116	n/a	<>	n/a	-999	19	[0, 0, 0]	n/a	catFR1	2	R1273D
3278.718	150.337	3458775	REC_END	n/a	n/a	n/a	n/a	-999	19	[0, 0, 0]	n/a	catFR1	2	R1273D
3429.055	0.5	3609104	TRIAL	n/a	n/a	n/a	n/a	-999	20	[0, 0, 0]	n/a	catFR1	2	R1273D
3429.555	0.0	3609604	COUNTDOWN_START	n/a	n/a	n/a	n/a	-999	20	[0, 0, 0]	n/a	catFR1	2	R1273D
