onset	duration	sample	trial_type	response_time	stim_file	item_name	category	serialpos	list	test	answer	experiment	session	subject
0.0	7.709	14700	INSTRUCT_START	n/a	n/a	n/a	n/a	-999	-999	[0, 0, 0]	n/a	catFR1	3	R1375C
7.709	28.633	22402	INSTRUCT_END	n/a	n/a	n/a	n/a	-999	-999	[0, 0, 0]	n/a	catFR1	3	R1375C
36.342	10.0	51046	COUNTDOWN_START	n/a	n/a	n/a	n/a	-999	-999	[0, 0, 0]	n/a	catFR1	3	R1375C
46.675	0.001	61379	COUNTDOWN_END	n/a	n/a	n/a	n/a	-999	-999	[0, 0, 0]	n/a	catFR1	3	R1375C
46.676	2.365	61379	ENCODING_START	n/a	n/a	n/a	n/a	-999	-1	[0, 0, 0]	n/a	catFR1	3	R1375C
49.041	1.6	63735	WORD	n/a	n/a	TEACHER	Professions	1	-1	[0, 0, 0]	n/a	catFR1	3	R1375C
50.641	0.817	65334	WORD_OFF	n/a	n/a	TEACHER	Professions	1	-1	[0, 0, 0]	n/a	catFR1	3	R1375C
51.458	1.6	66160	WORD	n/a	n/a	FARMER	Professions	2	-1	[0, 0, 0]	n/a	catFR1	3	R1375C
53.058	0.784	67759	WORD_OFF	n/a	n/a	FARMER	Professions	2	-1	[0, 0, 0]	n/a	catFR1	3	R1375C
53.842	1.6	68544	WORD	n/a	n/a	DAY	Times	3	-1	[0, 0, 0]	n/a	catFR1	3	R1375C
55.458	0.984	70156	WORD_OFF	n/a	n/a	DAY	Times	3	-1	[0, 0, 0]	n/a	catFR1	3	R1375C
56.442	1.6	71134	WORD	n/a	n/a	SECOND	Times	4	-1	[0, 0, 0]	n/a	catFR1	3	R1375C
58.042	0.85	72732	WORD_OFF	n/a	n/a	SECOND	Times	4	-1	[0, 0, 0]	n/a	catFR1	3	R1375C
58.892	1.6	73587	WORD	n/a	n/a	DENIM	Materials	5	-1	[0, 0, 0]	n/a	catFR1	3	R1375C
60.492	0.933	75185	WORD_OFF	n/a	n/a	DENIM	Materials	5	-1	[0, 0, 0]	n/a	catFR1	3	R1375C
61.425	1.6	76122	WORD	n/a	n/a	SILK	Materials	6	-1	[0, 0, 0]	n/a	catFR1	3	R1375C
63.042	0.9	77734	WORD_OFF	n/a	n/a	SILK	Materials	6	-1	[0, 0, 0]	n/a	catFR1	3	R1375C
63.942	1.6	78643	WORD	n/a	n/a	MINUTE	Times	7	-1	[0, 0, 0]	n/a	catFR1	3	R1375C
65.542	0.8	80241	WORD_OFF	n/a	n/a	MINUTE	Times	7	-1	[0, 0, 0]	n/a	catFR1	3	R1375C
66.342	1.6	81040	WORD	n/a	n/a	HOUR	Times	8	-1	[0, 0, 0]	n/a	catFR1	3	R1375C
67.957	0.785	82652	WORD_OFF	n/a	n/a	HOUR	Times	8	-1	[0, 0, 0]	n/a	catFR1	3	R1375C
68.742	1.6	83438	WORD	n/a	n/a	LEATHER	Materials	9	-1	[0, 0, 0]	n/a	catFR1	3	R1375C
70.357	0.901	85050	WORD_OFF	n/a	n/a	LEATHER	Materials	9	-1	[0, 0, 0]	n/a	catFR1	3	R1375C
71.258	1.6	85959	WORD	n/a	n/a	WOOL	Materials	10	-1	[0, 0, 0]	n/a	catFR1	3	R1375C
72.858	0.817	87557	WORD_OFF	n/a	n/a	WOOL	Materials	10	-1	[0, 0, 0]	n/a	catFR1	3	R1375C
73.675	1.6	88370	WORD	n/a	n/a	FIREMAN	Professions	11	-1	[0, 0, 0]	n/a	catFR1	3	R1375C
75.275	0.817	89968	WORD_OFF	n/a	n/a	FIREMAN	Professions	11	-1	[0, 0, 0]	n/a	catFR1	3	R1375C
76.092	1.6	90795	WORD	n/a	n/a	PLUMBER	Professions	12	-1	[0, 0, 0]	n/a	catFR1	3	R1375C
77.71	0.0	92405	PROB	3.549	n/a	n/a	n/a	-999	-1	[8, 4, 8]	20.0	catFR1	3	R1375C
77.708	0.009	92407	WORD_OFF	n/a	n/a	PLUMBER	Professions	12	-1	[0, 0, 0]	n/a	catFR1	3	R1375C
77.717	0.001	92407	ENCODING_END	n/a	n/a	n/a	n/a	-999	-1	[0, 0, 0]	n/a	catFR1	3	R1375C
77.718	0.0	92413	START	n/a	n/a	n/a	n/a	-999	-1	[-999, -999, -999]	n/a	catFR1	3	R1375C
77.718	3.558	92421	DISTRACT_START	n/a	n/a	n/a	n/a	-999	-1	[0, 0, 0]	n/a	catFR1	3	R1375C
81.276	6.516	95971	PROB	6.499	n/a	n/a	n/a	-999	-1	[8, 7, 5]	20.0	catFR1	3	R1375C
87.792	3.466	102487	PROB	3.45	n/a	n/a	n/a	-999	-1	[6, 5, 6]	17.0	catFR1	3	R1375C
91.258	3.567	105952	PROB	3.55	n/a	n/a	n/a	-999	-1	[6, 5, 6]	17.0	catFR1	3	R1375C
94.825	3.366	109519	PROB	3.35	n/a	n/a	n/a	-999	-1	[1, 8, 3]	12.0	catFR1	3	R1375C
98.191	0.0	112881	DISTRACT_END	n/a	n/a	n/a	n/a	-999	-1	[0, 0, 0]	n/a	catFR1	3	R1375C
98.191	1.035	112885	STOP	n/a	n/a	n/a	n/a	-999	-1	[-999, -999, -999]	n/a	catFR1	3	R1375C
99.226	2.009	113914	REC_START	n/a	n/a	n/a	n/a	-999	-1	[0, 0, 0]	n/a	catFR1	3	R1375C
101.235	0.497	115929	REC_WORD_VV	2.009	n/a	<>	n/a	-999	-1	[0, 0, 0]	n/a	catFR1	3	R1375C
101.732	0.506	116426	REC_WORD_VV	2.506	n/a	<>	n/a	-999	-1	[0, 0, 0]	n/a	catFR1	3	R1375C
102.238	2.192	116932	REC_WORD_VV	3.012	n/a	<>	n/a	-999	-1	[0, 0, 0]	n/a	catFR1	3	R1375C
104.43	4.712	119124	REC_WORD_VV	5.204	n/a	<>	n/a	-999	-1	[0, 0, 0]	n/a	catFR1	3	R1375C
109.142	0.523	123836	REC_WORD_VV	9.916	n/a	<>	n/a	-999	-1	[0, 0, 0]	n/a	catFR1	3	R1375C
109.665	0.444	124359	REC_WORD_VV	10.439	n/a	<>	n/a	-999	-1	[0, 0, 0]	n/a	catFR1	3	R1375C
110.109	19.406	124802	REC_WORD_VV	10.883	n/a	<>	n/a	-999	-1	[0, 0, 0]	n/a	catFR1	3	R1375C
129.515	9.043	144211	REC_END	n/a	n/a	n/a	n/a	-999	-1	[0, 0, 0]	n/a	catFR1	3	R1375C
138.558	10.0	153250	COUNTDOWN_START	n/a	n/a	n/a	n/a	-999	1	[0, 0, 0]	n/a	catFR1	3	R1375C
148.909	0.0	163597	COUNTDOWN_END	n/a	n/a	n/a	n/a	-999	1	[0, 0, 0]	n/a	catFR1	3	R1375C
148.909	1.899	163611	ENCODING_START	n/a	n/a	n/a	n/a	-999	1	[0, 0, 0]	n/a	catFR1	3	R1375C
150.808	1.6	165498	WORD	n/a	wordpools/wordpool_categorized_EN.txt	OCTOPUS	Oceananimals	1	1	[0, 0, 0]	n/a	catFR1	3	R1375C
152.408	0.767	167096	WORD_OFF	n/a	n/a	OCTOPUS	Oceananimals	1	1	[0, 0, 0]	n/a	catFR1	3	R1375C
153.175	1.6	167868	WORD	n/a	wordpools/wordpool_categorized_EN.txt	JELLYFISH	Oceananimals	2	1	[0, 0, 0]	n/a	catFR1	3	R1375C
154.775	0.833	169466	WORD_OFF	n/a	n/a	JELLYFISH	Oceananimals	2	1	[0, 0, 0]	n/a	catFR1	3	R1375C
155.608	1.6	170307	WORD	n/a	wordpools/wordpool_categorized_EN.txt	EVERGREEN	Trees	3	1	[0, 0, 0]	n/a	catFR1	3	R1375C
157.224	0.917	171919	WORD_OFF	n/a	n/a	EVERGREEN	Trees	3	1	[0, 0, 0]	n/a	catFR1	3	R1375C
158.141	1.6	172828	WORD	n/a	wordpools/wordpool_categorized_EN.txt	PINE	Trees	4	1	[0, 0, 0]	n/a	catFR1	3	R1375C
159.741	0.9	174426	WORD_OFF	n/a	n/a	PINE	Trees	4	1	[0, 0, 0]	n/a	catFR1	3	R1375C
160.641	1.6	175335	WORD	n/a	wordpools/wordpool_categorized_EN.txt	CLOUD	Weather	5	1	[0, 0, 0]	n/a	catFR1	3	R1375C
162.258	0.767	176947	WORD_OFF	n/a	n/a	CLOUD	Weather	5	1	[0, 0, 0]	n/a	catFR1	3	R1375C
163.025	1.6	177719	WORD	n/a	wordpools/wordpool_categorized_EN.txt	TORNADO	Weather	6	1	[0, 0, 0]	n/a	catFR1	3	R1375C
164.641	0.834	179331	WORD_OFF	n/a	n/a	TORNADO	Weather	6	1	[0, 0, 0]	n/a	catFR1	3	R1375C
165.475	1.6	180171	WORD	n/a	wordpools/wordpool_categorized_EN.txt	WALNUT	Trees	7	1	[0, 0, 0]	n/a	catFR1	3	R1375C
167.092	0.95	181783	WORD_OFF	n/a	n/a	WALNUT	Trees	7	1	[0, 0, 0]	n/a	catFR1	3	R1375C
168.042	1.6	182734	WORD	n/a	wordpools/wordpool_categorized_EN.txt	ELM	Trees	8	1	[0, 0, 0]	n/a	catFR1	3	R1375C
169.642	0.932	184332	WORD_OFF	n/a	n/a	ELM	Trees	8	1	[0, 0, 0]	n/a	catFR1	3	R1375C
170.574	1.6	185269	WORD	n/a	wordpools/wordpool_categorized_EN.txt	DRIZZLE	Weather	9	1	[0, 0, 0]	n/a	catFR1	3	R1375C
172.174	0.833	186867	WORD_OFF	n/a	n/a	DRIZZLE	Weather	9	1	[0, 0, 0]	n/a	catFR1	3	R1375C
173.007	1.6	187694	WORD	n/a	wordpools/wordpool_categorized_EN.txt	WIND	Weather	10	1	[0, 0, 0]	n/a	catFR1	3	R1375C
174.608	0.767	189292	WORD_OFF	n/a	n/a	WIND	Weather	10	1	[0, 0, 0]	n/a	catFR1	3	R1375C
175.375	1.6	190064	WORD	n/a	wordpools/wordpool_categorized_EN.txt	DOLPHIN	Oceananimals	11	1	[0, 0, 0]	n/a	catFR1	3	R1375C
176.975	0.917	191662	WORD_OFF	n/a	n/a	DOLPHIN	Oceananimals	11	1	[0, 0, 0]	n/a	catFR1	3	R1375C
177.892	1.6	192585	WORD	n/a	wordpools/wordpool_categorized_EN.txt	SQUID	Oceananimals	12	1	[0, 0, 0]	n/a	catFR1	3	R1375C
179.492	0.0	194182	PROB	4.049	n/a	n/a	n/a	-999	1	[1, 4, 5]	10.0	catFR1	3	R1375C
179.492	0.001	194183	WORD_OFF	n/a	n/a	SQUID	Oceananimals	12	1	[0, 0, 0]	n/a	catFR1	3	R1375C
179.493	0.001	194183	ENCODING_END	n/a	n/a	n/a	n/a	-999	1	[0, 0, 0]	n/a	catFR1	3	R1375C
179.494	0.0	194183	DISTRACT_START	n/a	n/a	n/a	n/a	-999	1	[0, 0, 0]	n/a	catFR1	3	R1375C
179.494	4.064	194184	START	n/a	n/a	n/a	n/a	-999	1	[-999, -999, -999]	n/a	catFR1	3	R1375C
183.558	2.184	198248	PROB	2.167	n/a	n/a	n/a	-999	1	[4, 5, 3]	12.0	catFR1	3	R1375C
185.742	3.95	200432	PROB	3.933	n/a	n/a	n/a	-999	1	[7, 5, 4]	16.0	catFR1	3	R1375C
189.692	3.983	204381	PROB	3.966	n/a	n/a	n/a	-999	1	[7, 8, 1]	16.0	catFR1	3	R1375C
193.675	2.55	208364	PROB	2.533	n/a	n/a	n/a	-999	1	[6, 1, 6]	13.0	catFR1	3	R1375C
196.225	3.033	210914	PROB	3.016	n/a	n/a	n/a	-999	1	[3, 7, 1]	11.0	catFR1	3	R1375C
199.258	3.2	213947	PROB	3.183	n/a	n/a	n/a	-999	1	[1, 7, 4]	12.0	catFR1	3	R1375C
202.458	0.0	217147	STOP	n/a	n/a	n/a	n/a	-999	1	[-999, -999, -999]	n/a	catFR1	3	R1375C
202.458	1.283	217151	DISTRACT_END	n/a	n/a	n/a	n/a	-999	1	[0, 0, 0]	n/a	catFR1	3	R1375C
203.741	2.113	218432	REC_START	n/a	n/a	n/a	n/a	-999	1	[0, 0, 0]	n/a	catFR1	3	R1375C
205.854	1.121	220543	REC_WORD	2.113	n/a	EVERGREEN	Trees	3	1	[0, 0, 0]	n/a	catFR1	3	R1375C
206.975	1.324	221664	REC_WORD_VV	3.234	n/a	<>	n/a	-999	1	[0, 0, 0]	n/a	catFR1	3	R1375C
208.299	0.603	222988	REC_WORD_VV	4.558	n/a	<>	n/a	-999	1	[0, 0, 0]	n/a	catFR1	3	R1375C
208.902	1.152	223590	REC_WORD	5.161	n/a	WIND	Weather	10	1	[0, 0, 0]	n/a	catFR1	3	R1375C
210.054	2.412	224742	REC_WORD	6.313	n/a	OCTOPUS	Oceananimals	1	1	[0, 0, 0]	n/a	catFR1	3	R1375C
212.466	5.557	227154	REC_WORD_VV	8.725	n/a	<>	n/a	-999	1	[0, 0, 0]	n/a	catFR1	3	R1375C
218.023	8.449	232711	REC_WORD	14.282	n/a	TORNADO	Weather	6	1	[0, 0, 0]	n/a	catFR1	3	R1375C
226.472	7.549	241160	REC_WORD	22.731	n/a	SQUID	Oceananimals	12	1	[0, 0, 0]	n/a	catFR1	3	R1375C
234.021	1.004	248716	REC_END	n/a	n/a	n/a	n/a	-999	1	[0, 0, 0]	n/a	catFR1	3	R1375C
235.025	10.0	249722	COUNTDOWN_START	n/a	n/a	n/a	n/a	-999	2	[0, 0, 0]	n/a	catFR1	3	R1375C
245.375	0.0	260069	COUNTDOWN_END	n/a	n/a	n/a	n/a	-999	2	[0, 0, 0]	n/a	catFR1	3	R1375C
245.375	1.833	260069	ENCODING_START	n/a	n/a	n/a	n/a	-999	2	[0, 0, 0]	n/a	catFR1	3	R1375C
247.208	1.6	261901	WORD	n/a	wordpools/wordpool_categorized_EN.txt	BIRCH	Trees	1	2	[0, 0, 0]	n/a	catFR1	3	R1375C
248.808	0.817	263499	WORD_OFF	n/a	n/a	BIRCH	Trees	1	2	[0, 0, 0]	n/a	catFR1	3	R1375C
249.625	1.6	264312	WORD	n/a	wordpools/wordpool_categorized_EN.txt	MAPLE	Trees	2	2	[0, 0, 0]	n/a	catFR1	3	R1375C
251.225	0.833	265910	WORD_OFF	n/a	n/a	MAPLE	Trees	2	2	[0, 0, 0]	n/a	catFR1	3	R1375C
252.058	1.6	266751	WORD	n/a	wordpools/wordpool_categorized_EN.txt	SHELF	Furniture	3	2	[0, 0, 0]	n/a	catFR1	3	R1375C
253.675	0.983	268363	WORD_OFF	n/a	n/a	SHELF	Furniture	3	2	[0, 0, 0]	n/a	catFR1	3	R1375C
254.658	1.6	269341	WORD	n/a	wordpools/wordpool_categorized_EN.txt	TABLE	Furniture	4	2	[0, 0, 0]	n/a	catFR1	3	R1375C
256.258	0.934	270939	WORD_OFF	n/a	n/a	TABLE	Furniture	4	2	[0, 0, 0]	n/a	catFR1	3	R1375C
257.192	1.6	271876	WORD	n/a	wordpools/wordpool_categorized_EN.txt	WASHER	Appliances	5	2	[0, 0, 0]	n/a	catFR1	3	R1375C
258.807	0.817	273488	WORD_OFF	n/a	n/a	WASHER	Appliances	5	2	[0, 0, 0]	n/a	catFR1	3	R1375C
259.624	1.6	274315	WORD	n/a	wordpools/wordpool_categorized_EN.txt	FREEZER	Appliances	6	2	[0, 0, 0]	n/a	catFR1	3	R1375C
261.224	0.784	275913	WORD_OFF	n/a	n/a	FREEZER	Appliances	6	2	[0, 0, 0]	n/a	catFR1	3	R1375C
262.008	1.6	276698	WORD	n/a	wordpools/wordpool_categorized_EN.txt	RECLINER	Furniture	7	2	[0, 0, 0]	n/a	catFR1	3	R1375C
263.625	1.0	278310	WORD_OFF	n/a	n/a	RECLINER	Furniture	7	2	[0, 0, 0]	n/a	catFR1	3	R1375C
264.625	1.6	279316	WORD	n/a	wordpools/wordpool_categorized_EN.txt	DESK	Furniture	8	2	[0, 0, 0]	n/a	catFR1	3	R1375C
266.242	0.915	280928	WORD_OFF	n/a	n/a	DESK	Furniture	8	2	[0, 0, 0]	n/a	catFR1	3	R1375C
267.157	1.6	281838	WORD	n/a	wordpools/wordpool_categorized_EN.txt	HICKORY	Trees	9	2	[0, 0, 0]	n/a	catFR1	3	R1375C
268.775	0.967	283463	WORD_OFF	n/a	n/a	HICKORY	Trees	9	2	[0, 0, 0]	n/a	catFR1	3	R1375C
269.742	1.6	284428	WORD	n/a	wordpools/wordpool_categorized_EN.txt	WILLOW	Trees	10	2	[0, 0, 0]	n/a	catFR1	3	R1375C
271.358	0.783	286040	WORD_OFF	n/a	n/a	WILLOW	Trees	10	2	[0, 0, 0]	n/a	catFR1	3	R1375C
272.141	1.6	286825	WORD	n/a	wordpools/wordpool_categorized_EN.txt	MIXER	Appliances	11	2	[0, 0, 0]	n/a	catFR1	3	R1375C
273.741	0.784	288423	WORD_OFF	n/a	n/a	MIXER	Appliances	11	2	[0, 0, 0]	n/a	catFR1	3	R1375C
274.525	1.6	289209	WORD	n/a	wordpools/wordpool_categorized_EN.txt	STOVE	Appliances	12	2	[0, 0, 0]	n/a	catFR1	3	R1375C
276.142	0.0	290821	WORD_OFF	n/a	n/a	STOVE	Appliances	12	2	[0, 0, 0]	n/a	catFR1	3	R1375C
276.142	0.002	290827	PROB	4.083	n/a	n/a	n/a	-999	2	[8, 6, 3]	17.0	catFR1	3	R1375C
276.144	0.0	290829	START	n/a	n/a	n/a	n/a	-999	2	[-999, -999, -999]	n/a	catFR1	3	R1375C
276.144	0.0	290834	ENCODING_END	n/a	n/a	n/a	n/a	-999	2	[0, 0, 0]	n/a	catFR1	3	R1375C
276.144	4.098	290834	DISTRACT_START	n/a	n/a	n/a	n/a	-999	2	[0, 0, 0]	n/a	catFR1	3	R1375C
280.242	9.353	294927	PROB	9.332	n/a	n/a	n/a	-999	2	[7, 8, 8]	23.0	catFR1	3	R1375C
289.595	3.013	304279	PROB	2.999	n/a	n/a	n/a	-999	2	[2, 4, 8]	14.0	catFR1	3	R1375C
292.608	3.201	307292	PROB	3.183	n/a	n/a	n/a	-999	2	[8, 2, 4]	14.0	catFR1	3	R1375C
295.809	5.465	310493	PROB	5.449	n/a	n/a	n/a	-999	2	[7, 6, 4]	17.0	catFR1	3	R1375C
301.274	0.0	315958	STOP	n/a	n/a	n/a	n/a	-999	2	[-999, -999, -999]	n/a	catFR1	3	R1375C
301.274	1.2	315965	DISTRACT_END	n/a	n/a	n/a	n/a	-999	2	[0, 0, 0]	n/a	catFR1	3	R1375C
302.474	2.105	317164	REC_START	n/a	n/a	n/a	n/a	-999	2	[0, 0, 0]	n/a	catFR1	3	R1375C
304.579	0.844	319263	REC_WORD	2.105	n/a	BIRCH	Trees	1	2	[0, 0, 0]	n/a	catFR1	3	R1375C
305.423	1.185	320107	REC_WORD	2.949	n/a	MAPLE	Trees	2	2	[0, 0, 0]	n/a	catFR1	3	R1375C
306.608	2.339	321292	REC_WORD_VV	4.134	n/a	<>	n/a	-999	2	[0, 0, 0]	n/a	catFR1	3	R1375C
308.947	0.804	323630	REC_WORD_VV	6.473	n/a	<>	n/a	-999	2	[0, 0, 0]	n/a	catFR1	3	R1375C
309.751	1.473	324434	REC_WORD	7.277	n/a	RECLINER	Furniture	7	2	[0, 0, 0]	n/a	catFR1	3	R1375C
311.224	4.793	325907	REC_WORD	8.75	n/a	DESK	Furniture	8	2	[0, 0, 0]	n/a	catFR1	3	R1375C
316.017	16.715	330700	REC_WORD	13.543	n/a	SHELF	Furniture	3	2	[0, 0, 0]	n/a	catFR1	3	R1375C
332.732	1.659	347420	REC_END	n/a	n/a	n/a	n/a	-999	2	[0, 0, 0]	n/a	catFR1	3	R1375C
334.391	10.0	349073	COUNTDOWN_START	n/a	n/a	n/a	n/a	-999	3	[0, 0, 0]	n/a	catFR1	3	R1375C
344.741	0.0	359420	COUNTDOWN_END	n/a	n/a	n/a	n/a	-999	3	[0, 0, 0]	n/a	catFR1	3	R1375C
344.741	1.883	359420	ENCODING_START	n/a	n/a	n/a	n/a	-999	3	[0, 0, 0]	n/a	catFR1	3	R1375C
346.624	1.6	361308	WORD	n/a	wordpools/wordpool_categorized_EN.txt	BLUEBERRY	Fruit	1	3	[0, 0, 0]	n/a	catFR1	3	R1375C
348.224	0.851	362906	WORD_OFF	n/a	n/a	BLUEBERRY	Fruit	1	3	[0, 0, 0]	n/a	catFR1	3	R1375C
349.075	1.6	363760	WORD	n/a	wordpools/wordpool_categorized_EN.txt	PLUM	Fruit	2	3	[0, 0, 0]	n/a	catFR1	3	R1375C
350.691	0.8	365372	WORD_OFF	n/a	n/a	PLUM	Fruit	2	3	[0, 0, 0]	n/a	catFR1	3	R1375C
351.491	1.6	366171	WORD	n/a	wordpools/wordpool_categorized_EN.txt	TAPE	Officesupplies	3	3	[0, 0, 0]	n/a	catFR1	3	R1375C
353.092	0.8	367769	WORD_OFF	n/a	n/a	TAPE	Officesupplies	3	3	[0, 0, 0]	n/a	catFR1	3	R1375C
353.892	1.6	368569	WORD	n/a	wordpools/wordpool_categorized_EN.txt	PENCIL	Officesupplies	4	3	[0, 0, 0]	n/a	catFR1	3	R1375C
355.492	0.965	370181	WORD_OFF	n/a	n/a	PENCIL	Officesupplies	4	3	[0, 0, 0]	n/a	catFR1	3	R1375C
356.457	1.6	371145	WORD	n/a	wordpools/wordpool_categorized_EN.txt	DRESS	Clothing	5	3	[0, 0, 0]	n/a	catFR1	3	R1375C
358.058	0.866	372743	WORD_OFF	n/a	n/a	DRESS	Clothing	5	3	[0, 0, 0]	n/a	catFR1	3	R1375C
358.924	1.6	373611	WORD	n/a	wordpools/wordpool_categorized_EN.txt	JACKET	Clothing	6	3	[0, 0, 0]	n/a	catFR1	3	R1375C
360.525	0.866	375209	WORD_OFF	n/a	n/a	JACKET	Clothing	6	3	[0, 0, 0]	n/a	catFR1	3	R1375C
361.391	1.6	376077	WORD	n/a	wordpools/wordpool_categorized_EN.txt	ORANGE	Fruit	7	3	[0, 0, 0]	n/a	catFR1	3	R1375C
363.008	0.9	377689	WORD_OFF	n/a	n/a	ORANGE	Fruit	7	3	[0, 0, 0]	n/a	catFR1	3	R1375C
363.908	1.6	378585	WORD	n/a	wordpools/wordpool_categorized_EN.txt	LIME	Fruit	8	3	[0, 0, 0]	n/a	catFR1	3	R1375C
365.508	0.767	380183	WORD_OFF	n/a	n/a	LIME	Fruit	8	3	[0, 0, 0]	n/a	catFR1	3	R1375C
366.275	1.6	380955	WORD	n/a	wordpools/wordpool_categorized_EN.txt	RULER	Officesupplies	9	3	[0, 0, 0]	n/a	catFR1	3	R1375C
367.875	0.916	382553	WORD_OFF	n/a	n/a	RULER	Officesupplies	9	3	[0, 0, 0]	n/a	catFR1	3	R1375C
368.791	1.6	383476	WORD	n/a	wordpools/wordpool_categorized_EN.txt	PAPER	Officesupplies	10	3	[0, 0, 0]	n/a	catFR1	3	R1375C
370.391	0.9	385074	WORD_OFF	n/a	n/a	PAPER	Officesupplies	10	3	[0, 0, 0]	n/a	catFR1	3	R1375C
371.291	1.6	385970	WORD	n/a	wordpools/wordpool_categorized_EN.txt	SHIRT	Clothing	11	3	[0, 0, 0]	n/a	catFR1	3	R1375C
372.891	0.952	387568	WORD_OFF	n/a	n/a	SHIRT	Clothing	11	3	[0, 0, 0]	n/a	catFR1	3	R1375C
373.843	1.6	388519	WORD	n/a	wordpools/wordpool_categorized_EN.txt	COAT	Clothing	12	3	[0, 0, 0]	n/a	catFR1	3	R1375C
375.441	0.0	390117	WORD_OFF	n/a	n/a	COAT	Clothing	12	3	[0, 0, 0]	n/a	catFR1	3	R1375C
375.441	0.002	390121	PROB	2.133	n/a	n/a	n/a	-999	3	[2, 1, 2]	5.0	catFR1	3	R1375C
375.443	0.0	390123	START	n/a	n/a	n/a	n/a	-999	3	[-999, -999, -999]	n/a	catFR1	3	R1375C
375.443	0.0	390131	ENCODING_END	n/a	n/a	n/a	n/a	-999	3	[0, 0, 0]	n/a	catFR1	3	R1375C
375.443	2.149	390131	DISTRACT_START	n/a	n/a	n/a	n/a	-999	3	[0, 0, 0]	n/a	catFR1	3	R1375C
377.592	2.833	392272	PROB	2.816	n/a	n/a	n/a	-999	3	[5, 1, 4]	10.0	catFR1	3	R1375C
380.425	2.566	395105	PROB	2.549	n/a	n/a	n/a	-999	3	[2, 1, 6]	9.0	catFR1	3	R1375C
382.991	4.85	397671	PROB	4.833	n/a	n/a	n/a	-999	3	[7, 1, 5]	13.0	catFR1	3	R1375C
387.841	1.95	402520	PROB	1.933	n/a	n/a	n/a	-999	3	[5, 5, 5]	15.0	catFR1	3	R1375C
389.791	2.05	404470	PROB	2.033	n/a	n/a	n/a	-999	3	[2, 5, 2]	9.0	catFR1	3	R1375C
391.841	10.751	406520	PROB	10.734	n/a	n/a	n/a	-999	3	[6, 5, 8]	19.0	catFR1	3	R1375C
402.592	0.0	417271	STOP	n/a	n/a	n/a	n/a	-999	3	[-999, -999, -999]	n/a	catFR1	3	R1375C
402.592	1.215	417273	DISTRACT_END	n/a	n/a	n/a	n/a	-999	3	[0, 0, 0]	n/a	catFR1	3	R1375C
403.807	2.464	418485	REC_START	n/a	n/a	n/a	n/a	-999	3	[0, 0, 0]	n/a	catFR1	3	R1375C
406.271	0.934	420949	REC_WORD	2.464	n/a	RULER	Officesupplies	9	3	[0, 0, 0]	n/a	catFR1	3	R1375C
407.205	2.311	421883	REC_WORD	3.398	n/a	PAPER	Officesupplies	10	3	[0, 0, 0]	n/a	catFR1	3	R1375C
409.516	1.629	424194	REC_WORD	5.709	n/a	BLUEBERRY	Fruit	1	3	[0, 0, 0]	n/a	catFR1	3	R1375C
411.145	1.382	425823	REC_WORD	7.338	n/a	PLUM	Fruit	2	3	[0, 0, 0]	n/a	catFR1	3	R1375C
412.527	1.026	427205	REC_WORD	8.72	n/a	ORANGE	Fruit	7	3	[0, 0, 0]	n/a	catFR1	3	R1375C
413.553	10.683	428231	REC_WORD	9.746	n/a	LIME	Fruit	8	3	[0, 0, 0]	n/a	catFR1	3	R1375C
424.236	0.855	438914	REC_WORD	20.429	n/a	DRESS	Clothing	5	3	[0, 0, 0]	n/a	catFR1	3	R1375C
425.091	9.004	439768	REC_WORD	21.284	n/a	SHIRT	Clothing	11	3	[0, 0, 0]	n/a	catFR1	3	R1375C
434.095	2.18	448769	REC_END	n/a	n/a	n/a	n/a	-999	3	[0, 0, 0]	n/a	catFR1	3	R1375C
436.275	10.0	450960	COUNTDOWN_START	n/a	n/a	n/a	n/a	-999	4	[0, 0, 0]	n/a	catFR1	3	R1375C
446.642	0.001	461320	COUNTDOWN_END	n/a	n/a	n/a	n/a	-999	4	[0, 0, 0]	n/a	catFR1	3	R1375C
446.643	1.899	461320	ENCODING_START	n/a	n/a	n/a	n/a	-999	4	[0, 0, 0]	n/a	catFR1	3	R1375C
448.542	1.6	463222	WORD	n/a	wordpools/wordpool_categorized_EN.txt	TIGER	Zoo	1	4	[0, 0, 0]	n/a	catFR1	3	R1375C
450.142	0.983	464820	WORD_OFF	n/a	n/a	TIGER	Zoo	1	4	[0, 0, 0]	n/a	catFR1	3	R1375C
451.125	1.6	465798	WORD	n/a	wordpools/wordpool_categorized_EN.txt	GIRAFFE	Zoo	2	4	[0, 0, 0]	n/a	catFR1	3	R1375C
452.725	0.967	467396	WORD_OFF	n/a	n/a	GIRAFFE	Zoo	2	4	[0, 0, 0]	n/a	catFR1	3	R1375C
453.692	1.6	468375	WORD	n/a	wordpools/wordpool_categorized_EN.txt	GRAPE	Fruit	3	4	[0, 0, 0]	n/a	catFR1	3	R1375C
455.292	0.866	469973	WORD_OFF	n/a	n/a	GRAPE	Fruit	3	4	[0, 0, 0]	n/a	catFR1	3	R1375C
456.158	1.6	470841	WORD	n/a	wordpools/wordpool_categorized_EN.txt	STRAWBERRY	Fruit	4	4	[0, 0, 0]	n/a	catFR1	3	R1375C
457.758	0.8	472439	WORD_OFF	n/a	n/a	STRAWBERRY	Fruit	4	4	[0, 0, 0]	n/a	catFR1	3	R1375C
458.558	1.6	473238	WORD	n/a	wordpools/wordpool_categorized_EN.txt	JELLO	Desserts	5	4	[0, 0, 0]	n/a	catFR1	3	R1375C
460.174	0.984	474850	WORD_OFF	n/a	n/a	JELLO	Desserts	5	4	[0, 0, 0]	n/a	catFR1	3	R1375C
461.158	1.6	475828	WORD	n/a	wordpools/wordpool_categorized_EN.txt	CAKE	Desserts	6	4	[0, 0, 0]	n/a	catFR1	3	R1375C
462.758	0.966	477440	WORD_OFF	n/a	n/a	CAKE	Desserts	6	4	[0, 0, 0]	n/a	catFR1	3	R1375C
463.724	1.6	478405	WORD	n/a	wordpools/wordpool_categorized_EN.txt	PEAR	Fruit	7	4	[0, 0, 0]	n/a	catFR1	3	R1375C
465.325	0.949	480003	WORD_OFF	n/a	n/a	PEAR	Fruit	7	4	[0, 0, 0]	n/a	catFR1	3	R1375C
466.274	1.6	480954	WORD	n/a	wordpools/wordpool_categorized_EN.txt	CHERRY	Fruit	8	4	[0, 0, 0]	n/a	catFR1	3	R1375C
467.875	0.8	482552	WORD_OFF	n/a	n/a	CHERRY	Fruit	8	4	[0, 0, 0]	n/a	catFR1	3	R1375C
468.675	1.6	483351	WORD	n/a	wordpools/wordpool_categorized_EN.txt	CUPCAKE	Desserts	9	4	[0, 0, 0]	n/a	catFR1	3	R1375C
470.275	0.867	484949	WORD_OFF	n/a	n/a	CUPCAKE	Desserts	9	4	[0, 0, 0]	n/a	catFR1	3	R1375C
471.142	1.6	485817	WORD	n/a	wordpools/wordpool_categorized_EN.txt	PIE	Desserts	10	4	[0, 0, 0]	n/a	catFR1	3	R1375C
472.742	0.883	487416	WORD_OFF	n/a	n/a	PIE	Desserts	10	4	[0, 0, 0]	n/a	catFR1	3	R1375C
473.625	1.6	488297	WORD	n/a	wordpools/wordpool_categorized_EN.txt	PANDA	Zoo	11	4	[0, 0, 0]	n/a	catFR1	3	R1375C
475.241	0.95	489923	WORD_OFF	n/a	n/a	PANDA	Zoo	11	4	[0, 0, 0]	n/a	catFR1	3	R1375C
476.191	1.6	490860	WORD	n/a	wordpools/wordpool_categorized_EN.txt	CHEETAH	Zoo	12	4	[0, 0, 0]	n/a	catFR1	3	R1375C
477.809	0.0	492484	START	n/a	n/a	n/a	n/a	-999	4	[-999, -999, -999]	n/a	catFR1	3	R1375C
477.809	0.0	492484	PROB	3.349	n/a	n/a	n/a	-999	4	[6, 2, 3]	11.0	catFR1	3	R1375C
477.807	0.002	492486	WORD_OFF	n/a	n/a	CHEETAH	Zoo	12	4	[0, 0, 0]	n/a	catFR1	3	R1375C
477.809	0.0	492486	ENCODING_END	n/a	n/a	n/a	n/a	-999	4	[0, 0, 0]	n/a	catFR1	3	R1375C
477.809	3.366	492486	DISTRACT_START	n/a	n/a	n/a	n/a	-999	4	[0, 0, 0]	n/a	catFR1	3	R1375C
481.175	1.917	495850	PROB	1.899	n/a	n/a	n/a	-999	4	[6, 4, 3]	13.0	catFR1	3	R1375C
483.092	2.199	497767	PROB	2.183	n/a	n/a	n/a	-999	4	[1, 7, 8]	16.0	catFR1	3	R1375C
485.291	2.434	499965	PROB	2.417	n/a	n/a	n/a	-999	4	[5, 8, 5]	18.0	catFR1	3	R1375C
487.725	2.533	502399	PROB	2.517	n/a	n/a	n/a	-999	4	[7, 4, 1]	12.0	catFR1	3	R1375C
490.258	3.45	504932	PROB	3.433	n/a	n/a	n/a	-999	4	[6, 6, 4]	16.0	catFR1	3	R1375C
493.708	4.7	508382	PROB	4.684	n/a	n/a	n/a	-999	4	[1, 6, 8]	15.0	catFR1	3	R1375C
498.408	0.0	513082	STOP	n/a	n/a	n/a	n/a	-999	4	[-999, -999, -999]	n/a	catFR1	3	R1375C
498.408	1.4	513084	DISTRACT_END	n/a	n/a	n/a	n/a	-999	4	[0, 0, 0]	n/a	catFR1	3	R1375C
499.808	3.852	514489	REC_START	n/a	n/a	n/a	n/a	-999	4	[0, 0, 0]	n/a	catFR1	3	R1375C
503.66	5.148	518334	REC_WORD	3.852	n/a	TIGER	Zoo	1	4	[0, 0, 0]	n/a	catFR1	3	R1375C
508.808	3.286	523481	REC_WORD	9.0	n/a	GIRAFFE	Zoo	2	4	[0, 0, 0]	n/a	catFR1	3	R1375C
512.094	17.989	526767	REC_WORD_VV	12.286	n/a	<>	n/a	-999	4	[0, 0, 0]	n/a	catFR1	3	R1375C
530.083	1.491	544759	REC_END	n/a	n/a	n/a	n/a	-999	4	[0, 0, 0]	n/a	catFR1	3	R1375C
531.574	10.0	546247	COUNTDOWN_START	n/a	n/a	n/a	n/a	-999	5	[0, 0, 0]	n/a	catFR1	3	R1375C
541.925	0.001	556594	COUNTDOWN_END	n/a	n/a	n/a	n/a	-999	5	[0, 0, 0]	n/a	catFR1	3	R1375C
541.926	2.049	556607	ENCODING_START	n/a	n/a	n/a	n/a	-999	5	[0, 0, 0]	n/a	catFR1	3	R1375C
543.975	1.6	558647	WORD	n/a	wordpools/wordpool_categorized_EN.txt	GOAT	Farmanimals	1	5	[0, 0, 0]	n/a	catFR1	3	R1375C
545.591	0.967	560259	WORD_OFF	n/a	n/a	GOAT	Farmanimals	1	5	[0, 0, 0]	n/a	catFR1	3	R1375C
546.558	1.6	561223	WORD	n/a	wordpools/wordpool_categorized_EN.txt	LAMB	Farmanimals	2	5	[0, 0, 0]	n/a	catFR1	3	R1375C
548.158	1.0	562835	WORD_OFF	n/a	n/a	LAMB	Farmanimals	2	5	[0, 0, 0]	n/a	catFR1	3	R1375C
549.158	1.6	563827	WORD	n/a	wordpools/wordpool_categorized_EN.txt	FISH	Oceananimals	3	5	[0, 0, 0]	n/a	catFR1	3	R1375C
550.758	0.866	565439	WORD_OFF	n/a	n/a	FISH	Oceananimals	3	5	[0, 0, 0]	n/a	catFR1	3	R1375C
551.624	1.6	566293	WORD	n/a	wordpools/wordpool_categorized_EN.txt	CRAB	Oceananimals	4	5	[0, 0, 0]	n/a	catFR1	3	R1375C
553.241	0.95	567919	WORD_OFF	n/a	n/a	CRAB	Oceananimals	4	5	[0, 0, 0]	n/a	catFR1	3	R1375C
554.191	1.6	568856	WORD	n/a	wordpools/wordpool_categorized_EN.txt	BROWNIES	Desserts	5	5	[0, 0, 0]	n/a	catFR1	3	R1375C
555.791	0.967	570468	WORD_OFF	n/a	n/a	BROWNIES	Desserts	5	5	[0, 0, 0]	n/a	catFR1	3	R1375C
556.758	1.6	571432	WORD	n/a	wordpools/wordpool_categorized_EN.txt	PUDDING	Desserts	6	5	[0, 0, 0]	n/a	catFR1	3	R1375C
558.374	0.767	573044	WORD_OFF	n/a	n/a	PUDDING	Desserts	6	5	[0, 0, 0]	n/a	catFR1	3	R1375C
559.141	1.6	573816	WORD	n/a	wordpools/wordpool_categorized_EN.txt	CHICKEN	Farmanimals	7	5	[0, 0, 0]	n/a	catFR1	3	R1375C
560.741	1.0	575414	WORD_OFF	n/a	n/a	CHICKEN	Farmanimals	7	5	[0, 0, 0]	n/a	catFR1	3	R1375C
561.741	1.6	576406	WORD	n/a	wordpools/wordpool_categorized_EN.txt	ROOSTER	Farmanimals	8	5	[0, 0, 0]	n/a	catFR1	3	R1375C
563.358	0.966	578032	WORD_OFF	n/a	n/a	ROOSTER	Farmanimals	8	5	[0, 0, 0]	n/a	catFR1	3	R1375C
564.324	1.6	578996	WORD	n/a	wordpools/wordpool_categorized_EN.txt	PLANKTON	Oceananimals	9	5	[0, 0, 0]	n/a	catFR1	3	R1375C
565.924	0.883	580595	WORD_OFF	n/a	n/a	PLANKTON	Oceananimals	9	5	[0, 0, 0]	n/a	catFR1	3	R1375C
566.807	1.6	581476	WORD	n/a	wordpools/wordpool_categorized_EN.txt	LOBSTER	Oceananimals	10	5	[0, 0, 0]	n/a	catFR1	3	R1375C
568.408	0.916	583075	WORD_OFF	n/a	n/a	LOBSTER	Oceananimals	10	5	[0, 0, 0]	n/a	catFR1	3	R1375C
569.324	1.6	583998	WORD	n/a	wordpools/wordpool_categorized_EN.txt	PASTRY	Desserts	11	5	[0, 0, 0]	n/a	catFR1	3	R1375C
570.925	0.766	585596	WORD_OFF	n/a	n/a	PASTRY	Desserts	11	5	[0, 0, 0]	n/a	catFR1	3	R1375C
571.691	1.6	586367	WORD	n/a	wordpools/wordpool_categorized_EN.txt	COOKIE	Desserts	12	5	[0, 0, 0]	n/a	catFR1	3	R1375C
573.291	0.002	587961	PROB	3.2	n/a	n/a	n/a	-999	5	[7, 3, 6]	16.0	catFR1	3	R1375C
573.293	0.0	587963	START	n/a	n/a	n/a	n/a	-999	5	[-999, -999, -999]	n/a	catFR1	3	R1375C
573.291	0.002	587966	WORD_OFF	n/a	n/a	COOKIE	Desserts	12	5	[0, 0, 0]	n/a	catFR1	3	R1375C
573.293	0.0	587966	ENCODING_END	n/a	n/a	n/a	n/a	-999	5	[0, 0, 0]	n/a	catFR1	3	R1375C
573.293	3.215	587966	DISTRACT_START	n/a	n/a	n/a	n/a	-999	5	[0, 0, 0]	n/a	catFR1	3	R1375C
576.508	2.984	591178	PROB	2.967	n/a	n/a	n/a	-999	5	[4, 2, 7]	13.0	catFR1	3	R1375C
579.492	2.033	594162	PROB	2.016	n/a	n/a	n/a	-999	5	[4, 3, 5]	12.0	catFR1	3	R1375C
581.525	4.154	596195	PROB	4.133	n/a	n/a	n/a	-999	5	[6, 8, 1]	15.0	catFR1	3	R1375C
585.679	2.196	600348	PROB	2.183	n/a	n/a	n/a	-999	5	[6, 3, 1]	10.0	catFR1	3	R1375C
587.875	4.668	602544	PROB	4.65	n/a	n/a	n/a	-999	5	[7, 1, 6]	14.0	catFR1	3	R1375C
592.543	3.514	607212	PROB	3.498	n/a	n/a	n/a	-999	5	[5, 8, 4]	17.0	catFR1	3	R1375C
596.057	0.0	610726	STOP	n/a	n/a	n/a	n/a	-999	5	[-999, -999, -999]	n/a	catFR1	3	R1375C
596.057	1.367	610727	DISTRACT_END	n/a	n/a	n/a	n/a	-999	5	[0, 0, 0]	n/a	catFR1	3	R1375C
597.424	1.769	612091	REC_START	n/a	n/a	n/a	n/a	-999	5	[0, 0, 0]	n/a	catFR1	3	R1375C
599.193	0.92	613862	REC_WORD	1.769	n/a	GOAT	Farmanimals	1	5	[0, 0, 0]	n/a	catFR1	3	R1375C
600.113	3.384	614782	REC_WORD	2.689	n/a	LAMB	Farmanimals	2	5	[0, 0, 0]	n/a	catFR1	3	R1375C
603.497	0.645	618165	REC_WORD	6.073	n/a	LOBSTER	Oceananimals	10	5	[0, 0, 0]	n/a	catFR1	3	R1375C
604.142	7.525	618810	REC_WORD	6.718	n/a	CRAB	Oceananimals	4	5	[0, 0, 0]	n/a	catFR1	3	R1375C
611.667	15.466	626335	REC_WORD	14.243	n/a	PLANKTON	Oceananimals	9	5	[0, 0, 0]	n/a	catFR1	3	R1375C
627.133	0.552	641800	REC_WORD	29.709	n/a	FISH	Oceananimals	3	5	[0, 0, 0]	n/a	catFR1	3	R1375C
627.685	1.623	642347	REC_END	n/a	n/a	n/a	n/a	-999	5	[0, 0, 0]	n/a	catFR1	3	R1375C
629.308	10.0	643972	COUNTDOWN_START	n/a	n/a	n/a	n/a	-999	6	[0, 0, 0]	n/a	catFR1	3	R1375C
639.659	0.0	654319	COUNTDOWN_END	n/a	n/a	n/a	n/a	-999	6	[0, 0, 0]	n/a	catFR1	3	R1375C
639.659	2.182	654333	ENCODING_START	n/a	n/a	n/a	n/a	-999	6	[0, 0, 0]	n/a	catFR1	3	R1375C
641.841	1.6	656510	WORD	n/a	wordpools/wordpool_categorized_EN.txt	HAMMER	Tools	1	6	[0, 0, 0]	n/a	catFR1	3	R1375C
643.441	0.966	658108	WORD_OFF	n/a	n/a	HAMMER	Tools	1	6	[0, 0, 0]	n/a	catFR1	3	R1375C
644.407	1.6	659073	WORD	n/a	wordpools/wordpool_categorized_EN.txt	SHOVEL	Tools	2	6	[0, 0, 0]	n/a	catFR1	3	R1375C
646.007	0.801	660671	WORD_OFF	n/a	n/a	SHOVEL	Tools	2	6	[0, 0, 0]	n/a	catFR1	3	R1375C
646.808	1.6	661470	WORD	n/a	wordpools/wordpool_categorized_EN.txt	SPATULA	Kitchentools	3	6	[0, 0, 0]	n/a	catFR1	3	R1375C
648.408	0.849	663068	WORD_OFF	n/a	n/a	SPATULA	Kitchentools	3	6	[0, 0, 0]	n/a	catFR1	3	R1375C
649.257	1.6	663922	WORD	n/a	wordpools/wordpool_categorized_EN.txt	COLANDER	Kitchentools	4	6	[0, 0, 0]	n/a	catFR1	3	R1375C
650.857	0.784	665521	WORD_OFF	n/a	n/a	COLANDER	Kitchentools	4	6	[0, 0, 0]	n/a	catFR1	3	R1375C
651.641	1.6	666306	WORD	n/a	wordpools/wordpool_categorized_EN.txt	CAULIFLOWER	Vegetables	5	6	[0, 0, 0]	n/a	catFR1	3	R1375C
653.241	0.766	667904	WORD_OFF	n/a	n/a	CAULIFLOWER	Vegetables	5	6	[0, 0, 0]	n/a	catFR1	3	R1375C
654.007	1.6	668676	WORD	n/a	wordpools/wordpool_categorized_EN.txt	CORN	Vegetables	6	6	[0, 0, 0]	n/a	catFR1	3	R1375C
655.624	0.985	670288	WORD_OFF	n/a	n/a	CORN	Vegetables	6	6	[0, 0, 0]	n/a	catFR1	3	R1375C
656.609	1.6	671280	WORD	n/a	wordpools/wordpool_categorized_EN.txt	PLIERS	Tools	7	6	[0, 0, 0]	n/a	catFR1	3	R1375C
658.225	0.834	672892	WORD_OFF	n/a	n/a	PLIERS	Tools	7	6	[0, 0, 0]	n/a	catFR1	3	R1375C
659.059	1.6	673732	WORD	n/a	wordpools/wordpool_categorized_EN.txt	WRENCH	Tools	8	6	[0, 0, 0]	n/a	catFR1	3	R1375C
660.675	0.832	675344	WORD_OFF	n/a	n/a	WRENCH	Tools	8	6	[0, 0, 0]	n/a	catFR1	3	R1375C
661.507	1.6	676171	WORD	n/a	wordpools/wordpool_categorized_EN.txt	FORK	Kitchentools	9	6	[0, 0, 0]	n/a	catFR1	3	R1375C
663.108	0.933	677769	WORD_OFF	n/a	n/a	FORK	Kitchentools	9	6	[0, 0, 0]	n/a	catFR1	3	R1375C
664.041	1.6	678706	WORD	n/a	wordpools/wordpool_categorized_EN.txt	LADLE	Kitchentools	10	6	[0, 0, 0]	n/a	catFR1	3	R1375C
665.641	0.783	680304	WORD_OFF	n/a	n/a	LADLE	Kitchentools	10	6	[0, 0, 0]	n/a	catFR1	3	R1375C
666.424	1.6	681090	WORD	n/a	wordpools/wordpool_categorized_EN.txt	SPINACH	Vegetables	11	6	[0, 0, 0]	n/a	catFR1	3	R1375C
668.025	0.933	682688	WORD_OFF	n/a	n/a	SPINACH	Vegetables	11	6	[0, 0, 0]	n/a	catFR1	3	R1375C
668.958	1.6	683625	WORD	n/a	wordpools/wordpool_categorized_EN.txt	CELERY	Vegetables	12	6	[0, 0, 0]	n/a	catFR1	3	R1375C
670.575	0.002	685237	WORD_OFF	n/a	n/a	CELERY	Vegetables	12	6	[0, 0, 0]	n/a	catFR1	3	R1375C
670.577	0.0	685237	ENCODING_END	n/a	n/a	n/a	n/a	-999	6	[0, 0, 0]	n/a	catFR1	3	R1375C
670.575	0.002	685240	PROB	3.883	n/a	n/a	n/a	-999	6	[8, 3, 4]	15.0	catFR1	3	R1375C
670.577	0.0	685242	START	n/a	n/a	n/a	n/a	-999	6	[-999, -999, -999]	n/a	catFR1	3	R1375C
670.577	3.898	685250	DISTRACT_START	n/a	n/a	n/a	n/a	-999	6	[0, 0, 0]	n/a	catFR1	3	R1375C
674.475	2.1	689140	PROB	2.083	n/a	n/a	n/a	-999	6	[3, 3, 5]	11.0	catFR1	3	R1375C
676.575	2.317	691240	PROB	2.3	n/a	n/a	n/a	-999	6	[2, 7, 7]	16.0	catFR1	3	R1375C
678.892	7.333	693557	PROB	7.316	n/a	n/a	n/a	-999	6	[7, 7, 8]	22.0	catFR1	3	R1375C
686.225	2.751	700889	PROB	2.733	n/a	n/a	n/a	-999	6	[6, 7, 4]	17.0	catFR1	3	R1375C
688.976	5.366	703640	PROB	5.349	n/a	n/a	n/a	-999	6	[2, 2, 3]	7.0	catFR1	3	R1375C
694.342	0.0	709003	DISTRACT_END	n/a	n/a	n/a	n/a	-999	6	[0, 0, 0]	n/a	catFR1	3	R1375C
694.342	1.016	709006	STOP	n/a	n/a	n/a	n/a	-999	6	[-999, -999, -999]	n/a	catFR1	3	R1375C
695.358	2.222	710023	REC_START	n/a	n/a	n/a	n/a	-999	6	[0, 0, 0]	n/a	catFR1	3	R1375C
697.58	2.778	712244	REC_WORD	2.222	n/a	SPATULA	Kitchentools	3	6	[0, 0, 0]	n/a	catFR1	3	R1375C
700.358	1.892	715022	REC_WORD_VV	5.0	n/a	<>	n/a	-999	6	[0, 0, 0]	n/a	catFR1	3	R1375C
702.25	3.067	716913	REC_WORD	6.892	n/a	SHOVEL	Tools	2	6	[0, 0, 0]	n/a	catFR1	3	R1375C
705.317	0.979	719980	REC_WORD	9.959	n/a	HAMMER	Tools	1	6	[0, 0, 0]	n/a	catFR1	3	R1375C
706.296	17.687	720959	REC_WORD	10.938	n/a	WRENCH	Tools	8	6	[0, 0, 0]	n/a	catFR1	3	R1375C
723.983	1.671	738645	REC_WORD_VV	28.625	n/a	<>	n/a	-999	6	[0, 0, 0]	n/a	catFR1	3	R1375C
725.654	1.187	740320	REC_END	n/a	n/a	n/a	n/a	-999	6	[0, 0, 0]	n/a	catFR1	3	R1375C
726.841	10.0	741505	COUNTDOWN_START	n/a	n/a	n/a	n/a	-999	7	[0, 0, 0]	n/a	catFR1	3	R1375C
737.192	0.0	751852	COUNTDOWN_END	n/a	n/a	n/a	n/a	-999	7	[0, 0, 0]	n/a	catFR1	3	R1375C
737.192	1.982	751852	ENCODING_START	n/a	n/a	n/a	n/a	-999	7	[0, 0, 0]	n/a	catFR1	3	R1375C
739.174	1.6	753836	WORD	n/a	wordpools/wordpool_categorized_EN.txt	BEER	Beverages	1	7	[0, 0, 0]	n/a	catFR1	3	R1375C
740.791	0.833	755448	WORD_OFF	n/a	n/a	BEER	Beverages	1	7	[0, 0, 0]	n/a	catFR1	3	R1375C
741.624	1.6	756289	WORD	n/a	wordpools/wordpool_categorized_EN.txt	WATER	Beverages	2	7	[0, 0, 0]	n/a	catFR1	3	R1375C
743.225	0.949	757887	WORD_OFF	n/a	n/a	WATER	Beverages	2	7	[0, 0, 0]	n/a	catFR1	3	R1375C
744.174	1.6	758838	WORD	n/a	wordpools/wordpool_categorized_EN.txt	CARROT	Vegetables	3	7	[0, 0, 0]	n/a	catFR1	3	R1375C
745.775	0.782	760436	WORD_OFF	n/a	n/a	CARROT	Vegetables	3	7	[0, 0, 0]	n/a	catFR1	3	R1375C
746.557	1.6	761221	WORD	n/a	wordpools/wordpool_categorized_EN.txt	BROCCOLI	Vegetables	4	7	[0, 0, 0]	n/a	catFR1	3	R1375C
748.158	0.851	762819	WORD_OFF	n/a	n/a	BROCCOLI	Vegetables	4	7	[0, 0, 0]	n/a	catFR1	3	R1375C
749.009	1.6	763674	WORD	n/a	wordpools/wordpool_categorized_EN.txt	PEN	Officesupplies	5	7	[0, 0, 0]	n/a	catFR1	3	R1375C
750.624	0.867	765286	WORD_OFF	n/a	n/a	PEN	Officesupplies	5	7	[0, 0, 0]	n/a	catFR1	3	R1375C
751.491	1.6	766154	WORD	n/a	wordpools/wordpool_categorized_EN.txt	FOLDER	Officesupplies	6	7	[0, 0, 0]	n/a	catFR1	3	R1375C
753.091	0.901	767766	WORD_OFF	n/a	n/a	FOLDER	Officesupplies	6	7	[0, 0, 0]	n/a	catFR1	3	R1375C
753.992	1.6	768647	WORD	n/a	wordpools/wordpool_categorized_EN.txt	RUM	Beverages	7	7	[0, 0, 0]	n/a	catFR1	3	R1375C
755.592	0.949	770259	WORD_OFF	n/a	n/a	RUM	Beverages	7	7	[0, 0, 0]	n/a	catFR1	3	R1375C
756.541	1.6	771196	WORD	n/a	wordpools/wordpool_categorized_EN.txt	CIDER	Beverages	8	7	[0, 0, 0]	n/a	catFR1	3	R1375C
758.142	0.866	772808	WORD_OFF	n/a	n/a	CIDER	Beverages	8	7	[0, 0, 0]	n/a	catFR1	3	R1375C
759.008	1.6	773676	WORD	n/a	wordpools/wordpool_categorized_EN.txt	ONION	Vegetables	9	7	[0, 0, 0]	n/a	catFR1	3	R1375C
760.608	0.833	775274	WORD_OFF	n/a	n/a	ONION	Vegetables	9	7	[0, 0, 0]	n/a	catFR1	3	R1375C
761.441	1.6	776101	WORD	n/a	wordpools/wordpool_categorized_EN.txt	CUCUMBER	Vegetables	10	7	[0, 0, 0]	n/a	catFR1	3	R1375C
763.042	0.818	777699	WORD_OFF	n/a	n/a	CUCUMBER	Vegetables	10	7	[0, 0, 0]	n/a	catFR1	3	R1375C
763.86	1.6	778526	WORD	n/a	wordpools/wordpool_categorized_EN.txt	ERASER	Officesupplies	11	7	[0, 0, 0]	n/a	catFR1	3	R1375C
765.475	0.85	780138	WORD_OFF	n/a	n/a	ERASER	Officesupplies	11	7	[0, 0, 0]	n/a	catFR1	3	R1375C
766.325	1.6	780992	WORD	n/a	wordpools/wordpool_categorized_EN.txt	MARKER	Officesupplies	12	7	[0, 0, 0]	n/a	catFR1	3	R1375C
767.925	0.002	782585	PROB	2.683	n/a	n/a	n/a	-999	7	[2, 1, 8]	11.0	catFR1	3	R1375C
767.927	0.0	782587	START	n/a	n/a	n/a	n/a	-999	7	[-999, -999, -999]	n/a	catFR1	3	R1375C
767.925	0.002	782590	WORD_OFF	n/a	n/a	MARKER	Officesupplies	12	7	[0, 0, 0]	n/a	catFR1	3	R1375C
767.927	0.0	782590	ENCODING_END	n/a	n/a	n/a	n/a	-999	7	[0, 0, 0]	n/a	catFR1	3	R1375C
767.927	2.699	782590	DISTRACT_START	n/a	n/a	n/a	n/a	-999	7	[0, 0, 0]	n/a	catFR1	3	R1375C
770.626	2.598	785286	PROB	2.582	n/a	n/a	n/a	-999	7	[6, 7, 3]	16.0	catFR1	3	R1375C
773.224	3.285	787884	PROB	3.267	n/a	n/a	n/a	-999	7	[3, 7, 7]	17.0	catFR1	3	R1375C
776.509	5.45	791169	PROB	5.433	n/a	n/a	n/a	-999	7	[5, 7, 2]	14.0	catFR1	3	R1375C
781.959	2.283	796618	PROB	2.266	n/a	n/a	n/a	-999	7	[2, 5, 5]	12.0	catFR1	3	R1375C
784.242	5.299	798901	PROB	5.282	n/a	n/a	n/a	-999	7	[8, 8, 6]	22.0	catFR1	3	R1375C
789.541	0.0	804200	STOP	n/a	n/a	n/a	n/a	-999	7	[-999, -999, -999]	n/a	catFR1	3	R1375C
789.541	1.384	804208	DISTRACT_END	n/a	n/a	n/a	n/a	-999	7	[0, 0, 0]	n/a	catFR1	3	R1375C
790.925	2.572	805585	REC_START	n/a	n/a	n/a	n/a	-999	7	[0, 0, 0]	n/a	catFR1	3	R1375C
793.497	1.122	808156	REC_WORD	2.572	n/a	BEER	Beverages	1	7	[0, 0, 0]	n/a	catFR1	3	R1375C
794.619	1.126	809278	REC_WORD	3.694	n/a	WATER	Beverages	2	7	[0, 0, 0]	n/a	catFR1	3	R1375C
795.745	0.814	810404	REC_WORD	4.82	n/a	RUM	Beverages	7	7	[0, 0, 0]	n/a	catFR1	3	R1375C
796.559	1.497	811218	REC_WORD	5.634	n/a	CIDER	Beverages	8	7	[0, 0, 0]	n/a	catFR1	3	R1375C
798.056	1.591	812715	REC_WORD	7.131	n/a	FOLDER	Officesupplies	6	7	[0, 0, 0]	n/a	catFR1	3	R1375C
799.647	21.563	814305	REC_WORD	8.722	n/a	ERASER	Officesupplies	11	7	[0, 0, 0]	n/a	catFR1	3	R1375C
821.21	1.681	835869	REC_END	n/a	n/a	n/a	n/a	-999	7	[0, 0, 0]	n/a	catFR1	3	R1375C
822.891	10.0	837550	COUNTDOWN_START	n/a	n/a	n/a	n/a	-999	8	[0, 0, 0]	n/a	catFR1	3	R1375C
833.242	0.001	847897	COUNTDOWN_END	n/a	n/a	n/a	n/a	-999	8	[0, 0, 0]	n/a	catFR1	3	R1375C
833.243	1.915	847897	ENCODING_START	n/a	n/a	n/a	n/a	-999	8	[0, 0, 0]	n/a	catFR1	3	R1375C
835.158	1.6	849812	WORD	n/a	wordpools/wordpool_categorized_EN.txt	WHISK	Kitchentools	1	8	[0, 0, 0]	n/a	catFR1	3	R1375C
836.774	0.967	851438	WORD_OFF	n/a	n/a	WHISK	Kitchentools	1	8	[0, 0, 0]	n/a	catFR1	3	R1375C
837.741	1.6	852402	WORD	n/a	wordpools/wordpool_categorized_EN.txt	KNIFE	Kitchentools	2	8	[0, 0, 0]	n/a	catFR1	3	R1375C
839.341	0.951	854001	WORD_OFF	n/a	n/a	KNIFE	Kitchentools	2	8	[0, 0, 0]	n/a	catFR1	3	R1375C
840.292	1.6	854951	WORD	n/a	wordpools/wordpool_categorized_EN.txt	LILY	Flowers	3	8	[0, 0, 0]	n/a	catFR1	3	R1375C
841.892	0.85	856549	WORD_OFF	n/a	n/a	LILY	Flowers	3	8	[0, 0, 0]	n/a	catFR1	3	R1375C
842.742	1.6	857404	WORD	n/a	wordpools/wordpool_categorized_EN.txt	LILAC	Flowers	4	8	[0, 0, 0]	n/a	catFR1	3	R1375C
844.342	0.783	859002	WORD_OFF	n/a	n/a	LILAC	Flowers	4	8	[0, 0, 0]	n/a	catFR1	3	R1375C
845.125	1.6	859787	WORD	n/a	wordpools/wordpool_categorized_EN.txt	CREEK	Landscapes	5	8	[0, 0, 0]	n/a	catFR1	3	R1375C
846.742	0.95	861399	WORD_OFF	n/a	n/a	CREEK	Landscapes	5	8	[0, 0, 0]	n/a	catFR1	3	R1375C
847.692	1.6	862350	WORD	n/a	wordpools/wordpool_categorized_EN.txt	VALLEY	Landscapes	6	8	[0, 0, 0]	n/a	catFR1	3	R1375C
849.292	0.766	863948	WORD_OFF	n/a	n/a	VALLEY	Landscapes	6	8	[0, 0, 0]	n/a	catFR1	3	R1375C
850.058	1.6	864720	WORD	n/a	wordpools/wordpool_categorized_EN.txt	SUNFLOWER	Flowers	7	8	[0, 0, 0]	n/a	catFR1	3	R1375C
851.658	0.984	866318	WORD_OFF	n/a	n/a	SUNFLOWER	Flowers	7	8	[0, 0, 0]	n/a	catFR1	3	R1375C
852.642	1.6	867296	WORD	n/a	wordpools/wordpool_categorized_EN.txt	DAFFODIL	Flowers	8	8	[0, 0, 0]	n/a	catFR1	3	R1375C
854.242	0.983	868894	WORD_OFF	n/a	n/a	DAFFODIL	Flowers	8	8	[0, 0, 0]	n/a	catFR1	3	R1375C
855.225	1.6	869886	WORD	n/a	wordpools/wordpool_categorized_EN.txt	STRAINER	Kitchentools	9	8	[0, 0, 0]	n/a	catFR1	3	R1375C
856.825	0.85	871485	WORD_OFF	n/a	n/a	STRAINER	Kitchentools	9	8	[0, 0, 0]	n/a	catFR1	3	R1375C
857.675	1.6	872325	WORD	n/a	wordpools/wordpool_categorized_EN.txt	SPOON	Kitchentools	10	8	[0, 0, 0]	n/a	catFR1	3	R1375C
859.291	0.916	873951	WORD_OFF	n/a	n/a	SPOON	Kitchentools	10	8	[0, 0, 0]	n/a	catFR1	3	R1375C
860.207	1.6	874860	WORD	n/a	wordpools/wordpool_categorized_EN.txt	LAKE	Landscapes	11	8	[0, 0, 0]	n/a	catFR1	3	R1375C
861.808	0.802	876458	WORD_OFF	n/a	n/a	LAKE	Landscapes	11	8	[0, 0, 0]	n/a	catFR1	3	R1375C
862.61	1.6	877271	WORD	n/a	wordpools/wordpool_categorized_EN.txt	HILLS	Landscapes	12	8	[0, 0, 0]	n/a	catFR1	3	R1375C
864.226	0.001	878881	PROB	4.132	n/a	n/a	n/a	-999	8	[8, 2, 6]	16.0	catFR1	3	R1375C
864.227	0.0	878882	START	n/a	n/a	n/a	n/a	-999	8	[-999, -999, -999]	n/a	catFR1	3	R1375C
864.225	0.002	878883	WORD_OFF	n/a	n/a	HILLS	Landscapes	12	8	[0, 0, 0]	n/a	catFR1	3	R1375C
864.227	0.0	878883	ENCODING_END	n/a	n/a	n/a	n/a	-999	8	[0, 0, 0]	n/a	catFR1	3	R1375C
864.227	4.149	878883	DISTRACT_START	n/a	n/a	n/a	n/a	-999	8	[0, 0, 0]	n/a	catFR1	3	R1375C
868.376	2.266	883031	PROB	2.249	n/a	n/a	n/a	-999	8	[4, 4, 4]	12.0	catFR1	3	R1375C
870.642	3.5	885297	PROB	3.482	n/a	n/a	n/a	-999	8	[2, 5, 8]	15.0	catFR1	3	R1375C
874.142	5.267	888797	PROB	5.25	n/a	n/a	n/a	-999	8	[8, 5, 7]	20.0	catFR1	3	R1375C
879.409	3.733	894063	PROB	3.715	n/a	n/a	n/a	-999	8	[4, 3, 1]	8.0	catFR1	3	R1375C
883.142	6.766	897796	PROB	6.75	n/a	n/a	n/a	-999	8	[8, 7, 2]	17.0	catFR1	3	R1375C
889.908	0.0	904562	STOP	n/a	n/a	n/a	n/a	-999	8	[-999, -999, -999]	n/a	catFR1	3	R1375C
889.908	1.233	904565	DISTRACT_END	n/a	n/a	n/a	n/a	-999	8	[0, 0, 0]	n/a	catFR1	3	R1375C
891.141	1.759	905791	REC_START	n/a	n/a	n/a	n/a	-999	8	[0, 0, 0]	n/a	catFR1	3	R1375C
892.9	1.336	907554	REC_WORD_VV	1.759	n/a	<>	n/a	-999	8	[0, 0, 0]	n/a	catFR1	3	R1375C
894.236	0.848	908890	REC_WORD	3.095	n/a	SUNFLOWER	Flowers	7	8	[0, 0, 0]	n/a	catFR1	3	R1375C
895.084	1.93	909738	REC_WORD	3.943	n/a	DAFFODIL	Flowers	8	8	[0, 0, 0]	n/a	catFR1	3	R1375C
897.014	10.45	911668	REC_WORD_VV	5.873	n/a	<>	n/a	-999	8	[0, 0, 0]	n/a	catFR1	3	R1375C
907.464	13.948	922117	REC_WORD	16.323	n/a	CREEK	Landscapes	5	8	[0, 0, 0]	n/a	catFR1	3	R1375C
921.412	1.313	936061	REC_END	n/a	n/a	n/a	n/a	-999	8	[0, 0, 0]	n/a	catFR1	3	R1375C
922.725	10.0	937384	COUNTDOWN_START	n/a	n/a	n/a	n/a	-999	9	[0, 0, 0]	n/a	catFR1	3	R1375C
933.076	0.0	947731	COUNTDOWN_END	n/a	n/a	n/a	n/a	-999	9	[0, 0, 0]	n/a	catFR1	3	R1375C
933.076	1.882	947731	ENCODING_START	n/a	n/a	n/a	n/a	-999	9	[0, 0, 0]	n/a	catFR1	3	R1375C
934.958	1.6	949604	WORD	n/a	wordpools/wordpool_categorized_EN.txt	DUCK	Birds	1	9	[0, 0, 0]	n/a	catFR1	3	R1375C
936.575	0.817	951230	WORD_OFF	n/a	n/a	DUCK	Birds	1	9	[0, 0, 0]	n/a	catFR1	3	R1375C
937.392	1.6	952043	WORD	n/a	wordpools/wordpool_categorized_EN.txt	DOVE	Birds	2	9	[0, 0, 0]	n/a	catFR1	3	R1375C
939.008	0.9	953655	WORD_OFF	n/a	n/a	DOVE	Birds	2	9	[0, 0, 0]	n/a	catFR1	3	R1375C
939.908	1.6	954564	WORD	n/a	wordpools/wordpool_categorized_EN.txt	COBBLER	Desserts	3	9	[0, 0, 0]	n/a	catFR1	3	R1375C
941.525	0.983	956176	WORD_OFF	n/a	n/a	COBBLER	Desserts	3	9	[0, 0, 0]	n/a	catFR1	3	R1375C
942.508	1.6	957155	WORD	n/a	wordpools/wordpool_categorized_EN.txt	MOUSSE	Desserts	4	9	[0, 0, 0]	n/a	catFR1	3	R1375C
944.108	0.85	958767	WORD_OFF	n/a	n/a	MOUSSE	Desserts	4	9	[0, 0, 0]	n/a	catFR1	3	R1375C
944.958	1.6	959607	WORD	n/a	wordpools/wordpool_categorized_EN.txt	SNOW	Weather	5	9	[0, 0, 0]	n/a	catFR1	3	R1375C
946.575	0.85	961233	WORD_OFF	n/a	n/a	SNOW	Weather	5	9	[0, 0, 0]	n/a	catFR1	3	R1375C
947.425	1.6	962073	WORD	n/a	wordpools/wordpool_categorized_EN.txt	HUMIDITY	Weather	6	9	[0, 0, 0]	n/a	catFR1	3	R1375C
949.041	0.867	963699	WORD_OFF	n/a	n/a	HUMIDITY	Weather	6	9	[0, 0, 0]	n/a	catFR1	3	R1375C
949.908	1.6	964553	WORD	n/a	wordpools/wordpool_categorized_EN.txt	FINCH	Birds	7	9	[0, 0, 0]	n/a	catFR1	3	R1375C
951.508	0.95	966165	WORD_OFF	n/a	n/a	FINCH	Birds	7	9	[0, 0, 0]	n/a	catFR1	3	R1375C
952.458	1.6	967116	WORD	n/a	wordpools/wordpool_categorized_EN.txt	CROW	Birds	8	9	[0, 0, 0]	n/a	catFR1	3	R1375C
954.058	0.833	968714	WORD_OFF	n/a	n/a	CROW	Birds	8	9	[0, 0, 0]	n/a	catFR1	3	R1375C
954.891	1.6	969541	WORD	n/a	wordpools/wordpool_categorized_EN.txt	CHEESECAKE	Desserts	9	9	[0, 0, 0]	n/a	catFR1	3	R1375C
956.492	0.983	971139	WORD_OFF	n/a	n/a	CHEESECAKE	Desserts	9	9	[0, 0, 0]	n/a	catFR1	3	R1375C
957.475	1.6	972131	WORD	n/a	wordpools/wordpool_categorized_EN.txt	FUDGE	Desserts	10	9	[0, 0, 0]	n/a	catFR1	3	R1375C
959.075	0.817	973729	WORD_OFF	n/a	n/a	FUDGE	Desserts	10	9	[0, 0, 0]	n/a	catFR1	3	R1375C
959.892	1.6	974542	WORD	n/a	wordpools/wordpool_categorized_EN.txt	THUNDERSTORM	Weather	11	9	[0, 0, 0]	n/a	catFR1	3	R1375C
961.508	0.833	976154	WORD_OFF	n/a	n/a	THUNDERSTORM	Weather	11	9	[0, 0, 0]	n/a	catFR1	3	R1375C
962.341	1.6	976995	WORD	n/a	wordpools/wordpool_categorized_EN.txt	HURRICANE	Weather	12	9	[0, 0, 0]	n/a	catFR1	3	R1375C
963.942	0.0	978592	PROB	3.533	n/a	n/a	n/a	-999	9	[1, 5, 4]	10.0	catFR1	3	R1375C
963.942	0.001	978593	WORD_OFF	n/a	n/a	HURRICANE	Weather	12	9	[0, 0, 0]	n/a	catFR1	3	R1375C
963.943	0.001	978593	ENCODING_END	n/a	n/a	n/a	n/a	-999	9	[0, 0, 0]	n/a	catFR1	3	R1375C
963.944	0.0	978593	DISTRACT_START	n/a	n/a	n/a	n/a	-999	9	[0, 0, 0]	n/a	catFR1	3	R1375C
963.944	3.548	978594	START	n/a	n/a	n/a	n/a	-999	9	[-999, -999, -999]	n/a	catFR1	3	R1375C
967.492	3.816	982142	PROB	3.799	n/a	n/a	n/a	-999	9	[3, 4, 1]	8.0	catFR1	3	R1375C
971.308	5.284	985958	PROB	5.267	n/a	n/a	n/a	-999	9	[6, 7, 6]	19.0	catFR1	3	R1375C
976.592	2.883	991241	PROB	2.866	n/a	n/a	n/a	-999	9	[3, 4, 2]	9.0	catFR1	3	R1375C
979.475	2.234	994124	PROB	2.216	n/a	n/a	n/a	-999	9	[7, 2, 7]	16.0	catFR1	3	R1375C
981.709	3.366	996358	PROB	3.349	n/a	n/a	n/a	-999	9	[5, 1, 3]	9.0	catFR1	3	R1375C
985.075	0.0	999724	STOP	n/a	n/a	n/a	n/a	-999	9	[-999, -999, -999]	n/a	catFR1	3	R1375C
985.075	1.099	999728	DISTRACT_END	n/a	n/a	n/a	n/a	-999	9	[0, 0, 0]	n/a	catFR1	3	R1375C
986.174	1.413	1000830	REC_START	n/a	n/a	n/a	n/a	-999	9	[0, 0, 0]	n/a	catFR1	3	R1375C
987.587	0.992	1002236	REC_WORD	1.413	n/a	CHEESECAKE	Desserts	9	9	[0, 0, 0]	n/a	catFR1	3	R1375C
988.579	1.001	1003228	REC_WORD	2.405	n/a	FUDGE	Desserts	10	9	[0, 0, 0]	n/a	catFR1	3	R1375C
989.58	3.225	1004229	REC_WORD	3.406	n/a	THUNDERSTORM	Weather	11	9	[0, 0, 0]	n/a	catFR1	3	R1375C
992.805	4.845	1007454	REC_WORD	6.631	n/a	HURRICANE	Weather	12	9	[0, 0, 0]	n/a	catFR1	3	R1375C
997.65	5.589	1012298	REC_WORD	11.476	n/a	FINCH	Birds	7	9	[0, 0, 0]	n/a	catFR1	3	R1375C
1003.239	13.197	1017887	REC_WORD	17.065	n/a	COBBLER	Desserts	3	9	[0, 0, 0]	n/a	catFR1	3	R1375C
1016.436	1.539	1031086	REC_END	n/a	n/a	n/a	n/a	-999	9	[0, 0, 0]	n/a	catFR1	3	R1375C
1017.975	10.0	1032629	COUNTDOWN_START	n/a	n/a	n/a	n/a	-999	10	[0, 0, 0]	n/a	catFR1	3	R1375C
1028.342	0.001	1042990	COUNTDOWN_END	n/a	n/a	n/a	n/a	-999	10	[0, 0, 0]	n/a	catFR1	3	R1375C
1028.343	2.031	1042990	ENCODING_START	n/a	n/a	n/a	n/a	-999	10	[0, 0, 0]	n/a	catFR1	3	R1375C
1030.374	1.6	1045015	WORD	n/a	wordpools/wordpool_categorized_EN.txt	SHEEP	Farmanimals	1	10	[0, 0, 0]	n/a	catFR1	3	R1375C
1031.975	0.833	1046627	WORD_OFF	n/a	n/a	SHEEP	Farmanimals	1	10	[0, 0, 0]	n/a	catFR1	3	R1375C
1032.808	1.6	1047454	WORD	n/a	wordpools/wordpool_categorized_EN.txt	COW	Farmanimals	2	10	[0, 0, 0]	n/a	catFR1	3	R1375C
1034.408	0.899	1049052	WORD_OFF	n/a	n/a	COW	Farmanimals	2	10	[0, 0, 0]	n/a	catFR1	3	R1375C
1035.307	1.6	1049948	WORD	n/a	wordpools/wordpool_categorized_EN.txt	TRAIN	Vehicles	3	10	[0, 0, 0]	n/a	catFR1	3	R1375C
1036.908	0.983	1051560	WORD_OFF	n/a	n/a	TRAIN	Vehicles	3	10	[0, 0, 0]	n/a	catFR1	3	R1375C
1037.891	1.6	1052538	WORD	n/a	wordpools/wordpool_categorized_EN.txt	SCOOTER	Vehicles	4	10	[0, 0, 0]	n/a	catFR1	3	R1375C
1039.492	0.933	1054136	WORD_OFF	n/a	n/a	SCOOTER	Vehicles	4	10	[0, 0, 0]	n/a	catFR1	3	R1375C
1040.425	1.6	1055073	WORD	n/a	wordpools/wordpool_categorized_EN.txt	TEA	Beverages	5	10	[0, 0, 0]	n/a	catFR1	3	R1375C
1042.025	1.0	1056671	WORD_OFF	n/a	n/a	TEA	Beverages	5	10	[0, 0, 0]	n/a	catFR1	3	R1375C
1043.025	1.6	1057677	WORD	n/a	wordpools/wordpool_categorized_EN.txt	MILK	Beverages	6	10	[0, 0, 0]	n/a	catFR1	3	R1375C
1044.642	0.967	1059289	WORD_OFF	n/a	n/a	MILK	Beverages	6	10	[0, 0, 0]	n/a	catFR1	3	R1375C
1045.609	1.6	1060254	WORD	n/a	wordpools/wordpool_categorized_EN.txt	MOPED	Vehicles	7	10	[0, 0, 0]	n/a	catFR1	3	R1375C
1047.224	0.867	1061866	WORD_OFF	n/a	n/a	MOPED	Vehicles	7	10	[0, 0, 0]	n/a	catFR1	3	R1375C
1048.091	1.6	1062734	WORD	n/a	wordpools/wordpool_categorized_EN.txt	CAR	Vehicles	8	10	[0, 0, 0]	n/a	catFR1	3	R1375C
1049.691	0.967	1064332	WORD_OFF	n/a	n/a	CAR	Vehicles	8	10	[0, 0, 0]	n/a	catFR1	3	R1375C
1050.658	1.6	1065310	WORD	n/a	wordpools/wordpool_categorized_EN.txt	COLA	Beverages	9	10	[0, 0, 0]	n/a	catFR1	3	R1375C
1052.258	0.884	1066908	WORD_OFF	n/a	n/a	COLA	Beverages	9	10	[0, 0, 0]	n/a	catFR1	3	R1375C
1053.142	1.6	1067790	WORD	n/a	wordpools/wordpool_categorized_EN.txt	WINE	Beverages	10	10	[0, 0, 0]	n/a	catFR1	3	R1375C
1054.742	0.966	1069388	WORD_OFF	n/a	n/a	WINE	Beverages	10	10	[0, 0, 0]	n/a	catFR1	3	R1375C
1055.708	1.6	1070353	WORD	n/a	wordpools/wordpool_categorized_EN.txt	HEN	Farmanimals	11	10	[0, 0, 0]	n/a	catFR1	3	R1375C
1057.308	0.967	1071951	WORD_OFF	n/a	n/a	HEN	Farmanimals	11	10	[0, 0, 0]	n/a	catFR1	3	R1375C
1058.275	1.6	1072915	WORD	n/a	wordpools/wordpool_categorized_EN.txt	PIG	Farmanimals	12	10	[0, 0, 0]	n/a	catFR1	3	R1375C
1059.891	0.002	1074536	PROB	3.467	n/a	n/a	n/a	-999	10	[7, 2, 5]	14.0	catFR1	3	R1375C
1059.893	0.0	1074538	START	n/a	n/a	n/a	n/a	-999	10	[-999, -999, -999]	n/a	catFR1	3	R1375C
1059.891	0.002	1074541	WORD_OFF	n/a	n/a	PIG	Farmanimals	12	10	[0, 0, 0]	n/a	catFR1	3	R1375C
1059.893	0.0	1074541	ENCODING_END	n/a	n/a	n/a	n/a	-999	10	[0, 0, 0]	n/a	catFR1	3	R1375C
1059.893	3.482	1074541	DISTRACT_START	n/a	n/a	n/a	n/a	-999	10	[0, 0, 0]	n/a	catFR1	3	R1375C
1063.375	4.9	1078020	PROB	4.883	n/a	n/a	n/a	-999	10	[6, 8, 5]	19.0	catFR1	3	R1375C
1068.275	2.432	1082920	PROB	2.416	n/a	n/a	n/a	-999	10	[1, 7, 7]	15.0	catFR1	3	R1375C
1070.707	2.051	1085352	PROB	2.033	n/a	n/a	n/a	-999	10	[3, 5, 4]	12.0	catFR1	3	R1375C
1072.758	2.784	1087403	PROB	2.767	n/a	n/a	n/a	-999	10	[2, 4, 1]	7.0	catFR1	3	R1375C
1075.542	4.267	1090186	PROB	4.249	n/a	n/a	n/a	-999	10	[6, 6, 7]	25.0	catFR1	3	R1375C
1079.809	4.098	1094453	PROB	4.082	n/a	n/a	n/a	-999	10	[2, 3, 3]	8.0	catFR1	3	R1375C
1083.907	0.0	1098551	STOP	n/a	n/a	n/a	n/a	-999	10	[-999, -999, -999]	n/a	catFR1	3	R1375C
1083.907	1.017	1098556	DISTRACT_END	n/a	n/a	n/a	n/a	-999	10	[0, 0, 0]	n/a	catFR1	3	R1375C
1084.924	1.543	1099575	REC_START	n/a	n/a	n/a	n/a	-999	10	[0, 0, 0]	n/a	catFR1	3	R1375C
1086.467	0.575	1101111	REC_WORD	1.543	n/a	MOPED	Vehicles	7	10	[0, 0, 0]	n/a	catFR1	3	R1375C
1087.042	12.901	1101686	REC_WORD	2.118	n/a	CAR	Vehicles	8	10	[0, 0, 0]	n/a	catFR1	3	R1375C
1099.943	0.946	1114586	REC_WORD_VV	15.019	n/a	<>	n/a	-999	10	[0, 0, 0]	n/a	catFR1	3	R1375C
1100.889	14.308	1115532	REC_WORD_VV	15.965	n/a	<>	n/a	-999	10	[0, 0, 0]	n/a	catFR1	3	R1375C
1115.197	1.861	1129845	REC_END	n/a	n/a	n/a	n/a	-999	10	[0, 0, 0]	n/a	catFR1	3	R1375C
1117.058	10.0	1131705	COUNTDOWN_START	n/a	n/a	n/a	n/a	-999	11	[0, 0, 0]	n/a	catFR1	3	R1375C
1127.409	0.0	1142052	COUNTDOWN_END	n/a	n/a	n/a	n/a	-999	11	[0, 0, 0]	n/a	catFR1	3	R1375C
1127.409	2.166	1142052	ENCODING_START	n/a	n/a	n/a	n/a	-999	11	[0, 0, 0]	n/a	catFR1	3	R1375C
1129.575	1.6	1144215	WORD	n/a	wordpools/wordpool_categorized_EN.txt	LION	Zoo	1	11	[0, 0, 0]	n/a	catFR1	3	R1375C
1131.175	0.983	1145814	WORD_OFF	n/a	n/a	LION	Zoo	1	11	[0, 0, 0]	n/a	catFR1	3	R1375C
1132.158	1.6	1146806	WORD	n/a	wordpools/wordpool_categorized_EN.txt	ZEBRA	Zoo	2	11	[0, 0, 0]	n/a	catFR1	3	R1375C
1133.758	0.934	1148404	WORD_OFF	n/a	n/a	ZEBRA	Zoo	2	11	[0, 0, 0]	n/a	catFR1	3	R1375C
1134.692	1.6	1149327	WORD	n/a	wordpools/wordpool_categorized_EN.txt	HEAD	Bodyparts	3	11	[0, 0, 0]	n/a	catFR1	3	R1375C
1136.307	0.767	1150953	WORD_OFF	n/a	n/a	HEAD	Bodyparts	3	11	[0, 0, 0]	n/a	catFR1	3	R1375C
1137.074	1.6	1151710	WORD	n/a	wordpools/wordpool_categorized_EN.txt	EAR	Bodyparts	4	11	[0, 0, 0]	n/a	catFR1	3	R1375C
1138.674	0.934	1153322	WORD_OFF	n/a	n/a	EAR	Bodyparts	4	11	[0, 0, 0]	n/a	catFR1	3	R1375C
1139.608	1.6	1154246	WORD	n/a	wordpools/wordpool_categorized_EN.txt	PLANE	Vehicles	5	11	[0, 0, 0]	n/a	catFR1	3	R1375C
1141.224	0.784	1155871	WORD_OFF	n/a	n/a	PLANE	Vehicles	5	11	[0, 0, 0]	n/a	catFR1	3	R1375C
1142.008	1.6	1156643	WORD	n/a	wordpools/wordpool_categorized_EN.txt	BUS	Vehicles	6	11	[0, 0, 0]	n/a	catFR1	3	R1375C
1143.608	0.867	1158255	WORD_OFF	n/a	n/a	BUS	Vehicles	6	11	[0, 0, 0]	n/a	catFR1	3	R1375C
1144.475	1.6	1159123	WORD	n/a	wordpools/wordpool_categorized_EN.txt	CHIMPANZEE	Zoo	7	11	[0, 0, 0]	n/a	catFR1	3	R1375C
1146.091	0.933	1160735	WORD_OFF	n/a	n/a	CHIMPANZEE	Zoo	7	11	[0, 0, 0]	n/a	catFR1	3	R1375C
1147.024	1.6	1161672	WORD	n/a	wordpools/wordpool_categorized_EN.txt	ELEPHANT	Zoo	8	11	[0, 0, 0]	n/a	catFR1	3	R1375C
1148.624	0.801	1163270	WORD_OFF	n/a	n/a	ELEPHANT	Zoo	8	11	[0, 0, 0]	n/a	catFR1	3	R1375C
1149.425	1.6	1164069	WORD	n/a	wordpools/wordpool_categorized_EN.txt	JEEP	Vehicles	9	11	[0, 0, 0]	n/a	catFR1	3	R1375C
1151.025	0.85	1165667	WORD_OFF	n/a	n/a	JEEP	Vehicles	9	11	[0, 0, 0]	n/a	catFR1	3	R1375C
1151.875	1.6	1166522	WORD	n/a	wordpools/wordpool_categorized_EN.txt	VAN	Vehicles	10	11	[0, 0, 0]	n/a	catFR1	3	R1375C
1153.475	0.933	1168120	WORD_OFF	n/a	n/a	VAN	Vehicles	10	11	[0, 0, 0]	n/a	catFR1	3	R1375C
1154.408	1.6	1169043	WORD	n/a	wordpools/wordpool_categorized_EN.txt	FOOT	Bodyparts	11	11	[0, 0, 0]	n/a	catFR1	3	R1375C
1156.025	0.834	1170669	WORD_OFF	n/a	n/a	FOOT	Bodyparts	11	11	[0, 0, 0]	n/a	catFR1	3	R1375C
1156.859	1.6	1171495	WORD	n/a	wordpools/wordpool_categorized_EN.txt	LEG	Bodyparts	12	11	[0, 0, 0]	n/a	catFR1	3	R1375C
1158.458	0.001	1173094	WORD_OFF	n/a	n/a	LEG	Bodyparts	12	11	[0, 0, 0]	n/a	catFR1	3	R1375C
1158.459	0.001	1173099	PROB	5.149	n/a	n/a	n/a	-999	11	[7, 8, 5]	20.0	catFR1	3	R1375C
1158.46	0.0	1173100	START	n/a	n/a	n/a	n/a	-999	11	[-999, -999, -999]	n/a	catFR1	3	R1375C
1158.46	0.0	1173107	ENCODING_END	n/a	n/a	n/a	n/a	-999	11	[0, 0, 0]	n/a	catFR1	3	R1375C
1158.46	5.165	1173107	DISTRACT_START	n/a	n/a	n/a	n/a	-999	11	[0, 0, 0]	n/a	catFR1	3	R1375C
1163.625	2.733	1178265	PROB	2.716	n/a	n/a	n/a	-999	11	[3, 2, 1]	6.0	catFR1	3	R1375C
1166.358	6.069	1180998	PROB	6.049	n/a	n/a	n/a	-999	11	[8, 8, 7]	23.0	catFR1	3	R1375C
1172.427	3.448	1187067	PROB	3.433	n/a	n/a	n/a	-999	11	[3, 4, 2]	9.0	catFR1	3	R1375C
1175.875	3.987	1190514	PROB	3.966	n/a	n/a	n/a	-999	11	[3, 7, 8]	18.0	catFR1	3	R1375C
1179.862	0.0	1194501	STOP	n/a	n/a	n/a	n/a	-999	11	[-999, -999, -999]	n/a	catFR1	3	R1375C
1179.862	1.245	1194504	DISTRACT_END	n/a	n/a	n/a	n/a	-999	11	[0, 0, 0]	n/a	catFR1	3	R1375C
1181.107	1.173	1195744	REC_START	n/a	n/a	n/a	n/a	-999	11	[0, 0, 0]	n/a	catFR1	3	R1375C
1182.28	0.993	1196919	REC_WORD	1.173	n/a	LION	Zoo	1	11	[0, 0, 0]	n/a	catFR1	3	R1375C
1183.273	3.559	1197912	REC_WORD	2.166	n/a	ZEBRA	Zoo	2	11	[0, 0, 0]	n/a	catFR1	3	R1375C
1186.832	1.317	1201471	REC_WORD	5.725	n/a	JEEP	Vehicles	9	11	[0, 0, 0]	n/a	catFR1	3	R1375C
1188.149	7.212	1202788	REC_WORD	7.042	n/a	VAN	Vehicles	10	11	[0, 0, 0]	n/a	catFR1	3	R1375C
1195.361	1.925	1209999	REC_WORD	14.254	n/a	HEAD	Bodyparts	3	11	[0, 0, 0]	n/a	catFR1	3	R1375C
1197.286	10.702	1211924	REC_WORD	16.179	n/a	EAR	Bodyparts	4	11	[0, 0, 0]	n/a	catFR1	3	R1375C
1207.988	3.413	1222626	REC_WORD	26.881	n/a	CHIMPANZEE	Zoo	7	11	[0, 0, 0]	n/a	catFR1	3	R1375C
1211.401	1.473	1226042	REC_END	n/a	n/a	n/a	n/a	-999	11	[0, 0, 0]	n/a	catFR1	3	R1375C
1212.874	10.0	1227516	COUNTDOWN_START	n/a	n/a	n/a	n/a	-999	12	[0, 0, 0]	n/a	catFR1	3	R1375C
1223.225	0.0	1237863	COUNTDOWN_END	n/a	n/a	n/a	n/a	-999	12	[0, 0, 0]	n/a	catFR1	3	R1375C
1223.225	2.016	1237863	ENCODING_START	n/a	n/a	n/a	n/a	-999	12	[0, 0, 0]	n/a	catFR1	3	R1375C
1225.241	1.6	1239874	WORD	n/a	wordpools/wordpool_categorized_EN.txt	ORANGUTAN	Zoo	1	12	[0, 0, 0]	n/a	catFR1	3	R1375C
1226.841	0.984	1241473	WORD_OFF	n/a	n/a	ORANGUTAN	Zoo	1	12	[0, 0, 0]	n/a	catFR1	3	R1375C
1227.825	1.6	1242465	WORD	n/a	wordpools/wordpool_categorized_EN.txt	BEAR	Zoo	2	12	[0, 0, 0]	n/a	catFR1	3	R1375C
1229.425	1.0	1244063	WORD_OFF	n/a	n/a	BEAR	Zoo	2	12	[0, 0, 0]	n/a	catFR1	3	R1375C
1230.425	1.6	1245055	WORD	n/a	wordpools/wordpool_categorized_EN.txt	COFFEE	Beverages	3	12	[0, 0, 0]	n/a	catFR1	3	R1375C
1232.025	0.916	1246667	WORD_OFF	n/a	n/a	COFFEE	Beverages	3	12	[0, 0, 0]	n/a	catFR1	3	R1375C
1232.941	1.6	1247576	WORD	n/a	wordpools/wordpool_categorized_EN.txt	LEMONADE	Beverages	4	12	[0, 0, 0]	n/a	catFR1	3	R1375C
1234.541	0.917	1249174	WORD_OFF	n/a	n/a	LEMONADE	Beverages	4	12	[0, 0, 0]	n/a	catFR1	3	R1375C
1235.458	1.6	1250098	WORD	n/a	wordpools/wordpool_categorized_EN.txt	CORKSCREW	Kitchentools	5	12	[0, 0, 0]	n/a	catFR1	3	R1375C
1237.074	0.801	1251710	WORD_OFF	n/a	n/a	CORKSCREW	Kitchentools	5	12	[0, 0, 0]	n/a	catFR1	3	R1375C
1237.875	1.6	1252509	WORD	n/a	wordpools/wordpool_categorized_EN.txt	GRATER	Kitchentools	6	12	[0, 0, 0]	n/a	catFR1	3	R1375C
1239.492	0.833	1254134	WORD_OFF	n/a	n/a	GRATER	Kitchentools	6	12	[0, 0, 0]	n/a	catFR1	3	R1375C
1240.325	1.6	1254961	WORD	n/a	wordpools/wordpool_categorized_EN.txt	SODA	Beverages	7	12	[0, 0, 0]	n/a	catFR1	3	R1375C
1241.942	0.816	1256573	WORD_OFF	n/a	n/a	SODA	Beverages	7	12	[0, 0, 0]	n/a	catFR1	3	R1375C
1242.758	1.6	1257400	WORD	n/a	wordpools/wordpool_categorized_EN.txt	JUICE	Beverages	8	12	[0, 0, 0]	n/a	catFR1	3	R1375C
1244.358	0.867	1258998	WORD_OFF	n/a	n/a	JUICE	Beverages	8	12	[0, 0, 0]	n/a	catFR1	3	R1375C
1245.225	1.6	1259866	WORD	n/a	wordpools/wordpool_categorized_EN.txt	PEELER	Kitchentools	9	12	[0, 0, 0]	n/a	catFR1	3	R1375C
1246.841	0.984	1261478	WORD_OFF	n/a	n/a	PEELER	Kitchentools	9	12	[0, 0, 0]	n/a	catFR1	3	R1375C
1247.825	1.6	1262456	WORD	n/a	wordpools/wordpool_categorized_EN.txt	TONGS	Kitchentools	10	12	[0, 0, 0]	n/a	catFR1	3	R1375C
1249.425	0.783	1264054	WORD_OFF	n/a	n/a	TONGS	Kitchentools	10	12	[0, 0, 0]	n/a	catFR1	3	R1375C
1250.208	1.6	1264840	WORD	n/a	wordpools/wordpool_categorized_EN.txt	MONKEY	Zoo	11	12	[0, 0, 0]	n/a	catFR1	3	R1375C
1251.808	0.9	1266438	WORD_OFF	n/a	n/a	MONKEY	Zoo	11	12	[0, 0, 0]	n/a	catFR1	3	R1375C
1252.708	1.6	1267347	WORD	n/a	wordpools/wordpool_categorized_EN.txt	GORILLA	Zoo	12	12	[0, 0, 0]	n/a	catFR1	3	R1375C
1254.324	0.002	1268959	WORD_OFF	n/a	n/a	GORILLA	Zoo	12	12	[0, 0, 0]	n/a	catFR1	3	R1375C
1254.326	0.001	1268959	ENCODING_END	n/a	n/a	n/a	n/a	-999	12	[0, 0, 0]	n/a	catFR1	3	R1375C
1254.327	0.0	1268959	DISTRACT_START	n/a	n/a	n/a	n/a	-999	12	[0, 0, 0]	n/a	catFR1	3	R1375C
1254.325	0.002	1268960	PROB	3.233	n/a	n/a	n/a	-999	12	[4, 6, 6]	16.0	catFR1	3	R1375C
1254.327	3.248	1268962	START	n/a	n/a	n/a	n/a	-999	12	[-999, -999, -999]	n/a	catFR1	3	R1375C
1257.575	3.083	1272210	PROB	3.066	n/a	n/a	n/a	-999	12	[7, 6, 1]	14.0	catFR1	3	R1375C
1260.658	3.766	1275293	PROB	3.749	n/a	n/a	n/a	-999	12	[8, 6, 3]	17.0	catFR1	3	R1375C
1264.424	2.618	1279059	PROB	2.6	n/a	n/a	n/a	-999	12	[4, 2, 3]	9.0	catFR1	3	R1375C
1267.042	2.466	1281677	PROB	2.449	n/a	n/a	n/a	-999	12	[2, 3, 6]	11.0	catFR1	3	R1375C
1269.508	2.567	1284143	PROB	2.55	n/a	n/a	n/a	-999	12	[2, 1, 4]	7.0	catFR1	3	R1375C
1272.075	2.417	1286709	PROB	2.399	n/a	n/a	n/a	-999	12	[3, 4, 5]	12.0	catFR1	3	R1375C
1274.492	0.0	1289126	STOP	n/a	n/a	n/a	n/a	-999	12	[-999, -999, -999]	n/a	catFR1	3	R1375C
1274.492	1.332	1289130	DISTRACT_END	n/a	n/a	n/a	n/a	-999	12	[0, 0, 0]	n/a	catFR1	3	R1375C
1275.824	2.548	1290453	REC_START	n/a	n/a	n/a	n/a	-999	12	[0, 0, 0]	n/a	catFR1	3	R1375C
1278.372	1.741	1293006	REC_WORD	2.548	n/a	GORILLA	Zoo	12	12	[0, 0, 0]	n/a	catFR1	3	R1375C
1280.113	4.454	1294747	REC_WORD	4.289	n/a	ORANGUTAN	Zoo	1	12	[0, 0, 0]	n/a	catFR1	3	R1375C
1284.567	15.21	1299201	REC_WORD	8.743	n/a	TONGS	Kitchentools	10	12	[0, 0, 0]	n/a	catFR1	3	R1375C
1299.777	6.323	1314410	REC_WORD	23.953	n/a	BEAR	Zoo	2	12	[0, 0, 0]	n/a	catFR1	3	R1375C
1306.1	0.0	1320736	REC_END	n/a	n/a	n/a	n/a	-999	12	[0, 0, 0]	n/a	catFR1	3	R1375C
