onset	duration	sample	trial_type	response_time	stim_file	item_name	category	serialpos	list	test	answer	experiment	session	subject
0.0	6.479	106235	INSTRUCT_START	n/a	n/a	n/a	n/a	-999	-999	[0, 0, 0]	n/a	catFR1	0	R1666S
6.479	14.004	112713	INSTRUCT_END	n/a	n/a	n/a	n/a	-999	-999	[0, 0, 0]	n/a	catFR1	0	R1666S
20.483	164.759	126712	INSTRUCT_START	n/a	n/a	n/a	n/a	-999	-999	[0, 0, 0]	n/a	catFR1	0	R1666S
185.242	34.449	291475	INSTRUCT_END	n/a	n/a	n/a	n/a	-999	-999	[0, 0, 0]	n/a	catFR1	0	R1666S
219.691	10.358	325922	COUNTDOWN_START	n/a	n/a	n/a	n/a	-999	-999	[0, 0, 0]	n/a	catFR1	0	R1666S
230.049	0.0	336277	COUNTDOWN_END	n/a	n/a	n/a	n/a	-999	-999	[0, 0, 0]	n/a	catFR1	0	R1666S
230.049	2.214	336277	ENCODING_START	n/a	n/a	n/a	n/a	-999	-1	[0, 0, 0]	n/a	catFR1	0	R1666S
232.263	1.595	338494	WORD	n/a	n/a	FREEZER	Appliances	1	-1	[0, 0, 0]	n/a	catFR1	0	R1666S
233.858	0.783	340083	WORD_OFF	n/a	n/a	FREEZER	Appliances	1	-1	[0, 0, 0]	n/a	catFR1	0	R1666S
234.641	1.609	340873	WORD	n/a	n/a	REFRIGERATOR	Appliances	2	-1	[0, 0, 0]	n/a	catFR1	0	R1666S
236.25	0.924	342482	WORD_OFF	n/a	n/a	REFRIGERATOR	Appliances	2	-1	[0, 0, 0]	n/a	catFR1	0	R1666S
237.174	1.609	343403	WORD	n/a	n/a	CHIMPANZEE	Zoo	3	-1	[0, 0, 0]	n/a	catFR1	0	R1666S
238.783	0.924	345013	WORD_OFF	n/a	n/a	CHIMPANZEE	Zoo	3	-1	[0, 0, 0]	n/a	catFR1	0	R1666S
239.707	1.608	345934	WORD	n/a	n/a	BEAR	Zoo	4	-1	[0, 0, 0]	n/a	catFR1	0	R1666S
241.315	0.866	347543	WORD_OFF	n/a	n/a	BEAR	Zoo	4	-1	[0, 0, 0]	n/a	catFR1	0	R1666S
242.181	1.605	348414	WORD	n/a	n/a	GUITAR	Instruments	5	-1	[0, 0, 0]	n/a	catFR1	0	R1666S
243.786	0.832	350013	WORD_OFF	n/a	n/a	GUITAR	Instruments	5	-1	[0, 0, 0]	n/a	catFR1	0	R1666S
244.618	1.596	350843	WORD	n/a	n/a	DRUM	Instruments	6	-1	[0, 0, 0]	n/a	catFR1	0	R1666S
246.214	0.826	352443	WORD_OFF	n/a	n/a	DRUM	Instruments	6	-1	[0, 0, 0]	n/a	catFR1	0	R1666S
247.04	1.601	353263	WORD	n/a	n/a	STOVE	Appliances	7	-1	[0, 0, 0]	n/a	catFR1	0	R1666S
248.641	0.973	354872	WORD_OFF	n/a	n/a	STOVE	Appliances	7	-1	[0, 0, 0]	n/a	catFR1	0	R1666S
249.614	1.601	355844	WORD	n/a	n/a	VACUUM	Appliances	8	-1	[0, 0, 0]	n/a	catFR1	0	R1666S
251.215	0.86	357453	WORD_OFF	n/a	n/a	VACUUM	Appliances	8	-1	[0, 0, 0]	n/a	catFR1	0	R1666S
252.075	1.598	358304	WORD	n/a	n/a	BASS	Instruments	9	-1	[0, 0, 0]	n/a	catFR1	0	R1666S
253.673	0.992	359903	WORD_OFF	n/a	n/a	BASS	Instruments	9	-1	[0, 0, 0]	n/a	catFR1	0	R1666S
254.665	1.6	360895	WORD	n/a	n/a	ORGAN	Instruments	10	-1	[0, 0, 0]	n/a	catFR1	0	R1666S
256.265	0.934	362494	WORD_OFF	n/a	n/a	ORGAN	Instruments	10	-1	[0, 0, 0]	n/a	catFR1	0	R1666S
257.199	1.607	363426	WORD	n/a	n/a	ORANGUTAN	Zoo	11	-1	[0, 0, 0]	n/a	catFR1	0	R1666S
258.806	0.909	365035	WORD_OFF	n/a	n/a	ORANGUTAN	Zoo	11	-1	[0, 0, 0]	n/a	catFR1	0	R1666S
259.715	1.61	365946	WORD	n/a	n/a	MONKEY	Zoo	12	-1	[0, 0, 0]	n/a	catFR1	0	R1666S
261.325	0.004	367556	WORD_OFF	n/a	n/a	MONKEY	Zoo	12	-1	[0, 0, 0]	n/a	catFR1	0	R1666S
261.329	0.0	367556	ENCODING_END	n/a	n/a	n/a	n/a	-999	-1	[0, 0, 0]	n/a	catFR1	0	R1666S
261.329	0.0	367556	DISTRACT_START	n/a	n/a	n/a	n/a	-999	-1	[0, 0, 0]	n/a	catFR1	0	R1666S
261.329	0.001	367560	START	n/a	n/a	n/a	n/a	-999	-1	[-999, -999, -999]	n/a	catFR1	0	R1666S
261.33	43.811	367561	PROB	43.811	n/a	n/a	n/a	-999	-1	[5, 6, 7]	18	catFR1	0	R1666S
305.141	0.0	411365	DISTRACT_END	n/a	n/a	n/a	n/a	-999	-1	[0, 0, 0]	n/a	catFR1	0	R1666S
305.141	2.085	411371	STOP	n/a	n/a	n/a	n/a	-999	-1	[-999, -999, -999]	n/a	catFR1	0	R1666S
307.226	11.891	413451	REC_START	n/a	n/a	n/a	n/a	-999	-1	[0, 0, 0]	n/a	catFR1	0	R1666S
319.117	4.645	425347	REC_WORD_VV	4.645	n/a	<>	n/a	-999	-1	[0, 0, 0]	n/a	catFR1	0	R1666S
323.762	1.0	429992	REC_WORD_VV	1.0	n/a	<>	n/a	-999	-1	[0, 0, 0]	n/a	catFR1	0	R1666S
324.762	1.0	430992	REC_WORD_VV	1.0	n/a	<>	n/a	-999	-1	[0, 0, 0]	n/a	catFR1	0	R1666S
325.762	1.0	431992	REC_WORD_VV	1.0	n/a	<>	n/a	-999	-1	[0, 0, 0]	n/a	catFR1	0	R1666S
326.762	2.347	432992	REC_WORD_VV	2.347	n/a	<>	n/a	-999	-1	[0, 0, 0]	n/a	catFR1	0	R1666S
329.109	3.983	435339	REC_WORD_VV	3.983	n/a	<>	n/a	-999	-1	[0, 0, 0]	n/a	catFR1	0	R1666S
333.092	1.252	439322	REC_WORD_VV	1.252	n/a	<>	n/a	-999	-1	[0, 0, 0]	n/a	catFR1	0	R1666S
334.344	1.107	440574	REC_WORD	1.107	n/a	TRUCK	n/a	-999	-1	[0, 0, 0]	n/a	catFR1	0	R1666S
335.451	1.015	441681	REC_WORD_VV	1.015	n/a	<>	n/a	-999	-1	[0, 0, 0]	n/a	catFR1	0	R1666S
336.466	0.915	442696	REC_WORD	0.915	n/a	ORANGUTAN	Zoo	11	-1	[0, 0, 0]	n/a	catFR1	0	R1666S
337.381	20.969	443605	REC_END	n/a	n/a	n/a	n/a	-999	-1	[0, 0, 0]	n/a	catFR1	0	R1666S
358.35	10.35	464579	COUNTDOWN_START	n/a	n/a	n/a	n/a	-999	1	[0, 0, 0]	n/a	catFR1	0	R1666S
368.7	0.0	474924	COUNTDOWN_END	n/a	n/a	n/a	n/a	-999	1	[0, 0, 0]	n/a	catFR1	0	R1666S
368.7	2.075	474924	ENCODING_START	n/a	n/a	n/a	n/a	-999	1	[0, 0, 0]	n/a	catFR1	0	R1666S
370.775	1.607	476999	WORD	n/a	wordpools/wordpool_categorized_EN.txt	STRAWBERRY	Fruit	1	1	[0, 0, 0]	n/a	catFR1	0	R1666S
372.382	0.977	478609	WORD_OFF	n/a	n/a	STRAWBERRY	Fruit	1	1	[0, 0, 0]	n/a	catFR1	0	R1666S
373.359	1.599	479591	WORD	n/a	wordpools/wordpool_categorized_EN.txt	GRAPE	Fruit	2	1	[0, 0, 0]	n/a	catFR1	0	R1666S
374.958	0.875	481180	WORD_OFF	n/a	n/a	GRAPE	Fruit	2	1	[0, 0, 0]	n/a	catFR1	0	R1666S
375.833	1.609	482061	WORD	n/a	wordpools/wordpool_categorized_EN.txt	BEETLE	Insects	3	1	[0, 0, 0]	n/a	catFR1	0	R1666S
377.442	0.791	483670	WORD_OFF	n/a	n/a	BEETLE	Insects	3	1	[0, 0, 0]	n/a	catFR1	0	R1666S
378.233	1.602	484460	WORD	n/a	wordpools/wordpool_categorized_EN.txt	GNAT	Insects	4	1	[0, 0, 0]	n/a	catFR1	0	R1666S
379.835	0.776	486059	WORD_OFF	n/a	n/a	GNAT	Insects	4	1	[0, 0, 0]	n/a	catFR1	0	R1666S
380.611	1.615	486838	WORD	n/a	wordpools/wordpool_categorized_EN.txt	PLANKTON	OceanAnimals	5	1	[0, 0, 0]	n/a	catFR1	0	R1666S
382.226	0.824	488458	WORD_OFF	n/a	n/a	PLANKTON	OceanAnimals	5	1	[0, 0, 0]	n/a	catFR1	0	R1666S
383.05	1.609	489278	WORD	n/a	wordpools/wordpool_categorized_EN.txt	OYSTER	OceanAnimals	6	1	[0, 0, 0]	n/a	catFR1	0	R1666S
384.659	0.958	490887	WORD_OFF	n/a	n/a	OYSTER	OceanAnimals	6	1	[0, 0, 0]	n/a	catFR1	0	R1666S
385.617	1.6	491849	WORD	n/a	wordpools/wordpool_categorized_EN.txt	MOSQUITO	Insects	7	1	[0, 0, 0]	n/a	catFR1	0	R1666S
387.217	1.001	493448	WORD_OFF	n/a	n/a	MOSQUITO	Insects	7	1	[0, 0, 0]	n/a	catFR1	0	R1666S
388.218	1.6	494450	WORD	n/a	wordpools/wordpool_categorized_EN.txt	ANT	Insects	8	1	[0, 0, 0]	n/a	catFR1	0	R1666S
389.818	0.818	496050	WORD_OFF	n/a	n/a	ANT	Insects	8	1	[0, 0, 0]	n/a	catFR1	0	R1666S
390.636	1.605	496860	WORD	n/a	wordpools/wordpool_categorized_EN.txt	TURTLE	OceanAnimals	9	1	[0, 0, 0]	n/a	catFR1	0	R1666S
392.241	0.893	498469	WORD_OFF	n/a	n/a	TURTLE	OceanAnimals	9	1	[0, 0, 0]	n/a	catFR1	0	R1666S
393.134	1.607	499360	WORD	n/a	wordpools/wordpool_categorized_EN.txt	CRAB	OceanAnimals	10	1	[0, 0, 0]	n/a	catFR1	0	R1666S
394.741	0.803	500969	WORD_OFF	n/a	n/a	CRAB	OceanAnimals	10	1	[0, 0, 0]	n/a	catFR1	0	R1666S
395.544	1.605	501769	WORD	n/a	wordpools/wordpool_categorized_EN.txt	LIME	Fruit	11	1	[0, 0, 0]	n/a	catFR1	0	R1666S
397.149	0.893	503378	WORD_OFF	n/a	n/a	LIME	Fruit	11	1	[0, 0, 0]	n/a	catFR1	0	R1666S
398.042	1.599	504269	WORD	n/a	wordpools/wordpool_categorized_EN.txt	PEACH	Fruit	12	1	[0, 0, 0]	n/a	catFR1	0	R1666S
399.641	0.003	505869	WORD_OFF	n/a	n/a	PEACH	Fruit	12	1	[0, 0, 0]	n/a	catFR1	0	R1666S
399.644	0.0	505869	ENCODING_END	n/a	n/a	n/a	n/a	-999	1	[0, 0, 0]	n/a	catFR1	0	R1666S
399.644	0.0	505869	DISTRACT_START	n/a	n/a	n/a	n/a	-999	1	[0, 0, 0]	n/a	catFR1	0	R1666S
399.642	0.002	505871	PROB	0.002	n/a	n/a	n/a	-999	1	[7, 3, 3]	13	catFR1	0	R1666S
399.644	6.506	505873	START	n/a	n/a	n/a	n/a	-999	1	[-999, -999, -999]	n/a	catFR1	0	R1666S
406.15	4.983	512379	PROB	4.983	n/a	n/a	n/a	-999	1	[5, 5, 3]	13	catFR1	0	R1666S
411.133	6.55	517362	PROB	6.55	n/a	n/a	n/a	-999	1	[3, 3, 5]	11	catFR1	0	R1666S
417.683	5.385	523912	PROB	5.385	n/a	n/a	n/a	-999	1	[8, 1, 7]	16	catFR1	0	R1666S
423.068	0.0	529292	DISTRACT_END	n/a	n/a	n/a	n/a	-999	1	[0, 0, 0]	n/a	catFR1	0	R1666S
423.068	2.109	529297	STOP	n/a	n/a	n/a	n/a	-999	1	[-999, -999, -999]	n/a	catFR1	0	R1666S
425.177	2.291	531408	REC_START	n/a	n/a	n/a	n/a	-999	1	[0, 0, 0]	n/a	catFR1	0	R1666S
427.468	6.441	533697	REC_WORD	6.441	n/a	ORANGUTAN	Zoo	-999	1	[0, 0, 0]	n/a	catFR1	0	R1666S
433.909	3.554	540138	REC_WORD_VV	3.554	n/a	<>	n/a	-999	1	[0, 0, 0]	n/a	catFR1	0	R1666S
437.463	5.381	543692	REC_WORD_VV	5.381	n/a	<>	n/a	-999	1	[0, 0, 0]	n/a	catFR1	0	R1666S
442.844	0.725	549073	REC_WORD_VV	0.725	n/a	<>	n/a	-999	1	[0, 0, 0]	n/a	catFR1	0	R1666S
443.569	6.709	549798	REC_WORD	6.709	n/a	CAR	n/a	-999	1	[0, 0, 0]	n/a	catFR1	0	R1666S
450.278	1.0	556507	REC_WORD_VV	1.0	n/a	<>	n/a	-999	1	[0, 0, 0]	n/a	catFR1	0	R1666S
451.278	1.693	557506	REC_WORD_VV	1.693	n/a	<>	n/a	-999	1	[0, 0, 0]	n/a	catFR1	0	R1666S
452.971	2.358	559199	REC_WORD_VV	2.358	n/a	<>	n/a	-999	1	[0, 0, 0]	n/a	catFR1	0	R1666S
455.329	9.33	561552	REC_END	n/a	n/a	n/a	n/a	-999	1	[0, 0, 0]	n/a	catFR1	0	R1666S
464.659	10.344	570885	COUNTDOWN_START	n/a	n/a	n/a	n/a	-999	2	[0, 0, 0]	n/a	catFR1	0	R1666S
475.003	0.0	581230	COUNTDOWN_END	n/a	n/a	n/a	n/a	-999	2	[0, 0, 0]	n/a	catFR1	0	R1666S
475.003	1.864	581230	ENCODING_START	n/a	n/a	n/a	n/a	-999	2	[0, 0, 0]	n/a	catFR1	0	R1666S
476.867	1.6	583093	WORD	n/a	wordpools/wordpool_categorized_EN.txt	COMPUTER	Electronics	1	2	[0, 0, 0]	n/a	catFR1	0	R1666S
478.467	0.901	584692	WORD_OFF	n/a	n/a	COMPUTER	Electronics	1	2	[0, 0, 0]	n/a	catFR1	0	R1666S
479.368	1.608	585593	WORD	n/a	wordpools/wordpool_categorized_EN.txt	SCANNER	Electronics	2	2	[0, 0, 0]	n/a	catFR1	0	R1666S
480.976	0.785	587202	WORD_OFF	n/a	n/a	SCANNER	Electronics	2	2	[0, 0, 0]	n/a	catFR1	0	R1666S
481.761	1.606	587982	WORD	n/a	wordpools/wordpool_categorized_EN.txt	EAR	BodyParts	3	2	[0, 0, 0]	n/a	catFR1	0	R1666S
483.367	0.785	589591	WORD_OFF	n/a	n/a	EAR	BodyParts	3	2	[0, 0, 0]	n/a	catFR1	0	R1666S
484.152	1.6	590381	WORD	n/a	wordpools/wordpool_categorized_EN.txt	KNEE	BodyParts	4	2	[0, 0, 0]	n/a	catFR1	0	R1666S
485.752	0.876	591980	WORD_OFF	n/a	n/a	KNEE	BodyParts	4	2	[0, 0, 0]	n/a	catFR1	0	R1666S
486.628	1.607	592851	WORD	n/a	wordpools/wordpool_categorized_EN.txt	PENCIL	OfficeSupplies	5	2	[0, 0, 0]	n/a	catFR1	0	R1666S
488.235	0.942	594460	WORD_OFF	n/a	n/a	PENCIL	OfficeSupplies	5	2	[0, 0, 0]	n/a	catFR1	0	R1666S
489.177	1.6	595402	WORD	n/a	wordpools/wordpool_categorized_EN.txt	PEN	OfficeSupplies	6	2	[0, 0, 0]	n/a	catFR1	0	R1666S
490.777	0.799	597001	WORD_OFF	n/a	n/a	PEN	OfficeSupplies	6	2	[0, 0, 0]	n/a	catFR1	0	R1666S
491.576	1.6	597801	WORD	n/a	wordpools/wordpool_categorized_EN.txt	TABLET	Electronics	7	2	[0, 0, 0]	n/a	catFR1	0	R1666S
493.176	0.793	599400	WORD_OFF	n/a	n/a	TABLET	Electronics	7	2	[0, 0, 0]	n/a	catFR1	0	R1666S
493.969	1.607	600200	WORD	n/a	wordpools/wordpool_categorized_EN.txt	TELEVISION	Electronics	8	2	[0, 0, 0]	n/a	catFR1	0	R1666S
495.576	0.783	601799	WORD_OFF	n/a	n/a	TELEVISION	Electronics	8	2	[0, 0, 0]	n/a	catFR1	0	R1666S
496.359	1.6	602588	WORD	n/a	wordpools/wordpool_categorized_EN.txt	FOLDER	OfficeSupplies	9	2	[0, 0, 0]	n/a	catFR1	0	R1666S
497.959	0.852	604188	WORD_OFF	n/a	n/a	FOLDER	OfficeSupplies	9	2	[0, 0, 0]	n/a	catFR1	0	R1666S
498.811	1.609	605038	WORD	n/a	wordpools/wordpool_categorized_EN.txt	TAPE	OfficeSupplies	10	2	[0, 0, 0]	n/a	catFR1	0	R1666S
500.42	0.948	606648	WORD_OFF	n/a	n/a	TAPE	OfficeSupplies	10	2	[0, 0, 0]	n/a	catFR1	0	R1666S
501.368	1.601	607599	WORD	n/a	wordpools/wordpool_categorized_EN.txt	ARM	BodyParts	11	2	[0, 0, 0]	n/a	catFR1	0	R1666S
502.969	0.94	609198	WORD_OFF	n/a	n/a	ARM	BodyParts	11	2	[0, 0, 0]	n/a	catFR1	0	R1666S
503.909	1.601	610130	WORD	n/a	wordpools/wordpool_categorized_EN.txt	ELBOW	BodyParts	12	2	[0, 0, 0]	n/a	catFR1	0	R1666S
505.51	0.003	611739	WORD_OFF	n/a	n/a	ELBOW	BodyParts	12	2	[0, 0, 0]	n/a	catFR1	0	R1666S
505.513	0.001	611739	ENCODING_END	n/a	n/a	n/a	n/a	-999	2	[0, 0, 0]	n/a	catFR1	0	R1666S
505.514	0.0	611739	DISTRACT_START	n/a	n/a	n/a	n/a	-999	2	[0, 0, 0]	n/a	catFR1	0	R1666S
505.511	0.003	611739	PROB	0.003	n/a	n/a	n/a	-999	2	[2, 8, 5]	15	catFR1	0	R1666S
505.514	6.773	611742	START	n/a	n/a	n/a	n/a	-999	2	[-999, -999, -999]	n/a	catFR1	0	R1666S
512.287	3.964	618515	PROB	3.964	n/a	n/a	n/a	-999	2	[7, 1, 1]	9	catFR1	0	R1666S
516.251	6.926	622479	PROB	6.926	n/a	n/a	n/a	-999	2	[7, 8, 4]	19	catFR1	0	R1666S
523.177	8.327	629405	PROB	8.327	n/a	n/a	n/a	-999	2	[7, 6, 5]	18	catFR1	0	R1666S
531.504	0.0	637724	DISTRACT_END	n/a	n/a	n/a	n/a	-999	2	[0, 0, 0]	n/a	catFR1	0	R1666S
531.504	2.189	637731	STOP	n/a	n/a	n/a	n/a	-999	2	[-999, -999, -999]	n/a	catFR1	0	R1666S
533.693	3.849	639920	REC_START	n/a	n/a	n/a	n/a	-999	2	[0, 0, 0]	n/a	catFR1	0	R1666S
537.542	1.4	643769	REC_WORD	1.4	n/a	CAR	n/a	-999	2	[0, 0, 0]	n/a	catFR1	0	R1666S
538.942	7.105	645169	REC_WORD	7.105	n/a	TRUCK	n/a	-999	2	[0, 0, 0]	n/a	catFR1	0	R1666S
546.047	13.276	652274	REC_WORD	13.276	n/a	PEN	OfficeSupplies	6	2	[0, 0, 0]	n/a	catFR1	0	R1666S
559.323	3.203	665550	REC_WORD_VV	3.203	n/a	<>	n/a	-999	2	[0, 0, 0]	n/a	catFR1	0	R1666S
562.526	1.317	668753	REC_WORD_VV	1.317	n/a	<>	n/a	-999	2	[0, 0, 0]	n/a	catFR1	0	R1666S
563.843	4.442	670065	REC_END	n/a	n/a	n/a	n/a	-999	2	[0, 0, 0]	n/a	catFR1	0	R1666S
568.285	10.336	674508	COUNTDOWN_START	n/a	n/a	n/a	n/a	-999	3	[0, 0, 0]	n/a	catFR1	0	R1666S
578.621	0.0	684843	COUNTDOWN_END	n/a	n/a	n/a	n/a	-999	3	[0, 0, 0]	n/a	catFR1	0	R1666S
578.621	2.281	684843	ENCODING_START	n/a	n/a	n/a	n/a	-999	3	[0, 0, 0]	n/a	catFR1	0	R1666S
580.902	1.61	687121	WORD	n/a	wordpools/wordpool_categorized_EN.txt	EVERGREEN	Trees	1	3	[0, 0, 0]	n/a	catFR1	0	R1666S
582.512	0.81	688741	WORD_OFF	n/a	n/a	EVERGREEN	Trees	1	3	[0, 0, 0]	n/a	catFR1	0	R1666S
583.322	1.605	689550	WORD	n/a	wordpools/wordpool_categorized_EN.txt	BIRCH	Trees	2	3	[0, 0, 0]	n/a	catFR1	0	R1666S
584.927	0.958	691150	WORD_OFF	n/a	n/a	BIRCH	Trees	2	3	[0, 0, 0]	n/a	catFR1	0	R1666S
585.885	1.602	692111	WORD	n/a	wordpools/wordpool_categorized_EN.txt	DOOR	Building	3	3	[0, 0, 0]	n/a	catFR1	0	R1666S
587.487	0.925	693711	WORD_OFF	n/a	n/a	DOOR	Building	3	3	[0, 0, 0]	n/a	catFR1	0	R1666S
588.412	1.6	694642	WORD	n/a	wordpools/wordpool_categorized_EN.txt	HALLWAY	Building	4	3	[0, 0, 0]	n/a	catFR1	0	R1666S
590.012	0.89	696241	WORD_OFF	n/a	n/a	HALLWAY	Building	4	3	[0, 0, 0]	n/a	catFR1	0	R1666S
590.902	1.61	697122	WORD	n/a	wordpools/wordpool_categorized_EN.txt	GRATER	KitchenTools	5	3	[0, 0, 0]	n/a	catFR1	0	R1666S
592.512	0.9	698742	WORD_OFF	n/a	n/a	GRATER	KitchenTools	5	3	[0, 0, 0]	n/a	catFR1	0	R1666S
593.412	1.602	699632	WORD	n/a	wordpools/wordpool_categorized_EN.txt	WHISK	KitchenTools	6	3	[0, 0, 0]	n/a	catFR1	0	R1666S
595.014	0.78	701242	WORD_OFF	n/a	n/a	WHISK	KitchenTools	6	3	[0, 0, 0]	n/a	catFR1	0	R1666S
595.794	1.6	702021	WORD	n/a	wordpools/wordpool_categorized_EN.txt	SPRUCE	Trees	7	3	[0, 0, 0]	n/a	catFR1	0	R1666S
597.394	0.818	703621	WORD_OFF	n/a	n/a	SPRUCE	Trees	7	3	[0, 0, 0]	n/a	catFR1	0	R1666S
598.212	1.607	704441	WORD	n/a	wordpools/wordpool_categorized_EN.txt	PINE	Trees	8	3	[0, 0, 0]	n/a	catFR1	0	R1666S
599.819	0.859	706040	WORD_OFF	n/a	n/a	PINE	Trees	8	3	[0, 0, 0]	n/a	catFR1	0	R1666S
600.678	1.601	706900	WORD	n/a	wordpools/wordpool_categorized_EN.txt	STAIRS	Building	9	3	[0, 0, 0]	n/a	catFR1	0	R1666S
602.279	0.973	708500	WORD_OFF	n/a	n/a	STAIRS	Building	9	3	[0, 0, 0]	n/a	catFR1	0	R1666S
603.252	1.601	709471	WORD	n/a	wordpools/wordpool_categorized_EN.txt	ROOM	Building	10	3	[0, 0, 0]	n/a	catFR1	0	R1666S
604.853	0.874	711081	WORD_OFF	n/a	n/a	ROOM	Building	10	3	[0, 0, 0]	n/a	catFR1	0	R1666S
605.727	1.6	711951	WORD	n/a	wordpools/wordpool_categorized_EN.txt	PEELER	KitchenTools	11	3	[0, 0, 0]	n/a	catFR1	0	R1666S
607.327	0.983	713551	WORD_OFF	n/a	n/a	PEELER	KitchenTools	11	3	[0, 0, 0]	n/a	catFR1	0	R1666S
608.31	1.602	714533	WORD	n/a	wordpools/wordpool_categorized_EN.txt	COLANDER	KitchenTools	12	3	[0, 0, 0]	n/a	catFR1	0	R1666S
609.912	0.0	716132	WORD_OFF	n/a	n/a	COLANDER	KitchenTools	12	3	[0, 0, 0]	n/a	catFR1	0	R1666S
609.911	0.005	716137	PROB	0.005	n/a	n/a	n/a	-999	3	[2, 2, 8]	12	catFR1	0	R1666S
609.916	0.0	716142	ENCODING_END	n/a	n/a	n/a	n/a	-999	3	[0, 0, 0]	n/a	catFR1	0	R1666S
609.916	0.0	716142	DISTRACT_START	n/a	n/a	n/a	n/a	-999	3	[0, 0, 0]	n/a	catFR1	0	R1666S
609.916	5.112	716142	START	n/a	n/a	n/a	n/a	-999	3	[-999, -999, -999]	n/a	catFR1	0	R1666S
615.028	3.85	721254	PROB	3.85	n/a	n/a	n/a	-999	3	[7, 3, 1]	11	catFR1	0	R1666S
618.878	4.109	725104	PROB	4.109	n/a	n/a	n/a	-999	3	[5, 1, 6]	12	catFR1	0	R1666S
622.987	3.826	729213	PROB	3.826	n/a	n/a	n/a	-999	3	[3, 7, 2]	12	catFR1	0	R1666S
626.813	3.781	733039	PROB	3.781	n/a	n/a	n/a	-999	3	[8, 2, 2]	12	catFR1	0	R1666S
630.594	0.0	736812	DISTRACT_END	n/a	n/a	n/a	n/a	-999	3	[0, 0, 0]	n/a	catFR1	0	R1666S
630.594	2.159	736820	STOP	n/a	n/a	n/a	n/a	-999	3	[-999, -999, -999]	n/a	catFR1	0	R1666S
632.753	0.924	738978	REC_START	n/a	n/a	n/a	n/a	-999	3	[0, 0, 0]	n/a	catFR1	0	R1666S
633.677	2.35	739903	REC_WORD	2.35	n/a	COLANDER	KitchenTools	12	3	[0, 0, 0]	n/a	catFR1	0	R1666S
636.027	1.21	742253	REC_WORD	1.21	n/a	KITCHEN	n/a	-999	3	[0, 0, 0]	n/a	catFR1	0	R1666S
637.237	12.31	743463	REC_WORD	12.31	n/a	SINK	n/a	-999	3	[0, 0, 0]	n/a	catFR1	0	R1666S
649.547	13.346	755773	REC_WORD_VV	13.346	n/a	<>	n/a	-999	3	[0, 0, 0]	n/a	catFR1	0	R1666S
662.893	3.777	769113	REC_END	n/a	n/a	n/a	n/a	-999	3	[0, 0, 0]	n/a	catFR1	0	R1666S
666.67	10.344	772899	COUNTDOWN_START	n/a	n/a	n/a	n/a	-999	4	[0, 0, 0]	n/a	catFR1	0	R1666S
677.014	0.0	783234	COUNTDOWN_END	n/a	n/a	n/a	n/a	-999	4	[0, 0, 0]	n/a	catFR1	0	R1666S
677.014	2.074	783234	ENCODING_START	n/a	n/a	n/a	n/a	-999	4	[0, 0, 0]	n/a	catFR1	0	R1666S
679.088	1.607	785309	WORD	n/a	wordpools/wordpool_categorized_EN.txt	VIOLET	Flowers	1	4	[0, 0, 0]	n/a	catFR1	0	R1666S
680.695	0.859	786918	WORD_OFF	n/a	n/a	VIOLET	Flowers	1	4	[0, 0, 0]	n/a	catFR1	0	R1666S
681.554	1.601	787779	WORD	n/a	wordpools/wordpool_categorized_EN.txt	SUNFLOWER	Flowers	2	4	[0, 0, 0]	n/a	catFR1	0	R1666S
683.155	0.874	789378	WORD_OFF	n/a	n/a	SUNFLOWER	Flowers	2	4	[0, 0, 0]	n/a	catFR1	0	R1666S
684.029	1.6	790248	WORD	n/a	wordpools/wordpool_categorized_EN.txt	SLINKY	Toys	3	4	[0, 0, 0]	n/a	catFR1	0	R1666S
685.629	0.849	791848	WORD_OFF	n/a	n/a	SLINKY	Toys	3	4	[0, 0, 0]	n/a	catFR1	0	R1666S
686.478	1.602	792698	WORD	n/a	wordpools/wordpool_categorized_EN.txt	DOLL	Toys	4	4	[0, 0, 0]	n/a	catFR1	0	R1666S
688.08	0.824	794308	WORD_OFF	n/a	n/a	DOLL	Toys	4	4	[0, 0, 0]	n/a	catFR1	0	R1666S
688.904	1.601	795127	WORD	n/a	wordpools/wordpool_categorized_EN.txt	COFFEE	Beverages	5	4	[0, 0, 0]	n/a	catFR1	0	R1666S
690.505	0.798	796727	WORD_OFF	n/a	n/a	COFFEE	Beverages	5	4	[0, 0, 0]	n/a	catFR1	0	R1666S
691.303	1.602	797526	WORD	n/a	wordpools/wordpool_categorized_EN.txt	WATER	Beverages	6	4	[0, 0, 0]	n/a	catFR1	0	R1666S
692.905	0.901	799126	WORD_OFF	n/a	n/a	WATER	Beverages	6	4	[0, 0, 0]	n/a	catFR1	0	R1666S
693.806	1.6	800027	WORD	n/a	wordpools/wordpool_categorized_EN.txt	FOOTBALL	Toys	7	4	[0, 0, 0]	n/a	catFR1	0	R1666S
695.406	0.797	801626	WORD_OFF	n/a	n/a	FOOTBALL	Toys	7	4	[0, 0, 0]	n/a	catFR1	0	R1666S
696.203	1.6	802436	WORD	n/a	wordpools/wordpool_categorized_EN.txt	BLOCKS	Toys	8	4	[0, 0, 0]	n/a	catFR1	0	R1666S
697.803	0.918	804025	WORD_OFF	n/a	n/a	BLOCKS	Toys	8	4	[0, 0, 0]	n/a	catFR1	0	R1666S
698.721	1.6	804946	WORD	n/a	wordpools/wordpool_categorized_EN.txt	MARIGOLD	Flowers	9	4	[0, 0, 0]	n/a	catFR1	0	R1666S
700.321	0.94	806546	WORD_OFF	n/a	n/a	MARIGOLD	Flowers	9	4	[0, 0, 0]	n/a	catFR1	0	R1666S
701.261	1.601	807487	WORD	n/a	wordpools/wordpool_categorized_EN.txt	DAFFODIL	Flowers	10	4	[0, 0, 0]	n/a	catFR1	0	R1666S
702.862	1.001	809086	WORD_OFF	n/a	n/a	DAFFODIL	Flowers	10	4	[0, 0, 0]	n/a	catFR1	0	R1666S
703.863	1.6	810088	WORD	n/a	wordpools/wordpool_categorized_EN.txt	JUICE	Beverages	11	4	[0, 0, 0]	n/a	catFR1	0	R1666S
705.463	0.765	811688	WORD_OFF	n/a	n/a	JUICE	Beverages	11	4	[0, 0, 0]	n/a	catFR1	0	R1666S
706.228	1.602	812447	WORD	n/a	wordpools/wordpool_categorized_EN.txt	RUM	Beverages	12	4	[0, 0, 0]	n/a	catFR1	0	R1666S
707.83	0.004	814056	WORD_OFF	n/a	n/a	RUM	Beverages	12	4	[0, 0, 0]	n/a	catFR1	0	R1666S
707.834	0.0	814056	ENCODING_END	n/a	n/a	n/a	n/a	-999	4	[0, 0, 0]	n/a	catFR1	0	R1666S
707.834	0.0	814056	DISTRACT_START	n/a	n/a	n/a	n/a	-999	4	[0, 0, 0]	n/a	catFR1	0	R1666S
707.831	0.003	814056	PROB	0.003	n/a	n/a	n/a	-999	4	[5, 6, 2]	13	catFR1	0	R1666S
707.834	7.88	814059	START	n/a	n/a	n/a	n/a	-999	4	[-999, -999, -999]	n/a	catFR1	0	R1666S
715.714	14.131	821939	PROB	14.131	n/a	n/a	n/a	-999	4	[5, 8, 6]	19	catFR1	0	R1666S
729.845	0.0	836070	STOP	n/a	n/a	n/a	n/a	-999	4	[-999, -999, -999]	n/a	catFR1	0	R1666S
729.845	2.159	836073	DISTRACT_END	n/a	n/a	n/a	n/a	-999	4	[0, 0, 0]	n/a	catFR1	0	R1666S
732.004	2.575	838229	REC_START	n/a	n/a	n/a	n/a	-999	4	[0, 0, 0]	n/a	catFR1	0	R1666S
734.579	3.96	840804	REC_WORD	3.96	n/a	VIOLET	Flowers	1	4	[0, 0, 0]	n/a	catFR1	0	R1666S
738.539	16.422	844764	REC_WORD_VV	16.422	n/a	<>	n/a	-999	4	[0, 0, 0]	n/a	catFR1	0	R1666S
754.961	0.805	861185	REC_WORD_VV	0.805	n/a	<>	n/a	-999	4	[0, 0, 0]	n/a	catFR1	0	R1666S
755.766	1.604	861990	REC_WORD	1.604	n/a	REFRIGERATOR	Appliances	-999	4	[0, 0, 0]	n/a	catFR1	0	R1666S
757.37	4.777	863594	REC_WORD	4.777	n/a	SINK	n/a	-999	4	[0, 0, 0]	n/a	catFR1	0	R1666S
762.147	2.798	868363	REC_END	n/a	n/a	n/a	n/a	-999	4	[0, 0, 0]	n/a	catFR1	0	R1666S
764.945	10.354	871167	COUNTDOWN_START	n/a	n/a	n/a	n/a	-999	5	[0, 0, 0]	n/a	catFR1	0	R1666S
775.299	0.0	881523	COUNTDOWN_END	n/a	n/a	n/a	n/a	-999	5	[0, 0, 0]	n/a	catFR1	0	R1666S
775.299	2.03	881523	ENCODING_START	n/a	n/a	n/a	n/a	-999	5	[0, 0, 0]	n/a	catFR1	0	R1666S
777.329	1.6	883547	WORD	n/a	wordpools/wordpool_categorized_EN.txt	MILK	Beverages	1	5	[0, 0, 0]	n/a	catFR1	0	R1666S
778.929	0.843	885146	WORD_OFF	n/a	n/a	MILK	Beverages	1	5	[0, 0, 0]	n/a	catFR1	0	R1666S
779.772	1.6	885997	WORD	n/a	wordpools/wordpool_categorized_EN.txt	COLA	Beverages	2	5	[0, 0, 0]	n/a	catFR1	0	R1666S
781.372	0.809	887596	WORD_OFF	n/a	n/a	COLA	Beverages	2	5	[0, 0, 0]	n/a	catFR1	0	R1666S
782.181	1.608	888406	WORD	n/a	wordpools/wordpool_categorized_EN.txt	HILLS	Landscapes	3	5	[0, 0, 0]	n/a	catFR1	0	R1666S
783.789	0.959	890015	WORD_OFF	n/a	n/a	HILLS	Landscapes	3	5	[0, 0, 0]	n/a	catFR1	0	R1666S
784.748	1.608	890967	WORD	n/a	wordpools/wordpool_categorized_EN.txt	CREEK	Landscapes	4	5	[0, 0, 0]	n/a	catFR1	0	R1666S
786.356	0.775	892576	WORD_OFF	n/a	n/a	CREEK	Landscapes	4	5	[0, 0, 0]	n/a	catFR1	0	R1666S
787.131	1.6	893356	WORD	n/a	wordpools/wordpool_categorized_EN.txt	PIE	Desserts	5	5	[0, 0, 0]	n/a	catFR1	0	R1666S
788.731	0.992	894955	WORD_OFF	n/a	n/a	PIE	Desserts	5	5	[0, 0, 0]	n/a	catFR1	0	R1666S
789.723	1.6	895947	WORD	n/a	wordpools/wordpool_categorized_EN.txt	CUPCAKE	Desserts	6	5	[0, 0, 0]	n/a	catFR1	0	R1666S
791.323	0.799	897546	WORD_OFF	n/a	n/a	CUPCAKE	Desserts	6	5	[0, 0, 0]	n/a	catFR1	0	R1666S
792.122	1.607	898346	WORD	n/a	wordpools/wordpool_categorized_EN.txt	MOUNTAIN	Landscapes	7	5	[0, 0, 0]	n/a	catFR1	0	R1666S
793.729	0.795	899956	WORD_OFF	n/a	n/a	MOUNTAIN	Landscapes	7	5	[0, 0, 0]	n/a	catFR1	0	R1666S
794.524	1.605	900745	WORD	n/a	wordpools/wordpool_categorized_EN.txt	OCEAN	Landscapes	8	5	[0, 0, 0]	n/a	catFR1	0	R1666S
796.129	0.894	902354	WORD_OFF	n/a	n/a	OCEAN	Landscapes	8	5	[0, 0, 0]	n/a	catFR1	0	R1666S
797.023	1.6	903245	WORD	n/a	wordpools/wordpool_categorized_EN.txt	TEA	Beverages	9	5	[0, 0, 0]	n/a	catFR1	0	R1666S
798.623	0.764	904845	WORD_OFF	n/a	n/a	TEA	Beverages	9	5	[0, 0, 0]	n/a	catFR1	0	R1666S
799.387	1.602	905604	WORD	n/a	wordpools/wordpool_categorized_EN.txt	WINE	Beverages	10	5	[0, 0, 0]	n/a	catFR1	0	R1666S
800.989	0.774	907213	WORD_OFF	n/a	n/a	WINE	Beverages	10	5	[0, 0, 0]	n/a	catFR1	0	R1666S
801.763	1.601	907983	WORD	n/a	wordpools/wordpool_categorized_EN.txt	CAKE	Desserts	11	5	[0, 0, 0]	n/a	catFR1	0	R1666S
803.364	0.76	909582	WORD_OFF	n/a	n/a	CAKE	Desserts	11	5	[0, 0, 0]	n/a	catFR1	0	R1666S
804.124	1.605	910341	WORD	n/a	wordpools/wordpool_categorized_EN.txt	FUDGE	Desserts	12	5	[0, 0, 0]	n/a	catFR1	0	R1666S
805.729	0.002	911951	WORD_OFF	n/a	n/a	FUDGE	Desserts	12	5	[0, 0, 0]	n/a	catFR1	0	R1666S
805.731	0.0	911951	ENCODING_END	n/a	n/a	n/a	n/a	-999	5	[0, 0, 0]	n/a	catFR1	0	R1666S
805.731	0.0	911951	DISTRACT_START	n/a	n/a	n/a	n/a	-999	5	[0, 0, 0]	n/a	catFR1	0	R1666S
805.73	0.001	911954	PROB	0.001	n/a	n/a	n/a	-999	5	[8, 2, 5]	15	catFR1	0	R1666S
805.731	6.651	911955	START	n/a	n/a	n/a	n/a	-999	5	[-999, -999, -999]	n/a	catFR1	0	R1666S
812.382	4.733	918606	PROB	4.733	n/a	n/a	n/a	-999	5	[8, 7, 3]	18	catFR1	0	R1666S
817.115	6.019	923339	PROB	6.019	n/a	n/a	n/a	-999	5	[5, 7, 6]	12	catFR1	0	R1666S
823.134	6.105	929358	PROB	6.105	n/a	n/a	n/a	-999	5	[8, 3, 1]	12	catFR1	0	R1666S
829.239	0.0	935463	STOP	n/a	n/a	n/a	n/a	-999	5	[-999, -999, -999]	n/a	catFR1	0	R1666S
829.239	2.008	935465	DISTRACT_END	n/a	n/a	n/a	n/a	-999	5	[0, 0, 0]	n/a	catFR1	0	R1666S
831.247	1.036	937469	REC_START	n/a	n/a	n/a	n/a	-999	5	[0, 0, 0]	n/a	catFR1	0	R1666S
832.283	0.97	938506	REC_WORD	0.97	n/a	MILK	Beverages	1	5	[0, 0, 0]	n/a	catFR1	0	R1666S
833.253	3.948	939476	REC_WORD	3.948	n/a	SODA	n/a	-999	5	[0, 0, 0]	n/a	catFR1	0	R1666S
837.201	2.585	943424	REC_WORD	2.585	n/a	MOUNTAIN	Landscapes	7	5	[0, 0, 0]	n/a	catFR1	0	R1666S
839.786	4.015	946009	REC_WORD	4.015	n/a	OCEAN	Landscapes	8	5	[0, 0, 0]	n/a	catFR1	0	R1666S
843.801	13.69	950024	REC_WORD_VV	13.69	n/a	<>	n/a	-999	5	[0, 0, 0]	n/a	catFR1	0	R1666S
857.491	1.255	963714	REC_WORD	1.255	n/a	SUNFLOWER	Flowers	-999	5	[0, 0, 0]	n/a	catFR1	0	R1666S
858.746	2.645	964969	REC_WORD_VV	2.645	n/a	<>	n/a	-999	5	[0, 0, 0]	n/a	catFR1	0	R1666S
861.391	2.639	967614	REC_END	n/a	n/a	n/a	n/a	-999	5	[0, 0, 0]	n/a	catFR1	0	R1666S
864.03	10.352	970256	COUNTDOWN_START	n/a	n/a	n/a	n/a	-999	6	[0, 0, 0]	n/a	catFR1	0	R1666S
874.382	0.0	980601	COUNTDOWN_END	n/a	n/a	n/a	n/a	-999	6	[0, 0, 0]	n/a	catFR1	0	R1666S
874.382	2.041	980601	ENCODING_START	n/a	n/a	n/a	n/a	-999	6	[0, 0, 0]	n/a	catFR1	0	R1666S
876.423	1.6	982646	WORD	n/a	wordpools/wordpool_categorized_EN.txt	FOREST	Landscapes	1	6	[0, 0, 0]	n/a	catFR1	0	R1666S
878.023	0.864	984245	WORD_OFF	n/a	n/a	FOREST	Landscapes	1	6	[0, 0, 0]	n/a	catFR1	0	R1666S
878.887	1.602	985105	WORD	n/a	wordpools/wordpool_categorized_EN.txt	LAKE	Landscapes	2	6	[0, 0, 0]	n/a	catFR1	0	R1666S
880.489	0.793	986705	WORD_OFF	n/a	n/a	LAKE	Landscapes	2	6	[0, 0, 0]	n/a	catFR1	0	R1666S
881.282	1.6	987504	WORD	n/a	wordpools/wordpool_categorized_EN.txt	PHONE	Electronics	3	6	[0, 0, 0]	n/a	catFR1	0	R1666S
882.882	0.958	989104	WORD_OFF	n/a	n/a	PHONE	Electronics	3	6	[0, 0, 0]	n/a	catFR1	0	R1666S
883.84	1.607	990065	WORD	n/a	wordpools/wordpool_categorized_EN.txt	HEADPHONES	Electronics	4	6	[0, 0, 0]	n/a	catFR1	0	R1666S
885.447	0.794	991665	WORD_OFF	n/a	n/a	HEADPHONES	Electronics	4	6	[0, 0, 0]	n/a	catFR1	0	R1666S
886.241	1.607	992464	WORD	n/a	wordpools/wordpool_categorized_EN.txt	OCTOPUS	OceanAnimals	5	6	[0, 0, 0]	n/a	catFR1	0	R1666S
887.848	0.976	994064	WORD_OFF	n/a	n/a	OCTOPUS	OceanAnimals	5	6	[0, 0, 0]	n/a	catFR1	0	R1666S
888.824	1.606	995046	WORD	n/a	wordpools/wordpool_categorized_EN.txt	WHALE	OceanAnimals	6	6	[0, 0, 0]	n/a	catFR1	0	R1666S
890.43	0.908	996645	WORD_OFF	n/a	n/a	WHALE	OceanAnimals	6	6	[0, 0, 0]	n/a	catFR1	0	R1666S
891.338	1.602	997556	WORD	n/a	wordpools/wordpool_categorized_EN.txt	STREAM	Landscapes	7	6	[0, 0, 0]	n/a	catFR1	0	R1666S
892.94	0.911	999166	WORD_OFF	n/a	n/a	STREAM	Landscapes	7	6	[0, 0, 0]	n/a	catFR1	0	R1666S
893.851	1.605	1000077	WORD	n/a	wordpools/wordpool_categorized_EN.txt	VALLEY	Landscapes	8	6	[0, 0, 0]	n/a	catFR1	0	R1666S
895.456	0.908	1001676	WORD_OFF	n/a	n/a	VALLEY	Landscapes	8	6	[0, 0, 0]	n/a	catFR1	0	R1666S
896.364	1.601	1002587	WORD	n/a	wordpools/wordpool_categorized_EN.txt	CALCULATOR	Electronics	9	6	[0, 0, 0]	n/a	catFR1	0	R1666S
897.965	0.85	1004186	WORD_OFF	n/a	n/a	CALCULATOR	Electronics	9	6	[0, 0, 0]	n/a	catFR1	0	R1666S
898.815	1.609	1005037	WORD	n/a	wordpools/wordpool_categorized_EN.txt	SPEAKER	Electronics	10	6	[0, 0, 0]	n/a	catFR1	0	R1666S
900.424	0.898	1006646	WORD_OFF	n/a	n/a	SPEAKER	Electronics	10	6	[0, 0, 0]	n/a	catFR1	0	R1666S
901.322	1.6	1007537	WORD	n/a	wordpools/wordpool_categorized_EN.txt	SHRIMP	OceanAnimals	11	6	[0, 0, 0]	n/a	catFR1	0	R1666S
902.922	0.875	1009146	WORD_OFF	n/a	n/a	SHRIMP	OceanAnimals	11	6	[0, 0, 0]	n/a	catFR1	0	R1666S
903.797	1.6	1010017	WORD	n/a	wordpools/wordpool_categorized_EN.txt	FISH	OceanAnimals	12	6	[0, 0, 0]	n/a	catFR1	0	R1666S
905.397	0.003	1011616	WORD_OFF	n/a	n/a	FISH	OceanAnimals	12	6	[0, 0, 0]	n/a	catFR1	0	R1666S
905.4	0.0	1011616	ENCODING_END	n/a	n/a	n/a	n/a	-999	6	[0, 0, 0]	n/a	catFR1	0	R1666S
905.4	0.001	1011623	START	n/a	n/a	n/a	n/a	-999	6	[-999, -999, -999]	n/a	catFR1	0	R1666S
905.401	0.0	1011624	PROB	0.0	n/a	n/a	n/a	-999	6	[4, 2, 1]	7	catFR1	0	R1666S
905.4	8.489	1011626	DISTRACT_START	n/a	n/a	n/a	n/a	-999	6	[0, 0, 0]	n/a	catFR1	0	R1666S
913.889	3.786	1020111	PROB	3.786	n/a	n/a	n/a	-999	6	[6, 6, 6]	18	catFR1	0	R1666S
917.675	5.343	1023897	PROB	5.343	n/a	n/a	n/a	-999	6	[3, 7, 6]	10	catFR1	0	R1666S
923.018	5.079	1029240	PROB	5.079	n/a	n/a	n/a	-999	6	[1, 3, 5]	9	catFR1	0	R1666S
928.097	0.0	1034311	DISTRACT_END	n/a	n/a	n/a	n/a	-999	6	[0, 0, 0]	n/a	catFR1	0	R1666S
928.097	2.342	1034319	STOP	n/a	n/a	n/a	n/a	-999	6	[-999, -999, -999]	n/a	catFR1	0	R1666S
930.439	1.301	1036659	REC_START	n/a	n/a	n/a	n/a	-999	6	[0, 0, 0]	n/a	catFR1	0	R1666S
931.74	1.25	1037962	REC_WORD	1.25	n/a	MOUNTAIN	Landscapes	-999	6	[0, 0, 0]	n/a	catFR1	0	R1666S
932.99	1.985	1039212	REC_WORD	1.985	n/a	SODA	n/a	-999	6	[0, 0, 0]	n/a	catFR1	0	R1666S
934.975	15.216	1041197	REC_WORD	15.216	n/a	MILK	Beverages	-999	6	[0, 0, 0]	n/a	catFR1	0	R1666S
950.191	2.191	1056413	REC_WORD	2.191	n/a	TREE	n/a	-999	6	[0, 0, 0]	n/a	catFR1	0	R1666S
952.382	1.0	1058604	REC_WORD_VV	1.0	n/a	<>	n/a	-999	6	[0, 0, 0]	n/a	catFR1	0	R1666S
953.382	7.2	1059604	REC_WORD	7.2	n/a	RIVER	n/a	-999	6	[0, 0, 0]	n/a	catFR1	0	R1666S
960.582	3.226	1066804	REC_END	n/a	n/a	n/a	n/a	-999	6	[0, 0, 0]	n/a	catFR1	0	R1666S
963.808	10.341	1070033	COUNTDOWN_START	n/a	n/a	n/a	n/a	-999	7	[0, 0, 0]	n/a	catFR1	0	R1666S
974.149	0.0	1080368	COUNTDOWN_END	n/a	n/a	n/a	n/a	-999	7	[0, 0, 0]	n/a	catFR1	0	R1666S
974.149	1.943	1080368	ENCODING_START	n/a	n/a	n/a	n/a	-999	7	[0, 0, 0]	n/a	catFR1	0	R1666S
976.092	1.598	1082311	WORD	n/a	wordpools/wordpool_categorized_EN.txt	COTTON	Fabric	1	7	[0, 0, 0]	n/a	catFR1	0	R1666S
977.69	0.777	1083911	WORD_OFF	n/a	n/a	COTTON	Fabric	1	7	[0, 0, 0]	n/a	catFR1	0	R1666S
978.467	1.608	1084690	WORD	n/a	wordpools/wordpool_categorized_EN.txt	DENIM	Fabric	2	7	[0, 0, 0]	n/a	catFR1	0	R1666S
980.075	0.831	1086300	WORD_OFF	n/a	n/a	DENIM	Fabric	2	7	[0, 0, 0]	n/a	catFR1	0	R1666S
980.906	1.601	1087130	WORD	n/a	wordpools/wordpool_categorized_EN.txt	TONGS	KitchenTools	3	7	[0, 0, 0]	n/a	catFR1	0	R1666S
982.507	0.866	1088729	WORD_OFF	n/a	n/a	TONGS	KitchenTools	3	7	[0, 0, 0]	n/a	catFR1	0	R1666S
983.373	1.601	1089589	WORD	n/a	wordpools/wordpool_categorized_EN.txt	SPATULA	KitchenTools	4	7	[0, 0, 0]	n/a	catFR1	0	R1666S
984.974	1.01	1091189	WORD_OFF	n/a	n/a	SPATULA	KitchenTools	4	7	[0, 0, 0]	n/a	catFR1	0	R1666S
985.984	1.607	1092201	WORD	n/a	wordpools/wordpool_categorized_EN.txt	LADYBUG	Insects	5	7	[0, 0, 0]	n/a	catFR1	0	R1666S
987.591	0.791	1093810	WORD_OFF	n/a	n/a	LADYBUG	Insects	5	7	[0, 0, 0]	n/a	catFR1	0	R1666S
988.382	1.602	1094600	WORD	n/a	wordpools/wordpool_categorized_EN.txt	BEE	Insects	6	7	[0, 0, 0]	n/a	catFR1	0	R1666S
989.984	0.965	1096199	WORD_OFF	n/a	n/a	BEE	Insects	6	7	[0, 0, 0]	n/a	catFR1	0	R1666S
990.949	1.601	1097171	WORD	n/a	wordpools/wordpool_categorized_EN.txt	FLEECE	Fabric	7	7	[0, 0, 0]	n/a	catFR1	0	R1666S
992.55	0.875	1098770	WORD_OFF	n/a	n/a	FLEECE	Fabric	7	7	[0, 0, 0]	n/a	catFR1	0	R1666S
993.425	1.615	1099641	WORD	n/a	wordpools/wordpool_categorized_EN.txt	NYLON	Fabric	8	7	[0, 0, 0]	n/a	catFR1	0	R1666S
995.04	0.901	1101260	WORD_OFF	n/a	n/a	NYLON	Fabric	8	7	[0, 0, 0]	n/a	catFR1	0	R1666S
995.941	1.609	1102161	WORD	n/a	wordpools/wordpool_categorized_EN.txt	ROACH	Insects	9	7	[0, 0, 0]	n/a	catFR1	0	R1666S
997.55	0.832	1103771	WORD_OFF	n/a	n/a	ROACH	Insects	9	7	[0, 0, 0]	n/a	catFR1	0	R1666S
998.382	1.601	1104601	WORD	n/a	wordpools/wordpool_categorized_EN.txt	FLY	Insects	10	7	[0, 0, 0]	n/a	catFR1	0	R1666S
999.983	0.798	1106200	WORD_OFF	n/a	n/a	FLY	Insects	10	7	[0, 0, 0]	n/a	catFR1	0	R1666S
1000.781	1.601	1107000	WORD	n/a	wordpools/wordpool_categorized_EN.txt	SPOON	KitchenTools	11	7	[0, 0, 0]	n/a	catFR1	0	R1666S
1002.382	0.892	1108599	WORD_OFF	n/a	n/a	SPOON	KitchenTools	11	7	[0, 0, 0]	n/a	catFR1	0	R1666S
1003.274	1.6	1109490	WORD	n/a	wordpools/wordpool_categorized_EN.txt	STRAINER	KitchenTools	12	7	[0, 0, 0]	n/a	catFR1	0	R1666S
1004.874	0.003	1111089	WORD_OFF	n/a	n/a	STRAINER	KitchenTools	12	7	[0, 0, 0]	n/a	catFR1	0	R1666S
1004.877	0.0	1111098	START	n/a	n/a	n/a	n/a	-999	7	[-999, -999, -999]	n/a	catFR1	0	R1666S
1004.877	0.0	1111100	ENCODING_END	n/a	n/a	n/a	n/a	-999	7	[0, 0, 0]	n/a	catFR1	0	R1666S
1004.877	0.002	1111100	DISTRACT_START	n/a	n/a	n/a	n/a	-999	7	[0, 0, 0]	n/a	catFR1	0	R1666S
1004.879	15.145	1111100	PROB	15.145	n/a	n/a	n/a	-999	7	[2, 6, 5]	19	catFR1	0	R1666S
1020.024	9.917	1126245	PROB	9.917	n/a	n/a	n/a	-999	7	[6, 7, 6]	19	catFR1	0	R1666S
1029.941	0.0	1136162	STOP	n/a	n/a	n/a	n/a	-999	7	[-999, -999, -999]	n/a	catFR1	0	R1666S
1029.941	2.302	1136163	DISTRACT_END	n/a	n/a	n/a	n/a	-999	7	[0, 0, 0]	n/a	catFR1	0	R1666S
1032.243	0.858	1138460	REC_START	n/a	n/a	n/a	n/a	-999	7	[0, 0, 0]	n/a	catFR1	0	R1666S
1033.101	1.444	1139322	REC_WORD	1.444	n/a	COTTON	Fabric	1	7	[0, 0, 0]	n/a	catFR1	0	R1666S
1034.545	2.543	1140766	REC_WORD	2.543	n/a	SODA	n/a	-999	7	[0, 0, 0]	n/a	catFR1	0	R1666S
1037.088	9.475	1143309	REC_WORD	9.475	n/a	MILK	Beverages	-999	7	[0, 0, 0]	n/a	catFR1	0	R1666S
1046.563	15.828	1152784	REC_WORD_VV	15.828	n/a	<>	n/a	-999	7	[0, 0, 0]	n/a	catFR1	0	R1666S
1062.391	4.317	1168605	REC_END	n/a	n/a	n/a	n/a	-999	7	[0, 0, 0]	n/a	catFR1	0	R1666S
1066.708	10.343	1172927	COUNTDOWN_START	n/a	n/a	n/a	n/a	-999	8	[0, 0, 0]	n/a	catFR1	0	R1666S
1077.051	0.001	1183273	COUNTDOWN_END	n/a	n/a	n/a	n/a	-999	8	[0, 0, 0]	n/a	catFR1	0	R1666S
1077.052	2.065	1183273	ENCODING_START	n/a	n/a	n/a	n/a	-999	8	[0, 0, 0]	n/a	catFR1	0	R1666S
1079.117	1.61	1185338	WORD	n/a	wordpools/wordpool_categorized_EN.txt	BASEBALL	Toys	1	8	[0, 0, 0]	n/a	catFR1	0	R1666S
1080.727	0.949	1186947	WORD_OFF	n/a	n/a	BASEBALL	Toys	1	8	[0, 0, 0]	n/a	catFR1	0	R1666S
1081.676	1.6	1187898	WORD	n/a	wordpools/wordpool_categorized_EN.txt	BARBIE	Toys	2	8	[0, 0, 0]	n/a	catFR1	0	R1666S
1083.276	0.9	1189498	WORD_OFF	n/a	n/a	BARBIE	Toys	2	8	[0, 0, 0]	n/a	catFR1	0	R1666S
1084.176	1.607	1190389	WORD	n/a	wordpools/wordpool_categorized_EN.txt	TURKEY	FarmAnimals	3	8	[0, 0, 0]	n/a	catFR1	0	R1666S
1085.783	0.959	1191998	WORD_OFF	n/a	n/a	TURKEY	FarmAnimals	3	8	[0, 0, 0]	n/a	catFR1	0	R1666S
1086.742	1.608	1192960	WORD	n/a	wordpools/wordpool_categorized_EN.txt	ROOSTER	FarmAnimals	4	8	[0, 0, 0]	n/a	catFR1	0	R1666S
1088.35	0.816	1194569	WORD_OFF	n/a	n/a	ROOSTER	FarmAnimals	4	8	[0, 0, 0]	n/a	catFR1	0	R1666S
1089.166	1.601	1195379	WORD	n/a	wordpools/wordpool_categorized_EN.txt	HAWK	Birds	5	8	[0, 0, 0]	n/a	catFR1	0	R1666S
1090.767	0.817	1196988	WORD_OFF	n/a	n/a	HAWK	Birds	5	8	[0, 0, 0]	n/a	catFR1	0	R1666S
1091.584	1.611	1197798	WORD	n/a	wordpools/wordpool_categorized_EN.txt	DOVE	Birds	6	8	[0, 0, 0]	n/a	catFR1	0	R1666S
1093.195	0.789	1199408	WORD_OFF	n/a	n/a	DOVE	Birds	6	8	[0, 0, 0]	n/a	catFR1	0	R1666S
1093.984	1.608	1200197	WORD	n/a	wordpools/wordpool_categorized_EN.txt	MARBLES	Toys	7	8	[0, 0, 0]	n/a	catFR1	0	R1666S
1095.592	0.85	1201807	WORD_OFF	n/a	n/a	MARBLES	Toys	7	8	[0, 0, 0]	n/a	catFR1	0	R1666S
1096.442	1.607	1202657	WORD	n/a	wordpools/wordpool_categorized_EN.txt	FRISBEE	Toys	8	8	[0, 0, 0]	n/a	catFR1	0	R1666S
1098.049	0.843	1204266	WORD_OFF	n/a	n/a	FRISBEE	Toys	8	8	[0, 0, 0]	n/a	catFR1	0	R1666S
1098.892	1.608	1205107	WORD	n/a	wordpools/wordpool_categorized_EN.txt	CROW	Birds	9	8	[0, 0, 0]	n/a	catFR1	0	R1666S
1100.5	0.759	1206716	WORD_OFF	n/a	n/a	CROW	Birds	9	8	[0, 0, 0]	n/a	catFR1	0	R1666S
1101.259	1.609	1207475	WORD	n/a	wordpools/wordpool_categorized_EN.txt	GOOSE	Birds	10	8	[0, 0, 0]	n/a	catFR1	0	R1666S
1102.868	0.883	1209085	WORD_OFF	n/a	n/a	GOOSE	Birds	10	8	[0, 0, 0]	n/a	catFR1	0	R1666S
1103.751	1.6	1209965	WORD	n/a	wordpools/wordpool_categorized_EN.txt	SHEEP	FarmAnimals	11	8	[0, 0, 0]	n/a	catFR1	0	R1666S
1105.351	0.866	1211575	WORD_OFF	n/a	n/a	SHEEP	FarmAnimals	11	8	[0, 0, 0]	n/a	catFR1	0	R1666S
1106.217	1.609	1212435	WORD	n/a	wordpools/wordpool_categorized_EN.txt	PIG	FarmAnimals	12	8	[0, 0, 0]	n/a	catFR1	0	R1666S
1107.826	0.004	1214045	WORD_OFF	n/a	n/a	PIG	FarmAnimals	12	8	[0, 0, 0]	n/a	catFR1	0	R1666S
1107.83	0.0	1214045	ENCODING_END	n/a	n/a	n/a	n/a	-999	8	[0, 0, 0]	n/a	catFR1	0	R1666S
1107.83	0.0	1214045	DISTRACT_START	n/a	n/a	n/a	n/a	-999	8	[0, 0, 0]	n/a	catFR1	0	R1666S
1107.825	0.005	1214045	PROB	0.005	n/a	n/a	n/a	-999	8	[6, 5, 3]	14	catFR1	0	R1666S
1107.83	7.338	1214050	START	n/a	n/a	n/a	n/a	-999	8	[-999, -999, -999]	n/a	catFR1	0	R1666S
1115.168	3.924	1221388	PROB	3.924	n/a	n/a	n/a	-999	8	[2, 1, 4]	7	catFR1	0	R1666S
1119.092	4.667	1225312	PROB	4.667	n/a	n/a	n/a	-999	8	[1, 7, 8]	16	catFR1	0	R1666S
1123.759	5.416	1229979	PROB	5.416	n/a	n/a	n/a	-999	8	[4, 2, 6]	12	catFR1	0	R1666S
1129.175	0.0	1235393	DISTRACT_END	n/a	n/a	n/a	n/a	-999	8	[0, 0, 0]	n/a	catFR1	0	R1666S
1129.175	2.119	1235395	STOP	n/a	n/a	n/a	n/a	-999	8	[-999, -999, -999]	n/a	catFR1	0	R1666S
1131.294	4.618	1237509	REC_START	n/a	n/a	n/a	n/a	-999	8	[0, 0, 0]	n/a	catFR1	0	R1666S
1135.912	3.5	1242131	REC_WORD	3.5	n/a	COTTON	Fabric	-999	8	[0, 0, 0]	n/a	catFR1	0	R1666S
1139.412	13.033	1245631	REC_WORD	13.033	n/a	MILK	Beverages	-999	8	[0, 0, 0]	n/a	catFR1	0	R1666S
1152.445	9.002	1258664	REC_WORD	9.002	n/a	DONKEY	n/a	-999	8	[0, 0, 0]	n/a	catFR1	0	R1666S
1161.447	2.446	1267663	REC_END	n/a	n/a	n/a	n/a	-999	8	[0, 0, 0]	n/a	catFR1	0	R1666S
1163.893	10.342	1270113	COUNTDOWN_START	n/a	n/a	n/a	n/a	-999	9	[0, 0, 0]	n/a	catFR1	0	R1666S
1174.235	0.0	1280448	COUNTDOWN_END	n/a	n/a	n/a	n/a	-999	9	[0, 0, 0]	n/a	catFR1	0	R1666S
1174.235	2.055	1280448	ENCODING_START	n/a	n/a	n/a	n/a	-999	9	[0, 0, 0]	n/a	catFR1	0	R1666S
1176.29	1.602	1282503	WORD	n/a	wordpools/wordpool_categorized_EN.txt	BEACH	Landscapes	1	9	[0, 0, 0]	n/a	catFR1	0	R1666S
1177.892	0.861	1284112	WORD_OFF	n/a	n/a	BEACH	Landscapes	1	9	[0, 0, 0]	n/a	catFR1	0	R1666S
1178.753	1.607	1284973	WORD	n/a	wordpools/wordpool_categorized_EN.txt	WOODS	Landscapes	2	9	[0, 0, 0]	n/a	catFR1	0	R1666S
1180.36	0.976	1286582	WORD_OFF	n/a	n/a	WOODS	Landscapes	2	9	[0, 0, 0]	n/a	catFR1	0	R1666S
1181.336	1.609	1287554	WORD	n/a	wordpools/wordpool_categorized_EN.txt	COUCH	Furniture	3	9	[0, 0, 0]	n/a	catFR1	0	R1666S
1182.945	0.823	1289163	WORD_OFF	n/a	n/a	COUCH	Furniture	3	9	[0, 0, 0]	n/a	catFR1	0	R1666S
1183.768	1.601	1289983	WORD	n/a	wordpools/wordpool_categorized_EN.txt	SHELF	Furniture	4	9	[0, 0, 0]	n/a	catFR1	0	R1666S
1185.369	0.792	1291583	WORD_OFF	n/a	n/a	SHELF	Furniture	4	9	[0, 0, 0]	n/a	catFR1	0	R1666S
1186.161	1.6	1292382	WORD	n/a	wordpools/wordpool_categorized_EN.txt	TRAIN	Vehicles	5	9	[0, 0, 0]	n/a	catFR1	0	R1666S
1187.761	0.814	1293982	WORD_OFF	n/a	n/a	TRAIN	Vehicles	5	9	[0, 0, 0]	n/a	catFR1	0	R1666S
1188.575	1.61	1294791	WORD	n/a	wordpools/wordpool_categorized_EN.txt	VAN	Vehicles	6	9	[0, 0, 0]	n/a	catFR1	0	R1666S
1190.185	0.834	1296401	WORD_OFF	n/a	n/a	VAN	Vehicles	6	9	[0, 0, 0]	n/a	catFR1	0	R1666S
1191.019	1.6	1297231	WORD	n/a	wordpools/wordpool_categorized_EN.txt	RECLINER	Furniture	7	9	[0, 0, 0]	n/a	catFR1	0	R1666S
1192.619	0.807	1298840	WORD_OFF	n/a	n/a	RECLINER	Furniture	7	9	[0, 0, 0]	n/a	catFR1	0	R1666S
1193.426	1.602	1299640	WORD	n/a	wordpools/wordpool_categorized_EN.txt	BOOKCASE	Furniture	8	9	[0, 0, 0]	n/a	catFR1	0	R1666S
1195.028	0.965	1301239	WORD_OFF	n/a	n/a	BOOKCASE	Furniture	8	9	[0, 0, 0]	n/a	catFR1	0	R1666S
1195.993	1.601	1302211	WORD	n/a	wordpools/wordpool_categorized_EN.txt	RIVER	Landscapes	9	9	[0, 0, 0]	n/a	catFR1	0	R1666S
1197.594	0.808	1303811	WORD_OFF	n/a	n/a	RIVER	Landscapes	9	9	[0, 0, 0]	n/a	catFR1	0	R1666S
1198.402	1.6	1304620	WORD	n/a	wordpools/wordpool_categorized_EN.txt	ISLAND	Landscapes	10	9	[0, 0, 0]	n/a	catFR1	0	R1666S
1200.002	0.817	1306220	WORD_OFF	n/a	n/a	ISLAND	Landscapes	10	9	[0, 0, 0]	n/a	catFR1	0	R1666S
1200.819	1.6	1307030	WORD	n/a	wordpools/wordpool_categorized_EN.txt	BOAT	Vehicles	11	9	[0, 0, 0]	n/a	catFR1	0	R1666S
1202.419	0.918	1308639	WORD_OFF	n/a	n/a	BOAT	Vehicles	11	9	[0, 0, 0]	n/a	catFR1	0	R1666S
1203.337	1.601	1309550	WORD	n/a	wordpools/wordpool_categorized_EN.txt	CAR	Vehicles	12	9	[0, 0, 0]	n/a	catFR1	0	R1666S
1204.938	0.0	1311149	WORD_OFF	n/a	n/a	CAR	Vehicles	12	9	[0, 0, 0]	n/a	catFR1	0	R1666S
1204.936	0.005	1311155	PROB	0.005	n/a	n/a	n/a	-999	9	[6, 4, 4]	14	catFR1	0	R1666S
1204.941	0.0	1311159	ENCODING_END	n/a	n/a	n/a	n/a	-999	9	[0, 0, 0]	n/a	catFR1	0	R1666S
1204.941	0.0	1311159	DISTRACT_START	n/a	n/a	n/a	n/a	-999	9	[0, 0, 0]	n/a	catFR1	0	R1666S
1204.941	9.604	1311160	START	n/a	n/a	n/a	n/a	-999	9	[-999, -999, -999]	n/a	catFR1	0	R1666S
1214.545	5.351	1320763	PROB	5.351	n/a	n/a	n/a	-999	9	[7, 6, 3]	16	catFR1	0	R1666S
1219.896	9.047	1326114	PROB	9.047	n/a	n/a	n/a	-999	9	[4, 7, 5]	16	catFR1	0	R1666S
1228.943	0.0	1335160	DISTRACT_END	n/a	n/a	n/a	n/a	-999	9	[0, 0, 0]	n/a	catFR1	0	R1666S
1228.943	2.219	1335161	STOP	n/a	n/a	n/a	n/a	-999	9	[-999, -999, -999]	n/a	catFR1	0	R1666S
1231.162	1.415	1337377	REC_START	n/a	n/a	n/a	n/a	-999	9	[0, 0, 0]	n/a	catFR1	0	R1666S
1232.577	3.056	1338795	REC_WORD	3.056	n/a	BEACH	Landscapes	1	9	[0, 0, 0]	n/a	catFR1	0	R1666S
1235.633	2.22	1341851	REC_WORD	2.22	n/a	OCEAN	Landscapes	-999	9	[0, 0, 0]	n/a	catFR1	0	R1666S
1237.853	5.675	1344071	REC_WORD	5.675	n/a	MILK	Beverages	-999	9	[0, 0, 0]	n/a	catFR1	0	R1666S
1243.528	16.507	1349746	REC_WORD	16.507	n/a	PIG	FarmAnimals	-999	9	[0, 0, 0]	n/a	catFR1	0	R1666S
1260.035	1.269	1366253	REC_WORD_VV	1.269	n/a	<>	n/a	-999	9	[0, 0, 0]	n/a	catFR1	0	R1666S
1261.304	2.498	1367521	REC_END	n/a	n/a	n/a	n/a	-999	9	[0, 0, 0]	n/a	catFR1	0	R1666S
1263.802	10.342	1370021	COUNTDOWN_START	n/a	n/a	n/a	n/a	-999	10	[0, 0, 0]	n/a	catFR1	0	R1666S
1274.144	0.0	1380356	COUNTDOWN_END	n/a	n/a	n/a	n/a	-999	10	[0, 0, 0]	n/a	catFR1	0	R1666S
1274.144	2.149	1380356	ENCODING_START	n/a	n/a	n/a	n/a	-999	10	[0, 0, 0]	n/a	catFR1	0	R1666S
1276.293	1.601	1382513	WORD	n/a	wordpools/wordpool_categorized_EN.txt	KNIFE	KitchenTools	1	10	[0, 0, 0]	n/a	catFR1	0	R1666S
1277.894	0.951	1384112	WORD_OFF	n/a	n/a	KNIFE	KitchenTools	1	10	[0, 0, 0]	n/a	catFR1	0	R1666S
1278.845	1.599	1385063	WORD	n/a	wordpools/wordpool_categorized_EN.txt	FORK	KitchenTools	2	10	[0, 0, 0]	n/a	catFR1	0	R1666S
1280.444	0.885	1386663	WORD_OFF	n/a	n/a	FORK	KitchenTools	2	10	[0, 0, 0]	n/a	catFR1	0	R1666S
1281.329	1.608	1387543	WORD	n/a	wordpools/wordpool_categorized_EN.txt	DESK	Furniture	3	10	[0, 0, 0]	n/a	catFR1	0	R1666S
1282.937	0.866	1389153	WORD_OFF	n/a	n/a	DESK	Furniture	3	10	[0, 0, 0]	n/a	catFR1	0	R1666S
1283.803	1.6	1390023	WORD	n/a	wordpools/wordpool_categorized_EN.txt	DRESSER	Furniture	4	10	[0, 0, 0]	n/a	catFR1	0	R1666S
1285.403	0.832	1391613	WORD_OFF	n/a	n/a	DRESSER	Furniture	4	10	[0, 0, 0]	n/a	catFR1	0	R1666S
1286.235	1.601	1392453	WORD	n/a	wordpools/wordpool_categorized_EN.txt	SOCKS	Clothing	5	10	[0, 0, 0]	n/a	catFR1	0	R1666S
1287.836	0.959	1394052	WORD_OFF	n/a	n/a	SOCKS	Clothing	5	10	[0, 0, 0]	n/a	catFR1	0	R1666S
1288.795	1.609	1395014	WORD	n/a	wordpools/wordpool_categorized_EN.txt	SKIRT	Clothing	6	10	[0, 0, 0]	n/a	catFR1	0	R1666S
1290.404	0.759	1396623	WORD_OFF	n/a	n/a	SKIRT	Clothing	6	10	[0, 0, 0]	n/a	catFR1	0	R1666S
1291.163	1.608	1397382	WORD	n/a	wordpools/wordpool_categorized_EN.txt	CHAIR	Furniture	7	10	[0, 0, 0]	n/a	catFR1	0	R1666S
1292.771	0.916	1398982	WORD_OFF	n/a	n/a	CHAIR	Furniture	7	10	[0, 0, 0]	n/a	catFR1	0	R1666S
1293.687	1.599	1399903	WORD	n/a	wordpools/wordpool_categorized_EN.txt	SOFA	Furniture	8	10	[0, 0, 0]	n/a	catFR1	0	R1666S
1295.286	0.966	1401502	WORD_OFF	n/a	n/a	SOFA	Furniture	8	10	[0, 0, 0]	n/a	catFR1	0	R1666S
1296.252	1.601	1402464	WORD	n/a	wordpools/wordpool_categorized_EN.txt	SHORTS	Clothing	9	10	[0, 0, 0]	n/a	catFR1	0	R1666S
1297.853	0.925	1404063	WORD_OFF	n/a	n/a	SHORTS	Clothing	9	10	[0, 0, 0]	n/a	catFR1	0	R1666S
1298.778	1.609	1404994	WORD	n/a	wordpools/wordpool_categorized_EN.txt	COAT	Clothing	10	10	[0, 0, 0]	n/a	catFR1	0	R1666S
1300.387	0.766	1406604	WORD_OFF	n/a	n/a	COAT	Clothing	10	10	[0, 0, 0]	n/a	catFR1	0	R1666S
1301.153	1.6	1407363	WORD	n/a	wordpools/wordpool_categorized_EN.txt	LADLE	KitchenTools	11	10	[0, 0, 0]	n/a	catFR1	0	R1666S
1302.753	0.85	1408973	WORD_OFF	n/a	n/a	LADLE	KitchenTools	11	10	[0, 0, 0]	n/a	catFR1	0	R1666S
1303.603	1.609	1409813	WORD	n/a	wordpools/wordpool_categorized_EN.txt	CORKSCREW	KitchenTools	12	10	[0, 0, 0]	n/a	catFR1	0	R1666S
1305.212	0.0	1411429	PROB	0.0	n/a	n/a	n/a	-999	10	[5, 8, 1]	14	catFR1	0	R1666S
1305.212	0.004	1411432	WORD_OFF	n/a	n/a	CORKSCREW	KitchenTools	12	10	[0, 0, 0]	n/a	catFR1	0	R1666S
1305.216	0.0	1411432	ENCODING_END	n/a	n/a	n/a	n/a	-999	10	[0, 0, 0]	n/a	catFR1	0	R1666S
1305.216	0.0	1411432	DISTRACT_START	n/a	n/a	n/a	n/a	-999	10	[0, 0, 0]	n/a	catFR1	0	R1666S
1305.216	8.029	1411433	START	n/a	n/a	n/a	n/a	-999	10	[-999, -999, -999]	n/a	catFR1	0	R1666S
1313.245	6.401	1419462	PROB	6.401	n/a	n/a	n/a	-999	10	[1, 1, 8]	10	catFR1	0	R1666S
1319.646	14.607	1425863	PROB	14.607	n/a	n/a	n/a	-999	10	[6, 5, 8]	19	catFR1	0	R1666S
1334.253	0.0	1440464	DISTRACT_END	n/a	n/a	n/a	n/a	-999	10	[0, 0, 0]	n/a	catFR1	0	R1666S
1334.253	2.267	1440470	STOP	n/a	n/a	n/a	n/a	-999	10	[-999, -999, -999]	n/a	catFR1	0	R1666S
1336.52	2.787	1442731	REC_START	n/a	n/a	n/a	n/a	-999	10	[0, 0, 0]	n/a	catFR1	0	R1666S
1339.307	5.262	1445524	REC_WORD	5.262	n/a	BEACH	Landscapes	-999	10	[0, 0, 0]	n/a	catFR1	0	R1666S
1344.569	1.76	1450786	REC_WORD	1.76	n/a	MILK	Beverages	-999	10	[0, 0, 0]	n/a	catFR1	0	R1666S
1346.329	1.875	1452546	REC_WORD	1.875	n/a	PLATE	n/a	-999	10	[0, 0, 0]	n/a	catFR1	0	R1666S
1348.204	9.226	1454421	REC_WORD	9.226	n/a	KNIFE	KitchenTools	1	10	[0, 0, 0]	n/a	catFR1	0	R1666S
1357.43	2.879	1463647	REC_WORD	2.879	n/a	SHEEP	FarmAnimals	-999	10	[0, 0, 0]	n/a	catFR1	0	R1666S
1360.309	6.354	1466526	REC_WORD_VV	6.354	n/a	<>	n/a	-999	10	[0, 0, 0]	n/a	catFR1	0	R1666S
1366.663	3.341	1472876	REC_END	n/a	n/a	n/a	n/a	-999	10	[0, 0, 0]	n/a	catFR1	0	R1666S
1370.004	10.349	1476216	COUNTDOWN_START	n/a	n/a	n/a	n/a	-999	11	[0, 0, 0]	n/a	catFR1	0	R1666S
1380.353	0.001	1486571	COUNTDOWN_END	n/a	n/a	n/a	n/a	-999	11	[0, 0, 0]	n/a	catFR1	0	R1666S
1380.354	1.901	1486571	ENCODING_START	n/a	n/a	n/a	n/a	-999	11	[0, 0, 0]	n/a	catFR1	0	R1666S
1382.255	1.608	1488474	WORD	n/a	wordpools/wordpool_categorized_EN.txt	MOTH	Insects	1	11	[0, 0, 0]	n/a	catFR1	0	R1666S
1383.863	0.934	1490074	WORD_OFF	n/a	n/a	MOTH	Insects	1	11	[0, 0, 0]	n/a	catFR1	0	R1666S
1384.797	1.6	1491015	WORD	n/a	wordpools/wordpool_categorized_EN.txt	BUTTERFLY	Insects	2	11	[0, 0, 0]	n/a	catFR1	0	R1666S
1386.397	0.99	1492614	WORD_OFF	n/a	n/a	BUTTERFLY	Insects	2	11	[0, 0, 0]	n/a	catFR1	0	R1666S
1387.387	1.599	1493596	WORD	n/a	wordpools/wordpool_categorized_EN.txt	WALNUT	Trees	3	11	[0, 0, 0]	n/a	catFR1	0	R1666S
1388.986	0.969	1495196	WORD_OFF	n/a	n/a	WALNUT	Trees	3	11	[0, 0, 0]	n/a	catFR1	0	R1666S
1389.955	1.601	1496167	WORD	n/a	wordpools/wordpool_categorized_EN.txt	CYPRESS	Trees	4	11	[0, 0, 0]	n/a	catFR1	0	R1666S
1391.556	0.922	1497767	WORD_OFF	n/a	n/a	CYPRESS	Trees	4	11	[0, 0, 0]	n/a	catFR1	0	R1666S
1392.478	1.604	1498688	WORD	n/a	wordpools/wordpool_categorized_EN.txt	LAMB	FarmAnimals	5	11	[0, 0, 0]	n/a	catFR1	0	R1666S
1394.082	0.84	1500297	WORD_OFF	n/a	n/a	LAMB	FarmAnimals	5	11	[0, 0, 0]	n/a	catFR1	0	R1666S
1394.922	1.598	1501137	WORD	n/a	wordpools/wordpool_categorized_EN.txt	GOAT	FarmAnimals	6	11	[0, 0, 0]	n/a	catFR1	0	R1666S
1396.52	1.001	1502737	WORD_OFF	n/a	n/a	GOAT	FarmAnimals	6	11	[0, 0, 0]	n/a	catFR1	0	R1666S
1397.521	1.609	1503739	WORD	n/a	wordpools/wordpool_categorized_EN.txt	HICKORY	Trees	7	11	[0, 0, 0]	n/a	catFR1	0	R1666S
1399.13	0.775	1505348	WORD_OFF	n/a	n/a	HICKORY	Trees	7	11	[0, 0, 0]	n/a	catFR1	0	R1666S
1399.905	1.609	1506118	WORD	n/a	wordpools/wordpool_categorized_EN.txt	OAK	Trees	8	11	[0, 0, 0]	n/a	catFR1	0	R1666S
1401.514	0.802	1507727	WORD_OFF	n/a	n/a	OAK	Trees	8	11	[0, 0, 0]	n/a	catFR1	0	R1666S
1402.316	1.606	1508527	WORD	n/a	wordpools/wordpool_categorized_EN.txt	HORSE	FarmAnimals	9	11	[0, 0, 0]	n/a	catFR1	0	R1666S
1403.922	0.807	1510136	WORD_OFF	n/a	n/a	HORSE	FarmAnimals	9	11	[0, 0, 0]	n/a	catFR1	0	R1666S
1404.729	1.6	1510946	WORD	n/a	wordpools/wordpool_categorized_EN.txt	BULL	FarmAnimals	10	11	[0, 0, 0]	n/a	catFR1	0	R1666S
1406.329	0.974	1512545	WORD_OFF	n/a	n/a	BULL	FarmAnimals	10	11	[0, 0, 0]	n/a	catFR1	0	R1666S
1407.303	1.601	1513517	WORD	n/a	wordpools/wordpool_categorized_EN.txt	CRICKET	Insects	11	11	[0, 0, 0]	n/a	catFR1	0	R1666S
1408.904	0.851	1515117	WORD_OFF	n/a	n/a	CRICKET	Insects	11	11	[0, 0, 0]	n/a	catFR1	0	R1666S
1409.755	1.608	1515967	WORD	n/a	wordpools/wordpool_categorized_EN.txt	SPIDER	Insects	12	11	[0, 0, 0]	n/a	catFR1	0	R1666S
1411.363	0.003	1517576	WORD_OFF	n/a	n/a	SPIDER	Insects	12	11	[0, 0, 0]	n/a	catFR1	0	R1666S
1411.366	0.0	1517576	ENCODING_END	n/a	n/a	n/a	n/a	-999	11	[0, 0, 0]	n/a	catFR1	0	R1666S
1411.366	0.0	1517576	DISTRACT_START	n/a	n/a	n/a	n/a	-999	11	[0, 0, 0]	n/a	catFR1	0	R1666S
1411.363	0.003	1517579	PROB	0.003	n/a	n/a	n/a	-999	11	[8, 3, 2]	13	catFR1	0	R1666S
1411.366	7.305	1517582	START	n/a	n/a	n/a	n/a	-999	11	[-999, -999, -999]	n/a	catFR1	0	R1666S
1418.671	5.001	1524887	PROB	5.001	n/a	n/a	n/a	-999	11	[1, 4, 2]	8	catFR1	0	R1666S
1423.672	3.425	1529888	PROB	3.425	n/a	n/a	n/a	-999	11	[3, 2, 3]	8	catFR1	0	R1666S
1427.097	6.084	1533313	PROB	6.084	n/a	n/a	n/a	-999	11	[6, 3, 8]	17	catFR1	0	R1666S
1433.181	0.0	1539390	DISTRACT_END	n/a	n/a	n/a	n/a	-999	11	[0, 0, 0]	n/a	catFR1	0	R1666S
1433.181	2.033	1539397	STOP	n/a	n/a	n/a	n/a	-999	11	[-999, -999, -999]	n/a	catFR1	0	R1666S
1435.214	0.703	1541425	REC_START	n/a	n/a	n/a	n/a	-999	11	[0, 0, 0]	n/a	catFR1	0	R1666S
1435.917	1.115	1542133	REC_WORD	1.115	n/a	MOTH	Insects	1	11	[0, 0, 0]	n/a	catFR1	0	R1666S
1437.032	7.125	1543248	REC_WORD	7.125	n/a	BUTTERFLY	Insects	2	11	[0, 0, 0]	n/a	catFR1	0	R1666S
1444.157	4.477	1550372	REC_WORD	4.477	n/a	CARPENTER	n/a	-999	11	[0, 0, 0]	n/a	catFR1	0	R1666S
1448.634	3.614	1554849	REC_WORD	3.614	n/a	MILK	Beverages	-999	11	[0, 0, 0]	n/a	catFR1	0	R1666S
1452.248	4.52	1558463	REC_WORD	4.52	n/a	SHEEP	FarmAnimals	-999	11	[0, 0, 0]	n/a	catFR1	0	R1666S
1456.768	8.586	1562983	REC_WORD	8.586	n/a	DOLPHIN	n/a	-999	11	[0, 0, 0]	n/a	catFR1	0	R1666S
1465.354	2.559	1571569	REC_END	n/a	n/a	n/a	n/a	-999	11	[0, 0, 0]	n/a	catFR1	0	R1666S
1467.913	10.333	1574130	COUNTDOWN_START	n/a	n/a	n/a	n/a	-999	12	[0, 0, 0]	n/a	catFR1	0	R1666S
1478.246	0.001	1584455	COUNTDOWN_END	n/a	n/a	n/a	n/a	-999	12	[0, 0, 0]	n/a	catFR1	0	R1666S
1478.247	2.175	1584465	ENCODING_START	n/a	n/a	n/a	n/a	-999	12	[0, 0, 0]	n/a	catFR1	0	R1666S
1480.422	1.608	1586632	WORD	n/a	wordpools/wordpool_categorized_EN.txt	BIKE	Vehicles	1	12	[0, 0, 0]	n/a	catFR1	0	R1666S
1482.03	0.977	1588241	WORD_OFF	n/a	n/a	BIKE	Vehicles	1	12	[0, 0, 0]	n/a	catFR1	0	R1666S
1483.007	1.598	1589223	WORD	n/a	wordpools/wordpool_categorized_EN.txt	TRUCK	Vehicles	2	12	[0, 0, 0]	n/a	catFR1	0	R1666S
1484.605	0.925	1590812	WORD_OFF	n/a	n/a	TRUCK	Vehicles	2	12	[0, 0, 0]	n/a	catFR1	0	R1666S
1485.53	1.6	1591743	WORD	n/a	wordpools/wordpool_categorized_EN.txt	COW	FarmAnimals	3	12	[0, 0, 0]	n/a	catFR1	0	R1666S
1487.13	0.967	1593343	WORD_OFF	n/a	n/a	COW	FarmAnimals	3	12	[0, 0, 0]	n/a	catFR1	0	R1666S
1488.097	1.609	1594304	WORD	n/a	wordpools/wordpool_categorized_EN.txt	CHICKEN	FarmAnimals	4	12	[0, 0, 0]	n/a	catFR1	0	R1666S
1489.706	0.851	1595924	WORD_OFF	n/a	n/a	CHICKEN	FarmAnimals	4	12	[0, 0, 0]	n/a	catFR1	0	R1666S
1490.557	1.608	1596774	WORD	n/a	wordpools/wordpool_categorized_EN.txt	ELM	Trees	5	12	[0, 0, 0]	n/a	catFR1	0	R1666S
1492.165	0.991	1598384	WORD_OFF	n/a	n/a	ELM	Trees	5	12	[0, 0, 0]	n/a	catFR1	0	R1666S
1493.156	1.607	1599366	WORD	n/a	wordpools/wordpool_categorized_EN.txt	MAPLE	Trees	6	12	[0, 0, 0]	n/a	catFR1	0	R1666S
1494.763	0.802	1600975	WORD_OFF	n/a	n/a	MAPLE	Trees	6	12	[0, 0, 0]	n/a	catFR1	0	R1666S
1495.565	1.6	1601775	WORD	n/a	wordpools/wordpool_categorized_EN.txt	CALF	FarmAnimals	7	12	[0, 0, 0]	n/a	catFR1	0	R1666S
1497.165	0.873	1603374	WORD_OFF	n/a	n/a	CALF	FarmAnimals	7	12	[0, 0, 0]	n/a	catFR1	0	R1666S
1498.038	1.602	1604255	WORD	n/a	wordpools/wordpool_categorized_EN.txt	HEN	FarmAnimals	8	12	[0, 0, 0]	n/a	catFR1	0	R1666S
1499.64	0.973	1605854	WORD_OFF	n/a	n/a	HEN	FarmAnimals	8	12	[0, 0, 0]	n/a	catFR1	0	R1666S
1500.613	1.603	1606826	WORD	n/a	wordpools/wordpool_categorized_EN.txt	CEDAR	Trees	9	12	[0, 0, 0]	n/a	catFR1	0	R1666S
1502.216	0.98	1608425	WORD_OFF	n/a	n/a	CEDAR	Trees	9	12	[0, 0, 0]	n/a	catFR1	0	R1666S
1503.196	1.602	1609407	WORD	n/a	wordpools/wordpool_categorized_EN.txt	WILLOW	Trees	10	12	[0, 0, 0]	n/a	catFR1	0	R1666S
1504.798	0.966	1611017	WORD_OFF	n/a	n/a	WILLOW	Trees	10	12	[0, 0, 0]	n/a	catFR1	0	R1666S
1505.764	1.6	1611978	WORD	n/a	wordpools/wordpool_categorized_EN.txt	PLANE	Vehicles	11	12	[0, 0, 0]	n/a	catFR1	0	R1666S
1507.364	0.775	1613578	WORD_OFF	n/a	n/a	PLANE	Vehicles	11	12	[0, 0, 0]	n/a	catFR1	0	R1666S
1508.139	1.599	1614347	WORD	n/a	wordpools/wordpool_categorized_EN.txt	JEEP	Vehicles	12	12	[0, 0, 0]	n/a	catFR1	0	R1666S
1509.738	0.001	1615946	WORD_OFF	n/a	n/a	JEEP	Vehicles	12	12	[0, 0, 0]	n/a	catFR1	0	R1666S
1509.739	0.001	1615954	PROB	0.001	n/a	n/a	n/a	-999	12	[1, 6, 4]	11	catFR1	0	R1666S
1509.74	0.0	1615955	START	n/a	n/a	n/a	n/a	-999	12	[-999, -999, -999]	n/a	catFR1	0	R1666S
1509.74	0.0	1615956	ENCODING_END	n/a	n/a	n/a	n/a	-999	12	[0, 0, 0]	n/a	catFR1	0	R1666S
1509.74	7.608	1615956	DISTRACT_START	n/a	n/a	n/a	n/a	-999	12	[0, 0, 0]	n/a	catFR1	0	R1666S
1517.348	6.869	1623562	PROB	6.869	n/a	n/a	n/a	-999	12	[8, 7, 6]	21	catFR1	0	R1666S
1524.217	4.605	1630431	PROB	4.605	n/a	n/a	n/a	-999	12	[6, 1, 4]	11	catFR1	0	R1666S
1528.822	3.8	1635036	PROB	3.8	n/a	n/a	n/a	-999	12	[4, 3, 1]	8	catFR1	0	R1666S
1532.622	0.0	1638833	DISTRACT_END	n/a	n/a	n/a	n/a	-999	12	[0, 0, 0]	n/a	catFR1	0	R1666S
1532.622	2.262	1638836	STOP	n/a	n/a	n/a	n/a	-999	12	[-999, -999, -999]	n/a	catFR1	0	R1666S
1534.884	1.642	1641100	REC_START	n/a	n/a	n/a	n/a	-999	12	[0, 0, 0]	n/a	catFR1	0	R1666S
1536.526	1.64	1642740	REC_WORD	1.64	n/a	BUTTERFLY	Insects	-999	12	[0, 0, 0]	n/a	catFR1	0	R1666S
1538.166	6.484	1644380	REC_WORD	6.484	n/a	MOTH	Insects	-999	12	[0, 0, 0]	n/a	catFR1	0	R1666S
1544.65	8.952	1650864	REC_WORD	8.952	n/a	MILK	Beverages	-999	12	[0, 0, 0]	n/a	catFR1	0	R1666S
1553.602	4.6	1659816	REC_WORD	4.6	n/a	HORSE	FarmAnimals	-999	12	[0, 0, 0]	n/a	catFR1	0	R1666S
1558.202	6.83	1664416	REC_WORD	6.83	n/a	MOP	n/a	-999	12	[0, 0, 0]	n/a	catFR1	0	R1666S
1565.032	0.0	1671245	REC_END	n/a	n/a	n/a	n/a	-999	12	[0, 0, 0]	n/a	catFR1	0	R1666S
