onset	duration	sample	trial_type	response_time	stim_file	item_name	category	serialpos	list	test	answer	experiment	session	subject
0.0	164.832	108814	INSTRUCT_START	n/a	n/a	n/a	n/a	-999	-999	[0, 0, 0]	n/a	catFR1	1	R1406M
164.832	22.901	273639	INSTRUCT_END	n/a	n/a	n/a	n/a	-999	-999	[0, 0, 0]	n/a	catFR1	1	R1406M
187.733	10.0	296531	COUNTDOWN_START	n/a	n/a	n/a	n/a	-999	-999	[0, 0, 0]	n/a	catFR1	1	R1406M
198.116	0.0	306909	COUNTDOWN_END	n/a	n/a	n/a	n/a	-999	-999	[0, 0, 0]	n/a	catFR1	1	R1406M
198.116	2.133	306909	ENCODING_START	n/a	n/a	n/a	n/a	-999	-1	[0, 0, 0]	n/a	catFR1	1	R1406M
200.249	1.6	309045	WORD	n/a	n/a	BARBIE	Toys	1	-1	[0, 0, 0]	n/a	catFR1	1	R1406M
201.865	0.899	310667	WORD_OFF	n/a	n/a	BARBIE	Toys	1	-1	[0, 0, 0]	n/a	catFR1	1	R1406M
202.764	1.6	311563	WORD	n/a	n/a	PUZZLE	Toys	2	-1	[0, 0, 0]	n/a	catFR1	1	R1406M
204.365	0.883	313166	WORD_OFF	n/a	n/a	PUZZLE	Toys	2	-1	[0, 0, 0]	n/a	catFR1	1	R1406M
205.248	1.6	314043	WORD	n/a	n/a	JACKET	Clothing	3	-1	[0, 0, 0]	n/a	catFR1	1	R1406M
206.865	0.85	315665	WORD_OFF	n/a	n/a	JACKET	Clothing	3	-1	[0, 0, 0]	n/a	catFR1	1	R1406M
207.715	1.6	316504	WORD	n/a	n/a	JEANS	Clothing	4	-1	[0, 0, 0]	n/a	catFR1	1	R1406M
209.331	0.884	318126	WORD_OFF	n/a	n/a	JEANS	Clothing	4	-1	[0, 0, 0]	n/a	catFR1	1	R1406M
210.215	1.6	319003	WORD	n/a	n/a	SHEEP	FarmAnimals	5	-1	[0, 0, 0]	n/a	catFR1	1	R1406M
211.831	0.851	320625	WORD_OFF	n/a	n/a	SHEEP	FarmAnimals	5	-1	[0, 0, 0]	n/a	catFR1	1	R1406M
212.682	1.6	321483	WORD	n/a	n/a	HORSE	FarmAnimals	6	-1	[0, 0, 0]	n/a	catFR1	1	R1406M
214.298	0.85	323086	WORD_OFF	n/a	n/a	HORSE	FarmAnimals	6	-1	[0, 0, 0]	n/a	catFR1	1	R1406M
215.148	1.6	323944	WORD	n/a	n/a	SHOES	Clothing	7	-1	[0, 0, 0]	n/a	catFR1	1	R1406M
216.764	0.917	325566	WORD_OFF	n/a	n/a	SHOES	Clothing	7	-1	[0, 0, 0]	n/a	catFR1	1	R1406M
217.681	1.6	326482	WORD	n/a	n/a	SKIRT	Clothing	8	-1	[0, 0, 0]	n/a	catFR1	1	R1406M
219.282	0.815	328084	WORD_OFF	n/a	n/a	SKIRT	Clothing	8	-1	[0, 0, 0]	n/a	catFR1	1	R1406M
220.097	1.6	328885	WORD	n/a	n/a	TURKEY	FarmAnimals	9	-1	[0, 0, 0]	n/a	catFR1	1	R1406M
221.698	0.8	330488	WORD_OFF	n/a	n/a	TURKEY	FarmAnimals	9	-1	[0, 0, 0]	n/a	catFR1	1	R1406M
222.498	1.6	331289	WORD	n/a	n/a	COW	FarmAnimals	10	-1	[0, 0, 0]	n/a	catFR1	1	R1406M
224.114	0.951	332911	WORD_OFF	n/a	n/a	COW	FarmAnimals	10	-1	[0, 0, 0]	n/a	catFR1	1	R1406M
225.065	1.6	333864	WORD	n/a	n/a	MARBLES	Toys	11	-1	[0, 0, 0]	n/a	catFR1	1	R1406M
226.665	0.932	335467	WORD_OFF	n/a	n/a	MARBLES	Toys	11	-1	[0, 0, 0]	n/a	catFR1	1	R1406M
227.597	1.6	336383	WORD	n/a	n/a	FRISBEE	Toys	12	-1	[0, 0, 0]	n/a	catFR1	1	R1406M
229.198	0.002	337985	WORD_OFF	n/a	n/a	FRISBEE	Toys	12	-1	[0, 0, 0]	n/a	catFR1	1	R1406M
229.2	0.0	337994	START	n/a	n/a	n/a	n/a	-999	-1	[-999, -999, -999]	n/a	catFR1	1	R1406M
229.2	0.0	337994	PROB	7.965	n/a	n/a	n/a	-999	-1	[7, 6, 6]	19.0	catFR1	1	R1406M
229.2	0.0	338004	ENCODING_END	n/a	n/a	n/a	n/a	-999	-1	[0, 0, 0]	n/a	catFR1	1	R1406M
229.2	7.982	338004	DISTRACT_START	n/a	n/a	n/a	n/a	-999	-1	[0, 0, 0]	n/a	catFR1	1	R1406M
237.182	7.216	345975	PROB	7.199	n/a	n/a	n/a	-999	-1	[6, 3, 5]	14.0	catFR1	1	R1406M
244.398	3.601	353191	PROB	3.583	n/a	n/a	n/a	-999	-1	[8, 1, 8]	17.0	catFR1	1	R1406M
247.999	3.699	356792	PROB	3.682	n/a	n/a	n/a	-999	-1	[2, 4, 3]	9.0	catFR1	1	R1406M
251.698	0.0	360490	STOP	n/a	n/a	n/a	n/a	-999	-1	[-999, -999, -999]	n/a	catFR1	1	R1406M
251.698	2.366	360496	DISTRACT_END	n/a	n/a	n/a	n/a	-999	-1	[0, 0, 0]	n/a	catFR1	1	R1406M
254.064	0.341	362850	REC_START	n/a	n/a	n/a	n/a	-999	-1	[0, 0, 0]	n/a	catFR1	1	R1406M
254.405	1.02	363197	REC_WORD	0.341	n/a	BARBIE	Toys	1	-1	[0, 0, 0]	n/a	catFR1	1	R1406M
255.425	1.335	364217	REC_WORD	1.361	n/a	MARBLES	Toys	11	-1	[0, 0, 0]	n/a	catFR1	1	R1406M
256.76	3.913	365552	REC_WORD	2.696	n/a	JEANS	Clothing	4	-1	[0, 0, 0]	n/a	catFR1	1	R1406M
260.673	1.121	369465	REC_WORD_VV	6.609	n/a	<>	n/a	-999	-1	[0, 0, 0]	n/a	catFR1	1	R1406M
261.794	5.177	370586	REC_WORD	7.73	n/a	TURKEY	FarmAnimals	9	-1	[0, 0, 0]	n/a	catFR1	1	R1406M
266.971	17.333	375763	REC_WORD	12.907	n/a	PUZZLE	Toys	2	-1	[0, 0, 0]	n/a	catFR1	1	R1406M
284.304	9.377	393098	REC_END	n/a	n/a	n/a	n/a	-999	-1	[0, 0, 0]	n/a	catFR1	1	R1406M
293.681	10.0	402465	COUNTDOWN_START	n/a	n/a	n/a	n/a	-999	1	[0, 0, 0]	n/a	catFR1	1	R1406M
304.031	0.0	412824	COUNTDOWN_END	n/a	n/a	n/a	n/a	-999	1	[0, 0, 0]	n/a	catFR1	1	R1406M
304.031	2.05	412824	ENCODING_START	n/a	n/a	n/a	n/a	-999	1	[0, 0, 0]	n/a	catFR1	1	R1406M
306.081	1.6	414865	WORD	n/a	wordpools/wordpool_categorized_EN.txt	FOLDER	OfficeSupplies	1	1	[0, 0, 0]	n/a	catFR1	1	R1406M
307.681	0.784	416467	WORD_OFF	n/a	n/a	FOLDER	OfficeSupplies	1	1	[0, 0, 0]	n/a	catFR1	1	R1406M
308.465	1.6	417250	WORD	n/a	wordpools/wordpool_categorized_EN.txt	PAPER	OfficeSupplies	2	1	[0, 0, 0]	n/a	catFR1	1	R1406M
310.065	0.966	418852	WORD_OFF	n/a	n/a	PAPER	OfficeSupplies	2	1	[0, 0, 0]	n/a	catFR1	1	R1406M
311.031	1.6	419825	WORD	n/a	wordpools/wordpool_categorized_EN.txt	ZEBRA	Zoo	3	1	[0, 0, 0]	n/a	catFR1	1	R1406M
312.631	0.784	421427	WORD_OFF	n/a	n/a	ZEBRA	Zoo	3	1	[0, 0, 0]	n/a	catFR1	1	R1406M
313.415	1.6	422209	WORD	n/a	wordpools/wordpool_categorized_EN.txt	LION	Zoo	4	1	[0, 0, 0]	n/a	catFR1	1	R1406M
315.015	0.817	423812	WORD_OFF	n/a	n/a	LION	Zoo	4	1	[0, 0, 0]	n/a	catFR1	1	R1406M
315.832	1.6	424613	WORD	n/a	wordpools/wordpool_categorized_EN.txt	CRICKET	Insects	5	1	[0, 0, 0]	n/a	catFR1	1	R1406M
317.432	0.816	426216	WORD_OFF	n/a	n/a	CRICKET	Insects	5	1	[0, 0, 0]	n/a	catFR1	1	R1406M
318.248	1.6	427036	WORD	n/a	wordpools/wordpool_categorized_EN.txt	MOTH	Insects	6	1	[0, 0, 0]	n/a	catFR1	1	R1406M
319.848	0.799	428638	WORD_OFF	n/a	n/a	MOTH	Insects	6	1	[0, 0, 0]	n/a	catFR1	1	R1406M
320.647	1.6	429440	WORD	n/a	wordpools/wordpool_categorized_EN.txt	RULER	OfficeSupplies	7	1	[0, 0, 0]	n/a	catFR1	1	R1406M
322.248	0.833	431042	WORD_OFF	n/a	n/a	RULER	OfficeSupplies	7	1	[0, 0, 0]	n/a	catFR1	1	R1406M
323.081	1.6	431862	WORD	n/a	wordpools/wordpool_categorized_EN.txt	TAPE	OfficeSupplies	8	1	[0, 0, 0]	n/a	catFR1	1	R1406M
324.698	0.983	433484	WORD_OFF	n/a	n/a	TAPE	OfficeSupplies	8	1	[0, 0, 0]	n/a	catFR1	1	R1406M
325.681	1.6	434476	WORD	n/a	wordpools/wordpool_categorized_EN.txt	SPIDER	Insects	9	1	[0, 0, 0]	n/a	catFR1	1	R1406M
327.298	0.949	436097	WORD_OFF	n/a	n/a	SPIDER	Insects	9	1	[0, 0, 0]	n/a	catFR1	1	R1406M
328.247	1.6	437032	WORD	n/a	wordpools/wordpool_categorized_EN.txt	BEE	Insects	10	1	[0, 0, 0]	n/a	catFR1	1	R1406M
329.848	0.767	438635	WORD_OFF	n/a	n/a	BEE	Insects	10	1	[0, 0, 0]	n/a	catFR1	1	R1406M
330.615	1.6	439398	WORD	n/a	wordpools/wordpool_categorized_EN.txt	TIGER	Zoo	11	1	[0, 0, 0]	n/a	catFR1	1	R1406M
332.231	0.833	441019	WORD_OFF	n/a	n/a	TIGER	Zoo	11	1	[0, 0, 0]	n/a	catFR1	1	R1406M
333.064	1.6	441859	WORD	n/a	wordpools/wordpool_categorized_EN.txt	BEAR	Zoo	12	1	[0, 0, 0]	n/a	catFR1	1	R1406M
334.665	0.001	443453	PROB	7.466	n/a	n/a	n/a	-999	1	[3, 8, 8]	18.0	catFR1	1	R1406M
334.666	0.0	443454	START	n/a	n/a	n/a	n/a	-999	1	[-999, -999, -999]	n/a	catFR1	1	R1406M
334.665	0.001	443461	WORD_OFF	n/a	n/a	BEAR	Zoo	12	1	[0, 0, 0]	n/a	catFR1	1	R1406M
334.666	0.0	443461	ENCODING_END	n/a	n/a	n/a	n/a	-999	1	[0, 0, 0]	n/a	catFR1	1	R1406M
334.666	7.482	443461	DISTRACT_START	n/a	n/a	n/a	n/a	-999	1	[0, 0, 0]	n/a	catFR1	1	R1406M
342.148	5.567	450936	PROB	5.549	n/a	n/a	n/a	-999	1	[4, 8, 2]	14.0	catFR1	1	R1406M
347.715	3.716	456502	PROB	3.699	n/a	n/a	n/a	-999	1	[3, 3, 2]	8.0	catFR1	1	R1406M
351.431	5.684	460218	PROB	5.667	n/a	n/a	n/a	-999	1	[4, 8, 1]	13.0	catFR1	1	R1406M
357.115	0.0	465896	DISTRACT_END	n/a	n/a	n/a	n/a	-999	1	[0, 0, 0]	n/a	catFR1	1	R1406M
357.115	2.35	465902	STOP	n/a	n/a	n/a	n/a	-999	1	[-999, -999, -999]	n/a	catFR1	1	R1406M
359.465	1.134	468250	REC_START	n/a	n/a	n/a	n/a	-999	1	[0, 0, 0]	n/a	catFR1	1	R1406M
360.599	0.996	469386	REC_WORD_VV	1.134	n/a	<>	n/a	-999	1	[0, 0, 0]	n/a	catFR1	1	R1406M
361.595	1.0	470382	REC_WORD_VV	2.13	n/a	<>	n/a	-999	1	[0, 0, 0]	n/a	catFR1	1	R1406M
362.595	2.753	471382	REC_WORD_VV	3.13	n/a	<>	n/a	-999	1	[0, 0, 0]	n/a	catFR1	1	R1406M
365.348	8.481	474134	REC_WORD_VV	5.883	n/a	<>	n/a	-999	1	[0, 0, 0]	n/a	catFR1	1	R1406M
373.829	13.929	482615	REC_WORD	14.364	n/a	CRICKET	Insects	5	1	[0, 0, 0]	n/a	catFR1	1	R1406M
387.758	1.97	496543	REC_WORD	28.293	n/a	CARD	n/a	-999	1	[0, 0, 0]	n/a	catFR1	1	R1406M
389.728	7.487	498517	REC_END	n/a	n/a	n/a	n/a	-999	1	[0, 0, 0]	n/a	catFR1	1	R1406M
397.215	10.0	505995	COUNTDOWN_START	n/a	n/a	n/a	n/a	-999	2	[0, 0, 0]	n/a	catFR1	1	R1406M
407.565	0.0	516354	COUNTDOWN_END	n/a	n/a	n/a	n/a	-999	2	[0, 0, 0]	n/a	catFR1	1	R1406M
407.565	2.0	516354	ENCODING_START	n/a	n/a	n/a	n/a	-999	2	[0, 0, 0]	n/a	catFR1	1	R1406M
409.565	1.6	518357	WORD	n/a	wordpools/wordpool_categorized_EN.txt	FUDGE	Desserts	1	2	[0, 0, 0]	n/a	catFR1	1	R1406M
411.165	0.983	519960	WORD_OFF	n/a	n/a	FUDGE	Desserts	1	2	[0, 0, 0]	n/a	catFR1	1	R1406M
412.148	1.6	520932	WORD	n/a	wordpools/wordpool_categorized_EN.txt	BROWNIES	Desserts	2	2	[0, 0, 0]	n/a	catFR1	1	R1406M
413.765	0.833	522554	WORD_OFF	n/a	n/a	BROWNIES	Desserts	2	2	[0, 0, 0]	n/a	catFR1	1	R1406M
414.598	1.6	523374	WORD	n/a	wordpools/wordpool_categorized_EN.txt	MOUNTAIN	Landscapes	3	2	[0, 0, 0]	n/a	catFR1	1	R1406M
416.214	0.934	524996	WORD_OFF	n/a	n/a	MOUNTAIN	Landscapes	3	2	[0, 0, 0]	n/a	catFR1	1	R1406M
417.148	1.6	525931	WORD	n/a	wordpools/wordpool_categorized_EN.txt	LAKE	Landscapes	4	2	[0, 0, 0]	n/a	catFR1	1	R1406M
418.764	0.952	527552	WORD_OFF	n/a	n/a	LAKE	Landscapes	4	2	[0, 0, 0]	n/a	catFR1	1	R1406M
419.716	1.6	528506	WORD	n/a	wordpools/wordpool_categorized_EN.txt	HEADPHONES	Electronics	5	2	[0, 0, 0]	n/a	catFR1	1	R1406M
421.314	0.983	530108	WORD_OFF	n/a	n/a	HEADPHONES	Electronics	5	2	[0, 0, 0]	n/a	catFR1	1	R1406M
422.297	1.6	531081	WORD	n/a	wordpools/wordpool_categorized_EN.txt	CALCULATOR	Electronics	6	2	[0, 0, 0]	n/a	catFR1	1	R1406M
423.898	0.833	532684	WORD_OFF	n/a	n/a	CALCULATOR	Electronics	6	2	[0, 0, 0]	n/a	catFR1	1	R1406M
424.731	1.6	533523	WORD	n/a	wordpools/wordpool_categorized_EN.txt	VALLEY	Landscapes	7	2	[0, 0, 0]	n/a	catFR1	1	R1406M
426.331	0.766	535107	WORD_OFF	n/a	n/a	VALLEY	Landscapes	7	2	[0, 0, 0]	n/a	catFR1	1	R1406M
427.097	1.6	535889	WORD	n/a	wordpools/wordpool_categorized_EN.txt	WOODS	Landscapes	8	2	[0, 0, 0]	n/a	catFR1	1	R1406M
428.697	0.884	537491	WORD_OFF	n/a	n/a	WOODS	Landscapes	8	2	[0, 0, 0]	n/a	catFR1	1	R1406M
429.581	1.6	538369	WORD	n/a	wordpools/wordpool_categorized_EN.txt	TABLET	Electronics	9	2	[0, 0, 0]	n/a	catFR1	1	R1406M
431.181	0.816	539971	WORD_OFF	n/a	n/a	TABLET	Electronics	9	2	[0, 0, 0]	n/a	catFR1	1	R1406M
431.997	1.6	540772	WORD	n/a	wordpools/wordpool_categorized_EN.txt	PHONE	Electronics	10	2	[0, 0, 0]	n/a	catFR1	1	R1406M
433.597	0.967	542375	WORD_OFF	n/a	n/a	PHONE	Electronics	10	2	[0, 0, 0]	n/a	catFR1	1	R1406M
434.564	1.6	543348	WORD	n/a	wordpools/wordpool_categorized_EN.txt	PIE	Desserts	11	2	[0, 0, 0]	n/a	catFR1	1	R1406M
436.164	0.866	544950	WORD_OFF	n/a	n/a	PIE	Desserts	11	2	[0, 0, 0]	n/a	catFR1	1	R1406M
437.03	1.6	545809	WORD	n/a	wordpools/wordpool_categorized_EN.txt	CHEESECAKE	Desserts	12	2	[0, 0, 0]	n/a	catFR1	1	R1406M
438.631	0.002	547411	WORD_OFF	n/a	n/a	CHEESECAKE	Desserts	12	2	[0, 0, 0]	n/a	catFR1	1	R1406M
438.633	0.0	547411	ENCODING_END	n/a	n/a	n/a	n/a	-999	2	[0, 0, 0]	n/a	catFR1	1	R1406M
438.633	0.0	547411	DISTRACT_START	n/a	n/a	n/a	n/a	-999	2	[0, 0, 0]	n/a	catFR1	1	R1406M
438.632	0.001	547414	PROB	7.533	n/a	n/a	n/a	-999	2	[6, 5, 8]	20.0	catFR1	1	R1406M
438.633	7.55	547415	START	n/a	n/a	n/a	n/a	-999	2	[-999, -999, -999]	n/a	catFR1	1	R1406M
446.183	3.732	554965	PROB	3.715	n/a	n/a	n/a	-999	2	[8, 2, 5]	15.0	catFR1	1	R1406M
449.915	4.2	558697	PROB	4.183	n/a	n/a	n/a	-999	2	[8, 1, 3]	12.0	catFR1	1	R1406M
454.115	3.767	562897	PROB	3.75	n/a	n/a	n/a	-999	2	[3, 1, 4]	8.0	catFR1	1	R1406M
457.882	5.083	566663	PROB	5.066	n/a	n/a	n/a	-999	2	[7, 3, 2]	12.0	catFR1	1	R1406M
462.965	0.0	571746	STOP	n/a	n/a	n/a	n/a	-999	2	[-999, -999, -999]	n/a	catFR1	1	R1406M
462.965	2.2	571753	DISTRACT_END	n/a	n/a	n/a	n/a	-999	2	[0, 0, 0]	n/a	catFR1	1	R1406M
465.165	1.933	573955	REC_START	n/a	n/a	n/a	n/a	-999	2	[0, 0, 0]	n/a	catFR1	1	R1406M
467.098	0.733	575879	REC_WORD	1.933	n/a	CHEESECAKE	Desserts	12	2	[0, 0, 0]	n/a	catFR1	1	R1406M
467.831	3.069	576612	REC_WORD	2.666	n/a	PIE	Desserts	11	2	[0, 0, 0]	n/a	catFR1	1	R1406M
470.9	1.001	579681	REC_WORD_VV	5.735	n/a	<>	n/a	-999	2	[0, 0, 0]	n/a	catFR1	1	R1406M
471.901	0.879	580682	REC_WORD_VV	6.736	n/a	<>	n/a	-999	2	[0, 0, 0]	n/a	catFR1	1	R1406M
472.78	4.704	581561	REC_WORD_VV	7.615	n/a	<>	n/a	-999	2	[0, 0, 0]	n/a	catFR1	1	R1406M
477.484	2.974	586264	REC_WORD_VV	12.319	n/a	<>	n/a	-999	2	[0, 0, 0]	n/a	catFR1	1	R1406M
480.458	3.423	589238	REC_WORD	15.293	n/a	CALCULATOR	Electronics	6	2	[0, 0, 0]	n/a	catFR1	1	R1406M
483.881	5.648	592661	REC_WORD	18.716	n/a	MARBLES	Toys	-999	2	[0, 0, 0]	n/a	catFR1	1	R1406M
489.529	3.044	598309	REC_WORD	24.364	n/a	VALLEY	Landscapes	7	2	[0, 0, 0]	n/a	catFR1	1	R1406M
492.573	1.295	601353	REC_WORD	27.408	n/a	LAKE	Landscapes	4	2	[0, 0, 0]	n/a	catFR1	1	R1406M
493.868	1.525	602648	REC_WORD	28.703	n/a	MOUNTAIN	Landscapes	3	2	[0, 0, 0]	n/a	catFR1	1	R1406M
495.393	8.505	604178	REC_END	n/a	n/a	n/a	n/a	-999	2	[0, 0, 0]	n/a	catFR1	1	R1406M
503.898	10.0	612686	COUNTDOWN_START	n/a	n/a	n/a	n/a	-999	3	[0, 0, 0]	n/a	catFR1	1	R1406M
514.248	0.0	623026	COUNTDOWN_END	n/a	n/a	n/a	n/a	-999	3	[0, 0, 0]	n/a	catFR1	1	R1406M
514.248	2.182	623026	ENCODING_START	n/a	n/a	n/a	n/a	-999	3	[0, 0, 0]	n/a	catFR1	1	R1406M
516.43	1.6	625201	WORD	n/a	wordpools/wordpool_categorized_EN.txt	BLENDER	Appliances	1	3	[0, 0, 0]	n/a	catFR1	1	R1406M
518.031	0.949	626803	WORD_OFF	n/a	n/a	BLENDER	Appliances	1	3	[0, 0, 0]	n/a	catFR1	1	R1406M
518.98	1.6	627757	WORD	n/a	wordpools/wordpool_categorized_EN.txt	FREEZER	Appliances	2	3	[0, 0, 0]	n/a	catFR1	1	R1406M
520.581	0.9	629359	WORD_OFF	n/a	n/a	FREEZER	Appliances	2	3	[0, 0, 0]	n/a	catFR1	1	R1406M
521.481	1.6	630256	WORD	n/a	wordpools/wordpool_categorized_EN.txt	ROACH	Insects	3	3	[0, 0, 0]	n/a	catFR1	1	R1406M
523.081	1.0	631859	WORD_OFF	n/a	n/a	ROACH	Insects	3	3	[0, 0, 0]	n/a	catFR1	1	R1406M
524.081	1.6	632870	WORD	n/a	wordpools/wordpool_categorized_EN.txt	ANT	Insects	4	3	[0, 0, 0]	n/a	catFR1	1	R1406M
525.698	0.934	634472	WORD_OFF	n/a	n/a	ANT	Insects	4	3	[0, 0, 0]	n/a	catFR1	1	R1406M
526.632	1.6	635407	WORD	n/a	wordpools/wordpool_categorized_EN.txt	SATIN	Fabric	5	3	[0, 0, 0]	n/a	catFR1	1	R1406M
528.232	0.867	637009	WORD_OFF	n/a	n/a	SATIN	Fabric	5	3	[0, 0, 0]	n/a	catFR1	1	R1406M
529.099	1.6	637887	WORD	n/a	wordpools/wordpool_categorized_EN.txt	SPANDEX	Fabric	6	3	[0, 0, 0]	n/a	catFR1	1	R1406M
530.715	1.0	639489	WORD_OFF	n/a	n/a	SPANDEX	Fabric	6	3	[0, 0, 0]	n/a	catFR1	1	R1406M
531.715	1.6	640500	WORD	n/a	wordpools/wordpool_categorized_EN.txt	TOASTER	Appliances	7	3	[0, 0, 0]	n/a	catFR1	1	R1406M
533.315	0.983	642103	WORD_OFF	n/a	n/a	TOASTER	Appliances	7	3	[0, 0, 0]	n/a	catFR1	1	R1406M
534.298	1.6	643076	WORD	n/a	wordpools/wordpool_categorized_EN.txt	WASHER	Appliances	8	3	[0, 0, 0]	n/a	catFR1	1	R1406M
535.898	0.883	644678	WORD_OFF	n/a	n/a	WASHER	Appliances	8	3	[0, 0, 0]	n/a	catFR1	1	R1406M
536.781	1.6	645556	WORD	n/a	wordpools/wordpool_categorized_EN.txt	SUEDE	Fabric	9	3	[0, 0, 0]	n/a	catFR1	1	R1406M
538.398	0.932	647177	WORD_OFF	n/a	n/a	SUEDE	Fabric	9	3	[0, 0, 0]	n/a	catFR1	1	R1406M
539.33	1.6	648112	WORD	n/a	wordpools/wordpool_categorized_EN.txt	NYLON	Fabric	10	3	[0, 0, 0]	n/a	catFR1	1	R1406M
540.931	0.833	649715	WORD_OFF	n/a	n/a	NYLON	Fabric	10	3	[0, 0, 0]	n/a	catFR1	1	R1406M
541.764	1.6	650535	WORD	n/a	wordpools/wordpool_categorized_EN.txt	BUTTERFLY	Insects	11	3	[0, 0, 0]	n/a	catFR1	1	R1406M
543.364	1.0	652137	WORD_OFF	n/a	n/a	BUTTERFLY	Insects	11	3	[0, 0, 0]	n/a	catFR1	1	R1406M
544.364	1.6	653148	WORD	n/a	wordpools/wordpool_categorized_EN.txt	GNAT	Insects	12	3	[0, 0, 0]	n/a	catFR1	1	R1406M
545.965	0.001	654742	PROB	3.9	n/a	n/a	n/a	-999	3	[2, 1, 8]	11.0	catFR1	1	R1406M
545.966	0.0	654743	START	n/a	n/a	n/a	n/a	-999	3	[-999, -999, -999]	n/a	catFR1	1	R1406M
545.965	0.001	654751	WORD_OFF	n/a	n/a	GNAT	Insects	12	3	[0, 0, 0]	n/a	catFR1	1	R1406M
545.966	0.0	654751	ENCODING_END	n/a	n/a	n/a	n/a	-999	3	[0, 0, 0]	n/a	catFR1	1	R1406M
545.966	3.916	654751	DISTRACT_START	n/a	n/a	n/a	n/a	-999	3	[0, 0, 0]	n/a	catFR1	1	R1406M
549.882	6.999	658658	PROB	6.983	n/a	n/a	n/a	-999	3	[7, 2, 5]	13.0	catFR1	1	R1406M
556.881	5.818	665657	PROB	5.8	n/a	n/a	n/a	-999	3	[8, 8, 7]	23.0	catFR1	1	R1406M
562.699	3.15	671475	PROB	3.133	n/a	n/a	n/a	-999	3	[1, 5, 1]	7.0	catFR1	1	R1406M
565.849	4.266	674625	PROB	4.248	n/a	n/a	n/a	-999	3	[5, 6, 2]	13.0	catFR1	1	R1406M
570.115	0.0	678883	DISTRACT_END	n/a	n/a	n/a	n/a	-999	3	[0, 0, 0]	n/a	catFR1	1	R1406M
570.115	2.017	678890	STOP	n/a	n/a	n/a	n/a	-999	3	[-999, -999, -999]	n/a	catFR1	1	R1406M
572.132	3.391	680913	REC_START	n/a	n/a	n/a	n/a	-999	3	[0, 0, 0]	n/a	catFR1	1	R1406M
575.523	0.992	684298	REC_WORD_VV	3.391	n/a	<>	n/a	-999	3	[0, 0, 0]	n/a	catFR1	1	R1406M
576.515	3.608	685290	REC_WORD	4.383	n/a	NYLON	Fabric	10	3	[0, 0, 0]	n/a	catFR1	1	R1406M
580.123	1.082	688898	REC_WORD	7.991	n/a	GNAT	Insects	12	3	[0, 0, 0]	n/a	catFR1	1	R1406M
581.205	5.56	689980	REC_WORD	9.073	n/a	ANT	Insects	4	3	[0, 0, 0]	n/a	catFR1	1	R1406M
586.765	15.598	695540	REC_WORD	14.633	n/a	CRICKET	Insects	-999	3	[0, 0, 0]	n/a	catFR1	1	R1406M
602.363	5.418	711142	REC_END	n/a	n/a	n/a	n/a	-999	3	[0, 0, 0]	n/a	catFR1	1	R1406M
607.781	10.0	716560	COUNTDOWN_START	n/a	n/a	n/a	n/a	-999	4	[0, 0, 0]	n/a	catFR1	1	R1406M
618.132	0.0	726900	COUNTDOWN_END	n/a	n/a	n/a	n/a	-999	4	[0, 0, 0]	n/a	catFR1	1	R1406M
618.132	1.815	726900	ENCODING_START	n/a	n/a	n/a	n/a	-999	4	[0, 0, 0]	n/a	catFR1	1	R1406M
619.947	1.6	728712	WORD	n/a	wordpools/wordpool_categorized_EN.txt	PIGEON	Birds	1	4	[0, 0, 0]	n/a	catFR1	1	R1406M
621.548	0.766	730314	WORD_OFF	n/a	n/a	PIGEON	Birds	1	4	[0, 0, 0]	n/a	catFR1	1	R1406M
622.314	1.6	731097	WORD	n/a	wordpools/wordpool_categorized_EN.txt	SPARROW	Birds	2	4	[0, 0, 0]	n/a	catFR1	1	R1406M
623.915	0.767	732680	WORD_OFF	n/a	n/a	SPARROW	Birds	2	4	[0, 0, 0]	n/a	catFR1	1	R1406M
624.682	1.6	733462	WORD	n/a	wordpools/wordpool_categorized_EN.txt	SPOON	KitchenTools	3	4	[0, 0, 0]	n/a	catFR1	1	R1406M
626.282	0.966	735065	WORD_OFF	n/a	n/a	SPOON	KitchenTools	3	4	[0, 0, 0]	n/a	catFR1	1	R1406M
627.248	1.6	736018	WORD	n/a	wordpools/wordpool_categorized_EN.txt	SPATULA	KitchenTools	4	4	[0, 0, 0]	n/a	catFR1	1	R1406M
628.865	0.85	737640	WORD_OFF	n/a	n/a	SPATULA	KitchenTools	4	4	[0, 0, 0]	n/a	catFR1	1	R1406M
629.715	1.6	738479	WORD	n/a	wordpools/wordpool_categorized_EN.txt	HURRICANE	Weather	5	4	[0, 0, 0]	n/a	catFR1	1	R1406M
631.315	0.85	740082	WORD_OFF	n/a	n/a	HURRICANE	Weather	5	4	[0, 0, 0]	n/a	catFR1	1	R1406M
632.165	1.6	740940	WORD	n/a	wordpools/wordpool_categorized_EN.txt	SNOW	Weather	6	4	[0, 0, 0]	n/a	catFR1	1	R1406M
633.765	0.833	742543	WORD_OFF	n/a	n/a	SNOW	Weather	6	4	[0, 0, 0]	n/a	catFR1	1	R1406M
634.598	1.6	743363	WORD	n/a	wordpools/wordpool_categorized_EN.txt	HAWK	Birds	7	4	[0, 0, 0]	n/a	catFR1	1	R1406M
636.198	0.834	744965	WORD_OFF	n/a	n/a	HAWK	Birds	7	4	[0, 0, 0]	n/a	catFR1	1	R1406M
637.032	1.6	745805	WORD	n/a	wordpools/wordpool_categorized_EN.txt	ROBIN	Birds	8	4	[0, 0, 0]	n/a	catFR1	1	R1406M
638.632	0.933	747407	WORD_OFF	n/a	n/a	ROBIN	Birds	8	4	[0, 0, 0]	n/a	catFR1	1	R1406M
639.565	1.6	748342	WORD	n/a	wordpools/wordpool_categorized_EN.txt	WHISK	KitchenTools	9	4	[0, 0, 0]	n/a	catFR1	1	R1406M
641.165	0.866	749945	WORD_OFF	n/a	n/a	WHISK	KitchenTools	9	4	[0, 0, 0]	n/a	catFR1	1	R1406M
642.031	1.6	750803	WORD	n/a	wordpools/wordpool_categorized_EN.txt	FORK	KitchenTools	10	4	[0, 0, 0]	n/a	catFR1	1	R1406M
643.631	0.85	752405	WORD_OFF	n/a	n/a	FORK	KitchenTools	10	4	[0, 0, 0]	n/a	catFR1	1	R1406M
644.481	1.6	753245	WORD	n/a	wordpools/wordpool_categorized_EN.txt	THUNDER	Weather	11	4	[0, 0, 0]	n/a	catFR1	1	R1406M
646.082	0.782	754847	WORD_OFF	n/a	n/a	THUNDER	Weather	11	4	[0, 0, 0]	n/a	catFR1	1	R1406M
646.864	1.6	755629	WORD	n/a	wordpools/wordpool_categorized_EN.txt	WIND	Weather	12	4	[0, 0, 0]	n/a	catFR1	1	R1406M
648.465	0.001	757232	WORD_OFF	n/a	n/a	WIND	Weather	12	4	[0, 0, 0]	n/a	catFR1	1	R1406M
648.466	0.0	757232	ENCODING_END	n/a	n/a	n/a	n/a	-999	4	[0, 0, 0]	n/a	catFR1	1	R1406M
648.465	0.002	757236	PROB	3.783	n/a	n/a	n/a	-999	4	[3, 1, 2]	6.0	catFR1	1	R1406M
648.467	0.0	757238	START	n/a	n/a	n/a	n/a	-999	4	[-999, -999, -999]	n/a	catFR1	1	R1406M
648.467	3.798	757251	DISTRACT_START	n/a	n/a	n/a	n/a	-999	4	[0, 0, 0]	n/a	catFR1	1	R1406M
652.265	4.5	761036	PROB	4.482	n/a	n/a	n/a	-999	4	[4, 3, 7]	14.0	catFR1	1	R1406M
656.765	5.083	765536	PROB	5.066	n/a	n/a	n/a	-999	4	[6, 8, 2]	16.0	catFR1	1	R1406M
661.848	6.1	770618	PROB	6.083	n/a	n/a	n/a	-999	4	[5, 6, 3]	13.0	catFR1	1	R1406M
667.948	7.766	776718	PROB	7.75	n/a	n/a	n/a	-999	4	[5, 8, 7]	20.0	catFR1	1	R1406M
675.714	0.0	784484	STOP	n/a	n/a	n/a	n/a	-999	4	[-999, -999, -999]	n/a	catFR1	1	R1406M
675.714	2.283	784493	DISTRACT_END	n/a	n/a	n/a	n/a	-999	4	[0, 0, 0]	n/a	catFR1	1	R1406M
677.997	8.269	786771	REC_START	n/a	n/a	n/a	n/a	-999	4	[0, 0, 0]	n/a	catFR1	1	R1406M
686.266	7.498	795035	REC_WORD	8.269	n/a	SPOON	KitchenTools	3	4	[0, 0, 0]	n/a	catFR1	1	R1406M
693.764	0.983	802533	REC_WORD	15.767	n/a	SNOW	Weather	6	4	[0, 0, 0]	n/a	catFR1	1	R1406M
694.747	7.839	803516	REC_WORD	16.75	n/a	HURRICANE	Weather	5	4	[0, 0, 0]	n/a	catFR1	1	R1406M
702.586	4.705	811354	REC_WORD	24.589	n/a	SPARROW	Birds	2	4	[0, 0, 0]	n/a	catFR1	1	R1406M
707.291	0.921	816059	REC_WORD	29.294	n/a	HAWK	Birds	7	4	[0, 0, 0]	n/a	catFR1	1	R1406M
708.212	6.186	816981	REC_END	n/a	n/a	n/a	n/a	-999	4	[0, 0, 0]	n/a	catFR1	1	R1406M
714.398	10.0	823162	COUNTDOWN_START	n/a	n/a	n/a	n/a	-999	5	[0, 0, 0]	n/a	catFR1	1	R1406M
724.749	0.0	833520	COUNTDOWN_END	n/a	n/a	n/a	n/a	-999	5	[0, 0, 0]	n/a	catFR1	1	R1406M
724.749	2.233	833520	ENCODING_START	n/a	n/a	n/a	n/a	-999	5	[0, 0, 0]	n/a	catFR1	1	R1406M
726.982	1.6	835752	WORD	n/a	wordpools/wordpool_categorized_EN.txt	ONION	Vegetables	1	5	[0, 0, 0]	n/a	catFR1	1	R1406M
728.598	0.967	837374	WORD_OFF	n/a	n/a	ONION	Vegetables	1	5	[0, 0, 0]	n/a	catFR1	1	R1406M
729.565	1.6	838328	WORD	n/a	wordpools/wordpool_categorized_EN.txt	CABBAGE	Vegetables	2	5	[0, 0, 0]	n/a	catFR1	1	R1406M
731.181	0.767	839949	WORD_OFF	n/a	n/a	CABBAGE	Vegetables	2	5	[0, 0, 0]	n/a	catFR1	1	R1406M
731.948	1.6	840712	WORD	n/a	wordpools/wordpool_categorized_EN.txt	PETUNIA	Flowers	3	5	[0, 0, 0]	n/a	catFR1	1	R1406M
733.548	0.984	842315	WORD_OFF	n/a	n/a	PETUNIA	Flowers	3	5	[0, 0, 0]	n/a	catFR1	1	R1406M
734.532	1.6	843307	WORD	n/a	wordpools/wordpool_categorized_EN.txt	ROSE	Flowers	4	5	[0, 0, 0]	n/a	catFR1	1	R1406M
736.132	0.766	844890	WORD_OFF	n/a	n/a	ROSE	Flowers	4	5	[0, 0, 0]	n/a	catFR1	1	R1406M
736.898	1.6	845672	WORD	n/a	wordpools/wordpool_categorized_EN.txt	LADLE	KitchenTools	5	5	[0, 0, 0]	n/a	catFR1	1	R1406M
738.515	1.0	847275	WORD_OFF	n/a	n/a	LADLE	KitchenTools	5	5	[0, 0, 0]	n/a	catFR1	1	R1406M
739.515	1.6	848286	WORD	n/a	wordpools/wordpool_categorized_EN.txt	PEELER	KitchenTools	6	5	[0, 0, 0]	n/a	catFR1	1	R1406M
741.131	0.967	849907	WORD_OFF	n/a	n/a	PEELER	KitchenTools	6	5	[0, 0, 0]	n/a	catFR1	1	R1406M
742.098	1.6	850861	WORD	n/a	wordpools/wordpool_categorized_EN.txt	CORN	Vegetables	7	5	[0, 0, 0]	n/a	catFR1	1	R1406M
743.714	0.801	852483	WORD_OFF	n/a	n/a	CORN	Vegetables	7	5	[0, 0, 0]	n/a	catFR1	1	R1406M
744.515	1.6	853284	WORD	n/a	wordpools/wordpool_categorized_EN.txt	CARROT	Vegetables	8	5	[0, 0, 0]	n/a	catFR1	1	R1406M
746.115	0.966	854887	WORD_OFF	n/a	n/a	CARROT	Vegetables	8	5	[0, 0, 0]	n/a	catFR1	1	R1406M
747.081	1.6	855840	WORD	n/a	wordpools/wordpool_categorized_EN.txt	TONGS	KitchenTools	9	5	[0, 0, 0]	n/a	catFR1	1	R1406M
748.681	0.817	857443	WORD_OFF	n/a	n/a	TONGS	KitchenTools	9	5	[0, 0, 0]	n/a	catFR1	1	R1406M
749.498	1.6	858263	WORD	n/a	wordpools/wordpool_categorized_EN.txt	GRATER	KitchenTools	10	5	[0, 0, 0]	n/a	catFR1	1	R1406M
751.098	0.783	859866	WORD_OFF	n/a	n/a	GRATER	KitchenTools	10	5	[0, 0, 0]	n/a	catFR1	1	R1406M
751.881	1.6	860648	WORD	n/a	wordpools/wordpool_categorized_EN.txt	ORCHID	Flowers	11	5	[0, 0, 0]	n/a	catFR1	1	R1406M
753.481	0.867	862250	WORD_OFF	n/a	n/a	ORCHID	Flowers	11	5	[0, 0, 0]	n/a	catFR1	1	R1406M
754.348	1.6	863109	WORD	n/a	wordpools/wordpool_categorized_EN.txt	DAISY	Flowers	12	5	[0, 0, 0]	n/a	catFR1	1	R1406M
755.948	0.001	864711	WORD_OFF	n/a	n/a	DAISY	Flowers	12	5	[0, 0, 0]	n/a	catFR1	1	R1406M
755.949	0.0	864711	ENCODING_END	n/a	n/a	n/a	n/a	-999	5	[0, 0, 0]	n/a	catFR1	1	R1406M
755.949	0.0	864711	DISTRACT_START	n/a	n/a	n/a	n/a	-999	5	[0, 0, 0]	n/a	catFR1	1	R1406M
755.948	0.001	864713	PROB	3.733	n/a	n/a	n/a	-999	5	[4, 1, 3]	8.0	catFR1	1	R1406M
755.949	3.749	864714	START	n/a	n/a	n/a	n/a	-999	5	[-999, -999, -999]	n/a	catFR1	1	R1406M
759.698	3.333	868463	PROB	3.316	n/a	n/a	n/a	-999	5	[4, 1, 1]	6.0	catFR1	1	R1406M
763.031	3.983	871796	PROB	3.966	n/a	n/a	n/a	-999	5	[1, 3, 5]	9.0	catFR1	1	R1406M
767.014	4.567	875779	PROB	4.55	n/a	n/a	n/a	-999	5	[5, 3, 8]	16.0	catFR1	1	R1406M
771.581	2.699	880346	PROB	2.683	n/a	n/a	n/a	-999	5	[1, 3, 7]	11.0	catFR1	1	R1406M
774.28	3.385	883044	PROB	3.368	n/a	n/a	n/a	-999	5	[3, 5, 4]	12.0	catFR1	1	R1406M
777.665	0.0	886426	DISTRACT_END	n/a	n/a	n/a	n/a	-999	5	[0, 0, 0]	n/a	catFR1	1	R1406M
777.665	2.249	886429	STOP	n/a	n/a	n/a	n/a	-999	5	[-999, -999, -999]	n/a	catFR1	1	R1406M
779.914	26.506	888685	REC_START	n/a	n/a	n/a	n/a	-999	5	[0, 0, 0]	n/a	catFR1	1	R1406M
806.42	1.01	915183	REC_WORD	26.506	n/a	ANIMAL	n/a	-999	5	[0, 0, 0]	n/a	catFR1	1	R1406M
807.43	2.245	916193	REC_WORD	27.516	n/a	ZOO	n/a	-999	5	[0, 0, 0]	n/a	catFR1	1	R1406M
809.675	0.456	918438	REC_WORD	29.761	n/a	BEAR	Zoo	-999	5	[0, 0, 0]	n/a	catFR1	1	R1406M
810.131	7.017	918895	REC_END	n/a	n/a	n/a	n/a	-999	5	[0, 0, 0]	n/a	catFR1	1	R1406M
817.148	10.0	925915	COUNTDOWN_START	n/a	n/a	n/a	n/a	-999	6	[0, 0, 0]	n/a	catFR1	1	R1406M
827.5	0.0	936255	COUNTDOWN_END	n/a	n/a	n/a	n/a	-999	6	[0, 0, 0]	n/a	catFR1	1	R1406M
827.5	1.948	936274	ENCODING_START	n/a	n/a	n/a	n/a	-999	6	[0, 0, 0]	n/a	catFR1	1	R1406M
829.448	1.6	938220	WORD	n/a	wordpools/wordpool_categorized_EN.txt	ELBOW	BodyParts	1	6	[0, 0, 0]	n/a	catFR1	1	R1406M
831.048	0.934	939803	WORD_OFF	n/a	n/a	ELBOW	BodyParts	1	6	[0, 0, 0]	n/a	catFR1	1	R1406M
831.982	1.6	940738	WORD	n/a	wordpools/wordpool_categorized_EN.txt	LEG	BodyParts	2	6	[0, 0, 0]	n/a	catFR1	1	R1406M
833.598	0.95	942360	WORD_OFF	n/a	n/a	LEG	BodyParts	2	6	[0, 0, 0]	n/a	catFR1	1	R1406M
834.548	1.6	943314	WORD	n/a	wordpools/wordpool_categorized_EN.txt	BANANA	Fruit	3	6	[0, 0, 0]	n/a	catFR1	1	R1406M
836.165	0.9	944935	WORD_OFF	n/a	n/a	BANANA	Fruit	3	6	[0, 0, 0]	n/a	catFR1	1	R1406M
837.065	1.6	945832	WORD	n/a	wordpools/wordpool_categorized_EN.txt	STRAWBERRY	Fruit	4	6	[0, 0, 0]	n/a	catFR1	1	R1406M
838.681	0.783	947434	WORD_OFF	n/a	n/a	STRAWBERRY	Fruit	4	6	[0, 0, 0]	n/a	catFR1	1	R1406M
839.464	1.6	948235	WORD	n/a	wordpools/wordpool_categorized_EN.txt	MARKER	OfficeSupplies	5	6	[0, 0, 0]	n/a	catFR1	1	R1406M
841.064	0.917	949819	WORD_OFF	n/a	n/a	MARKER	OfficeSupplies	5	6	[0, 0, 0]	n/a	catFR1	1	R1406M
841.981	1.6	950734	WORD	n/a	wordpools/wordpool_categorized_EN.txt	GLUE	OfficeSupplies	6	6	[0, 0, 0]	n/a	catFR1	1	R1406M
843.581	0.8	952337	WORD_OFF	n/a	n/a	GLUE	OfficeSupplies	6	6	[0, 0, 0]	n/a	catFR1	1	R1406M
844.381	1.6	953138	WORD	n/a	wordpools/wordpool_categorized_EN.txt	CHERRY	Fruit	7	6	[0, 0, 0]	n/a	catFR1	1	R1406M
845.999	0.848	954760	WORD_OFF	n/a	n/a	CHERRY	Fruit	7	6	[0, 0, 0]	n/a	catFR1	1	R1406M
846.847	1.6	955618	WORD	n/a	wordpools/wordpool_categorized_EN.txt	APPLE	Fruit	8	6	[0, 0, 0]	n/a	catFR1	1	R1406M
848.447	1.001	957202	WORD_OFF	n/a	n/a	APPLE	Fruit	8	6	[0, 0, 0]	n/a	catFR1	1	R1406M
849.448	1.6	958213	WORD	n/a	wordpools/wordpool_categorized_EN.txt	NOTEBOOK	OfficeSupplies	9	6	[0, 0, 0]	n/a	catFR1	1	R1406M
851.064	0.967	959834	WORD_OFF	n/a	n/a	NOTEBOOK	OfficeSupplies	9	6	[0, 0, 0]	n/a	catFR1	1	R1406M
852.031	1.6	960788	WORD	n/a	wordpools/wordpool_categorized_EN.txt	PENCIL	OfficeSupplies	10	6	[0, 0, 0]	n/a	catFR1	1	R1406M
853.647	0.9	962409	WORD_OFF	n/a	n/a	PENCIL	OfficeSupplies	10	6	[0, 0, 0]	n/a	catFR1	1	R1406M
854.547	1.6	963306	WORD	n/a	wordpools/wordpool_categorized_EN.txt	EYE	BodyParts	11	6	[0, 0, 0]	n/a	catFR1	1	R1406M
856.147	0.884	964909	WORD_OFF	n/a	n/a	EYE	BodyParts	11	6	[0, 0, 0]	n/a	catFR1	1	R1406M
857.031	1.6	965786	WORD	n/a	wordpools/wordpool_categorized_EN.txt	FINGERS	BodyParts	12	6	[0, 0, 0]	n/a	catFR1	1	R1406M
858.631	0.001	967389	WORD_OFF	n/a	n/a	FINGERS	BodyParts	12	6	[0, 0, 0]	n/a	catFR1	1	R1406M
858.632	0.0	967389	ENCODING_END	n/a	n/a	n/a	n/a	-999	6	[0, 0, 0]	n/a	catFR1	1	R1406M
858.632	0.0	967389	DISTRACT_START	n/a	n/a	n/a	n/a	-999	6	[0, 0, 0]	n/a	catFR1	1	R1406M
858.632	0.0	967392	PROB	16.0	n/a	n/a	n/a	-999	6	[4, 1, 5]	10.0	catFR1	1	R1406M
858.632	16.016	967392	START	n/a	n/a	n/a	n/a	-999	6	[-999, -999, -999]	n/a	catFR1	1	R1406M
874.648	5.234	983407	PROB	5.216	n/a	n/a	n/a	-999	6	[3, 1, 6]	10.0	catFR1	1	R1406M
879.882	0.0	988640	DISTRACT_END	n/a	n/a	n/a	n/a	-999	6	[0, 0, 0]	n/a	catFR1	1	R1406M
879.882	2.283	988641	STOP	n/a	n/a	n/a	n/a	-999	6	[-999, -999, -999]	n/a	catFR1	1	R1406M
882.165	6.584	990918	REC_START	n/a	n/a	n/a	n/a	-999	6	[0, 0, 0]	n/a	catFR1	1	R1406M
888.749	0.645	997507	REC_WORD	6.584	n/a	LEG	BodyParts	2	6	[0, 0, 0]	n/a	catFR1	1	R1406M
889.394	1.639	998152	REC_WORD	7.229	n/a	ELBOW	BodyParts	1	6	[0, 0, 0]	n/a	catFR1	1	R1406M
891.033	11.024	999791	REC_WORD	8.868	n/a	MARKER	OfficeSupplies	5	6	[0, 0, 0]	n/a	catFR1	1	R1406M
902.057	2.337	1010815	REC_WORD	19.892	n/a	SPARROW	Birds	-999	6	[0, 0, 0]	n/a	catFR1	1	R1406M
904.394	2.763	1013151	REC_WORD	22.229	n/a	EVERGREEN	n/a	-999	6	[0, 0, 0]	n/a	catFR1	1	R1406M
907.157	0.908	1015914	REC_WORD	24.992	n/a	CHERRY	Fruit	7	6	[0, 0, 0]	n/a	catFR1	1	R1406M
908.065	2.222	1016822	REC_WORD	25.9	n/a	APPLE	Fruit	8	6	[0, 0, 0]	n/a	catFR1	1	R1406M
910.287	0.637	1019044	REC_WORD	28.122	n/a	STRAWBERRY	Fruit	4	6	[0, 0, 0]	n/a	catFR1	1	R1406M
910.924	1.471	1019681	REC_WORD	28.759	n/a	BANANA	Fruit	3	6	[0, 0, 0]	n/a	catFR1	1	R1406M
912.395	11.186	1021147	REC_END	n/a	n/a	n/a	n/a	-999	6	[0, 0, 0]	n/a	catFR1	1	R1406M
923.581	10.0	1032345	COUNTDOWN_START	n/a	n/a	n/a	n/a	-999	7	[0, 0, 0]	n/a	catFR1	1	R1406M
933.931	0.001	1042685	COUNTDOWN_END	n/a	n/a	n/a	n/a	-999	7	[0, 0, 0]	n/a	catFR1	1	R1406M
933.932	2.082	1042685	ENCODING_START	n/a	n/a	n/a	n/a	-999	7	[0, 0, 0]	n/a	catFR1	1	R1406M
936.014	1.6	1044764	WORD	n/a	wordpools/wordpool_categorized_EN.txt	BULL	FarmAnimals	1	7	[0, 0, 0]	n/a	catFR1	1	R1406M
937.614	0.766	1046367	WORD_OFF	n/a	n/a	BULL	FarmAnimals	1	7	[0, 0, 0]	n/a	catFR1	1	R1406M
938.38	1.6	1047130	WORD	n/a	wordpools/wordpool_categorized_EN.txt	CALF	FarmAnimals	2	7	[0, 0, 0]	n/a	catFR1	1	R1406M
939.981	1.0	1048732	WORD_OFF	n/a	n/a	CALF	FarmAnimals	2	7	[0, 0, 0]	n/a	catFR1	1	R1406M
940.981	1.6	1049744	WORD	n/a	wordpools/wordpool_categorized_EN.txt	COUCH	Furniture	3	7	[0, 0, 0]	n/a	catFR1	1	R1406M
942.598	1.0	1051346	WORD_OFF	n/a	n/a	COUCH	Furniture	3	7	[0, 0, 0]	n/a	catFR1	1	R1406M
943.598	1.6	1052357	WORD	n/a	wordpools/wordpool_categorized_EN.txt	BED	Furniture	4	7	[0, 0, 0]	n/a	catFR1	1	R1406M
945.198	0.933	1053960	WORD_OFF	n/a	n/a	BED	Furniture	4	7	[0, 0, 0]	n/a	catFR1	1	R1406M
946.131	1.6	1054894	WORD	n/a	wordpools/wordpool_categorized_EN.txt	BLUEBIRD	Birds	5	7	[0, 0, 0]	n/a	catFR1	1	R1406M
947.732	0.833	1056497	WORD_OFF	n/a	n/a	BLUEBIRD	Birds	5	7	[0, 0, 0]	n/a	catFR1	1	R1406M
948.565	1.6	1057317	WORD	n/a	wordpools/wordpool_categorized_EN.txt	SEAGULL	Birds	6	7	[0, 0, 0]	n/a	catFR1	1	R1406M
950.166	0.799	1058920	WORD_OFF	n/a	n/a	SEAGULL	Birds	6	7	[0, 0, 0]	n/a	catFR1	1	R1406M
950.965	1.6	1059721	WORD	n/a	wordpools/wordpool_categorized_EN.txt	CHICKEN	FarmAnimals	7	7	[0, 0, 0]	n/a	catFR1	1	R1406M
952.565	0.983	1061323	WORD_OFF	n/a	n/a	CHICKEN	FarmAnimals	7	7	[0, 0, 0]	n/a	catFR1	1	R1406M
953.548	1.6	1062296	WORD	n/a	wordpools/wordpool_categorized_EN.txt	LAMB	FarmAnimals	8	7	[0, 0, 0]	n/a	catFR1	1	R1406M
955.165	0.8	1063918	WORD_OFF	n/a	n/a	LAMB	FarmAnimals	8	7	[0, 0, 0]	n/a	catFR1	1	R1406M
955.965	1.6	1064719	WORD	n/a	wordpools/wordpool_categorized_EN.txt	FINCH	Birds	9	7	[0, 0, 0]	n/a	catFR1	1	R1406M
957.582	0.848	1066340	WORD_OFF	n/a	n/a	FINCH	Birds	9	7	[0, 0, 0]	n/a	catFR1	1	R1406M
958.43	1.6	1067180	WORD	n/a	wordpools/wordpool_categorized_EN.txt	DUCK	Birds	10	7	[0, 0, 0]	n/a	catFR1	1	R1406M
960.031	0.95	1068782	WORD_OFF	n/a	n/a	DUCK	Birds	10	7	[0, 0, 0]	n/a	catFR1	1	R1406M
960.981	1.6	1069736	WORD	n/a	wordpools/wordpool_categorized_EN.txt	BOOKCASE	Furniture	11	7	[0, 0, 0]	n/a	catFR1	1	R1406M
962.581	0.933	1071339	WORD_OFF	n/a	n/a	BOOKCASE	Furniture	11	7	[0, 0, 0]	n/a	catFR1	1	R1406M
963.514	1.6	1072273	WORD	n/a	wordpools/wordpool_categorized_EN.txt	DESK	Furniture	12	7	[0, 0, 0]	n/a	catFR1	1	R1406M
965.116	0.001	1073870	PROB	4.032	n/a	n/a	n/a	-999	7	[7, 6, 1]	14.0	catFR1	1	R1406M
965.117	0.0	1073871	START	n/a	n/a	n/a	n/a	-999	7	[-999, -999, -999]	n/a	catFR1	1	R1406M
965.115	0.002	1073876	WORD_OFF	n/a	n/a	DESK	Furniture	12	7	[0, 0, 0]	n/a	catFR1	1	R1406M
965.117	0.0	1073876	ENCODING_END	n/a	n/a	n/a	n/a	-999	7	[0, 0, 0]	n/a	catFR1	1	R1406M
965.117	4.048	1073876	DISTRACT_START	n/a	n/a	n/a	n/a	-999	7	[0, 0, 0]	n/a	catFR1	1	R1406M
969.165	6.3	1077919	PROB	6.283	n/a	n/a	n/a	-999	7	[4, 7, 5]	15.0	catFR1	1	R1406M
975.465	3.417	1084219	PROB	3.4	n/a	n/a	n/a	-999	7	[2, 1, 5]	8.0	catFR1	1	R1406M
978.882	3.666	1087635	PROB	3.649	n/a	n/a	n/a	-999	7	[7, 3, 1]	11.0	catFR1	1	R1406M
982.548	3.583	1091301	PROB	3.566	n/a	n/a	n/a	-999	7	[4, 6, 5]	15.0	catFR1	1	R1406M
986.131	0.0	1094879	DISTRACT_END	n/a	n/a	n/a	n/a	-999	7	[0, 0, 0]	n/a	catFR1	1	R1406M
986.131	2.05	1094884	STOP	n/a	n/a	n/a	n/a	-999	7	[-999, -999, -999]	n/a	catFR1	1	R1406M
988.181	10.921	1096929	REC_START	n/a	n/a	n/a	n/a	-999	7	[0, 0, 0]	n/a	catFR1	1	R1406M
999.102	1.003	1107854	REC_WORD_VV	10.921	n/a	<>	n/a	-999	7	[0, 0, 0]	n/a	catFR1	1	R1406M
1000.105	0.38	1108857	REC_WORD_VV	11.924	n/a	<>	n/a	-999	7	[0, 0, 0]	n/a	catFR1	1	R1406M
1000.485	1.106	1109237	REC_WORD	12.304	n/a	LEG	BodyParts	-999	7	[0, 0, 0]	n/a	catFR1	1	R1406M
1001.591	1.302	1110343	REC_WORD	13.41	n/a	KNEE	n/a	-999	7	[0, 0, 0]	n/a	catFR1	1	R1406M
1002.893	2.824	1111645	REC_WORD	14.712	n/a	MOUNTAIN	Landscapes	-999	7	[0, 0, 0]	n/a	catFR1	1	R1406M
1005.717	2.406	1114469	REC_WORD	17.536	n/a	ERASER	n/a	-999	7	[0, 0, 0]	n/a	catFR1	1	R1406M
1008.123	1.596	1116875	REC_WORD	19.942	n/a	STOP	n/a	-999	7	[0, 0, 0]	n/a	catFR1	1	R1406M
1009.719	3.019	1118471	REC_WORD	21.538	n/a	GO	n/a	-999	7	[0, 0, 0]	n/a	catFR1	1	R1406M
1012.738	0.829	1121490	REC_WORD	24.557	n/a	LEFT	n/a	-999	7	[0, 0, 0]	n/a	catFR1	1	R1406M
1013.567	4.85	1122319	REC_WORD	25.386	n/a	RIGHT	n/a	-999	7	[0, 0, 0]	n/a	catFR1	1	R1406M
1018.417	19.03	1127177	REC_END	n/a	n/a	n/a	n/a	-999	7	[0, 0, 0]	n/a	catFR1	1	R1406M
1037.447	10.0	1146196	COUNTDOWN_START	n/a	n/a	n/a	n/a	-999	8	[0, 0, 0]	n/a	catFR1	1	R1406M
1047.799	0.0	1156555	COUNTDOWN_END	n/a	n/a	n/a	n/a	-999	8	[0, 0, 0]	n/a	catFR1	1	R1406M
1047.799	2.099	1156555	ENCODING_START	n/a	n/a	n/a	n/a	-999	8	[0, 0, 0]	n/a	catFR1	1	R1406M
1049.898	1.6	1158654	WORD	n/a	wordpools/wordpool_categorized_EN.txt	LILY	Flowers	1	8	[0, 0, 0]	n/a	catFR1	1	R1406M
1051.498	0.817	1160256	WORD_OFF	n/a	n/a	LILY	Flowers	1	8	[0, 0, 0]	n/a	catFR1	1	R1406M
1052.315	1.6	1161057	WORD	n/a	wordpools/wordpool_categorized_EN.txt	LILAC	Flowers	2	8	[0, 0, 0]	n/a	catFR1	1	R1406M
1053.931	1.0	1162679	WORD_OFF	n/a	n/a	LILAC	Flowers	2	8	[0, 0, 0]	n/a	catFR1	1	R1406M
1054.931	1.6	1163690	WORD	n/a	wordpools/wordpool_categorized_EN.txt	SHOVEL	Tools	3	8	[0, 0, 0]	n/a	catFR1	1	R1406M
1056.548	0.834	1165292	WORD_OFF	n/a	n/a	SHOVEL	Tools	3	8	[0, 0, 0]	n/a	catFR1	1	R1406M
1057.382	1.6	1166132	WORD	n/a	wordpools/wordpool_categorized_EN.txt	SCREWDRIVER	Tools	4	8	[0, 0, 0]	n/a	catFR1	1	R1406M
1058.982	0.766	1167734	WORD_OFF	n/a	n/a	SCREWDRIVER	Tools	4	8	[0, 0, 0]	n/a	catFR1	1	R1406M
1059.748	1.6	1168497	WORD	n/a	wordpools/wordpool_categorized_EN.txt	OCTOPUS	OceanAnimals	5	8	[0, 0, 0]	n/a	catFR1	1	R1406M
1061.348	0.85	1170100	WORD_OFF	n/a	n/a	OCTOPUS	OceanAnimals	5	8	[0, 0, 0]	n/a	catFR1	1	R1406M
1062.198	1.6	1170958	WORD	n/a	wordpools/wordpool_categorized_EN.txt	TURTLE	OceanAnimals	6	8	[0, 0, 0]	n/a	catFR1	1	R1406M
1063.815	0.799	1172561	WORD_OFF	n/a	n/a	TURTLE	OceanAnimals	6	8	[0, 0, 0]	n/a	catFR1	1	R1406M
1064.614	1.6	1173362	WORD	n/a	wordpools/wordpool_categorized_EN.txt	SUNFLOWER	Flowers	7	8	[0, 0, 0]	n/a	catFR1	1	R1406M
1066.215	0.933	1174964	WORD_OFF	n/a	n/a	SUNFLOWER	Flowers	7	8	[0, 0, 0]	n/a	catFR1	1	R1406M
1067.148	1.6	1175899	WORD	n/a	wordpools/wordpool_categorized_EN.txt	DAFFODIL	Flowers	8	8	[0, 0, 0]	n/a	catFR1	1	R1406M
1068.764	0.784	1177521	WORD_OFF	n/a	n/a	DAFFODIL	Flowers	8	8	[0, 0, 0]	n/a	catFR1	1	R1406M
1069.548	1.6	1178303	WORD	n/a	wordpools/wordpool_categorized_EN.txt	JELLYFISH	OceanAnimals	9	8	[0, 0, 0]	n/a	catFR1	1	R1406M
1071.165	0.899	1179924	WORD_OFF	n/a	n/a	JELLYFISH	OceanAnimals	9	8	[0, 0, 0]	n/a	catFR1	1	R1406M
1072.064	1.6	1180821	WORD	n/a	wordpools/wordpool_categorized_EN.txt	DOLPHIN	OceanAnimals	10	8	[0, 0, 0]	n/a	catFR1	1	R1406M
1073.682	0.866	1182423	WORD_OFF	n/a	n/a	DOLPHIN	OceanAnimals	10	8	[0, 0, 0]	n/a	catFR1	1	R1406M
1074.548	1.6	1183301	WORD	n/a	wordpools/wordpool_categorized_EN.txt	WRENCH	Tools	11	8	[0, 0, 0]	n/a	catFR1	1	R1406M
1076.165	1.0	1184922	WORD_OFF	n/a	n/a	WRENCH	Tools	11	8	[0, 0, 0]	n/a	catFR1	1	R1406M
1077.165	1.6	1185914	WORD	n/a	wordpools/wordpool_categorized_EN.txt	HAMMER	Tools	12	8	[0, 0, 0]	n/a	catFR1	1	R1406M
1078.766	0.0	1187514	PROB	3.849	n/a	n/a	n/a	-999	8	[4, 2, 2]	8.0	catFR1	1	R1406M
1078.766	0.0	1187514	START	n/a	n/a	n/a	n/a	-999	8	[-999, -999, -999]	n/a	catFR1	1	R1406M
1078.765	0.001	1187517	WORD_OFF	n/a	n/a	HAMMER	Tools	12	8	[0, 0, 0]	n/a	catFR1	1	R1406M
1078.766	0.0	1187517	ENCODING_END	n/a	n/a	n/a	n/a	-999	8	[0, 0, 0]	n/a	catFR1	1	R1406M
1078.766	3.866	1187517	DISTRACT_START	n/a	n/a	n/a	n/a	-999	8	[0, 0, 0]	n/a	catFR1	1	R1406M
1082.632	6.399	1191380	PROB	6.383	n/a	n/a	n/a	-999	8	[7, 4, 2]	13.0	catFR1	1	R1406M
1089.031	3.301	1197779	PROB	3.283	n/a	n/a	n/a	-999	8	[3, 2, 8]	13.0	catFR1	1	R1406M
1092.332	5.983	1201079	PROB	5.966	n/a	n/a	n/a	-999	8	[8, 3, 5]	14.0	catFR1	1	R1406M
1098.315	4.632	1207062	PROB	4.616	n/a	n/a	n/a	-999	8	[3, 3, 4]	10.0	catFR1	1	R1406M
1102.947	0.0	1211687	DISTRACT_END	n/a	n/a	n/a	n/a	-999	8	[0, 0, 0]	n/a	catFR1	1	R1406M
1102.947	2.2	1211694	STOP	n/a	n/a	n/a	n/a	-999	8	[-999, -999, -999]	n/a	catFR1	1	R1406M
1105.147	1.124	1213889	REC_START	n/a	n/a	n/a	n/a	-999	8	[0, 0, 0]	n/a	catFR1	1	R1406M
1106.271	4.583	1215018	REC_WORD	1.124	n/a	SEAGULL	Birds	-999	8	[0, 0, 0]	n/a	catFR1	1	R1406M
1110.854	1.113	1219600	REC_WORD	5.707	n/a	LILAC	Flowers	2	8	[0, 0, 0]	n/a	catFR1	1	R1406M
1111.967	6.587	1220713	REC_WORD	6.82	n/a	LILY	Flowers	1	8	[0, 0, 0]	n/a	catFR1	1	R1406M
1118.554	0.71	1227300	REC_WORD	13.407	n/a	WRENCH	Tools	11	8	[0, 0, 0]	n/a	catFR1	1	R1406M
1119.264	1.063	1228010	REC_WORD	14.117	n/a	SCREWDRIVER	Tools	4	8	[0, 0, 0]	n/a	catFR1	1	R1406M
1120.327	8.747	1229073	REC_WORD	15.18	n/a	HAMMER	Tools	12	8	[0, 0, 0]	n/a	catFR1	1	R1406M
1129.074	6.274	1237819	REC_WORD	23.927	n/a	ROBIN	Birds	-999	8	[0, 0, 0]	n/a	catFR1	1	R1406M
1135.348	12.084	1244099	REC_END	n/a	n/a	n/a	n/a	-999	8	[0, 0, 0]	n/a	catFR1	1	R1406M
1147.432	10.0	1256175	COUNTDOWN_START	n/a	n/a	n/a	n/a	-999	9	[0, 0, 0]	n/a	catFR1	1	R1406M
1157.782	0.0	1266533	COUNTDOWN_END	n/a	n/a	n/a	n/a	-999	9	[0, 0, 0]	n/a	catFR1	1	R1406M
1157.782	2.099	1266533	ENCODING_START	n/a	n/a	n/a	n/a	-999	9	[0, 0, 0]	n/a	catFR1	1	R1406M
1159.881	1.6	1268632	WORD	n/a	wordpools/wordpool_categorized_EN.txt	ISLAND	Landscapes	1	9	[0, 0, 0]	n/a	catFR1	1	R1406M
1161.498	0.933	1270253	WORD_OFF	n/a	n/a	ISLAND	Landscapes	1	9	[0, 0, 0]	n/a	catFR1	1	R1406M
1162.431	1.6	1271169	WORD	n/a	wordpools/wordpool_categorized_EN.txt	OCEAN	Landscapes	2	9	[0, 0, 0]	n/a	catFR1	1	R1406M
1164.048	0.967	1272791	WORD_OFF	n/a	n/a	OCEAN	Landscapes	2	9	[0, 0, 0]	n/a	catFR1	1	R1406M
1165.015	1.6	1273764	WORD	n/a	wordpools/wordpool_categorized_EN.txt	STOVE	Appliances	3	9	[0, 0, 0]	n/a	catFR1	1	R1406M
1166.615	0.968	1275366	WORD_OFF	n/a	n/a	STOVE	Appliances	3	9	[0, 0, 0]	n/a	catFR1	1	R1406M
1167.583	1.6	1276320	WORD	n/a	wordpools/wordpool_categorized_EN.txt	REFRIGERATOR	Appliances	4	9	[0, 0, 0]	n/a	catFR1	1	R1406M
1169.181	0.834	1277922	WORD_OFF	n/a	n/a	REFRIGERATOR	Appliances	4	9	[0, 0, 0]	n/a	catFR1	1	R1406M
1170.015	1.6	1278762	WORD	n/a	wordpools/wordpool_categorized_EN.txt	OYSTER	OceanAnimals	5	9	[0, 0, 0]	n/a	catFR1	1	R1406M
1171.615	0.883	1280364	WORD_OFF	n/a	n/a	OYSTER	OceanAnimals	5	9	[0, 0, 0]	n/a	catFR1	1	R1406M
1172.498	1.6	1281242	WORD	n/a	wordpools/wordpool_categorized_EN.txt	SHRIMP	OceanAnimals	6	9	[0, 0, 0]	n/a	catFR1	1	R1406M
1174.098	0.766	1282844	WORD_OFF	n/a	n/a	SHRIMP	OceanAnimals	6	9	[0, 0, 0]	n/a	catFR1	1	R1406M
1174.864	1.6	1283607	WORD	n/a	wordpools/wordpool_categorized_EN.txt	DRYER	Appliances	7	9	[0, 0, 0]	n/a	catFR1	1	R1406M
1176.464	0.867	1285210	WORD_OFF	n/a	n/a	DRYER	Appliances	7	9	[0, 0, 0]	n/a	catFR1	1	R1406M
1177.331	1.6	1286068	WORD	n/a	wordpools/wordpool_categorized_EN.txt	VACUUM	Appliances	8	9	[0, 0, 0]	n/a	catFR1	1	R1406M
1178.931	0.883	1287671	WORD_OFF	n/a	n/a	VACUUM	Appliances	8	9	[0, 0, 0]	n/a	catFR1	1	R1406M
1179.814	1.6	1288567	WORD	n/a	wordpools/wordpool_categorized_EN.txt	HILLS	Landscapes	9	9	[0, 0, 0]	n/a	catFR1	1	R1406M
1181.414	0.866	1290151	WORD_OFF	n/a	n/a	HILLS	Landscapes	9	9	[0, 0, 0]	n/a	catFR1	1	R1406M
1182.28	1.6	1291028	WORD	n/a	wordpools/wordpool_categorized_EN.txt	STREAM	Landscapes	10	9	[0, 0, 0]	n/a	catFR1	1	R1406M
1183.881	0.833	1292631	WORD_OFF	n/a	n/a	STREAM	Landscapes	10	9	[0, 0, 0]	n/a	catFR1	1	R1406M
1184.714	1.6	1293451	WORD	n/a	wordpools/wordpool_categorized_EN.txt	CRAB	OceanAnimals	11	9	[0, 0, 0]	n/a	catFR1	1	R1406M
1186.314	0.983	1295053	WORD_OFF	n/a	n/a	CRAB	OceanAnimals	11	9	[0, 0, 0]	n/a	catFR1	1	R1406M
1187.297	1.6	1296045	WORD	n/a	wordpools/wordpool_categorized_EN.txt	FISH	OceanAnimals	12	9	[0, 0, 0]	n/a	catFR1	1	R1406M
1188.898	0.001	1297640	PROB	4.9	n/a	n/a	n/a	-999	9	[2, 4, 8]	14.0	catFR1	1	R1406M
1188.899	0.0	1297641	START	n/a	n/a	n/a	n/a	-999	9	[-999, -999, -999]	n/a	catFR1	1	R1406M
1188.897	0.002	1297648	WORD_OFF	n/a	n/a	FISH	OceanAnimals	12	9	[0, 0, 0]	n/a	catFR1	1	R1406M
1188.899	0.0	1297648	ENCODING_END	n/a	n/a	n/a	n/a	-999	9	[0, 0, 0]	n/a	catFR1	1	R1406M
1188.899	4.915	1297648	DISTRACT_START	n/a	n/a	n/a	n/a	-999	9	[0, 0, 0]	n/a	catFR1	1	R1406M
1193.814	4.217	1302556	PROB	4.2	n/a	n/a	n/a	-999	9	[7, 1, 3]	11.0	catFR1	1	R1406M
1198.031	3.118	1306773	PROB	3.101	n/a	n/a	n/a	-999	9	[6, 3, 1]	10.0	catFR1	1	R1406M
1201.149	2.817	1309891	PROB	2.799	n/a	n/a	n/a	-999	9	[2, 3, 3]	8.0	catFR1	1	R1406M
1203.966	5.381	1312707	PROB	5.366	n/a	n/a	n/a	-999	9	[3, 5, 6]	14.0	catFR1	1	R1406M
1209.347	0.0	1318088	STOP	n/a	n/a	n/a	n/a	-999	9	[-999, -999, -999]	n/a	catFR1	1	R1406M
1209.347	2.168	1318098	DISTRACT_END	n/a	n/a	n/a	n/a	-999	9	[0, 0, 0]	n/a	catFR1	1	R1406M
1211.515	0.904	1320262	REC_START	n/a	n/a	n/a	n/a	-999	9	[0, 0, 0]	n/a	catFR1	1	R1406M
1212.419	5.346	1321160	REC_WORD_VV	0.904	n/a	<>	n/a	-999	9	[0, 0, 0]	n/a	catFR1	1	R1406M
1217.765	0.847	1326506	REC_WORD	6.25	n/a	STOVE	Appliances	3	9	[0, 0, 0]	n/a	catFR1	1	R1406M
1218.612	1.993	1327353	REC_WORD	7.097	n/a	REFRIGERATOR	Appliances	4	9	[0, 0, 0]	n/a	catFR1	1	R1406M
1220.605	2.614	1329346	REC_WORD	9.09	n/a	DRYER	Appliances	7	9	[0, 0, 0]	n/a	catFR1	1	R1406M
1223.219	4.946	1331959	REC_WORD	11.704	n/a	WASHER	Appliances	-999	9	[0, 0, 0]	n/a	catFR1	1	R1406M
1228.165	4.314	1336905	REC_WORD_VV	16.65	n/a	<>	n/a	-999	9	[0, 0, 0]	n/a	catFR1	1	R1406M
1232.479	9.231	1341219	REC_WORD	20.964	n/a	SHOVEL	Tools	-999	9	[0, 0, 0]	n/a	catFR1	1	R1406M
1241.71	8.556	1350453	REC_END	n/a	n/a	n/a	n/a	-999	9	[0, 0, 0]	n/a	catFR1	1	R1406M
1250.266	10.0	1359018	COUNTDOWN_START	n/a	n/a	n/a	n/a	-999	10	[0, 0, 0]	n/a	catFR1	1	R1406M
1260.615	0.0	1369358	COUNTDOWN_END	n/a	n/a	n/a	n/a	-999	10	[0, 0, 0]	n/a	catFR1	1	R1406M
1260.615	1.966	1369358	ENCODING_START	n/a	n/a	n/a	n/a	-999	10	[0, 0, 0]	n/a	catFR1	1	R1406M
1262.581	1.6	1371323	WORD	n/a	wordpools/wordpool_categorized_EN.txt	SAW	Tools	1	10	[0, 0, 0]	n/a	catFR1	1	R1406M
1264.181	0.967	1372925	WORD_OFF	n/a	n/a	SAW	Tools	1	10	[0, 0, 0]	n/a	catFR1	1	R1406M
1265.148	1.6	1373879	WORD	n/a	wordpools/wordpool_categorized_EN.txt	RATCHET	Tools	2	10	[0, 0, 0]	n/a	catFR1	1	R1406M
1266.747	0.801	1375482	WORD_OFF	n/a	n/a	RATCHET	Tools	2	10	[0, 0, 0]	n/a	catFR1	1	R1406M
1267.548	1.6	1376283	WORD	n/a	wordpools/wordpool_categorized_EN.txt	DRIZZLE	Weather	3	10	[0, 0, 0]	n/a	catFR1	1	R1406M
1269.147	0.917	1377885	WORD_OFF	n/a	n/a	DRIZZLE	Weather	3	10	[0, 0, 0]	n/a	catFR1	1	R1406M
1270.064	1.6	1378801	WORD	n/a	wordpools/wordpool_categorized_EN.txt	RAIN	Weather	4	10	[0, 0, 0]	n/a	catFR1	1	R1406M
1271.664	0.766	1380403	WORD_OFF	n/a	n/a	RAIN	Weather	4	10	[0, 0, 0]	n/a	catFR1	1	R1406M
1272.43	1.6	1381166	WORD	n/a	wordpools/wordpool_categorized_EN.txt	WHALE	OceanAnimals	5	10	[0, 0, 0]	n/a	catFR1	1	R1406M
1274.03	0.767	1382769	WORD_OFF	n/a	n/a	WHALE	OceanAnimals	5	10	[0, 0, 0]	n/a	catFR1	1	R1406M
1274.797	1.6	1383532	WORD	n/a	wordpools/wordpool_categorized_EN.txt	SQUID	OceanAnimals	6	10	[0, 0, 0]	n/a	catFR1	1	R1406M
1276.398	0.849	1385134	WORD_OFF	n/a	n/a	SQUID	OceanAnimals	6	10	[0, 0, 0]	n/a	catFR1	1	R1406M
1277.247	1.6	1385993	WORD	n/a	wordpools/wordpool_categorized_EN.txt	CROWBAR	Tools	7	10	[0, 0, 0]	n/a	catFR1	1	R1406M
1278.848	0.95	1387595	WORD_OFF	n/a	n/a	CROWBAR	Tools	7	10	[0, 0, 0]	n/a	catFR1	1	R1406M
1279.798	1.6	1388530	WORD	n/a	wordpools/wordpool_categorized_EN.txt	DRILL	Tools	8	10	[0, 0, 0]	n/a	catFR1	1	R1406M
1281.398	0.984	1390133	WORD_OFF	n/a	n/a	DRILL	Tools	8	10	[0, 0, 0]	n/a	catFR1	1	R1406M
1282.382	1.6	1391125	WORD	n/a	wordpools/wordpool_categorized_EN.txt	PLANKTON	OceanAnimals	9	10	[0, 0, 0]	n/a	catFR1	1	R1406M
1283.982	1.0	1392727	WORD_OFF	n/a	n/a	PLANKTON	OceanAnimals	9	10	[0, 0, 0]	n/a	catFR1	1	R1406M
1284.982	1.6	1393719	WORD	n/a	wordpools/wordpool_categorized_EN.txt	LOBSTER	OceanAnimals	10	10	[0, 0, 0]	n/a	catFR1	1	R1406M
1286.597	0.801	1395341	WORD_OFF	n/a	n/a	LOBSTER	OceanAnimals	10	10	[0, 0, 0]	n/a	catFR1	1	R1406M
1287.398	1.6	1396142	WORD	n/a	wordpools/wordpool_categorized_EN.txt	LIGHTNING	Weather	11	10	[0, 0, 0]	n/a	catFR1	1	R1406M
1288.998	0.833	1397744	WORD_OFF	n/a	n/a	LIGHTNING	Weather	11	10	[0, 0, 0]	n/a	catFR1	1	R1406M
1289.831	1.6	1398565	WORD	n/a	wordpools/wordpool_categorized_EN.txt	THUNDERSTORM	Weather	12	10	[0, 0, 0]	n/a	catFR1	1	R1406M
1291.431	0.002	1400167	WORD_OFF	n/a	n/a	THUNDERSTORM	Weather	12	10	[0, 0, 0]	n/a	catFR1	1	R1406M
1291.433	0.0	1400167	ENCODING_END	n/a	n/a	n/a	n/a	-999	10	[0, 0, 0]	n/a	catFR1	1	R1406M
1291.433	0.0	1400167	DISTRACT_START	n/a	n/a	n/a	n/a	-999	10	[0, 0, 0]	n/a	catFR1	1	R1406M
1291.432	0.001	1400169	PROB	5.166	n/a	n/a	n/a	-999	10	[7, 3, 6]	16.0	catFR1	1	R1406M
1291.433	5.182	1400170	START	n/a	n/a	n/a	n/a	-999	10	[-999, -999, -999]	n/a	catFR1	1	R1406M
1296.615	5.801	1405351	PROB	5.783	n/a	n/a	n/a	-999	10	[6, 5, 7]	18.0	catFR1	1	R1406M
1302.416	3.783	1411152	PROB	3.766	n/a	n/a	n/a	-999	10	[7, 7, 1]	15.0	catFR1	1	R1406M
1306.199	5.999	1414935	PROB	5.983	n/a	n/a	n/a	-999	10	[5, 7, 6]	18.0	catFR1	1	R1406M
1312.198	0.0	1420934	STOP	n/a	n/a	n/a	n/a	-999	10	[-999, -999, -999]	n/a	catFR1	1	R1406M
1312.198	2.366	1420942	DISTRACT_END	n/a	n/a	n/a	n/a	-999	10	[0, 0, 0]	n/a	catFR1	1	R1406M
1314.564	4.204	1423296	REC_START	n/a	n/a	n/a	n/a	-999	10	[0, 0, 0]	n/a	catFR1	1	R1406M
1318.768	3.736	1427503	REC_WORD	4.204	n/a	WHALE	OceanAnimals	5	10	[0, 0, 0]	n/a	catFR1	1	R1406M
1322.504	2.554	1431239	REC_WORD	7.94	n/a	DOLPHIN	OceanAnimals	-999	10	[0, 0, 0]	n/a	catFR1	1	R1406M
1325.058	1.959	1433793	REC_WORD	10.494	n/a	RAIN	Weather	4	10	[0, 0, 0]	n/a	catFR1	1	R1406M
1327.017	1.955	1435752	REC_WORD	12.453	n/a	THUNDERSTORM	Weather	12	10	[0, 0, 0]	n/a	catFR1	1	R1406M
1328.972	9.49	1437707	REC_WORD	14.408	n/a	LIGHTNING	Weather	11	10	[0, 0, 0]	n/a	catFR1	1	R1406M
1338.462	6.349	1447196	REC_WORD	23.898	n/a	LOBSTER	OceanAnimals	10	10	[0, 0, 0]	n/a	catFR1	1	R1406M
1344.811	11.62	1453544	REC_END	n/a	n/a	n/a	n/a	-999	10	[0, 0, 0]	n/a	catFR1	1	R1406M
1356.431	10.0	1465162	COUNTDOWN_START	n/a	n/a	n/a	n/a	-999	11	[0, 0, 0]	n/a	catFR1	1	R1406M
1366.783	0.0	1475521	COUNTDOWN_END	n/a	n/a	n/a	n/a	-999	11	[0, 0, 0]	n/a	catFR1	1	R1406M
1366.783	2.132	1475521	ENCODING_START	n/a	n/a	n/a	n/a	-999	11	[0, 0, 0]	n/a	catFR1	1	R1406M
1368.915	1.6	1477657	WORD	n/a	wordpools/wordpool_categorized_EN.txt	TRUMPET	Instruments	1	11	[0, 0, 0]	n/a	catFR1	1	R1406M
1370.531	1.001	1479260	WORD_OFF	n/a	n/a	TRUMPET	Instruments	1	11	[0, 0, 0]	n/a	catFR1	1	R1406M
1371.532	1.6	1480271	WORD	n/a	wordpools/wordpool_categorized_EN.txt	DRUM	Instruments	2	11	[0, 0, 0]	n/a	catFR1	1	R1406M
1373.148	0.85	1481873	WORD_OFF	n/a	n/a	DRUM	Instruments	2	11	[0, 0, 0]	n/a	catFR1	1	R1406M
1373.998	1.6	1482732	WORD	n/a	wordpools/wordpool_categorized_EN.txt	CARNATION	Flowers	3	11	[0, 0, 0]	n/a	catFR1	1	R1406M
1375.598	0.833	1484334	WORD_OFF	n/a	n/a	CARNATION	Flowers	3	11	[0, 0, 0]	n/a	catFR1	1	R1406M
1376.431	1.6	1485174	WORD	n/a	wordpools/wordpool_categorized_EN.txt	MARIGOLD	Flowers	4	11	[0, 0, 0]	n/a	catFR1	1	R1406M
1378.048	0.85	1486776	WORD_OFF	n/a	n/a	MARIGOLD	Flowers	4	11	[0, 0, 0]	n/a	catFR1	1	R1406M
1378.898	1.6	1487635	WORD	n/a	wordpools/wordpool_categorized_EN.txt	CROW	Birds	5	11	[0, 0, 0]	n/a	catFR1	1	R1406M
1380.498	0.917	1489237	WORD_OFF	n/a	n/a	CROW	Birds	5	11	[0, 0, 0]	n/a	catFR1	1	R1406M
1381.415	1.6	1490153	WORD	n/a	wordpools/wordpool_categorized_EN.txt	GOOSE	Birds	6	11	[0, 0, 0]	n/a	catFR1	1	R1406M
1383.015	0.95	1491755	WORD_OFF	n/a	n/a	GOOSE	Birds	6	11	[0, 0, 0]	n/a	catFR1	1	R1406M
1383.965	1.6	1492690	WORD	n/a	wordpools/wordpool_categorized_EN.txt	TULIP	Flowers	7	11	[0, 0, 0]	n/a	catFR1	1	R1406M
1385.565	0.832	1494293	WORD_OFF	n/a	n/a	TULIP	Flowers	7	11	[0, 0, 0]	n/a	catFR1	1	R1406M
1386.397	1.6	1495132	WORD	n/a	wordpools/wordpool_categorized_EN.txt	VIOLET	Flowers	8	11	[0, 0, 0]	n/a	catFR1	1	R1406M
1387.998	0.867	1496734	WORD_OFF	n/a	n/a	VIOLET	Flowers	8	11	[0, 0, 0]	n/a	catFR1	1	R1406M
1388.865	1.6	1497593	WORD	n/a	wordpools/wordpool_categorized_EN.txt	CELLO	Instruments	9	11	[0, 0, 0]	n/a	catFR1	1	R1406M
1390.482	0.765	1499214	WORD_OFF	n/a	n/a	CELLO	Instruments	9	11	[0, 0, 0]	n/a	catFR1	1	R1406M
1391.247	1.6	1499977	WORD	n/a	wordpools/wordpool_categorized_EN.txt	TUBA	Instruments	10	11	[0, 0, 0]	n/a	catFR1	1	R1406M
1392.847	0.918	1501580	WORD_OFF	n/a	n/a	TUBA	Instruments	10	11	[0, 0, 0]	n/a	catFR1	1	R1406M
1393.765	1.6	1502496	WORD	n/a	wordpools/wordpool_categorized_EN.txt	CARDINAL	Birds	11	11	[0, 0, 0]	n/a	catFR1	1	R1406M
1395.365	0.883	1504098	WORD_OFF	n/a	n/a	CARDINAL	Birds	11	11	[0, 0, 0]	n/a	catFR1	1	R1406M
1396.248	1.6	1504976	WORD	n/a	wordpools/wordpool_categorized_EN.txt	DOVE	Birds	12	11	[0, 0, 0]	n/a	catFR1	1	R1406M
1397.848	0.002	1506578	WORD_OFF	n/a	n/a	DOVE	Birds	12	11	[0, 0, 0]	n/a	catFR1	1	R1406M
1397.85	0.0	1506578	ENCODING_END	n/a	n/a	n/a	n/a	-999	11	[0, 0, 0]	n/a	catFR1	1	R1406M
1397.85	0.0	1506578	DISTRACT_START	n/a	n/a	n/a	n/a	-999	11	[0, 0, 0]	n/a	catFR1	1	R1406M
1397.849	0.001	1506580	PROB	4.016	n/a	n/a	n/a	-999	11	[4, 2, 5]	11.0	catFR1	1	R1406M
1397.85	4.031	1506581	START	n/a	n/a	n/a	n/a	-999	11	[-999, -999, -999]	n/a	catFR1	1	R1406M
1401.881	4.434	1510612	PROB	4.417	n/a	n/a	n/a	-999	11	[2, 3, 2]	7.0	catFR1	1	R1406M
1406.315	4.2	1515046	PROB	4.183	n/a	n/a	n/a	-999	11	[8, 4, 4]	16.0	catFR1	1	R1406M
1410.515	4.736	1519245	PROB	4.716	n/a	n/a	n/a	-999	11	[8, 5, 8]	21.0	catFR1	1	R1406M
1415.251	4.73	1523981	PROB	4.715	n/a	n/a	n/a	-999	11	[8, 1, 3]	12.0	catFR1	1	R1406M
1419.981	0.0	1528707	DISTRACT_END	n/a	n/a	n/a	n/a	-999	11	[0, 0, 0]	n/a	catFR1	1	R1406M
1419.981	2.134	1528711	STOP	n/a	n/a	n/a	n/a	-999	11	[-999, -999, -999]	n/a	catFR1	1	R1406M
1422.115	1.134	1530852	REC_START	n/a	n/a	n/a	n/a	-999	11	[0, 0, 0]	n/a	catFR1	1	R1406M
1423.249	4.018	1531979	REC_WORD_VV	1.134	n/a	<>	n/a	-999	11	[0, 0, 0]	n/a	catFR1	1	R1406M
1427.267	9.97	1535996	REC_WORD	5.152	n/a	TULIP	Flowers	7	11	[0, 0, 0]	n/a	catFR1	1	R1406M
1437.237	7.839	1545966	REC_WORD	15.122	n/a	TRUMPET	Instruments	1	11	[0, 0, 0]	n/a	catFR1	1	R1406M
1445.076	1.0	1553804	REC_WORD_VV	22.961	n/a	<>	n/a	-999	11	[0, 0, 0]	n/a	catFR1	1	R1406M
1446.076	1.0	1554804	REC_WORD_VV	23.961	n/a	<>	n/a	-999	11	[0, 0, 0]	n/a	catFR1	1	R1406M
1447.076	1.48	1555804	REC_WORD_VV	24.961	n/a	<>	n/a	-999	11	[0, 0, 0]	n/a	catFR1	1	R1406M
1448.556	3.757	1557284	REC_WORD_VV	26.441	n/a	<>	n/a	-999	11	[0, 0, 0]	n/a	catFR1	1	R1406M
1452.313	8.902	1561043	REC_END	n/a	n/a	n/a	n/a	-999	11	[0, 0, 0]	n/a	catFR1	1	R1406M
1461.215	10.0	1569951	COUNTDOWN_START	n/a	n/a	n/a	n/a	-999	12	[0, 0, 0]	n/a	catFR1	1	R1406M
1471.565	0.001	1580291	COUNTDOWN_END	n/a	n/a	n/a	n/a	-999	12	[0, 0, 0]	n/a	catFR1	1	R1406M
1471.566	2.316	1580291	ENCODING_START	n/a	n/a	n/a	n/a	-999	12	[0, 0, 0]	n/a	catFR1	1	R1406M
1473.882	1.6	1582619	WORD	n/a	wordpools/wordpool_categorized_EN.txt	LEVEL	Tools	1	12	[0, 0, 0]	n/a	catFR1	1	R1406M
1475.482	0.799	1584202	WORD_OFF	n/a	n/a	LEVEL	Tools	1	12	[0, 0, 0]	n/a	catFR1	1	R1406M
1476.281	1.6	1585003	WORD	n/a	wordpools/wordpool_categorized_EN.txt	PLIERS	Tools	2	12	[0, 0, 0]	n/a	catFR1	1	R1406M
1477.882	0.899	1586606	WORD_OFF	n/a	n/a	PLIERS	Tools	2	12	[0, 0, 0]	n/a	catFR1	1	R1406M
1478.781	1.6	1587502	WORD	n/a	wordpools/wordpool_categorized_EN.txt	PIANO	Instruments	3	12	[0, 0, 0]	n/a	catFR1	1	R1406M
1480.382	0.866	1589105	WORD_OFF	n/a	n/a	PIANO	Instruments	3	12	[0, 0, 0]	n/a	catFR1	1	R1406M
1481.248	1.6	1589982	WORD	n/a	wordpools/wordpool_categorized_EN.txt	GUITAR	Instruments	4	12	[0, 0, 0]	n/a	catFR1	1	R1406M
1482.865	0.983	1591585	WORD_OFF	n/a	n/a	GUITAR	Instruments	4	12	[0, 0, 0]	n/a	catFR1	1	R1406M
1483.848	1.6	1592577	WORD	n/a	wordpools/wordpool_categorized_EN.txt	TABLE	Furniture	5	12	[0, 0, 0]	n/a	catFR1	1	R1406M
1485.465	0.883	1594198	WORD_OFF	n/a	n/a	TABLE	Furniture	5	12	[0, 0, 0]	n/a	catFR1	1	R1406M
1486.348	1.6	1595076	WORD	n/a	wordpools/wordpool_categorized_EN.txt	RECLINER	Furniture	6	12	[0, 0, 0]	n/a	catFR1	1	R1406M
1487.965	0.833	1596697	WORD_OFF	n/a	n/a	RECLINER	Furniture	6	12	[0, 0, 0]	n/a	catFR1	1	R1406M
1488.798	1.6	1597518	WORD	n/a	wordpools/wordpool_categorized_EN.txt	SANDER	Tools	7	12	[0, 0, 0]	n/a	catFR1	1	R1406M
1490.398	0.933	1599120	WORD_OFF	n/a	n/a	SANDER	Tools	7	12	[0, 0, 0]	n/a	catFR1	1	R1406M
1491.331	1.6	1600055	WORD	n/a	wordpools/wordpool_categorized_EN.txt	AXE	Tools	8	12	[0, 0, 0]	n/a	catFR1	1	R1406M
1492.947	0.901	1601676	WORD_OFF	n/a	n/a	AXE	Tools	8	12	[0, 0, 0]	n/a	catFR1	1	R1406M
1493.848	1.6	1602573	WORD	n/a	wordpools/wordpool_categorized_EN.txt	CHAIR	Furniture	9	12	[0, 0, 0]	n/a	catFR1	1	R1406M
1495.448	0.783	1604175	WORD_OFF	n/a	n/a	CHAIR	Furniture	9	12	[0, 0, 0]	n/a	catFR1	1	R1406M
1496.231	1.6	1604958	WORD	n/a	wordpools/wordpool_categorized_EN.txt	NIGHTSTAND	Furniture	10	12	[0, 0, 0]	n/a	catFR1	1	R1406M
1497.831	0.867	1606560	WORD_OFF	n/a	n/a	NIGHTSTAND	Furniture	10	12	[0, 0, 0]	n/a	catFR1	1	R1406M
1498.698	1.6	1607419	WORD	n/a	wordpools/wordpool_categorized_EN.txt	TROMBONE	Instruments	11	12	[0, 0, 0]	n/a	catFR1	1	R1406M
1500.298	0.933	1609021	WORD_OFF	n/a	n/a	TROMBONE	Instruments	11	12	[0, 0, 0]	n/a	catFR1	1	R1406M
1501.231	1.6	1609956	WORD	n/a	wordpools/wordpool_categorized_EN.txt	BANJO	Instruments	12	12	[0, 0, 0]	n/a	catFR1	1	R1406M
1502.832	0.0	1611557	PROB	2.699	n/a	n/a	n/a	-999	12	[5, 1, 5]	11.0	catFR1	1	R1406M
1502.831	0.002	1611558	WORD_OFF	n/a	n/a	BANJO	Instruments	12	12	[0, 0, 0]	n/a	catFR1	1	R1406M
1502.833	0.0	1611558	ENCODING_END	n/a	n/a	n/a	n/a	-999	12	[0, 0, 0]	n/a	catFR1	1	R1406M
1502.833	0.0	1611558	DISTRACT_START	n/a	n/a	n/a	n/a	-999	12	[0, 0, 0]	n/a	catFR1	1	R1406M
1502.833	2.716	1611558	START	n/a	n/a	n/a	n/a	-999	12	[-999, -999, -999]	n/a	catFR1	1	R1406M
1505.549	7.149	1614274	PROB	7.132	n/a	n/a	n/a	-999	12	[4, 4, 3]	11.0	catFR1	1	R1406M
1512.698	5.084	1621423	PROB	5.066	n/a	n/a	n/a	-999	12	[7, 2, 8]	17.0	catFR1	1	R1406M
1517.782	3.133	1626507	PROB	3.116	n/a	n/a	n/a	-999	12	[6, 4, 3]	13.0	catFR1	1	R1406M
1520.915	4.432	1629639	PROB	4.416	n/a	n/a	n/a	-999	12	[1, 4, 7]	12.0	catFR1	1	R1406M
1525.347	0.0	1634069	DISTRACT_END	n/a	n/a	n/a	n/a	-999	12	[0, 0, 0]	n/a	catFR1	1	R1406M
1525.347	2.1	1634071	STOP	n/a	n/a	n/a	n/a	-999	12	[-999, -999, -999]	n/a	catFR1	1	R1406M
1527.447	2.602	1636175	REC_START	n/a	n/a	n/a	n/a	-999	12	[0, 0, 0]	n/a	catFR1	1	R1406M
1530.049	4.799	1638773	REC_WORD_VV	2.602	n/a	<>	n/a	-999	12	[0, 0, 0]	n/a	catFR1	1	R1406M
1534.848	9.461	1643572	REC_WORD	7.401	n/a	TROMBONE	Instruments	11	12	[0, 0, 0]	n/a	catFR1	1	R1406M
1544.309	13.34	1653032	REC_WORD	16.862	n/a	TUBA	Instruments	-999	12	[0, 0, 0]	n/a	catFR1	1	R1406M
1557.649	0.0	1666366	REC_END	n/a	n/a	n/a	n/a	-999	12	[0, 0, 0]	n/a	catFR1	1	R1406M
