onset	duration	sample	trial_type	response_time	stim_file	item_name	category	serialpos	list	test	answer	experiment	session	subject
0.0	164.798	134471	INSTRUCT_START	n/a	n/a	n/a	n/a	-999	-999	[0, 0, 0]	n/a	catFR1	0	R1525J
164.798	62.552	299263	INSTRUCT_END	n/a	n/a	n/a	n/a	-999	-999	[0, 0, 0]	n/a	catFR1	0	R1525J
227.35	10.0	361818	COUNTDOWN_START	n/a	n/a	n/a	n/a	-999	-999	[0, 0, 0]	n/a	catFR1	0	R1525J
237.698	0.0	372163	COUNTDOWN_END	n/a	n/a	n/a	n/a	-999	-999	[0, 0, 0]	n/a	catFR1	0	R1525J
237.698	2.085	372163	ENCODING_START	n/a	n/a	n/a	n/a	-999	-1	[0, 0, 0]	n/a	catFR1	0	R1525J
239.783	1.6	374244	WORD	n/a	n/a	FOG	Weather	1	-1	[0, 0, 0]	n/a	catFR1	0	R1525J
241.399	0.917	375863	WORD_OFF	n/a	n/a	FOG	Weather	1	-1	[0, 0, 0]	n/a	catFR1	0	R1525J
242.316	1.6	376780	WORD	n/a	n/a	THUNDERSTORM	Weather	2	-1	[0, 0, 0]	n/a	catFR1	0	R1525J
243.916	0.883	378376	WORD_OFF	n/a	n/a	THUNDERSTORM	Weather	2	-1	[0, 0, 0]	n/a	catFR1	0	R1525J
244.799	1.6	379264	WORD	n/a	n/a	BULL	FarmAnimals	3	-1	[0, 0, 0]	n/a	catFR1	0	R1525J
246.415	0.967	380875	WORD_OFF	n/a	n/a	BULL	FarmAnimals	3	-1	[0, 0, 0]	n/a	catFR1	0	R1525J
247.382	1.6	381845	WORD	n/a	n/a	CALF	FarmAnimals	4	-1	[0, 0, 0]	n/a	catFR1	0	R1525J
248.998	0.985	383463	WORD_OFF	n/a	n/a	CALF	FarmAnimals	4	-1	[0, 0, 0]	n/a	catFR1	0	R1525J
249.983	1.6	384448	WORD	n/a	n/a	SOCKS	Clothing	5	-1	[0, 0, 0]	n/a	catFR1	0	R1525J
251.598	0.766	386059	WORD_OFF	n/a	n/a	SOCKS	Clothing	5	-1	[0, 0, 0]	n/a	catFR1	0	R1525J
252.364	1.6	386827	WORD	n/a	n/a	JEANS	Clothing	6	-1	[0, 0, 0]	n/a	catFR1	0	R1525J
253.966	0.898	388431	WORD_OFF	n/a	n/a	JEANS	Clothing	6	-1	[0, 0, 0]	n/a	catFR1	0	R1525J
254.864	1.6	389326	WORD	n/a	n/a	THUNDER	Weather	7	-1	[0, 0, 0]	n/a	catFR1	0	R1525J
256.465	0.849	390929	WORD_OFF	n/a	n/a	THUNDER	Weather	7	-1	[0, 0, 0]	n/a	catFR1	0	R1525J
257.314	1.6	391780	WORD	n/a	n/a	DRIZZLE	Weather	8	-1	[0, 0, 0]	n/a	catFR1	0	R1525J
258.915	0.9	393376	WORD_OFF	n/a	n/a	DRIZZLE	Weather	8	-1	[0, 0, 0]	n/a	catFR1	0	R1525J
259.815	1.6	394278	WORD	n/a	n/a	GOAT	FarmAnimals	9	-1	[0, 0, 0]	n/a	catFR1	0	R1525J
261.415	0.917	395874	WORD_OFF	n/a	n/a	GOAT	FarmAnimals	9	-1	[0, 0, 0]	n/a	catFR1	0	R1525J
262.332	1.6	396792	WORD	n/a	n/a	LAMB	FarmAnimals	10	-1	[0, 0, 0]	n/a	catFR1	0	R1525J
263.932	0.984	398395	WORD_OFF	n/a	n/a	LAMB	FarmAnimals	10	-1	[0, 0, 0]	n/a	catFR1	0	R1525J
264.916	1.6	399380	WORD	n/a	n/a	BLOUSE	Clothing	11	-1	[0, 0, 0]	n/a	catFR1	0	R1525J
266.533	0.966	400991	WORD_OFF	n/a	n/a	BLOUSE	Clothing	11	-1	[0, 0, 0]	n/a	catFR1	0	R1525J
267.499	1.6	401961	WORD	n/a	n/a	SKIRT	Clothing	12	-1	[0, 0, 0]	n/a	catFR1	0	R1525J
269.098	0.001	403557	WORD_OFF	n/a	n/a	SKIRT	Clothing	12	-1	[0, 0, 0]	n/a	catFR1	0	R1525J
269.099	0.0	403561	START	n/a	n/a	n/a	n/a	-999	-1	[-999, -999, -999]	n/a	catFR1	0	R1525J
269.099	0.0	403561	PROB	10.983	n/a	n/a	n/a	-999	-1	[7, 5, 4]	13.0	catFR1	0	R1525J
269.099	0.0	403564	ENCODING_END	n/a	n/a	n/a	n/a	-999	-1	[0, 0, 0]	n/a	catFR1	0	R1525J
269.099	11.0	403564	DISTRACT_START	n/a	n/a	n/a	n/a	-999	-1	[0, 0, 0]	n/a	catFR1	0	R1525J
280.099	7.699	414560	PROB	7.683	n/a	n/a	n/a	-999	-1	[1, 5, 7]	13.0	catFR1	0	R1525J
287.798	5.934	422259	PROB	5.917	n/a	n/a	n/a	-999	-1	[1, 1, 4]	6.0	catFR1	0	R1525J
293.732	0.0	428193	DISTRACT_END	n/a	n/a	n/a	n/a	-999	-1	[0, 0, 0]	n/a	catFR1	0	R1525J
293.732	1.817	428193	STOP	n/a	n/a	n/a	n/a	-999	-1	[-999, -999, -999]	n/a	catFR1	0	R1525J
295.549	15.161	430013	REC_START	n/a	n/a	n/a	n/a	-999	-1	[0, 0, 0]	n/a	catFR1	0	R1525J
310.71	1.0	445170	REC_WORD_VV	15.161	n/a	<>	n/a	-999	-1	[0, 0, 0]	n/a	catFR1	0	R1525J
311.71	1.687	446170	REC_WORD	16.161	n/a	THUNDER	Weather	7	-1	[0, 0, 0]	n/a	catFR1	0	R1525J
313.397	1.692	447857	REC_WORD	17.848	n/a	THUNDERSTORM	Weather	2	-1	[0, 0, 0]	n/a	catFR1	0	R1525J
315.089	1.87	449549	REC_WORD	19.54	n/a	FOG	Weather	1	-1	[0, 0, 0]	n/a	catFR1	0	R1525J
316.959	1.064	451419	REC_WORD	21.41	n/a	BLOUSE	Clothing	11	-1	[0, 0, 0]	n/a	catFR1	0	R1525J
318.023	1.383	452483	REC_WORD	22.474	n/a	JEANS	Clothing	6	-1	[0, 0, 0]	n/a	catFR1	0	R1525J
319.406	1.0	453866	REC_WORD	23.857	n/a	SOCKS	Clothing	5	-1	[0, 0, 0]	n/a	catFR1	0	R1525J
320.406	0.868	454866	REC_WORD_VV	24.857	n/a	<>	n/a	-999	-1	[0, 0, 0]	n/a	catFR1	0	R1525J
321.274	1.562	455734	REC_WORD	25.725	n/a	BULL	FarmAnimals	3	-1	[0, 0, 0]	n/a	catFR1	0	R1525J
322.836	2.904	457296	REC_WORD	27.287	n/a	GOAT	FarmAnimals	9	-1	[0, 0, 0]	n/a	catFR1	0	R1525J
325.74	162.992	460198	REC_END	n/a	n/a	n/a	n/a	-999	-1	[0, 0, 0]	n/a	catFR1	0	R1525J
488.732	10.0	623192	COUNTDOWN_START	n/a	n/a	n/a	n/a	-999	1	[0, 0, 0]	n/a	catFR1	0	R1525J
499.082	0.0	633537	COUNTDOWN_END	n/a	n/a	n/a	n/a	-999	1	[0, 0, 0]	n/a	catFR1	0	R1525J
499.082	2.2	633537	ENCODING_START	n/a	n/a	n/a	n/a	-999	1	[0, 0, 0]	n/a	catFR1	0	R1525J
501.282	1.6	635737	WORD	n/a	wordpools/wordpool_categorized_EN.txt	STAIRS	Building	1	1	[0, 0, 0]	n/a	catFR1	0	R1525J
502.898	0.984	637348	WORD_OFF	n/a	n/a	STAIRS	Building	1	1	[0, 0, 0]	n/a	catFR1	0	R1525J
503.882	1.6	638333	WORD	n/a	wordpools/wordpool_categorized_EN.txt	ATTIC	Building	2	1	[0, 0, 0]	n/a	catFR1	0	R1525J
505.498	0.9	639951	WORD_OFF	n/a	n/a	ATTIC	Building	2	1	[0, 0, 0]	n/a	catFR1	0	R1525J
506.398	1.6	640854	WORD	n/a	wordpools/wordpool_categorized_EN.txt	BARBIE	Toys	3	1	[0, 0, 0]	n/a	catFR1	0	R1525J
508.015	0.933	642465	WORD_OFF	n/a	n/a	BARBIE	Toys	3	1	[0, 0, 0]	n/a	catFR1	0	R1525J
508.948	1.6	643397	WORD	n/a	wordpools/wordpool_categorized_EN.txt	FRISBEE	Toys	4	1	[0, 0, 0]	n/a	catFR1	0	R1525J
510.566	0.782	645016	WORD_OFF	n/a	n/a	FRISBEE	Toys	4	1	[0, 0, 0]	n/a	catFR1	0	R1525J
511.348	1.6	645799	WORD	n/a	wordpools/wordpool_categorized_EN.txt	PASTRY	Desserts	5	1	[0, 0, 0]	n/a	catFR1	0	R1525J
512.948	0.783	647402	WORD_OFF	n/a	n/a	PASTRY	Desserts	5	1	[0, 0, 0]	n/a	catFR1	0	R1525J
513.731	1.6	648185	WORD	n/a	wordpools/wordpool_categorized_EN.txt	PUDDING	Desserts	6	1	[0, 0, 0]	n/a	catFR1	0	R1525J
515.348	0.851	649796	WORD_OFF	n/a	n/a	PUDDING	Desserts	6	1	[0, 0, 0]	n/a	catFR1	0	R1525J
516.199	1.6	650647	WORD	n/a	wordpools/wordpool_categorized_EN.txt	DOLLHOUSE	Toys	7	1	[0, 0, 0]	n/a	catFR1	0	R1525J
517.814	0.934	652265	WORD_OFF	n/a	n/a	DOLLHOUSE	Toys	7	1	[0, 0, 0]	n/a	catFR1	0	R1525J
518.748	1.6	653198	WORD	n/a	wordpools/wordpool_categorized_EN.txt	DOLL	Toys	8	1	[0, 0, 0]	n/a	catFR1	0	R1525J
520.365	0.999	654816	WORD_OFF	n/a	n/a	DOLL	Toys	8	1	[0, 0, 0]	n/a	catFR1	0	R1525J
521.364	1.6	655816	WORD	n/a	wordpools/wordpool_categorized_EN.txt	WALL	Building	9	1	[0, 0, 0]	n/a	catFR1	0	R1525J
522.965	0.949	657419	WORD_OFF	n/a	n/a	WALL	Building	9	1	[0, 0, 0]	n/a	catFR1	0	R1525J
523.914	1.6	658366	WORD	n/a	wordpools/wordpool_categorized_EN.txt	HALLWAY	Building	10	1	[0, 0, 0]	n/a	catFR1	0	R1525J
525.531	0.934	659985	WORD_OFF	n/a	n/a	HALLWAY	Building	10	1	[0, 0, 0]	n/a	catFR1	0	R1525J
526.465	1.6	660917	WORD	n/a	wordpools/wordpool_categorized_EN.txt	CAKE	Desserts	11	1	[0, 0, 0]	n/a	catFR1	0	R1525J
528.081	0.933	662536	WORD_OFF	n/a	n/a	CAKE	Desserts	11	1	[0, 0, 0]	n/a	catFR1	0	R1525J
529.014	1.6	663468	WORD	n/a	wordpools/wordpool_categorized_EN.txt	CUPCAKE	Desserts	12	1	[0, 0, 0]	n/a	catFR1	0	R1525J
530.614	0.001	665064	WORD_OFF	n/a	n/a	CUPCAKE	Desserts	12	1	[0, 0, 0]	n/a	catFR1	0	R1525J
530.615	0.0	665064	ENCODING_END	n/a	n/a	n/a	n/a	-999	1	[0, 0, 0]	n/a	catFR1	0	R1525J
530.615	0.001	665066	PROB	5.399	n/a	n/a	n/a	-999	1	[5, 3, 8]	16.0	catFR1	0	R1525J
530.616	0.0	665067	START	n/a	n/a	n/a	n/a	-999	1	[-999, -999, -999]	n/a	catFR1	0	R1525J
530.616	5.415	665072	DISTRACT_START	n/a	n/a	n/a	n/a	-999	1	[0, 0, 0]	n/a	catFR1	0	R1525J
536.031	3.951	670482	PROB	3.934	n/a	n/a	n/a	-999	1	[1, 2, 7]	10.0	catFR1	0	R1525J
539.982	3.234	674432	PROB	3.216	n/a	n/a	n/a	-999	1	[1, 2, 4]	7.0	catFR1	0	R1525J
543.216	5.166	677666	PROB	5.149	n/a	n/a	n/a	-999	1	[5, 6, 3]	14.0	catFR1	0	R1525J
548.382	3.533	682832	PROB	3.517	n/a	n/a	n/a	-999	1	[3, 5, 4]	12.0	catFR1	0	R1525J
551.915	0.0	686365	STOP	n/a	n/a	n/a	n/a	-999	1	[-999, -999, -999]	n/a	catFR1	0	R1525J
551.915	1.683	686366	DISTRACT_END	n/a	n/a	n/a	n/a	-999	1	[0, 0, 0]	n/a	catFR1	0	R1525J
553.598	3.348	688052	REC_START	n/a	n/a	n/a	n/a	-999	1	[0, 0, 0]	n/a	catFR1	0	R1525J
556.946	1.264	691396	REC_WORD	3.348	n/a	DOLL	Toys	8	1	[0, 0, 0]	n/a	catFR1	0	R1525J
558.21	1.0	692660	REC_WORD	4.612	n/a	DOLLHOUSE	Toys	7	1	[0, 0, 0]	n/a	catFR1	0	R1525J
559.21	0.739	693660	REC_WORD_VV	5.612	n/a	<>	n/a	-999	1	[0, 0, 0]	n/a	catFR1	0	R1525J
559.949	1.0	694399	REC_WORD	6.351	n/a	STAIRS	Building	1	1	[0, 0, 0]	n/a	catFR1	0	R1525J
560.949	1.039	695399	REC_WORD_VV	7.351	n/a	<>	n/a	-999	1	[0, 0, 0]	n/a	catFR1	0	R1525J
561.988	2.596	696438	REC_WORD	8.39	n/a	ATTIC	Building	2	1	[0, 0, 0]	n/a	catFR1	0	R1525J
564.584	1.0	699033	REC_WORD	10.986	n/a	BARBIE	Toys	3	1	[0, 0, 0]	n/a	catFR1	0	R1525J
565.584	1.06	700033	REC_WORD_VV	11.986	n/a	<>	n/a	-999	1	[0, 0, 0]	n/a	catFR1	0	R1525J
566.644	1.0	701093	REC_WORD	13.046	n/a	PASTRY	Desserts	5	1	[0, 0, 0]	n/a	catFR1	0	R1525J
567.644	0.693	702093	REC_WORD_VV	14.046	n/a	<>	n/a	-999	1	[0, 0, 0]	n/a	catFR1	0	R1525J
568.337	1.0	702786	REC_WORD	14.739	n/a	CUPCAKE	Desserts	12	1	[0, 0, 0]	n/a	catFR1	0	R1525J
569.337	0.77	703786	REC_WORD_VV	15.739	n/a	<>	n/a	-999	1	[0, 0, 0]	n/a	catFR1	0	R1525J
570.107	4.161	704556	REC_WORD	16.509	n/a	CAKE	Desserts	11	1	[0, 0, 0]	n/a	catFR1	0	R1525J
574.268	1.0	708717	REC_WORD_VV	20.67	n/a	<>	n/a	-999	1	[0, 0, 0]	n/a	catFR1	0	R1525J
575.268	1.289	709717	REC_WORD_VV	21.67	n/a	<>	n/a	-999	1	[0, 0, 0]	n/a	catFR1	0	R1525J
576.557	2.342	711006	REC_WORD_VV	22.959	n/a	<>	n/a	-999	1	[0, 0, 0]	n/a	catFR1	0	R1525J
578.899	0.317	713348	REC_WORD_VV	25.301	n/a	<>	n/a	-999	1	[0, 0, 0]	n/a	catFR1	0	R1525J
579.216	2.413	713665	REC_WORD	25.618	n/a	WALL	Building	9	1	[0, 0, 0]	n/a	catFR1	0	R1525J
581.629	1.695	716078	REC_WORD_VV	28.031	n/a	<>	n/a	-999	1	[0, 0, 0]	n/a	catFR1	0	R1525J
583.324	0.451	717773	REC_WORD_VV	29.726	n/a	<>	n/a	-999	1	[0, 0, 0]	n/a	catFR1	0	R1525J
583.775	81.007	718222	REC_END	n/a	n/a	n/a	n/a	-999	1	[0, 0, 0]	n/a	catFR1	0	R1525J
664.782	10.0	799230	COUNTDOWN_START	n/a	n/a	n/a	n/a	-999	1	[0, 0, 0]	n/a	catFR1	0	R1525J
675.131	0.0	809576	COUNTDOWN_END	n/a	n/a	n/a	n/a	-999	1	[0, 0, 0]	n/a	catFR1	0	R1525J
675.131	1.834	809576	ENCODING_START	n/a	n/a	n/a	n/a	-999	2	[0, 0, 0]	n/a	catFR1	0	R1525J
676.965	1.6	811410	WORD	n/a	wordpools/wordpool_categorized_EN.txt	WOODS	Landscapes	1	2	[0, 0, 0]	n/a	catFR1	0	R1525J
678.565	0.816	813007	WORD_OFF	n/a	n/a	WOODS	Landscapes	1	2	[0, 0, 0]	n/a	catFR1	0	R1525J
679.381	1.6	813827	WORD	n/a	wordpools/wordpool_categorized_EN.txt	FOREST	Landscapes	2	2	[0, 0, 0]	n/a	catFR1	0	R1525J
680.981	0.818	815423	WORD_OFF	n/a	n/a	FOREST	Landscapes	2	2	[0, 0, 0]	n/a	catFR1	0	R1525J
681.799	1.6	816244	WORD	n/a	wordpools/wordpool_categorized_EN.txt	CAR	Vehicles	3	2	[0, 0, 0]	n/a	catFR1	0	R1525J
683.415	0.951	817862	WORD_OFF	n/a	n/a	CAR	Vehicles	3	2	[0, 0, 0]	n/a	catFR1	0	R1525J
684.366	1.6	818809	WORD	n/a	wordpools/wordpool_categorized_EN.txt	MOTORCYCLE	Vehicles	4	2	[0, 0, 0]	n/a	catFR1	0	R1525J
685.982	0.8	820428	WORD_OFF	n/a	n/a	MOTORCYCLE	Vehicles	4	2	[0, 0, 0]	n/a	catFR1	0	R1525J
686.782	1.6	821226	WORD	n/a	wordpools/wordpool_categorized_EN.txt	COMPUTER	Electronics	5	2	[0, 0, 0]	n/a	catFR1	0	R1525J
688.382	0.951	822822	WORD_OFF	n/a	n/a	COMPUTER	Electronics	5	2	[0, 0, 0]	n/a	catFR1	0	R1525J
689.333	1.6	823777	WORD	n/a	wordpools/wordpool_categorized_EN.txt	PHONE	Electronics	6	2	[0, 0, 0]	n/a	catFR1	0	R1525J
690.948	0.85	825395	WORD_OFF	n/a	n/a	PHONE	Electronics	6	2	[0, 0, 0]	n/a	catFR1	0	R1525J
691.798	1.6	826246	WORD	n/a	wordpools/wordpool_categorized_EN.txt	STREAM	Landscapes	7	2	[0, 0, 0]	n/a	catFR1	0	R1525J
693.398	0.9	827842	WORD_OFF	n/a	n/a	STREAM	Landscapes	7	2	[0, 0, 0]	n/a	catFR1	0	R1525J
694.298	1.6	828744	WORD	n/a	wordpools/wordpool_categorized_EN.txt	LAKE	Landscapes	8	2	[0, 0, 0]	n/a	catFR1	0	R1525J
695.899	0.766	830340	WORD_OFF	n/a	n/a	LAKE	Landscapes	8	2	[0, 0, 0]	n/a	catFR1	0	R1525J
696.665	1.6	831109	WORD	n/a	wordpools/wordpool_categorized_EN.txt	PLANE	Vehicles	9	2	[0, 0, 0]	n/a	catFR1	0	R1525J
698.265	0.817	832712	WORD_OFF	n/a	n/a	PLANE	Vehicles	9	2	[0, 0, 0]	n/a	catFR1	0	R1525J
699.082	1.6	833525	WORD	n/a	wordpools/wordpool_categorized_EN.txt	SCOOTER	Vehicles	10	2	[0, 0, 0]	n/a	catFR1	0	R1525J
700.682	0.816	835129	WORD_OFF	n/a	n/a	SCOOTER	Vehicles	10	2	[0, 0, 0]	n/a	catFR1	0	R1525J
701.498	1.6	835942	WORD	n/a	wordpools/wordpool_categorized_EN.txt	TELEVISION	Electronics	11	2	[0, 0, 0]	n/a	catFR1	0	R1525J
703.098	0.767	837538	WORD_OFF	n/a	n/a	TELEVISION	Electronics	11	2	[0, 0, 0]	n/a	catFR1	0	R1525J
703.865	1.6	838306	WORD	n/a	wordpools/wordpool_categorized_EN.txt	STEREO	Electronics	12	2	[0, 0, 0]	n/a	catFR1	0	R1525J
705.465	0.0	839909	PROB	4.317	n/a	n/a	n/a	-999	2	[7, 2, 2]	11.0	catFR1	0	R1525J
705.465	0.001	839910	WORD_OFF	n/a	n/a	STEREO	Electronics	12	2	[0, 0, 0]	n/a	catFR1	0	R1525J
705.466	0.0	839910	ENCODING_END	n/a	n/a	n/a	n/a	-999	2	[0, 0, 0]	n/a	catFR1	0	R1525J
705.466	0.0	839910	DISTRACT_START	n/a	n/a	n/a	n/a	-999	2	[0, 0, 0]	n/a	catFR1	0	R1525J
705.466	4.332	839910	START	n/a	n/a	n/a	n/a	-999	2	[-999, -999, -999]	n/a	catFR1	0	R1525J
709.798	3.417	844241	PROB	3.4	n/a	n/a	n/a	-999	2	[2, 2, 5]	9.0	catFR1	0	R1525J
713.215	6.684	847658	PROB	6.666	n/a	n/a	n/a	-999	2	[7, 3, 8]	18.0	catFR1	0	R1525J
719.899	3.667	854342	PROB	3.649	n/a	n/a	n/a	-999	2	[3, 3, 2]	8.0	catFR1	0	R1525J
723.566	10.333	858009	PROB	10.318	n/a	n/a	n/a	-999	2	[6, 8, 7]	21.0	catFR1	0	R1525J
733.899	0.0	868341	STOP	n/a	n/a	n/a	n/a	-999	2	[-999, -999, -999]	n/a	catFR1	0	R1525J
733.899	1.815	868342	DISTRACT_END	n/a	n/a	n/a	n/a	-999	2	[0, 0, 0]	n/a	catFR1	0	R1525J
735.714	1.678	870155	REC_START	n/a	n/a	n/a	n/a	-999	2	[0, 0, 0]	n/a	catFR1	0	R1525J
737.392	1.0	871834	REC_WORD	1.678	n/a	FOREST	Landscapes	2	2	[0, 0, 0]	n/a	catFR1	0	R1525J
738.392	0.866	872834	REC_WORD_VV	2.678	n/a	<>	n/a	-999	2	[0, 0, 0]	n/a	catFR1	0	R1525J
739.258	1.0	873700	REC_WORD	3.544	n/a	WOODS	Landscapes	1	2	[0, 0, 0]	n/a	catFR1	0	R1525J
740.258	0.613	874700	REC_WORD_VV	4.544	n/a	<>	n/a	-999	2	[0, 0, 0]	n/a	catFR1	0	R1525J
740.871	1.0	875313	REC_WORD	5.157	n/a	MOTORCYCLE	Vehicles	4	2	[0, 0, 0]	n/a	catFR1	0	R1525J
741.871	1.518	876313	REC_WORD_VV	6.157	n/a	<>	n/a	-999	2	[0, 0, 0]	n/a	catFR1	0	R1525J
743.389	2.104	877831	REC_WORD	7.675	n/a	COMPUTER	Electronics	5	2	[0, 0, 0]	n/a	catFR1	0	R1525J
745.493	1.0	879935	REC_WORD	9.779	n/a	TELEVISION	Electronics	11	2	[0, 0, 0]	n/a	catFR1	0	R1525J
746.493	2.403	880935	REC_WORD_VV	10.779	n/a	<>	n/a	-999	2	[0, 0, 0]	n/a	catFR1	0	R1525J
748.896	1.0	883338	REC_WORD_VV	13.182	n/a	<>	n/a	-999	2	[0, 0, 0]	n/a	catFR1	0	R1525J
749.896	1.0	884338	REC_WORD_VV	14.182	n/a	<>	n/a	-999	2	[0, 0, 0]	n/a	catFR1	0	R1525J
750.896	0.903	885338	REC_WORD_VV	15.182	n/a	<>	n/a	-999	2	[0, 0, 0]	n/a	catFR1	0	R1525J
751.799	1.321	886241	REC_WORD	16.085	n/a	LAKE	Landscapes	8	2	[0, 0, 0]	n/a	catFR1	0	R1525J
753.12	1.0	887562	REC_WORD	17.406	n/a	STREAM	Landscapes	7	2	[0, 0, 0]	n/a	catFR1	0	R1525J
754.12	2.132	888562	REC_WORD_VV	18.406	n/a	<>	n/a	-999	2	[0, 0, 0]	n/a	catFR1	0	R1525J
756.252	4.101	890693	REC_WORD_VV	20.538	n/a	<>	n/a	-999	2	[0, 0, 0]	n/a	catFR1	0	R1525J
760.353	4.001	894794	REC_WORD_VV	24.639	n/a	<>	n/a	-999	2	[0, 0, 0]	n/a	catFR1	0	R1525J
764.354	1.0	898795	REC_WORD_VV	28.64	n/a	<>	n/a	-999	2	[0, 0, 0]	n/a	catFR1	0	R1525J
765.354	0.557	899795	REC_WORD_VV	29.64	n/a	<>	n/a	-999	2	[0, 0, 0]	n/a	catFR1	0	R1525J
765.911	9.554	900355	REC_END	n/a	n/a	n/a	n/a	-999	2	[0, 0, 0]	n/a	catFR1	0	R1525J
775.465	10.0	909909	COUNTDOWN_START	n/a	n/a	n/a	n/a	-999	2	[0, 0, 0]	n/a	catFR1	0	R1525J
785.815	0.0	920254	COUNTDOWN_END	n/a	n/a	n/a	n/a	-999	2	[0, 0, 0]	n/a	catFR1	0	R1525J
785.815	2.333	920254	ENCODING_START	n/a	n/a	n/a	n/a	-999	3	[0, 0, 0]	n/a	catFR1	0	R1525J
788.148	1.6	922589	WORD	n/a	wordpools/wordpool_categorized_EN.txt	OCTOPUS	OceanAnimals	1	3	[0, 0, 0]	n/a	catFR1	0	R1525J
789.749	0.983	924192	WORD_OFF	n/a	n/a	OCTOPUS	OceanAnimals	1	3	[0, 0, 0]	n/a	catFR1	0	R1525J
790.732	1.6	925170	WORD	n/a	wordpools/wordpool_categorized_EN.txt	JELLYFISH	OceanAnimals	2	3	[0, 0, 0]	n/a	catFR1	0	R1525J
792.333	0.782	926773	WORD_OFF	n/a	n/a	JELLYFISH	OceanAnimals	2	3	[0, 0, 0]	n/a	catFR1	0	R1525J
793.115	1.6	927556	WORD	n/a	wordpools/wordpool_categorized_EN.txt	ROSE	Flowers	3	3	[0, 0, 0]	n/a	catFR1	0	R1525J
794.715	0.917	929152	WORD_OFF	n/a	n/a	ROSE	Flowers	3	3	[0, 0, 0]	n/a	catFR1	0	R1525J
795.632	1.6	930077	WORD	n/a	wordpools/wordpool_categorized_EN.txt	DAFFODIL	Flowers	4	3	[0, 0, 0]	n/a	catFR1	0	R1525J
797.248	0.916	931688	WORD_OFF	n/a	n/a	DAFFODIL	Flowers	4	3	[0, 0, 0]	n/a	catFR1	0	R1525J
798.164	1.6	932606	WORD	n/a	wordpools/wordpool_categorized_EN.txt	MOUSSE	Desserts	5	3	[0, 0, 0]	n/a	catFR1	0	R1525J
799.765	0.883	934202	WORD_OFF	n/a	n/a	MOUSSE	Desserts	5	3	[0, 0, 0]	n/a	catFR1	0	R1525J
800.648	1.6	935090	WORD	n/a	wordpools/wordpool_categorized_EN.txt	BROWNIES	Desserts	6	3	[0, 0, 0]	n/a	catFR1	0	R1525J
802.264	0.834	936701	WORD_OFF	n/a	n/a	BROWNIES	Desserts	6	3	[0, 0, 0]	n/a	catFR1	0	R1525J
803.098	1.6	937536	WORD	n/a	wordpools/wordpool_categorized_EN.txt	LILAC	Flowers	7	3	[0, 0, 0]	n/a	catFR1	0	R1525J
804.698	0.883	939140	WORD_OFF	n/a	n/a	LILAC	Flowers	7	3	[0, 0, 0]	n/a	catFR1	0	R1525J
805.581	1.6	940020	WORD	n/a	wordpools/wordpool_categorized_EN.txt	TULIP	Flowers	8	3	[0, 0, 0]	n/a	catFR1	0	R1525J
807.181	0.884	941623	WORD_OFF	n/a	n/a	TULIP	Flowers	8	3	[0, 0, 0]	n/a	catFR1	0	R1525J
808.065	1.6	942503	WORD	n/a	wordpools/wordpool_categorized_EN.txt	COBBLER	Desserts	9	3	[0, 0, 0]	n/a	catFR1	0	R1525J
809.665	0.783	944107	WORD_OFF	n/a	n/a	COBBLER	Desserts	9	3	[0, 0, 0]	n/a	catFR1	0	R1525J
810.448	1.6	944890	WORD	n/a	wordpools/wordpool_categorized_EN.txt	PIE	Desserts	10	3	[0, 0, 0]	n/a	catFR1	0	R1525J
812.066	0.931	946501	WORD_OFF	n/a	n/a	PIE	Desserts	10	3	[0, 0, 0]	n/a	catFR1	0	R1525J
812.997	1.6	947434	WORD	n/a	wordpools/wordpool_categorized_EN.txt	LOBSTER	OceanAnimals	11	3	[0, 0, 0]	n/a	catFR1	0	R1525J
814.598	0.967	949037	WORD_OFF	n/a	n/a	LOBSTER	OceanAnimals	11	3	[0, 0, 0]	n/a	catFR1	0	R1525J
815.565	1.6	950007	WORD	n/a	wordpools/wordpool_categorized_EN.txt	CRAB	OceanAnimals	12	3	[0, 0, 0]	n/a	catFR1	0	R1525J
817.181	0.001	951618	WORD_OFF	n/a	n/a	CRAB	OceanAnimals	12	3	[0, 0, 0]	n/a	catFR1	0	R1525J
817.182	0.0	951621	START	n/a	n/a	n/a	n/a	-999	3	[-999, -999, -999]	n/a	catFR1	0	R1525J
817.182	0.0	951621	PROB	5.299	n/a	n/a	n/a	-999	3	[8, 5, 1]	14.0	catFR1	0	R1525J
817.182	0.0	951625	ENCODING_END	n/a	n/a	n/a	n/a	-999	3	[0, 0, 0]	n/a	catFR1	0	R1525J
817.182	5.316	951625	DISTRACT_START	n/a	n/a	n/a	n/a	-999	3	[0, 0, 0]	n/a	catFR1	0	R1525J
822.498	5.8	956937	PROB	5.783	n/a	n/a	n/a	-999	3	[7, 8, 5]	20.0	catFR1	0	R1525J
828.298	3.534	962737	PROB	3.517	n/a	n/a	n/a	-999	3	[7, 7, 2]	16.0	catFR1	0	R1525J
831.832	4.316	966270	PROB	4.3	n/a	n/a	n/a	-999	3	[5, 2, 6]	13.0	catFR1	0	R1525J
836.148	3.1	970586	PROB	3.083	n/a	n/a	n/a	-999	3	[2, 1, 8]	11.0	catFR1	0	R1525J
839.248	0.0	973686	STOP	n/a	n/a	n/a	n/a	-999	3	[-999, -999, -999]	n/a	catFR1	0	R1525J
839.248	1.551	973688	DISTRACT_END	n/a	n/a	n/a	n/a	-999	3	[0, 0, 0]	n/a	catFR1	0	R1525J
840.799	1.355	975239	REC_START	n/a	n/a	n/a	n/a	-999	3	[0, 0, 0]	n/a	catFR1	0	R1525J
842.154	1.0	976592	REC_WORD	1.355	n/a	JELLYFISH	OceanAnimals	2	3	[0, 0, 0]	n/a	catFR1	0	R1525J
843.154	0.532	977592	REC_WORD_VV	2.355	n/a	<>	n/a	-999	3	[0, 0, 0]	n/a	catFR1	0	R1525J
843.686	1.0	978124	REC_WORD	2.887	n/a	OCTOPUS	OceanAnimals	1	3	[0, 0, 0]	n/a	catFR1	0	R1525J
844.686	1.937	979124	REC_WORD_VV	3.887	n/a	<>	n/a	-999	3	[0, 0, 0]	n/a	catFR1	0	R1525J
846.623	1.0	981061	REC_WORD	5.824	n/a	MOUSSE	Desserts	5	3	[0, 0, 0]	n/a	catFR1	0	R1525J
847.623	0.625	982061	REC_WORD_VV	6.824	n/a	<>	n/a	-999	3	[0, 0, 0]	n/a	catFR1	0	R1525J
848.248	1.204	982686	REC_WORD	7.449	n/a	CRAB	OceanAnimals	12	3	[0, 0, 0]	n/a	catFR1	0	R1525J
849.452	1.0	983890	REC_WORD	8.653	n/a	LOBSTER	OceanAnimals	11	3	[0, 0, 0]	n/a	catFR1	0	R1525J
850.452	2.499	984890	REC_WORD_VV	9.653	n/a	<>	n/a	-999	3	[0, 0, 0]	n/a	catFR1	0	R1525J
852.951	1.0	987388	REC_WORD_VV	12.152	n/a	<>	n/a	-999	3	[0, 0, 0]	n/a	catFR1	0	R1525J
853.951	1.0	988388	REC_WORD_VV	13.152	n/a	<>	n/a	-999	3	[0, 0, 0]	n/a	catFR1	0	R1525J
854.951	3.01	989388	REC_WORD_VV	14.152	n/a	<>	n/a	-999	3	[0, 0, 0]	n/a	catFR1	0	R1525J
857.961	1.0	992398	REC_WORD_VV	17.162	n/a	<>	n/a	-999	3	[0, 0, 0]	n/a	catFR1	0	R1525J
858.961	1.0	993398	REC_WORD_VV	18.162	n/a	<>	n/a	-999	3	[0, 0, 0]	n/a	catFR1	0	R1525J
859.961	1.0	994398	REC_WORD_VV	19.162	n/a	<>	n/a	-999	3	[0, 0, 0]	n/a	catFR1	0	R1525J
860.961	2.025	995398	REC_WORD_VV	20.162	n/a	<>	n/a	-999	3	[0, 0, 0]	n/a	catFR1	0	R1525J
862.986	2.32	997423	REC_WORD	22.187	n/a	COBBLER	Desserts	9	3	[0, 0, 0]	n/a	catFR1	0	R1525J
865.306	2.784	999743	REC_WORD_VV	24.507	n/a	<>	n/a	-999	3	[0, 0, 0]	n/a	catFR1	0	R1525J
868.09	2.925	1002527	REC_WORD_VV	27.291	n/a	<>	n/a	-999	3	[0, 0, 0]	n/a	catFR1	0	R1525J
871.015	4.202	1005454	REC_END	n/a	n/a	n/a	n/a	-999	3	[0, 0, 0]	n/a	catFR1	0	R1525J
875.217	10.0	1009654	COUNTDOWN_START	n/a	n/a	n/a	n/a	-999	3	[0, 0, 0]	n/a	catFR1	0	R1525J
885.567	0.0	1020006	COUNTDOWN_END	n/a	n/a	n/a	n/a	-999	3	[0, 0, 0]	n/a	catFR1	0	R1525J
885.567	2.2	1020006	ENCODING_START	n/a	n/a	n/a	n/a	-999	4	[0, 0, 0]	n/a	catFR1	0	R1525J
887.767	1.6	1022199	WORD	n/a	wordpools/wordpool_categorized_EN.txt	PIANO	Instruments	1	4	[0, 0, 0]	n/a	catFR1	0	R1525J
889.366	0.884	1023803	WORD_OFF	n/a	n/a	PIANO	Instruments	1	4	[0, 0, 0]	n/a	catFR1	0	R1525J
890.25	1.6	1024683	WORD	n/a	wordpools/wordpool_categorized_EN.txt	TUBA	Instruments	2	4	[0, 0, 0]	n/a	catFR1	0	R1525J
891.85	1.0	1026286	WORD_OFF	n/a	n/a	TUBA	Instruments	2	4	[0, 0, 0]	n/a	catFR1	0	R1525J
892.85	1.6	1027286	WORD	n/a	wordpools/wordpool_categorized_EN.txt	VAN	Vehicles	3	4	[0, 0, 0]	n/a	catFR1	0	R1525J
894.45	0.931	1028889	WORD_OFF	n/a	n/a	VAN	Vehicles	3	4	[0, 0, 0]	n/a	catFR1	0	R1525J
895.381	1.6	1029814	WORD	n/a	wordpools/wordpool_categorized_EN.txt	TRUCK	Vehicles	4	4	[0, 0, 0]	n/a	catFR1	0	R1525J
896.983	0.916	1031418	WORD_OFF	n/a	n/a	TRUCK	Vehicles	4	4	[0, 0, 0]	n/a	catFR1	0	R1525J
897.899	1.6	1032335	WORD	n/a	wordpools/wordpool_categorized_EN.txt	BEE	Insects	5	4	[0, 0, 0]	n/a	catFR1	0	R1525J
899.5	0.95	1033939	WORD_OFF	n/a	n/a	BEE	Insects	5	4	[0, 0, 0]	n/a	catFR1	0	R1525J
900.45	1.6	1034886	WORD	n/a	wordpools/wordpool_categorized_EN.txt	SPIDER	Insects	6	4	[0, 0, 0]	n/a	catFR1	0	R1525J
902.066	0.984	1036505	WORD_OFF	n/a	n/a	SPIDER	Insects	6	4	[0, 0, 0]	n/a	catFR1	0	R1525J
903.05	1.6	1037482	WORD	n/a	wordpools/wordpool_categorized_EN.txt	JEEP	Vehicles	7	4	[0, 0, 0]	n/a	catFR1	0	R1525J
904.667	0.883	1039100	WORD_OFF	n/a	n/a	JEEP	Vehicles	7	4	[0, 0, 0]	n/a	catFR1	0	R1525J
905.55	1.6	1039988	WORD	n/a	wordpools/wordpool_categorized_EN.txt	BUS	Vehicles	8	4	[0, 0, 0]	n/a	catFR1	0	R1525J
907.165	0.8	1041599	WORD_OFF	n/a	n/a	BUS	Vehicles	8	4	[0, 0, 0]	n/a	catFR1	0	R1525J
907.965	1.6	1042397	WORD	n/a	wordpools/wordpool_categorized_EN.txt	GNAT	Insects	9	4	[0, 0, 0]	n/a	catFR1	0	R1525J
909.567	0.998	1044001	WORD_OFF	n/a	n/a	GNAT	Insects	9	4	[0, 0, 0]	n/a	catFR1	0	R1525J
910.565	1.6	1045000	WORD	n/a	wordpools/wordpool_categorized_EN.txt	CRICKET	Insects	10	4	[0, 0, 0]	n/a	catFR1	0	R1525J
912.166	0.783	1046604	WORD_OFF	n/a	n/a	CRICKET	Insects	10	4	[0, 0, 0]	n/a	catFR1	0	R1525J
912.949	1.6	1047387	WORD	n/a	wordpools/wordpool_categorized_EN.txt	FLUTE	Instruments	11	4	[0, 0, 0]	n/a	catFR1	0	R1525J
914.549	0.933	1048983	WORD_OFF	n/a	n/a	FLUTE	Instruments	11	4	[0, 0, 0]	n/a	catFR1	0	R1525J
915.482	1.6	1049915	WORD	n/a	wordpools/wordpool_categorized_EN.txt	TRUMPET	Instruments	12	4	[0, 0, 0]	n/a	catFR1	0	R1525J
917.099	0.001	1051534	WORD_OFF	n/a	n/a	TRUMPET	Instruments	12	4	[0, 0, 0]	n/a	catFR1	0	R1525J
917.1	0.0	1051534	ENCODING_END	n/a	n/a	n/a	n/a	-999	4	[0, 0, 0]	n/a	catFR1	0	R1525J
917.1	0.0	1051534	DISTRACT_START	n/a	n/a	n/a	n/a	-999	4	[0, 0, 0]	n/a	catFR1	0	R1525J
917.1	0.0	1051535	START	n/a	n/a	n/a	n/a	-999	4	[-999, -999, -999]	n/a	catFR1	0	R1525J
917.1	3.984	1051535	PROB	3.965	n/a	n/a	n/a	-999	4	[3, 4, 1]	8.0	catFR1	0	R1525J
921.084	5.665	1055519	PROB	5.649	n/a	n/a	n/a	-999	4	[6, 5, 2]	13.0	catFR1	0	R1525J
926.749	4.017	1061183	PROB	3.999	n/a	n/a	n/a	-999	4	[2, 2, 4]	8.0	catFR1	0	R1525J
930.766	3.565	1065200	PROB	3.549	n/a	n/a	n/a	-999	4	[1, 8, 1]	10.0	catFR1	0	R1525J
934.331	5.201	1068765	PROB	5.184	n/a	n/a	n/a	-999	4	[3, 7, 7]	17.0	catFR1	0	R1525J
939.532	0.0	1073966	STOP	n/a	n/a	n/a	n/a	-999	4	[-999, -999, -999]	n/a	catFR1	0	R1525J
939.532	1.85	1073970	DISTRACT_END	n/a	n/a	n/a	n/a	-999	4	[0, 0, 0]	n/a	catFR1	0	R1525J
941.382	2.446	1075819	REC_START	n/a	n/a	n/a	n/a	-999	4	[0, 0, 0]	n/a	catFR1	0	R1525J
943.828	1.504	1078262	REC_WORD	2.446	n/a	PIANO	Instruments	1	4	[0, 0, 0]	n/a	catFR1	0	R1525J
945.332	2.561	1079766	REC_WORD	3.95	n/a	TUBA	Instruments	2	4	[0, 0, 0]	n/a	catFR1	0	R1525J
947.893	1.337	1082327	REC_WORD	6.511	n/a	GNAT	Insects	9	4	[0, 0, 0]	n/a	catFR1	0	R1525J
949.23	2.068	1083663	REC_WORD	7.848	n/a	CRICKET	Insects	10	4	[0, 0, 0]	n/a	catFR1	0	R1525J
951.298	1.0	1085731	REC_WORD	9.916	n/a	VAN	Vehicles	3	4	[0, 0, 0]	n/a	catFR1	0	R1525J
952.298	1.115	1086731	REC_WORD_VV	10.916	n/a	<>	n/a	-999	4	[0, 0, 0]	n/a	catFR1	0	R1525J
953.413	2.853	1087846	REC_WORD_VV	12.031	n/a	<>	n/a	-999	4	[0, 0, 0]	n/a	catFR1	0	R1525J
956.266	1.94	1090699	REC_WORD_VV	14.884	n/a	<>	n/a	-999	4	[0, 0, 0]	n/a	catFR1	0	R1525J
958.206	1.0	1092639	REC_WORD_VV	16.824	n/a	<>	n/a	-999	4	[0, 0, 0]	n/a	catFR1	0	R1525J
959.206	0.229	1093639	REC_WORD_VV	17.824	n/a	<>	n/a	-999	4	[0, 0, 0]	n/a	catFR1	0	R1525J
959.435	1.0	1093868	REC_WORD	18.053	n/a	FLUTE	Instruments	11	4	[0, 0, 0]	n/a	catFR1	0	R1525J
960.435	0.497	1094868	REC_WORD_VV	19.053	n/a	<>	n/a	-999	4	[0, 0, 0]	n/a	catFR1	0	R1525J
960.932	1.433	1095365	REC_WORD	19.55	n/a	FLUTE	Instruments	11	4	[0, 0, 0]	n/a	catFR1	0	R1525J
962.365	3.753	1096798	REC_WORD_VV	20.983	n/a	<>	n/a	-999	4	[0, 0, 0]	n/a	catFR1	0	R1525J
966.118	1.038	1100551	REC_WORD_VV	24.736	n/a	<>	n/a	-999	4	[0, 0, 0]	n/a	catFR1	0	R1525J
967.156	2.405	1101589	REC_WORD	25.774	n/a	TUBA	Instruments	2	4	[0, 0, 0]	n/a	catFR1	0	R1525J
969.561	1.0	1103994	REC_WORD_VV	28.179	n/a	<>	n/a	-999	4	[0, 0, 0]	n/a	catFR1	0	R1525J
970.561	1.036	1104994	REC_WORD_VV	29.179	n/a	<>	n/a	-999	4	[0, 0, 0]	n/a	catFR1	0	R1525J
971.597	8.803	1106027	REC_END	n/a	n/a	n/a	n/a	-999	4	[0, 0, 0]	n/a	catFR1	0	R1525J
980.4	10.0	1114835	COUNTDOWN_START	n/a	n/a	n/a	n/a	-999	4	[0, 0, 0]	n/a	catFR1	0	R1525J
990.748	0.0	1125181	COUNTDOWN_END	n/a	n/a	n/a	n/a	-999	4	[0, 0, 0]	n/a	catFR1	0	R1525J
990.748	1.951	1125181	ENCODING_START	n/a	n/a	n/a	n/a	-999	5	[0, 0, 0]	n/a	catFR1	0	R1525J
992.699	1.6	1127127	WORD	n/a	wordpools/wordpool_categorized_EN.txt	GIRAFFE	Zoo	1	5	[0, 0, 0]	n/a	catFR1	0	R1525J
994.299	0.767	1128731	WORD_OFF	n/a	n/a	GIRAFFE	Zoo	1	5	[0, 0, 0]	n/a	catFR1	0	R1525J
995.066	1.6	1129499	WORD	n/a	wordpools/wordpool_categorized_EN.txt	MONKEY	Zoo	2	5	[0, 0, 0]	n/a	catFR1	0	R1525J
996.666	0.816	1131095	WORD_OFF	n/a	n/a	MONKEY	Zoo	2	5	[0, 0, 0]	n/a	catFR1	0	R1525J
997.482	1.6	1131916	WORD	n/a	wordpools/wordpool_categorized_EN.txt	SATIN	Fabric	3	5	[0, 0, 0]	n/a	catFR1	0	R1525J
999.083	0.8	1133512	WORD_OFF	n/a	n/a	SATIN	Fabric	3	5	[0, 0, 0]	n/a	catFR1	0	R1525J
999.883	1.6	1134317	WORD	n/a	wordpools/wordpool_categorized_EN.txt	DENIM	Fabric	4	5	[0, 0, 0]	n/a	catFR1	0	R1525J
1001.483	0.915	1135914	WORD_OFF	n/a	n/a	DENIM	Fabric	4	5	[0, 0, 0]	n/a	catFR1	0	R1525J
1002.398	1.6	1136831	WORD	n/a	wordpools/wordpool_categorized_EN.txt	VIOLIN	Instruments	5	5	[0, 0, 0]	n/a	catFR1	0	R1525J
1004.015	0.767	1138449	WORD_OFF	n/a	n/a	VIOLIN	Instruments	5	5	[0, 0, 0]	n/a	catFR1	0	R1525J
1004.782	1.6	1139210	WORD	n/a	wordpools/wordpool_categorized_EN.txt	TROMBONE	Instruments	6	5	[0, 0, 0]	n/a	catFR1	0	R1525J
1006.382	0.767	1140814	WORD_OFF	n/a	n/a	TROMBONE	Instruments	6	5	[0, 0, 0]	n/a	catFR1	0	R1525J
1007.149	1.6	1141582	WORD	n/a	wordpools/wordpool_categorized_EN.txt	ZEBRA	Zoo	7	5	[0, 0, 0]	n/a	catFR1	0	R1525J
1008.75	0.832	1143178	WORD_OFF	n/a	n/a	ZEBRA	Zoo	7	5	[0, 0, 0]	n/a	catFR1	0	R1525J
1009.582	1.6	1144014	WORD	n/a	wordpools/wordpool_categorized_EN.txt	ORANGUTAN	Zoo	8	5	[0, 0, 0]	n/a	catFR1	0	R1525J
1011.183	0.881	1145617	WORD_OFF	n/a	n/a	ORANGUTAN	Zoo	8	5	[0, 0, 0]	n/a	catFR1	0	R1525J
1012.064	1.6	1146497	WORD	n/a	wordpools/wordpool_categorized_EN.txt	GUITAR	Instruments	9	5	[0, 0, 0]	n/a	catFR1	0	R1525J
1013.666	0.867	1148093	WORD_OFF	n/a	n/a	GUITAR	Instruments	9	5	[0, 0, 0]	n/a	catFR1	0	R1525J
1014.533	1.6	1148966	WORD	n/a	wordpools/wordpool_categorized_EN.txt	DRUM	Instruments	10	5	[0, 0, 0]	n/a	catFR1	0	R1525J
1016.133	0.95	1150562	WORD_OFF	n/a	n/a	DRUM	Instruments	10	5	[0, 0, 0]	n/a	catFR1	0	R1525J
1017.083	1.6	1151517	WORD	n/a	wordpools/wordpool_categorized_EN.txt	NYLON	Fabric	11	5	[0, 0, 0]	n/a	catFR1	0	R1525J
1018.699	0.783	1153128	WORD_OFF	n/a	n/a	NYLON	Fabric	11	5	[0, 0, 0]	n/a	catFR1	0	R1525J
1019.482	1.6	1153911	WORD	n/a	wordpools/wordpool_categorized_EN.txt	VELVET	Fabric	12	5	[0, 0, 0]	n/a	catFR1	0	R1525J
1021.083	0.0	1155513	PROB	7.331	n/a	n/a	n/a	-999	5	[3, 8, 8]	19.0	catFR1	0	R1525J
1021.083	0.0	1155513	START	n/a	n/a	n/a	n/a	-999	5	[-999, -999, -999]	n/a	catFR1	0	R1525J
1021.082	0.001	1155515	WORD_OFF	n/a	n/a	VELVET	Fabric	12	5	[0, 0, 0]	n/a	catFR1	0	R1525J
1021.083	0.0	1155515	ENCODING_END	n/a	n/a	n/a	n/a	-999	5	[0, 0, 0]	n/a	catFR1	0	R1525J
1021.083	7.349	1155515	DISTRACT_START	n/a	n/a	n/a	n/a	-999	5	[0, 0, 0]	n/a	catFR1	0	R1525J
1028.432	8.083	1162862	PROB	8.066	n/a	n/a	n/a	-999	5	[3, 6, 4]	13.0	catFR1	0	R1525J
1036.515	2.634	1170945	PROB	2.618	n/a	n/a	n/a	-999	5	[7, 5, 5]	17.0	catFR1	0	R1525J
1039.149	4.932	1173579	PROB	4.916	n/a	n/a	n/a	-999	5	[6, 6, 1]	13.0	catFR1	0	R1525J
1044.081	0.0	1178510	DISTRACT_END	n/a	n/a	n/a	n/a	-999	5	[0, 0, 0]	n/a	catFR1	0	R1525J
1044.081	1.601	1178511	STOP	n/a	n/a	n/a	n/a	-999	5	[-999, -999, -999]	n/a	catFR1	0	R1525J
1045.682	1.911	1180113	REC_START	n/a	n/a	n/a	n/a	-999	5	[0, 0, 0]	n/a	catFR1	0	R1525J
1047.593	1.0	1182022	REC_WORD	1.911	n/a	TROMBONE	Instruments	6	5	[0, 0, 0]	n/a	catFR1	0	R1525J
1048.593	0.479	1183022	REC_WORD_VV	2.911	n/a	<>	n/a	-999	5	[0, 0, 0]	n/a	catFR1	0	R1525J
1049.072	1.0	1183501	REC_WORD	3.39	n/a	VIOLIN	Instruments	5	5	[0, 0, 0]	n/a	catFR1	0	R1525J
1050.072	0.487	1184501	REC_WORD_VV	4.39	n/a	<>	n/a	-999	5	[0, 0, 0]	n/a	catFR1	0	R1525J
1050.559	1.0	1184988	REC_WORD	4.877	n/a	MONKEY	Zoo	2	5	[0, 0, 0]	n/a	catFR1	0	R1525J
1051.559	1.067	1185988	REC_WORD_VV	5.877	n/a	<>	n/a	-999	5	[0, 0, 0]	n/a	catFR1	0	R1525J
1052.626	1.0	1187055	REC_WORD	6.944	n/a	ORANGUTAN	Zoo	8	5	[0, 0, 0]	n/a	catFR1	0	R1525J
1053.626	0.834	1188055	REC_WORD_VV	7.944	n/a	<>	n/a	-999	5	[0, 0, 0]	n/a	catFR1	0	R1525J
1054.46	1.239	1188889	REC_WORD	8.778	n/a	ZEBRA	Zoo	7	5	[0, 0, 0]	n/a	catFR1	0	R1525J
1055.699	1.813	1190128	REC_WORD	10.017	n/a	GIRAFFE	Zoo	1	5	[0, 0, 0]	n/a	catFR1	0	R1525J
1057.512	1.494	1191941	REC_WORD	11.83	n/a	NYLON	Fabric	11	5	[0, 0, 0]	n/a	catFR1	0	R1525J
1059.006	1.844	1193435	REC_WORD	13.324	n/a	VELVET	Fabric	12	5	[0, 0, 0]	n/a	catFR1	0	R1525J
1060.85	1.412	1195279	REC_WORD_VV	15.168	n/a	<>	n/a	-999	5	[0, 0, 0]	n/a	catFR1	0	R1525J
1062.262	0.98	1196691	REC_WORD	16.58	n/a	DENIM	Fabric	4	5	[0, 0, 0]	n/a	catFR1	0	R1525J
1063.242	1.0	1197671	REC_WORD	17.56	n/a	JEANS	Clothing	-999	5	[0, 0, 0]	n/a	catFR1	0	R1525J
1064.242	1.593	1198671	REC_WORD_VV	18.56	n/a	<>	n/a	-999	5	[0, 0, 0]	n/a	catFR1	0	R1525J
1065.835	3.261	1200264	REC_WORD_VV	20.153	n/a	<>	n/a	-999	5	[0, 0, 0]	n/a	catFR1	0	R1525J
1069.096	1.0	1203525	REC_WORD_VV	23.414	n/a	<>	n/a	-999	5	[0, 0, 0]	n/a	catFR1	0	R1525J
1070.096	2.35	1204524	REC_WORD_VV	24.414	n/a	<>	n/a	-999	5	[0, 0, 0]	n/a	catFR1	0	R1525J
1072.446	1.0	1206874	REC_WORD_VV	26.764	n/a	<>	n/a	-999	5	[0, 0, 0]	n/a	catFR1	0	R1525J
1073.446	1.0	1207874	REC_WORD_VV	27.764	n/a	<>	n/a	-999	5	[0, 0, 0]	n/a	catFR1	0	R1525J
1074.446	1.431	1208874	REC_WORD_VV	28.764	n/a	<>	n/a	-999	5	[0, 0, 0]	n/a	catFR1	0	R1525J
1075.877	4.339	1210306	REC_END	n/a	n/a	n/a	n/a	-999	5	[0, 0, 0]	n/a	catFR1	0	R1525J
1080.216	10.0	1214647	COUNTDOWN_START	n/a	n/a	n/a	n/a	-999	5	[0, 0, 0]	n/a	catFR1	0	R1525J
1090.565	0.001	1224992	COUNTDOWN_END	n/a	n/a	n/a	n/a	-999	5	[0, 0, 0]	n/a	catFR1	0	R1525J
1090.566	2.283	1224992	ENCODING_START	n/a	n/a	n/a	n/a	-999	6	[0, 0, 0]	n/a	catFR1	0	R1525J
1092.849	1.6	1227274	WORD	n/a	wordpools/wordpool_categorized_EN.txt	RUM	Beverages	1	6	[0, 0, 0]	n/a	catFR1	0	R1525J
1094.466	0.817	1228893	WORD_OFF	n/a	n/a	RUM	Beverages	1	6	[0, 0, 0]	n/a	catFR1	0	R1525J
1095.283	1.6	1229713	WORD	n/a	wordpools/wordpool_categorized_EN.txt	SODA	Beverages	2	6	[0, 0, 0]	n/a	catFR1	0	R1525J
1096.883	0.85	1231310	WORD_OFF	n/a	n/a	SODA	Beverages	2	6	[0, 0, 0]	n/a	catFR1	0	R1525J
1097.733	1.6	1232160	WORD	n/a	wordpools/wordpool_categorized_EN.txt	WINDOW	Building	3	6	[0, 0, 0]	n/a	catFR1	0	R1525J
1099.333	0.884	1233763	WORD_OFF	n/a	n/a	WINDOW	Building	3	6	[0, 0, 0]	n/a	catFR1	0	R1525J
1100.217	1.6	1234644	WORD	n/a	wordpools/wordpool_categorized_EN.txt	ROOM	Building	4	6	[0, 0, 0]	n/a	catFR1	0	R1525J
1101.833	0.835	1236262	WORD_OFF	n/a	n/a	ROOM	Building	4	6	[0, 0, 0]	n/a	catFR1	0	R1525J
1102.668	1.6	1237097	WORD	n/a	wordpools/wordpool_categorized_EN.txt	CARNATION	Flowers	5	6	[0, 0, 0]	n/a	catFR1	0	R1525J
1104.282	0.934	1238709	WORD_OFF	n/a	n/a	CARNATION	Flowers	5	6	[0, 0, 0]	n/a	catFR1	0	R1525J
1105.216	1.6	1239641	WORD	n/a	wordpools/wordpool_categorized_EN.txt	MARIGOLD	Flowers	6	6	[0, 0, 0]	n/a	catFR1	0	R1525J
1106.816	0.851	1241244	WORD_OFF	n/a	n/a	MARIGOLD	Flowers	6	6	[0, 0, 0]	n/a	catFR1	0	R1525J
1107.667	1.6	1242095	WORD	n/a	wordpools/wordpool_categorized_EN.txt	COLA	Beverages	7	6	[0, 0, 0]	n/a	catFR1	0	R1525J
1109.266	0.966	1243691	WORD_OFF	n/a	n/a	COLA	Beverages	7	6	[0, 0, 0]	n/a	catFR1	0	R1525J
1110.232	1.6	1244661	WORD	n/a	wordpools/wordpool_categorized_EN.txt	JUICE	Beverages	8	6	[0, 0, 0]	n/a	catFR1	0	R1525J
1111.849	0.867	1246279	WORD_OFF	n/a	n/a	JUICE	Beverages	8	6	[0, 0, 0]	n/a	catFR1	0	R1525J
1112.716	1.6	1247144	WORD	n/a	wordpools/wordpool_categorized_EN.txt	BATHROOM	Building	9	6	[0, 0, 0]	n/a	catFR1	0	R1525J
1114.316	0.833	1248740	WORD_OFF	n/a	n/a	BATHROOM	Building	9	6	[0, 0, 0]	n/a	catFR1	0	R1525J
1115.149	1.6	1249576	WORD	n/a	wordpools/wordpool_categorized_EN.txt	FLOOR	Building	10	6	[0, 0, 0]	n/a	catFR1	0	R1525J
1116.749	0.966	1251172	WORD_OFF	n/a	n/a	FLOOR	Building	10	6	[0, 0, 0]	n/a	catFR1	0	R1525J
1117.715	1.6	1252142	WORD	n/a	wordpools/wordpool_categorized_EN.txt	DAISY	Flowers	11	6	[0, 0, 0]	n/a	catFR1	0	R1525J
1119.315	0.8	1253745	WORD_OFF	n/a	n/a	DAISY	Flowers	11	6	[0, 0, 0]	n/a	catFR1	0	R1525J
1120.115	1.6	1254543	WORD	n/a	wordpools/wordpool_categorized_EN.txt	PETUNIA	Flowers	12	6	[0, 0, 0]	n/a	catFR1	0	R1525J
1121.732	0.0	1256154	WORD_OFF	n/a	n/a	PETUNIA	Flowers	12	6	[0, 0, 0]	n/a	catFR1	0	R1525J
1121.732	0.001	1256158	PROB	5.883	n/a	n/a	n/a	-999	6	[5, 8, 8]	21.0	catFR1	0	R1525J
1121.733	0.0	1256159	START	n/a	n/a	n/a	n/a	-999	6	[-999, -999, -999]	n/a	catFR1	0	R1525J
1121.733	0.0	1256162	ENCODING_END	n/a	n/a	n/a	n/a	-999	6	[0, 0, 0]	n/a	catFR1	0	R1525J
1121.733	5.899	1256162	DISTRACT_START	n/a	n/a	n/a	n/a	-999	6	[0, 0, 0]	n/a	catFR1	0	R1525J
1127.632	10.8	1262058	PROB	10.782	n/a	n/a	n/a	-999	6	[2, 5, 8]	15.0	catFR1	0	R1525J
1138.432	6.383	1272858	PROB	6.366	n/a	n/a	n/a	-999	6	[5, 3, 6]	14.0	catFR1	0	R1525J
1144.815	0.0	1279239	DISTRACT_END	n/a	n/a	n/a	n/a	-999	6	[0, 0, 0]	n/a	catFR1	0	R1525J
1144.815	1.883	1279240	STOP	n/a	n/a	n/a	n/a	-999	6	[-999, -999, -999]	n/a	catFR1	0	R1525J
1146.698	1.555	1281126	REC_START	n/a	n/a	n/a	n/a	-999	6	[0, 0, 0]	n/a	catFR1	0	R1525J
1148.253	1.0	1282678	REC_WORD_VV	1.555	n/a	<>	n/a	-999	6	[0, 0, 0]	n/a	catFR1	0	R1525J
1149.253	0.995	1283678	REC_WORD_VV	2.555	n/a	<>	n/a	-999	6	[0, 0, 0]	n/a	catFR1	0	R1525J
1150.248	0.726	1284673	REC_WORD	3.55	n/a	RUM	Beverages	1	6	[0, 0, 0]	n/a	catFR1	0	R1525J
1150.974	1.905	1285399	REC_WORD	4.276	n/a	RUM	Beverages	1	6	[0, 0, 0]	n/a	catFR1	0	R1525J
1152.879	2.752	1287304	REC_WORD	6.181	n/a	SODA	Beverages	2	6	[0, 0, 0]	n/a	catFR1	0	R1525J
1155.631	1.212	1290056	REC_WORD	8.933	n/a	ROOM	Building	4	6	[0, 0, 0]	n/a	catFR1	0	R1525J
1156.843	1.548	1291268	REC_WORD	10.145	n/a	WINDOW	Building	3	6	[0, 0, 0]	n/a	catFR1	0	R1525J
1158.391	1.0	1292816	REC_WORD	11.693	n/a	FLOOR	Building	10	6	[0, 0, 0]	n/a	catFR1	0	R1525J
1159.391	1.731	1293816	REC_WORD_VV	12.693	n/a	<>	n/a	-999	6	[0, 0, 0]	n/a	catFR1	0	R1525J
1161.122	1.0	1295547	REC_WORD	14.424	n/a	MARIGOLD	Flowers	6	6	[0, 0, 0]	n/a	catFR1	0	R1525J
1162.122	0.617	1296547	REC_WORD_VV	15.424	n/a	<>	n/a	-999	6	[0, 0, 0]	n/a	catFR1	0	R1525J
1162.739	1.0	1297164	REC_WORD	16.041	n/a	PETUNIA	Flowers	12	6	[0, 0, 0]	n/a	catFR1	0	R1525J
1163.739	1.315	1298164	REC_WORD_VV	17.041	n/a	<>	n/a	-999	6	[0, 0, 0]	n/a	catFR1	0	R1525J
1165.054	1.0	1299479	REC_WORD	18.356	n/a	FLOWER	n/a	-999	6	[0, 0, 0]	n/a	catFR1	0	R1525J
1166.054	2.185	1300478	REC_WORD_VV	19.356	n/a	<>	n/a	-999	6	[0, 0, 0]	n/a	catFR1	0	R1525J
1168.239	1.0	1302663	REC_WORD_VV	21.541	n/a	<>	n/a	-999	6	[0, 0, 0]	n/a	catFR1	0	R1525J
1169.239	1.387	1303663	REC_WORD_VV	22.541	n/a	<>	n/a	-999	6	[0, 0, 0]	n/a	catFR1	0	R1525J
1170.626	2.484	1305050	REC_WORD	23.928	n/a	COKE	n/a	-999	6	[0, 0, 0]	n/a	catFR1	0	R1525J
1173.11	3.797	1307534	REC_WORD_VV	26.412	n/a	<>	n/a	-999	6	[0, 0, 0]	n/a	catFR1	0	R1525J
1176.907	3.524	1311333	REC_END	n/a	n/a	n/a	n/a	-999	6	[0, 0, 0]	n/a	catFR1	0	R1525J
1180.431	10.0	1314854	COUNTDOWN_START	n/a	n/a	n/a	n/a	-999	6	[0, 0, 0]	n/a	catFR1	0	R1525J
1190.782	0.0	1325206	COUNTDOWN_END	n/a	n/a	n/a	n/a	-999	6	[0, 0, 0]	n/a	catFR1	0	R1525J
1190.782	2.334	1325206	ENCODING_START	n/a	n/a	n/a	n/a	-999	7	[0, 0, 0]	n/a	catFR1	0	R1525J
1193.116	1.6	1327541	WORD	n/a	wordpools/wordpool_categorized_EN.txt	BLOCKS	Toys	1	7	[0, 0, 0]	n/a	catFR1	0	R1525J
1194.717	0.766	1329137	WORD_OFF	n/a	n/a	BLOCKS	Toys	1	7	[0, 0, 0]	n/a	catFR1	0	R1525J
1195.483	1.6	1329905	WORD	n/a	wordpools/wordpool_categorized_EN.txt	BALL	Toys	2	7	[0, 0, 0]	n/a	catFR1	0	R1525J
1197.083	0.8	1331509	WORD_OFF	n/a	n/a	BALL	Toys	2	7	[0, 0, 0]	n/a	catFR1	0	R1525J
1197.883	1.6	1332307	WORD	n/a	wordpools/wordpool_categorized_EN.txt	GOOSE	Birds	3	7	[0, 0, 0]	n/a	catFR1	0	R1525J
1199.498	0.884	1333918	WORD_OFF	n/a	n/a	GOOSE	Birds	3	7	[0, 0, 0]	n/a	catFR1	0	R1525J
1200.382	1.6	1334806	WORD	n/a	wordpools/wordpool_categorized_EN.txt	DUCK	Birds	4	7	[0, 0, 0]	n/a	catFR1	0	R1525J
1201.983	0.85	1336409	WORD_OFF	n/a	n/a	DUCK	Birds	4	7	[0, 0, 0]	n/a	catFR1	0	R1525J
1202.833	1.6	1337252	WORD	n/a	wordpools/wordpool_categorized_EN.txt	BEAR	Zoo	5	7	[0, 0, 0]	n/a	catFR1	0	R1525J
1204.449	0.983	1338871	WORD_OFF	n/a	n/a	BEAR	Zoo	5	7	[0, 0, 0]	n/a	catFR1	0	R1525J
1205.432	1.6	1339855	WORD	n/a	wordpools/wordpool_categorized_EN.txt	GORILLA	Zoo	6	7	[0, 0, 0]	n/a	catFR1	0	R1525J
1207.032	0.968	1341451	WORD_OFF	n/a	n/a	GORILLA	Zoo	6	7	[0, 0, 0]	n/a	catFR1	0	R1525J
1208.0	1.6	1342421	WORD	n/a	wordpools/wordpool_categorized_EN.txt	ROBIN	Birds	7	7	[0, 0, 0]	n/a	catFR1	0	R1525J
1209.616	0.783	1344040	WORD_OFF	n/a	n/a	ROBIN	Birds	7	7	[0, 0, 0]	n/a	catFR1	0	R1525J
1210.399	1.6	1344823	WORD	n/a	wordpools/wordpool_categorized_EN.txt	DOVE	Birds	8	7	[0, 0, 0]	n/a	catFR1	0	R1525J
1212.014	0.867	1346434	WORD_OFF	n/a	n/a	DOVE	Birds	8	7	[0, 0, 0]	n/a	catFR1	0	R1525J
1212.881	1.6	1347306	WORD	n/a	wordpools/wordpool_categorized_EN.txt	MARBLES	Toys	9	7	[0, 0, 0]	n/a	catFR1	0	R1525J
1214.483	0.782	1348903	WORD_OFF	n/a	n/a	MARBLES	Toys	9	7	[0, 0, 0]	n/a	catFR1	0	R1525J
1215.265	1.6	1349686	WORD	n/a	wordpools/wordpool_categorized_EN.txt	BASEBALL	Toys	10	7	[0, 0, 0]	n/a	catFR1	0	R1525J
1216.882	0.901	1351304	WORD_OFF	n/a	n/a	BASEBALL	Toys	10	7	[0, 0, 0]	n/a	catFR1	0	R1525J
1217.783	1.6	1352207	WORD	n/a	wordpools/wordpool_categorized_EN.txt	CHEETAH	Zoo	11	7	[0, 0, 0]	n/a	catFR1	0	R1525J
1219.399	0.999	1353819	WORD_OFF	n/a	n/a	CHEETAH	Zoo	11	7	[0, 0, 0]	n/a	catFR1	0	R1525J
1220.398	1.6	1354817	WORD	n/a	wordpools/wordpool_categorized_EN.txt	CHIMPANZEE	Zoo	12	7	[0, 0, 0]	n/a	catFR1	0	R1525J
1221.999	0.001	1356421	WORD_OFF	n/a	n/a	CHIMPANZEE	Zoo	12	7	[0, 0, 0]	n/a	catFR1	0	R1525J
1222.0	0.0	1356421	ENCODING_END	n/a	n/a	n/a	n/a	-999	7	[0, 0, 0]	n/a	catFR1	0	R1525J
1222.0	0.0	1356422	START	n/a	n/a	n/a	n/a	-999	7	[-999, -999, -999]	n/a	catFR1	0	R1525J
1222.0	0.0	1356422	PROB	8.932	n/a	n/a	n/a	-999	7	[6, 7, 5]	18.0	catFR1	0	R1525J
1222.0	8.949	1356428	DISTRACT_START	n/a	n/a	n/a	n/a	-999	7	[0, 0, 0]	n/a	catFR1	0	R1525J
1230.949	4.151	1365371	PROB	4.134	n/a	n/a	n/a	-999	7	[4, 4, 3]	11.0	catFR1	0	R1525J
1235.1	3.048	1369522	PROB	3.032	n/a	n/a	n/a	-999	7	[2, 2, 3]	7.0	catFR1	0	R1525J
1238.148	4.035	1372569	PROB	4.017	n/a	n/a	n/a	-999	7	[8, 5, 1]	13.0	catFR1	0	R1525J
1242.183	0.0	1376604	DISTRACT_END	n/a	n/a	n/a	n/a	-999	7	[0, 0, 0]	n/a	catFR1	0	R1525J
1242.183	1.832	1376604	STOP	n/a	n/a	n/a	n/a	-999	7	[-999, -999, -999]	n/a	catFR1	0	R1525J
1244.015	2.363	1378439	REC_START	n/a	n/a	n/a	n/a	-999	7	[0, 0, 0]	n/a	catFR1	0	R1525J
1246.378	1.0	1380799	REC_WORD_VV	2.363	n/a	<>	n/a	-999	7	[0, 0, 0]	n/a	catFR1	0	R1525J
1247.378	1.0	1381799	REC_WORD_VV	3.363	n/a	<>	n/a	-999	7	[0, 0, 0]	n/a	catFR1	0	R1525J
1248.378	1.0	1382799	REC_WORD_VV	4.363	n/a	<>	n/a	-999	7	[0, 0, 0]	n/a	catFR1	0	R1525J
1249.378	1.0	1383799	REC_WORD_VV	5.363	n/a	<>	n/a	-999	7	[0, 0, 0]	n/a	catFR1	0	R1525J
1250.378	1.0	1384799	REC_WORD_VV	6.363	n/a	<>	n/a	-999	7	[0, 0, 0]	n/a	catFR1	0	R1525J
1251.378	1.0	1385799	REC_WORD_VV	7.363	n/a	<>	n/a	-999	7	[0, 0, 0]	n/a	catFR1	0	R1525J
1252.378	1.0	1386799	REC_WORD_VV	8.363	n/a	<>	n/a	-999	7	[0, 0, 0]	n/a	catFR1	0	R1525J
1253.378	1.715	1387799	REC_WORD_VV	9.363	n/a	<>	n/a	-999	7	[0, 0, 0]	n/a	catFR1	0	R1525J
1255.093	2.165	1389514	REC_WORD	11.078	n/a	CHEETAH	Zoo	11	7	[0, 0, 0]	n/a	catFR1	0	R1525J
1257.258	0.679	1391679	REC_WORD_VV	13.243	n/a	<>	n/a	-999	7	[0, 0, 0]	n/a	catFR1	0	R1525J
1257.937	3.378	1392358	REC_WORD	13.922	n/a	CHIMPANZEE	Zoo	12	7	[0, 0, 0]	n/a	catFR1	0	R1525J
1261.315	1.371	1395736	REC_WORD	17.3	n/a	BLOCKS	Toys	1	7	[0, 0, 0]	n/a	catFR1	0	R1525J
1262.686	2.067	1397106	REC_WORD	18.671	n/a	BALL	Toys	2	7	[0, 0, 0]	n/a	catFR1	0	R1525J
1264.753	5.488	1399173	REC_WORD_VV	20.738	n/a	<>	n/a	-999	7	[0, 0, 0]	n/a	catFR1	0	R1525J
1270.241	1.0	1404661	REC_WORD_VV	26.226	n/a	<>	n/a	-999	7	[0, 0, 0]	n/a	catFR1	0	R1525J
1271.241	1.0	1405661	REC_WORD_VV	27.226	n/a	<>	n/a	-999	7	[0, 0, 0]	n/a	catFR1	0	R1525J
1272.241	1.0	1406661	REC_WORD_VV	28.226	n/a	<>	n/a	-999	7	[0, 0, 0]	n/a	catFR1	0	R1525J
1273.241	0.998	1407661	REC_WORD_VV	29.226	n/a	<>	n/a	-999	7	[0, 0, 0]	n/a	catFR1	0	R1525J
1274.239	5.928	1408661	REC_END	n/a	n/a	n/a	n/a	-999	7	[0, 0, 0]	n/a	catFR1	0	R1525J
1280.167	10.0	1414591	COUNTDOWN_START	n/a	n/a	n/a	n/a	-999	7	[0, 0, 0]	n/a	catFR1	0	R1525J
1290.516	0.0	1424936	COUNTDOWN_END	n/a	n/a	n/a	n/a	-999	7	[0, 0, 0]	n/a	catFR1	0	R1525J
1290.516	2.05	1424936	ENCODING_START	n/a	n/a	n/a	n/a	-999	8	[0, 0, 0]	n/a	catFR1	0	R1525J
1292.566	1.6	1426987	WORD	n/a	wordpools/wordpool_categorized_EN.txt	BLUEBIRD	Birds	1	8	[0, 0, 0]	n/a	catFR1	0	R1525J
1294.166	1.0	1428583	WORD_OFF	n/a	n/a	BLUEBIRD	Birds	1	8	[0, 0, 0]	n/a	catFR1	0	R1525J
1295.166	1.6	1429583	WORD	n/a	wordpools/wordpool_categorized_EN.txt	SPARROW	Birds	2	8	[0, 0, 0]	n/a	catFR1	0	R1525J
1296.766	0.883	1431186	WORD_OFF	n/a	n/a	SPARROW	Birds	2	8	[0, 0, 0]	n/a	catFR1	0	R1525J
1297.649	1.6	1432066	WORD	n/a	wordpools/wordpool_categorized_EN.txt	GLUE	OfficeSupplies	3	8	[0, 0, 0]	n/a	catFR1	0	R1525J
1299.266	0.984	1433692	WORD_OFF	n/a	n/a	GLUE	OfficeSupplies	3	8	[0, 0, 0]	n/a	catFR1	0	R1525J
1300.25	1.6	1434669	WORD	n/a	wordpools/wordpool_categorized_EN.txt	NOTEBOOK	OfficeSupplies	4	8	[0, 0, 0]	n/a	catFR1	0	R1525J
1301.866	0.917	1436288	WORD_OFF	n/a	n/a	NOTEBOOK	OfficeSupplies	4	8	[0, 0, 0]	n/a	catFR1	0	R1525J
1302.783	1.6	1437205	WORD	n/a	wordpools/wordpool_categorized_EN.txt	EYE	BodyParts	5	8	[0, 0, 0]	n/a	catFR1	0	R1525J
1304.399	0.984	1438816	WORD_OFF	n/a	n/a	EYE	BodyParts	5	8	[0, 0, 0]	n/a	catFR1	0	R1525J
1305.383	1.6	1439801	WORD	n/a	wordpools/wordpool_categorized_EN.txt	EAR	BodyParts	6	8	[0, 0, 0]	n/a	catFR1	0	R1525J
1306.983	0.916	1441405	WORD_OFF	n/a	n/a	EAR	BodyParts	6	8	[0, 0, 0]	n/a	catFR1	0	R1525J
1307.899	1.6	1442315	WORD	n/a	wordpools/wordpool_categorized_EN.txt	PAPER	OfficeSupplies	7	8	[0, 0, 0]	n/a	catFR1	0	R1525J
1309.516	0.865	1443933	WORD_OFF	n/a	n/a	PAPER	OfficeSupplies	7	8	[0, 0, 0]	n/a	catFR1	0	R1525J
1310.381	1.6	1444798	WORD	n/a	wordpools/wordpool_categorized_EN.txt	TAPE	OfficeSupplies	8	8	[0, 0, 0]	n/a	catFR1	0	R1525J
1311.983	0.916	1446402	WORD_OFF	n/a	n/a	TAPE	OfficeSupplies	8	8	[0, 0, 0]	n/a	catFR1	0	R1525J
1312.899	1.6	1447319	WORD	n/a	wordpools/wordpool_categorized_EN.txt	ARM	BodyParts	9	8	[0, 0, 0]	n/a	catFR1	0	R1525J
1314.515	0.801	1448930	WORD_OFF	n/a	n/a	ARM	BodyParts	9	8	[0, 0, 0]	n/a	catFR1	0	R1525J
1315.316	1.6	1449736	WORD	n/a	wordpools/wordpool_categorized_EN.txt	FOOT	BodyParts	10	8	[0, 0, 0]	n/a	catFR1	0	R1525J
1316.932	0.767	1451354	WORD_OFF	n/a	n/a	FOOT	BodyParts	10	8	[0, 0, 0]	n/a	catFR1	0	R1525J
1317.699	1.6	1452115	WORD	n/a	wordpools/wordpool_categorized_EN.txt	CROW	Birds	11	8	[0, 0, 0]	n/a	catFR1	0	R1525J
1319.314	0.786	1453734	WORD_OFF	n/a	n/a	CROW	Birds	11	8	[0, 0, 0]	n/a	catFR1	0	R1525J
1320.1	1.6	1454517	WORD	n/a	wordpools/wordpool_categorized_EN.txt	FINCH	Birds	12	8	[0, 0, 0]	n/a	catFR1	0	R1525J
1321.715	0.0	1456133	PROB	3.784	n/a	n/a	n/a	-999	8	[2, 4, 1]	7.0	catFR1	0	R1525J
1321.715	0.003	1456135	WORD_OFF	n/a	n/a	FINCH	Birds	12	8	[0, 0, 0]	n/a	catFR1	0	R1525J
1321.718	0.001	1456135	ENCODING_END	n/a	n/a	n/a	n/a	-999	8	[0, 0, 0]	n/a	catFR1	0	R1525J
1321.719	0.0	1456135	DISTRACT_START	n/a	n/a	n/a	n/a	-999	8	[0, 0, 0]	n/a	catFR1	0	R1525J
1321.719	3.797	1456137	START	n/a	n/a	n/a	n/a	-999	8	[-999, -999, -999]	n/a	catFR1	0	R1525J
1325.516	5.116	1459934	PROB	5.1	n/a	n/a	n/a	-999	8	[2, 4, 8]	14.0	catFR1	0	R1525J
1330.632	3.617	1465050	PROB	3.6	n/a	n/a	n/a	-999	8	[5, 3, 7]	14.0	catFR1	0	R1525J
1334.249	9.383	1468666	PROB	9.367	n/a	n/a	n/a	-999	8	[6, 1, 4]	11.0	catFR1	0	R1525J
1343.632	0.0	1478049	DISTRACT_END	n/a	n/a	n/a	n/a	-999	8	[0, 0, 0]	n/a	catFR1	0	R1525J
1343.632	1.65	1478049	STOP	n/a	n/a	n/a	n/a	-999	8	[-999, -999, -999]	n/a	catFR1	0	R1525J
1345.282	2.522	1479697	REC_START	n/a	n/a	n/a	n/a	-999	8	[0, 0, 0]	n/a	catFR1	0	R1525J
1347.804	1.526	1482221	REC_WORD	2.522	n/a	EYE	BodyParts	5	8	[0, 0, 0]	n/a	catFR1	0	R1525J
1349.33	1.505	1483747	REC_WORD	4.048	n/a	EAR	BodyParts	6	8	[0, 0, 0]	n/a	catFR1	0	R1525J
1350.835	2.165	1485252	REC_WORD	5.553	n/a	ARM	BodyParts	9	8	[0, 0, 0]	n/a	catFR1	0	R1525J
1353.0	1.607	1487417	REC_WORD	7.718	n/a	NOTEBOOK	OfficeSupplies	4	8	[0, 0, 0]	n/a	catFR1	0	R1525J
1354.607	5.316	1489024	REC_WORD	9.325	n/a	PAPER	OfficeSupplies	7	8	[0, 0, 0]	n/a	catFR1	0	R1525J
1359.923	1.319	1494339	REC_WORD	14.641	n/a	BLUEBIRD	Birds	1	8	[0, 0, 0]	n/a	catFR1	0	R1525J
1361.242	1.0	1495658	REC_WORD	15.96	n/a	FINCH	Birds	12	8	[0, 0, 0]	n/a	catFR1	0	R1525J
1362.242	1.748	1496658	REC_WORD_VV	16.96	n/a	<>	n/a	-999	8	[0, 0, 0]	n/a	catFR1	0	R1525J
1363.99	0.616	1498406	REC_WORD_VV	18.708	n/a	<>	n/a	-999	8	[0, 0, 0]	n/a	catFR1	0	R1525J
1364.606	1.893	1499022	REC_WORD	19.324	n/a	FEATHER	n/a	-999	8	[0, 0, 0]	n/a	catFR1	0	R1525J
1366.499	1.618	1500915	REC_WORD_VV	21.217	n/a	<>	n/a	-999	8	[0, 0, 0]	n/a	catFR1	0	R1525J
1368.117	1.0	1502533	REC_WORD_VV	22.835	n/a	<>	n/a	-999	8	[0, 0, 0]	n/a	catFR1	0	R1525J
1369.117	1.0	1503533	REC_WORD_VV	23.835	n/a	<>	n/a	-999	8	[0, 0, 0]	n/a	catFR1	0	R1525J
1370.117	0.627	1504533	REC_WORD_VV	24.835	n/a	<>	n/a	-999	8	[0, 0, 0]	n/a	catFR1	0	R1525J
1370.744	0.825	1505160	REC_WORD	25.462	n/a	PETUNIA	Flowers	-999	8	[0, 0, 0]	n/a	catFR1	0	R1525J
1371.569	1.658	1505985	REC_WORD_VV	26.287	n/a	<>	n/a	-999	8	[0, 0, 0]	n/a	catFR1	0	R1525J
1373.227	1.161	1507643	REC_WORD_VV	27.945	n/a	<>	n/a	-999	8	[0, 0, 0]	n/a	catFR1	0	R1525J
1374.388	1.111	1508804	REC_WORD_VV	29.106	n/a	<>	n/a	-999	8	[0, 0, 0]	n/a	catFR1	0	R1525J
1375.499	3.767	1509912	REC_END	n/a	n/a	n/a	n/a	-999	8	[0, 0, 0]	n/a	catFR1	0	R1525J
1379.266	10.0	1513694	COUNTDOWN_START	n/a	n/a	n/a	n/a	-999	8	[0, 0, 0]	n/a	catFR1	0	R1525J
1389.615	0.0	1524031	COUNTDOWN_END	n/a	n/a	n/a	n/a	-999	8	[0, 0, 0]	n/a	catFR1	0	R1525J
1389.615	2.152	1524031	ENCODING_START	n/a	n/a	n/a	n/a	-999	9	[0, 0, 0]	n/a	catFR1	0	R1525J
1391.767	1.6	1526180	WORD	n/a	wordpools/wordpool_categorized_EN.txt	SHIRT	Clothing	1	9	[0, 0, 0]	n/a	catFR1	0	R1525J
1393.382	0.767	1527798	WORD_OFF	n/a	n/a	SHIRT	Clothing	1	9	[0, 0, 0]	n/a	catFR1	0	R1525J
1394.149	1.6	1528566	WORD	n/a	wordpools/wordpool_categorized_EN.txt	UNDERWEAR	Clothing	2	9	[0, 0, 0]	n/a	catFR1	0	R1525J
1395.749	0.866	1530162	WORD_OFF	n/a	n/a	UNDERWEAR	Clothing	2	9	[0, 0, 0]	n/a	catFR1	0	R1525J
1396.615	1.6	1531028	WORD	n/a	wordpools/wordpool_categorized_EN.txt	CROWBAR	Tools	3	9	[0, 0, 0]	n/a	catFR1	0	R1525J
1398.215	0.867	1532631	WORD_OFF	n/a	n/a	CROWBAR	Tools	3	9	[0, 0, 0]	n/a	catFR1	0	R1525J
1399.082	1.6	1533496	WORD	n/a	wordpools/wordpool_categorized_EN.txt	SANDER	Tools	4	9	[0, 0, 0]	n/a	catFR1	0	R1525J
1400.683	0.9	1535100	WORD_OFF	n/a	n/a	SANDER	Tools	4	9	[0, 0, 0]	n/a	catFR1	0	R1525J
1401.583	1.6	1535995	WORD	n/a	wordpools/wordpool_categorized_EN.txt	CEILING	Building	5	9	[0, 0, 0]	n/a	catFR1	0	R1525J
1403.199	0.934	1537614	WORD_OFF	n/a	n/a	CEILING	Building	5	9	[0, 0, 0]	n/a	catFR1	0	R1525J
1404.133	1.6	1538546	WORD	n/a	wordpools/wordpool_categorized_EN.txt	FOUNDATION	Building	6	9	[0, 0, 0]	n/a	catFR1	0	R1525J
1405.749	0.783	1540165	WORD_OFF	n/a	n/a	FOUNDATION	Building	6	9	[0, 0, 0]	n/a	catFR1	0	R1525J
1406.532	1.6	1540948	WORD	n/a	wordpools/wordpool_categorized_EN.txt	DRESS	Clothing	7	9	[0, 0, 0]	n/a	catFR1	0	R1525J
1408.132	0.884	1542544	WORD_OFF	n/a	n/a	DRESS	Clothing	7	9	[0, 0, 0]	n/a	catFR1	0	R1525J
1409.016	1.6	1543431	WORD	n/a	wordpools/wordpool_categorized_EN.txt	SHORTS	Clothing	8	9	[0, 0, 0]	n/a	catFR1	0	R1525J
1410.632	0.849	1545042	WORD_OFF	n/a	n/a	SHORTS	Clothing	8	9	[0, 0, 0]	n/a	catFR1	0	R1525J
1411.481	1.6	1545893	WORD	n/a	wordpools/wordpool_categorized_EN.txt	WRENCH	Tools	9	9	[0, 0, 0]	n/a	catFR1	0	R1525J
1413.082	0.95	1547496	WORD_OFF	n/a	n/a	WRENCH	Tools	9	9	[0, 0, 0]	n/a	catFR1	0	R1525J
1414.032	1.6	1548444	WORD	n/a	wordpools/wordpool_categorized_EN.txt	SHOVEL	Tools	10	9	[0, 0, 0]	n/a	catFR1	0	R1525J
1415.632	0.85	1550047	WORD_OFF	n/a	n/a	SHOVEL	Tools	10	9	[0, 0, 0]	n/a	catFR1	0	R1525J
1416.482	1.6	1550898	WORD	n/a	wordpools/wordpool_categorized_EN.txt	DOOR	Building	11	9	[0, 0, 0]	n/a	catFR1	0	R1525J
1418.1	0.949	1552516	WORD_OFF	n/a	n/a	DOOR	Building	11	9	[0, 0, 0]	n/a	catFR1	0	R1525J
1419.049	1.6	1553463	WORD	n/a	wordpools/wordpool_categorized_EN.txt	ROOF	Building	12	9	[0, 0, 0]	n/a	catFR1	0	R1525J
1420.666	0.0	1555080	PROB	4.399	n/a	n/a	n/a	-999	9	[6, 2, 8]	16.0	catFR1	0	R1525J
1420.666	0.003	1555082	WORD_OFF	n/a	n/a	ROOF	Building	12	9	[0, 0, 0]	n/a	catFR1	0	R1525J
1420.669	0.0	1555082	ENCODING_END	n/a	n/a	n/a	n/a	-999	9	[0, 0, 0]	n/a	catFR1	0	R1525J
1420.669	0.0	1555082	DISTRACT_START	n/a	n/a	n/a	n/a	-999	9	[0, 0, 0]	n/a	catFR1	0	R1525J
1420.669	4.413	1555083	START	n/a	n/a	n/a	n/a	-999	9	[-999, -999, -999]	n/a	catFR1	0	R1525J
1425.082	11.5	1559496	PROB	11.482	n/a	n/a	n/a	-999	9	[7, 8, 5]	20.0	catFR1	0	R1525J
1436.582	3.117	1570995	PROB	3.1	n/a	n/a	n/a	-999	9	[1, 5, 1]	7.0	catFR1	0	R1525J
1439.699	3.648	1574112	PROB	3.633	n/a	n/a	n/a	-999	9	[3, 5, 4]	12.0	catFR1	0	R1525J
1443.347	0.0	1577760	STOP	n/a	n/a	n/a	n/a	-999	9	[-999, -999, -999]	n/a	catFR1	0	R1525J
1443.347	1.651	1577764	DISTRACT_END	n/a	n/a	n/a	n/a	-999	9	[0, 0, 0]	n/a	catFR1	0	R1525J
1444.998	1.109	1579412	REC_START	n/a	n/a	n/a	n/a	-999	9	[0, 0, 0]	n/a	catFR1	0	R1525J
1446.107	1.0	1580520	REC_WORD_VV	1.109	n/a	<>	n/a	-999	9	[0, 0, 0]	n/a	catFR1	0	R1525J
1447.107	0.796	1581520	REC_WORD_VV	2.109	n/a	<>	n/a	-999	9	[0, 0, 0]	n/a	catFR1	0	R1525J
1447.903	1.0	1582316	REC_WORD	2.905	n/a	CROWBAR	Tools	3	9	[0, 0, 0]	n/a	catFR1	0	R1525J
1448.903	0.611	1583316	REC_WORD_VV	3.905	n/a	<>	n/a	-999	9	[0, 0, 0]	n/a	catFR1	0	R1525J
1449.514	1.763	1583927	REC_WORD	4.516	n/a	WRENCH	Tools	9	9	[0, 0, 0]	n/a	catFR1	0	R1525J
1451.277	0.269	1585690	REC_WORD_VV	6.279	n/a	<>	n/a	-999	9	[0, 0, 0]	n/a	catFR1	0	R1525J
1451.546	1.0	1585959	REC_WORD	6.548	n/a	SHOVEL	Tools	10	9	[0, 0, 0]	n/a	catFR1	0	R1525J
1452.546	1.033	1586959	REC_WORD_VV	7.548	n/a	<>	n/a	-999	9	[0, 0, 0]	n/a	catFR1	0	R1525J
1453.579	1.0	1587992	REC_WORD	8.581	n/a	UNDERWEAR	Clothing	2	9	[0, 0, 0]	n/a	catFR1	0	R1525J
1454.579	1.25	1588991	REC_WORD_VV	9.581	n/a	<>	n/a	-999	9	[0, 0, 0]	n/a	catFR1	0	R1525J
1455.829	0.938	1590241	REC_WORD	10.831	n/a	PANTS	n/a	-999	9	[0, 0, 0]	n/a	catFR1	0	R1525J
1456.767	2.005	1591179	REC_WORD	11.769	n/a	SHIRT	Clothing	1	9	[0, 0, 0]	n/a	catFR1	0	R1525J
1458.772	2.176	1593184	REC_WORD_VV	13.774	n/a	<>	n/a	-999	9	[0, 0, 0]	n/a	catFR1	0	R1525J
1460.948	1.947	1595360	REC_WORD_VV	15.95	n/a	<>	n/a	-999	9	[0, 0, 0]	n/a	catFR1	0	R1525J
1462.895	3.324	1597307	REC_WORD_VV	17.897	n/a	<>	n/a	-999	9	[0, 0, 0]	n/a	catFR1	0	R1525J
1466.219	1.951	1600631	REC_WORD_VV	21.221	n/a	<>	n/a	-999	9	[0, 0, 0]	n/a	catFR1	0	R1525J
1468.17	4.741	1602582	REC_WORD_VV	23.172	n/a	<>	n/a	-999	9	[0, 0, 0]	n/a	catFR1	0	R1525J
1472.911	2.297	1607323	REC_WORD_VV	27.913	n/a	<>	n/a	-999	9	[0, 0, 0]	n/a	catFR1	0	R1525J
1475.208	16.475	1609619	REC_END	n/a	n/a	n/a	n/a	-999	9	[0, 0, 0]	n/a	catFR1	0	R1525J
1491.683	10.0	1626096	COUNTDOWN_START	n/a	n/a	n/a	n/a	-999	9	[0, 0, 0]	n/a	catFR1	0	R1525J
1502.032	0.0	1636441	COUNTDOWN_END	n/a	n/a	n/a	n/a	-999	9	[0, 0, 0]	n/a	catFR1	0	R1525J
1502.032	2.15	1636448	ENCODING_START	n/a	n/a	n/a	n/a	-999	10	[0, 0, 0]	n/a	catFR1	0	R1525J
1504.182	1.6	1638596	WORD	n/a	wordpools/wordpool_categorized_EN.txt	HICKORY	Trees	1	10	[0, 0, 0]	n/a	catFR1	0	R1525J
1505.782	0.967	1640192	WORD_OFF	n/a	n/a	HICKORY	Trees	1	10	[0, 0, 0]	n/a	catFR1	0	R1525J
1506.749	1.6	1641162	WORD	n/a	wordpools/wordpool_categorized_EN.txt	CYPRESS	Trees	2	10	[0, 0, 0]	n/a	catFR1	0	R1525J
1508.365	0.867	1642773	WORD_OFF	n/a	n/a	CYPRESS	Trees	2	10	[0, 0, 0]	n/a	catFR1	0	R1525J
1509.232	1.6	1643638	WORD	n/a	wordpools/wordpool_categorized_EN.txt	CARDINAL	Birds	3	10	[0, 0, 0]	n/a	catFR1	0	R1525J
1510.832	0.833	1645242	WORD_OFF	n/a	n/a	CARDINAL	Birds	3	10	[0, 0, 0]	n/a	catFR1	0	R1525J
1511.665	1.6	1646077	WORD	n/a	wordpools/wordpool_categorized_EN.txt	SEAGULL	Birds	4	10	[0, 0, 0]	n/a	catFR1	0	R1525J
1513.265	0.868	1647673	WORD_OFF	n/a	n/a	SEAGULL	Birds	4	10	[0, 0, 0]	n/a	catFR1	0	R1525J
1514.133	1.6	1648546	WORD	n/a	wordpools/wordpool_categorized_EN.txt	CORKSCREW	KitchenTools	5	10	[0, 0, 0]	n/a	catFR1	0	R1525J
1515.748	0.784	1650157	WORD_OFF	n/a	n/a	CORKSCREW	KitchenTools	5	10	[0, 0, 0]	n/a	catFR1	0	R1525J
1516.532	1.6	1650940	WORD	n/a	wordpools/wordpool_categorized_EN.txt	SPATULA	KitchenTools	6	10	[0, 0, 0]	n/a	catFR1	0	R1525J
1518.149	0.966	1652559	WORD_OFF	n/a	n/a	SPATULA	KitchenTools	6	10	[0, 0, 0]	n/a	catFR1	0	R1525J
1519.115	1.6	1653528	WORD	n/a	wordpools/wordpool_categorized_EN.txt	WILLOW	Trees	7	10	[0, 0, 0]	n/a	catFR1	0	R1525J
1520.716	0.85	1655125	WORD_OFF	n/a	n/a	WILLOW	Trees	7	10	[0, 0, 0]	n/a	catFR1	0	R1525J
1521.566	1.6	1655975	WORD	n/a	wordpools/wordpool_categorized_EN.txt	SPRUCE	Trees	8	10	[0, 0, 0]	n/a	catFR1	0	R1525J
1523.181	0.984	1657593	WORD_OFF	n/a	n/a	SPRUCE	Trees	8	10	[0, 0, 0]	n/a	catFR1	0	R1525J
1524.165	1.6	1658578	WORD	n/a	wordpools/wordpool_categorized_EN.txt	HAWK	Birds	9	10	[0, 0, 0]	n/a	catFR1	0	R1525J
1525.765	0.767	1660174	WORD_OFF	n/a	n/a	HAWK	Birds	9	10	[0, 0, 0]	n/a	catFR1	0	R1525J
1526.532	1.6	1660942	WORD	n/a	wordpools/wordpool_categorized_EN.txt	PIGEON	Birds	10	10	[0, 0, 0]	n/a	catFR1	0	R1525J
1528.132	0.867	1662538	WORD_OFF	n/a	n/a	PIGEON	Birds	10	10	[0, 0, 0]	n/a	catFR1	0	R1525J
1528.999	1.6	1663411	WORD	n/a	wordpools/wordpool_categorized_EN.txt	SPOON	KitchenTools	11	10	[0, 0, 0]	n/a	catFR1	0	R1525J
1530.599	1.0	1665007	WORD_OFF	n/a	n/a	SPOON	KitchenTools	11	10	[0, 0, 0]	n/a	catFR1	0	R1525J
1531.599	1.6	1666007	WORD	n/a	wordpools/wordpool_categorized_EN.txt	GRATER	KitchenTools	12	10	[0, 0, 0]	n/a	catFR1	0	R1525J
1533.215	0.0	1667624	START	n/a	n/a	n/a	n/a	-999	10	[-999, -999, -999]	n/a	catFR1	0	R1525J
1533.215	0.0	1667624	PROB	13.017	n/a	n/a	n/a	-999	10	[6, 8, 1]	15.0	catFR1	0	R1525J
1533.214	0.001	1667625	WORD_OFF	n/a	n/a	GRATER	KitchenTools	12	10	[0, 0, 0]	n/a	catFR1	0	R1525J
1533.215	0.0	1667625	ENCODING_END	n/a	n/a	n/a	n/a	-999	10	[0, 0, 0]	n/a	catFR1	0	R1525J
1533.215	13.034	1667625	DISTRACT_START	n/a	n/a	n/a	n/a	-999	10	[0, 0, 0]	n/a	catFR1	0	R1525J
1546.249	5.184	1680658	PROB	5.166	n/a	n/a	n/a	-999	10	[6, 5, 4]	15.0	catFR1	0	R1525J
1551.433	3.349	1685841	PROB	3.331	n/a	n/a	n/a	-999	10	[1, 6, 2]	9.0	catFR1	0	R1525J
1554.782	0.0	1689190	STOP	n/a	n/a	n/a	n/a	-999	10	[-999, -999, -999]	n/a	catFR1	0	R1525J
1554.782	1.633	1689196	DISTRACT_END	n/a	n/a	n/a	n/a	-999	10	[0, 0, 0]	n/a	catFR1	0	R1525J
1556.415	0.742	1690822	REC_START	n/a	n/a	n/a	n/a	-999	10	[0, 0, 0]	n/a	catFR1	0	R1525J
1557.157	0.472	1691565	REC_WORD_VV	0.742	n/a	<>	n/a	-999	10	[0, 0, 0]	n/a	catFR1	0	R1525J
1557.629	1.165	1692037	REC_WORD	1.214	n/a	HICKORY	Trees	1	10	[0, 0, 0]	n/a	catFR1	0	R1525J
1558.794	1.0	1693202	REC_WORD	2.379	n/a	CYPRESS	Trees	2	10	[0, 0, 0]	n/a	catFR1	0	R1525J
1559.794	2.96	1694202	REC_WORD_VV	3.379	n/a	<>	n/a	-999	10	[0, 0, 0]	n/a	catFR1	0	R1525J
1562.754	0.694	1697162	REC_WORD	6.339	n/a	WOODS	Landscapes	-999	10	[0, 0, 0]	n/a	catFR1	0	R1525J
1563.448	1.0	1697856	REC_WORD	7.033	n/a	SPATULA	KitchenTools	6	10	[0, 0, 0]	n/a	catFR1	0	R1525J
1564.448	1.624	1698856	REC_WORD_VV	8.033	n/a	<>	n/a	-999	10	[0, 0, 0]	n/a	catFR1	0	R1525J
1566.072	4.782	1700480	REC_WORD_VV	9.657	n/a	<>	n/a	-999	10	[0, 0, 0]	n/a	catFR1	0	R1525J
1570.854	4.328	1705262	REC_WORD_VV	14.439	n/a	<>	n/a	-999	10	[0, 0, 0]	n/a	catFR1	0	R1525J
1575.182	3.586	1709589	REC_WORD_VV	18.767	n/a	<>	n/a	-999	10	[0, 0, 0]	n/a	catFR1	0	R1525J
1578.768	3.61	1713175	REC_WORD	22.353	n/a	SMOKING	n/a	-999	10	[0, 0, 0]	n/a	catFR1	0	R1525J
1582.378	4.263	1716785	REC_WORD_VV	25.963	n/a	<>	n/a	-999	10	[0, 0, 0]	n/a	catFR1	0	R1525J
1586.641	9.824	1721044	REC_END	n/a	n/a	n/a	n/a	-999	10	[0, 0, 0]	n/a	catFR1	0	R1525J
1596.465	10.0	1730875	COUNTDOWN_START	n/a	n/a	n/a	n/a	-999	10	[0, 0, 0]	n/a	catFR1	0	R1525J
1606.814	0.0	1741220	COUNTDOWN_END	n/a	n/a	n/a	n/a	-999	10	[0, 0, 0]	n/a	catFR1	0	R1525J
1606.814	0.0	1741220	ENCODING_START	n/a	n/a	n/a	n/a	-999	11	[0, 0, 0]	n/a	catFR1	0	R1525J
