onset	duration	sample	trial_type	response_time	stim_file	item_name	category	serialpos	list	test	answer	experiment	session	subject
0.0	1.45	20478	INSTRUCT_START	n/a	n/a	n/a	n/a	-999	-999	[0, 0, 0]	n/a	catFR1	5	R1617S
1.45	50.098	21932	INSTRUCT_END	n/a	n/a	n/a	n/a	-999	-999	[0, 0, 0]	n/a	catFR1	5	R1617S
51.548	10.35	72023	COUNTDOWN_START	n/a	n/a	n/a	n/a	-999	-999	[0, 0, 0]	n/a	catFR1	5	R1617S
61.898	0.0	82375	COUNTDOWN_END	n/a	n/a	n/a	n/a	-999	-999	[0, 0, 0]	n/a	catFR1	5	R1617S
61.898	1.817	82375	ENCODING_START	n/a	n/a	n/a	n/a	-999	-1	[0, 0, 0]	n/a	catFR1	5	R1617S
63.715	1.615	84192	WORD	n/a	n/a	BED	Furniture	1	-1	[0, 0, 0]	n/a	catFR1	5	R1617S
65.33	0.934	85803	WORD_OFF	n/a	n/a	BED	Furniture	1	-1	[0, 0, 0]	n/a	catFR1	5	R1617S
66.264	1.601	86736	WORD	n/a	n/a	TABLE	Furniture	2	-1	[0, 0, 0]	n/a	catFR1	5	R1617S
67.865	0.866	88337	WORD_OFF	n/a	n/a	TABLE	Furniture	2	-1	[0, 0, 0]	n/a	catFR1	5	R1617S
68.731	1.601	89211	WORD	n/a	n/a	FOOTBALL	Toys	3	-1	[0, 0, 0]	n/a	catFR1	5	R1617S
70.332	0.8	90812	WORD_OFF	n/a	n/a	FOOTBALL	Toys	3	-1	[0, 0, 0]	n/a	catFR1	5	R1617S
71.132	1.6	91607	WORD	n/a	n/a	BASKETBALL	Toys	4	-1	[0, 0, 0]	n/a	catFR1	5	R1617S
72.732	0.883	93208	WORD_OFF	n/a	n/a	BASKETBALL	Toys	4	-1	[0, 0, 0]	n/a	catFR1	5	R1617S
73.615	1.6	94092	WORD	n/a	n/a	MILK	Beverages	5	-1	[0, 0, 0]	n/a	catFR1	5	R1617S
75.215	0.9	95693	WORD_OFF	n/a	n/a	MILK	Beverages	5	-1	[0, 0, 0]	n/a	catFR1	5	R1617S
76.115	1.6	96587	WORD	n/a	n/a	WATER	Beverages	6	-1	[0, 0, 0]	n/a	catFR1	5	R1617S
77.715	0.9	98188	WORD_OFF	n/a	n/a	WATER	Beverages	6	-1	[0, 0, 0]	n/a	catFR1	5	R1617S
78.615	1.617	99091	WORD	n/a	n/a	MARBLES	Toys	7	-1	[0, 0, 0]	n/a	catFR1	5	R1617S
80.232	0.949	100702	WORD_OFF	n/a	n/a	MARBLES	Toys	7	-1	[0, 0, 0]	n/a	catFR1	5	R1617S
81.181	1.6	101655	WORD	n/a	n/a	DOLL	Toys	8	-1	[0, 0, 0]	n/a	catFR1	5	R1617S
82.781	1.001	103256	WORD_OFF	n/a	n/a	DOLL	Toys	8	-1	[0, 0, 0]	n/a	catFR1	5	R1617S
83.782	1.616	104258	WORD	n/a	n/a	RUM	Beverages	9	-1	[0, 0, 0]	n/a	catFR1	5	R1617S
85.398	0.983	105868	WORD_OFF	n/a	n/a	RUM	Beverages	9	-1	[0, 0, 0]	n/a	catFR1	5	R1617S
86.381	1.617	106860	WORD	n/a	n/a	BEER	Beverages	10	-1	[0, 0, 0]	n/a	catFR1	5	R1617S
87.998	0.851	108471	WORD_OFF	n/a	n/a	BEER	Beverages	10	-1	[0, 0, 0]	n/a	catFR1	5	R1617S
88.849	1.616	109326	WORD	n/a	n/a	CABINET	Furniture	11	-1	[0, 0, 0]	n/a	catFR1	5	R1617S
90.465	0.867	110936	WORD_OFF	n/a	n/a	CABINET	Furniture	11	-1	[0, 0, 0]	n/a	catFR1	5	R1617S
91.332	1.618	111811	WORD	n/a	n/a	SOFA	Furniture	12	-1	[0, 0, 0]	n/a	catFR1	5	R1617S
92.95	0.0	113420	START	n/a	n/a	n/a	n/a	-999	-1	[-999, -999, -999]	n/a	catFR1	5	R1617S
92.95	0.0	113420	PROB	0.0	n/a	n/a	n/a	-999	-1	[1, 6, 3]	10	catFR1	5	R1617S
92.948	0.002	113421	WORD_OFF	n/a	n/a	SOFA	Furniture	12	-1	[0, 0, 0]	n/a	catFR1	5	R1617S
92.95	0.0	113421	ENCODING_END	n/a	n/a	n/a	n/a	-999	-1	[0, 0, 0]	n/a	catFR1	5	R1617S
92.95	5.815	113431	DISTRACT_START	n/a	n/a	n/a	n/a	-999	-1	[0, 0, 0]	n/a	catFR1	5	R1617S
98.765	3.85	119235	PROB	3.85	n/a	n/a	n/a	-999	-1	[7, 3, 2]	12	catFR1	5	R1617S
102.615	7.183	123084	PROB	7.183	n/a	n/a	n/a	-999	-1	[6, 8, 6]	20	catFR1	5	R1617S
109.798	7.517	130267	PROB	7.517	n/a	n/a	n/a	-999	-1	[4, 8, 2]	14	catFR1	5	R1617S
117.315	0.0	137784	STOP	n/a	n/a	n/a	n/a	-999	-1	[-999, -999, -999]	n/a	catFR1	5	R1617S
117.315	2.317	137789	DISTRACT_END	n/a	n/a	n/a	n/a	-999	-1	[0, 0, 0]	n/a	catFR1	5	R1617S
119.632	1.49	140105	REC_START	n/a	n/a	n/a	n/a	-999	-1	[0, 0, 0]	n/a	catFR1	5	R1617S
121.122	1.556	141591	REC_WORD	1.556	n/a	BED	Furniture	1	-1	[0, 0, 0]	n/a	catFR1	5	R1617S
122.678	3.087	143147	REC_WORD	3.087	n/a	FOOTBALL	Toys	3	-1	[0, 0, 0]	n/a	catFR1	5	R1617S
125.765	3.827	146233	REC_WORD_VV	3.827	n/a	<>	n/a	-999	-1	[0, 0, 0]	n/a	catFR1	5	R1617S
129.592	4.046	150060	REC_WORD	4.046	n/a	NOTES	n/a	-999	-1	[0, 0, 0]	n/a	catFR1	5	R1617S
133.638	3.978	154106	REC_WORD_VV	3.978	n/a	<>	n/a	-999	-1	[0, 0, 0]	n/a	catFR1	5	R1617S
137.616	6.538	158084	REC_WORD_VV	6.538	n/a	<>	n/a	-999	-1	[0, 0, 0]	n/a	catFR1	5	R1617S
144.154	2.24	164621	REC_WORD_VV	2.24	n/a	<>	n/a	-999	-1	[0, 0, 0]	n/a	catFR1	5	R1617S
146.394	1.503	166861	REC_WORD_VV	1.503	n/a	<>	n/a	-999	-1	[0, 0, 0]	n/a	catFR1	5	R1617S
147.897	1.938	168364	REC_WORD_VV	1.938	n/a	<>	n/a	-999	-1	[0, 0, 0]	n/a	catFR1	5	R1617S
149.835	22.73	170309	REC_END	n/a	n/a	n/a	n/a	-999	-1	[0, 0, 0]	n/a	catFR1	5	R1617S
172.565	10.349	193037	COUNTDOWN_START	n/a	n/a	n/a	n/a	-999	1	[0, 0, 0]	n/a	catFR1	5	R1617S
182.914	0.0	203379	COUNTDOWN_END	n/a	n/a	n/a	n/a	-999	1	[0, 0, 0]	n/a	catFR1	5	R1617S
182.914	2.301	203389	ENCODING_START	n/a	n/a	n/a	n/a	-999	1	[0, 0, 0]	n/a	catFR1	5	R1617S
185.215	1.6	205687	WORD	n/a	wordpools/wordpool_categorized_EN.txt	COUCH	Furniture	1	1	[0, 0, 0]	n/a	catFR1	5	R1617S
186.815	0.95	207288	WORD_OFF	n/a	n/a	COUCH	Furniture	1	1	[0, 0, 0]	n/a	catFR1	5	R1617S
187.765	1.616	208231	WORD	n/a	wordpools/wordpool_categorized_EN.txt	DRESSER	Furniture	2	1	[0, 0, 0]	n/a	catFR1	5	R1617S
189.381	0.968	209852	WORD_OFF	n/a	n/a	DRESSER	Furniture	2	1	[0, 0, 0]	n/a	catFR1	5	R1617S
190.349	1.599	210814	WORD	n/a	wordpools/wordpool_categorized_EN.txt	MOTH	Insects	3	1	[0, 0, 0]	n/a	catFR1	5	R1617S
191.948	0.934	212415	WORD_OFF	n/a	n/a	MOTH	Insects	3	1	[0, 0, 0]	n/a	catFR1	5	R1617S
192.882	1.6	213348	WORD	n/a	wordpools/wordpool_categorized_EN.txt	SPIDER	Insects	4	1	[0, 0, 0]	n/a	catFR1	5	R1617S
194.482	0.949	214949	WORD_OFF	n/a	n/a	SPIDER	Insects	4	1	[0, 0, 0]	n/a	catFR1	5	R1617S
195.431	1.601	215902	WORD	n/a	wordpools/wordpool_categorized_EN.txt	JELLO	Desserts	5	1	[0, 0, 0]	n/a	catFR1	5	R1617S
197.032	0.833	217503	WORD_OFF	n/a	n/a	JELLO	Desserts	5	1	[0, 0, 0]	n/a	catFR1	5	R1617S
197.865	1.6	218338	WORD	n/a	wordpools/wordpool_categorized_EN.txt	BROWNIES	Desserts	6	1	[0, 0, 0]	n/a	catFR1	5	R1617S
199.465	0.95	219939	WORD_OFF	n/a	n/a	BROWNIES	Desserts	6	1	[0, 0, 0]	n/a	catFR1	5	R1617S
200.415	1.6	220881	WORD	n/a	wordpools/wordpool_categorized_EN.txt	NIGHTSTAND	Furniture	7	1	[0, 0, 0]	n/a	catFR1	5	R1617S
202.015	0.899	222482	WORD_OFF	n/a	n/a	NIGHTSTAND	Furniture	7	1	[0, 0, 0]	n/a	catFR1	5	R1617S
202.914	1.601	223386	WORD	n/a	wordpools/wordpool_categorized_EN.txt	CHAIR	Furniture	8	1	[0, 0, 0]	n/a	catFR1	5	R1617S
204.515	0.917	224987	WORD_OFF	n/a	n/a	CHAIR	Furniture	8	1	[0, 0, 0]	n/a	catFR1	5	R1617S
205.432	1.616	225900	WORD	n/a	wordpools/wordpool_categorized_EN.txt	CAKE	Desserts	9	1	[0, 0, 0]	n/a	catFR1	5	R1617S
207.048	0.9	227521	WORD_OFF	n/a	n/a	CAKE	Desserts	9	1	[0, 0, 0]	n/a	catFR1	5	R1617S
207.948	1.617	228415	WORD	n/a	wordpools/wordpool_categorized_EN.txt	PIE	Desserts	10	1	[0, 0, 0]	n/a	catFR1	5	R1617S
209.565	0.8	230035	WORD_OFF	n/a	n/a	PIE	Desserts	10	1	[0, 0, 0]	n/a	catFR1	5	R1617S
210.365	1.6	230831	WORD	n/a	wordpools/wordpool_categorized_EN.txt	LADYBUG	Insects	11	1	[0, 0, 0]	n/a	catFR1	5	R1617S
211.965	1.0	232432	WORD_OFF	n/a	n/a	LADYBUG	Insects	11	1	[0, 0, 0]	n/a	catFR1	5	R1617S
212.965	1.601	233434	WORD	n/a	wordpools/wordpool_categorized_EN.txt	MOSQUITO	Insects	12	1	[0, 0, 0]	n/a	catFR1	5	R1617S
214.566	0.003	235030	PROB	0.003	n/a	n/a	n/a	-999	1	[6, 1, 5]	13	catFR1	5	R1617S
214.569	0.0	235033	START	n/a	n/a	n/a	n/a	-999	1	[-999, -999, -999]	n/a	catFR1	5	R1617S
214.565	0.004	235035	WORD_OFF	n/a	n/a	MOSQUITO	Insects	12	1	[0, 0, 0]	n/a	catFR1	5	R1617S
214.569	0.0	235035	ENCODING_END	n/a	n/a	n/a	n/a	-999	1	[0, 0, 0]	n/a	catFR1	5	R1617S
214.569	7.963	235044	DISTRACT_START	n/a	n/a	n/a	n/a	-999	1	[0, 0, 0]	n/a	catFR1	5	R1617S
222.532	6.651	242996	PROB	6.651	n/a	n/a	n/a	-999	1	[5, 1, 3]	9	catFR1	5	R1617S
229.183	5.016	249646	PROB	5.016	n/a	n/a	n/a	-999	1	[6, 2, 3]	11	catFR1	5	R1617S
234.199	10.166	254662	PROB	10.166	n/a	n/a	n/a	-999	1	[3, 8, 5]	16	catFR1	5	R1617S
244.365	0.0	264828	STOP	n/a	n/a	n/a	n/a	-999	1	[-999, -999, -999]	n/a	catFR1	5	R1617S
244.365	2.083	264834	DISTRACT_END	n/a	n/a	n/a	n/a	-999	1	[0, 0, 0]	n/a	catFR1	5	R1617S
246.448	1.229	266914	REC_START	n/a	n/a	n/a	n/a	-999	1	[0, 0, 0]	n/a	catFR1	5	R1617S
247.677	1.303	268140	REC_WORD	1.303	n/a	BED	Furniture	-999	1	[0, 0, 0]	n/a	catFR1	5	R1617S
248.98	1.585	269442	REC_WORD	1.585	n/a	MOTH	Insects	3	1	[0, 0, 0]	n/a	catFR1	5	R1617S
250.565	4.896	271027	REC_WORD	4.896	n/a	MOSQUITO	Insects	12	1	[0, 0, 0]	n/a	catFR1	5	R1617S
255.461	3.765	275923	REC_WORD_VV	3.765	n/a	<>	n/a	-999	1	[0, 0, 0]	n/a	catFR1	5	R1617S
259.226	4.749	279688	REC_WORD_VV	4.749	n/a	<>	n/a	-999	1	[0, 0, 0]	n/a	catFR1	5	R1617S
263.975	3.612	284437	REC_WORD	3.612	n/a	COUCH	Furniture	1	1	[0, 0, 0]	n/a	catFR1	5	R1617S
267.587	9.056	288049	REC_WORD	9.056	n/a	CHAIR	Furniture	8	1	[0, 0, 0]	n/a	catFR1	5	R1617S
276.643	27.522	297108	REC_END	n/a	n/a	n/a	n/a	-999	1	[0, 0, 0]	n/a	catFR1	5	R1617S
304.165	10.35	324629	COUNTDOWN_START	n/a	n/a	n/a	n/a	-999	2	[0, 0, 0]	n/a	catFR1	5	R1617S
314.515	0.001	334981	COUNTDOWN_END	n/a	n/a	n/a	n/a	-999	2	[0, 0, 0]	n/a	catFR1	5	R1617S
314.516	2.182	334981	ENCODING_START	n/a	n/a	n/a	n/a	-999	2	[0, 0, 0]	n/a	catFR1	5	R1617S
316.698	1.601	337161	WORD	n/a	wordpools/wordpool_categorized_EN.txt	LOBSTER	OceanAnimals	1	2	[0, 0, 0]	n/a	catFR1	5	R1617S
318.299	0.883	338762	WORD_OFF	n/a	n/a	LOBSTER	OceanAnimals	1	2	[0, 0, 0]	n/a	catFR1	5	R1617S
319.182	1.617	339646	WORD	n/a	wordpools/wordpool_categorized_EN.txt	WHALE	OceanAnimals	2	2	[0, 0, 0]	n/a	catFR1	5	R1617S
320.799	0.833	341257	WORD_OFF	n/a	n/a	WHALE	OceanAnimals	2	2	[0, 0, 0]	n/a	catFR1	5	R1617S
321.632	1.616	342092	WORD	n/a	wordpools/wordpool_categorized_EN.txt	RATCHET	Tools	3	2	[0, 0, 0]	n/a	catFR1	5	R1617S
323.248	0.95	343713	WORD_OFF	n/a	n/a	RATCHET	Tools	3	2	[0, 0, 0]	n/a	catFR1	5	R1617S
324.198	1.617	344665	WORD	n/a	wordpools/wordpool_categorized_EN.txt	DRILL	Tools	4	2	[0, 0, 0]	n/a	catFR1	5	R1617S
325.815	0.883	346276	WORD_OFF	n/a	n/a	DRILL	Tools	4	2	[0, 0, 0]	n/a	catFR1	5	R1617S
326.698	1.6	347160	WORD	n/a	wordpools/wordpool_categorized_EN.txt	SODA	Beverages	5	2	[0, 0, 0]	n/a	catFR1	5	R1617S
328.298	0.9	348761	WORD_OFF	n/a	n/a	SODA	Beverages	5	2	[0, 0, 0]	n/a	catFR1	5	R1617S
329.198	1.6	349665	WORD	n/a	wordpools/wordpool_categorized_EN.txt	COFFEE	Beverages	6	2	[0, 0, 0]	n/a	catFR1	5	R1617S
330.798	0.916	351256	WORD_OFF	n/a	n/a	COFFEE	Beverages	6	2	[0, 0, 0]	n/a	catFR1	5	R1617S
331.714	1.601	352179	WORD	n/a	wordpools/wordpool_categorized_EN.txt	LEVEL	Tools	7	2	[0, 0, 0]	n/a	catFR1	5	R1617S
333.315	0.783	353780	WORD_OFF	n/a	n/a	LEVEL	Tools	7	2	[0, 0, 0]	n/a	catFR1	5	R1617S
334.098	1.6	354556	WORD	n/a	wordpools/wordpool_categorized_EN.txt	SHOVEL	Tools	8	2	[0, 0, 0]	n/a	catFR1	5	R1617S
335.698	0.95	356157	WORD_OFF	n/a	n/a	SHOVEL	Tools	8	2	[0, 0, 0]	n/a	catFR1	5	R1617S
336.648	1.6	357109	WORD	n/a	wordpools/wordpool_categorized_EN.txt	COLA	Beverages	9	2	[0, 0, 0]	n/a	catFR1	5	R1617S
338.248	0.817	358710	WORD_OFF	n/a	n/a	COLA	Beverages	9	2	[0, 0, 0]	n/a	catFR1	5	R1617S
339.065	1.616	359526	WORD	n/a	wordpools/wordpool_categorized_EN.txt	CIDER	Beverages	10	2	[0, 0, 0]	n/a	catFR1	5	R1617S
340.681	0.818	361146	WORD_OFF	n/a	n/a	CIDER	Beverages	10	2	[0, 0, 0]	n/a	catFR1	5	R1617S
341.499	1.616	361961	WORD	n/a	wordpools/wordpool_categorized_EN.txt	OYSTER	OceanAnimals	11	2	[0, 0, 0]	n/a	catFR1	5	R1617S
343.115	0.866	363572	WORD_OFF	n/a	n/a	OYSTER	OceanAnimals	11	2	[0, 0, 0]	n/a	catFR1	5	R1617S
343.981	1.601	364446	WORD	n/a	wordpools/wordpool_categorized_EN.txt	FISH	OceanAnimals	12	2	[0, 0, 0]	n/a	catFR1	5	R1617S
345.582	0.001	366040	PROB	0.001	n/a	n/a	n/a	-999	2	[2, 8, 3]	12	catFR1	5	R1617S
345.583	0.0	366041	START	n/a	n/a	n/a	n/a	-999	2	[-999, -999, -999]	n/a	catFR1	5	R1617S
345.582	0.001	366047	WORD_OFF	n/a	n/a	FISH	OceanAnimals	12	2	[0, 0, 0]	n/a	catFR1	5	R1617S
345.583	0.0	366047	ENCODING_END	n/a	n/a	n/a	n/a	-999	2	[0, 0, 0]	n/a	catFR1	5	R1617S
345.583	5.749	366047	DISTRACT_START	n/a	n/a	n/a	n/a	-999	2	[0, 0, 0]	n/a	catFR1	5	R1617S
351.332	10.734	371789	PROB	10.734	n/a	n/a	n/a	-999	2	[1, 3, 5]	9	catFR1	5	R1617S
362.066	10.349	382523	PROB	10.349	n/a	n/a	n/a	-999	2	[7, 2, 8]	17	catFR1	5	R1617S
372.415	0.0	392871	STOP	n/a	n/a	n/a	n/a	-999	2	[-999, -999, -999]	n/a	catFR1	5	R1617S
372.415	2.3	392880	DISTRACT_END	n/a	n/a	n/a	n/a	-999	2	[0, 0, 0]	n/a	catFR1	5	R1617S
374.715	2.413	395177	REC_START	n/a	n/a	n/a	n/a	-999	2	[0, 0, 0]	n/a	catFR1	5	R1617S
377.128	1.993	397584	REC_WORD	1.993	n/a	LOBSTER	OceanAnimals	1	2	[0, 0, 0]	n/a	catFR1	5	R1617S
379.121	2.531	399577	REC_WORD	2.531	n/a	WHALE	OceanAnimals	2	2	[0, 0, 0]	n/a	catFR1	5	R1617S
381.652	2.271	402108	REC_WORD	2.271	n/a	RATCHET	Tools	3	2	[0, 0, 0]	n/a	catFR1	5	R1617S
383.923	2.91	404379	REC_WORD	2.91	n/a	LEVEL	Tools	7	2	[0, 0, 0]	n/a	catFR1	5	R1617S
386.833	18.079	407289	REC_WORD	18.079	n/a	OYSTER	OceanAnimals	11	2	[0, 0, 0]	n/a	catFR1	5	R1617S
404.912	10.236	425371	REC_END	n/a	n/a	n/a	n/a	-999	2	[0, 0, 0]	n/a	catFR1	5	R1617S
415.148	10.351	435605	COUNTDOWN_START	n/a	n/a	n/a	n/a	-999	3	[0, 0, 0]	n/a	catFR1	5	R1617S
425.499	0.0	445957	COUNTDOWN_END	n/a	n/a	n/a	n/a	-999	3	[0, 0, 0]	n/a	catFR1	5	R1617S
425.499	2.099	445957	ENCODING_START	n/a	n/a	n/a	n/a	-999	3	[0, 0, 0]	n/a	catFR1	5	R1617S
427.598	1.617	448059	WORD	n/a	wordpools/wordpool_categorized_EN.txt	HUMIDITY	Weather	1	3	[0, 0, 0]	n/a	catFR1	5	R1617S
429.215	1.0	449670	WORD_OFF	n/a	n/a	HUMIDITY	Weather	1	3	[0, 0, 0]	n/a	catFR1	5	R1617S
430.215	1.617	450672	WORD	n/a	wordpools/wordpool_categorized_EN.txt	FOG	Weather	2	3	[0, 0, 0]	n/a	catFR1	5	R1617S
431.832	0.982	452292	WORD_OFF	n/a	n/a	FOG	Weather	2	3	[0, 0, 0]	n/a	catFR1	5	R1617S
432.814	1.6	453274	WORD	n/a	wordpools/wordpool_categorized_EN.txt	COTTON	Fabric	3	3	[0, 0, 0]	n/a	catFR1	5	R1617S
434.414	0.918	454875	WORD_OFF	n/a	n/a	COTTON	Fabric	3	3	[0, 0, 0]	n/a	catFR1	5	R1617S
435.332	1.616	455789	WORD	n/a	wordpools/wordpool_categorized_EN.txt	VELVET	Fabric	4	3	[0, 0, 0]	n/a	catFR1	5	R1617S
436.948	0.934	457409	WORD_OFF	n/a	n/a	VELVET	Fabric	4	3	[0, 0, 0]	n/a	catFR1	5	R1617S
437.882	1.6	458343	WORD	n/a	wordpools/wordpool_categorized_EN.txt	LILAC	Flowers	5	3	[0, 0, 0]	n/a	catFR1	5	R1617S
439.482	0.8	459943	WORD_OFF	n/a	n/a	LILAC	Flowers	5	3	[0, 0, 0]	n/a	catFR1	5	R1617S
440.282	1.617	460739	WORD	n/a	wordpools/wordpool_categorized_EN.txt	SUNFLOWER	Flowers	6	3	[0, 0, 0]	n/a	catFR1	5	R1617S
441.899	0.949	462360	WORD_OFF	n/a	n/a	SUNFLOWER	Flowers	6	3	[0, 0, 0]	n/a	catFR1	5	R1617S
442.848	1.617	463303	WORD	n/a	wordpools/wordpool_categorized_EN.txt	LEATHER	Fabric	7	3	[0, 0, 0]	n/a	catFR1	5	R1617S
444.465	0.817	464923	WORD_OFF	n/a	n/a	LEATHER	Fabric	7	3	[0, 0, 0]	n/a	catFR1	5	R1617S
445.282	1.616	465738	WORD	n/a	wordpools/wordpool_categorized_EN.txt	SUEDE	Fabric	8	3	[0, 0, 0]	n/a	catFR1	5	R1617S
446.898	0.967	467359	WORD_OFF	n/a	n/a	SUEDE	Fabric	8	3	[0, 0, 0]	n/a	catFR1	5	R1617S
447.865	1.6	468321	WORD	n/a	wordpools/wordpool_categorized_EN.txt	SNOW	Weather	9	3	[0, 0, 0]	n/a	catFR1	5	R1617S
449.465	0.883	469922	WORD_OFF	n/a	n/a	SNOW	Weather	9	3	[0, 0, 0]	n/a	catFR1	5	R1617S
450.348	1.6	470806	WORD	n/a	wordpools/wordpool_categorized_EN.txt	THUNDERSTORM	Weather	10	3	[0, 0, 0]	n/a	catFR1	5	R1617S
451.948	0.967	472407	WORD_OFF	n/a	n/a	THUNDERSTORM	Weather	10	3	[0, 0, 0]	n/a	catFR1	5	R1617S
452.915	1.6	473370	WORD	n/a	wordpools/wordpool_categorized_EN.txt	TULIP	Flowers	11	3	[0, 0, 0]	n/a	catFR1	5	R1617S
454.515	0.799	474971	WORD_OFF	n/a	n/a	TULIP	Flowers	11	3	[0, 0, 0]	n/a	catFR1	5	R1617S
455.314	1.601	475766	WORD	n/a	wordpools/wordpool_categorized_EN.txt	DAFFODIL	Flowers	12	3	[0, 0, 0]	n/a	catFR1	5	R1617S
456.915	0.001	477367	WORD_OFF	n/a	n/a	DAFFODIL	Flowers	12	3	[0, 0, 0]	n/a	catFR1	5	R1617S
456.916	0.001	477368	PROB	0.001	n/a	n/a	n/a	-999	3	[6, 5, 8]	19	catFR1	5	R1617S
456.917	0.0	477369	START	n/a	n/a	n/a	n/a	-999	3	[-999, -999, -999]	n/a	catFR1	5	R1617S
456.917	0.0	477377	ENCODING_END	n/a	n/a	n/a	n/a	-999	3	[0, 0, 0]	n/a	catFR1	5	R1617S
456.917	9.065	477377	DISTRACT_START	n/a	n/a	n/a	n/a	-999	3	[0, 0, 0]	n/a	catFR1	5	R1617S
465.982	4.05	486434	PROB	4.05	n/a	n/a	n/a	-999	3	[7, 5, 5]	17	catFR1	5	R1617S
470.032	6.233	490484	PROB	6.233	n/a	n/a	n/a	-999	3	[5, 8, 7]	20	catFR1	5	R1617S
476.265	6.4	496716	PROB	6.4	n/a	n/a	n/a	-999	3	[2, 4, 1]	7	catFR1	5	R1617S
482.665	0.0	503116	STOP	n/a	n/a	n/a	n/a	-999	3	[-999, -999, -999]	n/a	catFR1	5	R1617S
482.665	2.25	503120	DISTRACT_END	n/a	n/a	n/a	n/a	-999	3	[0, 0, 0]	n/a	catFR1	5	R1617S
484.915	1.65	505367	REC_START	n/a	n/a	n/a	n/a	-999	3	[0, 0, 0]	n/a	catFR1	5	R1617S
486.565	1.289	507016	REC_WORD	1.289	n/a	LILAC	Flowers	5	3	[0, 0, 0]	n/a	catFR1	5	R1617S
487.854	3.167	508305	REC_WORD	3.167	n/a	THUNDERSTORM	Weather	10	3	[0, 0, 0]	n/a	catFR1	5	R1617S
491.021	5.933	511472	REC_WORD	5.933	n/a	WEATHER	n/a	-999	3	[0, 0, 0]	n/a	catFR1	5	R1617S
496.954	12.973	517405	REC_WORD_VV	12.973	n/a	<>	n/a	-999	3	[0, 0, 0]	n/a	catFR1	5	R1617S
509.927	0.608	530377	REC_WORD	0.608	n/a	BOAT	n/a	-999	3	[0, 0, 0]	n/a	catFR1	5	R1617S
510.535	1.142	530985	REC_WORD	1.142	n/a	LEATHER	Fabric	7	3	[0, 0, 0]	n/a	catFR1	5	R1617S
511.677	2.531	532127	REC_WORD	2.531	n/a	SUEDE	Fabric	8	3	[0, 0, 0]	n/a	catFR1	5	R1617S
514.208	0.938	534658	REC_WORD_VV	0.938	n/a	<>	n/a	-999	3	[0, 0, 0]	n/a	catFR1	5	R1617S
515.146	15.569	535601	REC_END	n/a	n/a	n/a	n/a	-999	3	[0, 0, 0]	n/a	catFR1	5	R1617S
530.715	10.35	551168	COUNTDOWN_START	n/a	n/a	n/a	n/a	-999	4	[0, 0, 0]	n/a	catFR1	5	R1617S
541.065	0.0	561520	COUNTDOWN_END	n/a	n/a	n/a	n/a	-999	4	[0, 0, 0]	n/a	catFR1	5	R1617S
541.065	1.834	561520	ENCODING_START	n/a	n/a	n/a	n/a	-999	4	[0, 0, 0]	n/a	catFR1	5	R1617S
542.899	1.6	563347	WORD	n/a	wordpools/wordpool_categorized_EN.txt	COLANDER	KitchenTools	1	4	[0, 0, 0]	n/a	catFR1	5	R1617S
544.499	0.766	564948	WORD_OFF	n/a	n/a	COLANDER	KitchenTools	1	4	[0, 0, 0]	n/a	catFR1	5	R1617S
545.265	1.6	565724	WORD	n/a	wordpools/wordpool_categorized_EN.txt	LADLE	KitchenTools	2	4	[0, 0, 0]	n/a	catFR1	5	R1617S
546.865	0.817	567315	WORD_OFF	n/a	n/a	LADLE	KitchenTools	2	4	[0, 0, 0]	n/a	catFR1	5	R1617S
547.682	1.616	568130	WORD	n/a	wordpools/wordpool_categorized_EN.txt	PANTS	Clothing	3	4	[0, 0, 0]	n/a	catFR1	5	R1617S
549.298	0.916	569751	WORD_OFF	n/a	n/a	PANTS	Clothing	3	4	[0, 0, 0]	n/a	catFR1	5	R1617S
550.214	1.601	570664	WORD	n/a	wordpools/wordpool_categorized_EN.txt	BLOUSE	Clothing	4	4	[0, 0, 0]	n/a	catFR1	5	R1617S
551.815	0.967	572265	WORD_OFF	n/a	n/a	BLOUSE	Clothing	4	4	[0, 0, 0]	n/a	catFR1	5	R1617S
552.782	1.6	573238	WORD	n/a	wordpools/wordpool_categorized_EN.txt	LIME	Fruit	5	4	[0, 0, 0]	n/a	catFR1	5	R1617S
554.382	0.999	574829	WORD_OFF	n/a	n/a	LIME	Fruit	5	4	[0, 0, 0]	n/a	catFR1	5	R1617S
555.381	1.601	575831	WORD	n/a	wordpools/wordpool_categorized_EN.txt	PLUM	Fruit	6	4	[0, 0, 0]	n/a	catFR1	5	R1617S
556.982	0.95	577432	WORD_OFF	n/a	n/a	PLUM	Fruit	6	4	[0, 0, 0]	n/a	catFR1	5	R1617S
557.932	1.6	578384	WORD	n/a	wordpools/wordpool_categorized_EN.txt	COAT	Clothing	7	4	[0, 0, 0]	n/a	catFR1	5	R1617S
559.532	0.783	579985	WORD_OFF	n/a	n/a	COAT	Clothing	7	4	[0, 0, 0]	n/a	catFR1	5	R1617S
560.315	1.6	580771	WORD	n/a	wordpools/wordpool_categorized_EN.txt	SHOES	Clothing	8	4	[0, 0, 0]	n/a	catFR1	5	R1617S
561.915	0.817	582362	WORD_OFF	n/a	n/a	SHOES	Clothing	8	4	[0, 0, 0]	n/a	catFR1	5	R1617S
562.732	1.617	583187	WORD	n/a	wordpools/wordpool_categorized_EN.txt	STRAWBERRY	Fruit	9	4	[0, 0, 0]	n/a	catFR1	5	R1617S
564.349	0.982	584798	WORD_OFF	n/a	n/a	STRAWBERRY	Fruit	9	4	[0, 0, 0]	n/a	catFR1	5	R1617S
565.331	1.601	585780	WORD	n/a	wordpools/wordpool_categorized_EN.txt	BANANA	Fruit	10	4	[0, 0, 0]	n/a	catFR1	5	R1617S
566.932	0.883	587381	WORD_OFF	n/a	n/a	BANANA	Fruit	10	4	[0, 0, 0]	n/a	catFR1	5	R1617S
567.815	1.6	588265	WORD	n/a	wordpools/wordpool_categorized_EN.txt	FORK	KitchenTools	11	4	[0, 0, 0]	n/a	catFR1	5	R1617S
569.415	0.783	589866	WORD_OFF	n/a	n/a	FORK	KitchenTools	11	4	[0, 0, 0]	n/a	catFR1	5	R1617S
570.198	1.617	590652	WORD	n/a	wordpools/wordpool_categorized_EN.txt	CORKSCREW	KitchenTools	12	4	[0, 0, 0]	n/a	catFR1	5	R1617S
571.815	0.001	592262	WORD_OFF	n/a	n/a	CORKSCREW	KitchenTools	12	4	[0, 0, 0]	n/a	catFR1	5	R1617S
571.816	0.001	592263	PROB	0.001	n/a	n/a	n/a	-999	4	[6, 1, 2]	9	catFR1	5	R1617S
571.817	0.0	592264	START	n/a	n/a	n/a	n/a	-999	4	[-999, -999, -999]	n/a	catFR1	5	R1617S
571.817	0.0	592272	ENCODING_END	n/a	n/a	n/a	n/a	-999	4	[0, 0, 0]	n/a	catFR1	5	R1617S
571.817	7.181	592272	DISTRACT_START	n/a	n/a	n/a	n/a	-999	4	[0, 0, 0]	n/a	catFR1	5	R1617S
578.998	4.617	599445	PROB	4.617	n/a	n/a	n/a	-999	4	[8, 7, 4]	19	catFR1	5	R1617S
583.615	6.367	604061	PROB	6.367	n/a	n/a	n/a	-999	4	[2, 8, 8]	18	catFR1	5	R1617S
589.982	5.999	610428	PROB	5.999	n/a	n/a	n/a	-999	4	[1, 8, 8]	17	catFR1	5	R1617S
595.981	0.0	616427	STOP	n/a	n/a	n/a	n/a	-999	4	[-999, -999, -999]	n/a	catFR1	5	R1617S
595.981	2.117	616434	DISTRACT_END	n/a	n/a	n/a	n/a	-999	4	[0, 0, 0]	n/a	catFR1	5	R1617S
598.098	0.846	618544	REC_START	n/a	n/a	n/a	n/a	-999	4	[0, 0, 0]	n/a	catFR1	5	R1617S
598.944	1.872	619390	REC_WORD_VV	1.872	n/a	<>	n/a	-999	4	[0, 0, 0]	n/a	catFR1	5	R1617S
600.816	3.306	621262	REC_WORD	3.306	n/a	LADLE	KitchenTools	2	4	[0, 0, 0]	n/a	catFR1	5	R1617S
604.122	1.161	624567	REC_WORD	1.161	n/a	PANTS	Clothing	3	4	[0, 0, 0]	n/a	catFR1	5	R1617S
605.283	1.245	625728	REC_WORD	1.245	n/a	BLOUSE	Clothing	4	4	[0, 0, 0]	n/a	catFR1	5	R1617S
606.528	1.989	626973	REC_WORD	1.989	n/a	SHOES	Clothing	8	4	[0, 0, 0]	n/a	catFR1	5	R1617S
608.517	19.332	628962	REC_WORD	19.332	n/a	PLUM	Fruit	6	4	[0, 0, 0]	n/a	catFR1	5	R1617S
627.849	0.489	648293	REC_WORD_VV	0.489	n/a	<>	n/a	-999	4	[0, 0, 0]	n/a	catFR1	5	R1617S
628.338	7.326	648787	REC_END	n/a	n/a	n/a	n/a	-999	4	[0, 0, 0]	n/a	catFR1	5	R1617S
635.664	10.35	656114	COUNTDOWN_START	n/a	n/a	n/a	n/a	-999	5	[0, 0, 0]	n/a	catFR1	5	R1617S
646.014	0.001	666466	COUNTDOWN_END	n/a	n/a	n/a	n/a	-999	5	[0, 0, 0]	n/a	catFR1	5	R1617S
646.015	1.884	666466	ENCODING_START	n/a	n/a	n/a	n/a	-999	5	[0, 0, 0]	n/a	catFR1	5	R1617S
647.899	1.599	668342	WORD	n/a	wordpools/wordpool_categorized_EN.txt	LETTUCE	Vegetables	1	5	[0, 0, 0]	n/a	catFR1	5	R1617S
649.498	0.767	669943	WORD_OFF	n/a	n/a	LETTUCE	Vegetables	1	5	[0, 0, 0]	n/a	catFR1	5	R1617S
650.265	1.616	670709	WORD	n/a	wordpools/wordpool_categorized_EN.txt	BROCCOLI	Vegetables	2	5	[0, 0, 0]	n/a	catFR1	5	R1617S
651.881	0.801	672330	WORD_OFF	n/a	n/a	BROCCOLI	Vegetables	2	5	[0, 0, 0]	n/a	catFR1	5	R1617S
652.682	1.617	673125	WORD	n/a	wordpools/wordpool_categorized_EN.txt	PEACH	Fruit	3	5	[0, 0, 0]	n/a	catFR1	5	R1617S
654.299	0.983	674746	WORD_OFF	n/a	n/a	PEACH	Fruit	3	5	[0, 0, 0]	n/a	catFR1	5	R1617S
655.282	1.6	675728	WORD	n/a	wordpools/wordpool_categorized_EN.txt	PEAR	Fruit	4	5	[0, 0, 0]	n/a	catFR1	5	R1617S
656.882	1.0	677329	WORD_OFF	n/a	n/a	PEAR	Fruit	4	5	[0, 0, 0]	n/a	catFR1	5	R1617S
657.882	1.6	678331	WORD	n/a	wordpools/wordpool_categorized_EN.txt	EAR	BodyParts	5	5	[0, 0, 0]	n/a	catFR1	5	R1617S
659.482	0.933	679932	WORD_OFF	n/a	n/a	EAR	BodyParts	5	5	[0, 0, 0]	n/a	catFR1	5	R1617S
660.415	1.617	680865	WORD	n/a	wordpools/wordpool_categorized_EN.txt	FINGERS	BodyParts	6	5	[0, 0, 0]	n/a	catFR1	5	R1617S
662.032	0.85	682475	WORD_OFF	n/a	n/a	FINGERS	BodyParts	6	5	[0, 0, 0]	n/a	catFR1	5	R1617S
662.882	1.6	683330	WORD	n/a	wordpools/wordpool_categorized_EN.txt	APPLE	Fruit	7	5	[0, 0, 0]	n/a	catFR1	5	R1617S
664.482	0.983	684931	WORD_OFF	n/a	n/a	APPLE	Fruit	7	5	[0, 0, 0]	n/a	catFR1	5	R1617S
665.465	1.616	685913	WORD	n/a	wordpools/wordpool_categorized_EN.txt	CHERRY	Fruit	8	5	[0, 0, 0]	n/a	catFR1	5	R1617S
667.081	0.934	687524	WORD_OFF	n/a	n/a	CHERRY	Fruit	8	5	[0, 0, 0]	n/a	catFR1	5	R1617S
668.015	1.617	688457	WORD	n/a	wordpools/wordpool_categorized_EN.txt	ONION	Vegetables	9	5	[0, 0, 0]	n/a	catFR1	5	R1617S
669.632	0.95	690077	WORD_OFF	n/a	n/a	ONION	Vegetables	9	5	[0, 0, 0]	n/a	catFR1	5	R1617S
670.582	1.616	691030	WORD	n/a	wordpools/wordpool_categorized_EN.txt	CORN	Vegetables	10	5	[0, 0, 0]	n/a	catFR1	5	R1617S
672.198	0.917	692641	WORD_OFF	n/a	n/a	CORN	Vegetables	10	5	[0, 0, 0]	n/a	catFR1	5	R1617S
673.115	1.617	693564	WORD	n/a	wordpools/wordpool_categorized_EN.txt	ARM	BodyParts	11	5	[0, 0, 0]	n/a	catFR1	5	R1617S
674.732	0.85	695175	WORD_OFF	n/a	n/a	ARM	BodyParts	11	5	[0, 0, 0]	n/a	catFR1	5	R1617S
675.582	1.615	696029	WORD	n/a	wordpools/wordpool_categorized_EN.txt	LEG	BodyParts	12	5	[0, 0, 0]	n/a	catFR1	5	R1617S
677.197	0.001	697640	WORD_OFF	n/a	n/a	LEG	BodyParts	12	5	[0, 0, 0]	n/a	catFR1	5	R1617S
677.198	0.003	697640	PROB	0.003	n/a	n/a	n/a	-999	5	[8, 3, 1]	12	catFR1	5	R1617S
677.201	0.0	697643	START	n/a	n/a	n/a	n/a	-999	5	[-999, -999, -999]	n/a	catFR1	5	R1617S
677.2	0.001	697650	ENCODING_END	n/a	n/a	n/a	n/a	-999	5	[0, 0, 0]	n/a	catFR1	5	R1617S
677.201	7.298	697650	DISTRACT_START	n/a	n/a	n/a	n/a	-999	5	[0, 0, 0]	n/a	catFR1	5	R1617S
684.499	7.167	704940	PROB	7.167	n/a	n/a	n/a	-999	5	[8, 6, 8]	22	catFR1	5	R1617S
691.666	7.399	712107	PROB	7.399	n/a	n/a	n/a	-999	5	[3, 1, 2]	7	catFR1	5	R1617S
699.065	0.0	719506	STOP	n/a	n/a	n/a	n/a	-999	5	[-999, -999, -999]	n/a	catFR1	5	R1617S
699.065	2.117	719513	DISTRACT_END	n/a	n/a	n/a	n/a	-999	5	[0, 0, 0]	n/a	catFR1	5	R1617S
701.182	0.33	721623	REC_START	n/a	n/a	n/a	n/a	-999	5	[0, 0, 0]	n/a	catFR1	5	R1617S
701.512	1.362	721953	REC_WORD_VV	1.362	n/a	<>	n/a	-999	5	[0, 0, 0]	n/a	catFR1	5	R1617S
702.874	1.965	723315	REC_WORD	1.965	n/a	LETTUCE	Vegetables	1	5	[0, 0, 0]	n/a	catFR1	5	R1617S
704.839	0.87	725280	REC_WORD_VV	0.87	n/a	<>	n/a	-999	5	[0, 0, 0]	n/a	catFR1	5	R1617S
705.709	1.551	726149	REC_WORD	1.551	n/a	ARM	BodyParts	11	5	[0, 0, 0]	n/a	catFR1	5	R1617S
707.26	2.977	727700	REC_WORD	2.977	n/a	LEG	BodyParts	12	5	[0, 0, 0]	n/a	catFR1	5	R1617S
710.237	5.523	730677	REC_WORD	5.523	n/a	CORN	Vegetables	10	5	[0, 0, 0]	n/a	catFR1	5	R1617S
715.76	6.103	736200	REC_WORD	6.103	n/a	ONION	Vegetables	9	5	[0, 0, 0]	n/a	catFR1	5	R1617S
721.863	7.067	742303	REC_WORD	7.067	n/a	TOMATO	n/a	-999	5	[0, 0, 0]	n/a	catFR1	5	R1617S
728.93	2.494	749369	REC_WORD_VV	2.494	n/a	<>	n/a	-999	5	[0, 0, 0]	n/a	catFR1	5	R1617S
731.424	35.857	751866	REC_END	n/a	n/a	n/a	n/a	-999	5	[0, 0, 0]	n/a	catFR1	5	R1617S
767.281	10.35	787726	COUNTDOWN_START	n/a	n/a	n/a	n/a	-999	6	[0, 0, 0]	n/a	catFR1	5	R1617S
777.631	0.0	798068	COUNTDOWN_END	n/a	n/a	n/a	n/a	-999	6	[0, 0, 0]	n/a	catFR1	5	R1617S
777.631	2.084	798078	ENCODING_START	n/a	n/a	n/a	n/a	-999	6	[0, 0, 0]	n/a	catFR1	5	R1617S
779.715	1.6	800160	WORD	n/a	wordpools/wordpool_categorized_EN.txt	SHIRT	Clothing	1	6	[0, 0, 0]	n/a	catFR1	5	R1617S
781.315	0.917	801751	WORD_OFF	n/a	n/a	SHIRT	Clothing	1	6	[0, 0, 0]	n/a	catFR1	5	R1617S
782.232	1.616	802674	WORD	n/a	wordpools/wordpool_categorized_EN.txt	SOCKS	Clothing	2	6	[0, 0, 0]	n/a	catFR1	5	R1617S
783.848	0.883	804285	WORD_OFF	n/a	n/a	SOCKS	Clothing	2	6	[0, 0, 0]	n/a	catFR1	5	R1617S
784.731	1.601	805169	WORD	n/a	wordpools/wordpool_categorized_EN.txt	BLENDER	Appliances	3	6	[0, 0, 0]	n/a	catFR1	5	R1617S
786.332	0.849	806770	WORD_OFF	n/a	n/a	BLENDER	Appliances	3	6	[0, 0, 0]	n/a	catFR1	5	R1617S
787.181	1.601	807624	WORD	n/a	wordpools/wordpool_categorized_EN.txt	REFRIGERATOR	Appliances	4	6	[0, 0, 0]	n/a	catFR1	5	R1617S
788.782	0.783	809225	WORD_OFF	n/a	n/a	REFRIGERATOR	Appliances	4	6	[0, 0, 0]	n/a	catFR1	5	R1617S
789.565	1.6	810001	WORD	n/a	wordpools/wordpool_categorized_EN.txt	OAK	Trees	5	6	[0, 0, 0]	n/a	catFR1	5	R1617S
791.165	0.834	811602	WORD_OFF	n/a	n/a	OAK	Trees	5	6	[0, 0, 0]	n/a	catFR1	5	R1617S
791.999	1.6	812437	WORD	n/a	wordpools/wordpool_categorized_EN.txt	BIRCH	Trees	6	6	[0, 0, 0]	n/a	catFR1	5	R1617S
793.599	0.85	814038	WORD_OFF	n/a	n/a	BIRCH	Trees	6	6	[0, 0, 0]	n/a	catFR1	5	R1617S
794.449	1.616	814893	WORD	n/a	wordpools/wordpool_categorized_EN.txt	WASHER	Appliances	7	6	[0, 0, 0]	n/a	catFR1	5	R1617S
796.065	1.0	816503	WORD_OFF	n/a	n/a	WASHER	Appliances	7	6	[0, 0, 0]	n/a	catFR1	5	R1617S
797.065	1.6	817505	WORD	n/a	wordpools/wordpool_categorized_EN.txt	FREEZER	Appliances	8	6	[0, 0, 0]	n/a	catFR1	5	R1617S
798.665	0.816	819106	WORD_OFF	n/a	n/a	FREEZER	Appliances	8	6	[0, 0, 0]	n/a	catFR1	5	R1617S
799.481	1.601	819921	WORD	n/a	wordpools/wordpool_categorized_EN.txt	PINE	Trees	9	6	[0, 0, 0]	n/a	catFR1	5	R1617S
801.082	0.816	821522	WORD_OFF	n/a	n/a	PINE	Trees	9	6	[0, 0, 0]	n/a	catFR1	5	R1617S
801.898	1.617	822338	WORD	n/a	wordpools/wordpool_categorized_EN.txt	CEDAR	Trees	10	6	[0, 0, 0]	n/a	catFR1	5	R1617S
803.515	0.867	823958	WORD_OFF	n/a	n/a	CEDAR	Trees	10	6	[0, 0, 0]	n/a	catFR1	5	R1617S
804.382	1.616	824822	WORD	n/a	wordpools/wordpool_categorized_EN.txt	SHORTS	Clothing	11	6	[0, 0, 0]	n/a	catFR1	5	R1617S
805.998	0.85	826433	WORD_OFF	n/a	n/a	SHORTS	Clothing	11	6	[0, 0, 0]	n/a	catFR1	5	R1617S
806.848	1.601	827288	WORD	n/a	wordpools/wordpool_categorized_EN.txt	DRESS	Clothing	12	6	[0, 0, 0]	n/a	catFR1	5	R1617S
808.449	0.001	828884	PROB	0.001	n/a	n/a	n/a	-999	6	[2, 5, 3]	10	catFR1	5	R1617S
808.45	0.0	828885	START	n/a	n/a	n/a	n/a	-999	6	[-999, -999, -999]	n/a	catFR1	5	R1617S
808.449	0.001	828889	WORD_OFF	n/a	n/a	DRESS	Clothing	12	6	[0, 0, 0]	n/a	catFR1	5	R1617S
808.45	0.0	828889	ENCODING_END	n/a	n/a	n/a	n/a	-999	6	[0, 0, 0]	n/a	catFR1	5	R1617S
808.45	6.632	828889	DISTRACT_START	n/a	n/a	n/a	n/a	-999	6	[0, 0, 0]	n/a	catFR1	5	R1617S
815.082	3.801	835517	PROB	3.801	n/a	n/a	n/a	-999	6	[6, 2, 4]	12	catFR1	5	R1617S
818.883	4.65	839318	PROB	4.65	n/a	n/a	n/a	-999	6	[1, 4, 1]	6	catFR1	5	R1617S
823.533	5.482	843968	PROB	5.482	n/a	n/a	n/a	-999	6	[6, 1, 7]	14	catFR1	5	R1617S
829.015	0.0	849449	STOP	n/a	n/a	n/a	n/a	-999	6	[-999, -999, -999]	n/a	catFR1	5	R1617S
829.015	2.116	849455	DISTRACT_END	n/a	n/a	n/a	n/a	-999	6	[0, 0, 0]	n/a	catFR1	5	R1617S
831.131	3.037	851565	REC_START	n/a	n/a	n/a	n/a	-999	6	[0, 0, 0]	n/a	catFR1	5	R1617S
834.168	1.779	854602	REC_WORD	1.779	n/a	SHIRT	Clothing	1	6	[0, 0, 0]	n/a	catFR1	5	R1617S
835.947	2.026	856381	REC_WORD	2.026	n/a	SOCKS	Clothing	2	6	[0, 0, 0]	n/a	catFR1	5	R1617S
837.973	1.216	858407	REC_WORD	1.216	n/a	PANTS	Clothing	-999	6	[0, 0, 0]	n/a	catFR1	5	R1617S
839.189	22.197	859623	REC_WORD	22.197	n/a	SHORTS	Clothing	11	6	[0, 0, 0]	n/a	catFR1	5	R1617S
861.386	21.978	881818	REC_END	n/a	n/a	n/a	n/a	-999	6	[0, 0, 0]	n/a	catFR1	5	R1617S
883.364	10.35	903799	COUNTDOWN_START	n/a	n/a	n/a	n/a	-999	7	[0, 0, 0]	n/a	catFR1	5	R1617S
893.714	0.0	914151	COUNTDOWN_END	n/a	n/a	n/a	n/a	-999	7	[0, 0, 0]	n/a	catFR1	5	R1617S
893.714	1.951	914151	ENCODING_START	n/a	n/a	n/a	n/a	-999	7	[0, 0, 0]	n/a	catFR1	5	R1617S
895.665	1.6	916096	WORD	n/a	wordpools/wordpool_categorized_EN.txt	GNAT	Insects	1	7	[0, 0, 0]	n/a	catFR1	5	R1617S
897.265	0.766	917707	WORD_OFF	n/a	n/a	GNAT	Insects	1	7	[0, 0, 0]	n/a	catFR1	5	R1617S
898.031	1.601	918463	WORD	n/a	wordpools/wordpool_categorized_EN.txt	ANT	Insects	2	7	[0, 0, 0]	n/a	catFR1	5	R1617S
899.632	0.8	920064	WORD_OFF	n/a	n/a	ANT	Insects	2	7	[0, 0, 0]	n/a	catFR1	5	R1617S
900.432	1.617	920870	WORD	n/a	wordpools/wordpool_categorized_EN.txt	FRISBEE	Toys	3	7	[0, 0, 0]	n/a	catFR1	5	R1617S
902.049	0.866	922480	WORD_OFF	n/a	n/a	FRISBEE	Toys	3	7	[0, 0, 0]	n/a	catFR1	5	R1617S
902.915	1.6	923354	WORD	n/a	wordpools/wordpool_categorized_EN.txt	BASEBALL	Toys	4	7	[0, 0, 0]	n/a	catFR1	5	R1617S
904.515	0.866	924946	WORD_OFF	n/a	n/a	BASEBALL	Toys	4	7	[0, 0, 0]	n/a	catFR1	5	R1617S
905.381	1.601	925820	WORD	n/a	wordpools/wordpool_categorized_EN.txt	RADIO	Electronics	5	7	[0, 0, 0]	n/a	catFR1	5	R1617S
906.982	0.916	927421	WORD_OFF	n/a	n/a	RADIO	Electronics	5	7	[0, 0, 0]	n/a	catFR1	5	R1617S
907.898	1.617	928334	WORD	n/a	wordpools/wordpool_categorized_EN.txt	STEREO	Electronics	6	7	[0, 0, 0]	n/a	catFR1	5	R1617S
909.515	0.85	929945	WORD_OFF	n/a	n/a	STEREO	Electronics	6	7	[0, 0, 0]	n/a	catFR1	5	R1617S
910.365	1.616	930799	WORD	n/a	wordpools/wordpool_categorized_EN.txt	BUTTERFLY	Insects	7	7	[0, 0, 0]	n/a	catFR1	5	R1617S
911.981	0.934	932420	WORD_OFF	n/a	n/a	BUTTERFLY	Insects	7	7	[0, 0, 0]	n/a	catFR1	5	R1617S
912.915	1.6	933353	WORD	n/a	wordpools/wordpool_categorized_EN.txt	BEETLE	Insects	8	7	[0, 0, 0]	n/a	catFR1	5	R1617S
914.515	0.817	934944	WORD_OFF	n/a	n/a	BEETLE	Insects	8	7	[0, 0, 0]	n/a	catFR1	5	R1617S
915.332	1.617	935769	WORD	n/a	wordpools/wordpool_categorized_EN.txt	PUZZLE	Toys	9	7	[0, 0, 0]	n/a	catFR1	5	R1617S
916.949	0.8	937380	WORD_OFF	n/a	n/a	PUZZLE	Toys	9	7	[0, 0, 0]	n/a	catFR1	5	R1617S
917.749	1.616	938185	WORD	n/a	wordpools/wordpool_categorized_EN.txt	BALL	Toys	10	7	[0, 0, 0]	n/a	catFR1	5	R1617S
919.365	0.934	939796	WORD_OFF	n/a	n/a	BALL	Toys	10	7	[0, 0, 0]	n/a	catFR1	5	R1617S
920.299	1.615	940729	WORD	n/a	wordpools/wordpool_categorized_EN.txt	CALCULATOR	Electronics	11	7	[0, 0, 0]	n/a	catFR1	5	R1617S
921.914	0.884	942350	WORD_OFF	n/a	n/a	CALCULATOR	Electronics	11	7	[0, 0, 0]	n/a	catFR1	5	R1617S
922.798	1.601	943234	WORD	n/a	wordpools/wordpool_categorized_EN.txt	SPEAKER	Electronics	12	7	[0, 0, 0]	n/a	catFR1	5	R1617S
924.399	0.001	944829	PROB	0.001	n/a	n/a	n/a	-999	7	[5, 4, 8]	17	catFR1	5	R1617S
924.4	0.0	944830	START	n/a	n/a	n/a	n/a	-999	7	[-999, -999, -999]	n/a	catFR1	5	R1617S
924.398	0.002	944835	WORD_OFF	n/a	n/a	SPEAKER	Electronics	12	7	[0, 0, 0]	n/a	catFR1	5	R1617S
924.4	0.0	944835	ENCODING_END	n/a	n/a	n/a	n/a	-999	7	[0, 0, 0]	n/a	catFR1	5	R1617S
924.4	7.965	944835	DISTRACT_START	n/a	n/a	n/a	n/a	-999	7	[0, 0, 0]	n/a	catFR1	5	R1617S
932.365	6.017	952795	PROB	6.017	n/a	n/a	n/a	-999	7	[4, 2, 8]	14	catFR1	5	R1617S
938.382	8.583	958811	PROB	8.583	n/a	n/a	n/a	-999	7	[5, 3, 5]	13	catFR1	5	R1617S
946.965	0.0	967394	STOP	n/a	n/a	n/a	n/a	-999	7	[-999, -999, -999]	n/a	catFR1	5	R1617S
946.965	2.3	967395	DISTRACT_END	n/a	n/a	n/a	n/a	-999	7	[0, 0, 0]	n/a	catFR1	5	R1617S
949.265	0.843	969702	REC_START	n/a	n/a	n/a	n/a	-999	7	[0, 0, 0]	n/a	catFR1	5	R1617S
950.108	0.877	970537	REC_WORD_VV	0.877	n/a	<>	n/a	-999	7	[0, 0, 0]	n/a	catFR1	5	R1617S
950.985	1.343	971414	REC_WORD	1.343	n/a	GNAT	Insects	1	7	[0, 0, 0]	n/a	catFR1	5	R1617S
952.328	2.629	972757	REC_WORD	2.629	n/a	ANT	Insects	2	7	[0, 0, 0]	n/a	catFR1	5	R1617S
954.957	1.626	975385	REC_WORD	1.626	n/a	FOOTBALL	Toys	-999	7	[0, 0, 0]	n/a	catFR1	5	R1617S
956.583	1.889	977011	REC_WORD	1.889	n/a	BALL	Toys	10	7	[0, 0, 0]	n/a	catFR1	5	R1617S
958.472	1.279	978900	REC_WORD	1.279	n/a	RADIO	Electronics	5	7	[0, 0, 0]	n/a	catFR1	5	R1617S
959.751	5.553	980179	REC_WORD	5.553	n/a	STEREO	Electronics	6	7	[0, 0, 0]	n/a	catFR1	5	R1617S
965.304	13.053	985732	REC_WORD_VV	13.053	n/a	<>	n/a	-999	7	[0, 0, 0]	n/a	catFR1	5	R1617S
978.357	1.133	998784	REC_WORD_VV	1.133	n/a	<>	n/a	-999	7	[0, 0, 0]	n/a	catFR1	5	R1617S
979.49	18.192	999925	REC_END	n/a	n/a	n/a	n/a	-999	7	[0, 0, 0]	n/a	catFR1	5	R1617S
997.682	10.349	1018115	COUNTDOWN_START	n/a	n/a	n/a	n/a	-999	8	[0, 0, 0]	n/a	catFR1	5	R1617S
1008.031	0.0	1028457	COUNTDOWN_END	n/a	n/a	n/a	n/a	-999	8	[0, 0, 0]	n/a	catFR1	5	R1617S
1008.031	2.282	1028467	ENCODING_START	n/a	n/a	n/a	n/a	-999	8	[0, 0, 0]	n/a	catFR1	5	R1617S
1010.313	1.602	1030746	WORD	n/a	wordpools/wordpool_categorized_EN.txt	SPATULA	KitchenTools	1	8	[0, 0, 0]	n/a	catFR1	5	R1617S
1011.915	0.767	1032347	WORD_OFF	n/a	n/a	SPATULA	KitchenTools	1	8	[0, 0, 0]	n/a	catFR1	5	R1617S
1012.682	1.6	1033113	WORD	n/a	wordpools/wordpool_categorized_EN.txt	GRATER	KitchenTools	2	8	[0, 0, 0]	n/a	catFR1	5	R1617S
1014.282	0.916	1034714	WORD_OFF	n/a	n/a	GRATER	KitchenTools	2	8	[0, 0, 0]	n/a	catFR1	5	R1617S
1015.198	1.6	1035627	WORD	n/a	wordpools/wordpool_categorized_EN.txt	PHONE	Electronics	3	8	[0, 0, 0]	n/a	catFR1	5	R1617S
1016.798	0.833	1037228	WORD_OFF	n/a	n/a	PHONE	Electronics	3	8	[0, 0, 0]	n/a	catFR1	5	R1617S
1017.631	1.601	1038063	WORD	n/a	wordpools/wordpool_categorized_EN.txt	TELEVISION	Electronics	4	8	[0, 0, 0]	n/a	catFR1	5	R1617S
1019.232	0.9	1039664	WORD_OFF	n/a	n/a	TELEVISION	Electronics	4	8	[0, 0, 0]	n/a	catFR1	5	R1617S
1020.132	1.6	1040558	WORD	n/a	wordpools/wordpool_categorized_EN.txt	MAPLE	Trees	5	8	[0, 0, 0]	n/a	catFR1	5	R1617S
1021.732	0.816	1042159	WORD_OFF	n/a	n/a	MAPLE	Trees	5	8	[0, 0, 0]	n/a	catFR1	5	R1617S
1022.548	1.6	1042974	WORD	n/a	wordpools/wordpool_categorized_EN.txt	SPRUCE	Trees	6	8	[0, 0, 0]	n/a	catFR1	5	R1617S
1024.148	0.899	1044575	WORD_OFF	n/a	n/a	SPRUCE	Trees	6	8	[0, 0, 0]	n/a	catFR1	5	R1617S
1025.047	1.6	1045478	WORD	n/a	wordpools/wordpool_categorized_EN.txt	STRAINER	KitchenTools	7	8	[0, 0, 0]	n/a	catFR1	5	R1617S
1026.647	0.767	1047079	WORD_OFF	n/a	n/a	STRAINER	KitchenTools	7	8	[0, 0, 0]	n/a	catFR1	5	R1617S
1027.414	1.617	1047845	WORD	n/a	wordpools/wordpool_categorized_EN.txt	TONGS	KitchenTools	8	8	[0, 0, 0]	n/a	catFR1	5	R1617S
1029.031	0.8	1049456	WORD_OFF	n/a	n/a	TONGS	KitchenTools	8	8	[0, 0, 0]	n/a	catFR1	5	R1617S
1029.831	1.617	1050262	WORD	n/a	wordpools/wordpool_categorized_EN.txt	PRINTER	Electronics	9	8	[0, 0, 0]	n/a	catFR1	5	R1617S
1031.448	0.967	1051872	WORD_OFF	n/a	n/a	PRINTER	Electronics	9	8	[0, 0, 0]	n/a	catFR1	5	R1617S
1032.415	1.6	1052845	WORD	n/a	wordpools/wordpool_categorized_EN.txt	COMPUTER	Electronics	10	8	[0, 0, 0]	n/a	catFR1	5	R1617S
1034.015	0.933	1054446	WORD_OFF	n/a	n/a	COMPUTER	Electronics	10	8	[0, 0, 0]	n/a	catFR1	5	R1617S
1034.948	1.6	1055379	WORD	n/a	wordpools/wordpool_categorized_EN.txt	WALNUT	Trees	11	8	[0, 0, 0]	n/a	catFR1	5	R1617S
1036.548	0.784	1056980	WORD_OFF	n/a	n/a	WALNUT	Trees	11	8	[0, 0, 0]	n/a	catFR1	5	R1617S
1037.332	1.6	1057756	WORD	n/a	wordpools/wordpool_categorized_EN.txt	CYPRESS	Trees	12	8	[0, 0, 0]	n/a	catFR1	5	R1617S
1038.932	0.0	1059356	PROB	0.0	n/a	n/a	n/a	-999	8	[5, 1, 3]	9	catFR1	5	R1617S
1038.932	0.001	1059357	WORD_OFF	n/a	n/a	CYPRESS	Trees	12	8	[0, 0, 0]	n/a	catFR1	5	R1617S
1038.933	0.0	1059357	START	n/a	n/a	n/a	n/a	-999	8	[-999, -999, -999]	n/a	catFR1	5	R1617S
1038.933	0.0	1059366	ENCODING_END	n/a	n/a	n/a	n/a	-999	8	[0, 0, 0]	n/a	catFR1	5	R1617S
1038.933	8.615	1059366	DISTRACT_START	n/a	n/a	n/a	n/a	-999	8	[0, 0, 0]	n/a	catFR1	5	R1617S
1047.548	4.818	1067972	PROB	4.818	n/a	n/a	n/a	-999	8	[7, 4, 7]	18	catFR1	5	R1617S
1052.366	6.249	1072790	PROB	6.249	n/a	n/a	n/a	-999	8	[5, 8, 6]	19	catFR1	5	R1617S
1058.615	5.067	1079038	PROB	5.067	n/a	n/a	n/a	-999	8	[1, 7, 7]	15	catFR1	5	R1617S
1063.682	0.0	1084105	STOP	n/a	n/a	n/a	n/a	-999	8	[-999, -999, -999]	n/a	catFR1	5	R1617S
1063.682	2.283	1084107	DISTRACT_END	n/a	n/a	n/a	n/a	-999	8	[0, 0, 0]	n/a	catFR1	5	R1617S
1065.965	0.916	1086394	REC_START	n/a	n/a	n/a	n/a	-999	8	[0, 0, 0]	n/a	catFR1	5	R1617S
1066.881	0.789	1087304	REC_WORD_VV	0.789	n/a	<>	n/a	-999	8	[0, 0, 0]	n/a	catFR1	5	R1617S
1067.67	2.165	1088093	REC_WORD	2.165	n/a	SPATULA	KitchenTools	1	8	[0, 0, 0]	n/a	catFR1	5	R1617S
1069.835	3.609	1090258	REC_WORD	3.609	n/a	BIRCH	Trees	-999	8	[0, 0, 0]	n/a	catFR1	5	R1617S
1073.444	6.451	1093867	REC_WORD	6.451	n/a	GRATER	KitchenTools	2	8	[0, 0, 0]	n/a	catFR1	5	R1617S
1079.895	11.594	1100317	REC_WORD_VV	11.594	n/a	<>	n/a	-999	8	[0, 0, 0]	n/a	catFR1	5	R1617S
1091.489	4.735	1111911	REC_WORD	4.735	n/a	PAINT	n/a	-999	8	[0, 0, 0]	n/a	catFR1	5	R1617S
1096.224	18.158	1116647	REC_END	n/a	n/a	n/a	n/a	-999	8	[0, 0, 0]	n/a	catFR1	5	R1617S
1114.382	10.35	1134808	COUNTDOWN_START	n/a	n/a	n/a	n/a	-999	9	[0, 0, 0]	n/a	catFR1	5	R1617S
1124.732	0.0	1145160	COUNTDOWN_END	n/a	n/a	n/a	n/a	-999	9	[0, 0, 0]	n/a	catFR1	5	R1617S
1124.732	2.367	1145160	ENCODING_START	n/a	n/a	n/a	n/a	-999	9	[0, 0, 0]	n/a	catFR1	5	R1617S
1127.099	1.616	1147527	WORD	n/a	wordpools/wordpool_categorized_EN.txt	CARNATION	Flowers	1	9	[0, 0, 0]	n/a	catFR1	5	R1617S
1128.715	0.917	1149137	WORD_OFF	n/a	n/a	CARNATION	Flowers	1	9	[0, 0, 0]	n/a	catFR1	5	R1617S
1129.632	1.616	1150061	WORD	n/a	wordpools/wordpool_categorized_EN.txt	DAISY	Flowers	2	9	[0, 0, 0]	n/a	catFR1	5	R1617S
1131.248	0.834	1151671	WORD_OFF	n/a	n/a	DAISY	Flowers	2	9	[0, 0, 0]	n/a	catFR1	5	R1617S
1132.082	1.615	1152506	WORD	n/a	wordpools/wordpool_categorized_EN.txt	DRYER	Appliances	3	9	[0, 0, 0]	n/a	catFR1	5	R1617S
1133.697	0.967	1154117	WORD_OFF	n/a	n/a	DRYER	Appliances	3	9	[0, 0, 0]	n/a	catFR1	5	R1617S
1134.664	1.601	1155089	WORD	n/a	wordpools/wordpool_categorized_EN.txt	DISHWASHER	Appliances	4	9	[0, 0, 0]	n/a	catFR1	5	R1617S
1136.265	0.85	1156690	WORD_OFF	n/a	n/a	DISHWASHER	Appliances	4	9	[0, 0, 0]	n/a	catFR1	5	R1617S
1137.115	1.6	1157535	WORD	n/a	wordpools/wordpool_categorized_EN.txt	COBBLER	Desserts	5	9	[0, 0, 0]	n/a	catFR1	5	R1617S
1138.715	0.967	1159136	WORD_OFF	n/a	n/a	COBBLER	Desserts	5	9	[0, 0, 0]	n/a	catFR1	5	R1617S
1139.682	1.6	1160108	WORD	n/a	wordpools/wordpool_categorized_EN.txt	PUDDING	Desserts	6	9	[0, 0, 0]	n/a	catFR1	5	R1617S
1141.282	0.916	1161709	WORD_OFF	n/a	n/a	PUDDING	Desserts	6	9	[0, 0, 0]	n/a	catFR1	5	R1617S
1142.198	1.617	1162623	WORD	n/a	wordpools/wordpool_categorized_EN.txt	PETUNIA	Flowers	7	9	[0, 0, 0]	n/a	catFR1	5	R1617S
1143.815	0.917	1164243	WORD_OFF	n/a	n/a	PETUNIA	Flowers	7	9	[0, 0, 0]	n/a	catFR1	5	R1617S
1144.732	1.617	1165157	WORD	n/a	wordpools/wordpool_categorized_EN.txt	ORCHID	Flowers	8	9	[0, 0, 0]	n/a	catFR1	5	R1617S
1146.349	0.983	1166768	WORD_OFF	n/a	n/a	ORCHID	Flowers	8	9	[0, 0, 0]	n/a	catFR1	5	R1617S
1147.332	1.6	1167750	WORD	n/a	wordpools/wordpool_categorized_EN.txt	VACUUM	Appliances	9	9	[0, 0, 0]	n/a	catFR1	5	R1617S
1148.932	0.916	1169351	WORD_OFF	n/a	n/a	VACUUM	Appliances	9	9	[0, 0, 0]	n/a	catFR1	5	R1617S
1149.848	1.6	1170274	WORD	n/a	wordpools/wordpool_categorized_EN.txt	MIXER	Appliances	10	9	[0, 0, 0]	n/a	catFR1	5	R1617S
1151.448	0.801	1171875	WORD_OFF	n/a	n/a	MIXER	Appliances	10	9	[0, 0, 0]	n/a	catFR1	5	R1617S
1152.249	1.599	1172670	WORD	n/a	wordpools/wordpool_categorized_EN.txt	CUPCAKE	Desserts	11	9	[0, 0, 0]	n/a	catFR1	5	R1617S
1153.848	0.851	1174271	WORD_OFF	n/a	n/a	CUPCAKE	Desserts	11	9	[0, 0, 0]	n/a	catFR1	5	R1617S
1154.699	1.616	1175126	WORD	n/a	wordpools/wordpool_categorized_EN.txt	MOUSSE	Desserts	12	9	[0, 0, 0]	n/a	catFR1	5	R1617S
1156.315	0.001	1176734	PROB	0.001	n/a	n/a	n/a	-999	9	[7, 1, 4]	12	catFR1	5	R1617S
1156.316	0.0	1176735	START	n/a	n/a	n/a	n/a	-999	9	[-999, -999, -999]	n/a	catFR1	5	R1617S
1156.315	0.001	1176737	WORD_OFF	n/a	n/a	MOUSSE	Desserts	12	9	[0, 0, 0]	n/a	catFR1	5	R1617S
1156.316	0.0	1176737	ENCODING_END	n/a	n/a	n/a	n/a	-999	9	[0, 0, 0]	n/a	catFR1	5	R1617S
1156.316	7.783	1176737	DISTRACT_START	n/a	n/a	n/a	n/a	-999	9	[0, 0, 0]	n/a	catFR1	5	R1617S
1164.099	9.034	1184517	PROB	9.034	n/a	n/a	n/a	-999	9	[8, 3, 1]	12	catFR1	5	R1617S
1173.133	6.299	1193551	PROB	6.299	n/a	n/a	n/a	-999	9	[2, 7, 4]	13	catFR1	5	R1617S
1179.432	0.0	1199850	STOP	n/a	n/a	n/a	n/a	-999	9	[-999, -999, -999]	n/a	catFR1	5	R1617S
1179.432	2.15	1199857	DISTRACT_END	n/a	n/a	n/a	n/a	-999	9	[0, 0, 0]	n/a	catFR1	5	R1617S
1181.582	0.677	1202006	REC_START	n/a	n/a	n/a	n/a	-999	9	[0, 0, 0]	n/a	catFR1	5	R1617S
1182.259	1.423	1202677	REC_WORD_VV	1.423	n/a	<>	n/a	-999	9	[0, 0, 0]	n/a	catFR1	5	R1617S
1183.682	1.601	1204099	REC_WORD	1.601	n/a	CUPCAKE	Desserts	11	9	[0, 0, 0]	n/a	catFR1	5	R1617S
1185.283	3.424	1205700	REC_WORD	3.424	n/a	CARNATION	Flowers	1	9	[0, 0, 0]	n/a	catFR1	5	R1617S
1188.707	4.285	1209124	REC_WORD	4.285	n/a	PUDDING	Desserts	6	9	[0, 0, 0]	n/a	catFR1	5	R1617S
1192.992	1.79	1213409	REC_WORD_VV	1.79	n/a	<>	n/a	-999	9	[0, 0, 0]	n/a	catFR1	5	R1617S
1194.782	17.036	1215199	REC_WORD_VV	17.036	n/a	<>	n/a	-999	9	[0, 0, 0]	n/a	catFR1	5	R1617S
1211.818	24.364	1232240	REC_END	n/a	n/a	n/a	n/a	-999	9	[0, 0, 0]	n/a	catFR1	5	R1617S
1236.182	10.349	1256598	COUNTDOWN_START	n/a	n/a	n/a	n/a	-999	10	[0, 0, 0]	n/a	catFR1	5	R1617S
1246.531	0.0	1266950	COUNTDOWN_END	n/a	n/a	n/a	n/a	-999	10	[0, 0, 0]	n/a	catFR1	5	R1617S
1246.531	1.934	1266950	ENCODING_START	n/a	n/a	n/a	n/a	-999	10	[0, 0, 0]	n/a	catFR1	5	R1617S
1248.465	1.616	1268885	WORD	n/a	wordpools/wordpool_categorized_EN.txt	VALLEY	Landscapes	1	10	[0, 0, 0]	n/a	catFR1	5	R1617S
1250.081	0.851	1270495	WORD_OFF	n/a	n/a	VALLEY	Landscapes	1	10	[0, 0, 0]	n/a	catFR1	5	R1617S
1250.932	1.6	1271350	WORD	n/a	wordpools/wordpool_categorized_EN.txt	FOREST	Landscapes	2	10	[0, 0, 0]	n/a	catFR1	5	R1617S
1252.532	0.816	1272951	WORD_OFF	n/a	n/a	FOREST	Landscapes	2	10	[0, 0, 0]	n/a	catFR1	5	R1617S
1253.348	1.617	1273766	WORD	n/a	wordpools/wordpool_categorized_EN.txt	TURTLE	OceanAnimals	3	10	[0, 0, 0]	n/a	catFR1	5	R1617S
1254.965	1.0	1275387	WORD_OFF	n/a	n/a	TURTLE	OceanAnimals	3	10	[0, 0, 0]	n/a	catFR1	5	R1617S
1255.965	1.617	1276379	WORD	n/a	wordpools/wordpool_categorized_EN.txt	CRAB	OceanAnimals	4	10	[0, 0, 0]	n/a	catFR1	5	R1617S
1257.582	0.967	1277999	WORD_OFF	n/a	n/a	CRAB	OceanAnimals	4	10	[0, 0, 0]	n/a	catFR1	5	R1617S
1258.549	1.6	1278972	WORD	n/a	wordpools/wordpool_categorized_EN.txt	POTATO	Vegetables	5	10	[0, 0, 0]	n/a	catFR1	5	R1617S
1260.149	0.816	1280563	WORD_OFF	n/a	n/a	POTATO	Vegetables	5	10	[0, 0, 0]	n/a	catFR1	5	R1617S
1260.965	1.6	1281378	WORD	n/a	wordpools/wordpool_categorized_EN.txt	CARROT	Vegetables	6	10	[0, 0, 0]	n/a	catFR1	5	R1617S
1262.565	0.783	1282979	WORD_OFF	n/a	n/a	CARROT	Vegetables	6	10	[0, 0, 0]	n/a	catFR1	5	R1617S
1263.348	1.617	1283765	WORD	n/a	wordpools/wordpool_categorized_EN.txt	DOLPHIN	OceanAnimals	7	10	[0, 0, 0]	n/a	catFR1	5	R1617S
1264.965	0.85	1285385	WORD_OFF	n/a	n/a	DOLPHIN	OceanAnimals	7	10	[0, 0, 0]	n/a	catFR1	5	R1617S
1265.815	1.6	1286230	WORD	n/a	wordpools/wordpool_categorized_EN.txt	PLANKTON	OceanAnimals	8	10	[0, 0, 0]	n/a	catFR1	5	R1617S
1267.415	0.784	1287831	WORD_OFF	n/a	n/a	PLANKTON	OceanAnimals	8	10	[0, 0, 0]	n/a	catFR1	5	R1617S
1268.199	1.599	1288616	WORD	n/a	wordpools/wordpool_categorized_EN.txt	CELERY	Vegetables	9	10	[0, 0, 0]	n/a	catFR1	5	R1617S
1269.798	0.867	1290217	WORD_OFF	n/a	n/a	CELERY	Vegetables	9	10	[0, 0, 0]	n/a	catFR1	5	R1617S
1270.665	1.6	1291082	WORD	n/a	wordpools/wordpool_categorized_EN.txt	SPINACH	Vegetables	10	10	[0, 0, 0]	n/a	catFR1	5	R1617S
1272.265	0.767	1292683	WORD_OFF	n/a	n/a	SPINACH	Vegetables	10	10	[0, 0, 0]	n/a	catFR1	5	R1617S
1273.032	1.615	1293449	WORD	n/a	wordpools/wordpool_categorized_EN.txt	BEACH	Landscapes	11	10	[0, 0, 0]	n/a	catFR1	5	R1617S
1274.647	0.851	1295069	WORD_OFF	n/a	n/a	BEACH	Landscapes	11	10	[0, 0, 0]	n/a	catFR1	5	R1617S
1275.498	1.601	1295914	WORD	n/a	wordpools/wordpool_categorized_EN.txt	MOUNTAIN	Landscapes	12	10	[0, 0, 0]	n/a	catFR1	5	R1617S
1277.099	0.001	1297512	PROB	0.001	n/a	n/a	n/a	-999	10	[5, 1, 8]	14	catFR1	5	R1617S
1277.1	0.0	1297513	START	n/a	n/a	n/a	n/a	-999	10	[-999, -999, -999]	n/a	catFR1	5	R1617S
1277.098	0.002	1297515	WORD_OFF	n/a	n/a	MOUNTAIN	Landscapes	12	10	[0, 0, 0]	n/a	catFR1	5	R1617S
1277.1	0.0	1297515	ENCODING_END	n/a	n/a	n/a	n/a	-999	10	[0, 0, 0]	n/a	catFR1	5	R1617S
1277.1	10.933	1297515	DISTRACT_START	n/a	n/a	n/a	n/a	-999	10	[0, 0, 0]	n/a	catFR1	5	R1617S
1288.033	9.864	1308445	PROB	9.864	n/a	n/a	n/a	-999	10	[3, 7, 8]	18	catFR1	5	R1617S
1297.897	0.0	1318309	STOP	n/a	n/a	n/a	n/a	-999	10	[-999, -999, -999]	n/a	catFR1	5	R1617S
1297.897	2.135	1318318	DISTRACT_END	n/a	n/a	n/a	n/a	-999	10	[0, 0, 0]	n/a	catFR1	5	R1617S
1300.032	3.135	1320447	REC_START	n/a	n/a	n/a	n/a	-999	10	[0, 0, 0]	n/a	catFR1	5	R1617S
1303.167	2.725	1323579	REC_WORD	2.725	n/a	VALLEY	Landscapes	1	10	[0, 0, 0]	n/a	catFR1	5	R1617S
1305.892	2.289	1326304	REC_WORD	2.289	n/a	BEACH	Landscapes	11	10	[0, 0, 0]	n/a	catFR1	5	R1617S
1308.181	2.993	1328593	REC_WORD	2.993	n/a	MOUNTAIN	Landscapes	12	10	[0, 0, 0]	n/a	catFR1	5	R1617S
1311.174	2.598	1331585	REC_WORD	2.598	n/a	TURTLE	OceanAnimals	3	10	[0, 0, 0]	n/a	catFR1	5	R1617S
1313.772	16.481	1334183	REC_WORD	16.481	n/a	PLANKTON	OceanAnimals	8	10	[0, 0, 0]	n/a	catFR1	5	R1617S
1330.253	2.596	1350670	REC_END	n/a	n/a	n/a	n/a	-999	10	[0, 0, 0]	n/a	catFR1	5	R1617S
1332.849	10.349	1353263	COUNTDOWN_START	n/a	n/a	n/a	n/a	-999	11	[0, 0, 0]	n/a	catFR1	5	R1617S
1343.198	0.0	1363616	COUNTDOWN_END	n/a	n/a	n/a	n/a	-999	11	[0, 0, 0]	n/a	catFR1	5	R1617S
1343.198	2.034	1363616	ENCODING_START	n/a	n/a	n/a	n/a	-999	11	[0, 0, 0]	n/a	catFR1	5	R1617S
1345.232	1.6	1365649	WORD	n/a	wordpools/wordpool_categorized_EN.txt	WILLOW	Trees	1	11	[0, 0, 0]	n/a	catFR1	5	R1617S
1346.832	0.849	1367250	WORD_OFF	n/a	n/a	WILLOW	Trees	1	11	[0, 0, 0]	n/a	catFR1	5	R1617S
1347.681	1.601	1368094	WORD	n/a	wordpools/wordpool_categorized_EN.txt	EVERGREEN	Trees	2	11	[0, 0, 0]	n/a	catFR1	5	R1617S
1349.282	0.833	1369695	WORD_OFF	n/a	n/a	EVERGREEN	Trees	2	11	[0, 0, 0]	n/a	catFR1	5	R1617S
1350.115	1.6	1370530	WORD	n/a	wordpools/wordpool_categorized_EN.txt	STAPLER	OfficeSupplies	3	11	[0, 0, 0]	n/a	catFR1	5	R1617S
1351.715	0.767	1372131	WORD_OFF	n/a	n/a	STAPLER	OfficeSupplies	3	11	[0, 0, 0]	n/a	catFR1	5	R1617S
1352.482	1.617	1372897	WORD	n/a	wordpools/wordpool_categorized_EN.txt	GLUE	OfficeSupplies	4	11	[0, 0, 0]	n/a	catFR1	5	R1617S
1354.099	0.95	1374508	WORD_OFF	n/a	n/a	GLUE	OfficeSupplies	4	11	[0, 0, 0]	n/a	catFR1	5	R1617S
1355.049	1.6	1375461	WORD	n/a	wordpools/wordpool_categorized_EN.txt	EYE	BodyParts	5	11	[0, 0, 0]	n/a	catFR1	5	R1617S
1356.649	0.983	1377062	WORD_OFF	n/a	n/a	EYE	BodyParts	5	11	[0, 0, 0]	n/a	catFR1	5	R1617S
1357.632	1.6	1378044	WORD	n/a	wordpools/wordpool_categorized_EN.txt	HAND	BodyParts	6	11	[0, 0, 0]	n/a	catFR1	5	R1617S
1359.232	0.8	1379645	WORD_OFF	n/a	n/a	HAND	BodyParts	6	11	[0, 0, 0]	n/a	catFR1	5	R1617S
1360.032	1.616	1380440	WORD	n/a	wordpools/wordpool_categorized_EN.txt	ELM	Trees	7	11	[0, 0, 0]	n/a	catFR1	5	R1617S
1361.648	0.784	1382061	WORD_OFF	n/a	n/a	ELM	Trees	7	11	[0, 0, 0]	n/a	catFR1	5	R1617S
1362.432	1.6	1382847	WORD	n/a	wordpools/wordpool_categorized_EN.txt	HICKORY	Trees	8	11	[0, 0, 0]	n/a	catFR1	5	R1617S
1364.032	0.983	1384448	WORD_OFF	n/a	n/a	HICKORY	Trees	8	11	[0, 0, 0]	n/a	catFR1	5	R1617S
1365.015	1.6	1385430	WORD	n/a	wordpools/wordpool_categorized_EN.txt	TOE	BodyParts	9	11	[0, 0, 0]	n/a	catFR1	5	R1617S
1366.615	0.801	1387031	WORD_OFF	n/a	n/a	TOE	BodyParts	9	11	[0, 0, 0]	n/a	catFR1	5	R1617S
1367.416	1.616	1387826	WORD	n/a	wordpools/wordpool_categorized_EN.txt	ELBOW	BodyParts	10	11	[0, 0, 0]	n/a	catFR1	5	R1617S
1369.032	0.966	1389447	WORD_OFF	n/a	n/a	ELBOW	BodyParts	10	11	[0, 0, 0]	n/a	catFR1	5	R1617S
1369.998	1.616	1390409	WORD	n/a	wordpools/wordpool_categorized_EN.txt	RULER	OfficeSupplies	11	11	[0, 0, 0]	n/a	catFR1	5	R1617S
1371.614	0.834	1392030	WORD_OFF	n/a	n/a	RULER	OfficeSupplies	11	11	[0, 0, 0]	n/a	catFR1	5	R1617S
1372.448	1.6	1392855	WORD	n/a	wordpools/wordpool_categorized_EN.txt	MARKER	OfficeSupplies	12	11	[0, 0, 0]	n/a	catFR1	5	R1617S
1374.048	0.001	1394456	WORD_OFF	n/a	n/a	MARKER	OfficeSupplies	12	11	[0, 0, 0]	n/a	catFR1	5	R1617S
1374.049	0.001	1394457	PROB	0.001	n/a	n/a	n/a	-999	11	[3, 4, 8]	20	catFR1	5	R1617S
1374.05	0.0	1394458	START	n/a	n/a	n/a	n/a	-999	11	[-999, -999, -999]	n/a	catFR1	5	R1617S
1374.05	0.0	1394466	ENCODING_END	n/a	n/a	n/a	n/a	-999	11	[0, 0, 0]	n/a	catFR1	5	R1617S
1374.05	8.931	1394466	DISTRACT_START	n/a	n/a	n/a	n/a	-999	11	[0, 0, 0]	n/a	catFR1	5	R1617S
1382.981	6.551	1403389	PROB	6.551	n/a	n/a	n/a	-999	11	[3, 4, 6]	13	catFR1	5	R1617S
1389.532	11.45	1409940	PROB	11.45	n/a	n/a	n/a	-999	11	[1, 6, 2]	10	catFR1	5	R1617S
1400.982	0.0	1421389	STOP	n/a	n/a	n/a	n/a	-999	11	[-999, -999, -999]	n/a	catFR1	5	R1617S
1400.982	2.399	1421397	DISTRACT_END	n/a	n/a	n/a	n/a	-999	11	[0, 0, 0]	n/a	catFR1	5	R1617S
1403.381	1.46	1423792	REC_START	n/a	n/a	n/a	n/a	-999	11	[0, 0, 0]	n/a	catFR1	5	R1617S
1404.841	3.176	1425248	REC_WORD_VV	3.176	n/a	<>	n/a	-999	11	[0, 0, 0]	n/a	catFR1	5	R1617S
1408.017	2.359	1428424	REC_WORD	2.359	n/a	WILLOW	Trees	1	11	[0, 0, 0]	n/a	catFR1	5	R1617S
1410.376	2.776	1430783	REC_WORD	2.776	n/a	ARM	BodyParts	-999	11	[0, 0, 0]	n/a	catFR1	5	R1617S
1413.152	3.837	1433558	REC_WORD	3.837	n/a	ELM	Trees	7	11	[0, 0, 0]	n/a	catFR1	5	R1617S
1416.989	3.16	1437395	REC_WORD	3.16	n/a	GLUE	OfficeSupplies	4	11	[0, 0, 0]	n/a	catFR1	5	R1617S
1420.149	3.87	1440555	REC_WORD	3.87	n/a	RULER	OfficeSupplies	11	11	[0, 0, 0]	n/a	catFR1	5	R1617S
1424.019	0.806	1444425	REC_WORD	0.806	n/a	FOOT	n/a	-999	11	[0, 0, 0]	n/a	catFR1	5	R1617S
1424.825	6.249	1445231	REC_WORD	6.249	n/a	TOE	BodyParts	9	11	[0, 0, 0]	n/a	catFR1	5	R1617S
1431.074	2.524	1451480	REC_WORD_VV	2.524	n/a	<>	n/a	-999	11	[0, 0, 0]	n/a	catFR1	5	R1617S
1433.598	35.517	1454005	REC_END	n/a	n/a	n/a	n/a	-999	11	[0, 0, 0]	n/a	catFR1	5	R1617S
1469.115	10.35	1489521	COUNTDOWN_START	n/a	n/a	n/a	n/a	-999	12	[0, 0, 0]	n/a	catFR1	5	R1617S
1479.465	0.0	1499873	COUNTDOWN_END	n/a	n/a	n/a	n/a	-999	12	[0, 0, 0]	n/a	catFR1	5	R1617S
1479.465	2.067	1499873	ENCODING_START	n/a	n/a	n/a	n/a	-999	12	[0, 0, 0]	n/a	catFR1	5	R1617S
1481.532	1.617	1501936	WORD	n/a	wordpools/wordpool_categorized_EN.txt	NOSE	BodyParts	1	12	[0, 0, 0]	n/a	catFR1	5	R1617S
1483.149	0.832	1503556	WORD_OFF	n/a	n/a	NOSE	BodyParts	1	12	[0, 0, 0]	n/a	catFR1	5	R1617S
1483.981	1.6	1504391	WORD	n/a	wordpools/wordpool_categorized_EN.txt	HEAD	BodyParts	2	12	[0, 0, 0]	n/a	catFR1	5	R1617S
1485.581	0.918	1505992	WORD_OFF	n/a	n/a	HEAD	BodyParts	2	12	[0, 0, 0]	n/a	catFR1	5	R1617S
1486.499	1.615	1506905	WORD	n/a	wordpools/wordpool_categorized_EN.txt	LILY	Flowers	3	12	[0, 0, 0]	n/a	catFR1	5	R1617S
1488.114	0.868	1508526	WORD_OFF	n/a	n/a	LILY	Flowers	3	12	[0, 0, 0]	n/a	catFR1	5	R1617S
1488.982	1.6	1509390	WORD	n/a	wordpools/wordpool_categorized_EN.txt	VIOLET	Flowers	4	12	[0, 0, 0]	n/a	catFR1	5	R1617S
1490.582	0.866	1510991	WORD_OFF	n/a	n/a	VIOLET	Flowers	4	12	[0, 0, 0]	n/a	catFR1	5	R1617S
1491.448	1.6	1511856	WORD	n/a	wordpools/wordpool_categorized_EN.txt	PAPER	OfficeSupplies	5	12	[0, 0, 0]	n/a	catFR1	5	R1617S
1493.048	0.9	1513457	WORD_OFF	n/a	n/a	PAPER	OfficeSupplies	5	12	[0, 0, 0]	n/a	catFR1	5	R1617S
1493.948	1.6	1514350	WORD	n/a	wordpools/wordpool_categorized_EN.txt	FOLDER	OfficeSupplies	6	12	[0, 0, 0]	n/a	catFR1	5	R1617S
1495.548	1.0	1515951	WORD_OFF	n/a	n/a	FOLDER	OfficeSupplies	6	12	[0, 0, 0]	n/a	catFR1	5	R1617S
1496.548	1.617	1516953	WORD	n/a	wordpools/wordpool_categorized_EN.txt	FOOT	BodyParts	7	12	[0, 0, 0]	n/a	catFR1	5	R1617S
1498.165	0.8	1518574	WORD_OFF	n/a	n/a	FOOT	BodyParts	7	12	[0, 0, 0]	n/a	catFR1	5	R1617S
1498.965	1.6	1519369	WORD	n/a	wordpools/wordpool_categorized_EN.txt	KNEE	BodyParts	8	12	[0, 0, 0]	n/a	catFR1	5	R1617S
1500.565	0.883	1520970	WORD_OFF	n/a	n/a	KNEE	BodyParts	8	12	[0, 0, 0]	n/a	catFR1	5	R1617S
1501.448	1.6	1521854	WORD	n/a	wordpools/wordpool_categorized_EN.txt	ERASER	OfficeSupplies	9	12	[0, 0, 0]	n/a	catFR1	5	R1617S
1503.048	0.884	1523455	WORD_OFF	n/a	n/a	ERASER	OfficeSupplies	9	12	[0, 0, 0]	n/a	catFR1	5	R1617S
1503.932	1.6	1524339	WORD	n/a	wordpools/wordpool_categorized_EN.txt	NOTEBOOK	OfficeSupplies	10	12	[0, 0, 0]	n/a	catFR1	5	R1617S
1505.532	0.966	1525940	WORD_OFF	n/a	n/a	NOTEBOOK	OfficeSupplies	10	12	[0, 0, 0]	n/a	catFR1	5	R1617S
1506.498	1.6	1526903	WORD	n/a	wordpools/wordpool_categorized_EN.txt	ROSE	Flowers	11	12	[0, 0, 0]	n/a	catFR1	5	R1617S
1508.098	1.001	1528504	WORD_OFF	n/a	n/a	ROSE	Flowers	11	12	[0, 0, 0]	n/a	catFR1	5	R1617S
1509.099	1.616	1529505	WORD	n/a	wordpools/wordpool_categorized_EN.txt	MARIGOLD	Flowers	12	12	[0, 0, 0]	n/a	catFR1	5	R1617S
1510.715	0.001	1531116	WORD_OFF	n/a	n/a	MARIGOLD	Flowers	12	12	[0, 0, 0]	n/a	catFR1	5	R1617S
1510.716	0.001	1531118	PROB	0.001	n/a	n/a	n/a	-999	12	[1, 6, 4]	11	catFR1	5	R1617S
1510.717	0.0	1531119	START	n/a	n/a	n/a	n/a	-999	12	[-999, -999, -999]	n/a	catFR1	5	R1617S
1510.717	0.0	1531126	ENCODING_END	n/a	n/a	n/a	n/a	-999	12	[0, 0, 0]	n/a	catFR1	5	R1617S
1510.717	4.966	1531126	DISTRACT_START	n/a	n/a	n/a	n/a	-999	12	[0, 0, 0]	n/a	catFR1	5	R1617S
1515.683	9.033	1536084	PROB	9.033	n/a	n/a	n/a	-999	12	[7, 3, 3]	13	catFR1	5	R1617S
1524.716	10.982	1545117	PROB	10.982	n/a	n/a	n/a	-999	12	[3, 6, 3]	12	catFR1	5	R1617S
1535.698	0.0	1556099	STOP	n/a	n/a	n/a	n/a	-999	12	[-999, -999, -999]	n/a	catFR1	5	R1617S
1535.698	2.133	1556103	DISTRACT_END	n/a	n/a	n/a	n/a	-999	12	[0, 0, 0]	n/a	catFR1	5	R1617S
1537.831	2.025	1558232	REC_START	n/a	n/a	n/a	n/a	-999	12	[0, 0, 0]	n/a	catFR1	5	R1617S
1539.856	2.839	1560256	REC_WORD	2.839	n/a	MARIGOLD	Flowers	12	12	[0, 0, 0]	n/a	catFR1	5	R1617S
1542.695	3.848	1563095	REC_WORD	3.848	n/a	ROSE	Flowers	11	12	[0, 0, 0]	n/a	catFR1	5	R1617S
1546.543	9.866	1566943	REC_WORD_VV	9.866	n/a	<>	n/a	-999	12	[0, 0, 0]	n/a	catFR1	5	R1617S
1556.409	1.441	1576809	REC_WORD_VV	1.441	n/a	<>	n/a	-999	12	[0, 0, 0]	n/a	catFR1	5	R1617S
1557.85	5.42	1578249	REC_WORD_VV	5.42	n/a	<>	n/a	-999	12	[0, 0, 0]	n/a	catFR1	5	R1617S
1563.27	1.834	1583669	REC_WORD_VV	1.834	n/a	<>	n/a	-999	12	[0, 0, 0]	n/a	catFR1	5	R1617S
1565.104	2.954	1585503	REC_WORD_VV	2.954	n/a	<>	n/a	-999	12	[0, 0, 0]	n/a	catFR1	5	R1617S
1568.058	0.0	1588465	REC_END	n/a	n/a	n/a	n/a	-999	12	[0, 0, 0]	n/a	catFR1	5	R1617S
