onset	duration	sample	trial_type	response_time	stim_file	item_name	category	serialpos	list	test	answer	experiment	session	subject
0.0	0.0	17606	INSTRUCT_START	n/a	n/a	n/a	n/a	-999	-999	[0, 0, 0]	n/a	catFR1	3	R1243T
0.0	11.27	17606	INSTRUCT_END	n/a	n/a	n/a	n/a	-999	-999	[0, 0, 0]	n/a	catFR1	3	R1243T
11.27	0.0	28875	SESS_START	n/a	n/a	n/a	n/a	-999	-999	[0, 0, 0]	n/a	catFR1	3	R1243T
11.27	21.001	28875	MIC_TEST	n/a	n/a	n/a	n/a	-999	-999	[0, 0, 0]	n/a	catFR1	3	R1243T
32.271	10.97	49875	PRACTICE_TRIAL	n/a	n/a	n/a	n/a	-999	-1	[0, 0, 0]	n/a	catFR1	3	R1243T
43.241	10.428	60844	COUNTDOWN_START	n/a	n/a	n/a	n/a	-999	-1	[0, 0, 0]	n/a	catFR1	3	R1243T
53.669	0.008	71272	COUNTDOWN_END	n/a	n/a	n/a	n/a	-999	-1	[0, 0, 0]	n/a	catFR1	3	R1243T
53.677	1.616	71280	PRACTICE_ORIENT	n/a	n/a	n/a	n/a	-999	-1	[0, 0, 0]	n/a	catFR1	3	R1243T
55.293	2.317	72896	PRACTICE_ORIENT_OFF	n/a	n/a	n/a	n/a	-999	-1	[0, 0, 0]	n/a	catFR1	3	R1243T
57.61	1.618	75213	PRACTICE_WORD	n/a	n/a	COTTON	n/a	-1	-1	[0, 0, 0]	n/a	catFR1	3	R1243T
59.228	0.917	76830	PRACTICE_WORD_OFF	n/a	n/a	COTTON	n/a	-999	-1	[0, 0, 0]	n/a	catFR1	3	R1243T
60.145	1.616	77747	PRACTICE_WORD	n/a	n/a	WATCH	n/a	-1	-1	[0, 0, 0]	n/a	catFR1	3	R1243T
61.761	0.934	79363	PRACTICE_WORD_OFF	n/a	n/a	WATCH	n/a	-999	-1	[0, 0, 0]	n/a	catFR1	3	R1243T
62.695	1.617	80297	PRACTICE_WORD	n/a	n/a	FLOOD	n/a	-1	-1	[0, 0, 0]	n/a	catFR1	3	R1243T
64.312	0.801	81914	PRACTICE_WORD_OFF	n/a	n/a	FLOOD	n/a	-999	-1	[0, 0, 0]	n/a	catFR1	3	R1243T
65.113	1.616	82715	PRACTICE_WORD	n/a	n/a	RING	n/a	-1	-1	[0, 0, 0]	n/a	catFR1	3	R1243T
66.729	0.833	84331	PRACTICE_WORD_OFF	n/a	n/a	RING	n/a	-999	-1	[0, 0, 0]	n/a	catFR1	3	R1243T
67.562	1.601	85164	PRACTICE_WORD	n/a	n/a	WAGON	n/a	-1	-1	[0, 0, 0]	n/a	catFR1	3	R1243T
69.163	0.917	86765	PRACTICE_WORD_OFF	n/a	n/a	WAGON	n/a	-999	-1	[0, 0, 0]	n/a	catFR1	3	R1243T
70.08	1.616	87682	PRACTICE_WORD	n/a	n/a	CHEST	n/a	-1	-1	[0, 0, 0]	n/a	catFR1	3	R1243T
71.696	0.834	89298	PRACTICE_WORD_OFF	n/a	n/a	CHEST	n/a	-999	-1	[0, 0, 0]	n/a	catFR1	3	R1243T
72.53	1.618	90132	PRACTICE_WORD	n/a	n/a	RHINO	n/a	-1	-1	[0, 0, 0]	n/a	catFR1	3	R1243T
74.148	0.782	91750	PRACTICE_WORD_OFF	n/a	n/a	RHINO	n/a	-999	-1	[0, 0, 0]	n/a	catFR1	3	R1243T
74.93	1.617	92531	PRACTICE_WORD	n/a	n/a	CAMEL	n/a	-1	-1	[0, 0, 0]	n/a	catFR1	3	R1243T
76.547	0.884	94148	PRACTICE_WORD_OFF	n/a	n/a	CAMEL	n/a	-999	-1	[0, 0, 0]	n/a	catFR1	3	R1243T
77.431	1.618	95032	PRACTICE_WORD	n/a	n/a	ATTIC	n/a	-1	-1	[0, 0, 0]	n/a	catFR1	3	R1243T
79.049	0.799	96650	PRACTICE_WORD_OFF	n/a	n/a	ATTIC	n/a	-999	-1	[0, 0, 0]	n/a	catFR1	3	R1243T
79.848	1.617	97449	PRACTICE_WORD	n/a	n/a	IRON	n/a	-1	-1	[0, 0, 0]	n/a	catFR1	3	R1243T
81.465	0.9	99066	PRACTICE_WORD_OFF	n/a	n/a	IRON	n/a	-999	-1	[0, 0, 0]	n/a	catFR1	3	R1243T
82.365	1.617	99966	PRACTICE_WORD	n/a	n/a	TONGUE	n/a	-1	-1	[0, 0, 0]	n/a	catFR1	3	R1243T
83.982	0.95	101583	PRACTICE_WORD_OFF	n/a	n/a	TONGUE	n/a	-999	-1	[0, 0, 0]	n/a	catFR1	3	R1243T
84.932	1.617	102533	PRACTICE_WORD	n/a	n/a	BEAM	n/a	-1	-1	[0, 0, 0]	n/a	catFR1	3	R1243T
86.549	0.0	104150	PRACTICE_WORD_OFF	n/a	n/a	BEAM	n/a	-999	-1	[0, 0, 0]	n/a	catFR1	3	R1243T
86.549	0.001	104150	ENCODING_END	n/a	n/a	n/a	n/a	-999	-1	[0, 0, 0]	n/a	catFR1	3	R1243T
86.55	0.0	104151	DISTRACT_START	n/a	n/a	n/a	n/a	-999	-1	[0, 0, 0]	n/a	catFR1	3	R1243T
86.55	0.016	104151	START	n/a	n/a	n/a	n/a	-999	-1	[-999, -999, -999]	n/a	catFR1	3	R1243T
86.566	4.984	104167	PROB	4.984	n/a	n/a	n/a	-999	-1	[8, 1, 8]	17	catFR1	3	R1243T
91.55	3.267	109150	PROB	3.267	n/a	n/a	n/a	-999	-1	[3, 1, 8]	12	catFR1	3	R1243T
94.817	4.101	112417	PROB	4.101	n/a	n/a	n/a	-999	-1	[8, 4, 7]	19	catFR1	3	R1243T
98.918	3.451	116518	PROB	3.451	n/a	n/a	n/a	-999	-1	[1, 1, 3]	5	catFR1	3	R1243T
102.369	4.979	119969	PROB	4.979	n/a	n/a	n/a	-999	-1	[1, 7, 7]	15	catFR1	3	R1243T
107.348	0.022	124948	STOP	n/a	n/a	n/a	n/a	-999	-1	[-999, -999, -999]	n/a	catFR1	3	R1243T
107.37	0.566	124970	DISTRACT_END	n/a	n/a	n/a	n/a	-999	-1	[0, 0, 0]	n/a	catFR1	3	R1243T
107.936	0.518	125535	RETRIEVAL_ORIENT	n/a	n/a	n/a	n/a	-999	-1	[0, 0, 0]	n/a	catFR1	3	R1243T
108.454	30.013	126053	PRACTICE_REC_START	n/a	n/a	n/a	n/a	-999	-1	[0, 0, 0]	n/a	catFR1	3	R1243T
138.467	21.63	156065	PRACTICE_REC_END	n/a	n/a	n/a	n/a	-999	-1	[0, 0, 0]	n/a	catFR1	3	R1243T
160.097	0.5	177693	TRIAL	n/a	n/a	n/a	n/a	-999	1	[0, 0, 0]	n/a	catFR1	3	R1243T
160.597	10.428	178193	COUNTDOWN_START	n/a	n/a	n/a	n/a	-999	1	[0, 0, 0]	n/a	catFR1	3	R1243T
171.025	0.006	188621	COUNTDOWN_END	n/a	n/a	n/a	n/a	-999	1	[0, 0, 0]	n/a	catFR1	3	R1243T
171.031	1.617	188627	ORIENT	n/a	n/a	n/a	n/a	-999	1	[0, 0, 0]	n/a	catFR1	3	R1243T
172.648	2.234	190244	ORIENT_OFF	n/a	n/a	n/a	n/a	-999	1	[0, 0, 0]	n/a	catFR1	3	R1243T
174.882	1.617	192477	WORD	n/a	wordpools/wordpool_categorized_EN.txt	THUNDERSTORM	Weather	1	1	[0, 0, 0]	n/a	catFR1	3	R1243T
176.499	0.967	194094	WORD_OFF	n/a	n/a	THUNDERSTORM	n/a	1	1	[0, 0, 0]	n/a	catFR1	3	R1243T
177.466	1.617	195061	WORD	n/a	wordpools/wordpool_categorized_EN.txt	WIND	Weather	2	1	[0, 0, 0]	n/a	catFR1	3	R1243T
179.083	0.816	196678	WORD_OFF	n/a	n/a	WIND	n/a	2	1	[0, 0, 0]	n/a	catFR1	3	R1243T
179.899	1.617	197494	WORD	n/a	wordpools/wordpool_categorized_EN.txt	GUITAR	Instruments	3	1	[0, 0, 0]	n/a	catFR1	3	R1243T
181.516	0.984	199111	WORD_OFF	n/a	n/a	GUITAR	n/a	3	1	[0, 0, 0]	n/a	catFR1	3	R1243T
182.5	1.618	200095	WORD	n/a	wordpools/wordpool_categorized_EN.txt	FLUTE	Instruments	4	1	[0, 0, 0]	n/a	catFR1	3	R1243T
184.118	0.766	201713	WORD_OFF	n/a	n/a	FLUTE	n/a	4	1	[0, 0, 0]	n/a	catFR1	3	R1243T
184.884	1.616	202479	WORD	n/a	wordpools/wordpool_categorized_EN.txt	PUDDING	Desserts	5	1	[0, 0, 0]	n/a	catFR1	3	R1243T
186.5	0.784	204095	WORD_OFF	n/a	n/a	PUDDING	n/a	5	1	[0, 0, 0]	n/a	catFR1	3	R1243T
187.284	1.617	204879	WORD	n/a	wordpools/wordpool_categorized_EN.txt	COBBLER	Desserts	6	1	[0, 0, 0]	n/a	catFR1	3	R1243T
188.901	0.933	206496	WORD_OFF	n/a	n/a	COBBLER	n/a	6	1	[0, 0, 0]	n/a	catFR1	3	R1243T
189.834	1.617	207428	WORD	n/a	wordpools/wordpool_categorized_EN.txt	HUMIDITY	Weather	7	1	[0, 0, 0]	n/a	catFR1	3	R1243T
191.451	0.951	209045	WORD_OFF	n/a	n/a	HUMIDITY	n/a	7	1	[0, 0, 0]	n/a	catFR1	3	R1243T
192.402	1.616	209996	WORD	n/a	wordpools/wordpool_categorized_EN.txt	HURRICANE	Weather	8	1	[0, 0, 0]	n/a	catFR1	3	R1243T
194.018	0.884	211612	WORD_OFF	n/a	n/a	HURRICANE	n/a	8	1	[0, 0, 0]	n/a	catFR1	3	R1243T
194.902	1.617	212496	WORD	n/a	wordpools/wordpool_categorized_EN.txt	BANJO	Instruments	9	1	[0, 0, 0]	n/a	catFR1	3	R1243T
196.519	0.933	214113	WORD_OFF	n/a	n/a	BANJO	n/a	9	1	[0, 0, 0]	n/a	catFR1	3	R1243T
197.452	1.601	215046	WORD	n/a	wordpools/wordpool_categorized_EN.txt	PIANO	Instruments	10	1	[0, 0, 0]	n/a	catFR1	3	R1243T
199.053	0.8	216647	WORD_OFF	n/a	n/a	PIANO	n/a	10	1	[0, 0, 0]	n/a	catFR1	3	R1243T
199.853	1.617	217447	WORD	n/a	wordpools/wordpool_categorized_EN.txt	FUDGE	Desserts	11	1	[0, 0, 0]	n/a	catFR1	3	R1243T
201.47	0.783	219064	WORD_OFF	n/a	n/a	FUDGE	n/a	11	1	[0, 0, 0]	n/a	catFR1	3	R1243T
202.253	1.617	219847	WORD	n/a	wordpools/wordpool_categorized_EN.txt	CUPCAKE	Desserts	12	1	[0, 0, 0]	n/a	catFR1	3	R1243T
203.87	0.001	221464	WORD_OFF	n/a	n/a	CUPCAKE	n/a	12	1	[0, 0, 0]	n/a	catFR1	3	R1243T
203.871	0.131	221465	ENCODING_END	n/a	n/a	n/a	n/a	-999	1	[0, 0, 0]	n/a	catFR1	3	R1243T
204.002	0.0	221596	DISTRACT_START	n/a	n/a	n/a	n/a	-999	1	[0, 0, 0]	n/a	catFR1	3	R1243T
204.002	0.018	221596	START	n/a	n/a	n/a	n/a	-999	1	[-999, -999, -999]	n/a	catFR1	3	R1243T
204.02	5.601	221614	PROB	5.601	n/a	n/a	n/a	-999	1	[4, 7, 4]	15	catFR1	3	R1243T
209.621	5.201	227214	PROB	5.201	n/a	n/a	n/a	-999	1	[4, 8, 8]	20	catFR1	3	R1243T
214.822	4.084	232415	PROB	4.084	n/a	n/a	n/a	-999	1	[4, 9, 9]	23	catFR1	3	R1243T
218.906	5.505	236499	PROB	5.505	n/a	n/a	n/a	-999	1	[8, 7, 7]	22	catFR1	3	R1243T
224.411	0.013	242003	STOP	n/a	n/a	n/a	n/a	-999	1	[-999, -999, -999]	n/a	catFR1	3	R1243T
224.424	0.685	242016	DISTRACT_END	n/a	n/a	n/a	n/a	-999	1	[0, 0, 0]	n/a	catFR1	3	R1243T
225.109	0.516	242701	RETRIEVAL_ORIENT	n/a	n/a	n/a	n/a	-999	1	[0, 0, 0]	n/a	catFR1	3	R1243T
225.625	5.128	243217	REC_START	n/a	n/a	n/a	n/a	-999	1	[0, 0, 0]	n/a	catFR1	3	R1243T
230.753	2.787	248345	REC_WORD	2.787	n/a	FUDGE	Desserts	11	1	[0, 0, 0]	n/a	catFR1	3	R1243T
233.54	3.381	251132	REC_WORD	3.381	n/a	PUDDING	Desserts	5	1	[0, 0, 0]	n/a	catFR1	3	R1243T
236.921	2.513	254513	REC_WORD	2.513	n/a	THUNDERSTORM	Weather	1	1	[0, 0, 0]	n/a	catFR1	3	R1243T
239.434	13.426	257025	REC_WORD	13.426	n/a	HURRICANE	Weather	8	1	[0, 0, 0]	n/a	catFR1	3	R1243T
252.86	2.774	270451	REC_WORD	2.774	n/a	FLUTE	Instruments	4	1	[0, 0, 0]	n/a	catFR1	3	R1243T
255.634	5.197	273224	REC_END	n/a	n/a	n/a	n/a	-999	1	[0, 0, 0]	n/a	catFR1	3	R1243T
260.831	0.5	278421	TRIAL	n/a	n/a	n/a	n/a	-999	2	[0, 0, 0]	n/a	catFR1	3	R1243T
261.331	10.428	278921	COUNTDOWN_START	n/a	n/a	n/a	n/a	-999	2	[0, 0, 0]	n/a	catFR1	3	R1243T
271.759	0.007	289348	COUNTDOWN_END	n/a	n/a	n/a	n/a	-999	2	[0, 0, 0]	n/a	catFR1	3	R1243T
271.766	1.617	289355	ORIENT	n/a	n/a	n/a	n/a	-999	2	[0, 0, 0]	n/a	catFR1	3	R1243T
273.383	2.0	290972	ORIENT_OFF	n/a	n/a	n/a	n/a	-999	2	[0, 0, 0]	n/a	catFR1	3	R1243T
275.383	1.617	292972	WORD	n/a	wordpools/wordpool_categorized_EN.txt	DOLPHIN	OceanAnimals	1	2	[0, 0, 0]	n/a	catFR1	3	R1243T
277.0	0.884	294589	WORD_OFF	n/a	n/a	DOLPHIN	n/a	1	2	[0, 0, 0]	n/a	catFR1	3	R1243T
277.884	1.617	295473	WORD	n/a	wordpools/wordpool_categorized_EN.txt	OCTOPUS	OceanAnimals	2	2	[0, 0, 0]	n/a	catFR1	3	R1243T
279.501	0.85	297090	WORD_OFF	n/a	n/a	OCTOPUS	n/a	2	2	[0, 0, 0]	n/a	catFR1	3	R1243T
280.351	1.617	297940	WORD	n/a	wordpools/wordpool_categorized_EN.txt	ROSE	Flowers	3	2	[0, 0, 0]	n/a	catFR1	3	R1243T
281.968	0.95	299557	WORD_OFF	n/a	n/a	ROSE	n/a	3	2	[0, 0, 0]	n/a	catFR1	3	R1243T
282.918	1.617	300507	WORD	n/a	wordpools/wordpool_categorized_EN.txt	TULIP	Flowers	4	2	[0, 0, 0]	n/a	catFR1	3	R1243T
284.535	1.0	302124	WORD_OFF	n/a	n/a	TULIP	n/a	4	2	[0, 0, 0]	n/a	catFR1	3	R1243T
285.535	1.618	303124	WORD	n/a	wordpools/wordpool_categorized_EN.txt	BLENDER	Appliances	5	2	[0, 0, 0]	n/a	catFR1	3	R1243T
287.153	0.816	304742	WORD_OFF	n/a	n/a	BLENDER	n/a	5	2	[0, 0, 0]	n/a	catFR1	3	R1243T
287.969	1.617	305557	WORD	n/a	wordpools/wordpool_categorized_EN.txt	FREEZER	Appliances	6	2	[0, 0, 0]	n/a	catFR1	3	R1243T
289.586	1.0	307174	WORD_OFF	n/a	n/a	FREEZER	n/a	6	2	[0, 0, 0]	n/a	catFR1	3	R1243T
290.586	1.617	308174	WORD	n/a	wordpools/wordpool_categorized_EN.txt	WHALE	OceanAnimals	7	2	[0, 0, 0]	n/a	catFR1	3	R1243T
292.203	0.817	309791	WORD_OFF	n/a	n/a	WHALE	n/a	7	2	[0, 0, 0]	n/a	catFR1	3	R1243T
293.02	1.617	310608	WORD	n/a	wordpools/wordpool_categorized_EN.txt	PLANKTON	OceanAnimals	8	2	[0, 0, 0]	n/a	catFR1	3	R1243T
294.637	0.766	312225	WORD_OFF	n/a	n/a	PLANKTON	n/a	8	2	[0, 0, 0]	n/a	catFR1	3	R1243T
295.403	1.618	312991	WORD	n/a	wordpools/wordpool_categorized_EN.txt	CARNATION	Flowers	9	2	[0, 0, 0]	n/a	catFR1	3	R1243T
297.021	0.95	314609	WORD_OFF	n/a	n/a	CARNATION	n/a	9	2	[0, 0, 0]	n/a	catFR1	3	R1243T
297.971	1.617	315559	WORD	n/a	wordpools/wordpool_categorized_EN.txt	MARIGOLD	Flowers	10	2	[0, 0, 0]	n/a	catFR1	3	R1243T
299.588	0.883	317176	WORD_OFF	n/a	n/a	MARIGOLD	n/a	10	2	[0, 0, 0]	n/a	catFR1	3	R1243T
300.471	1.618	318059	WORD	n/a	wordpools/wordpool_categorized_EN.txt	VACUUM	Appliances	11	2	[0, 0, 0]	n/a	catFR1	3	R1243T
302.089	0.783	319677	WORD_OFF	n/a	n/a	VACUUM	n/a	11	2	[0, 0, 0]	n/a	catFR1	3	R1243T
302.872	1.617	320460	WORD	n/a	wordpools/wordpool_categorized_EN.txt	MIXER	Appliances	12	2	[0, 0, 0]	n/a	catFR1	3	R1243T
304.489	0.0	322076	ENCODING_END	n/a	n/a	n/a	n/a	-999	2	[0, 0, 0]	n/a	catFR1	3	R1243T
304.489	0.103	322076	WORD_OFF	n/a	n/a	MIXER	n/a	12	2	[0, 0, 0]	n/a	catFR1	3	R1243T
304.592	0.0	322179	DISTRACT_START	n/a	n/a	n/a	n/a	-999	2	[0, 0, 0]	n/a	catFR1	3	R1243T
304.592	0.013	322179	START	n/a	n/a	n/a	n/a	-999	2	[-999, -999, -999]	n/a	catFR1	3	R1243T
304.605	4.401	322192	PROB	4.401	n/a	n/a	n/a	-999	2	[4, 7, 4]	15	catFR1	3	R1243T
309.006	4.018	326593	PROB	4.018	n/a	n/a	n/a	-999	2	[7, 5, 7]	19	catFR1	3	R1243T
313.024	3.667	330611	PROB	3.667	n/a	n/a	n/a	-999	2	[6, 5, 5]	16	catFR1	3	R1243T
316.691	4.468	334278	PROB	4.468	n/a	n/a	n/a	-999	2	[6, 7, 9]	21	catFR1	3	R1243T
321.159	6.43	338745	PROB	6.43	n/a	n/a	n/a	-999	2	[8, 9, 2]	19	catFR1	3	R1243T
327.589	0.021	345175	STOP	n/a	n/a	n/a	n/a	-999	2	[-999, -999, -999]	n/a	catFR1	3	R1243T
327.61	0.566	345196	DISTRACT_END	n/a	n/a	n/a	n/a	-999	2	[0, 0, 0]	n/a	catFR1	3	R1243T
328.176	0.518	345762	RETRIEVAL_ORIENT	n/a	n/a	n/a	n/a	-999	2	[0, 0, 0]	n/a	catFR1	3	R1243T
328.694	1.629	346280	REC_START	n/a	n/a	n/a	n/a	-999	2	[0, 0, 0]	n/a	catFR1	3	R1243T
330.323	1.289	347909	REC_WORD	1.289	n/a	DOLPHIN	OceanAnimals	1	2	[0, 0, 0]	n/a	catFR1	3	R1243T
331.612	1.308	349198	REC_WORD	1.308	n/a	WHALE	OceanAnimals	7	2	[0, 0, 0]	n/a	catFR1	3	R1243T
332.92	25.783	350506	REC_WORD	25.783	n/a	OCTOPUS	OceanAnimals	2	2	[0, 0, 0]	n/a	catFR1	3	R1243T
358.703	5.33	376287	REC_END	n/a	n/a	n/a	n/a	-999	2	[0, 0, 0]	n/a	catFR1	3	R1243T
364.033	0.5	381617	TRIAL	n/a	n/a	n/a	n/a	-999	3	[0, 0, 0]	n/a	catFR1	3	R1243T
364.533	10.428	382117	COUNTDOWN_START	n/a	n/a	n/a	n/a	-999	3	[0, 0, 0]	n/a	catFR1	3	R1243T
374.961	0.007	392544	COUNTDOWN_END	n/a	n/a	n/a	n/a	-999	3	[0, 0, 0]	n/a	catFR1	3	R1243T
374.968	1.617	392551	ORIENT	n/a	n/a	n/a	n/a	-999	3	[0, 0, 0]	n/a	catFR1	3	R1243T
376.585	2.1	394168	ORIENT_OFF	n/a	n/a	n/a	n/a	-999	3	[0, 0, 0]	n/a	catFR1	3	R1243T
378.685	1.617	396268	WORD	n/a	wordpools/wordpool_categorized_EN.txt	BEACH	Landscapes	1	3	[0, 0, 0]	n/a	catFR1	3	R1243T
380.302	0.917	397885	WORD_OFF	n/a	n/a	BEACH	n/a	1	3	[0, 0, 0]	n/a	catFR1	3	R1243T
381.219	1.617	398802	WORD	n/a	wordpools/wordpool_categorized_EN.txt	HILLS	Landscapes	2	3	[0, 0, 0]	n/a	catFR1	3	R1243T
382.836	0.884	400419	WORD_OFF	n/a	n/a	HILLS	n/a	2	3	[0, 0, 0]	n/a	catFR1	3	R1243T
383.72	1.617	401303	WORD	n/a	wordpools/wordpool_categorized_EN.txt	TAPE	OfficeSupplies	3	3	[0, 0, 0]	n/a	catFR1	3	R1243T
385.337	0.883	402920	WORD_OFF	n/a	n/a	TAPE	n/a	3	3	[0, 0, 0]	n/a	catFR1	3	R1243T
386.22	1.617	403802	WORD	n/a	wordpools/wordpool_categorized_EN.txt	NOTEBOOK	OfficeSupplies	4	3	[0, 0, 0]	n/a	catFR1	3	R1243T
387.837	0.767	405419	WORD_OFF	n/a	n/a	NOTEBOOK	n/a	4	3	[0, 0, 0]	n/a	catFR1	3	R1243T
388.604	1.617	406186	WORD	n/a	wordpools/wordpool_categorized_EN.txt	LILY	Flowers	5	3	[0, 0, 0]	n/a	catFR1	3	R1243T
390.221	1.0	407803	WORD_OFF	n/a	n/a	LILY	n/a	5	3	[0, 0, 0]	n/a	catFR1	3	R1243T
391.221	1.617	408803	WORD	n/a	wordpools/wordpool_categorized_EN.txt	ORCHID	Flowers	6	3	[0, 0, 0]	n/a	catFR1	3	R1243T
392.838	0.834	410420	WORD_OFF	n/a	n/a	ORCHID	n/a	6	3	[0, 0, 0]	n/a	catFR1	3	R1243T
393.672	1.616	411254	WORD	n/a	wordpools/wordpool_categorized_EN.txt	FOREST	Landscapes	7	3	[0, 0, 0]	n/a	catFR1	3	R1243T
395.288	0.868	412870	WORD_OFF	n/a	n/a	FOREST	n/a	7	3	[0, 0, 0]	n/a	catFR1	3	R1243T
396.156	1.616	413738	WORD	n/a	wordpools/wordpool_categorized_EN.txt	WOODS	Landscapes	8	3	[0, 0, 0]	n/a	catFR1	3	R1243T
397.772	1.017	415354	WORD_OFF	n/a	n/a	WOODS	n/a	8	3	[0, 0, 0]	n/a	catFR1	3	R1243T
398.789	1.617	416371	WORD	n/a	wordpools/wordpool_categorized_EN.txt	GLUE	OfficeSupplies	9	3	[0, 0, 0]	n/a	catFR1	3	R1243T
400.406	0.967	417988	WORD_OFF	n/a	n/a	GLUE	n/a	9	3	[0, 0, 0]	n/a	catFR1	3	R1243T
401.373	1.617	418955	WORD	n/a	wordpools/wordpool_categorized_EN.txt	PENCIL	OfficeSupplies	10	3	[0, 0, 0]	n/a	catFR1	3	R1243T
402.99	0.883	420571	WORD_OFF	n/a	n/a	PENCIL	n/a	10	3	[0, 0, 0]	n/a	catFR1	3	R1243T
403.873	1.617	421454	WORD	n/a	wordpools/wordpool_categorized_EN.txt	SUNFLOWER	Flowers	11	3	[0, 0, 0]	n/a	catFR1	3	R1243T
405.49	0.95	423071	WORD_OFF	n/a	n/a	SUNFLOWER	n/a	11	3	[0, 0, 0]	n/a	catFR1	3	R1243T
406.44	1.618	424021	WORD	n/a	wordpools/wordpool_categorized_EN.txt	PETUNIA	Flowers	12	3	[0, 0, 0]	n/a	catFR1	3	R1243T
408.058	0.001	425639	WORD_OFF	n/a	n/a	PETUNIA	n/a	12	3	[0, 0, 0]	n/a	catFR1	3	R1243T
408.059	0.101	425640	ENCODING_END	n/a	n/a	n/a	n/a	-999	3	[0, 0, 0]	n/a	catFR1	3	R1243T
408.16	0.0	425741	DISTRACT_START	n/a	n/a	n/a	n/a	-999	3	[0, 0, 0]	n/a	catFR1	3	R1243T
408.16	0.014	425741	START	n/a	n/a	n/a	n/a	-999	3	[-999, -999, -999]	n/a	catFR1	3	R1243T
408.174	4.084	425755	PROB	4.084	n/a	n/a	n/a	-999	3	[6, 6, 3]	15	catFR1	3	R1243T
412.258	2.835	429839	PROB	2.835	n/a	n/a	n/a	-999	3	[1, 3, 4]	8	catFR1	3	R1243T
415.093	3.15	432674	PROB	3.15	n/a	n/a	n/a	-999	3	[2, 6, 3]	9	catFR1	3	R1243T
418.243	8.735	435824	PROB	8.735	n/a	n/a	n/a	-999	3	[8, 5, 7]	20	catFR1	3	R1243T
426.978	5.201	444558	PROB	5.201	n/a	n/a	n/a	-999	3	[6, 7, 9]	26	catFR1	3	R1243T
432.179	0.016	449759	STOP	n/a	n/a	n/a	n/a	-999	3	[-999, -999, -999]	n/a	catFR1	3	R1243T
432.195	0.584	449775	DISTRACT_END	n/a	n/a	n/a	n/a	-999	3	[0, 0, 0]	n/a	catFR1	3	R1243T
432.779	0.517	450359	RETRIEVAL_ORIENT	n/a	n/a	n/a	n/a	-999	3	[0, 0, 0]	n/a	catFR1	3	R1243T
433.296	5.0	450876	REC_START	n/a	n/a	n/a	n/a	-999	3	[0, 0, 0]	n/a	catFR1	3	R1243T
438.296	2.228	455875	REC_WORD	2.228	n/a	HILLS	Landscapes	2	3	[0, 0, 0]	n/a	catFR1	3	R1243T
440.524	2.223	458103	REC_WORD	2.223	n/a	BEACH	Landscapes	1	3	[0, 0, 0]	n/a	catFR1	3	R1243T
442.747	2.168	460326	REC_WORD	2.168	n/a	WOODS	Landscapes	8	3	[0, 0, 0]	n/a	catFR1	3	R1243T
444.915	1.886	462494	REC_WORD	1.886	n/a	FOREST	Landscapes	7	3	[0, 0, 0]	n/a	catFR1	3	R1243T
446.801	4.116	464380	REC_WORD	4.116	n/a	PETUNIA	Flowers	12	3	[0, 0, 0]	n/a	catFR1	3	R1243T
450.917	12.39	468496	REC_WORD	12.39	n/a	ORCHID	Flowers	6	3	[0, 0, 0]	n/a	catFR1	3	R1243T
463.307	5.695	480885	REC_END	n/a	n/a	n/a	n/a	-999	3	[0, 0, 0]	n/a	catFR1	3	R1243T
469.002	0.5	486579	TRIAL	n/a	n/a	n/a	n/a	-999	4	[0, 0, 0]	n/a	catFR1	3	R1243T
469.502	10.428	487079	COUNTDOWN_START	n/a	n/a	n/a	n/a	-999	4	[0, 0, 0]	n/a	catFR1	3	R1243T
479.93	0.007	497507	COUNTDOWN_END	n/a	n/a	n/a	n/a	-999	4	[0, 0, 0]	n/a	catFR1	3	R1243T
479.937	1.617	497514	ORIENT	n/a	n/a	n/a	n/a	-999	4	[0, 0, 0]	n/a	catFR1	3	R1243T
481.554	1.867	499131	ORIENT_OFF	n/a	n/a	n/a	n/a	-999	4	[0, 0, 0]	n/a	catFR1	3	R1243T
483.421	1.617	500998	WORD	n/a	wordpools/wordpool_categorized_EN.txt	LETTUCE	Vegetables	1	4	[0, 0, 0]	n/a	catFR1	3	R1243T
485.038	0.9	502614	WORD_OFF	n/a	n/a	LETTUCE	n/a	1	4	[0, 0, 0]	n/a	catFR1	3	R1243T
485.938	1.617	503514	WORD	n/a	wordpools/wordpool_categorized_EN.txt	CARROT	Vegetables	2	4	[0, 0, 0]	n/a	catFR1	3	R1243T
487.555	0.85	505131	WORD_OFF	n/a	n/a	CARROT	n/a	2	4	[0, 0, 0]	n/a	catFR1	3	R1243T
488.405	1.617	505981	WORD	n/a	wordpools/wordpool_categorized_EN.txt	BROWNIES	Desserts	3	4	[0, 0, 0]	n/a	catFR1	3	R1243T
490.022	0.834	507598	WORD_OFF	n/a	n/a	BROWNIES	n/a	3	4	[0, 0, 0]	n/a	catFR1	3	R1243T
490.856	1.617	508432	WORD	n/a	wordpools/wordpool_categorized_EN.txt	CHEESECAKE	Desserts	4	4	[0, 0, 0]	n/a	catFR1	3	R1243T
492.473	0.85	510049	WORD_OFF	n/a	n/a	CHEESECAKE	n/a	4	4	[0, 0, 0]	n/a	catFR1	3	R1243T
493.323	1.617	510899	WORD	n/a	wordpools/wordpool_categorized_EN.txt	EAR	BodyParts	5	4	[0, 0, 0]	n/a	catFR1	3	R1243T
494.94	1.0	512516	WORD_OFF	n/a	n/a	EAR	n/a	5	4	[0, 0, 0]	n/a	catFR1	3	R1243T
495.94	1.617	513516	WORD	n/a	wordpools/wordpool_categorized_EN.txt	EYE	BodyParts	6	4	[0, 0, 0]	n/a	catFR1	3	R1243T
497.557	0.934	515133	WORD_OFF	n/a	n/a	EYE	n/a	6	4	[0, 0, 0]	n/a	catFR1	3	R1243T
498.491	1.617	516067	WORD	n/a	wordpools/wordpool_categorized_EN.txt	CAKE	Desserts	7	4	[0, 0, 0]	n/a	catFR1	3	R1243T
500.108	0.766	517684	WORD_OFF	n/a	n/a	CAKE	n/a	7	4	[0, 0, 0]	n/a	catFR1	3	R1243T
500.874	1.617	518449	WORD	n/a	wordpools/wordpool_categorized_EN.txt	MOUSSE	Desserts	8	4	[0, 0, 0]	n/a	catFR1	3	R1243T
502.491	0.834	520066	WORD_OFF	n/a	n/a	MOUSSE	n/a	8	4	[0, 0, 0]	n/a	catFR1	3	R1243T
503.325	1.617	520900	WORD	n/a	wordpools/wordpool_categorized_EN.txt	CAULIFLOWER	Vegetables	9	4	[0, 0, 0]	n/a	catFR1	3	R1243T
504.942	0.867	522517	WORD_OFF	n/a	n/a	CAULIFLOWER	n/a	9	4	[0, 0, 0]	n/a	catFR1	3	R1243T
505.809	1.616	523384	WORD	n/a	wordpools/wordpool_categorized_EN.txt	ONION	Vegetables	10	4	[0, 0, 0]	n/a	catFR1	3	R1243T
507.425	0.784	525000	WORD_OFF	n/a	n/a	ONION	n/a	10	4	[0, 0, 0]	n/a	catFR1	3	R1243T
508.209	1.617	525784	WORD	n/a	wordpools/wordpool_categorized_EN.txt	HAND	BodyParts	11	4	[0, 0, 0]	n/a	catFR1	3	R1243T
509.826	0.85	527401	WORD_OFF	n/a	n/a	HAND	n/a	11	4	[0, 0, 0]	n/a	catFR1	3	R1243T
510.676	1.617	528251	WORD	n/a	wordpools/wordpool_categorized_EN.txt	KNEE	BodyParts	12	4	[0, 0, 0]	n/a	catFR1	3	R1243T
512.293	0.0	529868	ENCODING_END	n/a	n/a	n/a	n/a	-999	4	[0, 0, 0]	n/a	catFR1	3	R1243T
512.293	0.134	529868	WORD_OFF	n/a	n/a	KNEE	n/a	12	4	[0, 0, 0]	n/a	catFR1	3	R1243T
512.427	0.0	530002	DISTRACT_START	n/a	n/a	n/a	n/a	-999	4	[0, 0, 0]	n/a	catFR1	3	R1243T
512.427	0.016	530002	START	n/a	n/a	n/a	n/a	-999	4	[-999, -999, -999]	n/a	catFR1	3	R1243T
512.443	5.834	530018	PROB	5.834	n/a	n/a	n/a	-999	4	[4, 3, 8]	15	catFR1	3	R1243T
518.277	6.402	535851	PROB	6.402	n/a	n/a	n/a	-999	4	[8, 5, 4]	17	catFR1	3	R1243T
524.679	4.117	542253	PROB	4.117	n/a	n/a	n/a	-999	4	[5, 6, 5]	16	catFR1	3	R1243T
528.796	3.551	546370	PROB	3.551	n/a	n/a	n/a	-999	4	[8, 8, 5]	21	catFR1	3	R1243T
532.347	2.977	549921	PROB	2.977	n/a	n/a	n/a	-999	4	[2, 3, 3]	5	catFR1	3	R1243T
535.324	0.007	552897	STOP	n/a	n/a	n/a	n/a	-999	4	[-999, -999, -999]	n/a	catFR1	3	R1243T
535.331	0.566	552904	DISTRACT_END	n/a	n/a	n/a	n/a	-999	4	[0, 0, 0]	n/a	catFR1	3	R1243T
535.897	0.518	553470	RETRIEVAL_ORIENT	n/a	n/a	n/a	n/a	-999	4	[0, 0, 0]	n/a	catFR1	3	R1243T
536.415	2.508	553988	REC_START	n/a	n/a	n/a	n/a	-999	4	[0, 0, 0]	n/a	catFR1	3	R1243T
538.923	7.171	556496	REC_WORD	7.171	n/a	CHEESECAKE	Desserts	4	4	[0, 0, 0]	n/a	catFR1	3	R1243T
546.094	5.428	563667	REC_WORD	5.428	n/a	FOREST	n/a	-999	4	[0, 0, 0]	n/a	catFR1	3	R1243T
551.522	4.654	569094	REC_WORD	4.654	n/a	BROWNIES	Desserts	3	4	[0, 0, 0]	n/a	catFR1	3	R1243T
556.176	10.247	573748	REC_WORD	10.247	n/a	CAULIFLOWER	Vegetables	9	4	[0, 0, 0]	n/a	catFR1	3	R1243T
566.423	5.014	583994	REC_END	n/a	n/a	n/a	n/a	-999	4	[0, 0, 0]	n/a	catFR1	3	R1243T
571.437	0.5	589008	TRIAL	n/a	n/a	n/a	n/a	-999	5	[0, 0, 0]	n/a	catFR1	3	R1243T
571.937	10.428	589508	COUNTDOWN_START	n/a	n/a	n/a	n/a	-999	5	[0, 0, 0]	n/a	catFR1	3	R1243T
582.365	0.007	599935	COUNTDOWN_END	n/a	n/a	n/a	n/a	-999	5	[0, 0, 0]	n/a	catFR1	3	R1243T
582.372	1.617	599942	ORIENT	n/a	n/a	n/a	n/a	-999	5	[0, 0, 0]	n/a	catFR1	3	R1243T
583.989	1.984	601559	ORIENT_OFF	n/a	n/a	n/a	n/a	-999	5	[0, 0, 0]	n/a	catFR1	3	R1243T
585.973	1.617	603543	WORD	n/a	wordpools/wordpool_categorized_EN.txt	BEE	Insects	1	5	[0, 0, 0]	n/a	catFR1	3	R1243T
587.59	0.85	605160	WORD_OFF	n/a	n/a	BEE	n/a	1	5	[0, 0, 0]	n/a	catFR1	3	R1243T
588.44	1.618	606010	WORD	n/a	wordpools/wordpool_categorized_EN.txt	CRICKET	Insects	2	5	[0, 0, 0]	n/a	catFR1	3	R1243T
590.058	0.766	607628	WORD_OFF	n/a	n/a	CRICKET	n/a	2	5	[0, 0, 0]	n/a	catFR1	3	R1243T
590.824	1.617	608394	WORD	n/a	wordpools/wordpool_categorized_EN.txt	DESK	Furniture	3	5	[0, 0, 0]	n/a	catFR1	3	R1243T
592.441	0.817	610011	WORD_OFF	n/a	n/a	DESK	n/a	3	5	[0, 0, 0]	n/a	catFR1	3	R1243T
593.258	1.616	610828	WORD	n/a	wordpools/wordpool_categorized_EN.txt	CABINET	Furniture	4	5	[0, 0, 0]	n/a	catFR1	3	R1243T
594.874	0.901	612444	WORD_OFF	n/a	n/a	CABINET	n/a	4	5	[0, 0, 0]	n/a	catFR1	3	R1243T
595.775	1.617	613345	WORD	n/a	wordpools/wordpool_categorized_EN.txt	TIGER	Zoo	5	5	[0, 0, 0]	n/a	catFR1	3	R1243T
597.392	0.867	614962	WORD_OFF	n/a	n/a	TIGER	n/a	5	5	[0, 0, 0]	n/a	catFR1	3	R1243T
598.259	1.617	615829	WORD	n/a	wordpools/wordpool_categorized_EN.txt	LION	Zoo	6	5	[0, 0, 0]	n/a	catFR1	3	R1243T
599.876	0.816	617445	WORD_OFF	n/a	n/a	LION	n/a	6	5	[0, 0, 0]	n/a	catFR1	3	R1243T
600.692	1.617	618261	WORD	n/a	wordpools/wordpool_categorized_EN.txt	GNAT	Insects	7	5	[0, 0, 0]	n/a	catFR1	3	R1243T
602.309	0.951	619878	WORD_OFF	n/a	n/a	GNAT	n/a	7	5	[0, 0, 0]	n/a	catFR1	3	R1243T
603.26	1.617	620829	WORD	n/a	wordpools/wordpool_categorized_EN.txt	BUTTERFLY	Insects	8	5	[0, 0, 0]	n/a	catFR1	3	R1243T
604.877	0.916	622446	WORD_OFF	n/a	n/a	BUTTERFLY	n/a	8	5	[0, 0, 0]	n/a	catFR1	3	R1243T
605.793	1.617	623362	WORD	n/a	wordpools/wordpool_categorized_EN.txt	SHELF	Furniture	9	5	[0, 0, 0]	n/a	catFR1	3	R1243T
607.41	0.984	624979	WORD_OFF	n/a	n/a	SHELF	n/a	9	5	[0, 0, 0]	n/a	catFR1	3	R1243T
608.394	1.617	625963	WORD	n/a	wordpools/wordpool_categorized_EN.txt	BOOKCASE	Furniture	10	5	[0, 0, 0]	n/a	catFR1	3	R1243T
610.011	1.0	627580	WORD_OFF	n/a	n/a	BOOKCASE	n/a	10	5	[0, 0, 0]	n/a	catFR1	3	R1243T
611.011	1.617	628580	WORD	n/a	wordpools/wordpool_categorized_EN.txt	ORANGUTAN	Zoo	11	5	[0, 0, 0]	n/a	catFR1	3	R1243T
612.628	0.833	630197	WORD_OFF	n/a	n/a	ORANGUTAN	n/a	11	5	[0, 0, 0]	n/a	catFR1	3	R1243T
613.461	1.601	631030	WORD	n/a	wordpools/wordpool_categorized_EN.txt	PANDA	Zoo	12	5	[0, 0, 0]	n/a	catFR1	3	R1243T
615.062	0.001	632630	WORD_OFF	n/a	n/a	PANDA	n/a	12	5	[0, 0, 0]	n/a	catFR1	3	R1243T
615.063	0.104	632631	ENCODING_END	n/a	n/a	n/a	n/a	-999	5	[0, 0, 0]	n/a	catFR1	3	R1243T
615.167	0.0	632735	DISTRACT_START	n/a	n/a	n/a	n/a	-999	5	[0, 0, 0]	n/a	catFR1	3	R1243T
615.167	0.011	632735	START	n/a	n/a	n/a	n/a	-999	5	[-999, -999, -999]	n/a	catFR1	3	R1243T
615.178	8.152	632746	PROB	8.152	n/a	n/a	n/a	-999	5	[7, 8, 3]	18	catFR1	3	R1243T
623.33	6.785	640898	PROB	6.785	n/a	n/a	n/a	-999	5	[9, 6, 6]	21	catFR1	3	R1243T
630.115	6.417	647683	PROB	6.417	n/a	n/a	n/a	-999	5	[4, 7, 5]	16	catFR1	3	R1243T
636.532	0.017	654099	STOP	n/a	n/a	n/a	n/a	-999	5	[-999, -999, -999]	n/a	catFR1	3	R1243T
636.549	0.667	654116	DISTRACT_END	n/a	n/a	n/a	n/a	-999	5	[0, 0, 0]	n/a	catFR1	3	R1243T
637.216	0.517	654783	RETRIEVAL_ORIENT	n/a	n/a	n/a	n/a	-999	5	[0, 0, 0]	n/a	catFR1	3	R1243T
637.733	0.129	655300	REC_START	n/a	n/a	n/a	n/a	-999	5	[0, 0, 0]	n/a	catFR1	3	R1243T
637.862	29.883	655429	REC_WORD_VV	29.883	n/a	<>	n/a	-999	5	[0, 0, 0]	n/a	catFR1	3	R1243T
667.745	4.827	685310	REC_END	n/a	n/a	n/a	n/a	-999	5	[0, 0, 0]	n/a	catFR1	3	R1243T
672.572	0.5	690137	TRIAL	n/a	n/a	n/a	n/a	-999	6	[0, 0, 0]	n/a	catFR1	3	R1243T
673.072	10.428	690637	COUNTDOWN_START	n/a	n/a	n/a	n/a	-999	6	[0, 0, 0]	n/a	catFR1	3	R1243T
683.5	0.008	701064	COUNTDOWN_END	n/a	n/a	n/a	n/a	-999	6	[0, 0, 0]	n/a	catFR1	3	R1243T
683.508	1.617	701072	ORIENT	n/a	n/a	n/a	n/a	-999	6	[0, 0, 0]	n/a	catFR1	3	R1243T
685.125	2.183	702689	ORIENT_OFF	n/a	n/a	n/a	n/a	-999	6	[0, 0, 0]	n/a	catFR1	3	R1243T
687.308	1.617	704872	WORD	n/a	wordpools/wordpool_categorized_EN.txt	FOOT	BodyParts	1	6	[0, 0, 0]	n/a	catFR1	3	R1243T
688.925	0.934	706489	WORD_OFF	n/a	n/a	FOOT	n/a	1	6	[0, 0, 0]	n/a	catFR1	3	R1243T
689.859	1.617	707423	WORD	n/a	wordpools/wordpool_categorized_EN.txt	HEAD	BodyParts	2	6	[0, 0, 0]	n/a	catFR1	3	R1243T
691.476	0.766	709040	WORD_OFF	n/a	n/a	HEAD	n/a	2	6	[0, 0, 0]	n/a	catFR1	3	R1243T
692.242	1.617	709806	WORD	n/a	wordpools/wordpool_categorized_EN.txt	FOG	Weather	3	6	[0, 0, 0]	n/a	catFR1	3	R1243T
693.859	0.834	711423	WORD_OFF	n/a	n/a	FOG	n/a	3	6	[0, 0, 0]	n/a	catFR1	3	R1243T
694.693	1.617	712257	WORD	n/a	wordpools/wordpool_categorized_EN.txt	SNOW	Weather	4	6	[0, 0, 0]	n/a	catFR1	3	R1243T
696.31	0.784	713874	WORD_OFF	n/a	n/a	SNOW	n/a	4	6	[0, 0, 0]	n/a	catFR1	3	R1243T
697.094	1.616	714657	WORD	n/a	wordpools/wordpool_categorized_EN.txt	DISHWASHER	Appliances	5	6	[0, 0, 0]	n/a	catFR1	3	R1243T
698.71	0.95	716273	WORD_OFF	n/a	n/a	DISHWASHER	n/a	5	6	[0, 0, 0]	n/a	catFR1	3	R1243T
699.66	1.617	717223	WORD	n/a	wordpools/wordpool_categorized_EN.txt	REFRIGERATOR	Appliances	6	6	[0, 0, 0]	n/a	catFR1	3	R1243T
701.277	0.852	718840	WORD_OFF	n/a	n/a	REFRIGERATOR	n/a	6	6	[0, 0, 0]	n/a	catFR1	3	R1243T
702.129	1.616	719692	WORD	n/a	wordpools/wordpool_categorized_EN.txt	FINGERS	BodyParts	7	6	[0, 0, 0]	n/a	catFR1	3	R1243T
703.745	0.983	721308	WORD_OFF	n/a	n/a	FINGERS	n/a	7	6	[0, 0, 0]	n/a	catFR1	3	R1243T
704.728	1.617	722291	WORD	n/a	wordpools/wordpool_categorized_EN.txt	TOE	BodyParts	8	6	[0, 0, 0]	n/a	catFR1	3	R1243T
706.345	0.95	723908	WORD_OFF	n/a	n/a	TOE	n/a	8	6	[0, 0, 0]	n/a	catFR1	3	R1243T
707.295	1.617	724858	WORD	n/a	wordpools/wordpool_categorized_EN.txt	DRIZZLE	Weather	9	6	[0, 0, 0]	n/a	catFR1	3	R1243T
708.912	0.867	726475	WORD_OFF	n/a	n/a	DRIZZLE	n/a	9	6	[0, 0, 0]	n/a	catFR1	3	R1243T
709.779	1.617	727342	WORD	n/a	wordpools/wordpool_categorized_EN.txt	CLOUD	Weather	10	6	[0, 0, 0]	n/a	catFR1	3	R1243T
711.396	0.883	728959	WORD_OFF	n/a	n/a	CLOUD	n/a	10	6	[0, 0, 0]	n/a	catFR1	3	R1243T
712.279	1.617	729842	WORD	n/a	wordpools/wordpool_categorized_EN.txt	STOVE	Appliances	11	6	[0, 0, 0]	n/a	catFR1	3	R1243T
713.896	0.867	731458	WORD_OFF	n/a	n/a	STOVE	n/a	11	6	[0, 0, 0]	n/a	catFR1	3	R1243T
714.763	1.617	732325	WORD	n/a	wordpools/wordpool_categorized_EN.txt	IRON	Appliances	12	6	[0, 0, 0]	n/a	catFR1	3	R1243T
716.38	0.0	733942	ENCODING_END	n/a	n/a	n/a	n/a	-999	6	[0, 0, 0]	n/a	catFR1	3	R1243T
716.38	0.132	733942	WORD_OFF	n/a	n/a	IRON	n/a	12	6	[0, 0, 0]	n/a	catFR1	3	R1243T
716.512	0.0	734074	DISTRACT_START	n/a	n/a	n/a	n/a	-999	6	[0, 0, 0]	n/a	catFR1	3	R1243T
716.512	0.018	734074	START	n/a	n/a	n/a	n/a	-999	6	[-999, -999, -999]	n/a	catFR1	3	R1243T
716.53	4.619	734092	PROB	4.619	n/a	n/a	n/a	-999	6	[7, 7, 8]	22	catFR1	3	R1243T
721.149	5.083	738711	PROB	5.083	n/a	n/a	n/a	-999	6	[7, 4, 5]	16	catFR1	3	R1243T
726.232	3.217	743794	PROB	3.217	n/a	n/a	n/a	-999	6	[5, 1, 3]	9	catFR1	3	R1243T
729.449	3.818	747010	PROB	3.818	n/a	n/a	n/a	-999	6	[2, 7, 1]	10	catFR1	3	R1243T
733.267	4.232	750828	PROB	4.232	n/a	n/a	n/a	-999	6	[6, 8, 3]	17	catFR1	3	R1243T
737.499	0.018	755060	STOP	n/a	n/a	n/a	n/a	-999	6	[-999, -999, -999]	n/a	catFR1	3	R1243T
737.517	0.584	755078	DISTRACT_END	n/a	n/a	n/a	n/a	-999	6	[0, 0, 0]	n/a	catFR1	3	R1243T
738.101	0.517	755662	RETRIEVAL_ORIENT	n/a	n/a	n/a	n/a	-999	6	[0, 0, 0]	n/a	catFR1	3	R1243T
738.618	2.245	756179	REC_START	n/a	n/a	n/a	n/a	-999	6	[0, 0, 0]	n/a	catFR1	3	R1243T
740.863	1.0	758424	REC_WORD	1.0	n/a	FOOT	BodyParts	1	6	[0, 0, 0]	n/a	catFR1	3	R1243T
741.863	0.851	759424	REC_WORD_VV	0.851	n/a	<>	n/a	-999	6	[0, 0, 0]	n/a	catFR1	3	R1243T
742.714	1.001	760275	REC_WORD	1.001	n/a	TOE	BodyParts	8	6	[0, 0, 0]	n/a	catFR1	3	R1243T
743.715	4.056	761276	REC_WORD	4.056	n/a	HAND	n/a	-999	6	[0, 0, 0]	n/a	catFR1	3	R1243T
747.771	2.762	765331	REC_WORD	2.762	n/a	REFRIGERATOR	Appliances	6	6	[0, 0, 0]	n/a	catFR1	3	R1243T
750.533	17.342	768093	REC_WORD	17.342	n/a	STOVE	Appliances	11	6	[0, 0, 0]	n/a	catFR1	3	R1243T
767.875	0.755	785434	REC_WORD	0.755	n/a	CABINET	n/a	-999	6	[0, 0, 0]	n/a	catFR1	3	R1243T
768.63	5.211	786189	REC_END	n/a	n/a	n/a	n/a	-999	6	[0, 0, 0]	n/a	catFR1	3	R1243T
773.841	0.5	791400	TRIAL	n/a	n/a	n/a	n/a	-999	7	[0, 0, 0]	n/a	catFR1	3	R1243T
774.341	10.428	791900	COUNTDOWN_START	n/a	n/a	n/a	n/a	-999	7	[0, 0, 0]	n/a	catFR1	3	R1243T
784.769	0.007	802327	COUNTDOWN_END	n/a	n/a	n/a	n/a	-999	7	[0, 0, 0]	n/a	catFR1	3	R1243T
784.776	1.617	802334	ORIENT	n/a	n/a	n/a	n/a	-999	7	[0, 0, 0]	n/a	catFR1	3	R1243T
786.393	2.183	803951	ORIENT_OFF	n/a	n/a	n/a	n/a	-999	7	[0, 0, 0]	n/a	catFR1	3	R1243T
788.576	1.618	806134	WORD	n/a	wordpools/wordpool_categorized_EN.txt	CORKSCREW	KitchenTools	1	7	[0, 0, 0]	n/a	catFR1	3	R1243T
790.194	0.951	807752	WORD_OFF	n/a	n/a	CORKSCREW	n/a	1	7	[0, 0, 0]	n/a	catFR1	3	R1243T
791.145	1.616	808703	WORD	n/a	wordpools/wordpool_categorized_EN.txt	LADLE	KitchenTools	2	7	[0, 0, 0]	n/a	catFR1	3	R1243T
792.761	0.883	810319	WORD_OFF	n/a	n/a	LADLE	n/a	2	7	[0, 0, 0]	n/a	catFR1	3	R1243T
793.644	1.617	811202	WORD	n/a	wordpools/wordpool_categorized_EN.txt	FOLDER	OfficeSupplies	3	7	[0, 0, 0]	n/a	catFR1	3	R1243T
795.261	0.785	812818	WORD_OFF	n/a	n/a	FOLDER	n/a	3	7	[0, 0, 0]	n/a	catFR1	3	R1243T
796.046	1.616	813603	WORD	n/a	wordpools/wordpool_categorized_EN.txt	MARKER	OfficeSupplies	4	7	[0, 0, 0]	n/a	catFR1	3	R1243T
797.662	0.8	815219	WORD_OFF	n/a	n/a	MARKER	n/a	4	7	[0, 0, 0]	n/a	catFR1	3	R1243T
798.462	1.618	816019	WORD	n/a	wordpools/wordpool_categorized_EN.txt	CHAIR	Furniture	5	7	[0, 0, 0]	n/a	catFR1	3	R1243T
800.08	0.949	817637	WORD_OFF	n/a	n/a	CHAIR	n/a	5	7	[0, 0, 0]	n/a	catFR1	3	R1243T
801.029	1.617	818586	WORD	n/a	wordpools/wordpool_categorized_EN.txt	NIGHTSTAND	Furniture	6	7	[0, 0, 0]	n/a	catFR1	3	R1243T
802.646	1.0	820203	WORD_OFF	n/a	n/a	NIGHTSTAND	n/a	6	7	[0, 0, 0]	n/a	catFR1	3	R1243T
803.646	1.617	821203	WORD	n/a	wordpools/wordpool_categorized_EN.txt	PEN	OfficeSupplies	7	7	[0, 0, 0]	n/a	catFR1	3	R1243T
805.263	0.983	822820	WORD_OFF	n/a	n/a	PEN	n/a	7	7	[0, 0, 0]	n/a	catFR1	3	R1243T
806.246	1.617	823803	WORD	n/a	wordpools/wordpool_categorized_EN.txt	BINDER	OfficeSupplies	8	7	[0, 0, 0]	n/a	catFR1	3	R1243T
807.863	0.9	825420	WORD_OFF	n/a	n/a	BINDER	n/a	8	7	[0, 0, 0]	n/a	catFR1	3	R1243T
808.763	1.601	826320	WORD	n/a	wordpools/wordpool_categorized_EN.txt	SPOON	KitchenTools	9	7	[0, 0, 0]	n/a	catFR1	3	R1243T
810.364	0.85	827921	WORD_OFF	n/a	n/a	SPOON	n/a	9	7	[0, 0, 0]	n/a	catFR1	3	R1243T
811.214	1.617	828771	WORD	n/a	wordpools/wordpool_categorized_EN.txt	PEELER	KitchenTools	10	7	[0, 0, 0]	n/a	catFR1	3	R1243T
812.831	0.817	830387	WORD_OFF	n/a	n/a	PEELER	n/a	10	7	[0, 0, 0]	n/a	catFR1	3	R1243T
813.648	1.617	831204	WORD	n/a	wordpools/wordpool_categorized_EN.txt	DRESSER	Furniture	11	7	[0, 0, 0]	n/a	catFR1	3	R1243T
815.265	0.884	832821	WORD_OFF	n/a	n/a	DRESSER	n/a	11	7	[0, 0, 0]	n/a	catFR1	3	R1243T
816.149	1.616	833705	WORD	n/a	wordpools/wordpool_categorized_EN.txt	TABLE	Furniture	12	7	[0, 0, 0]	n/a	catFR1	3	R1243T
817.765	0.0	835321	ENCODING_END	n/a	n/a	n/a	n/a	-999	7	[0, 0, 0]	n/a	catFR1	3	R1243T
817.765	0.129	835321	WORD_OFF	n/a	n/a	TABLE	n/a	12	7	[0, 0, 0]	n/a	catFR1	3	R1243T
817.894	0.001	835450	DISTRACT_START	n/a	n/a	n/a	n/a	-999	7	[0, 0, 0]	n/a	catFR1	3	R1243T
817.895	0.02	835451	START	n/a	n/a	n/a	n/a	-999	7	[-999, -999, -999]	n/a	catFR1	3	R1243T
817.915	4.185	835471	PROB	4.185	n/a	n/a	n/a	-999	7	[1, 4, 4]	9	catFR1	3	R1243T
822.1	4.3	839656	PROB	4.3	n/a	n/a	n/a	-999	7	[7, 1, 3]	11	catFR1	3	R1243T
826.4	3.968	843956	PROB	3.968	n/a	n/a	n/a	-999	7	[3, 7, 3]	13	catFR1	3	R1243T
830.368	7.017	847923	PROB	7.017	n/a	n/a	n/a	-999	7	[6, 3, 8]	18	catFR1	3	R1243T
837.385	3.946	854940	PROB	3.946	n/a	n/a	n/a	-999	7	[2, 6, 8]	16	catFR1	3	R1243T
841.331	0.022	858886	STOP	n/a	n/a	n/a	n/a	-999	7	[-999, -999, -999]	n/a	catFR1	3	R1243T
841.353	0.55	858908	DISTRACT_END	n/a	n/a	n/a	n/a	-999	7	[0, 0, 0]	n/a	catFR1	3	R1243T
841.903	0.518	859458	RETRIEVAL_ORIENT	n/a	n/a	n/a	n/a	-999	7	[0, 0, 0]	n/a	catFR1	3	R1243T
842.421	2.282	859976	REC_START	n/a	n/a	n/a	n/a	-999	7	[0, 0, 0]	n/a	catFR1	3	R1243T
844.703	2.188	862257	REC_WORD	2.188	n/a	DRESSER	Furniture	11	7	[0, 0, 0]	n/a	catFR1	3	R1243T
846.891	3.922	864445	REC_WORD	3.922	n/a	TABLE	Furniture	12	7	[0, 0, 0]	n/a	catFR1	3	R1243T
850.813	7.342	868367	REC_WORD	7.342	n/a	LAMP	n/a	-999	7	[0, 0, 0]	n/a	catFR1	3	R1243T
858.155	7.251	875709	REC_WORD	7.251	n/a	PEELER	KitchenTools	10	7	[0, 0, 0]	n/a	catFR1	3	R1243T
865.406	7.025	882959	REC_WORD	7.025	n/a	CORKSCREW	KitchenTools	1	7	[0, 0, 0]	n/a	catFR1	3	R1243T
872.431	5.663	889984	REC_END	n/a	n/a	n/a	n/a	-999	7	[0, 0, 0]	n/a	catFR1	3	R1243T
878.094	0.5	895646	TRIAL	n/a	n/a	n/a	n/a	-999	8	[0, 0, 0]	n/a	catFR1	3	R1243T
878.594	10.428	896146	COUNTDOWN_START	n/a	n/a	n/a	n/a	-999	8	[0, 0, 0]	n/a	catFR1	3	R1243T
889.022	0.006	906574	COUNTDOWN_END	n/a	n/a	n/a	n/a	-999	8	[0, 0, 0]	n/a	catFR1	3	R1243T
889.028	1.617	906580	ORIENT	n/a	n/a	n/a	n/a	-999	8	[0, 0, 0]	n/a	catFR1	3	R1243T
890.645	1.817	908197	ORIENT_OFF	n/a	n/a	n/a	n/a	-999	8	[0, 0, 0]	n/a	catFR1	3	R1243T
892.462	1.618	910014	WORD	n/a	wordpools/wordpool_categorized_EN.txt	WHISK	KitchenTools	1	8	[0, 0, 0]	n/a	catFR1	3	R1243T
894.08	0.916	911631	WORD_OFF	n/a	n/a	WHISK	n/a	1	8	[0, 0, 0]	n/a	catFR1	3	R1243T
894.996	1.617	912547	WORD	n/a	wordpools/wordpool_categorized_EN.txt	TONGS	KitchenTools	2	8	[0, 0, 0]	n/a	catFR1	3	R1243T
896.613	0.85	914164	WORD_OFF	n/a	n/a	TONGS	n/a	2	8	[0, 0, 0]	n/a	catFR1	3	R1243T
897.463	1.618	915014	WORD	n/a	wordpools/wordpool_categorized_EN.txt	TABLET	Electronics	3	8	[0, 0, 0]	n/a	catFR1	3	R1243T
899.081	0.766	916632	WORD_OFF	n/a	n/a	TABLET	n/a	3	8	[0, 0, 0]	n/a	catFR1	3	R1243T
899.847	1.617	917398	WORD	n/a	wordpools/wordpool_categorized_EN.txt	COMPUTER	Electronics	4	8	[0, 0, 0]	n/a	catFR1	3	R1243T
901.464	0.833	919015	WORD_OFF	n/a	n/a	COMPUTER	n/a	4	8	[0, 0, 0]	n/a	catFR1	3	R1243T
902.297	1.617	919848	WORD	n/a	wordpools/wordpool_categorized_EN.txt	STAIRS	Building	5	8	[0, 0, 0]	n/a	catFR1	3	R1243T
903.914	0.934	921465	WORD_OFF	n/a	n/a	STAIRS	n/a	5	8	[0, 0, 0]	n/a	catFR1	3	R1243T
904.848	1.617	922399	WORD	n/a	wordpools/wordpool_categorized_EN.txt	WINDOW	Building	6	8	[0, 0, 0]	n/a	catFR1	3	R1243T
906.465	0.783	924016	WORD_OFF	n/a	n/a	WINDOW	n/a	6	8	[0, 0, 0]	n/a	catFR1	3	R1243T
907.248	1.617	924799	WORD	n/a	wordpools/wordpool_categorized_EN.txt	STRAINER	KitchenTools	7	8	[0, 0, 0]	n/a	catFR1	3	R1243T
908.865	1.0	926416	WORD_OFF	n/a	n/a	STRAINER	n/a	7	8	[0, 0, 0]	n/a	catFR1	3	R1243T
909.865	1.617	927415	WORD	n/a	wordpools/wordpool_categorized_EN.txt	FORK	KitchenTools	8	8	[0, 0, 0]	n/a	catFR1	3	R1243T
911.482	0.784	929032	WORD_OFF	n/a	n/a	FORK	n/a	8	8	[0, 0, 0]	n/a	catFR1	3	R1243T
912.266	1.617	929816	WORD	n/a	wordpools/wordpool_categorized_EN.txt	SCANNER	Electronics	9	8	[0, 0, 0]	n/a	catFR1	3	R1243T
913.883	0.917	931433	WORD_OFF	n/a	n/a	SCANNER	n/a	9	8	[0, 0, 0]	n/a	catFR1	3	R1243T
914.8	1.617	932350	WORD	n/a	wordpools/wordpool_categorized_EN.txt	RADIO	Electronics	10	8	[0, 0, 0]	n/a	catFR1	3	R1243T
916.417	0.783	933967	WORD_OFF	n/a	n/a	RADIO	n/a	10	8	[0, 0, 0]	n/a	catFR1	3	R1243T
917.2	1.617	934750	WORD	n/a	wordpools/wordpool_categorized_EN.txt	CEILING	Building	11	8	[0, 0, 0]	n/a	catFR1	3	R1243T
918.817	0.917	936367	WORD_OFF	n/a	n/a	CEILING	n/a	11	8	[0, 0, 0]	n/a	catFR1	3	R1243T
919.734	1.617	937284	WORD	n/a	wordpools/wordpool_categorized_EN.txt	HALLWAY	Building	12	8	[0, 0, 0]	n/a	catFR1	3	R1243T
921.351	0.0	938901	ENCODING_END	n/a	n/a	n/a	n/a	-999	8	[0, 0, 0]	n/a	catFR1	3	R1243T
921.351	0.104	938901	WORD_OFF	n/a	n/a	HALLWAY	n/a	12	8	[0, 0, 0]	n/a	catFR1	3	R1243T
921.455	0.0	939005	DISTRACT_START	n/a	n/a	n/a	n/a	-999	8	[0, 0, 0]	n/a	catFR1	3	R1243T
921.455	0.012	939005	START	n/a	n/a	n/a	n/a	-999	8	[-999, -999, -999]	n/a	catFR1	3	R1243T
921.467	4.768	939017	PROB	4.768	n/a	n/a	n/a	-999	8	[6, 5, 4]	15	catFR1	3	R1243T
926.235	3.534	943784	PROB	3.534	n/a	n/a	n/a	-999	8	[2, 3, 1]	6	catFR1	3	R1243T
929.769	4.917	947318	PROB	4.917	n/a	n/a	n/a	-999	8	[9, 9, 1]	19	catFR1	3	R1243T
934.686	6.436	952235	PROB	6.436	n/a	n/a	n/a	-999	8	[8, 8, 7]	25	catFR1	3	R1243T
941.122	4.578	958671	PROB	4.578	n/a	n/a	n/a	-999	8	[3, 4, 8]	15	catFR1	3	R1243T
945.7	0.022	963248	STOP	n/a	n/a	n/a	n/a	-999	8	[-999, -999, -999]	n/a	catFR1	3	R1243T
945.722	0.667	963270	DISTRACT_END	n/a	n/a	n/a	n/a	-999	8	[0, 0, 0]	n/a	catFR1	3	R1243T
946.389	0.517	963937	RETRIEVAL_ORIENT	n/a	n/a	n/a	n/a	-999	8	[0, 0, 0]	n/a	catFR1	3	R1243T
946.906	4.391	964454	REC_START	n/a	n/a	n/a	n/a	-999	8	[0, 0, 0]	n/a	catFR1	3	R1243T
951.297	1.171	968845	REC_WORD	1.171	n/a	CEILING	Building	11	8	[0, 0, 0]	n/a	catFR1	3	R1243T
952.468	24.446	970016	REC_WORD	24.446	n/a	FLOOR	n/a	-999	8	[0, 0, 0]	n/a	catFR1	3	R1243T
976.914	5.398	994460	REC_END	n/a	n/a	n/a	n/a	-999	8	[0, 0, 0]	n/a	catFR1	3	R1243T
982.312	0.5	999858	TRIAL	n/a	n/a	n/a	n/a	-999	9	[0, 0, 0]	n/a	catFR1	3	R1243T
982.812	10.428	1000358	COUNTDOWN_START	n/a	n/a	n/a	n/a	-999	9	[0, 0, 0]	n/a	catFR1	3	R1243T
993.24	0.007	1010785	COUNTDOWN_END	n/a	n/a	n/a	n/a	-999	9	[0, 0, 0]	n/a	catFR1	3	R1243T
993.247	1.617	1010792	ORIENT	n/a	n/a	n/a	n/a	-999	9	[0, 0, 0]	n/a	catFR1	3	R1243T
994.864	1.967	1012409	ORIENT_OFF	n/a	n/a	n/a	n/a	-999	9	[0, 0, 0]	n/a	catFR1	3	R1243T
996.831	1.617	1014376	WORD	n/a	wordpools/wordpool_categorized_EN.txt	COW	FarmAnimals	1	9	[0, 0, 0]	n/a	catFR1	3	R1243T
998.448	1.0	1015993	WORD_OFF	n/a	n/a	COW	n/a	1	9	[0, 0, 0]	n/a	catFR1	3	R1243T
999.448	1.618	1016993	WORD	n/a	wordpools/wordpool_categorized_EN.txt	PIG	FarmAnimals	2	9	[0, 0, 0]	n/a	catFR1	3	R1243T
1001.066	0.783	1018611	WORD_OFF	n/a	n/a	PIG	n/a	2	9	[0, 0, 0]	n/a	catFR1	3	R1243T
1001.849	1.617	1019394	WORD	n/a	wordpools/wordpool_categorized_EN.txt	LILAC	Flowers	3	9	[0, 0, 0]	n/a	catFR1	3	R1243T
1003.466	0.967	1021011	WORD_OFF	n/a	n/a	LILAC	n/a	3	9	[0, 0, 0]	n/a	catFR1	3	R1243T
1004.433	1.618	1021978	WORD	n/a	wordpools/wordpool_categorized_EN.txt	DAISY	Flowers	4	9	[0, 0, 0]	n/a	catFR1	3	R1243T
1006.051	0.865	1023596	WORD_OFF	n/a	n/a	DAISY	n/a	4	9	[0, 0, 0]	n/a	catFR1	3	R1243T
1006.916	1.617	1024461	WORD	n/a	wordpools/wordpool_categorized_EN.txt	BROCCOLI	Vegetables	5	9	[0, 0, 0]	n/a	catFR1	3	R1243T
1008.533	0.85	1026077	WORD_OFF	n/a	n/a	BROCCOLI	n/a	5	9	[0, 0, 0]	n/a	catFR1	3	R1243T
1009.383	1.617	1026927	WORD	n/a	wordpools/wordpool_categorized_EN.txt	CUCUMBER	Vegetables	6	9	[0, 0, 0]	n/a	catFR1	3	R1243T
1011.0	0.817	1028544	WORD_OFF	n/a	n/a	CUCUMBER	n/a	6	9	[0, 0, 0]	n/a	catFR1	3	R1243T
1011.817	1.617	1029361	WORD	n/a	wordpools/wordpool_categorized_EN.txt	ROOSTER	FarmAnimals	7	9	[0, 0, 0]	n/a	catFR1	3	R1243T
1013.434	0.95	1030978	WORD_OFF	n/a	n/a	ROOSTER	n/a	7	9	[0, 0, 0]	n/a	catFR1	3	R1243T
1014.384	1.617	1031928	WORD	n/a	wordpools/wordpool_categorized_EN.txt	CALF	FarmAnimals	8	9	[0, 0, 0]	n/a	catFR1	3	R1243T
1016.001	0.917	1033545	WORD_OFF	n/a	n/a	CALF	n/a	8	9	[0, 0, 0]	n/a	catFR1	3	R1243T
1016.918	1.617	1034462	WORD	n/a	wordpools/wordpool_categorized_EN.txt	DAFFODIL	Flowers	9	9	[0, 0, 0]	n/a	catFR1	3	R1243T
1018.535	0.917	1036079	WORD_OFF	n/a	n/a	DAFFODIL	n/a	9	9	[0, 0, 0]	n/a	catFR1	3	R1243T
1019.452	1.618	1036996	WORD	n/a	wordpools/wordpool_categorized_EN.txt	VIOLET	Flowers	10	9	[0, 0, 0]	n/a	catFR1	3	R1243T
1021.07	0.799	1038614	WORD_OFF	n/a	n/a	VIOLET	n/a	10	9	[0, 0, 0]	n/a	catFR1	3	R1243T
1021.869	1.617	1039413	WORD	n/a	wordpools/wordpool_categorized_EN.txt	PEAS	Vegetables	11	9	[0, 0, 0]	n/a	catFR1	3	R1243T
1023.486	0.85	1041030	WORD_OFF	n/a	n/a	PEAS	n/a	11	9	[0, 0, 0]	n/a	catFR1	3	R1243T
1024.336	1.617	1041879	WORD	n/a	wordpools/wordpool_categorized_EN.txt	CELERY	Vegetables	12	9	[0, 0, 0]	n/a	catFR1	3	R1243T
1025.953	0.0	1043496	ENCODING_END	n/a	n/a	n/a	n/a	-999	9	[0, 0, 0]	n/a	catFR1	3	R1243T
1025.953	0.143	1043496	WORD_OFF	n/a	n/a	CELERY	n/a	12	9	[0, 0, 0]	n/a	catFR1	3	R1243T
1026.096	0.0	1043639	DISTRACT_START	n/a	n/a	n/a	n/a	-999	9	[0, 0, 0]	n/a	catFR1	3	R1243T
1026.096	0.008	1043639	START	n/a	n/a	n/a	n/a	-999	9	[-999, -999, -999]	n/a	catFR1	3	R1243T
1026.104	3.483	1043647	PROB	3.483	n/a	n/a	n/a	-999	9	[5, 5, 1]	11	catFR1	3	R1243T
1029.587	4.284	1047130	PROB	4.284	n/a	n/a	n/a	-999	9	[8, 8, 3]	19	catFR1	3	R1243T
1033.871	4.934	1051414	PROB	4.934	n/a	n/a	n/a	-999	9	[6, 5, 9]	20	catFR1	3	R1243T
1038.805	5.618	1056348	PROB	5.618	n/a	n/a	n/a	-999	9	[7, 8, 5]	20	catFR1	3	R1243T
1044.423	4.053	1061965	PROB	4.053	n/a	n/a	n/a	-999	9	[6, 7, 1]	14	catFR1	3	R1243T
1048.476	0.015	1066018	STOP	n/a	n/a	n/a	n/a	-999	9	[-999, -999, -999]	n/a	catFR1	3	R1243T
1048.491	0.551	1066033	DISTRACT_END	n/a	n/a	n/a	n/a	-999	9	[0, 0, 0]	n/a	catFR1	3	R1243T
1049.042	0.516	1066584	RETRIEVAL_ORIENT	n/a	n/a	n/a	n/a	-999	9	[0, 0, 0]	n/a	catFR1	3	R1243T
1049.558	4.063	1067100	REC_START	n/a	n/a	n/a	n/a	-999	9	[0, 0, 0]	n/a	catFR1	3	R1243T
1053.621	0.684	1071163	REC_WORD	0.684	n/a	COW	FarmAnimals	1	9	[0, 0, 0]	n/a	catFR1	3	R1243T
1054.305	0.733	1071847	REC_WORD	0.733	n/a	PIG	FarmAnimals	2	9	[0, 0, 0]	n/a	catFR1	3	R1243T
1055.038	4.444	1072580	REC_WORD	4.444	n/a	ROOSTER	FarmAnimals	7	9	[0, 0, 0]	n/a	catFR1	3	R1243T
1059.482	2.543	1077023	REC_WORD	2.543	n/a	PEAS	Vegetables	11	9	[0, 0, 0]	n/a	catFR1	3	R1243T
1062.025	17.543	1079566	REC_WORD	17.543	n/a	PEAS	Vegetables	11	9	[0, 0, 0]	n/a	catFR1	3	R1243T
1079.568	6.713	1097108	REC_END	n/a	n/a	n/a	n/a	-999	9	[0, 0, 0]	n/a	catFR1	3	R1243T
1086.281	0.5	1103821	TRIAL	n/a	n/a	n/a	n/a	-999	10	[0, 0, 0]	n/a	catFR1	3	R1243T
1086.781	10.428	1104321	COUNTDOWN_START	n/a	n/a	n/a	n/a	-999	10	[0, 0, 0]	n/a	catFR1	3	R1243T
1097.209	0.007	1114748	COUNTDOWN_END	n/a	n/a	n/a	n/a	-999	10	[0, 0, 0]	n/a	catFR1	3	R1243T
1097.216	1.617	1114755	ORIENT	n/a	n/a	n/a	n/a	-999	10	[0, 0, 0]	n/a	catFR1	3	R1243T
1098.833	1.917	1116372	ORIENT_OFF	n/a	n/a	n/a	n/a	-999	10	[0, 0, 0]	n/a	catFR1	3	R1243T
1100.75	1.617	1118289	WORD	n/a	wordpools/wordpool_categorized_EN.txt	JUICE	Beverages	1	10	[0, 0, 0]	n/a	catFR1	3	R1243T
1102.367	0.883	1119906	WORD_OFF	n/a	n/a	JUICE	n/a	1	10	[0, 0, 0]	n/a	catFR1	3	R1243T
1103.25	1.617	1120789	WORD	n/a	wordpools/wordpool_categorized_EN.txt	LEMONADE	Beverages	2	10	[0, 0, 0]	n/a	catFR1	3	R1243T
1104.867	0.967	1122406	WORD_OFF	n/a	n/a	LEMONADE	n/a	2	10	[0, 0, 0]	n/a	catFR1	3	R1243T
1105.834	1.617	1123373	WORD	n/a	wordpools/wordpool_categorized_EN.txt	FLY	Insects	3	10	[0, 0, 0]	n/a	catFR1	3	R1243T
1107.451	0.867	1124989	WORD_OFF	n/a	n/a	FLY	n/a	3	10	[0, 0, 0]	n/a	catFR1	3	R1243T
1108.318	1.617	1125856	WORD	n/a	wordpools/wordpool_categorized_EN.txt	ANT	Insects	4	10	[0, 0, 0]	n/a	catFR1	3	R1243T
1109.935	0.85	1127473	WORD_OFF	n/a	n/a	ANT	n/a	4	10	[0, 0, 0]	n/a	catFR1	3	R1243T
1110.785	1.617	1128323	WORD	n/a	wordpools/wordpool_categorized_EN.txt	ATTIC	Building	5	10	[0, 0, 0]	n/a	catFR1	3	R1243T
1112.402	0.834	1129940	WORD_OFF	n/a	n/a	ATTIC	n/a	5	10	[0, 0, 0]	n/a	catFR1	3	R1243T
1113.236	1.617	1130774	WORD	n/a	wordpools/wordpool_categorized_EN.txt	WALL	Building	6	10	[0, 0, 0]	n/a	catFR1	3	R1243T
1114.853	0.783	1132391	WORD_OFF	n/a	n/a	WALL	n/a	6	10	[0, 0, 0]	n/a	catFR1	3	R1243T
1115.636	1.617	1133174	WORD	n/a	wordpools/wordpool_categorized_EN.txt	MOSQUITO	Insects	7	10	[0, 0, 0]	n/a	catFR1	3	R1243T
1117.253	0.767	1134791	WORD_OFF	n/a	n/a	MOSQUITO	n/a	7	10	[0, 0, 0]	n/a	catFR1	3	R1243T
1118.02	1.617	1135558	WORD	n/a	wordpools/wordpool_categorized_EN.txt	LADYBUG	Insects	8	10	[0, 0, 0]	n/a	catFR1	3	R1243T
1119.637	0.817	1137175	WORD_OFF	n/a	n/a	LADYBUG	n/a	8	10	[0, 0, 0]	n/a	catFR1	3	R1243T
1120.454	1.618	1137992	WORD	n/a	wordpools/wordpool_categorized_EN.txt	CIDER	Beverages	9	10	[0, 0, 0]	n/a	catFR1	3	R1243T
1122.072	0.965	1139610	WORD_OFF	n/a	n/a	CIDER	n/a	9	10	[0, 0, 0]	n/a	catFR1	3	R1243T
1123.037	1.617	1140574	WORD	n/a	wordpools/wordpool_categorized_EN.txt	COLA	Beverages	10	10	[0, 0, 0]	n/a	catFR1	3	R1243T
1124.654	0.817	1142191	WORD_OFF	n/a	n/a	COLA	n/a	10	10	[0, 0, 0]	n/a	catFR1	3	R1243T
1125.471	1.601	1143008	WORD	n/a	wordpools/wordpool_categorized_EN.txt	BATHROOM	Building	11	10	[0, 0, 0]	n/a	catFR1	3	R1243T
1127.072	0.9	1144609	WORD_OFF	n/a	n/a	BATHROOM	n/a	11	10	[0, 0, 0]	n/a	catFR1	3	R1243T
1127.972	1.617	1145509	WORD	n/a	wordpools/wordpool_categorized_EN.txt	FLOOR	Building	12	10	[0, 0, 0]	n/a	catFR1	3	R1243T
1129.589	0.0	1147126	WORD_OFF	n/a	n/a	FLOOR	n/a	12	10	[0, 0, 0]	n/a	catFR1	3	R1243T
1129.589	0.102	1147126	ENCODING_END	n/a	n/a	n/a	n/a	-999	10	[0, 0, 0]	n/a	catFR1	3	R1243T
1129.691	0.0	1147228	DISTRACT_START	n/a	n/a	n/a	n/a	-999	10	[0, 0, 0]	n/a	catFR1	3	R1243T
1129.691	0.014	1147228	START	n/a	n/a	n/a	n/a	-999	10	[-999, -999, -999]	n/a	catFR1	3	R1243T
1129.705	3.534	1147242	PROB	3.534	n/a	n/a	n/a	-999	10	[5, 5, 5]	15	catFR1	3	R1243T
1133.239	5.902	1150776	PROB	5.902	n/a	n/a	n/a	-999	10	[8, 5, 8]	21	catFR1	3	R1243T
1139.141	3.567	1156677	PROB	3.567	n/a	n/a	n/a	-999	10	[4, 6, 5]	15	catFR1	3	R1243T
1142.708	4.767	1160244	PROB	4.767	n/a	n/a	n/a	-999	10	[6, 2, 2]	10	catFR1	3	R1243T
1147.475	3.961	1165011	PROB	3.961	n/a	n/a	n/a	-999	10	[4, 1, 2]	7	catFR1	3	R1243T
1151.436	0.007	1168972	STOP	n/a	n/a	n/a	n/a	-999	10	[-999, -999, -999]	n/a	catFR1	3	R1243T
1151.443	0.667	1168979	DISTRACT_END	n/a	n/a	n/a	n/a	-999	10	[0, 0, 0]	n/a	catFR1	3	R1243T
1152.11	0.517	1169646	RETRIEVAL_ORIENT	n/a	n/a	n/a	n/a	-999	10	[0, 0, 0]	n/a	catFR1	3	R1243T
1152.627	1.542	1170163	REC_START	n/a	n/a	n/a	n/a	-999	10	[0, 0, 0]	n/a	catFR1	3	R1243T
1154.169	1.308	1171705	REC_WORD	1.308	n/a	BATHROOM	Building	11	10	[0, 0, 0]	n/a	catFR1	3	R1243T
1155.477	3.186	1173012	REC_WORD	3.186	n/a	FLOOR	Building	12	10	[0, 0, 0]	n/a	catFR1	3	R1243T
1158.663	1.484	1176198	REC_WORD	1.484	n/a	MOSQUITO	Insects	7	10	[0, 0, 0]	n/a	catFR1	3	R1243T
1160.147	13.463	1177682	REC_WORD	13.463	n/a	ANT	Insects	4	10	[0, 0, 0]	n/a	catFR1	3	R1243T
1173.61	2.976	1191144	REC_WORD	2.976	n/a	CEILING	n/a	-999	10	[0, 0, 0]	n/a	catFR1	3	R1243T
1176.586	4.097	1194120	REC_WORD	4.097	n/a	ATTIC	Building	5	10	[0, 0, 0]	n/a	catFR1	3	R1243T
1180.683	1.954	1198217	REC_WORD	1.954	n/a	WALL	Building	6	10	[0, 0, 0]	n/a	catFR1	3	R1243T
1182.637	5.179	1200171	REC_END	n/a	n/a	n/a	n/a	-999	10	[0, 0, 0]	n/a	catFR1	3	R1243T
1187.816	0.5	1205349	TRIAL	n/a	n/a	n/a	n/a	-999	11	[0, 0, 0]	n/a	catFR1	3	R1243T
1188.316	10.428	1205849	COUNTDOWN_START	n/a	n/a	n/a	n/a	-999	11	[0, 0, 0]	n/a	catFR1	3	R1243T
1198.744	0.007	1216277	COUNTDOWN_END	n/a	n/a	n/a	n/a	-999	11	[0, 0, 0]	n/a	catFR1	3	R1243T
1198.751	1.617	1216284	ORIENT	n/a	n/a	n/a	n/a	-999	11	[0, 0, 0]	n/a	catFR1	3	R1243T
1200.368	2.284	1217901	ORIENT_OFF	n/a	n/a	n/a	n/a	-999	11	[0, 0, 0]	n/a	catFR1	3	R1243T
1202.652	1.617	1220185	WORD	n/a	wordpools/wordpool_categorized_EN.txt	LIGHTNING	Weather	1	11	[0, 0, 0]	n/a	catFR1	3	R1243T
1204.269	0.967	1221801	WORD_OFF	n/a	n/a	LIGHTNING	n/a	1	11	[0, 0, 0]	n/a	catFR1	3	R1243T
1205.236	1.617	1222768	WORD	n/a	wordpools/wordpool_categorized_EN.txt	THUNDER	Weather	2	11	[0, 0, 0]	n/a	catFR1	3	R1243T
1206.853	0.783	1224385	WORD_OFF	n/a	n/a	THUNDER	n/a	2	11	[0, 0, 0]	n/a	catFR1	3	R1243T
1207.636	1.617	1225168	WORD	n/a	wordpools/wordpool_categorized_EN.txt	PINE	Trees	3	11	[0, 0, 0]	n/a	catFR1	3	R1243T
1209.253	0.885	1226785	WORD_OFF	n/a	n/a	PINE	n/a	3	11	[0, 0, 0]	n/a	catFR1	3	R1243T
1210.138	1.616	1227670	WORD	n/a	wordpools/wordpool_categorized_EN.txt	HICKORY	Trees	4	11	[0, 0, 0]	n/a	catFR1	3	R1243T
1211.754	0.966	1229286	WORD_OFF	n/a	n/a	HICKORY	n/a	4	11	[0, 0, 0]	n/a	catFR1	3	R1243T
1212.72	1.617	1230252	WORD	n/a	wordpools/wordpool_categorized_EN.txt	HEN	FarmAnimals	5	11	[0, 0, 0]	n/a	catFR1	3	R1243T
1214.337	0.785	1231869	WORD_OFF	n/a	n/a	HEN	n/a	5	11	[0, 0, 0]	n/a	catFR1	3	R1243T
1215.122	1.616	1232654	WORD	n/a	wordpools/wordpool_categorized_EN.txt	BULL	FarmAnimals	6	11	[0, 0, 0]	n/a	catFR1	3	R1243T
1216.738	0.833	1234270	WORD_OFF	n/a	n/a	BULL	n/a	6	11	[0, 0, 0]	n/a	catFR1	3	R1243T
1217.571	1.6	1235103	WORD	n/a	wordpools/wordpool_categorized_EN.txt	RAIN	Weather	7	11	[0, 0, 0]	n/a	catFR1	3	R1243T
1219.171	0.784	1236703	WORD_OFF	n/a	n/a	RAIN	n/a	7	11	[0, 0, 0]	n/a	catFR1	3	R1243T
1219.955	1.617	1237487	WORD	n/a	wordpools/wordpool_categorized_EN.txt	TORNADO	Weather	8	11	[0, 0, 0]	n/a	catFR1	3	R1243T
1221.572	1.0	1239103	WORD_OFF	n/a	n/a	TORNADO	n/a	8	11	[0, 0, 0]	n/a	catFR1	3	R1243T
1222.572	1.617	1240103	WORD	n/a	wordpools/wordpool_categorized_EN.txt	SPRUCE	Trees	9	11	[0, 0, 0]	n/a	catFR1	3	R1243T
1224.189	0.901	1241720	WORD_OFF	n/a	n/a	SPRUCE	n/a	9	11	[0, 0, 0]	n/a	catFR1	3	R1243T
1225.09	1.616	1242621	WORD	n/a	wordpools/wordpool_categorized_EN.txt	EVERGREEN	Trees	10	11	[0, 0, 0]	n/a	catFR1	3	R1243T
1226.706	0.884	1244237	WORD_OFF	n/a	n/a	EVERGREEN	n/a	10	11	[0, 0, 0]	n/a	catFR1	3	R1243T
1227.59	1.617	1245121	WORD	n/a	wordpools/wordpool_categorized_EN.txt	TURKEY	FarmAnimals	11	11	[0, 0, 0]	n/a	catFR1	3	R1243T
1229.207	0.8	1246738	WORD_OFF	n/a	n/a	TURKEY	n/a	11	11	[0, 0, 0]	n/a	catFR1	3	R1243T
1230.007	1.617	1247538	WORD	n/a	wordpools/wordpool_categorized_EN.txt	SHEEP	FarmAnimals	12	11	[0, 0, 0]	n/a	catFR1	3	R1243T
1231.624	0.0	1249155	ENCODING_END	n/a	n/a	n/a	n/a	-999	11	[0, 0, 0]	n/a	catFR1	3	R1243T
1231.624	0.104	1249155	WORD_OFF	n/a	n/a	SHEEP	n/a	12	11	[0, 0, 0]	n/a	catFR1	3	R1243T
1231.728	0.0	1249259	DISTRACT_START	n/a	n/a	n/a	n/a	-999	11	[0, 0, 0]	n/a	catFR1	3	R1243T
1231.728	0.013	1249259	START	n/a	n/a	n/a	n/a	-999	11	[-999, -999, -999]	n/a	catFR1	3	R1243T
1231.741	4.301	1249272	PROB	4.301	n/a	n/a	n/a	-999	11	[3, 6, 6]	15	catFR1	3	R1243T
1236.042	3.133	1253573	PROB	3.133	n/a	n/a	n/a	-999	11	[1, 5, 6]	12	catFR1	3	R1243T
1239.175	3.034	1256705	PROB	3.034	n/a	n/a	n/a	-999	11	[2, 6, 3]	11	catFR1	3	R1243T
1242.209	3.468	1259739	PROB	3.468	n/a	n/a	n/a	-999	11	[1, 4, 2]	7	catFR1	3	R1243T
1245.677	3.167	1263207	PROB	3.167	n/a	n/a	n/a	-999	11	[2, 5, 2]	9	catFR1	3	R1243T
1248.844	4.225	1266374	PROB	4.225	n/a	n/a	n/a	-999	11	[9, 2, 8]	19	catFR1	3	R1243T
1253.069	0.01	1270599	STOP	n/a	n/a	n/a	n/a	-999	11	[-999, -999, -999]	n/a	catFR1	3	R1243T
1253.079	0.566	1270609	DISTRACT_END	n/a	n/a	n/a	n/a	-999	11	[0, 0, 0]	n/a	catFR1	3	R1243T
1253.645	0.519	1271174	RETRIEVAL_ORIENT	n/a	n/a	n/a	n/a	-999	11	[0, 0, 0]	n/a	catFR1	3	R1243T
1254.164	5.609	1271693	REC_START	n/a	n/a	n/a	n/a	-999	11	[0, 0, 0]	n/a	catFR1	3	R1243T
1259.773	2.121	1277302	REC_WORD	2.121	n/a	HEN	FarmAnimals	5	11	[0, 0, 0]	n/a	catFR1	3	R1243T
1261.894	1.686	1279423	REC_WORD	1.686	n/a	TURKEY	FarmAnimals	11	11	[0, 0, 0]	n/a	catFR1	3	R1243T
1263.58	2.087	1281109	REC_WORD	2.087	n/a	SPRUCE	Trees	9	11	[0, 0, 0]	n/a	catFR1	3	R1243T
1265.667	2.103	1283196	REC_WORD	2.103	n/a	HICKORY	Trees	4	11	[0, 0, 0]	n/a	catFR1	3	R1243T
1267.77	10.037	1285299	REC_WORD	10.037	n/a	OAK	n/a	-999	11	[0, 0, 0]	n/a	catFR1	3	R1243T
1277.807	2.474	1295335	REC_WORD	2.474	n/a	TORNADO	Weather	8	11	[0, 0, 0]	n/a	catFR1	3	R1243T
1280.281	2.389	1297809	REC_WORD	2.389	n/a	RAIN	Weather	7	11	[0, 0, 0]	n/a	catFR1	3	R1243T
1282.67	1.501	1300198	REC_WORD	1.501	n/a	THUNDERSTORM	n/a	-999	11	[0, 0, 0]	n/a	catFR1	3	R1243T
1284.171	5.663	1301699	REC_END	n/a	n/a	n/a	n/a	-999	11	[0, 0, 0]	n/a	catFR1	3	R1243T
1289.834	0.5	1307361	TRIAL	n/a	n/a	n/a	n/a	-999	12	[0, 0, 0]	n/a	catFR1	3	R1243T
1290.334	10.428	1307861	COUNTDOWN_START	n/a	n/a	n/a	n/a	-999	12	[0, 0, 0]	n/a	catFR1	3	R1243T
1300.762	0.008	1318289	COUNTDOWN_END	n/a	n/a	n/a	n/a	-999	12	[0, 0, 0]	n/a	catFR1	3	R1243T
1300.77	1.617	1318297	ORIENT	n/a	n/a	n/a	n/a	-999	12	[0, 0, 0]	n/a	catFR1	3	R1243T
1302.387	1.8	1319913	ORIENT_OFF	n/a	n/a	n/a	n/a	-999	12	[0, 0, 0]	n/a	catFR1	3	R1243T
1304.187	1.617	1321713	WORD	n/a	wordpools/wordpool_categorized_EN.txt	CORN	Vegetables	1	12	[0, 0, 0]	n/a	catFR1	3	R1243T
1305.804	1.0	1323330	WORD_OFF	n/a	n/a	CORN	n/a	1	12	[0, 0, 0]	n/a	catFR1	3	R1243T
1306.804	1.617	1324330	WORD	n/a	wordpools/wordpool_categorized_EN.txt	CABBAGE	Vegetables	2	12	[0, 0, 0]	n/a	catFR1	3	R1243T
1308.421	0.917	1325947	WORD_OFF	n/a	n/a	CABBAGE	n/a	2	12	[0, 0, 0]	n/a	catFR1	3	R1243T
1309.338	1.617	1326864	WORD	n/a	wordpools/wordpool_categorized_EN.txt	TRUMPET	Instruments	3	12	[0, 0, 0]	n/a	catFR1	3	R1243T
1310.955	0.917	1328481	WORD_OFF	n/a	n/a	TRUMPET	n/a	3	12	[0, 0, 0]	n/a	catFR1	3	R1243T
1311.872	1.617	1329398	WORD	n/a	wordpools/wordpool_categorized_EN.txt	TUBA	Instruments	4	12	[0, 0, 0]	n/a	catFR1	3	R1243T
1313.489	0.95	1331015	WORD_OFF	n/a	n/a	TUBA	n/a	4	12	[0, 0, 0]	n/a	catFR1	3	R1243T
1314.439	1.618	1331965	WORD	n/a	wordpools/wordpool_categorized_EN.txt	ROBIN	Birds	5	12	[0, 0, 0]	n/a	catFR1	3	R1243T
1316.057	0.916	1333583	WORD_OFF	n/a	n/a	ROBIN	n/a	5	12	[0, 0, 0]	n/a	catFR1	3	R1243T
1316.973	1.617	1334499	WORD	n/a	wordpools/wordpool_categorized_EN.txt	DOVE	Birds	6	12	[0, 0, 0]	n/a	catFR1	3	R1243T
1318.59	0.85	1336116	WORD_OFF	n/a	n/a	DOVE	n/a	6	12	[0, 0, 0]	n/a	catFR1	3	R1243T
1319.44	1.618	1336965	WORD	n/a	wordpools/wordpool_categorized_EN.txt	CELLO	Instruments	7	12	[0, 0, 0]	n/a	catFR1	3	R1243T
1321.058	0.965	1338583	WORD_OFF	n/a	n/a	CELLO	n/a	7	12	[0, 0, 0]	n/a	catFR1	3	R1243T
1322.023	1.618	1339548	WORD	n/a	wordpools/wordpool_categorized_EN.txt	TROMBONE	Instruments	8	12	[0, 0, 0]	n/a	catFR1	3	R1243T
1323.641	0.883	1341166	WORD_OFF	n/a	n/a	TROMBONE	n/a	8	12	[0, 0, 0]	n/a	catFR1	3	R1243T
1324.524	1.618	1342049	WORD	n/a	wordpools/wordpool_categorized_EN.txt	SPINACH	Vegetables	9	12	[0, 0, 0]	n/a	catFR1	3	R1243T
1326.142	0.799	1343667	WORD_OFF	n/a	n/a	SPINACH	n/a	9	12	[0, 0, 0]	n/a	catFR1	3	R1243T
1326.941	1.617	1344466	WORD	n/a	wordpools/wordpool_categorized_EN.txt	POTATO	Vegetables	10	12	[0, 0, 0]	n/a	catFR1	3	R1243T
1328.558	0.95	1346083	WORD_OFF	n/a	n/a	POTATO	n/a	10	12	[0, 0, 0]	n/a	catFR1	3	R1243T
1329.508	1.618	1347033	WORD	n/a	wordpools/wordpool_categorized_EN.txt	CARDINAL	Birds	11	12	[0, 0, 0]	n/a	catFR1	3	R1243T
1331.126	0.934	1348651	WORD_OFF	n/a	n/a	CARDINAL	n/a	11	12	[0, 0, 0]	n/a	catFR1	3	R1243T
1332.06	1.616	1349585	WORD	n/a	wordpools/wordpool_categorized_EN.txt	BLUEBIRD	Birds	12	12	[0, 0, 0]	n/a	catFR1	3	R1243T
1333.676	0.0	1351201	ENCODING_END	n/a	n/a	n/a	n/a	-999	12	[0, 0, 0]	n/a	catFR1	3	R1243T
1333.676	0.136	1351201	WORD_OFF	n/a	n/a	BLUEBIRD	n/a	12	12	[0, 0, 0]	n/a	catFR1	3	R1243T
1333.812	0.0	1351337	DISTRACT_START	n/a	n/a	n/a	n/a	-999	12	[0, 0, 0]	n/a	catFR1	3	R1243T
1333.812	0.014	1351337	START	n/a	n/a	n/a	n/a	-999	12	[-999, -999, -999]	n/a	catFR1	3	R1243T
1333.826	6.468	1351351	PROB	6.468	n/a	n/a	n/a	-999	12	[4, 9, 9]	22	catFR1	3	R1243T
1340.294	3.6	1357818	PROB	3.6	n/a	n/a	n/a	-999	12	[3, 7, 5]	15	catFR1	3	R1243T
1343.894	5.135	1361418	PROB	5.135	n/a	n/a	n/a	-999	12	[4, 4, 9]	17	catFR1	3	R1243T
1349.029	7.87	1366553	PROB	7.87	n/a	n/a	n/a	-999	12	[6, 2, 1]	9	catFR1	3	R1243T
1356.899	0.015	1374422	STOP	n/a	n/a	n/a	n/a	-999	12	[-999, -999, -999]	n/a	catFR1	3	R1243T
1356.914	0.6	1374437	DISTRACT_END	n/a	n/a	n/a	n/a	-999	12	[0, 0, 0]	n/a	catFR1	3	R1243T
1357.514	0.517	1375037	RETRIEVAL_ORIENT	n/a	n/a	n/a	n/a	-999	12	[0, 0, 0]	n/a	catFR1	3	R1243T
1358.031	1.598	1375554	REC_START	n/a	n/a	n/a	n/a	-999	12	[0, 0, 0]	n/a	catFR1	3	R1243T
1359.629	0.693	1377152	REC_WORD	0.693	n/a	CARDINAL	Birds	11	12	[0, 0, 0]	n/a	catFR1	3	R1243T
1360.322	12.067	1377845	REC_WORD	12.067	n/a	BLUEBIRD	Birds	12	12	[0, 0, 0]	n/a	catFR1	3	R1243T
1372.389	15.652	1389911	REC_WORD	15.652	n/a	POTATO	Vegetables	10	12	[0, 0, 0]	n/a	catFR1	3	R1243T
1388.041	5.13	1405562	REC_END	n/a	n/a	n/a	n/a	-999	12	[0, 0, 0]	n/a	catFR1	3	R1243T
1393.171	0.5	1410692	TRIAL	n/a	n/a	n/a	n/a	-999	13	[0, 0, 0]	n/a	catFR1	3	R1243T
1393.671	10.428	1411192	COUNTDOWN_START	n/a	n/a	n/a	n/a	-999	13	[0, 0, 0]	n/a	catFR1	3	R1243T
1404.099	0.007	1421619	COUNTDOWN_END	n/a	n/a	n/a	n/a	-999	13	[0, 0, 0]	n/a	catFR1	3	R1243T
1404.106	1.616	1421626	ORIENT	n/a	n/a	n/a	n/a	-999	13	[0, 0, 0]	n/a	catFR1	3	R1243T
1405.722	2.034	1423242	ORIENT_OFF	n/a	n/a	n/a	n/a	-999	13	[0, 0, 0]	n/a	catFR1	3	R1243T
1407.756	1.617	1425276	WORD	n/a	wordpools/wordpool_categorized_EN.txt	ROOM	Building	1	13	[0, 0, 0]	n/a	catFR1	3	R1243T
1409.373	0.785	1426893	WORD_OFF	n/a	n/a	ROOM	n/a	1	13	[0, 0, 0]	n/a	catFR1	3	R1243T
1410.158	1.615	1427678	WORD	n/a	wordpools/wordpool_categorized_EN.txt	ROOF	Building	2	13	[0, 0, 0]	n/a	catFR1	3	R1243T
1411.773	0.967	1429293	WORD_OFF	n/a	n/a	ROOF	n/a	2	13	[0, 0, 0]	n/a	catFR1	3	R1243T
1412.74	1.617	1430260	WORD	n/a	wordpools/wordpool_categorized_EN.txt	GIRAFFE	Zoo	3	13	[0, 0, 0]	n/a	catFR1	3	R1243T
1414.357	0.801	1431877	WORD_OFF	n/a	n/a	GIRAFFE	n/a	3	13	[0, 0, 0]	n/a	catFR1	3	R1243T
1415.158	1.616	1432678	WORD	n/a	wordpools/wordpool_categorized_EN.txt	MONKEY	Zoo	4	13	[0, 0, 0]	n/a	catFR1	3	R1243T
1416.774	0.867	1434294	WORD_OFF	n/a	n/a	MONKEY	n/a	4	13	[0, 0, 0]	n/a	catFR1	3	R1243T
1417.641	1.617	1435160	WORD	n/a	wordpools/wordpool_categorized_EN.txt	BIKE	Vehicles	5	13	[0, 0, 0]	n/a	catFR1	3	R1243T
1419.258	0.801	1436777	WORD_OFF	n/a	n/a	BIKE	n/a	5	13	[0, 0, 0]	n/a	catFR1	3	R1243T
1420.059	1.616	1437578	WORD	n/a	wordpools/wordpool_categorized_EN.txt	TRAIN	Vehicles	6	13	[0, 0, 0]	n/a	catFR1	3	R1243T
1421.675	0.95	1439194	WORD_OFF	n/a	n/a	TRAIN	n/a	6	13	[0, 0, 0]	n/a	catFR1	3	R1243T
1422.625	1.617	1440144	WORD	n/a	wordpools/wordpool_categorized_EN.txt	FOUNDATION	Building	7	13	[0, 0, 0]	n/a	catFR1	3	R1243T
1424.242	0.852	1441761	WORD_OFF	n/a	n/a	FOUNDATION	n/a	7	13	[0, 0, 0]	n/a	catFR1	3	R1243T
1425.094	1.615	1442613	WORD	n/a	wordpools/wordpool_categorized_EN.txt	DOOR	Building	8	13	[0, 0, 0]	n/a	catFR1	3	R1243T
1426.709	0.901	1444228	WORD_OFF	n/a	n/a	DOOR	n/a	8	13	[0, 0, 0]	n/a	catFR1	3	R1243T
1427.61	1.617	1445129	WORD	n/a	wordpools/wordpool_categorized_EN.txt	CHIMPANZEE	Zoo	9	13	[0, 0, 0]	n/a	catFR1	3	R1243T
1429.227	0.851	1446746	WORD_OFF	n/a	n/a	CHIMPANZEE	n/a	9	13	[0, 0, 0]	n/a	catFR1	3	R1243T
1430.078	1.616	1447597	WORD	n/a	wordpools/wordpool_categorized_EN.txt	CHEETAH	Zoo	10	13	[0, 0, 0]	n/a	catFR1	3	R1243T
1431.694	0.85	1449213	WORD_OFF	n/a	n/a	CHEETAH	n/a	10	13	[0, 0, 0]	n/a	catFR1	3	R1243T
1432.544	1.618	1450063	WORD	n/a	wordpools/wordpool_categorized_EN.txt	CAR	Vehicles	11	13	[0, 0, 0]	n/a	catFR1	3	R1243T
1434.162	0.782	1451680	WORD_OFF	n/a	n/a	CAR	n/a	11	13	[0, 0, 0]	n/a	catFR1	3	R1243T
1434.944	1.617	1452462	WORD	n/a	wordpools/wordpool_categorized_EN.txt	TRUCK	Vehicles	12	13	[0, 0, 0]	n/a	catFR1	3	R1243T
1436.561	0.001	1454079	WORD_OFF	n/a	n/a	TRUCK	n/a	12	13	[0, 0, 0]	n/a	catFR1	3	R1243T
1436.562	0.104	1454080	ENCODING_END	n/a	n/a	n/a	n/a	-999	13	[0, 0, 0]	n/a	catFR1	3	R1243T
1436.666	0.0	1454184	DISTRACT_START	n/a	n/a	n/a	n/a	-999	13	[0, 0, 0]	n/a	catFR1	3	R1243T
1436.666	0.012	1454184	START	n/a	n/a	n/a	n/a	-999	13	[-999, -999, -999]	n/a	catFR1	3	R1243T
1436.678	6.685	1454196	PROB	6.685	n/a	n/a	n/a	-999	13	[6, 6, 8]	20	catFR1	3	R1243T
1443.363	2.734	1460881	PROB	2.734	n/a	n/a	n/a	-999	13	[2, 1, 3]	6	catFR1	3	R1243T
1446.097	2.968	1463615	PROB	2.968	n/a	n/a	n/a	-999	13	[6, 4, 2]	12	catFR1	3	R1243T
1449.065	4.05	1466583	PROB	4.05	n/a	n/a	n/a	-999	13	[4, 3, 3]	10	catFR1	3	R1243T
1453.115	3.688	1470632	PROB	3.688	n/a	n/a	n/a	-999	13	[9, 2, 4]	15	catFR1	3	R1243T
1456.803	0.012	1474320	STOP	n/a	n/a	n/a	n/a	-999	13	[-999, -999, -999]	n/a	catFR1	3	R1243T
1456.815	0.717	1474332	DISTRACT_END	n/a	n/a	n/a	n/a	-999	13	[0, 0, 0]	n/a	catFR1	3	R1243T
1457.532	0.518	1475049	RETRIEVAL_ORIENT	n/a	n/a	n/a	n/a	-999	13	[0, 0, 0]	n/a	catFR1	3	R1243T
1458.05	3.725	1475567	REC_START	n/a	n/a	n/a	n/a	-999	13	[0, 0, 0]	n/a	catFR1	3	R1243T
1461.775	2.62	1479292	REC_WORD	2.62	n/a	FOUNDATION	Building	7	13	[0, 0, 0]	n/a	catFR1	3	R1243T
1464.395	1.144	1481912	REC_WORD	1.144	n/a	DOOR	Building	8	13	[0, 0, 0]	n/a	catFR1	3	R1243T
1465.539	1.203	1483056	REC_WORD	1.203	n/a	WALL	n/a	-999	13	[0, 0, 0]	n/a	catFR1	3	R1243T
1466.742	21.319	1484258	REC_WORD	21.319	n/a	CHIMPANZEE	Zoo	9	13	[0, 0, 0]	n/a	catFR1	3	R1243T
1488.061	5.062	1505576	REC_END	n/a	n/a	n/a	n/a	-999	13	[0, 0, 0]	n/a	catFR1	3	R1243T
1493.123	0.5	1510638	TRIAL	n/a	n/a	n/a	n/a	-999	14	[0, 0, 0]	n/a	catFR1	3	R1243T
1493.623	10.428	1511138	COUNTDOWN_START	n/a	n/a	n/a	n/a	-999	14	[0, 0, 0]	n/a	catFR1	3	R1243T
1504.051	0.007	1521565	COUNTDOWN_END	n/a	n/a	n/a	n/a	-999	14	[0, 0, 0]	n/a	catFR1	3	R1243T
1504.058	1.616	1521572	ORIENT	n/a	n/a	n/a	n/a	-999	14	[0, 0, 0]	n/a	catFR1	3	R1243T
1505.674	2.2	1523188	ORIENT_OFF	n/a	n/a	n/a	n/a	-999	14	[0, 0, 0]	n/a	catFR1	3	R1243T
1507.874	1.617	1525388	WORD	n/a	wordpools/wordpool_categorized_EN.txt	SEAGULL	Birds	1	14	[0, 0, 0]	n/a	catFR1	3	R1243T
1509.491	0.984	1527005	WORD_OFF	n/a	n/a	SEAGULL	n/a	1	14	[0, 0, 0]	n/a	catFR1	3	R1243T
1510.475	1.618	1527989	WORD	n/a	wordpools/wordpool_categorized_EN.txt	DUCK	Birds	2	14	[0, 0, 0]	n/a	catFR1	3	R1243T
1512.093	0.799	1529607	WORD_OFF	n/a	n/a	DUCK	n/a	2	14	[0, 0, 0]	n/a	catFR1	3	R1243T
1512.892	1.617	1530406	WORD	n/a	wordpools/wordpool_categorized_EN.txt	RULER	OfficeSupplies	3	14	[0, 0, 0]	n/a	catFR1	3	R1243T
1514.509	0.933	1532023	WORD_OFF	n/a	n/a	RULER	n/a	3	14	[0, 0, 0]	n/a	catFR1	3	R1243T
1515.442	1.618	1532955	WORD	n/a	wordpools/wordpool_categorized_EN.txt	STAPLER	OfficeSupplies	4	14	[0, 0, 0]	n/a	catFR1	3	R1243T
1517.06	0.949	1534573	WORD_OFF	n/a	n/a	STAPLER	n/a	4	14	[0, 0, 0]	n/a	catFR1	3	R1243T
1518.009	1.617	1535522	WORD	n/a	wordpools/wordpool_categorized_EN.txt	GOAT	FarmAnimals	5	14	[0, 0, 0]	n/a	catFR1	3	R1243T
1519.626	0.984	1537139	WORD_OFF	n/a	n/a	GOAT	n/a	5	14	[0, 0, 0]	n/a	catFR1	3	R1243T
1520.61	1.617	1538123	WORD	n/a	wordpools/wordpool_categorized_EN.txt	HORSE	FarmAnimals	6	14	[0, 0, 0]	n/a	catFR1	3	R1243T
1522.227	0.818	1539740	WORD_OFF	n/a	n/a	HORSE	n/a	6	14	[0, 0, 0]	n/a	catFR1	3	R1243T
1523.045	1.616	1540558	WORD	n/a	wordpools/wordpool_categorized_EN.txt	PAPER	OfficeSupplies	7	14	[0, 0, 0]	n/a	catFR1	3	R1243T
1524.661	1.0	1542174	WORD_OFF	n/a	n/a	PAPER	n/a	7	14	[0, 0, 0]	n/a	catFR1	3	R1243T
1525.661	1.617	1543174	WORD	n/a	wordpools/wordpool_categorized_EN.txt	ERASER	OfficeSupplies	8	14	[0, 0, 0]	n/a	catFR1	3	R1243T
1527.278	0.933	1544791	WORD_OFF	n/a	n/a	ERASER	n/a	8	14	[0, 0, 0]	n/a	catFR1	3	R1243T
1528.211	1.617	1545724	WORD	n/a	wordpools/wordpool_categorized_EN.txt	FINCH	Birds	9	14	[0, 0, 0]	n/a	catFR1	3	R1243T
1529.828	0.8	1547341	WORD_OFF	n/a	n/a	FINCH	n/a	9	14	[0, 0, 0]	n/a	catFR1	3	R1243T
1530.628	1.617	1548141	WORD	n/a	wordpools/wordpool_categorized_EN.txt	GOOSE	Birds	10	14	[0, 0, 0]	n/a	catFR1	3	R1243T
1532.245	0.951	1549757	WORD_OFF	n/a	n/a	GOOSE	n/a	10	14	[0, 0, 0]	n/a	catFR1	3	R1243T
1533.196	1.617	1550708	WORD	n/a	wordpools/wordpool_categorized_EN.txt	LAMB	FarmAnimals	11	14	[0, 0, 0]	n/a	catFR1	3	R1243T
1534.813	0.916	1552325	WORD_OFF	n/a	n/a	LAMB	n/a	11	14	[0, 0, 0]	n/a	catFR1	3	R1243T
1535.729	1.617	1553241	WORD	n/a	wordpools/wordpool_categorized_EN.txt	CHICKEN	FarmAnimals	12	14	[0, 0, 0]	n/a	catFR1	3	R1243T
1537.346	0.001	1554858	WORD_OFF	n/a	n/a	CHICKEN	n/a	12	14	[0, 0, 0]	n/a	catFR1	3	R1243T
1537.347	0.106	1554859	ENCODING_END	n/a	n/a	n/a	n/a	-999	14	[0, 0, 0]	n/a	catFR1	3	R1243T
1537.453	0.0	1554965	DISTRACT_START	n/a	n/a	n/a	n/a	-999	14	[0, 0, 0]	n/a	catFR1	3	R1243T
1537.453	0.01	1554965	START	n/a	n/a	n/a	n/a	-999	14	[-999, -999, -999]	n/a	catFR1	3	R1243T
1537.463	5.784	1554975	PROB	5.784	n/a	n/a	n/a	-999	14	[8, 8, 2]	18	catFR1	3	R1243T
1543.247	4.718	1560759	PROB	4.718	n/a	n/a	n/a	-999	14	[6, 9, 6]	21	catFR1	3	R1243T
1547.965	4.617	1565476	PROB	4.617	n/a	n/a	n/a	-999	14	[3, 3, 2]	8	catFR1	3	R1243T
1552.582	9.135	1570093	PROB	9.135	n/a	n/a	n/a	-999	14	[6, 7, 8]	22	catFR1	3	R1243T
1561.717	0.017	1579228	STOP	n/a	n/a	n/a	n/a	-999	14	[-999, -999, -999]	n/a	catFR1	3	R1243T
1561.734	0.55	1579245	DISTRACT_END	n/a	n/a	n/a	n/a	-999	14	[0, 0, 0]	n/a	catFR1	3	R1243T
1562.284	0.517	1579795	RETRIEVAL_ORIENT	n/a	n/a	n/a	n/a	-999	14	[0, 0, 0]	n/a	catFR1	3	R1243T
1562.801	3.15	1580312	REC_START	n/a	n/a	n/a	n/a	-999	14	[0, 0, 0]	n/a	catFR1	3	R1243T
1565.951	3.768	1583461	REC_WORD	3.768	n/a	DUCK	Birds	2	14	[0, 0, 0]	n/a	catFR1	3	R1243T
1569.719	4.28	1587229	REC_WORD	4.28	n/a	GEESE	n/a	-999	14	[0, 0, 0]	n/a	catFR1	3	R1243T
1573.999	3.484	1591509	REC_WORD	3.484	n/a	HEN	n/a	-999	14	[0, 0, 0]	n/a	catFR1	3	R1243T
1577.483	3.361	1594993	REC_WORD	3.361	n/a	COW	n/a	-999	14	[0, 0, 0]	n/a	catFR1	3	R1243T
1580.844	8.528	1598353	REC_WORD	8.528	n/a	HORSE	FarmAnimals	6	14	[0, 0, 0]	n/a	catFR1	3	R1243T
1589.372	3.44	1606881	REC_WORD	3.44	n/a	SEAGULL	Birds	1	14	[0, 0, 0]	n/a	catFR1	3	R1243T
1592.812	5.195	1610321	REC_END	n/a	n/a	n/a	n/a	-999	14	[0, 0, 0]	n/a	catFR1	3	R1243T
1598.007	0.5	1615515	TRIAL	n/a	n/a	n/a	n/a	-999	15	[0, 0, 0]	n/a	catFR1	3	R1243T
1598.507	10.428	1616015	COUNTDOWN_START	n/a	n/a	n/a	n/a	-999	15	[0, 0, 0]	n/a	catFR1	3	R1243T
1608.935	0.008	1626443	COUNTDOWN_END	n/a	n/a	n/a	n/a	-999	15	[0, 0, 0]	n/a	catFR1	3	R1243T
1608.943	1.617	1626451	ORIENT	n/a	n/a	n/a	n/a	-999	15	[0, 0, 0]	n/a	catFR1	3	R1243T
1610.56	1.833	1628068	ORIENT_OFF	n/a	n/a	n/a	n/a	-999	15	[0, 0, 0]	n/a	catFR1	3	R1243T
1612.393	1.617	1629901	WORD	n/a	wordpools/wordpool_categorized_EN.txt	VIOLIN	Instruments	1	15	[0, 0, 0]	n/a	catFR1	3	R1243T
1614.01	0.934	1631517	WORD_OFF	n/a	n/a	VIOLIN	n/a	1	15	[0, 0, 0]	n/a	catFR1	3	R1243T
1614.944	1.617	1632451	WORD	n/a	wordpools/wordpool_categorized_EN.txt	DRUM	Instruments	2	15	[0, 0, 0]	n/a	catFR1	3	R1243T
1616.561	0.933	1634068	WORD_OFF	n/a	n/a	DRUM	n/a	2	15	[0, 0, 0]	n/a	catFR1	3	R1243T
1617.494	1.601	1635001	WORD	n/a	wordpools/wordpool_categorized_EN.txt	COUCH	Furniture	3	15	[0, 0, 0]	n/a	catFR1	3	R1243T
1619.095	0.883	1636602	WORD_OFF	n/a	n/a	COUCH	n/a	3	15	[0, 0, 0]	n/a	catFR1	3	R1243T
1619.978	1.617	1637485	WORD	n/a	wordpools/wordpool_categorized_EN.txt	SOFA	Furniture	4	15	[0, 0, 0]	n/a	catFR1	3	R1243T
1621.595	0.783	1639102	WORD_OFF	n/a	n/a	SOFA	n/a	4	15	[0, 0, 0]	n/a	catFR1	3	R1243T
1622.378	1.617	1639885	WORD	n/a	wordpools/wordpool_categorized_EN.txt	TEA	Beverages	5	15	[0, 0, 0]	n/a	catFR1	3	R1243T
1623.995	1.001	1641502	WORD_OFF	n/a	n/a	TEA	n/a	5	15	[0, 0, 0]	n/a	catFR1	3	R1243T
1624.996	1.616	1642503	WORD	n/a	wordpools/wordpool_categorized_EN.txt	COFFEE	Beverages	6	15	[0, 0, 0]	n/a	catFR1	3	R1243T
1626.612	0.901	1644119	WORD_OFF	n/a	n/a	COFFEE	n/a	6	15	[0, 0, 0]	n/a	catFR1	3	R1243T
1627.513	1.618	1645020	WORD	n/a	wordpools/wordpool_categorized_EN.txt	RECLINER	Furniture	7	15	[0, 0, 0]	n/a	catFR1	3	R1243T
1629.131	0.899	1646638	WORD_OFF	n/a	n/a	RECLINER	n/a	7	15	[0, 0, 0]	n/a	catFR1	3	R1243T
1630.03	1.617	1647536	WORD	n/a	wordpools/wordpool_categorized_EN.txt	BED	Furniture	8	15	[0, 0, 0]	n/a	catFR1	3	R1243T
1631.647	0.833	1649153	WORD_OFF	n/a	n/a	BED	n/a	8	15	[0, 0, 0]	n/a	catFR1	3	R1243T
1632.48	1.618	1649986	WORD	n/a	wordpools/wordpool_categorized_EN.txt	BASS	Instruments	9	15	[0, 0, 0]	n/a	catFR1	3	R1243T
1634.098	0.899	1651604	WORD_OFF	n/a	n/a	BASS	n/a	9	15	[0, 0, 0]	n/a	catFR1	3	R1243T
1634.997	1.617	1652503	WORD	n/a	wordpools/wordpool_categorized_EN.txt	ORGAN	Instruments	10	15	[0, 0, 0]	n/a	catFR1	3	R1243T
1636.614	0.884	1654120	WORD_OFF	n/a	n/a	ORGAN	n/a	10	15	[0, 0, 0]	n/a	catFR1	3	R1243T
1637.498	1.618	1655004	WORD	n/a	wordpools/wordpool_categorized_EN.txt	RUM	Beverages	11	15	[0, 0, 0]	n/a	catFR1	3	R1243T
1639.116	0.849	1656622	WORD_OFF	n/a	n/a	RUM	n/a	11	15	[0, 0, 0]	n/a	catFR1	3	R1243T
1639.965	1.617	1657471	WORD	n/a	wordpools/wordpool_categorized_EN.txt	WATER	Beverages	12	15	[0, 0, 0]	n/a	catFR1	3	R1243T
1641.582	0.0	1659088	ENCODING_END	n/a	n/a	n/a	n/a	-999	15	[0, 0, 0]	n/a	catFR1	3	R1243T
1641.582	0.132	1659088	WORD_OFF	n/a	n/a	WATER	n/a	12	15	[0, 0, 0]	n/a	catFR1	3	R1243T
1641.714	0.0	1659220	DISTRACT_START	n/a	n/a	n/a	n/a	-999	15	[0, 0, 0]	n/a	catFR1	3	R1243T
1641.714	0.018	1659220	START	n/a	n/a	n/a	n/a	-999	15	[-999, -999, -999]	n/a	catFR1	3	R1243T
1641.732	4.734	1659238	PROB	4.734	n/a	n/a	n/a	-999	15	[1, 8, 7]	16	catFR1	3	R1243T
1646.466	5.318	1663971	PROB	5.318	n/a	n/a	n/a	-999	15	[6, 9, 9]	24	catFR1	3	R1243T
1651.784	6.634	1669289	PROB	6.634	n/a	n/a	n/a	-999	15	[4, 5, 4]	13	catFR1	3	R1243T
1658.418	4.692	1675923	PROB	4.692	n/a	n/a	n/a	-999	15	[2, 7, 5]	14	catFR1	3	R1243T
1663.11	0.01	1680614	STOP	n/a	n/a	n/a	n/a	-999	15	[-999, -999, -999]	n/a	catFR1	3	R1243T
1663.12	0.683	1680624	DISTRACT_END	n/a	n/a	n/a	n/a	-999	15	[0, 0, 0]	n/a	catFR1	3	R1243T
1663.803	0.517	1681307	RETRIEVAL_ORIENT	n/a	n/a	n/a	n/a	-999	15	[0, 0, 0]	n/a	catFR1	3	R1243T
1664.32	1.148	1681824	REC_START	n/a	n/a	n/a	n/a	-999	15	[0, 0, 0]	n/a	catFR1	3	R1243T
1665.468	1.271	1682972	REC_WORD	1.271	n/a	RUM	Beverages	11	15	[0, 0, 0]	n/a	catFR1	3	R1243T
1666.739	27.591	1684243	REC_WORD	27.591	n/a	WATER	Beverages	12	15	[0, 0, 0]	n/a	catFR1	3	R1243T
1694.33	4.83	1711833	REC_END	n/a	n/a	n/a	n/a	-999	15	[0, 0, 0]	n/a	catFR1	3	R1243T
1699.16	0.5	1716662	TRIAL	n/a	n/a	n/a	n/a	-999	16	[0, 0, 0]	n/a	catFR1	3	R1243T
1699.66	10.428	1717162	COUNTDOWN_START	n/a	n/a	n/a	n/a	-999	16	[0, 0, 0]	n/a	catFR1	3	R1243T
1710.088	0.008	1727590	COUNTDOWN_END	n/a	n/a	n/a	n/a	-999	16	[0, 0, 0]	n/a	catFR1	3	R1243T
1710.096	1.615	1727598	ORIENT	n/a	n/a	n/a	n/a	-999	16	[0, 0, 0]	n/a	catFR1	3	R1243T
1711.711	2.201	1729212	ORIENT_OFF	n/a	n/a	n/a	n/a	-999	16	[0, 0, 0]	n/a	catFR1	3	R1243T
1713.912	1.617	1731413	WORD	n/a	wordpools/wordpool_categorized_EN.txt	GORILLA	Zoo	1	16	[0, 0, 0]	n/a	catFR1	3	R1243T
1715.529	0.967	1733030	WORD_OFF	n/a	n/a	GORILLA	n/a	1	16	[0, 0, 0]	n/a	catFR1	3	R1243T
1716.496	1.618	1733997	WORD	n/a	wordpools/wordpool_categorized_EN.txt	ZEBRA	Zoo	2	16	[0, 0, 0]	n/a	catFR1	3	R1243T
1718.114	0.966	1735615	WORD_OFF	n/a	n/a	ZEBRA	n/a	2	16	[0, 0, 0]	n/a	catFR1	3	R1243T
1719.08	1.616	1736581	WORD	n/a	wordpools/wordpool_categorized_EN.txt	SQUID	OceanAnimals	3	16	[0, 0, 0]	n/a	catFR1	3	R1243T
1720.696	0.967	1738197	WORD_OFF	n/a	n/a	SQUID	n/a	3	16	[0, 0, 0]	n/a	catFR1	3	R1243T
1721.663	1.617	1739164	WORD	n/a	wordpools/wordpool_categorized_EN.txt	LOBSTER	OceanAnimals	4	16	[0, 0, 0]	n/a	catFR1	3	R1243T
1723.28	0.9	1740781	WORD_OFF	n/a	n/a	LOBSTER	n/a	4	16	[0, 0, 0]	n/a	catFR1	3	R1243T
1724.18	1.617	1741681	WORD	n/a	wordpools/wordpool_categorized_EN.txt	ELM	Trees	5	16	[0, 0, 0]	n/a	catFR1	3	R1243T
1725.797	0.9	1743298	WORD_OFF	n/a	n/a	ELM	n/a	5	16	[0, 0, 0]	n/a	catFR1	3	R1243T
1726.697	1.617	1744198	WORD	n/a	wordpools/wordpool_categorized_EN.txt	CYPRESS	Trees	6	16	[0, 0, 0]	n/a	catFR1	3	R1243T
1728.314	0.835	1745814	WORD_OFF	n/a	n/a	CYPRESS	n/a	6	16	[0, 0, 0]	n/a	catFR1	3	R1243T
1729.149	1.616	1746649	WORD	n/a	wordpools/wordpool_categorized_EN.txt	OYSTER	OceanAnimals	7	16	[0, 0, 0]	n/a	catFR1	3	R1243T
1730.765	0.8	1748265	WORD_OFF	n/a	n/a	OYSTER	n/a	7	16	[0, 0, 0]	n/a	catFR1	3	R1243T
1731.565	1.617	1749065	WORD	n/a	wordpools/wordpool_categorized_EN.txt	TURTLE	OceanAnimals	8	16	[0, 0, 0]	n/a	catFR1	3	R1243T
1733.182	0.918	1750682	WORD_OFF	n/a	n/a	TURTLE	n/a	8	16	[0, 0, 0]	n/a	catFR1	3	R1243T
1734.1	1.616	1751600	WORD	n/a	wordpools/wordpool_categorized_EN.txt	ELEPHANT	Zoo	9	16	[0, 0, 0]	n/a	catFR1	3	R1243T
1735.716	0.8	1753216	WORD_OFF	n/a	n/a	ELEPHANT	n/a	9	16	[0, 0, 0]	n/a	catFR1	3	R1243T
1736.516	1.618	1754016	WORD	n/a	wordpools/wordpool_categorized_EN.txt	BEAR	Zoo	10	16	[0, 0, 0]	n/a	catFR1	3	R1243T
1738.134	0.832	1755634	WORD_OFF	n/a	n/a	BEAR	n/a	10	16	[0, 0, 0]	n/a	catFR1	3	R1243T
1738.966	1.617	1756466	WORD	n/a	wordpools/wordpool_categorized_EN.txt	MAPLE	Trees	11	16	[0, 0, 0]	n/a	catFR1	3	R1243T
1740.583	0.967	1758083	WORD_OFF	n/a	n/a	MAPLE	n/a	11	16	[0, 0, 0]	n/a	catFR1	3	R1243T
1741.55	1.601	1759050	WORD	n/a	wordpools/wordpool_categorized_EN.txt	WILLOW	Trees	12	16	[0, 0, 0]	n/a	catFR1	3	R1243T
1743.151	0.001	1760651	WORD_OFF	n/a	n/a	WILLOW	n/a	12	16	[0, 0, 0]	n/a	catFR1	3	R1243T
1743.152	0.102	1760652	ENCODING_END	n/a	n/a	n/a	n/a	-999	16	[0, 0, 0]	n/a	catFR1	3	R1243T
1743.254	0.0	1760754	DISTRACT_START	n/a	n/a	n/a	n/a	-999	16	[0, 0, 0]	n/a	catFR1	3	R1243T
1743.254	0.013	1760754	START	n/a	n/a	n/a	n/a	-999	16	[-999, -999, -999]	n/a	catFR1	3	R1243T
1743.267	4.184	1760767	PROB	4.184	n/a	n/a	n/a	-999	16	[2, 6, 4]	12	catFR1	3	R1243T
1747.451	4.251	1764950	PROB	4.251	n/a	n/a	n/a	-999	16	[3, 6, 2]	11	catFR1	3	R1243T
1751.702	3.067	1769201	PROB	3.067	n/a	n/a	n/a	-999	16	[5, 1, 6]	12	catFR1	3	R1243T
1754.769	3.151	1772268	PROB	3.151	n/a	n/a	n/a	-999	16	[1, 9, 3]	13	catFR1	3	R1243T
1757.92	3.967	1775419	PROB	3.967	n/a	n/a	n/a	-999	16	[5, 6, 5]	16	catFR1	3	R1243T
1761.887	3.966	1779385	PROB	3.966	n/a	n/a	n/a	-999	16	[4, 4, 3]	11	catFR1	3	R1243T
1765.853	0.018	1783351	STOP	n/a	n/a	n/a	n/a	-999	16	[-999, -999, -999]	n/a	catFR1	3	R1243T
1765.871	0.517	1783369	DISTRACT_END	n/a	n/a	n/a	n/a	-999	16	[0, 0, 0]	n/a	catFR1	3	R1243T
1766.388	0.517	1783886	RETRIEVAL_ORIENT	n/a	n/a	n/a	n/a	-999	16	[0, 0, 0]	n/a	catFR1	3	R1243T
1766.905	1.569	1784403	REC_START	n/a	n/a	n/a	n/a	-999	16	[0, 0, 0]	n/a	catFR1	3	R1243T
1768.474	1.347	1785972	REC_WORD	1.347	n/a	ELM	Trees	5	16	[0, 0, 0]	n/a	catFR1	3	R1243T
1769.821	1.0	1787319	REC_WORD	1.0	n/a	CYPRESS	Trees	6	16	[0, 0, 0]	n/a	catFR1	3	R1243T
1770.821	2.692	1788319	REC_WORD_VV	2.692	n/a	<>	n/a	-999	16	[0, 0, 0]	n/a	catFR1	3	R1243T
1773.513	4.053	1791011	REC_WORD	4.053	n/a	ZEBRA	Zoo	2	16	[0, 0, 0]	n/a	catFR1	3	R1243T
1777.566	2.663	1795063	REC_WORD	2.663	n/a	ELEPHANT	Zoo	9	16	[0, 0, 0]	n/a	catFR1	3	R1243T
1780.229	3.929	1797726	REC_WORD	3.929	n/a	GIRAFFE	n/a	-999	16	[0, 0, 0]	n/a	catFR1	3	R1243T
1784.158	2.498	1801655	REC_WORD	2.498	n/a	OCTOPUS	n/a	-999	16	[0, 0, 0]	n/a	catFR1	3	R1243T
1786.656	2.423	1804153	REC_WORD	2.423	n/a	LOBSTER	OceanAnimals	4	16	[0, 0, 0]	n/a	catFR1	3	R1243T
1789.079	7.835	1806576	REC_WORD	7.835	n/a	SQUID	OceanAnimals	3	16	[0, 0, 0]	n/a	catFR1	3	R1243T
1796.914	5.231	1814410	REC_END	n/a	n/a	n/a	n/a	-999	16	[0, 0, 0]	n/a	catFR1	3	R1243T
1802.145	0.5	1819641	TRIAL	n/a	n/a	n/a	n/a	-999	17	[0, 0, 0]	n/a	catFR1	3	R1243T
1802.645	10.428	1820141	COUNTDOWN_START	n/a	n/a	n/a	n/a	-999	17	[0, 0, 0]	n/a	catFR1	3	R1243T
1813.073	0.008	1830568	COUNTDOWN_END	n/a	n/a	n/a	n/a	-999	17	[0, 0, 0]	n/a	catFR1	3	R1243T
1813.081	1.616	1830576	ORIENT	n/a	n/a	n/a	n/a	-999	17	[0, 0, 0]	n/a	catFR1	3	R1243T
1814.697	2.167	1832192	ORIENT_OFF	n/a	n/a	n/a	n/a	-999	17	[0, 0, 0]	n/a	catFR1	3	R1243T
1816.864	1.617	1834359	WORD	n/a	wordpools/wordpool_categorized_EN.txt	FOOTBALL	Toys	1	17	[0, 0, 0]	n/a	catFR1	3	R1243T
1818.481	0.867	1835976	WORD_OFF	n/a	n/a	FOOTBALL	n/a	1	17	[0, 0, 0]	n/a	catFR1	3	R1243T
1819.348	1.617	1836843	WORD	n/a	wordpools/wordpool_categorized_EN.txt	BLOCKS	Toys	2	17	[0, 0, 0]	n/a	catFR1	3	R1243T
1820.965	0.966	1838460	WORD_OFF	n/a	n/a	BLOCKS	n/a	2	17	[0, 0, 0]	n/a	catFR1	3	R1243T
1821.931	1.617	1839426	WORD	n/a	wordpools/wordpool_categorized_EN.txt	SHRIMP	OceanAnimals	3	17	[0, 0, 0]	n/a	catFR1	3	R1243T
1823.548	0.984	1841043	WORD_OFF	n/a	n/a	SHRIMP	n/a	3	17	[0, 0, 0]	n/a	catFR1	3	R1243T
1824.532	1.618	1842027	WORD	n/a	wordpools/wordpool_categorized_EN.txt	CRAB	OceanAnimals	4	17	[0, 0, 0]	n/a	catFR1	3	R1243T
1826.15	0.95	1843644	WORD_OFF	n/a	n/a	CRAB	n/a	4	17	[0, 0, 0]	n/a	catFR1	3	R1243T
1827.1	1.616	1844594	WORD	n/a	wordpools/wordpool_categorized_EN.txt	COOKIE	Desserts	5	17	[0, 0, 0]	n/a	catFR1	3	R1243T
1828.716	1.0	1846210	WORD_OFF	n/a	n/a	COOKIE	n/a	5	17	[0, 0, 0]	n/a	catFR1	3	R1243T
1829.716	1.617	1847210	WORD	n/a	wordpools/wordpool_categorized_EN.txt	PIE	Desserts	6	17	[0, 0, 0]	n/a	catFR1	3	R1243T
1831.333	0.818	1848827	WORD_OFF	n/a	n/a	PIE	n/a	6	17	[0, 0, 0]	n/a	catFR1	3	R1243T
1832.151	1.616	1849645	WORD	n/a	wordpools/wordpool_categorized_EN.txt	SLINKY	Toys	7	17	[0, 0, 0]	n/a	catFR1	3	R1243T
1833.767	0.883	1851261	WORD_OFF	n/a	n/a	SLINKY	n/a	7	17	[0, 0, 0]	n/a	catFR1	3	R1243T
1834.65	1.617	1852144	WORD	n/a	wordpools/wordpool_categorized_EN.txt	BASEBALL	Toys	8	17	[0, 0, 0]	n/a	catFR1	3	R1243T
1836.267	0.868	1853761	WORD_OFF	n/a	n/a	BASEBALL	n/a	8	17	[0, 0, 0]	n/a	catFR1	3	R1243T
1837.135	1.616	1854629	WORD	n/a	wordpools/wordpool_categorized_EN.txt	JELLYFISH	OceanAnimals	9	17	[0, 0, 0]	n/a	catFR1	3	R1243T
1838.751	0.867	1856245	WORD_OFF	n/a	n/a	JELLYFISH	n/a	9	17	[0, 0, 0]	n/a	catFR1	3	R1243T
1839.618	1.617	1857112	WORD	n/a	wordpools/wordpool_categorized_EN.txt	FISH	OceanAnimals	10	17	[0, 0, 0]	n/a	catFR1	3	R1243T
1841.235	0.884	1858729	WORD_OFF	n/a	n/a	FISH	n/a	10	17	[0, 0, 0]	n/a	catFR1	3	R1243T
1842.119	1.616	1859613	WORD	n/a	wordpools/wordpool_categorized_EN.txt	JELLO	Desserts	11	17	[0, 0, 0]	n/a	catFR1	3	R1243T
1843.735	0.834	1861228	WORD_OFF	n/a	n/a	JELLO	n/a	11	17	[0, 0, 0]	n/a	catFR1	3	R1243T
1844.569	1.617	1862062	WORD	n/a	wordpools/wordpool_categorized_EN.txt	PASTRY	Desserts	12	17	[0, 0, 0]	n/a	catFR1	3	R1243T
1846.186	0.0	1863679	ENCODING_END	n/a	n/a	n/a	n/a	-999	17	[0, 0, 0]	n/a	catFR1	3	R1243T
1846.186	0.104	1863679	WORD_OFF	n/a	n/a	PASTRY	n/a	12	17	[0, 0, 0]	n/a	catFR1	3	R1243T
1846.29	0.0	1863783	DISTRACT_START	n/a	n/a	n/a	n/a	-999	17	[0, 0, 0]	n/a	catFR1	3	R1243T
1846.29	0.012	1863783	START	n/a	n/a	n/a	n/a	-999	17	[-999, -999, -999]	n/a	catFR1	3	R1243T
1846.302	3.551	1863795	PROB	3.551	n/a	n/a	n/a	-999	17	[1, 3, 5]	9	catFR1	3	R1243T
1849.853	6.318	1867346	PROB	6.318	n/a	n/a	n/a	-999	17	[7, 8, 5]	20	catFR1	3	R1243T
1856.171	8.285	1873664	PROB	8.285	n/a	n/a	n/a	-999	17	[3, 6, 1]	10	catFR1	3	R1243T
1864.456	4.083	1881948	PROB	4.083	n/a	n/a	n/a	-999	17	[9, 9, 6]	24	catFR1	3	R1243T
1868.539	0.018	1886031	STOP	n/a	n/a	n/a	n/a	-999	17	[-999, -999, -999]	n/a	catFR1	3	R1243T
1868.557	0.65	1886049	DISTRACT_END	n/a	n/a	n/a	n/a	-999	17	[0, 0, 0]	n/a	catFR1	3	R1243T
1869.207	0.517	1886699	RETRIEVAL_ORIENT	n/a	n/a	n/a	n/a	-999	17	[0, 0, 0]	n/a	catFR1	3	R1243T
1869.724	2.715	1887216	REC_START	n/a	n/a	n/a	n/a	-999	17	[0, 0, 0]	n/a	catFR1	3	R1243T
1872.439	3.135	1889931	REC_WORD	3.135	n/a	SHRIMP	OceanAnimals	3	17	[0, 0, 0]	n/a	catFR1	3	R1243T
1875.574	3.017	1893065	REC_WORD	3.017	n/a	CRAB	OceanAnimals	4	17	[0, 0, 0]	n/a	catFR1	3	R1243T
1878.591	10.167	1896082	REC_WORD	10.167	n/a	LOBSTER	n/a	-999	17	[0, 0, 0]	n/a	catFR1	3	R1243T
1888.758	10.977	1906249	REC_WORD	10.977	n/a	JELLYFISH	OceanAnimals	9	17	[0, 0, 0]	n/a	catFR1	3	R1243T
1899.735	5.728	1917225	REC_END	n/a	n/a	n/a	n/a	-999	17	[0, 0, 0]	n/a	catFR1	3	R1243T
1905.463	0.5	1922953	TRIAL	n/a	n/a	n/a	n/a	-999	18	[0, 0, 0]	n/a	catFR1	3	R1243T
1905.963	10.428	1923453	COUNTDOWN_START	n/a	n/a	n/a	n/a	-999	18	[0, 0, 0]	n/a	catFR1	3	R1243T
1916.391	0.008	1933880	COUNTDOWN_END	n/a	n/a	n/a	n/a	-999	18	[0, 0, 0]	n/a	catFR1	3	R1243T
1916.399	1.617	1933888	ORIENT	n/a	n/a	n/a	n/a	-999	18	[0, 0, 0]	n/a	catFR1	3	R1243T
1918.016	2.017	1935505	ORIENT_OFF	n/a	n/a	n/a	n/a	-999	18	[0, 0, 0]	n/a	catFR1	3	R1243T
1920.033	1.617	1937522	WORD	n/a	wordpools/wordpool_categorized_EN.txt	BIRCH	Trees	1	18	[0, 0, 0]	n/a	catFR1	3	R1243T
1921.65	0.9	1939139	WORD_OFF	n/a	n/a	BIRCH	n/a	1	18	[0, 0, 0]	n/a	catFR1	3	R1243T
1922.55	1.618	1940039	WORD	n/a	wordpools/wordpool_categorized_EN.txt	WALNUT	Trees	2	18	[0, 0, 0]	n/a	catFR1	3	R1243T
1924.168	0.849	1941657	WORD_OFF	n/a	n/a	WALNUT	n/a	2	18	[0, 0, 0]	n/a	catFR1	3	R1243T
1925.017	1.617	1942505	WORD	n/a	wordpools/wordpool_categorized_EN.txt	PUZZLE	Toys	3	18	[0, 0, 0]	n/a	catFR1	3	R1243T
1926.634	0.8	1944122	WORD_OFF	n/a	n/a	PUZZLE	n/a	3	18	[0, 0, 0]	n/a	catFR1	3	R1243T
1927.434	1.618	1944922	WORD	n/a	wordpools/wordpool_categorized_EN.txt	BASKETBALL	Toys	4	18	[0, 0, 0]	n/a	catFR1	3	R1243T
1929.052	0.882	1946540	WORD_OFF	n/a	n/a	BASKETBALL	n/a	4	18	[0, 0, 0]	n/a	catFR1	3	R1243T
1929.934	1.617	1947422	WORD	n/a	wordpools/wordpool_categorized_EN.txt	VALLEY	Landscapes	5	18	[0, 0, 0]	n/a	catFR1	3	R1243T
1931.551	0.967	1949039	WORD_OFF	n/a	n/a	VALLEY	n/a	5	18	[0, 0, 0]	n/a	catFR1	3	R1243T
1932.518	1.618	1950006	WORD	n/a	wordpools/wordpool_categorized_EN.txt	LAKE	Landscapes	6	18	[0, 0, 0]	n/a	catFR1	3	R1243T
1934.136	0.984	1951624	WORD_OFF	n/a	n/a	LAKE	n/a	6	18	[0, 0, 0]	n/a	catFR1	3	R1243T
1935.12	1.616	1952608	WORD	n/a	wordpools/wordpool_categorized_EN.txt	DOLLHOUSE	Toys	7	18	[0, 0, 0]	n/a	catFR1	3	R1243T
1936.736	0.783	1954224	WORD_OFF	n/a	n/a	DOLLHOUSE	n/a	7	18	[0, 0, 0]	n/a	catFR1	3	R1243T
1937.519	1.618	1955007	WORD	n/a	wordpools/wordpool_categorized_EN.txt	DOLL	Toys	8	18	[0, 0, 0]	n/a	catFR1	3	R1243T
1939.137	0.882	1956625	WORD_OFF	n/a	n/a	DOLL	n/a	8	18	[0, 0, 0]	n/a	catFR1	3	R1243T
1940.019	1.618	1957507	WORD	n/a	wordpools/wordpool_categorized_EN.txt	CEDAR	Trees	9	18	[0, 0, 0]	n/a	catFR1	3	R1243T
1941.637	0.85	1959124	WORD_OFF	n/a	n/a	CEDAR	n/a	9	18	[0, 0, 0]	n/a	catFR1	3	R1243T
1942.487	1.618	1959974	WORD	n/a	wordpools/wordpool_categorized_EN.txt	OAK	Trees	10	18	[0, 0, 0]	n/a	catFR1	3	R1243T
1944.105	1.0	1961592	WORD_OFF	n/a	n/a	OAK	n/a	10	18	[0, 0, 0]	n/a	catFR1	3	R1243T
1945.105	1.616	1962592	WORD	n/a	wordpools/wordpool_categorized_EN.txt	RIVER	Landscapes	11	18	[0, 0, 0]	n/a	catFR1	3	R1243T
1946.721	0.817	1964208	WORD_OFF	n/a	n/a	RIVER	n/a	11	18	[0, 0, 0]	n/a	catFR1	3	R1243T
1947.538	1.618	1965025	WORD	n/a	wordpools/wordpool_categorized_EN.txt	OCEAN	Landscapes	12	18	[0, 0, 0]	n/a	catFR1	3	R1243T
1949.156	0.0	1966643	WORD_OFF	n/a	n/a	OCEAN	n/a	12	18	[0, 0, 0]	n/a	catFR1	3	R1243T
1949.156	0.132	1966643	ENCODING_END	n/a	n/a	n/a	n/a	-999	18	[0, 0, 0]	n/a	catFR1	3	R1243T
1949.288	0.0	1966775	DISTRACT_START	n/a	n/a	n/a	n/a	-999	18	[0, 0, 0]	n/a	catFR1	3	R1243T
1949.288	0.017	1966775	START	n/a	n/a	n/a	n/a	-999	18	[-999, -999, -999]	n/a	catFR1	3	R1243T
1949.305	7.334	1966792	PROB	7.334	n/a	n/a	n/a	-999	18	[6, 5, 3]	14	catFR1	3	R1243T
1956.639	5.785	1974126	PROB	5.785	n/a	n/a	n/a	-999	18	[8, 8, 2]	18	catFR1	3	R1243T
1962.424	3.317	1979910	PROB	3.317	n/a	n/a	n/a	-999	18	[6, 6, 1]	13	catFR1	3	R1243T
1965.741	3.467	1983227	PROB	3.467	n/a	n/a	n/a	-999	18	[7, 3, 6]	16	catFR1	3	R1243T
1969.208	3.373	1986694	PROB	3.373	n/a	n/a	n/a	-999	18	[3, 1, 8]	12	catFR1	3	R1243T
1972.581	0.011	1990067	STOP	n/a	n/a	n/a	n/a	-999	18	[-999, -999, -999]	n/a	catFR1	3	R1243T
1972.592	0.584	1990078	DISTRACT_END	n/a	n/a	n/a	n/a	-999	18	[0, 0, 0]	n/a	catFR1	3	R1243T
1973.176	0.517	1990662	RETRIEVAL_ORIENT	n/a	n/a	n/a	n/a	-999	18	[0, 0, 0]	n/a	catFR1	3	R1243T
1973.693	2.04	1991178	REC_START	n/a	n/a	n/a	n/a	-999	18	[0, 0, 0]	n/a	catFR1	3	R1243T
1975.733	1.309	1993218	REC_WORD	1.309	n/a	LAKE	Landscapes	6	18	[0, 0, 0]	n/a	catFR1	3	R1243T
1977.042	1.747	1994527	REC_WORD	1.747	n/a	VALLEY	Landscapes	5	18	[0, 0, 0]	n/a	catFR1	3	R1243T
1978.789	1.497	1996274	REC_WORD	1.497	n/a	CEDAR	Trees	9	18	[0, 0, 0]	n/a	catFR1	3	R1243T
1980.286	23.416	1997771	REC_WORD	23.416	n/a	ELM	n/a	-999	18	[0, 0, 0]	n/a	catFR1	3	R1243T
2003.702	4.797	2021186	REC_END	n/a	n/a	n/a	n/a	-999	18	[0, 0, 0]	n/a	catFR1	3	R1243T
2008.499	0.5	2025982	TRIAL	n/a	n/a	n/a	n/a	-999	19	[0, 0, 0]	n/a	catFR1	3	R1243T
2008.999	10.428	2026482	COUNTDOWN_START	n/a	n/a	n/a	n/a	-999	19	[0, 0, 0]	n/a	catFR1	3	R1243T
2019.427	0.007	2036910	COUNTDOWN_END	n/a	n/a	n/a	n/a	-999	19	[0, 0, 0]	n/a	catFR1	3	R1243T
2019.434	1.618	2036917	ORIENT	n/a	n/a	n/a	n/a	-999	19	[0, 0, 0]	n/a	catFR1	3	R1243T
2021.052	1.983	2038535	ORIENT_OFF	n/a	n/a	n/a	n/a	-999	19	[0, 0, 0]	n/a	catFR1	3	R1243T
2023.035	1.617	2040517	WORD	n/a	wordpools/wordpool_categorized_EN.txt	BEETLE	Insects	1	19	[0, 0, 0]	n/a	catFR1	3	R1243T
2024.652	0.817	2042134	WORD_OFF	n/a	n/a	BEETLE	n/a	1	19	[0, 0, 0]	n/a	catFR1	3	R1243T
2025.469	1.617	2042951	WORD	n/a	wordpools/wordpool_categorized_EN.txt	MOTH	Insects	2	19	[0, 0, 0]	n/a	catFR1	3	R1243T
2027.086	0.916	2044568	WORD_OFF	n/a	n/a	MOTH	n/a	2	19	[0, 0, 0]	n/a	catFR1	3	R1243T
2028.002	1.617	2045484	WORD	n/a	wordpools/wordpool_categorized_EN.txt	PANTS	Clothing	3	19	[0, 0, 0]	n/a	catFR1	3	R1243T
2029.619	0.833	2047101	WORD_OFF	n/a	n/a	PANTS	n/a	3	19	[0, 0, 0]	n/a	catFR1	3	R1243T
2030.452	1.619	2047934	WORD	n/a	wordpools/wordpool_categorized_EN.txt	JEANS	Clothing	4	19	[0, 0, 0]	n/a	catFR1	3	R1243T
2032.071	0.932	2049553	WORD_OFF	n/a	n/a	JEANS	n/a	4	19	[0, 0, 0]	n/a	catFR1	3	R1243T
2033.003	1.617	2050485	WORD	n/a	wordpools/wordpool_categorized_EN.txt	COLANDER	KitchenTools	5	19	[0, 0, 0]	n/a	catFR1	3	R1243T
2034.62	0.934	2052102	WORD_OFF	n/a	n/a	COLANDER	n/a	5	19	[0, 0, 0]	n/a	catFR1	3	R1243T
2035.554	1.617	2053036	WORD	n/a	wordpools/wordpool_categorized_EN.txt	SPATULA	KitchenTools	6	19	[0, 0, 0]	n/a	catFR1	3	R1243T
2037.171	0.816	2054653	WORD_OFF	n/a	n/a	SPATULA	n/a	6	19	[0, 0, 0]	n/a	catFR1	3	R1243T
2037.987	1.617	2055469	WORD	n/a	wordpools/wordpool_categorized_EN.txt	UNDERWEAR	Clothing	7	19	[0, 0, 0]	n/a	catFR1	3	R1243T
2039.604	0.95	2057085	WORD_OFF	n/a	n/a	UNDERWEAR	n/a	7	19	[0, 0, 0]	n/a	catFR1	3	R1243T
2040.554	1.617	2058035	WORD	n/a	wordpools/wordpool_categorized_EN.txt	DRESS	Clothing	8	19	[0, 0, 0]	n/a	catFR1	3	R1243T
2042.171	0.935	2059652	WORD_OFF	n/a	n/a	DRESS	n/a	8	19	[0, 0, 0]	n/a	catFR1	3	R1243T
2043.106	1.616	2060587	WORD	n/a	wordpools/wordpool_categorized_EN.txt	SPIDER	Insects	9	19	[0, 0, 0]	n/a	catFR1	3	R1243T
2044.722	1.017	2062203	WORD_OFF	n/a	n/a	SPIDER	n/a	9	19	[0, 0, 0]	n/a	catFR1	3	R1243T
2045.739	1.617	2063220	WORD	n/a	wordpools/wordpool_categorized_EN.txt	ROACH	Insects	10	19	[0, 0, 0]	n/a	catFR1	3	R1243T
2047.356	0.817	2064837	WORD_OFF	n/a	n/a	ROACH	n/a	10	19	[0, 0, 0]	n/a	catFR1	3	R1243T
2048.173	1.617	2065654	WORD	n/a	wordpools/wordpool_categorized_EN.txt	KNIFE	KitchenTools	11	19	[0, 0, 0]	n/a	catFR1	3	R1243T
2049.79	0.8	2067271	WORD_OFF	n/a	n/a	KNIFE	n/a	11	19	[0, 0, 0]	n/a	catFR1	3	R1243T
2050.59	1.617	2068071	WORD	n/a	wordpools/wordpool_categorized_EN.txt	GRATER	KitchenTools	12	19	[0, 0, 0]	n/a	catFR1	3	R1243T
2052.207	0.0	2069688	ENCODING_END	n/a	n/a	n/a	n/a	-999	19	[0, 0, 0]	n/a	catFR1	3	R1243T
2052.207	0.101	2069688	WORD_OFF	n/a	n/a	GRATER	n/a	12	19	[0, 0, 0]	n/a	catFR1	3	R1243T
2052.308	0.001	2069789	DISTRACT_START	n/a	n/a	n/a	n/a	-999	19	[0, 0, 0]	n/a	catFR1	3	R1243T
2052.309	0.014	2069790	START	n/a	n/a	n/a	n/a	-999	19	[-999, -999, -999]	n/a	catFR1	3	R1243T
2052.323	6.518	2069804	PROB	6.518	n/a	n/a	n/a	-999	19	[9, 7, 6]	22	catFR1	3	R1243T
2058.841	5.468	2076321	PROB	5.468	n/a	n/a	n/a	-999	19	[6, 9, 3]	18	catFR1	3	R1243T
2064.309	3.785	2081789	PROB	3.785	n/a	n/a	n/a	-999	19	[8, 1, 4]	13	catFR1	3	R1243T
2068.094	5.862	2085574	PROB	5.862	n/a	n/a	n/a	-999	19	[4, 1, 7]	12	catFR1	3	R1243T
2073.956	0.021	2091435	STOP	n/a	n/a	n/a	n/a	-999	19	[-999, -999, -999]	n/a	catFR1	3	R1243T
2073.977	0.667	2091456	DISTRACT_END	n/a	n/a	n/a	n/a	-999	19	[0, 0, 0]	n/a	catFR1	3	R1243T
2074.644	0.519	2092123	RETRIEVAL_ORIENT	n/a	n/a	n/a	n/a	-999	19	[0, 0, 0]	n/a	catFR1	3	R1243T
2075.163	2.047	2092642	REC_START	n/a	n/a	n/a	n/a	-999	19	[0, 0, 0]	n/a	catFR1	3	R1243T
2077.21	1.807	2094689	REC_WORD	1.807	n/a	UNDERWEAR	Clothing	7	19	[0, 0, 0]	n/a	catFR1	3	R1243T
2079.017	1.252	2096496	REC_WORD	1.252	n/a	PANTS	Clothing	3	19	[0, 0, 0]	n/a	catFR1	3	R1243T
2080.269	1.786	2097748	REC_WORD	1.786	n/a	JEANS	Clothing	4	19	[0, 0, 0]	n/a	catFR1	3	R1243T
2082.055	3.546	2099534	REC_WORD	3.546	n/a	DRESS	Clothing	8	19	[0, 0, 0]	n/a	catFR1	3	R1243T
2085.601	0.295	2103080	REC_WORD_VV	0.295	n/a	<>	n/a	-999	19	[0, 0, 0]	n/a	catFR1	3	R1243T
2085.896	2.008	2103375	REC_WORD	2.008	n/a	SHOES	n/a	-999	19	[0, 0, 0]	n/a	catFR1	3	R1243T
2087.904	16.924	2105382	REC_WORD	16.924	n/a	SPATULA	KitchenTools	6	19	[0, 0, 0]	n/a	catFR1	3	R1243T
2104.828	0.343	2122305	REC_WORD_VV	0.343	n/a	<>	n/a	-999	19	[0, 0, 0]	n/a	catFR1	3	R1243T
2105.171	5.096	2122648	REC_END	n/a	n/a	n/a	n/a	-999	19	[0, 0, 0]	n/a	catFR1	3	R1243T
2110.267	0.5	2127744	TRIAL	n/a	n/a	n/a	n/a	-999	20	[0, 0, 0]	n/a	catFR1	3	R1243T
2110.767	10.428	2128244	COUNTDOWN_START	n/a	n/a	n/a	n/a	-999	20	[0, 0, 0]	n/a	catFR1	3	R1243T
2121.195	0.007	2138671	COUNTDOWN_END	n/a	n/a	n/a	n/a	-999	20	[0, 0, 0]	n/a	catFR1	3	R1243T
2121.202	1.618	2138678	ORIENT	n/a	n/a	n/a	n/a	-999	20	[0, 0, 0]	n/a	catFR1	3	R1243T
2122.82	1.95	2140296	ORIENT_OFF	n/a	n/a	n/a	n/a	-999	20	[0, 0, 0]	n/a	catFR1	3	R1243T
2124.77	1.617	2142246	WORD	n/a	wordpools/wordpool_categorized_EN.txt	PEAR	Fruit	1	20	[0, 0, 0]	n/a	catFR1	3	R1243T
2126.387	0.95	2143863	WORD_OFF	n/a	n/a	PEAR	n/a	1	20	[0, 0, 0]	n/a	catFR1	3	R1243T
2127.337	1.617	2144813	WORD	n/a	wordpools/wordpool_categorized_EN.txt	STRAWBERRY	Fruit	2	20	[0, 0, 0]	n/a	catFR1	3	R1243T
2128.954	0.817	2146430	WORD_OFF	n/a	n/a	STRAWBERRY	n/a	2	20	[0, 0, 0]	n/a	catFR1	3	R1243T
2129.771	1.617	2147247	WORD	n/a	wordpools/wordpool_categorized_EN.txt	BARBIE	Toys	3	20	[0, 0, 0]	n/a	catFR1	3	R1243T
2131.388	0.933	2148864	WORD_OFF	n/a	n/a	BARBIE	n/a	3	20	[0, 0, 0]	n/a	catFR1	3	R1243T
2132.321	1.617	2149797	WORD	n/a	wordpools/wordpool_categorized_EN.txt	FRISBEE	Toys	4	20	[0, 0, 0]	n/a	catFR1	3	R1243T
2133.938	0.9	2151414	WORD_OFF	n/a	n/a	FRISBEE	n/a	4	20	[0, 0, 0]	n/a	catFR1	3	R1243T
2134.838	1.617	2152314	WORD	n/a	wordpools/wordpool_categorized_EN.txt	SPARROW	Birds	5	20	[0, 0, 0]	n/a	catFR1	3	R1243T
2136.455	0.834	2153931	WORD_OFF	n/a	n/a	SPARROW	n/a	5	20	[0, 0, 0]	n/a	catFR1	3	R1243T
2137.289	1.617	2154764	WORD	n/a	wordpools/wordpool_categorized_EN.txt	HAWK	Birds	6	20	[0, 0, 0]	n/a	catFR1	3	R1243T
2138.906	0.95	2156381	WORD_OFF	n/a	n/a	HAWK	n/a	6	20	[0, 0, 0]	n/a	catFR1	3	R1243T
2139.856	1.617	2157331	WORD	n/a	wordpools/wordpool_categorized_EN.txt	PLUM	Fruit	7	20	[0, 0, 0]	n/a	catFR1	3	R1243T
2141.473	0.867	2158948	WORD_OFF	n/a	n/a	PLUM	n/a	7	20	[0, 0, 0]	n/a	catFR1	3	R1243T
2142.34	1.617	2159815	WORD	n/a	wordpools/wordpool_categorized_EN.txt	LEMON	Fruit	8	20	[0, 0, 0]	n/a	catFR1	3	R1243T
2143.957	0.983	2161432	WORD_OFF	n/a	n/a	LEMON	n/a	8	20	[0, 0, 0]	n/a	catFR1	3	R1243T
2144.94	1.617	2162415	WORD	n/a	wordpools/wordpool_categorized_EN.txt	MARBLES	Toys	9	20	[0, 0, 0]	n/a	catFR1	3	R1243T
2146.557	0.834	2164032	WORD_OFF	n/a	n/a	MARBLES	n/a	9	20	[0, 0, 0]	n/a	catFR1	3	R1243T
2147.391	1.617	2164866	WORD	n/a	wordpools/wordpool_categorized_EN.txt	BALL	Toys	10	20	[0, 0, 0]	n/a	catFR1	3	R1243T
2149.008	0.933	2166483	WORD_OFF	n/a	n/a	BALL	n/a	10	20	[0, 0, 0]	n/a	catFR1	3	R1243T
2149.941	1.617	2167416	WORD	n/a	wordpools/wordpool_categorized_EN.txt	CROW	Birds	11	20	[0, 0, 0]	n/a	catFR1	3	R1243T
2151.558	0.967	2169033	WORD_OFF	n/a	n/a	CROW	n/a	11	20	[0, 0, 0]	n/a	catFR1	3	R1243T
2152.525	1.618	2170000	WORD	n/a	wordpools/wordpool_categorized_EN.txt	PIGEON	Birds	12	20	[0, 0, 0]	n/a	catFR1	3	R1243T
2154.143	0.0	2171617	WORD_OFF	n/a	n/a	PIGEON	n/a	12	20	[0, 0, 0]	n/a	catFR1	3	R1243T
2154.143	0.104	2171617	ENCODING_END	n/a	n/a	n/a	n/a	-999	20	[0, 0, 0]	n/a	catFR1	3	R1243T
2154.247	0.0	2171721	DISTRACT_START	n/a	n/a	n/a	n/a	-999	20	[0, 0, 0]	n/a	catFR1	3	R1243T
2154.247	0.012	2171721	START	n/a	n/a	n/a	n/a	-999	20	[-999, -999, -999]	n/a	catFR1	3	R1243T
2154.259	5.517	2171733	PROB	5.517	n/a	n/a	n/a	-999	20	[6, 9, 3]	18	catFR1	3	R1243T
2159.776	3.634	2177250	PROB	3.634	n/a	n/a	n/a	-999	20	[4, 6, 5]	15	catFR1	3	R1243T
2163.41	3.584	2180884	PROB	3.584	n/a	n/a	n/a	-999	20	[7, 3, 9]	19	catFR1	3	R1243T
2166.994	4.318	2184468	PROB	4.318	n/a	n/a	n/a	-999	20	[5, 4, 6]	15	catFR1	3	R1243T
2171.312	3.956	2188785	PROB	3.956	n/a	n/a	n/a	-999	20	[4, 8, 4]	16	catFR1	3	R1243T
2175.268	0.011	2192741	STOP	n/a	n/a	n/a	n/a	-999	20	[-999, -999, -999]	n/a	catFR1	3	R1243T
2175.279	0.533	2192752	DISTRACT_END	n/a	n/a	n/a	n/a	-999	20	[0, 0, 0]	n/a	catFR1	3	R1243T
2175.812	0.518	2193285	RETRIEVAL_ORIENT	n/a	n/a	n/a	n/a	-999	20	[0, 0, 0]	n/a	catFR1	3	R1243T
2176.33	2.118	2193803	REC_START	n/a	n/a	n/a	n/a	-999	20	[0, 0, 0]	n/a	catFR1	3	R1243T
2178.448	1.062	2195921	REC_WORD	1.062	n/a	HAWK	Birds	6	20	[0, 0, 0]	n/a	catFR1	3	R1243T
2179.51	3.107	2196983	REC_WORD	3.107	n/a	SPARROW	Birds	5	20	[0, 0, 0]	n/a	catFR1	3	R1243T
2182.617	23.722	2200090	REC_WORD	23.722	n/a	PEAR	Fruit	1	20	[0, 0, 0]	n/a	catFR1	3	R1243T
2206.339	5.03	2223810	REC_END	n/a	n/a	n/a	n/a	-999	20	[0, 0, 0]	n/a	catFR1	3	R1243T
2211.369	0.5	2228840	TRIAL	n/a	n/a	n/a	n/a	-999	21	[0, 0, 0]	n/a	catFR1	3	R1243T
2211.869	10.428	2229340	COUNTDOWN_START	n/a	n/a	n/a	n/a	-999	21	[0, 0, 0]	n/a	catFR1	3	R1243T
2222.297	0.007	2239767	COUNTDOWN_END	n/a	n/a	n/a	n/a	-999	21	[0, 0, 0]	n/a	catFR1	3	R1243T
2222.304	1.617	2239774	ORIENT	n/a	n/a	n/a	n/a	-999	21	[0, 0, 0]	n/a	catFR1	3	R1243T
2223.921	2.235	2241391	ORIENT_OFF	n/a	n/a	n/a	n/a	-999	21	[0, 0, 0]	n/a	catFR1	3	R1243T
2226.156	1.616	2243626	WORD	n/a	wordpools/wordpool_categorized_EN.txt	PLIERS	Tools	1	21	[0, 0, 0]	n/a	catFR1	3	R1243T
2227.772	0.917	2245242	WORD_OFF	n/a	n/a	PLIERS	n/a	1	21	[0, 0, 0]	n/a	catFR1	3	R1243T
2228.689	1.617	2246159	WORD	n/a	wordpools/wordpool_categorized_EN.txt	SCREWDRIVER	Tools	2	21	[0, 0, 0]	n/a	catFR1	3	R1243T
2230.306	0.917	2247776	WORD_OFF	n/a	n/a	SCREWDRIVER	n/a	2	21	[0, 0, 0]	n/a	catFR1	3	R1243T
2231.223	1.617	2248693	WORD	n/a	wordpools/wordpool_categorized_EN.txt	OVEN	Appliances	3	21	[0, 0, 0]	n/a	catFR1	3	R1243T
2232.84	0.766	2250310	WORD_OFF	n/a	n/a	OVEN	n/a	3	21	[0, 0, 0]	n/a	catFR1	3	R1243T
2233.606	1.617	2251076	WORD	n/a	wordpools/wordpool_categorized_EN.txt	TOASTER	Appliances	4	21	[0, 0, 0]	n/a	catFR1	3	R1243T
2235.223	0.95	2252692	WORD_OFF	n/a	n/a	TOASTER	n/a	4	21	[0, 0, 0]	n/a	catFR1	3	R1243T
2236.173	1.617	2253642	WORD	n/a	wordpools/wordpool_categorized_EN.txt	ISLAND	Landscapes	5	21	[0, 0, 0]	n/a	catFR1	3	R1243T
2237.79	0.851	2255259	WORD_OFF	n/a	n/a	ISLAND	n/a	5	21	[0, 0, 0]	n/a	catFR1	3	R1243T
2238.641	1.617	2256110	WORD	n/a	wordpools/wordpool_categorized_EN.txt	CREEK	Landscapes	6	21	[0, 0, 0]	n/a	catFR1	3	R1243T
2240.258	0.884	2257727	WORD_OFF	n/a	n/a	CREEK	n/a	6	21	[0, 0, 0]	n/a	catFR1	3	R1243T
2241.142	1.616	2258611	WORD	n/a	wordpools/wordpool_categorized_EN.txt	RATCHET	Tools	7	21	[0, 0, 0]	n/a	catFR1	3	R1243T
2242.758	0.933	2260227	WORD_OFF	n/a	n/a	RATCHET	n/a	7	21	[0, 0, 0]	n/a	catFR1	3	R1243T
2243.691	1.617	2261160	WORD	n/a	wordpools/wordpool_categorized_EN.txt	SHOVEL	Tools	8	21	[0, 0, 0]	n/a	catFR1	3	R1243T
2245.308	0.785	2262777	WORD_OFF	n/a	n/a	SHOVEL	n/a	8	21	[0, 0, 0]	n/a	catFR1	3	R1243T
2246.093	1.616	2263562	WORD	n/a	wordpools/wordpool_categorized_EN.txt	WASHER	Appliances	9	21	[0, 0, 0]	n/a	catFR1	3	R1243T
2247.709	0.9	2265178	WORD_OFF	n/a	n/a	WASHER	n/a	9	21	[0, 0, 0]	n/a	catFR1	3	R1243T
2248.609	1.617	2266078	WORD	n/a	wordpools/wordpool_categorized_EN.txt	DRYER	Appliances	10	21	[0, 0, 0]	n/a	catFR1	3	R1243T
2250.226	0.783	2267695	WORD_OFF	n/a	n/a	DRYER	n/a	10	21	[0, 0, 0]	n/a	catFR1	3	R1243T
2251.009	1.617	2268478	WORD	n/a	wordpools/wordpool_categorized_EN.txt	MOUNTAIN	Landscapes	11	21	[0, 0, 0]	n/a	catFR1	3	R1243T
2252.626	0.967	2270094	WORD_OFF	n/a	n/a	MOUNTAIN	n/a	11	21	[0, 0, 0]	n/a	catFR1	3	R1243T
2253.593	1.617	2271061	WORD	n/a	wordpools/wordpool_categorized_EN.txt	STREAM	Landscapes	12	21	[0, 0, 0]	n/a	catFR1	3	R1243T
2255.21	0.0	2272678	ENCODING_END	n/a	n/a	n/a	n/a	-999	21	[0, 0, 0]	n/a	catFR1	3	R1243T
2255.21	0.128	2272678	WORD_OFF	n/a	n/a	STREAM	n/a	12	21	[0, 0, 0]	n/a	catFR1	3	R1243T
2255.338	0.0	2272806	DISTRACT_START	n/a	n/a	n/a	n/a	-999	21	[0, 0, 0]	n/a	catFR1	3	R1243T
2255.338	0.022	2272806	START	n/a	n/a	n/a	n/a	-999	21	[-999, -999, -999]	n/a	catFR1	3	R1243T
2255.36	6.151	2272828	PROB	6.151	n/a	n/a	n/a	-999	21	[3, 2, 8]	13	catFR1	3	R1243T
2261.511	6.968	2278979	PROB	6.968	n/a	n/a	n/a	-999	21	[8, 6, 8]	22	catFR1	3	R1243T
2268.479	4.434	2285946	PROB	4.434	n/a	n/a	n/a	-999	21	[4, 5, 9]	18	catFR1	3	R1243T
2272.913	4.002	2290380	PROB	4.002	n/a	n/a	n/a	-999	21	[1, 5, 1]	7	catFR1	3	R1243T
2276.915	0.016	2294382	STOP	n/a	n/a	n/a	n/a	-999	21	[-999, -999, -999]	n/a	catFR1	3	R1243T
2276.931	0.533	2294398	DISTRACT_END	n/a	n/a	n/a	n/a	-999	21	[0, 0, 0]	n/a	catFR1	3	R1243T
2277.464	0.518	2294931	RETRIEVAL_ORIENT	n/a	n/a	n/a	n/a	-999	21	[0, 0, 0]	n/a	catFR1	3	R1243T
2277.982	2.2	2295449	REC_START	n/a	n/a	n/a	n/a	-999	21	[0, 0, 0]	n/a	catFR1	3	R1243T
2280.182	1.247	2297649	REC_WORD	1.247	n/a	SCREWDRIVER	Tools	2	21	[0, 0, 0]	n/a	catFR1	3	R1243T
2281.429	1.473	2298896	REC_WORD	1.473	n/a	PLIERS	Tools	1	21	[0, 0, 0]	n/a	catFR1	3	R1243T
2282.902	1.468	2300369	REC_WORD	1.468	n/a	RATCHET	Tools	7	21	[0, 0, 0]	n/a	catFR1	3	R1243T
2284.37	2.278	2301836	REC_WORD	2.278	n/a	MOUNTAIN	Landscapes	11	21	[0, 0, 0]	n/a	catFR1	3	R1243T
2286.648	4.128	2304114	REC_WORD	4.128	n/a	STREAM	Landscapes	12	21	[0, 0, 0]	n/a	catFR1	3	R1243T
2290.776	2.153	2308242	REC_WORD	2.153	n/a	OVEN	Appliances	3	21	[0, 0, 0]	n/a	catFR1	3	R1243T
2292.929	7.812	2310395	REC_WORD	7.812	n/a	TOASTER	Appliances	4	21	[0, 0, 0]	n/a	catFR1	3	R1243T
2300.741	1.47	2318206	REC_WORD	1.47	n/a	WASHER	Appliances	9	21	[0, 0, 0]	n/a	catFR1	3	R1243T
2302.211	5.779	2319676	REC_WORD	5.779	n/a	DRYER	Appliances	10	21	[0, 0, 0]	n/a	catFR1	3	R1243T
2307.99	5.414	2325455	REC_END	n/a	n/a	n/a	n/a	-999	21	[0, 0, 0]	n/a	catFR1	3	R1243T
2313.404	0.5	2330869	TRIAL	n/a	n/a	n/a	n/a	-999	22	[0, 0, 0]	n/a	catFR1	3	R1243T
2313.904	10.428	2331369	COUNTDOWN_START	n/a	n/a	n/a	n/a	-999	22	[0, 0, 0]	n/a	catFR1	3	R1243T
2324.332	0.008	2341796	COUNTDOWN_END	n/a	n/a	n/a	n/a	-999	22	[0, 0, 0]	n/a	catFR1	3	R1243T
2324.34	1.616	2341804	ORIENT	n/a	n/a	n/a	n/a	-999	22	[0, 0, 0]	n/a	catFR1	3	R1243T
2325.956	1.901	2343420	ORIENT_OFF	n/a	n/a	n/a	n/a	-999	22	[0, 0, 0]	n/a	catFR1	3	R1243T
2327.857	1.617	2345321	WORD	n/a	wordpools/wordpool_categorized_EN.txt	HEADPHONES	Electronics	1	22	[0, 0, 0]	n/a	catFR1	3	R1243T
2329.474	0.833	2346938	WORD_OFF	n/a	n/a	HEADPHONES	n/a	1	22	[0, 0, 0]	n/a	catFR1	3	R1243T
2330.307	1.617	2347771	WORD	n/a	wordpools/wordpool_categorized_EN.txt	SPEAKER	Electronics	2	22	[0, 0, 0]	n/a	catFR1	3	R1243T
2331.924	0.95	2349388	WORD_OFF	n/a	n/a	SPEAKER	n/a	2	22	[0, 0, 0]	n/a	catFR1	3	R1243T
2332.874	1.617	2350338	WORD	n/a	wordpools/wordpool_categorized_EN.txt	BLUEBERRY	Fruit	3	22	[0, 0, 0]	n/a	catFR1	3	R1243T
2334.491	1.001	2351954	WORD_OFF	n/a	n/a	BLUEBERRY	n/a	3	22	[0, 0, 0]	n/a	catFR1	3	R1243T
2335.492	1.617	2352955	WORD	n/a	wordpools/wordpool_categorized_EN.txt	CHERRY	Fruit	4	22	[0, 0, 0]	n/a	catFR1	3	R1243T
2337.109	0.9	2354572	WORD_OFF	n/a	n/a	CHERRY	n/a	4	22	[0, 0, 0]	n/a	catFR1	3	R1243T
2338.009	1.617	2355472	WORD	n/a	wordpools/wordpool_categorized_EN.txt	SHIRT	Clothing	5	22	[0, 0, 0]	n/a	catFR1	3	R1243T
2339.626	0.8	2357089	WORD_OFF	n/a	n/a	SHIRT	n/a	5	22	[0, 0, 0]	n/a	catFR1	3	R1243T
2340.426	1.618	2357889	WORD	n/a	wordpools/wordpool_categorized_EN.txt	SHOES	Clothing	6	22	[0, 0, 0]	n/a	catFR1	3	R1243T
2342.044	0.866	2359507	WORD_OFF	n/a	n/a	SHOES	n/a	6	22	[0, 0, 0]	n/a	catFR1	3	R1243T
2342.91	1.616	2360373	WORD	n/a	wordpools/wordpool_categorized_EN.txt	GRAPE	Fruit	7	22	[0, 0, 0]	n/a	catFR1	3	R1243T
2344.526	0.884	2361989	WORD_OFF	n/a	n/a	GRAPE	n/a	7	22	[0, 0, 0]	n/a	catFR1	3	R1243T
2345.41	1.617	2362873	WORD	n/a	wordpools/wordpool_categorized_EN.txt	PEACH	Fruit	8	22	[0, 0, 0]	n/a	catFR1	3	R1243T
2347.027	0.8	2364490	WORD_OFF	n/a	n/a	PEACH	n/a	8	22	[0, 0, 0]	n/a	catFR1	3	R1243T
2347.827	1.617	2365290	WORD	n/a	wordpools/wordpool_categorized_EN.txt	PRINTER	Electronics	9	22	[0, 0, 0]	n/a	catFR1	3	R1243T
2349.444	0.884	2366907	WORD_OFF	n/a	n/a	PRINTER	n/a	9	22	[0, 0, 0]	n/a	catFR1	3	R1243T
2350.328	1.616	2367790	WORD	n/a	wordpools/wordpool_categorized_EN.txt	STEREO	Electronics	10	22	[0, 0, 0]	n/a	catFR1	3	R1243T
2351.944	0.867	2369406	WORD_OFF	n/a	n/a	STEREO	n/a	10	22	[0, 0, 0]	n/a	catFR1	3	R1243T
2352.811	1.617	2370273	WORD	n/a	wordpools/wordpool_categorized_EN.txt	SKIRT	Clothing	11	22	[0, 0, 0]	n/a	catFR1	3	R1243T
