onset	duration	sample	trial_type	response_time	stim_file	item_name	category	serialpos	list	test	answer	experiment	session	subject
0.0	142.165	32975	INSTRUCT_START	n/a	n/a	n/a	n/a	-999	-999	[0, 0, 0]	n/a	catFR1	2	R1498D
142.165	36.065	175123	INSTRUCT_END	n/a	n/a	n/a	n/a	-999	-999	[0, 0, 0]	n/a	catFR1	2	R1498D
178.23	10.0	211189	COUNTDOWN_START	n/a	n/a	n/a	n/a	-999	-999	[0, 0, 0]	n/a	catFR1	2	R1498D
188.581	0.0	221543	COUNTDOWN_END	n/a	n/a	n/a	n/a	-999	-999	[0, 0, 0]	n/a	catFR1	2	R1498D
188.581	1.85	221543	ENCODING_START	n/a	n/a	n/a	n/a	-999	-1	[0, 0, 0]	n/a	catFR1	2	R1498D
190.431	1.6	223394	WORD	n/a	n/a	GRATER	KitchenTools	1	-1	[0, 0, 0]	n/a	catFR1	2	R1498D
192.031	0.833	224989	WORD_OFF	n/a	n/a	GRATER	KitchenTools	1	-1	[0, 0, 0]	n/a	catFR1	2	R1498D
192.864	1.6	225821	WORD	n/a	n/a	FORK	KitchenTools	2	-1	[0, 0, 0]	n/a	catFR1	2	R1498D
194.464	0.949	227424	WORD_OFF	n/a	n/a	FORK	KitchenTools	2	-1	[0, 0, 0]	n/a	catFR1	2	R1498D
195.413	1.6	228372	WORD	n/a	n/a	PASTRY	Desserts	3	-1	[0, 0, 0]	n/a	catFR1	2	R1498D
197.013	0.967	229975	WORD_OFF	n/a	n/a	PASTRY	Desserts	3	-1	[0, 0, 0]	n/a	catFR1	2	R1498D
197.98	1.6	230941	WORD	n/a	n/a	MOUSSE	Desserts	4	-1	[0, 0, 0]	n/a	catFR1	2	R1498D
199.596	0.851	232553	WORD_OFF	n/a	n/a	MOUSSE	Desserts	4	-1	[0, 0, 0]	n/a	catFR1	2	R1498D
200.447	1.6	233403	WORD	n/a	n/a	SANDER	Tools	5	-1	[0, 0, 0]	n/a	catFR1	2	R1498D
202.047	0.95	235006	WORD_OFF	n/a	n/a	SANDER	Tools	5	-1	[0, 0, 0]	n/a	catFR1	2	R1498D
202.997	1.6	235954	WORD	n/a	n/a	SAW	Tools	6	-1	[0, 0, 0]	n/a	catFR1	2	R1498D
204.613	0.884	237575	WORD_OFF	n/a	n/a	SAW	Tools	6	-1	[0, 0, 0]	n/a	catFR1	2	R1498D
205.497	1.6	238460	WORD	n/a	n/a	PUDDING	Desserts	7	-1	[0, 0, 0]	n/a	catFR1	2	R1498D
207.114	0.867	240072	WORD_OFF	n/a	n/a	PUDDING	Desserts	7	-1	[0, 0, 0]	n/a	catFR1	2	R1498D
207.981	1.6	240940	WORD	n/a	n/a	BROWNIES	Desserts	8	-1	[0, 0, 0]	n/a	catFR1	2	R1498D
209.596	0.851	242552	WORD_OFF	n/a	n/a	BROWNIES	Desserts	8	-1	[0, 0, 0]	n/a	catFR1	2	R1498D
210.447	1.6	243403	WORD	n/a	n/a	PEELER	KitchenTools	9	-1	[0, 0, 0]	n/a	catFR1	2	R1498D
212.064	0.95	245023	WORD_OFF	n/a	n/a	PEELER	KitchenTools	9	-1	[0, 0, 0]	n/a	catFR1	2	R1498D
213.014	1.6	245971	WORD	n/a	n/a	SPOON	KitchenTools	10	-1	[0, 0, 0]	n/a	catFR1	2	R1498D
214.614	0.815	247574	WORD_OFF	n/a	n/a	SPOON	KitchenTools	10	-1	[0, 0, 0]	n/a	catFR1	2	R1498D
215.429	1.6	248389	WORD	n/a	n/a	CROWBAR	Tools	11	-1	[0, 0, 0]	n/a	catFR1	2	R1498D
217.031	0.816	249992	WORD_OFF	n/a	n/a	CROWBAR	Tools	11	-1	[0, 0, 0]	n/a	catFR1	2	R1498D
217.847	1.6	250807	WORD	n/a	n/a	AXE	Tools	12	-1	[0, 0, 0]	n/a	catFR1	2	R1498D
219.464	0.001	252419	WORD_OFF	n/a	n/a	AXE	Tools	12	-1	[0, 0, 0]	n/a	catFR1	2	R1498D
219.465	0.0	252419	ENCODING_END	n/a	n/a	n/a	n/a	-999	-1	[0, 0, 0]	n/a	catFR1	2	R1498D
219.465	0.001	252420	START	n/a	n/a	n/a	n/a	-999	-1	[-999, -999, -999]	n/a	catFR1	2	R1498D
219.466	0.0	252421	PROB	6.248	n/a	n/a	n/a	-999	-1	[7, 1, 7]	15.0	catFR1	2	R1498D
219.465	6.265	252428	DISTRACT_START	n/a	n/a	n/a	n/a	-999	-1	[0, 0, 0]	n/a	catFR1	2	R1498D
225.73	7.818	258685	PROB	7.8	n/a	n/a	n/a	-999	-1	[6, 5, 2]	13.0	catFR1	2	R1498D
233.548	4.867	266502	PROB	4.849	n/a	n/a	n/a	-999	-1	[1, 7, 2]	10.0	catFR1	2	R1498D
238.415	4.015	271369	PROB	3.999	n/a	n/a	n/a	-999	-1	[5, 2, 1]	10.0	catFR1	2	R1498D
242.43	0.0	275384	STOP	n/a	n/a	n/a	n/a	-999	-1	[-999, -999, -999]	n/a	catFR1	2	R1498D
242.43	2.017	275386	DISTRACT_END	n/a	n/a	n/a	n/a	-999	-1	[0, 0, 0]	n/a	catFR1	2	R1498D
244.447	1.756	277404	REC_START	n/a	n/a	n/a	n/a	-999	-1	[0, 0, 0]	n/a	catFR1	2	R1498D
246.203	0.324	279157	REC_WORD	1.756	n/a	MOUSSE	Desserts	4	-1	[0, 0, 0]	n/a	catFR1	2	R1498D
246.527	0.658	279481	REC_WORD	2.08	n/a	SANDER	Tools	5	-1	[0, 0, 0]	n/a	catFR1	2	R1498D
247.185	0.878	280139	REC_WORD	2.738	n/a	FORK	KitchenTools	2	-1	[0, 0, 0]	n/a	catFR1	2	R1498D
248.063	3.253	281017	REC_WORD	3.616	n/a	AXE	Tools	12	-1	[0, 0, 0]	n/a	catFR1	2	R1498D
251.316	23.346	284269	REC_WORD	6.869	n/a	CROWBAR	Tools	11	-1	[0, 0, 0]	n/a	catFR1	2	R1498D
274.662	15.285	307617	REC_END	n/a	n/a	n/a	n/a	-999	-1	[0, 0, 0]	n/a	catFR1	2	R1498D
289.947	10.0	322904	COUNTDOWN_START	n/a	n/a	n/a	n/a	-999	1	[0, 0, 0]	n/a	catFR1	2	R1498D
300.296	0.0	333249	COUNTDOWN_END	n/a	n/a	n/a	n/a	-999	1	[0, 0, 0]	n/a	catFR1	2	R1498D
300.296	1.834	333249	ENCODING_START	n/a	n/a	n/a	n/a	-999	1	[0, 0, 0]	n/a	catFR1	2	R1498D
302.13	1.6	335083	WORD	n/a	wordpools/wordpool_categorized_EN.txt	HAMMER	Tools	1	1	[0, 0, 0]	n/a	catFR1	2	R1498D
303.746	0.851	336695	WORD_OFF	n/a	n/a	HAMMER	Tools	1	1	[0, 0, 0]	n/a	catFR1	2	R1498D
304.597	1.6	337554	WORD	n/a	wordpools/wordpool_categorized_EN.txt	PLIERS	Tools	2	1	[0, 0, 0]	n/a	catFR1	2	R1498D
306.214	0.766	339166	WORD_OFF	n/a	n/a	PLIERS	Tools	2	1	[0, 0, 0]	n/a	catFR1	2	R1498D
306.98	1.6	339936	WORD	n/a	wordpools/wordpool_categorized_EN.txt	CARROT	Vegetables	3	1	[0, 0, 0]	n/a	catFR1	2	R1498D
308.581	0.883	341531	WORD_OFF	n/a	n/a	CARROT	Vegetables	3	1	[0, 0, 0]	n/a	catFR1	2	R1498D
309.464	1.6	342416	WORD	n/a	wordpools/wordpool_categorized_EN.txt	BROCCOLI	Vegetables	4	1	[0, 0, 0]	n/a	catFR1	2	R1498D
311.064	0.85	344020	WORD_OFF	n/a	n/a	BROCCOLI	Vegetables	4	1	[0, 0, 0]	n/a	catFR1	2	R1498D
311.914	1.6	344870	WORD	n/a	wordpools/wordpool_categorized_EN.txt	EVERGREEN	Trees	5	1	[0, 0, 0]	n/a	catFR1	2	R1498D
313.53	0.834	346482	WORD_OFF	n/a	n/a	EVERGREEN	Trees	5	1	[0, 0, 0]	n/a	catFR1	2	R1498D
314.364	1.6	347314	WORD	n/a	wordpools/wordpool_categorized_EN.txt	BIRCH	Trees	6	1	[0, 0, 0]	n/a	catFR1	2	R1498D
315.964	0.833	348918	WORD_OFF	n/a	n/a	BIRCH	Trees	6	1	[0, 0, 0]	n/a	catFR1	2	R1498D
316.797	1.6	349750	WORD	n/a	wordpools/wordpool_categorized_EN.txt	CUCUMBER	Vegetables	7	1	[0, 0, 0]	n/a	catFR1	2	R1498D
318.397	1.0	351353	WORD_OFF	n/a	n/a	CUCUMBER	Vegetables	7	1	[0, 0, 0]	n/a	catFR1	2	R1498D
319.397	1.6	352345	WORD	n/a	wordpools/wordpool_categorized_EN.txt	LETTUCE	Vegetables	8	1	[0, 0, 0]	n/a	catFR1	2	R1498D
321.011	0.769	353966	WORD_OFF	n/a	n/a	LETTUCE	Vegetables	8	1	[0, 0, 0]	n/a	catFR1	2	R1498D
321.78	1.6	354728	WORD	n/a	wordpools/wordpool_categorized_EN.txt	SCREWDRIVER	Tools	9	1	[0, 0, 0]	n/a	catFR1	2	R1498D
323.38	0.868	356331	WORD_OFF	n/a	n/a	SCREWDRIVER	Tools	9	1	[0, 0, 0]	n/a	catFR1	2	R1498D
324.248	1.6	357199	WORD	n/a	wordpools/wordpool_categorized_EN.txt	LEVEL	Tools	10	1	[0, 0, 0]	n/a	catFR1	2	R1498D
325.864	0.867	358811	WORD_OFF	n/a	n/a	LEVEL	Tools	10	1	[0, 0, 0]	n/a	catFR1	2	R1498D
326.731	1.6	359679	WORD	n/a	wordpools/wordpool_categorized_EN.txt	SPRUCE	Trees	11	1	[0, 0, 0]	n/a	catFR1	2	R1498D
328.347	0.766	361300	WORD_OFF	n/a	n/a	SPRUCE	Trees	11	1	[0, 0, 0]	n/a	catFR1	2	R1498D
329.113	1.6	362062	WORD	n/a	wordpools/wordpool_categorized_EN.txt	OAK	Trees	12	1	[0, 0, 0]	n/a	catFR1	2	R1498D
330.714	0.001	363663	PROB	35.833	n/a	n/a	n/a	-999	1	[3, 3, 8]	14.0	catFR1	2	R1498D
330.715	0.0	363664	START	n/a	n/a	n/a	n/a	-999	1	[-999, -999, -999]	n/a	catFR1	2	R1498D
330.714	0.001	363665	WORD_OFF	n/a	n/a	OAK	Trees	12	1	[0, 0, 0]	n/a	catFR1	2	R1498D
330.715	0.0	363665	ENCODING_END	n/a	n/a	n/a	n/a	-999	1	[0, 0, 0]	n/a	catFR1	2	R1498D
330.715	35.849	363665	DISTRACT_START	n/a	n/a	n/a	n/a	-999	1	[0, 0, 0]	n/a	catFR1	2	R1498D
366.564	0.0	399510	DISTRACT_END	n/a	n/a	n/a	n/a	-999	1	[0, 0, 0]	n/a	catFR1	2	R1498D
366.564	2.299	399511	STOP	n/a	n/a	n/a	n/a	-999	1	[-999, -999, -999]	n/a	catFR1	2	R1498D
368.863	13.852	401812	REC_START	n/a	n/a	n/a	n/a	-999	1	[0, 0, 0]	n/a	catFR1	2	R1498D
382.715	16.325	415661	REC_WORD	13.852	n/a	THEATER	n/a	-999	1	[0, 0, 0]	n/a	catFR1	2	R1498D
399.04	10.823	431989	REC_END	n/a	n/a	n/a	n/a	-999	1	[0, 0, 0]	n/a	catFR1	2	R1498D
409.863	10.0	442812	COUNTDOWN_START	n/a	n/a	n/a	n/a	-999	2	[0, 0, 0]	n/a	catFR1	2	R1498D
420.214	0.0	453157	COUNTDOWN_END	n/a	n/a	n/a	n/a	-999	2	[0, 0, 0]	n/a	catFR1	2	R1498D
420.214	2.1	453166	ENCODING_START	n/a	n/a	n/a	n/a	-999	2	[0, 0, 0]	n/a	catFR1	2	R1498D
422.314	1.6	455256	WORD	n/a	wordpools/wordpool_categorized_EN.txt	WATER	Beverages	1	2	[0, 0, 0]	n/a	catFR1	2	R1498D
423.931	1.0	456877	WORD_OFF	n/a	n/a	WATER	Beverages	1	2	[0, 0, 0]	n/a	catFR1	2	R1498D
424.931	1.6	457878	WORD	n/a	wordpools/wordpool_categorized_EN.txt	JUICE	Beverages	2	2	[0, 0, 0]	n/a	catFR1	2	R1498D
426.531	0.883	459472	WORD_OFF	n/a	n/a	JUICE	Beverages	2	2	[0, 0, 0]	n/a	catFR1	2	R1498D
427.414	1.6	460358	WORD	n/a	wordpools/wordpool_categorized_EN.txt	NOTEBOOK	OfficeSupplies	3	2	[0, 0, 0]	n/a	catFR1	2	R1498D
429.014	0.816	461961	WORD_OFF	n/a	n/a	NOTEBOOK	OfficeSupplies	3	2	[0, 0, 0]	n/a	catFR1	2	R1498D
429.83	1.6	462776	WORD	n/a	wordpools/wordpool_categorized_EN.txt	TAPE	OfficeSupplies	4	2	[0, 0, 0]	n/a	catFR1	2	R1498D
431.447	0.849	464397	WORD_OFF	n/a	n/a	TAPE	OfficeSupplies	4	2	[0, 0, 0]	n/a	catFR1	2	R1498D
432.296	1.6	465238	WORD	n/a	wordpools/wordpool_categorized_EN.txt	ROOSTER	FarmAnimals	5	2	[0, 0, 0]	n/a	catFR1	2	R1498D
433.897	0.834	466842	WORD_OFF	n/a	n/a	ROOSTER	FarmAnimals	5	2	[0, 0, 0]	n/a	catFR1	2	R1498D
434.731	1.6	467674	WORD	n/a	wordpools/wordpool_categorized_EN.txt	GOAT	FarmAnimals	6	2	[0, 0, 0]	n/a	catFR1	2	R1498D
436.345	0.884	469286	WORD_OFF	n/a	n/a	GOAT	FarmAnimals	6	2	[0, 0, 0]	n/a	catFR1	2	R1498D
437.229	1.6	470172	WORD	n/a	wordpools/wordpool_categorized_EN.txt	CIDER	Beverages	7	2	[0, 0, 0]	n/a	catFR1	2	R1498D
438.829	0.835	471775	WORD_OFF	n/a	n/a	CIDER	Beverages	7	2	[0, 0, 0]	n/a	catFR1	2	R1498D
439.664	1.6	472608	WORD	n/a	wordpools/wordpool_categorized_EN.txt	SODA	Beverages	8	2	[0, 0, 0]	n/a	catFR1	2	R1498D
441.264	0.849	474211	WORD_OFF	n/a	n/a	SODA	Beverages	8	2	[0, 0, 0]	n/a	catFR1	2	R1498D
442.113	1.6	475061	WORD	n/a	wordpools/wordpool_categorized_EN.txt	RULER	OfficeSupplies	9	2	[0, 0, 0]	n/a	catFR1	2	R1498D
443.713	0.816	476655	WORD_OFF	n/a	n/a	RULER	OfficeSupplies	9	2	[0, 0, 0]	n/a	catFR1	2	R1498D
444.529	1.6	477470	WORD	n/a	wordpools/wordpool_categorized_EN.txt	PAPER	OfficeSupplies	10	2	[0, 0, 0]	n/a	catFR1	2	R1498D
446.146	0.9	479091	WORD_OFF	n/a	n/a	PAPER	OfficeSupplies	10	2	[0, 0, 0]	n/a	catFR1	2	R1498D
447.046	1.6	479994	WORD	n/a	wordpools/wordpool_categorized_EN.txt	BULL	FarmAnimals	11	2	[0, 0, 0]	n/a	catFR1	2	R1498D
448.646	0.801	481589	WORD_OFF	n/a	n/a	BULL	FarmAnimals	11	2	[0, 0, 0]	n/a	catFR1	2	R1498D
449.447	1.6	482395	WORD	n/a	wordpools/wordpool_categorized_EN.txt	CALF	FarmAnimals	12	2	[0, 0, 0]	n/a	catFR1	2	R1498D
451.063	0.002	484007	WORD_OFF	n/a	n/a	CALF	FarmAnimals	12	2	[0, 0, 0]	n/a	catFR1	2	R1498D
451.065	0.0	484007	ENCODING_END	n/a	n/a	n/a	n/a	-999	2	[0, 0, 0]	n/a	catFR1	2	R1498D
451.064	0.001	484007	PROB	7.633	n/a	n/a	n/a	-999	2	[6, 4, 4]	14.0	catFR1	2	R1498D
451.065	0.0	484008	START	n/a	n/a	n/a	n/a	-999	2	[-999, -999, -999]	n/a	catFR1	2	R1498D
451.065	7.649	484016	DISTRACT_START	n/a	n/a	n/a	n/a	-999	2	[0, 0, 0]	n/a	catFR1	2	R1498D
458.714	6.083	491656	PROB	6.067	n/a	n/a	n/a	-999	2	[6, 8, 4]	18.0	catFR1	2	R1498D
464.797	26.967	497739	PROB	26.95	n/a	n/a	n/a	-999	2	[1, 5, 6]	12.0	catFR1	2	R1498D
491.764	0.0	524705	DISTRACT_END	n/a	n/a	n/a	n/a	-999	2	[0, 0, 0]	n/a	catFR1	2	R1498D
491.764	2.316	524705	STOP	n/a	n/a	n/a	n/a	-999	2	[-999, -999, -999]	n/a	catFR1	2	R1498D
494.08	3.321	527025	REC_START	n/a	n/a	n/a	n/a	-999	2	[0, 0, 0]	n/a	catFR1	2	R1498D
497.401	9.076	530341	REC_WORD	3.321	n/a	CIDER	Beverages	7	2	[0, 0, 0]	n/a	catFR1	2	R1498D
506.477	1.825	539417	REC_WORD_VV	12.397	n/a	<>	n/a	-999	2	[0, 0, 0]	n/a	catFR1	2	R1498D
508.302	1.608	541242	REC_WORD_VV	14.222	n/a	<>	n/a	-999	2	[0, 0, 0]	n/a	catFR1	2	R1498D
509.91	14.377	542850	REC_WORD	15.83	n/a	BOOST	n/a	-999	2	[0, 0, 0]	n/a	catFR1	2	R1498D
524.287	10.993	557229	REC_END	n/a	n/a	n/a	n/a	-999	2	[0, 0, 0]	n/a	catFR1	2	R1498D
535.28	10.0	568220	COUNTDOWN_START	n/a	n/a	n/a	n/a	-999	3	[0, 0, 0]	n/a	catFR1	2	R1498D
545.631	0.0	578574	COUNTDOWN_END	n/a	n/a	n/a	n/a	-999	3	[0, 0, 0]	n/a	catFR1	2	R1498D
545.631	2.016	578574	ENCODING_START	n/a	n/a	n/a	n/a	-999	3	[0, 0, 0]	n/a	catFR1	2	R1498D
547.647	1.6	580585	WORD	n/a	wordpools/wordpool_categorized_EN.txt	FOLDER	OfficeSupplies	1	3	[0, 0, 0]	n/a	catFR1	2	R1498D
549.263	0.951	582206	WORD_OFF	n/a	n/a	FOLDER	OfficeSupplies	1	3	[0, 0, 0]	n/a	catFR1	2	R1498D
550.214	1.6	583153	WORD	n/a	wordpools/wordpool_categorized_EN.txt	BINDER	OfficeSupplies	2	3	[0, 0, 0]	n/a	catFR1	2	R1498D
551.831	0.765	584774	WORD_OFF	n/a	n/a	BINDER	OfficeSupplies	2	3	[0, 0, 0]	n/a	catFR1	2	R1498D
552.596	1.6	585536	WORD	n/a	wordpools/wordpool_categorized_EN.txt	BOAT	Vehicles	3	3	[0, 0, 0]	n/a	catFR1	2	R1498D
554.197	0.899	587139	WORD_OFF	n/a	n/a	BOAT	Vehicles	3	3	[0, 0, 0]	n/a	catFR1	2	R1498D
555.096	1.6	588034	WORD	n/a	wordpools/wordpool_categorized_EN.txt	VAN	Vehicles	4	3	[0, 0, 0]	n/a	catFR1	2	R1498D
556.697	0.999	589637	WORD_OFF	n/a	n/a	VAN	Vehicles	4	3	[0, 0, 0]	n/a	catFR1	2	R1498D
557.696	1.6	590638	WORD	n/a	wordpools/wordpool_categorized_EN.txt	ANT	Insects	5	3	[0, 0, 0]	n/a	catFR1	2	R1498D
559.296	0.834	592232	WORD_OFF	n/a	n/a	ANT	Insects	5	3	[0, 0, 0]	n/a	catFR1	2	R1498D
560.13	1.6	593065	WORD	n/a	wordpools/wordpool_categorized_EN.txt	CRICKET	Insects	6	3	[0, 0, 0]	n/a	catFR1	2	R1498D
561.745	0.802	594685	WORD_OFF	n/a	n/a	CRICKET	Insects	6	3	[0, 0, 0]	n/a	catFR1	2	R1498D
562.547	1.6	595483	WORD	n/a	wordpools/wordpool_categorized_EN.txt	TRUCK	Vehicles	7	3	[0, 0, 0]	n/a	catFR1	2	R1498D
564.164	0.85	597103	WORD_OFF	n/a	n/a	TRUCK	Vehicles	7	3	[0, 0, 0]	n/a	catFR1	2	R1498D
565.014	1.6	597954	WORD	n/a	wordpools/wordpool_categorized_EN.txt	BIKE	Vehicles	8	3	[0, 0, 0]	n/a	catFR1	2	R1498D
566.614	0.766	599557	WORD_OFF	n/a	n/a	BIKE	Vehicles	8	3	[0, 0, 0]	n/a	catFR1	2	R1498D
567.38	1.6	600319	WORD	n/a	wordpools/wordpool_categorized_EN.txt	MARKER	OfficeSupplies	9	3	[0, 0, 0]	n/a	catFR1	2	R1498D
568.98	0.783	601922	WORD_OFF	n/a	n/a	MARKER	OfficeSupplies	9	3	[0, 0, 0]	n/a	catFR1	2	R1498D
569.763	1.6	602701	WORD	n/a	wordpools/wordpool_categorized_EN.txt	PEN	OfficeSupplies	10	3	[0, 0, 0]	n/a	catFR1	2	R1498D
571.364	0.983	604304	WORD_OFF	n/a	n/a	PEN	OfficeSupplies	10	3	[0, 0, 0]	n/a	catFR1	2	R1498D
572.347	1.6	605287	WORD	n/a	wordpools/wordpool_categorized_EN.txt	BEETLE	Insects	11	3	[0, 0, 0]	n/a	catFR1	2	R1498D
573.964	0.967	606899	WORD_OFF	n/a	n/a	BEETLE	Insects	11	3	[0, 0, 0]	n/a	catFR1	2	R1498D
574.931	1.6	607865	WORD	n/a	wordpools/wordpool_categorized_EN.txt	GNAT	Insects	12	3	[0, 0, 0]	n/a	catFR1	2	R1498D
576.531	0.0	609467	PROB	4.599	n/a	n/a	n/a	-999	3	[3, 2, 3]	8.0	catFR1	2	R1498D
576.531	0.001	609468	WORD_OFF	n/a	n/a	GNAT	Insects	12	3	[0, 0, 0]	n/a	catFR1	2	R1498D
576.532	0.0	609468	ENCODING_END	n/a	n/a	n/a	n/a	-999	3	[0, 0, 0]	n/a	catFR1	2	R1498D
576.532	0.0	609468	START	n/a	n/a	n/a	n/a	-999	3	[-999, -999, -999]	n/a	catFR1	2	R1498D
576.532	4.615	609477	DISTRACT_START	n/a	n/a	n/a	n/a	-999	3	[0, 0, 0]	n/a	catFR1	2	R1498D
581.147	3.317	614083	PROB	3.3	n/a	n/a	n/a	-999	3	[4, 1, 6]	11.0	catFR1	2	R1498D
584.464	6.351	617400	PROB	6.333	n/a	n/a	n/a	-999	3	[3, 8, 4]	15.0	catFR1	2	R1498D
590.815	3.082	623750	PROB	3.066	n/a	n/a	n/a	-999	3	[2, 6, 6]	14.0	catFR1	2	R1498D
593.897	3.667	626832	PROB	3.65	n/a	n/a	n/a	-999	3	[8, 1, 2]	12.0	catFR1	2	R1498D
597.564	0.0	630499	STOP	n/a	n/a	n/a	n/a	-999	3	[-999, -999, -999]	n/a	catFR1	2	R1498D
597.564	2.249	630504	DISTRACT_END	n/a	n/a	n/a	n/a	-999	3	[0, 0, 0]	n/a	catFR1	2	R1498D
599.813	1.09	632753	REC_START	n/a	n/a	n/a	n/a	-999	3	[0, 0, 0]	n/a	catFR1	2	R1498D
600.903	0.661	633838	REC_WORD	1.09	n/a	GNAT	Insects	12	3	[0, 0, 0]	n/a	catFR1	2	R1498D
601.564	0.756	634499	REC_WORD	1.751	n/a	BEETLE	Insects	11	3	[0, 0, 0]	n/a	catFR1	2	R1498D
602.32	11.435	635255	REC_WORD	2.507	n/a	SPIDER	n/a	-999	3	[0, 0, 0]	n/a	catFR1	2	R1498D
613.755	16.261	646689	REC_WORD	13.942	n/a	BOAT	Vehicles	3	3	[0, 0, 0]	n/a	catFR1	2	R1498D
630.016	4.514	662956	REC_END	n/a	n/a	n/a	n/a	-999	3	[0, 0, 0]	n/a	catFR1	2	R1498D
634.53	10.0	667465	COUNTDOWN_START	n/a	n/a	n/a	n/a	-999	4	[0, 0, 0]	n/a	catFR1	2	R1498D
644.88	0.0	677819	COUNTDOWN_END	n/a	n/a	n/a	n/a	-999	4	[0, 0, 0]	n/a	catFR1	2	R1498D
644.88	2.267	677819	ENCODING_START	n/a	n/a	n/a	n/a	-999	4	[0, 0, 0]	n/a	catFR1	2	R1498D
647.147	1.6	680086	WORD	n/a	wordpools/wordpool_categorized_EN.txt	CUPCAKE	Desserts	1	4	[0, 0, 0]	n/a	catFR1	2	R1498D
648.763	0.9	681698	WORD_OFF	n/a	n/a	CUPCAKE	Desserts	1	4	[0, 0, 0]	n/a	catFR1	2	R1498D
649.663	1.6	682601	WORD	n/a	wordpools/wordpool_categorized_EN.txt	CHEESECAKE	Desserts	2	4	[0, 0, 0]	n/a	catFR1	2	R1498D
651.265	0.832	684196	WORD_OFF	n/a	n/a	CHEESECAKE	Desserts	2	4	[0, 0, 0]	n/a	catFR1	2	R1498D
652.097	1.6	685028	WORD	n/a	wordpools/wordpool_categorized_EN.txt	DOVE	Birds	3	4	[0, 0, 0]	n/a	catFR1	2	R1498D
653.697	0.95	686631	WORD_OFF	n/a	n/a	DOVE	Birds	3	4	[0, 0, 0]	n/a	catFR1	2	R1498D
654.647	1.6	687579	WORD	n/a	wordpools/wordpool_categorized_EN.txt	CROW	Birds	4	4	[0, 0, 0]	n/a	catFR1	2	R1498D
656.263	0.884	689200	WORD_OFF	n/a	n/a	CROW	Birds	4	4	[0, 0, 0]	n/a	catFR1	2	R1498D
657.147	1.6	690077	WORD	n/a	wordpools/wordpool_categorized_EN.txt	NYLON	Fabric	5	4	[0, 0, 0]	n/a	catFR1	2	R1498D
658.761	0.97	691698	WORD_OFF	n/a	n/a	NYLON	Fabric	5	4	[0, 0, 0]	n/a	catFR1	2	R1498D
659.731	1.6	692663	WORD	n/a	wordpools/wordpool_categorized_EN.txt	COTTON	Fabric	6	4	[0, 0, 0]	n/a	catFR1	2	R1498D
661.331	0.766	694266	WORD_OFF	n/a	n/a	COTTON	Fabric	6	4	[0, 0, 0]	n/a	catFR1	2	R1498D
662.097	1.6	695028	WORD	n/a	wordpools/wordpool_categorized_EN.txt	FUDGE	Desserts	7	4	[0, 0, 0]	n/a	catFR1	2	R1498D
663.697	0.783	696631	WORD_OFF	n/a	n/a	FUDGE	Desserts	7	4	[0, 0, 0]	n/a	catFR1	2	R1498D
664.48	1.6	697411	WORD	n/a	wordpools/wordpool_categorized_EN.txt	CAKE	Desserts	8	4	[0, 0, 0]	n/a	catFR1	2	R1498D
666.08	0.8	699014	WORD_OFF	n/a	n/a	CAKE	Desserts	8	4	[0, 0, 0]	n/a	catFR1	2	R1498D
666.88	1.6	699811	WORD	n/a	wordpools/wordpool_categorized_EN.txt	ROBIN	Birds	9	4	[0, 0, 0]	n/a	catFR1	2	R1498D
668.496	0.968	701432	WORD_OFF	n/a	n/a	ROBIN	Birds	9	4	[0, 0, 0]	n/a	catFR1	2	R1498D
669.464	1.6	702397	WORD	n/a	wordpools/wordpool_categorized_EN.txt	PIGEON	Birds	10	4	[0, 0, 0]	n/a	catFR1	2	R1498D
671.08	0.934	704009	WORD_OFF	n/a	n/a	PIGEON	Birds	10	4	[0, 0, 0]	n/a	catFR1	2	R1498D
672.014	1.6	704948	WORD	n/a	wordpools/wordpool_categorized_EN.txt	FLEECE	Fabric	11	4	[0, 0, 0]	n/a	catFR1	2	R1498D
673.614	0.783	706551	WORD_OFF	n/a	n/a	FLEECE	Fabric	11	4	[0, 0, 0]	n/a	catFR1	2	R1498D
674.397	1.6	707331	WORD	n/a	wordpools/wordpool_categorized_EN.txt	VELVET	Fabric	12	4	[0, 0, 0]	n/a	catFR1	2	R1498D
676.014	0.001	708943	WORD_OFF	n/a	n/a	VELVET	Fabric	12	4	[0, 0, 0]	n/a	catFR1	2	R1498D
676.015	0.001	708946	START	n/a	n/a	n/a	n/a	-999	4	[-999, -999, -999]	n/a	catFR1	2	R1498D
676.016	0.0	708947	PROB	4.249	n/a	n/a	n/a	-999	4	[2, 3, 3]	8.0	catFR1	2	R1498D
676.015	0.0	708951	ENCODING_END	n/a	n/a	n/a	n/a	-999	4	[0, 0, 0]	n/a	catFR1	2	R1498D
676.015	4.266	708951	DISTRACT_START	n/a	n/a	n/a	n/a	-999	4	[0, 0, 0]	n/a	catFR1	2	R1498D
680.281	6.967	713211	PROB	6.949	n/a	n/a	n/a	-999	4	[7, 4, 2]	13.0	catFR1	2	R1498D
687.248	4.249	720178	PROB	4.233	n/a	n/a	n/a	-999	4	[7, 7, 3]	17.0	catFR1	2	R1498D
691.497	5.833	724427	PROB	5.816	n/a	n/a	n/a	-999	4	[8, 5, 3]	16.0	catFR1	2	R1498D
697.33	0.0	730260	STOP	n/a	n/a	n/a	n/a	-999	4	[-999, -999, -999]	n/a	catFR1	2	R1498D
697.33	2.25	730262	DISTRACT_END	n/a	n/a	n/a	n/a	-999	4	[0, 0, 0]	n/a	catFR1	2	R1498D
699.58	9.675	732511	REC_START	n/a	n/a	n/a	n/a	-999	4	[0, 0, 0]	n/a	catFR1	2	R1498D
709.255	20.533	742184	REC_WORD	9.675	n/a	DOVE	Birds	3	4	[0, 0, 0]	n/a	catFR1	2	R1498D
729.788	6.793	762714	REC_END	n/a	n/a	n/a	n/a	-999	4	[0, 0, 0]	n/a	catFR1	2	R1498D
736.581	10.0	769517	COUNTDOWN_START	n/a	n/a	n/a	n/a	-999	5	[0, 0, 0]	n/a	catFR1	2	R1498D
746.931	0.0	779862	COUNTDOWN_END	n/a	n/a	n/a	n/a	-999	5	[0, 0, 0]	n/a	catFR1	2	R1498D
746.931	2.1	779862	ENCODING_START	n/a	n/a	n/a	n/a	-999	5	[0, 0, 0]	n/a	catFR1	2	R1498D
749.031	1.6	781961	WORD	n/a	wordpools/wordpool_categorized_EN.txt	LOBSTER	OceanAnimals	1	5	[0, 0, 0]	n/a	catFR1	2	R1498D
750.647	0.867	783573	WORD_OFF	n/a	n/a	LOBSTER	OceanAnimals	1	5	[0, 0, 0]	n/a	catFR1	2	R1498D
751.514	1.6	784441	WORD	n/a	wordpools/wordpool_categorized_EN.txt	SHRIMP	OceanAnimals	2	5	[0, 0, 0]	n/a	catFR1	2	R1498D
753.114	0.949	786044	WORD_OFF	n/a	n/a	SHRIMP	OceanAnimals	2	5	[0, 0, 0]	n/a	catFR1	2	R1498D
754.063	1.6	786992	WORD	n/a	wordpools/wordpool_categorized_EN.txt	UNDERWEAR	Clothing	3	5	[0, 0, 0]	n/a	catFR1	2	R1498D
755.664	0.816	788595	WORD_OFF	n/a	n/a	UNDERWEAR	Clothing	3	5	[0, 0, 0]	n/a	catFR1	2	R1498D
756.48	1.6	789410	WORD	n/a	wordpools/wordpool_categorized_EN.txt	JACKET	Clothing	4	5	[0, 0, 0]	n/a	catFR1	2	R1498D
758.097	0.817	791022	WORD_OFF	n/a	n/a	JACKET	Clothing	4	5	[0, 0, 0]	n/a	catFR1	2	R1498D
758.914	1.6	791845	WORD	n/a	wordpools/wordpool_categorized_EN.txt	CARNATION	Flowers	5	5	[0, 0, 0]	n/a	catFR1	2	R1498D
760.514	0.883	793440	WORD_OFF	n/a	n/a	CARNATION	Flowers	5	5	[0, 0, 0]	n/a	catFR1	2	R1498D
761.397	1.6	794325	WORD	n/a	wordpools/wordpool_categorized_EN.txt	TULIP	Flowers	6	5	[0, 0, 0]	n/a	catFR1	2	R1498D
762.997	0.916	795928	WORD_OFF	n/a	n/a	TULIP	Flowers	6	5	[0, 0, 0]	n/a	catFR1	2	R1498D
763.913	1.6	796841	WORD	n/a	wordpools/wordpool_categorized_EN.txt	SHOES	Clothing	7	5	[0, 0, 0]	n/a	catFR1	2	R1498D
765.514	0.8	798444	WORD_OFF	n/a	n/a	SHOES	Clothing	7	5	[0, 0, 0]	n/a	catFR1	2	R1498D
766.314	1.6	799241	WORD	n/a	wordpools/wordpool_categorized_EN.txt	PANTS	Clothing	8	5	[0, 0, 0]	n/a	catFR1	2	R1498D
767.914	0.967	800844	WORD_OFF	n/a	n/a	PANTS	Clothing	8	5	[0, 0, 0]	n/a	catFR1	2	R1498D
768.881	1.6	801810	WORD	n/a	wordpools/wordpool_categorized_EN.txt	SUNFLOWER	Flowers	9	5	[0, 0, 0]	n/a	catFR1	2	R1498D
770.495	0.819	803422	WORD_OFF	n/a	n/a	SUNFLOWER	Flowers	9	5	[0, 0, 0]	n/a	catFR1	2	R1498D
771.314	1.6	804245	WORD	n/a	wordpools/wordpool_categorized_EN.txt	ROSE	Flowers	10	5	[0, 0, 0]	n/a	catFR1	2	R1498D
772.914	0.766	805840	WORD_OFF	n/a	n/a	ROSE	Flowers	10	5	[0, 0, 0]	n/a	catFR1	2	R1498D
773.68	1.6	806610	WORD	n/a	wordpools/wordpool_categorized_EN.txt	OCTOPUS	OceanAnimals	11	5	[0, 0, 0]	n/a	catFR1	2	R1498D
775.281	0.783	808204	WORD_OFF	n/a	n/a	OCTOPUS	OceanAnimals	11	5	[0, 0, 0]	n/a	catFR1	2	R1498D
776.064	1.6	808993	WORD	n/a	wordpools/wordpool_categorized_EN.txt	TURTLE	OceanAnimals	12	5	[0, 0, 0]	n/a	catFR1	2	R1498D
777.681	0.001	810605	WORD_OFF	n/a	n/a	TURTLE	OceanAnimals	12	5	[0, 0, 0]	n/a	catFR1	2	R1498D
777.682	0.0	810605	ENCODING_END	n/a	n/a	n/a	n/a	-999	5	[0, 0, 0]	n/a	catFR1	2	R1498D
777.681	0.001	810606	PROB	5.399	n/a	n/a	n/a	-999	5	[2, 8, 4]	14.0	catFR1	2	R1498D
777.682	0.0	810607	START	n/a	n/a	n/a	n/a	-999	5	[-999, -999, -999]	n/a	catFR1	2	R1498D
777.682	5.415	810614	DISTRACT_START	n/a	n/a	n/a	n/a	-999	5	[0, 0, 0]	n/a	catFR1	2	R1498D
783.097	7.017	816022	PROB	7.0	n/a	n/a	n/a	-999	5	[8, 3, 3]	14.0	catFR1	2	R1498D
790.114	16.249	823039	PROB	16.233	n/a	n/a	n/a	-999	5	[7, 7, 8]	22.0	catFR1	2	R1498D
806.363	0.0	839287	STOP	n/a	n/a	n/a	n/a	-999	5	[-999, -999, -999]	n/a	catFR1	2	R1498D
806.363	2.033	839293	DISTRACT_END	n/a	n/a	n/a	n/a	-999	5	[0, 0, 0]	n/a	catFR1	2	R1498D
808.396	4.767	841320	REC_START	n/a	n/a	n/a	n/a	-999	5	[0, 0, 0]	n/a	catFR1	2	R1498D
813.163	7.072	846086	REC_WORD	4.767	n/a	CARNATION	Flowers	5	5	[0, 0, 0]	n/a	catFR1	2	R1498D
820.235	9.845	853158	REC_WORD	11.839	n/a	TULIP	Flowers	6	5	[0, 0, 0]	n/a	catFR1	2	R1498D
830.08	4.644	863003	REC_WORD	21.684	n/a	ROSE	Flowers	10	5	[0, 0, 0]	n/a	catFR1	2	R1498D
834.724	2.469	867646	REC_WORD	26.328	n/a	SHRIMP	OceanAnimals	2	5	[0, 0, 0]	n/a	catFR1	2	R1498D
837.193	1.397	870115	REC_WORD	28.797	n/a	OCTOPUS	OceanAnimals	11	5	[0, 0, 0]	n/a	catFR1	2	R1498D
838.59	5.29	871515	REC_END	n/a	n/a	n/a	n/a	-999	5	[0, 0, 0]	n/a	catFR1	2	R1498D
843.88	10.0	876803	COUNTDOWN_START	n/a	n/a	n/a	n/a	-999	6	[0, 0, 0]	n/a	catFR1	2	R1498D
854.23	0.0	887157	COUNTDOWN_END	n/a	n/a	n/a	n/a	-999	6	[0, 0, 0]	n/a	catFR1	2	R1498D
854.23	1.967	887157	ENCODING_START	n/a	n/a	n/a	n/a	-999	6	[0, 0, 0]	n/a	catFR1	2	R1498D
856.197	1.6	889123	WORD	n/a	wordpools/wordpool_categorized_EN.txt	BASEBALL	Toys	1	6	[0, 0, 0]	n/a	catFR1	2	R1498D
857.797	0.85	890718	WORD_OFF	n/a	n/a	BASEBALL	Toys	1	6	[0, 0, 0]	n/a	catFR1	2	R1498D
858.647	1.6	891568	WORD	n/a	wordpools/wordpool_categorized_EN.txt	BARBIE	Toys	2	6	[0, 0, 0]	n/a	catFR1	2	R1498D
860.263	0.885	893189	WORD_OFF	n/a	n/a	BARBIE	Toys	2	6	[0, 0, 0]	n/a	catFR1	2	R1498D
861.148	1.6	894074	WORD	n/a	wordpools/wordpool_categorized_EN.txt	HEN	FarmAnimals	3	6	[0, 0, 0]	n/a	catFR1	2	R1498D
862.747	0.95	895669	WORD_OFF	n/a	n/a	HEN	FarmAnimals	3	6	[0, 0, 0]	n/a	catFR1	2	R1498D
863.697	1.6	896616	WORD	n/a	wordpools/wordpool_categorized_EN.txt	HORSE	FarmAnimals	4	6	[0, 0, 0]	n/a	catFR1	2	R1498D
865.297	0.767	898220	WORD_OFF	n/a	n/a	HORSE	FarmAnimals	4	6	[0, 0, 0]	n/a	catFR1	2	R1498D
866.064	1.6	898990	WORD	n/a	wordpools/wordpool_categorized_EN.txt	BEAR	Zoo	5	6	[0, 0, 0]	n/a	catFR1	2	R1498D
867.68	1.0	900602	WORD_OFF	n/a	n/a	BEAR	Zoo	5	6	[0, 0, 0]	n/a	catFR1	2	R1498D
868.68	1.6	901603	WORD	n/a	wordpools/wordpool_categorized_EN.txt	MONKEY	Zoo	6	6	[0, 0, 0]	n/a	catFR1	2	R1498D
870.297	0.767	903224	WORD_OFF	n/a	n/a	MONKEY	Zoo	6	6	[0, 0, 0]	n/a	catFR1	2	R1498D
871.064	1.6	903986	WORD	n/a	wordpools/wordpool_categorized_EN.txt	BLOCKS	Toys	7	6	[0, 0, 0]	n/a	catFR1	2	R1498D
872.664	0.983	905589	WORD_OFF	n/a	n/a	BLOCKS	Toys	7	6	[0, 0, 0]	n/a	catFR1	2	R1498D
873.647	1.6	906572	WORD	n/a	wordpools/wordpool_categorized_EN.txt	DOLLHOUSE	Toys	8	6	[0, 0, 0]	n/a	catFR1	2	R1498D
875.264	0.85	908184	WORD_OFF	n/a	n/a	DOLLHOUSE	Toys	8	6	[0, 0, 0]	n/a	catFR1	2	R1498D
876.114	1.6	909034	WORD	n/a	wordpools/wordpool_categorized_EN.txt	LION	Zoo	9	6	[0, 0, 0]	n/a	catFR1	2	R1498D
877.714	0.966	910637	WORD_OFF	n/a	n/a	LION	Zoo	9	6	[0, 0, 0]	n/a	catFR1	2	R1498D
878.68	1.6	911603	WORD	n/a	wordpools/wordpool_categorized_EN.txt	ORANGUTAN	Zoo	10	6	[0, 0, 0]	n/a	catFR1	2	R1498D
880.28	1.001	913206	WORD_OFF	n/a	n/a	ORANGUTAN	Zoo	10	6	[0, 0, 0]	n/a	catFR1	2	R1498D
881.281	1.6	914198	WORD	n/a	wordpools/wordpool_categorized_EN.txt	TURKEY	FarmAnimals	11	6	[0, 0, 0]	n/a	catFR1	2	R1498D
882.88	1.001	915801	WORD_OFF	n/a	n/a	TURKEY	FarmAnimals	11	6	[0, 0, 0]	n/a	catFR1	2	R1498D
883.881	1.6	916802	WORD	n/a	wordpools/wordpool_categorized_EN.txt	CHICKEN	FarmAnimals	12	6	[0, 0, 0]	n/a	catFR1	2	R1498D
885.498	0.001	918417	PROB	6.033	n/a	n/a	n/a	-999	6	[1, 3, 8]	12.0	catFR1	2	R1498D
885.499	0.0	918418	START	n/a	n/a	n/a	n/a	-999	6	[-999, -999, -999]	n/a	catFR1	2	R1498D
885.497	0.002	918423	WORD_OFF	n/a	n/a	CHICKEN	FarmAnimals	12	6	[0, 0, 0]	n/a	catFR1	2	R1498D
885.499	0.0	918423	ENCODING_END	n/a	n/a	n/a	n/a	-999	6	[0, 0, 0]	n/a	catFR1	2	R1498D
885.499	6.048	918423	DISTRACT_START	n/a	n/a	n/a	n/a	-999	6	[0, 0, 0]	n/a	catFR1	2	R1498D
891.547	8.217	924466	PROB	8.199	n/a	n/a	n/a	-999	6	[1, 3, 1]	5.0	catFR1	2	R1498D
899.764	12.081	932683	PROB	12.067	n/a	n/a	n/a	-999	6	[5, 3, 6]	12.0	catFR1	2	R1498D
911.845	0.0	944763	STOP	n/a	n/a	n/a	n/a	-999	6	[-999, -999, -999]	n/a	catFR1	2	R1498D
911.845	2.335	944764	DISTRACT_END	n/a	n/a	n/a	n/a	-999	6	[0, 0, 0]	n/a	catFR1	2	R1498D
914.18	14.025	947101	REC_START	n/a	n/a	n/a	n/a	-999	6	[0, 0, 0]	n/a	catFR1	2	R1498D
928.205	2.889	961122	REC_WORD	14.025	n/a	HEN	FarmAnimals	3	6	[0, 0, 0]	n/a	catFR1	2	R1498D
931.094	1.0	964011	REC_WORD_VV	16.914	n/a	<>	n/a	-999	6	[0, 0, 0]	n/a	catFR1	2	R1498D
932.094	1.0	965011	REC_WORD_VV	17.914	n/a	<>	n/a	-999	6	[0, 0, 0]	n/a	catFR1	2	R1498D
933.094	11.274	966011	REC_WORD_VV	18.914	n/a	<>	n/a	-999	6	[0, 0, 0]	n/a	catFR1	2	R1498D
944.368	25.246	977287	REC_END	n/a	n/a	n/a	n/a	-999	6	[0, 0, 0]	n/a	catFR1	2	R1498D
969.614	10.0	1002530	COUNTDOWN_START	n/a	n/a	n/a	n/a	-999	7	[0, 0, 0]	n/a	catFR1	2	R1498D
979.964	0.0	1012884	COUNTDOWN_END	n/a	n/a	n/a	n/a	-999	7	[0, 0, 0]	n/a	catFR1	2	R1498D
979.964	1.982	1012884	ENCODING_START	n/a	n/a	n/a	n/a	-999	7	[0, 0, 0]	n/a	catFR1	2	R1498D
981.946	1.6	1014859	WORD	n/a	wordpools/wordpool_categorized_EN.txt	FOREST	Landscapes	1	7	[0, 0, 0]	n/a	catFR1	2	R1498D
983.547	0.932	1016462	WORD_OFF	n/a	n/a	FOREST	Landscapes	1	7	[0, 0, 0]	n/a	catFR1	2	R1498D
984.479	1.6	1017392	WORD	n/a	wordpools/wordpool_categorized_EN.txt	STREAM	Landscapes	2	7	[0, 0, 0]	n/a	catFR1	2	R1498D
986.08	0.933	1018996	WORD_OFF	n/a	n/a	STREAM	Landscapes	2	7	[0, 0, 0]	n/a	catFR1	2	R1498D
987.013	1.6	1019926	WORD	n/a	wordpools/wordpool_categorized_EN.txt	ORANGE	Fruit	3	7	[0, 0, 0]	n/a	catFR1	2	R1498D
988.613	0.817	1021529	WORD_OFF	n/a	n/a	ORANGE	Fruit	3	7	[0, 0, 0]	n/a	catFR1	2	R1498D
989.43	1.6	1022343	WORD	n/a	wordpools/wordpool_categorized_EN.txt	GRAPE	Fruit	4	7	[0, 0, 0]	n/a	catFR1	2	R1498D
991.046	0.784	1023964	WORD_OFF	n/a	n/a	GRAPE	Fruit	4	7	[0, 0, 0]	n/a	catFR1	2	R1498D
991.83	1.6	1024744	WORD	n/a	wordpools/wordpool_categorized_EN.txt	LADYBUG	Insects	5	7	[0, 0, 0]	n/a	catFR1	2	R1498D
993.43	0.967	1026347	WORD_OFF	n/a	n/a	LADYBUG	Insects	5	7	[0, 0, 0]	n/a	catFR1	2	R1498D
994.397	1.6	1027312	WORD	n/a	wordpools/wordpool_categorized_EN.txt	BUTTERFLY	Insects	6	7	[0, 0, 0]	n/a	catFR1	2	R1498D
996.014	0.782	1028933	WORD_OFF	n/a	n/a	BUTTERFLY	Insects	6	7	[0, 0, 0]	n/a	catFR1	2	R1498D
996.796	1.6	1029713	WORD	n/a	wordpools/wordpool_categorized_EN.txt	RIVER	Landscapes	7	7	[0, 0, 0]	n/a	catFR1	2	R1498D
998.397	0.783	1031316	WORD_OFF	n/a	n/a	RIVER	Landscapes	7	7	[0, 0, 0]	n/a	catFR1	2	R1498D
999.18	1.6	1032095	WORD	n/a	wordpools/wordpool_categorized_EN.txt	LAKE	Landscapes	8	7	[0, 0, 0]	n/a	catFR1	2	R1498D
1000.78	0.917	1033698	WORD_OFF	n/a	n/a	LAKE	Landscapes	8	7	[0, 0, 0]	n/a	catFR1	2	R1498D
1001.697	1.6	1034611	WORD	n/a	wordpools/wordpool_categorized_EN.txt	BEE	Insects	9	7	[0, 0, 0]	n/a	catFR1	2	R1498D
1003.297	0.817	1036214	WORD_OFF	n/a	n/a	BEE	Insects	9	7	[0, 0, 0]	n/a	catFR1	2	R1498D
1004.114	1.6	1037029	WORD	n/a	wordpools/wordpool_categorized_EN.txt	ROACH	Insects	10	7	[0, 0, 0]	n/a	catFR1	2	R1498D
1005.714	0.932	1038632	WORD_OFF	n/a	n/a	ROACH	Insects	10	7	[0, 0, 0]	n/a	catFR1	2	R1498D
1006.646	1.6	1039562	WORD	n/a	wordpools/wordpool_categorized_EN.txt	CHERRY	Fruit	11	7	[0, 0, 0]	n/a	catFR1	2	R1498D
1008.263	0.9	1041174	WORD_OFF	n/a	n/a	CHERRY	Fruit	11	7	[0, 0, 0]	n/a	catFR1	2	R1498D
1009.163	1.6	1042077	WORD	n/a	wordpools/wordpool_categorized_EN.txt	LIME	Fruit	12	7	[0, 0, 0]	n/a	catFR1	2	R1498D
1010.764	0.0	1043677	PROB	4.166	n/a	n/a	n/a	-999	7	[2, 2, 2]	6.0	catFR1	2	R1498D
1010.763	0.004	1043680	WORD_OFF	n/a	n/a	LIME	Fruit	12	7	[0, 0, 0]	n/a	catFR1	2	R1498D
1010.767	0.0	1043680	ENCODING_END	n/a	n/a	n/a	n/a	-999	7	[0, 0, 0]	n/a	catFR1	2	R1498D
1010.767	0.0	1043680	START	n/a	n/a	n/a	n/a	-999	7	[-999, -999, -999]	n/a	catFR1	2	R1498D
1010.767	4.181	1043689	DISTRACT_START	n/a	n/a	n/a	n/a	-999	7	[0, 0, 0]	n/a	catFR1	2	R1498D
1014.948	5.317	1047861	PROB	5.299	n/a	n/a	n/a	-999	7	[4, 7, 2]	13.0	catFR1	2	R1498D
1020.265	5.216	1053177	PROB	5.199	n/a	n/a	n/a	-999	7	[3, 3, 5]	11.0	catFR1	2	R1498D
1025.481	4.5	1058393	PROB	4.483	n/a	n/a	n/a	-999	7	[5, 2, 6]	13.0	catFR1	2	R1498D
1029.981	6.882	1062893	PROB	6.866	n/a	n/a	n/a	-999	7	[7, 4, 7]	18.0	catFR1	2	R1498D
1036.863	0.0	1069773	DISTRACT_END	n/a	n/a	n/a	n/a	-999	7	[0, 0, 0]	n/a	catFR1	2	R1498D
1036.863	2.2	1069774	STOP	n/a	n/a	n/a	n/a	-999	7	[-999, -999, -999]	n/a	catFR1	2	R1498D
1039.063	3.09	1071978	REC_START	n/a	n/a	n/a	n/a	-999	7	[0, 0, 0]	n/a	catFR1	2	R1498D
1042.153	9.265	1075064	REC_WORD	3.09	n/a	ROACH	Insects	10	7	[0, 0, 0]	n/a	catFR1	2	R1498D
1051.418	5.035	1084329	REC_WORD	12.355	n/a	LIME	Fruit	12	7	[0, 0, 0]	n/a	catFR1	2	R1498D
1056.453	12.81	1089363	REC_WORD	17.39	n/a	BEE	Insects	9	7	[0, 0, 0]	n/a	catFR1	2	R1498D
1069.263	3.617	1102173	REC_END	n/a	n/a	n/a	n/a	-999	7	[0, 0, 0]	n/a	catFR1	2	R1498D
1072.88	10.0	1105795	COUNTDOWN_START	n/a	n/a	n/a	n/a	-999	8	[0, 0, 0]	n/a	catFR1	2	R1498D
1083.231	0.0	1116141	COUNTDOWN_END	n/a	n/a	n/a	n/a	-999	8	[0, 0, 0]	n/a	catFR1	2	R1498D
1083.231	1.832	1116141	ENCODING_START	n/a	n/a	n/a	n/a	-999	8	[0, 0, 0]	n/a	catFR1	2	R1498D
1085.063	1.6	1117974	WORD	n/a	wordpools/wordpool_categorized_EN.txt	CYPRESS	Trees	1	8	[0, 0, 0]	n/a	catFR1	2	R1498D
1086.68	0.983	1119595	WORD_OFF	n/a	n/a	CYPRESS	Trees	1	8	[0, 0, 0]	n/a	catFR1	2	R1498D
1087.663	1.6	1120578	WORD	n/a	wordpools/wordpool_categorized_EN.txt	MAPLE	Trees	2	8	[0, 0, 0]	n/a	catFR1	2	R1498D
1089.263	1.0	1122172	WORD_OFF	n/a	n/a	MAPLE	Trees	2	8	[0, 0, 0]	n/a	catFR1	2	R1498D
1090.263	1.6	1123173	WORD	n/a	wordpools/wordpool_categorized_EN.txt	FINCH	Birds	3	8	[0, 0, 0]	n/a	catFR1	2	R1498D
1091.881	0.833	1124794	WORD_OFF	n/a	n/a	FINCH	Birds	3	8	[0, 0, 0]	n/a	catFR1	2	R1498D
1092.714	1.6	1125627	WORD	n/a	wordpools/wordpool_categorized_EN.txt	SPARROW	Birds	4	8	[0, 0, 0]	n/a	catFR1	2	R1498D
1094.314	0.816	1127221	WORD_OFF	n/a	n/a	SPARROW	Birds	4	8	[0, 0, 0]	n/a	catFR1	2	R1498D
1095.13	1.6	1128045	WORD	n/a	wordpools/wordpool_categorized_EN.txt	HEAD	BodyParts	5	8	[0, 0, 0]	n/a	catFR1	2	R1498D
1096.731	0.848	1129639	WORD_OFF	n/a	n/a	HEAD	BodyParts	5	8	[0, 0, 0]	n/a	catFR1	2	R1498D
1097.579	1.6	1130489	WORD	n/a	wordpools/wordpool_categorized_EN.txt	ELBOW	BodyParts	6	8	[0, 0, 0]	n/a	catFR1	2	R1498D
1099.18	0.95	1132092	WORD_OFF	n/a	n/a	ELBOW	BodyParts	6	8	[0, 0, 0]	n/a	catFR1	2	R1498D
1100.13	1.6	1133040	WORD	n/a	wordpools/wordpool_categorized_EN.txt	DUCK	Birds	7	8	[0, 0, 0]	n/a	catFR1	2	R1498D
1101.731	0.783	1134643	WORD_OFF	n/a	n/a	DUCK	Birds	7	8	[0, 0, 0]	n/a	catFR1	2	R1498D
1102.514	1.6	1135423	WORD	n/a	wordpools/wordpool_categorized_EN.txt	GOOSE	Birds	8	8	[0, 0, 0]	n/a	catFR1	2	R1498D
1104.131	0.85	1137043	WORD_OFF	n/a	n/a	GOOSE	Birds	8	8	[0, 0, 0]	n/a	catFR1	2	R1498D
1104.981	1.6	1137894	WORD	n/a	wordpools/wordpool_categorized_EN.txt	WALNUT	Trees	9	8	[0, 0, 0]	n/a	catFR1	2	R1498D
1106.597	0.951	1139506	WORD_OFF	n/a	n/a	WALNUT	Trees	9	8	[0, 0, 0]	n/a	catFR1	2	R1498D
1107.548	1.6	1140453	WORD	n/a	wordpools/wordpool_categorized_EN.txt	PINE	Trees	10	8	[0, 0, 0]	n/a	catFR1	2	R1498D
1109.164	0.999	1142074	WORD_OFF	n/a	n/a	PINE	Trees	10	8	[0, 0, 0]	n/a	catFR1	2	R1498D
1110.163	1.6	1143075	WORD	n/a	wordpools/wordpool_categorized_EN.txt	LEG	BodyParts	11	8	[0, 0, 0]	n/a	catFR1	2	R1498D
1111.763	0.934	1144669	WORD_OFF	n/a	n/a	LEG	BodyParts	11	8	[0, 0, 0]	n/a	catFR1	2	R1498D
1112.697	1.6	1145608	WORD	n/a	wordpools/wordpool_categorized_EN.txt	EAR	BodyParts	12	8	[0, 0, 0]	n/a	catFR1	2	R1498D
1114.314	0.0	1147220	WORD_OFF	n/a	n/a	EAR	BodyParts	12	8	[0, 0, 0]	n/a	catFR1	2	R1498D
1114.314	0.004	1147221	PROB	8.633	n/a	n/a	n/a	-999	8	[5, 7, 1]	13.0	catFR1	2	R1498D
1114.318	0.0	1147225	START	n/a	n/a	n/a	n/a	-999	8	[-999, -999, -999]	n/a	catFR1	2	R1498D
1114.318	0.0	1147229	ENCODING_END	n/a	n/a	n/a	n/a	-999	8	[0, 0, 0]	n/a	catFR1	2	R1498D
1114.318	8.647	1147229	DISTRACT_START	n/a	n/a	n/a	n/a	-999	8	[0, 0, 0]	n/a	catFR1	2	R1498D
1122.965	3.882	1155872	PROB	3.865	n/a	n/a	n/a	-999	8	[7, 7, 1]	15.0	catFR1	2	R1498D
1126.847	3.951	1159754	PROB	3.933	n/a	n/a	n/a	-999	8	[4, 1, 2]	7.0	catFR1	2	R1498D
1130.798	9.066	1163704	PROB	9.049	n/a	n/a	n/a	-999	8	[4, 8, 3]	15.0	catFR1	2	R1498D
1139.864	0.0	1172770	STOP	n/a	n/a	n/a	n/a	-999	8	[-999, -999, -999]	n/a	catFR1	2	R1498D
1139.864	2.166	1172773	DISTRACT_END	n/a	n/a	n/a	n/a	-999	8	[0, 0, 0]	n/a	catFR1	2	R1498D
1142.03	1.979	1174942	REC_START	n/a	n/a	n/a	n/a	-999	8	[0, 0, 0]	n/a	catFR1	2	R1498D
1144.009	0.528	1176915	REC_WORD	1.979	n/a	WALNUT	Trees	9	8	[0, 0, 0]	n/a	catFR1	2	R1498D
1144.537	2.994	1177443	REC_WORD	2.507	n/a	CYPRESS	Trees	1	8	[0, 0, 0]	n/a	catFR1	2	R1498D
1147.531	9.068	1180437	REC_WORD	5.501	n/a	PINE	Trees	10	8	[0, 0, 0]	n/a	catFR1	2	R1498D
1156.599	15.639	1189504	REC_WORD	14.569	n/a	OAK	Trees	-999	8	[0, 0, 0]	n/a	catFR1	2	R1498D
1172.238	5.893	1205146	REC_END	n/a	n/a	n/a	n/a	-999	8	[0, 0, 0]	n/a	catFR1	2	R1498D
1178.131	10.0	1211036	COUNTDOWN_START	n/a	n/a	n/a	n/a	-999	9	[0, 0, 0]	n/a	catFR1	2	R1498D
1188.48	0.001	1221390	COUNTDOWN_END	n/a	n/a	n/a	n/a	-999	9	[0, 0, 0]	n/a	catFR1	2	R1498D
1188.481	2.133	1221390	ENCODING_START	n/a	n/a	n/a	n/a	-999	9	[0, 0, 0]	n/a	catFR1	2	R1498D
1190.614	1.6	1223516	WORD	n/a	wordpools/wordpool_categorized_EN.txt	CELLO	Instruments	1	9	[0, 0, 0]	n/a	catFR1	2	R1498D
1192.214	0.883	1225119	WORD_OFF	n/a	n/a	CELLO	Instruments	1	9	[0, 0, 0]	n/a	catFR1	2	R1498D
1193.097	1.6	1226005	WORD	n/a	wordpools/wordpool_categorized_EN.txt	TROMBONE	Instruments	2	9	[0, 0, 0]	n/a	catFR1	2	R1498D
1194.697	0.933	1227599	WORD_OFF	n/a	n/a	TROMBONE	Instruments	2	9	[0, 0, 0]	n/a	catFR1	2	R1498D
1195.63	1.6	1228538	WORD	n/a	wordpools/wordpool_categorized_EN.txt	NOSE	BodyParts	3	9	[0, 0, 0]	n/a	catFR1	2	R1498D
1197.23	0.901	1230132	WORD_OFF	n/a	n/a	NOSE	BodyParts	3	9	[0, 0, 0]	n/a	catFR1	2	R1498D
1198.131	1.6	1231035	WORD	n/a	wordpools/wordpool_categorized_EN.txt	KNEE	BodyParts	4	9	[0, 0, 0]	n/a	catFR1	2	R1498D
1199.731	0.916	1232639	WORD_OFF	n/a	n/a	KNEE	BodyParts	4	9	[0, 0, 0]	n/a	catFR1	2	R1498D
1200.647	1.6	1233551	WORD	n/a	wordpools/wordpool_categorized_EN.txt	GORILLA	Zoo	5	9	[0, 0, 0]	n/a	catFR1	2	R1498D
1202.247	0.783	1235154	WORD_OFF	n/a	n/a	GORILLA	Zoo	5	9	[0, 0, 0]	n/a	catFR1	2	R1498D
1203.03	1.6	1235933	WORD	n/a	wordpools/wordpool_categorized_EN.txt	ZEBRA	Zoo	6	9	[0, 0, 0]	n/a	catFR1	2	R1498D
1204.63	0.934	1237537	WORD_OFF	n/a	n/a	ZEBRA	Zoo	6	9	[0, 0, 0]	n/a	catFR1	2	R1498D
1205.564	1.6	1238467	WORD	n/a	wordpools/wordpool_categorized_EN.txt	TOE	BodyParts	7	9	[0, 0, 0]	n/a	catFR1	2	R1498D
1207.164	0.849	1240070	WORD_OFF	n/a	n/a	TOE	BodyParts	7	9	[0, 0, 0]	n/a	catFR1	2	R1498D
1208.013	1.6	1240920	WORD	n/a	wordpools/wordpool_categorized_EN.txt	FINGERS	BodyParts	8	9	[0, 0, 0]	n/a	catFR1	2	R1498D
1209.614	0.949	1242514	WORD_OFF	n/a	n/a	FINGERS	BodyParts	8	9	[0, 0, 0]	n/a	catFR1	2	R1498D
1210.563	1.6	1243471	WORD	n/a	wordpools/wordpool_categorized_EN.txt	VIOLIN	Instruments	9	9	[0, 0, 0]	n/a	catFR1	2	R1498D
1212.163	0.951	1245065	WORD_OFF	n/a	n/a	VIOLIN	Instruments	9	9	[0, 0, 0]	n/a	catFR1	2	R1498D
1213.114	1.6	1246022	WORD	n/a	wordpools/wordpool_categorized_EN.txt	DRUM	Instruments	10	9	[0, 0, 0]	n/a	catFR1	2	R1498D
1214.714	0.95	1247616	WORD_OFF	n/a	n/a	DRUM	Instruments	10	9	[0, 0, 0]	n/a	catFR1	2	R1498D
1215.664	1.6	1248573	WORD	n/a	wordpools/wordpool_categorized_EN.txt	CHIMPANZEE	Zoo	11	9	[0, 0, 0]	n/a	catFR1	2	R1498D
1217.264	0.783	1250167	WORD_OFF	n/a	n/a	CHIMPANZEE	Zoo	11	9	[0, 0, 0]	n/a	catFR1	2	R1498D
1218.047	1.6	1250955	WORD	n/a	wordpools/wordpool_categorized_EN.txt	TIGER	Zoo	12	9	[0, 0, 0]	n/a	catFR1	2	R1498D
1219.664	0.0	1252566	START	n/a	n/a	n/a	n/a	-999	9	[-999, -999, -999]	n/a	catFR1	2	R1498D
1219.664	0.0	1252566	PROB	5.083	n/a	n/a	n/a	-999	9	[6, 2, 2]	10.0	catFR1	2	R1498D
1219.663	0.001	1252567	WORD_OFF	n/a	n/a	TIGER	Zoo	12	9	[0, 0, 0]	n/a	catFR1	2	R1498D
1219.664	0.0	1252567	ENCODING_END	n/a	n/a	n/a	n/a	-999	9	[0, 0, 0]	n/a	catFR1	2	R1498D
1219.664	5.101	1252567	DISTRACT_START	n/a	n/a	n/a	n/a	-999	9	[0, 0, 0]	n/a	catFR1	2	R1498D
1224.765	3.582	1257666	PROB	3.566	n/a	n/a	n/a	-999	9	[2, 8, 1]	11.0	catFR1	2	R1498D
1228.347	7.551	1261248	PROB	7.532	n/a	n/a	n/a	-999	9	[2, 5, 7]	14.0	catFR1	2	R1498D
1235.898	5.915	1268799	PROB	5.899	n/a	n/a	n/a	-999	9	[3, 8, 4]	15.0	catFR1	2	R1498D
1241.813	0.0	1274713	STOP	n/a	n/a	n/a	n/a	-999	9	[-999, -999, -999]	n/a	catFR1	2	R1498D
1241.813	2.384	1274719	DISTRACT_END	n/a	n/a	n/a	n/a	-999	9	[0, 0, 0]	n/a	catFR1	2	R1498D
1244.197	0.871	1277100	REC_START	n/a	n/a	n/a	n/a	-999	9	[0, 0, 0]	n/a	catFR1	2	R1498D
1245.068	1.331	1277968	REC_WORD	0.871	n/a	CHIMPANZEE	Zoo	11	9	[0, 0, 0]	n/a	catFR1	2	R1498D
1246.399	5.656	1279299	REC_WORD	2.202	n/a	BEAR	Zoo	-999	9	[0, 0, 0]	n/a	catFR1	2	R1498D
1252.055	5.409	1284955	REC_WORD	7.858	n/a	TIGER	Zoo	12	9	[0, 0, 0]	n/a	catFR1	2	R1498D
1257.464	16.927	1290364	REC_WORD	13.267	n/a	GORILLA	Zoo	5	9	[0, 0, 0]	n/a	catFR1	2	R1498D
1274.391	2.072	1307295	REC_END	n/a	n/a	n/a	n/a	-999	9	[0, 0, 0]	n/a	catFR1	2	R1498D
1276.463	10.0	1309368	COUNTDOWN_START	n/a	n/a	n/a	n/a	-999	10	[0, 0, 0]	n/a	catFR1	2	R1498D
1286.814	0.0	1319713	COUNTDOWN_END	n/a	n/a	n/a	n/a	-999	10	[0, 0, 0]	n/a	catFR1	2	R1498D
1286.814	1.866	1319713	ENCODING_START	n/a	n/a	n/a	n/a	-999	10	[0, 0, 0]	n/a	catFR1	2	R1498D
1288.68	1.6	1321582	WORD	n/a	wordpools/wordpool_categorized_EN.txt	WINE	Beverages	1	10	[0, 0, 0]	n/a	catFR1	2	R1498D
1290.28	0.784	1323176	WORD_OFF	n/a	n/a	WINE	Beverages	1	10	[0, 0, 0]	n/a	catFR1	2	R1498D
1291.064	1.6	1323964	WORD	n/a	wordpools/wordpool_categorized_EN.txt	MILK	Beverages	2	10	[0, 0, 0]	n/a	catFR1	2	R1498D
1292.664	0.866	1325568	WORD_OFF	n/a	n/a	MILK	Beverages	2	10	[0, 0, 0]	n/a	catFR1	2	R1498D
1293.53	1.6	1326427	WORD	n/a	wordpools/wordpool_categorized_EN.txt	SHIRT	Clothing	3	10	[0, 0, 0]	n/a	catFR1	2	R1498D
1295.13	0.951	1328030	WORD_OFF	n/a	n/a	SHIRT	Clothing	3	10	[0, 0, 0]	n/a	catFR1	2	R1498D
1296.081	1.6	1328978	WORD	n/a	wordpools/wordpool_categorized_EN.txt	COAT	Clothing	4	10	[0, 0, 0]	n/a	catFR1	2	R1498D
1297.68	0.901	1330581	WORD_OFF	n/a	n/a	COAT	Clothing	4	10	[0, 0, 0]	n/a	catFR1	2	R1498D
1298.581	1.6	1331484	WORD	n/a	wordpools/wordpool_categorized_EN.txt	ELM	Trees	5	10	[0, 0, 0]	n/a	catFR1	2	R1498D
1300.196	0.801	1333096	WORD_OFF	n/a	n/a	ELM	Trees	5	10	[0, 0, 0]	n/a	catFR1	2	R1498D
1300.997	1.6	1333893	WORD	n/a	wordpools/wordpool_categorized_EN.txt	CEDAR	Trees	6	10	[0, 0, 0]	n/a	catFR1	2	R1498D
1302.614	0.817	1335514	WORD_OFF	n/a	n/a	CEDAR	Trees	6	10	[0, 0, 0]	n/a	catFR1	2	R1498D
1303.431	1.6	1336329	WORD	n/a	wordpools/wordpool_categorized_EN.txt	SKIRT	Clothing	7	10	[0, 0, 0]	n/a	catFR1	2	R1498D
1305.031	0.95	1337932	WORD_OFF	n/a	n/a	SKIRT	Clothing	7	10	[0, 0, 0]	n/a	catFR1	2	R1498D
1305.981	1.6	1338880	WORD	n/a	wordpools/wordpool_categorized_EN.txt	BLOUSE	Clothing	8	10	[0, 0, 0]	n/a	catFR1	2	R1498D
1307.597	1.0	1340501	WORD_OFF	n/a	n/a	BLOUSE	Clothing	8	10	[0, 0, 0]	n/a	catFR1	2	R1498D
1308.597	1.6	1341502	WORD	n/a	wordpools/wordpool_categorized_EN.txt	WILLOW	Trees	9	10	[0, 0, 0]	n/a	catFR1	2	R1498D
1310.197	0.884	1343096	WORD_OFF	n/a	n/a	WILLOW	Trees	9	10	[0, 0, 0]	n/a	catFR1	2	R1498D
1311.081	1.6	1343982	WORD	n/a	wordpools/wordpool_categorized_EN.txt	HICKORY	Trees	10	10	[0, 0, 0]	n/a	catFR1	2	R1498D
1312.697	0.983	1345594	WORD_OFF	n/a	n/a	HICKORY	Trees	10	10	[0, 0, 0]	n/a	catFR1	2	R1498D
1313.68	1.6	1346577	WORD	n/a	wordpools/wordpool_categorized_EN.txt	COFFEE	Beverages	11	10	[0, 0, 0]	n/a	catFR1	2	R1498D
1315.28	0.934	1348180	WORD_OFF	n/a	n/a	COFFEE	Beverages	11	10	[0, 0, 0]	n/a	catFR1	2	R1498D
1316.214	1.6	1349110	WORD	n/a	wordpools/wordpool_categorized_EN.txt	TEA	Beverages	12	10	[0, 0, 0]	n/a	catFR1	2	R1498D
1317.815	0.0	1350711	START	n/a	n/a	n/a	n/a	-999	10	[-999, -999, -999]	n/a	catFR1	2	R1498D
1317.815	0.0	1350711	PROB	18.599	n/a	n/a	n/a	-999	10	[8, 8, 7]	24.0	catFR1	2	R1498D
1317.814	0.001	1350713	WORD_OFF	n/a	n/a	TEA	Beverages	12	10	[0, 0, 0]	n/a	catFR1	2	R1498D
1317.815	0.0	1350713	ENCODING_END	n/a	n/a	n/a	n/a	-999	10	[0, 0, 0]	n/a	catFR1	2	R1498D
1317.815	18.616	1350713	DISTRACT_START	n/a	n/a	n/a	n/a	-999	10	[0, 0, 0]	n/a	catFR1	2	R1498D
1336.431	7.349	1369326	PROB	7.333	n/a	n/a	n/a	-999	10	[2, 4, 8]	14.0	catFR1	2	R1498D
1343.78	0.0	1376673	DISTRACT_END	n/a	n/a	n/a	n/a	-999	10	[0, 0, 0]	n/a	catFR1	2	R1498D
1343.78	2.251	1376675	STOP	n/a	n/a	n/a	n/a	-999	10	[-999, -999, -999]	n/a	catFR1	2	R1498D
1346.031	1.077	1378931	REC_START	n/a	n/a	n/a	n/a	-999	10	[0, 0, 0]	n/a	catFR1	2	R1498D
1347.108	2.549	1380003	REC_WORD	1.077	n/a	HICKORY	Trees	10	10	[0, 0, 0]	n/a	catFR1	2	R1498D
1349.657	4.282	1382552	REC_WORD	3.626	n/a	OAK	Trees	-999	10	[0, 0, 0]	n/a	catFR1	2	R1498D
1353.939	22.3	1386833	REC_WORD	7.908	n/a	ELM	Trees	5	10	[0, 0, 0]	n/a	catFR1	2	R1498D
1376.239	19.274	1409135	REC_END	n/a	n/a	n/a	n/a	-999	10	[0, 0, 0]	n/a	catFR1	2	R1498D
1395.513	10.0	1428408	COUNTDOWN_START	n/a	n/a	n/a	n/a	-999	11	[0, 0, 0]	n/a	catFR1	2	R1498D
1405.864	0.0	1438753	COUNTDOWN_END	n/a	n/a	n/a	n/a	-999	11	[0, 0, 0]	n/a	catFR1	2	R1498D
1405.864	2.2	1438762	ENCODING_START	n/a	n/a	n/a	n/a	-999	11	[0, 0, 0]	n/a	catFR1	2	R1498D
1408.064	1.6	1440958	WORD	n/a	wordpools/wordpool_categorized_EN.txt	BANJO	Instruments	1	11	[0, 0, 0]	n/a	catFR1	2	R1498D
1409.68	1.001	1442579	WORD_OFF	n/a	n/a	BANJO	Instruments	1	11	[0, 0, 0]	n/a	catFR1	2	R1498D
1410.681	1.6	1443571	WORD	n/a	wordpools/wordpool_categorized_EN.txt	GUITAR	Instruments	2	11	[0, 0, 0]	n/a	catFR1	2	R1498D
1412.281	0.98	1445174	WORD_OFF	n/a	n/a	GUITAR	Instruments	2	11	[0, 0, 0]	n/a	catFR1	2	R1498D
1413.261	1.6	1446158	WORD	n/a	wordpools/wordpool_categorized_EN.txt	WHALE	OceanAnimals	3	11	[0, 0, 0]	n/a	catFR1	2	R1498D
1414.863	0.834	1447753	WORD_OFF	n/a	n/a	WHALE	OceanAnimals	3	11	[0, 0, 0]	n/a	catFR1	2	R1498D
1415.697	1.6	1448593	WORD	n/a	wordpools/wordpool_categorized_EN.txt	SQUID	OceanAnimals	4	11	[0, 0, 0]	n/a	catFR1	2	R1498D
1417.314	0.783	1450205	WORD_OFF	n/a	n/a	SQUID	OceanAnimals	4	11	[0, 0, 0]	n/a	catFR1	2	R1498D
1418.097	1.6	1450994	WORD	n/a	wordpools/wordpool_categorized_EN.txt	SHELF	Furniture	5	11	[0, 0, 0]	n/a	catFR1	2	R1498D
1419.697	0.9	1452588	WORD_OFF	n/a	n/a	SHELF	Furniture	5	11	[0, 0, 0]	n/a	catFR1	2	R1498D
1420.597	1.6	1453491	WORD	n/a	wordpools/wordpool_categorized_EN.txt	NIGHTSTAND	Furniture	6	11	[0, 0, 0]	n/a	catFR1	2	R1498D
1422.197	0.899	1455094	WORD_OFF	n/a	n/a	NIGHTSTAND	Furniture	6	11	[0, 0, 0]	n/a	catFR1	2	R1498D
1423.096	1.6	1455989	WORD	n/a	wordpools/wordpool_categorized_EN.txt	BASS	Instruments	7	11	[0, 0, 0]	n/a	catFR1	2	R1498D
1424.697	0.899	1457592	WORD_OFF	n/a	n/a	BASS	Instruments	7	11	[0, 0, 0]	n/a	catFR1	2	R1498D
1425.596	1.6	1458487	WORD	n/a	wordpools/wordpool_categorized_EN.txt	ORGAN	Instruments	8	11	[0, 0, 0]	n/a	catFR1	2	R1498D
1427.197	1.0	1460090	WORD_OFF	n/a	n/a	ORGAN	Instruments	8	11	[0, 0, 0]	n/a	catFR1	2	R1498D
1428.197	1.6	1461091	WORD	n/a	wordpools/wordpool_categorized_EN.txt	JELLYFISH	OceanAnimals	9	11	[0, 0, 0]	n/a	catFR1	2	R1498D
1429.797	0.8	1462694	WORD_OFF	n/a	n/a	JELLYFISH	OceanAnimals	9	11	[0, 0, 0]	n/a	catFR1	2	R1498D
1430.597	1.6	1463491	WORD	n/a	wordpools/wordpool_categorized_EN.txt	PLANKTON	OceanAnimals	10	11	[0, 0, 0]	n/a	catFR1	2	R1498D
1432.213	0.9	1465103	WORD_OFF	n/a	n/a	PLANKTON	OceanAnimals	10	11	[0, 0, 0]	n/a	catFR1	2	R1498D
1433.113	1.6	1466006	WORD	n/a	wordpools/wordpool_categorized_EN.txt	SOFA	Furniture	11	11	[0, 0, 0]	n/a	catFR1	2	R1498D
1434.729	0.951	1467618	WORD_OFF	n/a	n/a	SOFA	Furniture	11	11	[0, 0, 0]	n/a	catFR1	2	R1498D
1435.68	1.6	1468575	WORD	n/a	wordpools/wordpool_categorized_EN.txt	COUCH	Furniture	12	11	[0, 0, 0]	n/a	catFR1	2	R1498D
1437.296	0.001	1470187	WORD_OFF	n/a	n/a	COUCH	Furniture	12	11	[0, 0, 0]	n/a	catFR1	2	R1498D
1437.297	0.0	1470187	ENCODING_END	n/a	n/a	n/a	n/a	-999	11	[0, 0, 0]	n/a	catFR1	2	R1498D
1437.297	0.0	1470187	PROB	3.8	n/a	n/a	n/a	-999	11	[2, 2, 2]	6.0	catFR1	2	R1498D
1437.297	0.0	1470187	START	n/a	n/a	n/a	n/a	-999	11	[-999, -999, -999]	n/a	catFR1	2	R1498D
1437.297	3.816	1470196	DISTRACT_START	n/a	n/a	n/a	n/a	-999	11	[0, 0, 0]	n/a	catFR1	2	R1498D
1441.113	43.2	1474003	PROB	43.183	n/a	n/a	n/a	-999	11	[5, 7, 8]	16.0	catFR1	2	R1498D
1484.313	0.0	1517200	STOP	n/a	n/a	n/a	n/a	-999	11	[-999, -999, -999]	n/a	catFR1	2	R1498D
1484.313	2.034	1517201	DISTRACT_END	n/a	n/a	n/a	n/a	-999	11	[0, 0, 0]	n/a	catFR1	2	R1498D
1486.347	16.14	1519237	REC_START	n/a	n/a	n/a	n/a	-999	11	[0, 0, 0]	n/a	catFR1	2	R1498D
1502.487	14.057	1535374	REC_WORD	16.14	n/a	PLANKTON	OceanAnimals	10	11	[0, 0, 0]	n/a	catFR1	2	R1498D
1516.544	6.487	1549432	REC_END	n/a	n/a	n/a	n/a	-999	11	[0, 0, 0]	n/a	catFR1	2	R1498D
1523.031	10.0	1555924	COUNTDOWN_START	n/a	n/a	n/a	n/a	-999	12	[0, 0, 0]	n/a	catFR1	2	R1498D
1533.381	0.0	1566269	COUNTDOWN_END	n/a	n/a	n/a	n/a	-999	12	[0, 0, 0]	n/a	catFR1	2	R1498D
1533.381	2.065	1566269	ENCODING_START	n/a	n/a	n/a	n/a	-999	12	[0, 0, 0]	n/a	catFR1	2	R1498D
1535.446	1.6	1568333	WORD	n/a	wordpools/wordpool_categorized_EN.txt	PHONE	Electronics	1	12	[0, 0, 0]	n/a	catFR1	2	R1498D
1537.047	0.934	1569936	WORD_OFF	n/a	n/a	PHONE	Electronics	1	12	[0, 0, 0]	n/a	catFR1	2	R1498D
1537.981	1.6	1570866	WORD	n/a	wordpools/wordpool_categorized_EN.txt	SPEAKER	Electronics	2	12	[0, 0, 0]	n/a	catFR1	2	R1498D
1539.581	0.983	1572469	WORD_OFF	n/a	n/a	SPEAKER	Electronics	2	12	[0, 0, 0]	n/a	catFR1	2	R1498D
1540.564	1.6	1573452	WORD	n/a	wordpools/wordpool_categorized_EN.txt	DRESS	Clothing	3	12	[0, 0, 0]	n/a	catFR1	2	R1498D
1542.164	1.0	1575047	WORD_OFF	n/a	n/a	DRESS	Clothing	3	12	[0, 0, 0]	n/a	catFR1	2	R1498D
1543.164	1.6	1576047	WORD	n/a	wordpools/wordpool_categorized_EN.txt	JEANS	Clothing	4	12	[0, 0, 0]	n/a	catFR1	2	R1498D
1544.764	0.85	1577651	WORD_OFF	n/a	n/a	JEANS	Clothing	4	12	[0, 0, 0]	n/a	catFR1	2	R1498D
1545.614	1.6	1578501	WORD	n/a	wordpools/wordpool_categorized_EN.txt	DESK	Furniture	5	12	[0, 0, 0]	n/a	catFR1	2	R1498D
1547.23	1.0	1580113	WORD_OFF	n/a	n/a	DESK	Furniture	5	12	[0, 0, 0]	n/a	catFR1	2	R1498D
1548.23	1.6	1581114	WORD	n/a	wordpools/wordpool_categorized_EN.txt	DRESSER	Furniture	6	12	[0, 0, 0]	n/a	catFR1	2	R1498D
1549.83	0.767	1582717	WORD_OFF	n/a	n/a	DRESSER	Furniture	6	12	[0, 0, 0]	n/a	catFR1	2	R1498D
1550.597	1.6	1583487	WORD	n/a	wordpools/wordpool_categorized_EN.txt	SOCKS	Clothing	7	12	[0, 0, 0]	n/a	catFR1	2	R1498D
1552.214	0.983	1585099	WORD_OFF	n/a	n/a	SOCKS	Clothing	7	12	[0, 0, 0]	n/a	catFR1	2	R1498D
1553.197	1.6	1586083	WORD	n/a	wordpools/wordpool_categorized_EN.txt	SHORTS	Clothing	8	12	[0, 0, 0]	n/a	catFR1	2	R1498D
1554.797	0.884	1587686	WORD_OFF	n/a	n/a	SHORTS	Clothing	8	12	[0, 0, 0]	n/a	catFR1	2	R1498D
1555.681	1.6	1588563	WORD	n/a	wordpools/wordpool_categorized_EN.txt	BOOKCASE	Furniture	9	12	[0, 0, 0]	n/a	catFR1	2	R1498D
1557.297	0.8	1590183	WORD_OFF	n/a	n/a	BOOKCASE	Furniture	9	12	[0, 0, 0]	n/a	catFR1	2	R1498D
1558.097	1.6	1590981	WORD	n/a	wordpools/wordpool_categorized_EN.txt	CABINET	Furniture	10	12	[0, 0, 0]	n/a	catFR1	2	R1498D
1559.697	0.917	1592584	WORD_OFF	n/a	n/a	CABINET	Furniture	10	12	[0, 0, 0]	n/a	catFR1	2	R1498D
1560.614	1.6	1593496	WORD	n/a	wordpools/wordpool_categorized_EN.txt	TELEVISION	Electronics	11	12	[0, 0, 0]	n/a	catFR1	2	R1498D
1562.231	0.864	1595117	WORD_OFF	n/a	n/a	TELEVISION	Electronics	11	12	[0, 0, 0]	n/a	catFR1	2	R1498D
1563.095	1.6	1595976	WORD	n/a	wordpools/wordpool_categorized_EN.txt	SCANNER	Electronics	12	12	[0, 0, 0]	n/a	catFR1	2	R1498D
1564.697	0.0	1597579	WORD_OFF	n/a	n/a	SCANNER	Electronics	12	12	[0, 0, 0]	n/a	catFR1	2	R1498D
1564.697	0.001	1597580	PROB	6.366	n/a	n/a	n/a	-999	12	[5, 7, 2]	14.0	catFR1	2	R1498D
1564.698	0.0	1597581	START	n/a	n/a	n/a	n/a	-999	12	[-999, -999, -999]	n/a	catFR1	2	R1498D
1564.698	0.0	1597588	ENCODING_END	n/a	n/a	n/a	n/a	-999	12	[0, 0, 0]	n/a	catFR1	2	R1498D
1564.698	6.383	1597588	DISTRACT_START	n/a	n/a	n/a	n/a	-999	12	[0, 0, 0]	n/a	catFR1	2	R1498D
1571.081	3.617	1603964	PROB	3.599	n/a	n/a	n/a	-999	12	[3, 3, 1]	7.0	catFR1	2	R1498D
1574.698	5.516	1607581	PROB	5.498	n/a	n/a	n/a	-999	12	[4, 8, 8]	20.0	catFR1	2	R1498D
1580.214	7.033	1613096	PROB	7.016	n/a	n/a	n/a	-999	12	[4, 6, 6]	16.0	catFR1	2	R1498D
1587.247	0.0	1620129	DISTRACT_END	n/a	n/a	n/a	n/a	-999	12	[0, 0, 0]	n/a	catFR1	2	R1498D
1587.247	2.132	1620129	STOP	n/a	n/a	n/a	n/a	-999	12	[-999, -999, -999]	n/a	catFR1	2	R1498D
1589.379	13.896	1622263	REC_START	n/a	n/a	n/a	n/a	-999	12	[0, 0, 0]	n/a	catFR1	2	R1498D
1603.275	7.46	1636156	REC_WORD	13.896	n/a	SCANNER	Electronics	12	12	[0, 0, 0]	n/a	catFR1	2	R1498D
1610.735	6.164	1643616	REC_WORD	21.356	n/a	BASS	Instruments	-999	12	[0, 0, 0]	n/a	catFR1	2	R1498D
1616.899	2.697	1649779	REC_WORD	27.52	n/a	GUITAR	Instruments	-999	12	[0, 0, 0]	n/a	catFR1	2	R1498D
1619.596	0.0	1652476	REC_END	n/a	n/a	n/a	n/a	-999	12	[0, 0, 0]	n/a	catFR1	2	R1498D
