onset	duration	sample	trial_type	response_time	stim_file	item_name	category	serialpos	list	test	answer	experiment	session	subject
0.0	6.2	17485	INSTRUCT_START	n/a	n/a	n/a	n/a	-999	-999	[0, 0, 0]	n/a	catFR1	1	R1472T
6.2	59.064	23688	INSTRUCT_END	n/a	n/a	n/a	n/a	-999	-999	[0, 0, 0]	n/a	catFR1	1	R1472T
65.264	10.0	82745	COUNTDOWN_START	n/a	n/a	n/a	n/a	-999	-999	[0, 0, 0]	n/a	catFR1	1	R1472T
75.614	0.0	93102	COUNTDOWN_END	n/a	n/a	n/a	n/a	-999	-999	[0, 0, 0]	n/a	catFR1	1	R1472T
75.614	2.216	93102	ENCODING_START	n/a	n/a	n/a	n/a	-999	-1	[0, 0, 0]	n/a	catFR1	1	R1472T
77.83	1.6	95311	WORD	n/a	n/a	FISH	OceanAnimals	1	-1	[0, 0, 0]	n/a	catFR1	1	R1472T
79.447	0.8	96924	WORD_OFF	n/a	n/a	FISH	OceanAnimals	1	-1	[0, 0, 0]	n/a	catFR1	1	R1472T
80.247	1.6	97731	WORD	n/a	n/a	CRAB	OceanAnimals	2	-1	[0, 0, 0]	n/a	catFR1	1	R1472T
81.863	0.917	99345	WORD_OFF	n/a	n/a	CRAB	OceanAnimals	2	-1	[0, 0, 0]	n/a	catFR1	1	R1472T
82.78	1.6	100258	WORD	n/a	n/a	TURKEY	FarmAnimals	3	-1	[0, 0, 0]	n/a	catFR1	1	R1472T
84.397	0.983	101884	WORD_OFF	n/a	n/a	TURKEY	FarmAnimals	3	-1	[0, 0, 0]	n/a	catFR1	1	R1472T
85.38	1.6	102863	WORD	n/a	n/a	CALF	FarmAnimals	4	-1	[0, 0, 0]	n/a	catFR1	1	R1472T
86.997	0.766	104477	WORD_OFF	n/a	n/a	CALF	FarmAnimals	4	-1	[0, 0, 0]	n/a	catFR1	1	R1472T
87.763	1.6	105244	WORD	n/a	n/a	CAKE	Desserts	5	-1	[0, 0, 0]	n/a	catFR1	1	R1472T
89.38	0.867	106858	WORD_OFF	n/a	n/a	CAKE	Desserts	5	-1	[0, 0, 0]	n/a	catFR1	1	R1472T
90.247	1.6	107731	WORD	n/a	n/a	MOUSSE	Desserts	6	-1	[0, 0, 0]	n/a	catFR1	1	R1472T
91.863	0.817	109344	WORD_OFF	n/a	n/a	MOUSSE	Desserts	6	-1	[0, 0, 0]	n/a	catFR1	1	R1472T
92.68	1.6	110164	WORD	n/a	n/a	GOAT	FarmAnimals	7	-1	[0, 0, 0]	n/a	catFR1	1	R1472T
94.297	1.0	111778	WORD_OFF	n/a	n/a	GOAT	FarmAnimals	7	-1	[0, 0, 0]	n/a	catFR1	1	R1472T
95.297	1.6	112783	WORD	n/a	n/a	PIG	FarmAnimals	8	-1	[0, 0, 0]	n/a	catFR1	1	R1472T
96.912	0.835	114397	WORD_OFF	n/a	n/a	PIG	FarmAnimals	8	-1	[0, 0, 0]	n/a	catFR1	1	R1472T
97.747	1.6	115230	WORD	n/a	n/a	JELLO	Desserts	9	-1	[0, 0, 0]	n/a	catFR1	1	R1472T
99.347	0.849	116831	WORD_OFF	n/a	n/a	JELLO	Desserts	9	-1	[0, 0, 0]	n/a	catFR1	1	R1472T
100.196	1.6	117677	WORD	n/a	n/a	PUDDING	Desserts	10	-1	[0, 0, 0]	n/a	catFR1	1	R1472T
101.797	0.915	119278	WORD_OFF	n/a	n/a	PUDDING	Desserts	10	-1	[0, 0, 0]	n/a	catFR1	1	R1472T
102.712	1.6	120190	WORD	n/a	n/a	PLANKTON	OceanAnimals	11	-1	[0, 0, 0]	n/a	catFR1	1	R1472T
104.313	0.85	121791	WORD_OFF	n/a	n/a	PLANKTON	OceanAnimals	11	-1	[0, 0, 0]	n/a	catFR1	1	R1472T
105.163	1.6	122637	WORD	n/a	n/a	OYSTER	OceanAnimals	12	-1	[0, 0, 0]	n/a	catFR1	1	R1472T
106.763	0.001	124237	WORD_OFF	n/a	n/a	OYSTER	OceanAnimals	12	-1	[0, 0, 0]	n/a	catFR1	1	R1472T
106.764	0.002	124241	PROB	5.183	n/a	n/a	n/a	-999	-1	[3, 4, 6]	13.0	catFR1	1	R1472T
106.766	0.0	124243	START	n/a	n/a	n/a	n/a	-999	-1	[-999, -999, -999]	n/a	catFR1	1	R1472T
106.766	0.0	124251	ENCODING_END	n/a	n/a	n/a	n/a	-999	-1	[0, 0, 0]	n/a	catFR1	1	R1472T
106.766	5.198	124251	DISTRACT_START	n/a	n/a	n/a	n/a	-999	-1	[0, 0, 0]	n/a	catFR1	1	R1472T
111.964	3.517	129441	PROB	3.5	n/a	n/a	n/a	-999	-1	[1, 6, 2]	9.0	catFR1	1	R1472T
115.481	4.683	132958	PROB	4.666	n/a	n/a	n/a	-999	-1	[4, 8, 8]	20.0	catFR1	1	R1472T
120.164	4.116	137640	PROB	4.099	n/a	n/a	n/a	-999	-1	[6, 5, 4]	15.0	catFR1	1	R1472T
124.28	3.416	141756	PROB	3.398	n/a	n/a	n/a	-999	-1	[7, 3, 6]	16.0	catFR1	1	R1472T
127.696	0.0	145172	STOP	n/a	n/a	n/a	n/a	-999	-1	[-999, -999, -999]	n/a	catFR1	1	R1472T
127.696	2.301	145175	DISTRACT_END	n/a	n/a	n/a	n/a	-999	-1	[0, 0, 0]	n/a	catFR1	1	R1472T
129.997	1.474	147472	REC_START	n/a	n/a	n/a	n/a	-999	-1	[0, 0, 0]	n/a	catFR1	1	R1472T
131.471	0.17	148947	REC_WORD_VV	1.474	n/a	<>	n/a	-999	-1	[0, 0, 0]	n/a	catFR1	1	R1472T
131.641	0.986	149117	REC_WORD	1.644	n/a	FISH	OceanAnimals	1	-1	[0, 0, 0]	n/a	catFR1	1	R1472T
132.627	1.326	150103	REC_WORD	2.63	n/a	CRAB	OceanAnimals	2	-1	[0, 0, 0]	n/a	catFR1	1	R1472T
133.953	1.917	151429	REC_WORD	3.956	n/a	PLANKTON	OceanAnimals	11	-1	[0, 0, 0]	n/a	catFR1	1	R1472T
135.87	0.997	153346	REC_WORD_VV	5.873	n/a	<>	n/a	-999	-1	[0, 0, 0]	n/a	catFR1	1	R1472T
136.867	0.3	154343	REC_WORD_VV	6.87	n/a	<>	n/a	-999	-1	[0, 0, 0]	n/a	catFR1	1	R1472T
137.167	0.755	154642	REC_WORD	7.17	n/a	MOUSSE	Desserts	6	-1	[0, 0, 0]	n/a	catFR1	1	R1472T
137.922	2.35	155397	REC_WORD	7.925	n/a	CAKE	Desserts	5	-1	[0, 0, 0]	n/a	catFR1	1	R1472T
140.272	2.052	157747	REC_WORD_VV	10.275	n/a	<>	n/a	-999	-1	[0, 0, 0]	n/a	catFR1	1	R1472T
142.324	6.787	159799	REC_WORD	12.327	n/a	PIG	FarmAnimals	8	-1	[0, 0, 0]	n/a	catFR1	1	R1472T
149.111	9.192	166586	REC_WORD	19.114	n/a	COW	n/a	-999	-1	[0, 0, 0]	n/a	catFR1	1	R1472T
158.303	1.921	175777	REC_WORD	28.306	n/a	MOUSSE	Desserts	6	-1	[0, 0, 0]	n/a	catFR1	1	R1472T
160.224	8.39	177700	REC_END	n/a	n/a	n/a	n/a	-999	-1	[0, 0, 0]	n/a	catFR1	1	R1472T
168.614	10.0	186099	COUNTDOWN_START	n/a	n/a	n/a	n/a	-999	1	[0, 0, 0]	n/a	catFR1	1	R1472T
178.962	0.001	196442	COUNTDOWN_END	n/a	n/a	n/a	n/a	-999	1	[0, 0, 0]	n/a	catFR1	1	R1472T
178.963	2.134	196442	ENCODING_START	n/a	n/a	n/a	n/a	-999	1	[0, 0, 0]	n/a	catFR1	1	R1472T
181.097	1.6	198571	WORD	n/a	wordpools/wordpool_categorized_EN.txt	STREAM	Landscapes	1	1	[0, 0, 0]	n/a	catFR1	1	R1472T
182.713	0.9	200185	WORD_OFF	n/a	n/a	STREAM	Landscapes	1	1	[0, 0, 0]	n/a	catFR1	1	R1472T
183.613	1.6	201084	WORD	n/a	wordpools/wordpool_categorized_EN.txt	MOUNTAIN	Landscapes	2	1	[0, 0, 0]	n/a	catFR1	1	R1472T
185.213	0.95	202685	WORD_OFF	n/a	n/a	MOUNTAIN	Landscapes	2	1	[0, 0, 0]	n/a	catFR1	1	R1472T
186.163	1.6	203637	WORD	n/a	wordpools/wordpool_categorized_EN.txt	TROMBONE	Instruments	3	1	[0, 0, 0]	n/a	catFR1	1	R1472T
187.78	0.9	205251	WORD_OFF	n/a	n/a	TROMBONE	Instruments	3	1	[0, 0, 0]	n/a	catFR1	1	R1472T
188.68	1.6	206163	WORD	n/a	wordpools/wordpool_categorized_EN.txt	PIANO	Instruments	4	1	[0, 0, 0]	n/a	catFR1	1	R1472T
190.297	0.982	207777	WORD_OFF	n/a	n/a	PIANO	Instruments	4	1	[0, 0, 0]	n/a	catFR1	1	R1472T
191.279	1.6	208756	WORD	n/a	wordpools/wordpool_categorized_EN.txt	SATIN	Fabric	5	1	[0, 0, 0]	n/a	catFR1	1	R1472T
192.879	0.901	210356	WORD_OFF	n/a	n/a	SATIN	Fabric	5	1	[0, 0, 0]	n/a	catFR1	1	R1472T
193.78	1.6	211256	WORD	n/a	wordpools/wordpool_categorized_EN.txt	COTTON	Fabric	6	1	[0, 0, 0]	n/a	catFR1	1	R1472T
195.396	0.933	212869	WORD_OFF	n/a	n/a	COTTON	Fabric	6	1	[0, 0, 0]	n/a	catFR1	1	R1472T
196.329	1.6	213808	WORD	n/a	wordpools/wordpool_categorized_EN.txt	RIVER	Landscapes	7	1	[0, 0, 0]	n/a	catFR1	1	R1472T
197.929	0.85	215409	WORD_OFF	n/a	n/a	RIVER	Landscapes	7	1	[0, 0, 0]	n/a	catFR1	1	R1472T
198.779	1.6	216255	WORD	n/a	wordpools/wordpool_categorized_EN.txt	HILLS	Landscapes	8	1	[0, 0, 0]	n/a	catFR1	1	R1472T
200.38	0.983	217856	WORD_OFF	n/a	n/a	HILLS	Landscapes	8	1	[0, 0, 0]	n/a	catFR1	1	R1472T
201.363	1.6	218835	WORD	n/a	wordpools/wordpool_categorized_EN.txt	NYLON	Fabric	9	1	[0, 0, 0]	n/a	catFR1	1	R1472T
202.964	0.832	220435	WORD_OFF	n/a	n/a	NYLON	Fabric	9	1	[0, 0, 0]	n/a	catFR1	1	R1472T
203.796	1.6	221268	WORD	n/a	wordpools/wordpool_categorized_EN.txt	DENIM	Fabric	10	1	[0, 0, 0]	n/a	catFR1	1	R1472T
205.413	0.901	222883	WORD_OFF	n/a	n/a	DENIM	Fabric	10	1	[0, 0, 0]	n/a	catFR1	1	R1472T
206.314	1.6	223795	WORD	n/a	wordpools/wordpool_categorized_EN.txt	FLUTE	Instruments	11	1	[0, 0, 0]	n/a	catFR1	1	R1472T
207.93	0.849	225408	WORD_OFF	n/a	n/a	FLUTE	Instruments	11	1	[0, 0, 0]	n/a	catFR1	1	R1472T
208.779	1.6	226255	WORD	n/a	wordpools/wordpool_categorized_EN.txt	BANJO	Instruments	12	1	[0, 0, 0]	n/a	catFR1	1	R1472T
210.38	0.002	227852	PROB	3.983	n/a	n/a	n/a	-999	1	[3, 6, 4]	13.0	catFR1	1	R1472T
210.382	0.0	227854	START	n/a	n/a	n/a	n/a	-999	1	[-999, -999, -999]	n/a	catFR1	1	R1472T
210.38	0.002	227855	WORD_OFF	n/a	n/a	BANJO	Instruments	12	1	[0, 0, 0]	n/a	catFR1	1	R1472T
210.382	0.0	227855	ENCODING_END	n/a	n/a	n/a	n/a	-999	1	[0, 0, 0]	n/a	catFR1	1	R1472T
210.382	3.999	227855	DISTRACT_START	n/a	n/a	n/a	n/a	-999	1	[0, 0, 0]	n/a	catFR1	1	R1472T
214.381	4.883	231852	PROB	4.866	n/a	n/a	n/a	-999	1	[1, 1, 2]	4.0	catFR1	1	R1472T
219.264	3.834	236735	PROB	3.816	n/a	n/a	n/a	-999	1	[1, 7, 5]	13.0	catFR1	1	R1472T
223.098	3.216	240569	PROB	3.199	n/a	n/a	n/a	-999	1	[3, 8, 4]	15.0	catFR1	1	R1472T
226.314	3.534	243785	PROB	3.516	n/a	n/a	n/a	-999	1	[3, 1, 7]	11.0	catFR1	1	R1472T
229.848	2.465	247319	PROB	2.449	n/a	n/a	n/a	-999	1	[2, 2, 1]	5.0	catFR1	1	R1472T
232.313	0.0	249784	STOP	n/a	n/a	n/a	n/a	-999	1	[-999, -999, -999]	n/a	catFR1	1	R1472T
232.313	2.084	249785	DISTRACT_END	n/a	n/a	n/a	n/a	-999	1	[0, 0, 0]	n/a	catFR1	1	R1472T
234.397	0.582	251869	REC_START	n/a	n/a	n/a	n/a	-999	1	[0, 0, 0]	n/a	catFR1	1	R1472T
234.979	1.002	252449	REC_WORD	0.582	n/a	STREAM	Landscapes	1	1	[0, 0, 0]	n/a	catFR1	1	R1472T
235.981	0.315	253451	REC_WORD	1.584	n/a	STREAM	Landscapes	1	1	[0, 0, 0]	n/a	catFR1	1	R1472T
236.296	1.764	253766	REC_WORD	1.899	n/a	MOUNTAIN	Landscapes	2	1	[0, 0, 0]	n/a	catFR1	1	R1472T
238.06	1.275	255530	REC_WORD	3.663	n/a	FISH	OceanAnimals	-999	1	[0, 0, 0]	n/a	catFR1	1	R1472T
239.335	4.371	256805	REC_WORD_VV	4.938	n/a	<>	n/a	-999	1	[0, 0, 0]	n/a	catFR1	1	R1472T
243.706	0.73	261176	REC_WORD	9.309	n/a	COTTON	Fabric	6	1	[0, 0, 0]	n/a	catFR1	1	R1472T
244.436	1.751	261906	REC_WORD	10.039	n/a	DENIM	Fabric	10	1	[0, 0, 0]	n/a	catFR1	1	R1472T
246.187	18.401	263657	REC_WORD	11.79	n/a	SATIN	Fabric	5	1	[0, 0, 0]	n/a	catFR1	1	R1472T
264.588	1.592	282058	REC_END	n/a	n/a	n/a	n/a	-999	1	[0, 0, 0]	n/a	catFR1	1	R1472T
266.18	10.0	283658	COUNTDOWN_START	n/a	n/a	n/a	n/a	-999	2	[0, 0, 0]	n/a	catFR1	1	R1472T
276.53	0.001	294002	COUNTDOWN_END	n/a	n/a	n/a	n/a	-999	2	[0, 0, 0]	n/a	catFR1	1	R1472T
276.531	1.949	294002	ENCODING_START	n/a	n/a	n/a	n/a	-999	2	[0, 0, 0]	n/a	catFR1	1	R1472T
278.48	1.6	295946	WORD	n/a	wordpools/wordpool_categorized_EN.txt	VELVET	Fabric	1	2	[0, 0, 0]	n/a	catFR1	1	R1472T
280.097	0.966	297573	WORD_OFF	n/a	n/a	VELVET	Fabric	1	2	[0, 0, 0]	n/a	catFR1	1	R1472T
281.063	1.6	298538	WORD	n/a	wordpools/wordpool_categorized_EN.txt	LEATHER	Fabric	2	2	[0, 0, 0]	n/a	catFR1	1	R1472T
282.68	0.799	300152	WORD_OFF	n/a	n/a	LEATHER	Fabric	2	2	[0, 0, 0]	n/a	catFR1	1	R1472T
283.479	1.6	300946	WORD	n/a	wordpools/wordpool_categorized_EN.txt	BEAR	Zoo	3	2	[0, 0, 0]	n/a	catFR1	1	R1472T
285.08	0.8	302546	WORD_OFF	n/a	n/a	BEAR	Zoo	3	2	[0, 0, 0]	n/a	catFR1	1	R1472T
285.88	1.6	303353	WORD	n/a	wordpools/wordpool_categorized_EN.txt	ORANGUTAN	Zoo	4	2	[0, 0, 0]	n/a	catFR1	1	R1472T
287.497	0.833	304966	WORD_OFF	n/a	n/a	ORANGUTAN	Zoo	4	2	[0, 0, 0]	n/a	catFR1	1	R1472T
288.33	1.6	305800	WORD	n/a	wordpools/wordpool_categorized_EN.txt	CORN	Vegetables	5	2	[0, 0, 0]	n/a	catFR1	1	R1472T
289.93	0.85	307400	WORD_OFF	n/a	n/a	CORN	Vegetables	5	2	[0, 0, 0]	n/a	catFR1	1	R1472T
290.78	1.6	308247	WORD	n/a	wordpools/wordpool_categorized_EN.txt	ONION	Vegetables	6	2	[0, 0, 0]	n/a	catFR1	1	R1472T
292.396	0.767	309860	WORD_OFF	n/a	n/a	ONION	Vegetables	6	2	[0, 0, 0]	n/a	catFR1	1	R1472T
293.163	1.6	310641	WORD	n/a	wordpools/wordpool_categorized_EN.txt	SPANDEX	Fabric	7	2	[0, 0, 0]	n/a	catFR1	1	R1472T
294.764	1.0	312241	WORD_OFF	n/a	n/a	SPANDEX	Fabric	7	2	[0, 0, 0]	n/a	catFR1	1	R1472T
295.764	1.6	313233	WORD	n/a	wordpools/wordpool_categorized_EN.txt	LINEN	Fabric	8	2	[0, 0, 0]	n/a	catFR1	1	R1472T
297.38	0.883	314847	WORD_OFF	n/a	n/a	LINEN	Fabric	8	2	[0, 0, 0]	n/a	catFR1	1	R1472T
298.263	1.6	315733	WORD	n/a	wordpools/wordpool_categorized_EN.txt	ZEBRA	Zoo	9	2	[0, 0, 0]	n/a	catFR1	1	R1472T
299.863	0.917	317333	WORD_OFF	n/a	n/a	ZEBRA	Zoo	9	2	[0, 0, 0]	n/a	catFR1	1	R1472T
300.78	1.6	318246	WORD	n/a	wordpools/wordpool_categorized_EN.txt	ELEPHANT	Zoo	10	2	[0, 0, 0]	n/a	catFR1	1	R1472T
302.397	0.966	319873	WORD_OFF	n/a	n/a	ELEPHANT	Zoo	10	2	[0, 0, 0]	n/a	catFR1	1	R1472T
303.363	1.6	320838	WORD	n/a	wordpools/wordpool_categorized_EN.txt	CARROT	Vegetables	11	2	[0, 0, 0]	n/a	catFR1	1	R1472T
304.98	0.866	322452	WORD_OFF	n/a	n/a	CARROT	Vegetables	11	2	[0, 0, 0]	n/a	catFR1	1	R1472T
305.846	1.6	323312	WORD	n/a	wordpools/wordpool_categorized_EN.txt	SPINACH	Vegetables	12	2	[0, 0, 0]	n/a	catFR1	1	R1472T
307.464	0.001	324931	PROB	3.699	n/a	n/a	n/a	-999	2	[5, 3, 1]	9.0	catFR1	1	R1472T
307.465	0.0	324932	START	n/a	n/a	n/a	n/a	-999	2	[-999, -999, -999]	n/a	catFR1	1	R1472T
307.464	0.001	324939	WORD_OFF	n/a	n/a	SPINACH	Vegetables	12	2	[0, 0, 0]	n/a	catFR1	1	R1472T
307.465	0.0	324939	ENCODING_END	n/a	n/a	n/a	n/a	-999	2	[0, 0, 0]	n/a	catFR1	1	R1472T
307.465	3.715	324939	DISTRACT_START	n/a	n/a	n/a	n/a	-999	2	[0, 0, 0]	n/a	catFR1	1	R1472T
311.18	3.051	328647	PROB	3.033	n/a	n/a	n/a	-999	2	[1, 4, 7]	12.0	catFR1	1	R1472T
314.231	3.016	331697	PROB	2.999	n/a	n/a	n/a	-999	2	[2, 8, 3]	13.0	catFR1	1	R1472T
317.247	2.867	334713	PROB	2.85	n/a	n/a	n/a	-999	2	[1, 5, 1]	7.0	catFR1	1	R1472T
320.114	2.583	337580	PROB	2.566	n/a	n/a	n/a	-999	2	[8, 2, 7]	17.0	catFR1	1	R1472T
322.697	2.067	340163	PROB	2.05	n/a	n/a	n/a	-999	2	[8, 2, 1]	11.0	catFR1	1	R1472T
324.764	2.65	342230	PROB	2.633	n/a	n/a	n/a	-999	2	[5, 5, 3]	13.0	catFR1	1	R1472T
327.414	1.999	344880	PROB	1.983	n/a	n/a	n/a	-999	2	[6, 4, 1]	11.0	catFR1	1	R1472T
329.413	0.0	346879	STOP	n/a	n/a	n/a	n/a	-999	2	[-999, -999, -999]	n/a	catFR1	1	R1472T
329.413	2.367	346882	DISTRACT_END	n/a	n/a	n/a	n/a	-999	2	[0, 0, 0]	n/a	catFR1	1	R1472T
331.78	1.905	349244	REC_START	n/a	n/a	n/a	n/a	-999	2	[0, 0, 0]	n/a	catFR1	1	R1472T
333.685	0.23	351150	REC_WORD_VV	1.905	n/a	<>	n/a	-999	2	[0, 0, 0]	n/a	catFR1	1	R1472T
333.915	2.329	351380	REC_WORD	2.135	n/a	BEAR	Zoo	3	2	[0, 0, 0]	n/a	catFR1	1	R1472T
336.244	1.0	353709	REC_WORD_VV	4.464	n/a	<>	n/a	-999	2	[0, 0, 0]	n/a	catFR1	1	R1472T
337.244	6.274	354709	REC_WORD_VV	5.464	n/a	<>	n/a	-999	2	[0, 0, 0]	n/a	catFR1	1	R1472T
343.518	0.897	360983	REC_WORD	11.738	n/a	LINEN	Fabric	8	2	[0, 0, 0]	n/a	catFR1	1	R1472T
344.415	2.453	361880	REC_WORD	12.635	n/a	VELVET	Fabric	1	2	[0, 0, 0]	n/a	catFR1	1	R1472T
346.868	5.131	364333	REC_WORD	15.088	n/a	ORANGUTAN	Zoo	4	2	[0, 0, 0]	n/a	catFR1	1	R1472T
351.999	5.508	369463	REC_WORD	20.219	n/a	LION	n/a	-999	2	[0, 0, 0]	n/a	catFR1	1	R1472T
357.507	4.479	374971	REC_WORD	25.727	n/a	ELEPHANT	Zoo	10	2	[0, 0, 0]	n/a	catFR1	1	R1472T
361.986	1.527	379459	REC_END	n/a	n/a	n/a	n/a	-999	2	[0, 0, 0]	n/a	catFR1	1	R1472T
363.513	10.0	380980	COUNTDOWN_START	n/a	n/a	n/a	n/a	-999	3	[0, 0, 0]	n/a	catFR1	1	R1472T
373.863	0.0	391323	COUNTDOWN_END	n/a	n/a	n/a	n/a	-999	3	[0, 0, 0]	n/a	catFR1	1	R1472T
373.863	2.166	391337	ENCODING_START	n/a	n/a	n/a	n/a	-999	3	[0, 0, 0]	n/a	catFR1	1	R1472T
376.029	1.6	393493	WORD	n/a	wordpools/wordpool_categorized_EN.txt	WATER	Beverages	1	3	[0, 0, 0]	n/a	catFR1	1	R1472T
377.629	0.834	395093	WORD_OFF	n/a	n/a	WATER	Beverages	1	3	[0, 0, 0]	n/a	catFR1	1	R1472T
378.463	1.6	395926	WORD	n/a	wordpools/wordpool_categorized_EN.txt	WINE	Beverages	2	3	[0, 0, 0]	n/a	catFR1	1	R1472T
380.08	0.816	397540	WORD_OFF	n/a	n/a	WINE	Beverages	2	3	[0, 0, 0]	n/a	catFR1	1	R1472T
380.896	1.6	398360	WORD	n/a	wordpools/wordpool_categorized_EN.txt	POTATO	Vegetables	3	3	[0, 0, 0]	n/a	catFR1	1	R1472T
382.497	0.999	399960	WORD_OFF	n/a	n/a	POTATO	Vegetables	3	3	[0, 0, 0]	n/a	catFR1	1	R1472T
383.496	1.6	400966	WORD	n/a	wordpools/wordpool_categorized_EN.txt	CELERY	Vegetables	4	3	[0, 0, 0]	n/a	catFR1	1	R1472T
385.114	0.965	402579	WORD_OFF	n/a	n/a	CELERY	Vegetables	4	3	[0, 0, 0]	n/a	catFR1	1	R1472T
386.079	1.6	403545	WORD	n/a	wordpools/wordpool_categorized_EN.txt	COOKIE	Desserts	5	3	[0, 0, 0]	n/a	catFR1	1	R1472T
387.679	0.768	405145	WORD_OFF	n/a	n/a	COOKIE	Desserts	5	3	[0, 0, 0]	n/a	catFR1	1	R1472T
388.447	1.6	405912	WORD	n/a	wordpools/wordpool_categorized_EN.txt	CHEESECAKE	Desserts	6	3	[0, 0, 0]	n/a	catFR1	1	R1472T
390.047	0.933	407513	WORD_OFF	n/a	n/a	CHEESECAKE	Desserts	6	3	[0, 0, 0]	n/a	catFR1	1	R1472T
390.98	1.6	408452	WORD	n/a	wordpools/wordpool_categorized_EN.txt	CIDER	Beverages	7	3	[0, 0, 0]	n/a	catFR1	1	R1472T
392.58	0.784	410052	WORD_OFF	n/a	n/a	CIDER	Beverages	7	3	[0, 0, 0]	n/a	catFR1	1	R1472T
393.364	1.6	410833	WORD	n/a	wordpools/wordpool_categorized_EN.txt	TEA	Beverages	8	3	[0, 0, 0]	n/a	catFR1	1	R1472T
394.963	0.8	412433	WORD_OFF	n/a	n/a	TEA	Beverages	8	3	[0, 0, 0]	n/a	catFR1	1	R1472T
395.763	1.6	413227	WORD	n/a	wordpools/wordpool_categorized_EN.txt	PEAS	Vegetables	9	3	[0, 0, 0]	n/a	catFR1	1	R1472T
397.363	0.834	414827	WORD_OFF	n/a	n/a	PEAS	Vegetables	9	3	[0, 0, 0]	n/a	catFR1	1	R1472T
398.197	1.6	415660	WORD	n/a	wordpools/wordpool_categorized_EN.txt	CUCUMBER	Vegetables	10	3	[0, 0, 0]	n/a	catFR1	1	R1472T
399.797	0.766	417261	WORD_OFF	n/a	n/a	CUCUMBER	Vegetables	10	3	[0, 0, 0]	n/a	catFR1	1	R1472T
400.563	1.6	418028	WORD	n/a	wordpools/wordpool_categorized_EN.txt	PASTRY	Desserts	11	3	[0, 0, 0]	n/a	catFR1	1	R1472T
402.18	0.966	419642	WORD_OFF	n/a	n/a	PASTRY	Desserts	11	3	[0, 0, 0]	n/a	catFR1	1	R1472T
403.146	1.6	420607	WORD	n/a	wordpools/wordpool_categorized_EN.txt	PIE	Desserts	12	3	[0, 0, 0]	n/a	catFR1	1	R1472T
404.746	0.002	422208	WORD_OFF	n/a	n/a	PIE	Desserts	12	3	[0, 0, 0]	n/a	catFR1	1	R1472T
404.748	0.0	422208	ENCODING_END	n/a	n/a	n/a	n/a	-999	3	[0, 0, 0]	n/a	catFR1	1	R1472T
404.747	0.001	422209	PROB	3.6	n/a	n/a	n/a	-999	3	[7, 7, 7]	21.0	catFR1	1	R1472T
404.748	0.0	422210	START	n/a	n/a	n/a	n/a	-999	3	[-999, -999, -999]	n/a	catFR1	1	R1472T
404.748	3.615	422221	DISTRACT_START	n/a	n/a	n/a	n/a	-999	3	[0, 0, 0]	n/a	catFR1	1	R1472T
408.363	2.884	425825	PROB	2.867	n/a	n/a	n/a	-999	3	[2, 8, 6]	16.0	catFR1	1	R1472T
411.247	4.034	428708	PROB	4.016	n/a	n/a	n/a	-999	3	[2, 2, 3]	7.0	catFR1	1	R1472T
415.281	2.916	432742	PROB	2.899	n/a	n/a	n/a	-999	3	[8, 2, 4]	14.0	catFR1	1	R1472T
418.197	6.117	435658	PROB	6.1	n/a	n/a	n/a	-999	3	[8, 3, 3]	14.0	catFR1	1	R1472T
424.314	4.316	441775	PROB	4.299	n/a	n/a	n/a	-999	3	[8, 4, 2]	14.0	catFR1	1	R1472T
428.63	0.0	446090	STOP	n/a	n/a	n/a	n/a	-999	3	[-999, -999, -999]	n/a	catFR1	1	R1472T
428.63	2.183	446095	DISTRACT_END	n/a	n/a	n/a	n/a	-999	3	[0, 0, 0]	n/a	catFR1	1	R1472T
430.813	8.93	448272	REC_START	n/a	n/a	n/a	n/a	-999	3	[0, 0, 0]	n/a	catFR1	1	R1472T
439.743	1.003	457203	REC_WORD_VV	8.93	n/a	<>	n/a	-999	3	[0, 0, 0]	n/a	catFR1	1	R1472T
440.746	1.0	458206	REC_WORD_VV	9.933	n/a	<>	n/a	-999	3	[0, 0, 0]	n/a	catFR1	1	R1472T
441.746	3.873	459206	REC_WORD_VV	10.933	n/a	<>	n/a	-999	3	[0, 0, 0]	n/a	catFR1	1	R1472T
445.619	5.834	463079	REC_WORD	14.806	n/a	WATER	Beverages	1	3	[0, 0, 0]	n/a	catFR1	1	R1472T
451.453	2.326	468912	REC_WORD	20.64	n/a	CAKE	Desserts	-999	3	[0, 0, 0]	n/a	catFR1	1	R1472T
453.779	7.262	471238	REC_WORD	22.966	n/a	COOKIES	n/a	-999	3	[0, 0, 0]	n/a	catFR1	1	R1472T
461.041	1.772	478500	REC_END	n/a	n/a	n/a	n/a	-999	3	[0, 0, 0]	n/a	catFR1	1	R1472T
462.813	10.0	480273	COUNTDOWN_START	n/a	n/a	n/a	n/a	-999	4	[0, 0, 0]	n/a	catFR1	1	R1472T
473.163	0.0	490629	COUNTDOWN_END	n/a	n/a	n/a	n/a	-999	4	[0, 0, 0]	n/a	catFR1	1	R1472T
473.163	2.2	490629	ENCODING_START	n/a	n/a	n/a	n/a	-999	4	[0, 0, 0]	n/a	catFR1	1	R1472T
475.363	1.6	492825	WORD	n/a	wordpools/wordpool_categorized_EN.txt	RATCHET	Tools	1	4	[0, 0, 0]	n/a	catFR1	1	R1472T
476.98	0.934	494438	WORD_OFF	n/a	n/a	RATCHET	Tools	1	4	[0, 0, 0]	n/a	catFR1	1	R1472T
477.914	1.6	495377	WORD	n/a	wordpools/wordpool_categorized_EN.txt	WRENCH	Tools	2	4	[0, 0, 0]	n/a	catFR1	1	R1472T
479.53	0.984	496991	WORD_OFF	n/a	n/a	WRENCH	Tools	2	4	[0, 0, 0]	n/a	catFR1	1	R1472T
480.514	1.6	497970	WORD	n/a	wordpools/wordpool_categorized_EN.txt	DUCK	Birds	3	4	[0, 0, 0]	n/a	catFR1	1	R1472T
482.13	0.817	499597	WORD_OFF	n/a	n/a	DUCK	Birds	3	4	[0, 0, 0]	n/a	catFR1	1	R1472T
482.947	1.6	500404	WORD	n/a	wordpools/wordpool_categorized_EN.txt	GOOSE	Birds	4	4	[0, 0, 0]	n/a	catFR1	1	R1472T
484.563	0.884	502030	WORD_OFF	n/a	n/a	GOOSE	Birds	4	4	[0, 0, 0]	n/a	catFR1	1	R1472T
485.447	1.6	502903	WORD	n/a	wordpools/wordpool_categorized_EN.txt	COLA	Beverages	5	4	[0, 0, 0]	n/a	catFR1	1	R1472T
487.047	0.866	504504	WORD_OFF	n/a	n/a	COLA	Beverages	5	4	[0, 0, 0]	n/a	catFR1	1	R1472T
487.913	1.6	505377	WORD	n/a	wordpools/wordpool_categorized_EN.txt	RUM	Beverages	6	4	[0, 0, 0]	n/a	catFR1	1	R1472T
489.514	0.883	506977	WORD_OFF	n/a	n/a	RUM	Beverages	6	4	[0, 0, 0]	n/a	catFR1	1	R1472T
490.397	1.6	507863	WORD	n/a	wordpools/wordpool_categorized_EN.txt	DRILL	Tools	7	4	[0, 0, 0]	n/a	catFR1	1	R1472T
492.013	0.867	509477	WORD_OFF	n/a	n/a	DRILL	Tools	7	4	[0, 0, 0]	n/a	catFR1	1	R1472T
492.88	1.6	510337	WORD	n/a	wordpools/wordpool_categorized_EN.txt	LEVEL	Tools	8	4	[0, 0, 0]	n/a	catFR1	1	R1472T
494.48	0.949	511937	WORD_OFF	n/a	n/a	LEVEL	Tools	8	4	[0, 0, 0]	n/a	catFR1	1	R1472T
495.429	1.6	512890	WORD	n/a	wordpools/wordpool_categorized_EN.txt	BLUEBIRD	Birds	9	4	[0, 0, 0]	n/a	catFR1	1	R1472T
497.03	0.967	514490	WORD_OFF	n/a	n/a	BLUEBIRD	Birds	9	4	[0, 0, 0]	n/a	catFR1	1	R1472T
497.997	1.6	515456	WORD	n/a	wordpools/wordpool_categorized_EN.txt	FINCH	Birds	10	4	[0, 0, 0]	n/a	catFR1	1	R1472T
499.597	0.983	517056	WORD_OFF	n/a	n/a	FINCH	Birds	10	4	[0, 0, 0]	n/a	catFR1	1	R1472T
500.58	1.6	518035	WORD	n/a	wordpools/wordpool_categorized_EN.txt	LEMONADE	Beverages	11	4	[0, 0, 0]	n/a	catFR1	1	R1472T
502.197	0.983	519662	WORD_OFF	n/a	n/a	LEMONADE	Beverages	11	4	[0, 0, 0]	n/a	catFR1	1	R1472T
503.18	1.6	520640	WORD	n/a	wordpools/wordpool_categorized_EN.txt	JUICE	Beverages	12	4	[0, 0, 0]	n/a	catFR1	1	R1472T
504.797	0.001	522254	WORD_OFF	n/a	n/a	JUICE	Beverages	12	4	[0, 0, 0]	n/a	catFR1	1	R1472T
504.798	0.0	522254	ENCODING_END	n/a	n/a	n/a	n/a	-999	4	[0, 0, 0]	n/a	catFR1	1	R1472T
504.797	0.001	522254	PROB	3.683	n/a	n/a	n/a	-999	4	[1, 1, 3]	5.0	catFR1	1	R1472T
504.798	0.0	522255	START	n/a	n/a	n/a	n/a	-999	4	[-999, -999, -999]	n/a	catFR1	1	R1472T
504.798	3.699	522267	DISTRACT_START	n/a	n/a	n/a	n/a	-999	4	[0, 0, 0]	n/a	catFR1	1	R1472T
508.497	5.867	525953	PROB	5.849	n/a	n/a	n/a	-999	4	[6, 1, 3]	10.0	catFR1	1	R1472T
514.364	3.517	531820	PROB	3.5	n/a	n/a	n/a	-999	4	[7, 8, 2]	17.0	catFR1	1	R1472T
517.881	2.749	535337	PROB	2.733	n/a	n/a	n/a	-999	4	[1, 8, 2]	11.0	catFR1	1	R1472T
520.63	4.95	538086	PROB	4.932	n/a	n/a	n/a	-999	4	[8, 4, 6]	18.0	catFR1	1	R1472T
525.58	0.0	543033	DISTRACT_END	n/a	n/a	n/a	n/a	-999	4	[0, 0, 0]	n/a	catFR1	1	R1472T
525.58	2.033	543036	STOP	n/a	n/a	n/a	n/a	-999	4	[-999, -999, -999]	n/a	catFR1	1	R1472T
527.613	1.993	545078	REC_START	n/a	n/a	n/a	n/a	-999	4	[0, 0, 0]	n/a	catFR1	1	R1472T
529.606	0.727	547061	REC_WORD	1.993	n/a	WRENCH	Tools	2	4	[0, 0, 0]	n/a	catFR1	1	R1472T
530.333	0.969	547788	REC_WORD	2.72	n/a	RATCHET	Tools	1	4	[0, 0, 0]	n/a	catFR1	1	R1472T
531.302	2.807	548757	REC_WORD	3.689	n/a	DRILL	Tools	7	4	[0, 0, 0]	n/a	catFR1	1	R1472T
534.109	4.367	551564	REC_WORD_VV	6.496	n/a	<>	n/a	-999	4	[0, 0, 0]	n/a	catFR1	1	R1472T
538.476	2.445	555931	REC_WORD	10.863	n/a	GOOSE	Birds	4	4	[0, 0, 0]	n/a	catFR1	1	R1472T
540.921	2.458	558376	REC_WORD_VV	13.308	n/a	<>	n/a	-999	4	[0, 0, 0]	n/a	catFR1	1	R1472T
543.379	1.109	560834	REC_WORD	15.766	n/a	RUM	Beverages	6	4	[0, 0, 0]	n/a	catFR1	1	R1472T
544.488	13.325	561943	REC_WORD	16.875	n/a	LEMONADE	Beverages	11	4	[0, 0, 0]	n/a	catFR1	1	R1472T
557.813	1.383	575266	REC_END	n/a	n/a	n/a	n/a	-999	4	[0, 0, 0]	n/a	catFR1	1	R1472T
559.196	10.0	576655	COUNTDOWN_START	n/a	n/a	n/a	n/a	-999	5	[0, 0, 0]	n/a	catFR1	1	R1472T
569.547	0.0	586998	COUNTDOWN_END	n/a	n/a	n/a	n/a	-999	5	[0, 0, 0]	n/a	catFR1	1	R1472T
569.547	2.333	587012	ENCODING_START	n/a	n/a	n/a	n/a	-999	5	[0, 0, 0]	n/a	catFR1	1	R1472T
571.88	1.6	589340	WORD	n/a	wordpools/wordpool_categorized_EN.txt	WINDOW	Building	1	5	[0, 0, 0]	n/a	catFR1	1	R1472T
573.497	0.966	590953	WORD_OFF	n/a	n/a	WINDOW	Building	1	5	[0, 0, 0]	n/a	catFR1	1	R1472T
574.463	1.6	591919	WORD	n/a	wordpools/wordpool_categorized_EN.txt	BATHROOM	Building	2	5	[0, 0, 0]	n/a	catFR1	1	R1472T
576.064	0.966	593519	WORD_OFF	n/a	n/a	BATHROOM	Building	2	5	[0, 0, 0]	n/a	catFR1	1	R1472T
577.03	1.6	594485	WORD	n/a	wordpools/wordpool_categorized_EN.txt	SPARROW	Birds	3	5	[0, 0, 0]	n/a	catFR1	1	R1472T
578.647	0.866	596098	WORD_OFF	n/a	n/a	SPARROW	Birds	3	5	[0, 0, 0]	n/a	catFR1	1	R1472T
579.513	1.6	596971	WORD	n/a	wordpools/wordpool_categorized_EN.txt	CROW	Birds	4	5	[0, 0, 0]	n/a	catFR1	1	R1472T
581.129	0.884	598585	WORD_OFF	n/a	n/a	CROW	Birds	4	5	[0, 0, 0]	n/a	catFR1	1	R1472T
582.013	1.6	599471	WORD	n/a	wordpools/wordpool_categorized_EN.txt	SUEDE	Fabric	5	5	[0, 0, 0]	n/a	catFR1	1	R1472T
583.63	0.933	601085	WORD_OFF	n/a	n/a	SUEDE	Fabric	5	5	[0, 0, 0]	n/a	catFR1	1	R1472T
584.563	1.6	602024	WORD	n/a	wordpools/wordpool_categorized_EN.txt	WOOL	Fabric	6	5	[0, 0, 0]	n/a	catFR1	1	R1472T
586.164	0.966	603624	WORD_OFF	n/a	n/a	WOOL	Fabric	6	5	[0, 0, 0]	n/a	catFR1	1	R1472T
587.13	1.6	604590	WORD	n/a	wordpools/wordpool_categorized_EN.txt	STAIRS	Building	7	5	[0, 0, 0]	n/a	catFR1	1	R1472T
588.73	0.95	606190	WORD_OFF	n/a	n/a	STAIRS	Building	7	5	[0, 0, 0]	n/a	catFR1	1	R1472T
589.68	1.6	607129	WORD	n/a	wordpools/wordpool_categorized_EN.txt	HALLWAY	Building	8	5	[0, 0, 0]	n/a	catFR1	1	R1472T
591.28	0.949	608730	WORD_OFF	n/a	n/a	HALLWAY	Building	8	5	[0, 0, 0]	n/a	catFR1	1	R1472T
592.229	1.6	609682	WORD	n/a	wordpools/wordpool_categorized_EN.txt	FLEECE	Fabric	9	5	[0, 0, 0]	n/a	catFR1	1	R1472T
593.83	0.817	611283	WORD_OFF	n/a	n/a	FLEECE	Fabric	9	5	[0, 0, 0]	n/a	catFR1	1	R1472T
594.647	1.6	612103	WORD	n/a	wordpools/wordpool_categorized_EN.txt	SILK	Fabric	10	5	[0, 0, 0]	n/a	catFR1	1	R1472T
596.262	0.918	613716	WORD_OFF	n/a	n/a	SILK	Fabric	10	5	[0, 0, 0]	n/a	catFR1	1	R1472T
597.18	1.6	614642	WORD	n/a	wordpools/wordpool_categorized_EN.txt	HAWK	Birds	11	5	[0, 0, 0]	n/a	catFR1	1	R1472T
598.78	0.801	616229	WORD_OFF	n/a	n/a	HAWK	Birds	11	5	[0, 0, 0]	n/a	catFR1	1	R1472T
599.581	1.6	617036	WORD	n/a	wordpools/wordpool_categorized_EN.txt	SEAGULL	Birds	12	5	[0, 0, 0]	n/a	catFR1	1	R1472T
601.181	0.001	618633	PROB	3.965	n/a	n/a	n/a	-999	5	[3, 4, 5]	12.0	catFR1	1	R1472T
601.182	0.0	618634	START	n/a	n/a	n/a	n/a	-999	5	[-999, -999, -999]	n/a	catFR1	1	R1472T
601.18	0.002	618637	WORD_OFF	n/a	n/a	SEAGULL	Birds	12	5	[0, 0, 0]	n/a	catFR1	1	R1472T
601.182	0.0	618637	ENCODING_END	n/a	n/a	n/a	n/a	-999	5	[0, 0, 0]	n/a	catFR1	1	R1472T
601.182	3.982	618637	DISTRACT_START	n/a	n/a	n/a	n/a	-999	5	[0, 0, 0]	n/a	catFR1	1	R1472T
605.164	4.533	622615	PROB	4.515	n/a	n/a	n/a	-999	5	[7, 4, 8]	19.0	catFR1	1	R1472T
609.697	3.767	627148	PROB	3.75	n/a	n/a	n/a	-999	5	[3, 1, 2]	6.0	catFR1	1	R1472T
613.464	2.716	630915	PROB	2.7	n/a	n/a	n/a	-999	5	[5, 1, 1]	7.0	catFR1	1	R1472T
616.18	3.15	633631	PROB	3.133	n/a	n/a	n/a	-999	5	[6, 7, 3]	16.0	catFR1	1	R1472T
619.33	3.467	636781	PROB	3.45	n/a	n/a	n/a	-999	5	[1, 1, 1]	3.0	catFR1	1	R1472T
622.797	0.0	640248	STOP	n/a	n/a	n/a	n/a	-999	5	[-999, -999, -999]	n/a	catFR1	1	R1472T
622.797	2.366	640249	DISTRACT_END	n/a	n/a	n/a	n/a	-999	5	[0, 0, 0]	n/a	catFR1	1	R1472T
625.163	1.101	642625	REC_START	n/a	n/a	n/a	n/a	-999	5	[0, 0, 0]	n/a	catFR1	1	R1472T
626.264	1.232	643714	REC_WORD	1.101	n/a	HAWK	Birds	11	5	[0, 0, 0]	n/a	catFR1	1	R1472T
627.496	5.357	644946	REC_WORD	2.333	n/a	SPARROW	Birds	3	5	[0, 0, 0]	n/a	catFR1	1	R1472T
632.853	0.382	650303	REC_WORD_VV	7.69	n/a	<>	n/a	-999	5	[0, 0, 0]	n/a	catFR1	1	R1472T
633.235	0.883	650685	REC_WORD	8.072	n/a	WINDOW	Building	1	5	[0, 0, 0]	n/a	catFR1	1	R1472T
634.118	1.264	651568	REC_WORD	8.955	n/a	BATHROOM	Building	2	5	[0, 0, 0]	n/a	catFR1	1	R1472T
635.382	0.442	652832	REC_WORD_VV	10.219	n/a	<>	n/a	-999	5	[0, 0, 0]	n/a	catFR1	1	R1472T
635.824	10.228	653274	REC_WORD	10.661	n/a	HALLWAY	Building	8	5	[0, 0, 0]	n/a	catFR1	1	R1472T
646.052	4.18	663501	REC_WORD	20.889	n/a	BENCH	n/a	-999	5	[0, 0, 0]	n/a	catFR1	1	R1472T
650.232	1.999	667681	REC_WORD	25.069	n/a	SPARROW	Birds	3	5	[0, 0, 0]	n/a	catFR1	1	R1472T
652.231	3.141	669680	REC_WORD_VV	27.068	n/a	<>	n/a	-999	5	[0, 0, 0]	n/a	catFR1	1	R1472T
655.372	1.856	672826	REC_END	n/a	n/a	n/a	n/a	-999	5	[0, 0, 0]	n/a	catFR1	1	R1472T
657.228	10.0	674678	COUNTDOWN_START	n/a	n/a	n/a	n/a	-999	6	[0, 0, 0]	n/a	catFR1	1	R1472T
667.58	0.0	685034	COUNTDOWN_END	n/a	n/a	n/a	n/a	-999	6	[0, 0, 0]	n/a	catFR1	1	R1472T
667.58	2.217	685034	ENCODING_START	n/a	n/a	n/a	n/a	-999	6	[0, 0, 0]	n/a	catFR1	1	R1472T
669.797	1.6	687243	WORD	n/a	wordpools/wordpool_categorized_EN.txt	THUNDER	Weather	1	6	[0, 0, 0]	n/a	catFR1	1	R1472T
671.413	0.95	688870	WORD_OFF	n/a	n/a	THUNDER	Weather	1	6	[0, 0, 0]	n/a	catFR1	1	R1472T
672.363	1.6	689809	WORD	n/a	wordpools/wordpool_categorized_EN.txt	TORNADO	Weather	2	6	[0, 0, 0]	n/a	catFR1	1	R1472T
673.98	1.0	691436	WORD_OFF	n/a	n/a	TORNADO	Weather	2	6	[0, 0, 0]	n/a	catFR1	1	R1472T
674.98	1.6	692428	WORD	n/a	wordpools/wordpool_categorized_EN.txt	BASKETBALL	Toys	3	6	[0, 0, 0]	n/a	catFR1	1	R1472T
676.58	0.983	694029	WORD_OFF	n/a	n/a	BASKETBALL	Toys	3	6	[0, 0, 0]	n/a	catFR1	1	R1472T
677.563	1.6	695021	WORD	n/a	wordpools/wordpool_categorized_EN.txt	BASEBALL	Toys	4	6	[0, 0, 0]	n/a	catFR1	1	R1472T
679.18	0.933	696634	WORD_OFF	n/a	n/a	BASEBALL	Toys	4	6	[0, 0, 0]	n/a	catFR1	1	R1472T
680.113	1.6	697560	WORD	n/a	wordpools/wordpool_categorized_EN.txt	PRINTER	Electronics	5	6	[0, 0, 0]	n/a	catFR1	1	R1472T
681.713	0.917	699161	WORD_OFF	n/a	n/a	PRINTER	Electronics	5	6	[0, 0, 0]	n/a	catFR1	1	R1472T
682.63	1.6	700086	WORD	n/a	wordpools/wordpool_categorized_EN.txt	PHONE	Electronics	6	6	[0, 0, 0]	n/a	catFR1	1	R1472T
684.23	1.0	701687	WORD_OFF	n/a	n/a	PHONE	Electronics	6	6	[0, 0, 0]	n/a	catFR1	1	R1472T
685.23	1.6	702679	WORD	n/a	wordpools/wordpool_categorized_EN.txt	MARBLES	Toys	7	6	[0, 0, 0]	n/a	catFR1	1	R1472T
686.846	0.867	704292	WORD_OFF	n/a	n/a	MARBLES	Toys	7	6	[0, 0, 0]	n/a	catFR1	1	R1472T
687.713	1.6	705165	WORD	n/a	wordpools/wordpool_categorized_EN.txt	BLOCKS	Toys	8	6	[0, 0, 0]	n/a	catFR1	1	R1472T
689.313	0.934	706766	WORD_OFF	n/a	n/a	BLOCKS	Toys	8	6	[0, 0, 0]	n/a	catFR1	1	R1472T
690.247	1.6	707692	WORD	n/a	wordpools/wordpool_categorized_EN.txt	TABLET	Electronics	9	6	[0, 0, 0]	n/a	catFR1	1	R1472T
691.863	0.934	709319	WORD_OFF	n/a	n/a	TABLET	Electronics	9	6	[0, 0, 0]	n/a	catFR1	1	R1472T
692.797	1.6	710244	WORD	n/a	wordpools/wordpool_categorized_EN.txt	CALCULATOR	Electronics	10	6	[0, 0, 0]	n/a	catFR1	1	R1472T
694.413	0.967	711858	WORD_OFF	n/a	n/a	CALCULATOR	Electronics	10	6	[0, 0, 0]	n/a	catFR1	1	R1472T
695.38	1.6	712837	WORD	n/a	wordpools/wordpool_categorized_EN.txt	WIND	Weather	11	6	[0, 0, 0]	n/a	catFR1	1	R1472T
696.997	0.917	714451	WORD_OFF	n/a	n/a	WIND	Weather	11	6	[0, 0, 0]	n/a	catFR1	1	R1472T
697.914	1.6	715363	WORD	n/a	wordpools/wordpool_categorized_EN.txt	RAIN	Weather	12	6	[0, 0, 0]	n/a	catFR1	1	R1472T
699.53	0.002	716977	WORD_OFF	n/a	n/a	RAIN	Weather	12	6	[0, 0, 0]	n/a	catFR1	1	R1472T
699.532	0.0	716977	ENCODING_END	n/a	n/a	n/a	n/a	-999	6	[0, 0, 0]	n/a	catFR1	1	R1472T
699.531	0.001	716978	PROB	8.165	n/a	n/a	n/a	-999	6	[8, 5, 4]	18.0	catFR1	1	R1472T
699.532	0.0	716979	START	n/a	n/a	n/a	n/a	-999	6	[-999, -999, -999]	n/a	catFR1	1	R1472T
699.532	8.182	716990	DISTRACT_START	n/a	n/a	n/a	n/a	-999	6	[0, 0, 0]	n/a	catFR1	1	R1472T
707.714	5.233	725160	PROB	5.216	n/a	n/a	n/a	-999	6	[5, 7, 6]	18.0	catFR1	1	R1472T
712.947	4.15	730393	PROB	4.133	n/a	n/a	n/a	-999	6	[6, 8, 4]	18.0	catFR1	1	R1472T
717.097	2.916	734543	PROB	2.9	n/a	n/a	n/a	-999	6	[2, 6, 1]	9.0	catFR1	1	R1472T
720.013	0.0	737459	STOP	n/a	n/a	n/a	n/a	-999	6	[-999, -999, -999]	n/a	catFR1	1	R1472T
720.013	2.2	737465	DISTRACT_END	n/a	n/a	n/a	n/a	-999	6	[0, 0, 0]	n/a	catFR1	1	R1472T
722.213	3.631	739655	REC_START	n/a	n/a	n/a	n/a	-999	6	[0, 0, 0]	n/a	catFR1	1	R1472T
725.844	0.627	743289	REC_WORD_VV	3.631	n/a	<>	n/a	-999	6	[0, 0, 0]	n/a	catFR1	1	R1472T
726.471	2.027	743916	REC_WORD	4.258	n/a	SNOW	n/a	-999	6	[0, 0, 0]	n/a	catFR1	1	R1472T
728.498	2.383	745943	REC_WORD_VV	6.285	n/a	<>	n/a	-999	6	[0, 0, 0]	n/a	catFR1	1	R1472T
730.881	0.823	748326	REC_WORD	8.668	n/a	RAIN	Weather	12	6	[0, 0, 0]	n/a	catFR1	1	R1472T
731.704	2.428	749149	REC_WORD	9.491	n/a	TORNADO	Weather	2	6	[0, 0, 0]	n/a	catFR1	1	R1472T
734.132	1.918	751577	REC_WORD	11.919	n/a	THUNDERSTORM	n/a	-999	6	[0, 0, 0]	n/a	catFR1	1	R1472T
736.05	0.05	753495	REC_WORD_VV	13.837	n/a	<>	n/a	-999	6	[0, 0, 0]	n/a	catFR1	1	R1472T
736.1	2.595	753545	REC_WORD	13.887	n/a	THUNDER	Weather	1	6	[0, 0, 0]	n/a	catFR1	1	R1472T
738.695	13.759	756140	REC_WORD_VV	16.482	n/a	<>	n/a	-999	6	[0, 0, 0]	n/a	catFR1	1	R1472T
752.454	2.009	769897	REC_END	n/a	n/a	n/a	n/a	-999	6	[0, 0, 0]	n/a	catFR1	1	R1472T
754.463	10.0	771907	COUNTDOWN_START	n/a	n/a	n/a	n/a	-999	7	[0, 0, 0]	n/a	catFR1	1	R1472T
764.812	0.0	782264	COUNTDOWN_END	n/a	n/a	n/a	n/a	-999	7	[0, 0, 0]	n/a	catFR1	1	R1472T
764.812	2.035	782264	ENCODING_START	n/a	n/a	n/a	n/a	-999	7	[0, 0, 0]	n/a	catFR1	1	R1472T
766.847	1.6	784287	WORD	n/a	wordpools/wordpool_categorized_EN.txt	SOCKS	Clothing	1	7	[0, 0, 0]	n/a	catFR1	1	R1472T
768.447	0.933	785888	WORD_OFF	n/a	n/a	SOCKS	Clothing	1	7	[0, 0, 0]	n/a	catFR1	1	R1472T
769.38	1.6	786827	WORD	n/a	wordpools/wordpool_categorized_EN.txt	JEANS	Clothing	2	7	[0, 0, 0]	n/a	catFR1	1	R1472T
770.981	0.966	788427	WORD_OFF	n/a	n/a	JEANS	Clothing	2	7	[0, 0, 0]	n/a	catFR1	1	R1472T
771.947	1.6	789393	WORD	n/a	wordpools/wordpool_categorized_EN.txt	SHELF	Furniture	3	7	[0, 0, 0]	n/a	catFR1	1	R1472T
773.547	0.934	790993	WORD_OFF	n/a	n/a	SHELF	Furniture	3	7	[0, 0, 0]	n/a	catFR1	1	R1472T
774.481	1.6	791932	WORD	n/a	wordpools/wordpool_categorized_EN.txt	CABINET	Furniture	4	7	[0, 0, 0]	n/a	catFR1	1	R1472T
776.08	0.817	793533	WORD_OFF	n/a	n/a	CABINET	Furniture	4	7	[0, 0, 0]	n/a	catFR1	1	R1472T
776.897	1.6	794340	WORD	n/a	wordpools/wordpool_categorized_EN.txt	MICROWAVE	Electronics	5	7	[0, 0, 0]	n/a	catFR1	1	R1472T
778.513	0.834	795953	WORD_OFF	n/a	n/a	MICROWAVE	Electronics	5	7	[0, 0, 0]	n/a	catFR1	1	R1472T
779.347	1.6	796786	WORD	n/a	wordpools/wordpool_categorized_EN.txt	HEADPHONES	Electronics	6	7	[0, 0, 0]	n/a	catFR1	1	R1472T
780.947	0.833	798387	WORD_OFF	n/a	n/a	HEADPHONES	Electronics	6	7	[0, 0, 0]	n/a	catFR1	1	R1472T
781.78	1.6	799220	WORD	n/a	wordpools/wordpool_categorized_EN.txt	DESK	Furniture	7	7	[0, 0, 0]	n/a	catFR1	1	R1472T
783.38	0.867	800821	WORD_OFF	n/a	n/a	DESK	Furniture	7	7	[0, 0, 0]	n/a	catFR1	1	R1472T
784.247	1.6	801694	WORD	n/a	wordpools/wordpool_categorized_EN.txt	CHAIR	Furniture	8	7	[0, 0, 0]	n/a	catFR1	1	R1472T
785.847	0.849	803294	WORD_OFF	n/a	n/a	CHAIR	Furniture	8	7	[0, 0, 0]	n/a	catFR1	1	R1472T
786.696	1.6	804140	WORD	n/a	wordpools/wordpool_categorized_EN.txt	SHORTS	Clothing	9	7	[0, 0, 0]	n/a	catFR1	1	R1472T
788.313	0.867	805754	WORD_OFF	n/a	n/a	SHORTS	Clothing	9	7	[0, 0, 0]	n/a	catFR1	1	R1472T
789.18	1.6	806627	WORD	n/a	wordpools/wordpool_categorized_EN.txt	UNDERWEAR	Clothing	10	7	[0, 0, 0]	n/a	catFR1	1	R1472T
790.797	0.967	808241	WORD_OFF	n/a	n/a	UNDERWEAR	Clothing	10	7	[0, 0, 0]	n/a	catFR1	1	R1472T
791.764	1.6	809206	WORD	n/a	wordpools/wordpool_categorized_EN.txt	RADIO	Electronics	11	7	[0, 0, 0]	n/a	catFR1	1	R1472T
793.38	0.783	810820	WORD_OFF	n/a	n/a	RADIO	Electronics	11	7	[0, 0, 0]	n/a	catFR1	1	R1472T
794.163	1.6	811614	WORD	n/a	wordpools/wordpool_categorized_EN.txt	SCANNER	Electronics	12	7	[0, 0, 0]	n/a	catFR1	1	R1472T
795.781	0.001	813223	PROB	7.383	n/a	n/a	n/a	-999	7	[3, 6, 4]	13.0	catFR1	1	R1472T
795.782	0.0	813224	START	n/a	n/a	n/a	n/a	-999	7	[-999, -999, -999]	n/a	catFR1	1	R1472T
795.78	0.002	813227	WORD_OFF	n/a	n/a	SCANNER	Electronics	12	7	[0, 0, 0]	n/a	catFR1	1	R1472T
795.782	0.0	813227	ENCODING_END	n/a	n/a	n/a	n/a	-999	7	[0, 0, 0]	n/a	catFR1	1	R1472T
795.782	7.398	813227	DISTRACT_START	n/a	n/a	n/a	n/a	-999	7	[0, 0, 0]	n/a	catFR1	1	R1472T
803.18	5.016	820621	PROB	5.0	n/a	n/a	n/a	-999	7	[5, 6, 7]	18.0	catFR1	1	R1472T
808.196	4.584	825637	PROB	4.567	n/a	n/a	n/a	-999	7	[4, 2, 7]	13.0	catFR1	1	R1472T
812.78	2.75	830221	PROB	2.733	n/a	n/a	n/a	-999	7	[6, 4, 3]	13.0	catFR1	1	R1472T
815.53	2.25	832971	PROB	2.233	n/a	n/a	n/a	-999	7	[6, 4, 6]	16.0	catFR1	1	R1472T
817.78	0.0	835221	STOP	n/a	n/a	n/a	n/a	-999	7	[-999, -999, -999]	n/a	catFR1	1	R1472T
817.78	2.333	835223	DISTRACT_END	n/a	n/a	n/a	n/a	-999	7	[0, 0, 0]	n/a	catFR1	1	R1472T
820.113	0.437	837559	REC_START	n/a	n/a	n/a	n/a	-999	7	[0, 0, 0]	n/a	catFR1	1	R1472T
820.55	0.977	837990	REC_WORD	0.437	n/a	SOCKS	Clothing	1	7	[0, 0, 0]	n/a	catFR1	1	R1472T
821.527	1.446	838967	REC_WORD	1.414	n/a	JEANS	Clothing	2	7	[0, 0, 0]	n/a	catFR1	1	R1472T
822.973	2.76	840413	REC_WORD	2.86	n/a	SHORTS	Clothing	9	7	[0, 0, 0]	n/a	catFR1	1	R1472T
825.733	6.862	843173	REC_WORD_VV	5.62	n/a	<>	n/a	-999	7	[0, 0, 0]	n/a	catFR1	1	R1472T
832.595	1.136	850035	REC_WORD	12.482	n/a	WINDOW	Building	-999	7	[0, 0, 0]	n/a	catFR1	1	R1472T
833.731	1.0	851171	REC_WORD_VV	13.618	n/a	<>	n/a	-999	7	[0, 0, 0]	n/a	catFR1	1	R1472T
834.731	1.737	852171	REC_WORD_VV	14.618	n/a	<>	n/a	-999	7	[0, 0, 0]	n/a	catFR1	1	R1472T
836.468	0.791	853908	REC_WORD	16.355	n/a	SHELF	Furniture	3	7	[0, 0, 0]	n/a	catFR1	1	R1472T
837.259	13.086	854699	REC_WORD	17.146	n/a	CABINET	Furniture	4	7	[0, 0, 0]	n/a	catFR1	1	R1472T
850.345	1.002	867787	REC_END	n/a	n/a	n/a	n/a	-999	7	[0, 0, 0]	n/a	catFR1	1	R1472T
851.347	10.0	868792	COUNTDOWN_START	n/a	n/a	n/a	n/a	-999	8	[0, 0, 0]	n/a	catFR1	1	R1472T
861.696	0.0	879136	COUNTDOWN_END	n/a	n/a	n/a	n/a	-999	8	[0, 0, 0]	n/a	catFR1	1	R1472T
861.696	2.167	879136	ENCODING_START	n/a	n/a	n/a	n/a	-999	8	[0, 0, 0]	n/a	catFR1	1	R1472T
863.863	1.6	881305	WORD	n/a	wordpools/wordpool_categorized_EN.txt	FLOOR	Building	1	8	[0, 0, 0]	n/a	catFR1	1	R1472T
865.464	0.9	882905	WORD_OFF	n/a	n/a	FLOOR	Building	1	8	[0, 0, 0]	n/a	catFR1	1	R1472T
866.364	1.6	883805	WORD	n/a	wordpools/wordpool_categorized_EN.txt	DOOR	Building	2	8	[0, 0, 0]	n/a	catFR1	1	R1472T
867.98	0.784	885418	WORD_OFF	n/a	n/a	DOOR	Building	2	8	[0, 0, 0]	n/a	catFR1	1	R1472T
868.764	1.6	886199	WORD	n/a	wordpools/wordpool_categorized_EN.txt	MILK	Beverages	3	8	[0, 0, 0]	n/a	catFR1	1	R1472T
870.38	0.767	887826	WORD_OFF	n/a	n/a	MILK	Beverages	3	8	[0, 0, 0]	n/a	catFR1	1	R1472T
871.147	1.6	888593	WORD	n/a	wordpools/wordpool_categorized_EN.txt	COFFEE	Beverages	4	8	[0, 0, 0]	n/a	catFR1	1	R1472T
872.763	0.8	890206	WORD_OFF	n/a	n/a	COFFEE	Beverages	4	8	[0, 0, 0]	n/a	catFR1	1	R1472T
873.563	1.6	891000	WORD	n/a	wordpools/wordpool_categorized_EN.txt	BLUEBERRY	Fruit	5	8	[0, 0, 0]	n/a	catFR1	1	R1472T
875.18	0.933	892627	WORD_OFF	n/a	n/a	BLUEBERRY	Fruit	5	8	[0, 0, 0]	n/a	catFR1	1	R1472T
876.113	1.6	893553	WORD	n/a	wordpools/wordpool_categorized_EN.txt	PEACH	Fruit	6	8	[0, 0, 0]	n/a	catFR1	1	R1472T
877.73	0.883	895166	WORD_OFF	n/a	n/a	PEACH	Fruit	6	8	[0, 0, 0]	n/a	catFR1	1	R1472T
878.613	1.6	896053	WORD	n/a	wordpools/wordpool_categorized_EN.txt	BEER	Beverages	7	8	[0, 0, 0]	n/a	catFR1	1	R1472T
880.213	0.934	897653	WORD_OFF	n/a	n/a	BEER	Beverages	7	8	[0, 0, 0]	n/a	catFR1	1	R1472T
881.147	1.6	898592	WORD	n/a	wordpools/wordpool_categorized_EN.txt	SODA	Beverages	8	8	[0, 0, 0]	n/a	catFR1	1	R1472T
882.764	0.899	900206	WORD_OFF	n/a	n/a	SODA	Beverages	8	8	[0, 0, 0]	n/a	catFR1	1	R1472T
883.663	1.6	901105	WORD	n/a	wordpools/wordpool_categorized_EN.txt	CEILING	Building	9	8	[0, 0, 0]	n/a	catFR1	1	R1472T
885.28	0.9	902719	WORD_OFF	n/a	n/a	CEILING	Building	9	8	[0, 0, 0]	n/a	catFR1	1	R1472T
886.18	1.6	903618	WORD	n/a	wordpools/wordpool_categorized_EN.txt	ROOF	Building	10	8	[0, 0, 0]	n/a	catFR1	1	R1472T
887.797	0.966	905232	WORD_OFF	n/a	n/a	ROOF	Building	10	8	[0, 0, 0]	n/a	catFR1	1	R1472T
888.763	1.6	906197	WORD	n/a	wordpools/wordpool_categorized_EN.txt	LIME	Fruit	11	8	[0, 0, 0]	n/a	catFR1	1	R1472T
890.364	0.999	907798	WORD_OFF	n/a	n/a	LIME	Fruit	11	8	[0, 0, 0]	n/a	catFR1	1	R1472T
891.363	1.6	908803	WORD	n/a	wordpools/wordpool_categorized_EN.txt	LEMON	Fruit	12	8	[0, 0, 0]	n/a	catFR1	1	R1472T
892.98	0.002	910417	WORD_OFF	n/a	n/a	LEMON	Fruit	12	8	[0, 0, 0]	n/a	catFR1	1	R1472T
892.982	0.0	910417	ENCODING_END	n/a	n/a	n/a	n/a	-999	8	[0, 0, 0]	n/a	catFR1	1	R1472T
892.981	0.001	910418	PROB	3.416	n/a	n/a	n/a	-999	8	[2, 4, 6]	12.0	catFR1	1	R1472T
892.982	0.0	910419	START	n/a	n/a	n/a	n/a	-999	8	[-999, -999, -999]	n/a	catFR1	1	R1472T
892.982	3.432	910430	DISTRACT_START	n/a	n/a	n/a	n/a	-999	8	[0, 0, 0]	n/a	catFR1	1	R1472T
896.414	3.95	913851	PROB	3.932	n/a	n/a	n/a	-999	8	[7, 1, 6]	14.0	catFR1	1	R1472T
900.364	3.017	917800	PROB	3.0	n/a	n/a	n/a	-999	8	[8, 2, 2]	12.0	catFR1	1	R1472T
903.381	4.035	920817	PROB	4.016	n/a	n/a	n/a	-999	8	[7, 4, 3]	14.0	catFR1	1	R1472T
907.416	5.298	924852	PROB	5.281	n/a	n/a	n/a	-999	8	[2, 7, 6]	15.0	catFR1	1	R1472T
912.714	2.683	930150	PROB	2.666	n/a	n/a	n/a	-999	8	[1, 8, 8]	17.0	catFR1	1	R1472T
915.397	0.0	932833	STOP	n/a	n/a	n/a	n/a	-999	8	[-999, -999, -999]	n/a	catFR1	1	R1472T
915.397	2.132	932836	DISTRACT_END	n/a	n/a	n/a	n/a	-999	8	[0, 0, 0]	n/a	catFR1	1	R1472T
917.529	1.917	934973	REC_START	n/a	n/a	n/a	n/a	-999	8	[0, 0, 0]	n/a	catFR1	1	R1472T
919.446	1.28	936881	REC_WORD	1.917	n/a	FLOOR	Building	1	8	[0, 0, 0]	n/a	catFR1	1	R1472T
920.726	2.851	938161	REC_WORD	3.197	n/a	DOOR	Building	2	8	[0, 0, 0]	n/a	catFR1	1	R1472T
923.577	1.573	941012	REC_WORD	6.048	n/a	SINK	n/a	-999	8	[0, 0, 0]	n/a	catFR1	1	R1472T
925.15	6.11	942585	REC_WORD_VV	7.621	n/a	<>	n/a	-999	8	[0, 0, 0]	n/a	catFR1	1	R1472T
931.26	0.543	948695	REC_WORD_VV	13.731	n/a	<>	n/a	-999	8	[0, 0, 0]	n/a	catFR1	1	R1472T
931.803	1.492	949238	REC_WORD	14.274	n/a	CEILING	Building	9	8	[0, 0, 0]	n/a	catFR1	1	R1472T
933.295	4.268	950730	REC_WORD	15.766	n/a	ROOF	Building	10	8	[0, 0, 0]	n/a	catFR1	1	R1472T
937.563	0.806	954997	REC_WORD	20.034	n/a	SODA	Beverages	8	8	[0, 0, 0]	n/a	catFR1	1	R1472T
938.369	9.382	955803	REC_WORD	20.84	n/a	BEER	Beverages	7	8	[0, 0, 0]	n/a	catFR1	1	R1472T
947.751	1.513	965188	REC_END	n/a	n/a	n/a	n/a	-999	8	[0, 0, 0]	n/a	catFR1	1	R1472T
949.264	10.0	966709	COUNTDOWN_START	n/a	n/a	n/a	n/a	-999	9	[0, 0, 0]	n/a	catFR1	1	R1472T
959.613	0.0	977053	COUNTDOWN_END	n/a	n/a	n/a	n/a	-999	9	[0, 0, 0]	n/a	catFR1	1	R1472T
959.613	2.184	977053	ENCODING_START	n/a	n/a	n/a	n/a	-999	9	[0, 0, 0]	n/a	catFR1	1	R1472T
961.797	1.6	979235	WORD	n/a	wordpools/wordpool_categorized_EN.txt	RECLINER	Furniture	1	9	[0, 0, 0]	n/a	catFR1	1	R1472T
963.397	0.8	980835	WORD_OFF	n/a	n/a	RECLINER	Furniture	1	9	[0, 0, 0]	n/a	catFR1	1	R1472T
964.197	1.6	981629	WORD	n/a	wordpools/wordpool_categorized_EN.txt	BOOKCASE	Furniture	2	9	[0, 0, 0]	n/a	catFR1	1	R1472T
965.797	0.817	983229	WORD_OFF	n/a	n/a	BOOKCASE	Furniture	2	9	[0, 0, 0]	n/a	catFR1	1	R1472T
966.614	1.6	984049	WORD	n/a	wordpools/wordpool_categorized_EN.txt	BLENDER	Appliances	3	9	[0, 0, 0]	n/a	catFR1	1	R1472T
968.213	0.966	985650	WORD_OFF	n/a	n/a	BLENDER	Appliances	3	9	[0, 0, 0]	n/a	catFR1	1	R1472T
969.179	1.6	986615	WORD	n/a	wordpools/wordpool_categorized_EN.txt	WASHER	Appliances	4	9	[0, 0, 0]	n/a	catFR1	1	R1472T
970.78	0.8	988216	WORD_OFF	n/a	n/a	WASHER	Appliances	4	9	[0, 0, 0]	n/a	catFR1	1	R1472T
971.58	1.6	989023	WORD	n/a	wordpools/wordpool_categorized_EN.txt	BIRCH	Trees	5	9	[0, 0, 0]	n/a	catFR1	1	R1472T
973.18	0.982	990610	WORD_OFF	n/a	n/a	BIRCH	Trees	5	9	[0, 0, 0]	n/a	catFR1	1	R1472T
974.162	1.6	991602	WORD	n/a	wordpools/wordpool_categorized_EN.txt	PINE	Trees	6	9	[0, 0, 0]	n/a	catFR1	1	R1472T
975.764	0.916	993202	WORD_OFF	n/a	n/a	PINE	Trees	6	9	[0, 0, 0]	n/a	catFR1	1	R1472T
976.68	1.6	994115	WORD	n/a	wordpools/wordpool_categorized_EN.txt	COUCH	Furniture	7	9	[0, 0, 0]	n/a	catFR1	1	R1472T
978.28	0.767	995715	WORD_OFF	n/a	n/a	COUCH	Furniture	7	9	[0, 0, 0]	n/a	catFR1	1	R1472T
979.047	1.6	996482	WORD	n/a	wordpools/wordpool_categorized_EN.txt	NIGHTSTAND	Furniture	8	9	[0, 0, 0]	n/a	catFR1	1	R1472T
980.663	0.916	998096	WORD_OFF	n/a	n/a	NIGHTSTAND	Furniture	8	9	[0, 0, 0]	n/a	catFR1	1	R1472T
981.579	1.6	999022	WORD	n/a	wordpools/wordpool_categorized_EN.txt	ELM	Trees	9	9	[0, 0, 0]	n/a	catFR1	1	R1472T
983.18	0.766	1000622	WORD_OFF	n/a	n/a	ELM	Trees	9	9	[0, 0, 0]	n/a	catFR1	1	R1472T
983.946	1.6	1001376	WORD	n/a	wordpools/wordpool_categorized_EN.txt	WALNUT	Trees	10	9	[0, 0, 0]	n/a	catFR1	1	R1472T
985.563	0.883	1003003	WORD_OFF	n/a	n/a	WALNUT	Trees	10	9	[0, 0, 0]	n/a	catFR1	1	R1472T
986.446	1.6	1003876	WORD	n/a	wordpools/wordpool_categorized_EN.txt	OVEN	Appliances	11	9	[0, 0, 0]	n/a	catFR1	1	R1472T
988.047	0.833	1005477	WORD_OFF	n/a	n/a	OVEN	Appliances	11	9	[0, 0, 0]	n/a	catFR1	1	R1472T
988.88	1.6	1006310	WORD	n/a	wordpools/wordpool_categorized_EN.txt	VACUUM	Appliances	12	9	[0, 0, 0]	n/a	catFR1	1	R1472T
990.497	0.001	1007929	PROB	2.65	n/a	n/a	n/a	-999	9	[1, 4, 1]	6.0	catFR1	1	R1472T
990.498	0.0	1007930	START	n/a	n/a	n/a	n/a	-999	9	[-999, -999, -999]	n/a	catFR1	1	R1472T
990.497	0.001	1007937	WORD_OFF	n/a	n/a	VACUUM	Appliances	12	9	[0, 0, 0]	n/a	catFR1	1	R1472T
990.498	0.0	1007937	ENCODING_END	n/a	n/a	n/a	n/a	-999	9	[0, 0, 0]	n/a	catFR1	1	R1472T
990.498	2.666	1007937	DISTRACT_START	n/a	n/a	n/a	n/a	-999	9	[0, 0, 0]	n/a	catFR1	1	R1472T
993.164	4.968	1010596	PROB	4.949	n/a	n/a	n/a	-999	9	[4, 7, 4]	15.0	catFR1	1	R1472T
998.132	4.298	1015563	PROB	4.283	n/a	n/a	n/a	-999	9	[3, 4, 5]	12.0	catFR1	1	R1472T
1002.43	3.834	1019861	PROB	3.816	n/a	n/a	n/a	-999	9	[4, 8, 4]	16.0	catFR1	1	R1472T
1006.264	2.499	1023695	PROB	2.481	n/a	n/a	n/a	-999	9	[5, 1, 3]	9.0	catFR1	1	R1472T
1008.763	3.334	1026194	PROB	3.316	n/a	n/a	n/a	-999	9	[4, 4, 3]	11.0	catFR1	1	R1472T
1012.097	0.0	1029528	STOP	n/a	n/a	n/a	n/a	-999	9	[-999, -999, -999]	n/a	catFR1	1	R1472T
1012.097	2.1	1029536	DISTRACT_END	n/a	n/a	n/a	n/a	-999	9	[0, 0, 0]	n/a	catFR1	1	R1472T
1014.197	1.091	1031634	REC_START	n/a	n/a	n/a	n/a	-999	9	[0, 0, 0]	n/a	catFR1	1	R1472T
1015.288	0.404	1032718	REC_WORD_VV	1.091	n/a	<>	n/a	-999	9	[0, 0, 0]	n/a	catFR1	1	R1472T
1015.692	1.95	1033122	REC_WORD	1.495	n/a	RECLINER	Furniture	1	9	[0, 0, 0]	n/a	catFR1	1	R1472T
1017.642	0.354	1035072	REC_WORD_VV	3.445	n/a	<>	n/a	-999	9	[0, 0, 0]	n/a	catFR1	1	R1472T
1017.996	1.442	1035426	REC_WORD	3.799	n/a	KITCHEN	n/a	-999	9	[0, 0, 0]	n/a	catFR1	1	R1472T
1019.438	4.508	1036868	REC_WORD_VV	5.241	n/a	<>	n/a	-999	9	[0, 0, 0]	n/a	catFR1	1	R1472T
1023.946	5.762	1041376	REC_WORD	9.749	n/a	FLOOR	Building	-999	9	[0, 0, 0]	n/a	catFR1	1	R1472T
1029.708	0.789	1047138	REC_WORD_VV	15.511	n/a	<>	n/a	-999	9	[0, 0, 0]	n/a	catFR1	1	R1472T
1030.497	2.03	1047927	REC_WORD	16.3	n/a	DOOR	Building	-999	9	[0, 0, 0]	n/a	catFR1	1	R1472T
1032.527	2.788	1049957	REC_WORD_VV	18.33	n/a	<>	n/a	-999	9	[0, 0, 0]	n/a	catFR1	1	R1472T
1035.315	0.992	1052744	REC_WORD	21.118	n/a	PINE	Trees	6	9	[0, 0, 0]	n/a	catFR1	1	R1472T
1036.307	4.585	1053736	REC_WORD	22.11	n/a	WALNUT	Trees	10	9	[0, 0, 0]	n/a	catFR1	1	R1472T
1040.892	3.54	1058321	REC_WORD	26.695	n/a	OAK	n/a	-999	9	[0, 0, 0]	n/a	catFR1	1	R1472T
1044.432	2.514	1061862	REC_END	n/a	n/a	n/a	n/a	-999	9	[0, 0, 0]	n/a	catFR1	1	R1472T
1046.946	10.0	1064375	COUNTDOWN_START	n/a	n/a	n/a	n/a	-999	10	[0, 0, 0]	n/a	catFR1	1	R1472T
1057.296	0.0	1074731	COUNTDOWN_END	n/a	n/a	n/a	n/a	-999	10	[0, 0, 0]	n/a	catFR1	1	R1472T
1057.296	2.084	1074731	ENCODING_START	n/a	n/a	n/a	n/a	-999	10	[0, 0, 0]	n/a	catFR1	1	R1472T
1059.38	1.6	1076808	WORD	n/a	wordpools/wordpool_categorized_EN.txt	HURRICANE	Weather	1	10	[0, 0, 0]	n/a	catFR1	1	R1472T
1060.997	0.765	1078435	WORD_OFF	n/a	n/a	HURRICANE	Weather	1	10	[0, 0, 0]	n/a	catFR1	1	R1472T
1061.762	1.6	1079189	WORD	n/a	wordpools/wordpool_categorized_EN.txt	FOG	Weather	2	10	[0, 0, 0]	n/a	catFR1	1	R1472T
1063.363	0.934	1080789	WORD_OFF	n/a	n/a	FOG	Weather	2	10	[0, 0, 0]	n/a	catFR1	1	R1472T
1064.297	1.6	1081728	WORD	n/a	wordpools/wordpool_categorized_EN.txt	SHOES	Clothing	3	10	[0, 0, 0]	n/a	catFR1	1	R1472T
1065.897	0.766	1083329	WORD_OFF	n/a	n/a	SHOES	Clothing	3	10	[0, 0, 0]	n/a	catFR1	1	R1472T
1066.663	1.6	1084096	WORD	n/a	wordpools/wordpool_categorized_EN.txt	SHIRT	Clothing	4	10	[0, 0, 0]	n/a	catFR1	1	R1472T
1068.263	1.001	1085696	WORD_OFF	n/a	n/a	SHIRT	Clothing	4	10	[0, 0, 0]	n/a	catFR1	1	R1472T
1069.264	1.6	1086701	WORD	n/a	wordpools/wordpool_categorized_EN.txt	DRYER	Appliances	5	10	[0, 0, 0]	n/a	catFR1	1	R1472T
1070.864	0.883	1088289	WORD_OFF	n/a	n/a	DRYER	Appliances	5	10	[0, 0, 0]	n/a	catFR1	1	R1472T
1071.747	1.6	1089175	WORD	n/a	wordpools/wordpool_categorized_EN.txt	DISHWASHER	Appliances	6	10	[0, 0, 0]	n/a	catFR1	1	R1472T
1073.347	0.933	1090775	WORD_OFF	n/a	n/a	DISHWASHER	Appliances	6	10	[0, 0, 0]	n/a	catFR1	1	R1472T
1074.28	1.6	1091714	WORD	n/a	wordpools/wordpool_categorized_EN.txt	CLOUD	Weather	7	10	[0, 0, 0]	n/a	catFR1	1	R1472T
1075.88	0.799	1093315	WORD_OFF	n/a	n/a	CLOUD	Weather	7	10	[0, 0, 0]	n/a	catFR1	1	R1472T
1076.679	1.6	1094108	WORD	n/a	wordpools/wordpool_categorized_EN.txt	HUMIDITY	Weather	8	10	[0, 0, 0]	n/a	catFR1	1	R1472T
1078.28	0.883	1095709	WORD_OFF	n/a	n/a	HUMIDITY	Weather	8	10	[0, 0, 0]	n/a	catFR1	1	R1472T
1079.163	1.6	1096595	WORD	n/a	wordpools/wordpool_categorized_EN.txt	TOASTER	Appliances	9	10	[0, 0, 0]	n/a	catFR1	1	R1472T
1080.78	0.983	1098209	WORD_OFF	n/a	n/a	TOASTER	Appliances	9	10	[0, 0, 0]	n/a	catFR1	1	R1472T
1081.763	1.6	1099187	WORD	n/a	wordpools/wordpool_categorized_EN.txt	REFRIGERATOR	Appliances	10	10	[0, 0, 0]	n/a	catFR1	1	R1472T
1083.364	0.933	1100788	WORD_OFF	n/a	n/a	REFRIGERATOR	Appliances	10	10	[0, 0, 0]	n/a	catFR1	1	R1472T
1084.297	1.6	1101727	WORD	n/a	wordpools/wordpool_categorized_EN.txt	PANTS	Clothing	11	10	[0, 0, 0]	n/a	catFR1	1	R1472T
1085.897	0.9	1103327	WORD_OFF	n/a	n/a	PANTS	Clothing	11	10	[0, 0, 0]	n/a	catFR1	1	R1472T
1086.797	1.6	1104227	WORD	n/a	wordpools/wordpool_categorized_EN.txt	COAT	Clothing	12	10	[0, 0, 0]	n/a	catFR1	1	R1472T
1088.413	0.001	1105840	WORD_OFF	n/a	n/a	COAT	Clothing	12	10	[0, 0, 0]	n/a	catFR1	1	R1472T
1088.414	0.0	1105840	ENCODING_END	n/a	n/a	n/a	n/a	-999	10	[0, 0, 0]	n/a	catFR1	1	R1472T
1088.414	0.0	1105840	DISTRACT_START	n/a	n/a	n/a	n/a	-999	10	[0, 0, 0]	n/a	catFR1	1	R1472T
1088.413	0.001	1105840	PROB	3.2	n/a	n/a	n/a	-999	10	[3, 7, 3]	13.0	catFR1	1	R1472T
1088.414	3.217	1105841	START	n/a	n/a	n/a	n/a	-999	10	[-999, -999, -999]	n/a	catFR1	1	R1472T
1091.631	3.816	1109057	PROB	3.799	n/a	n/a	n/a	-999	10	[5, 8, 3]	16.0	catFR1	1	R1472T
1095.447	4.966	1112873	PROB	4.95	n/a	n/a	n/a	-999	10	[8, 4, 5]	17.0	catFR1	1	R1472T
1100.413	3.634	1117839	PROB	3.616	n/a	n/a	n/a	-999	10	[2, 3, 6]	11.0	catFR1	1	R1472T
1104.047	4.65	1121473	PROB	4.633	n/a	n/a	n/a	-999	10	[8, 5, 7]	20.0	catFR1	1	R1472T
1108.697	0.0	1126123	STOP	n/a	n/a	n/a	n/a	-999	10	[-999, -999, -999]	n/a	catFR1	1	R1472T
1108.697	2.066	1126130	DISTRACT_END	n/a	n/a	n/a	n/a	-999	10	[0, 0, 0]	n/a	catFR1	1	R1472T
1110.763	10.074	1128188	REC_START	n/a	n/a	n/a	n/a	-999	10	[0, 0, 0]	n/a	catFR1	1	R1472T
1120.837	0.221	1138262	REC_WORD_VV	10.074	n/a	<>	n/a	-999	10	[0, 0, 0]	n/a	catFR1	1	R1472T
1121.058	1.824	1138483	REC_WORD	10.295	n/a	SHOES	Clothing	3	10	[0, 0, 0]	n/a	catFR1	1	R1472T
1122.882	1.539	1140307	REC_WORD	12.119	n/a	SOCKS	Clothing	-999	10	[0, 0, 0]	n/a	catFR1	1	R1472T
1124.421	1.718	1141846	REC_WORD	13.658	n/a	COAT	Clothing	12	10	[0, 0, 0]	n/a	catFR1	1	R1472T
1126.139	2.826	1143564	REC_WORD	15.376	n/a	HURRICANE	Weather	1	10	[0, 0, 0]	n/a	catFR1	1	R1472T
1128.965	1.162	1146390	REC_WORD_VV	18.202	n/a	<>	n/a	-999	10	[0, 0, 0]	n/a	catFR1	1	R1472T
1130.127	3.206	1147552	REC_WORD	19.364	n/a	FOG	Weather	2	10	[0, 0, 0]	n/a	catFR1	1	R1472T
1133.333	4.314	1150757	REC_WORD	22.57	n/a	RAIN	Weather	-999	10	[0, 0, 0]	n/a	catFR1	1	R1472T
1137.647	3.346	1155071	REC_WORD	26.884	n/a	COAT	Clothing	12	10	[0, 0, 0]	n/a	catFR1	1	R1472T
1140.993	1.37	1158416	REC_END	n/a	n/a	n/a	n/a	-999	10	[0, 0, 0]	n/a	catFR1	1	R1472T
1142.363	10.0	1159792	COUNTDOWN_START	n/a	n/a	n/a	n/a	-999	11	[0, 0, 0]	n/a	catFR1	1	R1472T
1152.713	0.0	1170135	COUNTDOWN_END	n/a	n/a	n/a	n/a	-999	11	[0, 0, 0]	n/a	catFR1	1	R1472T
1152.713	2.0	1170148	ENCODING_START	n/a	n/a	n/a	n/a	-999	11	[0, 0, 0]	n/a	catFR1	1	R1472T
1154.713	1.6	1172146	WORD	n/a	wordpools/wordpool_categorized_EN.txt	CAULIFLOWER	Vegetables	1	11	[0, 0, 0]	n/a	catFR1	1	R1472T
1156.313	0.767	1173746	WORD_OFF	n/a	n/a	CAULIFLOWER	Vegetables	1	11	[0, 0, 0]	n/a	catFR1	1	R1472T
1157.08	1.6	1174513	WORD	n/a	wordpools/wordpool_categorized_EN.txt	CABBAGE	Vegetables	2	11	[0, 0, 0]	n/a	catFR1	1	R1472T
1158.697	0.816	1176127	WORD_OFF	n/a	n/a	CABBAGE	Vegetables	2	11	[0, 0, 0]	n/a	catFR1	1	R1472T
1159.513	1.6	1176934	WORD	n/a	wordpools/wordpool_categorized_EN.txt	DRIZZLE	Weather	3	11	[0, 0, 0]	n/a	catFR1	1	R1472T
1161.113	0.883	1178534	WORD_OFF	n/a	n/a	DRIZZLE	Weather	3	11	[0, 0, 0]	n/a	catFR1	1	R1472T
1161.996	1.6	1179420	WORD	n/a	wordpools/wordpool_categorized_EN.txt	LIGHTNING	Weather	4	11	[0, 0, 0]	n/a	catFR1	1	R1472T
1163.597	1.0	1181021	WORD_OFF	n/a	n/a	LIGHTNING	Weather	4	11	[0, 0, 0]	n/a	catFR1	1	R1472T
1164.597	1.6	1182026	WORD	n/a	wordpools/wordpool_categorized_EN.txt	FINGERS	BodyParts	5	11	[0, 0, 0]	n/a	catFR1	1	R1472T
1166.213	0.834	1183640	WORD_OFF	n/a	n/a	FINGERS	BodyParts	5	11	[0, 0, 0]	n/a	catFR1	1	R1472T
1167.047	1.6	1184473	WORD	n/a	wordpools/wordpool_categorized_EN.txt	EYE	BodyParts	6	11	[0, 0, 0]	n/a	catFR1	1	R1472T
1168.663	0.9	1186087	WORD_OFF	n/a	n/a	EYE	BodyParts	6	11	[0, 0, 0]	n/a	catFR1	1	R1472T
1169.563	1.6	1186986	WORD	n/a	wordpools/wordpool_categorized_EN.txt	BROCCOLI	Vegetables	7	11	[0, 0, 0]	n/a	catFR1	1	R1472T
1171.163	0.784	1188586	WORD_OFF	n/a	n/a	BROCCOLI	Vegetables	7	11	[0, 0, 0]	n/a	catFR1	1	R1472T
1171.947	1.6	1189367	WORD	n/a	wordpools/wordpool_categorized_EN.txt	LETTUCE	Vegetables	8	11	[0, 0, 0]	n/a	catFR1	1	R1472T
1173.547	0.866	1190967	WORD_OFF	n/a	n/a	LETTUCE	Vegetables	8	11	[0, 0, 0]	n/a	catFR1	1	R1472T
1174.413	1.6	1191840	WORD	n/a	wordpools/wordpool_categorized_EN.txt	THUNDERSTORM	Weather	9	11	[0, 0, 0]	n/a	catFR1	1	R1472T
1176.03	0.767	1193454	WORD_OFF	n/a	n/a	THUNDERSTORM	Weather	9	11	[0, 0, 0]	n/a	catFR1	1	R1472T
1176.797	1.6	1194221	WORD	n/a	wordpools/wordpool_categorized_EN.txt	SNOW	Weather	10	11	[0, 0, 0]	n/a	catFR1	1	R1472T
1178.413	0.934	1195835	WORD_OFF	n/a	n/a	SNOW	Weather	10	11	[0, 0, 0]	n/a	catFR1	1	R1472T
1179.347	1.6	1196774	WORD	n/a	wordpools/wordpool_categorized_EN.txt	LEG	BodyParts	11	11	[0, 0, 0]	n/a	catFR1	1	R1472T
1180.947	0.782	1198374	WORD_OFF	n/a	n/a	LEG	BodyParts	11	11	[0, 0, 0]	n/a	catFR1	1	R1472T
1181.729	1.6	1199155	WORD	n/a	wordpools/wordpool_categorized_EN.txt	HEAD	BodyParts	12	11	[0, 0, 0]	n/a	catFR1	1	R1472T
1183.331	0.0	1200753	PROB	2.665	n/a	n/a	n/a	-999	11	[7, 3, 8]	18.0	catFR1	1	R1472T
1183.331	0.0	1200753	START	n/a	n/a	n/a	n/a	-999	11	[-999, -999, -999]	n/a	catFR1	1	R1472T
1183.33	0.001	1200755	WORD_OFF	n/a	n/a	HEAD	BodyParts	12	11	[0, 0, 0]	n/a	catFR1	1	R1472T
1183.331	0.0	1200755	ENCODING_END	n/a	n/a	n/a	n/a	-999	11	[0, 0, 0]	n/a	catFR1	1	R1472T
1183.331	2.682	1200755	DISTRACT_START	n/a	n/a	n/a	n/a	-999	11	[0, 0, 0]	n/a	catFR1	1	R1472T
1186.013	2.834	1203435	PROB	2.816	n/a	n/a	n/a	-999	11	[2, 8, 4]	14.0	catFR1	1	R1472T
1188.847	7.832	1206269	PROB	7.816	n/a	n/a	n/a	-999	11	[8, 8, 7]	24.0	catFR1	1	R1472T
1196.679	8.051	1214100	PROB	8.034	n/a	n/a	n/a	-999	11	[8, 8, 5]	21.0	catFR1	1	R1472T
1204.73	0.0	1222151	STOP	n/a	n/a	n/a	n/a	-999	11	[-999, -999, -999]	n/a	catFR1	1	R1472T
1204.73	2.217	1222156	DISTRACT_END	n/a	n/a	n/a	n/a	-999	11	[0, 0, 0]	n/a	catFR1	1	R1472T
1206.947	1.302	1224373	REC_START	n/a	n/a	n/a	n/a	-999	11	[0, 0, 0]	n/a	catFR1	1	R1472T
1208.249	0.719	1225670	REC_WORD_VV	1.302	n/a	<>	n/a	-999	11	[0, 0, 0]	n/a	catFR1	1	R1472T
1208.968	3.831	1226389	REC_WORD	2.021	n/a	THUNDERSTORM	Weather	9	11	[0, 0, 0]	n/a	catFR1	1	R1472T
1212.799	2.507	1230219	REC_WORD_VV	5.852	n/a	<>	n/a	-999	11	[0, 0, 0]	n/a	catFR1	1	R1472T
1215.306	0.531	1232726	REC_WORD	8.359	n/a	BROCCOLI	Vegetables	7	11	[0, 0, 0]	n/a	catFR1	1	R1472T
1215.837	2.583	1233257	REC_WORD	8.89	n/a	CAULIFLOWER	Vegetables	1	11	[0, 0, 0]	n/a	catFR1	1	R1472T
1218.42	3.358	1235840	REC_WORD_VV	11.473	n/a	<>	n/a	-999	11	[0, 0, 0]	n/a	catFR1	1	R1472T
1221.778	6.719	1239198	REC_WORD	14.831	n/a	CABBAGE	Vegetables	2	11	[0, 0, 0]	n/a	catFR1	1	R1472T
1228.497	8.32	1245917	REC_WORD	21.55	n/a	LETTUCE	Vegetables	8	11	[0, 0, 0]	n/a	catFR1	1	R1472T
1236.817	0.354	1254236	REC_WORD_VV	29.87	n/a	<>	n/a	-999	11	[0, 0, 0]	n/a	catFR1	1	R1472T
1237.171	1.458	1254587	REC_END	n/a	n/a	n/a	n/a	-999	11	[0, 0, 0]	n/a	catFR1	1	R1472T
1238.629	10.0	1256056	COUNTDOWN_START	n/a	n/a	n/a	n/a	-999	12	[0, 0, 0]	n/a	catFR1	1	R1472T
1248.98	0.0	1266399	COUNTDOWN_END	n/a	n/a	n/a	n/a	-999	12	[0, 0, 0]	n/a	catFR1	1	R1472T
1248.98	2.3	1266399	ENCODING_START	n/a	n/a	n/a	n/a	-999	12	[0, 0, 0]	n/a	catFR1	1	R1472T
1251.28	1.6	1268700	WORD	n/a	wordpools/wordpool_categorized_EN.txt	DRESSER	Furniture	1	12	[0, 0, 0]	n/a	catFR1	1	R1472T
1252.897	0.9	1270314	WORD_OFF	n/a	n/a	DRESSER	Furniture	1	12	[0, 0, 0]	n/a	catFR1	1	R1472T
1253.797	1.6	1271213	WORD	n/a	wordpools/wordpool_categorized_EN.txt	BED	Furniture	2	12	[0, 0, 0]	n/a	catFR1	1	R1472T
1255.397	0.766	1272814	WORD_OFF	n/a	n/a	BED	Furniture	2	12	[0, 0, 0]	n/a	catFR1	1	R1472T
1256.163	1.6	1273581	WORD	n/a	wordpools/wordpool_categorized_EN.txt	TOE	BodyParts	3	12	[0, 0, 0]	n/a	catFR1	1	R1472T
1257.764	0.8	1275181	WORD_OFF	n/a	n/a	TOE	BodyParts	3	12	[0, 0, 0]	n/a	catFR1	1	R1472T
1258.564	1.6	1275988	WORD	n/a	wordpools/wordpool_categorized_EN.txt	ELBOW	BodyParts	4	12	[0, 0, 0]	n/a	catFR1	1	R1472T
1260.163	0.967	1277589	WORD_OFF	n/a	n/a	ELBOW	BodyParts	4	12	[0, 0, 0]	n/a	catFR1	1	R1472T
1261.13	1.6	1278554	WORD	n/a	wordpools/wordpool_categorized_EN.txt	DAFFODIL	Flowers	5	12	[0, 0, 0]	n/a	catFR1	1	R1472T
1262.747	0.999	1280168	WORD_OFF	n/a	n/a	DAFFODIL	Flowers	5	12	[0, 0, 0]	n/a	catFR1	1	R1472T
1263.746	1.6	1281173	WORD	n/a	wordpools/wordpool_categorized_EN.txt	SUNFLOWER	Flowers	6	12	[0, 0, 0]	n/a	catFR1	1	R1472T
1265.347	0.899	1282773	WORD_OFF	n/a	n/a	SUNFLOWER	Flowers	6	12	[0, 0, 0]	n/a	catFR1	1	R1472T
1266.246	1.6	1283673	WORD	n/a	wordpools/wordpool_categorized_EN.txt	ARM	BodyParts	7	12	[0, 0, 0]	n/a	catFR1	1	R1472T
1267.847	0.95	1285273	WORD_OFF	n/a	n/a	ARM	BodyParts	7	12	[0, 0, 0]	n/a	catFR1	1	R1472T
1268.797	1.6	1286212	WORD	n/a	wordpools/wordpool_categorized_EN.txt	FOOT	BodyParts	8	12	[0, 0, 0]	n/a	catFR1	1	R1472T
1270.397	1.0	1287813	WORD_OFF	n/a	n/a	FOOT	BodyParts	8	12	[0, 0, 0]	n/a	catFR1	1	R1472T
1271.397	1.6	1288818	WORD	n/a	wordpools/wordpool_categorized_EN.txt	TABLE	Furniture	9	12	[0, 0, 0]	n/a	catFR1	1	R1472T
1272.997	0.865	1290418	WORD_OFF	n/a	n/a	TABLE	Furniture	9	12	[0, 0, 0]	n/a	catFR1	1	R1472T
1273.862	1.6	1291278	WORD	n/a	wordpools/wordpool_categorized_EN.txt	SOFA	Furniture	10	12	[0, 0, 0]	n/a	catFR1	1	R1472T
1275.463	0.85	1292879	WORD_OFF	n/a	n/a	SOFA	Furniture	10	12	[0, 0, 0]	n/a	catFR1	1	R1472T
1276.313	1.6	1293738	WORD	n/a	wordpools/wordpool_categorized_EN.txt	MARIGOLD	Flowers	11	12	[0, 0, 0]	n/a	catFR1	1	R1472T
1277.913	0.95	1295339	WORD_OFF	n/a	n/a	MARIGOLD	Flowers	11	12	[0, 0, 0]	n/a	catFR1	1	R1472T
1278.863	1.6	1296278	WORD	n/a	wordpools/wordpool_categorized_EN.txt	DAISY	Flowers	12	12	[0, 0, 0]	n/a	catFR1	1	R1472T
1280.463	0.0	1297878	WORD_OFF	n/a	n/a	DAISY	Flowers	12	12	[0, 0, 0]	n/a	catFR1	1	R1472T
1280.463	0.001	1297880	PROB	2.399	n/a	n/a	n/a	-999	12	[2, 5, 1]	8.0	catFR1	1	R1472T
1280.464	0.0	1297881	START	n/a	n/a	n/a	n/a	-999	12	[-999, -999, -999]	n/a	catFR1	1	R1472T
1280.464	0.0	1297892	ENCODING_END	n/a	n/a	n/a	n/a	-999	12	[0, 0, 0]	n/a	catFR1	1	R1472T
1280.464	2.416	1297892	DISTRACT_START	n/a	n/a	n/a	n/a	-999	12	[0, 0, 0]	n/a	catFR1	1	R1472T
1282.88	3.684	1300297	PROB	3.666	n/a	n/a	n/a	-999	12	[1, 5, 8]	14.0	catFR1	1	R1472T
1286.564	3.5	1303980	PROB	3.483	n/a	n/a	n/a	-999	12	[5, 6, 8]	19.0	catFR1	1	R1472T
1290.064	3.817	1307480	PROB	3.799	n/a	n/a	n/a	-999	12	[8, 6, 3]	17.0	catFR1	1	R1472T
1293.881	3.566	1311297	PROB	3.549	n/a	n/a	n/a	-999	12	[5, 7, 5]	17.0	catFR1	1	R1472T
1297.447	3.216	1314863	PROB	3.2	n/a	n/a	n/a	-999	12	[6, 1, 3]	10.0	catFR1	1	R1472T
1300.663	0.0	1318079	STOP	n/a	n/a	n/a	n/a	-999	12	[-999, -999, -999]	n/a	catFR1	1	R1472T
1300.663	2.1	1318089	DISTRACT_END	n/a	n/a	n/a	n/a	-999	12	[0, 0, 0]	n/a	catFR1	1	R1472T
1302.763	1.113	1320186	REC_START	n/a	n/a	n/a	n/a	-999	12	[0, 0, 0]	n/a	catFR1	1	R1472T
1303.876	0.506	1321292	REC_WORD	1.113	n/a	DAISY	Flowers	12	12	[0, 0, 0]	n/a	catFR1	1	R1472T
1304.382	2.761	1321798	REC_WORD	1.619	n/a	DAFFODIL	Flowers	5	12	[0, 0, 0]	n/a	catFR1	1	R1472T
1307.143	1.868	1324558	REC_WORD_VV	4.38	n/a	<>	n/a	-999	12	[0, 0, 0]	n/a	catFR1	1	R1472T
1309.011	1.053	1326426	REC_WORD	6.248	n/a	DRESSER	Furniture	1	12	[0, 0, 0]	n/a	catFR1	1	R1472T
1310.064	0.924	1327479	REC_WORD	7.301	n/a	BED	Furniture	2	12	[0, 0, 0]	n/a	catFR1	1	R1472T
1310.988	7.689	1328403	REC_WORD	8.225	n/a	TOE	BodyParts	3	12	[0, 0, 0]	n/a	catFR1	1	R1472T
1318.677	14.303	1336092	REC_WORD	15.914	n/a	DESK	Furniture	-999	12	[0, 0, 0]	n/a	catFR1	1	R1472T
1332.98	0.0	1350401	REC_END	n/a	n/a	n/a	n/a	-999	12	[0, 0, 0]	n/a	catFR1	1	R1472T
