onset	duration	sample	trial_type	response_time	stim_file	item_name	category	serialpos	list	test	answer	experiment	session	subject
0.0	6.781	1036210	INSTRUCT_START	n/a	n/a	n/a	n/a	-999	-999	[0, 0, 0]	n/a	catFR1	3	R1409D
6.781	29.916	1042997	INSTRUCT_END	n/a	n/a	n/a	n/a	-999	-999	[0, 0, 0]	n/a	catFR1	3	R1409D
36.697	10.351	1072903	COUNTDOWN_START	n/a	n/a	n/a	n/a	-999	-999	[0, 0, 0]	n/a	catFR1	3	R1409D
47.048	0.0	1083251	COUNTDOWN_END	n/a	n/a	n/a	n/a	-999	-999	[0, 0, 0]	n/a	catFR1	3	R1409D
47.048	2.183	1083263	ENCODING_START	n/a	n/a	n/a	n/a	-999	-1	[0, 0, 0]	n/a	catFR1	3	R1409D
49.231	1.599	1085438	WORD	n/a	n/a	BOAT	Vehicles	1	-1	[0, 0, 0]	n/a	catFR1	3	R1409D
50.83	0.783	1087039	WORD_OFF	n/a	n/a	BOAT	Vehicles	1	-1	[0, 0, 0]	n/a	catFR1	3	R1409D
51.613	1.617	1087817	WORD	n/a	n/a	BIKE	Vehicles	2	-1	[0, 0, 0]	n/a	catFR1	3	R1409D
53.23	0.833	1089440	WORD_OFF	n/a	n/a	BIKE	Vehicles	2	-1	[0, 0, 0]	n/a	catFR1	3	R1409D
54.063	1.6	1090274	WORD	n/a	n/a	DENIM	Fabric	3	-1	[0, 0, 0]	n/a	catFR1	3	R1409D
55.663	0.767	1091875	WORD_OFF	n/a	n/a	DENIM	Fabric	3	-1	[0, 0, 0]	n/a	catFR1	3	R1409D
56.43	1.6	1092642	WORD	n/a	n/a	VELVET	Fabric	4	-1	[0, 0, 0]	n/a	catFR1	3	R1409D
58.03	0.766	1094242	WORD_OFF	n/a	n/a	VELVET	Fabric	4	-1	[0, 0, 0]	n/a	catFR1	3	R1409D
58.796	1.601	1095009	WORD	n/a	n/a	RADIO	Electronics	5	-1	[0, 0, 0]	n/a	catFR1	3	R1409D
60.397	0.865	1096610	WORD_OFF	n/a	n/a	RADIO	Electronics	5	-1	[0, 0, 0]	n/a	catFR1	3	R1409D
61.262	1.601	1097466	WORD	n/a	n/a	SPEAKER	Electronics	6	-1	[0, 0, 0]	n/a	catFR1	3	R1409D
62.863	0.884	1099067	WORD_OFF	n/a	n/a	SPEAKER	Electronics	6	-1	[0, 0, 0]	n/a	catFR1	3	R1409D
63.747	1.6	1099958	WORD	n/a	n/a	MOPED	Vehicles	7	-1	[0, 0, 0]	n/a	catFR1	3	R1409D
65.347	0.849	1101558	WORD_OFF	n/a	n/a	MOPED	Vehicles	7	-1	[0, 0, 0]	n/a	catFR1	3	R1409D
66.196	1.601	1102404	WORD	n/a	n/a	CAR	Vehicles	8	-1	[0, 0, 0]	n/a	catFR1	3	R1409D
67.797	0.916	1104016	WORD_OFF	n/a	n/a	CAR	Vehicles	8	-1	[0, 0, 0]	n/a	catFR1	3	R1409D
68.713	1.617	1104918	WORD	n/a	n/a	SPANDEX	Fabric	9	-1	[0, 0, 0]	n/a	catFR1	3	R1409D
70.33	0.816	1106541	WORD_OFF	n/a	n/a	SPANDEX	Fabric	9	-1	[0, 0, 0]	n/a	catFR1	3	R1409D
71.146	1.6	1107353	WORD	n/a	n/a	SUEDE	Fabric	10	-1	[0, 0, 0]	n/a	catFR1	3	R1409D
72.746	0.884	1108953	WORD_OFF	n/a	n/a	SUEDE	Fabric	10	-1	[0, 0, 0]	n/a	catFR1	3	R1409D
73.63	1.616	1109833	WORD	n/a	n/a	PHONE	Electronics	11	-1	[0, 0, 0]	n/a	catFR1	3	R1409D
75.246	0.783	1111456	WORD_OFF	n/a	n/a	PHONE	Electronics	11	-1	[0, 0, 0]	n/a	catFR1	3	R1409D
76.029	1.601	1112234	WORD	n/a	n/a	CALCULATOR	Electronics	12	-1	[0, 0, 0]	n/a	catFR1	3	R1409D
77.63	0.001	1113834	WORD_OFF	n/a	n/a	CALCULATOR	Electronics	12	-1	[0, 0, 0]	n/a	catFR1	3	R1409D
77.631	0.0	1113834	ENCODING_END	n/a	n/a	n/a	n/a	-999	-1	[0, 0, 0]	n/a	catFR1	3	R1409D
77.631	0.0	1113834	DISTRACT_START	n/a	n/a	n/a	n/a	-999	-1	[0, 0, 0]	n/a	catFR1	3	R1409D
77.631	0.0	1113837	START	n/a	n/a	n/a	n/a	-999	-1	[-999, -999, -999]	n/a	catFR1	3	R1409D
77.631	5.266	1113837	PROB	5.266	n/a	n/a	n/a	-999	-1	[4, 1, 5]	10	catFR1	3	R1409D
82.897	3.866	1119103	PROB	3.866	n/a	n/a	n/a	-999	-1	[4, 3, 7]	14	catFR1	3	R1409D
86.763	3.618	1122969	PROB	3.618	n/a	n/a	n/a	-999	-1	[8, 8, 6]	22	catFR1	3	R1409D
90.381	2.983	1126586	PROB	2.983	n/a	n/a	n/a	-999	-1	[2, 5, 4]	11	catFR1	3	R1409D
93.364	2.9	1129569	PROB	2.9	n/a	n/a	n/a	-999	-1	[2, 1, 8]	11	catFR1	3	R1409D
96.264	3.483	1132469	PROB	3.483	n/a	n/a	n/a	-999	-1	[1, 2, 6]	9	catFR1	3	R1409D
99.747	0.0	1135951	DISTRACT_END	n/a	n/a	n/a	n/a	-999	-1	[0, 0, 0]	n/a	catFR1	3	R1409D
99.747	1.183	1135952	STOP	n/a	n/a	n/a	n/a	-999	-1	[-999, -999, -999]	n/a	catFR1	3	R1409D
100.93	1.409	1137135	REC_START	n/a	n/a	n/a	n/a	-999	-1	[0, 0, 0]	n/a	catFR1	3	R1409D
102.339	4.674	1138544	REC_WORD	4.674	n/a	SPANDEX	Fabric	9	-1	[0, 0, 0]	n/a	catFR1	3	R1409D
107.013	5.174	1143218	REC_WORD	5.174	n/a	CALCULATOR	Electronics	12	-1	[0, 0, 0]	n/a	catFR1	3	R1409D
112.187	6.991	1148391	REC_WORD	6.991	n/a	DENIM	Fabric	3	-1	[0, 0, 0]	n/a	catFR1	3	R1409D
119.178	6.859	1155382	REC_WORD_VV	6.859	n/a	<>	n/a	-999	-1	[0, 0, 0]	n/a	catFR1	3	R1409D
126.037	6.12	1162241	REC_WORD	6.12	n/a	DENIM	Fabric	3	-1	[0, 0, 0]	n/a	catFR1	3	R1409D
132.157	6.006	1168360	REC_END	n/a	n/a	n/a	n/a	-999	-1	[0, 0, 0]	n/a	catFR1	3	R1409D
138.163	10.35	1174369	COUNTDOWN_START	n/a	n/a	n/a	n/a	-999	1	[0, 0, 0]	n/a	catFR1	3	R1409D
148.513	0.0	1184717	COUNTDOWN_END	n/a	n/a	n/a	n/a	-999	1	[0, 0, 0]	n/a	catFR1	3	R1409D
148.513	2.183	1184717	ENCODING_START	n/a	n/a	n/a	n/a	-999	1	[0, 0, 0]	n/a	catFR1	3	R1409D
150.696	1.6	1186904	WORD	n/a	wordpools/wordpool_categorized_EN.txt	TULIP	Flowers	1	1	[0, 0, 0]	n/a	catFR1	3	R1409D
152.296	0.867	1188505	WORD_OFF	n/a	n/a	TULIP	Flowers	1	1	[0, 0, 0]	n/a	catFR1	3	R1409D
153.163	1.6	1189362	WORD	n/a	wordpools/wordpool_categorized_EN.txt	CARNATION	Flowers	2	1	[0, 0, 0]	n/a	catFR1	3	R1409D
154.763	0.85	1190962	WORD_OFF	n/a	n/a	CARNATION	Flowers	2	1	[0, 0, 0]	n/a	catFR1	3	R1409D
155.613	1.616	1191819	WORD	n/a	wordpools/wordpool_categorized_EN.txt	TONGS	KitchenTools	3	1	[0, 0, 0]	n/a	catFR1	3	R1409D
157.229	0.966	1193431	WORD_OFF	n/a	n/a	TONGS	KitchenTools	3	1	[0, 0, 0]	n/a	catFR1	3	R1409D
158.195	1.601	1194400	WORD	n/a	wordpools/wordpool_categorized_EN.txt	WHISK	KitchenTools	4	1	[0, 0, 0]	n/a	catFR1	3	R1409D
159.796	0.766	1196001	WORD_OFF	n/a	n/a	WHISK	KitchenTools	4	1	[0, 0, 0]	n/a	catFR1	3	R1409D
160.562	1.617	1196768	WORD	n/a	wordpools/wordpool_categorized_EN.txt	STAPLER	OfficeSupplies	5	1	[0, 0, 0]	n/a	catFR1	3	R1409D
162.179	1.001	1198380	WORD_OFF	n/a	n/a	STAPLER	OfficeSupplies	5	1	[0, 0, 0]	n/a	catFR1	3	R1409D
163.18	1.6	1199383	WORD	n/a	wordpools/wordpool_categorized_EN.txt	MARKER	OfficeSupplies	6	1	[0, 0, 0]	n/a	catFR1	3	R1409D
164.78	0.866	1200984	WORD_OFF	n/a	n/a	MARKER	OfficeSupplies	6	1	[0, 0, 0]	n/a	catFR1	3	R1409D
165.646	1.601	1201852	WORD	n/a	wordpools/wordpool_categorized_EN.txt	SPATULA	KitchenTools	7	1	[0, 0, 0]	n/a	catFR1	3	R1409D
167.247	1.0	1203452	WORD_OFF	n/a	n/a	SPATULA	KitchenTools	7	1	[0, 0, 0]	n/a	catFR1	3	R1409D
168.247	1.6	1204444	WORD	n/a	wordpools/wordpool_categorized_EN.txt	CORKSCREW	KitchenTools	8	1	[0, 0, 0]	n/a	catFR1	3	R1409D
169.847	0.9	1206045	WORD_OFF	n/a	n/a	CORKSCREW	KitchenTools	8	1	[0, 0, 0]	n/a	catFR1	3	R1409D
170.747	1.616	1206947	WORD	n/a	wordpools/wordpool_categorized_EN.txt	FOLDER	OfficeSupplies	9	1	[0, 0, 0]	n/a	catFR1	3	R1409D
172.363	0.767	1208570	WORD_OFF	n/a	n/a	FOLDER	OfficeSupplies	9	1	[0, 0, 0]	n/a	catFR1	3	R1409D
173.13	1.617	1209337	WORD	n/a	wordpools/wordpool_categorized_EN.txt	ERASER	OfficeSupplies	10	1	[0, 0, 0]	n/a	catFR1	3	R1409D
174.747	0.966	1210949	WORD_OFF	n/a	n/a	ERASER	OfficeSupplies	10	1	[0, 0, 0]	n/a	catFR1	3	R1409D
175.713	1.617	1211918	WORD	n/a	wordpools/wordpool_categorized_EN.txt	LILY	Flowers	11	1	[0, 0, 0]	n/a	catFR1	3	R1409D
177.33	0.966	1213530	WORD_OFF	n/a	n/a	LILY	Flowers	11	1	[0, 0, 0]	n/a	catFR1	3	R1409D
178.296	1.602	1214500	WORD	n/a	wordpools/wordpool_categorized_EN.txt	DAISY	Flowers	12	1	[0, 0, 0]	n/a	catFR1	3	R1409D
179.898	0.0	1216099	START	n/a	n/a	n/a	n/a	-999	1	[-999, -999, -999]	n/a	catFR1	3	R1409D
179.898	0.0	1216099	PROB	0.0	n/a	n/a	n/a	-999	1	[7, 1, 4]	12	catFR1	3	R1409D
179.897	0.001	1216100	WORD_OFF	n/a	n/a	DAISY	Flowers	12	1	[0, 0, 0]	n/a	catFR1	3	R1409D
179.898	0.0	1216100	ENCODING_END	n/a	n/a	n/a	n/a	-999	1	[0, 0, 0]	n/a	catFR1	3	R1409D
179.898	4.165	1216100	DISTRACT_START	n/a	n/a	n/a	n/a	-999	1	[0, 0, 0]	n/a	catFR1	3	R1409D
184.063	3.768	1220264	PROB	3.768	n/a	n/a	n/a	-999	1	[2, 1, 6]	9	catFR1	3	R1409D
187.831	3.399	1224032	PROB	3.399	n/a	n/a	n/a	-999	1	[1, 2, 7]	10	catFR1	3	R1409D
191.23	4.084	1227430	PROB	4.084	n/a	n/a	n/a	-999	1	[2, 3, 6]	11	catFR1	3	R1409D
195.314	3.666	1231514	PROB	3.666	n/a	n/a	n/a	-999	1	[1, 8, 4]	13	catFR1	3	R1409D
198.98	3.633	1235180	PROB	3.633	n/a	n/a	n/a	-999	1	[2, 6, 2]	10	catFR1	3	R1409D
202.613	0.0	1238813	STOP	n/a	n/a	n/a	n/a	-999	1	[-999, -999, -999]	n/a	catFR1	3	R1409D
202.613	1.249	1238815	DISTRACT_END	n/a	n/a	n/a	n/a	-999	1	[0, 0, 0]	n/a	catFR1	3	R1409D
203.862	1.54	1240066	REC_START	n/a	n/a	n/a	n/a	-999	1	[0, 0, 0]	n/a	catFR1	3	R1409D
205.402	1.171	1241602	REC_WORD	1.171	n/a	LILY	Flowers	11	1	[0, 0, 0]	n/a	catFR1	3	R1409D
206.573	2.8	1242773	REC_WORD	2.8	n/a	DAISY	Flowers	12	1	[0, 0, 0]	n/a	catFR1	3	R1409D
209.373	4.534	1245572	REC_WORD	4.534	n/a	SPATULA	KitchenTools	7	1	[0, 0, 0]	n/a	catFR1	3	R1409D
213.907	0.428	1250106	REC_WORD	0.428	n/a	LILY	Flowers	11	1	[0, 0, 0]	n/a	catFR1	3	R1409D
214.335	0.507	1250534	REC_WORD	0.507	n/a	DAISY	Flowers	12	1	[0, 0, 0]	n/a	catFR1	3	R1409D
214.842	13.735	1251041	REC_WORD	13.735	n/a	SPATULA	KitchenTools	7	1	[0, 0, 0]	n/a	catFR1	3	R1409D
228.577	6.501	1264775	REC_WORD	6.501	n/a	TONGS	KitchenTools	3	1	[0, 0, 0]	n/a	catFR1	3	R1409D
235.078	1.752	1271280	REC_END	n/a	n/a	n/a	n/a	-999	1	[0, 0, 0]	n/a	catFR1	3	R1409D
236.83	10.35	1273028	COUNTDOWN_START	n/a	n/a	n/a	n/a	-999	1	[0, 0, 0]	n/a	catFR1	3	R1409D
247.18	0.0	1283376	COUNTDOWN_END	n/a	n/a	n/a	n/a	-999	1	[0, 0, 0]	n/a	catFR1	3	R1409D
247.18	2.332	1283376	ENCODING_START	n/a	n/a	n/a	n/a	-999	2	[0, 0, 0]	n/a	catFR1	3	R1409D
249.512	1.601	1285709	WORD	n/a	wordpools/wordpool_categorized_EN.txt	TABLE	Furniture	1	2	[0, 0, 0]	n/a	catFR1	3	R1409D
251.113	0.866	1287310	WORD_OFF	n/a	n/a	TABLE	Furniture	1	2	[0, 0, 0]	n/a	catFR1	3	R1409D
251.979	1.601	1288178	WORD	n/a	wordpools/wordpool_categorized_EN.txt	SOFA	Furniture	2	2	[0, 0, 0]	n/a	catFR1	3	R1409D
253.58	0.949	1289779	WORD_OFF	n/a	n/a	SOFA	Furniture	2	2	[0, 0, 0]	n/a	catFR1	3	R1409D
254.529	1.601	1290726	WORD	n/a	wordpools/wordpool_categorized_EN.txt	ORCHID	Flowers	3	2	[0, 0, 0]	n/a	catFR1	3	R1409D
256.13	0.95	1292327	WORD_OFF	n/a	n/a	ORCHID	Flowers	3	2	[0, 0, 0]	n/a	catFR1	3	R1409D
257.08	1.6	1293273	WORD	n/a	wordpools/wordpool_categorized_EN.txt	LILAC	Flowers	4	2	[0, 0, 0]	n/a	catFR1	3	R1409D
258.68	0.933	1294874	WORD_OFF	n/a	n/a	LILAC	Flowers	4	2	[0, 0, 0]	n/a	catFR1	3	R1409D
259.613	1.601	1295810	WORD	n/a	wordpools/wordpool_categorized_EN.txt	TOASTER	Appliances	5	2	[0, 0, 0]	n/a	catFR1	3	R1409D
261.214	0.85	1297411	WORD_OFF	n/a	n/a	TOASTER	Appliances	5	2	[0, 0, 0]	n/a	catFR1	3	R1409D
262.064	1.616	1298267	WORD	n/a	wordpools/wordpool_categorized_EN.txt	WASHER	Appliances	6	2	[0, 0, 0]	n/a	catFR1	3	R1409D
263.68	0.816	1299879	WORD_OFF	n/a	n/a	WASHER	Appliances	6	2	[0, 0, 0]	n/a	catFR1	3	R1409D
264.496	1.601	1300691	WORD	n/a	wordpools/wordpool_categorized_EN.txt	CABINET	Furniture	7	2	[0, 0, 0]	n/a	catFR1	3	R1409D
266.097	0.866	1302292	WORD_OFF	n/a	n/a	CABINET	Furniture	7	2	[0, 0, 0]	n/a	catFR1	3	R1409D
266.963	1.601	1303160	WORD	n/a	wordpools/wordpool_categorized_EN.txt	DRESSER	Furniture	8	2	[0, 0, 0]	n/a	catFR1	3	R1409D
268.564	0.833	1304760	WORD_OFF	n/a	n/a	DRESSER	Furniture	8	2	[0, 0, 0]	n/a	catFR1	3	R1409D
269.397	1.616	1305595	WORD	n/a	wordpools/wordpool_categorized_EN.txt	STOVE	Appliances	9	2	[0, 0, 0]	n/a	catFR1	3	R1409D
271.013	0.983	1307207	WORD_OFF	n/a	n/a	STOVE	Appliances	9	2	[0, 0, 0]	n/a	catFR1	3	R1409D
271.996	1.6	1308192	WORD	n/a	wordpools/wordpool_categorized_EN.txt	MIXER	Appliances	10	2	[0, 0, 0]	n/a	catFR1	3	R1409D
273.596	0.968	1309788	WORD_OFF	n/a	n/a	MIXER	Appliances	10	2	[0, 0, 0]	n/a	catFR1	3	R1409D
274.564	1.616	1310757	WORD	n/a	wordpools/wordpool_categorized_EN.txt	DAFFODIL	Flowers	11	2	[0, 0, 0]	n/a	catFR1	3	R1409D
276.18	0.767	1312381	WORD_OFF	n/a	n/a	DAFFODIL	Flowers	11	2	[0, 0, 0]	n/a	catFR1	3	R1409D
276.947	1.617	1313147	WORD	n/a	wordpools/wordpool_categorized_EN.txt	PETUNIA	Flowers	12	2	[0, 0, 0]	n/a	catFR1	3	R1409D
278.564	0.001	1314759	WORD_OFF	n/a	n/a	PETUNIA	Flowers	12	2	[0, 0, 0]	n/a	catFR1	3	R1409D
278.565	0.0	1314759	ENCODING_END	n/a	n/a	n/a	n/a	-999	2	[0, 0, 0]	n/a	catFR1	3	R1409D
278.565	0.0	1314759	DISTRACT_START	n/a	n/a	n/a	n/a	-999	2	[0, 0, 0]	n/a	catFR1	3	R1409D
278.564	0.001	1314760	PROB	0.001	n/a	n/a	n/a	-999	2	[1, 7, 2]	11	catFR1	3	R1409D
278.565	3.249	1314761	START	n/a	n/a	n/a	n/a	-999	2	[-999, -999, -999]	n/a	catFR1	3	R1409D
281.814	4.734	1318010	PROB	4.734	n/a	n/a	n/a	-999	2	[6, 8, 3]	17	catFR1	3	R1409D
286.548	3.916	1322744	PROB	3.916	n/a	n/a	n/a	-999	2	[1, 2, 4]	7	catFR1	3	R1409D
290.464	3.266	1326659	PROB	3.266	n/a	n/a	n/a	-999	2	[2, 3, 1]	6	catFR1	3	R1409D
293.73	3.25	1329925	PROB	3.25	n/a	n/a	n/a	-999	2	[2, 2, 3]	7	catFR1	3	R1409D
296.98	3.215	1333175	PROB	3.215	n/a	n/a	n/a	-999	2	[5, 2, 2]	9	catFR1	3	R1409D
300.195	0.0	1336390	STOP	n/a	n/a	n/a	n/a	-999	2	[-999, -999, -999]	n/a	catFR1	3	R1409D
300.195	1.185	1336392	DISTRACT_END	n/a	n/a	n/a	n/a	-999	2	[0, 0, 0]	n/a	catFR1	3	R1409D
301.38	1.232	1337575	REC_START	n/a	n/a	n/a	n/a	-999	2	[0, 0, 0]	n/a	catFR1	3	R1409D
302.612	1.398	1338807	REC_WORD	1.398	n/a	DAFFODIL	Flowers	11	2	[0, 0, 0]	n/a	catFR1	3	R1409D
304.01	2.479	1340205	REC_WORD	2.479	n/a	PETUNIA	Flowers	12	2	[0, 0, 0]	n/a	catFR1	3	R1409D
306.489	12.777	1342684	REC_WORD_VV	12.777	n/a	<>	n/a	-999	2	[0, 0, 0]	n/a	catFR1	3	R1409D
319.266	5.171	1355460	REC_WORD_VV	5.171	n/a	<>	n/a	-999	2	[0, 0, 0]	n/a	catFR1	3	R1409D
324.437	8.177	1360631	REC_WORD	8.177	n/a	STAPLER	OfficeSupplies	-999	2	[0, 0, 0]	n/a	catFR1	3	R1409D
332.614	1.616	1368812	REC_END	n/a	n/a	n/a	n/a	-999	2	[0, 0, 0]	n/a	catFR1	3	R1409D
334.23	10.35	1370424	COUNTDOWN_START	n/a	n/a	n/a	n/a	-999	2	[0, 0, 0]	n/a	catFR1	3	R1409D
344.58	0.0	1380772	COUNTDOWN_END	n/a	n/a	n/a	n/a	-999	2	[0, 0, 0]	n/a	catFR1	3	R1409D
344.58	2.066	1380772	ENCODING_START	n/a	n/a	n/a	n/a	-999	3	[0, 0, 0]	n/a	catFR1	3	R1409D
346.646	1.618	1382835	WORD	n/a	wordpools/wordpool_categorized_EN.txt	BLENDER	Appliances	1	3	[0, 0, 0]	n/a	catFR1	3	R1409D
348.264	0.999	1384458	WORD_OFF	n/a	n/a	BLENDER	Appliances	1	3	[0, 0, 0]	n/a	catFR1	3	R1409D
349.263	1.6	1385450	WORD	n/a	wordpools/wordpool_categorized_EN.txt	REFRIGERATOR	Appliances	2	3	[0, 0, 0]	n/a	catFR1	3	R1409D
350.863	0.883	1387051	WORD_OFF	n/a	n/a	REFRIGERATOR	Appliances	2	3	[0, 0, 0]	n/a	catFR1	3	R1409D
351.746	1.601	1387942	WORD	n/a	wordpools/wordpool_categorized_EN.txt	COLA	Beverages	3	3	[0, 0, 0]	n/a	catFR1	3	R1409D
353.347	0.783	1389542	WORD_OFF	n/a	n/a	COLA	Beverages	3	3	[0, 0, 0]	n/a	catFR1	3	R1409D
354.13	1.6	1390320	WORD	n/a	wordpools/wordpool_categorized_EN.txt	RUM	Beverages	4	3	[0, 0, 0]	n/a	catFR1	3	R1409D
355.73	0.917	1391921	WORD_OFF	n/a	n/a	RUM	Beverages	4	3	[0, 0, 0]	n/a	catFR1	3	R1409D
356.647	1.6	1392834	WORD	n/a	wordpools/wordpool_categorized_EN.txt	BARBIE	Toys	5	3	[0, 0, 0]	n/a	catFR1	3	R1409D
358.247	0.8	1394435	WORD_OFF	n/a	n/a	BARBIE	Toys	5	3	[0, 0, 0]	n/a	catFR1	3	R1409D
359.047	1.6	1395235	WORD	n/a	wordpools/wordpool_categorized_EN.txt	SLINKY	Toys	6	3	[0, 0, 0]	n/a	catFR1	3	R1409D
360.647	0.916	1396847	WORD_OFF	n/a	n/a	SLINKY	Toys	6	3	[0, 0, 0]	n/a	catFR1	3	R1409D
361.563	1.6	1397760	WORD	n/a	wordpools/wordpool_categorized_EN.txt	BEER	Beverages	7	3	[0, 0, 0]	n/a	catFR1	3	R1409D
363.163	0.884	1399361	WORD_OFF	n/a	n/a	BEER	Beverages	7	3	[0, 0, 0]	n/a	catFR1	3	R1409D
364.047	1.616	1400240	WORD	n/a	wordpools/wordpool_categorized_EN.txt	TEA	Beverages	8	3	[0, 0, 0]	n/a	catFR1	3	R1409D
365.663	0.833	1401852	WORD_OFF	n/a	n/a	TEA	Beverages	8	3	[0, 0, 0]	n/a	catFR1	3	R1409D
366.496	1.6	1402686	WORD	n/a	wordpools/wordpool_categorized_EN.txt	VACUUM	Appliances	9	3	[0, 0, 0]	n/a	catFR1	3	R1409D
368.096	0.934	1404287	WORD_OFF	n/a	n/a	VACUUM	Appliances	9	3	[0, 0, 0]	n/a	catFR1	3	R1409D
369.03	1.6	1405223	WORD	n/a	wordpools/wordpool_categorized_EN.txt	IRON	Appliances	10	3	[0, 0, 0]	n/a	catFR1	3	R1409D
370.63	0.816	1406824	WORD_OFF	n/a	n/a	IRON	Appliances	10	3	[0, 0, 0]	n/a	catFR1	3	R1409D
371.446	1.601	1407635	WORD	n/a	wordpools/wordpool_categorized_EN.txt	MARBLES	Toys	11	3	[0, 0, 0]	n/a	catFR1	3	R1409D
373.047	0.783	1409236	WORD_OFF	n/a	n/a	MARBLES	Toys	11	3	[0, 0, 0]	n/a	catFR1	3	R1409D
373.83	1.602	1410025	WORD	n/a	wordpools/wordpool_categorized_EN.txt	DOLL	Toys	12	3	[0, 0, 0]	n/a	catFR1	3	R1409D
375.432	0.001	1411623	START	n/a	n/a	n/a	n/a	-999	3	[-999, -999, -999]	n/a	catFR1	3	R1409D
375.433	0.0	1411624	PROB	0.0	n/a	n/a	n/a	-999	3	[5, 8, 3]	16	catFR1	3	R1409D
375.43	0.002	1411626	WORD_OFF	n/a	n/a	DOLL	Toys	12	3	[0, 0, 0]	n/a	catFR1	3	R1409D
375.432	0.0	1411626	ENCODING_END	n/a	n/a	n/a	n/a	-999	3	[0, 0, 0]	n/a	catFR1	3	R1409D
375.432	4.866	1411626	DISTRACT_START	n/a	n/a	n/a	n/a	-999	3	[0, 0, 0]	n/a	catFR1	3	R1409D
380.298	3.883	1416489	PROB	3.883	n/a	n/a	n/a	-999	3	[7, 7, 1]	15	catFR1	3	R1409D
384.181	5.033	1420372	PROB	5.033	n/a	n/a	n/a	-999	3	[3, 8, 2]	12	catFR1	3	R1409D
389.214	5.119	1425404	PROB	5.119	n/a	n/a	n/a	-999	3	[7, 4, 2]	13	catFR1	3	R1409D
394.333	4.963	1430523	PROB	4.963	n/a	n/a	n/a	-999	3	[8, 2, 6]	16	catFR1	3	R1409D
399.296	0.0	1435486	STOP	n/a	n/a	n/a	n/a	-999	3	[-999, -999, -999]	n/a	catFR1	3	R1409D
399.296	1.367	1435490	DISTRACT_END	n/a	n/a	n/a	n/a	-999	3	[0, 0, 0]	n/a	catFR1	3	R1409D
400.663	1.137	1436854	REC_START	n/a	n/a	n/a	n/a	-999	3	[0, 0, 0]	n/a	catFR1	3	R1409D
401.8	1.695	1437990	REC_WORD	1.695	n/a	REFRIGERATOR	Appliances	2	3	[0, 0, 0]	n/a	catFR1	3	R1409D
403.495	2.462	1439685	REC_WORD	2.462	n/a	BLENDER	Appliances	1	3	[0, 0, 0]	n/a	catFR1	3	R1409D
405.957	0.668	1442146	REC_WORD_VV	0.668	n/a	<>	n/a	-999	3	[0, 0, 0]	n/a	catFR1	3	R1409D
406.625	1.03	1442814	REC_WORD	1.03	n/a	REFRIGERATOR	Appliances	2	3	[0, 0, 0]	n/a	catFR1	3	R1409D
407.655	13.896	1443844	REC_WORD	13.896	n/a	BLENDER	Appliances	1	3	[0, 0, 0]	n/a	catFR1	3	R1409D
421.551	10.336	1457740	REC_WORD	10.336	n/a	BEER	Beverages	7	3	[0, 0, 0]	n/a	catFR1	3	R1409D
431.887	1.66	1468080	REC_END	n/a	n/a	n/a	n/a	-999	3	[0, 0, 0]	n/a	catFR1	3	R1409D
433.547	10.35	1469737	COUNTDOWN_START	n/a	n/a	n/a	n/a	-999	3	[0, 0, 0]	n/a	catFR1	3	R1409D
443.897	0.0	1480085	COUNTDOWN_END	n/a	n/a	n/a	n/a	-999	3	[0, 0, 0]	n/a	catFR1	3	R1409D
443.897	2.0	1480085	ENCODING_START	n/a	n/a	n/a	n/a	-999	4	[0, 0, 0]	n/a	catFR1	3	R1409D
445.897	1.6	1482080	WORD	n/a	wordpools/wordpool_categorized_EN.txt	MILK	Beverages	1	4	[0, 0, 0]	n/a	catFR1	3	R1409D
447.497	0.966	1483681	WORD_OFF	n/a	n/a	MILK	Beverages	1	4	[0, 0, 0]	n/a	catFR1	3	R1409D
448.463	1.6	1484650	WORD	n/a	wordpools/wordpool_categorized_EN.txt	JUICE	Beverages	2	4	[0, 0, 0]	n/a	catFR1	3	R1409D
450.063	0.767	1486251	WORD_OFF	n/a	n/a	JUICE	Beverages	2	4	[0, 0, 0]	n/a	catFR1	3	R1409D
450.83	1.6	1487018	WORD	n/a	wordpools/wordpool_categorized_EN.txt	BEE	Insects	3	4	[0, 0, 0]	n/a	catFR1	3	R1409D
452.43	0.917	1488618	WORD_OFF	n/a	n/a	BEE	Insects	3	4	[0, 0, 0]	n/a	catFR1	3	R1409D
453.347	1.616	1489532	WORD	n/a	wordpools/wordpool_categorized_EN.txt	SPIDER	Insects	4	4	[0, 0, 0]	n/a	catFR1	3	R1409D
454.963	1.0	1491155	WORD_OFF	n/a	n/a	SPIDER	Insects	4	4	[0, 0, 0]	n/a	catFR1	3	R1409D
455.963	1.617	1492147	WORD	n/a	wordpools/wordpool_categorized_EN.txt	MAPLE	Trees	5	4	[0, 0, 0]	n/a	catFR1	3	R1409D
457.58	0.832	1493770	WORD_OFF	n/a	n/a	MAPLE	Trees	5	4	[0, 0, 0]	n/a	catFR1	3	R1409D
458.412	1.601	1494604	WORD	n/a	wordpools/wordpool_categorized_EN.txt	CYPRESS	Trees	6	4	[0, 0, 0]	n/a	catFR1	3	R1409D
460.013	0.95	1496205	WORD_OFF	n/a	n/a	CYPRESS	Trees	6	4	[0, 0, 0]	n/a	catFR1	3	R1409D
460.963	1.6	1497152	WORD	n/a	wordpools/wordpool_categorized_EN.txt	MOSQUITO	Insects	7	4	[0, 0, 0]	n/a	catFR1	3	R1409D
462.563	0.867	1498753	WORD_OFF	n/a	n/a	MOSQUITO	Insects	7	4	[0, 0, 0]	n/a	catFR1	3	R1409D
463.43	1.616	1499621	WORD	n/a	wordpools/wordpool_categorized_EN.txt	CRICKET	Insects	8	4	[0, 0, 0]	n/a	catFR1	3	R1409D
465.046	0.9	1501233	WORD_OFF	n/a	n/a	CRICKET	Insects	8	4	[0, 0, 0]	n/a	catFR1	3	R1409D
465.946	1.601	1502134	WORD	n/a	wordpools/wordpool_categorized_EN.txt	COFFEE	Beverages	9	4	[0, 0, 0]	n/a	catFR1	3	R1409D
467.547	0.85	1503735	WORD_OFF	n/a	n/a	COFFEE	Beverages	9	4	[0, 0, 0]	n/a	catFR1	3	R1409D
468.397	1.6	1504581	WORD	n/a	wordpools/wordpool_categorized_EN.txt	WATER	Beverages	10	4	[0, 0, 0]	n/a	catFR1	3	R1409D
469.997	0.965	1506181	WORD_OFF	n/a	n/a	WATER	Beverages	10	4	[0, 0, 0]	n/a	catFR1	3	R1409D
470.962	1.6	1507151	WORD	n/a	wordpools/wordpool_categorized_EN.txt	CEDAR	Trees	11	4	[0, 0, 0]	n/a	catFR1	3	R1409D
472.562	0.801	1508751	WORD_OFF	n/a	n/a	CEDAR	Trees	11	4	[0, 0, 0]	n/a	catFR1	3	R1409D
473.363	1.601	1509552	WORD	n/a	wordpools/wordpool_categorized_EN.txt	BIRCH	Trees	12	4	[0, 0, 0]	n/a	catFR1	3	R1409D
474.964	0.001	1511150	PROB	0.001	n/a	n/a	n/a	-999	4	[5, 6, 4]	15	catFR1	3	R1409D
474.965	0.0	1511151	START	n/a	n/a	n/a	n/a	-999	4	[-999, -999, -999]	n/a	catFR1	3	R1409D
474.963	0.002	1511153	WORD_OFF	n/a	n/a	BIRCH	Trees	12	4	[0, 0, 0]	n/a	catFR1	3	R1409D
474.965	0.0	1511153	ENCODING_END	n/a	n/a	n/a	n/a	-999	4	[0, 0, 0]	n/a	catFR1	3	R1409D
474.965	5.097	1511153	DISTRACT_START	n/a	n/a	n/a	n/a	-999	4	[0, 0, 0]	n/a	catFR1	3	R1409D
480.062	3.819	1516248	PROB	3.819	n/a	n/a	n/a	-999	4	[1, 4, 3]	8	catFR1	3	R1409D
483.881	4.467	1520067	PROB	4.467	n/a	n/a	n/a	-999	4	[2, 5, 6]	13	catFR1	3	R1409D
488.348	5.649	1524533	PROB	5.649	n/a	n/a	n/a	-999	4	[7, 3, 3]	13	catFR1	3	R1409D
493.997	3.299	1530182	PROB	3.299	n/a	n/a	n/a	-999	4	[1, 4, 6]	11	catFR1	3	R1409D
497.296	0.0	1533481	STOP	n/a	n/a	n/a	n/a	-999	4	[-999, -999, -999]	n/a	catFR1	3	R1409D
497.296	1.3	1533484	DISTRACT_END	n/a	n/a	n/a	n/a	-999	4	[0, 0, 0]	n/a	catFR1	3	R1409D
498.596	1.993	1534780	REC_START	n/a	n/a	n/a	n/a	-999	4	[0, 0, 0]	n/a	catFR1	3	R1409D
500.589	1.388	1536774	REC_WORD	1.388	n/a	BIRCH	Trees	12	4	[0, 0, 0]	n/a	catFR1	3	R1409D
501.977	11.108	1538162	REC_WORD	11.108	n/a	MILK	Beverages	1	4	[0, 0, 0]	n/a	catFR1	3	R1409D
513.085	16.727	1549269	REC_WORD_VV	16.727	n/a	<>	n/a	-999	4	[0, 0, 0]	n/a	catFR1	3	R1409D
529.812	2.517	1565994	REC_END	n/a	n/a	n/a	n/a	-999	4	[0, 0, 0]	n/a	catFR1	3	R1409D
532.329	10.352	1568519	COUNTDOWN_START	n/a	n/a	n/a	n/a	-999	4	[0, 0, 0]	n/a	catFR1	3	R1409D
542.681	0.0	1578868	COUNTDOWN_END	n/a	n/a	n/a	n/a	-999	4	[0, 0, 0]	n/a	catFR1	3	R1409D
542.681	2.099	1578868	ENCODING_START	n/a	n/a	n/a	n/a	-999	5	[0, 0, 0]	n/a	catFR1	3	R1409D
544.78	1.617	1580965	WORD	n/a	wordpools/wordpool_categorized_EN.txt	BLUEBERRY	Fruit	1	5	[0, 0, 0]	n/a	catFR1	3	R1409D
546.397	0.966	1582577	WORD_OFF	n/a	n/a	BLUEBERRY	Fruit	1	5	[0, 0, 0]	n/a	catFR1	3	R1409D
547.363	1.616	1583546	WORD	n/a	wordpools/wordpool_categorized_EN.txt	PEACH	Fruit	2	5	[0, 0, 0]	n/a	catFR1	3	R1409D
548.979	0.918	1585158	WORD_OFF	n/a	n/a	PEACH	Fruit	2	5	[0, 0, 0]	n/a	catFR1	3	R1409D
549.897	1.616	1586082	WORD	n/a	wordpools/wordpool_categorized_EN.txt	HURRICANE	Weather	3	5	[0, 0, 0]	n/a	catFR1	3	R1409D
551.513	0.784	1587694	WORD_OFF	n/a	n/a	HURRICANE	Weather	3	5	[0, 0, 0]	n/a	catFR1	3	R1409D
552.297	1.616	1588483	WORD	n/a	wordpools/wordpool_categorized_EN.txt	THUNDERSTORM	Weather	4	5	[0, 0, 0]	n/a	catFR1	3	R1409D
553.913	0.767	1590095	WORD_OFF	n/a	n/a	THUNDERSTORM	Weather	4	5	[0, 0, 0]	n/a	catFR1	3	R1409D
554.68	1.6	1590862	WORD	n/a	wordpools/wordpool_categorized_EN.txt	OVEN	Appliances	5	5	[0, 0, 0]	n/a	catFR1	3	R1409D
556.28	0.95	1592463	WORD_OFF	n/a	n/a	OVEN	Appliances	5	5	[0, 0, 0]	n/a	catFR1	3	R1409D
557.23	1.617	1593410	WORD	n/a	wordpools/wordpool_categorized_EN.txt	DRYER	Appliances	6	5	[0, 0, 0]	n/a	catFR1	3	R1409D
558.847	0.783	1595033	WORD_OFF	n/a	n/a	DRYER	Appliances	6	5	[0, 0, 0]	n/a	catFR1	3	R1409D
559.63	1.6	1595811	WORD	n/a	wordpools/wordpool_categorized_EN.txt	RAIN	Weather	7	5	[0, 0, 0]	n/a	catFR1	3	R1409D
561.23	0.949	1597411	WORD_OFF	n/a	n/a	RAIN	Weather	7	5	[0, 0, 0]	n/a	catFR1	3	R1409D
562.179	1.601	1598358	WORD	n/a	wordpools/wordpool_categorized_EN.txt	CLOUD	Weather	8	5	[0, 0, 0]	n/a	catFR1	3	R1409D
563.78	0.983	1599959	WORD_OFF	n/a	n/a	CLOUD	Weather	8	5	[0, 0, 0]	n/a	catFR1	3	R1409D
564.763	1.6	1600951	WORD	n/a	wordpools/wordpool_categorized_EN.txt	DISHWASHER	Appliances	9	5	[0, 0, 0]	n/a	catFR1	3	R1409D
566.363	0.85	1602541	WORD_OFF	n/a	n/a	DISHWASHER	Appliances	9	5	[0, 0, 0]	n/a	catFR1	3	R1409D
567.213	1.617	1603397	WORD	n/a	wordpools/wordpool_categorized_EN.txt	FREEZER	Appliances	10	5	[0, 0, 0]	n/a	catFR1	3	R1409D
568.83	0.866	1605009	WORD_OFF	n/a	n/a	FREEZER	Appliances	10	5	[0, 0, 0]	n/a	catFR1	3	R1409D
569.696	1.6	1605877	WORD	n/a	wordpools/wordpool_categorized_EN.txt	LIME	Fruit	11	5	[0, 0, 0]	n/a	catFR1	3	R1409D
571.296	0.867	1607478	WORD_OFF	n/a	n/a	LIME	Fruit	11	5	[0, 0, 0]	n/a	catFR1	3	R1409D
572.163	1.601	1608346	WORD	n/a	wordpools/wordpool_categorized_EN.txt	CHERRY	Fruit	12	5	[0, 0, 0]	n/a	catFR1	3	R1409D
573.764	0.001	1609945	PROB	0.001	n/a	n/a	n/a	-999	5	[8, 2, 2]	12	catFR1	3	R1409D
573.765	0.0	1609946	START	n/a	n/a	n/a	n/a	-999	5	[-999, -999, -999]	n/a	catFR1	3	R1409D
573.763	0.002	1609947	WORD_OFF	n/a	n/a	CHERRY	Fruit	12	5	[0, 0, 0]	n/a	catFR1	3	R1409D
573.765	0.0	1609947	ENCODING_END	n/a	n/a	n/a	n/a	-999	5	[0, 0, 0]	n/a	catFR1	3	R1409D
573.765	3.749	1609947	DISTRACT_START	n/a	n/a	n/a	n/a	-999	5	[0, 0, 0]	n/a	catFR1	3	R1409D
577.514	2.982	1613695	PROB	2.982	n/a	n/a	n/a	-999	5	[2, 7, 2]	11	catFR1	3	R1409D
580.496	3.518	1616677	PROB	3.518	n/a	n/a	n/a	-999	5	[2, 5, 6]	13	catFR1	3	R1409D
584.014	2.966	1620194	PROB	2.966	n/a	n/a	n/a	-999	5	[2, 1, 1]	4	catFR1	3	R1409D
586.98	4.151	1623160	PROB	4.151	n/a	n/a	n/a	-999	5	[4, 8, 5]	17	catFR1	3	R1409D
591.131	4.965	1627311	PROB	4.965	n/a	n/a	n/a	-999	5	[5, 8, 5]	18	catFR1	3	R1409D
596.096	0.0	1632276	STOP	n/a	n/a	n/a	n/a	-999	5	[-999, -999, -999]	n/a	catFR1	3	R1409D
596.096	1.067	1632278	DISTRACT_END	n/a	n/a	n/a	n/a	-999	5	[0, 0, 0]	n/a	catFR1	3	R1409D
597.163	1.909	1633338	REC_START	n/a	n/a	n/a	n/a	-999	5	[0, 0, 0]	n/a	catFR1	3	R1409D
599.072	0.977	1635252	REC_WORD	0.977	n/a	LIME	Fruit	11	5	[0, 0, 0]	n/a	catFR1	3	R1409D
600.049	9.319	1636229	REC_WORD	9.319	n/a	CHERRY	Fruit	12	5	[0, 0, 0]	n/a	catFR1	3	R1409D
609.368	7.322	1645547	REC_WORD_VV	7.322	n/a	<>	n/a	-999	5	[0, 0, 0]	n/a	catFR1	3	R1409D
616.69	7.06	1652869	REC_WORD	7.06	n/a	BLUEBERRY	Fruit	1	5	[0, 0, 0]	n/a	catFR1	3	R1409D
623.75	4.637	1659928	REC_WORD	4.637	n/a	THUNDER	n/a	-999	5	[0, 0, 0]	n/a	catFR1	3	R1409D
628.387	1.743	1664563	REC_END	n/a	n/a	n/a	n/a	-999	5	[0, 0, 0]	n/a	catFR1	3	R1409D
630.13	10.351	1666310	COUNTDOWN_START	n/a	n/a	n/a	n/a	-999	5	[0, 0, 0]	n/a	catFR1	3	R1409D
640.481	0.0	1676659	COUNTDOWN_END	n/a	n/a	n/a	n/a	-999	5	[0, 0, 0]	n/a	catFR1	3	R1409D
640.481	1.832	1676659	ENCODING_START	n/a	n/a	n/a	n/a	-999	6	[0, 0, 0]	n/a	catFR1	3	R1409D
642.313	1.6	1678496	WORD	n/a	wordpools/wordpool_categorized_EN.txt	ROSE	Flowers	1	6	[0, 0, 0]	n/a	catFR1	3	R1409D
643.913	0.95	1680097	WORD_OFF	n/a	n/a	ROSE	Flowers	1	6	[0, 0, 0]	n/a	catFR1	3	R1409D
644.863	1.617	1681044	WORD	n/a	wordpools/wordpool_categorized_EN.txt	MARIGOLD	Flowers	2	6	[0, 0, 0]	n/a	catFR1	3	R1409D
646.48	0.85	1682656	WORD_OFF	n/a	n/a	MARIGOLD	Flowers	2	6	[0, 0, 0]	n/a	catFR1	3	R1409D
647.33	1.6	1683512	WORD	n/a	wordpools/wordpool_categorized_EN.txt	LEATHER	Fabric	3	6	[0, 0, 0]	n/a	catFR1	3	R1409D
648.93	0.867	1685113	WORD_OFF	n/a	n/a	LEATHER	Fabric	3	6	[0, 0, 0]	n/a	catFR1	3	R1409D
649.797	1.6	1685970	WORD	n/a	wordpools/wordpool_categorized_EN.txt	FLEECE	Fabric	4	6	[0, 0, 0]	n/a	catFR1	3	R1409D
651.397	0.849	1687571	WORD_OFF	n/a	n/a	FLEECE	Fabric	4	6	[0, 0, 0]	n/a	catFR1	3	R1409D
652.246	1.601	1688427	WORD	n/a	wordpools/wordpool_categorized_EN.txt	WINE	Beverages	5	6	[0, 0, 0]	n/a	catFR1	3	R1409D
653.847	0.966	1690028	WORD_OFF	n/a	n/a	WINE	Beverages	5	6	[0, 0, 0]	n/a	catFR1	3	R1409D
654.813	1.6	1690986	WORD	n/a	wordpools/wordpool_categorized_EN.txt	SODA	Beverages	6	6	[0, 0, 0]	n/a	catFR1	3	R1409D
656.413	0.95	1692587	WORD_OFF	n/a	n/a	SODA	Beverages	6	6	[0, 0, 0]	n/a	catFR1	3	R1409D
657.363	1.6	1693545	WORD	n/a	wordpools/wordpool_categorized_EN.txt	VIOLET	Flowers	7	6	[0, 0, 0]	n/a	catFR1	3	R1409D
658.963	0.817	1695146	WORD_OFF	n/a	n/a	VIOLET	Flowers	7	6	[0, 0, 0]	n/a	catFR1	3	R1409D
659.78	1.6	1695958	WORD	n/a	wordpools/wordpool_categorized_EN.txt	SUNFLOWER	Flowers	8	6	[0, 0, 0]	n/a	catFR1	3	R1409D
661.38	0.782	1697558	WORD_OFF	n/a	n/a	SUNFLOWER	Flowers	8	6	[0, 0, 0]	n/a	catFR1	3	R1409D
662.162	1.601	1698336	WORD	n/a	wordpools/wordpool_categorized_EN.txt	SILK	Fabric	9	6	[0, 0, 0]	n/a	catFR1	3	R1409D
663.763	0.85	1699937	WORD_OFF	n/a	n/a	SILK	Fabric	9	6	[0, 0, 0]	n/a	catFR1	3	R1409D
664.613	1.617	1700794	WORD	n/a	wordpools/wordpool_categorized_EN.txt	LINEN	Fabric	10	6	[0, 0, 0]	n/a	catFR1	3	R1409D
666.23	0.85	1702406	WORD_OFF	n/a	n/a	LINEN	Fabric	10	6	[0, 0, 0]	n/a	catFR1	3	R1409D
667.08	1.616	1703262	WORD	n/a	wordpools/wordpool_categorized_EN.txt	CIDER	Beverages	11	6	[0, 0, 0]	n/a	catFR1	3	R1409D
668.696	0.834	1704874	WORD_OFF	n/a	n/a	CIDER	Beverages	11	6	[0, 0, 0]	n/a	catFR1	3	R1409D
669.53	1.6	1705708	WORD	n/a	wordpools/wordpool_categorized_EN.txt	LEMONADE	Beverages	12	6	[0, 0, 0]	n/a	catFR1	3	R1409D
671.13	0.002	1707306	PROB	0.002	n/a	n/a	n/a	-999	6	[6, 5, 3]	14	catFR1	3	R1409D
671.132	0.0	1707308	START	n/a	n/a	n/a	n/a	-999	6	[-999, -999, -999]	n/a	catFR1	3	R1409D
671.13	0.002	1707309	WORD_OFF	n/a	n/a	LEMONADE	Beverages	12	6	[0, 0, 0]	n/a	catFR1	3	R1409D
671.132	0.0	1707309	ENCODING_END	n/a	n/a	n/a	n/a	-999	6	[0, 0, 0]	n/a	catFR1	3	R1409D
671.132	6.732	1707309	DISTRACT_START	n/a	n/a	n/a	n/a	-999	6	[0, 0, 0]	n/a	catFR1	3	R1409D
677.864	3.866	1714040	PROB	3.866	n/a	n/a	n/a	-999	6	[6, 4, 3]	13	catFR1	3	R1409D
681.73	4.017	1717905	PROB	4.017	n/a	n/a	n/a	-999	6	[7, 3, 6]	16	catFR1	3	R1409D
685.747	4.634	1721922	PROB	4.634	n/a	n/a	n/a	-999	6	[2, 3, 8]	13	catFR1	3	R1409D
690.381	3.531	1726556	PROB	3.531	n/a	n/a	n/a	-999	6	[7, 3, 8]	18	catFR1	3	R1409D
693.912	0.0	1730087	STOP	n/a	n/a	n/a	n/a	-999	6	[-999, -999, -999]	n/a	catFR1	3	R1409D
693.912	1.367	1730091	DISTRACT_END	n/a	n/a	n/a	n/a	-999	6	[0, 0, 0]	n/a	catFR1	3	R1409D
695.279	2.02	1731455	REC_START	n/a	n/a	n/a	n/a	-999	6	[0, 0, 0]	n/a	catFR1	3	R1409D
697.299	2.793	1733474	REC_WORD	2.793	n/a	WINE	Beverages	5	6	[0, 0, 0]	n/a	catFR1	3	R1409D
700.092	6.233	1736267	REC_WORD	6.233	n/a	LEMONADE	Beverages	12	6	[0, 0, 0]	n/a	catFR1	3	R1409D
706.325	1.373	1742499	REC_WORD	1.373	n/a	SODA	Beverages	6	6	[0, 0, 0]	n/a	catFR1	3	R1409D
707.698	18.806	1743872	REC_WORD	18.806	n/a	DAFFODIL	Flowers	-999	6	[0, 0, 0]	n/a	catFR1	3	R1409D
726.504	1.476	1762681	REC_END	n/a	n/a	n/a	n/a	-999	6	[0, 0, 0]	n/a	catFR1	3	R1409D
727.98	10.351	1764157	COUNTDOWN_START	n/a	n/a	n/a	n/a	-999	6	[0, 0, 0]	n/a	catFR1	3	R1409D
738.331	0.0	1774506	COUNTDOWN_END	n/a	n/a	n/a	n/a	-999	6	[0, 0, 0]	n/a	catFR1	3	R1409D
738.331	2.249	1774506	ENCODING_START	n/a	n/a	n/a	n/a	-999	7	[0, 0, 0]	n/a	catFR1	3	R1409D
740.58	1.617	1776749	WORD	n/a	wordpools/wordpool_categorized_EN.txt	TRUMPET	Instruments	1	7	[0, 0, 0]	n/a	catFR1	3	R1409D
742.197	0.883	1778372	WORD_OFF	n/a	n/a	TRUMPET	Instruments	1	7	[0, 0, 0]	n/a	catFR1	3	R1409D
743.08	1.616	1779252	WORD	n/a	wordpools/wordpool_categorized_EN.txt	CELLO	Instruments	2	7	[0, 0, 0]	n/a	catFR1	3	R1409D
744.696	0.784	1780864	WORD_OFF	n/a	n/a	CELLO	Instruments	2	7	[0, 0, 0]	n/a	catFR1	3	R1409D
745.48	1.6	1781653	WORD	n/a	wordpools/wordpool_categorized_EN.txt	BANANA	Fruit	3	7	[0, 0, 0]	n/a	catFR1	3	R1409D
747.08	0.966	1783253	WORD_OFF	n/a	n/a	BANANA	Fruit	3	7	[0, 0, 0]	n/a	catFR1	3	R1409D
748.046	1.617	1784223	WORD	n/a	wordpools/wordpool_categorized_EN.txt	STRAWBERRY	Fruit	4	7	[0, 0, 0]	n/a	catFR1	3	R1409D
749.663	0.9	1785835	WORD_OFF	n/a	n/a	STRAWBERRY	Fruit	4	7	[0, 0, 0]	n/a	catFR1	3	R1409D
750.563	1.6	1786737	WORD	n/a	wordpools/wordpool_categorized_EN.txt	PUZZLE	Toys	5	7	[0, 0, 0]	n/a	catFR1	3	R1409D
752.163	0.984	1788337	WORD_OFF	n/a	n/a	PUZZLE	Toys	5	7	[0, 0, 0]	n/a	catFR1	3	R1409D
753.147	1.616	1789318	WORD	n/a	wordpools/wordpool_categorized_EN.txt	FOOTBALL	Toys	6	7	[0, 0, 0]	n/a	catFR1	3	R1409D
754.763	0.866	1790941	WORD_OFF	n/a	n/a	FOOTBALL	Toys	6	7	[0, 0, 0]	n/a	catFR1	3	R1409D
755.629	1.601	1791798	WORD	n/a	wordpools/wordpool_categorized_EN.txt	BASS	Instruments	7	7	[0, 0, 0]	n/a	catFR1	3	R1409D
757.23	0.85	1793399	WORD_OFF	n/a	n/a	BASS	Instruments	7	7	[0, 0, 0]	n/a	catFR1	3	R1409D
758.08	1.6	1794256	WORD	n/a	wordpools/wordpool_categorized_EN.txt	GUITAR	Instruments	8	7	[0, 0, 0]	n/a	catFR1	3	R1409D
759.68	0.933	1795856	WORD_OFF	n/a	n/a	GUITAR	Instruments	8	7	[0, 0, 0]	n/a	catFR1	3	R1409D
760.613	1.6	1796781	WORD	n/a	wordpools/wordpool_categorized_EN.txt	BALL	Toys	9	7	[0, 0, 0]	n/a	catFR1	3	R1409D
762.213	0.85	1798381	WORD_OFF	n/a	n/a	BALL	Toys	9	7	[0, 0, 0]	n/a	catFR1	3	R1409D
763.063	1.6	1799238	WORD	n/a	wordpools/wordpool_categorized_EN.txt	DOLLHOUSE	Toys	10	7	[0, 0, 0]	n/a	catFR1	3	R1409D
764.663	0.917	1800839	WORD_OFF	n/a	n/a	DOLLHOUSE	Toys	10	7	[0, 0, 0]	n/a	catFR1	3	R1409D
765.58	1.6	1801752	WORD	n/a	wordpools/wordpool_categorized_EN.txt	ORANGE	Fruit	11	7	[0, 0, 0]	n/a	catFR1	3	R1409D
767.18	0.949	1803353	WORD_OFF	n/a	n/a	ORANGE	Fruit	11	7	[0, 0, 0]	n/a	catFR1	3	R1409D
768.129	1.601	1804300	WORD	n/a	wordpools/wordpool_categorized_EN.txt	PEAR	Fruit	12	7	[0, 0, 0]	n/a	catFR1	3	R1409D
769.73	0.001	1805900	WORD_OFF	n/a	n/a	PEAR	Fruit	12	7	[0, 0, 0]	n/a	catFR1	3	R1409D
769.731	0.0	1805900	ENCODING_END	n/a	n/a	n/a	n/a	-999	7	[0, 0, 0]	n/a	catFR1	3	R1409D
769.731	0.0	1805900	DISTRACT_START	n/a	n/a	n/a	n/a	-999	7	[0, 0, 0]	n/a	catFR1	3	R1409D
769.73	0.001	1805901	PROB	0.001	n/a	n/a	n/a	-999	7	[5, 7, 5]	17	catFR1	3	R1409D
769.731	3.599	1805902	START	n/a	n/a	n/a	n/a	-999	7	[-999, -999, -999]	n/a	catFR1	3	R1409D
773.33	3.7	1809501	PROB	3.7	n/a	n/a	n/a	-999	7	[1, 1, 6]	8	catFR1	3	R1409D
777.03	3.95	1813201	PROB	3.95	n/a	n/a	n/a	-999	7	[6, 4, 4]	14	catFR1	3	R1409D
780.98	6.084	1817150	PROB	6.084	n/a	n/a	n/a	-999	7	[7, 6, 8]	21	catFR1	3	R1409D
787.064	6.315	1823234	PROB	6.315	n/a	n/a	n/a	-999	7	[7, 6, 3]	16	catFR1	3	R1409D
793.379	0.0	1829549	STOP	n/a	n/a	n/a	n/a	-999	7	[-999, -999, -999]	n/a	catFR1	3	R1409D
793.379	1.117	1829551	DISTRACT_END	n/a	n/a	n/a	n/a	-999	7	[0, 0, 0]	n/a	catFR1	3	R1409D
794.496	4.538	1830667	REC_START	n/a	n/a	n/a	n/a	-999	7	[0, 0, 0]	n/a	catFR1	3	R1409D
799.034	3.207	1835204	REC_WORD	3.207	n/a	BASKETBALL	n/a	-999	7	[0, 0, 0]	n/a	catFR1	3	R1409D
802.241	11.808	1838410	REC_WORD	11.808	n/a	FOOTBALL	Toys	6	7	[0, 0, 0]	n/a	catFR1	3	R1409D
814.049	0.748	1850218	REC_WORD	0.748	n/a	ORANGE	Fruit	11	7	[0, 0, 0]	n/a	catFR1	3	R1409D
814.797	1.977	1850966	REC_WORD	1.977	n/a	PEACH	Fruit	-999	7	[0, 0, 0]	n/a	catFR1	3	R1409D
816.774	7.327	1852943	REC_WORD	7.327	n/a	PEAR	Fruit	12	7	[0, 0, 0]	n/a	catFR1	3	R1409D
824.101	1.611	1860269	REC_WORD_VV	1.611	n/a	<>	n/a	-999	7	[0, 0, 0]	n/a	catFR1	3	R1409D
825.712	1.935	1861881	REC_END	n/a	n/a	n/a	n/a	-999	7	[0, 0, 0]	n/a	catFR1	3	R1409D
827.647	10.35	1863820	COUNTDOWN_START	n/a	n/a	n/a	n/a	-999	7	[0, 0, 0]	n/a	catFR1	3	R1409D
837.997	0.0	1874168	COUNTDOWN_END	n/a	n/a	n/a	n/a	-999	7	[0, 0, 0]	n/a	catFR1	3	R1409D
837.997	2.266	1874168	ENCODING_START	n/a	n/a	n/a	n/a	-999	8	[0, 0, 0]	n/a	catFR1	3	R1409D
840.263	1.6	1876434	WORD	n/a	wordpools/wordpool_categorized_EN.txt	HORSE	FarmAnimals	1	8	[0, 0, 0]	n/a	catFR1	3	R1409D
841.863	0.934	1878034	WORD_OFF	n/a	n/a	HORSE	FarmAnimals	1	8	[0, 0, 0]	n/a	catFR1	3	R1409D
842.797	1.616	1878970	WORD	n/a	wordpools/wordpool_categorized_EN.txt	BULL	FarmAnimals	2	8	[0, 0, 0]	n/a	catFR1	3	R1409D
844.413	0.883	1880582	WORD_OFF	n/a	n/a	BULL	FarmAnimals	2	8	[0, 0, 0]	n/a	catFR1	3	R1409D
845.296	1.601	1881461	WORD	n/a	wordpools/wordpool_categorized_EN.txt	CARDINAL	Birds	3	8	[0, 0, 0]	n/a	catFR1	3	R1409D
846.897	0.983	1883062	WORD_OFF	n/a	n/a	CARDINAL	Birds	3	8	[0, 0, 0]	n/a	catFR1	3	R1409D
847.88	1.617	1884043	WORD	n/a	wordpools/wordpool_categorized_EN.txt	SEAGULL	Birds	4	8	[0, 0, 0]	n/a	catFR1	3	R1409D
849.497	0.883	1885666	WORD_OFF	n/a	n/a	SEAGULL	Birds	4	8	[0, 0, 0]	n/a	catFR1	3	R1409D
850.38	1.617	1886545	WORD	n/a	wordpools/wordpool_categorized_EN.txt	HUMIDITY	Weather	5	8	[0, 0, 0]	n/a	catFR1	3	R1409D
851.997	0.799	1888169	WORD_OFF	n/a	n/a	HUMIDITY	Weather	5	8	[0, 0, 0]	n/a	catFR1	3	R1409D
852.796	1.6	1888958	WORD	n/a	wordpools/wordpool_categorized_EN.txt	SNOW	Weather	6	8	[0, 0, 0]	n/a	catFR1	3	R1409D
854.396	0.984	1890558	WORD_OFF	n/a	n/a	SNOW	Weather	6	8	[0, 0, 0]	n/a	catFR1	3	R1409D
855.38	1.6	1891550	WORD	n/a	wordpools/wordpool_categorized_EN.txt	PIGEON	Birds	7	8	[0, 0, 0]	n/a	catFR1	3	R1409D
856.98	0.949	1893151	WORD_OFF	n/a	n/a	PIGEON	Birds	7	8	[0, 0, 0]	n/a	catFR1	3	R1409D
857.929	1.6	1894098	WORD	n/a	wordpools/wordpool_categorized_EN.txt	BLUEBIRD	Birds	8	8	[0, 0, 0]	n/a	catFR1	3	R1409D
859.529	0.85	1895699	WORD_OFF	n/a	n/a	BLUEBIRD	Birds	8	8	[0, 0, 0]	n/a	catFR1	3	R1409D
860.379	1.601	1896544	WORD	n/a	wordpools/wordpool_categorized_EN.txt	GOAT	FarmAnimals	9	8	[0, 0, 0]	n/a	catFR1	3	R1409D
861.98	0.834	1898145	WORD_OFF	n/a	n/a	GOAT	FarmAnimals	9	8	[0, 0, 0]	n/a	catFR1	3	R1409D
862.814	1.599	1898979	WORD	n/a	wordpools/wordpool_categorized_EN.txt	PIG	FarmAnimals	10	8	[0, 0, 0]	n/a	catFR1	3	R1409D
864.413	0.816	1900580	WORD_OFF	n/a	n/a	PIG	FarmAnimals	10	8	[0, 0, 0]	n/a	catFR1	3	R1409D
865.229	1.601	1901392	WORD	n/a	wordpools/wordpool_categorized_EN.txt	TORNADO	Weather	11	8	[0, 0, 0]	n/a	catFR1	3	R1409D
866.83	0.849	1902992	WORD_OFF	n/a	n/a	TORNADO	Weather	11	8	[0, 0, 0]	n/a	catFR1	3	R1409D
867.679	1.617	1903849	WORD	n/a	wordpools/wordpool_categorized_EN.txt	WIND	Weather	12	8	[0, 0, 0]	n/a	catFR1	3	R1409D
869.296	0.002	1905461	WORD_OFF	n/a	n/a	WIND	Weather	12	8	[0, 0, 0]	n/a	catFR1	3	R1409D
869.298	0.0	1905461	ENCODING_END	n/a	n/a	n/a	n/a	-999	8	[0, 0, 0]	n/a	catFR1	3	R1409D
869.297	0.001	1905463	PROB	0.001	n/a	n/a	n/a	-999	8	[1, 8, 3]	12	catFR1	3	R1409D
869.298	0.0	1905464	START	n/a	n/a	n/a	n/a	-999	8	[-999, -999, -999]	n/a	catFR1	3	R1409D
869.298	4.181	1905472	DISTRACT_START	n/a	n/a	n/a	n/a	-999	8	[0, 0, 0]	n/a	catFR1	3	R1409D
873.479	3.767	1909645	PROB	3.767	n/a	n/a	n/a	-999	8	[8, 4, 1]	13	catFR1	3	R1409D
877.246	3.417	1913412	PROB	3.417	n/a	n/a	n/a	-999	8	[2, 4, 2]	8	catFR1	3	R1409D
880.663	3.6	1916828	PROB	3.6	n/a	n/a	n/a	-999	8	[2, 2, 6]	10	catFR1	3	R1409D
884.263	3.501	1920428	PROB	3.501	n/a	n/a	n/a	-999	8	[4, 6, 6]	16	catFR1	3	R1409D
887.764	3.734	1923929	PROB	3.734	n/a	n/a	n/a	-999	8	[8, 5, 5]	18	catFR1	3	R1409D
891.498	0.0	1927663	STOP	n/a	n/a	n/a	n/a	-999	8	[-999, -999, -999]	n/a	catFR1	3	R1409D
891.498	1.032	1927668	DISTRACT_END	n/a	n/a	n/a	n/a	-999	8	[0, 0, 0]	n/a	catFR1	3	R1409D
892.53	2.039	1928694	REC_START	n/a	n/a	n/a	n/a	-999	8	[0, 0, 0]	n/a	catFR1	3	R1409D
894.569	1.053	1930734	REC_WORD	1.053	n/a	TORNADO	Weather	11	8	[0, 0, 0]	n/a	catFR1	3	R1409D
895.622	12.388	1931787	REC_WORD	12.388	n/a	WIND	Weather	12	8	[0, 0, 0]	n/a	catFR1	3	R1409D
908.01	15.748	1944174	REC_WORD	15.748	n/a	HORSE	FarmAnimals	1	8	[0, 0, 0]	n/a	catFR1	3	R1409D
923.758	1.606	1959920	REC_END	n/a	n/a	n/a	n/a	-999	8	[0, 0, 0]	n/a	catFR1	3	R1409D
925.364	10.35	1961532	COUNTDOWN_START	n/a	n/a	n/a	n/a	-999	8	[0, 0, 0]	n/a	catFR1	3	R1409D
935.714	0.0	1971880	COUNTDOWN_END	n/a	n/a	n/a	n/a	-999	8	[0, 0, 0]	n/a	catFR1	3	R1409D
935.714	1.933	1971880	ENCODING_START	n/a	n/a	n/a	n/a	-999	9	[0, 0, 0]	n/a	catFR1	3	R1409D
937.647	1.616	1973808	WORD	n/a	wordpools/wordpool_categorized_EN.txt	STREAM	Landscapes	1	9	[0, 0, 0]	n/a	catFR1	3	R1409D
939.263	0.817	1975431	WORD_OFF	n/a	n/a	STREAM	Landscapes	1	9	[0, 0, 0]	n/a	catFR1	3	R1409D
940.08	1.6	1976242	WORD	n/a	wordpools/wordpool_categorized_EN.txt	VALLEY	Landscapes	2	9	[0, 0, 0]	n/a	catFR1	3	R1409D
941.68	0.783	1977843	WORD_OFF	n/a	n/a	VALLEY	Landscapes	2	9	[0, 0, 0]	n/a	catFR1	3	R1409D
942.463	1.617	1978621	WORD	n/a	wordpools/wordpool_categorized_EN.txt	ORGAN	Instruments	3	9	[0, 0, 0]	n/a	catFR1	3	R1409D
944.08	0.783	1980244	WORD_OFF	n/a	n/a	ORGAN	Instruments	3	9	[0, 0, 0]	n/a	catFR1	3	R1409D
944.863	1.6	1981022	WORD	n/a	wordpools/wordpool_categorized_EN.txt	FLUTE	Instruments	4	9	[0, 0, 0]	n/a	catFR1	3	R1409D
946.463	0.766	1982623	WORD_OFF	n/a	n/a	FLUTE	Instruments	4	9	[0, 0, 0]	n/a	catFR1	3	R1409D
947.229	1.601	1983389	WORD	n/a	wordpools/wordpool_categorized_EN.txt	TRAIN	Vehicles	5	9	[0, 0, 0]	n/a	catFR1	3	R1409D
948.83	0.783	1984990	WORD_OFF	n/a	n/a	TRAIN	Vehicles	5	9	[0, 0, 0]	n/a	catFR1	3	R1409D
949.613	1.617	1985779	WORD	n/a	wordpools/wordpool_categorized_EN.txt	MOTORCYCLE	Vehicles	6	9	[0, 0, 0]	n/a	catFR1	3	R1409D
951.23	0.799	1987391	WORD_OFF	n/a	n/a	MOTORCYCLE	Vehicles	6	9	[0, 0, 0]	n/a	catFR1	3	R1409D
952.029	1.601	1988191	WORD	n/a	wordpools/wordpool_categorized_EN.txt	CREEK	Landscapes	7	9	[0, 0, 0]	n/a	catFR1	3	R1409D
953.63	0.949	1989792	WORD_OFF	n/a	n/a	CREEK	Landscapes	7	9	[0, 0, 0]	n/a	catFR1	3	R1409D
954.579	1.617	1990739	WORD	n/a	wordpools/wordpool_categorized_EN.txt	OCEAN	Landscapes	8	9	[0, 0, 0]	n/a	catFR1	3	R1409D
956.196	0.95	1992362	WORD_OFF	n/a	n/a	OCEAN	Landscapes	8	9	[0, 0, 0]	n/a	catFR1	3	R1409D
957.146	1.6	1993309	WORD	n/a	wordpools/wordpool_categorized_EN.txt	TROMBONE	Instruments	9	9	[0, 0, 0]	n/a	catFR1	3	R1409D
958.746	0.767	1994910	WORD_OFF	n/a	n/a	TROMBONE	Instruments	9	9	[0, 0, 0]	n/a	catFR1	3	R1409D
959.513	1.6	1995677	WORD	n/a	wordpools/wordpool_categorized_EN.txt	PIANO	Instruments	10	9	[0, 0, 0]	n/a	catFR1	3	R1409D
961.113	0.983	1997277	WORD_OFF	n/a	n/a	PIANO	Instruments	10	9	[0, 0, 0]	n/a	catFR1	3	R1409D
962.096	1.617	1998258	WORD	n/a	wordpools/wordpool_categorized_EN.txt	BUS	Vehicles	11	9	[0, 0, 0]	n/a	catFR1	3	R1409D
963.713	0.9	1999870	WORD_OFF	n/a	n/a	BUS	Vehicles	11	9	[0, 0, 0]	n/a	catFR1	3	R1409D
964.613	1.6	2000772	WORD	n/a	wordpools/wordpool_categorized_EN.txt	JEEP	Vehicles	12	9	[0, 0, 0]	n/a	catFR1	3	R1409D
966.213	0.001	2002373	WORD_OFF	n/a	n/a	JEEP	Vehicles	12	9	[0, 0, 0]	n/a	catFR1	3	R1409D
966.214	0.0	2002373	ENCODING_END	n/a	n/a	n/a	n/a	-999	9	[0, 0, 0]	n/a	catFR1	3	R1409D
966.214	0.0	2002373	DISTRACT_START	n/a	n/a	n/a	n/a	-999	9	[0, 0, 0]	n/a	catFR1	3	R1409D
966.213	0.001	2002374	PROB	0.001	n/a	n/a	n/a	-999	9	[5, 3, 8]	16	catFR1	3	R1409D
966.214	6.982	2002375	START	n/a	n/a	n/a	n/a	-999	9	[-999, -999, -999]	n/a	catFR1	3	R1409D
973.196	3.953	2009357	PROB	3.953	n/a	n/a	n/a	-999	9	[6, 2, 5]	13	catFR1	3	R1409D
977.149	3.882	2013310	PROB	3.882	n/a	n/a	n/a	-999	9	[6, 6, 3]	15	catFR1	3	R1409D
981.031	4.484	2017191	PROB	4.484	n/a	n/a	n/a	-999	9	[5, 8, 4]	17	catFR1	3	R1409D
985.515	3.515	2021675	PROB	3.515	n/a	n/a	n/a	-999	9	[8, 8, 4]	20	catFR1	3	R1409D
989.03	0.0	2025189	DISTRACT_END	n/a	n/a	n/a	n/a	-999	9	[0, 0, 0]	n/a	catFR1	3	R1409D
989.03	1.083	2025190	STOP	n/a	n/a	n/a	n/a	-999	9	[-999, -999, -999]	n/a	catFR1	3	R1409D
990.113	1.426	2026271	REC_START	n/a	n/a	n/a	n/a	-999	9	[0, 0, 0]	n/a	catFR1	3	R1409D
991.539	4.143	2027699	REC_WORD	4.143	n/a	TROMBONE	Instruments	9	9	[0, 0, 0]	n/a	catFR1	3	R1409D
995.682	9.556	2031842	REC_WORD	9.556	n/a	FLUTE	Instruments	4	9	[0, 0, 0]	n/a	catFR1	3	R1409D
1005.238	2.629	2041397	REC_WORD	2.629	n/a	GUITAR	Instruments	-999	9	[0, 0, 0]	n/a	catFR1	3	R1409D
1007.867	0.836	2044026	REC_WORD	0.836	n/a	ORGAN	Instruments	3	9	[0, 0, 0]	n/a	catFR1	3	R1409D
1008.703	1.002	2044862	REC_WORD	1.002	n/a	CREEK	Landscapes	7	9	[0, 0, 0]	n/a	catFR1	3	R1409D
1009.705	10.307	2045864	REC_WORD	10.307	n/a	STREAM	Landscapes	1	9	[0, 0, 0]	n/a	catFR1	3	R1409D
1020.012	1.312	2056170	REC_WORD_VV	1.312	n/a	<>	n/a	-999	9	[0, 0, 0]	n/a	catFR1	3	R1409D
1021.324	2.255	2057485	REC_END	n/a	n/a	n/a	n/a	-999	9	[0, 0, 0]	n/a	catFR1	3	R1409D
1023.579	10.351	2059739	COUNTDOWN_START	n/a	n/a	n/a	n/a	-999	9	[0, 0, 0]	n/a	catFR1	3	R1409D
1033.93	0.0	2070088	COUNTDOWN_END	n/a	n/a	n/a	n/a	-999	9	[0, 0, 0]	n/a	catFR1	3	R1409D
1033.93	2.117	2070088	ENCODING_START	n/a	n/a	n/a	n/a	-999	10	[0, 0, 0]	n/a	catFR1	3	R1409D
1036.047	1.615	2072207	WORD	n/a	wordpools/wordpool_categorized_EN.txt	DUCK	Birds	1	10	[0, 0, 0]	n/a	catFR1	3	R1409D
1037.662	0.868	2073819	WORD_OFF	n/a	n/a	DUCK	Birds	1	10	[0, 0, 0]	n/a	catFR1	3	R1409D
1038.53	1.6	2074687	WORD	n/a	wordpools/wordpool_categorized_EN.txt	SPARROW	Birds	2	10	[0, 0, 0]	n/a	catFR1	3	R1409D
1040.13	0.951	2076288	WORD_OFF	n/a	n/a	SPARROW	Birds	2	10	[0, 0, 0]	n/a	catFR1	3	R1409D
1041.081	1.615	2077235	WORD	n/a	wordpools/wordpool_categorized_EN.txt	FOREST	Landscapes	3	10	[0, 0, 0]	n/a	catFR1	3	R1409D
1042.696	0.817	2078858	WORD_OFF	n/a	n/a	FOREST	Landscapes	3	10	[0, 0, 0]	n/a	catFR1	3	R1409D
1043.513	1.616	2079670	WORD	n/a	wordpools/wordpool_categorized_EN.txt	HILLS	Landscapes	4	10	[0, 0, 0]	n/a	catFR1	3	R1409D
1045.129	0.984	2081282	WORD_OFF	n/a	n/a	HILLS	Landscapes	4	10	[0, 0, 0]	n/a	catFR1	3	R1409D
1046.113	1.6	2082274	WORD	n/a	wordpools/wordpool_categorized_EN.txt	CELERY	Vegetables	5	10	[0, 0, 0]	n/a	catFR1	3	R1409D
1047.713	0.833	2083874	WORD_OFF	n/a	n/a	CELERY	Vegetables	5	10	[0, 0, 0]	n/a	catFR1	3	R1409D
1048.546	1.617	2084709	WORD	n/a	wordpools/wordpool_categorized_EN.txt	CORN	Vegetables	6	10	[0, 0, 0]	n/a	catFR1	3	R1409D
1050.163	0.833	2086321	WORD_OFF	n/a	n/a	CORN	Vegetables	6	10	[0, 0, 0]	n/a	catFR1	3	R1409D
1050.996	1.617	2087155	WORD	n/a	wordpools/wordpool_categorized_EN.txt	FINCH	Birds	7	10	[0, 0, 0]	n/a	catFR1	3	R1409D
1052.613	0.933	2088767	WORD_OFF	n/a	n/a	FINCH	Birds	7	10	[0, 0, 0]	n/a	catFR1	3	R1409D
1053.546	1.6	2089702	WORD	n/a	wordpools/wordpool_categorized_EN.txt	GOOSE	Birds	8	10	[0, 0, 0]	n/a	catFR1	3	R1409D
1055.146	0.917	2091303	WORD_OFF	n/a	n/a	GOOSE	Birds	8	10	[0, 0, 0]	n/a	catFR1	3	R1409D
1056.063	1.6	2092216	WORD	n/a	wordpools/wordpool_categorized_EN.txt	MOUNTAIN	Landscapes	9	10	[0, 0, 0]	n/a	catFR1	3	R1409D
1057.663	0.9	2093817	WORD_OFF	n/a	n/a	MOUNTAIN	Landscapes	9	10	[0, 0, 0]	n/a	catFR1	3	R1409D
1058.563	1.616	2094719	WORD	n/a	wordpools/wordpool_categorized_EN.txt	BEACH	Landscapes	10	10	[0, 0, 0]	n/a	catFR1	3	R1409D
1060.179	0.9	2096331	WORD_OFF	n/a	n/a	BEACH	Landscapes	10	10	[0, 0, 0]	n/a	catFR1	3	R1409D
1061.079	1.601	2097233	WORD	n/a	wordpools/wordpool_categorized_EN.txt	ONION	Vegetables	11	10	[0, 0, 0]	n/a	catFR1	3	R1409D
1062.68	0.85	2098833	WORD_OFF	n/a	n/a	ONION	Vegetables	11	10	[0, 0, 0]	n/a	catFR1	3	R1409D
1063.53	1.601	2099690	WORD	n/a	wordpools/wordpool_categorized_EN.txt	POTATO	Vegetables	12	10	[0, 0, 0]	n/a	catFR1	3	R1409D
1065.131	0.0	2101287	START	n/a	n/a	n/a	n/a	-999	10	[-999, -999, -999]	n/a	catFR1	3	R1409D
1065.131	0.0	2101287	PROB	0.0	n/a	n/a	n/a	-999	10	[3, 1, 1]	5	catFR1	3	R1409D
1065.13	0.001	2101291	WORD_OFF	n/a	n/a	POTATO	Vegetables	12	10	[0, 0, 0]	n/a	catFR1	3	R1409D
1065.131	0.0	2101291	ENCODING_END	n/a	n/a	n/a	n/a	-999	10	[0, 0, 0]	n/a	catFR1	3	R1409D
1065.131	4.917	2101302	DISTRACT_START	n/a	n/a	n/a	n/a	-999	10	[0, 0, 0]	n/a	catFR1	3	R1409D
1070.048	5.6	2106204	PROB	5.6	n/a	n/a	n/a	-999	10	[7, 2, 4]	13	catFR1	3	R1409D
1075.648	5.25	2111804	PROB	5.25	n/a	n/a	n/a	-999	10	[3, 8, 4]	15	catFR1	3	R1409D
1080.898	3.616	2117053	PROB	3.616	n/a	n/a	n/a	-999	10	[1, 1, 8]	10	catFR1	3	R1409D
1084.514	7.416	2120669	PROB	7.416	n/a	n/a	n/a	-999	10	[8, 5, 1]	14	catFR1	3	R1409D
1091.93	0.0	2128085	STOP	n/a	n/a	n/a	n/a	-999	10	[-999, -999, -999]	n/a	catFR1	3	R1409D
1091.93	1.285	2128086	DISTRACT_END	n/a	n/a	n/a	n/a	-999	10	[0, 0, 0]	n/a	catFR1	3	R1409D
1093.215	1.497	2129371	REC_START	n/a	n/a	n/a	n/a	-999	10	[0, 0, 0]	n/a	catFR1	3	R1409D
1094.712	3.714	2130867	REC_WORD	3.714	n/a	FOREST	Landscapes	3	10	[0, 0, 0]	n/a	catFR1	3	R1409D
1098.426	9.572	2134580	REC_WORD	9.572	n/a	BEACH	Landscapes	10	10	[0, 0, 0]	n/a	catFR1	3	R1409D
1107.998	8.525	2144152	REC_WORD	8.525	n/a	CREEK	Landscapes	-999	10	[0, 0, 0]	n/a	catFR1	3	R1409D
1116.523	7.919	2152676	REC_WORD	7.919	n/a	WIND	Weather	-999	10	[0, 0, 0]	n/a	catFR1	3	R1409D
1124.442	2.371	2160596	REC_END	n/a	n/a	n/a	n/a	-999	10	[0, 0, 0]	n/a	catFR1	3	R1409D
1126.813	10.35	2162975	COUNTDOWN_START	n/a	n/a	n/a	n/a	-999	10	[0, 0, 0]	n/a	catFR1	3	R1409D
1137.163	0.001	2173312	COUNTDOWN_END	n/a	n/a	n/a	n/a	-999	10	[0, 0, 0]	n/a	catFR1	3	R1409D
1137.164	2.232	2173323	ENCODING_START	n/a	n/a	n/a	n/a	-999	11	[0, 0, 0]	n/a	catFR1	3	R1409D
1139.396	1.616	2175544	WORD	n/a	wordpools/wordpool_categorized_EN.txt	PIE	Desserts	1	11	[0, 0, 0]	n/a	catFR1	3	R1409D
1141.012	0.784	2177167	WORD_OFF	n/a	n/a	PIE	Desserts	1	11	[0, 0, 0]	n/a	catFR1	3	R1409D
1141.796	1.6	2177945	WORD	n/a	wordpools/wordpool_categorized_EN.txt	MOUSSE	Desserts	2	11	[0, 0, 0]	n/a	catFR1	3	R1409D
1143.396	0.833	2179546	WORD_OFF	n/a	n/a	MOUSSE	Desserts	2	11	[0, 0, 0]	n/a	catFR1	3	R1409D
1144.229	1.6	2180380	WORD	n/a	wordpools/wordpool_categorized_EN.txt	NYLON	Fabric	3	11	[0, 0, 0]	n/a	catFR1	3	R1409D
1145.829	0.784	2181981	WORD_OFF	n/a	n/a	NYLON	Fabric	3	11	[0, 0, 0]	n/a	catFR1	3	R1409D
1146.613	1.616	2182770	WORD	n/a	wordpools/wordpool_categorized_EN.txt	WOOL	Fabric	4	11	[0, 0, 0]	n/a	catFR1	3	R1409D
1148.229	0.95	2184382	WORD_OFF	n/a	n/a	WOOL	Fabric	4	11	[0, 0, 0]	n/a	catFR1	3	R1409D
1149.179	1.617	2185329	WORD	n/a	wordpools/wordpool_categorized_EN.txt	KNIFE	KitchenTools	5	11	[0, 0, 0]	n/a	catFR1	3	R1409D
1150.796	0.916	2186952	WORD_OFF	n/a	n/a	KNIFE	KitchenTools	5	11	[0, 0, 0]	n/a	catFR1	3	R1409D
1151.712	1.617	2187865	WORD	n/a	wordpools/wordpool_categorized_EN.txt	PEELER	KitchenTools	6	11	[0, 0, 0]	n/a	catFR1	3	R1409D
1153.329	0.85	2189477	WORD_OFF	n/a	n/a	PEELER	KitchenTools	6	11	[0, 0, 0]	n/a	catFR1	3	R1409D
1154.179	1.601	2190334	WORD	n/a	wordpools/wordpool_categorized_EN.txt	FUDGE	Desserts	7	11	[0, 0, 0]	n/a	catFR1	3	R1409D
1155.78	0.766	2191935	WORD_OFF	n/a	n/a	FUDGE	Desserts	7	11	[0, 0, 0]	n/a	catFR1	3	R1409D
1156.546	1.601	2192701	WORD	n/a	wordpools/wordpool_categorized_EN.txt	PASTRY	Desserts	8	11	[0, 0, 0]	n/a	catFR1	3	R1409D
1158.147	0.8	2194302	WORD_OFF	n/a	n/a	PASTRY	Desserts	8	11	[0, 0, 0]	n/a	catFR1	3	R1409D
1158.947	1.6	2195102	WORD	n/a	wordpools/wordpool_categorized_EN.txt	COLANDER	KitchenTools	9	11	[0, 0, 0]	n/a	catFR1	3	R1409D
1160.547	0.884	2196703	WORD_OFF	n/a	n/a	COLANDER	KitchenTools	9	11	[0, 0, 0]	n/a	catFR1	3	R1409D
1161.431	1.616	2197582	WORD	n/a	wordpools/wordpool_categorized_EN.txt	STRAINER	KitchenTools	10	11	[0, 0, 0]	n/a	catFR1	3	R1409D
1163.047	0.766	2199194	WORD_OFF	n/a	n/a	STRAINER	KitchenTools	10	11	[0, 0, 0]	n/a	catFR1	3	R1409D
1163.813	1.601	2199961	WORD	n/a	wordpools/wordpool_categorized_EN.txt	SATIN	Fabric	11	11	[0, 0, 0]	n/a	catFR1	3	R1409D
1165.414	0.866	2201562	WORD_OFF	n/a	n/a	SATIN	Fabric	11	11	[0, 0, 0]	n/a	catFR1	3	R1409D
1166.28	1.618	2202430	WORD	n/a	wordpools/wordpool_categorized_EN.txt	COTTON	Fabric	12	11	[0, 0, 0]	n/a	catFR1	3	R1409D
1167.898	0.0	2204049	START	n/a	n/a	n/a	n/a	-999	11	[-999, -999, -999]	n/a	catFR1	3	R1409D
1167.898	0.0	2204049	PROB	0.0	n/a	n/a	n/a	-999	11	[4, 8, 1]	13	catFR1	3	R1409D
1167.897	0.001	2204053	WORD_OFF	n/a	n/a	COTTON	Fabric	12	11	[0, 0, 0]	n/a	catFR1	3	R1409D
1167.898	0.0	2204053	ENCODING_END	n/a	n/a	n/a	n/a	-999	11	[0, 0, 0]	n/a	catFR1	3	R1409D
1167.898	3.932	2204053	DISTRACT_START	n/a	n/a	n/a	n/a	-999	11	[0, 0, 0]	n/a	catFR1	3	R1409D
1171.83	3.701	2207981	PROB	3.701	n/a	n/a	n/a	-999	11	[6, 2, 1]	9	catFR1	3	R1409D
1175.531	3.499	2211681	PROB	3.499	n/a	n/a	n/a	-999	11	[5, 5, 2]	12	catFR1	3	R1409D
1179.03	3.8	2215180	PROB	3.8	n/a	n/a	n/a	-999	11	[6, 5, 5]	16	catFR1	3	R1409D
1182.83	4.184	2218980	PROB	4.184	n/a	n/a	n/a	-999	11	[4, 8, 8]	20	catFR1	3	R1409D
1187.014	6.183	2223164	PROB	6.183	n/a	n/a	n/a	-999	11	[4, 8, 6]	18	catFR1	3	R1409D
1193.197	0.0	2229347	STOP	n/a	n/a	n/a	n/a	-999	11	[-999, -999, -999]	n/a	catFR1	3	R1409D
1193.197	1.399	2229349	DISTRACT_END	n/a	n/a	n/a	n/a	-999	11	[0, 0, 0]	n/a	catFR1	3	R1409D
1194.596	2.048	2230747	REC_START	n/a	n/a	n/a	n/a	-999	11	[0, 0, 0]	n/a	catFR1	3	R1409D
1196.644	1.831	2232793	REC_WORD	1.831	n/a	PIE	Desserts	1	11	[0, 0, 0]	n/a	catFR1	3	R1409D
1198.475	2.268	2234624	REC_WORD	2.268	n/a	COLANDER	KitchenTools	9	11	[0, 0, 0]	n/a	catFR1	3	R1409D
1200.743	3.57	2236892	REC_WORD	3.57	n/a	STRAINER	KitchenTools	10	11	[0, 0, 0]	n/a	catFR1	3	R1409D
1204.313	21.517	2240462	REC_WORD	21.517	n/a	BLENDER	Appliances	-999	11	[0, 0, 0]	n/a	catFR1	3	R1409D
1225.83	2.067	2261983	REC_END	n/a	n/a	n/a	n/a	-999	11	[0, 0, 0]	n/a	catFR1	3	R1409D
1227.897	10.35	2264046	COUNTDOWN_START	n/a	n/a	n/a	n/a	-999	11	[0, 0, 0]	n/a	catFR1	3	R1409D
1238.247	0.001	2274395	COUNTDOWN_END	n/a	n/a	n/a	n/a	-999	11	[0, 0, 0]	n/a	catFR1	3	R1409D
1238.248	2.149	2274395	ENCODING_START	n/a	n/a	n/a	n/a	-999	12	[0, 0, 0]	n/a	catFR1	3	R1409D
1240.397	1.616	2276548	WORD	n/a	wordpools/wordpool_categorized_EN.txt	PAPER	OfficeSupplies	1	12	[0, 0, 0]	n/a	catFR1	3	R1409D
1242.013	1.0	2278160	WORD_OFF	n/a	n/a	PAPER	OfficeSupplies	1	12	[0, 0, 0]	n/a	catFR1	3	R1409D
1243.013	1.617	2279163	WORD	n/a	wordpools/wordpool_categorized_EN.txt	BINDER	OfficeSupplies	2	12	[0, 0, 0]	n/a	catFR1	3	R1409D
1244.63	0.799	2280775	WORD_OFF	n/a	n/a	BINDER	OfficeSupplies	2	12	[0, 0, 0]	n/a	catFR1	3	R1409D
1245.429	1.6	2281575	WORD	n/a	wordpools/wordpool_categorized_EN.txt	CHEESECAKE	Desserts	3	12	[0, 0, 0]	n/a	catFR1	3	R1409D
1247.029	0.834	2283176	WORD_OFF	n/a	n/a	CHEESECAKE	Desserts	3	12	[0, 0, 0]	n/a	catFR1	3	R1409D
1247.863	1.6	2284010	WORD	n/a	wordpools/wordpool_categorized_EN.txt	CAKE	Desserts	4	12	[0, 0, 0]	n/a	catFR1	3	R1409D
1249.463	0.933	2285611	WORD_OFF	n/a	n/a	CAKE	Desserts	4	12	[0, 0, 0]	n/a	catFR1	3	R1409D
1250.396	1.601	2286547	WORD	n/a	wordpools/wordpool_categorized_EN.txt	CAULIFLOWER	Vegetables	5	12	[0, 0, 0]	n/a	catFR1	3	R1409D
1251.997	0.816	2288147	WORD_OFF	n/a	n/a	CAULIFLOWER	Vegetables	5	12	[0, 0, 0]	n/a	catFR1	3	R1409D
1252.813	1.6	2288959	WORD	n/a	wordpools/wordpool_categorized_EN.txt	CABBAGE	Vegetables	6	12	[0, 0, 0]	n/a	catFR1	3	R1409D
1254.413	0.784	2290560	WORD_OFF	n/a	n/a	CABBAGE	Vegetables	6	12	[0, 0, 0]	n/a	catFR1	3	R1409D
1255.197	1.6	2291337	WORD	n/a	wordpools/wordpool_categorized_EN.txt	PENCIL	OfficeSupplies	7	12	[0, 0, 0]	n/a	catFR1	3	R1409D
1256.797	0.932	2292938	WORD_OFF	n/a	n/a	PENCIL	OfficeSupplies	7	12	[0, 0, 0]	n/a	catFR1	3	R1409D
1257.729	1.601	2293874	WORD	n/a	wordpools/wordpool_categorized_EN.txt	TAPE	OfficeSupplies	8	12	[0, 0, 0]	n/a	catFR1	3	R1409D
1259.33	0.883	2295475	WORD_OFF	n/a	n/a	TAPE	OfficeSupplies	8	12	[0, 0, 0]	n/a	catFR1	3	R1409D
1260.213	1.6	2296354	WORD	n/a	wordpools/wordpool_categorized_EN.txt	PUDDING	Desserts	9	12	[0, 0, 0]	n/a	catFR1	3	R1409D
1261.813	0.967	2297955	WORD_OFF	n/a	n/a	PUDDING	Desserts	9	12	[0, 0, 0]	n/a	catFR1	3	R1409D
1262.78	1.6	2298924	WORD	n/a	wordpools/wordpool_categorized_EN.txt	BROWNIES	Desserts	10	12	[0, 0, 0]	n/a	catFR1	3	R1409D
1264.38	0.983	2300525	WORD_OFF	n/a	n/a	BROWNIES	Desserts	10	12	[0, 0, 0]	n/a	catFR1	3	R1409D
1265.363	1.6	2301505	WORD	n/a	wordpools/wordpool_categorized_EN.txt	CUCUMBER	Vegetables	11	12	[0, 0, 0]	n/a	catFR1	3	R1409D
1266.963	0.817	2303106	WORD_OFF	n/a	n/a	CUCUMBER	Vegetables	11	12	[0, 0, 0]	n/a	catFR1	3	R1409D
1267.78	1.617	2303929	WORD	n/a	wordpools/wordpool_categorized_EN.txt	CARROT	Vegetables	12	12	[0, 0, 0]	n/a	catFR1	3	R1409D
1269.397	0.001	2305541	WORD_OFF	n/a	n/a	CARROT	Vegetables	12	12	[0, 0, 0]	n/a	catFR1	3	R1409D
1269.398	0.0	2305541	ENCODING_END	n/a	n/a	n/a	n/a	-999	12	[0, 0, 0]	n/a	catFR1	3	R1409D
1269.398	0.0	2305541	DISTRACT_START	n/a	n/a	n/a	n/a	-999	12	[0, 0, 0]	n/a	catFR1	3	R1409D
1269.397	0.001	2305543	PROB	0.001	n/a	n/a	n/a	-999	12	[1, 7, 7]	15	catFR1	3	R1409D
1269.398	5.583	2305544	START	n/a	n/a	n/a	n/a	-999	12	[-999, -999, -999]	n/a	catFR1	3	R1409D
1274.981	4.333	2311126	PROB	4.333	n/a	n/a	n/a	-999	12	[8, 8, 7]	23	catFR1	3	R1409D
1279.314	5.667	2315459	PROB	5.667	n/a	n/a	n/a	-999	12	[8, 4, 4]	16	catFR1	3	R1409D
1284.981	2.667	2321126	PROB	2.667	n/a	n/a	n/a	-999	12	[1, 8, 2]	11	catFR1	3	R1409D
1287.648	3.348	2323793	PROB	3.348	n/a	n/a	n/a	-999	12	[7, 4, 6]	17	catFR1	3	R1409D
1290.996	0.0	2327140	DISTRACT_END	n/a	n/a	n/a	n/a	-999	12	[0, 0, 0]	n/a	catFR1	3	R1409D
1290.996	1.217	2327141	STOP	n/a	n/a	n/a	n/a	-999	12	[-999, -999, -999]	n/a	catFR1	3	R1409D
1292.213	1.833	2328357	REC_START	n/a	n/a	n/a	n/a	-999	12	[0, 0, 0]	n/a	catFR1	3	R1409D
1294.046	1.039	2330190	REC_WORD	1.039	n/a	CAKE	Desserts	4	12	[0, 0, 0]	n/a	catFR1	3	R1409D
1295.085	20.953	2331229	REC_WORD	20.953	n/a	BROWNIES	Desserts	10	12	[0, 0, 0]	n/a	catFR1	3	R1409D
1316.038	7.404	2352181	REC_WORD	7.404	n/a	STAPLER	OfficeSupplies	-999	12	[0, 0, 0]	n/a	catFR1	3	R1409D
1323.442	0.0	2359582	REC_END	n/a	n/a	n/a	n/a	-999	12	[0, 0, 0]	n/a	catFR1	3	R1409D
