onset	duration	sample	trial_type	response_time	stim_file	item_name	category	serialpos	list	test	answer	experiment	session	subject
0.0	3.681	12494	INSTRUCT_START	n/a	n/a	n/a	n/a	-999	-999	[0, 0, 0]	n/a	catFR1	2	R1444D
3.681	21.231	16185	INSTRUCT_END	n/a	n/a	n/a	n/a	-999	-999	[0, 0, 0]	n/a	catFR1	2	R1444D
24.912	10.0	37407	COUNTDOWN_START	n/a	n/a	n/a	n/a	-999	-999	[0, 0, 0]	n/a	catFR1	2	R1444D
35.263	0.0	47754	COUNTDOWN_END	n/a	n/a	n/a	n/a	-999	-999	[0, 0, 0]	n/a	catFR1	2	R1444D
35.263	2.267	47754	ENCODING_START	n/a	n/a	n/a	n/a	-999	-1	[0, 0, 0]	n/a	catFR1	2	R1444D
37.53	1.6	50014	WORD	n/a	n/a	SHIRT	Clothing	1	-1	[0, 0, 0]	n/a	catFR1	2	R1444D
39.13	0.883	51621	WORD_OFF	n/a	n/a	SHIRT	Clothing	1	-1	[0, 0, 0]	n/a	catFR1	2	R1444D
40.013	1.6	52500	WORD	n/a	n/a	COAT	Clothing	2	-1	[0, 0, 0]	n/a	catFR1	2	R1444D
41.613	0.867	54107	WORD_OFF	n/a	n/a	COAT	Clothing	2	-1	[0, 0, 0]	n/a	catFR1	2	R1444D
42.48	1.6	54974	WORD	n/a	n/a	SHRIMP	OceanAnimals	3	-1	[0, 0, 0]	n/a	catFR1	2	R1444D
44.096	0.767	56581	WORD_OFF	n/a	n/a	SHRIMP	OceanAnimals	3	-1	[0, 0, 0]	n/a	catFR1	2	R1444D
44.863	1.6	57347	WORD	n/a	n/a	TURTLE	OceanAnimals	4	-1	[0, 0, 0]	n/a	catFR1	2	R1444D
46.479	0.801	58967	WORD_OFF	n/a	n/a	TURTLE	OceanAnimals	4	-1	[0, 0, 0]	n/a	catFR1	2	R1444D
47.28	1.6	59771	WORD	n/a	n/a	LETTUCE	Vegetables	5	-1	[0, 0, 0]	n/a	catFR1	2	R1444D
48.88	0.916	61365	WORD_OFF	n/a	n/a	LETTUCE	Vegetables	5	-1	[0, 0, 0]	n/a	catFR1	2	R1444D
49.796	1.6	62282	WORD	n/a	n/a	CORN	Vegetables	6	-1	[0, 0, 0]	n/a	catFR1	2	R1444D
51.413	0.866	63902	WORD_OFF	n/a	n/a	CORN	Vegetables	6	-1	[0, 0, 0]	n/a	catFR1	2	R1444D
52.279	1.6	64768	WORD	n/a	n/a	SHORTS	Clothing	7	-1	[0, 0, 0]	n/a	catFR1	2	R1444D
53.897	0.915	66388	WORD_OFF	n/a	n/a	SHORTS	Clothing	7	-1	[0, 0, 0]	n/a	catFR1	2	R1444D
54.812	1.6	67305	WORD	n/a	n/a	SHOES	Clothing	8	-1	[0, 0, 0]	n/a	catFR1	2	R1444D
56.413	0.9	68900	WORD_OFF	n/a	n/a	SHOES	Clothing	8	-1	[0, 0, 0]	n/a	catFR1	2	R1444D
57.313	1.6	69804	WORD	n/a	n/a	PEAS	Vegetables	9	-1	[0, 0, 0]	n/a	catFR1	2	R1444D
58.913	0.917	71398	WORD_OFF	n/a	n/a	PEAS	Vegetables	9	-1	[0, 0, 0]	n/a	catFR1	2	R1444D
59.83	1.6	72315	WORD	n/a	n/a	CELERY	Vegetables	10	-1	[0, 0, 0]	n/a	catFR1	2	R1444D
61.43	0.883	73922	WORD_OFF	n/a	n/a	CELERY	Vegetables	10	-1	[0, 0, 0]	n/a	catFR1	2	R1444D
62.313	1.6	74801	WORD	n/a	n/a	SQUID	OceanAnimals	11	-1	[0, 0, 0]	n/a	catFR1	2	R1444D
63.913	0.867	76396	WORD_OFF	n/a	n/a	SQUID	OceanAnimals	11	-1	[0, 0, 0]	n/a	catFR1	2	R1444D
64.78	1.6	77262	WORD	n/a	n/a	LOBSTER	OceanAnimals	12	-1	[0, 0, 0]	n/a	catFR1	2	R1444D
66.396	0.002	78882	WORD_OFF	n/a	n/a	LOBSTER	OceanAnimals	12	-1	[0, 0, 0]	n/a	catFR1	2	R1444D
66.398	0.0	78882	ENCODING_END	n/a	n/a	n/a	n/a	-999	-1	[0, 0, 0]	n/a	catFR1	2	R1444D
66.398	0.0	78889	START	n/a	n/a	n/a	n/a	-999	-1	[-999, -999, -999]	n/a	catFR1	2	R1444D
66.398	0.0	78889	PROB	10.349	n/a	n/a	n/a	-999	-1	[5, 4, 6]	15.0	catFR1	2	R1444D
66.398	10.365	78895	DISTRACT_START	n/a	n/a	n/a	n/a	-999	-1	[0, 0, 0]	n/a	catFR1	2	R1444D
76.763	3.118	89253	PROB	3.1	n/a	n/a	n/a	-999	-1	[4, 6, 1]	11.0	catFR1	2	R1444D
79.881	9.332	92371	PROB	9.316	n/a	n/a	n/a	-999	-1	[8, 2, 7]	17.0	catFR1	2	R1444D
89.213	0.0	101698	DISTRACT_END	n/a	n/a	n/a	n/a	-999	-1	[0, 0, 0]	n/a	catFR1	2	R1444D
89.213	2.167	101702	STOP	n/a	n/a	n/a	n/a	-999	-1	[-999, -999, -999]	n/a	catFR1	2	R1444D
91.38	1.865	103866	REC_START	n/a	n/a	n/a	n/a	-999	-1	[0, 0, 0]	n/a	catFR1	2	R1444D
93.245	0.799	105734	REC_WORD_VV	1.865	n/a	<>	n/a	-999	-1	[0, 0, 0]	n/a	catFR1	2	R1444D
94.044	2.201	106533	REC_WORD	2.664	n/a	SHRIMP	OceanAnimals	3	-1	[0, 0, 0]	n/a	catFR1	2	R1444D
96.245	0.555	108734	REC_WORD	4.865	n/a	SHRIMP	OceanAnimals	3	-1	[0, 0, 0]	n/a	catFR1	2	R1444D
96.8	1.0	109289	REC_WORD_VV	5.42	n/a	<>	n/a	-999	-1	[0, 0, 0]	n/a	catFR1	2	R1444D
97.8	0.618	110289	REC_WORD_VV	6.42	n/a	<>	n/a	-999	-1	[0, 0, 0]	n/a	catFR1	2	R1444D
98.418	0.439	110907	REC_WORD	7.038	n/a	COAT	Clothing	2	-1	[0, 0, 0]	n/a	catFR1	2	R1444D
98.857	1.484	111346	REC_WORD	7.477	n/a	LOBSTER	OceanAnimals	12	-1	[0, 0, 0]	n/a	catFR1	2	R1444D
100.341	1.507	112830	REC_WORD_VV	8.961	n/a	<>	n/a	-999	-1	[0, 0, 0]	n/a	catFR1	2	R1444D
101.848	0.613	114337	REC_WORD_VV	10.468	n/a	<>	n/a	-999	-1	[0, 0, 0]	n/a	catFR1	2	R1444D
102.461	1.134	114950	REC_WORD	11.081	n/a	PEAS	Vegetables	9	-1	[0, 0, 0]	n/a	catFR1	2	R1444D
103.595	2.722	116084	REC_WORD_VV	12.215	n/a	<>	n/a	-999	-1	[0, 0, 0]	n/a	catFR1	2	R1444D
106.317	1.188	118806	REC_WORD_VV	14.937	n/a	<>	n/a	-999	-1	[0, 0, 0]	n/a	catFR1	2	R1444D
107.505	2.761	119994	REC_WORD	16.125	n/a	TURTLE	OceanAnimals	4	-1	[0, 0, 0]	n/a	catFR1	2	R1444D
110.266	1.18	122754	REC_WORD	18.886	n/a	TURTLE	OceanAnimals	4	-1	[0, 0, 0]	n/a	catFR1	2	R1444D
111.446	4.437	123934	REC_WORD_VV	20.066	n/a	<>	n/a	-999	-1	[0, 0, 0]	n/a	catFR1	2	R1444D
115.883	1.597	128371	REC_WORD	24.503	n/a	TURTLE	OceanAnimals	4	-1	[0, 0, 0]	n/a	catFR1	2	R1444D
117.48	2.601	129968	REC_WORD	26.1	n/a	SHOES	Clothing	8	-1	[0, 0, 0]	n/a	catFR1	2	R1444D
120.081	1.516	132569	REC_WORD_VV	28.701	n/a	<>	n/a	-999	-1	[0, 0, 0]	n/a	catFR1	2	R1444D
121.597	14.332	134083	REC_END	n/a	n/a	n/a	n/a	-999	-1	[0, 0, 0]	n/a	catFR1	2	R1444D
135.929	10.0	148410	COUNTDOWN_START	n/a	n/a	n/a	n/a	-999	1	[0, 0, 0]	n/a	catFR1	2	R1444D
146.279	0.0	158757	COUNTDOWN_END	n/a	n/a	n/a	n/a	-999	1	[0, 0, 0]	n/a	catFR1	2	R1444D
146.279	2.051	158770	ENCODING_START	n/a	n/a	n/a	n/a	-999	1	[0, 0, 0]	n/a	catFR1	2	R1444D
148.33	1.6	160816	WORD	n/a	wordpools/wordpool_categorized_EN.txt	GNAT	Insects	1	1	[0, 0, 0]	n/a	catFR1	2	R1444D
149.946	0.818	162424	WORD_OFF	n/a	n/a	GNAT	Insects	1	1	[0, 0, 0]	n/a	catFR1	2	R1444D
150.764	1.6	163252	WORD	n/a	wordpools/wordpool_categorized_EN.txt	BUTTERFLY	Insects	2	1	[0, 0, 0]	n/a	catFR1	2	R1444D
152.38	0.934	164860	WORD_OFF	n/a	n/a	BUTTERFLY	Insects	2	1	[0, 0, 0]	n/a	catFR1	2	R1444D
153.314	1.6	165802	WORD	n/a	wordpools/wordpool_categorized_EN.txt	BEER	Beverages	3	1	[0, 0, 0]	n/a	catFR1	2	R1444D
154.93	0.767	167409	WORD_OFF	n/a	n/a	BEER	Beverages	3	1	[0, 0, 0]	n/a	catFR1	2	R1444D
155.697	1.6	168175	WORD	n/a	wordpools/wordpool_categorized_EN.txt	TEA	Beverages	4	1	[0, 0, 0]	n/a	catFR1	2	R1444D
157.313	0.834	169795	WORD_OFF	n/a	n/a	TEA	Beverages	4	1	[0, 0, 0]	n/a	catFR1	2	R1444D
158.147	1.6	170623	WORD	n/a	wordpools/wordpool_categorized_EN.txt	BALL	Toys	5	1	[0, 0, 0]	n/a	catFR1	2	R1444D
159.763	0.8	172243	WORD_OFF	n/a	n/a	BALL	Toys	5	1	[0, 0, 0]	n/a	catFR1	2	R1444D
160.563	1.6	173047	WORD	n/a	wordpools/wordpool_categorized_EN.txt	PUZZLE	Toys	6	1	[0, 0, 0]	n/a	catFR1	2	R1444D
162.179	0.95	174667	WORD_OFF	n/a	n/a	PUZZLE	Toys	6	1	[0, 0, 0]	n/a	catFR1	2	R1444D
163.129	1.6	175609	WORD	n/a	wordpools/wordpool_categorized_EN.txt	COLA	Beverages	7	1	[0, 0, 0]	n/a	catFR1	2	R1444D
164.729	0.983	177216	WORD_OFF	n/a	n/a	COLA	Beverages	7	1	[0, 0, 0]	n/a	catFR1	2	R1444D
165.712	1.6	178195	WORD	n/a	wordpools/wordpool_categorized_EN.txt	LEMONADE	Beverages	8	1	[0, 0, 0]	n/a	catFR1	2	R1444D
167.312	0.95	179790	WORD_OFF	n/a	n/a	LEMONADE	Beverages	8	1	[0, 0, 0]	n/a	catFR1	2	R1444D
168.262	1.6	180744	WORD	n/a	wordpools/wordpool_categorized_EN.txt	BASEBALL	Toys	9	1	[0, 0, 0]	n/a	catFR1	2	R1444D
169.863	0.8	182339	WORD_OFF	n/a	n/a	BASEBALL	Toys	9	1	[0, 0, 0]	n/a	catFR1	2	R1444D
170.663	1.6	183143	WORD	n/a	wordpools/wordpool_categorized_EN.txt	MARBLES	Toys	10	1	[0, 0, 0]	n/a	catFR1	2	R1444D
172.28	0.967	184762	WORD_OFF	n/a	n/a	MARBLES	Toys	10	1	[0, 0, 0]	n/a	catFR1	2	R1444D
173.247	1.6	185729	WORD	n/a	wordpools/wordpool_categorized_EN.txt	ROACH	Insects	11	1	[0, 0, 0]	n/a	catFR1	2	R1444D
174.863	0.9	187349	WORD_OFF	n/a	n/a	ROACH	Insects	11	1	[0, 0, 0]	n/a	catFR1	2	R1444D
175.763	1.6	188241	WORD	n/a	wordpools/wordpool_categorized_EN.txt	MOTH	Insects	12	1	[0, 0, 0]	n/a	catFR1	2	R1444D
177.363	0.002	189848	WORD_OFF	n/a	n/a	MOTH	Insects	12	1	[0, 0, 0]	n/a	catFR1	2	R1444D
177.365	0.0	189848	ENCODING_END	n/a	n/a	n/a	n/a	-999	1	[0, 0, 0]	n/a	catFR1	2	R1444D
177.365	0.0	189848	DISTRACT_START	n/a	n/a	n/a	n/a	-999	1	[0, 0, 0]	n/a	catFR1	2	R1444D
177.365	0.001	189850	START	n/a	n/a	n/a	n/a	-999	1	[-999, -999, -999]	n/a	catFR1	2	R1444D
177.366	10.498	189851	PROB	10.482	n/a	n/a	n/a	-999	1	[4, 5, 7]	16.0	catFR1	2	R1444D
187.864	4.733	200348	PROB	4.716	n/a	n/a	n/a	-999	1	[8, 8, 1]	17.0	catFR1	2	R1444D
192.597	14.467	205081	PROB	14.45	n/a	n/a	n/a	-999	1	[7, 2, 3]	12.0	catFR1	2	R1444D
207.064	0.0	219545	DISTRACT_END	n/a	n/a	n/a	n/a	-999	1	[0, 0, 0]	n/a	catFR1	2	R1444D
207.064	2.049	219547	STOP	n/a	n/a	n/a	n/a	-999	1	[-999, -999, -999]	n/a	catFR1	2	R1444D
209.113	2.232	221588	REC_START	n/a	n/a	n/a	n/a	-999	1	[0, 0, 0]	n/a	catFR1	2	R1444D
211.345	1.0	223828	REC_WORD_VV	2.232	n/a	<>	n/a	-999	1	[0, 0, 0]	n/a	catFR1	2	R1444D
212.345	1.0	224828	REC_WORD_VV	3.232	n/a	<>	n/a	-999	1	[0, 0, 0]	n/a	catFR1	2	R1444D
213.345	1.261	225828	REC_WORD_VV	4.232	n/a	<>	n/a	-999	1	[0, 0, 0]	n/a	catFR1	2	R1444D
214.606	0.866	227089	REC_WORD	5.493	n/a	SUGAR	n/a	-999	1	[0, 0, 0]	n/a	catFR1	2	R1444D
215.472	0.568	227955	REC_WORD	6.359	n/a	FLY	n/a	-999	1	[0, 0, 0]	n/a	catFR1	2	R1444D
216.04	2.556	228523	REC_WORD_VV	6.927	n/a	<>	n/a	-999	1	[0, 0, 0]	n/a	catFR1	2	R1444D
218.596	0.674	231079	REC_WORD_VV	9.483	n/a	<>	n/a	-999	1	[0, 0, 0]	n/a	catFR1	2	R1444D
219.27	0.82	231753	REC_WORD	10.157	n/a	BUTTERFLY	Insects	2	1	[0, 0, 0]	n/a	catFR1	2	R1444D
220.09	1.552	232573	REC_WORD	10.977	n/a	MOTH	Insects	12	1	[0, 0, 0]	n/a	catFR1	2	R1444D
221.642	3.467	234124	REC_WORD_VV	12.529	n/a	<>	n/a	-999	1	[0, 0, 0]	n/a	catFR1	2	R1444D
225.109	0.232	237591	REC_WORD_VV	15.996	n/a	<>	n/a	-999	1	[0, 0, 0]	n/a	catFR1	2	R1444D
225.341	2.147	237823	REC_WORD	16.228	n/a	MARBLES	Toys	10	1	[0, 0, 0]	n/a	catFR1	2	R1444D
227.488	1.795	239970	REC_WORD_VV	18.375	n/a	<>	n/a	-999	1	[0, 0, 0]	n/a	catFR1	2	R1444D
229.283	10.017	241765	REC_WORD	20.17	n/a	MARBLES	Toys	10	1	[0, 0, 0]	n/a	catFR1	2	R1444D
239.3	45.846	251779	REC_END	n/a	n/a	n/a	n/a	-999	1	[0, 0, 0]	n/a	catFR1	2	R1444D
285.146	10.0	297624	COUNTDOWN_START	n/a	n/a	n/a	n/a	-999	2	[0, 0, 0]	n/a	catFR1	2	R1444D
295.496	0.0	307971	COUNTDOWN_END	n/a	n/a	n/a	n/a	-999	2	[0, 0, 0]	n/a	catFR1	2	R1444D
295.496	2.25	307971	ENCODING_START	n/a	n/a	n/a	n/a	-999	2	[0, 0, 0]	n/a	catFR1	2	R1444D
297.746	1.6	310219	WORD	n/a	wordpools/wordpool_categorized_EN.txt	ROSE	Flowers	1	2	[0, 0, 0]	n/a	catFR1	2	R1444D
299.361	0.819	311839	WORD_OFF	n/a	n/a	ROSE	Flowers	1	2	[0, 0, 0]	n/a	catFR1	2	R1444D
300.18	1.6	312655	WORD	n/a	wordpools/wordpool_categorized_EN.txt	PETUNIA	Flowers	2	2	[0, 0, 0]	n/a	catFR1	2	R1444D
301.78	0.966	314250	WORD_OFF	n/a	n/a	PETUNIA	Flowers	2	2	[0, 0, 0]	n/a	catFR1	2	R1444D
302.746	1.6	315217	WORD	n/a	wordpools/wordpool_categorized_EN.txt	CALF	FarmAnimals	3	2	[0, 0, 0]	n/a	catFR1	2	R1444D
304.347	0.8	316824	WORD_OFF	n/a	n/a	CALF	FarmAnimals	3	2	[0, 0, 0]	n/a	catFR1	2	R1444D
305.147	1.6	317615	WORD	n/a	wordpools/wordpool_categorized_EN.txt	HEN	FarmAnimals	4	2	[0, 0, 0]	n/a	catFR1	2	R1444D
306.763	0.967	319235	WORD_OFF	n/a	n/a	HEN	FarmAnimals	4	2	[0, 0, 0]	n/a	catFR1	2	R1444D
307.73	1.6	320202	WORD	n/a	wordpools/wordpool_categorized_EN.txt	MONKEY	Zoo	5	2	[0, 0, 0]	n/a	catFR1	2	R1444D
309.347	0.8	321822	WORD_OFF	n/a	n/a	MONKEY	Zoo	5	2	[0, 0, 0]	n/a	catFR1	2	R1444D
310.147	1.6	322625	WORD	n/a	wordpools/wordpool_categorized_EN.txt	TIGER	Zoo	6	2	[0, 0, 0]	n/a	catFR1	2	R1444D
311.747	0.767	324220	WORD_OFF	n/a	n/a	TIGER	Zoo	6	2	[0, 0, 0]	n/a	catFR1	2	R1444D
312.514	1.6	324986	WORD	n/a	wordpools/wordpool_categorized_EN.txt	TURKEY	FarmAnimals	7	2	[0, 0, 0]	n/a	catFR1	2	R1444D
314.13	0.833	326606	WORD_OFF	n/a	n/a	TURKEY	FarmAnimals	7	2	[0, 0, 0]	n/a	catFR1	2	R1444D
314.963	1.6	327435	WORD	n/a	wordpools/wordpool_categorized_EN.txt	GOAT	FarmAnimals	8	2	[0, 0, 0]	n/a	catFR1	2	R1444D
316.58	0.767	329054	WORD_OFF	n/a	n/a	GOAT	FarmAnimals	8	2	[0, 0, 0]	n/a	catFR1	2	R1444D
317.347	1.6	329820	WORD	n/a	wordpools/wordpool_categorized_EN.txt	ZEBRA	Zoo	9	2	[0, 0, 0]	n/a	catFR1	2	R1444D
318.964	0.83	331440	WORD_OFF	n/a	n/a	ZEBRA	Zoo	9	2	[0, 0, 0]	n/a	catFR1	2	R1444D
319.794	1.6	332269	WORD	n/a	wordpools/wordpool_categorized_EN.txt	PANDA	Zoo	10	2	[0, 0, 0]	n/a	catFR1	2	R1444D
321.397	0.982	333876	WORD_OFF	n/a	n/a	PANDA	Zoo	10	2	[0, 0, 0]	n/a	catFR1	2	R1444D
322.379	1.6	334856	WORD	n/a	wordpools/wordpool_categorized_EN.txt	CARNATION	Flowers	11	2	[0, 0, 0]	n/a	catFR1	2	R1444D
323.98	0.833	336450	WORD_OFF	n/a	n/a	CARNATION	Flowers	11	2	[0, 0, 0]	n/a	catFR1	2	R1444D
324.813	1.6	337292	WORD	n/a	wordpools/wordpool_categorized_EN.txt	DAISY	Flowers	12	2	[0, 0, 0]	n/a	catFR1	2	R1444D
326.43	0.002	338899	WORD_OFF	n/a	n/a	DAISY	Flowers	12	2	[0, 0, 0]	n/a	catFR1	2	R1444D
326.432	0.0	338899	ENCODING_END	n/a	n/a	n/a	n/a	-999	2	[0, 0, 0]	n/a	catFR1	2	R1444D
326.431	0.001	338908	PROB	9.266	n/a	n/a	n/a	-999	2	[8, 3, 4]	15.0	catFR1	2	R1444D
326.432	0.0	338909	START	n/a	n/a	n/a	n/a	-999	2	[-999, -999, -999]	n/a	catFR1	2	R1444D
326.432	9.282	338912	DISTRACT_START	n/a	n/a	n/a	n/a	-999	2	[0, 0, 0]	n/a	catFR1	2	R1444D
335.714	4.732	348190	PROB	4.714	n/a	n/a	n/a	-999	2	[6, 7, 1]	14.0	catFR1	2	R1444D
340.446	9.383	352922	PROB	9.367	n/a	n/a	n/a	-999	2	[3, 4, 7]	14.0	catFR1	2	R1444D
349.829	0.0	362305	DISTRACT_END	n/a	n/a	n/a	n/a	-999	2	[0, 0, 0]	n/a	catFR1	2	R1444D
349.829	2.15	362305	STOP	n/a	n/a	n/a	n/a	-999	2	[-999, -999, -999]	n/a	catFR1	2	R1444D
351.979	1.416	364448	REC_START	n/a	n/a	n/a	n/a	-999	2	[0, 0, 0]	n/a	catFR1	2	R1444D
353.395	1.132	365870	REC_WORD_VV	1.416	n/a	<>	n/a	-999	2	[0, 0, 0]	n/a	catFR1	2	R1444D
354.527	2.277	367002	REC_WORD	2.548	n/a	CARNATION	Flowers	11	2	[0, 0, 0]	n/a	catFR1	2	R1444D
356.804	2.685	369279	REC_WORD_VV	4.825	n/a	<>	n/a	-999	2	[0, 0, 0]	n/a	catFR1	2	R1444D
359.489	0.956	371964	REC_WORD	7.51	n/a	CARNATION	Flowers	11	2	[0, 0, 0]	n/a	catFR1	2	R1444D
360.445	0.54	372920	REC_WORD_VV	8.466	n/a	<>	n/a	-999	2	[0, 0, 0]	n/a	catFR1	2	R1444D
360.985	0.867	373460	REC_WORD	9.006	n/a	WINE	n/a	-999	2	[0, 0, 0]	n/a	catFR1	2	R1444D
361.852	1.565	374327	REC_WORD	9.873	n/a	TURKEY	FarmAnimals	7	2	[0, 0, 0]	n/a	catFR1	2	R1444D
363.417	2.864	375892	REC_WORD_VV	11.438	n/a	<>	n/a	-999	2	[0, 0, 0]	n/a	catFR1	2	R1444D
366.281	0.221	378756	REC_WORD_VV	14.302	n/a	<>	n/a	-999	2	[0, 0, 0]	n/a	catFR1	2	R1444D
366.502	0.659	378977	REC_WORD	14.523	n/a	ZEBRA	Zoo	9	2	[0, 0, 0]	n/a	catFR1	2	R1444D
367.161	1.674	379636	REC_WORD	15.182	n/a	FISH	n/a	-999	2	[0, 0, 0]	n/a	catFR1	2	R1444D
368.835	3.841	381310	REC_WORD_VV	16.856	n/a	<>	n/a	-999	2	[0, 0, 0]	n/a	catFR1	2	R1444D
372.676	0.932	385150	REC_WORD	20.697	n/a	ZEBRA	Zoo	9	2	[0, 0, 0]	n/a	catFR1	2	R1444D
373.608	1.216	386082	REC_WORD	21.629	n/a	FISH	n/a	-999	2	[0, 0, 0]	n/a	catFR1	2	R1444D
374.824	1.807	387298	REC_WORD	22.845	n/a	TURTLE	OceanAnimals	-999	2	[0, 0, 0]	n/a	catFR1	2	R1444D
376.631	3.917	389105	REC_WORD_VV	24.652	n/a	<>	n/a	-999	2	[0, 0, 0]	n/a	catFR1	2	R1444D
380.548	1.612	393022	REC_WORD_VV	28.569	n/a	<>	n/a	-999	2	[0, 0, 0]	n/a	catFR1	2	R1444D
382.16	7.137	394627	REC_END	n/a	n/a	n/a	n/a	-999	2	[0, 0, 0]	n/a	catFR1	2	R1444D
389.297	10.0	401772	COUNTDOWN_START	n/a	n/a	n/a	n/a	-999	3	[0, 0, 0]	n/a	catFR1	2	R1444D
399.646	0.0	412119	COUNTDOWN_END	n/a	n/a	n/a	n/a	-999	3	[0, 0, 0]	n/a	catFR1	2	R1444D
399.646	2.083	412119	ENCODING_START	n/a	n/a	n/a	n/a	-999	3	[0, 0, 0]	n/a	catFR1	2	R1444D
401.729	1.6	414203	WORD	n/a	wordpools/wordpool_categorized_EN.txt	WHISK	KitchenTools	1	3	[0, 0, 0]	n/a	catFR1	2	R1444D
403.346	0.9	415810	WORD_OFF	n/a	n/a	WHISK	KitchenTools	1	3	[0, 0, 0]	n/a	catFR1	2	R1444D
404.246	1.6	416715	WORD	n/a	wordpools/wordpool_categorized_EN.txt	KNIFE	KitchenTools	2	3	[0, 0, 0]	n/a	catFR1	2	R1444D
405.846	0.867	418309	WORD_OFF	n/a	n/a	KNIFE	KitchenTools	2	3	[0, 0, 0]	n/a	catFR1	2	R1444D
406.713	1.6	419176	WORD	n/a	wordpools/wordpool_categorized_EN.txt	OAK	Trees	3	3	[0, 0, 0]	n/a	catFR1	2	R1444D
408.313	0.95	420783	WORD_OFF	n/a	n/a	OAK	Trees	3	3	[0, 0, 0]	n/a	catFR1	2	R1444D
409.263	1.6	421737	WORD	n/a	wordpools/wordpool_categorized_EN.txt	SPRUCE	Trees	4	3	[0, 0, 0]	n/a	catFR1	2	R1444D
410.863	0.95	423332	WORD_OFF	n/a	n/a	SPRUCE	Trees	4	3	[0, 0, 0]	n/a	catFR1	2	R1444D
411.813	1.6	424286	WORD	n/a	wordpools/wordpool_categorized_EN.txt	SATIN	Fabric	5	3	[0, 0, 0]	n/a	catFR1	2	R1444D
413.413	0.95	425881	WORD_OFF	n/a	n/a	SATIN	Fabric	5	3	[0, 0, 0]	n/a	catFR1	2	R1444D
414.363	1.6	426835	WORD	n/a	wordpools/wordpool_categorized_EN.txt	FLEECE	Fabric	6	3	[0, 0, 0]	n/a	catFR1	2	R1444D
415.98	0.933	428443	WORD_OFF	n/a	n/a	FLEECE	Fabric	6	3	[0, 0, 0]	n/a	catFR1	2	R1444D
416.913	1.6	429384	WORD	n/a	wordpools/wordpool_categorized_EN.txt	ELM	Trees	7	3	[0, 0, 0]	n/a	catFR1	2	R1444D
418.53	0.867	431004	WORD_OFF	n/a	n/a	ELM	Trees	7	3	[0, 0, 0]	n/a	catFR1	2	R1444D
419.397	1.6	431871	WORD	n/a	wordpools/wordpool_categorized_EN.txt	CEDAR	Trees	8	3	[0, 0, 0]	n/a	catFR1	2	R1444D
420.997	0.832	433465	WORD_OFF	n/a	n/a	CEDAR	Trees	8	3	[0, 0, 0]	n/a	catFR1	2	R1444D
421.829	1.6	434294	WORD	n/a	wordpools/wordpool_categorized_EN.txt	TONGS	KitchenTools	9	3	[0, 0, 0]	n/a	catFR1	2	R1444D
423.43	0.817	435902	WORD_OFF	n/a	n/a	TONGS	KitchenTools	9	3	[0, 0, 0]	n/a	catFR1	2	R1444D
424.247	1.6	436718	WORD	n/a	wordpools/wordpool_categorized_EN.txt	CORKSCREW	KitchenTools	10	3	[0, 0, 0]	n/a	catFR1	2	R1444D
425.847	0.783	438312	WORD_OFF	n/a	n/a	CORKSCREW	KitchenTools	10	3	[0, 0, 0]	n/a	catFR1	2	R1444D
426.63	1.6	439104	WORD	n/a	wordpools/wordpool_categorized_EN.txt	LEATHER	Fabric	11	3	[0, 0, 0]	n/a	catFR1	2	R1444D
428.23	0.917	440698	WORD_OFF	n/a	n/a	LEATHER	Fabric	11	3	[0, 0, 0]	n/a	catFR1	2	R1444D
429.147	1.6	441615	WORD	n/a	wordpools/wordpool_categorized_EN.txt	VELVET	Fabric	12	3	[0, 0, 0]	n/a	catFR1	2	R1444D
430.763	0.0	443234	PROB	25.999	n/a	n/a	n/a	-999	3	[2, 6, 7]	15.0	catFR1	2	R1444D
430.763	0.002	443235	WORD_OFF	n/a	n/a	VELVET	Fabric	12	3	[0, 0, 0]	n/a	catFR1	2	R1444D
430.765	0.0	443235	ENCODING_END	n/a	n/a	n/a	n/a	-999	3	[0, 0, 0]	n/a	catFR1	2	R1444D
430.765	0.0	443235	DISTRACT_START	n/a	n/a	n/a	n/a	-999	3	[0, 0, 0]	n/a	catFR1	2	R1444D
430.765	26.015	443236	START	n/a	n/a	n/a	n/a	-999	3	[-999, -999, -999]	n/a	catFR1	2	R1444D
456.78	0.0	469240	DISTRACT_END	n/a	n/a	n/a	n/a	-999	3	[0, 0, 0]	n/a	catFR1	2	R1444D
456.78	2.366	469250	STOP	n/a	n/a	n/a	n/a	-999	3	[-999, -999, -999]	n/a	catFR1	2	R1444D
459.146	1.157	471609	REC_START	n/a	n/a	n/a	n/a	-999	3	[0, 0, 0]	n/a	catFR1	2	R1444D
460.303	0.827	472773	REC_WORD	1.157	n/a	CORKSCREW	KitchenTools	10	3	[0, 0, 0]	n/a	catFR1	2	R1444D
461.13	1.0	473600	REC_WORD_VV	1.984	n/a	<>	n/a	-999	3	[0, 0, 0]	n/a	catFR1	2	R1444D
462.13	1.0	474600	REC_WORD_VV	2.984	n/a	<>	n/a	-999	3	[0, 0, 0]	n/a	catFR1	2	R1444D
463.13	1.596	475600	REC_WORD_VV	3.984	n/a	<>	n/a	-999	3	[0, 0, 0]	n/a	catFR1	2	R1444D
464.726	1.397	477196	REC_WORD	5.58	n/a	CORKSCREW	KitchenTools	10	3	[0, 0, 0]	n/a	catFR1	2	R1444D
466.123	1.438	478592	REC_WORD	6.977	n/a	GLASS	n/a	-999	3	[0, 0, 0]	n/a	catFR1	2	R1444D
467.561	2.601	480030	REC_WORD_VV	8.415	n/a	<>	n/a	-999	3	[0, 0, 0]	n/a	catFR1	2	R1444D
470.162	1.343	482631	REC_WORD_VV	11.016	n/a	<>	n/a	-999	3	[0, 0, 0]	n/a	catFR1	2	R1444D
471.505	2.458	483974	REC_WORD	12.359	n/a	ZEBRA	Zoo	-999	3	[0, 0, 0]	n/a	catFR1	2	R1444D
473.963	1.978	486432	REC_WORD_VV	14.817	n/a	<>	n/a	-999	3	[0, 0, 0]	n/a	catFR1	2	R1444D
475.941	2.258	488410	REC_WORD	16.795	n/a	TURTLE	OceanAnimals	-999	3	[0, 0, 0]	n/a	catFR1	2	R1444D
478.199	4.904	490668	REC_WORD_VV	19.053	n/a	<>	n/a	-999	3	[0, 0, 0]	n/a	catFR1	2	R1444D
483.103	2.35	495572	REC_WORD	23.957	n/a	KNIFE	KitchenTools	2	3	[0, 0, 0]	n/a	catFR1	2	R1444D
485.453	3.877	497921	REC_WORD_VV	26.307	n/a	<>	n/a	-999	3	[0, 0, 0]	n/a	catFR1	2	R1444D
489.33	3.766	501800	REC_END	n/a	n/a	n/a	n/a	-999	3	[0, 0, 0]	n/a	catFR1	2	R1444D
493.096	10.0	505568	COUNTDOWN_START	n/a	n/a	n/a	n/a	-999	4	[0, 0, 0]	n/a	catFR1	2	R1444D
503.446	0.0	515914	COUNTDOWN_END	n/a	n/a	n/a	n/a	-999	4	[0, 0, 0]	n/a	catFR1	2	R1444D
503.446	2.167	515914	ENCODING_START	n/a	n/a	n/a	n/a	-999	4	[0, 0, 0]	n/a	catFR1	2	R1444D
505.613	1.6	518074	WORD	n/a	wordpools/wordpool_categorized_EN.txt	BLENDER	Appliances	1	4	[0, 0, 0]	n/a	catFR1	2	R1444D
507.23	0.866	519694	WORD_OFF	n/a	n/a	BLENDER	Appliances	1	4	[0, 0, 0]	n/a	catFR1	2	R1444D
508.096	1.6	520561	WORD	n/a	wordpools/wordpool_categorized_EN.txt	DRYER	Appliances	2	4	[0, 0, 0]	n/a	catFR1	2	R1444D
509.713	0.834	522180	WORD_OFF	n/a	n/a	DRYER	Appliances	2	4	[0, 0, 0]	n/a	catFR1	2	R1444D
510.547	1.6	523009	WORD	n/a	wordpools/wordpool_categorized_EN.txt	JACKET	Clothing	3	4	[0, 0, 0]	n/a	catFR1	2	R1444D
512.163	0.867	524629	WORD_OFF	n/a	n/a	JACKET	Clothing	3	4	[0, 0, 0]	n/a	catFR1	2	R1444D
513.03	1.6	525495	WORD	n/a	wordpools/wordpool_categorized_EN.txt	UNDERWEAR	Clothing	4	4	[0, 0, 0]	n/a	catFR1	2	R1444D
514.647	0.799	527115	WORD_OFF	n/a	n/a	UNDERWEAR	Clothing	4	4	[0, 0, 0]	n/a	catFR1	2	R1444D
515.446	1.6	527906	WORD	n/a	wordpools/wordpool_categorized_EN.txt	TABLE	Furniture	5	4	[0, 0, 0]	n/a	catFR1	2	R1444D
517.047	1.0	529514	WORD_OFF	n/a	n/a	TABLE	Furniture	5	4	[0, 0, 0]	n/a	catFR1	2	R1444D
518.047	1.6	530506	WORD	n/a	wordpools/wordpool_categorized_EN.txt	SHELF	Furniture	6	4	[0, 0, 0]	n/a	catFR1	2	R1444D
519.662	0.968	532125	WORD_OFF	n/a	n/a	SHELF	Furniture	6	4	[0, 0, 0]	n/a	catFR1	2	R1444D
520.63	1.6	533092	WORD	n/a	wordpools/wordpool_categorized_EN.txt	DRESS	Clothing	7	4	[0, 0, 0]	n/a	catFR1	2	R1444D
522.247	0.966	534712	WORD_OFF	n/a	n/a	DRESS	Clothing	7	4	[0, 0, 0]	n/a	catFR1	2	R1444D
523.213	1.6	535679	WORD	n/a	wordpools/wordpool_categorized_EN.txt	PANTS	Clothing	8	4	[0, 0, 0]	n/a	catFR1	2	R1444D
524.813	0.85	537274	WORD_OFF	n/a	n/a	PANTS	Clothing	8	4	[0, 0, 0]	n/a	catFR1	2	R1444D
525.663	1.6	538128	WORD	n/a	wordpools/wordpool_categorized_EN.txt	STOVE	Appliances	9	4	[0, 0, 0]	n/a	catFR1	2	R1444D
527.263	1.0	539722	WORD_OFF	n/a	n/a	STOVE	Appliances	9	4	[0, 0, 0]	n/a	catFR1	2	R1444D
528.263	1.6	540727	WORD	n/a	wordpools/wordpool_categorized_EN.txt	VACUUM	Appliances	10	4	[0, 0, 0]	n/a	catFR1	2	R1444D
529.863	0.833	542322	WORD_OFF	n/a	n/a	VACUUM	Appliances	10	4	[0, 0, 0]	n/a	catFR1	2	R1444D
530.696	1.6	543163	WORD	n/a	wordpools/wordpool_categorized_EN.txt	DESK	Furniture	11	4	[0, 0, 0]	n/a	catFR1	2	R1444D
532.314	0.883	544770	WORD_OFF	n/a	n/a	DESK	Furniture	11	4	[0, 0, 0]	n/a	catFR1	2	R1444D
533.197	1.6	545662	WORD	n/a	wordpools/wordpool_categorized_EN.txt	CHAIR	Furniture	12	4	[0, 0, 0]	n/a	catFR1	2	R1444D
534.814	0.001	547280	PROB	17.332	n/a	n/a	n/a	-999	4	[5, 6, 7]	18.0	catFR1	2	R1444D
534.815	0.0	547281	START	n/a	n/a	n/a	n/a	-999	4	[-999, -999, -999]	n/a	catFR1	2	R1444D
534.813	0.002	547282	WORD_OFF	n/a	n/a	CHAIR	Furniture	12	4	[0, 0, 0]	n/a	catFR1	2	R1444D
534.815	0.0	547282	ENCODING_END	n/a	n/a	n/a	n/a	-999	4	[0, 0, 0]	n/a	catFR1	2	R1444D
534.815	17.349	547282	DISTRACT_START	n/a	n/a	n/a	n/a	-999	4	[0, 0, 0]	n/a	catFR1	2	R1444D
552.164	6.183	564629	PROB	6.166	n/a	n/a	n/a	-999	4	[8, 8, 5]	21.0	catFR1	2	R1444D
558.347	0.0	570811	STOP	n/a	n/a	n/a	n/a	-999	4	[-999, -999, -999]	n/a	catFR1	2	R1444D
558.347	2.233	570813	DISTRACT_END	n/a	n/a	n/a	n/a	-999	4	[0, 0, 0]	n/a	catFR1	2	R1444D
560.58	1.272	573044	REC_START	n/a	n/a	n/a	n/a	-999	4	[0, 0, 0]	n/a	catFR1	2	R1444D
561.852	0.552	574316	REC_WORD	1.272	n/a	CHAIR	Furniture	12	4	[0, 0, 0]	n/a	catFR1	2	R1444D
562.404	1.356	574868	REC_WORD	1.824	n/a	SOFA	n/a	-999	4	[0, 0, 0]	n/a	catFR1	2	R1444D
563.76	1.566	576224	REC_WORD	3.18	n/a	SHELF	Furniture	6	4	[0, 0, 0]	n/a	catFR1	2	R1444D
565.326	2.2	577790	REC_WORD	4.746	n/a	STOVE	Appliances	9	4	[0, 0, 0]	n/a	catFR1	2	R1444D
567.526	2.293	579990	REC_WORD_VV	6.946	n/a	<>	n/a	-999	4	[0, 0, 0]	n/a	catFR1	2	R1444D
569.819	11.319	582283	REC_WORD_VV	9.239	n/a	<>	n/a	-999	4	[0, 0, 0]	n/a	catFR1	2	R1444D
581.138	1.343	593601	REC_WORD_VV	20.558	n/a	<>	n/a	-999	4	[0, 0, 0]	n/a	catFR1	2	R1444D
582.481	2.738	594944	REC_WORD	21.901	n/a	WATER	n/a	-999	4	[0, 0, 0]	n/a	catFR1	2	R1444D
585.219	5.573	597682	REC_WORD_VV	24.639	n/a	<>	n/a	-999	4	[0, 0, 0]	n/a	catFR1	2	R1444D
590.792	6.921	603248	REC_END	n/a	n/a	n/a	n/a	-999	4	[0, 0, 0]	n/a	catFR1	2	R1444D
597.713	10.0	610179	COUNTDOWN_START	n/a	n/a	n/a	n/a	-999	5	[0, 0, 0]	n/a	catFR1	2	R1444D
608.063	0.0	620526	COUNTDOWN_END	n/a	n/a	n/a	n/a	-999	5	[0, 0, 0]	n/a	catFR1	2	R1444D
608.063	2.0	620526	ENCODING_START	n/a	n/a	n/a	n/a	-999	5	[0, 0, 0]	n/a	catFR1	2	R1444D
610.063	1.6	622523	WORD	n/a	wordpools/wordpool_categorized_EN.txt	HUMIDITY	Weather	1	5	[0, 0, 0]	n/a	catFR1	2	R1444D
611.663	0.833	624118	WORD_OFF	n/a	n/a	HUMIDITY	Weather	1	5	[0, 0, 0]	n/a	catFR1	2	R1444D
612.496	1.6	624959	WORD	n/a	wordpools/wordpool_categorized_EN.txt	RAIN	Weather	2	5	[0, 0, 0]	n/a	catFR1	2	R1444D
614.113	0.951	626566	WORD_OFF	n/a	n/a	RAIN	Weather	2	5	[0, 0, 0]	n/a	catFR1	2	R1444D
615.064	1.6	627521	WORD	n/a	wordpools/wordpool_categorized_EN.txt	HAND	BodyParts	3	5	[0, 0, 0]	n/a	catFR1	2	R1444D
616.663	0.934	629115	WORD_OFF	n/a	n/a	HAND	BodyParts	3	5	[0, 0, 0]	n/a	catFR1	2	R1444D
617.597	1.6	630057	WORD	n/a	wordpools/wordpool_categorized_EN.txt	TOE	BodyParts	4	5	[0, 0, 0]	n/a	catFR1	2	R1444D
619.197	0.9	631652	WORD_OFF	n/a	n/a	TOE	BodyParts	4	5	[0, 0, 0]	n/a	catFR1	2	R1444D
620.097	1.6	632556	WORD	n/a	wordpools/wordpool_categorized_EN.txt	BLUEBERRY	Fruit	5	5	[0, 0, 0]	n/a	catFR1	2	R1444D
621.712	0.785	634176	WORD_OFF	n/a	n/a	BLUEBERRY	Fruit	5	5	[0, 0, 0]	n/a	catFR1	2	R1444D
622.497	1.6	634954	WORD	n/a	wordpools/wordpool_categorized_EN.txt	LEMON	Fruit	6	5	[0, 0, 0]	n/a	catFR1	2	R1444D
624.097	0.849	636549	WORD_OFF	n/a	n/a	LEMON	Fruit	6	5	[0, 0, 0]	n/a	catFR1	2	R1444D
624.946	1.6	637403	WORD	n/a	wordpools/wordpool_categorized_EN.txt	THUNDER	Weather	7	5	[0, 0, 0]	n/a	catFR1	2	R1444D
626.546	0.984	639010	WORD_OFF	n/a	n/a	THUNDER	Weather	7	5	[0, 0, 0]	n/a	catFR1	2	R1444D
627.53	1.6	639990	WORD	n/a	wordpools/wordpool_categorized_EN.txt	WIND	Weather	8	5	[0, 0, 0]	n/a	catFR1	2	R1444D
629.13	0.9	641584	WORD_OFF	n/a	n/a	WIND	Weather	8	5	[0, 0, 0]	n/a	catFR1	2	R1444D
630.03	1.6	642489	WORD	n/a	wordpools/wordpool_categorized_EN.txt	HEAD	BodyParts	9	5	[0, 0, 0]	n/a	catFR1	2	R1444D
631.647	1.0	644108	WORD_OFF	n/a	n/a	HEAD	BodyParts	9	5	[0, 0, 0]	n/a	catFR1	2	R1444D
632.647	1.6	645100	WORD	n/a	wordpools/wordpool_categorized_EN.txt	FINGERS	BodyParts	10	5	[0, 0, 0]	n/a	catFR1	2	R1444D
634.263	0.867	646720	WORD_OFF	n/a	n/a	FINGERS	BodyParts	10	5	[0, 0, 0]	n/a	catFR1	2	R1444D
635.13	1.6	647587	WORD	n/a	wordpools/wordpool_categorized_EN.txt	LIME	Fruit	11	5	[0, 0, 0]	n/a	catFR1	2	R1444D
636.73	0.85	649181	WORD_OFF	n/a	n/a	LIME	Fruit	11	5	[0, 0, 0]	n/a	catFR1	2	R1444D
637.58	1.6	650035	WORD	n/a	wordpools/wordpool_categorized_EN.txt	GRAPE	Fruit	12	5	[0, 0, 0]	n/a	catFR1	2	R1444D
639.197	0.001	651655	WORD_OFF	n/a	n/a	GRAPE	Fruit	12	5	[0, 0, 0]	n/a	catFR1	2	R1444D
639.198	0.0	651655	ENCODING_END	n/a	n/a	n/a	n/a	-999	5	[0, 0, 0]	n/a	catFR1	2	R1444D
639.198	0.0	651655	DISTRACT_START	n/a	n/a	n/a	n/a	-999	5	[0, 0, 0]	n/a	catFR1	2	R1444D
639.197	0.001	651657	PROB	33.165	n/a	n/a	n/a	-999	5	[8, 7, 8]	23.0	catFR1	2	R1444D
639.198	33.182	651658	START	n/a	n/a	n/a	n/a	-999	5	[-999, -999, -999]	n/a	catFR1	2	R1444D
672.38	0.0	684831	DISTRACT_END	n/a	n/a	n/a	n/a	-999	5	[0, 0, 0]	n/a	catFR1	2	R1444D
672.38	2.216	684838	STOP	n/a	n/a	n/a	n/a	-999	5	[-999, -999, -999]	n/a	catFR1	2	R1444D
674.596	0.665	687049	REC_START	n/a	n/a	n/a	n/a	-999	5	[0, 0, 0]	n/a	catFR1	2	R1444D
675.261	1.0	687719	REC_WORD_VV	0.665	n/a	<>	n/a	-999	5	[0, 0, 0]	n/a	catFR1	2	R1444D
676.261	1.0	688719	REC_WORD_VV	1.665	n/a	<>	n/a	-999	5	[0, 0, 0]	n/a	catFR1	2	R1444D
677.261	1.0	689719	REC_WORD_VV	2.665	n/a	<>	n/a	-999	5	[0, 0, 0]	n/a	catFR1	2	R1444D
678.261	1.0	690719	REC_WORD_VV	3.665	n/a	<>	n/a	-999	5	[0, 0, 0]	n/a	catFR1	2	R1444D
679.261	2.788	691719	REC_WORD_VV	4.665	n/a	<>	n/a	-999	5	[0, 0, 0]	n/a	catFR1	2	R1444D
682.049	0.839	694507	REC_WORD	7.453	n/a	THUNDER	Weather	7	5	[0, 0, 0]	n/a	catFR1	2	R1444D
682.888	0.396	695346	REC_WORD	8.292	n/a	THUNDER	Weather	7	5	[0, 0, 0]	n/a	catFR1	2	R1444D
683.284	2.183	695742	REC_WORD	8.688	n/a	BALL	Toys	-999	5	[0, 0, 0]	n/a	catFR1	2	R1444D
685.467	1.563	697925	REC_WORD_VV	10.871	n/a	<>	n/a	-999	5	[0, 0, 0]	n/a	catFR1	2	R1444D
687.03	0.721	699488	REC_WORD	12.434	n/a	WEATHER	n/a	-999	5	[0, 0, 0]	n/a	catFR1	2	R1444D
687.751	1.122	700209	REC_WORD_VV	13.155	n/a	<>	n/a	-999	5	[0, 0, 0]	n/a	catFR1	2	R1444D
688.873	2.248	701331	REC_WORD	14.277	n/a	BALL	Toys	-999	5	[0, 0, 0]	n/a	catFR1	2	R1444D
691.121	2.149	703578	REC_WORD	16.525	n/a	LIGHTNING	n/a	-999	5	[0, 0, 0]	n/a	catFR1	2	R1444D
693.27	3.513	705727	REC_WORD_VV	18.674	n/a	<>	n/a	-999	5	[0, 0, 0]	n/a	catFR1	2	R1444D
696.783	1.364	709240	REC_WORD_VV	22.187	n/a	<>	n/a	-999	5	[0, 0, 0]	n/a	catFR1	2	R1444D
698.147	2.443	710604	REC_WORD	23.551	n/a	CHAIR	Furniture	-999	5	[0, 0, 0]	n/a	catFR1	2	R1444D
700.59	3.121	713047	REC_WORD	25.994	n/a	BED	n/a	-999	5	[0, 0, 0]	n/a	catFR1	2	R1444D
703.711	1.067	716168	REC_WORD_VV	29.115	n/a	<>	n/a	-999	5	[0, 0, 0]	n/a	catFR1	2	R1444D
704.778	9.202	717228	REC_END	n/a	n/a	n/a	n/a	-999	5	[0, 0, 0]	n/a	catFR1	2	R1444D
713.98	10.0	726432	COUNTDOWN_START	n/a	n/a	n/a	n/a	-999	6	[0, 0, 0]	n/a	catFR1	2	R1444D
724.33	0.0	736779	COUNTDOWN_END	n/a	n/a	n/a	n/a	-999	6	[0, 0, 0]	n/a	catFR1	2	R1444D
724.33	2.183	736791	ENCODING_START	n/a	n/a	n/a	n/a	-999	6	[0, 0, 0]	n/a	catFR1	2	R1444D
726.513	1.6	738964	WORD	n/a	wordpools/wordpool_categorized_EN.txt	NOSE	BodyParts	1	6	[0, 0, 0]	n/a	catFR1	2	R1444D
728.129	1.001	740583	WORD_OFF	n/a	n/a	NOSE	BodyParts	1	6	[0, 0, 0]	n/a	catFR1	2	R1444D
729.13	1.6	741588	WORD	n/a	wordpools/wordpool_categorized_EN.txt	KNEE	BodyParts	2	6	[0, 0, 0]	n/a	catFR1	2	R1444D
730.748	0.965	743195	WORD_OFF	n/a	n/a	KNEE	BodyParts	2	6	[0, 0, 0]	n/a	catFR1	2	R1444D
731.713	1.6	744162	WORD	n/a	wordpools/wordpool_categorized_EN.txt	LIGHTNING	Weather	3	6	[0, 0, 0]	n/a	catFR1	2	R1444D
733.313	0.951	745769	WORD_OFF	n/a	n/a	LIGHTNING	Weather	3	6	[0, 0, 0]	n/a	catFR1	2	R1444D
734.264	1.6	746711	WORD	n/a	wordpools/wordpool_categorized_EN.txt	HURRICANE	Weather	4	6	[0, 0, 0]	n/a	catFR1	2	R1444D
735.88	0.883	748331	WORD_OFF	n/a	n/a	HURRICANE	Weather	4	6	[0, 0, 0]	n/a	catFR1	2	R1444D
736.763	1.6	749210	WORD	n/a	wordpools/wordpool_categorized_EN.txt	JELLO	Desserts	5	6	[0, 0, 0]	n/a	catFR1	2	R1444D
738.363	0.834	750817	WORD_OFF	n/a	n/a	JELLO	Desserts	5	6	[0, 0, 0]	n/a	catFR1	2	R1444D
739.197	1.6	751646	WORD	n/a	wordpools/wordpool_categorized_EN.txt	BROWNIES	Desserts	6	6	[0, 0, 0]	n/a	catFR1	2	R1444D
740.797	0.8	753253	WORD_OFF	n/a	n/a	BROWNIES	Desserts	6	6	[0, 0, 0]	n/a	catFR1	2	R1444D
741.597	1.6	754044	WORD	n/a	wordpools/wordpool_categorized_EN.txt	ELBOW	BodyParts	7	6	[0, 0, 0]	n/a	catFR1	2	R1444D
743.213	1.0	755664	WORD_OFF	n/a	n/a	ELBOW	BodyParts	7	6	[0, 0, 0]	n/a	catFR1	2	R1444D
744.213	1.6	756669	WORD	n/a	wordpools/wordpool_categorized_EN.txt	LEG	BodyParts	8	6	[0, 0, 0]	n/a	catFR1	2	R1444D
745.813	0.834	758264	WORD_OFF	n/a	n/a	LEG	BodyParts	8	6	[0, 0, 0]	n/a	catFR1	2	R1444D
746.647	1.6	759092	WORD	n/a	wordpools/wordpool_categorized_EN.txt	CHEESECAKE	Desserts	9	6	[0, 0, 0]	n/a	catFR1	2	R1444D
748.263	0.867	760712	WORD_OFF	n/a	n/a	CHEESECAKE	Desserts	9	6	[0, 0, 0]	n/a	catFR1	2	R1444D
749.13	1.6	761579	WORD	n/a	wordpools/wordpool_categorized_EN.txt	COBBLER	Desserts	10	6	[0, 0, 0]	n/a	catFR1	2	R1444D
750.748	1.0	763198	WORD_OFF	n/a	n/a	COBBLER	Desserts	10	6	[0, 0, 0]	n/a	catFR1	2	R1444D
751.748	1.6	764203	WORD	n/a	wordpools/wordpool_categorized_EN.txt	FOG	Weather	11	6	[0, 0, 0]	n/a	catFR1	2	R1444D
753.363	0.834	765810	WORD_OFF	n/a	n/a	FOG	Weather	11	6	[0, 0, 0]	n/a	catFR1	2	R1444D
754.197	1.6	766652	WORD	n/a	wordpools/wordpool_categorized_EN.txt	TORNADO	Weather	12	6	[0, 0, 0]	n/a	catFR1	2	R1444D
755.797	0.001	768246	WORD_OFF	n/a	n/a	TORNADO	Weather	12	6	[0, 0, 0]	n/a	catFR1	2	R1444D
755.798	0.0	768246	ENCODING_END	n/a	n/a	n/a	n/a	-999	6	[0, 0, 0]	n/a	catFR1	2	R1444D
755.798	0.0	768246	DISTRACT_START	n/a	n/a	n/a	n/a	-999	6	[0, 0, 0]	n/a	catFR1	2	R1444D
755.797	0.001	768251	PROB	14.233	n/a	n/a	n/a	-999	6	[8, 5, 3]	16.0	catFR1	2	R1444D
755.798	14.25	768252	START	n/a	n/a	n/a	n/a	-999	6	[-999, -999, -999]	n/a	catFR1	2	R1444D
770.048	5.765	782501	PROB	5.749	n/a	n/a	n/a	-999	6	[3, 5, 2]	10.0	catFR1	2	R1444D
775.813	0.0	788262	DISTRACT_END	n/a	n/a	n/a	n/a	-999	6	[0, 0, 0]	n/a	catFR1	2	R1444D
775.813	2.3	788266	STOP	n/a	n/a	n/a	n/a	-999	6	[-999, -999, -999]	n/a	catFR1	2	R1444D
778.113	0.054	790568	REC_START	n/a	n/a	n/a	n/a	-999	6	[0, 0, 0]	n/a	catFR1	2	R1444D
778.167	1.0	790620	REC_WORD_VV	0.054	n/a	<>	n/a	-999	6	[0, 0, 0]	n/a	catFR1	2	R1444D
779.167	1.0	791620	REC_WORD_VV	1.054	n/a	<>	n/a	-999	6	[0, 0, 0]	n/a	catFR1	2	R1444D
780.167	1.0	792620	REC_WORD_VV	2.054	n/a	<>	n/a	-999	6	[0, 0, 0]	n/a	catFR1	2	R1444D
781.167	1.435	793620	REC_WORD_VV	3.054	n/a	<>	n/a	-999	6	[0, 0, 0]	n/a	catFR1	2	R1444D
782.602	1.061	795055	REC_WORD	4.489	n/a	KNEE	BodyParts	2	6	[0, 0, 0]	n/a	catFR1	2	R1444D
783.663	0.275	796115	REC_WORD_VV	5.55	n/a	<>	n/a	-999	6	[0, 0, 0]	n/a	catFR1	2	R1444D
783.938	2.482	796390	REC_WORD	5.825	n/a	KNEE	BodyParts	2	6	[0, 0, 0]	n/a	catFR1	2	R1444D
786.42	1.0	798872	REC_WORD_VV	8.307	n/a	<>	n/a	-999	6	[0, 0, 0]	n/a	catFR1	2	R1444D
787.42	1.0	799872	REC_WORD_VV	9.307	n/a	<>	n/a	-999	6	[0, 0, 0]	n/a	catFR1	2	R1444D
788.42	2.597	800872	REC_WORD_VV	10.307	n/a	<>	n/a	-999	6	[0, 0, 0]	n/a	catFR1	2	R1444D
791.017	1.51	803469	REC_WORD_VV	12.904	n/a	<>	n/a	-999	6	[0, 0, 0]	n/a	catFR1	2	R1444D
792.527	3.138	804979	REC_WORD	14.414	n/a	TRAIN	n/a	-999	6	[0, 0, 0]	n/a	catFR1	2	R1444D
795.665	6.033	808117	REC_WORD_VV	17.552	n/a	<>	n/a	-999	6	[0, 0, 0]	n/a	catFR1	2	R1444D
801.698	1.04	814150	REC_WORD_VV	23.585	n/a	<>	n/a	-999	6	[0, 0, 0]	n/a	catFR1	2	R1444D
802.738	0.217	815189	REC_WORD	24.625	n/a	KNEE	BodyParts	2	6	[0, 0, 0]	n/a	catFR1	2	R1444D
802.955	0.634	815406	REC_WORD	24.842	n/a	WINE	n/a	-999	6	[0, 0, 0]	n/a	catFR1	2	R1444D
803.589	1.219	816040	REC_WORD	25.476	n/a	ELBOW	BodyParts	7	6	[0, 0, 0]	n/a	catFR1	2	R1444D
804.808	1.19	817259	REC_WORD_VV	26.695	n/a	<>	n/a	-999	6	[0, 0, 0]	n/a	catFR1	2	R1444D
805.998	1.672	818449	REC_WORD	27.885	n/a	KNIFE	KitchenTools	-999	6	[0, 0, 0]	n/a	catFR1	2	R1444D
807.67	0.619	820121	REC_WORD_VV	29.557	n/a	<>	n/a	-999	6	[0, 0, 0]	n/a	catFR1	2	R1444D
808.289	6.074	820734	REC_END	n/a	n/a	n/a	n/a	-999	6	[0, 0, 0]	n/a	catFR1	2	R1444D
814.363	10.0	826812	COUNTDOWN_START	n/a	n/a	n/a	n/a	-999	7	[0, 0, 0]	n/a	catFR1	2	R1444D
824.713	0.0	837159	COUNTDOWN_END	n/a	n/a	n/a	n/a	-999	7	[0, 0, 0]	n/a	catFR1	2	R1444D
824.713	2.284	837159	ENCODING_START	n/a	n/a	n/a	n/a	-999	7	[0, 0, 0]	n/a	catFR1	2	R1444D
826.997	1.6	839444	WORD	n/a	wordpools/wordpool_categorized_EN.txt	ERASER	OfficeSupplies	1	7	[0, 0, 0]	n/a	catFR1	2	R1444D
828.613	1.0	841064	WORD_OFF	n/a	n/a	ERASER	OfficeSupplies	1	7	[0, 0, 0]	n/a	catFR1	2	R1444D
829.613	1.6	842056	WORD	n/a	wordpools/wordpool_categorized_EN.txt	PEN	OfficeSupplies	2	7	[0, 0, 0]	n/a	catFR1	2	R1444D
831.213	1.001	843663	WORD_OFF	n/a	n/a	PEN	OfficeSupplies	2	7	[0, 0, 0]	n/a	catFR1	2	R1444D
832.214	1.6	844655	WORD	n/a	wordpools/wordpool_categorized_EN.txt	GORILLA	Zoo	3	7	[0, 0, 0]	n/a	catFR1	2	R1444D
833.83	0.95	846275	WORD_OFF	n/a	n/a	GORILLA	Zoo	3	7	[0, 0, 0]	n/a	catFR1	2	R1444D
834.78	1.6	847230	WORD	n/a	wordpools/wordpool_categorized_EN.txt	BEAR	Zoo	4	7	[0, 0, 0]	n/a	catFR1	2	R1444D
836.397	0.816	848849	WORD_OFF	n/a	n/a	BEAR	Zoo	4	7	[0, 0, 0]	n/a	catFR1	2	R1444D
837.213	1.6	849653	WORD	n/a	wordpools/wordpool_categorized_EN.txt	BLOCKS	Toys	5	7	[0, 0, 0]	n/a	catFR1	2	R1444D
838.813	0.934	851260	WORD_OFF	n/a	n/a	BLOCKS	Toys	5	7	[0, 0, 0]	n/a	catFR1	2	R1444D
839.747	1.6	852190	WORD	n/a	wordpools/wordpool_categorized_EN.txt	DOLLHOUSE	Toys	6	7	[0, 0, 0]	n/a	catFR1	2	R1444D
841.363	0.9	853809	WORD_OFF	n/a	n/a	DOLLHOUSE	Toys	6	7	[0, 0, 0]	n/a	catFR1	2	R1444D
842.263	1.6	854714	WORD	n/a	wordpools/wordpool_categorized_EN.txt	LION	Zoo	7	7	[0, 0, 0]	n/a	catFR1	2	R1444D
843.863	0.934	856308	WORD_OFF	n/a	n/a	LION	Zoo	7	7	[0, 0, 0]	n/a	catFR1	2	R1444D
844.797	1.6	857237	WORD	n/a	wordpools/wordpool_categorized_EN.txt	CHIMPANZEE	Zoo	8	7	[0, 0, 0]	n/a	catFR1	2	R1444D
846.397	1.0	858845	WORD_OFF	n/a	n/a	CHIMPANZEE	Zoo	8	7	[0, 0, 0]	n/a	catFR1	2	R1444D
847.397	1.6	859837	WORD	n/a	wordpools/wordpool_categorized_EN.txt	SLINKY	Toys	9	7	[0, 0, 0]	n/a	catFR1	2	R1444D
849.013	0.884	861457	WORD_OFF	n/a	n/a	SLINKY	Toys	9	7	[0, 0, 0]	n/a	catFR1	2	R1444D
849.897	1.6	862348	WORD	n/a	wordpools/wordpool_categorized_EN.txt	FRISBEE	Toys	10	7	[0, 0, 0]	n/a	catFR1	2	R1444D
851.513	0.934	863955	WORD_OFF	n/a	n/a	FRISBEE	Toys	10	7	[0, 0, 0]	n/a	catFR1	2	R1444D
852.447	1.6	864897	WORD	n/a	wordpools/wordpool_categorized_EN.txt	GLUE	OfficeSupplies	11	7	[0, 0, 0]	n/a	catFR1	2	R1444D
854.063	0.949	866505	WORD_OFF	n/a	n/a	GLUE	OfficeSupplies	11	7	[0, 0, 0]	n/a	catFR1	2	R1444D
855.012	1.6	867459	WORD	n/a	wordpools/wordpool_categorized_EN.txt	PAPER	OfficeSupplies	12	7	[0, 0, 0]	n/a	catFR1	2	R1444D
856.613	0.001	869054	WORD_OFF	n/a	n/a	PAPER	OfficeSupplies	12	7	[0, 0, 0]	n/a	catFR1	2	R1444D
856.614	0.001	869063	PROB	11.866	n/a	n/a	n/a	-999	7	[3, 3, 2]	8.0	catFR1	2	R1444D
856.615	0.0	869064	START	n/a	n/a	n/a	n/a	-999	7	[-999, -999, -999]	n/a	catFR1	2	R1444D
856.615	0.0	869066	ENCODING_END	n/a	n/a	n/a	n/a	-999	7	[0, 0, 0]	n/a	catFR1	2	R1444D
856.615	11.882	869066	DISTRACT_START	n/a	n/a	n/a	n/a	-999	7	[0, 0, 0]	n/a	catFR1	2	R1444D
868.497	3.617	880945	PROB	3.6	n/a	n/a	n/a	-999	7	[2, 2, 1]	5.0	catFR1	2	R1444D
872.114	6.432	884562	PROB	6.415	n/a	n/a	n/a	-999	7	[5, 8, 4]	17.0	catFR1	2	R1444D
878.546	0.0	890991	DISTRACT_END	n/a	n/a	n/a	n/a	-999	7	[0, 0, 0]	n/a	catFR1	2	R1444D
878.546	2.15	890993	STOP	n/a	n/a	n/a	n/a	-999	7	[-999, -999, -999]	n/a	catFR1	2	R1444D
880.696	0.0	893143	REC_WORD_VV	0.0	n/a	<>	n/a	-999	7	[0, 0, 0]	n/a	catFR1	2	R1444D
880.696	0.57	893146	REC_START	n/a	n/a	n/a	n/a	-999	7	[0, 0, 0]	n/a	catFR1	2	R1444D
881.266	1.379	893713	REC_WORD	0.57	n/a	PAPER	OfficeSupplies	12	7	[0, 0, 0]	n/a	catFR1	2	R1444D
882.645	1.0	895092	REC_WORD_VV	1.949	n/a	<>	n/a	-999	7	[0, 0, 0]	n/a	catFR1	2	R1444D
883.645	0.871	896092	REC_WORD_VV	2.949	n/a	<>	n/a	-999	7	[0, 0, 0]	n/a	catFR1	2	R1444D
884.516	1.828	896963	REC_WORD	3.82	n/a	CHIMPANZEE	Zoo	8	7	[0, 0, 0]	n/a	catFR1	2	R1444D
886.344	3.004	898791	REC_WORD_VV	5.648	n/a	<>	n/a	-999	7	[0, 0, 0]	n/a	catFR1	2	R1444D
889.348	1.133	901795	REC_WORD_VV	8.652	n/a	<>	n/a	-999	7	[0, 0, 0]	n/a	catFR1	2	R1444D
890.481	1.901	902928	REC_WORD	9.785	n/a	SHOES	Clothing	-999	7	[0, 0, 0]	n/a	catFR1	2	R1444D
892.382	1.0	904829	REC_WORD_VV	11.686	n/a	<>	n/a	-999	7	[0, 0, 0]	n/a	catFR1	2	R1444D
893.382	1.357	905829	REC_WORD_VV	12.686	n/a	<>	n/a	-999	7	[0, 0, 0]	n/a	catFR1	2	R1444D
894.739	0.484	907186	REC_WORD	14.043	n/a	SHOES	Clothing	-999	7	[0, 0, 0]	n/a	catFR1	2	R1444D
895.223	1.59	907670	REC_WORD	14.527	n/a	KNIFE	KitchenTools	-999	7	[0, 0, 0]	n/a	catFR1	2	R1444D
896.813	3.892	909259	REC_WORD_VV	16.117	n/a	<>	n/a	-999	7	[0, 0, 0]	n/a	catFR1	2	R1444D
900.705	3.284	913151	REC_WORD	20.009	n/a	GLUE	OfficeSupplies	11	7	[0, 0, 0]	n/a	catFR1	2	R1444D
903.989	4.07	916435	REC_WORD_VV	23.293	n/a	<>	n/a	-999	7	[0, 0, 0]	n/a	catFR1	2	R1444D
908.059	2.809	920505	REC_WORD_VV	27.363	n/a	<>	n/a	-999	7	[0, 0, 0]	n/a	catFR1	2	R1444D
910.868	18.529	923312	REC_END	n/a	n/a	n/a	n/a	-999	7	[0, 0, 0]	n/a	catFR1	2	R1444D
929.397	10.0	941834	COUNTDOWN_START	n/a	n/a	n/a	n/a	-999	8	[0, 0, 0]	n/a	catFR1	2	R1444D
939.746	0.0	952193	COUNTDOWN_END	n/a	n/a	n/a	n/a	-999	8	[0, 0, 0]	n/a	catFR1	2	R1444D
939.746	1.984	952193	ENCODING_START	n/a	n/a	n/a	n/a	-999	8	[0, 0, 0]	n/a	catFR1	2	R1444D
941.73	1.6	954165	WORD	n/a	wordpools/wordpool_categorized_EN.txt	APPLE	Fruit	1	8	[0, 0, 0]	n/a	catFR1	2	R1444D
943.33	0.783	955772	WORD_OFF	n/a	n/a	APPLE	Fruit	1	8	[0, 0, 0]	n/a	catFR1	2	R1444D
944.113	1.6	956550	WORD	n/a	wordpools/wordpool_categorized_EN.txt	BANANA	Fruit	2	8	[0, 0, 0]	n/a	catFR1	2	R1444D
945.713	0.934	958158	WORD_OFF	n/a	n/a	BANANA	Fruit	2	8	[0, 0, 0]	n/a	catFR1	2	R1444D
946.647	1.6	959087	WORD	n/a	wordpools/wordpool_categorized_EN.txt	CAULIFLOWER	Vegetables	3	8	[0, 0, 0]	n/a	catFR1	2	R1444D
948.247	0.95	960682	WORD_OFF	n/a	n/a	CAULIFLOWER	Vegetables	3	8	[0, 0, 0]	n/a	catFR1	2	R1444D
949.197	1.6	961636	WORD	n/a	wordpools/wordpool_categorized_EN.txt	CABBAGE	Vegetables	4	8	[0, 0, 0]	n/a	catFR1	2	R1444D
950.813	0.9	963256	WORD_OFF	n/a	n/a	CABBAGE	Vegetables	4	8	[0, 0, 0]	n/a	catFR1	2	R1444D
951.713	1.6	964147	WORD	n/a	wordpools/wordpool_categorized_EN.txt	FUDGE	Desserts	5	8	[0, 0, 0]	n/a	catFR1	2	R1444D
953.314	0.899	965755	WORD_OFF	n/a	n/a	FUDGE	Desserts	5	8	[0, 0, 0]	n/a	catFR1	2	R1444D
954.213	1.6	966659	WORD	n/a	wordpools/wordpool_categorized_EN.txt	PASTRY	Desserts	6	8	[0, 0, 0]	n/a	catFR1	2	R1444D
955.813	0.817	968253	WORD_OFF	n/a	n/a	PASTRY	Desserts	6	8	[0, 0, 0]	n/a	catFR1	2	R1444D
956.63	1.6	969070	WORD	n/a	wordpools/wordpool_categorized_EN.txt	CARROT	Vegetables	7	8	[0, 0, 0]	n/a	catFR1	2	R1444D
958.246	0.916	970690	WORD_OFF	n/a	n/a	CARROT	Vegetables	7	8	[0, 0, 0]	n/a	catFR1	2	R1444D
959.162	1.6	971606	WORD	n/a	wordpools/wordpool_categorized_EN.txt	ONION	Vegetables	8	8	[0, 0, 0]	n/a	catFR1	2	R1444D
960.763	0.916	973201	WORD_OFF	n/a	n/a	ONION	Vegetables	8	8	[0, 0, 0]	n/a	catFR1	2	R1444D
961.679	1.6	974118	WORD	n/a	wordpools/wordpool_categorized_EN.txt	ORANGE	Fruit	9	8	[0, 0, 0]	n/a	catFR1	2	R1444D
963.28	0.966	975725	WORD_OFF	n/a	n/a	ORANGE	Fruit	9	8	[0, 0, 0]	n/a	catFR1	2	R1444D
964.246	1.6	976679	WORD	n/a	wordpools/wordpool_categorized_EN.txt	STRAWBERRY	Fruit	10	8	[0, 0, 0]	n/a	catFR1	2	R1444D
965.863	0.766	978299	WORD_OFF	n/a	n/a	STRAWBERRY	Fruit	10	8	[0, 0, 0]	n/a	catFR1	2	R1444D
966.629	1.6	979065	WORD	n/a	wordpools/wordpool_categorized_EN.txt	MOUSSE	Desserts	11	8	[0, 0, 0]	n/a	catFR1	2	R1444D
968.23	0.9	980672	WORD_OFF	n/a	n/a	MOUSSE	Desserts	11	8	[0, 0, 0]	n/a	catFR1	2	R1444D
969.13	1.6	981564	WORD	n/a	wordpools/wordpool_categorized_EN.txt	CUPCAKE	Desserts	12	8	[0, 0, 0]	n/a	catFR1	2	R1444D
970.746	0.001	983184	WORD_OFF	n/a	n/a	CUPCAKE	Desserts	12	8	[0, 0, 0]	n/a	catFR1	2	R1444D
970.747	0.0	983184	ENCODING_END	n/a	n/a	n/a	n/a	-999	8	[0, 0, 0]	n/a	catFR1	2	R1444D
970.747	0.0	983184	DISTRACT_START	n/a	n/a	n/a	n/a	-999	8	[0, 0, 0]	n/a	catFR1	2	R1444D
970.746	0.001	983188	PROB	7.6	n/a	n/a	n/a	-999	8	[7, 7, 1]	15.0	catFR1	2	R1444D
970.747	7.617	983189	START	n/a	n/a	n/a	n/a	-999	8	[-999, -999, -999]	n/a	catFR1	2	R1444D
978.364	4.366	990806	PROB	4.349	n/a	n/a	n/a	-999	8	[4, 4, 1]	9.0	catFR1	2	R1444D
982.73	6.951	995172	PROB	6.932	n/a	n/a	n/a	-999	8	[3, 2, 4]	9.0	catFR1	2	R1444D
989.681	8.581	1002122	PROB	8.565	n/a	n/a	n/a	-999	8	[6, 8, 1]	15.0	catFR1	2	R1444D
998.262	0.0	1010696	DISTRACT_END	n/a	n/a	n/a	n/a	-999	8	[0, 0, 0]	n/a	catFR1	2	R1444D
998.262	2.401	1010703	STOP	n/a	n/a	n/a	n/a	-999	8	[-999, -999, -999]	n/a	catFR1	2	R1444D
1000.663	3.356	1013102	REC_START	n/a	n/a	n/a	n/a	-999	8	[0, 0, 0]	n/a	catFR1	2	R1444D
1004.019	1.562	1016460	REC_WORD_VV	3.356	n/a	<>	n/a	-999	8	[0, 0, 0]	n/a	catFR1	2	R1444D
1005.581	1.565	1018022	REC_WORD	4.918	n/a	APPLE	Fruit	1	8	[0, 0, 0]	n/a	catFR1	2	R1444D
1007.146	0.468	1019587	REC_WORD	6.483	n/a	CAKE	n/a	-999	8	[0, 0, 0]	n/a	catFR1	2	R1444D
1007.614	1.0	1020055	REC_WORD_VV	6.951	n/a	<>	n/a	-999	8	[0, 0, 0]	n/a	catFR1	2	R1444D
1008.614	0.797	1021054	REC_WORD_VV	7.951	n/a	<>	n/a	-999	8	[0, 0, 0]	n/a	catFR1	2	R1444D
1009.411	1.327	1021851	REC_WORD	8.748	n/a	CHEESECAKE	Desserts	-999	8	[0, 0, 0]	n/a	catFR1	2	R1444D
1010.738	0.583	1023178	REC_WORD_VV	10.075	n/a	<>	n/a	-999	8	[0, 0, 0]	n/a	catFR1	2	R1444D
1011.321	1.579	1023761	REC_WORD	10.658	n/a	MOUSSE	Desserts	11	8	[0, 0, 0]	n/a	catFR1	2	R1444D
1012.9	2.36	1025340	REC_WORD_VV	12.237	n/a	<>	n/a	-999	8	[0, 0, 0]	n/a	catFR1	2	R1444D
1015.26	2.283	1027700	REC_WORD	14.597	n/a	MOUSSE	Desserts	11	8	[0, 0, 0]	n/a	catFR1	2	R1444D
1017.543	5.288	1029983	REC_WORD_VV	16.88	n/a	<>	n/a	-999	8	[0, 0, 0]	n/a	catFR1	2	R1444D
1022.831	1.762	1035271	REC_WORD	22.168	n/a	MOUSSE	Desserts	11	8	[0, 0, 0]	n/a	catFR1	2	R1444D
1024.593	0.31	1037033	REC_WORD	23.93	n/a	APPLE	Fruit	1	8	[0, 0, 0]	n/a	catFR1	2	R1444D
1024.903	0.405	1037343	REC_WORD	24.24	n/a	CAKE	n/a	-999	8	[0, 0, 0]	n/a	catFR1	2	R1444D
1025.308	1.425	1037748	REC_WORD_VV	24.645	n/a	<>	n/a	-999	8	[0, 0, 0]	n/a	catFR1	2	R1444D
1026.733	3.649	1039173	REC_WORD_VV	26.07	n/a	<>	n/a	-999	8	[0, 0, 0]	n/a	catFR1	2	R1444D
1030.382	0.462	1042821	REC_WORD	29.719	n/a	APPLE	Fruit	1	8	[0, 0, 0]	n/a	catFR1	2	R1444D
1030.844	12.686	1043281	REC_END	n/a	n/a	n/a	n/a	-999	8	[0, 0, 0]	n/a	catFR1	2	R1444D
1043.53	10.0	1055964	COUNTDOWN_START	n/a	n/a	n/a	n/a	-999	9	[0, 0, 0]	n/a	catFR1	2	R1444D
1053.879	0.0	1066311	COUNTDOWN_END	n/a	n/a	n/a	n/a	-999	9	[0, 0, 0]	n/a	catFR1	2	R1444D
1053.879	2.201	1066311	ENCODING_START	n/a	n/a	n/a	n/a	-999	9	[0, 0, 0]	n/a	catFR1	2	R1444D
1056.08	1.6	1068521	WORD	n/a	wordpools/wordpool_categorized_EN.txt	CROWBAR	Tools	1	9	[0, 0, 0]	n/a	catFR1	2	R1444D
1057.68	0.983	1070116	WORD_OFF	n/a	n/a	CROWBAR	Tools	1	9	[0, 0, 0]	n/a	catFR1	2	R1444D
1058.663	1.6	1071095	WORD	n/a	wordpools/wordpool_categorized_EN.txt	HAMMER	Tools	2	9	[0, 0, 0]	n/a	catFR1	2	R1444D
1060.28	0.817	1072715	WORD_OFF	n/a	n/a	HAMMER	Tools	2	9	[0, 0, 0]	n/a	catFR1	2	R1444D
1061.097	1.6	1073531	WORD	n/a	wordpools/wordpool_categorized_EN.txt	CALCULATOR	Electronics	3	9	[0, 0, 0]	n/a	catFR1	2	R1444D
1062.697	0.765	1075126	WORD_OFF	n/a	n/a	CALCULATOR	Electronics	3	9	[0, 0, 0]	n/a	catFR1	2	R1444D
1063.462	1.6	1075892	WORD	n/a	wordpools/wordpool_categorized_EN.txt	TABLET	Electronics	4	9	[0, 0, 0]	n/a	catFR1	2	R1444D
1065.079	0.95	1077512	WORD_OFF	n/a	n/a	TABLET	Electronics	4	9	[0, 0, 0]	n/a	catFR1	2	R1444D
1066.029	1.6	1078466	WORD	n/a	wordpools/wordpool_categorized_EN.txt	NOTEBOOK	OfficeSupplies	5	9	[0, 0, 0]	n/a	catFR1	2	R1444D
1067.629	1.001	1080061	WORD_OFF	n/a	n/a	NOTEBOOK	OfficeSupplies	5	9	[0, 0, 0]	n/a	catFR1	2	R1444D
1068.63	1.6	1081065	WORD	n/a	wordpools/wordpool_categorized_EN.txt	MARKER	OfficeSupplies	6	9	[0, 0, 0]	n/a	catFR1	2	R1444D
1070.23	0.966	1082660	WORD_OFF	n/a	n/a	MARKER	OfficeSupplies	6	9	[0, 0, 0]	n/a	catFR1	2	R1444D
1071.196	1.6	1083627	WORD	n/a	wordpools/wordpool_categorized_EN.txt	SANDER	Tools	7	9	[0, 0, 0]	n/a	catFR1	2	R1444D
1072.797	0.95	1085234	WORD_OFF	n/a	n/a	SANDER	Tools	7	9	[0, 0, 0]	n/a	catFR1	2	R1444D
1073.747	1.6	1086176	WORD	n/a	wordpools/wordpool_categorized_EN.txt	RATCHET	Tools	8	9	[0, 0, 0]	n/a	catFR1	2	R1444D
1075.347	0.783	1087783	WORD_OFF	n/a	n/a	RATCHET	Tools	8	9	[0, 0, 0]	n/a	catFR1	2	R1444D
1076.13	1.6	1088562	WORD	n/a	wordpools/wordpool_categorized_EN.txt	MICROWAVE	Electronics	9	9	[0, 0, 0]	n/a	catFR1	2	R1444D
1077.747	0.864	1090181	WORD_OFF	n/a	n/a	MICROWAVE	Electronics	9	9	[0, 0, 0]	n/a	catFR1	2	R1444D
1078.611	1.6	1091048	WORD	n/a	wordpools/wordpool_categorized_EN.txt	SCANNER	Electronics	10	9	[0, 0, 0]	n/a	catFR1	2	R1444D
1080.213	0.883	1092643	WORD_OFF	n/a	n/a	SCANNER	Electronics	10	9	[0, 0, 0]	n/a	catFR1	2	R1444D
1081.096	1.6	1093534	WORD	n/a	wordpools/wordpool_categorized_EN.txt	PENCIL	OfficeSupplies	11	9	[0, 0, 0]	n/a	catFR1	2	R1444D
1082.713	0.884	1095141	WORD_OFF	n/a	n/a	PENCIL	OfficeSupplies	11	9	[0, 0, 0]	n/a	catFR1	2	R1444D
1083.597	1.6	1096033	WORD	n/a	wordpools/wordpool_categorized_EN.txt	TAPE	OfficeSupplies	12	9	[0, 0, 0]	n/a	catFR1	2	R1444D
1085.197	0.001	1097628	WORD_OFF	n/a	n/a	TAPE	OfficeSupplies	12	9	[0, 0, 0]	n/a	catFR1	2	R1444D
1085.198	0.0	1097628	ENCODING_END	n/a	n/a	n/a	n/a	-999	9	[0, 0, 0]	n/a	catFR1	2	R1444D
1085.198	0.0	1097628	DISTRACT_START	n/a	n/a	n/a	n/a	-999	9	[0, 0, 0]	n/a	catFR1	2	R1444D
1085.197	0.001	1097633	PROB	9.75	n/a	n/a	n/a	-999	9	[2, 5, 7]	14.0	catFR1	2	R1444D
1085.198	9.767	1097634	START	n/a	n/a	n/a	n/a	-999	9	[-999, -999, -999]	n/a	catFR1	2	R1444D
1094.965	15.315	1107401	PROB	15.299	n/a	n/a	n/a	-999	9	[8, 7, 6]	20.0	catFR1	2	R1444D
1110.28	0.0	1122715	STOP	n/a	n/a	n/a	n/a	-999	9	[-999, -999, -999]	n/a	catFR1	2	R1444D
1110.28	2.383	1122717	DISTRACT_END	n/a	n/a	n/a	n/a	-999	9	[0, 0, 0]	n/a	catFR1	2	R1444D
1112.663	0.691	1125098	REC_START	n/a	n/a	n/a	n/a	-999	9	[0, 0, 0]	n/a	catFR1	2	R1444D
1113.354	0.615	1125789	REC_WORD	0.691	n/a	RATCHET	Tools	8	9	[0, 0, 0]	n/a	catFR1	2	R1444D
1113.969	0.986	1126404	REC_WORD_VV	1.306	n/a	<>	n/a	-999	9	[0, 0, 0]	n/a	catFR1	2	R1444D
1114.955	0.805	1127390	REC_WORD	2.292	n/a	CROWBAR	Tools	1	9	[0, 0, 0]	n/a	catFR1	2	R1444D
1115.76	0.684	1128195	REC_WORD_VV	3.097	n/a	<>	n/a	-999	9	[0, 0, 0]	n/a	catFR1	2	R1444D
1116.444	1.265	1128879	REC_WORD	3.781	n/a	MALLET	n/a	-999	9	[0, 0, 0]	n/a	catFR1	2	R1444D
1117.709	1.936	1130144	REC_WORD_VV	5.046	n/a	<>	n/a	-999	9	[0, 0, 0]	n/a	catFR1	2	R1444D
1119.645	1.872	1132080	REC_WORD	6.982	n/a	TABLE	Furniture	-999	9	[0, 0, 0]	n/a	catFR1	2	R1444D
1121.517	3.958	1133951	REC_WORD_VV	8.854	n/a	<>	n/a	-999	9	[0, 0, 0]	n/a	catFR1	2	R1444D
1125.475	3.505	1137909	REC_WORD_VV	12.812	n/a	<>	n/a	-999	9	[0, 0, 0]	n/a	catFR1	2	R1444D
1128.98	1.094	1141414	REC_WORD_VV	16.317	n/a	<>	n/a	-999	9	[0, 0, 0]	n/a	catFR1	2	R1444D
1130.074	2.147	1142508	REC_WORD	17.411	n/a	MOUSSE	Desserts	-999	9	[0, 0, 0]	n/a	catFR1	2	R1444D
1132.221	2.402	1144655	REC_WORD_VV	19.558	n/a	<>	n/a	-999	9	[0, 0, 0]	n/a	catFR1	2	R1444D
1134.623	3.565	1147057	REC_WORD	21.96	n/a	MOUSSE	Desserts	-999	9	[0, 0, 0]	n/a	catFR1	2	R1444D
1138.188	4.661	1150622	REC_WORD_VV	25.525	n/a	<>	n/a	-999	9	[0, 0, 0]	n/a	catFR1	2	R1444D
1142.849	6.331	1155277	REC_END	n/a	n/a	n/a	n/a	-999	9	[0, 0, 0]	n/a	catFR1	2	R1444D
1149.18	10.0	1161605	COUNTDOWN_START	n/a	n/a	n/a	n/a	-999	10	[0, 0, 0]	n/a	catFR1	2	R1444D
1159.53	0.0	1171965	COUNTDOWN_END	n/a	n/a	n/a	n/a	-999	10	[0, 0, 0]	n/a	catFR1	2	R1444D
1159.53	1.95	1171965	ENCODING_START	n/a	n/a	n/a	n/a	-999	10	[0, 0, 0]	n/a	catFR1	2	R1444D
1161.48	1.6	1173911	WORD	n/a	wordpools/wordpool_categorized_EN.txt	BLOUSE	Clothing	1	10	[0, 0, 0]	n/a	catFR1	2	R1444D
1163.097	0.866	1175531	WORD_OFF	n/a	n/a	BLOUSE	Clothing	1	10	[0, 0, 0]	n/a	catFR1	2	R1444D
1163.963	1.6	1176398	WORD	n/a	wordpools/wordpool_categorized_EN.txt	SKIRT	Clothing	2	10	[0, 0, 0]	n/a	catFR1	2	R1444D
1165.58	0.849	1178005	WORD_OFF	n/a	n/a	SKIRT	Clothing	2	10	[0, 0, 0]	n/a	catFR1	2	R1444D
1166.429	1.6	1178859	WORD	n/a	wordpools/wordpool_categorized_EN.txt	SPATULA	KitchenTools	3	10	[0, 0, 0]	n/a	catFR1	2	R1444D
1168.03	0.8	1180453	WORD_OFF	n/a	n/a	SPATULA	KitchenTools	3	10	[0, 0, 0]	n/a	catFR1	2	R1444D
1168.83	1.6	1181257	WORD	n/a	wordpools/wordpool_categorized_EN.txt	COLANDER	KitchenTools	4	10	[0, 0, 0]	n/a	catFR1	2	R1444D
1170.446	0.784	1182877	WORD_OFF	n/a	n/a	COLANDER	KitchenTools	4	10	[0, 0, 0]	n/a	catFR1	2	R1444D
1171.23	1.6	1183655	WORD	n/a	wordpools/wordpool_categorized_EN.txt	SHOVEL	Tools	5	10	[0, 0, 0]	n/a	catFR1	2	R1444D
1172.83	0.949	1185263	WORD_OFF	n/a	n/a	SHOVEL	Tools	5	10	[0, 0, 0]	n/a	catFR1	2	R1444D
1173.779	1.6	1186205	WORD	n/a	wordpools/wordpool_categorized_EN.txt	PLIERS	Tools	6	10	[0, 0, 0]	n/a	catFR1	2	R1444D
1175.38	0.933	1187812	WORD_OFF	n/a	n/a	PLIERS	Tools	6	10	[0, 0, 0]	n/a	catFR1	2	R1444D
1176.313	1.6	1188741	WORD	n/a	wordpools/wordpool_categorized_EN.txt	JEANS	Clothing	7	10	[0, 0, 0]	n/a	catFR1	2	R1444D
1177.913	0.85	1190336	WORD_OFF	n/a	n/a	JEANS	Clothing	7	10	[0, 0, 0]	n/a	catFR1	2	R1444D
1178.763	1.6	1191190	WORD	n/a	wordpools/wordpool_categorized_EN.txt	SOCKS	Clothing	8	10	[0, 0, 0]	n/a	catFR1	2	R1444D
1180.363	1.0	1192797	WORD_OFF	n/a	n/a	SOCKS	Clothing	8	10	[0, 0, 0]	n/a	catFR1	2	R1444D
1181.363	1.6	1193789	WORD	n/a	wordpools/wordpool_categorized_EN.txt	LEVEL	Tools	9	10	[0, 0, 0]	n/a	catFR1	2	R1444D
1182.98	0.767	1195409	WORD_OFF	n/a	n/a	LEVEL	Tools	9	10	[0, 0, 0]	n/a	catFR1	2	R1444D
1183.747	1.6	1196175	WORD	n/a	wordpools/wordpool_categorized_EN.txt	SCREWDRIVER	Tools	10	10	[0, 0, 0]	n/a	catFR1	2	R1444D
1185.347	0.95	1197769	WORD_OFF	n/a	n/a	SCREWDRIVER	Tools	10	10	[0, 0, 0]	n/a	catFR1	2	R1444D
1186.297	1.6	1198724	WORD	n/a	wordpools/wordpool_categorized_EN.txt	FORK	KitchenTools	11	10	[0, 0, 0]	n/a	catFR1	2	R1444D
1187.913	0.801	1200344	WORD_OFF	n/a	n/a	FORK	KitchenTools	11	10	[0, 0, 0]	n/a	catFR1	2	R1444D
1188.714	1.6	1201147	WORD	n/a	wordpools/wordpool_categorized_EN.txt	PEELER	KitchenTools	12	10	[0, 0, 0]	n/a	catFR1	2	R1444D
1190.329	0.002	1202755	WORD_OFF	n/a	n/a	PEELER	KitchenTools	12	10	[0, 0, 0]	n/a	catFR1	2	R1444D
1190.331	0.0	1202755	ENCODING_END	n/a	n/a	n/a	n/a	-999	10	[0, 0, 0]	n/a	catFR1	2	R1444D
1190.33	0.001	1202761	PROB	8.0	n/a	n/a	n/a	-999	10	[4, 2, 1]	7.0	catFR1	2	R1444D
1190.331	0.0	1202762	START	n/a	n/a	n/a	n/a	-999	10	[-999, -999, -999]	n/a	catFR1	2	R1444D
1190.331	8.015	1202767	DISTRACT_START	n/a	n/a	n/a	n/a	-999	10	[0, 0, 0]	n/a	catFR1	2	R1444D
1198.346	5.284	1210776	PROB	5.267	n/a	n/a	n/a	-999	10	[5, 1, 3]	9.0	catFR1	2	R1444D
1203.63	7.066	1216060	PROB	7.049	n/a	n/a	n/a	-999	10	[7, 8, 3]	18.0	catFR1	2	R1444D
1210.696	0.0	1223122	DISTRACT_END	n/a	n/a	n/a	n/a	-999	10	[0, 0, 0]	n/a	catFR1	2	R1444D
1210.696	2.017	1223126	STOP	n/a	n/a	n/a	n/a	-999	10	[-999, -999, -999]	n/a	catFR1	2	R1444D
1212.713	0.0	1225139	REC_START	n/a	n/a	n/a	n/a	-999	10	[0, 0, 0]	n/a	catFR1	2	R1444D
1212.713	1.119	1225143	REC_WORD	0.0	n/a	SCREWDRIVER	Tools	10	10	[0, 0, 0]	n/a	catFR1	2	R1444D
1213.832	0.701	1226262	REC_WORD_VV	1.119	n/a	<>	n/a	-999	10	[0, 0, 0]	n/a	catFR1	2	R1444D
1214.533	2.013	1226963	REC_WORD	1.82	n/a	CORK	n/a	-999	10	[0, 0, 0]	n/a	catFR1	2	R1444D
1216.546	1.86	1228975	REC_WORD_VV	3.833	n/a	<>	n/a	-999	10	[0, 0, 0]	n/a	catFR1	2	R1444D
1218.406	0.432	1230835	REC_WORD	5.693	n/a	CORK	n/a	-999	10	[0, 0, 0]	n/a	catFR1	2	R1444D
1218.838	1.509	1231267	REC_WORD_VV	6.125	n/a	<>	n/a	-999	10	[0, 0, 0]	n/a	catFR1	2	R1444D
1220.347	1.906	1232776	REC_WORD	7.634	n/a	CORK	n/a	-999	10	[0, 0, 0]	n/a	catFR1	2	R1444D
1222.253	1.656	1234682	REC_WORD_VV	9.54	n/a	<>	n/a	-999	10	[0, 0, 0]	n/a	catFR1	2	R1444D
1223.909	1.689	1236338	REC_WORD	11.196	n/a	SKIRT	Clothing	2	10	[0, 0, 0]	n/a	catFR1	2	R1444D
1225.598	2.588	1238027	REC_WORD_VV	12.885	n/a	<>	n/a	-999	10	[0, 0, 0]	n/a	catFR1	2	R1444D
1228.186	2.368	1240615	REC_WORD	15.473	n/a	SKIRT	Clothing	2	10	[0, 0, 0]	n/a	catFR1	2	R1444D
1230.554	3.223	1242983	REC_WORD	17.841	n/a	ELBOW	BodyParts	-999	10	[0, 0, 0]	n/a	catFR1	2	R1444D
1233.777	7.051	1246205	REC_WORD_VV	21.064	n/a	<>	n/a	-999	10	[0, 0, 0]	n/a	catFR1	2	R1444D
1240.828	2.088	1253256	REC_WORD_VV	28.115	n/a	<>	n/a	-999	10	[0, 0, 0]	n/a	catFR1	2	R1444D
1242.916	4.831	1255343	REC_END	n/a	n/a	n/a	n/a	-999	10	[0, 0, 0]	n/a	catFR1	2	R1444D
1247.747	10.0	1260178	COUNTDOWN_START	n/a	n/a	n/a	n/a	-999	11	[0, 0, 0]	n/a	catFR1	2	R1444D
1258.097	0.0	1270524	COUNTDOWN_END	n/a	n/a	n/a	n/a	-999	11	[0, 0, 0]	n/a	catFR1	2	R1444D
1258.097	2.033	1270524	ENCODING_START	n/a	n/a	n/a	n/a	-999	11	[0, 0, 0]	n/a	catFR1	2	R1444D
1260.13	1.6	1272559	WORD	n/a	wordpools/wordpool_categorized_EN.txt	WRENCH	Tools	1	11	[0, 0, 0]	n/a	catFR1	2	R1444D
1261.746	0.884	1274166	WORD_OFF	n/a	n/a	WRENCH	Tools	1	11	[0, 0, 0]	n/a	catFR1	2	R1444D
1262.63	1.6	1275057	WORD	n/a	wordpools/wordpool_categorized_EN.txt	DRILL	Tools	2	11	[0, 0, 0]	n/a	catFR1	2	R1444D
1264.23	0.967	1276652	WORD_OFF	n/a	n/a	DRILL	Tools	2	11	[0, 0, 0]	n/a	catFR1	2	R1444D
1265.197	1.6	1277619	WORD	n/a	wordpools/wordpool_categorized_EN.txt	CRAB	OceanAnimals	3	11	[0, 0, 0]	n/a	catFR1	2	R1444D
1266.797	0.866	1279226	WORD_OFF	n/a	n/a	CRAB	OceanAnimals	3	11	[0, 0, 0]	n/a	catFR1	2	R1444D
1267.663	1.6	1280080	WORD	n/a	wordpools/wordpool_categorized_EN.txt	OCTOPUS	OceanAnimals	4	11	[0, 0, 0]	n/a	catFR1	2	R1444D
1269.263	0.949	1281688	WORD_OFF	n/a	n/a	OCTOPUS	OceanAnimals	4	11	[0, 0, 0]	n/a	catFR1	2	R1444D
1270.212	1.6	1282629	WORD	n/a	wordpools/wordpool_categorized_EN.txt	ROBIN	Birds	5	11	[0, 0, 0]	n/a	catFR1	2	R1444D
1271.829	0.784	1284249	WORD_OFF	n/a	n/a	ROBIN	Birds	5	11	[0, 0, 0]	n/a	catFR1	2	R1444D
1272.613	1.6	1285040	WORD	n/a	wordpools/wordpool_categorized_EN.txt	SEAGULL	Birds	6	11	[0, 0, 0]	n/a	catFR1	2	R1444D
1274.213	0.883	1286635	WORD_OFF	n/a	n/a	SEAGULL	Birds	6	11	[0, 0, 0]	n/a	catFR1	2	R1444D
1275.096	1.6	1287514	WORD	n/a	wordpools/wordpool_categorized_EN.txt	WHALE	OceanAnimals	7	11	[0, 0, 0]	n/a	catFR1	2	R1444D
1276.696	0.884	1289121	WORD_OFF	n/a	n/a	WHALE	OceanAnimals	7	11	[0, 0, 0]	n/a	catFR1	2	R1444D
1277.58	1.6	1290000	WORD	n/a	wordpools/wordpool_categorized_EN.txt	JELLYFISH	OceanAnimals	8	11	[0, 0, 0]	n/a	catFR1	2	R1444D
1279.18	0.9	1291608	WORD_OFF	n/a	n/a	JELLYFISH	OceanAnimals	8	11	[0, 0, 0]	n/a	catFR1	2	R1444D
1280.08	1.6	1292499	WORD	n/a	wordpools/wordpool_categorized_EN.txt	SAW	Tools	9	11	[0, 0, 0]	n/a	catFR1	2	R1444D
1281.68	0.817	1294106	WORD_OFF	n/a	n/a	SAW	Tools	9	11	[0, 0, 0]	n/a	catFR1	2	R1444D
1282.497	1.6	1294923	WORD	n/a	wordpools/wordpool_categorized_EN.txt	AXE	Tools	10	11	[0, 0, 0]	n/a	catFR1	2	R1444D
1284.097	0.867	1296517	WORD_OFF	n/a	n/a	AXE	Tools	10	11	[0, 0, 0]	n/a	catFR1	2	R1444D
1284.964	1.6	1297384	WORD	n/a	wordpools/wordpool_categorized_EN.txt	GOOSE	Birds	11	11	[0, 0, 0]	n/a	catFR1	2	R1444D
1286.58	0.983	1299004	WORD_OFF	n/a	n/a	GOOSE	Birds	11	11	[0, 0, 0]	n/a	catFR1	2	R1444D
1287.563	1.6	1299983	WORD	n/a	wordpools/wordpool_categorized_EN.txt	DUCK	Birds	12	11	[0, 0, 0]	n/a	catFR1	2	R1444D
1289.179	0.001	1301603	WORD_OFF	n/a	n/a	DUCK	Birds	12	11	[0, 0, 0]	n/a	catFR1	2	R1444D
1289.18	0.0	1301603	ENCODING_END	n/a	n/a	n/a	n/a	-999	11	[0, 0, 0]	n/a	catFR1	2	R1444D
1289.18	0.0	1301603	DISTRACT_START	n/a	n/a	n/a	n/a	-999	11	[0, 0, 0]	n/a	catFR1	2	R1444D
1289.179	0.001	1301604	PROB	12.001	n/a	n/a	n/a	-999	11	[4, 5, 7]	16.0	catFR1	2	R1444D
1289.18	12.017	1301605	START	n/a	n/a	n/a	n/a	-999	11	[-999, -999, -999]	n/a	catFR1	2	R1444D
1301.197	6.783	1313622	PROB	6.766	n/a	n/a	n/a	-999	11	[4, 4, 8]	16.0	catFR1	2	R1444D
1307.98	8.767	1320404	PROB	8.75	n/a	n/a	n/a	-999	11	[5, 6, 8]	19.0	catFR1	2	R1444D
1316.747	0.0	1329165	DISTRACT_END	n/a	n/a	n/a	n/a	-999	11	[0, 0, 0]	n/a	catFR1	2	R1444D
1316.747	2.233	1329171	STOP	n/a	n/a	n/a	n/a	-999	11	[-999, -999, -999]	n/a	catFR1	2	R1444D
1318.98	1.254	1331396	REC_START	n/a	n/a	n/a	n/a	-999	11	[0, 0, 0]	n/a	catFR1	2	R1444D
1320.234	1.05	1332658	REC_WORD_VV	1.254	n/a	<>	n/a	-999	11	[0, 0, 0]	n/a	catFR1	2	R1444D
1321.284	0.547	1333708	REC_WORD	2.304	n/a	AXE	Tools	10	11	[0, 0, 0]	n/a	catFR1	2	R1444D
1321.831	0.626	1334255	REC_WORD	2.851	n/a	SWORD	n/a	-999	11	[0, 0, 0]	n/a	catFR1	2	R1444D
1322.457	1.004	1334881	REC_WORD_VV	3.477	n/a	<>	n/a	-999	11	[0, 0, 0]	n/a	catFR1	2	R1444D
1323.461	1.421	1335885	REC_WORD	4.481	n/a	GOOSE	Birds	11	11	[0, 0, 0]	n/a	catFR1	2	R1444D
1324.882	2.798	1337306	REC_WORD_VV	5.902	n/a	<>	n/a	-999	11	[0, 0, 0]	n/a	catFR1	2	R1444D
1327.68	2.789	1340103	REC_WORD_VV	8.7	n/a	<>	n/a	-999	11	[0, 0, 0]	n/a	catFR1	2	R1444D
1330.469	2.105	1342892	REC_WORD	11.489	n/a	SWORD	n/a	-999	11	[0, 0, 0]	n/a	catFR1	2	R1444D
1332.574	14.205	1344997	REC_WORD	13.594	n/a	GOOSE	Birds	11	11	[0, 0, 0]	n/a	catFR1	2	R1444D
1346.779	1.0	1359201	REC_WORD_VV	27.799	n/a	<>	n/a	-999	11	[0, 0, 0]	n/a	catFR1	2	R1444D
1347.779	1.401	1360201	REC_WORD_VV	28.799	n/a	<>	n/a	-999	11	[0, 0, 0]	n/a	catFR1	2	R1444D
1349.18	3.133	1361600	REC_END	n/a	n/a	n/a	n/a	-999	11	[0, 0, 0]	n/a	catFR1	2	R1444D
1352.313	10.0	1364739	COUNTDOWN_START	n/a	n/a	n/a	n/a	-999	12	[0, 0, 0]	n/a	catFR1	2	R1444D
1362.663	0.001	1375086	COUNTDOWN_END	n/a	n/a	n/a	n/a	-999	12	[0, 0, 0]	n/a	catFR1	2	R1444D
1362.664	2.066	1375086	ENCODING_START	n/a	n/a	n/a	n/a	-999	12	[0, 0, 0]	n/a	catFR1	2	R1444D
1364.73	1.6	1377146	WORD	n/a	wordpools/wordpool_categorized_EN.txt	DOLPHIN	OceanAnimals	1	12	[0, 0, 0]	n/a	catFR1	2	R1444D
1366.346	0.933	1378765	WORD_OFF	n/a	n/a	DOLPHIN	OceanAnimals	1	12	[0, 0, 0]	n/a	catFR1	2	R1444D
1367.279	1.6	1379695	WORD	n/a	wordpools/wordpool_categorized_EN.txt	PLANKTON	OceanAnimals	2	12	[0, 0, 0]	n/a	catFR1	2	R1444D
1368.88	0.9	1381302	WORD_OFF	n/a	n/a	PLANKTON	OceanAnimals	2	12	[0, 0, 0]	n/a	catFR1	2	R1444D
1369.78	1.6	1382193	WORD	n/a	wordpools/wordpool_categorized_EN.txt	RADIO	Electronics	3	12	[0, 0, 0]	n/a	catFR1	2	R1444D
1371.38	0.816	1383801	WORD_OFF	n/a	n/a	RADIO	Electronics	3	12	[0, 0, 0]	n/a	catFR1	2	R1444D
1372.196	1.6	1384617	WORD	n/a	wordpools/wordpool_categorized_EN.txt	PHONE	Electronics	4	12	[0, 0, 0]	n/a	catFR1	2	R1444D
1373.797	0.999	1386212	WORD_OFF	n/a	n/a	PHONE	Electronics	4	12	[0, 0, 0]	n/a	catFR1	2	R1444D
1374.796	1.6	1387216	WORD	n/a	wordpools/wordpool_categorized_EN.txt	SPINACH	Vegetables	5	12	[0, 0, 0]	n/a	catFR1	2	R1444D
1376.396	1.0	1388811	WORD_OFF	n/a	n/a	SPINACH	Vegetables	5	12	[0, 0, 0]	n/a	catFR1	2	R1444D
1377.396	1.6	1389815	WORD	n/a	wordpools/wordpool_categorized_EN.txt	CUCUMBER	Vegetables	6	12	[0, 0, 0]	n/a	catFR1	2	R1444D
1379.013	0.917	1391435	WORD_OFF	n/a	n/a	CUCUMBER	Vegetables	6	12	[0, 0, 0]	n/a	catFR1	2	R1444D
1379.93	1.6	1392352	WORD	n/a	wordpools/wordpool_categorized_EN.txt	OYSTER	OceanAnimals	7	12	[0, 0, 0]	n/a	catFR1	2	R1444D
1381.546	0.95	1393959	WORD_OFF	n/a	n/a	OYSTER	OceanAnimals	7	12	[0, 0, 0]	n/a	catFR1	2	R1444D
1382.496	1.6	1394914	WORD	n/a	wordpools/wordpool_categorized_EN.txt	FISH	OceanAnimals	8	12	[0, 0, 0]	n/a	catFR1	2	R1444D
1384.097	0.966	1396508	WORD_OFF	n/a	n/a	FISH	OceanAnimals	8	12	[0, 0, 0]	n/a	catFR1	2	R1444D
1385.063	1.6	1397475	WORD	n/a	wordpools/wordpool_categorized_EN.txt	SPEAKER	Electronics	9	12	[0, 0, 0]	n/a	catFR1	2	R1444D
1386.664	0.783	1399082	WORD_OFF	n/a	n/a	SPEAKER	Electronics	9	12	[0, 0, 0]	n/a	catFR1	2	R1444D
1387.447	1.6	1399861	WORD	n/a	wordpools/wordpool_categorized_EN.txt	HEADPHONES	Electronics	10	12	[0, 0, 0]	n/a	catFR1	2	R1444D
1389.047	0.866	1401468	WORD_OFF	n/a	n/a	HEADPHONES	Electronics	10	12	[0, 0, 0]	n/a	catFR1	2	R1444D
1389.913	1.6	1402335	WORD	n/a	wordpools/wordpool_categorized_EN.txt	POTATO	Vegetables	11	12	[0, 0, 0]	n/a	catFR1	2	R1444D
1391.513	1.0	1403929	WORD_OFF	n/a	n/a	POTATO	Vegetables	11	12	[0, 0, 0]	n/a	catFR1	2	R1444D
1392.513	1.6	1404934	WORD	n/a	wordpools/wordpool_categorized_EN.txt	BROCCOLI	Vegetables	12	12	[0, 0, 0]	n/a	catFR1	2	R1444D
1394.129	0.001	1406541	WORD_OFF	n/a	n/a	BROCCOLI	Vegetables	12	12	[0, 0, 0]	n/a	catFR1	2	R1444D
1394.13	0.001	1406550	PROB	7.967	n/a	n/a	n/a	-999	12	[1, 3, 8]	12.0	catFR1	2	R1444D
1394.131	0.0	1406551	START	n/a	n/a	n/a	n/a	-999	12	[-999, -999, -999]	n/a	catFR1	2	R1444D
1394.131	0.0	1406554	ENCODING_END	n/a	n/a	n/a	n/a	-999	12	[0, 0, 0]	n/a	catFR1	2	R1444D
1394.131	7.983	1406554	DISTRACT_START	n/a	n/a	n/a	n/a	-999	12	[0, 0, 0]	n/a	catFR1	2	R1444D
1402.114	7.083	1414533	PROB	7.066	n/a	n/a	n/a	-999	12	[3, 6, 4]	13.0	catFR1	2	R1444D
1409.197	8.118	1421616	PROB	8.099	n/a	n/a	n/a	-999	12	[5, 1, 6]	11.0	catFR1	2	R1444D
1417.315	0.0	1429734	DISTRACT_END	n/a	n/a	n/a	n/a	-999	12	[0, 0, 0]	n/a	catFR1	2	R1444D
1417.315	2.132	1429734	STOP	n/a	n/a	n/a	n/a	-999	12	[-999, -999, -999]	n/a	catFR1	2	R1444D
1419.447	1.263	1431864	REC_START	n/a	n/a	n/a	n/a	-999	12	[0, 0, 0]	n/a	catFR1	2	R1444D
1420.71	0.925	1433129	REC_WORD_VV	1.263	n/a	<>	n/a	-999	12	[0, 0, 0]	n/a	catFR1	2	R1444D
1421.635	2.32	1434053	REC_WORD	2.188	n/a	PLANKTON	OceanAnimals	2	12	[0, 0, 0]	n/a	catFR1	2	R1444D
1423.955	0.485	1436373	REC_WORD_VV	4.508	n/a	<>	n/a	-999	12	[0, 0, 0]	n/a	catFR1	2	R1444D
1424.44	3.867	1436858	REC_WORD	4.993	n/a	OCTOPUS	OceanAnimals	-999	12	[0, 0, 0]	n/a	catFR1	2	R1444D
1428.307	1.688	1440725	REC_WORD_VV	8.86	n/a	<>	n/a	-999	12	[0, 0, 0]	n/a	catFR1	2	R1444D
1429.995	0.488	1442413	REC_WORD	10.548	n/a	PLANKTON	OceanAnimals	2	12	[0, 0, 0]	n/a	catFR1	2	R1444D
1430.483	1.766	1442901	REC_WORD	11.036	n/a	OCTOPUS	OceanAnimals	-999	12	[0, 0, 0]	n/a	catFR1	2	R1444D
1432.249	8.598	1444667	REC_WORD_VV	12.802	n/a	<>	n/a	-999	12	[0, 0, 0]	n/a	catFR1	2	R1444D
1440.847	3.825	1453264	REC_WORD_VV	21.4	n/a	<>	n/a	-999	12	[0, 0, 0]	n/a	catFR1	2	R1444D
1444.672	1.0	1457089	REC_WORD	25.225	n/a	JELLYFISH	OceanAnimals	-999	12	[0, 0, 0]	n/a	catFR1	2	R1444D
1445.672	1.0	1458089	REC_WORD_VV	26.225	n/a	<>	n/a	-999	12	[0, 0, 0]	n/a	catFR1	2	R1444D
1446.672	0.755	1459089	REC_WORD_VV	27.225	n/a	<>	n/a	-999	12	[0, 0, 0]	n/a	catFR1	2	R1444D
1447.427	2.2	1459844	REC_WORD_VV	27.98	n/a	<>	n/a	-999	12	[0, 0, 0]	n/a	catFR1	2	R1444D
1449.627	0.0	1462043	REC_END	n/a	n/a	n/a	n/a	-999	12	[0, 0, 0]	n/a	catFR1	2	R1444D
