onset	duration	sample	trial_type	response_time	stim_file	item_name	category	serialpos	list	test	answer	experiment	session	subject
0.0	1.416	27718	INSTRUCT_START	n/a	n/a	n/a	n/a	-999	-999	[0, 0, 0]	n/a	catFR1	0	R1387E
1.416	39.249	29127	INSTRUCT_END	n/a	n/a	n/a	n/a	-999	-999	[0, 0, 0]	n/a	catFR1	0	R1387E
40.665	10.35	68390	COUNTDOWN_START	n/a	n/a	n/a	n/a	-999	-999	[0, 0, 0]	n/a	catFR1	0	R1387E
51.015	0.001	78727	COUNTDOWN_END	n/a	n/a	n/a	n/a	-999	-999	[0, 0, 0]	n/a	catFR1	0	R1387E
51.016	2.1	78727	ENCODING_START	n/a	n/a	n/a	n/a	-999	-1	[0, 0, 0]	n/a	catFR1	0	R1387E
53.116	1.616	80826	WORD	n/a	n/a	WOOL	Materials	1	-1	[0, 0, 0]	n/a	catFR1	0	R1387E
54.732	0.799	82450	WORD_OFF	n/a	n/a	WOOL	Materials	1	-1	[0, 0, 0]	n/a	catFR1	0	R1387E
55.531	1.601	83241	WORD	n/a	n/a	SILK	Materials	2	-1	[0, 0, 0]	n/a	catFR1	0	R1387E
57.132	0.917	84851	WORD_OFF	n/a	n/a	SILK	Materials	2	-1	[0, 0, 0]	n/a	catFR1	0	R1387E
58.049	1.601	85772	WORD	n/a	n/a	TEACHER	Professions	3	-1	[0, 0, 0]	n/a	catFR1	0	R1387E
59.65	0.95	87367	WORD_OFF	n/a	n/a	TEACHER	Professions	3	-1	[0, 0, 0]	n/a	catFR1	0	R1387E
60.6	1.6	88316	WORD	n/a	n/a	FARMER	Professions	4	-1	[0, 0, 0]	n/a	catFR1	0	R1387E
62.2	0.931	89912	WORD_OFF	n/a	n/a	FARMER	Professions	4	-1	[0, 0, 0]	n/a	catFR1	0	R1387E
63.131	1.6	90847	WORD	n/a	n/a	DAY	Times	5	-1	[0, 0, 0]	n/a	catFR1	0	R1387E
64.731	0.767	92442	WORD_OFF	n/a	n/a	DAY	Times	5	-1	[0, 0, 0]	n/a	catFR1	0	R1387E
65.498	1.6	93219	WORD	n/a	n/a	HOUR	Times	6	-1	[0, 0, 0]	n/a	catFR1	0	R1387E
67.098	0.867	94815	WORD_OFF	n/a	n/a	HOUR	Times	6	-1	[0, 0, 0]	n/a	catFR1	0	R1387E
67.965	1.616	95677	WORD	n/a	n/a	FIREMAN	Professions	7	-1	[0, 0, 0]	n/a	catFR1	0	R1387E
69.581	0.85	97302	WORD_OFF	n/a	n/a	FIREMAN	Professions	7	-1	[0, 0, 0]	n/a	catFR1	0	R1387E
70.431	1.617	98150	WORD	n/a	n/a	PLUMBER	Professions	8	-1	[0, 0, 0]	n/a	catFR1	0	R1387E
72.048	0.983	99760	WORD_OFF	n/a	n/a	PLUMBER	Professions	8	-1	[0, 0, 0]	n/a	catFR1	0	R1387E
73.031	1.6	100752	WORD	n/a	n/a	DENIM	Materials	9	-1	[0, 0, 0]	n/a	catFR1	0	R1387E
74.631	0.85	102348	WORD_OFF	n/a	n/a	DENIM	Materials	9	-1	[0, 0, 0]	n/a	catFR1	0	R1387E
75.481	1.616	103196	WORD	n/a	n/a	LEATHER	Materials	10	-1	[0, 0, 0]	n/a	catFR1	0	R1387E
77.097	0.834	104806	WORD_OFF	n/a	n/a	LEATHER	Materials	10	-1	[0, 0, 0]	n/a	catFR1	0	R1387E
77.931	1.6	105640	WORD	n/a	n/a	MINUTE	Times	11	-1	[0, 0, 0]	n/a	catFR1	0	R1387E
79.531	0.85	107250	WORD_OFF	n/a	n/a	MINUTE	Times	11	-1	[0, 0, 0]	n/a	catFR1	0	R1387E
80.381	1.6	108099	WORD	n/a	n/a	SECOND	Times	12	-1	[0, 0, 0]	n/a	catFR1	0	R1387E
81.981	0.002	109695	WORD_OFF	n/a	n/a	SECOND	Times	12	-1	[0, 0, 0]	n/a	catFR1	0	R1387E
81.983	0.001	109695	ENCODING_END	n/a	n/a	n/a	n/a	-999	-1	[0, 0, 0]	n/a	catFR1	0	R1387E
81.984	0.0	109695	DISTRACT_START	n/a	n/a	n/a	n/a	-999	-1	[0, 0, 0]	n/a	catFR1	0	R1387E
81.983	0.001	109696	PROB	3.466	n/a	n/a	n/a	-999	-1	[1, 1, 6]	8.0	catFR1	0	R1387E
81.984	3.481	109697	START	n/a	n/a	n/a	n/a	-999	-1	[-999, -999, -999]	n/a	catFR1	0	R1387E
85.465	4.401	113177	PROB	4.382	n/a	n/a	n/a	-999	-1	[7, 4, 7]	18.0	catFR1	0	R1387E
89.866	7.132	117578	PROB	7.115	n/a	n/a	n/a	-999	-1	[2, 4, 5]	11.0	catFR1	0	R1387E
96.998	3.551	124710	PROB	3.532	n/a	n/a	n/a	-999	-1	[7, 4, 3]	14.0	catFR1	0	R1387E
100.549	7.318	128261	PROB	7.299	n/a	n/a	n/a	-999	-1	[5, 2, 7]	14.0	catFR1	0	R1387E
107.867	0.0	135579	STOP	n/a	n/a	n/a	n/a	-999	-1	[-999, -999, -999]	n/a	catFR1	0	R1387E
107.867	1.681	135587	DISTRACT_END	n/a	n/a	n/a	n/a	-999	-1	[0, 0, 0]	n/a	catFR1	0	R1387E
109.548	1.165	137266	REC_START	n/a	n/a	n/a	n/a	-999	-1	[0, 0, 0]	n/a	catFR1	0	R1387E
110.713	0.975	138425	REC_WORD	1.165	n/a	WOOL	Materials	1	-1	[0, 0, 0]	n/a	catFR1	0	R1387E
111.688	1.453	139400	REC_WORD	2.14	n/a	SILK	Materials	2	-1	[0, 0, 0]	n/a	catFR1	0	R1387E
113.141	1.134	140853	REC_WORD	3.593	n/a	TEACHER	Professions	3	-1	[0, 0, 0]	n/a	catFR1	0	R1387E
114.275	4.927	141987	REC_WORD	4.727	n/a	FIREMAN	Professions	7	-1	[0, 0, 0]	n/a	catFR1	0	R1387E
119.202	1.302	146913	REC_WORD	9.654	n/a	HOUR	Times	6	-1	[0, 0, 0]	n/a	catFR1	0	R1387E
120.504	18.464	148215	REC_WORD	10.956	n/a	SECOND	Times	12	-1	[0, 0, 0]	n/a	catFR1	0	R1387E
138.968	0.883	166679	REC_WORD_VV	29.42	n/a	<>	n/a	-999	-1	[0, 0, 0]	n/a	catFR1	0	R1387E
139.851	21.697	167558	REC_END	n/a	n/a	n/a	n/a	-999	-1	[0, 0, 0]	n/a	catFR1	0	R1387E
161.548	10.351	189256	COUNTDOWN_START	n/a	n/a	n/a	n/a	-999	1	[0, 0, 0]	n/a	catFR1	0	R1387E
171.899	0.0	199607	COUNTDOWN_END	n/a	n/a	n/a	n/a	-999	1	[0, 0, 0]	n/a	catFR1	0	R1387E
171.899	2.166	199607	ENCODING_START	n/a	n/a	n/a	n/a	-999	1	[0, 0, 0]	n/a	catFR1	0	R1387E
174.065	1.6	201778	WORD	n/a	wordpools/wordpool_categorized_EN.txt	SPRUCE	Trees	1	1	[0, 0, 0]	n/a	catFR1	0	R1387E
175.665	0.933	203374	WORD_OFF	n/a	n/a	SPRUCE	Trees	1	1	[0, 0, 0]	n/a	catFR1	0	R1387E
176.598	1.617	204308	WORD	n/a	wordpools/wordpool_categorized_EN.txt	WALNUT	Trees	2	1	[0, 0, 0]	n/a	catFR1	0	R1387E
178.215	0.966	205918	WORD_OFF	n/a	n/a	WALNUT	Trees	2	1	[0, 0, 0]	n/a	catFR1	0	R1387E
179.181	1.616	206896	WORD	n/a	wordpools/wordpool_categorized_EN.txt	BEAR	Zoo	3	1	[0, 0, 0]	n/a	catFR1	0	R1387E
180.797	0.951	208506	WORD_OFF	n/a	n/a	BEAR	Zoo	3	1	[0, 0, 0]	n/a	catFR1	0	R1387E
181.748	1.6	209455	WORD	n/a	wordpools/wordpool_categorized_EN.txt	CHEETAH	Zoo	4	1	[0, 0, 0]	n/a	catFR1	0	R1387E
183.348	0.783	211065	WORD_OFF	n/a	n/a	CHEETAH	Zoo	4	1	[0, 0, 0]	n/a	catFR1	0	R1387E
184.131	1.6	211842	WORD	n/a	wordpools/wordpool_categorized_EN.txt	DAISY	Flowers	5	1	[0, 0, 0]	n/a	catFR1	0	R1387E
185.731	0.8	213437	WORD_OFF	n/a	n/a	DAISY	Flowers	5	1	[0, 0, 0]	n/a	catFR1	0	R1387E
186.531	1.617	214243	WORD	n/a	wordpools/wordpool_categorized_EN.txt	MARIGOLD	Flowers	6	1	[0, 0, 0]	n/a	catFR1	0	R1387E
188.148	0.767	215853	WORD_OFF	n/a	n/a	MARIGOLD	Flowers	6	1	[0, 0, 0]	n/a	catFR1	0	R1387E
188.915	1.6	216629	WORD	n/a	wordpools/wordpool_categorized_EN.txt	MONKEY	Zoo	7	1	[0, 0, 0]	n/a	catFR1	0	R1387E
190.515	0.8	218225	WORD_OFF	n/a	n/a	MONKEY	Zoo	7	1	[0, 0, 0]	n/a	catFR1	0	R1387E
191.315	1.6	219030	WORD	n/a	wordpools/wordpool_categorized_EN.txt	ZEBRA	Zoo	8	1	[0, 0, 0]	n/a	catFR1	0	R1387E
192.915	0.932	220626	WORD_OFF	n/a	n/a	ZEBRA	Zoo	8	1	[0, 0, 0]	n/a	catFR1	0	R1387E
193.847	1.601	221560	WORD	n/a	wordpools/wordpool_categorized_EN.txt	ELM	Trees	9	1	[0, 0, 0]	n/a	catFR1	0	R1387E
195.448	0.817	223156	WORD_OFF	n/a	n/a	ELM	Trees	9	1	[0, 0, 0]	n/a	catFR1	0	R1387E
196.265	1.616	223976	WORD	n/a	wordpools/wordpool_categorized_EN.txt	EVERGREEN	Trees	10	1	[0, 0, 0]	n/a	catFR1	0	R1387E
197.881	0.984	225586	WORD_OFF	n/a	n/a	EVERGREEN	Trees	10	1	[0, 0, 0]	n/a	catFR1	0	R1387E
198.865	1.616	226578	WORD	n/a	wordpools/wordpool_categorized_EN.txt	ORCHID	Flowers	11	1	[0, 0, 0]	n/a	catFR1	0	R1387E
200.481	0.9	228188	WORD_OFF	n/a	n/a	ORCHID	Flowers	11	1	[0, 0, 0]	n/a	catFR1	0	R1387E
201.381	1.6	229094	WORD	n/a	wordpools/wordpool_categorized_EN.txt	PETUNIA	Flowers	12	1	[0, 0, 0]	n/a	catFR1	0	R1387E
202.981	0.002	230690	WORD_OFF	n/a	n/a	PETUNIA	Flowers	12	1	[0, 0, 0]	n/a	catFR1	0	R1387E
202.983	0.0	230690	ENCODING_END	n/a	n/a	n/a	n/a	-999	1	[0, 0, 0]	n/a	catFR1	0	R1387E
202.983	0.0	230690	DISTRACT_START	n/a	n/a	n/a	n/a	-999	1	[0, 0, 0]	n/a	catFR1	0	R1387E
202.982	0.001	230690	PROB	5.583	n/a	n/a	n/a	-999	1	[7, 3, 2]	12.0	catFR1	0	R1387E
202.983	5.598	230691	START	n/a	n/a	n/a	n/a	-999	1	[-999, -999, -999]	n/a	catFR1	0	R1387E
208.581	20.966	236289	PROB	20.949	n/a	n/a	n/a	-999	1	[7, 6, 8]	23.0	catFR1	0	R1387E
229.547	0.0	257255	STOP	n/a	n/a	n/a	n/a	-999	1	[-999, -999, -999]	n/a	catFR1	0	R1387E
229.547	1.817	257258	DISTRACT_END	n/a	n/a	n/a	n/a	-999	1	[0, 0, 0]	n/a	catFR1	0	R1387E
231.364	2.611	259066	REC_START	n/a	n/a	n/a	n/a	-999	1	[0, 0, 0]	n/a	catFR1	0	R1387E
233.975	1.0	261682	REC_WORD	2.611	n/a	EVERGREEN	Trees	10	1	[0, 0, 0]	n/a	catFR1	0	R1387E
234.975	0.163	262682	REC_WORD_VV	3.611	n/a	<>	n/a	-999	1	[0, 0, 0]	n/a	catFR1	0	R1387E
235.138	1.0	262845	REC_WORD	3.774	n/a	SPRUCE	Trees	1	1	[0, 0, 0]	n/a	catFR1	0	R1387E
236.138	2.191	263845	REC_WORD_VV	4.774	n/a	<>	n/a	-999	1	[0, 0, 0]	n/a	catFR1	0	R1387E
238.329	1.0	266036	REC_WORD	6.965	n/a	WALNUT	Trees	2	1	[0, 0, 0]	n/a	catFR1	0	R1387E
239.329	6.083	267036	REC_WORD_VV	7.965	n/a	<>	n/a	-999	1	[0, 0, 0]	n/a	catFR1	0	R1387E
245.412	2.727	273119	REC_WORD	14.048	n/a	ORCHID	Flowers	11	1	[0, 0, 0]	n/a	catFR1	0	R1387E
248.139	13.546	275846	REC_WORD	16.775	n/a	MARIGOLD	Flowers	6	1	[0, 0, 0]	n/a	catFR1	0	R1387E
261.685	2.796	289387	REC_END	n/a	n/a	n/a	n/a	-999	1	[0, 0, 0]	n/a	catFR1	0	R1387E
264.481	10.351	292194	COUNTDOWN_START	n/a	n/a	n/a	n/a	-999	2	[0, 0, 0]	n/a	catFR1	0	R1387E
274.832	0.0	302545	COUNTDOWN_END	n/a	n/a	n/a	n/a	-999	2	[0, 0, 0]	n/a	catFR1	0	R1387E
274.832	1.933	302545	ENCODING_START	n/a	n/a	n/a	n/a	-999	2	[0, 0, 0]	n/a	catFR1	0	R1387E
276.765	1.616	304471	WORD	n/a	wordpools/wordpool_categorized_EN.txt	GIRAFFE	Zoo	1	2	[0, 0, 0]	n/a	catFR1	0	R1387E
278.381	0.9	306082	WORD_OFF	n/a	n/a	GIRAFFE	Zoo	1	2	[0, 0, 0]	n/a	catFR1	0	R1387E
279.281	1.6	306987	WORD	n/a	wordpools/wordpool_categorized_EN.txt	LION	Zoo	2	2	[0, 0, 0]	n/a	catFR1	0	R1387E
280.881	0.984	308583	WORD_OFF	n/a	n/a	LION	Zoo	2	2	[0, 0, 0]	n/a	catFR1	0	R1387E
281.865	1.616	309575	WORD	n/a	wordpools/wordpool_categorized_EN.txt	SANDER	Tools	3	2	[0, 0, 0]	n/a	catFR1	0	R1387E
283.481	0.867	311185	WORD_OFF	n/a	n/a	SANDER	Tools	3	2	[0, 0, 0]	n/a	catFR1	0	R1387E
284.348	1.617	312062	WORD	n/a	wordpools/wordpool_categorized_EN.txt	LEVEL	Tools	4	2	[0, 0, 0]	n/a	catFR1	0	R1387E
285.965	0.933	313672	WORD_OFF	n/a	n/a	LEVEL	Tools	4	2	[0, 0, 0]	n/a	catFR1	0	R1387E
286.898	1.6	314607	WORD	n/a	wordpools/wordpool_categorized_EN.txt	TUBA	Instruments	5	2	[0, 0, 0]	n/a	catFR1	0	R1387E
288.498	0.899	316203	WORD_OFF	n/a	n/a	TUBA	Instruments	5	2	[0, 0, 0]	n/a	catFR1	0	R1387E
289.397	1.601	317109	WORD	n/a	wordpools/wordpool_categorized_EN.txt	CELLO	Instruments	6	2	[0, 0, 0]	n/a	catFR1	0	R1387E
290.998	0.883	318704	WORD_OFF	n/a	n/a	CELLO	Instruments	6	2	[0, 0, 0]	n/a	catFR1	0	R1387E
291.881	1.617	319581	WORD	n/a	wordpools/wordpool_categorized_EN.txt	CHIMPANZEE	Zoo	7	2	[0, 0, 0]	n/a	catFR1	0	R1387E
293.498	0.816	321206	WORD_OFF	n/a	n/a	CHIMPANZEE	Zoo	7	2	[0, 0, 0]	n/a	catFR1	0	R1387E
294.314	1.6	322025	WORD	n/a	wordpools/wordpool_categorized_EN.txt	PANDA	Zoo	8	2	[0, 0, 0]	n/a	catFR1	0	R1387E
295.914	0.883	323621	WORD_OFF	n/a	n/a	PANDA	Zoo	8	2	[0, 0, 0]	n/a	catFR1	0	R1387E
296.797	1.601	324498	WORD	n/a	wordpools/wordpool_categorized_EN.txt	TRUMPET	Instruments	9	2	[0, 0, 0]	n/a	catFR1	0	R1387E
298.398	0.867	326108	WORD_OFF	n/a	n/a	TRUMPET	Instruments	9	2	[0, 0, 0]	n/a	catFR1	0	R1387E
299.265	1.616	326971	WORD	n/a	wordpools/wordpool_categorized_EN.txt	BASS	Instruments	10	2	[0, 0, 0]	n/a	catFR1	0	R1387E
300.881	0.933	328581	WORD_OFF	n/a	n/a	BASS	Instruments	10	2	[0, 0, 0]	n/a	catFR1	0	R1387E
301.814	1.618	329516	WORD	n/a	wordpools/wordpool_categorized_EN.txt	SHOVEL	Tools	11	2	[0, 0, 0]	n/a	catFR1	0	R1387E
303.432	0.999	331140	WORD_OFF	n/a	n/a	SHOVEL	Tools	11	2	[0, 0, 0]	n/a	catFR1	0	R1387E
304.431	1.601	332132	WORD	n/a	wordpools/wordpool_categorized_EN.txt	PLIERS	Tools	12	2	[0, 0, 0]	n/a	catFR1	0	R1387E
306.032	0.002	333737	START	n/a	n/a	n/a	n/a	-999	2	[-999, -999, -999]	n/a	catFR1	0	R1387E
306.034	0.0	333739	PROB	3.899	n/a	n/a	n/a	-999	2	[1, 6, 4]	11.0	catFR1	0	R1387E
306.031	0.001	333743	WORD_OFF	n/a	n/a	PLIERS	Tools	12	2	[0, 0, 0]	n/a	catFR1	0	R1387E
306.032	0.0	333743	ENCODING_END	n/a	n/a	n/a	n/a	-999	2	[0, 0, 0]	n/a	catFR1	0	R1387E
306.032	3.916	333743	DISTRACT_START	n/a	n/a	n/a	n/a	-999	2	[0, 0, 0]	n/a	catFR1	0	R1387E
309.948	3.75	337653	PROB	3.733	n/a	n/a	n/a	-999	2	[1, 7, 8]	16.0	catFR1	0	R1387E
313.698	2.5	341403	PROB	2.482	n/a	n/a	n/a	-999	2	[1, 1, 1]	3.0	catFR1	0	R1387E
316.198	2.333	343903	PROB	2.316	n/a	n/a	n/a	-999	2	[1, 2, 1]	4.0	catFR1	0	R1387E
318.531	4.1	346235	PROB	4.083	n/a	n/a	n/a	-999	2	[1, 2, 8]	11.0	catFR1	0	R1387E
322.631	6.634	350335	PROB	6.617	n/a	n/a	n/a	-999	2	[1, 7, 5]	13.0	catFR1	0	R1387E
329.265	0.0	356969	STOP	n/a	n/a	n/a	n/a	-999	2	[-999, -999, -999]	n/a	catFR1	0	R1387E
329.265	1.584	356975	DISTRACT_END	n/a	n/a	n/a	n/a	-999	2	[0, 0, 0]	n/a	catFR1	0	R1387E
330.849	5.509	358554	REC_START	n/a	n/a	n/a	n/a	-999	2	[0, 0, 0]	n/a	catFR1	0	R1387E
336.358	1.0	364062	REC_WORD	5.509	n/a	PLIERS	Tools	12	2	[0, 0, 0]	n/a	catFR1	0	R1387E
337.358	2.42	365062	REC_WORD_VV	6.509	n/a	<>	n/a	-999	2	[0, 0, 0]	n/a	catFR1	0	R1387E
339.778	3.239	367482	REC_WORD	8.929	n/a	GIRAFFE	Zoo	1	2	[0, 0, 0]	n/a	catFR1	0	R1387E
343.017	1.0	370721	REC_WORD	12.168	n/a	CHIMPANZEE	Zoo	7	2	[0, 0, 0]	n/a	catFR1	0	R1387E
344.017	17.143	371721	REC_WORD_VV	13.168	n/a	<>	n/a	-999	2	[0, 0, 0]	n/a	catFR1	0	R1387E
361.16	3.354	388860	REC_END	n/a	n/a	n/a	n/a	-999	2	[0, 0, 0]	n/a	catFR1	0	R1387E
364.514	10.35	392213	COUNTDOWN_START	n/a	n/a	n/a	n/a	-999	3	[0, 0, 0]	n/a	catFR1	0	R1387E
374.864	0.0	402564	COUNTDOWN_END	n/a	n/a	n/a	n/a	-999	3	[0, 0, 0]	n/a	catFR1	0	R1387E
374.864	1.917	402564	ENCODING_START	n/a	n/a	n/a	n/a	-999	3	[0, 0, 0]	n/a	catFR1	0	R1387E
376.781	1.617	404491	WORD	n/a	wordpools/wordpool_categorized_EN.txt	BROWNIES	Desserts	1	3	[0, 0, 0]	n/a	catFR1	0	R1387E
378.398	0.967	406101	WORD_OFF	n/a	n/a	BROWNIES	Desserts	1	3	[0, 0, 0]	n/a	catFR1	0	R1387E
379.365	1.6	407064	WORD	n/a	wordpools/wordpool_categorized_EN.txt	FUDGE	Desserts	2	3	[0, 0, 0]	n/a	catFR1	0	R1387E
380.965	0.85	408674	WORD_OFF	n/a	n/a	FUDGE	Desserts	2	3	[0, 0, 0]	n/a	catFR1	0	R1387E
381.815	1.616	409523	WORD	n/a	wordpools/wordpool_categorized_EN.txt	DRESSER	Furniture	3	3	[0, 0, 0]	n/a	catFR1	0	R1387E
383.431	0.9	411133	WORD_OFF	n/a	n/a	DRESSER	Furniture	3	3	[0, 0, 0]	n/a	catFR1	0	R1387E
384.331	1.617	412039	WORD	n/a	wordpools/wordpool_categorized_EN.txt	SOFA	Furniture	4	3	[0, 0, 0]	n/a	catFR1	0	R1387E
385.948	0.833	413649	WORD_OFF	n/a	n/a	SOFA	Furniture	4	3	[0, 0, 0]	n/a	catFR1	0	R1387E
386.781	1.6	414483	WORD	n/a	wordpools/wordpool_categorized_EN.txt	PLANE	Vehicles	5	3	[0, 0, 0]	n/a	catFR1	0	R1387E
388.381	0.95	416078	WORD_OFF	n/a	n/a	PLANE	Vehicles	5	3	[0, 0, 0]	n/a	catFR1	0	R1387E
389.331	1.617	417027	WORD	n/a	wordpools/wordpool_categorized_EN.txt	SCOOTER	Vehicles	6	3	[0, 0, 0]	n/a	catFR1	0	R1387E
390.948	0.9	418652	WORD_OFF	n/a	n/a	SCOOTER	Vehicles	6	3	[0, 0, 0]	n/a	catFR1	0	R1387E
391.848	1.6	419558	WORD	n/a	wordpools/wordpool_categorized_EN.txt	PIE	Desserts	7	3	[0, 0, 0]	n/a	catFR1	0	R1387E
393.448	0.883	421153	WORD_OFF	n/a	n/a	PIE	Desserts	7	3	[0, 0, 0]	n/a	catFR1	0	R1387E
394.331	1.617	422030	WORD	n/a	wordpools/wordpool_categorized_EN.txt	PASTRY	Desserts	8	3	[0, 0, 0]	n/a	catFR1	0	R1387E
395.948	0.833	423655	WORD_OFF	n/a	n/a	PASTRY	Desserts	8	3	[0, 0, 0]	n/a	catFR1	0	R1387E
396.781	1.6	424489	WORD	n/a	wordpools/wordpool_categorized_EN.txt	CHAIR	Furniture	9	3	[0, 0, 0]	n/a	catFR1	0	R1387E
398.381	0.85	426085	WORD_OFF	n/a	n/a	CHAIR	Furniture	9	3	[0, 0, 0]	n/a	catFR1	0	R1387E
399.231	1.616	426933	WORD	n/a	wordpools/wordpool_categorized_EN.txt	BED	Furniture	10	3	[0, 0, 0]	n/a	catFR1	0	R1387E
400.847	0.884	428544	WORD_OFF	n/a	n/a	BED	Furniture	10	3	[0, 0, 0]	n/a	catFR1	0	R1387E
401.731	1.616	429434	WORD	n/a	wordpools/wordpool_categorized_EN.txt	TRAIN	Vehicles	11	3	[0, 0, 0]	n/a	catFR1	0	R1387E
403.347	0.784	431045	WORD_OFF	n/a	n/a	TRAIN	Vehicles	11	3	[0, 0, 0]	n/a	catFR1	0	R1387E
404.131	1.616	431835	WORD	n/a	wordpools/wordpool_categorized_EN.txt	TRUCK	Vehicles	12	3	[0, 0, 0]	n/a	catFR1	0	R1387E
405.747	0.001	433446	WORD_OFF	n/a	n/a	TRUCK	Vehicles	12	3	[0, 0, 0]	n/a	catFR1	0	R1387E
405.748	0.008	433449	PROB	4.282	n/a	n/a	n/a	-999	3	[3, 8, 8]	19.0	catFR1	0	R1387E
405.756	0.0	433457	START	n/a	n/a	n/a	n/a	-999	3	[-999, -999, -999]	n/a	catFR1	0	R1387E
405.756	0.0	433460	ENCODING_END	n/a	n/a	n/a	n/a	-999	3	[0, 0, 0]	n/a	catFR1	0	R1387E
405.756	4.292	433460	DISTRACT_START	n/a	n/a	n/a	n/a	-999	3	[0, 0, 0]	n/a	catFR1	0	R1387E
410.048	6.6	437749	PROB	6.583	n/a	n/a	n/a	-999	3	[2, 4, 8]	14.0	catFR1	0	R1387E
416.648	4.101	444349	PROB	4.083	n/a	n/a	n/a	-999	3	[4, 8, 4]	16.0	catFR1	0	R1387E
420.749	7.201	448450	PROB	7.184	n/a	n/a	n/a	-999	3	[5, 7, 2]	15.0	catFR1	0	R1387E
427.95	0.0	455651	STOP	n/a	n/a	n/a	n/a	-999	3	[-999, -999, -999]	n/a	catFR1	0	R1387E
427.95	1.733	455658	DISTRACT_END	n/a	n/a	n/a	n/a	-999	3	[0, 0, 0]	n/a	catFR1	0	R1387E
429.683	3.863	457380	REC_START	n/a	n/a	n/a	n/a	-999	3	[0, 0, 0]	n/a	catFR1	0	R1387E
433.546	4.888	461247	REC_WORD	3.863	n/a	SCOOTER	Vehicles	6	3	[0, 0, 0]	n/a	catFR1	0	R1387E
438.434	6.792	466134	REC_WORD	8.751	n/a	CHAIR	Furniture	9	3	[0, 0, 0]	n/a	catFR1	0	R1387E
445.226	8.418	472926	REC_WORD	15.543	n/a	PANDA	Zoo	-999	3	[0, 0, 0]	n/a	catFR1	0	R1387E
453.644	1.433	481344	REC_WORD	23.961	n/a	PIE	Desserts	7	3	[0, 0, 0]	n/a	catFR1	0	R1387E
455.077	4.898	482777	REC_WORD	25.394	n/a	PASTRY	Desserts	8	3	[0, 0, 0]	n/a	catFR1	0	R1387E
459.975	3.306	487672	REC_END	n/a	n/a	n/a	n/a	-999	3	[0, 0, 0]	n/a	catFR1	0	R1387E
463.281	10.351	490982	COUNTDOWN_START	n/a	n/a	n/a	n/a	-999	4	[0, 0, 0]	n/a	catFR1	0	R1387E
473.632	0.0	501333	COUNTDOWN_END	n/a	n/a	n/a	n/a	-999	4	[0, 0, 0]	n/a	catFR1	0	R1387E
473.632	1.849	501333	ENCODING_START	n/a	n/a	n/a	n/a	-999	4	[0, 0, 0]	n/a	catFR1	0	R1387E
475.481	1.6	503187	WORD	n/a	wordpools/wordpool_categorized_EN.txt	ERASER	Officesupplies	1	4	[0, 0, 0]	n/a	catFR1	0	R1387E
477.081	0.884	504783	WORD_OFF	n/a	n/a	ERASER	Officesupplies	1	4	[0, 0, 0]	n/a	catFR1	0	R1387E
477.965	1.6	505660	WORD	n/a	wordpools/wordpool_categorized_EN.txt	GLUE	Officesupplies	2	4	[0, 0, 0]	n/a	catFR1	0	R1387E
479.565	0.85	507270	WORD_OFF	n/a	n/a	GLUE	Officesupplies	2	4	[0, 0, 0]	n/a	catFR1	0	R1387E
480.415	1.616	508119	WORD	n/a	wordpools/wordpool_categorized_EN.txt	FOOTBALL	Toys	3	4	[0, 0, 0]	n/a	catFR1	0	R1387E
482.031	0.834	509729	WORD_OFF	n/a	n/a	FOOTBALL	Toys	3	4	[0, 0, 0]	n/a	catFR1	0	R1387E
482.865	1.616	510563	WORD	n/a	wordpools/wordpool_categorized_EN.txt	SLINKY	Toys	4	4	[0, 0, 0]	n/a	catFR1	0	R1387E
484.481	0.85	512187	WORD_OFF	n/a	n/a	SLINKY	Toys	4	4	[0, 0, 0]	n/a	catFR1	0	R1387E
485.331	1.617	513036	WORD	n/a	wordpools/wordpool_categorized_EN.txt	GRAPE	Fruit	5	4	[0, 0, 0]	n/a	catFR1	0	R1387E
486.948	0.8	514646	WORD_OFF	n/a	n/a	GRAPE	Fruit	5	4	[0, 0, 0]	n/a	catFR1	0	R1387E
487.748	1.616	515451	WORD	n/a	wordpools/wordpool_categorized_EN.txt	BLUEBERRY	Fruit	6	4	[0, 0, 0]	n/a	catFR1	0	R1387E
489.364	0.916	517061	WORD_OFF	n/a	n/a	BLUEBERRY	Fruit	6	4	[0, 0, 0]	n/a	catFR1	0	R1387E
490.28	1.601	517981	WORD	n/a	wordpools/wordpool_categorized_EN.txt	MARKER	Officesupplies	7	4	[0, 0, 0]	n/a	catFR1	0	R1387E
491.881	0.767	519577	WORD_OFF	n/a	n/a	MARKER	Officesupplies	7	4	[0, 0, 0]	n/a	catFR1	0	R1387E
492.648	1.616	520353	WORD	n/a	wordpools/wordpool_categorized_EN.txt	PENCIL	Officesupplies	8	4	[0, 0, 0]	n/a	catFR1	0	R1387E
494.264	0.95	521964	WORD_OFF	n/a	n/a	PENCIL	Officesupplies	8	4	[0, 0, 0]	n/a	catFR1	0	R1387E
495.214	1.6	522912	WORD	n/a	wordpools/wordpool_categorized_EN.txt	LIME	Fruit	9	4	[0, 0, 0]	n/a	catFR1	0	R1387E
496.814	0.917	524508	WORD_OFF	n/a	n/a	LIME	Fruit	9	4	[0, 0, 0]	n/a	catFR1	0	R1387E
497.731	1.6	525428	WORD	n/a	wordpools/wordpool_categorized_EN.txt	STRAWBERRY	Fruit	10	4	[0, 0, 0]	n/a	catFR1	0	R1387E
499.331	0.883	527024	WORD_OFF	n/a	n/a	STRAWBERRY	Fruit	10	4	[0, 0, 0]	n/a	catFR1	0	R1387E
500.214	1.616	527916	WORD	n/a	wordpools/wordpool_categorized_EN.txt	DOLLHOUSE	Toys	11	4	[0, 0, 0]	n/a	catFR1	0	R1387E
501.83	0.884	529526	WORD_OFF	n/a	n/a	DOLLHOUSE	Toys	11	4	[0, 0, 0]	n/a	catFR1	0	R1387E
502.714	1.616	530417	WORD	n/a	wordpools/wordpool_categorized_EN.txt	FRISBEE	Toys	12	4	[0, 0, 0]	n/a	catFR1	0	R1387E
504.33	0.002	532027	WORD_OFF	n/a	n/a	FRISBEE	Toys	12	4	[0, 0, 0]	n/a	catFR1	0	R1387E
504.332	0.0	532027	ENCODING_END	n/a	n/a	n/a	n/a	-999	4	[0, 0, 0]	n/a	catFR1	0	R1387E
504.332	0.0	532027	DISTRACT_START	n/a	n/a	n/a	n/a	-999	4	[0, 0, 0]	n/a	catFR1	0	R1387E
504.331	0.001	532029	PROB	19.169	n/a	n/a	n/a	-999	4	[7, 8, 7]	22.0	catFR1	0	R1387E
504.332	19.185	532030	START	n/a	n/a	n/a	n/a	-999	4	[-999, -999, -999]	n/a	catFR1	0	R1387E
523.517	3.281	551214	PROB	3.264	n/a	n/a	n/a	-999	4	[8, 1, 1]	10.0	catFR1	0	R1387E
526.798	0.0	554495	STOP	n/a	n/a	n/a	n/a	-999	4	[-999, -999, -999]	n/a	catFR1	0	R1387E
526.798	1.783	554498	DISTRACT_END	n/a	n/a	n/a	n/a	-999	4	[0, 0, 0]	n/a	catFR1	0	R1387E
528.581	2.228	556278	REC_START	n/a	n/a	n/a	n/a	-999	4	[0, 0, 0]	n/a	catFR1	0	R1387E
530.809	0.807	558506	REC_WORD	2.228	n/a	FRISBEE	Toys	12	4	[0, 0, 0]	n/a	catFR1	0	R1387E
531.616	1.0	559313	REC_WORD	3.035	n/a	FOOTBALL	Toys	3	4	[0, 0, 0]	n/a	catFR1	0	R1387E
532.616	1.968	560313	REC_WORD_VV	4.035	n/a	<>	n/a	-999	4	[0, 0, 0]	n/a	catFR1	0	R1387E
534.584	1.0	562281	REC_WORD	6.003	n/a	DOLLHOUSE	Toys	11	4	[0, 0, 0]	n/a	catFR1	0	R1387E
535.584	4.486	563281	REC_WORD_VV	7.003	n/a	<>	n/a	-999	4	[0, 0, 0]	n/a	catFR1	0	R1387E
540.07	0.871	567767	REC_WORD	11.489	n/a	STRAWBERRY	Fruit	10	4	[0, 0, 0]	n/a	catFR1	0	R1387E
540.941	1.781	568638	REC_WORD	12.36	n/a	LIME	Fruit	9	4	[0, 0, 0]	n/a	catFR1	0	R1387E
542.722	3.481	570419	REC_WORD	14.141	n/a	MARKER	Officesupplies	7	4	[0, 0, 0]	n/a	catFR1	0	R1387E
546.203	2.493	573900	REC_WORD	17.622	n/a	ERASER	Officesupplies	1	4	[0, 0, 0]	n/a	catFR1	0	R1387E
548.696	10.183	576393	REC_WORD	20.115	n/a	PENCIL	Officesupplies	8	4	[0, 0, 0]	n/a	catFR1	0	R1387E
558.879	2.303	586570	REC_END	n/a	n/a	n/a	n/a	-999	4	[0, 0, 0]	n/a	catFR1	0	R1387E
561.182	10.349	588873	COUNTDOWN_START	n/a	n/a	n/a	n/a	-999	5	[0, 0, 0]	n/a	catFR1	0	R1387E
571.531	0.0	599224	COUNTDOWN_END	n/a	n/a	n/a	n/a	-999	5	[0, 0, 0]	n/a	catFR1	0	R1387E
571.531	2.25	599224	ENCODING_START	n/a	n/a	n/a	n/a	-999	5	[0, 0, 0]	n/a	catFR1	0	R1387E
573.781	1.6	601482	WORD	n/a	wordpools/wordpool_categorized_EN.txt	COOKIE	Desserts	1	5	[0, 0, 0]	n/a	catFR1	0	R1387E
575.381	0.934	603077	WORD_OFF	n/a	n/a	COOKIE	Desserts	1	5	[0, 0, 0]	n/a	catFR1	0	R1387E
576.315	1.616	604012	WORD	n/a	wordpools/wordpool_categorized_EN.txt	JELLO	Desserts	2	5	[0, 0, 0]	n/a	catFR1	0	R1387E
577.931	0.9	605622	WORD_OFF	n/a	n/a	JELLO	Desserts	2	5	[0, 0, 0]	n/a	catFR1	0	R1387E
578.831	1.617	606528	WORD	n/a	wordpools/wordpool_categorized_EN.txt	CARROT	Vegetables	3	5	[0, 0, 0]	n/a	catFR1	0	R1387E
580.448	0.966	608138	WORD_OFF	n/a	n/a	CARROT	Vegetables	3	5	[0, 0, 0]	n/a	catFR1	0	R1387E
581.414	1.6	609116	WORD	n/a	wordpools/wordpool_categorized_EN.txt	CORN	Vegetables	4	5	[0, 0, 0]	n/a	catFR1	0	R1387E
583.014	0.867	610712	WORD_OFF	n/a	n/a	CORN	Vegetables	4	5	[0, 0, 0]	n/a	catFR1	0	R1387E
583.881	1.6	611574	WORD	n/a	wordpools/wordpool_categorized_EN.txt	RUM	Beverages	5	5	[0, 0, 0]	n/a	catFR1	0	R1387E
585.481	0.783	613184	WORD_OFF	n/a	n/a	RUM	Beverages	5	5	[0, 0, 0]	n/a	catFR1	0	R1387E
586.264	1.6	613961	WORD	n/a	wordpools/wordpool_categorized_EN.txt	SODA	Beverages	6	5	[0, 0, 0]	n/a	catFR1	0	R1387E
587.864	0.917	615556	WORD_OFF	n/a	n/a	SODA	Beverages	6	5	[0, 0, 0]	n/a	catFR1	0	R1387E
588.781	1.616	616477	WORD	n/a	wordpools/wordpool_categorized_EN.txt	MOUSSE	Desserts	7	5	[0, 0, 0]	n/a	catFR1	0	R1387E
590.397	0.884	618087	WORD_OFF	n/a	n/a	MOUSSE	Desserts	7	5	[0, 0, 0]	n/a	catFR1	0	R1387E
591.281	1.616	618978	WORD	n/a	wordpools/wordpool_categorized_EN.txt	CAKE	Desserts	8	5	[0, 0, 0]	n/a	catFR1	0	R1387E
592.897	0.983	620588	WORD_OFF	n/a	n/a	CAKE	Desserts	8	5	[0, 0, 0]	n/a	catFR1	0	R1387E
593.88	1.601	621580	WORD	n/a	wordpools/wordpool_categorized_EN.txt	WINE	Beverages	9	5	[0, 0, 0]	n/a	catFR1	0	R1387E
595.481	0.983	623176	WORD_OFF	n/a	n/a	WINE	Beverages	9	5	[0, 0, 0]	n/a	catFR1	0	R1387E
596.464	1.6	624154	WORD	n/a	wordpools/wordpool_categorized_EN.txt	BEER	Beverages	10	5	[0, 0, 0]	n/a	catFR1	0	R1387E
598.064	0.883	625764	WORD_OFF	n/a	n/a	BEER	Beverages	10	5	[0, 0, 0]	n/a	catFR1	0	R1387E
598.947	1.6	626641	WORD	n/a	wordpools/wordpool_categorized_EN.txt	CUCUMBER	Vegetables	11	5	[0, 0, 0]	n/a	catFR1	0	R1387E
600.547	0.984	628237	WORD_OFF	n/a	n/a	CUCUMBER	Vegetables	11	5	[0, 0, 0]	n/a	catFR1	0	R1387E
601.531	1.6	629229	WORD	n/a	wordpools/wordpool_categorized_EN.txt	POTATO	Vegetables	12	5	[0, 0, 0]	n/a	catFR1	0	R1387E
603.131	0.001	630825	WORD_OFF	n/a	n/a	POTATO	Vegetables	12	5	[0, 0, 0]	n/a	catFR1	0	R1387E
603.132	0.0	630825	ENCODING_END	n/a	n/a	n/a	n/a	-999	5	[0, 0, 0]	n/a	catFR1	0	R1387E
603.132	0.0	630825	DISTRACT_START	n/a	n/a	n/a	n/a	-999	5	[0, 0, 0]	n/a	catFR1	0	R1387E
603.132	0.0	630827	START	n/a	n/a	n/a	n/a	-999	5	[-999, -999, -999]	n/a	catFR1	0	R1387E
603.132	3.983	630827	PROB	3.967	n/a	n/a	n/a	-999	5	[8, 4, 4]	16.0	catFR1	0	R1387E
607.115	4.585	634809	PROB	4.568	n/a	n/a	n/a	-999	5	[6, 1, 2]	9.0	catFR1	0	R1387E
611.7	3.017	639394	PROB	3.0	n/a	n/a	n/a	-999	5	[1, 8, 8]	17.0	catFR1	0	R1387E
614.717	2.814	642411	PROB	2.8	n/a	n/a	n/a	-999	5	[2, 1, 2]	5.0	catFR1	0	R1387E
617.531	4.668	645225	PROB	4.65	n/a	n/a	n/a	-999	5	[2, 3, 3]	8.0	catFR1	0	R1387E
622.199	3.748	649893	PROB	3.732	n/a	n/a	n/a	-999	5	[8, 5, 5]	18.0	catFR1	0	R1387E
625.947	0.0	653641	DISTRACT_END	n/a	n/a	n/a	n/a	-999	5	[0, 0, 0]	n/a	catFR1	0	R1387E
625.947	1.785	653641	STOP	n/a	n/a	n/a	n/a	-999	5	[-999, -999, -999]	n/a	catFR1	0	R1387E
627.732	2.349	655420	REC_START	n/a	n/a	n/a	n/a	-999	5	[0, 0, 0]	n/a	catFR1	0	R1387E
630.081	1.0	657775	REC_WORD	2.349	n/a	CUCUMBER	Vegetables	11	5	[0, 0, 0]	n/a	catFR1	0	R1387E
631.081	3.36	658775	REC_WORD_VV	3.349	n/a	<>	n/a	-999	5	[0, 0, 0]	n/a	catFR1	0	R1387E
634.441	1.617	662135	REC_WORD	6.709	n/a	RUM	Beverages	5	5	[0, 0, 0]	n/a	catFR1	0	R1387E
636.058	2.866	663752	REC_WORD	8.326	n/a	SODA	Beverages	6	5	[0, 0, 0]	n/a	catFR1	0	R1387E
638.924	7.13	666617	REC_WORD	11.192	n/a	BEER	Beverages	10	5	[0, 0, 0]	n/a	catFR1	0	R1387E
646.054	11.993	673747	REC_WORD_VV	18.322	n/a	<>	n/a	-999	5	[0, 0, 0]	n/a	catFR1	0	R1387E
658.047	2.501	685741	REC_END	n/a	n/a	n/a	n/a	-999	5	[0, 0, 0]	n/a	catFR1	0	R1387E
660.548	10.351	688246	COUNTDOWN_START	n/a	n/a	n/a	n/a	-999	6	[0, 0, 0]	n/a	catFR1	0	R1387E
670.899	0.0	698597	COUNTDOWN_END	n/a	n/a	n/a	n/a	-999	6	[0, 0, 0]	n/a	catFR1	0	R1387E
670.899	2.016	698597	ENCODING_START	n/a	n/a	n/a	n/a	-999	6	[0, 0, 0]	n/a	catFR1	0	R1387E
672.915	1.615	700610	WORD	n/a	wordpools/wordpool_categorized_EN.txt	PUDDING	Desserts	1	6	[0, 0, 0]	n/a	catFR1	0	R1387E
674.53	0.768	702220	WORD_OFF	n/a	n/a	PUDDING	Desserts	1	6	[0, 0, 0]	n/a	catFR1	0	R1387E
675.298	1.6	702996	WORD	n/a	wordpools/wordpool_categorized_EN.txt	CHEESECAKE	Desserts	2	6	[0, 0, 0]	n/a	catFR1	0	R1387E
676.898	0.849	704592	WORD_OFF	n/a	n/a	CHEESECAKE	Desserts	2	6	[0, 0, 0]	n/a	catFR1	0	R1387E
677.747	1.6	705440	WORD	n/a	wordpools/wordpool_categorized_EN.txt	DRIZZLE	Weather	3	6	[0, 0, 0]	n/a	catFR1	0	R1387E
679.347	0.834	707036	WORD_OFF	n/a	n/a	DRIZZLE	Weather	3	6	[0, 0, 0]	n/a	catFR1	0	R1387E
680.181	1.6	707870	WORD	n/a	wordpools/wordpool_categorized_EN.txt	THUNDERSTORM	Weather	4	6	[0, 0, 0]	n/a	catFR1	0	R1387E
681.781	1.0	709480	WORD_OFF	n/a	n/a	THUNDERSTORM	Weather	4	6	[0, 0, 0]	n/a	catFR1	0	R1387E
682.781	1.6	710472	WORD	n/a	wordpools/wordpool_categorized_EN.txt	UNDERWEAR	Clothing	5	6	[0, 0, 0]	n/a	catFR1	0	R1387E
684.381	0.999	712068	WORD_OFF	n/a	n/a	UNDERWEAR	Clothing	5	6	[0, 0, 0]	n/a	catFR1	0	R1387E
685.38	1.617	713074	WORD	n/a	wordpools/wordpool_categorized_EN.txt	SHORTS	Clothing	6	6	[0, 0, 0]	n/a	catFR1	0	R1387E
686.997	1.0	714685	WORD_OFF	n/a	n/a	SHORTS	Clothing	6	6	[0, 0, 0]	n/a	catFR1	0	R1387E
687.997	1.617	715691	WORD	n/a	wordpools/wordpool_categorized_EN.txt	CLOUD	Weather	7	6	[0, 0, 0]	n/a	catFR1	0	R1387E
689.614	0.916	717301	WORD_OFF	n/a	n/a	CLOUD	Weather	7	6	[0, 0, 0]	n/a	catFR1	0	R1387E
690.53	1.601	718221	WORD	n/a	wordpools/wordpool_categorized_EN.txt	WIND	Weather	8	6	[0, 0, 0]	n/a	catFR1	0	R1387E
692.131	0.783	719817	WORD_OFF	n/a	n/a	WIND	Weather	8	6	[0, 0, 0]	n/a	catFR1	0	R1387E
692.914	1.602	720608	WORD	n/a	wordpools/wordpool_categorized_EN.txt	COBBLER	Desserts	9	6	[0, 0, 0]	n/a	catFR1	0	R1387E
694.516	0.948	722204	WORD_OFF	n/a	n/a	COBBLER	Desserts	9	6	[0, 0, 0]	n/a	catFR1	0	R1387E
695.464	1.601	723152	WORD	n/a	wordpools/wordpool_categorized_EN.txt	CUPCAKE	Desserts	10	6	[0, 0, 0]	n/a	catFR1	0	R1387E
697.065	0.966	724763	WORD_OFF	n/a	n/a	CUPCAKE	Desserts	10	6	[0, 0, 0]	n/a	catFR1	0	R1387E
698.031	1.601	725726	WORD	n/a	wordpools/wordpool_categorized_EN.txt	SKIRT	Clothing	11	6	[0, 0, 0]	n/a	catFR1	0	R1387E
699.632	0.982	727322	WORD_OFF	n/a	n/a	SKIRT	Clothing	11	6	[0, 0, 0]	n/a	catFR1	0	R1387E
700.614	1.602	728299	WORD	n/a	wordpools/wordpool_categorized_EN.txt	SHIRT	Clothing	12	6	[0, 0, 0]	n/a	catFR1	0	R1387E
702.216	0.001	729907	PROB	12.265	n/a	n/a	n/a	-999	6	[8, 5, 8]	21.0	catFR1	0	R1387E
702.217	0.0	729908	START	n/a	n/a	n/a	n/a	-999	6	[-999, -999, -999]	n/a	catFR1	0	R1387E
702.216	0.001	729910	WORD_OFF	n/a	n/a	SHIRT	Clothing	12	6	[0, 0, 0]	n/a	catFR1	0	R1387E
702.217	0.0	729910	ENCODING_END	n/a	n/a	n/a	n/a	-999	6	[0, 0, 0]	n/a	catFR1	0	R1387E
702.217	12.282	729910	DISTRACT_START	n/a	n/a	n/a	n/a	-999	6	[0, 0, 0]	n/a	catFR1	0	R1387E
714.499	5.05	742190	PROB	5.032	n/a	n/a	n/a	-999	6	[1, 8, 3]	12.0	catFR1	0	R1387E
719.549	3.365	747240	PROB	3.349	n/a	n/a	n/a	-999	6	[8, 6, 2]	16.0	catFR1	0	R1387E
722.914	0.0	750604	STOP	n/a	n/a	n/a	n/a	-999	6	[-999, -999, -999]	n/a	catFR1	0	R1387E
722.914	1.783	750612	DISTRACT_END	n/a	n/a	n/a	n/a	-999	6	[0, 0, 0]	n/a	catFR1	0	R1387E
724.697	1.054	752392	REC_START	n/a	n/a	n/a	n/a	-999	6	[0, 0, 0]	n/a	catFR1	0	R1387E
725.751	0.996	753441	REC_WORD	1.054	n/a	SHIRT	Clothing	12	6	[0, 0, 0]	n/a	catFR1	0	R1387E
726.747	5.887	754437	REC_WORD	2.05	n/a	SHORTS	Clothing	6	6	[0, 0, 0]	n/a	catFR1	0	R1387E
732.634	8.334	760324	REC_WORD	7.937	n/a	UNDERWEAR	Clothing	5	6	[0, 0, 0]	n/a	catFR1	0	R1387E
740.968	5.584	768658	REC_WORD	16.271	n/a	SKIRT	Clothing	11	6	[0, 0, 0]	n/a	catFR1	0	R1387E
746.552	0.944	774242	REC_WORD	21.855	n/a	PUDDING	Desserts	1	6	[0, 0, 0]	n/a	catFR1	0	R1387E
747.496	5.333	775186	REC_WORD	22.799	n/a	COBBLER	Desserts	9	6	[0, 0, 0]	n/a	catFR1	0	R1387E
752.829	2.16	780518	REC_WORD	28.132	n/a	CHEESECAKE	Desserts	2	6	[0, 0, 0]	n/a	catFR1	0	R1387E
754.989	1.776	782684	REC_END	n/a	n/a	n/a	n/a	-999	6	[0, 0, 0]	n/a	catFR1	0	R1387E
756.765	10.35	784455	COUNTDOWN_START	n/a	n/a	n/a	n/a	-999	7	[0, 0, 0]	n/a	catFR1	0	R1387E
767.115	0.0	794806	COUNTDOWN_END	n/a	n/a	n/a	n/a	-999	7	[0, 0, 0]	n/a	catFR1	0	R1387E
767.115	1.916	794806	ENCODING_START	n/a	n/a	n/a	n/a	-999	7	[0, 0, 0]	n/a	catFR1	0	R1387E
769.031	1.617	796719	WORD	n/a	wordpools/wordpool_categorized_EN.txt	SQUID	Oceananimals	1	7	[0, 0, 0]	n/a	catFR1	0	R1387E
770.648	0.916	798343	WORD_OFF	n/a	n/a	SQUID	Oceananimals	1	7	[0, 0, 0]	n/a	catFR1	0	R1387E
771.564	1.6	799249	WORD	n/a	wordpools/wordpool_categorized_EN.txt	LOBSTER	Oceananimals	2	7	[0, 0, 0]	n/a	catFR1	0	R1387E
773.164	0.883	800859	WORD_OFF	n/a	n/a	LOBSTER	Oceananimals	2	7	[0, 0, 0]	n/a	catFR1	0	R1387E
774.047	1.6	801736	WORD	n/a	wordpools/wordpool_categorized_EN.txt	BLENDER	Appliances	3	7	[0, 0, 0]	n/a	catFR1	0	R1387E
775.647	0.933	803332	WORD_OFF	n/a	n/a	BLENDER	Appliances	3	7	[0, 0, 0]	n/a	catFR1	0	R1387E
776.58	1.6	804266	WORD	n/a	wordpools/wordpool_categorized_EN.txt	IRON	Appliances	4	7	[0, 0, 0]	n/a	catFR1	0	R1387E
778.18	0.901	805862	WORD_OFF	n/a	n/a	IRON	Appliances	4	7	[0, 0, 0]	n/a	catFR1	0	R1387E
779.081	1.616	806768	WORD	n/a	wordpools/wordpool_categorized_EN.txt	MOUNTAIN	Landscapes	5	7	[0, 0, 0]	n/a	catFR1	0	R1387E
780.697	0.866	808392	WORD_OFF	n/a	n/a	MOUNTAIN	Landscapes	5	7	[0, 0, 0]	n/a	catFR1	0	R1387E
781.563	1.601	809255	WORD	n/a	wordpools/wordpool_categorized_EN.txt	OCEAN	Landscapes	6	7	[0, 0, 0]	n/a	catFR1	0	R1387E
783.164	0.983	810851	WORD_OFF	n/a	n/a	OCEAN	Landscapes	6	7	[0, 0, 0]	n/a	catFR1	0	R1387E
784.147	1.6	811843	WORD	n/a	wordpools/wordpool_categorized_EN.txt	JELLYFISH	Oceananimals	7	7	[0, 0, 0]	n/a	catFR1	0	R1387E
785.747	0.883	813439	WORD_OFF	n/a	n/a	JELLYFISH	Oceananimals	7	7	[0, 0, 0]	n/a	catFR1	0	R1387E
786.63	1.601	814316	WORD	n/a	wordpools/wordpool_categorized_EN.txt	FISH	Oceananimals	8	7	[0, 0, 0]	n/a	catFR1	0	R1387E
788.231	0.8	815926	WORD_OFF	n/a	n/a	FISH	Oceananimals	8	7	[0, 0, 0]	n/a	catFR1	0	R1387E
789.031	1.6	816717	WORD	n/a	wordpools/wordpool_categorized_EN.txt	WASHER	Appliances	9	7	[0, 0, 0]	n/a	catFR1	0	R1387E
790.631	0.767	818327	WORD_OFF	n/a	n/a	WASHER	Appliances	9	7	[0, 0, 0]	n/a	catFR1	0	R1387E
791.398	1.617	819089	WORD	n/a	wordpools/wordpool_categorized_EN.txt	DISHWASHER	Appliances	10	7	[0, 0, 0]	n/a	catFR1	0	R1387E
793.015	0.951	820699	WORD_OFF	n/a	n/a	DISHWASHER	Appliances	10	7	[0, 0, 0]	n/a	catFR1	0	R1387E
793.966	1.599	821648	WORD	n/a	wordpools/wordpool_categorized_EN.txt	FOREST	Landscapes	11	7	[0, 0, 0]	n/a	catFR1	0	R1387E
795.565	0.934	823258	WORD_OFF	n/a	n/a	FOREST	Landscapes	11	7	[0, 0, 0]	n/a	catFR1	0	R1387E
796.499	1.617	824193	WORD	n/a	wordpools/wordpool_categorized_EN.txt	WOODS	Landscapes	12	7	[0, 0, 0]	n/a	catFR1	0	R1387E
798.116	0.001	825803	WORD_OFF	n/a	n/a	WOODS	Landscapes	12	7	[0, 0, 0]	n/a	catFR1	0	R1387E
798.117	0.001	825803	ENCODING_END	n/a	n/a	n/a	n/a	-999	7	[0, 0, 0]	n/a	catFR1	0	R1387E
798.118	0.0	825803	DISTRACT_START	n/a	n/a	n/a	n/a	-999	7	[0, 0, 0]	n/a	catFR1	0	R1387E
798.116	0.002	825804	PROB	3.234	n/a	n/a	n/a	-999	7	[1, 4, 2]	7.0	catFR1	0	R1387E
798.118	3.25	825806	START	n/a	n/a	n/a	n/a	-999	7	[-999, -999, -999]	n/a	catFR1	0	R1387E
801.368	19.947	829056	PROB	19.931	n/a	n/a	n/a	-999	7	[7, 8, 7]	22.0	catFR1	0	R1387E
821.315	0.0	849002	STOP	n/a	n/a	n/a	n/a	-999	7	[-999, -999, -999]	n/a	catFR1	0	R1387E
821.315	1.616	849007	DISTRACT_END	n/a	n/a	n/a	n/a	-999	7	[0, 0, 0]	n/a	catFR1	0	R1387E
822.931	2.288	850614	REC_START	n/a	n/a	n/a	n/a	-999	7	[0, 0, 0]	n/a	catFR1	0	R1387E
825.219	0.999	852906	REC_WORD	2.288	n/a	MOUNTAIN	Landscapes	5	7	[0, 0, 0]	n/a	catFR1	0	R1387E
826.218	1.0	853905	REC_WORD	3.287	n/a	FOREST	Landscapes	11	7	[0, 0, 0]	n/a	catFR1	0	R1387E
827.218	0.689	854905	REC_WORD_VV	4.287	n/a	<>	n/a	-999	7	[0, 0, 0]	n/a	catFR1	0	R1387E
827.907	2.494	855594	REC_WORD	4.976	n/a	WOODS	Landscapes	12	7	[0, 0, 0]	n/a	catFR1	0	R1387E
830.401	1.095	858088	REC_WORD	7.47	n/a	WASHER	Appliances	9	7	[0, 0, 0]	n/a	catFR1	0	R1387E
831.496	1.0	859183	REC_WORD	8.565	n/a	DISHWASHER	Appliances	10	7	[0, 0, 0]	n/a	catFR1	0	R1387E
832.496	0.084	860183	REC_WORD_VV	9.565	n/a	<>	n/a	-999	7	[0, 0, 0]	n/a	catFR1	0	R1387E
832.58	6.782	860267	REC_WORD	9.649	n/a	SQUID	Oceananimals	1	7	[0, 0, 0]	n/a	catFR1	0	R1387E
839.362	1.002	867048	REC_WORD	16.431	n/a	FISH	Oceananimals	8	7	[0, 0, 0]	n/a	catFR1	0	R1387E
840.364	0.998	868050	REC_WORD	17.433	n/a	JELLYFISH	Oceananimals	7	7	[0, 0, 0]	n/a	catFR1	0	R1387E
841.362	11.87	869048	REC_WORD_VV	18.431	n/a	<>	n/a	-999	7	[0, 0, 0]	n/a	catFR1	0	R1387E
853.232	3.983	880920	REC_END	n/a	n/a	n/a	n/a	-999	7	[0, 0, 0]	n/a	catFR1	0	R1387E
857.215	10.35	884906	COUNTDOWN_START	n/a	n/a	n/a	n/a	-999	8	[0, 0, 0]	n/a	catFR1	0	R1387E
867.565	0.0	895257	COUNTDOWN_END	n/a	n/a	n/a	n/a	-999	8	[0, 0, 0]	n/a	catFR1	0	R1387E
867.565	1.965	895257	ENCODING_START	n/a	n/a	n/a	n/a	-999	8	[0, 0, 0]	n/a	catFR1	0	R1387E
869.53	1.6	897212	WORD	n/a	wordpools/wordpool_categorized_EN.txt	BIRCH	Trees	1	8	[0, 0, 0]	n/a	catFR1	0	R1387E
871.13	0.818	898823	WORD_OFF	n/a	n/a	BIRCH	Trees	1	8	[0, 0, 0]	n/a	catFR1	0	R1387E
871.948	1.616	899628	WORD	n/a	wordpools/wordpool_categorized_EN.txt	WILLOW	Trees	2	8	[0, 0, 0]	n/a	catFR1	0	R1387E
873.564	0.984	901252	WORD_OFF	n/a	n/a	WILLOW	Trees	2	8	[0, 0, 0]	n/a	catFR1	0	R1387E
874.548	1.617	902230	WORD	n/a	wordpools/wordpool_categorized_EN.txt	COLA	Beverages	3	8	[0, 0, 0]	n/a	catFR1	0	R1387E
876.165	0.8	903854	WORD_OFF	n/a	n/a	COLA	Beverages	3	8	[0, 0, 0]	n/a	catFR1	0	R1387E
876.965	1.618	904645	WORD	n/a	wordpools/wordpool_categorized_EN.txt	WATER	Beverages	4	8	[0, 0, 0]	n/a	catFR1	0	R1387E
878.583	0.915	906270	WORD_OFF	n/a	n/a	WATER	Beverages	4	8	[0, 0, 0]	n/a	catFR1	0	R1387E
879.498	1.617	907190	WORD	n/a	wordpools/wordpool_categorized_EN.txt	DRESS	Clothing	5	8	[0, 0, 0]	n/a	catFR1	0	R1387E
881.115	0.832	908800	WORD_OFF	n/a	n/a	DRESS	Clothing	5	8	[0, 0, 0]	n/a	catFR1	0	R1387E
881.947	1.601	909634	WORD	n/a	wordpools/wordpool_categorized_EN.txt	JACKET	Clothing	6	8	[0, 0, 0]	n/a	catFR1	0	R1387E
883.548	0.9	911230	WORD_OFF	n/a	n/a	JACKET	Clothing	6	8	[0, 0, 0]	n/a	catFR1	0	R1387E
884.448	1.6	912135	WORD	n/a	wordpools/wordpool_categorized_EN.txt	MAPLE	Trees	7	8	[0, 0, 0]	n/a	catFR1	0	R1387E
886.048	0.934	913731	WORD_OFF	n/a	n/a	MAPLE	Trees	7	8	[0, 0, 0]	n/a	catFR1	0	R1387E
886.982	1.615	914666	WORD	n/a	wordpools/wordpool_categorized_EN.txt	CEDAR	Trees	8	8	[0, 0, 0]	n/a	catFR1	0	R1387E
888.597	0.901	916276	WORD_OFF	n/a	n/a	CEDAR	Trees	8	8	[0, 0, 0]	n/a	catFR1	0	R1387E
889.498	1.616	917182	WORD	n/a	wordpools/wordpool_categorized_EN.txt	MILK	Beverages	9	8	[0, 0, 0]	n/a	catFR1	0	R1387E
891.114	1.0	918806	WORD_OFF	n/a	n/a	MILK	Beverages	9	8	[0, 0, 0]	n/a	catFR1	0	R1387E
892.114	1.617	919798	WORD	n/a	wordpools/wordpool_categorized_EN.txt	LEMONADE	Beverages	10	8	[0, 0, 0]	n/a	catFR1	0	R1387E
893.731	0.767	921423	WORD_OFF	n/a	n/a	LEMONADE	Beverages	10	8	[0, 0, 0]	n/a	catFR1	0	R1387E
894.498	1.6	922185	WORD	n/a	wordpools/wordpool_categorized_EN.txt	BLOUSE	Clothing	11	8	[0, 0, 0]	n/a	catFR1	0	R1387E
896.098	0.766	923781	WORD_OFF	n/a	n/a	BLOUSE	Clothing	11	8	[0, 0, 0]	n/a	catFR1	0	R1387E
896.864	1.601	924543	WORD	n/a	wordpools/wordpool_categorized_EN.txt	JEANS	Clothing	12	8	[0, 0, 0]	n/a	catFR1	0	R1387E
898.465	0.001	926149	PROB	9.016	n/a	n/a	n/a	-999	8	[7, 5, 8]	20.0	catFR1	0	R1387E
898.466	0.0	926150	START	n/a	n/a	n/a	n/a	-999	8	[-999, -999, -999]	n/a	catFR1	0	R1387E
898.465	0.001	926153	WORD_OFF	n/a	n/a	JEANS	Clothing	12	8	[0, 0, 0]	n/a	catFR1	0	R1387E
898.466	0.0	926153	ENCODING_END	n/a	n/a	n/a	n/a	-999	8	[0, 0, 0]	n/a	catFR1	0	R1387E
898.466	9.033	926153	DISTRACT_START	n/a	n/a	n/a	n/a	-999	8	[0, 0, 0]	n/a	catFR1	0	R1387E
907.499	7.066	935183	PROB	7.049	n/a	n/a	n/a	-999	8	[1, 7, 4]	12.0	catFR1	0	R1387E
914.565	2.932	942249	PROB	2.916	n/a	n/a	n/a	-999	8	[7, 7, 1]	15.0	catFR1	0	R1387E
917.497	4.001	945181	PROB	3.984	n/a	n/a	n/a	-999	8	[2, 1, 8]	11.0	catFR1	0	R1387E
921.498	0.0	949182	STOP	n/a	n/a	n/a	n/a	-999	8	[-999, -999, -999]	n/a	catFR1	0	R1387E
921.498	1.517	949184	DISTRACT_END	n/a	n/a	n/a	n/a	-999	8	[0, 0, 0]	n/a	catFR1	0	R1387E
923.015	2.131	950705	REC_START	n/a	n/a	n/a	n/a	-999	8	[0, 0, 0]	n/a	catFR1	0	R1387E
925.146	1.351	952830	REC_WORD_VV	2.131	n/a	<>	n/a	-999	8	[0, 0, 0]	n/a	catFR1	0	R1387E
926.497	8.686	954180	REC_WORD	3.482	n/a	BLOUSE	Clothing	11	8	[0, 0, 0]	n/a	catFR1	0	R1387E
935.183	2.203	962866	REC_WORD	12.168	n/a	BLOUSE	Clothing	11	8	[0, 0, 0]	n/a	catFR1	0	R1387E
937.386	1.134	965069	REC_WORD	14.371	n/a	CEDAR	Trees	8	8	[0, 0, 0]	n/a	catFR1	0	R1387E
938.52	14.808	966203	REC_WORD	15.505	n/a	WILLOW	Trees	2	8	[0, 0, 0]	n/a	catFR1	0	R1387E
953.328	2.57	981012	REC_END	n/a	n/a	n/a	n/a	-999	8	[0, 0, 0]	n/a	catFR1	0	R1387E
955.898	10.35	983588	COUNTDOWN_START	n/a	n/a	n/a	n/a	-999	9	[0, 0, 0]	n/a	catFR1	0	R1387E
966.248	0.0	993925	COUNTDOWN_END	n/a	n/a	n/a	n/a	-999	9	[0, 0, 0]	n/a	catFR1	0	R1387E
966.248	2.332	993925	ENCODING_START	n/a	n/a	n/a	n/a	-999	9	[0, 0, 0]	n/a	catFR1	0	R1387E
968.58	1.601	996268	WORD	n/a	wordpools/wordpool_categorized_EN.txt	PIANO	Instruments	1	9	[0, 0, 0]	n/a	catFR1	0	R1387E
970.181	0.9	997864	WORD_OFF	n/a	n/a	PIANO	Instruments	1	9	[0, 0, 0]	n/a	catFR1	0	R1387E
971.081	1.6	998770	WORD	n/a	wordpools/wordpool_categorized_EN.txt	GUITAR	Instruments	2	9	[0, 0, 0]	n/a	catFR1	0	R1387E
972.681	0.867	1000366	WORD_OFF	n/a	n/a	GUITAR	Instruments	2	9	[0, 0, 0]	n/a	catFR1	0	R1387E
973.548	1.6	1001228	WORD	n/a	wordpools/wordpool_categorized_EN.txt	DRILL	Tools	3	9	[0, 0, 0]	n/a	catFR1	0	R1387E
975.148	0.917	1002824	WORD_OFF	n/a	n/a	DRILL	Tools	3	9	[0, 0, 0]	n/a	catFR1	0	R1387E
976.065	1.6	1003744	WORD	n/a	wordpools/wordpool_categorized_EN.txt	AXE	Tools	4	9	[0, 0, 0]	n/a	catFR1	0	R1387E
977.665	1.0	1005355	WORD_OFF	n/a	n/a	AXE	Tools	4	9	[0, 0, 0]	n/a	catFR1	0	R1387E
978.665	1.601	1006347	WORD	n/a	wordpools/wordpool_categorized_EN.txt	HURRICANE	Weather	5	9	[0, 0, 0]	n/a	catFR1	0	R1387E
980.266	1.0	1007942	WORD_OFF	n/a	n/a	HURRICANE	Weather	5	9	[0, 0, 0]	n/a	catFR1	0	R1387E
981.266	1.6	1008949	WORD	n/a	wordpools/wordpool_categorized_EN.txt	RAIN	Weather	6	9	[0, 0, 0]	n/a	catFR1	0	R1387E
982.866	0.984	1010545	WORD_OFF	n/a	n/a	RAIN	Weather	6	9	[0, 0, 0]	n/a	catFR1	0	R1387E
983.85	1.6	1011537	WORD	n/a	wordpools/wordpool_categorized_EN.txt	HAMMER	Tools	7	9	[0, 0, 0]	n/a	catFR1	0	R1387E
985.45	0.917	1013132	WORD_OFF	n/a	n/a	HAMMER	Tools	7	9	[0, 0, 0]	n/a	catFR1	0	R1387E
986.367	1.6	1014053	WORD	n/a	wordpools/wordpool_categorized_EN.txt	SCREWDRIVER	Tools	8	9	[0, 0, 0]	n/a	catFR1	0	R1387E
987.967	0.931	1015648	WORD_OFF	n/a	n/a	SCREWDRIVER	Tools	8	9	[0, 0, 0]	n/a	catFR1	0	R1387E
988.898	1.6	1016583	WORD	n/a	wordpools/wordpool_categorized_EN.txt	TROMBONE	Instruments	9	9	[0, 0, 0]	n/a	catFR1	0	R1387E
990.498	0.967	1018179	WORD_OFF	n/a	n/a	TROMBONE	Instruments	9	9	[0, 0, 0]	n/a	catFR1	0	R1387E
991.465	1.6	1019142	WORD	n/a	wordpools/wordpool_categorized_EN.txt	DRUM	Instruments	10	9	[0, 0, 0]	n/a	catFR1	0	R1387E
993.065	0.883	1020752	WORD_OFF	n/a	n/a	DRUM	Instruments	10	9	[0, 0, 0]	n/a	catFR1	0	R1387E
993.948	1.617	1021629	WORD	n/a	wordpools/wordpool_categorized_EN.txt	THUNDER	Weather	11	9	[0, 0, 0]	n/a	catFR1	0	R1387E
995.565	0.883	1023254	WORD_OFF	n/a	n/a	THUNDER	Weather	11	9	[0, 0, 0]	n/a	catFR1	0	R1387E
996.448	1.617	1024131	WORD	n/a	wordpools/wordpool_categorized_EN.txt	HUMIDITY	Weather	12	9	[0, 0, 0]	n/a	catFR1	0	R1387E
998.065	0.0	1025741	WORD_OFF	n/a	n/a	HUMIDITY	Weather	12	9	[0, 0, 0]	n/a	catFR1	0	R1387E
998.065	0.001	1025746	PROB	6.082	n/a	n/a	n/a	-999	9	[5, 4, 7]	16.0	catFR1	0	R1387E
998.066	0.0	1025747	START	n/a	n/a	n/a	n/a	-999	9	[-999, -999, -999]	n/a	catFR1	0	R1387E
998.066	0.0	1025755	ENCODING_END	n/a	n/a	n/a	n/a	-999	9	[0, 0, 0]	n/a	catFR1	0	R1387E
998.066	6.102	1025755	DISTRACT_START	n/a	n/a	n/a	n/a	-999	9	[0, 0, 0]	n/a	catFR1	0	R1387E
1004.168	5.197	1031849	PROB	5.182	n/a	n/a	n/a	-999	9	[2, 8, 8]	18.0	catFR1	0	R1387E
1009.365	8.65	1037046	PROB	8.633	n/a	n/a	n/a	-999	9	[8, 6, 6]	20.0	catFR1	0	R1387E
1018.015	5.25	1045695	PROB	5.233	n/a	n/a	n/a	-999	9	[7, 5, 2]	14.0	catFR1	0	R1387E
1023.265	0.0	1050943	DISTRACT_END	n/a	n/a	n/a	n/a	-999	9	[0, 0, 0]	n/a	catFR1	0	R1387E
1023.265	1.85	1050945	STOP	n/a	n/a	n/a	n/a	-999	9	[-999, -999, -999]	n/a	catFR1	0	R1387E
1025.115	1.549	1052795	REC_START	n/a	n/a	n/a	n/a	-999	9	[0, 0, 0]	n/a	catFR1	0	R1387E
1026.664	1.0	1054344	REC_WORD	1.549	n/a	SCREWDRIVER	Tools	8	9	[0, 0, 0]	n/a	catFR1	0	R1387E
1027.664	0.193	1055344	REC_WORD_VV	2.549	n/a	<>	n/a	-999	9	[0, 0, 0]	n/a	catFR1	0	R1387E
1027.857	3.501	1055537	REC_WORD	2.742	n/a	HAMMER	Tools	7	9	[0, 0, 0]	n/a	catFR1	0	R1387E
1031.358	7.352	1059038	REC_WORD	6.243	n/a	AXE	Tools	4	9	[0, 0, 0]	n/a	catFR1	0	R1387E
1038.71	2.389	1066390	REC_WORD	13.595	n/a	HURRICANE	Weather	5	9	[0, 0, 0]	n/a	catFR1	0	R1387E
1041.099	1.0	1068779	REC_WORD	15.984	n/a	THUNDERSTORM	Weather	-999	9	[0, 0, 0]	n/a	catFR1	0	R1387E
1042.099	12.327	1069778	REC_WORD_VV	16.984	n/a	<>	n/a	-999	9	[0, 0, 0]	n/a	catFR1	0	R1387E
1054.426	1.006	1082105	REC_WORD_VV	29.311	n/a	<>	n/a	-999	9	[0, 0, 0]	n/a	catFR1	0	R1387E
1055.432	2.033	1083116	REC_END	n/a	n/a	n/a	n/a	-999	9	[0, 0, 0]	n/a	catFR1	0	R1387E
1057.465	10.35	1085146	COUNTDOWN_START	n/a	n/a	n/a	n/a	-999	10	[0, 0, 0]	n/a	catFR1	0	R1387E
1067.815	0.0	1095497	COUNTDOWN_END	n/a	n/a	n/a	n/a	-999	10	[0, 0, 0]	n/a	catFR1	0	R1387E
1067.815	2.215	1095497	ENCODING_START	n/a	n/a	n/a	n/a	-999	10	[0, 0, 0]	n/a	catFR1	0	R1387E
1070.03	1.604	1097711	WORD	n/a	wordpools/wordpool_categorized_EN.txt	SPIDER	Insects	1	10	[0, 0, 0]	n/a	catFR1	0	R1387E
1071.634	0.915	1099307	WORD_OFF	n/a	n/a	SPIDER	Insects	1	10	[0, 0, 0]	n/a	catFR1	0	R1387E
1072.549	1.6	1100227	WORD	n/a	wordpools/wordpool_categorized_EN.txt	CRICKET	Insects	2	10	[0, 0, 0]	n/a	catFR1	0	R1387E
1074.149	0.95	1101823	WORD_OFF	n/a	n/a	CRICKET	Insects	2	10	[0, 0, 0]	n/a	catFR1	0	R1387E
1075.099	1.601	1102772	WORD	n/a	wordpools/wordpool_categorized_EN.txt	FOOT	Bodyparts	3	10	[0, 0, 0]	n/a	catFR1	0	R1387E
1076.7	0.899	1104382	WORD_OFF	n/a	n/a	FOOT	Bodyparts	3	10	[0, 0, 0]	n/a	catFR1	0	R1387E
1077.599	1.601	1105273	WORD	n/a	wordpools/wordpool_categorized_EN.txt	ELBOW	Bodyparts	4	10	[0, 0, 0]	n/a	catFR1	0	R1387E
1079.2	1.0	1106884	WORD_OFF	n/a	n/a	ELBOW	Bodyparts	4	10	[0, 0, 0]	n/a	catFR1	0	R1387E
1080.2	1.615	1107876	WORD	n/a	wordpools/wordpool_categorized_EN.txt	OVEN	Appliances	5	10	[0, 0, 0]	n/a	catFR1	0	R1387E
1081.815	0.833	1109500	WORD_OFF	n/a	n/a	OVEN	Appliances	5	10	[0, 0, 0]	n/a	catFR1	0	R1387E
1082.648	1.617	1110334	WORD	n/a	wordpools/wordpool_categorized_EN.txt	DRYER	Appliances	6	10	[0, 0, 0]	n/a	catFR1	0	R1387E
1084.265	0.866	1111944	WORD_OFF	n/a	n/a	DRYER	Appliances	6	10	[0, 0, 0]	n/a	catFR1	0	R1387E
1085.131	1.616	1112807	WORD	n/a	wordpools/wordpool_categorized_EN.txt	TOE	Bodyparts	7	10	[0, 0, 0]	n/a	catFR1	0	R1387E
1086.747	0.8	1114431	WORD_OFF	n/a	n/a	TOE	Bodyparts	7	10	[0, 0, 0]	n/a	catFR1	0	R1387E
1087.547	1.601	1115222	WORD	n/a	wordpools/wordpool_categorized_EN.txt	EAR	Bodyparts	8	10	[0, 0, 0]	n/a	catFR1	0	R1387E
1089.148	0.767	1116832	WORD_OFF	n/a	n/a	EAR	Bodyparts	8	10	[0, 0, 0]	n/a	catFR1	0	R1387E
1089.915	1.6	1117594	WORD	n/a	wordpools/wordpool_categorized_EN.txt	BEETLE	Insects	9	10	[0, 0, 0]	n/a	catFR1	0	R1387E
1091.515	0.783	1119190	WORD_OFF	n/a	n/a	BEETLE	Insects	9	10	[0, 0, 0]	n/a	catFR1	0	R1387E
1092.298	1.617	1119981	WORD	n/a	wordpools/wordpool_categorized_EN.txt	MOSQUITO	Insects	10	10	[0, 0, 0]	n/a	catFR1	0	R1387E
1093.915	0.849	1121591	WORD_OFF	n/a	n/a	MOSQUITO	Insects	10	10	[0, 0, 0]	n/a	catFR1	0	R1387E
1094.764	1.601	1122439	WORD	n/a	wordpools/wordpool_categorized_EN.txt	REFRIGERATOR	Appliances	11	10	[0, 0, 0]	n/a	catFR1	0	R1387E
1096.365	0.85	1124049	WORD_OFF	n/a	n/a	REFRIGERATOR	Appliances	11	10	[0, 0, 0]	n/a	catFR1	0	R1387E
1097.215	1.6	1124898	WORD	n/a	wordpools/wordpool_categorized_EN.txt	TOASTER	Appliances	12	10	[0, 0, 0]	n/a	catFR1	0	R1387E
1098.815	0.0	1126493	PROB	3.383	n/a	n/a	n/a	-999	10	[8, 1, 8]	17.0	catFR1	0	R1387E
1098.815	0.001	1126494	WORD_OFF	n/a	n/a	TOASTER	Appliances	12	10	[0, 0, 0]	n/a	catFR1	0	R1387E
1098.816	0.0	1126494	ENCODING_END	n/a	n/a	n/a	n/a	-999	10	[0, 0, 0]	n/a	catFR1	0	R1387E
1098.816	0.0	1126494	DISTRACT_START	n/a	n/a	n/a	n/a	-999	10	[0, 0, 0]	n/a	catFR1	0	R1387E
1098.816	3.399	1126494	START	n/a	n/a	n/a	n/a	-999	10	[-999, -999, -999]	n/a	catFR1	0	R1387E
1102.215	5.033	1129892	PROB	5.016	n/a	n/a	n/a	-999	10	[8, 2, 3]	13.0	catFR1	0	R1387E
1107.248	9.101	1134925	PROB	9.083	n/a	n/a	n/a	-999	10	[6, 4, 7]	17.0	catFR1	0	R1387E
1116.349	4.116	1144026	PROB	4.099	n/a	n/a	n/a	-999	10	[1, 5, 1]	7.0	catFR1	0	R1387E
1120.465	0.0	1148142	STOP	n/a	n/a	n/a	n/a	-999	10	[-999, -999, -999]	n/a	catFR1	0	R1387E
1120.465	1.833	1148145	DISTRACT_END	n/a	n/a	n/a	n/a	-999	10	[0, 0, 0]	n/a	catFR1	0	R1387E
1122.298	1.49	1149982	REC_START	n/a	n/a	n/a	n/a	-999	10	[0, 0, 0]	n/a	catFR1	0	R1387E
1123.788	28.809	1151465	REC_WORD_VV	1.49	n/a	<>	n/a	-999	10	[0, 0, 0]	n/a	catFR1	0	R1387E
1152.597	2.984	1180274	REC_END	n/a	n/a	n/a	n/a	-999	10	[0, 0, 0]	n/a	catFR1	0	R1387E
1155.581	10.351	1183253	COUNTDOWN_START	n/a	n/a	n/a	n/a	-999	11	[0, 0, 0]	n/a	catFR1	0	R1387E
1165.932	0.0	1193604	COUNTDOWN_END	n/a	n/a	n/a	n/a	-999	11	[0, 0, 0]	n/a	catFR1	0	R1387E
1165.932	2.149	1193604	ENCODING_START	n/a	n/a	n/a	n/a	-999	11	[0, 0, 0]	n/a	catFR1	0	R1387E
1168.081	1.617	1195761	WORD	n/a	wordpools/wordpool_categorized_EN.txt	HEAD	Bodyparts	1	11	[0, 0, 0]	n/a	catFR1	0	R1387E
1169.698	1.0	1197371	WORD_OFF	n/a	n/a	HEAD	Bodyparts	1	11	[0, 0, 0]	n/a	catFR1	0	R1387E
1170.698	1.6	1198378	WORD	n/a	wordpools/wordpool_categorized_EN.txt	HAND	Bodyparts	2	11	[0, 0, 0]	n/a	catFR1	0	R1387E
1172.298	0.8	1199973	WORD_OFF	n/a	n/a	HAND	Bodyparts	2	11	[0, 0, 0]	n/a	catFR1	0	R1387E
1173.098	1.6	1200778	WORD	n/a	wordpools/wordpool_categorized_EN.txt	HICKORY	Trees	3	11	[0, 0, 0]	n/a	catFR1	0	R1387E
1174.698	0.966	1202374	WORD_OFF	n/a	n/a	HICKORY	Trees	3	11	[0, 0, 0]	n/a	catFR1	0	R1387E
1175.664	1.6	1203337	WORD	n/a	wordpools/wordpool_categorized_EN.txt	CYPRESS	Trees	4	11	[0, 0, 0]	n/a	catFR1	0	R1387E
1177.264	0.984	1204933	WORD_OFF	n/a	n/a	CYPRESS	Trees	4	11	[0, 0, 0]	n/a	catFR1	0	R1387E
1178.248	1.6	1205925	WORD	n/a	wordpools/wordpool_categorized_EN.txt	BANJO	Instruments	5	11	[0, 0, 0]	n/a	catFR1	0	R1387E
1179.848	0.783	1207521	WORD_OFF	n/a	n/a	BANJO	Instruments	5	11	[0, 0, 0]	n/a	catFR1	0	R1387E
1180.631	1.617	1208312	WORD	n/a	wordpools/wordpool_categorized_EN.txt	ORGAN	Instruments	6	11	[0, 0, 0]	n/a	catFR1	0	R1387E
1182.248	0.933	1209922	WORD_OFF	n/a	n/a	ORGAN	Instruments	6	11	[0, 0, 0]	n/a	catFR1	0	R1387E
1183.181	1.6	1210857	WORD	n/a	wordpools/wordpool_categorized_EN.txt	OAK	Trees	7	11	[0, 0, 0]	n/a	catFR1	0	R1387E
1184.781	0.967	1212452	WORD_OFF	n/a	n/a	OAK	Trees	7	11	[0, 0, 0]	n/a	catFR1	0	R1387E
1185.748	1.6	1213430	WORD	n/a	wordpools/wordpool_categorized_EN.txt	PINE	Trees	8	11	[0, 0, 0]	n/a	catFR1	0	R1387E
1187.348	0.783	1215026	WORD_OFF	n/a	n/a	PINE	Trees	8	11	[0, 0, 0]	n/a	catFR1	0	R1387E
1188.131	1.6	1215802	WORD	n/a	wordpools/wordpool_categorized_EN.txt	FINGERS	Bodyparts	9	11	[0, 0, 0]	n/a	catFR1	0	R1387E
1189.731	0.767	1217412	WORD_OFF	n/a	n/a	FINGERS	Bodyparts	9	11	[0, 0, 0]	n/a	catFR1	0	R1387E
1190.498	1.617	1218174	WORD	n/a	wordpools/wordpool_categorized_EN.txt	LEG	Bodyparts	10	11	[0, 0, 0]	n/a	catFR1	0	R1387E
1192.115	0.849	1219785	WORD_OFF	n/a	n/a	LEG	Bodyparts	10	11	[0, 0, 0]	n/a	catFR1	0	R1387E
1192.964	1.601	1220633	WORD	n/a	wordpools/wordpool_categorized_EN.txt	FLUTE	Instruments	11	11	[0, 0, 0]	n/a	catFR1	0	R1387E
1194.565	0.832	1222243	WORD_OFF	n/a	n/a	FLUTE	Instruments	11	11	[0, 0, 0]	n/a	catFR1	0	R1387E
1195.397	1.618	1223077	WORD	n/a	wordpools/wordpool_categorized_EN.txt	VIOLIN	Instruments	12	11	[0, 0, 0]	n/a	catFR1	0	R1387E
1197.015	0.001	1224687	WORD_OFF	n/a	n/a	VIOLIN	Instruments	12	11	[0, 0, 0]	n/a	catFR1	0	R1387E
1197.016	0.0	1224687	ENCODING_END	n/a	n/a	n/a	n/a	-999	11	[0, 0, 0]	n/a	catFR1	0	R1387E
1197.016	0.0	1224687	DISTRACT_START	n/a	n/a	n/a	n/a	-999	11	[0, 0, 0]	n/a	catFR1	0	R1387E
1197.015	0.001	1224689	PROB	6.982	n/a	n/a	n/a	-999	11	[3, 8, 5]	16.0	catFR1	0	R1387E
1197.016	6.999	1224690	START	n/a	n/a	n/a	n/a	-999	11	[-999, -999, -999]	n/a	catFR1	0	R1387E
1204.015	3.434	1231689	PROB	3.416	n/a	n/a	n/a	-999	11	[1, 7, 8]	16.0	catFR1	0	R1387E
1207.449	7.083	1235123	PROB	7.066	n/a	n/a	n/a	-999	11	[5, 8, 8]	21.0	catFR1	0	R1387E
1214.532	7.648	1242206	PROB	7.633	n/a	n/a	n/a	-999	11	[4, 8, 1]	13.0	catFR1	0	R1387E
1222.18	0.0	1249853	STOP	n/a	n/a	n/a	n/a	-999	11	[-999, -999, -999]	n/a	catFR1	0	R1387E
1222.18	1.868	1249861	DISTRACT_END	n/a	n/a	n/a	n/a	-999	11	[0, 0, 0]	n/a	catFR1	0	R1387E
1224.048	1.431	1251727	REC_START	n/a	n/a	n/a	n/a	-999	11	[0, 0, 0]	n/a	catFR1	0	R1387E
1225.479	1.155	1253152	REC_WORD	1.431	n/a	HEAD	Bodyparts	1	11	[0, 0, 0]	n/a	catFR1	0	R1387E
1226.634	2.497	1254307	REC_WORD	2.586	n/a	HAND	Bodyparts	2	11	[0, 0, 0]	n/a	catFR1	0	R1387E
1229.131	2.192	1256804	REC_WORD	5.083	n/a	LEG	Bodyparts	10	11	[0, 0, 0]	n/a	catFR1	0	R1387E
1231.323	2.771	1258996	REC_WORD	7.275	n/a	OAK	Trees	7	11	[0, 0, 0]	n/a	catFR1	0	R1387E
1234.094	1.0	1261767	REC_WORD_VV	10.046	n/a	<>	n/a	-999	11	[0, 0, 0]	n/a	catFR1	0	R1387E
1235.094	1.0	1262767	REC_WORD	11.046	n/a	CYPRESS	Trees	4	11	[0, 0, 0]	n/a	catFR1	0	R1387E
1236.094	4.318	1263767	REC_WORD_VV	12.046	n/a	<>	n/a	-999	11	[0, 0, 0]	n/a	catFR1	0	R1387E
1240.412	6.025	1268085	REC_WORD	16.364	n/a	CEDAR	Trees	-999	11	[0, 0, 0]	n/a	catFR1	0	R1387E
1246.437	1.031	1274109	REC_WORD	22.389	n/a	FLUTE	Instruments	11	11	[0, 0, 0]	n/a	catFR1	0	R1387E
1247.468	4.708	1275140	REC_WORD	23.42	n/a	VIOLIN	Instruments	12	11	[0, 0, 0]	n/a	catFR1	0	R1387E
1252.176	2.152	1279848	REC_WORD	28.128	n/a	TRUMPET	Instruments	-999	11	[0, 0, 0]	n/a	catFR1	0	R1387E
1254.328	1.903	1282004	REC_END	n/a	n/a	n/a	n/a	-999	11	[0, 0, 0]	n/a	catFR1	0	R1387E
1256.231	10.351	1283905	COUNTDOWN_START	n/a	n/a	n/a	n/a	-999	12	[0, 0, 0]	n/a	catFR1	0	R1387E
1266.582	0.0	1294256	COUNTDOWN_END	n/a	n/a	n/a	n/a	-999	12	[0, 0, 0]	n/a	catFR1	0	R1387E
1266.582	1.982	1294256	ENCODING_START	n/a	n/a	n/a	n/a	-999	12	[0, 0, 0]	n/a	catFR1	0	R1387E
1268.564	1.601	1296240	WORD	n/a	wordpools/wordpool_categorized_EN.txt	DOLPHIN	Oceananimals	1	12	[0, 0, 0]	n/a	catFR1	0	R1387E
1270.165	0.949	1297836	WORD_OFF	n/a	n/a	DOLPHIN	Oceananimals	1	12	[0, 0, 0]	n/a	catFR1	0	R1387E
1271.114	1.6	1298785	WORD	n/a	wordpools/wordpool_categorized_EN.txt	SHRIMP	Oceananimals	2	12	[0, 0, 0]	n/a	catFR1	0	R1387E
1272.714	0.934	1300381	WORD_OFF	n/a	n/a	SHRIMP	Oceananimals	2	12	[0, 0, 0]	n/a	catFR1	0	R1387E
1273.648	1.6	1301315	WORD	n/a	wordpools/wordpool_categorized_EN.txt	FREEZER	Appliances	3	12	[0, 0, 0]	n/a	catFR1	0	R1387E
1275.248	0.95	1302926	WORD_OFF	n/a	n/a	FREEZER	Appliances	3	12	[0, 0, 0]	n/a	catFR1	0	R1387E
1276.198	1.6	1303874	WORD	n/a	wordpools/wordpool_categorized_EN.txt	VACUUM	Appliances	4	12	[0, 0, 0]	n/a	catFR1	0	R1387E
1277.798	0.982	1305470	WORD_OFF	n/a	n/a	VACUUM	Appliances	4	12	[0, 0, 0]	n/a	catFR1	0	R1387E
1278.78	1.601	1306448	WORD	n/a	wordpools/wordpool_categorized_EN.txt	NOSE	Bodyparts	5	12	[0, 0, 0]	n/a	catFR1	0	R1387E
1280.381	0.999	1308058	WORD_OFF	n/a	n/a	NOSE	Bodyparts	5	12	[0, 0, 0]	n/a	catFR1	0	R1387E
1281.38	1.601	1309050	WORD	n/a	wordpools/wordpool_categorized_EN.txt	KNEE	Bodyparts	6	12	[0, 0, 0]	n/a	catFR1	0	R1387E
1282.981	0.967	1310646	WORD_OFF	n/a	n/a	KNEE	Bodyparts	6	12	[0, 0, 0]	n/a	catFR1	0	R1387E
1283.948	1.6	1311624	WORD	n/a	wordpools/wordpool_categorized_EN.txt	STOVE	Appliances	7	12	[0, 0, 0]	n/a	catFR1	0	R1387E
1285.548	0.816	1313219	WORD_OFF	n/a	n/a	STOVE	Appliances	7	12	[0, 0, 0]	n/a	catFR1	0	R1387E
1286.364	1.601	1314039	WORD	n/a	wordpools/wordpool_categorized_EN.txt	MIXER	Appliances	8	12	[0, 0, 0]	n/a	catFR1	0	R1387E
1287.965	0.966	1315635	WORD_OFF	n/a	n/a	MIXER	Appliances	8	12	[0, 0, 0]	n/a	catFR1	0	R1387E
1288.931	1.617	1316598	WORD	n/a	wordpools/wordpool_categorized_EN.txt	TURTLE	Oceananimals	9	12	[0, 0, 0]	n/a	catFR1	0	R1387E
1290.548	0.833	1318223	WORD_OFF	n/a	n/a	TURTLE	Oceananimals	9	12	[0, 0, 0]	n/a	catFR1	0	R1387E
1291.381	1.6	1319056	WORD	n/a	wordpools/wordpool_categorized_EN.txt	CRAB	Oceananimals	10	12	[0, 0, 0]	n/a	catFR1	0	R1387E
1292.981	0.867	1320652	WORD_OFF	n/a	n/a	CRAB	Oceananimals	10	12	[0, 0, 0]	n/a	catFR1	0	R1387E
1293.848	1.617	1321515	WORD	n/a	wordpools/wordpool_categorized_EN.txt	EYE	Bodyparts	11	12	[0, 0, 0]	n/a	catFR1	0	R1387E
1295.465	0.983	1323139	WORD_OFF	n/a	n/a	EYE	Bodyparts	11	12	[0, 0, 0]	n/a	catFR1	0	R1387E
1296.448	1.601	1324117	WORD	n/a	wordpools/wordpool_categorized_EN.txt	ARM	Bodyparts	12	12	[0, 0, 0]	n/a	catFR1	0	R1387E
1298.049	0.001	1325720	PROB	4.416	n/a	n/a	n/a	-999	12	[4, 3, 3]	10.0	catFR1	0	R1387E
1298.05	0.0	1325721	START	n/a	n/a	n/a	n/a	-999	12	[-999, -999, -999]	n/a	catFR1	0	R1387E
1298.048	0.002	1325727	WORD_OFF	n/a	n/a	ARM	Bodyparts	12	12	[0, 0, 0]	n/a	catFR1	0	R1387E
1298.05	0.0	1325727	ENCODING_END	n/a	n/a	n/a	n/a	-999	12	[0, 0, 0]	n/a	catFR1	0	R1387E
1298.05	4.432	1325727	DISTRACT_START	n/a	n/a	n/a	n/a	-999	12	[0, 0, 0]	n/a	catFR1	0	R1387E
1302.482	2.767	1330152	PROB	2.749	n/a	n/a	n/a	-999	12	[3, 3, 3]	9.0	catFR1	0	R1387E
1305.249	8.366	1332919	PROB	8.349	n/a	n/a	n/a	-999	12	[3, 5, 6]	14.0	catFR1	0	R1387E
1313.615	7.199	1341285	PROB	7.182	n/a	n/a	n/a	-999	12	[5, 2, 8]	15.0	catFR1	0	R1387E
1320.814	0.0	1348484	STOP	n/a	n/a	n/a	n/a	-999	12	[-999, -999, -999]	n/a	catFR1	0	R1387E
1320.814	1.667	1348486	DISTRACT_END	n/a	n/a	n/a	n/a	-999	12	[0, 0, 0]	n/a	catFR1	0	R1387E
1322.481	2.26	1350150	REC_START	n/a	n/a	n/a	n/a	-999	12	[0, 0, 0]	n/a	catFR1	0	R1387E
1324.741	2.088	1352411	REC_WORD	2.26	n/a	DOLPHIN	Oceananimals	1	12	[0, 0, 0]	n/a	catFR1	0	R1387E
1326.829	25.938	1354499	REC_WORD	4.348	n/a	SHRIMP	Oceananimals	2	12	[0, 0, 0]	n/a	catFR1	0	R1387E
1352.767	0.0	1380442	REC_END	n/a	n/a	n/a	n/a	-999	12	[0, 0, 0]	n/a	catFR1	0	R1387E
