onset	duration	sample	trial_type	response_time	stim_file	item_name	category	serialpos	list	test	answer	experiment	session	subject
0.0	0.0	6939	INSTRUCT_START	n/a	n/a	n/a	n/a	-999	-999	[0, 0, 0]	n/a	catFR1	0	R1245E
0.0	10.98	6939	INSTRUCT_END	n/a	n/a	n/a	n/a	-999	-999	[0, 0, 0]	n/a	catFR1	0	R1245E
10.98	0.0	17919	SESS_START	n/a	n/a	n/a	n/a	-999	-999	[0, 0, 0]	n/a	catFR1	0	R1245E
10.98	269.281	17919	MIC_TEST	n/a	n/a	n/a	n/a	-999	-999	[0, 0, 0]	n/a	catFR1	0	R1245E
280.261	6.322	287189	PRACTICE_TRIAL	n/a	n/a	n/a	n/a	-999	-1	[0, 0, 0]	n/a	catFR1	0	R1245E
286.583	10.428	293510	COUNTDOWN_START	n/a	n/a	n/a	n/a	-999	-1	[0, 0, 0]	n/a	catFR1	0	R1245E
297.011	0.007	303938	COUNTDOWN_END	n/a	n/a	n/a	n/a	-999	-1	[0, 0, 0]	n/a	catFR1	0	R1245E
297.018	1.616	303945	PRACTICE_ORIENT	n/a	n/a	n/a	n/a	-999	-1	[0, 0, 0]	n/a	catFR1	0	R1245E
298.634	2.101	305561	PRACTICE_ORIENT_OFF	n/a	n/a	n/a	n/a	-999	-1	[0, 0, 0]	n/a	catFR1	0	R1245E
300.735	1.618	307662	PRACTICE_WORD	n/a	n/a	RING	n/a	-1	-1	[0, 0, 0]	n/a	catFR1	0	R1245E
302.353	1.0	309280	PRACTICE_WORD_OFF	n/a	n/a	RING	n/a	-999	-1	[0, 0, 0]	n/a	catFR1	0	R1245E
303.353	1.617	310280	PRACTICE_WORD	n/a	n/a	BEAM	n/a	-1	-1	[0, 0, 0]	n/a	catFR1	0	R1245E
304.97	1.017	311897	PRACTICE_WORD_OFF	n/a	n/a	BEAM	n/a	-999	-1	[0, 0, 0]	n/a	catFR1	0	R1245E
305.987	1.617	312914	PRACTICE_WORD	n/a	n/a	RHINO	n/a	-1	-1	[0, 0, 0]	n/a	catFR1	0	R1245E
307.604	0.766	314531	PRACTICE_WORD_OFF	n/a	n/a	RHINO	n/a	-999	-1	[0, 0, 0]	n/a	catFR1	0	R1245E
308.37	1.617	315297	PRACTICE_WORD	n/a	n/a	WATCH	n/a	-1	-1	[0, 0, 0]	n/a	catFR1	0	R1245E
309.987	1.017	316914	PRACTICE_WORD_OFF	n/a	n/a	WATCH	n/a	-999	-1	[0, 0, 0]	n/a	catFR1	0	R1245E
311.004	1.616	317930	PRACTICE_WORD	n/a	n/a	TONGUE	n/a	-1	-1	[0, 0, 0]	n/a	catFR1	0	R1245E
312.62	0.818	319546	PRACTICE_WORD_OFF	n/a	n/a	TONGUE	n/a	-999	-1	[0, 0, 0]	n/a	catFR1	0	R1245E
313.438	1.617	320364	PRACTICE_WORD	n/a	n/a	FLOOD	n/a	-1	-1	[0, 0, 0]	n/a	catFR1	0	R1245E
315.055	0.9	321981	PRACTICE_WORD_OFF	n/a	n/a	FLOOD	n/a	-999	-1	[0, 0, 0]	n/a	catFR1	0	R1245E
315.955	1.617	322881	PRACTICE_WORD	n/a	n/a	CHEST	n/a	-1	-1	[0, 0, 0]	n/a	catFR1	0	R1245E
317.572	0.984	324498	PRACTICE_WORD_OFF	n/a	n/a	CHEST	n/a	-999	-1	[0, 0, 0]	n/a	catFR1	0	R1245E
318.556	1.617	325482	PRACTICE_WORD	n/a	n/a	CAMEL	n/a	-1	-1	[0, 0, 0]	n/a	catFR1	0	R1245E
320.173	0.983	327099	PRACTICE_WORD_OFF	n/a	n/a	CAMEL	n/a	-999	-1	[0, 0, 0]	n/a	catFR1	0	R1245E
321.156	1.616	328082	PRACTICE_WORD	n/a	n/a	WAGON	n/a	-1	-1	[0, 0, 0]	n/a	catFR1	0	R1245E
322.772	0.801	329698	PRACTICE_WORD_OFF	n/a	n/a	WAGON	n/a	-999	-1	[0, 0, 0]	n/a	catFR1	0	R1245E
323.573	1.617	330499	PRACTICE_WORD	n/a	n/a	ATTIC	n/a	-1	-1	[0, 0, 0]	n/a	catFR1	0	R1245E
325.19	0.967	332116	PRACTICE_WORD_OFF	n/a	n/a	ATTIC	n/a	-999	-1	[0, 0, 0]	n/a	catFR1	0	R1245E
326.157	1.616	333083	PRACTICE_WORD	n/a	n/a	IRON	n/a	-1	-1	[0, 0, 0]	n/a	catFR1	0	R1245E
327.773	0.983	334699	PRACTICE_WORD_OFF	n/a	n/a	IRON	n/a	-999	-1	[0, 0, 0]	n/a	catFR1	0	R1245E
328.756	1.601	335682	PRACTICE_WORD	n/a	n/a	COTTON	n/a	-1	-1	[0, 0, 0]	n/a	catFR1	0	R1245E
330.357	0.001	337283	PRACTICE_WORD_OFF	n/a	n/a	COTTON	n/a	-999	-1	[0, 0, 0]	n/a	catFR1	0	R1245E
330.358	0.0	337284	DISTRACT_START	n/a	n/a	n/a	n/a	-999	-1	[0, 0, 0]	n/a	catFR1	0	R1245E
330.358	0.0	337284	ENCODING_END	n/a	n/a	n/a	n/a	-999	-1	[0, 0, 0]	n/a	catFR1	0	R1245E
330.358	0.016	337284	START	n/a	n/a	n/a	n/a	-999	1	[-999, -999, -999]	n/a	catFR1	0	R1245E
330.374	7.752	337300	PROB	7.752	n/a	n/a	n/a	-999	1	[9, 2, 3]	14	catFR1	0	R1245E
338.126	4.167	345051	PROB	4.167	n/a	n/a	n/a	-999	1	[4, 6, 8]	18	catFR1	0	R1245E
342.293	3.5	349218	PROB	3.5	n/a	n/a	n/a	-999	1	[5, 5, 2]	12	catFR1	0	R1245E
345.793	4.661	352718	PROB	4.661	n/a	n/a	n/a	-999	1	[8, 3, 9]	20	catFR1	0	R1245E
350.454	0.007	357379	STOP	n/a	n/a	n/a	n/a	-999	1	[-999, -999, -999]	n/a	catFR1	0	R1245E
350.461	0.6	357386	DISTRACT_END	n/a	n/a	n/a	n/a	-999	-1	[0, 0, 0]	n/a	catFR1	0	R1245E
351.061	0.524	357986	RETRIEVAL_ORIENT	n/a	n/a	n/a	n/a	-999	-1	[0, 0, 0]	n/a	catFR1	0	R1245E
351.585	30.005	358510	PRACTICE_REC_START	n/a	n/a	n/a	n/a	-999	-1	[0, 0, 0]	n/a	catFR1	0	R1245E
381.59	44.217	388514	PRACTICE_REC_END	n/a	n/a	n/a	n/a	-999	-1	[0, 0, 0]	n/a	catFR1	0	R1245E
425.807	0.5	432729	TRIAL	n/a	n/a	n/a	n/a	-999	1	[0, 0, 0]	n/a	catFR1	0	R1245E
426.307	10.428	433229	COUNTDOWN_START	n/a	n/a	n/a	n/a	-999	1	[0, 0, 0]	n/a	catFR1	0	R1245E
436.735	0.007	443656	COUNTDOWN_END	n/a	n/a	n/a	n/a	-999	1	[0, 0, 0]	n/a	catFR1	0	R1245E
436.742	1.618	443663	ORIENT	n/a	n/a	n/a	n/a	-999	1	[0, 0, 0]	n/a	catFR1	0	R1245E
438.36	2.05	445281	ORIENT_OFF	n/a	n/a	n/a	n/a	-999	1	[0, 0, 0]	n/a	catFR1	0	R1245E
440.41	1.617	447331	WORD	n/a	wordpools/wordpool_categorized_EN.txt	ROBIN	Birds	1	1	[0, 0, 0]	n/a	catFR1	0	R1245E
442.027	1.0	448948	WORD_OFF	n/a	n/a	ROBIN	n/a	1	1	[0, 0, 0]	n/a	catFR1	0	R1245E
443.027	1.616	449948	WORD	n/a	wordpools/wordpool_categorized_EN.txt	PIGEON	Birds	2	1	[0, 0, 0]	n/a	catFR1	0	R1245E
444.643	0.918	451564	WORD_OFF	n/a	n/a	PIGEON	n/a	2	1	[0, 0, 0]	n/a	catFR1	0	R1245E
445.561	1.617	452482	WORD	n/a	wordpools/wordpool_categorized_EN.txt	COUCH	Furniture	3	1	[0, 0, 0]	n/a	catFR1	0	R1245E
447.178	0.767	454099	WORD_OFF	n/a	n/a	COUCH	n/a	3	1	[0, 0, 0]	n/a	catFR1	0	R1245E
447.945	1.617	454866	WORD	n/a	wordpools/wordpool_categorized_EN.txt	DRESSER	Furniture	4	1	[0, 0, 0]	n/a	catFR1	0	R1245E
449.562	0.883	456483	WORD_OFF	n/a	n/a	DRESSER	n/a	4	1	[0, 0, 0]	n/a	catFR1	0	R1245E
450.445	1.617	457366	WORD	n/a	wordpools/wordpool_categorized_EN.txt	PANDA	Zoo	5	1	[0, 0, 0]	n/a	catFR1	0	R1245E
452.062	0.801	458983	WORD_OFF	n/a	n/a	PANDA	n/a	5	1	[0, 0, 0]	n/a	catFR1	0	R1245E
452.863	1.616	459784	WORD	n/a	wordpools/wordpool_categorized_EN.txt	GIRAFFE	Zoo	6	1	[0, 0, 0]	n/a	catFR1	0	R1245E
454.479	0.901	461400	WORD_OFF	n/a	n/a	GIRAFFE	n/a	6	1	[0, 0, 0]	n/a	catFR1	0	R1245E
455.38	1.617	462300	WORD	n/a	wordpools/wordpool_categorized_EN.txt	DUCK	Birds	7	1	[0, 0, 0]	n/a	catFR1	0	R1245E
456.997	0.866	463917	WORD_OFF	n/a	n/a	DUCK	n/a	7	1	[0, 0, 0]	n/a	catFR1	0	R1245E
457.863	1.617	464783	WORD	n/a	wordpools/wordpool_categorized_EN.txt	DOVE	Birds	8	1	[0, 0, 0]	n/a	catFR1	0	R1245E
459.48	0.834	466400	WORD_OFF	n/a	n/a	DOVE	n/a	8	1	[0, 0, 0]	n/a	catFR1	0	R1245E
460.314	1.617	467234	WORD	n/a	wordpools/wordpool_categorized_EN.txt	BED	Furniture	9	1	[0, 0, 0]	n/a	catFR1	0	R1245E
461.931	0.95	468851	WORD_OFF	n/a	n/a	BED	n/a	9	1	[0, 0, 0]	n/a	catFR1	0	R1245E
462.881	1.617	469801	WORD	n/a	wordpools/wordpool_categorized_EN.txt	BOOKCASE	Furniture	10	1	[0, 0, 0]	n/a	catFR1	0	R1245E
464.498	0.917	471418	WORD_OFF	n/a	n/a	BOOKCASE	n/a	10	1	[0, 0, 0]	n/a	catFR1	0	R1245E
465.415	1.617	472335	WORD	n/a	wordpools/wordpool_categorized_EN.txt	CHEETAH	Zoo	11	1	[0, 0, 0]	n/a	catFR1	0	R1245E
467.032	0.966	473952	WORD_OFF	n/a	n/a	CHEETAH	n/a	11	1	[0, 0, 0]	n/a	catFR1	0	R1245E
467.998	1.616	474918	WORD	n/a	wordpools/wordpool_categorized_EN.txt	ZEBRA	Zoo	12	1	[0, 0, 0]	n/a	catFR1	0	R1245E
469.614	0.001	476534	WORD_OFF	n/a	n/a	ZEBRA	n/a	12	1	[0, 0, 0]	n/a	catFR1	0	R1245E
469.615	0.174	476535	ENCODING_END	n/a	n/a	n/a	n/a	-999	1	[0, 0, 0]	n/a	catFR1	0	R1245E
469.789	0.0	476709	DISTRACT_START	n/a	n/a	n/a	n/a	-999	1	[0, 0, 0]	n/a	catFR1	0	R1245E
469.789	0.008	476709	START	n/a	n/a	n/a	n/a	-999	2	[-999, -999, -999]	n/a	catFR1	0	R1245E
469.797	7.103	476717	PROB	7.103	n/a	n/a	n/a	-999	2	[1, 3, 7]	11	catFR1	0	R1245E
476.9	7.418	483820	PROB	7.418	n/a	n/a	n/a	-999	2	[8, 5, 3]	16	catFR1	0	R1245E
484.318	3.433	491237	PROB	3.433	n/a	n/a	n/a	-999	2	[2, 1, 9]	12	catFR1	0	R1245E
487.751	4.273	494670	PROB	4.273	n/a	n/a	n/a	-999	2	[8, 6, 1]	15	catFR1	0	R1245E
492.024	0.012	498943	STOP	n/a	n/a	n/a	n/a	-999	2	[-999, -999, -999]	n/a	catFR1	0	R1245E
492.036	0.583	498955	DISTRACT_END	n/a	n/a	n/a	n/a	-999	1	[0, 0, 0]	n/a	catFR1	0	R1245E
492.619	0.518	499538	RETRIEVAL_ORIENT	n/a	n/a	n/a	n/a	-999	1	[0, 0, 0]	n/a	catFR1	0	R1245E
493.137	2.378	500056	REC_START	n/a	n/a	n/a	n/a	-999	1	[0, 0, 0]	n/a	catFR1	0	R1245E
495.515	0.826	502434	REC_WORD	0.826	n/a	ROBIN	Birds	1	1	[0, 0, 0]	n/a	catFR1	0	R1245E
496.341	3.764	503260	REC_WORD	3.764	n/a	DOVE	Birds	8	1	[0, 0, 0]	n/a	catFR1	0	R1245E
500.105	0.78	507024	REC_WORD	0.78	n/a	ZEBRA	Zoo	12	1	[0, 0, 0]	n/a	catFR1	0	R1245E
500.885	2.13	507804	REC_WORD	2.13	n/a	CHEETAH	Zoo	11	1	[0, 0, 0]	n/a	catFR1	0	R1245E
503.015	0.608	509933	REC_WORD	0.608	n/a	DOOR	n/a	-999	1	[0, 0, 0]	n/a	catFR1	0	R1245E
503.623	19.524	510541	REC_WORD	19.524	n/a	BOOKCASE	Furniture	10	1	[0, 0, 0]	n/a	catFR1	0	R1245E
523.147	21.998	530065	REC_END	n/a	n/a	n/a	n/a	-999	1	[0, 0, 0]	n/a	catFR1	0	R1245E
545.145	0.5	552062	TRIAL	n/a	n/a	n/a	n/a	-999	2	[0, 0, 0]	n/a	catFR1	0	R1245E
545.645	10.428	552562	COUNTDOWN_START	n/a	n/a	n/a	n/a	-999	2	[0, 0, 0]	n/a	catFR1	0	R1245E
556.073	0.008	562989	COUNTDOWN_END	n/a	n/a	n/a	n/a	-999	2	[0, 0, 0]	n/a	catFR1	0	R1245E
556.081	1.616	562997	ORIENT	n/a	n/a	n/a	n/a	-999	2	[0, 0, 0]	n/a	catFR1	0	R1245E
557.697	2.15	564613	ORIENT_OFF	n/a	n/a	n/a	n/a	-999	2	[0, 0, 0]	n/a	catFR1	0	R1245E
559.847	1.618	566763	WORD	n/a	wordpools/wordpool_categorized_EN.txt	CROW	Birds	1	2	[0, 0, 0]	n/a	catFR1	0	R1245E
561.465	0.933	568381	WORD_OFF	n/a	n/a	CROW	n/a	1	2	[0, 0, 0]	n/a	catFR1	0	R1245E
562.398	1.617	569314	WORD	n/a	wordpools/wordpool_categorized_EN.txt	BLUEBIRD	Birds	2	2	[0, 0, 0]	n/a	catFR1	0	R1245E
564.015	0.9	570931	WORD_OFF	n/a	n/a	BLUEBIRD	n/a	2	2	[0, 0, 0]	n/a	catFR1	0	R1245E
564.915	1.617	571831	WORD	n/a	wordpools/wordpool_categorized_EN.txt	ELM	Trees	3	2	[0, 0, 0]	n/a	catFR1	0	R1245E
566.532	0.884	573448	WORD_OFF	n/a	n/a	ELM	n/a	3	2	[0, 0, 0]	n/a	catFR1	0	R1245E
567.416	1.617	574332	WORD	n/a	wordpools/wordpool_categorized_EN.txt	PINE	Trees	4	2	[0, 0, 0]	n/a	catFR1	0	R1245E
569.033	0.799	575949	WORD_OFF	n/a	n/a	PINE	n/a	4	2	[0, 0, 0]	n/a	catFR1	0	R1245E
569.832	1.618	576748	WORD	n/a	wordpools/wordpool_categorized_EN.txt	SCOOTER	Vehicles	5	2	[0, 0, 0]	n/a	catFR1	0	R1245E
571.45	1.0	578366	WORD_OFF	n/a	n/a	SCOOTER	n/a	5	2	[0, 0, 0]	n/a	catFR1	0	R1245E
572.45	1.617	579366	WORD	n/a	wordpools/wordpool_categorized_EN.txt	MOPED	Vehicles	6	2	[0, 0, 0]	n/a	catFR1	0	R1245E
574.067	0.766	580983	WORD_OFF	n/a	n/a	MOPED	n/a	6	2	[0, 0, 0]	n/a	catFR1	0	R1245E
574.833	1.618	581749	WORD	n/a	wordpools/wordpool_categorized_EN.txt	HAWK	Birds	7	2	[0, 0, 0]	n/a	catFR1	0	R1245E
576.451	0.883	583366	WORD_OFF	n/a	n/a	HAWK	n/a	7	2	[0, 0, 0]	n/a	catFR1	0	R1245E
577.334	1.617	584249	WORD	n/a	wordpools/wordpool_categorized_EN.txt	SPARROW	Birds	8	2	[0, 0, 0]	n/a	catFR1	0	R1245E
578.951	0.766	585866	WORD_OFF	n/a	n/a	SPARROW	n/a	8	2	[0, 0, 0]	n/a	catFR1	0	R1245E
579.717	1.618	586632	WORD	n/a	wordpools/wordpool_categorized_EN.txt	OAK	Trees	9	2	[0, 0, 0]	n/a	catFR1	0	R1245E
581.335	0.9	588250	WORD_OFF	n/a	n/a	OAK	n/a	9	2	[0, 0, 0]	n/a	catFR1	0	R1245E
582.235	1.616	589150	WORD	n/a	wordpools/wordpool_categorized_EN.txt	BIRCH	Trees	10	2	[0, 0, 0]	n/a	catFR1	0	R1245E
583.851	0.95	590766	WORD_OFF	n/a	n/a	BIRCH	n/a	10	2	[0, 0, 0]	n/a	catFR1	0	R1245E
584.801	1.618	591716	WORD	n/a	wordpools/wordpool_categorized_EN.txt	TRUCK	Vehicles	11	2	[0, 0, 0]	n/a	catFR1	0	R1245E
586.419	0.9	593334	WORD_OFF	n/a	n/a	TRUCK	n/a	11	2	[0, 0, 0]	n/a	catFR1	0	R1245E
587.319	1.617	594234	WORD	n/a	wordpools/wordpool_categorized_EN.txt	JEEP	Vehicles	12	2	[0, 0, 0]	n/a	catFR1	0	R1245E
588.936	0.001	595851	WORD_OFF	n/a	n/a	JEEP	n/a	12	2	[0, 0, 0]	n/a	catFR1	0	R1245E
588.937	0.132	595852	ENCODING_END	n/a	n/a	n/a	n/a	-999	2	[0, 0, 0]	n/a	catFR1	0	R1245E
589.069	0.0	595984	DISTRACT_START	n/a	n/a	n/a	n/a	-999	2	[0, 0, 0]	n/a	catFR1	0	R1245E
589.069	0.017	595984	START	n/a	n/a	n/a	n/a	-999	3	[-999, -999, -999]	n/a	catFR1	0	R1245E
589.086	4.734	596001	PROB	4.734	n/a	n/a	n/a	-999	3	[7, 4, 5]	16	catFR1	0	R1245E
593.82	8.152	600735	PROB	8.152	n/a	n/a	n/a	-999	3	[7, 8, 4]	19	catFR1	0	R1245E
601.972	8.792	608886	PROB	8.792	n/a	n/a	n/a	-999	3	[4, 9, 3]	16	catFR1	0	R1245E
610.764	0.009	617678	STOP	n/a	n/a	n/a	n/a	-999	3	[-999, -999, -999]	n/a	catFR1	0	R1245E
610.773	0.634	617687	DISTRACT_END	n/a	n/a	n/a	n/a	-999	2	[0, 0, 0]	n/a	catFR1	0	R1245E
611.407	0.518	618321	RETRIEVAL_ORIENT	n/a	n/a	n/a	n/a	-999	2	[0, 0, 0]	n/a	catFR1	0	R1245E
611.925	2.031	618839	REC_START	n/a	n/a	n/a	n/a	-999	2	[0, 0, 0]	n/a	catFR1	0	R1245E
613.956	4.628	620870	REC_WORD	4.628	n/a	JEEP	Vehicles	12	2	[0, 0, 0]	n/a	catFR1	0	R1245E
618.584	7.771	625498	REC_WORD	7.771	n/a	OAK	Trees	9	2	[0, 0, 0]	n/a	catFR1	0	R1245E
626.355	0.979	633268	REC_WORD	0.979	n/a	MOPED	Vehicles	6	2	[0, 0, 0]	n/a	catFR1	0	R1245E
627.334	14.603	634247	REC_WORD	14.603	n/a	SCOOTER	Vehicles	5	2	[0, 0, 0]	n/a	catFR1	0	R1245E
641.937	8.427	648850	REC_END	n/a	n/a	n/a	n/a	-999	2	[0, 0, 0]	n/a	catFR1	0	R1245E
650.364	0.5	657276	TRIAL	n/a	n/a	n/a	n/a	-999	3	[0, 0, 0]	n/a	catFR1	0	R1245E
650.864	10.428	657776	COUNTDOWN_START	n/a	n/a	n/a	n/a	-999	3	[0, 0, 0]	n/a	catFR1	0	R1245E
661.292	0.007	668204	COUNTDOWN_END	n/a	n/a	n/a	n/a	-999	3	[0, 0, 0]	n/a	catFR1	0	R1245E
661.299	1.617	668211	ORIENT	n/a	n/a	n/a	n/a	-999	3	[0, 0, 0]	n/a	catFR1	0	R1245E
662.916	2.267	669828	ORIENT_OFF	n/a	n/a	n/a	n/a	-999	3	[0, 0, 0]	n/a	catFR1	0	R1245E
665.183	1.616	672095	WORD	n/a	wordpools/wordpool_categorized_EN.txt	BINDER	OfficeSupplies	1	3	[0, 0, 0]	n/a	catFR1	0	R1245E
666.799	0.884	673711	WORD_OFF	n/a	n/a	BINDER	n/a	1	3	[0, 0, 0]	n/a	catFR1	0	R1245E
667.683	1.617	674595	WORD	n/a	wordpools/wordpool_categorized_EN.txt	NOTEBOOK	OfficeSupplies	2	3	[0, 0, 0]	n/a	catFR1	0	R1245E
669.3	0.817	676212	WORD_OFF	n/a	n/a	NOTEBOOK	n/a	2	3	[0, 0, 0]	n/a	catFR1	0	R1245E
670.117	1.616	677029	WORD	n/a	wordpools/wordpool_categorized_EN.txt	CALF	FarmAnimals	3	3	[0, 0, 0]	n/a	catFR1	0	R1245E
671.733	0.868	678644	WORD_OFF	n/a	n/a	CALF	n/a	3	3	[0, 0, 0]	n/a	catFR1	0	R1245E
672.601	1.617	679512	WORD	n/a	wordpools/wordpool_categorized_EN.txt	SHEEP	FarmAnimals	4	3	[0, 0, 0]	n/a	catFR1	0	R1245E
674.218	0.783	681129	WORD_OFF	n/a	n/a	SHEEP	n/a	4	3	[0, 0, 0]	n/a	catFR1	0	R1245E
675.001	1.616	681912	WORD	n/a	wordpools/wordpool_categorized_EN.txt	SUNFLOWER	Flowers	5	3	[0, 0, 0]	n/a	catFR1	0	R1245E
676.617	0.785	683528	WORD_OFF	n/a	n/a	SUNFLOWER	n/a	5	3	[0, 0, 0]	n/a	catFR1	0	R1245E
677.402	1.617	684313	WORD	n/a	wordpools/wordpool_categorized_EN.txt	LILY	Flowers	6	3	[0, 0, 0]	n/a	catFR1	0	R1245E
679.019	0.85	685930	WORD_OFF	n/a	n/a	LILY	n/a	6	3	[0, 0, 0]	n/a	catFR1	0	R1245E
679.869	1.617	686780	WORD	n/a	wordpools/wordpool_categorized_EN.txt	PIG	FarmAnimals	7	3	[0, 0, 0]	n/a	catFR1	0	R1245E
681.486	0.933	688397	WORD_OFF	n/a	n/a	PIG	n/a	7	3	[0, 0, 0]	n/a	catFR1	0	R1245E
682.419	1.617	689330	WORD	n/a	wordpools/wordpool_categorized_EN.txt	BULL	FarmAnimals	8	3	[0, 0, 0]	n/a	catFR1	0	R1245E
684.036	0.783	690947	WORD_OFF	n/a	n/a	BULL	n/a	8	3	[0, 0, 0]	n/a	catFR1	0	R1245E
684.819	1.618	691730	WORD	n/a	wordpools/wordpool_categorized_EN.txt	ERASER	OfficeSupplies	9	3	[0, 0, 0]	n/a	catFR1	0	R1245E
686.437	0.95	693348	WORD_OFF	n/a	n/a	ERASER	n/a	9	3	[0, 0, 0]	n/a	catFR1	0	R1245E
687.387	1.617	694298	WORD	n/a	wordpools/wordpool_categorized_EN.txt	PENCIL	OfficeSupplies	10	3	[0, 0, 0]	n/a	catFR1	0	R1245E
689.004	1.017	695915	WORD_OFF	n/a	n/a	PENCIL	n/a	10	3	[0, 0, 0]	n/a	catFR1	0	R1245E
690.021	1.616	696932	WORD	n/a	wordpools/wordpool_categorized_EN.txt	ROSE	Flowers	11	3	[0, 0, 0]	n/a	catFR1	0	R1245E
691.637	0.784	698548	WORD_OFF	n/a	n/a	ROSE	n/a	11	3	[0, 0, 0]	n/a	catFR1	0	R1245E
692.421	1.617	699332	WORD	n/a	wordpools/wordpool_categorized_EN.txt	TULIP	Flowers	12	3	[0, 0, 0]	n/a	catFR1	0	R1245E
694.038	0.0	700949	ENCODING_END	n/a	n/a	n/a	n/a	-999	3	[0, 0, 0]	n/a	catFR1	0	R1245E
694.038	0.131	700949	WORD_OFF	n/a	n/a	TULIP	n/a	12	3	[0, 0, 0]	n/a	catFR1	0	R1245E
694.169	0.001	701080	DISTRACT_START	n/a	n/a	n/a	n/a	-999	3	[0, 0, 0]	n/a	catFR1	0	R1245E
694.17	0.018	701081	START	n/a	n/a	n/a	n/a	-999	4	[-999, -999, -999]	n/a	catFR1	0	R1245E
694.188	4.151	701099	PROB	4.151	n/a	n/a	n/a	-999	4	[4, 3, 2]	9	catFR1	0	R1245E
698.339	4.167	705249	PROB	4.167	n/a	n/a	n/a	-999	4	[8, 3, 5]	16	catFR1	0	R1245E
702.506	4.984	709416	PROB	4.984	n/a	n/a	n/a	-999	4	[2, 4, 9]	15	catFR1	0	R1245E
707.49	4.267	714400	PROB	4.267	n/a	n/a	n/a	-999	4	[5, 1, 3]	9	catFR1	0	R1245E
711.757	4.196	718667	PROB	4.196	n/a	n/a	n/a	-999	4	[1, 8, 2]	11	catFR1	0	R1245E
715.953	0.006	722863	STOP	n/a	n/a	n/a	n/a	-999	4	[-999, -999, -999]	n/a	catFR1	0	R1245E
715.959	0.65	722869	DISTRACT_END	n/a	n/a	n/a	n/a	-999	3	[0, 0, 0]	n/a	catFR1	0	R1245E
716.609	0.517	723519	RETRIEVAL_ORIENT	n/a	n/a	n/a	n/a	-999	3	[0, 0, 0]	n/a	catFR1	0	R1245E
717.126	2.881	724036	REC_START	n/a	n/a	n/a	n/a	-999	3	[0, 0, 0]	n/a	catFR1	0	R1245E
720.007	2.97	726916	REC_WORD_VV	2.97	n/a	<>	n/a	-999	3	[0, 0, 0]	n/a	catFR1	0	R1245E
722.977	0.724	729886	REC_WORD	0.724	n/a	TULIP	Flowers	12	3	[0, 0, 0]	n/a	catFR1	0	R1245E
723.701	12.884	730610	REC_WORD	12.884	n/a	ROSE	Flowers	11	3	[0, 0, 0]	n/a	catFR1	0	R1245E
736.585	10.554	743494	REC_WORD	10.554	n/a	DAISY	n/a	-999	3	[0, 0, 0]	n/a	catFR1	0	R1245E
747.139	6.492	754047	REC_END	n/a	n/a	n/a	n/a	-999	3	[0, 0, 0]	n/a	catFR1	0	R1245E
753.631	0.5	760539	TRIAL	n/a	n/a	n/a	n/a	-999	4	[0, 0, 0]	n/a	catFR1	0	R1245E
754.131	10.428	761039	COUNTDOWN_START	n/a	n/a	n/a	n/a	-999	4	[0, 0, 0]	n/a	catFR1	0	R1245E
764.559	0.008	771467	COUNTDOWN_END	n/a	n/a	n/a	n/a	-999	4	[0, 0, 0]	n/a	catFR1	0	R1245E
764.567	1.617	771475	ORIENT	n/a	n/a	n/a	n/a	-999	4	[0, 0, 0]	n/a	catFR1	0	R1245E
766.184	2.134	773092	ORIENT_OFF	n/a	n/a	n/a	n/a	-999	4	[0, 0, 0]	n/a	catFR1	0	R1245E
768.318	1.617	775225	WORD	n/a	wordpools/wordpool_categorized_EN.txt	EYE	BodyParts	1	4	[0, 0, 0]	n/a	catFR1	0	R1245E
769.935	0.866	776842	WORD_OFF	n/a	n/a	EYE	n/a	1	4	[0, 0, 0]	n/a	catFR1	0	R1245E
770.801	1.618	777708	WORD	n/a	wordpools/wordpool_categorized_EN.txt	ARM	BodyParts	2	4	[0, 0, 0]	n/a	catFR1	0	R1245E
772.419	0.85	779326	WORD_OFF	n/a	n/a	ARM	n/a	2	4	[0, 0, 0]	n/a	catFR1	0	R1245E
773.269	1.617	780176	WORD	n/a	wordpools/wordpool_categorized_EN.txt	WOODS	Landscapes	3	4	[0, 0, 0]	n/a	catFR1	0	R1245E
774.886	0.849	781793	WORD_OFF	n/a	n/a	WOODS	n/a	3	4	[0, 0, 0]	n/a	catFR1	0	R1245E
775.735	1.618	782642	WORD	n/a	wordpools/wordpool_categorized_EN.txt	HILLS	Landscapes	4	4	[0, 0, 0]	n/a	catFR1	0	R1245E
777.353	0.883	784260	WORD_OFF	n/a	n/a	HILLS	n/a	4	4	[0, 0, 0]	n/a	catFR1	0	R1245E
778.236	1.616	785143	WORD	n/a	wordpools/wordpool_categorized_EN.txt	WALNUT	Trees	5	4	[0, 0, 0]	n/a	catFR1	0	R1245E
779.852	0.9	786759	WORD_OFF	n/a	n/a	WALNUT	n/a	5	4	[0, 0, 0]	n/a	catFR1	0	R1245E
780.752	1.618	787659	WORD	n/a	wordpools/wordpool_categorized_EN.txt	EVERGREEN	Trees	6	4	[0, 0, 0]	n/a	catFR1	0	R1245E
782.37	0.834	789277	WORD_OFF	n/a	n/a	EVERGREEN	n/a	6	4	[0, 0, 0]	n/a	catFR1	0	R1245E
783.204	1.616	790111	WORD	n/a	wordpools/wordpool_categorized_EN.txt	MOUNTAIN	Landscapes	7	4	[0, 0, 0]	n/a	catFR1	0	R1245E
784.82	0.883	791727	WORD_OFF	n/a	n/a	MOUNTAIN	n/a	7	4	[0, 0, 0]	n/a	catFR1	0	R1245E
785.703	1.618	792610	WORD	n/a	wordpools/wordpool_categorized_EN.txt	STREAM	Landscapes	8	4	[0, 0, 0]	n/a	catFR1	0	R1245E
787.321	0.767	794228	WORD_OFF	n/a	n/a	STREAM	n/a	8	4	[0, 0, 0]	n/a	catFR1	0	R1245E
788.088	1.616	794995	WORD	n/a	wordpools/wordpool_categorized_EN.txt	KNEE	BodyParts	9	4	[0, 0, 0]	n/a	catFR1	0	R1245E
789.704	0.834	796611	WORD_OFF	n/a	n/a	KNEE	n/a	9	4	[0, 0, 0]	n/a	catFR1	0	R1245E
790.538	1.617	797445	WORD	n/a	wordpools/wordpool_categorized_EN.txt	EAR	BodyParts	10	4	[0, 0, 0]	n/a	catFR1	0	R1245E
792.155	0.967	799061	WORD_OFF	n/a	n/a	EAR	n/a	10	4	[0, 0, 0]	n/a	catFR1	0	R1245E
793.122	1.616	800028	WORD	n/a	wordpools/wordpool_categorized_EN.txt	WILLOW	Trees	11	4	[0, 0, 0]	n/a	catFR1	0	R1245E
794.738	0.917	801644	WORD_OFF	n/a	n/a	WILLOW	n/a	11	4	[0, 0, 0]	n/a	catFR1	0	R1245E
795.655	1.618	802561	WORD	n/a	wordpools/wordpool_categorized_EN.txt	MAPLE	Trees	12	4	[0, 0, 0]	n/a	catFR1	0	R1245E
797.273	0.0	804179	ENCODING_END	n/a	n/a	n/a	n/a	-999	4	[0, 0, 0]	n/a	catFR1	0	R1245E
797.273	0.169	804179	WORD_OFF	n/a	n/a	MAPLE	n/a	12	4	[0, 0, 0]	n/a	catFR1	0	R1245E
797.442	0.001	804348	DISTRACT_START	n/a	n/a	n/a	n/a	-999	4	[0, 0, 0]	n/a	catFR1	0	R1245E
797.443	0.013	804349	START	n/a	n/a	n/a	n/a	-999	5	[-999, -999, -999]	n/a	catFR1	0	R1245E
797.456	3.418	804362	PROB	3.418	n/a	n/a	n/a	-999	5	[4, 3, 6]	13	catFR1	0	R1245E
800.874	4.217	807780	PROB	4.217	n/a	n/a	n/a	-999	5	[6, 7, 6]	19	catFR1	0	R1245E
805.091	4.401	811997	PROB	4.401	n/a	n/a	n/a	-999	5	[1, 7, 5]	13	catFR1	0	R1245E
809.492	3.667	816398	PROB	3.667	n/a	n/a	n/a	-999	5	[2, 3, 9]	14	catFR1	0	R1245E
813.159	6.468	820065	PROB	6.468	n/a	n/a	n/a	-999	5	[9, 2, 8]	19	catFR1	0	R1245E
819.627	0.016	826532	STOP	n/a	n/a	n/a	n/a	-999	5	[-999, -999, -999]	n/a	catFR1	0	R1245E
819.643	0.634	826548	DISTRACT_END	n/a	n/a	n/a	n/a	-999	4	[0, 0, 0]	n/a	catFR1	0	R1245E
820.277	0.517	827182	RETRIEVAL_ORIENT	n/a	n/a	n/a	n/a	-999	4	[0, 0, 0]	n/a	catFR1	0	R1245E
820.794	2.615	827699	REC_START	n/a	n/a	n/a	n/a	-999	4	[0, 0, 0]	n/a	catFR1	0	R1245E
823.409	0.922	830314	REC_WORD	0.922	n/a	EYE	BodyParts	1	4	[0, 0, 0]	n/a	catFR1	0	R1245E
824.331	1.764	831236	REC_WORD	1.764	n/a	KNEE	BodyParts	9	4	[0, 0, 0]	n/a	catFR1	0	R1245E
826.095	4.843	833000	REC_WORD_VV	4.843	n/a	<>	n/a	-999	4	[0, 0, 0]	n/a	catFR1	0	R1245E
830.938	8.777	837843	REC_WORD	8.777	n/a	WILLOW	Trees	11	4	[0, 0, 0]	n/a	catFR1	0	R1245E
839.715	6.198	846620	REC_WORD_VV	6.198	n/a	<>	n/a	-999	4	[0, 0, 0]	n/a	catFR1	0	R1245E
845.913	4.891	852817	REC_WORD	4.891	n/a	MAPLE	Trees	12	4	[0, 0, 0]	n/a	catFR1	0	R1245E
850.804	19.198	857708	REC_END	n/a	n/a	n/a	n/a	-999	4	[0, 0, 0]	n/a	catFR1	0	R1245E
870.002	0.5	876905	TRIAL	n/a	n/a	n/a	n/a	-999	5	[0, 0, 0]	n/a	catFR1	0	R1245E
870.502	10.428	877405	COUNTDOWN_START	n/a	n/a	n/a	n/a	-999	5	[0, 0, 0]	n/a	catFR1	0	R1245E
880.93	0.008	887833	COUNTDOWN_END	n/a	n/a	n/a	n/a	-999	5	[0, 0, 0]	n/a	catFR1	0	R1245E
880.938	1.617	887841	ORIENT	n/a	n/a	n/a	n/a	-999	5	[0, 0, 0]	n/a	catFR1	0	R1245E
882.555	2.066	889458	ORIENT_OFF	n/a	n/a	n/a	n/a	-999	5	[0, 0, 0]	n/a	catFR1	0	R1245E
884.621	1.618	891524	WORD	n/a	wordpools/wordpool_categorized_EN.txt	FINGERS	BodyParts	1	5	[0, 0, 0]	n/a	catFR1	0	R1245E
886.239	0.966	893142	WORD_OFF	n/a	n/a	FINGERS	n/a	1	5	[0, 0, 0]	n/a	catFR1	0	R1245E
887.205	1.616	894108	WORD	n/a	wordpools/wordpool_categorized_EN.txt	NOSE	BodyParts	2	5	[0, 0, 0]	n/a	catFR1	0	R1245E
888.821	0.817	895723	WORD_OFF	n/a	n/a	NOSE	n/a	2	5	[0, 0, 0]	n/a	catFR1	0	R1245E
889.638	1.618	896540	WORD	n/a	wordpools/wordpool_categorized_EN.txt	CORN	Vegetables	3	5	[0, 0, 0]	n/a	catFR1	0	R1245E
891.256	0.85	898158	WORD_OFF	n/a	n/a	CORN	n/a	3	5	[0, 0, 0]	n/a	catFR1	0	R1245E
892.106	1.616	899008	WORD	n/a	wordpools/wordpool_categorized_EN.txt	SPINACH	Vegetables	4	5	[0, 0, 0]	n/a	catFR1	0	R1245E
893.722	1.017	900624	WORD_OFF	n/a	n/a	SPINACH	n/a	4	5	[0, 0, 0]	n/a	catFR1	0	R1245E
894.739	1.618	901641	WORD	n/a	wordpools/wordpool_categorized_EN.txt	CEILING	Building	5	5	[0, 0, 0]	n/a	catFR1	0	R1245E
896.357	0.967	903259	WORD_OFF	n/a	n/a	CEILING	n/a	5	5	[0, 0, 0]	n/a	catFR1	0	R1245E
897.324	1.617	904226	WORD	n/a	wordpools/wordpool_categorized_EN.txt	BATHROOM	Building	6	5	[0, 0, 0]	n/a	catFR1	0	R1245E
898.941	0.816	905843	WORD_OFF	n/a	n/a	BATHROOM	n/a	6	5	[0, 0, 0]	n/a	catFR1	0	R1245E
899.757	1.618	906659	WORD	n/a	wordpools/wordpool_categorized_EN.txt	HEAD	BodyParts	7	5	[0, 0, 0]	n/a	catFR1	0	R1245E
901.375	0.983	908277	WORD_OFF	n/a	n/a	HEAD	n/a	7	5	[0, 0, 0]	n/a	catFR1	0	R1245E
902.358	1.617	909260	WORD	n/a	wordpools/wordpool_categorized_EN.txt	TOE	BodyParts	8	5	[0, 0, 0]	n/a	catFR1	0	R1245E
903.975	0.799	910877	WORD_OFF	n/a	n/a	TOE	n/a	8	5	[0, 0, 0]	n/a	catFR1	0	R1245E
904.774	1.618	911676	WORD	n/a	wordpools/wordpool_categorized_EN.txt	BROCCOLI	Vegetables	9	5	[0, 0, 0]	n/a	catFR1	0	R1245E
906.392	0.784	913294	WORD_OFF	n/a	n/a	BROCCOLI	n/a	9	5	[0, 0, 0]	n/a	catFR1	0	R1245E
907.176	1.615	914078	WORD	n/a	wordpools/wordpool_categorized_EN.txt	POTATO	Vegetables	10	5	[0, 0, 0]	n/a	catFR1	0	R1245E
908.791	0.884	915693	WORD_OFF	n/a	n/a	POTATO	n/a	10	5	[0, 0, 0]	n/a	catFR1	0	R1245E
909.675	1.618	916577	WORD	n/a	wordpools/wordpool_categorized_EN.txt	FLOOR	Building	11	5	[0, 0, 0]	n/a	catFR1	0	R1245E
911.293	0.9	918195	WORD_OFF	n/a	n/a	FLOOR	n/a	11	5	[0, 0, 0]	n/a	catFR1	0	R1245E
912.193	1.616	919094	WORD	n/a	wordpools/wordpool_categorized_EN.txt	DOOR	Building	12	5	[0, 0, 0]	n/a	catFR1	0	R1245E
913.809	0.0	920710	ENCODING_END	n/a	n/a	n/a	n/a	-999	5	[0, 0, 0]	n/a	catFR1	0	R1245E
913.809	0.133	920710	WORD_OFF	n/a	n/a	DOOR	n/a	12	5	[0, 0, 0]	n/a	catFR1	0	R1245E
913.942	0.0	920843	DISTRACT_START	n/a	n/a	n/a	n/a	-999	5	[0, 0, 0]	n/a	catFR1	0	R1245E
913.942	0.018	920843	START	n/a	n/a	n/a	n/a	-999	6	[-999, -999, -999]	n/a	catFR1	0	R1245E
913.96	7.867	920861	PROB	7.867	n/a	n/a	n/a	-999	6	[8, 7, 6]	21	catFR1	0	R1245E
921.827	5.552	928728	PROB	5.552	n/a	n/a	n/a	-999	6	[4, 9, 1]	14	catFR1	0	R1245E
927.379	3.266	934280	PROB	3.266	n/a	n/a	n/a	-999	6	[9, 3, 1]	13	catFR1	0	R1245E
930.645	3.421	937546	PROB	3.421	n/a	n/a	n/a	-999	6	[2, 5, 4]	11	catFR1	0	R1245E
934.066	0.015	940967	STOP	n/a	n/a	n/a	n/a	-999	6	[-999, -999, -999]	n/a	catFR1	0	R1245E
934.081	0.698	940982	DISTRACT_END	n/a	n/a	n/a	n/a	-999	5	[0, 0, 0]	n/a	catFR1	0	R1245E
934.779	0.519	941680	RETRIEVAL_ORIENT	n/a	n/a	n/a	n/a	-999	5	[0, 0, 0]	n/a	catFR1	0	R1245E
935.298	1.83	942199	REC_START	n/a	n/a	n/a	n/a	-999	5	[0, 0, 0]	n/a	catFR1	0	R1245E
937.128	0.998	944028	REC_WORD	0.998	n/a	FINGERS	BodyParts	1	5	[0, 0, 0]	n/a	catFR1	0	R1245E
938.126	1.111	945026	REC_WORD	1.111	n/a	NOSE	BodyParts	2	5	[0, 0, 0]	n/a	catFR1	0	R1245E
939.237	2.15	946137	REC_WORD	2.15	n/a	TOE	BodyParts	8	5	[0, 0, 0]	n/a	catFR1	0	R1245E
941.387	4.27	948287	REC_WORD	4.27	n/a	HEAD	BodyParts	7	5	[0, 0, 0]	n/a	catFR1	0	R1245E
945.657	3.895	952557	REC_WORD	3.895	n/a	DOOR	Building	12	5	[0, 0, 0]	n/a	catFR1	0	R1245E
949.552	2.155	956452	REC_WORD	2.155	n/a	CORN	Vegetables	3	5	[0, 0, 0]	n/a	catFR1	0	R1245E
951.707	9.4	958607	REC_WORD_VV	9.4	n/a	<>	n/a	-999	5	[0, 0, 0]	n/a	catFR1	0	R1245E
961.107	4.201	968006	REC_WORD	4.201	n/a	SPINACH	Vegetables	4	5	[0, 0, 0]	n/a	catFR1	0	R1245E
965.308	11.98	972207	REC_END	n/a	n/a	n/a	n/a	-999	5	[0, 0, 0]	n/a	catFR1	0	R1245E
977.288	0.5	984187	TRIAL	n/a	n/a	n/a	n/a	-999	6	[0, 0, 0]	n/a	catFR1	0	R1245E
977.788	10.428	984687	COUNTDOWN_START	n/a	n/a	n/a	n/a	-999	6	[0, 0, 0]	n/a	catFR1	0	R1245E
988.216	0.007	995114	COUNTDOWN_END	n/a	n/a	n/a	n/a	-999	6	[0, 0, 0]	n/a	catFR1	0	R1245E
988.223	1.616	995121	ORIENT	n/a	n/a	n/a	n/a	-999	6	[0, 0, 0]	n/a	catFR1	0	R1245E
989.839	2.168	996737	ORIENT_OFF	n/a	n/a	n/a	n/a	-999	6	[0, 0, 0]	n/a	catFR1	0	R1245E
992.007	1.616	998905	WORD	n/a	wordpools/wordpool_categorized_EN.txt	VALLEY	Landscapes	1	6	[0, 0, 0]	n/a	catFR1	0	R1245E
993.623	0.835	1000521	WORD_OFF	n/a	n/a	VALLEY	n/a	1	6	[0, 0, 0]	n/a	catFR1	0	R1245E
994.458	1.617	1001356	WORD	n/a	wordpools/wordpool_categorized_EN.txt	OCEAN	Landscapes	2	6	[0, 0, 0]	n/a	catFR1	0	R1245E
996.075	0.9	1002973	WORD_OFF	n/a	n/a	OCEAN	n/a	2	6	[0, 0, 0]	n/a	catFR1	0	R1245E
996.975	1.616	1003873	WORD	n/a	wordpools/wordpool_categorized_EN.txt	LAMB	FarmAnimals	3	6	[0, 0, 0]	n/a	catFR1	0	R1245E
998.591	0.901	1005489	WORD_OFF	n/a	n/a	LAMB	n/a	3	6	[0, 0, 0]	n/a	catFR1	0	R1245E
999.492	1.617	1006390	WORD	n/a	wordpools/wordpool_categorized_EN.txt	GOAT	FarmAnimals	4	6	[0, 0, 0]	n/a	catFR1	0	R1245E
1001.109	0.917	1008007	WORD_OFF	n/a	n/a	GOAT	n/a	4	6	[0, 0, 0]	n/a	catFR1	0	R1245E
1002.026	1.615	1008924	WORD	n/a	wordpools/wordpool_categorized_EN.txt	BROWNIES	Desserts	5	6	[0, 0, 0]	n/a	catFR1	0	R1245E
1003.641	0.785	1010539	WORD_OFF	n/a	n/a	BROWNIES	n/a	5	6	[0, 0, 0]	n/a	catFR1	0	R1245E
1004.426	1.617	1011324	WORD	n/a	wordpools/wordpool_categorized_EN.txt	CAKE	Desserts	6	6	[0, 0, 0]	n/a	catFR1	0	R1245E
1006.043	0.867	1012941	WORD_OFF	n/a	n/a	CAKE	n/a	6	6	[0, 0, 0]	n/a	catFR1	0	R1245E
1006.91	1.617	1013808	WORD	n/a	wordpools/wordpool_categorized_EN.txt	CHICKEN	FarmAnimals	7	6	[0, 0, 0]	n/a	catFR1	0	R1245E
1008.527	0.967	1015424	WORD_OFF	n/a	n/a	CHICKEN	n/a	7	6	[0, 0, 0]	n/a	catFR1	0	R1245E
1009.494	1.616	1016391	WORD	n/a	wordpools/wordpool_categorized_EN.txt	HORSE	FarmAnimals	8	6	[0, 0, 0]	n/a	catFR1	0	R1245E
1011.11	1.001	1018007	WORD_OFF	n/a	n/a	HORSE	n/a	8	6	[0, 0, 0]	n/a	catFR1	0	R1245E
1012.111	1.616	1019008	WORD	n/a	wordpools/wordpool_categorized_EN.txt	RIVER	Landscapes	9	6	[0, 0, 0]	n/a	catFR1	0	R1245E
1013.727	0.851	1020624	WORD_OFF	n/a	n/a	RIVER	n/a	9	6	[0, 0, 0]	n/a	catFR1	0	R1245E
1014.578	1.617	1021475	WORD	n/a	wordpools/wordpool_categorized_EN.txt	CREEK	Landscapes	10	6	[0, 0, 0]	n/a	catFR1	0	R1245E
1016.195	0.817	1023092	WORD_OFF	n/a	n/a	CREEK	n/a	10	6	[0, 0, 0]	n/a	catFR1	0	R1245E
1017.012	1.615	1023909	WORD	n/a	wordpools/wordpool_categorized_EN.txt	JELLO	Desserts	11	6	[0, 0, 0]	n/a	catFR1	0	R1245E
1018.627	0.835	1025524	WORD_OFF	n/a	n/a	JELLO	n/a	11	6	[0, 0, 0]	n/a	catFR1	0	R1245E
1019.462	1.617	1026359	WORD	n/a	wordpools/wordpool_categorized_EN.txt	PIE	Desserts	12	6	[0, 0, 0]	n/a	catFR1	0	R1245E
1021.079	0.0	1027976	ENCODING_END	n/a	n/a	n/a	n/a	-999	6	[0, 0, 0]	n/a	catFR1	0	R1245E
1021.079	0.132	1027976	WORD_OFF	n/a	n/a	PIE	n/a	12	6	[0, 0, 0]	n/a	catFR1	0	R1245E
1021.211	0.0	1028108	DISTRACT_START	n/a	n/a	n/a	n/a	-999	6	[0, 0, 0]	n/a	catFR1	0	R1245E
1021.211	0.018	1028108	START	n/a	n/a	n/a	n/a	-999	7	[-999, -999, -999]	n/a	catFR1	0	R1245E
1021.229	4.801	1028126	PROB	4.801	n/a	n/a	n/a	-999	7	[9, 6, 1]	16	catFR1	0	R1245E
1026.03	6.551	1032927	PROB	6.551	n/a	n/a	n/a	-999	7	[5, 1, 5]	11	catFR1	0	R1245E
1032.581	4.334	1039477	PROB	4.334	n/a	n/a	n/a	-999	7	[7, 2, 4]	13	catFR1	0	R1245E
1036.915	5.304	1043811	PROB	5.304	n/a	n/a	n/a	-999	7	[7, 6, 2]	15	catFR1	0	R1245E
1042.219	0.014	1049115	STOP	n/a	n/a	n/a	n/a	-999	7	[-999, -999, -999]	n/a	catFR1	0	R1245E
1042.233	0.599	1049129	DISTRACT_END	n/a	n/a	n/a	n/a	-999	6	[0, 0, 0]	n/a	catFR1	0	R1245E
1042.832	0.518	1049728	RETRIEVAL_ORIENT	n/a	n/a	n/a	n/a	-999	6	[0, 0, 0]	n/a	catFR1	0	R1245E
1043.35	2.27	1050246	REC_START	n/a	n/a	n/a	n/a	-999	6	[0, 0, 0]	n/a	catFR1	0	R1245E
1045.62	0.697	1052516	REC_WORD	0.697	n/a	VALLEY	Landscapes	1	6	[0, 0, 0]	n/a	catFR1	0	R1245E
1046.317	2.132	1053213	REC_WORD	2.132	n/a	OCEAN	Landscapes	2	6	[0, 0, 0]	n/a	catFR1	0	R1245E
1048.449	2.035	1055345	REC_WORD	2.035	n/a	CREEK	Landscapes	10	6	[0, 0, 0]	n/a	catFR1	0	R1245E
1050.484	4.885	1057380	REC_WORD	4.885	n/a	BROWNIES	Desserts	5	6	[0, 0, 0]	n/a	catFR1	0	R1245E
1055.369	0.613	1062265	REC_WORD	0.613	n/a	PIE	Desserts	12	6	[0, 0, 0]	n/a	catFR1	0	R1245E
1055.982	17.38	1062878	REC_WORD	17.38	n/a	CAKE	Desserts	6	6	[0, 0, 0]	n/a	catFR1	0	R1245E
1073.362	7.744	1080257	REC_END	n/a	n/a	n/a	n/a	-999	6	[0, 0, 0]	n/a	catFR1	0	R1245E
1081.106	0.5	1088000	TRIAL	n/a	n/a	n/a	n/a	-999	7	[0, 0, 0]	n/a	catFR1	0	R1245E
1081.606	10.428	1088500	COUNTDOWN_START	n/a	n/a	n/a	n/a	-999	7	[0, 0, 0]	n/a	catFR1	0	R1245E
1092.034	0.007	1098928	COUNTDOWN_END	n/a	n/a	n/a	n/a	-999	7	[0, 0, 0]	n/a	catFR1	0	R1245E
1092.041	1.616	1098935	ORIENT	n/a	n/a	n/a	n/a	-999	7	[0, 0, 0]	n/a	catFR1	0	R1245E
1093.657	2.218	1100551	ORIENT_OFF	n/a	n/a	n/a	n/a	-999	7	[0, 0, 0]	n/a	catFR1	0	R1245E
1095.875	1.617	1102769	WORD	n/a	wordpools/wordpool_categorized_EN.txt	TIGER	Zoo	1	7	[0, 0, 0]	n/a	catFR1	0	R1245E
1097.492	1.001	1104386	WORD_OFF	n/a	n/a	TIGER	n/a	1	7	[0, 0, 0]	n/a	catFR1	0	R1245E
1098.493	1.617	1105387	WORD	n/a	wordpools/wordpool_categorized_EN.txt	ORANGUTAN	Zoo	2	7	[0, 0, 0]	n/a	catFR1	0	R1245E
1100.11	0.9	1107004	WORD_OFF	n/a	n/a	ORANGUTAN	n/a	2	7	[0, 0, 0]	n/a	catFR1	0	R1245E
1101.01	1.616	1107904	WORD	n/a	wordpools/wordpool_categorized_EN.txt	GLUE	OfficeSupplies	3	7	[0, 0, 0]	n/a	catFR1	0	R1245E
1102.626	0.867	1109520	WORD_OFF	n/a	n/a	GLUE	n/a	3	7	[0, 0, 0]	n/a	catFR1	0	R1245E
1103.493	1.617	1110387	WORD	n/a	wordpools/wordpool_categorized_EN.txt	FOLDER	OfficeSupplies	4	7	[0, 0, 0]	n/a	catFR1	0	R1245E
1105.11	1.001	1112003	WORD_OFF	n/a	n/a	FOLDER	n/a	4	7	[0, 0, 0]	n/a	catFR1	0	R1245E
1106.111	1.616	1113004	WORD	n/a	wordpools/wordpool_categorized_EN.txt	STRAINER	KitchenTools	5	7	[0, 0, 0]	n/a	catFR1	0	R1245E
1107.727	0.916	1114620	WORD_OFF	n/a	n/a	STRAINER	n/a	5	7	[0, 0, 0]	n/a	catFR1	0	R1245E
1108.643	1.618	1115536	WORD	n/a	wordpools/wordpool_categorized_EN.txt	WHISK	KitchenTools	6	7	[0, 0, 0]	n/a	catFR1	0	R1245E
1110.261	0.85	1117154	WORD_OFF	n/a	n/a	WHISK	n/a	6	7	[0, 0, 0]	n/a	catFR1	0	R1245E
1111.111	1.616	1118004	WORD	n/a	wordpools/wordpool_categorized_EN.txt	TAPE	OfficeSupplies	7	7	[0, 0, 0]	n/a	catFR1	0	R1245E
1112.727	0.967	1119620	WORD_OFF	n/a	n/a	TAPE	n/a	7	7	[0, 0, 0]	n/a	catFR1	0	R1245E
1113.694	1.601	1120587	WORD	n/a	wordpools/wordpool_categorized_EN.txt	PEN	OfficeSupplies	8	7	[0, 0, 0]	n/a	catFR1	0	R1245E
1115.295	0.884	1122188	WORD_OFF	n/a	n/a	PEN	n/a	8	7	[0, 0, 0]	n/a	catFR1	0	R1245E
1116.179	1.616	1123072	WORD	n/a	wordpools/wordpool_categorized_EN.txt	MONKEY	Zoo	9	7	[0, 0, 0]	n/a	catFR1	0	R1245E
1117.795	0.85	1124688	WORD_OFF	n/a	n/a	MONKEY	n/a	9	7	[0, 0, 0]	n/a	catFR1	0	R1245E
1118.645	1.618	1125538	WORD	n/a	wordpools/wordpool_categorized_EN.txt	LION	Zoo	10	7	[0, 0, 0]	n/a	catFR1	0	R1245E
1120.263	0.917	1127156	WORD_OFF	n/a	n/a	LION	n/a	10	7	[0, 0, 0]	n/a	catFR1	0	R1245E
1121.18	1.616	1128073	WORD	n/a	wordpools/wordpool_categorized_EN.txt	GRATER	KitchenTools	11	7	[0, 0, 0]	n/a	catFR1	0	R1245E
1122.796	0.801	1129689	WORD_OFF	n/a	n/a	GRATER	n/a	11	7	[0, 0, 0]	n/a	catFR1	0	R1245E
1123.597	1.617	1130490	WORD	n/a	wordpools/wordpool_categorized_EN.txt	FORK	KitchenTools	12	7	[0, 0, 0]	n/a	catFR1	0	R1245E
1125.214	0.0	1132107	ENCODING_END	n/a	n/a	n/a	n/a	-999	7	[0, 0, 0]	n/a	catFR1	0	R1245E
1125.214	0.167	1132107	WORD_OFF	n/a	n/a	FORK	n/a	12	7	[0, 0, 0]	n/a	catFR1	0	R1245E
1125.381	0.001	1132274	DISTRACT_START	n/a	n/a	n/a	n/a	-999	7	[0, 0, 0]	n/a	catFR1	0	R1245E
1125.382	0.015	1132275	START	n/a	n/a	n/a	n/a	-999	8	[-999, -999, -999]	n/a	catFR1	0	R1245E
1125.397	5.901	1132290	PROB	5.901	n/a	n/a	n/a	-999	8	[1, 3, 1]	5	catFR1	0	R1245E
1131.298	7.618	1138190	PROB	7.618	n/a	n/a	n/a	-999	8	[9, 9, 8]	26	catFR1	0	R1245E
1138.916	9.278	1145808	PROB	9.278	n/a	n/a	n/a	-999	8	[6, 8, 8]	24	catFR1	0	R1245E
1148.194	0.007	1155086	STOP	n/a	n/a	n/a	n/a	-999	8	[-999, -999, -999]	n/a	catFR1	0	R1245E
1148.201	0.7	1155093	DISTRACT_END	n/a	n/a	n/a	n/a	-999	7	[0, 0, 0]	n/a	catFR1	0	R1245E
1148.901	0.518	1155793	RETRIEVAL_ORIENT	n/a	n/a	n/a	n/a	-999	7	[0, 0, 0]	n/a	catFR1	0	R1245E
1149.419	3.846	1156311	REC_START	n/a	n/a	n/a	n/a	-999	7	[0, 0, 0]	n/a	catFR1	0	R1245E
1153.265	0.952	1160156	REC_WORD	0.952	n/a	LION	Zoo	10	7	[0, 0, 0]	n/a	catFR1	0	R1245E
1154.217	2.57	1161108	REC_WORD	2.57	n/a	TIGER	Zoo	1	7	[0, 0, 0]	n/a	catFR1	0	R1245E
1156.787	1.586	1163678	REC_WORD	1.586	n/a	ORANGUTAN	Zoo	2	7	[0, 0, 0]	n/a	catFR1	0	R1245E
1158.373	9.977	1165264	REC_WORD	9.977	n/a	GLUE	OfficeSupplies	3	7	[0, 0, 0]	n/a	catFR1	0	R1245E
1168.35	1.3	1175241	REC_WORD	1.3	n/a	FOLDER	OfficeSupplies	4	7	[0, 0, 0]	n/a	catFR1	0	R1245E
1169.65	4.27	1176541	REC_WORD	4.27	n/a	WHISK	KitchenTools	6	7	[0, 0, 0]	n/a	catFR1	0	R1245E
1173.92	4.517	1180811	REC_WORD_VV	4.517	n/a	<>	n/a	-999	7	[0, 0, 0]	n/a	catFR1	0	R1245E
1178.437	0.994	1185327	REC_WORD	0.994	n/a	STRAINER	KitchenTools	5	7	[0, 0, 0]	n/a	catFR1	0	R1245E
1179.431	19.029	1186321	REC_END	n/a	n/a	n/a	n/a	-999	7	[0, 0, 0]	n/a	catFR1	0	R1245E
1198.46	0.5	1205350	TRIAL	n/a	n/a	n/a	n/a	-999	8	[0, 0, 0]	n/a	catFR1	0	R1245E
1198.96	10.428	1205850	COUNTDOWN_START	n/a	n/a	n/a	n/a	-999	8	[0, 0, 0]	n/a	catFR1	0	R1245E
1209.388	0.007	1216277	COUNTDOWN_END	n/a	n/a	n/a	n/a	-999	8	[0, 0, 0]	n/a	catFR1	0	R1245E
1209.395	1.617	1216284	ORIENT	n/a	n/a	n/a	n/a	-999	8	[0, 0, 0]	n/a	catFR1	0	R1245E
1211.012	1.917	1217901	ORIENT_OFF	n/a	n/a	n/a	n/a	-999	8	[0, 0, 0]	n/a	catFR1	0	R1245E
1212.929	1.617	1219818	WORD	n/a	wordpools/wordpool_categorized_EN.txt	SHOES	Clothing	1	8	[0, 0, 0]	n/a	catFR1	0	R1245E
1214.546	0.934	1221435	WORD_OFF	n/a	n/a	SHOES	n/a	1	8	[0, 0, 0]	n/a	catFR1	0	R1245E
1215.48	1.617	1222369	WORD	n/a	wordpools/wordpool_categorized_EN.txt	DRESS	Clothing	2	8	[0, 0, 0]	n/a	catFR1	0	R1245E
1217.097	0.95	1223986	WORD_OFF	n/a	n/a	DRESS	n/a	2	8	[0, 0, 0]	n/a	catFR1	0	R1245E
1218.047	1.616	1224936	WORD	n/a	wordpools/wordpool_categorized_EN.txt	ROOSTER	FarmAnimals	3	8	[0, 0, 0]	n/a	catFR1	0	R1245E
1219.663	0.901	1226552	WORD_OFF	n/a	n/a	ROOSTER	n/a	3	8	[0, 0, 0]	n/a	catFR1	0	R1245E
1220.564	1.617	1227453	WORD	n/a	wordpools/wordpool_categorized_EN.txt	TURKEY	FarmAnimals	4	8	[0, 0, 0]	n/a	catFR1	0	R1245E
1222.181	0.933	1229070	WORD_OFF	n/a	n/a	TURKEY	n/a	4	8	[0, 0, 0]	n/a	catFR1	0	R1245E
1223.114	1.616	1230003	WORD	n/a	wordpools/wordpool_categorized_EN.txt	CROWBAR	Tools	5	8	[0, 0, 0]	n/a	catFR1	0	R1245E
1224.73	0.785	1231619	WORD_OFF	n/a	n/a	CROWBAR	n/a	5	8	[0, 0, 0]	n/a	catFR1	0	R1245E
1225.515	1.617	1232403	WORD	n/a	wordpools/wordpool_categorized_EN.txt	SANDER	Tools	6	8	[0, 0, 0]	n/a	catFR1	0	R1245E
1227.132	0.917	1234020	WORD_OFF	n/a	n/a	SANDER	n/a	6	8	[0, 0, 0]	n/a	catFR1	0	R1245E
1228.049	1.616	1234937	WORD	n/a	wordpools/wordpool_categorized_EN.txt	COAT	Clothing	7	8	[0, 0, 0]	n/a	catFR1	0	R1245E
1229.665	0.917	1236553	WORD_OFF	n/a	n/a	COAT	n/a	7	8	[0, 0, 0]	n/a	catFR1	0	R1245E
1230.582	1.617	1237470	WORD	n/a	wordpools/wordpool_categorized_EN.txt	SHORTS	Clothing	8	8	[0, 0, 0]	n/a	catFR1	0	R1245E
1232.199	0.884	1239087	WORD_OFF	n/a	n/a	SHORTS	n/a	8	8	[0, 0, 0]	n/a	catFR1	0	R1245E
1233.083	1.616	1239971	WORD	n/a	wordpools/wordpool_categorized_EN.txt	COW	FarmAnimals	9	8	[0, 0, 0]	n/a	catFR1	0	R1245E
1234.699	0.917	1241587	WORD_OFF	n/a	n/a	COW	n/a	9	8	[0, 0, 0]	n/a	catFR1	0	R1245E
1235.616	1.618	1242504	WORD	n/a	wordpools/wordpool_categorized_EN.txt	HEN	FarmAnimals	10	8	[0, 0, 0]	n/a	catFR1	0	R1245E
1237.234	0.9	1244122	WORD_OFF	n/a	n/a	HEN	n/a	10	8	[0, 0, 0]	n/a	catFR1	0	R1245E
1238.134	1.616	1245022	WORD	n/a	wordpools/wordpool_categorized_EN.txt	AXE	Tools	11	8	[0, 0, 0]	n/a	catFR1	0	R1245E
1239.75	0.784	1246638	WORD_OFF	n/a	n/a	AXE	n/a	11	8	[0, 0, 0]	n/a	catFR1	0	R1245E
1240.534	1.617	1247422	WORD	n/a	wordpools/wordpool_categorized_EN.txt	HAMMER	Tools	12	8	[0, 0, 0]	n/a	catFR1	0	R1245E
1242.151	0.0	1249039	WORD_OFF	n/a	n/a	HAMMER	n/a	12	8	[0, 0, 0]	n/a	catFR1	0	R1245E
1242.151	0.135	1249039	ENCODING_END	n/a	n/a	n/a	n/a	-999	8	[0, 0, 0]	n/a	catFR1	0	R1245E
1242.286	0.001	1249174	DISTRACT_START	n/a	n/a	n/a	n/a	-999	8	[0, 0, 0]	n/a	catFR1	0	R1245E
1242.287	0.014	1249175	START	n/a	n/a	n/a	n/a	-999	9	[-999, -999, -999]	n/a	catFR1	0	R1245E
1242.301	4.001	1249189	PROB	4.001	n/a	n/a	n/a	-999	9	[8, 2, 6]	16	catFR1	0	R1245E
1246.302	5.517	1253190	PROB	5.517	n/a	n/a	n/a	-999	9	[8, 6, 9]	23	catFR1	0	R1245E
1251.819	5.201	1258706	PROB	5.201	n/a	n/a	n/a	-999	9	[2, 7, 2]	11	catFR1	0	R1245E
1257.02	5.476	1263907	PROB	5.476	n/a	n/a	n/a	-999	9	[8, 8, 5]	21	catFR1	0	R1245E
1262.496	0.009	1269383	STOP	n/a	n/a	n/a	n/a	-999	9	[-999, -999, -999]	n/a	catFR1	0	R1245E
1262.505	0.566	1269392	DISTRACT_END	n/a	n/a	n/a	n/a	-999	8	[0, 0, 0]	n/a	catFR1	0	R1245E
1263.071	0.518	1269958	RETRIEVAL_ORIENT	n/a	n/a	n/a	n/a	-999	8	[0, 0, 0]	n/a	catFR1	0	R1245E
1263.589	2.433	1270476	REC_START	n/a	n/a	n/a	n/a	-999	8	[0, 0, 0]	n/a	catFR1	0	R1245E
1266.022	1.002	1272909	REC_WORD	1.002	n/a	AXE	Tools	11	8	[0, 0, 0]	n/a	catFR1	0	R1245E
1267.024	1.404	1273911	REC_WORD	1.404	n/a	HAMMER	Tools	12	8	[0, 0, 0]	n/a	catFR1	0	R1245E
1268.428	25.171	1275315	REC_WORD_VV	25.171	n/a	<>	n/a	-999	8	[0, 0, 0]	n/a	catFR1	0	R1245E
1293.599	29.149	1300485	REC_END	n/a	n/a	n/a	n/a	-999	8	[0, 0, 0]	n/a	catFR1	0	R1245E
1322.748	0.5	1329632	TRIAL	n/a	n/a	n/a	n/a	-999	9	[0, 0, 0]	n/a	catFR1	0	R1245E
1323.248	10.428	1330132	COUNTDOWN_START	n/a	n/a	n/a	n/a	-999	9	[0, 0, 0]	n/a	catFR1	0	R1245E
1333.676	0.007	1340560	COUNTDOWN_END	n/a	n/a	n/a	n/a	-999	9	[0, 0, 0]	n/a	catFR1	0	R1245E
1333.683	1.618	1340567	ORIENT	n/a	n/a	n/a	n/a	-999	9	[0, 0, 0]	n/a	catFR1	0	R1245E
1335.301	2.134	1342185	ORIENT_OFF	n/a	n/a	n/a	n/a	-999	9	[0, 0, 0]	n/a	catFR1	0	R1245E
1337.435	1.617	1344319	WORD	n/a	wordpools/wordpool_categorized_EN.txt	HICKORY	Trees	1	9	[0, 0, 0]	n/a	catFR1	0	R1245E
1339.052	0.916	1345936	WORD_OFF	n/a	n/a	HICKORY	n/a	1	9	[0, 0, 0]	n/a	catFR1	0	R1245E
1339.968	1.617	1346852	WORD	n/a	wordpools/wordpool_categorized_EN.txt	SPRUCE	Trees	2	9	[0, 0, 0]	n/a	catFR1	0	R1245E
1341.585	0.95	1348469	WORD_OFF	n/a	n/a	SPRUCE	n/a	2	9	[0, 0, 0]	n/a	catFR1	0	R1245E
1342.535	1.617	1349419	WORD	n/a	wordpools/wordpool_categorized_EN.txt	HURRICANE	Weather	3	9	[0, 0, 0]	n/a	catFR1	0	R1245E
1344.152	1.001	1351036	WORD_OFF	n/a	n/a	HURRICANE	n/a	3	9	[0, 0, 0]	n/a	catFR1	0	R1245E
1345.153	1.616	1352037	WORD	n/a	wordpools/wordpool_categorized_EN.txt	HUMIDITY	Weather	4	9	[0, 0, 0]	n/a	catFR1	0	R1245E
1346.769	0.95	1353652	WORD_OFF	n/a	n/a	HUMIDITY	n/a	4	9	[0, 0, 0]	n/a	catFR1	0	R1245E
1347.719	1.618	1354602	WORD	n/a	wordpools/wordpool_categorized_EN.txt	ELEPHANT	Zoo	5	9	[0, 0, 0]	n/a	catFR1	0	R1245E
1349.337	0.783	1356220	WORD_OFF	n/a	n/a	ELEPHANT	n/a	5	9	[0, 0, 0]	n/a	catFR1	0	R1245E
1350.12	1.616	1357003	WORD	n/a	wordpools/wordpool_categorized_EN.txt	CHIMPANZEE	Zoo	6	9	[0, 0, 0]	n/a	catFR1	0	R1245E
1351.736	0.868	1358619	WORD_OFF	n/a	n/a	CHIMPANZEE	n/a	6	9	[0, 0, 0]	n/a	catFR1	0	R1245E
1352.604	1.617	1359487	WORD	n/a	wordpools/wordpool_categorized_EN.txt	FOG	Weather	7	9	[0, 0, 0]	n/a	catFR1	0	R1245E
1354.221	0.933	1361104	WORD_OFF	n/a	n/a	FOG	n/a	7	9	[0, 0, 0]	n/a	catFR1	0	R1245E
1355.154	1.616	1362037	WORD	n/a	wordpools/wordpool_categorized_EN.txt	CLOUD	Weather	8	9	[0, 0, 0]	n/a	catFR1	0	R1245E
1356.77	0.801	1363653	WORD_OFF	n/a	n/a	CLOUD	n/a	8	9	[0, 0, 0]	n/a	catFR1	0	R1245E
1357.571	1.617	1364454	WORD	n/a	wordpools/wordpool_categorized_EN.txt	CYPRESS	Trees	9	9	[0, 0, 0]	n/a	catFR1	0	R1245E
1359.188	0.934	1366071	WORD_OFF	n/a	n/a	CYPRESS	n/a	9	9	[0, 0, 0]	n/a	catFR1	0	R1245E
1360.122	1.616	1367005	WORD	n/a	wordpools/wordpool_categorized_EN.txt	CEDAR	Trees	10	9	[0, 0, 0]	n/a	catFR1	0	R1245E
1361.738	0.9	1368621	WORD_OFF	n/a	n/a	CEDAR	n/a	10	9	[0, 0, 0]	n/a	catFR1	0	R1245E
1362.638	1.618	1369521	WORD	n/a	wordpools/wordpool_categorized_EN.txt	BEAR	Zoo	11	9	[0, 0, 0]	n/a	catFR1	0	R1245E
1364.256	0.8	1371139	WORD_OFF	n/a	n/a	BEAR	n/a	11	9	[0, 0, 0]	n/a	catFR1	0	R1245E
1365.056	1.616	1371939	WORD	n/a	wordpools/wordpool_categorized_EN.txt	GORILLA	Zoo	12	9	[0, 0, 0]	n/a	catFR1	0	R1245E
1366.672	0.0	1373555	ENCODING_END	n/a	n/a	n/a	n/a	-999	9	[0, 0, 0]	n/a	catFR1	0	R1245E
1366.672	0.175	1373555	WORD_OFF	n/a	n/a	GORILLA	n/a	12	9	[0, 0, 0]	n/a	catFR1	0	R1245E
1366.847	0.0	1373730	DISTRACT_START	n/a	n/a	n/a	n/a	-999	9	[0, 0, 0]	n/a	catFR1	0	R1245E
1366.847	0.009	1373730	START	n/a	n/a	n/a	n/a	-999	10	[-999, -999, -999]	n/a	catFR1	0	R1245E
1366.856	4.635	1373739	PROB	4.635	n/a	n/a	n/a	-999	10	[6, 5, 5]	16	catFR1	0	R1245E
1371.491	4.917	1378373	PROB	4.917	n/a	n/a	n/a	-999	10	[1, 8, 4]	13	catFR1	0	R1245E
1376.408	6.417	1383290	PROB	6.417	n/a	n/a	n/a	-999	10	[6, 8, 6]	20	catFR1	0	R1245E
1382.825	5.377	1389707	PROB	5.377	n/a	n/a	n/a	-999	10	[6, 8, 2]	16	catFR1	0	R1245E
1388.202	0.008	1395084	STOP	n/a	n/a	n/a	n/a	-999	10	[-999, -999, -999]	n/a	catFR1	0	R1245E
1388.21	0.7	1395092	DISTRACT_END	n/a	n/a	n/a	n/a	-999	9	[0, 0, 0]	n/a	catFR1	0	R1245E
1388.91	0.518	1395792	RETRIEVAL_ORIENT	n/a	n/a	n/a	n/a	-999	9	[0, 0, 0]	n/a	catFR1	0	R1245E
1389.428	1.286	1396310	REC_START	n/a	n/a	n/a	n/a	-999	9	[0, 0, 0]	n/a	catFR1	0	R1245E
1390.714	0.694	1397596	REC_WORD	0.694	n/a	GORILLA	Zoo	12	9	[0, 0, 0]	n/a	catFR1	0	R1245E
1391.408	1.0	1398290	REC_WORD	1.0	n/a	CHIMPANZEE	Zoo	6	9	[0, 0, 0]	n/a	catFR1	0	R1245E
1392.408	1.914	1399290	REC_WORD_VV	1.914	n/a	<>	n/a	-999	9	[0, 0, 0]	n/a	catFR1	0	R1245E
1394.322	1.096	1401203	REC_WORD	1.096	n/a	SPRUCE	Trees	2	9	[0, 0, 0]	n/a	catFR1	0	R1245E
1395.418	1.897	1402299	REC_WORD	1.897	n/a	HICKORY	Trees	1	9	[0, 0, 0]	n/a	catFR1	0	R1245E
1397.315	3.459	1404196	REC_WORD	3.459	n/a	HURRICANE	Weather	3	9	[0, 0, 0]	n/a	catFR1	0	R1245E
1400.774	0.894	1407655	REC_WORD	0.894	n/a	HUMIDITY	Weather	4	9	[0, 0, 0]	n/a	catFR1	0	R1245E
1401.668	12.59	1408549	REC_WORD	12.59	n/a	CLOUD	Weather	8	9	[0, 0, 0]	n/a	catFR1	0	R1245E
1414.258	5.18	1421139	REC_WORD	5.18	n/a	BEAR	Zoo	11	9	[0, 0, 0]	n/a	catFR1	0	R1245E
1419.438	25.381	1426318	REC_END	n/a	n/a	n/a	n/a	-999	9	[0, 0, 0]	n/a	catFR1	0	R1245E
1444.819	0.5	1451698	TRIAL	n/a	n/a	n/a	n/a	-999	10	[0, 0, 0]	n/a	catFR1	0	R1245E
1445.319	10.428	1452198	COUNTDOWN_START	n/a	n/a	n/a	n/a	-999	10	[0, 0, 0]	n/a	catFR1	0	R1245E
1455.747	0.007	1462626	COUNTDOWN_END	n/a	n/a	n/a	n/a	-999	10	[0, 0, 0]	n/a	catFR1	0	R1245E
1455.754	1.601	1462633	ORIENT	n/a	n/a	n/a	n/a	-999	10	[0, 0, 0]	n/a	catFR1	0	R1245E
1457.355	1.968	1464234	ORIENT_OFF	n/a	n/a	n/a	n/a	-999	10	[0, 0, 0]	n/a	catFR1	0	R1245E
1459.323	1.617	1466202	WORD	n/a	wordpools/wordpool_categorized_EN.txt	SPOON	KitchenTools	1	10	[0, 0, 0]	n/a	catFR1	0	R1245E
1460.94	0.799	1467819	WORD_OFF	n/a	n/a	SPOON	n/a	1	10	[0, 0, 0]	n/a	catFR1	0	R1245E
1461.739	1.618	1468618	WORD	n/a	wordpools/wordpool_categorized_EN.txt	LADLE	KitchenTools	2	10	[0, 0, 0]	n/a	catFR1	0	R1245E
1463.357	1.0	1470236	WORD_OFF	n/a	n/a	LADLE	n/a	2	10	[0, 0, 0]	n/a	catFR1	0	R1245E
1464.357	1.617	1471236	WORD	n/a	wordpools/wordpool_categorized_EN.txt	SEAGULL	Birds	3	10	[0, 0, 0]	n/a	catFR1	0	R1245E
1465.974	0.967	1472852	WORD_OFF	n/a	n/a	SEAGULL	n/a	3	10	[0, 0, 0]	n/a	catFR1	0	R1245E
1466.941	1.617	1473819	WORD	n/a	wordpools/wordpool_categorized_EN.txt	CARDINAL	Birds	4	10	[0, 0, 0]	n/a	catFR1	0	R1245E
1468.558	0.883	1475436	WORD_OFF	n/a	n/a	CARDINAL	n/a	4	10	[0, 0, 0]	n/a	catFR1	0	R1245E
1469.441	1.617	1476319	WORD	n/a	wordpools/wordpool_categorized_EN.txt	WINDOW	Building	5	10	[0, 0, 0]	n/a	catFR1	0	R1245E
1471.058	0.967	1477936	WORD_OFF	n/a	n/a	WINDOW	n/a	5	10	[0, 0, 0]	n/a	catFR1	0	R1245E
1472.025	1.616	1478903	WORD	n/a	wordpools/wordpool_categorized_EN.txt	WALL	Building	6	10	[0, 0, 0]	n/a	catFR1	0	R1245E
1473.641	0.968	1480519	WORD_OFF	n/a	n/a	WALL	n/a	6	10	[0, 0, 0]	n/a	catFR1	0	R1245E
1474.609	1.617	1481487	WORD	n/a	wordpools/wordpool_categorized_EN.txt	KNIFE	KitchenTools	7	10	[0, 0, 0]	n/a	catFR1	0	R1245E
1476.226	0.816	1483104	WORD_OFF	n/a	n/a	KNIFE	n/a	7	10	[0, 0, 0]	n/a	catFR1	0	R1245E
1477.042	1.616	1483920	WORD	n/a	wordpools/wordpool_categorized_EN.txt	COLANDER	KitchenTools	8	10	[0, 0, 0]	n/a	catFR1	0	R1245E
1478.658	1.001	1485536	WORD_OFF	n/a	n/a	COLANDER	n/a	8	10	[0, 0, 0]	n/a	catFR1	0	R1245E
1479.659	1.617	1486537	WORD	n/a	wordpools/wordpool_categorized_EN.txt	FINCH	Birds	9	10	[0, 0, 0]	n/a	catFR1	0	R1245E
1481.276	0.934	1488154	WORD_OFF	n/a	n/a	FINCH	n/a	9	10	[0, 0, 0]	n/a	catFR1	0	R1245E
1482.21	1.616	1489088	WORD	n/a	wordpools/wordpool_categorized_EN.txt	GOOSE	Birds	10	10	[0, 0, 0]	n/a	catFR1	0	R1245E
1483.826	0.8	1490704	WORD_OFF	n/a	n/a	GOOSE	n/a	10	10	[0, 0, 0]	n/a	catFR1	0	R1245E
1484.626	1.618	1491504	WORD	n/a	wordpools/wordpool_categorized_EN.txt	FOUNDATION	Building	11	10	[0, 0, 0]	n/a	catFR1	0	R1245E
1486.244	0.967	1493122	WORD_OFF	n/a	n/a	FOUNDATION	n/a	11	10	[0, 0, 0]	n/a	catFR1	0	R1245E
1487.211	1.616	1494089	WORD	n/a	wordpools/wordpool_categorized_EN.txt	STAIRS	Building	12	10	[0, 0, 0]	n/a	catFR1	0	R1245E
1488.827	0.0	1495705	WORD_OFF	n/a	n/a	STAIRS	n/a	12	10	[0, 0, 0]	n/a	catFR1	0	R1245E
1488.827	0.166	1495705	ENCODING_END	n/a	n/a	n/a	n/a	-999	10	[0, 0, 0]	n/a	catFR1	0	R1245E
1488.993	0.001	1495871	DISTRACT_START	n/a	n/a	n/a	n/a	-999	10	[0, 0, 0]	n/a	catFR1	0	R1245E
1488.994	0.017	1495872	START	n/a	n/a	n/a	n/a	-999	11	[-999, -999, -999]	n/a	catFR1	0	R1245E
1489.011	5.75	1495889	PROB	5.75	n/a	n/a	n/a	-999	11	[6, 1, 7]	14	catFR1	0	R1245E
1494.761	6.719	1501638	PROB	6.719	n/a	n/a	n/a	-999	11	[5, 8, 7]	20	catFR1	0	R1245E
1501.48	5.501	1508357	PROB	5.501	n/a	n/a	n/a	-999	11	[7, 8, 5]	20	catFR1	0	R1245E
1506.981	5.824	1513858	PROB	5.824	n/a	n/a	n/a	-999	11	[9, 7, 8]	24	catFR1	0	R1245E
1512.805	0.01	1519682	STOP	n/a	n/a	n/a	n/a	-999	11	[-999, -999, -999]	n/a	catFR1	0	R1245E
1512.815	0.584	1519692	DISTRACT_END	n/a	n/a	n/a	n/a	-999	10	[0, 0, 0]	n/a	catFR1	0	R1245E
1513.399	0.517	1520276	RETRIEVAL_ORIENT	n/a	n/a	n/a	n/a	-999	10	[0, 0, 0]	n/a	catFR1	0	R1245E
1513.916	1.275	1520792	REC_START	n/a	n/a	n/a	n/a	-999	10	[0, 0, 0]	n/a	catFR1	0	R1245E
1515.191	4.578	1522067	REC_WORD	4.578	n/a	FINCH	Birds	9	10	[0, 0, 0]	n/a	catFR1	0	R1245E
1519.769	6.213	1526645	REC_WORD	6.213	n/a	ROOSTER	n/a	-999	10	[0, 0, 0]	n/a	catFR1	0	R1245E
1525.982	8.028	1532858	REC_WORD	8.028	n/a	LADLE	KitchenTools	2	10	[0, 0, 0]	n/a	catFR1	0	R1245E
1534.01	9.917	1540886	REC_WORD	9.917	n/a	SPOON	KitchenTools	1	10	[0, 0, 0]	n/a	catFR1	0	R1245E
1543.927	54.487	1550802	REC_END	n/a	n/a	n/a	n/a	-999	10	[0, 0, 0]	n/a	catFR1	0	R1245E
1598.414	0.5	1605287	TRIAL	n/a	n/a	n/a	n/a	-999	11	[0, 0, 0]	n/a	catFR1	0	R1245E
1598.914	10.428	1605787	COUNTDOWN_START	n/a	n/a	n/a	n/a	-999	11	[0, 0, 0]	n/a	catFR1	0	R1245E
1609.342	0.007	1616215	COUNTDOWN_END	n/a	n/a	n/a	n/a	-999	11	[0, 0, 0]	n/a	catFR1	0	R1245E
1609.349	1.617	1616222	ORIENT	n/a	n/a	n/a	n/a	-999	11	[0, 0, 0]	n/a	catFR1	0	R1245E
1610.966	2.0	1617838	ORIENT_OFF	n/a	n/a	n/a	n/a	-999	11	[0, 0, 0]	n/a	catFR1	0	R1245E
1612.966	1.617	1619838	WORD	n/a	wordpools/wordpool_categorized_EN.txt	ROOM	Building	1	11	[0, 0, 0]	n/a	catFR1	0	R1245E
1614.583	0.85	1621455	WORD_OFF	n/a	n/a	ROOM	n/a	1	11	[0, 0, 0]	n/a	catFR1	0	R1245E
1615.433	1.617	1622305	WORD	n/a	wordpools/wordpool_categorized_EN.txt	ROOF	Building	2	11	[0, 0, 0]	n/a	catFR1	0	R1245E
1617.05	0.951	1623922	WORD_OFF	n/a	n/a	ROOF	n/a	2	11	[0, 0, 0]	n/a	catFR1	0	R1245E
1618.001	1.616	1624873	WORD	n/a	wordpools/wordpool_categorized_EN.txt	DRYER	Appliances	3	11	[0, 0, 0]	n/a	catFR1	0	R1245E
1619.617	0.8	1626489	WORD_OFF	n/a	n/a	DRYER	n/a	3	11	[0, 0, 0]	n/a	catFR1	0	R1245E
1620.417	1.618	1627289	WORD	n/a	wordpools/wordpool_categorized_EN.txt	MIXER	Appliances	4	11	[0, 0, 0]	n/a	catFR1	0	R1245E
1622.035	0.916	1628907	WORD_OFF	n/a	n/a	MIXER	n/a	4	11	[0, 0, 0]	n/a	catFR1	0	R1245E
1622.951	1.617	1629823	WORD	n/a	wordpools/wordpool_categorized_EN.txt	SHRIMP	OceanAnimals	5	11	[0, 0, 0]	n/a	catFR1	0	R1245E
1624.568	0.901	1631440	WORD_OFF	n/a	n/a	SHRIMP	n/a	5	11	[0, 0, 0]	n/a	catFR1	0	R1245E
1625.469	1.617	1632341	WORD	n/a	wordpools/wordpool_categorized_EN.txt	OYSTER	OceanAnimals	6	11	[0, 0, 0]	n/a	catFR1	0	R1245E
1627.086	0.883	1633958	WORD_OFF	n/a	n/a	OYSTER	n/a	6	11	[0, 0, 0]	n/a	catFR1	0	R1245E
1627.969	1.617	1634841	WORD	n/a	wordpools/wordpool_categorized_EN.txt	ATTIC	Building	7	11	[0, 0, 0]	n/a	catFR1	0	R1245E
1629.586	0.833	1636458	WORD_OFF	n/a	n/a	ATTIC	n/a	7	11	[0, 0, 0]	n/a	catFR1	0	R1245E
1630.419	1.617	1637291	WORD	n/a	wordpools/wordpool_categorized_EN.txt	HALLWAY	Building	8	11	[0, 0, 0]	n/a	catFR1	0	R1245E
1632.036	0.799	1638908	WORD_OFF	n/a	n/a	HALLWAY	n/a	8	11	[0, 0, 0]	n/a	catFR1	0	R1245E
1632.835	1.602	1639707	WORD	n/a	wordpools/wordpool_categorized_EN.txt	WASHER	Appliances	9	11	[0, 0, 0]	n/a	catFR1	0	R1245E
1634.437	0.917	1641308	WORD_OFF	n/a	n/a	WASHER	n/a	9	11	[0, 0, 0]	n/a	catFR1	0	R1245E
1635.354	1.617	1642225	WORD	n/a	wordpools/wordpool_categorized_EN.txt	FREEZER	Appliances	10	11	[0, 0, 0]	n/a	catFR1	0	R1245E
1636.971	0.933	1643842	WORD_OFF	n/a	n/a	FREEZER	n/a	10	11	[0, 0, 0]	n/a	catFR1	0	R1245E
1637.904	1.617	1644775	WORD	n/a	wordpools/wordpool_categorized_EN.txt	LOBSTER	OceanAnimals	11	11	[0, 0, 0]	n/a	catFR1	0	R1245E
1639.521	0.967	1646392	WORD_OFF	n/a	n/a	LOBSTER	n/a	11	11	[0, 0, 0]	n/a	catFR1	0	R1245E
1640.488	1.617	1647359	WORD	n/a	wordpools/wordpool_categorized_EN.txt	OCTOPUS	OceanAnimals	12	11	[0, 0, 0]	n/a	catFR1	0	R1245E
1642.105	0.0	1648976	ENCODING_END	n/a	n/a	n/a	n/a	-999	11	[0, 0, 0]	n/a	catFR1	0	R1245E
1642.105	0.133	1648976	WORD_OFF	n/a	n/a	OCTOPUS	n/a	12	11	[0, 0, 0]	n/a	catFR1	0	R1245E
1642.238	0.0	1649109	DISTRACT_START	n/a	n/a	n/a	n/a	-999	11	[0, 0, 0]	n/a	catFR1	0	R1245E
1642.238	0.017	1649109	START	n/a	n/a	n/a	n/a	-999	12	[-999, -999, -999]	n/a	catFR1	0	R1245E
1642.255	14.102	1649126	PROB	14.102	n/a	n/a	n/a	-999	12	[9, 9, 4]	26	catFR1	0	R1245E
1656.357	9.543	1663228	PROB	9.543	n/a	n/a	n/a	-999	12	[3, 5, 6]	14	catFR1	0	R1245E
1665.9	0.009	1672770	STOP	n/a	n/a	n/a	n/a	-999	12	[-999, -999, -999]	n/a	catFR1	0	R1245E
1665.909	0.6	1672779	DISTRACT_END	n/a	n/a	n/a	n/a	-999	11	[0, 0, 0]	n/a	catFR1	0	R1245E
1666.509	0.518	1673379	RETRIEVAL_ORIENT	n/a	n/a	n/a	n/a	-999	11	[0, 0, 0]	n/a	catFR1	0	R1245E
1667.027	3.101	1673897	REC_START	n/a	n/a	n/a	n/a	-999	11	[0, 0, 0]	n/a	catFR1	0	R1245E
1670.128	4.542	1676998	REC_WORD	4.542	n/a	ROOF	Building	2	11	[0, 0, 0]	n/a	catFR1	0	R1245E
1674.67	4.608	1681540	REC_WORD	4.608	n/a	KITCHEN	n/a	-999	11	[0, 0, 0]	n/a	catFR1	0	R1245E
1679.278	0.681	1686148	REC_WORD	0.681	n/a	WASHER	Appliances	9	11	[0, 0, 0]	n/a	catFR1	0	R1245E
1679.959	3.757	1686829	REC_WORD	3.757	n/a	DRYER	Appliances	3	11	[0, 0, 0]	n/a	catFR1	0	R1245E
1683.716	6.709	1690585	REC_WORD	6.709	n/a	OYSTER	OceanAnimals	6	11	[0, 0, 0]	n/a	catFR1	0	R1245E
1690.425	6.613	1697294	REC_WORD	6.613	n/a	OCTOPUS	OceanAnimals	12	11	[0, 0, 0]	n/a	catFR1	0	R1245E
1697.038	5.877	1703907	REC_END	n/a	n/a	n/a	n/a	-999	11	[0, 0, 0]	n/a	catFR1	0	R1245E
1702.915	0.5	1709784	TRIAL	n/a	n/a	n/a	n/a	-999	12	[0, 0, 0]	n/a	catFR1	0	R1245E
1703.415	10.428	1710284	COUNTDOWN_START	n/a	n/a	n/a	n/a	-999	12	[0, 0, 0]	n/a	catFR1	0	R1245E
1713.843	0.007	1720711	COUNTDOWN_END	n/a	n/a	n/a	n/a	-999	12	[0, 0, 0]	n/a	catFR1	0	R1245E
1713.85	1.618	1720718	ORIENT	n/a	n/a	n/a	n/a	-999	12	[0, 0, 0]	n/a	catFR1	0	R1245E
1715.468	2.299	1722336	ORIENT_OFF	n/a	n/a	n/a	n/a	-999	12	[0, 0, 0]	n/a	catFR1	0	R1245E
1717.767	1.618	1724635	WORD	n/a	wordpools/wordpool_categorized_EN.txt	WIND	Weather	1	12	[0, 0, 0]	n/a	catFR1	0	R1245E
1719.385	0.8	1726253	WORD_OFF	n/a	n/a	WIND	n/a	1	12	[0, 0, 0]	n/a	catFR1	0	R1245E
1720.185	1.616	1727053	WORD	n/a	wordpools/wordpool_categorized_EN.txt	DRIZZLE	Weather	2	12	[0, 0, 0]	n/a	catFR1	0	R1245E
1721.801	0.817	1728669	WORD_OFF	n/a	n/a	DRIZZLE	n/a	2	12	[0, 0, 0]	n/a	catFR1	0	R1245E
1722.618	1.601	1729486	WORD	n/a	wordpools/wordpool_categorized_EN.txt	TUBA	Instruments	3	12	[0, 0, 0]	n/a	catFR1	0	R1245E
1724.219	1.0	1731087	WORD_OFF	n/a	n/a	TUBA	n/a	3	12	[0, 0, 0]	n/a	catFR1	0	R1245E
1725.219	1.616	1732087	WORD	n/a	wordpools/wordpool_categorized_EN.txt	FLUTE	Instruments	4	12	[0, 0, 0]	n/a	catFR1	0	R1245E
1726.835	0.851	1733703	WORD_OFF	n/a	n/a	FLUTE	n/a	4	12	[0, 0, 0]	n/a	catFR1	0	R1245E
1727.686	1.617	1734554	WORD	n/a	wordpools/wordpool_categorized_EN.txt	SHOVEL	Tools	5	12	[0, 0, 0]	n/a	catFR1	0	R1245E
1729.303	0.901	1736171	WORD_OFF	n/a	n/a	SHOVEL	n/a	5	12	[0, 0, 0]	n/a	catFR1	0	R1245E
1730.204	1.616	1737072	WORD	n/a	wordpools/wordpool_categorized_EN.txt	SCREWDRIVER	Tools	6	12	[0, 0, 0]	n/a	catFR1	0	R1245E
1731.82	0.833	1738687	WORD_OFF	n/a	n/a	SCREWDRIVER	n/a	6	12	[0, 0, 0]	n/a	catFR1	0	R1245E
1732.653	1.618	1739520	WORD	n/a	wordpools/wordpool_categorized_EN.txt	BASS	Instruments	7	12	[0, 0, 0]	n/a	catFR1	0	R1245E
1734.271	0.967	1741138	WORD_OFF	n/a	n/a	BASS	n/a	7	12	[0, 0, 0]	n/a	catFR1	0	R1245E
1735.238	1.617	1742105	WORD	n/a	wordpools/wordpool_categorized_EN.txt	TROMBONE	Instruments	8	12	[0, 0, 0]	n/a	catFR1	0	R1245E
1736.855	0.982	1743722	WORD_OFF	n/a	n/a	TROMBONE	n/a	8	12	[0, 0, 0]	n/a	catFR1	0	R1245E
1737.837	1.601	1744704	WORD	n/a	wordpools/wordpool_categorized_EN.txt	TORNADO	Weather	9	12	[0, 0, 0]	n/a	catFR1	0	R1245E
1739.438	0.851	1746305	WORD_OFF	n/a	n/a	TORNADO	n/a	9	12	[0, 0, 0]	n/a	catFR1	0	R1245E
1740.289	1.617	1747156	WORD	n/a	wordpools/wordpool_categorized_EN.txt	RAIN	Weather	10	12	[0, 0, 0]	n/a	catFR1	0	R1245E
1741.906	0.983	1748773	WORD_OFF	n/a	n/a	RAIN	n/a	10	12	[0, 0, 0]	n/a	catFR1	0	R1245E
1742.889	1.617	1749756	WORD	n/a	wordpools/wordpool_categorized_EN.txt	LEVEL	Tools	11	12	[0, 0, 0]	n/a	catFR1	0	R1245E
1744.506	0.784	1751373	WORD_OFF	n/a	n/a	LEVEL	n/a	11	12	[0, 0, 0]	n/a	catFR1	0	R1245E
1745.29	1.617	1752157	WORD	n/a	wordpools/wordpool_categorized_EN.txt	SAW	Tools	12	12	[0, 0, 0]	n/a	catFR1	0	R1245E
1746.907	0.0	1753774	WORD_OFF	n/a	n/a	SAW	n/a	12	12	[0, 0, 0]	n/a	catFR1	0	R1245E
1746.907	0.176	1753774	ENCODING_END	n/a	n/a	n/a	n/a	-999	12	[0, 0, 0]	n/a	catFR1	0	R1245E
1747.083	0.0	1753950	DISTRACT_START	n/a	n/a	n/a	n/a	-999	12	[0, 0, 0]	n/a	catFR1	0	R1245E
1747.083	0.024	1753950	START	n/a	n/a	n/a	n/a	-999	13	[-999, -999, -999]	n/a	catFR1	0	R1245E
1747.107	4.234	1753974	PROB	4.234	n/a	n/a	n/a	-999	13	[9, 5, 8]	22	catFR1	0	R1245E
1751.341	4.717	1758208	PROB	4.717	n/a	n/a	n/a	-999	13	[9, 4, 9]	22	catFR1	0	R1245E
1756.058	7.268	1762924	PROB	7.268	n/a	n/a	n/a	-999	13	[7, 9, 3]	19	catFR1	0	R1245E
1763.326	8.982	1770192	PROB	8.982	n/a	n/a	n/a	-999	13	[8, 6, 6]	20	catFR1	0	R1245E
1772.308	0.02	1779174	STOP	n/a	n/a	n/a	n/a	-999	13	[-999, -999, -999]	n/a	catFR1	0	R1245E
1772.328	0.633	1779194	DISTRACT_END	n/a	n/a	n/a	n/a	-999	12	[0, 0, 0]	n/a	catFR1	0	R1245E
1772.961	0.518	1779827	RETRIEVAL_ORIENT	n/a	n/a	n/a	n/a	-999	12	[0, 0, 0]	n/a	catFR1	0	R1245E
1773.479	1.299	1780345	REC_START	n/a	n/a	n/a	n/a	-999	12	[0, 0, 0]	n/a	catFR1	0	R1245E
1774.778	0.68	1781644	REC_WORD	0.68	n/a	TORNADO	Weather	9	12	[0, 0, 0]	n/a	catFR1	0	R1245E
1775.458	0.765	1782324	REC_WORD	0.765	n/a	RAIN	Weather	10	12	[0, 0, 0]	n/a	catFR1	0	R1245E
1776.223	5.64	1783089	REC_WORD	5.64	n/a	DRIZZLE	Weather	2	12	[0, 0, 0]	n/a	catFR1	0	R1245E
1781.863	21.627	1788728	REC_WORD	21.627	n/a	WIND	Weather	1	12	[0, 0, 0]	n/a	catFR1	0	R1245E
1803.49	7.327	1810354	REC_END	n/a	n/a	n/a	n/a	-999	12	[0, 0, 0]	n/a	catFR1	0	R1245E
1810.817	0.5	1817681	TRIAL	n/a	n/a	n/a	n/a	-999	13	[0, 0, 0]	n/a	catFR1	0	R1245E
1811.317	10.428	1818181	COUNTDOWN_START	n/a	n/a	n/a	n/a	-999	13	[0, 0, 0]	n/a	catFR1	0	R1245E
1821.745	0.007	1828609	COUNTDOWN_END	n/a	n/a	n/a	n/a	-999	13	[0, 0, 0]	n/a	catFR1	0	R1245E
1821.752	1.618	1828616	ORIENT	n/a	n/a	n/a	n/a	-999	13	[0, 0, 0]	n/a	catFR1	0	R1245E
1823.37	2.234	1830234	ORIENT_OFF	n/a	n/a	n/a	n/a	-999	13	[0, 0, 0]	n/a	catFR1	0	R1245E
1825.604	1.617	1832468	WORD	n/a	wordpools/wordpool_categorized_EN.txt	TONGS	KitchenTools	1	13	[0, 0, 0]	n/a	catFR1	0	R1245E
1827.221	0.867	1834084	WORD_OFF	n/a	n/a	TONGS	n/a	1	13	[0, 0, 0]	n/a	catFR1	0	R1245E
1828.088	1.615	1834951	WORD	n/a	wordpools/wordpool_categorized_EN.txt	CORKSCREW	KitchenTools	2	13	[0, 0, 0]	n/a	catFR1	0	R1245E
1829.703	0.951	1836566	WORD_OFF	n/a	n/a	CORKSCREW	n/a	2	13	[0, 0, 0]	n/a	catFR1	0	R1245E
1830.654	1.618	1837517	WORD	n/a	wordpools/wordpool_categorized_EN.txt	COMPUTER	Electronics	3	13	[0, 0, 0]	n/a	catFR1	0	R1245E
1832.272	0.9	1839135	WORD_OFF	n/a	n/a	COMPUTER	n/a	3	13	[0, 0, 0]	n/a	catFR1	0	R1245E
1833.172	1.616	1840035	WORD	n/a	wordpools/wordpool_categorized_EN.txt	TELEVISION	Electronics	4	13	[0, 0, 0]	n/a	catFR1	0	R1245E
1834.788	0.784	1841651	WORD_OFF	n/a	n/a	TELEVISION	n/a	4	13	[0, 0, 0]	n/a	catFR1	0	R1245E
1835.572	1.617	1842435	WORD	n/a	wordpools/wordpool_categorized_EN.txt	JELLYFISH	OceanAnimals	5	13	[0, 0, 0]	n/a	catFR1	0	R1245E
1837.189	0.934	1844052	WORD_OFF	n/a	n/a	JELLYFISH	n/a	5	13	[0, 0, 0]	n/a	catFR1	0	R1245E
1838.123	1.616	1844986	WORD	n/a	wordpools/wordpool_categorized_EN.txt	TURTLE	OceanAnimals	6	13	[0, 0, 0]	n/a	catFR1	0	R1245E
1839.739	0.9	1846602	WORD_OFF	n/a	n/a	TURTLE	n/a	6	13	[0, 0, 0]	n/a	catFR1	0	R1245E
1840.639	1.618	1847502	WORD	n/a	wordpools/wordpool_categorized_EN.txt	MICROWAVE	Electronics	7	13	[0, 0, 0]	n/a	catFR1	0	R1245E
1842.257	0.85	1849120	WORD_OFF	n/a	n/a	MICROWAVE	n/a	7	13	[0, 0, 0]	n/a	catFR1	0	R1245E
1843.107	1.616	1849970	WORD	n/a	wordpools/wordpool_categorized_EN.txt	TABLET	Electronics	8	13	[0, 0, 0]	n/a	catFR1	0	R1245E
1844.723	1.0	1851586	WORD_OFF	n/a	n/a	TABLET	n/a	8	13	[0, 0, 0]	n/a	catFR1	0	R1245E
1845.723	1.618	1852586	WORD	n/a	wordpools/wordpool_categorized_EN.txt	PEELER	KitchenTools	9	13	[0, 0, 0]	n/a	catFR1	0	R1245E
1847.341	0.833	1854204	WORD_OFF	n/a	n/a	PEELER	n/a	9	13	[0, 0, 0]	n/a	catFR1	0	R1245E
1848.174	1.616	1855037	WORD	n/a	wordpools/wordpool_categorized_EN.txt	SPATULA	KitchenTools	10	13	[0, 0, 0]	n/a	catFR1	0	R1245E
1849.79	0.801	1856653	WORD_OFF	n/a	n/a	SPATULA	n/a	10	13	[0, 0, 0]	n/a	catFR1	0	R1245E
1850.591	1.617	1857454	WORD	n/a	wordpools/wordpool_categorized_EN.txt	WHALE	OceanAnimals	11	13	[0, 0, 0]	n/a	catFR1	0	R1245E
1852.208	0.884	1859070	WORD_OFF	n/a	n/a	WHALE	n/a	11	13	[0, 0, 0]	n/a	catFR1	0	R1245E
1853.092	1.616	1859954	WORD	n/a	wordpools/wordpool_categorized_EN.txt	DOLPHIN	OceanAnimals	12	13	[0, 0, 0]	n/a	catFR1	0	R1245E
1854.708	0.0	1861570	ENCODING_END	n/a	n/a	n/a	n/a	-999	13	[0, 0, 0]	n/a	catFR1	0	R1245E
1854.708	0.131	1861570	WORD_OFF	n/a	n/a	DOLPHIN	n/a	12	13	[0, 0, 0]	n/a	catFR1	0	R1245E
1854.839	0.001	1861701	DISTRACT_START	n/a	n/a	n/a	n/a	-999	13	[0, 0, 0]	n/a	catFR1	0	R1245E
1854.84	0.019	1861702	START	n/a	n/a	n/a	n/a	-999	14	[-999, -999, -999]	n/a	catFR1	0	R1245E
1854.859	4.084	1861721	PROB	4.084	n/a	n/a	n/a	-999	14	[7, 8, 1]	16	catFR1	0	R1245E
1858.943	3.067	1865805	PROB	3.067	n/a	n/a	n/a	-999	14	[6, 4, 1]	11	catFR1	0	R1245E
1862.01	5.418	1868872	PROB	5.418	n/a	n/a	n/a	-999	14	[5, 9, 7]	21	catFR1	0	R1245E
1867.428	8.313	1874290	PROB	8.313	n/a	n/a	n/a	-999	14	[4, 9, 2]	15	catFR1	0	R1245E
1875.741	0.021	1882602	STOP	n/a	n/a	n/a	n/a	-999	14	[-999, -999, -999]	n/a	catFR1	0	R1245E
1875.762	0.584	1882623	DISTRACT_END	n/a	n/a	n/a	n/a	-999	13	[0, 0, 0]	n/a	catFR1	0	R1245E
1876.346	0.517	1883207	RETRIEVAL_ORIENT	n/a	n/a	n/a	n/a	-999	13	[0, 0, 0]	n/a	catFR1	0	R1245E
1876.863	1.257	1883724	REC_START	n/a	n/a	n/a	n/a	-999	13	[0, 0, 0]	n/a	catFR1	0	R1245E
1878.12	3.795	1884981	REC_WORD	3.795	n/a	SPATULA	KitchenTools	10	13	[0, 0, 0]	n/a	catFR1	0	R1245E
1881.915	2.971	1888776	REC_WORD	2.971	n/a	MICROWAVE	Electronics	7	13	[0, 0, 0]	n/a	catFR1	0	R1245E
1884.886	0.897	1891747	REC_WORD	0.897	n/a	TABLET	Electronics	8	13	[0, 0, 0]	n/a	catFR1	0	R1245E
1885.783	6.434	1892644	REC_WORD	6.434	n/a	COMPUTER	Electronics	3	13	[0, 0, 0]	n/a	catFR1	0	R1245E
1892.217	14.658	1899078	REC_WORD	14.658	n/a	TELEVISION	Electronics	4	13	[0, 0, 0]	n/a	catFR1	0	R1245E
1906.875	7.044	1913735	REC_END	n/a	n/a	n/a	n/a	-999	13	[0, 0, 0]	n/a	catFR1	0	R1245E
1913.919	0.5	1920779	TRIAL	n/a	n/a	n/a	n/a	-999	14	[0, 0, 0]	n/a	catFR1	0	R1245E
1914.419	10.428	1921279	COUNTDOWN_START	n/a	n/a	n/a	n/a	-999	14	[0, 0, 0]	n/a	catFR1	0	R1245E
1924.847	0.007	1931706	COUNTDOWN_END	n/a	n/a	n/a	n/a	-999	14	[0, 0, 0]	n/a	catFR1	0	R1245E
1924.854	1.617	1931713	ORIENT	n/a	n/a	n/a	n/a	-999	14	[0, 0, 0]	n/a	catFR1	0	R1245E
1926.471	2.084	1933330	ORIENT_OFF	n/a	n/a	n/a	n/a	-999	14	[0, 0, 0]	n/a	catFR1	0	R1245E
1928.555	1.617	1935414	WORD	n/a	wordpools/wordpool_categorized_EN.txt	PLANE	Vehicles	1	14	[0, 0, 0]	n/a	catFR1	0	R1245E
1930.172	0.984	1937031	WORD_OFF	n/a	n/a	PLANE	n/a	1	14	[0, 0, 0]	n/a	catFR1	0	R1245E
1931.156	1.616	1938015	WORD	n/a	wordpools/wordpool_categorized_EN.txt	BIKE	Vehicles	2	14	[0, 0, 0]	n/a	catFR1	0	R1245E
1932.772	0.9	1939631	WORD_OFF	n/a	n/a	BIKE	n/a	2	14	[0, 0, 0]	n/a	catFR1	0	R1245E
1933.672	1.618	1940531	WORD	n/a	wordpools/wordpool_categorized_EN.txt	PANTS	Clothing	3	14	[0, 0, 0]	n/a	catFR1	0	R1245E
1935.29	0.85	1942149	WORD_OFF	n/a	n/a	PANTS	n/a	3	14	[0, 0, 0]	n/a	catFR1	0	R1245E
1936.14	1.616	1942999	WORD	n/a	wordpools/wordpool_categorized_EN.txt	SHIRT	Clothing	4	14	[0, 0, 0]	n/a	catFR1	0	R1245E
1937.756	0.867	1944615	WORD_OFF	n/a	n/a	SHIRT	n/a	4	14	[0, 0, 0]	n/a	catFR1	0	R1245E
1938.623	1.618	1945482	WORD	n/a	wordpools/wordpool_categorized_EN.txt	CUPCAKE	Desserts	5	14	[0, 0, 0]	n/a	catFR1	0	R1245E
1940.241	0.9	1947100	WORD_OFF	n/a	n/a	CUPCAKE	n/a	5	14	[0, 0, 0]	n/a	catFR1	0	R1245E
1941.141	1.616	1948000	WORD	n/a	wordpools/wordpool_categorized_EN.txt	PUDDING	Desserts	6	14	[0, 0, 0]	n/a	catFR1	0	R1245E
1942.757	0.801	1949616	WORD_OFF	n/a	n/a	PUDDING	n/a	6	14	[0, 0, 0]	n/a	catFR1	0	R1245E
1943.558	1.617	1950417	WORD	n/a	wordpools/wordpool_categorized_EN.txt	SKIRT	Clothing	7	14	[0, 0, 0]	n/a	catFR1	0	R1245E
1945.175	0.967	1952034	WORD_OFF	n/a	n/a	SKIRT	n/a	7	14	[0, 0, 0]	n/a	catFR1	0	R1245E
1946.142	1.616	1953001	WORD	n/a	wordpools/wordpool_categorized_EN.txt	SOCKS	Clothing	8	14	[0, 0, 0]	n/a	catFR1	0	R1245E
1947.758	0.95	1954616	WORD_OFF	n/a	n/a	SOCKS	n/a	8	14	[0, 0, 0]	n/a	catFR1	0	R1245E
1948.708	1.618	1955566	WORD	n/a	wordpools/wordpool_categorized_EN.txt	TRAIN	Vehicles	9	14	[0, 0, 0]	n/a	catFR1	0	R1245E
1950.326	0.85	1957184	WORD_OFF	n/a	n/a	TRAIN	n/a	9	14	[0, 0, 0]	n/a	catFR1	0	R1245E
1951.176	1.616	1958034	WORD	n/a	wordpools/wordpool_categorized_EN.txt	BUS	Vehicles	10	14	[0, 0, 0]	n/a	catFR1	0	R1245E
1952.792	1.0	1959650	WORD_OFF	n/a	n/a	BUS	n/a	10	14	[0, 0, 0]	n/a	catFR1	0	R1245E
1953.792	1.618	1960650	WORD	n/a	wordpools/wordpool_categorized_EN.txt	PASTRY	Desserts	11	14	[0, 0, 0]	n/a	catFR1	0	R1245E
1955.41	0.9	1962268	WORD_OFF	n/a	n/a	PASTRY	n/a	11	14	[0, 0, 0]	n/a	catFR1	0	R1245E
1956.31	1.617	1963168	WORD	n/a	wordpools/wordpool_categorized_EN.txt	FUDGE	Desserts	12	14	[0, 0, 0]	n/a	catFR1	0	R1245E
1957.927	0.0	1964785	ENCODING_END	n/a	n/a	n/a	n/a	-999	14	[0, 0, 0]	n/a	catFR1	0	R1245E
1957.927	0.13	1964785	WORD_OFF	n/a	n/a	FUDGE	n/a	12	14	[0, 0, 0]	n/a	catFR1	0	R1245E
1958.057	0.0	1964915	DISTRACT_START	n/a	n/a	n/a	n/a	-999	14	[0, 0, 0]	n/a	catFR1	0	R1245E
1958.057	0.02	1964915	START	n/a	n/a	n/a	n/a	-999	15	[-999, -999, -999]	n/a	catFR1	0	R1245E
1958.077	5.6	1964935	PROB	5.6	n/a	n/a	n/a	-999	15	[3, 8, 3]	21	catFR1	0	R1245E
1963.677	4.752	1970535	PROB	4.752	n/a	n/a	n/a	-999	15	[1, 6, 3]	10	catFR1	0	R1245E
1968.429	9.002	1975287	PROB	9.002	n/a	n/a	n/a	-999	15	[5, 9, 8]	23	catFR1	0	R1245E
1977.431	4.466	1984288	PROB	4.466	n/a	n/a	n/a	-999	15	[2, 2, 1]	5	catFR1	0	R1245E
1981.897	0.018	1988754	STOP	n/a	n/a	n/a	n/a	-999	15	[-999, -999, -999]	n/a	catFR1	0	R1245E
1981.915	0.699	1988772	DISTRACT_END	n/a	n/a	n/a	n/a	-999	14	[0, 0, 0]	n/a	catFR1	0	R1245E
1982.614	0.518	1989471	RETRIEVAL_ORIENT	n/a	n/a	n/a	n/a	-999	14	[0, 0, 0]	n/a	catFR1	0	R1245E
1983.132	1.602	1989989	REC_START	n/a	n/a	n/a	n/a	-999	14	[0, 0, 0]	n/a	catFR1	0	R1245E
1984.734	6.706	1991591	REC_WORD	6.706	n/a	BUS	Vehicles	10	14	[0, 0, 0]	n/a	catFR1	0	R1245E
1991.44	1.0	1998297	REC_WORD	1.0	n/a	CUPCAKE	Desserts	5	14	[0, 0, 0]	n/a	catFR1	0	R1245E
1992.44	16.831	1999297	REC_WORD_VV	16.831	n/a	<>	n/a	-999	14	[0, 0, 0]	n/a	catFR1	0	R1245E
2009.271	3.872	2016127	REC_WORD	3.872	n/a	PLANE	Vehicles	1	14	[0, 0, 0]	n/a	catFR1	0	R1245E
2013.143	5.677	2019999	REC_END	n/a	n/a	n/a	n/a	-999	14	[0, 0, 0]	n/a	catFR1	0	R1245E
2018.82	0.5	2025676	TRIAL	n/a	n/a	n/a	n/a	-999	15	[0, 0, 0]	n/a	catFR1	0	R1245E
2019.32	10.428	2026176	COUNTDOWN_START	n/a	n/a	n/a	n/a	-999	15	[0, 0, 0]	n/a	catFR1	0	R1245E
2029.748	0.007	2036603	COUNTDOWN_END	n/a	n/a	n/a	n/a	-999	15	[0, 0, 0]	n/a	catFR1	0	R1245E
2029.755	1.601	2036610	ORIENT	n/a	n/a	n/a	n/a	-999	15	[0, 0, 0]	n/a	catFR1	0	R1245E
2031.356	2.051	2038211	ORIENT_OFF	n/a	n/a	n/a	n/a	-999	15	[0, 0, 0]	n/a	catFR1	0	R1245E
2033.407	1.617	2040262	WORD	n/a	wordpools/wordpool_categorized_EN.txt	BLUEBERRY	Fruit	1	15	[0, 0, 0]	n/a	catFR1	0	R1245E
2035.024	0.766	2041879	WORD_OFF	n/a	n/a	BLUEBERRY	n/a	1	15	[0, 0, 0]	n/a	catFR1	0	R1245E
2035.79	1.618	2042645	WORD	n/a	wordpools/wordpool_categorized_EN.txt	BANANA	Fruit	2	15	[0, 0, 0]	n/a	catFR1	0	R1245E
2037.408	0.966	2044263	WORD_OFF	n/a	n/a	BANANA	n/a	2	15	[0, 0, 0]	n/a	catFR1	0	R1245E
2038.374	1.618	2045229	WORD	n/a	wordpools/wordpool_categorized_EN.txt	JEANS	Clothing	3	15	[0, 0, 0]	n/a	catFR1	0	R1245E
2039.992	0.866	2046847	WORD_OFF	n/a	n/a	JEANS	n/a	3	15	[0, 0, 0]	n/a	catFR1	0	R1245E
2040.858	1.617	2047713	WORD	n/a	wordpools/wordpool_categorized_EN.txt	JACKET	Clothing	4	15	[0, 0, 0]	n/a	catFR1	0	R1245E
2042.475	0.967	2049330	WORD_OFF	n/a	n/a	JACKET	n/a	4	15	[0, 0, 0]	n/a	catFR1	0	R1245E
2043.442	1.617	2050297	WORD	n/a	wordpools/wordpool_categorized_EN.txt	FOREST	Landscapes	5	15	[0, 0, 0]	n/a	catFR1	0	R1245E
2045.059	0.917	2051913	WORD_OFF	n/a	n/a	FOREST	n/a	5	15	[0, 0, 0]	n/a	catFR1	0	R1245E
2045.976	1.617	2052830	WORD	n/a	wordpools/wordpool_categorized_EN.txt	LAKE	Landscapes	6	15	[0, 0, 0]	n/a	catFR1	0	R1245E
2047.593	0.983	2054447	WORD_OFF	n/a	n/a	LAKE	n/a	6	15	[0, 0, 0]	n/a	catFR1	0	R1245E
2048.576	1.617	2055430	WORD	n/a	wordpools/wordpool_categorized_EN.txt	BLOUSE	Clothing	7	15	[0, 0, 0]	n/a	catFR1	0	R1245E
2050.193	0.8	2057047	WORD_OFF	n/a	n/a	BLOUSE	n/a	7	15	[0, 0, 0]	n/a	catFR1	0	R1245E
2050.993	1.617	2057847	WORD	n/a	wordpools/wordpool_categorized_EN.txt	UNDERWEAR	Clothing	8	15	[0, 0, 0]	n/a	catFR1	0	R1245E
2052.61	0.767	2059464	WORD_OFF	n/a	n/a	UNDERWEAR	n/a	8	15	[0, 0, 0]	n/a	catFR1	0	R1245E
2053.377	1.617	2060231	WORD	n/a	wordpools/wordpool_categorized_EN.txt	CHERRY	Fruit	9	15	[0, 0, 0]	n/a	catFR1	0	R1245E
2054.994	0.833	2061848	WORD_OFF	n/a	n/a	CHERRY	n/a	9	15	[0, 0, 0]	n/a	catFR1	0	R1245E
2055.827	1.617	2062681	WORD	n/a	wordpools/wordpool_categorized_EN.txt	GRAPE	Fruit	10	15	[0, 0, 0]	n/a	catFR1	0	R1245E
2057.444	0.867	2064298	WORD_OFF	n/a	n/a	GRAPE	n/a	10	15	[0, 0, 0]	n/a	catFR1	0	R1245E
2058.311	1.617	2065165	WORD	n/a	wordpools/wordpool_categorized_EN.txt	ISLAND	Landscapes	11	15	[0, 0, 0]	n/a	catFR1	0	R1245E
2059.928	0.849	2066782	WORD_OFF	n/a	n/a	ISLAND	n/a	11	15	[0, 0, 0]	n/a	catFR1	0	R1245E
2060.777	1.618	2067631	WORD	n/a	wordpools/wordpool_categorized_EN.txt	BEACH	Landscapes	12	15	[0, 0, 0]	n/a	catFR1	0	R1245E
2062.395	0.001	2069249	WORD_OFF	n/a	n/a	BEACH	n/a	12	15	[0, 0, 0]	n/a	catFR1	0	R1245E
2062.396	0.175	2069250	ENCODING_END	n/a	n/a	n/a	n/a	-999	15	[0, 0, 0]	n/a	catFR1	0	R1245E
2062.571	0.0	2069425	DISTRACT_START	n/a	n/a	n/a	n/a	-999	15	[0, 0, 0]	n/a	catFR1	0	R1245E
2062.571	0.025	2069425	START	n/a	n/a	n/a	n/a	-999	16	[-999, -999, -999]	n/a	catFR1	0	R1245E
2062.596	4.817	2069450	PROB	4.817	n/a	n/a	n/a	-999	16	[2, 6, 2]	10	catFR1	0	R1245E
2067.413	4.034	2074267	PROB	4.034	n/a	n/a	n/a	-999	16	[9, 2, 5]	16	catFR1	0	R1245E
2071.447	4.4	2078300	PROB	4.4	n/a	n/a	n/a	-999	16	[6, 3, 4]	13	catFR1	0	R1245E
2075.847	3.851	2082700	PROB	3.851	n/a	n/a	n/a	-999	16	[4, 9, 9]	22	catFR1	0	R1245E
2079.698	7.715	2086551	PROB	7.715	n/a	n/a	n/a	-999	16	[5, 1, 1]	8	catFR1	0	R1245E
2087.413	0.02	2094266	STOP	n/a	n/a	n/a	n/a	-999	16	[-999, -999, -999]	n/a	catFR1	0	R1245E
2087.433	0.534	2094286	DISTRACT_END	n/a	n/a	n/a	n/a	-999	15	[0, 0, 0]	n/a	catFR1	0	R1245E
2087.967	0.517	2094820	RETRIEVAL_ORIENT	n/a	n/a	n/a	n/a	-999	15	[0, 0, 0]	n/a	catFR1	0	R1245E
2088.484	5.616	2095337	REC_START	n/a	n/a	n/a	n/a	-999	15	[0, 0, 0]	n/a	catFR1	0	R1245E
2094.1	0.874	2100952	REC_WORD	0.874	n/a	BLOUSE	Clothing	7	15	[0, 0, 0]	n/a	catFR1	0	R1245E
2094.974	23.521	2101826	REC_WORD	23.521	n/a	UNDERWEAR	Clothing	8	15	[0, 0, 0]	n/a	catFR1	0	R1245E
2118.495	6.695	2125346	REC_END	n/a	n/a	n/a	n/a	-999	15	[0, 0, 0]	n/a	catFR1	0	R1245E
2125.19	0.5	2132041	TRIAL	n/a	n/a	n/a	n/a	-999	16	[0, 0, 0]	n/a	catFR1	0	R1245E
2125.69	10.428	2132541	COUNTDOWN_START	n/a	n/a	n/a	n/a	-999	16	[0, 0, 0]	n/a	catFR1	0	R1245E
2136.118	0.007	2142969	COUNTDOWN_END	n/a	n/a	n/a	n/a	-999	16	[0, 0, 0]	n/a	catFR1	0	R1245E
2136.125	1.616	2142976	ORIENT	n/a	n/a	n/a	n/a	-999	16	[0, 0, 0]	n/a	catFR1	0	R1245E
2137.741	2.335	2144592	ORIENT_OFF	n/a	n/a	n/a	n/a	-999	16	[0, 0, 0]	n/a	catFR1	0	R1245E
2140.076	1.616	2146926	WORD	n/a	wordpools/wordpool_categorized_EN.txt	STAPLER	OfficeSupplies	1	16	[0, 0, 0]	n/a	catFR1	0	R1245E
2141.692	0.901	2148542	WORD_OFF	n/a	n/a	STAPLER	n/a	1	16	[0, 0, 0]	n/a	catFR1	0	R1245E
2142.593	1.617	2149443	WORD	n/a	wordpools/wordpool_categorized_EN.txt	PAPER	OfficeSupplies	2	16	[0, 0, 0]	n/a	catFR1	0	R1245E
2144.21	0.983	2151060	WORD_OFF	n/a	n/a	PAPER	n/a	2	16	[0, 0, 0]	n/a	catFR1	0	R1245E
2145.193	1.616	2152043	WORD	n/a	wordpools/wordpool_categorized_EN.txt	REFRIGERATOR	Appliances	3	16	[0, 0, 0]	n/a	catFR1	0	R1245E
2146.809	0.934	2153659	WORD_OFF	n/a	n/a	REFRIGERATOR	n/a	3	16	[0, 0, 0]	n/a	catFR1	0	R1245E
2147.743	1.618	2154593	WORD	n/a	wordpools/wordpool_categorized_EN.txt	BLENDER	Appliances	4	16	[0, 0, 0]	n/a	catFR1	0	R1245E
2149.361	0.933	2156211	WORD_OFF	n/a	n/a	BLENDER	n/a	4	16	[0, 0, 0]	n/a	catFR1	0	R1245E
2150.294	1.617	2157144	WORD	n/a	wordpools/wordpool_categorized_EN.txt	WATER	Beverages	5	16	[0, 0, 0]	n/a	catFR1	0	R1245E
2151.911	0.984	2158761	WORD_OFF	n/a	n/a	WATER	n/a	5	16	[0, 0, 0]	n/a	catFR1	0	R1245E
2152.895	1.617	2159745	WORD	n/a	wordpools/wordpool_categorized_EN.txt	TEA	Beverages	6	16	[0, 0, 0]	n/a	catFR1	0	R1245E
2154.512	0.8	2161362	WORD_OFF	n/a	n/a	TEA	n/a	6	16	[0, 0, 0]	n/a	catFR1	0	R1245E
2155.312	1.617	2162162	WORD	n/a	wordpools/wordpool_categorized_EN.txt	RULER	OfficeSupplies	7	16	[0, 0, 0]	n/a	catFR1	0	R1245E
2156.929	1.0	2163779	WORD_OFF	n/a	n/a	RULER	n/a	7	16	[0, 0, 0]	n/a	catFR1	0	R1245E
2157.929	1.617	2164779	WORD	n/a	wordpools/wordpool_categorized_EN.txt	MARKER	OfficeSupplies	8	16	[0, 0, 0]	n/a	catFR1	0	R1245E
2159.546	0.783	2166396	WORD_OFF	n/a	n/a	MARKER	n/a	8	16	[0, 0, 0]	n/a	catFR1	0	R1245E
2160.329	1.617	2167179	WORD	n/a	wordpools/wordpool_categorized_EN.txt	STOVE	Appliances	9	16	[0, 0, 0]	n/a	catFR1	0	R1245E
2161.946	0.984	2168796	WORD_OFF	n/a	n/a	STOVE	n/a	9	16	[0, 0, 0]	n/a	catFR1	0	R1245E
2162.93	1.617	2169780	WORD	n/a	wordpools/wordpool_categorized_EN.txt	OVEN	Appliances	10	16	[0, 0, 0]	n/a	catFR1	0	R1245E
2164.547	0.95	2171396	WORD_OFF	n/a	n/a	OVEN	n/a	10	16	[0, 0, 0]	n/a	catFR1	0	R1245E
2165.497	1.617	2172346	WORD	n/a	wordpools/wordpool_categorized_EN.txt	COLA	Beverages	11	16	[0, 0, 0]	n/a	catFR1	0	R1245E
2167.114	0.783	2173963	WORD_OFF	n/a	n/a	COLA	n/a	11	16	[0, 0, 0]	n/a	catFR1	0	R1245E
2167.897	1.617	2174746	WORD	n/a	wordpools/wordpool_categorized_EN.txt	CIDER	Beverages	12	16	[0, 0, 0]	n/a	catFR1	0	R1245E
2169.514	0.001	2176363	WORD_OFF	n/a	n/a	CIDER	n/a	12	16	[0, 0, 0]	n/a	catFR1	0	R1245E
2169.515	0.131	2176364	ENCODING_END	n/a	n/a	n/a	n/a	-999	16	[0, 0, 0]	n/a	catFR1	0	R1245E
2169.646	0.001	2176495	DISTRACT_START	n/a	n/a	n/a	n/a	-999	16	[0, 0, 0]	n/a	catFR1	0	R1245E
2169.647	0.016	2176496	START	n/a	n/a	n/a	n/a	-999	17	[-999, -999, -999]	n/a	catFR1	0	R1245E
2169.663	4.919	2176512	PROB	4.919	n/a	n/a	n/a	-999	17	[4, 6, 6]	16	catFR1	0	R1245E
2174.582	3.717	2181431	PROB	3.717	n/a	n/a	n/a	-999	17	[5, 2, 3]	10	catFR1	0	R1245E
2178.299	5.45	2185148	PROB	5.45	n/a	n/a	n/a	-999	17	[8, 1, 7]	16	catFR1	0	R1245E
2183.749	5.051	2190598	PROB	5.051	n/a	n/a	n/a	-999	17	[9, 7, 4]	20	catFR1	0	R1245E
2188.8	5.453	2195648	PROB	5.453	n/a	n/a	n/a	-999	17	[5, 7, 7]	19	catFR1	0	R1245E
2194.253	0.016	2201101	STOP	n/a	n/a	n/a	n/a	-999	17	[-999, -999, -999]	n/a	catFR1	0	R1245E
2194.269	0.633	2201117	DISTRACT_END	n/a	n/a	n/a	n/a	-999	16	[0, 0, 0]	n/a	catFR1	0	R1245E
2194.902	0.518	2201750	RETRIEVAL_ORIENT	n/a	n/a	n/a	n/a	-999	16	[0, 0, 0]	n/a	catFR1	0	R1245E
2195.42	3.642	2202268	REC_START	n/a	n/a	n/a	n/a	-999	16	[0, 0, 0]	n/a	catFR1	0	R1245E
2199.062	26.369	2205910	REC_WORD_VV	26.369	n/a	<>	n/a	-999	16	[0, 0, 0]	n/a	catFR1	0	R1245E
2225.431	17.179	2232278	REC_END	n/a	n/a	n/a	n/a	-999	16	[0, 0, 0]	n/a	catFR1	0	R1245E
2242.61	0.5	2249456	TRIAL	n/a	n/a	n/a	n/a	-999	17	[0, 0, 0]	n/a	catFR1	0	R1245E
2243.11	10.428	2249956	COUNTDOWN_START	n/a	n/a	n/a	n/a	-999	17	[0, 0, 0]	n/a	catFR1	0	R1245E
2253.538	0.008	2260384	COUNTDOWN_END	n/a	n/a	n/a	n/a	-999	17	[0, 0, 0]	n/a	catFR1	0	R1245E
2253.546	1.617	2260392	ORIENT	n/a	n/a	n/a	n/a	-999	17	[0, 0, 0]	n/a	catFR1	0	R1245E
2255.163	1.85	2262009	ORIENT_OFF	n/a	n/a	n/a	n/a	-999	17	[0, 0, 0]	n/a	catFR1	0	R1245E
2257.013	1.616	2263859	WORD	n/a	wordpools/wordpool_categorized_EN.txt	PRINTER	Electronics	1	17	[0, 0, 0]	n/a	catFR1	0	R1245E
2258.629	0.983	2265475	WORD_OFF	n/a	n/a	PRINTER	n/a	1	17	[0, 0, 0]	n/a	catFR1	0	R1245E
2259.612	1.602	2266458	WORD	n/a	wordpools/wordpool_categorized_EN.txt	PHONE	Electronics	2	17	[0, 0, 0]	n/a	catFR1	0	R1245E
2261.214	0.867	2268059	WORD_OFF	n/a	n/a	PHONE	n/a	2	17	[0, 0, 0]	n/a	catFR1	0	R1245E
2262.081	1.616	2268926	WORD	n/a	wordpools/wordpool_categorized_EN.txt	DRILL	Tools	3	17	[0, 0, 0]	n/a	catFR1	0	R1245E
2263.697	0.95	2270542	WORD_OFF	n/a	n/a	DRILL	n/a	3	17	[0, 0, 0]	n/a	catFR1	0	R1245E
2264.647	1.618	2271492	WORD	n/a	wordpools/wordpool_categorized_EN.txt	RATCHET	Tools	4	17	[0, 0, 0]	n/a	catFR1	0	R1245E
2266.265	0.866	2273110	WORD_OFF	n/a	n/a	RATCHET	n/a	4	17	[0, 0, 0]	n/a	catFR1	0	R1245E
2267.131	1.616	2273976	WORD	n/a	wordpools/wordpool_categorized_EN.txt	ELBOW	BodyParts	5	17	[0, 0, 0]	n/a	catFR1	0	R1245E
2268.747	0.768	2275592	WORD_OFF	n/a	n/a	ELBOW	n/a	5	17	[0, 0, 0]	n/a	catFR1	0	R1245E
2269.515	1.617	2276360	WORD	n/a	wordpools/wordpool_categorized_EN.txt	LEG	BodyParts	6	17	[0, 0, 0]	n/a	catFR1	0	R1245E
2271.132	0.917	2277977	WORD_OFF	n/a	n/a	LEG	n/a	6	17	[0, 0, 0]	n/a	catFR1	0	R1245E
2272.049	1.616	2278894	WORD	n/a	wordpools/wordpool_categorized_EN.txt	PLIERS	Tools	7	17	[0, 0, 0]	n/a	catFR1	0	R1245E
2273.665	0.984	2280510	WORD_OFF	n/a	n/a	PLIERS	n/a	7	17	[0, 0, 0]	n/a	catFR1	0	R1245E
2274.649	1.617	2281494	WORD	n/a	wordpools/wordpool_categorized_EN.txt	WRENCH	Tools	8	17	[0, 0, 0]	n/a	catFR1	0	R1245E
2276.266	0.984	2283111	WORD_OFF	n/a	n/a	WRENCH	n/a	8	17	[0, 0, 0]	n/a	catFR1	0	R1245E
2277.25	1.617	2284095	WORD	n/a	wordpools/wordpool_categorized_EN.txt	CALCULATOR	Electronics	9	17	[0, 0, 0]	n/a	catFR1	0	R1245E
2278.867	0.982	2285712	WORD_OFF	n/a	n/a	CALCULATOR	n/a	9	17	[0, 0, 0]	n/a	catFR1	0	R1245E
2279.849	1.618	2286694	WORD	n/a	wordpools/wordpool_categorized_EN.txt	HEADPHONES	Electronics	10	17	[0, 0, 0]	n/a	catFR1	0	R1245E
2281.467	0.834	2288312	WORD_OFF	n/a	n/a	HEADPHONES	n/a	10	17	[0, 0, 0]	n/a	catFR1	0	R1245E
2282.301	1.617	2289146	WORD	n/a	wordpools/wordpool_categorized_EN.txt	FOOT	BodyParts	11	17	[0, 0, 0]	n/a	catFR1	0	R1245E
2283.918	1.0	2290763	WORD_OFF	n/a	n/a	FOOT	n/a	11	17	[0, 0, 0]	n/a	catFR1	0	R1245E
2284.918	1.617	2291762	WORD	n/a	wordpools/wordpool_categorized_EN.txt	HAND	BodyParts	12	17	[0, 0, 0]	n/a	catFR1	0	R1245E
2286.535	0.0	2293379	ENCODING_END	n/a	n/a	n/a	n/a	-999	17	[0, 0, 0]	n/a	catFR1	0	R1245E
2286.535	0.131	2293379	WORD_OFF	n/a	n/a	HAND	n/a	12	17	[0, 0, 0]	n/a	catFR1	0	R1245E
2286.666	0.0	2293510	DISTRACT_START	n/a	n/a	n/a	n/a	-999	17	[0, 0, 0]	n/a	catFR1	0	R1245E
2286.666	0.018	2293510	START	n/a	n/a	n/a	n/a	-999	18	[-999, -999, -999]	n/a	catFR1	0	R1245E
2286.684	4.318	2293528	PROB	4.318	n/a	n/a	n/a	-999	18	[2, 7, 6]	15	catFR1	0	R1245E
2291.002	3.85	2297846	PROB	3.85	n/a	n/a	n/a	-999	18	[7, 7, 6]	20	catFR1	0	R1245E
2294.852	5.834	2301696	PROB	5.834	n/a	n/a	n/a	-999	18	[1, 2, 7]	10	catFR1	0	R1245E
2300.686	4.101	2307530	PROB	4.101	n/a	n/a	n/a	-999	18	[4, 8, 4]	16	catFR1	0	R1245E
2304.787	4.184	2311631	PROB	4.184	n/a	n/a	n/a	-999	18	[1, 7, 7]	15	catFR1	0	R1245E
2308.971	0.018	2315814	STOP	n/a	n/a	n/a	n/a	-999	18	[-999, -999, -999]	n/a	catFR1	0	R1245E
2308.989	0.6	2315832	DISTRACT_END	n/a	n/a	n/a	n/a	-999	17	[0, 0, 0]	n/a	catFR1	0	R1245E
2309.589	0.517	2316432	RETRIEVAL_ORIENT	n/a	n/a	n/a	n/a	-999	17	[0, 0, 0]	n/a	catFR1	0	R1245E
2310.106	0.804	2316949	REC_START	n/a	n/a	n/a	n/a	-999	17	[0, 0, 0]	n/a	catFR1	0	R1245E
2310.91	2.938	2317753	REC_WORD	2.938	n/a	CALCULATOR	Electronics	9	17	[0, 0, 0]	n/a	catFR1	0	R1245E
2313.848	2.143	2320691	REC_WORD_VV	2.143	n/a	<>	n/a	-999	17	[0, 0, 0]	n/a	catFR1	0	R1245E
2315.991	0.862	2322834	REC_WORD	0.862	n/a	PLIERS	Tools	7	17	[0, 0, 0]	n/a	catFR1	0	R1245E
2316.853	9.438	2323696	REC_WORD	9.438	n/a	PEN	n/a	-999	17	[0, 0, 0]	n/a	catFR1	0	R1245E
2326.291	13.827	2333134	REC_WORD_VV	13.827	n/a	<>	n/a	-999	17	[0, 0, 0]	n/a	catFR1	0	R1245E
2340.118	7.527	2346960	REC_END	n/a	n/a	n/a	n/a	-999	17	[0, 0, 0]	n/a	catFR1	0	R1245E
2347.645	0.5	2354487	TRIAL	n/a	n/a	n/a	n/a	-999	18	[0, 0, 0]	n/a	catFR1	0	R1245E
2348.145	10.428	2354987	COUNTDOWN_START	n/a	n/a	n/a	n/a	-999	18	[0, 0, 0]	n/a	catFR1	0	R1245E
2358.573	0.008	2365414	COUNTDOWN_END	n/a	n/a	n/a	n/a	-999	18	[0, 0, 0]	n/a	catFR1	0	R1245E
2358.581	1.617	2365422	ORIENT	n/a	n/a	n/a	n/a	-999	18	[0, 0, 0]	n/a	catFR1	0	R1245E
2360.198	2.234	2367039	ORIENT_OFF	n/a	n/a	n/a	n/a	-999	18	[0, 0, 0]	n/a	catFR1	0	R1245E
2362.432	1.617	2369273	WORD	n/a	wordpools/wordpool_categorized_EN.txt	SQUID	OceanAnimals	1	18	[0, 0, 0]	n/a	catFR1	0	R1245E
2364.049	0.799	2370890	WORD_OFF	n/a	n/a	SQUID	n/a	1	18	[0, 0, 0]	n/a	catFR1	0	R1245E
2364.848	1.618	2371689	WORD	n/a	wordpools/wordpool_categorized_EN.txt	PLANKTON	OceanAnimals	2	18	[0, 0, 0]	n/a	catFR1	0	R1245E
2366.466	0.833	2373307	WORD_OFF	n/a	n/a	PLANKTON	n/a	2	18	[0, 0, 0]	n/a	catFR1	0	R1245E
2367.299	1.617	2374140	WORD	n/a	wordpools/wordpool_categorized_EN.txt	BOAT	Vehicles	3	18	[0, 0, 0]	n/a	catFR1	0	R1245E
2368.916	0.799	2375757	WORD_OFF	n/a	n/a	BOAT	n/a	3	18	[0, 0, 0]	n/a	catFR1	0	R1245E
2369.715	1.601	2376556	WORD	n/a	wordpools/wordpool_categorized_EN.txt	VAN	Vehicles	4	18	[0, 0, 0]	n/a	catFR1	0	R1245E
2371.316	0.984	2378157	WORD_OFF	n/a	n/a	VAN	n/a	4	18	[0, 0, 0]	n/a	catFR1	0	R1245E
2372.3	1.617	2379141	WORD	n/a	wordpools/wordpool_categorized_EN.txt	SLINKY	Toys	5	18	[0, 0, 0]	n/a	catFR1	0	R1245E
2373.917	0.799	2380758	WORD_OFF	n/a	n/a	SLINKY	n/a	5	18	[0, 0, 0]	n/a	catFR1	0	R1245E
2374.716	1.618	2381557	WORD	n/a	wordpools/wordpool_categorized_EN.txt	FRISBEE	Toys	6	18	[0, 0, 0]	n/a	catFR1	0	R1245E
2376.334	0.817	2383175	WORD_OFF	n/a	n/a	FRISBEE	n/a	6	18	[0, 0, 0]	n/a	catFR1	0	R1245E
2377.151	1.616	2383992	WORD	n/a	wordpools/wordpool_categorized_EN.txt	CRAB	OceanAnimals	7	18	[0, 0, 0]	n/a	catFR1	0	R1245E
2378.767	0.967	2385608	WORD_OFF	n/a	n/a	CRAB	n/a	7	18	[0, 0, 0]	n/a	catFR1	0	R1245E
2379.734	1.618	2386575	WORD	n/a	wordpools/wordpool_categorized_EN.txt	FISH	OceanAnimals	8	18	[0, 0, 0]	n/a	catFR1	0	R1245E
2381.352	0.883	2388192	WORD_OFF	n/a	n/a	FISH	n/a	8	18	[0, 0, 0]	n/a	catFR1	0	R1245E
2382.235	1.616	2389075	WORD	n/a	wordpools/wordpool_categorized_EN.txt	MOTORCYCLE	Vehicles	9	18	[0, 0, 0]	n/a	catFR1	0	R1245E
2383.851	0.783	2390691	WORD_OFF	n/a	n/a	MOTORCYCLE	n/a	9	18	[0, 0, 0]	n/a	catFR1	0	R1245E
2384.634	1.602	2391474	WORD	n/a	wordpools/wordpool_categorized_EN.txt	CAR	Vehicles	10	18	[0, 0, 0]	n/a	catFR1	0	R1245E
2386.236	0.833	2393076	WORD_OFF	n/a	n/a	CAR	n/a	10	18	[0, 0, 0]	n/a	catFR1	0	R1245E
2387.069	1.616	2393909	WORD	n/a	wordpools/wordpool_categorized_EN.txt	DOLL	Toys	11	18	[0, 0, 0]	n/a	catFR1	0	R1245E
2388.685	0.967	2395525	WORD_OFF	n/a	n/a	DOLL	n/a	11	18	[0, 0, 0]	n/a	catFR1	0	R1245E
2389.652	1.601	2396492	WORD	n/a	wordpools/wordpool_categorized_EN.txt	MARBLES	Toys	12	18	[0, 0, 0]	n/a	catFR1	0	R1245E
2391.253	0.0	2398093	ENCODING_END	n/a	n/a	n/a	n/a	-999	18	[0, 0, 0]	n/a	catFR1	0	R1245E
2391.253	0.169	2398093	WORD_OFF	n/a	n/a	MARBLES	n/a	12	18	[0, 0, 0]	n/a	catFR1	0	R1245E
2391.422	0.0	2398262	DISTRACT_START	n/a	n/a	n/a	n/a	-999	18	[0, 0, 0]	n/a	catFR1	0	R1245E
2391.422	0.015	2398262	START	n/a	n/a	n/a	n/a	-999	19	[-999, -999, -999]	n/a	catFR1	0	R1245E
2391.437	6.217	2398277	PROB	6.217	n/a	n/a	n/a	-999	19	[4, 2, 9]	17	catFR1	0	R1245E
2397.654	7.535	2404494	PROB	7.535	n/a	n/a	n/a	-999	19	[4, 8, 6]	18	catFR1	0	R1245E
2405.189	8.359	2412028	PROB	8.359	n/a	n/a	n/a	-999	19	[6, 1, 3]	10	catFR1	0	R1245E
2413.548	0.01	2420387	STOP	n/a	n/a	n/a	n/a	-999	19	[-999, -999, -999]	n/a	catFR1	0	R1245E
2413.558	0.583	2420397	DISTRACT_END	n/a	n/a	n/a	n/a	-999	18	[0, 0, 0]	n/a	catFR1	0	R1245E
2414.141	0.516	2420980	RETRIEVAL_ORIENT	n/a	n/a	n/a	n/a	-999	18	[0, 0, 0]	n/a	catFR1	0	R1245E
2414.657	1.058	2421496	REC_START	n/a	n/a	n/a	n/a	-999	18	[0, 0, 0]	n/a	catFR1	0	R1245E
2415.715	9.613	2422554	REC_WORD	9.613	n/a	MARBLES	Toys	12	18	[0, 0, 0]	n/a	catFR1	0	R1245E
2425.328	3.461	2432167	REC_WORD	3.461	n/a	SLINKY	Toys	5	18	[0, 0, 0]	n/a	catFR1	0	R1245E
2428.789	0.932	2435627	REC_WORD	0.932	n/a	BOAT	Vehicles	3	18	[0, 0, 0]	n/a	catFR1	0	R1245E
2429.721	4.295	2436559	REC_WORD	4.295	n/a	CAR	Vehicles	10	18	[0, 0, 0]	n/a	catFR1	0	R1245E
2434.016	10.652	2440854	REC_WORD	10.652	n/a	BUS	n/a	-999	18	[0, 0, 0]	n/a	catFR1	0	R1245E
2444.668	5.662	2451506	REC_END	n/a	n/a	n/a	n/a	-999	18	[0, 0, 0]	n/a	catFR1	0	R1245E
2450.33	0.5	2457168	TRIAL	n/a	n/a	n/a	n/a	-999	19	[0, 0, 0]	n/a	catFR1	0	R1245E
2450.83	10.428	2457668	COUNTDOWN_START	n/a	n/a	n/a	n/a	-999	19	[0, 0, 0]	n/a	catFR1	0	R1245E
2461.258	0.008	2468095	COUNTDOWN_END	n/a	n/a	n/a	n/a	-999	19	[0, 0, 0]	n/a	catFR1	0	R1245E
2461.266	1.617	2468103	ORIENT	n/a	n/a	n/a	n/a	-999	19	[0, 0, 0]	n/a	catFR1	0	R1245E
2462.883	2.083	2469720	ORIENT_OFF	n/a	n/a	n/a	n/a	-999	19	[0, 0, 0]	n/a	catFR1	0	R1245E
2464.966	1.617	2471803	WORD	n/a	wordpools/wordpool_categorized_EN.txt	LIME	Fruit	1	19	[0, 0, 0]	n/a	catFR1	0	R1245E
2466.583	0.767	2473420	WORD_OFF	n/a	n/a	LIME	n/a	1	19	[0, 0, 0]	n/a	catFR1	0	R1245E
2467.35	1.617	2474187	WORD	n/a	wordpools/wordpool_categorized_EN.txt	PLUM	Fruit	2	19	[0, 0, 0]	n/a	catFR1	0	R1245E
2468.967	0.849	2475804	WORD_OFF	n/a	n/a	PLUM	n/a	2	19	[0, 0, 0]	n/a	catFR1	0	R1245E
2469.816	1.618	2476653	WORD	n/a	wordpools/wordpool_categorized_EN.txt	MOSQUITO	Insects	3	19	[0, 0, 0]	n/a	catFR1	0	R1245E
2471.434	0.867	2478271	WORD_OFF	n/a	n/a	MOSQUITO	n/a	3	19	[0, 0, 0]	n/a	catFR1	0	R1245E
2472.301	1.617	2479138	WORD	n/a	wordpools/wordpool_categorized_EN.txt	MOTH	Insects	4	19	[0, 0, 0]	n/a	catFR1	0	R1245E
2473.918	1.0	2480755	WORD_OFF	n/a	n/a	MOTH	n/a	4	19	[0, 0, 0]	n/a	catFR1	0	R1245E
2474.918	1.617	2481755	WORD	n/a	wordpools/wordpool_categorized_EN.txt	GUITAR	Instruments	5	19	[0, 0, 0]	n/a	catFR1	0	R1245E
2476.535	0.934	2483372	WORD_OFF	n/a	n/a	GUITAR	n/a	5	19	[0, 0, 0]	n/a	catFR1	0	R1245E
2477.469	1.617	2484305	WORD	n/a	wordpools/wordpool_categorized_EN.txt	TRUMPET	Instruments	6	19	[0, 0, 0]	n/a	catFR1	0	R1245E
2479.086	0.8	2485922	WORD_OFF	n/a	n/a	TRUMPET	n/a	6	19	[0, 0, 0]	n/a	catFR1	0	R1245E
2479.886	1.617	2486722	WORD	n/a	wordpools/wordpool_categorized_EN.txt	LADYBUG	Insects	7	19	[0, 0, 0]	n/a	catFR1	0	R1245E
2481.503	0.833	2488339	WORD_OFF	n/a	n/a	LADYBUG	n/a	7	19	[0, 0, 0]	n/a	catFR1	0	R1245E
2482.336	1.617	2489172	WORD	n/a	wordpools/wordpool_categorized_EN.txt	BEETLE	Insects	8	19	[0, 0, 0]	n/a	catFR1	0	R1245E
2483.953	0.849	2490789	WORD_OFF	n/a	n/a	BEETLE	n/a	8	19	[0, 0, 0]	n/a	catFR1	0	R1245E
2484.802	1.601	2491638	WORD	n/a	wordpools/wordpool_categorized_EN.txt	APPLE	Fruit	9	19	[0, 0, 0]	n/a	catFR1	0	R1245E
2486.403	0.934	2493239	WORD_OFF	n/a	n/a	APPLE	n/a	9	19	[0, 0, 0]	n/a	catFR1	0	R1245E
2487.337	1.617	2494173	WORD	n/a	wordpools/wordpool_categorized_EN.txt	LEMON	Fruit	10	19	[0, 0, 0]	n/a	catFR1	0	R1245E
2488.954	0.933	2495790	WORD_OFF	n/a	n/a	LEMON	n/a	10	19	[0, 0, 0]	n/a	catFR1	0	R1245E
2489.887	1.617	2496723	WORD	n/a	wordpools/wordpool_categorized_EN.txt	VIOLIN	Instruments	11	19	[0, 0, 0]	n/a	catFR1	0	R1245E
2491.504	0.817	2498340	WORD_OFF	n/a	n/a	VIOLIN	n/a	11	19	[0, 0, 0]	n/a	catFR1	0	R1245E
2492.321	1.617	2499157	WORD	n/a	wordpools/wordpool_categorized_EN.txt	CELLO	Instruments	12	19	[0, 0, 0]	n/a	catFR1	0	R1245E
2493.938	0.0	2500774	ENCODING_END	n/a	n/a	n/a	n/a	-999	19	[0, 0, 0]	n/a	catFR1	0	R1245E
2493.938	0.133	2500774	WORD_OFF	n/a	n/a	CELLO	n/a	12	19	[0, 0, 0]	n/a	catFR1	0	R1245E
2494.071	0.0	2500907	DISTRACT_START	n/a	n/a	n/a	n/a	-999	19	[0, 0, 0]	n/a	catFR1	0	R1245E
2494.071	0.017	2500907	START	n/a	n/a	n/a	n/a	-999	20	[-999, -999, -999]	n/a	catFR1	0	R1245E
2494.088	9.101	2500924	PROB	9.101	n/a	n/a	n/a	-999	20	[1, 6, 9]	16	catFR1	0	R1245E
2503.189	6.952	2510024	PROB	6.952	n/a	n/a	n/a	-999	20	[1, 3, 3]	7	catFR1	0	R1245E
2510.141	4.964	2516976	PROB	4.964	n/a	n/a	n/a	-999	20	[4, 6, 2]	12	catFR1	0	R1245E
2515.105	0.02	2521940	STOP	n/a	n/a	n/a	n/a	-999	20	[-999, -999, -999]	n/a	catFR1	0	R1245E
2515.125	0.532	2521960	DISTRACT_END	n/a	n/a	n/a	n/a	-999	19	[0, 0, 0]	n/a	catFR1	0	R1245E
2515.657	0.521	2522492	RETRIEVAL_ORIENT	n/a	n/a	n/a	n/a	-999	19	[0, 0, 0]	n/a	catFR1	0	R1245E
2516.178	0.986	2523013	REC_START	n/a	n/a	n/a	n/a	-999	19	[0, 0, 0]	n/a	catFR1	0	R1245E
2517.164	0.659	2523999	REC_WORD	0.659	n/a	CELLO	Instruments	12	19	[0, 0, 0]	n/a	catFR1	0	R1245E
2517.823	1.598	2524658	REC_WORD	1.598	n/a	VIOLIN	Instruments	11	19	[0, 0, 0]	n/a	catFR1	0	R1245E
2519.421	4.297	2526256	REC_WORD	4.297	n/a	TRUMPET	Instruments	6	19	[0, 0, 0]	n/a	catFR1	0	R1245E
2523.718	22.47	2530553	REC_WORD	22.47	n/a	FLUTE	n/a	-999	19	[0, 0, 0]	n/a	catFR1	0	R1245E
2546.188	24.197	2553022	REC_END	n/a	n/a	n/a	n/a	-999	19	[0, 0, 0]	n/a	catFR1	0	R1245E
2570.385	0.5	2577218	TRIAL	n/a	n/a	n/a	n/a	-999	20	[0, 0, 0]	n/a	catFR1	0	R1245E
2570.885	10.428	2577718	COUNTDOWN_START	n/a	n/a	n/a	n/a	-999	20	[0, 0, 0]	n/a	catFR1	0	R1245E
2581.313	0.007	2588145	COUNTDOWN_END	n/a	n/a	n/a	n/a	-999	20	[0, 0, 0]	n/a	catFR1	0	R1245E
2581.32	1.617	2588152	ORIENT	n/a	n/a	n/a	n/a	-999	20	[0, 0, 0]	n/a	catFR1	0	R1245E
2582.937	2.067	2589769	ORIENT_OFF	n/a	n/a	n/a	n/a	-999	20	[0, 0, 0]	n/a	catFR1	0	R1245E
2585.004	1.616	2591836	WORD	n/a	wordpools/wordpool_categorized_EN.txt	CRICKET	Insects	1	20	[0, 0, 0]	n/a	catFR1	0	R1245E
2586.62	0.918	2593452	WORD_OFF	n/a	n/a	CRICKET	n/a	1	20	[0, 0, 0]	n/a	catFR1	0	R1245E
2587.538	1.617	2594370	WORD	n/a	wordpools/wordpool_categorized_EN.txt	BEE	Insects	2	20	[0, 0, 0]	n/a	catFR1	0	R1245E
2589.155	0.967	2595987	WORD_OFF	n/a	n/a	BEE	n/a	2	20	[0, 0, 0]	n/a	catFR1	0	R1245E
2590.122	1.616	2596954	WORD	n/a	wordpools/wordpool_categorized_EN.txt	LETTUCE	Vegetables	3	20	[0, 0, 0]	n/a	catFR1	0	R1245E
2591.738	0.9	2598570	WORD_OFF	n/a	n/a	LETTUCE	n/a	3	20	[0, 0, 0]	n/a	catFR1	0	R1245E
2592.638	1.618	2599470	WORD	n/a	wordpools/wordpool_categorized_EN.txt	CAULIFLOWER	Vegetables	4	20	[0, 0, 0]	n/a	catFR1	0	R1245E
2594.256	0.817	2601088	WORD_OFF	n/a	n/a	CAULIFLOWER	n/a	4	20	[0, 0, 0]	n/a	catFR1	0	R1245E
2595.073	1.616	2601905	WORD	n/a	wordpools/wordpool_categorized_EN.txt	BASKETBALL	Toys	5	20	[0, 0, 0]	n/a	catFR1	0	R1245E
2596.689	0.933	2603521	WORD_OFF	n/a	n/a	BASKETBALL	n/a	5	20	[0, 0, 0]	n/a	catFR1	0	R1245E
2597.622	1.618	2604453	WORD	n/a	wordpools/wordpool_categorized_EN.txt	PUZZLE	Toys	6	20	[0, 0, 0]	n/a	catFR1	0	R1245E
2599.24	0.967	2606071	WORD_OFF	n/a	n/a	PUZZLE	n/a	6	20	[0, 0, 0]	n/a	catFR1	0	R1245E
2600.207	1.616	2607038	WORD	n/a	wordpools/wordpool_categorized_EN.txt	BUTTERFLY	Insects	7	20	[0, 0, 0]	n/a	catFR1	0	R1245E
2601.823	0.933	2608654	WORD_OFF	n/a	n/a	BUTTERFLY	n/a	7	20	[0, 0, 0]	n/a	catFR1	0	R1245E
2602.756	1.601	2609587	WORD	n/a	wordpools/wordpool_categorized_EN.txt	GNAT	Insects	8	20	[0, 0, 0]	n/a	catFR1	0	R1245E
2604.357	0.984	2611188	WORD_OFF	n/a	n/a	GNAT	n/a	8	20	[0, 0, 0]	n/a	catFR1	0	R1245E
2605.341	1.617	2612172	WORD	n/a	wordpools/wordpool_categorized_EN.txt	CABBAGE	Vegetables	9	20	[0, 0, 0]	n/a	catFR1	0	R1245E
2606.958	0.934	2613789	WORD_OFF	n/a	n/a	CABBAGE	n/a	9	20	[0, 0, 0]	n/a	catFR1	0	R1245E
2607.892	1.616	2614723	WORD	n/a	wordpools/wordpool_categorized_EN.txt	ONION	Vegetables	10	20	[0, 0, 0]	n/a	catFR1	0	R1245E
2609.508	0.917	2616339	WORD_OFF	n/a	n/a	ONION	n/a	10	20	[0, 0, 0]	n/a	catFR1	0	R1245E
2610.425	1.617	2617256	WORD	n/a	wordpools/wordpool_categorized_EN.txt	BALL	Toys	11	20	[0, 0, 0]	n/a	catFR1	0	R1245E
2612.042	0.817	2618873	WORD_OFF	n/a	n/a	BALL	n/a	11	20	[0, 0, 0]	n/a	catFR1	0	R1245E
2612.859	1.617	2619690	WORD	n/a	wordpools/wordpool_categorized_EN.txt	BASEBALL	Toys	12	20	[0, 0, 0]	n/a	catFR1	0	R1245E
2614.476	0.0	2621307	ENCODING_END	n/a	n/a	n/a	n/a	-999	20	[0, 0, 0]	n/a	catFR1	0	R1245E
2614.476	0.134	2621307	WORD_OFF	n/a	n/a	BASEBALL	n/a	12	20	[0, 0, 0]	n/a	catFR1	0	R1245E
2614.61	0.0	2621441	DISTRACT_START	n/a	n/a	n/a	n/a	-999	20	[0, 0, 0]	n/a	catFR1	0	R1245E
2614.61	0.015	2621441	START	n/a	n/a	n/a	n/a	-999	21	[-999, -999, -999]	n/a	catFR1	0	R1245E
2614.625	4.335	2621456	PROB	4.335	n/a	n/a	n/a	-999	21	[4, 1, 5]	10	catFR1	0	R1245E
2618.96	3.017	2625791	PROB	3.017	n/a	n/a	n/a	-999	21	[7, 3, 1]	11	catFR1	0	R1245E
2621.977	8.502	2628807	PROB	8.502	n/a	n/a	n/a	-999	21	[7, 9, 9]	25	catFR1	0	R1245E
2630.479	5.495	2637309	PROB	5.495	n/a	n/a	n/a	-999	21	[7, 9, 9]	25	catFR1	0	R1245E
2635.974	0.006	2642804	STOP	n/a	n/a	n/a	n/a	-999	21	[-999, -999, -999]	n/a	catFR1	0	R1245E
2635.98	0.632	2642810	DISTRACT_END	n/a	n/a	n/a	n/a	-999	20	[0, 0, 0]	n/a	catFR1	0	R1245E
2636.612	0.519	2643442	RETRIEVAL_ORIENT	n/a	n/a	n/a	n/a	-999	20	[0, 0, 0]	n/a	catFR1	0	R1245E
2637.131	1.259	2643961	REC_START	n/a	n/a	n/a	n/a	-999	20	[0, 0, 0]	n/a	catFR1	0	R1245E
2638.39	0.792	2645220	REC_WORD	0.792	n/a	BASEBALL	Toys	12	20	[0, 0, 0]	n/a	catFR1	0	R1245E
2639.182	2.079	2646012	REC_WORD	2.079	n/a	BALL	Toys	11	20	[0, 0, 0]	n/a	catFR1	0	R1245E
2641.261	2.477	2648091	REC_WORD_VV	2.477	n/a	<>	n/a	-999	20	[0, 0, 0]	n/a	catFR1	0	R1245E
2643.738	4.917	2650568	REC_WORD	4.917	n/a	ONION	Vegetables	10	20	[0, 0, 0]	n/a	catFR1	0	R1245E
2648.655	18.487	2655484	REC_WORD	18.487	n/a	CABBAGE	Vegetables	9	20	[0, 0, 0]	n/a	catFR1	0	R1245E
2667.142	5.961	2673971	REC_END	n/a	n/a	n/a	n/a	-999	20	[0, 0, 0]	n/a	catFR1	0	R1245E
2673.103	0.5	2679931	TRIAL	n/a	n/a	n/a	n/a	-999	21	[0, 0, 0]	n/a	catFR1	0	R1245E
2673.603	10.428	2680431	COUNTDOWN_START	n/a	n/a	n/a	n/a	-999	21	[0, 0, 0]	n/a	catFR1	0	R1245E
2684.031	0.007	2690859	COUNTDOWN_END	n/a	n/a	n/a	n/a	-999	21	[0, 0, 0]	n/a	catFR1	0	R1245E
2684.038	1.616	2690866	ORIENT	n/a	n/a	n/a	n/a	-999	21	[0, 0, 0]	n/a	catFR1	0	R1245E
2685.654	2.117	2692482	ORIENT_OFF	n/a	n/a	n/a	n/a	-999	21	[0, 0, 0]	n/a	catFR1	0	R1245E
2687.771	1.618	2694599	WORD	n/a	wordpools/wordpool_categorized_EN.txt	BANJO	Instruments	1	21	[0, 0, 0]	n/a	catFR1	0	R1245E
2689.389	0.784	2696217	WORD_OFF	n/a	n/a	BANJO	n/a	1	21	[0, 0, 0]	n/a	catFR1	0	R1245E
2690.173	1.616	2697001	WORD	n/a	wordpools/wordpool_categorized_EN.txt	DRUM	Instruments	2	21	[0, 0, 0]	n/a	catFR1	0	R1245E
2691.789	0.767	2698617	WORD_OFF	n/a	n/a	DRUM	n/a	2	21	[0, 0, 0]	n/a	catFR1	0	R1245E
2692.556	1.617	2699384	WORD	n/a	wordpools/wordpool_categorized_EN.txt	DAISY	Flowers	3	21	[0, 0, 0]	n/a	catFR1	0	R1245E
2694.173	0.984	2701000	WORD_OFF	n/a	n/a	DAISY	n/a	3	21	[0, 0, 0]	n/a	catFR1	0	R1245E
2695.157	1.616	2701984	WORD	n/a	wordpools/wordpool_categorized_EN.txt	DAFFODIL	Flowers	4	21	[0, 0, 0]	n/a	catFR1	0	R1245E
2696.773	0.917	2703600	WORD_OFF	n/a	n/a	DAFFODIL	n/a	4	21	[0, 0, 0]	n/a	catFR1	0	R1245E
2697.69	1.618	2704517	WORD	n/a	wordpools/wordpool_categorized_EN.txt	CHEESECAKE	Desserts	5	21	[0, 0, 0]	n/a	catFR1	0	R1245E
2699.308	1.0	2706135	WORD_OFF	n/a	n/a	CHEESECAKE	n/a	5	21	[0, 0, 0]	n/a	catFR1	0	R1245E
2700.308	1.617	2707135	WORD	n/a	wordpools/wordpool_categorized_EN.txt	MOUSSE	Desserts	6	21	[0, 0, 0]	n/a	catFR1	0	R1245E
2701.925	1.0	2708752	WORD_OFF	n/a	n/a	MOUSSE	n/a	6	21	[0, 0, 0]	n/a	catFR1	0	R1245E
2702.925	1.617	2709752	WORD	n/a	wordpools/wordpool_categorized_EN.txt	ORGAN	Instruments	7	21	[0, 0, 0]	n/a	catFR1	0	R1245E
2704.542	0.9	2711369	WORD_OFF	n/a	n/a	ORGAN	n/a	7	21	[0, 0, 0]	n/a	catFR1	0	R1245E
2705.442	1.617	2712269	WORD	n/a	wordpools/wordpool_categorized_EN.txt	PIANO	Instruments	8	21	[0, 0, 0]	n/a	catFR1	0	R1245E
2707.059	1.0	2713886	WORD_OFF	n/a	n/a	PIANO	n/a	8	21	[0, 0, 0]	n/a	catFR1	0	R1245E
2708.059	1.616	2714886	WORD	n/a	wordpools/wordpool_categorized_EN.txt	VIOLET	Flowers	9	21	[0, 0, 0]	n/a	catFR1	0	R1245E
2709.675	0.984	2716502	WORD_OFF	n/a	n/a	VIOLET	n/a	9	21	[0, 0, 0]	n/a	catFR1	0	R1245E
2710.659	1.618	2717486	WORD	n/a	wordpools/wordpool_categorized_EN.txt	MARIGOLD	Flowers	10	21	[0, 0, 0]	n/a	catFR1	0	R1245E
2712.277	0.866	2719104	WORD_OFF	n/a	n/a	MARIGOLD	n/a	10	21	[0, 0, 0]	n/a	catFR1	0	R1245E
2713.143	1.616	2719970	WORD	n/a	wordpools/wordpool_categorized_EN.txt	COOKIE	Desserts	11	21	[0, 0, 0]	n/a	catFR1	0	R1245E
2714.759	0.884	2721586	WORD_OFF	n/a	n/a	COOKIE	n/a	11	21	[0, 0, 0]	n/a	catFR1	0	R1245E
2715.643	1.618	2722470	WORD	n/a	wordpools/wordpool_categorized_EN.txt	COBBLER	Desserts	12	21	[0, 0, 0]	n/a	catFR1	0	R1245E
2717.261	0.0	2724088	ENCODING_END	n/a	n/a	n/a	n/a	-999	21	[0, 0, 0]	n/a	catFR1	0	R1245E
2717.261	0.165	2724088	WORD_OFF	n/a	n/a	COBBLER	n/a	12	21	[0, 0, 0]	n/a	catFR1	0	R1245E
2717.426	0.0	2724253	DISTRACT_START	n/a	n/a	n/a	n/a	-999	21	[0, 0, 0]	n/a	catFR1	0	R1245E
2717.426	0.018	2724253	START	n/a	n/a	n/a	n/a	-999	22	[-999, -999, -999]	n/a	catFR1	0	R1245E
2717.444	3.934	2724271	PROB	3.934	n/a	n/a	n/a	-999	22	[2, 5, 3]	10	catFR1	0	R1245E
2721.378	5.118	2728204	PROB	5.118	n/a	n/a	n/a	-999	22	[2, 7, 5]	14	catFR1	0	R1245E
2726.496	4.034	2733322	PROB	4.034	n/a	n/a	n/a	-999	22	[9, 6, 1]	16	catFR1	0	R1245E
2730.53	7.15	2737356	PROB	7.15	n/a	n/a	n/a	-999	22	[6, 8, 9]	23	catFR1	0	R1245E
2737.68	0.017	2744506	STOP	n/a	n/a	n/a	n/a	-999	22	[-999, -999, -999]	n/a	catFR1	0	R1245E
2737.697	0.584	2744523	DISTRACT_END	n/a	n/a	n/a	n/a	-999	21	[0, 0, 0]	n/a	catFR1	0	R1245E
2738.281	0.517	2745107	RETRIEVAL_ORIENT	n/a	n/a	n/a	n/a	-999	21	[0, 0, 0]	n/a	catFR1	0	R1245E
2738.798	1.869	2745624	REC_START	n/a	n/a	n/a	n/a	-999	21	[0, 0, 0]	n/a	catFR1	0	R1245E
2740.667	0.599	2747493	REC_WORD	0.599	n/a	COOKIE	Desserts	11	21	[0, 0, 0]	n/a	catFR1	0	R1245E
2741.266	4.201	2748092	REC_WORD	4.201	n/a	MARIGOLD	Flowers	10	21	[0, 0, 0]	n/a	catFR1	0	R1245E
2745.467	6.367	2752292	REC_WORD	6.367	n/a	VIOLET	Flowers	9	21	[0, 0, 0]	n/a	catFR1	0	R1245E
2751.834	0.637	2758659	REC_WORD_VV	0.637	n/a	<>	n/a	-999	21	[0, 0, 0]	n/a	catFR1	0	R1245E
2752.471	5.633	2759296	REC_WORD	5.633	n/a	DAFFODIL	Flowers	4	21	[0, 0, 0]	n/a	catFR1	0	R1245E
2758.104	10.705	2764929	REC_WORD	10.705	n/a	TULIP	n/a	-999	21	[0, 0, 0]	n/a	catFR1	0	R1245E
2768.809	5.861	2775633	REC_END	n/a	n/a	n/a	n/a	-999	21	[0, 0, 0]	n/a	catFR1	0	R1245E
2774.67	0.5	2781494	TRIAL	n/a	n/a	n/a	n/a	-999	22	[0, 0, 0]	n/a	catFR1	0	R1245E
2775.17	10.428	2781994	COUNTDOWN_START	n/a	n/a	n/a	n/a	-999	22	[0, 0, 0]	n/a	catFR1	0	R1245E
2785.598	0.008	2792422	COUNTDOWN_END	n/a	n/a	n/a	n/a	-999	22	[0, 0, 0]	n/a	catFR1	0	R1245E
2785.606	1.617	2792430	ORIENT	n/a	n/a	n/a	n/a	-999	22	[0, 0, 0]	n/a	catFR1	0	R1245E
2787.223	2.134	2794047	ORIENT_OFF	n/a	n/a	n/a	n/a	-999	22	[0, 0, 0]	n/a	catFR1	0	R1245E
2789.357	1.617	2796181	WORD	n/a	wordpools/wordpool_categorized_EN.txt	SPEAKER	Electronics	1	22	[0, 0, 0]	n/a	catFR1	0	R1245E
2790.974	0.766	2797797	WORD_OFF	n/a	n/a	SPEAKER	n/a	1	22	[0, 0, 0]	n/a	catFR1	0	R1245E
2791.74	1.618	2798563	WORD	n/a	wordpools/wordpool_categorized_EN.txt	SCANNER	Electronics	2	22	[0, 0, 0]	n/a	catFR1	0	R1245E
2793.358	0.9	2800181	WORD_OFF	n/a	n/a	SCANNER	n/a	2	22	[0, 0, 0]	n/a	catFR1	0	R1245E
2794.258	1.617	2801081	WORD	n/a	wordpools/wordpool_categorized_EN.txt	NIGHTSTAND	Furniture	3	22	[0, 0, 0]	n/a	catFR1	0	R1245E
2795.875	0.782	2802698	WORD_OFF	n/a	n/a	NIGHTSTAND	n/a	3	22	[0, 0, 0]	n/a	catFR1	0	R1245E
2796.657	1.618	2803480	WORD	n/a	wordpools/wordpool_categorized_EN.txt	CHAIR	Furniture	4	22	[0, 0, 0]	n/a	catFR1	0	R1245E
2798.275	0.984	2805098	WORD_OFF	n/a	n/a	CHAIR	n/a	4	22	[0, 0, 0]	n/a	catFR1	0	R1245E
2799.259	1.617	2806082	WORD	n/a	wordpools/wordpool_categorized_EN.txt	THUNDER	Weather	5	22	[0, 0, 0]	n/a	catFR1	0	R1245E
2800.876	0.932	2807699	WORD_OFF	n/a	n/a	THUNDER	n/a	5	22	[0, 0, 0]	n/a	catFR1	0	R1245E
2801.808	1.618	2808631	WORD	n/a	wordpools/wordpool_categorized_EN.txt	SNOW	Weather	6	22	[0, 0, 0]	n/a	catFR1	0	R1245E
2803.426	0.783	2810249	WORD_OFF	n/a	n/a	SNOW	n/a	6	22	[0, 0, 0]	n/a	catFR1	0	R1245E
2804.209	1.616	2811032	WORD	n/a	wordpools/wordpool_categorized_EN.txt	DESK	Furniture	7	22	[0, 0, 0]	n/a	catFR1	0	R1245E
2805.825	0.768	2812648	WORD_OFF	n/a	n/a	DESK	n/a	7	22	[0, 0, 0]	n/a	catFR1	0	R1245E
2806.593	1.617	2813416	WORD	n/a	wordpools/wordpool_categorized_EN.txt	RECLINER	Furniture	8	22	[0, 0, 0]	n/a	catFR1	0	R1245E
2808.21	1.0	2815033	WORD_OFF	n/a	n/a	RECLINER	n/a	8	22	[0, 0, 0]	n/a	catFR1	0	R1245E
2809.21	1.616	2816033	WORD	n/a	wordpools/wordpool_categorized_EN.txt	STEREO	Electronics	9	22	[0, 0, 0]	n/a	catFR1	0	R1245E
2810.826	0.784	2817649	WORD_OFF	n/a	n/a	STEREO	n/a	9	22	[0, 0, 0]	n/a	catFR1	0	R1245E
2811.61	1.618	2818433	WORD	n/a	wordpools/wordpool_categorized_EN.txt	RADIO	Electronics	10	22	[0, 0, 0]	n/a	catFR1	0	R1245E
2813.228	0.933	2820051	WORD_OFF	n/a	n/a	RADIO	n/a	10	22	[0, 0, 0]	n/a	catFR1	0	R1245E
2814.161	1.616	2820983	WORD	n/a	wordpools/wordpool_categorized_EN.txt	THUNDERSTORM	Weather	11	22	[0, 0, 0]	n/a	catFR1	0	R1245E
2815.777	0.867	2822599	WORD_OFF	n/a	n/a	THUNDERSTORM	n/a	11	22	[0, 0, 0]	n/a	catFR1	0	R1245E
2816.644	1.618	2823466	WORD	n/a	wordpools/wordpool_categorized_EN.txt	LIGHTNING	Weather	12	22	[0, 0, 0]	n/a	catFR1	0	R1245E
2818.262	0.0	2825084	ENCODING_END	n/a	n/a	n/a	n/a	-999	22	[0, 0, 0]	n/a	catFR1	0	R1245E
2818.262	0.13	2825084	WORD_OFF	n/a	n/a	LIGHTNING	n/a	12	22	[0, 0, 0]	n/a	catFR1	0	R1245E
2818.392	0.0	2825214	DISTRACT_START	n/a	n/a	n/a	n/a	-999	22	[0, 0, 0]	n/a	catFR1	0	R1245E
2818.392	0.02	2825214	START	n/a	n/a	n/a	n/a	-999	23	[-999, -999, -999]	n/a	catFR1	0	R1245E
2818.412	5.034	2825234	PROB	5.034	n/a	n/a	n/a	-999	23	[5, 4, 6]	15	catFR1	0	R1245E
2823.446	4.3	2830268	PROB	4.3	n/a	n/a	n/a	-999	23	[2, 4, 1]	7	catFR1	0	R1245E
2827.746	3.618	2834568	PROB	3.618	n/a	n/a	n/a	-999	23	[9, 4, 2]	15	catFR1	0	R1245E
2831.364	4.45	2838186	PROB	4.45	n/a	n/a	n/a	-999	23	[1, 6, 3]	10	catFR1	0	R1245E
2835.814	5.077	2842636	PROB	5.077	n/a	n/a	n/a	-999	23	[3, 2, 2]	7	catFR1	0	R1245E
2840.891	0.009	2847712	STOP	n/a	n/a	n/a	n/a	-999	23	[-999, -999, -999]	n/a	catFR1	0	R1245E
2840.9	0.566	2847721	DISTRACT_END	n/a	n/a	n/a	n/a	-999	22	[0, 0, 0]	n/a	catFR1	0	R1245E
