onset	duration	sample	trial_type	response_time	stim_file	item_name	category	serialpos	list	test	answer	experiment	session	subject
0.0	164.899	163761	INSTRUCT_START	n/a	n/a	n/a	n/a	-999	-999	[0, 0, 0]	n/a	catFR1	0	R1476J
164.899	80.867	328655	INSTRUCT_END	n/a	n/a	n/a	n/a	-999	-999	[0, 0, 0]	n/a	catFR1	0	R1476J
245.766	10.0	409518	COUNTDOWN_START	n/a	n/a	n/a	n/a	-999	-999	[0, 0, 0]	n/a	catFR1	0	R1476J
256.116	0.0	419867	COUNTDOWN_END	n/a	n/a	n/a	n/a	-999	-999	[0, 0, 0]	n/a	catFR1	0	R1476J
256.116	1.949	419867	ENCODING_START	n/a	n/a	n/a	n/a	-999	-1	[0, 0, 0]	n/a	catFR1	0	R1476J
258.065	1.6	421814	WORD	n/a	n/a	DOLLHOUSE	Toys	1	-1	[0, 0, 0]	n/a	catFR1	0	R1476J
259.666	0.766	423413	WORD_OFF	n/a	n/a	DOLLHOUSE	Toys	1	-1	[0, 0, 0]	n/a	catFR1	0	R1476J
260.432	1.6	424183	WORD	n/a	n/a	BASEBALL	Toys	2	-1	[0, 0, 0]	n/a	catFR1	0	R1476J
262.033	0.816	425782	WORD_OFF	n/a	n/a	BASEBALL	Toys	2	-1	[0, 0, 0]	n/a	catFR1	0	R1476J
262.849	1.6	426596	WORD	n/a	n/a	ELBOW	BodyParts	3	-1	[0, 0, 0]	n/a	catFR1	0	R1476J
264.45	0.833	428195	WORD_OFF	n/a	n/a	ELBOW	BodyParts	3	-1	[0, 0, 0]	n/a	catFR1	0	R1476J
265.283	1.6	429032	WORD	n/a	n/a	FOOT	BodyParts	4	-1	[0, 0, 0]	n/a	catFR1	0	R1476J
266.899	0.866	430646	WORD_OFF	n/a	n/a	FOOT	BodyParts	4	-1	[0, 0, 0]	n/a	catFR1	0	R1476J
267.765	1.6	431512	WORD	n/a	n/a	ANT	Insects	5	-1	[0, 0, 0]	n/a	catFR1	0	R1476J
269.366	0.9	433111	WORD_OFF	n/a	n/a	ANT	Insects	5	-1	[0, 0, 0]	n/a	catFR1	0	R1476J
270.266	1.6	434014	WORD	n/a	n/a	BEE	Insects	6	-1	[0, 0, 0]	n/a	catFR1	0	R1476J
271.882	0.884	435628	WORD_OFF	n/a	n/a	BEE	Insects	6	-1	[0, 0, 0]	n/a	catFR1	0	R1476J
272.766	1.6	436516	WORD	n/a	n/a	DOLL	Toys	7	-1	[0, 0, 0]	n/a	catFR1	0	R1476J
274.383	0.849	438130	WORD_OFF	n/a	n/a	DOLL	Toys	7	-1	[0, 0, 0]	n/a	catFR1	0	R1476J
275.232	1.6	438982	WORD	n/a	n/a	PUZZLE	Toys	8	-1	[0, 0, 0]	n/a	catFR1	0	R1476J
276.832	0.867	440581	WORD_OFF	n/a	n/a	PUZZLE	Toys	8	-1	[0, 0, 0]	n/a	catFR1	0	R1476J
277.699	1.6	441447	WORD	n/a	n/a	BUTTERFLY	Insects	9	-1	[0, 0, 0]	n/a	catFR1	0	R1476J
279.3	0.949	443046	WORD_OFF	n/a	n/a	BUTTERFLY	Insects	9	-1	[0, 0, 0]	n/a	catFR1	0	R1476J
280.249	1.6	444001	WORD	n/a	n/a	GNAT	Insects	10	-1	[0, 0, 0]	n/a	catFR1	0	R1476J
281.865	0.851	445615	WORD_OFF	n/a	n/a	GNAT	Insects	10	-1	[0, 0, 0]	n/a	catFR1	0	R1476J
282.716	1.6	446466	WORD	n/a	n/a	HEAD	BodyParts	11	-1	[0, 0, 0]	n/a	catFR1	0	R1476J
284.333	0.799	448080	WORD_OFF	n/a	n/a	HEAD	BodyParts	11	-1	[0, 0, 0]	n/a	catFR1	0	R1476J
285.132	1.6	448879	WORD	n/a	n/a	TOE	BodyParts	12	-1	[0, 0, 0]	n/a	catFR1	0	R1476J
286.732	0.002	450478	WORD_OFF	n/a	n/a	TOE	BodyParts	12	-1	[0, 0, 0]	n/a	catFR1	0	R1476J
286.734	0.0	450478	ENCODING_END	n/a	n/a	n/a	n/a	-999	-1	[0, 0, 0]	n/a	catFR1	0	R1476J
286.734	0.0	450482	START	n/a	n/a	n/a	n/a	-999	-1	[-999, -999, -999]	n/a	catFR1	0	R1476J
286.734	0.0	450482	PROB	7.099	n/a	n/a	n/a	-999	-1	[5, 3, 6]	14.0	catFR1	0	R1476J
286.734	7.115	450486	DISTRACT_START	n/a	n/a	n/a	n/a	-999	-1	[0, 0, 0]	n/a	catFR1	0	R1476J
293.849	6.051	457596	PROB	6.033	n/a	n/a	n/a	-999	-1	[5, 1, 7]	13.0	catFR1	0	R1476J
299.9	2.933	463647	PROB	2.916	n/a	n/a	n/a	-999	-1	[1, 1, 3]	5.0	catFR1	0	R1476J
302.833	3.566	466580	PROB	3.549	n/a	n/a	n/a	-999	-1	[4, 5, 1]	10.0	catFR1	0	R1476J
306.399	5.1	470146	PROB	5.083	n/a	n/a	n/a	-999	-1	[2, 5, 6]	13.0	catFR1	0	R1476J
311.499	0.0	475245	STOP	n/a	n/a	n/a	n/a	-999	-1	[-999, -999, -999]	n/a	catFR1	0	R1476J
311.499	2.016	475249	DISTRACT_END	n/a	n/a	n/a	n/a	-999	-1	[0, 0, 0]	n/a	catFR1	0	R1476J
313.515	0.0	477261	REC_WORD_VV	0.0	n/a	<>	n/a	-999	-1	[0, 0, 0]	n/a	catFR1	0	R1476J
313.515	3.103	477263	REC_START	n/a	n/a	n/a	n/a	-999	-1	[0, 0, 0]	n/a	catFR1	0	R1476J
316.618	0.917	480364	REC_WORD_VV	3.103	n/a	<>	n/a	-999	-1	[0, 0, 0]	n/a	catFR1	0	R1476J
317.535	2.248	481281	REC_WORD	4.02	n/a	DOLL	Toys	7	-1	[0, 0, 0]	n/a	catFR1	0	R1476J
319.783	1.892	483529	REC_WORD	6.268	n/a	DOLLHOUSE	Toys	1	-1	[0, 0, 0]	n/a	catFR1	0	R1476J
321.675	1.416	485421	REC_WORD	8.16	n/a	ANT	Insects	5	-1	[0, 0, 0]	n/a	catFR1	0	R1476J
323.091	2.36	486837	REC_WORD	9.576	n/a	FOOT	BodyParts	4	-1	[0, 0, 0]	n/a	catFR1	0	R1476J
325.451	3.407	489197	REC_WORD	11.936	n/a	HEAD	BodyParts	11	-1	[0, 0, 0]	n/a	catFR1	0	R1476J
328.858	1.171	492604	REC_WORD_VV	15.343	n/a	<>	n/a	-999	-1	[0, 0, 0]	n/a	catFR1	0	R1476J
330.029	2.072	493775	REC_WORD	16.514	n/a	ELBOW	BodyParts	3	-1	[0, 0, 0]	n/a	catFR1	0	R1476J
332.101	5.01	495847	REC_WORD	18.586	n/a	ARM	n/a	-999	-1	[0, 0, 0]	n/a	catFR1	0	R1476J
337.111	6.576	500856	REC_WORD_VV	23.596	n/a	<>	n/a	-999	-1	[0, 0, 0]	n/a	catFR1	0	R1476J
343.687	36.679	507429	REC_END	n/a	n/a	n/a	n/a	-999	-1	[0, 0, 0]	n/a	catFR1	0	R1476J
380.366	10.0	544111	COUNTDOWN_START	n/a	n/a	n/a	n/a	-999	1	[0, 0, 0]	n/a	catFR1	0	R1476J
390.716	0.0	554461	COUNTDOWN_END	n/a	n/a	n/a	n/a	-999	1	[0, 0, 0]	n/a	catFR1	0	R1476J
390.716	1.9	554461	ENCODING_START	n/a	n/a	n/a	n/a	-999	1	[0, 0, 0]	n/a	catFR1	0	R1476J
392.616	1.6	556356	WORD	n/a	wordpools/wordpool_categorized_EN.txt	ROOM	Building	1	1	[0, 0, 0]	n/a	catFR1	0	R1476J
394.215	0.834	557962	WORD_OFF	n/a	n/a	ROOM	Building	1	1	[0, 0, 0]	n/a	catFR1	0	R1476J
395.049	1.6	558791	WORD	n/a	wordpools/wordpool_categorized_EN.txt	ROOF	Building	2	1	[0, 0, 0]	n/a	catFR1	0	R1476J
396.665	0.802	560405	WORD_OFF	n/a	n/a	ROOF	Building	2	1	[0, 0, 0]	n/a	catFR1	0	R1476J
397.467	1.6	561212	WORD	n/a	wordpools/wordpool_categorized_EN.txt	HICKORY	Trees	3	1	[0, 0, 0]	n/a	catFR1	0	R1476J
399.082	0.867	562826	WORD_OFF	n/a	n/a	HICKORY	Trees	3	1	[0, 0, 0]	n/a	catFR1	0	R1476J
399.949	1.6	563692	WORD	n/a	wordpools/wordpool_categorized_EN.txt	CYPRESS	Trees	4	1	[0, 0, 0]	n/a	catFR1	0	R1476J
401.549	1.0	565291	WORD_OFF	n/a	n/a	CYPRESS	Trees	4	1	[0, 0, 0]	n/a	catFR1	0	R1476J
402.549	1.6	566291	WORD	n/a	wordpools/wordpool_categorized_EN.txt	GIRAFFE	Zoo	5	1	[0, 0, 0]	n/a	catFR1	0	R1476J
404.166	0.983	567904	WORD_OFF	n/a	n/a	GIRAFFE	Zoo	5	1	[0, 0, 0]	n/a	catFR1	0	R1476J
405.149	1.6	568889	WORD	n/a	wordpools/wordpool_categorized_EN.txt	PANDA	Zoo	6	1	[0, 0, 0]	n/a	catFR1	0	R1476J
406.765	1.0	570510	WORD_OFF	n/a	n/a	PANDA	Zoo	6	1	[0, 0, 0]	n/a	catFR1	0	R1476J
407.765	1.6	571510	WORD	n/a	wordpools/wordpool_categorized_EN.txt	FOUNDATION	Building	7	1	[0, 0, 0]	n/a	catFR1	0	R1476J
409.382	0.816	573124	WORD_OFF	n/a	n/a	FOUNDATION	Building	7	1	[0, 0, 0]	n/a	catFR1	0	R1476J
410.198	1.6	573938	WORD	n/a	wordpools/wordpool_categorized_EN.txt	BATHROOM	Building	8	1	[0, 0, 0]	n/a	catFR1	0	R1476J
411.798	0.817	575544	WORD_OFF	n/a	n/a	BATHROOM	Building	8	1	[0, 0, 0]	n/a	catFR1	0	R1476J
412.615	1.6	576359	WORD	n/a	wordpools/wordpool_categorized_EN.txt	MONKEY	Zoo	9	1	[0, 0, 0]	n/a	catFR1	0	R1476J
414.215	0.884	577958	WORD_OFF	n/a	n/a	MONKEY	Zoo	9	1	[0, 0, 0]	n/a	catFR1	0	R1476J
415.099	1.6	578839	WORD	n/a	wordpools/wordpool_categorized_EN.txt	CHIMPANZEE	Zoo	10	1	[0, 0, 0]	n/a	catFR1	0	R1476J
416.715	0.884	580460	WORD_OFF	n/a	n/a	CHIMPANZEE	Zoo	10	1	[0, 0, 0]	n/a	catFR1	0	R1476J
417.599	1.6	581341	WORD	n/a	wordpools/wordpool_categorized_EN.txt	WALNUT	Trees	11	1	[0, 0, 0]	n/a	catFR1	0	R1476J
419.199	0.8	582940	WORD_OFF	n/a	n/a	WALNUT	Trees	11	1	[0, 0, 0]	n/a	catFR1	0	R1476J
419.999	1.6	583739	WORD	n/a	wordpools/wordpool_categorized_EN.txt	SPRUCE	Trees	12	1	[0, 0, 0]	n/a	catFR1	0	R1476J
421.615	0.0	585353	WORD_OFF	n/a	n/a	SPRUCE	Trees	12	1	[0, 0, 0]	n/a	catFR1	0	R1476J
421.615	0.001	585357	PROB	5.251	n/a	n/a	n/a	-999	1	[2, 4, 8]	14.0	catFR1	0	R1476J
421.616	0.0	585358	START	n/a	n/a	n/a	n/a	-999	1	[-999, -999, -999]	n/a	catFR1	0	R1476J
421.616	0.0	585361	ENCODING_END	n/a	n/a	n/a	n/a	-999	1	[0, 0, 0]	n/a	catFR1	0	R1476J
421.616	5.268	585361	DISTRACT_START	n/a	n/a	n/a	n/a	-999	1	[0, 0, 0]	n/a	catFR1	0	R1476J
426.884	4.616	590626	PROB	4.6	n/a	n/a	n/a	-999	1	[5, 8, 1]	14.0	catFR1	0	R1476J
431.5	3.55	595241	PROB	3.533	n/a	n/a	n/a	-999	1	[8, 4, 1]	13.0	catFR1	0	R1476J
435.05	3.333	598791	PROB	3.316	n/a	n/a	n/a	-999	1	[2, 3, 6]	11.0	catFR1	0	R1476J
438.383	3.751	602124	PROB	3.733	n/a	n/a	n/a	-999	1	[3, 3, 1]	7.0	catFR1	0	R1476J
442.134	0.0	605874	DISTRACT_END	n/a	n/a	n/a	n/a	-999	1	[0, 0, 0]	n/a	catFR1	0	R1476J
442.134	2.032	605875	STOP	n/a	n/a	n/a	n/a	-999	1	[-999, -999, -999]	n/a	catFR1	0	R1476J
444.166	0.459	607903	REC_START	n/a	n/a	n/a	n/a	-999	1	[0, 0, 0]	n/a	catFR1	0	R1476J
444.625	1.896	608366	REC_WORD_VV	0.459	n/a	<>	n/a	-999	1	[0, 0, 0]	n/a	catFR1	0	R1476J
446.521	2.685	610262	REC_WORD_VV	2.355	n/a	<>	n/a	-999	1	[0, 0, 0]	n/a	catFR1	0	R1476J
449.206	1.21	612947	REC_WORD	5.04	n/a	ROOM	Building	1	1	[0, 0, 0]	n/a	catFR1	0	R1476J
450.416	1.385	614157	REC_WORD	6.25	n/a	ROOF	Building	2	1	[0, 0, 0]	n/a	catFR1	0	R1476J
451.801	3.283	615542	REC_WORD	7.635	n/a	MAHOGANY	n/a	-999	1	[0, 0, 0]	n/a	catFR1	0	R1476J
455.084	0.988	618824	REC_WORD_VV	10.918	n/a	<>	n/a	-999	1	[0, 0, 0]	n/a	catFR1	0	R1476J
456.072	2.748	619812	REC_WORD	11.906	n/a	PANDA	Zoo	6	1	[0, 0, 0]	n/a	catFR1	0	R1476J
458.82	3.44	622560	REC_WORD	14.654	n/a	ANT	Insects	-999	1	[0, 0, 0]	n/a	catFR1	0	R1476J
462.26	4.687	626000	REC_WORD	18.094	n/a	WALNUT	Trees	11	1	[0, 0, 0]	n/a	catFR1	0	R1476J
466.947	3.878	630687	REC_WORD_VV	22.781	n/a	<>	n/a	-999	1	[0, 0, 0]	n/a	catFR1	0	R1476J
470.825	3.515	634565	REC_WORD	26.659	n/a	HICKORY	Trees	3	1	[0, 0, 0]	n/a	catFR1	0	R1476J
474.34	2.361	638077	REC_END	n/a	n/a	n/a	n/a	-999	1	[0, 0, 0]	n/a	catFR1	0	R1476J
476.701	10.0	640446	COUNTDOWN_START	n/a	n/a	n/a	n/a	-999	2	[0, 0, 0]	n/a	catFR1	0	R1476J
487.05	0.0	650788	COUNTDOWN_END	n/a	n/a	n/a	n/a	-999	2	[0, 0, 0]	n/a	catFR1	0	R1476J
487.05	1.934	650796	ENCODING_START	n/a	n/a	n/a	n/a	-999	2	[0, 0, 0]	n/a	catFR1	0	R1476J
488.984	1.6	652720	WORD	n/a	wordpools/wordpool_categorized_EN.txt	FINGERS	BodyParts	1	2	[0, 0, 0]	n/a	catFR1	0	R1476J
490.584	0.85	654326	WORD_OFF	n/a	n/a	FINGERS	BodyParts	1	2	[0, 0, 0]	n/a	catFR1	0	R1476J
491.434	1.6	655171	WORD	n/a	wordpools/wordpool_categorized_EN.txt	LEG	BodyParts	2	2	[0, 0, 0]	n/a	catFR1	0	R1476J
493.051	0.932	656792	WORD_OFF	n/a	n/a	LEG	BodyParts	2	2	[0, 0, 0]	n/a	catFR1	0	R1476J
493.983	1.6	657725	WORD	n/a	wordpools/wordpool_categorized_EN.txt	DISHWASHER	Appliances	3	2	[0, 0, 0]	n/a	catFR1	0	R1476J
495.584	0.967	659324	WORD_OFF	n/a	n/a	DISHWASHER	Appliances	3	2	[0, 0, 0]	n/a	catFR1	0	R1476J
496.551	1.6	660286	WORD	n/a	wordpools/wordpool_categorized_EN.txt	IRON	Appliances	4	2	[0, 0, 0]	n/a	catFR1	0	R1476J
498.151	0.916	661890	WORD_OFF	n/a	n/a	IRON	Appliances	4	2	[0, 0, 0]	n/a	catFR1	0	R1476J
499.067	1.6	662803	WORD	n/a	wordpools/wordpool_categorized_EN.txt	WIND	Weather	5	2	[0, 0, 0]	n/a	catFR1	0	R1476J
500.668	0.848	664410	WORD_OFF	n/a	n/a	WIND	Weather	5	2	[0, 0, 0]	n/a	catFR1	0	R1476J
501.516	1.6	665254	WORD	n/a	wordpools/wordpool_categorized_EN.txt	LIGHTNING	Weather	6	2	[0, 0, 0]	n/a	catFR1	0	R1476J
503.117	1.0	666853	WORD_OFF	n/a	n/a	LIGHTNING	Weather	6	2	[0, 0, 0]	n/a	catFR1	0	R1476J
504.117	1.6	667859	WORD	n/a	wordpools/wordpool_categorized_EN.txt	NOSE	BodyParts	7	2	[0, 0, 0]	n/a	catFR1	0	R1476J
505.733	0.884	669473	WORD_OFF	n/a	n/a	NOSE	BodyParts	7	2	[0, 0, 0]	n/a	catFR1	0	R1476J
506.617	1.6	670354	WORD	n/a	wordpools/wordpool_categorized_EN.txt	EYE	BodyParts	8	2	[0, 0, 0]	n/a	catFR1	0	R1476J
508.217	0.783	671953	WORD_OFF	n/a	n/a	EYE	BodyParts	8	2	[0, 0, 0]	n/a	catFR1	0	R1476J
509.0	1.6	672738	WORD	n/a	wordpools/wordpool_categorized_EN.txt	DRYER	Appliances	9	2	[0, 0, 0]	n/a	catFR1	0	R1476J
510.6	0.767	674337	WORD_OFF	n/a	n/a	DRYER	Appliances	9	2	[0, 0, 0]	n/a	catFR1	0	R1476J
511.367	1.6	675107	WORD	n/a	wordpools/wordpool_categorized_EN.txt	FREEZER	Appliances	10	2	[0, 0, 0]	n/a	catFR1	0	R1476J
512.983	0.834	676721	WORD_OFF	n/a	n/a	FREEZER	Appliances	10	2	[0, 0, 0]	n/a	catFR1	0	R1476J
513.817	1.6	677557	WORD	n/a	wordpools/wordpool_categorized_EN.txt	TORNADO	Weather	11	2	[0, 0, 0]	n/a	catFR1	0	R1476J
515.434	0.949	679171	WORD_OFF	n/a	n/a	TORNADO	Weather	11	2	[0, 0, 0]	n/a	catFR1	0	R1476J
516.383	1.6	680119	WORD	n/a	wordpools/wordpool_categorized_EN.txt	HURRICANE	Weather	12	2	[0, 0, 0]	n/a	catFR1	0	R1476J
517.983	0.0	681718	WORD_OFF	n/a	n/a	HURRICANE	Weather	12	2	[0, 0, 0]	n/a	catFR1	0	R1476J
517.983	0.001	681721	PROB	4.983	n/a	n/a	n/a	-999	2	[3, 4, 8]	15.0	catFR1	0	R1476J
517.984	0.0	681722	START	n/a	n/a	n/a	n/a	-999	2	[-999, -999, -999]	n/a	catFR1	0	R1476J
517.984	0.0	681725	ENCODING_END	n/a	n/a	n/a	n/a	-999	2	[0, 0, 0]	n/a	catFR1	0	R1476J
517.984	5.0	681725	DISTRACT_START	n/a	n/a	n/a	n/a	-999	2	[0, 0, 0]	n/a	catFR1	0	R1476J
522.984	4.449	686722	PROB	4.432	n/a	n/a	n/a	-999	2	[8, 8, 5]	21.0	catFR1	0	R1476J
527.433	6.484	691170	PROB	6.466	n/a	n/a	n/a	-999	2	[2, 5, 4]	11.0	catFR1	0	R1476J
533.917	5.633	697654	PROB	5.617	n/a	n/a	n/a	-999	2	[4, 8, 5]	17.0	catFR1	0	R1476J
539.55	0.0	703287	STOP	n/a	n/a	n/a	n/a	-999	2	[-999, -999, -999]	n/a	catFR1	0	R1476J
539.55	2.282	703290	DISTRACT_END	n/a	n/a	n/a	n/a	-999	2	[0, 0, 0]	n/a	catFR1	0	R1476J
541.832	0.0	705569	REC_WORD_VV	0.0	n/a	<>	n/a	-999	2	[0, 0, 0]	n/a	catFR1	0	R1476J
541.832	1.0	705571	REC_START	n/a	n/a	n/a	n/a	-999	2	[0, 0, 0]	n/a	catFR1	0	R1476J
542.832	1.0	706569	REC_WORD_VV	1.0	n/a	<>	n/a	-999	2	[0, 0, 0]	n/a	catFR1	0	R1476J
543.832	2.705	707569	REC_WORD_VV	2.0	n/a	<>	n/a	-999	2	[0, 0, 0]	n/a	catFR1	0	R1476J
546.537	2.247	710274	REC_WORD_VV	4.705	n/a	<>	n/a	-999	2	[0, 0, 0]	n/a	catFR1	0	R1476J
548.784	2.116	712521	REC_WORD	6.952	n/a	DISHWASHER	Appliances	3	2	[0, 0, 0]	n/a	catFR1	0	R1476J
550.9	1.295	714636	REC_WORD	9.068	n/a	DRYER	Appliances	9	2	[0, 0, 0]	n/a	catFR1	0	R1476J
552.195	2.201	715931	REC_WORD	10.363	n/a	HEATER	n/a	-999	2	[0, 0, 0]	n/a	catFR1	0	R1476J
554.396	2.295	718132	REC_WORD_VV	12.564	n/a	<>	n/a	-999	2	[0, 0, 0]	n/a	catFR1	0	R1476J
556.691	13.574	720427	REC_WORD_VV	14.859	n/a	<>	n/a	-999	2	[0, 0, 0]	n/a	catFR1	0	R1476J
570.265	1.0	734001	REC_WORD_VV	28.433	n/a	<>	n/a	-999	2	[0, 0, 0]	n/a	catFR1	0	R1476J
571.265	0.784	735001	REC_WORD_VV	29.433	n/a	<>	n/a	-999	2	[0, 0, 0]	n/a	catFR1	0	R1476J
572.049	17.602	735782	REC_END	n/a	n/a	n/a	n/a	-999	2	[0, 0, 0]	n/a	catFR1	0	R1476J
589.651	10.0	753386	COUNTDOWN_START	n/a	n/a	n/a	n/a	-999	3	[0, 0, 0]	n/a	catFR1	0	R1476J
600.0	0.0	763736	COUNTDOWN_END	n/a	n/a	n/a	n/a	-999	3	[0, 0, 0]	n/a	catFR1	0	R1476J
600.0	2.3	763736	ENCODING_START	n/a	n/a	n/a	n/a	-999	3	[0, 0, 0]	n/a	catFR1	0	R1476J
602.3	1.6	766038	WORD	n/a	wordpools/wordpool_categorized_EN.txt	TIGER	Zoo	1	3	[0, 0, 0]	n/a	catFR1	0	R1476J
603.9	0.867	767637	WORD_OFF	n/a	n/a	TIGER	Zoo	1	3	[0, 0, 0]	n/a	catFR1	0	R1476J
604.767	1.6	768503	WORD	n/a	wordpools/wordpool_categorized_EN.txt	BEAR	Zoo	2	3	[0, 0, 0]	n/a	catFR1	0	R1476J
606.383	0.817	770117	WORD_OFF	n/a	n/a	BEAR	Zoo	2	3	[0, 0, 0]	n/a	catFR1	0	R1476J
607.2	1.6	770931	WORD	n/a	wordpools/wordpool_categorized_EN.txt	VAN	Vehicles	3	3	[0, 0, 0]	n/a	catFR1	0	R1476J
608.8	0.817	772538	WORD_OFF	n/a	n/a	VAN	Vehicles	3	3	[0, 0, 0]	n/a	catFR1	0	R1476J
609.617	1.6	773352	WORD	n/a	wordpools/wordpool_categorized_EN.txt	JEEP	Vehicles	4	3	[0, 0, 0]	n/a	catFR1	0	R1476J
611.217	0.998	774951	WORD_OFF	n/a	n/a	JEEP	Vehicles	4	3	[0, 0, 0]	n/a	catFR1	0	R1476J
612.215	1.6	775950	WORD	n/a	wordpools/wordpool_categorized_EN.txt	SCREWDRIVER	Tools	5	3	[0, 0, 0]	n/a	catFR1	0	R1476J
613.816	0.867	777549	WORD_OFF	n/a	n/a	SCREWDRIVER	Tools	5	3	[0, 0, 0]	n/a	catFR1	0	R1476J
614.683	1.6	778416	WORD	n/a	wordpools/wordpool_categorized_EN.txt	LEVEL	Tools	6	3	[0, 0, 0]	n/a	catFR1	0	R1476J
616.283	0.949	780022	WORD_OFF	n/a	n/a	LEVEL	Tools	6	3	[0, 0, 0]	n/a	catFR1	0	R1476J
617.232	1.6	780962	WORD	n/a	wordpools/wordpool_categorized_EN.txt	TRAIN	Vehicles	7	3	[0, 0, 0]	n/a	catFR1	0	R1476J
618.833	0.933	782569	WORD_OFF	n/a	n/a	TRAIN	Vehicles	7	3	[0, 0, 0]	n/a	catFR1	0	R1476J
619.766	1.6	783501	WORD	n/a	wordpools/wordpool_categorized_EN.txt	BIKE	Vehicles	8	3	[0, 0, 0]	n/a	catFR1	0	R1476J
621.382	0.917	785115	WORD_OFF	n/a	n/a	BIKE	Vehicles	8	3	[0, 0, 0]	n/a	catFR1	0	R1476J
622.299	1.6	786033	WORD	n/a	wordpools/wordpool_categorized_EN.txt	ELEPHANT	Zoo	9	3	[0, 0, 0]	n/a	catFR1	0	R1476J
623.916	0.867	787647	WORD_OFF	n/a	n/a	ELEPHANT	Zoo	9	3	[0, 0, 0]	n/a	catFR1	0	R1476J
624.783	1.6	788513	WORD	n/a	wordpools/wordpool_categorized_EN.txt	CHEETAH	Zoo	10	3	[0, 0, 0]	n/a	catFR1	0	R1476J
626.399	0.784	790135	WORD_OFF	n/a	n/a	CHEETAH	Zoo	10	3	[0, 0, 0]	n/a	catFR1	0	R1476J
627.183	1.6	790919	WORD	n/a	wordpools/wordpool_categorized_EN.txt	SANDER	Tools	11	3	[0, 0, 0]	n/a	catFR1	0	R1476J
628.783	0.899	792518	WORD_OFF	n/a	n/a	SANDER	Tools	11	3	[0, 0, 0]	n/a	catFR1	0	R1476J
629.682	1.6	793414	WORD	n/a	wordpools/wordpool_categorized_EN.txt	WRENCH	Tools	12	3	[0, 0, 0]	n/a	catFR1	0	R1476J
631.283	0.001	795013	WORD_OFF	n/a	n/a	WRENCH	Tools	12	3	[0, 0, 0]	n/a	catFR1	0	R1476J
631.284	0.0	795017	PROB	6.966	n/a	n/a	n/a	-999	3	[7, 1, 1]	9.0	catFR1	0	R1476J
631.284	0.0	795017	START	n/a	n/a	n/a	n/a	-999	3	[-999, -999, -999]	n/a	catFR1	0	R1476J
631.284	0.0	795020	ENCODING_END	n/a	n/a	n/a	n/a	-999	3	[0, 0, 0]	n/a	catFR1	0	R1476J
631.284	6.982	795020	DISTRACT_START	n/a	n/a	n/a	n/a	-999	3	[0, 0, 0]	n/a	catFR1	0	R1476J
638.266	4.284	801999	PROB	4.267	n/a	n/a	n/a	-999	3	[5, 3, 8]	16.0	catFR1	0	R1476J
642.55	2.717	806283	PROB	2.7	n/a	n/a	n/a	-999	3	[4, 6, 2]	12.0	catFR1	0	R1476J
645.267	3.317	808999	PROB	3.299	n/a	n/a	n/a	-999	3	[4, 7, 7]	18.0	catFR1	0	R1476J
648.584	4.164	812316	PROB	4.149	n/a	n/a	n/a	-999	3	[6, 7, 7]	20.0	catFR1	0	R1476J
652.748	0.0	816480	STOP	n/a	n/a	n/a	n/a	-999	3	[-999, -999, -999]	n/a	catFR1	0	R1476J
652.748	2.352	816482	DISTRACT_END	n/a	n/a	n/a	n/a	-999	3	[0, 0, 0]	n/a	catFR1	0	R1476J
655.1	0.401	818829	REC_START	n/a	n/a	n/a	n/a	-999	3	[0, 0, 0]	n/a	catFR1	0	R1476J
655.501	0.997	819233	REC_WORD_VV	0.401	n/a	<>	n/a	-999	3	[0, 0, 0]	n/a	catFR1	0	R1476J
656.498	0.955	820230	REC_WORD	1.398	n/a	JEEP	Vehicles	4	3	[0, 0, 0]	n/a	catFR1	0	R1476J
657.453	1.216	821185	REC_WORD	2.353	n/a	TRAIN	Vehicles	7	3	[0, 0, 0]	n/a	catFR1	0	R1476J
658.669	2.116	822401	REC_WORD	3.569	n/a	BIKE	Vehicles	8	3	[0, 0, 0]	n/a	catFR1	0	R1476J
660.785	3.585	824517	REC_WORD_VV	5.685	n/a	<>	n/a	-999	3	[0, 0, 0]	n/a	catFR1	0	R1476J
664.37	1.67	828102	REC_WORD	9.27	n/a	TIGER	Zoo	1	3	[0, 0, 0]	n/a	catFR1	0	R1476J
666.04	14.041	829772	REC_WORD_VV	10.94	n/a	<>	n/a	-999	3	[0, 0, 0]	n/a	catFR1	0	R1476J
680.081	5.251	843812	REC_WORD_VV	24.981	n/a	<>	n/a	-999	3	[0, 0, 0]	n/a	catFR1	0	R1476J
685.332	33.467	849062	REC_END	n/a	n/a	n/a	n/a	-999	3	[0, 0, 0]	n/a	catFR1	0	R1476J
718.799	10.0	882531	COUNTDOWN_START	n/a	n/a	n/a	n/a	-999	4	[0, 0, 0]	n/a	catFR1	0	R1476J
729.149	0.0	892881	COUNTDOWN_END	n/a	n/a	n/a	n/a	-999	4	[0, 0, 0]	n/a	catFR1	0	R1476J
729.149	2.349	892881	ENCODING_START	n/a	n/a	n/a	n/a	-999	4	[0, 0, 0]	n/a	catFR1	0	R1476J
731.498	1.6	895227	WORD	n/a	wordpools/wordpool_categorized_EN.txt	FLOOR	Building	1	4	[0, 0, 0]	n/a	catFR1	0	R1476J
733.098	0.801	896826	WORD_OFF	n/a	n/a	FLOOR	Building	1	4	[0, 0, 0]	n/a	catFR1	0	R1476J
733.899	1.6	897626	WORD	n/a	wordpools/wordpool_categorized_EN.txt	STAIRS	Building	2	4	[0, 0, 0]	n/a	catFR1	0	R1476J
735.499	0.884	899232	WORD_OFF	n/a	n/a	STAIRS	Building	2	4	[0, 0, 0]	n/a	catFR1	0	R1476J
736.383	1.6	900113	WORD	n/a	wordpools/wordpool_categorized_EN.txt	DENIM	Fabric	3	4	[0, 0, 0]	n/a	catFR1	0	R1476J
737.999	0.85	901727	WORD_OFF	n/a	n/a	DENIM	Fabric	3	4	[0, 0, 0]	n/a	catFR1	0	R1476J
738.849	1.6	902578	WORD	n/a	wordpools/wordpool_categorized_EN.txt	LEATHER	Fabric	4	4	[0, 0, 0]	n/a	catFR1	0	R1476J
740.449	0.784	904177	WORD_OFF	n/a	n/a	LEATHER	Fabric	4	4	[0, 0, 0]	n/a	catFR1	0	R1476J
741.233	1.6	904962	WORD	n/a	wordpools/wordpool_categorized_EN.txt	PASTRY	Desserts	5	4	[0, 0, 0]	n/a	catFR1	0	R1476J
742.849	0.884	906576	WORD_OFF	n/a	n/a	PASTRY	Desserts	5	4	[0, 0, 0]	n/a	catFR1	0	R1476J
743.733	1.6	907464	WORD	n/a	wordpools/wordpool_categorized_EN.txt	MOUSSE	Desserts	6	4	[0, 0, 0]	n/a	catFR1	0	R1476J
745.349	0.933	909078	WORD_OFF	n/a	n/a	MOUSSE	Desserts	6	4	[0, 0, 0]	n/a	catFR1	0	R1476J
746.282	1.6	910011	WORD	n/a	wordpools/wordpool_categorized_EN.txt	DOOR	Building	7	4	[0, 0, 0]	n/a	catFR1	0	R1476J
747.899	0.85	911625	WORD_OFF	n/a	n/a	DOOR	Building	7	4	[0, 0, 0]	n/a	catFR1	0	R1476J
748.749	1.6	912476	WORD	n/a	wordpools/wordpool_categorized_EN.txt	HALLWAY	Building	8	4	[0, 0, 0]	n/a	catFR1	0	R1476J
750.35	0.816	914075	WORD_OFF	n/a	n/a	HALLWAY	Building	8	4	[0, 0, 0]	n/a	catFR1	0	R1476J
751.166	1.6	914897	WORD	n/a	wordpools/wordpool_categorized_EN.txt	COTTON	Fabric	9	4	[0, 0, 0]	n/a	catFR1	0	R1476J
752.766	0.917	916496	WORD_OFF	n/a	n/a	COTTON	Fabric	9	4	[0, 0, 0]	n/a	catFR1	0	R1476J
753.683	1.6	917414	WORD	n/a	wordpools/wordpool_categorized_EN.txt	SILK	Fabric	10	4	[0, 0, 0]	n/a	catFR1	0	R1476J
755.298	1.001	919028	WORD_OFF	n/a	n/a	SILK	Fabric	10	4	[0, 0, 0]	n/a	catFR1	0	R1476J
756.299	1.6	920027	WORD	n/a	wordpools/wordpool_categorized_EN.txt	CHEESECAKE	Desserts	11	4	[0, 0, 0]	n/a	catFR1	0	R1476J
757.9	0.849	921626	WORD_OFF	n/a	n/a	CHEESECAKE	Desserts	11	4	[0, 0, 0]	n/a	catFR1	0	R1476J
758.749	1.6	922478	WORD	n/a	wordpools/wordpool_categorized_EN.txt	BROWNIES	Desserts	12	4	[0, 0, 0]	n/a	catFR1	0	R1476J
760.35	0.001	924077	WORD_OFF	n/a	n/a	BROWNIES	Desserts	12	4	[0, 0, 0]	n/a	catFR1	0	R1476J
760.351	0.0	924077	ENCODING_END	n/a	n/a	n/a	n/a	-999	4	[0, 0, 0]	n/a	catFR1	0	R1476J
760.35	0.001	924078	PROB	3.749	n/a	n/a	n/a	-999	4	[3, 6, 3]	12.0	catFR1	0	R1476J
760.351	0.0	924079	START	n/a	n/a	n/a	n/a	-999	4	[-999, -999, -999]	n/a	catFR1	0	R1476J
760.351	3.766	924084	DISTRACT_START	n/a	n/a	n/a	n/a	-999	4	[0, 0, 0]	n/a	catFR1	0	R1476J
764.117	2.749	927845	PROB	2.732	n/a	n/a	n/a	-999	4	[3, 3, 1]	7.0	catFR1	0	R1476J
766.866	3.75	930593	PROB	3.733	n/a	n/a	n/a	-999	4	[5, 7, 5]	17.0	catFR1	0	R1476J
770.616	3.549	934343	PROB	3.533	n/a	n/a	n/a	-999	4	[6, 2, 6]	14.0	catFR1	0	R1476J
774.165	4.685	937892	PROB	4.667	n/a	n/a	n/a	-999	4	[2, 3, 7]	12.0	catFR1	0	R1476J
778.85	4.132	942577	PROB	4.116	n/a	n/a	n/a	-999	4	[7, 4, 5]	16.0	catFR1	0	R1476J
782.982	0.0	946708	DISTRACT_END	n/a	n/a	n/a	n/a	-999	4	[0, 0, 0]	n/a	catFR1	0	R1476J
782.982	2.067	946709	STOP	n/a	n/a	n/a	n/a	-999	4	[-999, -999, -999]	n/a	catFR1	0	R1476J
785.049	1.641	948774	REC_START	n/a	n/a	n/a	n/a	-999	4	[0, 0, 0]	n/a	catFR1	0	R1476J
786.69	1.0	950417	REC_WORD_VV	1.641	n/a	<>	n/a	-999	4	[0, 0, 0]	n/a	catFR1	0	R1476J
787.69	0.393	951417	REC_WORD_VV	2.641	n/a	<>	n/a	-999	4	[0, 0, 0]	n/a	catFR1	0	R1476J
788.083	2.518	951810	REC_WORD	3.034	n/a	STAIRS	Building	2	4	[0, 0, 0]	n/a	catFR1	0	R1476J
790.601	5.063	954327	REC_WORD_VV	5.552	n/a	<>	n/a	-999	4	[0, 0, 0]	n/a	catFR1	0	R1476J
795.664	2.947	959390	REC_WORD	10.615	n/a	CHEESECAKE	Desserts	11	4	[0, 0, 0]	n/a	catFR1	0	R1476J
798.611	0.435	962337	REC_WORD_VV	13.562	n/a	<>	n/a	-999	4	[0, 0, 0]	n/a	catFR1	0	R1476J
799.046	1.685	962772	REC_WORD	13.997	n/a	CARPET	n/a	-999	4	[0, 0, 0]	n/a	catFR1	0	R1476J
800.731	3.955	964457	REC_WORD	15.682	n/a	DOOR	Building	7	4	[0, 0, 0]	n/a	catFR1	0	R1476J
804.686	7.497	968412	REC_WORD	19.637	n/a	WINDOW	n/a	-999	4	[0, 0, 0]	n/a	catFR1	0	R1476J
812.183	3.087	975909	REC_WORD	27.134	n/a	PIE	n/a	-999	4	[0, 0, 0]	n/a	catFR1	0	R1476J
815.27	3.697	978992	REC_END	n/a	n/a	n/a	n/a	-999	4	[0, 0, 0]	n/a	catFR1	0	R1476J
818.967	10.0	982693	COUNTDOWN_START	n/a	n/a	n/a	n/a	-999	5	[0, 0, 0]	n/a	catFR1	0	R1476J
829.315	0.0	993043	COUNTDOWN_END	n/a	n/a	n/a	n/a	-999	5	[0, 0, 0]	n/a	catFR1	0	R1476J
829.315	2.219	993043	ENCODING_START	n/a	n/a	n/a	n/a	-999	5	[0, 0, 0]	n/a	catFR1	0	R1476J
831.534	1.6	995256	WORD	n/a	wordpools/wordpool_categorized_EN.txt	TAPE	OfficeSupplies	1	5	[0, 0, 0]	n/a	catFR1	0	R1476J
833.134	1.0	996855	WORD_OFF	n/a	n/a	TAPE	OfficeSupplies	1	5	[0, 0, 0]	n/a	catFR1	0	R1476J
834.134	1.6	997855	WORD	n/a	wordpools/wordpool_categorized_EN.txt	GLUE	OfficeSupplies	2	5	[0, 0, 0]	n/a	catFR1	0	R1476J
835.734	0.982	999461	WORD_OFF	n/a	n/a	GLUE	OfficeSupplies	2	5	[0, 0, 0]	n/a	catFR1	0	R1476J
836.716	1.6	1000438	WORD	n/a	wordpools/wordpool_categorized_EN.txt	LAMB	FarmAnimals	3	5	[0, 0, 0]	n/a	catFR1	0	R1476J
838.316	0.868	1002037	WORD_OFF	n/a	n/a	LAMB	FarmAnimals	3	5	[0, 0, 0]	n/a	catFR1	0	R1476J
839.184	1.6	1002911	WORD	n/a	wordpools/wordpool_categorized_EN.txt	COW	FarmAnimals	4	5	[0, 0, 0]	n/a	catFR1	0	R1476J
840.784	0.848	1004510	WORD_OFF	n/a	n/a	COW	FarmAnimals	4	5	[0, 0, 0]	n/a	catFR1	0	R1476J
841.632	1.6	1005354	WORD	n/a	wordpools/wordpool_categorized_EN.txt	VACUUM	Appliances	5	5	[0, 0, 0]	n/a	catFR1	0	R1476J
843.233	0.784	1006960	WORD_OFF	n/a	n/a	VACUUM	Appliances	5	5	[0, 0, 0]	n/a	catFR1	0	R1476J
844.017	1.6	1007738	WORD	n/a	wordpools/wordpool_categorized_EN.txt	REFRIGERATOR	Appliances	6	5	[0, 0, 0]	n/a	catFR1	0	R1476J
845.617	0.95	1009344	WORD_OFF	n/a	n/a	REFRIGERATOR	Appliances	6	5	[0, 0, 0]	n/a	catFR1	0	R1476J
846.567	1.6	1010292	WORD	n/a	wordpools/wordpool_categorized_EN.txt	PIG	FarmAnimals	7	5	[0, 0, 0]	n/a	catFR1	0	R1476J
848.182	0.969	1011906	WORD_OFF	n/a	n/a	PIG	FarmAnimals	7	5	[0, 0, 0]	n/a	catFR1	0	R1476J
849.151	1.6	1012875	WORD	n/a	wordpools/wordpool_categorized_EN.txt	CHICKEN	FarmAnimals	8	5	[0, 0, 0]	n/a	catFR1	0	R1476J
850.751	0.934	1014474	WORD_OFF	n/a	n/a	CHICKEN	FarmAnimals	8	5	[0, 0, 0]	n/a	catFR1	0	R1476J
851.685	1.6	1015407	WORD	n/a	wordpools/wordpool_categorized_EN.txt	TOASTER	Appliances	9	5	[0, 0, 0]	n/a	catFR1	0	R1476J
853.301	0.867	1017021	WORD_OFF	n/a	n/a	TOASTER	Appliances	9	5	[0, 0, 0]	n/a	catFR1	0	R1476J
854.168	1.6	1017895	WORD	n/a	wordpools/wordpool_categorized_EN.txt	MIXER	Appliances	10	5	[0, 0, 0]	n/a	catFR1	0	R1476J
855.784	0.867	1019509	WORD_OFF	n/a	n/a	MIXER	Appliances	10	5	[0, 0, 0]	n/a	catFR1	0	R1476J
856.651	1.6	1020375	WORD	n/a	wordpools/wordpool_categorized_EN.txt	NOTEBOOK	OfficeSupplies	11	5	[0, 0, 0]	n/a	catFR1	0	R1476J
858.267	0.984	1021988	WORD_OFF	n/a	n/a	NOTEBOOK	OfficeSupplies	11	5	[0, 0, 0]	n/a	catFR1	0	R1476J
859.251	1.6	1022973	WORD	n/a	wordpools/wordpool_categorized_EN.txt	PEN	OfficeSupplies	12	5	[0, 0, 0]	n/a	catFR1	0	R1476J
860.851	0.0	1024572	WORD_OFF	n/a	n/a	PEN	OfficeSupplies	12	5	[0, 0, 0]	n/a	catFR1	0	R1476J
860.851	0.001	1024574	PROB	8.066	n/a	n/a	n/a	-999	5	[5, 7, 6]	18.0	catFR1	0	R1476J
860.852	0.0	1024575	START	n/a	n/a	n/a	n/a	-999	5	[-999, -999, -999]	n/a	catFR1	0	R1476J
860.852	0.0	1024580	ENCODING_END	n/a	n/a	n/a	n/a	-999	5	[0, 0, 0]	n/a	catFR1	0	R1476J
860.852	8.083	1024580	DISTRACT_START	n/a	n/a	n/a	n/a	-999	5	[0, 0, 0]	n/a	catFR1	0	R1476J
868.935	4.466	1032658	PROB	4.449	n/a	n/a	n/a	-999	5	[4, 5, 4]	13.0	catFR1	0	R1476J
873.401	6.767	1037124	PROB	6.75	n/a	n/a	n/a	-999	5	[3, 8, 5]	16.0	catFR1	0	R1476J
880.168	3.433	1043891	PROB	3.416	n/a	n/a	n/a	-999	5	[8, 1, 2]	11.0	catFR1	0	R1476J
883.601	0.0	1047322	DISTRACT_END	n/a	n/a	n/a	n/a	-999	5	[0, 0, 0]	n/a	catFR1	0	R1476J
883.601	2.116	1047324	STOP	n/a	n/a	n/a	n/a	-999	5	[-999, -999, -999]	n/a	catFR1	0	R1476J
885.717	0.753	1049439	REC_START	n/a	n/a	n/a	n/a	-999	5	[0, 0, 0]	n/a	catFR1	0	R1476J
886.47	0.85	1050192	REC_WORD	0.753	n/a	PIG	FarmAnimals	7	5	[0, 0, 0]	n/a	catFR1	0	R1476J
887.32	1.823	1051042	REC_WORD	1.603	n/a	COW	FarmAnimals	4	5	[0, 0, 0]	n/a	catFR1	0	R1476J
889.143	1.0	1052865	REC_WORD	3.426	n/a	REFRIGERATOR	Appliances	6	5	[0, 0, 0]	n/a	catFR1	0	R1476J
890.143	2.811	1053865	REC_WORD_VV	4.426	n/a	<>	n/a	-999	5	[0, 0, 0]	n/a	catFR1	0	R1476J
892.954	4.498	1056676	REC_WORD	7.237	n/a	COMPASS	n/a	-999	5	[0, 0, 0]	n/a	catFR1	0	R1476J
897.452	11.472	1061174	REC_WORD	11.735	n/a	LAMB	FarmAnimals	3	5	[0, 0, 0]	n/a	catFR1	0	R1476J
908.924	6.433	1072645	REC_WORD	23.207	n/a	DRYER	Appliances	-999	5	[0, 0, 0]	n/a	catFR1	0	R1476J
915.357	0.591	1079078	REC_WORD	29.64	n/a	CHAIR	n/a	-999	5	[0, 0, 0]	n/a	catFR1	0	R1476J
915.948	3.636	1079673	REC_END	n/a	n/a	n/a	n/a	-999	5	[0, 0, 0]	n/a	catFR1	0	R1476J
919.584	10.0	1083307	COUNTDOWN_START	n/a	n/a	n/a	n/a	-999	6	[0, 0, 0]	n/a	catFR1	0	R1476J
929.935	0.0	1093657	COUNTDOWN_END	n/a	n/a	n/a	n/a	-999	6	[0, 0, 0]	n/a	catFR1	0	R1476J
929.935	2.099	1093657	ENCODING_START	n/a	n/a	n/a	n/a	-999	6	[0, 0, 0]	n/a	catFR1	0	R1476J
932.034	1.6	1095752	WORD	n/a	wordpools/wordpool_categorized_EN.txt	WATER	Beverages	1	6	[0, 0, 0]	n/a	catFR1	0	R1476J
933.651	0.815	1097373	WORD_OFF	n/a	n/a	WATER	Beverages	1	6	[0, 0, 0]	n/a	catFR1	0	R1476J
934.466	1.6	1098187	WORD	n/a	wordpools/wordpool_categorized_EN.txt	WINE	Beverages	2	6	[0, 0, 0]	n/a	catFR1	0	R1476J
936.067	0.85	1099786	WORD_OFF	n/a	n/a	WINE	Beverages	2	6	[0, 0, 0]	n/a	catFR1	0	R1476J
936.917	1.6	1100638	WORD	n/a	wordpools/wordpool_categorized_EN.txt	TONGS	KitchenTools	3	6	[0, 0, 0]	n/a	catFR1	0	R1476J
938.517	0.8	1102237	WORD_OFF	n/a	n/a	TONGS	KitchenTools	3	6	[0, 0, 0]	n/a	catFR1	0	R1476J
939.317	1.6	1103036	WORD	n/a	wordpools/wordpool_categorized_EN.txt	CORKSCREW	KitchenTools	4	6	[0, 0, 0]	n/a	catFR1	0	R1476J
940.933	0.768	1104650	WORD_OFF	n/a	n/a	CORKSCREW	KitchenTools	4	6	[0, 0, 0]	n/a	catFR1	0	R1476J
941.701	1.6	1105420	WORD	n/a	wordpools/wordpool_categorized_EN.txt	SUNFLOWER	Flowers	5	6	[0, 0, 0]	n/a	catFR1	0	R1476J
943.317	0.917	1107034	WORD_OFF	n/a	n/a	SUNFLOWER	Flowers	5	6	[0, 0, 0]	n/a	catFR1	0	R1476J
944.234	1.6	1107952	WORD	n/a	wordpools/wordpool_categorized_EN.txt	DAFFODIL	Flowers	6	6	[0, 0, 0]	n/a	catFR1	0	R1476J
945.834	0.866	1109551	WORD_OFF	n/a	n/a	DAFFODIL	Flowers	6	6	[0, 0, 0]	n/a	catFR1	0	R1476J
946.7	1.6	1110417	WORD	n/a	wordpools/wordpool_categorized_EN.txt	FORK	KitchenTools	7	6	[0, 0, 0]	n/a	catFR1	0	R1476J
948.301	0.85	1112024	WORD_OFF	n/a	n/a	FORK	KitchenTools	7	6	[0, 0, 0]	n/a	catFR1	0	R1476J
949.151	1.6	1112875	WORD	n/a	wordpools/wordpool_categorized_EN.txt	STRAINER	KitchenTools	8	6	[0, 0, 0]	n/a	catFR1	0	R1476J
950.766	0.801	1114489	WORD_OFF	n/a	n/a	STRAINER	KitchenTools	8	6	[0, 0, 0]	n/a	catFR1	0	R1476J
951.567	1.6	1115288	WORD	n/a	wordpools/wordpool_categorized_EN.txt	MARIGOLD	Flowers	9	6	[0, 0, 0]	n/a	catFR1	0	R1476J
953.167	0.881	1116887	WORD_OFF	n/a	n/a	MARIGOLD	Flowers	9	6	[0, 0, 0]	n/a	catFR1	0	R1476J
954.048	1.6	1117768	WORD	n/a	wordpools/wordpool_categorized_EN.txt	LILAC	Flowers	10	6	[0, 0, 0]	n/a	catFR1	0	R1476J
955.651	0.766	1119367	WORD_OFF	n/a	n/a	LILAC	Flowers	10	6	[0, 0, 0]	n/a	catFR1	0	R1476J
956.417	1.6	1120137	WORD	n/a	wordpools/wordpool_categorized_EN.txt	RUM	Beverages	11	6	[0, 0, 0]	n/a	catFR1	0	R1476J
958.033	0.834	1121751	WORD_OFF	n/a	n/a	RUM	Beverages	11	6	[0, 0, 0]	n/a	catFR1	0	R1476J
958.867	1.6	1122588	WORD	n/a	wordpools/wordpool_categorized_EN.txt	BEER	Beverages	12	6	[0, 0, 0]	n/a	catFR1	0	R1476J
960.468	0.001	1124187	WORD_OFF	n/a	n/a	BEER	Beverages	12	6	[0, 0, 0]	n/a	catFR1	0	R1476J
960.469	0.0	1124187	ENCODING_END	n/a	n/a	n/a	n/a	-999	6	[0, 0, 0]	n/a	catFR1	0	R1476J
960.468	0.001	1124187	PROB	7.532	n/a	n/a	n/a	-999	6	[8, 2, 7]	17.0	catFR1	0	R1476J
960.469	0.0	1124188	START	n/a	n/a	n/a	n/a	-999	6	[-999, -999, -999]	n/a	catFR1	0	R1476J
960.469	7.549	1124194	DISTRACT_START	n/a	n/a	n/a	n/a	-999	6	[0, 0, 0]	n/a	catFR1	0	R1476J
968.018	4.35	1131737	PROB	4.333	n/a	n/a	n/a	-999	6	[3, 5, 3]	11.0	catFR1	0	R1476J
972.368	9.882	1136087	PROB	9.866	n/a	n/a	n/a	-999	6	[1, 4, 8]	13.0	catFR1	0	R1476J
982.25	0.0	1145966	DISTRACT_END	n/a	n/a	n/a	n/a	-999	6	[0, 0, 0]	n/a	catFR1	0	R1476J
982.25	2.334	1145968	STOP	n/a	n/a	n/a	n/a	-999	6	[-999, -999, -999]	n/a	catFR1	0	R1476J
984.584	3.648	1148299	REC_START	n/a	n/a	n/a	n/a	-999	6	[0, 0, 0]	n/a	catFR1	0	R1476J
988.232	0.568	1151950	REC_WORD	3.648	n/a	BEER	Beverages	12	6	[0, 0, 0]	n/a	catFR1	0	R1476J
988.8	0.993	1152518	REC_WORD	4.216	n/a	RUM	Beverages	11	6	[0, 0, 0]	n/a	catFR1	0	R1476J
989.793	2.781	1153511	REC_WORD	5.209	n/a	WINE	Beverages	2	6	[0, 0, 0]	n/a	catFR1	0	R1476J
992.574	2.304	1156292	REC_WORD_VV	7.99	n/a	<>	n/a	-999	6	[0, 0, 0]	n/a	catFR1	0	R1476J
994.878	11.135	1158596	REC_WORD	10.294	n/a	ELEVATOR	n/a	-999	6	[0, 0, 0]	n/a	catFR1	0	R1476J
1006.013	6.597	1169730	REC_WORD	21.429	n/a	WATER	Beverages	1	6	[0, 0, 0]	n/a	catFR1	0	R1476J
1012.61	2.206	1176327	REC_WORD	28.026	n/a	COMPASS	n/a	-999	6	[0, 0, 0]	n/a	catFR1	0	R1476J
1014.816	2.735	1178532	REC_END	n/a	n/a	n/a	n/a	-999	6	[0, 0, 0]	n/a	catFR1	0	R1476J
1017.551	10.0	1181271	COUNTDOWN_START	n/a	n/a	n/a	n/a	-999	7	[0, 0, 0]	n/a	catFR1	0	R1476J
1027.901	0.0	1191620	COUNTDOWN_END	n/a	n/a	n/a	n/a	-999	7	[0, 0, 0]	n/a	catFR1	0	R1476J
1027.901	2.2	1191620	ENCODING_START	n/a	n/a	n/a	n/a	-999	7	[0, 0, 0]	n/a	catFR1	0	R1476J
1030.101	1.6	1193819	WORD	n/a	wordpools/wordpool_categorized_EN.txt	TEA	Beverages	1	7	[0, 0, 0]	n/a	catFR1	0	R1476J
1031.701	0.782	1195418	WORD_OFF	n/a	n/a	TEA	Beverages	1	7	[0, 0, 0]	n/a	catFR1	0	R1476J
1032.483	1.6	1196195	WORD	n/a	wordpools/wordpool_categorized_EN.txt	SODA	Beverages	2	7	[0, 0, 0]	n/a	catFR1	0	R1476J
1034.084	0.816	1197802	WORD_OFF	n/a	n/a	SODA	Beverages	2	7	[0, 0, 0]	n/a	catFR1	0	R1476J
1034.9	1.6	1198616	WORD	n/a	wordpools/wordpool_categorized_EN.txt	SPINACH	Vegetables	3	7	[0, 0, 0]	n/a	catFR1	0	R1476J
1036.5	0.967	1200215	WORD_OFF	n/a	n/a	SPINACH	Vegetables	3	7	[0, 0, 0]	n/a	catFR1	0	R1476J
1037.467	1.6	1201185	WORD	n/a	wordpools/wordpool_categorized_EN.txt	PEAS	Vegetables	4	7	[0, 0, 0]	n/a	catFR1	0	R1476J
1039.067	0.95	1202784	WORD_OFF	n/a	n/a	PEAS	Vegetables	4	7	[0, 0, 0]	n/a	catFR1	0	R1476J
1040.017	1.6	1203732	WORD	n/a	wordpools/wordpool_categorized_EN.txt	PAPER	OfficeSupplies	5	7	[0, 0, 0]	n/a	catFR1	0	R1476J
1041.617	1.0	1205331	WORD_OFF	n/a	n/a	PAPER	OfficeSupplies	5	7	[0, 0, 0]	n/a	catFR1	0	R1476J
1042.617	1.6	1206330	WORD	n/a	wordpools/wordpool_categorized_EN.txt	ERASER	OfficeSupplies	6	7	[0, 0, 0]	n/a	catFR1	0	R1476J
1044.234	0.933	1207951	WORD_OFF	n/a	n/a	ERASER	OfficeSupplies	6	7	[0, 0, 0]	n/a	catFR1	0	R1476J
1045.167	1.6	1208884	WORD	n/a	wordpools/wordpool_categorized_EN.txt	CABBAGE	Vegetables	7	7	[0, 0, 0]	n/a	catFR1	0	R1476J
1046.767	0.817	1210483	WORD_OFF	n/a	n/a	CABBAGE	Vegetables	7	7	[0, 0, 0]	n/a	catFR1	0	R1476J
1047.584	1.6	1211298	WORD	n/a	wordpools/wordpool_categorized_EN.txt	CUCUMBER	Vegetables	8	7	[0, 0, 0]	n/a	catFR1	0	R1476J
1049.184	0.799	1212897	WORD_OFF	n/a	n/a	CUCUMBER	Vegetables	8	7	[0, 0, 0]	n/a	catFR1	0	R1476J
1049.983	1.6	1213696	WORD	n/a	wordpools/wordpool_categorized_EN.txt	STAPLER	OfficeSupplies	9	7	[0, 0, 0]	n/a	catFR1	0	R1476J
1051.584	0.816	1215303	WORD_OFF	n/a	n/a	STAPLER	OfficeSupplies	9	7	[0, 0, 0]	n/a	catFR1	0	R1476J
1052.4	1.6	1216117	WORD	n/a	wordpools/wordpool_categorized_EN.txt	RULER	OfficeSupplies	10	7	[0, 0, 0]	n/a	catFR1	0	R1476J
1054.001	0.916	1217716	WORD_OFF	n/a	n/a	RULER	OfficeSupplies	10	7	[0, 0, 0]	n/a	catFR1	0	R1476J
1054.917	1.6	1218634	WORD	n/a	wordpools/wordpool_categorized_EN.txt	COLA	Beverages	11	7	[0, 0, 0]	n/a	catFR1	0	R1476J
1056.533	0.901	1220248	WORD_OFF	n/a	n/a	COLA	Beverages	11	7	[0, 0, 0]	n/a	catFR1	0	R1476J
1057.434	1.6	1221151	WORD	n/a	wordpools/wordpool_categorized_EN.txt	LEMONADE	Beverages	12	7	[0, 0, 0]	n/a	catFR1	0	R1476J
1059.034	0.0	1222749	PROB	3.9	n/a	n/a	n/a	-999	7	[5, 5, 8]	18.0	catFR1	0	R1476J
1059.034	0.003	1222750	WORD_OFF	n/a	n/a	LEMONADE	Beverages	12	7	[0, 0, 0]	n/a	catFR1	0	R1476J
1059.037	0.0	1222750	ENCODING_END	n/a	n/a	n/a	n/a	-999	7	[0, 0, 0]	n/a	catFR1	0	R1476J
1059.037	0.0	1222752	START	n/a	n/a	n/a	n/a	-999	7	[-999, -999, -999]	n/a	catFR1	0	R1476J
1059.037	3.914	1222757	DISTRACT_START	n/a	n/a	n/a	n/a	-999	7	[0, 0, 0]	n/a	catFR1	0	R1476J
1062.951	5.033	1226666	PROB	5.016	n/a	n/a	n/a	-999	7	[5, 6, 4]	15.0	catFR1	0	R1476J
1067.984	3.317	1231699	PROB	3.3	n/a	n/a	n/a	-999	7	[3, 2, 6]	11.0	catFR1	0	R1476J
1071.301	4.866	1235016	PROB	4.849	n/a	n/a	n/a	-999	7	[8, 6, 3]	17.0	catFR1	0	R1476J
1076.167	4.95	1239881	PROB	4.934	n/a	n/a	n/a	-999	7	[2, 1, 7]	10.0	catFR1	0	R1476J
1081.117	0.0	1244831	STOP	n/a	n/a	n/a	n/a	-999	7	[-999, -999, -999]	n/a	catFR1	0	R1476J
1081.117	2.351	1244833	DISTRACT_END	n/a	n/a	n/a	n/a	-999	7	[0, 0, 0]	n/a	catFR1	0	R1476J
1083.468	0.0	1247180	REC_START	n/a	n/a	n/a	n/a	-999	7	[0, 0, 0]	n/a	catFR1	0	R1476J
1083.468	1.155	1247182	REC_WORD_VV	0.0	n/a	<>	n/a	-999	7	[0, 0, 0]	n/a	catFR1	0	R1476J
1084.623	1.126	1248337	REC_WORD	1.155	n/a	CUCUMBER	Vegetables	8	7	[0, 0, 0]	n/a	catFR1	0	R1476J
1085.749	20.971	1249463	REC_WORD	2.281	n/a	LETTUCE	n/a	-999	7	[0, 0, 0]	n/a	catFR1	0	R1476J
1106.72	6.986	1270433	REC_WORD_VV	23.252	n/a	<>	n/a	-999	7	[0, 0, 0]	n/a	catFR1	0	R1476J
1113.706	13.71	1277421	REC_END	n/a	n/a	n/a	n/a	-999	7	[0, 0, 0]	n/a	catFR1	0	R1476J
1127.416	10.0	1291131	COUNTDOWN_START	n/a	n/a	n/a	n/a	-999	8	[0, 0, 0]	n/a	catFR1	0	R1476J
1137.766	0.0	1301481	COUNTDOWN_END	n/a	n/a	n/a	n/a	-999	8	[0, 0, 0]	n/a	catFR1	0	R1476J
1137.766	2.183	1301481	ENCODING_START	n/a	n/a	n/a	n/a	-999	8	[0, 0, 0]	n/a	catFR1	0	R1476J
1139.949	1.6	1303657	WORD	n/a	wordpools/wordpool_categorized_EN.txt	MOUNTAIN	Landscapes	1	8	[0, 0, 0]	n/a	catFR1	0	R1476J
1141.566	0.983	1305278	WORD_OFF	n/a	n/a	MOUNTAIN	Landscapes	1	8	[0, 0, 0]	n/a	catFR1	0	R1476J
1142.549	1.6	1306263	WORD	n/a	wordpools/wordpool_categorized_EN.txt	ISLAND	Landscapes	2	8	[0, 0, 0]	n/a	catFR1	0	R1476J
1144.166	0.866	1307877	WORD_OFF	n/a	n/a	ISLAND	Landscapes	2	8	[0, 0, 0]	n/a	catFR1	0	R1476J
1145.032	1.6	1308743	WORD	n/a	wordpools/wordpool_categorized_EN.txt	JELLO	Desserts	3	8	[0, 0, 0]	n/a	catFR1	0	R1476J
1146.633	0.816	1310342	WORD_OFF	n/a	n/a	JELLO	Desserts	3	8	[0, 0, 0]	n/a	catFR1	0	R1476J
1147.449	1.6	1311164	WORD	n/a	wordpools/wordpool_categorized_EN.txt	COOKIE	Desserts	4	8	[0, 0, 0]	n/a	catFR1	0	R1476J
1149.049	0.784	1312763	WORD_OFF	n/a	n/a	COOKIE	Desserts	4	8	[0, 0, 0]	n/a	catFR1	0	R1476J
1149.833	1.6	1313540	WORD	n/a	wordpools/wordpool_categorized_EN.txt	COLANDER	KitchenTools	5	8	[0, 0, 0]	n/a	catFR1	0	R1476J
1151.433	0.932	1315147	WORD_OFF	n/a	n/a	COLANDER	KitchenTools	5	8	[0, 0, 0]	n/a	catFR1	0	R1476J
1152.365	1.6	1316079	WORD	n/a	wordpools/wordpool_categorized_EN.txt	SPOON	KitchenTools	6	8	[0, 0, 0]	n/a	catFR1	0	R1476J
1153.982	0.917	1317693	WORD_OFF	n/a	n/a	SPOON	KitchenTools	6	8	[0, 0, 0]	n/a	catFR1	0	R1476J
1154.899	1.6	1318611	WORD	n/a	wordpools/wordpool_categorized_EN.txt	CAKE	Desserts	7	8	[0, 0, 0]	n/a	catFR1	0	R1476J
1156.516	0.816	1320225	WORD_OFF	n/a	n/a	CAKE	Desserts	7	8	[0, 0, 0]	n/a	catFR1	0	R1476J
1157.332	1.6	1321047	WORD	n/a	wordpools/wordpool_categorized_EN.txt	COBBLER	Desserts	8	8	[0, 0, 0]	n/a	catFR1	0	R1476J
1158.933	1.0	1322646	WORD_OFF	n/a	n/a	COBBLER	Desserts	8	8	[0, 0, 0]	n/a	catFR1	0	R1476J
1159.933	1.6	1323645	WORD	n/a	wordpools/wordpool_categorized_EN.txt	SPATULA	KitchenTools	9	8	[0, 0, 0]	n/a	catFR1	0	R1476J
1161.549	0.967	1325259	WORD_OFF	n/a	n/a	SPATULA	KitchenTools	9	8	[0, 0, 0]	n/a	catFR1	0	R1476J
1162.516	1.6	1326229	WORD	n/a	wordpools/wordpool_categorized_EN.txt	GRATER	KitchenTools	10	8	[0, 0, 0]	n/a	catFR1	0	R1476J
1164.117	0.882	1327828	WORD_OFF	n/a	n/a	GRATER	KitchenTools	10	8	[0, 0, 0]	n/a	catFR1	0	R1476J
1164.999	1.6	1328709	WORD	n/a	wordpools/wordpool_categorized_EN.txt	CREEK	Landscapes	11	8	[0, 0, 0]	n/a	catFR1	0	R1476J
1166.616	0.866	1330323	WORD_OFF	n/a	n/a	CREEK	Landscapes	11	8	[0, 0, 0]	n/a	catFR1	0	R1476J
1167.482	1.6	1331196	WORD	n/a	wordpools/wordpool_categorized_EN.txt	OCEAN	Landscapes	12	8	[0, 0, 0]	n/a	catFR1	0	R1476J
1169.082	0.001	1332793	PROB	5.883	n/a	n/a	n/a	-999	8	[8, 6, 8]	22.0	catFR1	0	R1476J
1169.083	0.0	1332794	START	n/a	n/a	n/a	n/a	-999	8	[-999, -999, -999]	n/a	catFR1	0	R1476J
1169.082	0.001	1332795	WORD_OFF	n/a	n/a	OCEAN	Landscapes	12	8	[0, 0, 0]	n/a	catFR1	0	R1476J
1169.083	0.0	1332795	ENCODING_END	n/a	n/a	n/a	n/a	-999	8	[0, 0, 0]	n/a	catFR1	0	R1476J
1169.083	5.9	1332795	DISTRACT_START	n/a	n/a	n/a	n/a	-999	8	[0, 0, 0]	n/a	catFR1	0	R1476J
1174.983	4.067	1338693	PROB	4.049	n/a	n/a	n/a	-999	8	[7, 1, 4]	12.0	catFR1	0	R1476J
1179.05	3.733	1342760	PROB	3.716	n/a	n/a	n/a	-999	8	[3, 2, 5]	10.0	catFR1	0	R1476J
1182.783	3.6	1346493	PROB	3.583	n/a	n/a	n/a	-999	8	[4, 5, 1]	10.0	catFR1	0	R1476J
1186.383	4.132	1350093	PROB	4.116	n/a	n/a	n/a	-999	8	[7, 6, 3]	16.0	catFR1	0	R1476J
1190.515	0.0	1354225	STOP	n/a	n/a	n/a	n/a	-999	8	[-999, -999, -999]	n/a	catFR1	0	R1476J
1190.515	2.284	1354227	DISTRACT_END	n/a	n/a	n/a	n/a	-999	8	[0, 0, 0]	n/a	catFR1	0	R1476J
1192.799	1.003	1356508	REC_START	n/a	n/a	n/a	n/a	-999	8	[0, 0, 0]	n/a	catFR1	0	R1476J
1193.802	1.273	1357512	REC_WORD	1.003	n/a	ISLAND	Landscapes	2	8	[0, 0, 0]	n/a	catFR1	0	R1476J
1195.075	1.776	1358784	REC_WORD	2.276	n/a	OCEAN	Landscapes	12	8	[0, 0, 0]	n/a	catFR1	0	R1476J
1196.851	3.403	1360560	REC_WORD	4.052	n/a	COLANDER	KitchenTools	5	8	[0, 0, 0]	n/a	catFR1	0	R1476J
1200.254	1.0	1363963	REC_WORD	7.455	n/a	SPATULA	KitchenTools	9	8	[0, 0, 0]	n/a	catFR1	0	R1476J
1201.254	5.239	1364963	REC_WORD_VV	8.455	n/a	<>	n/a	-999	8	[0, 0, 0]	n/a	catFR1	0	R1476J
1206.493	9.333	1370202	REC_WORD_VV	13.694	n/a	<>	n/a	-999	8	[0, 0, 0]	n/a	catFR1	0	R1476J
1215.826	2.987	1379535	REC_WORD	23.027	n/a	GRATER	KitchenTools	10	8	[0, 0, 0]	n/a	catFR1	0	R1476J
1218.813	4.201	1382521	REC_WORD_VV	26.014	n/a	<>	n/a	-999	8	[0, 0, 0]	n/a	catFR1	0	R1476J
1223.014	3.037	1386726	REC_END	n/a	n/a	n/a	n/a	-999	8	[0, 0, 0]	n/a	catFR1	0	R1476J
1226.051	10.0	1389761	COUNTDOWN_START	n/a	n/a	n/a	n/a	-999	9	[0, 0, 0]	n/a	catFR1	0	R1476J
1236.401	0.0	1400111	COUNTDOWN_END	n/a	n/a	n/a	n/a	-999	9	[0, 0, 0]	n/a	catFR1	0	R1476J
1236.401	2.168	1400111	ENCODING_START	n/a	n/a	n/a	n/a	-999	9	[0, 0, 0]	n/a	catFR1	0	R1476J
1238.569	1.6	1402280	WORD	n/a	wordpools/wordpool_categorized_EN.txt	FUDGE	Desserts	1	9	[0, 0, 0]	n/a	catFR1	0	R1476J
1240.167	0.8	1403871	WORD_OFF	n/a	n/a	FUDGE	Desserts	1	9	[0, 0, 0]	n/a	catFR1	0	R1476J
1240.967	1.6	1404671	WORD	n/a	wordpools/wordpool_categorized_EN.txt	CUPCAKE	Desserts	2	9	[0, 0, 0]	n/a	catFR1	0	R1476J
1242.569	0.999	1406277	WORD_OFF	n/a	n/a	CUPCAKE	Desserts	2	9	[0, 0, 0]	n/a	catFR1	0	R1476J
1243.568	1.6	1407277	WORD	n/a	wordpools/wordpool_categorized_EN.txt	SHOES	Clothing	3	9	[0, 0, 0]	n/a	catFR1	0	R1476J
1245.167	0.817	1408876	WORD_OFF	n/a	n/a	SHOES	Clothing	3	9	[0, 0, 0]	n/a	catFR1	0	R1476J
1245.984	1.6	1409690	WORD	n/a	wordpools/wordpool_categorized_EN.txt	JACKET	Clothing	4	9	[0, 0, 0]	n/a	catFR1	0	R1476J
1247.584	0.767	1411289	WORD_OFF	n/a	n/a	JACKET	Clothing	4	9	[0, 0, 0]	n/a	catFR1	0	R1476J
1248.351	1.6	1412059	WORD	n/a	wordpools/wordpool_categorized_EN.txt	BLENDER	Appliances	5	9	[0, 0, 0]	n/a	catFR1	0	R1476J
1249.951	0.95	1413658	WORD_OFF	n/a	n/a	BLENDER	Appliances	5	9	[0, 0, 0]	n/a	catFR1	0	R1476J
1250.901	1.6	1414606	WORD	n/a	wordpools/wordpool_categorized_EN.txt	WASHER	Appliances	6	9	[0, 0, 0]	n/a	catFR1	0	R1476J
1252.518	0.833	1416227	WORD_OFF	n/a	n/a	WASHER	Appliances	6	9	[0, 0, 0]	n/a	catFR1	0	R1476J
1253.351	1.6	1417056	WORD	n/a	wordpools/wordpool_categorized_EN.txt	UNDERWEAR	Clothing	7	9	[0, 0, 0]	n/a	catFR1	0	R1476J
1254.966	0.801	1418670	WORD_OFF	n/a	n/a	UNDERWEAR	Clothing	7	9	[0, 0, 0]	n/a	catFR1	0	R1476J
1255.767	1.6	1419477	WORD	n/a	wordpools/wordpool_categorized_EN.txt	SOCKS	Clothing	8	9	[0, 0, 0]	n/a	catFR1	0	R1476J
1257.367	0.884	1421076	WORD_OFF	n/a	n/a	SOCKS	Clothing	8	9	[0, 0, 0]	n/a	catFR1	0	R1476J
1258.251	1.6	1421957	WORD	n/a	wordpools/wordpool_categorized_EN.txt	PUDDING	Desserts	9	9	[0, 0, 0]	n/a	catFR1	0	R1476J
1259.867	0.8	1423571	WORD_OFF	n/a	n/a	PUDDING	Desserts	9	9	[0, 0, 0]	n/a	catFR1	0	R1476J
1260.667	1.6	1424378	WORD	n/a	wordpools/wordpool_categorized_EN.txt	PIE	Desserts	10	9	[0, 0, 0]	n/a	catFR1	0	R1476J
1262.282	0.869	1425991	WORD_OFF	n/a	n/a	PIE	Desserts	10	9	[0, 0, 0]	n/a	catFR1	0	R1476J
1263.151	1.6	1426858	WORD	n/a	wordpools/wordpool_categorized_EN.txt	STOVE	Appliances	11	9	[0, 0, 0]	n/a	catFR1	0	R1476J
1264.751	0.866	1428457	WORD_OFF	n/a	n/a	STOVE	Appliances	11	9	[0, 0, 0]	n/a	catFR1	0	R1476J
1265.617	1.6	1429323	WORD	n/a	wordpools/wordpool_categorized_EN.txt	OVEN	Appliances	12	9	[0, 0, 0]	n/a	catFR1	0	R1476J
1267.217	0.001	1430922	WORD_OFF	n/a	n/a	OVEN	Appliances	12	9	[0, 0, 0]	n/a	catFR1	0	R1476J
1267.218	0.001	1430924	PROB	7.033	n/a	n/a	n/a	-999	9	[1, 8, 5]	14.0	catFR1	0	R1476J
1267.219	0.0	1430925	START	n/a	n/a	n/a	n/a	-999	9	[-999, -999, -999]	n/a	catFR1	0	R1476J
1267.219	0.0	1430929	ENCODING_END	n/a	n/a	n/a	n/a	-999	9	[0, 0, 0]	n/a	catFR1	0	R1476J
1267.219	7.049	1430929	DISTRACT_START	n/a	n/a	n/a	n/a	-999	9	[0, 0, 0]	n/a	catFR1	0	R1476J
1274.268	3.483	1437974	PROB	3.466	n/a	n/a	n/a	-999	9	[1, 4, 5]	10.0	catFR1	0	R1476J
1277.751	3.667	1441457	PROB	3.649	n/a	n/a	n/a	-999	9	[8, 3, 6]	17.0	catFR1	0	R1476J
1281.418	2.799	1445124	PROB	2.783	n/a	n/a	n/a	-999	9	[3, 1, 2]	6.0	catFR1	0	R1476J
1284.217	5.749	1447923	PROB	5.732	n/a	n/a	n/a	-999	9	[8, 5, 3]	16.0	catFR1	0	R1476J
1289.966	0.0	1453671	DISTRACT_END	n/a	n/a	n/a	n/a	-999	9	[0, 0, 0]	n/a	catFR1	0	R1476J
1289.966	2.368	1453671	STOP	n/a	n/a	n/a	n/a	-999	9	[-999, -999, -999]	n/a	catFR1	0	R1476J
1292.334	1.355	1456041	REC_START	n/a	n/a	n/a	n/a	-999	9	[0, 0, 0]	n/a	catFR1	0	R1476J
1293.689	1.456	1457394	REC_WORD	1.355	n/a	JACKET	Clothing	4	9	[0, 0, 0]	n/a	catFR1	0	R1476J
1295.145	1.453	1458850	REC_WORD	2.811	n/a	UNDERWEAR	Clothing	7	9	[0, 0, 0]	n/a	catFR1	0	R1476J
1296.598	4.718	1460303	REC_WORD	4.264	n/a	WASHER	Appliances	6	9	[0, 0, 0]	n/a	catFR1	0	R1476J
1301.316	1.0	1465021	REC_WORD	8.982	n/a	LETTUCE	n/a	-999	9	[0, 0, 0]	n/a	catFR1	0	R1476J
1302.316	7.955	1466021	REC_WORD_VV	9.982	n/a	<>	n/a	-999	9	[0, 0, 0]	n/a	catFR1	0	R1476J
1310.271	4.052	1473976	REC_WORD	17.937	n/a	DRYER	Appliances	-999	9	[0, 0, 0]	n/a	catFR1	0	R1476J
1314.323	8.239	1478027	REC_WORD_VV	21.989	n/a	<>	n/a	-999	9	[0, 0, 0]	n/a	catFR1	0	R1476J
1322.562	3.404	1486266	REC_END	n/a	n/a	n/a	n/a	-999	9	[0, 0, 0]	n/a	catFR1	0	R1476J
1325.966	10.0	1489672	COUNTDOWN_START	n/a	n/a	n/a	n/a	-999	10	[0, 0, 0]	n/a	catFR1	0	R1476J
1336.315	0.0	1500021	COUNTDOWN_END	n/a	n/a	n/a	n/a	-999	10	[0, 0, 0]	n/a	catFR1	0	R1476J
1336.315	2.167	1500021	ENCODING_START	n/a	n/a	n/a	n/a	-999	10	[0, 0, 0]	n/a	catFR1	0	R1476J
1338.482	1.6	1502183	WORD	n/a	wordpools/wordpool_categorized_EN.txt	MILK	Beverages	1	10	[0, 0, 0]	n/a	catFR1	0	R1476J
1340.083	0.966	1503789	WORD_OFF	n/a	n/a	MILK	Beverages	1	10	[0, 0, 0]	n/a	catFR1	0	R1476J
1341.049	1.6	1504752	WORD	n/a	wordpools/wordpool_categorized_EN.txt	COFFEE	Beverages	2	10	[0, 0, 0]	n/a	catFR1	0	R1476J
1342.649	0.916	1506351	WORD_OFF	n/a	n/a	COFFEE	Beverages	2	10	[0, 0, 0]	n/a	catFR1	0	R1476J
1343.565	1.6	1507269	WORD	n/a	wordpools/wordpool_categorized_EN.txt	BULL	FarmAnimals	3	10	[0, 0, 0]	n/a	catFR1	0	R1476J
1345.166	0.9	1508868	WORD_OFF	n/a	n/a	BULL	FarmAnimals	3	10	[0, 0, 0]	n/a	catFR1	0	R1476J
1346.066	1.6	1509771	WORD	n/a	wordpools/wordpool_categorized_EN.txt	CALF	FarmAnimals	4	10	[0, 0, 0]	n/a	catFR1	0	R1476J
1347.667	0.982	1511370	WORD_OFF	n/a	n/a	CALF	FarmAnimals	4	10	[0, 0, 0]	n/a	catFR1	0	R1476J
1348.649	1.6	1512355	WORD	n/a	wordpools/wordpool_categorized_EN.txt	ORANGUTAN	Zoo	5	10	[0, 0, 0]	n/a	catFR1	0	R1476J
1350.249	0.834	1513954	WORD_OFF	n/a	n/a	ORANGUTAN	Zoo	5	10	[0, 0, 0]	n/a	catFR1	0	R1476J
1351.083	1.6	1514783	WORD	n/a	wordpools/wordpool_categorized_EN.txt	LION	Zoo	6	10	[0, 0, 0]	n/a	catFR1	0	R1476J
1352.683	0.866	1516389	WORD_OFF	n/a	n/a	LION	Zoo	6	10	[0, 0, 0]	n/a	catFR1	0	R1476J
1353.549	1.6	1517255	WORD	n/a	wordpools/wordpool_categorized_EN.txt	HEN	FarmAnimals	7	10	[0, 0, 0]	n/a	catFR1	0	R1476J
1355.165	0.834	1518869	WORD_OFF	n/a	n/a	HEN	FarmAnimals	7	10	[0, 0, 0]	n/a	catFR1	0	R1476J
1355.999	1.6	1519698	WORD	n/a	wordpools/wordpool_categorized_EN.txt	GOAT	FarmAnimals	8	10	[0, 0, 0]	n/a	catFR1	0	R1476J
1357.6	1.016	1521305	WORD_OFF	n/a	n/a	GOAT	FarmAnimals	8	10	[0, 0, 0]	n/a	catFR1	0	R1476J
1358.616	1.6	1522319	WORD	n/a	wordpools/wordpool_categorized_EN.txt	GORILLA	Zoo	9	10	[0, 0, 0]	n/a	catFR1	0	R1476J
1360.232	0.85	1523933	WORD_OFF	n/a	n/a	GORILLA	Zoo	9	10	[0, 0, 0]	n/a	catFR1	0	R1476J
1361.082	1.6	1524784	WORD	n/a	wordpools/wordpool_categorized_EN.txt	ZEBRA	Zoo	10	10	[0, 0, 0]	n/a	catFR1	0	R1476J
1362.682	0.9	1526383	WORD_OFF	n/a	n/a	ZEBRA	Zoo	10	10	[0, 0, 0]	n/a	catFR1	0	R1476J
1363.582	1.6	1527286	WORD	n/a	wordpools/wordpool_categorized_EN.txt	JUICE	Beverages	11	10	[0, 0, 0]	n/a	catFR1	0	R1476J
1365.182	0.784	1528885	WORD_OFF	n/a	n/a	JUICE	Beverages	11	10	[0, 0, 0]	n/a	catFR1	0	R1476J
1365.966	1.6	1529670	WORD	n/a	wordpools/wordpool_categorized_EN.txt	CIDER	Beverages	12	10	[0, 0, 0]	n/a	catFR1	0	R1476J
1367.582	0.002	1531284	WORD_OFF	n/a	n/a	CIDER	Beverages	12	10	[0, 0, 0]	n/a	catFR1	0	R1476J
1367.584	0.0	1531284	ENCODING_END	n/a	n/a	n/a	n/a	-999	10	[0, 0, 0]	n/a	catFR1	0	R1476J
1367.583	0.001	1531285	PROB	11.549	n/a	n/a	n/a	-999	10	[2, 6, 4]	12.0	catFR1	0	R1476J
1367.584	0.0	1531286	START	n/a	n/a	n/a	n/a	-999	10	[-999, -999, -999]	n/a	catFR1	0	R1476J
1367.584	11.565	1531291	DISTRACT_START	n/a	n/a	n/a	n/a	-999	10	[0, 0, 0]	n/a	catFR1	0	R1476J
1379.149	4.417	1542851	PROB	4.399	n/a	n/a	n/a	-999	10	[4, 2, 5]	11.0	catFR1	0	R1476J
1383.566	3.734	1547268	PROB	3.716	n/a	n/a	n/a	-999	10	[7, 6, 7]	18.0	catFR1	0	R1476J
1387.3	4.216	1551001	PROB	4.2	n/a	n/a	n/a	-999	10	[4, 1, 3]	8.0	catFR1	0	R1476J
1391.516	0.0	1555217	STOP	n/a	n/a	n/a	n/a	-999	10	[-999, -999, -999]	n/a	catFR1	0	R1476J
1391.516	2.151	1555218	DISTRACT_END	n/a	n/a	n/a	n/a	-999	10	[0, 0, 0]	n/a	catFR1	0	R1476J
1393.667	0.46	1557365	REC_START	n/a	n/a	n/a	n/a	-999	10	[0, 0, 0]	n/a	catFR1	0	R1476J
1394.127	0.87	1557828	REC_WORD	0.46	n/a	JUICE	Beverages	11	10	[0, 0, 0]	n/a	catFR1	0	R1476J
1394.997	0.965	1558698	REC_WORD	1.33	n/a	COFFEE	Beverages	2	10	[0, 0, 0]	n/a	catFR1	0	R1476J
1395.962	0.624	1559663	REC_WORD	2.295	n/a	BULL	FarmAnimals	3	10	[0, 0, 0]	n/a	catFR1	0	R1476J
1396.586	1.117	1560287	REC_WORD	2.919	n/a	CIDER	Beverages	12	10	[0, 0, 0]	n/a	catFR1	0	R1476J
1397.703	3.759	1561404	REC_WORD	4.036	n/a	ORANGUTAN	Zoo	5	10	[0, 0, 0]	n/a	catFR1	0	R1476J
1401.462	5.209	1565163	REC_WORD	7.795	n/a	MONKEY	Zoo	-999	10	[0, 0, 0]	n/a	catFR1	0	R1476J
1406.671	3.078	1570372	REC_WORD_VV	13.004	n/a	<>	n/a	-999	10	[0, 0, 0]	n/a	catFR1	0	R1476J
1409.749	14.15	1573450	REC_WORD	16.082	n/a	HEN	FarmAnimals	7	10	[0, 0, 0]	n/a	catFR1	0	R1476J
1423.899	12.586	1587598	REC_END	n/a	n/a	n/a	n/a	-999	10	[0, 0, 0]	n/a	catFR1	0	R1476J
1436.485	10.0	1600191	COUNTDOWN_START	n/a	n/a	n/a	n/a	-999	11	[0, 0, 0]	n/a	catFR1	0	R1476J
1446.832	0.0	1610533	COUNTDOWN_END	n/a	n/a	n/a	n/a	-999	11	[0, 0, 0]	n/a	catFR1	0	R1476J
1446.832	2.252	1610533	ENCODING_START	n/a	n/a	n/a	n/a	-999	11	[0, 0, 0]	n/a	catFR1	0	R1476J
1449.084	1.6	1612783	WORD	n/a	wordpools/wordpool_categorized_EN.txt	PLUM	Fruit	1	11	[0, 0, 0]	n/a	catFR1	0	R1476J
1450.684	0.782	1614382	WORD_OFF	n/a	n/a	PLUM	Fruit	1	11	[0, 0, 0]	n/a	catFR1	0	R1476J
1451.466	1.6	1615167	WORD	n/a	wordpools/wordpool_categorized_EN.txt	APPLE	Fruit	2	11	[0, 0, 0]	n/a	catFR1	0	R1476J
1453.067	0.884	1616766	WORD_OFF	n/a	n/a	APPLE	Fruit	2	11	[0, 0, 0]	n/a	catFR1	0	R1476J
1453.951	1.6	1617647	WORD	n/a	wordpools/wordpool_categorized_EN.txt	GOOSE	Birds	3	11	[0, 0, 0]	n/a	catFR1	0	R1476J
1455.551	0.967	1619246	WORD_OFF	n/a	n/a	GOOSE	Birds	3	11	[0, 0, 0]	n/a	catFR1	0	R1476J
1456.518	1.6	1620216	WORD	n/a	wordpools/wordpool_categorized_EN.txt	HAWK	Birds	4	11	[0, 0, 0]	n/a	catFR1	0	R1476J
1458.133	0.933	1621830	WORD_OFF	n/a	n/a	HAWK	Birds	4	11	[0, 0, 0]	n/a	catFR1	0	R1476J
1459.066	1.6	1622763	WORD	n/a	wordpools/wordpool_categorized_EN.txt	SUEDE	Fabric	5	11	[0, 0, 0]	n/a	catFR1	0	R1476J
1460.668	0.949	1624369	WORD_OFF	n/a	n/a	SUEDE	Fabric	5	11	[0, 0, 0]	n/a	catFR1	0	R1476J
1461.617	1.6	1625317	WORD	n/a	wordpools/wordpool_categorized_EN.txt	SPANDEX	Fabric	6	11	[0, 0, 0]	n/a	catFR1	0	R1476J
1463.234	0.832	1626931	WORD_OFF	n/a	n/a	SPANDEX	Fabric	6	11	[0, 0, 0]	n/a	catFR1	0	R1476J
1464.066	1.6	1627767	WORD	n/a	wordpools/wordpool_categorized_EN.txt	FINCH	Birds	7	11	[0, 0, 0]	n/a	catFR1	0	R1476J
1465.667	0.9	1629366	WORD_OFF	n/a	n/a	FINCH	Birds	7	11	[0, 0, 0]	n/a	catFR1	0	R1476J
1466.567	1.6	1630262	WORD	n/a	wordpools/wordpool_categorized_EN.txt	CARDINAL	Birds	8	11	[0, 0, 0]	n/a	catFR1	0	R1476J
1468.167	0.934	1631868	WORD_OFF	n/a	n/a	CARDINAL	Birds	8	11	[0, 0, 0]	n/a	catFR1	0	R1476J
1469.101	1.6	1632801	WORD	n/a	wordpools/wordpool_categorized_EN.txt	SATIN	Fabric	9	11	[0, 0, 0]	n/a	catFR1	0	R1476J
1470.701	0.831	1634400	WORD_OFF	n/a	n/a	SATIN	Fabric	9	11	[0, 0, 0]	n/a	catFR1	0	R1476J
1471.532	1.6	1635229	WORD	n/a	wordpools/wordpool_categorized_EN.txt	NYLON	Fabric	10	11	[0, 0, 0]	n/a	catFR1	0	R1476J
1473.134	0.966	1636828	WORD_OFF	n/a	n/a	NYLON	Fabric	10	11	[0, 0, 0]	n/a	catFR1	0	R1476J
1474.1	1.6	1637798	WORD	n/a	wordpools/wordpool_categorized_EN.txt	BLUEBERRY	Fruit	11	11	[0, 0, 0]	n/a	catFR1	0	R1476J
1475.7	0.899	1639397	WORD_OFF	n/a	n/a	BLUEBERRY	Fruit	11	11	[0, 0, 0]	n/a	catFR1	0	R1476J
1476.599	1.6	1640300	WORD	n/a	wordpools/wordpool_categorized_EN.txt	STRAWBERRY	Fruit	12	11	[0, 0, 0]	n/a	catFR1	0	R1476J
1478.2	0.0	1641898	PROB	6.482	n/a	n/a	n/a	-999	11	[3, 6, 7]	16.0	catFR1	0	R1476J
1478.2	0.001	1641899	WORD_OFF	n/a	n/a	STRAWBERRY	Fruit	12	11	[0, 0, 0]	n/a	catFR1	0	R1476J
1478.201	0.0	1641899	ENCODING_END	n/a	n/a	n/a	n/a	-999	11	[0, 0, 0]	n/a	catFR1	0	R1476J
1478.201	0.0	1641899	DISTRACT_START	n/a	n/a	n/a	n/a	-999	11	[0, 0, 0]	n/a	catFR1	0	R1476J
1478.201	6.499	1641899	START	n/a	n/a	n/a	n/a	-999	11	[-999, -999, -999]	n/a	catFR1	0	R1476J
1484.7	3.182	1648397	PROB	3.165	n/a	n/a	n/a	-999	11	[2, 5, 5]	12.0	catFR1	0	R1476J
1487.882	3.867	1651579	PROB	3.851	n/a	n/a	n/a	-999	11	[5, 3, 3]	11.0	catFR1	0	R1476J
1491.749	3.417	1655446	PROB	3.4	n/a	n/a	n/a	-999	11	[4, 1, 8]	13.0	catFR1	0	R1476J
1495.166	3.766	1658863	PROB	3.75	n/a	n/a	n/a	-999	11	[2, 4, 4]	10.0	catFR1	0	R1476J
1498.932	0.0	1662628	DISTRACT_END	n/a	n/a	n/a	n/a	-999	11	[0, 0, 0]	n/a	catFR1	0	R1476J
1498.932	2.334	1662629	STOP	n/a	n/a	n/a	n/a	-999	11	[-999, -999, -999]	n/a	catFR1	0	R1476J
1501.266	1.501	1664960	REC_START	n/a	n/a	n/a	n/a	-999	11	[0, 0, 0]	n/a	catFR1	0	R1476J
1502.767	0.894	1666464	REC_WORD	1.501	n/a	HAWK	Birds	4	11	[0, 0, 0]	n/a	catFR1	0	R1476J
1503.661	0.746	1667358	REC_WORD	2.395	n/a	PLUM	Fruit	1	11	[0, 0, 0]	n/a	catFR1	0	R1476J
1504.407	0.888	1668104	REC_WORD	3.141	n/a	APPLE	Fruit	2	11	[0, 0, 0]	n/a	catFR1	0	R1476J
1505.295	0.971	1668991	REC_WORD	4.029	n/a	BLUEBERRY	Fruit	11	11	[0, 0, 0]	n/a	catFR1	0	R1476J
1506.266	18.563	1669962	REC_WORD	5.0	n/a	JUICE	Beverages	-999	11	[0, 0, 0]	n/a	catFR1	0	R1476J
1524.829	6.674	1688525	REC_WORD_VV	23.563	n/a	<>	n/a	-999	11	[0, 0, 0]	n/a	catFR1	0	R1476J
1531.503	1.881	1695201	REC_END	n/a	n/a	n/a	n/a	-999	11	[0, 0, 0]	n/a	catFR1	0	R1476J
1533.384	10.0	1697081	COUNTDOWN_START	n/a	n/a	n/a	n/a	-999	12	[0, 0, 0]	n/a	catFR1	0	R1476J
1543.732	0.0	1707431	COUNTDOWN_END	n/a	n/a	n/a	n/a	-999	12	[0, 0, 0]	n/a	catFR1	0	R1476J
1543.732	2.017	1707431	ENCODING_START	n/a	n/a	n/a	n/a	-999	12	[0, 0, 0]	n/a	catFR1	0	R1476J
1545.749	1.6	1709444	WORD	n/a	wordpools/wordpool_categorized_EN.txt	GRAPE	Fruit	1	12	[0, 0, 0]	n/a	catFR1	0	R1476J
1547.351	0.834	1711043	WORD_OFF	n/a	n/a	GRAPE	Fruit	1	12	[0, 0, 0]	n/a	catFR1	0	R1476J
1548.185	1.6	1711880	WORD	n/a	wordpools/wordpool_categorized_EN.txt	BANANA	Fruit	2	12	[0, 0, 0]	n/a	catFR1	0	R1476J
1549.784	0.983	1713479	WORD_OFF	n/a	n/a	BANANA	Fruit	2	12	[0, 0, 0]	n/a	catFR1	0	R1476J
1550.767	1.6	1714463	WORD	n/a	wordpools/wordpool_categorized_EN.txt	DOVE	Birds	3	12	[0, 0, 0]	n/a	catFR1	0	R1476J
1552.367	0.85	1716062	WORD_OFF	n/a	n/a	DOVE	Birds	3	12	[0, 0, 0]	n/a	catFR1	0	R1476J
1553.217	1.6	1716914	WORD	n/a	wordpools/wordpool_categorized_EN.txt	BLUEBIRD	Birds	4	12	[0, 0, 0]	n/a	catFR1	0	R1476J
1554.833	0.901	1718528	WORD_OFF	n/a	n/a	BLUEBIRD	Birds	4	12	[0, 0, 0]	n/a	catFR1	0	R1476J
1555.734	1.6	1719431	WORD	n/a	wordpools/wordpool_categorized_EN.txt	WOOL	Fabric	5	12	[0, 0, 0]	n/a	catFR1	0	R1476J
1557.334	0.767	1721030	WORD_OFF	n/a	n/a	WOOL	Fabric	5	12	[0, 0, 0]	n/a	catFR1	0	R1476J
1558.101	1.6	1721792	WORD	n/a	wordpools/wordpool_categorized_EN.txt	LINEN	Fabric	6	12	[0, 0, 0]	n/a	catFR1	0	R1476J
1559.717	0.9	1723414	WORD_OFF	n/a	n/a	LINEN	Fabric	6	12	[0, 0, 0]	n/a	catFR1	0	R1476J
1560.617	1.6	1724309	WORD	n/a	wordpools/wordpool_categorized_EN.txt	SPARROW	Birds	7	12	[0, 0, 0]	n/a	catFR1	0	R1476J
1562.234	0.915	1725931	WORD_OFF	n/a	n/a	SPARROW	Birds	7	12	[0, 0, 0]	n/a	catFR1	0	R1476J
1563.149	1.6	1726841	WORD	n/a	wordpools/wordpool_categorized_EN.txt	ROBIN	Birds	8	12	[0, 0, 0]	n/a	catFR1	0	R1476J
1564.75	0.833	1728448	WORD_OFF	n/a	n/a	ROBIN	Birds	8	12	[0, 0, 0]	n/a	catFR1	0	R1476J
1565.583	1.6	1729277	WORD	n/a	wordpools/wordpool_categorized_EN.txt	FLEECE	Fabric	9	12	[0, 0, 0]	n/a	catFR1	0	R1476J
1567.184	0.916	1730876	WORD_OFF	n/a	n/a	FLEECE	Fabric	9	12	[0, 0, 0]	n/a	catFR1	0	R1476J
1568.1	1.6	1731794	WORD	n/a	wordpools/wordpool_categorized_EN.txt	VELVET	Fabric	10	12	[0, 0, 0]	n/a	catFR1	0	R1476J
1569.7	0.934	1733393	WORD_OFF	n/a	n/a	VELVET	Fabric	10	12	[0, 0, 0]	n/a	catFR1	0	R1476J
1570.634	1.6	1734326	WORD	n/a	wordpools/wordpool_categorized_EN.txt	PEAR	Fruit	11	12	[0, 0, 0]	n/a	catFR1	0	R1476J
1572.25	0.884	1735947	WORD_OFF	n/a	n/a	PEAR	Fruit	11	12	[0, 0, 0]	n/a	catFR1	0	R1476J
1573.134	1.6	1736828	WORD	n/a	wordpools/wordpool_categorized_EN.txt	ORANGE	Fruit	12	12	[0, 0, 0]	n/a	catFR1	0	R1476J
1574.75	0.001	1738442	WORD_OFF	n/a	n/a	ORANGE	Fruit	12	12	[0, 0, 0]	n/a	catFR1	0	R1476J
1574.751	0.0	1738442	ENCODING_END	n/a	n/a	n/a	n/a	-999	12	[0, 0, 0]	n/a	catFR1	0	R1476J
1574.751	0.0	1738445	START	n/a	n/a	n/a	n/a	-999	12	[-999, -999, -999]	n/a	catFR1	0	R1476J
1574.751	0.0	1738445	PROB	4.566	n/a	n/a	n/a	-999	12	[2, 7, 7]	16.0	catFR1	0	R1476J
1574.751	4.582	1738449	DISTRACT_START	n/a	n/a	n/a	n/a	-999	12	[0, 0, 0]	n/a	catFR1	0	R1476J
1579.333	3.451	1743026	PROB	3.432	n/a	n/a	n/a	-999	12	[3, 4, 3]	10.0	catFR1	0	R1476J
1582.784	4.9	1746477	PROB	4.883	n/a	n/a	n/a	-999	12	[6, 7, 8]	21.0	catFR1	0	R1476J
1587.684	3.399	1751377	PROB	3.382	n/a	n/a	n/a	-999	12	[7, 7, 3]	17.0	catFR1	0	R1476J
1591.083	4.183	1754776	PROB	4.166	n/a	n/a	n/a	-999	12	[3, 5, 6]	14.0	catFR1	0	R1476J
1595.266	0.0	1758955	DISTRACT_END	n/a	n/a	n/a	n/a	-999	12	[0, 0, 0]	n/a	catFR1	0	R1476J
1595.266	2.283	1758959	STOP	n/a	n/a	n/a	n/a	-999	12	[-999, -999, -999]	n/a	catFR1	0	R1476J
1597.549	20.872	1761243	REC_START	n/a	n/a	n/a	n/a	-999	12	[0, 0, 0]	n/a	catFR1	0	R1476J
1618.421	1.0	1782113	REC_WORD_VV	20.872	n/a	<>	n/a	-999	12	[0, 0, 0]	n/a	catFR1	0	R1476J
1619.421	4.577	1783113	REC_WORD_VV	21.872	n/a	<>	n/a	-999	12	[0, 0, 0]	n/a	catFR1	0	R1476J
1623.998	3.781	1787690	REC_WORD_VV	26.449	n/a	<>	n/a	-999	12	[0, 0, 0]	n/a	catFR1	0	R1476J
1627.779	0.0	1791469	REC_END	n/a	n/a	n/a	n/a	-999	12	[0, 0, 0]	n/a	catFR1	0	R1476J
