onset	duration	sample	trial_type	response_time	stim_file	item_name	category	serialpos	list	test	answer	experiment	session	subject
0.0	0.011	42886	SESS_START	n/a	n/a	n/a	n/a	-999	0	[0, 0, 0]	n/a	catFR1	4	R1635T
0.011	102.452	42897	TRIAL	n/a	n/a	n/a	n/a	-999	-1	[0, 0, 0]	n/a	catFR1	4	R1635T
102.463	10.0	145349	COUNTDOWN	n/a	n/a	n/a	n/a	-999	-1	[0, 0, 0]	n/a	catFR1	4	R1635T
112.896	2.151	155782	ENCODING_START	n/a	n/a	n/a	n/a	-999	-1	[0, 0, 0]	n/a	catFR1	4	R1635T
115.047	1.6	157933	WORD	n/a	n/a	PLUM	Fruit	1	-1	[0, 0, 0]	n/a	catFR1	4	R1635T
117.413	1.6	160299	WORD	n/a	n/a	LEMON	Fruit	2	-1	[0, 0, 0]	n/a	catFR1	4	R1635T
119.813	1.6	162699	WORD	n/a	n/a	PASTRY	Desserts	3	-1	[0, 0, 0]	n/a	catFR1	4	R1635T
122.345	1.6	165231	WORD	n/a	n/a	PUDDING	Desserts	4	-1	[0, 0, 0]	n/a	catFR1	4	R1635T
124.862	1.6	167748	WORD	n/a	n/a	OVEN	Appliances	5	-1	[0, 0, 0]	n/a	catFR1	4	R1635T
127.329	1.6	170215	WORD	n/a	n/a	REFRIGERATOR	Appliances	6	-1	[0, 0, 0]	n/a	catFR1	4	R1635T
129.896	1.6	172782	WORD	n/a	n/a	MOUSSE	Desserts	7	-1	[0, 0, 0]	n/a	catFR1	4	R1635T
132.345	1.6	175231	WORD	n/a	n/a	PIE	Desserts	8	-1	[0, 0, 0]	n/a	catFR1	4	R1635T
134.861	1.6	177747	WORD	n/a	n/a	IRON	Appliances	9	-1	[0, 0, 0]	n/a	catFR1	4	R1635T
137.461	1.6	180347	WORD	n/a	n/a	VACUUM	Appliances	10	-1	[0, 0, 0]	n/a	catFR1	4	R1635T
139.861	1.6	182747	WORD	n/a	n/a	PEACH	Fruit	11	-1	[0, 0, 0]	n/a	catFR1	4	R1635T
142.412	1.6	185298	WORD	n/a	n/a	APPLE	Fruit	12	-1	[0, 0, 0]	n/a	catFR1	4	R1635T
144.03	0.0	186916	DISTRACT_START	n/a	n/a	n/a	n/a	-999	0	[0, 0, 0]	n/a	catFR1	4	R1635T
144.03	5.815	186916	PROB	5.799	n/a	n/a	n/a	-999	0	[4, 7, 6]	17.0	catFR1	4	R1635T
149.845	4.133	192731	PROB	4.116	n/a	n/a	n/a	-999	0	[7, 3, 8]	18.0	catFR1	4	R1635T
153.978	3.599	196864	PROB	3.582	n/a	n/a	n/a	-999	0	[1, 3, 1]	5.0	catFR1	4	R1635T
157.577	4.018	200463	PROB	4.0	n/a	n/a	n/a	-999	0	[5, 4, 2]	11.0	catFR1	4	R1635T
161.595	7.237	204481	PROB	5.066	n/a	n/a	n/a	-999	0	[8, 6, 6]	20.0	catFR1	4	R1635T
168.832	4.958	211718	REC_START	n/a	n/a	n/a	n/a	-999	-1	[0, 0, 0]	n/a	catFR1	4	R1635T
173.79	0.335	216676	REC_WORD_VV	4.958	n/a	<>	n/a	-999	-1	[0, 0, 0]	n/a	catFR1	4	R1635T
174.125	2.118	217011	REC_WORD	5.293	n/a	PLUM	Fruit	1	-1	[0, 0, 0]	n/a	catFR1	4	R1635T
176.243	2.736	219129	REC_WORD	7.411	n/a	PUDDING	Desserts	4	-1	[0, 0, 0]	n/a	catFR1	4	R1635T
178.979	2.849	221865	REC_WORD	10.147	n/a	LEMONADE	n/a	-999	-1	[0, 0, 0]	n/a	catFR1	4	R1635T
181.828	6.311	224714	REC_WORD	12.996	n/a	MOUSSE	Desserts	7	-1	[0, 0, 0]	n/a	catFR1	4	R1635T
188.139	4.414	231025	REC_WORD	19.307	n/a	IRON	Appliances	9	-1	[0, 0, 0]	n/a	catFR1	4	R1635T
192.553	6.437	235439	REC_WORD	23.721	n/a	PANTS	n/a	-999	-1	[0, 0, 0]	n/a	catFR1	4	R1635T
198.99	13.102	241876	TRIAL	n/a	n/a	n/a	n/a	-999	1	[0, 0, 0]	n/a	catFR1	4	R1635T
212.092	10.0	254978	COUNTDOWN	n/a	n/a	n/a	n/a	-999	1	[0, 0, 0]	n/a	catFR1	4	R1635T
222.441	2.317	265327	ENCODING_START	n/a	n/a	n/a	n/a	-999	1	[0, 0, 0]	n/a	catFR1	4	R1635T
224.758	1.6	267644	WORD	n/a	wordpools/wordpool_categorized_EN.txt	BLOCKS	Toys	1	1	[0, 0, 0]	n/a	catFR1	4	R1635T
227.374	1.6	270260	WORD	n/a	wordpools/wordpool_categorized_EN.txt	PUZZLE	Toys	2	1	[0, 0, 0]	n/a	catFR1	4	R1635T
229.873	1.6	272759	WORD	n/a	wordpools/wordpool_categorized_EN.txt	BASS	Instruments	3	1	[0, 0, 0]	n/a	catFR1	4	R1635T
232.257	1.6	275143	WORD	n/a	wordpools/wordpool_categorized_EN.txt	BANJO	Instruments	4	1	[0, 0, 0]	n/a	catFR1	4	R1635T
234.774	1.6	277660	WORD	n/a	wordpools/wordpool_categorized_EN.txt	HURRICANE	Weather	5	1	[0, 0, 0]	n/a	catFR1	4	R1635T
237.207	1.6	280093	WORD	n/a	wordpools/wordpool_categorized_EN.txt	THUNDER	Weather	6	1	[0, 0, 0]	n/a	catFR1	4	R1635T
239.724	1.6	282610	WORD	n/a	wordpools/wordpool_categorized_EN.txt	FRISBEE	Toys	7	1	[0, 0, 0]	n/a	catFR1	4	R1635T
242.307	1.6	285193	WORD	n/a	wordpools/wordpool_categorized_EN.txt	BASEBALL	Toys	8	1	[0, 0, 0]	n/a	catFR1	4	R1635T
244.724	1.6	287610	WORD	n/a	wordpools/wordpool_categorized_EN.txt	TRUMPET	Instruments	9	1	[0, 0, 0]	n/a	catFR1	4	R1635T
247.139	1.6	290025	WORD	n/a	wordpools/wordpool_categorized_EN.txt	DRUM	Instruments	10	1	[0, 0, 0]	n/a	catFR1	4	R1635T
249.607	1.6	292493	WORD	n/a	wordpools/wordpool_categorized_EN.txt	HUMIDITY	Weather	11	1	[0, 0, 0]	n/a	catFR1	4	R1635T
252.089	1.6	294975	WORD	n/a	wordpools/wordpool_categorized_EN.txt	TORNADO	Weather	12	1	[0, 0, 0]	n/a	catFR1	4	R1635T
253.691	0.001	296577	PROB	4.232	n/a	n/a	n/a	-999	1	[1, 4, 2]	7.0	catFR1	4	R1635T
253.692	4.247	296578	DISTRACT_START	n/a	n/a	n/a	n/a	-999	1	[0, 0, 0]	n/a	catFR1	4	R1635T
257.939	7.834	300825	PROB	7.816	n/a	n/a	n/a	-999	1	[6, 1, 5]	12.0	catFR1	4	R1635T
265.773	4.0	308659	PROB	3.983	n/a	n/a	n/a	-999	1	[3, 7, 3]	13.0	catFR1	4	R1635T
269.773	6.343	312659	PROB	4.116	n/a	n/a	n/a	-999	1	[1, 3, 8]	12.0	catFR1	4	R1635T
276.116	2.82	319002	REC_START	n/a	n/a	n/a	n/a	-999	1	[0, 0, 0]	n/a	catFR1	4	R1635T
278.936	1.419	321822	REC_WORD	2.82	n/a	TORNADO	Weather	12	1	[0, 0, 0]	n/a	catFR1	4	R1635T
280.355	1.599	323241	REC_WORD	4.239	n/a	HUMIDITY	Weather	11	1	[0, 0, 0]	n/a	catFR1	4	R1635T
281.954	24.3	324840	REC_WORD	5.838	n/a	HURRICANE	Weather	5	1	[0, 0, 0]	n/a	catFR1	4	R1635T
306.254	4.315	349140	TRIAL	n/a	n/a	n/a	n/a	-999	2	[0, 0, 0]	n/a	catFR1	4	R1635T
310.569	10.0	353455	COUNTDOWN	n/a	n/a	n/a	n/a	-999	2	[0, 0, 0]	n/a	catFR1	4	R1635T
320.937	2.066	363823	ENCODING_START	n/a	n/a	n/a	n/a	-999	2	[0, 0, 0]	n/a	catFR1	4	R1635T
323.003	1.6	365889	WORD	n/a	wordpools/wordpool_categorized_EN.txt	LEVEL	Tools	1	2	[0, 0, 0]	n/a	catFR1	4	R1635T
325.403	1.6	368289	WORD	n/a	wordpools/wordpool_categorized_EN.txt	SANDER	Tools	2	2	[0, 0, 0]	n/a	catFR1	4	R1635T
327.97	1.6	370856	WORD	n/a	wordpools/wordpool_categorized_EN.txt	PIG	FarmAnimals	3	2	[0, 0, 0]	n/a	catFR1	4	R1635T
330.469	1.6	373355	WORD	n/a	wordpools/wordpool_categorized_EN.txt	LAMB	FarmAnimals	4	2	[0, 0, 0]	n/a	catFR1	4	R1635T
332.969	1.6	375855	WORD	n/a	wordpools/wordpool_categorized_EN.txt	COUCH	Furniture	5	2	[0, 0, 0]	n/a	catFR1	4	R1635T
335.452	1.6	378338	WORD	n/a	wordpools/wordpool_categorized_EN.txt	CABINET	Furniture	6	2	[0, 0, 0]	n/a	catFR1	4	R1635T
337.935	1.6	380821	WORD	n/a	wordpools/wordpool_categorized_EN.txt	HEN	FarmAnimals	7	2	[0, 0, 0]	n/a	catFR1	4	R1635T
340.536	1.6	383422	WORD	n/a	wordpools/wordpool_categorized_EN.txt	TURKEY	FarmAnimals	8	2	[0, 0, 0]	n/a	catFR1	4	R1635T
343.102	1.6	385988	WORD	n/a	wordpools/wordpool_categorized_EN.txt	BED	Furniture	9	2	[0, 0, 0]	n/a	catFR1	4	R1635T
345.503	1.6	388389	WORD	n/a	wordpools/wordpool_categorized_EN.txt	SOFA	Furniture	10	2	[0, 0, 0]	n/a	catFR1	4	R1635T
347.968	1.6	390854	WORD	n/a	wordpools/wordpool_categorized_EN.txt	CROWBAR	Tools	11	2	[0, 0, 0]	n/a	catFR1	4	R1635T
350.536	1.6	393422	WORD	n/a	wordpools/wordpool_categorized_EN.txt	AXE	Tools	12	2	[0, 0, 0]	n/a	catFR1	4	R1635T
352.152	0.0	395038	DISTRACT_START	n/a	n/a	n/a	n/a	-999	2	[0, 0, 0]	n/a	catFR1	4	R1635T
352.152	23.252	395038	PROB	20.949	n/a	n/a	n/a	-999	2	[8, 8, 4]	20.0	catFR1	4	R1635T
375.404	1.888	418290	REC_START	n/a	n/a	n/a	n/a	-999	2	[0, 0, 0]	n/a	catFR1	4	R1635T
377.292	1.074	420178	REC_WORD	1.888	n/a	SAND	n/a	-999	2	[0, 0, 0]	n/a	catFR1	4	R1635T
378.366	0.27	421252	REC_WORD_VV	2.962	n/a	<>	n/a	-999	2	[0, 0, 0]	n/a	catFR1	4	R1635T
378.636	1.439	421522	REC_WORD	3.232	n/a	SANDER	Tools	2	2	[0, 0, 0]	n/a	catFR1	4	R1635T
380.075	2.231	422961	REC_WORD	4.671	n/a	LEVEL	Tools	1	2	[0, 0, 0]	n/a	catFR1	4	R1635T
382.306	23.238	425192	REC_WORD	6.902	n/a	CROWBAR	Tools	11	2	[0, 0, 0]	n/a	catFR1	4	R1635T
405.544	3.922	448430	TRIAL	n/a	n/a	n/a	n/a	-999	3	[0, 0, 0]	n/a	catFR1	4	R1635T
409.466	10.0	452352	COUNTDOWN	n/a	n/a	n/a	n/a	-999	3	[0, 0, 0]	n/a	catFR1	4	R1635T
419.816	1.849	462702	ENCODING_START	n/a	n/a	n/a	n/a	-999	3	[0, 0, 0]	n/a	catFR1	4	R1635T
421.665	1.6	464551	WORD	n/a	wordpools/wordpool_categorized_EN.txt	SUNFLOWER	Flowers	1	3	[0, 0, 0]	n/a	catFR1	4	R1635T
424.048	1.6	466934	WORD	n/a	wordpools/wordpool_categorized_EN.txt	DAISY	Flowers	2	3	[0, 0, 0]	n/a	catFR1	4	R1635T
426.665	1.6	469551	WORD	n/a	wordpools/wordpool_categorized_EN.txt	FLEECE	Fabric	3	3	[0, 0, 0]	n/a	catFR1	4	R1635T
429.065	1.6	471951	WORD	n/a	wordpools/wordpool_categorized_EN.txt	SILK	Fabric	4	3	[0, 0, 0]	n/a	catFR1	4	R1635T
431.632	1.6	474518	WORD	n/a	wordpools/wordpool_categorized_EN.txt	ATTIC	Building	5	3	[0, 0, 0]	n/a	catFR1	4	R1635T
433.997	1.6	476883	WORD	n/a	wordpools/wordpool_categorized_EN.txt	ROOM	Building	6	3	[0, 0, 0]	n/a	catFR1	4	R1635T
436.431	1.6	479317	WORD	n/a	wordpools/wordpool_categorized_EN.txt	ROSE	Flowers	7	3	[0, 0, 0]	n/a	catFR1	4	R1635T
438.997	1.6	481883	WORD	n/a	wordpools/wordpool_categorized_EN.txt	LILY	Flowers	8	3	[0, 0, 0]	n/a	catFR1	4	R1635T
441.497	1.6	484383	WORD	n/a	wordpools/wordpool_categorized_EN.txt	VELVET	Fabric	9	3	[0, 0, 0]	n/a	catFR1	4	R1635T
444.098	1.6	486984	WORD	n/a	wordpools/wordpool_categorized_EN.txt	SPANDEX	Fabric	10	3	[0, 0, 0]	n/a	catFR1	4	R1635T
446.647	1.6	489533	WORD	n/a	wordpools/wordpool_categorized_EN.txt	FOUNDATION	Building	11	3	[0, 0, 0]	n/a	catFR1	4	R1635T
449.097	1.6	491983	WORD	n/a	wordpools/wordpool_categorized_EN.txt	WINDOW	Building	12	3	[0, 0, 0]	n/a	catFR1	4	R1635T
450.698	0.001	493584	PROB	4.133	n/a	n/a	n/a	-999	3	[2, 2, 5]	9.0	catFR1	4	R1635T
450.699	4.149	493585	DISTRACT_START	n/a	n/a	n/a	n/a	-999	3	[0, 0, 0]	n/a	catFR1	4	R1635T
454.848	5.349	497734	PROB	5.332	n/a	n/a	n/a	-999	3	[4, 1, 8]	13.0	catFR1	4	R1635T
460.197	4.318	503083	PROB	4.3	n/a	n/a	n/a	-999	3	[7, 4, 2]	13.0	catFR1	4	R1635T
464.515	4.432	507401	PROB	4.415	n/a	n/a	n/a	-999	3	[7, 5, 3]	15.0	catFR1	4	R1635T
468.947	5.551	511833	PROB	3.099	n/a	n/a	n/a	-999	3	[1, 5, 1]	7.0	catFR1	4	R1635T
474.498	3.013	517384	REC_START	n/a	n/a	n/a	n/a	-999	3	[0, 0, 0]	n/a	catFR1	4	R1635T
477.511	17.95	520397	REC_WORD	3.013	n/a	SPANDEX	Fabric	10	3	[0, 0, 0]	n/a	catFR1	4	R1635T
495.461	9.174	538347	REC_WORD	20.963	n/a	HAND	n/a	-999	3	[0, 0, 0]	n/a	catFR1	4	R1635T
504.635	2.276	547521	TRIAL	n/a	n/a	n/a	n/a	-999	4	[0, 0, 0]	n/a	catFR1	4	R1635T
506.911	10.0	549797	COUNTDOWN	n/a	n/a	n/a	n/a	-999	4	[0, 0, 0]	n/a	catFR1	4	R1635T
517.278	1.999	560164	ENCODING_START	n/a	n/a	n/a	n/a	-999	4	[0, 0, 0]	n/a	catFR1	4	R1635T
519.277	1.6	562163	WORD	n/a	wordpools/wordpool_categorized_EN.txt	DOVE	Birds	1	4	[0, 0, 0]	n/a	catFR1	4	R1635T
521.761	1.6	564647	WORD	n/a	wordpools/wordpool_categorized_EN.txt	SEAGULL	Birds	2	4	[0, 0, 0]	n/a	catFR1	4	R1635T
524.161	1.6	567047	WORD	n/a	wordpools/wordpool_categorized_EN.txt	TOE	BodyParts	3	4	[0, 0, 0]	n/a	catFR1	4	R1635T
526.678	1.6	569564	WORD	n/a	wordpools/wordpool_categorized_EN.txt	ARM	BodyParts	4	4	[0, 0, 0]	n/a	catFR1	4	R1635T
529.277	1.6	572163	WORD	n/a	wordpools/wordpool_categorized_EN.txt	CEDAR	Trees	5	4	[0, 0, 0]	n/a	catFR1	4	R1635T
531.876	1.6	574762	WORD	n/a	wordpools/wordpool_categorized_EN.txt	WILLOW	Trees	6	4	[0, 0, 0]	n/a	catFR1	4	R1635T
534.26	1.6	577146	WORD	n/a	wordpools/wordpool_categorized_EN.txt	HAWK	Birds	7	4	[0, 0, 0]	n/a	catFR1	4	R1635T
536.726	1.6	579612	WORD	n/a	wordpools/wordpool_categorized_EN.txt	ROBIN	Birds	8	4	[0, 0, 0]	n/a	catFR1	4	R1635T
539.193	1.6	582079	WORD	n/a	wordpools/wordpool_categorized_EN.txt	KNEE	BodyParts	9	4	[0, 0, 0]	n/a	catFR1	4	R1635T
541.71	1.6	584596	WORD	n/a	wordpools/wordpool_categorized_EN.txt	HAND	BodyParts	10	4	[0, 0, 0]	n/a	catFR1	4	R1635T
544.209	1.6	587095	WORD	n/a	wordpools/wordpool_categorized_EN.txt	HICKORY	Trees	11	4	[0, 0, 0]	n/a	catFR1	4	R1635T
546.576	1.6	589462	WORD	n/a	wordpools/wordpool_categorized_EN.txt	PINE	Trees	12	4	[0, 0, 0]	n/a	catFR1	4	R1635T
548.177	0.001	591063	PROB	4.649	n/a	n/a	n/a	-999	4	[5, 7, 5]	17.0	catFR1	4	R1635T
548.178	4.666	591064	DISTRACT_START	n/a	n/a	n/a	n/a	-999	4	[0, 0, 0]	n/a	catFR1	4	R1635T
552.844	5.065	595730	PROB	5.049	n/a	n/a	n/a	-999	4	[6, 1, 4]	11.0	catFR1	4	R1635T
557.909	3.949	600795	PROB	3.932	n/a	n/a	n/a	-999	4	[8, 1, 2]	11.0	catFR1	4	R1635T
561.858	5.784	604744	PROB	5.767	n/a	n/a	n/a	-999	4	[8, 4, 5]	17.0	catFR1	4	R1635T
567.642	8.305	610528	PROB	5.965	n/a	n/a	n/a	-999	4	[2, 6, 8]	16.0	catFR1	4	R1635T
575.947	1.669	618833	REC_START	n/a	n/a	n/a	n/a	-999	4	[0, 0, 0]	n/a	catFR1	4	R1635T
577.616	1.397	620502	REC_WORD	1.669	n/a	DOVE	Birds	1	4	[0, 0, 0]	n/a	catFR1	4	R1635T
579.013	3.525	621899	REC_WORD	3.066	n/a	SEAGULL	Birds	2	4	[0, 0, 0]	n/a	catFR1	4	R1635T
582.538	1.806	625424	REC_WORD	6.591	n/a	HAWK	Birds	7	4	[0, 0, 0]	n/a	catFR1	4	R1635T
584.344	5.17	627230	REC_WORD	8.397	n/a	ROBIN	Birds	8	4	[0, 0, 0]	n/a	catFR1	4	R1635T
589.514	1.769	632400	REC_WORD	13.567	n/a	KNEE	BodyParts	9	4	[0, 0, 0]	n/a	catFR1	4	R1635T
591.283	5.935	634169	REC_WORD	15.336	n/a	HAND	BodyParts	10	4	[0, 0, 0]	n/a	catFR1	4	R1635T
597.218	3.168	640104	REC_WORD	21.271	n/a	HICKORY	Trees	11	4	[0, 0, 0]	n/a	catFR1	4	R1635T
600.386	5.701	643272	REC_WORD	24.439	n/a	OAK	n/a	-999	4	[0, 0, 0]	n/a	catFR1	4	R1635T
606.087	3.07	648973	TRIAL	n/a	n/a	n/a	n/a	-999	5	[0, 0, 0]	n/a	catFR1	4	R1635T
609.157	10.0	652043	COUNTDOWN	n/a	n/a	n/a	n/a	-999	5	[0, 0, 0]	n/a	catFR1	4	R1635T
619.522	2.066	662408	ENCODING_START	n/a	n/a	n/a	n/a	-999	5	[0, 0, 0]	n/a	catFR1	4	R1635T
621.588	1.6	664474	WORD	n/a	wordpools/wordpool_categorized_EN.txt	MILK	Beverages	1	5	[0, 0, 0]	n/a	catFR1	4	R1635T
624.005	1.6	666891	WORD	n/a	wordpools/wordpool_categorized_EN.txt	LEMONADE	Beverages	2	5	[0, 0, 0]	n/a	catFR1	4	R1635T
626.54	1.6	669426	WORD	n/a	wordpools/wordpool_categorized_EN.txt	BLUEBIRD	Birds	3	5	[0, 0, 0]	n/a	catFR1	4	R1635T
629.139	1.6	672025	WORD	n/a	wordpools/wordpool_categorized_EN.txt	SPARROW	Birds	4	5	[0, 0, 0]	n/a	catFR1	4	R1635T
631.556	1.6	674442	WORD	n/a	wordpools/wordpool_categorized_EN.txt	STRAINER	KitchenTools	5	5	[0, 0, 0]	n/a	catFR1	4	R1635T
634.022	1.6	676908	WORD	n/a	wordpools/wordpool_categorized_EN.txt	FORK	KitchenTools	6	5	[0, 0, 0]	n/a	catFR1	4	R1635T
636.571	1.6	679457	WORD	n/a	wordpools/wordpool_categorized_EN.txt	RUM	Beverages	7	5	[0, 0, 0]	n/a	catFR1	4	R1635T
638.955	1.6	681841	WORD	n/a	wordpools/wordpool_categorized_EN.txt	CIDER	Beverages	8	5	[0, 0, 0]	n/a	catFR1	4	R1635T
641.355	1.6	684241	WORD	n/a	wordpools/wordpool_categorized_EN.txt	PEELER	KitchenTools	9	5	[0, 0, 0]	n/a	catFR1	4	R1635T
643.738	1.6	686624	WORD	n/a	wordpools/wordpool_categorized_EN.txt	CORKSCREW	KitchenTools	10	5	[0, 0, 0]	n/a	catFR1	4	R1635T
646.138	1.6	689024	WORD	n/a	wordpools/wordpool_categorized_EN.txt	CROW	Birds	11	5	[0, 0, 0]	n/a	catFR1	4	R1635T
648.522	1.6	691408	WORD	n/a	wordpools/wordpool_categorized_EN.txt	FINCH	Birds	12	5	[0, 0, 0]	n/a	catFR1	4	R1635T
650.139	0.0	693025	PROB	4.298	n/a	n/a	n/a	-999	5	[4, 8, 4]	16.0	catFR1	4	R1635T
650.139	4.317	693025	DISTRACT_START	n/a	n/a	n/a	n/a	-999	5	[0, 0, 0]	n/a	catFR1	4	R1635T
654.456	4.649	697342	PROB	4.632	n/a	n/a	n/a	-999	5	[4, 3, 4]	11.0	catFR1	4	R1635T
659.105	3.45	701991	PROB	3.432	n/a	n/a	n/a	-999	5	[1, 2, 8]	11.0	catFR1	4	R1635T
662.555	4.282	705441	PROB	4.266	n/a	n/a	n/a	-999	5	[6, 1, 3]	10.0	catFR1	4	R1635T
666.837	11.139	709723	PROB	8.733	n/a	n/a	n/a	-999	5	[4, 3, 5]	12.0	catFR1	4	R1635T
677.976	2.415	720862	REC_START	n/a	n/a	n/a	n/a	-999	5	[0, 0, 0]	n/a	catFR1	4	R1635T
680.391	7.311	723277	REC_WORD	2.415	n/a	LEMONADE	Beverages	2	5	[0, 0, 0]	n/a	catFR1	4	R1635T
687.702	3.341	730588	REC_WORD	9.726	n/a	FINCH	Birds	12	5	[0, 0, 0]	n/a	catFR1	4	R1635T
691.043	8.415	733929	REC_WORD	13.067	n/a	SPARROW	Birds	4	5	[0, 0, 0]	n/a	catFR1	4	R1635T
699.458	3.16	742344	REC_WORD	21.482	n/a	HAWK	Birds	-999	5	[0, 0, 0]	n/a	catFR1	4	R1635T
702.618	3.914	745504	REC_WORD	24.642	n/a	STRAINER	KitchenTools	5	5	[0, 0, 0]	n/a	catFR1	4	R1635T
706.532	1.574	749418	REC_WORD	28.556	n/a	MILK	Beverages	1	5	[0, 0, 0]	n/a	catFR1	4	R1635T
708.106	4.544	750992	TRIAL	n/a	n/a	n/a	n/a	-999	6	[0, 0, 0]	n/a	catFR1	4	R1635T
712.65	10.0	755536	COUNTDOWN	n/a	n/a	n/a	n/a	-999	6	[0, 0, 0]	n/a	catFR1	4	R1635T
723.019	1.983	765905	ENCODING_START	n/a	n/a	n/a	n/a	-999	6	[0, 0, 0]	n/a	catFR1	4	R1635T
725.002	1.6	767888	WORD	n/a	wordpools/wordpool_categorized_EN.txt	KNIFE	KitchenTools	1	6	[0, 0, 0]	n/a	catFR1	4	R1635T
727.485	1.6	770371	WORD	n/a	wordpools/wordpool_categorized_EN.txt	COLANDER	KitchenTools	2	6	[0, 0, 0]	n/a	catFR1	4	R1635T
730.101	1.6	772987	WORD	n/a	wordpools/wordpool_categorized_EN.txt	FLOOR	Building	3	6	[0, 0, 0]	n/a	catFR1	4	R1635T
732.635	1.6	775521	WORD	n/a	wordpools/wordpool_categorized_EN.txt	ROOF	Building	4	6	[0, 0, 0]	n/a	catFR1	4	R1635T
735.168	1.6	778054	WORD	n/a	wordpools/wordpool_categorized_EN.txt	PEN	OfficeSupplies	5	6	[0, 0, 0]	n/a	catFR1	4	R1635T
737.568	1.6	780454	WORD	n/a	wordpools/wordpool_categorized_EN.txt	MARKER	OfficeSupplies	6	6	[0, 0, 0]	n/a	catFR1	4	R1635T
740.117	1.6	783003	WORD	n/a	wordpools/wordpool_categorized_EN.txt	DOOR	Building	7	6	[0, 0, 0]	n/a	catFR1	4	R1635T
742.717	1.6	785603	WORD	n/a	wordpools/wordpool_categorized_EN.txt	CEILING	Building	8	6	[0, 0, 0]	n/a	catFR1	4	R1635T
745.15	1.6	788036	WORD	n/a	wordpools/wordpool_categorized_EN.txt	SPATULA	KitchenTools	9	6	[0, 0, 0]	n/a	catFR1	4	R1635T
747.65	1.6	790536	WORD	n/a	wordpools/wordpool_categorized_EN.txt	GRATER	KitchenTools	10	6	[0, 0, 0]	n/a	catFR1	4	R1635T
750.033	1.6	792919	WORD	n/a	wordpools/wordpool_categorized_EN.txt	FOLDER	OfficeSupplies	11	6	[0, 0, 0]	n/a	catFR1	4	R1635T
752.534	1.6	795420	WORD	n/a	wordpools/wordpool_categorized_EN.txt	NOTEBOOK	OfficeSupplies	12	6	[0, 0, 0]	n/a	catFR1	4	R1635T
754.151	0.001	797037	PROB	4.516	n/a	n/a	n/a	-999	6	[6, 7, 3]	16.0	catFR1	4	R1635T
754.152	4.532	797038	DISTRACT_START	n/a	n/a	n/a	n/a	-999	6	[0, 0, 0]	n/a	catFR1	4	R1635T
758.684	3.918	801570	PROB	3.9	n/a	n/a	n/a	-999	6	[4, 5, 2]	11.0	catFR1	4	R1635T
762.602	4.364	805488	PROB	4.349	n/a	n/a	n/a	-999	6	[6, 4, 6]	16.0	catFR1	4	R1635T
766.966	3.818	809852	PROB	3.8	n/a	n/a	n/a	-999	6	[3, 1, 4]	8.0	catFR1	4	R1635T
770.784	5.547	813670	PROB	3.449	n/a	n/a	n/a	-999	6	[5, 5, 1]	11.0	catFR1	4	R1635T
776.331	7.03	819217	REC_START	n/a	n/a	n/a	n/a	-999	6	[0, 0, 0]	n/a	catFR1	4	R1635T
783.361	7.742	826247	REC_WORD	7.03	n/a	LEMONADE	Beverages	-999	6	[0, 0, 0]	n/a	catFR1	4	R1635T
791.103	15.364	833989	REC_WORD	14.772	n/a	GRINDER	n/a	-999	6	[0, 0, 0]	n/a	catFR1	4	R1635T
806.467	3.064	849353	TRIAL	n/a	n/a	n/a	n/a	-999	7	[0, 0, 0]	n/a	catFR1	4	R1635T
809.531	10.0	852417	COUNTDOWN	n/a	n/a	n/a	n/a	-999	7	[0, 0, 0]	n/a	catFR1	4	R1635T
819.898	1.866	862784	ENCODING_START	n/a	n/a	n/a	n/a	-999	7	[0, 0, 0]	n/a	catFR1	4	R1635T
821.764	1.6	864650	WORD	n/a	wordpools/wordpool_categorized_EN.txt	GOAT	FarmAnimals	1	7	[0, 0, 0]	n/a	catFR1	4	R1635T
824.247	1.6	867133	WORD	n/a	wordpools/wordpool_categorized_EN.txt	HORSE	FarmAnimals	2	7	[0, 0, 0]	n/a	catFR1	4	R1635T
826.847	1.6	869733	WORD	n/a	wordpools/wordpool_categorized_EN.txt	BEAR	Zoo	3	7	[0, 0, 0]	n/a	catFR1	4	R1635T
829.281	1.6	872167	WORD	n/a	wordpools/wordpool_categorized_EN.txt	CHIMPANZEE	Zoo	4	7	[0, 0, 0]	n/a	catFR1	4	R1635T
831.847	1.6	874733	WORD	n/a	wordpools/wordpool_categorized_EN.txt	CHAIR	Furniture	5	7	[0, 0, 0]	n/a	catFR1	4	R1635T
834.414	1.6	877300	WORD	n/a	wordpools/wordpool_categorized_EN.txt	RECLINER	Furniture	6	7	[0, 0, 0]	n/a	catFR1	4	R1635T
836.913	1.6	879799	WORD	n/a	wordpools/wordpool_categorized_EN.txt	SHEEP	FarmAnimals	7	7	[0, 0, 0]	n/a	catFR1	4	R1635T
839.479	1.6	882365	WORD	n/a	wordpools/wordpool_categorized_EN.txt	CHICKEN	FarmAnimals	8	7	[0, 0, 0]	n/a	catFR1	4	R1635T
842.061	1.6	884947	WORD	n/a	wordpools/wordpool_categorized_EN.txt	MONKEY	Zoo	9	7	[0, 0, 0]	n/a	catFR1	4	R1635T
844.546	1.6	887432	WORD	n/a	wordpools/wordpool_categorized_EN.txt	ORANGUTAN	Zoo	10	7	[0, 0, 0]	n/a	catFR1	4	R1635T
846.945	1.6	889831	WORD	n/a	wordpools/wordpool_categorized_EN.txt	BOOKCASE	Furniture	11	7	[0, 0, 0]	n/a	catFR1	4	R1635T
849.446	1.6	892332	WORD	n/a	wordpools/wordpool_categorized_EN.txt	DESK	Furniture	12	7	[0, 0, 0]	n/a	catFR1	4	R1635T
851.063	0.0	893949	DISTRACT_START	n/a	n/a	n/a	n/a	-999	7	[0, 0, 0]	n/a	catFR1	4	R1635T
851.063	4.666	893949	PROB	4.65	n/a	n/a	n/a	-999	7	[7, 1, 7]	15.0	catFR1	4	R1635T
855.729	4.467	898615	PROB	4.45	n/a	n/a	n/a	-999	7	[3, 5, 4]	12.0	catFR1	4	R1635T
860.196	3.434	903082	PROB	3.417	n/a	n/a	n/a	-999	7	[6, 1, 2]	9.0	catFR1	4	R1635T
863.63	6.616	906516	PROB	6.599	n/a	n/a	n/a	-999	7	[6, 5, 3]	14.0	catFR1	4	R1635T
870.246	7.917	913132	PROB	5.483	n/a	n/a	n/a	-999	7	[7, 2, 5]	14.0	catFR1	4	R1635T
878.163	4.308	921049	REC_START	n/a	n/a	n/a	n/a	-999	7	[0, 0, 0]	n/a	catFR1	4	R1635T
882.471	0.391	925357	REC_WORD_VV	4.308	n/a	<>	n/a	-999	7	[0, 0, 0]	n/a	catFR1	4	R1635T
882.862	1.008	925748	REC_WORD	4.699	n/a	COKE	n/a	-999	7	[0, 0, 0]	n/a	catFR1	4	R1635T
883.87	1.966	926756	REC_WORD	5.707	n/a	HORSE	FarmAnimals	2	7	[0, 0, 0]	n/a	catFR1	4	R1635T
885.836	2.56	928722	REC_WORD	7.673	n/a	DONKEY	n/a	-999	7	[0, 0, 0]	n/a	catFR1	4	R1635T
888.396	3.409	931282	REC_WORD	10.233	n/a	MONKEY	Zoo	9	7	[0, 0, 0]	n/a	catFR1	4	R1635T
891.805	5.2	934691	REC_WORD	13.642	n/a	ORANGUTAN	Zoo	10	7	[0, 0, 0]	n/a	catFR1	4	R1635T
897.005	4.313	939891	REC_WORD	18.842	n/a	CHICKEN	FarmAnimals	8	7	[0, 0, 0]	n/a	catFR1	4	R1635T
901.318	6.52	944204	REC_WORD	23.155	n/a	SHEEP	FarmAnimals	7	7	[0, 0, 0]	n/a	catFR1	4	R1635T
907.838	0.459	950724	REC_WORD	29.675	n/a	DESK	Furniture	12	7	[0, 0, 0]	n/a	catFR1	4	R1635T
908.297	4.679	951183	TRIAL	n/a	n/a	n/a	n/a	-999	8	[0, 0, 0]	n/a	catFR1	4	R1635T
912.976	10.0	955862	COUNTDOWN	n/a	n/a	n/a	n/a	-999	8	[0, 0, 0]	n/a	catFR1	4	R1635T
923.326	1.866	966212	ENCODING_START	n/a	n/a	n/a	n/a	-999	8	[0, 0, 0]	n/a	catFR1	4	R1635T
925.192	1.6	968078	WORD	n/a	wordpools/wordpool_categorized_EN.txt	PLANKTON	OceanAnimals	1	8	[0, 0, 0]	n/a	catFR1	4	R1635T
927.642	1.6	970528	WORD	n/a	wordpools/wordpool_categorized_EN.txt	FISH	OceanAnimals	2	8	[0, 0, 0]	n/a	catFR1	4	R1635T
930.16	1.6	973046	WORD	n/a	wordpools/wordpool_categorized_EN.txt	WOOL	Fabric	3	8	[0, 0, 0]	n/a	catFR1	4	R1635T
932.592	1.6	975478	WORD	n/a	wordpools/wordpool_categorized_EN.txt	SATIN	Fabric	4	8	[0, 0, 0]	n/a	catFR1	4	R1635T
935.192	1.6	978078	WORD	n/a	wordpools/wordpool_categorized_EN.txt	NOSE	BodyParts	5	8	[0, 0, 0]	n/a	catFR1	4	R1635T
937.759	1.6	980645	WORD	n/a	wordpools/wordpool_categorized_EN.txt	FOOT	BodyParts	6	8	[0, 0, 0]	n/a	catFR1	4	R1635T
940.158	1.6	983044	WORD	n/a	wordpools/wordpool_categorized_EN.txt	DENIM	Fabric	7	8	[0, 0, 0]	n/a	catFR1	4	R1635T
942.675	1.6	985561	WORD	n/a	wordpools/wordpool_categorized_EN.txt	LINEN	Fabric	8	8	[0, 0, 0]	n/a	catFR1	4	R1635T
945.175	1.6	988061	WORD	n/a	wordpools/wordpool_categorized_EN.txt	FINGERS	BodyParts	9	8	[0, 0, 0]	n/a	catFR1	4	R1635T
947.591	1.6	990477	WORD	n/a	wordpools/wordpool_categorized_EN.txt	HEAD	BodyParts	10	8	[0, 0, 0]	n/a	catFR1	4	R1635T
950.141	1.6	993027	WORD	n/a	wordpools/wordpool_categorized_EN.txt	WHALE	OceanAnimals	11	8	[0, 0, 0]	n/a	catFR1	4	R1635T
952.524	1.6	995410	WORD	n/a	wordpools/wordpool_categorized_EN.txt	CRAB	OceanAnimals	12	8	[0, 0, 0]	n/a	catFR1	4	R1635T
954.125	0.0	997011	DISTRACT_START	n/a	n/a	n/a	n/a	-999	8	[0, 0, 0]	n/a	catFR1	4	R1635T
954.125	3.417	997011	PROB	3.399	n/a	n/a	n/a	-999	8	[1, 1, 2]	4.0	catFR1	4	R1635T
957.542	3.267	1000428	PROB	3.249	n/a	n/a	n/a	-999	8	[1, 3, 1]	5.0	catFR1	4	R1635T
960.809	3.533	1003695	PROB	3.515	n/a	n/a	n/a	-999	8	[4, 3, 1]	8.0	catFR1	4	R1635T
964.342	3.782	1007228	PROB	3.765	n/a	n/a	n/a	-999	8	[4, 5, 3]	12.0	catFR1	4	R1635T
968.124	4.316	1011010	PROB	4.3	n/a	n/a	n/a	-999	8	[5, 3, 3]	11.0	catFR1	4	R1635T
972.44	7.09	1015326	PROB	4.917	n/a	n/a	n/a	-999	8	[4, 2, 7]	13.0	catFR1	4	R1635T
979.53	4.141	1022416	REC_START	n/a	n/a	n/a	n/a	-999	8	[0, 0, 0]	n/a	catFR1	4	R1635T
983.671	5.077	1026557	REC_WORD	4.141	n/a	RISTER	n/a	-999	8	[0, 0, 0]	n/a	catFR1	4	R1635T
988.748	3.839	1031634	REC_WORD	9.218	n/a	CRAB	OceanAnimals	12	8	[0, 0, 0]	n/a	catFR1	4	R1635T
992.587	2.857	1035473	REC_WORD	13.057	n/a	FLEECE	Fabric	-999	8	[0, 0, 0]	n/a	catFR1	4	R1635T
995.444	4.698	1038330	REC_WORD	15.914	n/a	SILK	Fabric	-999	8	[0, 0, 0]	n/a	catFR1	4	R1635T
1000.142	8.663	1043028	REC_WORD	20.612	n/a	WOOL	Fabric	3	8	[0, 0, 0]	n/a	catFR1	4	R1635T
1008.805	0.871	1051691	REC_WORD	29.275	n/a	FINCH	Birds	-999	8	[0, 0, 0]	n/a	catFR1	4	R1635T
1009.676	3.196	1052562	TRIAL	n/a	n/a	n/a	n/a	-999	9	[0, 0, 0]	n/a	catFR1	4	R1635T
1012.872	10.0	1055758	COUNTDOWN	n/a	n/a	n/a	n/a	-999	9	[0, 0, 0]	n/a	catFR1	4	R1635T
1023.238	2.0	1066124	ENCODING_START	n/a	n/a	n/a	n/a	-999	9	[0, 0, 0]	n/a	catFR1	4	R1635T
1025.238	1.6	1068124	WORD	n/a	wordpools/wordpool_categorized_EN.txt	SPOON	KitchenTools	1	9	[0, 0, 0]	n/a	catFR1	4	R1635T
1027.708	1.6	1070594	WORD	n/a	wordpools/wordpool_categorized_EN.txt	TONGS	KitchenTools	2	9	[0, 0, 0]	n/a	catFR1	4	R1635T
1030.205	1.6	1073091	WORD	n/a	wordpools/wordpool_categorized_EN.txt	SODA	Beverages	3	9	[0, 0, 0]	n/a	catFR1	4	R1635T
1032.605	1.6	1075491	WORD	n/a	wordpools/wordpool_categorized_EN.txt	WINE	Beverages	4	9	[0, 0, 0]	n/a	catFR1	4	R1635T
1035.204	1.6	1078090	WORD	n/a	wordpools/wordpool_categorized_EN.txt	PRINTER	Electronics	5	9	[0, 0, 0]	n/a	catFR1	4	R1635T
1037.654	1.6	1080540	WORD	n/a	wordpools/wordpool_categorized_EN.txt	SPEAKER	Electronics	6	9	[0, 0, 0]	n/a	catFR1	4	R1635T
1040.087	1.6	1082973	WORD	n/a	wordpools/wordpool_categorized_EN.txt	WHISK	KitchenTools	7	9	[0, 0, 0]	n/a	catFR1	4	R1635T
1042.454	1.6	1085340	WORD	n/a	wordpools/wordpool_categorized_EN.txt	LADLE	KitchenTools	8	9	[0, 0, 0]	n/a	catFR1	4	R1635T
1045.037	1.6	1087923	WORD	n/a	wordpools/wordpool_categorized_EN.txt	SCANNER	Electronics	9	9	[0, 0, 0]	n/a	catFR1	4	R1635T
1047.471	1.6	1090357	WORD	n/a	wordpools/wordpool_categorized_EN.txt	TELEVISION	Electronics	10	9	[0, 0, 0]	n/a	catFR1	4	R1635T
1049.871	1.6	1092757	WORD	n/a	wordpools/wordpool_categorized_EN.txt	COLA	Beverages	11	9	[0, 0, 0]	n/a	catFR1	4	R1635T
1052.453	1.6	1095339	WORD	n/a	wordpools/wordpool_categorized_EN.txt	JUICE	Beverages	12	9	[0, 0, 0]	n/a	catFR1	4	R1635T
1054.07	0.0	1096956	DISTRACT_START	n/a	n/a	n/a	n/a	-999	9	[0, 0, 0]	n/a	catFR1	4	R1635T
1054.07	4.45	1096956	PROB	4.433	n/a	n/a	n/a	-999	9	[6, 6, 3]	15.0	catFR1	4	R1635T
1058.52	4.967	1101406	PROB	4.949	n/a	n/a	n/a	-999	9	[3, 4, 3]	10.0	catFR1	4	R1635T
1063.487	3.716	1106373	PROB	3.699	n/a	n/a	n/a	-999	9	[2, 8, 7]	17.0	catFR1	4	R1635T
1067.203	6.316	1110089	PROB	6.299	n/a	n/a	n/a	-999	9	[1, 8, 5]	14.0	catFR1	4	R1635T
1073.519	5.968	1116405	PROB	3.516	n/a	n/a	n/a	-999	9	[3, 1, 1]	5.0	catFR1	4	R1635T
1079.487	2.14	1122373	REC_START	n/a	n/a	n/a	n/a	-999	9	[0, 0, 0]	n/a	catFR1	4	R1635T
1081.627	2.141	1124513	REC_WORD	2.14	n/a	TONGS	KitchenTools	2	9	[0, 0, 0]	n/a	catFR1	4	R1635T
1083.768	2.251	1126654	REC_WORD	4.281	n/a	LADLE	KitchenTools	8	9	[0, 0, 0]	n/a	catFR1	4	R1635T
1086.019	9.558	1128905	REC_WORD	6.532	n/a	SPOON	KitchenTools	1	9	[0, 0, 0]	n/a	catFR1	4	R1635T
1095.577	3.087	1138463	REC_WORD	16.09	n/a	SODA	Beverages	3	9	[0, 0, 0]	n/a	catFR1	4	R1635T
1098.664	1.925	1141550	REC_WORD	19.177	n/a	JUICE	Beverages	12	9	[0, 0, 0]	n/a	catFR1	4	R1635T
1100.589	9.035	1143475	REC_WORD	21.102	n/a	COLA	Beverages	11	9	[0, 0, 0]	n/a	catFR1	4	R1635T
1109.624	2.943	1152510	TRIAL	n/a	n/a	n/a	n/a	-999	10	[0, 0, 0]	n/a	catFR1	4	R1635T
1112.567	10.0	1155453	COUNTDOWN	n/a	n/a	n/a	n/a	-999	10	[0, 0, 0]	n/a	catFR1	4	R1635T
1122.918	2.081	1165804	ENCODING_START	n/a	n/a	n/a	n/a	-999	10	[0, 0, 0]	n/a	catFR1	4	R1635T
1124.999	1.6	1167885	WORD	n/a	wordpools/wordpool_categorized_EN.txt	CREEK	Landscapes	1	10	[0, 0, 0]	n/a	catFR1	4	R1635T
1127.534	1.6	1170420	WORD	n/a	wordpools/wordpool_categorized_EN.txt	ISLAND	Landscapes	2	10	[0, 0, 0]	n/a	catFR1	4	R1635T
1130.1	1.6	1172986	WORD	n/a	wordpools/wordpool_categorized_EN.txt	VAN	Vehicles	3	10	[0, 0, 0]	n/a	catFR1	4	R1635T
1132.633	1.6	1175519	WORD	n/a	wordpools/wordpool_categorized_EN.txt	MOTORCYCLE	Vehicles	4	10	[0, 0, 0]	n/a	catFR1	4	R1635T
1135.103	1.6	1177989	WORD	n/a	wordpools/wordpool_categorized_EN.txt	FOOTBALL	Toys	5	10	[0, 0, 0]	n/a	catFR1	4	R1635T
1137.549	1.6	1180435	WORD	n/a	wordpools/wordpool_categorized_EN.txt	BALL	Toys	6	10	[0, 0, 0]	n/a	catFR1	4	R1635T
1140.082	1.6	1182968	WORD	n/a	wordpools/wordpool_categorized_EN.txt	JEEP	Vehicles	7	10	[0, 0, 0]	n/a	catFR1	4	R1635T
1142.599	1.6	1185485	WORD	n/a	wordpools/wordpool_categorized_EN.txt	TRUCK	Vehicles	8	10	[0, 0, 0]	n/a	catFR1	4	R1635T
1145.199	1.6	1188085	WORD	n/a	wordpools/wordpool_categorized_EN.txt	SLINKY	Toys	9	10	[0, 0, 0]	n/a	catFR1	4	R1635T
1147.632	1.6	1190518	WORD	n/a	wordpools/wordpool_categorized_EN.txt	DOLLHOUSE	Toys	10	10	[0, 0, 0]	n/a	catFR1	4	R1635T
1150.214	1.6	1193100	WORD	n/a	wordpools/wordpool_categorized_EN.txt	RIVER	Landscapes	11	10	[0, 0, 0]	n/a	catFR1	4	R1635T
1152.765	1.6	1195651	WORD	n/a	wordpools/wordpool_categorized_EN.txt	VALLEY	Landscapes	12	10	[0, 0, 0]	n/a	catFR1	4	R1635T
1154.366	0.0	1197252	DISTRACT_START	n/a	n/a	n/a	n/a	-999	10	[0, 0, 0]	n/a	catFR1	4	R1635T
1154.366	4.517	1197252	PROB	4.499	n/a	n/a	n/a	-999	10	[8, 8, 2]	18.0	catFR1	4	R1635T
1158.883	3.598	1201769	PROB	3.583	n/a	n/a	n/a	-999	10	[1, 3, 7]	11.0	catFR1	4	R1635T
1162.481	3.885	1205367	PROB	3.867	n/a	n/a	n/a	-999	10	[8, 8, 1]	17.0	catFR1	4	R1635T
1166.366	4.331	1209252	PROB	4.316	n/a	n/a	n/a	-999	10	[6, 7, 3]	16.0	catFR1	4	R1635T
1170.697	6.416	1213583	PROB	3.934	n/a	n/a	n/a	-999	10	[3, 4, 2]	9.0	catFR1	4	R1635T
1177.113	0.684	1219999	REC_START	n/a	n/a	n/a	n/a	-999	10	[0, 0, 0]	n/a	catFR1	4	R1635T
1177.797	1.943	1220683	REC_WORD	0.684	n/a	SLINKY	Toys	9	10	[0, 0, 0]	n/a	catFR1	4	R1635T
1179.74	27.513	1222626	REC_WORD	2.627	n/a	DOLLHOUSE	Toys	10	10	[0, 0, 0]	n/a	catFR1	4	R1635T
1207.253	3.577	1250139	TRIAL	n/a	n/a	n/a	n/a	-999	11	[0, 0, 0]	n/a	catFR1	4	R1635T
1210.83	10.0	1253716	COUNTDOWN	n/a	n/a	n/a	n/a	-999	11	[0, 0, 0]	n/a	catFR1	4	R1635T
1221.196	2.033	1264082	ENCODING_START	n/a	n/a	n/a	n/a	-999	11	[0, 0, 0]	n/a	catFR1	4	R1635T
1223.229	1.6	1266115	WORD	n/a	wordpools/wordpool_categorized_EN.txt	ELBOW	BodyParts	1	11	[0, 0, 0]	n/a	catFR1	4	R1635T
1225.679	1.6	1268565	WORD	n/a	wordpools/wordpool_categorized_EN.txt	EYE	BodyParts	2	11	[0, 0, 0]	n/a	catFR1	4	R1635T
1228.146	1.6	1271032	WORD	n/a	wordpools/wordpool_categorized_EN.txt	CAKE	Desserts	3	11	[0, 0, 0]	n/a	catFR1	4	R1635T
1230.579	1.6	1273465	WORD	n/a	wordpools/wordpool_categorized_EN.txt	CUPCAKE	Desserts	4	11	[0, 0, 0]	n/a	catFR1	4	R1635T
1233.062	1.6	1275948	WORD	n/a	wordpools/wordpool_categorized_EN.txt	STREAM	Landscapes	5	11	[0, 0, 0]	n/a	catFR1	4	R1635T
1235.645	1.6	1278531	WORD	n/a	wordpools/wordpool_categorized_EN.txt	HILLS	Landscapes	6	11	[0, 0, 0]	n/a	catFR1	4	R1635T
1238.162	1.6	1281048	WORD	n/a	wordpools/wordpool_categorized_EN.txt	CHEESECAKE	Desserts	7	11	[0, 0, 0]	n/a	catFR1	4	R1635T
1240.695	1.6	1283581	WORD	n/a	wordpools/wordpool_categorized_EN.txt	FUDGE	Desserts	8	11	[0, 0, 0]	n/a	catFR1	4	R1635T
1243.161	1.6	1286047	WORD	n/a	wordpools/wordpool_categorized_EN.txt	LAKE	Landscapes	9	11	[0, 0, 0]	n/a	catFR1	4	R1635T
1245.544	1.6	1288430	WORD	n/a	wordpools/wordpool_categorized_EN.txt	WOODS	Landscapes	10	11	[0, 0, 0]	n/a	catFR1	4	R1635T
1248.112	1.6	1290998	WORD	n/a	wordpools/wordpool_categorized_EN.txt	EAR	BodyParts	11	11	[0, 0, 0]	n/a	catFR1	4	R1635T
1250.694	1.6	1293580	WORD	n/a	wordpools/wordpool_categorized_EN.txt	LEG	BodyParts	12	11	[0, 0, 0]	n/a	catFR1	4	R1635T
1252.311	0.001	1295197	PROB	5.598	n/a	n/a	n/a	-999	11	[3, 8, 4]	15.0	catFR1	4	R1635T
1252.312	5.616	1295198	DISTRACT_START	n/a	n/a	n/a	n/a	-999	11	[0, 0, 0]	n/a	catFR1	4	R1635T
1257.928	2.616	1300814	PROB	2.599	n/a	n/a	n/a	-999	11	[8, 2, 1]	11.0	catFR1	4	R1635T
1260.544	4.517	1303430	PROB	4.5	n/a	n/a	n/a	-999	11	[2, 2, 4]	8.0	catFR1	4	R1635T
1265.061	5.984	1307947	PROB	5.967	n/a	n/a	n/a	-999	11	[3, 8, 6]	17.0	catFR1	4	R1635T
1271.045	8.739	1313931	PROB	6.482	n/a	n/a	n/a	-999	11	[5, 3, 6]	14.0	catFR1	4	R1635T
1279.784	2.738	1322670	REC_START	n/a	n/a	n/a	n/a	-999	11	[0, 0, 0]	n/a	catFR1	4	R1635T
1282.522	1.85	1325408	REC_WORD	2.738	n/a	ELBOW	BodyParts	1	11	[0, 0, 0]	n/a	catFR1	4	R1635T
1284.372	2.607	1327258	REC_WORD	4.588	n/a	EYE	BodyParts	2	11	[0, 0, 0]	n/a	catFR1	4	R1635T
1286.979	2.419	1329865	REC_WORD	7.195	n/a	CAKE	Desserts	3	11	[0, 0, 0]	n/a	catFR1	4	R1635T
1289.398	4.474	1332284	REC_WORD	9.614	n/a	CHEESECAKE	Desserts	7	11	[0, 0, 0]	n/a	catFR1	4	R1635T
1293.872	5.385	1336758	REC_WORD	14.088	n/a	VALLEY	Landscapes	-999	11	[0, 0, 0]	n/a	catFR1	4	R1635T
1299.257	8.327	1342143	REC_WORD	19.473	n/a	HILLS	Landscapes	6	11	[0, 0, 0]	n/a	catFR1	4	R1635T
1307.584	2.345	1350470	REC_WORD	27.8	n/a	MOUNTAIN	n/a	-999	11	[0, 0, 0]	n/a	catFR1	4	R1635T
1309.929	4.079	1352815	TRIAL	n/a	n/a	n/a	n/a	-999	12	[0, 0, 0]	n/a	catFR1	4	R1635T
1314.008	10.0	1356894	COUNTDOWN	n/a	n/a	n/a	n/a	-999	12	[0, 0, 0]	n/a	catFR1	4	R1635T
1324.357	2.151	1367243	ENCODING_START	n/a	n/a	n/a	n/a	-999	12	[0, 0, 0]	n/a	catFR1	4	R1635T
1326.508	1.6	1369394	WORD	n/a	wordpools/wordpool_categorized_EN.txt	COBBLER	Desserts	1	12	[0, 0, 0]	n/a	catFR1	4	R1635T
1329.008	1.6	1371894	WORD	n/a	wordpools/wordpool_categorized_EN.txt	JELLO	Desserts	2	12	[0, 0, 0]	n/a	catFR1	4	R1635T
1331.574	1.6	1374460	WORD	n/a	wordpools/wordpool_categorized_EN.txt	COFFEE	Beverages	3	12	[0, 0, 0]	n/a	catFR1	4	R1635T
1334.157	1.6	1377043	WORD	n/a	wordpools/wordpool_categorized_EN.txt	BEER	Beverages	4	12	[0, 0, 0]	n/a	catFR1	4	R1635T
1336.539	1.6	1379425	WORD	n/a	wordpools/wordpool_categorized_EN.txt	BARBIE	Toys	5	12	[0, 0, 0]	n/a	catFR1	4	R1635T
1339.04	1.6	1381926	WORD	n/a	wordpools/wordpool_categorized_EN.txt	DOLL	Toys	6	12	[0, 0, 0]	n/a	catFR1	4	R1635T
1341.605	1.6	1384491	WORD	n/a	wordpools/wordpool_categorized_EN.txt	COOKIE	Desserts	7	12	[0, 0, 0]	n/a	catFR1	4	R1635T
1343.974	1.6	1386860	WORD	n/a	wordpools/wordpool_categorized_EN.txt	BROWNIES	Desserts	8	12	[0, 0, 0]	n/a	catFR1	4	R1635T
1346.374	1.6	1389260	WORD	n/a	wordpools/wordpool_categorized_EN.txt	TEA	Beverages	9	12	[0, 0, 0]	n/a	catFR1	4	R1635T
1348.79	1.6	1391676	WORD	n/a	wordpools/wordpool_categorized_EN.txt	WATER	Beverages	10	12	[0, 0, 0]	n/a	catFR1	4	R1635T
1351.256	1.6	1394142	WORD	n/a	wordpools/wordpool_categorized_EN.txt	MARBLES	Toys	11	12	[0, 0, 0]	n/a	catFR1	4	R1635T
1353.689	1.6	1396575	WORD	n/a	wordpools/wordpool_categorized_EN.txt	BASKETBALL	Toys	12	12	[0, 0, 0]	n/a	catFR1	4	R1635T
1355.289	0.002	1398175	PROB	5.332	n/a	n/a	n/a	-999	12	[2, 7, 6]	15.0	catFR1	4	R1635T
1355.291	5.352	1398177	DISTRACT_START	n/a	n/a	n/a	n/a	-999	12	[0, 0, 0]	n/a	catFR1	4	R1635T
1360.643	4.596	1403529	PROB	4.583	n/a	n/a	n/a	-999	12	[8, 6, 8]	20.0	catFR1	4	R1635T
1365.239	5.95	1408125	PROB	5.933	n/a	n/a	n/a	-999	12	[2, 5, 7]	14.0	catFR1	4	R1635T
1371.189	7.304	1414075	PROB	5.0	n/a	n/a	n/a	-999	12	[4, 8, 5]	17.0	catFR1	4	R1635T
1378.493	2.413	1421379	REC_START	n/a	n/a	n/a	n/a	-999	12	[0, 0, 0]	n/a	catFR1	4	R1635T
1380.906	7.434	1423792	REC_WORD	2.413	n/a	COBBLER	Desserts	1	12	[0, 0, 0]	n/a	catFR1	4	R1635T
1388.34	20.283	1431226	REC_WORD	9.847	n/a	COOKIE	Desserts	7	12	[0, 0, 0]	n/a	catFR1	4	R1635T
1408.623	0.0	1451509	SESS_END	n/a	n/a	n/a	n/a	-999	12	[0, 0, 0]	n/a	catFR1	4	R1635T
