onset	duration	sample	trial_type	response_time	stim_file	item_name	category	serialpos	list	test	answer	experiment	session	subject
0.0	0.0	14002	INSTRUCT_START	n/a	n/a	n/a	n/a	-999	-999	[0, 0, 0]	n/a	catFR1	0	R1127P
0.0	11.194	14002	INSTRUCT_END	n/a	n/a	n/a	n/a	-999	-999	[0, 0, 0]	n/a	catFR1	0	R1127P
11.194	0.0	25195	SESS_START	n/a	n/a	n/a	n/a	-999	-999	[0, 0, 0]	n/a	catFR1	0	R1127P
11.194	274.321	25195	MIC_TEST	n/a	n/a	n/a	n/a	-999	-999	[0, 0, 0]	n/a	catFR1	0	R1127P
285.515	3.173	299502	PRACTICE_TRIAL	n/a	n/a	n/a	n/a	-999	-1	[0, 0, 0]	n/a	catFR1	0	R1127P
288.688	10.428	302675	COUNTDOWN_START	n/a	n/a	n/a	n/a	-999	-1	[0, 0, 0]	n/a	catFR1	0	R1127P
299.116	0.007	313102	COUNTDOWN_END	n/a	n/a	n/a	n/a	-999	-1	[0, 0, 0]	n/a	catFR1	0	R1127P
299.123	1.601	313109	PRACTICE_ORIENT	n/a	n/a	n/a	n/a	-999	-1	[0, 0, 0]	n/a	catFR1	0	R1127P
300.724	2.083	314710	PRACTICE_ORIENT_OFF	n/a	n/a	n/a	n/a	-999	-1	[0, 0, 0]	n/a	catFR1	0	R1127P
302.807	1.601	316793	PRACTICE_WORD	n/a	n/a	WAGON	n/a	-1	-1	[0, 0, 0]	n/a	catFR1	0	R1127P
304.408	0.867	318394	PRACTICE_WORD_OFF	n/a	n/a	WAGON	n/a	-999	-1	[0, 0, 0]	n/a	catFR1	0	R1127P
305.275	1.616	319261	PRACTICE_WORD	n/a	n/a	BEAM	n/a	-1	-1	[0, 0, 0]	n/a	catFR1	0	R1127P
306.891	0.967	320877	PRACTICE_WORD_OFF	n/a	n/a	BEAM	n/a	-999	-1	[0, 0, 0]	n/a	catFR1	0	R1127P
307.858	1.602	321844	PRACTICE_WORD	n/a	n/a	ATTIC	n/a	-1	-1	[0, 0, 0]	n/a	catFR1	0	R1127P
309.46	0.95	323446	PRACTICE_WORD_OFF	n/a	n/a	ATTIC	n/a	-999	-1	[0, 0, 0]	n/a	catFR1	0	R1127P
310.41	1.616	324396	PRACTICE_WORD	n/a	n/a	COTTON	n/a	-1	-1	[0, 0, 0]	n/a	catFR1	0	R1127P
312.026	0.817	326012	PRACTICE_WORD_OFF	n/a	n/a	COTTON	n/a	-999	-1	[0, 0, 0]	n/a	catFR1	0	R1127P
312.843	1.618	326829	PRACTICE_WORD	n/a	n/a	CAMEL	n/a	-1	-1	[0, 0, 0]	n/a	catFR1	0	R1127P
314.461	0.966	328447	PRACTICE_WORD_OFF	n/a	n/a	CAMEL	n/a	-999	-1	[0, 0, 0]	n/a	catFR1	0	R1127P
315.427	1.617	329412	PRACTICE_WORD	n/a	n/a	WATCH	n/a	-1	-1	[0, 0, 0]	n/a	catFR1	0	R1127P
317.044	0.966	331029	PRACTICE_WORD_OFF	n/a	n/a	WATCH	n/a	-999	-1	[0, 0, 0]	n/a	catFR1	0	R1127P
318.01	1.618	331995	PRACTICE_WORD	n/a	n/a	RHINO	n/a	-1	-1	[0, 0, 0]	n/a	catFR1	0	R1127P
319.628	0.934	333613	PRACTICE_WORD_OFF	n/a	n/a	RHINO	n/a	-999	-1	[0, 0, 0]	n/a	catFR1	0	R1127P
320.562	1.616	334547	PRACTICE_WORD	n/a	n/a	RING	n/a	-1	-1	[0, 0, 0]	n/a	catFR1	0	R1127P
322.178	0.85	336163	PRACTICE_WORD_OFF	n/a	n/a	RING	n/a	-999	-1	[0, 0, 0]	n/a	catFR1	0	R1127P
323.028	1.618	337013	PRACTICE_WORD	n/a	n/a	TONGUE	n/a	-1	-1	[0, 0, 0]	n/a	catFR1	0	R1127P
324.646	0.983	338631	PRACTICE_WORD_OFF	n/a	n/a	TONGUE	n/a	-999	-1	[0, 0, 0]	n/a	catFR1	0	R1127P
325.629	1.616	339614	PRACTICE_WORD	n/a	n/a	FLOOD	n/a	-1	-1	[0, 0, 0]	n/a	catFR1	0	R1127P
327.245	0.967	341230	PRACTICE_WORD_OFF	n/a	n/a	FLOOD	n/a	-999	-1	[0, 0, 0]	n/a	catFR1	0	R1127P
328.212	1.617	342197	PRACTICE_WORD	n/a	n/a	CHEST	n/a	-1	-1	[0, 0, 0]	n/a	catFR1	0	R1127P
329.829	0.868	343814	PRACTICE_WORD_OFF	n/a	n/a	CHEST	n/a	-999	-1	[0, 0, 0]	n/a	catFR1	0	R1127P
330.697	1.617	344682	PRACTICE_WORD	n/a	n/a	IRON	n/a	-1	-1	[0, 0, 0]	n/a	catFR1	0	R1127P
332.314	0.0	346299	PRACTICE_WORD_OFF	n/a	n/a	IRON	n/a	-999	-1	[0, 0, 0]	n/a	catFR1	0	R1127P
332.314	0.0	346299	DISTRACT_START	n/a	n/a	n/a	n/a	-999	-1	[0, 0, 0]	n/a	catFR1	0	R1127P
332.314	0.001	346299	ENCODING_END	n/a	n/a	n/a	n/a	-999	-1	[0, 0, 0]	n/a	catFR1	0	R1127P
332.315	0.016	346300	START	n/a	n/a	n/a	n/a	-999	-1	[-999, -999, -999]	n/a	catFR1	0	R1127P
332.331	7.55	346316	PROB	7.523	n/a	n/a	n/a	-999	-1	[9, 4, 7]	20.0	catFR1	0	R1127P
339.881	4.868	353865	PROB	4.83	n/a	n/a	n/a	-999	-1	[4, 5, 2]	11.0	catFR1	0	R1127P
344.749	3.768	358733	PROB	3.738	n/a	n/a	n/a	-999	-1	[7, 1, 2]	10.0	catFR1	0	R1127P
348.517	5.504	362501	PROB	5.504	n/a	n/a	n/a	-999	-1	[2, 5, 8]	16.0	catFR1	0	R1127P
354.021	0.013	368004	STOP	n/a	n/a	n/a	n/a	-999	-1	[-999, -999, -999]	n/a	catFR1	0	R1127P
354.034	0.601	368017	DISTRACT_END	n/a	n/a	n/a	n/a	-999	-1	[0, 0, 0]	n/a	catFR1	0	R1127P
354.635	0.52	368618	RETRIEVAL_ORIENT	n/a	n/a	n/a	n/a	-999	-1	[0, 0, 0]	n/a	catFR1	0	R1127P
355.155	30.009	369138	PRACTICE_REC_START	n/a	n/a	n/a	n/a	-999	-1	[0, 0, 0]	n/a	catFR1	0	R1127P
385.164	40.484	399146	PRACTICE_REC_END	n/a	n/a	n/a	n/a	-999	-1	[0, 0, 0]	n/a	catFR1	0	R1127P
425.648	0.5	439628	TRIAL	n/a	n/a	n/a	n/a	-999	1	[0, 0, 0]	n/a	catFR1	0	R1127P
426.148	10.428	440128	COUNTDOWN_START	n/a	n/a	n/a	n/a	-999	1	[0, 0, 0]	n/a	catFR1	0	R1127P
436.576	0.008	450555	COUNTDOWN_END	n/a	n/a	n/a	n/a	-999	1	[0, 0, 0]	n/a	catFR1	0	R1127P
436.584	1.616	450563	ORIENT	n/a	n/a	n/a	n/a	-999	1	[0, 0, 0]	n/a	catFR1	0	R1127P
438.2	2.251	452179	ORIENT_OFF	n/a	n/a	n/a	n/a	-999	1	[0, 0, 0]	n/a	catFR1	0	R1127P
440.451	1.616	454430	WORD	n/a	wordpools/wordpool_categorized_EN.txt	HILLS	Landscapes	1	1	[0, 0, 0]	n/a	catFR1	0	R1127P
442.067	0.867	456046	WORD_OFF	n/a	n/a	HILLS	n/a	1	1	[0, 0, 0]	n/a	catFR1	0	R1127P
442.934	1.618	456913	WORD	n/a	wordpools/wordpool_categorized_EN.txt	ISLAND	Landscapes	2	1	[0, 0, 0]	n/a	catFR1	0	R1127P
444.552	0.95	458531	WORD_OFF	n/a	n/a	ISLAND	n/a	2	1	[0, 0, 0]	n/a	catFR1	0	R1127P
445.502	1.616	459481	WORD	n/a	wordpools/wordpool_categorized_EN.txt	BROWNIES	Desserts	3	1	[0, 0, 0]	n/a	catFR1	0	R1127P
447.118	0.783	461097	WORD_OFF	n/a	n/a	BROWNIES	n/a	3	1	[0, 0, 0]	n/a	catFR1	0	R1127P
447.901	1.619	461880	WORD	n/a	wordpools/wordpool_categorized_EN.txt	COOKIE	Desserts	4	1	[0, 0, 0]	n/a	catFR1	0	R1127P
449.52	0.883	463499	WORD_OFF	n/a	n/a	COOKIE	n/a	4	1	[0, 0, 0]	n/a	catFR1	0	R1127P
450.403	1.616	464382	WORD	n/a	wordpools/wordpool_categorized_EN.txt	ZEBRA	Zoo	5	1	[0, 0, 0]	n/a	catFR1	0	R1127P
452.019	0.933	465997	WORD_OFF	n/a	n/a	ZEBRA	n/a	5	1	[0, 0, 0]	n/a	catFR1	0	R1127P
452.952	1.618	466930	WORD	n/a	wordpools/wordpool_categorized_EN.txt	MONKEY	Zoo	6	1	[0, 0, 0]	n/a	catFR1	0	R1127P
454.57	0.817	468548	WORD_OFF	n/a	n/a	MONKEY	n/a	6	1	[0, 0, 0]	n/a	catFR1	0	R1127P
455.387	1.616	469365	WORD	n/a	wordpools/wordpool_categorized_EN.txt	JELLO	Desserts	7	1	[0, 0, 0]	n/a	catFR1	0	R1127P
457.003	0.867	470981	WORD_OFF	n/a	n/a	JELLO	n/a	7	1	[0, 0, 0]	n/a	catFR1	0	R1127P
457.87	1.618	471848	WORD	n/a	wordpools/wordpool_categorized_EN.txt	PUDDING	Desserts	8	1	[0, 0, 0]	n/a	catFR1	0	R1127P
459.488	0.967	473466	WORD_OFF	n/a	n/a	PUDDING	n/a	8	1	[0, 0, 0]	n/a	catFR1	0	R1127P
460.455	1.616	474433	WORD	n/a	wordpools/wordpool_categorized_EN.txt	MOUNTAIN	Landscapes	9	1	[0, 0, 0]	n/a	catFR1	0	R1127P
462.071	0.833	476049	WORD_OFF	n/a	n/a	MOUNTAIN	n/a	9	1	[0, 0, 0]	n/a	catFR1	0	R1127P
462.904	1.602	476882	WORD	n/a	wordpools/wordpool_categorized_EN.txt	CREEK	Landscapes	10	1	[0, 0, 0]	n/a	catFR1	0	R1127P
464.506	0.916	478484	WORD_OFF	n/a	n/a	CREEK	n/a	10	1	[0, 0, 0]	n/a	catFR1	0	R1127P
465.422	1.617	479400	WORD	n/a	wordpools/wordpool_categorized_EN.txt	GIRAFFE	Zoo	11	1	[0, 0, 0]	n/a	catFR1	0	R1127P
467.039	1.0	481017	WORD_OFF	n/a	n/a	GIRAFFE	n/a	11	1	[0, 0, 0]	n/a	catFR1	0	R1127P
468.039	1.618	482017	WORD	n/a	wordpools/wordpool_categorized_EN.txt	GORILLA	Zoo	12	1	[0, 0, 0]	n/a	catFR1	0	R1127P
469.657	0.0	483635	ENCODING_END	n/a	n/a	n/a	n/a	-999	1	[0, 0, 0]	n/a	catFR1	0	R1127P
469.657	0.134	483635	WORD_OFF	n/a	n/a	GORILLA	n/a	12	1	[0, 0, 0]	n/a	catFR1	0	R1127P
469.791	0.0	483769	DISTRACT_START	n/a	n/a	n/a	n/a	-999	1	[0, 0, 0]	n/a	catFR1	0	R1127P
469.791	0.015	483769	START	n/a	n/a	n/a	n/a	-999	1	[-999, -999, -999]	n/a	catFR1	0	R1127P
469.806	5.984	483784	PROB	5.952	n/a	n/a	n/a	-999	1	[6, 8, 4]	17.0	catFR1	0	R1127P
475.79	3.234	489767	PROB	3.199	n/a	n/a	n/a	-999	1	[1, 3, 1]	5.0	catFR1	0	R1127P
479.024	5.319	493001	PROB	5.295	n/a	n/a	n/a	-999	1	[2, 8, 7]	17.0	catFR1	0	R1127P
484.343	2.899	498320	PROB	2.862	n/a	n/a	n/a	-999	1	[2, 1, 3]	6.0	catFR1	0	R1127P
487.242	2.468	501219	PROB	2.436	n/a	n/a	n/a	-999	1	[4, 1, 1]	6.0	catFR1	0	R1127P
489.71	3.096	503686	PROB	3.096	n/a	n/a	n/a	-999	1	[1, 3, 2]	6.0	catFR1	0	R1127P
492.806	0.021	506782	STOP	n/a	n/a	n/a	n/a	-999	1	[-999, -999, -999]	n/a	catFR1	0	R1127P
492.827	0.634	506803	DISTRACT_END	n/a	n/a	n/a	n/a	-999	1	[0, 0, 0]	n/a	catFR1	0	R1127P
493.461	0.516	507437	RETRIEVAL_ORIENT	n/a	n/a	n/a	n/a	-999	1	[0, 0, 0]	n/a	catFR1	0	R1127P
493.977	0.921	507953	REC_START	n/a	n/a	n/a	n/a	-999	1	[0, 0, 0]	n/a	catFR1	0	R1127P
494.898	2.098	508874	REC_WORD	0.921	n/a	HILLS	Landscapes	1	1	[0, 0, 0]	n/a	catFR1	0	R1127P
496.996	0.84	510972	REC_WORD	3.019	n/a	BROWNIES	Desserts	3	1	[0, 0, 0]	n/a	catFR1	0	R1127P
497.836	4.608	511812	REC_WORD	3.859	n/a	COOKIES	n/a	-999	1	[0, 0, 0]	n/a	catFR1	0	R1127P
502.444	12.467	516420	REC_WORD	8.467	n/a	COOKIES	n/a	-999	1	[0, 0, 0]	n/a	catFR1	0	R1127P
514.911	9.077	528886	REC_WORD_VV	20.934	n/a	<>	n/a	-999	1	[0, 0, 0]	n/a	catFR1	0	R1127P
523.988	24.099	537963	REC_END	n/a	n/a	n/a	n/a	-999	1	[0, 0, 0]	n/a	catFR1	0	R1127P
548.087	0.5	562060	TRIAL	n/a	n/a	n/a	n/a	-999	2	[0, 0, 0]	n/a	catFR1	0	R1127P
548.587	10.428	562560	COUNTDOWN_START	n/a	n/a	n/a	n/a	-999	2	[0, 0, 0]	n/a	catFR1	0	R1127P
559.015	0.008	572988	COUNTDOWN_END	n/a	n/a	n/a	n/a	-999	2	[0, 0, 0]	n/a	catFR1	0	R1127P
559.023	1.618	572996	ORIENT	n/a	n/a	n/a	n/a	-999	2	[0, 0, 0]	n/a	catFR1	0	R1127P
560.641	2.166	574614	ORIENT_OFF	n/a	n/a	n/a	n/a	-999	2	[0, 0, 0]	n/a	catFR1	0	R1127P
562.807	1.618	576780	WORD	n/a	wordpools/wordpool_categorized_EN.txt	VIOLET	Flowers	1	2	[0, 0, 0]	n/a	catFR1	0	R1127P
564.425	0.782	578398	WORD_OFF	n/a	n/a	VIOLET	n/a	1	2	[0, 0, 0]	n/a	catFR1	0	R1127P
565.207	1.617	579180	WORD	n/a	wordpools/wordpool_categorized_EN.txt	LILY	Flowers	2	2	[0, 0, 0]	n/a	catFR1	0	R1127P
566.824	0.95	580796	WORD_OFF	n/a	n/a	LILY	n/a	2	2	[0, 0, 0]	n/a	catFR1	0	R1127P
567.774	1.618	581746	WORD	n/a	wordpools/wordpool_categorized_EN.txt	DRUM	Instruments	3	2	[0, 0, 0]	n/a	catFR1	0	R1127P
569.392	0.799	583364	WORD_OFF	n/a	n/a	DRUM	n/a	3	2	[0, 0, 0]	n/a	catFR1	0	R1127P
570.191	1.617	584163	WORD	n/a	wordpools/wordpool_categorized_EN.txt	BASS	Instruments	4	2	[0, 0, 0]	n/a	catFR1	0	R1127P
571.808	0.934	585780	WORD_OFF	n/a	n/a	BASS	n/a	4	2	[0, 0, 0]	n/a	catFR1	0	R1127P
572.742	1.618	586714	WORD	n/a	wordpools/wordpool_categorized_EN.txt	CHEETAH	Zoo	5	2	[0, 0, 0]	n/a	catFR1	0	R1127P
574.36	0.983	588332	WORD_OFF	n/a	n/a	CHEETAH	n/a	5	2	[0, 0, 0]	n/a	catFR1	0	R1127P
575.343	1.616	589315	WORD	n/a	wordpools/wordpool_categorized_EN.txt	BEAR	Zoo	6	2	[0, 0, 0]	n/a	catFR1	0	R1127P
576.959	0.851	590931	WORD_OFF	n/a	n/a	BEAR	n/a	6	2	[0, 0, 0]	n/a	catFR1	0	R1127P
577.81	1.617	591782	WORD	n/a	wordpools/wordpool_categorized_EN.txt	ORGAN	Instruments	7	2	[0, 0, 0]	n/a	catFR1	0	R1127P
579.427	0.783	593399	WORD_OFF	n/a	n/a	ORGAN	n/a	7	2	[0, 0, 0]	n/a	catFR1	0	R1127P
580.21	1.617	594182	WORD	n/a	wordpools/wordpool_categorized_EN.txt	BANJO	Instruments	8	2	[0, 0, 0]	n/a	catFR1	0	R1127P
581.827	0.901	595799	WORD_OFF	n/a	n/a	BANJO	n/a	8	2	[0, 0, 0]	n/a	catFR1	0	R1127P
582.728	1.617	596700	WORD	n/a	wordpools/wordpool_categorized_EN.txt	DAISY	Flowers	9	2	[0, 0, 0]	n/a	catFR1	0	R1127P
584.345	0.849	598317	WORD_OFF	n/a	n/a	DAISY	n/a	9	2	[0, 0, 0]	n/a	catFR1	0	R1127P
585.194	1.617	599166	WORD	n/a	wordpools/wordpool_categorized_EN.txt	PETUNIA	Flowers	10	2	[0, 0, 0]	n/a	catFR1	0	R1127P
586.811	0.901	600782	WORD_OFF	n/a	n/a	PETUNIA	n/a	10	2	[0, 0, 0]	n/a	catFR1	0	R1127P
587.712	1.617	601683	WORD	n/a	wordpools/wordpool_categorized_EN.txt	ELEPHANT	Zoo	11	2	[0, 0, 0]	n/a	catFR1	0	R1127P
589.329	0.833	603300	WORD_OFF	n/a	n/a	ELEPHANT	n/a	11	2	[0, 0, 0]	n/a	catFR1	0	R1127P
590.162	1.617	604133	WORD	n/a	wordpools/wordpool_categorized_EN.txt	TIGER	Zoo	12	2	[0, 0, 0]	n/a	catFR1	0	R1127P
591.779	0.0	605750	ENCODING_END	n/a	n/a	n/a	n/a	-999	2	[0, 0, 0]	n/a	catFR1	0	R1127P
591.779	0.103	605750	WORD_OFF	n/a	n/a	TIGER	n/a	12	2	[0, 0, 0]	n/a	catFR1	0	R1127P
591.882	0.0	605853	DISTRACT_START	n/a	n/a	n/a	n/a	-999	2	[0, 0, 0]	n/a	catFR1	0	R1127P
591.882	0.013	605853	START	n/a	n/a	n/a	n/a	-999	2	[-999, -999, -999]	n/a	catFR1	0	R1127P
591.895	5.268	605866	PROB	5.231	n/a	n/a	n/a	-999	2	[8, 3, 1]	13.0	catFR1	0	R1127P
597.163	5.635	611134	PROB	5.602	n/a	n/a	n/a	-999	2	[5, 3, 6]	15.0	catFR1	0	R1127P
602.798	2.283	616769	PROB	2.248	n/a	n/a	n/a	-999	2	[4, 1, 1]	6.0	catFR1	0	R1127P
605.081	3.984	619052	PROB	3.949	n/a	n/a	n/a	-999	2	[6, 6, 4]	16.0	catFR1	0	R1127P
609.065	2.818	623035	PROB	2.789	n/a	n/a	n/a	-999	2	[4, 4, 3]	12.0	catFR1	0	R1127P
611.883	7.827	625853	PROB	7.827	n/a	n/a	n/a	-999	2	[1, 8, 9]	20.0	catFR1	0	R1127P
619.71	0.009	633680	STOP	n/a	n/a	n/a	n/a	-999	2	[-999, -999, -999]	n/a	catFR1	0	R1127P
619.719	0.565	633689	DISTRACT_END	n/a	n/a	n/a	n/a	-999	2	[0, 0, 0]	n/a	catFR1	0	R1127P
620.284	0.517	634254	RETRIEVAL_ORIENT	n/a	n/a	n/a	n/a	-999	2	[0, 0, 0]	n/a	catFR1	0	R1127P
620.801	0.77	634771	REC_START	n/a	n/a	n/a	n/a	-999	2	[0, 0, 0]	n/a	catFR1	0	R1127P
621.571	0.675	635541	REC_WORD	0.77	n/a	VIOLET	Flowers	1	2	[0, 0, 0]	n/a	catFR1	0	R1127P
622.246	0.68	636216	REC_WORD	1.445	n/a	LILY	Flowers	2	2	[0, 0, 0]	n/a	catFR1	0	R1127P
622.926	0.85	636896	REC_WORD	2.125	n/a	DRUM	Instruments	3	2	[0, 0, 0]	n/a	catFR1	0	R1127P
623.776	0.843	637746	REC_WORD	2.975	n/a	BASS	Instruments	4	2	[0, 0, 0]	n/a	catFR1	0	R1127P
624.619	1.451	638589	REC_WORD	3.818	n/a	ELEPHANT	Zoo	11	2	[0, 0, 0]	n/a	catFR1	0	R1127P
626.07	24.743	640039	REC_WORD	5.269	n/a	TIGER	Zoo	12	2	[0, 0, 0]	n/a	catFR1	0	R1127P
650.813	5.495	664781	REC_END	n/a	n/a	n/a	n/a	-999	2	[0, 0, 0]	n/a	catFR1	0	R1127P
656.308	0.5	670276	TRIAL	n/a	n/a	n/a	n/a	-999	3	[0, 0, 0]	n/a	catFR1	0	R1127P
656.808	10.428	670776	COUNTDOWN_START	n/a	n/a	n/a	n/a	-999	3	[0, 0, 0]	n/a	catFR1	0	R1127P
667.236	0.007	681203	COUNTDOWN_END	n/a	n/a	n/a	n/a	-999	3	[0, 0, 0]	n/a	catFR1	0	R1127P
667.243	1.617	681210	ORIENT	n/a	n/a	n/a	n/a	-999	3	[0, 0, 0]	n/a	catFR1	0	R1127P
668.86	2.25	682827	ORIENT_OFF	n/a	n/a	n/a	n/a	-999	3	[0, 0, 0]	n/a	catFR1	0	R1127P
671.11	1.601	685077	WORD	n/a	wordpools/wordpool_categorized_EN.txt	FLOOR	Building	1	3	[0, 0, 0]	n/a	catFR1	0	R1127P
672.711	0.818	686678	WORD_OFF	n/a	n/a	FLOOR	n/a	1	3	[0, 0, 0]	n/a	catFR1	0	R1127P
673.529	1.616	687496	WORD	n/a	wordpools/wordpool_categorized_EN.txt	HALLWAY	Building	2	3	[0, 0, 0]	n/a	catFR1	0	R1127P
675.145	0.983	689112	WORD_OFF	n/a	n/a	HALLWAY	n/a	2	3	[0, 0, 0]	n/a	catFR1	0	R1127P
676.128	1.617	690095	WORD	n/a	wordpools/wordpool_categorized_EN.txt	ERASER	OfficeSupplies	3	3	[0, 0, 0]	n/a	catFR1	0	R1127P
677.745	0.834	691712	WORD_OFF	n/a	n/a	ERASER	n/a	3	3	[0, 0, 0]	n/a	catFR1	0	R1127P
678.579	1.616	692546	WORD	n/a	wordpools/wordpool_categorized_EN.txt	STAPLER	OfficeSupplies	4	3	[0, 0, 0]	n/a	catFR1	0	R1127P
680.195	0.767	694162	WORD_OFF	n/a	n/a	STAPLER	n/a	4	3	[0, 0, 0]	n/a	catFR1	0	R1127P
680.962	1.618	694929	WORD	n/a	wordpools/wordpool_categorized_EN.txt	BEER	Beverages	5	3	[0, 0, 0]	n/a	catFR1	0	R1127P
682.58	0.9	696547	WORD_OFF	n/a	n/a	BEER	n/a	5	3	[0, 0, 0]	n/a	catFR1	0	R1127P
683.48	1.616	697446	WORD	n/a	wordpools/wordpool_categorized_EN.txt	TEA	Beverages	6	3	[0, 0, 0]	n/a	catFR1	0	R1127P
685.096	0.951	699062	WORD_OFF	n/a	n/a	TEA	n/a	6	3	[0, 0, 0]	n/a	catFR1	0	R1127P
686.047	1.617	700013	WORD	n/a	wordpools/wordpool_categorized_EN.txt	MARKER	OfficeSupplies	7	3	[0, 0, 0]	n/a	catFR1	0	R1127P
687.664	0.984	701630	WORD_OFF	n/a	n/a	MARKER	n/a	7	3	[0, 0, 0]	n/a	catFR1	0	R1127P
688.648	1.616	702614	WORD	n/a	wordpools/wordpool_categorized_EN.txt	GLUE	OfficeSupplies	8	3	[0, 0, 0]	n/a	catFR1	0	R1127P
690.264	0.984	704230	WORD_OFF	n/a	n/a	GLUE	n/a	8	3	[0, 0, 0]	n/a	catFR1	0	R1127P
691.248	1.617	705214	WORD	n/a	wordpools/wordpool_categorized_EN.txt	ROOM	Building	9	3	[0, 0, 0]	n/a	catFR1	0	R1127P
692.865	0.95	706831	WORD_OFF	n/a	n/a	ROOM	n/a	9	3	[0, 0, 0]	n/a	catFR1	0	R1127P
693.815	1.618	707781	WORD	n/a	wordpools/wordpool_categorized_EN.txt	WINDOW	Building	10	3	[0, 0, 0]	n/a	catFR1	0	R1127P
695.433	0.983	709399	WORD_OFF	n/a	n/a	WINDOW	n/a	10	3	[0, 0, 0]	n/a	catFR1	0	R1127P
696.416	1.616	710382	WORD	n/a	wordpools/wordpool_categorized_EN.txt	RUM	Beverages	11	3	[0, 0, 0]	n/a	catFR1	0	R1127P
698.032	0.784	711998	WORD_OFF	n/a	n/a	RUM	n/a	11	3	[0, 0, 0]	n/a	catFR1	0	R1127P
698.816	1.618	712782	WORD	n/a	wordpools/wordpool_categorized_EN.txt	LEMONADE	Beverages	12	3	[0, 0, 0]	n/a	catFR1	0	R1127P
700.434	0.0	714400	WORD_OFF	n/a	n/a	LEMONADE	n/a	12	3	[0, 0, 0]	n/a	catFR1	0	R1127P
700.434	0.107	714400	ENCODING_END	n/a	n/a	n/a	n/a	-999	3	[0, 0, 0]	n/a	catFR1	0	R1127P
700.541	0.0	714507	DISTRACT_START	n/a	n/a	n/a	n/a	-999	3	[0, 0, 0]	n/a	catFR1	0	R1127P
700.541	0.009	714507	START	n/a	n/a	n/a	n/a	-999	3	[-999, -999, -999]	n/a	catFR1	0	R1127P
700.55	3.051	714516	PROB	3.016	n/a	n/a	n/a	-999	3	[3, 3, 2]	8.0	catFR1	0	R1127P
703.601	3.349	717566	PROB	3.316	n/a	n/a	n/a	-999	3	[9, 2, 1]	12.0	catFR1	0	R1127P
706.95	2.785	720915	PROB	2.752	n/a	n/a	n/a	-999	3	[1, 1, 9]	11.0	catFR1	0	R1127P
709.735	4.15	723700	PROB	4.118	n/a	n/a	n/a	-999	3	[9, 3, 1]	13.0	catFR1	0	R1127P
713.885	3.719	727850	PROB	3.689	n/a	n/a	n/a	-999	3	[3, 6, 4]	13.0	catFR1	0	R1127P
717.604	5.77	731569	PROB	5.77	n/a	n/a	n/a	-999	3	[7, 3, 8]	18.0	catFR1	0	R1127P
723.374	0.014	737338	STOP	n/a	n/a	n/a	n/a	-999	3	[-999, -999, -999]	n/a	catFR1	0	R1127P
723.388	0.582	737352	DISTRACT_END	n/a	n/a	n/a	n/a	-999	3	[0, 0, 0]	n/a	catFR1	0	R1127P
723.97	0.519	737934	RETRIEVAL_ORIENT	n/a	n/a	n/a	n/a	-999	3	[0, 0, 0]	n/a	catFR1	0	R1127P
724.489	1.258	738453	REC_START	n/a	n/a	n/a	n/a	-999	3	[0, 0, 0]	n/a	catFR1	0	R1127P
725.747	0.751	739711	REC_WORD	1.258	n/a	FLOOR	Building	1	3	[0, 0, 0]	n/a	catFR1	0	R1127P
726.498	2.492	740462	REC_WORD	2.009	n/a	MARKER	OfficeSupplies	7	3	[0, 0, 0]	n/a	catFR1	0	R1127P
728.99	0.25	742954	REC_WORD	4.501	n/a	FLOOR	Building	1	3	[0, 0, 0]	n/a	catFR1	0	R1127P
729.24	0.39	743204	REC_WORD	4.751	n/a	MARKER	OfficeSupplies	7	3	[0, 0, 0]	n/a	catFR1	0	R1127P
729.63	2.112	743594	REC_WORD	5.141	n/a	ERASE	n/a	-999	3	[0, 0, 0]	n/a	catFR1	0	R1127P
731.742	7.756	745706	REC_WORD_VV	7.253	n/a	<>	n/a	-999	3	[0, 0, 0]	n/a	catFR1	0	R1127P
739.498	4.191	753462	REC_WORD	15.009	n/a	TITLE	n/a	-999	3	[0, 0, 0]	n/a	catFR1	0	R1127P
743.689	10.228	757652	REC_WORD	19.2	n/a	DRUM	n/a	-999	3	[0, 0, 0]	n/a	catFR1	0	R1127P
753.917	0.584	767880	REC_WORD	29.428	n/a	CAR	n/a	-999	3	[0, 0, 0]	n/a	catFR1	0	R1127P
754.501	4.877	768464	REC_END	n/a	n/a	n/a	n/a	-999	3	[0, 0, 0]	n/a	catFR1	0	R1127P
759.378	0.5	773341	TRIAL	n/a	n/a	n/a	n/a	-999	4	[0, 0, 0]	n/a	catFR1	0	R1127P
759.878	10.428	773841	COUNTDOWN_START	n/a	n/a	n/a	n/a	-999	4	[0, 0, 0]	n/a	catFR1	0	R1127P
770.306	0.008	784268	COUNTDOWN_END	n/a	n/a	n/a	n/a	-999	4	[0, 0, 0]	n/a	catFR1	0	R1127P
770.314	1.615	784276	ORIENT	n/a	n/a	n/a	n/a	-999	4	[0, 0, 0]	n/a	catFR1	0	R1127P
771.929	2.017	785891	ORIENT_OFF	n/a	n/a	n/a	n/a	-999	4	[0, 0, 0]	n/a	catFR1	0	R1127P
773.946	1.602	787908	WORD	n/a	wordpools/wordpool_categorized_EN.txt	COUCH	Furniture	1	4	[0, 0, 0]	n/a	catFR1	0	R1127P
775.548	0.867	789510	WORD_OFF	n/a	n/a	COUCH	n/a	1	4	[0, 0, 0]	n/a	catFR1	0	R1127P
776.415	1.616	790377	WORD	n/a	wordpools/wordpool_categorized_EN.txt	NIGHTSTAND	Furniture	2	4	[0, 0, 0]	n/a	catFR1	0	R1127P
778.031	0.766	791993	WORD_OFF	n/a	n/a	NIGHTSTAND	n/a	2	4	[0, 0, 0]	n/a	catFR1	0	R1127P
778.797	1.618	792759	WORD	n/a	wordpools/wordpool_categorized_EN.txt	ORANGE	Fruit	3	4	[0, 0, 0]	n/a	catFR1	0	R1127P
780.415	0.783	794376	WORD_OFF	n/a	n/a	ORANGE	n/a	3	4	[0, 0, 0]	n/a	catFR1	0	R1127P
781.198	1.617	795159	WORD	n/a	wordpools/wordpool_categorized_EN.txt	APPLE	Fruit	4	4	[0, 0, 0]	n/a	catFR1	0	R1127P
782.815	0.933	796776	WORD_OFF	n/a	n/a	APPLE	n/a	4	4	[0, 0, 0]	n/a	catFR1	0	R1127P
783.748	1.601	797709	WORD	n/a	wordpools/wordpool_categorized_EN.txt	CABBAGE	Vegetables	5	4	[0, 0, 0]	n/a	catFR1	0	R1127P
785.349	0.816	799310	WORD_OFF	n/a	n/a	CABBAGE	n/a	5	4	[0, 0, 0]	n/a	catFR1	0	R1127P
786.165	1.617	800126	WORD	n/a	wordpools/wordpool_categorized_EN.txt	ONION	Vegetables	6	4	[0, 0, 0]	n/a	catFR1	0	R1127P
787.782	0.885	801743	WORD_OFF	n/a	n/a	ONION	n/a	6	4	[0, 0, 0]	n/a	catFR1	0	R1127P
788.667	1.616	802628	WORD	n/a	wordpools/wordpool_categorized_EN.txt	RECLINER	Furniture	7	4	[0, 0, 0]	n/a	catFR1	0	R1127P
790.283	0.833	804244	WORD_OFF	n/a	n/a	RECLINER	n/a	7	4	[0, 0, 0]	n/a	catFR1	0	R1127P
791.116	1.601	805077	WORD	n/a	wordpools/wordpool_categorized_EN.txt	TABLE	Furniture	8	4	[0, 0, 0]	n/a	catFR1	0	R1127P
792.717	0.918	806678	WORD_OFF	n/a	n/a	TABLE	n/a	8	4	[0, 0, 0]	n/a	catFR1	0	R1127P
793.635	1.616	807596	WORD	n/a	wordpools/wordpool_categorized_EN.txt	PLUM	Fruit	9	4	[0, 0, 0]	n/a	catFR1	0	R1127P
795.251	0.9	809212	WORD_OFF	n/a	n/a	PLUM	n/a	9	4	[0, 0, 0]	n/a	catFR1	0	R1127P
796.151	1.617	810112	WORD	n/a	wordpools/wordpool_categorized_EN.txt	CHERRY	Fruit	10	4	[0, 0, 0]	n/a	catFR1	0	R1127P
797.768	0.884	811729	WORD_OFF	n/a	n/a	CHERRY	n/a	10	4	[0, 0, 0]	n/a	catFR1	0	R1127P
798.652	1.616	812613	WORD	n/a	wordpools/wordpool_categorized_EN.txt	CELERY	Vegetables	11	4	[0, 0, 0]	n/a	catFR1	0	R1127P
800.268	0.817	814228	WORD_OFF	n/a	n/a	CELERY	n/a	11	4	[0, 0, 0]	n/a	catFR1	0	R1127P
801.085	1.601	815045	WORD	n/a	wordpools/wordpool_categorized_EN.txt	CORN	Vegetables	12	4	[0, 0, 0]	n/a	catFR1	0	R1127P
802.686	0.0	816646	ENCODING_END	n/a	n/a	n/a	n/a	-999	4	[0, 0, 0]	n/a	catFR1	0	R1127P
802.686	0.132	816646	WORD_OFF	n/a	n/a	CORN	n/a	12	4	[0, 0, 0]	n/a	catFR1	0	R1127P
802.818	0.0	816778	DISTRACT_START	n/a	n/a	n/a	n/a	-999	4	[0, 0, 0]	n/a	catFR1	0	R1127P
802.818	0.017	816778	START	n/a	n/a	n/a	n/a	-999	4	[-999, -999, -999]	n/a	catFR1	0	R1127P
802.835	3.602	816795	PROB	3.579	n/a	n/a	n/a	-999	4	[6, 1, 5]	12.0	catFR1	0	R1127P
806.437	2.901	820397	PROB	2.873	n/a	n/a	n/a	-999	4	[3, 1, 2]	6.0	catFR1	0	R1127P
809.338	6.416	823298	PROB	6.38	n/a	n/a	n/a	-999	4	[9, 5, 5]	20.0	catFR1	0	R1127P
815.754	6.603	829714	PROB	6.564	n/a	n/a	n/a	-999	4	[7, 7, 9]	25.0	catFR1	0	R1127P
822.357	4.352	836316	PROB	4.352	n/a	n/a	n/a	-999	4	[9, 4, 9]	23.0	catFR1	0	R1127P
826.709	0.015	840668	STOP	n/a	n/a	n/a	n/a	-999	4	[-999, -999, -999]	n/a	catFR1	0	R1127P
826.724	0.634	840683	DISTRACT_END	n/a	n/a	n/a	n/a	-999	4	[0, 0, 0]	n/a	catFR1	0	R1127P
827.358	0.516	841317	RETRIEVAL_ORIENT	n/a	n/a	n/a	n/a	-999	4	[0, 0, 0]	n/a	catFR1	0	R1127P
827.874	0.555	841833	REC_START	n/a	n/a	n/a	n/a	-999	4	[0, 0, 0]	n/a	catFR1	0	R1127P
828.429	0.567	842388	REC_WORD_VV	0.555	n/a	<>	n/a	-999	4	[0, 0, 0]	n/a	catFR1	0	R1127P
828.996	0.603	842955	REC_WORD	1.122	n/a	CAROL	n/a	-999	4	[0, 0, 0]	n/a	catFR1	0	R1127P
829.599	1.627	843558	REC_WORD	1.725	n/a	NIGHTSTAND	Furniture	2	4	[0, 0, 0]	n/a	catFR1	0	R1127P
831.226	4.718	845185	REC_WORD	3.352	n/a	COUCH	Furniture	1	4	[0, 0, 0]	n/a	catFR1	0	R1127P
835.944	2.143	849903	REC_WORD_VV	8.07	n/a	<>	n/a	-999	4	[0, 0, 0]	n/a	catFR1	0	R1127P
838.087	2.692	852046	REC_WORD_VV	10.213	n/a	<>	n/a	-999	4	[0, 0, 0]	n/a	catFR1	0	R1127P
840.779	5.564	854737	REC_WORD	12.905	n/a	COUGAR	n/a	-999	4	[0, 0, 0]	n/a	catFR1	0	R1127P
846.343	4.977	860301	REC_WORD	18.469	n/a	CORN	Vegetables	12	4	[0, 0, 0]	n/a	catFR1	0	R1127P
851.32	6.564	865278	REC_WORD	23.446	n/a	COUCH	Furniture	1	4	[0, 0, 0]	n/a	catFR1	0	R1127P
857.884	4.963	871841	REC_END	n/a	n/a	n/a	n/a	-999	4	[0, 0, 0]	n/a	catFR1	0	R1127P
862.847	0.5	876804	TRIAL	n/a	n/a	n/a	n/a	-999	5	[0, 0, 0]	n/a	catFR1	0	R1127P
863.347	10.428	877304	COUNTDOWN_START	n/a	n/a	n/a	n/a	-999	5	[0, 0, 0]	n/a	catFR1	0	R1127P
873.775	0.007	887732	COUNTDOWN_END	n/a	n/a	n/a	n/a	-999	5	[0, 0, 0]	n/a	catFR1	0	R1127P
873.782	1.618	887739	ORIENT	n/a	n/a	n/a	n/a	-999	5	[0, 0, 0]	n/a	catFR1	0	R1127P
875.4	1.934	889357	ORIENT_OFF	n/a	n/a	n/a	n/a	-999	5	[0, 0, 0]	n/a	catFR1	0	R1127P
877.334	1.616	891290	WORD	n/a	wordpools/wordpool_categorized_EN.txt	OCEAN	Landscapes	1	5	[0, 0, 0]	n/a	catFR1	0	R1127P
878.95	0.966	892906	WORD_OFF	n/a	n/a	OCEAN	n/a	1	5	[0, 0, 0]	n/a	catFR1	0	R1127P
879.916	1.619	893872	WORD	n/a	wordpools/wordpool_categorized_EN.txt	RIVER	Landscapes	2	5	[0, 0, 0]	n/a	catFR1	0	R1127P
881.535	0.8	895491	WORD_OFF	n/a	n/a	RIVER	n/a	2	5	[0, 0, 0]	n/a	catFR1	0	R1127P
882.335	1.616	896291	WORD	n/a	wordpools/wordpool_categorized_EN.txt	CAULIFLOWER	Vegetables	3	5	[0, 0, 0]	n/a	catFR1	0	R1127P
883.951	1.0	897907	WORD_OFF	n/a	n/a	CAULIFLOWER	n/a	3	5	[0, 0, 0]	n/a	catFR1	0	R1127P
884.951	1.618	898907	WORD	n/a	wordpools/wordpool_categorized_EN.txt	PEAS	Vegetables	4	5	[0, 0, 0]	n/a	catFR1	0	R1127P
886.569	0.983	900525	WORD_OFF	n/a	n/a	PEAS	n/a	4	5	[0, 0, 0]	n/a	catFR1	0	R1127P
887.552	1.616	901508	WORD	n/a	wordpools/wordpool_categorized_EN.txt	PIG	FarmAnimals	5	5	[0, 0, 0]	n/a	catFR1	0	R1127P
889.168	0.834	903124	WORD_OFF	n/a	n/a	PIG	n/a	5	5	[0, 0, 0]	n/a	catFR1	0	R1127P
890.002	1.618	903958	WORD	n/a	wordpools/wordpool_categorized_EN.txt	COW	FarmAnimals	6	5	[0, 0, 0]	n/a	catFR1	0	R1127P
891.62	0.9	905576	WORD_OFF	n/a	n/a	COW	n/a	6	5	[0, 0, 0]	n/a	catFR1	0	R1127P
892.52	1.616	906476	WORD	n/a	wordpools/wordpool_categorized_EN.txt	BROCCOLI	Vegetables	7	5	[0, 0, 0]	n/a	catFR1	0	R1127P
894.136	1.0	908092	WORD_OFF	n/a	n/a	BROCCOLI	n/a	7	5	[0, 0, 0]	n/a	catFR1	0	R1127P
895.136	1.617	909092	WORD	n/a	wordpools/wordpool_categorized_EN.txt	CUCUMBER	Vegetables	8	5	[0, 0, 0]	n/a	catFR1	0	R1127P
896.753	0.851	910708	WORD_OFF	n/a	n/a	CUCUMBER	n/a	8	5	[0, 0, 0]	n/a	catFR1	0	R1127P
897.604	1.616	911559	WORD	n/a	wordpools/wordpool_categorized_EN.txt	BEACH	Landscapes	9	5	[0, 0, 0]	n/a	catFR1	0	R1127P
899.22	0.867	913175	WORD_OFF	n/a	n/a	BEACH	n/a	9	5	[0, 0, 0]	n/a	catFR1	0	R1127P
900.087	1.601	914042	WORD	n/a	wordpools/wordpool_categorized_EN.txt	FOREST	Landscapes	10	5	[0, 0, 0]	n/a	catFR1	0	R1127P
901.688	0.867	915643	WORD_OFF	n/a	n/a	FOREST	n/a	10	5	[0, 0, 0]	n/a	catFR1	0	R1127P
902.555	1.616	916510	WORD	n/a	wordpools/wordpool_categorized_EN.txt	HORSE	FarmAnimals	11	5	[0, 0, 0]	n/a	catFR1	0	R1127P
904.171	1.0	918126	WORD_OFF	n/a	n/a	HORSE	n/a	11	5	[0, 0, 0]	n/a	catFR1	0	R1127P
905.171	1.617	919126	WORD	n/a	wordpools/wordpool_categorized_EN.txt	GOAT	FarmAnimals	12	5	[0, 0, 0]	n/a	catFR1	0	R1127P
906.788	0.001	920743	WORD_OFF	n/a	n/a	GOAT	n/a	12	5	[0, 0, 0]	n/a	catFR1	0	R1127P
906.789	0.102	920744	ENCODING_END	n/a	n/a	n/a	n/a	-999	5	[0, 0, 0]	n/a	catFR1	0	R1127P
906.891	0.0	920846	DISTRACT_START	n/a	n/a	n/a	n/a	-999	5	[0, 0, 0]	n/a	catFR1	0	R1127P
906.891	0.014	920846	START	n/a	n/a	n/a	n/a	-999	5	[-999, -999, -999]	n/a	catFR1	0	R1127P
906.905	5.769	920860	PROB	5.734	n/a	n/a	n/a	-999	5	[3, 1, 7]	13.0	catFR1	0	R1127P
912.674	5.968	926629	PROB	5.932	n/a	n/a	n/a	-999	5	[8, 3, 7]	18.0	catFR1	0	R1127P
918.642	4.416	932596	PROB	4.379	n/a	n/a	n/a	-999	5	[7, 7, 3]	18.0	catFR1	0	R1127P
923.058	2.251	937012	PROB	2.228	n/a	n/a	n/a	-999	5	[1, 2, 1]	4.0	catFR1	0	R1127P
925.309	5.657	939263	PROB	5.657	n/a	n/a	n/a	-999	5	[5, 1, 8]	14.0	catFR1	0	R1127P
930.966	0.011	944920	STOP	n/a	n/a	n/a	n/a	-999	5	[-999, -999, -999]	n/a	catFR1	0	R1127P
930.977	0.634	944931	DISTRACT_END	n/a	n/a	n/a	n/a	-999	5	[0, 0, 0]	n/a	catFR1	0	R1127P
931.611	0.516	945565	RETRIEVAL_ORIENT	n/a	n/a	n/a	n/a	-999	5	[0, 0, 0]	n/a	catFR1	0	R1127P
932.127	5.317	946081	REC_START	n/a	n/a	n/a	n/a	-999	5	[0, 0, 0]	n/a	catFR1	0	R1127P
937.444	1.506	951397	REC_WORD	5.317	n/a	CORN	n/a	-999	5	[0, 0, 0]	n/a	catFR1	0	R1127P
938.95	3.166	952903	REC_WORD_VV	6.823	n/a	<>	n/a	-999	5	[0, 0, 0]	n/a	catFR1	0	R1127P
942.116	20.022	956069	REC_WORD	9.989	n/a	PIG	FarmAnimals	5	5	[0, 0, 0]	n/a	catFR1	0	R1127P
962.138	4.429	976090	REC_END	n/a	n/a	n/a	n/a	-999	5	[0, 0, 0]	n/a	catFR1	0	R1127P
966.567	0.5	980519	TRIAL	n/a	n/a	n/a	n/a	-999	6	[0, 0, 0]	n/a	catFR1	0	R1127P
967.067	10.428	981019	COUNTDOWN_START	n/a	n/a	n/a	n/a	-999	6	[0, 0, 0]	n/a	catFR1	0	R1127P
977.495	0.008	991446	COUNTDOWN_END	n/a	n/a	n/a	n/a	-999	6	[0, 0, 0]	n/a	catFR1	0	R1127P
977.503	1.616	991454	ORIENT	n/a	n/a	n/a	n/a	-999	6	[0, 0, 0]	n/a	catFR1	0	R1127P
979.119	2.066	993070	ORIENT_OFF	n/a	n/a	n/a	n/a	-999	6	[0, 0, 0]	n/a	catFR1	0	R1127P
981.185	1.601	995136	WORD	n/a	wordpools/wordpool_categorized_EN.txt	FLUTE	Instruments	1	6	[0, 0, 0]	n/a	catFR1	0	R1127P
982.786	0.967	996737	WORD_OFF	n/a	n/a	FLUTE	n/a	1	6	[0, 0, 0]	n/a	catFR1	0	R1127P
983.753	1.618	997704	WORD	n/a	wordpools/wordpool_categorized_EN.txt	TRUMPET	Instruments	2	6	[0, 0, 0]	n/a	catFR1	0	R1127P
985.371	0.882	999322	WORD_OFF	n/a	n/a	TRUMPET	n/a	2	6	[0, 0, 0]	n/a	catFR1	0	R1127P
986.253	1.617	1000204	WORD	n/a	wordpools/wordpool_categorized_EN.txt	FLY	Insects	3	6	[0, 0, 0]	n/a	catFR1	0	R1127P
987.87	0.768	1001821	WORD_OFF	n/a	n/a	FLY	n/a	3	6	[0, 0, 0]	n/a	catFR1	0	R1127P
988.638	1.616	1002589	WORD	n/a	wordpools/wordpool_categorized_EN.txt	SPIDER	Insects	4	6	[0, 0, 0]	n/a	catFR1	0	R1127P
990.254	0.85	1004205	WORD_OFF	n/a	n/a	SPIDER	n/a	4	6	[0, 0, 0]	n/a	catFR1	0	R1127P
991.104	1.618	1005055	WORD	n/a	wordpools/wordpool_categorized_EN.txt	LAKE	Landscapes	5	6	[0, 0, 0]	n/a	catFR1	0	R1127P
992.722	0.834	1006673	WORD_OFF	n/a	n/a	LAKE	n/a	5	6	[0, 0, 0]	n/a	catFR1	0	R1127P
993.556	1.616	1007506	WORD	n/a	wordpools/wordpool_categorized_EN.txt	STREAM	Landscapes	6	6	[0, 0, 0]	n/a	catFR1	0	R1127P
995.172	0.866	1009122	WORD_OFF	n/a	n/a	STREAM	n/a	6	6	[0, 0, 0]	n/a	catFR1	0	R1127P
996.038	1.618	1009988	WORD	n/a	wordpools/wordpool_categorized_EN.txt	GNAT	Insects	7	6	[0, 0, 0]	n/a	catFR1	0	R1127P
997.656	0.951	1011606	WORD_OFF	n/a	n/a	GNAT	n/a	7	6	[0, 0, 0]	n/a	catFR1	0	R1127P
998.607	1.616	1012557	WORD	n/a	wordpools/wordpool_categorized_EN.txt	LADYBUG	Insects	8	6	[0, 0, 0]	n/a	catFR1	0	R1127P
1000.223	0.783	1014173	WORD_OFF	n/a	n/a	LADYBUG	n/a	8	6	[0, 0, 0]	n/a	catFR1	0	R1127P
1001.006	1.601	1014956	WORD	n/a	wordpools/wordpool_categorized_EN.txt	TUBA	Instruments	9	6	[0, 0, 0]	n/a	catFR1	0	R1127P
1002.607	0.801	1016557	WORD_OFF	n/a	n/a	TUBA	n/a	9	6	[0, 0, 0]	n/a	catFR1	0	R1127P
1003.408	1.615	1017358	WORD	n/a	wordpools/wordpool_categorized_EN.txt	GUITAR	Instruments	10	6	[0, 0, 0]	n/a	catFR1	0	R1127P
1005.023	0.767	1018973	WORD_OFF	n/a	n/a	GUITAR	n/a	10	6	[0, 0, 0]	n/a	catFR1	0	R1127P
1005.79	1.618	1019740	WORD	n/a	wordpools/wordpool_categorized_EN.txt	VALLEY	Landscapes	11	6	[0, 0, 0]	n/a	catFR1	0	R1127P
1007.408	0.833	1021358	WORD_OFF	n/a	n/a	VALLEY	n/a	11	6	[0, 0, 0]	n/a	catFR1	0	R1127P
1008.241	1.617	1022191	WORD	n/a	wordpools/wordpool_categorized_EN.txt	WOODS	Landscapes	12	6	[0, 0, 0]	n/a	catFR1	0	R1127P
1009.858	0.0	1023808	ENCODING_END	n/a	n/a	n/a	n/a	-999	6	[0, 0, 0]	n/a	catFR1	0	R1127P
1009.858	0.106	1023808	WORD_OFF	n/a	n/a	WOODS	n/a	12	6	[0, 0, 0]	n/a	catFR1	0	R1127P
1009.964	0.0	1023914	DISTRACT_START	n/a	n/a	n/a	n/a	-999	6	[0, 0, 0]	n/a	catFR1	0	R1127P
1009.964	0.01	1023914	START	n/a	n/a	n/a	n/a	-999	6	[-999, -999, -999]	n/a	catFR1	0	R1127P
1009.974	6.135	1023924	PROB	6.096	n/a	n/a	n/a	-999	6	[6, 2, 9]	17.0	catFR1	0	R1127P
1016.109	4.784	1030058	PROB	4.753	n/a	n/a	n/a	-999	6	[6, 7, 7]	20.0	catFR1	0	R1127P
1020.893	3.384	1034842	PROB	3.361	n/a	n/a	n/a	-999	6	[2, 8, 8]	18.0	catFR1	0	R1127P
1024.277	4.784	1038226	PROB	4.752	n/a	n/a	n/a	-999	6	[7, 7, 5]	20.0	catFR1	0	R1127P
1029.061	5.528	1043010	PROB	5.528	n/a	n/a	n/a	-999	6	[5, 2, 9]	16.0	catFR1	0	R1127P
1034.589	0.008	1048537	STOP	n/a	n/a	n/a	n/a	-999	6	[-999, -999, -999]	n/a	catFR1	0	R1127P
1034.597	0.566	1048545	DISTRACT_END	n/a	n/a	n/a	n/a	-999	6	[0, 0, 0]	n/a	catFR1	0	R1127P
1035.163	0.518	1049111	RETRIEVAL_ORIENT	n/a	n/a	n/a	n/a	-999	6	[0, 0, 0]	n/a	catFR1	0	R1127P
1035.681	0.753	1049629	REC_START	n/a	n/a	n/a	n/a	-999	6	[0, 0, 0]	n/a	catFR1	0	R1127P
1036.434	0.56	1050382	REC_WORD	0.753	n/a	FLUTE	Instruments	1	6	[0, 0, 0]	n/a	catFR1	0	R1127P
1036.994	1.04	1050942	REC_WORD	1.313	n/a	TRUMPET	Instruments	2	6	[0, 0, 0]	n/a	catFR1	0	R1127P
1038.034	1.456	1051982	REC_WORD_VV	2.353	n/a	<>	n/a	-999	6	[0, 0, 0]	n/a	catFR1	0	R1127P
1039.49	0.741	1053438	REC_WORD	3.809	n/a	TRUMPET	Instruments	2	6	[0, 0, 0]	n/a	catFR1	0	R1127P
1040.231	16.28	1054179	REC_WORD	4.55	n/a	SPIDER	Insects	4	6	[0, 0, 0]	n/a	catFR1	0	R1127P
1056.511	9.183	1070458	REC_WORD	20.83	n/a	GNAT	Insects	7	6	[0, 0, 0]	n/a	catFR1	0	R1127P
1065.694	4.726	1079641	REC_END	n/a	n/a	n/a	n/a	-999	6	[0, 0, 0]	n/a	catFR1	0	R1127P
1070.42	0.5	1084367	TRIAL	n/a	n/a	n/a	n/a	-999	7	[0, 0, 0]	n/a	catFR1	0	R1127P
1070.92	10.428	1084866	COUNTDOWN_START	n/a	n/a	n/a	n/a	-999	7	[0, 0, 0]	n/a	catFR1	0	R1127P
1081.348	0.008	1095294	COUNTDOWN_END	n/a	n/a	n/a	n/a	-999	7	[0, 0, 0]	n/a	catFR1	0	R1127P
1081.356	1.616	1095302	ORIENT	n/a	n/a	n/a	n/a	-999	7	[0, 0, 0]	n/a	catFR1	0	R1127P
1082.972	1.8	1096918	ORIENT_OFF	n/a	n/a	n/a	n/a	-999	7	[0, 0, 0]	n/a	catFR1	0	R1127P
1084.772	1.618	1098718	WORD	n/a	wordpools/wordpool_categorized_EN.txt	PIGEON	Birds	1	7	[0, 0, 0]	n/a	catFR1	0	R1127P
1086.39	1.0	1100336	WORD_OFF	n/a	n/a	PIGEON	n/a	1	7	[0, 0, 0]	n/a	catFR1	0	R1127P
1087.39	1.616	1101336	WORD	n/a	wordpools/wordpool_categorized_EN.txt	SEAGULL	Birds	2	7	[0, 0, 0]	n/a	catFR1	0	R1127P
1089.006	0.967	1102952	WORD_OFF	n/a	n/a	SEAGULL	n/a	2	7	[0, 0, 0]	n/a	catFR1	0	R1127P
1089.973	1.618	1103919	WORD	n/a	wordpools/wordpool_categorized_EN.txt	WATER	Beverages	3	7	[0, 0, 0]	n/a	catFR1	0	R1127P
1091.591	0.8	1105536	WORD_OFF	n/a	n/a	WATER	n/a	3	7	[0, 0, 0]	n/a	catFR1	0	R1127P
1092.391	1.616	1106336	WORD	n/a	wordpools/wordpool_categorized_EN.txt	COFFEE	Beverages	4	7	[0, 0, 0]	n/a	catFR1	0	R1127P
1094.007	0.933	1107952	WORD_OFF	n/a	n/a	COFFEE	n/a	4	7	[0, 0, 0]	n/a	catFR1	0	R1127P
1094.94	1.618	1108885	WORD	n/a	wordpools/wordpool_categorized_EN.txt	CHICKEN	FarmAnimals	5	7	[0, 0, 0]	n/a	catFR1	0	R1127P
1096.558	0.834	1110503	WORD_OFF	n/a	n/a	CHICKEN	n/a	5	7	[0, 0, 0]	n/a	catFR1	0	R1127P
1097.392	1.616	1111337	WORD	n/a	wordpools/wordpool_categorized_EN.txt	ROOSTER	FarmAnimals	6	7	[0, 0, 0]	n/a	catFR1	0	R1127P
1099.008	0.9	1112953	WORD_OFF	n/a	n/a	ROOSTER	n/a	6	7	[0, 0, 0]	n/a	catFR1	0	R1127P
1099.908	1.601	1113853	WORD	n/a	wordpools/wordpool_categorized_EN.txt	MILK	Beverages	7	7	[0, 0, 0]	n/a	catFR1	0	R1127P
1101.509	0.967	1115454	WORD_OFF	n/a	n/a	MILK	n/a	7	7	[0, 0, 0]	n/a	catFR1	0	R1127P
1102.476	1.616	1116421	WORD	n/a	wordpools/wordpool_categorized_EN.txt	CIDER	Beverages	8	7	[0, 0, 0]	n/a	catFR1	0	R1127P
1104.092	0.834	1118037	WORD_OFF	n/a	n/a	CIDER	n/a	8	7	[0, 0, 0]	n/a	catFR1	0	R1127P
1104.926	1.618	1118871	WORD	n/a	wordpools/wordpool_categorized_EN.txt	DUCK	Birds	9	7	[0, 0, 0]	n/a	catFR1	0	R1127P
1106.544	1.0	1120489	WORD_OFF	n/a	n/a	DUCK	n/a	9	7	[0, 0, 0]	n/a	catFR1	0	R1127P
1107.544	1.616	1121489	WORD	n/a	wordpools/wordpool_categorized_EN.txt	DOVE	Birds	10	7	[0, 0, 0]	n/a	catFR1	0	R1127P
1109.16	1.0	1123105	WORD_OFF	n/a	n/a	DOVE	n/a	10	7	[0, 0, 0]	n/a	catFR1	0	R1127P
1110.16	1.617	1124104	WORD	n/a	wordpools/wordpool_categorized_EN.txt	CALF	FarmAnimals	11	7	[0, 0, 0]	n/a	catFR1	0	R1127P
1111.777	0.951	1125721	WORD_OFF	n/a	n/a	CALF	n/a	11	7	[0, 0, 0]	n/a	catFR1	0	R1127P
1112.728	1.617	1126672	WORD	n/a	wordpools/wordpool_categorized_EN.txt	SHEEP	FarmAnimals	12	7	[0, 0, 0]	n/a	catFR1	0	R1127P
1114.345	0.0	1128289	WORD_OFF	n/a	n/a	SHEEP	n/a	12	7	[0, 0, 0]	n/a	catFR1	0	R1127P
1114.345	0.138	1128289	ENCODING_END	n/a	n/a	n/a	n/a	-999	7	[0, 0, 0]	n/a	catFR1	0	R1127P
1114.483	0.0	1128427	DISTRACT_START	n/a	n/a	n/a	n/a	-999	7	[0, 0, 0]	n/a	catFR1	0	R1127P
1114.483	0.012	1128427	START	n/a	n/a	n/a	n/a	-999	7	[-999, -999, -999]	n/a	catFR1	0	R1127P
1114.495	3.184	1128439	PROB	3.16	n/a	n/a	n/a	-999	7	[1, 6, 4]	11.0	catFR1	0	R1127P
1117.679	2.133	1131623	PROB	2.11	n/a	n/a	n/a	-999	7	[1, 5, 5]	11.0	catFR1	0	R1127P
1119.812	4.685	1133756	PROB	4.659	n/a	n/a	n/a	-999	7	[8, 5, 3]	16.0	catFR1	0	R1127P
1124.497	5.884	1138441	PROB	5.853	n/a	n/a	n/a	-999	7	[1, 7, 5]	13.0	catFR1	0	R1127P
1130.381	3.218	1144324	PROB	3.185	n/a	n/a	n/a	-999	7	[1, 1, 7]	9.0	catFR1	0	R1127P
1133.599	6.678	1147542	PROB	6.678	n/a	n/a	n/a	-999	7	[5, 6, 7]	18.0	catFR1	0	R1127P
1140.277	0.005	1154220	STOP	n/a	n/a	n/a	n/a	-999	7	[-999, -999, -999]	n/a	catFR1	0	R1127P
1140.282	0.584	1154225	DISTRACT_END	n/a	n/a	n/a	n/a	-999	7	[0, 0, 0]	n/a	catFR1	0	R1127P
1140.866	0.518	1154809	RETRIEVAL_ORIENT	n/a	n/a	n/a	n/a	-999	7	[0, 0, 0]	n/a	catFR1	0	R1127P
1141.384	0.737	1155327	REC_START	n/a	n/a	n/a	n/a	-999	7	[0, 0, 0]	n/a	catFR1	0	R1127P
1142.121	0.558	1156064	REC_WORD	0.737	n/a	PIGEON	Birds	1	7	[0, 0, 0]	n/a	catFR1	0	R1127P
1142.679	0.772	1156622	REC_WORD	1.295	n/a	SEAGULL	Birds	2	7	[0, 0, 0]	n/a	catFR1	0	R1127P
1143.451	0.776	1157394	REC_WORD	2.067	n/a	WATER	Beverages	3	7	[0, 0, 0]	n/a	catFR1	0	R1127P
1144.227	13.908	1158170	REC_WORD	2.843	n/a	COFFEE	Beverages	4	7	[0, 0, 0]	n/a	catFR1	0	R1127P
1158.135	13.261	1172077	REC_WORD	16.751	n/a	ROUND	n/a	-999	7	[0, 0, 0]	n/a	catFR1	0	R1127P
1171.396	5.061	1185337	REC_END	n/a	n/a	n/a	n/a	-999	7	[0, 0, 0]	n/a	catFR1	0	R1127P
1176.457	0.5	1190398	TRIAL	n/a	n/a	n/a	n/a	-999	8	[0, 0, 0]	n/a	catFR1	0	R1127P
1176.957	10.428	1190898	COUNTDOWN_START	n/a	n/a	n/a	n/a	-999	8	[0, 0, 0]	n/a	catFR1	0	R1127P
1187.385	0.007	1201325	COUNTDOWN_END	n/a	n/a	n/a	n/a	-999	8	[0, 0, 0]	n/a	catFR1	0	R1127P
1187.392	1.616	1201332	ORIENT	n/a	n/a	n/a	n/a	-999	8	[0, 0, 0]	n/a	catFR1	0	R1127P
1189.008	2.234	1202948	ORIENT_OFF	n/a	n/a	n/a	n/a	-999	8	[0, 0, 0]	n/a	catFR1	0	R1127P
1191.242	1.617	1205182	WORD	n/a	wordpools/wordpool_categorized_EN.txt	DRESSER	Furniture	1	8	[0, 0, 0]	n/a	catFR1	0	R1127P
1192.859	0.851	1206799	WORD_OFF	n/a	n/a	DRESSER	n/a	1	8	[0, 0, 0]	n/a	catFR1	0	R1127P
1193.71	1.617	1207650	WORD	n/a	wordpools/wordpool_categorized_EN.txt	BOOKCASE	Furniture	2	8	[0, 0, 0]	n/a	catFR1	0	R1127P
1195.327	0.849	1209267	WORD_OFF	n/a	n/a	BOOKCASE	n/a	2	8	[0, 0, 0]	n/a	catFR1	0	R1127P
1196.176	1.617	1210116	WORD	n/a	wordpools/wordpool_categorized_EN.txt	WRENCH	Tools	3	8	[0, 0, 0]	n/a	catFR1	0	R1127P
1197.793	0.768	1211733	WORD_OFF	n/a	n/a	WRENCH	n/a	3	8	[0, 0, 0]	n/a	catFR1	0	R1127P
1198.561	1.616	1212501	WORD	n/a	wordpools/wordpool_categorized_EN.txt	SCREWDRIVER	Tools	4	8	[0, 0, 0]	n/a	catFR1	0	R1127P
1200.177	0.784	1214117	WORD_OFF	n/a	n/a	SCREWDRIVER	n/a	4	8	[0, 0, 0]	n/a	catFR1	0	R1127P
1200.961	1.618	1214901	WORD	n/a	wordpools/wordpool_categorized_EN.txt	TELEVISION	Electronics	5	8	[0, 0, 0]	n/a	catFR1	0	R1127P
1202.579	0.799	1216519	WORD_OFF	n/a	n/a	TELEVISION	n/a	5	8	[0, 0, 0]	n/a	catFR1	0	R1127P
1203.378	1.617	1217318	WORD	n/a	wordpools/wordpool_categorized_EN.txt	RADIO	Electronics	6	8	[0, 0, 0]	n/a	catFR1	0	R1127P
1204.995	0.766	1218935	WORD_OFF	n/a	n/a	RADIO	n/a	6	8	[0, 0, 0]	n/a	catFR1	0	R1127P
1205.761	1.602	1219701	WORD	n/a	wordpools/wordpool_categorized_EN.txt	HAMMER	Tools	7	8	[0, 0, 0]	n/a	catFR1	0	R1127P
1207.363	0.799	1221302	WORD_OFF	n/a	n/a	HAMMER	n/a	7	8	[0, 0, 0]	n/a	catFR1	0	R1127P
1208.162	1.617	1222101	WORD	n/a	wordpools/wordpool_categorized_EN.txt	DRILL	Tools	8	8	[0, 0, 0]	n/a	catFR1	0	R1127P
1209.779	0.934	1223718	WORD_OFF	n/a	n/a	DRILL	n/a	8	8	[0, 0, 0]	n/a	catFR1	0	R1127P
1210.713	1.601	1224652	WORD	n/a	wordpools/wordpool_categorized_EN.txt	SOFA	Furniture	9	8	[0, 0, 0]	n/a	catFR1	0	R1127P
1212.314	1.0	1226253	WORD_OFF	n/a	n/a	SOFA	n/a	9	8	[0, 0, 0]	n/a	catFR1	0	R1127P
1213.314	1.616	1227253	WORD	n/a	wordpools/wordpool_categorized_EN.txt	CHAIR	Furniture	10	8	[0, 0, 0]	n/a	catFR1	0	R1127P
1214.93	0.816	1228869	WORD_OFF	n/a	n/a	CHAIR	n/a	10	8	[0, 0, 0]	n/a	catFR1	0	R1127P
1215.746	1.602	1229685	WORD	n/a	wordpools/wordpool_categorized_EN.txt	MICROWAVE	Electronics	11	8	[0, 0, 0]	n/a	catFR1	0	R1127P
1217.348	0.849	1231287	WORD_OFF	n/a	n/a	MICROWAVE	n/a	11	8	[0, 0, 0]	n/a	catFR1	0	R1127P
1218.197	1.617	1232136	WORD	n/a	wordpools/wordpool_categorized_EN.txt	CALCULATOR	Electronics	12	8	[0, 0, 0]	n/a	catFR1	0	R1127P
1219.814	0.0	1233753	ENCODING_END	n/a	n/a	n/a	n/a	-999	8	[0, 0, 0]	n/a	catFR1	0	R1127P
1219.814	0.104	1233753	WORD_OFF	n/a	n/a	CALCULATOR	n/a	12	8	[0, 0, 0]	n/a	catFR1	0	R1127P
1219.918	0.0	1233857	DISTRACT_START	n/a	n/a	n/a	n/a	-999	8	[0, 0, 0]	n/a	catFR1	0	R1127P
1219.918	0.013	1233857	START	n/a	n/a	n/a	n/a	-999	8	[-999, -999, -999]	n/a	catFR1	0	R1127P
1219.931	6.652	1233870	PROB	6.62	n/a	n/a	n/a	-999	8	[8, 5, 5]	18.0	catFR1	0	R1127P
1226.583	7.384	1240521	PROB	7.351	n/a	n/a	n/a	-999	8	[8, 9, 6]	21.0	catFR1	0	R1127P
1233.967	2.8	1247905	PROB	2.768	n/a	n/a	n/a	-999	8	[4, 1, 3]	8.0	catFR1	0	R1127P
1236.767	4.031	1250705	PROB	4.031	n/a	n/a	n/a	-999	8	[1, 4, 6]	1.0	catFR1	0	R1127P
1240.798	0.02	1254736	STOP	n/a	n/a	n/a	n/a	-999	8	[-999, -999, -999]	n/a	catFR1	0	R1127P
1240.818	0.685	1254756	DISTRACT_END	n/a	n/a	n/a	n/a	-999	8	[0, 0, 0]	n/a	catFR1	0	R1127P
1241.503	0.516	1255441	RETRIEVAL_ORIENT	n/a	n/a	n/a	n/a	-999	8	[0, 0, 0]	n/a	catFR1	0	R1127P
1242.019	0.998	1255957	REC_START	n/a	n/a	n/a	n/a	-999	8	[0, 0, 0]	n/a	catFR1	0	R1127P
1243.017	0.744	1256955	REC_WORD	0.998	n/a	DRESSER	Furniture	1	8	[0, 0, 0]	n/a	catFR1	0	R1127P
1243.761	0.736	1257699	REC_WORD	1.742	n/a	BOOKCASE	Furniture	2	8	[0, 0, 0]	n/a	catFR1	0	R1127P
1244.497	0.918	1258435	REC_WORD	2.478	n/a	WRENCH	Tools	3	8	[0, 0, 0]	n/a	catFR1	0	R1127P
1245.415	1.032	1259352	REC_WORD	3.396	n/a	RADIO	Electronics	6	8	[0, 0, 0]	n/a	catFR1	0	R1127P
1246.447	25.583	1260384	REC_WORD	4.428	n/a	TELEVISION	Electronics	5	8	[0, 0, 0]	n/a	catFR1	0	R1127P
1272.03	4.629	1285966	REC_END	n/a	n/a	n/a	n/a	-999	8	[0, 0, 0]	n/a	catFR1	0	R1127P
1276.659	0.5	1290595	TRIAL	n/a	n/a	n/a	n/a	-999	9	[0, 0, 0]	n/a	catFR1	0	R1127P
1277.159	10.428	1291095	COUNTDOWN_START	n/a	n/a	n/a	n/a	-999	9	[0, 0, 0]	n/a	catFR1	0	R1127P
1287.587	0.008	1301522	COUNTDOWN_END	n/a	n/a	n/a	n/a	-999	9	[0, 0, 0]	n/a	catFR1	0	R1127P
1287.595	1.616	1301530	ORIENT	n/a	n/a	n/a	n/a	-999	9	[0, 0, 0]	n/a	catFR1	0	R1127P
1289.211	1.933	1303146	ORIENT_OFF	n/a	n/a	n/a	n/a	-999	9	[0, 0, 0]	n/a	catFR1	0	R1127P
1291.144	1.617	1305079	WORD	n/a	wordpools/wordpool_categorized_EN.txt	CARNATION	Flowers	1	9	[0, 0, 0]	n/a	catFR1	0	R1127P
1292.761	0.835	1306696	WORD_OFF	n/a	n/a	CARNATION	n/a	1	9	[0, 0, 0]	n/a	catFR1	0	R1127P
1293.596	1.616	1307531	WORD	n/a	wordpools/wordpool_categorized_EN.txt	DAFFODIL	Flowers	2	9	[0, 0, 0]	n/a	catFR1	0	R1127P
1295.212	0.9	1309147	WORD_OFF	n/a	n/a	DAFFODIL	n/a	2	9	[0, 0, 0]	n/a	catFR1	0	R1127P
1296.112	1.618	1310047	WORD	n/a	wordpools/wordpool_categorized_EN.txt	SODA	Beverages	3	9	[0, 0, 0]	n/a	catFR1	0	R1127P
1297.73	0.933	1311665	WORD_OFF	n/a	n/a	SODA	n/a	3	9	[0, 0, 0]	n/a	catFR1	0	R1127P
1298.663	1.616	1312598	WORD	n/a	wordpools/wordpool_categorized_EN.txt	WINE	Beverages	4	9	[0, 0, 0]	n/a	catFR1	0	R1127P
1300.279	0.85	1314214	WORD_OFF	n/a	n/a	WINE	n/a	4	9	[0, 0, 0]	n/a	catFR1	0	R1127P
1301.129	1.617	1315064	WORD	n/a	wordpools/wordpool_categorized_EN.txt	PEACH	Fruit	5	9	[0, 0, 0]	n/a	catFR1	0	R1127P
1302.746	0.835	1316681	WORD_OFF	n/a	n/a	PEACH	n/a	5	9	[0, 0, 0]	n/a	catFR1	0	R1127P
1303.581	1.616	1317515	WORD	n/a	wordpools/wordpool_categorized_EN.txt	LIME	Fruit	6	9	[0, 0, 0]	n/a	catFR1	0	R1127P
1305.197	0.8	1319131	WORD_OFF	n/a	n/a	LIME	n/a	6	9	[0, 0, 0]	n/a	catFR1	0	R1127P
1305.997	1.601	1319931	WORD	n/a	wordpools/wordpool_categorized_EN.txt	ROSE	Flowers	7	9	[0, 0, 0]	n/a	catFR1	0	R1127P
1307.598	0.817	1321532	WORD_OFF	n/a	n/a	ROSE	n/a	7	9	[0, 0, 0]	n/a	catFR1	0	R1127P
1308.415	1.616	1322349	WORD	n/a	wordpools/wordpool_categorized_EN.txt	LILAC	Flowers	8	9	[0, 0, 0]	n/a	catFR1	0	R1127P
1310.031	0.984	1323965	WORD_OFF	n/a	n/a	LILAC	n/a	8	9	[0, 0, 0]	n/a	catFR1	0	R1127P
1311.015	1.618	1324949	WORD	n/a	wordpools/wordpool_categorized_EN.txt	JUICE	Beverages	9	9	[0, 0, 0]	n/a	catFR1	0	R1127P
1312.633	0.766	1326567	WORD_OFF	n/a	n/a	JUICE	n/a	9	9	[0, 0, 0]	n/a	catFR1	0	R1127P
1313.399	1.616	1327333	WORD	n/a	wordpools/wordpool_categorized_EN.txt	COLA	Beverages	10	9	[0, 0, 0]	n/a	catFR1	0	R1127P
1315.015	0.784	1328949	WORD_OFF	n/a	n/a	COLA	n/a	10	9	[0, 0, 0]	n/a	catFR1	0	R1127P
1315.799	1.618	1329733	WORD	n/a	wordpools/wordpool_categorized_EN.txt	PEAR	Fruit	11	9	[0, 0, 0]	n/a	catFR1	0	R1127P
1317.417	0.9	1331351	WORD_OFF	n/a	n/a	PEAR	n/a	11	9	[0, 0, 0]	n/a	catFR1	0	R1127P
1318.317	1.616	1332251	WORD	n/a	wordpools/wordpool_categorized_EN.txt	LEMON	Fruit	12	9	[0, 0, 0]	n/a	catFR1	0	R1127P
1319.933	0.0	1333867	ENCODING_END	n/a	n/a	n/a	n/a	-999	9	[0, 0, 0]	n/a	catFR1	0	R1127P
1319.933	0.136	1333867	WORD_OFF	n/a	n/a	LEMON	n/a	12	9	[0, 0, 0]	n/a	catFR1	0	R1127P
1320.069	0.0	1334003	DISTRACT_START	n/a	n/a	n/a	n/a	-999	9	[0, 0, 0]	n/a	catFR1	0	R1127P
1320.069	0.014	1334003	START	n/a	n/a	n/a	n/a	-999	9	[-999, -999, -999]	n/a	catFR1	0	R1127P
1320.083	7.269	1334017	PROB	7.235	n/a	n/a	n/a	-999	9	[6, 5, 4]	15.0	catFR1	0	R1127P
1327.352	3.483	1341285	PROB	3.461	n/a	n/a	n/a	-999	9	[5, 4, 1]	10.0	catFR1	0	R1127P
1330.835	5.869	1344768	PROB	5.836	n/a	n/a	n/a	-999	9	[3, 8, 9]	20.0	catFR1	0	R1127P
1336.704	4.766	1350637	PROB	4.766	n/a	n/a	n/a	-999	9	[4, 3, 8]	15.0	catFR1	0	R1127P
1341.47	0.018	1355403	STOP	n/a	n/a	n/a	n/a	-999	9	[-999, -999, -999]	n/a	catFR1	0	R1127P
1341.488	0.566	1355421	DISTRACT_END	n/a	n/a	n/a	n/a	-999	9	[0, 0, 0]	n/a	catFR1	0	R1127P
1342.054	0.518	1355987	RETRIEVAL_ORIENT	n/a	n/a	n/a	n/a	-999	9	[0, 0, 0]	n/a	catFR1	0	R1127P
1342.572	0.685	1356504	REC_START	n/a	n/a	n/a	n/a	-999	9	[0, 0, 0]	n/a	catFR1	0	R1127P
1343.257	0.913	1357189	REC_WORD	0.685	n/a	CARNATION	Flowers	1	9	[0, 0, 0]	n/a	catFR1	0	R1127P
1344.17	3.781	1358102	REC_WORD	1.598	n/a	DAFFODIL	Flowers	2	9	[0, 0, 0]	n/a	catFR1	0	R1127P
1347.951	24.634	1361883	REC_WORD	5.379	n/a	PEAR	Fruit	11	9	[0, 0, 0]	n/a	catFR1	0	R1127P
1372.585	4.876	1386516	REC_END	n/a	n/a	n/a	n/a	-999	9	[0, 0, 0]	n/a	catFR1	0	R1127P
1377.461	0.5	1391392	TRIAL	n/a	n/a	n/a	n/a	-999	10	[0, 0, 0]	n/a	catFR1	0	R1127P
1377.961	10.428	1391892	COUNTDOWN_START	n/a	n/a	n/a	n/a	-999	10	[0, 0, 0]	n/a	catFR1	0	R1127P
1388.389	0.008	1402319	COUNTDOWN_END	n/a	n/a	n/a	n/a	-999	10	[0, 0, 0]	n/a	catFR1	0	R1127P
1388.397	1.616	1402327	ORIENT	n/a	n/a	n/a	n/a	-999	10	[0, 0, 0]	n/a	catFR1	0	R1127P
1390.013	2.067	1403943	ORIENT_OFF	n/a	n/a	n/a	n/a	-999	10	[0, 0, 0]	n/a	catFR1	0	R1127P
1392.08	1.618	1406010	WORD	n/a	wordpools/wordpool_categorized_EN.txt	MOUSSE	Desserts	1	10	[0, 0, 0]	n/a	catFR1	0	R1127P
1393.698	0.917	1407628	WORD_OFF	n/a	n/a	MOUSSE	n/a	1	10	[0, 0, 0]	n/a	catFR1	0	R1127P
1394.615	1.616	1408545	WORD	n/a	wordpools/wordpool_categorized_EN.txt	FUDGE	Desserts	2	10	[0, 0, 0]	n/a	catFR1	0	R1127P
1396.231	0.783	1410161	WORD_OFF	n/a	n/a	FUDGE	n/a	2	10	[0, 0, 0]	n/a	catFR1	0	R1127P
1397.014	1.618	1410944	WORD	n/a	wordpools/wordpool_categorized_EN.txt	SPARROW	Birds	3	10	[0, 0, 0]	n/a	catFR1	0	R1127P
1398.632	0.984	1412562	WORD_OFF	n/a	n/a	SPARROW	n/a	3	10	[0, 0, 0]	n/a	catFR1	0	R1127P
1399.616	1.616	1413546	WORD	n/a	wordpools/wordpool_categorized_EN.txt	HAWK	Birds	4	10	[0, 0, 0]	n/a	catFR1	0	R1127P
1401.232	0.983	1415161	WORD_OFF	n/a	n/a	HAWK	n/a	4	10	[0, 0, 0]	n/a	catFR1	0	R1127P
1402.215	1.617	1416144	WORD	n/a	wordpools/wordpool_categorized_EN.txt	MOSQUITO	Insects	5	10	[0, 0, 0]	n/a	catFR1	0	R1127P
1403.832	0.95	1417761	WORD_OFF	n/a	n/a	MOSQUITO	n/a	5	10	[0, 0, 0]	n/a	catFR1	0	R1127P
1404.782	1.601	1418711	WORD	n/a	wordpools/wordpool_categorized_EN.txt	ROACH	Insects	6	10	[0, 0, 0]	n/a	catFR1	0	R1127P
1406.383	0.883	1420312	WORD_OFF	n/a	n/a	ROACH	n/a	6	10	[0, 0, 0]	n/a	catFR1	0	R1127P
1407.266	1.617	1421195	WORD	n/a	wordpools/wordpool_categorized_EN.txt	CUPCAKE	Desserts	7	10	[0, 0, 0]	n/a	catFR1	0	R1127P
1408.883	0.9	1422812	WORD_OFF	n/a	n/a	CUPCAKE	n/a	7	10	[0, 0, 0]	n/a	catFR1	0	R1127P
1409.783	1.601	1423712	WORD	n/a	wordpools/wordpool_categorized_EN.txt	COBBLER	Desserts	8	10	[0, 0, 0]	n/a	catFR1	0	R1127P
1411.384	0.833	1425313	WORD_OFF	n/a	n/a	COBBLER	n/a	8	10	[0, 0, 0]	n/a	catFR1	0	R1127P
1412.217	1.617	1426146	WORD	n/a	wordpools/wordpool_categorized_EN.txt	FINCH	Birds	9	10	[0, 0, 0]	n/a	catFR1	0	R1127P
1413.834	0.885	1427763	WORD_OFF	n/a	n/a	FINCH	n/a	9	10	[0, 0, 0]	n/a	catFR1	0	R1127P
1414.719	1.617	1428648	WORD	n/a	wordpools/wordpool_categorized_EN.txt	CARDINAL	Birds	10	10	[0, 0, 0]	n/a	catFR1	0	R1127P
1416.336	0.966	1430265	WORD_OFF	n/a	n/a	CARDINAL	n/a	10	10	[0, 0, 0]	n/a	catFR1	0	R1127P
1417.302	1.616	1431231	WORD	n/a	wordpools/wordpool_categorized_EN.txt	BEETLE	Insects	11	10	[0, 0, 0]	n/a	catFR1	0	R1127P
1418.918	0.984	1432847	WORD_OFF	n/a	n/a	BEETLE	n/a	11	10	[0, 0, 0]	n/a	catFR1	0	R1127P
1419.902	1.618	1433830	WORD	n/a	wordpools/wordpool_categorized_EN.txt	ANT	Insects	12	10	[0, 0, 0]	n/a	catFR1	0	R1127P
1421.52	0.0	1435448	WORD_OFF	n/a	n/a	ANT	n/a	12	10	[0, 0, 0]	n/a	catFR1	0	R1127P
1421.52	0.132	1435448	ENCODING_END	n/a	n/a	n/a	n/a	-999	10	[0, 0, 0]	n/a	catFR1	0	R1127P
1421.652	0.0	1435580	DISTRACT_START	n/a	n/a	n/a	n/a	-999	10	[0, 0, 0]	n/a	catFR1	0	R1127P
1421.652	0.018	1435580	START	n/a	n/a	n/a	n/a	-999	10	[-999, -999, -999]	n/a	catFR1	0	R1127P
1421.67	4.701	1435598	PROB	4.664	n/a	n/a	n/a	-999	10	[3, 4, 1]	9.0	catFR1	0	R1127P
1426.371	4.65	1440299	PROB	4.618	n/a	n/a	n/a	-999	10	[2, 8, 4]	13.0	catFR1	0	R1127P
1431.021	6.419	1444949	PROB	6.386	n/a	n/a	n/a	-999	10	[7, 4, 5]	18.0	catFR1	0	R1127P
1437.44	8.239	1451368	PROB	8.239	n/a	n/a	n/a	-999	10	[3, 5, 3]	10.0	catFR1	0	R1127P
1445.679	0.012	1459606	STOP	n/a	n/a	n/a	n/a	-999	10	[-999, -999, -999]	n/a	catFR1	0	R1127P
1445.691	0.549	1459618	DISTRACT_END	n/a	n/a	n/a	n/a	-999	10	[0, 0, 0]	n/a	catFR1	0	R1127P
1446.24	0.518	1460167	RETRIEVAL_ORIENT	n/a	n/a	n/a	n/a	-999	10	[0, 0, 0]	n/a	catFR1	0	R1127P
1446.758	1.071	1460685	REC_START	n/a	n/a	n/a	n/a	-999	10	[0, 0, 0]	n/a	catFR1	0	R1127P
1447.829	0.694	1461756	REC_WORD	1.071	n/a	MOUSE	n/a	-999	10	[0, 0, 0]	n/a	catFR1	0	R1127P
1448.523	7.953	1462450	REC_WORD	1.765	n/a	ROACH	Insects	6	10	[0, 0, 0]	n/a	catFR1	0	R1127P
1456.476	1.562	1470403	REC_WORD_VV	9.718	n/a	<>	n/a	-999	10	[0, 0, 0]	n/a	catFR1	0	R1127P
1458.038	3.325	1471965	REC_WORD	11.28	n/a	DRUM	n/a	-999	10	[0, 0, 0]	n/a	catFR1	0	R1127P
1461.363	9.916	1475289	REC_WORD	14.605	n/a	ANT	Insects	12	10	[0, 0, 0]	n/a	catFR1	0	R1127P
1471.279	5.492	1485205	REC_WORD	24.521	n/a	CREAM	n/a	-999	10	[0, 0, 0]	n/a	catFR1	0	R1127P
1476.771	4.092	1490697	REC_END	n/a	n/a	n/a	n/a	-999	10	[0, 0, 0]	n/a	catFR1	0	R1127P
1480.863	0.5	1494788	TRIAL	n/a	n/a	n/a	n/a	-999	11	[0, 0, 0]	n/a	catFR1	0	R1127P
1481.363	10.428	1495288	COUNTDOWN_START	n/a	n/a	n/a	n/a	-999	11	[0, 0, 0]	n/a	catFR1	0	R1127P
1491.791	0.008	1505716	COUNTDOWN_END	n/a	n/a	n/a	n/a	-999	11	[0, 0, 0]	n/a	catFR1	0	R1127P
1491.799	1.618	1505724	ORIENT	n/a	n/a	n/a	n/a	-999	11	[0, 0, 0]	n/a	catFR1	0	R1127P
1493.417	2.234	1507342	ORIENT_OFF	n/a	n/a	n/a	n/a	-999	11	[0, 0, 0]	n/a	catFR1	0	R1127P
1495.651	1.615	1509576	WORD	n/a	wordpools/wordpool_categorized_EN.txt	SPRUCE	Trees	1	11	[0, 0, 0]	n/a	catFR1	0	R1127P
1497.266	0.817	1511191	WORD_OFF	n/a	n/a	SPRUCE	n/a	1	11	[0, 0, 0]	n/a	catFR1	0	R1127P
1498.083	1.618	1512007	WORD	n/a	wordpools/wordpool_categorized_EN.txt	OAK	Trees	2	11	[0, 0, 0]	n/a	catFR1	0	R1127P
1499.701	0.934	1513625	WORD_OFF	n/a	n/a	OAK	n/a	2	11	[0, 0, 0]	n/a	catFR1	0	R1127P
1500.635	1.616	1514559	WORD	n/a	wordpools/wordpool_categorized_EN.txt	JEANS	Clothing	3	11	[0, 0, 0]	n/a	catFR1	0	R1127P
1502.251	0.983	1516175	WORD_OFF	n/a	n/a	JEANS	n/a	3	11	[0, 0, 0]	n/a	catFR1	0	R1127P
1503.234	1.617	1517158	WORD	n/a	wordpools/wordpool_categorized_EN.txt	SOCKS	Clothing	4	11	[0, 0, 0]	n/a	catFR1	0	R1127P
1504.851	0.917	1518775	WORD_OFF	n/a	n/a	SOCKS	n/a	4	11	[0, 0, 0]	n/a	catFR1	0	R1127P
1505.768	1.601	1519692	WORD	n/a	wordpools/wordpool_categorized_EN.txt	JEEP	Vehicles	5	11	[0, 0, 0]	n/a	catFR1	0	R1127P
1507.369	0.951	1521293	WORD_OFF	n/a	n/a	JEEP	n/a	5	11	[0, 0, 0]	n/a	catFR1	0	R1127P
1508.32	1.616	1522244	WORD	n/a	wordpools/wordpool_categorized_EN.txt	TRUCK	Vehicles	6	11	[0, 0, 0]	n/a	catFR1	0	R1127P
1509.936	0.866	1523860	WORD_OFF	n/a	n/a	TRUCK	n/a	6	11	[0, 0, 0]	n/a	catFR1	0	R1127P
1510.802	1.601	1524726	WORD	n/a	wordpools/wordpool_categorized_EN.txt	WALNUT	Trees	7	11	[0, 0, 0]	n/a	catFR1	0	R1127P
1512.403	0.883	1526327	WORD_OFF	n/a	n/a	WALNUT	n/a	7	11	[0, 0, 0]	n/a	catFR1	0	R1127P
1513.286	1.617	1527210	WORD	n/a	wordpools/wordpool_categorized_EN.txt	EVERGREEN	Trees	8	11	[0, 0, 0]	n/a	catFR1	0	R1127P
1514.903	0.95	1528827	WORD_OFF	n/a	n/a	EVERGREEN	n/a	8	11	[0, 0, 0]	n/a	catFR1	0	R1127P
1515.853	1.618	1529777	WORD	n/a	wordpools/wordpool_categorized_EN.txt	SHORTS	Clothing	9	11	[0, 0, 0]	n/a	catFR1	0	R1127P
1517.471	0.967	1531394	WORD_OFF	n/a	n/a	SHORTS	n/a	9	11	[0, 0, 0]	n/a	catFR1	0	R1127P
1518.438	1.616	1532361	WORD	n/a	wordpools/wordpool_categorized_EN.txt	SKIRT	Clothing	10	11	[0, 0, 0]	n/a	catFR1	0	R1127P
1520.054	0.917	1533977	WORD_OFF	n/a	n/a	SKIRT	n/a	10	11	[0, 0, 0]	n/a	catFR1	0	R1127P
1520.971	1.618	1534894	WORD	n/a	wordpools/wordpool_categorized_EN.txt	BIKE	Vehicles	11	11	[0, 0, 0]	n/a	catFR1	0	R1127P
1522.589	0.8	1536512	WORD_OFF	n/a	n/a	BIKE	n/a	11	11	[0, 0, 0]	n/a	catFR1	0	R1127P
1523.389	1.616	1537312	WORD	n/a	wordpools/wordpool_categorized_EN.txt	VAN	Vehicles	12	11	[0, 0, 0]	n/a	catFR1	0	R1127P
1525.005	0.0	1538928	ENCODING_END	n/a	n/a	n/a	n/a	-999	11	[0, 0, 0]	n/a	catFR1	0	R1127P
1525.005	0.104	1538928	WORD_OFF	n/a	n/a	VAN	n/a	12	11	[0, 0, 0]	n/a	catFR1	0	R1127P
1525.109	0.0	1539032	DISTRACT_START	n/a	n/a	n/a	n/a	-999	11	[0, 0, 0]	n/a	catFR1	0	R1127P
1525.109	0.013	1539032	START	n/a	n/a	n/a	n/a	-999	11	[-999, -999, -999]	n/a	catFR1	0	R1127P
1525.122	5.202	1539045	PROB	5.171	n/a	n/a	n/a	-999	11	[2, 3, 7]	12.0	catFR1	0	R1127P
1530.324	4.8	1544247	PROB	4.762	n/a	n/a	n/a	-999	11	[4, 9, 1]	14.0	catFR1	0	R1127P
1535.124	3.884	1549047	PROB	3.858	n/a	n/a	n/a	-999	11	[3, 7, 2]	12.0	catFR1	0	R1127P
1539.008	4.552	1552930	PROB	4.527	n/a	n/a	n/a	-999	11	[2, 9, 3]	14.0	catFR1	0	R1127P
1543.56	4.262	1557482	PROB	4.262	n/a	n/a	n/a	-999	11	[1, 4, 7]	13.0	catFR1	0	R1127P
1547.822	0.021	1561744	STOP	n/a	n/a	n/a	n/a	-999	11	[-999, -999, -999]	n/a	catFR1	0	R1127P
1547.843	0.551	1561765	DISTRACT_END	n/a	n/a	n/a	n/a	-999	11	[0, 0, 0]	n/a	catFR1	0	R1127P
1548.394	0.516	1562316	RETRIEVAL_ORIENT	n/a	n/a	n/a	n/a	-999	11	[0, 0, 0]	n/a	catFR1	0	R1127P
1548.91	1.987	1562832	REC_START	n/a	n/a	n/a	n/a	-999	11	[0, 0, 0]	n/a	catFR1	0	R1127P
1550.897	0.65	1564819	REC_WORD_VV	1.987	n/a	<>	n/a	-999	11	[0, 0, 0]	n/a	catFR1	0	R1127P
1551.547	3.48	1565469	REC_WORD_VV	2.637	n/a	<>	n/a	-999	11	[0, 0, 0]	n/a	catFR1	0	R1127P
1555.027	3.295	1568949	REC_WORD	6.117	n/a	STREET	n/a	-999	11	[0, 0, 0]	n/a	catFR1	0	R1127P
1558.322	6.031	1572243	REC_WORD_VV	9.412	n/a	<>	n/a	-999	11	[0, 0, 0]	n/a	catFR1	0	R1127P
1564.353	4.088	1578274	REC_WORD_VV	15.443	n/a	<>	n/a	-999	11	[0, 0, 0]	n/a	catFR1	0	R1127P
1568.441	6.284	1582362	REC_WORD	19.531	n/a	NAPKIN	n/a	-999	11	[0, 0, 0]	n/a	catFR1	0	R1127P
1574.725	4.197	1588646	REC_WORD_VV	25.815	n/a	<>	n/a	-999	11	[0, 0, 0]	n/a	catFR1	0	R1127P
1578.922	4.595	1592842	REC_END	n/a	n/a	n/a	n/a	-999	11	[0, 0, 0]	n/a	catFR1	0	R1127P
1583.517	0.5	1597437	TRIAL	n/a	n/a	n/a	n/a	-999	12	[0, 0, 0]	n/a	catFR1	0	R1127P
1584.017	10.428	1597937	COUNTDOWN_START	n/a	n/a	n/a	n/a	-999	12	[0, 0, 0]	n/a	catFR1	0	R1127P
1594.445	0.008	1608364	COUNTDOWN_END	n/a	n/a	n/a	n/a	-999	12	[0, 0, 0]	n/a	catFR1	0	R1127P
1594.453	1.615	1608372	ORIENT	n/a	n/a	n/a	n/a	-999	12	[0, 0, 0]	n/a	catFR1	0	R1127P
1596.068	2.352	1609987	ORIENT_OFF	n/a	n/a	n/a	n/a	-999	12	[0, 0, 0]	n/a	catFR1	0	R1127P
1598.42	1.616	1612339	WORD	n/a	wordpools/wordpool_categorized_EN.txt	TULIP	Flowers	1	12	[0, 0, 0]	n/a	catFR1	0	R1127P
1600.036	0.917	1613955	WORD_OFF	n/a	n/a	TULIP	n/a	1	12	[0, 0, 0]	n/a	catFR1	0	R1127P
1600.953	1.618	1614872	WORD	n/a	wordpools/wordpool_categorized_EN.txt	SUNFLOWER	Flowers	2	12	[0, 0, 0]	n/a	catFR1	0	R1127P
1602.571	0.983	1616490	WORD_OFF	n/a	n/a	SUNFLOWER	n/a	2	12	[0, 0, 0]	n/a	catFR1	0	R1127P
1603.554	1.616	1617473	WORD	n/a	wordpools/wordpool_categorized_EN.txt	CROW	Birds	3	12	[0, 0, 0]	n/a	catFR1	0	R1127P
1605.17	0.934	1619089	WORD_OFF	n/a	n/a	CROW	n/a	3	12	[0, 0, 0]	n/a	catFR1	0	R1127P
1606.104	1.618	1620023	WORD	n/a	wordpools/wordpool_categorized_EN.txt	BLUEBIRD	Birds	4	12	[0, 0, 0]	n/a	catFR1	0	R1127P
1607.722	0.833	1621641	WORD_OFF	n/a	n/a	BLUEBIRD	n/a	4	12	[0, 0, 0]	n/a	catFR1	0	R1127P
1608.555	1.616	1622474	WORD	n/a	wordpools/wordpool_categorized_EN.txt	PLANE	Vehicles	5	12	[0, 0, 0]	n/a	catFR1	0	R1127P
1610.171	0.817	1624090	WORD_OFF	n/a	n/a	PLANE	n/a	5	12	[0, 0, 0]	n/a	catFR1	0	R1127P
1610.988	1.601	1624907	WORD	n/a	wordpools/wordpool_categorized_EN.txt	TRAIN	Vehicles	6	12	[0, 0, 0]	n/a	catFR1	0	R1127P
1612.589	0.817	1626508	WORD_OFF	n/a	n/a	TRAIN	n/a	6	12	[0, 0, 0]	n/a	catFR1	0	R1127P
1613.406	1.616	1627325	WORD	n/a	wordpools/wordpool_categorized_EN.txt	MARIGOLD	Flowers	7	12	[0, 0, 0]	n/a	catFR1	0	R1127P
1615.022	0.85	1628940	WORD_OFF	n/a	n/a	MARIGOLD	n/a	7	12	[0, 0, 0]	n/a	catFR1	0	R1127P
1615.872	1.618	1629790	WORD	n/a	wordpools/wordpool_categorized_EN.txt	ORCHID	Flowers	8	12	[0, 0, 0]	n/a	catFR1	0	R1127P
1617.49	0.85	1631408	WORD_OFF	n/a	n/a	ORCHID	n/a	8	12	[0, 0, 0]	n/a	catFR1	0	R1127P
1618.34	1.616	1632258	WORD	n/a	wordpools/wordpool_categorized_EN.txt	GOOSE	Birds	9	12	[0, 0, 0]	n/a	catFR1	0	R1127P
1619.956	1.017	1633874	WORD_OFF	n/a	n/a	GOOSE	n/a	9	12	[0, 0, 0]	n/a	catFR1	0	R1127P
1620.973	1.618	1634891	WORD	n/a	wordpools/wordpool_categorized_EN.txt	ROBIN	Birds	10	12	[0, 0, 0]	n/a	catFR1	0	R1127P
1622.591	0.834	1636509	WORD_OFF	n/a	n/a	ROBIN	n/a	10	12	[0, 0, 0]	n/a	catFR1	0	R1127P
1623.425	1.616	1637343	WORD	n/a	wordpools/wordpool_categorized_EN.txt	MOPED	Vehicles	11	12	[0, 0, 0]	n/a	catFR1	0	R1127P
1625.041	0.766	1638959	WORD_OFF	n/a	n/a	MOPED	n/a	11	12	[0, 0, 0]	n/a	catFR1	0	R1127P
1625.807	1.602	1639725	WORD	n/a	wordpools/wordpool_categorized_EN.txt	BUS	Vehicles	12	12	[0, 0, 0]	n/a	catFR1	0	R1127P
1627.409	0.0	1641327	WORD_OFF	n/a	n/a	BUS	n/a	12	12	[0, 0, 0]	n/a	catFR1	0	R1127P
1627.409	0.14	1641327	ENCODING_END	n/a	n/a	n/a	n/a	-999	12	[0, 0, 0]	n/a	catFR1	0	R1127P
1627.549	0.0	1641467	DISTRACT_START	n/a	n/a	n/a	n/a	-999	12	[0, 0, 0]	n/a	catFR1	0	R1127P
1627.549	0.01	1641467	START	n/a	n/a	n/a	n/a	-999	12	[-999, -999, -999]	n/a	catFR1	0	R1127P
1627.559	4.566	1641477	PROB	4.534	n/a	n/a	n/a	-999	12	[9, 1, 5]	15.0	catFR1	0	R1127P
1632.125	2.684	1646043	PROB	2.648	n/a	n/a	n/a	-999	12	[6, 1, 6]	13.0	catFR1	0	R1127P
1634.809	4.434	1648726	PROB	4.404	n/a	n/a	n/a	-999	12	[7, 9, 9]	25.0	catFR1	0	R1127P
1639.243	5.102	1653160	PROB	5.076	n/a	n/a	n/a	-999	12	[9, 4, 3]	16.0	catFR1	0	R1127P
1644.345	6.933	1658262	PROB	6.933	n/a	n/a	n/a	-999	12	[3, 5, 3]	12.0	catFR1	0	R1127P
1651.278	0.018	1665195	STOP	n/a	n/a	n/a	n/a	-999	12	[-999, -999, -999]	n/a	catFR1	0	R1127P
1651.296	0.683	1665213	DISTRACT_END	n/a	n/a	n/a	n/a	-999	12	[0, 0, 0]	n/a	catFR1	0	R1127P
1651.979	0.518	1665896	RETRIEVAL_ORIENT	n/a	n/a	n/a	n/a	-999	12	[0, 0, 0]	n/a	catFR1	0	R1127P
1652.497	1.254	1666413	REC_START	n/a	n/a	n/a	n/a	-999	12	[0, 0, 0]	n/a	catFR1	0	R1127P
1653.751	8.608	1667667	REC_WORD	1.254	n/a	TULIP	Flowers	1	12	[0, 0, 0]	n/a	catFR1	0	R1127P
1662.359	0.471	1676275	REC_WORD	9.862	n/a	TULIP	Flowers	1	12	[0, 0, 0]	n/a	catFR1	0	R1127P
1662.83	2.939	1676746	REC_WORD	10.333	n/a	GAME	n/a	-999	12	[0, 0, 0]	n/a	catFR1	0	R1127P
1665.769	9.379	1679685	REC_WORD	13.272	n/a	PLANE	Vehicles	5	12	[0, 0, 0]	n/a	catFR1	0	R1127P
1675.148	1.598	1689063	REC_WORD_VV	22.651	n/a	<>	n/a	-999	12	[0, 0, 0]	n/a	catFR1	0	R1127P
1676.746	5.763	1690661	REC_WORD	24.249	n/a	MELT	n/a	-999	12	[0, 0, 0]	n/a	catFR1	0	R1127P
1682.509	5.078	1696424	REC_END	n/a	n/a	n/a	n/a	-999	12	[0, 0, 0]	n/a	catFR1	0	R1127P
1687.587	0.5	1701502	TRIAL	n/a	n/a	n/a	n/a	-999	13	[0, 0, 0]	n/a	catFR1	0	R1127P
1688.087	10.428	1702002	COUNTDOWN_START	n/a	n/a	n/a	n/a	-999	13	[0, 0, 0]	n/a	catFR1	0	R1127P
1698.515	0.007	1712429	COUNTDOWN_END	n/a	n/a	n/a	n/a	-999	13	[0, 0, 0]	n/a	catFR1	0	R1127P
1698.522	1.616	1712436	ORIENT	n/a	n/a	n/a	n/a	-999	13	[0, 0, 0]	n/a	catFR1	0	R1127P
1700.138	2.202	1714052	ORIENT_OFF	n/a	n/a	n/a	n/a	-999	13	[0, 0, 0]	n/a	catFR1	0	R1127P
1702.34	1.616	1716254	WORD	n/a	wordpools/wordpool_categorized_EN.txt	EAR	BodyParts	1	13	[0, 0, 0]	n/a	catFR1	0	R1127P
1703.956	0.933	1717870	WORD_OFF	n/a	n/a	EAR	n/a	1	13	[0, 0, 0]	n/a	catFR1	0	R1127P
1704.889	1.618	1718803	WORD	n/a	wordpools/wordpool_categorized_EN.txt	HAND	BodyParts	2	13	[0, 0, 0]	n/a	catFR1	0	R1127P
1706.507	0.867	1720421	WORD_OFF	n/a	n/a	HAND	n/a	2	13	[0, 0, 0]	n/a	catFR1	0	R1127P
1707.374	1.616	1721288	WORD	n/a	wordpools/wordpool_categorized_EN.txt	BUTTERFLY	Insects	3	13	[0, 0, 0]	n/a	catFR1	0	R1127P
1708.99	0.817	1722904	WORD_OFF	n/a	n/a	BUTTERFLY	n/a	3	13	[0, 0, 0]	n/a	catFR1	0	R1127P
1709.807	1.618	1723721	WORD	n/a	wordpools/wordpool_categorized_EN.txt	MOTH	Insects	4	13	[0, 0, 0]	n/a	catFR1	0	R1127P
1711.425	0.865	1725338	WORD_OFF	n/a	n/a	MOTH	n/a	4	13	[0, 0, 0]	n/a	catFR1	0	R1127P
1712.29	1.617	1726203	WORD	n/a	wordpools/wordpool_categorized_EN.txt	FRISBEE	Toys	5	13	[0, 0, 0]	n/a	catFR1	0	R1127P
1713.907	1.001	1727820	WORD_OFF	n/a	n/a	FRISBEE	n/a	5	13	[0, 0, 0]	n/a	catFR1	0	R1127P
1714.908	1.618	1728821	WORD	n/a	wordpools/wordpool_categorized_EN.txt	BALL	Toys	6	13	[0, 0, 0]	n/a	catFR1	0	R1127P
1716.526	1.0	1730439	WORD_OFF	n/a	n/a	BALL	n/a	6	13	[0, 0, 0]	n/a	catFR1	0	R1127P
1717.526	1.616	1731439	WORD	n/a	wordpools/wordpool_categorized_EN.txt	BEE	Insects	7	13	[0, 0, 0]	n/a	catFR1	0	R1127P
1719.142	0.967	1733055	WORD_OFF	n/a	n/a	BEE	n/a	7	13	[0, 0, 0]	n/a	catFR1	0	R1127P
1720.109	1.618	1734022	WORD	n/a	wordpools/wordpool_categorized_EN.txt	CRICKET	Insects	8	13	[0, 0, 0]	n/a	catFR1	0	R1127P
1721.727	0.933	1735640	WORD_OFF	n/a	n/a	CRICKET	n/a	8	13	[0, 0, 0]	n/a	catFR1	0	R1127P
1722.66	1.616	1736573	WORD	n/a	wordpools/wordpool_categorized_EN.txt	KNEE	BodyParts	9	13	[0, 0, 0]	n/a	catFR1	0	R1127P
1724.276	0.817	1738189	WORD_OFF	n/a	n/a	KNEE	n/a	9	13	[0, 0, 0]	n/a	catFR1	0	R1127P
1725.093	1.618	1739006	WORD	n/a	wordpools/wordpool_categorized_EN.txt	EYE	BodyParts	10	13	[0, 0, 0]	n/a	catFR1	0	R1127P
1726.711	1.0	1740624	WORD_OFF	n/a	n/a	EYE	n/a	10	13	[0, 0, 0]	n/a	catFR1	0	R1127P
1727.711	1.617	1741624	WORD	n/a	wordpools/wordpool_categorized_EN.txt	BARBIE	Toys	11	13	[0, 0, 0]	n/a	catFR1	0	R1127P
1729.328	0.849	1743241	WORD_OFF	n/a	n/a	BARBIE	n/a	11	13	[0, 0, 0]	n/a	catFR1	0	R1127P
1730.177	1.617	1744089	WORD	n/a	wordpools/wordpool_categorized_EN.txt	BLOCKS	Toys	12	13	[0, 0, 0]	n/a	catFR1	0	R1127P
1731.794	0.0	1745706	ENCODING_END	n/a	n/a	n/a	n/a	-999	13	[0, 0, 0]	n/a	catFR1	0	R1127P
1731.794	0.105	1745706	WORD_OFF	n/a	n/a	BLOCKS	n/a	12	13	[0, 0, 0]	n/a	catFR1	0	R1127P
1731.899	0.0	1745811	DISTRACT_START	n/a	n/a	n/a	n/a	-999	13	[0, 0, 0]	n/a	catFR1	0	R1127P
1731.899	0.012	1745811	START	n/a	n/a	n/a	n/a	-999	13	[-999, -999, -999]	n/a	catFR1	0	R1127P
1731.911	4.267	1745823	PROB	4.23	n/a	n/a	n/a	-999	13	[4, 7, 1]	13.0	catFR1	0	R1127P
1736.178	4.718	1750090	PROB	4.684	n/a	n/a	n/a	-999	13	[6, 7, 7]	21.0	catFR1	0	R1127P
1740.896	4.334	1754808	PROB	4.301	n/a	n/a	n/a	-999	13	[2, 7, 4]	14.0	catFR1	0	R1127P
1745.23	4.017	1759142	PROB	3.991	n/a	n/a	n/a	-999	13	[7, 5, 5]	17.0	catFR1	0	R1127P
1749.247	8.75	1763159	PROB	8.75	n/a	n/a	n/a	-999	13	[8, 7, 9]	20.0	catFR1	0	R1127P
1757.997	0.019	1771908	STOP	n/a	n/a	n/a	n/a	-999	13	[-999, -999, -999]	n/a	catFR1	0	R1127P
1758.016	0.617	1771927	DISTRACT_END	n/a	n/a	n/a	n/a	-999	13	[0, 0, 0]	n/a	catFR1	0	R1127P
1758.633	0.517	1772544	RETRIEVAL_ORIENT	n/a	n/a	n/a	n/a	-999	13	[0, 0, 0]	n/a	catFR1	0	R1127P
1759.15	0.401	1773061	REC_START	n/a	n/a	n/a	n/a	-999	13	[0, 0, 0]	n/a	catFR1	0	R1127P
1759.551	1.274	1773462	REC_WORD	0.401	n/a	EAR	BodyParts	1	13	[0, 0, 0]	n/a	catFR1	0	R1127P
1760.825	0.472	1774736	REC_WORD	1.675	n/a	EAR	BodyParts	1	13	[0, 0, 0]	n/a	catFR1	0	R1127P
1761.297	0.436	1775208	REC_WORD	2.147	n/a	EYE	BodyParts	10	13	[0, 0, 0]	n/a	catFR1	0	R1127P
1761.733	1.351	1775644	REC_WORD	2.583	n/a	HAND	BodyParts	2	13	[0, 0, 0]	n/a	catFR1	0	R1127P
1763.084	10.041	1776995	REC_WORD	3.934	n/a	BUTTERFLY	Insects	3	13	[0, 0, 0]	n/a	catFR1	0	R1127P
1773.125	1.912	1787035	REC_WORD_VV	13.975	n/a	<>	n/a	-999	13	[0, 0, 0]	n/a	catFR1	0	R1127P
1775.037	2.607	1788947	REC_WORD_VV	15.887	n/a	<>	n/a	-999	13	[0, 0, 0]	n/a	catFR1	0	R1127P
1777.644	11.518	1791554	REC_WORD_VV	18.494	n/a	<>	n/a	-999	13	[0, 0, 0]	n/a	catFR1	0	R1127P
1789.162	5.262	1803071	REC_END	n/a	n/a	n/a	n/a	-999	13	[0, 0, 0]	n/a	catFR1	0	R1127P
1794.424	0.5	1808333	TRIAL	n/a	n/a	n/a	n/a	-999	14	[0, 0, 0]	n/a	catFR1	0	R1127P
1794.924	10.428	1808833	COUNTDOWN_START	n/a	n/a	n/a	n/a	-999	14	[0, 0, 0]	n/a	catFR1	0	R1127P
1805.352	0.007	1819261	COUNTDOWN_END	n/a	n/a	n/a	n/a	-999	14	[0, 0, 0]	n/a	catFR1	0	R1127P
1805.359	1.616	1819268	ORIENT	n/a	n/a	n/a	n/a	-999	14	[0, 0, 0]	n/a	catFR1	0	R1127P
1806.975	2.335	1820884	ORIENT_OFF	n/a	n/a	n/a	n/a	-999	14	[0, 0, 0]	n/a	catFR1	0	R1127P
1809.31	1.616	1823218	WORD	n/a	wordpools/wordpool_categorized_EN.txt	CEILING	Building	1	14	[0, 0, 0]	n/a	catFR1	0	R1127P
1810.926	0.85	1824834	WORD_OFF	n/a	n/a	CEILING	n/a	1	14	[0, 0, 0]	n/a	catFR1	0	R1127P
1811.776	1.601	1825684	WORD	n/a	wordpools/wordpool_categorized_EN.txt	DOOR	Building	2	14	[0, 0, 0]	n/a	catFR1	0	R1127P
1813.377	1.0	1827285	WORD_OFF	n/a	n/a	DOOR	n/a	2	14	[0, 0, 0]	n/a	catFR1	0	R1127P
1814.377	1.616	1828285	WORD	n/a	wordpools/wordpool_categorized_EN.txt	CEDAR	Trees	3	14	[0, 0, 0]	n/a	catFR1	0	R1127P
1815.993	0.967	1829901	WORD_OFF	n/a	n/a	CEDAR	n/a	3	14	[0, 0, 0]	n/a	catFR1	0	R1127P
1816.96	1.601	1830868	WORD	n/a	wordpools/wordpool_categorized_EN.txt	ELM	Trees	4	14	[0, 0, 0]	n/a	catFR1	0	R1127P
1818.561	0.817	1832469	WORD_OFF	n/a	n/a	ELM	n/a	4	14	[0, 0, 0]	n/a	catFR1	0	R1127P
1819.378	1.616	1833286	WORD	n/a	wordpools/wordpool_categorized_EN.txt	SPINACH	Vegetables	5	14	[0, 0, 0]	n/a	catFR1	0	R1127P
1820.994	0.917	1834902	WORD_OFF	n/a	n/a	SPINACH	n/a	5	14	[0, 0, 0]	n/a	catFR1	0	R1127P
1821.911	1.618	1835819	WORD	n/a	wordpools/wordpool_categorized_EN.txt	CARROT	Vegetables	6	14	[0, 0, 0]	n/a	catFR1	0	R1127P
1823.529	0.817	1837437	WORD_OFF	n/a	n/a	CARROT	n/a	6	14	[0, 0, 0]	n/a	catFR1	0	R1127P
1824.346	1.616	1838254	WORD	n/a	wordpools/wordpool_categorized_EN.txt	WALL	Building	7	14	[0, 0, 0]	n/a	catFR1	0	R1127P
1825.962	0.817	1839870	WORD_OFF	n/a	n/a	WALL	n/a	7	14	[0, 0, 0]	n/a	catFR1	0	R1127P
1826.779	1.618	1840687	WORD	n/a	wordpools/wordpool_categorized_EN.txt	FOUNDATION	Building	8	14	[0, 0, 0]	n/a	catFR1	0	R1127P
1828.397	1.0	1842304	WORD_OFF	n/a	n/a	FOUNDATION	n/a	8	14	[0, 0, 0]	n/a	catFR1	0	R1127P
1829.397	1.616	1843304	WORD	n/a	wordpools/wordpool_categorized_EN.txt	BIRCH	Trees	9	14	[0, 0, 0]	n/a	catFR1	0	R1127P
1831.013	0.767	1844920	WORD_OFF	n/a	n/a	BIRCH	n/a	9	14	[0, 0, 0]	n/a	catFR1	0	R1127P
1831.78	1.601	1845687	WORD	n/a	wordpools/wordpool_categorized_EN.txt	WILLOW	Trees	10	14	[0, 0, 0]	n/a	catFR1	0	R1127P
1833.381	0.883	1847288	WORD_OFF	n/a	n/a	WILLOW	n/a	10	14	[0, 0, 0]	n/a	catFR1	0	R1127P
1834.264	1.616	1848171	WORD	n/a	wordpools/wordpool_categorized_EN.txt	POTATO	Vegetables	11	14	[0, 0, 0]	n/a	catFR1	0	R1127P
1835.88	0.917	1849787	WORD_OFF	n/a	n/a	POTATO	n/a	11	14	[0, 0, 0]	n/a	catFR1	0	R1127P
1836.797	1.601	1850704	WORD	n/a	wordpools/wordpool_categorized_EN.txt	LETTUCE	Vegetables	12	14	[0, 0, 0]	n/a	catFR1	0	R1127P
1838.398	0.001	1852305	WORD_OFF	n/a	n/a	LETTUCE	n/a	12	14	[0, 0, 0]	n/a	catFR1	0	R1127P
1838.399	0.102	1852306	ENCODING_END	n/a	n/a	n/a	n/a	-999	14	[0, 0, 0]	n/a	catFR1	0	R1127P
1838.501	0.0	1852408	DISTRACT_START	n/a	n/a	n/a	n/a	-999	14	[0, 0, 0]	n/a	catFR1	0	R1127P
1838.501	0.014	1852408	START	n/a	n/a	n/a	n/a	-999	14	[-999, -999, -999]	n/a	catFR1	0	R1127P
1838.515	6.952	1852422	PROB	6.924	n/a	n/a	n/a	-999	14	[8, 1, 8]	17.0	catFR1	0	R1127P
1845.467	4.05	1859374	PROB	4.02	n/a	n/a	n/a	-999	14	[2, 4, 8]	14.0	catFR1	0	R1127P
1849.517	6.534	1863423	PROB	6.497	n/a	n/a	n/a	-999	14	[6, 3, 7]	16.0	catFR1	0	R1127P
1856.051	8.787	1869957	PROB	8.787	n/a	n/a	n/a	-999	14	[4, 6, 4]	14.0	catFR1	0	R1127P
1864.838	0.015	1878744	STOP	n/a	n/a	n/a	n/a	-999	14	[-999, -999, -999]	n/a	catFR1	0	R1127P
1864.853	0.551	1878759	DISTRACT_END	n/a	n/a	n/a	n/a	-999	14	[0, 0, 0]	n/a	catFR1	0	R1127P
1865.404	0.516	1879310	RETRIEVAL_ORIENT	n/a	n/a	n/a	n/a	-999	14	[0, 0, 0]	n/a	catFR1	0	R1127P
1865.92	0.938	1879825	REC_START	n/a	n/a	n/a	n/a	-999	14	[0, 0, 0]	n/a	catFR1	0	R1127P
1866.858	1.008	1880763	REC_WORD	0.938	n/a	CEILING	Building	1	14	[0, 0, 0]	n/a	catFR1	0	R1127P
1867.866	2.662	1881771	REC_WORD	1.946	n/a	DOOR	Building	2	14	[0, 0, 0]	n/a	catFR1	0	R1127P
1870.528	1.005	1884433	REC_WORD_VV	4.608	n/a	<>	n/a	-999	14	[0, 0, 0]	n/a	catFR1	0	R1127P
1871.533	4.094	1885438	REC_WORD	5.613	n/a	WALL	Building	7	14	[0, 0, 0]	n/a	catFR1	0	R1127P
1875.627	9.254	1889532	REC_WORD	9.707	n/a	LETTUCE	Vegetables	12	14	[0, 0, 0]	n/a	catFR1	0	R1127P
1884.881	4.374	1898786	REC_WORD_VV	18.961	n/a	<>	n/a	-999	14	[0, 0, 0]	n/a	catFR1	0	R1127P
1889.255	6.676	1903159	REC_WORD	23.335	n/a	EAR	n/a	-999	14	[0, 0, 0]	n/a	catFR1	0	R1127P
1895.931	5.195	1909835	REC_END	n/a	n/a	n/a	n/a	-999	14	[0, 0, 0]	n/a	catFR1	0	R1127P
1901.126	0.5	1915030	TRIAL	n/a	n/a	n/a	n/a	-999	15	[0, 0, 0]	n/a	catFR1	0	R1127P
1901.626	10.428	1915530	COUNTDOWN_START	n/a	n/a	n/a	n/a	-999	15	[0, 0, 0]	n/a	catFR1	0	R1127P
1912.054	0.008	1925957	COUNTDOWN_END	n/a	n/a	n/a	n/a	-999	15	[0, 0, 0]	n/a	catFR1	0	R1127P
1912.062	1.618	1925965	ORIENT	n/a	n/a	n/a	n/a	-999	15	[0, 0, 0]	n/a	catFR1	0	R1127P
1913.68	2.149	1927583	ORIENT_OFF	n/a	n/a	n/a	n/a	-999	15	[0, 0, 0]	n/a	catFR1	0	R1127P
1915.829	1.618	1929732	WORD	n/a	wordpools/wordpool_categorized_EN.txt	UNDERWEAR	Clothing	1	15	[0, 0, 0]	n/a	catFR1	0	R1127P
1917.447	0.782	1931350	WORD_OFF	n/a	n/a	UNDERWEAR	n/a	1	15	[0, 0, 0]	n/a	catFR1	0	R1127P
1918.229	1.617	1932132	WORD	n/a	wordpools/wordpool_categorized_EN.txt	DRESS	Clothing	2	15	[0, 0, 0]	n/a	catFR1	0	R1127P
1919.846	0.951	1933749	WORD_OFF	n/a	n/a	DRESS	n/a	2	15	[0, 0, 0]	n/a	catFR1	0	R1127P
1920.797	1.617	1934700	WORD	n/a	wordpools/wordpool_categorized_EN.txt	LIGHTNING	Weather	3	15	[0, 0, 0]	n/a	catFR1	0	R1127P
1922.414	0.934	1936317	WORD_OFF	n/a	n/a	LIGHTNING	n/a	3	15	[0, 0, 0]	n/a	catFR1	0	R1127P
1923.348	1.616	1937251	WORD	n/a	wordpools/wordpool_categorized_EN.txt	SNOW	Weather	4	15	[0, 0, 0]	n/a	catFR1	0	R1127P
1924.964	0.983	1938866	WORD_OFF	n/a	n/a	SNOW	n/a	4	15	[0, 0, 0]	n/a	catFR1	0	R1127P
1925.947	1.619	1939849	WORD	n/a	wordpools/wordpool_categorized_EN.txt	CHEESECAKE	Desserts	5	15	[0, 0, 0]	n/a	catFR1	0	R1127P
1927.566	0.883	1941468	WORD_OFF	n/a	n/a	CHEESECAKE	n/a	5	15	[0, 0, 0]	n/a	catFR1	0	R1127P
1928.449	1.616	1942351	WORD	n/a	wordpools/wordpool_categorized_EN.txt	CAKE	Desserts	6	15	[0, 0, 0]	n/a	catFR1	0	R1127P
1930.065	0.833	1943967	WORD_OFF	n/a	n/a	CAKE	n/a	6	15	[0, 0, 0]	n/a	catFR1	0	R1127P
1930.898	1.602	1944800	WORD	n/a	wordpools/wordpool_categorized_EN.txt	COAT	Clothing	7	15	[0, 0, 0]	n/a	catFR1	0	R1127P
1932.5	0.983	1946402	WORD_OFF	n/a	n/a	COAT	n/a	7	15	[0, 0, 0]	n/a	catFR1	0	R1127P
1933.483	1.616	1947385	WORD	n/a	wordpools/wordpool_categorized_EN.txt	BLOUSE	Clothing	8	15	[0, 0, 0]	n/a	catFR1	0	R1127P
1935.099	1.0	1949001	WORD_OFF	n/a	n/a	BLOUSE	n/a	8	15	[0, 0, 0]	n/a	catFR1	0	R1127P
1936.099	1.602	1950001	WORD	n/a	wordpools/wordpool_categorized_EN.txt	CLOUD	Weather	9	15	[0, 0, 0]	n/a	catFR1	0	R1127P
1937.701	1.0	1951603	WORD_OFF	n/a	n/a	CLOUD	n/a	9	15	[0, 0, 0]	n/a	catFR1	0	R1127P
1938.701	1.617	1952603	WORD	n/a	wordpools/wordpool_categorized_EN.txt	FOG	Weather	10	15	[0, 0, 0]	n/a	catFR1	0	R1127P
1940.318	0.832	1954220	WORD_OFF	n/a	n/a	FOG	n/a	10	15	[0, 0, 0]	n/a	catFR1	0	R1127P
1941.15	1.617	1955052	WORD	n/a	wordpools/wordpool_categorized_EN.txt	PIE	Desserts	11	15	[0, 0, 0]	n/a	catFR1	0	R1127P
1942.767	1.001	1956669	WORD_OFF	n/a	n/a	PIE	n/a	11	15	[0, 0, 0]	n/a	catFR1	0	R1127P
1943.768	1.618	1957669	WORD	n/a	wordpools/wordpool_categorized_EN.txt	PASTRY	Desserts	12	15	[0, 0, 0]	n/a	catFR1	0	R1127P
1945.386	0.0	1959287	ENCODING_END	n/a	n/a	n/a	n/a	-999	15	[0, 0, 0]	n/a	catFR1	0	R1127P
1945.386	0.136	1959287	WORD_OFF	n/a	n/a	PASTRY	n/a	12	15	[0, 0, 0]	n/a	catFR1	0	R1127P
1945.522	0.001	1959423	DISTRACT_START	n/a	n/a	n/a	n/a	-999	15	[0, 0, 0]	n/a	catFR1	0	R1127P
1945.523	0.013	1959424	START	n/a	n/a	n/a	n/a	-999	15	[-999, -999, -999]	n/a	catFR1	0	R1127P
1945.536	6.067	1959437	PROB	6.031	n/a	n/a	n/a	-999	15	[3, 2, 6]	11.0	catFR1	0	R1127P
1951.603	6.802	1965504	PROB	6.78	n/a	n/a	n/a	-999	15	[6, 4, 7]	17.0	catFR1	0	R1127P
1958.405	7.084	1972306	PROB	7.058	n/a	n/a	n/a	-999	15	[9, 3, 8]	20.0	catFR1	0	R1127P
1965.489	5.101	1979389	PROB	5.101	n/a	n/a	n/a	-999	15	[8, 3, 4]	15.0	catFR1	0	R1127P
1970.59	0.017	1984490	STOP	n/a	n/a	n/a	n/a	-999	15	[-999, -999, -999]	n/a	catFR1	0	R1127P
1970.607	0.532	1984507	DISTRACT_END	n/a	n/a	n/a	n/a	-999	15	[0, 0, 0]	n/a	catFR1	0	R1127P
1971.139	0.502	1985039	RETRIEVAL_ORIENT	n/a	n/a	n/a	n/a	-999	15	[0, 0, 0]	n/a	catFR1	0	R1127P
1971.641	2.409	1985541	REC_START	n/a	n/a	n/a	n/a	-999	15	[0, 0, 0]	n/a	catFR1	0	R1127P
1974.05	5.12	1987950	REC_WORD	2.409	n/a	SANDAL	n/a	-999	15	[0, 0, 0]	n/a	catFR1	0	R1127P
1979.17	9.646	1993070	REC_WORD	7.529	n/a	CAKE	Desserts	6	15	[0, 0, 0]	n/a	catFR1	0	R1127P
1988.816	2.193	2002715	REC_WORD	17.175	n/a	TASTYCAKE	n/a	-999	15	[0, 0, 0]	n/a	catFR1	0	R1127P
1991.009	10.644	2004908	REC_WORD	19.368	n/a	UNDERWEAR	Clothing	1	15	[0, 0, 0]	n/a	catFR1	0	R1127P
2001.653	4.91	2015551	REC_END	n/a	n/a	n/a	n/a	-999	15	[0, 0, 0]	n/a	catFR1	0	R1127P
2006.563	0.5	2020461	TRIAL	n/a	n/a	n/a	n/a	-999	16	[0, 0, 0]	n/a	catFR1	0	R1127P
2007.063	10.428	2020961	COUNTDOWN_START	n/a	n/a	n/a	n/a	-999	16	[0, 0, 0]	n/a	catFR1	0	R1127P
2017.491	0.008	2031389	COUNTDOWN_END	n/a	n/a	n/a	n/a	-999	16	[0, 0, 0]	n/a	catFR1	0	R1127P
2017.499	1.616	2031397	ORIENT	n/a	n/a	n/a	n/a	-999	16	[0, 0, 0]	n/a	catFR1	0	R1127P
2019.115	1.817	2033013	ORIENT_OFF	n/a	n/a	n/a	n/a	-999	16	[0, 0, 0]	n/a	catFR1	0	R1127P
2020.932	1.618	2034829	WORD	n/a	wordpools/wordpool_categorized_EN.txt	PEN	OfficeSupplies	1	16	[0, 0, 0]	n/a	catFR1	0	R1127P
2022.55	1.0	2036447	WORD_OFF	n/a	n/a	PEN	n/a	1	16	[0, 0, 0]	n/a	catFR1	0	R1127P
2023.55	1.616	2037447	WORD	n/a	wordpools/wordpool_categorized_EN.txt	RULER	OfficeSupplies	2	16	[0, 0, 0]	n/a	catFR1	0	R1127P
2025.166	0.95	2039063	WORD_OFF	n/a	n/a	RULER	n/a	2	16	[0, 0, 0]	n/a	catFR1	0	R1127P
2026.116	1.618	2040013	WORD	n/a	wordpools/wordpool_categorized_EN.txt	HICKORY	Trees	3	16	[0, 0, 0]	n/a	catFR1	0	R1127P
2027.734	0.767	2041631	WORD_OFF	n/a	n/a	HICKORY	n/a	3	16	[0, 0, 0]	n/a	catFR1	0	R1127P
2028.501	1.616	2042398	WORD	n/a	wordpools/wordpool_categorized_EN.txt	PINE	Trees	4	16	[0, 0, 0]	n/a	catFR1	0	R1127P
2030.117	1.0	2044014	WORD_OFF	n/a	n/a	PINE	n/a	4	16	[0, 0, 0]	n/a	catFR1	0	R1127P
2031.117	1.618	2045014	WORD	n/a	wordpools/wordpool_categorized_EN.txt	HUMIDITY	Weather	5	16	[0, 0, 0]	n/a	catFR1	0	R1127P
2032.735	0.9	2046632	WORD_OFF	n/a	n/a	HUMIDITY	n/a	5	16	[0, 0, 0]	n/a	catFR1	0	R1127P
2033.635	1.617	2047532	WORD	n/a	wordpools/wordpool_categorized_EN.txt	WIND	Weather	6	16	[0, 0, 0]	n/a	catFR1	0	R1127P
2035.252	0.95	2049149	WORD_OFF	n/a	n/a	WIND	n/a	6	16	[0, 0, 0]	n/a	catFR1	0	R1127P
2036.202	1.617	2050099	WORD	n/a	wordpools/wordpool_categorized_EN.txt	CYPRESS	Trees	7	16	[0, 0, 0]	n/a	catFR1	0	R1127P
2037.819	1.017	2051716	WORD_OFF	n/a	n/a	CYPRESS	n/a	7	16	[0, 0, 0]	n/a	catFR1	0	R1127P
2038.836	1.618	2052733	WORD	n/a	wordpools/wordpool_categorized_EN.txt	MAPLE	Trees	8	16	[0, 0, 0]	n/a	catFR1	0	R1127P
2040.454	0.916	2054350	WORD_OFF	n/a	n/a	MAPLE	n/a	8	16	[0, 0, 0]	n/a	catFR1	0	R1127P
2041.37	1.616	2055266	WORD	n/a	wordpools/wordpool_categorized_EN.txt	FOLDER	OfficeSupplies	9	16	[0, 0, 0]	n/a	catFR1	0	R1127P
2042.986	0.984	2056882	WORD_OFF	n/a	n/a	FOLDER	n/a	9	16	[0, 0, 0]	n/a	catFR1	0	R1127P
2043.97	1.618	2057866	WORD	n/a	wordpools/wordpool_categorized_EN.txt	PENCIL	OfficeSupplies	10	16	[0, 0, 0]	n/a	catFR1	0	R1127P
2045.588	1.0	2059484	WORD_OFF	n/a	n/a	PENCIL	n/a	10	16	[0, 0, 0]	n/a	catFR1	0	R1127P
2046.588	1.616	2060484	WORD	n/a	wordpools/wordpool_categorized_EN.txt	THUNDERSTORM	Weather	11	16	[0, 0, 0]	n/a	catFR1	0	R1127P
2048.204	0.984	2062100	WORD_OFF	n/a	n/a	THUNDERSTORM	n/a	11	16	[0, 0, 0]	n/a	catFR1	0	R1127P
2049.188	1.616	2063084	WORD	n/a	wordpools/wordpool_categorized_EN.txt	THUNDER	Weather	12	16	[0, 0, 0]	n/a	catFR1	0	R1127P
2050.804	0.001	2064700	WORD_OFF	n/a	n/a	THUNDER	n/a	12	16	[0, 0, 0]	n/a	catFR1	0	R1127P
2050.805	0.103	2064701	ENCODING_END	n/a	n/a	n/a	n/a	-999	16	[0, 0, 0]	n/a	catFR1	0	R1127P
2050.908	0.0	2064804	DISTRACT_START	n/a	n/a	n/a	n/a	-999	16	[0, 0, 0]	n/a	catFR1	0	R1127P
2050.908	0.013	2064804	START	n/a	n/a	n/a	n/a	-999	16	[-999, -999, -999]	n/a	catFR1	0	R1127P
2050.921	6.151	2064817	PROB	6.117	n/a	n/a	n/a	-999	16	[5, 8, 5]	18.0	catFR1	0	R1127P
2057.072	6.603	2070968	PROB	6.575	n/a	n/a	n/a	-999	16	[8, 7, 4]	19.0	catFR1	0	R1127P
2063.675	6.634	2077570	PROB	6.602	n/a	n/a	n/a	-999	16	[3, 6, 9]	18.0	catFR1	0	R1127P
2070.309	3.985	2084204	PROB	3.985	n/a	n/a	n/a	-999	16	[1, 8, 4]	13.0	catFR1	0	R1127P
2074.294	0.016	2088189	STOP	n/a	n/a	n/a	n/a	-999	16	[-999, -999, -999]	n/a	catFR1	0	R1127P
2074.31	0.632	2088205	DISTRACT_END	n/a	n/a	n/a	n/a	-999	16	[0, 0, 0]	n/a	catFR1	0	R1127P
2074.942	0.519	2088837	RETRIEVAL_ORIENT	n/a	n/a	n/a	n/a	-999	16	[0, 0, 0]	n/a	catFR1	0	R1127P
2075.461	0.61	2089356	REC_START	n/a	n/a	n/a	n/a	-999	16	[0, 0, 0]	n/a	catFR1	0	R1127P
2076.071	0.718	2089966	REC_WORD	0.61	n/a	PEN	OfficeSupplies	1	16	[0, 0, 0]	n/a	catFR1	0	R1127P
2076.789	0.73	2090684	REC_WORD	1.328	n/a	RULER	OfficeSupplies	2	16	[0, 0, 0]	n/a	catFR1	0	R1127P
2077.519	4.045	2091414	REC_WORD	2.058	n/a	HICKORY	Trees	3	16	[0, 0, 0]	n/a	catFR1	0	R1127P
2081.564	5.451	2095458	REC_WORD	6.103	n/a	FIND	n/a	-999	16	[0, 0, 0]	n/a	catFR1	0	R1127P
2087.015	18.458	2100909	REC_WORD	11.554	n/a	THUNDERSTORM	Weather	11	16	[0, 0, 0]	n/a	catFR1	0	R1127P
2105.473	4.409	2119366	REC_END	n/a	n/a	n/a	n/a	-999	16	[0, 0, 0]	n/a	catFR1	0	R1127P
2109.882	0.5	2123775	TRIAL	n/a	n/a	n/a	n/a	-999	17	[0, 0, 0]	n/a	catFR1	0	R1127P
2110.382	10.428	2124275	COUNTDOWN_START	n/a	n/a	n/a	n/a	-999	17	[0, 0, 0]	n/a	catFR1	0	R1127P
2120.81	0.008	2134702	COUNTDOWN_END	n/a	n/a	n/a	n/a	-999	17	[0, 0, 0]	n/a	catFR1	0	R1127P
2120.818	1.618	2134710	ORIENT	n/a	n/a	n/a	n/a	-999	17	[0, 0, 0]	n/a	catFR1	0	R1127P
2122.436	2.033	2136328	ORIENT_OFF	n/a	n/a	n/a	n/a	-999	17	[0, 0, 0]	n/a	catFR1	0	R1127P
2124.469	1.616	2138361	WORD	n/a	wordpools/wordpool_categorized_EN.txt	SAW	Tools	1	17	[0, 0, 0]	n/a	catFR1	0	R1127P
2126.085	0.967	2139977	WORD_OFF	n/a	n/a	SAW	n/a	1	17	[0, 0, 0]	n/a	catFR1	0	R1127P
2127.052	1.618	2140944	WORD	n/a	wordpools/wordpool_categorized_EN.txt	CROWBAR	Tools	2	17	[0, 0, 0]	n/a	catFR1	0	R1127P
2128.67	0.8	2142562	WORD_OFF	n/a	n/a	CROWBAR	n/a	2	17	[0, 0, 0]	n/a	catFR1	0	R1127P
2129.47	1.616	2143362	WORD	n/a	wordpools/wordpool_categorized_EN.txt	LOBSTER	OceanAnimals	3	17	[0, 0, 0]	n/a	catFR1	0	R1127P
2131.086	0.9	2144978	WORD_OFF	n/a	n/a	LOBSTER	n/a	3	17	[0, 0, 0]	n/a	catFR1	0	R1127P
2131.986	1.602	2145878	WORD	n/a	wordpools/wordpool_categorized_EN.txt	CRAB	OceanAnimals	4	17	[0, 0, 0]	n/a	catFR1	0	R1127P
2133.588	0.917	2147480	WORD_OFF	n/a	n/a	CRAB	n/a	4	17	[0, 0, 0]	n/a	catFR1	0	R1127P
2134.505	1.616	2148397	WORD	n/a	wordpools/wordpool_categorized_EN.txt	BANANA	Fruit	5	17	[0, 0, 0]	n/a	catFR1	0	R1127P
2136.121	0.866	2150013	WORD_OFF	n/a	n/a	BANANA	n/a	5	17	[0, 0, 0]	n/a	catFR1	0	R1127P
2136.987	1.618	2150879	WORD	n/a	wordpools/wordpool_categorized_EN.txt	BLUEBERRY	Fruit	6	17	[0, 0, 0]	n/a	catFR1	0	R1127P
2138.605	0.934	2152496	WORD_OFF	n/a	n/a	BLUEBERRY	n/a	6	17	[0, 0, 0]	n/a	catFR1	0	R1127P
2139.539	1.616	2153430	WORD	n/a	wordpools/wordpool_categorized_EN.txt	SQUID	OceanAnimals	7	17	[0, 0, 0]	n/a	catFR1	0	R1127P
2141.155	0.833	2155046	WORD_OFF	n/a	n/a	SQUID	n/a	7	17	[0, 0, 0]	n/a	catFR1	0	R1127P
2141.988	1.618	2155879	WORD	n/a	wordpools/wordpool_categorized_EN.txt	JELLYFISH	OceanAnimals	8	17	[0, 0, 0]	n/a	catFR1	0	R1127P
2143.606	0.817	2157497	WORD_OFF	n/a	n/a	JELLYFISH	n/a	8	17	[0, 0, 0]	n/a	catFR1	0	R1127P
2144.423	1.616	2158314	WORD	n/a	wordpools/wordpool_categorized_EN.txt	SANDER	Tools	9	17	[0, 0, 0]	n/a	catFR1	0	R1127P
2146.039	0.85	2159930	WORD_OFF	n/a	n/a	SANDER	n/a	9	17	[0, 0, 0]	n/a	catFR1	0	R1127P
2146.889	1.618	2160780	WORD	n/a	wordpools/wordpool_categorized_EN.txt	AXE	Tools	10	17	[0, 0, 0]	n/a	catFR1	0	R1127P
2148.507	1.0	2162398	WORD_OFF	n/a	n/a	AXE	n/a	10	17	[0, 0, 0]	n/a	catFR1	0	R1127P
2149.507	1.616	2163398	WORD	n/a	wordpools/wordpool_categorized_EN.txt	STRAWBERRY	Fruit	11	17	[0, 0, 0]	n/a	catFR1	0	R1127P
2151.123	0.967	2165014	WORD_OFF	n/a	n/a	STRAWBERRY	n/a	11	17	[0, 0, 0]	n/a	catFR1	0	R1127P
2152.09	1.601	2165981	WORD	n/a	wordpools/wordpool_categorized_EN.txt	GRAPE	Fruit	12	17	[0, 0, 0]	n/a	catFR1	0	R1127P
2153.691	0.001	2167582	WORD_OFF	n/a	n/a	GRAPE	n/a	12	17	[0, 0, 0]	n/a	catFR1	0	R1127P
2153.692	0.102	2167583	ENCODING_END	n/a	n/a	n/a	n/a	-999	17	[0, 0, 0]	n/a	catFR1	0	R1127P
2153.794	0.0	2167685	DISTRACT_START	n/a	n/a	n/a	n/a	-999	17	[0, 0, 0]	n/a	catFR1	0	R1127P
2153.794	0.013	2167685	START	n/a	n/a	n/a	n/a	-999	17	[-999, -999, -999]	n/a	catFR1	0	R1127P
2153.807	4.251	2167698	PROB	4.222	n/a	n/a	n/a	-999	17	[1, 2, 9]	12.0	catFR1	0	R1127P
2158.058	4.684	2171948	PROB	4.653	n/a	n/a	n/a	-999	17	[9, 5, 1]	16.0	catFR1	0	R1127P
2162.742	2.918	2176632	PROB	2.88	n/a	n/a	n/a	-999	17	[8, 1, 8]	17.0	catFR1	0	R1127P
2165.66	2.383	2179550	PROB	2.345	n/a	n/a	n/a	-999	17	[4, 2, 1]	7.0	catFR1	0	R1127P
2168.043	3.319	2181933	PROB	3.291	n/a	n/a	n/a	-999	17	[5, 4, 2]	11.0	catFR1	0	R1127P
2171.362	5.627	2185252	PROB	5.627	n/a	n/a	n/a	-999	17	[5, 4, 8]	17.0	catFR1	0	R1127P
2176.989	0.023	2190878	STOP	n/a	n/a	n/a	n/a	-999	17	[-999, -999, -999]	n/a	catFR1	0	R1127P
2177.012	0.551	2190901	DISTRACT_END	n/a	n/a	n/a	n/a	-999	17	[0, 0, 0]	n/a	catFR1	0	R1127P
2177.563	0.516	2191452	RETRIEVAL_ORIENT	n/a	n/a	n/a	n/a	-999	17	[0, 0, 0]	n/a	catFR1	0	R1127P
2178.079	0.865	2191968	REC_START	n/a	n/a	n/a	n/a	-999	17	[0, 0, 0]	n/a	catFR1	0	R1127P
2178.944	1.029	2192833	REC_WORD	0.865	n/a	STRAWBERRY	Fruit	11	17	[0, 0, 0]	n/a	catFR1	0	R1127P
2179.973	1.377	2193862	REC_WORD	1.894	n/a	CROWBAR	Tools	2	17	[0, 0, 0]	n/a	catFR1	0	R1127P
2181.35	17.406	2195239	REC_WORD	3.271	n/a	GRAPE	Fruit	12	17	[0, 0, 0]	n/a	catFR1	0	R1127P
2198.756	9.336	2212644	REC_WORD	20.677	n/a	EAT	n/a	-999	17	[0, 0, 0]	n/a	catFR1	0	R1127P
2208.092	4.377	2221980	REC_END	n/a	n/a	n/a	n/a	-999	17	[0, 0, 0]	n/a	catFR1	0	R1127P
2212.469	0.5	2226357	TRIAL	n/a	n/a	n/a	n/a	-999	18	[0, 0, 0]	n/a	catFR1	0	R1127P
2212.969	10.428	2226857	COUNTDOWN_START	n/a	n/a	n/a	n/a	-999	18	[0, 0, 0]	n/a	catFR1	0	R1127P
2223.397	0.008	2237284	COUNTDOWN_END	n/a	n/a	n/a	n/a	-999	18	[0, 0, 0]	n/a	catFR1	0	R1127P
2223.405	1.616	2237292	ORIENT	n/a	n/a	n/a	n/a	-999	18	[0, 0, 0]	n/a	catFR1	0	R1127P
2225.021	2.334	2238908	ORIENT_OFF	n/a	n/a	n/a	n/a	-999	18	[0, 0, 0]	n/a	catFR1	0	R1127P
2227.355	1.616	2241242	WORD	n/a	wordpools/wordpool_categorized_EN.txt	BINDER	OfficeSupplies	1	18	[0, 0, 0]	n/a	catFR1	0	R1127P
2228.971	0.768	2242858	WORD_OFF	n/a	n/a	BINDER	n/a	1	18	[0, 0, 0]	n/a	catFR1	0	R1127P
2229.739	1.617	2243626	WORD	n/a	wordpools/wordpool_categorized_EN.txt	PAPER	OfficeSupplies	2	18	[0, 0, 0]	n/a	catFR1	0	R1127P
2231.356	0.916	2245243	WORD_OFF	n/a	n/a	PAPER	n/a	2	18	[0, 0, 0]	n/a	catFR1	0	R1127P
2232.272	1.617	2246159	WORD	n/a	wordpools/wordpool_categorized_EN.txt	JACKET	Clothing	3	18	[0, 0, 0]	n/a	catFR1	0	R1127P
2233.889	0.851	2247776	WORD_OFF	n/a	n/a	JACKET	n/a	3	18	[0, 0, 0]	n/a	catFR1	0	R1127P
2234.74	1.617	2248626	WORD	n/a	wordpools/wordpool_categorized_EN.txt	SHIRT	Clothing	4	18	[0, 0, 0]	n/a	catFR1	0	R1127P
2236.357	0.933	2250243	WORD_OFF	n/a	n/a	SHIRT	n/a	4	18	[0, 0, 0]	n/a	catFR1	0	R1127P
2237.29	1.617	2251176	WORD	n/a	wordpools/wordpool_categorized_EN.txt	FOOT	BodyParts	5	18	[0, 0, 0]	n/a	catFR1	0	R1127P
2238.907	0.883	2252793	WORD_OFF	n/a	n/a	FOOT	n/a	5	18	[0, 0, 0]	n/a	catFR1	0	R1127P
2239.79	1.601	2253676	WORD	n/a	wordpools/wordpool_categorized_EN.txt	TOE	BodyParts	6	18	[0, 0, 0]	n/a	catFR1	0	R1127P
2241.391	0.866	2255277	WORD_OFF	n/a	n/a	TOE	n/a	6	18	[0, 0, 0]	n/a	catFR1	0	R1127P
2242.257	1.617	2256143	WORD	n/a	wordpools/wordpool_categorized_EN.txt	NOTEBOOK	OfficeSupplies	7	18	[0, 0, 0]	n/a	catFR1	0	R1127P
2243.874	1.0	2257760	WORD_OFF	n/a	n/a	NOTEBOOK	n/a	7	18	[0, 0, 0]	n/a	catFR1	0	R1127P
2244.874	1.618	2258760	WORD	n/a	wordpools/wordpool_categorized_EN.txt	TAPE	OfficeSupplies	8	18	[0, 0, 0]	n/a	catFR1	0	R1127P
2246.492	0.934	2260378	WORD_OFF	n/a	n/a	TAPE	n/a	8	18	[0, 0, 0]	n/a	catFR1	0	R1127P
2247.426	1.616	2261312	WORD	n/a	wordpools/wordpool_categorized_EN.txt	SHOES	Clothing	9	18	[0, 0, 0]	n/a	catFR1	0	R1127P
2249.042	0.933	2262928	WORD_OFF	n/a	n/a	SHOES	n/a	9	18	[0, 0, 0]	n/a	catFR1	0	R1127P
2249.975	1.601	2263861	WORD	n/a	wordpools/wordpool_categorized_EN.txt	PANTS	Clothing	10	18	[0, 0, 0]	n/a	catFR1	0	R1127P
2251.576	0.951	2265462	WORD_OFF	n/a	n/a	PANTS	n/a	10	18	[0, 0, 0]	n/a	catFR1	0	R1127P
2252.527	1.616	2266413	WORD	n/a	wordpools/wordpool_categorized_EN.txt	HEAD	BodyParts	11	18	[0, 0, 0]	n/a	catFR1	0	R1127P
2254.143	0.983	2268028	WORD_OFF	n/a	n/a	HEAD	n/a	11	18	[0, 0, 0]	n/a	catFR1	0	R1127P
2255.126	1.617	2269011	WORD	n/a	wordpools/wordpool_categorized_EN.txt	NOSE	BodyParts	12	18	[0, 0, 0]	n/a	catFR1	0	R1127P
2256.743	0.001	2270628	WORD_OFF	n/a	n/a	NOSE	n/a	12	18	[0, 0, 0]	n/a	catFR1	0	R1127P
2256.744	0.136	2270629	ENCODING_END	n/a	n/a	n/a	n/a	-999	18	[0, 0, 0]	n/a	catFR1	0	R1127P
2256.88	0.0	2270765	DISTRACT_START	n/a	n/a	n/a	n/a	-999	18	[0, 0, 0]	n/a	catFR1	0	R1127P
2256.88	0.013	2270765	START	n/a	n/a	n/a	n/a	-999	18	[-999, -999, -999]	n/a	catFR1	0	R1127P
2256.893	5.385	2270778	PROB	5.353	n/a	n/a	n/a	-999	18	[5, 6, 6]	17.0	catFR1	0	R1127P
2262.278	3.867	2276163	PROB	3.84	n/a	n/a	n/a	-999	18	[3, 1, 8]	12.0	catFR1	0	R1127P
2266.145	5.684	2280030	PROB	5.66	n/a	n/a	n/a	-999	18	[6, 6, 9]	21.0	catFR1	0	R1127P
2271.829	9.913	2285714	PROB	9.913	n/a	n/a	n/a	-999	18	[5, 9, 8]	35.0	catFR1	0	R1127P
2281.742	0.006	2295626	STOP	n/a	n/a	n/a	n/a	-999	18	[-999, -999, -999]	n/a	catFR1	0	R1127P
2281.748	0.568	2295632	DISTRACT_END	n/a	n/a	n/a	n/a	-999	18	[0, 0, 0]	n/a	catFR1	0	R1127P
2282.316	0.516	2296200	RETRIEVAL_ORIENT	n/a	n/a	n/a	n/a	-999	18	[0, 0, 0]	n/a	catFR1	0	R1127P
2282.832	1.645	2296716	REC_START	n/a	n/a	n/a	n/a	-999	18	[0, 0, 0]	n/a	catFR1	0	R1127P
2284.477	3.16	2298361	REC_WORD	1.645	n/a	BINDER	OfficeSupplies	1	18	[0, 0, 0]	n/a	catFR1	0	R1127P
2287.637	0.539	2301521	REC_WORD	4.805	n/a	BINDER	OfficeSupplies	1	18	[0, 0, 0]	n/a	catFR1	0	R1127P
2288.176	6.336	2302060	REC_WORD	5.344	n/a	TOTES	n/a	-999	18	[0, 0, 0]	n/a	catFR1	0	R1127P
2294.512	0.668	2308395	REC_WORD_VV	11.68	n/a	<>	n/a	-999	18	[0, 0, 0]	n/a	catFR1	0	R1127P
2295.18	4.378	2309063	REC_WORD_VV	12.348	n/a	<>	n/a	-999	18	[0, 0, 0]	n/a	catFR1	0	R1127P
2299.558	0.836	2313441	REC_WORD_VV	16.726	n/a	<>	n/a	-999	18	[0, 0, 0]	n/a	catFR1	0	R1127P
2300.394	0.357	2314277	REC_WORD_VV	17.562	n/a	<>	n/a	-999	18	[0, 0, 0]	n/a	catFR1	0	R1127P
2300.751	12.094	2314634	REC_WORD	17.919	n/a	EGG	n/a	-999	18	[0, 0, 0]	n/a	catFR1	0	R1127P
2312.845	4.477	2326727	REC_END	n/a	n/a	n/a	n/a	-999	18	[0, 0, 0]	n/a	catFR1	0	R1127P
2317.322	0.5	2331204	TRIAL	n/a	n/a	n/a	n/a	-999	19	[0, 0, 0]	n/a	catFR1	0	R1127P
2317.822	10.428	2331704	COUNTDOWN_START	n/a	n/a	n/a	n/a	-999	19	[0, 0, 0]	n/a	catFR1	0	R1127P
2328.25	0.007	2342132	COUNTDOWN_END	n/a	n/a	n/a	n/a	-999	19	[0, 0, 0]	n/a	catFR1	0	R1127P
2328.257	1.617	2342139	ORIENT	n/a	n/a	n/a	n/a	-999	19	[0, 0, 0]	n/a	catFR1	0	R1127P
2329.874	2.167	2343756	ORIENT_OFF	n/a	n/a	n/a	n/a	-999	19	[0, 0, 0]	n/a	catFR1	0	R1127P
2332.041	1.618	2345922	WORD	n/a	wordpools/wordpool_categorized_EN.txt	TURKEY	FarmAnimals	1	19	[0, 0, 0]	n/a	catFR1	0	R1127P
2333.659	0.8	2347540	WORD_OFF	n/a	n/a	TURKEY	n/a	1	19	[0, 0, 0]	n/a	catFR1	0	R1127P
2334.459	1.616	2348340	WORD	n/a	wordpools/wordpool_categorized_EN.txt	LAMB	FarmAnimals	2	19	[0, 0, 0]	n/a	catFR1	0	R1127P
2336.075	1.0	2349956	WORD_OFF	n/a	n/a	LAMB	n/a	2	19	[0, 0, 0]	n/a	catFR1	0	R1127P
2337.075	1.601	2350956	WORD	n/a	wordpools/wordpool_categorized_EN.txt	COMPUTER	Electronics	3	19	[0, 0, 0]	n/a	catFR1	0	R1127P
2338.676	0.851	2352557	WORD_OFF	n/a	n/a	COMPUTER	n/a	3	19	[0, 0, 0]	n/a	catFR1	0	R1127P
2339.527	1.616	2353408	WORD	n/a	wordpools/wordpool_categorized_EN.txt	HEADPHONES	Electronics	4	19	[0, 0, 0]	n/a	catFR1	0	R1127P
2341.143	0.9	2355024	WORD_OFF	n/a	n/a	HEADPHONES	n/a	4	19	[0, 0, 0]	n/a	catFR1	0	R1127P
2342.043	1.618	2355924	WORD	n/a	wordpools/wordpool_categorized_EN.txt	GRATER	KitchenTools	5	19	[0, 0, 0]	n/a	catFR1	0	R1127P
2343.661	0.95	2357542	WORD_OFF	n/a	n/a	GRATER	n/a	5	19	[0, 0, 0]	n/a	catFR1	0	R1127P
2344.611	1.616	2358492	WORD	n/a	wordpools/wordpool_categorized_EN.txt	COLANDER	KitchenTools	6	19	[0, 0, 0]	n/a	catFR1	0	R1127P
2346.227	0.883	2360108	WORD_OFF	n/a	n/a	COLANDER	n/a	6	19	[0, 0, 0]	n/a	catFR1	0	R1127P
2347.11	1.601	2360991	WORD	n/a	wordpools/wordpool_categorized_EN.txt	STEREO	Electronics	7	19	[0, 0, 0]	n/a	catFR1	0	R1127P
2348.711	0.834	2362592	WORD_OFF	n/a	n/a	STEREO	n/a	7	19	[0, 0, 0]	n/a	catFR1	0	R1127P
2349.545	1.616	2363426	WORD	n/a	wordpools/wordpool_categorized_EN.txt	PHONE	Electronics	8	19	[0, 0, 0]	n/a	catFR1	0	R1127P
2351.161	0.867	2365041	WORD_OFF	n/a	n/a	PHONE	n/a	8	19	[0, 0, 0]	n/a	catFR1	0	R1127P
2352.028	1.618	2365908	WORD	n/a	wordpools/wordpool_categorized_EN.txt	HEN	FarmAnimals	9	19	[0, 0, 0]	n/a	catFR1	0	R1127P
2353.646	0.917	2367526	WORD_OFF	n/a	n/a	HEN	n/a	9	19	[0, 0, 0]	n/a	catFR1	0	R1127P
2354.563	1.616	2368443	WORD	n/a	wordpools/wordpool_categorized_EN.txt	BULL	FarmAnimals	10	19	[0, 0, 0]	n/a	catFR1	0	R1127P
2356.179	0.933	2370059	WORD_OFF	n/a	n/a	BULL	n/a	10	19	[0, 0, 0]	n/a	catFR1	0	R1127P
2357.112	1.618	2370992	WORD	n/a	wordpools/wordpool_categorized_EN.txt	PEELER	KitchenTools	11	19	[0, 0, 0]	n/a	catFR1	0	R1127P
2358.73	0.784	2372610	WORD_OFF	n/a	n/a	PEELER	n/a	11	19	[0, 0, 0]	n/a	catFR1	0	R1127P
2359.514	1.616	2373394	WORD	n/a	wordpools/wordpool_categorized_EN.txt	KNIFE	KitchenTools	12	19	[0, 0, 0]	n/a	catFR1	0	R1127P
2361.13	0.0	2375010	ENCODING_END	n/a	n/a	n/a	n/a	-999	19	[0, 0, 0]	n/a	catFR1	0	R1127P
2361.13	0.104	2375010	WORD_OFF	n/a	n/a	KNIFE	n/a	12	19	[0, 0, 0]	n/a	catFR1	0	R1127P
2361.234	0.0	2375114	DISTRACT_START	n/a	n/a	n/a	n/a	-999	19	[0, 0, 0]	n/a	catFR1	0	R1127P
2361.234	0.012	2375114	START	n/a	n/a	n/a	n/a	-999	19	[-999, -999, -999]	n/a	catFR1	0	R1127P
2361.246	6.186	2375126	PROB	6.152	n/a	n/a	n/a	-999	19	[5, 9, 4]	18.0	catFR1	0	R1127P
2367.432	6.251	2381312	PROB	6.222	n/a	n/a	n/a	-999	19	[7, 5, 8]	20.0	catFR1	0	R1127P
2373.683	5.001	2387562	PROB	4.971	n/a	n/a	n/a	-999	19	[4, 9, 1]	14.0	catFR1	0	R1127P
2378.684	2.955	2392563	PROB	2.955	n/a	n/a	n/a	-999	19	[2, 2, 8]	12.0	catFR1	0	R1127P
2381.639	0.013	2395518	STOP	n/a	n/a	n/a	n/a	-999	19	[-999, -999, -999]	n/a	catFR1	0	R1127P
2381.652	0.548	2395531	DISTRACT_END	n/a	n/a	n/a	n/a	-999	19	[0, 0, 0]	n/a	catFR1	0	R1127P
2382.2	0.519	2396079	RETRIEVAL_ORIENT	n/a	n/a	n/a	n/a	-999	19	[0, 0, 0]	n/a	catFR1	0	R1127P
2382.719	2.419	2396598	REC_START	n/a	n/a	n/a	n/a	-999	19	[0, 0, 0]	n/a	catFR1	0	R1127P
2385.138	2.23	2399017	REC_WORD	2.419	n/a	TUR	n/a	-999	19	[0, 0, 0]	n/a	catFR1	0	R1127P
2387.368	10.592	2401247	REC_WORD	4.649	n/a	CAMERA	n/a	-999	19	[0, 0, 0]	n/a	catFR1	0	R1127P
2397.96	3.09	2411838	REC_WORD_VV	15.241	n/a	<>	n/a	-999	19	[0, 0, 0]	n/a	catFR1	0	R1127P
2401.05	11.68	2414928	REC_WORD_VV	18.331	n/a	<>	n/a	-999	19	[0, 0, 0]	n/a	catFR1	0	R1127P
2412.73	4.978	2426607	REC_END	n/a	n/a	n/a	n/a	-999	19	[0, 0, 0]	n/a	catFR1	0	R1127P
2417.708	0.5	2431585	TRIAL	n/a	n/a	n/a	n/a	-999	20	[0, 0, 0]	n/a	catFR1	0	R1127P
2418.208	10.428	2432085	COUNTDOWN_START	n/a	n/a	n/a	n/a	-999	20	[0, 0, 0]	n/a	catFR1	0	R1127P
2428.636	0.007	2442512	COUNTDOWN_END	n/a	n/a	n/a	n/a	-999	20	[0, 0, 0]	n/a	catFR1	0	R1127P
2428.643	1.616	2442519	ORIENT	n/a	n/a	n/a	n/a	-999	20	[0, 0, 0]	n/a	catFR1	0	R1127P
2430.259	2.001	2444135	ORIENT_OFF	n/a	n/a	n/a	n/a	-999	20	[0, 0, 0]	n/a	catFR1	0	R1127P
2432.26	1.617	2446136	WORD	n/a	wordpools/wordpool_categorized_EN.txt	ELBOW	BodyParts	1	20	[0, 0, 0]	n/a	catFR1	0	R1127P
2433.877	0.801	2447753	WORD_OFF	n/a	n/a	ELBOW	n/a	1	20	[0, 0, 0]	n/a	catFR1	0	R1127P
2434.678	1.616	2448554	WORD	n/a	wordpools/wordpool_categorized_EN.txt	LEG	BodyParts	2	20	[0, 0, 0]	n/a	catFR1	0	R1127P
2436.294	0.833	2450170	WORD_OFF	n/a	n/a	LEG	n/a	2	20	[0, 0, 0]	n/a	catFR1	0	R1127P
2437.127	1.617	2451003	WORD	n/a	wordpools/wordpool_categorized_EN.txt	HURRICANE	Weather	3	20	[0, 0, 0]	n/a	catFR1	0	R1127P
2438.744	0.768	2452620	WORD_OFF	n/a	n/a	HURRICANE	n/a	3	20	[0, 0, 0]	n/a	catFR1	0	R1127P
2439.512	1.616	2453388	WORD	n/a	wordpools/wordpool_categorized_EN.txt	TORNADO	Weather	4	20	[0, 0, 0]	n/a	catFR1	0	R1127P
2441.128	0.867	2455004	WORD_OFF	n/a	n/a	TORNADO	n/a	4	20	[0, 0, 0]	n/a	catFR1	0	R1127P
2441.995	1.618	2455871	WORD	n/a	wordpools/wordpool_categorized_EN.txt	DISHWASHER	Appliances	5	20	[0, 0, 0]	n/a	catFR1	0	R1127P
2443.613	0.867	2457489	WORD_OFF	n/a	n/a	DISHWASHER	n/a	5	20	[0, 0, 0]	n/a	catFR1	0	R1127P
2444.48	1.616	2458356	WORD	n/a	wordpools/wordpool_categorized_EN.txt	REFRIGERATOR	Appliances	6	20	[0, 0, 0]	n/a	catFR1	0	R1127P
2446.096	0.983	2459972	WORD_OFF	n/a	n/a	REFRIGERATOR	n/a	6	20	[0, 0, 0]	n/a	catFR1	0	R1127P
2447.079	1.602	2460955	WORD	n/a	wordpools/wordpool_categorized_EN.txt	FINGERS	BodyParts	7	20	[0, 0, 0]	n/a	catFR1	0	R1127P
2448.681	0.883	2462556	WORD_OFF	n/a	n/a	FINGERS	n/a	7	20	[0, 0, 0]	n/a	catFR1	0	R1127P
2449.564	1.616	2463439	WORD	n/a	wordpools/wordpool_categorized_EN.txt	ARM	BodyParts	8	20	[0, 0, 0]	n/a	catFR1	0	R1127P
2451.18	0.834	2465055	WORD_OFF	n/a	n/a	ARM	n/a	8	20	[0, 0, 0]	n/a	catFR1	0	R1127P
2452.014	1.618	2465889	WORD	n/a	wordpools/wordpool_categorized_EN.txt	DRIZZLE	Weather	9	20	[0, 0, 0]	n/a	catFR1	0	R1127P
2453.632	0.933	2467507	WORD_OFF	n/a	n/a	DRIZZLE	n/a	9	20	[0, 0, 0]	n/a	catFR1	0	R1127P
2454.565	1.616	2468440	WORD	n/a	wordpools/wordpool_categorized_EN.txt	RAIN	Weather	10	20	[0, 0, 0]	n/a	catFR1	0	R1127P
2456.181	0.917	2470056	WORD_OFF	n/a	n/a	RAIN	n/a	10	20	[0, 0, 0]	n/a	catFR1	0	R1127P
2457.098	1.618	2470973	WORD	n/a	wordpools/wordpool_categorized_EN.txt	DRYER	Appliances	11	20	[0, 0, 0]	n/a	catFR1	0	R1127P
2458.716	0.783	2472591	WORD_OFF	n/a	n/a	DRYER	n/a	11	20	[0, 0, 0]	n/a	catFR1	0	R1127P
2459.499	1.616	2473374	WORD	n/a	wordpools/wordpool_categorized_EN.txt	VACUUM	Appliances	12	20	[0, 0, 0]	n/a	catFR1	0	R1127P
2461.115	0.0	2474990	ENCODING_END	n/a	n/a	n/a	n/a	-999	20	[0, 0, 0]	n/a	catFR1	0	R1127P
2461.115	0.103	2474990	WORD_OFF	n/a	n/a	VACUUM	n/a	12	20	[0, 0, 0]	n/a	catFR1	0	R1127P
2461.218	0.0	2475093	DISTRACT_START	n/a	n/a	n/a	n/a	-999	20	[0, 0, 0]	n/a	catFR1	0	R1127P
2461.218	0.014	2475093	START	n/a	n/a	n/a	n/a	-999	20	[-999, -999, -999]	n/a	catFR1	0	R1127P
2461.232	7.386	2475107	PROB	7.358	n/a	n/a	n/a	-999	20	[6, 7, 6]	18.0	catFR1	0	R1127P
2468.618	3.85	2482492	PROB	3.827	n/a	n/a	n/a	-999	20	[9, 2, 9]	20.0	catFR1	0	R1127P
2472.468	4.4	2486342	PROB	4.37	n/a	n/a	n/a	-999	20	[3, 8, 2]	12.0	catFR1	0	R1127P
2476.868	9.443	2490742	PROB	9.443	n/a	n/a	n/a	-999	20	[6, 7, 5]	20.0	catFR1	0	R1127P
2486.311	0.01	2500184	STOP	n/a	n/a	n/a	n/a	-999	20	[-999, -999, -999]	n/a	catFR1	0	R1127P
2486.321	0.582	2500194	DISTRACT_END	n/a	n/a	n/a	n/a	-999	20	[0, 0, 0]	n/a	catFR1	0	R1127P
2486.903	0.519	2500776	RETRIEVAL_ORIENT	n/a	n/a	n/a	n/a	-999	20	[0, 0, 0]	n/a	catFR1	0	R1127P
2487.422	3.427	2501295	REC_START	n/a	n/a	n/a	n/a	-999	20	[0, 0, 0]	n/a	catFR1	0	R1127P
2490.849	1.161	2504722	REC_WORD	3.427	n/a	A	n/a	-999	20	[0, 0, 0]	n/a	catFR1	0	R1127P
2492.01	0.567	2505883	REC_WORD	4.588	n/a	A	n/a	-999	20	[0, 0, 0]	n/a	catFR1	0	R1127P
2492.577	1.069	2506450	REC_WORD	5.155	n/a	ARM	BodyParts	8	20	[0, 0, 0]	n/a	catFR1	0	R1127P
2493.646	8.493	2507519	REC_WORD_VV	6.224	n/a	<>	n/a	-999	20	[0, 0, 0]	n/a	catFR1	0	R1127P
2502.139	2.093	2516012	REC_WORD	14.717	n/a	LIGHTS	n/a	-999	20	[0, 0, 0]	n/a	catFR1	0	R1127P
2504.232	2.935	2518105	REC_WORD	16.81	n/a	STRAWBERRY	n/a	-999	20	[0, 0, 0]	n/a	catFR1	0	R1127P
2507.167	0.341	2521039	REC_WORD_VV	19.745	n/a	<>	n/a	-999	20	[0, 0, 0]	n/a	catFR1	0	R1127P
2507.508	2.577	2521380	REC_WORD_VV	20.086	n/a	<>	n/a	-999	20	[0, 0, 0]	n/a	catFR1	0	R1127P
2510.085	5.5	2523957	REC_WORD	22.663	n/a	LOGAN	n/a	-999	20	[0, 0, 0]	n/a	catFR1	0	R1127P
2515.585	1.848	2529457	REC_WORD_VV	28.163	n/a	<>	n/a	-999	20	[0, 0, 0]	n/a	catFR1	0	R1127P
2517.433	7.929	2531305	REC_END	n/a	n/a	n/a	n/a	-999	20	[0, 0, 0]	n/a	catFR1	0	R1127P
2525.362	0.5	2539233	TRIAL	n/a	n/a	n/a	n/a	-999	21	[0, 0, 0]	n/a	catFR1	0	R1127P
2525.862	10.428	2539733	COUNTDOWN_START	n/a	n/a	n/a	n/a	-999	21	[0, 0, 0]	n/a	catFR1	0	R1127P
2536.29	0.006	2550161	COUNTDOWN_END	n/a	n/a	n/a	n/a	-999	21	[0, 0, 0]	n/a	catFR1	0	R1127P
2536.296	1.617	2550167	ORIENT	n/a	n/a	n/a	n/a	-999	21	[0, 0, 0]	n/a	catFR1	0	R1127P
2537.913	2.151	2551784	ORIENT_OFF	n/a	n/a	n/a	n/a	-999	21	[0, 0, 0]	n/a	catFR1	0	R1127P
2540.064	1.618	2553935	WORD	n/a	wordpools/wordpool_categorized_EN.txt	PIANO	Instruments	1	21	[0, 0, 0]	n/a	catFR1	0	R1127P
2541.682	0.866	2555553	WORD_OFF	n/a	n/a	PIANO	n/a	1	21	[0, 0, 0]	n/a	catFR1	0	R1127P
2542.548	1.616	2556419	WORD	n/a	wordpools/wordpool_categorized_EN.txt	TROMBONE	Instruments	2	21	[0, 0, 0]	n/a	catFR1	0	R1127P
2544.164	0.817	2558035	WORD_OFF	n/a	n/a	TROMBONE	n/a	2	21	[0, 0, 0]	n/a	catFR1	0	R1127P
2544.981	1.618	2558851	WORD	n/a	wordpools/wordpool_categorized_EN.txt	TURTLE	OceanAnimals	3	21	[0, 0, 0]	n/a	catFR1	0	R1127P
2546.599	0.8	2560469	WORD_OFF	n/a	n/a	TURTLE	n/a	3	21	[0, 0, 0]	n/a	catFR1	0	R1127P
2547.399	1.616	2561269	WORD	n/a	wordpools/wordpool_categorized_EN.txt	SHRIMP	OceanAnimals	4	21	[0, 0, 0]	n/a	catFR1	0	R1127P
2549.015	1.017	2562885	WORD_OFF	n/a	n/a	SHRIMP	n/a	4	21	[0, 0, 0]	n/a	catFR1	0	R1127P
2550.032	1.618	2563902	WORD	n/a	wordpools/wordpool_categorized_EN.txt	CAR	Vehicles	5	21	[0, 0, 0]	n/a	catFR1	0	R1127P
2551.65	0.8	2565520	WORD_OFF	n/a	n/a	CAR	n/a	5	21	[0, 0, 0]	n/a	catFR1	0	R1127P
2552.45	1.616	2566320	WORD	n/a	wordpools/wordpool_categorized_EN.txt	MOTORCYCLE	Vehicles	6	21	[0, 0, 0]	n/a	catFR1	0	R1127P
2554.066	0.934	2567936	WORD_OFF	n/a	n/a	MOTORCYCLE	n/a	6	21	[0, 0, 0]	n/a	catFR1	0	R1127P
2555.0	1.618	2568870	WORD	n/a	wordpools/wordpool_categorized_EN.txt	CELLO	Instruments	7	21	[0, 0, 0]	n/a	catFR1	0	R1127P
2556.618	0.933	2570488	WORD_OFF	n/a	n/a	CELLO	n/a	7	21	[0, 0, 0]	n/a	catFR1	0	R1127P
2557.551	1.616	2571421	WORD	n/a	wordpools/wordpool_categorized_EN.txt	VIOLIN	Instruments	8	21	[0, 0, 0]	n/a	catFR1	0	R1127P
2559.167	0.95	2573037	WORD_OFF	n/a	n/a	VIOLIN	n/a	8	21	[0, 0, 0]	n/a	catFR1	0	R1127P
2560.117	1.618	2573987	WORD	n/a	wordpools/wordpool_categorized_EN.txt	PLANKTON	OceanAnimals	9	21	[0, 0, 0]	n/a	catFR1	0	R1127P
2561.735	0.917	2575605	WORD_OFF	n/a	n/a	PLANKTON	n/a	9	21	[0, 0, 0]	n/a	catFR1	0	R1127P
2562.652	1.616	2576522	WORD	n/a	wordpools/wordpool_categorized_EN.txt	FISH	OceanAnimals	10	21	[0, 0, 0]	n/a	catFR1	0	R1127P
2564.268	0.9	2578137	WORD_OFF	n/a	n/a	FISH	n/a	10	21	[0, 0, 0]	n/a	catFR1	0	R1127P
2565.168	1.617	2579037	WORD	n/a	wordpools/wordpool_categorized_EN.txt	BOAT	Vehicles	11	21	[0, 0, 0]	n/a	catFR1	0	R1127P
2566.785	0.868	2580654	WORD_OFF	n/a	n/a	BOAT	n/a	11	21	[0, 0, 0]	n/a	catFR1	0	R1127P
2567.653	1.616	2581522	WORD	n/a	wordpools/wordpool_categorized_EN.txt	SCOOTER	Vehicles	12	21	[0, 0, 0]	n/a	catFR1	0	R1127P
2569.269	0.001	2583138	WORD_OFF	n/a	n/a	SCOOTER	n/a	12	21	[0, 0, 0]	n/a	catFR1	0	R1127P
2569.27	0.139	2583139	ENCODING_END	n/a	n/a	n/a	n/a	-999	21	[0, 0, 0]	n/a	catFR1	0	R1127P
2569.409	0.0	2583278	DISTRACT_START	n/a	n/a	n/a	n/a	-999	21	[0, 0, 0]	n/a	catFR1	0	R1127P
2569.409	0.011	2583278	START	n/a	n/a	n/a	n/a	-999	21	[-999, -999, -999]	n/a	catFR1	0	R1127P
2569.42	4.617	2583289	PROB	4.594	n/a	n/a	n/a	-999	21	[2, 1, 3]	5.0	catFR1	0	R1127P
2574.037	3.784	2587906	PROB	3.761	n/a	n/a	n/a	-999	21	[3, 4, 1]	8.0	catFR1	0	R1127P
2577.821	5.284	2591690	PROB	5.256	n/a	n/a	n/a	-999	21	[7, 9, 1]	15.0	catFR1	0	R1127P
2583.105	4.469	2596973	PROB	4.438	n/a	n/a	n/a	-999	21	[3, 2, 8]	13.0	catFR1	0	R1127P
2587.574	3.608	2601442	PROB	3.608	n/a	n/a	n/a	-999	21	[1, 1, 8]	10.0	catFR1	0	R1127P
2591.182	0.008	2605050	STOP	n/a	n/a	n/a	n/a	-999	21	[-999, -999, -999]	n/a	catFR1	0	R1127P
2591.19	0.551	2605058	DISTRACT_END	n/a	n/a	n/a	n/a	-999	21	[0, 0, 0]	n/a	catFR1	0	R1127P
2591.741	0.516	2605609	RETRIEVAL_ORIENT	n/a	n/a	n/a	n/a	-999	21	[0, 0, 0]	n/a	catFR1	0	R1127P
2592.257	1.192	2606125	REC_START	n/a	n/a	n/a	n/a	-999	21	[0, 0, 0]	n/a	catFR1	0	R1127P
2593.449	0.546	2607317	REC_WORD	1.192	n/a	HAND	n/a	-999	21	[0, 0, 0]	n/a	catFR1	0	R1127P
2593.995	1.361	2607863	REC_WORD	1.738	n/a	TROMBONE	Instruments	2	21	[0, 0, 0]	n/a	catFR1	0	R1127P
2595.356	1.91	2609224	REC_WORD_VV	3.099	n/a	<>	n/a	-999	21	[0, 0, 0]	n/a	catFR1	0	R1127P
2597.266	5.567	2611134	REC_WORD	5.009	n/a	SIGHT	n/a	-999	21	[0, 0, 0]	n/a	catFR1	0	R1127P
2602.833	16.868	2616700	REC_WORD	10.576	n/a	FRIGHT	n/a	-999	21	[0, 0, 0]	n/a	catFR1	0	R1127P
2619.701	1.456	2633568	REC_WORD_VV	27.444	n/a	<>	n/a	-999	21	[0, 0, 0]	n/a	catFR1	0	R1127P
2621.157	1.11	2635024	REC_WORD_VV	28.9	n/a	<>	n/a	-999	21	[0, 0, 0]	n/a	catFR1	0	R1127P
2622.267	5.081	2636133	REC_END	n/a	n/a	n/a	n/a	-999	21	[0, 0, 0]	n/a	catFR1	0	R1127P
2627.348	0.5	2641214	TRIAL	n/a	n/a	n/a	n/a	-999	22	[0, 0, 0]	n/a	catFR1	0	R1127P
2627.848	10.428	2641714	COUNTDOWN_START	n/a	n/a	n/a	n/a	-999	22	[0, 0, 0]	n/a	catFR1	0	R1127P
2638.276	0.006	2652142	COUNTDOWN_END	n/a	n/a	n/a	n/a	-999	22	[0, 0, 0]	n/a	catFR1	0	R1127P
