onset	duration	sample	trial_type	response_time	stim_file	item_name	category	serialpos	list	test	answer	experiment	session	subject
0.0	19.485	51607	SESS_START	n/a	n/a	n/a	n/a	-999	-999	[0, 0, 0]	n/a	catFR1	2	R1141T
19.485	10.428	71091	COUNTDOWN_START	n/a	n/a	n/a	n/a	-999	-999	[0, 0, 0]	n/a	catFR1	2	R1141T
29.913	3.592	81518	COUNTDOWN_END	n/a	n/a	n/a	n/a	-999	-999	[0, 0, 0]	n/a	catFR1	2	R1141T
33.505	2.45	85110	PRACTICE_WORD	n/a	n/a	FLOOD	n/a	-999	-999	[0, 0, 0]	n/a	catFR1	2	R1141T
35.955	2.434	87560	PRACTICE_WORD	n/a	n/a	CHEST	n/a	-999	-999	[0, 0, 0]	n/a	catFR1	2	R1141T
38.389	2.567	89994	PRACTICE_WORD	n/a	n/a	ATTIC	n/a	-999	-999	[0, 0, 0]	n/a	catFR1	2	R1141T
40.956	2.434	92561	PRACTICE_WORD	n/a	n/a	RING	n/a	-999	-999	[0, 0, 0]	n/a	catFR1	2	R1141T
43.39	2.517	94995	PRACTICE_WORD	n/a	n/a	WATCH	n/a	-999	-999	[0, 0, 0]	n/a	catFR1	2	R1141T
45.907	2.6	97512	PRACTICE_WORD	n/a	n/a	COTTON	n/a	-999	-999	[0, 0, 0]	n/a	catFR1	2	R1141T
48.507	2.602	100112	PRACTICE_WORD	n/a	n/a	TONGUE	n/a	-999	-999	[0, 0, 0]	n/a	catFR1	2	R1141T
51.109	2.449	102713	PRACTICE_WORD	n/a	n/a	WAGON	n/a	-999	-999	[0, 0, 0]	n/a	catFR1	2	R1141T
53.558	2.552	105162	PRACTICE_WORD	n/a	n/a	RHINO	n/a	-999	-999	[0, 0, 0]	n/a	catFR1	2	R1141T
56.11	2.399	107714	PRACTICE_WORD	n/a	n/a	IRON	n/a	-999	-999	[0, 0, 0]	n/a	catFR1	2	R1141T
58.509	2.517	110113	PRACTICE_WORD	n/a	n/a	BEAM	n/a	-999	-999	[0, 0, 0]	n/a	catFR1	2	R1141T
61.026	1.617	112630	PRACTICE_WORD	n/a	n/a	CAMEL	n/a	-999	-999	[0, 0, 0]	n/a	catFR1	2	R1141T
62.643	0.001	114247	PRACTICE_DISTRACT_START	n/a	n/a	n/a	n/a	-999	-999	[0, 0, 0]	n/a	catFR1	2	R1141T
62.644	0.016	114248	START	n/a	n/a	n/a	n/a	-999	-1	[-999, -999, -999]	n/a	catFR1	2	R1141T
62.66	4.652	114264	PROB	4.652	n/a	n/a	n/a	-999	-1	[6, 5, 3]	14	catFR1	2	R1141T
67.312	2.249	118916	PROB	2.249	n/a	n/a	n/a	-999	-1	[9, 7, 1]	10	catFR1	2	R1141T
69.561	2.284	121165	PROB	2.284	n/a	n/a	n/a	-999	-1	[1, 4, 3]	8	catFR1	2	R1141T
71.845	2.234	123448	PROB	2.234	n/a	n/a	n/a	-999	-1	[6, 6, 8]	20	catFR1	2	R1141T
74.079	2.767	125682	PROB	2.767	n/a	n/a	n/a	-999	-1	[9, 1, 4]	14	catFR1	2	R1141T
76.846	2.6	128449	PROB	2.6	n/a	n/a	n/a	-999	-1	[2, 1, 3]	6	catFR1	2	R1141T
79.446	3.531	131049	PROB	3.531	n/a	n/a	n/a	-999	-1	[2, 5, 6]	13	catFR1	2	R1141T
82.977	0.003	134580	STOP	n/a	n/a	n/a	n/a	-999	-1	[-999, -999, -999]	n/a	catFR1	2	R1141T
82.98	0.569	134583	PRACTICE_DISTRACT_END	n/a	n/a	n/a	n/a	-999	-999	[0, 0, 0]	n/a	catFR1	2	R1141T
83.549	30.515	135152	PRACTICE_REC_START	n/a	n/a	n/a	n/a	-999	-999	[0, 0, 0]	n/a	catFR1	2	R1141T
114.064	7.89	165665	PRACTICE_REC_END	n/a	n/a	n/a	n/a	-999	-999	[0, 0, 0]	n/a	catFR1	2	R1141T
121.954	0.0	173555	TRIAL	n/a	n/a	n/a	n/a	-999	1	[0, 0, 0]	n/a	catFR1	2	R1141T
121.954	10.428	173555	COUNTDOWN_START	n/a	n/a	n/a	n/a	-999	1	[0, 0, 0]	n/a	catFR1	2	R1141T
132.382	0.007	183982	COUNTDOWN_END	n/a	n/a	n/a	n/a	-999	1	[0, 0, 0]	n/a	catFR1	2	R1141T
132.389	3.567	183989	ORIENT	n/a	n/a	n/a	n/a	-999	1	[0, 0, 0]	n/a	catFR1	2	R1141T
135.956	2.567	187556	WORD	n/a	wordpools/wordpool_categorized_EN.txt	DOLL	Toys	1	1	[0, 0, 0]	n/a	catFR1	2	R1141T
138.523	2.468	190123	WORD	n/a	wordpools/wordpool_categorized_EN.txt	PUZZLE	Toys	2	1	[0, 0, 0]	n/a	catFR1	2	R1141T
140.991	2.4	192591	WORD	n/a	wordpools/wordpool_categorized_EN.txt	PLIERS	Tools	3	1	[0, 0, 0]	n/a	catFR1	2	R1141T
143.391	2.517	194991	WORD	n/a	wordpools/wordpool_categorized_EN.txt	SANDER	Tools	4	1	[0, 0, 0]	n/a	catFR1	2	R1141T
145.908	2.584	197508	WORD	n/a	wordpools/wordpool_categorized_EN.txt	WASHER	Appliances	5	1	[0, 0, 0]	n/a	catFR1	2	R1141T
148.492	2.55	200092	WORD	n/a	wordpools/wordpool_categorized_EN.txt	BLENDER	Appliances	6	1	[0, 0, 0]	n/a	catFR1	2	R1141T
151.042	2.551	202642	WORD	n/a	wordpools/wordpool_categorized_EN.txt	CROWBAR	Tools	7	1	[0, 0, 0]	n/a	catFR1	2	R1141T
153.593	2.551	205192	WORD	n/a	wordpools/wordpool_categorized_EN.txt	SAW	Tools	8	1	[0, 0, 0]	n/a	catFR1	2	R1141T
156.144	2.55	207743	WORD	n/a	wordpools/wordpool_categorized_EN.txt	FRISBEE	Toys	9	1	[0, 0, 0]	n/a	catFR1	2	R1141T
158.694	2.518	210293	WORD	n/a	wordpools/wordpool_categorized_EN.txt	FOOTBALL	Toys	10	1	[0, 0, 0]	n/a	catFR1	2	R1141T
161.212	2.516	212811	WORD	n/a	wordpools/wordpool_categorized_EN.txt	DISHWASHER	Appliances	11	1	[0, 0, 0]	n/a	catFR1	2	R1141T
163.728	1.617	215327	WORD	n/a	wordpools/wordpool_categorized_EN.txt	IRON	Appliances	12	1	[0, 0, 0]	n/a	catFR1	2	R1141T
165.345	0.001	216944	DISTRACT_START	n/a	n/a	n/a	n/a	-999	1	[0, 0, 0]	n/a	catFR1	2	R1141T
165.346	0.016	216945	START	n/a	n/a	n/a	n/a	-999	1	[-999, -999, -999]	n/a	catFR1	2	R1141T
165.362	3.984	216961	PROB	3.984	n/a	n/a	n/a	-999	1	[4, 2, 2]	10	catFR1	2	R1141T
169.346	3.15	220945	PROB	3.15	n/a	n/a	n/a	-999	1	[9, 6, 3]	18	catFR1	2	R1141T
172.496	3.551	224094	PROB	3.551	n/a	n/a	n/a	-999	1	[5, 2, 8]	15	catFR1	2	R1141T
176.047	5.401	227645	PROB	5.401	n/a	n/a	n/a	-999	1	[3, 4, 6]	13	catFR1	2	R1141T
181.448	3.484	233046	PROB	3.484	n/a	n/a	n/a	-999	1	[1, 4, 2]	7	catFR1	2	R1141T
184.932	2.053	236530	PROB	2.053	n/a	n/a	n/a	-999	1	[1, 1, 7]	9	catFR1	2	R1141T
186.985	0.014	238583	STOP	n/a	n/a	n/a	n/a	-999	1	[-999, -999, -999]	n/a	catFR1	2	R1141T
186.999	1.207	238597	DISTRACT_END	n/a	n/a	n/a	n/a	-999	1	[0, 0, 0]	n/a	catFR1	2	R1141T
188.206	1.453	239804	REC_START	n/a	n/a	n/a	n/a	-999	1	[0, 0, 0]	n/a	catFR1	2	R1141T
189.659	1.941	241257	REC_WORD	1.941	n/a	DOLL	Toys	1	1	[0, 0, 0]	n/a	catFR1	2	R1141T
191.6	4.066	243198	REC_WORD	4.066	n/a	FOOTBALL	Toys	10	1	[0, 0, 0]	n/a	catFR1	2	R1141T
195.666	2.368	247263	REC_WORD	2.368	n/a	CROWBAR	Tools	7	1	[0, 0, 0]	n/a	catFR1	2	R1141T
198.034	2.713	249631	REC_WORD	2.713	n/a	WASHER	Appliances	5	1	[0, 0, 0]	n/a	catFR1	2	R1141T
200.747	7.388	252344	REC_WORD	7.388	n/a	DISHWASHER	Appliances	11	1	[0, 0, 0]	n/a	catFR1	2	R1141T
208.135	8.299	259732	REC_WORD	8.299	n/a	IRON	Appliances	12	1	[0, 0, 0]	n/a	catFR1	2	R1141T
216.434	1.778	268030	REC_WORD	1.778	n/a	SAW	Tools	8	1	[0, 0, 0]	n/a	catFR1	2	R1141T
218.212	2.493	269808	REC_END	n/a	n/a	n/a	n/a	-999	1	[0, 0, 0]	n/a	catFR1	2	R1141T
220.705	0.0	272301	COUNTDOWN_START	n/a	n/a	n/a	n/a	-999	2	[0, 0, 0]	n/a	catFR1	2	R1141T
220.705	10.428	272301	TRIAL	n/a	n/a	n/a	n/a	-999	2	[0, 0, 0]	n/a	catFR1	2	R1141T
231.133	0.008	282729	COUNTDOWN_END	n/a	n/a	n/a	n/a	-999	2	[0, 0, 0]	n/a	catFR1	2	R1141T
231.141	3.733	282737	ORIENT	n/a	n/a	n/a	n/a	-999	2	[0, 0, 0]	n/a	catFR1	2	R1141T
234.874	2.551	286469	WORD	n/a	wordpools/wordpool_categorized_EN.txt	ORCHID	Flowers	1	2	[0, 0, 0]	n/a	catFR1	2	R1141T
237.425	2.417	289020	WORD	n/a	wordpools/wordpool_categorized_EN.txt	SUNFLOWER	Flowers	2	2	[0, 0, 0]	n/a	catFR1	2	R1141T
239.842	2.5	291437	WORD	n/a	wordpools/wordpool_categorized_EN.txt	FOREST	Landscapes	3	2	[0, 0, 0]	n/a	catFR1	2	R1141T
242.342	2.384	293937	WORD	n/a	wordpools/wordpool_categorized_EN.txt	LAKE	Landscapes	4	2	[0, 0, 0]	n/a	catFR1	2	R1141T
244.726	2.402	296321	WORD	n/a	wordpools/wordpool_categorized_EN.txt	FINGERS	BodyParts	5	2	[0, 0, 0]	n/a	catFR1	2	R1141T
247.128	2.499	298723	WORD	n/a	wordpools/wordpool_categorized_EN.txt	EAR	BodyParts	6	2	[0, 0, 0]	n/a	catFR1	2	R1141T
249.627	2.434	301222	WORD	n/a	wordpools/wordpool_categorized_EN.txt	WOODS	Landscapes	7	2	[0, 0, 0]	n/a	catFR1	2	R1141T
252.061	2.45	303656	WORD	n/a	wordpools/wordpool_categorized_EN.txt	CREEK	Landscapes	8	2	[0, 0, 0]	n/a	catFR1	2	R1141T
254.511	2.451	306105	WORD	n/a	wordpools/wordpool_categorized_EN.txt	DAFFODIL	Flowers	9	2	[0, 0, 0]	n/a	catFR1	2	R1141T
256.962	2.6	308556	WORD	n/a	wordpools/wordpool_categorized_EN.txt	CARNATION	Flowers	10	2	[0, 0, 0]	n/a	catFR1	2	R1141T
259.562	2.568	311156	WORD	n/a	wordpools/wordpool_categorized_EN.txt	TOE	BodyParts	11	2	[0, 0, 0]	n/a	catFR1	2	R1141T
262.13	1.616	313724	WORD	n/a	wordpools/wordpool_categorized_EN.txt	KNEE	BodyParts	12	2	[0, 0, 0]	n/a	catFR1	2	R1141T
263.746	0.001	315340	DISTRACT_START	n/a	n/a	n/a	n/a	-999	2	[0, 0, 0]	n/a	catFR1	2	R1141T
263.747	0.016	315341	START	n/a	n/a	n/a	n/a	-999	2	[-999, -999, -999]	n/a	catFR1	2	R1141T
263.763	4.634	315357	PROB	4.634	n/a	n/a	n/a	-999	2	[4, 2, 5]	11	catFR1	2	R1141T
268.397	2.967	319991	PROB	2.967	n/a	n/a	n/a	-999	2	[9, 5, 3]	17	catFR1	2	R1141T
271.364	2.434	322958	PROB	2.434	n/a	n/a	n/a	-999	2	[9, 4, 8]	21	catFR1	2	R1141T
273.798	2.8	325392	PROB	2.8	n/a	n/a	n/a	-999	2	[7, 5, 8]	20	catFR1	2	R1141T
276.598	2.251	328191	PROB	2.251	n/a	n/a	n/a	-999	2	[8, 2, 2]	12	catFR1	2	R1141T
278.849	2.884	330442	PROB	2.884	n/a	n/a	n/a	-999	2	[7, 1, 1]	9	catFR1	2	R1141T
281.733	6.172	333326	PROB	6.172	n/a	n/a	n/a	-999	2	[8, 8, 7]	23	catFR1	2	R1141T
287.905	0.012	339498	STOP	n/a	n/a	n/a	n/a	-999	2	[-999, -999, -999]	n/a	catFR1	2	R1141T
287.917	1.034	339510	DISTRACT_END	n/a	n/a	n/a	n/a	-999	2	[0, 0, 0]	n/a	catFR1	2	R1141T
288.951	1.292	340544	REC_START	n/a	n/a	n/a	n/a	-999	2	[0, 0, 0]	n/a	catFR1	2	R1141T
290.243	3.063	341836	REC_WORD	3.063	n/a	DAFFODIL	Flowers	9	2	[0, 0, 0]	n/a	catFR1	2	R1141T
293.306	3.423	344899	REC_WORD	3.423	n/a	CARNATION	Flowers	10	2	[0, 0, 0]	n/a	catFR1	2	R1141T
296.729	2.834	348321	REC_WORD	2.834	n/a	TOE	BodyParts	11	2	[0, 0, 0]	n/a	catFR1	2	R1141T
299.563	3.325	351155	REC_WORD	3.325	n/a	FOOT	n/a	-999	2	[0, 0, 0]	n/a	catFR1	2	R1141T
302.888	3.118	354480	REC_WORD	3.118	n/a	FOREST	Landscapes	3	2	[0, 0, 0]	n/a	catFR1	2	R1141T
306.006	12.958	357598	REC_WORD	12.958	n/a	WOODS	Landscapes	7	2	[0, 0, 0]	n/a	catFR1	2	R1141T
318.964	2.26	370555	REC_END	n/a	n/a	n/a	n/a	-999	2	[0, 0, 0]	n/a	catFR1	2	R1141T
321.224	0.0	372815	TRIAL	n/a	n/a	n/a	n/a	-999	3	[0, 0, 0]	n/a	catFR1	2	R1141T
321.224	10.428	372815	COUNTDOWN_START	n/a	n/a	n/a	n/a	-999	3	[0, 0, 0]	n/a	catFR1	2	R1141T
331.652	0.007	383243	COUNTDOWN_END	n/a	n/a	n/a	n/a	-999	3	[0, 0, 0]	n/a	catFR1	2	R1141T
331.659	3.934	383250	ORIENT	n/a	n/a	n/a	n/a	-999	3	[0, 0, 0]	n/a	catFR1	2	R1141T
335.593	2.551	387184	WORD	n/a	wordpools/wordpool_categorized_EN.txt	BROCCOLI	Vegetables	1	3	[0, 0, 0]	n/a	catFR1	2	R1141T
338.144	2.566	389734	WORD	n/a	wordpools/wordpool_categorized_EN.txt	CORN	Vegetables	2	3	[0, 0, 0]	n/a	catFR1	2	R1141T
340.71	2.402	392300	WORD	n/a	wordpools/wordpool_categorized_EN.txt	ORANGUTAN	Zoo	3	3	[0, 0, 0]	n/a	catFR1	2	R1141T
343.112	2.516	394702	WORD	n/a	wordpools/wordpool_categorized_EN.txt	TIGER	Zoo	4	3	[0, 0, 0]	n/a	catFR1	2	R1141T
345.628	2.601	397218	WORD	n/a	wordpools/wordpool_categorized_EN.txt	OAK	Trees	5	3	[0, 0, 0]	n/a	catFR1	2	R1141T
348.229	2.583	399819	WORD	n/a	wordpools/wordpool_categorized_EN.txt	EVERGREEN	Trees	6	3	[0, 0, 0]	n/a	catFR1	2	R1141T
350.812	2.485	402402	WORD	n/a	wordpools/wordpool_categorized_EN.txt	CUCUMBER	Vegetables	7	3	[0, 0, 0]	n/a	catFR1	2	R1141T
353.297	2.516	404887	WORD	n/a	wordpools/wordpool_categorized_EN.txt	ONION	Vegetables	8	3	[0, 0, 0]	n/a	catFR1	2	R1141T
355.813	2.567	407403	WORD	n/a	wordpools/wordpool_categorized_EN.txt	HICKORY	Trees	9	3	[0, 0, 0]	n/a	catFR1	2	R1141T
358.38	2.434	409969	WORD	n/a	wordpools/wordpool_categorized_EN.txt	ELM	Trees	10	3	[0, 0, 0]	n/a	catFR1	2	R1141T
360.814	2.451	412403	WORD	n/a	wordpools/wordpool_categorized_EN.txt	MONKEY	Zoo	11	3	[0, 0, 0]	n/a	catFR1	2	R1141T
363.265	1.616	414854	WORD	n/a	wordpools/wordpool_categorized_EN.txt	CHEETAH	Zoo	12	3	[0, 0, 0]	n/a	catFR1	2	R1141T
364.881	0.001	416470	DISTRACT_START	n/a	n/a	n/a	n/a	-999	3	[0, 0, 0]	n/a	catFR1	2	R1141T
364.882	0.016	416471	START	n/a	n/a	n/a	n/a	-999	3	[-999, -999, -999]	n/a	catFR1	2	R1141T
364.898	3.584	416487	PROB	3.584	n/a	n/a	n/a	-999	3	[2, 1, 3]	6	catFR1	2	R1141T
368.482	2.1	420071	PROB	2.1	n/a	n/a	n/a	-999	3	[6, 8, 7]	21	catFR1	2	R1141T
370.582	2.117	422171	PROB	2.117	n/a	n/a	n/a	-999	3	[6, 2, 4]	12	catFR1	2	R1141T
372.699	2.452	424288	PROB	2.452	n/a	n/a	n/a	-999	3	[3, 2, 5]	10	catFR1	2	R1141T
375.151	2.733	426740	PROB	2.733	n/a	n/a	n/a	-999	3	[2, 9, 5]	16	catFR1	2	R1141T
377.884	4.934	429472	PROB	4.934	n/a	n/a	n/a	-999	3	[9, 3, 4]	16	catFR1	2	R1141T
382.818	3.855	434406	PROB	3.855	n/a	n/a	n/a	-999	3	[1, 6, 3]	10	catFR1	2	R1141T
386.673	0.012	438261	STOP	n/a	n/a	n/a	n/a	-999	3	[-999, -999, -999]	n/a	catFR1	2	R1141T
386.685	1.035	438273	DISTRACT_END	n/a	n/a	n/a	n/a	-999	3	[0, 0, 0]	n/a	catFR1	2	R1141T
387.72	1.803	439308	REC_START	n/a	n/a	n/a	n/a	-999	3	[0, 0, 0]	n/a	catFR1	2	R1141T
389.523	1.674	441111	REC_WORD	1.674	n/a	BROCCOLI	Vegetables	1	3	[0, 0, 0]	n/a	catFR1	2	R1141T
391.197	2.804	442785	REC_WORD	2.804	n/a	CORN	Vegetables	2	3	[0, 0, 0]	n/a	catFR1	2	R1141T
394.001	2.831	445589	REC_WORD	2.831	n/a	MONKEY	Zoo	11	3	[0, 0, 0]	n/a	catFR1	2	R1141T
396.832	20.899	448420	REC_WORD	20.899	n/a	CHEETAH	Zoo	12	3	[0, 0, 0]	n/a	catFR1	2	R1141T
417.731	2.31	469317	REC_END	n/a	n/a	n/a	n/a	-999	3	[0, 0, 0]	n/a	catFR1	2	R1141T
420.041	0.0	471627	COUNTDOWN_START	n/a	n/a	n/a	n/a	-999	4	[0, 0, 0]	n/a	catFR1	2	R1141T
420.041	10.428	471627	TRIAL	n/a	n/a	n/a	n/a	-999	4	[0, 0, 0]	n/a	catFR1	2	R1141T
430.469	0.007	482055	COUNTDOWN_END	n/a	n/a	n/a	n/a	-999	4	[0, 0, 0]	n/a	catFR1	2	R1141T
430.476	3.785	482062	ORIENT	n/a	n/a	n/a	n/a	-999	4	[0, 0, 0]	n/a	catFR1	2	R1141T
434.261	2.6	485847	WORD	n/a	wordpools/wordpool_categorized_EN.txt	LEMON	Fruit	1	4	[0, 0, 0]	n/a	catFR1	2	R1141T
436.861	2.468	488447	WORD	n/a	wordpools/wordpool_categorized_EN.txt	PLUM	Fruit	2	4	[0, 0, 0]	n/a	catFR1	2	R1141T
439.329	2.433	490914	WORD	n/a	wordpools/wordpool_categorized_EN.txt	TAPE	OfficeSupplies	3	4	[0, 0, 0]	n/a	catFR1	2	R1141T
441.762	2.6	493347	WORD	n/a	wordpools/wordpool_categorized_EN.txt	PEN	OfficeSupplies	4	4	[0, 0, 0]	n/a	catFR1	2	R1141T
444.362	2.451	495947	WORD	n/a	wordpools/wordpool_categorized_EN.txt	DUCK	Birds	5	4	[0, 0, 0]	n/a	catFR1	2	R1141T
446.813	2.6	498398	WORD	n/a	wordpools/wordpool_categorized_EN.txt	CARDINAL	Birds	6	4	[0, 0, 0]	n/a	catFR1	2	R1141T
449.413	2.584	500998	WORD	n/a	wordpools/wordpool_categorized_EN.txt	ERASER	OfficeSupplies	7	4	[0, 0, 0]	n/a	catFR1	2	R1141T
451.997	2.567	503582	WORD	n/a	wordpools/wordpool_categorized_EN.txt	NOTEBOOK	OfficeSupplies	8	4	[0, 0, 0]	n/a	catFR1	2	R1141T
454.564	2.401	506149	WORD	n/a	wordpools/wordpool_categorized_EN.txt	PEAR	Fruit	9	4	[0, 0, 0]	n/a	catFR1	2	R1141T
456.965	2.467	508550	WORD	n/a	wordpools/wordpool_categorized_EN.txt	GRAPE	Fruit	10	4	[0, 0, 0]	n/a	catFR1	2	R1141T
459.432	2.417	511016	WORD	n/a	wordpools/wordpool_categorized_EN.txt	PIGEON	Birds	11	4	[0, 0, 0]	n/a	catFR1	2	R1141T
461.849	1.617	513433	WORD	n/a	wordpools/wordpool_categorized_EN.txt	CROW	Birds	12	4	[0, 0, 0]	n/a	catFR1	2	R1141T
463.466	0.001	515050	DISTRACT_START	n/a	n/a	n/a	n/a	-999	4	[0, 0, 0]	n/a	catFR1	2	R1141T
463.467	0.015	515051	START	n/a	n/a	n/a	n/a	-999	4	[-999, -999, -999]	n/a	catFR1	2	R1141T
463.482	3.951	515066	PROB	3.951	n/a	n/a	n/a	-999	4	[9, 8, 1]	18	catFR1	2	R1141T
467.433	2.3	519017	PROB	2.3	n/a	n/a	n/a	-999	4	[6, 1, 4]	10	catFR1	2	R1141T
469.733	4.335	521317	PROB	4.335	n/a	n/a	n/a	-999	4	[1, 7, 6]	14	catFR1	2	R1141T
474.068	3.517	525652	PROB	3.517	n/a	n/a	n/a	-999	4	[7, 9, 5]	23	catFR1	2	R1141T
477.585	5.619	529169	PROB	5.619	n/a	n/a	n/a	-999	4	[9, 7, 1]	17	catFR1	2	R1141T
483.204	3.261	534787	PROB	3.261	n/a	n/a	n/a	-999	4	[5, 1, 2]	8	catFR1	2	R1141T
486.465	0.005	538048	STOP	n/a	n/a	n/a	n/a	-999	4	[-999, -999, -999]	n/a	catFR1	2	R1141T
486.47	1.084	538053	DISTRACT_END	n/a	n/a	n/a	n/a	-999	4	[0, 0, 0]	n/a	catFR1	2	R1141T
487.554	29.994	539137	REC_START	n/a	n/a	n/a	n/a	-999	4	[0, 0, 0]	n/a	catFR1	2	R1141T
517.548	0.017	569130	REC_WORD_VV	0.017	n/a	<>	n/a	-999	4	[0, 0, 0]	n/a	catFR1	2	R1141T
517.565	2.361	569147	REC_END	n/a	n/a	n/a	n/a	-999	4	[0, 0, 0]	n/a	catFR1	2	R1141T
519.926	0.0	571507	TRIAL	n/a	n/a	n/a	n/a	-999	5	[0, 0, 0]	n/a	catFR1	2	R1141T
519.926	10.428	571507	COUNTDOWN_START	n/a	n/a	n/a	n/a	-999	5	[0, 0, 0]	n/a	catFR1	2	R1141T
530.354	0.007	581935	COUNTDOWN_END	n/a	n/a	n/a	n/a	-999	5	[0, 0, 0]	n/a	catFR1	2	R1141T
530.361	3.785	581942	ORIENT	n/a	n/a	n/a	n/a	-999	5	[0, 0, 0]	n/a	catFR1	2	R1141T
534.146	2.55	585727	WORD	n/a	wordpools/wordpool_categorized_EN.txt	GOAT	FarmAnimals	1	5	[0, 0, 0]	n/a	catFR1	2	R1141T
536.696	2.551	588277	WORD	n/a	wordpools/wordpool_categorized_EN.txt	BULL	FarmAnimals	2	5	[0, 0, 0]	n/a	catFR1	2	R1141T
539.247	2.533	590828	WORD	n/a	wordpools/wordpool_categorized_EN.txt	GOOSE	Birds	3	5	[0, 0, 0]	n/a	catFR1	2	R1141T
541.78	2.535	593360	WORD	n/a	wordpools/wordpool_categorized_EN.txt	HAWK	Birds	4	5	[0, 0, 0]	n/a	catFR1	2	R1141T
544.315	2.599	595895	WORD	n/a	wordpools/wordpool_categorized_EN.txt	PLANE	Vehicles	5	5	[0, 0, 0]	n/a	catFR1	2	R1141T
546.914	2.417	598494	WORD	n/a	wordpools/wordpool_categorized_EN.txt	CAR	Vehicles	6	5	[0, 0, 0]	n/a	catFR1	2	R1141T
549.331	2.584	600911	WORD	n/a	wordpools/wordpool_categorized_EN.txt	HEN	FarmAnimals	7	5	[0, 0, 0]	n/a	catFR1	2	R1141T
551.915	2.417	603495	WORD	n/a	wordpools/wordpool_categorized_EN.txt	CHICKEN	FarmAnimals	8	5	[0, 0, 0]	n/a	catFR1	2	R1141T
554.332	2.434	605912	WORD	n/a	wordpools/wordpool_categorized_EN.txt	MOPED	Vehicles	9	5	[0, 0, 0]	n/a	catFR1	2	R1141T
556.766	2.518	608346	WORD	n/a	wordpools/wordpool_categorized_EN.txt	TRAIN	Vehicles	10	5	[0, 0, 0]	n/a	catFR1	2	R1141T
559.284	2.449	610864	WORD	n/a	wordpools/wordpool_categorized_EN.txt	DOVE	Birds	11	5	[0, 0, 0]	n/a	catFR1	2	R1141T
561.733	1.617	613312	WORD	n/a	wordpools/wordpool_categorized_EN.txt	FINCH	Birds	12	5	[0, 0, 0]	n/a	catFR1	2	R1141T
563.35	0.001	614929	DISTRACT_START	n/a	n/a	n/a	n/a	-999	5	[0, 0, 0]	n/a	catFR1	2	R1141T
563.351	0.016	614930	START	n/a	n/a	n/a	n/a	-999	5	[-999, -999, -999]	n/a	catFR1	2	R1141T
563.367	3.251	614946	PROB	3.251	n/a	n/a	n/a	-999	5	[6, 1, 2]	9	catFR1	2	R1141T
566.618	3.668	618197	PROB	3.668	n/a	n/a	n/a	-999	5	[3, 6, 6]	15	catFR1	2	R1141T
570.286	3.466	621865	PROB	3.466	n/a	n/a	n/a	-999	5	[4, 8, 4]	16	catFR1	2	R1141T
573.752	3.634	625331	PROB	3.634	n/a	n/a	n/a	-999	5	[2, 7, 4]	13	catFR1	2	R1141T
577.386	4.651	628965	PROB	4.651	n/a	n/a	n/a	-999	5	[5, 6, 7]	18	catFR1	2	R1141T
582.037	4.892	633615	PROB	4.892	n/a	n/a	n/a	-999	5	[6, 5, 1]	12	catFR1	2	R1141T
586.929	0.009	638507	STOP	n/a	n/a	n/a	n/a	-999	5	[-999, -999, -999]	n/a	catFR1	2	R1141T
586.938	1.051	638516	DISTRACT_END	n/a	n/a	n/a	n/a	-999	5	[0, 0, 0]	n/a	catFR1	2	R1141T
587.989	1.675	639567	REC_START	n/a	n/a	n/a	n/a	-999	5	[0, 0, 0]	n/a	catFR1	2	R1141T
589.664	1.398	641242	REC_WORD	1.398	n/a	GOAT	FarmAnimals	1	5	[0, 0, 0]	n/a	catFR1	2	R1141T
591.062	2.539	642640	REC_WORD	2.539	n/a	BULL	FarmAnimals	2	5	[0, 0, 0]	n/a	catFR1	2	R1141T
593.601	7.128	645179	REC_WORD	7.128	n/a	DOVE	Birds	11	5	[0, 0, 0]	n/a	catFR1	2	R1141T
600.729	8.216	652307	REC_WORD	8.216	n/a	HAWK	Birds	4	5	[0, 0, 0]	n/a	catFR1	2	R1141T
608.945	9.056	660522	REC_WORD	9.056	n/a	ERASER	n/a	-999	5	[0, 0, 0]	n/a	catFR1	2	R1141T
618.001	2.161	669578	REC_END	n/a	n/a	n/a	n/a	-999	5	[0, 0, 0]	n/a	catFR1	2	R1141T
620.162	0.0	671739	TRIAL	n/a	n/a	n/a	n/a	-999	6	[0, 0, 0]	n/a	catFR1	2	R1141T
620.162	10.428	671739	COUNTDOWN_START	n/a	n/a	n/a	n/a	-999	6	[0, 0, 0]	n/a	catFR1	2	R1141T
630.59	0.006	682166	COUNTDOWN_END	n/a	n/a	n/a	n/a	-999	6	[0, 0, 0]	n/a	catFR1	2	R1141T
630.596	3.685	682172	ORIENT	n/a	n/a	n/a	n/a	-999	6	[0, 0, 0]	n/a	catFR1	2	R1141T
634.281	2.449	685857	WORD	n/a	wordpools/wordpool_categorized_EN.txt	DESK	Furniture	1	6	[0, 0, 0]	n/a	catFR1	2	R1141T
636.73	2.552	688306	WORD	n/a	wordpools/wordpool_categorized_EN.txt	NIGHTSTAND	Furniture	2	6	[0, 0, 0]	n/a	catFR1	2	R1141T
639.282	2.599	690858	WORD	n/a	wordpools/wordpool_categorized_EN.txt	MOSQUITO	Insects	3	6	[0, 0, 0]	n/a	catFR1	2	R1141T
641.881	2.385	693457	WORD	n/a	wordpools/wordpool_categorized_EN.txt	CRICKET	Insects	4	6	[0, 0, 0]	n/a	catFR1	2	R1141T
644.266	2.483	695841	WORD	n/a	wordpools/wordpool_categorized_EN.txt	CELERY	Vegetables	5	6	[0, 0, 0]	n/a	catFR1	2	R1141T
646.749	2.617	698324	WORD	n/a	wordpools/wordpool_categorized_EN.txt	SPINACH	Vegetables	6	6	[0, 0, 0]	n/a	catFR1	2	R1141T
649.366	2.417	700941	WORD	n/a	wordpools/wordpool_categorized_EN.txt	BED	Furniture	7	6	[0, 0, 0]	n/a	catFR1	2	R1141T
651.783	2.535	703358	WORD	n/a	wordpools/wordpool_categorized_EN.txt	RECLINER	Furniture	8	6	[0, 0, 0]	n/a	catFR1	2	R1141T
654.318	2.499	705893	WORD	n/a	wordpools/wordpool_categorized_EN.txt	CABBAGE	Vegetables	9	6	[0, 0, 0]	n/a	catFR1	2	R1141T
656.817	2.601	708392	WORD	n/a	wordpools/wordpool_categorized_EN.txt	CARROT	Vegetables	10	6	[0, 0, 0]	n/a	catFR1	2	R1141T
659.418	2.584	710993	WORD	n/a	wordpools/wordpool_categorized_EN.txt	LADYBUG	Insects	11	6	[0, 0, 0]	n/a	catFR1	2	R1141T
662.002	1.617	713577	WORD	n/a	wordpools/wordpool_categorized_EN.txt	GNAT	Insects	12	6	[0, 0, 0]	n/a	catFR1	2	R1141T
663.619	0.001	715193	DISTRACT_START	n/a	n/a	n/a	n/a	-999	6	[0, 0, 0]	n/a	catFR1	2	R1141T
663.62	0.015	715194	START	n/a	n/a	n/a	n/a	-999	6	[-999, -999, -999]	n/a	catFR1	2	R1141T
663.635	5.368	715209	PROB	5.368	n/a	n/a	n/a	-999	6	[9, 6, 8]	23	catFR1	2	R1141T
669.003	3.851	720577	PROB	3.851	n/a	n/a	n/a	-999	6	[4, 3, 1]	8	catFR1	2	R1141T
672.854	2.55	724428	PROB	2.55	n/a	n/a	n/a	-999	6	[6, 9, 5]	20	catFR1	2	R1141T
675.404	3.184	726978	PROB	3.184	n/a	n/a	n/a	-999	6	[8, 7, 3]	18	catFR1	2	R1141T
678.588	2.384	730162	PROB	2.384	n/a	n/a	n/a	-999	6	[2, 4, 5]	11	catFR1	2	R1141T
680.972	3.342	732546	PROB	3.342	n/a	n/a	n/a	-999	6	[7, 2, 7]	16	catFR1	2	R1141T
684.314	0.009	735887	STOP	n/a	n/a	n/a	n/a	-999	6	[-999, -999, -999]	n/a	catFR1	2	R1141T
684.323	1.184	735896	DISTRACT_END	n/a	n/a	n/a	n/a	-999	6	[0, 0, 0]	n/a	catFR1	2	R1141T
685.507	25.9	737080	REC_START	n/a	n/a	n/a	n/a	-999	6	[0, 0, 0]	n/a	catFR1	2	R1141T
711.407	0.93	762979	REC_WORD	0.93	n/a	BED	Furniture	7	6	[0, 0, 0]	n/a	catFR1	2	R1141T
712.337	3.181	763909	REC_WORD	3.181	n/a	RECLINER	Furniture	8	6	[0, 0, 0]	n/a	catFR1	2	R1141T
715.518	2.711	767090	REC_END	n/a	n/a	n/a	n/a	-999	6	[0, 0, 0]	n/a	catFR1	2	R1141T
718.229	0.001	769801	COUNTDOWN_START	n/a	n/a	n/a	n/a	-999	7	[0, 0, 0]	n/a	catFR1	2	R1141T
718.23	10.427	769802	TRIAL	n/a	n/a	n/a	n/a	-999	7	[0, 0, 0]	n/a	catFR1	2	R1141T
728.657	0.007	780228	COUNTDOWN_END	n/a	n/a	n/a	n/a	-999	7	[0, 0, 0]	n/a	catFR1	2	R1141T
728.664	3.667	780235	ORIENT	n/a	n/a	n/a	n/a	-999	7	[0, 0, 0]	n/a	catFR1	2	R1141T
732.331	2.384	783902	WORD	n/a	wordpools/wordpool_categorized_EN.txt	EYE	BodyParts	1	7	[0, 0, 0]	n/a	catFR1	2	R1141T
734.715	2.518	786286	WORD	n/a	wordpools/wordpool_categorized_EN.txt	HEAD	BodyParts	2	7	[0, 0, 0]	n/a	catFR1	2	R1141T
737.233	2.516	788804	WORD	n/a	wordpools/wordpool_categorized_EN.txt	HURRICANE	Weather	3	7	[0, 0, 0]	n/a	catFR1	2	R1141T
739.749	2.418	791320	WORD	n/a	wordpools/wordpool_categorized_EN.txt	THUNDERSTORM	Weather	4	7	[0, 0, 0]	n/a	catFR1	2	R1141T
742.167	2.549	793738	WORD	n/a	wordpools/wordpool_categorized_EN.txt	PIANO	Instruments	5	7	[0, 0, 0]	n/a	catFR1	2	R1141T
744.716	2.385	796286	WORD	n/a	wordpools/wordpool_categorized_EN.txt	ORGAN	Instruments	6	7	[0, 0, 0]	n/a	catFR1	2	R1141T
747.101	2.4	798671	WORD	n/a	wordpools/wordpool_categorized_EN.txt	LIGHTNING	Weather	7	7	[0, 0, 0]	n/a	catFR1	2	R1141T
749.501	2.567	801071	WORD	n/a	wordpools/wordpool_categorized_EN.txt	WIND	Weather	8	7	[0, 0, 0]	n/a	catFR1	2	R1141T
752.068	2.55	803638	WORD	n/a	wordpools/wordpool_categorized_EN.txt	FOOT	BodyParts	9	7	[0, 0, 0]	n/a	catFR1	2	R1141T
754.618	2.401	806188	WORD	n/a	wordpools/wordpool_categorized_EN.txt	ELBOW	BodyParts	10	7	[0, 0, 0]	n/a	catFR1	2	R1141T
757.019	2.617	808589	WORD	n/a	wordpools/wordpool_categorized_EN.txt	GUITAR	Instruments	11	7	[0, 0, 0]	n/a	catFR1	2	R1141T
759.636	1.601	811206	WORD	n/a	wordpools/wordpool_categorized_EN.txt	CELLO	Instruments	12	7	[0, 0, 0]	n/a	catFR1	2	R1141T
761.237	0.001	812807	DISTRACT_START	n/a	n/a	n/a	n/a	-999	7	[0, 0, 0]	n/a	catFR1	2	R1141T
761.238	0.016	812808	START	n/a	n/a	n/a	n/a	-999	7	[-999, -999, -999]	n/a	catFR1	2	R1141T
761.254	4.166	812824	PROB	4.166	n/a	n/a	n/a	-999	7	[3, 5, 5]	13	catFR1	2	R1141T
765.42	9.285	816989	PROB	9.285	n/a	n/a	n/a	-999	7	[6, 9, 9]	24	catFR1	2	R1141T
774.705	2.734	826274	PROB	2.734	n/a	n/a	n/a	-999	7	[1, 7, 2]	10	catFR1	2	R1141T
777.439	2.967	829008	PROB	2.967	n/a	n/a	n/a	-999	7	[5, 5, 7]	17	catFR1	2	R1141T
780.406	2.764	831975	PROB	2.764	n/a	n/a	n/a	-999	7	[8, 1, 9]	18	catFR1	2	R1141T
783.17	0.005	834739	STOP	n/a	n/a	n/a	n/a	-999	7	[-999, -999, -999]	n/a	catFR1	2	R1141T
783.175	1.199	834744	DISTRACT_END	n/a	n/a	n/a	n/a	-999	7	[0, 0, 0]	n/a	catFR1	2	R1141T
784.374	5.3	835943	REC_START	n/a	n/a	n/a	n/a	-999	7	[0, 0, 0]	n/a	catFR1	2	R1141T
789.674	8.73	841242	REC_WORD	8.73	n/a	HEAD	BodyParts	2	7	[0, 0, 0]	n/a	catFR1	2	R1141T
798.404	8.441	849972	REC_WORD	8.441	n/a	CELLO	Instruments	12	7	[0, 0, 0]	n/a	catFR1	2	R1141T
806.845	7.544	858412	REC_WORD	7.544	n/a	DESK	n/a	-999	7	[0, 0, 0]	n/a	catFR1	2	R1141T
814.389	2.141	865956	REC_END	n/a	n/a	n/a	n/a	-999	7	[0, 0, 0]	n/a	catFR1	2	R1141T
816.53	0.0	868097	TRIAL	n/a	n/a	n/a	n/a	-999	8	[0, 0, 0]	n/a	catFR1	2	R1141T
816.53	10.428	868097	COUNTDOWN_START	n/a	n/a	n/a	n/a	-999	8	[0, 0, 0]	n/a	catFR1	2	R1141T
826.958	0.007	878524	COUNTDOWN_END	n/a	n/a	n/a	n/a	-999	8	[0, 0, 0]	n/a	catFR1	2	R1141T
826.965	3.667	878531	ORIENT	n/a	n/a	n/a	n/a	-999	8	[0, 0, 0]	n/a	catFR1	2	R1141T
830.632	2.417	882198	WORD	n/a	wordpools/wordpool_categorized_EN.txt	ELEPHANT	Zoo	1	8	[0, 0, 0]	n/a	catFR1	2	R1141T
833.049	2.417	884615	WORD	n/a	wordpools/wordpool_categorized_EN.txt	GORILLA	Zoo	2	8	[0, 0, 0]	n/a	catFR1	2	R1141T
835.466	2.551	887032	WORD	n/a	wordpools/wordpool_categorized_EN.txt	BOOKCASE	Furniture	3	8	[0, 0, 0]	n/a	catFR1	2	R1141T
838.017	2.55	889583	WORD	n/a	wordpools/wordpool_categorized_EN.txt	COUCH	Furniture	4	8	[0, 0, 0]	n/a	catFR1	2	R1141T
840.567	2.401	892133	WORD	n/a	wordpools/wordpool_categorized_EN.txt	WRENCH	Tools	5	8	[0, 0, 0]	n/a	catFR1	2	R1141T
842.968	2.517	894534	WORD	n/a	wordpools/wordpool_categorized_EN.txt	HAMMER	Tools	6	8	[0, 0, 0]	n/a	catFR1	2	R1141T
845.485	2.567	897051	WORD	n/a	wordpools/wordpool_categorized_EN.txt	GIRAFFE	Zoo	7	8	[0, 0, 0]	n/a	catFR1	2	R1141T
848.052	2.484	899617	WORD	n/a	wordpools/wordpool_categorized_EN.txt	ZEBRA	Zoo	8	8	[0, 0, 0]	n/a	catFR1	2	R1141T
850.536	2.45	902101	WORD	n/a	wordpools/wordpool_categorized_EN.txt	SCREWDRIVER	Tools	9	8	[0, 0, 0]	n/a	catFR1	2	R1141T
852.986	2.467	904551	WORD	n/a	wordpools/wordpool_categorized_EN.txt	RATCHET	Tools	10	8	[0, 0, 0]	n/a	catFR1	2	R1141T
855.453	2.601	907018	WORD	n/a	wordpools/wordpool_categorized_EN.txt	CABINET	Furniture	11	8	[0, 0, 0]	n/a	catFR1	2	R1141T
858.054	1.617	909619	WORD	n/a	wordpools/wordpool_categorized_EN.txt	SOFA	Furniture	12	8	[0, 0, 0]	n/a	catFR1	2	R1141T
859.671	0.001	911236	DISTRACT_START	n/a	n/a	n/a	n/a	-999	8	[0, 0, 0]	n/a	catFR1	2	R1141T
859.672	0.015	911237	START	n/a	n/a	n/a	n/a	-999	8	[-999, -999, -999]	n/a	catFR1	2	R1141T
859.687	3.068	911252	PROB	3.068	n/a	n/a	n/a	-999	8	[1, 6, 1]	8	catFR1	2	R1141T
862.755	2.717	914320	PROB	2.717	n/a	n/a	n/a	-999	8	[3, 8, 8]	19	catFR1	2	R1141T
865.472	4.251	917037	PROB	4.251	n/a	n/a	n/a	-999	8	[5, 4, 1]	10	catFR1	2	R1141T
869.723	2.434	921287	PROB	2.434	n/a	n/a	n/a	-999	8	[4, 3, 5]	12	catFR1	2	R1141T
872.157	4.484	923721	PROB	4.484	n/a	n/a	n/a	-999	8	[4, 8, 7]	19	catFR1	2	R1141T
876.641	2.417	928205	PROB	2.417	n/a	n/a	n/a	-999	8	[7, 6, 4]	17	catFR1	2	R1141T
879.058	5.455	930622	PROB	5.455	n/a	n/a	n/a	-999	8	[5, 9, 2]	16	catFR1	2	R1141T
884.513	0.012	936077	STOP	n/a	n/a	n/a	n/a	-999	8	[-999, -999, -999]	n/a	catFR1	2	R1141T
884.525	1.084	936089	DISTRACT_END	n/a	n/a	n/a	n/a	-999	8	[0, 0, 0]	n/a	catFR1	2	R1141T
885.609	1.304	937173	REC_START	n/a	n/a	n/a	n/a	-999	8	[0, 0, 0]	n/a	catFR1	2	R1141T
886.913	1.503	938477	REC_WORD	1.503	n/a	ELEPHANT	Zoo	1	8	[0, 0, 0]	n/a	catFR1	2	R1141T
888.416	4.482	939979	REC_WORD	4.482	n/a	GORILLA	Zoo	2	8	[0, 0, 0]	n/a	catFR1	2	R1141T
892.898	22.726	944461	REC_WORD	22.726	n/a	BOOKCASE	Furniture	3	8	[0, 0, 0]	n/a	catFR1	2	R1141T
915.624	1.991	967186	REC_END	n/a	n/a	n/a	n/a	-999	8	[0, 0, 0]	n/a	catFR1	2	R1141T
917.615	0.0	969177	TRIAL	n/a	n/a	n/a	n/a	-999	9	[0, 0, 0]	n/a	catFR1	2	R1141T
917.615	10.428	969177	COUNTDOWN_START	n/a	n/a	n/a	n/a	-999	9	[0, 0, 0]	n/a	catFR1	2	R1141T
928.043	0.007	979605	COUNTDOWN_END	n/a	n/a	n/a	n/a	-999	9	[0, 0, 0]	n/a	catFR1	2	R1141T
928.05	3.751	979612	ORIENT	n/a	n/a	n/a	n/a	-999	9	[0, 0, 0]	n/a	catFR1	2	R1141T
931.801	2.468	983362	WORD	n/a	wordpools/wordpool_categorized_EN.txt	BINDER	OfficeSupplies	1	9	[0, 0, 0]	n/a	catFR1	2	R1141T
934.269	2.382	985830	WORD	n/a	wordpools/wordpool_categorized_EN.txt	PENCIL	OfficeSupplies	2	9	[0, 0, 0]	n/a	catFR1	2	R1141T
936.651	2.585	988212	WORD	n/a	wordpools/wordpool_categorized_EN.txt	PETUNIA	Flowers	3	9	[0, 0, 0]	n/a	catFR1	2	R1141T
939.236	2.416	990797	WORD	n/a	wordpools/wordpool_categorized_EN.txt	TULIP	Flowers	4	9	[0, 0, 0]	n/a	catFR1	2	R1141T
941.652	2.535	993213	WORD	n/a	wordpools/wordpool_categorized_EN.txt	BUTTERFLY	Insects	5	9	[0, 0, 0]	n/a	catFR1	2	R1141T
944.187	2.516	995748	WORD	n/a	wordpools/wordpool_categorized_EN.txt	ROACH	Insects	6	9	[0, 0, 0]	n/a	catFR1	2	R1141T
946.703	2.502	998264	WORD	n/a	wordpools/wordpool_categorized_EN.txt	MARKER	OfficeSupplies	7	9	[0, 0, 0]	n/a	catFR1	2	R1141T
949.205	2.416	1000765	WORD	n/a	wordpools/wordpool_categorized_EN.txt	RULER	OfficeSupplies	8	9	[0, 0, 0]	n/a	catFR1	2	R1141T
951.621	2.367	1003181	WORD	n/a	wordpools/wordpool_categorized_EN.txt	ANT	Insects	9	9	[0, 0, 0]	n/a	catFR1	2	R1141T
953.988	2.45	1005548	WORD	n/a	wordpools/wordpool_categorized_EN.txt	BEE	Insects	10	9	[0, 0, 0]	n/a	catFR1	2	R1141T
956.438	2.568	1007998	WORD	n/a	wordpools/wordpool_categorized_EN.txt	LILAC	Flowers	11	9	[0, 0, 0]	n/a	catFR1	2	R1141T
959.006	1.616	1010566	WORD	n/a	wordpools/wordpool_categorized_EN.txt	LILY	Flowers	12	9	[0, 0, 0]	n/a	catFR1	2	R1141T
960.622	0.001	1012182	DISTRACT_START	n/a	n/a	n/a	n/a	-999	9	[0, 0, 0]	n/a	catFR1	2	R1141T
960.623	0.016	1012183	START	n/a	n/a	n/a	n/a	-999	9	[-999, -999, -999]	n/a	catFR1	2	R1141T
960.639	2.834	1012199	PROB	2.834	n/a	n/a	n/a	-999	9	[4, 2, 6]	12	catFR1	2	R1141T
963.473	2.484	1015033	PROB	2.484	n/a	n/a	n/a	-999	9	[1, 6, 5]	12	catFR1	2	R1141T
965.957	2.634	1017517	PROB	2.634	n/a	n/a	n/a	-999	9	[9, 1, 5]	15	catFR1	2	R1141T
968.591	3.3	1020151	PROB	3.3	n/a	n/a	n/a	-999	9	[7, 8, 4]	19	catFR1	2	R1141T
971.891	2.884	1023450	PROB	2.884	n/a	n/a	n/a	-999	9	[3, 8, 3]	14	catFR1	2	R1141T
974.775	10.01	1026334	PROB	10.01	n/a	n/a	n/a	-999	9	[8, 2, 6]	16	catFR1	2	R1141T
984.785	0.009	1036344	STOP	n/a	n/a	n/a	n/a	-999	9	[-999, -999, -999]	n/a	catFR1	2	R1141T
984.794	1.134	1036353	DISTRACT_END	n/a	n/a	n/a	n/a	-999	9	[0, 0, 0]	n/a	catFR1	2	R1141T
985.928	1.606	1037487	REC_START	n/a	n/a	n/a	n/a	-999	9	[0, 0, 0]	n/a	catFR1	2	R1141T
987.534	3.707	1039093	REC_WORD	3.707	n/a	BINDER	OfficeSupplies	1	9	[0, 0, 0]	n/a	catFR1	2	R1141T
991.241	24.699	1042799	REC_WORD	24.699	n/a	LILY	Flowers	12	9	[0, 0, 0]	n/a	catFR1	2	R1141T
1015.94	5.66	1067497	REC_END	n/a	n/a	n/a	n/a	-999	9	[0, 0, 0]	n/a	catFR1	2	R1141T
1021.6	0.0	1073157	COUNTDOWN_START	n/a	n/a	n/a	n/a	-999	10	[0, 0, 0]	n/a	catFR1	2	R1141T
1021.6	10.428	1073157	TRIAL	n/a	n/a	n/a	n/a	-999	10	[0, 0, 0]	n/a	catFR1	2	R1141T
1032.028	0.007	1083584	COUNTDOWN_END	n/a	n/a	n/a	n/a	-999	10	[0, 0, 0]	n/a	catFR1	2	R1141T
1032.035	3.584	1083591	ORIENT	n/a	n/a	n/a	n/a	-999	10	[0, 0, 0]	n/a	catFR1	2	R1141T
1035.619	2.469	1087175	WORD	n/a	wordpools/wordpool_categorized_EN.txt	VAN	Vehicles	1	10	[0, 0, 0]	n/a	catFR1	2	R1141T
1038.088	2.466	1089644	WORD	n/a	wordpools/wordpool_categorized_EN.txt	BIKE	Vehicles	2	10	[0, 0, 0]	n/a	catFR1	2	R1141T
1040.554	2.483	1092110	WORD	n/a	wordpools/wordpool_categorized_EN.txt	LEG	BodyParts	3	10	[0, 0, 0]	n/a	catFR1	2	R1141T
1043.037	2.501	1094593	WORD	n/a	wordpools/wordpool_categorized_EN.txt	HAND	BodyParts	4	10	[0, 0, 0]	n/a	catFR1	2	R1141T
1045.538	2.467	1097094	WORD	n/a	wordpools/wordpool_categorized_EN.txt	RADIO	Electronics	5	10	[0, 0, 0]	n/a	catFR1	2	R1141T
1048.005	2.417	1099561	WORD	n/a	wordpools/wordpool_categorized_EN.txt	HEADPHONES	Electronics	6	10	[0, 0, 0]	n/a	catFR1	2	R1141T
1050.422	2.551	1101978	WORD	n/a	wordpools/wordpool_categorized_EN.txt	BUS	Vehicles	7	10	[0, 0, 0]	n/a	catFR1	2	R1141T
1052.973	2.517	1104528	WORD	n/a	wordpools/wordpool_categorized_EN.txt	TRUCK	Vehicles	8	10	[0, 0, 0]	n/a	catFR1	2	R1141T
1055.49	2.533	1107045	WORD	n/a	wordpools/wordpool_categorized_EN.txt	MICROWAVE	Electronics	9	10	[0, 0, 0]	n/a	catFR1	2	R1141T
1058.023	2.551	1109578	WORD	n/a	wordpools/wordpool_categorized_EN.txt	TABLET	Electronics	10	10	[0, 0, 0]	n/a	catFR1	2	R1141T
1060.574	2.45	1112129	WORD	n/a	wordpools/wordpool_categorized_EN.txt	ARM	BodyParts	11	10	[0, 0, 0]	n/a	catFR1	2	R1141T
1063.024	1.617	1114579	WORD	n/a	wordpools/wordpool_categorized_EN.txt	NOSE	BodyParts	12	10	[0, 0, 0]	n/a	catFR1	2	R1141T
1064.641	0.001	1116196	DISTRACT_START	n/a	n/a	n/a	n/a	-999	10	[0, 0, 0]	n/a	catFR1	2	R1141T
1064.642	0.016	1116197	START	n/a	n/a	n/a	n/a	-999	10	[-999, -999, -999]	n/a	catFR1	2	R1141T
1064.658	6.685	1116213	PROB	6.685	n/a	n/a	n/a	-999	10	[7, 8, 7]	22	catFR1	2	R1141T
1071.343	2.65	1122897	PROB	2.65	n/a	n/a	n/a	-999	10	[7, 8, 2]	17	catFR1	2	R1141T
1073.993	2.084	1125547	PROB	2.084	n/a	n/a	n/a	-999	10	[6, 1, 7]	14	catFR1	2	R1141T
1076.077	4.501	1127631	PROB	4.501	n/a	n/a	n/a	-999	10	[2, 5, 3]	10	catFR1	2	R1141T
1080.578	4.399	1132132	PROB	4.399	n/a	n/a	n/a	-999	10	[4, 9, 7]	20	catFR1	2	R1141T
1084.977	0.018	1136531	STOP	n/a	n/a	n/a	n/a	-999	10	[-999, -999, -999]	n/a	catFR1	2	R1141T
1084.995	1.102	1136549	DISTRACT_END	n/a	n/a	n/a	n/a	-999	10	[0, 0, 0]	n/a	catFR1	2	R1141T
1086.097	1.509	1137651	REC_START	n/a	n/a	n/a	n/a	-999	10	[0, 0, 0]	n/a	catFR1	2	R1141T
1087.606	1.667	1139160	REC_WORD	1.667	n/a	BAN	n/a	-999	10	[0, 0, 0]	n/a	catFR1	2	R1141T
1089.273	4.199	1140827	REC_WORD	4.199	n/a	BIKE	Vehicles	2	10	[0, 0, 0]	n/a	catFR1	2	R1141T
1093.472	3.601	1145025	REC_WORD	3.601	n/a	LEG	BodyParts	3	10	[0, 0, 0]	n/a	catFR1	2	R1141T
1097.073	3.811	1148626	REC_WORD	3.811	n/a	HAND	BodyParts	4	10	[0, 0, 0]	n/a	catFR1	2	R1141T
1100.884	15.224	1152437	REC_WORD	15.224	n/a	TRAIN	n/a	-999	10	[0, 0, 0]	n/a	catFR1	2	R1141T
1116.108	2.094	1167660	REC_END	n/a	n/a	n/a	n/a	-999	10	[0, 0, 0]	n/a	catFR1	2	R1141T
1118.202	0.0	1169754	TRIAL	n/a	n/a	n/a	n/a	-999	11	[0, 0, 0]	n/a	catFR1	2	R1141T
1118.202	10.428	1169754	COUNTDOWN_START	n/a	n/a	n/a	n/a	-999	11	[0, 0, 0]	n/a	catFR1	2	R1141T
1128.63	0.006	1180182	COUNTDOWN_END	n/a	n/a	n/a	n/a	-999	11	[0, 0, 0]	n/a	catFR1	2	R1141T
1128.636	3.618	1180188	ORIENT	n/a	n/a	n/a	n/a	-999	11	[0, 0, 0]	n/a	catFR1	2	R1141T
1132.254	2.533	1183806	WORD	n/a	wordpools/wordpool_categorized_EN.txt	COLA	Beverages	1	11	[0, 0, 0]	n/a	catFR1	2	R1141T
1134.787	2.419	1186338	WORD	n/a	wordpools/wordpool_categorized_EN.txt	JUICE	Beverages	2	11	[0, 0, 0]	n/a	catFR1	2	R1141T
1137.206	2.566	1188757	WORD	n/a	wordpools/wordpool_categorized_EN.txt	VIOLIN	Instruments	3	11	[0, 0, 0]	n/a	catFR1	2	R1141T
1139.772	2.6	1191323	WORD	n/a	wordpools/wordpool_categorized_EN.txt	FLUTE	Instruments	4	11	[0, 0, 0]	n/a	catFR1	2	R1141T
1142.372	2.601	1193923	WORD	n/a	wordpools/wordpool_categorized_EN.txt	JACKET	Clothing	5	11	[0, 0, 0]	n/a	catFR1	2	R1141T
1144.973	2.45	1196524	WORD	n/a	wordpools/wordpool_categorized_EN.txt	SHORTS	Clothing	6	11	[0, 0, 0]	n/a	catFR1	2	R1141T
1147.423	2.534	1198974	WORD	n/a	wordpools/wordpool_categorized_EN.txt	TRUMPET	Instruments	7	11	[0, 0, 0]	n/a	catFR1	2	R1141T
1149.957	2.567	1201508	WORD	n/a	wordpools/wordpool_categorized_EN.txt	BANJO	Instruments	8	11	[0, 0, 0]	n/a	catFR1	2	R1141T
1152.524	2.4	1204075	WORD	n/a	wordpools/wordpool_categorized_EN.txt	SODA	Beverages	9	11	[0, 0, 0]	n/a	catFR1	2	R1141T
1154.924	2.517	1206474	WORD	n/a	wordpools/wordpool_categorized_EN.txt	BEER	Beverages	10	11	[0, 0, 0]	n/a	catFR1	2	R1141T
1157.441	2.518	1208991	WORD	n/a	wordpools/wordpool_categorized_EN.txt	COAT	Clothing	11	11	[0, 0, 0]	n/a	catFR1	2	R1141T
1159.959	1.617	1211509	WORD	n/a	wordpools/wordpool_categorized_EN.txt	SOCKS	Clothing	12	11	[0, 0, 0]	n/a	catFR1	2	R1141T
1161.576	0.0	1213126	DISTRACT_START	n/a	n/a	n/a	n/a	-999	11	[0, 0, 0]	n/a	catFR1	2	R1141T
1161.576	0.016	1213126	START	n/a	n/a	n/a	n/a	-999	11	[-999, -999, -999]	n/a	catFR1	2	R1141T
1161.592	4.401	1213142	PROB	4.401	n/a	n/a	n/a	-999	11	[9, 8, 4]	21	catFR1	2	R1141T
1165.993	3.351	1217543	PROB	3.351	n/a	n/a	n/a	-999	11	[6, 3, 7]	16	catFR1	2	R1141T
1169.344	1.984	1220894	PROB	1.984	n/a	n/a	n/a	-999	11	[2, 3, 7]	12	catFR1	2	R1141T
1171.328	2.5	1222878	PROB	2.5	n/a	n/a	n/a	-999	11	[1, 4, 7]	12	catFR1	2	R1141T
1173.828	6.134	1225377	PROB	6.134	n/a	n/a	n/a	-999	11	[3, 5, 5]	13	catFR1	2	R1141T
1179.962	3.903	1231511	PROB	3.903	n/a	n/a	n/a	-999	11	[9, 4, 1]	14	catFR1	2	R1141T
1183.865	0.015	1235414	STOP	n/a	n/a	n/a	n/a	-999	11	[-999, -999, -999]	n/a	catFR1	2	R1141T
1183.88	1.05	1235429	DISTRACT_END	n/a	n/a	n/a	n/a	-999	11	[0, 0, 0]	n/a	catFR1	2	R1141T
1184.93	1.459	1236479	REC_START	n/a	n/a	n/a	n/a	-999	11	[0, 0, 0]	n/a	catFR1	2	R1141T
1186.389	1.643	1237938	REC_WORD	1.643	n/a	COLA	Beverages	1	11	[0, 0, 0]	n/a	catFR1	2	R1141T
1188.032	1.94	1239581	REC_WORD	1.94	n/a	SODA	Beverages	9	11	[0, 0, 0]	n/a	catFR1	2	R1141T
1189.972	3.345	1241521	REC_WORD	3.345	n/a	BEER	Beverages	10	11	[0, 0, 0]	n/a	catFR1	2	R1141T
1193.317	3.911	1244866	REC_WORD	3.911	n/a	JACKET	Clothing	5	11	[0, 0, 0]	n/a	catFR1	2	R1141T
1197.228	14.268	1248776	REC_WORD	14.268	n/a	JUICE	Beverages	2	11	[0, 0, 0]	n/a	catFR1	2	R1141T
1211.496	3.45	1263044	REC_WORD	3.45	n/a	BANJO	Instruments	8	11	[0, 0, 0]	n/a	catFR1	2	R1141T
1214.946	4.258	1266493	REC_END	n/a	n/a	n/a	n/a	-999	11	[0, 0, 0]	n/a	catFR1	2	R1141T
1219.204	0.0	1270751	TRIAL	n/a	n/a	n/a	n/a	-999	12	[0, 0, 0]	n/a	catFR1	2	R1141T
1219.204	10.428	1270751	COUNTDOWN_START	n/a	n/a	n/a	n/a	-999	12	[0, 0, 0]	n/a	catFR1	2	R1141T
1229.632	0.006	1281179	COUNTDOWN_END	n/a	n/a	n/a	n/a	-999	12	[0, 0, 0]	n/a	catFR1	2	R1141T
1229.638	3.9	1281185	ORIENT	n/a	n/a	n/a	n/a	-999	12	[0, 0, 0]	n/a	catFR1	2	R1141T
1233.538	2.518	1285085	WORD	n/a	wordpools/wordpool_categorized_EN.txt	MARIGOLD	Flowers	1	12	[0, 0, 0]	n/a	catFR1	2	R1141T
1236.056	2.4	1287602	WORD	n/a	wordpools/wordpool_categorized_EN.txt	DAISY	Flowers	2	12	[0, 0, 0]	n/a	catFR1	2	R1141T
1238.456	2.501	1290002	WORD	n/a	wordpools/wordpool_categorized_EN.txt	BOAT	Vehicles	3	12	[0, 0, 0]	n/a	catFR1	2	R1141T
1240.957	2.516	1292503	WORD	n/a	wordpools/wordpool_categorized_EN.txt	MOTORCYCLE	Vehicles	4	12	[0, 0, 0]	n/a	catFR1	2	R1141T
1243.473	2.619	1295019	WORD	n/a	wordpools/wordpool_categorized_EN.txt	BEAR	Zoo	5	12	[0, 0, 0]	n/a	catFR1	2	R1141T
1246.092	2.483	1297638	WORD	n/a	wordpools/wordpool_categorized_EN.txt	LION	Zoo	6	12	[0, 0, 0]	n/a	catFR1	2	R1141T
1248.575	2.467	1300121	WORD	n/a	wordpools/wordpool_categorized_EN.txt	ROSE	Flowers	7	12	[0, 0, 0]	n/a	catFR1	2	R1141T
1251.042	2.417	1302588	WORD	n/a	wordpools/wordpool_categorized_EN.txt	VIOLET	Flowers	8	12	[0, 0, 0]	n/a	catFR1	2	R1141T
1253.459	2.417	1305005	WORD	n/a	wordpools/wordpool_categorized_EN.txt	PANDA	Zoo	9	12	[0, 0, 0]	n/a	catFR1	2	R1141T
1255.876	2.501	1307421	WORD	n/a	wordpools/wordpool_categorized_EN.txt	CHIMPANZEE	Zoo	10	12	[0, 0, 0]	n/a	catFR1	2	R1141T
1258.377	2.383	1309922	WORD	n/a	wordpools/wordpool_categorized_EN.txt	SCOOTER	Vehicles	11	12	[0, 0, 0]	n/a	catFR1	2	R1141T
1260.76	1.617	1312305	WORD	n/a	wordpools/wordpool_categorized_EN.txt	JEEP	Vehicles	12	12	[0, 0, 0]	n/a	catFR1	2	R1141T
1262.377	0.001	1313922	DISTRACT_START	n/a	n/a	n/a	n/a	-999	12	[0, 0, 0]	n/a	catFR1	2	R1141T
1262.378	0.016	1313923	START	n/a	n/a	n/a	n/a	-999	12	[-999, -999, -999]	n/a	catFR1	2	R1141T
1262.394	3.65	1313939	PROB	3.65	n/a	n/a	n/a	-999	12	[4, 5, 7]	19	catFR1	2	R1141T
1266.044	2.901	1317589	PROB	2.901	n/a	n/a	n/a	-999	12	[7, 9, 5]	21	catFR1	2	R1141T
1268.945	2.934	1320490	PROB	2.934	n/a	n/a	n/a	-999	12	[5, 4, 9]	18	catFR1	2	R1141T
1271.879	4.534	1323424	PROB	4.534	n/a	n/a	n/a	-999	12	[6, 3, 5]	14	catFR1	2	R1141T
1276.413	1.868	1327957	PROB	1.868	n/a	n/a	n/a	-999	12	[4, 6, 2]	12	catFR1	2	R1141T
1278.281	3.4	1329825	PROB	3.4	n/a	n/a	n/a	-999	12	[7, 7, 1]	15	catFR1	2	R1141T
1281.681	2.24	1333225	PROB	2.24	n/a	n/a	n/a	-999	12	[3, 2, 7]	12	catFR1	2	R1141T
1283.921	0.01	1335465	STOP	n/a	n/a	n/a	n/a	-999	12	[-999, -999, -999]	n/a	catFR1	2	R1141T
1283.931	1.202	1335475	DISTRACT_END	n/a	n/a	n/a	n/a	-999	12	[0, 0, 0]	n/a	catFR1	2	R1141T
1285.133	1.841	1336677	REC_START	n/a	n/a	n/a	n/a	-999	12	[0, 0, 0]	n/a	catFR1	2	R1141T
1286.974	1.789	1338518	REC_WORD	1.789	n/a	BEAR	Zoo	5	12	[0, 0, 0]	n/a	catFR1	2	R1141T
1288.763	2.419	1340307	REC_WORD	2.419	n/a	ROSE	Flowers	7	12	[0, 0, 0]	n/a	catFR1	2	R1141T
1291.182	4.222	1342726	REC_WORD	4.222	n/a	LION	Zoo	6	12	[0, 0, 0]	n/a	catFR1	2	R1141T
1295.404	1.993	1346948	REC_WORD	1.993	n/a	JEEP	Vehicles	12	12	[0, 0, 0]	n/a	catFR1	2	R1141T
1297.397	17.748	1348940	REC_WORD	17.748	n/a	CHIMPANZEE	Zoo	10	12	[0, 0, 0]	n/a	catFR1	2	R1141T
1315.145	2.359	1366688	REC_END	n/a	n/a	n/a	n/a	-999	12	[0, 0, 0]	n/a	catFR1	2	R1141T
1317.504	0.0	1369046	COUNTDOWN_START	n/a	n/a	n/a	n/a	-999	13	[0, 0, 0]	n/a	catFR1	2	R1141T
1317.504	10.428	1369046	TRIAL	n/a	n/a	n/a	n/a	-999	13	[0, 0, 0]	n/a	catFR1	2	R1141T
1327.932	0.007	1379474	COUNTDOWN_END	n/a	n/a	n/a	n/a	-999	13	[0, 0, 0]	n/a	catFR1	2	R1141T
1327.939	3.734	1379481	ORIENT	n/a	n/a	n/a	n/a	-999	13	[0, 0, 0]	n/a	catFR1	2	R1141T
1331.673	2.568	1383215	WORD	n/a	wordpools/wordpool_categorized_EN.txt	DOLPHIN	OceanAnimals	1	13	[0, 0, 0]	n/a	catFR1	2	R1141T
1334.241	2.616	1385783	WORD	n/a	wordpools/wordpool_categorized_EN.txt	SHRIMP	OceanAnimals	2	13	[0, 0, 0]	n/a	catFR1	2	R1141T
1336.857	2.584	1388398	WORD	n/a	wordpools/wordpool_categorized_EN.txt	ORANGE	Fruit	3	13	[0, 0, 0]	n/a	catFR1	2	R1141T
1339.441	2.434	1390982	WORD	n/a	wordpools/wordpool_categorized_EN.txt	PEACH	Fruit	4	13	[0, 0, 0]	n/a	catFR1	2	R1141T
1341.875	2.584	1393416	WORD	n/a	wordpools/wordpool_categorized_EN.txt	PEELER	KitchenTools	5	13	[0, 0, 0]	n/a	catFR1	2	R1141T
1344.459	2.484	1396000	WORD	n/a	wordpools/wordpool_categorized_EN.txt	COLANDER	KitchenTools	6	13	[0, 0, 0]	n/a	catFR1	2	R1141T
1346.943	2.533	1398484	WORD	n/a	wordpools/wordpool_categorized_EN.txt	LIME	Fruit	7	13	[0, 0, 0]	n/a	catFR1	2	R1141T
1349.476	2.551	1401017	WORD	n/a	wordpools/wordpool_categorized_EN.txt	BLUEBERRY	Fruit	8	13	[0, 0, 0]	n/a	catFR1	2	R1141T
1352.027	2.467	1403568	WORD	n/a	wordpools/wordpool_categorized_EN.txt	JELLYFISH	OceanAnimals	9	13	[0, 0, 0]	n/a	catFR1	2	R1141T
1354.494	2.567	1406035	WORD	n/a	wordpools/wordpool_categorized_EN.txt	OCTOPUS	OceanAnimals	10	13	[0, 0, 0]	n/a	catFR1	2	R1141T
1357.061	2.501	1408601	WORD	n/a	wordpools/wordpool_categorized_EN.txt	LADLE	KitchenTools	11	13	[0, 0, 0]	n/a	catFR1	2	R1141T
1359.562	1.617	1411102	WORD	n/a	wordpools/wordpool_categorized_EN.txt	GRATER	KitchenTools	12	13	[0, 0, 0]	n/a	catFR1	2	R1141T
1361.179	0.002	1412719	DISTRACT_START	n/a	n/a	n/a	n/a	-999	13	[0, 0, 0]	n/a	catFR1	2	R1141T
1361.181	0.015	1412721	START	n/a	n/a	n/a	n/a	-999	13	[-999, -999, -999]	n/a	catFR1	2	R1141T
1361.196	5.617	1412736	PROB	5.617	n/a	n/a	n/a	-999	13	[7, 8, 6]	21	catFR1	2	R1141T
1366.813	3.651	1418353	PROB	3.651	n/a	n/a	n/a	-999	13	[3, 6, 9]	18	catFR1	2	R1141T
1370.464	2.317	1422004	PROB	2.317	n/a	n/a	n/a	-999	13	[5, 7, 8]	20	catFR1	2	R1141T
1372.781	3.167	1424321	PROB	3.167	n/a	n/a	n/a	-999	13	[3, 1, 3]	7	catFR1	2	R1141T
1375.948	6.093	1427488	PROB	6.093	n/a	n/a	n/a	-999	13	[3, 8, 9]	21	catFR1	2	R1141T
1382.041	0.008	1433580	STOP	n/a	n/a	n/a	n/a	-999	13	[-999, -999, -999]	n/a	catFR1	2	R1141T
1382.049	1.135	1433588	DISTRACT_END	n/a	n/a	n/a	n/a	-999	13	[0, 0, 0]	n/a	catFR1	2	R1141T
1383.184	1.742	1434723	REC_START	n/a	n/a	n/a	n/a	-999	13	[0, 0, 0]	n/a	catFR1	2	R1141T
1384.926	1.81	1436465	REC_WORD	1.81	n/a	COLANDER	KitchenTools	6	13	[0, 0, 0]	n/a	catFR1	2	R1141T
1386.736	6.206	1438275	REC_WORD	6.206	n/a	GRATER	KitchenTools	12	13	[0, 0, 0]	n/a	catFR1	2	R1141T
1392.942	5.446	1444481	REC_WORD	5.446	n/a	PEELER	KitchenTools	5	13	[0, 0, 0]	n/a	catFR1	2	R1141T
1398.388	5.673	1449926	REC_WORD	5.673	n/a	LADLE	KitchenTools	11	13	[0, 0, 0]	n/a	catFR1	2	R1141T
1404.061	9.135	1455599	REC_WORD	9.135	n/a	LIME	Fruit	7	13	[0, 0, 0]	n/a	catFR1	2	R1141T
1413.196	14.261	1464734	REC_END	n/a	n/a	n/a	n/a	-999	13	[0, 0, 0]	n/a	catFR1	2	R1141T
1427.457	0.0	1478994	TRIAL	n/a	n/a	n/a	n/a	-999	14	[0, 0, 0]	n/a	catFR1	2	R1141T
1427.457	10.428	1478994	COUNTDOWN_START	n/a	n/a	n/a	n/a	-999	14	[0, 0, 0]	n/a	catFR1	2	R1141T
1437.885	0.007	1489422	COUNTDOWN_END	n/a	n/a	n/a	n/a	-999	14	[0, 0, 0]	n/a	catFR1	2	R1141T
1437.892	3.784	1489429	ORIENT	n/a	n/a	n/a	n/a	-999	14	[0, 0, 0]	n/a	catFR1	2	R1141T
1441.676	2.368	1493212	WORD	n/a	wordpools/wordpool_categorized_EN.txt	WINE	Beverages	1	14	[0, 0, 0]	n/a	catFR1	2	R1141T
1444.044	2.467	1495580	WORD	n/a	wordpools/wordpool_categorized_EN.txt	RUM	Beverages	2	14	[0, 0, 0]	n/a	catFR1	2	R1141T
1446.511	2.467	1498047	WORD	n/a	wordpools/wordpool_categorized_EN.txt	OVEN	Appliances	3	14	[0, 0, 0]	n/a	catFR1	2	R1141T
1448.978	2.417	1500514	WORD	n/a	wordpools/wordpool_categorized_EN.txt	FREEZER	Appliances	4	14	[0, 0, 0]	n/a	catFR1	2	R1141T
1451.395	2.584	1502931	WORD	n/a	wordpools/wordpool_categorized_EN.txt	FORK	KitchenTools	5	14	[0, 0, 0]	n/a	catFR1	2	R1141T
1453.979	2.4	1505515	WORD	n/a	wordpools/wordpool_categorized_EN.txt	TONGS	KitchenTools	6	14	[0, 0, 0]	n/a	catFR1	2	R1141T
1456.379	2.417	1507915	WORD	n/a	wordpools/wordpool_categorized_EN.txt	CIDER	Beverages	7	14	[0, 0, 0]	n/a	catFR1	2	R1141T
1458.796	2.617	1510332	WORD	n/a	wordpools/wordpool_categorized_EN.txt	LEMONADE	Beverages	8	14	[0, 0, 0]	n/a	catFR1	2	R1141T
1461.413	2.434	1512948	WORD	n/a	wordpools/wordpool_categorized_EN.txt	CORKSCREW	KitchenTools	9	14	[0, 0, 0]	n/a	catFR1	2	R1141T
1463.847	2.468	1515382	WORD	n/a	wordpools/wordpool_categorized_EN.txt	STRAINER	KitchenTools	10	14	[0, 0, 0]	n/a	catFR1	2	R1141T
1466.315	2.45	1517850	WORD	n/a	wordpools/wordpool_categorized_EN.txt	VACUUM	Appliances	11	14	[0, 0, 0]	n/a	catFR1	2	R1141T
1468.765	1.617	1520300	WORD	n/a	wordpools/wordpool_categorized_EN.txt	TOASTER	Appliances	12	14	[0, 0, 0]	n/a	catFR1	2	R1141T
1470.382	0.001	1521917	DISTRACT_START	n/a	n/a	n/a	n/a	-999	14	[0, 0, 0]	n/a	catFR1	2	R1141T
1470.383	0.015	1521918	START	n/a	n/a	n/a	n/a	-999	14	[-999, -999, -999]	n/a	catFR1	2	R1141T
1470.398	5.335	1521933	PROB	5.335	n/a	n/a	n/a	-999	14	[9, 1, 7]	17	catFR1	2	R1141T
1475.733	2.333	1527268	PROB	2.333	n/a	n/a	n/a	-999	14	[4, 6, 9]	19	catFR1	2	R1141T
1478.066	3.384	1529601	PROB	3.384	n/a	n/a	n/a	-999	14	[1, 2, 4]	7	catFR1	2	R1141T
1481.45	2.584	1532984	PROB	2.584	n/a	n/a	n/a	-999	14	[8, 1, 3]	12	catFR1	2	R1141T
1484.034	4.351	1535568	PROB	4.351	n/a	n/a	n/a	-999	14	[7, 6, 5]	18	catFR1	2	R1141T
1488.385	2.384	1539919	PROB	2.384	n/a	n/a	n/a	-999	14	[1, 8, 9]	18	catFR1	2	R1141T
1490.769	0.016	1542303	STOP	n/a	n/a	n/a	n/a	-999	14	[-999, -999, -999]	n/a	catFR1	2	R1141T
1490.785	1.134	1542319	DISTRACT_END	n/a	n/a	n/a	n/a	-999	14	[0, 0, 0]	n/a	catFR1	2	R1141T
1491.919	1.643	1543453	REC_START	n/a	n/a	n/a	n/a	-999	14	[0, 0, 0]	n/a	catFR1	2	R1141T
1493.562	5.925	1545096	REC_WORD	5.925	n/a	WINE	Beverages	1	14	[0, 0, 0]	n/a	catFR1	2	R1141T
1499.487	4.107	1551021	REC_WORD	4.107	n/a	OVEN	Appliances	3	14	[0, 0, 0]	n/a	catFR1	2	R1141T
1503.594	9.304	1555127	REC_WORD	9.304	n/a	STRAINER	KitchenTools	10	14	[0, 0, 0]	n/a	catFR1	2	R1141T
1512.898	9.036	1564431	REC_WORD	9.036	n/a	VACUUM	Appliances	11	14	[0, 0, 0]	n/a	catFR1	2	R1141T
1521.934	2.208	1573466	REC_END	n/a	n/a	n/a	n/a	-999	14	[0, 0, 0]	n/a	catFR1	2	R1141T
1524.142	0.001	1575674	COUNTDOWN_START	n/a	n/a	n/a	n/a	-999	15	[0, 0, 0]	n/a	catFR1	2	R1141T
1524.143	10.427	1575675	TRIAL	n/a	n/a	n/a	n/a	-999	15	[0, 0, 0]	n/a	catFR1	2	R1141T
1534.57	0.007	1586102	COUNTDOWN_END	n/a	n/a	n/a	n/a	-999	15	[0, 0, 0]	n/a	catFR1	2	R1141T
1534.577	3.917	1586109	ORIENT	n/a	n/a	n/a	n/a	-999	15	[0, 0, 0]	n/a	catFR1	2	R1141T
1538.494	2.55	1590026	WORD	n/a	wordpools/wordpool_categorized_EN.txt	HORSE	FarmAnimals	1	15	[0, 0, 0]	n/a	catFR1	2	R1141T
1541.044	2.534	1592575	WORD	n/a	wordpools/wordpool_categorized_EN.txt	COW	FarmAnimals	2	15	[0, 0, 0]	n/a	catFR1	2	R1141T
1543.578	2.417	1595109	WORD	n/a	wordpools/wordpool_categorized_EN.txt	STAIRS	Building	3	15	[0, 0, 0]	n/a	catFR1	2	R1141T
1545.995	2.601	1597526	WORD	n/a	wordpools/wordpool_categorized_EN.txt	BATHROOM	Building	4	15	[0, 0, 0]	n/a	catFR1	2	R1141T
1548.596	2.484	1600127	WORD	n/a	wordpools/wordpool_categorized_EN.txt	FLY	Insects	5	15	[0, 0, 0]	n/a	catFR1	2	R1141T
1551.08	2.55	1602611	WORD	n/a	wordpools/wordpool_categorized_EN.txt	MOTH	Insects	6	15	[0, 0, 0]	n/a	catFR1	2	R1141T
1553.63	2.417	1605161	WORD	n/a	wordpools/wordpool_categorized_EN.txt	ATTIC	Building	7	15	[0, 0, 0]	n/a	catFR1	2	R1141T
1556.047	2.484	1607578	WORD	n/a	wordpools/wordpool_categorized_EN.txt	WINDOW	Building	8	15	[0, 0, 0]	n/a	catFR1	2	R1141T
1558.531	2.4	1610062	WORD	n/a	wordpools/wordpool_categorized_EN.txt	ROOSTER	FarmAnimals	9	15	[0, 0, 0]	n/a	catFR1	2	R1141T
1560.931	2.534	1612462	WORD	n/a	wordpools/wordpool_categorized_EN.txt	CALF	FarmAnimals	10	15	[0, 0, 0]	n/a	catFR1	2	R1141T
1563.465	2.551	1614995	WORD	n/a	wordpools/wordpool_categorized_EN.txt	BEETLE	Insects	11	15	[0, 0, 0]	n/a	catFR1	2	R1141T
1566.016	1.617	1617546	WORD	n/a	wordpools/wordpool_categorized_EN.txt	SPIDER	Insects	12	15	[0, 0, 0]	n/a	catFR1	2	R1141T
1567.633	0.001	1619163	DISTRACT_START	n/a	n/a	n/a	n/a	-999	15	[0, 0, 0]	n/a	catFR1	2	R1141T
1567.634	0.015	1619164	START	n/a	n/a	n/a	n/a	-999	15	[-999, -999, -999]	n/a	catFR1	2	R1141T
1567.649	5.251	1619179	PROB	5.251	n/a	n/a	n/a	-999	15	[9, 9, 2]	20	catFR1	2	R1141T
1572.9	4.001	1624430	PROB	4.001	n/a	n/a	n/a	-999	15	[5, 6, 3]	14	catFR1	2	R1141T
1576.901	2.5	1628431	PROB	2.5	n/a	n/a	n/a	-999	15	[4, 3, 4]	11	catFR1	2	R1141T
1579.401	2.501	1630931	PROB	2.501	n/a	n/a	n/a	-999	15	[8, 3, 9]	20	catFR1	2	R1141T
1581.902	2.418	1633431	PROB	2.418	n/a	n/a	n/a	-999	15	[7, 5, 8]	20	catFR1	2	R1141T
1584.32	2.533	1635849	PROB	2.533	n/a	n/a	n/a	-999	15	[7, 1, 4]	12	catFR1	2	R1141T
1586.853	5.051	1638382	PROB	5.051	n/a	n/a	n/a	-999	15	[8, 9, 6]	23	catFR1	2	R1141T
1591.904	0.016	1643433	STOP	n/a	n/a	n/a	n/a	-999	15	[-999, -999, -999]	n/a	catFR1	2	R1141T
1591.92	1.169	1643449	DISTRACT_END	n/a	n/a	n/a	n/a	-999	15	[0, 0, 0]	n/a	catFR1	2	R1141T
1593.089	1.664	1644618	REC_START	n/a	n/a	n/a	n/a	-999	15	[0, 0, 0]	n/a	catFR1	2	R1141T
1594.753	1.879	1646282	REC_WORD	1.879	n/a	HORSE	FarmAnimals	1	15	[0, 0, 0]	n/a	catFR1	2	R1141T
1596.632	1.415	1648161	REC_WORD	1.415	n/a	COW	FarmAnimals	2	15	[0, 0, 0]	n/a	catFR1	2	R1141T
1598.047	25.053	1649576	REC_WORD	25.053	n/a	CALF	FarmAnimals	10	15	[0, 0, 0]	n/a	catFR1	2	R1141T
1623.1	4.211	1674627	REC_END	n/a	n/a	n/a	n/a	-999	15	[0, 0, 0]	n/a	catFR1	2	R1141T
1627.311	0.0	1678838	TRIAL	n/a	n/a	n/a	n/a	-999	16	[0, 0, 0]	n/a	catFR1	2	R1141T
1627.311	10.428	1678838	COUNTDOWN_START	n/a	n/a	n/a	n/a	-999	16	[0, 0, 0]	n/a	catFR1	2	R1141T
1637.739	0.006	1689266	COUNTDOWN_END	n/a	n/a	n/a	n/a	-999	16	[0, 0, 0]	n/a	catFR1	2	R1141T
1637.745	3.751	1689272	ORIENT	n/a	n/a	n/a	n/a	-999	16	[0, 0, 0]	n/a	catFR1	2	R1141T
1641.496	2.567	1693023	WORD	n/a	wordpools/wordpool_categorized_EN.txt	FLOOR	Building	1	16	[0, 0, 0]	n/a	catFR1	2	R1141T
1644.063	2.384	1695589	WORD	n/a	wordpools/wordpool_categorized_EN.txt	ROOF	Building	2	16	[0, 0, 0]	n/a	catFR1	2	R1141T
1646.447	2.433	1697973	WORD	n/a	wordpools/wordpool_categorized_EN.txt	MAPLE	Trees	3	16	[0, 0, 0]	n/a	catFR1	2	R1141T
1648.88	2.518	1700406	WORD	n/a	wordpools/wordpool_categorized_EN.txt	WILLOW	Trees	4	16	[0, 0, 0]	n/a	catFR1	2	R1141T
1651.398	2.6	1702924	WORD	n/a	wordpools/wordpool_categorized_EN.txt	OCEAN	Landscapes	5	16	[0, 0, 0]	n/a	catFR1	2	R1141T
1653.998	2.484	1705524	WORD	n/a	wordpools/wordpool_categorized_EN.txt	MOUNTAIN	Landscapes	6	16	[0, 0, 0]	n/a	catFR1	2	R1141T
1656.482	2.484	1708008	WORD	n/a	wordpools/wordpool_categorized_EN.txt	WALL	Building	7	16	[0, 0, 0]	n/a	catFR1	2	R1141T
1658.966	2.6	1710492	WORD	n/a	wordpools/wordpool_categorized_EN.txt	FOUNDATION	Building	8	16	[0, 0, 0]	n/a	catFR1	2	R1141T
1661.566	2.467	1713092	WORD	n/a	wordpools/wordpool_categorized_EN.txt	STREAM	Landscapes	9	16	[0, 0, 0]	n/a	catFR1	2	R1141T
1664.033	2.501	1715558	WORD	n/a	wordpools/wordpool_categorized_EN.txt	BEACH	Landscapes	10	16	[0, 0, 0]	n/a	catFR1	2	R1141T
1666.534	2.568	1718059	WORD	n/a	wordpools/wordpool_categorized_EN.txt	CYPRESS	Trees	11	16	[0, 0, 0]	n/a	catFR1	2	R1141T
1669.102	1.616	1720627	WORD	n/a	wordpools/wordpool_categorized_EN.txt	BIRCH	Trees	12	16	[0, 0, 0]	n/a	catFR1	2	R1141T
1670.718	0.001	1722243	DISTRACT_START	n/a	n/a	n/a	n/a	-999	16	[0, 0, 0]	n/a	catFR1	2	R1141T
1670.719	0.016	1722244	START	n/a	n/a	n/a	n/a	-999	16	[-999, -999, -999]	n/a	catFR1	2	R1141T
1670.735	2.617	1722260	PROB	2.617	n/a	n/a	n/a	-999	16	[1, 9, 1]	11	catFR1	2	R1141T
1673.352	2.4	1724877	PROB	2.4	n/a	n/a	n/a	-999	16	[7, 9, 5]	21	catFR1	2	R1141T
1675.752	2.884	1727277	PROB	2.884	n/a	n/a	n/a	-999	16	[4, 2, 5]	11	catFR1	2	R1141T
1678.636	2.501	1730161	PROB	2.501	n/a	n/a	n/a	-999	16	[7, 3, 6]	16	catFR1	2	R1141T
1681.137	2.034	1732662	PROB	2.034	n/a	n/a	n/a	-999	16	[5, 5, 5]	15	catFR1	2	R1141T
1683.171	3.35	1734696	PROB	3.35	n/a	n/a	n/a	-999	16	[6, 5, 4]	15	catFR1	2	R1141T
1686.521	1.785	1738045	PROB	1.785	n/a	n/a	n/a	-999	16	[2, 1, 1]	4	catFR1	2	R1141T
1688.306	4.191	1739830	PROB	4.191	n/a	n/a	n/a	-999	16	[5, 1, 9]	15	catFR1	2	R1141T
1692.497	0.008	1744021	STOP	n/a	n/a	n/a	n/a	-999	16	[-999, -999, -999]	n/a	catFR1	2	R1141T
1692.505	1.068	1744029	DISTRACT_END	n/a	n/a	n/a	n/a	-999	16	[0, 0, 0]	n/a	catFR1	2	R1141T
1693.573	2.012	1745097	REC_START	n/a	n/a	n/a	n/a	-999	16	[0, 0, 0]	n/a	catFR1	2	R1141T
1695.585	1.248	1747109	REC_WORD	1.248	n/a	FLOOR	Building	1	16	[0, 0, 0]	n/a	catFR1	2	R1141T
1696.833	2.472	1748357	REC_WORD	2.472	n/a	WALL	Building	7	16	[0, 0, 0]	n/a	catFR1	2	R1141T
1699.305	24.28	1750829	REC_WORD	24.28	n/a	CEILING	n/a	-999	16	[0, 0, 0]	n/a	catFR1	2	R1141T
1723.585	2.677	1775108	REC_END	n/a	n/a	n/a	n/a	-999	16	[0, 0, 0]	n/a	catFR1	2	R1141T
1726.262	0.001	1777784	COUNTDOWN_START	n/a	n/a	n/a	n/a	-999	17	[0, 0, 0]	n/a	catFR1	2	R1141T
1726.263	10.427	1777785	TRIAL	n/a	n/a	n/a	n/a	-999	17	[0, 0, 0]	n/a	catFR1	2	R1141T
1736.69	0.007	1788212	COUNTDOWN_END	n/a	n/a	n/a	n/a	-999	17	[0, 0, 0]	n/a	catFR1	2	R1141T
1736.697	3.717	1788219	ORIENT	n/a	n/a	n/a	n/a	-999	17	[0, 0, 0]	n/a	catFR1	2	R1141T
1740.414	2.567	1791936	WORD	n/a	wordpools/wordpool_categorized_EN.txt	JELLO	Desserts	1	17	[0, 0, 0]	n/a	catFR1	2	R1141T
1742.981	2.601	1794503	WORD	n/a	wordpools/wordpool_categorized_EN.txt	COOKIE	Desserts	2	17	[0, 0, 0]	n/a	catFR1	2	R1141T
1745.582	2.601	1797103	WORD	n/a	wordpools/wordpool_categorized_EN.txt	PRINTER	Electronics	3	17	[0, 0, 0]	n/a	catFR1	2	R1141T
1748.183	2.416	1799704	WORD	n/a	wordpools/wordpool_categorized_EN.txt	COMPUTER	Electronics	4	17	[0, 0, 0]	n/a	catFR1	2	R1141T
1750.599	2.518	1802120	WORD	n/a	wordpools/wordpool_categorized_EN.txt	MIXER	Appliances	5	17	[0, 0, 0]	n/a	catFR1	2	R1141T
1753.117	2.383	1804638	WORD	n/a	wordpools/wordpool_categorized_EN.txt	DRYER	Appliances	6	17	[0, 0, 0]	n/a	catFR1	2	R1141T
1755.5	2.517	1807021	WORD	n/a	wordpools/wordpool_categorized_EN.txt	BROWNIES	Desserts	7	17	[0, 0, 0]	n/a	catFR1	2	R1141T
1758.017	2.401	1809538	WORD	n/a	wordpools/wordpool_categorized_EN.txt	CUPCAKE	Desserts	8	17	[0, 0, 0]	n/a	catFR1	2	R1141T
1760.418	2.433	1811939	WORD	n/a	wordpools/wordpool_categorized_EN.txt	REFRIGERATOR	Appliances	9	17	[0, 0, 0]	n/a	catFR1	2	R1141T
1762.851	2.385	1814372	WORD	n/a	wordpools/wordpool_categorized_EN.txt	STOVE	Appliances	10	17	[0, 0, 0]	n/a	catFR1	2	R1141T
1765.236	2.433	1816757	WORD	n/a	wordpools/wordpool_categorized_EN.txt	TELEVISION	Electronics	11	17	[0, 0, 0]	n/a	catFR1	2	R1141T
1767.669	1.618	1819189	WORD	n/a	wordpools/wordpool_categorized_EN.txt	SCANNER	Electronics	12	17	[0, 0, 0]	n/a	catFR1	2	R1141T
1769.287	0.001	1820807	DISTRACT_START	n/a	n/a	n/a	n/a	-999	17	[0, 0, 0]	n/a	catFR1	2	R1141T
1769.288	0.016	1820808	START	n/a	n/a	n/a	n/a	-999	17	[-999, -999, -999]	n/a	catFR1	2	R1141T
1769.304	8.033	1820824	PROB	8.033	n/a	n/a	n/a	-999	17	[2, 6, 5]	13	catFR1	2	R1141T
1777.337	2.952	1828857	PROB	2.952	n/a	n/a	n/a	-999	17	[7, 9, 7]	23	catFR1	2	R1141T
1780.289	2.967	1831809	PROB	2.967	n/a	n/a	n/a	-999	17	[7, 7, 3]	17	catFR1	2	R1141T
1783.256	3.783	1834776	PROB	3.783	n/a	n/a	n/a	-999	17	[4, 4, 9]	18	catFR1	2	R1141T
1787.039	2.417	1838558	PROB	2.417	n/a	n/a	n/a	-999	17	[5, 4, 6]	15	catFR1	2	R1141T
1789.456	0.017	1840975	STOP	n/a	n/a	n/a	n/a	-999	17	[-999, -999, -999]	n/a	catFR1	2	R1141T
1789.473	1.154	1840992	DISTRACT_END	n/a	n/a	n/a	n/a	-999	17	[0, 0, 0]	n/a	catFR1	2	R1141T
1790.627	1.33	1842146	REC_START	n/a	n/a	n/a	n/a	-999	17	[0, 0, 0]	n/a	catFR1	2	R1141T
1791.957	2.456	1843476	REC_WORD	2.456	n/a	SCANNER	Electronics	12	17	[0, 0, 0]	n/a	catFR1	2	R1141T
1794.413	9.596	1845932	REC_WORD	9.596	n/a	PRINTER	Electronics	3	17	[0, 0, 0]	n/a	catFR1	2	R1141T
1804.009	16.627	1855528	REC_WORD	16.627	n/a	JELLO	Desserts	1	17	[0, 0, 0]	n/a	catFR1	2	R1141T
1820.636	2.443	1872154	REC_END	n/a	n/a	n/a	n/a	-999	17	[0, 0, 0]	n/a	catFR1	2	R1141T
1823.079	0.0	1874597	TRIAL	n/a	n/a	n/a	n/a	-999	18	[0, 0, 0]	n/a	catFR1	2	R1141T
1823.079	10.428	1874597	COUNTDOWN_START	n/a	n/a	n/a	n/a	-999	18	[0, 0, 0]	n/a	catFR1	2	R1141T
1833.507	0.007	1885024	COUNTDOWN_END	n/a	n/a	n/a	n/a	-999	18	[0, 0, 0]	n/a	catFR1	2	R1141T
1833.514	3.585	1885031	ORIENT	n/a	n/a	n/a	n/a	-999	18	[0, 0, 0]	n/a	catFR1	2	R1141T
1837.099	2.416	1888616	WORD	n/a	wordpools/wordpool_categorized_EN.txt	SEAGULL	Birds	1	18	[0, 0, 0]	n/a	catFR1	2	R1141T
1839.515	2.585	1891032	WORD	n/a	wordpools/wordpool_categorized_EN.txt	ROBIN	Birds	2	18	[0, 0, 0]	n/a	catFR1	2	R1141T
1842.1	2.4	1893617	WORD	n/a	wordpools/wordpool_categorized_EN.txt	MILK	Beverages	3	18	[0, 0, 0]	n/a	catFR1	2	R1141T
1844.5	2.416	1896017	WORD	n/a	wordpools/wordpool_categorized_EN.txt	COFFEE	Beverages	4	18	[0, 0, 0]	n/a	catFR1	2	R1141T
1846.916	2.584	1898433	WORD	n/a	wordpools/wordpool_categorized_EN.txt	DRIZZLE	Weather	5	18	[0, 0, 0]	n/a	catFR1	2	R1141T
1849.5	2.568	1901016	WORD	n/a	wordpools/wordpool_categorized_EN.txt	CLOUD	Weather	6	18	[0, 0, 0]	n/a	catFR1	2	R1141T
1852.068	2.583	1903584	WORD	n/a	wordpools/wordpool_categorized_EN.txt	WATER	Beverages	7	18	[0, 0, 0]	n/a	catFR1	2	R1141T
1854.651	2.417	1906167	WORD	n/a	wordpools/wordpool_categorized_EN.txt	TEA	Beverages	8	18	[0, 0, 0]	n/a	catFR1	2	R1141T
1857.068	2.518	1908584	WORD	n/a	wordpools/wordpool_categorized_EN.txt	BLUEBIRD	Birds	9	18	[0, 0, 0]	n/a	catFR1	2	R1141T
1859.586	2.618	1911102	WORD	n/a	wordpools/wordpool_categorized_EN.txt	SPARROW	Birds	10	18	[0, 0, 0]	n/a	catFR1	2	R1141T
1862.204	2.516	1913720	WORD	n/a	wordpools/wordpool_categorized_EN.txt	TORNADO	Weather	11	18	[0, 0, 0]	n/a	catFR1	2	R1141T
1864.72	1.617	1916236	WORD	n/a	wordpools/wordpool_categorized_EN.txt	RAIN	Weather	12	18	[0, 0, 0]	n/a	catFR1	2	R1141T
1866.337	0.001	1917853	DISTRACT_START	n/a	n/a	n/a	n/a	-999	18	[0, 0, 0]	n/a	catFR1	2	R1141T
1866.338	0.016	1917854	START	n/a	n/a	n/a	n/a	-999	18	[-999, -999, -999]	n/a	catFR1	2	R1141T
1866.354	3.317	1917870	PROB	3.317	n/a	n/a	n/a	-999	18	[7, 3, 3]	13	catFR1	2	R1141T
1869.671	2.568	1921186	PROB	2.568	n/a	n/a	n/a	-999	18	[3, 6, 1]	10	catFR1	2	R1141T
1872.239	1.867	1923754	PROB	1.867	n/a	n/a	n/a	-999	18	[2, 4, 5]	11	catFR1	2	R1141T
1874.106	2.716	1925621	PROB	2.716	n/a	n/a	n/a	-999	18	[7, 8, 2]	17	catFR1	2	R1141T
1876.822	2.034	1928337	PROB	2.034	n/a	n/a	n/a	-999	18	[1, 1, 8]	10	catFR1	2	R1141T
1878.856	4.117	1930371	PROB	4.117	n/a	n/a	n/a	-999	18	[6, 9, 7]	22	catFR1	2	R1141T
1882.973	4.668	1934488	PROB	4.668	n/a	n/a	n/a	-999	18	[2, 3, 3]	8	catFR1	2	R1141T
1887.641	0.016	1939156	STOP	n/a	n/a	n/a	n/a	-999	18	[-999, -999, -999]	n/a	catFR1	2	R1141T
1887.657	1.068	1939172	DISTRACT_END	n/a	n/a	n/a	n/a	-999	18	[0, 0, 0]	n/a	catFR1	2	R1141T
1888.725	2.297	1940239	REC_START	n/a	n/a	n/a	n/a	-999	18	[0, 0, 0]	n/a	catFR1	2	R1141T
1891.022	4.115	1942536	REC_WORD	4.115	n/a	BLUEBIRD	Birds	9	18	[0, 0, 0]	n/a	catFR1	2	R1141T
1895.137	1.652	1946651	REC_WORD	1.652	n/a	WATER	Beverages	7	18	[0, 0, 0]	n/a	catFR1	2	R1141T
1896.789	4.025	1948303	REC_WORD	4.025	n/a	TEA	Beverages	8	18	[0, 0, 0]	n/a	catFR1	2	R1141T
1900.814	17.922	1952328	REC_WORD	17.922	n/a	SPARROW	Birds	10	18	[0, 0, 0]	n/a	catFR1	2	R1141T
1918.736	2.077	1970249	REC_END	n/a	n/a	n/a	n/a	-999	18	[0, 0, 0]	n/a	catFR1	2	R1141T
1920.813	0.0	1972326	TRIAL	n/a	n/a	n/a	n/a	-999	19	[0, 0, 0]	n/a	catFR1	2	R1141T
1920.813	10.428	1972326	COUNTDOWN_START	n/a	n/a	n/a	n/a	-999	19	[0, 0, 0]	n/a	catFR1	2	R1141T
1931.241	0.009	1982753	COUNTDOWN_END	n/a	n/a	n/a	n/a	-999	19	[0, 0, 0]	n/a	catFR1	2	R1141T
1931.25	3.95	1982762	ORIENT	n/a	n/a	n/a	n/a	-999	19	[0, 0, 0]	n/a	catFR1	2	R1141T
1935.2	2.45	1986712	WORD	n/a	wordpools/wordpool_categorized_EN.txt	ISLAND	Landscapes	1	19	[0, 0, 0]	n/a	catFR1	2	R1141T
1937.65	2.451	1989162	WORD	n/a	wordpools/wordpool_categorized_EN.txt	HILLS	Landscapes	2	19	[0, 0, 0]	n/a	catFR1	2	R1141T
1940.101	2.433	1991613	WORD	n/a	wordpools/wordpool_categorized_EN.txt	POTATO	Vegetables	3	19	[0, 0, 0]	n/a	catFR1	2	R1141T
1942.534	2.384	1994046	WORD	n/a	wordpools/wordpool_categorized_EN.txt	PEAS	Vegetables	4	19	[0, 0, 0]	n/a	catFR1	2	R1141T
1944.918	2.417	1996430	WORD	n/a	wordpools/wordpool_categorized_EN.txt	CHEESECAKE	Desserts	5	19	[0, 0, 0]	n/a	catFR1	2	R1141T
1947.335	2.484	1998847	WORD	n/a	wordpools/wordpool_categorized_EN.txt	PASTRY	Desserts	6	19	[0, 0, 0]	n/a	catFR1	2	R1141T
1949.819	2.435	2001330	WORD	n/a	wordpools/wordpool_categorized_EN.txt	VALLEY	Landscapes	7	19	[0, 0, 0]	n/a	catFR1	2	R1141T
1952.254	2.599	2003765	WORD	n/a	wordpools/wordpool_categorized_EN.txt	RIVER	Landscapes	8	19	[0, 0, 0]	n/a	catFR1	2	R1141T
1954.853	2.634	2006364	WORD	n/a	wordpools/wordpool_categorized_EN.txt	PUDDING	Desserts	9	19	[0, 0, 0]	n/a	catFR1	2	R1141T
1957.487	2.45	2008998	WORD	n/a	wordpools/wordpool_categorized_EN.txt	MOUSSE	Desserts	10	19	[0, 0, 0]	n/a	catFR1	2	R1141T
1959.937	2.617	2011448	WORD	n/a	wordpools/wordpool_categorized_EN.txt	LETTUCE	Vegetables	11	19	[0, 0, 0]	n/a	catFR1	2	R1141T
1962.554	1.601	2014065	WORD	n/a	wordpools/wordpool_categorized_EN.txt	CAULIFLOWER	Vegetables	12	19	[0, 0, 0]	n/a	catFR1	2	R1141T
1964.155	0.001	2015666	DISTRACT_START	n/a	n/a	n/a	n/a	-999	19	[0, 0, 0]	n/a	catFR1	2	R1141T
1964.156	0.016	2015667	START	n/a	n/a	n/a	n/a	-999	19	[-999, -999, -999]	n/a	catFR1	2	R1141T
1964.172	3.7	2015683	PROB	3.7	n/a	n/a	n/a	-999	19	[8, 8, 2]	18	catFR1	2	R1141T
1967.872	2.467	2019383	PROB	2.467	n/a	n/a	n/a	-999	19	[7, 4, 2]	13	catFR1	2	R1141T
1970.339	3.084	2021849	PROB	3.084	n/a	n/a	n/a	-999	19	[9, 7, 2]	18	catFR1	2	R1141T
1973.423	4.534	2024933	PROB	4.534	n/a	n/a	n/a	-999	19	[7, 7, 4]	18	catFR1	2	R1141T
1977.957	2.351	2029467	PROB	2.351	n/a	n/a	n/a	-999	19	[2, 4, 6]	12	catFR1	2	R1141T
1980.308	2.75	2031818	PROB	2.75	n/a	n/a	n/a	-999	19	[2, 8, 9]	19	catFR1	2	R1141T
1983.058	1.855	2034568	PROB	1.855	n/a	n/a	n/a	-999	19	[2, 3, 6]	11	catFR1	2	R1141T
1984.913	0.012	2036423	STOP	n/a	n/a	n/a	n/a	-999	19	[-999, -999, -999]	n/a	catFR1	2	R1141T
1984.925	1.034	2036435	DISTRACT_END	n/a	n/a	n/a	n/a	-999	19	[0, 0, 0]	n/a	catFR1	2	R1141T
1985.959	1.279	2037469	REC_START	n/a	n/a	n/a	n/a	-999	19	[0, 0, 0]	n/a	catFR1	2	R1141T
1987.238	1.59	2038748	REC_WORD	1.59	n/a	CHEESECAKE	Desserts	5	19	[0, 0, 0]	n/a	catFR1	2	R1141T
1988.828	2.097	2040338	REC_WORD	2.097	n/a	BROWNIES	n/a	-999	19	[0, 0, 0]	n/a	catFR1	2	R1141T
1990.925	2.617	2042434	REC_WORD	2.617	n/a	MOUSSE	Desserts	10	19	[0, 0, 0]	n/a	catFR1	2	R1141T
1993.542	22.432	2045051	REC_WORD	22.432	n/a	STREAM	n/a	-999	19	[0, 0, 0]	n/a	catFR1	2	R1141T
2015.974	2.208	2067482	REC_END	n/a	n/a	n/a	n/a	-999	19	[0, 0, 0]	n/a	catFR1	2	R1141T
2018.182	0.0	2069690	TRIAL	n/a	n/a	n/a	n/a	-999	20	[0, 0, 0]	n/a	catFR1	2	R1141T
2018.182	10.428	2069690	COUNTDOWN_START	n/a	n/a	n/a	n/a	-999	20	[0, 0, 0]	n/a	catFR1	2	R1141T
2028.61	0.006	2080118	COUNTDOWN_END	n/a	n/a	n/a	n/a	-999	20	[0, 0, 0]	n/a	catFR1	2	R1141T
2028.616	3.619	2080124	ORIENT	n/a	n/a	n/a	n/a	-999	20	[0, 0, 0]	n/a	catFR1	2	R1141T
2032.235	2.416	2083742	WORD	n/a	wordpools/wordpool_categorized_EN.txt	JEANS	Clothing	1	20	[0, 0, 0]	n/a	catFR1	2	R1141T
2034.651	2.534	2086158	WORD	n/a	wordpools/wordpool_categorized_EN.txt	BLOUSE	Clothing	2	20	[0, 0, 0]	n/a	catFR1	2	R1141T
2037.185	2.5	2088692	WORD	n/a	wordpools/wordpool_categorized_EN.txt	LAMB	FarmAnimals	3	20	[0, 0, 0]	n/a	catFR1	2	R1141T
2039.685	2.468	2091192	WORD	n/a	wordpools/wordpool_categorized_EN.txt	PIG	FarmAnimals	4	20	[0, 0, 0]	n/a	catFR1	2	R1141T
2042.153	2.55	2093660	WORD	n/a	wordpools/wordpool_categorized_EN.txt	STEREO	Electronics	5	20	[0, 0, 0]	n/a	catFR1	2	R1141T
2044.703	2.618	2096210	WORD	n/a	wordpools/wordpool_categorized_EN.txt	PHONE	Electronics	6	20	[0, 0, 0]	n/a	catFR1	2	R1141T
2047.321	2.599	2098828	WORD	n/a	wordpools/wordpool_categorized_EN.txt	TURKEY	FarmAnimals	7	20	[0, 0, 0]	n/a	catFR1	2	R1141T
2049.92	2.385	2101427	WORD	n/a	wordpools/wordpool_categorized_EN.txt	SHEEP	FarmAnimals	8	20	[0, 0, 0]	n/a	catFR1	2	R1141T
2052.305	2.549	2103811	WORD	n/a	wordpools/wordpool_categorized_EN.txt	SKIRT	Clothing	9	20	[0, 0, 0]	n/a	catFR1	2	R1141T
2054.854	2.385	2106360	WORD	n/a	wordpools/wordpool_categorized_EN.txt	UNDERWEAR	Clothing	10	20	[0, 0, 0]	n/a	catFR1	2	R1141T
2057.239	2.483	2108745	WORD	n/a	wordpools/wordpool_categorized_EN.txt	CALCULATOR	Electronics	11	20	[0, 0, 0]	n/a	catFR1	2	R1141T
2059.722	1.617	2111228	WORD	n/a	wordpools/wordpool_categorized_EN.txt	SPEAKER	Electronics	12	20	[0, 0, 0]	n/a	catFR1	2	R1141T
2061.339	0.001	2112845	DISTRACT_START	n/a	n/a	n/a	n/a	-999	20	[0, 0, 0]	n/a	catFR1	2	R1141T
2061.34	0.016	2112846	START	n/a	n/a	n/a	n/a	-999	20	[-999, -999, -999]	n/a	catFR1	2	R1141T
2061.356	3.735	2112862	PROB	3.735	n/a	n/a	n/a	-999	20	[5, 2, 3]	10	catFR1	2	R1141T
2065.091	4.067	2116597	PROB	4.067	n/a	n/a	n/a	-999	20	[4, 2, 3]	9	catFR1	2	R1141T
2069.158	1.616	2120664	PROB	1.616	n/a	n/a	n/a	-999	20	[4, 6, 2]	12	catFR1	2	R1141T
2070.774	4.284	2122280	PROB	4.284	n/a	n/a	n/a	-999	20	[5, 1, 7]	13	catFR1	2	R1141T
2075.058	2.751	2126563	PROB	2.751	n/a	n/a	n/a	-999	20	[9, 3, 3]	15	catFR1	2	R1141T
2077.809	8.079	2129314	PROB	8.079	n/a	n/a	n/a	-999	20	[7, 5, 1]	13	catFR1	2	R1141T
2085.888	0.006	2137393	STOP	n/a	n/a	n/a	n/a	-999	20	[-999, -999, -999]	n/a	catFR1	2	R1141T
2085.894	1.117	2137399	DISTRACT_END	n/a	n/a	n/a	n/a	-999	20	[0, 0, 0]	n/a	catFR1	2	R1141T
2087.011	0.983	2138516	REC_START	n/a	n/a	n/a	n/a	-999	20	[0, 0, 0]	n/a	catFR1	2	R1141T
2087.994	1.651	2139499	REC_WORD	1.651	n/a	JEANS	Clothing	1	20	[0, 0, 0]	n/a	catFR1	2	R1141T
2089.645	2.082	2141150	REC_WORD	2.082	n/a	SKIRT	Clothing	9	20	[0, 0, 0]	n/a	catFR1	2	R1141T
2091.727	4.167	2143232	REC_WORD	4.167	n/a	SHIRT	n/a	-999	20	[0, 0, 0]	n/a	catFR1	2	R1141T
2095.894	1.973	2147398	REC_WORD	1.973	n/a	GOAT	n/a	-999	20	[0, 0, 0]	n/a	catFR1	2	R1141T
2097.867	19.155	2149371	REC_WORD	19.155	n/a	LAMB	FarmAnimals	3	20	[0, 0, 0]	n/a	catFR1	2	R1141T
2117.022	2.245	2168525	REC_END	n/a	n/a	n/a	n/a	-999	20	[0, 0, 0]	n/a	catFR1	2	R1141T
2119.267	0.0	2170770	TRIAL	n/a	n/a	n/a	n/a	-999	21	[0, 0, 0]	n/a	catFR1	2	R1141T
2119.267	10.428	2170770	COUNTDOWN_START	n/a	n/a	n/a	n/a	-999	21	[0, 0, 0]	n/a	catFR1	2	R1141T
2129.695	0.006	2181198	COUNTDOWN_END	n/a	n/a	n/a	n/a	-999	21	[0, 0, 0]	n/a	catFR1	2	R1141T
2129.701	3.684	2181204	ORIENT	n/a	n/a	n/a	n/a	-999	21	[0, 0, 0]	n/a	catFR1	2	R1141T
2133.385	2.434	2184887	WORD	n/a	wordpools/wordpool_categorized_EN.txt	DRUM	Instruments	1	21	[0, 0, 0]	n/a	catFR1	2	R1141T
2135.819	2.468	2187321	WORD	n/a	wordpools/wordpool_categorized_EN.txt	TUBA	Instruments	2	21	[0, 0, 0]	n/a	catFR1	2	R1141T
2138.287	2.6	2189789	WORD	n/a	wordpools/wordpool_categorized_EN.txt	CAKE	Desserts	3	21	[0, 0, 0]	n/a	catFR1	2	R1141T
2140.887	2.5	2192389	WORD	n/a	wordpools/wordpool_categorized_EN.txt	FUDGE	Desserts	4	21	[0, 0, 0]	n/a	catFR1	2	R1141T
2143.387	2.551	2194889	WORD	n/a	wordpools/wordpool_categorized_EN.txt	CRAB	OceanAnimals	5	21	[0, 0, 0]	n/a	catFR1	2	R1141T
2145.938	2.517	2197440	WORD	n/a	wordpools/wordpool_categorized_EN.txt	TURTLE	OceanAnimals	6	21	[0, 0, 0]	n/a	catFR1	2	R1141T
2148.455	2.6	2199957	WORD	n/a	wordpools/wordpool_categorized_EN.txt	PIE	Desserts	7	21	[0, 0, 0]	n/a	catFR1	2	R1141T
2151.055	2.534	2202557	WORD	n/a	wordpools/wordpool_categorized_EN.txt	COBBLER	Desserts	8	21	[0, 0, 0]	n/a	catFR1	2	R1141T
2153.589	2.552	2205091	WORD	n/a	wordpools/wordpool_categorized_EN.txt	TROMBONE	Instruments	9	21	[0, 0, 0]	n/a	catFR1	2	R1141T
2156.141	2.532	2207642	WORD	n/a	wordpools/wordpool_categorized_EN.txt	BASS	Instruments	10	21	[0, 0, 0]	n/a	catFR1	2	R1141T
2158.673	2.435	2210174	WORD	n/a	wordpools/wordpool_categorized_EN.txt	FISH	OceanAnimals	11	21	[0, 0, 0]	n/a	catFR1	2	R1141T
2161.108	1.616	2212609	WORD	n/a	wordpools/wordpool_categorized_EN.txt	LOBSTER	OceanAnimals	12	21	[0, 0, 0]	n/a	catFR1	2	R1141T
2162.724	0.001	2214225	DISTRACT_START	n/a	n/a	n/a	n/a	-999	21	[0, 0, 0]	n/a	catFR1	2	R1141T
2162.725	0.016	2214226	START	n/a	n/a	n/a	n/a	-999	21	[-999, -999, -999]	n/a	catFR1	2	R1141T
2162.741	4.05	2214242	PROB	4.05	n/a	n/a	n/a	-999	21	[7, 6, 5]	18	catFR1	2	R1141T
2166.791	3.601	2218292	PROB	3.601	n/a	n/a	n/a	-999	21	[9, 2, 9]	20	catFR1	2	R1141T
2170.392	3.601	2221893	PROB	3.601	n/a	n/a	n/a	-999	21	[6, 7, 6]	19	catFR1	2	R1141T
2173.993	3.884	2225494	PROB	3.884	n/a	n/a	n/a	-999	21	[6, 5, 6]	17	catFR1	2	R1141T
2177.877	3.784	2229377	PROB	3.784	n/a	n/a	n/a	-999	21	[1, 2, 9]	12	catFR1	2	R1141T
2181.661	2.292	2233161	PROB	2.292	n/a	n/a	n/a	-999	21	[2, 2, 5]	9	catFR1	2	R1141T
2183.953	0.008	2235453	STOP	n/a	n/a	n/a	n/a	-999	21	[-999, -999, -999]	n/a	catFR1	2	R1141T
2183.961	1.135	2235461	DISTRACT_END	n/a	n/a	n/a	n/a	-999	21	[0, 0, 0]	n/a	catFR1	2	R1141T
2185.096	1.324	2236596	REC_START	n/a	n/a	n/a	n/a	-999	21	[0, 0, 0]	n/a	catFR1	2	R1141T
2186.42	2.349	2237920	REC_WORD	2.349	n/a	TROMBONE	Instruments	9	21	[0, 0, 0]	n/a	catFR1	2	R1141T
2188.769	14.11	2240269	REC_WORD	14.11	n/a	BASS	Instruments	10	21	[0, 0, 0]	n/a	catFR1	2	R1141T
2202.879	7.829	2254378	REC_WORD	7.829	n/a	OCTOPUS	n/a	-999	21	[0, 0, 0]	n/a	catFR1	2	R1141T
2210.708	4.404	2262207	REC_WORD	4.404	n/a	TRUMPET	n/a	-999	21	[0, 0, 0]	n/a	catFR1	2	R1141T
2215.112	2.639	2266610	REC_END	n/a	n/a	n/a	n/a	-999	21	[0, 0, 0]	n/a	catFR1	2	R1141T
2217.751	0.0	2269249	COUNTDOWN_START	n/a	n/a	n/a	n/a	-999	22	[0, 0, 0]	n/a	catFR1	2	R1141T
2217.751	10.428	2269249	TRIAL	n/a	n/a	n/a	n/a	-999	22	[0, 0, 0]	n/a	catFR1	2	R1141T
2228.179	0.008	2279677	COUNTDOWN_END	n/a	n/a	n/a	n/a	-999	22	[0, 0, 0]	n/a	catFR1	2	R1141T
2228.187	3.8	2279685	ORIENT	n/a	n/a	n/a	n/a	-999	22	[0, 0, 0]	n/a	catFR1	2	R1141T
2231.987	2.533	2283485	WORD	n/a	wordpools/wordpool_categorized_EN.txt	MARBLES	Toys	1	22	[0, 0, 0]	n/a	catFR1	2	R1141T
2234.52	2.585	2286018	WORD	n/a	wordpools/wordpool_categorized_EN.txt	BASEBALL	Toys	2	22	[0, 0, 0]	n/a	catFR1	2	R1141T
2237.105	2.483	2288602	WORD	n/a	wordpools/wordpool_categorized_EN.txt	OYSTER	OceanAnimals	3	22	[0, 0, 0]	n/a	catFR1	2	R1141T
2239.588	2.551	2291085	WORD	n/a	wordpools/wordpool_categorized_EN.txt	PLANKTON	OceanAnimals	4	22	[0, 0, 0]	n/a	catFR1	2	R1141T
2242.139	2.6	2293636	WORD	n/a	wordpools/wordpool_categorized_EN.txt	PAPER	OfficeSupplies	5	22	[0, 0, 0]	n/a	catFR1	2	R1141T
2244.739	2.518	2296236	WORD	n/a	wordpools/wordpool_categorized_EN.txt	FOLDER	OfficeSupplies	6	22	[0, 0, 0]	n/a	catFR1	2	R1141T
2247.257	2.416	2298754	WORD	n/a	wordpools/wordpool_categorized_EN.txt	BASKETBALL	Toys	7	22	[0, 0, 0]	n/a	catFR1	2	R1141T
2249.673	2.435	2301170	WORD	n/a	wordpools/wordpool_categorized_EN.txt	BLOCKS	Toys	8	22	[0, 0, 0]	n/a	catFR1	2	R1141T
2252.108	2.583	2303605	WORD	n/a	wordpools/wordpool_categorized_EN.txt	GLUE	OfficeSupplies	9	22	[0, 0, 0]	n/a	catFR1	2	R1141T
2254.691	2.435	2306188	WORD	n/a	wordpools/wordpool_categorized_EN.txt	STAPLER	OfficeSupplies	10	22	[0, 0, 0]	n/a	catFR1	2	R1141T
2257.126	2.382	2308622	WORD	n/a	wordpools/wordpool_categorized_EN.txt	WHALE	OceanAnimals	11	22	[0, 0, 0]	n/a	catFR1	2	R1141T
2259.508	1.601	2311004	WORD	n/a	wordpools/wordpool_categorized_EN.txt	SQUID	OceanAnimals	12	22	[0, 0, 0]	n/a	catFR1	2	R1141T
2261.109	0.001	2312605	DISTRACT_START	n/a	n/a	n/a	n/a	-999	22	[0, 0, 0]	n/a	catFR1	2	R1141T
2261.11	0.016	2312606	START	n/a	n/a	n/a	n/a	-999	22	[-999, -999, -999]	n/a	catFR1	2	R1141T
2261.126	3.617	2312622	PROB	3.617	n/a	n/a	n/a	-999	22	[7, 7, 9]	23	catFR1	2	R1141T
2264.743	3.451	2316239	PROB	3.451	n/a	n/a	n/a	-999	22	[1, 8, 5]	14	catFR1	2	R1141T
2268.194	2.233	2319690	PROB	2.233	n/a	n/a	n/a	-999	22	[8, 1, 1]	10	catFR1	2	R1141T
2270.427	1.835	2321923	PROB	1.835	n/a	n/a	n/a	-999	22	[2, 8, 2]	12	catFR1	2	R1141T
2272.262	2.516	2323758	PROB	2.516	n/a	n/a	n/a	-999	22	[3, 4, 8]	15	catFR1	2	R1141T
2274.778	3.75	2326274	PROB	3.75	n/a	n/a	n/a	-999	22	[8, 1, 4]	13	catFR1	2	R1141T
2278.528	2.434	2330023	PROB	2.434	n/a	n/a	n/a	-999	22	[1, 4, 6]	11	catFR1	2	R1141T
2280.962	3.895	2332457	PROB	3.895	n/a	n/a	n/a	-999	22	[3, 6, 5]	13	catFR1	2	R1141T
2284.857	0.006	2336352	STOP	n/a	n/a	n/a	n/a	-999	22	[-999, -999, -999]	n/a	catFR1	2	R1141T
2284.863	1.117	2336358	DISTRACT_END	n/a	n/a	n/a	n/a	-999	22	[0, 0, 0]	n/a	catFR1	2	R1141T
2285.98	29.052	2337475	REC_START	n/a	n/a	n/a	n/a	-999	22	[0, 0, 0]	n/a	catFR1	2	R1141T
2315.032	0.964	2366526	REC_WORD_VV	0.964	n/a	<>	n/a	-999	22	[0, 0, 0]	n/a	catFR1	2	R1141T
2315.996	2.456	2367490	REC_END	n/a	n/a	n/a	n/a	-999	22	[0, 0, 0]	n/a	catFR1	2	R1141T
2318.452	0.001	2369945	COUNTDOWN_START	n/a	n/a	n/a	n/a	-999	23	[0, 0, 0]	n/a	catFR1	2	R1141T
2318.453	10.427	2369946	TRIAL	n/a	n/a	n/a	n/a	-999	23	[0, 0, 0]	n/a	catFR1	2	R1141T
2328.88	0.008	2380373	COUNTDOWN_END	n/a	n/a	n/a	n/a	-999	23	[0, 0, 0]	n/a	catFR1	2	R1141T
2328.888	3.967	2380381	ORIENT	n/a	n/a	n/a	n/a	-999	23	[0, 0, 0]	n/a	catFR1	2	R1141T
2332.855	2.617	2384348	WORD	n/a	wordpools/wordpool_categorized_EN.txt	ROOM	Building	1	23	[0, 0, 0]	n/a	catFR1	2	R1141T
2335.472	2.517	2386965	WORD	n/a	wordpools/wordpool_categorized_EN.txt	DOOR	Building	2	23	[0, 0, 0]	n/a	catFR1	2	R1141T
2337.989	2.467	2389481	WORD	n/a	wordpools/wordpool_categorized_EN.txt	SLINKY	Toys	3	23	[0, 0, 0]	n/a	catFR1	2	R1141T
2340.456	2.567	2391948	WORD	n/a	wordpools/wordpool_categorized_EN.txt	BALL	Toys	4	23	[0, 0, 0]	n/a	catFR1	2	R1141T
2343.023	2.618	2394515	WORD	n/a	wordpools/wordpool_categorized_EN.txt	APPLE	Fruit	5	23	[0, 0, 0]	n/a	catFR1	2	R1141T
2345.641	2.518	2397133	WORD	n/a	wordpools/wordpool_categorized_EN.txt	STRAWBERRY	Fruit	6	23	[0, 0, 0]	n/a	catFR1	2	R1141T
2348.159	2.432	2399651	WORD	n/a	wordpools/wordpool_categorized_EN.txt	BARBIE	Toys	7	23	[0, 0, 0]	n/a	catFR1	2	R1141T
2350.591	2.401	2402083	WORD	n/a	wordpools/wordpool_categorized_EN.txt	DOLLHOUSE	Toys	8	23	[0, 0, 0]	n/a	catFR1	2	R1141T
2352.992	2.584	2404484	WORD	n/a	wordpools/wordpool_categorized_EN.txt	HALLWAY	Building	9	23	[0, 0, 0]	n/a	catFR1	2	R1141T
2355.576	2.467	2407068	WORD	n/a	wordpools/wordpool_categorized_EN.txt	CEILING	Building	10	23	[0, 0, 0]	n/a	catFR1	2	R1141T
2358.043	2.434	2409534	WORD	n/a	wordpools/wordpool_categorized_EN.txt	BANANA	Fruit	11	23	[0, 0, 0]	n/a	catFR1	2	R1141T
2360.477	1.618	2411968	WORD	n/a	wordpools/wordpool_categorized_EN.txt	CHERRY	Fruit	12	23	[0, 0, 0]	n/a	catFR1	2	R1141T
2362.095	0.001	2413586	DISTRACT_START	n/a	n/a	n/a	n/a	-999	23	[0, 0, 0]	n/a	catFR1	2	R1141T
2362.096	0.015	2413587	START	n/a	n/a	n/a	n/a	-999	23	[-999, -999, -999]	n/a	catFR1	2	R1141T
2362.111	3.917	2413602	PROB	3.917	n/a	n/a	n/a	-999	23	[1, 8, 9]	18	catFR1	2	R1141T
2366.028	4.168	2417519	PROB	4.168	n/a	n/a	n/a	-999	23	[9, 4, 9]	22	catFR1	2	R1141T
2370.196	4.6	2421687	PROB	4.6	n/a	n/a	n/a	-999	23	[2, 4, 3]	9	catFR1	2	R1141T
2374.796	2.217	2426287	PROB	2.217	n/a	n/a	n/a	-999	23	[5, 3, 4]	12	catFR1	2	R1141T
2377.013	1.867	2428504	PROB	1.867	n/a	n/a	n/a	-999	23	[8, 6, 6]	21	catFR1	2	R1141T
2378.88	3.936	2430370	PROB	3.936	n/a	n/a	n/a	-999	23	[5, 6, 5]	16	catFR1	2	R1141T
2382.816	0.015	2434306	STOP	n/a	n/a	n/a	n/a	-999	23	[-999, -999, -999]	n/a	catFR1	2	R1141T
2382.831	1.167	2434321	DISTRACT_END	n/a	n/a	n/a	n/a	-999	23	[0, 0, 0]	n/a	catFR1	2	R1141T
2383.998	1.831	2435488	REC_START	n/a	n/a	n/a	n/a	-999	23	[0, 0, 0]	n/a	catFR1	2	R1141T
2385.829	2.175	2437319	REC_WORD	2.175	n/a	CEILING	Building	10	23	[0, 0, 0]	n/a	catFR1	2	R1141T
2388.004	1.843	2439494	REC_WORD	1.843	n/a	ROOM	Building	1	23	[0, 0, 0]	n/a	catFR1	2	R1141T
2389.847	1.708	2441337	REC_WORD	1.708	n/a	DOOR	Building	2	23	[0, 0, 0]	n/a	catFR1	2	R1141T
2391.555	2.53	2443045	REC_WORD	2.53	n/a	SLINKY	Toys	3	23	[0, 0, 0]	n/a	catFR1	2	R1141T
2394.085	1.816	2445575	REC_WORD	1.816	n/a	DOLL	n/a	-999	23	[0, 0, 0]	n/a	catFR1	2	R1141T
2395.901	7.063	2447391	REC_WORD	7.063	n/a	DOLLHOUSE	Toys	8	23	[0, 0, 0]	n/a	catFR1	2	R1141T
2402.964	1.802	2454453	REC_WORD	1.802	n/a	CHERRY	Fruit	12	23	[0, 0, 0]	n/a	catFR1	2	R1141T
2404.766	9.244	2456255	REC_WORD	9.244	n/a	BANANA	Fruit	11	23	[0, 0, 0]	n/a	catFR1	2	R1141T
2414.01	2.111	2465499	REC_END	n/a	n/a	n/a	n/a	-999	23	[0, 0, 0]	n/a	catFR1	2	R1141T
2416.121	0.0	2467610	COUNTDOWN_START	n/a	n/a	n/a	n/a	-999	24	[0, 0, 0]	n/a	catFR1	2	R1141T
2416.121	10.428	2467610	TRIAL	n/a	n/a	n/a	n/a	-999	24	[0, 0, 0]	n/a	catFR1	2	R1141T
2426.549	0.006	2478037	COUNTDOWN_END	n/a	n/a	n/a	n/a	-999	24	[0, 0, 0]	n/a	catFR1	2	R1141T
2426.555	3.635	2478043	ORIENT	n/a	n/a	n/a	n/a	-999	24	[0, 0, 0]	n/a	catFR1	2	R1141T
2430.19	2.4	2481678	WORD	n/a	wordpools/wordpool_categorized_EN.txt	CEDAR	Trees	1	24	[0, 0, 0]	n/a	catFR1	2	R1141T
2432.59	2.467	2484078	WORD	n/a	wordpools/wordpool_categorized_EN.txt	SPRUCE	Trees	2	24	[0, 0, 0]	n/a	catFR1	2	R1141T
2435.057	2.5	2486545	WORD	n/a	wordpools/wordpool_categorized_EN.txt	DRESS	Clothing	3	24	[0, 0, 0]	n/a	catFR1	2	R1141T
2437.557	2.517	2489045	WORD	n/a	wordpools/wordpool_categorized_EN.txt	SHIRT	Clothing	4	24	[0, 0, 0]	n/a	catFR1	2	R1141T
2440.074	2.534	2491561	WORD	n/a	wordpools/wordpool_categorized_EN.txt	CHAIR	Furniture	5	24	[0, 0, 0]	n/a	catFR1	2	R1141T
2442.608	2.518	2494095	WORD	n/a	wordpools/wordpool_categorized_EN.txt	SHELF	Furniture	6	24	[0, 0, 0]	n/a	catFR1	2	R1141T
2445.126	2.533	2496613	WORD	n/a	wordpools/wordpool_categorized_EN.txt	PINE	Trees	7	24	[0, 0, 0]	n/a	catFR1	2	R1141T
2447.659	2.535	2499146	WORD	n/a	wordpools/wordpool_categorized_EN.txt	WALNUT	Trees	8	24	[0, 0, 0]	n/a	catFR1	2	R1141T
2450.194	2.466	2501681	WORD	n/a	wordpools/wordpool_categorized_EN.txt	TABLE	Furniture	9	24	[0, 0, 0]	n/a	catFR1	2	R1141T
2452.66	2.551	2504147	WORD	n/a	wordpools/wordpool_categorized_EN.txt	DRESSER	Furniture	10	24	[0, 0, 0]	n/a	catFR1	2	R1141T
2455.211	2.466	2506698	WORD	n/a	wordpools/wordpool_categorized_EN.txt	SHOES	Clothing	11	24	[0, 0, 0]	n/a	catFR1	2	R1141T
2457.677	1.602	2509164	WORD	n/a	wordpools/wordpool_categorized_EN.txt	PANTS	Clothing	12	24	[0, 0, 0]	n/a	catFR1	2	R1141T
2459.279	0.001	2510766	DISTRACT_START	n/a	n/a	n/a	n/a	-999	24	[0, 0, 0]	n/a	catFR1	2	R1141T
2459.28	0.016	2510767	START	n/a	n/a	n/a	n/a	-999	24	[-999, -999, -999]	n/a	catFR1	2	R1141T
2459.296	3.349	2510783	PROB	3.349	n/a	n/a	n/a	-999	24	[7, 3, 8]	18	catFR1	2	R1141T
2462.645	3.817	2514131	PROB	3.817	n/a	n/a	n/a	-999	24	[8, 8, 4]	20	catFR1	2	R1141T
2466.462	2.752	2517948	PROB	2.752	n/a	n/a	n/a	-999	24	[4, 2, 9]	15	catFR1	2	R1141T
2469.214	2.283	2520700	PROB	2.283	n/a	n/a	n/a	-999	24	[4, 2, 5]	11	catFR1	2	R1141T
2471.497	2.668	2522983	PROB	2.668	n/a	n/a	n/a	-999	24	[1, 5, 3]	9	catFR1	2	R1141T
2474.165	3.733	2525651	PROB	3.733	n/a	n/a	n/a	-999	24	[5, 6, 3]	14	catFR1	2	R1141T
2477.898	2.591	2529384	PROB	2.591	n/a	n/a	n/a	-999	24	[3, 6, 9]	18	catFR1	2	R1141T
2480.489	0.009	2531975	STOP	n/a	n/a	n/a	n/a	-999	24	[-999, -999, -999]	n/a	catFR1	2	R1141T
2480.498	1.051	2531984	DISTRACT_END	n/a	n/a	n/a	n/a	-999	24	[0, 0, 0]	n/a	catFR1	2	R1141T
2481.549	1.366	2533034	REC_START	n/a	n/a	n/a	n/a	-999	24	[0, 0, 0]	n/a	catFR1	2	R1141T
2482.915	1.274	2534400	REC_WORD	1.274	n/a	CEDAR	Trees	1	24	[0, 0, 0]	n/a	catFR1	2	R1141T
2484.189	2.125	2535674	REC_WORD	2.125	n/a	SPRUCE	Trees	2	24	[0, 0, 0]	n/a	catFR1	2	R1141T
2486.314	5.831	2537799	REC_WORD	5.831	n/a	PINE	Trees	7	24	[0, 0, 0]	n/a	catFR1	2	R1141T
2492.145	19.42	2543630	REC_WORD	19.42	n/a	SHOES	Clothing	11	24	[0, 0, 0]	n/a	catFR1	2	R1141T
2511.565	2.839	2563049	REC_END	n/a	n/a	n/a	n/a	-999	24	[0, 0, 0]	n/a	catFR1	2	R1141T
2514.404	0.0	2565888	TRIAL	n/a	n/a	n/a	n/a	-999	25	[0, 0, 0]	n/a	catFR1	2	R1141T
2514.404	10.428	2565888	COUNTDOWN_START	n/a	n/a	n/a	n/a	-999	25	[0, 0, 0]	n/a	catFR1	2	R1141T
2524.832	0.008	2576315	COUNTDOWN_END	n/a	n/a	n/a	n/a	-999	25	[0, 0, 0]	n/a	catFR1	2	R1141T
2524.84	3.667	2576323	ORIENT	n/a	n/a	n/a	n/a	-999	25	[0, 0, 0]	n/a	catFR1	2	R1141T
2528.507	2.451	2579990	WORD	n/a	wordpools/wordpool_categorized_EN.txt	THUNDER	Weather	1	25	[0, 0, 0]	n/a	catFR1	2	R1141T
2530.958	2.467	2582441	WORD	n/a	wordpools/wordpool_categorized_EN.txt	SNOW	Weather	2	25	[0, 0, 0]	n/a	catFR1	2	R1141T
2533.425	2.584	2584908	WORD	n/a	wordpools/wordpool_categorized_EN.txt	SPATULA	KitchenTools	3	25	[0, 0, 0]	n/a	catFR1	2	R1141T
2536.009	2.417	2587492	WORD	n/a	wordpools/wordpool_categorized_EN.txt	KNIFE	KitchenTools	4	25	[0, 0, 0]	n/a	catFR1	2	R1141T
2538.426	2.583	2589909	WORD	n/a	wordpools/wordpool_categorized_EN.txt	DRILL	Tools	5	25	[0, 0, 0]	n/a	catFR1	2	R1141T
2541.009	2.568	2592492	WORD	n/a	wordpools/wordpool_categorized_EN.txt	AXE	Tools	6	25	[0, 0, 0]	n/a	catFR1	2	R1141T
2543.577	2.517	2595059	WORD	n/a	wordpools/wordpool_categorized_EN.txt	WHISK	KitchenTools	7	25	[0, 0, 0]	n/a	catFR1	2	R1141T
2546.094	2.433	2597576	WORD	n/a	wordpools/wordpool_categorized_EN.txt	SPOON	KitchenTools	8	25	[0, 0, 0]	n/a	catFR1	2	R1141T
2548.527	2.518	2600009	WORD	n/a	wordpools/wordpool_categorized_EN.txt	HUMIDITY	Weather	9	25	[0, 0, 0]	n/a	catFR1	2	R1141T
2551.045	2.467	2602527	WORD	n/a	wordpools/wordpool_categorized_EN.txt	FOG	Weather	10	25	[0, 0, 0]	n/a	catFR1	2	R1141T
2553.512	2.434	2604994	WORD	n/a	wordpools/wordpool_categorized_EN.txt	LEVEL	Tools	11	25	[0, 0, 0]	n/a	catFR1	2	R1141T
2555.946	1.616	2607428	WORD	n/a	wordpools/wordpool_categorized_EN.txt	SHOVEL	Tools	12	25	[0, 0, 0]	n/a	catFR1	2	R1141T
2557.562	0.001	2609044	DISTRACT_START	n/a	n/a	n/a	n/a	-999	25	[0, 0, 0]	n/a	catFR1	2	R1141T
2557.563	0.016	2609045	START	n/a	n/a	n/a	n/a	-999	25	[-999, -999, -999]	n/a	catFR1	2	R1141T
2557.579	6.669	2609061	PROB	6.669	n/a	n/a	n/a	-999	25	[9, 3, 9]	21	catFR1	2	R1141T
2564.248	2.749	2615729	PROB	2.749	n/a	n/a	n/a	-999	25	[8, 5, 8]	21	catFR1	2	R1141T
2566.997	3.034	2618478	PROB	3.034	n/a	n/a	n/a	-999	25	[6, 1, 3]	10	catFR1	2	R1141T
2570.031	2.634	2621512	PROB	2.634	n/a	n/a	n/a	-999	25	[8, 3, 8]	19	catFR1	2	R1141T
2572.665	1.917	2624146	PROB	1.917	n/a	n/a	n/a	-999	25	[3, 3, 3]	9	catFR1	2	R1141T
2574.582	2.451	2626063	PROB	2.451	n/a	n/a	n/a	-999	25	[3, 7, 1]	11	catFR1	2	R1141T
2577.033	4.392	2628514	PROB	4.392	n/a	n/a	n/a	-999	25	[6, 7, 9]	22	catFR1	2	R1141T
2581.425	0.008	2632906	STOP	n/a	n/a	n/a	n/a	-999	25	[-999, -999, -999]	n/a	catFR1	2	R1141T
2581.433	1.118	2632914	DISTRACT_END	n/a	n/a	n/a	n/a	-999	25	[0, 0, 0]	n/a	catFR1	2	R1141T
2582.551	1.732	2634032	REC_START	n/a	n/a	n/a	n/a	-999	25	[0, 0, 0]	n/a	catFR1	2	R1141T
2584.283	1.224	2635763	REC_WORD	1.224	n/a	THUNDER	Weather	1	25	[0, 0, 0]	n/a	catFR1	2	R1141T
2585.507	3.87	2636987	REC_WORD	3.87	n/a	SPOON	KitchenTools	8	25	[0, 0, 0]	n/a	catFR1	2	R1141T
2589.377	3.867	2640857	REC_WORD	3.867	n/a	SPATULA	KitchenTools	3	25	[0, 0, 0]	n/a	catFR1	2	R1141T
2593.244	3.053	2644724	REC_WORD	3.053	n/a	HUMIDITY	Weather	9	25	[0, 0, 0]	n/a	catFR1	2	R1141T
2596.297	8.492	2647777	REC_WORD	8.492	n/a	FOG	Weather	10	25	[0, 0, 0]	n/a	catFR1	2	R1141T
2604.789	7.773	2656268	REC_WORD	7.773	n/a	WHISK	KitchenTools	7	25	[0, 0, 0]	n/a	catFR1	2	R1141T
2612.562	32.117	2664041	REC_END	n/a	n/a	n/a	n/a	-999	25	[0, 0, 0]	n/a	catFR1	2	R1141T
2644.679	0.0	2696156	SESS_END	n/a	n/a	n/a	n/a	-999	25	[0, 0, 0]	n/a	catFR1	2	R1141T
