onset	duration	sample	trial_type	response_time	stim_file	item_name	category	serialpos	list	test	answer	experiment	session	subject
0.0	22.766	257074	INSTRUCT_START	n/a	n/a	n/a	n/a	-999	-999	[0, 0, 0]	n/a	catFR1	1	R1542J
22.766	33.883	279841	INSTRUCT_END	n/a	n/a	n/a	n/a	-999	-999	[0, 0, 0]	n/a	catFR1	1	R1542J
56.649	10.351	313731	COUNTDOWN_START	n/a	n/a	n/a	n/a	-999	-999	[0, 0, 0]	n/a	catFR1	1	R1542J
67.0	0.0	324074	COUNTDOWN_END	n/a	n/a	n/a	n/a	-999	-999	[0, 0, 0]	n/a	catFR1	1	R1542J
67.0	2.25	324074	ENCODING_START	n/a	n/a	n/a	n/a	-999	-1	[0, 0, 0]	n/a	catFR1	1	R1542J
69.25	1.599	326318	WORD	n/a	n/a	CAKE	Desserts	1	-1	[0, 0, 0]	n/a	catFR1	1	R1542J
70.849	0.95	327928	WORD_OFF	n/a	n/a	CAKE	Desserts	1	-1	[0, 0, 0]	n/a	catFR1	1	R1542J
71.799	1.617	328872	WORD	n/a	n/a	JELLO	Desserts	2	-1	[0, 0, 0]	n/a	catFR1	1	R1542J
73.416	0.833	330498	WORD_OFF	n/a	n/a	JELLO	Desserts	2	-1	[0, 0, 0]	n/a	catFR1	1	R1542J
74.249	1.615	331327	WORD	n/a	n/a	COTTON	Fabric	3	-1	[0, 0, 0]	n/a	catFR1	1	R1542J
75.864	0.768	332937	WORD_OFF	n/a	n/a	COTTON	Fabric	3	-1	[0, 0, 0]	n/a	catFR1	1	R1542J
76.632	1.6	333701	WORD	n/a	n/a	DENIM	Fabric	4	-1	[0, 0, 0]	n/a	catFR1	1	R1542J
78.232	0.884	335311	WORD_OFF	n/a	n/a	DENIM	Fabric	4	-1	[0, 0, 0]	n/a	catFR1	1	R1542J
79.116	1.616	336190	WORD	n/a	n/a	WATER	Beverages	5	-1	[0, 0, 0]	n/a	catFR1	1	R1542J
80.732	0.867	337816	WORD_OFF	n/a	n/a	WATER	Beverages	5	-1	[0, 0, 0]	n/a	catFR1	1	R1542J
81.599	1.616	338678	WORD	n/a	n/a	WINE	Beverages	6	-1	[0, 0, 0]	n/a	catFR1	1	R1542J
83.215	0.766	340288	WORD_OFF	n/a	n/a	WINE	Beverages	6	-1	[0, 0, 0]	n/a	catFR1	1	R1542J
83.981	1.6	341052	WORD	n/a	n/a	SATIN	Fabric	7	-1	[0, 0, 0]	n/a	catFR1	1	R1542J
85.581	0.917	342662	WORD_OFF	n/a	n/a	SATIN	Fabric	7	-1	[0, 0, 0]	n/a	catFR1	1	R1542J
86.498	1.6	343573	WORD	n/a	n/a	LINEN	Fabric	8	-1	[0, 0, 0]	n/a	catFR1	1	R1542J
88.098	0.817	345166	WORD_OFF	n/a	n/a	LINEN	Fabric	8	-1	[0, 0, 0]	n/a	catFR1	1	R1542J
88.915	1.6	345996	WORD	n/a	n/a	CHEESECAKE	Desserts	9	-1	[0, 0, 0]	n/a	catFR1	1	R1542J
90.515	0.917	347589	WORD_OFF	n/a	n/a	CHEESECAKE	Desserts	9	-1	[0, 0, 0]	n/a	catFR1	1	R1542J
91.432	1.617	348500	WORD	n/a	n/a	COOKIE	Desserts	10	-1	[0, 0, 0]	n/a	catFR1	1	R1542J
93.049	0.932	350126	WORD_OFF	n/a	n/a	COOKIE	Desserts	10	-1	[0, 0, 0]	n/a	catFR1	1	R1542J
93.981	1.6	351053	WORD	n/a	n/a	LEMONADE	Beverages	11	-1	[0, 0, 0]	n/a	catFR1	1	R1542J
95.581	1.001	352663	WORD_OFF	n/a	n/a	LEMONADE	Beverages	11	-1	[0, 0, 0]	n/a	catFR1	1	R1542J
96.582	1.616	353655	WORD	n/a	n/a	JUICE	Beverages	12	-1	[0, 0, 0]	n/a	catFR1	1	R1542J
98.198	0.001	355265	WORD_OFF	n/a	n/a	JUICE	Beverages	12	-1	[0, 0, 0]	n/a	catFR1	1	R1542J
98.199	0.0	355271	START	n/a	n/a	n/a	n/a	-999	-1	[-999, -999, -999]	n/a	catFR1	1	R1542J
98.199	0.0	355271	PROB	0.0	n/a	n/a	n/a	-999	-1	[4, 1, 7]	12	catFR1	1	R1542J
98.199	0.0	355282	ENCODING_END	n/a	n/a	n/a	n/a	-999	-1	[0, 0, 0]	n/a	catFR1	1	R1542J
98.199	3.65	355282	DISTRACT_START	n/a	n/a	n/a	n/a	-999	-1	[0, 0, 0]	n/a	catFR1	1	R1542J
101.849	3.281	358921	PROB	3.281	n/a	n/a	n/a	-999	-1	[7, 1, 8]	16	catFR1	1	R1542J
105.13	2.319	362202	PROB	2.319	n/a	n/a	n/a	-999	-1	[1, 1, 6]	8	catFR1	1	R1542J
107.449	2.583	364521	PROB	2.583	n/a	n/a	n/a	-999	-1	[8, 4, 3]	15	catFR1	1	R1542J
110.032	2.832	367103	PROB	2.832	n/a	n/a	n/a	-999	-1	[1, 5, 7]	13	catFR1	1	R1542J
112.864	2.952	369935	PROB	2.952	n/a	n/a	n/a	-999	-1	[3, 8, 7]	18	catFR1	1	R1542J
115.816	2.749	372887	PROB	2.749	n/a	n/a	n/a	-999	-1	[1, 6, 1]	8	catFR1	1	R1542J
118.565	0.0	375636	STOP	n/a	n/a	n/a	n/a	-999	-1	[-999, -999, -999]	n/a	catFR1	1	R1542J
118.565	1.567	375642	DISTRACT_END	n/a	n/a	n/a	n/a	-999	-1	[0, 0, 0]	n/a	catFR1	1	R1542J
120.132	1.21	377203	REC_START	n/a	n/a	n/a	n/a	-999	-1	[0, 0, 0]	n/a	catFR1	1	R1542J
121.342	1.425	378413	REC_WORD	1.425	n/a	SATIN	Fabric	7	-1	[0, 0, 0]	n/a	catFR1	1	R1542J
122.767	1.43	379838	REC_WORD	1.43	n/a	CHEESECAKE	Desserts	9	-1	[0, 0, 0]	n/a	catFR1	1	R1542J
124.197	1.375	381268	REC_WORD	1.375	n/a	COTTON	Fabric	3	-1	[0, 0, 0]	n/a	catFR1	1	R1542J
125.572	1.605	382643	REC_WORD	1.605	n/a	JELLO	Desserts	2	-1	[0, 0, 0]	n/a	catFR1	1	R1542J
127.177	1.685	384248	REC_WORD	1.685	n/a	CAKE	Desserts	1	-1	[0, 0, 0]	n/a	catFR1	1	R1542J
128.862	4.435	385933	REC_WORD	4.435	n/a	DENIM	Fabric	4	-1	[0, 0, 0]	n/a	catFR1	1	R1542J
133.297	2.895	390367	REC_WORD	2.895	n/a	PUDDING	n/a	-999	-1	[0, 0, 0]	n/a	catFR1	1	R1542J
136.192	10.411	393262	REC_WORD	10.411	n/a	WINE	Beverages	6	-1	[0, 0, 0]	n/a	catFR1	1	R1542J
146.603	3.725	403673	REC_WORD	3.725	n/a	LINEN	Fabric	8	-1	[0, 0, 0]	n/a	catFR1	1	R1542J
150.328	27.419	407402	REC_END	n/a	n/a	n/a	n/a	-999	-1	[0, 0, 0]	n/a	catFR1	1	R1542J
177.747	10.351	434820	COUNTDOWN_START	n/a	n/a	n/a	n/a	-999	1	[0, 0, 0]	n/a	catFR1	1	R1542J
188.098	0.0	445163	COUNTDOWN_END	n/a	n/a	n/a	n/a	-999	1	[0, 0, 0]	n/a	catFR1	1	R1542J
188.098	1.918	445179	ENCODING_START	n/a	n/a	n/a	n/a	-999	1	[0, 0, 0]	n/a	catFR1	1	R1542J
190.016	1.615	447082	WORD	n/a	wordpools/wordpool_categorized_EN.txt	MICROWAVE	Electronics	1	1	[0, 0, 0]	n/a	catFR1	1	R1542J
191.631	0.85	448708	WORD_OFF	n/a	n/a	MICROWAVE	Electronics	1	1	[0, 0, 0]	n/a	catFR1	1	R1542J
192.481	1.6	449554	WORD	n/a	wordpools/wordpool_categorized_EN.txt	CALCULATOR	Electronics	2	1	[0, 0, 0]	n/a	catFR1	1	R1542J
194.081	0.834	451148	WORD_OFF	n/a	n/a	CALCULATOR	Electronics	2	1	[0, 0, 0]	n/a	catFR1	1	R1542J
194.915	1.6	451993	WORD	n/a	wordpools/wordpool_categorized_EN.txt	BROWNIES	Desserts	3	1	[0, 0, 0]	n/a	catFR1	1	R1542J
196.515	0.982	453587	WORD_OFF	n/a	n/a	BROWNIES	Desserts	3	1	[0, 0, 0]	n/a	catFR1	1	R1542J
197.497	1.601	454563	WORD	n/a	wordpools/wordpool_categorized_EN.txt	FUDGE	Desserts	4	1	[0, 0, 0]	n/a	catFR1	1	R1542J
199.098	0.783	456173	WORD_OFF	n/a	n/a	FUDGE	Desserts	4	1	[0, 0, 0]	n/a	catFR1	1	R1542J
199.881	1.6	456953	WORD	n/a	wordpools/wordpool_categorized_EN.txt	REFRIGERATOR	Appliances	5	1	[0, 0, 0]	n/a	catFR1	1	R1542J
201.481	0.799	458547	WORD_OFF	n/a	n/a	REFRIGERATOR	Appliances	5	1	[0, 0, 0]	n/a	catFR1	1	R1542J
202.28	1.618	459344	WORD	n/a	wordpools/wordpool_categorized_EN.txt	IRON	Appliances	6	1	[0, 0, 0]	n/a	catFR1	1	R1542J
203.898	0.967	460970	WORD_OFF	n/a	n/a	IRON	Appliances	6	1	[0, 0, 0]	n/a	catFR1	1	R1542J
204.865	1.617	461930	WORD	n/a	wordpools/wordpool_categorized_EN.txt	TELEVISION	Electronics	7	1	[0, 0, 0]	n/a	catFR1	1	R1542J
206.482	0.981	463556	WORD_OFF	n/a	n/a	TELEVISION	Electronics	7	1	[0, 0, 0]	n/a	catFR1	1	R1542J
207.463	1.601	464532	WORD	n/a	wordpools/wordpool_categorized_EN.txt	HEADPHONES	Electronics	8	1	[0, 0, 0]	n/a	catFR1	1	R1542J
209.064	0.8	466141	WORD_OFF	n/a	n/a	HEADPHONES	Electronics	8	1	[0, 0, 0]	n/a	catFR1	1	R1542J
209.864	1.6	466938	WORD	n/a	wordpools/wordpool_categorized_EN.txt	MIXER	Appliances	9	1	[0, 0, 0]	n/a	catFR1	1	R1542J
211.464	0.867	468532	WORD_OFF	n/a	n/a	MIXER	Appliances	9	1	[0, 0, 0]	n/a	catFR1	1	R1542J
212.331	1.616	469394	WORD	n/a	wordpools/wordpool_categorized_EN.txt	DRYER	Appliances	10	1	[0, 0, 0]	n/a	catFR1	1	R1542J
213.947	0.967	471020	WORD_OFF	n/a	n/a	DRYER	Appliances	10	1	[0, 0, 0]	n/a	catFR1	1	R1542J
214.914	1.616	471980	WORD	n/a	wordpools/wordpool_categorized_EN.txt	MOUSSE	Desserts	11	1	[0, 0, 0]	n/a	catFR1	1	R1542J
216.53	0.919	473606	WORD_OFF	n/a	n/a	MOUSSE	Desserts	11	1	[0, 0, 0]	n/a	catFR1	1	R1542J
217.449	1.615	474517	WORD	n/a	wordpools/wordpool_categorized_EN.txt	COBBLER	Desserts	12	1	[0, 0, 0]	n/a	catFR1	1	R1542J
219.064	0.001	476127	WORD_OFF	n/a	n/a	COBBLER	Desserts	12	1	[0, 0, 0]	n/a	catFR1	1	R1542J
219.065	0.001	476132	PROB	0.001	n/a	n/a	n/a	-999	1	[8, 7, 2]	17	catFR1	1	R1542J
219.066	0.0	476133	START	n/a	n/a	n/a	n/a	-999	1	[-999, -999, -999]	n/a	catFR1	1	R1542J
219.066	0.0	476143	ENCODING_END	n/a	n/a	n/a	n/a	-999	1	[0, 0, 0]	n/a	catFR1	1	R1542J
219.066	3.05	476143	DISTRACT_START	n/a	n/a	n/a	n/a	-999	1	[0, 0, 0]	n/a	catFR1	1	R1542J
222.116	3.214	479183	PROB	3.214	n/a	n/a	n/a	-999	1	[2, 1, 4]	7	catFR1	1	R1542J
225.33	2.75	482397	PROB	2.75	n/a	n/a	n/a	-999	1	[2, 5, 4]	11	catFR1	1	R1542J
228.08	2.85	485146	PROB	2.85	n/a	n/a	n/a	-999	1	[2, 1, 7]	10	catFR1	1	R1542J
230.93	3.451	487996	PROB	3.451	n/a	n/a	n/a	-999	1	[7, 1, 6]	14	catFR1	1	R1542J
234.381	2.35	491447	PROB	2.35	n/a	n/a	n/a	-999	1	[3, 6, 3]	12	catFR1	1	R1542J
236.731	3.9	493797	PROB	3.9	n/a	n/a	n/a	-999	1	[7, 8, 7]	22	catFR1	1	R1542J
240.631	0.0	497697	STOP	n/a	n/a	n/a	n/a	-999	1	[-999, -999, -999]	n/a	catFR1	1	R1542J
240.631	1.7	497707	DISTRACT_END	n/a	n/a	n/a	n/a	-999	1	[0, 0, 0]	n/a	catFR1	1	R1542J
242.331	0.805	499398	REC_START	n/a	n/a	n/a	n/a	-999	1	[0, 0, 0]	n/a	catFR1	1	R1542J
243.136	1.505	500202	REC_WORD	1.505	n/a	FUDGE	Desserts	4	1	[0, 0, 0]	n/a	catFR1	1	R1542J
244.641	1.375	501707	REC_WORD	1.375	n/a	BROWNIES	Desserts	3	1	[0, 0, 0]	n/a	catFR1	1	R1542J
246.016	1.855	503082	REC_WORD	1.855	n/a	MICROWAVE	Electronics	1	1	[0, 0, 0]	n/a	catFR1	1	R1542J
247.871	1.925	504937	REC_WORD	1.925	n/a	IRON	Appliances	6	1	[0, 0, 0]	n/a	catFR1	1	R1542J
249.796	1.756	506862	REC_WORD	1.756	n/a	DRYER	Appliances	10	1	[0, 0, 0]	n/a	catFR1	1	R1542J
251.552	2.07	508617	REC_WORD	2.07	n/a	MOUSSE	Desserts	11	1	[0, 0, 0]	n/a	catFR1	1	R1542J
253.622	18.899	510687	REC_WORD	18.899	n/a	COBBLER	Desserts	12	1	[0, 0, 0]	n/a	catFR1	1	R1542J
272.521	1.445	529581	REC_END	n/a	n/a	n/a	n/a	-999	1	[0, 0, 0]	n/a	catFR1	1	R1542J
273.966	10.349	531028	COUNTDOWN_START	n/a	n/a	n/a	n/a	-999	2	[0, 0, 0]	n/a	catFR1	1	R1542J
284.315	0.001	541387	COUNTDOWN_END	n/a	n/a	n/a	n/a	-999	2	[0, 0, 0]	n/a	catFR1	1	R1542J
284.316	2.149	541387	ENCODING_START	n/a	n/a	n/a	n/a	-999	2	[0, 0, 0]	n/a	catFR1	1	R1542J
286.465	1.616	543534	WORD	n/a	wordpools/wordpool_categorized_EN.txt	HORSE	FarmAnimals	1	2	[0, 0, 0]	n/a	catFR1	1	R1542J
288.081	0.867	545144	WORD_OFF	n/a	n/a	HORSE	FarmAnimals	1	2	[0, 0, 0]	n/a	catFR1	1	R1542J
288.948	1.6	546022	WORD	n/a	wordpools/wordpool_categorized_EN.txt	COW	FarmAnimals	2	2	[0, 0, 0]	n/a	catFR1	1	R1542J
290.548	0.883	547615	WORD_OFF	n/a	n/a	COW	FarmAnimals	2	2	[0, 0, 0]	n/a	catFR1	1	R1542J
291.431	1.601	548494	WORD	n/a	wordpools/wordpool_categorized_EN.txt	ORANGUTAN	Zoo	3	2	[0, 0, 0]	n/a	catFR1	1	R1542J
293.032	0.966	550104	WORD_OFF	n/a	n/a	ORANGUTAN	Zoo	3	2	[0, 0, 0]	n/a	catFR1	1	R1542J
293.998	1.599	551063	WORD	n/a	wordpools/wordpool_categorized_EN.txt	CHIMPANZEE	Zoo	4	2	[0, 0, 0]	n/a	catFR1	1	R1542J
295.597	0.951	552657	WORD_OFF	n/a	n/a	CHIMPANZEE	Zoo	4	2	[0, 0, 0]	n/a	catFR1	1	R1542J
296.548	1.616	553616	WORD	n/a	wordpools/wordpool_categorized_EN.txt	BEE	Insects	5	2	[0, 0, 0]	n/a	catFR1	1	R1542J
298.164	0.85	555226	WORD_OFF	n/a	n/a	BEE	Insects	5	2	[0, 0, 0]	n/a	catFR1	1	R1542J
299.014	1.6	556088	WORD	n/a	wordpools/wordpool_categorized_EN.txt	ANT	Insects	6	2	[0, 0, 0]	n/a	catFR1	1	R1542J
300.614	0.901	557682	WORD_OFF	n/a	n/a	ANT	Insects	6	2	[0, 0, 0]	n/a	catFR1	1	R1542J
301.515	1.616	558576	WORD	n/a	wordpools/wordpool_categorized_EN.txt	LION	Zoo	7	2	[0, 0, 0]	n/a	catFR1	1	R1542J
303.131	0.834	560202	WORD_OFF	n/a	n/a	LION	Zoo	7	2	[0, 0, 0]	n/a	catFR1	1	R1542J
303.965	1.616	561032	WORD	n/a	wordpools/wordpool_categorized_EN.txt	BEAR	Zoo	8	2	[0, 0, 0]	n/a	catFR1	1	R1542J
305.581	0.95	562642	WORD_OFF	n/a	n/a	BEAR	Zoo	8	2	[0, 0, 0]	n/a	catFR1	1	R1542J
306.531	1.615	563601	WORD	n/a	wordpools/wordpool_categorized_EN.txt	BULL	FarmAnimals	9	2	[0, 0, 0]	n/a	catFR1	1	R1542J
308.146	0.818	565211	WORD_OFF	n/a	n/a	BULL	FarmAnimals	9	2	[0, 0, 0]	n/a	catFR1	1	R1542J
308.964	1.6	566024	WORD	n/a	wordpools/wordpool_categorized_EN.txt	HEN	FarmAnimals	10	2	[0, 0, 0]	n/a	catFR1	1	R1542J
310.564	0.935	567634	WORD_OFF	n/a	n/a	HEN	FarmAnimals	10	2	[0, 0, 0]	n/a	catFR1	1	R1542J
311.499	1.616	568561	WORD	n/a	wordpools/wordpool_categorized_EN.txt	BEETLE	Insects	11	2	[0, 0, 0]	n/a	catFR1	1	R1542J
313.115	1.0	570188	WORD_OFF	n/a	n/a	BEETLE	Insects	11	2	[0, 0, 0]	n/a	catFR1	1	R1542J
314.115	1.616	571180	WORD	n/a	wordpools/wordpool_categorized_EN.txt	ROACH	Insects	12	2	[0, 0, 0]	n/a	catFR1	1	R1542J
315.731	0.001	572789	WORD_OFF	n/a	n/a	ROACH	Insects	12	2	[0, 0, 0]	n/a	catFR1	1	R1542J
315.732	0.0	572795	START	n/a	n/a	n/a	n/a	-999	2	[-999, -999, -999]	n/a	catFR1	1	R1542J
315.732	0.0	572795	PROB	0.0	n/a	n/a	n/a	-999	2	[3, 2, 4]	9	catFR1	1	R1542J
315.732	0.0	572806	ENCODING_END	n/a	n/a	n/a	n/a	-999	2	[0, 0, 0]	n/a	catFR1	1	R1542J
315.732	5.182	572806	DISTRACT_START	n/a	n/a	n/a	n/a	-999	2	[0, 0, 0]	n/a	catFR1	1	R1542J
320.914	2.367	577977	PROB	2.367	n/a	n/a	n/a	-999	2	[2, 2, 3]	7	catFR1	1	R1542J
323.281	2.8	580343	PROB	2.8	n/a	n/a	n/a	-999	2	[7, 4, 6]	17	catFR1	1	R1542J
326.081	2.467	583143	PROB	2.467	n/a	n/a	n/a	-999	2	[1, 3, 6]	10	catFR1	1	R1542J
328.548	2.634	585610	PROB	2.634	n/a	n/a	n/a	-999	2	[1, 2, 1]	4	catFR1	1	R1542J
331.182	2.215	588244	PROB	2.215	n/a	n/a	n/a	-999	2	[7, 3, 1]	11	catFR1	1	R1542J
333.397	3.434	590459	PROB	3.434	n/a	n/a	n/a	-999	2	[7, 8, 3]	18	catFR1	1	R1542J
336.831	0.0	593893	STOP	n/a	n/a	n/a	n/a	-999	2	[-999, -999, -999]	n/a	catFR1	1	R1542J
336.831	1.549	593898	DISTRACT_END	n/a	n/a	n/a	n/a	-999	2	[0, 0, 0]	n/a	catFR1	1	R1542J
338.38	1.192	595443	REC_START	n/a	n/a	n/a	n/a	-999	2	[0, 0, 0]	n/a	catFR1	1	R1542J
339.572	1.165	596634	REC_WORD	1.165	n/a	BEE	Insects	5	2	[0, 0, 0]	n/a	catFR1	1	R1542J
340.737	1.266	597799	REC_WORD	1.266	n/a	ANT	Insects	6	2	[0, 0, 0]	n/a	catFR1	1	R1542J
342.003	1.36	599065	REC_WORD	1.36	n/a	BULL	FarmAnimals	9	2	[0, 0, 0]	n/a	catFR1	1	R1542J
343.363	1.564	600425	REC_WORD	1.564	n/a	COW	FarmAnimals	2	2	[0, 0, 0]	n/a	catFR1	1	R1542J
344.927	1.42	601989	REC_WORD	1.42	n/a	HORSE	FarmAnimals	1	2	[0, 0, 0]	n/a	catFR1	1	R1542J
346.347	1.635	603408	REC_WORD	1.635	n/a	ORANGUTAN	Zoo	3	2	[0, 0, 0]	n/a	catFR1	1	R1542J
347.982	3.8	605043	REC_WORD	3.8	n/a	CHIMPANZEE	Zoo	4	2	[0, 0, 0]	n/a	catFR1	1	R1542J
351.782	1.295	608843	REC_WORD	1.295	n/a	LION	Zoo	7	2	[0, 0, 0]	n/a	catFR1	1	R1542J
353.077	15.489	610138	REC_WORD	15.489	n/a	BEAR	Zoo	8	2	[0, 0, 0]	n/a	catFR1	1	R1542J
368.566	1.55	625626	REC_END	n/a	n/a	n/a	n/a	-999	2	[0, 0, 0]	n/a	catFR1	1	R1542J
370.116	10.349	627187	COUNTDOWN_START	n/a	n/a	n/a	n/a	-999	3	[0, 0, 0]	n/a	catFR1	1	R1542J
380.465	0.0	637530	COUNTDOWN_END	n/a	n/a	n/a	n/a	-999	3	[0, 0, 0]	n/a	catFR1	1	R1542J
380.465	2.134	637530	ENCODING_START	n/a	n/a	n/a	n/a	-999	3	[0, 0, 0]	n/a	catFR1	1	R1542J
382.599	1.616	639660	WORD	n/a	wordpools/wordpool_categorized_EN.txt	STAIRS	Building	1	3	[0, 0, 0]	n/a	catFR1	1	R1542J
384.215	0.883	641270	WORD_OFF	n/a	n/a	STAIRS	Building	1	3	[0, 0, 0]	n/a	catFR1	1	R1542J
385.098	1.616	642164	WORD	n/a	wordpools/wordpool_categorized_EN.txt	ROOF	Building	2	3	[0, 0, 0]	n/a	catFR1	1	R1542J
386.714	0.851	643774	WORD_OFF	n/a	n/a	ROOF	Building	2	3	[0, 0, 0]	n/a	catFR1	1	R1542J
387.565	1.616	644624	WORD	n/a	wordpools/wordpool_categorized_EN.txt	MOSQUITO	Insects	3	3	[0, 0, 0]	n/a	catFR1	1	R1542J
389.181	0.967	646246	WORD_OFF	n/a	n/a	MOSQUITO	Insects	3	3	[0, 0, 0]	n/a	catFR1	1	R1542J
390.148	1.6	647206	WORD	n/a	wordpools/wordpool_categorized_EN.txt	FLY	Insects	4	3	[0, 0, 0]	n/a	catFR1	1	R1542J
391.748	0.783	648816	WORD_OFF	n/a	n/a	FLY	Insects	4	3	[0, 0, 0]	n/a	catFR1	1	R1542J
392.531	1.601	649596	WORD	n/a	wordpools/wordpool_categorized_EN.txt	CAR	Vehicles	5	3	[0, 0, 0]	n/a	catFR1	1	R1542J
394.132	0.816	651190	WORD_OFF	n/a	n/a	CAR	Vehicles	5	3	[0, 0, 0]	n/a	catFR1	1	R1542J
394.948	1.616	652003	WORD	n/a	wordpools/wordpool_categorized_EN.txt	SCOOTER	Vehicles	6	3	[0, 0, 0]	n/a	catFR1	1	R1542J
396.564	0.983	653629	WORD_OFF	n/a	n/a	SCOOTER	Vehicles	6	3	[0, 0, 0]	n/a	catFR1	1	R1542J
397.547	1.601	654605	WORD	n/a	wordpools/wordpool_categorized_EN.txt	BUTTERFLY	Insects	7	3	[0, 0, 0]	n/a	catFR1	1	R1542J
399.148	0.901	656215	WORD_OFF	n/a	n/a	BUTTERFLY	Insects	7	3	[0, 0, 0]	n/a	catFR1	1	R1542J
400.049	1.616	657109	WORD	n/a	wordpools/wordpool_categorized_EN.txt	LADYBUG	Insects	8	3	[0, 0, 0]	n/a	catFR1	1	R1542J
401.665	0.799	658719	WORD_OFF	n/a	n/a	LADYBUG	Insects	8	3	[0, 0, 0]	n/a	catFR1	1	R1542J
402.464	1.6	659532	WORD	n/a	wordpools/wordpool_categorized_EN.txt	MOPED	Vehicles	9	3	[0, 0, 0]	n/a	catFR1	1	R1542J
404.064	0.785	661126	WORD_OFF	n/a	n/a	MOPED	Vehicles	9	3	[0, 0, 0]	n/a	catFR1	1	R1542J
404.849	1.615	661907	WORD	n/a	wordpools/wordpool_categorized_EN.txt	VAN	Vehicles	10	3	[0, 0, 0]	n/a	catFR1	1	R1542J
406.464	0.901	663533	WORD_OFF	n/a	n/a	VAN	Vehicles	10	3	[0, 0, 0]	n/a	catFR1	1	R1542J
407.365	1.616	664427	WORD	n/a	wordpools/wordpool_categorized_EN.txt	HALLWAY	Building	11	3	[0, 0, 0]	n/a	catFR1	1	R1542J
408.981	0.983	666037	WORD_OFF	n/a	n/a	HALLWAY	Building	11	3	[0, 0, 0]	n/a	catFR1	1	R1542J
409.964	1.6	667029	WORD	n/a	wordpools/wordpool_categorized_EN.txt	FLOOR	Building	12	3	[0, 0, 0]	n/a	catFR1	1	R1542J
411.564	0.001	668623	WORD_OFF	n/a	n/a	FLOOR	Building	12	3	[0, 0, 0]	n/a	catFR1	1	R1542J
411.565	0.0	668623	ENCODING_END	n/a	n/a	n/a	n/a	-999	3	[0, 0, 0]	n/a	catFR1	1	R1542J
411.565	0.0	668623	DISTRACT_START	n/a	n/a	n/a	n/a	-999	3	[0, 0, 0]	n/a	catFR1	1	R1542J
411.565	0.0	668624	START	n/a	n/a	n/a	n/a	-999	3	[-999, -999, -999]	n/a	catFR1	1	R1542J
411.565	2.934	668624	PROB	2.934	n/a	n/a	n/a	-999	3	[7, 5, 1]	13	catFR1	1	R1542J
414.499	3.166	671558	PROB	3.166	n/a	n/a	n/a	-999	3	[7, 1, 2]	10	catFR1	1	R1542J
417.665	2.6	674723	PROB	2.6	n/a	n/a	n/a	-999	3	[1, 4, 6]	11	catFR1	1	R1542J
420.265	2.816	677323	PROB	2.816	n/a	n/a	n/a	-999	3	[8, 3, 6]	17	catFR1	1	R1542J
423.081	2.65	680139	PROB	2.65	n/a	n/a	n/a	-999	3	[3, 5, 8]	16	catFR1	1	R1542J
425.731	2.467	682789	PROB	2.467	n/a	n/a	n/a	-999	3	[1, 3, 4]	8	catFR1	1	R1542J
428.198	2.167	685256	PROB	2.167	n/a	n/a	n/a	-999	3	[8, 2, 2]	12	catFR1	1	R1542J
430.365	2.199	687423	PROB	2.199	n/a	n/a	n/a	-999	3	[4, 1, 1]	6	catFR1	1	R1542J
432.564	0.0	689618	DISTRACT_END	n/a	n/a	n/a	n/a	-999	3	[0, 0, 0]	n/a	catFR1	1	R1542J
432.564	1.617	689622	STOP	n/a	n/a	n/a	n/a	-999	3	[-999, -999, -999]	n/a	catFR1	1	R1542J
434.181	0.766	691244	REC_START	n/a	n/a	n/a	n/a	-999	3	[0, 0, 0]	n/a	catFR1	1	R1542J
434.947	2.224	692005	REC_WORD	2.224	n/a	FLOOR	Building	12	3	[0, 0, 0]	n/a	catFR1	1	R1542J
437.171	1.735	694229	REC_WORD	1.735	n/a	ROOF	Building	2	3	[0, 0, 0]	n/a	catFR1	1	R1542J
438.906	2.045	695964	REC_WORD	2.045	n/a	MOSQUITO	Insects	3	3	[0, 0, 0]	n/a	catFR1	1	R1542J
440.951	2.261	698008	REC_WORD	2.261	n/a	FLY	Insects	4	3	[0, 0, 0]	n/a	catFR1	1	R1542J
443.212	2.03	700269	REC_WORD	2.03	n/a	BUTTERFLY	Insects	7	3	[0, 0, 0]	n/a	catFR1	1	R1542J
445.242	4.235	702299	REC_WORD	4.235	n/a	LADYBUG	Insects	8	3	[0, 0, 0]	n/a	catFR1	1	R1542J
449.477	14.912	706534	REC_WORD	14.912	n/a	HALLWAY	Building	11	3	[0, 0, 0]	n/a	catFR1	1	R1542J
464.389	1.477	721443	REC_END	n/a	n/a	n/a	n/a	-999	3	[0, 0, 0]	n/a	catFR1	1	R1542J
465.866	10.349	722923	COUNTDOWN_START	n/a	n/a	n/a	n/a	-999	4	[0, 0, 0]	n/a	catFR1	1	R1542J
476.215	0.0	733282	COUNTDOWN_END	n/a	n/a	n/a	n/a	-999	4	[0, 0, 0]	n/a	catFR1	1	R1542J
476.215	1.984	733282	ENCODING_START	n/a	n/a	n/a	n/a	-999	4	[0, 0, 0]	n/a	catFR1	1	R1542J
478.199	1.616	735251	WORD	n/a	wordpools/wordpool_categorized_EN.txt	FOG	Weather	1	4	[0, 0, 0]	n/a	catFR1	1	R1542J
479.815	0.848	736876	WORD_OFF	n/a	n/a	FOG	Weather	1	4	[0, 0, 0]	n/a	catFR1	1	R1542J
480.663	1.602	737721	WORD	n/a	wordpools/wordpool_categorized_EN.txt	HUMIDITY	Weather	2	4	[0, 0, 0]	n/a	catFR1	1	R1542J
482.265	0.934	739331	WORD_OFF	n/a	n/a	HUMIDITY	Weather	2	4	[0, 0, 0]	n/a	catFR1	1	R1542J
483.199	1.615	740258	WORD	n/a	wordpools/wordpool_categorized_EN.txt	MOTORCYCLE	Vehicles	3	4	[0, 0, 0]	n/a	catFR1	1	R1542J
484.814	0.867	741868	WORD_OFF	n/a	n/a	MOTORCYCLE	Vehicles	3	4	[0, 0, 0]	n/a	catFR1	1	R1542J
485.681	1.6	742747	WORD	n/a	wordpools/wordpool_categorized_EN.txt	BIKE	Vehicles	4	4	[0, 0, 0]	n/a	catFR1	1	R1542J
487.281	1.0	744340	WORD_OFF	n/a	n/a	BIKE	Vehicles	4	4	[0, 0, 0]	n/a	catFR1	1	R1542J
488.281	1.6	745332	WORD	n/a	wordpools/wordpool_categorized_EN.txt	CARROT	Vegetables	5	4	[0, 0, 0]	n/a	catFR1	1	R1542J
489.881	0.949	746942	WORD_OFF	n/a	n/a	CARROT	Vegetables	5	4	[0, 0, 0]	n/a	catFR1	1	R1542J
490.83	1.602	747885	WORD	n/a	wordpools/wordpool_categorized_EN.txt	ONION	Vegetables	6	4	[0, 0, 0]	n/a	catFR1	1	R1542J
492.432	0.849	749495	WORD_OFF	n/a	n/a	ONION	Vegetables	6	4	[0, 0, 0]	n/a	catFR1	1	R1542J
493.281	1.6	750341	WORD	n/a	wordpools/wordpool_categorized_EN.txt	BUS	Vehicles	7	4	[0, 0, 0]	n/a	catFR1	1	R1542J
494.881	0.8	751935	WORD_OFF	n/a	n/a	BUS	Vehicles	7	4	[0, 0, 0]	n/a	catFR1	1	R1542J
495.681	1.616	752732	WORD	n/a	wordpools/wordpool_categorized_EN.txt	TRAIN	Vehicles	8	4	[0, 0, 0]	n/a	catFR1	1	R1542J
497.297	1.002	754358	WORD_OFF	n/a	n/a	TRAIN	Vehicles	8	4	[0, 0, 0]	n/a	catFR1	1	R1542J
498.299	1.616	755350	WORD	n/a	wordpools/wordpool_categorized_EN.txt	LETTUCE	Vegetables	9	4	[0, 0, 0]	n/a	catFR1	1	R1542J
499.915	0.966	756976	WORD_OFF	n/a	n/a	LETTUCE	Vegetables	9	4	[0, 0, 0]	n/a	catFR1	1	R1542J
500.881	1.601	757936	WORD	n/a	wordpools/wordpool_categorized_EN.txt	POTATO	Vegetables	10	4	[0, 0, 0]	n/a	catFR1	1	R1542J
502.482	0.982	759545	WORD_OFF	n/a	n/a	POTATO	Vegetables	10	4	[0, 0, 0]	n/a	catFR1	1	R1542J
503.464	1.617	760521	WORD	n/a	wordpools/wordpool_categorized_EN.txt	THUNDER	Weather	11	4	[0, 0, 0]	n/a	catFR1	1	R1542J
505.081	0.768	762147	WORD_OFF	n/a	n/a	THUNDER	Weather	11	4	[0, 0, 0]	n/a	catFR1	1	R1542J
505.849	1.616	762912	WORD	n/a	wordpools/wordpool_categorized_EN.txt	DRIZZLE	Weather	12	4	[0, 0, 0]	n/a	catFR1	1	R1542J
507.465	0.001	764520	PROB	0.001	n/a	n/a	n/a	-999	4	[7, 8, 6]	21	catFR1	1	R1542J
507.466	0.0	764521	START	n/a	n/a	n/a	n/a	-999	4	[-999, -999, -999]	n/a	catFR1	1	R1542J
507.464	0.002	764522	WORD_OFF	n/a	n/a	DRIZZLE	Weather	12	4	[0, 0, 0]	n/a	catFR1	1	R1542J
507.466	0.0	764522	ENCODING_END	n/a	n/a	n/a	n/a	-999	4	[0, 0, 0]	n/a	catFR1	1	R1542J
507.466	5.349	764522	DISTRACT_START	n/a	n/a	n/a	n/a	-999	4	[0, 0, 0]	n/a	catFR1	1	R1542J
512.815	4.782	769869	PROB	4.782	n/a	n/a	n/a	-999	4	[8, 7, 8]	23	catFR1	1	R1542J
517.597	3.15	774651	PROB	3.15	n/a	n/a	n/a	-999	4	[1, 8, 8]	17	catFR1	1	R1542J
520.747	6.268	777801	PROB	6.268	n/a	n/a	n/a	-999	4	[5, 3, 6]	14	catFR1	1	R1542J
527.015	2.683	784069	PROB	2.683	n/a	n/a	n/a	-999	4	[3, 8, 3]	14	catFR1	1	R1542J
529.698	0.0	786752	DISTRACT_END	n/a	n/a	n/a	n/a	-999	4	[0, 0, 0]	n/a	catFR1	1	R1542J
529.698	1.516	786752	STOP	n/a	n/a	n/a	n/a	-999	4	[-999, -999, -999]	n/a	catFR1	1	R1542J
531.214	1.675	788265	REC_START	n/a	n/a	n/a	n/a	-999	4	[0, 0, 0]	n/a	catFR1	1	R1542J
532.889	2.22	789943	REC_WORD	2.22	n/a	FOG	Weather	1	4	[0, 0, 0]	n/a	catFR1	1	R1542J
535.109	1.85	792163	REC_WORD	1.85	n/a	HUMIDITY	Weather	2	4	[0, 0, 0]	n/a	catFR1	1	R1542J
536.959	2.465	794012	REC_WORD	2.465	n/a	THUNDER	Weather	11	4	[0, 0, 0]	n/a	catFR1	1	R1542J
539.424	2.295	796477	REC_WORD	2.295	n/a	DRIZZLE	Weather	12	4	[0, 0, 0]	n/a	catFR1	1	R1542J
541.719	2.02	798772	REC_WORD	2.02	n/a	SCOOTER	Vehicles	-999	4	[0, 0, 0]	n/a	catFR1	1	R1542J
543.739	3.534	800792	REC_WORD	3.534	n/a	MOTORCYCLE	Vehicles	3	4	[0, 0, 0]	n/a	catFR1	1	R1542J
547.273	2.48	804326	REC_WORD	2.48	n/a	TRAIN	Vehicles	8	4	[0, 0, 0]	n/a	catFR1	1	R1542J
549.753	3.54	806806	REC_WORD	3.54	n/a	BUS	Vehicles	7	4	[0, 0, 0]	n/a	catFR1	1	R1542J
553.293	0.985	810346	REC_WORD	0.985	n/a	LETTUCE	Vegetables	9	4	[0, 0, 0]	n/a	catFR1	1	R1542J
554.278	1.065	811331	REC_WORD	1.065	n/a	CARROT	Vegetables	5	4	[0, 0, 0]	n/a	catFR1	1	R1542J
555.343	6.068	812396	REC_WORD	6.068	n/a	ONION	Vegetables	6	4	[0, 0, 0]	n/a	catFR1	1	R1542J
561.411	1.472	818464	REC_END	n/a	n/a	n/a	n/a	-999	4	[0, 0, 0]	n/a	catFR1	1	R1542J
562.883	10.348	819944	COUNTDOWN_START	n/a	n/a	n/a	n/a	-999	5	[0, 0, 0]	n/a	catFR1	1	R1542J
573.231	0.001	830286	COUNTDOWN_END	n/a	n/a	n/a	n/a	-999	5	[0, 0, 0]	n/a	catFR1	1	R1542J
573.232	2.05	830286	ENCODING_START	n/a	n/a	n/a	n/a	-999	5	[0, 0, 0]	n/a	catFR1	1	R1542J
575.282	1.616	832335	WORD	n/a	wordpools/wordpool_categorized_EN.txt	SPANDEX	Fabric	1	5	[0, 0, 0]	n/a	catFR1	1	R1542J
576.898	0.917	833945	WORD_OFF	n/a	n/a	SPANDEX	Fabric	1	5	[0, 0, 0]	n/a	catFR1	1	R1542J
577.815	1.6	834872	WORD	n/a	wordpools/wordpool_categorized_EN.txt	FLEECE	Fabric	2	5	[0, 0, 0]	n/a	catFR1	1	R1542J
579.415	0.983	836466	WORD_OFF	n/a	n/a	FLEECE	Fabric	2	5	[0, 0, 0]	n/a	catFR1	1	R1542J
580.398	1.6	837458	WORD	n/a	wordpools/wordpool_categorized_EN.txt	CREEK	Landscapes	3	5	[0, 0, 0]	n/a	catFR1	1	R1542J
581.998	0.783	839052	WORD_OFF	n/a	n/a	CREEK	Landscapes	3	5	[0, 0, 0]	n/a	catFR1	1	R1542J
582.781	1.601	839832	WORD	n/a	wordpools/wordpool_categorized_EN.txt	WOODS	Landscapes	4	5	[0, 0, 0]	n/a	catFR1	1	R1542J
584.382	0.849	841442	WORD_OFF	n/a	n/a	WOODS	Landscapes	4	5	[0, 0, 0]	n/a	catFR1	1	R1542J
585.231	1.616	842288	WORD	n/a	wordpools/wordpool_categorized_EN.txt	CORN	Vegetables	5	5	[0, 0, 0]	n/a	catFR1	1	R1542J
586.847	0.867	843898	WORD_OFF	n/a	n/a	CORN	Vegetables	5	5	[0, 0, 0]	n/a	catFR1	1	R1542J
587.714	1.601	844776	WORD	n/a	wordpools/wordpool_categorized_EN.txt	CUCUMBER	Vegetables	6	5	[0, 0, 0]	n/a	catFR1	1	R1542J
589.315	0.965	846370	WORD_OFF	n/a	n/a	CUCUMBER	Vegetables	6	5	[0, 0, 0]	n/a	catFR1	1	R1542J
590.28	1.601	847329	WORD	n/a	wordpools/wordpool_categorized_EN.txt	SILK	Fabric	7	5	[0, 0, 0]	n/a	catFR1	1	R1542J
591.881	0.833	848939	WORD_OFF	n/a	n/a	SILK	Fabric	7	5	[0, 0, 0]	n/a	catFR1	1	R1542J
592.714	1.6	849769	WORD	n/a	wordpools/wordpool_categorized_EN.txt	LEATHER	Fabric	8	5	[0, 0, 0]	n/a	catFR1	1	R1542J
594.314	0.95	851362	WORD_OFF	n/a	n/a	LEATHER	Fabric	8	5	[0, 0, 0]	n/a	catFR1	1	R1542J
595.264	1.617	852322	WORD	n/a	wordpools/wordpool_categorized_EN.txt	CAULIFLOWER	Vegetables	9	5	[0, 0, 0]	n/a	catFR1	1	R1542J
596.881	0.933	853932	WORD_OFF	n/a	n/a	CAULIFLOWER	Vegetables	9	5	[0, 0, 0]	n/a	catFR1	1	R1542J
597.814	1.601	854875	WORD	n/a	wordpools/wordpool_categorized_EN.txt	BROCCOLI	Vegetables	10	5	[0, 0, 0]	n/a	catFR1	1	R1542J
599.415	1.016	856469	WORD_OFF	n/a	n/a	BROCCOLI	Vegetables	10	5	[0, 0, 0]	n/a	catFR1	1	R1542J
600.431	1.601	857477	WORD	n/a	wordpools/wordpool_categorized_EN.txt	RIVER	Landscapes	11	5	[0, 0, 0]	n/a	catFR1	1	R1542J
602.032	0.8	859087	WORD_OFF	n/a	n/a	RIVER	Landscapes	11	5	[0, 0, 0]	n/a	catFR1	1	R1542J
602.832	1.6	859884	WORD	n/a	wordpools/wordpool_categorized_EN.txt	ISLAND	Landscapes	12	5	[0, 0, 0]	n/a	catFR1	1	R1542J
604.432	0.0	861477	WORD_OFF	n/a	n/a	ISLAND	Landscapes	12	5	[0, 0, 0]	n/a	catFR1	1	R1542J
604.432	0.001	861483	PROB	0.001	n/a	n/a	n/a	-999	5	[5, 6, 7]	18	catFR1	1	R1542J
604.433	0.0	861484	START	n/a	n/a	n/a	n/a	-999	5	[-999, -999, -999]	n/a	catFR1	1	R1542J
604.433	0.0	861494	ENCODING_END	n/a	n/a	n/a	n/a	-999	5	[0, 0, 0]	n/a	catFR1	1	R1542J
604.433	3.282	861494	DISTRACT_START	n/a	n/a	n/a	n/a	-999	5	[0, 0, 0]	n/a	catFR1	1	R1542J
607.715	4.017	864765	PROB	4.017	n/a	n/a	n/a	-999	5	[7, 6, 4]	17	catFR1	1	R1542J
611.732	3.799	868782	PROB	3.799	n/a	n/a	n/a	-999	5	[2, 5, 6]	13	catFR1	1	R1542J
615.531	2.784	872581	PROB	2.784	n/a	n/a	n/a	-999	5	[6, 6, 7]	19	catFR1	1	R1542J
618.315	3.268	875365	PROB	3.268	n/a	n/a	n/a	-999	5	[8, 7, 4]	19	catFR1	1	R1542J
621.583	3.482	878633	PROB	3.482	n/a	n/a	n/a	-999	5	[1, 4, 1]	6	catFR1	1	R1542J
625.065	0.0	882114	DISTRACT_END	n/a	n/a	n/a	n/a	-999	5	[0, 0, 0]	n/a	catFR1	1	R1542J
625.065	1.849	882115	STOP	n/a	n/a	n/a	n/a	-999	5	[-999, -999, -999]	n/a	catFR1	1	R1542J
626.914	0.85	883968	REC_START	n/a	n/a	n/a	n/a	-999	5	[0, 0, 0]	n/a	catFR1	1	R1542J
627.764	1.42	884814	REC_WORD	1.42	n/a	CORN	Vegetables	5	5	[0, 0, 0]	n/a	catFR1	1	R1542J
629.184	1.0	886234	REC_WORD	1.0	n/a	CAULIFLOWER	Vegetables	9	5	[0, 0, 0]	n/a	catFR1	1	R1542J
630.184	1.385	887234	REC_WORD_VV	1.385	n/a	<>	n/a	-999	5	[0, 0, 0]	n/a	catFR1	1	R1542J
631.569	1.57	888618	REC_WORD	1.57	n/a	BROCCOLI	Vegetables	10	5	[0, 0, 0]	n/a	catFR1	1	R1542J
633.139	1.74	890188	REC_WORD	1.74	n/a	CREEK	Landscapes	3	5	[0, 0, 0]	n/a	catFR1	1	R1542J
634.879	1.92	891928	REC_WORD	1.92	n/a	RIVER	Landscapes	11	5	[0, 0, 0]	n/a	catFR1	1	R1542J
636.799	2.125	893848	REC_WORD	2.125	n/a	ISLAND	Landscapes	12	5	[0, 0, 0]	n/a	catFR1	1	R1542J
638.924	12.17	895973	REC_WORD	12.17	n/a	FOREST	n/a	-999	5	[0, 0, 0]	n/a	catFR1	1	R1542J
651.094	1.12	908143	REC_WORD	1.12	n/a	SPANDEX	Fabric	1	5	[0, 0, 0]	n/a	catFR1	1	R1542J
652.214	3.12	909263	REC_WORD	3.12	n/a	FLEECE	Fabric	2	5	[0, 0, 0]	n/a	catFR1	1	R1542J
655.334	1.785	912382	REC_WORD	1.785	n/a	LEATHER	Fabric	8	5	[0, 0, 0]	n/a	catFR1	1	R1542J
657.119	1.43	914167	REC_END	n/a	n/a	n/a	n/a	-999	5	[0, 0, 0]	n/a	catFR1	1	R1542J
658.549	10.349	915598	COUNTDOWN_START	n/a	n/a	n/a	n/a	-999	6	[0, 0, 0]	n/a	catFR1	1	R1542J
668.898	0.0	925957	COUNTDOWN_END	n/a	n/a	n/a	n/a	-999	6	[0, 0, 0]	n/a	catFR1	1	R1542J
668.898	2.034	925957	ENCODING_START	n/a	n/a	n/a	n/a	-999	6	[0, 0, 0]	n/a	catFR1	1	R1542J
670.932	1.616	927990	WORD	n/a	wordpools/wordpool_categorized_EN.txt	FOREST	Landscapes	1	6	[0, 0, 0]	n/a	catFR1	1	R1542J
672.548	0.917	929600	WORD_OFF	n/a	n/a	FOREST	Landscapes	1	6	[0, 0, 0]	n/a	catFR1	1	R1542J
673.465	1.616	930511	WORD	n/a	wordpools/wordpool_categorized_EN.txt	BEACH	Landscapes	2	6	[0, 0, 0]	n/a	catFR1	1	R1542J
675.081	0.934	932137	WORD_OFF	n/a	n/a	BEACH	Landscapes	2	6	[0, 0, 0]	n/a	catFR1	1	R1542J
676.015	1.616	933064	WORD	n/a	wordpools/wordpool_categorized_EN.txt	CORKSCREW	KitchenTools	3	6	[0, 0, 0]	n/a	catFR1	1	R1542J
677.631	0.916	934690	WORD_OFF	n/a	n/a	CORKSCREW	KitchenTools	3	6	[0, 0, 0]	n/a	catFR1	1	R1542J
678.547	1.618	935601	WORD	n/a	wordpools/wordpool_categorized_EN.txt	STRAINER	KitchenTools	4	6	[0, 0, 0]	n/a	catFR1	1	R1542J
680.165	0.998	937211	WORD_OFF	n/a	n/a	STRAINER	KitchenTools	4	6	[0, 0, 0]	n/a	catFR1	1	R1542J
681.163	1.601	938219	WORD	n/a	wordpools/wordpool_categorized_EN.txt	FOOT	BodyParts	5	6	[0, 0, 0]	n/a	catFR1	1	R1542J
682.764	0.884	939813	WORD_OFF	n/a	n/a	FOOT	BodyParts	5	6	[0, 0, 0]	n/a	catFR1	1	R1542J
683.648	1.6	940691	WORD	n/a	wordpools/wordpool_categorized_EN.txt	FINGERS	BodyParts	6	6	[0, 0, 0]	n/a	catFR1	1	R1542J
685.248	0.917	942301	WORD_OFF	n/a	n/a	FINGERS	BodyParts	6	6	[0, 0, 0]	n/a	catFR1	1	R1542J
686.165	1.616	943212	WORD	n/a	wordpools/wordpool_categorized_EN.txt	OCEAN	Landscapes	7	6	[0, 0, 0]	n/a	catFR1	1	R1542J
687.781	0.916	944838	WORD_OFF	n/a	n/a	OCEAN	Landscapes	7	6	[0, 0, 0]	n/a	catFR1	1	R1542J
688.697	1.602	945749	WORD	n/a	wordpools/wordpool_categorized_EN.txt	LAKE	Landscapes	8	6	[0, 0, 0]	n/a	catFR1	1	R1542J
690.299	0.782	947342	WORD_OFF	n/a	n/a	LAKE	Landscapes	8	6	[0, 0, 0]	n/a	catFR1	1	R1542J
691.081	1.601	948139	WORD	n/a	wordpools/wordpool_categorized_EN.txt	COLANDER	KitchenTools	9	6	[0, 0, 0]	n/a	catFR1	1	R1542J
692.682	0.832	949733	WORD_OFF	n/a	n/a	COLANDER	KitchenTools	9	6	[0, 0, 0]	n/a	catFR1	1	R1542J
693.514	1.618	950562	WORD	n/a	wordpools/wordpool_categorized_EN.txt	TONGS	KitchenTools	10	6	[0, 0, 0]	n/a	catFR1	1	R1542J
695.132	0.965	952188	WORD_OFF	n/a	n/a	TONGS	KitchenTools	10	6	[0, 0, 0]	n/a	catFR1	1	R1542J
696.097	1.602	953148	WORD	n/a	wordpools/wordpool_categorized_EN.txt	ARM	BodyParts	11	6	[0, 0, 0]	n/a	catFR1	1	R1542J
697.699	0.781	954742	WORD_OFF	n/a	n/a	ARM	BodyParts	11	6	[0, 0, 0]	n/a	catFR1	1	R1542J
698.48	1.601	955538	WORD	n/a	wordpools/wordpool_categorized_EN.txt	TOE	BodyParts	12	6	[0, 0, 0]	n/a	catFR1	1	R1542J
700.081	0.0	957128	START	n/a	n/a	n/a	n/a	-999	6	[-999, -999, -999]	n/a	catFR1	1	R1542J
700.081	0.0	957128	PROB	0.0	n/a	n/a	n/a	-999	6	[6, 2, 1]	9	catFR1	1	R1542J
700.08	0.001	957132	WORD_OFF	n/a	n/a	TOE	BodyParts	12	6	[0, 0, 0]	n/a	catFR1	1	R1542J
700.081	0.0	957132	ENCODING_END	n/a	n/a	n/a	n/a	-999	6	[0, 0, 0]	n/a	catFR1	1	R1542J
700.081	3.917	957132	DISTRACT_START	n/a	n/a	n/a	n/a	-999	6	[0, 0, 0]	n/a	catFR1	1	R1542J
703.998	2.301	961044	PROB	2.301	n/a	n/a	n/a	-999	6	[3, 7, 2]	12	catFR1	1	R1542J
706.299	3.932	963345	PROB	3.932	n/a	n/a	n/a	-999	6	[4, 2, 7]	13	catFR1	1	R1542J
710.231	3.134	967277	PROB	3.134	n/a	n/a	n/a	-999	6	[5, 3, 3]	11	catFR1	1	R1542J
713.365	2.149	970411	PROB	2.149	n/a	n/a	n/a	-999	6	[3, 1, 5]	9	catFR1	1	R1542J
715.514	2.45	972560	PROB	2.45	n/a	n/a	n/a	-999	6	[7, 3, 7]	17	catFR1	1	R1542J
717.964	2.034	975010	PROB	2.034	n/a	n/a	n/a	-999	6	[3, 4, 1]	8	catFR1	1	R1542J
719.998	2.583	977044	PROB	2.583	n/a	n/a	n/a	-999	6	[2, 2, 8]	12	catFR1	1	R1542J
722.581	0.0	979623	DISTRACT_END	n/a	n/a	n/a	n/a	-999	6	[0, 0, 0]	n/a	catFR1	1	R1542J
722.581	1.9	979627	STOP	n/a	n/a	n/a	n/a	-999	6	[-999, -999, -999]	n/a	catFR1	1	R1542J
724.481	0.93	981526	REC_START	n/a	n/a	n/a	n/a	-999	6	[0, 0, 0]	n/a	catFR1	1	R1542J
725.411	1.21	982457	REC_WORD	1.21	n/a	TOE	BodyParts	12	6	[0, 0, 0]	n/a	catFR1	1	R1542J
726.621	1.54	983666	REC_WORD	1.54	n/a	FOOT	BodyParts	5	6	[0, 0, 0]	n/a	catFR1	1	R1542J
728.161	2.07	985206	REC_WORD	2.07	n/a	ARM	BodyParts	11	6	[0, 0, 0]	n/a	catFR1	1	R1542J
730.231	1.475	987276	REC_WORD	1.475	n/a	FOREST	Landscapes	1	6	[0, 0, 0]	n/a	catFR1	1	R1542J
731.706	1.66	988751	REC_WORD	1.66	n/a	OCEAN	Landscapes	7	6	[0, 0, 0]	n/a	catFR1	1	R1542J
733.366	2.325	990411	REC_WORD	2.325	n/a	LAKE	Landscapes	8	6	[0, 0, 0]	n/a	catFR1	1	R1542J
735.691	1.98	992736	REC_WORD	1.98	n/a	STRAINER	KitchenTools	4	6	[0, 0, 0]	n/a	catFR1	1	R1542J
737.671	2.22	994716	REC_WORD	2.22	n/a	COLANDER	KitchenTools	9	6	[0, 0, 0]	n/a	catFR1	1	R1542J
739.891	14.8	996936	REC_WORD	14.8	n/a	TONGS	KitchenTools	10	6	[0, 0, 0]	n/a	catFR1	1	R1542J
754.691	1.542	1011741	REC_END	n/a	n/a	n/a	n/a	-999	6	[0, 0, 0]	n/a	catFR1	1	R1542J
756.233	10.347	1013286	COUNTDOWN_START	n/a	n/a	n/a	n/a	-999	7	[0, 0, 0]	n/a	catFR1	1	R1542J
766.58	0.0	1023629	COUNTDOWN_END	n/a	n/a	n/a	n/a	-999	7	[0, 0, 0]	n/a	catFR1	1	R1542J
766.58	2.252	1023629	ENCODING_START	n/a	n/a	n/a	n/a	-999	7	[0, 0, 0]	n/a	catFR1	1	R1542J
768.832	1.617	1025873	WORD	n/a	wordpools/wordpool_categorized_EN.txt	SUEDE	Fabric	1	7	[0, 0, 0]	n/a	catFR1	1	R1542J
770.449	0.967	1027499	WORD_OFF	n/a	n/a	SUEDE	Fabric	1	7	[0, 0, 0]	n/a	catFR1	1	R1542J
771.416	1.615	1028458	WORD	n/a	wordpools/wordpool_categorized_EN.txt	VELVET	Fabric	2	7	[0, 0, 0]	n/a	catFR1	1	R1542J
773.031	0.817	1030085	WORD_OFF	n/a	n/a	VELVET	Fabric	2	7	[0, 0, 0]	n/a	catFR1	1	R1542J
773.848	1.6	1030898	WORD	n/a	wordpools/wordpool_categorized_EN.txt	PUZZLE	Toys	3	7	[0, 0, 0]	n/a	catFR1	1	R1542J
775.448	0.967	1032492	WORD_OFF	n/a	n/a	PUZZLE	Toys	3	7	[0, 0, 0]	n/a	catFR1	1	R1542J
776.415	1.6	1033467	WORD	n/a	wordpools/wordpool_categorized_EN.txt	DOLLHOUSE	Toys	4	7	[0, 0, 0]	n/a	catFR1	1	R1542J
778.015	0.849	1035061	WORD_OFF	n/a	n/a	DOLLHOUSE	Toys	4	7	[0, 0, 0]	n/a	catFR1	1	R1542J
778.864	1.601	1035907	WORD	n/a	wordpools/wordpool_categorized_EN.txt	PEACH	Fruit	5	7	[0, 0, 0]	n/a	catFR1	1	R1542J
780.465	0.866	1037517	WORD_OFF	n/a	n/a	PEACH	Fruit	5	7	[0, 0, 0]	n/a	catFR1	1	R1542J
781.331	1.6	1038378	WORD	n/a	wordpools/wordpool_categorized_EN.txt	PLUM	Fruit	6	7	[0, 0, 0]	n/a	catFR1	1	R1542J
782.931	0.9	1039972	WORD_OFF	n/a	n/a	PLUM	Fruit	6	7	[0, 0, 0]	n/a	catFR1	1	R1542J
783.831	1.6	1040883	WORD	n/a	wordpools/wordpool_categorized_EN.txt	FRISBEE	Toys	7	7	[0, 0, 0]	n/a	catFR1	1	R1542J
785.431	0.766	1042477	WORD_OFF	n/a	n/a	FRISBEE	Toys	7	7	[0, 0, 0]	n/a	catFR1	1	R1542J
786.197	1.6	1043241	WORD	n/a	wordpools/wordpool_categorized_EN.txt	BALL	Toys	8	7	[0, 0, 0]	n/a	catFR1	1	R1542J
787.797	0.85	1044851	WORD_OFF	n/a	n/a	BALL	Toys	8	7	[0, 0, 0]	n/a	catFR1	1	R1542J
788.647	1.6	1045696	WORD	n/a	wordpools/wordpool_categorized_EN.txt	NYLON	Fabric	9	7	[0, 0, 0]	n/a	catFR1	1	R1542J
790.247	0.884	1047290	WORD_OFF	n/a	n/a	NYLON	Fabric	9	7	[0, 0, 0]	n/a	catFR1	1	R1542J
791.131	1.601	1048181	WORD	n/a	wordpools/wordpool_categorized_EN.txt	WOOL	Fabric	10	7	[0, 0, 0]	n/a	catFR1	1	R1542J
792.732	0.967	1049778	WORD_OFF	n/a	n/a	WOOL	Fabric	10	7	[0, 0, 0]	n/a	catFR1	1	R1542J
793.699	1.616	1050738	WORD	n/a	wordpools/wordpool_categorized_EN.txt	ORANGE	Fruit	11	7	[0, 0, 0]	n/a	catFR1	1	R1542J
795.315	0.9	1052364	WORD_OFF	n/a	n/a	ORANGE	Fruit	11	7	[0, 0, 0]	n/a	catFR1	1	R1542J
796.215	1.615	1053258	WORD	n/a	wordpools/wordpool_categorized_EN.txt	PEAR	Fruit	12	7	[0, 0, 0]	n/a	catFR1	1	R1542J
797.83	0.0	1054868	WORD_OFF	n/a	n/a	PEAR	Fruit	12	7	[0, 0, 0]	n/a	catFR1	1	R1542J
797.83	0.001	1054872	PROB	0.001	n/a	n/a	n/a	-999	7	[2, 1, 6]	9	catFR1	1	R1542J
797.831	0.0	1054873	START	n/a	n/a	n/a	n/a	-999	7	[-999, -999, -999]	n/a	catFR1	1	R1542J
797.831	0.0	1054885	ENCODING_END	n/a	n/a	n/a	n/a	-999	7	[0, 0, 0]	n/a	catFR1	1	R1542J
797.831	2.818	1054885	DISTRACT_START	n/a	n/a	n/a	n/a	-999	7	[0, 0, 0]	n/a	catFR1	1	R1542J
800.649	3.649	1057691	PROB	3.649	n/a	n/a	n/a	-999	7	[4, 8, 5]	17	catFR1	1	R1542J
804.298	3.034	1061340	PROB	3.034	n/a	n/a	n/a	-999	7	[7, 4, 6]	17	catFR1	1	R1542J
807.332	3.068	1064374	PROB	3.068	n/a	n/a	n/a	-999	7	[2, 5, 2]	9	catFR1	1	R1542J
810.4	3.183	1067442	PROB	3.183	n/a	n/a	n/a	-999	7	[6, 2, 4]	12	catFR1	1	R1542J
813.583	2.317	1070625	PROB	2.317	n/a	n/a	n/a	-999	7	[6, 4, 1]	11	catFR1	1	R1542J
815.9	2.316	1072942	PROB	2.316	n/a	n/a	n/a	-999	7	[1, 2, 8]	11	catFR1	1	R1542J
818.216	0.0	1075258	STOP	n/a	n/a	n/a	n/a	-999	7	[-999, -999, -999]	n/a	catFR1	1	R1542J
818.216	1.599	1075261	DISTRACT_END	n/a	n/a	n/a	n/a	-999	7	[0, 0, 0]	n/a	catFR1	1	R1542J
819.815	4.564	1076855	REC_START	n/a	n/a	n/a	n/a	-999	7	[0, 0, 0]	n/a	catFR1	1	R1542J
824.379	1.235	1081420	REC_WORD	1.235	n/a	PEACH	Fruit	5	7	[0, 0, 0]	n/a	catFR1	1	R1542J
825.614	1.8	1082655	REC_WORD	1.8	n/a	PLUM	Fruit	6	7	[0, 0, 0]	n/a	catFR1	1	R1542J
827.414	1.87	1084455	REC_WORD	1.87	n/a	HAIR	n/a	-999	7	[0, 0, 0]	n/a	catFR1	1	R1542J
829.284	3.235	1086325	REC_WORD	3.235	n/a	ORANGE	Fruit	11	7	[0, 0, 0]	n/a	catFR1	1	R1542J
832.519	1.395	1089560	REC_WORD	1.395	n/a	SUEDE	Fabric	1	7	[0, 0, 0]	n/a	catFR1	1	R1542J
833.914	2.345	1090955	REC_WORD	2.345	n/a	VELVET	Fabric	2	7	[0, 0, 0]	n/a	catFR1	1	R1542J
836.259	2.037	1093300	REC_WORD	2.037	n/a	NYLON	Fabric	9	7	[0, 0, 0]	n/a	catFR1	1	R1542J
838.296	11.746	1095337	REC_WORD	11.746	n/a	WOOL	Fabric	10	7	[0, 0, 0]	n/a	catFR1	1	R1542J
850.042	1.491	1107087	REC_END	n/a	n/a	n/a	n/a	-999	7	[0, 0, 0]	n/a	catFR1	1	R1542J
851.533	10.347	1108583	COUNTDOWN_START	n/a	n/a	n/a	n/a	-999	8	[0, 0, 0]	n/a	catFR1	1	R1542J
861.88	0.0	1118926	COUNTDOWN_END	n/a	n/a	n/a	n/a	-999	8	[0, 0, 0]	n/a	catFR1	1	R1542J
861.88	1.834	1118926	ENCODING_START	n/a	n/a	n/a	n/a	-999	8	[0, 0, 0]	n/a	catFR1	1	R1542J
863.714	1.6	1120763	WORD	n/a	wordpools/wordpool_categorized_EN.txt	ORCHID	Flowers	1	8	[0, 0, 0]	n/a	catFR1	1	R1542J
865.314	0.951	1122357	WORD_OFF	n/a	n/a	ORCHID	Flowers	1	8	[0, 0, 0]	n/a	catFR1	1	R1542J
866.265	1.617	1123300	WORD	n/a	wordpools/wordpool_categorized_EN.txt	PETUNIA	Flowers	2	8	[0, 0, 0]	n/a	catFR1	1	R1542J
867.882	0.916	1124926	WORD_OFF	n/a	n/a	PETUNIA	Flowers	2	8	[0, 0, 0]	n/a	catFR1	1	R1542J
868.798	1.6	1125837	WORD	n/a	wordpools/wordpool_categorized_EN.txt	STREAM	Landscapes	3	8	[0, 0, 0]	n/a	catFR1	1	R1542J
870.398	0.9	1127447	WORD_OFF	n/a	n/a	STREAM	Landscapes	3	8	[0, 0, 0]	n/a	catFR1	1	R1542J
871.298	1.616	1128341	WORD	n/a	wordpools/wordpool_categorized_EN.txt	MOUNTAIN	Landscapes	4	8	[0, 0, 0]	n/a	catFR1	1	R1542J
872.914	0.984	1129951	WORD_OFF	n/a	n/a	MOUNTAIN	Landscapes	4	8	[0, 0, 0]	n/a	catFR1	1	R1542J
873.898	1.615	1130943	WORD	n/a	wordpools/wordpool_categorized_EN.txt	CELERY	Vegetables	5	8	[0, 0, 0]	n/a	catFR1	1	R1542J
875.513	0.801	1132553	WORD_OFF	n/a	n/a	CELERY	Vegetables	5	8	[0, 0, 0]	n/a	catFR1	1	R1542J
876.314	1.617	1133350	WORD	n/a	wordpools/wordpool_categorized_EN.txt	CABBAGE	Vegetables	6	8	[0, 0, 0]	n/a	catFR1	1	R1542J
877.931	0.983	1134976	WORD_OFF	n/a	n/a	CABBAGE	Vegetables	6	8	[0, 0, 0]	n/a	catFR1	1	R1542J
878.914	1.601	1135952	WORD	n/a	wordpools/wordpool_categorized_EN.txt	HILLS	Landscapes	7	8	[0, 0, 0]	n/a	catFR1	1	R1542J
880.515	0.983	1137562	WORD_OFF	n/a	n/a	HILLS	Landscapes	7	8	[0, 0, 0]	n/a	catFR1	1	R1542J
881.498	1.618	1138538	WORD	n/a	wordpools/wordpool_categorized_EN.txt	VALLEY	Landscapes	8	8	[0, 0, 0]	n/a	catFR1	1	R1542J
883.116	1.0	1140164	WORD_OFF	n/a	n/a	VALLEY	Landscapes	8	8	[0, 0, 0]	n/a	catFR1	1	R1542J
884.116	1.616	1141156	WORD	n/a	wordpools/wordpool_categorized_EN.txt	SPINACH	Vegetables	9	8	[0, 0, 0]	n/a	catFR1	1	R1542J
885.732	0.849	1142766	WORD_OFF	n/a	n/a	SPINACH	Vegetables	9	8	[0, 0, 0]	n/a	catFR1	1	R1542J
886.581	1.615	1143628	WORD	n/a	wordpools/wordpool_categorized_EN.txt	PEAS	Vegetables	10	8	[0, 0, 0]	n/a	catFR1	1	R1542J
888.196	1.002	1145238	WORD_OFF	n/a	n/a	PEAS	Vegetables	10	8	[0, 0, 0]	n/a	catFR1	1	R1542J
889.198	1.6	1146246	WORD	n/a	wordpools/wordpool_categorized_EN.txt	ROSE	Flowers	11	8	[0, 0, 0]	n/a	catFR1	1	R1542J
890.798	0.884	1147840	WORD_OFF	n/a	n/a	ROSE	Flowers	11	8	[0, 0, 0]	n/a	catFR1	1	R1542J
891.682	1.615	1148718	WORD	n/a	wordpools/wordpool_categorized_EN.txt	VIOLET	Flowers	12	8	[0, 0, 0]	n/a	catFR1	1	R1542J
893.297	0.001	1150335	PROB	0.001	n/a	n/a	n/a	-999	8	[7, 8, 1]	16	catFR1	1	R1542J
893.298	0.0	1150336	START	n/a	n/a	n/a	n/a	-999	8	[-999, -999, -999]	n/a	catFR1	1	R1542J
893.297	0.001	1150344	WORD_OFF	n/a	n/a	VIOLET	Flowers	12	8	[0, 0, 0]	n/a	catFR1	1	R1542J
893.298	0.0	1150344	ENCODING_END	n/a	n/a	n/a	n/a	-999	8	[0, 0, 0]	n/a	catFR1	1	R1542J
893.298	3.217	1150344	DISTRACT_START	n/a	n/a	n/a	n/a	-999	8	[0, 0, 0]	n/a	catFR1	1	R1542J
896.515	2.966	1153553	PROB	2.966	n/a	n/a	n/a	-999	8	[2, 5, 3]	10	catFR1	1	R1542J
899.481	2.45	1156519	PROB	2.45	n/a	n/a	n/a	-999	8	[8, 6, 3]	17	catFR1	1	R1542J
901.931	3.1	1158969	PROB	3.1	n/a	n/a	n/a	-999	8	[7, 3, 4]	14	catFR1	1	R1542J
905.031	2.633	1162069	PROB	2.633	n/a	n/a	n/a	-999	8	[7, 6, 3]	16	catFR1	1	R1542J
907.664	2.784	1164702	PROB	2.784	n/a	n/a	n/a	-999	8	[4, 8, 6]	18	catFR1	1	R1542J
910.448	2.183	1167486	PROB	2.183	n/a	n/a	n/a	-999	8	[7, 4, 1]	12	catFR1	1	R1542J
912.631	4.183	1169669	PROB	4.183	n/a	n/a	n/a	-999	8	[1, 2, 8]	11	catFR1	1	R1542J
916.814	0.0	1173851	STOP	n/a	n/a	n/a	n/a	-999	8	[-999, -999, -999]	n/a	catFR1	1	R1542J
916.814	1.8	1173860	DISTRACT_END	n/a	n/a	n/a	n/a	-999	8	[0, 0, 0]	n/a	catFR1	1	R1542J
918.614	1.04	1175648	REC_START	n/a	n/a	n/a	n/a	-999	8	[0, 0, 0]	n/a	catFR1	1	R1542J
919.654	1.21	1176691	REC_WORD	1.21	n/a	ORCHID	Flowers	1	8	[0, 0, 0]	n/a	catFR1	1	R1542J
920.864	1.745	1177901	REC_WORD	1.745	n/a	PETUNIA	Flowers	2	8	[0, 0, 0]	n/a	catFR1	1	R1542J
922.609	1.65	1179646	REC_WORD	1.65	n/a	STREAM	Landscapes	3	8	[0, 0, 0]	n/a	catFR1	1	R1542J
924.259	1.67	1181296	REC_WORD	1.67	n/a	VALLEY	Landscapes	8	8	[0, 0, 0]	n/a	catFR1	1	R1542J
925.929	1.975	1182966	REC_WORD	1.975	n/a	HILLS	Landscapes	7	8	[0, 0, 0]	n/a	catFR1	1	R1542J
927.904	1.785	1184941	REC_WORD	1.785	n/a	MOUNTAIN	Landscapes	4	8	[0, 0, 0]	n/a	catFR1	1	R1542J
929.689	3.52	1186726	REC_WORD	3.52	n/a	CELERY	Vegetables	5	8	[0, 0, 0]	n/a	catFR1	1	R1542J
933.209	2.12	1190246	REC_WORD	2.12	n/a	SPINACH	Vegetables	9	8	[0, 0, 0]	n/a	catFR1	1	R1542J
935.329	9.23	1192366	REC_WORD	9.23	n/a	PEAS	Vegetables	10	8	[0, 0, 0]	n/a	catFR1	1	R1542J
944.559	4.279	1201595	REC_WORD	4.279	n/a	ROSE	Flowers	11	8	[0, 0, 0]	n/a	catFR1	1	R1542J
948.838	1.444	1205880	REC_END	n/a	n/a	n/a	n/a	-999	8	[0, 0, 0]	n/a	catFR1	1	R1542J
950.282	10.349	1207327	COUNTDOWN_START	n/a	n/a	n/a	n/a	-999	9	[0, 0, 0]	n/a	catFR1	1	R1542J
960.631	0.0	1217670	COUNTDOWN_END	n/a	n/a	n/a	n/a	-999	9	[0, 0, 0]	n/a	catFR1	1	R1542J
960.631	2.15	1217670	ENCODING_START	n/a	n/a	n/a	n/a	-999	9	[0, 0, 0]	n/a	catFR1	1	R1542J
962.781	1.617	1219817	WORD	n/a	wordpools/wordpool_categorized_EN.txt	STRAWBERRY	Fruit	1	9	[0, 0, 0]	n/a	catFR1	1	R1542J
964.398	0.901	1221443	WORD_OFF	n/a	n/a	STRAWBERRY	Fruit	1	9	[0, 0, 0]	n/a	catFR1	1	R1542J
965.299	1.616	1222337	WORD	n/a	wordpools/wordpool_categorized_EN.txt	APPLE	Fruit	2	9	[0, 0, 0]	n/a	catFR1	1	R1542J
966.915	0.966	1223947	WORD_OFF	n/a	n/a	APPLE	Fruit	2	9	[0, 0, 0]	n/a	catFR1	1	R1542J
967.881	1.601	1224923	WORD	n/a	wordpools/wordpool_categorized_EN.txt	SKIRT	Clothing	3	9	[0, 0, 0]	n/a	catFR1	1	R1542J
969.482	0.85	1226517	WORD_OFF	n/a	n/a	SKIRT	Clothing	3	9	[0, 0, 0]	n/a	catFR1	1	R1542J
970.332	1.6	1227362	WORD	n/a	wordpools/wordpool_categorized_EN.txt	SHIRT	Clothing	4	9	[0, 0, 0]	n/a	catFR1	1	R1542J
971.932	0.983	1228972	WORD_OFF	n/a	n/a	SHIRT	Clothing	4	9	[0, 0, 0]	n/a	catFR1	1	R1542J
972.915	1.6	1229948	WORD	n/a	wordpools/wordpool_categorized_EN.txt	SHRIMP	OceanAnimals	5	9	[0, 0, 0]	n/a	catFR1	1	R1542J
974.515	0.932	1231558	WORD_OFF	n/a	n/a	SHRIMP	OceanAnimals	5	9	[0, 0, 0]	n/a	catFR1	1	R1542J
975.447	1.617	1232485	WORD	n/a	wordpools/wordpool_categorized_EN.txt	OYSTER	OceanAnimals	6	9	[0, 0, 0]	n/a	catFR1	1	R1542J
977.064	0.867	1234095	WORD_OFF	n/a	n/a	OYSTER	OceanAnimals	6	9	[0, 0, 0]	n/a	catFR1	1	R1542J
977.931	1.6	1234973	WORD	n/a	wordpools/wordpool_categorized_EN.txt	SHOES	Clothing	7	9	[0, 0, 0]	n/a	catFR1	1	R1542J
979.531	0.8	1236567	WORD_OFF	n/a	n/a	SHOES	Clothing	7	9	[0, 0, 0]	n/a	catFR1	1	R1542J
980.331	1.616	1237364	WORD	n/a	wordpools/wordpool_categorized_EN.txt	JACKET	Clothing	8	9	[0, 0, 0]	n/a	catFR1	1	R1542J
981.947	0.767	1238990	WORD_OFF	n/a	n/a	JACKET	Clothing	8	9	[0, 0, 0]	n/a	catFR1	1	R1542J
982.714	1.602	1239754	WORD	n/a	wordpools/wordpool_categorized_EN.txt	LOBSTER	OceanAnimals	9	9	[0, 0, 0]	n/a	catFR1	1	R1542J
984.316	0.999	1241348	WORD_OFF	n/a	n/a	LOBSTER	OceanAnimals	9	9	[0, 0, 0]	n/a	catFR1	1	R1542J
985.315	1.6	1242356	WORD	n/a	wordpools/wordpool_categorized_EN.txt	WHALE	OceanAnimals	10	9	[0, 0, 0]	n/a	catFR1	1	R1542J
986.915	0.982	1243950	WORD_OFF	n/a	n/a	WHALE	OceanAnimals	10	9	[0, 0, 0]	n/a	catFR1	1	R1542J
987.897	1.601	1244942	WORD	n/a	wordpools/wordpool_categorized_EN.txt	LIME	Fruit	11	9	[0, 0, 0]	n/a	catFR1	1	R1542J
989.498	0.8	1246536	WORD_OFF	n/a	n/a	LIME	Fruit	11	9	[0, 0, 0]	n/a	catFR1	1	R1542J
990.298	1.618	1247332	WORD	n/a	wordpools/wordpool_categorized_EN.txt	GRAPE	Fruit	12	9	[0, 0, 0]	n/a	catFR1	1	R1542J
991.916	0.002	1248950	PROB	0.002	n/a	n/a	n/a	-999	9	[7, 7, 5]	19	catFR1	1	R1542J
991.918	0.0	1248952	START	n/a	n/a	n/a	n/a	-999	9	[-999, -999, -999]	n/a	catFR1	1	R1542J
991.915	0.003	1248959	WORD_OFF	n/a	n/a	GRAPE	Fruit	12	9	[0, 0, 0]	n/a	catFR1	1	R1542J
991.918	0.0	1248959	ENCODING_END	n/a	n/a	n/a	n/a	-999	9	[0, 0, 0]	n/a	catFR1	1	R1542J
991.918	3.647	1248959	DISTRACT_START	n/a	n/a	n/a	n/a	-999	9	[0, 0, 0]	n/a	catFR1	1	R1542J
995.565	3.732	1252599	PROB	3.732	n/a	n/a	n/a	-999	9	[7, 7, 6]	20	catFR1	1	R1542J
999.297	2.434	1256331	PROB	2.434	n/a	n/a	n/a	-999	9	[4, 1, 6]	11	catFR1	1	R1542J
1001.731	2.867	1258765	PROB	2.867	n/a	n/a	n/a	-999	9	[2, 7, 6]	15	catFR1	1	R1542J
1004.598	4.334	1261632	PROB	4.334	n/a	n/a	n/a	-999	9	[2, 7, 8]	17	catFR1	1	R1542J
1008.932	2.416	1265966	PROB	2.416	n/a	n/a	n/a	-999	9	[2, 7, 2]	11	catFR1	1	R1542J
1011.348	2.95	1268381	PROB	2.95	n/a	n/a	n/a	-999	9	[7, 7, 1]	15	catFR1	1	R1542J
1014.298	0.0	1271331	STOP	n/a	n/a	n/a	n/a	-999	9	[-999, -999, -999]	n/a	catFR1	1	R1542J
1014.298	1.583	1271336	DISTRACT_END	n/a	n/a	n/a	n/a	-999	9	[0, 0, 0]	n/a	catFR1	1	R1542J
1015.881	10.677	1272913	REC_START	n/a	n/a	n/a	n/a	-999	9	[0, 0, 0]	n/a	catFR1	1	R1542J
1026.558	1.38	1283591	REC_WORD	1.38	n/a	SKIRT	Clothing	3	9	[0, 0, 0]	n/a	catFR1	1	R1542J
1027.938	1.594	1284971	REC_WORD	1.594	n/a	SHIRT	Clothing	4	9	[0, 0, 0]	n/a	catFR1	1	R1542J
1029.532	1.44	1286565	REC_WORD	1.44	n/a	JACKET	Clothing	8	9	[0, 0, 0]	n/a	catFR1	1	R1542J
1030.972	6.663	1288005	REC_WORD	6.663	n/a	SHOES	Clothing	7	9	[0, 0, 0]	n/a	catFR1	1	R1542J
1037.635	1.045	1294667	REC_WORD	1.045	n/a	SHRIMP	OceanAnimals	5	9	[0, 0, 0]	n/a	catFR1	1	R1542J
1038.68	1.226	1295712	REC_WORD	1.226	n/a	OYSTER	OceanAnimals	6	9	[0, 0, 0]	n/a	catFR1	1	R1542J
1039.906	2.501	1296938	REC_WORD	2.501	n/a	WHALE	OceanAnimals	10	9	[0, 0, 0]	n/a	catFR1	1	R1542J
1042.407	3.68	1299439	REC_WORD	3.68	n/a	LOBSTER	OceanAnimals	9	9	[0, 0, 0]	n/a	catFR1	1	R1542J
1046.087	1.479	1303128	REC_END	n/a	n/a	n/a	n/a	-999	9	[0, 0, 0]	n/a	catFR1	1	R1542J
1047.566	10.349	1304608	COUNTDOWN_START	n/a	n/a	n/a	n/a	-999	10	[0, 0, 0]	n/a	catFR1	1	R1542J
1057.915	0.0	1314951	COUNTDOWN_END	n/a	n/a	n/a	n/a	-999	10	[0, 0, 0]	n/a	catFR1	1	R1542J
1057.915	1.934	1314951	ENCODING_START	n/a	n/a	n/a	n/a	-999	10	[0, 0, 0]	n/a	catFR1	1	R1542J
1059.849	1.6	1316886	WORD	n/a	wordpools/wordpool_categorized_EN.txt	DOLPHIN	OceanAnimals	1	10	[0, 0, 0]	n/a	catFR1	1	R1542J
1061.449	0.816	1318480	WORD_OFF	n/a	n/a	DOLPHIN	OceanAnimals	1	10	[0, 0, 0]	n/a	catFR1	1	R1542J
1062.265	1.615	1319293	WORD	n/a	wordpools/wordpool_categorized_EN.txt	FISH	OceanAnimals	2	10	[0, 0, 0]	n/a	catFR1	1	R1542J
1063.88	0.95	1320919	WORD_OFF	n/a	n/a	FISH	OceanAnimals	2	10	[0, 0, 0]	n/a	catFR1	1	R1542J
1064.83	1.617	1321862	WORD	n/a	wordpools/wordpool_categorized_EN.txt	BINDER	OfficeSupplies	3	10	[0, 0, 0]	n/a	catFR1	1	R1542J
1066.447	0.951	1323472	WORD_OFF	n/a	n/a	BINDER	OfficeSupplies	3	10	[0, 0, 0]	n/a	catFR1	1	R1542J
1067.398	1.6	1324432	WORD	n/a	wordpools/wordpool_categorized_EN.txt	PEN	OfficeSupplies	4	10	[0, 0, 0]	n/a	catFR1	1	R1542J
1068.998	0.884	1326026	WORD_OFF	n/a	n/a	PEN	OfficeSupplies	4	10	[0, 0, 0]	n/a	catFR1	1	R1542J
1069.882	1.615	1326920	WORD	n/a	wordpools/wordpool_categorized_EN.txt	VIOLIN	Instruments	5	10	[0, 0, 0]	n/a	catFR1	1	R1542J
1071.497	0.901	1328530	WORD_OFF	n/a	n/a	VIOLIN	Instruments	5	10	[0, 0, 0]	n/a	catFR1	1	R1542J
1072.398	1.6	1329424	WORD	n/a	wordpools/wordpool_categorized_EN.txt	CELLO	Instruments	6	10	[0, 0, 0]	n/a	catFR1	1	R1542J
1073.998	0.817	1331034	WORD_OFF	n/a	n/a	CELLO	Instruments	6	10	[0, 0, 0]	n/a	catFR1	1	R1542J
1074.815	1.6	1331848	WORD	n/a	wordpools/wordpool_categorized_EN.txt	NOTEBOOK	OfficeSupplies	7	10	[0, 0, 0]	n/a	catFR1	1	R1542J
1076.415	0.883	1333457	WORD_OFF	n/a	n/a	NOTEBOOK	OfficeSupplies	7	10	[0, 0, 0]	n/a	catFR1	1	R1542J
1077.298	1.6	1334336	WORD	n/a	wordpools/wordpool_categorized_EN.txt	TAPE	OfficeSupplies	8	10	[0, 0, 0]	n/a	catFR1	1	R1542J
1078.898	0.8	1335929	WORD_OFF	n/a	n/a	TAPE	OfficeSupplies	8	10	[0, 0, 0]	n/a	catFR1	1	R1542J
1079.698	1.601	1336726	WORD	n/a	wordpools/wordpool_categorized_EN.txt	FLUTE	Instruments	9	10	[0, 0, 0]	n/a	catFR1	1	R1542J
1081.299	0.932	1338336	WORD_OFF	n/a	n/a	FLUTE	Instruments	9	10	[0, 0, 0]	n/a	catFR1	1	R1542J
1082.231	1.616	1339263	WORD	n/a	wordpools/wordpool_categorized_EN.txt	TUBA	Instruments	10	10	[0, 0, 0]	n/a	catFR1	1	R1542J
1083.847	0.967	1340873	WORD_OFF	n/a	n/a	TUBA	Instruments	10	10	[0, 0, 0]	n/a	catFR1	1	R1542J
1084.814	1.617	1341849	WORD	n/a	wordpools/wordpool_categorized_EN.txt	CRAB	OceanAnimals	11	10	[0, 0, 0]	n/a	catFR1	1	R1542J
1086.431	0.799	1343459	WORD_OFF	n/a	n/a	CRAB	OceanAnimals	11	10	[0, 0, 0]	n/a	catFR1	1	R1542J
1087.23	1.601	1344272	WORD	n/a	wordpools/wordpool_categorized_EN.txt	TURTLE	OceanAnimals	12	10	[0, 0, 0]	n/a	catFR1	1	R1542J
1088.831	0.0	1345861	START	n/a	n/a	n/a	n/a	-999	10	[-999, -999, -999]	n/a	catFR1	1	R1542J
1088.831	0.0	1345861	PROB	0.0	n/a	n/a	n/a	-999	10	[2, 6, 8]	16	catFR1	1	R1542J
1088.83	0.001	1345866	WORD_OFF	n/a	n/a	TURTLE	OceanAnimals	12	10	[0, 0, 0]	n/a	catFR1	1	R1542J
1088.831	0.0	1345866	ENCODING_END	n/a	n/a	n/a	n/a	-999	10	[0, 0, 0]	n/a	catFR1	1	R1542J
1088.831	3.733	1345866	DISTRACT_START	n/a	n/a	n/a	n/a	-999	10	[0, 0, 0]	n/a	catFR1	1	R1542J
1092.564	2.483	1349594	PROB	2.483	n/a	n/a	n/a	-999	10	[2, 1, 5]	8	catFR1	1	R1542J
1095.047	2.785	1352077	PROB	2.785	n/a	n/a	n/a	-999	10	[7, 5, 2]	14	catFR1	1	R1542J
1097.832	2.767	1354862	PROB	2.767	n/a	n/a	n/a	-999	10	[5, 6, 2]	13	catFR1	1	R1542J
1100.599	2.499	1357629	PROB	2.499	n/a	n/a	n/a	-999	10	[7, 3, 7]	17	catFR1	1	R1542J
1103.098	2.45	1360128	PROB	2.45	n/a	n/a	n/a	-999	10	[1, 6, 7]	14	catFR1	1	R1542J
1105.548	2.667	1362578	PROB	2.667	n/a	n/a	n/a	-999	10	[6, 7, 5]	18	catFR1	1	R1542J
1108.215	2.049	1365244	PROB	2.049	n/a	n/a	n/a	-999	10	[2, 2, 2]	6	catFR1	1	R1542J
1110.264	0.0	1367293	STOP	n/a	n/a	n/a	n/a	-999	10	[-999, -999, -999]	n/a	catFR1	1	R1542J
1110.264	1.566	1367299	DISTRACT_END	n/a	n/a	n/a	n/a	-999	10	[0, 0, 0]	n/a	catFR1	1	R1542J
1111.83	1.254	1368860	REC_START	n/a	n/a	n/a	n/a	-999	10	[0, 0, 0]	n/a	catFR1	1	R1542J
1113.084	1.051	1370113	REC_WORD	1.051	n/a	DOLPHIN	OceanAnimals	1	10	[0, 0, 0]	n/a	catFR1	1	R1542J
1114.135	1.85	1371164	REC_WORD	1.85	n/a	FISH	OceanAnimals	2	10	[0, 0, 0]	n/a	catFR1	1	R1542J
1115.985	5.625	1373014	REC_WORD	5.625	n/a	TURTLE	OceanAnimals	12	10	[0, 0, 0]	n/a	catFR1	1	R1542J
1121.61	1.215	1378639	REC_WORD	1.215	n/a	VIOLIN	Instruments	5	10	[0, 0, 0]	n/a	catFR1	1	R1542J
1122.825	1.17	1379854	REC_WORD	1.17	n/a	CELLO	Instruments	6	10	[0, 0, 0]	n/a	catFR1	1	R1542J
1123.995	1.645	1381024	REC_WORD	1.645	n/a	FLUTE	Instruments	9	10	[0, 0, 0]	n/a	catFR1	1	R1542J
1125.64	3.7	1382669	REC_WORD	3.7	n/a	TUBA	Instruments	10	10	[0, 0, 0]	n/a	catFR1	1	R1542J
1129.34	12.714	1386369	REC_WORD	12.714	n/a	CRAB	OceanAnimals	11	10	[0, 0, 0]	n/a	catFR1	1	R1542J
1142.054	1.712	1399092	REC_END	n/a	n/a	n/a	n/a	-999	10	[0, 0, 0]	n/a	catFR1	1	R1542J
1143.766	10.349	1400800	COUNTDOWN_START	n/a	n/a	n/a	n/a	-999	11	[0, 0, 0]	n/a	catFR1	1	R1542J
1154.115	0.0	1411142	COUNTDOWN_END	n/a	n/a	n/a	n/a	-999	11	[0, 0, 0]	n/a	catFR1	1	R1542J
1154.115	2.399	1411142	ENCODING_START	n/a	n/a	n/a	n/a	-999	11	[0, 0, 0]	n/a	catFR1	1	R1542J
1156.514	1.6	1413549	WORD	n/a	wordpools/wordpool_categorized_EN.txt	BLUEBERRY	Fruit	1	11	[0, 0, 0]	n/a	catFR1	1	R1542J
1158.114	0.818	1415143	WORD_OFF	n/a	n/a	BLUEBERRY	Fruit	1	11	[0, 0, 0]	n/a	catFR1	1	R1542J
1158.932	1.6	1415956	WORD	n/a	wordpools/wordpool_categorized_EN.txt	BANANA	Fruit	2	11	[0, 0, 0]	n/a	catFR1	1	R1542J
1160.532	0.767	1417566	WORD_OFF	n/a	n/a	BANANA	Fruit	2	11	[0, 0, 0]	n/a	catFR1	1	R1542J
1161.299	1.616	1418330	WORD	n/a	wordpools/wordpool_categorized_EN.txt	SHELF	Furniture	3	11	[0, 0, 0]	n/a	catFR1	1	R1542J
1162.915	0.898	1419940	WORD_OFF	n/a	n/a	SHELF	Furniture	3	11	[0, 0, 0]	n/a	catFR1	1	R1542J
1163.813	1.602	1420851	WORD	n/a	wordpools/wordpool_categorized_EN.txt	TABLE	Furniture	4	11	[0, 0, 0]	n/a	catFR1	1	R1542J
1165.415	0.865	1422445	WORD_OFF	n/a	n/a	TABLE	Furniture	4	11	[0, 0, 0]	n/a	catFR1	1	R1542J
1166.28	1.601	1423307	WORD	n/a	wordpools/wordpool_categorized_EN.txt	UNDERWEAR	Clothing	5	11	[0, 0, 0]	n/a	catFR1	1	R1542J
1167.881	0.784	1424917	WORD_OFF	n/a	n/a	UNDERWEAR	Clothing	5	11	[0, 0, 0]	n/a	catFR1	1	R1542J
1168.665	1.616	1425697	WORD	n/a	wordpools/wordpool_categorized_EN.txt	SHORTS	Clothing	6	11	[0, 0, 0]	n/a	catFR1	1	R1542J
1170.281	0.883	1427307	WORD_OFF	n/a	n/a	SHORTS	Clothing	6	11	[0, 0, 0]	n/a	catFR1	1	R1542J
1171.164	1.601	1428202	WORD	n/a	wordpools/wordpool_categorized_EN.txt	CABINET	Furniture	7	11	[0, 0, 0]	n/a	catFR1	1	R1542J
1172.765	0.916	1429795	WORD_OFF	n/a	n/a	CABINET	Furniture	7	11	[0, 0, 0]	n/a	catFR1	1	R1542J
1173.681	1.6	1430706	WORD	n/a	wordpools/wordpool_categorized_EN.txt	CHAIR	Furniture	8	11	[0, 0, 0]	n/a	catFR1	1	R1542J
1175.281	0.883	1432316	WORD_OFF	n/a	n/a	CHAIR	Furniture	8	11	[0, 0, 0]	n/a	catFR1	1	R1542J
1176.164	1.6	1433194	WORD	n/a	wordpools/wordpool_categorized_EN.txt	LEMON	Fruit	9	11	[0, 0, 0]	n/a	catFR1	1	R1542J
1177.764	0.801	1434788	WORD_OFF	n/a	n/a	LEMON	Fruit	9	11	[0, 0, 0]	n/a	catFR1	1	R1542J
1178.565	1.616	1435601	WORD	n/a	wordpools/wordpool_categorized_EN.txt	CHERRY	Fruit	10	11	[0, 0, 0]	n/a	catFR1	1	R1542J
1180.181	0.866	1437211	WORD_OFF	n/a	n/a	CHERRY	Fruit	10	11	[0, 0, 0]	n/a	catFR1	1	R1542J
1181.047	1.616	1438073	WORD	n/a	wordpools/wordpool_categorized_EN.txt	BLOUSE	Clothing	11	11	[0, 0, 0]	n/a	catFR1	1	R1542J
1182.663	0.936	1439699	WORD_OFF	n/a	n/a	BLOUSE	Clothing	11	11	[0, 0, 0]	n/a	catFR1	1	R1542J
1183.599	1.615	1440626	WORD	n/a	wordpools/wordpool_categorized_EN.txt	PANTS	Clothing	12	11	[0, 0, 0]	n/a	catFR1	1	R1542J
1185.214	0.001	1442236	WORD_OFF	n/a	n/a	PANTS	Clothing	12	11	[0, 0, 0]	n/a	catFR1	1	R1542J
1185.215	0.0	1442241	START	n/a	n/a	n/a	n/a	-999	11	[-999, -999, -999]	n/a	catFR1	1	R1542J
1185.215	0.0	1442241	PROB	0.0	n/a	n/a	n/a	-999	11	[2, 1, 5]	8	catFR1	1	R1542J
1185.215	0.0	1442252	ENCODING_END	n/a	n/a	n/a	n/a	-999	11	[0, 0, 0]	n/a	catFR1	1	R1542J
1185.215	3.134	1442252	DISTRACT_START	n/a	n/a	n/a	n/a	-999	11	[0, 0, 0]	n/a	catFR1	1	R1542J
1188.349	2.816	1445375	PROB	2.816	n/a	n/a	n/a	-999	11	[5, 2, 6]	13	catFR1	1	R1542J
1191.165	2.817	1448191	PROB	2.817	n/a	n/a	n/a	-999	11	[7, 7, 4]	18	catFR1	1	R1542J
1193.982	2.299	1451008	PROB	2.299	n/a	n/a	n/a	-999	11	[2, 8, 3]	13	catFR1	1	R1542J
1196.281	3.617	1453307	PROB	3.617	n/a	n/a	n/a	-999	11	[6, 3, 7]	16	catFR1	1	R1542J
1199.898	2.568	1456924	PROB	2.568	n/a	n/a	n/a	-999	11	[7, 4, 2]	13	catFR1	1	R1542J
1202.466	3.016	1459491	PROB	3.016	n/a	n/a	n/a	-999	11	[7, 6, 7]	20	catFR1	1	R1542J
1205.482	0.0	1462507	STOP	n/a	n/a	n/a	n/a	-999	11	[-999, -999, -999]	n/a	catFR1	1	R1542J
1205.482	1.816	1462515	DISTRACT_END	n/a	n/a	n/a	n/a	-999	11	[0, 0, 0]	n/a	catFR1	1	R1542J
1207.298	0.925	1464320	REC_START	n/a	n/a	n/a	n/a	-999	11	[0, 0, 0]	n/a	catFR1	1	R1542J
1208.223	1.155	1465248	REC_WORD	1.155	n/a	TABLE	Furniture	4	11	[0, 0, 0]	n/a	catFR1	1	R1542J
1209.378	1.68	1466403	REC_WORD	1.68	n/a	SHELF	Furniture	3	11	[0, 0, 0]	n/a	catFR1	1	R1542J
1211.058	3.295	1468083	REC_WORD	3.295	n/a	CABINET	Furniture	7	11	[0, 0, 0]	n/a	catFR1	1	R1542J
1214.353	1.285	1471378	REC_WORD	1.285	n/a	BLUEBERRY	Fruit	1	11	[0, 0, 0]	n/a	catFR1	1	R1542J
1215.638	2.67	1472663	REC_WORD	2.67	n/a	LEMON	Fruit	9	11	[0, 0, 0]	n/a	catFR1	1	R1542J
1218.308	5.25	1475333	REC_WORD	5.25	n/a	BANANA	Fruit	2	11	[0, 0, 0]	n/a	catFR1	1	R1542J
1223.558	13.955	1480583	REC_WORD	13.955	n/a	LIME	Fruit	-999	11	[0, 0, 0]	n/a	catFR1	1	R1542J
1237.513	1.751	1494535	REC_END	n/a	n/a	n/a	n/a	-999	11	[0, 0, 0]	n/a	catFR1	1	R1542J
1239.264	10.351	1496292	COUNTDOWN_START	n/a	n/a	n/a	n/a	-999	12	[0, 0, 0]	n/a	catFR1	1	R1542J
1249.615	0.0	1506634	COUNTDOWN_END	n/a	n/a	n/a	n/a	-999	12	[0, 0, 0]	n/a	catFR1	1	R1542J
1249.615	1.967	1506651	ENCODING_START	n/a	n/a	n/a	n/a	-999	12	[0, 0, 0]	n/a	catFR1	1	R1542J
1251.582	1.6	1508602	WORD	n/a	wordpools/wordpool_categorized_EN.txt	BED	Furniture	1	12	[0, 0, 0]	n/a	catFR1	1	R1542J
1253.182	0.933	1510212	WORD_OFF	n/a	n/a	BED	Furniture	1	12	[0, 0, 0]	n/a	catFR1	1	R1542J
1254.115	1.615	1511139	WORD	n/a	wordpools/wordpool_categorized_EN.txt	DESK	Furniture	2	12	[0, 0, 0]	n/a	catFR1	1	R1542J
1255.73	0.968	1512749	WORD_OFF	n/a	n/a	DESK	Furniture	2	12	[0, 0, 0]	n/a	catFR1	1	R1542J
1256.698	1.6	1513725	WORD	n/a	wordpools/wordpool_categorized_EN.txt	TRUCK	Vehicles	3	12	[0, 0, 0]	n/a	catFR1	1	R1542J
1258.298	0.932	1515319	WORD_OFF	n/a	n/a	TRUCK	Vehicles	3	12	[0, 0, 0]	n/a	catFR1	1	R1542J
1259.23	1.601	1516262	WORD	n/a	wordpools/wordpool_categorized_EN.txt	JEEP	Vehicles	4	12	[0, 0, 0]	n/a	catFR1	1	R1542J
1260.831	0.884	1517855	WORD_OFF	n/a	n/a	JEEP	Vehicles	4	12	[0, 0, 0]	n/a	catFR1	1	R1542J
1261.715	1.6	1518734	WORD	n/a	wordpools/wordpool_categorized_EN.txt	HURRICANE	Weather	5	12	[0, 0, 0]	n/a	catFR1	1	R1542J
1263.315	0.767	1520344	WORD_OFF	n/a	n/a	HURRICANE	Weather	5	12	[0, 0, 0]	n/a	catFR1	1	R1542J
1264.082	1.615	1521108	WORD	n/a	wordpools/wordpool_categorized_EN.txt	WIND	Weather	6	12	[0, 0, 0]	n/a	catFR1	1	R1542J
1265.697	0.851	1522718	WORD_OFF	n/a	n/a	WIND	Weather	6	12	[0, 0, 0]	n/a	catFR1	1	R1542J
1266.548	1.6	1523580	WORD	n/a	wordpools/wordpool_categorized_EN.txt	RECLINER	Furniture	7	12	[0, 0, 0]	n/a	catFR1	1	R1542J
1268.148	1.0	1525173	WORD_OFF	n/a	n/a	RECLINER	Furniture	7	12	[0, 0, 0]	n/a	catFR1	1	R1542J
1269.148	1.6	1526165	WORD	n/a	wordpools/wordpool_categorized_EN.txt	BOOKCASE	Furniture	8	12	[0, 0, 0]	n/a	catFR1	1	R1542J
1270.748	0.967	1527775	WORD_OFF	n/a	n/a	BOOKCASE	Furniture	8	12	[0, 0, 0]	n/a	catFR1	1	R1542J
1271.715	1.616	1528735	WORD	n/a	wordpools/wordpool_categorized_EN.txt	LIGHTNING	Weather	9	12	[0, 0, 0]	n/a	catFR1	1	R1542J
1273.331	0.934	1530361	WORD_OFF	n/a	n/a	LIGHTNING	Weather	9	12	[0, 0, 0]	n/a	catFR1	1	R1542J
1274.265	1.6	1531288	WORD	n/a	wordpools/wordpool_categorized_EN.txt	THUNDERSTORM	Weather	10	12	[0, 0, 0]	n/a	catFR1	1	R1542J
1275.865	0.899	1532882	WORD_OFF	n/a	n/a	THUNDERSTORM	Weather	10	12	[0, 0, 0]	n/a	catFR1	1	R1542J
1276.764	1.599	1533792	WORD	n/a	wordpools/wordpool_categorized_EN.txt	BOAT	Vehicles	11	12	[0, 0, 0]	n/a	catFR1	1	R1542J
1278.363	0.802	1535386	WORD_OFF	n/a	n/a	BOAT	Vehicles	11	12	[0, 0, 0]	n/a	catFR1	1	R1542J
1279.165	1.617	1536183	WORD	n/a	wordpools/wordpool_categorized_EN.txt	PLANE	Vehicles	12	12	[0, 0, 0]	n/a	catFR1	1	R1542J
1280.782	0.001	1537804	PROB	0.001	n/a	n/a	n/a	-999	12	[3, 5, 4]	12	catFR1	1	R1542J
1280.783	0.0	1537805	START	n/a	n/a	n/a	n/a	-999	12	[-999, -999, -999]	n/a	catFR1	1	R1542J
1280.782	0.001	1537809	WORD_OFF	n/a	n/a	PLANE	Vehicles	12	12	[0, 0, 0]	n/a	catFR1	1	R1542J
1280.783	0.0	1537809	ENCODING_END	n/a	n/a	n/a	n/a	-999	12	[0, 0, 0]	n/a	catFR1	1	R1542J
1280.783	3.532	1537809	DISTRACT_START	n/a	n/a	n/a	n/a	-999	12	[0, 0, 0]	n/a	catFR1	1	R1542J
1284.315	2.25	1541337	PROB	2.25	n/a	n/a	n/a	-999	12	[8, 4, 1]	13	catFR1	1	R1542J
1286.565	3.116	1543587	PROB	3.116	n/a	n/a	n/a	-999	12	[4, 8, 8]	20	catFR1	1	R1542J
1289.681	2.383	1546703	PROB	2.383	n/a	n/a	n/a	-999	12	[6, 1, 5]	12	catFR1	1	R1542J
1292.064	2.501	1549086	PROB	2.501	n/a	n/a	n/a	-999	12	[1, 7, 2]	10	catFR1	1	R1542J
1294.565	2.483	1551587	PROB	2.483	n/a	n/a	n/a	-999	12	[2, 5, 2]	9	catFR1	1	R1542J
1297.048	3.149	1554069	PROB	3.149	n/a	n/a	n/a	-999	12	[8, 6, 7]	21	catFR1	1	R1542J
1300.197	3.334	1557218	PROB	3.334	n/a	n/a	n/a	-999	12	[8, 4, 8]	22	catFR1	1	R1542J
1303.531	0.0	1560552	STOP	n/a	n/a	n/a	n/a	-999	12	[-999, -999, -999]	n/a	catFR1	1	R1542J
1303.531	1.883	1560560	DISTRACT_END	n/a	n/a	n/a	n/a	-999	12	[0, 0, 0]	n/a	catFR1	1	R1542J
1305.414	1.439	1562430	REC_START	n/a	n/a	n/a	n/a	-999	12	[0, 0, 0]	n/a	catFR1	1	R1542J
1306.853	1.145	1563874	REC_WORD	1.145	n/a	BED	Furniture	1	12	[0, 0, 0]	n/a	catFR1	1	R1542J
1307.998	1.711	1565019	REC_WORD	1.711	n/a	RECLINER	Furniture	7	12	[0, 0, 0]	n/a	catFR1	1	R1542J
1309.709	1.695	1566730	REC_WORD	1.695	n/a	CHAIR	Furniture	-999	12	[0, 0, 0]	n/a	catFR1	1	R1542J
1311.404	1.53	1568425	REC_WORD	1.53	n/a	THUNDERSTORM	Weather	10	12	[0, 0, 0]	n/a	catFR1	1	R1542J
1312.934	1.57	1569955	REC_WORD	1.57	n/a	THUNDER	Weather	-999	12	[0, 0, 0]	n/a	catFR1	1	R1542J
1314.504	1.76	1571525	REC_WORD	1.76	n/a	HURRICANE	Weather	5	12	[0, 0, 0]	n/a	catFR1	1	R1542J
1316.264	5.455	1573285	REC_WORD	5.455	n/a	WIND	Weather	6	12	[0, 0, 0]	n/a	catFR1	1	R1542J
1321.719	9.271	1578739	REC_WORD	9.271	n/a	BOOKSHELF	n/a	-999	12	[0, 0, 0]	n/a	catFR1	1	R1542J
1330.99	0.75	1588010	REC_WORD	0.75	n/a	CHAIR	Furniture	-999	12	[0, 0, 0]	n/a	catFR1	1	R1542J
1331.74	3.903	1588760	REC_WORD	3.903	n/a	RECLINER	Furniture	7	12	[0, 0, 0]	n/a	catFR1	1	R1542J
1335.643	0.0	1592662	REC_END	n/a	n/a	n/a	n/a	-999	12	[0, 0, 0]	n/a	catFR1	1	R1542J
