onset	duration	sample	trial_type	response_time	stim_file	item_name	category	serialpos	list	test	answer	experiment	session	subject
0.0	3.151	31116	INSTRUCT_START	n/a	n/a	n/a	n/a	-999	-999	[0, 0, 0]	n/a	catFR1	7	R1666S
3.151	23.378	34264	INSTRUCT_END	n/a	n/a	n/a	n/a	-999	-999	[0, 0, 0]	n/a	catFR1	7	R1666S
26.529	10.353	57647	COUNTDOWN_START	n/a	n/a	n/a	n/a	-999	-999	[0, 0, 0]	n/a	catFR1	7	R1666S
36.882	0.001	67992	COUNTDOWN_END	n/a	n/a	n/a	n/a	-999	-999	[0, 0, 0]	n/a	catFR1	7	R1666S
36.883	2.086	68002	ENCODING_START	n/a	n/a	n/a	n/a	-999	-1	[0, 0, 0]	n/a	catFR1	7	R1666S
38.969	1.596	70087	WORD	n/a	n/a	SHIRT	Clothing	1	-1	[0, 0, 0]	n/a	catFR1	7	R1666S
40.565	0.919	71677	WORD_OFF	n/a	n/a	SHIRT	Clothing	1	-1	[0, 0, 0]	n/a	catFR1	7	R1666S
41.484	1.596	72598	WORD	n/a	n/a	DRESS	Clothing	2	-1	[0, 0, 0]	n/a	catFR1	7	R1666S
43.08	0.856	74197	WORD_OFF	n/a	n/a	DRESS	Clothing	2	-1	[0, 0, 0]	n/a	catFR1	7	R1666S
43.936	1.601	75047	WORD	n/a	n/a	WINDOW	Building	3	-1	[0, 0, 0]	n/a	catFR1	7	R1666S
45.537	0.851	76647	WORD_OFF	n/a	n/a	WINDOW	Building	3	-1	[0, 0, 0]	n/a	catFR1	7	R1666S
46.388	1.607	77507	WORD	n/a	n/a	CEILING	Building	4	-1	[0, 0, 0]	n/a	catFR1	7	R1666S
47.995	0.933	79106	WORD_OFF	n/a	n/a	CEILING	Building	4	-1	[0, 0, 0]	n/a	catFR1	7	R1666S
48.928	1.6	80038	WORD	n/a	n/a	ELEPHANT	Zoo	5	-1	[0, 0, 0]	n/a	catFR1	7	R1666S
50.528	0.818	81637	WORD_OFF	n/a	n/a	ELEPHANT	Zoo	5	-1	[0, 0, 0]	n/a	catFR1	7	R1666S
51.346	1.61	82457	WORD	n/a	n/a	PANDA	Zoo	6	-1	[0, 0, 0]	n/a	catFR1	7	R1666S
52.956	0.824	84066	WORD_OFF	n/a	n/a	PANDA	Zoo	6	-1	[0, 0, 0]	n/a	catFR1	7	R1666S
53.78	1.608	84896	WORD	n/a	n/a	JACKET	Clothing	7	-1	[0, 0, 0]	n/a	catFR1	7	R1666S
55.388	0.916	86506	WORD_OFF	n/a	n/a	JACKET	Clothing	7	-1	[0, 0, 0]	n/a	catFR1	7	R1666S
56.304	1.607	87417	WORD	n/a	n/a	JEANS	Clothing	8	-1	[0, 0, 0]	n/a	catFR1	7	R1666S
57.911	0.902	89026	WORD_OFF	n/a	n/a	JEANS	Clothing	8	-1	[0, 0, 0]	n/a	catFR1	7	R1666S
58.813	1.608	89927	WORD	n/a	n/a	ROOF	Building	9	-1	[0, 0, 0]	n/a	catFR1	7	R1666S
60.421	0.783	91537	WORD_OFF	n/a	n/a	ROOF	Building	9	-1	[0, 0, 0]	n/a	catFR1	7	R1666S
61.204	1.609	92316	WORD	n/a	n/a	FOUNDATION	Building	10	-1	[0, 0, 0]	n/a	catFR1	7	R1666S
62.813	0.9	93926	WORD_OFF	n/a	n/a	FOUNDATION	Building	10	-1	[0, 0, 0]	n/a	catFR1	7	R1666S
63.713	1.609	94827	WORD	n/a	n/a	LION	Zoo	11	-1	[0, 0, 0]	n/a	catFR1	7	R1666S
65.322	0.842	96436	WORD_OFF	n/a	n/a	LION	Zoo	11	-1	[0, 0, 0]	n/a	catFR1	7	R1666S
66.164	1.606	97276	WORD	n/a	n/a	ZEBRA	Zoo	12	-1	[0, 0, 0]	n/a	catFR1	7	R1666S
67.77	0.003	98886	WORD_OFF	n/a	n/a	ZEBRA	Zoo	12	-1	[0, 0, 0]	n/a	catFR1	7	R1666S
67.773	0.0	98886	ENCODING_END	n/a	n/a	n/a	n/a	-999	-1	[0, 0, 0]	n/a	catFR1	7	R1666S
67.773	0.0	98886	DISTRACT_START	n/a	n/a	n/a	n/a	-999	-1	[0, 0, 0]	n/a	catFR1	7	R1666S
67.773	0.004	98889	START	n/a	n/a	n/a	n/a	-999	-1	[-999, -999, -999]	n/a	catFR1	7	R1666S
67.777	11.902	98893	PROB	11.902	n/a	n/a	n/a	-999	-1	[4, 7, 6]	17	catFR1	7	R1666S
79.679	9.883	110795	PROB	9.883	n/a	n/a	n/a	-999	-1	[1, 7, 4]	12	catFR1	7	R1666S
89.562	0.0	120678	STOP	n/a	n/a	n/a	n/a	-999	-1	[-999, -999, -999]	n/a	catFR1	7	R1666S
89.562	2.277	120679	DISTRACT_END	n/a	n/a	n/a	n/a	-999	-1	[0, 0, 0]	n/a	catFR1	7	R1666S
91.839	0.55	122957	REC_START	n/a	n/a	n/a	n/a	-999	-1	[0, 0, 0]	n/a	catFR1	7	R1666S
92.389	1.385	123505	REC_WORD	1.385	n/a	SHIRT	Clothing	1	-1	[0, 0, 0]	n/a	catFR1	7	R1666S
93.774	1.66	124890	REC_WORD	1.66	n/a	DRESS	Clothing	2	-1	[0, 0, 0]	n/a	catFR1	7	R1666S
95.434	1.41	126550	REC_WORD	1.41	n/a	ELEPHANT	Zoo	5	-1	[0, 0, 0]	n/a	catFR1	7	R1666S
96.844	2.225	127960	REC_WORD	2.225	n/a	JEANS	Clothing	8	-1	[0, 0, 0]	n/a	catFR1	7	R1666S
99.069	6.535	130185	REC_WORD	6.535	n/a	PANDA	Zoo	6	-1	[0, 0, 0]	n/a	catFR1	7	R1666S
105.604	13.542	136720	REC_WORD	13.542	n/a	SHIRT	Clothing	1	-1	[0, 0, 0]	n/a	catFR1	7	R1666S
119.146	2.841	150262	REC_WORD	2.841	n/a	DENIM	n/a	-999	-1	[0, 0, 0]	n/a	catFR1	7	R1666S
121.987	5.367	153101	REC_END	n/a	n/a	n/a	n/a	-999	-1	[0, 0, 0]	n/a	catFR1	7	R1666S
127.354	10.343	158466	COUNTDOWN_START	n/a	n/a	n/a	n/a	-999	1	[0, 0, 0]	n/a	catFR1	7	R1666S
137.697	0.0	168812	COUNTDOWN_END	n/a	n/a	n/a	n/a	-999	1	[0, 0, 0]	n/a	catFR1	7	R1666S
137.697	2.326	168812	ENCODING_START	n/a	n/a	n/a	n/a	-999	1	[0, 0, 0]	n/a	catFR1	7	R1666S
140.023	1.607	171140	WORD	n/a	wordpools/wordpool_categorized_EN.txt	RADIO	Electronics	1	1	[0, 0, 0]	n/a	catFR1	7	R1666S
141.63	0.818	172739	WORD_OFF	n/a	n/a	RADIO	Electronics	1	1	[0, 0, 0]	n/a	catFR1	7	R1666S
142.448	1.608	173559	WORD	n/a	wordpools/wordpool_categorized_EN.txt	PRINTER	Electronics	2	1	[0, 0, 0]	n/a	catFR1	7	R1666S
144.056	0.966	175168	WORD_OFF	n/a	n/a	PRINTER	Electronics	2	1	[0, 0, 0]	n/a	catFR1	7	R1666S
145.022	1.599	176140	WORD	n/a	wordpools/wordpool_categorized_EN.txt	SNOW	Weather	3	1	[0, 0, 0]	n/a	catFR1	7	R1666S
146.621	0.942	177740	WORD_OFF	n/a	n/a	SNOW	Weather	3	1	[0, 0, 0]	n/a	catFR1	7	R1666S
147.563	1.601	178681	WORD	n/a	wordpools/wordpool_categorized_EN.txt	LIGHTNING	Weather	4	1	[0, 0, 0]	n/a	catFR1	7	R1666S
149.164	0.842	180280	WORD_OFF	n/a	n/a	LIGHTNING	Weather	4	1	[0, 0, 0]	n/a	catFR1	7	R1666S
150.006	1.6	181120	WORD	n/a	wordpools/wordpool_categorized_EN.txt	PUDDING	Desserts	5	1	[0, 0, 0]	n/a	catFR1	7	R1666S
151.606	0.815	182720	WORD_OFF	n/a	n/a	PUDDING	Desserts	5	1	[0, 0, 0]	n/a	catFR1	7	R1666S
152.421	1.601	183540	WORD	n/a	wordpools/wordpool_categorized_EN.txt	CHEESECAKE	Desserts	6	1	[0, 0, 0]	n/a	catFR1	7	R1666S
154.022	0.766	185139	WORD_OFF	n/a	n/a	CHEESECAKE	Desserts	6	1	[0, 0, 0]	n/a	catFR1	7	R1666S
154.788	1.607	185898	WORD	n/a	wordpools/wordpool_categorized_EN.txt	MICROWAVE	Electronics	7	1	[0, 0, 0]	n/a	catFR1	7	R1666S
156.395	0.951	187508	WORD_OFF	n/a	n/a	MICROWAVE	Electronics	7	1	[0, 0, 0]	n/a	catFR1	7	R1666S
157.346	1.608	188459	WORD	n/a	wordpools/wordpool_categorized_EN.txt	STEREO	Electronics	8	1	[0, 0, 0]	n/a	catFR1	7	R1666S
158.954	0.977	190069	WORD_OFF	n/a	n/a	STEREO	Electronics	8	1	[0, 0, 0]	n/a	catFR1	7	R1666S
159.931	1.607	191050	WORD	n/a	wordpools/wordpool_categorized_EN.txt	DRIZZLE	Weather	9	1	[0, 0, 0]	n/a	catFR1	7	R1666S
161.538	0.834	192650	WORD_OFF	n/a	n/a	DRIZZLE	Weather	9	1	[0, 0, 0]	n/a	catFR1	7	R1666S
162.372	1.617	193490	WORD	n/a	wordpools/wordpool_categorized_EN.txt	RAIN	Weather	10	1	[0, 0, 0]	n/a	catFR1	7	R1666S
163.989	0.824	195099	WORD_OFF	n/a	n/a	RAIN	Weather	10	1	[0, 0, 0]	n/a	catFR1	7	R1666S
164.813	1.6	195930	WORD	n/a	wordpools/wordpool_categorized_EN.txt	COBBLER	Desserts	11	1	[0, 0, 0]	n/a	catFR1	7	R1666S
166.413	0.916	197529	WORD_OFF	n/a	n/a	COBBLER	Desserts	11	1	[0, 0, 0]	n/a	catFR1	7	R1666S
167.329	1.601	198440	WORD	n/a	wordpools/wordpool_categorized_EN.txt	JELLO	Desserts	12	1	[0, 0, 0]	n/a	catFR1	7	R1666S
168.93	0.002	200039	WORD_OFF	n/a	n/a	JELLO	Desserts	12	1	[0, 0, 0]	n/a	catFR1	7	R1666S
168.932	0.0	200048	START	n/a	n/a	n/a	n/a	-999	1	[-999, -999, -999]	n/a	catFR1	7	R1666S
168.932	0.0	200048	PROB	0.0	n/a	n/a	n/a	-999	1	[6, 3, 8]	17	catFR1	7	R1666S
168.932	0.0	200049	ENCODING_END	n/a	n/a	n/a	n/a	-999	1	[0, 0, 0]	n/a	catFR1	7	R1666S
168.932	7.764	200049	DISTRACT_START	n/a	n/a	n/a	n/a	-999	1	[0, 0, 0]	n/a	catFR1	7	R1666S
176.696	5.634	207812	PROB	5.634	n/a	n/a	n/a	-999	1	[3, 4, 4]	11	catFR1	7	R1666S
182.33	7.901	213446	PROB	7.901	n/a	n/a	n/a	-999	1	[8, 6, 1]	15	catFR1	7	R1666S
190.231	0.0	221347	DISTRACT_END	n/a	n/a	n/a	n/a	-999	1	[0, 0, 0]	n/a	catFR1	7	R1666S
190.231	2.14	221347	STOP	n/a	n/a	n/a	n/a	-999	1	[-999, -999, -999]	n/a	catFR1	7	R1666S
192.371	0.533	223483	REC_START	n/a	n/a	n/a	n/a	-999	1	[0, 0, 0]	n/a	catFR1	7	R1666S
192.904	1.34	224020	REC_WORD	1.34	n/a	RADIO	Electronics	1	1	[0, 0, 0]	n/a	catFR1	7	R1666S
194.244	1.56	225360	REC_WORD	1.56	n/a	PUDDING	Desserts	5	1	[0, 0, 0]	n/a	catFR1	7	R1666S
195.804	1.85	226920	REC_WORD	1.85	n/a	LIGHTNING	Weather	4	1	[0, 0, 0]	n/a	catFR1	7	R1666S
197.654	3.78	228770	REC_WORD	3.78	n/a	RAIN	Weather	10	1	[0, 0, 0]	n/a	catFR1	7	R1666S
201.434	21.08	232549	REC_WORD	21.08	n/a	JELLO	Desserts	12	1	[0, 0, 0]	n/a	catFR1	7	R1666S
222.514	1.551	253627	REC_END	n/a	n/a	n/a	n/a	-999	1	[0, 0, 0]	n/a	catFR1	7	R1666S
224.065	10.339	255176	COUNTDOWN_START	n/a	n/a	n/a	n/a	-999	2	[0, 0, 0]	n/a	catFR1	7	R1666S
234.404	0.001	265521	COUNTDOWN_END	n/a	n/a	n/a	n/a	-999	2	[0, 0, 0]	n/a	catFR1	7	R1666S
234.405	1.993	265521	ENCODING_START	n/a	n/a	n/a	n/a	-999	2	[0, 0, 0]	n/a	catFR1	7	R1666S
236.398	1.607	267515	WORD	n/a	wordpools/wordpool_categorized_EN.txt	NIGHTSTAND	Furniture	1	2	[0, 0, 0]	n/a	catFR1	7	R1666S
238.005	0.875	269125	WORD_OFF	n/a	n/a	NIGHTSTAND	Furniture	1	2	[0, 0, 0]	n/a	catFR1	7	R1666S
238.88	1.601	269995	WORD	n/a	wordpools/wordpool_categorized_EN.txt	TABLE	Furniture	2	2	[0, 0, 0]	n/a	catFR1	7	R1666S
240.481	0.793	271595	WORD_OFF	n/a	n/a	TABLE	Furniture	2	2	[0, 0, 0]	n/a	catFR1	7	R1666S
241.274	1.607	272384	WORD	n/a	wordpools/wordpool_categorized_EN.txt	COOKIE	Desserts	3	2	[0, 0, 0]	n/a	catFR1	7	R1666S
242.881	0.776	273994	WORD_OFF	n/a	n/a	COOKIE	Desserts	3	2	[0, 0, 0]	n/a	catFR1	7	R1666S
243.657	1.606	274773	WORD	n/a	wordpools/wordpool_categorized_EN.txt	MOUSSE	Desserts	4	2	[0, 0, 0]	n/a	catFR1	7	R1666S
245.263	0.819	276373	WORD_OFF	n/a	n/a	MOUSSE	Desserts	4	2	[0, 0, 0]	n/a	catFR1	7	R1666S
246.082	1.606	277192	WORD	n/a	wordpools/wordpool_categorized_EN.txt	DOLPHIN	OceanAnimals	5	2	[0, 0, 0]	n/a	catFR1	7	R1666S
247.688	0.851	278802	WORD_OFF	n/a	n/a	DOLPHIN	OceanAnimals	5	2	[0, 0, 0]	n/a	catFR1	7	R1666S
248.539	1.607	279652	WORD	n/a	wordpools/wordpool_categorized_EN.txt	LOBSTER	OceanAnimals	6	2	[0, 0, 0]	n/a	catFR1	7	R1666S
250.146	0.867	281262	WORD_OFF	n/a	n/a	LOBSTER	OceanAnimals	6	2	[0, 0, 0]	n/a	catFR1	7	R1666S
251.013	1.608	282122	WORD	n/a	wordpools/wordpool_categorized_EN.txt	BED	Furniture	7	2	[0, 0, 0]	n/a	catFR1	7	R1666S
252.621	0.951	283732	WORD_OFF	n/a	n/a	BED	Furniture	7	2	[0, 0, 0]	n/a	catFR1	7	R1666S
253.572	1.61	284683	WORD	n/a	wordpools/wordpool_categorized_EN.txt	CABINET	Furniture	8	2	[0, 0, 0]	n/a	catFR1	7	R1666S
255.182	0.857	286293	WORD_OFF	n/a	n/a	CABINET	Furniture	8	2	[0, 0, 0]	n/a	catFR1	7	R1666S
256.039	1.608	287153	WORD	n/a	wordpools/wordpool_categorized_EN.txt	SQUID	OceanAnimals	9	2	[0, 0, 0]	n/a	catFR1	7	R1666S
257.647	1.0	288762	WORD_OFF	n/a	n/a	SQUID	OceanAnimals	9	2	[0, 0, 0]	n/a	catFR1	7	R1666S
258.647	1.609	289765	WORD	n/a	wordpools/wordpool_categorized_EN.txt	JELLYFISH	OceanAnimals	10	2	[0, 0, 0]	n/a	catFR1	7	R1666S
260.256	0.759	291374	WORD_OFF	n/a	n/a	JELLYFISH	OceanAnimals	10	2	[0, 0, 0]	n/a	catFR1	7	R1666S
261.015	1.608	292123	WORD	n/a	wordpools/wordpool_categorized_EN.txt	BROWNIES	Desserts	11	2	[0, 0, 0]	n/a	catFR1	7	R1666S
262.623	0.757	293733	WORD_OFF	n/a	n/a	BROWNIES	Desserts	11	2	[0, 0, 0]	n/a	catFR1	7	R1666S
263.38	1.601	294492	WORD	n/a	wordpools/wordpool_categorized_EN.txt	PASTRY	Desserts	12	2	[0, 0, 0]	n/a	catFR1	7	R1666S
264.981	0.003	296091	WORD_OFF	n/a	n/a	PASTRY	Desserts	12	2	[0, 0, 0]	n/a	catFR1	7	R1666S
264.984	0.0	296091	ENCODING_END	n/a	n/a	n/a	n/a	-999	2	[0, 0, 0]	n/a	catFR1	7	R1666S
264.981	0.003	296096	PROB	0.003	n/a	n/a	n/a	-999	2	[6, 3, 7]	16	catFR1	7	R1666S
264.984	0.0	296099	START	n/a	n/a	n/a	n/a	-999	2	[-999, -999, -999]	n/a	catFR1	7	R1666S
264.984	10.606	296101	DISTRACT_START	n/a	n/a	n/a	n/a	-999	2	[0, 0, 0]	n/a	catFR1	7	R1666S
275.59	8.932	306705	PROB	8.932	n/a	n/a	n/a	-999	2	[7, 4, 6]	17	catFR1	7	R1666S
284.522	12.384	315637	PROB	12.384	n/a	n/a	n/a	-999	2	[2, 3, 7]	12	catFR1	7	R1666S
296.906	0.0	328017	DISTRACT_END	n/a	n/a	n/a	n/a	-999	2	[0, 0, 0]	n/a	catFR1	7	R1666S
296.906	2.217	328021	STOP	n/a	n/a	n/a	n/a	-999	2	[-999, -999, -999]	n/a	catFR1	7	R1666S
299.123	1.401	330234	REC_START	n/a	n/a	n/a	n/a	-999	2	[0, 0, 0]	n/a	catFR1	7	R1666S
300.524	1.596	331639	REC_WORD	1.596	n/a	NIGHTSTAND	Furniture	1	2	[0, 0, 0]	n/a	catFR1	7	R1666S
302.12	1.9	333235	REC_WORD	1.9	n/a	TABLE	Furniture	2	2	[0, 0, 0]	n/a	catFR1	7	R1666S
304.02	2.485	335135	REC_WORD	2.485	n/a	BED	Furniture	7	2	[0, 0, 0]	n/a	catFR1	7	R1666S
306.505	9.528	337620	REC_WORD	9.528	n/a	PUDDING	Desserts	-999	2	[0, 0, 0]	n/a	catFR1	7	R1666S
316.033	13.235	347148	REC_WORD	13.235	n/a	DOLPHIN	OceanAnimals	5	2	[0, 0, 0]	n/a	catFR1	7	R1666S
329.268	1.488	360379	REC_END	n/a	n/a	n/a	n/a	-999	2	[0, 0, 0]	n/a	catFR1	7	R1666S
330.756	10.343	361867	COUNTDOWN_START	n/a	n/a	n/a	n/a	-999	3	[0, 0, 0]	n/a	catFR1	7	R1666S
341.099	0.0	372212	COUNTDOWN_END	n/a	n/a	n/a	n/a	-999	3	[0, 0, 0]	n/a	catFR1	7	R1666S
341.099	2.266	372212	ENCODING_START	n/a	n/a	n/a	n/a	-999	3	[0, 0, 0]	n/a	catFR1	7	R1666S
343.365	1.6	374479	WORD	n/a	wordpools/wordpool_categorized_EN.txt	TOASTER	Appliances	1	3	[0, 0, 0]	n/a	catFR1	7	R1666S
344.965	0.9	376079	WORD_OFF	n/a	n/a	TOASTER	Appliances	1	3	[0, 0, 0]	n/a	catFR1	7	R1666S
345.865	1.601	376980	WORD	n/a	wordpools/wordpool_categorized_EN.txt	OVEN	Appliances	2	3	[0, 0, 0]	n/a	catFR1	7	R1666S
347.466	0.982	378579	WORD_OFF	n/a	n/a	OVEN	Appliances	2	3	[0, 0, 0]	n/a	catFR1	7	R1666S
348.448	1.608	379561	WORD	n/a	wordpools/wordpool_categorized_EN.txt	LILY	Flowers	3	3	[0, 0, 0]	n/a	catFR1	7	R1666S
350.056	0.993	381170	WORD_OFF	n/a	n/a	LILY	Flowers	3	3	[0, 0, 0]	n/a	catFR1	7	R1666S
351.049	1.607	382162	WORD	n/a	wordpools/wordpool_categorized_EN.txt	LILAC	Flowers	4	3	[0, 0, 0]	n/a	catFR1	7	R1666S
352.656	0.803	383772	WORD_OFF	n/a	n/a	LILAC	Flowers	4	3	[0, 0, 0]	n/a	catFR1	7	R1666S
353.459	1.606	384571	WORD	n/a	wordpools/wordpool_categorized_EN.txt	CLOUD	Weather	5	3	[0, 0, 0]	n/a	catFR1	7	R1666S
355.065	0.966	386181	WORD_OFF	n/a	n/a	CLOUD	Weather	5	3	[0, 0, 0]	n/a	catFR1	7	R1666S
356.031	1.601	387142	WORD	n/a	wordpools/wordpool_categorized_EN.txt	FOG	Weather	6	3	[0, 0, 0]	n/a	catFR1	7	R1666S
357.632	0.832	388742	WORD_OFF	n/a	n/a	FOG	Weather	6	3	[0, 0, 0]	n/a	catFR1	7	R1666S
358.464	1.602	389572	WORD	n/a	wordpools/wordpool_categorized_EN.txt	IRON	Appliances	7	3	[0, 0, 0]	n/a	catFR1	7	R1666S
360.066	0.822	391181	WORD_OFF	n/a	n/a	IRON	Appliances	7	3	[0, 0, 0]	n/a	catFR1	7	R1666S
360.888	1.601	392001	WORD	n/a	wordpools/wordpool_categorized_EN.txt	DISHWASHER	Appliances	8	3	[0, 0, 0]	n/a	catFR1	7	R1666S
362.489	0.933	393601	WORD_OFF	n/a	n/a	DISHWASHER	Appliances	8	3	[0, 0, 0]	n/a	catFR1	7	R1666S
363.422	1.602	394532	WORD	n/a	wordpools/wordpool_categorized_EN.txt	DAISY	Flowers	9	3	[0, 0, 0]	n/a	catFR1	7	R1666S
365.024	0.891	396141	WORD_OFF	n/a	n/a	DAISY	Flowers	9	3	[0, 0, 0]	n/a	catFR1	7	R1666S
365.915	1.617	397022	WORD	n/a	wordpools/wordpool_categorized_EN.txt	CARNATION	Flowers	10	3	[0, 0, 0]	n/a	catFR1	7	R1666S
367.532	0.9	398642	WORD_OFF	n/a	n/a	CARNATION	Flowers	10	3	[0, 0, 0]	n/a	catFR1	7	R1666S
368.432	1.608	399542	WORD	n/a	wordpools/wordpool_categorized_EN.txt	THUNDER	Weather	11	3	[0, 0, 0]	n/a	catFR1	7	R1666S
370.04	1.0	401152	WORD_OFF	n/a	n/a	THUNDER	Weather	11	3	[0, 0, 0]	n/a	catFR1	7	R1666S
371.04	1.608	402154	WORD	n/a	wordpools/wordpool_categorized_EN.txt	WIND	Weather	12	3	[0, 0, 0]	n/a	catFR1	7	R1666S
372.648	0.0	403762	PROB	0.0	n/a	n/a	n/a	-999	3	[8, 3, 7]	18	catFR1	7	R1666S
372.648	0.002	403764	WORD_OFF	n/a	n/a	WIND	Weather	12	3	[0, 0, 0]	n/a	catFR1	7	R1666S
372.65	0.0	403764	ENCODING_END	n/a	n/a	n/a	n/a	-999	3	[0, 0, 0]	n/a	catFR1	7	R1666S
372.65	0.0	403764	DISTRACT_START	n/a	n/a	n/a	n/a	-999	3	[0, 0, 0]	n/a	catFR1	7	R1666S
372.65	12.906	403764	START	n/a	n/a	n/a	n/a	-999	3	[-999, -999, -999]	n/a	catFR1	7	R1666S
385.556	4.5	416670	PROB	4.5	n/a	n/a	n/a	-999	3	[4, 5, 1]	10	catFR1	7	R1666S
390.056	8.5	421170	PROB	8.5	n/a	n/a	n/a	-999	3	[8, 3, 4]	15	catFR1	7	R1666S
398.556	0.0	429667	DISTRACT_END	n/a	n/a	n/a	n/a	-999	3	[0, 0, 0]	n/a	catFR1	7	R1666S
398.556	2.371	429670	STOP	n/a	n/a	n/a	n/a	-999	3	[-999, -999, -999]	n/a	catFR1	7	R1666S
400.927	2.059	432035	REC_START	n/a	n/a	n/a	n/a	-999	3	[0, 0, 0]	n/a	catFR1	7	R1666S
402.986	1.875	434100	REC_WORD	1.875	n/a	TOASTER	Appliances	1	3	[0, 0, 0]	n/a	catFR1	7	R1666S
404.861	3.415	435975	REC_WORD	3.415	n/a	NIGHTSTAND	Furniture	-999	3	[0, 0, 0]	n/a	catFR1	7	R1666S
408.276	1.91	439390	REC_WORD	1.91	n/a	BED	Furniture	-999	3	[0, 0, 0]	n/a	catFR1	7	R1666S
410.186	10.72	441300	REC_WORD	10.72	n/a	LILY	Flowers	3	3	[0, 0, 0]	n/a	catFR1	7	R1666S
420.906	10.163	452020	REC_WORD	10.163	n/a	LILAC	Flowers	4	3	[0, 0, 0]	n/a	catFR1	7	R1666S
431.069	1.586	462180	REC_END	n/a	n/a	n/a	n/a	-999	3	[0, 0, 0]	n/a	catFR1	7	R1666S
432.655	10.352	463769	COUNTDOWN_START	n/a	n/a	n/a	n/a	-999	4	[0, 0, 0]	n/a	catFR1	7	R1666S
443.007	0.0	474114	COUNTDOWN_END	n/a	n/a	n/a	n/a	-999	4	[0, 0, 0]	n/a	catFR1	7	R1666S
443.007	1.915	474125	ENCODING_START	n/a	n/a	n/a	n/a	-999	4	[0, 0, 0]	n/a	catFR1	7	R1666S
444.922	1.601	476028	WORD	n/a	wordpools/wordpool_categorized_EN.txt	HUMIDITY	Weather	1	4	[0, 0, 0]	n/a	catFR1	7	R1666S
446.523	0.808	477637	WORD_OFF	n/a	n/a	HUMIDITY	Weather	1	4	[0, 0, 0]	n/a	catFR1	7	R1666S
447.331	1.601	478447	WORD	n/a	wordpools/wordpool_categorized_EN.txt	HURRICANE	Weather	2	4	[0, 0, 0]	n/a	catFR1	7	R1666S
448.932	0.854	480046	WORD_OFF	n/a	n/a	HURRICANE	Weather	2	4	[0, 0, 0]	n/a	catFR1	7	R1666S
449.786	1.595	480897	WORD	n/a	wordpools/wordpool_categorized_EN.txt	SODA	Beverages	3	4	[0, 0, 0]	n/a	catFR1	7	R1666S
451.381	0.853	482496	WORD_OFF	n/a	n/a	SODA	Beverages	3	4	[0, 0, 0]	n/a	catFR1	7	R1666S
452.234	1.605	483346	WORD	n/a	wordpools/wordpool_categorized_EN.txt	LEMONADE	Beverages	4	4	[0, 0, 0]	n/a	catFR1	7	R1666S
453.839	0.793	484945	WORD_OFF	n/a	n/a	LEMONADE	Beverages	4	4	[0, 0, 0]	n/a	catFR1	7	R1666S
454.632	1.608	485745	WORD	n/a	wordpools/wordpool_categorized_EN.txt	TROMBONE	Instruments	5	4	[0, 0, 0]	n/a	catFR1	7	R1666S
456.24	0.784	487355	WORD_OFF	n/a	n/a	TROMBONE	Instruments	5	4	[0, 0, 0]	n/a	catFR1	7	R1666S
457.024	1.607	488134	WORD	n/a	wordpools/wordpool_categorized_EN.txt	VIOLIN	Instruments	6	4	[0, 0, 0]	n/a	catFR1	7	R1666S
458.631	0.827	489744	WORD_OFF	n/a	n/a	VIOLIN	Instruments	6	4	[0, 0, 0]	n/a	catFR1	7	R1666S
459.458	1.607	490574	WORD	n/a	wordpools/wordpool_categorized_EN.txt	TORNADO	Weather	7	4	[0, 0, 0]	n/a	catFR1	7	R1666S
461.065	0.86	492173	WORD_OFF	n/a	n/a	TORNADO	Weather	7	4	[0, 0, 0]	n/a	catFR1	7	R1666S
461.925	1.6	493033	WORD	n/a	wordpools/wordpool_categorized_EN.txt	THUNDERSTORM	Weather	8	4	[0, 0, 0]	n/a	catFR1	7	R1666S
463.525	0.999	494633	WORD_OFF	n/a	n/a	THUNDERSTORM	Weather	8	4	[0, 0, 0]	n/a	catFR1	7	R1666S
464.524	1.607	495635	WORD	n/a	wordpools/wordpool_categorized_EN.txt	CELLO	Instruments	9	4	[0, 0, 0]	n/a	catFR1	7	R1666S
466.131	0.767	497244	WORD_OFF	n/a	n/a	CELLO	Instruments	9	4	[0, 0, 0]	n/a	catFR1	7	R1666S
466.898	1.6	498003	WORD	n/a	wordpools/wordpool_categorized_EN.txt	FLUTE	Instruments	10	4	[0, 0, 0]	n/a	catFR1	7	R1666S
468.498	0.802	499613	WORD_OFF	n/a	n/a	FLUTE	Instruments	10	4	[0, 0, 0]	n/a	catFR1	7	R1666S
469.3	1.605	500413	WORD	n/a	wordpools/wordpool_categorized_EN.txt	BEER	Beverages	11	4	[0, 0, 0]	n/a	catFR1	7	R1666S
470.905	0.776	502012	WORD_OFF	n/a	n/a	BEER	Beverages	11	4	[0, 0, 0]	n/a	catFR1	7	R1666S
471.681	1.609	502791	WORD	n/a	wordpools/wordpool_categorized_EN.txt	CIDER	Beverages	12	4	[0, 0, 0]	n/a	catFR1	7	R1666S
473.29	0.004	504401	WORD_OFF	n/a	n/a	CIDER	Beverages	12	4	[0, 0, 0]	n/a	catFR1	7	R1666S
473.294	0.0	504401	ENCODING_END	n/a	n/a	n/a	n/a	-999	4	[0, 0, 0]	n/a	catFR1	7	R1666S
473.29	0.004	504404	PROB	0.004	n/a	n/a	n/a	-999	4	[1, 4, 1]	6	catFR1	7	R1666S
473.294	0.0	504408	START	n/a	n/a	n/a	n/a	-999	4	[-999, -999, -999]	n/a	catFR1	7	R1666S
473.294	8.73	504411	DISTRACT_START	n/a	n/a	n/a	n/a	-999	4	[0, 0, 0]	n/a	catFR1	7	R1666S
482.024	8.95	513138	PROB	8.95	n/a	n/a	n/a	-999	4	[2, 8, 2]	12	catFR1	7	R1666S
490.974	4.108	522088	PROB	4.108	n/a	n/a	n/a	-999	4	[5, 6, 2]	13	catFR1	7	R1666S
495.082	0.0	526194	DISTRACT_END	n/a	n/a	n/a	n/a	-999	4	[0, 0, 0]	n/a	catFR1	7	R1666S
495.082	2.241	526196	STOP	n/a	n/a	n/a	n/a	-999	4	[-999, -999, -999]	n/a	catFR1	7	R1666S
497.323	0.755	528432	REC_START	n/a	n/a	n/a	n/a	-999	4	[0, 0, 0]	n/a	catFR1	7	R1666S
498.078	1.57	529191	REC_WORD	1.57	n/a	HUMIDITY	Weather	1	4	[0, 0, 0]	n/a	catFR1	7	R1666S
499.648	2.184	530761	REC_WORD	2.184	n/a	HURRICANE	Weather	2	4	[0, 0, 0]	n/a	catFR1	7	R1666S
501.832	2.015	532945	REC_WORD	2.015	n/a	THUNDERSTORM	Weather	8	4	[0, 0, 0]	n/a	catFR1	7	R1666S
503.847	16.171	534960	REC_WORD	16.171	n/a	TORNADO	Weather	7	4	[0, 0, 0]	n/a	catFR1	7	R1666S
520.018	7.452	551131	REC_WORD	7.452	n/a	BEER	Beverages	11	4	[0, 0, 0]	n/a	catFR1	7	R1666S
527.47	2.439	558576	REC_END	n/a	n/a	n/a	n/a	-999	4	[0, 0, 0]	n/a	catFR1	7	R1666S
529.909	10.339	561026	COUNTDOWN_START	n/a	n/a	n/a	n/a	-999	5	[0, 0, 0]	n/a	catFR1	7	R1666S
540.248	0.001	571361	COUNTDOWN_END	n/a	n/a	n/a	n/a	-999	5	[0, 0, 0]	n/a	catFR1	7	R1666S
540.249	2.191	571361	ENCODING_START	n/a	n/a	n/a	n/a	-999	5	[0, 0, 0]	n/a	catFR1	7	R1666S
542.44	1.6	573547	WORD	n/a	wordpools/wordpool_categorized_EN.txt	ORCHID	Flowers	1	5	[0, 0, 0]	n/a	catFR1	7	R1666S
544.04	0.785	575147	WORD_OFF	n/a	n/a	ORCHID	Flowers	1	5	[0, 0, 0]	n/a	catFR1	7	R1666S
544.825	1.599	575936	WORD	n/a	wordpools/wordpool_categorized_EN.txt	PETUNIA	Flowers	2	5	[0, 0, 0]	n/a	catFR1	7	R1666S
546.424	0.899	577535	WORD_OFF	n/a	n/a	PETUNIA	Flowers	2	5	[0, 0, 0]	n/a	catFR1	7	R1666S
547.323	1.601	578436	WORD	n/a	wordpools/wordpool_categorized_EN.txt	LETTUCE	Vegetables	3	5	[0, 0, 0]	n/a	catFR1	7	R1666S
548.924	0.807	580036	WORD_OFF	n/a	n/a	LETTUCE	Vegetables	3	5	[0, 0, 0]	n/a	catFR1	7	R1666S
549.731	1.6	580846	WORD	n/a	wordpools/wordpool_categorized_EN.txt	BROCCOLI	Vegetables	4	5	[0, 0, 0]	n/a	catFR1	7	R1666S
551.331	0.818	582445	WORD_OFF	n/a	n/a	BROCCOLI	Vegetables	4	5	[0, 0, 0]	n/a	catFR1	7	R1666S
552.149	1.6	583255	WORD	n/a	wordpools/wordpool_categorized_EN.txt	LEG	BodyParts	5	5	[0, 0, 0]	n/a	catFR1	7	R1666S
553.749	0.9	584864	WORD_OFF	n/a	n/a	LEG	BodyParts	5	5	[0, 0, 0]	n/a	catFR1	7	R1666S
554.649	1.607	585765	WORD	n/a	wordpools/wordpool_categorized_EN.txt	HEAD	BodyParts	6	5	[0, 0, 0]	n/a	catFR1	7	R1666S
556.256	0.834	587364	WORD_OFF	n/a	n/a	HEAD	BodyParts	6	5	[0, 0, 0]	n/a	catFR1	7	R1666S
557.09	1.601	588205	WORD	n/a	wordpools/wordpool_categorized_EN.txt	TULIP	Flowers	7	5	[0, 0, 0]	n/a	catFR1	7	R1666S
558.691	0.941	589804	WORD_OFF	n/a	n/a	TULIP	Flowers	7	5	[0, 0, 0]	n/a	catFR1	7	R1666S
559.632	1.6	590745	WORD	n/a	wordpools/wordpool_categorized_EN.txt	ROSE	Flowers	8	5	[0, 0, 0]	n/a	catFR1	7	R1666S
561.232	0.982	592345	WORD_OFF	n/a	n/a	ROSE	Flowers	8	5	[0, 0, 0]	n/a	catFR1	7	R1666S
562.214	1.602	593326	WORD	n/a	wordpools/wordpool_categorized_EN.txt	PEAS	Vegetables	9	5	[0, 0, 0]	n/a	catFR1	7	R1666S
563.816	0.774	594926	WORD_OFF	n/a	n/a	PEAS	Vegetables	9	5	[0, 0, 0]	n/a	catFR1	7	R1666S
564.59	1.608	595705	WORD	n/a	wordpools/wordpool_categorized_EN.txt	CARROT	Vegetables	10	5	[0, 0, 0]	n/a	catFR1	7	R1666S
566.198	0.833	597305	WORD_OFF	n/a	n/a	CARROT	Vegetables	10	5	[0, 0, 0]	n/a	catFR1	7	R1666S
567.031	1.601	598145	WORD	n/a	wordpools/wordpool_categorized_EN.txt	FOOT	BodyParts	11	5	[0, 0, 0]	n/a	catFR1	7	R1666S
568.632	0.852	599744	WORD_OFF	n/a	n/a	FOOT	BodyParts	11	5	[0, 0, 0]	n/a	catFR1	7	R1666S
569.484	1.607	600594	WORD	n/a	wordpools/wordpool_categorized_EN.txt	FINGERS	BodyParts	12	5	[0, 0, 0]	n/a	catFR1	7	R1666S
571.091	0.003	602204	WORD_OFF	n/a	n/a	FINGERS	BodyParts	12	5	[0, 0, 0]	n/a	catFR1	7	R1666S
571.094	0.0	602204	ENCODING_END	n/a	n/a	n/a	n/a	-999	5	[0, 0, 0]	n/a	catFR1	7	R1666S
571.094	0.0	602204	DISTRACT_START	n/a	n/a	n/a	n/a	-999	5	[0, 0, 0]	n/a	catFR1	7	R1666S
571.092	0.002	602205	PROB	0.002	n/a	n/a	n/a	-999	5	[5, 3, 5]	13	catFR1	7	R1666S
571.094	7.14	602207	START	n/a	n/a	n/a	n/a	-999	5	[-999, -999, -999]	n/a	catFR1	7	R1666S
578.234	7.082	609347	PROB	7.082	n/a	n/a	n/a	-999	5	[4, 7, 7]	18	catFR1	7	R1666S
585.316	5.782	616429	PROB	5.782	n/a	n/a	n/a	-999	5	[7, 1, 3]	11	catFR1	7	R1666S
591.098	0.0	622206	DISTRACT_END	n/a	n/a	n/a	n/a	-999	5	[0, 0, 0]	n/a	catFR1	7	R1666S
591.098	2.226	622211	STOP	n/a	n/a	n/a	n/a	-999	5	[-999, -999, -999]	n/a	catFR1	7	R1666S
593.324	1.023	624433	REC_START	n/a	n/a	n/a	n/a	-999	5	[0, 0, 0]	n/a	catFR1	7	R1666S
594.347	1.181	625460	REC_WORD	1.181	n/a	ORCHID	Flowers	1	5	[0, 0, 0]	n/a	catFR1	7	R1666S
595.528	1.6	626641	REC_WORD	1.6	n/a	PETUNIA	Flowers	2	5	[0, 0, 0]	n/a	catFR1	7	R1666S
597.128	1.41	628241	REC_WORD	1.41	n/a	LETTUCE	Vegetables	3	5	[0, 0, 0]	n/a	catFR1	7	R1666S
598.538	1.525	629651	REC_WORD	1.525	n/a	BROCCOLI	Vegetables	4	5	[0, 0, 0]	n/a	catFR1	7	R1666S
600.063	2.075	631176	REC_WORD	2.075	n/a	PEAS	Vegetables	9	5	[0, 0, 0]	n/a	catFR1	7	R1666S
602.138	13.955	633251	REC_WORD	13.955	n/a	CARROT	Vegetables	10	5	[0, 0, 0]	n/a	catFR1	7	R1666S
616.093	7.369	647206	REC_WORD	7.369	n/a	LAVENDER	n/a	-999	5	[0, 0, 0]	n/a	catFR1	7	R1666S
623.462	1.445	654567	REC_END	n/a	n/a	n/a	n/a	-999	5	[0, 0, 0]	n/a	catFR1	7	R1666S
624.907	10.352	656015	COUNTDOWN_START	n/a	n/a	n/a	n/a	-999	6	[0, 0, 0]	n/a	catFR1	7	R1666S
635.259	0.001	666370	COUNTDOWN_END	n/a	n/a	n/a	n/a	-999	6	[0, 0, 0]	n/a	catFR1	7	R1666S
635.26	2.19	666370	ENCODING_START	n/a	n/a	n/a	n/a	-999	6	[0, 0, 0]	n/a	catFR1	7	R1666S
637.45	1.601	668556	WORD	n/a	wordpools/wordpool_categorized_EN.txt	GIRAFFE	Zoo	1	6	[0, 0, 0]	n/a	catFR1	7	R1666S
639.051	0.875	670156	WORD_OFF	n/a	n/a	GIRAFFE	Zoo	1	6	[0, 0, 0]	n/a	catFR1	7	R1666S
639.926	1.605	671036	WORD	n/a	wordpools/wordpool_categorized_EN.txt	CHEETAH	Zoo	2	6	[0, 0, 0]	n/a	catFR1	7	R1666S
641.531	0.853	672646	WORD_OFF	n/a	n/a	CHEETAH	Zoo	2	6	[0, 0, 0]	n/a	catFR1	7	R1666S
642.384	1.608	673496	WORD	n/a	wordpools/wordpool_categorized_EN.txt	LEATHER	Fabric	3	6	[0, 0, 0]	n/a	catFR1	7	R1666S
643.992	0.899	675106	WORD_OFF	n/a	n/a	LEATHER	Fabric	3	6	[0, 0, 0]	n/a	catFR1	7	R1666S
644.891	1.609	675996	WORD	n/a	wordpools/wordpool_categorized_EN.txt	VELVET	Fabric	4	6	[0, 0, 0]	n/a	catFR1	7	R1666S
646.5	0.816	677606	WORD_OFF	n/a	n/a	VELVET	Fabric	4	6	[0, 0, 0]	n/a	catFR1	7	R1666S
647.316	1.609	678426	WORD	n/a	wordpools/wordpool_categorized_EN.txt	UNDERWEAR	Clothing	5	6	[0, 0, 0]	n/a	catFR1	7	R1666S
648.925	0.876	680035	WORD_OFF	n/a	n/a	UNDERWEAR	Clothing	5	6	[0, 0, 0]	n/a	catFR1	7	R1666S
649.801	1.606	680916	WORD	n/a	wordpools/wordpool_categorized_EN.txt	SHOES	Clothing	6	6	[0, 0, 0]	n/a	catFR1	7	R1666S
651.407	0.884	682515	WORD_OFF	n/a	n/a	SHOES	Clothing	6	6	[0, 0, 0]	n/a	catFR1	7	R1666S
652.291	1.609	683406	WORD	n/a	wordpools/wordpool_categorized_EN.txt	GORILLA	Zoo	7	6	[0, 0, 0]	n/a	catFR1	7	R1666S
653.9	0.768	685016	WORD_OFF	n/a	n/a	GORILLA	Zoo	7	6	[0, 0, 0]	n/a	catFR1	7	R1666S
654.668	1.606	685775	WORD	n/a	wordpools/wordpool_categorized_EN.txt	TIGER	Zoo	8	6	[0, 0, 0]	n/a	catFR1	7	R1666S
656.274	0.917	687384	WORD_OFF	n/a	n/a	TIGER	Zoo	8	6	[0, 0, 0]	n/a	catFR1	7	R1666S
657.191	1.6	688305	WORD	n/a	wordpools/wordpool_categorized_EN.txt	BLOUSE	Clothing	9	6	[0, 0, 0]	n/a	catFR1	7	R1666S
658.791	0.858	689905	WORD_OFF	n/a	n/a	BLOUSE	Clothing	9	6	[0, 0, 0]	n/a	catFR1	7	R1666S
659.649	1.609	690755	WORD	n/a	wordpools/wordpool_categorized_EN.txt	PANTS	Clothing	10	6	[0, 0, 0]	n/a	catFR1	7	R1666S
661.258	0.8	692364	WORD_OFF	n/a	n/a	PANTS	Clothing	10	6	[0, 0, 0]	n/a	catFR1	7	R1666S
662.058	1.6	693164	WORD	n/a	wordpools/wordpool_categorized_EN.txt	SILK	Fabric	11	6	[0, 0, 0]	n/a	catFR1	7	R1666S
663.658	0.824	694763	WORD_OFF	n/a	n/a	SILK	Fabric	11	6	[0, 0, 0]	n/a	catFR1	7	R1666S
664.482	1.6	695594	WORD	n/a	wordpools/wordpool_categorized_EN.txt	LINEN	Fabric	12	6	[0, 0, 0]	n/a	catFR1	7	R1666S
666.082	0.003	697193	WORD_OFF	n/a	n/a	LINEN	Fabric	12	6	[0, 0, 0]	n/a	catFR1	7	R1666S
666.085	0.0	697193	ENCODING_END	n/a	n/a	n/a	n/a	-999	6	[0, 0, 0]	n/a	catFR1	7	R1666S
666.085	0.0	697193	DISTRACT_START	n/a	n/a	n/a	n/a	-999	6	[0, 0, 0]	n/a	catFR1	7	R1666S
666.083	0.002	697195	PROB	0.002	n/a	n/a	n/a	-999	6	[8, 5, 5]	18	catFR1	7	R1666S
666.085	7.283	697197	START	n/a	n/a	n/a	n/a	-999	6	[-999, -999, -999]	n/a	catFR1	7	R1666S
673.368	4.466	704480	PROB	4.466	n/a	n/a	n/a	-999	6	[8, 6, 4]	18	catFR1	7	R1666S
677.834	5.432	708946	PROB	5.432	n/a	n/a	n/a	-999	6	[3, 1, 2]	6	catFR1	7	R1666S
683.266	5.292	714378	PROB	5.292	n/a	n/a	n/a	-999	6	[1, 8, 1]	10	catFR1	7	R1666S
688.558	0.0	719665	DISTRACT_END	n/a	n/a	n/a	n/a	-999	6	[0, 0, 0]	n/a	catFR1	7	R1666S
688.558	2.408	719670	STOP	n/a	n/a	n/a	n/a	-999	6	[-999, -999, -999]	n/a	catFR1	7	R1666S
690.966	0.81	722074	REC_START	n/a	n/a	n/a	n/a	-999	6	[0, 0, 0]	n/a	catFR1	7	R1666S
691.776	2.068	722888	REC_WORD	2.068	n/a	GIRAFFE	Zoo	1	6	[0, 0, 0]	n/a	catFR1	7	R1666S
693.844	2.114	724956	REC_WORD	2.114	n/a	SILK	Fabric	11	6	[0, 0, 0]	n/a	catFR1	7	R1666S
695.958	25.144	727070	REC_WORD	25.144	n/a	LINEN	Fabric	12	6	[0, 0, 0]	n/a	catFR1	7	R1666S
721.102	3.241	752208	REC_END	n/a	n/a	n/a	n/a	-999	6	[0, 0, 0]	n/a	catFR1	7	R1666S
724.343	10.34	755458	COUNTDOWN_START	n/a	n/a	n/a	n/a	-999	7	[0, 0, 0]	n/a	catFR1	7	R1666S
734.683	0.0	765793	COUNTDOWN_END	n/a	n/a	n/a	n/a	-999	7	[0, 0, 0]	n/a	catFR1	7	R1666S
734.683	1.993	765793	ENCODING_START	n/a	n/a	n/a	n/a	-999	7	[0, 0, 0]	n/a	catFR1	7	R1666S
736.676	1.599	767787	WORD	n/a	wordpools/wordpool_categorized_EN.txt	WASHER	Appliances	1	7	[0, 0, 0]	n/a	catFR1	7	R1666S
738.275	0.951	769386	WORD_OFF	n/a	n/a	WASHER	Appliances	1	7	[0, 0, 0]	n/a	catFR1	7	R1666S
739.226	1.6	770338	WORD	n/a	wordpools/wordpool_categorized_EN.txt	DRYER	Appliances	2	7	[0, 0, 0]	n/a	catFR1	7	R1666S
740.826	0.759	771937	WORD_OFF	n/a	n/a	DRYER	Appliances	2	7	[0, 0, 0]	n/a	catFR1	7	R1666S
741.585	1.616	772696	WORD	n/a	wordpools/wordpool_categorized_EN.txt	TOE	BodyParts	3	7	[0, 0, 0]	n/a	catFR1	7	R1666S
743.201	0.916	774316	WORD_OFF	n/a	n/a	TOE	BodyParts	3	7	[0, 0, 0]	n/a	catFR1	7	R1666S
744.117	1.6	775227	WORD	n/a	wordpools/wordpool_categorized_EN.txt	EYE	BodyParts	4	7	[0, 0, 0]	n/a	catFR1	7	R1666S
745.717	0.95	776826	WORD_OFF	n/a	n/a	EYE	BodyParts	4	7	[0, 0, 0]	n/a	catFR1	7	R1666S
746.667	1.611	777778	WORD	n/a	wordpools/wordpool_categorized_EN.txt	TUBA	Instruments	5	7	[0, 0, 0]	n/a	catFR1	7	R1666S
748.278	0.847	779387	WORD_OFF	n/a	n/a	TUBA	Instruments	5	7	[0, 0, 0]	n/a	catFR1	7	R1666S
749.125	1.599	780237	WORD	n/a	wordpools/wordpool_categorized_EN.txt	PIANO	Instruments	6	7	[0, 0, 0]	n/a	catFR1	7	R1666S
750.724	0.95	781837	WORD_OFF	n/a	n/a	PIANO	Instruments	6	7	[0, 0, 0]	n/a	catFR1	7	R1666S
751.674	1.609	782778	WORD	n/a	wordpools/wordpool_categorized_EN.txt	HAND	BodyParts	7	7	[0, 0, 0]	n/a	catFR1	7	R1666S
753.283	0.86	784388	WORD_OFF	n/a	n/a	HAND	BodyParts	7	7	[0, 0, 0]	n/a	catFR1	7	R1666S
754.143	1.601	785248	WORD	n/a	wordpools/wordpool_categorized_EN.txt	NOSE	BodyParts	8	7	[0, 0, 0]	n/a	catFR1	7	R1666S
755.744	0.79	786857	WORD_OFF	n/a	n/a	NOSE	BodyParts	8	7	[0, 0, 0]	n/a	catFR1	7	R1666S
756.534	1.6	787647	WORD	n/a	wordpools/wordpool_categorized_EN.txt	BLENDER	Appliances	9	7	[0, 0, 0]	n/a	catFR1	7	R1666S
758.134	0.984	789246	WORD_OFF	n/a	n/a	BLENDER	Appliances	9	7	[0, 0, 0]	n/a	catFR1	7	R1666S
759.118	1.608	790228	WORD	n/a	wordpools/wordpool_categorized_EN.txt	MIXER	Appliances	10	7	[0, 0, 0]	n/a	catFR1	7	R1666S
760.726	0.992	791838	WORD_OFF	n/a	n/a	MIXER	Appliances	10	7	[0, 0, 0]	n/a	catFR1	7	R1666S
761.718	1.601	792830	WORD	n/a	wordpools/wordpool_categorized_EN.txt	TRUMPET	Instruments	11	7	[0, 0, 0]	n/a	catFR1	7	R1666S
763.319	0.756	794429	WORD_OFF	n/a	n/a	TRUMPET	Instruments	11	7	[0, 0, 0]	n/a	catFR1	7	R1666S
764.075	1.611	795188	WORD	n/a	wordpools/wordpool_categorized_EN.txt	BANJO	Instruments	12	7	[0, 0, 0]	n/a	catFR1	7	R1666S
765.686	0.002	796798	WORD_OFF	n/a	n/a	BANJO	Instruments	12	7	[0, 0, 0]	n/a	catFR1	7	R1666S
765.688	0.0	796798	ENCODING_END	n/a	n/a	n/a	n/a	-999	7	[0, 0, 0]	n/a	catFR1	7	R1666S
765.688	0.0	796798	DISTRACT_START	n/a	n/a	n/a	n/a	-999	7	[0, 0, 0]	n/a	catFR1	7	R1666S
765.686	0.002	796798	PROB	0.002	n/a	n/a	n/a	-999	7	[3, 3, 5]	11	catFR1	7	R1666S
765.688	10.287	796800	START	n/a	n/a	n/a	n/a	-999	7	[-999, -999, -999]	n/a	catFR1	7	R1666S
775.975	5.527	807087	PROB	5.527	n/a	n/a	n/a	-999	7	[5, 7, 5]	17	catFR1	7	R1666S
781.502	5.415	812614	PROB	5.415	n/a	n/a	n/a	-999	7	[8, 2, 1]	11	catFR1	7	R1666S
786.917	0.0	818024	DISTRACT_END	n/a	n/a	n/a	n/a	-999	7	[0, 0, 0]	n/a	catFR1	7	R1666S
786.917	2.359	818029	STOP	n/a	n/a	n/a	n/a	-999	7	[-999, -999, -999]	n/a	catFR1	7	R1666S
789.276	0.711	820383	REC_START	n/a	n/a	n/a	n/a	-999	7	[0, 0, 0]	n/a	catFR1	7	R1666S
789.987	0.985	821099	REC_WORD	0.985	n/a	WASHER	Appliances	1	7	[0, 0, 0]	n/a	catFR1	7	R1666S
790.972	1.78	822084	REC_WORD	1.78	n/a	DRYER	Appliances	2	7	[0, 0, 0]	n/a	catFR1	7	R1666S
792.752	1.575	823863	REC_WORD	1.575	n/a	NOSE	BodyParts	8	7	[0, 0, 0]	n/a	catFR1	7	R1666S
794.327	2.795	825438	REC_WORD	2.795	n/a	EYE	BodyParts	4	7	[0, 0, 0]	n/a	catFR1	7	R1666S
797.122	2.805	828233	REC_WORD	2.805	n/a	FOOT	BodyParts	-999	7	[0, 0, 0]	n/a	catFR1	7	R1666S
799.927	19.484	831038	REC_WORD	19.484	n/a	HAND	BodyParts	7	7	[0, 0, 0]	n/a	catFR1	7	R1666S
819.411	2.182	850517	REC_END	n/a	n/a	n/a	n/a	-999	7	[0, 0, 0]	n/a	catFR1	7	R1666S
821.593	10.34	852704	COUNTDOWN_START	n/a	n/a	n/a	n/a	-999	8	[0, 0, 0]	n/a	catFR1	7	R1666S
831.933	0.0	863039	COUNTDOWN_END	n/a	n/a	n/a	n/a	-999	8	[0, 0, 0]	n/a	catFR1	7	R1666S
831.933	2.043	863039	ENCODING_START	n/a	n/a	n/a	n/a	-999	8	[0, 0, 0]	n/a	catFR1	7	R1666S
833.976	1.608	865084	WORD	n/a	wordpools/wordpool_categorized_EN.txt	SUEDE	Fabric	1	8	[0, 0, 0]	n/a	catFR1	7	R1666S
835.584	0.844	866693	WORD_OFF	n/a	n/a	SUEDE	Fabric	1	8	[0, 0, 0]	n/a	catFR1	7	R1666S
836.428	1.606	867533	WORD	n/a	wordpools/wordpool_categorized_EN.txt	WOOL	Fabric	2	8	[0, 0, 0]	n/a	catFR1	7	R1666S
838.034	0.909	869143	WORD_OFF	n/a	n/a	WOOL	Fabric	2	8	[0, 0, 0]	n/a	catFR1	7	R1666S
838.943	1.601	870054	WORD	n/a	wordpools/wordpool_categorized_EN.txt	BALL	Toys	3	8	[0, 0, 0]	n/a	catFR1	7	R1666S
840.544	0.924	871653	WORD_OFF	n/a	n/a	BALL	Toys	3	8	[0, 0, 0]	n/a	catFR1	7	R1666S
841.468	1.608	872574	WORD	n/a	wordpools/wordpool_categorized_EN.txt	PUZZLE	Toys	4	8	[0, 0, 0]	n/a	catFR1	7	R1666S
843.076	0.908	874184	WORD_OFF	n/a	n/a	PUZZLE	Toys	4	8	[0, 0, 0]	n/a	catFR1	7	R1666S
843.984	1.608	875095	WORD	n/a	wordpools/wordpool_categorized_EN.txt	BANANA	Fruit	5	8	[0, 0, 0]	n/a	catFR1	7	R1666S
845.592	0.876	876704	WORD_OFF	n/a	n/a	BANANA	Fruit	5	8	[0, 0, 0]	n/a	catFR1	7	R1666S
846.468	1.608	877575	WORD	n/a	wordpools/wordpool_categorized_EN.txt	BLUEBERRY	Fruit	6	8	[0, 0, 0]	n/a	catFR1	7	R1666S
848.076	0.758	879184	WORD_OFF	n/a	n/a	BLUEBERRY	Fruit	6	8	[0, 0, 0]	n/a	catFR1	7	R1666S
848.834	1.6	879943	WORD	n/a	wordpools/wordpool_categorized_EN.txt	DOLLHOUSE	Toys	7	8	[0, 0, 0]	n/a	catFR1	7	R1666S
850.434	0.816	881543	WORD_OFF	n/a	n/a	DOLLHOUSE	Toys	7	8	[0, 0, 0]	n/a	catFR1	7	R1666S
851.25	1.602	882363	WORD	n/a	wordpools/wordpool_categorized_EN.txt	BASKETBALL	Toys	8	8	[0, 0, 0]	n/a	catFR1	7	R1666S
852.852	0.833	883962	WORD_OFF	n/a	n/a	BASKETBALL	Toys	8	8	[0, 0, 0]	n/a	catFR1	7	R1666S
853.685	1.601	884792	WORD	n/a	wordpools/wordpool_categorized_EN.txt	CHERRY	Fruit	9	8	[0, 0, 0]	n/a	catFR1	7	R1666S
855.286	0.798	886391	WORD_OFF	n/a	n/a	CHERRY	Fruit	9	8	[0, 0, 0]	n/a	catFR1	7	R1666S
856.084	1.608	887191	WORD	n/a	wordpools/wordpool_categorized_EN.txt	PLUM	Fruit	10	8	[0, 0, 0]	n/a	catFR1	7	R1666S
857.692	0.95	888801	WORD_OFF	n/a	n/a	PLUM	Fruit	10	8	[0, 0, 0]	n/a	catFR1	7	R1666S
858.642	1.6	889752	WORD	n/a	wordpools/wordpool_categorized_EN.txt	SATIN	Fabric	11	8	[0, 0, 0]	n/a	catFR1	7	R1666S
860.242	0.95	891351	WORD_OFF	n/a	n/a	SATIN	Fabric	11	8	[0, 0, 0]	n/a	catFR1	7	R1666S
861.192	1.601	892303	WORD	n/a	wordpools/wordpool_categorized_EN.txt	SPANDEX	Fabric	12	8	[0, 0, 0]	n/a	catFR1	7	R1666S
862.793	0.0	893902	WORD_OFF	n/a	n/a	SPANDEX	Fabric	12	8	[0, 0, 0]	n/a	catFR1	7	R1666S
862.793	0.006	893904	PROB	0.006	n/a	n/a	n/a	-999	8	[4, 3, 7]	14	catFR1	7	R1666S
862.799	0.0	893910	START	n/a	n/a	n/a	n/a	-999	8	[-999, -999, -999]	n/a	catFR1	7	R1666S
862.799	0.0	893912	ENCODING_END	n/a	n/a	n/a	n/a	-999	8	[0, 0, 0]	n/a	catFR1	7	R1666S
862.799	10.394	893912	DISTRACT_START	n/a	n/a	n/a	n/a	-999	8	[0, 0, 0]	n/a	catFR1	7	R1666S
873.193	14.224	904304	PROB	14.224	n/a	n/a	n/a	-999	8	[8, 6, 4]	18	catFR1	7	R1666S
887.417	0.0	918520	DISTRACT_END	n/a	n/a	n/a	n/a	-999	8	[0, 0, 0]	n/a	catFR1	7	R1666S
887.417	2.059	918528	STOP	n/a	n/a	n/a	n/a	-999	8	[-999, -999, -999]	n/a	catFR1	7	R1666S
889.476	1.467	920585	REC_START	n/a	n/a	n/a	n/a	-999	8	[0, 0, 0]	n/a	catFR1	7	R1666S
890.943	5.401	922054	REC_WORD	5.401	n/a	SUEDE	Fabric	1	8	[0, 0, 0]	n/a	catFR1	7	R1666S
896.344	3.95	927455	REC_WORD	3.95	n/a	BLUEBERRY	Fruit	6	8	[0, 0, 0]	n/a	catFR1	7	R1666S
900.294	19.321	931405	REC_WORD	19.321	n/a	BANANA	Fruit	5	8	[0, 0, 0]	n/a	catFR1	7	R1666S
919.615	1.437	950720	REC_END	n/a	n/a	n/a	n/a	-999	8	[0, 0, 0]	n/a	catFR1	7	R1666S
921.052	10.34	952157	COUNTDOWN_START	n/a	n/a	n/a	n/a	-999	9	[0, 0, 0]	n/a	catFR1	7	R1666S
931.392	0.0	962502	COUNTDOWN_END	n/a	n/a	n/a	n/a	-999	9	[0, 0, 0]	n/a	catFR1	7	R1666S
931.392	1.826	962502	ENCODING_START	n/a	n/a	n/a	n/a	-999	9	[0, 0, 0]	n/a	catFR1	7	R1666S
933.218	1.6	964324	WORD	n/a	wordpools/wordpool_categorized_EN.txt	CABBAGE	Vegetables	1	9	[0, 0, 0]	n/a	catFR1	7	R1666S
934.818	0.857	965923	WORD_OFF	n/a	n/a	CABBAGE	Vegetables	1	9	[0, 0, 0]	n/a	catFR1	7	R1666S
935.675	1.6	966784	WORD	n/a	wordpools/wordpool_categorized_EN.txt	SPINACH	Vegetables	2	9	[0, 0, 0]	n/a	catFR1	7	R1666S
937.275	0.952	968383	WORD_OFF	n/a	n/a	SPINACH	Vegetables	2	9	[0, 0, 0]	n/a	catFR1	7	R1666S
938.227	1.599	969335	WORD	n/a	wordpools/wordpool_categorized_EN.txt	APPLE	Fruit	3	9	[0, 0, 0]	n/a	catFR1	7	R1666S
939.826	0.901	970934	WORD_OFF	n/a	n/a	APPLE	Fruit	3	9	[0, 0, 0]	n/a	catFR1	7	R1666S
940.727	1.6	971835	WORD	n/a	wordpools/wordpool_categorized_EN.txt	PEAR	Fruit	4	9	[0, 0, 0]	n/a	catFR1	7	R1666S
942.327	0.759	973434	WORD_OFF	n/a	n/a	PEAR	Fruit	4	9	[0, 0, 0]	n/a	catFR1	7	R1666S
943.086	1.608	974193	WORD	n/a	wordpools/wordpool_categorized_EN.txt	WALL	Building	5	9	[0, 0, 0]	n/a	catFR1	7	R1666S
944.694	0.906	975803	WORD_OFF	n/a	n/a	WALL	Building	5	9	[0, 0, 0]	n/a	catFR1	7	R1666S
945.6	1.602	976704	WORD	n/a	wordpools/wordpool_categorized_EN.txt	ATTIC	Building	6	9	[0, 0, 0]	n/a	catFR1	7	R1666S
947.202	0.89	978313	WORD_OFF	n/a	n/a	ATTIC	Building	6	9	[0, 0, 0]	n/a	catFR1	7	R1666S
948.092	1.61	979204	WORD	n/a	wordpools/wordpool_categorized_EN.txt	CAULIFLOWER	Vegetables	7	9	[0, 0, 0]	n/a	catFR1	7	R1666S
949.702	0.8	980814	WORD_OFF	n/a	n/a	CAULIFLOWER	Vegetables	7	9	[0, 0, 0]	n/a	catFR1	7	R1666S
950.502	1.609	981613	WORD	n/a	wordpools/wordpool_categorized_EN.txt	CUCUMBER	Vegetables	8	9	[0, 0, 0]	n/a	catFR1	7	R1666S
952.111	0.916	983223	WORD_OFF	n/a	n/a	CUCUMBER	Vegetables	8	9	[0, 0, 0]	n/a	catFR1	7	R1666S
953.027	1.609	984134	WORD	n/a	wordpools/wordpool_categorized_EN.txt	FLOOR	Building	9	9	[0, 0, 0]	n/a	catFR1	7	R1666S
954.636	0.957	985743	WORD_OFF	n/a	n/a	FLOOR	Building	9	9	[0, 0, 0]	n/a	catFR1	7	R1666S
955.593	1.617	986705	WORD	n/a	wordpools/wordpool_categorized_EN.txt	BATHROOM	Building	10	9	[0, 0, 0]	n/a	catFR1	7	R1666S
957.21	0.983	988314	WORD_OFF	n/a	n/a	BATHROOM	Building	10	9	[0, 0, 0]	n/a	catFR1	7	R1666S
958.193	1.6	989296	WORD	n/a	wordpools/wordpool_categorized_EN.txt	ORANGE	Fruit	11	9	[0, 0, 0]	n/a	catFR1	7	R1666S
959.793	0.834	990896	WORD_OFF	n/a	n/a	ORANGE	Fruit	11	9	[0, 0, 0]	n/a	catFR1	7	R1666S
960.627	1.607	991736	WORD	n/a	wordpools/wordpool_categorized_EN.txt	LEMON	Fruit	12	9	[0, 0, 0]	n/a	catFR1	7	R1666S
962.234	0.0	993344	PROB	0.0	n/a	n/a	n/a	-999	9	[6, 4, 3]	13	catFR1	7	R1666S
962.233	0.003	993345	WORD_OFF	n/a	n/a	LEMON	Fruit	12	9	[0, 0, 0]	n/a	catFR1	7	R1666S
962.236	0.0	993345	ENCODING_END	n/a	n/a	n/a	n/a	-999	9	[0, 0, 0]	n/a	catFR1	7	R1666S
962.236	0.0	993345	DISTRACT_START	n/a	n/a	n/a	n/a	-999	9	[0, 0, 0]	n/a	catFR1	7	R1666S
962.236	12.323	993346	START	n/a	n/a	n/a	n/a	-999	9	[-999, -999, -999]	n/a	catFR1	7	R1666S
974.559	4.611	1005669	PROB	4.611	n/a	n/a	n/a	-999	9	[6, 4, 1]	11	catFR1	7	R1666S
979.17	5.291	1010280	PROB	5.291	n/a	n/a	n/a	-999	9	[8, 6, 1]	15	catFR1	7	R1666S
984.461	0.0	1015564	DISTRACT_END	n/a	n/a	n/a	n/a	-999	9	[0, 0, 0]	n/a	catFR1	7	R1666S
984.461	2.398	1015571	STOP	n/a	n/a	n/a	n/a	-999	9	[-999, -999, -999]	n/a	catFR1	7	R1666S
986.859	0.772	1017963	REC_START	n/a	n/a	n/a	n/a	-999	9	[0, 0, 0]	n/a	catFR1	7	R1666S
987.631	1.426	1018741	REC_WORD	1.426	n/a	CABBAGE	Vegetables	1	9	[0, 0, 0]	n/a	catFR1	7	R1666S
989.057	1.985	1020167	REC_WORD	1.985	n/a	SPINACH	Vegetables	2	9	[0, 0, 0]	n/a	catFR1	7	R1666S
991.042	1.91	1022152	REC_WORD	1.91	n/a	APPLE	Fruit	3	9	[0, 0, 0]	n/a	catFR1	7	R1666S
992.952	6.48	1024062	REC_WORD	6.48	n/a	CUCUMBER	Vegetables	8	9	[0, 0, 0]	n/a	catFR1	7	R1666S
999.432	15.985	1030542	REC_WORD	15.985	n/a	POTATO	n/a	-999	9	[0, 0, 0]	n/a	catFR1	7	R1666S
1015.417	1.578	1046527	REC_WORD	1.578	n/a	CRANBERRY	n/a	-999	9	[0, 0, 0]	n/a	catFR1	7	R1666S
1016.995	2.764	1048097	REC_END	n/a	n/a	n/a	n/a	-999	9	[0, 0, 0]	n/a	catFR1	7	R1666S
1019.759	10.343	1050871	COUNTDOWN_START	n/a	n/a	n/a	n/a	-999	10	[0, 0, 0]	n/a	catFR1	7	R1666S
1030.102	0.0	1061206	COUNTDOWN_END	n/a	n/a	n/a	n/a	-999	10	[0, 0, 0]	n/a	catFR1	7	R1666S
1030.102	1.916	1061206	ENCODING_START	n/a	n/a	n/a	n/a	-999	10	[0, 0, 0]	n/a	catFR1	7	R1666S
1032.018	1.6	1063129	WORD	n/a	wordpools/wordpool_categorized_EN.txt	ONION	Vegetables	1	10	[0, 0, 0]	n/a	catFR1	7	R1666S
1033.618	0.91	1064729	WORD_OFF	n/a	n/a	ONION	Vegetables	1	10	[0, 0, 0]	n/a	catFR1	7	R1666S
1034.528	1.608	1065640	WORD	n/a	wordpools/wordpool_categorized_EN.txt	CORN	Vegetables	2	10	[0, 0, 0]	n/a	catFR1	7	R1666S
1036.136	0.956	1067249	WORD_OFF	n/a	n/a	CORN	Vegetables	2	10	[0, 0, 0]	n/a	catFR1	7	R1666S
1037.092	1.6	1068201	WORD	n/a	wordpools/wordpool_categorized_EN.txt	BUS	Vehicles	3	10	[0, 0, 0]	n/a	catFR1	7	R1666S
1038.692	0.884	1069800	WORD_OFF	n/a	n/a	BUS	Vehicles	3	10	[0, 0, 0]	n/a	catFR1	7	R1666S
1039.576	1.6	1070681	WORD	n/a	wordpools/wordpool_categorized_EN.txt	SCOOTER	Vehicles	4	10	[0, 0, 0]	n/a	catFR1	7	R1666S
1041.176	0.793	1072280	WORD_OFF	n/a	n/a	SCOOTER	Vehicles	4	10	[0, 0, 0]	n/a	catFR1	7	R1666S
1041.969	1.608	1073080	WORD	n/a	wordpools/wordpool_categorized_EN.txt	SHOVEL	Tools	5	10	[0, 0, 0]	n/a	catFR1	7	R1666S
1043.577	0.925	1074689	WORD_OFF	n/a	n/a	SHOVEL	Tools	5	10	[0, 0, 0]	n/a	catFR1	7	R1666S
1044.502	1.6	1075610	WORD	n/a	wordpools/wordpool_categorized_EN.txt	WRENCH	Tools	6	10	[0, 0, 0]	n/a	catFR1	7	R1666S
1046.102	0.833	1077210	WORD_OFF	n/a	n/a	WRENCH	Tools	6	10	[0, 0, 0]	n/a	catFR1	7	R1666S
1046.935	1.6	1078040	WORD	n/a	wordpools/wordpool_categorized_EN.txt	MOPED	Vehicles	7	10	[0, 0, 0]	n/a	catFR1	7	R1666S
1048.535	0.783	1079639	WORD_OFF	n/a	n/a	MOPED	Vehicles	7	10	[0, 0, 0]	n/a	catFR1	7	R1666S
1049.318	1.609	1080429	WORD	n/a	wordpools/wordpool_categorized_EN.txt	MOTORCYCLE	Vehicles	8	10	[0, 0, 0]	n/a	catFR1	7	R1666S
1050.927	0.866	1082038	WORD_OFF	n/a	n/a	MOTORCYCLE	Vehicles	8	10	[0, 0, 0]	n/a	catFR1	7	R1666S
1051.793	1.6	1082898	WORD	n/a	wordpools/wordpool_categorized_EN.txt	CROWBAR	Tools	9	10	[0, 0, 0]	n/a	catFR1	7	R1666S
1053.393	0.983	1084498	WORD_OFF	n/a	n/a	CROWBAR	Tools	9	10	[0, 0, 0]	n/a	catFR1	7	R1666S
1054.376	1.609	1085480	WORD	n/a	wordpools/wordpool_categorized_EN.txt	RATCHET	Tools	10	10	[0, 0, 0]	n/a	catFR1	7	R1666S
1055.985	0.909	1087089	WORD_OFF	n/a	n/a	RATCHET	Tools	10	10	[0, 0, 0]	n/a	catFR1	7	R1666S
1056.894	1.601	1088000	WORD	n/a	wordpools/wordpool_categorized_EN.txt	POTATO	Vegetables	11	10	[0, 0, 0]	n/a	catFR1	7	R1666S
1058.495	0.889	1089599	WORD_OFF	n/a	n/a	POTATO	Vegetables	11	10	[0, 0, 0]	n/a	catFR1	7	R1666S
1059.384	1.6	1090490	WORD	n/a	wordpools/wordpool_categorized_EN.txt	CELERY	Vegetables	12	10	[0, 0, 0]	n/a	catFR1	7	R1666S
1060.984	0.003	1092090	WORD_OFF	n/a	n/a	CELERY	Vegetables	12	10	[0, 0, 0]	n/a	catFR1	7	R1666S
1060.987	0.0	1092090	ENCODING_END	n/a	n/a	n/a	n/a	-999	10	[0, 0, 0]	n/a	catFR1	7	R1666S
1060.987	0.0	1092090	DISTRACT_START	n/a	n/a	n/a	n/a	-999	10	[0, 0, 0]	n/a	catFR1	7	R1666S
1060.985	0.002	1092095	PROB	0.002	n/a	n/a	n/a	-999	10	[4, 1, 6]	11	catFR1	7	R1666S
1060.987	14.49	1092097	START	n/a	n/a	n/a	n/a	-999	10	[-999, -999, -999]	n/a	catFR1	7	R1666S
1075.477	7.161	1106587	PROB	7.161	n/a	n/a	n/a	-999	10	[8, 4, 5]	17	catFR1	7	R1666S
1082.638	0.0	1113741	DISTRACT_END	n/a	n/a	n/a	n/a	-999	10	[0, 0, 0]	n/a	catFR1	7	R1666S
1082.638	2.314	1113748	STOP	n/a	n/a	n/a	n/a	-999	10	[-999, -999, -999]	n/a	catFR1	7	R1666S
1084.952	3.308	1116060	REC_START	n/a	n/a	n/a	n/a	-999	10	[0, 0, 0]	n/a	catFR1	7	R1666S
1088.26	1.491	1119369	REC_WORD	1.491	n/a	ONION	Vegetables	1	10	[0, 0, 0]	n/a	catFR1	7	R1666S
1089.751	4.349	1120860	REC_WORD	4.349	n/a	CORN	Vegetables	2	10	[0, 0, 0]	n/a	catFR1	7	R1666S
1094.1	3.25	1125209	REC_WORD	3.25	n/a	BUS	Vehicles	3	10	[0, 0, 0]	n/a	catFR1	7	R1666S
1097.35	8.445	1128459	REC_WORD	8.445	n/a	SCOOTER	Vehicles	4	10	[0, 0, 0]	n/a	catFR1	7	R1666S
1105.795	9.301	1136904	REC_WORD	9.301	n/a	RATCHET	Tools	10	10	[0, 0, 0]	n/a	catFR1	7	R1666S
1115.096	1.632	1146204	REC_END	n/a	n/a	n/a	n/a	-999	10	[0, 0, 0]	n/a	catFR1	7	R1666S
1116.728	10.34	1147834	COUNTDOWN_START	n/a	n/a	n/a	n/a	-999	11	[0, 0, 0]	n/a	catFR1	7	R1666S
1127.068	0.001	1158179	COUNTDOWN_END	n/a	n/a	n/a	n/a	-999	11	[0, 0, 0]	n/a	catFR1	7	R1666S
1127.069	2.017	1158179	ENCODING_START	n/a	n/a	n/a	n/a	-999	11	[0, 0, 0]	n/a	catFR1	7	R1666S
1129.086	1.608	1160193	WORD	n/a	wordpools/wordpool_categorized_EN.txt	NOTEBOOK	OfficeSupplies	1	11	[0, 0, 0]	n/a	catFR1	7	R1666S
1130.694	0.834	1161803	WORD_OFF	n/a	n/a	NOTEBOOK	OfficeSupplies	1	11	[0, 0, 0]	n/a	catFR1	7	R1666S
1131.528	1.607	1162643	WORD	n/a	wordpools/wordpool_categorized_EN.txt	STAPLER	OfficeSupplies	2	11	[0, 0, 0]	n/a	catFR1	7	R1666S
1133.135	0.966	1164242	WORD_OFF	n/a	n/a	STAPLER	OfficeSupplies	2	11	[0, 0, 0]	n/a	catFR1	7	R1666S
1134.101	1.601	1165204	WORD	n/a	wordpools/wordpool_categorized_EN.txt	SANDER	Tools	3	11	[0, 0, 0]	n/a	catFR1	7	R1666S
1135.702	0.758	1166813	WORD_OFF	n/a	n/a	SANDER	Tools	3	11	[0, 0, 0]	n/a	catFR1	7	R1666S
1136.46	1.6	1167562	WORD	n/a	wordpools/wordpool_categorized_EN.txt	SAW	Tools	4	11	[0, 0, 0]	n/a	catFR1	7	R1666S
1138.06	0.976	1169162	WORD_OFF	n/a	n/a	SAW	Tools	4	11	[0, 0, 0]	n/a	catFR1	7	R1666S
1139.036	1.608	1170144	WORD	n/a	wordpools/wordpool_categorized_EN.txt	SEAGULL	Birds	5	11	[0, 0, 0]	n/a	catFR1	7	R1666S
1140.644	0.801	1171753	WORD_OFF	n/a	n/a	SEAGULL	Birds	5	11	[0, 0, 0]	n/a	catFR1	7	R1666S
1141.445	1.608	1172553	WORD	n/a	wordpools/wordpool_categorized_EN.txt	CARDINAL	Birds	6	11	[0, 0, 0]	n/a	catFR1	7	R1666S
1143.053	0.858	1174162	WORD_OFF	n/a	n/a	CARDINAL	Birds	6	11	[0, 0, 0]	n/a	catFR1	7	R1666S
1143.911	1.6	1175023	WORD	n/a	wordpools/wordpool_categorized_EN.txt	HAMMER	Tools	7	11	[0, 0, 0]	n/a	catFR1	7	R1666S
1145.511	0.983	1176622	WORD_OFF	n/a	n/a	HAMMER	Tools	7	11	[0, 0, 0]	n/a	catFR1	7	R1666S
1146.494	1.601	1177604	WORD	n/a	wordpools/wordpool_categorized_EN.txt	LEVEL	Tools	8	11	[0, 0, 0]	n/a	catFR1	7	R1666S
1148.095	0.767	1179203	WORD_OFF	n/a	n/a	LEVEL	Tools	8	11	[0, 0, 0]	n/a	catFR1	7	R1666S
1148.862	1.615	1179973	WORD	n/a	wordpools/wordpool_categorized_EN.txt	ROBIN	Birds	9	11	[0, 0, 0]	n/a	catFR1	7	R1666S
1150.477	0.96	1181582	WORD_OFF	n/a	n/a	ROBIN	Birds	9	11	[0, 0, 0]	n/a	catFR1	7	R1666S
1151.437	1.6	1182544	WORD	n/a	wordpools/wordpool_categorized_EN.txt	SPARROW	Birds	10	11	[0, 0, 0]	n/a	catFR1	7	R1666S
1153.037	0.769	1184143	WORD_OFF	n/a	n/a	SPARROW	Birds	10	11	[0, 0, 0]	n/a	catFR1	7	R1666S
1153.806	1.607	1184912	WORD	n/a	wordpools/wordpool_categorized_EN.txt	BINDER	OfficeSupplies	11	11	[0, 0, 0]	n/a	catFR1	7	R1666S
1155.413	0.782	1186522	WORD_OFF	n/a	n/a	BINDER	OfficeSupplies	11	11	[0, 0, 0]	n/a	catFR1	7	R1666S
1156.195	1.607	1187301	WORD	n/a	wordpools/wordpool_categorized_EN.txt	ERASER	OfficeSupplies	12	11	[0, 0, 0]	n/a	catFR1	7	R1666S
1157.802	0.003	1188911	WORD_OFF	n/a	n/a	ERASER	OfficeSupplies	12	11	[0, 0, 0]	n/a	catFR1	7	R1666S
1157.805	0.0	1188911	ENCODING_END	n/a	n/a	n/a	n/a	-999	11	[0, 0, 0]	n/a	catFR1	7	R1666S
1157.805	0.0	1188911	DISTRACT_START	n/a	n/a	n/a	n/a	-999	11	[0, 0, 0]	n/a	catFR1	7	R1666S
1157.803	0.002	1188912	PROB	0.002	n/a	n/a	n/a	-999	11	[4, 5, 6]	15	catFR1	7	R1666S
1157.805	12.723	1188914	START	n/a	n/a	n/a	n/a	-999	11	[-999, -999, -999]	n/a	catFR1	7	R1666S
1170.528	4.65	1201637	PROB	4.65	n/a	n/a	n/a	-999	11	[3, 3, 6]	12	catFR1	7	R1666S
1175.178	4.783	1206287	PROB	4.783	n/a	n/a	n/a	-999	11	[1, 3, 3]	7	catFR1	7	R1666S
1179.961	0.0	1211069	DISTRACT_END	n/a	n/a	n/a	n/a	-999	11	[0, 0, 0]	n/a	catFR1	7	R1666S
1179.961	2.141	1211070	STOP	n/a	n/a	n/a	n/a	-999	11	[-999, -999, -999]	n/a	catFR1	7	R1666S
1182.102	1.082	1213205	REC_START	n/a	n/a	n/a	n/a	-999	11	[0, 0, 0]	n/a	catFR1	7	R1666S
1183.184	1.045	1214293	REC_WORD	1.045	n/a	NOTEBOOK	OfficeSupplies	1	11	[0, 0, 0]	n/a	catFR1	7	R1666S
1184.229	2.325	1215338	REC_WORD	2.325	n/a	STAPLER	OfficeSupplies	2	11	[0, 0, 0]	n/a	catFR1	7	R1666S
1186.554	2.025	1217663	REC_WORD	2.025	n/a	SAW	Tools	4	11	[0, 0, 0]	n/a	catFR1	7	R1666S
1188.579	23.661	1219688	REC_WORD	23.661	n/a	SEAGULL	Birds	5	11	[0, 0, 0]	n/a	catFR1	7	R1666S
1212.24	1.32	1243349	REC_END	n/a	n/a	n/a	n/a	-999	11	[0, 0, 0]	n/a	catFR1	7	R1666S
1213.56	10.346	1244665	COUNTDOWN_START	n/a	n/a	n/a	n/a	-999	12	[0, 0, 0]	n/a	catFR1	7	R1666S
1223.906	0.0	1255010	COUNTDOWN_END	n/a	n/a	n/a	n/a	-999	12	[0, 0, 0]	n/a	catFR1	7	R1666S
1223.906	2.287	1255010	ENCODING_START	n/a	n/a	n/a	n/a	-999	12	[0, 0, 0]	n/a	catFR1	7	R1666S
1226.193	1.6	1257298	WORD	n/a	wordpools/wordpool_categorized_EN.txt	BLUEBIRD	Birds	1	12	[0, 0, 0]	n/a	catFR1	7	R1666S
1227.793	0.76	1258897	WORD_OFF	n/a	n/a	BLUEBIRD	Birds	1	12	[0, 0, 0]	n/a	catFR1	7	R1666S
1228.553	1.6	1259656	WORD	n/a	wordpools/wordpool_categorized_EN.txt	FINCH	Birds	2	12	[0, 0, 0]	n/a	catFR1	7	R1666S
1230.153	0.891	1261256	WORD_OFF	n/a	n/a	FINCH	Birds	2	12	[0, 0, 0]	n/a	catFR1	7	R1666S
1231.044	1.599	1262147	WORD	n/a	wordpools/wordpool_categorized_EN.txt	DRILL	Tools	3	12	[0, 0, 0]	n/a	catFR1	7	R1666S
1232.643	0.876	1263746	WORD_OFF	n/a	n/a	DRILL	Tools	3	12	[0, 0, 0]	n/a	catFR1	7	R1666S
1233.519	1.599	1264627	WORD	n/a	wordpools/wordpool_categorized_EN.txt	SCREWDRIVER	Tools	4	12	[0, 0, 0]	n/a	catFR1	7	R1666S
1235.118	0.877	1266226	WORD_OFF	n/a	n/a	SCREWDRIVER	Tools	4	12	[0, 0, 0]	n/a	catFR1	7	R1666S
1235.995	1.6	1267107	WORD	n/a	wordpools/wordpool_categorized_EN.txt	PAPER	OfficeSupplies	5	12	[0, 0, 0]	n/a	catFR1	7	R1666S
1237.595	0.8	1268696	WORD_OFF	n/a	n/a	PAPER	OfficeSupplies	5	12	[0, 0, 0]	n/a	catFR1	7	R1666S
1238.395	1.608	1269506	WORD	n/a	wordpools/wordpool_categorized_EN.txt	GLUE	OfficeSupplies	6	12	[0, 0, 0]	n/a	catFR1	7	R1666S
1240.003	0.858	1271105	WORD_OFF	n/a	n/a	GLUE	OfficeSupplies	6	12	[0, 0, 0]	n/a	catFR1	7	R1666S
1240.861	1.6	1271965	WORD	n/a	wordpools/wordpool_categorized_EN.txt	DUCK	Birds	7	12	[0, 0, 0]	n/a	catFR1	7	R1666S
1242.461	0.934	1273565	WORD_OFF	n/a	n/a	DUCK	Birds	7	12	[0, 0, 0]	n/a	catFR1	7	R1666S
1243.395	1.609	1274506	WORD	n/a	wordpools/wordpool_categorized_EN.txt	PIGEON	Birds	8	12	[0, 0, 0]	n/a	catFR1	7	R1666S
1245.004	0.79	1276116	WORD_OFF	n/a	n/a	PIGEON	Birds	8	12	[0, 0, 0]	n/a	catFR1	7	R1666S
1245.794	1.6	1276895	WORD	n/a	wordpools/wordpool_categorized_EN.txt	MARKER	OfficeSupplies	9	12	[0, 0, 0]	n/a	catFR1	7	R1666S
1247.394	0.967	1278504	WORD_OFF	n/a	n/a	MARKER	OfficeSupplies	9	12	[0, 0, 0]	n/a	catFR1	7	R1666S
1248.361	1.6	1279466	WORD	n/a	wordpools/wordpool_categorized_EN.txt	RULER	OfficeSupplies	10	12	[0, 0, 0]	n/a	catFR1	7	R1666S
1249.961	1.001	1281065	WORD_OFF	n/a	n/a	RULER	OfficeSupplies	10	12	[0, 0, 0]	n/a	catFR1	7	R1666S
1250.962	1.607	1282068	WORD	n/a	wordpools/wordpool_categorized_EN.txt	PLIERS	Tools	11	12	[0, 0, 0]	n/a	catFR1	7	R1666S
1252.569	0.885	1283677	WORD_OFF	n/a	n/a	PLIERS	Tools	11	12	[0, 0, 0]	n/a	catFR1	7	R1666S
1253.454	1.607	1284558	WORD	n/a	wordpools/wordpool_categorized_EN.txt	AXE	Tools	12	12	[0, 0, 0]	n/a	catFR1	7	R1666S
1255.061	0.004	1286167	WORD_OFF	n/a	n/a	AXE	Tools	12	12	[0, 0, 0]	n/a	catFR1	7	R1666S
1255.065	0.0	1286167	ENCODING_END	n/a	n/a	n/a	n/a	-999	12	[0, 0, 0]	n/a	catFR1	7	R1666S
1255.065	0.0	1286167	DISTRACT_START	n/a	n/a	n/a	n/a	-999	12	[0, 0, 0]	n/a	catFR1	7	R1666S
1255.061	0.004	1286169	PROB	0.004	n/a	n/a	n/a	-999	12	[7, 1, 1]	9	catFR1	7	R1666S
1255.065	10.705	1286173	START	n/a	n/a	n/a	n/a	-999	12	[-999, -999, -999]	n/a	catFR1	7	R1666S
1265.77	6.208	1296878	PROB	6.208	n/a	n/a	n/a	-999	12	[2, 4, 6]	12	catFR1	7	R1666S
1271.978	5.599	1303086	PROB	5.599	n/a	n/a	n/a	-999	12	[3, 1, 4]	8	catFR1	7	R1666S
1277.577	0.0	1308679	DISTRACT_END	n/a	n/a	n/a	n/a	-999	12	[0, 0, 0]	n/a	catFR1	7	R1666S
1277.577	2.11	1308685	STOP	n/a	n/a	n/a	n/a	-999	12	[-999, -999, -999]	n/a	catFR1	7	R1666S
1279.687	0.81	1310795	REC_START	n/a	n/a	n/a	n/a	-999	12	[0, 0, 0]	n/a	catFR1	7	R1666S
1280.497	1.49	1311605	REC_WORD	1.49	n/a	BLUEBIRD	Birds	1	12	[0, 0, 0]	n/a	catFR1	7	R1666S
1281.987	1.915	1313095	REC_WORD	1.915	n/a	FINCH	Birds	2	12	[0, 0, 0]	n/a	catFR1	7	R1666S
1283.902	1.795	1315010	REC_WORD	1.795	n/a	PAPER	OfficeSupplies	5	12	[0, 0, 0]	n/a	catFR1	7	R1666S
1285.697	2.371	1316805	REC_WORD	2.371	n/a	GLUE	OfficeSupplies	6	12	[0, 0, 0]	n/a	catFR1	7	R1666S
1288.068	21.759	1319176	REC_WORD	21.759	n/a	PIGEON	Birds	8	12	[0, 0, 0]	n/a	catFR1	7	R1666S
1309.827	0.0	1340930	REC_END	n/a	n/a	n/a	n/a	-999	12	[0, 0, 0]	n/a	catFR1	7	R1666S
