onset	duration	sample	trial_type	response_time	stim_file	item_name	category	serialpos	list	test	answer	experiment	session	subject
0.0	3.361	117320	INSTRUCT_START	n/a	n/a	n/a	n/a	-999	-999	[0, 0, 0]	n/a	catFR1	6	R1501J
3.361	25.218	120680	INSTRUCT_END	n/a	n/a	n/a	n/a	-999	-999	[0, 0, 0]	n/a	catFR1	6	R1501J
28.579	10.35	145903	COUNTDOWN_START	n/a	n/a	n/a	n/a	-999	-999	[0, 0, 0]	n/a	catFR1	6	R1501J
38.929	0.001	156246	COUNTDOWN_END	n/a	n/a	n/a	n/a	-999	-999	[0, 0, 0]	n/a	catFR1	6	R1501J
38.93	2.033	156246	ENCODING_START	n/a	n/a	n/a	n/a	-999	-1	[0, 0, 0]	n/a	catFR1	6	R1501J
40.963	1.6	158283	WORD	n/a	n/a	LEMON	Fruit	1	-1	[0, 0, 0]	n/a	catFR1	6	R1501J
42.563	0.949	159883	WORD_OFF	n/a	n/a	LEMON	Fruit	1	-1	[0, 0, 0]	n/a	catFR1	6	R1501J
43.512	1.6	160836	WORD	n/a	n/a	BLUEBERRY	Fruit	2	-1	[0, 0, 0]	n/a	catFR1	6	R1501J
45.112	0.984	162436	WORD_OFF	n/a	n/a	BLUEBERRY	Fruit	2	-1	[0, 0, 0]	n/a	catFR1	6	R1501J
46.096	1.616	163415	WORD	n/a	n/a	PLIERS	Tools	3	-1	[0, 0, 0]	n/a	catFR1	6	R1501J
47.712	0.95	165029	WORD_OFF	n/a	n/a	PLIERS	Tools	3	-1	[0, 0, 0]	n/a	catFR1	6	R1501J
48.662	1.6	165981	WORD	n/a	n/a	AXE	Tools	4	-1	[0, 0, 0]	n/a	catFR1	6	R1501J
50.262	0.95	167581	WORD_OFF	n/a	n/a	AXE	Tools	4	-1	[0, 0, 0]	n/a	catFR1	6	R1501J
51.212	1.617	168534	WORD	n/a	n/a	TULIP	Flowers	5	-1	[0, 0, 0]	n/a	catFR1	6	R1501J
52.829	0.9	170147	WORD_OFF	n/a	n/a	TULIP	Flowers	5	-1	[0, 0, 0]	n/a	catFR1	6	R1501J
53.729	1.616	171047	WORD	n/a	n/a	VIOLET	Flowers	6	-1	[0, 0, 0]	n/a	catFR1	6	R1501J
55.345	0.785	172660	WORD_OFF	n/a	n/a	VIOLET	Flowers	6	-1	[0, 0, 0]	n/a	catFR1	6	R1501J
56.13	1.599	173454	WORD	n/a	n/a	SCREWDRIVER	Tools	7	-1	[0, 0, 0]	n/a	catFR1	6	R1501J
57.729	0.767	175054	WORD_OFF	n/a	n/a	SCREWDRIVER	Tools	7	-1	[0, 0, 0]	n/a	catFR1	6	R1501J
58.496	1.6	175821	WORD	n/a	n/a	RATCHET	Tools	8	-1	[0, 0, 0]	n/a	catFR1	6	R1501J
60.096	1.0	177409	WORD_OFF	n/a	n/a	RATCHET	Tools	8	-1	[0, 0, 0]	n/a	catFR1	6	R1501J
61.096	1.6	178414	WORD	n/a	n/a	SUNFLOWER	Flowers	9	-1	[0, 0, 0]	n/a	catFR1	6	R1501J
62.696	0.766	180014	WORD_OFF	n/a	n/a	SUNFLOWER	Flowers	9	-1	[0, 0, 0]	n/a	catFR1	6	R1501J
63.462	1.616	180781	WORD	n/a	n/a	MARIGOLD	Flowers	10	-1	[0, 0, 0]	n/a	catFR1	6	R1501J
65.078	0.951	182395	WORD_OFF	n/a	n/a	MARIGOLD	Flowers	10	-1	[0, 0, 0]	n/a	catFR1	6	R1501J
66.029	1.617	183347	WORD	n/a	n/a	PLUM	Fruit	11	-1	[0, 0, 0]	n/a	catFR1	6	R1501J
67.646	0.933	184961	WORD_OFF	n/a	n/a	PLUM	Fruit	11	-1	[0, 0, 0]	n/a	catFR1	6	R1501J
68.579	1.601	185900	WORD	n/a	n/a	PEAR	Fruit	12	-1	[0, 0, 0]	n/a	catFR1	6	R1501J
70.18	0.001	187495	PROB	4.565	n/a	n/a	n/a	-999	-1	[5, 6, 5]	16.0	catFR1	6	R1501J
70.181	0.0	187496	START	n/a	n/a	n/a	n/a	-999	-1	[-999, -999, -999]	n/a	catFR1	6	R1501J
70.179	0.002	187501	WORD_OFF	n/a	n/a	PEAR	Fruit	12	-1	[0, 0, 0]	n/a	catFR1	6	R1501J
70.181	0.0	187501	ENCODING_END	n/a	n/a	n/a	n/a	-999	-1	[0, 0, 0]	n/a	catFR1	6	R1501J
70.181	4.58	187501	DISTRACT_START	n/a	n/a	n/a	n/a	-999	-1	[0, 0, 0]	n/a	catFR1	6	R1501J
74.761	6.251	192076	PROB	6.234	n/a	n/a	n/a	-999	-1	[5, 6, 5]	16.0	catFR1	6	R1501J
81.012	6.033	198327	PROB	6.017	n/a	n/a	n/a	-999	-1	[1, 1, 2]	4.0	catFR1	6	R1501J
87.045	7.35	204360	PROB	7.333	n/a	n/a	n/a	-999	-1	[7, 4, 6]	17.0	catFR1	6	R1501J
94.395	0.0	211705	DISTRACT_END	n/a	n/a	n/a	n/a	-999	-1	[0, 0, 0]	n/a	catFR1	6	R1501J
94.395	2.316	211709	STOP	n/a	n/a	n/a	n/a	-999	-1	[-999, -999, -999]	n/a	catFR1	6	R1501J
96.711	0.621	214028	REC_START	n/a	n/a	n/a	n/a	-999	-1	[0, 0, 0]	n/a	catFR1	6	R1501J
97.332	1.524	214646	REC_WORD	0.621	n/a	LEMON	Fruit	1	-1	[0, 0, 0]	n/a	catFR1	6	R1501J
98.856	1.385	216170	REC_WORD	2.145	n/a	BLUEBERRY	Fruit	2	-1	[0, 0, 0]	n/a	catFR1	6	R1501J
100.241	1.75	217555	REC_WORD	3.53	n/a	SCREWDRIVER	Tools	7	-1	[0, 0, 0]	n/a	catFR1	6	R1501J
101.991	1.581	219305	REC_WORD	5.28	n/a	PLIERS	Tools	3	-1	[0, 0, 0]	n/a	catFR1	6	R1501J
103.572	1.808	220886	REC_WORD	6.861	n/a	MARIGOLD	Flowers	10	-1	[0, 0, 0]	n/a	catFR1	6	R1501J
105.38	21.526	222694	REC_WORD	8.669	n/a	AXE	Tools	4	-1	[0, 0, 0]	n/a	catFR1	6	R1501J
126.906	3.605	244216	REC_END	n/a	n/a	n/a	n/a	-999	-1	[0, 0, 0]	n/a	catFR1	6	R1501J
130.511	10.35	247827	COUNTDOWN_START	n/a	n/a	n/a	n/a	-999	1	[0, 0, 0]	n/a	catFR1	6	R1501J
140.861	0.0	258171	COUNTDOWN_END	n/a	n/a	n/a	n/a	-999	1	[0, 0, 0]	n/a	catFR1	6	R1501J
140.861	2.033	258184	ENCODING_START	n/a	n/a	n/a	n/a	-999	1	[0, 0, 0]	n/a	catFR1	6	R1501J
142.894	1.601	260208	WORD	n/a	wordpools/wordpool_categorized_EN.txt	SHEEP	FarmAnimals	1	1	[0, 0, 0]	n/a	catFR1	6	R1501J
144.495	0.966	261808	WORD_OFF	n/a	n/a	SHEEP	FarmAnimals	1	1	[0, 0, 0]	n/a	catFR1	6	R1501J
145.461	1.616	262773	WORD	n/a	wordpools/wordpool_categorized_EN.txt	TURKEY	FarmAnimals	2	1	[0, 0, 0]	n/a	catFR1	6	R1501J
147.077	0.884	264387	WORD_OFF	n/a	n/a	TURKEY	FarmAnimals	2	1	[0, 0, 0]	n/a	catFR1	6	R1501J
147.961	1.617	265273	WORD	n/a	wordpools/wordpool_categorized_EN.txt	GORILLA	Zoo	3	1	[0, 0, 0]	n/a	catFR1	6	R1501J
149.578	0.983	266887	WORD_OFF	n/a	n/a	GORILLA	Zoo	3	1	[0, 0, 0]	n/a	catFR1	6	R1501J
150.561	1.617	267879	WORD	n/a	wordpools/wordpool_categorized_EN.txt	GIRAFFE	Zoo	4	1	[0, 0, 0]	n/a	catFR1	6	R1501J
152.178	0.799	269506	WORD_OFF	n/a	n/a	GIRAFFE	Zoo	4	1	[0, 0, 0]	n/a	catFR1	6	R1501J
152.977	1.602	270296	WORD	n/a	wordpools/wordpool_categorized_EN.txt	CROWBAR	Tools	5	1	[0, 0, 0]	n/a	catFR1	6	R1501J
154.579	0.798	271900	WORD_OFF	n/a	n/a	CROWBAR	Tools	5	1	[0, 0, 0]	n/a	catFR1	6	R1501J
155.377	1.617	272693	WORD	n/a	wordpools/wordpool_categorized_EN.txt	SANDER	Tools	6	1	[0, 0, 0]	n/a	catFR1	6	R1501J
156.994	0.967	274307	WORD_OFF	n/a	n/a	SANDER	Tools	6	1	[0, 0, 0]	n/a	catFR1	6	R1501J
157.961	1.6	275273	WORD	n/a	wordpools/wordpool_categorized_EN.txt	TIGER	Zoo	7	1	[0, 0, 0]	n/a	catFR1	6	R1501J
159.561	0.933	276873	WORD_OFF	n/a	n/a	TIGER	Zoo	7	1	[0, 0, 0]	n/a	catFR1	6	R1501J
160.494	1.6	277812	WORD	n/a	wordpools/wordpool_categorized_EN.txt	PANDA	Zoo	8	1	[0, 0, 0]	n/a	catFR1	6	R1501J
162.094	0.951	279413	WORD_OFF	n/a	n/a	PANDA	Zoo	8	1	[0, 0, 0]	n/a	catFR1	6	R1501J
163.045	1.616	280365	WORD	n/a	wordpools/wordpool_categorized_EN.txt	PIG	FarmAnimals	9	1	[0, 0, 0]	n/a	catFR1	6	R1501J
164.661	0.916	281979	WORD_OFF	n/a	n/a	PIG	FarmAnimals	9	1	[0, 0, 0]	n/a	catFR1	6	R1501J
165.577	1.617	282891	WORD	n/a	wordpools/wordpool_categorized_EN.txt	GOAT	FarmAnimals	10	1	[0, 0, 0]	n/a	catFR1	6	R1501J
167.194	1.0	284505	WORD_OFF	n/a	n/a	GOAT	FarmAnimals	10	1	[0, 0, 0]	n/a	catFR1	6	R1501J
168.194	1.601	285510	WORD	n/a	wordpools/wordpool_categorized_EN.txt	LEVEL	Tools	11	1	[0, 0, 0]	n/a	catFR1	6	R1501J
169.795	0.999	287111	WORD_OFF	n/a	n/a	LEVEL	Tools	11	1	[0, 0, 0]	n/a	catFR1	6	R1501J
170.794	1.6	288103	WORD	n/a	wordpools/wordpool_categorized_EN.txt	SHOVEL	Tools	12	1	[0, 0, 0]	n/a	catFR1	6	R1501J
172.394	0.001	289703	WORD_OFF	n/a	n/a	SHOVEL	Tools	12	1	[0, 0, 0]	n/a	catFR1	6	R1501J
172.395	0.0	289703	ENCODING_END	n/a	n/a	n/a	n/a	-999	1	[0, 0, 0]	n/a	catFR1	6	R1501J
172.395	0.0	289706	START	n/a	n/a	n/a	n/a	-999	1	[-999, -999, -999]	n/a	catFR1	6	R1501J
172.395	0.0	289706	PROB	4.782	n/a	n/a	n/a	-999	1	[5, 5, 3]	13.0	catFR1	6	R1501J
172.395	4.8	289716	DISTRACT_START	n/a	n/a	n/a	n/a	-999	1	[0, 0, 0]	n/a	catFR1	6	R1501J
177.195	2.933	294506	PROB	2.916	n/a	n/a	n/a	-999	1	[2, 5, 5]	12.0	catFR1	6	R1501J
180.128	7.583	297439	PROB	7.566	n/a	n/a	n/a	-999	1	[5, 3, 6]	14.0	catFR1	6	R1501J
187.711	3.266	305021	PROB	3.25	n/a	n/a	n/a	-999	1	[3, 2, 4]	9.0	catFR1	6	R1501J
190.977	10.468	308287	PROB	10.451	n/a	n/a	n/a	-999	1	[6, 6, 7]	19.0	catFR1	6	R1501J
201.445	0.0	318755	STOP	n/a	n/a	n/a	n/a	-999	1	[-999, -999, -999]	n/a	catFR1	6	R1501J
201.445	2.099	318762	DISTRACT_END	n/a	n/a	n/a	n/a	-999	1	[0, 0, 0]	n/a	catFR1	6	R1501J
203.544	1.043	320860	REC_START	n/a	n/a	n/a	n/a	-999	1	[0, 0, 0]	n/a	catFR1	6	R1501J
204.587	1.895	321897	REC_WORD	1.043	n/a	PANDA	Zoo	8	1	[0, 0, 0]	n/a	catFR1	6	R1501J
206.482	3.001	323792	REC_WORD	2.938	n/a	GORILLA	Zoo	3	1	[0, 0, 0]	n/a	catFR1	6	R1501J
209.483	10.257	326793	REC_WORD	5.939	n/a	TURKEY	FarmAnimals	2	1	[0, 0, 0]	n/a	catFR1	6	R1501J
219.74	1.781	337049	REC_WORD	16.196	n/a	SANDER	Tools	6	1	[0, 0, 0]	n/a	catFR1	6	R1501J
221.521	12.192	338830	REC_WORD	17.977	n/a	PLIERS	Tools	-999	1	[0, 0, 0]	n/a	catFR1	6	R1501J
233.713	1.267	351022	REC_END	n/a	n/a	n/a	n/a	-999	1	[0, 0, 0]	n/a	catFR1	6	R1501J
234.98	10.349	352292	COUNTDOWN_START	n/a	n/a	n/a	n/a	-999	2	[0, 0, 0]	n/a	catFR1	6	R1501J
245.329	0.0	362635	COUNTDOWN_END	n/a	n/a	n/a	n/a	-999	2	[0, 0, 0]	n/a	catFR1	6	R1501J
245.329	2.1	362648	ENCODING_START	n/a	n/a	n/a	n/a	-999	2	[0, 0, 0]	n/a	catFR1	6	R1501J
247.429	1.617	364738	WORD	n/a	wordpools/wordpool_categorized_EN.txt	LEMONADE	Beverages	1	2	[0, 0, 0]	n/a	catFR1	6	R1501J
249.046	0.766	366351	WORD_OFF	n/a	n/a	LEMONADE	Beverages	1	2	[0, 0, 0]	n/a	catFR1	6	R1501J
249.812	1.617	367119	WORD	n/a	wordpools/wordpool_categorized_EN.txt	MILK	Beverages	2	2	[0, 0, 0]	n/a	catFR1	6	R1501J
251.429	0.866	368745	WORD_OFF	n/a	n/a	MILK	Beverages	2	2	[0, 0, 0]	n/a	catFR1	6	R1501J
252.295	1.6	369605	WORD	n/a	wordpools/wordpool_categorized_EN.txt	BOAT	Vehicles	3	2	[0, 0, 0]	n/a	catFR1	6	R1501J
253.895	0.817	371206	WORD_OFF	n/a	n/a	BOAT	Vehicles	3	2	[0, 0, 0]	n/a	catFR1	6	R1501J
254.712	1.617	372026	WORD	n/a	wordpools/wordpool_categorized_EN.txt	CAR	Vehicles	4	2	[0, 0, 0]	n/a	catFR1	6	R1501J
256.329	0.884	373639	WORD_OFF	n/a	n/a	CAR	Vehicles	4	2	[0, 0, 0]	n/a	catFR1	6	R1501J
257.213	1.616	374525	WORD	n/a	wordpools/wordpool_categorized_EN.txt	LINEN	Fabric	5	2	[0, 0, 0]	n/a	catFR1	6	R1501J
258.829	0.983	376139	WORD_OFF	n/a	n/a	LINEN	Fabric	5	2	[0, 0, 0]	n/a	catFR1	6	R1501J
259.812	1.6	377118	WORD	n/a	wordpools/wordpool_categorized_EN.txt	WOOL	Fabric	6	2	[0, 0, 0]	n/a	catFR1	6	R1501J
261.412	0.917	378718	WORD_OFF	n/a	n/a	WOOL	Fabric	6	2	[0, 0, 0]	n/a	catFR1	6	R1501J
262.329	1.6	379644	WORD	n/a	wordpools/wordpool_categorized_EN.txt	JUICE	Beverages	7	2	[0, 0, 0]	n/a	catFR1	6	R1501J
263.929	0.967	381245	WORD_OFF	n/a	n/a	JUICE	Beverages	7	2	[0, 0, 0]	n/a	catFR1	6	R1501J
264.896	1.6	382210	WORD	n/a	wordpools/wordpool_categorized_EN.txt	COFFEE	Beverages	8	2	[0, 0, 0]	n/a	catFR1	6	R1501J
266.496	0.8	383811	WORD_OFF	n/a	n/a	COFFEE	Beverages	8	2	[0, 0, 0]	n/a	catFR1	6	R1501J
267.296	1.615	384604	WORD	n/a	wordpools/wordpool_categorized_EN.txt	VELVET	Fabric	9	2	[0, 0, 0]	n/a	catFR1	6	R1501J
268.911	0.835	386218	WORD_OFF	n/a	n/a	VELVET	Fabric	9	2	[0, 0, 0]	n/a	catFR1	6	R1501J
269.746	1.615	387051	WORD	n/a	wordpools/wordpool_categorized_EN.txt	FLEECE	Fabric	10	2	[0, 0, 0]	n/a	catFR1	6	R1501J
271.361	0.918	388665	WORD_OFF	n/a	n/a	FLEECE	Fabric	10	2	[0, 0, 0]	n/a	catFR1	6	R1501J
272.279	1.616	389591	WORD	n/a	wordpools/wordpool_categorized_EN.txt	MOTORCYCLE	Vehicles	11	2	[0, 0, 0]	n/a	catFR1	6	R1501J
273.895	0.901	391204	WORD_OFF	n/a	n/a	MOTORCYCLE	Vehicles	11	2	[0, 0, 0]	n/a	catFR1	6	R1501J
274.796	1.616	392104	WORD	n/a	wordpools/wordpool_categorized_EN.txt	TRUCK	Vehicles	12	2	[0, 0, 0]	n/a	catFR1	6	R1501J
276.412	0.001	393717	WORD_OFF	n/a	n/a	TRUCK	Vehicles	12	2	[0, 0, 0]	n/a	catFR1	6	R1501J
276.413	0.001	393720	PROB	4.316	n/a	n/a	n/a	-999	2	[5, 6, 5]	16.0	catFR1	6	R1501J
276.414	0.0	393721	START	n/a	n/a	n/a	n/a	-999	2	[-999, -999, -999]	n/a	catFR1	6	R1501J
276.414	0.0	393731	ENCODING_END	n/a	n/a	n/a	n/a	-999	2	[0, 0, 0]	n/a	catFR1	6	R1501J
276.414	4.332	393731	DISTRACT_START	n/a	n/a	n/a	n/a	-999	2	[0, 0, 0]	n/a	catFR1	6	R1501J
280.746	2.233	398053	PROB	2.216	n/a	n/a	n/a	-999	2	[3, 3, 3]	9.0	catFR1	6	R1501J
282.979	6.699	400285	PROB	6.683	n/a	n/a	n/a	-999	2	[4, 2, 7]	13.0	catFR1	6	R1501J
289.678	4.133	406984	PROB	4.117	n/a	n/a	n/a	-999	2	[8, 8, 2]	18.0	catFR1	6	R1501J
293.811	3.884	411117	PROB	3.867	n/a	n/a	n/a	-999	2	[1, 6, 8]	15.0	catFR1	6	R1501J
297.695	0.0	414999	DISTRACT_END	n/a	n/a	n/a	n/a	-999	2	[0, 0, 0]	n/a	catFR1	6	R1501J
297.695	2.032	415001	STOP	n/a	n/a	n/a	n/a	-999	2	[-999, -999, -999]	n/a	catFR1	6	R1501J
299.727	4.703	417031	REC_START	n/a	n/a	n/a	n/a	-999	2	[0, 0, 0]	n/a	catFR1	6	R1501J
304.43	3.008	421736	REC_WORD_VV	4.703	n/a	<>	n/a	-999	2	[0, 0, 0]	n/a	catFR1	6	R1501J
307.438	1.241	424744	REC_WORD	7.711	n/a	LEMONADE	Beverages	1	2	[0, 0, 0]	n/a	catFR1	6	R1501J
308.679	0.952	425984	REC_WORD	8.952	n/a	MILK	Beverages	2	2	[0, 0, 0]	n/a	catFR1	6	R1501J
309.631	1.322	426936	REC_WORD	9.904	n/a	WOOL	Fabric	6	2	[0, 0, 0]	n/a	catFR1	6	R1501J
310.953	6.84	428258	REC_WORD	11.226	n/a	LINEN	Fabric	5	2	[0, 0, 0]	n/a	catFR1	6	R1501J
317.793	12.15	435098	REC_WORD_VV	18.066	n/a	<>	n/a	-999	2	[0, 0, 0]	n/a	catFR1	6	R1501J
329.943	1.486	447246	REC_END	n/a	n/a	n/a	n/a	-999	2	[0, 0, 0]	n/a	catFR1	6	R1501J
331.429	10.35	448740	COUNTDOWN_START	n/a	n/a	n/a	n/a	-999	3	[0, 0, 0]	n/a	catFR1	6	R1501J
341.779	0.0	459084	COUNTDOWN_END	n/a	n/a	n/a	n/a	-999	3	[0, 0, 0]	n/a	catFR1	6	R1501J
341.779	2.317	459084	ENCODING_START	n/a	n/a	n/a	n/a	-999	3	[0, 0, 0]	n/a	catFR1	6	R1501J
344.096	1.616	461398	WORD	n/a	wordpools/wordpool_categorized_EN.txt	COBBLER	Desserts	1	3	[0, 0, 0]	n/a	catFR1	6	R1501J
345.712	1.001	463025	WORD_OFF	n/a	n/a	COBBLER	Desserts	1	3	[0, 0, 0]	n/a	catFR1	6	R1501J
346.713	1.616	464017	WORD	n/a	wordpools/wordpool_categorized_EN.txt	COOKIE	Desserts	2	3	[0, 0, 0]	n/a	catFR1	6	R1501J
348.329	1.0	465631	WORD_OFF	n/a	n/a	COOKIE	Desserts	2	3	[0, 0, 0]	n/a	catFR1	6	R1501J
349.329	1.617	466636	WORD	n/a	wordpools/wordpool_categorized_EN.txt	WHALE	OceanAnimals	3	3	[0, 0, 0]	n/a	catFR1	6	R1501J
350.946	0.783	468250	WORD_OFF	n/a	n/a	WHALE	OceanAnimals	3	3	[0, 0, 0]	n/a	catFR1	6	R1501J
351.729	1.6	469030	WORD	n/a	wordpools/wordpool_categorized_EN.txt	OCTOPUS	OceanAnimals	4	3	[0, 0, 0]	n/a	catFR1	6	R1501J
353.329	0.967	470630	WORD_OFF	n/a	n/a	OCTOPUS	OceanAnimals	4	3	[0, 0, 0]	n/a	catFR1	6	R1501J
354.296	1.6	471609	WORD	n/a	wordpools/wordpool_categorized_EN.txt	HILLS	Landscapes	5	3	[0, 0, 0]	n/a	catFR1	6	R1501J
355.896	0.933	473196	WORD_OFF	n/a	n/a	HILLS	Landscapes	5	3	[0, 0, 0]	n/a	catFR1	6	R1501J
356.829	1.6	474135	WORD	n/a	wordpools/wordpool_categorized_EN.txt	RIVER	Landscapes	6	3	[0, 0, 0]	n/a	catFR1	6	R1501J
358.429	0.916	475736	WORD_OFF	n/a	n/a	RIVER	Landscapes	6	3	[0, 0, 0]	n/a	catFR1	6	R1501J
359.345	1.601	476649	WORD	n/a	wordpools/wordpool_categorized_EN.txt	PLANKTON	OceanAnimals	7	3	[0, 0, 0]	n/a	catFR1	6	R1501J
360.946	0.816	478249	WORD_OFF	n/a	n/a	PLANKTON	OceanAnimals	7	3	[0, 0, 0]	n/a	catFR1	6	R1501J
361.762	1.6	479069	WORD	n/a	wordpools/wordpool_categorized_EN.txt	FISH	OceanAnimals	8	3	[0, 0, 0]	n/a	catFR1	6	R1501J
363.362	0.817	480669	WORD_OFF	n/a	n/a	FISH	OceanAnimals	8	3	[0, 0, 0]	n/a	catFR1	6	R1501J
364.179	1.615	481489	WORD	n/a	wordpools/wordpool_categorized_EN.txt	PUDDING	Desserts	9	3	[0, 0, 0]	n/a	catFR1	6	R1501J
365.794	0.769	483103	WORD_OFF	n/a	n/a	PUDDING	Desserts	9	3	[0, 0, 0]	n/a	catFR1	6	R1501J
366.563	1.615	483870	WORD	n/a	wordpools/wordpool_categorized_EN.txt	MOUSSE	Desserts	10	3	[0, 0, 0]	n/a	catFR1	6	R1501J
368.178	0.818	485484	WORD_OFF	n/a	n/a	MOUSSE	Desserts	10	3	[0, 0, 0]	n/a	catFR1	6	R1501J
368.996	1.616	486304	WORD	n/a	wordpools/wordpool_categorized_EN.txt	FOREST	Landscapes	11	3	[0, 0, 0]	n/a	catFR1	6	R1501J
370.612	0.8	487918	WORD_OFF	n/a	n/a	FOREST	Landscapes	11	3	[0, 0, 0]	n/a	catFR1	6	R1501J
371.412	1.617	488724	WORD	n/a	wordpools/wordpool_categorized_EN.txt	ISLAND	Landscapes	12	3	[0, 0, 0]	n/a	catFR1	6	R1501J
373.029	0.0	490332	START	n/a	n/a	n/a	n/a	-999	3	[-999, -999, -999]	n/a	catFR1	6	R1501J
373.029	0.0	490332	PROB	15.465	n/a	n/a	n/a	-999	3	[8, 7, 7]	22.0	catFR1	6	R1501J
373.028	0.001	490338	WORD_OFF	n/a	n/a	ISLAND	Landscapes	12	3	[0, 0, 0]	n/a	catFR1	6	R1501J
373.029	0.0	490338	ENCODING_END	n/a	n/a	n/a	n/a	-999	3	[0, 0, 0]	n/a	catFR1	6	R1501J
373.029	15.482	490338	DISTRACT_START	n/a	n/a	n/a	n/a	-999	3	[0, 0, 0]	n/a	catFR1	6	R1501J
388.511	7.718	505813	PROB	7.7	n/a	n/a	n/a	-999	3	[4, 4, 5]	13.0	catFR1	6	R1501J
396.229	0.0	513531	STOP	n/a	n/a	n/a	n/a	-999	3	[-999, -999, -999]	n/a	catFR1	6	R1501J
396.229	2.049	513538	DISTRACT_END	n/a	n/a	n/a	n/a	-999	3	[0, 0, 0]	n/a	catFR1	6	R1501J
398.278	0.611	515583	REC_START	n/a	n/a	n/a	n/a	-999	3	[0, 0, 0]	n/a	catFR1	6	R1501J
398.889	1.269	516191	REC_WORD	0.611	n/a	MOUSSE	Desserts	10	3	[0, 0, 0]	n/a	catFR1	6	R1501J
400.158	1.314	517460	REC_WORD	1.88	n/a	PUDDING	Desserts	9	3	[0, 0, 0]	n/a	catFR1	6	R1501J
401.472	7.17	518774	REC_WORD	3.194	n/a	PLANKTON	OceanAnimals	7	3	[0, 0, 0]	n/a	catFR1	6	R1501J
408.642	1.376	525943	REC_WORD	10.364	n/a	WHALE	OceanAnimals	3	3	[0, 0, 0]	n/a	catFR1	6	R1501J
410.018	18.476	527319	REC_WORD	11.74	n/a	OCTOPUS	OceanAnimals	4	3	[0, 0, 0]	n/a	catFR1	6	R1501J
428.494	1.818	545797	REC_END	n/a	n/a	n/a	n/a	-999	3	[0, 0, 0]	n/a	catFR1	6	R1501J
430.312	10.35	547609	COUNTDOWN_START	n/a	n/a	n/a	n/a	-999	4	[0, 0, 0]	n/a	catFR1	6	R1501J
440.662	0.0	557966	COUNTDOWN_END	n/a	n/a	n/a	n/a	-999	4	[0, 0, 0]	n/a	catFR1	6	R1501J
440.662	2.234	557966	ENCODING_START	n/a	n/a	n/a	n/a	-999	4	[0, 0, 0]	n/a	catFR1	6	R1501J
442.896	1.6	560201	WORD	n/a	wordpools/wordpool_categorized_EN.txt	TOE	BodyParts	1	4	[0, 0, 0]	n/a	catFR1	6	R1501J
444.496	0.766	561802	WORD_OFF	n/a	n/a	TOE	BodyParts	1	4	[0, 0, 0]	n/a	catFR1	6	R1501J
445.262	1.617	562569	WORD	n/a	wordpools/wordpool_categorized_EN.txt	LEG	BodyParts	2	4	[0, 0, 0]	n/a	catFR1	6	R1501J
446.879	0.899	564182	WORD_OFF	n/a	n/a	LEG	BodyParts	2	4	[0, 0, 0]	n/a	catFR1	6	R1501J
447.778	1.601	565082	WORD	n/a	wordpools/wordpool_categorized_EN.txt	SPOON	KitchenTools	3	4	[0, 0, 0]	n/a	catFR1	6	R1501J
449.379	0.783	566682	WORD_OFF	n/a	n/a	SPOON	KitchenTools	3	4	[0, 0, 0]	n/a	catFR1	6	R1501J
450.162	1.6	567463	WORD	n/a	wordpools/wordpool_categorized_EN.txt	GRATER	KitchenTools	4	4	[0, 0, 0]	n/a	catFR1	6	R1501J
451.762	0.984	569063	WORD_OFF	n/a	n/a	GRATER	KitchenTools	4	4	[0, 0, 0]	n/a	catFR1	6	R1501J
452.746	1.616	570055	WORD	n/a	wordpools/wordpool_categorized_EN.txt	SPINACH	Vegetables	5	4	[0, 0, 0]	n/a	catFR1	6	R1501J
454.362	1.001	571669	WORD_OFF	n/a	n/a	SPINACH	Vegetables	5	4	[0, 0, 0]	n/a	catFR1	6	R1501J
455.363	1.616	572661	WORD	n/a	wordpools/wordpool_categorized_EN.txt	CORN	Vegetables	6	4	[0, 0, 0]	n/a	catFR1	6	R1501J
456.979	1.0	574274	WORD_OFF	n/a	n/a	CORN	Vegetables	6	4	[0, 0, 0]	n/a	catFR1	6	R1501J
457.979	1.615	575280	WORD	n/a	wordpools/wordpool_categorized_EN.txt	ELBOW	BodyParts	7	4	[0, 0, 0]	n/a	catFR1	6	R1501J
459.594	0.885	576893	WORD_OFF	n/a	n/a	ELBOW	BodyParts	7	4	[0, 0, 0]	n/a	catFR1	6	R1501J
460.479	1.6	577780	WORD	n/a	wordpools/wordpool_categorized_EN.txt	HEAD	BodyParts	8	4	[0, 0, 0]	n/a	catFR1	6	R1501J
462.079	0.965	579380	WORD_OFF	n/a	n/a	HEAD	BodyParts	8	4	[0, 0, 0]	n/a	catFR1	6	R1501J
463.044	1.601	580345	WORD	n/a	wordpools/wordpool_categorized_EN.txt	CARROT	Vegetables	9	4	[0, 0, 0]	n/a	catFR1	6	R1501J
464.645	0.984	581946	WORD_OFF	n/a	n/a	CARROT	Vegetables	9	4	[0, 0, 0]	n/a	catFR1	6	R1501J
465.629	1.6	582925	WORD	n/a	wordpools/wordpool_categorized_EN.txt	LETTUCE	Vegetables	10	4	[0, 0, 0]	n/a	catFR1	6	R1501J
467.229	0.917	584525	WORD_OFF	n/a	n/a	LETTUCE	Vegetables	10	4	[0, 0, 0]	n/a	catFR1	6	R1501J
468.146	1.615	585451	WORD	n/a	wordpools/wordpool_categorized_EN.txt	KNIFE	KitchenTools	11	4	[0, 0, 0]	n/a	catFR1	6	R1501J
469.761	0.917	587065	WORD_OFF	n/a	n/a	KNIFE	KitchenTools	11	4	[0, 0, 0]	n/a	catFR1	6	R1501J
470.678	1.601	587977	WORD	n/a	wordpools/wordpool_categorized_EN.txt	FORK	KitchenTools	12	4	[0, 0, 0]	n/a	catFR1	6	R1501J
472.279	0.001	589578	PROB	6.832	n/a	n/a	n/a	-999	4	[5, 7, 8]	20.0	catFR1	6	R1501J
472.28	0.0	589579	START	n/a	n/a	n/a	n/a	-999	4	[-999, -999, -999]	n/a	catFR1	6	R1501J
472.279	0.001	589591	WORD_OFF	n/a	n/a	FORK	KitchenTools	12	4	[0, 0, 0]	n/a	catFR1	6	R1501J
472.28	0.0	589591	ENCODING_END	n/a	n/a	n/a	n/a	-999	4	[0, 0, 0]	n/a	catFR1	6	R1501J
472.28	6.849	589591	DISTRACT_START	n/a	n/a	n/a	n/a	-999	4	[0, 0, 0]	n/a	catFR1	6	R1501J
479.129	4.215	596427	PROB	4.199	n/a	n/a	n/a	-999	4	[3, 1, 7]	11.0	catFR1	6	R1501J
483.344	5.951	600642	PROB	5.934	n/a	n/a	n/a	-999	4	[1, 3, 6]	10.0	catFR1	6	R1501J
489.295	4.932	606593	PROB	4.916	n/a	n/a	n/a	-999	4	[4, 2, 8]	14.0	catFR1	6	R1501J
494.227	0.0	611525	STOP	n/a	n/a	n/a	n/a	-999	4	[-999, -999, -999]	n/a	catFR1	6	R1501J
494.227	2.201	611534	DISTRACT_END	n/a	n/a	n/a	n/a	-999	4	[0, 0, 0]	n/a	catFR1	6	R1501J
496.428	1.112	613724	REC_START	n/a	n/a	n/a	n/a	-999	4	[0, 0, 0]	n/a	catFR1	6	R1501J
497.54	1.4	614838	REC_WORD	1.112	n/a	TOE	BodyParts	1	4	[0, 0, 0]	n/a	catFR1	6	R1501J
498.94	7.43	616238	REC_WORD	2.512	n/a	GRATER	KitchenTools	4	4	[0, 0, 0]	n/a	catFR1	6	R1501J
506.37	18.998	623667	REC_WORD	9.942	n/a	LINEN	Fabric	-999	4	[0, 0, 0]	n/a	catFR1	6	R1501J
525.368	1.29	642665	REC_WORD	28.94	n/a	FOREST	Landscapes	-999	4	[0, 0, 0]	n/a	catFR1	6	R1501J
526.658	1.719	643952	REC_END	n/a	n/a	n/a	n/a	-999	4	[0, 0, 0]	n/a	catFR1	6	R1501J
528.377	10.35	645685	COUNTDOWN_START	n/a	n/a	n/a	n/a	-999	5	[0, 0, 0]	n/a	catFR1	6	R1501J
538.727	0.0	656028	COUNTDOWN_END	n/a	n/a	n/a	n/a	-999	5	[0, 0, 0]	n/a	catFR1	6	R1501J
538.727	2.117	656028	ENCODING_START	n/a	n/a	n/a	n/a	-999	5	[0, 0, 0]	n/a	catFR1	6	R1501J
540.844	1.617	658145	WORD	n/a	wordpools/wordpool_categorized_EN.txt	MOPED	Vehicles	1	5	[0, 0, 0]	n/a	catFR1	6	R1501J
542.461	0.767	659758	WORD_OFF	n/a	n/a	MOPED	Vehicles	1	5	[0, 0, 0]	n/a	catFR1	6	R1501J
543.228	1.615	660525	WORD	n/a	wordpools/wordpool_categorized_EN.txt	PLANE	Vehicles	2	5	[0, 0, 0]	n/a	catFR1	6	R1501J
544.843	0.768	662139	WORD_OFF	n/a	n/a	PLANE	Vehicles	2	5	[0, 0, 0]	n/a	catFR1	6	R1501J
545.611	1.616	662906	WORD	n/a	wordpools/wordpool_categorized_EN.txt	JELLO	Desserts	3	5	[0, 0, 0]	n/a	catFR1	6	R1501J
547.227	0.9	664520	WORD_OFF	n/a	n/a	JELLO	Desserts	3	5	[0, 0, 0]	n/a	catFR1	6	R1501J
548.127	1.601	665419	WORD	n/a	wordpools/wordpool_categorized_EN.txt	FUDGE	Desserts	4	5	[0, 0, 0]	n/a	catFR1	6	R1501J
549.728	0.949	667020	WORD_OFF	n/a	n/a	FUDGE	Desserts	4	5	[0, 0, 0]	n/a	catFR1	6	R1501J
550.677	1.601	667972	WORD	n/a	wordpools/wordpool_categorized_EN.txt	ONION	Vegetables	5	5	[0, 0, 0]	n/a	catFR1	6	R1501J
552.278	0.799	669572	WORD_OFF	n/a	n/a	ONION	Vegetables	5	5	[0, 0, 0]	n/a	catFR1	6	R1501J
553.077	1.6	670379	WORD	n/a	wordpools/wordpool_categorized_EN.txt	CUCUMBER	Vegetables	6	5	[0, 0, 0]	n/a	catFR1	6	R1501J
554.677	0.934	671980	WORD_OFF	n/a	n/a	CUCUMBER	Vegetables	6	5	[0, 0, 0]	n/a	catFR1	6	R1501J
555.611	1.616	672906	WORD	n/a	wordpools/wordpool_categorized_EN.txt	JEEP	Vehicles	7	5	[0, 0, 0]	n/a	catFR1	6	R1501J
557.227	0.834	674519	WORD_OFF	n/a	n/a	JEEP	Vehicles	7	5	[0, 0, 0]	n/a	catFR1	6	R1501J
558.061	1.617	675353	WORD	n/a	wordpools/wordpool_categorized_EN.txt	TRAIN	Vehicles	8	5	[0, 0, 0]	n/a	catFR1	6	R1501J
559.678	0.866	676979	WORD_OFF	n/a	n/a	TRAIN	Vehicles	8	5	[0, 0, 0]	n/a	catFR1	6	R1501J
560.544	1.617	677839	WORD	n/a	wordpools/wordpool_categorized_EN.txt	CELERY	Vegetables	9	5	[0, 0, 0]	n/a	catFR1	6	R1501J
562.161	0.932	679453	WORD_OFF	n/a	n/a	CELERY	Vegetables	9	5	[0, 0, 0]	n/a	catFR1	6	R1501J
563.093	1.601	680392	WORD	n/a	wordpools/wordpool_categorized_EN.txt	PEAS	Vegetables	10	5	[0, 0, 0]	n/a	catFR1	6	R1501J
564.694	0.966	681992	WORD_OFF	n/a	n/a	PEAS	Vegetables	10	5	[0, 0, 0]	n/a	catFR1	6	R1501J
565.66	1.617	682958	WORD	n/a	wordpools/wordpool_categorized_EN.txt	PASTRY	Desserts	11	5	[0, 0, 0]	n/a	catFR1	6	R1501J
567.277	0.801	684572	WORD_OFF	n/a	n/a	PASTRY	Desserts	11	5	[0, 0, 0]	n/a	catFR1	6	R1501J
568.078	1.617	685378	WORD	n/a	wordpools/wordpool_categorized_EN.txt	CHEESECAKE	Desserts	12	5	[0, 0, 0]	n/a	catFR1	6	R1501J
569.695	0.001	686990	PROB	4.683	n/a	n/a	n/a	-999	5	[8, 2, 3]	13.0	catFR1	6	R1501J
569.696	0.0	686991	START	n/a	n/a	n/a	n/a	-999	5	[-999, -999, -999]	n/a	catFR1	6	R1501J
569.694	0.002	686992	WORD_OFF	n/a	n/a	CHEESECAKE	Desserts	12	5	[0, 0, 0]	n/a	catFR1	6	R1501J
569.696	0.0	686992	ENCODING_END	n/a	n/a	n/a	n/a	-999	5	[0, 0, 0]	n/a	catFR1	6	R1501J
569.696	4.699	686992	DISTRACT_START	n/a	n/a	n/a	n/a	-999	5	[0, 0, 0]	n/a	catFR1	6	R1501J
574.395	9.517	691690	PROB	9.501	n/a	n/a	n/a	-999	5	[5, 8, 4]	17.0	catFR1	6	R1501J
583.912	7.732	701206	PROB	7.715	n/a	n/a	n/a	-999	5	[4, 8, 7]	19.0	catFR1	6	R1501J
591.644	0.0	708935	DISTRACT_END	n/a	n/a	n/a	n/a	-999	5	[0, 0, 0]	n/a	catFR1	6	R1501J
591.644	2.234	708938	STOP	n/a	n/a	n/a	n/a	-999	5	[-999, -999, -999]	n/a	catFR1	6	R1501J
593.878	0.746	711178	REC_START	n/a	n/a	n/a	n/a	-999	5	[0, 0, 0]	n/a	catFR1	6	R1501J
594.624	0.921	711918	REC_WORD	0.746	n/a	ONION	Vegetables	5	5	[0, 0, 0]	n/a	catFR1	6	R1501J
595.545	2.702	712839	REC_WORD	1.667	n/a	CELERY	Vegetables	9	5	[0, 0, 0]	n/a	catFR1	6	R1501J
598.247	2.48	715541	REC_WORD	4.369	n/a	GRATER	KitchenTools	-999	5	[0, 0, 0]	n/a	catFR1	6	R1501J
600.727	2.711	718020	REC_WORD	6.849	n/a	CHEESECAKE	Desserts	12	5	[0, 0, 0]	n/a	catFR1	6	R1501J
603.438	3.783	720731	REC_WORD	9.56	n/a	PUDDING	Desserts	-999	5	[0, 0, 0]	n/a	catFR1	6	R1501J
607.221	3.884	724514	REC_WORD	13.343	n/a	CHEESECAKE	Desserts	12	5	[0, 0, 0]	n/a	catFR1	6	R1501J
611.105	8.499	728398	REC_WORD	17.227	n/a	JELLO	Desserts	3	5	[0, 0, 0]	n/a	catFR1	6	R1501J
619.604	4.485	736897	REC_WORD	25.726	n/a	JEEP	Vehicles	7	5	[0, 0, 0]	n/a	catFR1	6	R1501J
624.089	1.74	741380	REC_END	n/a	n/a	n/a	n/a	-999	5	[0, 0, 0]	n/a	catFR1	6	R1501J
625.829	10.349	743126	COUNTDOWN_START	n/a	n/a	n/a	n/a	-999	6	[0, 0, 0]	n/a	catFR1	6	R1501J
636.178	0.0	753469	COUNTDOWN_END	n/a	n/a	n/a	n/a	-999	6	[0, 0, 0]	n/a	catFR1	6	R1501J
636.178	2.133	753469	ENCODING_START	n/a	n/a	n/a	n/a	-999	6	[0, 0, 0]	n/a	catFR1	6	R1501J
638.311	1.601	755599	WORD	n/a	wordpools/wordpool_categorized_EN.txt	TEA	Beverages	1	6	[0, 0, 0]	n/a	catFR1	6	R1501J
639.912	0.984	757212	WORD_OFF	n/a	n/a	TEA	Beverages	1	6	[0, 0, 0]	n/a	catFR1	6	R1501J
640.896	1.6	758191	WORD	n/a	wordpools/wordpool_categorized_EN.txt	SODA	Beverages	2	6	[0, 0, 0]	n/a	catFR1	6	R1501J
642.496	0.783	759792	WORD_OFF	n/a	n/a	SODA	Beverages	2	6	[0, 0, 0]	n/a	catFR1	6	R1501J
643.279	1.6	760572	WORD	n/a	wordpools/wordpool_categorized_EN.txt	SCOOTER	Vehicles	3	6	[0, 0, 0]	n/a	catFR1	6	R1501J
644.879	0.933	762172	WORD_OFF	n/a	n/a	SCOOTER	Vehicles	3	6	[0, 0, 0]	n/a	catFR1	6	R1501J
645.812	1.616	763111	WORD	n/a	wordpools/wordpool_categorized_EN.txt	BIKE	Vehicles	4	6	[0, 0, 0]	n/a	catFR1	6	R1501J
647.428	0.885	764725	WORD_OFF	n/a	n/a	BIKE	Vehicles	4	6	[0, 0, 0]	n/a	catFR1	6	R1501J
648.313	1.599	765611	WORD	n/a	wordpools/wordpool_categorized_EN.txt	ORCHID	Flowers	5	6	[0, 0, 0]	n/a	catFR1	6	R1501J
649.912	0.95	767212	WORD_OFF	n/a	n/a	ORCHID	Flowers	5	6	[0, 0, 0]	n/a	catFR1	6	R1501J
650.862	1.616	768151	WORD	n/a	wordpools/wordpool_categorized_EN.txt	DAISY	Flowers	6	6	[0, 0, 0]	n/a	catFR1	6	R1501J
652.478	1.0	769778	WORD_OFF	n/a	n/a	DAISY	Flowers	6	6	[0, 0, 0]	n/a	catFR1	6	R1501J
653.478	1.618	770770	WORD	n/a	wordpools/wordpool_categorized_EN.txt	VAN	Vehicles	7	6	[0, 0, 0]	n/a	catFR1	6	R1501J
655.096	0.9	772383	WORD_OFF	n/a	n/a	VAN	Vehicles	7	6	[0, 0, 0]	n/a	catFR1	6	R1501J
655.996	1.617	773296	WORD	n/a	wordpools/wordpool_categorized_EN.txt	BUS	Vehicles	8	6	[0, 0, 0]	n/a	catFR1	6	R1501J
657.613	0.948	774910	WORD_OFF	n/a	n/a	BUS	Vehicles	8	6	[0, 0, 0]	n/a	catFR1	6	R1501J
658.561	1.6	775849	WORD	n/a	wordpools/wordpool_categorized_EN.txt	WINE	Beverages	9	6	[0, 0, 0]	n/a	catFR1	6	R1501J
660.161	0.884	777449	WORD_OFF	n/a	n/a	WINE	Beverages	9	6	[0, 0, 0]	n/a	catFR1	6	R1501J
661.045	1.601	778335	WORD	n/a	wordpools/wordpool_categorized_EN.txt	COLA	Beverages	10	6	[0, 0, 0]	n/a	catFR1	6	R1501J
662.646	0.866	779936	WORD_OFF	n/a	n/a	COLA	Beverages	10	6	[0, 0, 0]	n/a	catFR1	6	R1501J
663.512	1.6	780809	WORD	n/a	wordpools/wordpool_categorized_EN.txt	DAFFODIL	Flowers	11	6	[0, 0, 0]	n/a	catFR1	6	R1501J
665.112	0.933	782409	WORD_OFF	n/a	n/a	DAFFODIL	Flowers	11	6	[0, 0, 0]	n/a	catFR1	6	R1501J
666.045	1.6	783335	WORD	n/a	wordpools/wordpool_categorized_EN.txt	PETUNIA	Flowers	12	6	[0, 0, 0]	n/a	catFR1	6	R1501J
667.645	0.001	784935	WORD_OFF	n/a	n/a	PETUNIA	Flowers	12	6	[0, 0, 0]	n/a	catFR1	6	R1501J
667.646	0.0	784935	ENCODING_END	n/a	n/a	n/a	n/a	-999	6	[0, 0, 0]	n/a	catFR1	6	R1501J
667.645	0.001	784936	PROB	11.15	n/a	n/a	n/a	-999	6	[7, 4, 7]	18.0	catFR1	6	R1501J
667.646	0.0	784937	START	n/a	n/a	n/a	n/a	-999	6	[-999, -999, -999]	n/a	catFR1	6	R1501J
667.646	11.166	784949	DISTRACT_START	n/a	n/a	n/a	n/a	-999	6	[0, 0, 0]	n/a	catFR1	6	R1501J
678.812	3.299	796102	PROB	3.282	n/a	n/a	n/a	-999	6	[1, 4, 7]	12.0	catFR1	6	R1501J
682.111	3.833	799401	PROB	3.816	n/a	n/a	n/a	-999	6	[1, 1, 5]	7.0	catFR1	6	R1501J
685.944	3.201	803234	PROB	3.184	n/a	n/a	n/a	-999	6	[2, 5, 5]	12.0	catFR1	6	R1501J
689.145	0.0	806435	STOP	n/a	n/a	n/a	n/a	-999	6	[-999, -999, -999]	n/a	catFR1	6	R1501J
689.145	2.166	806442	DISTRACT_END	n/a	n/a	n/a	n/a	-999	6	[0, 0, 0]	n/a	catFR1	6	R1501J
691.311	0.959	808606	REC_START	n/a	n/a	n/a	n/a	-999	6	[0, 0, 0]	n/a	catFR1	6	R1501J
692.27	1.121	809560	REC_WORD	0.959	n/a	ORCHID	Flowers	5	6	[0, 0, 0]	n/a	catFR1	6	R1501J
693.391	1.771	810681	REC_WORD	2.08	n/a	PETUNIA	Flowers	12	6	[0, 0, 0]	n/a	catFR1	6	R1501J
695.162	3.382	812452	REC_WORD	3.851	n/a	DAFFODIL	Flowers	11	6	[0, 0, 0]	n/a	catFR1	6	R1501J
698.544	4.205	815833	REC_WORD_VV	7.233	n/a	<>	n/a	-999	6	[0, 0, 0]	n/a	catFR1	6	R1501J
702.749	1.995	820038	REC_WORD	11.438	n/a	MOPED	Vehicles	-999	6	[0, 0, 0]	n/a	catFR1	6	R1501J
704.744	2.792	822033	REC_WORD	13.433	n/a	BIKE	Vehicles	4	6	[0, 0, 0]	n/a	catFR1	6	R1501J
707.536	2.229	824825	REC_WORD_VV	16.225	n/a	<>	n/a	-999	6	[0, 0, 0]	n/a	catFR1	6	R1501J
709.765	2.985	827054	REC_WORD	18.454	n/a	DAISY	Flowers	6	6	[0, 0, 0]	n/a	catFR1	6	R1501J
712.75	8.773	830039	REC_WORD_VV	21.439	n/a	<>	n/a	-999	6	[0, 0, 0]	n/a	catFR1	6	R1501J
721.523	1.723	838821	REC_END	n/a	n/a	n/a	n/a	-999	6	[0, 0, 0]	n/a	catFR1	6	R1501J
723.246	10.349	840540	COUNTDOWN_START	n/a	n/a	n/a	n/a	-999	7	[0, 0, 0]	n/a	catFR1	6	R1501J
733.595	0.0	850883	COUNTDOWN_END	n/a	n/a	n/a	n/a	-999	7	[0, 0, 0]	n/a	catFR1	6	R1501J
733.595	2.168	850883	ENCODING_START	n/a	n/a	n/a	n/a	-999	7	[0, 0, 0]	n/a	catFR1	6	R1501J
735.763	1.616	853053	WORD	n/a	wordpools/wordpool_categorized_EN.txt	HAND	BodyParts	1	7	[0, 0, 0]	n/a	catFR1	6	R1501J
737.379	0.95	854666	WORD_OFF	n/a	n/a	HAND	BodyParts	1	7	[0, 0, 0]	n/a	catFR1	6	R1501J
738.329	1.6	855619	WORD	n/a	wordpools/wordpool_categorized_EN.txt	ARM	BodyParts	2	7	[0, 0, 0]	n/a	catFR1	6	R1501J
739.929	0.799	857219	WORD_OFF	n/a	n/a	ARM	BodyParts	2	7	[0, 0, 0]	n/a	catFR1	6	R1501J
740.728	1.601	858013	WORD	n/a	wordpools/wordpool_categorized_EN.txt	VACUUM	Appliances	3	7	[0, 0, 0]	n/a	catFR1	6	R1501J
742.329	0.932	859626	WORD_OFF	n/a	n/a	VACUUM	Appliances	3	7	[0, 0, 0]	n/a	catFR1	6	R1501J
743.261	1.601	860552	WORD	n/a	wordpools/wordpool_categorized_EN.txt	WASHER	Appliances	4	7	[0, 0, 0]	n/a	catFR1	6	R1501J
744.862	0.967	862153	WORD_OFF	n/a	n/a	WASHER	Appliances	4	7	[0, 0, 0]	n/a	catFR1	6	R1501J
745.829	1.617	863118	WORD	n/a	wordpools/wordpool_categorized_EN.txt	GNAT	Insects	5	7	[0, 0, 0]	n/a	catFR1	6	R1501J
747.446	0.9	864732	WORD_OFF	n/a	n/a	GNAT	Insects	5	7	[0, 0, 0]	n/a	catFR1	6	R1501J
748.346	1.615	865631	WORD	n/a	wordpools/wordpool_categorized_EN.txt	BEETLE	Insects	6	7	[0, 0, 0]	n/a	catFR1	6	R1501J
749.961	0.985	867258	WORD_OFF	n/a	n/a	BEETLE	Insects	6	7	[0, 0, 0]	n/a	catFR1	6	R1501J
750.946	1.615	868237	WORD	n/a	wordpools/wordpool_categorized_EN.txt	EYE	BodyParts	7	7	[0, 0, 0]	n/a	catFR1	6	R1501J
752.561	0.801	869850	WORD_OFF	n/a	n/a	EYE	BodyParts	7	7	[0, 0, 0]	n/a	catFR1	6	R1501J
753.362	1.601	870657	WORD	n/a	wordpools/wordpool_categorized_EN.txt	FOOT	BodyParts	8	7	[0, 0, 0]	n/a	catFR1	6	R1501J
754.963	0.999	872258	WORD_OFF	n/a	n/a	FOOT	BodyParts	8	7	[0, 0, 0]	n/a	catFR1	6	R1501J
755.962	1.617	873250	WORD	n/a	wordpools/wordpool_categorized_EN.txt	DRYER	Appliances	9	7	[0, 0, 0]	n/a	catFR1	6	R1501J
757.579	0.916	874863	WORD_OFF	n/a	n/a	DRYER	Appliances	9	7	[0, 0, 0]	n/a	catFR1	6	R1501J
758.495	1.6	875789	WORD	n/a	wordpools/wordpool_categorized_EN.txt	BLENDER	Appliances	10	7	[0, 0, 0]	n/a	catFR1	6	R1501J
760.095	0.983	877390	WORD_OFF	n/a	n/a	BLENDER	Appliances	10	7	[0, 0, 0]	n/a	catFR1	6	R1501J
761.078	1.601	878368	WORD	n/a	wordpools/wordpool_categorized_EN.txt	BEE	Insects	11	7	[0, 0, 0]	n/a	catFR1	6	R1501J
762.679	0.883	879969	WORD_OFF	n/a	n/a	BEE	Insects	11	7	[0, 0, 0]	n/a	catFR1	6	R1501J
763.562	1.617	880855	WORD	n/a	wordpools/wordpool_categorized_EN.txt	ANT	Insects	12	7	[0, 0, 0]	n/a	catFR1	6	R1501J
765.179	0.001	882466	PROB	4.532	n/a	n/a	n/a	-999	7	[8, 4, 8]	20.0	catFR1	6	R1501J
765.18	0.0	882467	START	n/a	n/a	n/a	n/a	-999	7	[-999, -999, -999]	n/a	catFR1	6	R1501J
765.179	0.001	882469	WORD_OFF	n/a	n/a	ANT	Insects	12	7	[0, 0, 0]	n/a	catFR1	6	R1501J
765.18	0.0	882469	ENCODING_END	n/a	n/a	n/a	n/a	-999	7	[0, 0, 0]	n/a	catFR1	6	R1501J
765.18	4.549	882469	DISTRACT_START	n/a	n/a	n/a	n/a	-999	7	[0, 0, 0]	n/a	catFR1	6	R1501J
769.729	4.033	887016	PROB	4.015	n/a	n/a	n/a	-999	7	[4, 1, 7]	12.0	catFR1	6	R1501J
773.762	3.0	891048	PROB	2.983	n/a	n/a	n/a	-999	7	[7, 6, 1]	14.0	catFR1	6	R1501J
776.762	4.966	894048	PROB	4.949	n/a	n/a	n/a	-999	7	[3, 2, 4]	9.0	catFR1	6	R1501J
781.728	5.533	899014	PROB	5.517	n/a	n/a	n/a	-999	7	[3, 8, 8]	19.0	catFR1	6	R1501J
787.261	0.0	904544	DISTRACT_END	n/a	n/a	n/a	n/a	-999	7	[0, 0, 0]	n/a	catFR1	6	R1501J
787.261	2.05	904547	STOP	n/a	n/a	n/a	n/a	-999	7	[-999, -999, -999]	n/a	catFR1	6	R1501J
789.311	0.696	906602	REC_START	n/a	n/a	n/a	n/a	-999	7	[0, 0, 0]	n/a	catFR1	6	R1501J
790.007	1.079	907293	REC_WORD	0.696	n/a	EYE	BodyParts	7	7	[0, 0, 0]	n/a	catFR1	6	R1501J
791.086	1.031	908372	REC_WORD	1.775	n/a	ARM	BodyParts	2	7	[0, 0, 0]	n/a	catFR1	6	R1501J
792.117	1.322	909403	REC_WORD	2.806	n/a	HAND	BodyParts	1	7	[0, 0, 0]	n/a	catFR1	6	R1501J
793.439	6.275	910725	REC_WORD	4.128	n/a	FOOT	BodyParts	8	7	[0, 0, 0]	n/a	catFR1	6	R1501J
799.714	7.764	916999	REC_WORD	10.403	n/a	GNAT	Insects	5	7	[0, 0, 0]	n/a	catFR1	6	R1501J
807.478	12.046	924763	REC_WORD	18.167	n/a	HAMMER	n/a	-999	7	[0, 0, 0]	n/a	catFR1	6	R1501J
819.524	1.87	936817	REC_END	n/a	n/a	n/a	n/a	-999	7	[0, 0, 0]	n/a	catFR1	6	R1501J
821.394	10.35	938682	COUNTDOWN_START	n/a	n/a	n/a	n/a	-999	8	[0, 0, 0]	n/a	catFR1	6	R1501J
831.744	0.0	949025	COUNTDOWN_END	n/a	n/a	n/a	n/a	-999	8	[0, 0, 0]	n/a	catFR1	6	R1501J
831.744	1.95	949038	ENCODING_START	n/a	n/a	n/a	n/a	-999	8	[0, 0, 0]	n/a	catFR1	6	R1501J
833.694	1.617	950983	WORD	n/a	wordpools/wordpool_categorized_EN.txt	CIDER	Beverages	1	8	[0, 0, 0]	n/a	catFR1	6	R1501J
835.311	0.999	952596	WORD_OFF	n/a	n/a	CIDER	Beverages	1	8	[0, 0, 0]	n/a	catFR1	6	R1501J
836.31	1.601	953602	WORD	n/a	wordpools/wordpool_categorized_EN.txt	RUM	Beverages	2	8	[0, 0, 0]	n/a	catFR1	6	R1501J
837.911	0.816	955202	WORD_OFF	n/a	n/a	RUM	Beverages	2	8	[0, 0, 0]	n/a	catFR1	6	R1501J
838.727	1.617	956009	WORD	n/a	wordpools/wordpool_categorized_EN.txt	REFRIGERATOR	Appliances	3	8	[0, 0, 0]	n/a	catFR1	6	R1501J
840.344	1.0	957636	WORD_OFF	n/a	n/a	REFRIGERATOR	Appliances	3	8	[0, 0, 0]	n/a	catFR1	6	R1501J
841.344	1.617	958628	WORD	n/a	wordpools/wordpool_categorized_EN.txt	IRON	Appliances	4	8	[0, 0, 0]	n/a	catFR1	6	R1501J
842.961	0.783	960241	WORD_OFF	n/a	n/a	IRON	Appliances	4	8	[0, 0, 0]	n/a	catFR1	6	R1501J
843.744	1.6	961035	WORD	n/a	wordpools/wordpool_categorized_EN.txt	EVERGREEN	Trees	5	8	[0, 0, 0]	n/a	catFR1	6	R1501J
845.344	0.816	962635	WORD_OFF	n/a	n/a	EVERGREEN	Trees	5	8	[0, 0, 0]	n/a	catFR1	6	R1501J
846.16	1.601	963442	WORD	n/a	wordpools/wordpool_categorized_EN.txt	OAK	Trees	6	8	[0, 0, 0]	n/a	catFR1	6	R1501J
847.761	0.967	965043	WORD_OFF	n/a	n/a	OAK	Trees	6	8	[0, 0, 0]	n/a	catFR1	6	R1501J
848.728	1.616	966008	WORD	n/a	wordpools/wordpool_categorized_EN.txt	BEER	Beverages	7	8	[0, 0, 0]	n/a	catFR1	6	R1501J
850.344	0.933	967635	WORD_OFF	n/a	n/a	BEER	Beverages	7	8	[0, 0, 0]	n/a	catFR1	6	R1501J
851.277	1.6	968561	WORD	n/a	wordpools/wordpool_categorized_EN.txt	WATER	Beverages	8	8	[0, 0, 0]	n/a	catFR1	6	R1501J
852.877	0.817	970161	WORD_OFF	n/a	n/a	WATER	Beverages	8	8	[0, 0, 0]	n/a	catFR1	6	R1501J
853.694	1.6	970981	WORD	n/a	wordpools/wordpool_categorized_EN.txt	MIXER	Appliances	9	8	[0, 0, 0]	n/a	catFR1	6	R1501J
855.294	0.816	972582	WORD_OFF	n/a	n/a	MIXER	Appliances	9	8	[0, 0, 0]	n/a	catFR1	6	R1501J
856.11	1.617	973402	WORD	n/a	wordpools/wordpool_categorized_EN.txt	STOVE	Appliances	10	8	[0, 0, 0]	n/a	catFR1	6	R1501J
857.727	1.0	975016	WORD_OFF	n/a	n/a	STOVE	Appliances	10	8	[0, 0, 0]	n/a	catFR1	6	R1501J
858.727	1.6	976008	WORD	n/a	wordpools/wordpool_categorized_EN.txt	HICKORY	Trees	11	8	[0, 0, 0]	n/a	catFR1	6	R1501J
860.327	0.967	977608	WORD_OFF	n/a	n/a	HICKORY	Trees	11	8	[0, 0, 0]	n/a	catFR1	6	R1501J
861.294	1.6	978574	WORD	n/a	wordpools/wordpool_categorized_EN.txt	CYPRESS	Trees	12	8	[0, 0, 0]	n/a	catFR1	6	R1501J
862.894	0.0	980174	WORD_OFF	n/a	n/a	CYPRESS	Trees	12	8	[0, 0, 0]	n/a	catFR1	6	R1501J
862.894	0.0	980177	START	n/a	n/a	n/a	n/a	-999	8	[-999, -999, -999]	n/a	catFR1	6	R1501J
862.894	0.0	980177	PROB	3.316	n/a	n/a	n/a	-999	8	[1, 3, 3]	10.0	catFR1	6	R1501J
862.894	0.0	980187	ENCODING_END	n/a	n/a	n/a	n/a	-999	8	[0, 0, 0]	n/a	catFR1	6	R1501J
862.894	3.333	980187	DISTRACT_START	n/a	n/a	n/a	n/a	-999	8	[0, 0, 0]	n/a	catFR1	6	R1501J
866.227	5.652	983510	PROB	5.635	n/a	n/a	n/a	-999	8	[2, 7, 6]	15.0	catFR1	6	R1501J
871.879	3.099	989161	PROB	3.082	n/a	n/a	n/a	-999	8	[2, 8, 1]	11.0	catFR1	6	R1501J
874.978	2.817	992260	PROB	2.8	n/a	n/a	n/a	-999	8	[4, 6, 1]	11.0	catFR1	6	R1501J
877.795	3.867	995077	PROB	3.849	n/a	n/a	n/a	-999	8	[3, 3, 1]	10.0	catFR1	6	R1501J
881.662	9.716	998944	PROB	9.699	n/a	n/a	n/a	-999	8	[5, 7, 6]	18.0	catFR1	6	R1501J
891.378	0.0	1008660	STOP	n/a	n/a	n/a	n/a	-999	8	[-999, -999, -999]	n/a	catFR1	6	R1501J
891.378	2.067	1008664	DISTRACT_END	n/a	n/a	n/a	n/a	-999	8	[0, 0, 0]	n/a	catFR1	6	R1501J
893.445	0.694	1010736	REC_START	n/a	n/a	n/a	n/a	-999	8	[0, 0, 0]	n/a	catFR1	6	R1501J
894.139	1.298	1011420	REC_WORD	0.694	n/a	HICKORY	Trees	11	8	[0, 0, 0]	n/a	catFR1	6	R1501J
895.437	1.109	1012718	REC_WORD	1.992	n/a	OAK	Trees	6	8	[0, 0, 0]	n/a	catFR1	6	R1501J
896.546	6.18	1013827	REC_WORD	3.101	n/a	CYPRESS	Trees	12	8	[0, 0, 0]	n/a	catFR1	6	R1501J
902.726	2.281	1020007	REC_WORD_VV	9.281	n/a	<>	n/a	-999	8	[0, 0, 0]	n/a	catFR1	6	R1501J
905.007	0.983	1022288	REC_WORD	11.562	n/a	REFRIGERATOR	Appliances	3	8	[0, 0, 0]	n/a	catFR1	6	R1501J
905.99	17.671	1023271	REC_WORD	12.545	n/a	STOVE	Appliances	10	8	[0, 0, 0]	n/a	catFR1	6	R1501J
923.661	1.535	1040950	REC_END	n/a	n/a	n/a	n/a	-999	8	[0, 0, 0]	n/a	catFR1	6	R1501J
925.196	10.35	1042485	COUNTDOWN_START	n/a	n/a	n/a	n/a	-999	9	[0, 0, 0]	n/a	catFR1	6	R1501J
935.546	0.0	1052828	COUNTDOWN_END	n/a	n/a	n/a	n/a	-999	9	[0, 0, 0]	n/a	catFR1	6	R1501J
935.546	2.05	1052828	ENCODING_START	n/a	n/a	n/a	n/a	-999	9	[0, 0, 0]	n/a	catFR1	6	R1501J
937.596	1.615	1054878	WORD	n/a	wordpools/wordpool_categorized_EN.txt	CARNATION	Flowers	1	9	[0, 0, 0]	n/a	catFR1	6	R1501J
939.211	0.967	1056492	WORD_OFF	n/a	n/a	CARNATION	Flowers	1	9	[0, 0, 0]	n/a	catFR1	6	R1501J
940.178	1.601	1057457	WORD	n/a	wordpools/wordpool_categorized_EN.txt	LILAC	Flowers	2	9	[0, 0, 0]	n/a	catFR1	6	R1501J
941.779	0.782	1059058	WORD_OFF	n/a	n/a	LILAC	Flowers	2	9	[0, 0, 0]	n/a	catFR1	6	R1501J
942.561	1.602	1059838	WORD	n/a	wordpools/wordpool_categorized_EN.txt	MOSQUITO	Insects	3	9	[0, 0, 0]	n/a	catFR1	6	R1501J
944.163	0.948	1061439	WORD_OFF	n/a	n/a	MOSQUITO	Insects	3	9	[0, 0, 0]	n/a	catFR1	6	R1501J
945.111	1.602	1062391	WORD	n/a	wordpools/wordpool_categorized_EN.txt	BUTTERFLY	Insects	4	9	[0, 0, 0]	n/a	catFR1	6	R1501J
946.713	0.866	1063991	WORD_OFF	n/a	n/a	BUTTERFLY	Insects	4	9	[0, 0, 0]	n/a	catFR1	6	R1501J
947.579	1.6	1064864	WORD	n/a	wordpools/wordpool_categorized_EN.txt	GOOSE	Birds	5	9	[0, 0, 0]	n/a	catFR1	6	R1501J
949.179	0.916	1066465	WORD_OFF	n/a	n/a	GOOSE	Birds	5	9	[0, 0, 0]	n/a	catFR1	6	R1501J
950.095	1.617	1067377	WORD	n/a	wordpools/wordpool_categorized_EN.txt	CROW	Birds	6	9	[0, 0, 0]	n/a	catFR1	6	R1501J
951.712	0.865	1068991	WORD_OFF	n/a	n/a	CROW	Birds	6	9	[0, 0, 0]	n/a	catFR1	6	R1501J
952.577	1.602	1069864	WORD	n/a	wordpools/wordpool_categorized_EN.txt	CRICKET	Insects	7	9	[0, 0, 0]	n/a	catFR1	6	R1501J
954.179	0.899	1071464	WORD_OFF	n/a	n/a	CRICKET	Insects	7	9	[0, 0, 0]	n/a	catFR1	6	R1501J
955.078	1.617	1072364	WORD	n/a	wordpools/wordpool_categorized_EN.txt	SPIDER	Insects	8	9	[0, 0, 0]	n/a	catFR1	6	R1501J
956.695	0.95	1073977	WORD_OFF	n/a	n/a	SPIDER	Insects	8	9	[0, 0, 0]	n/a	catFR1	6	R1501J
957.645	1.617	1074930	WORD	n/a	wordpools/wordpool_categorized_EN.txt	ROBIN	Birds	9	9	[0, 0, 0]	n/a	catFR1	6	R1501J
959.262	0.867	1076543	WORD_OFF	n/a	n/a	ROBIN	Birds	9	9	[0, 0, 0]	n/a	catFR1	6	R1501J
960.129	1.6	1077416	WORD	n/a	wordpools/wordpool_categorized_EN.txt	DOVE	Birds	10	9	[0, 0, 0]	n/a	catFR1	6	R1501J
961.729	0.882	1079017	WORD_OFF	n/a	n/a	DOVE	Birds	10	9	[0, 0, 0]	n/a	catFR1	6	R1501J
962.611	1.6	1079890	WORD	n/a	wordpools/wordpool_categorized_EN.txt	ROSE	Flowers	11	9	[0, 0, 0]	n/a	catFR1	6	R1501J
964.211	0.834	1081490	WORD_OFF	n/a	n/a	ROSE	Flowers	11	9	[0, 0, 0]	n/a	catFR1	6	R1501J
965.045	1.616	1082323	WORD	n/a	wordpools/wordpool_categorized_EN.txt	LILY	Flowers	12	9	[0, 0, 0]	n/a	catFR1	6	R1501J
966.661	0.001	1083937	WORD_OFF	n/a	n/a	LILY	Flowers	12	9	[0, 0, 0]	n/a	catFR1	6	R1501J
966.662	0.002	1083940	PROB	6.783	n/a	n/a	n/a	-999	9	[4, 7, 4]	15.0	catFR1	6	R1501J
966.664	0.0	1083942	START	n/a	n/a	n/a	n/a	-999	9	[-999, -999, -999]	n/a	catFR1	6	R1501J
966.664	0.0	1083950	ENCODING_END	n/a	n/a	n/a	n/a	-999	9	[0, 0, 0]	n/a	catFR1	6	R1501J
966.664	6.796	1083950	DISTRACT_START	n/a	n/a	n/a	n/a	-999	9	[0, 0, 0]	n/a	catFR1	6	R1501J
973.46	3.267	1090738	PROB	3.25	n/a	n/a	n/a	-999	9	[4, 4, 4]	12.0	catFR1	6	R1501J
976.727	5.001	1094005	PROB	4.983	n/a	n/a	n/a	-999	9	[2, 5, 4]	11.0	catFR1	6	R1501J
981.728	5.682	1099006	PROB	5.667	n/a	n/a	n/a	-999	9	[3, 2, 8]	13.0	catFR1	6	R1501J
987.41	0.0	1104688	STOP	n/a	n/a	n/a	n/a	-999	9	[-999, -999, -999]	n/a	catFR1	6	R1501J
987.41	2.334	1104690	DISTRACT_END	n/a	n/a	n/a	n/a	-999	9	[0, 0, 0]	n/a	catFR1	6	R1501J
989.744	0.959	1107026	REC_START	n/a	n/a	n/a	n/a	-999	9	[0, 0, 0]	n/a	catFR1	6	R1501J
990.703	1.234	1107980	REC_WORD	0.959	n/a	GOOSE	Birds	5	9	[0, 0, 0]	n/a	catFR1	6	R1501J
991.937	6.652	1109214	REC_WORD	2.193	n/a	BUTTERFLY	Insects	4	9	[0, 0, 0]	n/a	catFR1	6	R1501J
998.589	2.934	1115866	REC_WORD_VV	8.845	n/a	<>	n/a	-999	9	[0, 0, 0]	n/a	catFR1	6	R1501J
1001.523	2.618	1118800	REC_WORD	11.779	n/a	GOOSE	Birds	5	9	[0, 0, 0]	n/a	catFR1	6	R1501J
1004.141	3.587	1121418	REC_WORD	14.397	n/a	BUTTERFLY	Insects	4	9	[0, 0, 0]	n/a	catFR1	6	R1501J
1007.728	0.981	1125005	REC_WORD	17.984	n/a	GNAT	Insects	-999	9	[0, 0, 0]	n/a	catFR1	6	R1501J
1008.709	3.995	1125986	REC_WORD_VV	18.965	n/a	<>	n/a	-999	9	[0, 0, 0]	n/a	catFR1	6	R1501J
1012.704	7.275	1129981	REC_WORD_VV	22.96	n/a	<>	n/a	-999	9	[0, 0, 0]	n/a	catFR1	6	R1501J
1019.979	1.817	1137254	REC_END	n/a	n/a	n/a	n/a	-999	9	[0, 0, 0]	n/a	catFR1	6	R1501J
1021.796	10.349	1139079	COUNTDOWN_START	n/a	n/a	n/a	n/a	-999	10	[0, 0, 0]	n/a	catFR1	6	R1501J
1032.145	0.0	1149422	COUNTDOWN_END	n/a	n/a	n/a	n/a	-999	10	[0, 0, 0]	n/a	catFR1	6	R1501J
1032.145	1.883	1149422	ENCODING_START	n/a	n/a	n/a	n/a	-999	10	[0, 0, 0]	n/a	catFR1	6	R1501J
1034.028	1.601	1151300	WORD	n/a	wordpools/wordpool_categorized_EN.txt	GUITAR	Instruments	1	10	[0, 0, 0]	n/a	catFR1	6	R1501J
1035.629	0.817	1152914	WORD_OFF	n/a	n/a	GUITAR	Instruments	1	10	[0, 0, 0]	n/a	catFR1	6	R1501J
1036.446	1.6	1153721	WORD	n/a	wordpools/wordpool_categorized_EN.txt	DRUM	Instruments	2	10	[0, 0, 0]	n/a	catFR1	6	R1501J
1038.046	0.833	1155321	WORD_OFF	n/a	n/a	DRUM	Instruments	2	10	[0, 0, 0]	n/a	catFR1	6	R1501J
1038.879	1.6	1156155	WORD	n/a	wordpools/wordpool_categorized_EN.txt	MOTH	Insects	3	10	[0, 0, 0]	n/a	catFR1	6	R1501J
1040.479	0.999	1157755	WORD_OFF	n/a	n/a	MOTH	Insects	3	10	[0, 0, 0]	n/a	catFR1	6	R1501J
1041.478	1.601	1158760	WORD	n/a	wordpools/wordpool_categorized_EN.txt	FLY	Insects	4	10	[0, 0, 0]	n/a	catFR1	6	R1501J
1043.079	0.833	1160361	WORD_OFF	n/a	n/a	FLY	Insects	4	10	[0, 0, 0]	n/a	catFR1	6	R1501J
1043.912	1.6	1161194	WORD	n/a	wordpools/wordpool_categorized_EN.txt	CARDINAL	Birds	5	10	[0, 0, 0]	n/a	catFR1	6	R1501J
1045.512	0.866	1162794	WORD_OFF	n/a	n/a	CARDINAL	Birds	5	10	[0, 0, 0]	n/a	catFR1	6	R1501J
1046.378	1.602	1163654	WORD	n/a	wordpools/wordpool_categorized_EN.txt	SEAGULL	Birds	6	10	[0, 0, 0]	n/a	catFR1	6	R1501J
1047.98	0.849	1165255	WORD_OFF	n/a	n/a	SEAGULL	Birds	6	10	[0, 0, 0]	n/a	catFR1	6	R1501J
1048.829	1.616	1166114	WORD	n/a	wordpools/wordpool_categorized_EN.txt	TUBA	Instruments	7	10	[0, 0, 0]	n/a	catFR1	6	R1501J
1050.445	0.817	1167728	WORD_OFF	n/a	n/a	TUBA	Instruments	7	10	[0, 0, 0]	n/a	catFR1	6	R1501J
1051.262	1.616	1168535	WORD	n/a	wordpools/wordpool_categorized_EN.txt	BASS	Instruments	8	10	[0, 0, 0]	n/a	catFR1	6	R1501J
1052.878	0.817	1170162	WORD_OFF	n/a	n/a	BASS	Instruments	8	10	[0, 0, 0]	n/a	catFR1	6	R1501J
1053.695	1.617	1170969	WORD	n/a	wordpools/wordpool_categorized_EN.txt	ROACH	Insects	9	10	[0, 0, 0]	n/a	catFR1	6	R1501J
1055.312	0.85	1172595	WORD_OFF	n/a	n/a	ROACH	Insects	9	10	[0, 0, 0]	n/a	catFR1	6	R1501J
1056.162	1.616	1173442	WORD	n/a	wordpools/wordpool_categorized_EN.txt	LADYBUG	Insects	10	10	[0, 0, 0]	n/a	catFR1	6	R1501J
1057.778	0.867	1175056	WORD_OFF	n/a	n/a	LADYBUG	Insects	10	10	[0, 0, 0]	n/a	catFR1	6	R1501J
1058.645	1.616	1175929	WORD	n/a	wordpools/wordpool_categorized_EN.txt	PIGEON	Birds	11	10	[0, 0, 0]	n/a	catFR1	6	R1501J
1060.261	0.801	1177542	WORD_OFF	n/a	n/a	PIGEON	Birds	11	10	[0, 0, 0]	n/a	catFR1	6	R1501J
1061.062	1.615	1178336	WORD	n/a	wordpools/wordpool_categorized_EN.txt	SPARROW	Birds	12	10	[0, 0, 0]	n/a	catFR1	6	R1501J
1062.677	0.0	1179949	WORD_OFF	n/a	n/a	SPARROW	Birds	12	10	[0, 0, 0]	n/a	catFR1	6	R1501J
1062.677	0.001	1179951	PROB	3.234	n/a	n/a	n/a	-999	10	[4, 5, 1]	10.0	catFR1	6	R1501J
1062.678	0.0	1179952	START	n/a	n/a	n/a	n/a	-999	10	[-999, -999, -999]	n/a	catFR1	6	R1501J
1062.678	0.0	1179963	ENCODING_END	n/a	n/a	n/a	n/a	-999	10	[0, 0, 0]	n/a	catFR1	6	R1501J
1062.678	3.25	1179963	DISTRACT_START	n/a	n/a	n/a	n/a	-999	10	[0, 0, 0]	n/a	catFR1	6	R1501J
1065.928	5.135	1183202	PROB	5.116	n/a	n/a	n/a	-999	10	[6, 2, 8]	16.0	catFR1	6	R1501J
1071.063	4.015	1188337	PROB	3.999	n/a	n/a	n/a	-999	10	[1, 2, 4]	7.0	catFR1	6	R1501J
1075.078	4.251	1192352	PROB	4.233	n/a	n/a	n/a	-999	10	[7, 8, 1]	16.0	catFR1	6	R1501J
1079.329	8.314	1196603	PROB	8.299	n/a	n/a	n/a	-999	10	[3, 6, 7]	16.0	catFR1	6	R1501J
1087.643	0.0	1204916	STOP	n/a	n/a	n/a	n/a	-999	10	[-999, -999, -999]	n/a	catFR1	6	R1501J
1087.643	2.118	1204921	DISTRACT_END	n/a	n/a	n/a	n/a	-999	10	[0, 0, 0]	n/a	catFR1	6	R1501J
1089.761	0.419	1207032	REC_START	n/a	n/a	n/a	n/a	-999	10	[0, 0, 0]	n/a	catFR1	6	R1501J
1090.18	1.168	1207453	REC_WORD	0.419	n/a	TUBA	Instruments	7	10	[0, 0, 0]	n/a	catFR1	6	R1501J
1091.348	1.407	1208621	REC_WORD	1.587	n/a	BASS	Instruments	8	10	[0, 0, 0]	n/a	catFR1	6	R1501J
1092.755	1.418	1210028	REC_WORD	2.994	n/a	ROACH	Insects	9	10	[0, 0, 0]	n/a	catFR1	6	R1501J
1094.173	1.352	1211446	REC_WORD	4.412	n/a	LADYBUG	Insects	10	10	[0, 0, 0]	n/a	catFR1	6	R1501J
1095.525	1.598	1212798	REC_WORD	5.764	n/a	SPARROW	Birds	12	10	[0, 0, 0]	n/a	catFR1	6	R1501J
1097.123	8.605	1214396	REC_WORD	7.362	n/a	PIGEON	Birds	11	10	[0, 0, 0]	n/a	catFR1	6	R1501J
1105.728	1.606	1223001	REC_WORD	15.967	n/a	WHALE	OceanAnimals	-999	10	[0, 0, 0]	n/a	catFR1	6	R1501J
1107.334	12.644	1224607	REC_WORD_VV	17.573	n/a	<>	n/a	-999	10	[0, 0, 0]	n/a	catFR1	6	R1501J
1119.978	1.801	1237247	REC_END	n/a	n/a	n/a	n/a	-999	10	[0, 0, 0]	n/a	catFR1	6	R1501J
1121.779	10.35	1239059	COUNTDOWN_START	n/a	n/a	n/a	n/a	-999	11	[0, 0, 0]	n/a	catFR1	6	R1501J
1132.129	0.0	1249403	COUNTDOWN_END	n/a	n/a	n/a	n/a	-999	11	[0, 0, 0]	n/a	catFR1	6	R1501J
1132.129	2.134	1249403	ENCODING_START	n/a	n/a	n/a	n/a	-999	11	[0, 0, 0]	n/a	catFR1	6	R1501J
1134.263	1.6	1251532	WORD	n/a	wordpools/wordpool_categorized_EN.txt	FINGERS	BodyParts	1	11	[0, 0, 0]	n/a	catFR1	6	R1501J
1135.863	0.8	1253133	WORD_OFF	n/a	n/a	FINGERS	BodyParts	1	11	[0, 0, 0]	n/a	catFR1	6	R1501J
1136.663	1.616	1253939	WORD	n/a	wordpools/wordpool_categorized_EN.txt	KNEE	BodyParts	2	11	[0, 0, 0]	n/a	catFR1	6	R1501J
1138.279	0.932	1255553	WORD_OFF	n/a	n/a	KNEE	BodyParts	2	11	[0, 0, 0]	n/a	catFR1	6	R1501J
1139.211	1.601	1256479	WORD	n/a	wordpools/wordpool_categorized_EN.txt	LADLE	KitchenTools	3	11	[0, 0, 0]	n/a	catFR1	6	R1501J
1140.812	0.817	1258093	WORD_OFF	n/a	n/a	LADLE	KitchenTools	3	11	[0, 0, 0]	n/a	catFR1	6	R1501J
1141.629	1.616	1258899	WORD	n/a	wordpools/wordpool_categorized_EN.txt	PEELER	KitchenTools	4	11	[0, 0, 0]	n/a	catFR1	6	R1501J
1143.245	0.767	1260526	WORD_OFF	n/a	n/a	PEELER	KitchenTools	4	11	[0, 0, 0]	n/a	catFR1	6	R1501J
1144.012	1.617	1261280	WORD	n/a	wordpools/wordpool_categorized_EN.txt	STAPLER	OfficeSupplies	5	11	[0, 0, 0]	n/a	catFR1	6	R1501J
1145.629	0.766	1262907	WORD_OFF	n/a	n/a	STAPLER	OfficeSupplies	5	11	[0, 0, 0]	n/a	catFR1	6	R1501J
1146.395	1.615	1263674	WORD	n/a	wordpools/wordpool_categorized_EN.txt	TAPE	OfficeSupplies	6	11	[0, 0, 0]	n/a	catFR1	6	R1501J
1148.01	0.802	1265288	WORD_OFF	n/a	n/a	TAPE	OfficeSupplies	6	11	[0, 0, 0]	n/a	catFR1	6	R1501J
1148.812	1.6	1266081	WORD	n/a	wordpools/wordpool_categorized_EN.txt	EAR	BodyParts	7	11	[0, 0, 0]	n/a	catFR1	6	R1501J
1150.412	0.866	1267682	WORD_OFF	n/a	n/a	EAR	BodyParts	7	11	[0, 0, 0]	n/a	catFR1	6	R1501J
1151.278	1.601	1268555	WORD	n/a	wordpools/wordpool_categorized_EN.txt	NOSE	BodyParts	8	11	[0, 0, 0]	n/a	catFR1	6	R1501J
1152.879	0.9	1270155	WORD_OFF	n/a	n/a	NOSE	BodyParts	8	11	[0, 0, 0]	n/a	catFR1	6	R1501J
1153.779	1.6	1271055	WORD	n/a	wordpools/wordpool_categorized_EN.txt	SPATULA	KitchenTools	9	11	[0, 0, 0]	n/a	catFR1	6	R1501J
1155.379	0.966	1272655	WORD_OFF	n/a	n/a	SPATULA	KitchenTools	9	11	[0, 0, 0]	n/a	catFR1	6	R1501J
1156.345	1.6	1273621	WORD	n/a	wordpools/wordpool_categorized_EN.txt	COLANDER	KitchenTools	10	11	[0, 0, 0]	n/a	catFR1	6	R1501J
1157.945	0.883	1275221	WORD_OFF	n/a	n/a	COLANDER	KitchenTools	10	11	[0, 0, 0]	n/a	catFR1	6	R1501J
1158.828	1.6	1276107	WORD	n/a	wordpools/wordpool_categorized_EN.txt	MARKER	OfficeSupplies	11	11	[0, 0, 0]	n/a	catFR1	6	R1501J
1160.428	0.899	1277708	WORD_OFF	n/a	n/a	MARKER	OfficeSupplies	11	11	[0, 0, 0]	n/a	catFR1	6	R1501J
1161.327	1.6	1278594	WORD	n/a	wordpools/wordpool_categorized_EN.txt	BINDER	OfficeSupplies	12	11	[0, 0, 0]	n/a	catFR1	6	R1501J
1162.927	0.001	1280195	WORD_OFF	n/a	n/a	BINDER	OfficeSupplies	12	11	[0, 0, 0]	n/a	catFR1	6	R1501J
1162.928	0.0	1280198	PROB	5.8	n/a	n/a	n/a	-999	11	[5, 6, 4]	15.0	catFR1	6	R1501J
1162.928	0.0	1280198	START	n/a	n/a	n/a	n/a	-999	11	[-999, -999, -999]	n/a	catFR1	6	R1501J
1162.928	0.0	1280207	ENCODING_END	n/a	n/a	n/a	n/a	-999	11	[0, 0, 0]	n/a	catFR1	6	R1501J
1162.928	5.817	1280207	DISTRACT_START	n/a	n/a	n/a	n/a	-999	11	[0, 0, 0]	n/a	catFR1	6	R1501J
1168.745	7.983	1286015	PROB	7.965	n/a	n/a	n/a	-999	11	[2, 7, 5]	14.0	catFR1	6	R1501J
1176.728	6.15	1293998	PROB	6.133	n/a	n/a	n/a	-999	11	[5, 2, 4]	11.0	catFR1	6	R1501J
1182.878	11.05	1300148	PROB	11.032	n/a	n/a	n/a	-999	11	[7, 4, 5]	16.0	catFR1	6	R1501J
1193.928	0.0	1311197	STOP	n/a	n/a	n/a	n/a	-999	11	[-999, -999, -999]	n/a	catFR1	6	R1501J
1193.928	2.25	1311198	DISTRACT_END	n/a	n/a	n/a	n/a	-999	11	[0, 0, 0]	n/a	catFR1	6	R1501J
1196.178	0.477	1313454	REC_START	n/a	n/a	n/a	n/a	-999	11	[0, 0, 0]	n/a	catFR1	6	R1501J
1196.655	1.668	1313924	REC_WORD	0.477	n/a	FINGERS	BodyParts	1	11	[0, 0, 0]	n/a	catFR1	6	R1501J
1198.323	2.023	1315592	REC_WORD	2.145	n/a	KNEE	BodyParts	2	11	[0, 0, 0]	n/a	catFR1	6	R1501J
1200.346	2.03	1317615	REC_WORD	4.168	n/a	ARM	BodyParts	-999	11	[0, 0, 0]	n/a	catFR1	6	R1501J
1202.376	2.078	1319645	REC_WORD	6.198	n/a	SPATULA	KitchenTools	9	11	[0, 0, 0]	n/a	catFR1	6	R1501J
1204.454	2.099	1321723	REC_WORD	8.276	n/a	STAPLER	OfficeSupplies	5	11	[0, 0, 0]	n/a	catFR1	6	R1501J
1206.553	2.038	1323822	REC_WORD	10.375	n/a	TAPE	OfficeSupplies	6	11	[0, 0, 0]	n/a	catFR1	6	R1501J
1208.591	12.713	1325860	REC_WORD	12.413	n/a	LADLE	KitchenTools	3	11	[0, 0, 0]	n/a	catFR1	6	R1501J
1221.304	5.113	1338572	REC_WORD	25.126	n/a	NOSE	BodyParts	8	11	[0, 0, 0]	n/a	catFR1	6	R1501J
1226.417	1.862	1343682	REC_END	n/a	n/a	n/a	n/a	-999	11	[0, 0, 0]	n/a	catFR1	6	R1501J
1228.279	10.349	1345547	COUNTDOWN_START	n/a	n/a	n/a	n/a	-999	12	[0, 0, 0]	n/a	catFR1	6	R1501J
1238.628	0.0	1355904	COUNTDOWN_END	n/a	n/a	n/a	n/a	-999	12	[0, 0, 0]	n/a	catFR1	6	R1501J
1238.628	2.017	1355904	ENCODING_START	n/a	n/a	n/a	n/a	-999	12	[0, 0, 0]	n/a	catFR1	6	R1501J
1240.645	1.6	1357914	WORD	n/a	wordpools/wordpool_categorized_EN.txt	TOASTER	Appliances	1	12	[0, 0, 0]	n/a	catFR1	6	R1501J
1242.245	0.9	1359514	WORD_OFF	n/a	n/a	TOASTER	Appliances	1	12	[0, 0, 0]	n/a	catFR1	6	R1501J
1243.145	1.6	1360414	WORD	n/a	wordpools/wordpool_categorized_EN.txt	FREEZER	Appliances	2	12	[0, 0, 0]	n/a	catFR1	6	R1501J
1244.745	0.883	1362014	WORD_OFF	n/a	n/a	FREEZER	Appliances	2	12	[0, 0, 0]	n/a	catFR1	6	R1501J
1245.628	1.601	1362901	WORD	n/a	wordpools/wordpool_categorized_EN.txt	BED	Furniture	3	12	[0, 0, 0]	n/a	catFR1	6	R1501J
1247.229	0.85	1364501	WORD_OFF	n/a	n/a	BED	Furniture	3	12	[0, 0, 0]	n/a	catFR1	6	R1501J
1248.079	1.615	1365347	WORD	n/a	wordpools/wordpool_categorized_EN.txt	COUCH	Furniture	4	12	[0, 0, 0]	n/a	catFR1	6	R1501J
1249.694	0.818	1366961	WORD_OFF	n/a	n/a	COUCH	Furniture	4	12	[0, 0, 0]	n/a	catFR1	6	R1501J
1250.512	1.6	1367781	WORD	n/a	wordpools/wordpool_categorized_EN.txt	SLINKY	Toys	5	12	[0, 0, 0]	n/a	catFR1	6	R1501J
1252.112	0.899	1369382	WORD_OFF	n/a	n/a	SLINKY	Toys	5	12	[0, 0, 0]	n/a	catFR1	6	R1501J
1253.011	1.601	1370281	WORD	n/a	wordpools/wordpool_categorized_EN.txt	FOOTBALL	Toys	6	12	[0, 0, 0]	n/a	catFR1	6	R1501J
1254.612	0.85	1371881	WORD_OFF	n/a	n/a	FOOTBALL	Toys	6	12	[0, 0, 0]	n/a	catFR1	6	R1501J
1255.462	1.616	1372728	WORD	n/a	wordpools/wordpool_categorized_EN.txt	DISHWASHER	Appliances	7	12	[0, 0, 0]	n/a	catFR1	6	R1501J
1257.078	0.817	1374342	WORD_OFF	n/a	n/a	DISHWASHER	Appliances	7	12	[0, 0, 0]	n/a	catFR1	6	R1501J
1257.895	1.6	1375162	WORD	n/a	wordpools/wordpool_categorized_EN.txt	OVEN	Appliances	8	12	[0, 0, 0]	n/a	catFR1	6	R1501J
1259.495	0.866	1376762	WORD_OFF	n/a	n/a	OVEN	Appliances	8	12	[0, 0, 0]	n/a	catFR1	6	R1501J
1260.361	1.6	1377635	WORD	n/a	wordpools/wordpool_categorized_EN.txt	CHAIR	Furniture	9	12	[0, 0, 0]	n/a	catFR1	6	R1501J
1261.961	1.001	1379235	WORD_OFF	n/a	n/a	CHAIR	Furniture	9	12	[0, 0, 0]	n/a	catFR1	6	R1501J
1262.962	1.6	1380227	WORD	n/a	wordpools/wordpool_categorized_EN.txt	CABINET	Furniture	10	12	[0, 0, 0]	n/a	catFR1	6	R1501J
1264.562	0.766	1381828	WORD_OFF	n/a	n/a	CABINET	Furniture	10	12	[0, 0, 0]	n/a	catFR1	6	R1501J
1265.328	1.6	1382595	WORD	n/a	wordpools/wordpool_categorized_EN.txt	PUZZLE	Toys	11	12	[0, 0, 0]	n/a	catFR1	6	R1501J
1266.928	0.767	1384195	WORD_OFF	n/a	n/a	PUZZLE	Toys	11	12	[0, 0, 0]	n/a	catFR1	6	R1501J
1267.695	1.617	1384963	WORD	n/a	wordpools/wordpool_categorized_EN.txt	BASKETBALL	Toys	12	12	[0, 0, 0]	n/a	catFR1	6	R1501J
1269.312	0.0	1386576	WORD_OFF	n/a	n/a	BASKETBALL	Toys	12	12	[0, 0, 0]	n/a	catFR1	6	R1501J
1269.312	0.001	1386578	PROB	4.998	n/a	n/a	n/a	-999	12	[8, 8, 4]	20.0	catFR1	6	R1501J
1269.313	0.0	1386579	START	n/a	n/a	n/a	n/a	-999	12	[-999, -999, -999]	n/a	catFR1	6	R1501J
1269.313	0.0	1386589	ENCODING_END	n/a	n/a	n/a	n/a	-999	12	[0, 0, 0]	n/a	catFR1	6	R1501J
1269.313	5.014	1386589	DISTRACT_START	n/a	n/a	n/a	n/a	-999	12	[0, 0, 0]	n/a	catFR1	6	R1501J
1274.327	3.784	1391593	PROB	3.767	n/a	n/a	n/a	-999	12	[6, 1, 8]	15.0	catFR1	6	R1501J
1278.111	4.584	1395377	PROB	4.567	n/a	n/a	n/a	-999	12	[4, 2, 8]	14.0	catFR1	6	R1501J
1282.695	7.165	1399960	PROB	7.149	n/a	n/a	n/a	-999	12	[2, 1, 5]	8.0	catFR1	6	R1501J
1289.86	0.0	1407125	STOP	n/a	n/a	n/a	n/a	-999	12	[-999, -999, -999]	n/a	catFR1	6	R1501J
1289.86	2.018	1407130	DISTRACT_END	n/a	n/a	n/a	n/a	-999	12	[0, 0, 0]	n/a	catFR1	6	R1501J
1291.878	0.824	1409149	REC_START	n/a	n/a	n/a	n/a	-999	12	[0, 0, 0]	n/a	catFR1	6	R1501J
1292.702	2.048	1409967	REC_WORD_VV	0.824	n/a	<>	n/a	-999	12	[0, 0, 0]	n/a	catFR1	6	R1501J
1294.75	1.29	1412015	REC_WORD	2.872	n/a	BASKETBALL	Toys	12	12	[0, 0, 0]	n/a	catFR1	6	R1501J
1296.04	0.854	1413305	REC_WORD	4.162	n/a	BED	Furniture	3	12	[0, 0, 0]	n/a	catFR1	6	R1501J
1296.894	7.974	1414159	REC_WORD	5.016	n/a	COUCH	Furniture	4	12	[0, 0, 0]	n/a	catFR1	6	R1501J
1304.868	3.193	1422133	REC_WORD	12.99	n/a	STOVE	Appliances	-999	12	[0, 0, 0]	n/a	catFR1	6	R1501J
1308.061	0.939	1425325	REC_WORD	16.183	n/a	OVEN	Appliances	8	12	[0, 0, 0]	n/a	catFR1	6	R1501J
1309.0	2.955	1426264	REC_WORD_VV	17.122	n/a	<>	n/a	-999	12	[0, 0, 0]	n/a	catFR1	6	R1501J
1311.955	5.196	1429219	REC_WORD_VV	20.077	n/a	<>	n/a	-999	12	[0, 0, 0]	n/a	catFR1	6	R1501J
1317.151	4.963	1434415	REC_WORD	25.273	n/a	COUCH	Furniture	4	12	[0, 0, 0]	n/a	catFR1	6	R1501J
1322.114	0.0	1439377	REC_END	n/a	n/a	n/a	n/a	-999	12	[0, 0, 0]	n/a	catFR1	6	R1501J
