onset	duration	sample	trial_type	response_time	stim_file	item_name	category	serialpos	list	test	answer	experiment	session	subject
0.0	164.799	134899	INSTRUCT_START	n/a	n/a	n/a	n/a	-999	-999	[0, 0, 0]	n/a	catFR1	0	R1495J
164.799	112.0	299685	INSTRUCT_END	n/a	n/a	n/a	n/a	-999	-999	[0, 0, 0]	n/a	catFR1	0	R1495J
276.799	10.35	411692	COUNTDOWN_START	n/a	n/a	n/a	n/a	-999	-999	[0, 0, 0]	n/a	catFR1	0	R1495J
287.149	0.0	422032	COUNTDOWN_END	n/a	n/a	n/a	n/a	-999	-999	[0, 0, 0]	n/a	catFR1	0	R1495J
287.149	2.351	422044	ENCODING_START	n/a	n/a	n/a	n/a	-999	-1	[0, 0, 0]	n/a	catFR1	0	R1495J
289.5	1.599	424384	WORD	n/a	n/a	CAR	Vehicles	1	-1	[0, 0, 0]	n/a	catFR1	0	R1495J
291.099	0.917	425987	WORD_OFF	n/a	n/a	CAR	Vehicles	1	-1	[0, 0, 0]	n/a	catFR1	0	R1495J
292.016	1.616	426903	WORD	n/a	n/a	BIKE	Vehicles	2	-1	[0, 0, 0]	n/a	catFR1	0	R1495J
293.632	0.949	428518	WORD_OFF	n/a	n/a	BIKE	Vehicles	2	-1	[0, 0, 0]	n/a	catFR1	0	R1495J
294.581	1.602	429472	WORD	n/a	n/a	SHOVEL	Tools	3	-1	[0, 0, 0]	n/a	catFR1	0	R1495J
296.183	0.783	431074	WORD_OFF	n/a	n/a	SHOVEL	Tools	3	-1	[0, 0, 0]	n/a	catFR1	0	R1495J
296.966	1.616	431850	WORD	n/a	n/a	DRILL	Tools	4	-1	[0, 0, 0]	n/a	catFR1	0	R1495J
298.582	0.767	433465	WORD_OFF	n/a	n/a	DRILL	Tools	4	-1	[0, 0, 0]	n/a	catFR1	0	R1495J
299.349	1.617	434241	WORD	n/a	n/a	JELLO	Desserts	5	-1	[0, 0, 0]	n/a	catFR1	0	R1495J
300.966	0.866	435856	WORD_OFF	n/a	n/a	JELLO	Desserts	5	-1	[0, 0, 0]	n/a	catFR1	0	R1495J
301.832	1.601	436721	WORD	n/a	n/a	CAKE	Desserts	6	-1	[0, 0, 0]	n/a	catFR1	0	R1495J
303.433	0.799	438323	WORD_OFF	n/a	n/a	CAKE	Desserts	6	-1	[0, 0, 0]	n/a	catFR1	0	R1495J
304.232	1.617	439119	WORD	n/a	n/a	SCREWDRIVER	Tools	7	-1	[0, 0, 0]	n/a	catFR1	0	R1495J
305.849	0.95	440740	WORD_OFF	n/a	n/a	SCREWDRIVER	Tools	7	-1	[0, 0, 0]	n/a	catFR1	0	R1495J
306.799	1.616	441681	WORD	n/a	n/a	RATCHET	Tools	8	-1	[0, 0, 0]	n/a	catFR1	0	R1495J
308.415	0.984	443296	WORD_OFF	n/a	n/a	RATCHET	Tools	8	-1	[0, 0, 0]	n/a	catFR1	0	R1495J
309.399	1.615	444288	WORD	n/a	n/a	PIE	Desserts	9	-1	[0, 0, 0]	n/a	catFR1	0	R1495J
311.014	0.769	445903	WORD_OFF	n/a	n/a	PIE	Desserts	9	-1	[0, 0, 0]	n/a	catFR1	0	R1495J
311.783	1.616	446666	WORD	n/a	n/a	PASTRY	Desserts	10	-1	[0, 0, 0]	n/a	catFR1	0	R1495J
313.399	0.848	448281	WORD_OFF	n/a	n/a	PASTRY	Desserts	10	-1	[0, 0, 0]	n/a	catFR1	0	R1495J
314.247	1.602	449134	WORD	n/a	n/a	VAN	Vehicles	11	-1	[0, 0, 0]	n/a	catFR1	0	R1495J
315.849	0.817	450736	WORD_OFF	n/a	n/a	VAN	Vehicles	11	-1	[0, 0, 0]	n/a	catFR1	0	R1495J
316.666	1.616	451550	WORD	n/a	n/a	JEEP	Vehicles	12	-1	[0, 0, 0]	n/a	catFR1	0	R1495J
318.282	0.001	453165	WORD_OFF	n/a	n/a	JEEP	Vehicles	12	-1	[0, 0, 0]	n/a	catFR1	0	R1495J
318.283	0.0	453165	ENCODING_END	n/a	n/a	n/a	n/a	-999	-1	[0, 0, 0]	n/a	catFR1	0	R1495J
318.283	0.0	453165	DISTRACT_START	n/a	n/a	n/a	n/a	-999	-1	[0, 0, 0]	n/a	catFR1	0	R1495J
318.282	0.001	453165	PROB	5.684	n/a	n/a	n/a	-999	-1	[5, 1, 4]	10.0	catFR1	0	R1495J
318.283	5.699	453166	START	n/a	n/a	n/a	n/a	-999	-1	[-999, -999, -999]	n/a	catFR1	0	R1495J
323.982	3.634	458864	PROB	3.616	n/a	n/a	n/a	-999	-1	[6, 3, 7]	16.0	catFR1	0	R1495J
327.616	3.766	462498	PROB	3.749	n/a	n/a	n/a	-999	-1	[2, 4, 8]	14.0	catFR1	0	R1495J
331.382	3.55	466264	PROB	3.532	n/a	n/a	n/a	-999	-1	[2, 1, 7]	10.0	catFR1	0	R1495J
334.932	2.867	469814	PROB	2.849	n/a	n/a	n/a	-999	-1	[5, 2, 1]	8.0	catFR1	0	R1495J
337.799	3.266	472681	PROB	3.249	n/a	n/a	n/a	-999	-1	[6, 4, 4]	14.0	catFR1	0	R1495J
341.065	0.0	475947	STOP	n/a	n/a	n/a	n/a	-999	-1	[-999, -999, -999]	n/a	catFR1	0	R1495J
341.065	2.149	475956	DISTRACT_END	n/a	n/a	n/a	n/a	-999	-1	[0, 0, 0]	n/a	catFR1	0	R1495J
343.214	7.292	478100	REC_START	n/a	n/a	n/a	n/a	-999	-1	[0, 0, 0]	n/a	catFR1	0	R1495J
350.506	2.648	485387	REC_WORD_VV	7.292	n/a	<>	n/a	-999	-1	[0, 0, 0]	n/a	catFR1	0	R1495J
353.154	0.472	488035	REC_WORD	9.94	n/a	CAR	Vehicles	1	-1	[0, 0, 0]	n/a	catFR1	0	R1495J
353.626	1.208	488507	REC_WORD	10.412	n/a	SHOVEL	Tools	3	-1	[0, 0, 0]	n/a	catFR1	0	R1495J
354.834	1.384	489715	REC_WORD	11.62	n/a	PASTRY	Desserts	10	-1	[0, 0, 0]	n/a	catFR1	0	R1495J
356.218	2.804	491099	REC_WORD	13.004	n/a	LOOP	n/a	-999	-1	[0, 0, 0]	n/a	catFR1	0	R1495J
359.022	1.297	493903	REC_WORD	15.808	n/a	VAN	Vehicles	11	-1	[0, 0, 0]	n/a	catFR1	0	R1495J
360.319	7.45	495200	REC_WORD	17.105	n/a	SCREWDRIVER	Tools	7	-1	[0, 0, 0]	n/a	catFR1	0	R1495J
367.769	5.642	502650	REC_WORD_VV	24.555	n/a	<>	n/a	-999	-1	[0, 0, 0]	n/a	catFR1	0	R1495J
373.411	112.054	508297	REC_END	n/a	n/a	n/a	n/a	-999	-1	[0, 0, 0]	n/a	catFR1	0	R1495J
485.465	10.35	620342	COUNTDOWN_START	n/a	n/a	n/a	n/a	-999	1	[0, 0, 0]	n/a	catFR1	0	R1495J
495.815	0.0	630695	COUNTDOWN_END	n/a	n/a	n/a	n/a	-999	1	[0, 0, 0]	n/a	catFR1	0	R1495J
495.815	2.165	630695	ENCODING_START	n/a	n/a	n/a	n/a	-999	1	[0, 0, 0]	n/a	catFR1	0	R1495J
497.98	1.6	632857	WORD	n/a	wordpools/wordpool_categorized_EN.txt	OCEAN	Landscapes	1	1	[0, 0, 0]	n/a	catFR1	0	R1495J
499.58	0.767	634459	WORD_OFF	n/a	n/a	OCEAN	Landscapes	1	1	[0, 0, 0]	n/a	catFR1	0	R1495J
500.347	1.6	635222	WORD	n/a	wordpools/wordpool_categorized_EN.txt	CREEK	Landscapes	2	1	[0, 0, 0]	n/a	catFR1	0	R1495J
501.947	0.817	636825	WORD_OFF	n/a	n/a	CREEK	Landscapes	2	1	[0, 0, 0]	n/a	catFR1	0	R1495J
502.764	1.617	637639	WORD	n/a	wordpools/wordpool_categorized_EN.txt	GORILLA	Zoo	3	1	[0, 0, 0]	n/a	catFR1	0	R1495J
504.381	0.783	639254	WORD_OFF	n/a	n/a	GORILLA	Zoo	3	1	[0, 0, 0]	n/a	catFR1	0	R1495J
505.164	1.617	640042	WORD	n/a	wordpools/wordpool_categorized_EN.txt	CHIMPANZEE	Zoo	4	1	[0, 0, 0]	n/a	catFR1	0	R1495J
506.781	0.983	641658	WORD_OFF	n/a	n/a	CHIMPANZEE	Zoo	4	1	[0, 0, 0]	n/a	catFR1	0	R1495J
507.764	1.616	642637	WORD	n/a	wordpools/wordpool_categorized_EN.txt	ROACH	Insects	5	1	[0, 0, 0]	n/a	catFR1	0	R1495J
509.38	0.867	644252	WORD_OFF	n/a	n/a	ROACH	Insects	5	1	[0, 0, 0]	n/a	catFR1	0	R1495J
510.247	1.601	645130	WORD	n/a	wordpools/wordpool_categorized_EN.txt	BEETLE	Insects	6	1	[0, 0, 0]	n/a	catFR1	0	R1495J
511.848	0.932	646719	WORD_OFF	n/a	n/a	BEETLE	Insects	6	1	[0, 0, 0]	n/a	catFR1	0	R1495J
512.78	1.6	647661	WORD	n/a	wordpools/wordpool_categorized_EN.txt	MONKEY	Zoo	7	1	[0, 0, 0]	n/a	catFR1	0	R1495J
514.38	0.768	649263	WORD_OFF	n/a	n/a	MONKEY	Zoo	7	1	[0, 0, 0]	n/a	catFR1	0	R1495J
515.148	1.6	650026	WORD	n/a	wordpools/wordpool_categorized_EN.txt	LION	Zoo	8	1	[0, 0, 0]	n/a	catFR1	0	R1495J
516.748	0.916	651629	WORD_OFF	n/a	n/a	LION	Zoo	8	1	[0, 0, 0]	n/a	catFR1	0	R1495J
517.664	1.616	652544	WORD	n/a	wordpools/wordpool_categorized_EN.txt	FLY	Insects	9	1	[0, 0, 0]	n/a	catFR1	0	R1495J
519.28	0.835	654159	WORD_OFF	n/a	n/a	FLY	Insects	9	1	[0, 0, 0]	n/a	catFR1	0	R1495J
520.115	1.617	654999	WORD	n/a	wordpools/wordpool_categorized_EN.txt	ANT	Insects	10	1	[0, 0, 0]	n/a	catFR1	0	R1495J
521.732	0.849	656614	WORD_OFF	n/a	n/a	ANT	Insects	10	1	[0, 0, 0]	n/a	catFR1	0	R1495J
522.581	1.617	657453	WORD	n/a	wordpools/wordpool_categorized_EN.txt	WOODS	Landscapes	11	1	[0, 0, 0]	n/a	catFR1	0	R1495J
524.198	0.85	659081	WORD_OFF	n/a	n/a	WOODS	Landscapes	11	1	[0, 0, 0]	n/a	catFR1	0	R1495J
525.048	1.616	659921	WORD	n/a	wordpools/wordpool_categorized_EN.txt	FOREST	Landscapes	12	1	[0, 0, 0]	n/a	catFR1	0	R1495J
526.664	0.001	661536	WORD_OFF	n/a	n/a	FOREST	Landscapes	12	1	[0, 0, 0]	n/a	catFR1	0	R1495J
526.665	0.0	661539	START	n/a	n/a	n/a	n/a	-999	1	[-999, -999, -999]	n/a	catFR1	0	R1495J
526.665	0.0	661539	PROB	4.299	n/a	n/a	n/a	-999	1	[4, 6, 6]	16.0	catFR1	0	R1495J
526.665	0.0	661548	ENCODING_END	n/a	n/a	n/a	n/a	-999	1	[0, 0, 0]	n/a	catFR1	0	R1495J
526.665	4.318	661548	DISTRACT_START	n/a	n/a	n/a	n/a	-999	1	[0, 0, 0]	n/a	catFR1	0	R1495J
530.983	3.516	665857	PROB	3.5	n/a	n/a	n/a	-999	1	[1, 4, 3]	8.0	catFR1	0	R1495J
534.499	3.415	669373	PROB	3.399	n/a	n/a	n/a	-999	1	[3, 8, 7]	18.0	catFR1	0	R1495J
537.914	3.951	672788	PROB	3.934	n/a	n/a	n/a	-999	1	[2, 6, 6]	14.0	catFR1	0	R1495J
541.865	3.251	676738	PROB	3.233	n/a	n/a	n/a	-999	1	[7, 3, 8]	18.0	catFR1	0	R1495J
545.116	4.665	679989	PROB	4.649	n/a	n/a	n/a	-999	1	[1, 5, 8]	14.0	catFR1	0	R1495J
549.781	0.0	684654	STOP	n/a	n/a	n/a	n/a	-999	1	[-999, -999, -999]	n/a	catFR1	0	R1495J
549.781	2.366	684657	DISTRACT_END	n/a	n/a	n/a	n/a	-999	1	[0, 0, 0]	n/a	catFR1	0	R1495J
552.147	0.75	687018	REC_START	n/a	n/a	n/a	n/a	-999	1	[0, 0, 0]	n/a	catFR1	0	R1495J
552.897	0.522	687770	REC_WORD	0.75	n/a	OCEAN	Landscapes	1	1	[0, 0, 0]	n/a	catFR1	0	R1495J
553.419	2.028	688292	REC_WORD	1.272	n/a	CREEK	Landscapes	2	1	[0, 0, 0]	n/a	catFR1	0	R1495J
555.447	0.793	690320	REC_WORD	3.3	n/a	ROACH	Insects	5	1	[0, 0, 0]	n/a	catFR1	0	R1495J
556.24	26.072	691113	REC_WORD	4.093	n/a	ANT	Insects	10	1	[0, 0, 0]	n/a	catFR1	0	R1495J
582.312	4.268	717190	REC_END	n/a	n/a	n/a	n/a	-999	1	[0, 0, 0]	n/a	catFR1	0	R1495J
586.58	10.352	721463	COUNTDOWN_START	n/a	n/a	n/a	n/a	-999	2	[0, 0, 0]	n/a	catFR1	0	R1495J
596.932	0.0	731802	COUNTDOWN_END	n/a	n/a	n/a	n/a	-999	2	[0, 0, 0]	n/a	catFR1	0	R1495J
596.932	2.117	731802	ENCODING_START	n/a	n/a	n/a	n/a	-999	2	[0, 0, 0]	n/a	catFR1	0	R1495J
599.049	1.601	733926	WORD	n/a	wordpools/wordpool_categorized_EN.txt	CARDINAL	Birds	1	2	[0, 0, 0]	n/a	catFR1	0	R1495J
600.65	0.815	735529	WORD_OFF	n/a	n/a	CARDINAL	Birds	1	2	[0, 0, 0]	n/a	catFR1	0	R1495J
601.465	1.601	736343	WORD	n/a	wordpools/wordpool_categorized_EN.txt	HAWK	Birds	2	2	[0, 0, 0]	n/a	catFR1	0	R1495J
603.066	0.95	737945	WORD_OFF	n/a	n/a	HAWK	Birds	2	2	[0, 0, 0]	n/a	catFR1	0	R1495J
604.016	1.616	738886	WORD	n/a	wordpools/wordpool_categorized_EN.txt	FOLDER	OfficeSupplies	3	2	[0, 0, 0]	n/a	catFR1	0	R1495J
605.632	0.767	740501	WORD_OFF	n/a	n/a	FOLDER	OfficeSupplies	3	2	[0, 0, 0]	n/a	catFR1	0	R1495J
606.399	1.617	741277	WORD	n/a	wordpools/wordpool_categorized_EN.txt	MARKER	OfficeSupplies	4	2	[0, 0, 0]	n/a	catFR1	0	R1495J
608.016	0.9	742892	WORD_OFF	n/a	n/a	MARKER	OfficeSupplies	4	2	[0, 0, 0]	n/a	catFR1	0	R1495J
608.916	1.616	743795	WORD	n/a	wordpools/wordpool_categorized_EN.txt	GRATER	KitchenTools	5	2	[0, 0, 0]	n/a	catFR1	0	R1495J
610.532	0.8	745411	WORD_OFF	n/a	n/a	GRATER	KitchenTools	5	2	[0, 0, 0]	n/a	catFR1	0	R1495J
611.332	1.616	746199	WORD	n/a	wordpools/wordpool_categorized_EN.txt	SPOON	KitchenTools	6	2	[0, 0, 0]	n/a	catFR1	0	R1495J
612.948	0.817	747827	WORD_OFF	n/a	n/a	SPOON	KitchenTools	6	2	[0, 0, 0]	n/a	catFR1	0	R1495J
613.765	1.616	748641	WORD	n/a	wordpools/wordpool_categorized_EN.txt	ERASER	OfficeSupplies	7	2	[0, 0, 0]	n/a	catFR1	0	R1495J
615.381	0.868	750256	WORD_OFF	n/a	n/a	ERASER	OfficeSupplies	7	2	[0, 0, 0]	n/a	catFR1	0	R1495J
616.249	1.6	751121	WORD	n/a	wordpools/wordpool_categorized_EN.txt	BINDER	OfficeSupplies	8	2	[0, 0, 0]	n/a	catFR1	0	R1495J
617.849	0.85	752723	WORD_OFF	n/a	n/a	BINDER	OfficeSupplies	8	2	[0, 0, 0]	n/a	catFR1	0	R1495J
618.699	1.6	753576	WORD	n/a	wordpools/wordpool_categorized_EN.txt	ROBIN	Birds	9	2	[0, 0, 0]	n/a	catFR1	0	R1495J
620.299	0.866	755178	WORD_OFF	n/a	n/a	ROBIN	Birds	9	2	[0, 0, 0]	n/a	catFR1	0	R1495J
621.165	1.616	756043	WORD	n/a	wordpools/wordpool_categorized_EN.txt	SEAGULL	Birds	10	2	[0, 0, 0]	n/a	catFR1	0	R1495J
622.781	0.883	757658	WORD_OFF	n/a	n/a	SEAGULL	Birds	10	2	[0, 0, 0]	n/a	catFR1	0	R1495J
623.664	1.616	758536	WORD	n/a	wordpools/wordpool_categorized_EN.txt	LADLE	KitchenTools	11	2	[0, 0, 0]	n/a	catFR1	0	R1495J
625.28	0.901	760151	WORD_OFF	n/a	n/a	LADLE	KitchenTools	11	2	[0, 0, 0]	n/a	catFR1	0	R1495J
626.181	1.617	761054	WORD	n/a	wordpools/wordpool_categorized_EN.txt	WHISK	KitchenTools	12	2	[0, 0, 0]	n/a	catFR1	0	R1495J
627.798	0.0	762668	PROB	3.916	n/a	n/a	n/a	-999	2	[4, 3, 7]	14.0	catFR1	0	R1495J
627.798	0.001	762669	WORD_OFF	n/a	n/a	WHISK	KitchenTools	12	2	[0, 0, 0]	n/a	catFR1	0	R1495J
627.799	0.0	762669	ENCODING_END	n/a	n/a	n/a	n/a	-999	2	[0, 0, 0]	n/a	catFR1	0	R1495J
627.799	0.0	762669	DISTRACT_START	n/a	n/a	n/a	n/a	-999	2	[0, 0, 0]	n/a	catFR1	0	R1495J
627.799	3.933	762669	START	n/a	n/a	n/a	n/a	-999	2	[-999, -999, -999]	n/a	catFR1	0	R1495J
631.732	3.783	766602	PROB	3.765	n/a	n/a	n/a	-999	2	[3, 6, 6]	15.0	catFR1	0	R1495J
635.515	2.201	770385	PROB	2.183	n/a	n/a	n/a	-999	2	[3, 3, 3]	9.0	catFR1	0	R1495J
637.716	3.032	772585	PROB	3.015	n/a	n/a	n/a	-999	2	[2, 6, 6]	14.0	catFR1	0	R1495J
640.748	3.083	775617	PROB	3.067	n/a	n/a	n/a	-999	2	[7, 2, 2]	11.0	catFR1	0	R1495J
643.831	6.299	778700	PROB	6.283	n/a	n/a	n/a	-999	2	[7, 6, 5]	18.0	catFR1	0	R1495J
650.13	0.0	784999	STOP	n/a	n/a	n/a	n/a	-999	2	[-999, -999, -999]	n/a	catFR1	0	R1495J
650.13	2.068	785002	DISTRACT_END	n/a	n/a	n/a	n/a	-999	2	[0, 0, 0]	n/a	catFR1	0	R1495J
652.198	1.073	787070	REC_START	n/a	n/a	n/a	n/a	-999	2	[0, 0, 0]	n/a	catFR1	0	R1495J
653.271	0.49	788140	REC_WORD	1.073	n/a	LADLE	KitchenTools	11	2	[0, 0, 0]	n/a	catFR1	0	R1495J
653.761	2.14	788630	REC_WORD	1.563	n/a	SPOON	KitchenTools	6	2	[0, 0, 0]	n/a	catFR1	0	R1495J
655.901	3.185	790770	REC_WORD	3.703	n/a	WHISK	KitchenTools	12	2	[0, 0, 0]	n/a	catFR1	0	R1495J
659.086	23.325	793955	REC_WORD	6.888	n/a	FORK	n/a	-999	2	[0, 0, 0]	n/a	catFR1	0	R1495J
682.411	1.804	817280	REC_END	n/a	n/a	n/a	n/a	-999	2	[0, 0, 0]	n/a	catFR1	0	R1495J
684.215	10.35	819086	COUNTDOWN_START	n/a	n/a	n/a	n/a	-999	3	[0, 0, 0]	n/a	catFR1	0	R1495J
694.565	0.0	829438	COUNTDOWN_END	n/a	n/a	n/a	n/a	-999	3	[0, 0, 0]	n/a	catFR1	0	R1495J
694.565	2.034	829438	ENCODING_START	n/a	n/a	n/a	n/a	-999	3	[0, 0, 0]	n/a	catFR1	0	R1495J
696.599	1.616	831473	WORD	n/a	wordpools/wordpool_categorized_EN.txt	COUCH	Furniture	1	3	[0, 0, 0]	n/a	catFR1	0	R1495J
698.215	0.9	833088	WORD_OFF	n/a	n/a	COUCH	Furniture	1	3	[0, 0, 0]	n/a	catFR1	0	R1495J
699.115	1.6	833991	WORD	n/a	wordpools/wordpool_categorized_EN.txt	DRESSER	Furniture	2	3	[0, 0, 0]	n/a	catFR1	0	R1495J
700.715	0.984	835581	WORD_OFF	n/a	n/a	DRESSER	Furniture	2	3	[0, 0, 0]	n/a	catFR1	0	R1495J
701.699	1.616	836573	WORD	n/a	wordpools/wordpool_categorized_EN.txt	PAPER	OfficeSupplies	3	3	[0, 0, 0]	n/a	catFR1	0	R1495J
703.315	0.834	838188	WORD_OFF	n/a	n/a	PAPER	OfficeSupplies	3	3	[0, 0, 0]	n/a	catFR1	0	R1495J
704.149	1.6	839015	WORD	n/a	wordpools/wordpool_categorized_EN.txt	RULER	OfficeSupplies	4	3	[0, 0, 0]	n/a	catFR1	0	R1495J
705.749	0.883	840617	WORD_OFF	n/a	n/a	RULER	OfficeSupplies	4	3	[0, 0, 0]	n/a	catFR1	0	R1495J
706.632	1.6	841507	WORD	n/a	wordpools/wordpool_categorized_EN.txt	GOOSE	Birds	5	3	[0, 0, 0]	n/a	catFR1	0	R1495J
708.232	0.933	843097	WORD_OFF	n/a	n/a	GOOSE	Birds	5	3	[0, 0, 0]	n/a	catFR1	0	R1495J
709.165	1.6	844038	WORD	n/a	wordpools/wordpool_categorized_EN.txt	PIGEON	Birds	6	3	[0, 0, 0]	n/a	catFR1	0	R1495J
710.765	0.9	845641	WORD_OFF	n/a	n/a	PIGEON	Birds	6	3	[0, 0, 0]	n/a	catFR1	0	R1495J
711.665	1.6	846531	WORD	n/a	wordpools/wordpool_categorized_EN.txt	GLUE	OfficeSupplies	7	3	[0, 0, 0]	n/a	catFR1	0	R1495J
713.265	0.783	848133	WORD_OFF	n/a	n/a	GLUE	OfficeSupplies	7	3	[0, 0, 0]	n/a	catFR1	0	R1495J
714.048	1.6	848922	WORD	n/a	wordpools/wordpool_categorized_EN.txt	PENCIL	OfficeSupplies	8	3	[0, 0, 0]	n/a	catFR1	0	R1495J
715.648	0.866	850512	WORD_OFF	n/a	n/a	PENCIL	OfficeSupplies	8	3	[0, 0, 0]	n/a	catFR1	0	R1495J
716.514	1.601	851376	WORD	n/a	wordpools/wordpool_categorized_EN.txt	CHAIR	Furniture	9	3	[0, 0, 0]	n/a	catFR1	0	R1495J
718.115	0.882	852979	WORD_OFF	n/a	n/a	CHAIR	Furniture	9	3	[0, 0, 0]	n/a	catFR1	0	R1495J
718.997	1.601	853869	WORD	n/a	wordpools/wordpool_categorized_EN.txt	CABINET	Furniture	10	3	[0, 0, 0]	n/a	catFR1	0	R1495J
720.598	0.966	855472	WORD_OFF	n/a	n/a	CABINET	Furniture	10	3	[0, 0, 0]	n/a	catFR1	0	R1495J
721.564	1.601	856438	WORD	n/a	wordpools/wordpool_categorized_EN.txt	DOVE	Birds	11	3	[0, 0, 0]	n/a	catFR1	0	R1495J
723.165	0.8	858028	WORD_OFF	n/a	n/a	DOVE	Birds	11	3	[0, 0, 0]	n/a	catFR1	0	R1495J
723.965	1.6	858829	WORD	n/a	wordpools/wordpool_categorized_EN.txt	CROW	Birds	12	3	[0, 0, 0]	n/a	catFR1	0	R1495J
725.565	0.002	860432	WORD_OFF	n/a	n/a	CROW	Birds	12	3	[0, 0, 0]	n/a	catFR1	0	R1495J
725.567	0.0	860432	ENCODING_END	n/a	n/a	n/a	n/a	-999	3	[0, 0, 0]	n/a	catFR1	0	R1495J
725.566	0.001	860432	PROB	5.432	n/a	n/a	n/a	-999	3	[4, 4, 5]	13.0	catFR1	0	R1495J
725.567	0.0	860433	START	n/a	n/a	n/a	n/a	-999	3	[-999, -999, -999]	n/a	catFR1	0	R1495J
725.567	5.448	860444	DISTRACT_START	n/a	n/a	n/a	n/a	-999	3	[0, 0, 0]	n/a	catFR1	0	R1495J
731.015	5.433	865881	PROB	5.416	n/a	n/a	n/a	-999	3	[1, 8, 8]	17.0	catFR1	0	R1495J
736.448	3.2	871313	PROB	3.182	n/a	n/a	n/a	-999	3	[5, 1, 1]	7.0	catFR1	0	R1495J
739.648	4.784	874513	PROB	4.767	n/a	n/a	n/a	-999	3	[3, 8, 7]	18.0	catFR1	0	R1495J
744.432	2.915	879297	PROB	2.9	n/a	n/a	n/a	-999	3	[3, 2, 1]	6.0	catFR1	0	R1495J
747.347	0.0	882212	STOP	n/a	n/a	n/a	n/a	-999	3	[-999, -999, -999]	n/a	catFR1	0	R1495J
747.347	2.017	882217	DISTRACT_END	n/a	n/a	n/a	n/a	-999	3	[0, 0, 0]	n/a	catFR1	0	R1495J
749.364	0.93	884235	REC_START	n/a	n/a	n/a	n/a	-999	3	[0, 0, 0]	n/a	catFR1	0	R1495J
750.294	0.788	885159	REC_WORD	0.93	n/a	DOVE	Birds	11	3	[0, 0, 0]	n/a	catFR1	0	R1495J
751.082	13.056	885947	REC_WORD	1.718	n/a	CROW	Birds	12	3	[0, 0, 0]	n/a	catFR1	0	R1495J
764.138	15.442	899002	REC_WORD	14.774	n/a	CABINET	Furniture	10	3	[0, 0, 0]	n/a	catFR1	0	R1495J
779.58	2.085	914445	REC_END	n/a	n/a	n/a	n/a	-999	3	[0, 0, 0]	n/a	catFR1	0	R1495J
781.665	10.35	916530	COUNTDOWN_START	n/a	n/a	n/a	n/a	-999	4	[0, 0, 0]	n/a	catFR1	0	R1495J
792.015	0.0	926883	COUNTDOWN_END	n/a	n/a	n/a	n/a	-999	4	[0, 0, 0]	n/a	catFR1	0	R1495J
792.015	2.017	926883	ENCODING_START	n/a	n/a	n/a	n/a	-999	4	[0, 0, 0]	n/a	catFR1	0	R1495J
794.032	1.601	928892	WORD	n/a	wordpools/wordpool_categorized_EN.txt	CIDER	Beverages	1	4	[0, 0, 0]	n/a	catFR1	0	R1495J
795.633	0.766	930495	WORD_OFF	n/a	n/a	CIDER	Beverages	1	4	[0, 0, 0]	n/a	catFR1	0	R1495J
796.399	1.6	931271	WORD	n/a	wordpools/wordpool_categorized_EN.txt	COLA	Beverages	2	4	[0, 0, 0]	n/a	catFR1	0	R1495J
797.999	0.949	932860	WORD_OFF	n/a	n/a	COLA	Beverages	2	4	[0, 0, 0]	n/a	catFR1	0	R1495J
798.948	1.617	933814	WORD	n/a	wordpools/wordpool_categorized_EN.txt	LEG	BodyParts	3	4	[0, 0, 0]	n/a	catFR1	0	R1495J
800.565	0.782	935429	WORD_OFF	n/a	n/a	LEG	BodyParts	3	4	[0, 0, 0]	n/a	catFR1	0	R1495J
801.347	1.601	936218	WORD	n/a	wordpools/wordpool_categorized_EN.txt	NOSE	BodyParts	4	4	[0, 0, 0]	n/a	catFR1	0	R1495J
802.948	0.8	937808	WORD_OFF	n/a	n/a	NOSE	BodyParts	4	4	[0, 0, 0]	n/a	catFR1	0	R1495J
803.748	1.616	938609	WORD	n/a	wordpools/wordpool_categorized_EN.txt	STOVE	Appliances	5	4	[0, 0, 0]	n/a	catFR1	0	R1495J
805.364	1.001	940224	WORD_OFF	n/a	n/a	STOVE	Appliances	5	4	[0, 0, 0]	n/a	catFR1	0	R1495J
806.365	1.617	941229	WORD	n/a	wordpools/wordpool_categorized_EN.txt	FREEZER	Appliances	6	4	[0, 0, 0]	n/a	catFR1	0	R1495J
807.982	0.783	942844	WORD_OFF	n/a	n/a	FREEZER	Appliances	6	4	[0, 0, 0]	n/a	catFR1	0	R1495J
808.765	1.616	943632	WORD	n/a	wordpools/wordpool_categorized_EN.txt	COFFEE	Beverages	7	4	[0, 0, 0]	n/a	catFR1	0	R1495J
810.381	0.933	945248	WORD_OFF	n/a	n/a	COFFEE	Beverages	7	4	[0, 0, 0]	n/a	catFR1	0	R1495J
811.314	1.601	946176	WORD	n/a	wordpools/wordpool_categorized_EN.txt	WINE	Beverages	8	4	[0, 0, 0]	n/a	catFR1	0	R1495J
812.915	0.766	947778	WORD_OFF	n/a	n/a	WINE	Beverages	8	4	[0, 0, 0]	n/a	catFR1	0	R1495J
813.681	1.617	948542	WORD	n/a	wordpools/wordpool_categorized_EN.txt	TOE	BodyParts	9	4	[0, 0, 0]	n/a	catFR1	0	R1495J
815.298	0.966	950159	WORD_OFF	n/a	n/a	TOE	BodyParts	9	4	[0, 0, 0]	n/a	catFR1	0	R1495J
816.264	1.601	951123	WORD	n/a	wordpools/wordpool_categorized_EN.txt	ELBOW	BodyParts	10	4	[0, 0, 0]	n/a	catFR1	0	R1495J
817.865	0.9	952726	WORD_OFF	n/a	n/a	ELBOW	BodyParts	10	4	[0, 0, 0]	n/a	catFR1	0	R1495J
818.765	1.6	953629	WORD	n/a	wordpools/wordpool_categorized_EN.txt	MIXER	Appliances	11	4	[0, 0, 0]	n/a	catFR1	0	R1495J
820.365	1.0	955231	WORD_OFF	n/a	n/a	MIXER	Appliances	11	4	[0, 0, 0]	n/a	catFR1	0	R1495J
821.365	1.617	956223	WORD	n/a	wordpools/wordpool_categorized_EN.txt	REFRIGERATOR	Appliances	12	4	[0, 0, 0]	n/a	catFR1	0	R1495J
822.982	0.0	957844	START	n/a	n/a	n/a	n/a	-999	4	[-999, -999, -999]	n/a	catFR1	0	R1495J
822.982	0.0	957844	PROB	3.398	n/a	n/a	n/a	-999	4	[3, 4, 7]	14.0	catFR1	0	R1495J
822.981	0.001	957851	WORD_OFF	n/a	n/a	REFRIGERATOR	Appliances	12	4	[0, 0, 0]	n/a	catFR1	0	R1495J
822.982	0.0	957851	ENCODING_END	n/a	n/a	n/a	n/a	-999	4	[0, 0, 0]	n/a	catFR1	0	R1495J
822.982	3.416	957851	DISTRACT_START	n/a	n/a	n/a	n/a	-999	4	[0, 0, 0]	n/a	catFR1	0	R1495J
826.398	4.75	961260	PROB	4.732	n/a	n/a	n/a	-999	4	[5, 8, 3]	16.0	catFR1	0	R1495J
831.148	4.267	966010	PROB	4.25	n/a	n/a	n/a	-999	4	[2, 1, 5]	8.0	catFR1	0	R1495J
835.415	3.383	970276	PROB	3.366	n/a	n/a	n/a	-999	4	[4, 7, 6]	17.0	catFR1	0	R1495J
838.798	4.083	973659	PROB	4.066	n/a	n/a	n/a	-999	4	[5, 7, 3]	15.0	catFR1	0	R1495J
842.881	3.866	977742	PROB	3.85	n/a	n/a	n/a	-999	4	[1, 7, 4]	12.0	catFR1	0	R1495J
846.747	0.0	981608	DISTRACT_END	n/a	n/a	n/a	n/a	-999	4	[0, 0, 0]	n/a	catFR1	0	R1495J
846.747	2.1	981608	STOP	n/a	n/a	n/a	n/a	-999	4	[-999, -999, -999]	n/a	catFR1	0	R1495J
848.847	1.858	983715	REC_START	n/a	n/a	n/a	n/a	-999	4	[0, 0, 0]	n/a	catFR1	0	R1495J
850.705	0.672	985566	REC_WORD	1.858	n/a	FREEZER	Appliances	6	4	[0, 0, 0]	n/a	catFR1	0	R1495J
851.377	0.825	986238	REC_WORD	2.53	n/a	CABINET	Furniture	-999	4	[0, 0, 0]	n/a	catFR1	0	R1495J
852.202	2.867	987063	REC_WORD	3.355	n/a	STOVE	Appliances	5	4	[0, 0, 0]	n/a	catFR1	0	R1495J
855.069	23.991	989930	REC_WORD	6.222	n/a	SHOVEL	Tools	-999	4	[0, 0, 0]	n/a	catFR1	0	R1495J
879.06	1.773	1013924	REC_END	n/a	n/a	n/a	n/a	-999	4	[0, 0, 0]	n/a	catFR1	0	R1495J
880.833	10.349	1015692	COUNTDOWN_START	n/a	n/a	n/a	n/a	-999	5	[0, 0, 0]	n/a	catFR1	0	R1495J
891.182	0.0	1026045	COUNTDOWN_END	n/a	n/a	n/a	n/a	-999	5	[0, 0, 0]	n/a	catFR1	0	R1495J
891.182	2.167	1026045	ENCODING_START	n/a	n/a	n/a	n/a	-999	5	[0, 0, 0]	n/a	catFR1	0	R1495J
893.349	1.6	1028207	WORD	n/a	wordpools/wordpool_categorized_EN.txt	VIOLET	Flowers	1	5	[0, 0, 0]	n/a	catFR1	0	R1495J
894.949	0.967	1029809	WORD_OFF	n/a	n/a	VIOLET	Flowers	1	5	[0, 0, 0]	n/a	catFR1	0	R1495J
895.916	1.616	1030776	WORD	n/a	wordpools/wordpool_categorized_EN.txt	ORCHID	Flowers	2	5	[0, 0, 0]	n/a	catFR1	0	R1495J
897.532	0.967	1032391	WORD_OFF	n/a	n/a	ORCHID	Flowers	2	5	[0, 0, 0]	n/a	catFR1	0	R1495J
898.499	1.617	1033357	WORD	n/a	wordpools/wordpool_categorized_EN.txt	DUCK	Birds	3	5	[0, 0, 0]	n/a	catFR1	0	R1495J
900.116	0.949	1034973	WORD_OFF	n/a	n/a	DUCK	Birds	3	5	[0, 0, 0]	n/a	catFR1	0	R1495J
901.065	1.616	1035926	WORD	n/a	wordpools/wordpool_categorized_EN.txt	FINCH	Birds	4	5	[0, 0, 0]	n/a	catFR1	0	R1495J
902.681	0.901	1037542	WORD_OFF	n/a	n/a	FINCH	Birds	4	5	[0, 0, 0]	n/a	catFR1	0	R1495J
903.582	1.617	1038445	WORD	n/a	wordpools/wordpool_categorized_EN.txt	BIRCH	Trees	5	5	[0, 0, 0]	n/a	catFR1	0	R1495J
905.199	0.782	1040060	WORD_OFF	n/a	n/a	BIRCH	Trees	5	5	[0, 0, 0]	n/a	catFR1	0	R1495J
905.981	1.601	1040836	WORD	n/a	wordpools/wordpool_categorized_EN.txt	EVERGREEN	Trees	6	5	[0, 0, 0]	n/a	catFR1	0	R1495J
907.582	0.866	1042438	WORD_OFF	n/a	n/a	EVERGREEN	Trees	6	5	[0, 0, 0]	n/a	catFR1	0	R1495J
908.448	1.617	1043303	WORD	n/a	wordpools/wordpool_categorized_EN.txt	PETUNIA	Flowers	7	5	[0, 0, 0]	n/a	catFR1	0	R1495J
910.065	0.834	1044931	WORD_OFF	n/a	n/a	PETUNIA	Flowers	7	5	[0, 0, 0]	n/a	catFR1	0	R1495J
910.899	1.617	1045757	WORD	n/a	wordpools/wordpool_categorized_EN.txt	SUNFLOWER	Flowers	8	5	[0, 0, 0]	n/a	catFR1	0	R1495J
912.516	0.899	1047373	WORD_OFF	n/a	n/a	SUNFLOWER	Flowers	8	5	[0, 0, 0]	n/a	catFR1	0	R1495J
913.415	1.616	1048276	WORD	n/a	wordpools/wordpool_categorized_EN.txt	ELM	Trees	9	5	[0, 0, 0]	n/a	catFR1	0	R1495J
915.031	0.766	1049891	WORD_OFF	n/a	n/a	ELM	Trees	9	5	[0, 0, 0]	n/a	catFR1	0	R1495J
915.797	1.6	1050654	WORD	n/a	wordpools/wordpool_categorized_EN.txt	OAK	Trees	10	5	[0, 0, 0]	n/a	catFR1	0	R1495J
917.397	0.851	1052256	WORD_OFF	n/a	n/a	OAK	Trees	10	5	[0, 0, 0]	n/a	catFR1	0	R1495J
918.248	1.615	1053108	WORD	n/a	wordpools/wordpool_categorized_EN.txt	BLUEBIRD	Birds	11	5	[0, 0, 0]	n/a	catFR1	0	R1495J
919.863	0.868	1054724	WORD_OFF	n/a	n/a	BLUEBIRD	Birds	11	5	[0, 0, 0]	n/a	catFR1	0	R1495J
920.731	1.601	1055588	WORD	n/a	wordpools/wordpool_categorized_EN.txt	SPARROW	Birds	12	5	[0, 0, 0]	n/a	catFR1	0	R1495J
922.332	0.0	1057190	START	n/a	n/a	n/a	n/a	-999	5	[-999, -999, -999]	n/a	catFR1	0	R1495J
922.332	0.0	1057190	PROB	3.833	n/a	n/a	n/a	-999	5	[2, 1, 4]	7.0	catFR1	0	R1495J
922.331	0.001	1057191	WORD_OFF	n/a	n/a	SPARROW	Birds	12	5	[0, 0, 0]	n/a	catFR1	0	R1495J
922.332	0.0	1057191	ENCODING_END	n/a	n/a	n/a	n/a	-999	5	[0, 0, 0]	n/a	catFR1	0	R1495J
922.332	3.85	1057191	DISTRACT_START	n/a	n/a	n/a	n/a	-999	5	[0, 0, 0]	n/a	catFR1	0	R1495J
926.182	2.316	1061040	PROB	2.3	n/a	n/a	n/a	-999	5	[7, 3, 2]	12.0	catFR1	0	R1495J
928.498	4.05	1063356	PROB	4.033	n/a	n/a	n/a	-999	5	[3, 3, 4]	10.0	catFR1	0	R1495J
932.548	2.916	1067405	PROB	2.9	n/a	n/a	n/a	-999	5	[7, 3, 7]	17.0	catFR1	0	R1495J
935.464	4.317	1070321	PROB	4.3	n/a	n/a	n/a	-999	5	[1, 7, 6]	14.0	catFR1	0	R1495J
939.781	2.433	1074638	PROB	2.416	n/a	n/a	n/a	-999	5	[1, 3, 7]	11.0	catFR1	0	R1495J
942.214	2.834	1077071	PROB	2.817	n/a	n/a	n/a	-999	5	[8, 5, 2]	15.0	catFR1	0	R1495J
945.048	0.0	1079905	DISTRACT_END	n/a	n/a	n/a	n/a	-999	5	[0, 0, 0]	n/a	catFR1	0	R1495J
945.048	2.182	1079905	STOP	n/a	n/a	n/a	n/a	-999	5	[-999, -999, -999]	n/a	catFR1	0	R1495J
947.23	1.087	1082088	REC_START	n/a	n/a	n/a	n/a	-999	5	[0, 0, 0]	n/a	catFR1	0	R1495J
948.317	0.9	1083174	REC_WORD	1.087	n/a	ORCHID	Flowers	2	5	[0, 0, 0]	n/a	catFR1	0	R1495J
949.217	4.939	1084074	REC_WORD	1.987	n/a	ORCHID	Flowers	2	5	[0, 0, 0]	n/a	catFR1	0	R1495J
954.156	23.285	1089012	REC_WORD	6.926	n/a	SUNFLOWER	Flowers	8	5	[0, 0, 0]	n/a	catFR1	0	R1495J
977.441	1.591	1112298	REC_END	n/a	n/a	n/a	n/a	-999	5	[0, 0, 0]	n/a	catFR1	0	R1495J
979.032	10.35	1113887	COUNTDOWN_START	n/a	n/a	n/a	n/a	-999	6	[0, 0, 0]	n/a	catFR1	0	R1495J
989.382	0.0	1124240	COUNTDOWN_END	n/a	n/a	n/a	n/a	-999	6	[0, 0, 0]	n/a	catFR1	0	R1495J
989.382	2.067	1124240	ENCODING_START	n/a	n/a	n/a	n/a	-999	6	[0, 0, 0]	n/a	catFR1	0	R1495J
991.449	1.6	1126313	WORD	n/a	wordpools/wordpool_categorized_EN.txt	SPRUCE	Trees	1	6	[0, 0, 0]	n/a	catFR1	0	R1495J
993.049	0.798	1127903	WORD_OFF	n/a	n/a	SPRUCE	Trees	1	6	[0, 0, 0]	n/a	catFR1	0	R1495J
993.847	1.602	1128704	WORD	n/a	wordpools/wordpool_categorized_EN.txt	CYPRESS	Trees	2	6	[0, 0, 0]	n/a	catFR1	0	R1495J
995.449	0.915	1130306	WORD_OFF	n/a	n/a	CYPRESS	Trees	2	6	[0, 0, 0]	n/a	catFR1	0	R1495J
996.364	1.601	1131222	WORD	n/a	wordpools/wordpool_categorized_EN.txt	TRUMPET	Instruments	3	6	[0, 0, 0]	n/a	catFR1	0	R1495J
997.965	0.917	1132824	WORD_OFF	n/a	n/a	TRUMPET	Instruments	3	6	[0, 0, 0]	n/a	catFR1	0	R1495J
998.882	1.616	1133740	WORD	n/a	wordpools/wordpool_categorized_EN.txt	PIANO	Instruments	4	6	[0, 0, 0]	n/a	catFR1	0	R1495J
1000.498	0.867	1135355	WORD_OFF	n/a	n/a	PIANO	Instruments	4	6	[0, 0, 0]	n/a	catFR1	0	R1495J
1001.365	1.615	1136220	WORD	n/a	wordpools/wordpool_categorized_EN.txt	CAULIFLOWER	Vegetables	5	6	[0, 0, 0]	n/a	catFR1	0	R1495J
1002.98	0.884	1137835	WORD_OFF	n/a	n/a	CAULIFLOWER	Vegetables	5	6	[0, 0, 0]	n/a	catFR1	0	R1495J
1003.864	1.617	1138726	WORD	n/a	wordpools/wordpool_categorized_EN.txt	PEAS	Vegetables	6	6	[0, 0, 0]	n/a	catFR1	0	R1495J
1005.481	0.884	1140341	WORD_OFF	n/a	n/a	PEAS	Vegetables	6	6	[0, 0, 0]	n/a	catFR1	0	R1495J
1006.365	1.616	1141218	WORD	n/a	wordpools/wordpool_categorized_EN.txt	MAPLE	Trees	7	6	[0, 0, 0]	n/a	catFR1	0	R1495J
1007.981	0.8	1142833	WORD_OFF	n/a	n/a	MAPLE	Trees	7	6	[0, 0, 0]	n/a	catFR1	0	R1495J
1008.781	1.601	1143635	WORD	n/a	wordpools/wordpool_categorized_EN.txt	CEDAR	Trees	8	6	[0, 0, 0]	n/a	catFR1	0	R1495J
1010.382	1.0	1145237	WORD_OFF	n/a	n/a	CEDAR	Trees	8	6	[0, 0, 0]	n/a	catFR1	0	R1495J
1011.382	1.615	1146242	WORD	n/a	wordpools/wordpool_categorized_EN.txt	BASS	Instruments	9	6	[0, 0, 0]	n/a	catFR1	0	R1495J
1012.997	0.918	1147857	WORD_OFF	n/a	n/a	BASS	Instruments	9	6	[0, 0, 0]	n/a	catFR1	0	R1495J
1013.915	1.616	1148773	WORD	n/a	wordpools/wordpool_categorized_EN.txt	CELLO	Instruments	10	6	[0, 0, 0]	n/a	catFR1	0	R1495J
1015.531	0.967	1150388	WORD_OFF	n/a	n/a	CELLO	Instruments	10	6	[0, 0, 0]	n/a	catFR1	0	R1495J
1016.498	1.615	1151354	WORD	n/a	wordpools/wordpool_categorized_EN.txt	SPINACH	Vegetables	11	6	[0, 0, 0]	n/a	catFR1	0	R1495J
1018.113	0.802	1152970	WORD_OFF	n/a	n/a	SPINACH	Vegetables	11	6	[0, 0, 0]	n/a	catFR1	0	R1495J
1018.915	1.6	1153771	WORD	n/a	wordpools/wordpool_categorized_EN.txt	CUCUMBER	Vegetables	12	6	[0, 0, 0]	n/a	catFR1	0	R1495J
1020.515	0.003	1155369	PROB	4.948	n/a	n/a	n/a	-999	6	[2, 4, 5]	11.0	catFR1	0	R1495J
1020.518	0.0	1155372	START	n/a	n/a	n/a	n/a	-999	6	[-999, -999, -999]	n/a	catFR1	0	R1495J
1020.515	0.003	1155373	WORD_OFF	n/a	n/a	CUCUMBER	Vegetables	12	6	[0, 0, 0]	n/a	catFR1	0	R1495J
1020.518	0.0	1155373	ENCODING_END	n/a	n/a	n/a	n/a	-999	6	[0, 0, 0]	n/a	catFR1	0	R1495J
1020.518	4.963	1155373	DISTRACT_START	n/a	n/a	n/a	n/a	-999	6	[0, 0, 0]	n/a	catFR1	0	R1495J
1025.481	3.534	1160335	PROB	3.517	n/a	n/a	n/a	-999	6	[2, 4, 2]	8.0	catFR1	0	R1495J
1029.015	3.367	1163868	PROB	3.351	n/a	n/a	n/a	-999	6	[3, 2, 6]	11.0	catFR1	0	R1495J
1032.382	4.999	1167235	PROB	4.982	n/a	n/a	n/a	-999	6	[4, 5, 3]	12.0	catFR1	0	R1495J
1037.381	4.866	1172234	PROB	4.85	n/a	n/a	n/a	-999	6	[7, 8, 6]	21.0	catFR1	0	R1495J
1042.247	0.0	1177100	STOP	n/a	n/a	n/a	n/a	-999	6	[-999, -999, -999]	n/a	catFR1	0	R1495J
1042.247	2.35	1177108	DISTRACT_END	n/a	n/a	n/a	n/a	-999	6	[0, 0, 0]	n/a	catFR1	0	R1495J
1044.597	0.918	1179456	REC_START	n/a	n/a	n/a	n/a	-999	6	[0, 0, 0]	n/a	catFR1	0	R1495J
1045.515	0.552	1180368	REC_WORD	0.918	n/a	CELLO	Instruments	10	6	[0, 0, 0]	n/a	catFR1	0	R1495J
1046.067	4.612	1180920	REC_WORD	1.47	n/a	PIANO	Instruments	4	6	[0, 0, 0]	n/a	catFR1	0	R1495J
1050.679	7.903	1185532	REC_WORD	6.082	n/a	CUCUMBER	Vegetables	12	6	[0, 0, 0]	n/a	catFR1	0	R1495J
1058.582	1.682	1193434	REC_WORD	13.985	n/a	BASS	Instruments	9	6	[0, 0, 0]	n/a	catFR1	0	R1495J
1060.264	5.657	1195116	REC_WORD	15.667	n/a	CLARINET	n/a	-999	6	[0, 0, 0]	n/a	catFR1	0	R1495J
1065.921	8.915	1200773	REC_WORD	21.324	n/a	TRUMPET	Instruments	3	6	[0, 0, 0]	n/a	catFR1	0	R1495J
1074.836	1.512	1209692	REC_END	n/a	n/a	n/a	n/a	-999	6	[0, 0, 0]	n/a	catFR1	0	R1495J
1076.348	10.35	1211205	COUNTDOWN_START	n/a	n/a	n/a	n/a	-999	7	[0, 0, 0]	n/a	catFR1	0	R1495J
1086.698	0.0	1221557	COUNTDOWN_END	n/a	n/a	n/a	n/a	-999	7	[0, 0, 0]	n/a	catFR1	0	R1495J
1086.698	2.167	1221557	ENCODING_START	n/a	n/a	n/a	n/a	-999	7	[0, 0, 0]	n/a	catFR1	0	R1495J
1088.865	1.599	1223720	WORD	n/a	wordpools/wordpool_categorized_EN.txt	TULIP	Flowers	1	7	[0, 0, 0]	n/a	catFR1	0	R1495J
1090.464	1.002	1225322	WORD_OFF	n/a	n/a	TULIP	Flowers	1	7	[0, 0, 0]	n/a	catFR1	0	R1495J
1091.466	1.616	1226314	WORD	n/a	wordpools/wordpool_categorized_EN.txt	ROSE	Flowers	2	7	[0, 0, 0]	n/a	catFR1	0	R1495J
1093.082	0.817	1227942	WORD_OFF	n/a	n/a	ROSE	Flowers	2	7	[0, 0, 0]	n/a	catFR1	0	R1495J
1093.899	1.616	1228756	WORD	n/a	wordpools/wordpool_categorized_EN.txt	RADIO	Electronics	3	7	[0, 0, 0]	n/a	catFR1	0	R1495J
1095.515	0.933	1230371	WORD_OFF	n/a	n/a	RADIO	Electronics	3	7	[0, 0, 0]	n/a	catFR1	0	R1495J
1096.448	1.6	1231299	WORD	n/a	wordpools/wordpool_categorized_EN.txt	COMPUTER	Electronics	4	7	[0, 0, 0]	n/a	catFR1	0	R1495J
1098.048	0.933	1232902	WORD_OFF	n/a	n/a	COMPUTER	Electronics	4	7	[0, 0, 0]	n/a	catFR1	0	R1495J
1098.981	1.6	1233830	WORD	n/a	wordpools/wordpool_categorized_EN.txt	STAPLER	OfficeSupplies	5	7	[0, 0, 0]	n/a	catFR1	0	R1495J
1100.581	0.782	1235433	WORD_OFF	n/a	n/a	STAPLER	OfficeSupplies	5	7	[0, 0, 0]	n/a	catFR1	0	R1495J
1101.363	1.602	1236221	WORD	n/a	wordpools/wordpool_categorized_EN.txt	TAPE	OfficeSupplies	6	7	[0, 0, 0]	n/a	catFR1	0	R1495J
1102.965	0.866	1237824	WORD_OFF	n/a	n/a	TAPE	OfficeSupplies	6	7	[0, 0, 0]	n/a	catFR1	0	R1495J
1103.831	1.616	1238689	WORD	n/a	wordpools/wordpool_categorized_EN.txt	DAFFODIL	Flowers	7	7	[0, 0, 0]	n/a	catFR1	0	R1495J
1105.447	0.985	1240304	WORD_OFF	n/a	n/a	DAFFODIL	Flowers	7	7	[0, 0, 0]	n/a	catFR1	0	R1495J
1106.432	1.617	1241283	WORD	n/a	wordpools/wordpool_categorized_EN.txt	LILAC	Flowers	8	7	[0, 0, 0]	n/a	catFR1	0	R1495J
1108.049	0.766	1242898	WORD_OFF	n/a	n/a	LILAC	Flowers	8	7	[0, 0, 0]	n/a	catFR1	0	R1495J
1108.815	1.599	1243664	WORD	n/a	wordpools/wordpool_categorized_EN.txt	SPEAKER	Electronics	9	7	[0, 0, 0]	n/a	catFR1	0	R1495J
1110.414	0.785	1245264	WORD_OFF	n/a	n/a	SPEAKER	Electronics	9	7	[0, 0, 0]	n/a	catFR1	0	R1495J
1111.199	1.614	1246052	WORD	n/a	wordpools/wordpool_categorized_EN.txt	MICROWAVE	Electronics	10	7	[0, 0, 0]	n/a	catFR1	0	R1495J
1112.813	0.786	1247667	WORD_OFF	n/a	n/a	MICROWAVE	Electronics	10	7	[0, 0, 0]	n/a	catFR1	0	R1495J
1113.599	1.615	1248456	WORD	n/a	wordpools/wordpool_categorized_EN.txt	NOTEBOOK	OfficeSupplies	11	7	[0, 0, 0]	n/a	catFR1	0	R1495J
1115.214	0.801	1250071	WORD_OFF	n/a	n/a	NOTEBOOK	OfficeSupplies	11	7	[0, 0, 0]	n/a	catFR1	0	R1495J
1116.015	1.601	1250872	WORD	n/a	wordpools/wordpool_categorized_EN.txt	PEN	OfficeSupplies	12	7	[0, 0, 0]	n/a	catFR1	0	R1495J
1117.616	0.0	1252462	WORD_OFF	n/a	n/a	PEN	OfficeSupplies	12	7	[0, 0, 0]	n/a	catFR1	0	R1495J
1117.616	0.001	1252466	PROB	2.633	n/a	n/a	n/a	-999	7	[1, 5, 1]	7.0	catFR1	0	R1495J
1117.617	0.0	1252467	START	n/a	n/a	n/a	n/a	-999	7	[-999, -999, -999]	n/a	catFR1	0	R1495J
1117.617	0.0	1252475	ENCODING_END	n/a	n/a	n/a	n/a	-999	7	[0, 0, 0]	n/a	catFR1	0	R1495J
1117.617	2.648	1252475	DISTRACT_START	n/a	n/a	n/a	n/a	-999	7	[0, 0, 0]	n/a	catFR1	0	R1495J
1120.265	4.367	1255115	PROB	4.349	n/a	n/a	n/a	-999	7	[6, 7, 6]	19.0	catFR1	0	R1495J
1124.632	3.949	1259481	PROB	3.933	n/a	n/a	n/a	-999	7	[4, 1, 7]	12.0	catFR1	0	R1495J
1128.581	3.601	1263430	PROB	3.583	n/a	n/a	n/a	-999	7	[1, 6, 7]	14.0	catFR1	0	R1495J
1132.182	2.299	1267031	PROB	2.282	n/a	n/a	n/a	-999	7	[1, 6, 1]	8.0	catFR1	0	R1495J
1134.481	3.101	1269330	PROB	3.082	n/a	n/a	n/a	-999	7	[1, 8, 4]	13.0	catFR1	0	R1495J
1137.582	4.148	1272431	PROB	4.133	n/a	n/a	n/a	-999	7	[1, 7, 5]	13.0	catFR1	0	R1495J
1141.73	0.0	1276575	DISTRACT_END	n/a	n/a	n/a	n/a	-999	7	[0, 0, 0]	n/a	catFR1	0	R1495J
1141.73	2.301	1276579	STOP	n/a	n/a	n/a	n/a	-999	7	[-999, -999, -999]	n/a	catFR1	0	R1495J
1144.031	1.074	1278885	REC_START	n/a	n/a	n/a	n/a	-999	7	[0, 0, 0]	n/a	catFR1	0	R1495J
1145.105	3.964	1279954	REC_WORD	1.074	n/a	LILAC	Flowers	8	7	[0, 0, 0]	n/a	catFR1	0	R1495J
1149.069	4.523	1283917	REC_WORD	5.038	n/a	PEN	OfficeSupplies	12	7	[0, 0, 0]	n/a	catFR1	0	R1495J
1153.592	5.594	1288440	REC_WORD	9.561	n/a	CAULIFLOWER	Vegetables	-999	7	[0, 0, 0]	n/a	catFR1	0	R1495J
1159.186	15.072	1294034	REC_WORD	15.155	n/a	NOTEBOOK	OfficeSupplies	11	7	[0, 0, 0]	n/a	catFR1	0	R1495J
1174.258	1.757	1309108	REC_END	n/a	n/a	n/a	n/a	-999	7	[0, 0, 0]	n/a	catFR1	0	R1495J
1176.015	10.349	1310863	COUNTDOWN_START	n/a	n/a	n/a	n/a	-999	8	[0, 0, 0]	n/a	catFR1	0	R1495J
1186.364	0.0	1321215	COUNTDOWN_END	n/a	n/a	n/a	n/a	-999	8	[0, 0, 0]	n/a	catFR1	0	R1495J
1186.364	1.918	1321215	ENCODING_START	n/a	n/a	n/a	n/a	-999	8	[0, 0, 0]	n/a	catFR1	0	R1495J
1188.282	1.6	1323136	WORD	n/a	wordpools/wordpool_categorized_EN.txt	BLOUSE	Clothing	1	8	[0, 0, 0]	n/a	catFR1	0	R1495J
1189.882	0.799	1324725	WORD_OFF	n/a	n/a	BLOUSE	Clothing	1	8	[0, 0, 0]	n/a	catFR1	0	R1495J
1190.681	1.6	1325527	WORD	n/a	wordpools/wordpool_categorized_EN.txt	SHORTS	Clothing	2	8	[0, 0, 0]	n/a	catFR1	0	R1495J
1192.281	0.983	1327129	WORD_OFF	n/a	n/a	SHORTS	Clothing	2	8	[0, 0, 0]	n/a	catFR1	0	R1495J
1193.264	1.601	1328108	WORD	n/a	wordpools/wordpool_categorized_EN.txt	MILK	Beverages	3	8	[0, 0, 0]	n/a	catFR1	0	R1495J
1194.865	0.833	1329711	WORD_OFF	n/a	n/a	MILK	Beverages	3	8	[0, 0, 0]	n/a	catFR1	0	R1495J
1195.698	1.617	1330550	WORD	n/a	wordpools/wordpool_categorized_EN.txt	RUM	Beverages	4	8	[0, 0, 0]	n/a	catFR1	0	R1495J
1197.315	0.933	1332165	WORD_OFF	n/a	n/a	RUM	Beverages	4	8	[0, 0, 0]	n/a	catFR1	0	R1495J
1198.248	1.601	1333094	WORD	n/a	wordpools/wordpool_categorized_EN.txt	CRAB	OceanAnimals	5	8	[0, 0, 0]	n/a	catFR1	0	R1495J
1199.849	0.933	1334696	WORD_OFF	n/a	n/a	CRAB	OceanAnimals	5	8	[0, 0, 0]	n/a	catFR1	0	R1495J
1200.782	1.616	1335637	WORD	n/a	wordpools/wordpool_categorized_EN.txt	OYSTER	OceanAnimals	6	8	[0, 0, 0]	n/a	catFR1	0	R1495J
1202.398	0.784	1337253	WORD_OFF	n/a	n/a	OYSTER	OceanAnimals	6	8	[0, 0, 0]	n/a	catFR1	0	R1495J
1203.182	1.616	1338028	WORD	n/a	wordpools/wordpool_categorized_EN.txt	JEANS	Clothing	7	8	[0, 0, 0]	n/a	catFR1	0	R1495J
1204.798	1.001	1339644	WORD_OFF	n/a	n/a	JEANS	Clothing	7	8	[0, 0, 0]	n/a	catFR1	0	R1495J
1205.799	1.615	1340648	WORD	n/a	wordpools/wordpool_categorized_EN.txt	SHOES	Clothing	8	8	[0, 0, 0]	n/a	catFR1	0	R1495J
1207.414	0.901	1342263	WORD_OFF	n/a	n/a	SHOES	Clothing	8	8	[0, 0, 0]	n/a	catFR1	0	R1495J
1208.315	1.6	1343166	WORD	n/a	wordpools/wordpool_categorized_EN.txt	FISH	OceanAnimals	9	8	[0, 0, 0]	n/a	catFR1	0	R1495J
1209.915	0.867	1344769	WORD_OFF	n/a	n/a	FISH	OceanAnimals	9	8	[0, 0, 0]	n/a	catFR1	0	R1495J
1210.782	1.616	1345634	WORD	n/a	wordpools/wordpool_categorized_EN.txt	SQUID	OceanAnimals	10	8	[0, 0, 0]	n/a	catFR1	0	R1495J
1212.398	0.915	1347249	WORD_OFF	n/a	n/a	SQUID	OceanAnimals	10	8	[0, 0, 0]	n/a	catFR1	0	R1495J
1213.313	1.602	1348165	WORD	n/a	wordpools/wordpool_categorized_EN.txt	TEA	Beverages	11	8	[0, 0, 0]	n/a	catFR1	0	R1495J
1214.915	0.867	1349767	WORD_OFF	n/a	n/a	TEA	Beverages	11	8	[0, 0, 0]	n/a	catFR1	0	R1495J
1215.782	1.616	1350632	WORD	n/a	wordpools/wordpool_categorized_EN.txt	JUICE	Beverages	12	8	[0, 0, 0]	n/a	catFR1	0	R1495J
1217.398	0.001	1352244	PROB	7.149	n/a	n/a	n/a	-999	8	[6, 5, 7]	18.0	catFR1	0	R1495J
1217.399	0.0	1352245	START	n/a	n/a	n/a	n/a	-999	8	[-999, -999, -999]	n/a	catFR1	0	R1495J
1217.398	0.001	1352247	WORD_OFF	n/a	n/a	JUICE	Beverages	12	8	[0, 0, 0]	n/a	catFR1	0	R1495J
1217.399	0.0	1352247	ENCODING_END	n/a	n/a	n/a	n/a	-999	8	[0, 0, 0]	n/a	catFR1	0	R1495J
1217.399	7.166	1352247	DISTRACT_START	n/a	n/a	n/a	n/a	-999	8	[0, 0, 0]	n/a	catFR1	0	R1495J
1224.565	3.932	1359410	PROB	3.916	n/a	n/a	n/a	-999	8	[5, 4, 6]	15.0	catFR1	0	R1495J
1228.497	3.752	1363342	PROB	3.734	n/a	n/a	n/a	-999	8	[3, 5, 8]	16.0	catFR1	0	R1495J
1232.249	2.382	1367094	PROB	2.365	n/a	n/a	n/a	-999	8	[5, 1, 1]	7.0	catFR1	0	R1495J
1234.631	2.3	1369476	PROB	2.284	n/a	n/a	n/a	-999	8	[4, 4, 4]	12.0	catFR1	0	R1495J
1236.931	3.6	1371776	PROB	3.583	n/a	n/a	n/a	-999	8	[7, 5, 1]	13.0	catFR1	0	R1495J
1240.531	0.0	1375376	STOP	n/a	n/a	n/a	n/a	-999	8	[-999, -999, -999]	n/a	catFR1	0	R1495J
1240.531	2.316	1375381	DISTRACT_END	n/a	n/a	n/a	n/a	-999	8	[0, 0, 0]	n/a	catFR1	0	R1495J
1242.847	2.74	1377691	REC_START	n/a	n/a	n/a	n/a	-999	8	[0, 0, 0]	n/a	catFR1	0	R1495J
1245.587	2.086	1380432	REC_WORD	2.74	n/a	OYSTER	OceanAnimals	6	8	[0, 0, 0]	n/a	catFR1	0	R1495J
1247.673	1.128	1382517	REC_WORD	4.826	n/a	PEAS	Vegetables	-999	8	[0, 0, 0]	n/a	catFR1	0	R1495J
1248.801	7.57	1383645	REC_WORD	5.954	n/a	FISH	OceanAnimals	9	8	[0, 0, 0]	n/a	catFR1	0	R1495J
1256.371	3.682	1391215	REC_WORD	13.524	n/a	CLAMS	n/a	-999	8	[0, 0, 0]	n/a	catFR1	0	R1495J
1260.053	3.734	1394897	REC_WORD	17.206	n/a	BLOUSE	Clothing	1	8	[0, 0, 0]	n/a	catFR1	0	R1495J
1263.787	9.291	1398631	REC_WORD	20.94	n/a	SHORTS	Clothing	2	8	[0, 0, 0]	n/a	catFR1	0	R1495J
1273.078	1.471	1407926	REC_END	n/a	n/a	n/a	n/a	-999	8	[0, 0, 0]	n/a	catFR1	0	R1495J
1274.549	10.35	1409401	COUNTDOWN_START	n/a	n/a	n/a	n/a	-999	9	[0, 0, 0]	n/a	catFR1	0	R1495J
1284.899	0.0	1419741	COUNTDOWN_END	n/a	n/a	n/a	n/a	-999	9	[0, 0, 0]	n/a	catFR1	0	R1495J
1284.899	2.031	1419741	ENCODING_START	n/a	n/a	n/a	n/a	-999	9	[0, 0, 0]	n/a	catFR1	0	R1495J
1286.93	1.602	1421776	WORD	n/a	wordpools/wordpool_categorized_EN.txt	LOBSTER	OceanAnimals	1	9	[0, 0, 0]	n/a	catFR1	0	R1495J
1288.532	0.884	1423378	WORD_OFF	n/a	n/a	LOBSTER	OceanAnimals	1	9	[0, 0, 0]	n/a	catFR1	0	R1495J
1289.416	1.599	1424256	WORD	n/a	wordpools/wordpool_categorized_EN.txt	OCTOPUS	OceanAnimals	2	9	[0, 0, 0]	n/a	catFR1	0	R1495J
1291.015	0.984	1425858	WORD_OFF	n/a	n/a	OCTOPUS	OceanAnimals	2	9	[0, 0, 0]	n/a	catFR1	0	R1495J
1291.999	1.616	1426850	WORD	n/a	wordpools/wordpool_categorized_EN.txt	SKIRT	Clothing	3	9	[0, 0, 0]	n/a	catFR1	0	R1495J
1293.615	0.766	1428466	WORD_OFF	n/a	n/a	SKIRT	Clothing	3	9	[0, 0, 0]	n/a	catFR1	0	R1495J
1294.381	1.617	1429229	WORD	n/a	wordpools/wordpool_categorized_EN.txt	PANTS	Clothing	4	9	[0, 0, 0]	n/a	catFR1	0	R1495J
1295.998	0.933	1430844	WORD_OFF	n/a	n/a	PANTS	Clothing	4	9	[0, 0, 0]	n/a	catFR1	0	R1495J
1296.931	1.6	1431772	WORD	n/a	wordpools/wordpool_categorized_EN.txt	CARNATION	Flowers	5	9	[0, 0, 0]	n/a	catFR1	0	R1495J
1298.531	0.85	1433375	WORD_OFF	n/a	n/a	CARNATION	Flowers	5	9	[0, 0, 0]	n/a	catFR1	0	R1495J
1299.381	1.617	1434227	WORD	n/a	wordpools/wordpool_categorized_EN.txt	LILY	Flowers	6	9	[0, 0, 0]	n/a	catFR1	0	R1495J
1300.998	0.866	1435842	WORD_OFF	n/a	n/a	LILY	Flowers	6	9	[0, 0, 0]	n/a	catFR1	0	R1495J
1301.864	1.617	1436707	WORD	n/a	wordpools/wordpool_categorized_EN.txt	JACKET	Clothing	7	9	[0, 0, 0]	n/a	catFR1	0	R1495J
1303.481	0.899	1438322	WORD_OFF	n/a	n/a	JACKET	Clothing	7	9	[0, 0, 0]	n/a	catFR1	0	R1495J
1304.38	1.6	1439225	WORD	n/a	wordpools/wordpool_categorized_EN.txt	DRESS	Clothing	8	9	[0, 0, 0]	n/a	catFR1	0	R1495J
1305.98	0.917	1440827	WORD_OFF	n/a	n/a	DRESS	Clothing	8	9	[0, 0, 0]	n/a	catFR1	0	R1495J
1306.897	1.601	1441743	WORD	n/a	wordpools/wordpool_categorized_EN.txt	MARIGOLD	Flowers	9	9	[0, 0, 0]	n/a	catFR1	0	R1495J
1308.498	0.783	1443346	WORD_OFF	n/a	n/a	MARIGOLD	Flowers	9	9	[0, 0, 0]	n/a	catFR1	0	R1495J
1309.281	1.618	1444121	WORD	n/a	wordpools/wordpool_categorized_EN.txt	DAISY	Flowers	10	9	[0, 0, 0]	n/a	catFR1	0	R1495J
1310.899	0.831	1445749	WORD_OFF	n/a	n/a	DAISY	Flowers	10	9	[0, 0, 0]	n/a	catFR1	0	R1495J
1311.73	1.602	1446576	WORD	n/a	wordpools/wordpool_categorized_EN.txt	PLANKTON	OceanAnimals	11	9	[0, 0, 0]	n/a	catFR1	0	R1495J
1313.332	0.765	1448178	WORD_OFF	n/a	n/a	PLANKTON	OceanAnimals	11	9	[0, 0, 0]	n/a	catFR1	0	R1495J
1314.097	1.617	1448941	WORD	n/a	wordpools/wordpool_categorized_EN.txt	JELLYFISH	OceanAnimals	12	9	[0, 0, 0]	n/a	catFR1	0	R1495J
1315.714	0.002	1450557	WORD_OFF	n/a	n/a	JELLYFISH	OceanAnimals	12	9	[0, 0, 0]	n/a	catFR1	0	R1495J
1315.716	0.0	1450557	ENCODING_END	n/a	n/a	n/a	n/a	-999	9	[0, 0, 0]	n/a	catFR1	0	R1495J
1315.715	0.001	1450557	PROB	3.782	n/a	n/a	n/a	-999	9	[8, 2, 5]	15.0	catFR1	0	R1495J
1315.716	0.0	1450558	START	n/a	n/a	n/a	n/a	-999	9	[-999, -999, -999]	n/a	catFR1	0	R1495J
1315.716	3.799	1450569	DISTRACT_START	n/a	n/a	n/a	n/a	-999	9	[0, 0, 0]	n/a	catFR1	0	R1495J
1319.515	5.783	1454356	PROB	5.766	n/a	n/a	n/a	-999	9	[4, 4, 7]	15.0	catFR1	0	R1495J
1325.298	2.717	1460139	PROB	2.7	n/a	n/a	n/a	-999	9	[2, 1, 5]	8.0	catFR1	0	R1495J
1328.015	4.515	1462856	PROB	4.501	n/a	n/a	n/a	-999	9	[7, 6, 8]	21.0	catFR1	0	R1495J
1332.53	3.168	1467371	PROB	3.151	n/a	n/a	n/a	-999	9	[6, 2, 3]	11.0	catFR1	0	R1495J
1335.698	4.415	1470539	PROB	4.399	n/a	n/a	n/a	-999	9	[8, 6, 7]	21.0	catFR1	0	R1495J
1340.113	0.0	1474954	STOP	n/a	n/a	n/a	n/a	-999	9	[-999, -999, -999]	n/a	catFR1	0	R1495J
1340.113	2.285	1474962	DISTRACT_END	n/a	n/a	n/a	n/a	-999	9	[0, 0, 0]	n/a	catFR1	0	R1495J
1342.398	0.833	1477247	REC_START	n/a	n/a	n/a	n/a	-999	9	[0, 0, 0]	n/a	catFR1	0	R1495J
1343.231	0.852	1478071	REC_WORD	0.833	n/a	OYSTER	OceanAnimals	-999	9	[0, 0, 0]	n/a	catFR1	0	R1495J
1344.083	1.614	1478923	REC_WORD	1.685	n/a	PANTS	Clothing	4	9	[0, 0, 0]	n/a	catFR1	0	R1495J
1345.697	2.289	1480537	REC_WORD	3.299	n/a	SKIRT	Clothing	3	9	[0, 0, 0]	n/a	catFR1	0	R1495J
1347.986	4.586	1482826	REC_WORD	5.588	n/a	LOBSTER	OceanAnimals	1	9	[0, 0, 0]	n/a	catFR1	0	R1495J
1352.572	3.123	1487412	REC_WORD	10.174	n/a	MARIGOLD	Flowers	9	9	[0, 0, 0]	n/a	catFR1	0	R1495J
1355.695	16.938	1490535	REC_WORD	13.297	n/a	CARNATION	Flowers	5	9	[0, 0, 0]	n/a	catFR1	0	R1495J
1372.633	1.633	1507482	REC_END	n/a	n/a	n/a	n/a	-999	9	[0, 0, 0]	n/a	catFR1	0	R1495J
1374.266	10.349	1509110	COUNTDOWN_START	n/a	n/a	n/a	n/a	-999	10	[0, 0, 0]	n/a	catFR1	0	R1495J
1384.615	0.0	1519462	COUNTDOWN_END	n/a	n/a	n/a	n/a	-999	10	[0, 0, 0]	n/a	catFR1	0	R1495J
1384.615	2.3	1519462	ENCODING_START	n/a	n/a	n/a	n/a	-999	10	[0, 0, 0]	n/a	catFR1	0	R1495J
1386.915	1.616	1521752	WORD	n/a	wordpools/wordpool_categorized_EN.txt	CHERRY	Fruit	1	10	[0, 0, 0]	n/a	catFR1	0	R1495J
1388.531	0.817	1523367	WORD_OFF	n/a	n/a	CHERRY	Fruit	1	10	[0, 0, 0]	n/a	catFR1	0	R1495J
1389.348	1.617	1524194	WORD	n/a	wordpools/wordpool_categorized_EN.txt	BANANA	Fruit	2	10	[0, 0, 0]	n/a	catFR1	0	R1495J
1390.965	0.883	1525809	WORD_OFF	n/a	n/a	BANANA	Fruit	2	10	[0, 0, 0]	n/a	catFR1	0	R1495J
1391.848	1.616	1526686	WORD	n/a	wordpools/wordpool_categorized_EN.txt	BOOKCASE	Furniture	3	10	[0, 0, 0]	n/a	catFR1	0	R1495J
1393.464	0.951	1528301	WORD_OFF	n/a	n/a	BOOKCASE	Furniture	3	10	[0, 0, 0]	n/a	catFR1	0	R1495J
1394.415	1.6	1529255	WORD	n/a	wordpools/wordpool_categorized_EN.txt	SOFA	Furniture	4	10	[0, 0, 0]	n/a	catFR1	0	R1495J
1396.015	0.932	1530858	WORD_OFF	n/a	n/a	SOFA	Furniture	4	10	[0, 0, 0]	n/a	catFR1	0	R1495J
1396.947	1.601	1531786	WORD	n/a	wordpools/wordpool_categorized_EN.txt	PHONE	Electronics	5	10	[0, 0, 0]	n/a	catFR1	0	R1495J
1398.548	0.85	1533389	WORD_OFF	n/a	n/a	PHONE	Electronics	5	10	[0, 0, 0]	n/a	catFR1	0	R1495J
1399.398	1.616	1534241	WORD	n/a	wordpools/wordpool_categorized_EN.txt	STEREO	Electronics	6	10	[0, 0, 0]	n/a	catFR1	0	R1495J
1401.014	0.984	1535856	WORD_OFF	n/a	n/a	STEREO	Electronics	6	10	[0, 0, 0]	n/a	catFR1	0	R1495J
1401.998	1.601	1536835	WORD	n/a	wordpools/wordpool_categorized_EN.txt	SHELF	Furniture	7	10	[0, 0, 0]	n/a	catFR1	0	R1495J
1403.599	0.833	1538438	WORD_OFF	n/a	n/a	SHELF	Furniture	7	10	[0, 0, 0]	n/a	catFR1	0	R1495J
1404.432	1.616	1539277	WORD	n/a	wordpools/wordpool_categorized_EN.txt	TABLE	Furniture	8	10	[0, 0, 0]	n/a	catFR1	0	R1495J
1406.048	0.833	1540892	WORD_OFF	n/a	n/a	TABLE	Furniture	8	10	[0, 0, 0]	n/a	catFR1	0	R1495J
1406.881	1.601	1541719	WORD	n/a	wordpools/wordpool_categorized_EN.txt	CALCULATOR	Electronics	9	10	[0, 0, 0]	n/a	catFR1	0	R1495J
1408.482	0.766	1543321	WORD_OFF	n/a	n/a	CALCULATOR	Electronics	9	10	[0, 0, 0]	n/a	catFR1	0	R1495J
1409.248	1.616	1544084	WORD	n/a	wordpools/wordpool_categorized_EN.txt	TELEVISION	Electronics	10	10	[0, 0, 0]	n/a	catFR1	0	R1495J
1410.864	0.784	1545700	WORD_OFF	n/a	n/a	TELEVISION	Electronics	10	10	[0, 0, 0]	n/a	catFR1	0	R1495J
1411.648	1.6	1546488	WORD	n/a	wordpools/wordpool_categorized_EN.txt	APPLE	Fruit	11	10	[0, 0, 0]	n/a	catFR1	0	R1495J
1413.248	0.816	1548091	WORD_OFF	n/a	n/a	APPLE	Fruit	11	10	[0, 0, 0]	n/a	catFR1	0	R1495J
1414.064	1.602	1548904	WORD	n/a	wordpools/wordpool_categorized_EN.txt	PLUM	Fruit	12	10	[0, 0, 0]	n/a	catFR1	0	R1495J
1415.666	0.001	1550503	PROB	4.149	n/a	n/a	n/a	-999	10	[3, 6, 7]	16.0	catFR1	0	R1495J
1415.667	0.0	1550504	START	n/a	n/a	n/a	n/a	-999	10	[-999, -999, -999]	n/a	catFR1	0	R1495J
1415.665	0.002	1550507	WORD_OFF	n/a	n/a	PLUM	Fruit	12	10	[0, 0, 0]	n/a	catFR1	0	R1495J
1415.667	0.0	1550507	ENCODING_END	n/a	n/a	n/a	n/a	-999	10	[0, 0, 0]	n/a	catFR1	0	R1495J
1415.667	4.165	1550507	DISTRACT_START	n/a	n/a	n/a	n/a	-999	10	[0, 0, 0]	n/a	catFR1	0	R1495J
1419.832	6.582	1554669	PROB	6.566	n/a	n/a	n/a	-999	10	[3, 5, 8]	17.0	catFR1	0	R1495J
1426.414	6.617	1561251	PROB	6.601	n/a	n/a	n/a	-999	10	[1, 6, 5]	12.0	catFR1	0	R1495J
1433.031	2.984	1567868	PROB	2.967	n/a	n/a	n/a	-999	10	[7, 2, 1]	10.0	catFR1	0	R1495J
1436.015	0.0	1570852	STOP	n/a	n/a	n/a	n/a	-999	10	[-999, -999, -999]	n/a	catFR1	0	R1495J
1436.015	2.132	1570856	DISTRACT_END	n/a	n/a	n/a	n/a	-999	10	[0, 0, 0]	n/a	catFR1	0	R1495J
1438.147	3.292	1572988	REC_START	n/a	n/a	n/a	n/a	-999	10	[0, 0, 0]	n/a	catFR1	0	R1495J
1441.439	2.267	1576275	REC_WORD	3.292	n/a	BOOKCASE	Furniture	3	10	[0, 0, 0]	n/a	catFR1	0	R1495J
1443.706	7.893	1578542	REC_WORD	5.559	n/a	PLUM	Fruit	12	10	[0, 0, 0]	n/a	catFR1	0	R1495J
1451.599	16.772	1586435	REC_WORD	13.452	n/a	COMPUTER	Electronics	-999	10	[0, 0, 0]	n/a	catFR1	0	R1495J
1468.371	2.178	1603210	REC_END	n/a	n/a	n/a	n/a	-999	10	[0, 0, 0]	n/a	catFR1	0	R1495J
1470.549	10.349	1605385	COUNTDOWN_START	n/a	n/a	n/a	n/a	-999	11	[0, 0, 0]	n/a	catFR1	0	R1495J
1480.898	0.0	1615737	COUNTDOWN_END	n/a	n/a	n/a	n/a	-999	11	[0, 0, 0]	n/a	catFR1	0	R1495J
1480.898	1.967	1615737	ENCODING_START	n/a	n/a	n/a	n/a	-999	11	[0, 0, 0]	n/a	catFR1	0	R1495J
1482.865	1.6	1617709	WORD	n/a	wordpools/wordpool_categorized_EN.txt	NYLON	Fabric	1	11	[0, 0, 0]	n/a	catFR1	0	R1495J
1484.465	0.816	1619298	WORD_OFF	n/a	n/a	NYLON	Fabric	1	11	[0, 0, 0]	n/a	catFR1	0	R1495J
1485.281	1.616	1620125	WORD	n/a	wordpools/wordpool_categorized_EN.txt	VELVET	Fabric	2	11	[0, 0, 0]	n/a	catFR1	0	R1495J
1486.897	0.884	1621740	WORD_OFF	n/a	n/a	VELVET	Fabric	2	11	[0, 0, 0]	n/a	catFR1	0	R1495J
1487.781	1.617	1622618	WORD	n/a	wordpools/wordpool_categorized_EN.txt	STRAINER	KitchenTools	3	11	[0, 0, 0]	n/a	catFR1	0	R1495J
1489.398	0.933	1624233	WORD_OFF	n/a	n/a	STRAINER	KitchenTools	3	11	[0, 0, 0]	n/a	catFR1	0	R1495J
1490.331	1.616	1625174	WORD	n/a	wordpools/wordpool_categorized_EN.txt	SPATULA	KitchenTools	4	11	[0, 0, 0]	n/a	catFR1	0	R1495J
1491.947	0.883	1626789	WORD_OFF	n/a	n/a	SPATULA	KitchenTools	4	11	[0, 0, 0]	n/a	catFR1	0	R1495J
1492.83	1.601	1627667	WORD	n/a	wordpools/wordpool_categorized_EN.txt	TUBA	Instruments	5	11	[0, 0, 0]	n/a	catFR1	0	R1495J
1494.431	0.933	1629269	WORD_OFF	n/a	n/a	TUBA	Instruments	5	11	[0, 0, 0]	n/a	catFR1	0	R1495J
1495.364	1.601	1630198	WORD	n/a	wordpools/wordpool_categorized_EN.txt	TROMBONE	Instruments	6	11	[0, 0, 0]	n/a	catFR1	0	R1495J
1496.965	0.85	1631800	WORD_OFF	n/a	n/a	TROMBONE	Instruments	6	11	[0, 0, 0]	n/a	catFR1	0	R1495J
1497.815	1.615	1632652	WORD	n/a	wordpools/wordpool_categorized_EN.txt	SILK	Fabric	7	11	[0, 0, 0]	n/a	catFR1	0	R1495J
1499.43	0.901	1634267	WORD_OFF	n/a	n/a	SILK	Fabric	7	11	[0, 0, 0]	n/a	catFR1	0	R1495J
1500.331	1.601	1635170	WORD	n/a	wordpools/wordpool_categorized_EN.txt	SPANDEX	Fabric	8	11	[0, 0, 0]	n/a	catFR1	0	R1495J
1501.932	1.0	1636773	WORD_OFF	n/a	n/a	SPANDEX	Fabric	8	11	[0, 0, 0]	n/a	catFR1	0	R1495J
1502.932	1.6	1637765	WORD	n/a	wordpools/wordpool_categorized_EN.txt	VIOLIN	Instruments	9	11	[0, 0, 0]	n/a	catFR1	0	R1495J
1504.532	0.966	1639367	WORD_OFF	n/a	n/a	VIOLIN	Instruments	9	11	[0, 0, 0]	n/a	catFR1	0	R1495J
1505.498	1.601	1640334	WORD	n/a	wordpools/wordpool_categorized_EN.txt	DRUM	Instruments	10	11	[0, 0, 0]	n/a	catFR1	0	R1495J
1507.099	0.832	1641936	WORD_OFF	n/a	n/a	DRUM	Instruments	10	11	[0, 0, 0]	n/a	catFR1	0	R1495J
1507.931	1.6	1642763	WORD	n/a	wordpools/wordpool_categorized_EN.txt	PEELER	KitchenTools	11	11	[0, 0, 0]	n/a	catFR1	0	R1495J
1509.531	1.0	1644365	WORD_OFF	n/a	n/a	PEELER	KitchenTools	11	11	[0, 0, 0]	n/a	catFR1	0	R1495J
1510.531	1.616	1645370	WORD	n/a	wordpools/wordpool_categorized_EN.txt	COLANDER	KitchenTools	12	11	[0, 0, 0]	n/a	catFR1	0	R1495J
1512.147	0.001	1646981	PROB	3.684	n/a	n/a	n/a	-999	11	[8, 4, 3]	15.0	catFR1	0	R1495J
1512.148	0.0	1646982	START	n/a	n/a	n/a	n/a	-999	11	[-999, -999, -999]	n/a	catFR1	0	R1495J
1512.147	0.001	1646985	WORD_OFF	n/a	n/a	COLANDER	KitchenTools	12	11	[0, 0, 0]	n/a	catFR1	0	R1495J
1512.148	0.0	1646985	ENCODING_END	n/a	n/a	n/a	n/a	-999	11	[0, 0, 0]	n/a	catFR1	0	R1495J
1512.148	3.7	1646985	DISTRACT_START	n/a	n/a	n/a	n/a	-999	11	[0, 0, 0]	n/a	catFR1	0	R1495J
1515.848	5.149	1650681	PROB	5.133	n/a	n/a	n/a	-999	11	[7, 2, 4]	13.0	catFR1	0	R1495J
1520.997	2.817	1655830	PROB	2.8	n/a	n/a	n/a	-999	11	[5, 3, 2]	10.0	catFR1	0	R1495J
1523.814	2.383	1658647	PROB	2.366	n/a	n/a	n/a	-999	11	[2, 8, 2]	12.0	catFR1	0	R1495J
1526.197	2.801	1661030	PROB	2.784	n/a	n/a	n/a	-999	11	[7, 6, 3]	16.0	catFR1	0	R1495J
1528.998	3.05	1663831	PROB	3.033	n/a	n/a	n/a	-999	11	[1, 5, 4]	10.0	catFR1	0	R1495J
1532.048	2.668	1666881	PROB	2.649	n/a	n/a	n/a	-999	11	[5, 5, 8]	18.0	catFR1	0	R1495J
1534.716	0.0	1669547	DISTRACT_END	n/a	n/a	n/a	n/a	-999	11	[0, 0, 0]	n/a	catFR1	0	R1495J
1534.716	2.032	1669549	STOP	n/a	n/a	n/a	n/a	-999	11	[-999, -999, -999]	n/a	catFR1	0	R1495J
1536.748	0.939	1671577	REC_START	n/a	n/a	n/a	n/a	-999	11	[0, 0, 0]	n/a	catFR1	0	R1495J
1537.687	0.472	1672519	REC_WORD	0.939	n/a	TUBA	Instruments	5	11	[0, 0, 0]	n/a	catFR1	0	R1495J
1538.159	1.587	1672991	REC_WORD	1.411	n/a	TROMBONE	Instruments	6	11	[0, 0, 0]	n/a	catFR1	0	R1495J
1539.746	5.838	1674578	REC_WORD	2.998	n/a	VIOLIN	Instruments	9	11	[0, 0, 0]	n/a	catFR1	0	R1495J
1545.584	1.602	1680416	REC_WORD	8.836	n/a	SPANX	n/a	-999	11	[0, 0, 0]	n/a	catFR1	0	R1495J
1547.186	19.782	1682018	REC_WORD	10.438	n/a	SPANDEX	Fabric	8	11	[0, 0, 0]	n/a	catFR1	0	R1495J
1566.968	1.564	1701800	REC_END	n/a	n/a	n/a	n/a	-999	11	[0, 0, 0]	n/a	catFR1	0	R1495J
1568.532	10.35	1703364	COUNTDOWN_START	n/a	n/a	n/a	n/a	-999	12	[0, 0, 0]	n/a	catFR1	0	R1495J
1578.882	0.001	1713716	COUNTDOWN_END	n/a	n/a	n/a	n/a	-999	12	[0, 0, 0]	n/a	catFR1	0	R1495J
1578.883	1.965	1713716	ENCODING_START	n/a	n/a	n/a	n/a	-999	12	[0, 0, 0]	n/a	catFR1	0	R1495J
1580.848	1.618	1715688	WORD	n/a	wordpools/wordpool_categorized_EN.txt	UNDERWEAR	Clothing	1	12	[0, 0, 0]	n/a	catFR1	0	R1495J
1582.466	0.833	1717303	WORD_OFF	n/a	n/a	UNDERWEAR	Clothing	1	12	[0, 0, 0]	n/a	catFR1	0	R1495J
1583.299	1.617	1718129	WORD	n/a	wordpools/wordpool_categorized_EN.txt	COAT	Clothing	2	12	[0, 0, 0]	n/a	catFR1	0	R1495J
1584.916	0.881	1719745	WORD_OFF	n/a	n/a	COAT	Clothing	2	12	[0, 0, 0]	n/a	catFR1	0	R1495J
1585.797	1.601	1720635	WORD	n/a	wordpools/wordpool_categorized_EN.txt	FLUTE	Instruments	3	12	[0, 0, 0]	n/a	catFR1	0	R1495J
1587.398	0.984	1722237	WORD_OFF	n/a	n/a	FLUTE	Instruments	3	12	[0, 0, 0]	n/a	catFR1	0	R1495J
1588.382	1.615	1723217	WORD	n/a	wordpools/wordpool_categorized_EN.txt	BANJO	Instruments	4	12	[0, 0, 0]	n/a	catFR1	0	R1495J
1589.997	0.934	1724832	WORD_OFF	n/a	n/a	BANJO	Instruments	4	12	[0, 0, 0]	n/a	catFR1	0	R1495J
1590.931	1.601	1725760	WORD	n/a	wordpools/wordpool_categorized_EN.txt	SODA	Beverages	5	12	[0, 0, 0]	n/a	catFR1	0	R1495J
1592.532	0.767	1727363	WORD_OFF	n/a	n/a	SODA	Beverages	5	12	[0, 0, 0]	n/a	catFR1	0	R1495J
1593.299	1.614	1728138	WORD	n/a	wordpools/wordpool_categorized_EN.txt	BEER	Beverages	6	12	[0, 0, 0]	n/a	catFR1	0	R1495J
1594.913	0.784	1729741	WORD_OFF	n/a	n/a	BEER	Beverages	6	12	[0, 0, 0]	n/a	catFR1	0	R1495J
1595.697	1.6	1730529	WORD	n/a	wordpools/wordpool_categorized_EN.txt	SOCKS	Clothing	7	12	[0, 0, 0]	n/a	catFR1	0	R1495J
1597.297	0.901	1732132	WORD_OFF	n/a	n/a	SOCKS	Clothing	7	12	[0, 0, 0]	n/a	catFR1	0	R1495J
1598.198	1.616	1733035	WORD	n/a	wordpools/wordpool_categorized_EN.txt	SHIRT	Clothing	8	12	[0, 0, 0]	n/a	catFR1	0	R1495J
1599.814	0.77	1734650	WORD_OFF	n/a	n/a	SHIRT	Clothing	8	12	[0, 0, 0]	n/a	catFR1	0	R1495J
1600.584	1.615	1735413	WORD	n/a	wordpools/wordpool_categorized_EN.txt	WATER	Beverages	9	12	[0, 0, 0]	n/a	catFR1	0	R1495J
1602.199	0.949	1737028	WORD_OFF	n/a	n/a	WATER	Beverages	9	12	[0, 0, 0]	n/a	catFR1	0	R1495J
1603.148	1.6	1737982	WORD	n/a	wordpools/wordpool_categorized_EN.txt	LEMONADE	Beverages	10	12	[0, 0, 0]	n/a	catFR1	0	R1495J
1604.748	0.784	1739585	WORD_OFF	n/a	n/a	LEMONADE	Beverages	10	12	[0, 0, 0]	n/a	catFR1	0	R1495J
1605.532	1.615	1740360	WORD	n/a	wordpools/wordpool_categorized_EN.txt	ORGAN	Instruments	11	12	[0, 0, 0]	n/a	catFR1	0	R1495J
1607.147	0.934	1741975	WORD_OFF	n/a	n/a	ORGAN	Instruments	11	12	[0, 0, 0]	n/a	catFR1	0	R1495J
1608.081	1.601	1742917	WORD	n/a	wordpools/wordpool_categorized_EN.txt	GUITAR	Instruments	12	12	[0, 0, 0]	n/a	catFR1	0	R1495J
1609.682	0.0	1744511	START	n/a	n/a	n/a	n/a	-999	12	[-999, -999, -999]	n/a	catFR1	0	R1495J
1609.682	0.0	1744511	PROB	3.115	n/a	n/a	n/a	-999	12	[8, 2, 2]	12.0	catFR1	0	R1495J
1609.681	0.001	1744519	WORD_OFF	n/a	n/a	GUITAR	Instruments	12	12	[0, 0, 0]	n/a	catFR1	0	R1495J
1609.682	0.0	1744519	ENCODING_END	n/a	n/a	n/a	n/a	-999	12	[0, 0, 0]	n/a	catFR1	0	R1495J
1609.682	3.134	1744519	DISTRACT_START	n/a	n/a	n/a	n/a	-999	12	[0, 0, 0]	n/a	catFR1	0	R1495J
1612.816	3.081	1747645	PROB	3.065	n/a	n/a	n/a	-999	12	[4, 3, 6]	13.0	catFR1	0	R1495J
1615.897	3.251	1750726	PROB	3.234	n/a	n/a	n/a	-999	12	[6, 2, 6]	14.0	catFR1	0	R1495J
1619.148	2.383	1753977	PROB	2.367	n/a	n/a	n/a	-999	12	[6, 4, 2]	12.0	catFR1	0	R1495J
1621.531	3.033	1756360	PROB	3.017	n/a	n/a	n/a	-999	12	[8, 1, 8]	17.0	catFR1	0	R1495J
1624.564	2.235	1759393	PROB	2.217	n/a	n/a	n/a	-999	12	[2, 3, 7]	12.0	catFR1	0	R1495J
1626.799	2.948	1761628	PROB	2.932	n/a	n/a	n/a	-999	12	[1, 3, 6]	10.0	catFR1	0	R1495J
1629.747	0.0	1764575	DISTRACT_END	n/a	n/a	n/a	n/a	-999	12	[0, 0, 0]	n/a	catFR1	0	R1495J
1629.747	2.201	1764576	STOP	n/a	n/a	n/a	n/a	-999	12	[-999, -999, -999]	n/a	catFR1	0	R1495J
1631.948	2.54	1766783	REC_START	n/a	n/a	n/a	n/a	-999	12	[0, 0, 0]	n/a	catFR1	0	R1495J
1634.488	11.498	1769317	REC_WORD	2.54	n/a	CLUM	n/a	-999	12	[0, 0, 0]	n/a	catFR1	0	R1495J
1645.986	8.68	1780814	REC_WORD	14.038	n/a	ORCHID	Flowers	-999	12	[0, 0, 0]	n/a	catFR1	0	R1495J
1654.666	7.524	1789494	REC_WORD	22.718	n/a	GUITAR	Instruments	12	12	[0, 0, 0]	n/a	catFR1	0	R1495J
1662.19	0.0	1797019	REC_END	n/a	n/a	n/a	n/a	-999	12	[0, 0, 0]	n/a	catFR1	0	R1495J
