onset	duration	sample	trial_type	response_time	stim_file	item_name	category	serialpos	list	test	answer	experiment	session	subject
0.0	16.666	17034	INSTRUCT_START	n/a	n/a	n/a	n/a	-999	-999	[0, 0, 0]	n/a	catFR1	0	R1449T
16.666	31.882	33699	INSTRUCT_END	n/a	n/a	n/a	n/a	-999	-999	[0, 0, 0]	n/a	catFR1	0	R1449T
48.548	10.349	65585	COUNTDOWN_START	n/a	n/a	n/a	n/a	-999	-999	[0, 0, 0]	n/a	catFR1	0	R1449T
58.897	0.001	75930	COUNTDOWN_END	n/a	n/a	n/a	n/a	-999	-999	[0, 0, 0]	n/a	catFR1	0	R1449T
58.898	2.15	75930	ENCODING_START	n/a	n/a	n/a	n/a	-999	-1	[0, 0, 0]	n/a	catFR1	0	R1449T
61.048	1.6	78084	WORD	n/a	n/a	SPATULA	KitchenTools	1	-1	[0, 0, 0]	n/a	catFR1	0	R1449T
62.648	0.767	79685	WORD_OFF	n/a	n/a	SPATULA	KitchenTools	1	-1	[0, 0, 0]	n/a	catFR1	0	R1449T
63.415	1.616	80451	WORD	n/a	n/a	KNIFE	KitchenTools	2	-1	[0, 0, 0]	n/a	catFR1	0	R1449T
65.031	0.833	82066	WORD_OFF	n/a	n/a	KNIFE	KitchenTools	2	-1	[0, 0, 0]	n/a	catFR1	0	R1449T
65.864	1.601	82888	WORD	n/a	n/a	BANANA	Fruit	3	-1	[0, 0, 0]	n/a	catFR1	0	R1449T
67.465	0.816	84490	WORD_OFF	n/a	n/a	BANANA	Fruit	3	-1	[0, 0, 0]	n/a	catFR1	0	R1449T
68.281	1.617	85311	WORD	n/a	n/a	PEACH	Fruit	4	-1	[0, 0, 0]	n/a	catFR1	0	R1449T
69.898	0.867	86927	WORD_OFF	n/a	n/a	PEACH	Fruit	4	-1	[0, 0, 0]	n/a	catFR1	0	R1449T
70.765	1.615	87791	WORD	n/a	n/a	ELBOW	BodyParts	5	-1	[0, 0, 0]	n/a	catFR1	0	R1449T
72.38	0.917	89407	WORD_OFF	n/a	n/a	ELBOW	BodyParts	5	-1	[0, 0, 0]	n/a	catFR1	0	R1449T
73.297	1.618	90328	WORD	n/a	n/a	EAR	BodyParts	6	-1	[0, 0, 0]	n/a	catFR1	0	R1449T
74.915	0.883	91944	WORD_OFF	n/a	n/a	EAR	BodyParts	6	-1	[0, 0, 0]	n/a	catFR1	0	R1449T
75.798	1.617	92822	WORD	n/a	n/a	PEAR	Fruit	7	-1	[0, 0, 0]	n/a	catFR1	0	R1449T
77.415	0.933	94438	WORD_OFF	n/a	n/a	PEAR	Fruit	7	-1	[0, 0, 0]	n/a	catFR1	0	R1449T
78.348	1.6	95373	WORD	n/a	n/a	LEMON	Fruit	8	-1	[0, 0, 0]	n/a	catFR1	0	R1449T
79.948	0.833	96975	WORD_OFF	n/a	n/a	LEMON	Fruit	8	-1	[0, 0, 0]	n/a	catFR1	0	R1449T
80.781	1.617	97811	WORD	n/a	n/a	KNEE	BodyParts	9	-1	[0, 0, 0]	n/a	catFR1	0	R1449T
82.398	0.767	99426	WORD_OFF	n/a	n/a	KNEE	BodyParts	9	-1	[0, 0, 0]	n/a	catFR1	0	R1449T
83.165	1.616	100191	WORD	n/a	n/a	FOOT	BodyParts	10	-1	[0, 0, 0]	n/a	catFR1	0	R1449T
84.781	0.866	101807	WORD_OFF	n/a	n/a	FOOT	BodyParts	10	-1	[0, 0, 0]	n/a	catFR1	0	R1449T
85.647	1.6	102671	WORD	n/a	n/a	STRAINER	KitchenTools	11	-1	[0, 0, 0]	n/a	catFR1	0	R1449T
87.247	0.834	104273	WORD_OFF	n/a	n/a	STRAINER	KitchenTools	11	-1	[0, 0, 0]	n/a	catFR1	0	R1449T
88.081	1.6	105109	WORD	n/a	n/a	GRATER	KitchenTools	12	-1	[0, 0, 0]	n/a	catFR1	0	R1449T
89.681	0.002	106710	WORD_OFF	n/a	n/a	GRATER	KitchenTools	12	-1	[0, 0, 0]	n/a	catFR1	0	R1449T
89.683	0.0	106710	ENCODING_END	n/a	n/a	n/a	n/a	-999	-1	[0, 0, 0]	n/a	catFR1	0	R1449T
89.683	0.0	106710	DISTRACT_START	n/a	n/a	n/a	n/a	-999	-1	[0, 0, 0]	n/a	catFR1	0	R1449T
89.683	0.0	106710	START	n/a	n/a	n/a	n/a	-999	-1	[-999, -999, -999]	n/a	catFR1	0	R1449T
89.683	5.198	106710	PROB	5.198	n/a	n/a	n/a	-999	-1	[6, 2, 4]	12	catFR1	0	R1449T
94.881	3.132	111908	PROB	3.132	n/a	n/a	n/a	-999	-1	[1, 2, 5]	8	catFR1	0	R1449T
98.013	3.435	115039	PROB	3.435	n/a	n/a	n/a	-999	-1	[7, 5, 6]	18	catFR1	0	R1449T
101.448	3.1	118474	PROB	3.1	n/a	n/a	n/a	-999	-1	[1, 7, 8]	16	catFR1	0	R1449T
104.548	2.201	121574	PROB	2.201	n/a	n/a	n/a	-999	-1	[1, 7, 1]	9	catFR1	0	R1449T
106.749	3.282	123775	PROB	3.282	n/a	n/a	n/a	-999	-1	[4, 1, 6]	11	catFR1	0	R1449T
110.031	0.0	127057	STOP	n/a	n/a	n/a	n/a	-999	-1	[-999, -999, -999]	n/a	catFR1	0	R1449T
110.031	1.3	127060	DISTRACT_END	n/a	n/a	n/a	n/a	-999	-1	[0, 0, 0]	n/a	catFR1	0	R1449T
111.331	0.835	128364	REC_START	n/a	n/a	n/a	n/a	-999	-1	[0, 0, 0]	n/a	catFR1	0	R1449T
112.166	0.3	129192	REC_WORD_VV	0.3	n/a	<>	n/a	-999	-1	[0, 0, 0]	n/a	catFR1	0	R1449T
112.466	1.004	129492	REC_WORD	1.004	n/a	SPATULA	KitchenTools	1	-1	[0, 0, 0]	n/a	catFR1	0	R1449T
113.47	1.081	130496	REC_WORD	1.081	n/a	SPATULA	KitchenTools	1	-1	[0, 0, 0]	n/a	catFR1	0	R1449T
114.551	2.264	131577	REC_WORD	2.264	n/a	STRAIN	n/a	-999	-1	[0, 0, 0]	n/a	catFR1	0	R1449T
116.815	1.665	133840	REC_WORD	1.665	n/a	ELBOW	BodyParts	5	-1	[0, 0, 0]	n/a	catFR1	0	R1449T
118.48	1.699	135505	REC_WORD	1.699	n/a	FOOT	BodyParts	10	-1	[0, 0, 0]	n/a	catFR1	0	R1449T
120.179	1.849	137204	REC_WORD	1.849	n/a	LEMON	Fruit	8	-1	[0, 0, 0]	n/a	catFR1	0	R1449T
122.028	1.628	139053	REC_WORD	1.628	n/a	PEACH	Fruit	4	-1	[0, 0, 0]	n/a	catFR1	0	R1449T
123.656	18.874	140681	REC_WORD	18.874	n/a	BANANA	Fruit	3	-1	[0, 0, 0]	n/a	catFR1	0	R1449T
142.53	16.402	159556	REC_END	n/a	n/a	n/a	n/a	-999	-1	[0, 0, 0]	n/a	catFR1	0	R1449T
158.932	10.348	175966	COUNTDOWN_START	n/a	n/a	n/a	n/a	-999	1	[0, 0, 0]	n/a	catFR1	0	R1449T
169.28	0.001	186311	COUNTDOWN_END	n/a	n/a	n/a	n/a	-999	1	[0, 0, 0]	n/a	catFR1	0	R1449T
169.281	2.1	186311	ENCODING_START	n/a	n/a	n/a	n/a	-999	1	[0, 0, 0]	n/a	catFR1	0	R1449T
171.381	1.6	188408	WORD	n/a	wordpools/wordpool_categorized_EN.txt	PUZZLE	Toys	1	1	[0, 0, 0]	n/a	catFR1	0	R1449T
172.981	0.901	190010	WORD_OFF	n/a	n/a	PUZZLE	Toys	1	1	[0, 0, 0]	n/a	catFR1	0	R1449T
173.882	1.617	190903	WORD	n/a	wordpools/wordpool_categorized_EN.txt	BASEBALL	Toys	2	1	[0, 0, 0]	n/a	catFR1	0	R1449T
175.499	0.932	192518	WORD_OFF	n/a	n/a	BASEBALL	Toys	2	1	[0, 0, 0]	n/a	catFR1	0	R1449T
176.431	1.617	193454	WORD	n/a	wordpools/wordpool_categorized_EN.txt	STRAWBERRY	Fruit	3	1	[0, 0, 0]	n/a	catFR1	0	R1449T
178.048	0.917	195069	WORD_OFF	n/a	n/a	STRAWBERRY	Fruit	3	1	[0, 0, 0]	n/a	catFR1	0	R1449T
178.965	1.616	195990	WORD	n/a	wordpools/wordpool_categorized_EN.txt	CHERRY	Fruit	4	1	[0, 0, 0]	n/a	catFR1	0	R1449T
180.581	0.883	197606	WORD_OFF	n/a	n/a	CHERRY	Fruit	4	1	[0, 0, 0]	n/a	catFR1	0	R1449T
181.464	1.601	198484	WORD	n/a	wordpools/wordpool_categorized_EN.txt	TULIP	Flowers	5	1	[0, 0, 0]	n/a	catFR1	0	R1449T
183.065	0.883	200086	WORD_OFF	n/a	n/a	TULIP	Flowers	5	1	[0, 0, 0]	n/a	catFR1	0	R1449T
183.948	1.617	200979	WORD	n/a	wordpools/wordpool_categorized_EN.txt	PETUNIA	Flowers	6	1	[0, 0, 0]	n/a	catFR1	0	R1449T
185.565	1.0	202594	WORD_OFF	n/a	n/a	PETUNIA	Flowers	6	1	[0, 0, 0]	n/a	catFR1	0	R1449T
186.565	1.616	203586	WORD	n/a	wordpools/wordpool_categorized_EN.txt	BARBIE	Toys	7	1	[0, 0, 0]	n/a	catFR1	0	R1449T
188.181	0.984	205202	WORD_OFF	n/a	n/a	BARBIE	Toys	7	1	[0, 0, 0]	n/a	catFR1	0	R1449T
189.165	1.616	206194	WORD	n/a	wordpools/wordpool_categorized_EN.txt	BASKETBALL	Toys	8	1	[0, 0, 0]	n/a	catFR1	0	R1449T
190.781	0.8	207809	WORD_OFF	n/a	n/a	BASKETBALL	Toys	8	1	[0, 0, 0]	n/a	catFR1	0	R1449T
191.581	1.617	208603	WORD	n/a	wordpools/wordpool_categorized_EN.txt	BLUEBERRY	Fruit	9	1	[0, 0, 0]	n/a	catFR1	0	R1449T
193.198	0.966	210218	WORD_OFF	n/a	n/a	BLUEBERRY	Fruit	9	1	[0, 0, 0]	n/a	catFR1	0	R1449T
194.164	1.601	211182	WORD	n/a	wordpools/wordpool_categorized_EN.txt	GRAPE	Fruit	10	1	[0, 0, 0]	n/a	catFR1	0	R1449T
195.765	0.966	212783	WORD_OFF	n/a	n/a	GRAPE	Fruit	10	1	[0, 0, 0]	n/a	catFR1	0	R1449T
196.731	1.617	213761	WORD	n/a	wordpools/wordpool_categorized_EN.txt	ROSE	Flowers	11	1	[0, 0, 0]	n/a	catFR1	0	R1449T
198.348	0.933	215377	WORD_OFF	n/a	n/a	ROSE	Flowers	11	1	[0, 0, 0]	n/a	catFR1	0	R1449T
199.281	1.617	216312	WORD	n/a	wordpools/wordpool_categorized_EN.txt	LILY	Flowers	12	1	[0, 0, 0]	n/a	catFR1	0	R1449T
200.898	0.001	217919	PROB	0.001	n/a	n/a	n/a	-999	1	[3, 3, 4]	10	catFR1	0	R1449T
200.899	0.0	217920	START	n/a	n/a	n/a	n/a	-999	1	[-999, -999, -999]	n/a	catFR1	0	R1449T
200.898	0.001	217928	WORD_OFF	n/a	n/a	LILY	Flowers	12	1	[0, 0, 0]	n/a	catFR1	0	R1449T
200.899	0.0	217928	ENCODING_END	n/a	n/a	n/a	n/a	-999	1	[0, 0, 0]	n/a	catFR1	0	R1449T
200.899	20.015	217928	DISTRACT_START	n/a	n/a	n/a	n/a	-999	1	[0, 0, 0]	n/a	catFR1	0	R1449T
220.914	0.0	237934	STOP	n/a	n/a	n/a	n/a	-999	1	[-999, -999, -999]	n/a	catFR1	0	R1449T
220.914	1.033	237938	DISTRACT_END	n/a	n/a	n/a	n/a	-999	1	[0, 0, 0]	n/a	catFR1	0	R1449T
221.947	1.437	238972	REC_START	n/a	n/a	n/a	n/a	-999	1	[0, 0, 0]	n/a	catFR1	0	R1449T
223.384	1.687	240404	REC_WORD	1.687	n/a	STRAWBERRY	Fruit	3	1	[0, 0, 0]	n/a	catFR1	0	R1449T
225.071	1.955	242091	REC_WORD	1.955	n/a	ROSE	Flowers	11	1	[0, 0, 0]	n/a	catFR1	0	R1449T
227.026	11.211	244046	REC_WORD	11.211	n/a	BASEBALL	Toys	2	1	[0, 0, 0]	n/a	catFR1	0	R1449T
238.237	14.898	255256	REC_WORD	14.898	n/a	CHERRY	Fruit	4	1	[0, 0, 0]	n/a	catFR1	0	R1449T
253.135	1.946	270149	REC_END	n/a	n/a	n/a	n/a	-999	1	[0, 0, 0]	n/a	catFR1	0	R1449T
255.081	10.35	272105	COUNTDOWN_START	n/a	n/a	n/a	n/a	-999	1	[0, 0, 0]	n/a	catFR1	0	R1449T
265.431	0.0	282450	COUNTDOWN_END	n/a	n/a	n/a	n/a	-999	1	[0, 0, 0]	n/a	catFR1	0	R1449T
265.431	2.282	282450	ENCODING_START	n/a	n/a	n/a	n/a	-999	2	[0, 0, 0]	n/a	catFR1	0	R1449T
267.713	1.602	284732	WORD	n/a	wordpools/wordpool_categorized_EN.txt	SUNFLOWER	Flowers	1	2	[0, 0, 0]	n/a	catFR1	0	R1449T
269.315	0.9	286333	WORD_OFF	n/a	n/a	SUNFLOWER	Flowers	1	2	[0, 0, 0]	n/a	catFR1	0	R1449T
270.215	1.6	287240	WORD	n/a	wordpools/wordpool_categorized_EN.txt	ORCHID	Flowers	2	2	[0, 0, 0]	n/a	catFR1	0	R1449T
271.815	1.0	288841	WORD_OFF	n/a	n/a	ORCHID	Flowers	2	2	[0, 0, 0]	n/a	catFR1	0	R1449T
272.815	1.616	289833	WORD	n/a	wordpools/wordpool_categorized_EN.txt	SOFA	Furniture	3	2	[0, 0, 0]	n/a	catFR1	0	R1449T
274.431	0.967	291449	WORD_OFF	n/a	n/a	SOFA	Furniture	3	2	[0, 0, 0]	n/a	catFR1	0	R1449T
275.398	1.617	292413	WORD	n/a	wordpools/wordpool_categorized_EN.txt	BOOKCASE	Furniture	4	2	[0, 0, 0]	n/a	catFR1	0	R1449T
277.015	0.866	294028	WORD_OFF	n/a	n/a	BOOKCASE	Furniture	4	2	[0, 0, 0]	n/a	catFR1	0	R1449T
277.881	1.617	294907	WORD	n/a	wordpools/wordpool_categorized_EN.txt	FRISBEE	Toys	5	2	[0, 0, 0]	n/a	catFR1	0	R1449T
279.498	0.967	296522	WORD_OFF	n/a	n/a	FRISBEE	Toys	5	2	[0, 0, 0]	n/a	catFR1	0	R1449T
280.465	1.615	297486	WORD	n/a	wordpools/wordpool_categorized_EN.txt	BLOCKS	Toys	6	2	[0, 0, 0]	n/a	catFR1	0	R1449T
282.08	0.851	299101	WORD_OFF	n/a	n/a	BLOCKS	Toys	6	2	[0, 0, 0]	n/a	catFR1	0	R1449T
282.931	1.617	299952	WORD	n/a	wordpools/wordpool_categorized_EN.txt	DAISY	Flowers	7	2	[0, 0, 0]	n/a	catFR1	0	R1449T
284.548	0.767	301567	WORD_OFF	n/a	n/a	DAISY	Flowers	7	2	[0, 0, 0]	n/a	catFR1	0	R1449T
285.315	1.6	302332	WORD	n/a	wordpools/wordpool_categorized_EN.txt	LILAC	Flowers	8	2	[0, 0, 0]	n/a	catFR1	0	R1449T
286.915	0.766	303934	WORD_OFF	n/a	n/a	LILAC	Flowers	8	2	[0, 0, 0]	n/a	catFR1	0	R1449T
287.681	1.6	304699	WORD	n/a	wordpools/wordpool_categorized_EN.txt	MARBLES	Toys	9	2	[0, 0, 0]	n/a	catFR1	0	R1449T
289.281	0.767	306300	WORD_OFF	n/a	n/a	MARBLES	Toys	9	2	[0, 0, 0]	n/a	catFR1	0	R1449T
290.048	1.617	307066	WORD	n/a	wordpools/wordpool_categorized_EN.txt	BALL	Toys	10	2	[0, 0, 0]	n/a	catFR1	0	R1449T
291.665	0.916	308681	WORD_OFF	n/a	n/a	BALL	Toys	10	2	[0, 0, 0]	n/a	catFR1	0	R1449T
292.581	1.617	309602	WORD	n/a	wordpools/wordpool_categorized_EN.txt	NIGHTSTAND	Furniture	11	2	[0, 0, 0]	n/a	catFR1	0	R1449T
294.198	0.799	311218	WORD_OFF	n/a	n/a	NIGHTSTAND	Furniture	11	2	[0, 0, 0]	n/a	catFR1	0	R1449T
294.997	1.601	312012	WORD	n/a	wordpools/wordpool_categorized_EN.txt	DESK	Furniture	12	2	[0, 0, 0]	n/a	catFR1	0	R1449T
296.598	0.002	313613	WORD_OFF	n/a	n/a	DESK	Furniture	12	2	[0, 0, 0]	n/a	catFR1	0	R1449T
296.6	0.0	313613	ENCODING_END	n/a	n/a	n/a	n/a	-999	2	[0, 0, 0]	n/a	catFR1	0	R1449T
296.598	0.002	313614	PROB	0.002	n/a	n/a	n/a	-999	2	[4, 3, 4]	11	catFR1	0	R1449T
296.6	0.0	313616	START	n/a	n/a	n/a	n/a	-999	2	[-999, -999, -999]	n/a	catFR1	0	R1449T
296.6	4.799	313627	DISTRACT_START	n/a	n/a	n/a	n/a	-999	2	[0, 0, 0]	n/a	catFR1	0	R1449T
301.399	5.249	318415	PROB	5.249	n/a	n/a	n/a	-999	2	[4, 7, 2]	13	catFR1	0	R1449T
306.648	5.934	323664	PROB	5.934	n/a	n/a	n/a	-999	2	[6, 5, 2]	13	catFR1	0	R1449T
312.582	3.949	329598	PROB	3.949	n/a	n/a	n/a	-999	2	[2, 5, 6]	13	catFR1	0	R1449T
316.531	3.917	333546	PROB	3.917	n/a	n/a	n/a	-999	2	[8, 6, 4]	18	catFR1	0	R1449T
320.448	0.0	337463	DISTRACT_END	n/a	n/a	n/a	n/a	-999	2	[0, 0, 0]	n/a	catFR1	0	R1449T
320.448	1.3	337463	STOP	n/a	n/a	n/a	n/a	-999	2	[-999, -999, -999]	n/a	catFR1	0	R1449T
321.748	0.753	338767	REC_START	n/a	n/a	n/a	n/a	-999	2	[0, 0, 0]	n/a	catFR1	0	R1449T
322.501	1.71	339516	REC_WORD	1.71	n/a	NIGHTSTAND	Furniture	11	2	[0, 0, 0]	n/a	catFR1	0	R1449T
324.211	1.94	341226	REC_WORD	1.94	n/a	DESK	Furniture	12	2	[0, 0, 0]	n/a	catFR1	0	R1449T
326.151	14.639	343166	REC_WORD	14.639	n/a	LILAC	Flowers	8	2	[0, 0, 0]	n/a	catFR1	0	R1449T
340.79	12.137	357804	REC_WORD	12.137	n/a	BOOKCASE	Furniture	4	2	[0, 0, 0]	n/a	catFR1	0	R1449T
352.927	1.071	369944	REC_END	n/a	n/a	n/a	n/a	-999	2	[0, 0, 0]	n/a	catFR1	0	R1449T
353.998	10.351	371021	COUNTDOWN_START	n/a	n/a	n/a	n/a	-999	2	[0, 0, 0]	n/a	catFR1	0	R1449T
364.349	0.0	381366	COUNTDOWN_END	n/a	n/a	n/a	n/a	-999	2	[0, 0, 0]	n/a	catFR1	0	R1449T
364.349	2.016	381366	ENCODING_START	n/a	n/a	n/a	n/a	-999	3	[0, 0, 0]	n/a	catFR1	0	R1449T
366.365	1.615	383379	WORD	n/a	wordpools/wordpool_categorized_EN.txt	SQUID	OceanAnimals	1	3	[0, 0, 0]	n/a	catFR1	0	R1449T
367.98	0.884	384994	WORD_OFF	n/a	n/a	SQUID	OceanAnimals	1	3	[0, 0, 0]	n/a	catFR1	0	R1449T
368.864	1.601	385873	WORD	n/a	wordpools/wordpool_categorized_EN.txt	FISH	OceanAnimals	2	3	[0, 0, 0]	n/a	catFR1	0	R1449T
370.465	0.983	387474	WORD_OFF	n/a	n/a	FISH	OceanAnimals	2	3	[0, 0, 0]	n/a	catFR1	0	R1449T
371.448	1.6	388466	WORD	n/a	wordpools/wordpool_categorized_EN.txt	MARKER	OfficeSupplies	3	3	[0, 0, 0]	n/a	catFR1	0	R1449T
373.048	0.817	390068	WORD_OFF	n/a	n/a	MARKER	OfficeSupplies	3	3	[0, 0, 0]	n/a	catFR1	0	R1449T
373.865	1.6	390876	WORD	n/a	wordpools/wordpool_categorized_EN.txt	PENCIL	OfficeSupplies	4	3	[0, 0, 0]	n/a	catFR1	0	R1449T
375.465	0.933	392477	WORD_OFF	n/a	n/a	PENCIL	OfficeSupplies	4	3	[0, 0, 0]	n/a	catFR1	0	R1449T
376.398	1.6	393412	WORD	n/a	wordpools/wordpool_categorized_EN.txt	LEATHER	Fabric	5	3	[0, 0, 0]	n/a	catFR1	0	R1449T
377.998	0.783	395014	WORD_OFF	n/a	n/a	LEATHER	Fabric	5	3	[0, 0, 0]	n/a	catFR1	0	R1449T
378.781	1.617	395793	WORD	n/a	wordpools/wordpool_categorized_EN.txt	VELVET	Fabric	6	3	[0, 0, 0]	n/a	catFR1	0	R1449T
380.398	0.833	397409	WORD_OFF	n/a	n/a	VELVET	Fabric	6	3	[0, 0, 0]	n/a	catFR1	0	R1449T
381.231	1.617	398245	WORD	n/a	wordpools/wordpool_categorized_EN.txt	PEN	OfficeSupplies	7	3	[0, 0, 0]	n/a	catFR1	0	R1449T
382.848	1.0	399860	WORD_OFF	n/a	n/a	PEN	OfficeSupplies	7	3	[0, 0, 0]	n/a	catFR1	0	R1449T
383.848	1.617	400866	WORD	n/a	wordpools/wordpool_categorized_EN.txt	RULER	OfficeSupplies	8	3	[0, 0, 0]	n/a	catFR1	0	R1449T
385.465	0.833	402482	WORD_OFF	n/a	n/a	RULER	OfficeSupplies	8	3	[0, 0, 0]	n/a	catFR1	0	R1449T
386.298	1.6	403318	WORD	n/a	wordpools/wordpool_categorized_EN.txt	NYLON	Fabric	9	3	[0, 0, 0]	n/a	catFR1	0	R1449T
387.898	0.966	404919	WORD_OFF	n/a	n/a	NYLON	Fabric	9	3	[0, 0, 0]	n/a	catFR1	0	R1449T
388.864	1.601	405883	WORD	n/a	wordpools/wordpool_categorized_EN.txt	FLEECE	Fabric	10	3	[0, 0, 0]	n/a	catFR1	0	R1449T
390.465	0.783	407484	WORD_OFF	n/a	n/a	FLEECE	Fabric	10	3	[0, 0, 0]	n/a	catFR1	0	R1449T
391.248	1.616	408264	WORD	n/a	wordpools/wordpool_categorized_EN.txt	OYSTER	OceanAnimals	11	3	[0, 0, 0]	n/a	catFR1	0	R1449T
392.864	0.851	409879	WORD_OFF	n/a	n/a	OYSTER	OceanAnimals	11	3	[0, 0, 0]	n/a	catFR1	0	R1449T
393.715	1.601	410730	WORD	n/a	wordpools/wordpool_categorized_EN.txt	PLANKTON	OceanAnimals	12	3	[0, 0, 0]	n/a	catFR1	0	R1449T
395.316	0.0	412328	START	n/a	n/a	n/a	n/a	-999	3	[-999, -999, -999]	n/a	catFR1	0	R1449T
395.316	0.0	412328	PROB	0.0	n/a	n/a	n/a	-999	3	[5, 6, 3]	14	catFR1	0	R1449T
395.315	0.001	412331	WORD_OFF	n/a	n/a	PLANKTON	OceanAnimals	12	3	[0, 0, 0]	n/a	catFR1	0	R1449T
395.316	0.0	412331	ENCODING_END	n/a	n/a	n/a	n/a	-999	3	[0, 0, 0]	n/a	catFR1	0	R1449T
395.316	7.032	412331	DISTRACT_START	n/a	n/a	n/a	n/a	-999	3	[0, 0, 0]	n/a	catFR1	0	R1449T
402.348	3.966	419359	PROB	3.966	n/a	n/a	n/a	-999	3	[5, 2, 2]	9	catFR1	0	R1449T
406.314	3.384	423325	PROB	3.384	n/a	n/a	n/a	-999	3	[7, 6, 6]	19	catFR1	0	R1449T
409.698	2.967	426709	PROB	2.967	n/a	n/a	n/a	-999	3	[6, 1, 1]	8	catFR1	0	R1449T
412.665	3.95	429676	PROB	3.95	n/a	n/a	n/a	-999	3	[4, 2, 5]	11	catFR1	0	R1449T
416.615	0.0	433625	STOP	n/a	n/a	n/a	n/a	-999	3	[-999, -999, -999]	n/a	catFR1	0	R1449T
416.615	1.366	433631	DISTRACT_END	n/a	n/a	n/a	n/a	-999	3	[0, 0, 0]	n/a	catFR1	0	R1449T
417.981	1.395	434991	REC_START	n/a	n/a	n/a	n/a	-999	3	[0, 0, 0]	n/a	catFR1	0	R1449T
419.376	1.512	436386	REC_WORD	1.512	n/a	RULER	OfficeSupplies	8	3	[0, 0, 0]	n/a	catFR1	0	R1449T
420.888	1.763	437898	REC_WORD	1.763	n/a	PENCIL	OfficeSupplies	4	3	[0, 0, 0]	n/a	catFR1	0	R1449T
422.651	1.628	439661	REC_WORD	1.628	n/a	MARKER	OfficeSupplies	3	3	[0, 0, 0]	n/a	catFR1	0	R1449T
424.279	1.617	441289	REC_WORD	1.617	n/a	SQUID	OceanAnimals	1	3	[0, 0, 0]	n/a	catFR1	0	R1449T
425.896	1.576	442906	REC_WORD	1.576	n/a	PLANKTON	OceanAnimals	12	3	[0, 0, 0]	n/a	catFR1	0	R1449T
427.472	21.725	444482	REC_WORD	21.725	n/a	FISH	OceanAnimals	2	3	[0, 0, 0]	n/a	catFR1	0	R1449T
449.197	2.085	466211	REC_END	n/a	n/a	n/a	n/a	-999	3	[0, 0, 0]	n/a	catFR1	0	R1449T
451.282	10.35	468294	COUNTDOWN_START	n/a	n/a	n/a	n/a	-999	3	[0, 0, 0]	n/a	catFR1	0	R1449T
461.632	0.0	478639	COUNTDOWN_END	n/a	n/a	n/a	n/a	-999	3	[0, 0, 0]	n/a	catFR1	0	R1449T
461.632	2.283	478639	ENCODING_START	n/a	n/a	n/a	n/a	-999	4	[0, 0, 0]	n/a	catFR1	0	R1449T
463.915	1.616	480921	WORD	n/a	wordpools/wordpool_categorized_EN.txt	RUM	Beverages	1	4	[0, 0, 0]	n/a	catFR1	0	R1449T
465.531	0.883	482536	WORD_OFF	n/a	n/a	RUM	Beverages	1	4	[0, 0, 0]	n/a	catFR1	0	R1449T
466.414	1.601	483429	WORD	n/a	wordpools/wordpool_categorized_EN.txt	COFFEE	Beverages	2	4	[0, 0, 0]	n/a	catFR1	0	R1449T
468.015	0.8	485030	WORD_OFF	n/a	n/a	COFFEE	Beverages	2	4	[0, 0, 0]	n/a	catFR1	0	R1449T
468.815	1.6	485824	WORD	n/a	wordpools/wordpool_categorized_EN.txt	TURTLE	OceanAnimals	3	4	[0, 0, 0]	n/a	catFR1	0	R1449T
470.415	0.85	487425	WORD_OFF	n/a	n/a	TURTLE	OceanAnimals	3	4	[0, 0, 0]	n/a	catFR1	0	R1449T
471.265	1.6	488276	WORD	n/a	wordpools/wordpool_categorized_EN.txt	DOLPHIN	OceanAnimals	4	4	[0, 0, 0]	n/a	catFR1	0	R1449T
472.865	0.816	489877	WORD_OFF	n/a	n/a	DOLPHIN	OceanAnimals	4	4	[0, 0, 0]	n/a	catFR1	0	R1449T
473.681	1.6	490685	WORD	n/a	wordpools/wordpool_categorized_EN.txt	CUCUMBER	Vegetables	5	4	[0, 0, 0]	n/a	catFR1	0	R1449T
475.281	0.95	492286	WORD_OFF	n/a	n/a	CUCUMBER	Vegetables	5	4	[0, 0, 0]	n/a	catFR1	0	R1449T
476.231	1.6	493236	WORD	n/a	wordpools/wordpool_categorized_EN.txt	CABBAGE	Vegetables	6	4	[0, 0, 0]	n/a	catFR1	0	R1449T
477.831	0.817	494837	WORD_OFF	n/a	n/a	CABBAGE	Vegetables	6	4	[0, 0, 0]	n/a	catFR1	0	R1449T
478.648	1.617	495659	WORD	n/a	wordpools/wordpool_categorized_EN.txt	WATER	Beverages	7	4	[0, 0, 0]	n/a	catFR1	0	R1449T
480.265	0.983	497274	WORD_OFF	n/a	n/a	WATER	Beverages	7	4	[0, 0, 0]	n/a	catFR1	0	R1449T
481.248	1.617	498252	WORD	n/a	wordpools/wordpool_categorized_EN.txt	COLA	Beverages	8	4	[0, 0, 0]	n/a	catFR1	0	R1449T
482.865	1.0	499868	WORD_OFF	n/a	n/a	COLA	Beverages	8	4	[0, 0, 0]	n/a	catFR1	0	R1449T
483.865	1.616	500874	WORD	n/a	wordpools/wordpool_categorized_EN.txt	SPINACH	Vegetables	9	4	[0, 0, 0]	n/a	catFR1	0	R1449T
485.481	0.817	502490	WORD_OFF	n/a	n/a	SPINACH	Vegetables	9	4	[0, 0, 0]	n/a	catFR1	0	R1449T
486.298	1.617	503312	WORD	n/a	wordpools/wordpool_categorized_EN.txt	CELERY	Vegetables	10	4	[0, 0, 0]	n/a	catFR1	0	R1449T
487.915	0.816	504927	WORD_OFF	n/a	n/a	CELERY	Vegetables	10	4	[0, 0, 0]	n/a	catFR1	0	R1449T
488.731	1.617	505735	WORD	n/a	wordpools/wordpool_categorized_EN.txt	SHRIMP	OceanAnimals	11	4	[0, 0, 0]	n/a	catFR1	0	R1449T
490.348	1.0	507350	WORD_OFF	n/a	n/a	SHRIMP	OceanAnimals	11	4	[0, 0, 0]	n/a	catFR1	0	R1449T
491.348	1.616	508357	WORD	n/a	wordpools/wordpool_categorized_EN.txt	CRAB	OceanAnimals	12	4	[0, 0, 0]	n/a	catFR1	0	R1449T
492.964	0.0	509971	PROB	0.0	n/a	n/a	n/a	-999	4	[6, 4, 7]	17	catFR1	0	R1449T
492.964	0.001	509972	WORD_OFF	n/a	n/a	CRAB	OceanAnimals	12	4	[0, 0, 0]	n/a	catFR1	0	R1449T
492.965	0.0	509972	ENCODING_END	n/a	n/a	n/a	n/a	-999	4	[0, 0, 0]	n/a	catFR1	0	R1449T
492.965	0.0	509972	DISTRACT_START	n/a	n/a	n/a	n/a	-999	4	[0, 0, 0]	n/a	catFR1	0	R1449T
492.965	3.699	509972	START	n/a	n/a	n/a	n/a	-999	4	[-999, -999, -999]	n/a	catFR1	0	R1449T
496.664	5.001	513670	PROB	5.001	n/a	n/a	n/a	-999	4	[5, 6, 5]	16	catFR1	0	R1449T
501.665	2.801	518671	PROB	2.801	n/a	n/a	n/a	-999	4	[2, 8, 1]	11	catFR1	0	R1449T
504.466	2.666	521472	PROB	2.666	n/a	n/a	n/a	-999	4	[1, 5, 5]	11	catFR1	0	R1449T
507.132	3.567	524138	PROB	3.567	n/a	n/a	n/a	-999	4	[4, 3, 6]	13	catFR1	0	R1449T
510.699	3.983	527705	PROB	3.983	n/a	n/a	n/a	-999	4	[7, 2, 6]	15	catFR1	0	R1449T
514.682	0.0	531683	DISTRACT_END	n/a	n/a	n/a	n/a	-999	4	[0, 0, 0]	n/a	catFR1	0	R1449T
514.682	1.133	531688	STOP	n/a	n/a	n/a	n/a	-999	4	[-999, -999, -999]	n/a	catFR1	0	R1449T
515.815	0.569	532816	REC_START	n/a	n/a	n/a	n/a	-999	4	[0, 0, 0]	n/a	catFR1	0	R1449T
516.384	1.545	533390	REC_WORD	1.545	n/a	SHRIMP	OceanAnimals	11	4	[0, 0, 0]	n/a	catFR1	0	R1449T
517.929	2.351	534934	REC_WORD	2.351	n/a	CRAB	OceanAnimals	12	4	[0, 0, 0]	n/a	catFR1	0	R1449T
520.28	2.084	537285	REC_WORD	2.084	n/a	RUM	Beverages	1	4	[0, 0, 0]	n/a	catFR1	0	R1449T
522.364	3.81	539369	REC_WORD	3.81	n/a	COFFEE	Beverages	2	4	[0, 0, 0]	n/a	catFR1	0	R1449T
526.174	1.387	543179	REC_WORD_VV	1.387	n/a	<>	n/a	-999	4	[0, 0, 0]	n/a	catFR1	0	R1449T
527.561	1.561	544566	REC_WORD	1.561	n/a	CABBAGE	Vegetables	6	4	[0, 0, 0]	n/a	catFR1	0	R1449T
529.122	17.931	546127	REC_WORD	17.931	n/a	SPINACH	Vegetables	9	4	[0, 0, 0]	n/a	catFR1	0	R1449T
547.053	1.997	564064	REC_END	n/a	n/a	n/a	n/a	-999	4	[0, 0, 0]	n/a	catFR1	0	R1449T
549.05	10.348	566063	COUNTDOWN_START	n/a	n/a	n/a	n/a	-999	4	[0, 0, 0]	n/a	catFR1	0	R1449T
559.398	0.0	576408	COUNTDOWN_END	n/a	n/a	n/a	n/a	-999	4	[0, 0, 0]	n/a	catFR1	0	R1449T
559.398	2.284	576408	ENCODING_START	n/a	n/a	n/a	n/a	-999	5	[0, 0, 0]	n/a	catFR1	0	R1449T
561.682	1.616	578689	WORD	n/a	wordpools/wordpool_categorized_EN.txt	SOCKS	Clothing	1	5	[0, 0, 0]	n/a	catFR1	0	R1449T
563.298	0.767	580305	WORD_OFF	n/a	n/a	SOCKS	Clothing	1	5	[0, 0, 0]	n/a	catFR1	0	R1449T
564.065	1.6	581070	WORD	n/a	wordpools/wordpool_categorized_EN.txt	JACKET	Clothing	2	5	[0, 0, 0]	n/a	catFR1	0	R1449T
565.665	0.9	582671	WORD_OFF	n/a	n/a	JACKET	Clothing	2	5	[0, 0, 0]	n/a	catFR1	0	R1449T
566.565	1.616	583564	WORD	n/a	wordpools/wordpool_categorized_EN.txt	VIOLIN	Instruments	3	5	[0, 0, 0]	n/a	catFR1	0	R1449T
568.181	0.9	585180	WORD_OFF	n/a	n/a	VIOLIN	Instruments	3	5	[0, 0, 0]	n/a	catFR1	0	R1449T
569.081	1.617	586087	WORD	n/a	wordpools/wordpool_categorized_EN.txt	DRUM	Instruments	4	5	[0, 0, 0]	n/a	catFR1	0	R1449T
570.698	0.817	587702	WORD_OFF	n/a	n/a	DRUM	Instruments	4	5	[0, 0, 0]	n/a	catFR1	0	R1449T
571.515	1.599	588524	WORD	n/a	wordpools/wordpool_categorized_EN.txt	DOOR	Building	5	5	[0, 0, 0]	n/a	catFR1	0	R1449T
573.114	0.985	590126	WORD_OFF	n/a	n/a	DOOR	Building	5	5	[0, 0, 0]	n/a	catFR1	0	R1449T
574.099	1.599	591103	WORD	n/a	wordpools/wordpool_categorized_EN.txt	FLOOR	Building	6	5	[0, 0, 0]	n/a	catFR1	0	R1449T
575.698	1.0	592705	WORD_OFF	n/a	n/a	FLOOR	Building	6	5	[0, 0, 0]	n/a	catFR1	0	R1449T
576.698	1.617	593697	WORD	n/a	wordpools/wordpool_categorized_EN.txt	TROMBONE	Instruments	7	5	[0, 0, 0]	n/a	catFR1	0	R1449T
578.315	0.799	595312	WORD_OFF	n/a	n/a	TROMBONE	Instruments	7	5	[0, 0, 0]	n/a	catFR1	0	R1449T
579.114	1.601	596120	WORD	n/a	wordpools/wordpool_categorized_EN.txt	FLUTE	Instruments	8	5	[0, 0, 0]	n/a	catFR1	0	R1449T
580.715	0.983	597722	WORD_OFF	n/a	n/a	FLUTE	Instruments	8	5	[0, 0, 0]	n/a	catFR1	0	R1449T
581.698	1.616	598699	WORD	n/a	wordpools/wordpool_categorized_EN.txt	HALLWAY	Building	9	5	[0, 0, 0]	n/a	catFR1	0	R1449T
583.314	0.933	600315	WORD_OFF	n/a	n/a	HALLWAY	Building	9	5	[0, 0, 0]	n/a	catFR1	0	R1449T
584.247	1.6	601250	WORD	n/a	wordpools/wordpool_categorized_EN.txt	ROOM	Building	10	5	[0, 0, 0]	n/a	catFR1	0	R1449T
585.847	0.984	602852	WORD_OFF	n/a	n/a	ROOM	Building	10	5	[0, 0, 0]	n/a	catFR1	0	R1449T
586.831	1.6	603829	WORD	n/a	wordpools/wordpool_categorized_EN.txt	SKIRT	Clothing	11	5	[0, 0, 0]	n/a	catFR1	0	R1449T
588.431	0.917	605431	WORD_OFF	n/a	n/a	SKIRT	Clothing	11	5	[0, 0, 0]	n/a	catFR1	0	R1449T
589.348	1.601	606352	WORD	n/a	wordpools/wordpool_categorized_EN.txt	JEANS	Clothing	12	5	[0, 0, 0]	n/a	catFR1	0	R1449T
590.949	0.001	607951	PROB	0.001	n/a	n/a	n/a	-999	5	[7, 3, 6]	16	catFR1	0	R1449T
590.95	0.0	607952	START	n/a	n/a	n/a	n/a	-999	5	[-999, -999, -999]	n/a	catFR1	0	R1449T
590.948	0.002	607953	WORD_OFF	n/a	n/a	JEANS	Clothing	12	5	[0, 0, 0]	n/a	catFR1	0	R1449T
590.95	0.0	607953	ENCODING_END	n/a	n/a	n/a	n/a	-999	5	[0, 0, 0]	n/a	catFR1	0	R1449T
590.95	3.998	607953	DISTRACT_START	n/a	n/a	n/a	n/a	-999	5	[0, 0, 0]	n/a	catFR1	0	R1449T
594.948	3.368	611950	PROB	3.368	n/a	n/a	n/a	-999	5	[6, 2, 4]	12	catFR1	0	R1449T
598.316	3.716	615317	PROB	3.716	n/a	n/a	n/a	-999	5	[2, 5, 7]	14	catFR1	0	R1449T
602.032	4.584	619033	PROB	4.584	n/a	n/a	n/a	-999	5	[8, 2, 8]	18	catFR1	0	R1449T
606.616	2.682	623617	PROB	2.682	n/a	n/a	n/a	-999	5	[1, 3, 1]	5	catFR1	0	R1449T
609.298	3.267	626299	PROB	3.267	n/a	n/a	n/a	-999	5	[3, 4, 8]	15	catFR1	0	R1449T
612.565	0.0	629565	DISTRACT_END	n/a	n/a	n/a	n/a	-999	5	[0, 0, 0]	n/a	catFR1	0	R1449T
612.565	1.3	629566	STOP	n/a	n/a	n/a	n/a	-999	5	[-999, -999, -999]	n/a	catFR1	0	R1449T
613.865	3.845	630868	REC_START	n/a	n/a	n/a	n/a	-999	5	[0, 0, 0]	n/a	catFR1	0	R1449T
617.71	2.144	634710	REC_WORD	2.144	n/a	HALLWAY	Building	9	5	[0, 0, 0]	n/a	catFR1	0	R1449T
619.854	2.767	636854	REC_WORD	2.767	n/a	DOOR	Building	5	5	[0, 0, 0]	n/a	catFR1	0	R1449T
622.621	2.175	639621	REC_WORD	2.175	n/a	TROMBONE	Instruments	7	5	[0, 0, 0]	n/a	catFR1	0	R1449T
624.796	9.849	641796	REC_WORD	9.849	n/a	VIOLIN	Instruments	3	5	[0, 0, 0]	n/a	catFR1	0	R1449T
634.645	5.44	651645	REC_WORD	5.44	n/a	SKIRT	Clothing	11	5	[0, 0, 0]	n/a	catFR1	0	R1449T
640.085	4.971	657084	REC_WORD	4.971	n/a	JACKET	Clothing	2	5	[0, 0, 0]	n/a	catFR1	0	R1449T
645.056	1.825	662060	REC_END	n/a	n/a	n/a	n/a	-999	5	[0, 0, 0]	n/a	catFR1	0	R1449T
646.881	10.351	663888	COUNTDOWN_START	n/a	n/a	n/a	n/a	-999	5	[0, 0, 0]	n/a	catFR1	0	R1449T
657.232	0.0	674233	COUNTDOWN_END	n/a	n/a	n/a	n/a	-999	5	[0, 0, 0]	n/a	catFR1	0	R1449T
657.232	2.133	674233	ENCODING_START	n/a	n/a	n/a	n/a	-999	6	[0, 0, 0]	n/a	catFR1	0	R1449T
659.365	1.6	676359	WORD	n/a	wordpools/wordpool_categorized_EN.txt	STAIRS	Building	1	6	[0, 0, 0]	n/a	catFR1	0	R1449T
660.965	0.933	677960	WORD_OFF	n/a	n/a	STAIRS	Building	1	6	[0, 0, 0]	n/a	catFR1	0	R1449T
661.898	1.6	678895	WORD	n/a	wordpools/wordpool_categorized_EN.txt	ROOF	Building	2	6	[0, 0, 0]	n/a	catFR1	0	R1449T
663.498	0.85	680497	WORD_OFF	n/a	n/a	ROOF	Building	2	6	[0, 0, 0]	n/a	catFR1	0	R1449T
664.348	1.6	681347	WORD	n/a	wordpools/wordpool_categorized_EN.txt	DAFFODIL	Flowers	3	6	[0, 0, 0]	n/a	catFR1	0	R1449T
665.948	0.767	682948	WORD_OFF	n/a	n/a	DAFFODIL	Flowers	3	6	[0, 0, 0]	n/a	catFR1	0	R1449T
666.715	1.6	683714	WORD	n/a	wordpools/wordpool_categorized_EN.txt	MARIGOLD	Flowers	4	6	[0, 0, 0]	n/a	catFR1	0	R1449T
668.315	0.916	685315	WORD_OFF	n/a	n/a	MARIGOLD	Flowers	4	6	[0, 0, 0]	n/a	catFR1	0	R1449T
669.231	1.617	686236	WORD	n/a	wordpools/wordpool_categorized_EN.txt	CIDER	Beverages	5	6	[0, 0, 0]	n/a	catFR1	0	R1449T
670.848	0.783	687852	WORD_OFF	n/a	n/a	CIDER	Beverages	5	6	[0, 0, 0]	n/a	catFR1	0	R1449T
671.631	1.616	688631	WORD	n/a	wordpools/wordpool_categorized_EN.txt	BEER	Beverages	6	6	[0, 0, 0]	n/a	catFR1	0	R1449T
673.247	0.9	690247	WORD_OFF	n/a	n/a	BEER	Beverages	6	6	[0, 0, 0]	n/a	catFR1	0	R1449T
674.147	1.6	691139	WORD	n/a	wordpools/wordpool_categorized_EN.txt	VIOLET	Flowers	7	6	[0, 0, 0]	n/a	catFR1	0	R1449T
675.747	0.933	692741	WORD_OFF	n/a	n/a	VIOLET	Flowers	7	6	[0, 0, 0]	n/a	catFR1	0	R1449T
676.68	1.601	693676	WORD	n/a	wordpools/wordpool_categorized_EN.txt	CARNATION	Flowers	8	6	[0, 0, 0]	n/a	catFR1	0	R1449T
678.281	0.867	695278	WORD_OFF	n/a	n/a	CARNATION	Flowers	8	6	[0, 0, 0]	n/a	catFR1	0	R1449T
679.148	1.6	696142	WORD	n/a	wordpools/wordpool_categorized_EN.txt	LEMONADE	Beverages	9	6	[0, 0, 0]	n/a	catFR1	0	R1449T
680.748	0.85	697743	WORD_OFF	n/a	n/a	LEMONADE	Beverages	9	6	[0, 0, 0]	n/a	catFR1	0	R1449T
681.598	1.6	698594	WORD	n/a	wordpools/wordpool_categorized_EN.txt	MILK	Beverages	10	6	[0, 0, 0]	n/a	catFR1	0	R1449T
683.198	0.866	700195	WORD_OFF	n/a	n/a	MILK	Beverages	10	6	[0, 0, 0]	n/a	catFR1	0	R1449T
684.064	1.601	701059	WORD	n/a	wordpools/wordpool_categorized_EN.txt	BATHROOM	Building	11	6	[0, 0, 0]	n/a	catFR1	0	R1449T
685.665	0.999	702661	WORD_OFF	n/a	n/a	BATHROOM	Building	11	6	[0, 0, 0]	n/a	catFR1	0	R1449T
686.664	1.601	703667	WORD	n/a	wordpools/wordpool_categorized_EN.txt	WALL	Building	12	6	[0, 0, 0]	n/a	catFR1	0	R1449T
688.265	0.001	705262	PROB	0.001	n/a	n/a	n/a	-999	6	[3, 2, 2]	7	catFR1	0	R1449T
688.266	0.0	705263	START	n/a	n/a	n/a	n/a	-999	6	[-999, -999, -999]	n/a	catFR1	0	R1449T
688.265	0.001	705268	WORD_OFF	n/a	n/a	WALL	Building	12	6	[0, 0, 0]	n/a	catFR1	0	R1449T
688.266	0.0	705268	ENCODING_END	n/a	n/a	n/a	n/a	-999	6	[0, 0, 0]	n/a	catFR1	0	R1449T
688.266	3.55	705268	DISTRACT_START	n/a	n/a	n/a	n/a	-999	6	[0, 0, 0]	n/a	catFR1	0	R1449T
691.816	3.782	708813	PROB	3.782	n/a	n/a	n/a	-999	6	[3, 3, 6]	12	catFR1	0	R1449T
695.598	5.067	712595	PROB	5.067	n/a	n/a	n/a	-999	6	[7, 7, 6]	20	catFR1	0	R1449T
700.665	3.217	717661	PROB	3.217	n/a	n/a	n/a	-999	6	[1, 2, 7]	10	catFR1	0	R1449T
703.882	3.833	720878	PROB	3.833	n/a	n/a	n/a	-999	6	[2, 4, 6]	12	catFR1	0	R1449T
707.715	6.316	724711	PROB	6.316	n/a	n/a	n/a	-999	6	[3, 3, 3]	9	catFR1	0	R1449T
714.031	0.0	731027	STOP	n/a	n/a	n/a	n/a	-999	6	[-999, -999, -999]	n/a	catFR1	0	R1449T
714.031	1.084	731032	DISTRACT_END	n/a	n/a	n/a	n/a	-999	6	[0, 0, 0]	n/a	catFR1	0	R1449T
715.115	0.749	732109	REC_START	n/a	n/a	n/a	n/a	-999	6	[0, 0, 0]	n/a	catFR1	0	R1449T
715.864	1.955	732860	REC_WORD	1.955	n/a	BATHROOM	Building	11	6	[0, 0, 0]	n/a	catFR1	0	R1449T
717.819	2.03	734814	REC_WORD	2.03	n/a	WALL	Building	12	6	[0, 0, 0]	n/a	catFR1	0	R1449T
719.849	2.005	736844	REC_WORD	2.005	n/a	CIDER	Beverages	5	6	[0, 0, 0]	n/a	catFR1	0	R1449T
721.854	1.829	738849	REC_WORD	1.829	n/a	BEER	Beverages	6	6	[0, 0, 0]	n/a	catFR1	0	R1449T
723.683	1.79	740678	REC_WORD	1.79	n/a	MARIGOLD	Flowers	4	6	[0, 0, 0]	n/a	catFR1	0	R1449T
725.473	20.838	742468	REC_WORD	20.838	n/a	DAFFODIL	Flowers	3	6	[0, 0, 0]	n/a	catFR1	0	R1449T
746.311	1.92	763314	REC_END	n/a	n/a	n/a	n/a	-999	6	[0, 0, 0]	n/a	catFR1	0	R1449T
748.231	10.351	765228	COUNTDOWN_START	n/a	n/a	n/a	n/a	-999	6	[0, 0, 0]	n/a	catFR1	0	R1449T
758.582	0.0	775573	COUNTDOWN_END	n/a	n/a	n/a	n/a	-999	6	[0, 0, 0]	n/a	catFR1	0	R1449T
758.582	2.081	775573	ENCODING_START	n/a	n/a	n/a	n/a	-999	7	[0, 0, 0]	n/a	catFR1	0	R1449T
760.663	1.602	777656	WORD	n/a	wordpools/wordpool_categorized_EN.txt	VALLEY	Landscapes	1	7	[0, 0, 0]	n/a	catFR1	0	R1449T
762.265	0.949	779257	WORD_OFF	n/a	n/a	VALLEY	Landscapes	1	7	[0, 0, 0]	n/a	catFR1	0	R1449T
763.214	1.6	780207	WORD	n/a	wordpools/wordpool_categorized_EN.txt	HILLS	Landscapes	2	7	[0, 0, 0]	n/a	catFR1	0	R1449T
764.814	0.917	781808	WORD_OFF	n/a	n/a	HILLS	Landscapes	2	7	[0, 0, 0]	n/a	catFR1	0	R1449T
765.731	1.617	782729	WORD	n/a	wordpools/wordpool_categorized_EN.txt	WHALE	OceanAnimals	3	7	[0, 0, 0]	n/a	catFR1	0	R1449T
767.348	0.949	784345	WORD_OFF	n/a	n/a	WHALE	OceanAnimals	3	7	[0, 0, 0]	n/a	catFR1	0	R1449T
768.297	1.617	785294	WORD	n/a	wordpools/wordpool_categorized_EN.txt	LOBSTER	OceanAnimals	4	7	[0, 0, 0]	n/a	catFR1	0	R1449T
769.914	0.984	786910	WORD_OFF	n/a	n/a	LOBSTER	OceanAnimals	4	7	[0, 0, 0]	n/a	catFR1	0	R1449T
770.898	1.6	787888	WORD	n/a	wordpools/wordpool_categorized_EN.txt	SHEEP	FarmAnimals	5	7	[0, 0, 0]	n/a	catFR1	0	R1449T
772.498	0.85	789489	WORD_OFF	n/a	n/a	SHEEP	FarmAnimals	5	7	[0, 0, 0]	n/a	catFR1	0	R1449T
773.348	1.617	790339	WORD	n/a	wordpools/wordpool_categorized_EN.txt	BULL	FarmAnimals	6	7	[0, 0, 0]	n/a	catFR1	0	R1449T
774.965	0.766	791955	WORD_OFF	n/a	n/a	BULL	FarmAnimals	6	7	[0, 0, 0]	n/a	catFR1	0	R1449T
775.731	1.617	792720	WORD	n/a	wordpools/wordpool_categorized_EN.txt	JELLYFISH	OceanAnimals	7	7	[0, 0, 0]	n/a	catFR1	0	R1449T
777.348	0.984	794336	WORD_OFF	n/a	n/a	JELLYFISH	OceanAnimals	7	7	[0, 0, 0]	n/a	catFR1	0	R1449T
778.332	1.6	795328	WORD	n/a	wordpools/wordpool_categorized_EN.txt	OCTOPUS	OceanAnimals	8	7	[0, 0, 0]	n/a	catFR1	0	R1449T
779.932	0.966	796929	WORD_OFF	n/a	n/a	OCTOPUS	OceanAnimals	8	7	[0, 0, 0]	n/a	catFR1	0	R1449T
780.898	1.616	797893	WORD	n/a	wordpools/wordpool_categorized_EN.txt	RIVER	Landscapes	9	7	[0, 0, 0]	n/a	catFR1	0	R1449T
782.514	0.968	799508	WORD_OFF	n/a	n/a	RIVER	Landscapes	9	7	[0, 0, 0]	n/a	catFR1	0	R1449T
783.482	1.616	800472	WORD	n/a	wordpools/wordpool_categorized_EN.txt	LAKE	Landscapes	10	7	[0, 0, 0]	n/a	catFR1	0	R1449T
785.098	0.8	802087	WORD_OFF	n/a	n/a	LAKE	Landscapes	10	7	[0, 0, 0]	n/a	catFR1	0	R1449T
785.898	1.617	802895	WORD	n/a	wordpools/wordpool_categorized_EN.txt	TURKEY	FarmAnimals	11	7	[0, 0, 0]	n/a	catFR1	0	R1449T
787.515	0.8	804511	WORD_OFF	n/a	n/a	TURKEY	FarmAnimals	11	7	[0, 0, 0]	n/a	catFR1	0	R1449T
788.315	1.616	805304	WORD	n/a	wordpools/wordpool_categorized_EN.txt	CHICKEN	FarmAnimals	12	7	[0, 0, 0]	n/a	catFR1	0	R1449T
789.931	0.001	806920	WORD_OFF	n/a	n/a	CHICKEN	FarmAnimals	12	7	[0, 0, 0]	n/a	catFR1	0	R1449T
789.932	0.0	806920	ENCODING_END	n/a	n/a	n/a	n/a	-999	7	[0, 0, 0]	n/a	catFR1	0	R1449T
789.931	0.001	806923	PROB	0.001	n/a	n/a	n/a	-999	7	[1, 1, 4]	6	catFR1	0	R1449T
789.932	0.0	806924	START	n/a	n/a	n/a	n/a	-999	7	[-999, -999, -999]	n/a	catFR1	0	R1449T
789.932	3.033	806934	DISTRACT_START	n/a	n/a	n/a	n/a	-999	7	[0, 0, 0]	n/a	catFR1	0	R1449T
792.965	4.133	809957	PROB	4.133	n/a	n/a	n/a	-999	7	[4, 2, 6]	13	catFR1	0	R1449T
797.098	3.617	814090	PROB	3.617	n/a	n/a	n/a	-999	7	[5, 1, 5]	11	catFR1	0	R1449T
800.715	6.152	817706	PROB	6.152	n/a	n/a	n/a	-999	7	[8, 5, 4]	17	catFR1	0	R1449T
806.867	2.915	823858	PROB	2.915	n/a	n/a	n/a	-999	7	[2, 2, 1]	5	catFR1	0	R1449T
809.782	3.299	826773	PROB	3.299	n/a	n/a	n/a	-999	7	[2, 5, 4]	11	catFR1	0	R1449T
813.081	0.0	830072	STOP	n/a	n/a	n/a	n/a	-999	7	[-999, -999, -999]	n/a	catFR1	0	R1449T
813.081	1.05	830076	DISTRACT_END	n/a	n/a	n/a	n/a	-999	7	[0, 0, 0]	n/a	catFR1	0	R1449T
814.131	3.217	831125	REC_START	n/a	n/a	n/a	n/a	-999	7	[0, 0, 0]	n/a	catFR1	0	R1449T
817.348	1.608	834339	REC_WORD	1.608	n/a	RIVER	Landscapes	9	7	[0, 0, 0]	n/a	catFR1	0	R1449T
818.956	3.033	835946	REC_WORD	3.033	n/a	HILL	n/a	-999	7	[0, 0, 0]	n/a	catFR1	0	R1449T
821.989	3.88	838979	REC_WORD	3.88	n/a	VALLEY	Landscapes	1	7	[0, 0, 0]	n/a	catFR1	0	R1449T
825.869	4.615	842859	REC_WORD	4.615	n/a	LAKE	Landscapes	10	7	[0, 0, 0]	n/a	catFR1	0	R1449T
830.484	14.847	847474	REC_WORD	14.847	n/a	OCTOPUS	OceanAnimals	8	7	[0, 0, 0]	n/a	catFR1	0	R1449T
845.331	2.433	862316	REC_END	n/a	n/a	n/a	n/a	-999	7	[0, 0, 0]	n/a	catFR1	0	R1449T
847.764	10.35	864753	COUNTDOWN_START	n/a	n/a	n/a	n/a	-999	7	[0, 0, 0]	n/a	catFR1	0	R1449T
858.114	0.0	875099	COUNTDOWN_END	n/a	n/a	n/a	n/a	-999	7	[0, 0, 0]	n/a	catFR1	0	R1449T
858.114	1.95	875099	ENCODING_START	n/a	n/a	n/a	n/a	-999	8	[0, 0, 0]	n/a	catFR1	0	R1449T
860.064	1.6	877054	WORD	n/a	wordpools/wordpool_categorized_EN.txt	LEG	BodyParts	1	8	[0, 0, 0]	n/a	catFR1	0	R1449T
861.664	0.968	878656	WORD_OFF	n/a	n/a	LEG	BodyParts	1	8	[0, 0, 0]	n/a	catFR1	0	R1449T
862.632	1.616	879619	WORD	n/a	wordpools/wordpool_categorized_EN.txt	FINGERS	BodyParts	2	8	[0, 0, 0]	n/a	catFR1	0	R1449T
864.248	0.967	881235	WORD_OFF	n/a	n/a	FINGERS	BodyParts	2	8	[0, 0, 0]	n/a	catFR1	0	R1449T
865.215	1.6	882198	WORD	n/a	wordpools/wordpool_categorized_EN.txt	HURRICANE	Weather	3	8	[0, 0, 0]	n/a	catFR1	0	R1449T
866.815	0.816	883800	WORD_OFF	n/a	n/a	HURRICANE	Weather	3	8	[0, 0, 0]	n/a	catFR1	0	R1449T
867.631	1.617	884622	WORD	n/a	wordpools/wordpool_categorized_EN.txt	THUNDER	Weather	4	8	[0, 0, 0]	n/a	catFR1	0	R1449T
869.248	0.9	886237	WORD_OFF	n/a	n/a	THUNDER	Weather	4	8	[0, 0, 0]	n/a	catFR1	0	R1449T
870.148	1.617	887144	WORD	n/a	wordpools/wordpool_categorized_EN.txt	TELEVISION	Electronics	5	8	[0, 0, 0]	n/a	catFR1	0	R1449T
871.765	0.9	888760	WORD_OFF	n/a	n/a	TELEVISION	Electronics	5	8	[0, 0, 0]	n/a	catFR1	0	R1449T
872.665	1.6	889653	WORD	n/a	wordpools/wordpool_categorized_EN.txt	SPEAKER	Electronics	6	8	[0, 0, 0]	n/a	catFR1	0	R1449T
874.265	0.916	891254	WORD_OFF	n/a	n/a	SPEAKER	Electronics	6	8	[0, 0, 0]	n/a	catFR1	0	R1449T
875.181	1.6	892175	WORD	n/a	wordpools/wordpool_categorized_EN.txt	HAND	BodyParts	7	8	[0, 0, 0]	n/a	catFR1	0	R1449T
876.781	0.834	893777	WORD_OFF	n/a	n/a	HAND	BodyParts	7	8	[0, 0, 0]	n/a	catFR1	0	R1449T
877.615	1.616	894613	WORD	n/a	wordpools/wordpool_categorized_EN.txt	HEAD	BodyParts	8	8	[0, 0, 0]	n/a	catFR1	0	R1449T
879.231	0.9	896214	WORD_OFF	n/a	n/a	HEAD	BodyParts	8	8	[0, 0, 0]	n/a	catFR1	0	R1449T
880.131	1.616	897121	WORD	n/a	wordpools/wordpool_categorized_EN.txt	THUNDERSTORM	Weather	9	8	[0, 0, 0]	n/a	catFR1	0	R1449T
881.747	1.001	898737	WORD_OFF	n/a	n/a	THUNDERSTORM	Weather	9	8	[0, 0, 0]	n/a	catFR1	0	R1449T
882.748	1.6	899743	WORD	n/a	wordpools/wordpool_categorized_EN.txt	CLOUD	Weather	10	8	[0, 0, 0]	n/a	catFR1	0	R1449T
884.348	0.884	901344	WORD_OFF	n/a	n/a	CLOUD	Weather	10	8	[0, 0, 0]	n/a	catFR1	0	R1449T
885.232	1.615	902223	WORD	n/a	wordpools/wordpool_categorized_EN.txt	SCANNER	Electronics	11	8	[0, 0, 0]	n/a	catFR1	0	R1449T
886.847	1.001	903838	WORD_OFF	n/a	n/a	SCANNER	Electronics	11	8	[0, 0, 0]	n/a	catFR1	0	R1449T
887.848	1.618	904831	WORD	n/a	wordpools/wordpool_categorized_EN.txt	CALCULATOR	Electronics	12	8	[0, 0, 0]	n/a	catFR1	0	R1449T
889.466	0.0	906453	START	n/a	n/a	n/a	n/a	-999	8	[-999, -999, -999]	n/a	catFR1	0	R1449T
889.466	0.0	906453	PROB	0.0	n/a	n/a	n/a	-999	8	[7, 3, 7]	17	catFR1	0	R1449T
889.465	0.001	906460	WORD_OFF	n/a	n/a	CALCULATOR	Electronics	12	8	[0, 0, 0]	n/a	catFR1	0	R1449T
889.466	0.0	906460	ENCODING_END	n/a	n/a	n/a	n/a	-999	8	[0, 0, 0]	n/a	catFR1	0	R1449T
889.466	4.166	906460	DISTRACT_START	n/a	n/a	n/a	n/a	-999	8	[0, 0, 0]	n/a	catFR1	0	R1449T
893.632	5.633	910619	PROB	5.633	n/a	n/a	n/a	-999	8	[4, 5, 7]	16	catFR1	0	R1449T
899.265	3.651	916251	PROB	3.651	n/a	n/a	n/a	-999	8	[3, 6, 5]	14	catFR1	0	R1449T
902.916	3.266	919902	PROB	3.266	n/a	n/a	n/a	-999	8	[1, 3, 4]	8	catFR1	0	R1449T
906.182	4.199	923168	PROB	4.199	n/a	n/a	n/a	-999	8	[3, 6, 2]	11	catFR1	0	R1449T
910.381	0.0	927363	DISTRACT_END	n/a	n/a	n/a	n/a	-999	8	[0, 0, 0]	n/a	catFR1	0	R1449T
910.381	1.0	927367	STOP	n/a	n/a	n/a	n/a	-999	8	[-999, -999, -999]	n/a	catFR1	0	R1449T
911.381	1.33	928369	REC_START	n/a	n/a	n/a	n/a	-999	8	[0, 0, 0]	n/a	catFR1	0	R1449T
912.711	1.559	929697	REC_WORD	1.559	n/a	THUNDERSTORM	Weather	9	8	[0, 0, 0]	n/a	catFR1	0	R1449T
914.27	2.216	931256	REC_WORD	2.216	n/a	CLOUD	Weather	10	8	[0, 0, 0]	n/a	catFR1	0	R1449T
916.486	2.052	933472	REC_WORD	2.052	n/a	LEG	BodyParts	1	8	[0, 0, 0]	n/a	catFR1	0	R1449T
918.538	3.697	935523	REC_WORD	3.697	n/a	FINGERS	BodyParts	2	8	[0, 0, 0]	n/a	catFR1	0	R1449T
922.235	20.363	939220	REC_WORD	20.363	n/a	HURRICANE	Weather	3	8	[0, 0, 0]	n/a	catFR1	0	R1449T
942.598	1.117	959589	REC_END	n/a	n/a	n/a	n/a	-999	8	[0, 0, 0]	n/a	catFR1	0	R1449T
943.715	10.35	960708	COUNTDOWN_START	n/a	n/a	n/a	n/a	-999	8	[0, 0, 0]	n/a	catFR1	0	R1449T
954.065	0.0	971053	COUNTDOWN_END	n/a	n/a	n/a	n/a	-999	8	[0, 0, 0]	n/a	catFR1	0	R1449T
954.065	2.299	971053	ENCODING_START	n/a	n/a	n/a	n/a	-999	9	[0, 0, 0]	n/a	catFR1	0	R1449T
956.364	1.601	973349	WORD	n/a	wordpools/wordpool_categorized_EN.txt	PEAS	Vegetables	1	9	[0, 0, 0]	n/a	catFR1	0	R1449T
957.965	0.799	974950	WORD_OFF	n/a	n/a	PEAS	Vegetables	1	9	[0, 0, 0]	n/a	catFR1	0	R1449T
958.764	1.601	975744	WORD	n/a	wordpools/wordpool_categorized_EN.txt	CAULIFLOWER	Vegetables	2	9	[0, 0, 0]	n/a	catFR1	0	R1449T
960.365	0.768	977345	WORD_OFF	n/a	n/a	CAULIFLOWER	Vegetables	2	9	[0, 0, 0]	n/a	catFR1	0	R1449T
961.133	1.615	978111	WORD	n/a	wordpools/wordpool_categorized_EN.txt	OCEAN	Landscapes	3	9	[0, 0, 0]	n/a	catFR1	0	R1449T
962.748	0.833	979740	WORD_OFF	n/a	n/a	OCEAN	Landscapes	3	9	[0, 0, 0]	n/a	catFR1	0	R1449T
963.581	1.6	980562	WORD	n/a	wordpools/wordpool_categorized_EN.txt	BEACH	Landscapes	4	9	[0, 0, 0]	n/a	catFR1	0	R1449T
965.181	0.817	982164	WORD_OFF	n/a	n/a	BEACH	Landscapes	4	9	[0, 0, 0]	n/a	catFR1	0	R1449T
965.998	1.6	982986	WORD	n/a	wordpools/wordpool_categorized_EN.txt	FLY	Insects	5	9	[0, 0, 0]	n/a	catFR1	0	R1449T
967.598	0.933	984587	WORD_OFF	n/a	n/a	FLY	Insects	5	9	[0, 0, 0]	n/a	catFR1	0	R1449T
968.531	1.602	985522	WORD	n/a	wordpools/wordpool_categorized_EN.txt	BEE	Insects	6	9	[0, 0, 0]	n/a	catFR1	0	R1449T
970.133	0.765	987124	WORD_OFF	n/a	n/a	BEE	Insects	6	9	[0, 0, 0]	n/a	catFR1	0	R1449T
970.898	1.6	987889	WORD	n/a	wordpools/wordpool_categorized_EN.txt	WOODS	Landscapes	7	9	[0, 0, 0]	n/a	catFR1	0	R1449T
972.498	0.883	989476	WORD_OFF	n/a	n/a	WOODS	Landscapes	7	9	[0, 0, 0]	n/a	catFR1	0	R1449T
973.381	1.6	990369	WORD	n/a	wordpools/wordpool_categorized_EN.txt	CREEK	Landscapes	8	9	[0, 0, 0]	n/a	catFR1	0	R1449T
974.981	0.816	991970	WORD_OFF	n/a	n/a	CREEK	Landscapes	8	9	[0, 0, 0]	n/a	catFR1	0	R1449T
975.797	1.617	992778	WORD	n/a	wordpools/wordpool_categorized_EN.txt	CRICKET	Insects	9	9	[0, 0, 0]	n/a	catFR1	0	R1449T
977.414	0.784	994394	WORD_OFF	n/a	n/a	CRICKET	Insects	9	9	[0, 0, 0]	n/a	catFR1	0	R1449T
978.198	1.6	995187	WORD	n/a	wordpools/wordpool_categorized_EN.txt	BUTTERFLY	Insects	10	9	[0, 0, 0]	n/a	catFR1	0	R1449T
979.798	0.8	996774	WORD_OFF	n/a	n/a	BUTTERFLY	Insects	10	9	[0, 0, 0]	n/a	catFR1	0	R1449T
980.598	1.6	997582	WORD	n/a	wordpools/wordpool_categorized_EN.txt	CARROT	Vegetables	11	9	[0, 0, 0]	n/a	catFR1	0	R1449T
982.198	0.883	999184	WORD_OFF	n/a	n/a	CARROT	Vegetables	11	9	[0, 0, 0]	n/a	catFR1	0	R1449T
983.081	1.6	1000062	WORD	n/a	wordpools/wordpool_categorized_EN.txt	ONION	Vegetables	12	9	[0, 0, 0]	n/a	catFR1	0	R1449T
984.681	0.002	1001664	WORD_OFF	n/a	n/a	ONION	Vegetables	12	9	[0, 0, 0]	n/a	catFR1	0	R1449T
984.683	0.0	1001664	ENCODING_END	n/a	n/a	n/a	n/a	-999	9	[0, 0, 0]	n/a	catFR1	0	R1449T
984.683	0.0	1001664	DISTRACT_START	n/a	n/a	n/a	n/a	-999	9	[0, 0, 0]	n/a	catFR1	0	R1449T
984.682	0.001	1001664	PROB	0.001	n/a	n/a	n/a	-999	9	[6, 8, 6]	20	catFR1	0	R1449T
984.683	4.383	1001665	START	n/a	n/a	n/a	n/a	-999	9	[-999, -999, -999]	n/a	catFR1	0	R1449T
989.066	4.915	1006048	PROB	4.915	n/a	n/a	n/a	-999	9	[5, 8, 6]	19	catFR1	0	R1449T
993.981	2.867	1010963	PROB	2.867	n/a	n/a	n/a	-999	9	[2, 2, 4]	8	catFR1	0	R1449T
996.848	4.484	1013830	PROB	4.484	n/a	n/a	n/a	-999	9	[3, 8, 2]	13	catFR1	0	R1449T
1001.332	3.483	1018313	PROB	3.483	n/a	n/a	n/a	-999	9	[7, 3, 8]	18	catFR1	0	R1449T
1004.815	0.0	1021796	STOP	n/a	n/a	n/a	n/a	-999	9	[-999, -999, -999]	n/a	catFR1	0	R1449T
1004.815	1.233	1021801	DISTRACT_END	n/a	n/a	n/a	n/a	-999	9	[0, 0, 0]	n/a	catFR1	0	R1449T
1006.048	1.18	1023034	REC_START	n/a	n/a	n/a	n/a	-999	9	[0, 0, 0]	n/a	catFR1	0	R1449T
1007.228	1.742	1024209	REC_WORD	1.742	n/a	BEE	Insects	6	9	[0, 0, 0]	n/a	catFR1	0	R1449T
1008.97	4.932	1025951	REC_WORD	4.932	n/a	FLY	Insects	5	9	[0, 0, 0]	n/a	catFR1	0	R1449T
1013.902	1.659	1030883	REC_WORD	1.659	n/a	OCEAN	Landscapes	3	9	[0, 0, 0]	n/a	catFR1	0	R1449T
1015.561	21.669	1032542	REC_WORD	21.669	n/a	BEACH	Landscapes	4	9	[0, 0, 0]	n/a	catFR1	0	R1449T
1037.23	1.617	1054211	REC_END	n/a	n/a	n/a	n/a	-999	9	[0, 0, 0]	n/a	catFR1	0	R1449T
1038.847	10.351	1055827	COUNTDOWN_START	n/a	n/a	n/a	n/a	-999	9	[0, 0, 0]	n/a	catFR1	0	R1449T
1049.198	0.0	1066172	COUNTDOWN_END	n/a	n/a	n/a	n/a	-999	9	[0, 0, 0]	n/a	catFR1	0	R1449T
1049.198	2.065	1066186	ENCODING_START	n/a	n/a	n/a	n/a	-999	10	[0, 0, 0]	n/a	catFR1	0	R1449T
1051.263	1.602	1068241	WORD	n/a	wordpools/wordpool_categorized_EN.txt	FOOTBALL	Toys	1	10	[0, 0, 0]	n/a	catFR1	0	R1449T
1052.865	0.783	1069842	WORD_OFF	n/a	n/a	FOOTBALL	Toys	1	10	[0, 0, 0]	n/a	catFR1	0	R1449T
1053.648	1.617	1070622	WORD	n/a	wordpools/wordpool_categorized_EN.txt	DOLL	Toys	2	10	[0, 0, 0]	n/a	catFR1	0	R1449T
1055.265	0.983	1072251	WORD_OFF	n/a	n/a	DOLL	Toys	2	10	[0, 0, 0]	n/a	catFR1	0	R1449T
1056.248	1.6	1073229	WORD	n/a	wordpools/wordpool_categorized_EN.txt	LIGHTNING	Weather	3	10	[0, 0, 0]	n/a	catFR1	0	R1449T
1057.848	0.883	1074831	WORD_OFF	n/a	n/a	LIGHTNING	Weather	3	10	[0, 0, 0]	n/a	catFR1	0	R1449T
1058.731	1.601	1075709	WORD	n/a	wordpools/wordpool_categorized_EN.txt	FOG	Weather	4	10	[0, 0, 0]	n/a	catFR1	0	R1449T
1060.332	0.8	1077311	WORD_OFF	n/a	n/a	FOG	Weather	4	10	[0, 0, 0]	n/a	catFR1	0	R1449T
1061.132	1.616	1078118	WORD	n/a	wordpools/wordpool_categorized_EN.txt	CELLO	Instruments	5	10	[0, 0, 0]	n/a	catFR1	0	R1449T
1062.748	0.967	1079734	WORD_OFF	n/a	n/a	CELLO	Instruments	5	10	[0, 0, 0]	n/a	catFR1	0	R1449T
1063.715	1.616	1080698	WORD	n/a	wordpools/wordpool_categorized_EN.txt	BANJO	Instruments	6	10	[0, 0, 0]	n/a	catFR1	0	R1449T
1065.331	0.8	1082313	WORD_OFF	n/a	n/a	BANJO	Instruments	6	10	[0, 0, 0]	n/a	catFR1	0	R1449T
1066.131	1.6	1083107	WORD	n/a	wordpools/wordpool_categorized_EN.txt	SNOW	Weather	7	10	[0, 0, 0]	n/a	catFR1	0	R1449T
1067.731	0.834	1084708	WORD_OFF	n/a	n/a	SNOW	Weather	7	10	[0, 0, 0]	n/a	catFR1	0	R1449T
1068.565	1.6	1085544	WORD	n/a	wordpools/wordpool_categorized_EN.txt	WIND	Weather	8	10	[0, 0, 0]	n/a	catFR1	0	R1449T
1070.165	0.85	1087145	WORD_OFF	n/a	n/a	WIND	Weather	8	10	[0, 0, 0]	n/a	catFR1	0	R1449T
1071.015	1.617	1087996	WORD	n/a	wordpools/wordpool_categorized_EN.txt	SLINKY	Toys	9	10	[0, 0, 0]	n/a	catFR1	0	R1449T
1072.632	0.933	1089611	WORD_OFF	n/a	n/a	SLINKY	Toys	9	10	[0, 0, 0]	n/a	catFR1	0	R1449T
1073.565	1.615	1090547	WORD	n/a	wordpools/wordpool_categorized_EN.txt	DOLLHOUSE	Toys	10	10	[0, 0, 0]	n/a	catFR1	0	R1449T
1075.18	0.785	1092162	WORD_OFF	n/a	n/a	DOLLHOUSE	Toys	10	10	[0, 0, 0]	n/a	catFR1	0	R1449T
1075.965	1.616	1092942	WORD	n/a	wordpools/wordpool_categorized_EN.txt	TRUMPET	Instruments	11	10	[0, 0, 0]	n/a	catFR1	0	R1449T
1077.581	0.817	1094557	WORD_OFF	n/a	n/a	TRUMPET	Instruments	11	10	[0, 0, 0]	n/a	catFR1	0	R1449T
1078.398	1.617	1095379	WORD	n/a	wordpools/wordpool_categorized_EN.txt	BASS	Instruments	12	10	[0, 0, 0]	n/a	catFR1	0	R1449T
1080.015	0.001	1096992	PROB	0.001	n/a	n/a	n/a	-999	10	[5, 5, 1]	11	catFR1	0	R1449T
1080.016	0.0	1096993	START	n/a	n/a	n/a	n/a	-999	10	[-999, -999, -999]	n/a	catFR1	0	R1449T
1080.015	0.001	1096995	WORD_OFF	n/a	n/a	BASS	Instruments	12	10	[0, 0, 0]	n/a	catFR1	0	R1449T
1080.016	0.0	1096995	ENCODING_END	n/a	n/a	n/a	n/a	-999	10	[0, 0, 0]	n/a	catFR1	0	R1449T
1080.016	3.983	1096995	DISTRACT_START	n/a	n/a	n/a	n/a	-999	10	[0, 0, 0]	n/a	catFR1	0	R1449T
1083.999	3.465	1100976	PROB	3.465	n/a	n/a	n/a	-999	10	[5, 2, 5]	12	catFR1	0	R1449T
1087.464	4.535	1104441	PROB	4.535	n/a	n/a	n/a	-999	10	[6, 2, 6]	14	catFR1	0	R1449T
1091.999	2.617	1108976	PROB	2.617	n/a	n/a	n/a	-999	10	[1, 1, 2]	4	catFR1	0	R1449T
1094.616	3.366	1111593	PROB	3.366	n/a	n/a	n/a	-999	10	[5, 1, 3]	9	catFR1	0	R1449T
1097.982	4.699	1114959	PROB	4.699	n/a	n/a	n/a	-999	10	[5, 8, 8]	21	catFR1	0	R1449T
1102.681	0.0	1119655	DISTRACT_END	n/a	n/a	n/a	n/a	-999	10	[0, 0, 0]	n/a	catFR1	0	R1449T
1102.681	1.184	1119657	STOP	n/a	n/a	n/a	n/a	-999	10	[-999, -999, -999]	n/a	catFR1	0	R1449T
1103.865	0.898	1120845	REC_START	n/a	n/a	n/a	n/a	-999	10	[0, 0, 0]	n/a	catFR1	0	R1449T
1104.763	1.392	1121739	REC_WORD	1.392	n/a	LIGHTNING	Weather	3	10	[0, 0, 0]	n/a	catFR1	0	R1449T
1106.155	1.454	1123131	REC_WORD	1.454	n/a	FOG	Weather	4	10	[0, 0, 0]	n/a	catFR1	0	R1449T
1107.609	1.822	1124585	REC_WORD	1.822	n/a	SNOW	Weather	7	10	[0, 0, 0]	n/a	catFR1	0	R1449T
1109.431	1.673	1126407	REC_WORD	1.673	n/a	WIND	Weather	8	10	[0, 0, 0]	n/a	catFR1	0	R1449T
1111.104	2.149	1128080	REC_WORD	2.149	n/a	FOOTBALL	Toys	1	10	[0, 0, 0]	n/a	catFR1	0	R1449T
1113.253	1.769	1130229	REC_WORD	1.769	n/a	TRUMPET	Instruments	11	10	[0, 0, 0]	n/a	catFR1	0	R1449T
1115.022	1.588	1131998	REC_WORD	1.588	n/a	BASS	Instruments	12	10	[0, 0, 0]	n/a	catFR1	0	R1449T
1116.61	18.471	1133586	REC_WORD	18.471	n/a	BASS	Instruments	12	10	[0, 0, 0]	n/a	catFR1	0	R1449T
1135.081	1.934	1152051	REC_END	n/a	n/a	n/a	n/a	-999	10	[0, 0, 0]	n/a	catFR1	0	R1449T
1137.015	10.349	1153992	COUNTDOWN_START	n/a	n/a	n/a	n/a	-999	10	[0, 0, 0]	n/a	catFR1	0	R1449T
1147.364	0.0	1164337	COUNTDOWN_END	n/a	n/a	n/a	n/a	-999	10	[0, 0, 0]	n/a	catFR1	0	R1449T
1147.364	2.116	1164337	ENCODING_START	n/a	n/a	n/a	n/a	-999	11	[0, 0, 0]	n/a	catFR1	0	R1449T
1149.48	1.602	1166449	WORD	n/a	wordpools/wordpool_categorized_EN.txt	PIG	FarmAnimals	1	11	[0, 0, 0]	n/a	catFR1	0	R1449T
1151.082	0.783	1168064	WORD_OFF	n/a	n/a	PIG	FarmAnimals	1	11	[0, 0, 0]	n/a	catFR1	0	R1449T
1151.865	1.6	1168844	WORD	n/a	wordpools/wordpool_categorized_EN.txt	GOAT	FarmAnimals	2	11	[0, 0, 0]	n/a	catFR1	0	R1449T
1153.465	0.833	1170445	WORD_OFF	n/a	n/a	GOAT	FarmAnimals	2	11	[0, 0, 0]	n/a	catFR1	0	R1449T
1154.298	1.6	1171267	WORD	n/a	wordpools/wordpool_categorized_EN.txt	RAIN	Weather	3	11	[0, 0, 0]	n/a	catFR1	0	R1449T
1155.898	0.8	1172868	WORD_OFF	n/a	n/a	RAIN	Weather	3	11	[0, 0, 0]	n/a	catFR1	0	R1449T
1156.698	1.6	1173676	WORD	n/a	wordpools/wordpool_categorized_EN.txt	TORNADO	Weather	4	11	[0, 0, 0]	n/a	catFR1	0	R1449T
1158.298	0.799	1175278	WORD_OFF	n/a	n/a	TORNADO	Weather	4	11	[0, 0, 0]	n/a	catFR1	0	R1449T
1159.097	1.601	1176071	WORD	n/a	wordpools/wordpool_categorized_EN.txt	SHIRT	Clothing	5	11	[0, 0, 0]	n/a	catFR1	0	R1449T
1160.698	0.867	1177672	WORD_OFF	n/a	n/a	SHIRT	Clothing	5	11	[0, 0, 0]	n/a	catFR1	0	R1449T
1161.565	1.616	1178537	WORD	n/a	wordpools/wordpool_categorized_EN.txt	SHORTS	Clothing	6	11	[0, 0, 0]	n/a	catFR1	0	R1449T
1163.181	0.9	1180152	WORD_OFF	n/a	n/a	SHORTS	Clothing	6	11	[0, 0, 0]	n/a	catFR1	0	R1449T
1164.081	1.617	1181059	WORD	n/a	wordpools/wordpool_categorized_EN.txt	COW	FarmAnimals	7	11	[0, 0, 0]	n/a	catFR1	0	R1449T
1165.698	0.85	1182675	WORD_OFF	n/a	n/a	COW	FarmAnimals	7	11	[0, 0, 0]	n/a	catFR1	0	R1449T
1166.548	1.617	1183525	WORD	n/a	wordpools/wordpool_categorized_EN.txt	HORSE	FarmAnimals	8	11	[0, 0, 0]	n/a	catFR1	0	R1449T
1168.165	0.849	1185141	WORD_OFF	n/a	n/a	HORSE	FarmAnimals	8	11	[0, 0, 0]	n/a	catFR1	0	R1449T
1169.014	1.6	1185991	WORD	n/a	wordpools/wordpool_categorized_EN.txt	HUMIDITY	Weather	9	11	[0, 0, 0]	n/a	catFR1	0	R1449T
1170.614	0.767	1187592	WORD_OFF	n/a	n/a	HUMIDITY	Weather	9	11	[0, 0, 0]	n/a	catFR1	0	R1449T
1171.381	1.6	1188358	WORD	n/a	wordpools/wordpool_categorized_EN.txt	DRIZZLE	Weather	10	11	[0, 0, 0]	n/a	catFR1	0	R1449T
1172.981	0.867	1189959	WORD_OFF	n/a	n/a	DRIZZLE	Weather	10	11	[0, 0, 0]	n/a	catFR1	0	R1449T
1173.848	1.617	1190824	WORD	n/a	wordpools/wordpool_categorized_EN.txt	UNDERWEAR	Clothing	11	11	[0, 0, 0]	n/a	catFR1	0	R1449T
1175.465	0.95	1192439	WORD_OFF	n/a	n/a	UNDERWEAR	Clothing	11	11	[0, 0, 0]	n/a	catFR1	0	R1449T
1176.415	1.6	1193389	WORD	n/a	wordpools/wordpool_categorized_EN.txt	COAT	Clothing	12	11	[0, 0, 0]	n/a	catFR1	0	R1449T
1178.015	0.001	1194988	PROB	0.001	n/a	n/a	n/a	-999	11	[8, 2, 1]	11	catFR1	0	R1449T
1178.016	0.0	1194989	START	n/a	n/a	n/a	n/a	-999	11	[-999, -999, -999]	n/a	catFR1	0	R1449T
1178.015	0.001	1194990	WORD_OFF	n/a	n/a	COAT	Clothing	12	11	[0, 0, 0]	n/a	catFR1	0	R1449T
1178.016	0.0	1194990	ENCODING_END	n/a	n/a	n/a	n/a	-999	11	[0, 0, 0]	n/a	catFR1	0	R1449T
1178.016	3.566	1194990	DISTRACT_START	n/a	n/a	n/a	n/a	-999	11	[0, 0, 0]	n/a	catFR1	0	R1449T
1181.582	2.933	1198554	PROB	2.933	n/a	n/a	n/a	-999	11	[2, 3, 2]	7	catFR1	0	R1449T
1184.515	3.701	1201487	PROB	3.701	n/a	n/a	n/a	-999	11	[4, 1, 2]	7	catFR1	0	R1449T
1188.216	4.416	1205188	PROB	4.416	n/a	n/a	n/a	-999	11	[5, 1, 7]	13	catFR1	0	R1449T
1192.632	3.833	1209604	PROB	3.833	n/a	n/a	n/a	-999	11	[6, 6, 6]	18	catFR1	0	R1449T
1196.465	2.55	1213437	PROB	2.55	n/a	n/a	n/a	-999	11	[1, 1, 3]	5	catFR1	0	R1449T
1199.015	0.0	1215987	STOP	n/a	n/a	n/a	n/a	-999	11	[-999, -999, -999]	n/a	catFR1	0	R1449T
1199.015	1.05	1215992	DISTRACT_END	n/a	n/a	n/a	n/a	-999	11	[0, 0, 0]	n/a	catFR1	0	R1449T
1200.065	0.775	1217041	REC_START	n/a	n/a	n/a	n/a	-999	11	[0, 0, 0]	n/a	catFR1	0	R1449T
1200.84	1.485	1217811	REC_WORD	1.485	n/a	PIG	FarmAnimals	1	11	[0, 0, 0]	n/a	catFR1	0	R1449T
1202.325	1.456	1219296	REC_WORD	1.456	n/a	GOAT	FarmAnimals	2	11	[0, 0, 0]	n/a	catFR1	0	R1449T
1203.781	1.54	1220752	REC_WORD	1.54	n/a	RAIN	Weather	3	11	[0, 0, 0]	n/a	catFR1	0	R1449T
1205.321	1.71	1222292	REC_WORD	1.71	n/a	TORNADO	Weather	4	11	[0, 0, 0]	n/a	catFR1	0	R1449T
1207.031	1.978	1224002	REC_WORD	1.978	n/a	DRIZZLE	Weather	10	11	[0, 0, 0]	n/a	catFR1	0	R1449T
1209.009	1.401	1225980	REC_WORD	1.401	n/a	HORSE	FarmAnimals	8	11	[0, 0, 0]	n/a	catFR1	0	R1449T
1210.41	20.855	1227381	REC_WORD	20.855	n/a	COW	FarmAnimals	7	11	[0, 0, 0]	n/a	catFR1	0	R1449T
1231.265	1.816	1248232	REC_END	n/a	n/a	n/a	n/a	-999	11	[0, 0, 0]	n/a	catFR1	0	R1449T
1233.081	10.349	1250060	COUNTDOWN_START	n/a	n/a	n/a	n/a	-999	11	[0, 0, 0]	n/a	catFR1	0	R1449T
1243.43	0.001	1260405	COUNTDOWN_END	n/a	n/a	n/a	n/a	-999	11	[0, 0, 0]	n/a	catFR1	0	R1449T
1243.431	2.099	1260405	ENCODING_START	n/a	n/a	n/a	n/a	-999	12	[0, 0, 0]	n/a	catFR1	0	R1449T
1245.53	1.601	1262503	WORD	n/a	wordpools/wordpool_categorized_EN.txt	MOUNTAIN	Landscapes	1	12	[0, 0, 0]	n/a	catFR1	0	R1449T
1247.131	0.884	1264104	WORD_OFF	n/a	n/a	MOUNTAIN	Landscapes	1	12	[0, 0, 0]	n/a	catFR1	0	R1449T
1248.015	1.6	1264983	WORD	n/a	wordpools/wordpool_categorized_EN.txt	FOREST	Landscapes	2	12	[0, 0, 0]	n/a	catFR1	0	R1449T
1249.615	0.816	1266584	WORD_OFF	n/a	n/a	FOREST	Landscapes	2	12	[0, 0, 0]	n/a	catFR1	0	R1449T
1250.431	1.616	1267406	WORD	n/a	wordpools/wordpool_categorized_EN.txt	HEN	FarmAnimals	3	12	[0, 0, 0]	n/a	catFR1	0	R1449T
1252.047	0.951	1269021	WORD_OFF	n/a	n/a	HEN	FarmAnimals	3	12	[0, 0, 0]	n/a	catFR1	0	R1449T
1252.998	1.6	1269971	WORD	n/a	wordpools/wordpool_categorized_EN.txt	LAMB	FarmAnimals	4	12	[0, 0, 0]	n/a	catFR1	0	R1449T
1254.598	0.9	1271572	WORD_OFF	n/a	n/a	LAMB	FarmAnimals	4	12	[0, 0, 0]	n/a	catFR1	0	R1449T
1255.498	1.6	1272465	WORD	n/a	wordpools/wordpool_categorized_EN.txt	SHOES	Clothing	5	12	[0, 0, 0]	n/a	catFR1	0	R1449T
1257.098	0.918	1274066	WORD_OFF	n/a	n/a	SHOES	Clothing	5	12	[0, 0, 0]	n/a	catFR1	0	R1449T
1258.016	1.599	1274988	WORD	n/a	wordpools/wordpool_categorized_EN.txt	BLOUSE	Clothing	6	12	[0, 0, 0]	n/a	catFR1	0	R1449T
1259.615	0.933	1276589	WORD_OFF	n/a	n/a	BLOUSE	Clothing	6	12	[0, 0, 0]	n/a	catFR1	0	R1449T
1260.548	1.617	1277524	WORD	n/a	wordpools/wordpool_categorized_EN.txt	STREAM	Landscapes	7	12	[0, 0, 0]	n/a	catFR1	0	R1449T
1262.165	0.933	1279140	WORD_OFF	n/a	n/a	STREAM	Landscapes	7	12	[0, 0, 0]	n/a	catFR1	0	R1449T
1263.098	1.6	1280061	WORD	n/a	wordpools/wordpool_categorized_EN.txt	ISLAND	Landscapes	8	12	[0, 0, 0]	n/a	catFR1	0	R1449T
1264.698	0.883	1281662	WORD_OFF	n/a	n/a	ISLAND	Landscapes	8	12	[0, 0, 0]	n/a	catFR1	0	R1449T
1265.581	1.617	1282555	WORD	n/a	wordpools/wordpool_categorized_EN.txt	ROOSTER	FarmAnimals	9	12	[0, 0, 0]	n/a	catFR1	0	R1449T
1267.198	0.9	1284171	WORD_OFF	n/a	n/a	ROOSTER	FarmAnimals	9	12	[0, 0, 0]	n/a	catFR1	0	R1449T
1268.098	1.617	1285063	WORD	n/a	wordpools/wordpool_categorized_EN.txt	CALF	FarmAnimals	10	12	[0, 0, 0]	n/a	catFR1	0	R1449T
1269.715	0.783	1286679	WORD_OFF	n/a	n/a	CALF	FarmAnimals	10	12	[0, 0, 0]	n/a	catFR1	0	R1449T
1270.498	1.6	1287473	WORD	n/a	wordpools/wordpool_categorized_EN.txt	DRESS	Clothing	11	12	[0, 0, 0]	n/a	catFR1	0	R1449T
1272.098	0.85	1289074	WORD_OFF	n/a	n/a	DRESS	Clothing	11	12	[0, 0, 0]	n/a	catFR1	0	R1449T
1272.948	1.617	1289924	WORD	n/a	wordpools/wordpool_categorized_EN.txt	PANTS	Clothing	12	12	[0, 0, 0]	n/a	catFR1	0	R1449T
1274.565	0.001	1291533	PROB	0.001	n/a	n/a	n/a	-999	12	[3, 7, 8]	18	catFR1	0	R1449T
1274.566	0.0	1291534	START	n/a	n/a	n/a	n/a	-999	12	[-999, -999, -999]	n/a	catFR1	0	R1449T
1274.565	0.001	1291540	WORD_OFF	n/a	n/a	PANTS	Clothing	12	12	[0, 0, 0]	n/a	catFR1	0	R1449T
1274.566	0.0	1291540	ENCODING_END	n/a	n/a	n/a	n/a	-999	12	[0, 0, 0]	n/a	catFR1	0	R1449T
1274.566	4.266	1291540	DISTRACT_START	n/a	n/a	n/a	n/a	-999	12	[0, 0, 0]	n/a	catFR1	0	R1449T
1278.832	2.983	1295800	PROB	2.983	n/a	n/a	n/a	-999	12	[2, 3, 4]	9	catFR1	0	R1449T
1281.815	3.799	1298782	PROB	3.799	n/a	n/a	n/a	-999	12	[1, 7, 5]	13	catFR1	0	R1449T
1285.614	3.934	1302581	PROB	3.934	n/a	n/a	n/a	-999	12	[6, 8, 5]	19	catFR1	0	R1449T
1289.548	3.634	1306515	PROB	3.634	n/a	n/a	n/a	-999	12	[3, 8, 6]	17	catFR1	0	R1449T
1293.182	3.834	1310149	PROB	3.834	n/a	n/a	n/a	-999	12	[6, 5, 4]	15	catFR1	0	R1449T
1297.016	0.0	1313983	STOP	n/a	n/a	n/a	n/a	-999	12	[-999, -999, -999]	n/a	catFR1	0	R1449T
1297.016	1.149	1313987	DISTRACT_END	n/a	n/a	n/a	n/a	-999	12	[0, 0, 0]	n/a	catFR1	0	R1449T
1298.165	0.716	1315135	REC_START	n/a	n/a	n/a	n/a	-999	12	[0, 0, 0]	n/a	catFR1	0	R1449T
1298.881	1.654	1315848	REC_WORD	1.654	n/a	MOUNTAIN	Landscapes	1	12	[0, 0, 0]	n/a	catFR1	0	R1449T
1300.535	4.276	1317501	REC_WORD	4.276	n/a	HILL	n/a	-999	12	[0, 0, 0]	n/a	catFR1	0	R1449T
1304.811	13.226	1321777	REC_WORD	13.226	n/a	FOREST	Landscapes	2	12	[0, 0, 0]	n/a	catFR1	0	R1449T
1318.037	11.327	1335003	REC_WORD	11.327	n/a	LAND	n/a	-999	12	[0, 0, 0]	n/a	catFR1	0	R1449T
1329.364	0.0	1346326	REC_END	n/a	n/a	n/a	n/a	-999	12	[0, 0, 0]	n/a	catFR1	0	R1449T
