onset	duration	sample	trial_type	response_time	stim_file	item_name	category	serialpos	list	test	answer	experiment	session	subject
0.0	15.416	115182	INSTRUCT_START	n/a	n/a	n/a	n/a	-999	-999	[0, 0, 0]	n/a	catFR1	0	R1421M
15.416	8.848	130599	INSTRUCT_END	n/a	n/a	n/a	n/a	-999	-999	[0, 0, 0]	n/a	catFR1	0	R1421M
24.264	55.851	139444	INSTRUCT_START	n/a	n/a	n/a	n/a	-999	-999	[0, 0, 0]	n/a	catFR1	0	R1421M
80.115	28.65	195286	INSTRUCT_END	n/a	n/a	n/a	n/a	-999	-999	[0, 0, 0]	n/a	catFR1	0	R1421M
108.765	10.385	223943	COUNTDOWN_START	n/a	n/a	n/a	n/a	-999	-999	[0, 0, 0]	n/a	catFR1	0	R1421M
119.15	0.0	234318	COUNTDOWN_END	n/a	n/a	n/a	n/a	-999	-999	[0, 0, 0]	n/a	catFR1	0	R1421M
119.15	2.165	234318	ENCODING_START	n/a	n/a	n/a	n/a	-999	-1	[0, 0, 0]	n/a	catFR1	0	R1421M
121.315	1.616	236481	WORD	n/a	n/a	BROWNIES	Desserts	1	-1	[0, 0, 0]	n/a	catFR1	0	R1421M
122.931	0.817	238107	WORD_OFF	n/a	n/a	BROWNIES	Desserts	1	-1	[0, 0, 0]	n/a	catFR1	0	R1421M
123.748	1.6	238920	WORD	n/a	n/a	PASTRY	Desserts	2	-1	[0, 0, 0]	n/a	catFR1	0	R1421M
125.348	0.833	240518	WORD_OFF	n/a	n/a	PASTRY	Desserts	2	-1	[0, 0, 0]	n/a	catFR1	0	R1421M
126.181	1.617	241358	WORD	n/a	n/a	ROOF	Building	3	-1	[0, 0, 0]	n/a	catFR1	0	R1421M
127.798	0.917	242970	WORD_OFF	n/a	n/a	ROOF	Building	3	-1	[0, 0, 0]	n/a	catFR1	0	R1421M
128.715	1.615	243894	WORD	n/a	n/a	HALLWAY	Building	4	-1	[0, 0, 0]	n/a	catFR1	0	R1421M
130.33	0.968	245506	WORD_OFF	n/a	n/a	HALLWAY	Building	4	-1	[0, 0, 0]	n/a	catFR1	0	R1421M
131.298	1.616	246470	WORD	n/a	n/a	UNDERWEAR	Clothing	5	-1	[0, 0, 0]	n/a	catFR1	0	R1421M
132.914	0.95	248082	WORD_OFF	n/a	n/a	UNDERWEAR	Clothing	5	-1	[0, 0, 0]	n/a	catFR1	0	R1421M
133.864	1.617	249033	WORD	n/a	n/a	SKIRT	Clothing	6	-1	[0, 0, 0]	n/a	catFR1	0	R1421M
135.481	1.0	250658	WORD_OFF	n/a	n/a	SKIRT	Clothing	6	-1	[0, 0, 0]	n/a	catFR1	0	R1421M
136.481	1.6	251650	WORD	n/a	n/a	COBBLER	Desserts	7	-1	[0, 0, 0]	n/a	catFR1	0	R1421M
138.081	0.933	253249	WORD_OFF	n/a	n/a	COBBLER	Desserts	7	-1	[0, 0, 0]	n/a	catFR1	0	R1421M
139.014	1.617	254186	WORD	n/a	n/a	PIE	Desserts	8	-1	[0, 0, 0]	n/a	catFR1	0	R1421M
140.631	0.899	255798	WORD_OFF	n/a	n/a	PIE	Desserts	8	-1	[0, 0, 0]	n/a	catFR1	0	R1421M
141.53	1.6	256707	WORD	n/a	n/a	SHIRT	Clothing	9	-1	[0, 0, 0]	n/a	catFR1	0	R1421M
143.13	0.801	258305	WORD_OFF	n/a	n/a	SHIRT	Clothing	9	-1	[0, 0, 0]	n/a	catFR1	0	R1421M
143.931	1.616	259104	WORD	n/a	n/a	SHOES	Clothing	10	-1	[0, 0, 0]	n/a	catFR1	0	R1421M
145.547	0.917	260716	WORD_OFF	n/a	n/a	SHOES	Clothing	10	-1	[0, 0, 0]	n/a	catFR1	0	R1421M
146.464	1.617	261639	WORD	n/a	n/a	CEILING	Building	11	-1	[0, 0, 0]	n/a	catFR1	0	R1421M
148.081	0.833	263251	WORD_OFF	n/a	n/a	CEILING	Building	11	-1	[0, 0, 0]	n/a	catFR1	0	R1421M
148.914	1.617	264092	WORD	n/a	n/a	STAIRS	Building	12	-1	[0, 0, 0]	n/a	catFR1	0	R1421M
150.531	0.0	265701	PROB	0.0	n/a	n/a	n/a	-999	-1	[1, 1, 6]	8	catFR1	0	R1421M
150.53	0.008	265704	WORD_OFF	n/a	n/a	STAIRS	Building	12	-1	[0, 0, 0]	n/a	catFR1	0	R1421M
150.538	0.0	265704	ENCODING_END	n/a	n/a	n/a	n/a	-999	-1	[0, 0, 0]	n/a	catFR1	0	R1421M
150.538	0.0	265708	START	n/a	n/a	n/a	n/a	-999	-1	[-999, -999, -999]	n/a	catFR1	0	R1421M
150.538	9.061	265718	DISTRACT_START	n/a	n/a	n/a	n/a	-999	-1	[0, 0, 0]	n/a	catFR1	0	R1421M
159.599	5.434	274768	PROB	5.434	n/a	n/a	n/a	-999	-1	[7, 7, 4]	18	catFR1	0	R1421M
165.033	10.948	280202	PROB	10.948	n/a	n/a	n/a	-999	-1	[7, 4, 7]	18	catFR1	0	R1421M
175.981	0.0	291150	STOP	n/a	n/a	n/a	n/a	-999	-1	[-999, -999, -999]	n/a	catFR1	0	R1421M
175.981	2.167	291151	DISTRACT_END	n/a	n/a	n/a	n/a	-999	-1	[0, 0, 0]	n/a	catFR1	0	R1421M
178.148	1.496	293322	REC_START	n/a	n/a	n/a	n/a	-999	-1	[0, 0, 0]	n/a	catFR1	0	R1421M
179.644	1.068	294812	REC_WORD_VV	1.068	n/a	<>	n/a	-999	-1	[0, 0, 0]	n/a	catFR1	0	R1421M
180.712	1.77	295880	REC_WORD	1.77	n/a	BROWNIES	Desserts	1	-1	[0, 0, 0]	n/a	catFR1	0	R1421M
182.482	2.383	297650	REC_WORD	2.383	n/a	PASTRY	Desserts	2	-1	[0, 0, 0]	n/a	catFR1	0	R1421M
184.865	4.568	300033	REC_WORD_VV	4.568	n/a	<>	n/a	-999	-1	[0, 0, 0]	n/a	catFR1	0	R1421M
189.433	0.822	304601	REC_WORD	0.822	n/a	CLOCK	n/a	-999	-1	[0, 0, 0]	n/a	catFR1	0	R1421M
190.255	0.954	305423	REC_WORD_VV	0.954	n/a	<>	n/a	-999	-1	[0, 0, 0]	n/a	catFR1	0	R1421M
191.209	4.109	306377	REC_WORD_VV	4.109	n/a	<>	n/a	-999	-1	[0, 0, 0]	n/a	catFR1	0	R1421M
195.318	2.205	310486	REC_WORD	2.205	n/a	CAKE	n/a	-999	-1	[0, 0, 0]	n/a	catFR1	0	R1421M
197.523	8.483	312691	REC_WORD_VV	8.483	n/a	<>	n/a	-999	-1	[0, 0, 0]	n/a	catFR1	0	R1421M
206.006	2.397	321173	REC_WORD	2.397	n/a	SKI	n/a	-999	-1	[0, 0, 0]	n/a	catFR1	0	R1421M
208.403	17.578	323570	REC_END	n/a	n/a	n/a	n/a	-999	-1	[0, 0, 0]	n/a	catFR1	0	R1421M
225.981	10.35	341151	COUNTDOWN_START	n/a	n/a	n/a	n/a	-999	1	[0, 0, 0]	n/a	catFR1	0	R1421M
236.331	0.0	351498	COUNTDOWN_END	n/a	n/a	n/a	n/a	-999	1	[0, 0, 0]	n/a	catFR1	0	R1421M
236.331	1.934	351498	ENCODING_START	n/a	n/a	n/a	n/a	-999	1	[0, 0, 0]	n/a	catFR1	0	R1421M
238.265	1.616	353427	WORD	n/a	wordpools/wordpool_categorized_EN.txt	CAR	Vehicles	1	1	[0, 0, 0]	n/a	catFR1	0	R1421M
239.881	0.867	355053	WORD_OFF	n/a	n/a	CAR	Vehicles	1	1	[0, 0, 0]	n/a	catFR1	0	R1421M
240.748	1.617	355921	WORD	n/a	wordpools/wordpool_categorized_EN.txt	JEEP	Vehicles	2	1	[0, 0, 0]	n/a	catFR1	0	R1421M
242.365	0.982	357533	WORD_OFF	n/a	n/a	JEEP	Vehicles	2	1	[0, 0, 0]	n/a	catFR1	0	R1421M
243.347	1.601	358511	WORD	n/a	wordpools/wordpool_categorized_EN.txt	BEETLE	Insects	3	1	[0, 0, 0]	n/a	catFR1	0	R1421M
244.948	0.999	360109	WORD_OFF	n/a	n/a	BEETLE	Insects	3	1	[0, 0, 0]	n/a	catFR1	0	R1421M
245.947	1.617	361115	WORD	n/a	wordpools/wordpool_categorized_EN.txt	SPIDER	Insects	4	1	[0, 0, 0]	n/a	catFR1	0	R1421M
247.564	0.85	362727	WORD_OFF	n/a	n/a	SPIDER	Insects	4	1	[0, 0, 0]	n/a	catFR1	0	R1421M
248.414	1.601	363581	WORD	n/a	wordpools/wordpool_categorized_EN.txt	WIND	Weather	5	1	[0, 0, 0]	n/a	catFR1	0	R1421M
250.015	0.816	365179	WORD_OFF	n/a	n/a	WIND	Weather	5	1	[0, 0, 0]	n/a	catFR1	0	R1421M
250.831	1.617	365992	WORD	n/a	wordpools/wordpool_categorized_EN.txt	HURRICANE	Weather	6	1	[0, 0, 0]	n/a	catFR1	0	R1421M
252.448	0.783	367618	WORD_OFF	n/a	n/a	HURRICANE	Weather	6	1	[0, 0, 0]	n/a	catFR1	0	R1421M
253.231	1.617	368403	WORD	n/a	wordpools/wordpool_categorized_EN.txt	MOSQUITO	Insects	7	1	[0, 0, 0]	n/a	catFR1	0	R1421M
254.848	0.883	370015	WORD_OFF	n/a	n/a	MOSQUITO	Insects	7	1	[0, 0, 0]	n/a	catFR1	0	R1421M
255.731	1.617	370897	WORD	n/a	wordpools/wordpool_categorized_EN.txt	GNAT	Insects	8	1	[0, 0, 0]	n/a	catFR1	0	R1421M
257.348	0.917	372509	WORD_OFF	n/a	n/a	GNAT	Insects	8	1	[0, 0, 0]	n/a	catFR1	0	R1421M
258.265	1.617	373432	WORD	n/a	wordpools/wordpool_categorized_EN.txt	LIGHTNING	Weather	9	1	[0, 0, 0]	n/a	catFR1	0	R1421M
259.882	0.966	375044	WORD_OFF	n/a	n/a	LIGHTNING	Weather	9	1	[0, 0, 0]	n/a	catFR1	0	R1421M
260.848	1.616	376009	WORD	n/a	wordpools/wordpool_categorized_EN.txt	RAIN	Weather	10	1	[0, 0, 0]	n/a	catFR1	0	R1421M
262.464	0.934	377634	WORD_OFF	n/a	n/a	RAIN	Weather	10	1	[0, 0, 0]	n/a	catFR1	0	R1421M
263.398	1.617	378557	WORD	n/a	wordpools/wordpool_categorized_EN.txt	TRUCK	Vehicles	11	1	[0, 0, 0]	n/a	catFR1	0	R1421M
265.015	0.916	380183	WORD_OFF	n/a	n/a	TRUCK	Vehicles	11	1	[0, 0, 0]	n/a	catFR1	0	R1421M
265.931	1.6	381093	WORD	n/a	wordpools/wordpool_categorized_EN.txt	SCOOTER	Vehicles	12	1	[0, 0, 0]	n/a	catFR1	0	R1421M
267.531	0.001	382691	WORD_OFF	n/a	n/a	SCOOTER	Vehicles	12	1	[0, 0, 0]	n/a	catFR1	0	R1421M
267.532	0.001	382696	PROB	0.001	n/a	n/a	n/a	-999	1	[4, 6, 7]	17	catFR1	0	R1421M
267.533	0.0	382697	START	n/a	n/a	n/a	n/a	-999	1	[-999, -999, -999]	n/a	catFR1	0	R1421M
267.533	0.0	382705	ENCODING_END	n/a	n/a	n/a	n/a	-999	1	[0, 0, 0]	n/a	catFR1	0	R1421M
267.533	5.332	382705	DISTRACT_START	n/a	n/a	n/a	n/a	-999	1	[0, 0, 0]	n/a	catFR1	0	R1421M
272.865	4.95	388029	PROB	4.95	n/a	n/a	n/a	-999	1	[7, 4, 1]	12	catFR1	0	R1421M
277.815	5.75	392979	PROB	5.75	n/a	n/a	n/a	-999	1	[2, 6, 2]	10	catFR1	0	R1421M
283.565	30.466	398728	PROB	30.466	n/a	n/a	n/a	-999	1	[8, 4, 5]	17	catFR1	0	R1421M
314.031	0.0	429191	DISTRACT_END	n/a	n/a	n/a	n/a	-999	1	[0, 0, 0]	n/a	catFR1	0	R1421M
314.031	2.333	429193	STOP	n/a	n/a	n/a	n/a	-999	1	[-999, -999, -999]	n/a	catFR1	0	R1421M
316.364	1.311	431527	REC_START	n/a	n/a	n/a	n/a	-999	1	[0, 0, 0]	n/a	catFR1	0	R1421M
317.675	1.57	432837	REC_WORD_VV	1.57	n/a	<>	n/a	-999	1	[0, 0, 0]	n/a	catFR1	0	R1421M
319.245	1.703	434407	REC_WORD	1.703	n/a	CAR	Vehicles	1	1	[0, 0, 0]	n/a	catFR1	0	R1421M
320.948	5.427	436110	REC_WORD	5.427	n/a	JEEP	Vehicles	2	1	[0, 0, 0]	n/a	catFR1	0	R1421M
326.375	1.732	441537	REC_WORD	1.732	n/a	TRUCK	Vehicles	11	1	[0, 0, 0]	n/a	catFR1	0	R1421M
328.107	2.128	443268	REC_WORD_VV	2.128	n/a	<>	n/a	-999	1	[0, 0, 0]	n/a	catFR1	0	R1421M
330.235	7.469	445396	REC_WORD_VV	7.469	n/a	<>	n/a	-999	1	[0, 0, 0]	n/a	catFR1	0	R1421M
337.704	2.81	452865	REC_WORD	2.81	n/a	BICYCLE	n/a	-999	1	[0, 0, 0]	n/a	catFR1	0	R1421M
340.514	3.673	455675	REC_WORD_VV	3.673	n/a	<>	n/a	-999	1	[0, 0, 0]	n/a	catFR1	0	R1421M
344.187	2.409	459348	REC_WORD	2.409	n/a	MOLE	n/a	-999	1	[0, 0, 0]	n/a	catFR1	0	R1421M
346.596	11.169	461761	REC_END	n/a	n/a	n/a	n/a	-999	1	[0, 0, 0]	n/a	catFR1	0	R1421M
357.765	10.351	472921	COUNTDOWN_START	n/a	n/a	n/a	n/a	-999	2	[0, 0, 0]	n/a	catFR1	0	R1421M
368.116	0.007	483282	COUNTDOWN_END	n/a	n/a	n/a	n/a	-999	2	[0, 0, 0]	n/a	catFR1	0	R1421M
368.123	2.008	483282	ENCODING_START	n/a	n/a	n/a	n/a	-999	2	[0, 0, 0]	n/a	catFR1	0	R1421M
370.131	1.617	485294	WORD	n/a	wordpools/wordpool_categorized_EN.txt	MOUNTAIN	Landscapes	1	2	[0, 0, 0]	n/a	catFR1	0	R1421M
371.748	0.833	486906	WORD_OFF	n/a	n/a	MOUNTAIN	Landscapes	1	2	[0, 0, 0]	n/a	catFR1	0	R1421M
372.581	1.6	487746	WORD	n/a	wordpools/wordpool_categorized_EN.txt	HILLS	Landscapes	2	2	[0, 0, 0]	n/a	catFR1	0	R1421M
374.181	0.834	489344	WORD_OFF	n/a	n/a	HILLS	Landscapes	2	2	[0, 0, 0]	n/a	catFR1	0	R1421M
375.015	1.616	490171	WORD	n/a	wordpools/wordpool_categorized_EN.txt	OCTOPUS	OceanAnimals	3	2	[0, 0, 0]	n/a	catFR1	0	R1421M
376.631	0.967	491797	WORD_OFF	n/a	n/a	OCTOPUS	OceanAnimals	3	2	[0, 0, 0]	n/a	catFR1	0	R1421M
377.598	1.6	492761	WORD	n/a	wordpools/wordpool_categorized_EN.txt	PLANKTON	OceanAnimals	4	2	[0, 0, 0]	n/a	catFR1	0	R1421M
379.198	0.983	494360	WORD_OFF	n/a	n/a	PLANKTON	OceanAnimals	4	2	[0, 0, 0]	n/a	catFR1	0	R1421M
380.181	1.617	495338	WORD	n/a	wordpools/wordpool_categorized_EN.txt	PINE	Trees	5	2	[0, 0, 0]	n/a	catFR1	0	R1421M
381.798	0.85	496964	WORD_OFF	n/a	n/a	PINE	Trees	5	2	[0, 0, 0]	n/a	catFR1	0	R1421M
382.648	1.6	497804	WORD	n/a	wordpools/wordpool_categorized_EN.txt	WALNUT	Trees	6	2	[0, 0, 0]	n/a	catFR1	0	R1421M
384.248	0.982	499402	WORD_OFF	n/a	n/a	WALNUT	Trees	6	2	[0, 0, 0]	n/a	catFR1	0	R1421M
385.23	1.601	500394	WORD	n/a	wordpools/wordpool_categorized_EN.txt	JELLYFISH	OceanAnimals	7	2	[0, 0, 0]	n/a	catFR1	0	R1421M
386.831	0.833	501992	WORD_OFF	n/a	n/a	JELLYFISH	OceanAnimals	7	2	[0, 0, 0]	n/a	catFR1	0	R1421M
387.664	1.6	502819	WORD	n/a	wordpools/wordpool_categorized_EN.txt	SHRIMP	OceanAnimals	8	2	[0, 0, 0]	n/a	catFR1	0	R1421M
389.264	0.766	504417	WORD_OFF	n/a	n/a	SHRIMP	OceanAnimals	8	2	[0, 0, 0]	n/a	catFR1	0	R1421M
390.03	1.601	505189	WORD	n/a	wordpools/wordpool_categorized_EN.txt	HICKORY	Trees	9	2	[0, 0, 0]	n/a	catFR1	0	R1421M
391.631	0.9	506787	WORD_OFF	n/a	n/a	HICKORY	Trees	9	2	[0, 0, 0]	n/a	catFR1	0	R1421M
392.531	1.616	507696	WORD	n/a	wordpools/wordpool_categorized_EN.txt	WILLOW	Trees	10	2	[0, 0, 0]	n/a	catFR1	0	R1421M
394.147	0.968	509308	WORD_OFF	n/a	n/a	WILLOW	Trees	10	2	[0, 0, 0]	n/a	catFR1	0	R1421M
395.115	1.616	510273	WORD	n/a	wordpools/wordpool_categorized_EN.txt	FOREST	Landscapes	11	2	[0, 0, 0]	n/a	catFR1	0	R1421M
396.731	0.85	511885	WORD_OFF	n/a	n/a	FOREST	Landscapes	11	2	[0, 0, 0]	n/a	catFR1	0	R1421M
397.581	1.6	512739	WORD	n/a	wordpools/wordpool_categorized_EN.txt	BEACH	Landscapes	12	2	[0, 0, 0]	n/a	catFR1	0	R1421M
399.181	0.001	514337	WORD_OFF	n/a	n/a	BEACH	Landscapes	12	2	[0, 0, 0]	n/a	catFR1	0	R1421M
399.182	0.0	514337	ENCODING_END	n/a	n/a	n/a	n/a	-999	2	[0, 0, 0]	n/a	catFR1	0	R1421M
399.182	0.0	514337	DISTRACT_START	n/a	n/a	n/a	n/a	-999	2	[0, 0, 0]	n/a	catFR1	0	R1421M
399.181	0.001	514339	PROB	0.001	n/a	n/a	n/a	-999	2	[3, 7, 1]	11	catFR1	0	R1421M
399.182	5.049	514340	START	n/a	n/a	n/a	n/a	-999	2	[-999, -999, -999]	n/a	catFR1	0	R1421M
404.231	4.417	519389	PROB	4.417	n/a	n/a	n/a	-999	2	[4, 1, 3]	8	catFR1	0	R1421M
408.648	4.385	523806	PROB	4.385	n/a	n/a	n/a	-999	2	[2, 7, 7]	16	catFR1	0	R1421M
413.033	282.865	528190	PROB	282.865	n/a	n/a	n/a	-999	2	[6, 5, 7]	18	catFR1	0	R1421M
695.898	0.0	811041	DISTRACT_END	n/a	n/a	n/a	n/a	-999	2	[0, 0, 0]	n/a	catFR1	0	R1421M
695.898	2.067	811042	STOP	n/a	n/a	n/a	n/a	-999	2	[-999, -999, -999]	n/a	catFR1	0	R1421M
697.965	30.016	813116	REC_START	n/a	n/a	n/a	n/a	-999	2	[0, 0, 0]	n/a	catFR1	0	R1421M
727.981	0.276	843124	REC_WORD_VV	0.276	n/a	<>	n/a	-999	2	[0, 0, 0]	n/a	catFR1	0	R1421M
728.257	3.608	843405	REC_END	n/a	n/a	n/a	n/a	-999	2	[0, 0, 0]	n/a	catFR1	0	R1421M
731.865	10.35	847015	COUNTDOWN_START	n/a	n/a	n/a	n/a	-999	3	[0, 0, 0]	n/a	catFR1	0	R1421M
742.215	0.0	857362	COUNTDOWN_END	n/a	n/a	n/a	n/a	-999	3	[0, 0, 0]	n/a	catFR1	0	R1421M
742.215	2.183	857362	ENCODING_START	n/a	n/a	n/a	n/a	-999	3	[0, 0, 0]	n/a	catFR1	0	R1421M
744.398	1.615	859539	WORD	n/a	wordpools/wordpool_categorized_EN.txt	WASHER	Appliances	1	3	[0, 0, 0]	n/a	catFR1	0	R1421M
746.013	0.934	861151	WORD_OFF	n/a	n/a	WASHER	Appliances	1	3	[0, 0, 0]	n/a	catFR1	0	R1421M
746.947	1.601	862088	WORD	n/a	wordpools/wordpool_categorized_EN.txt	VACUUM	Appliances	2	3	[0, 0, 0]	n/a	catFR1	0	R1421M
748.548	0.916	863686	WORD_OFF	n/a	n/a	VACUUM	Appliances	2	3	[0, 0, 0]	n/a	catFR1	0	R1421M
749.464	1.6	864609	WORD	n/a	wordpools/wordpool_categorized_EN.txt	COFFEE	Beverages	3	3	[0, 0, 0]	n/a	catFR1	0	R1421M
751.064	1.001	866208	WORD_OFF	n/a	n/a	COFFEE	Beverages	3	3	[0, 0, 0]	n/a	catFR1	0	R1421M
752.065	1.6	867213	WORD	n/a	wordpools/wordpool_categorized_EN.txt	BEER	Beverages	4	3	[0, 0, 0]	n/a	catFR1	0	R1421M
753.665	0.983	868812	WORD_OFF	n/a	n/a	BEER	Beverages	4	3	[0, 0, 0]	n/a	catFR1	0	R1421M
754.648	1.617	869790	WORD	n/a	wordpools/wordpool_categorized_EN.txt	NYLON	Fabric	5	3	[0, 0, 0]	n/a	catFR1	0	R1421M
756.265	0.916	871402	WORD_OFF	n/a	n/a	NYLON	Fabric	5	3	[0, 0, 0]	n/a	catFR1	0	R1421M
757.181	1.6	872325	WORD	n/a	wordpools/wordpool_categorized_EN.txt	LEATHER	Fabric	6	3	[0, 0, 0]	n/a	catFR1	0	R1421M
758.781	1.0	873923	WORD_OFF	n/a	n/a	LEATHER	Fabric	6	3	[0, 0, 0]	n/a	catFR1	0	R1421M
759.781	1.6	874929	WORD	n/a	wordpools/wordpool_categorized_EN.txt	OVEN	Appliances	7	3	[0, 0, 0]	n/a	catFR1	0	R1421M
761.381	0.867	876527	WORD_OFF	n/a	n/a	OVEN	Appliances	7	3	[0, 0, 0]	n/a	catFR1	0	R1421M
762.248	1.616	877395	WORD	n/a	wordpools/wordpool_categorized_EN.txt	TOASTER	Appliances	8	3	[0, 0, 0]	n/a	catFR1	0	R1421M
763.864	0.984	879007	WORD_OFF	n/a	n/a	TOASTER	Appliances	8	3	[0, 0, 0]	n/a	catFR1	0	R1421M
764.848	1.6	879985	WORD	n/a	wordpools/wordpool_categorized_EN.txt	MILK	Beverages	9	3	[0, 0, 0]	n/a	catFR1	0	R1421M
766.448	0.883	881597	WORD_OFF	n/a	n/a	MILK	Beverages	9	3	[0, 0, 0]	n/a	catFR1	0	R1421M
767.331	1.6	882479	WORD	n/a	wordpools/wordpool_categorized_EN.txt	TEA	Beverages	10	3	[0, 0, 0]	n/a	catFR1	0	R1421M
768.931	0.917	884077	WORD_OFF	n/a	n/a	TEA	Beverages	10	3	[0, 0, 0]	n/a	catFR1	0	R1421M
769.848	1.6	884987	WORD	n/a	wordpools/wordpool_categorized_EN.txt	COTTON	Fabric	11	3	[0, 0, 0]	n/a	catFR1	0	R1421M
771.448	0.85	886585	WORD_OFF	n/a	n/a	COTTON	Fabric	11	3	[0, 0, 0]	n/a	catFR1	0	R1421M
772.298	1.6	887439	WORD	n/a	wordpools/wordpool_categorized_EN.txt	LINEN	Fabric	12	3	[0, 0, 0]	n/a	catFR1	0	R1421M
773.898	0.002	889037	WORD_OFF	n/a	n/a	LINEN	Fabric	12	3	[0, 0, 0]	n/a	catFR1	0	R1421M
773.9	0.0	889037	ENCODING_END	n/a	n/a	n/a	n/a	-999	3	[0, 0, 0]	n/a	catFR1	0	R1421M
773.899	0.001	889039	PROB	0.001	n/a	n/a	n/a	-999	3	[4, 2, 8]	14	catFR1	0	R1421M
773.9	0.0	889040	START	n/a	n/a	n/a	n/a	-999	3	[-999, -999, -999]	n/a	catFR1	0	R1421M
773.9	46.397	889051	DISTRACT_START	n/a	n/a	n/a	n/a	-999	3	[0, 0, 0]	n/a	catFR1	0	R1421M
820.297	0.0	935435	STOP	n/a	n/a	n/a	n/a	-999	3	[-999, -999, -999]	n/a	catFR1	0	R1421M
820.297	2.367	935441	DISTRACT_END	n/a	n/a	n/a	n/a	-999	3	[0, 0, 0]	n/a	catFR1	0	R1421M
822.664	30.0	937805	REC_START	n/a	n/a	n/a	n/a	-999	3	[0, 0, 0]	n/a	catFR1	0	R1421M
852.664	0.257	967801	REC_WORD_VV	0.257	n/a	<>	n/a	-999	3	[0, 0, 0]	n/a	catFR1	0	R1421M
852.921	13.094	968053	REC_END	n/a	n/a	n/a	n/a	-999	3	[0, 0, 0]	n/a	catFR1	0	R1421M
866.015	10.35	981156	COUNTDOWN_START	n/a	n/a	n/a	n/a	-999	4	[0, 0, 0]	n/a	catFR1	0	R1421M
876.365	0.0	991503	COUNTDOWN_END	n/a	n/a	n/a	n/a	-999	4	[0, 0, 0]	n/a	catFR1	0	R1421M
876.365	2.083	991503	ENCODING_START	n/a	n/a	n/a	n/a	-999	4	[0, 0, 0]	n/a	catFR1	0	R1421M
878.448	1.617	993597	WORD	n/a	wordpools/wordpool_categorized_EN.txt	DENIM	Fabric	1	4	[0, 0, 0]	n/a	catFR1	0	R1421M
880.065	0.883	995195	WORD_OFF	n/a	n/a	DENIM	Fabric	1	4	[0, 0, 0]	n/a	catFR1	0	R1421M
880.948	1.616	996091	WORD	n/a	wordpools/wordpool_categorized_EN.txt	FLEECE	Fabric	2	4	[0, 0, 0]	n/a	catFR1	0	R1421M
882.564	0.917	997703	WORD_OFF	n/a	n/a	FLEECE	Fabric	2	4	[0, 0, 0]	n/a	catFR1	0	R1421M
883.481	1.617	998612	WORD	n/a	wordpools/wordpool_categorized_EN.txt	BEE	Insects	3	4	[0, 0, 0]	n/a	catFR1	0	R1421M
885.098	0.883	1000238	WORD_OFF	n/a	n/a	BEE	Insects	3	4	[0, 0, 0]	n/a	catFR1	0	R1421M
885.981	1.617	1001120	WORD	n/a	wordpools/wordpool_categorized_EN.txt	CRICKET	Insects	4	4	[0, 0, 0]	n/a	catFR1	0	R1421M
887.598	0.983	1002732	WORD_OFF	n/a	n/a	CRICKET	Insects	4	4	[0, 0, 0]	n/a	catFR1	0	R1421M
888.581	1.6	1003724	WORD	n/a	wordpools/wordpool_categorized_EN.txt	SNOW	Weather	5	4	[0, 0, 0]	n/a	catFR1	0	R1421M
890.181	0.917	1005322	WORD_OFF	n/a	n/a	SNOW	Weather	5	4	[0, 0, 0]	n/a	catFR1	0	R1421M
891.098	1.616	1006231	WORD	n/a	wordpools/wordpool_categorized_EN.txt	THUNDER	Weather	6	4	[0, 0, 0]	n/a	catFR1	0	R1421M
892.714	0.884	1007850	WORD_OFF	n/a	n/a	THUNDER	Weather	6	4	[0, 0, 0]	n/a	catFR1	0	R1421M
893.598	1.6	1008739	WORD	n/a	wordpools/wordpool_categorized_EN.txt	VELVET	Fabric	7	4	[0, 0, 0]	n/a	catFR1	0	R1421M
895.198	0.966	1010337	WORD_OFF	n/a	n/a	VELVET	Fabric	7	4	[0, 0, 0]	n/a	catFR1	0	R1421M
896.164	1.6	1011301	WORD	n/a	wordpools/wordpool_categorized_EN.txt	WOOL	Fabric	8	4	[0, 0, 0]	n/a	catFR1	0	R1421M
897.764	0.967	1012900	WORD_OFF	n/a	n/a	WOOL	Fabric	8	4	[0, 0, 0]	n/a	catFR1	0	R1421M
898.731	1.6	1013864	WORD	n/a	wordpools/wordpool_categorized_EN.txt	FLY	Insects	9	4	[0, 0, 0]	n/a	catFR1	0	R1421M
900.331	0.85	1015462	WORD_OFF	n/a	n/a	FLY	Insects	9	4	[0, 0, 0]	n/a	catFR1	0	R1421M
901.181	1.616	1016316	WORD	n/a	wordpools/wordpool_categorized_EN.txt	ROACH	Insects	10	4	[0, 0, 0]	n/a	catFR1	0	R1421M
902.797	0.817	1017928	WORD_OFF	n/a	n/a	ROACH	Insects	10	4	[0, 0, 0]	n/a	catFR1	0	R1421M
903.614	1.6	1018755	WORD	n/a	wordpools/wordpool_categorized_EN.txt	CLOUD	Weather	11	4	[0, 0, 0]	n/a	catFR1	0	R1421M
905.214	0.817	1020353	WORD_OFF	n/a	n/a	CLOUD	Weather	11	4	[0, 0, 0]	n/a	catFR1	0	R1421M
906.031	1.599	1021166	WORD	n/a	wordpools/wordpool_categorized_EN.txt	TORNADO	Weather	12	4	[0, 0, 0]	n/a	catFR1	0	R1421M
907.63	0.002	1022764	WORD_OFF	n/a	n/a	TORNADO	Weather	12	4	[0, 0, 0]	n/a	catFR1	0	R1421M
907.632	0.0	1022764	ENCODING_END	n/a	n/a	n/a	n/a	-999	4	[0, 0, 0]	n/a	catFR1	0	R1421M
907.632	0.0	1022764	DISTRACT_START	n/a	n/a	n/a	n/a	-999	4	[0, 0, 0]	n/a	catFR1	0	R1421M
907.631	0.001	1022765	PROB	0.001	n/a	n/a	n/a	-999	4	[2, 7, 1]	10	catFR1	0	R1421M
907.632	41.533	1022766	START	n/a	n/a	n/a	n/a	-999	4	[-999, -999, -999]	n/a	catFR1	0	R1421M
949.165	0.0	1064297	STOP	n/a	n/a	n/a	n/a	-999	4	[-999, -999, -999]	n/a	catFR1	0	R1421M
949.165	2.066	1064304	DISTRACT_END	n/a	n/a	n/a	n/a	-999	4	[0, 0, 0]	n/a	catFR1	0	R1421M
951.231	30.015	1066365	REC_START	n/a	n/a	n/a	n/a	-999	4	[0, 0, 0]	n/a	catFR1	0	R1421M
981.246	0.209	1096377	REC_WORD_VV	0.209	n/a	<>	n/a	-999	4	[0, 0, 0]	n/a	catFR1	0	R1421M
981.455	7.076	1096586	REC_END	n/a	n/a	n/a	n/a	-999	4	[0, 0, 0]	n/a	catFR1	0	R1421M
988.531	10.35	1103667	COUNTDOWN_START	n/a	n/a	n/a	n/a	-999	5	[0, 0, 0]	n/a	catFR1	0	R1421M
998.881	0.001	1114015	COUNTDOWN_END	n/a	n/a	n/a	n/a	-999	5	[0, 0, 0]	n/a	catFR1	0	R1421M
998.882	2.015	1114015	ENCODING_START	n/a	n/a	n/a	n/a	-999	5	[0, 0, 0]	n/a	catFR1	0	R1421M
1000.897	1.6	1116026	WORD	n/a	wordpools/wordpool_categorized_EN.txt	HUMIDITY	Weather	1	5	[0, 0, 0]	n/a	catFR1	0	R1421M
1002.497	0.817	1117624	WORD_OFF	n/a	n/a	HUMIDITY	Weather	1	5	[0, 0, 0]	n/a	catFR1	0	R1421M
1003.314	1.617	1118451	WORD	n/a	wordpools/wordpool_categorized_EN.txt	DRIZZLE	Weather	2	5	[0, 0, 0]	n/a	catFR1	0	R1421M
1004.931	0.9	1120063	WORD_OFF	n/a	n/a	DRIZZLE	Weather	2	5	[0, 0, 0]	n/a	catFR1	0	R1421M
1005.831	1.6	1120959	WORD	n/a	wordpools/wordpool_categorized_EN.txt	STREAM	Landscapes	3	5	[0, 0, 0]	n/a	catFR1	0	R1421M
1007.431	0.916	1122557	WORD_OFF	n/a	n/a	STREAM	Landscapes	3	5	[0, 0, 0]	n/a	catFR1	0	R1421M
1008.347	1.6	1123480	WORD	n/a	wordpools/wordpool_categorized_EN.txt	ISLAND	Landscapes	4	5	[0, 0, 0]	n/a	catFR1	0	R1421M
1009.947	0.983	1125078	WORD_OFF	n/a	n/a	ISLAND	Landscapes	4	5	[0, 0, 0]	n/a	catFR1	0	R1421M
1010.93	1.601	1126056	WORD	n/a	wordpools/wordpool_categorized_EN.txt	ONION	Vegetables	5	5	[0, 0, 0]	n/a	catFR1	0	R1421M
1012.531	1.0	1127668	WORD_OFF	n/a	n/a	ONION	Vegetables	5	5	[0, 0, 0]	n/a	catFR1	0	R1421M
1013.531	1.617	1128660	WORD	n/a	wordpools/wordpool_categorized_EN.txt	PEAS	Vegetables	6	5	[0, 0, 0]	n/a	catFR1	0	R1421M
1015.148	0.816	1130272	WORD_OFF	n/a	n/a	PEAS	Vegetables	6	5	[0, 0, 0]	n/a	catFR1	0	R1421M
1015.964	1.617	1131099	WORD	n/a	wordpools/wordpool_categorized_EN.txt	THUNDERSTORM	Weather	7	5	[0, 0, 0]	n/a	catFR1	0	R1421M
1017.581	0.784	1132711	WORD_OFF	n/a	n/a	THUNDERSTORM	Weather	7	5	[0, 0, 0]	n/a	catFR1	0	R1421M
1018.365	1.6	1133496	WORD	n/a	wordpools/wordpool_categorized_EN.txt	FOG	Weather	8	5	[0, 0, 0]	n/a	catFR1	0	R1421M
1019.965	0.815	1135095	WORD_OFF	n/a	n/a	FOG	Weather	8	5	[0, 0, 0]	n/a	catFR1	0	R1421M
1020.78	1.601	1135907	WORD	n/a	wordpools/wordpool_categorized_EN.txt	CABBAGE	Vegetables	9	5	[0, 0, 0]	n/a	catFR1	0	R1421M
1022.381	0.884	1137506	WORD_OFF	n/a	n/a	CABBAGE	Vegetables	9	5	[0, 0, 0]	n/a	catFR1	0	R1421M
1023.265	1.616	1138401	WORD	n/a	wordpools/wordpool_categorized_EN.txt	CELERY	Vegetables	10	5	[0, 0, 0]	n/a	catFR1	0	R1421M
1024.881	0.884	1140013	WORD_OFF	n/a	n/a	CELERY	Vegetables	10	5	[0, 0, 0]	n/a	catFR1	0	R1421M
1025.765	1.616	1140895	WORD	n/a	wordpools/wordpool_categorized_EN.txt	LAKE	Landscapes	11	5	[0, 0, 0]	n/a	catFR1	0	R1421M
1027.381	0.784	1142521	WORD_OFF	n/a	n/a	LAKE	Landscapes	11	5	[0, 0, 0]	n/a	catFR1	0	R1421M
1028.165	1.6	1143292	WORD	n/a	wordpools/wordpool_categorized_EN.txt	CREEK	Landscapes	12	5	[0, 0, 0]	n/a	catFR1	0	R1421M
1029.765	0.001	1144890	WORD_OFF	n/a	n/a	CREEK	Landscapes	12	5	[0, 0, 0]	n/a	catFR1	0	R1421M
1029.766	0.0	1144890	ENCODING_END	n/a	n/a	n/a	n/a	-999	5	[0, 0, 0]	n/a	catFR1	0	R1421M
1029.765	0.001	1144893	PROB	0.001	n/a	n/a	n/a	-999	5	[6, 7, 6]	19	catFR1	0	R1421M
1029.766	0.0	1144894	START	n/a	n/a	n/a	n/a	-999	5	[-999, -999, -999]	n/a	catFR1	0	R1421M
1029.766	15.081	1144904	DISTRACT_START	n/a	n/a	n/a	n/a	-999	5	[0, 0, 0]	n/a	catFR1	0	R1421M
1044.847	6.617	1159975	PROB	6.617	n/a	n/a	n/a	-999	5	[5, 6, 5]	16	catFR1	0	R1421M
1051.464	0.0	1166590	DISTRACT_END	n/a	n/a	n/a	n/a	-999	5	[0, 0, 0]	n/a	catFR1	0	R1421M
1051.464	2.267	1166591	STOP	n/a	n/a	n/a	n/a	-999	5	[-999, -999, -999]	n/a	catFR1	0	R1421M
1053.731	9.199	1168858	REC_START	n/a	n/a	n/a	n/a	-999	5	[0, 0, 0]	n/a	catFR1	0	R1421M
1062.93	1.0	1178057	REC_WORD_VV	1.0	n/a	<>	n/a	-999	5	[0, 0, 0]	n/a	catFR1	0	R1421M
1063.93	1.0	1179057	REC_WORD_VV	1.0	n/a	<>	n/a	-999	5	[0, 0, 0]	n/a	catFR1	0	R1421M
1064.93	1.922	1180057	REC_WORD_VV	1.922	n/a	<>	n/a	-999	5	[0, 0, 0]	n/a	catFR1	0	R1421M
1066.852	1.029	1181979	REC_WORD_VV	1.029	n/a	<>	n/a	-999	5	[0, 0, 0]	n/a	catFR1	0	R1421M
1067.881	3.859	1183008	REC_WORD_VV	3.859	n/a	<>	n/a	-999	5	[0, 0, 0]	n/a	catFR1	0	R1421M
1071.74	2.538	1186867	REC_WORD	2.538	n/a	CAR	Vehicles	-999	5	[0, 0, 0]	n/a	catFR1	0	R1421M
1074.278	3.77	1189404	REC_WORD_VV	3.77	n/a	<>	n/a	-999	5	[0, 0, 0]	n/a	catFR1	0	R1421M
1078.048	0.858	1193174	REC_WORD	0.858	n/a	MOUNTAIN	Landscapes	-999	5	[0, 0, 0]	n/a	catFR1	0	R1421M
1078.906	1.003	1194032	REC_WORD_VV	1.003	n/a	<>	n/a	-999	5	[0, 0, 0]	n/a	catFR1	0	R1421M
1079.909	1.57	1195035	REC_WORD_VV	1.57	n/a	<>	n/a	-999	5	[0, 0, 0]	n/a	catFR1	0	R1421M
1081.479	2.547	1196605	REC_WORD_VV	2.547	n/a	<>	n/a	-999	5	[0, 0, 0]	n/a	catFR1	0	R1421M
1084.026	19.705	1199147	REC_END	n/a	n/a	n/a	n/a	-999	5	[0, 0, 0]	n/a	catFR1	0	R1421M
1103.731	10.351	1218863	COUNTDOWN_START	n/a	n/a	n/a	n/a	-999	6	[0, 0, 0]	n/a	catFR1	0	R1421M
1114.082	0.0	1229210	COUNTDOWN_END	n/a	n/a	n/a	n/a	-999	6	[0, 0, 0]	n/a	catFR1	0	R1421M
1114.082	2.083	1229210	ENCODING_START	n/a	n/a	n/a	n/a	-999	6	[0, 0, 0]	n/a	catFR1	0	R1421M
1116.165	1.616	1231291	WORD	n/a	wordpools/wordpool_categorized_EN.txt	RECLINER	Furniture	1	6	[0, 0, 0]	n/a	catFR1	0	R1421M
1117.781	0.934	1232903	WORD_OFF	n/a	n/a	RECLINER	Furniture	1	6	[0, 0, 0]	n/a	catFR1	0	R1421M
1118.715	1.616	1233840	WORD	n/a	wordpools/wordpool_categorized_EN.txt	BOOKCASE	Furniture	2	6	[0, 0, 0]	n/a	catFR1	0	R1421M
1120.331	0.834	1235452	WORD_OFF	n/a	n/a	BOOKCASE	Furniture	2	6	[0, 0, 0]	n/a	catFR1	0	R1421M
1121.165	1.6	1236292	WORD	n/a	wordpools/wordpool_categorized_EN.txt	LEVEL	Tools	3	6	[0, 0, 0]	n/a	catFR1	0	R1421M
1122.765	0.766	1237890	WORD_OFF	n/a	n/a	LEVEL	Tools	3	6	[0, 0, 0]	n/a	catFR1	0	R1421M
1123.531	1.617	1238662	WORD	n/a	wordpools/wordpool_categorized_EN.txt	AXE	Tools	4	6	[0, 0, 0]	n/a	catFR1	0	R1421M
1125.148	0.899	1240274	WORD_OFF	n/a	n/a	AXE	Tools	4	6	[0, 0, 0]	n/a	catFR1	0	R1421M
1126.047	1.601	1241170	WORD	n/a	wordpools/wordpool_categorized_EN.txt	HEADPHONES	Electronics	5	6	[0, 0, 0]	n/a	catFR1	0	R1421M
1127.648	0.967	1242768	WORD_OFF	n/a	n/a	HEADPHONES	Electronics	5	6	[0, 0, 0]	n/a	catFR1	0	R1421M
1128.615	1.6	1243746	WORD	n/a	wordpools/wordpool_categorized_EN.txt	SPEAKER	Electronics	6	6	[0, 0, 0]	n/a	catFR1	0	R1421M
1130.215	0.916	1245344	WORD_OFF	n/a	n/a	SPEAKER	Electronics	6	6	[0, 0, 0]	n/a	catFR1	0	R1421M
1131.131	1.6	1246254	WORD	n/a	wordpools/wordpool_categorized_EN.txt	WRENCH	Tools	7	6	[0, 0, 0]	n/a	catFR1	0	R1421M
1132.731	0.85	1247852	WORD_OFF	n/a	n/a	WRENCH	Tools	7	6	[0, 0, 0]	n/a	catFR1	0	R1421M
1133.581	1.6	1248706	WORD	n/a	wordpools/wordpool_categorized_EN.txt	SCREWDRIVER	Tools	8	6	[0, 0, 0]	n/a	catFR1	0	R1421M
1135.181	0.867	1250304	WORD_OFF	n/a	n/a	SCREWDRIVER	Tools	8	6	[0, 0, 0]	n/a	catFR1	0	R1421M
1136.048	1.6	1251172	WORD	n/a	wordpools/wordpool_categorized_EN.txt	DRESSER	Furniture	9	6	[0, 0, 0]	n/a	catFR1	0	R1421M
1137.648	0.9	1252770	WORD_OFF	n/a	n/a	DRESSER	Furniture	9	6	[0, 0, 0]	n/a	catFR1	0	R1421M
1138.548	1.6	1253666	WORD	n/a	wordpools/wordpool_categorized_EN.txt	TABLE	Furniture	10	6	[0, 0, 0]	n/a	catFR1	0	R1421M
1140.148	0.916	1255278	WORD_OFF	n/a	n/a	TABLE	Furniture	10	6	[0, 0, 0]	n/a	catFR1	0	R1421M
1141.064	1.617	1256187	WORD	n/a	wordpools/wordpool_categorized_EN.txt	COMPUTER	Electronics	11	6	[0, 0, 0]	n/a	catFR1	0	R1421M
1142.681	0.95	1257799	WORD_OFF	n/a	n/a	COMPUTER	Electronics	11	6	[0, 0, 0]	n/a	catFR1	0	R1421M
1143.631	1.617	1258750	WORD	n/a	wordpools/wordpool_categorized_EN.txt	CALCULATOR	Electronics	12	6	[0, 0, 0]	n/a	catFR1	0	R1421M
1145.248	0.001	1260371	PROB	0.001	n/a	n/a	n/a	-999	6	[1, 2, 4]	7	catFR1	0	R1421M
1145.249	0.0	1260372	START	n/a	n/a	n/a	n/a	-999	6	[-999, -999, -999]	n/a	catFR1	0	R1421M
1145.248	0.001	1260376	WORD_OFF	n/a	n/a	CALCULATOR	Electronics	12	6	[0, 0, 0]	n/a	catFR1	0	R1421M
1145.249	0.0	1260376	ENCODING_END	n/a	n/a	n/a	n/a	-999	6	[0, 0, 0]	n/a	catFR1	0	R1421M
1145.249	8.532	1260376	DISTRACT_START	n/a	n/a	n/a	n/a	-999	6	[0, 0, 0]	n/a	catFR1	0	R1421M
1153.781	17.966	1268904	PROB	17.966	n/a	n/a	n/a	-999	6	[3, 6, 8]	17	catFR1	0	R1421M
1171.747	0.0	1286869	STOP	n/a	n/a	n/a	n/a	-999	6	[-999, -999, -999]	n/a	catFR1	0	R1421M
1171.747	2.301	1286870	DISTRACT_END	n/a	n/a	n/a	n/a	-999	6	[0, 0, 0]	n/a	catFR1	0	R1421M
1174.048	1.966	1289165	REC_START	n/a	n/a	n/a	n/a	-999	6	[0, 0, 0]	n/a	catFR1	0	R1421M
1176.014	3.943	1291136	REC_WORD_VV	3.943	n/a	<>	n/a	-999	6	[0, 0, 0]	n/a	catFR1	0	R1421M
1179.957	0.544	1295078	REC_WORD	0.544	n/a	CAR	Vehicles	-999	6	[0, 0, 0]	n/a	catFR1	0	R1421M
1180.501	1.411	1295622	REC_WORD	1.411	n/a	MAP	n/a	-999	6	[0, 0, 0]	n/a	catFR1	0	R1421M
1181.912	4.016	1297033	REC_WORD_VV	4.016	n/a	<>	n/a	-999	6	[0, 0, 0]	n/a	catFR1	0	R1421M
1185.928	1.005	1301049	REC_WORD_VV	1.005	n/a	<>	n/a	-999	6	[0, 0, 0]	n/a	catFR1	0	R1421M
1186.933	1.0	1302054	REC_WORD_VV	1.0	n/a	<>	n/a	-999	6	[0, 0, 0]	n/a	catFR1	0	R1421M
1187.933	4.092	1303054	REC_WORD_VV	4.092	n/a	<>	n/a	-999	6	[0, 0, 0]	n/a	catFR1	0	R1421M
1192.025	0.955	1307146	REC_WORD_VV	0.955	n/a	<>	n/a	-999	6	[0, 0, 0]	n/a	catFR1	0	R1421M
1192.98	1.973	1308101	REC_WORD	1.973	n/a	BUILDING	n/a	-999	6	[0, 0, 0]	n/a	catFR1	0	R1421M
1194.953	2.812	1310074	REC_WORD_VV	2.812	n/a	<>	n/a	-999	6	[0, 0, 0]	n/a	catFR1	0	R1421M
1197.765	2.043	1312886	REC_WORD	2.043	n/a	BUILDING	n/a	-999	6	[0, 0, 0]	n/a	catFR1	0	R1421M
1199.808	1.683	1314929	REC_WORD	1.683	n/a	REFRIGERATOR	n/a	-999	6	[0, 0, 0]	n/a	catFR1	0	R1421M
1201.491	0.997	1316611	REC_WORD_VV	0.997	n/a	<>	n/a	-999	6	[0, 0, 0]	n/a	catFR1	0	R1421M
1202.488	1.0	1317608	REC_WORD_VV	1.0	n/a	<>	n/a	-999	6	[0, 0, 0]	n/a	catFR1	0	R1421M
1203.488	0.851	1318608	REC_WORD_VV	0.851	n/a	<>	n/a	-999	6	[0, 0, 0]	n/a	catFR1	0	R1421M
1204.339	9.526	1319455	REC_END	n/a	n/a	n/a	n/a	-999	6	[0, 0, 0]	n/a	catFR1	0	R1421M
1213.865	10.35	1328989	COUNTDOWN_START	n/a	n/a	n/a	n/a	-999	7	[0, 0, 0]	n/a	catFR1	0	R1421M
1224.215	0.0	1339336	COUNTDOWN_END	n/a	n/a	n/a	n/a	-999	7	[0, 0, 0]	n/a	catFR1	0	R1421M
1224.215	2.183	1339336	ENCODING_START	n/a	n/a	n/a	n/a	-999	7	[0, 0, 0]	n/a	catFR1	0	R1421M
1226.398	1.616	1341513	WORD	n/a	wordpools/wordpool_categorized_EN.txt	PANDA	Zoo	1	7	[0, 0, 0]	n/a	catFR1	0	R1421M
1228.014	0.834	1343139	WORD_OFF	n/a	n/a	PANDA	Zoo	1	7	[0, 0, 0]	n/a	catFR1	0	R1421M
1228.848	1.616	1343965	WORD	n/a	wordpools/wordpool_categorized_EN.txt	ZEBRA	Zoo	2	7	[0, 0, 0]	n/a	catFR1	0	R1421M
1230.464	0.9	1345577	WORD_OFF	n/a	n/a	ZEBRA	Zoo	2	7	[0, 0, 0]	n/a	catFR1	0	R1421M
1231.364	1.6	1346487	WORD	n/a	wordpools/wordpool_categorized_EN.txt	GRAPE	Fruit	3	7	[0, 0, 0]	n/a	catFR1	0	R1421M
1232.964	0.917	1348085	WORD_OFF	n/a	n/a	GRAPE	Fruit	3	7	[0, 0, 0]	n/a	catFR1	0	R1421M
1233.881	1.6	1348994	WORD	n/a	wordpools/wordpool_categorized_EN.txt	BLUEBERRY	Fruit	4	7	[0, 0, 0]	n/a	catFR1	0	R1421M
1235.481	0.85	1350606	WORD_OFF	n/a	n/a	BLUEBERRY	Fruit	4	7	[0, 0, 0]	n/a	catFR1	0	R1421M
1236.331	1.6	1351447	WORD	n/a	wordpools/wordpool_categorized_EN.txt	OYSTER	OceanAnimals	5	7	[0, 0, 0]	n/a	catFR1	0	R1421M
1237.931	0.983	1353045	WORD_OFF	n/a	n/a	OYSTER	OceanAnimals	5	7	[0, 0, 0]	n/a	catFR1	0	R1421M
1238.914	1.617	1354037	WORD	n/a	wordpools/wordpool_categorized_EN.txt	WHALE	OceanAnimals	6	7	[0, 0, 0]	n/a	catFR1	0	R1421M
1240.531	0.866	1355649	WORD_OFF	n/a	n/a	WHALE	OceanAnimals	6	7	[0, 0, 0]	n/a	catFR1	0	R1421M
1241.397	1.6	1356517	WORD	n/a	wordpools/wordpool_categorized_EN.txt	BANANA	Fruit	7	7	[0, 0, 0]	n/a	catFR1	0	R1421M
1242.997	0.9	1358115	WORD_OFF	n/a	n/a	BANANA	Fruit	7	7	[0, 0, 0]	n/a	catFR1	0	R1421M
1243.897	1.6	1359011	WORD	n/a	wordpools/wordpool_categorized_EN.txt	LIME	Fruit	8	7	[0, 0, 0]	n/a	catFR1	0	R1421M
1245.497	1.0	1360623	WORD_OFF	n/a	n/a	LIME	Fruit	8	7	[0, 0, 0]	n/a	catFR1	0	R1421M
1246.497	1.6	1361615	WORD	n/a	wordpools/wordpool_categorized_EN.txt	CHEETAH	Zoo	9	7	[0, 0, 0]	n/a	catFR1	0	R1421M
1248.097	0.783	1363213	WORD_OFF	n/a	n/a	CHEETAH	Zoo	9	7	[0, 0, 0]	n/a	catFR1	0	R1421M
1248.88	1.6	1363998	WORD	n/a	wordpools/wordpool_categorized_EN.txt	BEAR	Zoo	10	7	[0, 0, 0]	n/a	catFR1	0	R1421M
1250.48	0.968	1365597	WORD_OFF	n/a	n/a	BEAR	Zoo	10	7	[0, 0, 0]	n/a	catFR1	0	R1421M
1251.448	1.599	1366561	WORD	n/a	wordpools/wordpool_categorized_EN.txt	FISH	OceanAnimals	11	7	[0, 0, 0]	n/a	catFR1	0	R1421M
1253.047	0.851	1368159	WORD_OFF	n/a	n/a	FISH	OceanAnimals	11	7	[0, 0, 0]	n/a	catFR1	0	R1421M
1253.898	1.601	1369013	WORD	n/a	wordpools/wordpool_categorized_EN.txt	CRAB	OceanAnimals	12	7	[0, 0, 0]	n/a	catFR1	0	R1421M
1255.499	0.0	1370612	WORD_OFF	n/a	n/a	CRAB	OceanAnimals	12	7	[0, 0, 0]	n/a	catFR1	0	R1421M
1255.499	0.001	1370617	PROB	0.001	n/a	n/a	n/a	-999	7	[1, 7, 2]	10	catFR1	0	R1421M
1255.5	0.0	1370618	START	n/a	n/a	n/a	n/a	-999	7	[-999, -999, -999]	n/a	catFR1	0	R1421M
1255.5	0.0	1370625	ENCODING_END	n/a	n/a	n/a	n/a	-999	7	[0, 0, 0]	n/a	catFR1	0	R1421M
1255.5	11.066	1370625	DISTRACT_START	n/a	n/a	n/a	n/a	-999	7	[0, 0, 0]	n/a	catFR1	0	R1421M
1266.566	8.033	1381683	PROB	8.033	n/a	n/a	n/a	-999	7	[1, 7, 3]	11	catFR1	0	R1421M
1274.599	7.115	1389716	PROB	7.115	n/a	n/a	n/a	-999	7	[1, 6, 7]	14	catFR1	0	R1421M
1281.714	0.0	1396831	DISTRACT_END	n/a	n/a	n/a	n/a	-999	7	[0, 0, 0]	n/a	catFR1	0	R1421M
1281.714	2.267	1396831	STOP	n/a	n/a	n/a	n/a	-999	7	[-999, -999, -999]	n/a	catFR1	0	R1421M
1283.981	1.814	1399098	REC_START	n/a	n/a	n/a	n/a	-999	7	[0, 0, 0]	n/a	catFR1	0	R1421M
1285.795	2.065	1400911	REC_WORD_VV	2.065	n/a	<>	n/a	-999	7	[0, 0, 0]	n/a	catFR1	0	R1421M
1287.86	0.438	1402976	REC_WORD	0.438	n/a	PANDA	Zoo	1	7	[0, 0, 0]	n/a	catFR1	0	R1421M
1288.298	2.279	1403414	REC_WORD	2.279	n/a	ZEBRA	Zoo	2	7	[0, 0, 0]	n/a	catFR1	0	R1421M
1290.577	1.948	1405693	REC_WORD	1.948	n/a	GRAPE	Fruit	3	7	[0, 0, 0]	n/a	catFR1	0	R1421M
1292.525	7.347	1407641	REC_WORD_VV	7.347	n/a	<>	n/a	-999	7	[0, 0, 0]	n/a	catFR1	0	R1421M
1299.872	1.0	1414988	REC_WORD_VV	1.0	n/a	<>	n/a	-999	7	[0, 0, 0]	n/a	catFR1	0	R1421M
1300.872	8.849	1415988	REC_WORD_VV	8.849	n/a	<>	n/a	-999	7	[0, 0, 0]	n/a	catFR1	0	R1421M
1309.721	4.541	1424836	REC_WORD_VV	4.541	n/a	<>	n/a	-999	7	[0, 0, 0]	n/a	catFR1	0	R1421M
1314.262	10.302	1429374	REC_END	n/a	n/a	n/a	n/a	-999	7	[0, 0, 0]	n/a	catFR1	0	R1421M
1324.564	10.35	1439680	COUNTDOWN_START	n/a	n/a	n/a	n/a	-999	8	[0, 0, 0]	n/a	catFR1	0	R1421M
1334.914	0.0	1450027	COUNTDOWN_END	n/a	n/a	n/a	n/a	-999	8	[0, 0, 0]	n/a	catFR1	0	R1421M
1334.914	2.167	1450027	ENCODING_START	n/a	n/a	n/a	n/a	-999	8	[0, 0, 0]	n/a	catFR1	0	R1421M
1337.081	1.617	1452204	WORD	n/a	wordpools/wordpool_categorized_EN.txt	SQUID	OceanAnimals	1	8	[0, 0, 0]	n/a	catFR1	0	R1421M
1338.698	0.817	1453816	WORD_OFF	n/a	n/a	SQUID	OceanAnimals	1	8	[0, 0, 0]	n/a	catFR1	0	R1421M
1339.515	1.6	1454628	WORD	n/a	wordpools/wordpool_categorized_EN.txt	LOBSTER	OceanAnimals	2	8	[0, 0, 0]	n/a	catFR1	0	R1421M
1341.115	0.95	1456227	WORD_OFF	n/a	n/a	LOBSTER	OceanAnimals	2	8	[0, 0, 0]	n/a	catFR1	0	R1421M
1342.065	1.616	1457177	WORD	n/a	wordpools/wordpool_categorized_EN.txt	ELEPHANT	Zoo	3	8	[0, 0, 0]	n/a	catFR1	0	R1421M
1343.681	0.884	1458789	WORD_OFF	n/a	n/a	ELEPHANT	Zoo	3	8	[0, 0, 0]	n/a	catFR1	0	R1421M
1344.565	1.6	1459685	WORD	n/a	wordpools/wordpool_categorized_EN.txt	MONKEY	Zoo	4	8	[0, 0, 0]	n/a	catFR1	0	R1421M
1346.165	0.799	1461283	WORD_OFF	n/a	n/a	MONKEY	Zoo	4	8	[0, 0, 0]	n/a	catFR1	0	R1421M
1346.964	1.617	1462082	WORD	n/a	wordpools/wordpool_categorized_EN.txt	TELEVISION	Electronics	5	8	[0, 0, 0]	n/a	catFR1	0	R1421M
1348.581	0.834	1463694	WORD_OFF	n/a	n/a	TELEVISION	Electronics	5	8	[0, 0, 0]	n/a	catFR1	0	R1421M
1349.415	1.6	1464535	WORD	n/a	wordpools/wordpool_categorized_EN.txt	MICROWAVE	Electronics	6	8	[0, 0, 0]	n/a	catFR1	0	R1421M
1351.015	0.849	1466133	WORD_OFF	n/a	n/a	MICROWAVE	Electronics	6	8	[0, 0, 0]	n/a	catFR1	0	R1421M
1351.864	1.601	1466973	WORD	n/a	wordpools/wordpool_categorized_EN.txt	DOLPHIN	OceanAnimals	7	8	[0, 0, 0]	n/a	catFR1	0	R1421M
1353.465	0.816	1468585	WORD_OFF	n/a	n/a	DOLPHIN	OceanAnimals	7	8	[0, 0, 0]	n/a	catFR1	0	R1421M
1354.281	1.617	1469398	WORD	n/a	wordpools/wordpool_categorized_EN.txt	TURTLE	OceanAnimals	8	8	[0, 0, 0]	n/a	catFR1	0	R1421M
1355.898	0.8	1471010	WORD_OFF	n/a	n/a	TURTLE	OceanAnimals	8	8	[0, 0, 0]	n/a	catFR1	0	R1421M
1356.698	1.6	1471809	WORD	n/a	wordpools/wordpool_categorized_EN.txt	PHONE	Electronics	9	8	[0, 0, 0]	n/a	catFR1	0	R1421M
1358.298	0.8	1473408	WORD_OFF	n/a	n/a	PHONE	Electronics	9	8	[0, 0, 0]	n/a	catFR1	0	R1421M
1359.098	1.6	1474207	WORD	n/a	wordpools/wordpool_categorized_EN.txt	RADIO	Electronics	10	8	[0, 0, 0]	n/a	catFR1	0	R1421M
1360.698	0.883	1475819	WORD_OFF	n/a	n/a	RADIO	Electronics	10	8	[0, 0, 0]	n/a	catFR1	0	R1421M
1361.581	1.6	1476700	WORD	n/a	wordpools/wordpool_categorized_EN.txt	CHIMPANZEE	Zoo	11	8	[0, 0, 0]	n/a	catFR1	0	R1421M
1363.181	0.9	1478299	WORD_OFF	n/a	n/a	CHIMPANZEE	Zoo	11	8	[0, 0, 0]	n/a	catFR1	0	R1421M
1364.081	1.6	1479194	WORD	n/a	wordpools/wordpool_categorized_EN.txt	LION	Zoo	12	8	[0, 0, 0]	n/a	catFR1	0	R1421M
1365.681	0.002	1480792	WORD_OFF	n/a	n/a	LION	Zoo	12	8	[0, 0, 0]	n/a	catFR1	0	R1421M
1365.683	0.0	1480792	ENCODING_END	n/a	n/a	n/a	n/a	-999	8	[0, 0, 0]	n/a	catFR1	0	R1421M
1365.683	0.0	1480792	DISTRACT_START	n/a	n/a	n/a	n/a	-999	8	[0, 0, 0]	n/a	catFR1	0	R1421M
1365.682	0.001	1480795	PROB	0.001	n/a	n/a	n/a	-999	8	[4, 3, 4]	11	catFR1	0	R1421M
1365.683	7.665	1480796	START	n/a	n/a	n/a	n/a	-999	8	[-999, -999, -999]	n/a	catFR1	0	R1421M
1373.348	8.383	1488460	PROB	8.383	n/a	n/a	n/a	-999	8	[8, 6, 7]	21	catFR1	0	R1421M
1381.731	5.75	1496843	PROB	5.75	n/a	n/a	n/a	-999	8	[1, 4, 5]	10	catFR1	0	R1421M
1387.481	0.0	1502589	DISTRACT_END	n/a	n/a	n/a	n/a	-999	8	[0, 0, 0]	n/a	catFR1	0	R1421M
1387.481	2.1	1502593	STOP	n/a	n/a	n/a	n/a	-999	8	[-999, -999, -999]	n/a	catFR1	0	R1421M
1389.581	1.539	1504691	REC_START	n/a	n/a	n/a	n/a	-999	8	[0, 0, 0]	n/a	catFR1	0	R1421M
1391.12	4.375	1506232	REC_WORD_VV	4.375	n/a	<>	n/a	-999	8	[0, 0, 0]	n/a	catFR1	0	R1421M
1395.495	0.684	1510606	REC_WORD	0.684	n/a	PANDA	Zoo	-999	8	[0, 0, 0]	n/a	catFR1	0	R1421M
1396.179	2.863	1511290	REC_WORD	2.863	n/a	GRAPE	Fruit	-999	8	[0, 0, 0]	n/a	catFR1	0	R1421M
1399.042	0.632	1514153	REC_WORD	0.632	n/a	MOUNTAIN	Landscapes	-999	8	[0, 0, 0]	n/a	catFR1	0	R1421M
1399.674	3.344	1514785	REC_WORD	3.344	n/a	MOUNTAIN RANGE	n/a	-999	8	[0, 0, 0]	n/a	catFR1	0	R1421M
1403.018	7.339	1518129	REC_WORD_VV	7.339	n/a	<>	n/a	-999	8	[0, 0, 0]	n/a	catFR1	0	R1421M
1410.357	0.436	1525468	REC_WORD_VV	0.436	n/a	<>	n/a	-999	8	[0, 0, 0]	n/a	catFR1	0	R1421M
1410.793	0.577	1525904	REC_WORD	0.577	n/a	TRUCK	Vehicles	-999	8	[0, 0, 0]	n/a	catFR1	0	R1421M
1411.37	2.103	1526481	REC_WORD	2.103	n/a	JEEP	Vehicles	-999	8	[0, 0, 0]	n/a	catFR1	0	R1421M
1413.473	6.386	1528583	REC_WORD_VV	6.386	n/a	<>	n/a	-999	8	[0, 0, 0]	n/a	catFR1	0	R1421M
1419.859	12.289	1534967	REC_END	n/a	n/a	n/a	n/a	-999	8	[0, 0, 0]	n/a	catFR1	0	R1421M
1432.148	10.351	1547256	COUNTDOWN_START	n/a	n/a	n/a	n/a	-999	9	[0, 0, 0]	n/a	catFR1	0	R1421M
1442.499	0.0	1557603	COUNTDOWN_END	n/a	n/a	n/a	n/a	-999	9	[0, 0, 0]	n/a	catFR1	0	R1421M
1442.499	2.166	1557617	ENCODING_START	n/a	n/a	n/a	n/a	-999	9	[0, 0, 0]	n/a	catFR1	0	R1421M
1444.665	1.616	1559780	WORD	n/a	wordpools/wordpool_categorized_EN.txt	SPANDEX	Fabric	1	9	[0, 0, 0]	n/a	catFR1	0	R1421M
1446.281	0.817	1561392	WORD_OFF	n/a	n/a	SPANDEX	Fabric	1	9	[0, 0, 0]	n/a	catFR1	0	R1421M
1447.098	1.6	1562205	WORD	n/a	wordpools/wordpool_categorized_EN.txt	SATIN	Fabric	2	9	[0, 0, 0]	n/a	catFR1	0	R1421M
1448.698	0.95	1563803	WORD_OFF	n/a	n/a	SATIN	Fabric	2	9	[0, 0, 0]	n/a	catFR1	0	R1421M
1449.648	1.617	1564754	WORD	n/a	wordpools/wordpool_categorized_EN.txt	CORN	Vegetables	3	9	[0, 0, 0]	n/a	catFR1	0	R1421M
1451.265	0.932	1566380	WORD_OFF	n/a	n/a	CORN	Vegetables	3	9	[0, 0, 0]	n/a	catFR1	0	R1421M
1452.197	1.601	1567303	WORD	n/a	wordpools/wordpool_categorized_EN.txt	CUCUMBER	Vegetables	4	9	[0, 0, 0]	n/a	catFR1	0	R1421M
1453.798	0.8	1568901	WORD_OFF	n/a	n/a	CUCUMBER	Vegetables	4	9	[0, 0, 0]	n/a	catFR1	0	R1421M
1454.598	1.6	1569714	WORD	n/a	wordpools/wordpool_categorized_EN.txt	OCEAN	Landscapes	5	9	[0, 0, 0]	n/a	catFR1	0	R1421M
1456.198	0.767	1571312	WORD_OFF	n/a	n/a	OCEAN	Landscapes	5	9	[0, 0, 0]	n/a	catFR1	0	R1421M
1456.965	1.616	1572070	WORD	n/a	wordpools/wordpool_categorized_EN.txt	WOODS	Landscapes	6	9	[0, 0, 0]	n/a	catFR1	0	R1421M
1458.581	0.95	1573696	WORD_OFF	n/a	n/a	WOODS	Landscapes	6	9	[0, 0, 0]	n/a	catFR1	0	R1421M
1459.531	1.6	1574647	WORD	n/a	wordpools/wordpool_categorized_EN.txt	SILK	Fabric	7	9	[0, 0, 0]	n/a	catFR1	0	R1421M
1461.131	0.95	1576245	WORD_OFF	n/a	n/a	SILK	Fabric	7	9	[0, 0, 0]	n/a	catFR1	0	R1421M
1462.081	1.6	1577195	WORD	n/a	wordpools/wordpool_categorized_EN.txt	SUEDE	Fabric	8	9	[0, 0, 0]	n/a	catFR1	0	R1421M
1463.681	0.817	1578794	WORD_OFF	n/a	n/a	SUEDE	Fabric	8	9	[0, 0, 0]	n/a	catFR1	0	R1421M
1464.498	1.6	1579607	WORD	n/a	wordpools/wordpool_categorized_EN.txt	SPINACH	Vegetables	9	9	[0, 0, 0]	n/a	catFR1	0	R1421M
1466.098	0.8	1581205	WORD_OFF	n/a	n/a	SPINACH	Vegetables	9	9	[0, 0, 0]	n/a	catFR1	0	R1421M
1466.898	1.617	1582004	WORD	n/a	wordpools/wordpool_categorized_EN.txt	LETTUCE	Vegetables	10	9	[0, 0, 0]	n/a	catFR1	0	R1421M
1468.515	0.816	1583630	WORD_OFF	n/a	n/a	LETTUCE	Vegetables	10	9	[0, 0, 0]	n/a	catFR1	0	R1421M
1469.331	1.6	1584443	WORD	n/a	wordpools/wordpool_categorized_EN.txt	VALLEY	Landscapes	11	9	[0, 0, 0]	n/a	catFR1	0	R1421M
1470.931	0.95	1586041	WORD_OFF	n/a	n/a	VALLEY	Landscapes	11	9	[0, 0, 0]	n/a	catFR1	0	R1421M
1471.881	1.617	1586991	WORD	n/a	wordpools/wordpool_categorized_EN.txt	RIVER	Landscapes	12	9	[0, 0, 0]	n/a	catFR1	0	R1421M
1473.498	0.002	1588603	WORD_OFF	n/a	n/a	RIVER	Landscapes	12	9	[0, 0, 0]	n/a	catFR1	0	R1421M
1473.5	0.0	1588603	ENCODING_END	n/a	n/a	n/a	n/a	-999	9	[0, 0, 0]	n/a	catFR1	0	R1421M
1473.498	0.002	1588606	PROB	0.002	n/a	n/a	n/a	-999	9	[1, 3, 2]	6	catFR1	0	R1421M
1473.5	0.0	1588608	START	n/a	n/a	n/a	n/a	-999	9	[-999, -999, -999]	n/a	catFR1	0	R1421M
1473.5	6.615	1588617	DISTRACT_START	n/a	n/a	n/a	n/a	-999	9	[0, 0, 0]	n/a	catFR1	0	R1421M
1480.115	6.1	1595222	PROB	6.1	n/a	n/a	n/a	-999	9	[3, 5, 3]	11	catFR1	0	R1421M
1486.215	4.817	1601322	PROB	4.817	n/a	n/a	n/a	-999	9	[5, 6, 2]	13	catFR1	0	R1421M
1491.032	22.199	1606139	PROB	22.199	n/a	n/a	n/a	-999	9	[2, 4, 4]	10	catFR1	0	R1421M
1513.231	0.0	1628337	STOP	n/a	n/a	n/a	n/a	-999	9	[-999, -999, -999]	n/a	catFR1	0	R1421M
1513.231	2.35	1628338	DISTRACT_END	n/a	n/a	n/a	n/a	-999	9	[0, 0, 0]	n/a	catFR1	0	R1421M
1515.581	2.712	1630689	REC_START	n/a	n/a	n/a	n/a	-999	9	[0, 0, 0]	n/a	catFR1	0	R1421M
1518.293	6.507	1633399	REC_WORD_VV	6.507	n/a	<>	n/a	-999	9	[0, 0, 0]	n/a	catFR1	0	R1421M
1524.8	2.631	1639905	REC_WORD	2.631	n/a	GRAPE	Fruit	-999	9	[0, 0, 0]	n/a	catFR1	0	R1421M
1527.431	2.384	1642536	REC_WORD	2.384	n/a	MONKEY	Zoo	-999	9	[0, 0, 0]	n/a	catFR1	0	R1421M
1529.815	4.743	1644920	REC_WORD_VV	4.743	n/a	<>	n/a	-999	9	[0, 0, 0]	n/a	catFR1	0	R1421M
1534.558	5.367	1649663	REC_WORD	5.367	n/a	TRUCK	Vehicles	-999	9	[0, 0, 0]	n/a	catFR1	0	R1421M
1539.925	1.626	1655030	REC_WORD	1.626	n/a	DIARY	n/a	-999	9	[0, 0, 0]	n/a	catFR1	0	R1421M
1541.551	1.521	1656655	REC_WORD	1.521	n/a	RULE	n/a	-999	9	[0, 0, 0]	n/a	catFR1	0	R1421M
1543.072	1.0	1658176	REC_WORD_VV	1.0	n/a	<>	n/a	-999	9	[0, 0, 0]	n/a	catFR1	0	R1421M
1544.072	1.8	1659176	REC_WORD_VV	1.8	n/a	<>	n/a	-999	9	[0, 0, 0]	n/a	catFR1	0	R1421M
1545.872	16.459	1660978	REC_END	n/a	n/a	n/a	n/a	-999	9	[0, 0, 0]	n/a	catFR1	0	R1421M
1562.331	10.35	1677442	COUNTDOWN_START	n/a	n/a	n/a	n/a	-999	10	[0, 0, 0]	n/a	catFR1	0	R1421M
1572.681	0.001	1687790	COUNTDOWN_END	n/a	n/a	n/a	n/a	-999	10	[0, 0, 0]	n/a	catFR1	0	R1421M
1572.682	2.082	1687790	ENCODING_START	n/a	n/a	n/a	n/a	-999	10	[0, 0, 0]	n/a	catFR1	0	R1421M
1574.764	1.617	1689870	WORD	n/a	wordpools/wordpool_categorized_EN.txt	DAISY	Flowers	1	10	[0, 0, 0]	n/a	catFR1	0	R1421M
1576.381	0.95	1691482	WORD_OFF	n/a	n/a	DAISY	Flowers	1	10	[0, 0, 0]	n/a	catFR1	0	R1421M
1577.331	1.616	1692433	WORD	n/a	wordpools/wordpool_categorized_EN.txt	TULIP	Flowers	2	10	[0, 0, 0]	n/a	catFR1	0	R1421M
1578.947	1.0	1694045	WORD_OFF	n/a	n/a	TULIP	Flowers	2	10	[0, 0, 0]	n/a	catFR1	0	R1421M
1579.947	1.6	1695050	WORD	n/a	wordpools/wordpool_categorized_EN.txt	POTATO	Vegetables	3	10	[0, 0, 0]	n/a	catFR1	0	R1421M
1581.547	1.0	1696649	WORD_OFF	n/a	n/a	POTATO	Vegetables	3	10	[0, 0, 0]	n/a	catFR1	0	R1421M
1582.547	1.617	1697654	WORD	n/a	wordpools/wordpool_categorized_EN.txt	BROCCOLI	Vegetables	4	10	[0, 0, 0]	n/a	catFR1	0	R1421M
1584.164	0.95	1699266	WORD_OFF	n/a	n/a	BROCCOLI	Vegetables	4	10	[0, 0, 0]	n/a	catFR1	0	R1421M
1585.114	1.6	1700217	WORD	n/a	wordpools/wordpool_categorized_EN.txt	GIRAFFE	Zoo	5	10	[0, 0, 0]	n/a	catFR1	0	R1421M
1586.714	0.95	1701815	WORD_OFF	n/a	n/a	GIRAFFE	Zoo	5	10	[0, 0, 0]	n/a	catFR1	0	R1421M
1587.664	1.601	1702766	WORD	n/a	wordpools/wordpool_categorized_EN.txt	GORILLA	Zoo	6	10	[0, 0, 0]	n/a	catFR1	0	R1421M
1589.265	0.8	1704364	WORD_OFF	n/a	n/a	GORILLA	Zoo	6	10	[0, 0, 0]	n/a	catFR1	0	R1421M
1590.065	1.6	1705163	WORD	n/a	wordpools/wordpool_categorized_EN.txt	CARROT	Vegetables	7	10	[0, 0, 0]	n/a	catFR1	0	R1421M
1591.665	0.8	1706775	WORD_OFF	n/a	n/a	CARROT	Vegetables	7	10	[0, 0, 0]	n/a	catFR1	0	R1421M
1592.465	1.601	1707574	WORD	n/a	wordpools/wordpool_categorized_EN.txt	CAULIFLOWER	Vegetables	8	10	[0, 0, 0]	n/a	catFR1	0	R1421M
1594.066	0.916	1709173	WORD_OFF	n/a	n/a	CAULIFLOWER	Vegetables	8	10	[0, 0, 0]	n/a	catFR1	0	R1421M
1594.982	1.616	1710082	WORD	n/a	wordpools/wordpool_categorized_EN.txt	TIGER	Zoo	9	10	[0, 0, 0]	n/a	catFR1	0	R1421M
1596.598	0.917	1711694	WORD_OFF	n/a	n/a	TIGER	Zoo	9	10	[0, 0, 0]	n/a	catFR1	0	R1421M
1597.515	1.6	1712617	WORD	n/a	wordpools/wordpool_categorized_EN.txt	ORANGUTAN	Zoo	10	10	[0, 0, 0]	n/a	catFR1	0	R1421M
1599.115	0.916	1714215	WORD_OFF	n/a	n/a	ORANGUTAN	Zoo	10	10	[0, 0, 0]	n/a	catFR1	0	R1421M
1600.031	1.617	1715138	WORD	n/a	wordpools/wordpool_categorized_EN.txt	SUNFLOWER	Flowers	11	10	[0, 0, 0]	n/a	catFR1	0	R1421M
1601.648	0.849	1716750	WORD_OFF	n/a	n/a	SUNFLOWER	Flowers	11	10	[0, 0, 0]	n/a	catFR1	0	R1421M
1602.497	1.618	1717605	WORD	n/a	wordpools/wordpool_categorized_EN.txt	MARIGOLD	Flowers	12	10	[0, 0, 0]	n/a	catFR1	0	R1421M
1604.115	0.001	1719217	WORD_OFF	n/a	n/a	MARIGOLD	Flowers	12	10	[0, 0, 0]	n/a	catFR1	0	R1421M
1604.116	0.007	1719217	PROB	0.007	n/a	n/a	n/a	-999	10	[5, 8, 7]	21	catFR1	0	R1421M
1604.123	0.0	1719224	START	n/a	n/a	n/a	n/a	-999	10	[-999, -999, -999]	n/a	catFR1	0	R1421M
1604.123	0.0	1719230	ENCODING_END	n/a	n/a	n/a	n/a	-999	10	[0, 0, 0]	n/a	catFR1	0	R1421M
1604.123	17.408	1719230	DISTRACT_START	n/a	n/a	n/a	n/a	-999	10	[0, 0, 0]	n/a	catFR1	0	R1421M
1621.531	16.366	1736632	PROB	16.366	n/a	n/a	n/a	-999	10	[6, 8, 8]	22	catFR1	0	R1421M
1637.897	0.0	1752997	STOP	n/a	n/a	n/a	n/a	-999	10	[-999, -999, -999]	n/a	catFR1	0	R1421M
1637.897	2.301	1753000	DISTRACT_END	n/a	n/a	n/a	n/a	-999	10	[0, 0, 0]	n/a	catFR1	0	R1421M
1640.198	2.379	1755295	REC_START	n/a	n/a	n/a	n/a	-999	10	[0, 0, 0]	n/a	catFR1	0	R1421M
1642.577	6.589	1757677	REC_WORD_VV	6.589	n/a	<>	n/a	-999	10	[0, 0, 0]	n/a	catFR1	0	R1421M
1649.166	0.537	1764265	REC_WORD_VV	0.537	n/a	<>	n/a	-999	10	[0, 0, 0]	n/a	catFR1	0	R1421M
1649.703	1.0	1764802	REC_WORD_VV	1.0	n/a	<>	n/a	-999	10	[0, 0, 0]	n/a	catFR1	0	R1421M
1650.703	3.596	1765802	REC_WORD_VV	3.596	n/a	<>	n/a	-999	10	[0, 0, 0]	n/a	catFR1	0	R1421M
1654.299	0.83	1769398	REC_WORD_VV	0.83	n/a	<>	n/a	-999	10	[0, 0, 0]	n/a	catFR1	0	R1421M
1655.129	2.082	1770228	REC_WORD	2.082	n/a	SQUID	OceanAnimals	-999	10	[0, 0, 0]	n/a	catFR1	0	R1421M
1657.211	3.127	1772310	REC_WORD	3.127	n/a	SCHOOL	n/a	-999	10	[0, 0, 0]	n/a	catFR1	0	R1421M
1660.338	2.751	1775437	REC_WORD	2.751	n/a	CARROT	Vegetables	7	10	[0, 0, 0]	n/a	catFR1	0	R1421M
1663.089	2.504	1778188	REC_WORD_VV	2.504	n/a	<>	n/a	-999	10	[0, 0, 0]	n/a	catFR1	0	R1421M
1665.593	2.507	1780692	REC_WORD_VV	2.507	n/a	<>	n/a	-999	10	[0, 0, 0]	n/a	catFR1	0	R1421M
1668.1	2.386	1783199	REC_WORD	2.386	n/a	MARSHMALLOW	n/a	-999	10	[0, 0, 0]	n/a	catFR1	0	R1421M
1670.486	15.745	1785584	REC_END	n/a	n/a	n/a	n/a	-999	10	[0, 0, 0]	n/a	catFR1	0	R1421M
1686.231	10.351	1801332	COUNTDOWN_START	n/a	n/a	n/a	n/a	-999	11	[0, 0, 0]	n/a	catFR1	0	R1421M
1696.582	0.0	1811679	COUNTDOWN_END	n/a	n/a	n/a	n/a	-999	11	[0, 0, 0]	n/a	catFR1	0	R1421M
1696.582	1.966	1811679	ENCODING_START	n/a	n/a	n/a	n/a	-999	11	[0, 0, 0]	n/a	catFR1	0	R1421M
1698.548	1.617	1813649	WORD	n/a	wordpools/wordpool_categorized_EN.txt	STOVE	Appliances	1	11	[0, 0, 0]	n/a	catFR1	0	R1421M
1700.165	0.866	1815261	WORD_OFF	n/a	n/a	STOVE	Appliances	1	11	[0, 0, 0]	n/a	catFR1	0	R1421M
1701.031	1.6	1816129	WORD	n/a	wordpools/wordpool_categorized_EN.txt	FREEZER	Appliances	2	11	[0, 0, 0]	n/a	catFR1	0	R1421M
1702.631	0.867	1817728	WORD_OFF	n/a	n/a	FREEZER	Appliances	2	11	[0, 0, 0]	n/a	catFR1	0	R1421M
1703.498	1.6	1818596	WORD	n/a	wordpools/wordpool_categorized_EN.txt	JACKET	Clothing	3	11	[0, 0, 0]	n/a	catFR1	0	R1421M
1705.098	1.0	1820194	WORD_OFF	n/a	n/a	JACKET	Clothing	3	11	[0, 0, 0]	n/a	catFR1	0	R1421M
1706.098	1.6	1821200	WORD	n/a	wordpools/wordpool_categorized_EN.txt	DRESS	Clothing	4	11	[0, 0, 0]	n/a	catFR1	0	R1421M
1707.698	0.984	1822798	WORD_OFF	n/a	n/a	DRESS	Clothing	4	11	[0, 0, 0]	n/a	catFR1	0	R1421M
1708.682	1.601	1823776	WORD	n/a	wordpools/wordpool_categorized_EN.txt	DOLL	Toys	5	11	[0, 0, 0]	n/a	catFR1	0	R1421M
1710.283	0.765	1825374	WORD_OFF	n/a	n/a	DOLL	Toys	5	11	[0, 0, 0]	n/a	catFR1	0	R1421M
1711.048	1.6	1826146	WORD	n/a	wordpools/wordpool_categorized_EN.txt	BARBIE	Toys	6	11	[0, 0, 0]	n/a	catFR1	0	R1421M
1712.648	0.967	1827744	WORD_OFF	n/a	n/a	BARBIE	Toys	6	11	[0, 0, 0]	n/a	catFR1	0	R1421M
1713.615	1.6	1828709	WORD	n/a	wordpools/wordpool_categorized_EN.txt	MIXER	Appliances	7	11	[0, 0, 0]	n/a	catFR1	0	R1421M
1715.215	0.85	1830307	WORD_OFF	n/a	n/a	MIXER	Appliances	7	11	[0, 0, 0]	n/a	catFR1	0	R1421M
1716.065	1.616	1831161	WORD	n/a	wordpools/wordpool_categorized_EN.txt	DRYER	Appliances	8	11	[0, 0, 0]	n/a	catFR1	0	R1421M
1717.681	0.817	1832773	WORD_OFF	n/a	n/a	DRYER	Appliances	8	11	[0, 0, 0]	n/a	catFR1	0	R1421M
1718.498	1.6	1833600	WORD	n/a	wordpools/wordpool_categorized_EN.txt	FOOTBALL	Toys	9	11	[0, 0, 0]	n/a	catFR1	0	R1421M
1720.098	0.95	1835198	WORD_OFF	n/a	n/a	FOOTBALL	Toys	9	11	[0, 0, 0]	n/a	catFR1	0	R1421M
1721.048	1.617	1836149	WORD	n/a	wordpools/wordpool_categorized_EN.txt	BASKETBALL	Toys	10	11	[0, 0, 0]	n/a	catFR1	0	R1421M
1722.665	0.833	1837761	WORD_OFF	n/a	n/a	BASKETBALL	Toys	10	11	[0, 0, 0]	n/a	catFR1	0	R1421M
1723.498	1.6	1838601	WORD	n/a	wordpools/wordpool_categorized_EN.txt	COAT	Clothing	11	11	[0, 0, 0]	n/a	catFR1	0	R1421M
1725.098	0.866	1840199	WORD_OFF	n/a	n/a	COAT	Clothing	11	11	[0, 0, 0]	n/a	catFR1	0	R1421M
1725.964	1.617	1841067	WORD	n/a	wordpools/wordpool_categorized_EN.txt	SHORTS	Clothing	12	11	[0, 0, 0]	n/a	catFR1	0	R1421M
1727.581	0.003	1842679	WORD_OFF	n/a	n/a	SHORTS	Clothing	12	11	[0, 0, 0]	n/a	catFR1	0	R1421M
1727.584	0.006	1842680	PROB	0.006	n/a	n/a	n/a	-999	11	[8, 2, 1]	11	catFR1	0	R1421M
1727.59	0.0	1842686	START	n/a	n/a	n/a	n/a	-999	11	[-999, -999, -999]	n/a	catFR1	0	R1421M
1727.59	0.0	1842693	ENCODING_END	n/a	n/a	n/a	n/a	-999	11	[0, 0, 0]	n/a	catFR1	0	R1421M
1727.59	5.709	1842693	DISTRACT_START	n/a	n/a	n/a	n/a	-999	11	[0, 0, 0]	n/a	catFR1	0	R1421M
1733.299	6.315	1848394	PROB	6.315	n/a	n/a	n/a	-999	11	[4, 4, 1]	9	catFR1	0	R1421M
1739.614	5.884	1854709	PROB	5.884	n/a	n/a	n/a	-999	11	[6, 5, 1]	12	catFR1	0	R1421M
1745.498	8.882	1860593	PROB	8.882	n/a	n/a	n/a	-999	11	[2, 7, 6]	15	catFR1	0	R1421M
1754.38	0.0	1869474	STOP	n/a	n/a	n/a	n/a	-999	11	[-999, -999, -999]	n/a	catFR1	0	R1421M
1754.38	2.151	1869477	DISTRACT_END	n/a	n/a	n/a	n/a	-999	11	[0, 0, 0]	n/a	catFR1	0	R1421M
1756.531	1.578	1871620	REC_START	n/a	n/a	n/a	n/a	-999	11	[0, 0, 0]	n/a	catFR1	0	R1421M
1758.109	1.037	1873203	REC_WORD_VV	1.037	n/a	<>	n/a	-999	11	[0, 0, 0]	n/a	catFR1	0	R1421M
1759.146	0.466	1874240	REC_WORD	0.466	n/a	STOVE	Appliances	1	11	[0, 0, 0]	n/a	catFR1	0	R1421M
1759.612	0.66	1874706	REC_WORD	0.66	n/a	COAT	Clothing	11	11	[0, 0, 0]	n/a	catFR1	0	R1421M
1760.272	2.567	1875366	REC_WORD	2.567	n/a	JACKET	Clothing	3	11	[0, 0, 0]	n/a	catFR1	0	R1421M
1762.839	9.65	1877933	REC_WORD_VV	9.65	n/a	<>	n/a	-999	11	[0, 0, 0]	n/a	catFR1	0	R1421M
1772.489	0.462	1887583	REC_WORD_VV	0.462	n/a	<>	n/a	-999	11	[0, 0, 0]	n/a	catFR1	0	R1421M
1772.951	1.323	1888045	REC_WORD	1.323	n/a	FREEZER	Appliances	2	11	[0, 0, 0]	n/a	catFR1	0	R1421M
1774.274	2.514	1889368	REC_WORD	2.514	n/a	TABLE	Furniture	-999	11	[0, 0, 0]	n/a	catFR1	0	R1421M
1776.788	4.223	1891881	REC_WORD_VV	4.223	n/a	<>	n/a	-999	11	[0, 0, 0]	n/a	catFR1	0	R1421M
1781.011	5.778	1896104	REC_WORD_VV	5.778	n/a	<>	n/a	-999	11	[0, 0, 0]	n/a	catFR1	0	R1421M
1786.789	15.892	1901882	REC_END	n/a	n/a	n/a	n/a	-999	11	[0, 0, 0]	n/a	catFR1	0	R1421M
1802.681	10.352	1917768	COUNTDOWN_START	n/a	n/a	n/a	n/a	-999	12	[0, 0, 0]	n/a	catFR1	0	R1421M
1813.033	0.0	1928129	COUNTDOWN_END	n/a	n/a	n/a	n/a	-999	12	[0, 0, 0]	n/a	catFR1	0	R1421M
1813.033	2.148	1928129	ENCODING_START	n/a	n/a	n/a	n/a	-999	12	[0, 0, 0]	n/a	catFR1	0	R1421M
1815.181	1.6	1930278	WORD	n/a	wordpools/wordpool_categorized_EN.txt	TROMBONE	Instruments	1	12	[0, 0, 0]	n/a	catFR1	0	R1421M
1816.781	0.883	1931876	WORD_OFF	n/a	n/a	TROMBONE	Instruments	1	12	[0, 0, 0]	n/a	catFR1	0	R1421M
1817.664	1.6	1932758	WORD	n/a	wordpools/wordpool_categorized_EN.txt	BANJO	Instruments	2	12	[0, 0, 0]	n/a	catFR1	0	R1421M
1819.264	0.933	1934356	WORD_OFF	n/a	n/a	BANJO	Instruments	2	12	[0, 0, 0]	n/a	catFR1	0	R1421M
1820.197	1.601	1935293	WORD	n/a	wordpools/wordpool_categorized_EN.txt	BUTTERFLY	Insects	3	12	[0, 0, 0]	n/a	catFR1	0	R1421M
1821.798	0.799	1936892	WORD_OFF	n/a	n/a	BUTTERFLY	Insects	3	12	[0, 0, 0]	n/a	catFR1	0	R1421M
1822.597	1.601	1937691	WORD	n/a	wordpools/wordpool_categorized_EN.txt	ANT	Insects	4	12	[0, 0, 0]	n/a	catFR1	0	R1421M
1824.198	0.932	1939289	WORD_OFF	n/a	n/a	ANT	Insects	4	12	[0, 0, 0]	n/a	catFR1	0	R1421M
1825.13	1.601	1940226	WORD	n/a	wordpools/wordpool_categorized_EN.txt	IRON	Appliances	5	12	[0, 0, 0]	n/a	catFR1	0	R1421M
1826.731	0.833	1941824	WORD_OFF	n/a	n/a	IRON	Appliances	5	12	[0, 0, 0]	n/a	catFR1	0	R1421M
1827.564	1.6	1942651	WORD	n/a	wordpools/wordpool_categorized_EN.txt	REFRIGERATOR	Appliances	6	12	[0, 0, 0]	n/a	catFR1	0	R1421M
1829.164	0.8	1944263	WORD_OFF	n/a	n/a	REFRIGERATOR	Appliances	6	12	[0, 0, 0]	n/a	catFR1	0	R1421M
1829.964	1.617	1945062	WORD	n/a	wordpools/wordpool_categorized_EN.txt	MOTH	Insects	7	12	[0, 0, 0]	n/a	catFR1	0	R1421M
1831.581	0.85	1946674	WORD_OFF	n/a	n/a	MOTH	Insects	7	12	[0, 0, 0]	n/a	catFR1	0	R1421M
1832.431	1.616	1947528	WORD	n/a	wordpools/wordpool_categorized_EN.txt	LADYBUG	Insects	8	12	[0, 0, 0]	n/a	catFR1	0	R1421M
1834.047	0.784	1949140	WORD_OFF	n/a	n/a	LADYBUG	Insects	8	12	[0, 0, 0]	n/a	catFR1	0	R1421M
1834.831	1.616	1949925	WORD	n/a	wordpools/wordpool_categorized_EN.txt	GUITAR	Instruments	9	12	[0, 0, 0]	n/a	catFR1	0	R1421M
1836.447	0.9	1951537	WORD_OFF	n/a	n/a	GUITAR	Instruments	9	12	[0, 0, 0]	n/a	catFR1	0	R1421M
1837.347	1.6	1952433	WORD	n/a	wordpools/wordpool_categorized_EN.txt	ORGAN	Instruments	10	12	[0, 0, 0]	n/a	catFR1	0	R1421M
1838.947	0.769	1954045	WORD_OFF	n/a	n/a	ORGAN	Instruments	10	12	[0, 0, 0]	n/a	catFR1	0	R1421M
1839.716	1.615	1954803	WORD	n/a	wordpools/wordpool_categorized_EN.txt	BLENDER	Appliances	11	12	[0, 0, 0]	n/a	catFR1	0	R1421M
1841.331	0.767	1956428	WORD_OFF	n/a	n/a	BLENDER	Appliances	11	12	[0, 0, 0]	n/a	catFR1	0	R1421M
1842.098	1.601	1957186	WORD	n/a	wordpools/wordpool_categorized_EN.txt	DISHWASHER	Appliances	12	12	[0, 0, 0]	n/a	catFR1	0	R1421M
1843.699	0.001	1958784	WORD_OFF	n/a	n/a	DISHWASHER	Appliances	12	12	[0, 0, 0]	n/a	catFR1	0	R1421M
1843.7	0.006	1958790	PROB	0.006	n/a	n/a	n/a	-999	12	[2, 8, 1]	11	catFR1	0	R1421M
1843.706	0.0	1958796	START	n/a	n/a	n/a	n/a	-999	12	[-999, -999, -999]	n/a	catFR1	0	R1421M
1843.706	0.0	1958798	ENCODING_END	n/a	n/a	n/a	n/a	-999	12	[0, 0, 0]	n/a	catFR1	0	R1421M
1843.706	5.793	1958798	DISTRACT_START	n/a	n/a	n/a	n/a	-999	12	[0, 0, 0]	n/a	catFR1	0	R1421M
1849.499	7.866	1964589	PROB	7.866	n/a	n/a	n/a	-999	12	[8, 1, 2]	11	catFR1	0	R1421M
1857.365	20.216	1972455	PROB	20.216	n/a	n/a	n/a	-999	12	[3, 5, 4]	12	catFR1	0	R1421M
1877.581	0.0	1992670	STOP	n/a	n/a	n/a	n/a	-999	12	[-999, -999, -999]	n/a	catFR1	0	R1421M
1877.581	2.316	1992678	DISTRACT_END	n/a	n/a	n/a	n/a	-999	12	[0, 0, 0]	n/a	catFR1	0	R1421M
1879.897	4.912	1994987	REC_START	n/a	n/a	n/a	n/a	-999	12	[0, 0, 0]	n/a	catFR1	0	R1421M
1884.809	0.4	1999897	REC_WORD_VV	0.4	n/a	<>	n/a	-999	12	[0, 0, 0]	n/a	catFR1	0	R1421M
1885.209	0.606	2000297	REC_WORD	0.606	n/a	FREEZER	Appliances	-999	12	[0, 0, 0]	n/a	catFR1	0	R1421M
1885.815	3.358	2000903	REC_WORD	3.358	n/a	COAT	Clothing	-999	12	[0, 0, 0]	n/a	catFR1	0	R1421M
1889.173	5.78	2004261	REC_WORD_VV	5.78	n/a	<>	n/a	-999	12	[0, 0, 0]	n/a	catFR1	0	R1421M
1894.953	2.462	2010041	REC_WORD_VV	2.462	n/a	<>	n/a	-999	12	[0, 0, 0]	n/a	catFR1	0	R1421M
1897.415	6.355	2012503	REC_WORD	6.355	n/a	DOG	n/a	-999	12	[0, 0, 0]	n/a	catFR1	0	R1421M
1903.77	3.248	2018857	REC_WORD_VV	3.248	n/a	<>	n/a	-999	12	[0, 0, 0]	n/a	catFR1	0	R1421M
1907.018	3.163	2022105	REC_WORD	3.163	n/a	TRUCK	Vehicles	-999	12	[0, 0, 0]	n/a	catFR1	0	R1421M
1910.181	0.0	2025262	REC_END	n/a	n/a	n/a	n/a	-999	12	[0, 0, 0]	n/a	catFR1	0	R1421M
