onset	duration	sample	trial_type	response_time	stim_file	item_name	category	serialpos	list	test	answer	experiment	session	subject
0.0	0.683	7398	INSTRUCT_START	n/a	n/a	n/a	n/a	-999	-999	[0, 0, 0]	n/a	catFR1	6	R1652A
0.683	27.013	8079	INSTRUCT_END	n/a	n/a	n/a	n/a	-999	-999	[0, 0, 0]	n/a	catFR1	6	R1652A
27.696	10.352	35090	COUNTDOWN_START	n/a	n/a	n/a	n/a	-999	-999	[0, 0, 0]	n/a	catFR1	6	R1652A
38.048	0.001	45440	COUNTDOWN_END	n/a	n/a	n/a	n/a	-999	-999	[0, 0, 0]	n/a	catFR1	6	R1652A
38.049	2.159	45440	ENCODING_START	n/a	n/a	n/a	n/a	-999	-1	[0, 0, 0]	n/a	catFR1	6	R1652A
40.208	1.597	47604	WORD	n/a	n/a	BOOKCASE	Furniture	1	-1	[0, 0, 0]	n/a	catFR1	6	R1652A
41.805	0.809	49205	WORD_OFF	n/a	n/a	BOOKCASE	Furniture	1	-1	[0, 0, 0]	n/a	catFR1	6	R1652A
42.614	1.599	50006	WORD	n/a	n/a	SOFA	Furniture	2	-1	[0, 0, 0]	n/a	catFR1	6	R1652A
44.213	0.915	51607	WORD_OFF	n/a	n/a	SOFA	Furniture	2	-1	[0, 0, 0]	n/a	catFR1	6	R1652A
45.128	1.601	52516	WORD	n/a	n/a	LEMONADE	Beverages	3	-1	[0, 0, 0]	n/a	catFR1	6	R1652A
46.729	0.774	54129	WORD_OFF	n/a	n/a	LEMONADE	Beverages	3	-1	[0, 0, 0]	n/a	catFR1	6	R1652A
47.503	1.601	54894	WORD	n/a	n/a	TEA	Beverages	4	-1	[0, 0, 0]	n/a	catFR1	6	R1652A
49.104	0.925	56496	WORD_OFF	n/a	n/a	TEA	Beverages	4	-1	[0, 0, 0]	n/a	catFR1	6	R1652A
50.029	1.607	57428	WORD	n/a	n/a	ARM	BodyParts	5	-1	[0, 0, 0]	n/a	catFR1	6	R1652A
51.636	0.935	59029	WORD_OFF	n/a	n/a	ARM	BodyParts	5	-1	[0, 0, 0]	n/a	catFR1	6	R1652A
52.571	1.6	59962	WORD	n/a	n/a	TOE	BodyParts	6	-1	[0, 0, 0]	n/a	catFR1	6	R1652A
54.171	0.958	61563	WORD_OFF	n/a	n/a	TOE	BodyParts	6	-1	[0, 0, 0]	n/a	catFR1	6	R1652A
55.129	1.609	62519	WORD	n/a	n/a	DESK	Furniture	7	-1	[0, 0, 0]	n/a	catFR1	6	R1652A
56.738	0.758	64133	WORD_OFF	n/a	n/a	DESK	Furniture	7	-1	[0, 0, 0]	n/a	catFR1	6	R1652A
57.496	1.608	64898	WORD	n/a	n/a	CABINET	Furniture	8	-1	[0, 0, 0]	n/a	catFR1	6	R1652A
59.104	0.792	66499	WORD_OFF	n/a	n/a	CABINET	Furniture	8	-1	[0, 0, 0]	n/a	catFR1	6	R1652A
59.896	1.608	67288	WORD	n/a	n/a	EYE	BodyParts	9	-1	[0, 0, 0]	n/a	catFR1	6	R1652A
61.504	0.767	68902	WORD_OFF	n/a	n/a	EYE	BodyParts	9	-1	[0, 0, 0]	n/a	catFR1	6	R1652A
62.271	1.6	69667	WORD	n/a	n/a	KNEE	BodyParts	10	-1	[0, 0, 0]	n/a	catFR1	6	R1652A
63.871	0.79	71268	WORD_OFF	n/a	n/a	KNEE	BodyParts	10	-1	[0, 0, 0]	n/a	catFR1	6	R1652A
64.661	1.601	72057	WORD	n/a	n/a	JUICE	Beverages	11	-1	[0, 0, 0]	n/a	catFR1	6	R1652A
66.262	0.833	73658	WORD_OFF	n/a	n/a	JUICE	Beverages	11	-1	[0, 0, 0]	n/a	catFR1	6	R1652A
67.095	1.601	74495	WORD	n/a	n/a	CIDER	Beverages	12	-1	[0, 0, 0]	n/a	catFR1	6	R1652A
68.696	0.003	76085	WORD_OFF	n/a	n/a	CIDER	Beverages	12	-1	[0, 0, 0]	n/a	catFR1	6	R1652A
68.699	0.001	76087	START	n/a	n/a	n/a	n/a	-999	-1	[-999, -999, -999]	n/a	catFR1	6	R1652A
68.7	0.0	76088	PROB	7.882	n/a	n/a	n/a	-999	-1	[2, 8, 7]	17.0	catFR1	6	R1652A
68.699	0.0	76097	ENCODING_END	n/a	n/a	n/a	n/a	-999	-1	[0, 0, 0]	n/a	catFR1	6	R1652A
68.699	7.888	76097	DISTRACT_START	n/a	n/a	n/a	n/a	-999	-1	[0, 0, 0]	n/a	catFR1	6	R1652A
76.587	4.575	83975	PROB	4.567	n/a	n/a	n/a	-999	-1	[7, 2, 2]	11.0	catFR1	6	R1652A
81.162	4.651	88550	PROB	4.641	n/a	n/a	n/a	-999	-1	[8, 1, 4]	13.0	catFR1	6	R1652A
85.813	3.89	93201	PROB	3.883	n/a	n/a	n/a	-999	-1	[5, 2, 2]	9.0	catFR1	6	R1652A
89.703	0.0	97091	STOP	n/a	n/a	n/a	n/a	-999	-1	[-999, -999, -999]	n/a	catFR1	6	R1652A
89.703	2.348	97096	DISTRACT_END	n/a	n/a	n/a	n/a	-999	-1	[0, 0, 0]	n/a	catFR1	6	R1652A
92.051	1.257	99450	REC_START	n/a	n/a	n/a	n/a	-999	-1	[0, 0, 0]	n/a	catFR1	6	R1652A
93.308	1.612	100696	REC_WORD	1.257	n/a	LEMONADE	Beverages	3	-1	[0, 0, 0]	n/a	catFR1	6	R1652A
94.92	1.997	102308	REC_WORD	2.869	n/a	TEA	Beverages	4	-1	[0, 0, 0]	n/a	catFR1	6	R1652A
96.917	1.785	104305	REC_WORD	4.866	n/a	WATER	n/a	-999	-1	[0, 0, 0]	n/a	catFR1	6	R1652A
98.702	3.139	106090	REC_WORD	6.651	n/a	COUCH	n/a	-999	-1	[0, 0, 0]	n/a	catFR1	6	R1652A
101.841	2.191	109229	REC_WORD	9.79	n/a	FOOT	n/a	-999	-1	[0, 0, 0]	n/a	catFR1	6	R1652A
104.032	4.482	111420	REC_WORD	11.981	n/a	ARM	BodyParts	5	-1	[0, 0, 0]	n/a	catFR1	6	R1652A
108.514	13.691	115902	REC_WORD	16.463	n/a	DRESSER	n/a	-999	-1	[0, 0, 0]	n/a	catFR1	6	R1652A
122.205	9.931	129605	REC_END	n/a	n/a	n/a	n/a	-999	-1	[0, 0, 0]	n/a	catFR1	6	R1652A
132.136	10.342	139537	COUNTDOWN_START	n/a	n/a	n/a	n/a	-999	1	[0, 0, 0]	n/a	catFR1	6	R1652A
142.478	0.0	149875	COUNTDOWN_END	n/a	n/a	n/a	n/a	-999	1	[0, 0, 0]	n/a	catFR1	6	R1652A
142.478	1.968	149875	ENCODING_START	n/a	n/a	n/a	n/a	-999	1	[0, 0, 0]	n/a	catFR1	6	R1652A
144.446	1.608	151835	WORD	n/a	wordpools/wordpool_categorized_EN.txt	KNIFE	KitchenTools	1	1	[0, 0, 0]	n/a	catFR1	6	R1652A
146.054	0.9	153449	WORD_OFF	n/a	n/a	KNIFE	KitchenTools	1	1	[0, 0, 0]	n/a	catFR1	6	R1652A
146.954	1.608	154345	WORD	n/a	wordpools/wordpool_categorized_EN.txt	PEELER	KitchenTools	2	1	[0, 0, 0]	n/a	catFR1	6	R1652A
148.562	0.816	155959	WORD_OFF	n/a	n/a	PEELER	KitchenTools	2	1	[0, 0, 0]	n/a	catFR1	6	R1652A
149.378	1.599	156771	WORD	n/a	wordpools/wordpool_categorized_EN.txt	ORGAN	Instruments	3	1	[0, 0, 0]	n/a	catFR1	6	R1652A
150.977	1.0	158373	WORD_OFF	n/a	n/a	ORGAN	Instruments	3	1	[0, 0, 0]	n/a	catFR1	6	R1652A
151.977	1.601	159377	WORD	n/a	wordpools/wordpool_categorized_EN.txt	VIOLIN	Instruments	4	1	[0, 0, 0]	n/a	catFR1	6	R1652A
153.578	0.966	160966	WORD_OFF	n/a	n/a	VIOLIN	Instruments	4	1	[0, 0, 0]	n/a	catFR1	6	R1652A
154.544	1.608	161934	WORD	n/a	wordpools/wordpool_categorized_EN.txt	STOVE	Appliances	5	1	[0, 0, 0]	n/a	catFR1	6	R1652A
156.152	0.835	163548	WORD_OFF	n/a	n/a	STOVE	Appliances	5	1	[0, 0, 0]	n/a	catFR1	6	R1652A
156.987	1.601	164385	WORD	n/a	wordpools/wordpool_categorized_EN.txt	BLENDER	Appliances	6	1	[0, 0, 0]	n/a	catFR1	6	R1652A
158.588	0.849	165986	WORD_OFF	n/a	n/a	BLENDER	Appliances	6	1	[0, 0, 0]	n/a	catFR1	6	R1652A
159.437	1.608	166835	WORD	n/a	wordpools/wordpool_categorized_EN.txt	TONGS	KitchenTools	7	1	[0, 0, 0]	n/a	catFR1	6	R1652A
161.045	0.875	168436	WORD_OFF	n/a	n/a	TONGS	KitchenTools	7	1	[0, 0, 0]	n/a	catFR1	6	R1652A
161.92	1.6	169309	WORD	n/a	wordpools/wordpool_categorized_EN.txt	CORKSCREW	KitchenTools	8	1	[0, 0, 0]	n/a	catFR1	6	R1652A
163.52	0.917	170910	WORD_OFF	n/a	n/a	CORKSCREW	KitchenTools	8	1	[0, 0, 0]	n/a	catFR1	6	R1652A
164.437	1.6	171831	WORD	n/a	wordpools/wordpool_categorized_EN.txt	TRUMPET	Instruments	9	1	[0, 0, 0]	n/a	catFR1	6	R1652A
166.037	0.832	173432	WORD_OFF	n/a	n/a	TRUMPET	Instruments	9	1	[0, 0, 0]	n/a	catFR1	6	R1652A
166.869	1.602	174269	WORD	n/a	wordpools/wordpool_categorized_EN.txt	BANJO	Instruments	10	1	[0, 0, 0]	n/a	catFR1	6	R1652A
168.471	0.933	175870	WORD_OFF	n/a	n/a	BANJO	Instruments	10	1	[0, 0, 0]	n/a	catFR1	6	R1652A
169.404	1.6	176802	WORD	n/a	wordpools/wordpool_categorized_EN.txt	WASHER	Appliances	11	1	[0, 0, 0]	n/a	catFR1	6	R1652A
171.004	0.808	178404	WORD_OFF	n/a	n/a	WASHER	Appliances	11	1	[0, 0, 0]	n/a	catFR1	6	R1652A
171.812	1.604	179205	WORD	n/a	wordpools/wordpool_categorized_EN.txt	REFRIGERATOR	Appliances	12	1	[0, 0, 0]	n/a	catFR1	6	R1652A
173.416	0.001	180804	START	n/a	n/a	n/a	n/a	-999	1	[-999, -999, -999]	n/a	catFR1	6	R1652A
173.417	0.0	180805	PROB	4.916	n/a	n/a	n/a	-999	1	[2, 7, 7]	16.0	catFR1	6	R1652A
173.413	0.003	180806	WORD_OFF	n/a	n/a	REFRIGERATOR	Appliances	12	1	[0, 0, 0]	n/a	catFR1	6	R1652A
173.416	0.0	180806	ENCODING_END	n/a	n/a	n/a	n/a	-999	1	[0, 0, 0]	n/a	catFR1	6	R1652A
173.416	4.921	180806	DISTRACT_START	n/a	n/a	n/a	n/a	-999	1	[0, 0, 0]	n/a	catFR1	6	R1652A
178.337	3.75	185724	PROB	3.742	n/a	n/a	n/a	-999	1	[2, 4, 1]	7.0	catFR1	6	R1652A
182.087	3.532	189474	PROB	3.525	n/a	n/a	n/a	-999	1	[5, 1, 5]	11.0	catFR1	6	R1652A
185.619	4.469	193006	PROB	4.458	n/a	n/a	n/a	-999	1	[6, 6, 2]	14.0	catFR1	6	R1652A
190.088	4.715	197475	PROB	4.708	n/a	n/a	n/a	-999	1	[2, 4, 3]	9.0	catFR1	6	R1652A
194.803	0.0	202190	STOP	n/a	n/a	n/a	n/a	-999	1	[-999, -999, -999]	n/a	catFR1	6	R1652A
194.803	2.058	202200	DISTRACT_END	n/a	n/a	n/a	n/a	-999	1	[0, 0, 0]	n/a	catFR1	6	R1652A
196.861	0.449	204256	REC_START	n/a	n/a	n/a	n/a	-999	1	[0, 0, 0]	n/a	catFR1	6	R1652A
197.31	1.629	204697	REC_WORD	0.449	n/a	KNIFE	KitchenTools	1	1	[0, 0, 0]	n/a	catFR1	6	R1652A
198.939	1.758	206326	REC_WORD	2.078	n/a	PEELER	KitchenTools	2	1	[0, 0, 0]	n/a	catFR1	6	R1652A
200.697	1.859	208084	REC_WORD	3.836	n/a	TONGS	KitchenTools	7	1	[0, 0, 0]	n/a	catFR1	6	R1652A
202.556	2.128	209943	REC_WORD	5.695	n/a	CORKSCREW	KitchenTools	8	1	[0, 0, 0]	n/a	catFR1	6	R1652A
204.684	1.718	212071	REC_WORD	7.823	n/a	WASHER	Appliances	11	1	[0, 0, 0]	n/a	catFR1	6	R1652A
206.402	2.644	213789	REC_WORD	9.541	n/a	REFRIGERATOR	Appliances	12	1	[0, 0, 0]	n/a	catFR1	6	R1652A
209.046	3.762	216433	REC_WORD	12.185	n/a	DISHWASHER	n/a	-999	1	[0, 0, 0]	n/a	catFR1	6	R1652A
212.808	2.963	220195	REC_WORD	15.947	n/a	VIOLIN	Instruments	4	1	[0, 0, 0]	n/a	catFR1	6	R1652A
215.771	11.233	223158	REC_WORD	18.91	n/a	ORGAN	Instruments	3	1	[0, 0, 0]	n/a	catFR1	6	R1652A
227.004	2.558	234398	REC_END	n/a	n/a	n/a	n/a	-999	1	[0, 0, 0]	n/a	catFR1	6	R1652A
229.562	10.341	236956	COUNTDOWN_START	n/a	n/a	n/a	n/a	-999	2	[0, 0, 0]	n/a	catFR1	6	R1652A
239.903	0.0	247294	COUNTDOWN_END	n/a	n/a	n/a	n/a	-999	2	[0, 0, 0]	n/a	catFR1	6	R1652A
239.903	1.883	247294	ENCODING_START	n/a	n/a	n/a	n/a	-999	2	[0, 0, 0]	n/a	catFR1	6	R1652A
241.786	1.602	249183	WORD	n/a	wordpools/wordpool_categorized_EN.txt	EVERGREEN	Trees	1	2	[0, 0, 0]	n/a	catFR1	6	R1652A
243.388	0.775	250784	WORD_OFF	n/a	n/a	EVERGREEN	Trees	1	2	[0, 0, 0]	n/a	catFR1	6	R1652A
244.163	1.608	251561	WORD	n/a	wordpools/wordpool_categorized_EN.txt	BIRCH	Trees	2	2	[0, 0, 0]	n/a	catFR1	6	R1652A
245.771	0.775	253162	WORD_OFF	n/a	n/a	BIRCH	Trees	2	2	[0, 0, 0]	n/a	catFR1	6	R1652A
246.546	1.609	253939	WORD	n/a	wordpools/wordpool_categorized_EN.txt	DRESS	Clothing	3	2	[0, 0, 0]	n/a	catFR1	6	R1652A
248.155	0.774	255553	WORD_OFF	n/a	n/a	DRESS	Clothing	3	2	[0, 0, 0]	n/a	catFR1	6	R1652A
248.929	1.6	256330	WORD	n/a	wordpools/wordpool_categorized_EN.txt	JACKET	Clothing	4	2	[0, 0, 0]	n/a	catFR1	6	R1652A
250.529	0.8	257919	WORD_OFF	n/a	n/a	JACKET	Clothing	4	2	[0, 0, 0]	n/a	catFR1	6	R1652A
251.329	1.609	258720	WORD	n/a	wordpools/wordpool_categorized_EN.txt	SPINACH	Vegetables	5	2	[0, 0, 0]	n/a	catFR1	6	R1652A
252.938	0.999	260334	WORD_OFF	n/a	n/a	SPINACH	Vegetables	5	2	[0, 0, 0]	n/a	catFR1	6	R1652A
253.937	1.609	261326	WORD	n/a	wordpools/wordpool_categorized_EN.txt	CORN	Vegetables	6	2	[0, 0, 0]	n/a	catFR1	6	R1652A
255.546	0.991	262939	WORD_OFF	n/a	n/a	CORN	Vegetables	6	2	[0, 0, 0]	n/a	catFR1	6	R1652A
256.537	1.601	263931	WORD	n/a	wordpools/wordpool_categorized_EN.txt	SHIRT	Clothing	7	2	[0, 0, 0]	n/a	catFR1	6	R1652A
258.138	0.932	265533	WORD_OFF	n/a	n/a	SHIRT	Clothing	7	2	[0, 0, 0]	n/a	catFR1	6	R1652A
259.07	1.601	266465	WORD	n/a	wordpools/wordpool_categorized_EN.txt	SKIRT	Clothing	8	2	[0, 0, 0]	n/a	catFR1	6	R1652A
260.671	0.874	268066	WORD_OFF	n/a	n/a	SKIRT	Clothing	8	2	[0, 0, 0]	n/a	catFR1	6	R1652A
261.545	1.599	268939	WORD	n/a	wordpools/wordpool_categorized_EN.txt	BROCCOLI	Vegetables	9	2	[0, 0, 0]	n/a	catFR1	6	R1652A
263.144	0.819	270540	WORD_OFF	n/a	n/a	BROCCOLI	Vegetables	9	2	[0, 0, 0]	n/a	catFR1	6	R1652A
263.963	1.607	271353	WORD	n/a	wordpools/wordpool_categorized_EN.txt	CABBAGE	Vegetables	10	2	[0, 0, 0]	n/a	catFR1	6	R1652A
265.57	0.993	272967	WORD_OFF	n/a	n/a	CABBAGE	Vegetables	10	2	[0, 0, 0]	n/a	catFR1	6	R1652A
266.563	1.6	273959	WORD	n/a	wordpools/wordpool_categorized_EN.txt	CEDAR	Trees	11	2	[0, 0, 0]	n/a	catFR1	6	R1652A
268.163	0.958	275560	WORD_OFF	n/a	n/a	CEDAR	Trees	11	2	[0, 0, 0]	n/a	catFR1	6	R1652A
269.121	1.608	276516	WORD	n/a	wordpools/wordpool_categorized_EN.txt	SPRUCE	Trees	12	2	[0, 0, 0]	n/a	catFR1	6	R1652A
270.729	0.001	278116	PROB	5.908	n/a	n/a	n/a	-999	2	[5, 7, 5]	17.0	catFR1	6	R1652A
270.73	0.0	278117	START	n/a	n/a	n/a	n/a	-999	2	[-999, -999, -999]	n/a	catFR1	6	R1652A
270.728	0.002	278118	WORD_OFF	n/a	n/a	SPRUCE	Trees	12	2	[0, 0, 0]	n/a	catFR1	6	R1652A
270.73	0.0	278118	ENCODING_END	n/a	n/a	n/a	n/a	-999	2	[0, 0, 0]	n/a	catFR1	6	R1652A
270.73	5.916	278130	DISTRACT_START	n/a	n/a	n/a	n/a	-999	2	[0, 0, 0]	n/a	catFR1	6	R1652A
276.646	4.534	284033	PROB	4.524	n/a	n/a	n/a	-999	2	[8, 3, 7]	17.0	catFR1	6	R1652A
281.18	4.69	288567	PROB	4.683	n/a	n/a	n/a	-999	2	[2, 1, 1]	4.0	catFR1	6	R1652A
285.87	4.201	293257	PROB	4.191	n/a	n/a	n/a	-999	2	[6, 2, 2]	10.0	catFR1	6	R1652A
290.071	4.692	297458	PROB	4.682	n/a	n/a	n/a	-999	2	[5, 8, 1]	14.0	catFR1	6	R1652A
294.763	0.0	302150	STOP	n/a	n/a	n/a	n/a	-999	2	[-999, -999, -999]	n/a	catFR1	6	R1652A
294.763	2.074	302153	DISTRACT_END	n/a	n/a	n/a	n/a	-999	2	[0, 0, 0]	n/a	catFR1	6	R1652A
296.837	0.512	304233	REC_START	n/a	n/a	n/a	n/a	-999	2	[0, 0, 0]	n/a	catFR1	6	R1652A
297.349	1.768	304736	REC_WORD	0.512	n/a	EVERGREEN	Trees	1	2	[0, 0, 0]	n/a	catFR1	6	R1652A
299.117	2.1	306504	REC_WORD	2.28	n/a	SPRUCE	Trees	12	2	[0, 0, 0]	n/a	catFR1	6	R1652A
301.217	1.791	308604	REC_WORD	4.38	n/a	BIRCH	Trees	2	2	[0, 0, 0]	n/a	catFR1	6	R1652A
303.008	1.768	310395	REC_WORD	6.171	n/a	CABBAGE	Vegetables	10	2	[0, 0, 0]	n/a	catFR1	6	R1652A
304.776	2.346	312163	REC_WORD	7.939	n/a	SPINACH	Vegetables	5	2	[0, 0, 0]	n/a	catFR1	6	R1652A
307.122	8.436	314509	REC_WORD	10.285	n/a	BROCCOLI	Vegetables	9	2	[0, 0, 0]	n/a	catFR1	6	R1652A
315.558	11.414	322945	REC_WORD	18.721	n/a	CORN	Vegetables	6	2	[0, 0, 0]	n/a	catFR1	6	R1652A
326.972	3.247	334363	REC_END	n/a	n/a	n/a	n/a	-999	2	[0, 0, 0]	n/a	catFR1	6	R1652A
330.219	10.343	337614	COUNTDOWN_START	n/a	n/a	n/a	n/a	-999	3	[0, 0, 0]	n/a	catFR1	6	R1652A
340.562	0.0	347952	COUNTDOWN_END	n/a	n/a	n/a	n/a	-999	3	[0, 0, 0]	n/a	catFR1	6	R1652A
340.562	1.841	347952	ENCODING_START	n/a	n/a	n/a	n/a	-999	3	[0, 0, 0]	n/a	catFR1	6	R1652A
342.403	1.608	349793	WORD	n/a	wordpools/wordpool_categorized_EN.txt	STREAM	Landscapes	1	3	[0, 0, 0]	n/a	catFR1	6	R1652A
344.011	0.951	351406	WORD_OFF	n/a	n/a	STREAM	Landscapes	1	3	[0, 0, 0]	n/a	catFR1	6	R1652A
344.962	1.609	352350	WORD	n/a	wordpools/wordpool_categorized_EN.txt	MOUNTAIN	Landscapes	2	3	[0, 0, 0]	n/a	catFR1	6	R1652A
346.571	0.84	353964	WORD_OFF	n/a	n/a	MOUNTAIN	Landscapes	2	3	[0, 0, 0]	n/a	catFR1	6	R1652A
347.411	1.6	354801	WORD	n/a	wordpools/wordpool_categorized_EN.txt	PASTRY	Desserts	3	3	[0, 0, 0]	n/a	catFR1	6	R1652A
349.011	0.775	356402	WORD_OFF	n/a	n/a	PASTRY	Desserts	3	3	[0, 0, 0]	n/a	catFR1	6	R1652A
349.786	1.6	357179	WORD	n/a	wordpools/wordpool_categorized_EN.txt	PIE	Desserts	4	3	[0, 0, 0]	n/a	catFR1	6	R1652A
351.386	0.985	358781	WORD_OFF	n/a	n/a	PIE	Desserts	4	3	[0, 0, 0]	n/a	catFR1	6	R1652A
352.371	1.6	359761	WORD	n/a	wordpools/wordpool_categorized_EN.txt	PIANO	Instruments	5	3	[0, 0, 0]	n/a	catFR1	6	R1652A
353.971	0.999	361362	WORD_OFF	n/a	n/a	PIANO	Instruments	5	3	[0, 0, 0]	n/a	catFR1	6	R1652A
354.97	1.602	362366	WORD	n/a	wordpools/wordpool_categorized_EN.txt	GUITAR	Instruments	6	3	[0, 0, 0]	n/a	catFR1	6	R1652A
356.572	0.856	363968	WORD_OFF	n/a	n/a	GUITAR	Instruments	6	3	[0, 0, 0]	n/a	catFR1	6	R1652A
357.428	1.601	364828	WORD	n/a	wordpools/wordpool_categorized_EN.txt	BEACH	Landscapes	7	3	[0, 0, 0]	n/a	catFR1	6	R1652A
359.029	0.926	366430	WORD_OFF	n/a	n/a	BEACH	Landscapes	7	3	[0, 0, 0]	n/a	catFR1	6	R1652A
359.955	1.608	367350	WORD	n/a	wordpools/wordpool_categorized_EN.txt	OCEAN	Landscapes	8	3	[0, 0, 0]	n/a	catFR1	6	R1652A
361.563	0.916	368952	WORD_OFF	n/a	n/a	OCEAN	Landscapes	8	3	[0, 0, 0]	n/a	catFR1	6	R1652A
362.479	1.601	369872	WORD	n/a	wordpools/wordpool_categorized_EN.txt	FLUTE	Instruments	9	3	[0, 0, 0]	n/a	catFR1	6	R1652A
364.08	0.841	371473	WORD_OFF	n/a	n/a	FLUTE	Instruments	9	3	[0, 0, 0]	n/a	catFR1	6	R1652A
364.921	1.609	372310	WORD	n/a	wordpools/wordpool_categorized_EN.txt	CELLO	Instruments	10	3	[0, 0, 0]	n/a	catFR1	6	R1652A
366.53	0.756	373923	WORD_OFF	n/a	n/a	CELLO	Instruments	10	3	[0, 0, 0]	n/a	catFR1	6	R1652A
367.286	1.61	374676	WORD	n/a	wordpools/wordpool_categorized_EN.txt	MOUSSE	Desserts	11	3	[0, 0, 0]	n/a	catFR1	6	R1652A
368.896	0.9	376290	WORD_OFF	n/a	n/a	MOUSSE	Desserts	11	3	[0, 0, 0]	n/a	catFR1	6	R1652A
369.796	1.6	377186	WORD	n/a	wordpools/wordpool_categorized_EN.txt	COBBLER	Desserts	12	3	[0, 0, 0]	n/a	catFR1	6	R1652A
371.396	0.004	378783	PROB	6.94	n/a	n/a	n/a	-999	3	[4, 5, 4]	13.0	catFR1	6	R1652A
371.4	0.0	378787	START	n/a	n/a	n/a	n/a	-999	3	[-999, -999, -999]	n/a	catFR1	6	R1652A
371.396	0.004	378788	WORD_OFF	n/a	n/a	COBBLER	Desserts	12	3	[0, 0, 0]	n/a	catFR1	6	R1652A
371.4	0.0	378788	ENCODING_END	n/a	n/a	n/a	n/a	-999	3	[0, 0, 0]	n/a	catFR1	6	R1652A
371.4	6.945	378788	DISTRACT_START	n/a	n/a	n/a	n/a	-999	3	[0, 0, 0]	n/a	catFR1	6	R1652A
378.345	5.043	385732	PROB	5.033	n/a	n/a	n/a	-999	3	[6, 8, 2]	16.0	catFR1	6	R1652A
383.388	6.325	390775	PROB	6.315	n/a	n/a	n/a	-999	3	[8, 5, 1]	15.0	catFR1	6	R1652A
389.713	7.39	397100	PROB	7.382	n/a	n/a	n/a	-999	3	[6, 7, 4]	17.0	catFR1	6	R1652A
397.103	0.0	404489	STOP	n/a	n/a	n/a	n/a	-999	3	[-999, -999, -999]	n/a	catFR1	6	R1652A
397.103	2.118	404496	DISTRACT_END	n/a	n/a	n/a	n/a	-999	3	[0, 0, 0]	n/a	catFR1	6	R1652A
399.221	1.472	406612	REC_START	n/a	n/a	n/a	n/a	-999	3	[0, 0, 0]	n/a	catFR1	6	R1652A
400.693	2.067	408079	REC_WORD	1.472	n/a	MOUSSE	Desserts	11	3	[0, 0, 0]	n/a	catFR1	6	R1652A
402.76	2.225	410146	REC_WORD	3.539	n/a	PASTRY	Desserts	3	3	[0, 0, 0]	n/a	catFR1	6	R1652A
404.985	2.244	412371	REC_WORD	5.764	n/a	PIE	Desserts	4	3	[0, 0, 0]	n/a	catFR1	6	R1652A
407.229	2.827	414615	REC_WORD	8.008	n/a	OCEAN	Landscapes	8	3	[0, 0, 0]	n/a	catFR1	6	R1652A
410.056	3.224	417442	REC_WORD	10.835	n/a	BEACH	Landscapes	7	3	[0, 0, 0]	n/a	catFR1	6	R1652A
413.28	2.599	420666	REC_WORD	14.059	n/a	CELLO	Instruments	10	3	[0, 0, 0]	n/a	catFR1	6	R1652A
415.879	13.478	423265	REC_WORD	16.658	n/a	FLUTE	Instruments	9	3	[0, 0, 0]	n/a	catFR1	6	R1652A
429.357	3.589	436754	REC_END	n/a	n/a	n/a	n/a	-999	3	[0, 0, 0]	n/a	catFR1	6	R1652A
432.946	10.343	440340	COUNTDOWN_START	n/a	n/a	n/a	n/a	-999	4	[0, 0, 0]	n/a	catFR1	6	R1652A
443.289	0.0	450678	COUNTDOWN_END	n/a	n/a	n/a	n/a	-999	4	[0, 0, 0]	n/a	catFR1	6	R1652A
443.289	2.082	450678	ENCODING_START	n/a	n/a	n/a	n/a	-999	4	[0, 0, 0]	n/a	catFR1	6	R1652A
445.371	1.608	452769	WORD	n/a	wordpools/wordpool_categorized_EN.txt	COLA	Beverages	1	4	[0, 0, 0]	n/a	catFR1	6	R1652A
446.979	0.842	454371	WORD_OFF	n/a	n/a	COLA	Beverages	1	4	[0, 0, 0]	n/a	catFR1	6	R1652A
447.821	1.6	455220	WORD	n/a	wordpools/wordpool_categorized_EN.txt	RUM	Beverages	2	4	[0, 0, 0]	n/a	catFR1	6	R1652A
449.421	0.932	456809	WORD_OFF	n/a	n/a	RUM	Beverages	2	4	[0, 0, 0]	n/a	catFR1	6	R1652A
450.353	1.6	457741	WORD	n/a	wordpools/wordpool_categorized_EN.txt	PENCIL	OfficeSupplies	3	4	[0, 0, 0]	n/a	catFR1	6	R1652A
451.953	0.826	459343	WORD_OFF	n/a	n/a	PENCIL	OfficeSupplies	3	4	[0, 0, 0]	n/a	catFR1	6	R1652A
452.779	1.608	460168	WORD	n/a	wordpools/wordpool_categorized_EN.txt	TAPE	OfficeSupplies	4	4	[0, 0, 0]	n/a	catFR1	6	R1652A
454.387	0.807	461781	WORD_OFF	n/a	n/a	TAPE	OfficeSupplies	4	4	[0, 0, 0]	n/a	catFR1	6	R1652A
455.194	1.602	462582	WORD	n/a	wordpools/wordpool_categorized_EN.txt	HICKORY	Trees	5	4	[0, 0, 0]	n/a	catFR1	6	R1652A
456.796	0.816	464183	WORD_OFF	n/a	n/a	HICKORY	Trees	5	4	[0, 0, 0]	n/a	catFR1	6	R1652A
457.612	1.6	465008	WORD	n/a	wordpools/wordpool_categorized_EN.txt	CYPRESS	Trees	6	4	[0, 0, 0]	n/a	catFR1	6	R1652A
459.212	0.858	466610	WORD_OFF	n/a	n/a	CYPRESS	Trees	6	4	[0, 0, 0]	n/a	catFR1	6	R1652A
460.07	1.608	467458	WORD	n/a	wordpools/wordpool_categorized_EN.txt	WATER	Beverages	7	4	[0, 0, 0]	n/a	catFR1	6	R1652A
461.678	0.917	469072	WORD_OFF	n/a	n/a	WATER	Beverages	7	4	[0, 0, 0]	n/a	catFR1	6	R1652A
462.595	1.601	469992	WORD	n/a	wordpools/wordpool_categorized_EN.txt	BEER	Beverages	8	4	[0, 0, 0]	n/a	catFR1	6	R1652A
464.196	0.982	471594	WORD_OFF	n/a	n/a	BEER	Beverages	8	4	[0, 0, 0]	n/a	catFR1	6	R1652A
465.178	1.601	472574	WORD	n/a	wordpools/wordpool_categorized_EN.txt	WILLOW	Trees	9	4	[0, 0, 0]	n/a	catFR1	6	R1652A
466.779	0.942	474175	WORD_OFF	n/a	n/a	WILLOW	Trees	9	4	[0, 0, 0]	n/a	catFR1	6	R1652A
467.721	1.608	475119	WORD	n/a	wordpools/wordpool_categorized_EN.txt	WALNUT	Trees	10	4	[0, 0, 0]	n/a	catFR1	6	R1652A
469.329	0.765	476721	WORD_OFF	n/a	n/a	WALNUT	Trees	10	4	[0, 0, 0]	n/a	catFR1	6	R1652A
470.094	1.602	477486	WORD	n/a	wordpools/wordpool_categorized_EN.txt	PAPER	OfficeSupplies	11	4	[0, 0, 0]	n/a	catFR1	6	R1652A
471.696	0.825	479087	WORD_OFF	n/a	n/a	PAPER	OfficeSupplies	11	4	[0, 0, 0]	n/a	catFR1	6	R1652A
472.521	1.601	479912	WORD	n/a	wordpools/wordpool_categorized_EN.txt	MARKER	OfficeSupplies	12	4	[0, 0, 0]	n/a	catFR1	6	R1652A
474.122	0.004	481508	PROB	5.833	n/a	n/a	n/a	-999	4	[3, 5, 4]	12.0	catFR1	6	R1652A
474.126	0.0	481512	START	n/a	n/a	n/a	n/a	-999	4	[-999, -999, -999]	n/a	catFR1	6	R1652A
474.121	0.004	481514	WORD_OFF	n/a	n/a	MARKER	OfficeSupplies	12	4	[0, 0, 0]	n/a	catFR1	6	R1652A
474.125	0.001	481525	ENCODING_END	n/a	n/a	n/a	n/a	-999	4	[0, 0, 0]	n/a	catFR1	6	R1652A
474.126	5.837	481525	DISTRACT_START	n/a	n/a	n/a	n/a	-999	4	[0, 0, 0]	n/a	catFR1	6	R1652A
479.963	4.54	487349	PROB	4.533	n/a	n/a	n/a	-999	4	[8, 3, 4]	15.0	catFR1	6	R1652A
484.503	4.159	491889	PROB	4.15	n/a	n/a	n/a	-999	4	[3, 3, 7]	13.0	catFR1	6	R1652A
488.662	4.509	496048	PROB	4.499	n/a	n/a	n/a	-999	4	[1, 5, 2]	8.0	catFR1	6	R1652A
493.171	4.1	500557	PROB	4.091	n/a	n/a	n/a	-999	4	[7, 3, 5]	15.0	catFR1	6	R1652A
497.271	0.0	504657	STOP	n/a	n/a	n/a	n/a	-999	4	[-999, -999, -999]	n/a	catFR1	6	R1652A
497.271	2.115	504664	DISTRACT_END	n/a	n/a	n/a	n/a	-999	4	[0, 0, 0]	n/a	catFR1	6	R1652A
499.386	0.698	506780	REC_START	n/a	n/a	n/a	n/a	-999	4	[0, 0, 0]	n/a	catFR1	6	R1652A
500.084	1.567	507470	REC_WORD	0.698	n/a	TAPE	OfficeSupplies	4	4	[0, 0, 0]	n/a	catFR1	6	R1652A
501.651	2.009	509037	REC_WORD	2.265	n/a	PENCIL	OfficeSupplies	3	4	[0, 0, 0]	n/a	catFR1	6	R1652A
503.66	1.95	511046	REC_WORD	4.274	n/a	HICKORY	Trees	5	4	[0, 0, 0]	n/a	catFR1	6	R1652A
505.61	3.918	512996	REC_WORD	6.224	n/a	WILLOW	Trees	9	4	[0, 0, 0]	n/a	catFR1	6	R1652A
509.528	3.918	516914	REC_WORD	10.142	n/a	BIRCH	Trees	-999	4	[0, 0, 0]	n/a	catFR1	6	R1652A
513.446	2.246	520832	REC_WORD	14.06	n/a	SODA	n/a	-999	4	[0, 0, 0]	n/a	catFR1	6	R1652A
515.692	2.015	523078	REC_WORD	16.306	n/a	BEER	Beverages	8	4	[0, 0, 0]	n/a	catFR1	6	R1652A
517.707	2.113	525093	REC_WORD	18.321	n/a	RUM	Beverages	2	4	[0, 0, 0]	n/a	catFR1	6	R1652A
519.82	9.703	527206	REC_WORD	20.434	n/a	WATER	Beverages	7	4	[0, 0, 0]	n/a	catFR1	6	R1652A
529.523	3.423	536910	REC_END	n/a	n/a	n/a	n/a	-999	4	[0, 0, 0]	n/a	catFR1	6	R1652A
532.946	10.342	540340	COUNTDOWN_START	n/a	n/a	n/a	n/a	-999	5	[0, 0, 0]	n/a	catFR1	6	R1652A
543.288	0.001	550679	COUNTDOWN_END	n/a	n/a	n/a	n/a	-999	5	[0, 0, 0]	n/a	catFR1	6	R1652A
543.289	2.358	550679	ENCODING_START	n/a	n/a	n/a	n/a	-999	5	[0, 0, 0]	n/a	catFR1	6	R1652A
545.647	1.607	553045	WORD	n/a	wordpools/wordpool_categorized_EN.txt	SPATULA	KitchenTools	1	5	[0, 0, 0]	n/a	catFR1	6	R1652A
547.254	0.801	554647	WORD_OFF	n/a	n/a	SPATULA	KitchenTools	1	5	[0, 0, 0]	n/a	catFR1	6	R1652A
548.055	1.6	555447	WORD	n/a	wordpools/wordpool_categorized_EN.txt	COLANDER	KitchenTools	2	5	[0, 0, 0]	n/a	catFR1	6	R1652A
549.655	0.774	557049	WORD_OFF	n/a	n/a	COLANDER	KitchenTools	2	5	[0, 0, 0]	n/a	catFR1	6	R1652A
550.429	1.601	557826	WORD	n/a	wordpools/wordpool_categorized_EN.txt	PINE	Trees	3	5	[0, 0, 0]	n/a	catFR1	6	R1652A
552.03	0.842	559427	WORD_OFF	n/a	n/a	PINE	Trees	3	5	[0, 0, 0]	n/a	catFR1	6	R1652A
552.872	1.6	560264	WORD	n/a	wordpools/wordpool_categorized_EN.txt	ELM	Trees	4	5	[0, 0, 0]	n/a	catFR1	6	R1652A
554.472	0.939	561865	WORD_OFF	n/a	n/a	ELM	Trees	4	5	[0, 0, 0]	n/a	catFR1	6	R1652A
555.411	1.601	562810	WORD	n/a	wordpools/wordpool_categorized_EN.txt	ROSE	Flowers	5	5	[0, 0, 0]	n/a	catFR1	6	R1652A
557.012	0.774	564399	WORD_OFF	n/a	n/a	ROSE	Flowers	5	5	[0, 0, 0]	n/a	catFR1	6	R1652A
557.786	1.601	565176	WORD	n/a	wordpools/wordpool_categorized_EN.txt	PETUNIA	Flowers	6	5	[0, 0, 0]	n/a	catFR1	6	R1652A
559.387	0.892	566778	WORD_OFF	n/a	n/a	PETUNIA	Flowers	6	5	[0, 0, 0]	n/a	catFR1	6	R1652A
560.279	1.6	567674	WORD	n/a	wordpools/wordpool_categorized_EN.txt	WHISK	KitchenTools	7	5	[0, 0, 0]	n/a	catFR1	6	R1652A
561.879	0.983	569276	WORD_OFF	n/a	n/a	WHISK	KitchenTools	7	5	[0, 0, 0]	n/a	catFR1	6	R1652A
562.862	1.601	570256	WORD	n/a	wordpools/wordpool_categorized_EN.txt	GRATER	KitchenTools	8	5	[0, 0, 0]	n/a	catFR1	6	R1652A
564.463	0.808	571857	WORD_OFF	n/a	n/a	GRATER	KitchenTools	8	5	[0, 0, 0]	n/a	catFR1	6	R1652A
565.271	1.607	572658	WORD	n/a	wordpools/wordpool_categorized_EN.txt	DAISY	Flowers	9	5	[0, 0, 0]	n/a	catFR1	6	R1652A
566.878	0.977	574271	WORD_OFF	n/a	n/a	DAISY	Flowers	9	5	[0, 0, 0]	n/a	catFR1	6	R1652A
567.855	1.607	575252	WORD	n/a	wordpools/wordpool_categorized_EN.txt	LILAC	Flowers	10	5	[0, 0, 0]	n/a	catFR1	6	R1652A
569.462	0.834	576853	WORD_OFF	n/a	n/a	LILAC	Flowers	10	5	[0, 0, 0]	n/a	catFR1	6	R1652A
570.296	1.609	577690	WORD	n/a	wordpools/wordpool_categorized_EN.txt	OAK	Trees	11	5	[0, 0, 0]	n/a	catFR1	6	R1652A
571.905	0.907	579303	WORD_OFF	n/a	n/a	OAK	Trees	11	5	[0, 0, 0]	n/a	catFR1	6	R1652A
572.812	1.599	580200	WORD	n/a	wordpools/wordpool_categorized_EN.txt	MAPLE	Trees	12	5	[0, 0, 0]	n/a	catFR1	6	R1652A
574.411	0.002	581797	PROB	6.317	n/a	n/a	n/a	-999	5	[3, 7, 6]	16.0	catFR1	6	R1652A
574.413	0.0	581799	START	n/a	n/a	n/a	n/a	-999	5	[-999, -999, -999]	n/a	catFR1	6	R1652A
574.411	0.002	581801	WORD_OFF	n/a	n/a	MAPLE	Trees	12	5	[0, 0, 0]	n/a	catFR1	6	R1652A
574.413	0.0	581801	ENCODING_END	n/a	n/a	n/a	n/a	-999	5	[0, 0, 0]	n/a	catFR1	6	R1652A
574.413	6.325	581813	DISTRACT_START	n/a	n/a	n/a	n/a	-999	5	[0, 0, 0]	n/a	catFR1	6	R1652A
580.738	5.718	588124	PROB	5.708	n/a	n/a	n/a	-999	5	[3, 2, 5]	10.0	catFR1	6	R1652A
586.456	7.072	593842	PROB	7.066	n/a	n/a	n/a	-999	5	[4, 5, 8]	17.0	catFR1	6	R1652A
593.528	9.443	600914	PROB	9.433	n/a	n/a	n/a	-999	5	[4, 4, 7]	15.0	catFR1	6	R1652A
602.971	0.0	610357	STOP	n/a	n/a	n/a	n/a	-999	5	[-999, -999, -999]	n/a	catFR1	6	R1652A
602.971	2.174	610366	DISTRACT_END	n/a	n/a	n/a	n/a	-999	5	[0, 0, 0]	n/a	catFR1	6	R1652A
605.145	2.463	612541	REC_START	n/a	n/a	n/a	n/a	-999	5	[0, 0, 0]	n/a	catFR1	6	R1652A
607.608	1.656	614994	REC_WORD	2.463	n/a	TONGS	KitchenTools	-999	5	[0, 0, 0]	n/a	catFR1	6	R1652A
609.264	4.081	616650	REC_WORD	4.119	n/a	SPATULA	KitchenTools	1	5	[0, 0, 0]	n/a	catFR1	6	R1652A
613.345	3.452	620731	REC_WORD	8.2	n/a	WHISK	KitchenTools	7	5	[0, 0, 0]	n/a	catFR1	6	R1652A
616.797	2.601	624182	REC_WORD	11.652	n/a	PETUNIA	Flowers	6	5	[0, 0, 0]	n/a	catFR1	6	R1652A
619.398	2.496	626783	REC_WORD	14.253	n/a	DAISY	Flowers	9	5	[0, 0, 0]	n/a	catFR1	6	R1652A
621.894	4.45	629279	REC_WORD	16.749	n/a	LILAC	Flowers	10	5	[0, 0, 0]	n/a	catFR1	6	R1652A
626.344	8.947	633729	REC_WORD	21.199	n/a	WILLOW	Trees	-999	5	[0, 0, 0]	n/a	catFR1	6	R1652A
635.291	4.822	642684	REC_END	n/a	n/a	n/a	n/a	-999	5	[0, 0, 0]	n/a	catFR1	6	R1652A
640.113	10.343	647512	COUNTDOWN_START	n/a	n/a	n/a	n/a	-999	6	[0, 0, 0]	n/a	catFR1	6	R1652A
650.456	0.0	657850	COUNTDOWN_END	n/a	n/a	n/a	n/a	-999	6	[0, 0, 0]	n/a	catFR1	6	R1652A
650.456	2.014	657850	ENCODING_START	n/a	n/a	n/a	n/a	-999	6	[0, 0, 0]	n/a	catFR1	6	R1652A
652.47	1.6	659858	WORD	n/a	wordpools/wordpool_categorized_EN.txt	DRILL	Tools	1	6	[0, 0, 0]	n/a	catFR1	6	R1652A
654.07	0.841	661460	WORD_OFF	n/a	n/a	DRILL	Tools	1	6	[0, 0, 0]	n/a	catFR1	6	R1652A
654.911	1.61	662308	WORD	n/a	wordpools/wordpool_categorized_EN.txt	SAW	Tools	2	6	[0, 0, 0]	n/a	catFR1	6	R1652A
656.521	0.99	663910	WORD_OFF	n/a	n/a	SAW	Tools	2	6	[0, 0, 0]	n/a	catFR1	6	R1652A
657.511	1.6	664902	WORD	n/a	wordpools/wordpool_categorized_EN.txt	DOOR	Building	3	6	[0, 0, 0]	n/a	catFR1	6	R1652A
659.111	0.927	666503	WORD_OFF	n/a	n/a	DOOR	Building	3	6	[0, 0, 0]	n/a	catFR1	6	R1652A
660.038	1.608	667424	WORD	n/a	wordpools/wordpool_categorized_EN.txt	CEILING	Building	4	6	[0, 0, 0]	n/a	catFR1	6	R1652A
661.646	0.851	669037	WORD_OFF	n/a	n/a	CEILING	Building	4	6	[0, 0, 0]	n/a	catFR1	6	R1652A
662.497	1.608	669886	WORD	n/a	wordpools/wordpool_categorized_EN.txt	PIG	FarmAnimals	5	6	[0, 0, 0]	n/a	catFR1	6	R1652A
664.105	0.914	671499	WORD_OFF	n/a	n/a	PIG	FarmAnimals	5	6	[0, 0, 0]	n/a	catFR1	6	R1652A
665.019	1.601	672408	WORD	n/a	wordpools/wordpool_categorized_EN.txt	HEN	FarmAnimals	6	6	[0, 0, 0]	n/a	catFR1	6	R1652A
666.62	0.91	674009	WORD_OFF	n/a	n/a	HEN	FarmAnimals	6	6	[0, 0, 0]	n/a	catFR1	6	R1652A
667.53	1.6	674918	WORD	n/a	wordpools/wordpool_categorized_EN.txt	HAMMER	Tools	7	6	[0, 0, 0]	n/a	catFR1	6	R1652A
669.13	0.765	676519	WORD_OFF	n/a	n/a	HAMMER	Tools	7	6	[0, 0, 0]	n/a	catFR1	6	R1652A
669.895	1.61	677284	WORD	n/a	wordpools/wordpool_categorized_EN.txt	PLIERS	Tools	8	6	[0, 0, 0]	n/a	catFR1	6	R1652A
671.505	0.941	678897	WORD_OFF	n/a	n/a	PLIERS	Tools	8	6	[0, 0, 0]	n/a	catFR1	6	R1652A
672.446	1.601	679842	WORD	n/a	wordpools/wordpool_categorized_EN.txt	ROOSTER	FarmAnimals	9	6	[0, 0, 0]	n/a	catFR1	6	R1652A
674.047	0.849	681443	WORD_OFF	n/a	n/a	ROOSTER	FarmAnimals	9	6	[0, 0, 0]	n/a	catFR1	6	R1652A
674.896	1.609	682292	WORD	n/a	wordpools/wordpool_categorized_EN.txt	CALF	FarmAnimals	10	6	[0, 0, 0]	n/a	catFR1	6	R1652A
676.505	0.908	683893	WORD_OFF	n/a	n/a	CALF	FarmAnimals	10	6	[0, 0, 0]	n/a	catFR1	6	R1652A
677.413	1.6	684802	WORD	n/a	wordpools/wordpool_categorized_EN.txt	FLOOR	Building	11	6	[0, 0, 0]	n/a	catFR1	6	R1652A
679.013	0.79	686403	WORD_OFF	n/a	n/a	FLOOR	Building	11	6	[0, 0, 0]	n/a	catFR1	6	R1652A
679.803	1.601	687192	WORD	n/a	wordpools/wordpool_categorized_EN.txt	HALLWAY	Building	12	6	[0, 0, 0]	n/a	catFR1	6	R1652A
681.404	0.004	688789	PROB	6.682	n/a	n/a	n/a	-999	6	[2, 2, 3]	7.0	catFR1	6	R1652A
681.408	0.0	688793	START	n/a	n/a	n/a	n/a	-999	6	[-999, -999, -999]	n/a	catFR1	6	R1652A
681.405	0.003	688794	WORD_OFF	n/a	n/a	HALLWAY	Building	12	6	[0, 0, 0]	n/a	catFR1	6	R1652A
681.408	0.0	688794	ENCODING_END	n/a	n/a	n/a	n/a	-999	6	[0, 0, 0]	n/a	catFR1	6	R1652A
681.408	6.688	688806	DISTRACT_START	n/a	n/a	n/a	n/a	-999	6	[0, 0, 0]	n/a	catFR1	6	R1652A
688.096	4.732	695481	PROB	4.725	n/a	n/a	n/a	-999	6	[2, 2, 5]	9.0	catFR1	6	R1652A
692.828	5.301	700213	PROB	5.291	n/a	n/a	n/a	-999	6	[2, 4, 8]	14.0	catFR1	6	R1652A
698.129	5.007	705514	PROB	4.999	n/a	n/a	n/a	-999	6	[4, 3, 2]	9.0	catFR1	6	R1652A
703.136	0.0	710521	STOP	n/a	n/a	n/a	n/a	-999	6	[-999, -999, -999]	n/a	catFR1	6	R1652A
703.136	2.158	710522	DISTRACT_END	n/a	n/a	n/a	n/a	-999	6	[0, 0, 0]	n/a	catFR1	6	R1652A
705.294	0.975	712685	REC_START	n/a	n/a	n/a	n/a	-999	6	[0, 0, 0]	n/a	catFR1	6	R1652A
706.269	1.904	713654	REC_WORD	0.975	n/a	DOOR	Building	3	6	[0, 0, 0]	n/a	catFR1	6	R1652A
708.173	2.098	715558	REC_WORD	2.879	n/a	CEILING	Building	4	6	[0, 0, 0]	n/a	catFR1	6	R1652A
710.271	2.438	717656	REC_WORD	4.977	n/a	PLIERS	Tools	8	6	[0, 0, 0]	n/a	catFR1	6	R1652A
712.709	8.209	720094	REC_WORD	7.415	n/a	SAW	Tools	2	6	[0, 0, 0]	n/a	catFR1	6	R1652A
720.918	2.231	728303	REC_WORD	15.624	n/a	COW	n/a	-999	6	[0, 0, 0]	n/a	catFR1	6	R1652A
723.149	10.076	730534	REC_WORD	17.855	n/a	PIG	FarmAnimals	5	6	[0, 0, 0]	n/a	catFR1	6	R1652A
733.225	2.212	740610	REC_WORD	27.931	n/a	HORSE	n/a	-999	6	[0, 0, 0]	n/a	catFR1	6	R1652A
735.437	5.433	742828	REC_END	n/a	n/a	n/a	n/a	-999	6	[0, 0, 0]	n/a	catFR1	6	R1652A
740.87	10.342	748266	COUNTDOWN_START	n/a	n/a	n/a	n/a	-999	7	[0, 0, 0]	n/a	catFR1	6	R1652A
751.212	0.0	758604	COUNTDOWN_END	n/a	n/a	n/a	n/a	-999	7	[0, 0, 0]	n/a	catFR1	6	R1652A
751.212	1.951	758604	ENCODING_START	n/a	n/a	n/a	n/a	-999	7	[0, 0, 0]	n/a	catFR1	6	R1652A
753.163	1.606	760552	WORD	n/a	wordpools/wordpool_categorized_EN.txt	FINCH	Birds	1	7	[0, 0, 0]	n/a	catFR1	6	R1652A
754.769	0.967	762166	WORD_OFF	n/a	n/a	FINCH	Birds	1	7	[0, 0, 0]	n/a	catFR1	6	R1652A
755.736	1.602	763122	WORD	n/a	wordpools/wordpool_categorized_EN.txt	CROW	Birds	2	7	[0, 0, 0]	n/a	catFR1	6	R1652A
757.338	0.857	764735	WORD_OFF	n/a	n/a	CROW	Birds	2	7	[0, 0, 0]	n/a	catFR1	6	R1652A
758.195	1.599	765584	WORD	n/a	wordpools/wordpool_categorized_EN.txt	GLUE	OfficeSupplies	3	7	[0, 0, 0]	n/a	catFR1	6	R1652A
759.794	0.886	767185	WORD_OFF	n/a	n/a	GLUE	OfficeSupplies	3	7	[0, 0, 0]	n/a	catFR1	6	R1652A
760.68	1.607	768070	WORD	n/a	wordpools/wordpool_categorized_EN.txt	PEN	OfficeSupplies	4	7	[0, 0, 0]	n/a	catFR1	6	R1652A
762.287	0.893	769683	WORD_OFF	n/a	n/a	PEN	OfficeSupplies	4	7	[0, 0, 0]	n/a	catFR1	6	R1652A
763.18	1.608	770568	WORD	n/a	wordpools/wordpool_categorized_EN.txt	ROOF	Building	5	7	[0, 0, 0]	n/a	catFR1	6	R1652A
764.788	0.815	772181	WORD_OFF	n/a	n/a	ROOF	Building	5	7	[0, 0, 0]	n/a	catFR1	6	R1652A
765.603	1.61	772994	WORD	n/a	wordpools/wordpool_categorized_EN.txt	FOUNDATION	Building	6	7	[0, 0, 0]	n/a	catFR1	6	R1652A
767.213	0.917	774608	WORD_OFF	n/a	n/a	FOUNDATION	Building	6	7	[0, 0, 0]	n/a	catFR1	6	R1652A
768.13	1.608	775528	WORD	n/a	wordpools/wordpool_categorized_EN.txt	HAWK	Birds	7	7	[0, 0, 0]	n/a	catFR1	6	R1652A
769.738	0.765	777129	WORD_OFF	n/a	n/a	HAWK	Birds	7	7	[0, 0, 0]	n/a	catFR1	6	R1652A
770.503	1.6	777894	WORD	n/a	wordpools/wordpool_categorized_EN.txt	PIGEON	Birds	8	7	[0, 0, 0]	n/a	catFR1	6	R1652A
772.103	0.784	779496	WORD_OFF	n/a	n/a	PIGEON	Birds	8	7	[0, 0, 0]	n/a	catFR1	6	R1652A
772.887	1.6	780285	WORD	n/a	wordpools/wordpool_categorized_EN.txt	ATTIC	Building	9	7	[0, 0, 0]	n/a	catFR1	6	R1652A
774.487	0.866	781874	WORD_OFF	n/a	n/a	ATTIC	Building	9	7	[0, 0, 0]	n/a	catFR1	6	R1652A
775.353	1.601	782747	WORD	n/a	wordpools/wordpool_categorized_EN.txt	WALL	Building	10	7	[0, 0, 0]	n/a	catFR1	6	R1652A
776.954	0.907	784348	WORD_OFF	n/a	n/a	WALL	Building	10	7	[0, 0, 0]	n/a	catFR1	6	R1652A
777.861	1.602	785257	WORD	n/a	wordpools/wordpool_categorized_EN.txt	ERASER	OfficeSupplies	11	7	[0, 0, 0]	n/a	catFR1	6	R1652A
779.463	0.967	786858	WORD_OFF	n/a	n/a	ERASER	OfficeSupplies	11	7	[0, 0, 0]	n/a	catFR1	6	R1652A
780.43	1.607	787826	WORD	n/a	wordpools/wordpool_categorized_EN.txt	FOLDER	OfficeSupplies	12	7	[0, 0, 0]	n/a	catFR1	6	R1652A
782.037	0.002	789422	PROB	5.258	n/a	n/a	n/a	-999	7	[2, 4, 1]	7.0	catFR1	6	R1652A
782.039	0.0	789424	START	n/a	n/a	n/a	n/a	-999	7	[-999, -999, -999]	n/a	catFR1	6	R1652A
782.036	0.003	789428	WORD_OFF	n/a	n/a	FOLDER	OfficeSupplies	12	7	[0, 0, 0]	n/a	catFR1	6	R1652A
782.039	0.0	789428	ENCODING_END	n/a	n/a	n/a	n/a	-999	7	[0, 0, 0]	n/a	catFR1	6	R1652A
782.039	5.265	789428	DISTRACT_START	n/a	n/a	n/a	n/a	-999	7	[0, 0, 0]	n/a	catFR1	6	R1652A
787.304	6.435	794689	PROB	6.424	n/a	n/a	n/a	-999	7	[2, 1, 7]	10.0	catFR1	6	R1652A
793.739	7.315	801124	PROB	7.307	n/a	n/a	n/a	-999	7	[4, 8, 6]	18.0	catFR1	6	R1652A
801.054	5.867	808439	PROB	5.857	n/a	n/a	n/a	-999	7	[5, 4, 1]	10.0	catFR1	6	R1652A
806.921	0.0	814306	STOP	n/a	n/a	n/a	n/a	-999	7	[-999, -999, -999]	n/a	catFR1	6	R1652A
806.921	2.342	814311	DISTRACT_END	n/a	n/a	n/a	n/a	-999	7	[0, 0, 0]	n/a	catFR1	6	R1652A
809.263	0.53	816654	REC_START	n/a	n/a	n/a	n/a	-999	7	[0, 0, 0]	n/a	catFR1	6	R1652A
809.793	1.709	817178	REC_WORD	0.53	n/a	PEN	OfficeSupplies	4	7	[0, 0, 0]	n/a	catFR1	6	R1652A
811.502	1.578	818887	REC_WORD	2.239	n/a	ATTIC	Building	9	7	[0, 0, 0]	n/a	catFR1	6	R1652A
813.08	2.093	820465	REC_WORD	3.817	n/a	FOUNDATION	Building	6	7	[0, 0, 0]	n/a	catFR1	6	R1652A
815.173	1.951	822558	REC_WORD	5.91	n/a	HALLWAY	Building	-999	7	[0, 0, 0]	n/a	catFR1	6	R1652A
817.124	3.141	824509	REC_WORD	7.861	n/a	ERASER	OfficeSupplies	11	7	[0, 0, 0]	n/a	catFR1	6	R1652A
820.265	14.554	827650	REC_WORD	11.002	n/a	HAWK	Birds	7	7	[0, 0, 0]	n/a	catFR1	6	R1652A
834.819	4.592	842204	REC_WORD	25.556	n/a	FALCON	n/a	-999	7	[0, 0, 0]	n/a	catFR1	6	R1652A
839.411	5.561	846796	REC_END	n/a	n/a	n/a	n/a	-999	7	[0, 0, 0]	n/a	catFR1	6	R1652A
844.972	10.339	852366	COUNTDOWN_START	n/a	n/a	n/a	n/a	-999	8	[0, 0, 0]	n/a	catFR1	6	R1652A
855.311	0.001	862704	COUNTDOWN_END	n/a	n/a	n/a	n/a	-999	8	[0, 0, 0]	n/a	catFR1	6	R1652A
855.312	2.032	862704	ENCODING_START	n/a	n/a	n/a	n/a	-999	8	[0, 0, 0]	n/a	catFR1	6	R1652A
857.344	1.601	864736	WORD	n/a	wordpools/wordpool_categorized_EN.txt	COW	FarmAnimals	1	8	[0, 0, 0]	n/a	catFR1	6	R1652A
858.945	0.909	866338	WORD_OFF	n/a	n/a	COW	FarmAnimals	1	8	[0, 0, 0]	n/a	catFR1	6	R1652A
859.854	1.608	867246	WORD	n/a	wordpools/wordpool_categorized_EN.txt	GOAT	FarmAnimals	2	8	[0, 0, 0]	n/a	catFR1	6	R1652A
861.462	0.851	868859	WORD_OFF	n/a	n/a	GOAT	FarmAnimals	2	8	[0, 0, 0]	n/a	catFR1	6	R1652A
862.313	1.6	869708	WORD	n/a	wordpools/wordpool_categorized_EN.txt	DRUM	Instruments	3	8	[0, 0, 0]	n/a	catFR1	6	R1652A
863.913	0.799	871309	WORD_OFF	n/a	n/a	DRUM	Instruments	3	8	[0, 0, 0]	n/a	catFR1	6	R1652A
864.712	1.608	872098	WORD	n/a	wordpools/wordpool_categorized_EN.txt	TROMBONE	Instruments	4	8	[0, 0, 0]	n/a	catFR1	6	R1652A
866.32	0.985	873712	WORD_OFF	n/a	n/a	TROMBONE	Instruments	4	8	[0, 0, 0]	n/a	catFR1	6	R1652A
867.305	1.6	874692	WORD	n/a	wordpools/wordpool_categorized_EN.txt	RULER	OfficeSupplies	5	8	[0, 0, 0]	n/a	catFR1	6	R1652A
868.905	0.858	876293	WORD_OFF	n/a	n/a	RULER	OfficeSupplies	5	8	[0, 0, 0]	n/a	catFR1	6	R1652A
869.763	1.599	877154	WORD	n/a	wordpools/wordpool_categorized_EN.txt	STAPLER	OfficeSupplies	6	8	[0, 0, 0]	n/a	catFR1	6	R1652A
871.362	0.791	878755	WORD_OFF	n/a	n/a	STAPLER	OfficeSupplies	6	8	[0, 0, 0]	n/a	catFR1	6	R1652A
872.153	1.601	879544	WORD	n/a	wordpools/wordpool_categorized_EN.txt	LAMB	FarmAnimals	7	8	[0, 0, 0]	n/a	catFR1	6	R1652A
873.754	0.975	881146	WORD_OFF	n/a	n/a	LAMB	FarmAnimals	7	8	[0, 0, 0]	n/a	catFR1	6	R1652A
874.729	1.609	882126	WORD	n/a	wordpools/wordpool_categorized_EN.txt	HORSE	FarmAnimals	8	8	[0, 0, 0]	n/a	catFR1	6	R1652A
876.338	0.8	883727	WORD_OFF	n/a	n/a	HORSE	FarmAnimals	8	8	[0, 0, 0]	n/a	catFR1	6	R1652A
877.138	1.6	884528	WORD	n/a	wordpools/wordpool_categorized_EN.txt	NOTEBOOK	OfficeSupplies	9	8	[0, 0, 0]	n/a	catFR1	6	R1652A
878.738	0.79	886130	WORD_OFF	n/a	n/a	NOTEBOOK	OfficeSupplies	9	8	[0, 0, 0]	n/a	catFR1	6	R1652A
879.528	1.6	886919	WORD	n/a	wordpools/wordpool_categorized_EN.txt	BINDER	OfficeSupplies	10	8	[0, 0, 0]	n/a	catFR1	6	R1652A
881.128	0.883	888520	WORD_OFF	n/a	n/a	BINDER	OfficeSupplies	10	8	[0, 0, 0]	n/a	catFR1	6	R1652A
882.011	1.602	889405	WORD	n/a	wordpools/wordpool_categorized_EN.txt	BASS	Instruments	11	8	[0, 0, 0]	n/a	catFR1	6	R1652A
883.613	0.783	891006	WORD_OFF	n/a	n/a	BASS	Instruments	11	8	[0, 0, 0]	n/a	catFR1	6	R1652A
884.396	1.6	891783	WORD	n/a	wordpools/wordpool_categorized_EN.txt	TUBA	Instruments	12	8	[0, 0, 0]	n/a	catFR1	6	R1652A
885.996	0.002	893380	PROB	5.883	n/a	n/a	n/a	-999	8	[6, 1, 4]	11.0	catFR1	6	R1652A
885.998	0.0	893382	START	n/a	n/a	n/a	n/a	-999	8	[-999, -999, -999]	n/a	catFR1	6	R1652A
885.996	0.002	893384	WORD_OFF	n/a	n/a	TUBA	Instruments	12	8	[0, 0, 0]	n/a	catFR1	6	R1652A
885.998	0.0	893384	ENCODING_END	n/a	n/a	n/a	n/a	-999	8	[0, 0, 0]	n/a	catFR1	6	R1652A
885.998	5.888	893384	DISTRACT_START	n/a	n/a	n/a	n/a	-999	8	[0, 0, 0]	n/a	catFR1	6	R1652A
891.886	4.727	899270	PROB	4.716	n/a	n/a	n/a	-999	8	[3, 5, 5]	13.0	catFR1	6	R1652A
896.613	8.873	903997	PROB	8.867	n/a	n/a	n/a	-999	8	[1, 2, 2]	5.0	catFR1	6	R1652A
905.486	5.935	912870	PROB	5.925	n/a	n/a	n/a	-999	8	[2, 2, 3]	7.0	catFR1	6	R1652A
911.421	0.0	918805	STOP	n/a	n/a	n/a	n/a	-999	8	[-999, -999, -999]	n/a	catFR1	6	R1652A
911.421	2.041	918806	DISTRACT_END	n/a	n/a	n/a	n/a	-999	8	[0, 0, 0]	n/a	catFR1	6	R1652A
913.462	1.804	920850	REC_START	n/a	n/a	n/a	n/a	-999	8	[0, 0, 0]	n/a	catFR1	6	R1652A
915.266	2.06	922650	REC_WORD	1.804	n/a	DRUM	Instruments	3	8	[0, 0, 0]	n/a	catFR1	6	R1652A
917.326	9.121	924710	REC_WORD	3.864	n/a	TUBA	Instruments	12	8	[0, 0, 0]	n/a	catFR1	6	R1652A
926.447	17.166	933831	REC_WORD	12.985	n/a	FOUNDATION	Building	-999	8	[0, 0, 0]	n/a	catFR1	6	R1652A
943.613	122.158	951004	REC_END	n/a	n/a	n/a	n/a	-999	8	[0, 0, 0]	n/a	catFR1	6	R1652A
1065.771	10.341	1073163	COUNTDOWN_START	n/a	n/a	n/a	n/a	-999	9	[0, 0, 0]	n/a	catFR1	6	R1652A
1076.112	0.0	1083502	COUNTDOWN_END	n/a	n/a	n/a	n/a	-999	9	[0, 0, 0]	n/a	catFR1	6	R1652A
1076.112	2.108	1083502	ENCODING_START	n/a	n/a	n/a	n/a	-999	9	[0, 0, 0]	n/a	catFR1	6	R1652A
1078.22	1.601	1085605	WORD	n/a	wordpools/wordpool_categorized_EN.txt	SCREWDRIVER	Tools	1	9	[0, 0, 0]	n/a	catFR1	6	R1652A
1079.821	0.766	1087207	WORD_OFF	n/a	n/a	SCREWDRIVER	Tools	1	9	[0, 0, 0]	n/a	catFR1	6	R1652A
1080.587	1.61	1087972	WORD	n/a	wordpools/wordpool_categorized_EN.txt	AXE	Tools	2	9	[0, 0, 0]	n/a	catFR1	6	R1652A
1082.197	0.816	1089585	WORD_OFF	n/a	n/a	AXE	Tools	2	9	[0, 0, 0]	n/a	catFR1	6	R1652A
1083.013	1.6	1090398	WORD	n/a	wordpools/wordpool_categorized_EN.txt	CHICKEN	FarmAnimals	3	9	[0, 0, 0]	n/a	catFR1	6	R1652A
1084.613	0.825	1091999	WORD_OFF	n/a	n/a	CHICKEN	FarmAnimals	3	9	[0, 0, 0]	n/a	catFR1	6	R1652A
1085.438	1.6	1092824	WORD	n/a	wordpools/wordpool_categorized_EN.txt	SHEEP	FarmAnimals	4	9	[0, 0, 0]	n/a	catFR1	6	R1652A
1087.038	0.965	1094426	WORD_OFF	n/a	n/a	SHEEP	FarmAnimals	4	9	[0, 0, 0]	n/a	catFR1	6	R1652A
1088.003	1.6	1095394	WORD	n/a	wordpools/wordpool_categorized_EN.txt	PLANKTON	OceanAnimals	5	9	[0, 0, 0]	n/a	catFR1	6	R1652A
1089.603	0.758	1096995	WORD_OFF	n/a	n/a	PLANKTON	OceanAnimals	5	9	[0, 0, 0]	n/a	catFR1	6	R1652A
1090.361	1.6	1097748	WORD	n/a	wordpools/wordpool_categorized_EN.txt	FISH	OceanAnimals	6	9	[0, 0, 0]	n/a	catFR1	6	R1652A
1091.961	0.811	1099350	WORD_OFF	n/a	n/a	FISH	OceanAnimals	6	9	[0, 0, 0]	n/a	catFR1	6	R1652A
1092.772	1.608	1100162	WORD	n/a	wordpools/wordpool_categorized_EN.txt	TURKEY	FarmAnimals	7	9	[0, 0, 0]	n/a	catFR1	6	R1652A
1094.38	0.808	1101764	WORD_OFF	n/a	n/a	TURKEY	FarmAnimals	7	9	[0, 0, 0]	n/a	catFR1	6	R1652A
1095.188	1.607	1102577	WORD	n/a	wordpools/wordpool_categorized_EN.txt	BULL	FarmAnimals	8	9	[0, 0, 0]	n/a	catFR1	6	R1652A
1096.795	0.793	1104190	WORD_OFF	n/a	n/a	BULL	FarmAnimals	8	9	[0, 0, 0]	n/a	catFR1	6	R1652A
1097.588	1.608	1104979	WORD	n/a	wordpools/wordpool_categorized_EN.txt	SANDER	Tools	9	9	[0, 0, 0]	n/a	catFR1	6	R1652A
1099.196	0.924	1106581	WORD_OFF	n/a	n/a	SANDER	Tools	9	9	[0, 0, 0]	n/a	catFR1	6	R1652A
1100.12	1.601	1107513	WORD	n/a	wordpools/wordpool_categorized_EN.txt	RATCHET	Tools	10	9	[0, 0, 0]	n/a	catFR1	6	R1652A
1101.721	0.891	1109114	WORD_OFF	n/a	n/a	RATCHET	Tools	10	9	[0, 0, 0]	n/a	catFR1	6	R1652A
1102.612	1.599	1109999	WORD	n/a	wordpools/wordpool_categorized_EN.txt	CRAB	OceanAnimals	11	9	[0, 0, 0]	n/a	catFR1	6	R1652A
1104.211	0.843	1111600	WORD_OFF	n/a	n/a	CRAB	OceanAnimals	11	9	[0, 0, 0]	n/a	catFR1	6	R1652A
1105.054	1.6	1112449	WORD	n/a	wordpools/wordpool_categorized_EN.txt	OYSTER	OceanAnimals	12	9	[0, 0, 0]	n/a	catFR1	6	R1652A
1106.654	0.004	1114037	PROB	5.258	n/a	n/a	n/a	-999	9	[8, 3, 7]	17.0	catFR1	6	R1652A
1106.658	0.0	1114041	START	n/a	n/a	n/a	n/a	-999	9	[-999, -999, -999]	n/a	catFR1	6	R1652A
1106.654	0.004	1114050	WORD_OFF	n/a	n/a	OYSTER	OceanAnimals	12	9	[0, 0, 0]	n/a	catFR1	6	R1652A
1106.658	0.0	1114050	ENCODING_END	n/a	n/a	n/a	n/a	-999	9	[0, 0, 0]	n/a	catFR1	6	R1652A
1106.658	5.264	1114050	DISTRACT_START	n/a	n/a	n/a	n/a	-999	9	[0, 0, 0]	n/a	catFR1	6	R1652A
1111.922	10.682	1119305	PROB	10.674	n/a	n/a	n/a	-999	9	[3, 5, 4]	13.0	catFR1	6	R1652A
1122.604	7.357	1129987	PROB	7.35	n/a	n/a	n/a	-999	9	[2, 2, 6]	10.0	catFR1	6	R1652A
1129.961	0.0	1137344	STOP	n/a	n/a	n/a	n/a	-999	9	[-999, -999, -999]	n/a	catFR1	6	R1652A
1129.961	2.217	1137345	DISTRACT_END	n/a	n/a	n/a	n/a	-999	9	[0, 0, 0]	n/a	catFR1	6	R1652A
1132.178	0.731	1139568	REC_START	n/a	n/a	n/a	n/a	-999	9	[0, 0, 0]	n/a	catFR1	6	R1652A
1132.909	1.793	1140292	REC_WORD	0.731	n/a	SCREWDRIVER	Tools	1	9	[0, 0, 0]	n/a	catFR1	6	R1652A
1134.702	2.063	1142085	REC_WORD	2.524	n/a	AXE	Tools	2	9	[0, 0, 0]	n/a	catFR1	6	R1652A
1136.765	1.858	1144148	REC_WORD	4.587	n/a	PLANKTON	OceanAnimals	5	9	[0, 0, 0]	n/a	catFR1	6	R1652A
1138.623	2.61	1146006	REC_WORD	6.445	n/a	FISH	OceanAnimals	6	9	[0, 0, 0]	n/a	catFR1	6	R1652A
1141.233	8.723	1148616	REC_WORD	9.055	n/a	CRAB	OceanAnimals	11	9	[0, 0, 0]	n/a	catFR1	6	R1652A
1149.956	12.363	1157339	REC_WORD	17.778	n/a	RATCHET	Tools	10	9	[0, 0, 0]	n/a	catFR1	6	R1652A
1162.319	20.518	1169710	REC_END	n/a	n/a	n/a	n/a	-999	9	[0, 0, 0]	n/a	catFR1	6	R1652A
1182.837	10.35	1190231	COUNTDOWN_START	n/a	n/a	n/a	n/a	-999	10	[0, 0, 0]	n/a	catFR1	6	R1652A
1193.187	0.0	1200582	COUNTDOWN_END	n/a	n/a	n/a	n/a	-999	10	[0, 0, 0]	n/a	catFR1	6	R1652A
1193.187	2.075	1200582	ENCODING_START	n/a	n/a	n/a	n/a	-999	10	[0, 0, 0]	n/a	catFR1	6	R1652A
1195.262	1.609	1202649	WORD	n/a	wordpools/wordpool_categorized_EN.txt	LEVEL	Tools	1	10	[0, 0, 0]	n/a	catFR1	6	R1652A
1196.871	0.91	1204263	WORD_OFF	n/a	n/a	LEVEL	Tools	1	10	[0, 0, 0]	n/a	catFR1	6	R1652A
1197.781	1.606	1205171	WORD	n/a	wordpools/wordpool_categorized_EN.txt	WRENCH	Tools	2	10	[0, 0, 0]	n/a	catFR1	6	R1652A
1199.387	0.775	1206773	WORD_OFF	n/a	n/a	WRENCH	Tools	2	10	[0, 0, 0]	n/a	catFR1	6	R1652A
1200.162	1.599	1207549	WORD	n/a	wordpools/wordpool_categorized_EN.txt	JEANS	Clothing	3	10	[0, 0, 0]	n/a	catFR1	6	R1652A
1201.761	0.843	1209151	WORD_OFF	n/a	n/a	JEANS	Clothing	3	10	[0, 0, 0]	n/a	catFR1	6	R1652A
1202.604	1.607	1210000	WORD	n/a	wordpools/wordpool_categorized_EN.txt	PANTS	Clothing	4	10	[0, 0, 0]	n/a	catFR1	6	R1652A
1204.211	0.858	1211601	WORD_OFF	n/a	n/a	PANTS	Clothing	4	10	[0, 0, 0]	n/a	catFR1	6	R1652A
1205.069	1.601	1212462	WORD	n/a	wordpools/wordpool_categorized_EN.txt	SHRIMP	OceanAnimals	5	10	[0, 0, 0]	n/a	catFR1	6	R1652A
1206.67	0.9	1214063	WORD_OFF	n/a	n/a	SHRIMP	OceanAnimals	5	10	[0, 0, 0]	n/a	catFR1	6	R1652A
1207.57	1.6	1214960	WORD	n/a	wordpools/wordpool_categorized_EN.txt	LOBSTER	OceanAnimals	6	10	[0, 0, 0]	n/a	catFR1	6	R1652A
1209.17	0.933	1216561	WORD_OFF	n/a	n/a	LOBSTER	OceanAnimals	6	10	[0, 0, 0]	n/a	catFR1	6	R1652A
1210.103	1.61	1217493	WORD	n/a	wordpools/wordpool_categorized_EN.txt	SHORTS	Clothing	7	10	[0, 0, 0]	n/a	catFR1	6	R1652A
1211.713	0.842	1219107	WORD_OFF	n/a	n/a	SHORTS	Clothing	7	10	[0, 0, 0]	n/a	catFR1	6	R1652A
1212.555	1.606	1219943	WORD	n/a	wordpools/wordpool_categorized_EN.txt	BLOUSE	Clothing	8	10	[0, 0, 0]	n/a	catFR1	6	R1652A
1214.161	0.827	1221545	WORD_OFF	n/a	n/a	BLOUSE	Clothing	8	10	[0, 0, 0]	n/a	catFR1	6	R1652A
1214.988	1.608	1222382	WORD	n/a	wordpools/wordpool_categorized_EN.txt	SHOVEL	Tools	9	10	[0, 0, 0]	n/a	catFR1	6	R1652A
1216.596	0.834	1223983	WORD_OFF	n/a	n/a	SHOVEL	Tools	9	10	[0, 0, 0]	n/a	catFR1	6	R1652A
1217.43	1.606	1224820	WORD	n/a	wordpools/wordpool_categorized_EN.txt	CROWBAR	Tools	10	10	[0, 0, 0]	n/a	catFR1	6	R1652A
1219.036	0.819	1226421	WORD_OFF	n/a	n/a	CROWBAR	Tools	10	10	[0, 0, 0]	n/a	catFR1	6	R1652A
1219.855	1.607	1227246	WORD	n/a	wordpools/wordpool_categorized_EN.txt	WHALE	OceanAnimals	11	10	[0, 0, 0]	n/a	catFR1	6	R1652A
1221.462	0.766	1228848	WORD_OFF	n/a	n/a	WHALE	OceanAnimals	11	10	[0, 0, 0]	n/a	catFR1	6	R1652A
1222.228	1.601	1229612	WORD	n/a	wordpools/wordpool_categorized_EN.txt	SQUID	OceanAnimals	12	10	[0, 0, 0]	n/a	catFR1	6	R1652A
1223.829	0.0	1231212	PROB	6.424	n/a	n/a	n/a	-999	10	[7, 2, 7]	16.0	catFR1	6	R1652A
1223.829	0.003	1231214	WORD_OFF	n/a	n/a	SQUID	OceanAnimals	12	10	[0, 0, 0]	n/a	catFR1	6	R1652A
1223.832	0.0	1231215	START	n/a	n/a	n/a	n/a	-999	10	[-999, -999, -999]	n/a	catFR1	6	R1652A
1223.832	0.0	1231226	ENCODING_END	n/a	n/a	n/a	n/a	-999	10	[0, 0, 0]	n/a	catFR1	6	R1652A
1223.832	6.43	1231226	DISTRACT_START	n/a	n/a	n/a	n/a	-999	10	[0, 0, 0]	n/a	catFR1	6	R1652A
1230.262	5.526	1237645	PROB	5.516	n/a	n/a	n/a	-999	10	[1, 5, 8]	14.0	catFR1	6	R1652A
1235.788	7.724	1243171	PROB	7.717	n/a	n/a	n/a	-999	10	[1, 7, 5]	13.0	catFR1	6	R1652A
1243.512	5.832	1250895	PROB	5.824	n/a	n/a	n/a	-999	10	[6, 1, 3]	10.0	catFR1	6	R1652A
1249.344	0.0	1256727	STOP	n/a	n/a	n/a	n/a	-999	10	[-999, -999, -999]	n/a	catFR1	6	R1652A
1249.344	2.035	1256731	DISTRACT_END	n/a	n/a	n/a	n/a	-999	10	[0, 0, 0]	n/a	catFR1	6	R1652A
1251.379	1.129	1258763	REC_START	n/a	n/a	n/a	n/a	-999	10	[0, 0, 0]	n/a	catFR1	6	R1652A
1252.508	1.881	1259891	REC_WORD	1.129	n/a	SHORTS	Clothing	7	10	[0, 0, 0]	n/a	catFR1	6	R1652A
1254.389	4.64	1261772	REC_WORD	3.01	n/a	PANTS	Clothing	4	10	[0, 0, 0]	n/a	catFR1	6	R1652A
1259.029	2.079	1266412	REC_WORD	7.65	n/a	LEVEL	Tools	1	10	[0, 0, 0]	n/a	catFR1	6	R1652A
1261.108	20.414	1268491	REC_WORD	9.729	n/a	SCREWDRIVER	Tools	-999	10	[0, 0, 0]	n/a	catFR1	6	R1652A
1281.522	57.381	1288905	REC_END	n/a	n/a	n/a	n/a	-999	10	[0, 0, 0]	n/a	catFR1	6	R1652A
1338.903	10.341	1346298	COUNTDOWN_START	n/a	n/a	n/a	n/a	-999	11	[0, 0, 0]	n/a	catFR1	6	R1652A
1349.244	0.001	1356636	COUNTDOWN_END	n/a	n/a	n/a	n/a	-999	11	[0, 0, 0]	n/a	catFR1	6	R1652A
1349.245	2.035	1356636	ENCODING_START	n/a	n/a	n/a	n/a	-999	11	[0, 0, 0]	n/a	catFR1	6	R1652A
1351.28	1.606	1358668	WORD	n/a	wordpools/wordpool_categorized_EN.txt	FOREST	Landscapes	1	11	[0, 0, 0]	n/a	catFR1	6	R1652A
1352.886	1.0	1360269	WORD_OFF	n/a	n/a	FOREST	Landscapes	1	11	[0, 0, 0]	n/a	catFR1	6	R1652A
1353.886	1.611	1361273	WORD	n/a	wordpools/wordpool_categorized_EN.txt	LAKE	Landscapes	2	11	[0, 0, 0]	n/a	catFR1	6	R1652A
1355.497	0.775	1362887	WORD_OFF	n/a	n/a	LAKE	Landscapes	2	11	[0, 0, 0]	n/a	catFR1	6	R1652A
1356.272	1.607	1363664	WORD	n/a	wordpools/wordpool_categorized_EN.txt	STAIRS	Building	3	11	[0, 0, 0]	n/a	catFR1	6	R1652A
1357.879	0.817	1365277	WORD_OFF	n/a	n/a	STAIRS	Building	3	11	[0, 0, 0]	n/a	catFR1	6	R1652A
1358.696	1.602	1366090	WORD	n/a	wordpools/wordpool_categorized_EN.txt	BATHROOM	Building	4	11	[0, 0, 0]	n/a	catFR1	6	R1652A
1360.298	0.931	1367692	WORD_OFF	n/a	n/a	BATHROOM	Building	4	11	[0, 0, 0]	n/a	catFR1	6	R1652A
1361.229	1.601	1368624	WORD	n/a	wordpools/wordpool_categorized_EN.txt	THUNDER	Weather	5	11	[0, 0, 0]	n/a	catFR1	6	R1652A
1362.83	0.925	1370225	WORD_OFF	n/a	n/a	THUNDER	Weather	5	11	[0, 0, 0]	n/a	catFR1	6	R1652A
1363.755	1.6	1371146	WORD	n/a	wordpools/wordpool_categorized_EN.txt	RAIN	Weather	6	11	[0, 0, 0]	n/a	catFR1	6	R1652A
1365.355	0.85	1372747	WORD_OFF	n/a	n/a	RAIN	Weather	6	11	[0, 0, 0]	n/a	catFR1	6	R1652A
1366.205	1.607	1373596	WORD	n/a	wordpools/wordpool_categorized_EN.txt	RIVER	Landscapes	7	11	[0, 0, 0]	n/a	catFR1	6	R1652A
1367.812	0.818	1375197	WORD_OFF	n/a	n/a	RIVER	Landscapes	7	11	[0, 0, 0]	n/a	catFR1	6	R1652A
1368.63	1.608	1376022	WORD	n/a	wordpools/wordpool_categorized_EN.txt	VALLEY	Landscapes	8	11	[0, 0, 0]	n/a	catFR1	6	R1652A
1370.238	0.992	1377624	WORD_OFF	n/a	n/a	VALLEY	Landscapes	8	11	[0, 0, 0]	n/a	catFR1	6	R1652A
1371.23	1.608	1378616	WORD	n/a	wordpools/wordpool_categorized_EN.txt	FOG	Weather	9	11	[0, 0, 0]	n/a	catFR1	6	R1652A
1372.838	0.833	1380229	WORD_OFF	n/a	n/a	FOG	Weather	9	11	[0, 0, 0]	n/a	catFR1	6	R1652A
1373.671	1.6	1381054	WORD	n/a	wordpools/wordpool_categorized_EN.txt	DRIZZLE	Weather	10	11	[0, 0, 0]	n/a	catFR1	6	R1652A
1375.271	0.865	1382655	WORD_OFF	n/a	n/a	DRIZZLE	Weather	10	11	[0, 0, 0]	n/a	catFR1	6	R1652A
1376.136	1.601	1383528	WORD	n/a	wordpools/wordpool_categorized_EN.txt	WINDOW	Building	11	11	[0, 0, 0]	n/a	catFR1	6	R1652A
1377.737	0.999	1385129	WORD_OFF	n/a	n/a	WINDOW	Building	11	11	[0, 0, 0]	n/a	catFR1	6	R1652A
1378.736	1.603	1386121	WORD	n/a	wordpools/wordpool_categorized_EN.txt	ROOM	Building	12	11	[0, 0, 0]	n/a	catFR1	6	R1652A
1380.339	0.0	1387721	PROB	4.774	n/a	n/a	n/a	-999	11	[5, 1, 2]	8.0	catFR1	6	R1652A
1380.338	0.003	1387723	WORD_OFF	n/a	n/a	ROOM	Building	12	11	[0, 0, 0]	n/a	catFR1	6	R1652A
1380.341	0.0	1387723	ENCODING_END	n/a	n/a	n/a	n/a	-999	11	[0, 0, 0]	n/a	catFR1	6	R1652A
1380.341	0.0	1387723	START	n/a	n/a	n/a	n/a	-999	11	[-999, -999, -999]	n/a	catFR1	6	R1652A
1380.341	4.78	1387735	DISTRACT_START	n/a	n/a	n/a	n/a	-999	11	[0, 0, 0]	n/a	catFR1	6	R1652A
1385.121	6.958	1392503	PROB	6.949	n/a	n/a	n/a	-999	11	[7, 6, 4]	17.0	catFR1	6	R1652A
1392.079	5.434	1399461	PROB	5.424	n/a	n/a	n/a	-999	11	[4, 8, 8]	20.0	catFR1	6	R1652A
1397.513	5.206	1404895	PROB	5.2	n/a	n/a	n/a	-999	11	[1, 4, 1]	6.0	catFR1	6	R1652A
1402.719	0.0	1410101	STOP	n/a	n/a	n/a	n/a	-999	11	[-999, -999, -999]	n/a	catFR1	6	R1652A
1402.719	2.128	1410108	DISTRACT_END	n/a	n/a	n/a	n/a	-999	11	[0, 0, 0]	n/a	catFR1	6	R1652A
1404.847	1.743	1412236	REC_START	n/a	n/a	n/a	n/a	-999	11	[0, 0, 0]	n/a	catFR1	6	R1652A
1406.59	1.697	1413972	REC_WORD	1.743	n/a	BATHROOM	Building	4	11	[0, 0, 0]	n/a	catFR1	6	R1652A
1408.287	1.729	1415669	REC_WORD	3.44	n/a	ROOM	Building	12	11	[0, 0, 0]	n/a	catFR1	6	R1652A
1410.016	2.1	1417398	REC_WORD	5.169	n/a	FOREST	Landscapes	1	11	[0, 0, 0]	n/a	catFR1	6	R1652A
1412.116	2.369	1419498	REC_WORD	7.269	n/a	LAKE	Landscapes	2	11	[0, 0, 0]	n/a	catFR1	6	R1652A
1414.485	20.508	1421867	REC_WORD	9.638	n/a	RIVER	Landscapes	7	11	[0, 0, 0]	n/a	catFR1	6	R1652A
1434.993	3.36	1442378	REC_END	n/a	n/a	n/a	n/a	-999	11	[0, 0, 0]	n/a	catFR1	6	R1652A
1438.353	10.344	1445749	COUNTDOWN_START	n/a	n/a	n/a	n/a	-999	12	[0, 0, 0]	n/a	catFR1	6	R1652A
1448.697	0.0	1456087	COUNTDOWN_END	n/a	n/a	n/a	n/a	-999	12	[0, 0, 0]	n/a	catFR1	6	R1652A
1448.697	2.165	1456087	ENCODING_START	n/a	n/a	n/a	n/a	-999	12	[0, 0, 0]	n/a	catFR1	6	R1652A
1450.862	1.601	1458250	WORD	n/a	wordpools/wordpool_categorized_EN.txt	CLOUD	Weather	1	12	[0, 0, 0]	n/a	catFR1	6	R1652A
1452.463	0.998	1459852	WORD_OFF	n/a	n/a	CLOUD	Weather	1	12	[0, 0, 0]	n/a	catFR1	6	R1652A
1453.461	1.601	1460844	WORD	n/a	wordpools/wordpool_categorized_EN.txt	TORNADO	Weather	2	12	[0, 0, 0]	n/a	catFR1	6	R1652A
1455.062	0.975	1462457	WORD_OFF	n/a	n/a	TORNADO	Weather	2	12	[0, 0, 0]	n/a	catFR1	6	R1652A
1456.037	1.6	1463425	WORD	n/a	wordpools/wordpool_categorized_EN.txt	HILLS	Landscapes	3	12	[0, 0, 0]	n/a	catFR1	6	R1652A
1457.637	0.884	1465027	WORD_OFF	n/a	n/a	HILLS	Landscapes	3	12	[0, 0, 0]	n/a	catFR1	6	R1652A
1458.521	1.608	1465911	WORD	n/a	wordpools/wordpool_categorized_EN.txt	WOODS	Landscapes	4	12	[0, 0, 0]	n/a	catFR1	6	R1652A
1460.129	0.757	1467513	WORD_OFF	n/a	n/a	WOODS	Landscapes	4	12	[0, 0, 0]	n/a	catFR1	6	R1652A
1460.886	1.602	1468278	WORD	n/a	wordpools/wordpool_categorized_EN.txt	CHIMPANZEE	Zoo	5	12	[0, 0, 0]	n/a	catFR1	6	R1652A
1462.488	0.873	1469879	WORD_OFF	n/a	n/a	CHIMPANZEE	Zoo	5	12	[0, 0, 0]	n/a	catFR1	6	R1652A
1463.361	1.602	1470752	WORD	n/a	wordpools/wordpool_categorized_EN.txt	GIRAFFE	Zoo	6	12	[0, 0, 0]	n/a	catFR1	6	R1652A
1464.963	0.981	1472353	WORD_OFF	n/a	n/a	GIRAFFE	Zoo	6	12	[0, 0, 0]	n/a	catFR1	6	R1652A
1465.944	1.602	1473333	WORD	n/a	wordpools/wordpool_categorized_EN.txt	ISLAND	Landscapes	7	12	[0, 0, 0]	n/a	catFR1	6	R1652A
1467.546	0.792	1474935	WORD_OFF	n/a	n/a	ISLAND	Landscapes	7	12	[0, 0, 0]	n/a	catFR1	6	R1652A
1468.338	1.6	1475724	WORD	n/a	wordpools/wordpool_categorized_EN.txt	CREEK	Landscapes	8	12	[0, 0, 0]	n/a	catFR1	6	R1652A
1469.938	0.924	1477325	WORD_OFF	n/a	n/a	CREEK	Landscapes	8	12	[0, 0, 0]	n/a	catFR1	6	R1652A
1470.862	1.601	1478246	WORD	n/a	wordpools/wordpool_categorized_EN.txt	HURRICANE	Weather	9	12	[0, 0, 0]	n/a	catFR1	6	R1652A
1472.463	0.948	1479847	WORD_OFF	n/a	n/a	HURRICANE	Weather	9	12	[0, 0, 0]	n/a	catFR1	6	R1652A
1473.411	1.601	1480803	WORD	n/a	wordpools/wordpool_categorized_EN.txt	THUNDERSTORM	Weather	10	12	[0, 0, 0]	n/a	catFR1	6	R1652A
1475.012	0.766	1482405	WORD_OFF	n/a	n/a	THUNDERSTORM	Weather	10	12	[0, 0, 0]	n/a	catFR1	6	R1652A
1475.778	1.6	1483170	WORD	n/a	wordpools/wordpool_categorized_EN.txt	BEAR	Zoo	11	12	[0, 0, 0]	n/a	catFR1	6	R1652A
1477.378	0.893	1484771	WORD_OFF	n/a	n/a	BEAR	Zoo	11	12	[0, 0, 0]	n/a	catFR1	6	R1652A
1478.271	1.609	1485656	WORD	n/a	wordpools/wordpool_categorized_EN.txt	ZEBRA	Zoo	12	12	[0, 0, 0]	n/a	catFR1	6	R1652A
1479.88	0.003	1487262	PROB	5.708	n/a	n/a	n/a	-999	12	[7, 2, 3]	12.0	catFR1	6	R1652A
1479.883	0.0	1487265	START	n/a	n/a	n/a	n/a	-999	12	[-999, -999, -999]	n/a	catFR1	6	R1652A
1479.88	0.002	1487269	WORD_OFF	n/a	n/a	ZEBRA	Zoo	12	12	[0, 0, 0]	n/a	catFR1	6	R1652A
1479.882	0.001	1487269	ENCODING_END	n/a	n/a	n/a	n/a	-999	12	[0, 0, 0]	n/a	catFR1	6	R1652A
1479.883	5.712	1487269	DISTRACT_START	n/a	n/a	n/a	n/a	-999	12	[0, 0, 0]	n/a	catFR1	6	R1652A
1485.595	6.543	1492977	PROB	6.533	n/a	n/a	n/a	-999	12	[7, 6, 4]	17.0	catFR1	6	R1652A
1492.138	4.766	1499520	PROB	4.757	n/a	n/a	n/a	-999	12	[2, 6, 3]	11.0	catFR1	6	R1652A
1496.904	6.191	1504286	PROB	6.182	n/a	n/a	n/a	-999	12	[6, 7, 1]	14.0	catFR1	6	R1652A
1503.095	0.0	1510476	STOP	n/a	n/a	n/a	n/a	-999	12	[-999, -999, -999]	n/a	catFR1	6	R1652A
1503.095	2.242	1510480	DISTRACT_END	n/a	n/a	n/a	n/a	-999	12	[0, 0, 0]	n/a	catFR1	6	R1652A
1505.337	0.646	1512727	REC_START	n/a	n/a	n/a	n/a	-999	12	[0, 0, 0]	n/a	catFR1	6	R1652A
1505.983	1.899	1513364	REC_WORD	0.646	n/a	TORNADO	Weather	2	12	[0, 0, 0]	n/a	catFR1	6	R1652A
1507.882	2.069	1515263	REC_WORD	2.545	n/a	CLOUD	Weather	1	12	[0, 0, 0]	n/a	catFR1	6	R1652A
1509.951	18.952	1517332	REC_WORD	4.614	n/a	CHIMPANZEE	Zoo	5	12	[0, 0, 0]	n/a	catFR1	6	R1652A
1528.903	5.72	1536284	REC_WORD	23.566	n/a	HILLS	Landscapes	3	12	[0, 0, 0]	n/a	catFR1	6	R1652A
1534.623	0.864	1542004	REC_WORD	29.286	n/a	MOUNTAIN	Landscapes	-999	12	[0, 0, 0]	n/a	catFR1	6	R1652A
1535.487	0.0	1542869	REC_END	n/a	n/a	n/a	n/a	-999	12	[0, 0, 0]	n/a	catFR1	6	R1652A
