onset	duration	sample	trial_type	response_time	stim_file	item_name	category	serialpos	list	test	answer	experiment	session	subject
0.0	164.91	16078	INSTRUCT_START	n/a	n/a	n/a	n/a	-999	-999	[0, 0, 0]	n/a	catFR1	0	R1537T
164.91	60.131	180986	INSTRUCT_END	n/a	n/a	n/a	n/a	-999	-999	[0, 0, 0]	n/a	catFR1	0	R1537T
225.041	10.35	241116	COUNTDOWN_START	n/a	n/a	n/a	n/a	-999	-999	[0, 0, 0]	n/a	catFR1	0	R1537T
235.391	0.0	251464	COUNTDOWN_END	n/a	n/a	n/a	n/a	-999	-999	[0, 0, 0]	n/a	catFR1	0	R1537T
235.391	2.067	251464	ENCODING_START	n/a	n/a	n/a	n/a	-999	-1	[0, 0, 0]	n/a	catFR1	0	R1537T
237.458	1.6	253532	WORD	n/a	n/a	MONKEY	Zoo	1	-1	[0, 0, 0]	n/a	catFR1	0	R1537T
239.058	0.9	255127	WORD_OFF	n/a	n/a	MONKEY	Zoo	1	-1	[0, 0, 0]	n/a	catFR1	0	R1537T
239.958	1.616	256027	WORD	n/a	n/a	CHIMPANZEE	Zoo	2	-1	[0, 0, 0]	n/a	catFR1	0	R1537T
241.574	0.851	257645	WORD_OFF	n/a	n/a	CHIMPANZEE	Zoo	2	-1	[0, 0, 0]	n/a	catFR1	0	R1537T
242.425	1.615	258499	WORD	n/a	n/a	CIDER	Beverages	3	-1	[0, 0, 0]	n/a	catFR1	0	R1537T
244.04	0.801	260109	WORD_OFF	n/a	n/a	CIDER	Beverages	3	-1	[0, 0, 0]	n/a	catFR1	0	R1537T
244.841	1.617	260911	WORD	n/a	n/a	COFFEE	Beverages	4	-1	[0, 0, 0]	n/a	catFR1	0	R1537T
246.458	1.0	262528	WORD_OFF	n/a	n/a	COFFEE	Beverages	4	-1	[0, 0, 0]	n/a	catFR1	0	R1537T
247.458	1.616	263528	WORD	n/a	n/a	BLUEBERRY	Fruit	5	-1	[0, 0, 0]	n/a	catFR1	0	R1537T
249.074	0.967	265146	WORD_OFF	n/a	n/a	BLUEBERRY	Fruit	5	-1	[0, 0, 0]	n/a	catFR1	0	R1537T
250.041	1.617	266115	WORD	n/a	n/a	STRAWBERRY	Fruit	6	-1	[0, 0, 0]	n/a	catFR1	0	R1537T
251.658	0.933	267725	WORD_OFF	n/a	n/a	STRAWBERRY	Fruit	6	-1	[0, 0, 0]	n/a	catFR1	0	R1537T
252.591	1.617	268664	WORD	n/a	n/a	CHEETAH	Zoo	7	-1	[0, 0, 0]	n/a	catFR1	0	R1537T
254.208	0.799	270281	WORD_OFF	n/a	n/a	CHEETAH	Zoo	7	-1	[0, 0, 0]	n/a	catFR1	0	R1537T
255.007	1.601	271075	WORD	n/a	n/a	ELEPHANT	Zoo	8	-1	[0, 0, 0]	n/a	catFR1	0	R1537T
256.608	0.8	272677	WORD_OFF	n/a	n/a	ELEPHANT	Zoo	8	-1	[0, 0, 0]	n/a	catFR1	0	R1537T
257.408	1.614	273479	WORD	n/a	n/a	APPLE	Fruit	9	-1	[0, 0, 0]	n/a	catFR1	0	R1537T
259.022	1.0	275089	WORD_OFF	n/a	n/a	APPLE	Fruit	9	-1	[0, 0, 0]	n/a	catFR1	0	R1537T
260.022	1.6	276088	WORD	n/a	n/a	CHERRY	Fruit	10	-1	[0, 0, 0]	n/a	catFR1	0	R1537T
261.622	0.766	277691	WORD_OFF	n/a	n/a	CHERRY	Fruit	10	-1	[0, 0, 0]	n/a	catFR1	0	R1537T
262.388	1.601	278461	WORD	n/a	n/a	LEMONADE	Beverages	11	-1	[0, 0, 0]	n/a	catFR1	0	R1537T
263.989	0.885	280064	WORD_OFF	n/a	n/a	LEMONADE	Beverages	11	-1	[0, 0, 0]	n/a	catFR1	0	R1537T
264.874	1.614	280941	WORD	n/a	n/a	WINE	Beverages	12	-1	[0, 0, 0]	n/a	catFR1	0	R1537T
266.488	0.001	282559	WORD_OFF	n/a	n/a	WINE	Beverages	12	-1	[0, 0, 0]	n/a	catFR1	0	R1537T
266.489	0.0	282559	ENCODING_END	n/a	n/a	n/a	n/a	-999	-1	[0, 0, 0]	n/a	catFR1	0	R1537T
266.489	0.0	282559	DISTRACT_START	n/a	n/a	n/a	n/a	-999	-1	[0, 0, 0]	n/a	catFR1	0	R1537T
266.489	0.001	282559	START	n/a	n/a	n/a	n/a	-999	-1	[-999, -999, -999]	n/a	catFR1	0	R1537T
266.49	13.784	282560	PROB	13.784	n/a	n/a	n/a	-999	-1	[7, 1, 2]	10	catFR1	0	R1537T
280.274	10.833	296343	PROB	10.833	n/a	n/a	n/a	-999	-1	[7, 4, 2]	13	catFR1	0	R1537T
291.107	0.0	307176	DISTRACT_END	n/a	n/a	n/a	n/a	-999	-1	[0, 0, 0]	n/a	catFR1	0	R1537T
291.107	1.9	307176	STOP	n/a	n/a	n/a	n/a	-999	-1	[-999, -999, -999]	n/a	catFR1	0	R1537T
293.007	8.633	309076	REC_START	n/a	n/a	n/a	n/a	-999	-1	[0, 0, 0]	n/a	catFR1	0	R1537T
301.64	0.503	317709	REC_WORD_VV	0.503	n/a	<>	n/a	-999	-1	[0, 0, 0]	n/a	catFR1	0	R1537T
302.143	0.715	318212	REC_WORD	0.715	n/a	MONKEY	Zoo	1	-1	[0, 0, 0]	n/a	catFR1	0	R1537T
302.858	2.178	318927	REC_WORD	2.178	n/a	CHIMPANZEE	Zoo	2	-1	[0, 0, 0]	n/a	catFR1	0	R1537T
305.036	1.971	321105	REC_WORD_VV	1.971	n/a	<>	n/a	-999	-1	[0, 0, 0]	n/a	catFR1	0	R1537T
307.007	1.63	323076	REC_WORD	1.63	n/a	WINE	Beverages	12	-1	[0, 0, 0]	n/a	catFR1	0	R1537T
308.637	1.776	324706	REC_WORD	1.776	n/a	CIDER	Beverages	3	-1	[0, 0, 0]	n/a	catFR1	0	R1537T
310.413	0.28	326482	REC_WORD_VV	0.28	n/a	<>	n/a	-999	-1	[0, 0, 0]	n/a	catFR1	0	R1537T
310.693	2.334	326762	REC_WORD	2.334	n/a	BLUEBERRY	Fruit	5	-1	[0, 0, 0]	n/a	catFR1	0	R1537T
313.027	6.884	329096	REC_WORD_VV	6.884	n/a	<>	n/a	-999	-1	[0, 0, 0]	n/a	catFR1	0	R1537T
319.911	2.1	335979	REC_WORD_VV	2.1	n/a	<>	n/a	-999	-1	[0, 0, 0]	n/a	catFR1	0	R1537T
322.011	1.195	338079	REC_WORD_VV	1.195	n/a	<>	n/a	-999	-1	[0, 0, 0]	n/a	catFR1	0	R1537T
323.206	55.481	339271	REC_END	n/a	n/a	n/a	n/a	-999	-1	[0, 0, 0]	n/a	catFR1	0	R1537T
378.687	10.351	394754	COUNTDOWN_START	n/a	n/a	n/a	n/a	-999	1	[0, 0, 0]	n/a	catFR1	0	R1537T
389.038	0.0	405109	COUNTDOWN_END	n/a	n/a	n/a	n/a	-999	1	[0, 0, 0]	n/a	catFR1	0	R1537T
389.038	2.083	405109	ENCODING_START	n/a	n/a	n/a	n/a	-999	1	[0, 0, 0]	n/a	catFR1	0	R1537T
391.121	1.615	407185	WORD	n/a	wordpools/wordpool_categorized_EN.txt	TELEVISION	Electronics	1	1	[0, 0, 0]	n/a	catFR1	0	R1537T
392.736	0.784	408803	WORD_OFF	n/a	n/a	TELEVISION	Electronics	1	1	[0, 0, 0]	n/a	catFR1	0	R1537T
393.52	1.617	409588	WORD	n/a	wordpools/wordpool_categorized_EN.txt	PHONE	Electronics	2	1	[0, 0, 0]	n/a	catFR1	0	R1537T
395.137	0.767	411206	WORD_OFF	n/a	n/a	PHONE	Electronics	2	1	[0, 0, 0]	n/a	catFR1	0	R1537T
395.904	1.616	411969	WORD	n/a	wordpools/wordpool_categorized_EN.txt	RECLINER	Furniture	3	1	[0, 0, 0]	n/a	catFR1	0	R1537T
397.52	0.767	413587	WORD_OFF	n/a	n/a	RECLINER	Furniture	3	1	[0, 0, 0]	n/a	catFR1	0	R1537T
398.287	1.6	414350	WORD	n/a	wordpools/wordpool_categorized_EN.txt	COUCH	Furniture	4	1	[0, 0, 0]	n/a	catFR1	0	R1537T
399.887	1.0	415953	WORD_OFF	n/a	n/a	COUCH	Furniture	4	1	[0, 0, 0]	n/a	catFR1	0	R1537T
400.887	1.617	416952	WORD	n/a	wordpools/wordpool_categorized_EN.txt	EVERGREEN	Trees	5	1	[0, 0, 0]	n/a	catFR1	0	R1537T
402.504	0.833	418570	WORD_OFF	n/a	n/a	EVERGREEN	Trees	5	1	[0, 0, 0]	n/a	catFR1	0	R1537T
403.337	1.617	419402	WORD	n/a	wordpools/wordpool_categorized_EN.txt	CYPRESS	Trees	6	1	[0, 0, 0]	n/a	catFR1	0	R1537T
404.954	0.983	421019	WORD_OFF	n/a	n/a	CYPRESS	Trees	6	1	[0, 0, 0]	n/a	catFR1	0	R1537T
405.937	1.6	422004	WORD	n/a	wordpools/wordpool_categorized_EN.txt	PRINTER	Electronics	7	1	[0, 0, 0]	n/a	catFR1	0	R1537T
407.537	0.817	423606	WORD_OFF	n/a	n/a	PRINTER	Electronics	7	1	[0, 0, 0]	n/a	catFR1	0	R1537T
408.354	1.617	424423	WORD	n/a	wordpools/wordpool_categorized_EN.txt	SCANNER	Electronics	8	1	[0, 0, 0]	n/a	catFR1	0	R1537T
409.971	0.782	426040	WORD_OFF	n/a	n/a	SCANNER	Electronics	8	1	[0, 0, 0]	n/a	catFR1	0	R1537T
410.753	1.601	426819	WORD	n/a	wordpools/wordpool_categorized_EN.txt	HICKORY	Trees	9	1	[0, 0, 0]	n/a	catFR1	0	R1537T
412.354	0.983	428421	WORD_OFF	n/a	n/a	HICKORY	Trees	9	1	[0, 0, 0]	n/a	catFR1	0	R1537T
413.337	1.6	429406	WORD	n/a	wordpools/wordpool_categorized_EN.txt	OAK	Trees	10	1	[0, 0, 0]	n/a	catFR1	0	R1537T
414.937	0.783	431000	WORD_OFF	n/a	n/a	OAK	Trees	10	1	[0, 0, 0]	n/a	catFR1	0	R1537T
415.72	1.617	431786	WORD	n/a	wordpools/wordpool_categorized_EN.txt	TABLE	Furniture	11	1	[0, 0, 0]	n/a	catFR1	0	R1537T
417.337	0.866	433404	WORD_OFF	n/a	n/a	TABLE	Furniture	11	1	[0, 0, 0]	n/a	catFR1	0	R1537T
418.203	1.6	434266	WORD	n/a	wordpools/wordpool_categorized_EN.txt	BED	Furniture	12	1	[0, 0, 0]	n/a	catFR1	0	R1537T
419.803	0.002	435869	WORD_OFF	n/a	n/a	BED	Furniture	12	1	[0, 0, 0]	n/a	catFR1	0	R1537T
419.805	0.0	435869	ENCODING_END	n/a	n/a	n/a	n/a	-999	1	[0, 0, 0]	n/a	catFR1	0	R1537T
419.804	0.001	435870	PROB	0.001	n/a	n/a	n/a	-999	1	[8, 3, 6]	17	catFR1	0	R1537T
419.805	0.0	435871	START	n/a	n/a	n/a	n/a	-999	1	[-999, -999, -999]	n/a	catFR1	0	R1537T
419.805	7.949	435876	DISTRACT_START	n/a	n/a	n/a	n/a	-999	1	[0, 0, 0]	n/a	catFR1	0	R1537T
427.754	6.65	443820	PROB	6.65	n/a	n/a	n/a	-999	1	[4, 1, 7]	12	catFR1	0	R1537T
434.404	5.716	450469	PROB	5.716	n/a	n/a	n/a	-999	1	[7, 5, 7]	19	catFR1	0	R1537T
440.12	0.0	456185	STOP	n/a	n/a	n/a	n/a	-999	1	[-999, -999, -999]	n/a	catFR1	0	R1537T
440.12	1.7	456190	DISTRACT_END	n/a	n/a	n/a	n/a	-999	1	[0, 0, 0]	n/a	catFR1	0	R1537T
441.82	1.883	457884	REC_START	n/a	n/a	n/a	n/a	-999	1	[0, 0, 0]	n/a	catFR1	0	R1537T
443.703	0.521	459768	REC_WORD_VV	0.521	n/a	<>	n/a	-999	1	[0, 0, 0]	n/a	catFR1	0	R1537T
444.224	2.237	460289	REC_WORD	2.237	n/a	TELEVISION	Electronics	1	1	[0, 0, 0]	n/a	catFR1	0	R1537T
446.461	0.652	462526	REC_WORD_VV	0.652	n/a	<>	n/a	-999	1	[0, 0, 0]	n/a	catFR1	0	R1537T
447.113	0.603	463178	REC_WORD	0.603	n/a	TABLE	Furniture	11	1	[0, 0, 0]	n/a	catFR1	0	R1537T
447.716	2.137	463781	REC_WORD	2.137	n/a	COUCH	Furniture	4	1	[0, 0, 0]	n/a	catFR1	0	R1537T
449.853	1.884	465918	REC_WORD	1.884	n/a	PRINTER	Electronics	7	1	[0, 0, 0]	n/a	catFR1	0	R1537T
451.737	2.522	467802	REC_WORD	2.522	n/a	OAK	Trees	10	1	[0, 0, 0]	n/a	catFR1	0	R1537T
454.259	2.396	470324	REC_WORD_VV	2.396	n/a	<>	n/a	-999	1	[0, 0, 0]	n/a	catFR1	0	R1537T
456.655	15.362	472720	REC_WORD	15.362	n/a	RECLINER	Furniture	3	1	[0, 0, 0]	n/a	catFR1	0	R1537T
472.017	2.935	488079	REC_END	n/a	n/a	n/a	n/a	-999	1	[0, 0, 0]	n/a	catFR1	0	R1537T
474.952	10.35	491016	COUNTDOWN_START	n/a	n/a	n/a	n/a	-999	1	[0, 0, 0]	n/a	catFR1	0	R1537T
485.302	0.0	501364	COUNTDOWN_END	n/a	n/a	n/a	n/a	-999	1	[0, 0, 0]	n/a	catFR1	0	R1537T
485.302	2.133	501371	ENCODING_START	n/a	n/a	n/a	n/a	-999	2	[0, 0, 0]	n/a	catFR1	0	R1537T
487.435	1.6	503500	WORD	n/a	wordpools/wordpool_categorized_EN.txt	CEDAR	Trees	1	2	[0, 0, 0]	n/a	catFR1	0	R1537T
489.035	0.783	505103	WORD_OFF	n/a	n/a	CEDAR	Trees	1	2	[0, 0, 0]	n/a	catFR1	0	R1537T
489.818	1.6	505881	WORD	n/a	wordpools/wordpool_categorized_EN.txt	SPRUCE	Trees	2	2	[0, 0, 0]	n/a	catFR1	0	R1537T
491.418	0.766	507484	WORD_OFF	n/a	n/a	SPRUCE	Trees	2	2	[0, 0, 0]	n/a	catFR1	0	R1537T
492.184	1.6	508247	WORD	n/a	wordpools/wordpool_categorized_EN.txt	RULER	OfficeSupplies	3	2	[0, 0, 0]	n/a	catFR1	0	R1537T
493.784	0.768	509849	WORD_OFF	n/a	n/a	RULER	OfficeSupplies	3	2	[0, 0, 0]	n/a	catFR1	0	R1537T
494.552	1.6	510612	WORD	n/a	wordpools/wordpool_categorized_EN.txt	TAPE	OfficeSupplies	4	2	[0, 0, 0]	n/a	catFR1	0	R1537T
496.152	1.0	512215	WORD_OFF	n/a	n/a	TAPE	OfficeSupplies	4	2	[0, 0, 0]	n/a	catFR1	0	R1537T
497.152	1.617	513214	WORD	n/a	wordpools/wordpool_categorized_EN.txt	COOKIE	Desserts	5	2	[0, 0, 0]	n/a	catFR1	0	R1537T
498.769	0.833	514832	WORD_OFF	n/a	n/a	COOKIE	Desserts	5	2	[0, 0, 0]	n/a	catFR1	0	R1537T
499.602	1.616	515664	WORD	n/a	wordpools/wordpool_categorized_EN.txt	PIE	Desserts	6	2	[0, 0, 0]	n/a	catFR1	0	R1537T
501.218	0.934	517281	WORD_OFF	n/a	n/a	PIE	Desserts	6	2	[0, 0, 0]	n/a	catFR1	0	R1537T
502.152	1.617	518212	WORD	n/a	wordpools/wordpool_categorized_EN.txt	NOTEBOOK	OfficeSupplies	7	2	[0, 0, 0]	n/a	catFR1	0	R1537T
503.769	0.866	519830	WORD_OFF	n/a	n/a	NOTEBOOK	OfficeSupplies	7	2	[0, 0, 0]	n/a	catFR1	0	R1537T
504.635	1.617	520700	WORD	n/a	wordpools/wordpool_categorized_EN.txt	ERASER	OfficeSupplies	8	2	[0, 0, 0]	n/a	catFR1	0	R1537T
506.252	0.864	522318	WORD_OFF	n/a	n/a	ERASER	OfficeSupplies	8	2	[0, 0, 0]	n/a	catFR1	0	R1537T
507.116	1.601	523180	WORD	n/a	wordpools/wordpool_categorized_EN.txt	WALNUT	Trees	9	2	[0, 0, 0]	n/a	catFR1	0	R1537T
508.717	0.768	524783	WORD_OFF	n/a	n/a	WALNUT	Trees	9	2	[0, 0, 0]	n/a	catFR1	0	R1537T
509.485	1.616	525546	WORD	n/a	wordpools/wordpool_categorized_EN.txt	PINE	Trees	10	2	[0, 0, 0]	n/a	catFR1	0	R1537T
511.101	0.984	527163	WORD_OFF	n/a	n/a	PINE	Trees	10	2	[0, 0, 0]	n/a	catFR1	0	R1537T
512.085	1.616	528148	WORD	n/a	wordpools/wordpool_categorized_EN.txt	FUDGE	Desserts	11	2	[0, 0, 0]	n/a	catFR1	0	R1537T
513.701	0.967	529765	WORD_OFF	n/a	n/a	FUDGE	Desserts	11	2	[0, 0, 0]	n/a	catFR1	0	R1537T
514.668	1.601	530735	WORD	n/a	wordpools/wordpool_categorized_EN.txt	CHEESECAKE	Desserts	12	2	[0, 0, 0]	n/a	catFR1	0	R1537T
516.269	0.0	532329	WORD_OFF	n/a	n/a	CHEESECAKE	Desserts	12	2	[0, 0, 0]	n/a	catFR1	0	R1537T
516.269	0.001	532332	PROB	0.001	n/a	n/a	n/a	-999	2	[4, 7, 4]	15	catFR1	0	R1537T
516.27	0.0	532333	START	n/a	n/a	n/a	n/a	-999	2	[-999, -999, -999]	n/a	catFR1	0	R1537T
516.27	0.0	532337	ENCODING_END	n/a	n/a	n/a	n/a	-999	2	[0, 0, 0]	n/a	catFR1	0	R1537T
516.27	9.448	532337	DISTRACT_START	n/a	n/a	n/a	n/a	-999	2	[0, 0, 0]	n/a	catFR1	0	R1537T
525.718	5.233	541781	PROB	5.233	n/a	n/a	n/a	-999	2	[3, 2, 3]	8	catFR1	0	R1537T
530.951	3.017	547014	PROB	3.017	n/a	n/a	n/a	-999	2	[2, 2, 1]	5	catFR1	0	R1537T
533.968	5.549	550031	PROB	5.549	n/a	n/a	n/a	-999	2	[4, 3, 6]	13	catFR1	0	R1537T
539.517	0.0	555580	DISTRACT_END	n/a	n/a	n/a	n/a	-999	2	[0, 0, 0]	n/a	catFR1	0	R1537T
539.517	1.65	555580	STOP	n/a	n/a	n/a	n/a	-999	2	[-999, -999, -999]	n/a	catFR1	0	R1537T
541.167	2.244	557229	REC_START	n/a	n/a	n/a	n/a	-999	2	[0, 0, 0]	n/a	catFR1	0	R1537T
543.411	1.12	559473	REC_WORD	1.12	n/a	CEDAR	Trees	1	2	[0, 0, 0]	n/a	catFR1	0	R1537T
544.531	1.899	560593	REC_WORD	1.899	n/a	SPRUCE	Trees	2	2	[0, 0, 0]	n/a	catFR1	0	R1537T
546.43	1.658	562492	REC_WORD	1.658	n/a	TAPE	OfficeSupplies	4	2	[0, 0, 0]	n/a	catFR1	0	R1537T
548.088	8.176	564150	REC_WORD_VV	8.176	n/a	<>	n/a	-999	2	[0, 0, 0]	n/a	catFR1	0	R1537T
556.264	0.563	572326	REC_WORD_VV	0.563	n/a	<>	n/a	-999	2	[0, 0, 0]	n/a	catFR1	0	R1537T
556.827	14.566	572889	REC_WORD	14.566	n/a	RULER	OfficeSupplies	3	2	[0, 0, 0]	n/a	catFR1	0	R1537T
571.393	2.34	587454	REC_END	n/a	n/a	n/a	n/a	-999	2	[0, 0, 0]	n/a	catFR1	0	R1537T
573.733	10.349	589797	COUNTDOWN_START	n/a	n/a	n/a	n/a	-999	2	[0, 0, 0]	n/a	catFR1	0	R1537T
584.082	0.0	600144	COUNTDOWN_END	n/a	n/a	n/a	n/a	-999	2	[0, 0, 0]	n/a	catFR1	0	R1537T
584.082	2.118	600144	ENCODING_START	n/a	n/a	n/a	n/a	-999	3	[0, 0, 0]	n/a	catFR1	0	R1537T
586.2	1.6	602265	WORD	n/a	wordpools/wordpool_categorized_EN.txt	TORNADO	Weather	1	3	[0, 0, 0]	n/a	catFR1	0	R1537T
587.8	0.783	603860	WORD_OFF	n/a	n/a	TORNADO	Weather	1	3	[0, 0, 0]	n/a	catFR1	0	R1537T
588.583	1.6	604646	WORD	n/a	wordpools/wordpool_categorized_EN.txt	THUNDER	Weather	2	3	[0, 0, 0]	n/a	catFR1	0	R1537T
590.183	0.917	606241	WORD_OFF	n/a	n/a	THUNDER	Weather	2	3	[0, 0, 0]	n/a	catFR1	0	R1537T
591.1	1.6	607164	WORD	n/a	wordpools/wordpool_categorized_EN.txt	BOOKCASE	Furniture	3	3	[0, 0, 0]	n/a	catFR1	0	R1537T
592.7	0.999	608759	WORD_OFF	n/a	n/a	BOOKCASE	Furniture	3	3	[0, 0, 0]	n/a	catFR1	0	R1537T
593.699	1.6	609759	WORD	n/a	wordpools/wordpool_categorized_EN.txt	SOFA	Furniture	4	3	[0, 0, 0]	n/a	catFR1	0	R1537T
595.299	0.817	611361	WORD_OFF	n/a	n/a	SOFA	Furniture	4	3	[0, 0, 0]	n/a	catFR1	0	R1537T
596.116	1.617	612178	WORD	n/a	wordpools/wordpool_categorized_EN.txt	PETUNIA	Flowers	5	3	[0, 0, 0]	n/a	catFR1	0	R1537T
597.733	0.765	613795	WORD_OFF	n/a	n/a	PETUNIA	Flowers	5	3	[0, 0, 0]	n/a	catFR1	0	R1537T
598.498	1.6	614558	WORD	n/a	wordpools/wordpool_categorized_EN.txt	CARNATION	Flowers	6	3	[0, 0, 0]	n/a	catFR1	0	R1537T
600.098	0.883	616161	WORD_OFF	n/a	n/a	CARNATION	Flowers	6	3	[0, 0, 0]	n/a	catFR1	0	R1537T
600.981	1.601	617046	WORD	n/a	wordpools/wordpool_categorized_EN.txt	DESK	Furniture	7	3	[0, 0, 0]	n/a	catFR1	0	R1537T
602.582	0.834	618641	WORD_OFF	n/a	n/a	DESK	Furniture	7	3	[0, 0, 0]	n/a	catFR1	0	R1537T
603.416	1.616	619480	WORD	n/a	wordpools/wordpool_categorized_EN.txt	CABINET	Furniture	8	3	[0, 0, 0]	n/a	catFR1	0	R1537T
605.032	0.817	621090	WORD_OFF	n/a	n/a	CABINET	Furniture	8	3	[0, 0, 0]	n/a	catFR1	0	R1537T
605.849	1.615	621907	WORD	n/a	wordpools/wordpool_categorized_EN.txt	ROSE	Flowers	9	3	[0, 0, 0]	n/a	catFR1	0	R1537T
607.464	0.85	623525	WORD_OFF	n/a	n/a	ROSE	Flowers	9	3	[0, 0, 0]	n/a	catFR1	0	R1537T
608.314	1.601	624379	WORD	n/a	wordpools/wordpool_categorized_EN.txt	LILAC	Flowers	10	3	[0, 0, 0]	n/a	catFR1	0	R1537T
609.915	0.867	625974	WORD_OFF	n/a	n/a	LILAC	Flowers	10	3	[0, 0, 0]	n/a	catFR1	0	R1537T
610.782	1.6	626844	WORD	n/a	wordpools/wordpool_categorized_EN.txt	HUMIDITY	Weather	11	3	[0, 0, 0]	n/a	catFR1	0	R1537T
612.382	0.801	628446	WORD_OFF	n/a	n/a	HUMIDITY	Weather	11	3	[0, 0, 0]	n/a	catFR1	0	R1537T
613.183	1.616	629240	WORD	n/a	wordpools/wordpool_categorized_EN.txt	CLOUD	Weather	12	3	[0, 0, 0]	n/a	catFR1	0	R1537T
614.799	0.001	630858	WORD_OFF	n/a	n/a	CLOUD	Weather	12	3	[0, 0, 0]	n/a	catFR1	0	R1537T
614.8	0.001	630861	PROB	0.001	n/a	n/a	n/a	-999	3	[6, 8, 5]	19	catFR1	0	R1537T
614.801	0.0	630862	START	n/a	n/a	n/a	n/a	-999	3	[-999, -999, -999]	n/a	catFR1	0	R1537T
614.801	0.0	630865	ENCODING_END	n/a	n/a	n/a	n/a	-999	3	[0, 0, 0]	n/a	catFR1	0	R1537T
614.801	12.665	630865	DISTRACT_START	n/a	n/a	n/a	n/a	-999	3	[0, 0, 0]	n/a	catFR1	0	R1537T
627.466	5.766	643526	PROB	5.766	n/a	n/a	n/a	-999	3	[6, 5, 6]	17	catFR1	0	R1537T
633.232	7.049	649292	PROB	7.049	n/a	n/a	n/a	-999	3	[3, 6, 2]	11	catFR1	0	R1537T
640.281	0.0	656341	STOP	n/a	n/a	n/a	n/a	-999	3	[-999, -999, -999]	n/a	catFR1	0	R1537T
640.281	1.617	656345	DISTRACT_END	n/a	n/a	n/a	n/a	-999	3	[0, 0, 0]	n/a	catFR1	0	R1537T
641.898	2.282	657955	REC_START	n/a	n/a	n/a	n/a	-999	3	[0, 0, 0]	n/a	catFR1	0	R1537T
644.18	1.756	660240	REC_WORD_VV	1.756	n/a	<>	n/a	-999	3	[0, 0, 0]	n/a	catFR1	0	R1537T
645.936	1.43	661996	REC_WORD	1.43	n/a	TORNADO	Weather	1	3	[0, 0, 0]	n/a	catFR1	0	R1537T
647.366	1.319	663426	REC_WORD	1.319	n/a	CLOUD	Weather	12	3	[0, 0, 0]	n/a	catFR1	0	R1537T
648.685	23.446	664745	REC_WORD	23.446	n/a	HUMIDITY	Weather	11	3	[0, 0, 0]	n/a	catFR1	0	R1537T
672.131	2.116	688188	REC_END	n/a	n/a	n/a	n/a	-999	3	[0, 0, 0]	n/a	catFR1	0	R1537T
674.247	10.35	690309	COUNTDOWN_START	n/a	n/a	n/a	n/a	-999	3	[0, 0, 0]	n/a	catFR1	0	R1537T
684.597	0.0	700656	COUNTDOWN_END	n/a	n/a	n/a	n/a	-999	3	[0, 0, 0]	n/a	catFR1	0	R1537T
684.597	2.0	700656	ENCODING_START	n/a	n/a	n/a	n/a	-999	4	[0, 0, 0]	n/a	catFR1	0	R1537T
686.597	1.6	702656	WORD	n/a	wordpools/wordpool_categorized_EN.txt	LADLE	KitchenTools	1	4	[0, 0, 0]	n/a	catFR1	0	R1537T
688.197	0.966	704258	WORD_OFF	n/a	n/a	LADLE	KitchenTools	1	4	[0, 0, 0]	n/a	catFR1	0	R1537T
689.163	1.601	705220	WORD	n/a	wordpools/wordpool_categorized_EN.txt	PEELER	KitchenTools	2	4	[0, 0, 0]	n/a	catFR1	0	R1537T
690.764	0.916	706822	WORD_OFF	n/a	n/a	PEELER	KitchenTools	2	4	[0, 0, 0]	n/a	catFR1	0	R1537T
691.68	1.6	707738	WORD	n/a	wordpools/wordpool_categorized_EN.txt	VAN	Vehicles	3	4	[0, 0, 0]	n/a	catFR1	0	R1537T
693.28	1.0	709340	WORD_OFF	n/a	n/a	VAN	Vehicles	3	4	[0, 0, 0]	n/a	catFR1	0	R1537T
694.28	1.6	710340	WORD	n/a	wordpools/wordpool_categorized_EN.txt	JEEP	Vehicles	4	4	[0, 0, 0]	n/a	catFR1	0	R1537T
695.88	0.933	711942	WORD_OFF	n/a	n/a	JEEP	Vehicles	4	4	[0, 0, 0]	n/a	catFR1	0	R1537T
696.813	1.601	712873	WORD	n/a	wordpools/wordpool_categorized_EN.txt	TOASTER	Appliances	5	4	[0, 0, 0]	n/a	catFR1	0	R1537T
698.414	0.816	714468	WORD_OFF	n/a	n/a	TOASTER	Appliances	5	4	[0, 0, 0]	n/a	catFR1	0	R1537T
699.23	1.617	715292	WORD	n/a	wordpools/wordpool_categorized_EN.txt	BLENDER	Appliances	6	4	[0, 0, 0]	n/a	catFR1	0	R1537T
700.847	0.767	716902	WORD_OFF	n/a	n/a	BLENDER	Appliances	6	4	[0, 0, 0]	n/a	catFR1	0	R1537T
701.614	1.616	717673	WORD	n/a	wordpools/wordpool_categorized_EN.txt	TRAIN	Vehicles	7	4	[0, 0, 0]	n/a	catFR1	0	R1537T
703.23	1.0	719291	WORD_OFF	n/a	n/a	TRAIN	Vehicles	7	4	[0, 0, 0]	n/a	catFR1	0	R1537T
704.23	1.616	720290	WORD	n/a	wordpools/wordpool_categorized_EN.txt	BIKE	Vehicles	8	4	[0, 0, 0]	n/a	catFR1	0	R1537T
705.846	0.866	721908	WORD_OFF	n/a	n/a	BIKE	Vehicles	8	4	[0, 0, 0]	n/a	catFR1	0	R1537T
706.712	1.601	722770	WORD	n/a	wordpools/wordpool_categorized_EN.txt	FREEZER	Appliances	9	4	[0, 0, 0]	n/a	catFR1	0	R1537T
708.313	0.9	724373	WORD_OFF	n/a	n/a	FREEZER	Appliances	9	4	[0, 0, 0]	n/a	catFR1	0	R1537T
709.213	1.617	725273	WORD	n/a	wordpools/wordpool_categorized_EN.txt	REFRIGERATOR	Appliances	10	4	[0, 0, 0]	n/a	catFR1	0	R1537T
710.83	0.917	726891	WORD_OFF	n/a	n/a	REFRIGERATOR	Appliances	10	4	[0, 0, 0]	n/a	catFR1	0	R1537T
711.747	1.616	727807	WORD	n/a	wordpools/wordpool_categorized_EN.txt	WHISK	KitchenTools	11	4	[0, 0, 0]	n/a	catFR1	0	R1537T
713.363	0.983	729424	WORD_OFF	n/a	n/a	WHISK	KitchenTools	11	4	[0, 0, 0]	n/a	catFR1	0	R1537T
714.346	1.617	730409	WORD	n/a	wordpools/wordpool_categorized_EN.txt	COLANDER	KitchenTools	12	4	[0, 0, 0]	n/a	catFR1	0	R1537T
715.963	0.001	732019	WORD_OFF	n/a	n/a	COLANDER	KitchenTools	12	4	[0, 0, 0]	n/a	catFR1	0	R1537T
715.964	0.001	732022	PROB	0.001	n/a	n/a	n/a	-999	4	[7, 8, 2]	17	catFR1	0	R1537T
715.965	0.0	732023	START	n/a	n/a	n/a	n/a	-999	4	[-999, -999, -999]	n/a	catFR1	0	R1537T
715.965	0.0	732026	ENCODING_END	n/a	n/a	n/a	n/a	-999	4	[0, 0, 0]	n/a	catFR1	0	R1537T
715.965	8.664	732026	DISTRACT_START	n/a	n/a	n/a	n/a	-999	4	[0, 0, 0]	n/a	catFR1	0	R1537T
724.629	12.317	740687	PROB	12.317	n/a	n/a	n/a	-999	4	[7, 8, 5]	20	catFR1	0	R1537T
736.946	0.0	753003	DISTRACT_END	n/a	n/a	n/a	n/a	-999	4	[0, 0, 0]	n/a	catFR1	0	R1537T
736.946	1.783	753003	STOP	n/a	n/a	n/a	n/a	-999	4	[-999, -999, -999]	n/a	catFR1	0	R1537T
738.729	5.426	754789	REC_START	n/a	n/a	n/a	n/a	-999	4	[0, 0, 0]	n/a	catFR1	0	R1537T
744.155	0.799	760212	REC_WORD	0.799	n/a	VAN	Vehicles	3	4	[0, 0, 0]	n/a	catFR1	0	R1537T
744.954	4.411	761011	REC_WORD	4.411	n/a	PEELER	KitchenTools	2	4	[0, 0, 0]	n/a	catFR1	0	R1537T
749.365	12.37	765422	REC_WORD	12.37	n/a	DEEP	n/a	-999	4	[0, 0, 0]	n/a	catFR1	0	R1537T
761.735	7.229	777792	REC_WORD	7.229	n/a	WHISK	KitchenTools	11	4	[0, 0, 0]	n/a	catFR1	0	R1537T
768.964	4.281	785022	REC_END	n/a	n/a	n/a	n/a	-999	4	[0, 0, 0]	n/a	catFR1	0	R1537T
773.245	10.349	789303	COUNTDOWN_START	n/a	n/a	n/a	n/a	-999	4	[0, 0, 0]	n/a	catFR1	0	R1537T
783.594	0.0	799650	COUNTDOWN_END	n/a	n/a	n/a	n/a	-999	4	[0, 0, 0]	n/a	catFR1	0	R1537T
783.594	2.051	799658	ENCODING_START	n/a	n/a	n/a	n/a	-999	5	[0, 0, 0]	n/a	catFR1	0	R1537T
785.645	1.6	801703	WORD	n/a	wordpools/wordpool_categorized_EN.txt	SHOES	Clothing	1	5	[0, 0, 0]	n/a	catFR1	0	R1537T
787.245	0.798	803298	WORD_OFF	n/a	n/a	SHOES	Clothing	1	5	[0, 0, 0]	n/a	catFR1	0	R1537T
788.043	1.602	804099	WORD	n/a	wordpools/wordpool_categorized_EN.txt	SHORTS	Clothing	2	5	[0, 0, 0]	n/a	catFR1	0	R1537T
789.645	0.998	805702	WORD_OFF	n/a	n/a	SHORTS	Clothing	2	5	[0, 0, 0]	n/a	catFR1	0	R1537T
790.643	1.601	806701	WORD	n/a	wordpools/wordpool_categorized_EN.txt	OCEAN	Landscapes	3	5	[0, 0, 0]	n/a	catFR1	0	R1537T
792.244	0.984	808304	WORD_OFF	n/a	n/a	OCEAN	Landscapes	3	5	[0, 0, 0]	n/a	catFR1	0	R1537T
793.228	1.6	809288	WORD	n/a	wordpools/wordpool_categorized_EN.txt	FOREST	Landscapes	4	5	[0, 0, 0]	n/a	catFR1	0	R1537T
794.828	0.8	810883	WORD_OFF	n/a	n/a	FOREST	Landscapes	4	5	[0, 0, 0]	n/a	catFR1	0	R1537T
795.628	1.6	811684	WORD	n/a	wordpools/wordpool_categorized_EN.txt	PASTRY	Desserts	5	5	[0, 0, 0]	n/a	catFR1	0	R1537T
797.228	0.833	813286	WORD_OFF	n/a	n/a	PASTRY	Desserts	5	5	[0, 0, 0]	n/a	catFR1	0	R1537T
798.061	1.617	814118	WORD	n/a	wordpools/wordpool_categorized_EN.txt	PUDDING	Desserts	6	5	[0, 0, 0]	n/a	catFR1	0	R1537T
799.678	0.914	815736	WORD_OFF	n/a	n/a	PUDDING	Desserts	6	5	[0, 0, 0]	n/a	catFR1	0	R1537T
800.592	1.602	816644	WORD	n/a	wordpools/wordpool_categorized_EN.txt	HILLS	Landscapes	7	5	[0, 0, 0]	n/a	catFR1	0	R1537T
802.194	0.984	818246	WORD_OFF	n/a	n/a	HILLS	Landscapes	7	5	[0, 0, 0]	n/a	catFR1	0	R1537T
803.178	1.6	819231	WORD	n/a	wordpools/wordpool_categorized_EN.txt	ISLAND	Landscapes	8	5	[0, 0, 0]	n/a	catFR1	0	R1537T
804.778	0.983	820833	WORD_OFF	n/a	n/a	ISLAND	Landscapes	8	5	[0, 0, 0]	n/a	catFR1	0	R1537T
805.761	1.617	821818	WORD	n/a	wordpools/wordpool_categorized_EN.txt	COBBLER	Desserts	9	5	[0, 0, 0]	n/a	catFR1	0	R1537T
807.378	0.8	823435	WORD_OFF	n/a	n/a	COBBLER	Desserts	9	5	[0, 0, 0]	n/a	catFR1	0	R1537T
808.178	1.616	824237	WORD	n/a	wordpools/wordpool_categorized_EN.txt	BROWNIES	Desserts	10	5	[0, 0, 0]	n/a	catFR1	0	R1537T
809.794	0.767	825847	WORD_OFF	n/a	n/a	BROWNIES	Desserts	10	5	[0, 0, 0]	n/a	catFR1	0	R1537T
810.561	1.617	826617	WORD	n/a	wordpools/wordpool_categorized_EN.txt	BLOUSE	Clothing	11	5	[0, 0, 0]	n/a	catFR1	0	R1537T
812.178	0.999	828235	WORD_OFF	n/a	n/a	BLOUSE	Clothing	11	5	[0, 0, 0]	n/a	catFR1	0	R1537T
813.177	1.6	829235	WORD	n/a	wordpools/wordpool_categorized_EN.txt	SOCKS	Clothing	12	5	[0, 0, 0]	n/a	catFR1	0	R1537T
814.777	0.0	830830	WORD_OFF	n/a	n/a	SOCKS	Clothing	12	5	[0, 0, 0]	n/a	catFR1	0	R1537T
814.777	0.004	830832	PROB	0.004	n/a	n/a	n/a	-999	5	[4, 1, 3]	8	catFR1	0	R1537T
814.781	0.0	830836	START	n/a	n/a	n/a	n/a	-999	5	[-999, -999, -999]	n/a	catFR1	0	R1537T
814.781	0.0	830837	ENCODING_END	n/a	n/a	n/a	n/a	-999	5	[0, 0, 0]	n/a	catFR1	0	R1537T
814.781	6.613	830837	DISTRACT_START	n/a	n/a	n/a	n/a	-999	5	[0, 0, 0]	n/a	catFR1	0	R1537T
821.394	20.233	837449	PROB	20.233	n/a	n/a	n/a	-999	5	[7, 5, 6]	18	catFR1	0	R1537T
841.627	0.0	857682	DISTRACT_END	n/a	n/a	n/a	n/a	-999	5	[0, 0, 0]	n/a	catFR1	0	R1537T
841.627	1.883	857682	STOP	n/a	n/a	n/a	n/a	-999	5	[-999, -999, -999]	n/a	catFR1	0	R1537T
843.51	2.971	859567	REC_START	n/a	n/a	n/a	n/a	-999	5	[0, 0, 0]	n/a	catFR1	0	R1537T
846.481	3.175	862536	REC_WORD_VV	3.175	n/a	<>	n/a	-999	5	[0, 0, 0]	n/a	catFR1	0	R1537T
849.656	24.096	865710	REC_WORD	24.096	n/a	BLOUSE	Clothing	11	5	[0, 0, 0]	n/a	catFR1	0	R1537T
873.752	15.09	889808	REC_END	n/a	n/a	n/a	n/a	-999	5	[0, 0, 0]	n/a	catFR1	0	R1537T
888.842	10.35	904901	COUNTDOWN_START	n/a	n/a	n/a	n/a	-999	5	[0, 0, 0]	n/a	catFR1	0	R1537T
899.192	0.0	915249	COUNTDOWN_END	n/a	n/a	n/a	n/a	-999	5	[0, 0, 0]	n/a	catFR1	0	R1537T
899.192	2.266	915249	ENCODING_START	n/a	n/a	n/a	n/a	-999	6	[0, 0, 0]	n/a	catFR1	0	R1537T
901.458	1.601	917515	WORD	n/a	wordpools/wordpool_categorized_EN.txt	UNDERWEAR	Clothing	1	6	[0, 0, 0]	n/a	catFR1	0	R1537T
903.059	0.916	919110	WORD_OFF	n/a	n/a	UNDERWEAR	Clothing	1	6	[0, 0, 0]	n/a	catFR1	0	R1537T
903.975	1.601	920026	WORD	n/a	wordpools/wordpool_categorized_EN.txt	JACKET	Clothing	2	6	[0, 0, 0]	n/a	catFR1	0	R1537T
905.576	0.883	921628	WORD_OFF	n/a	n/a	JACKET	Clothing	2	6	[0, 0, 0]	n/a	catFR1	0	R1537T
906.459	1.616	922513	WORD	n/a	wordpools/wordpool_categorized_EN.txt	OVEN	Appliances	3	6	[0, 0, 0]	n/a	catFR1	0	R1537T
908.075	0.933	924131	WORD_OFF	n/a	n/a	OVEN	Appliances	3	6	[0, 0, 0]	n/a	catFR1	0	R1537T
909.008	1.601	925062	WORD	n/a	wordpools/wordpool_categorized_EN.txt	WASHER	Appliances	4	6	[0, 0, 0]	n/a	catFR1	0	R1537T
910.609	0.933	926664	WORD_OFF	n/a	n/a	WASHER	Appliances	4	6	[0, 0, 0]	n/a	catFR1	0	R1537T
911.542	1.617	927595	WORD	n/a	wordpools/wordpool_categorized_EN.txt	BUS	Vehicles	5	6	[0, 0, 0]	n/a	catFR1	0	R1537T
913.159	0.95	929213	WORD_OFF	n/a	n/a	BUS	Vehicles	5	6	[0, 0, 0]	n/a	catFR1	0	R1537T
914.109	1.6	930159	WORD	n/a	wordpools/wordpool_categorized_EN.txt	BOAT	Vehicles	6	6	[0, 0, 0]	n/a	catFR1	0	R1537T
915.709	0.966	931762	WORD_OFF	n/a	n/a	BOAT	Vehicles	6	6	[0, 0, 0]	n/a	catFR1	0	R1537T
916.675	1.6	932731	WORD	n/a	wordpools/wordpool_categorized_EN.txt	DISHWASHER	Appliances	7	6	[0, 0, 0]	n/a	catFR1	0	R1537T
918.275	0.899	934326	WORD_OFF	n/a	n/a	DISHWASHER	Appliances	7	6	[0, 0, 0]	n/a	catFR1	0	R1537T
919.174	1.601	935226	WORD	n/a	wordpools/wordpool_categorized_EN.txt	IRON	Appliances	8	6	[0, 0, 0]	n/a	catFR1	0	R1537T
920.775	0.866	936829	WORD_OFF	n/a	n/a	IRON	Appliances	8	6	[0, 0, 0]	n/a	catFR1	0	R1537T
921.641	1.6	937698	WORD	n/a	wordpools/wordpool_categorized_EN.txt	SKIRT	Clothing	9	6	[0, 0, 0]	n/a	catFR1	0	R1537T
923.241	0.884	939293	WORD_OFF	n/a	n/a	SKIRT	Clothing	9	6	[0, 0, 0]	n/a	catFR1	0	R1537T
924.125	1.6	940178	WORD	n/a	wordpools/wordpool_categorized_EN.txt	PANTS	Clothing	10	6	[0, 0, 0]	n/a	catFR1	0	R1537T
925.725	0.932	941781	WORD_OFF	n/a	n/a	PANTS	Clothing	10	6	[0, 0, 0]	n/a	catFR1	0	R1537T
926.657	1.601	942712	WORD	n/a	wordpools/wordpool_categorized_EN.txt	CAR	Vehicles	11	6	[0, 0, 0]	n/a	catFR1	0	R1537T
928.258	0.983	944314	WORD_OFF	n/a	n/a	CAR	Vehicles	11	6	[0, 0, 0]	n/a	catFR1	0	R1537T
929.241	1.617	945291	WORD	n/a	wordpools/wordpool_categorized_EN.txt	TRUCK	Vehicles	12	6	[0, 0, 0]	n/a	catFR1	0	R1537T
930.858	0.002	946909	WORD_OFF	n/a	n/a	TRUCK	Vehicles	12	6	[0, 0, 0]	n/a	catFR1	0	R1537T
930.86	0.0	946909	ENCODING_END	n/a	n/a	n/a	n/a	-999	6	[0, 0, 0]	n/a	catFR1	0	R1537T
930.859	0.001	946911	PROB	0.001	n/a	n/a	n/a	-999	6	[7, 1, 5]	13	catFR1	0	R1537T
930.86	0.0	946912	START	n/a	n/a	n/a	n/a	-999	6	[-999, -999, -999]	n/a	catFR1	0	R1537T
930.86	10.614	946916	DISTRACT_START	n/a	n/a	n/a	n/a	-999	6	[0, 0, 0]	n/a	catFR1	0	R1537T
941.474	6.551	957526	PROB	6.551	n/a	n/a	n/a	-999	6	[7, 4, 6]	17	catFR1	0	R1537T
948.025	6.584	964077	PROB	6.584	n/a	n/a	n/a	-999	6	[8, 5, 3]	16	catFR1	0	R1537T
954.609	0.0	970661	STOP	n/a	n/a	n/a	n/a	-999	6	[-999, -999, -999]	n/a	catFR1	0	R1537T
954.609	1.515	970663	DISTRACT_END	n/a	n/a	n/a	n/a	-999	6	[0, 0, 0]	n/a	catFR1	0	R1537T
956.124	2.699	972174	REC_START	n/a	n/a	n/a	n/a	-999	6	[0, 0, 0]	n/a	catFR1	0	R1537T
958.823	0.876	974875	REC_WORD	0.876	n/a	UNDERWEAR	Clothing	1	6	[0, 0, 0]	n/a	catFR1	0	R1537T
959.699	2.084	975751	REC_WORD	2.084	n/a	JACKET	Clothing	2	6	[0, 0, 0]	n/a	catFR1	0	R1537T
961.783	2.668	977834	REC_WORD	2.668	n/a	SKIRT	Clothing	9	6	[0, 0, 0]	n/a	catFR1	0	R1537T
964.451	1.97	980502	REC_WORD	1.97	n/a	TRUCK	Vehicles	12	6	[0, 0, 0]	n/a	catFR1	0	R1537T
966.421	19.929	982472	REC_WORD	19.929	n/a	BUS	Vehicles	5	6	[0, 0, 0]	n/a	catFR1	0	R1537T
986.35	16.306	1002400	REC_END	n/a	n/a	n/a	n/a	-999	6	[0, 0, 0]	n/a	catFR1	0	R1537T
1002.656	10.349	1018707	COUNTDOWN_START	n/a	n/a	n/a	n/a	-999	6	[0, 0, 0]	n/a	catFR1	0	R1537T
1013.005	0.0	1029054	COUNTDOWN_END	n/a	n/a	n/a	n/a	-999	6	[0, 0, 0]	n/a	catFR1	0	R1537T
1013.005	2.301	1029054	ENCODING_START	n/a	n/a	n/a	n/a	-999	7	[0, 0, 0]	n/a	catFR1	0	R1537T
1015.306	1.617	1031358	WORD	n/a	wordpools/wordpool_categorized_EN.txt	BEE	Insects	1	7	[0, 0, 0]	n/a	catFR1	0	R1537T
1016.923	0.966	1032976	WORD_OFF	n/a	n/a	BEE	Insects	1	7	[0, 0, 0]	n/a	catFR1	0	R1537T
1017.889	1.6	1033938	WORD	n/a	wordpools/wordpool_categorized_EN.txt	GNAT	Insects	2	7	[0, 0, 0]	n/a	catFR1	0	R1537T
1019.489	0.8	1035540	WORD_OFF	n/a	n/a	GNAT	Insects	2	7	[0, 0, 0]	n/a	catFR1	0	R1537T
1020.289	1.616	1036341	WORD	n/a	wordpools/wordpool_categorized_EN.txt	CORKSCREW	KitchenTools	3	7	[0, 0, 0]	n/a	catFR1	0	R1537T
1021.905	0.817	1037959	WORD_OFF	n/a	n/a	CORKSCREW	KitchenTools	3	7	[0, 0, 0]	n/a	catFR1	0	R1537T
1022.722	1.617	1038776	WORD	n/a	wordpools/wordpool_categorized_EN.txt	KNIFE	KitchenTools	4	7	[0, 0, 0]	n/a	catFR1	0	R1537T
1024.339	0.917	1040386	WORD_OFF	n/a	n/a	KNIFE	KitchenTools	4	7	[0, 0, 0]	n/a	catFR1	0	R1537T
1025.256	1.6	1041309	WORD	n/a	wordpools/wordpool_categorized_EN.txt	SCREWDRIVER	Tools	5	7	[0, 0, 0]	n/a	catFR1	0	R1537T
1026.856	0.933	1042904	WORD_OFF	n/a	n/a	SCREWDRIVER	Tools	5	7	[0, 0, 0]	n/a	catFR1	0	R1537T
1027.789	1.617	1043842	WORD	n/a	wordpools/wordpool_categorized_EN.txt	SAW	Tools	6	7	[0, 0, 0]	n/a	catFR1	0	R1537T
1029.406	0.916	1045453	WORD_OFF	n/a	n/a	SAW	Tools	6	7	[0, 0, 0]	n/a	catFR1	0	R1537T
1030.322	1.617	1046368	WORD	n/a	wordpools/wordpool_categorized_EN.txt	BUTTERFLY	Insects	7	7	[0, 0, 0]	n/a	catFR1	0	R1537T
1031.939	0.949	1047986	WORD_OFF	n/a	n/a	BUTTERFLY	Insects	7	7	[0, 0, 0]	n/a	catFR1	0	R1537T
1032.888	1.6	1048940	WORD	n/a	wordpools/wordpool_categorized_EN.txt	ROACH	Insects	8	7	[0, 0, 0]	n/a	catFR1	0	R1537T
1034.488	0.95	1050535	WORD_OFF	n/a	n/a	ROACH	Insects	8	7	[0, 0, 0]	n/a	catFR1	0	R1537T
1035.438	1.616	1051488	WORD	n/a	wordpools/wordpool_categorized_EN.txt	CROWBAR	Tools	9	7	[0, 0, 0]	n/a	catFR1	0	R1537T
1037.054	0.834	1053106	WORD_OFF	n/a	n/a	CROWBAR	Tools	9	7	[0, 0, 0]	n/a	catFR1	0	R1537T
1037.888	1.601	1053938	WORD	n/a	wordpools/wordpool_categorized_EN.txt	PLIERS	Tools	10	7	[0, 0, 0]	n/a	catFR1	0	R1537T
1039.489	0.983	1055540	WORD_OFF	n/a	n/a	PLIERS	Tools	10	7	[0, 0, 0]	n/a	catFR1	0	R1537T
1040.472	1.6	1056525	WORD	n/a	wordpools/wordpool_categorized_EN.txt	TONGS	KitchenTools	11	7	[0, 0, 0]	n/a	catFR1	0	R1537T
1042.072	0.95	1058120	WORD_OFF	n/a	n/a	TONGS	KitchenTools	11	7	[0, 0, 0]	n/a	catFR1	0	R1537T
1043.022	1.6	1059073	WORD	n/a	wordpools/wordpool_categorized_EN.txt	SPATULA	KitchenTools	12	7	[0, 0, 0]	n/a	catFR1	0	R1537T
1044.622	0.0	1060668	WORD_OFF	n/a	n/a	SPATULA	KitchenTools	12	7	[0, 0, 0]	n/a	catFR1	0	R1537T
1044.622	0.002	1060671	PROB	0.002	n/a	n/a	n/a	-999	7	[1, 7, 3]	11	catFR1	0	R1537T
1044.624	0.0	1060673	START	n/a	n/a	n/a	n/a	-999	7	[-999, -999, -999]	n/a	catFR1	0	R1537T
1044.624	0.0	1060676	ENCODING_END	n/a	n/a	n/a	n/a	-999	7	[0, 0, 0]	n/a	catFR1	0	R1537T
1044.624	9.748	1060676	DISTRACT_START	n/a	n/a	n/a	n/a	-999	7	[0, 0, 0]	n/a	catFR1	0	R1537T
1054.372	7.367	1070421	PROB	7.367	n/a	n/a	n/a	-999	7	[8, 5, 8]	21	catFR1	0	R1537T
1061.739	5.631	1077788	PROB	5.631	n/a	n/a	n/a	-999	7	[5, 7, 3]	15	catFR1	0	R1537T
1067.37	0.0	1083419	STOP	n/a	n/a	n/a	n/a	-999	7	[-999, -999, -999]	n/a	catFR1	0	R1537T
1067.37	1.767	1083423	DISTRACT_END	n/a	n/a	n/a	n/a	-999	7	[0, 0, 0]	n/a	catFR1	0	R1537T
1069.137	1.32	1085186	REC_START	n/a	n/a	n/a	n/a	-999	7	[0, 0, 0]	n/a	catFR1	0	R1537T
1070.457	2.488	1086506	REC_WORD_VV	2.488	n/a	<>	n/a	-999	7	[0, 0, 0]	n/a	catFR1	0	R1537T
1072.945	4.205	1088994	REC_WORD	4.205	n/a	CORKSCREW	KitchenTools	3	7	[0, 0, 0]	n/a	catFR1	0	R1537T
1077.15	22.216	1093198	REC_WORD_VV	22.216	n/a	<>	n/a	-999	7	[0, 0, 0]	n/a	catFR1	0	R1537T
1099.366	10.804	1115411	REC_END	n/a	n/a	n/a	n/a	-999	7	[0, 0, 0]	n/a	catFR1	0	R1537T
1110.17	10.349	1126217	COUNTDOWN_START	n/a	n/a	n/a	n/a	-999	7	[0, 0, 0]	n/a	catFR1	0	R1537T
1120.519	0.0	1136564	COUNTDOWN_END	n/a	n/a	n/a	n/a	-999	7	[0, 0, 0]	n/a	catFR1	0	R1537T
1120.519	2.05	1136572	ENCODING_START	n/a	n/a	n/a	n/a	-999	8	[0, 0, 0]	n/a	catFR1	0	R1537T
1122.569	1.616	1138617	WORD	n/a	wordpools/wordpool_categorized_EN.txt	CEILING	Building	1	8	[0, 0, 0]	n/a	catFR1	0	R1537T
1124.185	0.784	1140234	WORD_OFF	n/a	n/a	CEILING	Building	1	8	[0, 0, 0]	n/a	catFR1	0	R1537T
1124.969	1.617	1141013	WORD	n/a	wordpools/wordpool_categorized_EN.txt	WINDOW	Building	2	8	[0, 0, 0]	n/a	catFR1	0	R1537T
1126.586	0.934	1142630	WORD_OFF	n/a	n/a	WINDOW	Building	2	8	[0, 0, 0]	n/a	catFR1	0	R1537T
1127.52	1.6	1143569	WORD	n/a	wordpools/wordpool_categorized_EN.txt	FINGERS	BodyParts	3	8	[0, 0, 0]	n/a	catFR1	0	R1537T
1129.12	0.916	1145164	WORD_OFF	n/a	n/a	FINGERS	BodyParts	3	8	[0, 0, 0]	n/a	catFR1	0	R1537T
1130.036	1.6	1146087	WORD	n/a	wordpools/wordpool_categorized_EN.txt	TOE	BodyParts	4	8	[0, 0, 0]	n/a	catFR1	0	R1537T
1131.636	0.817	1147682	WORD_OFF	n/a	n/a	TOE	BodyParts	4	8	[0, 0, 0]	n/a	catFR1	0	R1537T
1132.453	1.616	1148498	WORD	n/a	wordpools/wordpool_categorized_EN.txt	SEAGULL	Birds	5	8	[0, 0, 0]	n/a	catFR1	0	R1537T
1134.069	0.767	1150116	WORD_OFF	n/a	n/a	SEAGULL	Birds	5	8	[0, 0, 0]	n/a	catFR1	0	R1537T
1134.836	1.617	1150887	WORD	n/a	wordpools/wordpool_categorized_EN.txt	CROW	Birds	6	8	[0, 0, 0]	n/a	catFR1	0	R1537T
1136.453	0.817	1152497	WORD_OFF	n/a	n/a	CROW	Birds	6	8	[0, 0, 0]	n/a	catFR1	0	R1537T
1137.27	1.6	1153313	WORD	n/a	wordpools/wordpool_categorized_EN.txt	FLOOR	Building	7	8	[0, 0, 0]	n/a	catFR1	0	R1537T
1138.87	0.85	1154916	WORD_OFF	n/a	n/a	FLOOR	Building	7	8	[0, 0, 0]	n/a	catFR1	0	R1537T
1139.72	1.6	1155770	WORD	n/a	wordpools/wordpool_categorized_EN.txt	DOOR	Building	8	8	[0, 0, 0]	n/a	catFR1	0	R1537T
1141.32	0.998	1157365	WORD_OFF	n/a	n/a	DOOR	Building	8	8	[0, 0, 0]	n/a	catFR1	0	R1537T
1142.318	1.601	1158365	WORD	n/a	wordpools/wordpool_categorized_EN.txt	BLUEBIRD	Birds	9	8	[0, 0, 0]	n/a	catFR1	0	R1537T
1143.919	0.934	1159967	WORD_OFF	n/a	n/a	BLUEBIRD	Birds	9	8	[0, 0, 0]	n/a	catFR1	0	R1537T
1144.853	1.6	1160898	WORD	n/a	wordpools/wordpool_categorized_EN.txt	DOVE	Birds	10	8	[0, 0, 0]	n/a	catFR1	0	R1537T
1146.453	0.933	1162501	WORD_OFF	n/a	n/a	DOVE	Birds	10	8	[0, 0, 0]	n/a	catFR1	0	R1537T
1147.386	1.617	1163432	WORD	n/a	wordpools/wordpool_categorized_EN.txt	NOSE	BodyParts	11	8	[0, 0, 0]	n/a	catFR1	0	R1537T
1149.003	0.966	1165050	WORD_OFF	n/a	n/a	NOSE	BodyParts	11	8	[0, 0, 0]	n/a	catFR1	0	R1537T
1149.969	1.6	1166019	WORD	n/a	wordpools/wordpool_categorized_EN.txt	EYE	BodyParts	12	8	[0, 0, 0]	n/a	catFR1	0	R1537T
1151.569	0.001	1167613	WORD_OFF	n/a	n/a	EYE	BodyParts	12	8	[0, 0, 0]	n/a	catFR1	0	R1537T
1151.57	0.001	1167616	PROB	0.001	n/a	n/a	n/a	-999	8	[2, 6, 6]	14	catFR1	0	R1537T
1151.571	0.0	1167617	START	n/a	n/a	n/a	n/a	-999	8	[-999, -999, -999]	n/a	catFR1	0	R1537T
1151.571	0.0	1167621	ENCODING_END	n/a	n/a	n/a	n/a	-999	8	[0, 0, 0]	n/a	catFR1	0	R1537T
1151.571	6.566	1167621	DISTRACT_START	n/a	n/a	n/a	n/a	-999	8	[0, 0, 0]	n/a	catFR1	0	R1537T
1158.137	4.383	1174183	PROB	4.383	n/a	n/a	n/a	-999	8	[7, 5, 3]	15	catFR1	0	R1537T
1162.52	3.366	1178566	PROB	3.366	n/a	n/a	n/a	-999	8	[1, 1, 3]	5	catFR1	0	R1537T
1165.886	5.249	1181932	PROB	5.249	n/a	n/a	n/a	-999	8	[6, 3, 6]	15	catFR1	0	R1537T
1171.135	7.184	1187181	PROB	7.184	n/a	n/a	n/a	-999	8	[5, 1, 7]	13	catFR1	0	R1537T
1178.319	0.0	1194365	STOP	n/a	n/a	n/a	n/a	-999	8	[-999, -999, -999]	n/a	catFR1	0	R1537T
1178.319	1.6	1194367	DISTRACT_END	n/a	n/a	n/a	n/a	-999	8	[0, 0, 0]	n/a	catFR1	0	R1537T
1179.919	1.584	1195962	REC_START	n/a	n/a	n/a	n/a	-999	8	[0, 0, 0]	n/a	catFR1	0	R1537T
1181.503	1.985	1197549	REC_WORD_VV	1.985	n/a	<>	n/a	-999	8	[0, 0, 0]	n/a	catFR1	0	R1537T
1183.488	0.916	1199534	REC_WORD	0.916	n/a	CEILING	Building	1	8	[0, 0, 0]	n/a	catFR1	0	R1537T
1184.404	0.628	1200450	REC_WORD	0.628	n/a	WINDOW	Building	2	8	[0, 0, 0]	n/a	catFR1	0	R1537T
1185.032	9.408	1201078	REC_WORD	9.408	n/a	FLOOR	Building	7	8	[0, 0, 0]	n/a	catFR1	0	R1537T
1194.44	15.717	1210485	REC_WORD	15.717	n/a	DOOR	Building	8	8	[0, 0, 0]	n/a	catFR1	0	R1537T
1210.157	12.827	1226202	REC_END	n/a	n/a	n/a	n/a	-999	8	[0, 0, 0]	n/a	catFR1	0	R1537T
1222.984	10.348	1239030	COUNTDOWN_START	n/a	n/a	n/a	n/a	-999	8	[0, 0, 0]	n/a	catFR1	0	R1537T
1233.332	0.0	1249377	COUNTDOWN_END	n/a	n/a	n/a	n/a	-999	8	[0, 0, 0]	n/a	catFR1	0	R1537T
1233.332	1.919	1249385	ENCODING_START	n/a	n/a	n/a	n/a	-999	9	[0, 0, 0]	n/a	catFR1	0	R1537T
1235.251	1.616	1251292	WORD	n/a	wordpools/wordpool_categorized_EN.txt	VIOLET	Flowers	1	9	[0, 0, 0]	n/a	catFR1	0	R1537T
1236.867	0.866	1252910	WORD_OFF	n/a	n/a	VIOLET	Flowers	1	9	[0, 0, 0]	n/a	catFR1	0	R1537T
1237.733	1.6	1253780	WORD	n/a	wordpools/wordpool_categorized_EN.txt	LILY	Flowers	2	9	[0, 0, 0]	n/a	catFR1	0	R1537T
1239.333	0.918	1255375	WORD_OFF	n/a	n/a	LILY	Flowers	2	9	[0, 0, 0]	n/a	catFR1	0	R1537T
1240.251	1.616	1256298	WORD	n/a	wordpools/wordpool_categorized_EN.txt	CRICKET	Insects	3	9	[0, 0, 0]	n/a	catFR1	0	R1537T
1241.867	1.0	1257916	WORD_OFF	n/a	n/a	CRICKET	Insects	3	9	[0, 0, 0]	n/a	catFR1	0	R1537T
1242.867	1.617	1258908	WORD	n/a	wordpools/wordpool_categorized_EN.txt	LADYBUG	Insects	4	9	[0, 0, 0]	n/a	catFR1	0	R1537T
1244.484	0.799	1260526	WORD_OFF	n/a	n/a	LADYBUG	Insects	4	9	[0, 0, 0]	n/a	catFR1	0	R1537T
1245.283	1.601	1261327	WORD	n/a	wordpools/wordpool_categorized_EN.txt	DOLPHIN	OceanAnimals	5	9	[0, 0, 0]	n/a	catFR1	0	R1537T
1246.884	0.883	1262929	WORD_OFF	n/a	n/a	DOLPHIN	OceanAnimals	5	9	[0, 0, 0]	n/a	catFR1	0	R1537T
1247.767	1.6	1263814	WORD	n/a	wordpools/wordpool_categorized_EN.txt	PLANKTON	OceanAnimals	6	9	[0, 0, 0]	n/a	catFR1	0	R1537T
1249.367	0.783	1265409	WORD_OFF	n/a	n/a	PLANKTON	OceanAnimals	6	9	[0, 0, 0]	n/a	catFR1	0	R1537T
1250.15	1.617	1266195	WORD	n/a	wordpools/wordpool_categorized_EN.txt	DAISY	Flowers	7	9	[0, 0, 0]	n/a	catFR1	0	R1537T
1251.767	0.933	1267813	WORD_OFF	n/a	n/a	DAISY	Flowers	7	9	[0, 0, 0]	n/a	catFR1	0	R1537T
1252.7	1.619	1268744	WORD	n/a	wordpools/wordpool_categorized_EN.txt	DAFFODIL	Flowers	8	9	[0, 0, 0]	n/a	catFR1	0	R1537T
1254.319	0.896	1270362	WORD_OFF	n/a	n/a	DAFFODIL	Flowers	8	9	[0, 0, 0]	n/a	catFR1	0	R1537T
1255.215	1.602	1271262	WORD	n/a	wordpools/wordpool_categorized_EN.txt	MOTH	Insects	9	9	[0, 0, 0]	n/a	catFR1	0	R1537T
1256.817	0.816	1272857	WORD_OFF	n/a	n/a	MOTH	Insects	9	9	[0, 0, 0]	n/a	catFR1	0	R1537T
1257.633	1.617	1273681	WORD	n/a	wordpools/wordpool_categorized_EN.txt	MOSQUITO	Insects	10	9	[0, 0, 0]	n/a	catFR1	0	R1537T
1259.25	0.933	1275291	WORD_OFF	n/a	n/a	MOSQUITO	Insects	10	9	[0, 0, 0]	n/a	catFR1	0	R1537T
1260.183	1.6	1276230	WORD	n/a	wordpools/wordpool_categorized_EN.txt	SQUID	OceanAnimals	11	9	[0, 0, 0]	n/a	catFR1	0	R1537T
1261.783	0.967	1277825	WORD_OFF	n/a	n/a	SQUID	OceanAnimals	11	9	[0, 0, 0]	n/a	catFR1	0	R1537T
1262.75	1.616	1278794	WORD	n/a	wordpools/wordpool_categorized_EN.txt	LOBSTER	OceanAnimals	12	9	[0, 0, 0]	n/a	catFR1	0	R1537T
1264.366	0.002	1280411	WORD_OFF	n/a	n/a	LOBSTER	OceanAnimals	12	9	[0, 0, 0]	n/a	catFR1	0	R1537T
1264.368	0.0	1280411	ENCODING_END	n/a	n/a	n/a	n/a	-999	9	[0, 0, 0]	n/a	catFR1	0	R1537T
1264.368	0.0	1280411	DISTRACT_START	n/a	n/a	n/a	n/a	-999	9	[0, 0, 0]	n/a	catFR1	0	R1537T
1264.367	0.001	1280411	PROB	0.001	n/a	n/a	n/a	-999	9	[5, 1, 8]	14	catFR1	0	R1537T
1264.368	11.283	1280412	START	n/a	n/a	n/a	n/a	-999	9	[-999, -999, -999]	n/a	catFR1	0	R1537T
1275.651	5.465	1291694	PROB	5.465	n/a	n/a	n/a	-999	9	[6, 6, 8]	20	catFR1	0	R1537T
1281.116	5.899	1297159	PROB	5.899	n/a	n/a	n/a	-999	9	[1, 3, 5]	9	catFR1	0	R1537T
1287.015	0.0	1303058	STOP	n/a	n/a	n/a	n/a	-999	9	[-999, -999, -999]	n/a	catFR1	0	R1537T
1287.015	1.634	1303060	DISTRACT_END	n/a	n/a	n/a	n/a	-999	9	[0, 0, 0]	n/a	catFR1	0	R1537T
1288.649	1.54	1304693	REC_START	n/a	n/a	n/a	n/a	-999	9	[0, 0, 0]	n/a	catFR1	0	R1537T
1290.189	2.186	1306232	REC_WORD_VV	2.186	n/a	<>	n/a	-999	9	[0, 0, 0]	n/a	catFR1	0	R1537T
1292.375	1.197	1308418	REC_WORD	1.197	n/a	SQUID	OceanAnimals	11	9	[0, 0, 0]	n/a	catFR1	0	R1537T
1293.572	0.945	1309615	REC_WORD	0.945	n/a	PLANKTON	OceanAnimals	6	9	[0, 0, 0]	n/a	catFR1	0	R1537T
1294.517	24.374	1310560	REC_WORD	24.374	n/a	LILY	Flowers	2	9	[0, 0, 0]	n/a	catFR1	0	R1537T
1318.891	4.674	1334933	REC_END	n/a	n/a	n/a	n/a	-999	9	[0, 0, 0]	n/a	catFR1	0	R1537T
1323.565	10.349	1339611	COUNTDOWN_START	n/a	n/a	n/a	n/a	-999	9	[0, 0, 0]	n/a	catFR1	0	R1537T
1333.914	0.0	1349958	COUNTDOWN_END	n/a	n/a	n/a	n/a	-999	9	[0, 0, 0]	n/a	catFR1	0	R1537T
1333.914	2.167	1349958	ENCODING_START	n/a	n/a	n/a	n/a	-999	10	[0, 0, 0]	n/a	catFR1	0	R1537T
1336.081	1.617	1352125	WORD	n/a	wordpools/wordpool_categorized_EN.txt	TABLET	Electronics	1	10	[0, 0, 0]	n/a	catFR1	0	R1537T
1337.698	1.0	1353743	WORD_OFF	n/a	n/a	TABLET	Electronics	1	10	[0, 0, 0]	n/a	catFR1	0	R1537T
1338.698	1.615	1354743	WORD	n/a	wordpools/wordpool_categorized_EN.txt	STEREO	Electronics	2	10	[0, 0, 0]	n/a	catFR1	0	R1537T
1340.313	0.918	1356353	WORD_OFF	n/a	n/a	STEREO	Electronics	2	10	[0, 0, 0]	n/a	catFR1	0	R1537T
1341.231	1.6	1357276	WORD	n/a	wordpools/wordpool_categorized_EN.txt	TULIP	Flowers	3	10	[0, 0, 0]	n/a	catFR1	0	R1537T
1342.831	0.834	1358871	WORD_OFF	n/a	n/a	TULIP	Flowers	3	10	[0, 0, 0]	n/a	catFR1	0	R1537T
1343.665	1.617	1359710	WORD	n/a	wordpools/wordpool_categorized_EN.txt	ORCHID	Flowers	4	10	[0, 0, 0]	n/a	catFR1	0	R1537T
1345.282	0.999	1361320	WORD_OFF	n/a	n/a	ORCHID	Flowers	4	10	[0, 0, 0]	n/a	catFR1	0	R1537T
1346.281	1.6	1362320	WORD	n/a	wordpools/wordpool_categorized_EN.txt	GLUE	OfficeSupplies	5	10	[0, 0, 0]	n/a	catFR1	0	R1537T
1347.881	0.9	1363923	WORD_OFF	n/a	n/a	GLUE	OfficeSupplies	5	10	[0, 0, 0]	n/a	catFR1	0	R1537T
1348.781	1.617	1364823	WORD	n/a	wordpools/wordpool_categorized_EN.txt	STAPLER	OfficeSupplies	6	10	[0, 0, 0]	n/a	catFR1	0	R1537T
1350.398	0.85	1366441	WORD_OFF	n/a	n/a	STAPLER	OfficeSupplies	6	10	[0, 0, 0]	n/a	catFR1	0	R1537T
1351.248	1.615	1367288	WORD	n/a	wordpools/wordpool_categorized_EN.txt	MARIGOLD	Flowers	7	10	[0, 0, 0]	n/a	catFR1	0	R1537T
1352.863	0.768	1368905	WORD_OFF	n/a	n/a	MARIGOLD	Flowers	7	10	[0, 0, 0]	n/a	catFR1	0	R1537T
1353.631	1.6	1369676	WORD	n/a	wordpools/wordpool_categorized_EN.txt	SUNFLOWER	Flowers	8	10	[0, 0, 0]	n/a	catFR1	0	R1537T
1355.231	0.967	1371271	WORD_OFF	n/a	n/a	SUNFLOWER	Flowers	8	10	[0, 0, 0]	n/a	catFR1	0	R1537T
1356.198	1.6	1372240	WORD	n/a	wordpools/wordpool_categorized_EN.txt	PENCIL	OfficeSupplies	9	10	[0, 0, 0]	n/a	catFR1	0	R1537T
1357.798	0.766	1373843	WORD_OFF	n/a	n/a	PENCIL	OfficeSupplies	9	10	[0, 0, 0]	n/a	catFR1	0	R1537T
1358.564	1.6	1374606	WORD	n/a	wordpools/wordpool_categorized_EN.txt	FOLDER	OfficeSupplies	10	10	[0, 0, 0]	n/a	catFR1	0	R1537T
1360.164	0.834	1376208	WORD_OFF	n/a	n/a	FOLDER	OfficeSupplies	10	10	[0, 0, 0]	n/a	catFR1	0	R1537T
1360.998	1.616	1377040	WORD	n/a	wordpools/wordpool_categorized_EN.txt	RADIO	Electronics	11	10	[0, 0, 0]	n/a	catFR1	0	R1537T
1362.614	0.9	1378658	WORD_OFF	n/a	n/a	RADIO	Electronics	11	10	[0, 0, 0]	n/a	catFR1	0	R1537T
1363.514	1.617	1379558	WORD	n/a	wordpools/wordpool_categorized_EN.txt	HEADPHONES	Electronics	12	10	[0, 0, 0]	n/a	catFR1	0	R1537T
1365.131	0.002	1381172	PROB	0.002	n/a	n/a	n/a	-999	10	[1, 7, 8]	16	catFR1	0	R1537T
1365.133	0.0	1381174	START	n/a	n/a	n/a	n/a	-999	10	[-999, -999, -999]	n/a	catFR1	0	R1537T
1365.131	0.002	1381176	WORD_OFF	n/a	n/a	HEADPHONES	Electronics	12	10	[0, 0, 0]	n/a	catFR1	0	R1537T
1365.133	0.0	1381176	ENCODING_END	n/a	n/a	n/a	n/a	-999	10	[0, 0, 0]	n/a	catFR1	0	R1537T
1365.133	7.581	1381176	DISTRACT_START	n/a	n/a	n/a	n/a	-999	10	[0, 0, 0]	n/a	catFR1	0	R1537T
1372.714	4.917	1388755	PROB	4.917	n/a	n/a	n/a	-999	10	[6, 3, 2]	11	catFR1	0	R1537T
1377.631	3.6	1393672	PROB	3.6	n/a	n/a	n/a	-999	10	[3, 7, 2]	12	catFR1	0	R1537T
1381.231	3.499	1397271	PROB	3.499	n/a	n/a	n/a	-999	10	[6, 3, 3]	12	catFR1	0	R1537T
1384.73	4.134	1400770	PROB	4.134	n/a	n/a	n/a	-999	10	[8, 4, 4]	16	catFR1	0	R1537T
1388.864	0.0	1404904	STOP	n/a	n/a	n/a	n/a	-999	10	[-999, -999, -999]	n/a	catFR1	0	R1537T
1388.864	1.766	1404907	DISTRACT_END	n/a	n/a	n/a	n/a	-999	10	[0, 0, 0]	n/a	catFR1	0	R1537T
1390.63	4.581	1406670	REC_START	n/a	n/a	n/a	n/a	-999	10	[0, 0, 0]	n/a	catFR1	0	R1537T
1395.211	1.0	1411251	REC_WORD_VV	1.0	n/a	<>	n/a	-999	10	[0, 0, 0]	n/a	catFR1	0	R1537T
1396.211	24.665	1412251	REC_WORD_VV	24.665	n/a	<>	n/a	-999	10	[0, 0, 0]	n/a	catFR1	0	R1537T
1420.876	2.204	1436918	REC_END	n/a	n/a	n/a	n/a	-999	10	[0, 0, 0]	n/a	catFR1	0	R1537T
1423.08	10.348	1439124	COUNTDOWN_START	n/a	n/a	n/a	n/a	-999	10	[0, 0, 0]	n/a	catFR1	0	R1537T
1433.428	0.001	1449471	COUNTDOWN_END	n/a	n/a	n/a	n/a	-999	10	[0, 0, 0]	n/a	catFR1	0	R1537T
1433.429	2.049	1449471	ENCODING_START	n/a	n/a	n/a	n/a	-999	11	[0, 0, 0]	n/a	catFR1	0	R1537T
1435.478	1.601	1451516	WORD	n/a	wordpools/wordpool_categorized_EN.txt	WIND	Weather	1	11	[0, 0, 0]	n/a	catFR1	0	R1537T
1437.079	1.0	1453119	WORD_OFF	n/a	n/a	WIND	Weather	1	11	[0, 0, 0]	n/a	catFR1	0	R1537T
1438.079	1.617	1454118	WORD	n/a	wordpools/wordpool_categorized_EN.txt	SNOW	Weather	2	11	[0, 0, 0]	n/a	catFR1	0	R1537T
1439.696	0.866	1455736	WORD_OFF	n/a	n/a	SNOW	Weather	2	11	[0, 0, 0]	n/a	catFR1	0	R1537T
1440.562	1.601	1456598	WORD	n/a	wordpools/wordpool_categorized_EN.txt	EAR	BodyParts	3	11	[0, 0, 0]	n/a	catFR1	0	R1537T
1442.163	0.799	1458201	WORD_OFF	n/a	n/a	EAR	BodyParts	3	11	[0, 0, 0]	n/a	catFR1	0	R1537T
1442.962	1.6	1459002	WORD	n/a	wordpools/wordpool_categorized_EN.txt	HEAD	BodyParts	4	11	[0, 0, 0]	n/a	catFR1	0	R1537T
1444.562	0.817	1460604	WORD_OFF	n/a	n/a	HEAD	BodyParts	4	11	[0, 0, 0]	n/a	catFR1	0	R1537T
1445.379	1.6	1461421	WORD	n/a	wordpools/wordpool_categorized_EN.txt	ROOM	Building	5	11	[0, 0, 0]	n/a	catFR1	0	R1537T
1446.979	0.85	1463016	WORD_OFF	n/a	n/a	ROOM	Building	5	11	[0, 0, 0]	n/a	catFR1	0	R1537T
1447.829	1.616	1463870	WORD	n/a	wordpools/wordpool_categorized_EN.txt	FOUNDATION	Building	6	11	[0, 0, 0]	n/a	catFR1	0	R1537T
1449.445	0.766	1465480	WORD_OFF	n/a	n/a	FOUNDATION	Building	6	11	[0, 0, 0]	n/a	catFR1	0	R1537T
1450.211	1.601	1466251	WORD	n/a	wordpools/wordpool_categorized_EN.txt	RAIN	Weather	7	11	[0, 0, 0]	n/a	catFR1	0	R1537T
1451.812	0.834	1467854	WORD_OFF	n/a	n/a	RAIN	Weather	7	11	[0, 0, 0]	n/a	catFR1	0	R1537T
1452.646	1.616	1468685	WORD	n/a	wordpools/wordpool_categorized_EN.txt	LIGHTNING	Weather	8	11	[0, 0, 0]	n/a	catFR1	0	R1537T
1454.262	0.884	1470303	WORD_OFF	n/a	n/a	LIGHTNING	Weather	8	11	[0, 0, 0]	n/a	catFR1	0	R1537T
1455.146	1.616	1471188	WORD	n/a	wordpools/wordpool_categorized_EN.txt	LEG	BodyParts	9	11	[0, 0, 0]	n/a	catFR1	0	R1537T
1456.762	0.949	1472798	WORD_OFF	n/a	n/a	LEG	BodyParts	9	11	[0, 0, 0]	n/a	catFR1	0	R1537T
1457.711	1.601	1473752	WORD	n/a	wordpools/wordpool_categorized_EN.txt	ELBOW	BodyParts	10	11	[0, 0, 0]	n/a	catFR1	0	R1537T
1459.312	0.95	1475347	WORD_OFF	n/a	n/a	ELBOW	BodyParts	10	11	[0, 0, 0]	n/a	catFR1	0	R1537T
1460.262	1.617	1476301	WORD	n/a	wordpools/wordpool_categorized_EN.txt	BATHROOM	Building	11	11	[0, 0, 0]	n/a	catFR1	0	R1537T
1461.879	0.933	1477919	WORD_OFF	n/a	n/a	BATHROOM	Building	11	11	[0, 0, 0]	n/a	catFR1	0	R1537T
1462.812	1.616	1478849	WORD	n/a	wordpools/wordpool_categorized_EN.txt	ROOF	Building	12	11	[0, 0, 0]	n/a	catFR1	0	R1537T
1464.428	0.002	1480467	WORD_OFF	n/a	n/a	ROOF	Building	12	11	[0, 0, 0]	n/a	catFR1	0	R1537T
1464.43	0.0	1480467	ENCODING_END	n/a	n/a	n/a	n/a	-999	11	[0, 0, 0]	n/a	catFR1	0	R1537T
1464.43	0.0	1480467	DISTRACT_START	n/a	n/a	n/a	n/a	-999	11	[0, 0, 0]	n/a	catFR1	0	R1537T
1464.429	0.001	1480467	PROB	0.001	n/a	n/a	n/a	-999	11	[3, 6, 1]	10	catFR1	0	R1537T
1464.43	16.565	1480468	START	n/a	n/a	n/a	n/a	-999	11	[-999, -999, -999]	n/a	catFR1	0	R1537T
1480.995	5.232	1497033	PROB	5.232	n/a	n/a	n/a	-999	11	[5, 5, 7]	13	catFR1	0	R1537T
1486.227	0.0	1502265	STOP	n/a	n/a	n/a	n/a	-999	11	[-999, -999, -999]	n/a	catFR1	0	R1537T
1486.227	1.9	1502268	DISTRACT_END	n/a	n/a	n/a	n/a	-999	11	[0, 0, 0]	n/a	catFR1	0	R1537T
1488.127	9.849	1504168	REC_START	n/a	n/a	n/a	n/a	-999	11	[0, 0, 0]	n/a	catFR1	0	R1537T
1497.976	20.371	1514013	REC_WORD_VV	20.371	n/a	<>	n/a	-999	11	[0, 0, 0]	n/a	catFR1	0	R1537T
1518.347	112.16	1534386	REC_END	n/a	n/a	n/a	n/a	-999	11	[0, 0, 0]	n/a	catFR1	0	R1537T
1630.507	10.35	1646543	COUNTDOWN_START	n/a	n/a	n/a	n/a	-999	11	[0, 0, 0]	n/a	catFR1	0	R1537T
1640.857	0.0	1656890	COUNTDOWN_END	n/a	n/a	n/a	n/a	-999	11	[0, 0, 0]	n/a	catFR1	0	R1537T
1640.857	2.184	1656890	ENCODING_START	n/a	n/a	n/a	n/a	-999	12	[0, 0, 0]	n/a	catFR1	0	R1537T
1643.041	1.616	1659073	WORD	n/a	wordpools/wordpool_categorized_EN.txt	HURRICANE	Weather	1	12	[0, 0, 0]	n/a	catFR1	0	R1537T
1644.657	0.767	1660691	WORD_OFF	n/a	n/a	HURRICANE	Weather	1	12	[0, 0, 0]	n/a	catFR1	0	R1537T
1645.424	1.6	1661454	WORD	n/a	wordpools/wordpool_categorized_EN.txt	THUNDERSTORM	Weather	2	12	[0, 0, 0]	n/a	catFR1	0	R1537T
1647.024	0.766	1663056	WORD_OFF	n/a	n/a	THUNDERSTORM	Weather	2	12	[0, 0, 0]	n/a	catFR1	0	R1537T
1647.79	1.601	1663827	WORD	n/a	wordpools/wordpool_categorized_EN.txt	MOTORCYCLE	Vehicles	3	12	[0, 0, 0]	n/a	catFR1	0	R1537T
1649.391	0.933	1665422	WORD_OFF	n/a	n/a	MOTORCYCLE	Vehicles	3	12	[0, 0, 0]	n/a	catFR1	0	R1537T
1650.324	1.6	1666360	WORD	n/a	wordpools/wordpool_categorized_EN.txt	SCOOTER	Vehicles	4	12	[0, 0, 0]	n/a	catFR1	0	R1537T
1651.924	0.967	1667955	WORD_OFF	n/a	n/a	SCOOTER	Vehicles	4	12	[0, 0, 0]	n/a	catFR1	0	R1537T
1652.891	1.599	1668924	WORD	n/a	wordpools/wordpool_categorized_EN.txt	WALL	Building	5	12	[0, 0, 0]	n/a	catFR1	0	R1537T
1654.49	0.9	1670527	WORD_OFF	n/a	n/a	WALL	Building	5	12	[0, 0, 0]	n/a	catFR1	0	R1537T
1655.39	1.617	1671427	WORD	n/a	wordpools/wordpool_categorized_EN.txt	HALLWAY	Building	6	12	[0, 0, 0]	n/a	catFR1	0	R1537T
1657.007	0.967	1673037	WORD_OFF	n/a	n/a	HALLWAY	Building	6	12	[0, 0, 0]	n/a	catFR1	0	R1537T
1657.974	1.616	1674006	WORD	n/a	wordpools/wordpool_categorized_EN.txt	PLANE	Vehicles	7	12	[0, 0, 0]	n/a	catFR1	0	R1537T
1659.59	0.966	1675624	WORD_OFF	n/a	n/a	PLANE	Vehicles	7	12	[0, 0, 0]	n/a	catFR1	0	R1537T
1660.556	1.601	1676593	WORD	n/a	wordpools/wordpool_categorized_EN.txt	MOPED	Vehicles	8	12	[0, 0, 0]	n/a	catFR1	0	R1537T
1662.157	0.767	1678188	WORD_OFF	n/a	n/a	MOPED	Vehicles	8	12	[0, 0, 0]	n/a	catFR1	0	R1537T
1662.924	1.616	1678959	WORD	n/a	wordpools/wordpool_categorized_EN.txt	STAIRS	Building	9	12	[0, 0, 0]	n/a	catFR1	0	R1537T
1664.54	0.933	1680569	WORD_OFF	n/a	n/a	STAIRS	Building	9	12	[0, 0, 0]	n/a	catFR1	0	R1537T
1665.473	1.6	1681507	WORD	n/a	wordpools/wordpool_categorized_EN.txt	ATTIC	Building	10	12	[0, 0, 0]	n/a	catFR1	0	R1537T
1667.073	0.983	1683102	WORD_OFF	n/a	n/a	ATTIC	Building	10	12	[0, 0, 0]	n/a	catFR1	0	R1537T
1668.056	1.6	1684087	WORD	n/a	wordpools/wordpool_categorized_EN.txt	FOG	Weather	11	12	[0, 0, 0]	n/a	catFR1	0	R1537T
1669.656	0.783	1685689	WORD_OFF	n/a	n/a	FOG	Weather	11	12	[0, 0, 0]	n/a	catFR1	0	R1537T
1670.439	1.601	1686475	WORD	n/a	wordpools/wordpool_categorized_EN.txt	DRIZZLE	Weather	12	12	[0, 0, 0]	n/a	catFR1	0	R1537T
1672.04	0.0	1688070	WORD_OFF	n/a	n/a	DRIZZLE	Weather	12	12	[0, 0, 0]	n/a	catFR1	0	R1537T
1672.04	0.001	1688073	PROB	0.001	n/a	n/a	n/a	-999	12	[8, 1, 6]	15	catFR1	0	R1537T
1672.041	0.0	1688074	START	n/a	n/a	n/a	n/a	-999	12	[-999, -999, -999]	n/a	catFR1	0	R1537T
1672.041	0.0	1688077	ENCODING_END	n/a	n/a	n/a	n/a	-999	12	[0, 0, 0]	n/a	catFR1	0	R1537T
1672.041	28.865	1688077	DISTRACT_START	n/a	n/a	n/a	n/a	-999	12	[0, 0, 0]	n/a	catFR1	0	R1537T
1700.906	0.0	1716937	DISTRACT_END	n/a	n/a	n/a	n/a	-999	12	[0, 0, 0]	n/a	catFR1	0	R1537T
1700.906	1.517	1716938	STOP	n/a	n/a	n/a	n/a	-999	12	[-999, -999, -999]	n/a	catFR1	0	R1537T
1702.423	3.558	1718456	REC_START	n/a	n/a	n/a	n/a	-999	12	[0, 0, 0]	n/a	catFR1	0	R1537T
1705.981	0.89	1722013	REC_WORD	0.89	n/a	HURRICANE	Weather	1	12	[0, 0, 0]	n/a	catFR1	0	R1537T
1706.871	3.301	1722903	REC_WORD	3.301	n/a	MOTORCYCLE	Vehicles	3	12	[0, 0, 0]	n/a	catFR1	0	R1537T
1710.172	2.503	1726204	REC_WORD	2.503	n/a	STORM	n/a	-999	12	[0, 0, 0]	n/a	catFR1	0	R1537T
1712.675	19.988	1728707	REC_WORD	19.988	n/a	SCOOTER	Vehicles	4	12	[0, 0, 0]	n/a	catFR1	0	R1537T
1732.663	0.0	1748696	REC_END	n/a	n/a	n/a	n/a	-999	12	[0, 0, 0]	n/a	catFR1	0	R1537T
