onset	duration	sample	trial_type	response_time	stim_file	item_name	category	serialpos	list	test	answer	experiment	session	subject
0.0	74.53	106674	INSTRUCT_START	n/a	n/a	n/a	n/a	-999	-999	[0, 0, 0]	n/a	catFR1	1	R1441T
74.53	41.201	181200	INSTRUCT_END	n/a	n/a	n/a	n/a	-999	-999	[0, 0, 0]	n/a	catFR1	1	R1441T
115.731	10.348	222403	COUNTDOWN_START	n/a	n/a	n/a	n/a	-999	-999	[0, 0, 0]	n/a	catFR1	1	R1441T
126.079	0.001	232742	COUNTDOWN_END	n/a	n/a	n/a	n/a	-999	-999	[0, 0, 0]	n/a	catFR1	1	R1441T
126.08	2.018	232742	ENCODING_START	n/a	n/a	n/a	n/a	-999	-1	[0, 0, 0]	n/a	catFR1	1	R1441T
128.098	1.615	234768	WORD	n/a	n/a	FUDGE	Desserts	1	-1	[0, 0, 0]	n/a	catFR1	1	R1441T
129.713	0.9	236375	WORD_OFF	n/a	n/a	FUDGE	Desserts	1	-1	[0, 0, 0]	n/a	catFR1	1	R1441T
130.613	1.6	237283	WORD	n/a	n/a	PASTRY	Desserts	2	-1	[0, 0, 0]	n/a	catFR1	1	R1441T
132.213	0.767	238876	WORD_OFF	n/a	n/a	PASTRY	Desserts	2	-1	[0, 0, 0]	n/a	catFR1	1	R1441T
132.98	1.617	239644	WORD	n/a	n/a	HICKORY	Trees	3	-1	[0, 0, 0]	n/a	catFR1	1	R1441T
134.597	0.916	241265	WORD_OFF	n/a	n/a	HICKORY	Trees	3	-1	[0, 0, 0]	n/a	catFR1	1	R1441T
135.513	1.6	242173	WORD	n/a	n/a	ELM	Trees	4	-1	[0, 0, 0]	n/a	catFR1	1	R1441T
137.113	0.817	243780	WORD_OFF	n/a	n/a	ELM	Trees	4	-1	[0, 0, 0]	n/a	catFR1	1	R1441T
137.93	1.616	244590	WORD	n/a	n/a	COLA	Beverages	5	-1	[0, 0, 0]	n/a	catFR1	1	R1441T
139.546	0.818	246211	WORD_OFF	n/a	n/a	COLA	Beverages	5	-1	[0, 0, 0]	n/a	catFR1	1	R1441T
140.364	1.616	247035	WORD	n/a	n/a	WATER	Beverages	6	-1	[0, 0, 0]	n/a	catFR1	1	R1441T
141.98	0.767	248642	WORD_OFF	n/a	n/a	WATER	Beverages	6	-1	[0, 0, 0]	n/a	catFR1	1	R1441T
142.747	1.616	249410	WORD	n/a	n/a	OAK	Trees	7	-1	[0, 0, 0]	n/a	catFR1	1	R1441T
144.363	0.801	251031	WORD_OFF	n/a	n/a	OAK	Trees	7	-1	[0, 0, 0]	n/a	catFR1	1	R1441T
145.164	1.616	251828	WORD	n/a	n/a	CYPRESS	Trees	8	-1	[0, 0, 0]	n/a	catFR1	1	R1441T
146.78	0.95	253448	WORD_OFF	n/a	n/a	CYPRESS	Trees	8	-1	[0, 0, 0]	n/a	catFR1	1	R1441T
147.73	1.617	254398	WORD	n/a	n/a	CIDER	Beverages	9	-1	[0, 0, 0]	n/a	catFR1	1	R1441T
149.347	0.816	256005	WORD_OFF	n/a	n/a	CIDER	Beverages	9	-1	[0, 0, 0]	n/a	catFR1	1	R1441T
150.163	1.601	256829	WORD	n/a	n/a	TEA	Beverages	10	-1	[0, 0, 0]	n/a	catFR1	1	R1441T
151.764	0.782	258422	WORD_OFF	n/a	n/a	TEA	Beverages	10	-1	[0, 0, 0]	n/a	catFR1	1	R1441T
152.546	1.601	259205	WORD	n/a	n/a	MOUSSE	Desserts	11	-1	[0, 0, 0]	n/a	catFR1	1	R1441T
154.147	0.933	260811	WORD_OFF	n/a	n/a	MOUSSE	Desserts	11	-1	[0, 0, 0]	n/a	catFR1	1	R1441T
155.08	1.602	261748	WORD	n/a	n/a	PUDDING	Desserts	12	-1	[0, 0, 0]	n/a	catFR1	1	R1441T
156.682	0.001	263340	WORD_OFF	n/a	n/a	PUDDING	Desserts	12	-1	[0, 0, 0]	n/a	catFR1	1	R1441T
156.683	0.0	263347	ENCODING_END	n/a	n/a	n/a	n/a	-999	-1	[0, 0, 0]	n/a	catFR1	1	R1441T
156.682	0.001	263349	PROB	5.732	n/a	n/a	n/a	-999	-1	[3, 1, 3]	7.0	catFR1	1	R1441T
156.683	0.0	263350	START	n/a	n/a	n/a	n/a	-999	-1	[-999, -999, -999]	n/a	catFR1	1	R1441T
156.683	5.747	263354	DISTRACT_START	n/a	n/a	n/a	n/a	-999	-1	[0, 0, 0]	n/a	catFR1	1	R1441T
162.43	3.617	269097	PROB	3.599	n/a	n/a	n/a	-999	-1	[2, 1, 3]	6.0	catFR1	1	R1441T
166.047	3.551	272714	PROB	3.533	n/a	n/a	n/a	-999	-1	[2, 6, 4]	12.0	catFR1	1	R1441T
169.598	2.8	276265	PROB	2.782	n/a	n/a	n/a	-999	-1	[8, 2, 1]	11.0	catFR1	1	R1441T
172.398	5.365	279064	PROB	5.349	n/a	n/a	n/a	-999	-1	[1, 1, 3]	5.0	catFR1	1	R1441T
177.763	0.0	284424	DISTRACT_END	n/a	n/a	n/a	n/a	-999	-1	[0, 0, 0]	n/a	catFR1	1	R1441T
177.763	2.117	284429	STOP	n/a	n/a	n/a	n/a	-999	-1	[-999, -999, -999]	n/a	catFR1	1	R1441T
179.88	0.394	286542	REC_START	n/a	n/a	n/a	n/a	-999	-1	[0, 0, 0]	n/a	catFR1	1	R1441T
180.274	0.364	286940	REC_WORD	0.394	n/a	OAK	Trees	7	-1	[0, 0, 0]	n/a	catFR1	1	R1441T
180.638	0.684	287304	REC_WORD	0.758	n/a	CYPRESS	Trees	8	-1	[0, 0, 0]	n/a	catFR1	1	R1441T
181.322	0.813	287988	REC_WORD	1.442	n/a	CIDER	Beverages	9	-1	[0, 0, 0]	n/a	catFR1	1	R1441T
182.135	27.942	288801	REC_WORD	2.255	n/a	TEA	Beverages	10	-1	[0, 0, 0]	n/a	catFR1	1	R1441T
210.077	12.62	316741	REC_END	n/a	n/a	n/a	n/a	-999	-1	[0, 0, 0]	n/a	catFR1	1	R1441T
222.697	10.349	329357	COUNTDOWN_START	n/a	n/a	n/a	n/a	-999	1	[0, 0, 0]	n/a	catFR1	1	R1441T
233.046	0.001	339710	COUNTDOWN_END	n/a	n/a	n/a	n/a	-999	1	[0, 0, 0]	n/a	catFR1	1	R1441T
233.047	1.967	339710	ENCODING_START	n/a	n/a	n/a	n/a	-999	1	[0, 0, 0]	n/a	catFR1	1	R1441T
235.014	1.615	341680	WORD	n/a	wordpools/wordpool_categorized_EN.txt	BLUEBERRY	Fruit	1	1	[0, 0, 0]	n/a	catFR1	1	R1441T
236.629	0.933	343287	WORD_OFF	n/a	n/a	BLUEBERRY	Fruit	1	1	[0, 0, 0]	n/a	catFR1	1	R1441T
237.562	1.602	344223	WORD	n/a	wordpools/wordpool_categorized_EN.txt	STRAWBERRY	Fruit	2	1	[0, 0, 0]	n/a	catFR1	1	R1441T
239.164	0.765	345816	WORD_OFF	n/a	n/a	STRAWBERRY	Fruit	2	1	[0, 0, 0]	n/a	catFR1	1	R1441T
239.929	1.618	346584	WORD	n/a	wordpools/wordpool_categorized_EN.txt	FISH	OceanAnimals	3	1	[0, 0, 0]	n/a	catFR1	1	R1441T
241.547	0.932	348205	WORD_OFF	n/a	n/a	FISH	OceanAnimals	3	1	[0, 0, 0]	n/a	catFR1	1	R1441T
242.479	1.601	349141	WORD	n/a	wordpools/wordpool_categorized_EN.txt	CRAB	OceanAnimals	4	1	[0, 0, 0]	n/a	catFR1	1	R1441T
244.08	0.767	350734	WORD_OFF	n/a	n/a	CRAB	OceanAnimals	4	1	[0, 0, 0]	n/a	catFR1	1	R1441T
244.847	1.617	351503	WORD	n/a	wordpools/wordpool_categorized_EN.txt	BED	Furniture	5	1	[0, 0, 0]	n/a	catFR1	1	R1441T
246.464	0.833	353123	WORD_OFF	n/a	n/a	BED	Furniture	5	1	[0, 0, 0]	n/a	catFR1	1	R1441T
247.297	1.617	353962	WORD	n/a	wordpools/wordpool_categorized_EN.txt	BOOKCASE	Furniture	6	1	[0, 0, 0]	n/a	catFR1	1	R1441T
248.914	0.916	355568	WORD_OFF	n/a	n/a	BOOKCASE	Furniture	6	1	[0, 0, 0]	n/a	catFR1	1	R1441T
249.83	1.617	356490	WORD	n/a	wordpools/wordpool_categorized_EN.txt	WHALE	OceanAnimals	7	1	[0, 0, 0]	n/a	catFR1	1	R1441T
251.447	0.833	358111	WORD_OFF	n/a	n/a	WHALE	OceanAnimals	7	1	[0, 0, 0]	n/a	catFR1	1	R1441T
252.28	1.616	358936	WORD	n/a	wordpools/wordpool_categorized_EN.txt	OYSTER	OceanAnimals	8	1	[0, 0, 0]	n/a	catFR1	1	R1441T
253.896	1.001	360556	WORD_OFF	n/a	n/a	OYSTER	OceanAnimals	8	1	[0, 0, 0]	n/a	catFR1	1	R1441T
254.897	1.6	361562	WORD	n/a	wordpools/wordpool_categorized_EN.txt	ORANGE	Fruit	9	1	[0, 0, 0]	n/a	catFR1	1	R1441T
256.497	0.917	363155	WORD_OFF	n/a	n/a	ORANGE	Fruit	9	1	[0, 0, 0]	n/a	catFR1	1	R1441T
257.414	1.6	364077	WORD	n/a	wordpools/wordpool_categorized_EN.txt	APPLE	Fruit	10	1	[0, 0, 0]	n/a	catFR1	1	R1441T
259.014	0.8	365670	WORD_OFF	n/a	n/a	APPLE	Fruit	10	1	[0, 0, 0]	n/a	catFR1	1	R1441T
259.814	1.6	366466	WORD	n/a	wordpools/wordpool_categorized_EN.txt	NIGHTSTAND	Furniture	11	1	[0, 0, 0]	n/a	catFR1	1	R1441T
261.414	0.9	368073	WORD_OFF	n/a	n/a	NIGHTSTAND	Furniture	11	1	[0, 0, 0]	n/a	catFR1	1	R1441T
262.314	1.6	368967	WORD	n/a	wordpools/wordpool_categorized_EN.txt	COUCH	Furniture	12	1	[0, 0, 0]	n/a	catFR1	1	R1441T
263.914	0.001	370574	WORD_OFF	n/a	n/a	COUCH	Furniture	12	1	[0, 0, 0]	n/a	catFR1	1	R1441T
263.915	0.0	370574	ENCODING_END	n/a	n/a	n/a	n/a	-999	1	[0, 0, 0]	n/a	catFR1	1	R1441T
263.915	0.0	370574	DISTRACT_START	n/a	n/a	n/a	n/a	-999	1	[0, 0, 0]	n/a	catFR1	1	R1441T
263.915	0.0	370577	PROB	5.599	n/a	n/a	n/a	-999	1	[3, 3, 2]	8.0	catFR1	1	R1441T
263.915	5.615	370577	START	n/a	n/a	n/a	n/a	-999	1	[-999, -999, -999]	n/a	catFR1	1	R1441T
269.53	4.733	376192	PROB	4.717	n/a	n/a	n/a	-999	1	[3, 6, 6]	15.0	catFR1	1	R1441T
274.263	5.7	380924	PROB	5.683	n/a	n/a	n/a	-999	1	[2, 6, 7]	15.0	catFR1	1	R1441T
279.963	6.917	386624	PROB	6.9	n/a	n/a	n/a	-999	1	[5, 3, 4]	12.0	catFR1	1	R1441T
286.88	0.0	393541	STOP	n/a	n/a	n/a	n/a	-999	1	[-999, -999, -999]	n/a	catFR1	1	R1441T
286.88	2.3	393544	DISTRACT_END	n/a	n/a	n/a	n/a	-999	1	[0, 0, 0]	n/a	catFR1	1	R1441T
289.18	0.675	395843	REC_START	n/a	n/a	n/a	n/a	-999	1	[0, 0, 0]	n/a	catFR1	1	R1441T
289.855	0.666	396516	REC_WORD	0.675	n/a	BLUEBERRY	Fruit	1	1	[0, 0, 0]	n/a	catFR1	1	R1441T
290.521	1.018	397182	REC_WORD	1.341	n/a	STRAWBERRY	Fruit	2	1	[0, 0, 0]	n/a	catFR1	1	R1441T
291.539	0.792	398199	REC_WORD	2.359	n/a	ORANGE	Fruit	9	1	[0, 0, 0]	n/a	catFR1	1	R1441T
292.331	1.234	398991	REC_WORD	3.151	n/a	APPLE	Fruit	10	1	[0, 0, 0]	n/a	catFR1	1	R1441T
293.565	25.864	400225	REC_WORD	4.385	n/a	COUCH	Furniture	12	1	[0, 0, 0]	n/a	catFR1	1	R1441T
319.429	1.068	426084	REC_END	n/a	n/a	n/a	n/a	-999	1	[0, 0, 0]	n/a	catFR1	1	R1441T
320.497	10.349	427160	COUNTDOWN_START	n/a	n/a	n/a	n/a	-999	2	[0, 0, 0]	n/a	catFR1	1	R1441T
330.846	0.0	437499	COUNTDOWN_END	n/a	n/a	n/a	n/a	-999	2	[0, 0, 0]	n/a	catFR1	1	R1441T
330.846	2.168	437499	ENCODING_START	n/a	n/a	n/a	n/a	-999	2	[0, 0, 0]	n/a	catFR1	1	R1441T
333.014	1.6	439665	WORD	n/a	wordpools/wordpool_categorized_EN.txt	GUITAR	Instruments	1	2	[0, 0, 0]	n/a	catFR1	1	R1441T
334.614	0.966	441271	WORD_OFF	n/a	n/a	GUITAR	Instruments	1	2	[0, 0, 0]	n/a	catFR1	1	R1441T
335.58	1.6	442236	WORD	n/a	wordpools/wordpool_categorized_EN.txt	CELLO	Instruments	2	2	[0, 0, 0]	n/a	catFR1	1	R1441T
337.18	0.983	443828	WORD_OFF	n/a	n/a	CELLO	Instruments	2	2	[0, 0, 0]	n/a	catFR1	1	R1441T
338.163	1.616	444820	WORD	n/a	wordpools/wordpool_categorized_EN.txt	CAR	Vehicles	3	2	[0, 0, 0]	n/a	catFR1	1	R1441T
339.779	0.884	446427	WORD_OFF	n/a	n/a	CAR	Vehicles	3	2	[0, 0, 0]	n/a	catFR1	1	R1441T
340.663	1.6	447321	WORD	n/a	wordpools/wordpool_categorized_EN.txt	BIKE	Vehicles	4	2	[0, 0, 0]	n/a	catFR1	1	R1441T
342.263	0.766	448914	WORD_OFF	n/a	n/a	BIKE	Vehicles	4	2	[0, 0, 0]	n/a	catFR1	1	R1441T
343.029	1.601	449682	WORD	n/a	wordpools/wordpool_categorized_EN.txt	CHEETAH	Zoo	5	2	[0, 0, 0]	n/a	catFR1	1	R1441T
344.63	0.933	451289	WORD_OFF	n/a	n/a	CHEETAH	Zoo	5	2	[0, 0, 0]	n/a	catFR1	1	R1441T
345.563	1.618	452211	WORD	n/a	wordpools/wordpool_categorized_EN.txt	PANDA	Zoo	6	2	[0, 0, 0]	n/a	catFR1	1	R1441T
347.181	0.899	453832	WORD_OFF	n/a	n/a	PANDA	Zoo	6	2	[0, 0, 0]	n/a	catFR1	1	R1441T
348.08	1.617	454740	WORD	n/a	wordpools/wordpool_categorized_EN.txt	BANJO	Instruments	7	2	[0, 0, 0]	n/a	catFR1	1	R1441T
349.697	0.867	456347	WORD_OFF	n/a	n/a	BANJO	Instruments	7	2	[0, 0, 0]	n/a	catFR1	1	R1441T
350.564	1.616	457213	WORD	n/a	wordpools/wordpool_categorized_EN.txt	TUBA	Instruments	8	2	[0, 0, 0]	n/a	catFR1	1	R1441T
352.18	0.766	458834	WORD_OFF	n/a	n/a	TUBA	Instruments	8	2	[0, 0, 0]	n/a	catFR1	1	R1441T
352.946	1.6	459602	WORD	n/a	wordpools/wordpool_categorized_EN.txt	ELEPHANT	Zoo	9	2	[0, 0, 0]	n/a	catFR1	1	R1441T
354.546	0.818	461195	WORD_OFF	n/a	n/a	ELEPHANT	Zoo	9	2	[0, 0, 0]	n/a	catFR1	1	R1441T
355.364	1.6	462020	WORD	n/a	wordpools/wordpool_categorized_EN.txt	TIGER	Zoo	10	2	[0, 0, 0]	n/a	catFR1	1	R1441T
356.964	0.983	463612	WORD_OFF	n/a	n/a	TIGER	Zoo	10	2	[0, 0, 0]	n/a	catFR1	1	R1441T
357.947	1.617	464604	WORD	n/a	wordpools/wordpool_categorized_EN.txt	MOPED	Vehicles	11	2	[0, 0, 0]	n/a	catFR1	1	R1441T
359.564	0.867	466211	WORD_OFF	n/a	n/a	MOPED	Vehicles	11	2	[0, 0, 0]	n/a	catFR1	1	R1441T
360.431	1.616	467091	WORD	n/a	wordpools/wordpool_categorized_EN.txt	TRUCK	Vehicles	12	2	[0, 0, 0]	n/a	catFR1	1	R1441T
362.047	0.001	468698	WORD_OFF	n/a	n/a	TRUCK	Vehicles	12	2	[0, 0, 0]	n/a	catFR1	1	R1441T
362.048	0.001	468698	ENCODING_END	n/a	n/a	n/a	n/a	-999	2	[0, 0, 0]	n/a	catFR1	1	R1441T
362.049	0.0	468698	DISTRACT_START	n/a	n/a	n/a	n/a	-999	2	[0, 0, 0]	n/a	catFR1	1	R1441T
362.047	0.002	468704	PROB	9.249	n/a	n/a	n/a	-999	2	[5, 2, 6]	13.0	catFR1	1	R1441T
362.049	9.265	468706	START	n/a	n/a	n/a	n/a	-999	2	[-999, -999, -999]	n/a	catFR1	1	R1441T
371.314	13.5	477970	PROB	13.482	n/a	n/a	n/a	-999	2	[5, 2, 6]	13.0	catFR1	1	R1441T
384.814	0.0	491470	STOP	n/a	n/a	n/a	n/a	-999	2	[-999, -999, -999]	n/a	catFR1	1	R1441T
384.814	2.399	491472	DISTRACT_END	n/a	n/a	n/a	n/a	-999	2	[0, 0, 0]	n/a	catFR1	1	R1441T
387.213	0.496	493869	REC_START	n/a	n/a	n/a	n/a	-999	2	[0, 0, 0]	n/a	catFR1	1	R1441T
387.709	0.804	494365	REC_WORD	0.496	n/a	GUITAR	Instruments	1	2	[0, 0, 0]	n/a	catFR1	1	R1441T
388.513	0.714	495169	REC_WORD	1.3	n/a	CAR	Vehicles	3	2	[0, 0, 0]	n/a	catFR1	1	R1441T
389.227	0.945	495882	REC_WORD	2.014	n/a	TRUCK	Vehicles	12	2	[0, 0, 0]	n/a	catFR1	1	R1441T
390.172	0.78	496827	REC_WORD	2.959	n/a	BIKE	Vehicles	4	2	[0, 0, 0]	n/a	catFR1	1	R1441T
390.952	26.487	497607	REC_WORD	3.739	n/a	BANJO	Instruments	7	2	[0, 0, 0]	n/a	catFR1	1	R1441T
417.439	1.458	524082	REC_END	n/a	n/a	n/a	n/a	-999	2	[0, 0, 0]	n/a	catFR1	1	R1441T
418.897	10.35	525549	COUNTDOWN_START	n/a	n/a	n/a	n/a	-999	3	[0, 0, 0]	n/a	catFR1	1	R1441T
429.247	0.0	535903	COUNTDOWN_END	n/a	n/a	n/a	n/a	-999	3	[0, 0, 0]	n/a	catFR1	1	R1441T
429.247	1.998	535903	ENCODING_START	n/a	n/a	n/a	n/a	-999	3	[0, 0, 0]	n/a	catFR1	1	R1441T
431.245	1.602	537901	WORD	n/a	wordpools/wordpool_categorized_EN.txt	DRUM	Instruments	1	3	[0, 0, 0]	n/a	catFR1	1	R1441T
432.847	0.9	539493	WORD_OFF	n/a	n/a	DRUM	Instruments	1	3	[0, 0, 0]	n/a	catFR1	1	R1441T
433.747	1.617	540402	WORD	n/a	wordpools/wordpool_categorized_EN.txt	BASS	Instruments	2	3	[0, 0, 0]	n/a	catFR1	1	R1441T
435.364	0.933	542008	WORD_OFF	n/a	n/a	BASS	Instruments	2	3	[0, 0, 0]	n/a	catFR1	1	R1441T
436.297	1.6	542944	WORD	n/a	wordpools/wordpool_categorized_EN.txt	MARKER	OfficeSupplies	3	3	[0, 0, 0]	n/a	catFR1	1	R1441T
437.897	0.783	544551	WORD_OFF	n/a	n/a	MARKER	OfficeSupplies	3	3	[0, 0, 0]	n/a	catFR1	1	R1441T
438.68	1.616	545334	WORD	n/a	wordpools/wordpool_categorized_EN.txt	TAPE	OfficeSupplies	4	3	[0, 0, 0]	n/a	catFR1	1	R1441T
440.296	0.918	546940	WORD_OFF	n/a	n/a	TAPE	OfficeSupplies	4	3	[0, 0, 0]	n/a	catFR1	1	R1441T
441.214	1.617	547862	WORD	n/a	wordpools/wordpool_categorized_EN.txt	GORILLA	Zoo	5	3	[0, 0, 0]	n/a	catFR1	1	R1441T
442.831	0.834	549483	WORD_OFF	n/a	n/a	GORILLA	Zoo	5	3	[0, 0, 0]	n/a	catFR1	1	R1441T
443.665	1.599	550308	WORD	n/a	wordpools/wordpool_categorized_EN.txt	LION	Zoo	6	3	[0, 0, 0]	n/a	catFR1	1	R1441T
445.264	0.783	551914	WORD_OFF	n/a	n/a	LION	Zoo	6	3	[0, 0, 0]	n/a	catFR1	1	R1441T
446.047	1.6	552697	WORD	n/a	wordpools/wordpool_categorized_EN.txt	FOLDER	OfficeSupplies	7	3	[0, 0, 0]	n/a	catFR1	1	R1441T
447.647	1.0	554303	WORD_OFF	n/a	n/a	FOLDER	OfficeSupplies	7	3	[0, 0, 0]	n/a	catFR1	1	R1441T
448.647	1.617	555295	WORD	n/a	wordpools/wordpool_categorized_EN.txt	ERASER	OfficeSupplies	8	3	[0, 0, 0]	n/a	catFR1	1	R1441T
450.264	0.982	556916	WORD_OFF	n/a	n/a	ERASER	OfficeSupplies	8	3	[0, 0, 0]	n/a	catFR1	1	R1441T
451.246	1.601	557894	WORD	n/a	wordpools/wordpool_categorized_EN.txt	CHIMPANZEE	Zoo	9	3	[0, 0, 0]	n/a	catFR1	1	R1441T
452.847	0.883	559501	WORD_OFF	n/a	n/a	CHIMPANZEE	Zoo	9	3	[0, 0, 0]	n/a	catFR1	1	R1441T
453.73	1.6	560381	WORD	n/a	wordpools/wordpool_categorized_EN.txt	ORANGUTAN	Zoo	10	3	[0, 0, 0]	n/a	catFR1	1	R1441T
455.33	0.866	561974	WORD_OFF	n/a	n/a	ORANGUTAN	Zoo	10	3	[0, 0, 0]	n/a	catFR1	1	R1441T
456.196	1.601	562840	WORD	n/a	wordpools/wordpool_categorized_EN.txt	TROMBONE	Instruments	11	3	[0, 0, 0]	n/a	catFR1	1	R1441T
457.797	0.899	564447	WORD_OFF	n/a	n/a	TROMBONE	Instruments	11	3	[0, 0, 0]	n/a	catFR1	1	R1441T
458.696	1.601	565341	WORD	n/a	wordpools/wordpool_categorized_EN.txt	ORGAN	Instruments	12	3	[0, 0, 0]	n/a	catFR1	1	R1441T
460.297	0.002	566948	WORD_OFF	n/a	n/a	ORGAN	Instruments	12	3	[0, 0, 0]	n/a	catFR1	1	R1441T
460.299	0.0	566948	ENCODING_END	n/a	n/a	n/a	n/a	-999	3	[0, 0, 0]	n/a	catFR1	1	R1441T
460.299	0.0	566948	DISTRACT_START	n/a	n/a	n/a	n/a	-999	3	[0, 0, 0]	n/a	catFR1	1	R1441T
460.297	0.002	566949	PROB	7.099	n/a	n/a	n/a	-999	3	[6, 5, 8]	19.0	catFR1	1	R1441T
460.299	7.115	566951	START	n/a	n/a	n/a	n/a	-999	3	[-999, -999, -999]	n/a	catFR1	1	R1441T
467.414	8.249	574065	PROB	8.232	n/a	n/a	n/a	-999	3	[7, 2, 4]	13.0	catFR1	1	R1441T
475.663	14.767	582314	PROB	14.75	n/a	n/a	n/a	-999	3	[5, 7, 2]	14.0	catFR1	1	R1441T
490.43	0.0	597071	DISTRACT_END	n/a	n/a	n/a	n/a	-999	3	[0, 0, 0]	n/a	catFR1	1	R1441T
490.43	2.234	597080	STOP	n/a	n/a	n/a	n/a	-999	3	[-999, -999, -999]	n/a	catFR1	1	R1441T
492.664	0.485	599315	REC_START	n/a	n/a	n/a	n/a	-999	3	[0, 0, 0]	n/a	catFR1	1	R1441T
493.149	0.7	599799	REC_WORD	0.485	n/a	MARKER	OfficeSupplies	3	3	[0, 0, 0]	n/a	catFR1	1	R1441T
493.849	0.625	600499	REC_WORD	1.185	n/a	TAPE	OfficeSupplies	4	3	[0, 0, 0]	n/a	catFR1	1	R1441T
494.474	0.964	601124	REC_WORD	1.81	n/a	GORILLA	Zoo	5	3	[0, 0, 0]	n/a	catFR1	1	R1441T
495.438	27.456	602088	REC_WORD	2.774	n/a	LION	Zoo	6	3	[0, 0, 0]	n/a	catFR1	1	R1441T
522.894	2.287	629542	REC_END	n/a	n/a	n/a	n/a	-999	3	[0, 0, 0]	n/a	catFR1	1	R1441T
525.181	10.348	631833	COUNTDOWN_START	n/a	n/a	n/a	n/a	-999	4	[0, 0, 0]	n/a	catFR1	1	R1441T
535.529	0.0	642172	COUNTDOWN_END	n/a	n/a	n/a	n/a	-999	4	[0, 0, 0]	n/a	catFR1	1	R1441T
535.529	2.201	642172	ENCODING_START	n/a	n/a	n/a	n/a	-999	4	[0, 0, 0]	n/a	catFR1	1	R1441T
537.73	1.617	644380	WORD	n/a	wordpools/wordpool_categorized_EN.txt	DAISY	Flowers	1	4	[0, 0, 0]	n/a	catFR1	1	R1441T
539.347	0.95	645987	WORD_OFF	n/a	n/a	DAISY	Flowers	1	4	[0, 0, 0]	n/a	catFR1	1	R1441T
540.297	1.616	646937	WORD	n/a	wordpools/wordpool_categorized_EN.txt	CARNATION	Flowers	2	4	[0, 0, 0]	n/a	catFR1	1	R1441T
541.913	1.0	648557	WORD_OFF	n/a	n/a	CARNATION	Flowers	2	4	[0, 0, 0]	n/a	catFR1	1	R1441T
542.913	1.601	649563	WORD	n/a	wordpools/wordpool_categorized_EN.txt	CABBAGE	Vegetables	3	4	[0, 0, 0]	n/a	catFR1	1	R1441T
544.514	0.85	651156	WORD_OFF	n/a	n/a	CABBAGE	Vegetables	3	4	[0, 0, 0]	n/a	catFR1	1	R1441T
545.364	1.617	652008	WORD	n/a	wordpools/wordpool_categorized_EN.txt	CELERY	Vegetables	4	4	[0, 0, 0]	n/a	catFR1	1	R1441T
546.981	0.899	653629	WORD_OFF	n/a	n/a	CELERY	Vegetables	4	4	[0, 0, 0]	n/a	catFR1	1	R1441T
547.88	1.6	654523	WORD	n/a	wordpools/wordpool_categorized_EN.txt	ZEBRA	Zoo	5	4	[0, 0, 0]	n/a	catFR1	1	R1441T
549.48	0.932	656130	WORD_OFF	n/a	n/a	ZEBRA	Zoo	5	4	[0, 0, 0]	n/a	catFR1	1	R1441T
550.412	1.602	657052	WORD	n/a	wordpools/wordpool_categorized_EN.txt	BEAR	Zoo	6	4	[0, 0, 0]	n/a	catFR1	1	R1441T
552.014	1.0	658659	WORD_OFF	n/a	n/a	BEAR	Zoo	6	4	[0, 0, 0]	n/a	catFR1	1	R1441T
553.014	1.616	659651	WORD	n/a	wordpools/wordpool_categorized_EN.txt	TULIP	Flowers	7	4	[0, 0, 0]	n/a	catFR1	1	R1441T
554.63	0.951	661272	WORD_OFF	n/a	n/a	TULIP	Flowers	7	4	[0, 0, 0]	n/a	catFR1	1	R1441T
555.581	1.616	662222	WORD	n/a	wordpools/wordpool_categorized_EN.txt	ORCHID	Flowers	8	4	[0, 0, 0]	n/a	catFR1	1	R1441T
557.197	0.967	663842	WORD_OFF	n/a	n/a	ORCHID	Flowers	8	4	[0, 0, 0]	n/a	catFR1	1	R1441T
558.164	1.616	664807	WORD	n/a	wordpools/wordpool_categorized_EN.txt	CORN	Vegetables	9	4	[0, 0, 0]	n/a	catFR1	1	R1441T
559.78	0.849	666427	WORD_OFF	n/a	n/a	CORN	Vegetables	9	4	[0, 0, 0]	n/a	catFR1	1	R1441T
560.629	1.601	667266	WORD	n/a	wordpools/wordpool_categorized_EN.txt	CAULIFLOWER	Vegetables	10	4	[0, 0, 0]	n/a	catFR1	1	R1441T
562.23	0.767	668872	WORD_OFF	n/a	n/a	CAULIFLOWER	Vegetables	10	4	[0, 0, 0]	n/a	catFR1	1	R1441T
562.997	1.617	669641	WORD	n/a	wordpools/wordpool_categorized_EN.txt	MONKEY	Zoo	11	4	[0, 0, 0]	n/a	catFR1	1	R1441T
564.614	0.95	671262	WORD_OFF	n/a	n/a	MONKEY	Zoo	11	4	[0, 0, 0]	n/a	catFR1	1	R1441T
565.564	1.616	672212	WORD	n/a	wordpools/wordpool_categorized_EN.txt	GIRAFFE	Zoo	12	4	[0, 0, 0]	n/a	catFR1	1	R1441T
567.18	0.001	673818	WORD_OFF	n/a	n/a	GIRAFFE	Zoo	12	4	[0, 0, 0]	n/a	catFR1	1	R1441T
567.181	0.004	673827	PROB	6.232	n/a	n/a	n/a	-999	4	[4, 5, 2]	11.0	catFR1	1	R1441T
567.185	0.0	673831	START	n/a	n/a	n/a	n/a	-999	4	[-999, -999, -999]	n/a	catFR1	1	R1441T
567.185	0.0	673832	ENCODING_END	n/a	n/a	n/a	n/a	-999	4	[0, 0, 0]	n/a	catFR1	1	R1441T
567.185	6.245	673832	DISTRACT_START	n/a	n/a	n/a	n/a	-999	4	[0, 0, 0]	n/a	catFR1	1	R1441T
573.43	9.301	680076	PROB	9.283	n/a	n/a	n/a	-999	4	[3, 7, 6]	16.0	catFR1	1	R1441T
582.731	13.049	689377	PROB	13.032	n/a	n/a	n/a	-999	4	[6, 7, 5]	18.0	catFR1	1	R1441T
595.78	0.0	702419	DISTRACT_END	n/a	n/a	n/a	n/a	-999	4	[0, 0, 0]	n/a	catFR1	1	R1441T
595.78	2.4	702425	STOP	n/a	n/a	n/a	n/a	-999	4	[-999, -999, -999]	n/a	catFR1	1	R1441T
598.18	0.014	704816	REC_START	n/a	n/a	n/a	n/a	-999	4	[0, 0, 0]	n/a	catFR1	1	R1441T
598.194	0.815	704839	REC_WORD	0.014	n/a	ZEBRA	Zoo	5	4	[0, 0, 0]	n/a	catFR1	1	R1441T
599.009	0.585	705654	REC_WORD	0.829	n/a	BEAR	Zoo	6	4	[0, 0, 0]	n/a	catFR1	1	R1441T
599.594	0.648	706239	REC_WORD	1.414	n/a	DAISY	Flowers	1	4	[0, 0, 0]	n/a	catFR1	1	R1441T
600.242	0.762	706887	REC_WORD	2.062	n/a	MONKEY	Zoo	11	4	[0, 0, 0]	n/a	catFR1	1	R1441T
601.004	27.433	707649	REC_WORD	2.824	n/a	TULIP	Flowers	7	4	[0, 0, 0]	n/a	catFR1	1	R1441T
628.437	2.544	735071	REC_END	n/a	n/a	n/a	n/a	-999	4	[0, 0, 0]	n/a	catFR1	1	R1441T
630.981	10.349	737628	COUNTDOWN_START	n/a	n/a	n/a	n/a	-999	5	[0, 0, 0]	n/a	catFR1	1	R1441T
641.33	0.0	747967	COUNTDOWN_END	n/a	n/a	n/a	n/a	-999	5	[0, 0, 0]	n/a	catFR1	1	R1441T
641.33	1.901	747967	ENCODING_START	n/a	n/a	n/a	n/a	-999	5	[0, 0, 0]	n/a	catFR1	1	R1441T
643.231	1.599	749867	WORD	n/a	wordpools/wordpool_categorized_EN.txt	GNAT	Insects	1	5	[0, 0, 0]	n/a	catFR1	1	R1441T
644.83	0.834	751474	WORD_OFF	n/a	n/a	GNAT	Insects	1	5	[0, 0, 0]	n/a	catFR1	1	R1441T
645.664	1.6	752298	WORD	n/a	wordpools/wordpool_categorized_EN.txt	ROACH	Insects	2	5	[0, 0, 0]	n/a	catFR1	1	R1441T
647.264	0.932	753905	WORD_OFF	n/a	n/a	ROACH	Insects	2	5	[0, 0, 0]	n/a	catFR1	1	R1441T
648.196	1.601	754841	WORD	n/a	wordpools/wordpool_categorized_EN.txt	PEAR	Fruit	3	5	[0, 0, 0]	n/a	catFR1	1	R1441T
649.797	0.966	756434	WORD_OFF	n/a	n/a	PEAR	Fruit	3	5	[0, 0, 0]	n/a	catFR1	1	R1441T
650.763	1.601	757398	WORD	n/a	wordpools/wordpool_categorized_EN.txt	PLUM	Fruit	4	5	[0, 0, 0]	n/a	catFR1	1	R1441T
652.364	0.816	759005	WORD_OFF	n/a	n/a	PLUM	Fruit	4	5	[0, 0, 0]	n/a	catFR1	1	R1441T
653.18	1.617	759815	WORD	n/a	wordpools/wordpool_categorized_EN.txt	TRUMPET	Instruments	5	5	[0, 0, 0]	n/a	catFR1	1	R1441T
654.797	0.883	761436	WORD_OFF	n/a	n/a	TRUMPET	Instruments	5	5	[0, 0, 0]	n/a	catFR1	1	R1441T
655.68	1.617	762316	WORD	n/a	wordpools/wordpool_categorized_EN.txt	PIANO	Instruments	6	5	[0, 0, 0]	n/a	catFR1	1	R1441T
657.297	0.8	763937	WORD_OFF	n/a	n/a	PIANO	Instruments	6	5	[0, 0, 0]	n/a	catFR1	1	R1441T
658.097	1.6	764733	WORD	n/a	wordpools/wordpool_categorized_EN.txt	MOTH	Insects	7	5	[0, 0, 0]	n/a	catFR1	1	R1441T
659.697	0.967	766340	WORD_OFF	n/a	n/a	MOTH	Insects	7	5	[0, 0, 0]	n/a	catFR1	1	R1441T
660.664	1.6	767304	WORD	n/a	wordpools/wordpool_categorized_EN.txt	BEETLE	Insects	8	5	[0, 0, 0]	n/a	catFR1	1	R1441T
662.264	0.849	768897	WORD_OFF	n/a	n/a	BEETLE	Insects	8	5	[0, 0, 0]	n/a	catFR1	1	R1441T
663.113	1.601	769749	WORD	n/a	wordpools/wordpool_categorized_EN.txt	VIOLIN	Instruments	9	5	[0, 0, 0]	n/a	catFR1	1	R1441T
664.714	0.916	771356	WORD_OFF	n/a	n/a	VIOLIN	Instruments	9	5	[0, 0, 0]	n/a	catFR1	1	R1441T
665.63	1.6	772264	WORD	n/a	wordpools/wordpool_categorized_EN.txt	FLUTE	Instruments	10	5	[0, 0, 0]	n/a	catFR1	1	R1441T
667.23	0.965	773871	WORD_OFF	n/a	n/a	FLUTE	Instruments	10	5	[0, 0, 0]	n/a	catFR1	1	R1441T
668.195	1.602	774835	WORD	n/a	wordpools/wordpool_categorized_EN.txt	CHERRY	Fruit	11	5	[0, 0, 0]	n/a	catFR1	1	R1441T
669.797	0.766	776427	WORD_OFF	n/a	n/a	CHERRY	Fruit	11	5	[0, 0, 0]	n/a	catFR1	1	R1441T
670.563	1.617	777196	WORD	n/a	wordpools/wordpool_categorized_EN.txt	LIME	Fruit	12	5	[0, 0, 0]	n/a	catFR1	1	R1441T
672.18	0.004	778817	WORD_OFF	n/a	n/a	LIME	Fruit	12	5	[0, 0, 0]	n/a	catFR1	1	R1441T
672.184	0.0	778817	ENCODING_END	n/a	n/a	n/a	n/a	-999	5	[0, 0, 0]	n/a	catFR1	1	R1441T
672.184	0.0	778817	DISTRACT_START	n/a	n/a	n/a	n/a	-999	5	[0, 0, 0]	n/a	catFR1	1	R1441T
672.181	0.003	778822	PROB	8.283	n/a	n/a	n/a	-999	5	[6, 8, 5]	19.0	catFR1	1	R1441T
672.184	8.297	778825	START	n/a	n/a	n/a	n/a	-999	5	[-999, -999, -999]	n/a	catFR1	1	R1441T
680.481	4.299	787122	PROB	4.283	n/a	n/a	n/a	-999	5	[1, 5, 3]	9.0	catFR1	1	R1441T
684.78	7.9	791420	PROB	7.883	n/a	n/a	n/a	-999	5	[8, 2, 2]	12.0	catFR1	1	R1441T
692.68	0.0	799313	DISTRACT_END	n/a	n/a	n/a	n/a	-999	5	[0, 0, 0]	n/a	catFR1	1	R1441T
692.68	2.033	799320	STOP	n/a	n/a	n/a	n/a	-999	5	[-999, -999, -999]	n/a	catFR1	1	R1441T
694.713	0.271	801347	REC_START	n/a	n/a	n/a	n/a	-999	5	[0, 0, 0]	n/a	catFR1	1	R1441T
694.984	0.677	801624	REC_WORD	0.271	n/a	ROACH	Insects	2	5	[0, 0, 0]	n/a	catFR1	1	R1441T
695.661	0.684	802301	REC_WORD	0.948	n/a	PEAR	Fruit	3	5	[0, 0, 0]	n/a	catFR1	1	R1441T
696.345	0.626	802985	REC_WORD	1.632	n/a	PLUM	Fruit	4	5	[0, 0, 0]	n/a	catFR1	1	R1441T
696.971	0.686	803611	REC_WORD	2.258	n/a	MOTH	Insects	7	5	[0, 0, 0]	n/a	catFR1	1	R1441T
697.657	27.302	804297	REC_WORD	2.944	n/a	CHERRY	Fruit	11	5	[0, 0, 0]	n/a	catFR1	1	R1441T
724.959	1.388	831588	REC_END	n/a	n/a	n/a	n/a	-999	5	[0, 0, 0]	n/a	catFR1	1	R1441T
726.347	10.35	832985	COUNTDOWN_START	n/a	n/a	n/a	n/a	-999	6	[0, 0, 0]	n/a	catFR1	1	R1441T
736.697	0.0	843338	COUNTDOWN_END	n/a	n/a	n/a	n/a	-999	6	[0, 0, 0]	n/a	catFR1	1	R1441T
736.697	2.249	843338	ENCODING_START	n/a	n/a	n/a	n/a	-999	6	[0, 0, 0]	n/a	catFR1	1	R1441T
738.946	1.601	845574	WORD	n/a	wordpools/wordpool_categorized_EN.txt	FLEECE	Fabric	1	6	[0, 0, 0]	n/a	catFR1	1	R1441T
740.547	0.85	847181	WORD_OFF	n/a	n/a	FLEECE	Fabric	1	6	[0, 0, 0]	n/a	catFR1	1	R1441T
741.397	1.617	848033	WORD	n/a	wordpools/wordpool_categorized_EN.txt	SATIN	Fabric	2	6	[0, 0, 0]	n/a	catFR1	1	R1441T
743.014	0.783	849654	WORD_OFF	n/a	n/a	SATIN	Fabric	2	6	[0, 0, 0]	n/a	catFR1	1	R1441T
743.797	1.6	850436	WORD	n/a	wordpools/wordpool_categorized_EN.txt	LILY	Flowers	3	6	[0, 0, 0]	n/a	catFR1	1	R1441T
745.397	0.95	852029	WORD_OFF	n/a	n/a	LILY	Flowers	3	6	[0, 0, 0]	n/a	catFR1	1	R1441T
746.347	1.615	852979	WORD	n/a	wordpools/wordpool_categorized_EN.txt	VIOLET	Flowers	4	6	[0, 0, 0]	n/a	catFR1	1	R1441T
747.962	1.001	854600	WORD_OFF	n/a	n/a	VIOLET	Flowers	4	6	[0, 0, 0]	n/a	catFR1	1	R1441T
748.963	1.601	855592	WORD	n/a	wordpools/wordpool_categorized_EN.txt	LEVEL	Tools	5	6	[0, 0, 0]	n/a	catFR1	1	R1441T
750.564	0.933	857198	WORD_OFF	n/a	n/a	LEVEL	Tools	5	6	[0, 0, 0]	n/a	catFR1	1	R1441T
751.497	1.617	858135	WORD	n/a	wordpools/wordpool_categorized_EN.txt	HAMMER	Tools	6	6	[0, 0, 0]	n/a	catFR1	1	R1441T
753.114	0.767	859741	WORD_OFF	n/a	n/a	HAMMER	Tools	6	6	[0, 0, 0]	n/a	catFR1	1	R1441T
753.881	1.616	860510	WORD	n/a	wordpools/wordpool_categorized_EN.txt	PETUNIA	Flowers	7	6	[0, 0, 0]	n/a	catFR1	1	R1441T
755.497	0.933	862131	WORD_OFF	n/a	n/a	PETUNIA	Flowers	7	6	[0, 0, 0]	n/a	catFR1	1	R1441T
756.43	1.601	863067	WORD	n/a	wordpools/wordpool_categorized_EN.txt	LILAC	Flowers	8	6	[0, 0, 0]	n/a	catFR1	1	R1441T
758.031	0.814	864659	WORD_OFF	n/a	n/a	LILAC	Flowers	8	6	[0, 0, 0]	n/a	catFR1	1	R1441T
758.845	1.601	865484	WORD	n/a	wordpools/wordpool_categorized_EN.txt	SANDER	Tools	9	6	[0, 0, 0]	n/a	catFR1	1	R1441T
760.446	0.8	867077	WORD_OFF	n/a	n/a	SANDER	Tools	9	6	[0, 0, 0]	n/a	catFR1	1	R1441T
761.246	1.6	867873	WORD	n/a	wordpools/wordpool_categorized_EN.txt	SCREWDRIVER	Tools	10	6	[0, 0, 0]	n/a	catFR1	1	R1441T
762.846	0.785	869480	WORD_OFF	n/a	n/a	SCREWDRIVER	Tools	10	6	[0, 0, 0]	n/a	catFR1	1	R1441T
763.631	1.599	870262	WORD	n/a	wordpools/wordpool_categorized_EN.txt	LEATHER	Fabric	11	6	[0, 0, 0]	n/a	catFR1	1	R1441T
765.23	0.833	871855	WORD_OFF	n/a	n/a	LEATHER	Fabric	11	6	[0, 0, 0]	n/a	catFR1	1	R1441T
766.063	1.601	872693	WORD	n/a	wordpools/wordpool_categorized_EN.txt	SUEDE	Fabric	12	6	[0, 0, 0]	n/a	catFR1	1	R1441T
767.664	0.001	874300	WORD_OFF	n/a	n/a	SUEDE	Fabric	12	6	[0, 0, 0]	n/a	catFR1	1	R1441T
767.665	0.0	874300	ENCODING_END	n/a	n/a	n/a	n/a	-999	6	[0, 0, 0]	n/a	catFR1	1	R1441T
767.665	0.0	874300	DISTRACT_START	n/a	n/a	n/a	n/a	-999	6	[0, 0, 0]	n/a	catFR1	1	R1441T
767.665	0.0	874301	START	n/a	n/a	n/a	n/a	-999	6	[-999, -999, -999]	n/a	catFR1	1	R1441T
767.665	7.383	874301	PROB	7.365	n/a	n/a	n/a	-999	6	[1, 4, 1]	6.0	catFR1	1	R1441T
775.048	3.983	881684	PROB	3.966	n/a	n/a	n/a	-999	6	[3, 2, 5]	10.0	catFR1	1	R1441T
779.031	5.183	885667	PROB	5.166	n/a	n/a	n/a	-999	6	[8, 3, 3]	14.0	catFR1	1	R1441T
784.214	5.315	890849	PROB	5.299	n/a	n/a	n/a	-999	6	[2, 6, 6]	14.0	catFR1	1	R1441T
789.529	0.0	896164	STOP	n/a	n/a	n/a	n/a	-999	6	[-999, -999, -999]	n/a	catFR1	1	R1441T
789.529	2.302	896166	DISTRACT_END	n/a	n/a	n/a	n/a	-999	6	[0, 0, 0]	n/a	catFR1	1	R1441T
791.831	0.414	898465	REC_START	n/a	n/a	n/a	n/a	-999	6	[0, 0, 0]	n/a	catFR1	1	R1441T
792.245	0.331	898880	REC_WORD	0.414	n/a	FLEECE	Fabric	1	6	[0, 0, 0]	n/a	catFR1	1	R1441T
792.576	0.918	899211	REC_WORD	0.745	n/a	SATIN	Fabric	2	6	[0, 0, 0]	n/a	catFR1	1	R1441T
793.494	0.56	900129	REC_WORD	1.663	n/a	LEATHER	Fabric	11	6	[0, 0, 0]	n/a	catFR1	1	R1441T
794.054	28.023	900689	REC_WORD	2.223	n/a	SUEDE	Fabric	12	6	[0, 0, 0]	n/a	catFR1	1	R1441T
822.077	1.504	928706	REC_END	n/a	n/a	n/a	n/a	-999	6	[0, 0, 0]	n/a	catFR1	1	R1441T
823.581	10.35	930215	COUNTDOWN_START	n/a	n/a	n/a	n/a	-999	7	[0, 0, 0]	n/a	catFR1	1	R1441T
833.931	0.0	940554	COUNTDOWN_END	n/a	n/a	n/a	n/a	-999	7	[0, 0, 0]	n/a	catFR1	1	R1441T
833.931	1.966	940568	ENCODING_START	n/a	n/a	n/a	n/a	-999	7	[0, 0, 0]	n/a	catFR1	1	R1441T
835.897	1.6	942524	WORD	n/a	wordpools/wordpool_categorized_EN.txt	BEACH	Landscapes	1	7	[0, 0, 0]	n/a	catFR1	1	R1441T
837.497	0.882	944131	WORD_OFF	n/a	n/a	BEACH	Landscapes	1	7	[0, 0, 0]	n/a	catFR1	1	R1441T
838.379	1.601	945011	WORD	n/a	wordpools/wordpool_categorized_EN.txt	VALLEY	Landscapes	2	7	[0, 0, 0]	n/a	catFR1	1	R1441T
839.98	1.0	946604	WORD_OFF	n/a	n/a	VALLEY	Landscapes	2	7	[0, 0, 0]	n/a	catFR1	1	R1441T
840.98	1.601	947610	WORD	n/a	wordpools/wordpool_categorized_EN.txt	DENIM	Fabric	3	7	[0, 0, 0]	n/a	catFR1	1	R1441T
842.581	0.882	949203	WORD_OFF	n/a	n/a	DENIM	Fabric	3	7	[0, 0, 0]	n/a	catFR1	1	R1441T
843.463	1.601	950097	WORD	n/a	wordpools/wordpool_categorized_EN.txt	SILK	Fabric	4	7	[0, 0, 0]	n/a	catFR1	1	R1441T
845.064	0.949	951690	WORD_OFF	n/a	n/a	SILK	Fabric	4	7	[0, 0, 0]	n/a	catFR1	1	R1441T
846.013	1.6	952640	WORD	n/a	wordpools/wordpool_categorized_EN.txt	HAWK	Birds	5	7	[0, 0, 0]	n/a	catFR1	1	R1441T
847.613	0.884	954247	WORD_OFF	n/a	n/a	HAWK	Birds	5	7	[0, 0, 0]	n/a	catFR1	1	R1441T
848.497	1.6	955127	WORD	n/a	wordpools/wordpool_categorized_EN.txt	CROW	Birds	6	7	[0, 0, 0]	n/a	catFR1	1	R1441T
850.097	0.95	956720	WORD_OFF	n/a	n/a	CROW	Birds	6	7	[0, 0, 0]	n/a	catFR1	1	R1441T
851.047	1.617	957684	WORD	n/a	wordpools/wordpool_categorized_EN.txt	NYLON	Fabric	7	7	[0, 0, 0]	n/a	catFR1	1	R1441T
852.664	0.783	959291	WORD_OFF	n/a	n/a	NYLON	Fabric	7	7	[0, 0, 0]	n/a	catFR1	1	R1441T
853.447	1.6	960073	WORD	n/a	wordpools/wordpool_categorized_EN.txt	LINEN	Fabric	8	7	[0, 0, 0]	n/a	catFR1	1	R1441T
855.047	0.932	961680	WORD_OFF	n/a	n/a	LINEN	Fabric	8	7	[0, 0, 0]	n/a	catFR1	1	R1441T
855.979	1.602	962602	WORD	n/a	wordpools/wordpool_categorized_EN.txt	SEAGULL	Birds	9	7	[0, 0, 0]	n/a	catFR1	1	R1441T
857.581	0.899	964209	WORD_OFF	n/a	n/a	SEAGULL	Birds	9	7	[0, 0, 0]	n/a	catFR1	1	R1441T
858.48	1.617	965103	WORD	n/a	wordpools/wordpool_categorized_EN.txt	GOOSE	Birds	10	7	[0, 0, 0]	n/a	catFR1	1	R1441T
860.097	0.783	966724	WORD_OFF	n/a	n/a	GOOSE	Birds	10	7	[0, 0, 0]	n/a	catFR1	1	R1441T
860.88	1.6	967506	WORD	n/a	wordpools/wordpool_categorized_EN.txt	ISLAND	Landscapes	11	7	[0, 0, 0]	n/a	catFR1	1	R1441T
862.48	0.884	969113	WORD_OFF	n/a	n/a	ISLAND	Landscapes	11	7	[0, 0, 0]	n/a	catFR1	1	R1441T
863.364	1.615	969993	WORD	n/a	wordpools/wordpool_categorized_EN.txt	HILLS	Landscapes	12	7	[0, 0, 0]	n/a	catFR1	1	R1441T
864.979	0.001	971600	WORD_OFF	n/a	n/a	HILLS	Landscapes	12	7	[0, 0, 0]	n/a	catFR1	1	R1441T
864.98	0.001	971611	PROB	10.899	n/a	n/a	n/a	-999	7	[8, 1, 3]	12.0	catFR1	1	R1441T
864.981	0.0	971612	START	n/a	n/a	n/a	n/a	-999	7	[-999, -999, -999]	n/a	catFR1	1	R1441T
864.981	0.0	971614	ENCODING_END	n/a	n/a	n/a	n/a	-999	7	[0, 0, 0]	n/a	catFR1	1	R1441T
864.981	10.917	971614	DISTRACT_START	n/a	n/a	n/a	n/a	-999	7	[0, 0, 0]	n/a	catFR1	1	R1441T
875.898	3.583	982529	PROB	3.566	n/a	n/a	n/a	-999	7	[6, 4, 3]	13.0	catFR1	1	R1441T
879.481	4.133	986111	PROB	4.116	n/a	n/a	n/a	-999	7	[4, 1, 5]	10.0	catFR1	1	R1441T
883.614	3.166	990244	PROB	3.149	n/a	n/a	n/a	-999	7	[4, 6, 3]	13.0	catFR1	1	R1441T
886.78	0.0	993410	DISTRACT_END	n/a	n/a	n/a	n/a	-999	7	[0, 0, 0]	n/a	catFR1	1	R1441T
886.78	2.134	993410	STOP	n/a	n/a	n/a	n/a	-999	7	[-999, -999, -999]	n/a	catFR1	1	R1441T
888.914	0.365	995541	REC_START	n/a	n/a	n/a	n/a	-999	7	[0, 0, 0]	n/a	catFR1	1	R1441T
889.279	0.895	995909	REC_WORD	0.365	n/a	BEACH	Landscapes	1	7	[0, 0, 0]	n/a	catFR1	1	R1441T
890.174	0.73	996804	REC_WORD	1.26	n/a	VALLEY	Landscapes	2	7	[0, 0, 0]	n/a	catFR1	1	R1441T
890.904	0.666	997534	REC_WORD	1.99	n/a	DENIM	Fabric	3	7	[0, 0, 0]	n/a	catFR1	1	R1441T
891.57	0.888	998200	REC_WORD	2.656	n/a	SILK	Fabric	4	7	[0, 0, 0]	n/a	catFR1	1	R1441T
892.458	26.681	999088	REC_WORD	3.544	n/a	LINEN	Fabric	8	7	[0, 0, 0]	n/a	catFR1	1	R1441T
919.139	2.757	1025768	REC_END	n/a	n/a	n/a	n/a	-999	7	[0, 0, 0]	n/a	catFR1	1	R1441T
921.896	10.35	1028521	COUNTDOWN_START	n/a	n/a	n/a	n/a	-999	8	[0, 0, 0]	n/a	catFR1	1	R1441T
932.246	0.0	1038874	COUNTDOWN_END	n/a	n/a	n/a	n/a	-999	8	[0, 0, 0]	n/a	catFR1	1	R1441T
932.246	2.05	1038874	ENCODING_START	n/a	n/a	n/a	n/a	-999	8	[0, 0, 0]	n/a	catFR1	1	R1441T
934.296	1.6	1040914	WORD	n/a	wordpools/wordpool_categorized_EN.txt	LIGHTNING	Weather	1	8	[0, 0, 0]	n/a	catFR1	1	R1441T
935.896	0.984	1042521	WORD_OFF	n/a	n/a	LIGHTNING	Weather	1	8	[0, 0, 0]	n/a	catFR1	1	R1441T
936.88	1.616	1043499	WORD	n/a	wordpools/wordpool_categorized_EN.txt	HURRICANE	Weather	2	8	[0, 0, 0]	n/a	catFR1	1	R1441T
938.496	0.951	1045119	WORD_OFF	n/a	n/a	HURRICANE	Weather	2	8	[0, 0, 0]	n/a	catFR1	1	R1441T
939.447	1.6	1046070	WORD	n/a	wordpools/wordpool_categorized_EN.txt	NOTEBOOK	OfficeSupplies	3	8	[0, 0, 0]	n/a	catFR1	1	R1441T
941.047	0.85	1047676	WORD_OFF	n/a	n/a	NOTEBOOK	OfficeSupplies	3	8	[0, 0, 0]	n/a	catFR1	1	R1441T
941.897	1.616	1048515	WORD	n/a	wordpools/wordpool_categorized_EN.txt	BINDER	OfficeSupplies	4	8	[0, 0, 0]	n/a	catFR1	1	R1441T
943.513	1.001	1050135	WORD_OFF	n/a	n/a	BINDER	OfficeSupplies	4	8	[0, 0, 0]	n/a	catFR1	1	R1441T
944.514	1.617	1051141	WORD	n/a	wordpools/wordpool_categorized_EN.txt	CREEK	Landscapes	5	8	[0, 0, 0]	n/a	catFR1	1	R1441T
946.131	0.765	1052748	WORD_OFF	n/a	n/a	CREEK	Landscapes	5	8	[0, 0, 0]	n/a	catFR1	1	R1441T
946.896	1.601	1053517	WORD	n/a	wordpools/wordpool_categorized_EN.txt	OCEAN	Landscapes	6	8	[0, 0, 0]	n/a	catFR1	1	R1441T
948.497	0.949	1055123	WORD_OFF	n/a	n/a	OCEAN	Landscapes	6	8	[0, 0, 0]	n/a	catFR1	1	R1441T
949.446	1.601	1056073	WORD	n/a	wordpools/wordpool_categorized_EN.txt	STAPLER	OfficeSupplies	7	8	[0, 0, 0]	n/a	catFR1	1	R1441T
951.047	0.766	1057666	WORD_OFF	n/a	n/a	STAPLER	OfficeSupplies	7	8	[0, 0, 0]	n/a	catFR1	1	R1441T
951.813	1.601	1058435	WORD	n/a	wordpools/wordpool_categorized_EN.txt	RULER	OfficeSupplies	8	8	[0, 0, 0]	n/a	catFR1	1	R1441T
953.414	0.949	1060041	WORD_OFF	n/a	n/a	RULER	OfficeSupplies	8	8	[0, 0, 0]	n/a	catFR1	1	R1441T
954.363	1.6	1060991	WORD	n/a	wordpools/wordpool_categorized_EN.txt	CLOUD	Weather	9	8	[0, 0, 0]	n/a	catFR1	1	R1441T
955.963	0.817	1062584	WORD_OFF	n/a	n/a	CLOUD	Weather	9	8	[0, 0, 0]	n/a	catFR1	1	R1441T
956.78	1.616	1063409	WORD	n/a	wordpools/wordpool_categorized_EN.txt	TORNADO	Weather	10	8	[0, 0, 0]	n/a	catFR1	1	R1441T
958.396	0.801	1065015	WORD_OFF	n/a	n/a	TORNADO	Weather	10	8	[0, 0, 0]	n/a	catFR1	1	R1441T
959.197	1.6	1065826	WORD	n/a	wordpools/wordpool_categorized_EN.txt	RIVER	Landscapes	11	8	[0, 0, 0]	n/a	catFR1	1	R1441T
960.797	0.765	1067418	WORD_OFF	n/a	n/a	RIVER	Landscapes	11	8	[0, 0, 0]	n/a	catFR1	1	R1441T
961.562	1.601	1068187	WORD	n/a	wordpools/wordpool_categorized_EN.txt	MOUNTAIN	Landscapes	12	8	[0, 0, 0]	n/a	catFR1	1	R1441T
963.163	0.001	1069780	WORD_OFF	n/a	n/a	MOUNTAIN	Landscapes	12	8	[0, 0, 0]	n/a	catFR1	1	R1441T
963.164	0.001	1069790	PROB	12.549	n/a	n/a	n/a	-999	8	[7, 5, 1]	13.0	catFR1	1	R1441T
963.165	0.0	1069791	START	n/a	n/a	n/a	n/a	-999	8	[-999, -999, -999]	n/a	catFR1	1	R1441T
963.165	0.0	1069794	ENCODING_END	n/a	n/a	n/a	n/a	-999	8	[0, 0, 0]	n/a	catFR1	1	R1441T
963.165	12.566	1069794	DISTRACT_START	n/a	n/a	n/a	n/a	-999	8	[0, 0, 0]	n/a	catFR1	1	R1441T
975.731	3.849	1082357	PROB	3.833	n/a	n/a	n/a	-999	8	[6, 5, 4]	15.0	catFR1	1	R1441T
979.58	3.284	1086205	PROB	3.267	n/a	n/a	n/a	-999	8	[2, 3, 6]	11.0	catFR1	1	R1441T
982.864	15.167	1089489	PROB	15.149	n/a	n/a	n/a	-999	8	[8, 7, 8]	23.0	catFR1	1	R1441T
998.031	0.0	1104653	DISTRACT_END	n/a	n/a	n/a	n/a	-999	8	[0, 0, 0]	n/a	catFR1	1	R1441T
998.031	2.183	1104655	STOP	n/a	n/a	n/a	n/a	-999	8	[-999, -999, -999]	n/a	catFR1	1	R1441T
1000.214	1.027	1106841	REC_START	n/a	n/a	n/a	n/a	-999	8	[0, 0, 0]	n/a	catFR1	1	R1441T
1001.241	0.48	1107865	REC_WORD	1.027	n/a	LIGHTNING	Weather	1	8	[0, 0, 0]	n/a	catFR1	1	R1441T
1001.721	0.898	1108345	REC_WORD	1.507	n/a	HURRICANE	Weather	2	8	[0, 0, 0]	n/a	catFR1	1	R1441T
1002.619	0.569	1109243	REC_WORD	2.405	n/a	NOTEBOOK	OfficeSupplies	3	8	[0, 0, 0]	n/a	catFR1	1	R1441T
1003.188	0.765	1109812	REC_WORD	2.974	n/a	TORNADO	Weather	10	8	[0, 0, 0]	n/a	catFR1	1	R1441T
1003.953	26.509	1110577	REC_WORD	3.739	n/a	MOUNTAIN	Landscapes	12	8	[0, 0, 0]	n/a	catFR1	1	R1441T
1030.462	1.517	1137082	REC_END	n/a	n/a	n/a	n/a	-999	8	[0, 0, 0]	n/a	catFR1	1	R1441T
1031.979	10.352	1138605	COUNTDOWN_START	n/a	n/a	n/a	n/a	-999	9	[0, 0, 0]	n/a	catFR1	1	R1441T
1042.331	0.0	1148944	COUNTDOWN_END	n/a	n/a	n/a	n/a	-999	9	[0, 0, 0]	n/a	catFR1	1	R1441T
1042.331	1.798	1148958	ENCODING_START	n/a	n/a	n/a	n/a	-999	9	[0, 0, 0]	n/a	catFR1	1	R1441T
1044.129	1.601	1150746	WORD	n/a	wordpools/wordpool_categorized_EN.txt	PEN	OfficeSupplies	1	9	[0, 0, 0]	n/a	catFR1	1	R1441T
1045.73	0.933	1152353	WORD_OFF	n/a	n/a	PEN	OfficeSupplies	1	9	[0, 0, 0]	n/a	catFR1	1	R1441T
1046.663	1.618	1153275	WORD	n/a	wordpools/wordpool_categorized_EN.txt	PENCIL	OfficeSupplies	2	9	[0, 0, 0]	n/a	catFR1	1	R1441T
1048.281	0.982	1154896	WORD_OFF	n/a	n/a	PENCIL	OfficeSupplies	2	9	[0, 0, 0]	n/a	catFR1	1	R1441T
1049.263	1.601	1155874	WORD	n/a	wordpools/wordpool_categorized_EN.txt	LADYBUG	Insects	3	9	[0, 0, 0]	n/a	catFR1	1	R1441T
1050.864	0.965	1157481	WORD_OFF	n/a	n/a	LADYBUG	Insects	3	9	[0, 0, 0]	n/a	catFR1	1	R1441T
1051.829	1.601	1158445	WORD	n/a	wordpools/wordpool_categorized_EN.txt	BUTTERFLY	Insects	4	9	[0, 0, 0]	n/a	catFR1	1	R1441T
1053.43	0.984	1160052	WORD_OFF	n/a	n/a	BUTTERFLY	Insects	4	9	[0, 0, 0]	n/a	catFR1	1	R1441T
1054.414	1.616	1161030	WORD	n/a	wordpools/wordpool_categorized_EN.txt	FOG	Weather	5	9	[0, 0, 0]	n/a	catFR1	1	R1441T
1056.03	0.95	1162650	WORD_OFF	n/a	n/a	FOG	Weather	5	9	[0, 0, 0]	n/a	catFR1	1	R1441T
1056.98	1.601	1163600	WORD	n/a	wordpools/wordpool_categorized_EN.txt	THUNDER	Weather	6	9	[0, 0, 0]	n/a	catFR1	1	R1441T
1058.581	0.983	1165193	WORD_OFF	n/a	n/a	THUNDER	Weather	6	9	[0, 0, 0]	n/a	catFR1	1	R1441T
1059.564	1.617	1166185	WORD	n/a	wordpools/wordpool_categorized_EN.txt	BEE	Insects	7	9	[0, 0, 0]	n/a	catFR1	1	R1441T
1061.181	0.798	1167792	WORD_OFF	n/a	n/a	BEE	Insects	7	9	[0, 0, 0]	n/a	catFR1	1	R1441T
1061.979	1.601	1168602	WORD	n/a	wordpools/wordpool_categorized_EN.txt	MOSQUITO	Insects	8	9	[0, 0, 0]	n/a	catFR1	1	R1441T
1063.58	1.0	1170195	WORD_OFF	n/a	n/a	MOSQUITO	Insects	8	9	[0, 0, 0]	n/a	catFR1	1	R1441T
1064.58	1.601	1171201	WORD	n/a	wordpools/wordpool_categorized_EN.txt	RAIN	Weather	9	9	[0, 0, 0]	n/a	catFR1	1	R1441T
1066.181	0.783	1172794	WORD_OFF	n/a	n/a	RAIN	Weather	9	9	[0, 0, 0]	n/a	catFR1	1	R1441T
1066.964	1.617	1173576	WORD	n/a	wordpools/wordpool_categorized_EN.txt	DRIZZLE	Weather	10	9	[0, 0, 0]	n/a	catFR1	1	R1441T
1068.581	0.766	1175197	WORD_OFF	n/a	n/a	DRIZZLE	Weather	10	9	[0, 0, 0]	n/a	catFR1	1	R1441T
1069.347	1.6	1175966	WORD	n/a	wordpools/wordpool_categorized_EN.txt	GLUE	OfficeSupplies	11	9	[0, 0, 0]	n/a	catFR1	1	R1441T
1070.947	0.883	1177558	WORD_OFF	n/a	n/a	GLUE	OfficeSupplies	11	9	[0, 0, 0]	n/a	catFR1	1	R1441T
1071.83	1.6	1178453	WORD	n/a	wordpools/wordpool_categorized_EN.txt	PAPER	OfficeSupplies	12	9	[0, 0, 0]	n/a	catFR1	1	R1441T
1073.43	0.002	1180045	WORD_OFF	n/a	n/a	PAPER	OfficeSupplies	12	9	[0, 0, 0]	n/a	catFR1	1	R1441T
1073.432	0.0	1180045	ENCODING_END	n/a	n/a	n/a	n/a	-999	9	[0, 0, 0]	n/a	catFR1	1	R1441T
1073.432	0.0	1180045	DISTRACT_START	n/a	n/a	n/a	n/a	-999	9	[0, 0, 0]	n/a	catFR1	1	R1441T
1073.431	0.001	1180052	PROB	5.433	n/a	n/a	n/a	-999	9	[7, 1, 3]	11.0	catFR1	1	R1441T
1073.432	5.449	1180053	START	n/a	n/a	n/a	n/a	-999	9	[-999, -999, -999]	n/a	catFR1	1	R1441T
1078.881	5.55	1185501	PROB	5.533	n/a	n/a	n/a	-999	9	[5, 3, 2]	10.0	catFR1	1	R1441T
1084.431	6.416	1191051	PROB	6.4	n/a	n/a	n/a	-999	9	[5, 6, 5]	16.0	catFR1	1	R1441T
1090.847	6.898	1197467	PROB	6.883	n/a	n/a	n/a	-999	9	[4, 8, 5]	17.0	catFR1	1	R1441T
1097.745	0.0	1204356	DISTRACT_END	n/a	n/a	n/a	n/a	-999	9	[0, 0, 0]	n/a	catFR1	1	R1441T
1097.745	2.086	1204364	STOP	n/a	n/a	n/a	n/a	-999	9	[-999, -999, -999]	n/a	catFR1	1	R1441T
1099.831	0.604	1206446	REC_START	n/a	n/a	n/a	n/a	-999	9	[0, 0, 0]	n/a	catFR1	1	R1441T
1100.435	0.639	1207054	REC_WORD	0.604	n/a	PEN	OfficeSupplies	1	9	[0, 0, 0]	n/a	catFR1	1	R1441T
1101.074	0.782	1207693	REC_WORD	1.243	n/a	PENCIL	OfficeSupplies	2	9	[0, 0, 0]	n/a	catFR1	1	R1441T
1101.856	0.732	1208475	REC_WORD	2.025	n/a	PAPER	OfficeSupplies	12	9	[0, 0, 0]	n/a	catFR1	1	R1441T
1102.588	0.533	1209207	REC_WORD	2.757	n/a	BEE	Insects	7	9	[0, 0, 0]	n/a	catFR1	1	R1441T
1103.121	26.949	1209740	REC_WORD	3.29	n/a	FOG	Weather	5	9	[0, 0, 0]	n/a	catFR1	1	R1441T
1130.07	1.778	1236687	REC_END	n/a	n/a	n/a	n/a	-999	9	[0, 0, 0]	n/a	catFR1	1	R1441T
1131.848	10.347	1238461	COUNTDOWN_START	n/a	n/a	n/a	n/a	-999	10	[0, 0, 0]	n/a	catFR1	1	R1441T
1142.195	0.0	1248815	COUNTDOWN_END	n/a	n/a	n/a	n/a	-999	10	[0, 0, 0]	n/a	catFR1	1	R1441T
1142.195	2.119	1248815	ENCODING_START	n/a	n/a	n/a	n/a	-999	10	[0, 0, 0]	n/a	catFR1	1	R1441T
1144.314	1.617	1250924	WORD	n/a	wordpools/wordpool_categorized_EN.txt	SNOW	Weather	1	10	[0, 0, 0]	n/a	catFR1	1	R1441T
1145.931	0.849	1252545	WORD_OFF	n/a	n/a	SNOW	Weather	1	10	[0, 0, 0]	n/a	catFR1	1	R1441T
1146.78	1.6	1253397	WORD	n/a	wordpools/wordpool_categorized_EN.txt	THUNDERSTORM	Weather	2	10	[0, 0, 0]	n/a	catFR1	1	R1441T
1148.38	0.95	1254990	WORD_OFF	n/a	n/a	THUNDERSTORM	Weather	2	10	[0, 0, 0]	n/a	catFR1	1	R1441T
1149.33	1.601	1255940	WORD	n/a	wordpools/wordpool_categorized_EN.txt	SPANDEX	Fabric	3	10	[0, 0, 0]	n/a	catFR1	1	R1441T
1150.931	0.766	1257547	WORD_OFF	n/a	n/a	SPANDEX	Fabric	3	10	[0, 0, 0]	n/a	catFR1	1	R1441T
1151.697	1.617	1258315	WORD	n/a	wordpools/wordpool_categorized_EN.txt	COTTON	Fabric	4	10	[0, 0, 0]	n/a	catFR1	1	R1441T
1153.314	0.983	1259922	WORD_OFF	n/a	n/a	COTTON	Fabric	4	10	[0, 0, 0]	n/a	catFR1	1	R1441T
1154.297	1.6	1260914	WORD	n/a	wordpools/wordpool_categorized_EN.txt	PIG	FarmAnimals	5	10	[0, 0, 0]	n/a	catFR1	1	R1441T
1155.897	0.934	1262507	WORD_OFF	n/a	n/a	PIG	FarmAnimals	5	10	[0, 0, 0]	n/a	catFR1	1	R1441T
1156.831	1.616	1263443	WORD	n/a	wordpools/wordpool_categorized_EN.txt	ROOSTER	FarmAnimals	6	10	[0, 0, 0]	n/a	catFR1	1	R1441T
1158.447	0.933	1265064	WORD_OFF	n/a	n/a	ROOSTER	FarmAnimals	6	10	[0, 0, 0]	n/a	catFR1	1	R1441T
1159.38	1.601	1265986	WORD	n/a	wordpools/wordpool_categorized_EN.txt	HUMIDITY	Weather	7	10	[0, 0, 0]	n/a	catFR1	1	R1441T
1160.981	0.766	1267593	WORD_OFF	n/a	n/a	HUMIDITY	Weather	7	10	[0, 0, 0]	n/a	catFR1	1	R1441T
1161.747	1.6	1268361	WORD	n/a	wordpools/wordpool_categorized_EN.txt	WIND	Weather	8	10	[0, 0, 0]	n/a	catFR1	1	R1441T
1163.347	0.95	1269954	WORD_OFF	n/a	n/a	WIND	Weather	8	10	[0, 0, 0]	n/a	catFR1	1	R1441T
1164.297	1.6	1270904	WORD	n/a	wordpools/wordpool_categorized_EN.txt	HORSE	FarmAnimals	9	10	[0, 0, 0]	n/a	catFR1	1	R1441T
1165.897	0.783	1272511	WORD_OFF	n/a	n/a	HORSE	FarmAnimals	9	10	[0, 0, 0]	n/a	catFR1	1	R1441T
1166.68	1.601	1273293	WORD	n/a	wordpools/wordpool_categorized_EN.txt	COW	FarmAnimals	10	10	[0, 0, 0]	n/a	catFR1	1	R1441T
1168.281	0.798	1274886	WORD_OFF	n/a	n/a	COW	FarmAnimals	10	10	[0, 0, 0]	n/a	catFR1	1	R1441T
1169.079	1.601	1275696	WORD	n/a	wordpools/wordpool_categorized_EN.txt	VELVET	Fabric	11	10	[0, 0, 0]	n/a	catFR1	1	R1441T
1170.68	0.799	1277289	WORD_OFF	n/a	n/a	VELVET	Fabric	11	10	[0, 0, 0]	n/a	catFR1	1	R1441T
1171.479	1.6	1278086	WORD	n/a	wordpools/wordpool_categorized_EN.txt	WOOL	Fabric	12	10	[0, 0, 0]	n/a	catFR1	1	R1441T
1173.079	0.001	1279692	WORD_OFF	n/a	n/a	WOOL	Fabric	12	10	[0, 0, 0]	n/a	catFR1	1	R1441T
1173.08	0.001	1279692	ENCODING_END	n/a	n/a	n/a	n/a	-999	10	[0, 0, 0]	n/a	catFR1	1	R1441T
1173.081	0.0	1279692	DISTRACT_START	n/a	n/a	n/a	n/a	-999	10	[0, 0, 0]	n/a	catFR1	1	R1441T
1173.08	0.001	1279696	PROB	10.816	n/a	n/a	n/a	-999	10	[8, 7, 4]	19.0	catFR1	1	R1441T
1173.081	10.833	1279697	START	n/a	n/a	n/a	n/a	-999	10	[-999, -999, -999]	n/a	catFR1	1	R1441T
1183.914	6.8	1290529	PROB	6.783	n/a	n/a	n/a	-999	10	[3, 6, 2]	11.0	catFR1	1	R1441T
1190.714	3.865	1297329	PROB	3.85	n/a	n/a	n/a	-999	10	[1, 1, 6]	8.0	catFR1	1	R1441T
1194.579	0.0	1301193	STOP	n/a	n/a	n/a	n/a	-999	10	[-999, -999, -999]	n/a	catFR1	1	R1441T
1194.579	2.202	1301195	DISTRACT_END	n/a	n/a	n/a	n/a	-999	10	[0, 0, 0]	n/a	catFR1	1	R1441T
1196.781	0.676	1303397	REC_START	n/a	n/a	n/a	n/a	-999	10	[0, 0, 0]	n/a	catFR1	1	R1441T
1197.457	0.947	1304071	REC_WORD	0.676	n/a	SNOW	Weather	1	10	[0, 0, 0]	n/a	catFR1	1	R1441T
1198.404	0.94	1305018	REC_WORD	1.623	n/a	THUNDERSTORM	Weather	2	10	[0, 0, 0]	n/a	catFR1	1	R1441T
1199.344	0.693	1305958	REC_WORD	2.563	n/a	COTTON	Fabric	4	10	[0, 0, 0]	n/a	catFR1	1	R1441T
1200.037	0.737	1306651	REC_WORD	3.256	n/a	PIG	FarmAnimals	5	10	[0, 0, 0]	n/a	catFR1	1	R1441T
1200.774	1.213	1307388	REC_WORD	3.993	n/a	ROOSTER	FarmAnimals	6	10	[0, 0, 0]	n/a	catFR1	1	R1441T
1201.987	0.818	1308601	REC_WORD	5.206	n/a	COW	FarmAnimals	10	10	[0, 0, 0]	n/a	catFR1	1	R1441T
1202.805	24.219	1309419	REC_WORD	6.024	n/a	SPANDEX	Fabric	3	10	[0, 0, 0]	n/a	catFR1	1	R1441T
1227.024	1.356	1333637	REC_END	n/a	n/a	n/a	n/a	-999	10	[0, 0, 0]	n/a	catFR1	1	R1441T
1228.38	10.35	1334993	COUNTDOWN_START	n/a	n/a	n/a	n/a	-999	11	[0, 0, 0]	n/a	catFR1	1	R1441T
1238.73	0.0	1345332	COUNTDOWN_END	n/a	n/a	n/a	n/a	-999	11	[0, 0, 0]	n/a	catFR1	1	R1441T
1238.73	2.165	1345346	ENCODING_START	n/a	n/a	n/a	n/a	-999	11	[0, 0, 0]	n/a	catFR1	1	R1441T
1240.895	1.601	1347498	WORD	n/a	wordpools/wordpool_categorized_EN.txt	MARIGOLD	Flowers	1	11	[0, 0, 0]	n/a	catFR1	1	R1441T
1242.496	0.934	1349104	WORD_OFF	n/a	n/a	MARIGOLD	Flowers	1	11	[0, 0, 0]	n/a	catFR1	1	R1441T
1243.43	1.6	1350040	WORD	n/a	wordpools/wordpool_categorized_EN.txt	DAFFODIL	Flowers	2	11	[0, 0, 0]	n/a	catFR1	1	R1441T
1245.03	0.767	1351647	WORD_OFF	n/a	n/a	DAFFODIL	Flowers	2	11	[0, 0, 0]	n/a	catFR1	1	R1441T
1245.797	1.617	1352402	WORD	n/a	wordpools/wordpool_categorized_EN.txt	BLOUSE	Clothing	3	11	[0, 0, 0]	n/a	catFR1	1	R1441T
1247.414	0.833	1354022	WORD_OFF	n/a	n/a	BLOUSE	Clothing	3	11	[0, 0, 0]	n/a	catFR1	1	R1441T
1248.247	1.6	1354861	WORD	n/a	wordpools/wordpool_categorized_EN.txt	SHORTS	Clothing	4	11	[0, 0, 0]	n/a	catFR1	1	R1441T
1249.847	0.933	1356453	WORD_OFF	n/a	n/a	SHORTS	Clothing	4	11	[0, 0, 0]	n/a	catFR1	1	R1441T
1250.78	1.601	1357390	WORD	n/a	wordpools/wordpool_categorized_EN.txt	SPINACH	Vegetables	5	11	[0, 0, 0]	n/a	catFR1	1	R1441T
1252.381	0.965	1358982	WORD_OFF	n/a	n/a	SPINACH	Vegetables	5	11	[0, 0, 0]	n/a	catFR1	1	R1441T
1253.346	1.601	1359960	WORD	n/a	wordpools/wordpool_categorized_EN.txt	PEAS	Vegetables	6	11	[0, 0, 0]	n/a	catFR1	1	R1441T
1254.947	0.817	1361553	WORD_OFF	n/a	n/a	PEAS	Vegetables	6	11	[0, 0, 0]	n/a	catFR1	1	R1441T
1255.764	1.615	1362378	WORD	n/a	wordpools/wordpool_categorized_EN.txt	ROSE	Flowers	7	11	[0, 0, 0]	n/a	catFR1	1	R1441T
1257.379	1.002	1363984	WORD_OFF	n/a	n/a	ROSE	Flowers	7	11	[0, 0, 0]	n/a	catFR1	1	R1441T
1258.381	1.616	1364990	WORD	n/a	wordpools/wordpool_categorized_EN.txt	SUNFLOWER	Flowers	8	11	[0, 0, 0]	n/a	catFR1	1	R1441T
1259.997	0.832	1366611	WORD_OFF	n/a	n/a	SUNFLOWER	Flowers	8	11	[0, 0, 0]	n/a	catFR1	1	R1441T
1260.829	1.601	1367435	WORD	n/a	wordpools/wordpool_categorized_EN.txt	SOCKS	Clothing	9	11	[0, 0, 0]	n/a	catFR1	1	R1441T
1262.43	0.85	1369042	WORD_OFF	n/a	n/a	SOCKS	Clothing	9	11	[0, 0, 0]	n/a	catFR1	1	R1441T
1263.28	1.6	1369880	WORD	n/a	wordpools/wordpool_categorized_EN.txt	PANTS	Clothing	10	11	[0, 0, 0]	n/a	catFR1	1	R1441T
1264.88	0.917	1371487	WORD_OFF	n/a	n/a	PANTS	Clothing	10	11	[0, 0, 0]	n/a	catFR1	1	R1441T
1265.797	1.617	1372409	WORD	n/a	wordpools/wordpool_categorized_EN.txt	LETTUCE	Vegetables	11	11	[0, 0, 0]	n/a	catFR1	1	R1441T
1267.414	0.765	1374016	WORD_OFF	n/a	n/a	LETTUCE	Vegetables	11	11	[0, 0, 0]	n/a	catFR1	1	R1441T
1268.179	1.617	1374785	WORD	n/a	wordpools/wordpool_categorized_EN.txt	BROCCOLI	Vegetables	12	11	[0, 0, 0]	n/a	catFR1	1	R1441T
1269.796	0.001	1376405	WORD_OFF	n/a	n/a	BROCCOLI	Vegetables	12	11	[0, 0, 0]	n/a	catFR1	1	R1441T
1269.797	0.0	1376405	ENCODING_END	n/a	n/a	n/a	n/a	-999	11	[0, 0, 0]	n/a	catFR1	1	R1441T
1269.797	0.0	1376405	DISTRACT_START	n/a	n/a	n/a	n/a	-999	11	[0, 0, 0]	n/a	catFR1	1	R1441T
1269.797	0.0	1376408	PROB	4.383	n/a	n/a	n/a	-999	11	[3, 3, 3]	9.0	catFR1	1	R1441T
1269.797	4.4	1376408	START	n/a	n/a	n/a	n/a	-999	11	[-999, -999, -999]	n/a	catFR1	1	R1441T
1274.197	12.35	1380807	PROB	12.333	n/a	n/a	n/a	-999	11	[7, 8, 5]	20.0	catFR1	1	R1441T
1286.547	14.366	1393157	PROB	14.348	n/a	n/a	n/a	-999	11	[2, 8, 6]	16.0	catFR1	1	R1441T
1300.913	0.0	1407520	DISTRACT_END	n/a	n/a	n/a	n/a	-999	11	[0, 0, 0]	n/a	catFR1	1	R1441T
1300.913	2.284	1407522	STOP	n/a	n/a	n/a	n/a	-999	11	[-999, -999, -999]	n/a	catFR1	1	R1441T
1303.197	0.734	1409806	REC_START	n/a	n/a	n/a	n/a	-999	11	[0, 0, 0]	n/a	catFR1	1	R1441T
1303.931	0.63	1410540	REC_WORD	0.734	n/a	BLOUSE	Clothing	3	11	[0, 0, 0]	n/a	catFR1	1	R1441T
1304.561	0.797	1411170	REC_WORD	1.364	n/a	SHORTS	Clothing	4	11	[0, 0, 0]	n/a	catFR1	1	R1441T
1305.358	0.626	1411967	REC_WORD	2.161	n/a	PANTS	Clothing	10	11	[0, 0, 0]	n/a	catFR1	1	R1441T
1305.984	0.837	1412593	REC_WORD	2.787	n/a	SOCKS	Clothing	9	11	[0, 0, 0]	n/a	catFR1	1	R1441T
1306.821	0.95	1413430	REC_WORD	3.624	n/a	ROSE	Flowers	7	11	[0, 0, 0]	n/a	catFR1	1	R1441T
1307.771	25.677	1414380	REC_WORD	4.574	n/a	MARIGOLD	Flowers	1	11	[0, 0, 0]	n/a	catFR1	1	R1441T
1333.448	1.465	1440047	REC_END	n/a	n/a	n/a	n/a	-999	11	[0, 0, 0]	n/a	catFR1	1	R1441T
1334.913	10.35	1441514	COUNTDOWN_START	n/a	n/a	n/a	n/a	-999	12	[0, 0, 0]	n/a	catFR1	1	R1441T
1345.263	0.0	1451867	COUNTDOWN_END	n/a	n/a	n/a	n/a	-999	12	[0, 0, 0]	n/a	catFR1	1	R1441T
1345.263	2.016	1451867	ENCODING_START	n/a	n/a	n/a	n/a	-999	12	[0, 0, 0]	n/a	catFR1	1	R1441T
1347.279	1.6	1453879	WORD	n/a	wordpools/wordpool_categorized_EN.txt	POTATO	Vegetables	1	12	[0, 0, 0]	n/a	catFR1	1	R1441T
1348.879	0.934	1455486	WORD_OFF	n/a	n/a	POTATO	Vegetables	1	12	[0, 0, 0]	n/a	catFR1	1	R1441T
1349.813	1.6	1456422	WORD	n/a	wordpools/wordpool_categorized_EN.txt	CUCUMBER	Vegetables	2	12	[0, 0, 0]	n/a	catFR1	1	R1441T
1351.413	0.9	1458015	WORD_OFF	n/a	n/a	CUCUMBER	Vegetables	2	12	[0, 0, 0]	n/a	catFR1	1	R1441T
1352.313	1.601	1458923	WORD	n/a	wordpools/wordpool_categorized_EN.txt	UNDERWEAR	Clothing	3	12	[0, 0, 0]	n/a	catFR1	1	R1441T
1353.914	0.866	1460516	WORD_OFF	n/a	n/a	UNDERWEAR	Clothing	3	12	[0, 0, 0]	n/a	catFR1	1	R1441T
1354.78	1.6	1461382	WORD	n/a	wordpools/wordpool_categorized_EN.txt	COAT	Clothing	4	12	[0, 0, 0]	n/a	catFR1	1	R1441T
1356.38	0.983	1462989	WORD_OFF	n/a	n/a	COAT	Clothing	4	12	[0, 0, 0]	n/a	catFR1	1	R1441T
1357.363	1.601	1463967	WORD	n/a	wordpools/wordpool_categorized_EN.txt	GOAT	FarmAnimals	5	12	[0, 0, 0]	n/a	catFR1	1	R1441T
1358.964	0.933	1465573	WORD_OFF	n/a	n/a	GOAT	FarmAnimals	5	12	[0, 0, 0]	n/a	catFR1	1	R1441T
1359.897	1.6	1466496	WORD	n/a	wordpools/wordpool_categorized_EN.txt	CHICKEN	FarmAnimals	6	12	[0, 0, 0]	n/a	catFR1	1	R1441T
1361.497	0.865	1468102	WORD_OFF	n/a	n/a	CHICKEN	FarmAnimals	6	12	[0, 0, 0]	n/a	catFR1	1	R1441T
1362.362	1.601	1468969	WORD	n/a	wordpools/wordpool_categorized_EN.txt	ONION	Vegetables	7	12	[0, 0, 0]	n/a	catFR1	1	R1441T
1363.963	1.0	1470561	WORD_OFF	n/a	n/a	ONION	Vegetables	7	12	[0, 0, 0]	n/a	catFR1	1	R1441T
1364.963	1.855	1471567	WORD	n/a	wordpools/wordpool_categorized_EN.txt	CARROT	Vegetables	8	12	[0, 0, 0]	n/a	catFR1	1	R1441T
1366.818	0.879	1473426	WORD_OFF	n/a	n/a	CARROT	Vegetables	8	12	[0, 0, 0]	n/a	catFR1	1	R1441T
1367.697	1.617	1474306	WORD	n/a	wordpools/wordpool_categorized_EN.txt	JACKET	Clothing	9	12	[0, 0, 0]	n/a	catFR1	1	R1441T
1369.314	0.983	1475913	WORD_OFF	n/a	n/a	JACKET	Clothing	9	12	[0, 0, 0]	n/a	catFR1	1	R1441T
1370.297	1.617	1476905	WORD	n/a	wordpools/wordpool_categorized_EN.txt	DRESS	Clothing	10	12	[0, 0, 0]	n/a	catFR1	1	R1441T
1371.914	0.766	1478511	WORD_OFF	n/a	n/a	DRESS	Clothing	10	12	[0, 0, 0]	n/a	catFR1	1	R1441T
1372.68	1.616	1479280	WORD	n/a	wordpools/wordpool_categorized_EN.txt	LAMB	FarmAnimals	11	12	[0, 0, 0]	n/a	catFR1	1	R1441T
1374.296	0.918	1480900	WORD_OFF	n/a	n/a	LAMB	FarmAnimals	11	12	[0, 0, 0]	n/a	catFR1	1	R1441T
1375.214	1.6	1481809	WORD	n/a	wordpools/wordpool_categorized_EN.txt	CALF	FarmAnimals	12	12	[0, 0, 0]	n/a	catFR1	1	R1441T
1376.814	0.001	1483415	WORD_OFF	n/a	n/a	CALF	FarmAnimals	12	12	[0, 0, 0]	n/a	catFR1	1	R1441T
1376.815	0.0	1483415	ENCODING_END	n/a	n/a	n/a	n/a	-999	12	[0, 0, 0]	n/a	catFR1	1	R1441T
1376.815	0.0	1483415	DISTRACT_START	n/a	n/a	n/a	n/a	-999	12	[0, 0, 0]	n/a	catFR1	1	R1441T
1376.815	0.0	1483420	START	n/a	n/a	n/a	n/a	-999	12	[-999, -999, -999]	n/a	catFR1	1	R1441T
1376.815	7.483	1483420	PROB	7.466	n/a	n/a	n/a	-999	12	[3, 7, 2]	12.0	catFR1	1	R1441T
1384.298	7.434	1490903	PROB	7.416	n/a	n/a	n/a	-999	12	[3, 8, 1]	12.0	catFR1	1	R1441T
1391.732	8.381	1498336	PROB	8.366	n/a	n/a	n/a	-999	12	[6, 3, 8]	17.0	catFR1	1	R1441T
1400.113	0.0	1506706	DISTRACT_END	n/a	n/a	n/a	n/a	-999	12	[0, 0, 0]	n/a	catFR1	1	R1441T
1400.113	2.017	1506717	STOP	n/a	n/a	n/a	n/a	-999	12	[-999, -999, -999]	n/a	catFR1	1	R1441T
1402.13	0.25	1508726	REC_START	n/a	n/a	n/a	n/a	-999	12	[0, 0, 0]	n/a	catFR1	1	R1441T
1402.38	0.746	1508984	REC_WORD	0.25	n/a	CALF	FarmAnimals	12	12	[0, 0, 0]	n/a	catFR1	1	R1441T
1403.126	0.642	1509730	REC_WORD	0.996	n/a	GOAT	FarmAnimals	5	12	[0, 0, 0]	n/a	catFR1	1	R1441T
1403.768	0.741	1510372	REC_WORD	1.638	n/a	LAMB	FarmAnimals	11	12	[0, 0, 0]	n/a	catFR1	1	R1441T
1404.509	1.29	1511113	REC_WORD	2.379	n/a	COAT	Clothing	4	12	[0, 0, 0]	n/a	catFR1	1	R1441T
1405.799	1.163	1512403	REC_WORD	3.669	n/a	UNDERWEAR	Clothing	3	12	[0, 0, 0]	n/a	catFR1	1	R1441T
1406.962	25.426	1513566	REC_WORD	4.832	n/a	CUCUMBER	Vegetables	2	12	[0, 0, 0]	n/a	catFR1	1	R1441T
1432.388	0.0	1538981	REC_END	n/a	n/a	n/a	n/a	-999	12	[0, 0, 0]	n/a	catFR1	1	R1441T
