onset	duration	sample	trial_type	response_time	stim_file	item_name	category	serialpos	list	test	answer	experiment	session	subject
0.0	2.753	309145	INSTRUCT_START	n/a	n/a	n/a	n/a	-999	-999	[0, 0, 0]	n/a	catFR1	4	R1525J
2.753	52.865	311898	INSTRUCT_END	n/a	n/a	n/a	n/a	-999	-999	[0, 0, 0]	n/a	catFR1	4	R1525J
55.618	10.349	364764	COUNTDOWN_START	n/a	n/a	n/a	n/a	-999	-999	[0, 0, 0]	n/a	catFR1	4	R1525J
65.967	0.0	375110	COUNTDOWN_END	n/a	n/a	n/a	n/a	-999	-999	[0, 0, 0]	n/a	catFR1	4	R1525J
65.967	2.299	375117	ENCODING_START	n/a	n/a	n/a	n/a	-999	-1	[0, 0, 0]	n/a	catFR1	4	R1525J
68.266	1.6	377407	WORD	n/a	n/a	MOUSSE	Desserts	1	-1	[0, 0, 0]	n/a	catFR1	4	R1525J
69.866	0.85	379010	WORD_OFF	n/a	n/a	MOUSSE	Desserts	1	-1	[0, 0, 0]	n/a	catFR1	4	R1525J
70.716	1.617	379861	WORD	n/a	n/a	BROWNIES	Desserts	2	-1	[0, 0, 0]	n/a	catFR1	4	R1525J
72.333	0.833	381479	WORD_OFF	n/a	n/a	BROWNIES	Desserts	2	-1	[0, 0, 0]	n/a	catFR1	4	R1525J
73.166	1.617	382307	WORD	n/a	n/a	HAWK	Birds	3	-1	[0, 0, 0]	n/a	catFR1	4	R1525J
74.783	0.985	383926	WORD_OFF	n/a	n/a	HAWK	Birds	3	-1	[0, 0, 0]	n/a	catFR1	4	R1525J
75.768	1.614	384910	WORD	n/a	n/a	GOOSE	Birds	4	-1	[0, 0, 0]	n/a	catFR1	4	R1525J
77.382	0.901	386529	WORD_OFF	n/a	n/a	GOOSE	Birds	4	-1	[0, 0, 0]	n/a	catFR1	4	R1525J
78.283	1.601	387424	WORD	n/a	n/a	BARBIE	Toys	5	-1	[0, 0, 0]	n/a	catFR1	4	R1525J
79.884	0.9	389027	WORD_OFF	n/a	n/a	BARBIE	Toys	5	-1	[0, 0, 0]	n/a	catFR1	4	R1525J
80.784	1.615	389930	WORD	n/a	n/a	MARBLES	Toys	6	-1	[0, 0, 0]	n/a	catFR1	4	R1525J
82.399	0.835	391541	WORD_OFF	n/a	n/a	MARBLES	Toys	6	-1	[0, 0, 0]	n/a	catFR1	4	R1525J
83.234	1.601	392376	WORD	n/a	n/a	BLUEBIRD	Birds	7	-1	[0, 0, 0]	n/a	catFR1	4	R1525J
84.835	0.833	393980	WORD_OFF	n/a	n/a	BLUEBIRD	Birds	7	-1	[0, 0, 0]	n/a	catFR1	4	R1525J
85.668	1.6	394815	WORD	n/a	n/a	PIGEON	Birds	8	-1	[0, 0, 0]	n/a	catFR1	4	R1525J
87.268	0.867	396411	WORD_OFF	n/a	n/a	PIGEON	Birds	8	-1	[0, 0, 0]	n/a	catFR1	4	R1525J
88.135	1.6	397277	WORD	n/a	n/a	DOLL	Toys	9	-1	[0, 0, 0]	n/a	catFR1	4	R1525J
89.735	0.883	398880	WORD_OFF	n/a	n/a	DOLL	Toys	9	-1	[0, 0, 0]	n/a	catFR1	4	R1525J
90.618	1.6	399760	WORD	n/a	n/a	BALL	Toys	10	-1	[0, 0, 0]	n/a	catFR1	4	R1525J
92.218	0.832	401364	WORD_OFF	n/a	n/a	BALL	Toys	10	-1	[0, 0, 0]	n/a	catFR1	4	R1525J
93.05	1.602	402192	WORD	n/a	n/a	PIE	Desserts	11	-1	[0, 0, 0]	n/a	catFR1	4	R1525J
94.652	0.883	403796	WORD_OFF	n/a	n/a	PIE	Desserts	11	-1	[0, 0, 0]	n/a	catFR1	4	R1525J
95.535	1.601	404676	WORD	n/a	n/a	PASTRY	Desserts	12	-1	[0, 0, 0]	n/a	catFR1	4	R1525J
97.136	0.0	406277	PROB	0.0	n/a	n/a	n/a	-999	-1	[4, 2, 3]	9	catFR1	4	R1525J
97.135	0.003	406279	WORD_OFF	n/a	n/a	PASTRY	Desserts	12	-1	[0, 0, 0]	n/a	catFR1	4	R1525J
97.138	0.0	406279	ENCODING_END	n/a	n/a	n/a	n/a	-999	-1	[0, 0, 0]	n/a	catFR1	4	R1525J
97.138	0.0	406279	DISTRACT_START	n/a	n/a	n/a	n/a	-999	-1	[0, 0, 0]	n/a	catFR1	4	R1525J
97.138	4.248	406279	START	n/a	n/a	n/a	n/a	-999	-1	[-999, -999, -999]	n/a	catFR1	4	R1525J
101.386	5.933	410527	PROB	5.933	n/a	n/a	n/a	-999	-1	[8, 7, 8]	22	catFR1	4	R1525J
107.319	3.049	416460	PROB	3.049	n/a	n/a	n/a	-999	-1	[7, 2, 5]	14	catFR1	4	R1525J
110.368	3.8	419508	PROB	3.8	n/a	n/a	n/a	-999	-1	[4, 3, 3]	10	catFR1	4	R1525J
114.168	2.933	423308	PROB	2.933	n/a	n/a	n/a	-999	-1	[7, 1, 5]	13	catFR1	4	R1525J
117.101	2.167	426241	PROB	2.167	n/a	n/a	n/a	-999	-1	[7, 5, 5]	17	catFR1	4	R1525J
119.268	0.0	428408	STOP	n/a	n/a	n/a	n/a	-999	-1	[-999, -999, -999]	n/a	catFR1	4	R1525J
119.268	1.883	428409	DISTRACT_END	n/a	n/a	n/a	n/a	-999	-1	[0, 0, 0]	n/a	catFR1	4	R1525J
121.151	1.592	430296	REC_START	n/a	n/a	n/a	n/a	-999	-1	[0, 0, 0]	n/a	catFR1	4	R1525J
122.743	1.346	431883	REC_WORD	1.346	n/a	MOUSSE	Desserts	1	-1	[0, 0, 0]	n/a	catFR1	4	R1525J
124.089	1.0	433229	REC_WORD	1.0	n/a	BROWNIES	Desserts	2	-1	[0, 0, 0]	n/a	catFR1	4	R1525J
125.089	1.107	434229	REC_WORD_VV	1.107	n/a	<>	n/a	-999	-1	[0, 0, 0]	n/a	catFR1	4	R1525J
126.196	1.0	435336	REC_WORD	1.0	n/a	PASTRY	Desserts	12	-1	[0, 0, 0]	n/a	catFR1	4	R1525J
127.196	1.615	436336	REC_WORD_VV	1.615	n/a	<>	n/a	-999	-1	[0, 0, 0]	n/a	catFR1	4	R1525J
128.811	1.043	437951	REC_WORD	1.043	n/a	DOLL	Toys	9	-1	[0, 0, 0]	n/a	catFR1	4	R1525J
129.854	1.192	438994	REC_WORD	1.192	n/a	DOLLHOUSE	n/a	-999	-1	[0, 0, 0]	n/a	catFR1	4	R1525J
131.046	1.144	440186	REC_WORD	1.144	n/a	BARBIE	Toys	5	-1	[0, 0, 0]	n/a	catFR1	4	R1525J
132.19	1.0	441330	REC_WORD	1.0	n/a	MARBLES	Toys	6	-1	[0, 0, 0]	n/a	catFR1	4	R1525J
133.19	0.923	442330	REC_WORD_VV	0.923	n/a	<>	n/a	-999	-1	[0, 0, 0]	n/a	catFR1	4	R1525J
134.113	1.668	443252	REC_WORD	1.668	n/a	BALL	Toys	10	-1	[0, 0, 0]	n/a	catFR1	4	R1525J
135.781	1.473	444920	REC_WORD	1.473	n/a	HAWK	Birds	3	-1	[0, 0, 0]	n/a	catFR1	4	R1525J
137.254	3.16	446393	REC_WORD	3.16	n/a	PIGEON	Birds	8	-1	[0, 0, 0]	n/a	catFR1	4	R1525J
140.414	1.0	449553	REC_WORD_VV	1.0	n/a	<>	n/a	-999	-1	[0, 0, 0]	n/a	catFR1	4	R1525J
141.414	2.083	450553	REC_WORD_VV	2.083	n/a	<>	n/a	-999	-1	[0, 0, 0]	n/a	catFR1	4	R1525J
143.497	3.227	452636	REC_WORD	3.227	n/a	BLUEBIRD	Birds	7	-1	[0, 0, 0]	n/a	catFR1	4	R1525J
146.724	1.0	455863	REC_WORD_VV	1.0	n/a	<>	n/a	-999	-1	[0, 0, 0]	n/a	catFR1	4	R1525J
147.724	2.491	456863	REC_WORD_VV	2.491	n/a	<>	n/a	-999	-1	[0, 0, 0]	n/a	catFR1	4	R1525J
150.215	1.123	459354	REC_WORD_VV	1.123	n/a	<>	n/a	-999	-1	[0, 0, 0]	n/a	catFR1	4	R1525J
151.338	8.363	460481	REC_END	n/a	n/a	n/a	n/a	-999	-1	[0, 0, 0]	n/a	catFR1	4	R1525J
159.701	10.351	468842	COUNTDOWN_START	n/a	n/a	n/a	n/a	-999	1	[0, 0, 0]	n/a	catFR1	4	R1525J
170.052	0.0	479195	COUNTDOWN_END	n/a	n/a	n/a	n/a	-999	1	[0, 0, 0]	n/a	catFR1	4	R1525J
170.052	1.931	479195	ENCODING_START	n/a	n/a	n/a	n/a	-999	1	[0, 0, 0]	n/a	catFR1	4	R1525J
171.983	1.602	481127	WORD	n/a	wordpools/wordpool_categorized_EN.txt	CARNATION	Flowers	1	1	[0, 0, 0]	n/a	catFR1	4	R1525J
173.585	0.95	482723	WORD_OFF	n/a	n/a	CARNATION	Flowers	1	1	[0, 0, 0]	n/a	catFR1	4	R1525J
174.535	1.615	483678	WORD	n/a	wordpools/wordpool_categorized_EN.txt	ROSE	Flowers	2	1	[0, 0, 0]	n/a	catFR1	4	R1525J
176.15	0.768	485289	WORD_OFF	n/a	n/a	ROSE	Flowers	2	1	[0, 0, 0]	n/a	catFR1	4	R1525J
176.918	1.616	486057	WORD	n/a	wordpools/wordpool_categorized_EN.txt	CYPRESS	Trees	3	1	[0, 0, 0]	n/a	catFR1	4	R1525J
178.534	0.784	487675	WORD_OFF	n/a	n/a	CYPRESS	Trees	3	1	[0, 0, 0]	n/a	catFR1	4	R1525J
179.318	1.6	488459	WORD	n/a	wordpools/wordpool_categorized_EN.txt	SPRUCE	Trees	4	1	[0, 0, 0]	n/a	catFR1	4	R1525J
180.918	0.966	490055	WORD_OFF	n/a	n/a	SPRUCE	Trees	4	1	[0, 0, 0]	n/a	catFR1	4	R1525J
181.884	1.601	491024	WORD	n/a	wordpools/wordpool_categorized_EN.txt	FOREST	Landscapes	5	1	[0, 0, 0]	n/a	catFR1	4	R1525J
183.485	0.899	492628	WORD_OFF	n/a	n/a	FOREST	Landscapes	5	1	[0, 0, 0]	n/a	catFR1	4	R1525J
184.384	1.601	493523	WORD	n/a	wordpools/wordpool_categorized_EN.txt	LAKE	Landscapes	6	1	[0, 0, 0]	n/a	catFR1	4	R1525J
185.985	0.783	495127	WORD_OFF	n/a	n/a	LAKE	Landscapes	6	1	[0, 0, 0]	n/a	catFR1	4	R1525J
186.768	1.617	495910	WORD	n/a	wordpools/wordpool_categorized_EN.txt	HICKORY	Trees	7	1	[0, 0, 0]	n/a	catFR1	4	R1525J
188.385	0.933	497521	WORD_OFF	n/a	n/a	HICKORY	Trees	7	1	[0, 0, 0]	n/a	catFR1	4	R1525J
189.318	1.616	498461	WORD	n/a	wordpools/wordpool_categorized_EN.txt	WILLOW	Trees	8	1	[0, 0, 0]	n/a	catFR1	4	R1525J
190.934	1.001	500072	WORD_OFF	n/a	n/a	WILLOW	Trees	8	1	[0, 0, 0]	n/a	catFR1	4	R1525J
191.935	1.617	501071	WORD	n/a	wordpools/wordpool_categorized_EN.txt	VIOLET	Flowers	9	1	[0, 0, 0]	n/a	catFR1	4	R1525J
193.552	0.983	502690	WORD_OFF	n/a	n/a	VIOLET	Flowers	9	1	[0, 0, 0]	n/a	catFR1	4	R1525J
194.535	1.6	503674	WORD	n/a	wordpools/wordpool_categorized_EN.txt	ORCHID	Flowers	10	1	[0, 0, 0]	n/a	catFR1	4	R1525J
196.135	0.882	505270	WORD_OFF	n/a	n/a	ORCHID	Flowers	10	1	[0, 0, 0]	n/a	catFR1	4	R1525J
197.017	1.601	506158	WORD	n/a	wordpools/wordpool_categorized_EN.txt	STREAM	Landscapes	11	1	[0, 0, 0]	n/a	catFR1	4	R1525J
198.618	0.883	507754	WORD_OFF	n/a	n/a	STREAM	Landscapes	11	1	[0, 0, 0]	n/a	catFR1	4	R1525J
199.501	1.601	508642	WORD	n/a	wordpools/wordpool_categorized_EN.txt	WOODS	Landscapes	12	1	[0, 0, 0]	n/a	catFR1	4	R1525J
201.102	0.001	510238	WORD_OFF	n/a	n/a	WOODS	Landscapes	12	1	[0, 0, 0]	n/a	catFR1	4	R1525J
201.103	0.001	510240	START	n/a	n/a	n/a	n/a	-999	1	[-999, -999, -999]	n/a	catFR1	4	R1525J
201.104	0.0	510241	PROB	0.0	n/a	n/a	n/a	-999	1	[6, 3, 7]	16	catFR1	4	R1525J
201.103	0.0	510245	ENCODING_END	n/a	n/a	n/a	n/a	-999	1	[0, 0, 0]	n/a	catFR1	4	R1525J
201.103	5.599	510245	DISTRACT_START	n/a	n/a	n/a	n/a	-999	1	[0, 0, 0]	n/a	catFR1	4	R1525J
206.702	4.016	515839	PROB	4.016	n/a	n/a	n/a	-999	1	[6, 3, 1]	15	catFR1	4	R1525J
210.718	3.367	519854	PROB	3.367	n/a	n/a	n/a	-999	1	[6, 4, 7]	17	catFR1	4	R1525J
214.085	4.366	523221	PROB	4.366	n/a	n/a	n/a	-999	1	[5, 1, 1]	7	catFR1	4	R1525J
218.451	2.3	527587	PROB	2.3	n/a	n/a	n/a	-999	1	[2, 5, 4]	11	catFR1	4	R1525J
220.751	3.616	529887	PROB	3.616	n/a	n/a	n/a	-999	1	[1, 7, 8]	16	catFR1	4	R1525J
224.367	0.0	533501	DISTRACT_END	n/a	n/a	n/a	n/a	-999	1	[0, 0, 0]	n/a	catFR1	4	R1525J
224.367	1.768	533503	STOP	n/a	n/a	n/a	n/a	-999	1	[-999, -999, -999]	n/a	catFR1	4	R1525J
226.135	1.947	535269	REC_START	n/a	n/a	n/a	n/a	-999	1	[0, 0, 0]	n/a	catFR1	4	R1525J
228.082	1.516	537218	REC_WORD	1.516	n/a	FOREST	Landscapes	5	1	[0, 0, 0]	n/a	catFR1	4	R1525J
229.598	1.29	538734	REC_WORD	1.29	n/a	WOODS	Landscapes	12	1	[0, 0, 0]	n/a	catFR1	4	R1525J
230.888	1.47	540024	REC_WORD	1.47	n/a	HICKORY	Trees	7	1	[0, 0, 0]	n/a	catFR1	4	R1525J
232.358	1.0	541493	REC_WORD	1.0	n/a	CYPRESS	Trees	3	1	[0, 0, 0]	n/a	catFR1	4	R1525J
233.358	0.809	542493	REC_WORD_VV	0.809	n/a	<>	n/a	-999	1	[0, 0, 0]	n/a	catFR1	4	R1525J
234.167	1.58	543302	REC_WORD	1.58	n/a	WILLOW	Trees	8	1	[0, 0, 0]	n/a	catFR1	4	R1525J
235.747	2.311	544882	REC_WORD	2.311	n/a	CARNATION	Flowers	1	1	[0, 0, 0]	n/a	catFR1	4	R1525J
238.058	1.0	547193	REC_WORD	1.0	n/a	ROSE	Flowers	2	1	[0, 0, 0]	n/a	catFR1	4	R1525J
239.058	2.085	548193	REC_WORD_VV	2.085	n/a	<>	n/a	-999	1	[0, 0, 0]	n/a	catFR1	4	R1525J
241.143	0.461	550278	REC_WORD_VV	0.461	n/a	<>	n/a	-999	1	[0, 0, 0]	n/a	catFR1	4	R1525J
241.604	0.708	550739	REC_WORD	0.708	n/a	LAKE	Landscapes	6	1	[0, 0, 0]	n/a	catFR1	4	R1525J
242.312	2.932	551447	REC_WORD	2.932	n/a	STREAM	Landscapes	11	1	[0, 0, 0]	n/a	catFR1	4	R1525J
245.244	3.732	554379	REC_WORD_VV	3.732	n/a	<>	n/a	-999	1	[0, 0, 0]	n/a	catFR1	4	R1525J
248.976	1.0	558111	REC_WORD_VV	1.0	n/a	<>	n/a	-999	1	[0, 0, 0]	n/a	catFR1	4	R1525J
249.976	1.375	559111	REC_WORD_VV	1.375	n/a	<>	n/a	-999	1	[0, 0, 0]	n/a	catFR1	4	R1525J
251.351	2.762	560486	REC_WORD	2.762	n/a	OAK	n/a	-999	1	[0, 0, 0]	n/a	catFR1	4	R1525J
254.113	1.0	563248	REC_WORD_VV	1.0	n/a	<>	n/a	-999	1	[0, 0, 0]	n/a	catFR1	4	R1525J
255.113	1.252	564248	REC_WORD_VV	1.252	n/a	<>	n/a	-999	1	[0, 0, 0]	n/a	catFR1	4	R1525J
256.365	1.803	565499	REC_END	n/a	n/a	n/a	n/a	-999	1	[0, 0, 0]	n/a	catFR1	4	R1525J
258.168	10.35	567304	COUNTDOWN_START	n/a	n/a	n/a	n/a	-999	1	[0, 0, 0]	n/a	catFR1	4	R1525J
268.518	0.0	577656	COUNTDOWN_END	n/a	n/a	n/a	n/a	-999	1	[0, 0, 0]	n/a	catFR1	4	R1525J
268.518	2.132	577656	ENCODING_START	n/a	n/a	n/a	n/a	-999	2	[0, 0, 0]	n/a	catFR1	4	R1525J
270.65	1.602	579782	WORD	n/a	wordpools/wordpool_categorized_EN.txt	ROBIN	Birds	1	2	[0, 0, 0]	n/a	catFR1	4	R1525J
272.252	0.983	581386	WORD_OFF	n/a	n/a	ROBIN	Birds	1	2	[0, 0, 0]	n/a	catFR1	4	R1525J
273.235	1.616	582370	WORD	n/a	wordpools/wordpool_categorized_EN.txt	CROW	Birds	2	2	[0, 0, 0]	n/a	catFR1	4	R1525J
274.851	0.951	583989	WORD_OFF	n/a	n/a	CROW	Birds	2	2	[0, 0, 0]	n/a	catFR1	4	R1525J
275.802	1.616	584936	WORD	n/a	wordpools/wordpool_categorized_EN.txt	SNOW	Weather	3	2	[0, 0, 0]	n/a	catFR1	4	R1525J
277.418	0.883	586555	WORD_OFF	n/a	n/a	SNOW	Weather	3	2	[0, 0, 0]	n/a	catFR1	4	R1525J
278.301	1.602	587435	WORD	n/a	wordpools/wordpool_categorized_EN.txt	FOG	Weather	4	2	[0, 0, 0]	n/a	catFR1	4	R1525J
279.903	0.865	589038	WORD_OFF	n/a	n/a	FOG	Weather	4	2	[0, 0, 0]	n/a	catFR1	4	R1525J
280.768	1.6	589904	WORD	n/a	wordpools/wordpool_categorized_EN.txt	PUDDING	Desserts	5	2	[0, 0, 0]	n/a	catFR1	4	R1525J
282.368	0.867	591507	WORD_OFF	n/a	n/a	PUDDING	Desserts	5	2	[0, 0, 0]	n/a	catFR1	4	R1525J
283.235	1.617	592372	WORD	n/a	wordpools/wordpool_categorized_EN.txt	CUPCAKE	Desserts	6	2	[0, 0, 0]	n/a	catFR1	4	R1525J
284.852	0.833	593983	WORD_OFF	n/a	n/a	CUPCAKE	Desserts	6	2	[0, 0, 0]	n/a	catFR1	4	R1525J
285.685	1.6	594819	WORD	n/a	wordpools/wordpool_categorized_EN.txt	DUCK	Birds	7	2	[0, 0, 0]	n/a	catFR1	4	R1525J
287.285	0.983	596422	WORD_OFF	n/a	n/a	DUCK	Birds	7	2	[0, 0, 0]	n/a	catFR1	4	R1525J
288.268	1.6	597407	WORD	n/a	wordpools/wordpool_categorized_EN.txt	CARDINAL	Birds	8	2	[0, 0, 0]	n/a	catFR1	4	R1525J
289.868	0.834	599003	WORD_OFF	n/a	n/a	CARDINAL	Birds	8	2	[0, 0, 0]	n/a	catFR1	4	R1525J
290.702	1.6	599839	WORD	n/a	wordpools/wordpool_categorized_EN.txt	COBBLER	Desserts	9	2	[0, 0, 0]	n/a	catFR1	4	R1525J
292.302	0.833	601435	WORD_OFF	n/a	n/a	COBBLER	Desserts	9	2	[0, 0, 0]	n/a	catFR1	4	R1525J
293.135	1.616	602270	WORD	n/a	wordpools/wordpool_categorized_EN.txt	CAKE	Desserts	10	2	[0, 0, 0]	n/a	catFR1	4	R1525J
294.751	0.817	603889	WORD_OFF	n/a	n/a	CAKE	Desserts	10	2	[0, 0, 0]	n/a	catFR1	4	R1525J
295.568	1.6	604702	WORD	n/a	wordpools/wordpool_categorized_EN.txt	CLOUD	Weather	11	2	[0, 0, 0]	n/a	catFR1	4	R1525J
297.168	0.966	606305	WORD_OFF	n/a	n/a	CLOUD	Weather	11	2	[0, 0, 0]	n/a	catFR1	4	R1525J
298.134	1.601	607267	WORD	n/a	wordpools/wordpool_categorized_EN.txt	THUNDERSTORM	Weather	12	2	[0, 0, 0]	n/a	catFR1	4	R1525J
299.735	0.001	608868	PROB	0.001	n/a	n/a	n/a	-999	2	[8, 1, 4]	13	catFR1	4	R1525J
299.736	0.0	608869	START	n/a	n/a	n/a	n/a	-999	2	[-999, -999, -999]	n/a	catFR1	4	R1525J
299.735	0.001	608871	WORD_OFF	n/a	n/a	THUNDERSTORM	Weather	12	2	[0, 0, 0]	n/a	catFR1	4	R1525J
299.736	0.0	608871	ENCODING_END	n/a	n/a	n/a	n/a	-999	2	[0, 0, 0]	n/a	catFR1	4	R1525J
299.736	3.9	608871	DISTRACT_START	n/a	n/a	n/a	n/a	-999	2	[0, 0, 0]	n/a	catFR1	4	R1525J
303.636	2.182	612769	PROB	2.182	n/a	n/a	n/a	-999	2	[7, 2, 5]	14	catFR1	4	R1525J
305.818	9.734	614950	PROB	9.734	n/a	n/a	n/a	-999	2	[6, 8, 7]	20	catFR1	4	R1525J
315.552	3.816	624684	PROB	3.816	n/a	n/a	n/a	-999	2	[3, 5, 8]	16	catFR1	4	R1525J
319.368	2.499	628500	PROB	2.499	n/a	n/a	n/a	-999	2	[7, 7, 1]	15	catFR1	4	R1525J
321.867	0.0	630999	STOP	n/a	n/a	n/a	n/a	-999	2	[-999, -999, -999]	n/a	catFR1	4	R1525J
321.867	1.617	631001	DISTRACT_END	n/a	n/a	n/a	n/a	-999	2	[0, 0, 0]	n/a	catFR1	4	R1525J
323.484	1.615	632619	REC_START	n/a	n/a	n/a	n/a	-999	2	[0, 0, 0]	n/a	catFR1	4	R1525J
325.099	0.75	634231	REC_WORD	0.75	n/a	THUNDER	n/a	-999	2	[0, 0, 0]	n/a	catFR1	4	R1525J
325.849	1.0	634981	REC_WORD	1.0	n/a	THUNDERSTORM	Weather	12	2	[0, 0, 0]	n/a	catFR1	4	R1525J
326.849	0.902	635981	REC_WORD_VV	0.902	n/a	<>	n/a	-999	2	[0, 0, 0]	n/a	catFR1	4	R1525J
327.751	1.0	636883	REC_WORD	1.0	n/a	FOG	Weather	4	2	[0, 0, 0]	n/a	catFR1	4	R1525J
328.751	1.904	637883	REC_WORD_VV	1.904	n/a	<>	n/a	-999	2	[0, 0, 0]	n/a	catFR1	4	R1525J
330.655	3.793	639786	REC_WORD_VV	3.793	n/a	<>	n/a	-999	2	[0, 0, 0]	n/a	catFR1	4	R1525J
334.448	1.0	643579	REC_WORD	1.0	n/a	CARDINAL	Birds	8	2	[0, 0, 0]	n/a	catFR1	4	R1525J
335.448	1.007	644579	REC_WORD_VV	1.007	n/a	<>	n/a	-999	2	[0, 0, 0]	n/a	catFR1	4	R1525J
336.455	2.554	645586	REC_WORD	2.554	n/a	ROBIN	Birds	1	2	[0, 0, 0]	n/a	catFR1	4	R1525J
339.009	1.589	648140	REC_WORD	1.589	n/a	DESSERT	n/a	-999	2	[0, 0, 0]	n/a	catFR1	4	R1525J
340.598	1.95	649729	REC_WORD	1.95	n/a	CUPCAKE	Desserts	6	2	[0, 0, 0]	n/a	catFR1	4	R1525J
342.548	2.117	651679	REC_WORD	2.117	n/a	CAKE	Desserts	10	2	[0, 0, 0]	n/a	catFR1	4	R1525J
344.665	1.0	653796	REC_WORD	1.0	n/a	COBBLER	Desserts	9	2	[0, 0, 0]	n/a	catFR1	4	R1525J
345.665	2.548	654796	REC_WORD_VV	2.548	n/a	<>	n/a	-999	2	[0, 0, 0]	n/a	catFR1	4	R1525J
348.213	1.0	657344	REC_WORD_VV	1.0	n/a	<>	n/a	-999	2	[0, 0, 0]	n/a	catFR1	4	R1525J
349.213	3.209	658344	REC_WORD_VV	3.209	n/a	<>	n/a	-999	2	[0, 0, 0]	n/a	catFR1	4	R1525J
352.422	1.245	661553	REC_WORD	1.245	n/a	CLOUD	Weather	11	2	[0, 0, 0]	n/a	catFR1	4	R1525J
353.667	1.701	662797	REC_END	n/a	n/a	n/a	n/a	-999	2	[0, 0, 0]	n/a	catFR1	4	R1525J
355.368	10.35	664505	COUNTDOWN_START	n/a	n/a	n/a	n/a	-999	2	[0, 0, 0]	n/a	catFR1	4	R1525J
365.718	0.0	674850	COUNTDOWN_END	n/a	n/a	n/a	n/a	-999	2	[0, 0, 0]	n/a	catFR1	4	R1525J
365.718	2.167	674850	ENCODING_START	n/a	n/a	n/a	n/a	-999	3	[0, 0, 0]	n/a	catFR1	4	R1525J
367.885	1.6	677013	WORD	n/a	wordpools/wordpool_categorized_EN.txt	NYLON	Fabric	1	3	[0, 0, 0]	n/a	catFR1	4	R1525J
369.485	0.983	678617	WORD_OFF	n/a	n/a	NYLON	Fabric	1	3	[0, 0, 0]	n/a	catFR1	4	R1525J
370.468	1.601	679601	WORD	n/a	wordpools/wordpool_categorized_EN.txt	SATIN	Fabric	2	3	[0, 0, 0]	n/a	catFR1	4	R1525J
372.069	0.849	681197	WORD_OFF	n/a	n/a	SATIN	Fabric	2	3	[0, 0, 0]	n/a	catFR1	4	R1525J
372.918	1.616	682048	WORD	n/a	wordpools/wordpool_categorized_EN.txt	COFFEE	Beverages	3	3	[0, 0, 0]	n/a	catFR1	4	R1525J
374.534	0.868	683666	WORD_OFF	n/a	n/a	COFFEE	Beverages	3	3	[0, 0, 0]	n/a	catFR1	4	R1525J
375.402	1.616	684531	WORD	n/a	wordpools/wordpool_categorized_EN.txt	SODA	Beverages	4	3	[0, 0, 0]	n/a	catFR1	4	R1525J
377.018	0.784	686150	WORD_OFF	n/a	n/a	SODA	Beverages	4	3	[0, 0, 0]	n/a	catFR1	4	R1525J
377.802	1.599	686933	WORD	n/a	wordpools/wordpool_categorized_EN.txt	HAND	BodyParts	5	3	[0, 0, 0]	n/a	catFR1	4	R1525J
379.401	0.834	688529	WORD_OFF	n/a	n/a	HAND	BodyParts	5	3	[0, 0, 0]	n/a	catFR1	4	R1525J
380.235	1.615	689365	WORD	n/a	wordpools/wordpool_categorized_EN.txt	KNEE	BodyParts	6	3	[0, 0, 0]	n/a	catFR1	4	R1525J
381.85	0.802	690983	WORD_OFF	n/a	n/a	KNEE	BodyParts	6	3	[0, 0, 0]	n/a	catFR1	4	R1525J
382.652	1.616	691781	WORD	n/a	wordpools/wordpool_categorized_EN.txt	RUM	Beverages	7	3	[0, 0, 0]	n/a	catFR1	4	R1525J
384.268	0.817	693400	WORD_OFF	n/a	n/a	RUM	Beverages	7	3	[0, 0, 0]	n/a	catFR1	4	R1525J
385.085	1.616	694213	WORD	n/a	wordpools/wordpool_categorized_EN.txt	WATER	Beverages	8	3	[0, 0, 0]	n/a	catFR1	4	R1525J
386.701	0.95	695831	WORD_OFF	n/a	n/a	WATER	Beverages	8	3	[0, 0, 0]	n/a	catFR1	4	R1525J
387.651	1.601	696786	WORD	n/a	wordpools/wordpool_categorized_EN.txt	NOSE	BodyParts	9	3	[0, 0, 0]	n/a	catFR1	4	R1525J
389.252	0.866	698382	WORD_OFF	n/a	n/a	NOSE	BodyParts	9	3	[0, 0, 0]	n/a	catFR1	4	R1525J
390.118	1.617	699247	WORD	n/a	wordpools/wordpool_categorized_EN.txt	EYE	BodyParts	10	3	[0, 0, 0]	n/a	catFR1	4	R1525J
391.735	0.983	700873	WORD_OFF	n/a	n/a	EYE	BodyParts	10	3	[0, 0, 0]	n/a	catFR1	4	R1525J
392.718	1.617	701850	WORD	n/a	wordpools/wordpool_categorized_EN.txt	DENIM	Fabric	11	3	[0, 0, 0]	n/a	catFR1	4	R1525J
394.335	0.883	703469	WORD_OFF	n/a	n/a	DENIM	Fabric	11	3	[0, 0, 0]	n/a	catFR1	4	R1525J
395.218	1.6	704349	WORD	n/a	wordpools/wordpool_categorized_EN.txt	VELVET	Fabric	12	3	[0, 0, 0]	n/a	catFR1	4	R1525J
396.818	0.001	705945	WORD_OFF	n/a	n/a	VELVET	Fabric	12	3	[0, 0, 0]	n/a	catFR1	4	R1525J
396.819	0.001	705948	PROB	0.001	n/a	n/a	n/a	-999	3	[4, 5, 8]	17	catFR1	4	R1525J
396.82	0.0	705949	START	n/a	n/a	n/a	n/a	-999	3	[-999, -999, -999]	n/a	catFR1	4	R1525J
396.82	0.0	705953	ENCODING_END	n/a	n/a	n/a	n/a	-999	3	[0, 0, 0]	n/a	catFR1	4	R1525J
396.82	4.131	705953	DISTRACT_START	n/a	n/a	n/a	n/a	-999	3	[0, 0, 0]	n/a	catFR1	4	R1525J
400.951	3.717	710080	PROB	3.717	n/a	n/a	n/a	-999	3	[2, 1, 5]	8	catFR1	4	R1525J
404.668	2.884	713796	PROB	2.884	n/a	n/a	n/a	-999	3	[3, 4, 7]	14	catFR1	4	R1525J
407.552	5.933	716680	PROB	5.933	n/a	n/a	n/a	-999	3	[6, 3, 5]	14	catFR1	4	R1525J
413.485	3.349	722613	PROB	3.349	n/a	n/a	n/a	-999	3	[3, 1, 6]	10	catFR1	4	R1525J
416.834	0.0	725962	STOP	n/a	n/a	n/a	n/a	-999	3	[-999, -999, -999]	n/a	catFR1	4	R1525J
416.834	1.616	725964	DISTRACT_END	n/a	n/a	n/a	n/a	-999	3	[0, 0, 0]	n/a	catFR1	4	R1525J
418.45	0.951	727583	REC_START	n/a	n/a	n/a	n/a	-999	3	[0, 0, 0]	n/a	catFR1	4	R1525J
419.401	1.536	728529	REC_WORD	1.536	n/a	NYLON	Fabric	1	3	[0, 0, 0]	n/a	catFR1	4	R1525J
420.937	1.879	730065	REC_WORD	1.879	n/a	SATIN	Fabric	2	3	[0, 0, 0]	n/a	catFR1	4	R1525J
422.816	1.609	731944	REC_WORD	1.609	n/a	VELVET	Fabric	12	3	[0, 0, 0]	n/a	catFR1	4	R1525J
424.425	1.936	733553	REC_WORD	1.936	n/a	DENIM	Fabric	11	3	[0, 0, 0]	n/a	catFR1	4	R1525J
426.361	2.342	735489	REC_WORD	2.342	n/a	EYE	BodyParts	10	3	[0, 0, 0]	n/a	catFR1	4	R1525J
428.703	1.764	737830	REC_WORD	1.764	n/a	ARM	n/a	-999	3	[0, 0, 0]	n/a	catFR1	4	R1525J
430.467	2.896	739594	REC_WORD	2.896	n/a	LEG	n/a	-999	3	[0, 0, 0]	n/a	catFR1	4	R1525J
433.363	1.0	742490	REC_WORD_VV	1.0	n/a	<>	n/a	-999	3	[0, 0, 0]	n/a	catFR1	4	R1525J
434.363	2.903	743490	REC_WORD_VV	2.903	n/a	<>	n/a	-999	3	[0, 0, 0]	n/a	catFR1	4	R1525J
437.266	1.0	746393	REC_WORD_VV	1.0	n/a	<>	n/a	-999	3	[0, 0, 0]	n/a	catFR1	4	R1525J
438.266	1.842	747393	REC_WORD_VV	1.842	n/a	<>	n/a	-999	3	[0, 0, 0]	n/a	catFR1	4	R1525J
440.108	4.053	749235	REC_WORD_VV	4.053	n/a	<>	n/a	-999	3	[0, 0, 0]	n/a	catFR1	4	R1525J
444.161	1.0	753288	REC_WORD_VV	1.0	n/a	<>	n/a	-999	3	[0, 0, 0]	n/a	catFR1	4	R1525J
445.161	1.0	754288	REC_WORD_VV	1.0	n/a	<>	n/a	-999	3	[0, 0, 0]	n/a	catFR1	4	R1525J
446.161	1.0	755288	REC_WORD_VV	1.0	n/a	<>	n/a	-999	3	[0, 0, 0]	n/a	catFR1	4	R1525J
447.161	1.0	756288	REC_WORD_VV	1.0	n/a	<>	n/a	-999	3	[0, 0, 0]	n/a	catFR1	4	R1525J
448.161	0.471	757288	REC_WORD_VV	0.471	n/a	<>	n/a	-999	3	[0, 0, 0]	n/a	catFR1	4	R1525J
448.632	1.535	757760	REC_END	n/a	n/a	n/a	n/a	-999	3	[0, 0, 0]	n/a	catFR1	4	R1525J
450.167	10.35	759297	COUNTDOWN_START	n/a	n/a	n/a	n/a	-999	3	[0, 0, 0]	n/a	catFR1	4	R1525J
460.517	0.001	769642	COUNTDOWN_END	n/a	n/a	n/a	n/a	-999	3	[0, 0, 0]	n/a	catFR1	4	R1525J
460.518	2.15	769649	ENCODING_START	n/a	n/a	n/a	n/a	-999	4	[0, 0, 0]	n/a	catFR1	4	R1525J
462.668	1.6	771798	WORD	n/a	wordpools/wordpool_categorized_EN.txt	ORANGUTAN	Zoo	1	4	[0, 0, 0]	n/a	catFR1	4	R1525J
464.268	0.949	773394	WORD_OFF	n/a	n/a	ORANGUTAN	Zoo	1	4	[0, 0, 0]	n/a	catFR1	4	R1525J
465.217	1.618	774348	WORD	n/a	wordpools/wordpool_categorized_EN.txt	GORILLA	Zoo	2	4	[0, 0, 0]	n/a	catFR1	4	R1525J
466.835	0.983	775959	WORD_OFF	n/a	n/a	GORILLA	Zoo	2	4	[0, 0, 0]	n/a	catFR1	4	R1525J
467.818	1.616	776944	WORD	n/a	wordpools/wordpool_categorized_EN.txt	NOTEBOOK	OfficeSupplies	3	4	[0, 0, 0]	n/a	catFR1	4	R1525J
469.434	0.934	778563	WORD_OFF	n/a	n/a	NOTEBOOK	OfficeSupplies	3	4	[0, 0, 0]	n/a	catFR1	4	R1525J
470.368	1.6	779495	WORD	n/a	wordpools/wordpool_categorized_EN.txt	PAPER	OfficeSupplies	4	4	[0, 0, 0]	n/a	catFR1	4	R1525J
471.968	0.884	781098	WORD_OFF	n/a	n/a	PAPER	OfficeSupplies	4	4	[0, 0, 0]	n/a	catFR1	4	R1525J
472.852	1.616	781979	WORD	n/a	wordpools/wordpool_categorized_EN.txt	TELEVISION	Electronics	5	4	[0, 0, 0]	n/a	catFR1	4	R1525J
474.468	0.933	783597	WORD_OFF	n/a	n/a	TELEVISION	Electronics	5	4	[0, 0, 0]	n/a	catFR1	4	R1525J
475.401	1.617	784529	WORD	n/a	wordpools/wordpool_categorized_EN.txt	PHONE	Electronics	6	4	[0, 0, 0]	n/a	catFR1	4	R1525J
477.018	0.85	786148	WORD_OFF	n/a	n/a	PHONE	Electronics	6	4	[0, 0, 0]	n/a	catFR1	4	R1525J
477.868	1.617	786998	WORD	n/a	wordpools/wordpool_categorized_EN.txt	GLUE	OfficeSupplies	7	4	[0, 0, 0]	n/a	catFR1	4	R1525J
479.485	0.9	788609	WORD_OFF	n/a	n/a	GLUE	OfficeSupplies	7	4	[0, 0, 0]	n/a	catFR1	4	R1525J
480.385	1.6	789512	WORD	n/a	wordpools/wordpool_categorized_EN.txt	TAPE	OfficeSupplies	8	4	[0, 0, 0]	n/a	catFR1	4	R1525J
481.985	0.916	791115	WORD_OFF	n/a	n/a	TAPE	OfficeSupplies	8	4	[0, 0, 0]	n/a	catFR1	4	R1525J
482.901	1.616	792025	WORD	n/a	wordpools/wordpool_categorized_EN.txt	COMPUTER	Electronics	9	4	[0, 0, 0]	n/a	catFR1	4	R1525J
484.517	0.818	793644	WORD_OFF	n/a	n/a	COMPUTER	Electronics	9	4	[0, 0, 0]	n/a	catFR1	4	R1525J
485.335	1.616	794464	WORD	n/a	wordpools/wordpool_categorized_EN.txt	STEREO	Electronics	10	4	[0, 0, 0]	n/a	catFR1	4	R1525J
486.951	0.884	796075	WORD_OFF	n/a	n/a	STEREO	Electronics	10	4	[0, 0, 0]	n/a	catFR1	4	R1525J
487.835	1.616	796963	WORD	n/a	wordpools/wordpool_categorized_EN.txt	BEAR	Zoo	11	4	[0, 0, 0]	n/a	catFR1	4	R1525J
489.451	0.884	798581	WORD_OFF	n/a	n/a	BEAR	Zoo	11	4	[0, 0, 0]	n/a	catFR1	4	R1525J
490.335	1.617	799462	WORD	n/a	wordpools/wordpool_categorized_EN.txt	GIRAFFE	Zoo	12	4	[0, 0, 0]	n/a	catFR1	4	R1525J
491.952	0.001	801077	PROB	0.001	n/a	n/a	n/a	-999	4	[4, 3, 7]	14	catFR1	4	R1525J
491.953	0.0	801078	START	n/a	n/a	n/a	n/a	-999	4	[-999, -999, -999]	n/a	catFR1	4	R1525J
491.951	0.002	801080	WORD_OFF	n/a	n/a	GIRAFFE	Zoo	12	4	[0, 0, 0]	n/a	catFR1	4	R1525J
491.953	0.0	801080	ENCODING_END	n/a	n/a	n/a	n/a	-999	4	[0, 0, 0]	n/a	catFR1	4	R1525J
491.953	3.832	801080	DISTRACT_START	n/a	n/a	n/a	n/a	-999	4	[0, 0, 0]	n/a	catFR1	4	R1525J
495.785	3.316	804910	PROB	3.316	n/a	n/a	n/a	-999	4	[4, 5, 4]	13	catFR1	4	R1525J
499.101	3.135	808226	PROB	3.135	n/a	n/a	n/a	-999	4	[8, 1, 4]	13	catFR1	4	R1525J
502.236	3.016	811360	PROB	3.016	n/a	n/a	n/a	-999	4	[4, 1, 2]	7	catFR1	4	R1525J
505.252	4.683	814376	PROB	4.683	n/a	n/a	n/a	-999	4	[4, 6, 5]	15	catFR1	4	R1525J
509.935	2.449	819059	PROB	2.449	n/a	n/a	n/a	-999	4	[2, 5, 5]	12	catFR1	4	R1525J
512.384	0.0	821508	STOP	n/a	n/a	n/a	n/a	-999	4	[-999, -999, -999]	n/a	catFR1	4	R1525J
512.384	1.65	821509	DISTRACT_END	n/a	n/a	n/a	n/a	-999	4	[0, 0, 0]	n/a	catFR1	4	R1525J
514.034	1.411	823158	REC_START	n/a	n/a	n/a	n/a	-999	4	[0, 0, 0]	n/a	catFR1	4	R1525J
515.445	1.609	824569	REC_WORD	1.609	n/a	ORANGUTAN	Zoo	1	4	[0, 0, 0]	n/a	catFR1	4	R1525J
517.054	2.215	826178	REC_WORD	2.215	n/a	GORILLA	Zoo	2	4	[0, 0, 0]	n/a	catFR1	4	R1525J
519.269	1.0	828393	REC_WORD_VV	1.0	n/a	<>	n/a	-999	4	[0, 0, 0]	n/a	catFR1	4	R1525J
520.269	2.926	829393	REC_WORD_VV	2.926	n/a	<>	n/a	-999	4	[0, 0, 0]	n/a	catFR1	4	R1525J
523.195	2.639	832319	REC_WORD_VV	2.639	n/a	<>	n/a	-999	4	[0, 0, 0]	n/a	catFR1	4	R1525J
525.834	1.386	834957	REC_WORD_VV	1.386	n/a	<>	n/a	-999	4	[0, 0, 0]	n/a	catFR1	4	R1525J
527.22	1.0	836343	REC_WORD_VV	1.0	n/a	<>	n/a	-999	4	[0, 0, 0]	n/a	catFR1	4	R1525J
528.22	1.0	837343	REC_WORD_VV	1.0	n/a	<>	n/a	-999	4	[0, 0, 0]	n/a	catFR1	4	R1525J
529.22	1.0	838343	REC_WORD_VV	1.0	n/a	<>	n/a	-999	4	[0, 0, 0]	n/a	catFR1	4	R1525J
530.22	2.49	839343	REC_WORD_VV	2.49	n/a	<>	n/a	-999	4	[0, 0, 0]	n/a	catFR1	4	R1525J
532.71	1.0	841833	REC_WORD_VV	1.0	n/a	<>	n/a	-999	4	[0, 0, 0]	n/a	catFR1	4	R1525J
533.71	4.983	842833	REC_WORD_VV	4.983	n/a	<>	n/a	-999	4	[0, 0, 0]	n/a	catFR1	4	R1525J
538.693	1.249	847816	REC_WORD_VV	1.249	n/a	<>	n/a	-999	4	[0, 0, 0]	n/a	catFR1	4	R1525J
539.942	1.0	849065	REC_WORD_VV	1.0	n/a	<>	n/a	-999	4	[0, 0, 0]	n/a	catFR1	4	R1525J
540.942	1.327	850065	REC_WORD_VV	1.327	n/a	<>	n/a	-999	4	[0, 0, 0]	n/a	catFR1	4	R1525J
542.269	1.0	851392	REC_WORD_VV	1.0	n/a	<>	n/a	-999	4	[0, 0, 0]	n/a	catFR1	4	R1525J
543.269	0.97	852392	REC_WORD_VV	0.97	n/a	<>	n/a	-999	4	[0, 0, 0]	n/a	catFR1	4	R1525J
544.239	12.429	853365	REC_END	n/a	n/a	n/a	n/a	-999	4	[0, 0, 0]	n/a	catFR1	4	R1525J
556.668	10.35	865791	COUNTDOWN_START	n/a	n/a	n/a	n/a	-999	4	[0, 0, 0]	n/a	catFR1	4	R1525J
567.018	0.0	876144	COUNTDOWN_END	n/a	n/a	n/a	n/a	-999	4	[0, 0, 0]	n/a	catFR1	4	R1525J
567.018	2.015	876144	ENCODING_START	n/a	n/a	n/a	n/a	-999	5	[0, 0, 0]	n/a	catFR1	4	R1525J
569.033	1.602	878158	WORD	n/a	wordpools/wordpool_categorized_EN.txt	SPATULA	KitchenTools	1	5	[0, 0, 0]	n/a	catFR1	4	R1525J
570.635	0.833	879761	WORD_OFF	n/a	n/a	SPATULA	KitchenTools	1	5	[0, 0, 0]	n/a	catFR1	4	R1525J
571.468	1.6	880589	WORD	n/a	wordpools/wordpool_categorized_EN.txt	CORKSCREW	KitchenTools	2	5	[0, 0, 0]	n/a	catFR1	4	R1525J
573.068	0.917	882193	WORD_OFF	n/a	n/a	CORKSCREW	KitchenTools	2	5	[0, 0, 0]	n/a	catFR1	4	R1525J
573.985	1.6	883110	WORD	n/a	wordpools/wordpool_categorized_EN.txt	DOVE	Birds	3	5	[0, 0, 0]	n/a	catFR1	4	R1525J
575.585	0.916	884706	WORD_OFF	n/a	n/a	DOVE	Birds	3	5	[0, 0, 0]	n/a	catFR1	4	R1525J
576.501	1.601	885624	WORD	n/a	wordpools/wordpool_categorized_EN.txt	FINCH	Birds	4	5	[0, 0, 0]	n/a	catFR1	4	R1525J
578.102	1.0	887227	WORD_OFF	n/a	n/a	FINCH	Birds	4	5	[0, 0, 0]	n/a	catFR1	4	R1525J
579.102	1.6	888227	WORD	n/a	wordpools/wordpool_categorized_EN.txt	SPIDER	Insects	5	5	[0, 0, 0]	n/a	catFR1	4	R1525J
580.702	0.781	889823	WORD_OFF	n/a	n/a	SPIDER	Insects	5	5	[0, 0, 0]	n/a	catFR1	4	R1525J
581.483	1.602	890606	WORD	n/a	wordpools/wordpool_categorized_EN.txt	CRICKET	Insects	6	5	[0, 0, 0]	n/a	catFR1	4	R1525J
583.085	0.85	892210	WORD_OFF	n/a	n/a	CRICKET	Insects	6	5	[0, 0, 0]	n/a	catFR1	4	R1525J
583.935	1.6	893060	WORD	n/a	wordpools/wordpool_categorized_EN.txt	SPARROW	Birds	7	5	[0, 0, 0]	n/a	catFR1	4	R1525J
585.535	1.0	894656	WORD_OFF	n/a	n/a	SPARROW	Birds	7	5	[0, 0, 0]	n/a	catFR1	4	R1525J
586.535	1.617	895656	WORD	n/a	wordpools/wordpool_categorized_EN.txt	SEAGULL	Birds	8	5	[0, 0, 0]	n/a	catFR1	4	R1525J
588.152	0.848	897274	WORD_OFF	n/a	n/a	SEAGULL	Birds	8	5	[0, 0, 0]	n/a	catFR1	4	R1525J
589.0	1.602	898125	WORD	n/a	wordpools/wordpool_categorized_EN.txt	BEE	Insects	9	5	[0, 0, 0]	n/a	catFR1	4	R1525J
590.602	0.966	899721	WORD_OFF	n/a	n/a	BEE	Insects	9	5	[0, 0, 0]	n/a	catFR1	4	R1525J
591.568	1.6	900690	WORD	n/a	wordpools/wordpool_categorized_EN.txt	GNAT	Insects	10	5	[0, 0, 0]	n/a	catFR1	4	R1525J
593.168	0.933	902294	WORD_OFF	n/a	n/a	GNAT	Insects	10	5	[0, 0, 0]	n/a	catFR1	4	R1525J
594.101	1.601	903226	WORD	n/a	wordpools/wordpool_categorized_EN.txt	GRATER	KitchenTools	11	5	[0, 0, 0]	n/a	catFR1	4	R1525J
595.702	0.866	904822	WORD_OFF	n/a	n/a	GRATER	KitchenTools	11	5	[0, 0, 0]	n/a	catFR1	4	R1525J
596.568	1.617	905688	WORD	n/a	wordpools/wordpool_categorized_EN.txt	SPOON	KitchenTools	12	5	[0, 0, 0]	n/a	catFR1	4	R1525J
598.185	0.003	907306	WORD_OFF	n/a	n/a	SPOON	KitchenTools	12	5	[0, 0, 0]	n/a	catFR1	4	R1525J
598.188	0.0	907306	ENCODING_END	n/a	n/a	n/a	n/a	-999	5	[0, 0, 0]	n/a	catFR1	4	R1525J
598.185	0.003	907306	PROB	0.003	n/a	n/a	n/a	-999	5	[4, 6, 2]	12	catFR1	4	R1525J
598.188	0.0	907309	START	n/a	n/a	n/a	n/a	-999	5	[-999, -999, -999]	n/a	catFR1	4	R1525J
598.188	6.063	907314	DISTRACT_START	n/a	n/a	n/a	n/a	-999	5	[0, 0, 0]	n/a	catFR1	4	R1525J
604.251	4.017	913371	PROB	4.017	n/a	n/a	n/a	-999	5	[6, 4, 3]	13	catFR1	4	R1525J
608.268	5.749	917388	PROB	5.749	n/a	n/a	n/a	-999	5	[4, 4, 4]	12	catFR1	4	R1525J
614.017	2.75	923137	PROB	2.75	n/a	n/a	n/a	-999	5	[7, 6, 1]	14	catFR1	4	R1525J
616.767	5.451	925887	PROB	5.451	n/a	n/a	n/a	-999	5	[8, 1, 2]	11	catFR1	4	R1525J
622.218	0.0	931338	DISTRACT_END	n/a	n/a	n/a	n/a	-999	5	[0, 0, 0]	n/a	catFR1	4	R1525J
622.218	1.816	931338	STOP	n/a	n/a	n/a	n/a	-999	5	[-999, -999, -999]	n/a	catFR1	4	R1525J
624.034	1.951	933158	REC_START	n/a	n/a	n/a	n/a	-999	5	[0, 0, 0]	n/a	catFR1	4	R1525J
625.985	1.0	935104	REC_WORD	1.0	n/a	SPATULA	KitchenTools	1	5	[0, 0, 0]	n/a	catFR1	4	R1525J
626.985	0.545	936104	REC_WORD_VV	0.545	n/a	<>	n/a	-999	5	[0, 0, 0]	n/a	catFR1	4	R1525J
627.53	1.0	936649	REC_WORD	1.0	n/a	CORKSCREW	KitchenTools	2	5	[0, 0, 0]	n/a	catFR1	4	R1525J
628.53	1.881	937649	REC_WORD_VV	1.881	n/a	<>	n/a	-999	5	[0, 0, 0]	n/a	catFR1	4	R1525J
630.411	1.0	939530	REC_WORD_VV	1.0	n/a	<>	n/a	-999	5	[0, 0, 0]	n/a	catFR1	4	R1525J
631.411	2.362	940530	REC_WORD_VV	2.362	n/a	<>	n/a	-999	5	[0, 0, 0]	n/a	catFR1	4	R1525J
633.773	5.382	942892	REC_WORD	5.382	n/a	DOVE	Birds	3	5	[0, 0, 0]	n/a	catFR1	4	R1525J
639.155	1.0	948274	REC_WORD	1.0	n/a	BIRD	n/a	-999	5	[0, 0, 0]	n/a	catFR1	4	R1525J
640.155	1.829	949274	REC_WORD_VV	1.829	n/a	<>	n/a	-999	5	[0, 0, 0]	n/a	catFR1	4	R1525J
641.984	1.134	951103	REC_WORD_VV	1.134	n/a	<>	n/a	-999	5	[0, 0, 0]	n/a	catFR1	4	R1525J
643.118	1.0	952237	REC_WORD	1.0	n/a	SPIDER	Insects	5	5	[0, 0, 0]	n/a	catFR1	4	R1525J
644.118	4.784	953237	REC_WORD_VV	4.784	n/a	<>	n/a	-999	5	[0, 0, 0]	n/a	catFR1	4	R1525J
648.902	5.355	958020	REC_WORD	5.355	n/a	GNAT	Insects	10	5	[0, 0, 0]	n/a	catFR1	4	R1525J
654.257	1.828	963380	REC_END	n/a	n/a	n/a	n/a	-999	5	[0, 0, 0]	n/a	catFR1	4	R1525J
656.085	10.349	965208	COUNTDOWN_START	n/a	n/a	n/a	n/a	-999	5	[0, 0, 0]	n/a	catFR1	4	R1525J
666.434	0.001	975553	COUNTDOWN_END	n/a	n/a	n/a	n/a	-999	5	[0, 0, 0]	n/a	catFR1	4	R1525J
666.435	2.267	975553	ENCODING_START	n/a	n/a	n/a	n/a	-999	6	[0, 0, 0]	n/a	catFR1	4	R1525J
668.702	1.6	977820	WORD	n/a	wordpools/wordpool_categorized_EN.txt	CAR	Vehicles	1	6	[0, 0, 0]	n/a	catFR1	4	R1525J
670.302	0.866	979424	WORD_OFF	n/a	n/a	CAR	Vehicles	1	6	[0, 0, 0]	n/a	catFR1	4	R1525J
671.168	1.6	980289	WORD	n/a	wordpools/wordpool_categorized_EN.txt	JEEP	Vehicles	2	6	[0, 0, 0]	n/a	catFR1	4	R1525J
672.768	0.767	981885	WORD_OFF	n/a	n/a	JEEP	Vehicles	2	6	[0, 0, 0]	n/a	catFR1	4	R1525J
673.535	1.6	982653	WORD	n/a	wordpools/wordpool_categorized_EN.txt	DRESS	Clothing	3	6	[0, 0, 0]	n/a	catFR1	4	R1525J
675.135	0.8	984257	WORD_OFF	n/a	n/a	DRESS	Clothing	3	6	[0, 0, 0]	n/a	catFR1	4	R1525J
675.935	1.616	985055	WORD	n/a	wordpools/wordpool_categorized_EN.txt	JEANS	Clothing	4	6	[0, 0, 0]	n/a	catFR1	4	R1525J
677.551	0.916	986674	WORD_OFF	n/a	n/a	JEANS	Clothing	4	6	[0, 0, 0]	n/a	catFR1	4	R1525J
678.467	1.601	987584	WORD	n/a	wordpools/wordpool_categorized_EN.txt	VIOLIN	Instruments	5	6	[0, 0, 0]	n/a	catFR1	4	R1525J
680.068	0.967	989187	WORD_OFF	n/a	n/a	VIOLIN	Instruments	5	6	[0, 0, 0]	n/a	catFR1	4	R1525J
681.035	1.617	990157	WORD	n/a	wordpools/wordpool_categorized_EN.txt	TROMBONE	Instruments	6	6	[0, 0, 0]	n/a	catFR1	4	R1525J
682.652	0.982	991768	WORD_OFF	n/a	n/a	TROMBONE	Instruments	6	6	[0, 0, 0]	n/a	catFR1	4	R1525J
683.634	1.601	992752	WORD	n/a	wordpools/wordpool_categorized_EN.txt	SCOOTER	Vehicles	7	6	[0, 0, 0]	n/a	catFR1	4	R1525J
685.235	0.9	994356	WORD_OFF	n/a	n/a	SCOOTER	Vehicles	7	6	[0, 0, 0]	n/a	catFR1	4	R1525J
686.135	1.616	995251	WORD	n/a	wordpools/wordpool_categorized_EN.txt	TRUCK	Vehicles	8	6	[0, 0, 0]	n/a	catFR1	4	R1525J
687.751	0.95	996870	WORD_OFF	n/a	n/a	TRUCK	Vehicles	8	6	[0, 0, 0]	n/a	catFR1	4	R1525J
688.701	1.601	997817	WORD	n/a	wordpools/wordpool_categorized_EN.txt	JACKET	Clothing	9	6	[0, 0, 0]	n/a	catFR1	4	R1525J
690.302	0.965	999420	WORD_OFF	n/a	n/a	JACKET	Clothing	9	6	[0, 0, 0]	n/a	catFR1	4	R1525J
691.267	1.6	1000383	WORD	n/a	wordpools/wordpool_categorized_EN.txt	UNDERWEAR	Clothing	10	6	[0, 0, 0]	n/a	catFR1	4	R1525J
692.867	0.967	1001986	WORD_OFF	n/a	n/a	UNDERWEAR	Clothing	10	6	[0, 0, 0]	n/a	catFR1	4	R1525J
693.834	1.601	1002956	WORD	n/a	wordpools/wordpool_categorized_EN.txt	TRUMPET	Instruments	11	6	[0, 0, 0]	n/a	catFR1	4	R1525J
695.435	0.916	1004552	WORD_OFF	n/a	n/a	TRUMPET	Instruments	11	6	[0, 0, 0]	n/a	catFR1	4	R1525J
696.351	1.601	1005469	WORD	n/a	wordpools/wordpool_categorized_EN.txt	DRUM	Instruments	12	6	[0, 0, 0]	n/a	catFR1	4	R1525J
697.952	0.001	1007068	PROB	0.001	n/a	n/a	n/a	-999	6	[1, 5, 6]	12	catFR1	4	R1525J
697.953	0.0	1007069	START	n/a	n/a	n/a	n/a	-999	6	[-999, -999, -999]	n/a	catFR1	4	R1525J
697.951	0.002	1007073	WORD_OFF	n/a	n/a	DRUM	Instruments	12	6	[0, 0, 0]	n/a	catFR1	4	R1525J
697.953	0.0	1007073	ENCODING_END	n/a	n/a	n/a	n/a	-999	6	[0, 0, 0]	n/a	catFR1	4	R1525J
697.953	5.198	1007073	DISTRACT_START	n/a	n/a	n/a	n/a	-999	6	[0, 0, 0]	n/a	catFR1	4	R1525J
703.151	4.033	1012267	PROB	4.033	n/a	n/a	n/a	-999	6	[5, 3, 8]	16	catFR1	4	R1525J
707.184	5.883	1016300	PROB	5.883	n/a	n/a	n/a	-999	6	[7, 6, 7]	20	catFR1	4	R1525J
713.067	2.834	1022183	PROB	2.834	n/a	n/a	n/a	-999	6	[2, 7, 6]	15	catFR1	4	R1525J
715.901	2.782	1025017	PROB	2.782	n/a	n/a	n/a	-999	6	[1, 7, 1]	9	catFR1	4	R1525J
718.683	0.0	1027799	STOP	n/a	n/a	n/a	n/a	-999	6	[-999, -999, -999]	n/a	catFR1	4	R1525J
718.683	1.867	1027800	DISTRACT_END	n/a	n/a	n/a	n/a	-999	6	[0, 0, 0]	n/a	catFR1	4	R1525J
720.55	1.108	1029665	REC_START	n/a	n/a	n/a	n/a	-999	6	[0, 0, 0]	n/a	catFR1	4	R1525J
721.658	1.363	1030773	REC_WORD	1.363	n/a	CAR	Vehicles	1	6	[0, 0, 0]	n/a	catFR1	4	R1525J
723.021	1.607	1032136	REC_WORD	1.607	n/a	JEEP	Vehicles	2	6	[0, 0, 0]	n/a	catFR1	4	R1525J
724.628	1.534	1033743	REC_WORD	1.534	n/a	TRUCK	Vehicles	8	6	[0, 0, 0]	n/a	catFR1	4	R1525J
726.162	2.057	1035277	REC_WORD	2.057	n/a	DRESS	Clothing	3	6	[0, 0, 0]	n/a	catFR1	4	R1525J
728.219	1.0	1037334	REC_WORD	1.0	n/a	JEANS	Clothing	4	6	[0, 0, 0]	n/a	catFR1	4	R1525J
729.219	0.902	1038334	REC_WORD_VV	0.902	n/a	<>	n/a	-999	6	[0, 0, 0]	n/a	catFR1	4	R1525J
730.121	2.572	1039236	REC_WORD	2.572	n/a	UNDERWEAR	Clothing	10	6	[0, 0, 0]	n/a	catFR1	4	R1525J
732.693	2.307	1041808	REC_WORD	2.307	n/a	VIOLIN	Instruments	5	6	[0, 0, 0]	n/a	catFR1	4	R1525J
735.0	3.306	1044115	REC_WORD	3.306	n/a	DRUM	Instruments	12	6	[0, 0, 0]	n/a	catFR1	4	R1525J
738.306	1.0	1047421	REC_WORD_VV	1.0	n/a	<>	n/a	-999	6	[0, 0, 0]	n/a	catFR1	4	R1525J
739.306	2.301	1048421	REC_WORD_VV	2.301	n/a	<>	n/a	-999	6	[0, 0, 0]	n/a	catFR1	4	R1525J
741.607	3.381	1050722	REC_WORD	3.381	n/a	TROMBONE	Instruments	6	6	[0, 0, 0]	n/a	catFR1	4	R1525J
744.988	1.0	1054102	REC_WORD_VV	1.0	n/a	<>	n/a	-999	6	[0, 0, 0]	n/a	catFR1	4	R1525J
745.988	2.713	1055102	REC_WORD_VV	2.713	n/a	<>	n/a	-999	6	[0, 0, 0]	n/a	catFR1	4	R1525J
748.701	2.07	1057815	REC_WORD_VV	2.07	n/a	<>	n/a	-999	6	[0, 0, 0]	n/a	catFR1	4	R1525J
750.771	0.0	1059888	REC_END	n/a	n/a	n/a	n/a	-999	6	[0, 0, 0]	n/a	catFR1	4	R1525J
