onset	duration	sample	trial_type	response_time	stim_file	item_name	category	serialpos	list	test	answer	experiment	session	subject
0.0	7.932	34748	INSTRUCT_START	n/a	n/a	n/a	n/a	-999	-999	[0, 0, 0]	n/a	catFR1	0	R1626S
7.932	77.249	42684	INSTRUCT_END	n/a	n/a	n/a	n/a	-999	-999	[0, 0, 0]	n/a	catFR1	0	R1626S
85.181	10.35	119927	COUNTDOWN_START	n/a	n/a	n/a	n/a	-999	-999	[0, 0, 0]	n/a	catFR1	0	R1626S
95.531	0.0	130276	COUNTDOWN_END	n/a	n/a	n/a	n/a	-999	-999	[0, 0, 0]	n/a	catFR1	0	R1626S
95.531	2.218	130276	ENCODING_START	n/a	n/a	n/a	n/a	-999	-1	[0, 0, 0]	n/a	catFR1	0	R1626S
97.749	1.599	132498	WORD	n/a	n/a	CIDER	Beverages	1	-1	[0, 0, 0]	n/a	catFR1	0	R1626S
99.348	0.883	134091	WORD_OFF	n/a	n/a	CIDER	Beverages	1	-1	[0, 0, 0]	n/a	catFR1	0	R1626S
100.231	1.6	134978	WORD	n/a	n/a	SODA	Beverages	2	-1	[0, 0, 0]	n/a	catFR1	0	R1626S
101.831	0.766	136581	WORD_OFF	n/a	n/a	SODA	Beverages	2	-1	[0, 0, 0]	n/a	catFR1	0	R1626S
102.597	1.602	137344	WORD	n/a	n/a	GNAT	Insects	3	-1	[0, 0, 0]	n/a	catFR1	0	R1626S
104.199	0.949	138946	WORD_OFF	n/a	n/a	GNAT	Insects	3	-1	[0, 0, 0]	n/a	catFR1	0	R1626S
105.148	1.617	139900	WORD	n/a	n/a	LADYBUG	Insects	4	-1	[0, 0, 0]	n/a	catFR1	0	R1626S
106.765	0.9	141512	WORD_OFF	n/a	n/a	LADYBUG	Insects	4	-1	[0, 0, 0]	n/a	catFR1	0	R1626S
107.665	1.617	142409	WORD	n/a	n/a	BROWNIES	Desserts	5	-1	[0, 0, 0]	n/a	catFR1	0	R1626S
109.282	0.8	144030	WORD_OFF	n/a	n/a	BROWNIES	Desserts	5	-1	[0, 0, 0]	n/a	catFR1	0	R1626S
110.082	1.615	144831	WORD	n/a	n/a	PUDDING	Desserts	6	-1	[0, 0, 0]	n/a	catFR1	0	R1626S
111.697	0.901	146443	WORD_OFF	n/a	n/a	PUDDING	Desserts	6	-1	[0, 0, 0]	n/a	catFR1	0	R1626S
112.598	1.617	147350	WORD	n/a	n/a	MOTH	Insects	7	-1	[0, 0, 0]	n/a	catFR1	0	R1626S
114.215	0.833	148962	WORD_OFF	n/a	n/a	MOTH	Insects	7	-1	[0, 0, 0]	n/a	catFR1	0	R1626S
115.048	1.617	149791	WORD	n/a	n/a	BUTTERFLY	Insects	8	-1	[0, 0, 0]	n/a	catFR1	0	R1626S
116.665	0.916	151413	WORD_OFF	n/a	n/a	BUTTERFLY	Insects	8	-1	[0, 0, 0]	n/a	catFR1	0	R1626S
117.581	1.6	152329	WORD	n/a	n/a	COFFEE	Beverages	9	-1	[0, 0, 0]	n/a	catFR1	0	R1626S
119.181	0.85	153931	WORD_OFF	n/a	n/a	COFFEE	Beverages	9	-1	[0, 0, 0]	n/a	catFR1	0	R1626S
120.031	1.6	154780	WORD	n/a	n/a	BEER	Beverages	10	-1	[0, 0, 0]	n/a	catFR1	0	R1626S
121.631	1.001	156383	WORD_OFF	n/a	n/a	BEER	Beverages	10	-1	[0, 0, 0]	n/a	catFR1	0	R1626S
122.632	1.6	157375	WORD	n/a	n/a	FUDGE	Desserts	11	-1	[0, 0, 0]	n/a	catFR1	0	R1626S
124.232	0.883	158977	WORD_OFF	n/a	n/a	FUDGE	Desserts	11	-1	[0, 0, 0]	n/a	catFR1	0	R1626S
125.115	1.602	159864	WORD	n/a	n/a	COOKIE	Desserts	12	-1	[0, 0, 0]	n/a	catFR1	0	R1626S
126.717	0.0	161463	START	n/a	n/a	n/a	n/a	-999	-1	[-999, -999, -999]	n/a	catFR1	0	R1626S
126.717	0.0	161463	PROB	28.832	n/a	n/a	n/a	-999	-1	[7, 3, 2]	12.0	catFR1	0	R1626S
126.715	0.001	161467	WORD_OFF	n/a	n/a	COOKIE	Desserts	12	-1	[0, 0, 0]	n/a	catFR1	0	R1626S
126.716	0.001	161467	ENCODING_END	n/a	n/a	n/a	n/a	-999	-1	[0, 0, 0]	n/a	catFR1	0	R1626S
126.717	28.848	161467	DISTRACT_START	n/a	n/a	n/a	n/a	-999	-1	[0, 0, 0]	n/a	catFR1	0	R1626S
155.565	0.0	190309	STOP	n/a	n/a	n/a	n/a	-999	-1	[-999, -999, -999]	n/a	catFR1	0	R1626S
155.565	2.267	190311	DISTRACT_END	n/a	n/a	n/a	n/a	-999	-1	[0, 0, 0]	n/a	catFR1	0	R1626S
157.832	1.0	192581	REC_START	n/a	n/a	n/a	n/a	-999	-1	[0, 0, 0]	n/a	catFR1	0	R1626S
158.832	1.0	193576	REC_WORD_VV	1.0	n/a	<>	n/a	-999	-1	[0, 0, 0]	n/a	catFR1	0	R1626S
159.832	1.0	194576	REC_WORD_VV	2.0	n/a	<>	n/a	-999	-1	[0, 0, 0]	n/a	catFR1	0	R1626S
160.832	1.0	195576	REC_WORD_VV	3.0	n/a	<>	n/a	-999	-1	[0, 0, 0]	n/a	catFR1	0	R1626S
161.832	1.0	196576	REC_WORD_VV	4.0	n/a	<>	n/a	-999	-1	[0, 0, 0]	n/a	catFR1	0	R1626S
162.832	1.0	197576	REC_WORD_VV	5.0	n/a	<>	n/a	-999	-1	[0, 0, 0]	n/a	catFR1	0	R1626S
163.832	1.0	198576	REC_WORD_VV	6.0	n/a	<>	n/a	-999	-1	[0, 0, 0]	n/a	catFR1	0	R1626S
164.832	2.387	199576	REC_WORD_VV	7.0	n/a	<>	n/a	-999	-1	[0, 0, 0]	n/a	catFR1	0	R1626S
167.219	3.403	201963	REC_WORD	9.387	n/a	CIDER	Beverages	1	-1	[0, 0, 0]	n/a	catFR1	0	R1626S
170.622	9.778	205366	REC_WORD	12.79	n/a	GNAT	Insects	3	-1	[0, 0, 0]	n/a	catFR1	0	R1626S
180.4	7.637	215143	REC_WORD	22.568	n/a	BROWNIES	Desserts	5	-1	[0, 0, 0]	n/a	catFR1	0	R1626S
188.037	43.128	222780	REC_END	n/a	n/a	n/a	n/a	-999	-1	[0, 0, 0]	n/a	catFR1	0	R1626S
231.165	10.349	265913	COUNTDOWN_START	n/a	n/a	n/a	n/a	-999	1	[0, 0, 0]	n/a	catFR1	0	R1626S
241.514	0.0	276252	COUNTDOWN_END	n/a	n/a	n/a	n/a	-999	1	[0, 0, 0]	n/a	catFR1	0	R1626S
241.514	2.101	276262	ENCODING_START	n/a	n/a	n/a	n/a	-999	1	[0, 0, 0]	n/a	catFR1	0	R1626S
243.615	1.617	278360	WORD	n/a	wordpools/wordpool_categorized_EN.txt	PIG	FarmAnimals	1	1	[0, 0, 0]	n/a	catFR1	0	R1626S
245.232	0.865	279972	WORD_OFF	n/a	n/a	PIG	FarmAnimals	1	1	[0, 0, 0]	n/a	catFR1	0	R1626S
246.097	1.601	280840	WORD	n/a	wordpools/wordpool_categorized_EN.txt	ROOSTER	FarmAnimals	2	1	[0, 0, 0]	n/a	catFR1	0	R1626S
247.698	0.833	282443	WORD_OFF	n/a	n/a	ROOSTER	FarmAnimals	2	1	[0, 0, 0]	n/a	catFR1	0	R1626S
248.531	1.601	283273	WORD	n/a	wordpools/wordpool_categorized_EN.txt	SHELF	Furniture	3	1	[0, 0, 0]	n/a	catFR1	0	R1626S
250.132	0.916	284875	WORD_OFF	n/a	n/a	SHELF	Furniture	3	1	[0, 0, 0]	n/a	catFR1	0	R1626S
251.048	1.617	285791	WORD	n/a	wordpools/wordpool_categorized_EN.txt	BED	Furniture	4	1	[0, 0, 0]	n/a	catFR1	0	R1626S
252.665	0.783	287403	WORD_OFF	n/a	n/a	BED	Furniture	4	1	[0, 0, 0]	n/a	catFR1	0	R1626S
253.448	1.617	288185	WORD	n/a	wordpools/wordpool_categorized_EN.txt	SUEDE	Fabric	5	1	[0, 0, 0]	n/a	catFR1	0	R1626S
255.065	0.9	289806	WORD_OFF	n/a	n/a	SUEDE	Fabric	5	1	[0, 0, 0]	n/a	catFR1	0	R1626S
255.965	1.616	290703	WORD	n/a	wordpools/wordpool_categorized_EN.txt	SATIN	Fabric	6	1	[0, 0, 0]	n/a	catFR1	0	R1626S
257.581	0.95	292325	WORD_OFF	n/a	n/a	SATIN	Fabric	6	1	[0, 0, 0]	n/a	catFR1	0	R1626S
258.531	1.617	293269	WORD	n/a	wordpools/wordpool_categorized_EN.txt	COW	FarmAnimals	7	1	[0, 0, 0]	n/a	catFR1	0	R1626S
260.148	0.883	294890	WORD_OFF	n/a	n/a	COW	FarmAnimals	7	1	[0, 0, 0]	n/a	catFR1	0	R1626S
261.031	1.6	295768	WORD	n/a	wordpools/wordpool_categorized_EN.txt	TURKEY	FarmAnimals	8	1	[0, 0, 0]	n/a	catFR1	0	R1626S
262.631	0.934	297370	WORD_OFF	n/a	n/a	TURKEY	FarmAnimals	8	1	[0, 0, 0]	n/a	catFR1	0	R1626S
263.565	1.6	298305	WORD	n/a	wordpools/wordpool_categorized_EN.txt	FLEECE	Fabric	9	1	[0, 0, 0]	n/a	catFR1	0	R1626S
265.165	0.933	299908	WORD_OFF	n/a	n/a	FLEECE	Fabric	9	1	[0, 0, 0]	n/a	catFR1	0	R1626S
266.098	1.6	300842	WORD	n/a	wordpools/wordpool_categorized_EN.txt	NYLON	Fabric	10	1	[0, 0, 0]	n/a	catFR1	0	R1626S
267.698	0.867	302435	WORD_OFF	n/a	n/a	NYLON	Fabric	10	1	[0, 0, 0]	n/a	catFR1	0	R1626S
268.565	1.6	303303	WORD	n/a	wordpools/wordpool_categorized_EN.txt	RECLINER	Furniture	11	1	[0, 0, 0]	n/a	catFR1	0	R1626S
270.165	0.85	304906	WORD_OFF	n/a	n/a	RECLINER	Furniture	11	1	[0, 0, 0]	n/a	catFR1	0	R1626S
271.015	1.615	305755	WORD	n/a	wordpools/wordpool_categorized_EN.txt	CHAIR	Furniture	12	1	[0, 0, 0]	n/a	catFR1	0	R1626S
272.63	0.002	307367	WORD_OFF	n/a	n/a	CHAIR	Furniture	12	1	[0, 0, 0]	n/a	catFR1	0	R1626S
272.632	0.0	307367	ENCODING_END	n/a	n/a	n/a	n/a	-999	1	[0, 0, 0]	n/a	catFR1	0	R1626S
272.63	0.002	307369	PROB	7.167	n/a	n/a	n/a	-999	1	[5, 3, 1]	9.0	catFR1	0	R1626S
272.632	0.0	307371	START	n/a	n/a	n/a	n/a	-999	1	[-999, -999, -999]	n/a	catFR1	0	R1626S
272.632	7.183	307376	DISTRACT_START	n/a	n/a	n/a	n/a	-999	1	[0, 0, 0]	n/a	catFR1	0	R1626S
279.815	7.134	314554	PROB	7.116	n/a	n/a	n/a	-999	1	[4, 1, 6]	11.0	catFR1	0	R1626S
286.949	14.732	321687	PROB	14.716	n/a	n/a	n/a	-999	1	[3, 2, 7]	12.0	catFR1	0	R1626S
301.681	0.0	336419	STOP	n/a	n/a	n/a	n/a	-999	1	[-999, -999, -999]	n/a	catFR1	0	R1626S
301.681	2.334	336421	DISTRACT_END	n/a	n/a	n/a	n/a	-999	1	[0, 0, 0]	n/a	catFR1	0	R1626S
304.015	3.265	338748	REC_START	n/a	n/a	n/a	n/a	-999	1	[0, 0, 0]	n/a	catFR1	0	R1626S
307.28	2.337	342018	REC_WORD_VV	3.265	n/a	<>	n/a	-999	1	[0, 0, 0]	n/a	catFR1	0	R1626S
309.617	2.357	344354	REC_WORD	5.602	n/a	SUEDE	Fabric	5	1	[0, 0, 0]	n/a	catFR1	0	R1626S
311.974	2.24	346711	REC_WORD	7.959	n/a	TURKEY	FarmAnimals	8	1	[0, 0, 0]	n/a	catFR1	0	R1626S
314.214	1.92	348951	REC_WORD	10.199	n/a	SATIN	Fabric	6	1	[0, 0, 0]	n/a	catFR1	0	R1626S
316.134	1.89	350871	REC_WORD	12.119	n/a	COW	FarmAnimals	7	1	[0, 0, 0]	n/a	catFR1	0	R1626S
318.024	7.168	352761	REC_WORD	14.009	n/a	CHAIR	Furniture	12	1	[0, 0, 0]	n/a	catFR1	0	R1626S
325.192	5.212	359929	REC_WORD_VV	21.177	n/a	<>	n/a	-999	1	[0, 0, 0]	n/a	catFR1	0	R1626S
330.404	3.784	365140	REC_WORD	26.389	n/a	RECLINER	Furniture	11	1	[0, 0, 0]	n/a	catFR1	0	R1626S
334.188	9.793	368928	REC_END	n/a	n/a	n/a	n/a	-999	1	[0, 0, 0]	n/a	catFR1	0	R1626S
343.981	10.35	378714	COUNTDOWN_START	n/a	n/a	n/a	n/a	-999	2	[0, 0, 0]	n/a	catFR1	0	R1626S
354.331	0.0	389064	COUNTDOWN_END	n/a	n/a	n/a	n/a	-999	2	[0, 0, 0]	n/a	catFR1	0	R1626S
354.331	2.184	389073	ENCODING_START	n/a	n/a	n/a	n/a	-999	2	[0, 0, 0]	n/a	catFR1	0	R1626S
356.515	1.6	391248	WORD	n/a	wordpools/wordpool_categorized_EN.txt	FINCH	Birds	1	2	[0, 0, 0]	n/a	catFR1	0	R1626S
358.115	0.816	392850	WORD_OFF	n/a	n/a	FINCH	Birds	1	2	[0, 0, 0]	n/a	catFR1	0	R1626S
358.931	1.599	393671	WORD	n/a	wordpools/wordpool_categorized_EN.txt	SEAGULL	Birds	2	2	[0, 0, 0]	n/a	catFR1	0	R1626S
360.53	0.801	395264	WORD_OFF	n/a	n/a	SEAGULL	Birds	2	2	[0, 0, 0]	n/a	catFR1	0	R1626S
361.331	1.617	396065	WORD	n/a	wordpools/wordpool_categorized_EN.txt	COAT	Clothing	3	2	[0, 0, 0]	n/a	catFR1	0	R1626S
362.948	0.764	397686	WORD_OFF	n/a	n/a	COAT	Clothing	3	2	[0, 0, 0]	n/a	catFR1	0	R1626S
363.712	1.603	398449	WORD	n/a	wordpools/wordpool_categorized_EN.txt	SHORTS	Clothing	4	2	[0, 0, 0]	n/a	catFR1	0	R1626S
365.315	0.849	400052	WORD_OFF	n/a	n/a	SHORTS	Clothing	4	2	[0, 0, 0]	n/a	catFR1	0	R1626S
366.164	1.6	400901	WORD	n/a	wordpools/wordpool_categorized_EN.txt	LAMB	FarmAnimals	5	2	[0, 0, 0]	n/a	catFR1	0	R1626S
367.764	0.984	402503	WORD_OFF	n/a	n/a	LAMB	FarmAnimals	5	2	[0, 0, 0]	n/a	catFR1	0	R1626S
368.748	1.616	403486	WORD	n/a	wordpools/wordpool_categorized_EN.txt	CALF	FarmAnimals	6	2	[0, 0, 0]	n/a	catFR1	0	R1626S
370.364	0.8	405098	WORD_OFF	n/a	n/a	CALF	FarmAnimals	6	2	[0, 0, 0]	n/a	catFR1	0	R1626S
371.164	1.6	405899	WORD	n/a	wordpools/wordpool_categorized_EN.txt	SPARROW	Birds	7	2	[0, 0, 0]	n/a	catFR1	0	R1626S
372.764	0.818	407501	WORD_OFF	n/a	n/a	SPARROW	Birds	7	2	[0, 0, 0]	n/a	catFR1	0	R1626S
373.582	1.616	408312	WORD	n/a	wordpools/wordpool_categorized_EN.txt	CROW	Birds	8	2	[0, 0, 0]	n/a	catFR1	0	R1626S
375.198	0.916	409934	WORD_OFF	n/a	n/a	CROW	Birds	8	2	[0, 0, 0]	n/a	catFR1	0	R1626S
376.114	1.6	410849	WORD	n/a	wordpools/wordpool_categorized_EN.txt	CHICKEN	FarmAnimals	9	2	[0, 0, 0]	n/a	catFR1	0	R1626S
377.714	0.816	412452	WORD_OFF	n/a	n/a	CHICKEN	FarmAnimals	9	2	[0, 0, 0]	n/a	catFR1	0	R1626S
378.53	1.6	413263	WORD	n/a	wordpools/wordpool_categorized_EN.txt	GOAT	FarmAnimals	10	2	[0, 0, 0]	n/a	catFR1	0	R1626S
380.13	0.767	414865	WORD_OFF	n/a	n/a	GOAT	FarmAnimals	10	2	[0, 0, 0]	n/a	catFR1	0	R1626S
380.897	1.616	415628	WORD	n/a	wordpools/wordpool_categorized_EN.txt	UNDERWEAR	Clothing	11	2	[0, 0, 0]	n/a	catFR1	0	R1626S
382.513	0.801	417250	WORD_OFF	n/a	n/a	UNDERWEAR	Clothing	11	2	[0, 0, 0]	n/a	catFR1	0	R1626S
383.314	1.616	418051	WORD	n/a	wordpools/wordpool_categorized_EN.txt	SHIRT	Clothing	12	2	[0, 0, 0]	n/a	catFR1	0	R1626S
384.93	0.002	419663	WORD_OFF	n/a	n/a	SHIRT	Clothing	12	2	[0, 0, 0]	n/a	catFR1	0	R1626S
384.932	0.0	419663	ENCODING_END	n/a	n/a	n/a	n/a	-999	2	[0, 0, 0]	n/a	catFR1	0	R1626S
384.93	0.002	419664	PROB	6.699	n/a	n/a	n/a	-999	2	[2, 3, 2]	7.0	catFR1	0	R1626S
384.932	0.0	419666	START	n/a	n/a	n/a	n/a	-999	2	[-999, -999, -999]	n/a	catFR1	0	R1626S
384.932	6.716	419673	DISTRACT_START	n/a	n/a	n/a	n/a	-999	2	[0, 0, 0]	n/a	catFR1	0	R1626S
391.648	4.767	426382	PROB	4.75	n/a	n/a	n/a	-999	2	[3, 3, 3]	9.0	catFR1	0	R1626S
396.415	5.849	431148	PROB	5.833	n/a	n/a	n/a	-999	2	[4, 4, 2]	10.0	catFR1	0	R1626S
402.264	6.467	436997	PROB	6.45	n/a	n/a	n/a	-999	2	[8, 4, 2]	14.0	catFR1	0	R1626S
408.731	0.0	443461	DISTRACT_END	n/a	n/a	n/a	n/a	-999	2	[0, 0, 0]	n/a	catFR1	0	R1626S
408.731	2.217	443464	STOP	n/a	n/a	n/a	n/a	-999	2	[-999, -999, -999]	n/a	catFR1	0	R1626S
410.948	4.71	445684	REC_START	n/a	n/a	n/a	n/a	-999	2	[0, 0, 0]	n/a	catFR1	0	R1626S
415.658	3.181	450391	REC_WORD	4.71	n/a	COAT	Clothing	3	2	[0, 0, 0]	n/a	catFR1	0	R1626S
418.839	10.686	453571	REC_WORD	7.891	n/a	LAMB	FarmAnimals	5	2	[0, 0, 0]	n/a	catFR1	0	R1626S
429.525	4.085	464257	REC_WORD	18.577	n/a	GOAT	FarmAnimals	10	2	[0, 0, 0]	n/a	catFR1	0	R1626S
433.61	6.1	468342	REC_WORD	22.662	n/a	FINCH	Birds	1	2	[0, 0, 0]	n/a	catFR1	0	R1626S
439.71	1.419	474441	REC_WORD	28.762	n/a	SPARROW	Birds	7	2	[0, 0, 0]	n/a	catFR1	0	R1626S
441.129	2.902	475864	REC_END	n/a	n/a	n/a	n/a	-999	2	[0, 0, 0]	n/a	catFR1	0	R1626S
444.031	10.35	478763	COUNTDOWN_START	n/a	n/a	n/a	n/a	-999	3	[0, 0, 0]	n/a	catFR1	0	R1626S
454.381	0.0	489112	COUNTDOWN_END	n/a	n/a	n/a	n/a	-999	3	[0, 0, 0]	n/a	catFR1	0	R1626S
454.381	2.017	489112	ENCODING_START	n/a	n/a	n/a	n/a	-999	3	[0, 0, 0]	n/a	catFR1	0	R1626S
456.398	1.599	491125	WORD	n/a	wordpools/wordpool_categorized_EN.txt	WILLOW	Trees	1	3	[0, 0, 0]	n/a	catFR1	0	R1626S
457.997	0.884	492728	WORD_OFF	n/a	n/a	WILLOW	Trees	1	3	[0, 0, 0]	n/a	catFR1	0	R1626S
458.881	1.6	493615	WORD	n/a	wordpools/wordpool_categorized_EN.txt	HICKORY	Trees	2	3	[0, 0, 0]	n/a	catFR1	0	R1626S
460.481	0.983	495208	WORD_OFF	n/a	n/a	HICKORY	Trees	2	3	[0, 0, 0]	n/a	catFR1	0	R1626S
461.464	1.617	496200	WORD	n/a	wordpools/wordpool_categorized_EN.txt	FINGERS	BodyParts	3	3	[0, 0, 0]	n/a	catFR1	0	R1626S
463.081	0.866	497812	WORD_OFF	n/a	n/a	FINGERS	BodyParts	3	3	[0, 0, 0]	n/a	catFR1	0	R1626S
463.947	1.6	498680	WORD	n/a	wordpools/wordpool_categorized_EN.txt	EAR	BodyParts	4	3	[0, 0, 0]	n/a	catFR1	0	R1626S
465.547	0.95	500282	WORD_OFF	n/a	n/a	EAR	BodyParts	4	3	[0, 0, 0]	n/a	catFR1	0	R1626S
466.497	1.616	501226	WORD	n/a	wordpools/wordpool_categorized_EN.txt	CAULIFLOWER	Vegetables	5	3	[0, 0, 0]	n/a	catFR1	0	R1626S
468.113	0.867	502848	WORD_OFF	n/a	n/a	CAULIFLOWER	Vegetables	5	3	[0, 0, 0]	n/a	catFR1	0	R1626S
468.98	1.6	503706	WORD	n/a	wordpools/wordpool_categorized_EN.txt	CORN	Vegetables	6	3	[0, 0, 0]	n/a	catFR1	0	R1626S
470.58	0.867	505309	WORD_OFF	n/a	n/a	CORN	Vegetables	6	3	[0, 0, 0]	n/a	catFR1	0	R1626S
471.447	1.6	506177	WORD	n/a	wordpools/wordpool_categorized_EN.txt	LEG	BodyParts	7	3	[0, 0, 0]	n/a	catFR1	0	R1626S
473.047	0.934	507779	WORD_OFF	n/a	n/a	LEG	BodyParts	7	3	[0, 0, 0]	n/a	catFR1	0	R1626S
473.981	1.6	508714	WORD	n/a	wordpools/wordpool_categorized_EN.txt	NOSE	BodyParts	8	3	[0, 0, 0]	n/a	catFR1	0	R1626S
475.581	0.782	510307	WORD_OFF	n/a	n/a	NOSE	BodyParts	8	3	[0, 0, 0]	n/a	catFR1	0	R1626S
476.363	1.601	511089	WORD	n/a	wordpools/wordpool_categorized_EN.txt	POTATO	Vegetables	9	3	[0, 0, 0]	n/a	catFR1	0	R1626S
477.964	0.817	512692	WORD_OFF	n/a	n/a	POTATO	Vegetables	9	3	[0, 0, 0]	n/a	catFR1	0	R1626S
478.781	1.6	513512	WORD	n/a	wordpools/wordpool_categorized_EN.txt	CUCUMBER	Vegetables	10	3	[0, 0, 0]	n/a	catFR1	0	R1626S
480.381	1.0	515114	WORD_OFF	n/a	n/a	CUCUMBER	Vegetables	10	3	[0, 0, 0]	n/a	catFR1	0	R1626S
481.381	1.616	516106	WORD	n/a	wordpools/wordpool_categorized_EN.txt	MAPLE	Trees	11	3	[0, 0, 0]	n/a	catFR1	0	R1626S
482.997	1.001	517728	WORD_OFF	n/a	n/a	MAPLE	Trees	11	3	[0, 0, 0]	n/a	catFR1	0	R1626S
483.998	1.615	518729	WORD	n/a	wordpools/wordpool_categorized_EN.txt	ELM	Trees	12	3	[0, 0, 0]	n/a	catFR1	0	R1626S
485.613	0.001	520341	WORD_OFF	n/a	n/a	ELM	Trees	12	3	[0, 0, 0]	n/a	catFR1	0	R1626S
485.614	0.0	520341	ENCODING_END	n/a	n/a	n/a	n/a	-999	3	[0, 0, 0]	n/a	catFR1	0	R1626S
485.613	0.001	520342	PROB	6.584	n/a	n/a	n/a	-999	3	[7, 3, 1]	11.0	catFR1	0	R1626S
485.614	0.0	520343	START	n/a	n/a	n/a	n/a	-999	3	[-999, -999, -999]	n/a	catFR1	0	R1626S
485.614	6.6	520351	DISTRACT_START	n/a	n/a	n/a	n/a	-999	3	[0, 0, 0]	n/a	catFR1	0	R1626S
492.214	7.351	526943	PROB	7.333	n/a	n/a	n/a	-999	3	[4, 7, 1]	12.0	catFR1	0	R1626S
499.565	6.266	534294	PROB	6.249	n/a	n/a	n/a	-999	3	[7, 7, 2]	16.0	catFR1	0	R1626S
505.831	0.0	540559	STOP	n/a	n/a	n/a	n/a	-999	3	[-999, -999, -999]	n/a	catFR1	0	R1626S
505.831	2.317	540563	DISTRACT_END	n/a	n/a	n/a	n/a	-999	3	[0, 0, 0]	n/a	catFR1	0	R1626S
508.148	2.938	542881	REC_START	n/a	n/a	n/a	n/a	-999	3	[0, 0, 0]	n/a	catFR1	0	R1626S
511.086	1.72	545814	REC_WORD	2.938	n/a	ELM	Trees	12	3	[0, 0, 0]	n/a	catFR1	0	R1626S
512.806	15.79	547534	REC_WORD	4.658	n/a	CUCUMBER	Vegetables	10	3	[0, 0, 0]	n/a	catFR1	0	R1626S
528.596	7.125	563323	REC_WORD	20.448	n/a	CAULIFLOWER	Vegetables	5	3	[0, 0, 0]	n/a	catFR1	0	R1626S
535.721	2.611	570448	REC_WORD	27.573	n/a	HICKORY	Trees	2	3	[0, 0, 0]	n/a	catFR1	0	R1626S
538.332	3.815	573060	REC_END	n/a	n/a	n/a	n/a	-999	3	[0, 0, 0]	n/a	catFR1	0	R1626S
542.147	10.349	576876	COUNTDOWN_START	n/a	n/a	n/a	n/a	-999	4	[0, 0, 0]	n/a	catFR1	0	R1626S
552.496	0.0	587225	COUNTDOWN_END	n/a	n/a	n/a	n/a	-999	4	[0, 0, 0]	n/a	catFR1	0	R1626S
552.496	2.051	587225	ENCODING_START	n/a	n/a	n/a	n/a	-999	4	[0, 0, 0]	n/a	catFR1	0	R1626S
554.547	1.614	589276	WORD	n/a	wordpools/wordpool_categorized_EN.txt	SPOON	KitchenTools	1	4	[0, 0, 0]	n/a	catFR1	0	R1626S
556.161	0.902	590888	WORD_OFF	n/a	n/a	SPOON	KitchenTools	1	4	[0, 0, 0]	n/a	catFR1	0	R1626S
557.063	1.617	591794	WORD	n/a	wordpools/wordpool_categorized_EN.txt	SPATULA	KitchenTools	2	4	[0, 0, 0]	n/a	catFR1	0	R1626S
558.68	0.767	593406	WORD_OFF	n/a	n/a	SPATULA	KitchenTools	2	4	[0, 0, 0]	n/a	catFR1	0	R1626S
559.447	1.6	594169	WORD	n/a	wordpools/wordpool_categorized_EN.txt	PINE	Trees	3	4	[0, 0, 0]	n/a	catFR1	0	R1626S
561.047	0.883	595771	WORD_OFF	n/a	n/a	PINE	Trees	3	4	[0, 0, 0]	n/a	catFR1	0	R1626S
561.93	1.601	596659	WORD	n/a	wordpools/wordpool_categorized_EN.txt	OAK	Trees	4	4	[0, 0, 0]	n/a	catFR1	0	R1626S
563.531	1.0	598261	WORD_OFF	n/a	n/a	OAK	Trees	4	4	[0, 0, 0]	n/a	catFR1	0	R1626S
564.531	1.6	599253	WORD	n/a	wordpools/wordpool_categorized_EN.txt	CABBAGE	Vegetables	5	4	[0, 0, 0]	n/a	catFR1	0	R1626S
566.131	0.983	600855	WORD_OFF	n/a	n/a	CABBAGE	Vegetables	5	4	[0, 0, 0]	n/a	catFR1	0	R1626S
567.114	1.617	601838	WORD	n/a	wordpools/wordpool_categorized_EN.txt	SPINACH	Vegetables	6	4	[0, 0, 0]	n/a	catFR1	0	R1626S
568.731	0.8	603459	WORD_OFF	n/a	n/a	SPINACH	Vegetables	6	4	[0, 0, 0]	n/a	catFR1	0	R1626S
569.531	1.6	604261	WORD	n/a	wordpools/wordpool_categorized_EN.txt	LADLE	KitchenTools	7	4	[0, 0, 0]	n/a	catFR1	0	R1626S
571.131	1.0	605854	WORD_OFF	n/a	n/a	LADLE	KitchenTools	7	4	[0, 0, 0]	n/a	catFR1	0	R1626S
572.131	1.616	606855	WORD	n/a	wordpools/wordpool_categorized_EN.txt	FORK	KitchenTools	8	4	[0, 0, 0]	n/a	catFR1	0	R1626S
573.747	0.899	608477	WORD_OFF	n/a	n/a	FORK	KitchenTools	8	4	[0, 0, 0]	n/a	catFR1	0	R1626S
574.646	1.601	609373	WORD	n/a	wordpools/wordpool_categorized_EN.txt	LETTUCE	Vegetables	9	4	[0, 0, 0]	n/a	catFR1	0	R1626S
576.247	0.966	610976	WORD_OFF	n/a	n/a	LETTUCE	Vegetables	9	4	[0, 0, 0]	n/a	catFR1	0	R1626S
577.213	1.601	611939	WORD	n/a	wordpools/wordpool_categorized_EN.txt	CARROT	Vegetables	10	4	[0, 0, 0]	n/a	catFR1	0	R1626S
578.814	0.897	613542	WORD_OFF	n/a	n/a	CARROT	Vegetables	10	4	[0, 0, 0]	n/a	catFR1	0	R1626S
579.711	1.602	614438	WORD	n/a	wordpools/wordpool_categorized_EN.txt	WALNUT	Trees	11	4	[0, 0, 0]	n/a	catFR1	0	R1626S
581.313	0.934	616041	WORD_OFF	n/a	n/a	WALNUT	Trees	11	4	[0, 0, 0]	n/a	catFR1	0	R1626S
582.247	1.6	616975	WORD	n/a	wordpools/wordpool_categorized_EN.txt	EVERGREEN	Trees	12	4	[0, 0, 0]	n/a	catFR1	0	R1626S
583.847	0.001	618568	WORD_OFF	n/a	n/a	EVERGREEN	Trees	12	4	[0, 0, 0]	n/a	catFR1	0	R1626S
583.848	0.001	618573	PROB	6.716	n/a	n/a	n/a	-999	4	[5, 4, 1]	10.0	catFR1	0	R1626S
583.849	0.0	618574	START	n/a	n/a	n/a	n/a	-999	4	[-999, -999, -999]	n/a	catFR1	0	R1626S
583.849	0.0	618578	ENCODING_END	n/a	n/a	n/a	n/a	-999	4	[0, 0, 0]	n/a	catFR1	0	R1626S
583.849	6.732	618578	DISTRACT_START	n/a	n/a	n/a	n/a	-999	4	[0, 0, 0]	n/a	catFR1	0	R1626S
590.581	8.182	625306	PROB	8.166	n/a	n/a	n/a	-999	4	[8, 1, 6]	15.0	catFR1	0	R1626S
598.763	5.101	633487	PROB	5.083	n/a	n/a	n/a	-999	4	[3, 1, 7]	11.0	catFR1	0	R1626S
603.864	0.0	638588	STOP	n/a	n/a	n/a	n/a	-999	4	[-999, -999, -999]	n/a	catFR1	0	R1626S
603.864	2.283	638590	DISTRACT_END	n/a	n/a	n/a	n/a	-999	4	[0, 0, 0]	n/a	catFR1	0	R1626S
606.147	17.775	640869	REC_START	n/a	n/a	n/a	n/a	-999	4	[0, 0, 0]	n/a	catFR1	0	R1626S
623.922	1.796	658645	REC_WORD	17.775	n/a	SPOON	KitchenTools	1	4	[0, 0, 0]	n/a	catFR1	0	R1626S
625.718	2.055	660441	REC_WORD	19.571	n/a	FORK	KitchenTools	8	4	[0, 0, 0]	n/a	catFR1	0	R1626S
627.773	2.664	662496	REC_WORD	21.626	n/a	LADLE	KitchenTools	7	4	[0, 0, 0]	n/a	catFR1	0	R1626S
630.437	5.901	665160	REC_WORD	24.29	n/a	LETTUCE	Vegetables	9	4	[0, 0, 0]	n/a	catFR1	0	R1626S
636.338	13.092	671058	REC_END	n/a	n/a	n/a	n/a	-999	4	[0, 0, 0]	n/a	catFR1	0	R1626S
649.43	10.35	684155	COUNTDOWN_START	n/a	n/a	n/a	n/a	-999	5	[0, 0, 0]	n/a	catFR1	0	R1626S
659.78	0.0	694504	COUNTDOWN_END	n/a	n/a	n/a	n/a	-999	5	[0, 0, 0]	n/a	catFR1	0	R1626S
659.78	2.183	694504	ENCODING_START	n/a	n/a	n/a	n/a	-999	5	[0, 0, 0]	n/a	catFR1	0	R1626S
661.963	1.6	696688	WORD	n/a	wordpools/wordpool_categorized_EN.txt	DRESS	Clothing	1	5	[0, 0, 0]	n/a	catFR1	0	R1626S
663.563	0.9	698281	WORD_OFF	n/a	n/a	DRESS	Clothing	1	5	[0, 0, 0]	n/a	catFR1	0	R1626S
664.463	1.601	699187	WORD	n/a	wordpools/wordpool_categorized_EN.txt	BLOUSE	Clothing	2	5	[0, 0, 0]	n/a	catFR1	0	R1626S
666.064	0.983	700790	WORD_OFF	n/a	n/a	BLOUSE	Clothing	2	5	[0, 0, 0]	n/a	catFR1	0	R1626S
667.047	1.6	701772	WORD	n/a	wordpools/wordpool_categorized_EN.txt	FLUTE	Instruments	3	5	[0, 0, 0]	n/a	catFR1	0	R1626S
668.647	0.867	703375	WORD_OFF	n/a	n/a	FLUTE	Instruments	3	5	[0, 0, 0]	n/a	catFR1	0	R1626S
669.514	1.616	704233	WORD	n/a	wordpools/wordpool_categorized_EN.txt	TUBA	Instruments	4	5	[0, 0, 0]	n/a	catFR1	0	R1626S
671.13	0.817	705855	WORD_OFF	n/a	n/a	TUBA	Instruments	4	5	[0, 0, 0]	n/a	catFR1	0	R1626S
671.947	1.6	706666	WORD	n/a	wordpools/wordpool_categorized_EN.txt	CROWBAR	Tools	5	5	[0, 0, 0]	n/a	catFR1	0	R1626S
673.547	0.9	708268	WORD_OFF	n/a	n/a	CROWBAR	Tools	5	5	[0, 0, 0]	n/a	catFR1	0	R1626S
674.447	1.6	709165	WORD	n/a	wordpools/wordpool_categorized_EN.txt	DRILL	Tools	6	5	[0, 0, 0]	n/a	catFR1	0	R1626S
676.047	0.883	710767	WORD_OFF	n/a	n/a	DRILL	Tools	6	5	[0, 0, 0]	n/a	catFR1	0	R1626S
676.93	1.617	711654	WORD	n/a	wordpools/wordpool_categorized_EN.txt	SHOES	Clothing	7	5	[0, 0, 0]	n/a	catFR1	0	R1626S
678.547	0.966	713266	WORD_OFF	n/a	n/a	SHOES	Clothing	7	5	[0, 0, 0]	n/a	catFR1	0	R1626S
679.513	1.601	714239	WORD	n/a	wordpools/wordpool_categorized_EN.txt	PANTS	Clothing	8	5	[0, 0, 0]	n/a	catFR1	0	R1626S
681.114	0.833	715832	WORD_OFF	n/a	n/a	PANTS	Clothing	8	5	[0, 0, 0]	n/a	catFR1	0	R1626S
681.947	1.6	716671	WORD	n/a	wordpools/wordpool_categorized_EN.txt	SCREWDRIVER	Tools	9	5	[0, 0, 0]	n/a	catFR1	0	R1626S
683.547	0.9	718264	WORD_OFF	n/a	n/a	SCREWDRIVER	Tools	9	5	[0, 0, 0]	n/a	catFR1	0	R1626S
684.447	1.617	719170	WORD	n/a	wordpools/wordpool_categorized_EN.txt	WRENCH	Tools	10	5	[0, 0, 0]	n/a	catFR1	0	R1626S
686.064	0.783	720782	WORD_OFF	n/a	n/a	WRENCH	Tools	10	5	[0, 0, 0]	n/a	catFR1	0	R1626S
686.847	1.6	721565	WORD	n/a	wordpools/wordpool_categorized_EN.txt	CELLO	Instruments	11	5	[0, 0, 0]	n/a	catFR1	0	R1626S
688.447	0.8	723167	WORD_OFF	n/a	n/a	CELLO	Instruments	11	5	[0, 0, 0]	n/a	catFR1	0	R1626S
689.247	1.601	723968	WORD	n/a	wordpools/wordpool_categorized_EN.txt	BANJO	Instruments	12	5	[0, 0, 0]	n/a	catFR1	0	R1626S
690.848	0.001	725568	PROB	7.616	n/a	n/a	n/a	-999	5	[1, 2, 4]	7.0	catFR1	0	R1626S
690.849	0.0	725569	START	n/a	n/a	n/a	n/a	-999	5	[-999, -999, -999]	n/a	catFR1	0	R1626S
690.847	0.002	725571	WORD_OFF	n/a	n/a	BANJO	Instruments	12	5	[0, 0, 0]	n/a	catFR1	0	R1626S
690.849	0.0	725571	ENCODING_END	n/a	n/a	n/a	n/a	-999	5	[0, 0, 0]	n/a	catFR1	0	R1626S
690.849	7.631	725571	DISTRACT_START	n/a	n/a	n/a	n/a	-999	5	[0, 0, 0]	n/a	catFR1	0	R1626S
698.48	10.867	733200	PROB	10.85	n/a	n/a	n/a	-999	5	[5, 1, 7]	13.0	catFR1	0	R1626S
709.347	5.35	744066	PROB	5.333	n/a	n/a	n/a	-999	5	[6, 1, 8]	15.0	catFR1	0	R1626S
714.697	0.0	749416	STOP	n/a	n/a	n/a	n/a	-999	5	[-999, -999, -999]	n/a	catFR1	0	R1626S
714.697	2.233	749417	DISTRACT_END	n/a	n/a	n/a	n/a	-999	5	[0, 0, 0]	n/a	catFR1	0	R1626S
716.93	7.945	751649	REC_START	n/a	n/a	n/a	n/a	-999	5	[0, 0, 0]	n/a	catFR1	0	R1626S
724.875	12.655	759593	REC_WORD	7.945	n/a	BANJO	Instruments	12	5	[0, 0, 0]	n/a	catFR1	0	R1626S
737.53	7.454	772248	REC_WORD	20.6	n/a	DRESS	Clothing	1	5	[0, 0, 0]	n/a	catFR1	0	R1626S
744.984	2.13	779702	REC_WORD	28.054	n/a	CELLO	Instruments	11	5	[0, 0, 0]	n/a	catFR1	0	R1626S
747.114	3.464	781829	REC_END	n/a	n/a	n/a	n/a	-999	5	[0, 0, 0]	n/a	catFR1	0	R1626S
750.578	10.352	785301	COUNTDOWN_START	n/a	n/a	n/a	n/a	-999	6	[0, 0, 0]	n/a	catFR1	0	R1626S
760.93	0.0	795650	COUNTDOWN_END	n/a	n/a	n/a	n/a	-999	6	[0, 0, 0]	n/a	catFR1	0	R1626S
760.93	2.183	795650	ENCODING_START	n/a	n/a	n/a	n/a	-999	6	[0, 0, 0]	n/a	catFR1	0	R1626S
763.113	1.617	797834	WORD	n/a	wordpools/wordpool_categorized_EN.txt	MARKER	OfficeSupplies	1	6	[0, 0, 0]	n/a	catFR1	0	R1626S
764.73	0.866	799446	WORD_OFF	n/a	n/a	MARKER	OfficeSupplies	1	6	[0, 0, 0]	n/a	catFR1	0	R1626S
765.596	1.601	800314	WORD	n/a	wordpools/wordpool_categorized_EN.txt	ERASER	OfficeSupplies	2	6	[0, 0, 0]	n/a	catFR1	0	R1626S
767.197	0.95	801917	WORD_OFF	n/a	n/a	ERASER	OfficeSupplies	2	6	[0, 0, 0]	n/a	catFR1	0	R1626S
768.147	1.6	802861	WORD	n/a	wordpools/wordpool_categorized_EN.txt	LAKE	Landscapes	3	6	[0, 0, 0]	n/a	catFR1	0	R1626S
769.747	1.0	804463	WORD_OFF	n/a	n/a	LAKE	Landscapes	3	6	[0, 0, 0]	n/a	catFR1	0	R1626S
770.747	1.616	805465	WORD	n/a	wordpools/wordpool_categorized_EN.txt	STREAM	Landscapes	4	6	[0, 0, 0]	n/a	catFR1	0	R1626S
772.363	0.867	807077	WORD_OFF	n/a	n/a	STREAM	Landscapes	4	6	[0, 0, 0]	n/a	catFR1	0	R1626S
773.23	1.616	807945	WORD	n/a	wordpools/wordpool_categorized_EN.txt	FISH	OceanAnimals	5	6	[0, 0, 0]	n/a	catFR1	0	R1626S
774.846	0.884	809566	WORD_OFF	n/a	n/a	FISH	OceanAnimals	5	6	[0, 0, 0]	n/a	catFR1	0	R1626S
775.73	1.6	810444	WORD	n/a	wordpools/wordpool_categorized_EN.txt	PLANKTON	OceanAnimals	6	6	[0, 0, 0]	n/a	catFR1	0	R1626S
777.33	0.983	812046	WORD_OFF	n/a	n/a	PLANKTON	OceanAnimals	6	6	[0, 0, 0]	n/a	catFR1	0	R1626S
778.313	1.6	813029	WORD	n/a	wordpools/wordpool_categorized_EN.txt	STAPLER	OfficeSupplies	7	6	[0, 0, 0]	n/a	catFR1	0	R1626S
779.913	0.9	814631	WORD_OFF	n/a	n/a	STAPLER	OfficeSupplies	7	6	[0, 0, 0]	n/a	catFR1	0	R1626S
780.813	1.617	815528	WORD	n/a	wordpools/wordpool_categorized_EN.txt	PAPER	OfficeSupplies	8	6	[0, 0, 0]	n/a	catFR1	0	R1626S
782.43	1.0	817149	WORD_OFF	n/a	n/a	PAPER	OfficeSupplies	8	6	[0, 0, 0]	n/a	catFR1	0	R1626S
783.43	1.6	818141	WORD	n/a	wordpools/wordpool_categorized_EN.txt	TURTLE	OceanAnimals	9	6	[0, 0, 0]	n/a	catFR1	0	R1626S
785.03	0.783	819744	WORD_OFF	n/a	n/a	TURTLE	OceanAnimals	9	6	[0, 0, 0]	n/a	catFR1	0	R1626S
785.813	1.6	820526	WORD	n/a	wordpools/wordpool_categorized_EN.txt	OCTOPUS	OceanAnimals	10	6	[0, 0, 0]	n/a	catFR1	0	R1626S
787.413	0.884	822129	WORD_OFF	n/a	n/a	OCTOPUS	OceanAnimals	10	6	[0, 0, 0]	n/a	catFR1	0	R1626S
788.297	1.616	823016	WORD	n/a	wordpools/wordpool_categorized_EN.txt	FOREST	Landscapes	11	6	[0, 0, 0]	n/a	catFR1	0	R1626S
789.913	0.833	824628	WORD_OFF	n/a	n/a	FOREST	Landscapes	11	6	[0, 0, 0]	n/a	catFR1	0	R1626S
790.746	1.6	825457	WORD	n/a	wordpools/wordpool_categorized_EN.txt	RIVER	Landscapes	12	6	[0, 0, 0]	n/a	catFR1	0	R1626S
792.346	0.001	827060	WORD_OFF	n/a	n/a	RIVER	Landscapes	12	6	[0, 0, 0]	n/a	catFR1	0	R1626S
792.347	0.0	827060	ENCODING_END	n/a	n/a	n/a	n/a	-999	6	[0, 0, 0]	n/a	catFR1	0	R1626S
792.347	0.0	827062	START	n/a	n/a	n/a	n/a	-999	6	[-999, -999, -999]	n/a	catFR1	0	R1626S
792.347	0.0	827062	PROB	7.65	n/a	n/a	n/a	-999	6	[7, 6, 4]	17.0	catFR1	0	R1626S
792.347	7.666	827069	DISTRACT_START	n/a	n/a	n/a	n/a	-999	6	[0, 0, 0]	n/a	catFR1	0	R1626S
800.013	6.017	834728	PROB	6.0	n/a	n/a	n/a	-999	6	[3, 6, 4]	13.0	catFR1	0	R1626S
806.03	10.483	840745	PROB	10.466	n/a	n/a	n/a	-999	6	[8, 3, 2]	13.0	catFR1	0	R1626S
816.513	0.0	851227	STOP	n/a	n/a	n/a	n/a	-999	6	[-999, -999, -999]	n/a	catFR1	0	R1626S
816.513	2.317	851230	DISTRACT_END	n/a	n/a	n/a	n/a	-999	6	[0, 0, 0]	n/a	catFR1	0	R1626S
818.83	4.082	853548	REC_START	n/a	n/a	n/a	n/a	-999	6	[0, 0, 0]	n/a	catFR1	0	R1626S
822.912	1.7	857626	REC_WORD	4.082	n/a	MARKER	OfficeSupplies	1	6	[0, 0, 0]	n/a	catFR1	0	R1626S
824.612	2.873	859326	REC_WORD	5.782	n/a	ERASER	OfficeSupplies	2	6	[0, 0, 0]	n/a	catFR1	0	R1626S
827.485	6.46	862199	REC_WORD	8.655	n/a	PAPER	OfficeSupplies	8	6	[0, 0, 0]	n/a	catFR1	0	R1626S
833.945	7.837	868658	REC_WORD	15.115	n/a	OCTOPUS	OceanAnimals	10	6	[0, 0, 0]	n/a	catFR1	0	R1626S
841.782	7.219	876495	REC_WORD	22.952	n/a	FOREST	Landscapes	11	6	[0, 0, 0]	n/a	catFR1	0	R1626S
849.001	3.447	883718	REC_END	n/a	n/a	n/a	n/a	-999	6	[0, 0, 0]	n/a	catFR1	0	R1626S
852.448	10.348	887162	COUNTDOWN_START	n/a	n/a	n/a	n/a	-999	7	[0, 0, 0]	n/a	catFR1	0	R1626S
862.796	0.0	897511	COUNTDOWN_END	n/a	n/a	n/a	n/a	-999	7	[0, 0, 0]	n/a	catFR1	0	R1626S
862.796	2.1	897511	ENCODING_START	n/a	n/a	n/a	n/a	-999	7	[0, 0, 0]	n/a	catFR1	0	R1626S
864.896	1.617	899609	WORD	n/a	wordpools/wordpool_categorized_EN.txt	DRIZZLE	Weather	1	7	[0, 0, 0]	n/a	catFR1	0	R1626S
866.513	0.983	901221	WORD_OFF	n/a	n/a	DRIZZLE	Weather	1	7	[0, 0, 0]	n/a	catFR1	0	R1626S
867.496	1.617	902213	WORD	n/a	wordpools/wordpool_categorized_EN.txt	LIGHTNING	Weather	2	7	[0, 0, 0]	n/a	catFR1	0	R1626S
869.113	0.967	903825	WORD_OFF	n/a	n/a	LIGHTNING	Weather	2	7	[0, 0, 0]	n/a	catFR1	0	R1626S
870.08	1.6	904789	WORD	n/a	wordpools/wordpool_categorized_EN.txt	STAIRS	Building	3	7	[0, 0, 0]	n/a	catFR1	0	R1626S
871.68	0.883	906391	WORD_OFF	n/a	n/a	STAIRS	Building	3	7	[0, 0, 0]	n/a	catFR1	0	R1626S
872.563	1.6	907278	WORD	n/a	wordpools/wordpool_categorized_EN.txt	CEILING	Building	4	7	[0, 0, 0]	n/a	catFR1	0	R1626S
874.163	0.799	908871	WORD_OFF	n/a	n/a	CEILING	Building	4	7	[0, 0, 0]	n/a	catFR1	0	R1626S
874.962	1.601	909672	WORD	n/a	wordpools/wordpool_categorized_EN.txt	ARM	BodyParts	5	7	[0, 0, 0]	n/a	catFR1	0	R1626S
876.563	0.983	911275	WORD_OFF	n/a	n/a	ARM	BodyParts	5	7	[0, 0, 0]	n/a	catFR1	0	R1626S
877.546	1.617	912257	WORD	n/a	wordpools/wordpool_categorized_EN.txt	HAND	BodyParts	6	7	[0, 0, 0]	n/a	catFR1	0	R1626S
879.163	0.832	913879	WORD_OFF	n/a	n/a	HAND	BodyParts	6	7	[0, 0, 0]	n/a	catFR1	0	R1626S
879.995	1.601	914709	WORD	n/a	wordpools/wordpool_categorized_EN.txt	CLOUD	Weather	7	7	[0, 0, 0]	n/a	catFR1	0	R1626S
881.596	0.801	916311	WORD_OFF	n/a	n/a	CLOUD	Weather	7	7	[0, 0, 0]	n/a	catFR1	0	R1626S
882.397	1.616	917112	WORD	n/a	wordpools/wordpool_categorized_EN.txt	HUMIDITY	Weather	8	7	[0, 0, 0]	n/a	catFR1	0	R1626S
884.013	0.95	918724	WORD_OFF	n/a	n/a	HUMIDITY	Weather	8	7	[0, 0, 0]	n/a	catFR1	0	R1626S
884.963	1.6	919678	WORD	n/a	wordpools/wordpool_categorized_EN.txt	EYE	BodyParts	9	7	[0, 0, 0]	n/a	catFR1	0	R1626S
886.563	0.934	921271	WORD_OFF	n/a	n/a	EYE	BodyParts	9	7	[0, 0, 0]	n/a	catFR1	0	R1626S
887.497	1.599	922206	WORD	n/a	wordpools/wordpool_categorized_EN.txt	ELBOW	BodyParts	10	7	[0, 0, 0]	n/a	catFR1	0	R1626S
889.096	0.834	923808	WORD_OFF	n/a	n/a	ELBOW	BodyParts	10	7	[0, 0, 0]	n/a	catFR1	0	R1626S
889.93	1.616	924638	WORD	n/a	wordpools/wordpool_categorized_EN.txt	WALL	Building	11	7	[0, 0, 0]	n/a	catFR1	0	R1626S
891.546	0.767	926260	WORD_OFF	n/a	n/a	WALL	Building	11	7	[0, 0, 0]	n/a	catFR1	0	R1626S
892.313	1.6	927023	WORD	n/a	wordpools/wordpool_categorized_EN.txt	WINDOW	Building	12	7	[0, 0, 0]	n/a	catFR1	0	R1626S
893.913	0.001	928625	WORD_OFF	n/a	n/a	WINDOW	Building	12	7	[0, 0, 0]	n/a	catFR1	0	R1626S
893.914	0.0	928625	ENCODING_END	n/a	n/a	n/a	n/a	-999	7	[0, 0, 0]	n/a	catFR1	0	R1626S
893.914	0.0	928625	DISTRACT_START	n/a	n/a	n/a	n/a	-999	7	[0, 0, 0]	n/a	catFR1	0	R1626S
893.914	0.0	928625	START	n/a	n/a	n/a	n/a	-999	7	[-999, -999, -999]	n/a	catFR1	0	R1626S
893.914	6.699	928625	PROB	6.682	n/a	n/a	n/a	-999	7	[3, 7, 6]	16.0	catFR1	0	R1626S
900.613	5.066	935323	PROB	5.05	n/a	n/a	n/a	-999	7	[4, 5, 5]	14.0	catFR1	0	R1626S
905.679	4.518	940389	PROB	4.5	n/a	n/a	n/a	-999	7	[5, 5, 1]	11.0	catFR1	0	R1626S
910.197	11.016	944907	PROB	10.999	n/a	n/a	n/a	-999	7	[5, 7, 8]	20.0	catFR1	0	R1626S
921.213	0.0	955923	STOP	n/a	n/a	n/a	n/a	-999	7	[-999, -999, -999]	n/a	catFR1	0	R1626S
921.213	2.349	955924	DISTRACT_END	n/a	n/a	n/a	n/a	-999	7	[0, 0, 0]	n/a	catFR1	0	R1626S
923.562	3.474	958271	REC_START	n/a	n/a	n/a	n/a	-999	7	[0, 0, 0]	n/a	catFR1	0	R1626S
927.036	3.859	961745	REC_WORD	3.474	n/a	ELBOW	BodyParts	10	7	[0, 0, 0]	n/a	catFR1	0	R1626S
930.895	5.059	965604	REC_WORD	7.333	n/a	EYE	BodyParts	9	7	[0, 0, 0]	n/a	catFR1	0	R1626S
935.954	4.724	970663	REC_WORD	12.392	n/a	ARM	BodyParts	5	7	[0, 0, 0]	n/a	catFR1	0	R1626S
940.678	13.057	975387	REC_WORD	17.116	n/a	WALL	Building	11	7	[0, 0, 0]	n/a	catFR1	0	R1626S
953.735	2.562	988441	REC_END	n/a	n/a	n/a	n/a	-999	7	[0, 0, 0]	n/a	catFR1	0	R1626S
956.297	10.349	991007	COUNTDOWN_START	n/a	n/a	n/a	n/a	-999	8	[0, 0, 0]	n/a	catFR1	0	R1626S
966.646	0.001	1001356	COUNTDOWN_END	n/a	n/a	n/a	n/a	-999	8	[0, 0, 0]	n/a	catFR1	0	R1626S
966.647	2.182	1001356	ENCODING_START	n/a	n/a	n/a	n/a	-999	8	[0, 0, 0]	n/a	catFR1	0	R1626S
968.829	1.6	1003540	WORD	n/a	wordpools/wordpool_categorized_EN.txt	CHEETAH	Zoo	1	8	[0, 0, 0]	n/a	catFR1	0	R1626S
970.429	0.95	1005133	WORD_OFF	n/a	n/a	CHEETAH	Zoo	1	8	[0, 0, 0]	n/a	catFR1	0	R1626S
971.379	1.601	1006087	WORD	n/a	wordpools/wordpool_categorized_EN.txt	GORILLA	Zoo	2	8	[0, 0, 0]	n/a	catFR1	0	R1626S
972.98	0.899	1007690	WORD_OFF	n/a	n/a	GORILLA	Zoo	2	8	[0, 0, 0]	n/a	catFR1	0	R1626S
973.879	1.617	1008586	WORD	n/a	wordpools/wordpool_categorized_EN.txt	SPRUCE	Trees	3	8	[0, 0, 0]	n/a	catFR1	0	R1626S
975.496	0.85	1010208	WORD_OFF	n/a	n/a	SPRUCE	Trees	3	8	[0, 0, 0]	n/a	catFR1	0	R1626S
976.346	1.6	1011057	WORD	n/a	wordpools/wordpool_categorized_EN.txt	BIRCH	Trees	4	8	[0, 0, 0]	n/a	catFR1	0	R1626S
977.946	0.833	1012650	WORD_OFF	n/a	n/a	BIRCH	Trees	4	8	[0, 0, 0]	n/a	catFR1	0	R1626S
978.779	1.617	1013489	WORD	n/a	wordpools/wordpool_categorized_EN.txt	TOASTER	Appliances	5	8	[0, 0, 0]	n/a	catFR1	0	R1626S
980.396	0.817	1015101	WORD_OFF	n/a	n/a	TOASTER	Appliances	5	8	[0, 0, 0]	n/a	catFR1	0	R1626S
981.213	1.6	1015921	WORD	n/a	wordpools/wordpool_categorized_EN.txt	BLENDER	Appliances	6	8	[0, 0, 0]	n/a	catFR1	0	R1626S
982.813	0.95	1017524	WORD_OFF	n/a	n/a	BLENDER	Appliances	6	8	[0, 0, 0]	n/a	catFR1	0	R1626S
983.763	1.6	1018468	WORD	n/a	wordpools/wordpool_categorized_EN.txt	CEDAR	Trees	7	8	[0, 0, 0]	n/a	catFR1	0	R1626S
985.363	0.883	1020071	WORD_OFF	n/a	n/a	CEDAR	Trees	7	8	[0, 0, 0]	n/a	catFR1	0	R1626S
986.246	1.6	1020958	WORD	n/a	wordpools/wordpool_categorized_EN.txt	CYPRESS	Trees	8	8	[0, 0, 0]	n/a	catFR1	0	R1626S
987.846	0.915	1022551	WORD_OFF	n/a	n/a	CYPRESS	Trees	8	8	[0, 0, 0]	n/a	catFR1	0	R1626S
988.761	1.602	1023466	WORD	n/a	wordpools/wordpool_categorized_EN.txt	PANDA	Zoo	9	8	[0, 0, 0]	n/a	catFR1	0	R1626S
990.363	0.966	1025069	WORD_OFF	n/a	n/a	PANDA	Zoo	9	8	[0, 0, 0]	n/a	catFR1	0	R1626S
991.329	1.6	1026032	WORD	n/a	wordpools/wordpool_categorized_EN.txt	ZEBRA	Zoo	10	8	[0, 0, 0]	n/a	catFR1	0	R1626S
992.929	0.817	1027635	WORD_OFF	n/a	n/a	ZEBRA	Zoo	10	8	[0, 0, 0]	n/a	catFR1	0	R1626S
993.746	1.616	1028455	WORD	n/a	wordpools/wordpool_categorized_EN.txt	MIXER	Appliances	11	8	[0, 0, 0]	n/a	catFR1	0	R1626S
995.362	0.85	1030067	WORD_OFF	n/a	n/a	MIXER	Appliances	11	8	[0, 0, 0]	n/a	catFR1	0	R1626S
996.212	1.6	1030916	WORD	n/a	wordpools/wordpool_categorized_EN.txt	DISHWASHER	Appliances	12	8	[0, 0, 0]	n/a	catFR1	0	R1626S
997.812	0.001	1032518	WORD_OFF	n/a	n/a	DISHWASHER	Appliances	12	8	[0, 0, 0]	n/a	catFR1	0	R1626S
997.813	0.0	1032518	ENCODING_END	n/a	n/a	n/a	n/a	-999	8	[0, 0, 0]	n/a	catFR1	0	R1626S
997.813	0.0	1032518	DISTRACT_START	n/a	n/a	n/a	n/a	-999	8	[0, 0, 0]	n/a	catFR1	0	R1626S
997.812	0.001	1032518	PROB	8.733	n/a	n/a	n/a	-999	8	[5, 1, 7]	13.0	catFR1	0	R1626S
997.813	8.75	1032519	START	n/a	n/a	n/a	n/a	-999	8	[-999, -999, -999]	n/a	catFR1	0	R1626S
1006.563	6.549	1041269	PROB	6.533	n/a	n/a	n/a	-999	8	[7, 3, 4]	14.0	catFR1	0	R1626S
1013.112	10.467	1047817	PROB	10.451	n/a	n/a	n/a	-999	8	[5, 8, 8]	21.0	catFR1	0	R1626S
1023.579	0.0	1058282	DISTRACT_END	n/a	n/a	n/a	n/a	-999	8	[0, 0, 0]	n/a	catFR1	0	R1626S
1023.579	2.184	1058284	STOP	n/a	n/a	n/a	n/a	-999	8	[-999, -999, -999]	n/a	catFR1	0	R1626S
1025.763	6.792	1060466	REC_START	n/a	n/a	n/a	n/a	-999	8	[0, 0, 0]	n/a	catFR1	0	R1626S
1032.555	2.53	1067259	REC_WORD_VV	6.792	n/a	<>	n/a	-999	8	[0, 0, 0]	n/a	catFR1	0	R1626S
1035.085	3.411	1069789	REC_WORD	9.322	n/a	CHEETAH	Zoo	1	8	[0, 0, 0]	n/a	catFR1	0	R1626S
1038.496	8.677	1073200	REC_WORD	12.733	n/a	PANDA	Zoo	9	8	[0, 0, 0]	n/a	catFR1	0	R1626S
1047.173	8.777	1081877	REC_WORD	21.41	n/a	ZEBRA	Zoo	10	8	[0, 0, 0]	n/a	catFR1	0	R1626S
1055.95	3.178	1090655	REC_END	n/a	n/a	n/a	n/a	-999	8	[0, 0, 0]	n/a	catFR1	0	R1626S
1059.128	10.35	1093831	COUNTDOWN_START	n/a	n/a	n/a	n/a	-999	9	[0, 0, 0]	n/a	catFR1	0	R1626S
1069.478	0.0	1104181	COUNTDOWN_END	n/a	n/a	n/a	n/a	-999	9	[0, 0, 0]	n/a	catFR1	0	R1626S
1069.478	1.918	1104181	ENCODING_START	n/a	n/a	n/a	n/a	-999	9	[0, 0, 0]	n/a	catFR1	0	R1626S
1071.396	1.6	1106098	WORD	n/a	wordpools/wordpool_categorized_EN.txt	BROCCOLI	Vegetables	1	9	[0, 0, 0]	n/a	catFR1	0	R1626S
1072.996	0.867	1107700	WORD_OFF	n/a	n/a	BROCCOLI	Vegetables	1	9	[0, 0, 0]	n/a	catFR1	0	R1626S
1073.863	1.6	1108568	WORD	n/a	wordpools/wordpool_categorized_EN.txt	CELERY	Vegetables	2	9	[0, 0, 0]	n/a	catFR1	0	R1626S
1075.463	0.883	1110161	WORD_OFF	n/a	n/a	CELERY	Vegetables	2	9	[0, 0, 0]	n/a	catFR1	0	R1626S
1076.346	1.616	1111048	WORD	n/a	wordpools/wordpool_categorized_EN.txt	TROMBONE	Instruments	3	9	[0, 0, 0]	n/a	catFR1	0	R1626S
1077.962	0.819	1112670	WORD_OFF	n/a	n/a	TROMBONE	Instruments	3	9	[0, 0, 0]	n/a	catFR1	0	R1626S
1078.781	1.598	1113481	WORD	n/a	wordpools/wordpool_categorized_EN.txt	GUITAR	Instruments	4	9	[0, 0, 0]	n/a	catFR1	0	R1626S
1080.379	0.983	1115083	WORD_OFF	n/a	n/a	GUITAR	Instruments	4	9	[0, 0, 0]	n/a	catFR1	0	R1626S
1081.362	1.616	1116066	WORD	n/a	wordpools/wordpool_categorized_EN.txt	THUNDER	Weather	5	9	[0, 0, 0]	n/a	catFR1	0	R1626S
1082.978	0.784	1117678	WORD_OFF	n/a	n/a	THUNDER	Weather	5	9	[0, 0, 0]	n/a	catFR1	0	R1626S
1083.762	1.6	1118469	WORD	n/a	wordpools/wordpool_categorized_EN.txt	RAIN	Weather	6	9	[0, 0, 0]	n/a	catFR1	0	R1626S
1085.362	0.9	1120062	WORD_OFF	n/a	n/a	RAIN	Weather	6	9	[0, 0, 0]	n/a	catFR1	0	R1626S
1086.262	1.6	1120968	WORD	n/a	wordpools/wordpool_categorized_EN.txt	PEAS	Vegetables	7	9	[0, 0, 0]	n/a	catFR1	0	R1626S
1087.862	0.766	1122561	WORD_OFF	n/a	n/a	PEAS	Vegetables	7	9	[0, 0, 0]	n/a	catFR1	0	R1626S
1088.628	1.601	1123334	WORD	n/a	wordpools/wordpool_categorized_EN.txt	ONION	Vegetables	8	9	[0, 0, 0]	n/a	catFR1	0	R1626S
1090.229	0.884	1124927	WORD_OFF	n/a	n/a	ONION	Vegetables	8	9	[0, 0, 0]	n/a	catFR1	0	R1626S
1091.113	1.599	1125814	WORD	n/a	wordpools/wordpool_categorized_EN.txt	BASS	Instruments	9	9	[0, 0, 0]	n/a	catFR1	0	R1626S
1092.712	0.867	1127416	WORD_OFF	n/a	n/a	BASS	Instruments	9	9	[0, 0, 0]	n/a	catFR1	0	R1626S
1093.579	1.615	1128284	WORD	n/a	wordpools/wordpool_categorized_EN.txt	DRUM	Instruments	10	9	[0, 0, 0]	n/a	catFR1	0	R1626S
1095.194	0.968	1129896	WORD_OFF	n/a	n/a	DRUM	Instruments	10	9	[0, 0, 0]	n/a	catFR1	0	R1626S
1096.162	1.618	1130860	WORD	n/a	wordpools/wordpool_categorized_EN.txt	HURRICANE	Weather	11	9	[0, 0, 0]	n/a	catFR1	0	R1626S
1097.78	0.781	1132481	WORD_OFF	n/a	n/a	HURRICANE	Weather	11	9	[0, 0, 0]	n/a	catFR1	0	R1626S
1098.561	1.602	1133263	WORD	n/a	wordpools/wordpool_categorized_EN.txt	THUNDERSTORM	Weather	12	9	[0, 0, 0]	n/a	catFR1	0	R1626S
1100.163	0.001	1134864	PROB	5.265	n/a	n/a	n/a	-999	9	[8, 2, 5]	15.0	catFR1	0	R1626S
1100.164	0.0	1134865	START	n/a	n/a	n/a	n/a	-999	9	[-999, -999, -999]	n/a	catFR1	0	R1626S
1100.163	0.001	1134866	WORD_OFF	n/a	n/a	THUNDERSTORM	Weather	12	9	[0, 0, 0]	n/a	catFR1	0	R1626S
1100.164	0.0	1134866	ENCODING_END	n/a	n/a	n/a	n/a	-999	9	[0, 0, 0]	n/a	catFR1	0	R1626S
1100.164	5.283	1134866	DISTRACT_START	n/a	n/a	n/a	n/a	-999	9	[0, 0, 0]	n/a	catFR1	0	R1626S
1105.447	5.4	1140148	PROB	5.382	n/a	n/a	n/a	-999	9	[2, 8, 7]	17.0	catFR1	0	R1626S
1110.847	5.166	1145548	PROB	5.149	n/a	n/a	n/a	-999	9	[5, 1, 4]	10.0	catFR1	0	R1626S
1116.013	10.315	1150714	PROB	10.3	n/a	n/a	n/a	-999	9	[4, 2, 3]	9.0	catFR1	0	R1626S
1126.328	0.0	1161028	STOP	n/a	n/a	n/a	n/a	-999	9	[-999, -999, -999]	n/a	catFR1	0	R1626S
1126.328	2.151	1161030	DISTRACT_END	n/a	n/a	n/a	n/a	-999	9	[0, 0, 0]	n/a	catFR1	0	R1626S
1128.479	7.413	1163176	REC_START	n/a	n/a	n/a	n/a	-999	9	[0, 0, 0]	n/a	catFR1	0	R1626S
1135.892	5.95	1170592	REC_WORD_VV	7.413	n/a	<>	n/a	-999	9	[0, 0, 0]	n/a	catFR1	0	R1626S
1141.842	7.792	1176541	REC_WORD	13.363	n/a	RAIN	Weather	6	9	[0, 0, 0]	n/a	catFR1	0	R1626S
1149.634	4.95	1184333	REC_WORD	21.155	n/a	THUNDERSTORM	Weather	12	9	[0, 0, 0]	n/a	catFR1	0	R1626S
1154.584	4.068	1189283	REC_WORD	26.105	n/a	HURRICANE	Weather	11	9	[0, 0, 0]	n/a	catFR1	0	R1626S
1158.652	3.044	1193346	REC_END	n/a	n/a	n/a	n/a	-999	9	[0, 0, 0]	n/a	catFR1	0	R1626S
1161.696	10.349	1196398	COUNTDOWN_START	n/a	n/a	n/a	n/a	-999	10	[0, 0, 0]	n/a	catFR1	0	R1626S
1172.045	0.0	1206748	COUNTDOWN_END	n/a	n/a	n/a	n/a	-999	10	[0, 0, 0]	n/a	catFR1	0	R1626S
1172.045	2.183	1206748	ENCODING_START	n/a	n/a	n/a	n/a	-999	10	[0, 0, 0]	n/a	catFR1	0	R1626S
1174.228	1.601	1208922	WORD	n/a	wordpools/wordpool_categorized_EN.txt	SANDER	Tools	1	10	[0, 0, 0]	n/a	catFR1	0	R1626S
1175.829	0.95	1210525	WORD_OFF	n/a	n/a	SANDER	Tools	1	10	[0, 0, 0]	n/a	catFR1	0	R1626S
1176.779	1.6	1211479	WORD	n/a	wordpools/wordpool_categorized_EN.txt	AXE	Tools	2	10	[0, 0, 0]	n/a	catFR1	0	R1626S
1178.379	0.867	1213081	WORD_OFF	n/a	n/a	AXE	Tools	2	10	[0, 0, 0]	n/a	catFR1	0	R1626S
1179.246	1.616	1213940	WORD	n/a	wordpools/wordpool_categorized_EN.txt	APPLE	Fruit	3	10	[0, 0, 0]	n/a	catFR1	0	R1626S
1180.862	0.866	1215561	WORD_OFF	n/a	n/a	APPLE	Fruit	3	10	[0, 0, 0]	n/a	catFR1	0	R1626S
1181.728	1.601	1216429	WORD	n/a	wordpools/wordpool_categorized_EN.txt	ORANGE	Fruit	4	10	[0, 0, 0]	n/a	catFR1	0	R1626S
1183.329	0.95	1218032	WORD_OFF	n/a	n/a	ORANGE	Fruit	4	10	[0, 0, 0]	n/a	catFR1	0	R1626S
1184.279	1.617	1218976	WORD	n/a	wordpools/wordpool_categorized_EN.txt	HALLWAY	Building	5	10	[0, 0, 0]	n/a	catFR1	0	R1626S
1185.896	0.815	1220598	WORD_OFF	n/a	n/a	HALLWAY	Building	5	10	[0, 0, 0]	n/a	catFR1	0	R1626S
1186.711	1.6	1221408	WORD	n/a	wordpools/wordpool_categorized_EN.txt	DOOR	Building	6	10	[0, 0, 0]	n/a	catFR1	0	R1626S
1188.311	1.001	1223011	WORD_OFF	n/a	n/a	DOOR	Building	6	10	[0, 0, 0]	n/a	catFR1	0	R1626S
1189.312	1.617	1224012	WORD	n/a	wordpools/wordpool_categorized_EN.txt	RATCHET	Tools	7	10	[0, 0, 0]	n/a	catFR1	0	R1626S
1190.929	0.933	1225624	WORD_OFF	n/a	n/a	RATCHET	Tools	7	10	[0, 0, 0]	n/a	catFR1	0	R1626S
1191.862	1.6	1226559	WORD	n/a	wordpools/wordpool_categorized_EN.txt	SHOVEL	Tools	8	10	[0, 0, 0]	n/a	catFR1	0	R1626S
1193.462	0.934	1228162	WORD_OFF	n/a	n/a	SHOVEL	Tools	8	10	[0, 0, 0]	n/a	catFR1	0	R1626S
1194.396	1.616	1229096	WORD	n/a	wordpools/wordpool_categorized_EN.txt	ATTIC	Building	9	10	[0, 0, 0]	n/a	catFR1	0	R1626S
1196.012	0.901	1230708	WORD_OFF	n/a	n/a	ATTIC	Building	9	10	[0, 0, 0]	n/a	catFR1	0	R1626S
1196.913	1.599	1231614	WORD	n/a	wordpools/wordpool_categorized_EN.txt	ROOF	Building	10	10	[0, 0, 0]	n/a	catFR1	0	R1626S
1198.512	0.884	1233207	WORD_OFF	n/a	n/a	ROOF	Building	10	10	[0, 0, 0]	n/a	catFR1	0	R1626S
1199.396	1.6	1234094	WORD	n/a	wordpools/wordpool_categorized_EN.txt	PEACH	Fruit	11	10	[0, 0, 0]	n/a	catFR1	0	R1626S
1200.996	0.783	1235697	WORD_OFF	n/a	n/a	PEACH	Fruit	11	10	[0, 0, 0]	n/a	catFR1	0	R1626S
1201.779	1.617	1236479	WORD	n/a	wordpools/wordpool_categorized_EN.txt	STRAWBERRY	Fruit	12	10	[0, 0, 0]	n/a	catFR1	0	R1626S
1203.396	0.001	1238091	WORD_OFF	n/a	n/a	STRAWBERRY	Fruit	12	10	[0, 0, 0]	n/a	catFR1	0	R1626S
1203.397	0.0	1238091	ENCODING_END	n/a	n/a	n/a	n/a	-999	10	[0, 0, 0]	n/a	catFR1	0	R1626S
1203.397	0.0	1238091	DISTRACT_START	n/a	n/a	n/a	n/a	-999	10	[0, 0, 0]	n/a	catFR1	0	R1626S
1203.395	0.002	1238092	PROB	14.066	n/a	n/a	n/a	-999	10	[7, 2, 5]	14.0	catFR1	0	R1626S
1203.397	14.082	1238094	START	n/a	n/a	n/a	n/a	-999	10	[-999, -999, -999]	n/a	catFR1	0	R1626S
1217.479	5.933	1252175	PROB	5.916	n/a	n/a	n/a	-999	10	[7, 3, 6]	16.0	catFR1	0	R1626S
1223.412	0.0	1258108	STOP	n/a	n/a	n/a	n/a	-999	10	[-999, -999, -999]	n/a	catFR1	0	R1626S
1223.412	2.4	1258112	DISTRACT_END	n/a	n/a	n/a	n/a	-999	10	[0, 0, 0]	n/a	catFR1	0	R1626S
1225.812	2.307	1260506	REC_START	n/a	n/a	n/a	n/a	-999	10	[0, 0, 0]	n/a	catFR1	0	R1626S
1228.119	2.35	1262815	REC_WORD	2.307	n/a	AXE	Tools	2	10	[0, 0, 0]	n/a	catFR1	0	R1626S
1230.469	6.454	1265164	REC_WORD	4.657	n/a	SANDER	Tools	1	10	[0, 0, 0]	n/a	catFR1	0	R1626S
1236.923	3.945	1271618	REC_WORD	11.111	n/a	DOOR	Building	6	10	[0, 0, 0]	n/a	catFR1	0	R1626S
1240.868	2.575	1275563	REC_WORD	15.056	n/a	PEACH	Fruit	11	10	[0, 0, 0]	n/a	catFR1	0	R1626S
1243.443	8.334	1278138	REC_WORD	17.631	n/a	STRAWBERRY	Fruit	12	10	[0, 0, 0]	n/a	catFR1	0	R1626S
1251.777	4.234	1286471	REC_WORD_VV	25.965	n/a	<>	n/a	-999	10	[0, 0, 0]	n/a	catFR1	0	R1626S
1256.011	1.7	1290705	REC_END	n/a	n/a	n/a	n/a	-999	10	[0, 0, 0]	n/a	catFR1	0	R1626S
1257.711	10.351	1292403	COUNTDOWN_START	n/a	n/a	n/a	n/a	-999	11	[0, 0, 0]	n/a	catFR1	0	R1626S
1268.062	0.0	1302752	COUNTDOWN_END	n/a	n/a	n/a	n/a	-999	11	[0, 0, 0]	n/a	catFR1	0	R1626S
1268.062	1.916	1302762	ENCODING_START	n/a	n/a	n/a	n/a	-999	11	[0, 0, 0]	n/a	catFR1	0	R1626S
1269.978	1.601	1304669	WORD	n/a	wordpools/wordpool_categorized_EN.txt	BUS	Vehicles	1	11	[0, 0, 0]	n/a	catFR1	0	R1626S
1271.579	0.916	1306272	WORD_OFF	n/a	n/a	BUS	Vehicles	1	11	[0, 0, 0]	n/a	catFR1	0	R1626S
1272.495	1.617	1307188	WORD	n/a	wordpools/wordpool_categorized_EN.txt	PLANE	Vehicles	2	11	[0, 0, 0]	n/a	catFR1	0	R1626S
1274.112	0.833	1308809	WORD_OFF	n/a	n/a	PLANE	Vehicles	2	11	[0, 0, 0]	n/a	catFR1	0	R1626S
1274.945	1.616	1309639	WORD	n/a	wordpools/wordpool_categorized_EN.txt	PLIERS	Tools	3	11	[0, 0, 0]	n/a	catFR1	0	R1626S
1276.561	0.9	1311251	WORD_OFF	n/a	n/a	PLIERS	Tools	3	11	[0, 0, 0]	n/a	catFR1	0	R1626S
1277.461	1.601	1312157	WORD	n/a	wordpools/wordpool_categorized_EN.txt	SAW	Tools	4	11	[0, 0, 0]	n/a	catFR1	0	R1626S
1279.062	0.883	1313760	WORD_OFF	n/a	n/a	SAW	Tools	4	11	[0, 0, 0]	n/a	catFR1	0	R1626S
1279.945	1.6	1314637	WORD	n/a	wordpools/wordpool_categorized_EN.txt	TOE	BodyParts	5	11	[0, 0, 0]	n/a	catFR1	0	R1626S
1281.545	0.833	1316240	WORD_OFF	n/a	n/a	TOE	BodyParts	5	11	[0, 0, 0]	n/a	catFR1	0	R1626S
1282.378	1.601	1317069	WORD	n/a	wordpools/wordpool_categorized_EN.txt	HEAD	BodyParts	6	11	[0, 0, 0]	n/a	catFR1	0	R1626S
1283.979	0.95	1318672	WORD_OFF	n/a	n/a	HEAD	BodyParts	6	11	[0, 0, 0]	n/a	catFR1	0	R1626S
1284.929	1.6	1319626	WORD	n/a	wordpools/wordpool_categorized_EN.txt	HAMMER	Tools	7	11	[0, 0, 0]	n/a	catFR1	0	R1626S
1286.529	0.783	1321219	WORD_OFF	n/a	n/a	HAMMER	Tools	7	11	[0, 0, 0]	n/a	catFR1	0	R1626S
1287.312	1.617	1322010	WORD	n/a	wordpools/wordpool_categorized_EN.txt	LEVEL	Tools	8	11	[0, 0, 0]	n/a	catFR1	0	R1626S
1288.929	0.832	1323622	WORD_OFF	n/a	n/a	LEVEL	Tools	8	11	[0, 0, 0]	n/a	catFR1	0	R1626S
1289.761	1.601	1324452	WORD	n/a	wordpools/wordpool_categorized_EN.txt	FOOT	BodyParts	9	11	[0, 0, 0]	n/a	catFR1	0	R1626S
1291.362	0.867	1326055	WORD_OFF	n/a	n/a	FOOT	BodyParts	9	11	[0, 0, 0]	n/a	catFR1	0	R1626S
1292.229	1.617	1326923	WORD	n/a	wordpools/wordpool_categorized_EN.txt	KNEE	BodyParts	10	11	[0, 0, 0]	n/a	catFR1	0	R1626S
1293.846	1.0	1328535	WORD_OFF	n/a	n/a	KNEE	BodyParts	10	11	[0, 0, 0]	n/a	catFR1	0	R1626S
1294.846	1.616	1329536	WORD	n/a	wordpools/wordpool_categorized_EN.txt	MOTORCYCLE	Vehicles	11	11	[0, 0, 0]	n/a	catFR1	0	R1626S
1296.462	0.817	1331158	WORD_OFF	n/a	n/a	MOTORCYCLE	Vehicles	11	11	[0, 0, 0]	n/a	catFR1	0	R1626S
1297.279	1.6	1331969	WORD	n/a	wordpools/wordpool_categorized_EN.txt	MOPED	Vehicles	12	11	[0, 0, 0]	n/a	catFR1	0	R1626S
1298.879	0.001	1333571	WORD_OFF	n/a	n/a	MOPED	Vehicles	12	11	[0, 0, 0]	n/a	catFR1	0	R1626S
1298.88	0.0	1333571	ENCODING_END	n/a	n/a	n/a	n/a	-999	11	[0, 0, 0]	n/a	catFR1	0	R1626S
1298.88	0.0	1333571	DISTRACT_START	n/a	n/a	n/a	n/a	-999	11	[0, 0, 0]	n/a	catFR1	0	R1626S
1298.879	0.001	1333571	PROB	6.449	n/a	n/a	n/a	-999	11	[4, 5, 8]	17.0	catFR1	0	R1626S
1298.88	6.466	1333572	START	n/a	n/a	n/a	n/a	-999	11	[-999, -999, -999]	n/a	catFR1	0	R1626S
1305.346	11.165	1340038	PROB	11.15	n/a	n/a	n/a	-999	11	[5, 8, 8]	21.0	catFR1	0	R1626S
1316.511	8.751	1351202	PROB	8.734	n/a	n/a	n/a	-999	11	[2, 7, 6]	15.0	catFR1	0	R1626S
1325.262	0.0	1359953	STOP	n/a	n/a	n/a	n/a	-999	11	[-999, -999, -999]	n/a	catFR1	0	R1626S
1325.262	2.383	1359954	DISTRACT_END	n/a	n/a	n/a	n/a	-999	11	[0, 0, 0]	n/a	catFR1	0	R1626S
1327.645	1.807	1362339	REC_START	n/a	n/a	n/a	n/a	-999	11	[0, 0, 0]	n/a	catFR1	0	R1626S
1329.452	4.082	1364143	REC_WORD_VV	1.807	n/a	<>	n/a	-999	11	[0, 0, 0]	n/a	catFR1	0	R1626S
1333.534	7.18	1368225	REC_WORD	5.889	n/a	PLIERS	Tools	3	11	[0, 0, 0]	n/a	catFR1	0	R1626S
1340.714	16.556	1375404	REC_WORD	13.069	n/a	HAMMER	Tools	7	11	[0, 0, 0]	n/a	catFR1	0	R1626S
1357.27	0.548	1391960	REC_WORD_VV	29.625	n/a	<>	n/a	-999	11	[0, 0, 0]	n/a	catFR1	0	R1626S
1357.818	3.91	1392509	REC_END	n/a	n/a	n/a	n/a	-999	11	[0, 0, 0]	n/a	catFR1	0	R1626S
1361.728	10.351	1396420	COUNTDOWN_START	n/a	n/a	n/a	n/a	-999	12	[0, 0, 0]	n/a	catFR1	0	R1626S
1372.079	0.0	1406769	COUNTDOWN_END	n/a	n/a	n/a	n/a	-999	12	[0, 0, 0]	n/a	catFR1	0	R1626S
1372.079	2.066	1406769	ENCODING_START	n/a	n/a	n/a	n/a	-999	12	[0, 0, 0]	n/a	catFR1	0	R1626S
1374.145	1.616	1408839	WORD	n/a	wordpools/wordpool_categorized_EN.txt	FOG	Weather	1	12	[0, 0, 0]	n/a	catFR1	0	R1626S
1375.761	0.8	1410451	WORD_OFF	n/a	n/a	FOG	Weather	1	12	[0, 0, 0]	n/a	catFR1	0	R1626S
1376.561	1.6	1411252	WORD	n/a	wordpools/wordpool_categorized_EN.txt	TORNADO	Weather	2	12	[0, 0, 0]	n/a	catFR1	0	R1626S
1378.161	0.901	1412855	WORD_OFF	n/a	n/a	TORNADO	Weather	2	12	[0, 0, 0]	n/a	catFR1	0	R1626S
1379.062	1.6	1413751	WORD	n/a	wordpools/wordpool_categorized_EN.txt	PEN	OfficeSupplies	3	12	[0, 0, 0]	n/a	catFR1	0	R1626S
1380.662	0.8	1415354	WORD_OFF	n/a	n/a	PEN	OfficeSupplies	3	12	[0, 0, 0]	n/a	catFR1	0	R1626S
1381.462	1.6	1416155	WORD	n/a	wordpools/wordpool_categorized_EN.txt	TAPE	OfficeSupplies	4	12	[0, 0, 0]	n/a	catFR1	0	R1626S
1383.062	0.949	1417748	WORD_OFF	n/a	n/a	TAPE	OfficeSupplies	4	12	[0, 0, 0]	n/a	catFR1	0	R1626S
1384.011	1.601	1418702	WORD	n/a	wordpools/wordpool_categorized_EN.txt	BIKE	Vehicles	5	12	[0, 0, 0]	n/a	catFR1	0	R1626S
1385.612	0.783	1420304	WORD_OFF	n/a	n/a	BIKE	Vehicles	5	12	[0, 0, 0]	n/a	catFR1	0	R1626S
1386.395	1.6	1421086	WORD	n/a	wordpools/wordpool_categorized_EN.txt	CAR	Vehicles	6	12	[0, 0, 0]	n/a	catFR1	0	R1626S
1387.995	0.967	1422679	WORD_OFF	n/a	n/a	CAR	Vehicles	6	12	[0, 0, 0]	n/a	catFR1	0	R1626S
1388.962	1.6	1423652	WORD	n/a	wordpools/wordpool_categorized_EN.txt	SNOW	Weather	7	12	[0, 0, 0]	n/a	catFR1	0	R1626S
1390.562	1.0	1425255	WORD_OFF	n/a	n/a	SNOW	Weather	7	12	[0, 0, 0]	n/a	catFR1	0	R1626S
1391.562	1.6	1426247	WORD	n/a	wordpools/wordpool_categorized_EN.txt	WIND	Weather	8	12	[0, 0, 0]	n/a	catFR1	0	R1626S
1393.162	0.866	1427849	WORD_OFF	n/a	n/a	WIND	Weather	8	12	[0, 0, 0]	n/a	catFR1	0	R1626S
1394.028	1.601	1428717	WORD	n/a	wordpools/wordpool_categorized_EN.txt	GLUE	OfficeSupplies	9	12	[0, 0, 0]	n/a	catFR1	0	R1626S
1395.629	0.899	1430320	WORD_OFF	n/a	n/a	GLUE	OfficeSupplies	9	12	[0, 0, 0]	n/a	catFR1	0	R1626S
1396.528	1.6	1431216	WORD	n/a	wordpools/wordpool_categorized_EN.txt	RULER	OfficeSupplies	10	12	[0, 0, 0]	n/a	catFR1	0	R1626S
1398.128	0.951	1432819	WORD_OFF	n/a	n/a	RULER	OfficeSupplies	10	12	[0, 0, 0]	n/a	catFR1	0	R1626S
1399.079	1.599	1433763	WORD	n/a	wordpools/wordpool_categorized_EN.txt	JEEP	Vehicles	11	12	[0, 0, 0]	n/a	catFR1	0	R1626S
1400.678	0.783	1435365	WORD_OFF	n/a	n/a	JEEP	Vehicles	11	12	[0, 0, 0]	n/a	catFR1	0	R1626S
1401.461	1.617	1436148	WORD	n/a	wordpools/wordpool_categorized_EN.txt	SCOOTER	Vehicles	12	12	[0, 0, 0]	n/a	catFR1	0	R1626S
1403.078	0.002	1437766	PROB	4.5	n/a	n/a	n/a	-999	12	[2, 5, 5]	12.0	catFR1	0	R1626S
1403.08	0.0	1437768	START	n/a	n/a	n/a	n/a	-999	12	[-999, -999, -999]	n/a	catFR1	0	R1626S
1403.078	0.002	1437769	WORD_OFF	n/a	n/a	SCOOTER	Vehicles	12	12	[0, 0, 0]	n/a	catFR1	0	R1626S
1403.08	0.0	1437769	ENCODING_END	n/a	n/a	n/a	n/a	-999	12	[0, 0, 0]	n/a	catFR1	0	R1626S
1403.08	4.515	1437769	DISTRACT_START	n/a	n/a	n/a	n/a	-999	12	[0, 0, 0]	n/a	catFR1	0	R1626S
1407.595	5.151	1442282	PROB	5.133	n/a	n/a	n/a	-999	12	[1, 4, 2]	7.0	catFR1	0	R1626S
1412.746	4.033	1447433	PROB	4.016	n/a	n/a	n/a	-999	12	[1, 1, 5]	7.0	catFR1	0	R1626S
1416.779	4.649	1451466	PROB	4.633	n/a	n/a	n/a	-999	12	[2, 4, 4]	10.0	catFR1	0	R1626S
1421.428	7.234	1456115	PROB	7.217	n/a	n/a	n/a	-999	12	[4, 5, 8]	17.0	catFR1	0	R1626S
1428.662	0.0	1463348	STOP	n/a	n/a	n/a	n/a	-999	12	[-999, -999, -999]	n/a	catFR1	0	R1626S
1428.662	2.183	1463351	DISTRACT_END	n/a	n/a	n/a	n/a	-999	12	[0, 0, 0]	n/a	catFR1	0	R1626S
1430.845	3.979	1465536	REC_START	n/a	n/a	n/a	n/a	-999	12	[0, 0, 0]	n/a	catFR1	0	R1626S
1434.824	4.344	1469510	REC_WORD_VV	3.979	n/a	<>	n/a	-999	12	[0, 0, 0]	n/a	catFR1	0	R1626S
1439.168	7.1	1473854	REC_WORD	8.323	n/a	BIKE	Vehicles	5	12	[0, 0, 0]	n/a	catFR1	0	R1626S
1446.268	6.041	1480954	REC_WORD_VV	15.423	n/a	<>	n/a	-999	12	[0, 0, 0]	n/a	catFR1	0	R1626S
1452.309	8.713	1486994	REC_WORD_VV	21.464	n/a	<>	n/a	-999	12	[0, 0, 0]	n/a	catFR1	0	R1626S
1461.022	0.0	1495706	REC_END	n/a	n/a	n/a	n/a	-999	12	[0, 0, 0]	n/a	catFR1	0	R1626S
