onset	duration	sample	trial_type	response_time	stim_file	item_name	category	serialpos	list	test	answer	experiment	session	subject
0.0	164.798	147822	INSTRUCT_START	n/a	n/a	n/a	n/a	-999	-999	[0, 0, 0]	n/a	catFR1	0	R1505J
164.798	38.268	312598	INSTRUCT_END	n/a	n/a	n/a	n/a	-999	-999	[0, 0, 0]	n/a	catFR1	0	R1505J
203.066	10.348	350871	COUNTDOWN_START	n/a	n/a	n/a	n/a	-999	-999	[0, 0, 0]	n/a	catFR1	0	R1505J
213.414	0.0	361220	COUNTDOWN_END	n/a	n/a	n/a	n/a	-999	-999	[0, 0, 0]	n/a	catFR1	0	R1505J
213.414	1.985	361220	ENCODING_START	n/a	n/a	n/a	n/a	-999	-1	[0, 0, 0]	n/a	catFR1	0	R1505J
215.399	1.616	363204	WORD	n/a	n/a	BARBIE	Toys	1	-1	[0, 0, 0]	n/a	catFR1	0	R1505J
217.015	0.899	364818	WORD_OFF	n/a	n/a	BARBIE	Toys	1	-1	[0, 0, 0]	n/a	catFR1	0	R1505J
217.914	1.601	365721	WORD	n/a	n/a	BLOCKS	Toys	2	-1	[0, 0, 0]	n/a	catFR1	0	R1505J
219.515	0.767	367320	WORD_OFF	n/a	n/a	BLOCKS	Toys	2	-1	[0, 0, 0]	n/a	catFR1	0	R1505J
220.282	1.6	368090	WORD	n/a	n/a	CHAIR	Furniture	3	-1	[0, 0, 0]	n/a	catFR1	0	R1505J
221.882	0.85	369689	WORD_OFF	n/a	n/a	CHAIR	Furniture	3	-1	[0, 0, 0]	n/a	catFR1	0	R1505J
222.732	1.6	370533	WORD	n/a	n/a	TABLE	Furniture	4	-1	[0, 0, 0]	n/a	catFR1	0	R1505J
224.332	0.883	372132	WORD_OFF	n/a	n/a	TABLE	Furniture	4	-1	[0, 0, 0]	n/a	catFR1	0	R1505J
225.215	1.616	373021	WORD	n/a	n/a	MARIGOLD	Flowers	5	-1	[0, 0, 0]	n/a	catFR1	0	R1505J
226.831	0.967	374635	WORD_OFF	n/a	n/a	MARIGOLD	Flowers	5	-1	[0, 0, 0]	n/a	catFR1	0	R1505J
227.798	1.615	375597	WORD	n/a	n/a	ROSE	Flowers	6	-1	[0, 0, 0]	n/a	catFR1	0	R1505J
229.413	0.869	377211	WORD_OFF	n/a	n/a	ROSE	Flowers	6	-1	[0, 0, 0]	n/a	catFR1	0	R1505J
230.282	1.616	378084	WORD	n/a	n/a	PUZZLE	Toys	7	-1	[0, 0, 0]	n/a	catFR1	0	R1505J
231.898	0.816	379698	WORD_OFF	n/a	n/a	PUZZLE	Toys	7	-1	[0, 0, 0]	n/a	catFR1	0	R1505J
232.714	1.601	380513	WORD	n/a	n/a	FRISBEE	Toys	8	-1	[0, 0, 0]	n/a	catFR1	0	R1505J
234.315	0.966	382112	WORD_OFF	n/a	n/a	FRISBEE	Toys	8	-1	[0, 0, 0]	n/a	catFR1	0	R1505J
235.281	1.616	383089	WORD	n/a	n/a	NIGHTSTAND	Furniture	9	-1	[0, 0, 0]	n/a	catFR1	0	R1505J
236.897	0.851	384703	WORD_OFF	n/a	n/a	NIGHTSTAND	Furniture	9	-1	[0, 0, 0]	n/a	catFR1	0	R1505J
237.748	1.617	385547	WORD	n/a	n/a	SHELF	Furniture	10	-1	[0, 0, 0]	n/a	catFR1	0	R1505J
239.365	0.983	387169	WORD_OFF	n/a	n/a	SHELF	Furniture	10	-1	[0, 0, 0]	n/a	catFR1	0	R1505J
240.348	1.6	388152	WORD	n/a	n/a	DAISY	Flowers	11	-1	[0, 0, 0]	n/a	catFR1	0	R1505J
241.948	0.932	389752	WORD_OFF	n/a	n/a	DAISY	Flowers	11	-1	[0, 0, 0]	n/a	catFR1	0	R1505J
242.88	1.602	390684	WORD	n/a	n/a	CARNATION	Flowers	12	-1	[0, 0, 0]	n/a	catFR1	0	R1505J
244.482	0.001	392283	WORD_OFF	n/a	n/a	CARNATION	Flowers	12	-1	[0, 0, 0]	n/a	catFR1	0	R1505J
244.483	0.0	392283	ENCODING_END	n/a	n/a	n/a	n/a	-999	-1	[0, 0, 0]	n/a	catFR1	0	R1505J
244.483	0.0	392283	DISTRACT_START	n/a	n/a	n/a	n/a	-999	-1	[0, 0, 0]	n/a	catFR1	0	R1505J
244.483	0.0	392283	START	n/a	n/a	n/a	n/a	-999	-1	[-999, -999, -999]	n/a	catFR1	0	R1505J
244.483	8.181	392283	PROB	8.181	n/a	n/a	n/a	-999	-1	[1, 1, 2]	4	catFR1	0	R1505J
252.664	6.267	400464	PROB	6.267	n/a	n/a	n/a	-999	-1	[8, 8, 3]	19	catFR1	0	R1505J
258.931	4.382	406731	PROB	4.382	n/a	n/a	n/a	-999	-1	[3, 3, 6]	12	catFR1	0	R1505J
263.313	5.417	411112	PROB	5.417	n/a	n/a	n/a	-999	-1	[4, 5, 8]	17	catFR1	0	R1505J
268.73	0.0	416529	STOP	n/a	n/a	n/a	n/a	-999	-1	[-999, -999, -999]	n/a	catFR1	0	R1505J
268.73	1.134	416536	DISTRACT_END	n/a	n/a	n/a	n/a	-999	-1	[0, 0, 0]	n/a	catFR1	0	R1505J
269.864	12.461	417661	REC_START	n/a	n/a	n/a	n/a	-999	-1	[0, 0, 0]	n/a	catFR1	0	R1505J
282.325	2.388	430124	REC_WORD	2.388	n/a	BARBIE	Toys	1	-1	[0, 0, 0]	n/a	catFR1	0	R1505J
284.713	1.269	432512	REC_WORD_VV	1.269	n/a	<>	n/a	-999	-1	[0, 0, 0]	n/a	catFR1	0	R1505J
285.982	2.312	433781	REC_WORD	2.312	n/a	SHIFT	n/a	-999	-1	[0, 0, 0]	n/a	catFR1	0	R1505J
288.294	9.155	436092	REC_WORD	9.155	n/a	NOZZLE	n/a	-999	-1	[0, 0, 0]	n/a	catFR1	0	R1505J
297.449	3.61	445247	REC_WORD_VV	3.61	n/a	<>	n/a	-999	-1	[0, 0, 0]	n/a	catFR1	0	R1505J
301.059	19.489	448857	REC_END	n/a	n/a	n/a	n/a	-999	-1	[0, 0, 0]	n/a	catFR1	0	R1505J
320.548	10.351	468356	COUNTDOWN_START	n/a	n/a	n/a	n/a	-999	1	[0, 0, 0]	n/a	catFR1	0	R1505J
330.899	0.0	478691	COUNTDOWN_END	n/a	n/a	n/a	n/a	-999	1	[0, 0, 0]	n/a	catFR1	0	R1505J
330.899	1.882	478706	ENCODING_START	n/a	n/a	n/a	n/a	-999	1	[0, 0, 0]	n/a	catFR1	0	R1505J
332.781	1.615	480586	WORD	n/a	wordpools/wordpool_categorized_EN.txt	OAK	Trees	1	1	[0, 0, 0]	n/a	catFR1	0	R1505J
334.396	0.801	482200	WORD_OFF	n/a	n/a	OAK	Trees	1	1	[0, 0, 0]	n/a	catFR1	0	R1505J
335.197	1.616	482999	WORD	n/a	wordpools/wordpool_categorized_EN.txt	PINE	Trees	2	1	[0, 0, 0]	n/a	catFR1	0	R1505J
336.813	0.801	484613	WORD_OFF	n/a	n/a	PINE	Trees	2	1	[0, 0, 0]	n/a	catFR1	0	R1505J
337.614	1.601	485413	WORD	n/a	wordpools/wordpool_categorized_EN.txt	JACKET	Clothing	3	1	[0, 0, 0]	n/a	catFR1	0	R1505J
339.215	0.866	487012	WORD_OFF	n/a	n/a	JACKET	Clothing	3	1	[0, 0, 0]	n/a	catFR1	0	R1505J
340.081	1.616	487885	WORD	n/a	wordpools/wordpool_categorized_EN.txt	SHIRT	Clothing	4	1	[0, 0, 0]	n/a	catFR1	0	R1505J
341.697	0.951	489499	WORD_OFF	n/a	n/a	SHIRT	Clothing	4	1	[0, 0, 0]	n/a	catFR1	0	R1505J
342.648	1.6	490447	WORD	n/a	wordpools/wordpool_categorized_EN.txt	PUDDING	Desserts	5	1	[0, 0, 0]	n/a	catFR1	0	R1505J
344.248	0.999	492046	WORD_OFF	n/a	n/a	PUDDING	Desserts	5	1	[0, 0, 0]	n/a	catFR1	0	R1505J
345.247	1.601	493053	WORD	n/a	wordpools/wordpool_categorized_EN.txt	MOUSSE	Desserts	6	1	[0, 0, 0]	n/a	catFR1	0	R1505J
346.848	0.983	494652	WORD_OFF	n/a	n/a	MOUSSE	Desserts	6	1	[0, 0, 0]	n/a	catFR1	0	R1505J
347.831	1.601	495629	WORD	n/a	wordpools/wordpool_categorized_EN.txt	DRESS	Clothing	7	1	[0, 0, 0]	n/a	catFR1	0	R1505J
349.432	0.899	497228	WORD_OFF	n/a	n/a	DRESS	Clothing	7	1	[0, 0, 0]	n/a	catFR1	0	R1505J
350.331	1.6	498131	WORD	n/a	wordpools/wordpool_categorized_EN.txt	SHOES	Clothing	8	1	[0, 0, 0]	n/a	catFR1	0	R1505J
351.931	0.932	499730	WORD_OFF	n/a	n/a	SHOES	Clothing	8	1	[0, 0, 0]	n/a	catFR1	0	R1505J
352.863	1.601	500663	WORD	n/a	wordpools/wordpool_categorized_EN.txt	WILLOW	Trees	9	1	[0, 0, 0]	n/a	catFR1	0	R1505J
354.464	0.95	502262	WORD_OFF	n/a	n/a	WILLOW	Trees	9	1	[0, 0, 0]	n/a	catFR1	0	R1505J
355.414	1.601	503210	WORD	n/a	wordpools/wordpool_categorized_EN.txt	MAPLE	Trees	10	1	[0, 0, 0]	n/a	catFR1	0	R1505J
357.015	0.865	504809	WORD_OFF	n/a	n/a	MAPLE	Trees	10	1	[0, 0, 0]	n/a	catFR1	0	R1505J
357.88	1.602	505682	WORD	n/a	wordpools/wordpool_categorized_EN.txt	COOKIE	Desserts	11	1	[0, 0, 0]	n/a	catFR1	0	R1505J
359.482	0.983	507281	WORD_OFF	n/a	n/a	COOKIE	Desserts	11	1	[0, 0, 0]	n/a	catFR1	0	R1505J
360.465	1.616	508258	WORD	n/a	wordpools/wordpool_categorized_EN.txt	BROWNIES	Desserts	12	1	[0, 0, 0]	n/a	catFR1	0	R1505J
362.081	0.001	509872	WORD_OFF	n/a	n/a	BROWNIES	Desserts	12	1	[0, 0, 0]	n/a	catFR1	0	R1505J
362.082	0.0	509877	START	n/a	n/a	n/a	n/a	-999	1	[-999, -999, -999]	n/a	catFR1	0	R1505J
362.082	0.0	509877	PROB	0.0	n/a	n/a	n/a	-999	1	[2, 1, 4]	7	catFR1	0	R1505J
362.082	0.0	509887	ENCODING_END	n/a	n/a	n/a	n/a	-999	1	[0, 0, 0]	n/a	catFR1	0	R1505J
362.082	4.115	509887	DISTRACT_START	n/a	n/a	n/a	n/a	-999	1	[0, 0, 0]	n/a	catFR1	0	R1505J
366.197	6.533	513992	PROB	6.533	n/a	n/a	n/a	-999	1	[2, 7, 4]	13	catFR1	0	R1505J
372.73	3.136	520525	PROB	3.136	n/a	n/a	n/a	-999	1	[1, 5, 1]	7	catFR1	0	R1505J
375.866	4.932	523661	PROB	4.932	n/a	n/a	n/a	-999	1	[5, 5, 6]	16	catFR1	0	R1505J
380.798	7.966	528593	PROB	7.966	n/a	n/a	n/a	-999	1	[6, 6, 6]	18	catFR1	0	R1505J
388.764	0.0	536558	STOP	n/a	n/a	n/a	n/a	-999	1	[-999, -999, -999]	n/a	catFR1	0	R1505J
388.764	1.1	536567	DISTRACT_END	n/a	n/a	n/a	n/a	-999	1	[0, 0, 0]	n/a	catFR1	0	R1505J
389.864	0.983	537663	REC_START	n/a	n/a	n/a	n/a	-999	1	[0, 0, 0]	n/a	catFR1	0	R1505J
390.847	1.642	538641	REC_WORD	1.642	n/a	OAK	Trees	1	1	[0, 0, 0]	n/a	catFR1	0	R1505J
392.489	1.428	540283	REC_WORD	1.428	n/a	PINE	Trees	2	1	[0, 0, 0]	n/a	catFR1	0	R1505J
393.917	1.651	541711	REC_WORD	1.651	n/a	JACKET	Clothing	3	1	[0, 0, 0]	n/a	catFR1	0	R1505J
395.568	2.188	543362	REC_WORD	2.188	n/a	MOUSSE	Desserts	6	1	[0, 0, 0]	n/a	catFR1	0	R1505J
397.756	2.918	545550	REC_WORD	2.918	n/a	MOUSSE	Desserts	6	1	[0, 0, 0]	n/a	catFR1	0	R1505J
400.674	3.432	548468	REC_WORD_VV	3.432	n/a	<>	n/a	-999	1	[0, 0, 0]	n/a	catFR1	0	R1505J
404.106	2.635	551900	REC_WORD	2.635	n/a	HAT	n/a	-999	1	[0, 0, 0]	n/a	catFR1	0	R1505J
406.741	8.545	554535	REC_WORD	8.545	n/a	LANTERN	n/a	-999	1	[0, 0, 0]	n/a	catFR1	0	R1505J
415.286	5.76	563079	REC_WORD	5.76	n/a	SNOUSE	n/a	-999	1	[0, 0, 0]	n/a	catFR1	0	R1505J
421.046	2.636	568844	REC_END	n/a	n/a	n/a	n/a	-999	1	[0, 0, 0]	n/a	catFR1	0	R1505J
423.682	10.349	571480	COUNTDOWN_START	n/a	n/a	n/a	n/a	-999	1	[0, 0, 0]	n/a	catFR1	0	R1505J
434.031	0.0	581829	COUNTDOWN_END	n/a	n/a	n/a	n/a	-999	1	[0, 0, 0]	n/a	catFR1	0	R1505J
434.031	2.166	581829	ENCODING_START	n/a	n/a	n/a	n/a	-999	2	[0, 0, 0]	n/a	catFR1	0	R1505J
436.197	1.6	583991	WORD	n/a	wordpools/wordpool_categorized_EN.txt	WRENCH	Tools	1	2	[0, 0, 0]	n/a	catFR1	0	R1505J
437.797	0.917	585590	WORD_OFF	n/a	n/a	WRENCH	Tools	1	2	[0, 0, 0]	n/a	catFR1	0	R1505J
438.714	1.601	586508	WORD	n/a	wordpools/wordpool_categorized_EN.txt	SANDER	Tools	2	2	[0, 0, 0]	n/a	catFR1	0	R1505J
440.315	0.998	588107	WORD_OFF	n/a	n/a	SANDER	Tools	2	2	[0, 0, 0]	n/a	catFR1	0	R1505J
441.313	1.601	589114	WORD	n/a	wordpools/wordpool_categorized_EN.txt	EVERGREEN	Trees	3	2	[0, 0, 0]	n/a	catFR1	0	R1505J
442.914	0.933	590713	WORD_OFF	n/a	n/a	EVERGREEN	Trees	3	2	[0, 0, 0]	n/a	catFR1	0	R1505J
443.847	1.6	591646	WORD	n/a	wordpools/wordpool_categorized_EN.txt	BIRCH	Trees	4	2	[0, 0, 0]	n/a	catFR1	0	R1505J
445.447	0.851	593245	WORD_OFF	n/a	n/a	BIRCH	Trees	4	2	[0, 0, 0]	n/a	catFR1	0	R1505J
446.298	1.6	594089	WORD	n/a	wordpools/wordpool_categorized_EN.txt	CARDINAL	Birds	5	2	[0, 0, 0]	n/a	catFR1	0	R1505J
447.898	0.916	595688	WORD_OFF	n/a	n/a	CARDINAL	Birds	5	2	[0, 0, 0]	n/a	catFR1	0	R1505J
448.814	1.6	596606	WORD	n/a	wordpools/wordpool_categorized_EN.txt	SEAGULL	Birds	6	2	[0, 0, 0]	n/a	catFR1	0	R1505J
450.414	0.967	598205	WORD_OFF	n/a	n/a	SEAGULL	Birds	6	2	[0, 0, 0]	n/a	catFR1	0	R1505J
451.381	1.617	599170	WORD	n/a	wordpools/wordpool_categorized_EN.txt	CROWBAR	Tools	7	2	[0, 0, 0]	n/a	catFR1	0	R1505J
452.998	0.817	600796	WORD_OFF	n/a	n/a	CROWBAR	Tools	7	2	[0, 0, 0]	n/a	catFR1	0	R1505J
453.815	1.615	601610	WORD	n/a	wordpools/wordpool_categorized_EN.txt	SAW	Tools	8	2	[0, 0, 0]	n/a	catFR1	0	R1505J
455.43	0.934	603224	WORD_OFF	n/a	n/a	SAW	Tools	8	2	[0, 0, 0]	n/a	catFR1	0	R1505J
456.364	1.616	604157	WORD	n/a	wordpools/wordpool_categorized_EN.txt	GOOSE	Birds	9	2	[0, 0, 0]	n/a	catFR1	0	R1505J
457.98	0.885	605770	WORD_OFF	n/a	n/a	GOOSE	Birds	9	2	[0, 0, 0]	n/a	catFR1	0	R1505J
458.865	1.616	606659	WORD	n/a	wordpools/wordpool_categorized_EN.txt	PIGEON	Birds	10	2	[0, 0, 0]	n/a	catFR1	0	R1505J
460.481	0.883	608273	WORD_OFF	n/a	n/a	PIGEON	Birds	10	2	[0, 0, 0]	n/a	catFR1	0	R1505J
461.364	1.617	609161	WORD	n/a	wordpools/wordpool_categorized_EN.txt	CYPRESS	Trees	11	2	[0, 0, 0]	n/a	catFR1	0	R1505J
462.981	0.817	610775	WORD_OFF	n/a	n/a	CYPRESS	Trees	11	2	[0, 0, 0]	n/a	catFR1	0	R1505J
463.798	1.616	611589	WORD	n/a	wordpools/wordpool_categorized_EN.txt	CEDAR	Trees	12	2	[0, 0, 0]	n/a	catFR1	0	R1505J
465.414	0.001	613203	WORD_OFF	n/a	n/a	CEDAR	Trees	12	2	[0, 0, 0]	n/a	catFR1	0	R1505J
465.415	0.0	613203	ENCODING_END	n/a	n/a	n/a	n/a	-999	2	[0, 0, 0]	n/a	catFR1	0	R1505J
465.415	0.0	613206	START	n/a	n/a	n/a	n/a	-999	2	[-999, -999, -999]	n/a	catFR1	0	R1505J
465.415	0.0	613206	PROB	0.0	n/a	n/a	n/a	-999	2	[6, 8, 8]	22	catFR1	0	R1505J
465.415	7.883	613218	DISTRACT_START	n/a	n/a	n/a	n/a	-999	2	[0, 0, 0]	n/a	catFR1	0	R1505J
473.298	3.299	621089	PROB	3.299	n/a	n/a	n/a	-999	2	[2, 3, 2]	7	catFR1	0	R1505J
476.597	4.151	624388	PROB	4.151	n/a	n/a	n/a	-999	2	[1, 1, 2]	4	catFR1	0	R1505J
480.748	4.217	628539	PROB	4.217	n/a	n/a	n/a	-999	2	[8, 1, 8]	17	catFR1	0	R1505J
484.965	5.1	632755	PROB	5.1	n/a	n/a	n/a	-999	2	[6, 2, 5]	13	catFR1	0	R1505J
490.065	0.0	637855	DISTRACT_END	n/a	n/a	n/a	n/a	-999	2	[0, 0, 0]	n/a	catFR1	0	R1505J
490.065	1.215	637855	STOP	n/a	n/a	n/a	n/a	-999	2	[-999, -999, -999]	n/a	catFR1	0	R1505J
491.28	0.497	639069	REC_START	n/a	n/a	n/a	n/a	-999	2	[0, 0, 0]	n/a	catFR1	0	R1505J
491.777	3.151	639567	REC_WORD	3.151	n/a	CYPRESS	Trees	11	2	[0, 0, 0]	n/a	catFR1	0	R1505J
494.928	0.887	642718	REC_WORD	0.887	n/a	HAT	n/a	-999	2	[0, 0, 0]	n/a	catFR1	0	R1505J
495.815	2.248	643605	REC_WORD	2.248	n/a	LESION	n/a	-999	2	[0, 0, 0]	n/a	catFR1	0	R1505J
498.063	7.622	645853	REC_WORD	7.622	n/a	WRENCH	Tools	1	2	[0, 0, 0]	n/a	catFR1	0	R1505J
505.685	3.175	653474	REC_WORD	3.175	n/a	BARBIE	Toys	-999	2	[0, 0, 0]	n/a	catFR1	0	R1505J
508.86	5.846	656649	REC_WORD	5.846	n/a	BRANCH	n/a	-999	2	[0, 0, 0]	n/a	catFR1	0	R1505J
514.706	0.696	662495	REC_WORD_VV	0.696	n/a	<>	n/a	-999	2	[0, 0, 0]	n/a	catFR1	0	R1505J
515.402	0.364	663191	REC_WORD	0.364	n/a	WRENCH	Tools	1	2	[0, 0, 0]	n/a	catFR1	0	R1505J
515.766	4.262	663555	REC_WORD_VV	4.262	n/a	<>	n/a	-999	2	[0, 0, 0]	n/a	catFR1	0	R1505J
520.028	2.477	667817	REC_WORD	2.477	n/a	CARDINAL	Birds	5	2	[0, 0, 0]	n/a	catFR1	0	R1505J
522.505	4.259	670295	REC_END	n/a	n/a	n/a	n/a	-999	2	[0, 0, 0]	n/a	catFR1	0	R1505J
526.764	10.35	674559	COUNTDOWN_START	n/a	n/a	n/a	n/a	-999	2	[0, 0, 0]	n/a	catFR1	0	R1505J
537.114	0.0	684908	COUNTDOWN_END	n/a	n/a	n/a	n/a	-999	2	[0, 0, 0]	n/a	catFR1	0	R1505J
537.114	1.95	684908	ENCODING_START	n/a	n/a	n/a	n/a	-999	3	[0, 0, 0]	n/a	catFR1	0	R1505J
539.064	1.601	686848	WORD	n/a	wordpools/wordpool_categorized_EN.txt	TROMBONE	Instruments	1	3	[0, 0, 0]	n/a	catFR1	0	R1505J
540.665	0.999	688462	WORD_OFF	n/a	n/a	TROMBONE	Instruments	1	3	[0, 0, 0]	n/a	catFR1	0	R1505J
541.664	1.601	689454	WORD	n/a	wordpools/wordpool_categorized_EN.txt	CELLO	Instruments	2	3	[0, 0, 0]	n/a	catFR1	0	R1505J
543.265	0.966	691053	WORD_OFF	n/a	n/a	CELLO	Instruments	2	3	[0, 0, 0]	n/a	catFR1	0	R1505J
544.231	1.6	692015	WORD	n/a	wordpools/wordpool_categorized_EN.txt	CABBAGE	Vegetables	3	3	[0, 0, 0]	n/a	catFR1	0	R1505J
545.831	0.85	693614	WORD_OFF	n/a	n/a	CABBAGE	Vegetables	3	3	[0, 0, 0]	n/a	catFR1	0	R1505J
546.681	1.6	694473	WORD	n/a	wordpools/wordpool_categorized_EN.txt	POTATO	Vegetables	4	3	[0, 0, 0]	n/a	catFR1	0	R1505J
548.281	0.783	696072	WORD_OFF	n/a	n/a	POTATO	Vegetables	4	3	[0, 0, 0]	n/a	catFR1	0	R1505J
549.064	1.616	696857	WORD	n/a	wordpools/wordpool_categorized_EN.txt	BEE	Insects	5	3	[0, 0, 0]	n/a	catFR1	0	R1505J
550.68	0.933	698470	WORD_OFF	n/a	n/a	BEE	Insects	5	3	[0, 0, 0]	n/a	catFR1	0	R1505J
551.613	1.601	699403	WORD	n/a	wordpools/wordpool_categorized_EN.txt	ROACH	Insects	6	3	[0, 0, 0]	n/a	catFR1	0	R1505J
553.214	0.899	701002	WORD_OFF	n/a	n/a	ROACH	Insects	6	3	[0, 0, 0]	n/a	catFR1	0	R1505J
554.113	1.602	701905	WORD	n/a	wordpools/wordpool_categorized_EN.txt	ORGAN	Instruments	7	3	[0, 0, 0]	n/a	catFR1	0	R1505J
555.715	0.982	703505	WORD_OFF	n/a	n/a	ORGAN	Instruments	7	3	[0, 0, 0]	n/a	catFR1	0	R1505J
556.697	1.6	704482	WORD	n/a	wordpools/wordpool_categorized_EN.txt	VIOLIN	Instruments	8	3	[0, 0, 0]	n/a	catFR1	0	R1505J
558.297	0.867	706081	WORD_OFF	n/a	n/a	VIOLIN	Instruments	8	3	[0, 0, 0]	n/a	catFR1	0	R1505J
559.164	1.6	706954	WORD	n/a	wordpools/wordpool_categorized_EN.txt	PEAS	Vegetables	9	3	[0, 0, 0]	n/a	catFR1	0	R1505J
560.764	0.899	708553	WORD_OFF	n/a	n/a	PEAS	Vegetables	9	3	[0, 0, 0]	n/a	catFR1	0	R1505J
561.663	1.601	709457	WORD	n/a	wordpools/wordpool_categorized_EN.txt	LETTUCE	Vegetables	10	3	[0, 0, 0]	n/a	catFR1	0	R1505J
563.264	0.899	711056	WORD_OFF	n/a	n/a	LETTUCE	Vegetables	10	3	[0, 0, 0]	n/a	catFR1	0	R1505J
564.163	1.602	711959	WORD	n/a	wordpools/wordpool_categorized_EN.txt	FLY	Insects	11	3	[0, 0, 0]	n/a	catFR1	0	R1505J
565.765	0.85	713558	WORD_OFF	n/a	n/a	FLY	Insects	11	3	[0, 0, 0]	n/a	catFR1	0	R1505J
566.615	1.616	714402	WORD	n/a	wordpools/wordpool_categorized_EN.txt	BUTTERFLY	Insects	12	3	[0, 0, 0]	n/a	catFR1	0	R1505J
568.231	0.001	716016	WORD_OFF	n/a	n/a	BUTTERFLY	Insects	12	3	[0, 0, 0]	n/a	catFR1	0	R1505J
568.232	0.001	716019	PROB	0.001	n/a	n/a	n/a	-999	3	[5, 3, 1]	9	catFR1	0	R1505J
568.233	0.0	716020	START	n/a	n/a	n/a	n/a	-999	3	[-999, -999, -999]	n/a	catFR1	0	R1505J
568.233	0.0	716030	ENCODING_END	n/a	n/a	n/a	n/a	-999	3	[0, 0, 0]	n/a	catFR1	0	R1505J
568.233	4.099	716030	DISTRACT_START	n/a	n/a	n/a	n/a	-999	3	[0, 0, 0]	n/a	catFR1	0	R1505J
572.332	6.166	720119	PROB	6.166	n/a	n/a	n/a	-999	3	[4, 3, 7]	14	catFR1	0	R1505J
578.498	5.083	726284	PROB	5.083	n/a	n/a	n/a	-999	3	[2, 6, 6]	14	catFR1	0	R1505J
583.581	3.366	731367	PROB	3.366	n/a	n/a	n/a	-999	3	[2, 3, 4]	9	catFR1	0	R1505J
586.947	4.001	734733	PROB	4.001	n/a	n/a	n/a	-999	3	[3, 6, 3]	12	catFR1	0	R1505J
590.948	0.0	738734	STOP	n/a	n/a	n/a	n/a	-999	3	[-999, -999, -999]	n/a	catFR1	0	R1505J
590.948	1.316	738743	DISTRACT_END	n/a	n/a	n/a	n/a	-999	3	[0, 0, 0]	n/a	catFR1	0	R1505J
592.264	1.147	740060	REC_START	n/a	n/a	n/a	n/a	-999	3	[0, 0, 0]	n/a	catFR1	0	R1505J
593.411	1.143	741197	REC_WORD	1.143	n/a	SEAGULL	Birds	-999	3	[0, 0, 0]	n/a	catFR1	0	R1505J
594.554	3.084	742340	REC_WORD	3.084	n/a	BUTTERFLY	Insects	12	3	[0, 0, 0]	n/a	catFR1	0	R1505J
597.638	2.438	745424	REC_WORD	2.438	n/a	BUTTER	n/a	-999	3	[0, 0, 0]	n/a	catFR1	0	R1505J
600.076	6.487	747862	REC_WORD	6.487	n/a	WRENCH	Tools	-999	3	[0, 0, 0]	n/a	catFR1	0	R1505J
606.563	5.316	754348	REC_WORD	5.316	n/a	SEAGULL	Birds	-999	3	[0, 0, 0]	n/a	catFR1	0	R1505J
611.879	11.603	759664	REC_WORD	11.603	n/a	KUGEL	n/a	-999	3	[0, 0, 0]	n/a	catFR1	0	R1505J
623.482	1.55	771271	REC_END	n/a	n/a	n/a	n/a	-999	3	[0, 0, 0]	n/a	catFR1	0	R1505J
625.032	10.35	772826	COUNTDOWN_START	n/a	n/a	n/a	n/a	-999	3	[0, 0, 0]	n/a	catFR1	0	R1505J
635.382	0.001	783175	COUNTDOWN_END	n/a	n/a	n/a	n/a	-999	3	[0, 0, 0]	n/a	catFR1	0	R1505J
635.383	2.232	783175	ENCODING_START	n/a	n/a	n/a	n/a	-999	4	[0, 0, 0]	n/a	catFR1	0	R1505J
637.615	1.601	785396	WORD	n/a	wordpools/wordpool_categorized_EN.txt	THUNDER	Weather	1	4	[0, 0, 0]	n/a	catFR1	0	R1505J
639.216	0.783	786995	WORD_OFF	n/a	n/a	THUNDER	Weather	1	4	[0, 0, 0]	n/a	catFR1	0	R1505J
639.999	1.616	787780	WORD	n/a	wordpools/wordpool_categorized_EN.txt	LIGHTNING	Weather	2	4	[0, 0, 0]	n/a	catFR1	0	R1505J
641.615	0.9	789394	WORD_OFF	n/a	n/a	LIGHTNING	Weather	2	4	[0, 0, 0]	n/a	catFR1	0	R1505J
642.515	1.617	790297	WORD	n/a	wordpools/wordpool_categorized_EN.txt	SPANDEX	Fabric	3	4	[0, 0, 0]	n/a	catFR1	0	R1505J
644.132	0.917	791911	WORD_OFF	n/a	n/a	SPANDEX	Fabric	3	4	[0, 0, 0]	n/a	catFR1	0	R1505J
645.049	1.6	792829	WORD	n/a	wordpools/wordpool_categorized_EN.txt	DENIM	Fabric	4	4	[0, 0, 0]	n/a	catFR1	0	R1505J
646.649	0.866	794428	WORD_OFF	n/a	n/a	DENIM	Fabric	4	4	[0, 0, 0]	n/a	catFR1	0	R1505J
647.515	1.616	795301	WORD	n/a	wordpools/wordpool_categorized_EN.txt	STOVE	Appliances	5	4	[0, 0, 0]	n/a	catFR1	0	R1505J
649.131	1.0	796915	WORD_OFF	n/a	n/a	STOVE	Appliances	5	4	[0, 0, 0]	n/a	catFR1	0	R1505J
650.131	1.618	797922	WORD	n/a	wordpools/wordpool_categorized_EN.txt	FREEZER	Appliances	6	4	[0, 0, 0]	n/a	catFR1	0	R1505J
651.749	0.95	799536	WORD_OFF	n/a	n/a	FREEZER	Appliances	6	4	[0, 0, 0]	n/a	catFR1	0	R1505J
652.699	1.616	800484	WORD	n/a	wordpools/wordpool_categorized_EN.txt	HURRICANE	Weather	7	4	[0, 0, 0]	n/a	catFR1	0	R1505J
654.315	0.932	802097	WORD_OFF	n/a	n/a	HURRICANE	Weather	7	4	[0, 0, 0]	n/a	catFR1	0	R1505J
655.247	1.602	803030	WORD	n/a	wordpools/wordpool_categorized_EN.txt	TORNADO	Weather	8	4	[0, 0, 0]	n/a	catFR1	0	R1505J
656.849	0.867	804629	WORD_OFF	n/a	n/a	TORNADO	Weather	8	4	[0, 0, 0]	n/a	catFR1	0	R1505J
657.716	1.616	805503	WORD	n/a	wordpools/wordpool_categorized_EN.txt	IRON	Appliances	9	4	[0, 0, 0]	n/a	catFR1	0	R1505J
659.332	0.95	807117	WORD_OFF	n/a	n/a	IRON	Appliances	9	4	[0, 0, 0]	n/a	catFR1	0	R1505J
660.282	1.617	808064	WORD	n/a	wordpools/wordpool_categorized_EN.txt	VACUUM	Appliances	10	4	[0, 0, 0]	n/a	catFR1	0	R1505J
661.899	0.817	809678	WORD_OFF	n/a	n/a	VACUUM	Appliances	10	4	[0, 0, 0]	n/a	catFR1	0	R1505J
662.716	1.616	810507	WORD	n/a	wordpools/wordpool_categorized_EN.txt	WOOL	Fabric	11	4	[0, 0, 0]	n/a	catFR1	0	R1505J
664.332	0.966	812121	WORD_OFF	n/a	n/a	WOOL	Fabric	11	4	[0, 0, 0]	n/a	catFR1	0	R1505J
665.298	1.601	813083	WORD	n/a	wordpools/wordpool_categorized_EN.txt	SATIN	Fabric	12	4	[0, 0, 0]	n/a	catFR1	0	R1505J
666.899	0.002	814682	WORD_OFF	n/a	n/a	SATIN	Fabric	12	4	[0, 0, 0]	n/a	catFR1	0	R1505J
666.901	0.0	814682	ENCODING_END	n/a	n/a	n/a	n/a	-999	4	[0, 0, 0]	n/a	catFR1	0	R1505J
666.901	0.0	814682	DISTRACT_START	n/a	n/a	n/a	n/a	-999	4	[0, 0, 0]	n/a	catFR1	0	R1505J
666.899	0.002	814682	PROB	0.002	n/a	n/a	n/a	-999	4	[5, 1, 8]	14	catFR1	0	R1505J
666.901	7.799	814684	START	n/a	n/a	n/a	n/a	-999	4	[-999, -999, -999]	n/a	catFR1	0	R1505J
674.7	5.583	822483	PROB	5.583	n/a	n/a	n/a	-999	4	[2, 2, 3]	7	catFR1	0	R1505J
680.283	7.599	828065	PROB	7.599	n/a	n/a	n/a	-999	4	[4, 6, 7]	17	catFR1	0	R1505J
687.882	0.0	835662	DISTRACT_END	n/a	n/a	n/a	n/a	-999	4	[0, 0, 0]	n/a	catFR1	0	R1505J
687.882	1.316	835664	STOP	n/a	n/a	n/a	n/a	-999	4	[-999, -999, -999]	n/a	catFR1	0	R1505J
689.198	1.263	836980	REC_START	n/a	n/a	n/a	n/a	-999	4	[0, 0, 0]	n/a	catFR1	0	R1505J
690.461	1.33	838243	REC_WORD	1.33	n/a	HURRICANE	Weather	7	4	[0, 0, 0]	n/a	catFR1	0	R1505J
691.791	1.654	839573	REC_WORD	1.654	n/a	TORNADO	Weather	8	4	[0, 0, 0]	n/a	catFR1	0	R1505J
693.445	1.822	841227	REC_WORD	1.822	n/a	SATIN	Fabric	12	4	[0, 0, 0]	n/a	catFR1	0	R1505J
695.267	1.699	843049	REC_WORD	1.699	n/a	LEX	n/a	-999	4	[0, 0, 0]	n/a	catFR1	0	R1505J
696.966	3.368	844748	REC_WORD	3.368	n/a	IRON	Appliances	9	4	[0, 0, 0]	n/a	catFR1	0	R1505J
700.334	3.015	848115	REC_WORD	3.015	n/a	FREEZER	Appliances	6	4	[0, 0, 0]	n/a	catFR1	0	R1505J
703.349	1.167	851130	REC_WORD	1.167	n/a	REFRIGERATOR	n/a	-999	4	[0, 0, 0]	n/a	catFR1	0	R1505J
704.516	5.873	852297	REC_WORD	5.873	n/a	STOVE	Appliances	5	4	[0, 0, 0]	n/a	catFR1	0	R1505J
710.389	4.477	858170	REC_WORD	4.477	n/a	RAIN	n/a	-999	4	[0, 0, 0]	n/a	catFR1	0	R1505J
714.866	5.55	862647	REC_WORD	5.55	n/a	LATIN	n/a	-999	4	[0, 0, 0]	n/a	catFR1	0	R1505J
720.416	1.7	868206	REC_END	n/a	n/a	n/a	n/a	-999	4	[0, 0, 0]	n/a	catFR1	0	R1505J
722.116	10.349	869894	COUNTDOWN_START	n/a	n/a	n/a	n/a	-999	4	[0, 0, 0]	n/a	catFR1	0	R1505J
732.465	0.0	880243	COUNTDOWN_END	n/a	n/a	n/a	n/a	-999	4	[0, 0, 0]	n/a	catFR1	0	R1505J
732.465	2.3	880243	ENCODING_START	n/a	n/a	n/a	n/a	-999	5	[0, 0, 0]	n/a	catFR1	0	R1505J
734.765	1.6	882553	WORD	n/a	wordpools/wordpool_categorized_EN.txt	RUM	Beverages	1	5	[0, 0, 0]	n/a	catFR1	0	R1505J
736.365	0.817	884152	WORD_OFF	n/a	n/a	RUM	Beverages	1	5	[0, 0, 0]	n/a	catFR1	0	R1505J
737.182	1.617	884966	WORD	n/a	wordpools/wordpool_categorized_EN.txt	TEA	Beverages	2	5	[0, 0, 0]	n/a	catFR1	0	R1505J
738.799	0.883	886580	WORD_OFF	n/a	n/a	TEA	Beverages	2	5	[0, 0, 0]	n/a	catFR1	0	R1505J
739.682	1.602	887469	WORD	n/a	wordpools/wordpool_categorized_EN.txt	CHIMPANZEE	Zoo	3	5	[0, 0, 0]	n/a	catFR1	0	R1505J
741.284	0.832	889068	WORD_OFF	n/a	n/a	CHIMPANZEE	Zoo	3	5	[0, 0, 0]	n/a	catFR1	0	R1505J
742.116	1.6	889897	WORD	n/a	wordpools/wordpool_categorized_EN.txt	LION	Zoo	4	5	[0, 0, 0]	n/a	catFR1	0	R1505J
743.716	0.848	891496	WORD_OFF	n/a	n/a	LION	Zoo	4	5	[0, 0, 0]	n/a	catFR1	0	R1505J
744.564	1.601	892340	WORD	n/a	wordpools/wordpool_categorized_EN.txt	WALL	Building	5	5	[0, 0, 0]	n/a	catFR1	0	R1505J
746.165	0.933	893954	WORD_OFF	n/a	n/a	WALL	Building	5	5	[0, 0, 0]	n/a	catFR1	0	R1505J
747.098	1.6	894886	WORD	n/a	wordpools/wordpool_categorized_EN.txt	ROOF	Building	6	5	[0, 0, 0]	n/a	catFR1	0	R1505J
748.698	1.001	896485	WORD_OFF	n/a	n/a	ROOF	Building	6	5	[0, 0, 0]	n/a	catFR1	0	R1505J
749.699	1.616	897477	WORD	n/a	wordpools/wordpool_categorized_EN.txt	JUICE	Beverages	7	5	[0, 0, 0]	n/a	catFR1	0	R1505J
751.315	1.0	899091	WORD_OFF	n/a	n/a	JUICE	Beverages	7	5	[0, 0, 0]	n/a	catFR1	0	R1505J
752.315	1.601	900098	WORD	n/a	wordpools/wordpool_categorized_EN.txt	CIDER	Beverages	8	5	[0, 0, 0]	n/a	catFR1	0	R1505J
753.916	0.766	901697	WORD_OFF	n/a	n/a	CIDER	Beverages	8	5	[0, 0, 0]	n/a	catFR1	0	R1505J
754.682	1.618	902467	WORD	n/a	wordpools/wordpool_categorized_EN.txt	DOOR	Building	9	5	[0, 0, 0]	n/a	catFR1	0	R1505J
756.3	0.931	904081	WORD_OFF	n/a	n/a	DOOR	Building	9	5	[0, 0, 0]	n/a	catFR1	0	R1505J
757.231	1.601	905014	WORD	n/a	wordpools/wordpool_categorized_EN.txt	CEILING	Building	10	5	[0, 0, 0]	n/a	catFR1	0	R1505J
758.832	0.934	906613	WORD_OFF	n/a	n/a	CEILING	Building	10	5	[0, 0, 0]	n/a	catFR1	0	R1505J
759.766	1.616	907545	WORD	n/a	wordpools/wordpool_categorized_EN.txt	PANDA	Zoo	11	5	[0, 0, 0]	n/a	catFR1	0	R1505J
761.382	0.984	909159	WORD_OFF	n/a	n/a	PANDA	Zoo	11	5	[0, 0, 0]	n/a	catFR1	0	R1505J
762.366	1.6	910151	WORD	n/a	wordpools/wordpool_categorized_EN.txt	BEAR	Zoo	12	5	[0, 0, 0]	n/a	catFR1	0	R1505J
763.966	0.001	911745	PROB	0.001	n/a	n/a	n/a	-999	5	[8, 7, 3]	18	catFR1	0	R1505J
763.967	0.0	911746	START	n/a	n/a	n/a	n/a	-999	5	[-999, -999, -999]	n/a	catFR1	0	R1505J
763.966	0.001	911750	WORD_OFF	n/a	n/a	BEAR	Zoo	12	5	[0, 0, 0]	n/a	catFR1	0	R1505J
763.967	0.0	911750	ENCODING_END	n/a	n/a	n/a	n/a	-999	5	[0, 0, 0]	n/a	catFR1	0	R1505J
763.967	6.699	911750	DISTRACT_START	n/a	n/a	n/a	n/a	-999	5	[0, 0, 0]	n/a	catFR1	0	R1505J
770.666	11.7	918445	PROB	11.7	n/a	n/a	n/a	-999	5	[5, 7, 6]	18	catFR1	0	R1505J
782.366	6.032	930144	PROB	6.032	n/a	n/a	n/a	-999	5	[5, 2, 7]	14	catFR1	0	R1505J
788.398	0.0	936176	STOP	n/a	n/a	n/a	n/a	-999	5	[-999, -999, -999]	n/a	catFR1	0	R1505J
788.398	1.316	936180	DISTRACT_END	n/a	n/a	n/a	n/a	-999	5	[0, 0, 0]	n/a	catFR1	0	R1505J
789.714	2.944	937498	REC_START	n/a	n/a	n/a	n/a	-999	5	[0, 0, 0]	n/a	catFR1	0	R1505J
792.658	0.792	940436	REC_WORD	0.792	n/a	DOOR	Building	9	5	[0, 0, 0]	n/a	catFR1	0	R1505J
793.45	2.757	941228	REC_WORD	2.757	n/a	CEILING	Building	10	5	[0, 0, 0]	n/a	catFR1	0	R1505J
796.207	4.226	943984	REC_WORD	4.226	n/a	PANDA	Zoo	11	5	[0, 0, 0]	n/a	catFR1	0	R1505J
800.433	5.054	948210	REC_WORD	5.054	n/a	ROOF	Building	6	5	[0, 0, 0]	n/a	catFR1	0	R1505J
805.487	5.404	953264	REC_WORD	5.404	n/a	RUM	Beverages	1	5	[0, 0, 0]	n/a	catFR1	0	R1505J
810.891	2.063	958668	REC_WORD	2.063	n/a	PANDA	Zoo	11	5	[0, 0, 0]	n/a	catFR1	0	R1505J
812.954	4.463	960731	REC_WORD	4.463	n/a	WATER	n/a	-999	5	[0, 0, 0]	n/a	catFR1	0	R1505J
817.417	3.513	965194	REC_WORD	3.513	n/a	IRON	Appliances	-999	5	[0, 0, 0]	n/a	catFR1	0	R1505J
820.93	1.469	968709	REC_END	n/a	n/a	n/a	n/a	-999	5	[0, 0, 0]	n/a	catFR1	0	R1505J
822.399	10.35	970175	COUNTDOWN_START	n/a	n/a	n/a	n/a	-999	5	[0, 0, 0]	n/a	catFR1	0	R1505J
832.749	0.0	980524	COUNTDOWN_END	n/a	n/a	n/a	n/a	-999	5	[0, 0, 0]	n/a	catFR1	0	R1505J
832.749	2.1	980524	ENCODING_START	n/a	n/a	n/a	n/a	-999	6	[0, 0, 0]	n/a	catFR1	0	R1505J
834.849	1.6	982626	WORD	n/a	wordpools/wordpool_categorized_EN.txt	CABINET	Furniture	1	6	[0, 0, 0]	n/a	catFR1	0	R1505J
836.449	0.916	984225	WORD_OFF	n/a	n/a	CABINET	Furniture	1	6	[0, 0, 0]	n/a	catFR1	0	R1505J
837.365	1.6	985143	WORD	n/a	wordpools/wordpool_categorized_EN.txt	BOOKCASE	Furniture	2	6	[0, 0, 0]	n/a	catFR1	0	R1505J
838.965	1.0	986742	WORD_OFF	n/a	n/a	BOOKCASE	Furniture	2	6	[0, 0, 0]	n/a	catFR1	0	R1505J
839.965	1.617	987749	WORD	n/a	wordpools/wordpool_categorized_EN.txt	COBBLER	Desserts	3	6	[0, 0, 0]	n/a	catFR1	0	R1505J
841.582	0.899	989363	WORD_OFF	n/a	n/a	COBBLER	Desserts	3	6	[0, 0, 0]	n/a	catFR1	0	R1505J
842.481	1.6	990266	WORD	n/a	wordpools/wordpool_categorized_EN.txt	CUPCAKE	Desserts	4	6	[0, 0, 0]	n/a	catFR1	0	R1505J
844.081	0.901	991865	WORD_OFF	n/a	n/a	CUPCAKE	Desserts	4	6	[0, 0, 0]	n/a	catFR1	0	R1505J
844.982	1.6	992754	WORD	n/a	wordpools/wordpool_categorized_EN.txt	GORILLA	Zoo	5	6	[0, 0, 0]	n/a	catFR1	0	R1505J
846.582	0.8	994353	WORD_OFF	n/a	n/a	GORILLA	Zoo	5	6	[0, 0, 0]	n/a	catFR1	0	R1505J
847.382	1.6	995167	WORD	n/a	wordpools/wordpool_categorized_EN.txt	ZEBRA	Zoo	6	6	[0, 0, 0]	n/a	catFR1	0	R1505J
848.982	0.767	996766	WORD_OFF	n/a	n/a	ZEBRA	Zoo	6	6	[0, 0, 0]	n/a	catFR1	0	R1505J
849.749	1.6	997521	WORD	n/a	wordpools/wordpool_categorized_EN.txt	PIE	Desserts	7	6	[0, 0, 0]	n/a	catFR1	0	R1505J
851.349	0.966	999120	WORD_OFF	n/a	n/a	PIE	Desserts	7	6	[0, 0, 0]	n/a	catFR1	0	R1505J
852.315	1.6	1000097	WORD	n/a	wordpools/wordpool_categorized_EN.txt	FUDGE	Desserts	8	6	[0, 0, 0]	n/a	catFR1	0	R1505J
853.915	0.767	1001696	WORD_OFF	n/a	n/a	FUDGE	Desserts	8	6	[0, 0, 0]	n/a	catFR1	0	R1505J
854.682	1.617	1002466	WORD	n/a	wordpools/wordpool_categorized_EN.txt	DRESSER	Furniture	9	6	[0, 0, 0]	n/a	catFR1	0	R1505J
856.299	0.866	1004080	WORD_OFF	n/a	n/a	DRESSER	Furniture	9	6	[0, 0, 0]	n/a	catFR1	0	R1505J
857.165	1.601	1004939	WORD	n/a	wordpools/wordpool_categorized_EN.txt	DESK	Furniture	10	6	[0, 0, 0]	n/a	catFR1	0	R1505J
858.766	0.883	1006538	WORD_OFF	n/a	n/a	DESK	Furniture	10	6	[0, 0, 0]	n/a	catFR1	0	R1505J
859.649	1.6	1007426	WORD	n/a	wordpools/wordpool_categorized_EN.txt	GIRAFFE	Zoo	11	6	[0, 0, 0]	n/a	catFR1	0	R1505J
861.249	0.867	1009025	WORD_OFF	n/a	n/a	GIRAFFE	Zoo	11	6	[0, 0, 0]	n/a	catFR1	0	R1505J
862.116	1.6	1009899	WORD	n/a	wordpools/wordpool_categorized_EN.txt	CHEETAH	Zoo	12	6	[0, 0, 0]	n/a	catFR1	0	R1505J
863.716	0.001	1011491	PROB	0.001	n/a	n/a	n/a	-999	6	[5, 1, 7]	13	catFR1	0	R1505J
863.717	0.0	1011492	START	n/a	n/a	n/a	n/a	-999	6	[-999, -999, -999]	n/a	catFR1	0	R1505J
863.715	0.002	1011498	WORD_OFF	n/a	n/a	CHEETAH	Zoo	12	6	[0, 0, 0]	n/a	catFR1	0	R1505J
863.717	0.0	1011498	ENCODING_END	n/a	n/a	n/a	n/a	-999	6	[0, 0, 0]	n/a	catFR1	0	R1505J
863.717	8.348	1011498	DISTRACT_START	n/a	n/a	n/a	n/a	-999	6	[0, 0, 0]	n/a	catFR1	0	R1505J
872.065	5.617	1019839	PROB	5.617	n/a	n/a	n/a	-999	6	[8, 7, 8]	23	catFR1	0	R1505J
877.682	4.217	1025456	PROB	4.217	n/a	n/a	n/a	-999	6	[1, 6, 7]	14	catFR1	0	R1505J
881.899	5.799	1029673	PROB	5.799	n/a	n/a	n/a	-999	6	[7, 6, 1]	14	catFR1	0	R1505J
887.698	0.0	1035469	DISTRACT_END	n/a	n/a	n/a	n/a	-999	6	[0, 0, 0]	n/a	catFR1	0	R1505J
887.698	1.367	1035472	STOP	n/a	n/a	n/a	n/a	-999	6	[-999, -999, -999]	n/a	catFR1	0	R1505J
889.065	1.994	1036846	REC_START	n/a	n/a	n/a	n/a	-999	6	[0, 0, 0]	n/a	catFR1	0	R1505J
891.059	1.234	1038833	REC_WORD	1.234	n/a	CHANDA	n/a	-999	6	[0, 0, 0]	n/a	catFR1	0	R1505J
892.293	3.336	1040067	REC_WORD	3.336	n/a	CHEETAH	Zoo	12	6	[0, 0, 0]	n/a	catFR1	0	R1505J
895.629	5.05	1043402	REC_WORD	5.05	n/a	DOOR	Building	-999	6	[0, 0, 0]	n/a	catFR1	0	R1505J
900.679	10.459	1048452	REC_WORD	10.459	n/a	BOOKCASE	Furniture	2	6	[0, 0, 0]	n/a	catFR1	0	R1505J
911.138	4.76	1058911	REC_WORD	4.76	n/a	CHEETAH	Zoo	12	6	[0, 0, 0]	n/a	catFR1	0	R1505J
915.898	4.389	1063671	REC_WORD	4.389	n/a	CEILING	Building	-999	6	[0, 0, 0]	n/a	catFR1	0	R1505J
920.287	1.311	1068057	REC_END	n/a	n/a	n/a	n/a	-999	6	[0, 0, 0]	n/a	catFR1	0	R1505J
921.598	10.351	1069374	COUNTDOWN_START	n/a	n/a	n/a	n/a	-999	6	[0, 0, 0]	n/a	catFR1	0	R1505J
931.949	0.0	1079724	COUNTDOWN_END	n/a	n/a	n/a	n/a	-999	6	[0, 0, 0]	n/a	catFR1	0	R1505J
931.949	1.983	1079724	ENCODING_START	n/a	n/a	n/a	n/a	-999	7	[0, 0, 0]	n/a	catFR1	0	R1505J
933.932	1.617	1081708	WORD	n/a	wordpools/wordpool_categorized_EN.txt	ELBOW	BodyParts	1	7	[0, 0, 0]	n/a	catFR1	0	R1505J
935.549	0.967	1083322	WORD_OFF	n/a	n/a	ELBOW	BodyParts	1	7	[0, 0, 0]	n/a	catFR1	0	R1505J
936.516	1.616	1084284	WORD	n/a	wordpools/wordpool_categorized_EN.txt	NOSE	BodyParts	2	7	[0, 0, 0]	n/a	catFR1	0	R1505J
938.132	0.917	1085913	WORD_OFF	n/a	n/a	NOSE	BodyParts	2	7	[0, 0, 0]	n/a	catFR1	0	R1505J
939.049	1.616	1086816	WORD	n/a	wordpools/wordpool_categorized_EN.txt	BASS	Instruments	3	7	[0, 0, 0]	n/a	catFR1	0	R1505J
940.665	0.766	1088445	WORD_OFF	n/a	n/a	BASS	Instruments	3	7	[0, 0, 0]	n/a	catFR1	0	R1505J
941.431	1.601	1089200	WORD	n/a	wordpools/wordpool_categorized_EN.txt	DRUM	Instruments	4	7	[0, 0, 0]	n/a	catFR1	0	R1505J
943.032	0.9	1090799	WORD_OFF	n/a	n/a	DRUM	Instruments	4	7	[0, 0, 0]	n/a	catFR1	0	R1505J
943.932	1.6	1091702	WORD	n/a	wordpools/wordpool_categorized_EN.txt	TRUCK	Vehicles	5	7	[0, 0, 0]	n/a	catFR1	0	R1505J
945.532	0.883	1093301	WORD_OFF	n/a	n/a	TRUCK	Vehicles	5	7	[0, 0, 0]	n/a	catFR1	0	R1505J
946.415	1.6	1094189	WORD	n/a	wordpools/wordpool_categorized_EN.txt	TRAIN	Vehicles	6	7	[0, 0, 0]	n/a	catFR1	0	R1505J
948.015	0.901	1095788	WORD_OFF	n/a	n/a	TRAIN	Vehicles	6	7	[0, 0, 0]	n/a	catFR1	0	R1505J
948.916	1.6	1096691	WORD	n/a	wordpools/wordpool_categorized_EN.txt	EAR	BodyParts	7	7	[0, 0, 0]	n/a	catFR1	0	R1505J
950.516	0.933	1098290	WORD_OFF	n/a	n/a	EAR	BodyParts	7	7	[0, 0, 0]	n/a	catFR1	0	R1505J
951.449	1.6	1099223	WORD	n/a	wordpools/wordpool_categorized_EN.txt	TOE	BodyParts	8	7	[0, 0, 0]	n/a	catFR1	0	R1505J
953.049	0.816	1100822	WORD_OFF	n/a	n/a	TOE	BodyParts	8	7	[0, 0, 0]	n/a	catFR1	0	R1505J
953.865	1.601	1101637	WORD	n/a	wordpools/wordpool_categorized_EN.txt	SCOOTER	Vehicles	9	7	[0, 0, 0]	n/a	catFR1	0	R1505J
955.466	0.833	1103236	WORD_OFF	n/a	n/a	SCOOTER	Vehicles	9	7	[0, 0, 0]	n/a	catFR1	0	R1505J
956.299	1.6	1104065	WORD	n/a	wordpools/wordpool_categorized_EN.txt	BIKE	Vehicles	10	7	[0, 0, 0]	n/a	catFR1	0	R1505J
957.899	0.899	1105679	WORD_OFF	n/a	n/a	BIKE	Vehicles	10	7	[0, 0, 0]	n/a	catFR1	0	R1505J
958.798	1.6	1106567	WORD	n/a	wordpools/wordpool_categorized_EN.txt	FLUTE	Instruments	11	7	[0, 0, 0]	n/a	catFR1	0	R1505J
960.398	1.001	1108166	WORD_OFF	n/a	n/a	FLUTE	Instruments	11	7	[0, 0, 0]	n/a	catFR1	0	R1505J
961.399	1.601	1109173	WORD	n/a	wordpools/wordpool_categorized_EN.txt	TUBA	Instruments	12	7	[0, 0, 0]	n/a	catFR1	0	R1505J
963.0	0.0	1110771	START	n/a	n/a	n/a	n/a	-999	7	[-999, -999, -999]	n/a	catFR1	0	R1505J
963.0	0.0	1110771	PROB	0.0	n/a	n/a	n/a	-999	7	[3, 6, 6]	15	catFR1	0	R1505J
962.999	0.001	1110772	WORD_OFF	n/a	n/a	TUBA	Instruments	12	7	[0, 0, 0]	n/a	catFR1	0	R1505J
963.0	0.0	1110772	ENCODING_END	n/a	n/a	n/a	n/a	-999	7	[0, 0, 0]	n/a	catFR1	0	R1505J
963.0	6.183	1110772	DISTRACT_START	n/a	n/a	n/a	n/a	-999	7	[0, 0, 0]	n/a	catFR1	0	R1505J
969.183	5.498	1116953	PROB	5.498	n/a	n/a	n/a	-999	7	[4, 5, 1]	10	catFR1	0	R1505J
974.681	5.75	1122451	PROB	5.75	n/a	n/a	n/a	-999	7	[1, 7, 5]	13	catFR1	0	R1505J
980.431	6.617	1128201	PROB	6.617	n/a	n/a	n/a	-999	7	[6, 3, 7]	16	catFR1	0	R1505J
987.048	0.0	1134817	DISTRACT_END	n/a	n/a	n/a	n/a	-999	7	[0, 0, 0]	n/a	catFR1	0	R1505J
987.048	1.216	1134818	STOP	n/a	n/a	n/a	n/a	-999	7	[-999, -999, -999]	n/a	catFR1	0	R1505J
988.264	1.116	1136031	REC_START	n/a	n/a	n/a	n/a	-999	7	[0, 0, 0]	n/a	catFR1	0	R1505J
989.38	1.651	1137150	REC_WORD	1.651	n/a	ELBOW	BodyParts	1	7	[0, 0, 0]	n/a	catFR1	0	R1505J
991.031	3.286	1138800	REC_WORD	3.286	n/a	TOE	BodyParts	8	7	[0, 0, 0]	n/a	catFR1	0	R1505J
994.317	1.535	1142086	REC_WORD	1.535	n/a	FLUTE	Instruments	11	7	[0, 0, 0]	n/a	catFR1	0	R1505J
995.852	7.829	1143621	REC_WORD	7.829	n/a	CHOOTA	n/a	-999	7	[0, 0, 0]	n/a	catFR1	0	R1505J
1003.681	0.327	1151450	REC_WORD_VV	0.327	n/a	<>	n/a	-999	7	[0, 0, 0]	n/a	catFR1	0	R1505J
1004.008	3.037	1151777	REC_WORD	3.037	n/a	FLUTE	Instruments	11	7	[0, 0, 0]	n/a	catFR1	0	R1505J
1007.045	0.756	1154814	REC_WORD_VV	0.756	n/a	<>	n/a	-999	7	[0, 0, 0]	n/a	catFR1	0	R1505J
1007.801	1.132	1155570	REC_WORD	1.132	n/a	TOE	BodyParts	8	7	[0, 0, 0]	n/a	catFR1	0	R1505J
1008.933	4.9	1156702	REC_WORD_VV	4.9	n/a	<>	n/a	-999	7	[0, 0, 0]	n/a	catFR1	0	R1505J
1013.833	2.439	1161602	REC_WORD	2.439	n/a	BEAR	Zoo	-999	7	[0, 0, 0]	n/a	catFR1	0	R1505J
1016.272	0.624	1164040	REC_WORD	0.624	n/a	CEILING	Building	-999	7	[0, 0, 0]	n/a	catFR1	0	R1505J
1016.896	0.333	1164664	REC_WORD_VV	0.333	n/a	<>	n/a	-999	7	[0, 0, 0]	n/a	catFR1	0	R1505J
1017.229	2.239	1164997	REC_WORD	2.239	n/a	CEILING	Building	-999	7	[0, 0, 0]	n/a	catFR1	0	R1505J
1019.468	1.564	1167242	REC_END	n/a	n/a	n/a	n/a	-999	7	[0, 0, 0]	n/a	catFR1	0	R1505J
1021.032	10.35	1168811	COUNTDOWN_START	n/a	n/a	n/a	n/a	-999	7	[0, 0, 0]	n/a	catFR1	0	R1505J
1031.382	0.001	1179146	COUNTDOWN_END	n/a	n/a	n/a	n/a	-999	7	[0, 0, 0]	n/a	catFR1	0	R1505J
1031.383	2.23	1179161	ENCODING_START	n/a	n/a	n/a	n/a	-999	8	[0, 0, 0]	n/a	catFR1	0	R1505J
1033.613	1.602	1181382	WORD	n/a	wordpools/wordpool_categorized_EN.txt	SHOVEL	Tools	1	8	[0, 0, 0]	n/a	catFR1	0	R1505J
1035.215	0.933	1182981	WORD_OFF	n/a	n/a	SHOVEL	Tools	1	8	[0, 0, 0]	n/a	catFR1	0	R1505J
1036.148	1.6	1183913	WORD	n/a	wordpools/wordpool_categorized_EN.txt	DRILL	Tools	2	8	[0, 0, 0]	n/a	catFR1	0	R1505J
1037.748	0.851	1185512	WORD_OFF	n/a	n/a	DRILL	Tools	2	8	[0, 0, 0]	n/a	catFR1	0	R1505J
1038.599	1.616	1186371	WORD	n/a	wordpools/wordpool_categorized_EN.txt	KNIFE	KitchenTools	3	8	[0, 0, 0]	n/a	catFR1	0	R1505J
1040.215	0.933	1187985	WORD_OFF	n/a	n/a	KNIFE	KitchenTools	3	8	[0, 0, 0]	n/a	catFR1	0	R1505J
1041.148	1.601	1188918	WORD	n/a	wordpools/wordpool_categorized_EN.txt	COLANDER	KitchenTools	4	8	[0, 0, 0]	n/a	catFR1	0	R1505J
1042.749	0.882	1190517	WORD_OFF	n/a	n/a	COLANDER	KitchenTools	4	8	[0, 0, 0]	n/a	catFR1	0	R1505J
1043.631	1.601	1191405	WORD	n/a	wordpools/wordpool_categorized_EN.txt	FOREST	Landscapes	5	8	[0, 0, 0]	n/a	catFR1	0	R1505J
1045.232	0.95	1193004	WORD_OFF	n/a	n/a	FOREST	Landscapes	5	8	[0, 0, 0]	n/a	catFR1	0	R1505J
1046.182	1.617	1193952	WORD	n/a	wordpools/wordpool_categorized_EN.txt	HILLS	Landscapes	6	8	[0, 0, 0]	n/a	catFR1	0	R1505J
1047.799	0.849	1195566	WORD_OFF	n/a	n/a	HILLS	Landscapes	6	8	[0, 0, 0]	n/a	catFR1	0	R1505J
1048.648	1.601	1196424	WORD	n/a	wordpools/wordpool_categorized_EN.txt	WHISK	KitchenTools	7	8	[0, 0, 0]	n/a	catFR1	0	R1505J
1050.249	0.95	1198023	WORD_OFF	n/a	n/a	WHISK	KitchenTools	7	8	[0, 0, 0]	n/a	catFR1	0	R1505J
1051.199	1.6	1198971	WORD	n/a	wordpools/wordpool_categorized_EN.txt	PEELER	KitchenTools	8	8	[0, 0, 0]	n/a	catFR1	0	R1505J
1052.799	0.983	1200570	WORD_OFF	n/a	n/a	PEELER	KitchenTools	8	8	[0, 0, 0]	n/a	catFR1	0	R1505J
1053.782	1.6	1201547	WORD	n/a	wordpools/wordpool_categorized_EN.txt	RATCHET	Tools	9	8	[0, 0, 0]	n/a	catFR1	0	R1505J
1055.382	0.999	1203146	WORD_OFF	n/a	n/a	RATCHET	Tools	9	8	[0, 0, 0]	n/a	catFR1	0	R1505J
1056.381	1.602	1204153	WORD	n/a	wordpools/wordpool_categorized_EN.txt	HAMMER	Tools	10	8	[0, 0, 0]	n/a	catFR1	0	R1505J
1057.983	0.966	1205752	WORD_OFF	n/a	n/a	HAMMER	Tools	10	8	[0, 0, 0]	n/a	catFR1	0	R1505J
1058.949	1.617	1206714	WORD	n/a	wordpools/wordpool_categorized_EN.txt	CREEK	Landscapes	11	8	[0, 0, 0]	n/a	catFR1	0	R1505J
1060.566	0.849	1208328	WORD_OFF	n/a	n/a	CREEK	Landscapes	11	8	[0, 0, 0]	n/a	catFR1	0	R1505J
1061.415	1.601	1209187	WORD	n/a	wordpools/wordpool_categorized_EN.txt	BEACH	Landscapes	12	8	[0, 0, 0]	n/a	catFR1	0	R1505J
1063.016	0.001	1210782	PROB	0.001	n/a	n/a	n/a	-999	8	[3, 5, 3]	11	catFR1	0	R1505J
1063.017	0.0	1210783	START	n/a	n/a	n/a	n/a	-999	8	[-999, -999, -999]	n/a	catFR1	0	R1505J
1063.016	0.001	1210786	WORD_OFF	n/a	n/a	BEACH	Landscapes	12	8	[0, 0, 0]	n/a	catFR1	0	R1505J
1063.017	0.0	1210786	ENCODING_END	n/a	n/a	n/a	n/a	-999	8	[0, 0, 0]	n/a	catFR1	0	R1505J
1063.017	7.949	1210786	DISTRACT_START	n/a	n/a	n/a	n/a	-999	8	[0, 0, 0]	n/a	catFR1	0	R1505J
1070.966	4.534	1218732	PROB	4.534	n/a	n/a	n/a	-999	8	[1, 4, 8]	13	catFR1	0	R1505J
1075.5	4.866	1223266	PROB	4.866	n/a	n/a	n/a	-999	8	[7, 8, 1]	16	catFR1	0	R1505J
1080.366	4.599	1228132	PROB	4.599	n/a	n/a	n/a	-999	8	[2, 3, 2]	7	catFR1	0	R1505J
1084.965	0.0	1232729	DISTRACT_END	n/a	n/a	n/a	n/a	-999	8	[0, 0, 0]	n/a	catFR1	0	R1505J
1084.965	1.15	1232731	STOP	n/a	n/a	n/a	n/a	-999	8	[-999, -999, -999]	n/a	catFR1	0	R1505J
1086.115	3.638	1233883	REC_START	n/a	n/a	n/a	n/a	-999	8	[0, 0, 0]	n/a	catFR1	0	R1505J
1089.753	1.285	1237518	REC_WORD	1.285	n/a	WRENCH	Tools	-999	8	[0, 0, 0]	n/a	catFR1	0	R1505J
1091.038	2.6	1238803	REC_WORD	2.6	n/a	DRILL	Tools	2	8	[0, 0, 0]	n/a	catFR1	0	R1505J
1093.638	1.633	1241403	REC_WORD	1.633	n/a	RATCHET	Tools	9	8	[0, 0, 0]	n/a	catFR1	0	R1505J
1095.271	2.652	1243036	REC_WORD	2.652	n/a	CREEK	Landscapes	11	8	[0, 0, 0]	n/a	catFR1	0	R1505J
1097.923	6.529	1245688	REC_WORD	6.529	n/a	KNIFE	KitchenTools	3	8	[0, 0, 0]	n/a	catFR1	0	R1505J
1104.452	7.99	1252217	REC_WORD	7.99	n/a	SAND	n/a	-999	8	[0, 0, 0]	n/a	catFR1	0	R1505J
1112.442	4.904	1260206	REC_WORD	4.904	n/a	SKY	n/a	-999	8	[0, 0, 0]	n/a	catFR1	0	R1505J
1117.346	1.72	1265109	REC_END	n/a	n/a	n/a	n/a	-999	8	[0, 0, 0]	n/a	catFR1	0	R1505J
1119.066	10.35	1266841	COUNTDOWN_START	n/a	n/a	n/a	n/a	-999	8	[0, 0, 0]	n/a	catFR1	0	R1505J
1129.416	0.0	1277176	COUNTDOWN_END	n/a	n/a	n/a	n/a	-999	8	[0, 0, 0]	n/a	catFR1	0	R1505J
1129.416	2.016	1277176	ENCODING_START	n/a	n/a	n/a	n/a	-999	9	[0, 0, 0]	n/a	catFR1	0	R1505J
1131.432	1.615	1279204	WORD	n/a	wordpools/wordpool_categorized_EN.txt	MOUNTAIN	Landscapes	1	9	[0, 0, 0]	n/a	catFR1	0	R1505J
1133.047	1.001	1280818	WORD_OFF	n/a	n/a	MOUNTAIN	Landscapes	1	9	[0, 0, 0]	n/a	catFR1	0	R1505J
1134.048	1.6	1281810	WORD	n/a	wordpools/wordpool_categorized_EN.txt	OCEAN	Landscapes	2	9	[0, 0, 0]	n/a	catFR1	0	R1505J
1135.648	0.8	1283409	WORD_OFF	n/a	n/a	OCEAN	Landscapes	2	9	[0, 0, 0]	n/a	catFR1	0	R1505J
1136.448	1.601	1284209	WORD	n/a	wordpools/wordpool_categorized_EN.txt	NOTEBOOK	OfficeSupplies	3	9	[0, 0, 0]	n/a	catFR1	0	R1505J
1138.049	0.866	1285808	WORD_OFF	n/a	n/a	NOTEBOOK	OfficeSupplies	3	9	[0, 0, 0]	n/a	catFR1	0	R1505J
1138.915	1.6	1286681	WORD	n/a	wordpools/wordpool_categorized_EN.txt	ERASER	OfficeSupplies	4	9	[0, 0, 0]	n/a	catFR1	0	R1505J
1140.515	0.85	1288281	WORD_OFF	n/a	n/a	ERASER	OfficeSupplies	4	9	[0, 0, 0]	n/a	catFR1	0	R1505J
1141.365	1.601	1289124	WORD	n/a	wordpools/wordpool_categorized_EN.txt	CAKE	Desserts	5	9	[0, 0, 0]	n/a	catFR1	0	R1505J
1142.966	0.816	1290738	WORD_OFF	n/a	n/a	CAKE	Desserts	5	9	[0, 0, 0]	n/a	catFR1	0	R1505J
1143.782	1.6	1291553	WORD	n/a	wordpools/wordpool_categorized_EN.txt	CHEESECAKE	Desserts	6	9	[0, 0, 0]	n/a	catFR1	0	R1505J
1145.382	0.917	1293152	WORD_OFF	n/a	n/a	CHEESECAKE	Desserts	6	9	[0, 0, 0]	n/a	catFR1	0	R1505J
1146.299	1.616	1294070	WORD	n/a	wordpools/wordpool_categorized_EN.txt	FOLDER	OfficeSupplies	7	9	[0, 0, 0]	n/a	catFR1	0	R1505J
1147.915	0.967	1295684	WORD_OFF	n/a	n/a	FOLDER	OfficeSupplies	7	9	[0, 0, 0]	n/a	catFR1	0	R1505J
1148.882	1.617	1296646	WORD	n/a	wordpools/wordpool_categorized_EN.txt	RULER	OfficeSupplies	8	9	[0, 0, 0]	n/a	catFR1	0	R1505J
1150.499	0.9	1298260	WORD_OFF	n/a	n/a	RULER	OfficeSupplies	8	9	[0, 0, 0]	n/a	catFR1	0	R1505J
1151.399	1.617	1299163	WORD	n/a	wordpools/wordpool_categorized_EN.txt	PASTRY	Desserts	9	9	[0, 0, 0]	n/a	catFR1	0	R1505J
1153.016	0.899	1300777	WORD_OFF	n/a	n/a	PASTRY	Desserts	9	9	[0, 0, 0]	n/a	catFR1	0	R1505J
1153.915	1.601	1301680	WORD	n/a	wordpools/wordpool_categorized_EN.txt	JELLO	Desserts	10	9	[0, 0, 0]	n/a	catFR1	0	R1505J
1155.516	0.849	1303279	WORD_OFF	n/a	n/a	JELLO	Desserts	10	9	[0, 0, 0]	n/a	catFR1	0	R1505J
1156.365	1.616	1304123	WORD	n/a	wordpools/wordpool_categorized_EN.txt	STREAM	Landscapes	11	9	[0, 0, 0]	n/a	catFR1	0	R1505J
1157.981	1.001	1305752	WORD_OFF	n/a	n/a	STREAM	Landscapes	11	9	[0, 0, 0]	n/a	catFR1	0	R1505J
1158.982	1.6	1306744	WORD	n/a	wordpools/wordpool_categorized_EN.txt	RIVER	Landscapes	12	9	[0, 0, 0]	n/a	catFR1	0	R1505J
1160.582	0.001	1308343	WORD_OFF	n/a	n/a	RIVER	Landscapes	12	9	[0, 0, 0]	n/a	catFR1	0	R1505J
1160.583	0.0	1308343	ENCODING_END	n/a	n/a	n/a	n/a	-999	9	[0, 0, 0]	n/a	catFR1	0	R1505J
1160.583	0.0	1308345	PROB	0.0	n/a	n/a	n/a	-999	9	[6, 1, 1]	8	catFR1	0	R1505J
1160.583	0.0	1308345	START	n/a	n/a	n/a	n/a	-999	9	[-999, -999, -999]	n/a	catFR1	0	R1505J
1160.583	4.282	1308357	DISTRACT_START	n/a	n/a	n/a	n/a	-999	9	[0, 0, 0]	n/a	catFR1	0	R1505J
1164.865	6.433	1312627	PROB	6.433	n/a	n/a	n/a	-999	9	[3, 1, 8]	12	catFR1	0	R1505J
1171.298	10.8	1319060	PROB	10.8	n/a	n/a	n/a	-999	9	[1, 5, 8]	14	catFR1	0	R1505J
1182.098	0.0	1329856	DISTRACT_END	n/a	n/a	n/a	n/a	-999	9	[0, 0, 0]	n/a	catFR1	0	R1505J
1182.098	1.35	1329860	STOP	n/a	n/a	n/a	n/a	-999	9	[-999, -999, -999]	n/a	catFR1	0	R1505J
1183.448	7.44	1331218	REC_START	n/a	n/a	n/a	n/a	-999	9	[0, 0, 0]	n/a	catFR1	0	R1505J
1190.888	3.645	1338649	REC_WORD	3.645	n/a	PASTRY	Desserts	9	9	[0, 0, 0]	n/a	catFR1	0	R1505J
1194.533	5.946	1342294	REC_WORD	5.946	n/a	MOUNTAIN	Landscapes	1	9	[0, 0, 0]	n/a	catFR1	0	R1505J
1200.479	14.186	1348240	REC_WORD	14.186	n/a	RIVER	Landscapes	12	9	[0, 0, 0]	n/a	catFR1	0	R1505J
1214.665	1.484	1362429	REC_END	n/a	n/a	n/a	n/a	-999	9	[0, 0, 0]	n/a	catFR1	0	R1505J
1216.149	10.35	1363909	COUNTDOWN_START	n/a	n/a	n/a	n/a	-999	9	[0, 0, 0]	n/a	catFR1	0	R1505J
1226.499	0.0	1374259	COUNTDOWN_END	n/a	n/a	n/a	n/a	-999	9	[0, 0, 0]	n/a	catFR1	0	R1505J
1226.499	1.95	1374259	ENCODING_START	n/a	n/a	n/a	n/a	-999	10	[0, 0, 0]	n/a	catFR1	0	R1505J
1228.449	1.616	1376213	WORD	n/a	wordpools/wordpool_categorized_EN.txt	TELEVISION	Electronics	1	10	[0, 0, 0]	n/a	catFR1	0	R1505J
1230.065	0.783	1377827	WORD_OFF	n/a	n/a	TELEVISION	Electronics	1	10	[0, 0, 0]	n/a	catFR1	0	R1505J
1230.848	1.6	1378612	WORD	n/a	wordpools/wordpool_categorized_EN.txt	COMPUTER	Electronics	2	10	[0, 0, 0]	n/a	catFR1	0	R1505J
1232.448	0.834	1380211	WORD_OFF	n/a	n/a	COMPUTER	Electronics	2	10	[0, 0, 0]	n/a	catFR1	0	R1505J
1233.282	1.617	1381040	WORD	n/a	wordpools/wordpool_categorized_EN.txt	WOODS	Landscapes	3	10	[0, 0, 0]	n/a	catFR1	0	R1505J
1234.899	0.783	1382654	WORD_OFF	n/a	n/a	WOODS	Landscapes	3	10	[0, 0, 0]	n/a	catFR1	0	R1505J
1235.682	1.6	1383438	WORD	n/a	wordpools/wordpool_categorized_EN.txt	VALLEY	Landscapes	4	10	[0, 0, 0]	n/a	catFR1	0	R1505J
1237.282	0.85	1385037	WORD_OFF	n/a	n/a	VALLEY	Landscapes	4	10	[0, 0, 0]	n/a	catFR1	0	R1505J
1238.132	1.6	1385896	WORD	n/a	wordpools/wordpool_categorized_EN.txt	FOOT	BodyParts	5	10	[0, 0, 0]	n/a	catFR1	0	R1505J
1239.732	0.984	1387495	WORD_OFF	n/a	n/a	FOOT	BodyParts	5	10	[0, 0, 0]	n/a	catFR1	0	R1505J
1240.716	1.602	1388472	WORD	n/a	wordpools/wordpool_categorized_EN.txt	HAND	BodyParts	6	10	[0, 0, 0]	n/a	catFR1	0	R1505J
1242.318	0.981	1390086	WORD_OFF	n/a	n/a	HAND	BodyParts	6	10	[0, 0, 0]	n/a	catFR1	0	R1505J
1243.299	1.617	1391063	WORD	n/a	wordpools/wordpool_categorized_EN.txt	TABLET	Electronics	7	10	[0, 0, 0]	n/a	catFR1	0	R1505J
1244.916	0.849	1392677	WORD_OFF	n/a	n/a	TABLET	Electronics	7	10	[0, 0, 0]	n/a	catFR1	0	R1505J
1245.765	1.617	1393521	WORD	n/a	wordpools/wordpool_categorized_EN.txt	SPEAKER	Electronics	8	10	[0, 0, 0]	n/a	catFR1	0	R1505J
1247.382	1.0	1395150	WORD_OFF	n/a	n/a	SPEAKER	Electronics	8	10	[0, 0, 0]	n/a	catFR1	0	R1505J
1248.382	1.6	1396142	WORD	n/a	wordpools/wordpool_categorized_EN.txt	FINGERS	BodyParts	9	10	[0, 0, 0]	n/a	catFR1	0	R1505J
1249.982	0.767	1397741	WORD_OFF	n/a	n/a	FINGERS	BodyParts	9	10	[0, 0, 0]	n/a	catFR1	0	R1505J
1250.749	1.617	1398511	WORD	n/a	wordpools/wordpool_categorized_EN.txt	HEAD	BodyParts	10	10	[0, 0, 0]	n/a	catFR1	0	R1505J
1252.366	0.966	1400125	WORD_OFF	n/a	n/a	HEAD	BodyParts	10	10	[0, 0, 0]	n/a	catFR1	0	R1505J
1253.332	1.6	1401087	WORD	n/a	wordpools/wordpool_categorized_EN.txt	ISLAND	Landscapes	11	10	[0, 0, 0]	n/a	catFR1	0	R1505J
1254.932	0.8	1402686	WORD_OFF	n/a	n/a	ISLAND	Landscapes	11	10	[0, 0, 0]	n/a	catFR1	0	R1505J
1255.732	1.601	1403500	WORD	n/a	wordpools/wordpool_categorized_EN.txt	LAKE	Landscapes	12	10	[0, 0, 0]	n/a	catFR1	0	R1505J
1257.333	0.001	1405091	PROB	0.001	n/a	n/a	n/a	-999	10	[3, 2, 5]	10	catFR1	0	R1505J
1257.334	0.0	1405092	START	n/a	n/a	n/a	n/a	-999	10	[-999, -999, -999]	n/a	catFR1	0	R1505J
1257.332	0.002	1405100	WORD_OFF	n/a	n/a	LAKE	Landscapes	12	10	[0, 0, 0]	n/a	catFR1	0	R1505J
1257.334	0.0	1405100	ENCODING_END	n/a	n/a	n/a	n/a	-999	10	[0, 0, 0]	n/a	catFR1	0	R1505J
1257.334	7.082	1405100	DISTRACT_START	n/a	n/a	n/a	n/a	-999	10	[0, 0, 0]	n/a	catFR1	0	R1505J
1264.416	5.149	1412174	PROB	5.149	n/a	n/a	n/a	-999	10	[3, 2, 3]	8	catFR1	0	R1505J
1269.565	19.866	1417323	PROB	19.866	n/a	n/a	n/a	-999	10	[7, 8, 6]	21	catFR1	0	R1505J
1289.431	0.0	1437184	DISTRACT_END	n/a	n/a	n/a	n/a	-999	10	[0, 0, 0]	n/a	catFR1	0	R1505J
1289.431	1.3	1437188	STOP	n/a	n/a	n/a	n/a	-999	10	[-999, -999, -999]	n/a	catFR1	0	R1505J
1290.731	2.401	1438487	REC_START	n/a	n/a	n/a	n/a	-999	10	[0, 0, 0]	n/a	catFR1	0	R1505J
1293.132	1.254	1440889	REC_WORD	1.254	n/a	FOOT	BodyParts	5	10	[0, 0, 0]	n/a	catFR1	0	R1505J
1294.386	1.633	1442143	REC_WORD	1.633	n/a	HAND	BodyParts	6	10	[0, 0, 0]	n/a	catFR1	0	R1505J
1296.019	1.181	1443776	REC_WORD	1.181	n/a	TABLET	Electronics	7	10	[0, 0, 0]	n/a	catFR1	0	R1505J
1297.2	2.776	1444957	REC_WORD	2.776	n/a	FINGERS	BodyParts	9	10	[0, 0, 0]	n/a	catFR1	0	R1505J
1299.976	6.548	1447733	REC_WORD	6.548	n/a	TOE	BodyParts	-999	10	[0, 0, 0]	n/a	catFR1	0	R1505J
1306.524	3.049	1454280	REC_WORD	3.049	n/a	FINGERS	BodyParts	9	10	[0, 0, 0]	n/a	catFR1	0	R1505J
1309.573	10.618	1457329	REC_WORD	10.618	n/a	FOOT	BodyParts	5	10	[0, 0, 0]	n/a	catFR1	0	R1505J
1320.191	1.768	1467947	REC_WORD	1.768	n/a	TABLET	Electronics	7	10	[0, 0, 0]	n/a	catFR1	0	R1505J
1321.959	1.605	1469713	REC_END	n/a	n/a	n/a	n/a	-999	10	[0, 0, 0]	n/a	catFR1	0	R1505J
1323.564	10.351	1471327	COUNTDOWN_START	n/a	n/a	n/a	n/a	-999	10	[0, 0, 0]	n/a	catFR1	0	R1505J
1333.915	0.0	1481676	COUNTDOWN_END	n/a	n/a	n/a	n/a	-999	10	[0, 0, 0]	n/a	catFR1	0	R1505J
1333.915	2.082	1481676	ENCODING_START	n/a	n/a	n/a	n/a	-999	11	[0, 0, 0]	n/a	catFR1	0	R1505J
1335.997	1.6	1483749	WORD	n/a	wordpools/wordpool_categorized_EN.txt	CRICKET	Insects	1	11	[0, 0, 0]	n/a	catFR1	0	R1505J
1337.597	0.984	1485348	WORD_OFF	n/a	n/a	CRICKET	Insects	1	11	[0, 0, 0]	n/a	catFR1	0	R1505J
1338.581	1.616	1486340	WORD	n/a	wordpools/wordpool_categorized_EN.txt	BEETLE	Insects	2	11	[0, 0, 0]	n/a	catFR1	0	R1505J
1340.197	1.0	1487954	WORD_OFF	n/a	n/a	BEETLE	Insects	2	11	[0, 0, 0]	n/a	catFR1	0	R1505J
1341.197	1.6	1488960	WORD	n/a	wordpools/wordpool_categorized_EN.txt	STAIRS	Building	3	11	[0, 0, 0]	n/a	catFR1	0	R1505J
1342.797	0.968	1490560	WORD_OFF	n/a	n/a	STAIRS	Building	3	11	[0, 0, 0]	n/a	catFR1	0	R1505J
1343.765	1.615	1491522	WORD	n/a	wordpools/wordpool_categorized_EN.txt	BATHROOM	Building	4	11	[0, 0, 0]	n/a	catFR1	0	R1505J
1345.38	0.984	1493136	WORD_OFF	n/a	n/a	BATHROOM	Building	4	11	[0, 0, 0]	n/a	catFR1	0	R1505J
1346.364	1.616	1494128	WORD	n/a	wordpools/wordpool_categorized_EN.txt	CROW	Birds	5	11	[0, 0, 0]	n/a	catFR1	0	R1505J
1347.98	0.917	1495742	WORD_OFF	n/a	n/a	CROW	Birds	5	11	[0, 0, 0]	n/a	catFR1	0	R1505J
1348.897	1.601	1496660	WORD	n/a	wordpools/wordpool_categorized_EN.txt	FINCH	Birds	6	11	[0, 0, 0]	n/a	catFR1	0	R1505J
1350.498	0.884	1498259	WORD_OFF	n/a	n/a	FINCH	Birds	6	11	[0, 0, 0]	n/a	catFR1	0	R1505J
1351.382	1.614	1499132	WORD	n/a	wordpools/wordpool_categorized_EN.txt	WINDOW	Building	7	11	[0, 0, 0]	n/a	catFR1	0	R1505J
1352.996	0.951	1500746	WORD_OFF	n/a	n/a	WINDOW	Building	7	11	[0, 0, 0]	n/a	catFR1	0	R1505J
1353.947	1.6	1501708	WORD	n/a	wordpools/wordpool_categorized_EN.txt	ROOM	Building	8	11	[0, 0, 0]	n/a	catFR1	0	R1505J
1355.547	0.85	1503307	WORD_OFF	n/a	n/a	ROOM	Building	8	11	[0, 0, 0]	n/a	catFR1	0	R1505J
1356.397	1.6	1504151	WORD	n/a	wordpools/wordpool_categorized_EN.txt	DOVE	Birds	9	11	[0, 0, 0]	n/a	catFR1	0	R1505J
1357.997	0.999	1505750	WORD_OFF	n/a	n/a	DOVE	Birds	9	11	[0, 0, 0]	n/a	catFR1	0	R1505J
1358.996	1.601	1506757	WORD	n/a	wordpools/wordpool_categorized_EN.txt	DUCK	Birds	10	11	[0, 0, 0]	n/a	catFR1	0	R1505J
1360.597	0.767	1508356	WORD_OFF	n/a	n/a	DUCK	Birds	10	11	[0, 0, 0]	n/a	catFR1	0	R1505J
1361.364	1.6	1509126	WORD	n/a	wordpools/wordpool_categorized_EN.txt	GNAT	Insects	11	11	[0, 0, 0]	n/a	catFR1	0	R1505J
1362.964	0.816	1510725	WORD_OFF	n/a	n/a	GNAT	Insects	11	11	[0, 0, 0]	n/a	catFR1	0	R1505J
1363.78	1.601	1511540	WORD	n/a	wordpools/wordpool_categorized_EN.txt	MOTH	Insects	12	11	[0, 0, 0]	n/a	catFR1	0	R1505J
1365.381	0.001	1513135	PROB	0.001	n/a	n/a	n/a	-999	11	[2, 6, 1]	9	catFR1	0	R1505J
1365.382	0.0	1513136	START	n/a	n/a	n/a	n/a	-999	11	[-999, -999, -999]	n/a	catFR1	0	R1505J
1365.38	0.002	1513139	WORD_OFF	n/a	n/a	MOTH	Insects	12	11	[0, 0, 0]	n/a	catFR1	0	R1505J
1365.382	0.0	1513139	ENCODING_END	n/a	n/a	n/a	n/a	-999	11	[0, 0, 0]	n/a	catFR1	0	R1505J
1365.382	4.499	1513139	DISTRACT_START	n/a	n/a	n/a	n/a	-999	11	[0, 0, 0]	n/a	catFR1	0	R1505J
1369.881	7.416	1517635	PROB	7.416	n/a	n/a	n/a	-999	11	[7, 6, 2]	15	catFR1	0	R1505J
1377.297	13.184	1525051	PROB	13.184	n/a	n/a	n/a	-999	11	[6, 4, 7]	17	catFR1	0	R1505J
1390.481	0.0	1538234	STOP	n/a	n/a	n/a	n/a	-999	11	[-999, -999, -999]	n/a	catFR1	0	R1505J
1390.481	1.25	1538235	DISTRACT_END	n/a	n/a	n/a	n/a	-999	11	[0, 0, 0]	n/a	catFR1	0	R1505J
1391.731	2.257	1539493	REC_START	n/a	n/a	n/a	n/a	-999	11	[0, 0, 0]	n/a	catFR1	0	R1505J
1393.988	1.243	1541741	REC_WORD	1.243	n/a	MOTH	Insects	12	11	[0, 0, 0]	n/a	catFR1	0	R1505J
1395.231	1.716	1542984	REC_WORD	1.716	n/a	WINDOW	Building	7	11	[0, 0, 0]	n/a	catFR1	0	R1505J
1396.947	2.433	1544700	REC_WORD	2.433	n/a	DOVE	Birds	9	11	[0, 0, 0]	n/a	catFR1	0	R1505J
1399.38	4.309	1547133	REC_WORD	4.309	n/a	DUCK	Birds	10	11	[0, 0, 0]	n/a	catFR1	0	R1505J
1403.689	2.68	1551441	REC_WORD	2.68	n/a	STAIRS	Building	3	11	[0, 0, 0]	n/a	catFR1	0	R1505J
1406.369	11.482	1554121	REC_WORD	11.482	n/a	MOTH	Insects	12	11	[0, 0, 0]	n/a	catFR1	0	R1505J
1417.851	5.108	1565603	REC_WORD	5.108	n/a	CEILING	Building	-999	11	[0, 0, 0]	n/a	catFR1	0	R1505J
1422.959	2.521	1570719	REC_END	n/a	n/a	n/a	n/a	-999	11	[0, 0, 0]	n/a	catFR1	0	R1505J
1425.48	10.352	1573236	COUNTDOWN_START	n/a	n/a	n/a	n/a	-999	11	[0, 0, 0]	n/a	catFR1	0	R1505J
1435.832	0.0	1583585	COUNTDOWN_END	n/a	n/a	n/a	n/a	-999	11	[0, 0, 0]	n/a	catFR1	0	R1505J
1435.832	2.081	1583585	ENCODING_START	n/a	n/a	n/a	n/a	-999	12	[0, 0, 0]	n/a	catFR1	0	R1505J
1437.913	1.601	1585673	WORD	n/a	wordpools/wordpool_categorized_EN.txt	MOSQUITO	Insects	1	12	[0, 0, 0]	n/a	catFR1	0	R1505J
1439.514	0.984	1587272	WORD_OFF	n/a	n/a	MOSQUITO	Insects	1	12	[0, 0, 0]	n/a	catFR1	0	R1505J
1440.498	1.616	1588249	WORD	n/a	wordpools/wordpool_categorized_EN.txt	LADYBUG	Insects	2	12	[0, 0, 0]	n/a	catFR1	0	R1505J
1442.114	0.817	1589863	WORD_OFF	n/a	n/a	LADYBUG	Insects	2	12	[0, 0, 0]	n/a	catFR1	0	R1505J
1442.931	1.616	1590692	WORD	n/a	wordpools/wordpool_categorized_EN.txt	FLOOR	Building	3	12	[0, 0, 0]	n/a	catFR1	0	R1505J
1444.547	0.766	1592306	WORD_OFF	n/a	n/a	FLOOR	Building	3	12	[0, 0, 0]	n/a	catFR1	0	R1505J
1445.313	1.601	1593061	WORD	n/a	wordpools/wordpool_categorized_EN.txt	HALLWAY	Building	4	12	[0, 0, 0]	n/a	catFR1	0	R1505J
1446.914	1.0	1594660	WORD_OFF	n/a	n/a	HALLWAY	Building	4	12	[0, 0, 0]	n/a	catFR1	0	R1505J
1447.914	1.617	1595667	WORD	n/a	wordpools/wordpool_categorized_EN.txt	LIME	Fruit	5	12	[0, 0, 0]	n/a	catFR1	0	R1505J
1449.531	0.983	1597281	WORD_OFF	n/a	n/a	LIME	Fruit	5	12	[0, 0, 0]	n/a	catFR1	0	R1505J
1450.514	1.616	1598273	WORD	n/a	wordpools/wordpool_categorized_EN.txt	LEMON	Fruit	6	12	[0, 0, 0]	n/a	catFR1	0	R1505J
1452.13	1.0	1599887	WORD_OFF	n/a	n/a	LEMON	Fruit	6	12	[0, 0, 0]	n/a	catFR1	0	R1505J
1453.13	1.601	1600879	WORD	n/a	wordpools/wordpool_categorized_EN.txt	ATTIC	Building	7	12	[0, 0, 0]	n/a	catFR1	0	R1505J
1454.731	0.85	1602478	WORD_OFF	n/a	n/a	ATTIC	Building	7	12	[0, 0, 0]	n/a	catFR1	0	R1505J
1455.581	1.616	1603336	WORD	n/a	wordpools/wordpool_categorized_EN.txt	FOUNDATION	Building	8	12	[0, 0, 0]	n/a	catFR1	0	R1505J
1457.197	0.8	1604950	WORD_OFF	n/a	n/a	FOUNDATION	Building	8	12	[0, 0, 0]	n/a	catFR1	0	R1505J
1457.997	1.617	1605750	WORD	n/a	wordpools/wordpool_categorized_EN.txt	ANT	Insects	9	12	[0, 0, 0]	n/a	catFR1	0	R1505J
1459.614	0.783	1607364	WORD_OFF	n/a	n/a	ANT	Insects	9	12	[0, 0, 0]	n/a	catFR1	0	R1505J
1460.397	1.617	1608148	WORD	n/a	wordpools/wordpool_categorized_EN.txt	SPIDER	Insects	10	12	[0, 0, 0]	n/a	catFR1	0	R1505J
1462.014	0.849	1609762	WORD_OFF	n/a	n/a	SPIDER	Insects	10	12	[0, 0, 0]	n/a	catFR1	0	R1505J
1462.863	1.6	1610621	WORD	n/a	wordpools/wordpool_categorized_EN.txt	CHERRY	Fruit	11	12	[0, 0, 0]	n/a	catFR1	0	R1505J
1464.463	0.951	1612220	WORD_OFF	n/a	n/a	CHERRY	Fruit	11	12	[0, 0, 0]	n/a	catFR1	0	R1505J
1465.414	1.616	1613168	WORD	n/a	wordpools/wordpool_categorized_EN.txt	STRAWBERRY	Fruit	12	12	[0, 0, 0]	n/a	catFR1	0	R1505J
1467.03	0.001	1614781	WORD_OFF	n/a	n/a	STRAWBERRY	Fruit	12	12	[0, 0, 0]	n/a	catFR1	0	R1505J
1467.031	0.0	1614781	ENCODING_END	n/a	n/a	n/a	n/a	-999	12	[0, 0, 0]	n/a	catFR1	0	R1505J
1467.031	0.0	1614781	DISTRACT_START	n/a	n/a	n/a	n/a	-999	12	[0, 0, 0]	n/a	catFR1	0	R1505J
1467.031	0.0	1614781	START	n/a	n/a	n/a	n/a	-999	12	[-999, -999, -999]	n/a	catFR1	0	R1505J
1467.031	4.966	1614781	PROB	4.966	n/a	n/a	n/a	-999	12	[4, 4, 4]	12	catFR1	0	R1505J
1471.997	5.917	1619747	PROB	5.917	n/a	n/a	n/a	-999	12	[7, 5, 1]	13	catFR1	0	R1505J
1477.914	11.567	1625663	PROB	11.567	n/a	n/a	n/a	-999	12	[7, 8, 6]	21	catFR1	0	R1505J
1489.481	0.0	1637227	DISTRACT_END	n/a	n/a	n/a	n/a	-999	12	[0, 0, 0]	n/a	catFR1	0	R1505J
1489.481	1.267	1637230	STOP	n/a	n/a	n/a	n/a	-999	12	[-999, -999, -999]	n/a	catFR1	0	R1505J
1490.748	1.077	1638501	REC_START	n/a	n/a	n/a	n/a	-999	12	[0, 0, 0]	n/a	catFR1	0	R1505J
1491.825	1.78	1639574	REC_WORD	1.78	n/a	STRAWBERRY	Fruit	12	12	[0, 0, 0]	n/a	catFR1	0	R1505J
1493.605	4.944	1641354	REC_WORD	4.944	n/a	CHERRY	Fruit	11	12	[0, 0, 0]	n/a	catFR1	0	R1505J
1498.549	6.946	1646298	REC_WORD	6.946	n/a	MOTH	Insects	-999	12	[0, 0, 0]	n/a	catFR1	0	R1505J
1505.495	3.216	1653243	REC_WORD	3.216	n/a	SPIDER	Insects	10	12	[0, 0, 0]	n/a	catFR1	0	R1505J
1508.711	3.899	1656459	REC_WORD	3.899	n/a	CEILING	Building	-999	12	[0, 0, 0]	n/a	catFR1	0	R1505J
1512.61	5.479	1660358	REC_WORD	5.479	n/a	STAIRS	Building	-999	12	[0, 0, 0]	n/a	catFR1	0	R1505J
1518.089	3.895	1665837	REC_WORD	3.895	n/a	FLOOR	Building	3	12	[0, 0, 0]	n/a	catFR1	0	R1505J
1521.984	0.0	1669741	REC_END	n/a	n/a	n/a	n/a	-999	12	[0, 0, 0]	n/a	catFR1	0	R1505J
