onset	duration	sample	trial_type	response_time	stim_file	item_name	category	serialpos	list	test	answer	experiment	session	subject
0.0	70.625	30870	SESS_START	n/a	n/a	n/a	n/a	-999	-999	[0, 0, 0]	n/a	catFR1	0	R1074M
70.625	10.428	66181	COUNTDOWN_START	n/a	n/a	n/a	n/a	-999	-999	[0, 0, 0]	n/a	catFR1	0	R1074M
81.053	3.642	71394	COUNTDOWN_END	n/a	n/a	n/a	n/a	-999	-999	[0, 0, 0]	n/a	catFR1	0	R1074M
84.695	2.549	73215	PRACTICE_WORD	n/a	n/a	CHEST	n/a	-999	-999	[0, 0, 0]	n/a	catFR1	0	R1074M
87.244	2.452	74490	PRACTICE_WORD	n/a	n/a	RHINO	n/a	-999	-999	[0, 0, 0]	n/a	catFR1	0	R1074M
89.696	2.483	75716	PRACTICE_WORD	n/a	n/a	RING	n/a	-999	-999	[0, 0, 0]	n/a	catFR1	0	R1074M
92.179	2.451	76957	PRACTICE_WORD	n/a	n/a	COTTON	n/a	-999	-999	[0, 0, 0]	n/a	catFR1	0	R1074M
94.63	2.583	78182	PRACTICE_WORD	n/a	n/a	ATTIC	n/a	-999	-999	[0, 0, 0]	n/a	catFR1	0	R1074M
97.213	2.585	79474	PRACTICE_WORD	n/a	n/a	IRON	n/a	-999	-999	[0, 0, 0]	n/a	catFR1	0	R1074M
99.798	2.432	80766	PRACTICE_WORD	n/a	n/a	WATCH	n/a	-999	-999	[0, 0, 0]	n/a	catFR1	0	R1074M
102.23	2.402	81982	PRACTICE_WORD	n/a	n/a	TONGUE	n/a	-999	-999	[0, 0, 0]	n/a	catFR1	0	R1074M
104.632	2.483	83183	PRACTICE_WORD	n/a	n/a	WAGON	n/a	-999	-999	[0, 0, 0]	n/a	catFR1	0	R1074M
107.115	2.601	84425	PRACTICE_WORD	n/a	n/a	BEAM	n/a	-999	-999	[0, 0, 0]	n/a	catFR1	0	R1074M
109.716	2.483	85725	PRACTICE_WORD	n/a	n/a	FLOOD	n/a	-999	-999	[0, 0, 0]	n/a	catFR1	0	R1074M
112.199	1.601	86966	PRACTICE_WORD	n/a	n/a	CAMEL	n/a	-999	-999	[0, 0, 0]	n/a	catFR1	0	R1074M
113.8	0.0	87767	PRACTICE_DISTRACT_START	n/a	n/a	n/a	n/a	-999	-999	[0, 0, 0]	n/a	catFR1	0	R1074M
113.8	0.017	87767	START	n/a	n/a	n/a	n/a	-999	-1	[-999, -999, -999]	n/a	catFR1	0	R1074M
113.817	60.63	87775	PROB	60.63	n/a	n/a	n/a	-999	-1	[6, 6, 7]	19.0	catFR1	0	R1074M
174.447	0.015	118089	STOP	n/a	n/a	n/a	n/a	-999	-1	[-999, -999, -999]	n/a	catFR1	0	R1074M
174.462	0.585	118096	PRACTICE_DISTRACT_END	n/a	n/a	n/a	n/a	-999	-999	[0, 0, 0]	n/a	catFR1	0	R1074M
175.047	30.515	118389	PRACTICE_REC_START	n/a	n/a	n/a	n/a	-999	-999	[0, 0, 0]	n/a	catFR1	0	R1074M
205.562	279.777	133645	PRACTICE_REC_END	n/a	n/a	n/a	n/a	-999	-999	[0, 0, 0]	n/a	catFR1	0	R1074M
485.339	0.0	273526	TRIAL	n/a	n/a	n/a	n/a	-999	1	[0, 0, 0]	n/a	catFR1	0	R1074M
485.339	10.428	273526	COUNTDOWN_START	n/a	n/a	n/a	n/a	-999	1	[0, 0, 0]	n/a	catFR1	0	R1074M
495.767	0.007	278740	COUNTDOWN_END	n/a	n/a	n/a	n/a	-999	1	[0, 0, 0]	n/a	catFR1	0	R1074M
495.774	3.584	278743	ORIENT	n/a	n/a	n/a	n/a	-999	1	[0, 0, 0]	n/a	catFR1	0	R1074M
499.358	2.567	280535	WORD	n/a	wordpools/wordpool_categorized_EN.txt	PLANKTON	OceanAnimals	1	1	[0, 0, 0]	n/a	catFR1	0	R1074M
501.925	2.568	281818	WORD	n/a	wordpools/wordpool_categorized_EN.txt	OYSTER	OceanAnimals	2	1	[0, 0, 0]	n/a	catFR1	0	R1074M
504.493	2.433	283102	WORD	n/a	wordpools/wordpool_categorized_EN.txt	FOUNDATION	Building	3	1	[0, 0, 0]	n/a	catFR1	0	R1074M
506.926	2.517	284319	WORD	n/a	wordpools/wordpool_categorized_EN.txt	FLOOR	Building	4	1	[0, 0, 0]	n/a	catFR1	0	R1074M
509.443	2.583	285577	WORD	n/a	wordpools/wordpool_categorized_EN.txt	COBBLER	Desserts	5	1	[0, 0, 0]	n/a	catFR1	0	R1074M
512.026	2.569	286869	WORD	n/a	wordpools/wordpool_categorized_EN.txt	PASTRY	Desserts	6	1	[0, 0, 0]	n/a	catFR1	0	R1074M
514.595	2.449	288153	WORD	n/a	wordpools/wordpool_categorized_EN.txt	FISH	OceanAnimals	7	1	[0, 0, 0]	n/a	catFR1	0	R1074M
517.044	2.518	289377	WORD	n/a	wordpools/wordpool_categorized_EN.txt	SQUID	OceanAnimals	8	1	[0, 0, 0]	n/a	catFR1	0	R1074M
519.562	2.417	290636	WORD	n/a	wordpools/wordpool_categorized_EN.txt	FUDGE	Desserts	9	1	[0, 0, 0]	n/a	catFR1	0	R1074M
521.979	2.484	291845	WORD	n/a	wordpools/wordpool_categorized_EN.txt	PIE	Desserts	10	1	[0, 0, 0]	n/a	catFR1	0	R1074M
524.463	2.55	293087	WORD	n/a	wordpools/wordpool_categorized_EN.txt	BATHROOM	Building	11	1	[0, 0, 0]	n/a	catFR1	0	R1074M
527.013	1.618	294362	WORD	n/a	wordpools/wordpool_categorized_EN.txt	ROOM	Building	12	1	[0, 0, 0]	n/a	catFR1	0	R1074M
528.631	0.001	295171	DISTRACT_START	n/a	n/a	n/a	n/a	-999	1	[0, 0, 0]	n/a	catFR1	0	R1074M
528.632	0.015	295171	START	n/a	n/a	n/a	n/a	-999	1	[-999, -999, -999]	n/a	catFR1	0	R1074M
528.647	10.169	295179	PROB	10.144	n/a	n/a	n/a	-999	1	[6, 1, 7]	14.0	catFR1	0	R1074M
538.816	6.367	300263	PROB	6.334	n/a	n/a	n/a	-999	1	[5, 7, 1]	13.0	catFR1	0	R1074M
545.183	9.624	303446	PROB	9.624	n/a	n/a	n/a	-999	1	[5, 3, 4]	12.0	catFR1	0	R1074M
554.807	0.012	308258	STOP	n/a	n/a	n/a	n/a	-999	1	[-999, -999, -999]	n/a	catFR1	0	R1074M
554.819	1.106	308264	DISTRACT_END	n/a	n/a	n/a	n/a	-999	1	[0, 0, 0]	n/a	catFR1	0	R1074M
555.925	4.366	308817	REC_START	n/a	n/a	n/a	n/a	-999	1	[0, 0, 0]	n/a	catFR1	0	R1074M
560.291	0.626	311000	REC_WORD	4.366	n/a	PLANKTON	OceanAnimals	1	1	[0, 0, 0]	n/a	catFR1	0	R1074M
560.917	0.729	311313	REC_WORD	4.992	n/a	BATHROOM	Building	11	1	[0, 0, 0]	n/a	catFR1	0	R1074M
561.646	4.645	311677	REC_WORD	5.721	n/a	PIE	Desserts	10	1	[0, 0, 0]	n/a	catFR1	0	R1074M
566.291	4.58	313999	REC_WORD	10.366	n/a	FUDGE	Desserts	9	1	[0, 0, 0]	n/a	catFR1	0	R1074M
570.871	12.055	316289	REC_WORD	14.946	n/a	COBBLER	Desserts	5	1	[0, 0, 0]	n/a	catFR1	0	R1074M
582.926	3.005	322317	REC_WORD	27.001	n/a	SQUID	OceanAnimals	8	1	[0, 0, 0]	n/a	catFR1	0	R1074M
585.931	8.211	323819	REC_END	n/a	n/a	n/a	n/a	-999	1	[0, 0, 0]	n/a	catFR1	0	R1074M
594.142	0.0	327924	COUNTDOWN_START	n/a	n/a	n/a	n/a	-999	2	[0, 0, 0]	n/a	catFR1	0	R1074M
594.142	10.428	327924	TRIAL	n/a	n/a	n/a	n/a	-999	2	[0, 0, 0]	n/a	catFR1	0	R1074M
604.57	0.009	333138	COUNTDOWN_END	n/a	n/a	n/a	n/a	-999	2	[0, 0, 0]	n/a	catFR1	0	R1074M
604.579	3.499	333142	ORIENT	n/a	n/a	n/a	n/a	-999	2	[0, 0, 0]	n/a	catFR1	0	R1074M
608.078	2.485	334892	WORD	n/a	wordpools/wordpool_categorized_EN.txt	COOKIE	Desserts	1	2	[0, 0, 0]	n/a	catFR1	0	R1074M
610.563	2.45	336134	WORD	n/a	wordpools/wordpool_categorized_EN.txt	BROWNIES	Desserts	2	2	[0, 0, 0]	n/a	catFR1	0	R1074M
613.013	2.418	337359	WORD	n/a	wordpools/wordpool_categorized_EN.txt	ISLAND	Landscapes	3	2	[0, 0, 0]	n/a	catFR1	0	R1074M
615.431	2.45	338568	WORD	n/a	wordpools/wordpool_categorized_EN.txt	RIVER	Landscapes	4	2	[0, 0, 0]	n/a	catFR1	0	R1074M
617.881	2.416	339793	WORD	n/a	wordpools/wordpool_categorized_EN.txt	TONGS	KitchenTools	5	2	[0, 0, 0]	n/a	catFR1	0	R1074M
620.297	2.552	341001	WORD	n/a	wordpools/wordpool_categorized_EN.txt	CORKSCREW	KitchenTools	6	2	[0, 0, 0]	n/a	catFR1	0	R1074M
622.849	2.517	342277	WORD	n/a	wordpools/wordpool_categorized_EN.txt	CAKE	Desserts	7	2	[0, 0, 0]	n/a	catFR1	0	R1074M
625.366	2.4	343535	WORD	n/a	wordpools/wordpool_categorized_EN.txt	PUDDING	Desserts	8	2	[0, 0, 0]	n/a	catFR1	0	R1074M
627.766	2.584	344735	WORD	n/a	wordpools/wordpool_categorized_EN.txt	KNIFE	KitchenTools	9	2	[0, 0, 0]	n/a	catFR1	0	R1074M
630.35	2.384	346027	WORD	n/a	wordpools/wordpool_categorized_EN.txt	STRAINER	KitchenTools	10	2	[0, 0, 0]	n/a	catFR1	0	R1074M
632.734	2.433	347219	WORD	n/a	wordpools/wordpool_categorized_EN.txt	MOUNTAIN	Landscapes	11	2	[0, 0, 0]	n/a	catFR1	0	R1074M
635.167	1.601	348436	WORD	n/a	wordpools/wordpool_categorized_EN.txt	BEACH	Landscapes	12	2	[0, 0, 0]	n/a	catFR1	0	R1074M
636.768	0.001	349236	DISTRACT_START	n/a	n/a	n/a	n/a	-999	2	[0, 0, 0]	n/a	catFR1	0	R1074M
636.769	0.016	349236	START	n/a	n/a	n/a	n/a	-999	2	[-999, -999, -999]	n/a	catFR1	0	R1074M
636.785	5.317	349244	PROB	5.285	n/a	n/a	n/a	-999	2	[7, 1, 3]	10.0	catFR1	0	R1074M
642.102	19.489	351903	PROB	19.489	n/a	n/a	n/a	-999	2	[3, 9, 6]	18.0	catFR1	0	R1074M
661.591	0.015	361647	STOP	n/a	n/a	n/a	n/a	-999	2	[-999, -999, -999]	n/a	catFR1	0	R1074M
661.606	1.234	361654	DISTRACT_END	n/a	n/a	n/a	n/a	-999	2	[0, 0, 0]	n/a	catFR1	0	R1074M
662.84	20.984	362271	REC_START	n/a	n/a	n/a	n/a	-999	2	[0, 0, 0]	n/a	catFR1	0	R1074M
683.824	9.031	372763	REC_WORD	20.984	n/a	COOKIE	Desserts	1	2	[0, 0, 0]	n/a	catFR1	0	R1074M
692.855	5.125	377278	REC_END	n/a	n/a	n/a	n/a	-999	2	[0, 0, 0]	n/a	catFR1	0	R1074M
697.98	0.0	379840	TRIAL	n/a	n/a	n/a	n/a	-999	3	[0, 0, 0]	n/a	catFR1	0	R1074M
697.98	10.428	379840	COUNTDOWN_START	n/a	n/a	n/a	n/a	-999	3	[0, 0, 0]	n/a	catFR1	0	R1074M
708.408	0.007	385054	COUNTDOWN_END	n/a	n/a	n/a	n/a	-999	3	[0, 0, 0]	n/a	catFR1	0	R1074M
708.415	3.65	385057	ORIENT	n/a	n/a	n/a	n/a	-999	3	[0, 0, 0]	n/a	catFR1	0	R1074M
712.065	2.568	386882	WORD	n/a	wordpools/wordpool_categorized_EN.txt	SPIDER	Insects	1	3	[0, 0, 0]	n/a	catFR1	0	R1074M
714.633	2.533	388166	WORD	n/a	wordpools/wordpool_categorized_EN.txt	CRICKET	Insects	2	3	[0, 0, 0]	n/a	catFR1	0	R1074M
717.166	2.535	389433	WORD	n/a	wordpools/wordpool_categorized_EN.txt	DESK	Furniture	3	3	[0, 0, 0]	n/a	catFR1	0	R1074M
719.701	2.433	390700	WORD	n/a	wordpools/wordpool_categorized_EN.txt	SOFA	Furniture	4	3	[0, 0, 0]	n/a	catFR1	0	R1074M
722.134	2.434	391917	WORD	n/a	wordpools/wordpool_categorized_EN.txt	GRAPE	Fruit	5	3	[0, 0, 0]	n/a	catFR1	0	R1074M
724.568	2.401	393133	WORD	n/a	wordpools/wordpool_categorized_EN.txt	PEAR	Fruit	6	3	[0, 0, 0]	n/a	catFR1	0	R1074M
726.969	2.517	394334	WORD	n/a	wordpools/wordpool_categorized_EN.txt	NIGHTSTAND	Furniture	7	3	[0, 0, 0]	n/a	catFR1	0	R1074M
729.486	2.467	395592	WORD	n/a	wordpools/wordpool_categorized_EN.txt	DRESSER	Furniture	8	3	[0, 0, 0]	n/a	catFR1	0	R1074M
731.953	2.551	396826	WORD	n/a	wordpools/wordpool_categorized_EN.txt	MOSQUITO	Insects	9	3	[0, 0, 0]	n/a	catFR1	0	R1074M
734.504	2.599	398101	WORD	n/a	wordpools/wordpool_categorized_EN.txt	LADYBUG	Insects	10	3	[0, 0, 0]	n/a	catFR1	0	R1074M
737.103	2.452	399401	WORD	n/a	wordpools/wordpool_categorized_EN.txt	ORANGE	Fruit	11	3	[0, 0, 0]	n/a	catFR1	0	R1074M
739.555	1.616	400627	WORD	n/a	wordpools/wordpool_categorized_EN.txt	STRAWBERRY	Fruit	12	3	[0, 0, 0]	n/a	catFR1	0	R1074M
741.171	0.001	401435	DISTRACT_START	n/a	n/a	n/a	n/a	-999	3	[0, 0, 0]	n/a	catFR1	0	R1074M
741.172	0.015	401435	START	n/a	n/a	n/a	n/a	-999	3	[-999, -999, -999]	n/a	catFR1	0	R1074M
741.187	4.752	401443	PROB	4.732	n/a	n/a	n/a	-999	3	[7, 2, 7]	16.0	catFR1	0	R1074M
745.939	7.301	403818	PROB	7.267	n/a	n/a	n/a	-999	3	[7, 4, 4]	15.0	catFR1	0	R1074M
753.24	13.519	407469	PROB	13.519	n/a	n/a	n/a	-999	3	[9, 7, 5]	2.0	catFR1	0	R1074M
766.759	0.018	414228	STOP	n/a	n/a	n/a	n/a	-999	3	[-999, -999, -999]	n/a	catFR1	0	R1074M
766.777	1.034	414237	DISTRACT_END	n/a	n/a	n/a	n/a	-999	3	[0, 0, 0]	n/a	catFR1	0	R1074M
767.811	3.395	414754	REC_START	n/a	n/a	n/a	n/a	-999	3	[0, 0, 0]	n/a	catFR1	0	R1074M
771.206	0.757	416451	REC_WORD	3.395	n/a	STRAWBERRY	Fruit	12	3	[0, 0, 0]	n/a	catFR1	0	R1074M
771.963	25.858	416830	REC_WORD	4.152	n/a	ORANGE	Fruit	11	3	[0, 0, 0]	n/a	catFR1	0	R1074M
797.821	2.612	429758	REC_END	n/a	n/a	n/a	n/a	-999	3	[0, 0, 0]	n/a	catFR1	0	R1074M
800.433	0.0	431064	TRIAL	n/a	n/a	n/a	n/a	-999	4	[0, 0, 0]	n/a	catFR1	0	R1074M
800.433	10.428	431064	COUNTDOWN_START	n/a	n/a	n/a	n/a	-999	4	[0, 0, 0]	n/a	catFR1	0	R1074M
810.861	0.007	436278	COUNTDOWN_END	n/a	n/a	n/a	n/a	-999	4	[0, 0, 0]	n/a	catFR1	0	R1074M
810.868	3.668	436281	ORIENT	n/a	n/a	n/a	n/a	-999	4	[0, 0, 0]	n/a	catFR1	0	R1074M
814.536	2.549	438115	WORD	n/a	wordpools/wordpool_categorized_EN.txt	CHERRY	Fruit	1	4	[0, 0, 0]	n/a	catFR1	0	R1074M
817.085	2.452	439389	WORD	n/a	wordpools/wordpool_categorized_EN.txt	PLUM	Fruit	2	4	[0, 0, 0]	n/a	catFR1	0	R1074M
819.537	2.499	440615	WORD	n/a	wordpools/wordpool_categorized_EN.txt	CARNATION	Flowers	3	4	[0, 0, 0]	n/a	catFR1	0	R1074M
822.036	2.468	441865	WORD	n/a	wordpools/wordpool_categorized_EN.txt	VIOLET	Flowers	4	4	[0, 0, 0]	n/a	catFR1	0	R1074M
824.504	2.567	443099	WORD	n/a	wordpools/wordpool_categorized_EN.txt	CELLO	Instruments	5	4	[0, 0, 0]	n/a	catFR1	0	R1074M
827.071	2.484	444382	WORD	n/a	wordpools/wordpool_categorized_EN.txt	DRUM	Instruments	6	4	[0, 0, 0]	n/a	catFR1	0	R1074M
829.555	2.583	445624	WORD	n/a	wordpools/wordpool_categorized_EN.txt	DAFFODIL	Flowers	7	4	[0, 0, 0]	n/a	catFR1	0	R1074M
832.138	2.552	446915	WORD	n/a	wordpools/wordpool_categorized_EN.txt	DAISY	Flowers	8	4	[0, 0, 0]	n/a	catFR1	0	R1074M
834.69	2.499	448191	WORD	n/a	wordpools/wordpool_categorized_EN.txt	LIME	Fruit	9	4	[0, 0, 0]	n/a	catFR1	0	R1074M
837.189	2.418	449441	WORD	n/a	wordpools/wordpool_categorized_EN.txt	LEMON	Fruit	10	4	[0, 0, 0]	n/a	catFR1	0	R1074M
839.607	2.566	450650	WORD	n/a	wordpools/wordpool_categorized_EN.txt	GUITAR	Instruments	11	4	[0, 0, 0]	n/a	catFR1	0	R1074M
842.173	1.602	451933	WORD	n/a	wordpools/wordpool_categorized_EN.txt	TRUMPET	Instruments	12	4	[0, 0, 0]	n/a	catFR1	0	R1074M
843.775	0.0	452734	DISTRACT_START	n/a	n/a	n/a	n/a	-999	4	[0, 0, 0]	n/a	catFR1	0	R1074M
843.775	0.016	452734	START	n/a	n/a	n/a	n/a	-999	4	[-999, -999, -999]	n/a	catFR1	0	R1074M
843.791	5.202	452742	PROB	5.176	n/a	n/a	n/a	-999	4	[8, 8, 1]	17.0	catFR1	0	R1074M
848.993	20.044	455342	PROB	20.044	n/a	n/a	n/a	-999	4	[8, 3, 3]	14.0	catFR1	0	R1074M
869.037	0.008	465364	STOP	n/a	n/a	n/a	n/a	-999	4	[-999, -999, -999]	n/a	catFR1	0	R1074M
869.045	1.052	465368	DISTRACT_END	n/a	n/a	n/a	n/a	-999	4	[0, 0, 0]	n/a	catFR1	0	R1074M
870.097	8.835	465894	REC_START	n/a	n/a	n/a	n/a	-999	4	[0, 0, 0]	n/a	catFR1	0	R1074M
878.932	21.175	470311	REC_WORD	8.835	n/a	TRUMPET	Instruments	12	4	[0, 0, 0]	n/a	catFR1	0	R1074M
900.107	2.863	480898	REC_END	n/a	n/a	n/a	n/a	-999	4	[0, 0, 0]	n/a	catFR1	0	R1074M
902.97	0.0	482329	TRIAL	n/a	n/a	n/a	n/a	-999	5	[0, 0, 0]	n/a	catFR1	0	R1074M
902.97	10.428	482329	COUNTDOWN_START	n/a	n/a	n/a	n/a	-999	5	[0, 0, 0]	n/a	catFR1	0	R1074M
913.398	0.007	487543	COUNTDOWN_END	n/a	n/a	n/a	n/a	-999	5	[0, 0, 0]	n/a	catFR1	0	R1074M
913.405	3.816	487547	ORIENT	n/a	n/a	n/a	n/a	-999	5	[0, 0, 0]	n/a	catFR1	0	R1074M
917.221	2.435	489455	WORD	n/a	wordpools/wordpool_categorized_EN.txt	TUBA	Instruments	1	5	[0, 0, 0]	n/a	catFR1	0	R1074M
919.656	2.566	490672	WORD	n/a	wordpools/wordpool_categorized_EN.txt	TROMBONE	Instruments	2	5	[0, 0, 0]	n/a	catFR1	0	R1074M
922.222	2.502	491955	WORD	n/a	wordpools/wordpool_categorized_EN.txt	CLOUD	Weather	3	5	[0, 0, 0]	n/a	catFR1	0	R1074M
924.724	2.466	493206	WORD	n/a	wordpools/wordpool_categorized_EN.txt	THUNDERSTORM	Weather	4	5	[0, 0, 0]	n/a	catFR1	0	R1074M
927.19	2.451	494439	WORD	n/a	wordpools/wordpool_categorized_EN.txt	PENCIL	OfficeSupplies	5	5	[0, 0, 0]	n/a	catFR1	0	R1074M
929.641	2.55	495664	WORD	n/a	wordpools/wordpool_categorized_EN.txt	TAPE	OfficeSupplies	6	5	[0, 0, 0]	n/a	catFR1	0	R1074M
932.191	2.585	496939	WORD	n/a	wordpools/wordpool_categorized_EN.txt	RAIN	Weather	7	5	[0, 0, 0]	n/a	catFR1	0	R1074M
934.776	2.516	498232	WORD	n/a	wordpools/wordpool_categorized_EN.txt	LIGHTNING	Weather	8	5	[0, 0, 0]	n/a	catFR1	0	R1074M
937.292	2.435	499489	WORD	n/a	wordpools/wordpool_categorized_EN.txt	VIOLIN	Instruments	9	5	[0, 0, 0]	n/a	catFR1	0	R1074M
939.727	2.599	500707	WORD	n/a	wordpools/wordpool_categorized_EN.txt	FLUTE	Instruments	10	5	[0, 0, 0]	n/a	catFR1	0	R1074M
942.326	2.535	502006	WORD	n/a	wordpools/wordpool_categorized_EN.txt	BINDER	OfficeSupplies	11	5	[0, 0, 0]	n/a	catFR1	0	R1074M
944.861	1.617	503274	WORD	n/a	wordpools/wordpool_categorized_EN.txt	PEN	OfficeSupplies	12	5	[0, 0, 0]	n/a	catFR1	0	R1074M
946.478	0.001	504082	DISTRACT_START	n/a	n/a	n/a	n/a	-999	5	[0, 0, 0]	n/a	catFR1	0	R1074M
946.479	0.016	504083	START	n/a	n/a	n/a	n/a	-999	5	[-999, -999, -999]	n/a	catFR1	0	R1074M
946.495	9.168	504091	PROB	9.136	n/a	n/a	n/a	-999	5	[6, 3, 7]	16.0	catFR1	0	R1074M
955.663	15.823	508674	PROB	15.823	n/a	n/a	n/a	-999	5	[5, 9, 3]	17.0	catFR1	0	R1074M
971.486	0.014	516585	STOP	n/a	n/a	n/a	n/a	-999	5	[-999, -999, -999]	n/a	catFR1	0	R1074M
971.5	1.167	516592	DISTRACT_END	n/a	n/a	n/a	n/a	-999	5	[0, 0, 0]	n/a	catFR1	0	R1074M
972.667	3.893	517176	REC_START	n/a	n/a	n/a	n/a	-999	5	[0, 0, 0]	n/a	catFR1	0	R1074M
976.56	0.556	519122	REC_WORD	3.893	n/a	TUBA	Instruments	1	5	[0, 0, 0]	n/a	catFR1	0	R1074M
977.116	2.821	519400	REC_WORD	4.449	n/a	VIOLIN	Instruments	9	5	[0, 0, 0]	n/a	catFR1	0	R1074M
979.937	18.303	520811	REC_WORD	7.27	n/a	TRUMPET	n/a	-999	5	[0, 0, 0]	n/a	catFR1	0	R1074M
998.24	4.438	529962	REC_WORD	25.573	n/a	TROMBONE	Instruments	2	5	[0, 0, 0]	n/a	catFR1	0	R1074M
1002.678	6.495	532181	REC_END	n/a	n/a	n/a	n/a	-999	5	[0, 0, 0]	n/a	catFR1	0	R1074M
1009.173	0.0	535428	TRIAL	n/a	n/a	n/a	n/a	-999	6	[0, 0, 0]	n/a	catFR1	0	R1074M
1009.173	10.428	535428	COUNTDOWN_START	n/a	n/a	n/a	n/a	-999	6	[0, 0, 0]	n/a	catFR1	0	R1074M
1019.601	0.008	540642	COUNTDOWN_END	n/a	n/a	n/a	n/a	-999	6	[0, 0, 0]	n/a	catFR1	0	R1074M
1019.609	3.751	540646	ORIENT	n/a	n/a	n/a	n/a	-999	6	[0, 0, 0]	n/a	catFR1	0	R1074M
1023.36	2.6	542521	WORD	n/a	wordpools/wordpool_categorized_EN.txt	CROWBAR	Tools	1	6	[0, 0, 0]	n/a	catFR1	0	R1074M
1025.96	2.584	543821	WORD	n/a	wordpools/wordpool_categorized_EN.txt	SHOVEL	Tools	2	6	[0, 0, 0]	n/a	catFR1	0	R1074M
1028.544	2.549	545113	WORD	n/a	wordpools/wordpool_categorized_EN.txt	MOUSSE	Desserts	3	6	[0, 0, 0]	n/a	catFR1	0	R1074M
1031.093	2.452	546387	WORD	n/a	wordpools/wordpool_categorized_EN.txt	CUPCAKE	Desserts	4	6	[0, 0, 0]	n/a	catFR1	0	R1074M
1033.545	2.483	547613	WORD	n/a	wordpools/wordpool_categorized_EN.txt	SHOES	Clothing	5	6	[0, 0, 0]	n/a	catFR1	0	R1074M
1036.028	2.384	548855	WORD	n/a	wordpools/wordpool_categorized_EN.txt	UNDERWEAR	Clothing	6	6	[0, 0, 0]	n/a	catFR1	0	R1074M
1038.412	2.484	550047	WORD	n/a	wordpools/wordpool_categorized_EN.txt	JELLO	Desserts	7	6	[0, 0, 0]	n/a	catFR1	0	R1074M
1040.896	2.434	551288	WORD	n/a	wordpools/wordpool_categorized_EN.txt	CHEESECAKE	Desserts	8	6	[0, 0, 0]	n/a	catFR1	0	R1074M
1043.33	2.384	552505	WORD	n/a	wordpools/wordpool_categorized_EN.txt	DRILL	Tools	9	6	[0, 0, 0]	n/a	catFR1	0	R1074M
1045.714	2.617	553697	WORD	n/a	wordpools/wordpool_categorized_EN.txt	RATCHET	Tools	10	6	[0, 0, 0]	n/a	catFR1	0	R1074M
1048.331	2.551	555006	WORD	n/a	wordpools/wordpool_categorized_EN.txt	DRESS	Clothing	11	6	[0, 0, 0]	n/a	catFR1	0	R1074M
1050.882	1.616	556281	WORD	n/a	wordpools/wordpool_categorized_EN.txt	SHIRT	Clothing	12	6	[0, 0, 0]	n/a	catFR1	0	R1074M
1052.498	0.001	557089	DISTRACT_START	n/a	n/a	n/a	n/a	-999	6	[0, 0, 0]	n/a	catFR1	0	R1074M
1052.499	0.016	557090	START	n/a	n/a	n/a	n/a	-999	6	[-999, -999, -999]	n/a	catFR1	0	R1074M
1052.515	5.318	557098	PROB	5.284	n/a	n/a	n/a	-999	6	[8, 8, 1]	17.0	catFR1	0	R1074M
1057.833	5.051	559757	PROB	5.022	n/a	n/a	n/a	-999	6	[4, 6, 2]	12.0	catFR1	0	R1074M
1062.884	7.518	562282	PROB	7.491	n/a	n/a	n/a	-999	6	[5, 3, 7]	15.0	catFR1	0	R1074M
1070.402	4.764	566041	PROB	4.764	n/a	n/a	n/a	-999	6	[4, 8, 1]	13.0	catFR1	0	R1074M
1075.166	0.019	568423	STOP	n/a	n/a	n/a	n/a	-999	6	[-999, -999, -999]	n/a	catFR1	0	R1074M
1075.185	1.118	568432	DISTRACT_END	n/a	n/a	n/a	n/a	-999	6	[0, 0, 0]	n/a	catFR1	0	R1074M
1076.303	1.795	568991	REC_START	n/a	n/a	n/a	n/a	-999	6	[0, 0, 0]	n/a	catFR1	0	R1074M
1078.098	0.616	569888	REC_WORD	1.795	n/a	UNDERWEAR	Clothing	6	6	[0, 0, 0]	n/a	catFR1	0	R1074M
1078.714	7.488	570196	REC_WORD	2.411	n/a	RATCHET	Tools	10	6	[0, 0, 0]	n/a	catFR1	0	R1074M
1086.202	4.318	573940	REC_WORD	9.899	n/a	CROWBAR	Tools	1	6	[0, 0, 0]	n/a	catFR1	0	R1074M
1090.52	10.283	576099	REC_WORD	14.217	n/a	MOUSE	n/a	-999	6	[0, 0, 0]	n/a	catFR1	0	R1074M
1100.803	5.509	581240	REC_WORD	24.5	n/a	DRILL	Tools	9	6	[0, 0, 0]	n/a	catFR1	0	R1074M
1106.312	3.98	583995	REC_END	n/a	n/a	n/a	n/a	-999	6	[0, 0, 0]	n/a	catFR1	0	R1074M
1110.292	0.0	585985	TRIAL	n/a	n/a	n/a	n/a	-999	7	[0, 0, 0]	n/a	catFR1	0	R1074M
1110.292	10.428	585985	COUNTDOWN_START	n/a	n/a	n/a	n/a	-999	7	[0, 0, 0]	n/a	catFR1	0	R1074M
1120.72	0.008	591198	COUNTDOWN_END	n/a	n/a	n/a	n/a	-999	7	[0, 0, 0]	n/a	catFR1	0	R1074M
1120.728	3.55	591202	ORIENT	n/a	n/a	n/a	n/a	-999	7	[0, 0, 0]	n/a	catFR1	0	R1074M
1124.278	2.568	592977	WORD	n/a	wordpools/wordpool_categorized_EN.txt	CROW	Birds	1	7	[0, 0, 0]	n/a	catFR1	0	R1074M
1126.846	2.433	594261	WORD	n/a	wordpools/wordpool_categorized_EN.txt	HAWK	Birds	2	7	[0, 0, 0]	n/a	catFR1	0	R1074M
1129.279	2.468	595477	WORD	n/a	wordpools/wordpool_categorized_EN.txt	MARKER	OfficeSupplies	3	7	[0, 0, 0]	n/a	catFR1	0	R1074M
1131.747	2.584	596711	WORD	n/a	wordpools/wordpool_categorized_EN.txt	NOTEBOOK	OfficeSupplies	4	7	[0, 0, 0]	n/a	catFR1	0	R1074M
1134.331	2.534	598003	WORD	n/a	wordpools/wordpool_categorized_EN.txt	WHALE	OceanAnimals	5	7	[0, 0, 0]	n/a	catFR1	0	R1074M
1136.865	2.467	599270	WORD	n/a	wordpools/wordpool_categorized_EN.txt	TURTLE	OceanAnimals	6	7	[0, 0, 0]	n/a	catFR1	0	R1074M
1139.332	2.4	600504	WORD	n/a	wordpools/wordpool_categorized_EN.txt	FINCH	Birds	7	7	[0, 0, 0]	n/a	catFR1	0	R1074M
1141.732	2.417	601704	WORD	n/a	wordpools/wordpool_categorized_EN.txt	CARDINAL	Birds	8	7	[0, 0, 0]	n/a	catFR1	0	R1074M
1144.149	2.484	602912	WORD	n/a	wordpools/wordpool_categorized_EN.txt	SHRIMP	OceanAnimals	9	7	[0, 0, 0]	n/a	catFR1	0	R1074M
1146.633	2.617	604154	WORD	n/a	wordpools/wordpool_categorized_EN.txt	OCTOPUS	OceanAnimals	10	7	[0, 0, 0]	n/a	catFR1	0	R1074M
1149.25	2.634	605462	WORD	n/a	wordpools/wordpool_categorized_EN.txt	ERASER	OfficeSupplies	11	7	[0, 0, 0]	n/a	catFR1	0	R1074M
1151.884	1.617	606779	WORD	n/a	wordpools/wordpool_categorized_EN.txt	GLUE	OfficeSupplies	12	7	[0, 0, 0]	n/a	catFR1	0	R1074M
1153.501	0.001	607588	DISTRACT_START	n/a	n/a	n/a	n/a	-999	7	[0, 0, 0]	n/a	catFR1	0	R1074M
1153.502	0.016	607588	START	n/a	n/a	n/a	n/a	-999	7	[-999, -999, -999]	n/a	catFR1	0	R1074M
1153.518	8.218	607596	PROB	8.193	n/a	n/a	n/a	-999	7	[4, 7, 4]	15.0	catFR1	0	R1074M
1161.736	7.384	611705	PROB	7.358	n/a	n/a	n/a	-999	7	[9, 1, 7]	17.0	catFR1	0	R1074M
1169.12	7.91	615397	PROB	7.91	n/a	n/a	n/a	-999	7	[3, 5, 7]	15.0	catFR1	0	R1074M
1177.03	0.008	619352	STOP	n/a	n/a	n/a	n/a	-999	7	[-999, -999, -999]	n/a	catFR1	0	R1074M
1177.038	1.151	619356	DISTRACT_END	n/a	n/a	n/a	n/a	-999	7	[0, 0, 0]	n/a	catFR1	0	R1074M
1178.189	3.879	619931	REC_START	n/a	n/a	n/a	n/a	-999	7	[0, 0, 0]	n/a	catFR1	0	R1074M
1182.068	0.968	621870	REC_WORD	3.879	n/a	SHRIMP	OceanAnimals	9	7	[0, 0, 0]	n/a	catFR1	0	R1074M
1183.036	1.827	622354	REC_WORD	4.847	n/a	NOTEBOOK	OfficeSupplies	4	7	[0, 0, 0]	n/a	catFR1	0	R1074M
1184.863	1.803	623268	REC_WORD	6.674	n/a	ERASER	OfficeSupplies	11	7	[0, 0, 0]	n/a	catFR1	0	R1074M
1186.666	14.608	624169	REC_WORD	8.477	n/a	FINCH	Birds	7	7	[0, 0, 0]	n/a	catFR1	0	R1074M
1201.274	6.925	631473	REC_WORD	23.085	n/a	HAWK	Birds	2	7	[0, 0, 0]	n/a	catFR1	0	R1074M
1208.199	7.181	634935	REC_END	n/a	n/a	n/a	n/a	-999	7	[0, 0, 0]	n/a	catFR1	0	R1074M
1215.38	0.0	638526	TRIAL	n/a	n/a	n/a	n/a	-999	8	[0, 0, 0]	n/a	catFR1	0	R1074M
1215.38	10.428	638526	COUNTDOWN_START	n/a	n/a	n/a	n/a	-999	8	[0, 0, 0]	n/a	catFR1	0	R1074M
1225.808	0.007	643739	COUNTDOWN_END	n/a	n/a	n/a	n/a	-999	8	[0, 0, 0]	n/a	catFR1	0	R1074M
1225.815	3.601	643743	ORIENT	n/a	n/a	n/a	n/a	-999	8	[0, 0, 0]	n/a	catFR1	0	R1074M
1229.416	2.4	645543	WORD	n/a	wordpools/wordpool_categorized_EN.txt	SHORTS	Clothing	1	8	[0, 0, 0]	n/a	catFR1	0	R1074M
1231.816	2.601	646743	WORD	n/a	wordpools/wordpool_categorized_EN.txt	JACKET	Clothing	2	8	[0, 0, 0]	n/a	catFR1	0	R1074M
1234.417	2.517	648043	WORD	n/a	wordpools/wordpool_categorized_EN.txt	SPATULA	KitchenTools	3	8	[0, 0, 0]	n/a	catFR1	0	R1074M
1236.934	2.484	649302	WORD	n/a	wordpools/wordpool_categorized_EN.txt	WHISK	KitchenTools	4	8	[0, 0, 0]	n/a	catFR1	0	R1074M
1239.418	2.5	650544	WORD	n/a	wordpools/wordpool_categorized_EN.txt	SHEEP	FarmAnimals	5	8	[0, 0, 0]	n/a	catFR1	0	R1074M
1241.918	2.434	651794	WORD	n/a	wordpools/wordpool_categorized_EN.txt	LAMB	FarmAnimals	6	8	[0, 0, 0]	n/a	catFR1	0	R1074M
1244.352	2.434	653011	WORD	n/a	wordpools/wordpool_categorized_EN.txt	SPOON	KitchenTools	7	8	[0, 0, 0]	n/a	catFR1	0	R1074M
1246.786	2.601	654228	WORD	n/a	wordpools/wordpool_categorized_EN.txt	COLANDER	KitchenTools	8	8	[0, 0, 0]	n/a	catFR1	0	R1074M
1249.387	2.583	655528	WORD	n/a	wordpools/wordpool_categorized_EN.txt	SOCKS	Clothing	9	8	[0, 0, 0]	n/a	catFR1	0	R1074M
1251.97	2.484	656819	WORD	n/a	wordpools/wordpool_categorized_EN.txt	BLOUSE	Clothing	10	8	[0, 0, 0]	n/a	catFR1	0	R1074M
1254.454	2.517	658061	WORD	n/a	wordpools/wordpool_categorized_EN.txt	PIG	FarmAnimals	11	8	[0, 0, 0]	n/a	catFR1	0	R1074M
1256.971	1.617	659320	WORD	n/a	wordpools/wordpool_categorized_EN.txt	COW	FarmAnimals	12	8	[0, 0, 0]	n/a	catFR1	0	R1074M
1258.588	0.001	660128	DISTRACT_START	n/a	n/a	n/a	n/a	-999	8	[0, 0, 0]	n/a	catFR1	0	R1074M
1258.589	0.016	660129	START	n/a	n/a	n/a	n/a	-999	8	[-999, -999, -999]	n/a	catFR1	0	R1074M
1258.605	6.118	660137	PROB	6.098	n/a	n/a	n/a	-999	8	[1, 6, 3]	10.0	catFR1	0	R1074M
1264.723	4.734	663196	PROB	4.7	n/a	n/a	n/a	-999	8	[2, 8, 2]	12.0	catFR1	0	R1074M
1269.457	3.234	665562	PROB	3.198	n/a	n/a	n/a	-999	8	[1, 2, 1]	4.0	catFR1	0	R1074M
1272.691	5.433	667179	PROB	5.403	n/a	n/a	n/a	-999	8	[3, 2, 4]	9.0	catFR1	0	R1074M
1278.124	4.763	669896	PROB	4.763	n/a	n/a	n/a	-999	8	[4, 2, 2]	8.0	catFR1	0	R1074M
1282.887	0.006	672277	STOP	n/a	n/a	n/a	n/a	-999	8	[-999, -999, -999]	n/a	catFR1	0	R1074M
1282.893	1.133	672280	DISTRACT_END	n/a	n/a	n/a	n/a	-999	8	[0, 0, 0]	n/a	catFR1	0	R1074M
1284.026	2.184	672847	REC_START	n/a	n/a	n/a	n/a	-999	8	[0, 0, 0]	n/a	catFR1	0	R1074M
1286.21	0.763	673939	REC_WORD	2.184	n/a	BLOUSE	Clothing	10	8	[0, 0, 0]	n/a	catFR1	0	R1074M
1286.973	7.898	674320	REC_WORD	2.947	n/a	SHORTS	Clothing	1	8	[0, 0, 0]	n/a	catFR1	0	R1074M
1294.871	19.169	678269	REC_WORD	10.845	n/a	SPOON	KitchenTools	7	8	[0, 0, 0]	n/a	catFR1	0	R1074M
1314.04	31.415	687853	REC_END	n/a	n/a	n/a	n/a	-999	8	[0, 0, 0]	n/a	catFR1	0	R1074M
1345.455	0.0	703559	TRIAL	n/a	n/a	n/a	n/a	-999	9	[0, 0, 0]	n/a	catFR1	0	R1074M
1345.455	10.428	703559	COUNTDOWN_START	n/a	n/a	n/a	n/a	-999	9	[0, 0, 0]	n/a	catFR1	0	R1074M
1355.883	0.008	708773	COUNTDOWN_END	n/a	n/a	n/a	n/a	-999	9	[0, 0, 0]	n/a	catFR1	0	R1074M
1355.891	3.617	708777	ORIENT	n/a	n/a	n/a	n/a	-999	9	[0, 0, 0]	n/a	catFR1	0	R1074M
1359.508	2.616	710585	WORD	n/a	wordpools/wordpool_categorized_EN.txt	LADLE	KitchenTools	1	9	[0, 0, 0]	n/a	catFR1	0	R1074M
1362.124	2.435	711893	WORD	n/a	wordpools/wordpool_categorized_EN.txt	GRATER	KitchenTools	2	9	[0, 0, 0]	n/a	catFR1	0	R1074M
1364.559	2.449	713111	WORD	n/a	wordpools/wordpool_categorized_EN.txt	BEAR	Zoo	3	9	[0, 0, 0]	n/a	catFR1	0	R1074M
1367.008	2.368	714335	WORD	n/a	wordpools/wordpool_categorized_EN.txt	ELEPHANT	Zoo	4	9	[0, 0, 0]	n/a	catFR1	0	R1074M
1369.376	2.618	715519	WORD	n/a	wordpools/wordpool_categorized_EN.txt	TABLE	Furniture	5	9	[0, 0, 0]	n/a	catFR1	0	R1074M
1371.994	2.517	716828	WORD	n/a	wordpools/wordpool_categorized_EN.txt	CABINET	Furniture	6	9	[0, 0, 0]	n/a	catFR1	0	R1074M
1374.511	2.599	718087	WORD	n/a	wordpools/wordpool_categorized_EN.txt	PEELER	KitchenTools	7	9	[0, 0, 0]	n/a	catFR1	0	R1074M
1377.11	2.385	719386	WORD	n/a	wordpools/wordpool_categorized_EN.txt	FORK	KitchenTools	8	9	[0, 0, 0]	n/a	catFR1	0	R1074M
1379.495	2.484	720578	WORD	n/a	wordpools/wordpool_categorized_EN.txt	COUCH	Furniture	9	9	[0, 0, 0]	n/a	catFR1	0	R1074M
1381.979	2.484	721820	WORD	n/a	wordpools/wordpool_categorized_EN.txt	RECLINER	Furniture	10	9	[0, 0, 0]	n/a	catFR1	0	R1074M
1384.463	2.4	723062	WORD	n/a	wordpools/wordpool_categorized_EN.txt	CHEETAH	Zoo	11	9	[0, 0, 0]	n/a	catFR1	0	R1074M
1386.863	1.617	724262	WORD	n/a	wordpools/wordpool_categorized_EN.txt	CHIMPANZEE	Zoo	12	9	[0, 0, 0]	n/a	catFR1	0	R1074M
1388.48	0.001	725071	DISTRACT_START	n/a	n/a	n/a	n/a	-999	9	[0, 0, 0]	n/a	catFR1	0	R1074M
1388.481	0.016	725071	START	n/a	n/a	n/a	n/a	-999	9	[-999, -999, -999]	n/a	catFR1	0	R1074M
1388.497	4.017	725079	PROB	3.998	n/a	n/a	n/a	-999	9	[1, 1, 7]	9.0	catFR1	0	R1074M
1392.514	3.667	727087	PROB	3.636	n/a	n/a	n/a	-999	9	[6, 4, 1]	11.0	catFR1	0	R1074M
1396.181	5.602	728921	PROB	5.57	n/a	n/a	n/a	-999	9	[9, 6, 3]	18.0	catFR1	0	R1074M
1401.783	2.984	731722	PROB	2.952	n/a	n/a	n/a	-999	9	[1, 5, 1]	7.0	catFR1	0	R1074M
1404.767	7.08	733214	PROB	7.08	n/a	n/a	n/a	-999	9	[9, 7, 5]	20.0	catFR1	0	R1074M
1411.847	0.004	736753	STOP	n/a	n/a	n/a	n/a	-999	9	[-999, -999, -999]	n/a	catFR1	0	R1074M
1411.851	1.068	736755	DISTRACT_END	n/a	n/a	n/a	n/a	-999	9	[0, 0, 0]	n/a	catFR1	0	R1074M
1412.919	2.293	737289	REC_START	n/a	n/a	n/a	n/a	-999	9	[0, 0, 0]	n/a	catFR1	0	R1074M
1415.212	1.693	738436	REC_WORD	2.293	n/a	CHIMPANZEE	Zoo	12	9	[0, 0, 0]	n/a	catFR1	0	R1074M
1416.905	1.777	739282	REC_WORD	3.986	n/a	CATER	n/a	-999	9	[0, 0, 0]	n/a	catFR1	0	R1074M
1418.682	3.388	740171	REC_WORD	5.763	n/a	COUCH	Furniture	9	9	[0, 0, 0]	n/a	catFR1	0	R1074M
1422.07	5.762	741865	REC_WORD	9.151	n/a	ELEPHANT	Zoo	4	9	[0, 0, 0]	n/a	catFR1	0	R1074M
1427.832	5.834	744745	REC_WORD	14.913	n/a	TABLE	Furniture	5	9	[0, 0, 0]	n/a	catFR1	0	R1074M
1433.666	9.263	747662	REC_WORD	20.747	n/a	PEELER	KitchenTools	7	9	[0, 0, 0]	n/a	catFR1	0	R1074M
1442.929	5.596	752294	REC_END	n/a	n/a	n/a	n/a	-999	9	[0, 0, 0]	n/a	catFR1	0	R1074M
1448.525	0.0	755091	TRIAL	n/a	n/a	n/a	n/a	-999	10	[0, 0, 0]	n/a	catFR1	0	R1074M
1448.525	10.428	755091	COUNTDOWN_START	n/a	n/a	n/a	n/a	-999	10	[0, 0, 0]	n/a	catFR1	0	R1074M
1458.953	0.008	760305	COUNTDOWN_END	n/a	n/a	n/a	n/a	-999	10	[0, 0, 0]	n/a	catFR1	0	R1074M
1458.961	3.784	760309	ORIENT	n/a	n/a	n/a	n/a	-999	10	[0, 0, 0]	n/a	catFR1	0	R1074M
1462.745	2.432	762201	WORD	n/a	wordpools/wordpool_categorized_EN.txt	SEAGULL	Birds	1	10	[0, 0, 0]	n/a	catFR1	0	R1074M
1465.177	2.418	763417	WORD	n/a	wordpools/wordpool_categorized_EN.txt	PIGEON	Birds	2	10	[0, 0, 0]	n/a	catFR1	0	R1074M
1467.595	2.417	764626	WORD	n/a	wordpools/wordpool_categorized_EN.txt	BANJO	Instruments	3	10	[0, 0, 0]	n/a	catFR1	0	R1074M
1470.012	2.518	765834	WORD	n/a	wordpools/wordpool_categorized_EN.txt	PIANO	Instruments	4	10	[0, 0, 0]	n/a	catFR1	0	R1074M
1472.53	2.4	767093	WORD	n/a	wordpools/wordpool_categorized_EN.txt	CABBAGE	Vegetables	5	10	[0, 0, 0]	n/a	catFR1	0	R1074M
1474.93	2.451	768293	WORD	n/a	wordpools/wordpool_categorized_EN.txt	ONION	Vegetables	6	10	[0, 0, 0]	n/a	catFR1	0	R1074M
1477.381	2.567	769519	WORD	n/a	wordpools/wordpool_categorized_EN.txt	ORGAN	Instruments	7	10	[0, 0, 0]	n/a	catFR1	0	R1074M
1479.948	2.45	770802	WORD	n/a	wordpools/wordpool_categorized_EN.txt	BASS	Instruments	8	10	[0, 0, 0]	n/a	catFR1	0	R1074M
1482.398	2.567	772027	WORD	n/a	wordpools/wordpool_categorized_EN.txt	DUCK	Birds	9	10	[0, 0, 0]	n/a	catFR1	0	R1074M
1484.965	2.484	773310	WORD	n/a	wordpools/wordpool_categorized_EN.txt	ROBIN	Birds	10	10	[0, 0, 0]	n/a	catFR1	0	R1074M
1487.449	2.583	774552	WORD	n/a	wordpools/wordpool_categorized_EN.txt	CAULIFLOWER	Vegetables	11	10	[0, 0, 0]	n/a	catFR1	0	R1074M
1490.032	1.601	775844	WORD	n/a	wordpools/wordpool_categorized_EN.txt	CUCUMBER	Vegetables	12	10	[0, 0, 0]	n/a	catFR1	0	R1074M
1491.633	0.001	776644	DISTRACT_START	n/a	n/a	n/a	n/a	-999	10	[0, 0, 0]	n/a	catFR1	0	R1074M
1491.634	0.016	776645	START	n/a	n/a	n/a	n/a	-999	10	[-999, -999, -999]	n/a	catFR1	0	R1074M
1491.65	36.213	776653	PROB	36.213	n/a	n/a	n/a	-999	10	[8, 6, 6]	20.0	catFR1	0	R1074M
1527.863	0.011	794758	STOP	n/a	n/a	n/a	n/a	-999	10	[-999, -999, -999]	n/a	catFR1	0	R1074M
1527.874	1.216	794764	DISTRACT_END	n/a	n/a	n/a	n/a	-999	10	[0, 0, 0]	n/a	catFR1	0	R1074M
1529.09	4.633	795372	REC_START	n/a	n/a	n/a	n/a	-999	10	[0, 0, 0]	n/a	catFR1	0	R1074M
1533.723	1.101	797688	REC_WORD	4.633	n/a	CAULIFLOWER	Vegetables	11	10	[0, 0, 0]	n/a	catFR1	0	R1074M
1534.824	24.28	798238	REC_WORD	5.734	n/a	CUCUMBER	Vegetables	12	10	[0, 0, 0]	n/a	catFR1	0	R1074M
1559.104	5.61	810378	REC_END	n/a	n/a	n/a	n/a	-999	10	[0, 0, 0]	n/a	catFR1	0	R1074M
1564.714	0.0	813183	COUNTDOWN_START	n/a	n/a	n/a	n/a	-999	11	[0, 0, 0]	n/a	catFR1	0	R1074M
1564.714	10.428	813183	TRIAL	n/a	n/a	n/a	n/a	-999	11	[0, 0, 0]	n/a	catFR1	0	R1074M
1575.142	0.007	818396	COUNTDOWN_END	n/a	n/a	n/a	n/a	-999	11	[0, 0, 0]	n/a	catFR1	0	R1074M
1575.149	3.635	818400	ORIENT	n/a	n/a	n/a	n/a	-999	11	[0, 0, 0]	n/a	catFR1	0	R1074M
1578.784	2.55	820217	WORD	n/a	wordpools/wordpool_categorized_EN.txt	CIDER	Beverages	1	11	[0, 0, 0]	n/a	catFR1	0	R1074M
1581.334	2.434	821492	WORD	n/a	wordpools/wordpool_categorized_EN.txt	SODA	Beverages	2	11	[0, 0, 0]	n/a	catFR1	0	R1074M
1583.768	2.567	822709	WORD	n/a	wordpools/wordpool_categorized_EN.txt	PLIERS	Tools	3	11	[0, 0, 0]	n/a	catFR1	0	R1074M
1586.335	2.417	823992	WORD	n/a	wordpools/wordpool_categorized_EN.txt	HAMMER	Tools	4	11	[0, 0, 0]	n/a	catFR1	0	R1074M
1588.752	2.516	825201	WORD	n/a	wordpools/wordpool_categorized_EN.txt	EAR	BodyParts	5	11	[0, 0, 0]	n/a	catFR1	0	R1074M
1591.268	2.485	826459	WORD	n/a	wordpools/wordpool_categorized_EN.txt	FOOT	BodyParts	6	11	[0, 0, 0]	n/a	catFR1	0	R1074M
1593.753	2.601	827701	WORD	n/a	wordpools/wordpool_categorized_EN.txt	SAW	Tools	7	11	[0, 0, 0]	n/a	catFR1	0	R1074M
1596.354	2.433	829002	WORD	n/a	wordpools/wordpool_categorized_EN.txt	LEVEL	Tools	8	11	[0, 0, 0]	n/a	catFR1	0	R1074M
1598.787	2.5	830218	WORD	n/a	wordpools/wordpool_categorized_EN.txt	BEER	Beverages	9	11	[0, 0, 0]	n/a	catFR1	0	R1074M
1601.287	2.485	831468	WORD	n/a	wordpools/wordpool_categorized_EN.txt	TEA	Beverages	10	11	[0, 0, 0]	n/a	catFR1	0	R1074M
1603.772	2.516	832710	WORD	n/a	wordpools/wordpool_categorized_EN.txt	LEG	BodyParts	11	11	[0, 0, 0]	n/a	catFR1	0	R1074M
1606.288	1.601	833968	WORD	n/a	wordpools/wordpool_categorized_EN.txt	ELBOW	BodyParts	12	11	[0, 0, 0]	n/a	catFR1	0	R1074M
1607.889	0.001	834769	DISTRACT_START	n/a	n/a	n/a	n/a	-999	11	[0, 0, 0]	n/a	catFR1	0	R1074M
1607.89	0.016	834769	START	n/a	n/a	n/a	n/a	-999	11	[-999, -999, -999]	n/a	catFR1	0	R1074M
1607.906	5.4	834777	PROB	5.38	n/a	n/a	n/a	-999	11	[2, 5, 1]	8.0	catFR1	0	R1074M
1613.306	2.95	837477	PROB	2.924	n/a	n/a	n/a	-999	11	[3, 3, 1]	7.0	catFR1	0	R1074M
1616.256	7.019	838952	PROB	6.982	n/a	n/a	n/a	-999	11	[4, 4, 2]	10.0	catFR1	0	R1074M
1623.275	11.508	842461	PROB	11.508	n/a	n/a	n/a	-999	11	[8, 9, 4]	21.0	catFR1	0	R1074M
1634.783	0.011	848215	STOP	n/a	n/a	n/a	n/a	-999	11	[-999, -999, -999]	n/a	catFR1	0	R1074M
1634.794	1.068	848221	DISTRACT_END	n/a	n/a	n/a	n/a	-999	11	[0, 0, 0]	n/a	catFR1	0	R1074M
1635.862	1.04	848755	REC_START	n/a	n/a	n/a	n/a	-999	11	[0, 0, 0]	n/a	catFR1	0	R1074M
1636.902	0.394	849275	REC_WORD	1.04	n/a	BEER	Beverages	9	11	[0, 0, 0]	n/a	catFR1	0	R1074M
1637.296	7.974	849472	REC_WORD	1.434	n/a	CIDER	Beverages	1	11	[0, 0, 0]	n/a	catFR1	0	R1074M
1645.27	8.906	853458	REC_WORD	9.408	n/a	HAMMER	Tools	4	11	[0, 0, 0]	n/a	catFR1	0	R1074M
1654.176	3.152	857911	REC_WORD	18.314	n/a	TEA	Beverages	10	11	[0, 0, 0]	n/a	catFR1	0	R1074M
1657.328	2.954	859487	REC_WORD	21.466	n/a	EAR	BodyParts	5	11	[0, 0, 0]	n/a	catFR1	0	R1074M
1660.282	5.59	860964	REC_WORD	24.42	n/a	ELBOW	BodyParts	12	11	[0, 0, 0]	n/a	catFR1	0	R1074M
1665.872	10.647	863759	REC_END	n/a	n/a	n/a	n/a	-999	11	[0, 0, 0]	n/a	catFR1	0	R1074M
1676.519	0.0	869082	TRIAL	n/a	n/a	n/a	n/a	-999	12	[0, 0, 0]	n/a	catFR1	0	R1074M
1676.519	10.428	869082	COUNTDOWN_START	n/a	n/a	n/a	n/a	-999	12	[0, 0, 0]	n/a	catFR1	0	R1074M
1686.947	0.008	874296	COUNTDOWN_END	n/a	n/a	n/a	n/a	-999	12	[0, 0, 0]	n/a	catFR1	0	R1074M
1686.955	3.75	874300	ORIENT	n/a	n/a	n/a	n/a	-999	12	[0, 0, 0]	n/a	catFR1	0	R1074M
1690.705	2.416	876175	WORD	n/a	wordpools/wordpool_categorized_EN.txt	STEREO	Electronics	1	12	[0, 0, 0]	n/a	catFR1	0	R1074M
1693.121	2.385	877382	WORD	n/a	wordpools/wordpool_categorized_EN.txt	HEADPHONES	Electronics	2	12	[0, 0, 0]	n/a	catFR1	0	R1074M
1695.506	2.583	878575	WORD	n/a	wordpools/wordpool_categorized_EN.txt	POTATO	Vegetables	3	12	[0, 0, 0]	n/a	catFR1	0	R1074M
1698.089	2.618	879866	WORD	n/a	wordpools/wordpool_categorized_EN.txt	LETTUCE	Vegetables	4	12	[0, 0, 0]	n/a	catFR1	0	R1074M
1700.707	2.45	881175	WORD	n/a	wordpools/wordpool_categorized_EN.txt	ORANGUTAN	Zoo	5	12	[0, 0, 0]	n/a	catFR1	0	R1074M
1703.157	2.434	882400	WORD	n/a	wordpools/wordpool_categorized_EN.txt	LION	Zoo	6	12	[0, 0, 0]	n/a	catFR1	0	R1074M
1705.591	2.483	883617	WORD	n/a	wordpools/wordpool_categorized_EN.txt	MICROWAVE	Electronics	7	12	[0, 0, 0]	n/a	catFR1	0	R1074M
1708.074	2.385	884859	WORD	n/a	wordpools/wordpool_categorized_EN.txt	RADIO	Electronics	8	12	[0, 0, 0]	n/a	catFR1	0	R1074M
1710.459	2.501	886051	WORD	n/a	wordpools/wordpool_categorized_EN.txt	GIRAFFE	Zoo	9	12	[0, 0, 0]	n/a	catFR1	0	R1074M
1712.96	2.433	887301	WORD	n/a	wordpools/wordpool_categorized_EN.txt	MONKEY	Zoo	10	12	[0, 0, 0]	n/a	catFR1	0	R1074M
1715.393	2.384	888518	WORD	n/a	wordpools/wordpool_categorized_EN.txt	CELERY	Vegetables	11	12	[0, 0, 0]	n/a	catFR1	0	R1074M
1717.777	1.617	889710	WORD	n/a	wordpools/wordpool_categorized_EN.txt	CORN	Vegetables	12	12	[0, 0, 0]	n/a	catFR1	0	R1074M
1719.394	0.001	890518	DISTRACT_START	n/a	n/a	n/a	n/a	-999	12	[0, 0, 0]	n/a	catFR1	0	R1074M
1719.395	0.016	890519	START	n/a	n/a	n/a	n/a	-999	12	[-999, -999, -999]	n/a	catFR1	0	R1074M
1719.411	7.418	890527	PROB	7.396	n/a	n/a	n/a	-999	12	[7, 1, 2]	10.0	catFR1	0	R1074M
1726.829	4.101	894235	PROB	4.066	n/a	n/a	n/a	-999	12	[5, 4, 1]	10.0	catFR1	0	R1074M
1730.93	13.132	896286	PROB	13.132	n/a	n/a	n/a	-999	12	[5, 9, 5]	18.0	catFR1	0	R1074M
1744.062	0.019	902851	STOP	n/a	n/a	n/a	n/a	-999	12	[-999, -999, -999]	n/a	catFR1	0	R1074M
1744.081	1.051	902861	DISTRACT_END	n/a	n/a	n/a	n/a	-999	12	[0, 0, 0]	n/a	catFR1	0	R1074M
1745.132	2.03	903386	REC_START	n/a	n/a	n/a	n/a	-999	12	[0, 0, 0]	n/a	catFR1	0	R1074M
1747.162	0.942	904401	REC_WORD	2.03	n/a	ORANGUTAN	Zoo	5	12	[0, 0, 0]	n/a	catFR1	0	R1074M
1748.104	3.733	904872	REC_WORD	2.972	n/a	MONKEY	Zoo	10	12	[0, 0, 0]	n/a	catFR1	0	R1074M
1751.837	0.83	906739	REC_WORD	6.705	n/a	CELERY	Vegetables	11	12	[0, 0, 0]	n/a	catFR1	0	R1074M
1752.667	20.619	907154	REC_WORD	7.535	n/a	CORN	Vegetables	12	12	[0, 0, 0]	n/a	catFR1	0	R1074M
1773.286	1.856	917463	REC_WORD	28.154	n/a	GIRAFFE	Zoo	9	12	[0, 0, 0]	n/a	catFR1	0	R1074M
1775.142	20.899	918391	REC_END	n/a	n/a	n/a	n/a	-999	12	[0, 0, 0]	n/a	catFR1	0	R1074M
1796.041	0.001	928840	COUNTDOWN_START	n/a	n/a	n/a	n/a	-999	13	[0, 0, 0]	n/a	catFR1	0	R1074M
1796.042	10.427	928840	TRIAL	n/a	n/a	n/a	n/a	-999	13	[0, 0, 0]	n/a	catFR1	0	R1074M
1806.469	0.009	934053	COUNTDOWN_END	n/a	n/a	n/a	n/a	-999	13	[0, 0, 0]	n/a	catFR1	0	R1074M
1806.478	3.9	934058	ORIENT	n/a	n/a	n/a	n/a	-999	13	[0, 0, 0]	n/a	catFR1	0	R1074M
1810.378	2.451	936008	WORD	n/a	wordpools/wordpool_categorized_EN.txt	TIGER	Zoo	1	13	[0, 0, 0]	n/a	catFR1	0	R1074M
1812.829	2.584	937233	WORD	n/a	wordpools/wordpool_categorized_EN.txt	ZEBRA	Zoo	2	13	[0, 0, 0]	n/a	catFR1	0	R1074M
1815.413	2.517	938525	WORD	n/a	wordpools/wordpool_categorized_EN.txt	PEACH	Fruit	3	13	[0, 0, 0]	n/a	catFR1	0	R1074M
1817.93	2.584	939783	WORD	n/a	wordpools/wordpool_categorized_EN.txt	BANANA	Fruit	4	13	[0, 0, 0]	n/a	catFR1	0	R1074M
1820.514	2.384	941075	WORD	n/a	wordpools/wordpool_categorized_EN.txt	CREEK	Landscapes	5	13	[0, 0, 0]	n/a	catFR1	0	R1074M
1822.898	2.416	942267	WORD	n/a	wordpools/wordpool_categorized_EN.txt	FOREST	Landscapes	6	13	[0, 0, 0]	n/a	catFR1	0	R1074M
1825.314	2.468	943475	WORD	n/a	wordpools/wordpool_categorized_EN.txt	PANDA	Zoo	7	13	[0, 0, 0]	n/a	catFR1	0	R1074M
1827.782	2.383	944709	WORD	n/a	wordpools/wordpool_categorized_EN.txt	GORILLA	Zoo	8	13	[0, 0, 0]	n/a	catFR1	0	R1074M
1830.165	2.384	945901	WORD	n/a	wordpools/wordpool_categorized_EN.txt	WOODS	Landscapes	9	13	[0, 0, 0]	n/a	catFR1	0	R1074M
1832.549	2.467	947092	WORD	n/a	wordpools/wordpool_categorized_EN.txt	LAKE	Landscapes	10	13	[0, 0, 0]	n/a	catFR1	0	R1074M
1835.016	2.518	948326	WORD	n/a	wordpools/wordpool_categorized_EN.txt	BLUEBERRY	Fruit	11	13	[0, 0, 0]	n/a	catFR1	0	R1074M
1837.534	1.616	949585	WORD	n/a	wordpools/wordpool_categorized_EN.txt	APPLE	Fruit	12	13	[0, 0, 0]	n/a	catFR1	0	R1074M
1839.15	0.001	950393	DISTRACT_START	n/a	n/a	n/a	n/a	-999	13	[0, 0, 0]	n/a	catFR1	0	R1074M
1839.151	0.015	950393	START	n/a	n/a	n/a	n/a	-999	13	[-999, -999, -999]	n/a	catFR1	0	R1074M
1839.166	7.935	950401	PROB	7.912	n/a	n/a	n/a	-999	13	[4, 4, 4]	12.0	catFR1	0	R1074M
1847.101	4.535	954368	PROB	4.514	n/a	n/a	n/a	-999	13	[6, 1, 6]	13.0	catFR1	0	R1074M
1851.636	3.284	956635	PROB	3.251	n/a	n/a	n/a	-999	13	[5, 1, 1]	7.0	catFR1	0	R1074M
1854.92	5.711	958277	PROB	5.711	n/a	n/a	n/a	-999	13	[1, 6, 2]	9.0	catFR1	0	R1074M
1860.631	0.007	961133	STOP	n/a	n/a	n/a	n/a	-999	13	[-999, -999, -999]	n/a	catFR1	0	R1074M
1860.638	1.101	961136	DISTRACT_END	n/a	n/a	n/a	n/a	-999	13	[0, 0, 0]	n/a	catFR1	0	R1074M
1861.739	2.338	961687	REC_START	n/a	n/a	n/a	n/a	-999	13	[0, 0, 0]	n/a	catFR1	0	R1074M
1864.077	1.116	962856	REC_WORD	2.338	n/a	TIGER	Zoo	1	13	[0, 0, 0]	n/a	catFR1	0	R1074M
1865.193	16.343	963414	REC_WORD	3.454	n/a	BLUEBERRY	Fruit	11	13	[0, 0, 0]	n/a	catFR1	0	R1074M
1881.536	10.213	971585	REC_WORD	19.797	n/a	ZEBRA	Zoo	2	13	[0, 0, 0]	n/a	catFR1	0	R1074M
1891.749	10.446	976691	REC_END	n/a	n/a	n/a	n/a	-999	13	[0, 0, 0]	n/a	catFR1	0	R1074M
1902.195	0.001	981913	COUNTDOWN_START	n/a	n/a	n/a	n/a	-999	14	[0, 0, 0]	n/a	catFR1	0	R1074M
1902.196	10.427	981914	TRIAL	n/a	n/a	n/a	n/a	-999	14	[0, 0, 0]	n/a	catFR1	0	R1074M
1912.623	0.009	987127	COUNTDOWN_END	n/a	n/a	n/a	n/a	-999	14	[0, 0, 0]	n/a	catFR1	0	R1074M
1912.632	4.017	987132	ORIENT	n/a	n/a	n/a	n/a	-999	14	[0, 0, 0]	n/a	catFR1	0	R1074M
1916.649	2.383	989140	WORD	n/a	wordpools/wordpool_categorized_EN.txt	JEEP	Vehicles	1	14	[0, 0, 0]	n/a	catFR1	0	R1074M
1919.032	2.568	990332	WORD	n/a	wordpools/wordpool_categorized_EN.txt	TRUCK	Vehicles	2	14	[0, 0, 0]	n/a	catFR1	0	R1074M
1921.6	2.499	991615	WORD	n/a	wordpools/wordpool_categorized_EN.txt	CRAB	OceanAnimals	3	14	[0, 0, 0]	n/a	catFR1	0	R1074M
1924.099	2.502	992865	WORD	n/a	wordpools/wordpool_categorized_EN.txt	LOBSTER	OceanAnimals	4	14	[0, 0, 0]	n/a	catFR1	0	R1074M
1926.601	2.516	994116	WORD	n/a	wordpools/wordpool_categorized_EN.txt	DRIZZLE	Weather	5	14	[0, 0, 0]	n/a	catFR1	0	R1074M
1929.117	2.568	995374	WORD	n/a	wordpools/wordpool_categorized_EN.txt	WIND	Weather	6	14	[0, 0, 0]	n/a	catFR1	0	R1074M
1931.685	2.55	996658	WORD	n/a	wordpools/wordpool_categorized_EN.txt	JELLYFISH	OceanAnimals	7	14	[0, 0, 0]	n/a	catFR1	0	R1074M
1934.235	2.401	997933	WORD	n/a	wordpools/wordpool_categorized_EN.txt	DOLPHIN	OceanAnimals	8	14	[0, 0, 0]	n/a	catFR1	0	R1074M
1936.636	2.483	999133	WORD	n/a	wordpools/wordpool_categorized_EN.txt	MOTORCYCLE	Vehicles	9	14	[0, 0, 0]	n/a	catFR1	0	R1074M
1939.119	2.551	1000374	WORD	n/a	wordpools/wordpool_categorized_EN.txt	CAR	Vehicles	10	14	[0, 0, 0]	n/a	catFR1	0	R1074M
1941.67	2.616	1001650	WORD	n/a	wordpools/wordpool_categorized_EN.txt	HURRICANE	Weather	11	14	[0, 0, 0]	n/a	catFR1	0	R1074M
1944.286	1.602	1002958	WORD	n/a	wordpools/wordpool_categorized_EN.txt	HUMIDITY	Weather	12	14	[0, 0, 0]	n/a	catFR1	0	R1074M
1945.888	0.001	1003759	DISTRACT_START	n/a	n/a	n/a	n/a	-999	14	[0, 0, 0]	n/a	catFR1	0	R1074M
1945.889	0.016	1003759	START	n/a	n/a	n/a	n/a	-999	14	[-999, -999, -999]	n/a	catFR1	0	R1074M
1945.905	8.635	1003767	PROB	8.606	n/a	n/a	n/a	-999	14	[9, 5, 6]	19.0	catFR1	0	R1074M
1954.54	6.717	1008084	PROB	6.682	n/a	n/a	n/a	-999	14	[2, 6, 2]	10.0	catFR1	0	R1074M
1961.257	21.478	1011443	PROB	21.478	n/a	n/a	n/a	-999	14	[5, 6, 8]	20.0	catFR1	0	R1074M
1982.735	0.01	1022181	STOP	n/a	n/a	n/a	n/a	-999	14	[-999, -999, -999]	n/a	catFR1	0	R1074M
1982.745	1.201	1022186	DISTRACT_END	n/a	n/a	n/a	n/a	-999	14	[0, 0, 0]	n/a	catFR1	0	R1074M
1983.946	3.35	1022787	REC_START	n/a	n/a	n/a	n/a	-999	14	[0, 0, 0]	n/a	catFR1	0	R1074M
1987.296	0.902	1024462	REC_WORD	3.35	n/a	CAR	Vehicles	10	14	[0, 0, 0]	n/a	catFR1	0	R1074M
1988.198	0.519	1024913	REC_WORD	4.252	n/a	JEEP	Vehicles	1	14	[0, 0, 0]	n/a	catFR1	0	R1074M
1988.717	4.302	1025172	REC_WORD	4.771	n/a	TRUCK	Vehicles	2	14	[0, 0, 0]	n/a	catFR1	0	R1074M
1993.019	20.938	1027323	REC_WORD	9.073	n/a	DRIZZLE	Weather	5	14	[0, 0, 0]	n/a	catFR1	0	R1074M
2013.957	4.045	1037791	REC_END	n/a	n/a	n/a	n/a	-999	14	[0, 0, 0]	n/a	catFR1	0	R1074M
2018.002	0.0	1039814	TRIAL	n/a	n/a	n/a	n/a	-999	15	[0, 0, 0]	n/a	catFR1	0	R1074M
2018.002	10.428	1039814	COUNTDOWN_START	n/a	n/a	n/a	n/a	-999	15	[0, 0, 0]	n/a	catFR1	0	R1074M
2028.43	0.007	1045027	COUNTDOWN_END	n/a	n/a	n/a	n/a	-999	15	[0, 0, 0]	n/a	catFR1	0	R1074M
2028.437	3.85	1045031	ORIENT	n/a	n/a	n/a	n/a	-999	15	[0, 0, 0]	n/a	catFR1	0	R1074M
2032.287	2.418	1046956	WORD	n/a	wordpools/wordpool_categorized_EN.txt	BOOKCASE	Furniture	1	15	[0, 0, 0]	n/a	catFR1	0	R1074M
2034.705	2.566	1048165	WORD	n/a	wordpools/wordpool_categorized_EN.txt	BED	Furniture	2	15	[0, 0, 0]	n/a	catFR1	0	R1074M
2037.271	2.485	1049448	WORD	n/a	wordpools/wordpool_categorized_EN.txt	VACUUM	Appliances	3	15	[0, 0, 0]	n/a	catFR1	0	R1074M
2039.756	2.416	1050690	WORD	n/a	wordpools/wordpool_categorized_EN.txt	IRON	Appliances	4	15	[0, 0, 0]	n/a	catFR1	0	R1074M
2042.172	2.518	1051898	WORD	n/a	wordpools/wordpool_categorized_EN.txt	TABLET	Electronics	5	15	[0, 0, 0]	n/a	catFR1	0	R1074M
2044.69	2.55	1053157	WORD	n/a	wordpools/wordpool_categorized_EN.txt	TELEVISION	Electronics	6	15	[0, 0, 0]	n/a	catFR1	0	R1074M
2047.24	2.485	1054432	WORD	n/a	wordpools/wordpool_categorized_EN.txt	CHAIR	Furniture	7	15	[0, 0, 0]	n/a	catFR1	0	R1074M
2049.725	2.583	1055674	WORD	n/a	wordpools/wordpool_categorized_EN.txt	SHELF	Furniture	8	15	[0, 0, 0]	n/a	catFR1	0	R1074M
2052.308	2.618	1056966	WORD	n/a	wordpools/wordpool_categorized_EN.txt	COMPUTER	Electronics	9	15	[0, 0, 0]	n/a	catFR1	0	R1074M
2054.926	2.467	1058275	WORD	n/a	wordpools/wordpool_categorized_EN.txt	PHONE	Electronics	10	15	[0, 0, 0]	n/a	catFR1	0	R1074M
2057.393	2.45	1059508	WORD	n/a	wordpools/wordpool_categorized_EN.txt	REFRIGERATOR	Appliances	11	15	[0, 0, 0]	n/a	catFR1	0	R1074M
2059.843	1.617	1060733	WORD	n/a	wordpools/wordpool_categorized_EN.txt	MIXER	Appliances	12	15	[0, 0, 0]	n/a	catFR1	0	R1074M
2061.46	0.001	1061541	DISTRACT_START	n/a	n/a	n/a	n/a	-999	15	[0, 0, 0]	n/a	catFR1	0	R1074M
2061.461	0.016	1061542	START	n/a	n/a	n/a	n/a	-999	15	[-999, -999, -999]	n/a	catFR1	0	R1074M
2061.477	15.503	1061550	PROB	15.482	n/a	n/a	n/a	-999	15	[7, 6, 9]	21.0	catFR1	0	R1074M
2076.98	9.754	1069301	PROB	9.754	n/a	n/a	n/a	-999	15	[9, 6, 1]	17.0	catFR1	0	R1074M
2086.734	0.015	1074178	STOP	n/a	n/a	n/a	n/a	-999	15	[-999, -999, -999]	n/a	catFR1	0	R1074M
2086.749	1.05	1074185	DISTRACT_END	n/a	n/a	n/a	n/a	-999	15	[0, 0, 0]	n/a	catFR1	0	R1074M
2087.799	3.91	1074710	REC_START	n/a	n/a	n/a	n/a	-999	15	[0, 0, 0]	n/a	catFR1	0	R1074M
2091.709	0.885	1076665	REC_WORD	3.91	n/a	BOOKCASE	Furniture	1	15	[0, 0, 0]	n/a	catFR1	0	R1074M
2092.594	1.396	1077108	REC_WORD	4.795	n/a	SHELF	Furniture	8	15	[0, 0, 0]	n/a	catFR1	0	R1074M
2093.99	2.007	1077806	REC_WORD	6.191	n/a	REFRIGERATOR	Appliances	11	15	[0, 0, 0]	n/a	catFR1	0	R1074M
2095.997	12.626	1078809	REC_WORD	8.198	n/a	CHAIR	Furniture	7	15	[0, 0, 0]	n/a	catFR1	0	R1074M
2108.623	9.19	1085122	REC_WORD	20.824	n/a	SHELF	Furniture	8	15	[0, 0, 0]	n/a	catFR1	0	R1074M
2117.813	4.059	1089716	REC_END	n/a	n/a	n/a	n/a	-999	15	[0, 0, 0]	n/a	catFR1	0	R1074M
2121.872	0.0	1091746	TRIAL	n/a	n/a	n/a	n/a	-999	16	[0, 0, 0]	n/a	catFR1	0	R1074M
2121.872	10.428	1091746	COUNTDOWN_START	n/a	n/a	n/a	n/a	-999	16	[0, 0, 0]	n/a	catFR1	0	R1074M
2132.3	0.006	1096959	COUNTDOWN_END	n/a	n/a	n/a	n/a	-999	16	[0, 0, 0]	n/a	catFR1	0	R1074M
2132.306	3.635	1096962	ORIENT	n/a	n/a	n/a	n/a	-999	16	[0, 0, 0]	n/a	catFR1	0	R1074M
2135.941	2.518	1098780	WORD	n/a	wordpools/wordpool_categorized_EN.txt	ANT	Insects	1	16	[0, 0, 0]	n/a	catFR1	0	R1074M
2138.459	2.533	1100039	WORD	n/a	wordpools/wordpool_categorized_EN.txt	BEE	Insects	2	16	[0, 0, 0]	n/a	catFR1	0	R1074M
2140.992	2.634	1101305	WORD	n/a	wordpools/wordpool_categorized_EN.txt	BLOCKS	Toys	3	16	[0, 0, 0]	n/a	catFR1	0	R1074M
2143.626	2.433	1102622	WORD	n/a	wordpools/wordpool_categorized_EN.txt	BASKETBALL	Toys	4	16	[0, 0, 0]	n/a	catFR1	0	R1074M
2146.059	2.385	1103839	WORD	n/a	wordpools/wordpool_categorized_EN.txt	BROCCOLI	Vegetables	5	16	[0, 0, 0]	n/a	catFR1	0	R1074M
2148.444	2.484	1105031	WORD	n/a	wordpools/wordpool_categorized_EN.txt	CARROT	Vegetables	6	16	[0, 0, 0]	n/a	catFR1	0	R1074M
2150.928	2.5	1106273	WORD	n/a	wordpools/wordpool_categorized_EN.txt	MOTH	Insects	7	16	[0, 0, 0]	n/a	catFR1	0	R1074M
2153.428	2.6	1107523	WORD	n/a	wordpools/wordpool_categorized_EN.txt	GNAT	Insects	8	16	[0, 0, 0]	n/a	catFR1	0	R1074M
2156.028	2.468	1108823	WORD	n/a	wordpools/wordpool_categorized_EN.txt	SPINACH	Vegetables	9	16	[0, 0, 0]	n/a	catFR1	0	R1074M
2158.496	2.434	1110057	WORD	n/a	wordpools/wordpool_categorized_EN.txt	PEAS	Vegetables	10	16	[0, 0, 0]	n/a	catFR1	0	R1074M
2160.93	2.433	1111274	WORD	n/a	wordpools/wordpool_categorized_EN.txt	FRISBEE	Toys	11	16	[0, 0, 0]	n/a	catFR1	0	R1074M
2163.363	1.617	1112490	WORD	n/a	wordpools/wordpool_categorized_EN.txt	BASEBALL	Toys	12	16	[0, 0, 0]	n/a	catFR1	0	R1074M
2164.98	0.001	1113299	DISTRACT_START	n/a	n/a	n/a	n/a	-999	16	[0, 0, 0]	n/a	catFR1	0	R1074M
2164.981	0.016	1113299	START	n/a	n/a	n/a	n/a	-999	16	[-999, -999, -999]	n/a	catFR1	0	R1074M
2164.997	5.951	1113307	PROB	5.922	n/a	n/a	n/a	-999	16	[8, 8, 1]	17.0	catFR1	0	R1074M
2170.948	8.818	1116282	PROB	8.795	n/a	n/a	n/a	-999	16	[2, 7, 4]	13.0	catFR1	0	R1074M
2179.766	11.089	1120691	PROB	11.089	n/a	n/a	n/a	-999	16	[8, 7, 4]	18.0	catFR1	0	R1074M
2190.855	0.014	1126235	STOP	n/a	n/a	n/a	n/a	-999	16	[-999, -999, -999]	n/a	catFR1	0	R1074M
2190.869	1.134	1126242	DISTRACT_END	n/a	n/a	n/a	n/a	-999	16	[0, 0, 0]	n/a	catFR1	0	R1074M
2192.003	3.153	1126809	REC_START	n/a	n/a	n/a	n/a	-999	16	[0, 0, 0]	n/a	catFR1	0	R1074M
2195.156	0.711	1128386	REC_WORD	3.153	n/a	BROCCOLI	Vegetables	5	16	[0, 0, 0]	n/a	catFR1	0	R1074M
2195.867	1.253	1128741	REC_WORD	3.864	n/a	CARROT	Vegetables	6	16	[0, 0, 0]	n/a	catFR1	0	R1074M
2197.12	1.083	1129368	REC_WORD	5.117	n/a	FRISBEE	Toys	11	16	[0, 0, 0]	n/a	catFR1	0	R1074M
2198.203	5.632	1129909	REC_WORD	6.2	n/a	SPINACH	Vegetables	9	16	[0, 0, 0]	n/a	catFR1	0	R1074M
2203.835	2.625	1132725	REC_WORD	11.832	n/a	ANT	Insects	1	16	[0, 0, 0]	n/a	catFR1	0	R1074M
2206.46	15.551	1134037	REC_WORD	14.457	n/a	BASEBALL	Toys	12	16	[0, 0, 0]	n/a	catFR1	0	R1074M
2222.011	5.03	1141812	REC_END	n/a	n/a	n/a	n/a	-999	16	[0, 0, 0]	n/a	catFR1	0	R1074M
2227.041	0.001	1144327	COUNTDOWN_START	n/a	n/a	n/a	n/a	-999	17	[0, 0, 0]	n/a	catFR1	0	R1074M
2227.042	10.427	1144328	TRIAL	n/a	n/a	n/a	n/a	-999	17	[0, 0, 0]	n/a	catFR1	0	R1074M
2237.469	0.009	1149541	COUNTDOWN_END	n/a	n/a	n/a	n/a	-999	17	[0, 0, 0]	n/a	catFR1	0	R1074M
2237.478	3.533	1149545	ORIENT	n/a	n/a	n/a	n/a	-999	17	[0, 0, 0]	n/a	catFR1	0	R1074M
2241.011	2.434	1151312	WORD	n/a	wordpools/wordpool_categorized_EN.txt	STREAM	Landscapes	1	17	[0, 0, 0]	n/a	catFR1	0	R1074M
2243.445	2.401	1152529	WORD	n/a	wordpools/wordpool_categorized_EN.txt	OCEAN	Landscapes	2	17	[0, 0, 0]	n/a	catFR1	0	R1074M
2245.846	2.466	1153729	WORD	n/a	wordpools/wordpool_categorized_EN.txt	SPEAKER	Electronics	3	17	[0, 0, 0]	n/a	catFR1	0	R1074M
2248.312	2.435	1154962	WORD	n/a	wordpools/wordpool_categorized_EN.txt	SCANNER	Electronics	4	17	[0, 0, 0]	n/a	catFR1	0	R1074M
2250.747	2.416	1156180	WORD	n/a	wordpools/wordpool_categorized_EN.txt	EYE	BodyParts	5	17	[0, 0, 0]	n/a	catFR1	0	R1074M
2253.163	2.568	1157387	WORD	n/a	wordpools/wordpool_categorized_EN.txt	HAND	BodyParts	6	17	[0, 0, 0]	n/a	catFR1	0	R1074M
2255.731	2.433	1158671	WORD	n/a	wordpools/wordpool_categorized_EN.txt	VALLEY	Landscapes	7	17	[0, 0, 0]	n/a	catFR1	0	R1074M
2258.164	2.385	1159888	WORD	n/a	wordpools/wordpool_categorized_EN.txt	HILLS	Landscapes	8	17	[0, 0, 0]	n/a	catFR1	0	R1074M
2260.549	2.4	1161080	WORD	n/a	wordpools/wordpool_categorized_EN.txt	ARM	BodyParts	9	17	[0, 0, 0]	n/a	catFR1	0	R1074M
2262.949	2.451	1162280	WORD	n/a	wordpools/wordpool_categorized_EN.txt	FINGERS	BodyParts	10	17	[0, 0, 0]	n/a	catFR1	0	R1074M
2265.4	2.434	1163506	WORD	n/a	wordpools/wordpool_categorized_EN.txt	PRINTER	Electronics	11	17	[0, 0, 0]	n/a	catFR1	0	R1074M
2267.834	1.617	1164723	WORD	n/a	wordpools/wordpool_categorized_EN.txt	CALCULATOR	Electronics	12	17	[0, 0, 0]	n/a	catFR1	0	R1074M
2269.451	0.001	1165531	DISTRACT_START	n/a	n/a	n/a	n/a	-999	17	[0, 0, 0]	n/a	catFR1	0	R1074M
2269.452	0.015	1165532	START	n/a	n/a	n/a	n/a	-999	17	[-999, -999, -999]	n/a	catFR1	0	R1074M
2269.467	14.136	1165539	PROB	14.1	n/a	n/a	n/a	-999	17	[4, 6, 8]	24.0	catFR1	0	R1074M
2283.603	7.78	1172607	PROB	7.78	n/a	n/a	n/a	-999	17	[4, 5, 4]	13.0	catFR1	0	R1074M
2291.383	0.005	1176496	STOP	n/a	n/a	n/a	n/a	-999	17	[-999, -999, -999]	n/a	catFR1	0	R1074M
2291.388	1.134	1176499	DISTRACT_END	n/a	n/a	n/a	n/a	-999	17	[0, 0, 0]	n/a	catFR1	0	R1074M
2292.522	1.849	1177066	REC_START	n/a	n/a	n/a	n/a	-999	17	[0, 0, 0]	n/a	catFR1	0	R1074M
2294.371	0.965	1177990	REC_WORD	1.849	n/a	SCANNER	Electronics	4	17	[0, 0, 0]	n/a	catFR1	0	R1074M
2295.336	13.646	1178473	REC_WORD	2.814	n/a	CALCULATOR	Electronics	12	17	[0, 0, 0]	n/a	catFR1	0	R1074M
2308.982	7.553	1185295	REC_WORD	16.46	n/a	STEREO	n/a	-999	17	[0, 0, 0]	n/a	catFR1	0	R1074M
2316.535	6.001	1189072	REC_WORD	24.013	n/a	STREAM	Landscapes	1	17	[0, 0, 0]	n/a	catFR1	0	R1074M
2322.536	8.01	1192072	REC_END	n/a	n/a	n/a	n/a	-999	17	[0, 0, 0]	n/a	catFR1	0	R1074M
2330.546	0.0	1196077	COUNTDOWN_START	n/a	n/a	n/a	n/a	-999	18	[0, 0, 0]	n/a	catFR1	0	R1074M
2330.546	10.428	1196077	TRIAL	n/a	n/a	n/a	n/a	-999	18	[0, 0, 0]	n/a	catFR1	0	R1074M
2340.974	0.007	1201291	COUNTDOWN_END	n/a	n/a	n/a	n/a	-999	18	[0, 0, 0]	n/a	catFR1	0	R1074M
2340.981	3.901	1201294	ORIENT	n/a	n/a	n/a	n/a	-999	18	[0, 0, 0]	n/a	catFR1	0	R1074M
2344.882	2.584	1203244	WORD	n/a	wordpools/wordpool_categorized_EN.txt	TULIP	Flowers	1	18	[0, 0, 0]	n/a	catFR1	0	R1074M
2347.466	2.417	1204536	WORD	n/a	wordpools/wordpool_categorized_EN.txt	SUNFLOWER	Flowers	2	18	[0, 0, 0]	n/a	catFR1	0	R1074M
2349.883	2.484	1205745	WORD	n/a	wordpools/wordpool_categorized_EN.txt	FLY	Insects	3	18	[0, 0, 0]	n/a	catFR1	0	R1074M
2352.367	2.483	1206987	WORD	n/a	wordpools/wordpool_categorized_EN.txt	ROACH	Insects	4	18	[0, 0, 0]	n/a	catFR1	0	R1074M
2354.85	2.433	1208228	WORD	n/a	wordpools/wordpool_categorized_EN.txt	STOVE	Appliances	5	18	[0, 0, 0]	n/a	catFR1	0	R1074M
2357.283	2.368	1209445	WORD	n/a	wordpools/wordpool_categorized_EN.txt	DRYER	Appliances	6	18	[0, 0, 0]	n/a	catFR1	0	R1074M
2359.651	2.55	1210628	WORD	n/a	wordpools/wordpool_categorized_EN.txt	BEETLE	Insects	7	18	[0, 0, 0]	n/a	catFR1	0	R1074M
2362.201	2.485	1211903	WORD	n/a	wordpools/wordpool_categorized_EN.txt	BUTTERFLY	Insects	8	18	[0, 0, 0]	n/a	catFR1	0	R1074M
2364.686	2.382	1213146	WORD	n/a	wordpools/wordpool_categorized_EN.txt	MARIGOLD	Flowers	9	18	[0, 0, 0]	n/a	catFR1	0	R1074M
2367.068	2.585	1214337	WORD	n/a	wordpools/wordpool_categorized_EN.txt	LILY	Flowers	10	18	[0, 0, 0]	n/a	catFR1	0	R1074M
2369.653	2.483	1215629	WORD	n/a	wordpools/wordpool_categorized_EN.txt	FREEZER	Appliances	11	18	[0, 0, 0]	n/a	catFR1	0	R1074M
2372.136	1.601	1216871	WORD	n/a	wordpools/wordpool_categorized_EN.txt	BLENDER	Appliances	12	18	[0, 0, 0]	n/a	catFR1	0	R1074M
2373.737	0.001	1217671	DISTRACT_START	n/a	n/a	n/a	n/a	-999	18	[0, 0, 0]	n/a	catFR1	0	R1074M
2373.738	0.016	1217672	START	n/a	n/a	n/a	n/a	-999	18	[-999, -999, -999]	n/a	catFR1	0	R1074M
2373.754	7.267	1217680	PROB	7.237	n/a	n/a	n/a	-999	18	[6, 2, 5]	13.0	catFR1	0	R1074M
2381.021	8.953	1221313	PROB	8.93	n/a	n/a	n/a	-999	18	[6, 8, 1]	15.0	catFR1	0	R1074M
2389.974	35.856	1225789	PROB	35.856	n/a	n/a	n/a	-999	18	[9, 6, 7]	22.0	catFR1	0	R1074M
2425.83	0.017	1243716	STOP	n/a	n/a	n/a	n/a	-999	18	[-999, -999, -999]	n/a	catFR1	0	R1074M
2425.847	1.101	1243725	DISTRACT_END	n/a	n/a	n/a	n/a	-999	18	[0, 0, 0]	n/a	catFR1	0	R1074M
2426.948	8.668	1244275	REC_START	n/a	n/a	n/a	n/a	-999	18	[0, 0, 0]	n/a	catFR1	0	R1074M
2435.616	0.71	1248609	REC_WORD	8.668	n/a	FREEZER	Appliances	11	18	[0, 0, 0]	n/a	catFR1	0	R1074M
2436.326	7.12	1248964	REC_WORD	9.378	n/a	BLENDER	Appliances	12	18	[0, 0, 0]	n/a	catFR1	0	R1074M
2443.446	7.273	1252524	REC_WORD	16.498	n/a	MARIGOLD	Flowers	9	18	[0, 0, 0]	n/a	catFR1	0	R1074M
2450.719	6.243	1256160	REC_WORD	23.771	n/a	FLY	Insects	3	18	[0, 0, 0]	n/a	catFR1	0	R1074M
2456.962	8.292	1259281	REC_END	n/a	n/a	n/a	n/a	-999	18	[0, 0, 0]	n/a	catFR1	0	R1074M
2465.254	0.0	1263427	TRIAL	n/a	n/a	n/a	n/a	-999	19	[0, 0, 0]	n/a	catFR1	0	R1074M
2465.254	10.428	1263427	COUNTDOWN_START	n/a	n/a	n/a	n/a	-999	19	[0, 0, 0]	n/a	catFR1	0	R1074M
2475.682	0.008	1268641	COUNTDOWN_END	n/a	n/a	n/a	n/a	-999	19	[0, 0, 0]	n/a	catFR1	0	R1074M
2475.69	3.668	1268645	ORIENT	n/a	n/a	n/a	n/a	-999	19	[0, 0, 0]	n/a	catFR1	0	R1074M
2479.358	2.384	1270479	WORD	n/a	wordpools/wordpool_categorized_EN.txt	SNOW	Weather	1	19	[0, 0, 0]	n/a	catFR1	0	R1074M
2481.742	2.499	1271670	WORD	n/a	wordpools/wordpool_categorized_EN.txt	THUNDER	Weather	2	19	[0, 0, 0]	n/a	catFR1	0	R1074M
2484.241	2.385	1272920	WORD	n/a	wordpools/wordpool_categorized_EN.txt	MAPLE	Trees	3	19	[0, 0, 0]	n/a	catFR1	0	R1074M
2486.626	2.449	1274112	WORD	n/a	wordpools/wordpool_categorized_EN.txt	OAK	Trees	4	19	[0, 0, 0]	n/a	catFR1	0	R1074M
2489.075	2.435	1275337	WORD	n/a	wordpools/wordpool_categorized_EN.txt	SANDER	Tools	5	19	[0, 0, 0]	n/a	catFR1	0	R1074M
2491.51	2.533	1276554	WORD	n/a	wordpools/wordpool_categorized_EN.txt	SCREWDRIVER	Tools	6	19	[0, 0, 0]	n/a	catFR1	0	R1074M
2494.043	2.451	1277821	WORD	n/a	wordpools/wordpool_categorized_EN.txt	EVERGREEN	Trees	7	19	[0, 0, 0]	n/a	catFR1	0	R1074M
2496.494	2.417	1279046	WORD	n/a	wordpools/wordpool_categorized_EN.txt	BIRCH	Trees	8	19	[0, 0, 0]	n/a	catFR1	0	R1074M
2498.911	2.383	1280255	WORD	n/a	wordpools/wordpool_categorized_EN.txt	TORNADO	Weather	9	19	[0, 0, 0]	n/a	catFR1	0	R1074M
2501.294	2.368	1281446	WORD	n/a	wordpools/wordpool_categorized_EN.txt	FOG	Weather	10	19	[0, 0, 0]	n/a	catFR1	0	R1074M
2503.662	2.617	1282630	WORD	n/a	wordpools/wordpool_categorized_EN.txt	AXE	Tools	11	19	[0, 0, 0]	n/a	catFR1	0	R1074M
2506.279	1.618	1283938	WORD	n/a	wordpools/wordpool_categorized_EN.txt	WRENCH	Tools	12	19	[0, 0, 0]	n/a	catFR1	0	R1074M
2507.897	0.001	1284747	DISTRACT_START	n/a	n/a	n/a	n/a	-999	19	[0, 0, 0]	n/a	catFR1	0	R1074M
2507.898	0.015	1284748	START	n/a	n/a	n/a	n/a	-999	19	[-999, -999, -999]	n/a	catFR1	0	R1074M
2507.913	4.1	1284755	PROB	4.078	n/a	n/a	n/a	-999	19	[7, 1, 3]	11.0	catFR1	0	R1074M
2512.013	3.218	1286805	PROB	3.193	n/a	n/a	n/a	-999	19	[1, 5, 5]	11.0	catFR1	0	R1074M
2515.231	6.585	1288414	PROB	6.56	n/a	n/a	n/a	-999	19	[3, 2, 5]	10.0	catFR1	0	R1074M
2521.816	3.701	1291706	PROB	3.679	n/a	n/a	n/a	-999	19	[5, 5, 2]	12.0	catFR1	0	R1074M
2525.517	5.745	1293557	PROB	5.745	n/a	n/a	n/a	-999	19	[2, 6, 3]	11.0	catFR1	0	R1074M
2531.262	0.005	1296429	STOP	n/a	n/a	n/a	n/a	-999	19	[-999, -999, -999]	n/a	catFR1	0	R1074M
2531.267	1.185	1296432	DISTRACT_END	n/a	n/a	n/a	n/a	-999	19	[0, 0, 0]	n/a	catFR1	0	R1074M
2532.452	5.221	1297024	REC_START	n/a	n/a	n/a	n/a	-999	19	[0, 0, 0]	n/a	catFR1	0	R1074M
2537.673	0.579	1299634	REC_WORD	5.221	n/a	WRENCH	Tools	12	19	[0, 0, 0]	n/a	catFR1	0	R1074M
2538.252	0.696	1299924	REC_WORD	5.8	n/a	SNOW	Weather	1	19	[0, 0, 0]	n/a	catFR1	0	R1074M
2538.948	3.48	1300272	REC_WORD	6.496	n/a	TORNADO	Weather	9	19	[0, 0, 0]	n/a	catFR1	0	R1074M
2542.428	20.034	1302012	REC_WORD	9.976	n/a	WIND	n/a	-999	19	[0, 0, 0]	n/a	catFR1	0	R1074M
2562.462	6.662	1312028	REC_END	n/a	n/a	n/a	n/a	-999	19	[0, 0, 0]	n/a	catFR1	0	R1074M
2569.124	0.0	1315359	COUNTDOWN_START	n/a	n/a	n/a	n/a	-999	20	[0, 0, 0]	n/a	catFR1	0	R1074M
2569.124	10.428	1315359	TRIAL	n/a	n/a	n/a	n/a	-999	20	[0, 0, 0]	n/a	catFR1	0	R1074M
2579.552	0.009	1320573	COUNTDOWN_END	n/a	n/a	n/a	n/a	-999	20	[0, 0, 0]	n/a	catFR1	0	R1074M
2579.561	3.85	1320577	ORIENT	n/a	n/a	n/a	n/a	-999	20	[0, 0, 0]	n/a	catFR1	0	R1074M
2583.411	2.417	1322502	WORD	n/a	wordpools/wordpool_categorized_EN.txt	FOOTBALL	Toys	1	20	[0, 0, 0]	n/a	catFR1	0	R1074M
2585.828	2.618	1323711	WORD	n/a	wordpools/wordpool_categorized_EN.txt	MARBLES	Toys	2	20	[0, 0, 0]	n/a	catFR1	0	R1074M
2588.446	2.55	1325019	WORD	n/a	wordpools/wordpool_categorized_EN.txt	COFFEE	Beverages	3	20	[0, 0, 0]	n/a	catFR1	0	R1074M
2590.996	2.501	1326294	WORD	n/a	wordpools/wordpool_categorized_EN.txt	WATER	Beverages	4	20	[0, 0, 0]	n/a	catFR1	0	R1074M
2593.497	2.467	1327545	WORD	n/a	wordpools/wordpool_categorized_EN.txt	GOAT	FarmAnimals	5	20	[0, 0, 0]	n/a	catFR1	0	R1074M
2595.964	2.567	1328778	WORD	n/a	wordpools/wordpool_categorized_EN.txt	TURKEY	FarmAnimals	6	20	[0, 0, 0]	n/a	catFR1	0	R1074M
2598.531	2.599	1330062	WORD	n/a	wordpools/wordpool_categorized_EN.txt	SLINKY	Toys	7	20	[0, 0, 0]	n/a	catFR1	0	R1074M
2601.13	2.602	1331361	WORD	n/a	wordpools/wordpool_categorized_EN.txt	DOLLHOUSE	Toys	8	20	[0, 0, 0]	n/a	catFR1	0	R1074M
2603.732	2.416	1332662	WORD	n/a	wordpools/wordpool_categorized_EN.txt	BULL	FarmAnimals	9	20	[0, 0, 0]	n/a	catFR1	0	R1074M
2606.148	2.568	1333870	WORD	n/a	wordpools/wordpool_categorized_EN.txt	ROOSTER	FarmAnimals	10	20	[0, 0, 0]	n/a	catFR1	0	R1074M
2608.716	2.617	1335154	WORD	n/a	wordpools/wordpool_categorized_EN.txt	JUICE	Beverages	11	20	[0, 0, 0]	n/a	catFR1	0	R1074M
2611.333	1.617	1336462	WORD	n/a	wordpools/wordpool_categorized_EN.txt	RUM	Beverages	12	20	[0, 0, 0]	n/a	catFR1	0	R1074M
2612.95	0.001	1337271	DISTRACT_START	n/a	n/a	n/a	n/a	-999	20	[0, 0, 0]	n/a	catFR1	0	R1074M
2612.951	0.016	1337271	START	n/a	n/a	n/a	n/a	-999	20	[-999, -999, -999]	n/a	catFR1	0	R1074M
2612.967	6.835	1337279	PROB	6.808	n/a	n/a	n/a	-999	20	[5, 5, 6]	16.0	catFR1	0	R1074M
2619.802	6.35	1340697	PROB	6.324	n/a	n/a	n/a	-999	20	[6, 2, 6]	14.0	catFR1	0	R1074M
2626.152	6.134	1343871	PROB	6.11	n/a	n/a	n/a	-999	20	[9, 5, 1]	15.0	catFR1	0	R1074M
2632.286	7.337	1346938	PROB	7.337	n/a	n/a	n/a	-999	20	[1, 9, 4]	14.0	catFR1	0	R1074M
2639.623	0.016	1350607	STOP	n/a	n/a	n/a	n/a	-999	20	[-999, -999, -999]	n/a	catFR1	0	R1074M
2639.639	1.101	1350615	DISTRACT_END	n/a	n/a	n/a	n/a	-999	20	[0, 0, 0]	n/a	catFR1	0	R1074M
2640.74	4.424	1351165	REC_START	n/a	n/a	n/a	n/a	-999	20	[0, 0, 0]	n/a	catFR1	0	R1074M
2645.164	25.586	1353377	REC_WORD	4.424	n/a	RUM	Beverages	12	20	[0, 0, 0]	n/a	catFR1	0	R1074M
2670.75	26.633	1366169	REC_END	n/a	n/a	n/a	n/a	-999	20	[0, 0, 0]	n/a	catFR1	0	R1074M
2697.383	0.001	1379485	COUNTDOWN_START	n/a	n/a	n/a	n/a	-999	21	[0, 0, 0]	n/a	catFR1	0	R1074M
2697.384	10.427	1379485	TRIAL	n/a	n/a	n/a	n/a	-999	21	[0, 0, 0]	n/a	catFR1	0	R1074M
2707.811	0.008	1384699	COUNTDOWN_END	n/a	n/a	n/a	n/a	-999	21	[0, 0, 0]	n/a	catFR1	0	R1074M
2707.819	3.684	1384703	ORIENT	n/a	n/a	n/a	n/a	-999	21	[0, 0, 0]	n/a	catFR1	0	R1074M
2711.503	2.549	1386544	WORD	n/a	wordpools/wordpool_categorized_EN.txt	ROSE	Flowers	1	21	[0, 0, 0]	n/a	catFR1	0	R1074M
2714.052	2.452	1387819	WORD	n/a	wordpools/wordpool_categorized_EN.txt	LILAC	Flowers	2	21	[0, 0, 0]	n/a	catFR1	0	R1074M
2716.504	2.616	1389045	WORD	n/a	wordpools/wordpool_categorized_EN.txt	HEAD	BodyParts	3	21	[0, 0, 0]	n/a	catFR1	0	R1074M
2719.12	2.451	1390353	WORD	n/a	wordpools/wordpool_categorized_EN.txt	NOSE	BodyParts	4	21	[0, 0, 0]	n/a	catFR1	0	R1074M
2721.571	2.401	1391578	WORD	n/a	wordpools/wordpool_categorized_EN.txt	WALNUT	Trees	5	21	[0, 0, 0]	n/a	catFR1	0	R1074M
2723.972	2.55	1392779	WORD	n/a	wordpools/wordpool_categorized_EN.txt	SPRUCE	Trees	6	21	[0, 0, 0]	n/a	catFR1	0	R1074M
2726.522	2.517	1394054	WORD	n/a	wordpools/wordpool_categorized_EN.txt	PETUNIA	Flowers	7	21	[0, 0, 0]	n/a	catFR1	0	R1074M
2729.039	2.618	1395312	WORD	n/a	wordpools/wordpool_categorized_EN.txt	ORCHID	Flowers	8	21	[0, 0, 0]	n/a	catFR1	0	R1074M
2731.657	2.466	1396621	WORD	n/a	wordpools/wordpool_categorized_EN.txt	PINE	Trees	9	21	[0, 0, 0]	n/a	catFR1	0	R1074M
2734.123	2.535	1397854	WORD	n/a	wordpools/wordpool_categorized_EN.txt	CYPRESS	Trees	10	21	[0, 0, 0]	n/a	catFR1	0	R1074M
2736.658	2.616	1399121	WORD	n/a	wordpools/wordpool_categorized_EN.txt	KNEE	BodyParts	11	21	[0, 0, 0]	n/a	catFR1	0	R1074M
2739.274	1.618	1400429	WORD	n/a	wordpools/wordpool_categorized_EN.txt	TOE	BodyParts	12	21	[0, 0, 0]	n/a	catFR1	0	R1074M
2740.892	0.001	1401238	DISTRACT_START	n/a	n/a	n/a	n/a	-999	21	[0, 0, 0]	n/a	catFR1	0	R1074M
2740.893	0.016	1401239	START	n/a	n/a	n/a	n/a	-999	21	[-999, -999, -999]	n/a	catFR1	0	R1074M
2740.909	10.885	1401247	PROB	10.858	n/a	n/a	n/a	-999	21	[6, 7, 5]	18.0	catFR1	0	R1074M
2751.794	6.051	1406689	PROB	6.021	n/a	n/a	n/a	-999	21	[1, 5, 6]	12.0	catFR1	0	R1074M
2757.845	16.498	1409714	PROB	16.498	n/a	n/a	n/a	-999	21	[8, 6, 4]	18.0	catFR1	0	R1074M
2774.343	0.005	1417963	STOP	n/a	n/a	n/a	n/a	-999	21	[-999, -999, -999]	n/a	catFR1	0	R1074M
2774.348	1.168	1417965	DISTRACT_END	n/a	n/a	n/a	n/a	-999	21	[0, 0, 0]	n/a	catFR1	0	R1074M
2775.516	1.923	1418549	REC_START	n/a	n/a	n/a	n/a	-999	21	[0, 0, 0]	n/a	catFR1	0	R1074M
2777.439	0.845	1419511	REC_WORD	1.923	n/a	LILAC	Flowers	2	21	[0, 0, 0]	n/a	catFR1	0	R1074M
2778.284	16.616	1419933	REC_WORD	2.768	n/a	ROSE	Flowers	1	21	[0, 0, 0]	n/a	catFR1	0	R1074M
2794.9	10.626	1428241	REC_WORD	19.384	n/a	TOE	BodyParts	12	21	[0, 0, 0]	n/a	catFR1	0	R1074M
2805.526	32.268	1433553	REC_END	n/a	n/a	n/a	n/a	-999	21	[0, 0, 0]	n/a	catFR1	0	R1074M
2837.794	0.0	1449686	TRIAL	n/a	n/a	n/a	n/a	-999	22	[0, 0, 0]	n/a	catFR1	0	R1074M
2837.794	10.428	1449686	COUNTDOWN_START	n/a	n/a	n/a	n/a	-999	22	[0, 0, 0]	n/a	catFR1	0	R1074M
2848.222	0.006	1454900	COUNTDOWN_END	n/a	n/a	n/a	n/a	-999	22	[0, 0, 0]	n/a	catFR1	0	R1074M
2848.228	3.784	1454903	ORIENT	n/a	n/a	n/a	n/a	-999	22	[0, 0, 0]	n/a	catFR1	0	R1074M
2852.012	2.602	1456795	WORD	n/a	wordpools/wordpool_categorized_EN.txt	FOLDER	OfficeSupplies	1	22	[0, 0, 0]	n/a	catFR1	0	R1074M
2854.614	2.433	1458096	WORD	n/a	wordpools/wordpool_categorized_EN.txt	PAPER	OfficeSupplies	2	22	[0, 0, 0]	n/a	catFR1	0	R1074M
2857.047	2.484	1459312	WORD	n/a	wordpools/wordpool_categorized_EN.txt	BUS	Vehicles	3	22	[0, 0, 0]	n/a	catFR1	0	R1074M
2859.531	2.5	1460554	WORD	n/a	wordpools/wordpool_categorized_EN.txt	PLANE	Vehicles	4	22	[0, 0, 0]	n/a	catFR1	0	R1074M
2862.031	2.368	1461804	WORD	n/a	wordpools/wordpool_categorized_EN.txt	WINE	Beverages	5	22	[0, 0, 0]	n/a	catFR1	0	R1074M
2864.399	2.451	1462988	WORD	n/a	wordpools/wordpool_categorized_EN.txt	MILK	Beverages	6	22	[0, 0, 0]	n/a	catFR1	0	R1074M
2866.85	2.55	1464214	WORD	n/a	wordpools/wordpool_categorized_EN.txt	BOAT	Vehicles	7	22	[0, 0, 0]	n/a	catFR1	0	R1074M
2869.4	2.584	1465488	WORD	n/a	wordpools/wordpool_categorized_EN.txt	SCOOTER	Vehicles	8	22	[0, 0, 0]	n/a	catFR1	0	R1074M
2871.984	2.4	1466780	WORD	n/a	wordpools/wordpool_categorized_EN.txt	STAPLER	OfficeSupplies	9	22	[0, 0, 0]	n/a	catFR1	0	R1074M
2874.384	2.418	1467980	WORD	n/a	wordpools/wordpool_categorized_EN.txt	RULER	OfficeSupplies	10	22	[0, 0, 0]	n/a	catFR1	0	R1074M
2876.802	2.465	1469189	WORD	n/a	wordpools/wordpool_categorized_EN.txt	COLA	Beverages	11	22	[0, 0, 0]	n/a	catFR1	0	R1074M
2879.267	1.602	1470422	WORD	n/a	wordpools/wordpool_categorized_EN.txt	LEMONADE	Beverages	12	22	[0, 0, 0]	n/a	catFR1	0	R1074M
2880.869	0.001	1471223	DISTRACT_START	n/a	n/a	n/a	n/a	-999	22	[0, 0, 0]	n/a	catFR1	0	R1074M
2880.87	0.016	1471223	START	n/a	n/a	n/a	n/a	-999	22	[-999, -999, -999]	n/a	catFR1	0	R1074M
2880.886	15.452	1471231	PROB	15.424	n/a	n/a	n/a	-999	22	[7, 9, 5]	21.0	catFR1	0	R1074M
2896.338	32.605	1478957	PROB	32.605	n/a	n/a	n/a	-999	22	[9, 7, 8]	24.0	catFR1	0	R1074M
2928.943	0.018	1495258	STOP	n/a	n/a	n/a	n/a	-999	22	[-999, -999, -999]	n/a	catFR1	0	R1074M
2928.961	1.117	1495267	DISTRACT_END	n/a	n/a	n/a	n/a	-999	22	[0, 0, 0]	n/a	catFR1	0	R1074M
2930.078	30.0	1495826	REC_START	n/a	n/a	n/a	n/a	-999	22	[0, 0, 0]	n/a	catFR1	0	R1074M
2960.078	0.01	1510825	REC_WORD_VV	30.0	n/a	<>	n/a	-999	22	[0, 0, 0]	n/a	catFR1	0	R1074M
2960.088	11.031	1510830	REC_END	n/a	n/a	n/a	n/a	-999	22	[0, 0, 0]	n/a	catFR1	0	R1074M
2971.119	0.0	1516345	TRIAL	n/a	n/a	n/a	n/a	-999	23	[0, 0, 0]	n/a	catFR1	0	R1074M
2971.119	10.428	1516345	COUNTDOWN_START	n/a	n/a	n/a	n/a	-999	23	[0, 0, 0]	n/a	catFR1	0	R1074M
2981.547	0.008	1521559	COUNTDOWN_END	n/a	n/a	n/a	n/a	-999	23	[0, 0, 0]	n/a	catFR1	0	R1074M
2981.555	3.784	1521563	ORIENT	n/a	n/a	n/a	n/a	-999	23	[0, 0, 0]	n/a	catFR1	0	R1074M
2985.339	2.517	1523455	WORD	n/a	wordpools/wordpool_categorized_EN.txt	WINDOW	Building	1	23	[0, 0, 0]	n/a	catFR1	0	R1074M
2987.856	2.383	1524713	WORD	n/a	wordpools/wordpool_categorized_EN.txt	ATTIC	Building	2	23	[0, 0, 0]	n/a	catFR1	0	R1074M
2990.239	2.435	1525905	WORD	n/a	wordpools/wordpool_categorized_EN.txt	SKIRT	Clothing	3	23	[0, 0, 0]	n/a	catFR1	0	R1074M
2992.674	2.549	1527122	WORD	n/a	wordpools/wordpool_categorized_EN.txt	PANTS	Clothing	4	23	[0, 0, 0]	n/a	catFR1	0	R1074M
2995.223	2.369	1528396	WORD	n/a	wordpools/wordpool_categorized_EN.txt	TOASTER	Appliances	5	23	[0, 0, 0]	n/a	catFR1	0	R1074M
2997.592	2.416	1529581	WORD	n/a	wordpools/wordpool_categorized_EN.txt	DISHWASHER	Appliances	6	23	[0, 0, 0]	n/a	catFR1	0	R1074M
3000.008	2.484	1530789	WORD	n/a	wordpools/wordpool_categorized_EN.txt	DOOR	Building	7	23	[0, 0, 0]	n/a	catFR1	0	R1074M
3002.492	2.484	1532031	WORD	n/a	wordpools/wordpool_categorized_EN.txt	STAIRS	Building	8	23	[0, 0, 0]	n/a	catFR1	0	R1074M
3004.976	2.551	1533273	WORD	n/a	wordpools/wordpool_categorized_EN.txt	OVEN	Appliances	9	23	[0, 0, 0]	n/a	catFR1	0	R1074M
3007.527	2.417	1534548	WORD	n/a	wordpools/wordpool_categorized_EN.txt	WASHER	Appliances	10	23	[0, 0, 0]	n/a	catFR1	0	R1074M
3009.944	2.517	1535756	WORD	n/a	wordpools/wordpool_categorized_EN.txt	JEANS	Clothing	11	23	[0, 0, 0]	n/a	catFR1	0	R1074M
3012.461	1.616	1537015	WORD	n/a	wordpools/wordpool_categorized_EN.txt	COAT	Clothing	12	23	[0, 0, 0]	n/a	catFR1	0	R1074M
3014.077	0.001	1537823	DISTRACT_START	n/a	n/a	n/a	n/a	-999	23	[0, 0, 0]	n/a	catFR1	0	R1074M
3014.078	0.016	1537823	START	n/a	n/a	n/a	n/a	-999	23	[-999, -999, -999]	n/a	catFR1	0	R1074M
3014.094	11.236	1537831	PROB	11.208	n/a	n/a	n/a	-999	23	[3, 8, 7]	18.0	catFR1	0	R1074M
3025.33	5.834	1543449	PROB	5.804	n/a	n/a	n/a	-999	23	[3, 4, 4]	11.0	catFR1	0	R1074M
3031.164	16.034	1546366	PROB	16.034	n/a	n/a	n/a	-999	23	[9, 4, 2]	15.0	catFR1	0	R1074M
3047.198	0.019	1554382	STOP	n/a	n/a	n/a	n/a	-999	23	[-999, -999, -999]	n/a	catFR1	0	R1074M
3047.217	1.084	1554392	DISTRACT_END	n/a	n/a	n/a	n/a	-999	23	[0, 0, 0]	n/a	catFR1	0	R1074M
3048.301	2.541	1554934	REC_START	n/a	n/a	n/a	n/a	-999	23	[0, 0, 0]	n/a	catFR1	0	R1074M
3050.842	1.217	1556204	REC_WORD	2.541	n/a	JEANS	Clothing	11	23	[0, 0, 0]	n/a	catFR1	0	R1074M
3052.059	5.791	1556813	REC_WORD	3.758	n/a	ATTIC	Building	2	23	[0, 0, 0]	n/a	catFR1	0	R1074M
3057.85	0.917	1559708	REC_WORD	9.549	n/a	DISHWASHER	Appliances	6	23	[0, 0, 0]	n/a	catFR1	0	R1074M
3058.767	15.688	1560167	REC_WORD	10.466	n/a	WASHER	Appliances	10	23	[0, 0, 0]	n/a	catFR1	0	R1074M
3074.455	3.856	1568010	REC_WORD	26.154	n/a	PANTS	Clothing	4	23	[0, 0, 0]	n/a	catFR1	0	R1074M
3078.311	19.816	1569938	REC_END	n/a	n/a	n/a	n/a	-999	23	[0, 0, 0]	n/a	catFR1	0	R1074M
3098.127	0.0	1579845	TRIAL	n/a	n/a	n/a	n/a	-999	24	[0, 0, 0]	n/a	catFR1	0	R1074M
3098.127	10.428	1579845	COUNTDOWN_START	n/a	n/a	n/a	n/a	-999	24	[0, 0, 0]	n/a	catFR1	0	R1074M
3108.555	0.008	1585059	COUNTDOWN_END	n/a	n/a	n/a	n/a	-999	24	[0, 0, 0]	n/a	catFR1	0	R1074M
3108.563	3.516	1585063	ORIENT	n/a	n/a	n/a	n/a	-999	24	[0, 0, 0]	n/a	catFR1	0	R1074M
3112.079	2.602	1586821	WORD	n/a	wordpools/wordpool_categorized_EN.txt	ROOF	Building	1	24	[0, 0, 0]	n/a	catFR1	0	R1074M
3114.681	2.499	1588122	WORD	n/a	wordpools/wordpool_categorized_EN.txt	HALLWAY	Building	2	24	[0, 0, 0]	n/a	catFR1	0	R1074M
3117.18	2.468	1589371	WORD	n/a	wordpools/wordpool_categorized_EN.txt	HEN	FarmAnimals	3	24	[0, 0, 0]	n/a	catFR1	0	R1074M
3119.648	2.45	1590605	WORD	n/a	wordpools/wordpool_categorized_EN.txt	CALF	FarmAnimals	4	24	[0, 0, 0]	n/a	catFR1	0	R1074M
3122.098	2.468	1591830	WORD	n/a	wordpools/wordpool_categorized_EN.txt	TRAIN	Vehicles	5	24	[0, 0, 0]	n/a	catFR1	0	R1074M
3124.566	2.384	1593064	WORD	n/a	wordpools/wordpool_categorized_EN.txt	MOPED	Vehicles	6	24	[0, 0, 0]	n/a	catFR1	0	R1074M
3126.95	2.5	1594256	WORD	n/a	wordpools/wordpool_categorized_EN.txt	CHICKEN	FarmAnimals	7	24	[0, 0, 0]	n/a	catFR1	0	R1074M
3129.45	2.401	1595506	WORD	n/a	wordpools/wordpool_categorized_EN.txt	HORSE	FarmAnimals	8	24	[0, 0, 0]	n/a	catFR1	0	R1074M
3131.851	2.584	1596706	WORD	n/a	wordpools/wordpool_categorized_EN.txt	WALL	Building	9	24	[0, 0, 0]	n/a	catFR1	0	R1074M
3134.435	2.616	1597998	WORD	n/a	wordpools/wordpool_categorized_EN.txt	CEILING	Building	10	24	[0, 0, 0]	n/a	catFR1	0	R1074M
3137.051	2.585	1599306	WORD	n/a	wordpools/wordpool_categorized_EN.txt	VAN	Vehicles	11	24	[0, 0, 0]	n/a	catFR1	0	R1074M
3139.636	1.616	1600599	WORD	n/a	wordpools/wordpool_categorized_EN.txt	BIKE	Vehicles	12	24	[0, 0, 0]	n/a	catFR1	0	R1074M
3141.252	0.0	1601407	DISTRACT_START	n/a	n/a	n/a	n/a	-999	24	[0, 0, 0]	n/a	catFR1	0	R1074M
3141.252	0.016	1601407	START	n/a	n/a	n/a	n/a	-999	24	[-999, -999, -999]	n/a	catFR1	0	R1074M
3141.268	22.049	1601415	PROB	22.049	n/a	n/a	n/a	-999	24	[9, 8, 5]	24.0	catFR1	0	R1074M
3163.317	0.006	1612439	STOP	n/a	n/a	n/a	n/a	-999	24	[-999, -999, -999]	n/a	catFR1	0	R1074M
3163.323	1.185	1612442	DISTRACT_END	n/a	n/a	n/a	n/a	-999	24	[0, 0, 0]	n/a	catFR1	0	R1074M
3164.508	3.793	1613034	REC_START	n/a	n/a	n/a	n/a	-999	24	[0, 0, 0]	n/a	catFR1	0	R1074M
3168.301	4.734	1614930	REC_WORD_VV	3.793	n/a	<>	n/a	-999	24	[0, 0, 0]	n/a	catFR1	0	R1074M
3173.035	21.483	1617297	REC_WORD	8.527	n/a	ROOF	Building	1	24	[0, 0, 0]	n/a	catFR1	0	R1074M
3194.518	8.23	1628038	REC_END	n/a	n/a	n/a	n/a	-999	24	[0, 0, 0]	n/a	catFR1	0	R1074M
3202.748	0.0	1632153	TRIAL	n/a	n/a	n/a	n/a	-999	25	[0, 0, 0]	n/a	catFR1	0	R1074M
3202.748	10.428	1632153	COUNTDOWN_START	n/a	n/a	n/a	n/a	-999	25	[0, 0, 0]	n/a	catFR1	0	R1074M
3213.176	0.006	1637367	COUNTDOWN_END	n/a	n/a	n/a	n/a	-999	25	[0, 0, 0]	n/a	catFR1	0	R1074M
3213.182	3.669	1637370	ORIENT	n/a	n/a	n/a	n/a	-999	25	[0, 0, 0]	n/a	catFR1	0	R1074M
3216.851	2.466	1639204	WORD	n/a	wordpools/wordpool_categorized_EN.txt	BALL	Toys	1	25	[0, 0, 0]	n/a	catFR1	0	R1074M
3219.317	2.385	1640437	WORD	n/a	wordpools/wordpool_categorized_EN.txt	PUZZLE	Toys	2	25	[0, 0, 0]	n/a	catFR1	0	R1074M
3221.702	2.499	1641629	WORD	n/a	wordpools/wordpool_categorized_EN.txt	GOOSE	Birds	3	25	[0, 0, 0]	n/a	catFR1	0	R1074M
3224.201	2.602	1642879	WORD	n/a	wordpools/wordpool_categorized_EN.txt	BLUEBIRD	Birds	4	25	[0, 0, 0]	n/a	catFR1	0	R1074M
3226.803	2.432	1644180	WORD	n/a	wordpools/wordpool_categorized_EN.txt	CEDAR	Trees	5	25	[0, 0, 0]	n/a	catFR1	0	R1074M
3229.235	2.435	1645396	WORD	n/a	wordpools/wordpool_categorized_EN.txt	WILLOW	Trees	6	25	[0, 0, 0]	n/a	catFR1	0	R1074M
3231.67	2.416	1646613	WORD	n/a	wordpools/wordpool_categorized_EN.txt	SPARROW	Birds	7	25	[0, 0, 0]	n/a	catFR1	0	R1074M
3234.086	2.485	1647821	WORD	n/a	wordpools/wordpool_categorized_EN.txt	DOVE	Birds	8	25	[0, 0, 0]	n/a	catFR1	0	R1074M
3236.571	2.483	1649064	WORD	n/a	wordpools/wordpool_categorized_EN.txt	BARBIE	Toys	9	25	[0, 0, 0]	n/a	catFR1	0	R1074M
3239.054	2.401	1650305	WORD	n/a	wordpools/wordpool_categorized_EN.txt	DOLL	Toys	10	25	[0, 0, 0]	n/a	catFR1	0	R1074M
3241.455	2.534	1651505	WORD	n/a	wordpools/wordpool_categorized_EN.txt	ELM	Trees	11	25	[0, 0, 0]	n/a	catFR1	0	R1074M
3243.989	1.617	1652772	WORD	n/a	wordpools/wordpool_categorized_EN.txt	HICKORY	Trees	12	25	[0, 0, 0]	n/a	catFR1	0	R1074M
3245.606	0.001	1653581	DISTRACT_START	n/a	n/a	n/a	n/a	-999	25	[0, 0, 0]	n/a	catFR1	0	R1074M
3245.607	0.016	1653581	START	n/a	n/a	n/a	n/a	-999	25	[-999, -999, -999]	n/a	catFR1	0	R1074M
3245.623	9.501	1653589	PROB	9.479	n/a	n/a	n/a	-999	25	[7, 6, 8]	19.0	catFR1	0	R1074M
3255.124	5.602	1658339	PROB	5.571	n/a	n/a	n/a	-999	25	[2, 4, 7]	13.0	catFR1	0	R1074M
3260.726	3.75	1661140	PROB	3.729	n/a	n/a	n/a	-999	25	[3, 7, 1]	11.0	catFR1	0	R1074M
3264.476	8.035	1663015	PROB	8.035	n/a	n/a	n/a	-999	25	[8, 2, 7]	17.0	catFR1	0	R1074M
3272.511	0.017	1667032	STOP	n/a	n/a	n/a	n/a	-999	25	[-999, -999, -999]	n/a	catFR1	0	R1074M
3272.528	1.218	1667041	DISTRACT_END	n/a	n/a	n/a	n/a	-999	25	[0, 0, 0]	n/a	catFR1	0	R1074M
3273.746	0.935	1667650	REC_START	n/a	n/a	n/a	n/a	-999	25	[0, 0, 0]	n/a	catFR1	0	R1074M
3274.681	1.385	1668117	REC_WORD	0.935	n/a	BARBIE	Toys	9	25	[0, 0, 0]	n/a	catFR1	0	R1074M
3276.066	27.69	1668810	REC_WORD	2.32	n/a	DOLL	Toys	10	25	[0, 0, 0]	n/a	catFR1	0	R1074M
3303.756	20.149	1682654	REC_END	n/a	n/a	n/a	n/a	-999	25	[0, 0, 0]	n/a	catFR1	0	R1074M
3323.905	0.0	1692728	SESS_END	n/a	n/a	n/a	n/a	-999	25	[0, 0, 0]	n/a	catFR1	0	R1074M
