onset	duration	sample	trial_type	response_time	stim_file	item_name	category	serialpos	list	test	answer	experiment	session	subject
0.0	0.0	77465	INSTRUCT_START	n/a	n/a	n/a	n/a	-999	-999	[0, 0, 0]	n/a	catFR1	0	R1204T
0.0	10.915	77465	INSTRUCT_END	n/a	n/a	n/a	n/a	-999	-999	[0, 0, 0]	n/a	catFR1	0	R1204T
10.915	0.0	88379	SESS_START	n/a	n/a	n/a	n/a	-999	-999	[0, 0, 0]	n/a	catFR1	0	R1204T
10.915	19.5	88379	MIC_TEST	n/a	n/a	n/a	n/a	-999	-999	[0, 0, 0]	n/a	catFR1	0	R1204T
30.415	10.093	107878	PRACTICE_TRIAL	n/a	n/a	n/a	n/a	-999	-1	[0, 0, 0]	n/a	catFR1	0	R1204T
40.508	10.0	117970	COUNTDOWN_START	n/a	n/a	n/a	n/a	-999	-1	[0, 0, 0]	n/a	catFR1	0	R1204T
50.936	0.007	128398	COUNTDOWN_END	n/a	n/a	n/a	n/a	-999	-1	[0, 0, 0]	n/a	catFR1	0	R1204T
50.943	1.6	128405	PRACTICE_ORIENT	n/a	n/a	n/a	n/a	-999	-1	[0, 0, 0]	n/a	catFR1	0	R1204T
52.559	1.934	130020	PRACTICE_ORIENT_OFF	n/a	n/a	n/a	n/a	-999	-1	[0, 0, 0]	n/a	catFR1	0	R1204T
54.493	1.6	131954	PRACTICE_WORD	n/a	n/a	RHINO	n/a	-1	-1	[0, 0, 0]	n/a	catFR1	0	R1204T
56.111	0.8	133572	PRACTICE_WORD_OFF	n/a	n/a	RHINO	n/a	-999	-1	[0, 0, 0]	n/a	catFR1	0	R1204T
56.911	1.6	134372	PRACTICE_WORD	n/a	n/a	IRON	n/a	-1	-1	[0, 0, 0]	n/a	catFR1	0	R1204T
58.527	1.016	135988	PRACTICE_WORD_OFF	n/a	n/a	IRON	n/a	-999	-1	[0, 0, 0]	n/a	catFR1	0	R1204T
59.543	1.6	137004	PRACTICE_WORD	n/a	n/a	WATCH	n/a	-1	-1	[0, 0, 0]	n/a	catFR1	0	R1204T
61.161	0.817	138622	PRACTICE_WORD_OFF	n/a	n/a	WATCH	n/a	-999	-1	[0, 0, 0]	n/a	catFR1	0	R1204T
61.978	1.6	139439	PRACTICE_WORD	n/a	n/a	CHEST	n/a	-1	-1	[0, 0, 0]	n/a	catFR1	0	R1204T
63.594	0.834	141055	PRACTICE_WORD_OFF	n/a	n/a	CHEST	n/a	-999	-1	[0, 0, 0]	n/a	catFR1	0	R1204T
64.428	1.6	141889	PRACTICE_WORD	n/a	n/a	COTTON	n/a	-1	-1	[0, 0, 0]	n/a	catFR1	0	R1204T
66.046	0.816	143507	PRACTICE_WORD_OFF	n/a	n/a	COTTON	n/a	-999	-1	[0, 0, 0]	n/a	catFR1	0	R1204T
66.862	1.6	144323	PRACTICE_WORD	n/a	n/a	CAMEL	n/a	-1	-1	[0, 0, 0]	n/a	catFR1	0	R1204T
68.478	0.785	145939	PRACTICE_WORD_OFF	n/a	n/a	CAMEL	n/a	-999	-1	[0, 0, 0]	n/a	catFR1	0	R1204T
69.263	1.6	146723	PRACTICE_WORD	n/a	n/a	WAGON	n/a	-1	-1	[0, 0, 0]	n/a	catFR1	0	R1204T
70.88	0.866	148340	PRACTICE_WORD_OFF	n/a	n/a	WAGON	n/a	-999	-1	[0, 0, 0]	n/a	catFR1	0	R1204T
71.746	1.6	149206	PRACTICE_WORD	n/a	n/a	ATTIC	n/a	-1	-1	[0, 0, 0]	n/a	catFR1	0	R1204T
73.363	0.884	150823	PRACTICE_WORD_OFF	n/a	n/a	ATTIC	n/a	-999	-1	[0, 0, 0]	n/a	catFR1	0	R1204T
74.247	1.6	151707	PRACTICE_WORD	n/a	n/a	RING	n/a	-1	-1	[0, 0, 0]	n/a	catFR1	0	R1204T
75.864	0.967	153324	PRACTICE_WORD_OFF	n/a	n/a	RING	n/a	-999	-1	[0, 0, 0]	n/a	catFR1	0	R1204T
76.831	1.6	154291	PRACTICE_WORD	n/a	n/a	BEAM	n/a	-1	-1	[0, 0, 0]	n/a	catFR1	0	R1204T
78.447	0.983	155907	PRACTICE_WORD_OFF	n/a	n/a	BEAM	n/a	-999	-1	[0, 0, 0]	n/a	catFR1	0	R1204T
79.43	1.6	156890	PRACTICE_WORD	n/a	n/a	FLOOD	n/a	-1	-1	[0, 0, 0]	n/a	catFR1	0	R1204T
81.032	0.983	158492	PRACTICE_WORD_OFF	n/a	n/a	FLOOD	n/a	-999	-1	[0, 0, 0]	n/a	catFR1	0	R1204T
82.015	1.6	159475	PRACTICE_WORD	n/a	n/a	TONGUE	n/a	-1	-1	[0, 0, 0]	n/a	catFR1	0	R1204T
83.631	0.0	161091	ENCODING_END	n/a	n/a	n/a	n/a	-999	-1	[0, 0, 0]	n/a	catFR1	0	R1204T
83.631	0.001	161091	PRACTICE_WORD_OFF	n/a	n/a	TONGUE	n/a	-999	-1	[0, 0, 0]	n/a	catFR1	0	R1204T
83.632	0.0	161092	DISTRACT_START	n/a	n/a	n/a	n/a	-999	-1	[0, 0, 0]	n/a	catFR1	0	R1204T
83.632	0.016	161092	START	n/a	n/a	n/a	n/a	-999	-1	[-999, -999, -999]	n/a	catFR1	0	R1204T
83.648	4.834	161108	PROB	4.805	n/a	n/a	n/a	-999	-1	[7, 6, 6]	13.0	catFR1	0	R1204T
88.482	4.984	165941	PROB	4.947	n/a	n/a	n/a	-999	-1	[9, 9, 3]	21.0	catFR1	0	R1204T
93.466	4.101	170925	PROB	4.067	n/a	n/a	n/a	-999	-1	[9, 1, 9]	19.0	catFR1	0	R1204T
97.567	5.669	175026	PROB	5.63	n/a	n/a	n/a	-999	-1	[1, 4, 7]	12.0	catFR1	0	R1204T
103.236	6.018	180694	PROB	6.018	n/a	n/a	n/a	-999	-1	[7, 2, 6]	15.0	catFR1	0	R1204T
109.254	0.016	186712	STOP	n/a	n/a	n/a	n/a	-999	-1	[-999, -999, -999]	n/a	catFR1	0	R1204T
109.27	0.634	186728	DISTRACT_END	n/a	n/a	n/a	n/a	-999	-1	[0, 0, 0]	n/a	catFR1	0	R1204T
109.904	0.516	187362	RETRIEVAL_ORIENT	n/a	n/a	n/a	n/a	-999	-1	[0, 0, 0]	n/a	catFR1	0	R1204T
110.42	30.012	187878	PRACTICE_REC_START	n/a	n/a	n/a	n/a	-999	-1	[0, 0, 0]	n/a	catFR1	0	R1204T
140.432	23.28	217888	PRACTICE_REC_END	n/a	n/a	n/a	n/a	-999	-1	[0, 0, 0]	n/a	catFR1	0	R1204T
163.712	0.5	241167	TRIAL	n/a	n/a	n/a	n/a	-999	1	[0, 0, 0]	n/a	catFR1	0	R1204T
164.212	10.0	241667	COUNTDOWN_START	n/a	n/a	n/a	n/a	-999	1	[0, 0, 0]	n/a	catFR1	0	R1204T
174.64	0.008	252094	COUNTDOWN_END	n/a	n/a	n/a	n/a	-999	1	[0, 0, 0]	n/a	catFR1	0	R1204T
174.648	1.6	252102	ORIENT	n/a	n/a	n/a	n/a	-999	1	[0, 0, 0]	n/a	catFR1	0	R1204T
176.266	2.132	253720	ORIENT_OFF	n/a	n/a	n/a	n/a	-999	1	[0, 0, 0]	n/a	catFR1	0	R1204T
178.398	1.6	255852	WORD	n/a	wordpools/wordpool_categorized_EN.txt	OCEAN	Landscapes	1	1	[0, 0, 0]	n/a	catFR1	0	R1204T
179.999	0.901	257453	WORD_OFF	n/a	n/a	OCEAN	n/a	1	1	[0, 0, 0]	n/a	catFR1	0	R1204T
180.9	1.6	258354	WORD	n/a	wordpools/wordpool_categorized_EN.txt	STREAM	Landscapes	2	1	[0, 0, 0]	n/a	catFR1	0	R1204T
182.516	0.85	259970	WORD_OFF	n/a	n/a	STREAM	n/a	2	1	[0, 0, 0]	n/a	catFR1	0	R1204T
183.366	1.6	260820	WORD	n/a	wordpools/wordpool_categorized_EN.txt	LEVEL	Tools	3	1	[0, 0, 0]	n/a	catFR1	0	R1204T
184.984	0.983	262438	WORD_OFF	n/a	n/a	LEVEL	n/a	3	1	[0, 0, 0]	n/a	catFR1	0	R1204T
185.967	1.6	263420	WORD	n/a	wordpools/wordpool_categorized_EN.txt	HAMMER	Tools	4	1	[0, 0, 0]	n/a	catFR1	0	R1204T
187.583	0.784	265036	WORD_OFF	n/a	n/a	HAMMER	n/a	4	1	[0, 0, 0]	n/a	catFR1	0	R1204T
188.367	1.6	265820	WORD	n/a	wordpools/wordpool_categorized_EN.txt	PEACH	Fruit	5	1	[0, 0, 0]	n/a	catFR1	0	R1204T
189.985	0.95	267438	WORD_OFF	n/a	n/a	PEACH	n/a	5	1	[0, 0, 0]	n/a	catFR1	0	R1204T
190.935	1.6	268388	WORD	n/a	wordpools/wordpool_categorized_EN.txt	BANANA	Fruit	6	1	[0, 0, 0]	n/a	catFR1	0	R1204T
192.551	0.9	270004	WORD_OFF	n/a	n/a	BANANA	n/a	6	1	[0, 0, 0]	n/a	catFR1	0	R1204T
193.451	1.6	270904	WORD	n/a	wordpools/wordpool_categorized_EN.txt	SCREWDRIVER	Tools	7	1	[0, 0, 0]	n/a	catFR1	0	R1204T
195.052	0.834	272505	WORD_OFF	n/a	n/a	SCREWDRIVER	n/a	7	1	[0, 0, 0]	n/a	catFR1	0	R1204T
195.886	1.6	273339	WORD	n/a	wordpools/wordpool_categorized_EN.txt	DRILL	Tools	8	1	[0, 0, 0]	n/a	catFR1	0	R1204T
197.502	0.784	274955	WORD_OFF	n/a	n/a	DRILL	n/a	8	1	[0, 0, 0]	n/a	catFR1	0	R1204T
198.286	1.6	275739	WORD	n/a	wordpools/wordpool_categorized_EN.txt	BEACH	Landscapes	9	1	[0, 0, 0]	n/a	catFR1	0	R1204T
199.903	0.833	277356	WORD_OFF	n/a	n/a	BEACH	n/a	9	1	[0, 0, 0]	n/a	catFR1	0	R1204T
200.736	1.6	278189	WORD	n/a	wordpools/wordpool_categorized_EN.txt	MOUNTAIN	Landscapes	10	1	[0, 0, 0]	n/a	catFR1	0	R1204T
202.353	0.951	279805	WORD_OFF	n/a	n/a	MOUNTAIN	n/a	10	1	[0, 0, 0]	n/a	catFR1	0	R1204T
203.304	1.6	280756	WORD	n/a	wordpools/wordpool_categorized_EN.txt	APPLE	Fruit	11	1	[0, 0, 0]	n/a	catFR1	0	R1204T
204.921	0.782	282373	WORD_OFF	n/a	n/a	APPLE	n/a	11	1	[0, 0, 0]	n/a	catFR1	0	R1204T
205.703	1.6	283155	WORD	n/a	wordpools/wordpool_categorized_EN.txt	PEAR	Fruit	12	1	[0, 0, 0]	n/a	catFR1	0	R1204T
207.304	0.001	284756	WORD_OFF	n/a	n/a	PEAR	n/a	12	1	[0, 0, 0]	n/a	catFR1	0	R1204T
207.305	0.137	284757	ENCODING_END	n/a	n/a	n/a	n/a	-999	1	[0, 0, 0]	n/a	catFR1	0	R1204T
207.442	0.0	284894	DISTRACT_START	n/a	n/a	n/a	n/a	-999	1	[0, 0, 0]	n/a	catFR1	0	R1204T
207.442	0.012	284894	START	n/a	n/a	n/a	n/a	-999	1	[-999, -999, -999]	n/a	catFR1	0	R1204T
207.454	8.068	284906	PROB	8.038	n/a	n/a	n/a	-999	1	[9, 3, 8]	20.0	catFR1	0	R1204T
215.522	5.151	292974	PROB	5.114	n/a	n/a	n/a	-999	1	[3, 6, 2]	11.0	catFR1	0	R1204T
220.673	6.084	298124	PROB	6.052	n/a	n/a	n/a	-999	1	[6, 7, 5]	18.0	catFR1	0	R1204T
226.757	3.44	304208	PROB	3.44	n/a	n/a	n/a	-999	1	[1, 7, 3]	11.0	catFR1	0	R1204T
230.197	0.012	307648	STOP	n/a	n/a	n/a	n/a	-999	1	[-999, -999, -999]	n/a	catFR1	0	R1204T
230.209	0.516	307660	DISTRACT_END	n/a	n/a	n/a	n/a	-999	1	[0, 0, 0]	n/a	catFR1	0	R1204T
230.725	0.518	308176	RETRIEVAL_ORIENT	n/a	n/a	n/a	n/a	-999	1	[0, 0, 0]	n/a	catFR1	0	R1204T
231.243	1.906	308694	REC_START	n/a	n/a	n/a	n/a	-999	1	[0, 0, 0]	n/a	catFR1	0	R1204T
233.149	0.866	310600	REC_WORD	1.906	n/a	OCEAN	Landscapes	1	1	[0, 0, 0]	n/a	catFR1	0	R1204T
234.015	1.082	311466	REC_WORD	2.772	n/a	LEVEL	Tools	3	1	[0, 0, 0]	n/a	catFR1	0	R1204T
235.097	0.555	312548	REC_WORD	3.854	n/a	DRILL	Tools	8	1	[0, 0, 0]	n/a	catFR1	0	R1204T
235.652	0.868	313102	REC_WORD	4.409	n/a	HAMMER	Tools	4	1	[0, 0, 0]	n/a	catFR1	0	R1204T
236.52	1.128	313970	REC_WORD	5.277	n/a	BANANA	Fruit	6	1	[0, 0, 0]	n/a	catFR1	0	R1204T
237.648	2.397	315098	REC_WORD	6.405	n/a	PEACH	Fruit	5	1	[0, 0, 0]	n/a	catFR1	0	R1204T
240.045	3.453	317495	REC_WORD_VV	8.802	n/a	<>	n/a	-999	1	[0, 0, 0]	n/a	catFR1	0	R1204T
243.498	0.964	320948	REC_WORD_VV	12.255	n/a	<>	n/a	-999	1	[0, 0, 0]	n/a	catFR1	0	R1204T
244.462	0.568	321912	REC_WORD	13.219	n/a	STREAM	Landscapes	2	1	[0, 0, 0]	n/a	catFR1	0	R1204T
245.03	3.326	322480	REC_WORD_VV	13.787	n/a	<>	n/a	-999	1	[0, 0, 0]	n/a	catFR1	0	R1204T
248.356	5.324	325806	REC_WORD_VV	17.113	n/a	<>	n/a	-999	1	[0, 0, 0]	n/a	catFR1	0	R1204T
253.68	7.575	331129	REC_WORD_VV	22.437	n/a	<>	n/a	-999	1	[0, 0, 0]	n/a	catFR1	0	R1204T
261.255	43.967	338704	REC_END	n/a	n/a	n/a	n/a	-999	1	[0, 0, 0]	n/a	catFR1	0	R1204T
305.222	0.5	382668	TRIAL	n/a	n/a	n/a	n/a	-999	2	[0, 0, 0]	n/a	catFR1	0	R1204T
305.722	10.0	383168	COUNTDOWN_START	n/a	n/a	n/a	n/a	-999	2	[0, 0, 0]	n/a	catFR1	0	R1204T
316.15	0.008	393596	COUNTDOWN_END	n/a	n/a	n/a	n/a	-999	2	[0, 0, 0]	n/a	catFR1	0	R1204T
316.158	1.6	393604	ORIENT	n/a	n/a	n/a	n/a	-999	2	[0, 0, 0]	n/a	catFR1	0	R1204T
317.774	2.084	395220	ORIENT_OFF	n/a	n/a	n/a	n/a	-999	2	[0, 0, 0]	n/a	catFR1	0	R1204T
319.858	1.6	397303	WORD	n/a	wordpools/wordpool_categorized_EN.txt	SANDER	Tools	1	2	[0, 0, 0]	n/a	catFR1	0	R1204T
321.474	0.951	398919	WORD_OFF	n/a	n/a	SANDER	n/a	1	2	[0, 0, 0]	n/a	catFR1	0	R1204T
322.425	1.6	399870	WORD	n/a	wordpools/wordpool_categorized_EN.txt	WRENCH	Tools	2	2	[0, 0, 0]	n/a	catFR1	0	R1204T
324.043	0.85	401488	WORD_OFF	n/a	n/a	WRENCH	n/a	2	2	[0, 0, 0]	n/a	catFR1	0	R1204T
324.893	1.6	402338	WORD	n/a	wordpools/wordpool_categorized_EN.txt	PIG	FarmAnimals	3	2	[0, 0, 0]	n/a	catFR1	0	R1204T
326.509	0.983	403954	WORD_OFF	n/a	n/a	PIG	n/a	3	2	[0, 0, 0]	n/a	catFR1	0	R1204T
327.492	1.6	404937	WORD	n/a	wordpools/wordpool_categorized_EN.txt	GOAT	FarmAnimals	4	2	[0, 0, 0]	n/a	catFR1	0	R1204T
329.093	0.917	406538	WORD_OFF	n/a	n/a	GOAT	n/a	4	2	[0, 0, 0]	n/a	catFR1	0	R1204T
330.01	1.6	407455	WORD	n/a	wordpools/wordpool_categorized_EN.txt	BLOCKS	Toys	5	2	[0, 0, 0]	n/a	catFR1	0	R1204T
331.626	0.884	409071	WORD_OFF	n/a	n/a	BLOCKS	n/a	5	2	[0, 0, 0]	n/a	catFR1	0	R1204T
332.51	1.6	409955	WORD	n/a	wordpools/wordpool_categorized_EN.txt	DOLL	Toys	6	2	[0, 0, 0]	n/a	catFR1	0	R1204T
334.128	0.767	411573	WORD_OFF	n/a	n/a	DOLL	n/a	6	2	[0, 0, 0]	n/a	catFR1	0	R1204T
334.895	1.6	412339	WORD	n/a	wordpools/wordpool_categorized_EN.txt	CALF	FarmAnimals	7	2	[0, 0, 0]	n/a	catFR1	0	R1204T
336.51	0.917	413954	WORD_OFF	n/a	n/a	CALF	n/a	7	2	[0, 0, 0]	n/a	catFR1	0	R1204T
337.427	1.6	414871	WORD	n/a	wordpools/wordpool_categorized_EN.txt	LAMB	FarmAnimals	8	2	[0, 0, 0]	n/a	catFR1	0	R1204T
339.045	0.95	416489	WORD_OFF	n/a	n/a	LAMB	n/a	8	2	[0, 0, 0]	n/a	catFR1	0	R1204T
339.995	1.6	417439	WORD	n/a	wordpools/wordpool_categorized_EN.txt	RATCHET	Tools	9	2	[0, 0, 0]	n/a	catFR1	0	R1204T
341.611	0.784	419055	WORD_OFF	n/a	n/a	RATCHET	n/a	9	2	[0, 0, 0]	n/a	catFR1	0	R1204T
342.395	1.6	419839	WORD	n/a	wordpools/wordpool_categorized_EN.txt	PLIERS	Tools	10	2	[0, 0, 0]	n/a	catFR1	0	R1204T
344.013	0.983	421457	WORD_OFF	n/a	n/a	PLIERS	n/a	10	2	[0, 0, 0]	n/a	catFR1	0	R1204T
344.996	1.6	422440	WORD	n/a	wordpools/wordpool_categorized_EN.txt	FRISBEE	Toys	11	2	[0, 0, 0]	n/a	catFR1	0	R1204T
346.612	0.834	424056	WORD_OFF	n/a	n/a	FRISBEE	n/a	11	2	[0, 0, 0]	n/a	catFR1	0	R1204T
347.446	1.6	424890	WORD	n/a	wordpools/wordpool_categorized_EN.txt	PUZZLE	Toys	12	2	[0, 0, 0]	n/a	catFR1	0	R1204T
349.064	0.0	426508	WORD_OFF	n/a	n/a	PUZZLE	n/a	12	2	[0, 0, 0]	n/a	catFR1	0	R1204T
349.064	0.102	426508	ENCODING_END	n/a	n/a	n/a	n/a	-999	2	[0, 0, 0]	n/a	catFR1	0	R1204T
349.166	0.0	426610	DISTRACT_START	n/a	n/a	n/a	n/a	-999	2	[0, 0, 0]	n/a	catFR1	0	R1204T
349.166	0.014	426610	START	n/a	n/a	n/a	n/a	-999	2	[-999, -999, -999]	n/a	catFR1	0	R1204T
349.18	11.151	426624	PROB	11.129	n/a	n/a	n/a	-999	2	[5, 8, 7]	20.0	catFR1	0	R1204T
360.331	5.486	437774	PROB	5.457	n/a	n/a	n/a	-999	2	[7, 8, 7]	22.0	catFR1	0	R1204T
365.817	6.444	443260	PROB	6.444	n/a	n/a	n/a	-999	2	[1, 9, 7]	17.0	catFR1	0	R1204T
372.261	0.007	449703	STOP	n/a	n/a	n/a	n/a	-999	2	[-999, -999, -999]	n/a	catFR1	0	R1204T
372.268	0.667	449710	DISTRACT_END	n/a	n/a	n/a	n/a	-999	2	[0, 0, 0]	n/a	catFR1	0	R1204T
372.935	0.516	450377	RETRIEVAL_ORIENT	n/a	n/a	n/a	n/a	-999	2	[0, 0, 0]	n/a	catFR1	0	R1204T
373.451	0.938	450893	REC_START	n/a	n/a	n/a	n/a	-999	2	[0, 0, 0]	n/a	catFR1	0	R1204T
374.389	0.383	451831	REC_WORD_VV	0.938	n/a	<>	n/a	-999	2	[0, 0, 0]	n/a	catFR1	0	R1204T
374.772	0.983	452214	REC_WORD	1.321	n/a	SANDER	Tools	1	2	[0, 0, 0]	n/a	catFR1	0	R1204T
375.755	2.436	453197	REC_WORD	2.304	n/a	WRENCH	Tools	2	2	[0, 0, 0]	n/a	catFR1	0	R1204T
378.191	0.916	455633	REC_WORD_VV	4.74	n/a	<>	n/a	-999	2	[0, 0, 0]	n/a	catFR1	0	R1204T
379.107	1.92	456549	REC_WORD	5.656	n/a	PLIERS	Tools	10	2	[0, 0, 0]	n/a	catFR1	0	R1204T
381.027	1.915	458469	REC_WORD_VV	7.576	n/a	<>	n/a	-999	2	[0, 0, 0]	n/a	catFR1	0	R1204T
382.942	3.168	460384	REC_WORD	9.491	n/a	RATCHET	Tools	9	2	[0, 0, 0]	n/a	catFR1	0	R1204T
386.11	3.25	463551	REC_WORD_VV	12.659	n/a	<>	n/a	-999	2	[0, 0, 0]	n/a	catFR1	0	R1204T
389.36	3.422	466801	REC_WORD_VV	15.909	n/a	<>	n/a	-999	2	[0, 0, 0]	n/a	catFR1	0	R1204T
392.782	2.788	470223	REC_WORD_VV	19.331	n/a	<>	n/a	-999	2	[0, 0, 0]	n/a	catFR1	0	R1204T
395.57	2.022	473011	REC_WORD_VV	22.119	n/a	<>	n/a	-999	2	[0, 0, 0]	n/a	catFR1	0	R1204T
397.592	0.708	475033	REC_WORD	24.141	n/a	PIG	FarmAnimals	3	2	[0, 0, 0]	n/a	catFR1	0	R1204T
398.3	5.163	475741	REC_WORD_VV	24.849	n/a	<>	n/a	-999	2	[0, 0, 0]	n/a	catFR1	0	R1204T
403.463	9.612	480903	REC_END	n/a	n/a	n/a	n/a	-999	2	[0, 0, 0]	n/a	catFR1	0	R1204T
413.075	0.5	490515	TRIAL	n/a	n/a	n/a	n/a	-999	3	[0, 0, 0]	n/a	catFR1	0	R1204T
413.575	10.0	491015	COUNTDOWN_START	n/a	n/a	n/a	n/a	-999	3	[0, 0, 0]	n/a	catFR1	0	R1204T
424.003	0.008	501442	COUNTDOWN_END	n/a	n/a	n/a	n/a	-999	3	[0, 0, 0]	n/a	catFR1	0	R1204T
424.011	1.6	501450	ORIENT	n/a	n/a	n/a	n/a	-999	3	[0, 0, 0]	n/a	catFR1	0	R1204T
425.627	2.083	503066	ORIENT_OFF	n/a	n/a	n/a	n/a	-999	3	[0, 0, 0]	n/a	catFR1	0	R1204T
427.71	1.6	505149	WORD	n/a	wordpools/wordpool_categorized_EN.txt	COOKIE	Desserts	1	3	[0, 0, 0]	n/a	catFR1	0	R1204T
429.327	0.951	506766	WORD_OFF	n/a	n/a	COOKIE	n/a	1	3	[0, 0, 0]	n/a	catFR1	0	R1204T
430.278	1.6	507717	WORD	n/a	wordpools/wordpool_categorized_EN.txt	CAKE	Desserts	2	3	[0, 0, 0]	n/a	catFR1	0	R1204T
431.895	0.934	509334	WORD_OFF	n/a	n/a	CAKE	n/a	2	3	[0, 0, 0]	n/a	catFR1	0	R1204T
432.829	1.6	510268	WORD	n/a	wordpools/wordpool_categorized_EN.txt	STRAINER	KitchenTools	3	3	[0, 0, 0]	n/a	catFR1	0	R1204T
434.445	0.868	511884	WORD_OFF	n/a	n/a	STRAINER	n/a	3	3	[0, 0, 0]	n/a	catFR1	0	R1204T
435.313	1.6	512751	WORD	n/a	wordpools/wordpool_categorized_EN.txt	CORKSCREW	KitchenTools	4	3	[0, 0, 0]	n/a	catFR1	0	R1204T
436.93	0.967	514368	WORD_OFF	n/a	n/a	CORKSCREW	n/a	4	3	[0, 0, 0]	n/a	catFR1	0	R1204T
437.897	1.6	515335	WORD	n/a	wordpools/wordpool_categorized_EN.txt	POTATO	Vegetables	5	3	[0, 0, 0]	n/a	catFR1	0	R1204T
439.512	0.817	516950	WORD_OFF	n/a	n/a	POTATO	n/a	5	3	[0, 0, 0]	n/a	catFR1	0	R1204T
440.329	1.6	517767	WORD	n/a	wordpools/wordpool_categorized_EN.txt	CABBAGE	Vegetables	6	3	[0, 0, 0]	n/a	catFR1	0	R1204T
441.947	0.967	519385	WORD_OFF	n/a	n/a	CABBAGE	n/a	6	3	[0, 0, 0]	n/a	catFR1	0	R1204T
442.914	1.6	520352	WORD	n/a	wordpools/wordpool_categorized_EN.txt	WHISK	KitchenTools	7	3	[0, 0, 0]	n/a	catFR1	0	R1204T
444.53	0.934	521968	WORD_OFF	n/a	n/a	WHISK	n/a	7	3	[0, 0, 0]	n/a	catFR1	0	R1204T
445.464	1.6	522902	WORD	n/a	wordpools/wordpool_categorized_EN.txt	PEELER	KitchenTools	8	3	[0, 0, 0]	n/a	catFR1	0	R1204T
447.081	0.934	524519	WORD_OFF	n/a	n/a	PEELER	n/a	8	3	[0, 0, 0]	n/a	catFR1	0	R1204T
448.015	1.6	525453	WORD	n/a	wordpools/wordpool_categorized_EN.txt	PUDDING	Desserts	9	3	[0, 0, 0]	n/a	catFR1	0	R1204T
449.631	0.9	527069	WORD_OFF	n/a	n/a	PUDDING	n/a	9	3	[0, 0, 0]	n/a	catFR1	0	R1204T
450.531	1.6	527969	WORD	n/a	wordpools/wordpool_categorized_EN.txt	BROWNIES	Desserts	10	3	[0, 0, 0]	n/a	catFR1	0	R1204T
452.149	0.984	529586	WORD_OFF	n/a	n/a	BROWNIES	n/a	10	3	[0, 0, 0]	n/a	catFR1	0	R1204T
453.133	1.6	530570	WORD	n/a	wordpools/wordpool_categorized_EN.txt	ONION	Vegetables	11	3	[0, 0, 0]	n/a	catFR1	0	R1204T
454.749	0.783	532186	WORD_OFF	n/a	n/a	ONION	n/a	11	3	[0, 0, 0]	n/a	catFR1	0	R1204T
455.532	1.6	532969	WORD	n/a	wordpools/wordpool_categorized_EN.txt	SPINACH	Vegetables	12	3	[0, 0, 0]	n/a	catFR1	0	R1204T
457.133	0.0	534570	ENCODING_END	n/a	n/a	n/a	n/a	-999	3	[0, 0, 0]	n/a	catFR1	0	R1204T
457.133	0.103	534570	WORD_OFF	n/a	n/a	SPINACH	n/a	12	3	[0, 0, 0]	n/a	catFR1	0	R1204T
457.236	0.0	534673	DISTRACT_START	n/a	n/a	n/a	n/a	-999	3	[0, 0, 0]	n/a	catFR1	0	R1204T
457.236	0.014	534673	START	n/a	n/a	n/a	n/a	-999	3	[-999, -999, -999]	n/a	catFR1	0	R1204T
457.25	14.036	534687	PROB	14.011	n/a	n/a	n/a	-999	3	[8, 3, 7]	18.0	catFR1	0	R1204T
471.286	6.847	548722	PROB	6.847	n/a	n/a	n/a	-999	3	[3, 5, 6]	14.0	catFR1	0	R1204T
478.133	0.021	555569	STOP	n/a	n/a	n/a	n/a	-999	3	[-999, -999, -999]	n/a	catFR1	0	R1204T
478.154	0.532	555590	DISTRACT_END	n/a	n/a	n/a	n/a	-999	3	[0, 0, 0]	n/a	catFR1	0	R1204T
478.686	0.519	556122	RETRIEVAL_ORIENT	n/a	n/a	n/a	n/a	-999	3	[0, 0, 0]	n/a	catFR1	0	R1204T
479.205	1.475	556641	REC_START	n/a	n/a	n/a	n/a	-999	3	[0, 0, 0]	n/a	catFR1	0	R1204T
480.68	1.563	558116	REC_WORD_VV	1.475	n/a	<>	n/a	-999	3	[0, 0, 0]	n/a	catFR1	0	R1204T
482.243	0.55	559679	REC_WORD	3.038	n/a	COOKIE	Desserts	1	3	[0, 0, 0]	n/a	catFR1	0	R1204T
482.793	1.356	560229	REC_WORD	3.588	n/a	POTATO	Vegetables	5	3	[0, 0, 0]	n/a	catFR1	0	R1204T
484.149	2.122	561585	REC_WORD	4.944	n/a	PEELER	KitchenTools	8	3	[0, 0, 0]	n/a	catFR1	0	R1204T
486.271	16.601	563706	REC_WORD_VV	7.066	n/a	<>	n/a	-999	3	[0, 0, 0]	n/a	catFR1	0	R1204T
502.872	3.81	580306	REC_WORD_VV	23.667	n/a	<>	n/a	-999	3	[0, 0, 0]	n/a	catFR1	0	R1204T
506.682	0.998	584116	REC_WORD	27.477	n/a	BROWNIES	Desserts	10	3	[0, 0, 0]	n/a	catFR1	0	R1204T
507.68	1.537	585114	REC_WORD_VV	28.475	n/a	<>	n/a	-999	3	[0, 0, 0]	n/a	catFR1	0	R1204T
509.217	25.03	586651	REC_END	n/a	n/a	n/a	n/a	-999	3	[0, 0, 0]	n/a	catFR1	0	R1204T
534.247	0.5	611680	TRIAL	n/a	n/a	n/a	n/a	-999	4	[0, 0, 0]	n/a	catFR1	0	R1204T
534.747	10.0	612179	COUNTDOWN_START	n/a	n/a	n/a	n/a	-999	4	[0, 0, 0]	n/a	catFR1	0	R1204T
545.175	0.008	622607	COUNTDOWN_END	n/a	n/a	n/a	n/a	-999	4	[0, 0, 0]	n/a	catFR1	0	R1204T
545.183	1.6	622615	ORIENT	n/a	n/a	n/a	n/a	-999	4	[0, 0, 0]	n/a	catFR1	0	R1204T
546.799	2.084	624231	ORIENT_OFF	n/a	n/a	n/a	n/a	-999	4	[0, 0, 0]	n/a	catFR1	0	R1204T
548.883	1.6	626315	WORD	n/a	wordpools/wordpool_categorized_EN.txt	BUTTERFLY	Insects	1	4	[0, 0, 0]	n/a	catFR1	0	R1204T
550.499	0.951	627931	WORD_OFF	n/a	n/a	BUTTERFLY	n/a	1	4	[0, 0, 0]	n/a	catFR1	0	R1204T
551.45	1.6	628881	WORD	n/a	wordpools/wordpool_categorized_EN.txt	ROACH	Insects	2	4	[0, 0, 0]	n/a	catFR1	0	R1204T
553.068	0.833	630499	WORD_OFF	n/a	n/a	ROACH	n/a	2	4	[0, 0, 0]	n/a	catFR1	0	R1204T
553.901	1.6	631332	WORD	n/a	wordpools/wordpool_categorized_EN.txt	SLINKY	Toys	3	4	[0, 0, 0]	n/a	catFR1	0	R1204T
555.517	0.917	632948	WORD_OFF	n/a	n/a	SLINKY	n/a	3	4	[0, 0, 0]	n/a	catFR1	0	R1204T
556.434	1.6	633865	WORD	n/a	wordpools/wordpool_categorized_EN.txt	BARBIE	Toys	4	4	[0, 0, 0]	n/a	catFR1	0	R1204T
558.052	0.967	635483	WORD_OFF	n/a	n/a	BARBIE	n/a	4	4	[0, 0, 0]	n/a	catFR1	0	R1204T
559.019	1.6	636450	WORD	n/a	wordpools/wordpool_categorized_EN.txt	TRAIN	Vehicles	5	4	[0, 0, 0]	n/a	catFR1	0	R1204T
560.635	0.883	638066	WORD_OFF	n/a	n/a	TRAIN	n/a	5	4	[0, 0, 0]	n/a	catFR1	0	R1204T
561.518	1.6	638949	WORD	n/a	wordpools/wordpool_categorized_EN.txt	JEEP	Vehicles	6	4	[0, 0, 0]	n/a	catFR1	0	R1204T
563.136	0.867	640567	WORD_OFF	n/a	n/a	JEEP	n/a	6	4	[0, 0, 0]	n/a	catFR1	0	R1204T
564.003	1.6	641434	WORD	n/a	wordpools/wordpool_categorized_EN.txt	FOOTBALL	Toys	7	4	[0, 0, 0]	n/a	catFR1	0	R1204T
565.619	0.933	643050	WORD_OFF	n/a	n/a	FOOTBALL	n/a	7	4	[0, 0, 0]	n/a	catFR1	0	R1204T
566.552	1.6	643983	WORD	n/a	wordpools/wordpool_categorized_EN.txt	MARBLES	Toys	8	4	[0, 0, 0]	n/a	catFR1	0	R1204T
568.17	0.784	645600	WORD_OFF	n/a	n/a	MARBLES	n/a	8	4	[0, 0, 0]	n/a	catFR1	0	R1204T
568.954	1.6	646384	WORD	n/a	wordpools/wordpool_categorized_EN.txt	FLY	Insects	9	4	[0, 0, 0]	n/a	catFR1	0	R1204T
570.57	1.0	648000	WORD_OFF	n/a	n/a	FLY	n/a	9	4	[0, 0, 0]	n/a	catFR1	0	R1204T
571.57	1.6	649000	WORD	n/a	wordpools/wordpool_categorized_EN.txt	MOTH	Insects	10	4	[0, 0, 0]	n/a	catFR1	0	R1204T
573.188	0.783	650618	WORD_OFF	n/a	n/a	MOTH	n/a	10	4	[0, 0, 0]	n/a	catFR1	0	R1204T
573.971	1.6	651401	WORD	n/a	wordpools/wordpool_categorized_EN.txt	BOAT	Vehicles	11	4	[0, 0, 0]	n/a	catFR1	0	R1204T
575.587	1.017	653017	WORD_OFF	n/a	n/a	BOAT	n/a	11	4	[0, 0, 0]	n/a	catFR1	0	R1204T
576.604	1.6	654034	WORD	n/a	wordpools/wordpool_categorized_EN.txt	SCOOTER	Vehicles	12	4	[0, 0, 0]	n/a	catFR1	0	R1204T
578.222	0.0	655652	ENCODING_END	n/a	n/a	n/a	n/a	-999	4	[0, 0, 0]	n/a	catFR1	0	R1204T
578.222	0.131	655652	WORD_OFF	n/a	n/a	SCOOTER	n/a	12	4	[0, 0, 0]	n/a	catFR1	0	R1204T
578.353	0.0	655783	DISTRACT_START	n/a	n/a	n/a	n/a	-999	4	[0, 0, 0]	n/a	catFR1	0	R1204T
578.353	0.018	655783	START	n/a	n/a	n/a	n/a	-999	4	[-999, -999, -999]	n/a	catFR1	0	R1204T
578.371	4.885	655801	PROB	4.85	n/a	n/a	n/a	-999	4	[5, 2, 7]	14.0	catFR1	0	R1204T
583.256	5.935	660686	PROB	5.91	n/a	n/a	n/a	-999	4	[4, 3, 2]	9.0	catFR1	0	R1204T
589.191	6.35	666620	PROB	6.325	n/a	n/a	n/a	-999	4	[7, 4, 9]	20.0	catFR1	0	R1204T
595.541	4.56	672970	PROB	4.56	n/a	n/a	n/a	-999	4	[1, 5, 8]	14.0	catFR1	0	R1204T
600.101	0.009	677530	STOP	n/a	n/a	n/a	n/a	-999	4	[-999, -999, -999]	n/a	catFR1	0	R1204T
600.11	0.599	677539	DISTRACT_END	n/a	n/a	n/a	n/a	-999	4	[0, 0, 0]	n/a	catFR1	0	R1204T
600.709	0.518	678138	RETRIEVAL_ORIENT	n/a	n/a	n/a	n/a	-999	4	[0, 0, 0]	n/a	catFR1	0	R1204T
601.227	1.481	678655	REC_START	n/a	n/a	n/a	n/a	-999	4	[0, 0, 0]	n/a	catFR1	0	R1204T
602.708	1.002	680136	REC_WORD	1.481	n/a	BUTTERFLY	Insects	1	4	[0, 0, 0]	n/a	catFR1	0	R1204T
603.71	0.778	681138	REC_WORD	2.483	n/a	ROACH	Insects	2	4	[0, 0, 0]	n/a	catFR1	0	R1204T
604.488	0.771	681916	REC_WORD	3.261	n/a	BARBIE	Toys	4	4	[0, 0, 0]	n/a	catFR1	0	R1204T
605.259	2.144	682687	REC_WORD	4.032	n/a	SLINKY	Toys	3	4	[0, 0, 0]	n/a	catFR1	0	R1204T
607.403	2.741	684831	REC_WORD_VV	6.176	n/a	<>	n/a	-999	4	[0, 0, 0]	n/a	catFR1	0	R1204T
610.144	9.461	687572	REC_WORD_VV	8.917	n/a	<>	n/a	-999	4	[0, 0, 0]	n/a	catFR1	0	R1204T
619.605	1.734	697032	REC_WORD_VV	18.378	n/a	<>	n/a	-999	4	[0, 0, 0]	n/a	catFR1	0	R1204T
621.339	3.018	698766	REC_WORD	20.112	n/a	MOTH	Insects	10	4	[0, 0, 0]	n/a	catFR1	0	R1204T
624.357	6.881	701784	REC_WORD_VV	23.13	n/a	<>	n/a	-999	4	[0, 0, 0]	n/a	catFR1	0	R1204T
631.238	15.63	708665	REC_END	n/a	n/a	n/a	n/a	-999	4	[0, 0, 0]	n/a	catFR1	0	R1204T
646.868	0.5	724294	TRIAL	n/a	n/a	n/a	n/a	-999	5	[0, 0, 0]	n/a	catFR1	0	R1204T
647.368	10.0	724794	COUNTDOWN_START	n/a	n/a	n/a	n/a	-999	5	[0, 0, 0]	n/a	catFR1	0	R1204T
657.796	0.007	735221	COUNTDOWN_END	n/a	n/a	n/a	n/a	-999	5	[0, 0, 0]	n/a	catFR1	0	R1204T
657.803	1.6	735228	ORIENT	n/a	n/a	n/a	n/a	-999	5	[0, 0, 0]	n/a	catFR1	0	R1204T
659.419	1.967	736844	ORIENT_OFF	n/a	n/a	n/a	n/a	-999	5	[0, 0, 0]	n/a	catFR1	0	R1204T
661.386	1.6	738811	WORD	n/a	wordpools/wordpool_categorized_EN.txt	CHAIR	Furniture	1	5	[0, 0, 0]	n/a	catFR1	0	R1204T
663.004	0.85	740429	WORD_OFF	n/a	n/a	CHAIR	n/a	1	5	[0, 0, 0]	n/a	catFR1	0	R1204T
663.854	1.6	741279	WORD	n/a	wordpools/wordpool_categorized_EN.txt	DESK	Furniture	2	5	[0, 0, 0]	n/a	catFR1	0	R1204T
665.47	0.785	742895	WORD_OFF	n/a	n/a	DESK	n/a	2	5	[0, 0, 0]	n/a	catFR1	0	R1204T
666.255	1.6	743680	WORD	n/a	wordpools/wordpool_categorized_EN.txt	CHEESECAKE	Desserts	3	5	[0, 0, 0]	n/a	catFR1	0	R1204T
667.872	0.983	745296	WORD_OFF	n/a	n/a	CHEESECAKE	n/a	3	5	[0, 0, 0]	n/a	catFR1	0	R1204T
668.855	1.6	746279	WORD	n/a	wordpools/wordpool_categorized_EN.txt	PIE	Desserts	4	5	[0, 0, 0]	n/a	catFR1	0	R1204T
670.471	1.0	747895	WORD_OFF	n/a	n/a	PIE	n/a	4	5	[0, 0, 0]	n/a	catFR1	0	R1204T
671.471	1.6	748895	WORD	n/a	wordpools/wordpool_categorized_EN.txt	TURKEY	FarmAnimals	5	5	[0, 0, 0]	n/a	catFR1	0	R1204T
673.072	1.001	750496	WORD_OFF	n/a	n/a	TURKEY	n/a	5	5	[0, 0, 0]	n/a	catFR1	0	R1204T
674.073	1.6	751497	WORD	n/a	wordpools/wordpool_categorized_EN.txt	SHEEP	FarmAnimals	6	5	[0, 0, 0]	n/a	catFR1	0	R1204T
675.689	0.783	753113	WORD_OFF	n/a	n/a	SHEEP	n/a	6	5	[0, 0, 0]	n/a	catFR1	0	R1204T
676.472	1.6	753896	WORD	n/a	wordpools/wordpool_categorized_EN.txt	BED	Furniture	7	5	[0, 0, 0]	n/a	catFR1	0	R1204T
678.09	0.884	755514	WORD_OFF	n/a	n/a	BED	n/a	7	5	[0, 0, 0]	n/a	catFR1	0	R1204T
678.974	1.6	756398	WORD	n/a	wordpools/wordpool_categorized_EN.txt	TABLE	Furniture	8	5	[0, 0, 0]	n/a	catFR1	0	R1204T
680.59	0.867	758014	WORD_OFF	n/a	n/a	TABLE	n/a	8	5	[0, 0, 0]	n/a	catFR1	0	R1204T
681.457	1.6	758881	WORD	n/a	wordpools/wordpool_categorized_EN.txt	JELLO	Desserts	9	5	[0, 0, 0]	n/a	catFR1	0	R1204T
683.074	0.934	760498	WORD_OFF	n/a	n/a	JELLO	n/a	9	5	[0, 0, 0]	n/a	catFR1	0	R1204T
684.008	1.6	761432	WORD	n/a	wordpools/wordpool_categorized_EN.txt	PASTRY	Desserts	10	5	[0, 0, 0]	n/a	catFR1	0	R1204T
685.624	0.9	763047	WORD_OFF	n/a	n/a	PASTRY	n/a	10	5	[0, 0, 0]	n/a	catFR1	0	R1204T
686.524	1.6	763947	WORD	n/a	wordpools/wordpool_categorized_EN.txt	COW	FarmAnimals	11	5	[0, 0, 0]	n/a	catFR1	0	R1204T
688.125	0.967	765548	WORD_OFF	n/a	n/a	COW	n/a	11	5	[0, 0, 0]	n/a	catFR1	0	R1204T
689.092	1.6	766515	WORD	n/a	wordpools/wordpool_categorized_EN.txt	HORSE	FarmAnimals	12	5	[0, 0, 0]	n/a	catFR1	0	R1204T
690.708	0.0	768131	WORD_OFF	n/a	n/a	HORSE	n/a	12	5	[0, 0, 0]	n/a	catFR1	0	R1204T
690.708	0.104	768131	ENCODING_END	n/a	n/a	n/a	n/a	-999	5	[0, 0, 0]	n/a	catFR1	0	R1204T
690.812	0.0	768235	DISTRACT_START	n/a	n/a	n/a	n/a	-999	5	[0, 0, 0]	n/a	catFR1	0	R1204T
690.812	0.014	768235	START	n/a	n/a	n/a	n/a	-999	5	[-999, -999, -999]	n/a	catFR1	0	R1204T
690.826	6.184	768249	PROB	6.147	n/a	n/a	n/a	-999	5	[2, 5, 7]	14.0	catFR1	0	R1204T
697.01	9.751	774433	PROB	9.714	n/a	n/a	n/a	-999	5	[4, 9, 8]	21.0	catFR1	0	R1204T
706.761	7.819	784183	PROB	7.819	n/a	n/a	n/a	-999	5	[9, 4, 3]	16.0	catFR1	0	R1204T
714.58	0.016	792002	STOP	n/a	n/a	n/a	n/a	-999	5	[-999, -999, -999]	n/a	catFR1	0	R1204T
714.596	0.534	792018	DISTRACT_END	n/a	n/a	n/a	n/a	-999	5	[0, 0, 0]	n/a	catFR1	0	R1204T
715.13	0.517	792552	RETRIEVAL_ORIENT	n/a	n/a	n/a	n/a	-999	5	[0, 0, 0]	n/a	catFR1	0	R1204T
715.647	1.678	793069	REC_START	n/a	n/a	n/a	n/a	-999	5	[0, 0, 0]	n/a	catFR1	0	R1204T
717.325	0.769	794747	REC_WORD	1.678	n/a	CHAIR	Furniture	1	5	[0, 0, 0]	n/a	catFR1	0	R1204T
718.094	0.841	795515	REC_WORD	2.447	n/a	DESK	Furniture	2	5	[0, 0, 0]	n/a	catFR1	0	R1204T
718.935	2.581	796356	REC_WORD	3.288	n/a	TABLE	Furniture	8	5	[0, 0, 0]	n/a	catFR1	0	R1204T
721.516	0.798	798937	REC_WORD	5.869	n/a	COW	FarmAnimals	11	5	[0, 0, 0]	n/a	catFR1	0	R1204T
722.314	3.461	799735	REC_WORD	6.667	n/a	SHEEP	FarmAnimals	6	5	[0, 0, 0]	n/a	catFR1	0	R1204T
725.775	19.883	803196	REC_WORD_VV	10.128	n/a	<>	n/a	-999	5	[0, 0, 0]	n/a	catFR1	0	R1204T
745.658	7.745	823078	REC_END	n/a	n/a	n/a	n/a	-999	5	[0, 0, 0]	n/a	catFR1	0	R1204T
753.403	0.5	830822	TRIAL	n/a	n/a	n/a	n/a	-999	6	[0, 0, 0]	n/a	catFR1	0	R1204T
753.903	10.0	831322	COUNTDOWN_START	n/a	n/a	n/a	n/a	-999	6	[0, 0, 0]	n/a	catFR1	0	R1204T
764.331	0.007	841750	COUNTDOWN_END	n/a	n/a	n/a	n/a	-999	6	[0, 0, 0]	n/a	catFR1	0	R1204T
764.338	1.6	841757	ORIENT	n/a	n/a	n/a	n/a	-999	6	[0, 0, 0]	n/a	catFR1	0	R1204T
765.956	2.117	843375	ORIENT_OFF	n/a	n/a	n/a	n/a	-999	6	[0, 0, 0]	n/a	catFR1	0	R1204T
768.073	1.6	845491	WORD	n/a	wordpools/wordpool_categorized_EN.txt	LEG	BodyParts	1	6	[0, 0, 0]	n/a	catFR1	0	R1204T
769.689	0.9	847107	WORD_OFF	n/a	n/a	LEG	n/a	1	6	[0, 0, 0]	n/a	catFR1	0	R1204T
770.589	1.6	848007	WORD	n/a	wordpools/wordpool_categorized_EN.txt	EAR	BodyParts	2	6	[0, 0, 0]	n/a	catFR1	0	R1204T
772.19	0.868	849608	WORD_OFF	n/a	n/a	EAR	n/a	2	6	[0, 0, 0]	n/a	catFR1	0	R1204T
773.058	1.6	850476	WORD	n/a	wordpools/wordpool_categorized_EN.txt	THUNDERSTORM	Weather	3	6	[0, 0, 0]	n/a	catFR1	0	R1204T
774.674	0.983	852092	WORD_OFF	n/a	n/a	THUNDERSTORM	n/a	3	6	[0, 0, 0]	n/a	catFR1	0	R1204T
775.657	1.6	853075	WORD	n/a	wordpools/wordpool_categorized_EN.txt	HURRICANE	Weather	4	6	[0, 0, 0]	n/a	catFR1	0	R1204T
777.275	0.833	854693	WORD_OFF	n/a	n/a	HURRICANE	n/a	4	6	[0, 0, 0]	n/a	catFR1	0	R1204T
778.108	1.6	855526	WORD	n/a	wordpools/wordpool_categorized_EN.txt	AXE	Tools	5	6	[0, 0, 0]	n/a	catFR1	0	R1204T
779.724	0.817	857142	WORD_OFF	n/a	n/a	AXE	n/a	5	6	[0, 0, 0]	n/a	catFR1	0	R1204T
780.541	1.6	857959	WORD	n/a	wordpools/wordpool_categorized_EN.txt	SAW	Tools	6	6	[0, 0, 0]	n/a	catFR1	0	R1204T
782.159	0.934	859577	WORD_OFF	n/a	n/a	SAW	n/a	6	6	[0, 0, 0]	n/a	catFR1	0	R1204T
783.093	1.6	860511	WORD	n/a	wordpools/wordpool_categorized_EN.txt	FOOT	BodyParts	7	6	[0, 0, 0]	n/a	catFR1	0	R1204T
784.709	0.816	862126	WORD_OFF	n/a	n/a	FOOT	n/a	7	6	[0, 0, 0]	n/a	catFR1	0	R1204T
785.525	1.6	862942	WORD	n/a	wordpools/wordpool_categorized_EN.txt	FINGERS	BodyParts	8	6	[0, 0, 0]	n/a	catFR1	0	R1204T
787.143	0.884	864560	WORD_OFF	n/a	n/a	FINGERS	n/a	8	6	[0, 0, 0]	n/a	catFR1	0	R1204T
788.027	1.6	865444	WORD	n/a	wordpools/wordpool_categorized_EN.txt	WIND	Weather	9	6	[0, 0, 0]	n/a	catFR1	0	R1204T
789.643	0.95	867060	WORD_OFF	n/a	n/a	WIND	n/a	9	6	[0, 0, 0]	n/a	catFR1	0	R1204T
790.593	1.6	868010	WORD	n/a	wordpools/wordpool_categorized_EN.txt	SNOW	Weather	10	6	[0, 0, 0]	n/a	catFR1	0	R1204T
792.211	0.8	869628	WORD_OFF	n/a	n/a	SNOW	n/a	10	6	[0, 0, 0]	n/a	catFR1	0	R1204T
793.011	1.6	870428	WORD	n/a	wordpools/wordpool_categorized_EN.txt	SHOVEL	Tools	11	6	[0, 0, 0]	n/a	catFR1	0	R1204T
794.627	0.8	872044	WORD_OFF	n/a	n/a	SHOVEL	n/a	11	6	[0, 0, 0]	n/a	catFR1	0	R1204T
795.427	1.6	872844	WORD	n/a	wordpools/wordpool_categorized_EN.txt	CROWBAR	Tools	12	6	[0, 0, 0]	n/a	catFR1	0	R1204T
797.045	0.0	874462	ENCODING_END	n/a	n/a	n/a	n/a	-999	6	[0, 0, 0]	n/a	catFR1	0	R1204T
797.045	0.103	874462	WORD_OFF	n/a	n/a	CROWBAR	n/a	12	6	[0, 0, 0]	n/a	catFR1	0	R1204T
797.148	0.0	874565	DISTRACT_START	n/a	n/a	n/a	n/a	-999	6	[0, 0, 0]	n/a	catFR1	0	R1204T
797.148	0.014	874565	START	n/a	n/a	n/a	n/a	-999	6	[-999, -999, -999]	n/a	catFR1	0	R1204T
797.162	5.934	874579	PROB	5.907	n/a	n/a	n/a	-999	6	[1, 9, 4]	14.0	catFR1	0	R1204T
803.096	4.118	880512	PROB	4.086	n/a	n/a	n/a	-999	6	[7, 2, 2]	11.0	catFR1	0	R1204T
807.214	4.466	884630	PROB	4.438	n/a	n/a	n/a	-999	6	[7, 3, 8]	18.0	catFR1	0	R1204T
811.68	8.182	889096	PROB	8.182	n/a	n/a	n/a	-999	6	[5, 8, 7]	20.0	catFR1	0	R1204T
819.862	0.021	897277	STOP	n/a	n/a	n/a	n/a	-999	6	[-999, -999, -999]	n/a	catFR1	0	R1204T
819.883	0.515	897298	DISTRACT_END	n/a	n/a	n/a	n/a	-999	6	[0, 0, 0]	n/a	catFR1	0	R1204T
820.398	0.519	897813	RETRIEVAL_ORIENT	n/a	n/a	n/a	n/a	-999	6	[0, 0, 0]	n/a	catFR1	0	R1204T
820.917	1.546	898332	REC_START	n/a	n/a	n/a	n/a	-999	6	[0, 0, 0]	n/a	catFR1	0	R1204T
822.463	0.451	899878	REC_WORD_VV	1.546	n/a	<>	n/a	-999	6	[0, 0, 0]	n/a	catFR1	0	R1204T
822.914	0.624	900329	REC_WORD	1.997	n/a	LEG	BodyParts	1	6	[0, 0, 0]	n/a	catFR1	0	R1204T
823.538	0.644	900953	REC_WORD	2.621	n/a	EAR	BodyParts	2	6	[0, 0, 0]	n/a	catFR1	0	R1204T
824.182	1.592	901597	REC_WORD	3.265	n/a	THUNDERSTORM	Weather	3	6	[0, 0, 0]	n/a	catFR1	0	R1204T
825.774	2.754	903189	REC_WORD	4.857	n/a	HURRICANE	Weather	4	6	[0, 0, 0]	n/a	catFR1	0	R1204T
828.528	1.87	905943	REC_WORD	7.611	n/a	FINGERS	BodyParts	8	6	[0, 0, 0]	n/a	catFR1	0	R1204T
830.398	2.981	907813	REC_WORD	9.481	n/a	TOES	n/a	-999	6	[0, 0, 0]	n/a	catFR1	0	R1204T
833.379	6.068	910794	REC_WORD_VV	12.462	n/a	<>	n/a	-999	6	[0, 0, 0]	n/a	catFR1	0	R1204T
839.447	3.976	916861	REC_WORD_VV	18.53	n/a	<>	n/a	-999	6	[0, 0, 0]	n/a	catFR1	0	R1204T
843.423	7.504	920837	REC_WORD	22.506	n/a	AXE	Tools	5	6	[0, 0, 0]	n/a	catFR1	0	R1204T
850.927	8.013	928340	REC_END	n/a	n/a	n/a	n/a	-999	6	[0, 0, 0]	n/a	catFR1	0	R1204T
858.94	0.5	936353	TRIAL	n/a	n/a	n/a	n/a	-999	7	[0, 0, 0]	n/a	catFR1	0	R1204T
859.44	10.0	936853	COUNTDOWN_START	n/a	n/a	n/a	n/a	-999	7	[0, 0, 0]	n/a	catFR1	0	R1204T
869.868	0.007	947280	COUNTDOWN_END	n/a	n/a	n/a	n/a	-999	7	[0, 0, 0]	n/a	catFR1	0	R1204T
869.875	1.6	947287	ORIENT	n/a	n/a	n/a	n/a	-999	7	[0, 0, 0]	n/a	catFR1	0	R1204T
871.491	2.351	948903	ORIENT_OFF	n/a	n/a	n/a	n/a	-999	7	[0, 0, 0]	n/a	catFR1	0	R1204T
873.842	1.6	951254	WORD	n/a	wordpools/wordpool_categorized_EN.txt	BANJO	Instruments	1	7	[0, 0, 0]	n/a	catFR1	0	R1204T
875.458	0.901	952870	WORD_OFF	n/a	n/a	BANJO	n/a	1	7	[0, 0, 0]	n/a	catFR1	0	R1204T
876.359	1.6	953771	WORD	n/a	wordpools/wordpool_categorized_EN.txt	TUBA	Instruments	2	7	[0, 0, 0]	n/a	catFR1	0	R1204T
877.977	0.765	955389	WORD_OFF	n/a	n/a	TUBA	n/a	2	7	[0, 0, 0]	n/a	catFR1	0	R1204T
878.742	1.6	956154	WORD	n/a	wordpools/wordpool_categorized_EN.txt	KNEE	BodyParts	3	7	[0, 0, 0]	n/a	catFR1	0	R1204T
880.359	0.868	957771	WORD_OFF	n/a	n/a	KNEE	n/a	3	7	[0, 0, 0]	n/a	catFR1	0	R1204T
881.227	1.6	958639	WORD	n/a	wordpools/wordpool_categorized_EN.txt	HAND	BodyParts	4	7	[0, 0, 0]	n/a	catFR1	0	R1204T
882.844	0.849	960256	WORD_OFF	n/a	n/a	HAND	n/a	4	7	[0, 0, 0]	n/a	catFR1	0	R1204T
883.693	1.6	961104	WORD	n/a	wordpools/wordpool_categorized_EN.txt	CARDINAL	Birds	5	7	[0, 0, 0]	n/a	catFR1	0	R1204T
885.294	0.967	962705	WORD_OFF	n/a	n/a	CARDINAL	n/a	5	7	[0, 0, 0]	n/a	catFR1	0	R1204T
886.261	1.6	963672	WORD	n/a	wordpools/wordpool_categorized_EN.txt	DOVE	Birds	6	7	[0, 0, 0]	n/a	catFR1	0	R1204T
887.878	1.001	965289	WORD_OFF	n/a	n/a	DOVE	n/a	6	7	[0, 0, 0]	n/a	catFR1	0	R1204T
888.879	1.6	966290	WORD	n/a	wordpools/wordpool_categorized_EN.txt	DRUM	Instruments	7	7	[0, 0, 0]	n/a	catFR1	0	R1204T
890.495	0.801	967906	WORD_OFF	n/a	n/a	DRUM	n/a	7	7	[0, 0, 0]	n/a	catFR1	0	R1204T
891.296	1.6	968707	WORD	n/a	wordpools/wordpool_categorized_EN.txt	TRUMPET	Instruments	8	7	[0, 0, 0]	n/a	catFR1	0	R1204T
892.913	0.799	970324	WORD_OFF	n/a	n/a	TRUMPET	n/a	8	7	[0, 0, 0]	n/a	catFR1	0	R1204T
893.712	1.6	971123	WORD	n/a	wordpools/wordpool_categorized_EN.txt	EYE	BodyParts	9	7	[0, 0, 0]	n/a	catFR1	0	R1204T
895.329	0.901	972740	WORD_OFF	n/a	n/a	EYE	n/a	9	7	[0, 0, 0]	n/a	catFR1	0	R1204T
896.23	1.6	973641	WORD	n/a	wordpools/wordpool_categorized_EN.txt	NOSE	BodyParts	10	7	[0, 0, 0]	n/a	catFR1	0	R1204T
897.847	0.916	975258	WORD_OFF	n/a	n/a	NOSE	n/a	10	7	[0, 0, 0]	n/a	catFR1	0	R1204T
898.763	1.6	976174	WORD	n/a	wordpools/wordpool_categorized_EN.txt	SPARROW	Birds	11	7	[0, 0, 0]	n/a	catFR1	0	R1204T
900.38	0.967	977790	WORD_OFF	n/a	n/a	SPARROW	n/a	11	7	[0, 0, 0]	n/a	catFR1	0	R1204T
901.347	1.6	978757	WORD	n/a	wordpools/wordpool_categorized_EN.txt	PIGEON	Birds	12	7	[0, 0, 0]	n/a	catFR1	0	R1204T
902.965	0.0	980375	ENCODING_END	n/a	n/a	n/a	n/a	-999	7	[0, 0, 0]	n/a	catFR1	0	R1204T
902.965	0.137	980375	WORD_OFF	n/a	n/a	PIGEON	n/a	12	7	[0, 0, 0]	n/a	catFR1	0	R1204T
903.102	0.0	980512	DISTRACT_START	n/a	n/a	n/a	n/a	-999	7	[0, 0, 0]	n/a	catFR1	0	R1204T
903.102	0.012	980512	START	n/a	n/a	n/a	n/a	-999	7	[-999, -999, -999]	n/a	catFR1	0	R1204T
903.114	5.718	980524	PROB	5.682	n/a	n/a	n/a	-999	7	[6, 2, 1]	9.0	catFR1	0	R1204T
908.832	4.717	986242	PROB	4.691	n/a	n/a	n/a	-999	7	[3, 4, 1]	8.0	catFR1	0	R1204T
913.549	12.232	990959	PROB	12.232	n/a	n/a	n/a	-999	7	[7, 9, 5]	21.0	catFR1	0	R1204T
925.781	0.021	1003190	STOP	n/a	n/a	n/a	n/a	-999	7	[-999, -999, -999]	n/a	catFR1	0	R1204T
925.802	0.516	1003211	DISTRACT_END	n/a	n/a	n/a	n/a	-999	7	[0, 0, 0]	n/a	catFR1	0	R1204T
926.318	0.518	1003727	RETRIEVAL_ORIENT	n/a	n/a	n/a	n/a	-999	7	[0, 0, 0]	n/a	catFR1	0	R1204T
926.836	1.243	1004245	REC_START	n/a	n/a	n/a	n/a	-999	7	[0, 0, 0]	n/a	catFR1	0	R1204T
928.079	0.67	1005488	REC_WORD_VV	1.243	n/a	<>	n/a	-999	7	[0, 0, 0]	n/a	catFR1	0	R1204T
928.749	2.137	1006158	REC_WORD	1.913	n/a	BANJO	Instruments	1	7	[0, 0, 0]	n/a	catFR1	0	R1204T
930.886	0.912	1008295	REC_WORD	4.05	n/a	KNEE	BodyParts	3	7	[0, 0, 0]	n/a	catFR1	0	R1204T
931.798	0.794	1009207	REC_WORD	4.962	n/a	EYE	BodyParts	9	7	[0, 0, 0]	n/a	catFR1	0	R1204T
932.592	2.583	1010001	REC_WORD	5.756	n/a	NOSE	BodyParts	10	7	[0, 0, 0]	n/a	catFR1	0	R1204T
935.175	2.668	1012583	REC_WORD	8.339	n/a	TUBA	Instruments	2	7	[0, 0, 0]	n/a	catFR1	0	R1204T
937.843	2.557	1015251	REC_WORD_VV	11.007	n/a	<>	n/a	-999	7	[0, 0, 0]	n/a	catFR1	0	R1204T
940.4	11.901	1017808	REC_WORD_VV	13.564	n/a	<>	n/a	-999	7	[0, 0, 0]	n/a	catFR1	0	R1204T
952.301	4.546	1029708	REC_WORD_VV	25.465	n/a	<>	n/a	-999	7	[0, 0, 0]	n/a	catFR1	0	R1204T
956.847	8.195	1034254	REC_END	n/a	n/a	n/a	n/a	-999	7	[0, 0, 0]	n/a	catFR1	0	R1204T
965.042	0.5	1042449	TRIAL	n/a	n/a	n/a	n/a	-999	8	[0, 0, 0]	n/a	catFR1	0	R1204T
965.542	10.0	1042949	COUNTDOWN_START	n/a	n/a	n/a	n/a	-999	8	[0, 0, 0]	n/a	catFR1	0	R1204T
975.97	0.008	1053376	COUNTDOWN_END	n/a	n/a	n/a	n/a	-999	8	[0, 0, 0]	n/a	catFR1	0	R1204T
975.978	1.6	1053384	ORIENT	n/a	n/a	n/a	n/a	-999	8	[0, 0, 0]	n/a	catFR1	0	R1204T
977.594	1.917	1055000	ORIENT_OFF	n/a	n/a	n/a	n/a	-999	8	[0, 0, 0]	n/a	catFR1	0	R1204T
979.511	1.6	1056917	WORD	n/a	wordpools/wordpool_categorized_EN.txt	ZEBRA	Zoo	1	8	[0, 0, 0]	n/a	catFR1	0	R1204T
981.129	0.833	1058535	WORD_OFF	n/a	n/a	ZEBRA	n/a	1	8	[0, 0, 0]	n/a	catFR1	0	R1204T
981.962	1.6	1059368	WORD	n/a	wordpools/wordpool_categorized_EN.txt	GORILLA	Zoo	2	8	[0, 0, 0]	n/a	catFR1	0	R1204T
983.578	1.0	1060983	WORD_OFF	n/a	n/a	GORILLA	n/a	2	8	[0, 0, 0]	n/a	catFR1	0	R1204T
984.578	1.6	1061983	WORD	n/a	wordpools/wordpool_categorized_EN.txt	PEAS	Vegetables	3	8	[0, 0, 0]	n/a	catFR1	0	R1204T
986.196	1.001	1063601	WORD_OFF	n/a	n/a	PEAS	n/a	3	8	[0, 0, 0]	n/a	catFR1	0	R1204T
987.197	1.6	1064602	WORD	n/a	wordpools/wordpool_categorized_EN.txt	CORN	Vegetables	4	8	[0, 0, 0]	n/a	catFR1	0	R1204T
988.814	1.0	1066219	WORD_OFF	n/a	n/a	CORN	n/a	4	8	[0, 0, 0]	n/a	catFR1	0	R1204T
989.814	1.6	1067219	WORD	n/a	wordpools/wordpool_categorized_EN.txt	HICKORY	Trees	5	8	[0, 0, 0]	n/a	catFR1	0	R1204T
991.43	0.95	1068835	WORD_OFF	n/a	n/a	HICKORY	n/a	5	8	[0, 0, 0]	n/a	catFR1	0	R1204T
992.38	1.6	1069785	WORD	n/a	wordpools/wordpool_categorized_EN.txt	OAK	Trees	6	8	[0, 0, 0]	n/a	catFR1	0	R1204T
993.998	0.766	1071403	WORD_OFF	n/a	n/a	OAK	n/a	6	8	[0, 0, 0]	n/a	catFR1	0	R1204T
994.764	1.6	1072169	WORD	n/a	wordpools/wordpool_categorized_EN.txt	CARROT	Vegetables	7	8	[0, 0, 0]	n/a	catFR1	0	R1204T
996.38	0.967	1073785	WORD_OFF	n/a	n/a	CARROT	n/a	7	8	[0, 0, 0]	n/a	catFR1	0	R1204T
997.347	1.6	1074752	WORD	n/a	wordpools/wordpool_categorized_EN.txt	BROCCOLI	Vegetables	8	8	[0, 0, 0]	n/a	catFR1	0	R1204T
998.965	0.934	1076370	WORD_OFF	n/a	n/a	BROCCOLI	n/a	8	8	[0, 0, 0]	n/a	catFR1	0	R1204T
999.899	1.6	1077304	WORD	n/a	wordpools/wordpool_categorized_EN.txt	BEAR	Zoo	9	8	[0, 0, 0]	n/a	catFR1	0	R1204T
1001.515	0.95	1078919	WORD_OFF	n/a	n/a	BEAR	n/a	9	8	[0, 0, 0]	n/a	catFR1	0	R1204T
1002.465	1.6	1079869	WORD	n/a	wordpools/wordpool_categorized_EN.txt	ORANGUTAN	Zoo	10	8	[0, 0, 0]	n/a	catFR1	0	R1204T
1004.066	0.867	1081470	WORD_OFF	n/a	n/a	ORANGUTAN	n/a	10	8	[0, 0, 0]	n/a	catFR1	0	R1204T
1004.933	1.6	1082337	WORD	n/a	wordpools/wordpool_categorized_EN.txt	CYPRESS	Trees	11	8	[0, 0, 0]	n/a	catFR1	0	R1204T
1006.549	0.967	1083953	WORD_OFF	n/a	n/a	CYPRESS	n/a	11	8	[0, 0, 0]	n/a	catFR1	0	R1204T
1007.516	1.6	1084920	WORD	n/a	wordpools/wordpool_categorized_EN.txt	SPRUCE	Trees	12	8	[0, 0, 0]	n/a	catFR1	0	R1204T
1009.134	0.0	1086538	ENCODING_END	n/a	n/a	n/a	n/a	-999	8	[0, 0, 0]	n/a	catFR1	0	R1204T
1009.134	0.102	1086538	WORD_OFF	n/a	n/a	SPRUCE	n/a	12	8	[0, 0, 0]	n/a	catFR1	0	R1204T
1009.236	0.0	1086640	DISTRACT_START	n/a	n/a	n/a	n/a	-999	8	[0, 0, 0]	n/a	catFR1	0	R1204T
1009.236	0.015	1086640	START	n/a	n/a	n/a	n/a	-999	8	[-999, -999, -999]	n/a	catFR1	0	R1204T
1009.251	9.217	1086655	PROB	9.185	n/a	n/a	n/a	-999	8	[6, 5, 3]	14.0	catFR1	0	R1204T
1018.468	7.552	1095871	PROB	7.521	n/a	n/a	n/a	-999	8	[5, 3, 9]	17.0	catFR1	0	R1204T
1026.02	4.881	1103423	PROB	4.881	n/a	n/a	n/a	-999	8	[2, 1, 3]	6.0	catFR1	0	R1204T
1030.901	0.02	1108304	STOP	n/a	n/a	n/a	n/a	-999	8	[-999, -999, -999]	n/a	catFR1	0	R1204T
1030.921	0.649	1108324	DISTRACT_END	n/a	n/a	n/a	n/a	-999	8	[0, 0, 0]	n/a	catFR1	0	R1204T
1031.57	0.524	1108973	RETRIEVAL_ORIENT	n/a	n/a	n/a	n/a	-999	8	[0, 0, 0]	n/a	catFR1	0	R1204T
1032.094	0.919	1109497	REC_START	n/a	n/a	n/a	n/a	-999	8	[0, 0, 0]	n/a	catFR1	0	R1204T
1033.013	0.729	1110416	REC_WORD	0.919	n/a	ZEBRA	Zoo	1	8	[0, 0, 0]	n/a	catFR1	0	R1204T
1033.742	0.856	1111144	REC_WORD	1.648	n/a	GORILLA	Zoo	2	8	[0, 0, 0]	n/a	catFR1	0	R1204T
1034.598	0.647	1112000	REC_WORD	2.504	n/a	BEAR	Zoo	9	8	[0, 0, 0]	n/a	catFR1	0	R1204T
1035.245	0.712	1112647	REC_WORD	3.151	n/a	PEAS	Vegetables	3	8	[0, 0, 0]	n/a	catFR1	0	R1204T
1035.957	1.595	1113359	REC_WORD	3.863	n/a	CORN	Vegetables	4	8	[0, 0, 0]	n/a	catFR1	0	R1204T
1037.552	1.217	1114954	REC_WORD	5.458	n/a	BROCCOLI	Vegetables	8	8	[0, 0, 0]	n/a	catFR1	0	R1204T
1038.769	3.408	1116171	REC_WORD	6.675	n/a	SPRUCE	Trees	12	8	[0, 0, 0]	n/a	catFR1	0	R1204T
1042.177	3.101	1119579	REC_WORD_VV	10.083	n/a	<>	n/a	-999	8	[0, 0, 0]	n/a	catFR1	0	R1204T
1045.278	16.824	1122680	REC_WORD	13.184	n/a	ORANGUTAN	Zoo	10	8	[0, 0, 0]	n/a	catFR1	0	R1204T
1062.102	9.06	1139503	REC_END	n/a	n/a	n/a	n/a	-999	8	[0, 0, 0]	n/a	catFR1	0	R1204T
1071.162	0.5	1148562	TRIAL	n/a	n/a	n/a	n/a	-999	9	[0, 0, 0]	n/a	catFR1	0	R1204T
1071.662	10.0	1149062	COUNTDOWN_START	n/a	n/a	n/a	n/a	-999	9	[0, 0, 0]	n/a	catFR1	0	R1204T
1082.09	0.007	1159490	COUNTDOWN_END	n/a	n/a	n/a	n/a	-999	9	[0, 0, 0]	n/a	catFR1	0	R1204T
1082.097	1.6	1159497	ORIENT	n/a	n/a	n/a	n/a	-999	9	[0, 0, 0]	n/a	catFR1	0	R1204T
1083.713	2.05	1161112	ORIENT_OFF	n/a	n/a	n/a	n/a	-999	9	[0, 0, 0]	n/a	catFR1	0	R1204T
1085.763	1.6	1163162	WORD	n/a	wordpools/wordpool_categorized_EN.txt	MOPED	Vehicles	1	9	[0, 0, 0]	n/a	catFR1	0	R1204T
1087.38	0.868	1164779	WORD_OFF	n/a	n/a	MOPED	n/a	1	9	[0, 0, 0]	n/a	catFR1	0	R1204T
1088.248	1.6	1165647	WORD	n/a	wordpools/wordpool_categorized_EN.txt	BUS	Vehicles	2	9	[0, 0, 0]	n/a	catFR1	0	R1204T
1089.865	0.967	1167264	WORD_OFF	n/a	n/a	BUS	n/a	2	9	[0, 0, 0]	n/a	catFR1	0	R1204T
1090.832	1.6	1168231	WORD	n/a	wordpools/wordpool_categorized_EN.txt	MAPLE	Trees	3	9	[0, 0, 0]	n/a	catFR1	0	R1204T
1092.448	0.967	1169847	WORD_OFF	n/a	n/a	MAPLE	n/a	3	9	[0, 0, 0]	n/a	catFR1	0	R1204T
1093.415	1.6	1170814	WORD	n/a	wordpools/wordpool_categorized_EN.txt	ELM	Trees	4	9	[0, 0, 0]	n/a	catFR1	0	R1204T
1095.033	0.85	1172432	WORD_OFF	n/a	n/a	ELM	n/a	4	9	[0, 0, 0]	n/a	catFR1	0	R1204T
1095.883	1.6	1173282	WORD	n/a	wordpools/wordpool_categorized_EN.txt	SODA	Beverages	5	9	[0, 0, 0]	n/a	catFR1	0	R1204T
1097.499	0.917	1174898	WORD_OFF	n/a	n/a	SODA	n/a	5	9	[0, 0, 0]	n/a	catFR1	0	R1204T
1098.416	1.6	1175815	WORD	n/a	wordpools/wordpool_categorized_EN.txt	CIDER	Beverages	6	9	[0, 0, 0]	n/a	catFR1	0	R1204T
1100.017	0.984	1177415	WORD_OFF	n/a	n/a	CIDER	n/a	6	9	[0, 0, 0]	n/a	catFR1	0	R1204T
1101.001	1.6	1178399	WORD	n/a	wordpools/wordpool_categorized_EN.txt	CEDAR	Trees	7	9	[0, 0, 0]	n/a	catFR1	0	R1204T
1102.617	0.95	1180015	WORD_OFF	n/a	n/a	CEDAR	n/a	7	9	[0, 0, 0]	n/a	catFR1	0	R1204T
1103.567	1.6	1180965	WORD	n/a	wordpools/wordpool_categorized_EN.txt	WILLOW	Trees	8	9	[0, 0, 0]	n/a	catFR1	0	R1204T
1105.168	1.0	1182566	WORD_OFF	n/a	n/a	WILLOW	n/a	8	9	[0, 0, 0]	n/a	catFR1	0	R1204T
1106.168	1.6	1183566	WORD	n/a	wordpools/wordpool_categorized_EN.txt	VAN	Vehicles	9	9	[0, 0, 0]	n/a	catFR1	0	R1204T
1107.784	0.8	1185182	WORD_OFF	n/a	n/a	VAN	n/a	9	9	[0, 0, 0]	n/a	catFR1	0	R1204T
1108.584	1.6	1185982	WORD	n/a	wordpools/wordpool_categorized_EN.txt	TRUCK	Vehicles	10	9	[0, 0, 0]	n/a	catFR1	0	R1204T
1110.202	0.95	1187600	WORD_OFF	n/a	n/a	TRUCK	n/a	10	9	[0, 0, 0]	n/a	catFR1	0	R1204T
1111.152	1.6	1188550	WORD	n/a	wordpools/wordpool_categorized_EN.txt	TEA	Beverages	11	9	[0, 0, 0]	n/a	catFR1	0	R1204T
1112.768	0.867	1190166	WORD_OFF	n/a	n/a	TEA	n/a	11	9	[0, 0, 0]	n/a	catFR1	0	R1204T
1113.635	1.6	1191033	WORD	n/a	wordpools/wordpool_categorized_EN.txt	MILK	Beverages	12	9	[0, 0, 0]	n/a	catFR1	0	R1204T
1115.253	0.0	1192651	ENCODING_END	n/a	n/a	n/a	n/a	-999	9	[0, 0, 0]	n/a	catFR1	0	R1204T
1115.253	0.137	1192651	WORD_OFF	n/a	n/a	MILK	n/a	12	9	[0, 0, 0]	n/a	catFR1	0	R1204T
1115.39	0.0	1192788	DISTRACT_START	n/a	n/a	n/a	n/a	-999	9	[0, 0, 0]	n/a	catFR1	0	R1204T
1115.39	0.012	1192788	START	n/a	n/a	n/a	n/a	-999	9	[-999, -999, -999]	n/a	catFR1	0	R1204T
1115.402	10.102	1192800	PROB	10.074	n/a	n/a	n/a	-999	9	[7, 6, 9]	22.0	catFR1	0	R1204T
1125.504	7.185	1202901	PROB	7.148	n/a	n/a	n/a	-999	9	[9, 2, 7]	18.0	catFR1	0	R1204T
1132.689	8.245	1210086	PROB	8.245	n/a	n/a	n/a	-999	9	[7, 6, 7]	20.0	catFR1	0	R1204T
1140.934	0.008	1218330	STOP	n/a	n/a	n/a	n/a	-999	9	[-999, -999, -999]	n/a	catFR1	0	R1204T
1140.942	0.648	1218338	DISTRACT_END	n/a	n/a	n/a	n/a	-999	9	[0, 0, 0]	n/a	catFR1	0	R1204T
1141.59	0.519	1218986	RETRIEVAL_ORIENT	n/a	n/a	n/a	n/a	-999	9	[0, 0, 0]	n/a	catFR1	0	R1204T
1142.109	1.564	1219505	REC_START	n/a	n/a	n/a	n/a	-999	9	[0, 0, 0]	n/a	catFR1	0	R1204T
1143.673	0.646	1221069	REC_WORD	1.564	n/a	MOPED	Vehicles	1	9	[0, 0, 0]	n/a	catFR1	0	R1204T
1144.319	1.028	1221715	REC_WORD	2.21	n/a	SODA	Beverages	5	9	[0, 0, 0]	n/a	catFR1	0	R1204T
1145.347	0.793	1222743	REC_WORD	3.238	n/a	CIDER	Beverages	6	9	[0, 0, 0]	n/a	catFR1	0	R1204T
1146.14	1.211	1223536	REC_WORD	4.031	n/a	VAN	Vehicles	9	9	[0, 0, 0]	n/a	catFR1	0	R1204T
1147.351	1.907	1224747	REC_WORD	5.242	n/a	TRUCK	Vehicles	10	9	[0, 0, 0]	n/a	catFR1	0	R1204T
1149.258	1.438	1226654	REC_WORD_VV	7.149	n/a	<>	n/a	-999	9	[0, 0, 0]	n/a	catFR1	0	R1204T
1150.696	2.369	1228091	REC_WORD	8.587	n/a	TEA	Beverages	11	9	[0, 0, 0]	n/a	catFR1	0	R1204T
1153.065	3.099	1230460	REC_WORD_VV	10.956	n/a	<>	n/a	-999	9	[0, 0, 0]	n/a	catFR1	0	R1204T
1156.164	3.224	1233559	REC_WORD_VV	14.055	n/a	<>	n/a	-999	9	[0, 0, 0]	n/a	catFR1	0	R1204T
1159.388	1.857	1236783	REC_WORD_VV	17.279	n/a	<>	n/a	-999	9	[0, 0, 0]	n/a	catFR1	0	R1204T
1161.245	0.413	1238640	REC_WORD_VV	19.136	n/a	<>	n/a	-999	9	[0, 0, 0]	n/a	catFR1	0	R1204T
1161.658	2.884	1239053	REC_WORD	19.549	n/a	MAPLE	Trees	3	9	[0, 0, 0]	n/a	catFR1	0	R1204T
1164.542	7.58	1241937	REC_WORD_VV	22.433	n/a	<>	n/a	-999	9	[0, 0, 0]	n/a	catFR1	0	R1204T
1172.122	20.578	1249516	REC_END	n/a	n/a	n/a	n/a	-999	9	[0, 0, 0]	n/a	catFR1	0	R1204T
1192.7	0.5	1270093	TRIAL	n/a	n/a	n/a	n/a	-999	10	[0, 0, 0]	n/a	catFR1	0	R1204T
1193.2	10.0	1270593	COUNTDOWN_START	n/a	n/a	n/a	n/a	-999	10	[0, 0, 0]	n/a	catFR1	0	R1204T
1203.628	0.007	1281020	COUNTDOWN_END	n/a	n/a	n/a	n/a	-999	10	[0, 0, 0]	n/a	catFR1	0	R1204T
1203.635	1.6	1281027	ORIENT	n/a	n/a	n/a	n/a	-999	10	[0, 0, 0]	n/a	catFR1	0	R1204T
1205.253	1.917	1282645	ORIENT_OFF	n/a	n/a	n/a	n/a	-999	10	[0, 0, 0]	n/a	catFR1	0	R1204T
1207.17	1.6	1284562	WORD	n/a	wordpools/wordpool_categorized_EN.txt	BULL	FarmAnimals	1	10	[0, 0, 0]	n/a	catFR1	0	R1204T
1208.786	0.883	1286178	WORD_OFF	n/a	n/a	BULL	n/a	1	10	[0, 0, 0]	n/a	catFR1	0	R1204T
1209.669	1.6	1287061	WORD	n/a	wordpools/wordpool_categorized_EN.txt	ROOSTER	FarmAnimals	2	10	[0, 0, 0]	n/a	catFR1	0	R1204T
1211.287	0.851	1288679	WORD_OFF	n/a	n/a	ROOSTER	n/a	2	10	[0, 0, 0]	n/a	catFR1	0	R1204T
1212.138	1.6	1289530	WORD	n/a	wordpools/wordpool_categorized_EN.txt	COLA	Beverages	3	10	[0, 0, 0]	n/a	catFR1	0	R1204T
1213.753	0.984	1291145	WORD_OFF	n/a	n/a	COLA	n/a	3	10	[0, 0, 0]	n/a	catFR1	0	R1204T
1214.737	1.6	1292129	WORD	n/a	wordpools/wordpool_categorized_EN.txt	WINE	Beverages	4	10	[0, 0, 0]	n/a	catFR1	0	R1204T
1216.354	1.017	1293745	WORD_OFF	n/a	n/a	WINE	n/a	4	10	[0, 0, 0]	n/a	catFR1	0	R1204T
1217.371	1.6	1294762	WORD	n/a	wordpools/wordpool_categorized_EN.txt	WOODS	Landscapes	5	10	[0, 0, 0]	n/a	catFR1	0	R1204T
1218.989	0.9	1296380	WORD_OFF	n/a	n/a	WOODS	n/a	5	10	[0, 0, 0]	n/a	catFR1	0	R1204T
1219.889	1.6	1297280	WORD	n/a	wordpools/wordpool_categorized_EN.txt	ISLAND	Landscapes	6	10	[0, 0, 0]	n/a	catFR1	0	R1204T
1221.505	0.85	1298896	WORD_OFF	n/a	n/a	ISLAND	n/a	6	10	[0, 0, 0]	n/a	catFR1	0	R1204T
1222.355	1.6	1299746	WORD	n/a	wordpools/wordpool_categorized_EN.txt	BEER	Beverages	7	10	[0, 0, 0]	n/a	catFR1	0	R1204T
1223.973	0.917	1301364	WORD_OFF	n/a	n/a	BEER	n/a	7	10	[0, 0, 0]	n/a	catFR1	0	R1204T
1224.89	1.6	1302281	WORD	n/a	wordpools/wordpool_categorized_EN.txt	WATER	Beverages	8	10	[0, 0, 0]	n/a	catFR1	0	R1204T
1226.506	0.833	1303897	WORD_OFF	n/a	n/a	WATER	n/a	8	10	[0, 0, 0]	n/a	catFR1	0	R1204T
1227.339	1.6	1304730	WORD	n/a	wordpools/wordpool_categorized_EN.txt	HEN	FarmAnimals	9	10	[0, 0, 0]	n/a	catFR1	0	R1204T
1228.957	0.9	1306348	WORD_OFF	n/a	n/a	HEN	n/a	9	10	[0, 0, 0]	n/a	catFR1	0	R1204T
1229.857	1.6	1307248	WORD	n/a	wordpools/wordpool_categorized_EN.txt	CHICKEN	FarmAnimals	10	10	[0, 0, 0]	n/a	catFR1	0	R1204T
1231.473	0.85	1308864	WORD_OFF	n/a	n/a	CHICKEN	n/a	10	10	[0, 0, 0]	n/a	catFR1	0	R1204T
1232.323	1.6	1309714	WORD	n/a	wordpools/wordpool_categorized_EN.txt	CREEK	Landscapes	11	10	[0, 0, 0]	n/a	catFR1	0	R1204T
1233.925	0.883	1311315	WORD_OFF	n/a	n/a	CREEK	n/a	11	10	[0, 0, 0]	n/a	catFR1	0	R1204T
1234.808	1.6	1312198	WORD	n/a	wordpools/wordpool_categorized_EN.txt	LAKE	Landscapes	12	10	[0, 0, 0]	n/a	catFR1	0	R1204T
1236.424	0.0	1313814	WORD_OFF	n/a	n/a	LAKE	n/a	12	10	[0, 0, 0]	n/a	catFR1	0	R1204T
1236.424	0.134	1313814	ENCODING_END	n/a	n/a	n/a	n/a	-999	10	[0, 0, 0]	n/a	catFR1	0	R1204T
1236.558	0.0	1313948	DISTRACT_START	n/a	n/a	n/a	n/a	-999	10	[0, 0, 0]	n/a	catFR1	0	R1204T
1236.558	0.016	1313948	START	n/a	n/a	n/a	n/a	-999	10	[-999, -999, -999]	n/a	catFR1	0	R1204T
1236.574	10.219	1313964	PROB	10.183	n/a	n/a	n/a	-999	10	[9, 4, 5]	18.0	catFR1	0	R1204T
1246.793	6.069	1324183	PROB	6.037	n/a	n/a	n/a	-999	10	[2, 5, 2]	9.0	catFR1	0	R1204T
1252.862	4.615	1330251	PROB	4.615	n/a	n/a	n/a	-999	10	[1, 4, 6]	11.0	catFR1	0	R1204T
1257.477	0.018	1334866	STOP	n/a	n/a	n/a	n/a	-999	10	[-999, -999, -999]	n/a	catFR1	0	R1204T
1257.495	0.684	1334884	DISTRACT_END	n/a	n/a	n/a	n/a	-999	10	[0, 0, 0]	n/a	catFR1	0	R1204T
1258.179	0.517	1335568	RETRIEVAL_ORIENT	n/a	n/a	n/a	n/a	-999	10	[0, 0, 0]	n/a	catFR1	0	R1204T
1258.696	1.017	1336085	REC_START	n/a	n/a	n/a	n/a	-999	10	[0, 0, 0]	n/a	catFR1	0	R1204T
1259.713	0.548	1337102	REC_WORD	1.017	n/a	BULL	FarmAnimals	1	10	[0, 0, 0]	n/a	catFR1	0	R1204T
1260.261	0.83	1337650	REC_WORD	1.565	n/a	ROOSTER	FarmAnimals	2	10	[0, 0, 0]	n/a	catFR1	0	R1204T
1261.091	0.637	1338480	REC_WORD	2.395	n/a	WOODS	Landscapes	5	10	[0, 0, 0]	n/a	catFR1	0	R1204T
1261.728	2.751	1339117	REC_WORD	3.032	n/a	HEN	FarmAnimals	9	10	[0, 0, 0]	n/a	catFR1	0	R1204T
1264.479	2.787	1341868	REC_WORD	5.783	n/a	CHICKEN	FarmAnimals	10	10	[0, 0, 0]	n/a	catFR1	0	R1204T
1267.266	2.386	1344654	REC_WORD_VV	8.57	n/a	<>	n/a	-999	10	[0, 0, 0]	n/a	catFR1	0	R1204T
1269.652	3.839	1347040	REC_WORD	10.956	n/a	LAKE	Landscapes	12	10	[0, 0, 0]	n/a	catFR1	0	R1204T
1273.491	5.358	1350879	REC_WORD_VV	14.795	n/a	<>	n/a	-999	10	[0, 0, 0]	n/a	catFR1	0	R1204T
1278.849	2.745	1356237	REC_WORD_VV	20.153	n/a	<>	n/a	-999	10	[0, 0, 0]	n/a	catFR1	0	R1204T
1281.594	4.956	1358982	REC_WORD_VV	22.898	n/a	<>	n/a	-999	10	[0, 0, 0]	n/a	catFR1	0	R1204T
1286.55	2.158	1363937	REC_WORD_VV	27.854	n/a	<>	n/a	-999	10	[0, 0, 0]	n/a	catFR1	0	R1204T
1288.708	15.296	1366095	REC_END	n/a	n/a	n/a	n/a	-999	10	[0, 0, 0]	n/a	catFR1	0	R1204T
1304.004	0.5	1381390	TRIAL	n/a	n/a	n/a	n/a	-999	11	[0, 0, 0]	n/a	catFR1	0	R1204T
1304.504	10.0	1381890	COUNTDOWN_START	n/a	n/a	n/a	n/a	-999	11	[0, 0, 0]	n/a	catFR1	0	R1204T
1314.932	0.008	1392318	COUNTDOWN_END	n/a	n/a	n/a	n/a	-999	11	[0, 0, 0]	n/a	catFR1	0	R1204T
1314.94	1.6	1392326	ORIENT	n/a	n/a	n/a	n/a	-999	11	[0, 0, 0]	n/a	catFR1	0	R1204T
1316.555	2.252	1393940	ORIENT_OFF	n/a	n/a	n/a	n/a	-999	11	[0, 0, 0]	n/a	catFR1	0	R1204T
1318.807	1.6	1396192	WORD	n/a	wordpools/wordpool_categorized_EN.txt	DUCK	Birds	1	11	[0, 0, 0]	n/a	catFR1	0	R1204T
1320.423	0.784	1397808	WORD_OFF	n/a	n/a	DUCK	n/a	1	11	[0, 0, 0]	n/a	catFR1	0	R1204T
1321.207	1.6	1398592	WORD	n/a	wordpools/wordpool_categorized_EN.txt	BLUEBIRD	Birds	2	11	[0, 0, 0]	n/a	catFR1	0	R1204T
1322.824	0.866	1400209	WORD_OFF	n/a	n/a	BLUEBIRD	n/a	2	11	[0, 0, 0]	n/a	catFR1	0	R1204T
1323.69	1.6	1401075	WORD	n/a	wordpools/wordpool_categorized_EN.txt	BEE	Insects	3	11	[0, 0, 0]	n/a	catFR1	0	R1204T
1325.291	0.801	1402676	WORD_OFF	n/a	n/a	BEE	n/a	3	11	[0, 0, 0]	n/a	catFR1	0	R1204T
1326.092	1.6	1403477	WORD	n/a	wordpools/wordpool_categorized_EN.txt	GNAT	Insects	4	11	[0, 0, 0]	n/a	catFR1	0	R1204T
1327.708	0.833	1405093	WORD_OFF	n/a	n/a	GNAT	n/a	4	11	[0, 0, 0]	n/a	catFR1	0	R1204T
1328.541	1.6	1405926	WORD	n/a	wordpools/wordpool_categorized_EN.txt	SOCKS	Clothing	5	11	[0, 0, 0]	n/a	catFR1	0	R1204T
1330.142	0.784	1407527	WORD_OFF	n/a	n/a	SOCKS	n/a	5	11	[0, 0, 0]	n/a	catFR1	0	R1204T
1330.926	1.6	1408311	WORD	n/a	wordpools/wordpool_categorized_EN.txt	JEANS	Clothing	6	11	[0, 0, 0]	n/a	catFR1	0	R1204T
1332.542	0.817	1409927	WORD_OFF	n/a	n/a	JEANS	n/a	6	11	[0, 0, 0]	n/a	catFR1	0	R1204T
1333.359	1.6	1410743	WORD	n/a	wordpools/wordpool_categorized_EN.txt	MOSQUITO	Insects	7	11	[0, 0, 0]	n/a	catFR1	0	R1204T
1334.977	0.916	1412361	WORD_OFF	n/a	n/a	MOSQUITO	n/a	7	11	[0, 0, 0]	n/a	catFR1	0	R1204T
1335.893	1.6	1413277	WORD	n/a	wordpools/wordpool_categorized_EN.txt	LADYBUG	Insects	8	11	[0, 0, 0]	n/a	catFR1	0	R1204T
1337.509	0.867	1414893	WORD_OFF	n/a	n/a	LADYBUG	n/a	8	11	[0, 0, 0]	n/a	catFR1	0	R1204T
1338.376	1.6	1415760	WORD	n/a	wordpools/wordpool_categorized_EN.txt	HAWK	Birds	9	11	[0, 0, 0]	n/a	catFR1	0	R1204T
1339.994	0.799	1417378	WORD_OFF	n/a	n/a	HAWK	n/a	9	11	[0, 0, 0]	n/a	catFR1	0	R1204T
1340.793	1.6	1418177	WORD	n/a	wordpools/wordpool_categorized_EN.txt	FINCH	Birds	10	11	[0, 0, 0]	n/a	catFR1	0	R1204T
1342.41	0.984	1419794	WORD_OFF	n/a	n/a	FINCH	n/a	10	11	[0, 0, 0]	n/a	catFR1	0	R1204T
1343.394	1.6	1420778	WORD	n/a	wordpools/wordpool_categorized_EN.txt	PANTS	Clothing	11	11	[0, 0, 0]	n/a	catFR1	0	R1204T
1345.012	0.883	1422396	WORD_OFF	n/a	n/a	PANTS	n/a	11	11	[0, 0, 0]	n/a	catFR1	0	R1204T
1345.895	1.6	1423279	WORD	n/a	wordpools/wordpool_categorized_EN.txt	SHORTS	Clothing	12	11	[0, 0, 0]	n/a	catFR1	0	R1204T
1347.511	0.0	1424895	WORD_OFF	n/a	n/a	SHORTS	n/a	12	11	[0, 0, 0]	n/a	catFR1	0	R1204T
1347.511	0.103	1424895	ENCODING_END	n/a	n/a	n/a	n/a	-999	11	[0, 0, 0]	n/a	catFR1	0	R1204T
1347.614	0.0	1424998	DISTRACT_START	n/a	n/a	n/a	n/a	-999	11	[0, 0, 0]	n/a	catFR1	0	R1204T
1347.614	0.014	1424998	START	n/a	n/a	n/a	n/a	-999	11	[-999, -999, -999]	n/a	catFR1	0	R1204T
1347.628	7.435	1425012	PROB	7.402	n/a	n/a	n/a	-999	11	[9, 8, 2]	19.0	catFR1	0	R1204T
1355.063	4.35	1432446	PROB	4.325	n/a	n/a	n/a	-999	11	[3, 4, 1]	8.0	catFR1	0	R1204T
1359.413	4.552	1436796	PROB	4.52	n/a	n/a	n/a	-999	11	[9, 9, 4]	2.0	catFR1	0	R1204T
1363.965	10.528	1441348	PROB	10.528	n/a	n/a	n/a	-999	11	[7, 6, 9]	22.0	catFR1	0	R1204T
1374.493	0.006	1451875	STOP	n/a	n/a	n/a	n/a	-999	11	[-999, -999, -999]	n/a	catFR1	0	R1204T
1374.499	0.652	1451881	DISTRACT_END	n/a	n/a	n/a	n/a	-999	11	[0, 0, 0]	n/a	catFR1	0	R1204T
1375.151	0.516	1452533	RETRIEVAL_ORIENT	n/a	n/a	n/a	n/a	-999	11	[0, 0, 0]	n/a	catFR1	0	R1204T
1375.667	1.521	1453049	REC_START	n/a	n/a	n/a	n/a	-999	11	[0, 0, 0]	n/a	catFR1	0	R1204T
1377.188	1.631	1454570	REC_WORD_VV	1.521	n/a	<>	n/a	-999	11	[0, 0, 0]	n/a	catFR1	0	R1204T
1378.819	0.933	1456201	REC_WORD	3.152	n/a	DUCK	Birds	1	11	[0, 0, 0]	n/a	catFR1	0	R1204T
1379.752	0.917	1457134	REC_WORD	4.085	n/a	BLUEBIRD	Birds	2	11	[0, 0, 0]	n/a	catFR1	0	R1204T
1380.669	0.637	1458051	REC_WORD	5.002	n/a	BEE	Insects	3	11	[0, 0, 0]	n/a	catFR1	0	R1204T
1381.306	1.466	1458688	REC_WORD	5.639	n/a	GNAT	Insects	4	11	[0, 0, 0]	n/a	catFR1	0	R1204T
1382.772	1.749	1460153	REC_WORD_VV	7.105	n/a	<>	n/a	-999	11	[0, 0, 0]	n/a	catFR1	0	R1204T
1384.521	0.371	1461902	REC_WORD_VV	8.854	n/a	<>	n/a	-999	11	[0, 0, 0]	n/a	catFR1	0	R1204T
1384.892	5.061	1462273	REC_WORD	9.225	n/a	MOSQUITO	Insects	7	11	[0, 0, 0]	n/a	catFR1	0	R1204T
1389.953	5.348	1467334	REC_WORD	14.286	n/a	HAWK	Birds	9	11	[0, 0, 0]	n/a	catFR1	0	R1204T
1395.301	4.497	1472682	REC_WORD_VV	19.634	n/a	<>	n/a	-999	11	[0, 0, 0]	n/a	catFR1	0	R1204T
1399.798	1.094	1477178	REC_WORD	24.131	n/a	SHORTS	Clothing	12	11	[0, 0, 0]	n/a	catFR1	0	R1204T
1400.892	4.786	1478272	REC_WORD	25.225	n/a	JEANS	Clothing	6	11	[0, 0, 0]	n/a	catFR1	0	R1204T
1405.678	19.315	1483058	REC_END	n/a	n/a	n/a	n/a	-999	11	[0, 0, 0]	n/a	catFR1	0	R1204T
1424.993	0.5	1502372	TRIAL	n/a	n/a	n/a	n/a	-999	12	[0, 0, 0]	n/a	catFR1	0	R1204T
1425.493	10.0	1502872	COUNTDOWN_START	n/a	n/a	n/a	n/a	-999	12	[0, 0, 0]	n/a	catFR1	0	R1204T
1435.921	0.007	1513299	COUNTDOWN_END	n/a	n/a	n/a	n/a	-999	12	[0, 0, 0]	n/a	catFR1	0	R1204T
1435.928	1.6	1513306	ORIENT	n/a	n/a	n/a	n/a	-999	12	[0, 0, 0]	n/a	catFR1	0	R1204T
1437.544	2.017	1514922	ORIENT_OFF	n/a	n/a	n/a	n/a	-999	12	[0, 0, 0]	n/a	catFR1	0	R1204T
1439.561	1.6	1516939	WORD	n/a	wordpools/wordpool_categorized_EN.txt	LEMONADE	Beverages	1	12	[0, 0, 0]	n/a	catFR1	0	R1204T
1441.179	0.967	1518557	WORD_OFF	n/a	n/a	LEMONADE	n/a	1	12	[0, 0, 0]	n/a	catFR1	0	R1204T
1442.146	1.6	1519524	WORD	n/a	wordpools/wordpool_categorized_EN.txt	RUM	Beverages	2	12	[0, 0, 0]	n/a	catFR1	0	R1204T
1443.762	0.867	1521140	WORD_OFF	n/a	n/a	RUM	n/a	2	12	[0, 0, 0]	n/a	catFR1	0	R1204T
1444.629	1.6	1522007	WORD	n/a	wordpools/wordpool_categorized_EN.txt	PEN	OfficeSupplies	3	12	[0, 0, 0]	n/a	catFR1	0	R1204T
1446.247	0.9	1523625	WORD_OFF	n/a	n/a	PEN	n/a	3	12	[0, 0, 0]	n/a	catFR1	0	R1204T
1447.147	1.6	1524525	WORD	n/a	wordpools/wordpool_categorized_EN.txt	FOLDER	OfficeSupplies	4	12	[0, 0, 0]	n/a	catFR1	0	R1204T
1448.763	0.95	1526141	WORD_OFF	n/a	n/a	FOLDER	n/a	4	12	[0, 0, 0]	n/a	catFR1	0	R1204T
1449.713	1.6	1527090	WORD	n/a	wordpools/wordpool_categorized_EN.txt	CUCUMBER	Vegetables	5	12	[0, 0, 0]	n/a	catFR1	0	R1204T
1451.33	1.0	1528707	WORD_OFF	n/a	n/a	CUCUMBER	n/a	5	12	[0, 0, 0]	n/a	catFR1	0	R1204T
1452.33	1.6	1529707	WORD	n/a	wordpools/wordpool_categorized_EN.txt	CAULIFLOWER	Vegetables	6	12	[0, 0, 0]	n/a	catFR1	0	R1204T
1453.948	0.849	1531325	WORD_OFF	n/a	n/a	CAULIFLOWER	n/a	6	12	[0, 0, 0]	n/a	catFR1	0	R1204T
1454.797	1.6	1532174	WORD	n/a	wordpools/wordpool_categorized_EN.txt	NOTEBOOK	OfficeSupplies	7	12	[0, 0, 0]	n/a	catFR1	0	R1204T
1456.414	0.785	1533791	WORD_OFF	n/a	n/a	NOTEBOOK	n/a	7	12	[0, 0, 0]	n/a	catFR1	0	R1204T
1457.199	1.6	1534576	WORD	n/a	wordpools/wordpool_categorized_EN.txt	STAPLER	OfficeSupplies	8	12	[0, 0, 0]	n/a	catFR1	0	R1204T
1458.816	0.882	1536193	WORD_OFF	n/a	n/a	STAPLER	n/a	8	12	[0, 0, 0]	n/a	catFR1	0	R1204T
1459.698	1.6	1537075	WORD	n/a	wordpools/wordpool_categorized_EN.txt	COFFEE	Beverages	9	12	[0, 0, 0]	n/a	catFR1	0	R1204T
1461.315	0.918	1538692	WORD_OFF	n/a	n/a	COFFEE	n/a	9	12	[0, 0, 0]	n/a	catFR1	0	R1204T
1462.233	1.6	1539610	WORD	n/a	wordpools/wordpool_categorized_EN.txt	JUICE	Beverages	10	12	[0, 0, 0]	n/a	catFR1	0	R1204T
1463.85	0.832	1541227	WORD_OFF	n/a	n/a	JUICE	n/a	10	12	[0, 0, 0]	n/a	catFR1	0	R1204T
1464.682	1.6	1542059	WORD	n/a	wordpools/wordpool_categorized_EN.txt	LETTUCE	Vegetables	11	12	[0, 0, 0]	n/a	catFR1	0	R1204T
1466.284	0.783	1543660	WORD_OFF	n/a	n/a	LETTUCE	n/a	11	12	[0, 0, 0]	n/a	catFR1	0	R1204T
1467.067	1.6	1544443	WORD	n/a	wordpools/wordpool_categorized_EN.txt	CELERY	Vegetables	12	12	[0, 0, 0]	n/a	catFR1	0	R1204T
1468.683	0.0	1546059	ENCODING_END	n/a	n/a	n/a	n/a	-999	12	[0, 0, 0]	n/a	catFR1	0	R1204T
1468.683	0.147	1546059	WORD_OFF	n/a	n/a	CELERY	n/a	12	12	[0, 0, 0]	n/a	catFR1	0	R1204T
1468.83	0.0	1546206	DISTRACT_START	n/a	n/a	n/a	n/a	-999	12	[0, 0, 0]	n/a	catFR1	0	R1204T
1468.83	0.021	1546206	START	n/a	n/a	n/a	n/a	-999	12	[-999, -999, -999]	n/a	catFR1	0	R1204T
1468.851	5.6	1546227	PROB	5.568	n/a	n/a	n/a	-999	12	[3, 7, 2]	12.0	catFR1	0	R1204T
1474.451	5.034	1551827	PROB	5.01	n/a	n/a	n/a	-999	12	[5, 2, 7]	14.0	catFR1	0	R1204T
1479.485	8.469	1556861	PROB	8.44	n/a	n/a	n/a	-999	12	[5, 8, 4]	17.0	catFR1	0	R1204T
1487.954	4.642	1565329	PROB	4.642	n/a	n/a	n/a	-999	12	[5, 8, 8]	21.0	catFR1	0	R1204T
1492.596	0.009	1569971	STOP	n/a	n/a	n/a	n/a	-999	12	[-999, -999, -999]	n/a	catFR1	0	R1204T
1492.605	0.65	1569980	DISTRACT_END	n/a	n/a	n/a	n/a	-999	12	[0, 0, 0]	n/a	catFR1	0	R1204T
1493.255	0.517	1570630	RETRIEVAL_ORIENT	n/a	n/a	n/a	n/a	-999	12	[0, 0, 0]	n/a	catFR1	0	R1204T
1493.772	0.856	1571147	REC_START	n/a	n/a	n/a	n/a	-999	12	[0, 0, 0]	n/a	catFR1	0	R1204T
1494.628	1.005	1572003	REC_WORD	0.856	n/a	LEMONADE	Beverages	1	12	[0, 0, 0]	n/a	catFR1	0	R1204T
1495.633	1.515	1573008	REC_WORD	1.861	n/a	PEN	OfficeSupplies	3	12	[0, 0, 0]	n/a	catFR1	0	R1204T
1497.148	0.852	1574523	REC_WORD	3.376	n/a	RUM	Beverages	2	12	[0, 0, 0]	n/a	catFR1	0	R1204T
1498.0	1.257	1575375	REC_WORD	4.228	n/a	FOLDER	OfficeSupplies	4	12	[0, 0, 0]	n/a	catFR1	0	R1204T
1499.257	1.12	1576631	REC_WORD	5.485	n/a	NOTEBOOK	OfficeSupplies	7	12	[0, 0, 0]	n/a	catFR1	0	R1204T
1500.377	0.869	1577751	REC_WORD	6.605	n/a	JUICE	Beverages	10	12	[0, 0, 0]	n/a	catFR1	0	R1204T
1501.246	3.311	1578620	REC_WORD	7.474	n/a	CUCUMBER	Vegetables	5	12	[0, 0, 0]	n/a	catFR1	0	R1204T
1504.557	2.284	1581931	REC_WORD_VV	10.785	n/a	<>	n/a	-999	12	[0, 0, 0]	n/a	catFR1	0	R1204T
1506.841	1.557	1584215	REC_WORD_VV	13.069	n/a	<>	n/a	-999	12	[0, 0, 0]	n/a	catFR1	0	R1204T
1508.398	7.328	1585772	REC_WORD	14.626	n/a	CAULIFLOWER	Vegetables	6	12	[0, 0, 0]	n/a	catFR1	0	R1204T
1515.726	8.058	1593099	REC_WORD_VV	21.954	n/a	<>	n/a	-999	12	[0, 0, 0]	n/a	catFR1	0	R1204T
1523.784	8.828	1601157	REC_END	n/a	n/a	n/a	n/a	-999	12	[0, 0, 0]	n/a	catFR1	0	R1204T
1532.612	0.5	1609984	TRIAL	n/a	n/a	n/a	n/a	-999	13	[0, 0, 0]	n/a	catFR1	0	R1204T
1533.112	10.0	1610484	COUNTDOWN_START	n/a	n/a	n/a	n/a	-999	13	[0, 0, 0]	n/a	catFR1	0	R1204T
1543.54	0.007	1620912	COUNTDOWN_END	n/a	n/a	n/a	n/a	-999	13	[0, 0, 0]	n/a	catFR1	0	R1204T
1543.547	1.6	1620919	ORIENT	n/a	n/a	n/a	n/a	-999	13	[0, 0, 0]	n/a	catFR1	0	R1204T
1545.165	2.117	1622537	ORIENT_OFF	n/a	n/a	n/a	n/a	-999	13	[0, 0, 0]	n/a	catFR1	0	R1204T
1547.282	1.6	1624654	WORD	n/a	wordpools/wordpool_categorized_EN.txt	CAR	Vehicles	1	13	[0, 0, 0]	n/a	catFR1	0	R1204T
1548.899	0.933	1626270	WORD_OFF	n/a	n/a	CAR	n/a	1	13	[0, 0, 0]	n/a	catFR1	0	R1204T
1549.832	1.6	1627203	WORD	n/a	wordpools/wordpool_categorized_EN.txt	BIKE	Vehicles	2	13	[0, 0, 0]	n/a	catFR1	0	R1204T
1551.448	0.9	1628819	WORD_OFF	n/a	n/a	BIKE	n/a	2	13	[0, 0, 0]	n/a	catFR1	0	R1204T
1552.348	1.6	1629719	WORD	n/a	wordpools/wordpool_categorized_EN.txt	FUDGE	Desserts	3	13	[0, 0, 0]	n/a	catFR1	0	R1204T
1553.95	0.849	1631321	WORD_OFF	n/a	n/a	FUDGE	n/a	3	13	[0, 0, 0]	n/a	catFR1	0	R1204T
1554.799	1.6	1632170	WORD	n/a	wordpools/wordpool_categorized_EN.txt	MOUSSE	Desserts	4	13	[0, 0, 0]	n/a	catFR1	0	R1204T
1556.416	0.9	1633787	WORD_OFF	n/a	n/a	MOUSSE	n/a	4	13	[0, 0, 0]	n/a	catFR1	0	R1204T
1557.316	1.6	1634687	WORD	n/a	wordpools/wordpool_categorized_EN.txt	SQUID	OceanAnimals	5	13	[0, 0, 0]	n/a	catFR1	0	R1204T
1558.934	0.9	1636305	WORD_OFF	n/a	n/a	SQUID	n/a	5	13	[0, 0, 0]	n/a	catFR1	0	R1204T
1559.834	1.6	1637205	WORD	n/a	wordpools/wordpool_categorized_EN.txt	CRAB	OceanAnimals	6	13	[0, 0, 0]	n/a	catFR1	0	R1204T
1561.45	0.867	1638821	WORD_OFF	n/a	n/a	CRAB	n/a	6	13	[0, 0, 0]	n/a	catFR1	0	R1204T
1562.317	1.6	1639688	WORD	n/a	wordpools/wordpool_categorized_EN.txt	PLANE	Vehicles	7	13	[0, 0, 0]	n/a	catFR1	0	R1204T
1563.918	0.934	1641289	WORD_OFF	n/a	n/a	PLANE	n/a	7	13	[0, 0, 0]	n/a	catFR1	0	R1204T
1564.852	1.6	1642223	WORD	n/a	wordpools/wordpool_categorized_EN.txt	MOTORCYCLE	Vehicles	8	13	[0, 0, 0]	n/a	catFR1	0	R1204T
1566.468	0.834	1643838	WORD_OFF	n/a	n/a	MOTORCYCLE	n/a	8	13	[0, 0, 0]	n/a	catFR1	0	R1204T
1567.302	1.6	1644672	WORD	n/a	wordpools/wordpool_categorized_EN.txt	COBBLER	Desserts	9	13	[0, 0, 0]	n/a	catFR1	0	R1204T
1568.919	0.816	1646289	WORD_OFF	n/a	n/a	COBBLER	n/a	9	13	[0, 0, 0]	n/a	catFR1	0	R1204T
1569.735	1.6	1647105	WORD	n/a	wordpools/wordpool_categorized_EN.txt	CUPCAKE	Desserts	10	13	[0, 0, 0]	n/a	catFR1	0	R1204T
1571.352	0.768	1648722	WORD_OFF	n/a	n/a	CUPCAKE	n/a	10	13	[0, 0, 0]	n/a	catFR1	0	R1204T
1572.12	1.6	1649490	WORD	n/a	wordpools/wordpool_categorized_EN.txt	LOBSTER	OceanAnimals	11	13	[0, 0, 0]	n/a	catFR1	0	R1204T
1573.736	0.833	1651106	WORD_OFF	n/a	n/a	LOBSTER	n/a	11	13	[0, 0, 0]	n/a	catFR1	0	R1204T
1574.569	1.6	1651939	WORD	n/a	wordpools/wordpool_categorized_EN.txt	TURTLE	OceanAnimals	12	13	[0, 0, 0]	n/a	catFR1	0	R1204T
1576.187	0.0	1653557	ENCODING_END	n/a	n/a	n/a	n/a	-999	13	[0, 0, 0]	n/a	catFR1	0	R1204T
1576.187	0.103	1653557	WORD_OFF	n/a	n/a	TURTLE	n/a	12	13	[0, 0, 0]	n/a	catFR1	0	R1204T
1576.29	0.0	1653660	DISTRACT_START	n/a	n/a	n/a	n/a	-999	13	[0, 0, 0]	n/a	catFR1	0	R1204T
1576.29	0.014	1653660	START	n/a	n/a	n/a	n/a	-999	13	[-999, -999, -999]	n/a	catFR1	0	R1204T
1576.304	7.15	1653674	PROB	7.124	n/a	n/a	n/a	-999	13	[6, 8, 8]	22.0	catFR1	0	R1204T
1583.454	11.035	1660823	PROB	11.006	n/a	n/a	n/a	-999	13	[8, 6, 9]	23.0	catFR1	0	R1204T
1594.489	7.948	1671858	PROB	7.948	n/a	n/a	n/a	-999	13	[6, 6, 6]	18.0	catFR1	0	R1204T
1602.437	0.021	1679805	STOP	n/a	n/a	n/a	n/a	-999	13	[-999, -999, -999]	n/a	catFR1	0	R1204T
1602.458	0.617	1679826	DISTRACT_END	n/a	n/a	n/a	n/a	-999	13	[0, 0, 0]	n/a	catFR1	0	R1204T
1603.075	0.517	1680443	RETRIEVAL_ORIENT	n/a	n/a	n/a	n/a	-999	13	[0, 0, 0]	n/a	catFR1	0	R1204T
1603.592	1.824	1680960	REC_START	n/a	n/a	n/a	n/a	-999	13	[0, 0, 0]	n/a	catFR1	0	R1204T
1605.416	1.366	1682784	REC_WORD_VV	1.824	n/a	<>	n/a	-999	13	[0, 0, 0]	n/a	catFR1	0	R1204T
1606.782	1.0	1684150	REC_WORD	3.19	n/a	MOTORCYCLE	Vehicles	8	13	[0, 0, 0]	n/a	catFR1	0	R1204T
1607.782	1.0	1685150	REC_WORD_VV	4.19	n/a	<>	n/a	-999	13	[0, 0, 0]	n/a	catFR1	0	R1204T
1608.782	1.173	1686150	REC_WORD_VV	5.19	n/a	<>	n/a	-999	13	[0, 0, 0]	n/a	catFR1	0	R1204T
1609.955	1.621	1687323	REC_WORD	6.363	n/a	MOUSSE	Desserts	4	13	[0, 0, 0]	n/a	catFR1	0	R1204T
1611.576	3.218	1688944	REC_WORD	7.984	n/a	BIKE	Vehicles	2	13	[0, 0, 0]	n/a	catFR1	0	R1204T
1614.794	8.639	1692162	REC_WORD	11.202	n/a	COBBLER	Desserts	9	13	[0, 0, 0]	n/a	catFR1	0	R1204T
1623.433	3.853	1700800	REC_WORD_VV	19.841	n/a	<>	n/a	-999	13	[0, 0, 0]	n/a	catFR1	0	R1204T
1627.286	5.393	1704653	REC_WORD_VV	23.694	n/a	<>	n/a	-999	13	[0, 0, 0]	n/a	catFR1	0	R1204T
1632.679	0.924	1710045	REC_WORD_VV	29.087	n/a	<>	n/a	-999	13	[0, 0, 0]	n/a	catFR1	0	R1204T
1633.603	12.079	1710969	REC_END	n/a	n/a	n/a	n/a	-999	13	[0, 0, 0]	n/a	catFR1	0	R1204T
1645.682	0.5	1723048	TRIAL	n/a	n/a	n/a	n/a	-999	14	[0, 0, 0]	n/a	catFR1	0	R1204T
1646.182	10.0	1723548	COUNTDOWN_START	n/a	n/a	n/a	n/a	-999	14	[0, 0, 0]	n/a	catFR1	0	R1204T
1656.61	0.007	1733975	COUNTDOWN_END	n/a	n/a	n/a	n/a	-999	14	[0, 0, 0]	n/a	catFR1	0	R1204T
1656.617	1.6	1733982	ORIENT	n/a	n/a	n/a	n/a	-999	14	[0, 0, 0]	n/a	catFR1	0	R1204T
1658.235	2.083	1735600	ORIENT_OFF	n/a	n/a	n/a	n/a	-999	14	[0, 0, 0]	n/a	catFR1	0	R1204T
1660.318	1.6	1737683	WORD	n/a	wordpools/wordpool_categorized_EN.txt	LIME	Fruit	1	14	[0, 0, 0]	n/a	catFR1	0	R1204T
1661.936	0.917	1739301	WORD_OFF	n/a	n/a	LIME	n/a	1	14	[0, 0, 0]	n/a	catFR1	0	R1204T
1662.853	1.6	1740218	WORD	n/a	wordpools/wordpool_categorized_EN.txt	PLUM	Fruit	2	14	[0, 0, 0]	n/a	catFR1	0	R1204T
1664.469	0.768	1741834	WORD_OFF	n/a	n/a	PLUM	n/a	2	14	[0, 0, 0]	n/a	catFR1	0	R1204T
1665.237	1.6	1742601	WORD	n/a	wordpools/wordpool_categorized_EN.txt	EVERGREEN	Trees	3	14	[0, 0, 0]	n/a	catFR1	0	R1204T
1666.854	0.983	1744218	WORD_OFF	n/a	n/a	EVERGREEN	n/a	3	14	[0, 0, 0]	n/a	catFR1	0	R1204T
1667.837	1.6	1745201	WORD	n/a	wordpools/wordpool_categorized_EN.txt	BIRCH	Trees	4	14	[0, 0, 0]	n/a	catFR1	0	R1204T
1669.453	0.867	1746817	WORD_OFF	n/a	n/a	BIRCH	n/a	4	14	[0, 0, 0]	n/a	catFR1	0	R1204T
1670.32	1.6	1747684	WORD	n/a	wordpools/wordpool_categorized_EN.txt	SHRIMP	OceanAnimals	5	14	[0, 0, 0]	n/a	catFR1	0	R1204T
1671.938	0.883	1749302	WORD_OFF	n/a	n/a	SHRIMP	n/a	5	14	[0, 0, 0]	n/a	catFR1	0	R1204T
1672.821	1.6	1750185	WORD	n/a	wordpools/wordpool_categorized_EN.txt	WHALE	OceanAnimals	6	14	[0, 0, 0]	n/a	catFR1	0	R1204T
1674.438	0.883	1751802	WORD_OFF	n/a	n/a	WHALE	n/a	6	14	[0, 0, 0]	n/a	catFR1	0	R1204T
1675.321	1.6	1752685	WORD	n/a	wordpools/wordpool_categorized_EN.txt	WALNUT	Trees	7	14	[0, 0, 0]	n/a	catFR1	0	R1204T
1676.939	0.933	1754303	WORD_OFF	n/a	n/a	WALNUT	n/a	7	14	[0, 0, 0]	n/a	catFR1	0	R1204T
1677.872	1.6	1755236	WORD	n/a	wordpools/wordpool_categorized_EN.txt	PINE	Trees	8	14	[0, 0, 0]	n/a	catFR1	0	R1204T
1679.488	0.802	1756852	WORD_OFF	n/a	n/a	PINE	n/a	8	14	[0, 0, 0]	n/a	catFR1	0	R1204T
1680.29	1.6	1757654	WORD	n/a	wordpools/wordpool_categorized_EN.txt	BLUEBERRY	Fruit	9	14	[0, 0, 0]	n/a	catFR1	0	R1204T
1681.906	0.901	1759269	WORD_OFF	n/a	n/a	BLUEBERRY	n/a	9	14	[0, 0, 0]	n/a	catFR1	0	R1204T
1682.807	1.6	1760170	WORD	n/a	wordpools/wordpool_categorized_EN.txt	GRAPE	Fruit	10	14	[0, 0, 0]	n/a	catFR1	0	R1204T
1684.423	0.95	1761786	WORD_OFF	n/a	n/a	GRAPE	n/a	10	14	[0, 0, 0]	n/a	catFR1	0	R1204T
1685.373	1.6	1762736	WORD	n/a	wordpools/wordpool_categorized_EN.txt	FISH	OceanAnimals	11	14	[0, 0, 0]	n/a	catFR1	0	R1204T
1686.991	0.95	1764354	WORD_OFF	n/a	n/a	FISH	n/a	11	14	[0, 0, 0]	n/a	catFR1	0	R1204T
1687.941	1.6	1765304	WORD	n/a	wordpools/wordpool_categorized_EN.txt	PLANKTON	OceanAnimals	12	14	[0, 0, 0]	n/a	catFR1	0	R1204T
1689.557	0.0	1766920	ENCODING_END	n/a	n/a	n/a	n/a	-999	14	[0, 0, 0]	n/a	catFR1	0	R1204T
1689.557	0.102	1766920	WORD_OFF	n/a	n/a	PLANKTON	n/a	12	14	[0, 0, 0]	n/a	catFR1	0	R1204T
1689.659	0.0	1767022	DISTRACT_START	n/a	n/a	n/a	n/a	-999	14	[0, 0, 0]	n/a	catFR1	0	R1204T
1689.659	0.014	1767022	START	n/a	n/a	n/a	n/a	-999	14	[-999, -999, -999]	n/a	catFR1	0	R1204T
1689.673	7.769	1767036	PROB	7.731	n/a	n/a	n/a	-999	14	[8, 4, 2]	14.0	catFR1	0	R1204T
1697.442	5.818	1774805	PROB	5.795	n/a	n/a	n/a	-999	14	[9, 4, 9]	22.0	catFR1	0	R1204T
1703.26	5.618	1780622	PROB	5.594	n/a	n/a	n/a	-999	14	[1, 7, 9]	17.0	catFR1	0	R1204T
1708.878	4.558	1786240	PROB	4.558	n/a	n/a	n/a	-999	14	[1, 7, 9]	17.0	catFR1	0	R1204T
1713.436	0.009	1790798	STOP	n/a	n/a	n/a	n/a	-999	14	[-999, -999, -999]	n/a	catFR1	0	R1204T
1713.445	0.551	1790807	DISTRACT_END	n/a	n/a	n/a	n/a	-999	14	[0, 0, 0]	n/a	catFR1	0	R1204T
1713.996	0.516	1791358	RETRIEVAL_ORIENT	n/a	n/a	n/a	n/a	-999	14	[0, 0, 0]	n/a	catFR1	0	R1204T
1714.512	1.305	1791874	REC_START	n/a	n/a	n/a	n/a	-999	14	[0, 0, 0]	n/a	catFR1	0	R1204T
1715.817	0.678	1793178	REC_WORD	1.305	n/a	LIME	Fruit	1	14	[0, 0, 0]	n/a	catFR1	0	R1204T
1716.495	0.748	1793856	REC_WORD	1.983	n/a	PLUM	Fruit	2	14	[0, 0, 0]	n/a	catFR1	0	R1204T
1717.243	0.752	1794604	REC_WORD	2.731	n/a	BLUEBERRY	Fruit	9	14	[0, 0, 0]	n/a	catFR1	0	R1204T
1717.995	1.757	1795356	REC_WORD	3.483	n/a	GRAPE	Fruit	10	14	[0, 0, 0]	n/a	catFR1	0	R1204T
1719.752	0.81	1797113	REC_WORD_VV	5.24	n/a	<>	n/a	-999	14	[0, 0, 0]	n/a	catFR1	0	R1204T
1720.562	3.192	1797923	REC_WORD	6.05	n/a	PLANKTON	OceanAnimals	12	14	[0, 0, 0]	n/a	catFR1	0	R1204T
1723.754	0.691	1801115	REC_WORD_VV	9.242	n/a	<>	n/a	-999	14	[0, 0, 0]	n/a	catFR1	0	R1204T
1724.445	20.079	1801806	REC_WORD	9.933	n/a	FISH	OceanAnimals	11	14	[0, 0, 0]	n/a	catFR1	0	R1204T
1744.524	9.479	1821884	REC_END	n/a	n/a	n/a	n/a	-999	14	[0, 0, 0]	n/a	catFR1	0	R1204T
1754.003	0.5	1831362	TRIAL	n/a	n/a	n/a	n/a	-999	15	[0, 0, 0]	n/a	catFR1	0	R1204T
1754.503	10.0	1831862	COUNTDOWN_START	n/a	n/a	n/a	n/a	-999	15	[0, 0, 0]	n/a	catFR1	0	R1204T
1764.931	0.007	1842289	COUNTDOWN_END	n/a	n/a	n/a	n/a	-999	15	[0, 0, 0]	n/a	catFR1	0	R1204T
1764.938	1.6	1842296	ORIENT	n/a	n/a	n/a	n/a	-999	15	[0, 0, 0]	n/a	catFR1	0	R1204T
1766.554	2.252	1843912	ORIENT_OFF	n/a	n/a	n/a	n/a	-999	15	[0, 0, 0]	n/a	catFR1	0	R1204T
1768.806	1.6	1846164	WORD	n/a	wordpools/wordpool_categorized_EN.txt	OYSTER	OceanAnimals	1	15	[0, 0, 0]	n/a	catFR1	0	R1204T
1770.422	0.884	1847780	WORD_OFF	n/a	n/a	OYSTER	n/a	1	15	[0, 0, 0]	n/a	catFR1	0	R1204T
1771.306	1.6	1848664	WORD	n/a	wordpools/wordpool_categorized_EN.txt	OCTOPUS	OceanAnimals	2	15	[0, 0, 0]	n/a	catFR1	0	R1204T
1772.923	0.849	1850281	WORD_OFF	n/a	n/a	OCTOPUS	n/a	2	15	[0, 0, 0]	n/a	catFR1	0	R1204T
1773.772	1.6	1851130	WORD	n/a	wordpools/wordpool_categorized_EN.txt	CROW	Birds	3	15	[0, 0, 0]	n/a	catFR1	0	R1204T
1775.389	0.918	1852747	WORD_OFF	n/a	n/a	CROW	n/a	3	15	[0, 0, 0]	n/a	catFR1	0	R1204T
1776.307	1.6	1853665	WORD	n/a	wordpools/wordpool_categorized_EN.txt	SEAGULL	Birds	4	15	[0, 0, 0]	n/a	catFR1	0	R1204T
1777.924	0.95	1855282	WORD_OFF	n/a	n/a	SEAGULL	n/a	4	15	[0, 0, 0]	n/a	catFR1	0	R1204T
1778.874	1.6	1856232	WORD	n/a	wordpools/wordpool_categorized_EN.txt	TABLET	Electronics	5	15	[0, 0, 0]	n/a	catFR1	0	R1204T
1780.49	0.801	1857848	WORD_OFF	n/a	n/a	TABLET	n/a	5	15	[0, 0, 0]	n/a	catFR1	0	R1204T
1781.291	1.6	1858649	WORD	n/a	wordpools/wordpool_categorized_EN.txt	STEREO	Electronics	6	15	[0, 0, 0]	n/a	catFR1	0	R1204T
1782.908	1.0	1860265	WORD_OFF	n/a	n/a	STEREO	n/a	6	15	[0, 0, 0]	n/a	catFR1	0	R1204T
1783.908	1.6	1861265	WORD	n/a	wordpools/wordpool_categorized_EN.txt	DOLPHIN	OceanAnimals	7	15	[0, 0, 0]	n/a	catFR1	0	R1204T
1785.524	0.85	1862881	WORD_OFF	n/a	n/a	DOLPHIN	n/a	7	15	[0, 0, 0]	n/a	catFR1	0	R1204T
1786.374	1.6	1863731	WORD	n/a	wordpools/wordpool_categorized_EN.txt	JELLYFISH	OceanAnimals	8	15	[0, 0, 0]	n/a	catFR1	0	R1204T
1787.976	0.85	1865333	WORD_OFF	n/a	n/a	JELLYFISH	n/a	8	15	[0, 0, 0]	n/a	catFR1	0	R1204T
1788.826	1.6	1866183	WORD	n/a	wordpools/wordpool_categorized_EN.txt	ROBIN	Birds	9	15	[0, 0, 0]	n/a	catFR1	0	R1204T
1790.442	0.834	1867799	WORD_OFF	n/a	n/a	ROBIN	n/a	9	15	[0, 0, 0]	n/a	catFR1	0	R1204T
1791.276	1.6	1868633	WORD	n/a	wordpools/wordpool_categorized_EN.txt	GOOSE	Birds	10	15	[0, 0, 0]	n/a	catFR1	0	R1204T
1792.893	0.766	1870250	WORD_OFF	n/a	n/a	GOOSE	n/a	10	15	[0, 0, 0]	n/a	catFR1	0	R1204T
1793.659	1.6	1871016	WORD	n/a	wordpools/wordpool_categorized_EN.txt	COMPUTER	Electronics	11	15	[0, 0, 0]	n/a	catFR1	0	R1204T
1795.277	0.95	1872634	WORD_OFF	n/a	n/a	COMPUTER	n/a	11	15	[0, 0, 0]	n/a	catFR1	0	R1204T
1796.227	1.6	1873584	WORD	n/a	wordpools/wordpool_categorized_EN.txt	TELEVISION	Electronics	12	15	[0, 0, 0]	n/a	catFR1	0	R1204T
1797.844	0.0	1875201	ENCODING_END	n/a	n/a	n/a	n/a	-999	15	[0, 0, 0]	n/a	catFR1	0	R1204T
1797.844	0.139	1875201	WORD_OFF	n/a	n/a	TELEVISION	n/a	12	15	[0, 0, 0]	n/a	catFR1	0	R1204T
1797.983	0.0	1875340	DISTRACT_START	n/a	n/a	n/a	n/a	-999	15	[0, 0, 0]	n/a	catFR1	0	R1204T
1797.983	0.011	1875340	START	n/a	n/a	n/a	n/a	-999	15	[-999, -999, -999]	n/a	catFR1	0	R1204T
1797.994	4.667	1875351	PROB	4.635	n/a	n/a	n/a	-999	15	[3, 7, 9]	19.0	catFR1	0	R1204T
1802.661	3.7	1880017	PROB	3.664	n/a	n/a	n/a	-999	15	[3, 3, 7]	13.0	catFR1	0	R1204T
1806.361	8.235	1883717	PROB	8.212	n/a	n/a	n/a	-999	15	[1, 8, 6]	15.0	catFR1	0	R1204T
1814.596	4.49	1891952	PROB	4.49	n/a	n/a	n/a	-999	15	[2, 1, 6]	9.0	catFR1	0	R1204T
1819.086	0.012	1896441	STOP	n/a	n/a	n/a	n/a	-999	15	[-999, -999, -999]	n/a	catFR1	0	R1204T
1819.098	0.533	1896453	DISTRACT_END	n/a	n/a	n/a	n/a	-999	15	[0, 0, 0]	n/a	catFR1	0	R1204T
1819.631	0.518	1896986	RETRIEVAL_ORIENT	n/a	n/a	n/a	n/a	-999	15	[0, 0, 0]	n/a	catFR1	0	R1204T
1820.149	1.436	1897504	REC_START	n/a	n/a	n/a	n/a	-999	15	[0, 0, 0]	n/a	catFR1	0	R1204T
1821.585	0.664	1898940	REC_WORD	1.436	n/a	OYSTER	OceanAnimals	1	15	[0, 0, 0]	n/a	catFR1	0	R1204T
1822.249	0.791	1899604	REC_WORD	2.1	n/a	OCTOPUS	OceanAnimals	2	15	[0, 0, 0]	n/a	catFR1	0	R1204T
1823.04	0.825	1900395	REC_WORD	2.891	n/a	SEAGULL	Birds	4	15	[0, 0, 0]	n/a	catFR1	0	R1204T
1823.865	2.534	1901220	REC_WORD	3.716	n/a	JELLYFISH	OceanAnimals	8	15	[0, 0, 0]	n/a	catFR1	0	R1204T
1826.399	0.24	1903754	REC_WORD_VV	6.25	n/a	<>	n/a	-999	15	[0, 0, 0]	n/a	catFR1	0	R1204T
1826.639	23.523	1903994	REC_WORD	6.49	n/a	STEREO	Electronics	6	15	[0, 0, 0]	n/a	catFR1	0	R1204T
1850.162	6.093	1927515	REC_END	n/a	n/a	n/a	n/a	-999	15	[0, 0, 0]	n/a	catFR1	0	R1204T
1856.255	0.5	1933608	TRIAL	n/a	n/a	n/a	n/a	-999	16	[0, 0, 0]	n/a	catFR1	0	R1204T
1856.755	10.0	1934108	COUNTDOWN_START	n/a	n/a	n/a	n/a	-999	16	[0, 0, 0]	n/a	catFR1	0	R1204T
1867.183	0.007	1944535	COUNTDOWN_END	n/a	n/a	n/a	n/a	-999	16	[0, 0, 0]	n/a	catFR1	0	R1204T
1867.19	1.6	1944542	ORIENT	n/a	n/a	n/a	n/a	-999	16	[0, 0, 0]	n/a	catFR1	0	R1204T
1868.807	2.15	1946159	ORIENT_OFF	n/a	n/a	n/a	n/a	-999	16	[0, 0, 0]	n/a	catFR1	0	R1204T
1870.957	1.6	1948309	WORD	n/a	wordpools/wordpool_categorized_EN.txt	PETUNIA	Flowers	1	16	[0, 0, 0]	n/a	catFR1	0	R1204T
1872.573	1.001	1949925	WORD_OFF	n/a	n/a	PETUNIA	n/a	1	16	[0, 0, 0]	n/a	catFR1	0	R1204T
1873.574	1.6	1950926	WORD	n/a	wordpools/wordpool_categorized_EN.txt	LILY	Flowers	2	16	[0, 0, 0]	n/a	catFR1	0	R1204T
1875.192	0.866	1952544	WORD_OFF	n/a	n/a	LILY	n/a	2	16	[0, 0, 0]	n/a	catFR1	0	R1204T
1876.058	1.6	1953410	WORD	n/a	wordpools/wordpool_categorized_EN.txt	GRATER	KitchenTools	3	16	[0, 0, 0]	n/a	catFR1	0	R1204T
1877.674	0.884	1955026	WORD_OFF	n/a	n/a	GRATER	n/a	3	16	[0, 0, 0]	n/a	catFR1	0	R1204T
1878.558	1.6	1955910	WORD	n/a	wordpools/wordpool_categorized_EN.txt	COLANDER	KitchenTools	4	16	[0, 0, 0]	n/a	catFR1	0	R1204T
1880.159	0.834	1957511	WORD_OFF	n/a	n/a	COLANDER	n/a	4	16	[0, 0, 0]	n/a	catFR1	0	R1204T
1880.993	1.6	1958345	WORD	n/a	wordpools/wordpool_categorized_EN.txt	PAPER	OfficeSupplies	5	16	[0, 0, 0]	n/a	catFR1	0	R1204T
1882.609	0.916	1959960	WORD_OFF	n/a	n/a	PAPER	n/a	5	16	[0, 0, 0]	n/a	catFR1	0	R1204T
1883.525	1.6	1960876	WORD	n/a	wordpools/wordpool_categorized_EN.txt	GLUE	OfficeSupplies	6	16	[0, 0, 0]	n/a	catFR1	0	R1204T
1885.143	0.867	1962494	WORD_OFF	n/a	n/a	GLUE	n/a	6	16	[0, 0, 0]	n/a	catFR1	0	R1204T
1886.01	1.6	1963361	WORD	n/a	wordpools/wordpool_categorized_EN.txt	SUNFLOWER	Flowers	7	16	[0, 0, 0]	n/a	catFR1	0	R1204T
1887.626	0.934	1964977	WORD_OFF	n/a	n/a	SUNFLOWER	n/a	7	16	[0, 0, 0]	n/a	catFR1	0	R1204T
1888.56	1.6	1965911	WORD	n/a	wordpools/wordpool_categorized_EN.txt	MARIGOLD	Flowers	8	16	[0, 0, 0]	n/a	catFR1	0	R1204T
1890.178	0.833	1967529	WORD_OFF	n/a	n/a	MARIGOLD	n/a	8	16	[0, 0, 0]	n/a	catFR1	0	R1204T
1891.011	1.6	1968362	WORD	n/a	wordpools/wordpool_categorized_EN.txt	SPOON	KitchenTools	9	16	[0, 0, 0]	n/a	catFR1	0	R1204T
1892.627	0.95	1969978	WORD_OFF	n/a	n/a	SPOON	n/a	9	16	[0, 0, 0]	n/a	catFR1	0	R1204T
1893.577	1.6	1970928	WORD	n/a	wordpools/wordpool_categorized_EN.txt	LADLE	KitchenTools	10	16	[0, 0, 0]	n/a	catFR1	0	R1204T
1895.178	0.984	1972529	WORD_OFF	n/a	n/a	LADLE	n/a	10	16	[0, 0, 0]	n/a	catFR1	0	R1204T
1896.162	1.6	1973513	WORD	n/a	wordpools/wordpool_categorized_EN.txt	MARKER	OfficeSupplies	11	16	[0, 0, 0]	n/a	catFR1	0	R1204T
1897.778	0.85	1975129	WORD_OFF	n/a	n/a	MARKER	n/a	11	16	[0, 0, 0]	n/a	catFR1	0	R1204T
1898.628	1.6	1975978	WORD	n/a	wordpools/wordpool_categorized_EN.txt	BINDER	OfficeSupplies	12	16	[0, 0, 0]	n/a	catFR1	0	R1204T
1900.246	0.001	1977596	WORD_OFF	n/a	n/a	BINDER	n/a	12	16	[0, 0, 0]	n/a	catFR1	0	R1204T
1900.247	0.102	1977597	ENCODING_END	n/a	n/a	n/a	n/a	-999	16	[0, 0, 0]	n/a	catFR1	0	R1204T
1900.349	0.0	1977699	DISTRACT_START	n/a	n/a	n/a	n/a	-999	16	[0, 0, 0]	n/a	catFR1	0	R1204T
1900.349	0.013	1977699	START	n/a	n/a	n/a	n/a	-999	16	[-999, -999, -999]	n/a	catFR1	0	R1204T
1900.362	4.635	1977712	PROB	4.612	n/a	n/a	n/a	-999	16	[5, 4, 4]	13.0	catFR1	0	R1204T
1904.997	2.817	1982347	PROB	2.792	n/a	n/a	n/a	-999	16	[3, 5, 5]	13.0	catFR1	0	R1204T
1907.814	4.184	1985164	PROB	4.159	n/a	n/a	n/a	-999	16	[1, 1, 6]	8.0	catFR1	0	R1204T
1911.998	5.051	1989348	PROB	5.016	n/a	n/a	n/a	-999	16	[9, 9, 5]	23.0	catFR1	0	R1204T
1917.049	6.675	1994398	PROB	6.675	n/a	n/a	n/a	-999	16	[9, 7, 5]	22.0	catFR1	0	R1204T
1923.724	0.009	2001073	STOP	n/a	n/a	n/a	n/a	-999	16	[-999, -999, -999]	n/a	catFR1	0	R1204T
1923.733	0.583	2001082	DISTRACT_END	n/a	n/a	n/a	n/a	-999	16	[0, 0, 0]	n/a	catFR1	0	R1204T
1924.316	0.519	2001665	RETRIEVAL_ORIENT	n/a	n/a	n/a	n/a	-999	16	[0, 0, 0]	n/a	catFR1	0	R1204T
1924.835	1.099	2002184	REC_START	n/a	n/a	n/a	n/a	-999	16	[0, 0, 0]	n/a	catFR1	0	R1204T
1925.934	0.366	2003283	REC_WORD_VV	1.099	n/a	<>	n/a	-999	16	[0, 0, 0]	n/a	catFR1	0	R1204T
1926.3	0.603	2003649	REC_WORD	1.465	n/a	PAPER	OfficeSupplies	5	16	[0, 0, 0]	n/a	catFR1	0	R1204T
1926.903	1.824	2004252	REC_WORD	2.068	n/a	GRATER	KitchenTools	3	16	[0, 0, 0]	n/a	catFR1	0	R1204T
1928.727	1.429	2006076	REC_WORD	3.892	n/a	MARIGOLD	Flowers	8	16	[0, 0, 0]	n/a	catFR1	0	R1204T
1930.156	3.495	2007505	REC_WORD	5.321	n/a	GLUE	OfficeSupplies	6	16	[0, 0, 0]	n/a	catFR1	0	R1204T
1933.651	6.634	2010999	REC_WORD_VV	8.816	n/a	<>	n/a	-999	16	[0, 0, 0]	n/a	catFR1	0	R1204T
1940.285	14.199	2017633	REC_WORD_VV	15.45	n/a	<>	n/a	-999	16	[0, 0, 0]	n/a	catFR1	0	R1204T
1954.484	0.362	2031831	REC_WORD_VV	29.649	n/a	<>	n/a	-999	16	[0, 0, 0]	n/a	catFR1	0	R1204T
1954.846	7.711	2032193	REC_END	n/a	n/a	n/a	n/a	-999	16	[0, 0, 0]	n/a	catFR1	0	R1204T
1962.557	0.5	2039904	TRIAL	n/a	n/a	n/a	n/a	-999	17	[0, 0, 0]	n/a	catFR1	0	R1204T
1963.057	10.0	2040404	COUNTDOWN_START	n/a	n/a	n/a	n/a	-999	17	[0, 0, 0]	n/a	catFR1	0	R1204T
1973.485	0.007	2050831	COUNTDOWN_END	n/a	n/a	n/a	n/a	-999	17	[0, 0, 0]	n/a	catFR1	0	R1204T
1973.492	1.6	2050838	ORIENT	n/a	n/a	n/a	n/a	-999	17	[0, 0, 0]	n/a	catFR1	0	R1204T
1975.11	1.95	2052456	ORIENT_OFF	n/a	n/a	n/a	n/a	-999	17	[0, 0, 0]	n/a	catFR1	0	R1204T
1977.06	1.6	2054406	WORD	n/a	wordpools/wordpool_categorized_EN.txt	STRAWBERRY	Fruit	1	17	[0, 0, 0]	n/a	catFR1	0	R1204T
1978.676	0.95	2056022	WORD_OFF	n/a	n/a	STRAWBERRY	n/a	1	17	[0, 0, 0]	n/a	catFR1	0	R1204T
1979.626	1.6	2056972	WORD	n/a	wordpools/wordpool_categorized_EN.txt	CHERRY	Fruit	2	17	[0, 0, 0]	n/a	catFR1	0	R1204T
1981.227	0.901	2058572	WORD_OFF	n/a	n/a	CHERRY	n/a	2	17	[0, 0, 0]	n/a	catFR1	0	R1204T
1982.128	1.6	2059473	WORD	n/a	wordpools/wordpool_categorized_EN.txt	SPIDER	Insects	3	17	[0, 0, 0]	n/a	catFR1	0	R1204T
1983.744	0.85	2061089	WORD_OFF	n/a	n/a	SPIDER	n/a	3	17	[0, 0, 0]	n/a	catFR1	0	R1204T
1984.594	1.6	2061939	WORD	n/a	wordpools/wordpool_categorized_EN.txt	BEETLE	Insects	4	17	[0, 0, 0]	n/a	catFR1	0	R1204T
1986.212	0.8	2063557	WORD_OFF	n/a	n/a	BEETLE	n/a	4	17	[0, 0, 0]	n/a	catFR1	0	R1204T
1987.012	1.6	2064357	WORD	n/a	wordpools/wordpool_categorized_EN.txt	TOE	BodyParts	5	17	[0, 0, 0]	n/a	catFR1	0	R1204T
1988.628	0.983	2065973	WORD_OFF	n/a	n/a	TOE	n/a	5	17	[0, 0, 0]	n/a	catFR1	0	R1204T
1989.611	1.6	2066956	WORD	n/a	wordpools/wordpool_categorized_EN.txt	ARM	BodyParts	6	17	[0, 0, 0]	n/a	catFR1	0	R1204T
1991.213	0.95	2068558	WORD_OFF	n/a	n/a	ARM	n/a	6	17	[0, 0, 0]	n/a	catFR1	0	R1204T
1992.163	1.6	2069508	WORD	n/a	wordpools/wordpool_categorized_EN.txt	ORANGE	Fruit	7	17	[0, 0, 0]	n/a	catFR1	0	R1204T
1993.779	0.983	2071124	WORD_OFF	n/a	n/a	ORANGE	n/a	7	17	[0, 0, 0]	n/a	catFR1	0	R1204T
1994.762	1.6	2072107	WORD	n/a	wordpools/wordpool_categorized_EN.txt	LEMON	Fruit	8	17	[0, 0, 0]	n/a	catFR1	0	R1204T
1996.379	0.902	2073724	WORD_OFF	n/a	n/a	LEMON	n/a	8	17	[0, 0, 0]	n/a	catFR1	0	R1204T
1997.281	1.6	2074626	WORD	n/a	wordpools/wordpool_categorized_EN.txt	ANT	Insects	9	17	[0, 0, 0]	n/a	catFR1	0	R1204T
1998.897	0.766	2076241	WORD_OFF	n/a	n/a	ANT	n/a	9	17	[0, 0, 0]	n/a	catFR1	0	R1204T
1999.663	1.6	2077007	WORD	n/a	wordpools/wordpool_categorized_EN.txt	CRICKET	Insects	10	17	[0, 0, 0]	n/a	catFR1	0	R1204T
2001.281	0.984	2078625	WORD_OFF	n/a	n/a	CRICKET	n/a	10	17	[0, 0, 0]	n/a	catFR1	0	R1204T
2002.265	1.6	2079609	WORD	n/a	wordpools/wordpool_categorized_EN.txt	HEAD	BodyParts	11	17	[0, 0, 0]	n/a	catFR1	0	R1204T
2003.882	0.967	2081226	WORD_OFF	n/a	n/a	HEAD	n/a	11	17	[0, 0, 0]	n/a	catFR1	0	R1204T
2004.849	1.6	2082193	WORD	n/a	wordpools/wordpool_categorized_EN.txt	ELBOW	BodyParts	12	17	[0, 0, 0]	n/a	catFR1	0	R1204T
2006.464	0.001	2083808	WORD_OFF	n/a	n/a	ELBOW	n/a	12	17	[0, 0, 0]	n/a	catFR1	0	R1204T
2006.465	0.101	2083809	ENCODING_END	n/a	n/a	n/a	n/a	-999	17	[0, 0, 0]	n/a	catFR1	0	R1204T
2006.566	0.0	2083910	DISTRACT_START	n/a	n/a	n/a	n/a	-999	17	[0, 0, 0]	n/a	catFR1	0	R1204T
2006.566	0.015	2083910	START	n/a	n/a	n/a	n/a	-999	17	[-999, -999, -999]	n/a	catFR1	0	R1204T
2006.581	15.454	2083925	PROB	15.416	n/a	n/a	n/a	-999	17	[9, 9, 8]	26.0	catFR1	0	R1204T
2022.035	3.867	2099378	PROB	3.842	n/a	n/a	n/a	-999	17	[8, 4, 1]	13.0	catFR1	0	R1204T
2025.902	5.838	2103245	PROB	5.838	n/a	n/a	n/a	-999	17	[6, 6, 4]	16.0	catFR1	0	R1204T
2031.74	0.013	2109082	STOP	n/a	n/a	n/a	n/a	-999	17	[-999, -999, -999]	n/a	catFR1	0	R1204T
2031.753	0.583	2109095	DISTRACT_END	n/a	n/a	n/a	n/a	-999	17	[0, 0, 0]	n/a	catFR1	0	R1204T
2032.336	0.519	2109678	RETRIEVAL_ORIENT	n/a	n/a	n/a	n/a	-999	17	[0, 0, 0]	n/a	catFR1	0	R1204T
2032.855	2.018	2110197	REC_START	n/a	n/a	n/a	n/a	-999	17	[0, 0, 0]	n/a	catFR1	0	R1204T
2034.873	1.825	2112215	REC_WORD_VV	2.018	n/a	<>	n/a	-999	17	[0, 0, 0]	n/a	catFR1	0	R1204T
2036.698	1.053	2114040	REC_WORD_VV	3.843	n/a	<>	n/a	-999	17	[0, 0, 0]	n/a	catFR1	0	R1204T
2037.751	0.793	2115093	REC_WORD	4.896	n/a	CHERRY	Fruit	2	17	[0, 0, 0]	n/a	catFR1	0	R1204T
2038.544	1.929	2115886	REC_WORD	5.689	n/a	STRAWBERRY	Fruit	1	17	[0, 0, 0]	n/a	catFR1	0	R1204T
2040.473	1.718	2117815	REC_WORD	7.618	n/a	ARM	BodyParts	6	17	[0, 0, 0]	n/a	catFR1	0	R1204T
2042.191	1.657	2119533	REC_WORD	9.336	n/a	TOE	BodyParts	5	17	[0, 0, 0]	n/a	catFR1	0	R1204T
2043.848	7.691	2121190	REC_WORD	10.993	n/a	ANT	Insects	9	17	[0, 0, 0]	n/a	catFR1	0	R1204T
2051.539	11.327	2128880	REC_WORD_VV	18.684	n/a	<>	n/a	-999	17	[0, 0, 0]	n/a	catFR1	0	R1204T
2062.866	9.395	2140207	REC_END	n/a	n/a	n/a	n/a	-999	17	[0, 0, 0]	n/a	catFR1	0	R1204T
2072.261	0.5	2149601	TRIAL	n/a	n/a	n/a	n/a	-999	18	[0, 0, 0]	n/a	catFR1	0	R1204T
2072.761	10.0	2150101	COUNTDOWN_START	n/a	n/a	n/a	n/a	-999	18	[0, 0, 0]	n/a	catFR1	0	R1204T
2083.189	0.007	2160528	COUNTDOWN_END	n/a	n/a	n/a	n/a	-999	18	[0, 0, 0]	n/a	catFR1	0	R1204T
2083.196	1.6	2160535	ORIENT	n/a	n/a	n/a	n/a	-999	18	[0, 0, 0]	n/a	catFR1	0	R1204T
2084.813	2.317	2162152	ORIENT_OFF	n/a	n/a	n/a	n/a	-999	18	[0, 0, 0]	n/a	catFR1	0	R1204T
2087.13	1.6	2164469	WORD	n/a	wordpools/wordpool_categorized_EN.txt	CALCULATOR	Electronics	1	18	[0, 0, 0]	n/a	catFR1	0	R1204T
2088.746	0.834	2166085	WORD_OFF	n/a	n/a	CALCULATOR	n/a	1	18	[0, 0, 0]	n/a	catFR1	0	R1204T
2089.58	1.6	2166919	WORD	n/a	wordpools/wordpool_categorized_EN.txt	SPEAKER	Electronics	2	18	[0, 0, 0]	n/a	catFR1	0	R1204T
2091.197	0.867	2168536	WORD_OFF	n/a	n/a	SPEAKER	n/a	2	18	[0, 0, 0]	n/a	catFR1	0	R1204T
2092.064	1.6	2169403	WORD	n/a	wordpools/wordpool_categorized_EN.txt	SPATULA	KitchenTools	3	18	[0, 0, 0]	n/a	catFR1	0	R1204T
2093.68	0.934	2171019	WORD_OFF	n/a	n/a	SPATULA	n/a	3	18	[0, 0, 0]	n/a	catFR1	0	R1204T
2094.614	1.6	2171953	WORD	n/a	wordpools/wordpool_categorized_EN.txt	FORK	KitchenTools	4	18	[0, 0, 0]	n/a	catFR1	0	R1204T
2096.232	0.817	2173571	WORD_OFF	n/a	n/a	FORK	n/a	4	18	[0, 0, 0]	n/a	catFR1	0	R1204T
2097.049	1.6	2174388	WORD	n/a	wordpools/wordpool_categorized_EN.txt	WASHER	Appliances	5	18	[0, 0, 0]	n/a	catFR1	0	R1204T
2098.665	0.966	2176003	WORD_OFF	n/a	n/a	WASHER	n/a	5	18	[0, 0, 0]	n/a	catFR1	0	R1204T
2099.631	1.6	2176969	WORD	n/a	wordpools/wordpool_categorized_EN.txt	TOASTER	Appliances	6	18	[0, 0, 0]	n/a	catFR1	0	R1204T
2101.232	0.867	2178570	WORD_OFF	n/a	n/a	TOASTER	n/a	6	18	[0, 0, 0]	n/a	catFR1	0	R1204T
2102.099	1.6	2179437	WORD	n/a	wordpools/wordpool_categorized_EN.txt	RADIO	Electronics	7	18	[0, 0, 0]	n/a	catFR1	0	R1204T
2103.715	0.801	2181053	WORD_OFF	n/a	n/a	RADIO	n/a	7	18	[0, 0, 0]	n/a	catFR1	0	R1204T
2104.516	1.6	2181854	WORD	n/a	wordpools/wordpool_categorized_EN.txt	PRINTER	Electronics	8	18	[0, 0, 0]	n/a	catFR1	0	R1204T
2106.134	0.766	2183472	WORD_OFF	n/a	n/a	PRINTER	n/a	8	18	[0, 0, 0]	n/a	catFR1	0	R1204T
2106.9	1.6	2184238	WORD	n/a	wordpools/wordpool_categorized_EN.txt	TONGS	KitchenTools	9	18	[0, 0, 0]	n/a	catFR1	0	R1204T
2108.516	0.834	2185854	WORD_OFF	n/a	n/a	TONGS	n/a	9	18	[0, 0, 0]	n/a	catFR1	0	R1204T
2109.35	1.6	2186688	WORD	n/a	wordpools/wordpool_categorized_EN.txt	KNIFE	KitchenTools	10	18	[0, 0, 0]	n/a	catFR1	0	R1204T
2110.968	0.799	2188306	WORD_OFF	n/a	n/a	KNIFE	n/a	10	18	[0, 0, 0]	n/a	catFR1	0	R1204T
2111.767	1.6	2189105	WORD	n/a	wordpools/wordpool_categorized_EN.txt	BLENDER	Appliances	11	18	[0, 0, 0]	n/a	catFR1	0	R1204T
2113.384	0.851	2190722	WORD_OFF	n/a	n/a	BLENDER	n/a	11	18	[0, 0, 0]	n/a	catFR1	0	R1204T
2114.235	1.6	2191572	WORD	n/a	wordpools/wordpool_categorized_EN.txt	VACUUM	Appliances	12	18	[0, 0, 0]	n/a	catFR1	0	R1204T
2115.852	0.0	2193189	ENCODING_END	n/a	n/a	n/a	n/a	-999	18	[0, 0, 0]	n/a	catFR1	0	R1204T
2115.852	0.139	2193189	WORD_OFF	n/a	n/a	VACUUM	n/a	12	18	[0, 0, 0]	n/a	catFR1	0	R1204T
2115.991	0.0	2193328	DISTRACT_START	n/a	n/a	n/a	n/a	-999	18	[0, 0, 0]	n/a	catFR1	0	R1204T
2115.991	0.011	2193328	START	n/a	n/a	n/a	n/a	-999	18	[-999, -999, -999]	n/a	catFR1	0	R1204T
2116.002	7.767	2193339	PROB	7.738	n/a	n/a	n/a	-999	18	[5, 9, 8]	22.0	catFR1	0	R1204T
2123.769	4.219	2201106	PROB	4.187	n/a	n/a	n/a	-999	18	[8, 1, 3]	12.0	catFR1	0	R1204T
2127.988	5.234	2205325	PROB	5.202	n/a	n/a	n/a	-999	18	[5, 1, 3]	9.0	catFR1	0	R1204T
2133.222	4.511	2210558	PROB	4.511	n/a	n/a	n/a	-999	18	[2, 3, 9]	14.0	catFR1	0	R1204T
2137.733	0.022	2215069	STOP	n/a	n/a	n/a	n/a	-999	18	[-999, -999, -999]	n/a	catFR1	0	R1204T
2137.755	0.633	2215091	DISTRACT_END	n/a	n/a	n/a	n/a	-999	18	[0, 0, 0]	n/a	catFR1	0	R1204T
2138.388	0.519	2215724	RETRIEVAL_ORIENT	n/a	n/a	n/a	n/a	-999	18	[0, 0, 0]	n/a	catFR1	0	R1204T
2138.907	0.974	2216243	REC_START	n/a	n/a	n/a	n/a	-999	18	[0, 0, 0]	n/a	catFR1	0	R1204T
2139.881	0.848	2217217	REC_WORD	0.974	n/a	TONGS	KitchenTools	9	18	[0, 0, 0]	n/a	catFR1	0	R1204T
2140.729	0.458	2218065	REC_WORD	1.822	n/a	KNIFE	KitchenTools	10	18	[0, 0, 0]	n/a	catFR1	0	R1204T
2141.187	1.018	2218523	REC_WORD	2.28	n/a	SPATULA	KitchenTools	3	18	[0, 0, 0]	n/a	catFR1	0	R1204T
2142.205	4.154	2219541	REC_WORD	3.298	n/a	FORK	KitchenTools	4	18	[0, 0, 0]	n/a	catFR1	0	R1204T
2146.359	22.558	2223695	REC_WORD	7.452	n/a	SPEAKERS	n/a	-999	18	[0, 0, 0]	n/a	catFR1	0	R1204T
2168.917	6.461	2246251	REC_END	n/a	n/a	n/a	n/a	-999	18	[0, 0, 0]	n/a	catFR1	0	R1204T
2175.378	0.5	2252712	TRIAL	n/a	n/a	n/a	n/a	-999	19	[0, 0, 0]	n/a	catFR1	0	R1204T
2175.878	10.0	2253212	COUNTDOWN_START	n/a	n/a	n/a	n/a	-999	19	[0, 0, 0]	n/a	catFR1	0	R1204T
2186.306	0.008	2263639	COUNTDOWN_END	n/a	n/a	n/a	n/a	-999	19	[0, 0, 0]	n/a	catFR1	0	R1204T
2186.314	1.6	2263647	ORIENT	n/a	n/a	n/a	n/a	-999	19	[0, 0, 0]	n/a	catFR1	0	R1204T
2187.932	2.017	2265265	ORIENT_OFF	n/a	n/a	n/a	n/a	-999	19	[0, 0, 0]	n/a	catFR1	0	R1204T
2189.949	1.6	2267282	WORD	n/a	wordpools/wordpool_categorized_EN.txt	PHONE	Electronics	1	19	[0, 0, 0]	n/a	catFR1	0	R1204T
2191.565	0.883	2268898	WORD_OFF	n/a	n/a	PHONE	n/a	1	19	[0, 0, 0]	n/a	catFR1	0	R1204T
2192.448	1.6	2269781	WORD	n/a	wordpools/wordpool_categorized_EN.txt	SCANNER	Electronics	2	19	[0, 0, 0]	n/a	catFR1	0	R1204T
2194.066	0.784	2271399	WORD_OFF	n/a	n/a	SCANNER	n/a	2	19	[0, 0, 0]	n/a	catFR1	0	R1204T
2194.85	1.6	2272183	WORD	n/a	wordpools/wordpool_categorized_EN.txt	BASS	Instruments	3	19	[0, 0, 0]	n/a	catFR1	0	R1204T
2196.466	0.866	2273799	WORD_OFF	n/a	n/a	BASS	n/a	3	19	[0, 0, 0]	n/a	catFR1	0	R1204T
2197.332	1.6	2274664	WORD	n/a	wordpools/wordpool_categorized_EN.txt	GUITAR	Instruments	4	19	[0, 0, 0]	n/a	catFR1	0	R1204T
2198.934	0.782	2276266	WORD_OFF	n/a	n/a	GUITAR	n/a	4	19	[0, 0, 0]	n/a	catFR1	0	R1204T
2199.716	1.6	2277048	WORD	n/a	wordpools/wordpool_categorized_EN.txt	HUMIDITY	Weather	5	19	[0, 0, 0]	n/a	catFR1	0	R1204T
2201.333	0.818	2278665	WORD_OFF	n/a	n/a	HUMIDITY	n/a	5	19	[0, 0, 0]	n/a	catFR1	0	R1204T
2202.151	1.6	2279483	WORD	n/a	wordpools/wordpool_categorized_EN.txt	CLOUD	Weather	6	19	[0, 0, 0]	n/a	catFR1	0	R1204T
2203.767	1.0	2281099	WORD_OFF	n/a	n/a	CLOUD	n/a	6	19	[0, 0, 0]	n/a	catFR1	0	R1204T
2204.767	1.6	2282099	WORD	n/a	wordpools/wordpool_categorized_EN.txt	ORGAN	Instruments	7	19	[0, 0, 0]	n/a	catFR1	0	R1204T
2206.384	0.835	2283716	WORD_OFF	n/a	n/a	ORGAN	n/a	7	19	[0, 0, 0]	n/a	catFR1	0	R1204T
2207.219	1.6	2284551	WORD	n/a	wordpools/wordpool_categorized_EN.txt	CELLO	Instruments	8	19	[0, 0, 0]	n/a	catFR1	0	R1204T
2208.836	0.949	2286168	WORD_OFF	n/a	n/a	CELLO	n/a	8	19	[0, 0, 0]	n/a	catFR1	0	R1204T
2209.785	1.6	2287117	WORD	n/a	wordpools/wordpool_categorized_EN.txt	MICROWAVE	Electronics	9	19	[0, 0, 0]	n/a	catFR1	0	R1204T
2211.402	0.768	2288734	WORD_OFF	n/a	n/a	MICROWAVE	n/a	9	19	[0, 0, 0]	n/a	catFR1	0	R1204T
2212.17	1.6	2289502	WORD	n/a	wordpools/wordpool_categorized_EN.txt	HEADPHONES	Electronics	10	19	[0, 0, 0]	n/a	catFR1	0	R1204T
2213.785	0.867	2291117	WORD_OFF	n/a	n/a	HEADPHONES	n/a	10	19	[0, 0, 0]	n/a	catFR1	0	R1204T
2214.652	1.6	2291983	WORD	n/a	wordpools/wordpool_categorized_EN.txt	TORNADO	Weather	11	19	[0, 0, 0]	n/a	catFR1	0	R1204T
2216.254	0.866	2293585	WORD_OFF	n/a	n/a	TORNADO	n/a	11	19	[0, 0, 0]	n/a	catFR1	0	R1204T
2217.12	1.6	2294451	WORD	n/a	wordpools/wordpool_categorized_EN.txt	LIGHTNING	Weather	12	19	[0, 0, 0]	n/a	catFR1	0	R1204T
2218.736	0.0	2296067	ENCODING_END	n/a	n/a	n/a	n/a	-999	19	[0, 0, 0]	n/a	catFR1	0	R1204T
2218.736	0.104	2296067	WORD_OFF	n/a	n/a	LIGHTNING	n/a	12	19	[0, 0, 0]	n/a	catFR1	0	R1204T
2218.84	0.001	2296171	DISTRACT_START	n/a	n/a	n/a	n/a	-999	19	[0, 0, 0]	n/a	catFR1	0	R1204T
2218.841	0.013	2296172	START	n/a	n/a	n/a	n/a	-999	19	[-999, -999, -999]	n/a	catFR1	0	R1204T
2218.854	6.684	2296185	PROB	6.647	n/a	n/a	n/a	-999	19	[8, 2, 7]	17.0	catFR1	0	R1204T
2225.538	5.05	2302869	PROB	5.026	n/a	n/a	n/a	-999	19	[5, 9, 5]	19.0	catFR1	0	R1204T
2230.588	3.851	2307918	PROB	3.825	n/a	n/a	n/a	-999	19	[5, 5, 6]	16.0	catFR1	0	R1204T
2234.439	4.034	2311769	PROB	3.998	n/a	n/a	n/a	-999	19	[4, 1, 6]	11.0	catFR1	0	R1204T
2238.473	4.7	2315803	PROB	4.7	n/a	n/a	n/a	-999	19	[2, 5, 3]	10.0	catFR1	0	R1204T
2243.173	0.019	2320503	STOP	n/a	n/a	n/a	n/a	-999	19	[-999, -999, -999]	n/a	catFR1	0	R1204T
2243.192	0.617	2320522	DISTRACT_END	n/a	n/a	n/a	n/a	-999	19	[0, 0, 0]	n/a	catFR1	0	R1204T
2243.809	0.516	2321139	RETRIEVAL_ORIENT	n/a	n/a	n/a	n/a	-999	19	[0, 0, 0]	n/a	catFR1	0	R1204T
2244.325	1.329	2321655	REC_START	n/a	n/a	n/a	n/a	-999	19	[0, 0, 0]	n/a	catFR1	0	R1204T
2245.654	0.885	2322984	REC_WORD	1.329	n/a	PHONE	Electronics	1	19	[0, 0, 0]	n/a	catFR1	0	R1204T
2246.539	0.719	2323869	REC_WORD	2.214	n/a	SCANNER	Electronics	2	19	[0, 0, 0]	n/a	catFR1	0	R1204T
2247.258	1.108	2324587	REC_WORD	2.933	n/a	TORNADO	Weather	11	19	[0, 0, 0]	n/a	catFR1	0	R1204T
2248.366	1.882	2325695	REC_WORD	4.041	n/a	HUMIDITY	Weather	5	19	[0, 0, 0]	n/a	catFR1	0	R1204T
2250.248	1.428	2327577	REC_WORD	5.923	n/a	LIGHTNING	Weather	12	19	[0, 0, 0]	n/a	catFR1	0	R1204T
2251.676	2.464	2329005	REC_WORD_VV	7.351	n/a	<>	n/a	-999	19	[0, 0, 0]	n/a	catFR1	0	R1204T
2254.14	6.884	2331469	REC_WORD_VV	9.815	n/a	<>	n/a	-999	19	[0, 0, 0]	n/a	catFR1	0	R1204T
2261.024	13.313	2338353	REC_WORD_VV	16.699	n/a	<>	n/a	-999	19	[0, 0, 0]	n/a	catFR1	0	R1204T
2274.337	6.478	2351665	REC_END	n/a	n/a	n/a	n/a	-999	19	[0, 0, 0]	n/a	catFR1	0	R1204T
2280.815	0.5	2358142	TRIAL	n/a	n/a	n/a	n/a	-999	20	[0, 0, 0]	n/a	catFR1	0	R1204T
2281.315	10.0	2358642	COUNTDOWN_START	n/a	n/a	n/a	n/a	-999	20	[0, 0, 0]	n/a	catFR1	0	R1204T
2291.743	0.007	2369070	COUNTDOWN_END	n/a	n/a	n/a	n/a	-999	20	[0, 0, 0]	n/a	catFR1	0	R1204T
2291.75	1.6	2369077	ORIENT	n/a	n/a	n/a	n/a	-999	20	[0, 0, 0]	n/a	catFR1	0	R1204T
2293.367	2.183	2370694	ORIENT_OFF	n/a	n/a	n/a	n/a	-999	20	[0, 0, 0]	n/a	catFR1	0	R1204T
2295.55	1.6	2372877	WORD	n/a	wordpools/wordpool_categorized_EN.txt	ROOF	Building	1	20	[0, 0, 0]	n/a	catFR1	0	R1204T
2297.151	0.95	2374477	WORD_OFF	n/a	n/a	ROOF	n/a	1	20	[0, 0, 0]	n/a	catFR1	0	R1204T
2298.101	1.6	2375427	WORD	n/a	wordpools/wordpool_categorized_EN.txt	WALL	Building	2	20	[0, 0, 0]	n/a	catFR1	0	R1204T
2299.718	0.817	2377044	WORD_OFF	n/a	n/a	WALL	n/a	2	20	[0, 0, 0]	n/a	catFR1	0	R1204T
2300.535	1.6	2377861	WORD	n/a	wordpools/wordpool_categorized_EN.txt	PANDA	Zoo	3	20	[0, 0, 0]	n/a	catFR1	0	R1204T
2302.152	0.784	2379478	WORD_OFF	n/a	n/a	PANDA	n/a	3	20	[0, 0, 0]	n/a	catFR1	0	R1204T
2302.936	1.6	2380262	WORD	n/a	wordpools/wordpool_categorized_EN.txt	CHEETAH	Zoo	4	20	[0, 0, 0]	n/a	catFR1	0	R1204T
2304.552	0.867	2381878	WORD_OFF	n/a	n/a	CHEETAH	n/a	4	20	[0, 0, 0]	n/a	catFR1	0	R1204T
2305.419	1.6	2382745	WORD	n/a	wordpools/wordpool_categorized_EN.txt	RIVER	Landscapes	5	20	[0, 0, 0]	n/a	catFR1	0	R1204T
2307.037	0.9	2384363	WORD_OFF	n/a	n/a	RIVER	n/a	5	20	[0, 0, 0]	n/a	catFR1	0	R1204T
2307.937	1.6	2385263	WORD	n/a	wordpools/wordpool_categorized_EN.txt	VALLEY	Landscapes	6	20	[0, 0, 0]	n/a	catFR1	0	R1204T
2309.553	0.967	2386879	WORD_OFF	n/a	n/a	VALLEY	n/a	6	20	[0, 0, 0]	n/a	catFR1	0	R1204T
2310.52	1.6	2387846	WORD	n/a	wordpools/wordpool_categorized_EN.txt	GIRAFFE	Zoo	7	20	[0, 0, 0]	n/a	catFR1	0	R1204T
2312.138	0.816	2389464	WORD_OFF	n/a	n/a	GIRAFFE	n/a	7	20	[0, 0, 0]	n/a	catFR1	0	R1204T
2312.954	1.6	2390280	WORD	n/a	wordpools/wordpool_categorized_EN.txt	LION	Zoo	8	20	[0, 0, 0]	n/a	catFR1	0	R1204T
2314.57	1.017	2391895	WORD_OFF	n/a	n/a	LION	n/a	8	20	[0, 0, 0]	n/a	catFR1	0	R1204T
2315.587	1.6	2392912	WORD	n/a	wordpools/wordpool_categorized_EN.txt	WINDOW	Building	9	20	[0, 0, 0]	n/a	catFR1	0	R1204T
2317.205	0.984	2394530	WORD_OFF	n/a	n/a	WINDOW	n/a	9	20	[0, 0, 0]	n/a	catFR1	0	R1204T
2318.189	1.6	2395514	WORD	n/a	wordpools/wordpool_categorized_EN.txt	HALLWAY	Building	10	20	[0, 0, 0]	n/a	catFR1	0	R1204T
2319.806	0.832	2397131	WORD_OFF	n/a	n/a	HALLWAY	n/a	10	20	[0, 0, 0]	n/a	catFR1	0	R1204T
2320.638	1.6	2397963	WORD	n/a	wordpools/wordpool_categorized_EN.txt	HILLS	Landscapes	11	20	[0, 0, 0]	n/a	catFR1	0	R1204T
2322.256	0.95	2399581	WORD_OFF	n/a	n/a	HILLS	n/a	11	20	[0, 0, 0]	n/a	catFR1	0	R1204T
2323.206	1.6	2400531	WORD	n/a	wordpools/wordpool_categorized_EN.txt	FOREST	Landscapes	12	20	[0, 0, 0]	n/a	catFR1	0	R1204T
2324.823	0.0	2402148	WORD_OFF	n/a	n/a	FOREST	n/a	12	20	[0, 0, 0]	n/a	catFR1	0	R1204T
2324.823	0.104	2402148	ENCODING_END	n/a	n/a	n/a	n/a	-999	20	[0, 0, 0]	n/a	catFR1	0	R1204T
2324.927	0.0	2402252	DISTRACT_START	n/a	n/a	n/a	n/a	-999	20	[0, 0, 0]	n/a	catFR1	0	R1204T
2324.927	0.013	2402252	START	n/a	n/a	n/a	n/a	-999	20	[-999, -999, -999]	n/a	catFR1	0	R1204T
2324.94	3.783	2402265	PROB	3.752	n/a	n/a	n/a	-999	20	[6, 4, 2]	12.0	catFR1	0	R1204T
2328.723	5.085	2406048	PROB	5.049	n/a	n/a	n/a	-999	20	[8, 1, 4]	13.0	catFR1	0	R1204T
2333.808	4.883	2411132	PROB	4.845	n/a	n/a	n/a	-999	20	[3, 4, 1]	8.0	catFR1	0	R1204T
2338.691	5.386	2416015	PROB	5.362	n/a	n/a	n/a	-999	20	[7, 4, 4]	15.0	catFR1	0	R1204T
2344.077	4.064	2421401	PROB	4.064	n/a	n/a	n/a	-999	20	[1, 8, 7]	16.0	catFR1	0	R1204T
2348.141	0.02	2425464	STOP	n/a	n/a	n/a	n/a	-999	20	[-999, -999, -999]	n/a	catFR1	0	R1204T
2348.161	0.632	2425484	DISTRACT_END	n/a	n/a	n/a	n/a	-999	20	[0, 0, 0]	n/a	catFR1	0	R1204T
2348.793	0.519	2426116	RETRIEVAL_ORIENT	n/a	n/a	n/a	n/a	-999	20	[0, 0, 0]	n/a	catFR1	0	R1204T
2349.312	1.09	2426635	REC_START	n/a	n/a	n/a	n/a	-999	20	[0, 0, 0]	n/a	catFR1	0	R1204T
2350.402	0.63	2427725	REC_WORD	1.09	n/a	PANDA	Zoo	3	20	[0, 0, 0]	n/a	catFR1	0	R1204T
2351.032	0.62	2428355	REC_WORD	1.72	n/a	CHEETAH	Zoo	4	20	[0, 0, 0]	n/a	catFR1	0	R1204T
2351.652	0.854	2428975	REC_WORD	2.34	n/a	GIRAFFE	Zoo	7	20	[0, 0, 0]	n/a	catFR1	0	R1204T
2352.506	3.761	2429829	REC_WORD	3.194	n/a	LION	Zoo	8	20	[0, 0, 0]	n/a	catFR1	0	R1204T
2356.267	4.41	2433590	REC_WORD	6.955	n/a	RIVER	Landscapes	5	20	[0, 0, 0]	n/a	catFR1	0	R1204T
2360.677	18.646	2438000	REC_WORD	11.365	n/a	VALLEY	Landscapes	6	20	[0, 0, 0]	n/a	catFR1	0	R1204T
2379.323	7.477	2456645	REC_END	n/a	n/a	n/a	n/a	-999	20	[0, 0, 0]	n/a	catFR1	0	R1204T
2386.8	0.5	2464121	TRIAL	n/a	n/a	n/a	n/a	-999	21	[0, 0, 0]	n/a	catFR1	0	R1204T
2387.3	10.0	2464621	COUNTDOWN_START	n/a	n/a	n/a	n/a	-999	21	[0, 0, 0]	n/a	catFR1	0	R1204T
2397.728	0.008	2475048	COUNTDOWN_END	n/a	n/a	n/a	n/a	-999	21	[0, 0, 0]	n/a	catFR1	0	R1204T
2397.736	1.6	2475056	ORIENT	n/a	n/a	n/a	n/a	-999	21	[0, 0, 0]	n/a	catFR1	0	R1204T
2399.352	2.167	2476672	ORIENT_OFF	n/a	n/a	n/a	n/a	-999	21	[0, 0, 0]	n/a	catFR1	0	R1204T
2401.519	1.6	2478839	WORD	n/a	wordpools/wordpool_categorized_EN.txt	BASKETBALL	Toys	1	21	[0, 0, 0]	n/a	catFR1	0	R1204T
2403.137	0.801	2480457	WORD_OFF	n/a	n/a	BASKETBALL	n/a	1	21	[0, 0, 0]	n/a	catFR1	0	R1204T
2403.938	1.6	2481258	WORD	n/a	wordpools/wordpool_categorized_EN.txt	BASEBALL	Toys	2	21	[0, 0, 0]	n/a	catFR1	0	R1204T
2405.554	0.95	2482874	WORD_OFF	n/a	n/a	BASEBALL	n/a	2	21	[0, 0, 0]	n/a	catFR1	0	R1204T
2406.504	1.6	2483824	WORD	n/a	wordpools/wordpool_categorized_EN.txt	IRON	Appliances	3	21	[0, 0, 0]	n/a	catFR1	0	R1204T
2408.122	0.8	2485442	WORD_OFF	n/a	n/a	IRON	n/a	3	21	[0, 0, 0]	n/a	catFR1	0	R1204T
2408.922	1.6	2486242	WORD	n/a	wordpools/wordpool_categorized_EN.txt	DISHWASHER	Appliances	4	21	[0, 0, 0]	n/a	catFR1	0	R1204T
2410.538	0.817	2487858	WORD_OFF	n/a	n/a	DISHWASHER	n/a	4	21	[0, 0, 0]	n/a	catFR1	0	R1204T
2411.355	1.6	2488675	WORD	n/a	wordpools/wordpool_categorized_EN.txt	BLOUSE	Clothing	5	21	[0, 0, 0]	n/a	catFR1	0	R1204T
2412.956	0.832	2490276	WORD_OFF	n/a	n/a	BLOUSE	n/a	5	21	[0, 0, 0]	n/a	catFR1	0	R1204T
2413.788	1.6	2491107	WORD	n/a	wordpools/wordpool_categorized_EN.txt	DRESS	Clothing	6	21	[0, 0, 0]	n/a	catFR1	0	R1204T
2415.405	0.768	2492724	WORD_OFF	n/a	n/a	DRESS	n/a	6	21	[0, 0, 0]	n/a	catFR1	0	R1204T
2416.173	1.6	2493492	WORD	n/a	wordpools/wordpool_categorized_EN.txt	BALL	Toys	7	21	[0, 0, 0]	n/a	catFR1	0	R1204T
2417.789	0.95	2495108	WORD_OFF	n/a	n/a	BALL	n/a	7	21	[0, 0, 0]	n/a	catFR1	0	R1204T
