onset	duration	sample	trial_type	response_time	stim_file	item_name	category	serialpos	list	test	answer	experiment	session	subject
0.0	4.516	29109	INSTRUCT_START	n/a	n/a	n/a	n/a	-999	-999	[0, 0, 0]	n/a	catFR1	0	R1381T
4.516	30.932	33624	INSTRUCT_END	n/a	n/a	n/a	n/a	-999	-999	[0, 0, 0]	n/a	catFR1	0	R1381T
35.448	10.0	64562	COUNTDOWN_START	n/a	n/a	n/a	n/a	-999	-999	[0, 0, 0]	n/a	catFR1	0	R1381T
45.799	0.001	74906	COUNTDOWN_END	n/a	n/a	n/a	n/a	-999	-999	[0, 0, 0]	n/a	catFR1	0	R1381T
45.8	2.199	74906	ENCODING_START	n/a	n/a	n/a	n/a	-999	-1	[0, 0, 0]	n/a	catFR1	0	R1381T
47.999	1.6	77107	WORD	n/a	n/a	SILK	Materials	1	-1	[0, 0, 0]	n/a	catFR1	0	R1381T
49.599	0.866	78708	WORD_OFF	n/a	n/a	SILK	Materials	1	-1	[0, 0, 0]	n/a	catFR1	0	R1381T
50.465	1.6	79576	WORD	n/a	n/a	DENIM	Materials	2	-1	[0, 0, 0]	n/a	catFR1	0	R1381T
52.065	0.85	81168	WORD_OFF	n/a	n/a	DENIM	Materials	2	-1	[0, 0, 0]	n/a	catFR1	0	R1381T
52.915	1.6	82025	WORD	n/a	n/a	FIREMAN	Professions	3	-1	[0, 0, 0]	n/a	catFR1	0	R1381T
54.515	1.0	83627	WORD_OFF	n/a	n/a	FIREMAN	Professions	3	-1	[0, 0, 0]	n/a	catFR1	0	R1381T
55.515	1.6	84619	WORD	n/a	n/a	TEACHER	Professions	4	-1	[0, 0, 0]	n/a	catFR1	0	R1381T
57.115	0.984	86221	WORD_OFF	n/a	n/a	TEACHER	Professions	4	-1	[0, 0, 0]	n/a	catFR1	0	R1381T
58.099	1.6	87202	WORD	n/a	n/a	HOUR	Times	5	-1	[0, 0, 0]	n/a	catFR1	0	R1381T
59.698	1.0	88804	WORD_OFF	n/a	n/a	HOUR	Times	5	-1	[0, 0, 0]	n/a	catFR1	0	R1381T
60.698	1.6	89806	WORD	n/a	n/a	MINUTE	Times	6	-1	[0, 0, 0]	n/a	catFR1	0	R1381T
62.315	0.783	91418	WORD_OFF	n/a	n/a	MINUTE	Times	6	-1	[0, 0, 0]	n/a	catFR1	0	R1381T
63.098	1.6	92204	WORD	n/a	n/a	FARMER	Professions	7	-1	[0, 0, 0]	n/a	catFR1	0	R1381T
64.698	0.801	93805	WORD_OFF	n/a	n/a	FARMER	Professions	7	-1	[0, 0, 0]	n/a	catFR1	0	R1381T
65.499	1.6	94601	WORD	n/a	n/a	PLUMBER	Professions	8	-1	[0, 0, 0]	n/a	catFR1	0	R1381T
67.115	0.933	96223	WORD_OFF	n/a	n/a	PLUMBER	Professions	8	-1	[0, 0, 0]	n/a	catFR1	0	R1381T
68.048	1.6	97153	WORD	n/a	n/a	SECOND	Times	9	-1	[0, 0, 0]	n/a	catFR1	0	R1381T
69.665	0.95	98776	WORD_OFF	n/a	n/a	SECOND	Times	9	-1	[0, 0, 0]	n/a	catFR1	0	R1381T
70.615	1.6	99726	WORD	n/a	n/a	DAY	Times	10	-1	[0, 0, 0]	n/a	catFR1	0	R1381T
72.232	0.983	101338	WORD_OFF	n/a	n/a	DAY	Times	10	-1	[0, 0, 0]	n/a	catFR1	0	R1381T
73.215	1.6	102320	WORD	n/a	n/a	LEATHER	Materials	11	-1	[0, 0, 0]	n/a	catFR1	0	R1381T
74.815	0.85	103922	WORD_OFF	n/a	n/a	LEATHER	Materials	11	-1	[0, 0, 0]	n/a	catFR1	0	R1381T
75.665	1.6	104769	WORD	n/a	n/a	WOOL	Materials	12	-1	[0, 0, 0]	n/a	catFR1	0	R1381T
77.283	0.002	106388	PROB	9.516	n/a	n/a	n/a	-999	-1	[8, 2, 7]	17.0	catFR1	0	R1381T
77.285	0.0	106390	START	n/a	n/a	n/a	n/a	-999	-1	[-999, -999, -999]	n/a	catFR1	0	R1381T
77.282	0.002	106391	WORD_OFF	n/a	n/a	WOOL	Materials	12	-1	[0, 0, 0]	n/a	catFR1	0	R1381T
77.284	0.001	106391	ENCODING_END	n/a	n/a	n/a	n/a	-999	-1	[0, 0, 0]	n/a	catFR1	0	R1381T
77.285	9.531	106391	DISTRACT_START	n/a	n/a	n/a	n/a	-999	-1	[0, 0, 0]	n/a	catFR1	0	R1381T
86.816	5.483	115921	PROB	5.466	n/a	n/a	n/a	-999	-1	[8, 6, 6]	20.0	catFR1	0	R1381T
92.299	4.983	121404	PROB	4.966	n/a	n/a	n/a	-999	-1	[4, 6, 4]	14.0	catFR1	0	R1381T
97.282	4.599	126386	PROB	4.583	n/a	n/a	n/a	-999	-1	[7, 6, 4]	17.0	catFR1	0	R1381T
101.881	0.0	130985	DISTRACT_END	n/a	n/a	n/a	n/a	-999	-1	[0, 0, 0]	n/a	catFR1	0	R1381T
101.881	1.285	130985	STOP	n/a	n/a	n/a	n/a	-999	-1	[-999, -999, -999]	n/a	catFR1	0	R1381T
103.166	5.263	132276	REC_START	n/a	n/a	n/a	n/a	-999	-1	[0, 0, 0]	n/a	catFR1	0	R1381T
108.429	2.164	137533	REC_WORD_VV	5.263	n/a	<>	n/a	-999	-1	[0, 0, 0]	n/a	catFR1	0	R1381T
110.593	0.549	139697	REC_WORD_VV	7.427	n/a	<>	n/a	-999	-1	[0, 0, 0]	n/a	catFR1	0	R1381T
111.142	1.559	140246	REC_WORD	7.976	n/a	SILK	Materials	1	-1	[0, 0, 0]	n/a	catFR1	0	R1381T
112.701	1.551	141804	REC_WORD	9.535	n/a	DENIM	Materials	2	-1	[0, 0, 0]	n/a	catFR1	0	R1381T
114.252	2.208	143355	REC_WORD	11.086	n/a	FIREMAN	Professions	3	-1	[0, 0, 0]	n/a	catFR1	0	R1381T
116.46	3.656	145563	REC_WORD	13.294	n/a	TEACHER	Professions	4	-1	[0, 0, 0]	n/a	catFR1	0	R1381T
120.116	0.589	149219	REC_WORD_VV	16.95	n/a	<>	n/a	-999	-1	[0, 0, 0]	n/a	catFR1	0	R1381T
120.705	1.694	149808	REC_WORD	17.539	n/a	MINUTE	Times	6	-1	[0, 0, 0]	n/a	catFR1	0	R1381T
122.399	1.885	151502	REC_WORD	19.233	n/a	HOUR	Times	5	-1	[0, 0, 0]	n/a	catFR1	0	R1381T
124.284	1.727	153387	REC_WORD	21.118	n/a	DAY	Times	10	-1	[0, 0, 0]	n/a	catFR1	0	R1381T
126.011	1.54	155114	REC_WORD	22.845	n/a	SECOND	Times	9	-1	[0, 0, 0]	n/a	catFR1	0	R1381T
127.551	1.39	156654	REC_WORD	24.385	n/a	LEATHER	Materials	11	-1	[0, 0, 0]	n/a	catFR1	0	R1381T
128.941	4.504	158044	REC_WORD	25.775	n/a	WOOL	Materials	12	-1	[0, 0, 0]	n/a	catFR1	0	R1381T
133.445	24.004	162543	REC_END	n/a	n/a	n/a	n/a	-999	-1	[0, 0, 0]	n/a	catFR1	0	R1381T
157.449	10.0	186547	COUNTDOWN_START	n/a	n/a	n/a	n/a	-999	1	[0, 0, 0]	n/a	catFR1	0	R1381T
167.799	0.0	196901	COUNTDOWN_END	n/a	n/a	n/a	n/a	-999	1	[0, 0, 0]	n/a	catFR1	0	R1381T
167.799	2.183	196901	ENCODING_START	n/a	n/a	n/a	n/a	-999	1	[0, 0, 0]	n/a	catFR1	0	R1381T
169.982	1.6	199081	WORD	n/a	wordpools/wordpool_categorized_EN.txt	TABLE	Furniture	1	1	[0, 0, 0]	n/a	catFR1	0	R1381T
171.582	0.817	200683	WORD_OFF	n/a	n/a	TABLE	Furniture	1	1	[0, 0, 0]	n/a	catFR1	0	R1381T
172.399	1.6	201499	WORD	n/a	wordpools/wordpool_categorized_EN.txt	SHELF	Furniture	2	1	[0, 0, 0]	n/a	catFR1	0	R1381T
174.015	0.932	203111	WORD_OFF	n/a	n/a	SHELF	Furniture	2	1	[0, 0, 0]	n/a	catFR1	0	R1381T
174.947	1.6	204052	WORD	n/a	wordpools/wordpool_categorized_EN.txt	CAR	Vehicles	3	1	[0, 0, 0]	n/a	catFR1	0	R1381T
176.549	0.933	205653	WORD_OFF	n/a	n/a	CAR	Vehicles	3	1	[0, 0, 0]	n/a	catFR1	0	R1381T
177.482	1.6	206583	WORD	n/a	wordpools/wordpool_categorized_EN.txt	TRUCK	Vehicles	4	1	[0, 0, 0]	n/a	catFR1	0	R1381T
179.099	0.866	208195	WORD_OFF	n/a	n/a	TRUCK	Vehicles	4	1	[0, 0, 0]	n/a	catFR1	0	R1381T
179.965	1.6	209063	WORD	n/a	wordpools/wordpool_categorized_EN.txt	WOODS	Landscapes	5	1	[0, 0, 0]	n/a	catFR1	0	R1381T
181.582	0.966	210686	WORD_OFF	n/a	n/a	WOODS	Landscapes	5	1	[0, 0, 0]	n/a	catFR1	0	R1381T
182.548	1.6	211647	WORD	n/a	wordpools/wordpool_categorized_EN.txt	MOUNTAIN	Landscapes	6	1	[0, 0, 0]	n/a	catFR1	0	R1381T
184.148	0.933	213248	WORD_OFF	n/a	n/a	MOUNTAIN	Landscapes	6	1	[0, 0, 0]	n/a	catFR1	0	R1381T
185.081	1.6	214178	WORD	n/a	wordpools/wordpool_categorized_EN.txt	JEEP	Vehicles	7	1	[0, 0, 0]	n/a	catFR1	0	R1381T
186.681	0.834	215780	WORD_OFF	n/a	n/a	JEEP	Vehicles	7	1	[0, 0, 0]	n/a	catFR1	0	R1381T
187.515	1.6	216617	WORD	n/a	wordpools/wordpool_categorized_EN.txt	BUS	Vehicles	8	1	[0, 0, 0]	n/a	catFR1	0	R1381T
189.131	0.984	218229	WORD_OFF	n/a	n/a	BUS	Vehicles	8	1	[0, 0, 0]	n/a	catFR1	0	R1381T
190.115	1.6	219211	WORD	n/a	wordpools/wordpool_categorized_EN.txt	STREAM	Landscapes	9	1	[0, 0, 0]	n/a	catFR1	0	R1381T
191.731	0.85	220833	WORD_OFF	n/a	n/a	STREAM	Landscapes	9	1	[0, 0, 0]	n/a	catFR1	0	R1381T
192.581	1.6	221680	WORD	n/a	wordpools/wordpool_categorized_EN.txt	VALLEY	Landscapes	10	1	[0, 0, 0]	n/a	catFR1	0	R1381T
194.198	1.0	223303	WORD_OFF	n/a	n/a	VALLEY	Landscapes	10	1	[0, 0, 0]	n/a	catFR1	0	R1381T
195.198	1.6	224295	WORD	n/a	wordpools/wordpool_categorized_EN.txt	COUCH	Furniture	11	1	[0, 0, 0]	n/a	catFR1	0	R1381T
196.815	0.982	225917	WORD_OFF	n/a	n/a	COUCH	Furniture	11	1	[0, 0, 0]	n/a	catFR1	0	R1381T
197.797	1.6	226899	WORD	n/a	wordpools/wordpool_categorized_EN.txt	BOOKCASE	Furniture	12	1	[0, 0, 0]	n/a	catFR1	0	R1381T
199.399	0.0	228498	START	n/a	n/a	n/a	n/a	-999	1	[-999, -999, -999]	n/a	catFR1	0	R1381T
199.399	0.0	228498	PROB	4.649	n/a	n/a	n/a	-999	1	[3, 2, 5]	10.0	catFR1	0	R1381T
199.398	0.001	228500	WORD_OFF	n/a	n/a	BOOKCASE	Furniture	12	1	[0, 0, 0]	n/a	catFR1	0	R1381T
199.399	0.0	228500	ENCODING_END	n/a	n/a	n/a	n/a	-999	1	[0, 0, 0]	n/a	catFR1	0	R1381T
199.399	4.665	228500	DISTRACT_START	n/a	n/a	n/a	n/a	-999	1	[0, 0, 0]	n/a	catFR1	0	R1381T
204.064	5.35	233163	PROB	5.333	n/a	n/a	n/a	-999	1	[5, 3, 7]	15.0	catFR1	0	R1381T
209.414	6.268	238513	PROB	6.25	n/a	n/a	n/a	-999	1	[2, 3, 3]	8.0	catFR1	0	R1381T
215.682	5.584	244780	PROB	5.567	n/a	n/a	n/a	-999	1	[3, 5, 6]	14.0	catFR1	0	R1381T
221.266	0.0	250364	STOP	n/a	n/a	n/a	n/a	-999	1	[-999, -999, -999]	n/a	catFR1	0	R1381T
221.266	1.05	250366	DISTRACT_END	n/a	n/a	n/a	n/a	-999	1	[0, 0, 0]	n/a	catFR1	0	R1381T
222.316	2.771	251409	REC_START	n/a	n/a	n/a	n/a	-999	1	[0, 0, 0]	n/a	catFR1	0	R1381T
225.087	0.371	254185	REC_WORD_VV	2.771	n/a	<>	n/a	-999	1	[0, 0, 0]	n/a	catFR1	0	R1381T
225.458	2.496	254556	REC_WORD	3.142	n/a	BOOKCASE	Furniture	12	1	[0, 0, 0]	n/a	catFR1	0	R1381T
227.954	0.773	257052	REC_WORD	5.638	n/a	TABLE	Furniture	1	1	[0, 0, 0]	n/a	catFR1	0	R1381T
228.727	3.415	257825	REC_WORD	6.411	n/a	PLUS	n/a	-999	1	[0, 0, 0]	n/a	catFR1	0	R1381T
232.142	2.3	261239	REC_WORD_VV	9.826	n/a	<>	n/a	-999	1	[0, 0, 0]	n/a	catFR1	0	R1381T
234.442	3.196	263539	REC_WORD_VV	12.126	n/a	<>	n/a	-999	1	[0, 0, 0]	n/a	catFR1	0	R1381T
237.638	0.609	266735	REC_WORD	15.322	n/a	CASE	n/a	-999	1	[0, 0, 0]	n/a	catFR1	0	R1381T
238.247	1.991	267344	REC_WORD	15.931	n/a	MOUNTAIN	Landscapes	6	1	[0, 0, 0]	n/a	catFR1	0	R1381T
240.238	0.753	269335	REC_WORD	17.922	n/a	MOUNTAIN	Landscapes	6	1	[0, 0, 0]	n/a	catFR1	0	R1381T
240.991	1.456	270088	REC_WORD_VV	18.675	n/a	<>	n/a	-999	1	[0, 0, 0]	n/a	catFR1	0	R1381T
242.447	0.696	271544	REC_WORD	20.131	n/a	VALLEY	Landscapes	10	1	[0, 0, 0]	n/a	catFR1	0	R1381T
243.143	5.644	272240	REC_WORD	20.827	n/a	STREAM	Landscapes	9	1	[0, 0, 0]	n/a	catFR1	0	R1381T
248.787	2.778	277884	REC_WORD_VV	26.471	n/a	<>	n/a	-999	1	[0, 0, 0]	n/a	catFR1	0	R1381T
251.565	1.051	280661	REC_WORD_VV	29.249	n/a	<>	n/a	-999	1	[0, 0, 0]	n/a	catFR1	0	R1381T
252.616	2.083	281717	REC_END	n/a	n/a	n/a	n/a	-999	1	[0, 0, 0]	n/a	catFR1	0	R1381T
254.699	10.0	283794	COUNTDOWN_START	n/a	n/a	n/a	n/a	-999	2	[0, 0, 0]	n/a	catFR1	0	R1381T
265.049	0.0	294148	COUNTDOWN_END	n/a	n/a	n/a	n/a	-999	2	[0, 0, 0]	n/a	catFR1	0	R1381T
265.049	2.099	294148	ENCODING_START	n/a	n/a	n/a	n/a	-999	2	[0, 0, 0]	n/a	catFR1	0	R1381T
267.148	1.6	296246	WORD	n/a	wordpools/wordpool_categorized_EN.txt	DRIZZLE	Weather	1	2	[0, 0, 0]	n/a	catFR1	0	R1381T
268.765	0.817	297858	WORD_OFF	n/a	n/a	DRIZZLE	Weather	1	2	[0, 0, 0]	n/a	catFR1	0	R1381T
269.582	1.6	298674	WORD	n/a	wordpools/wordpool_categorized_EN.txt	LIGHTNING	Weather	2	2	[0, 0, 0]	n/a	catFR1	0	R1381T
271.198	0.967	300296	WORD_OFF	n/a	n/a	LIGHTNING	Weather	2	2	[0, 0, 0]	n/a	catFR1	0	R1381T
272.165	1.6	301257	WORD	n/a	wordpools/wordpool_categorized_EN.txt	SKIRT	Clothing	3	2	[0, 0, 0]	n/a	catFR1	0	R1381T
273.782	0.916	302880	WORD_OFF	n/a	n/a	SKIRT	Clothing	3	2	[0, 0, 0]	n/a	catFR1	0	R1381T
274.698	1.6	303789	WORD	n/a	wordpools/wordpool_categorized_EN.txt	UNDERWEAR	Clothing	4	2	[0, 0, 0]	n/a	catFR1	0	R1381T
276.315	0.967	305411	WORD_OFF	n/a	n/a	UNDERWEAR	Clothing	4	2	[0, 0, 0]	n/a	catFR1	0	R1381T
277.282	1.6	306372	WORD	n/a	wordpools/wordpool_categorized_EN.txt	FORK	Kitchentools	5	2	[0, 0, 0]	n/a	catFR1	0	R1381T
278.898	0.866	307995	WORD_OFF	n/a	n/a	FORK	Kitchentools	5	2	[0, 0, 0]	n/a	catFR1	0	R1381T
279.764	1.6	308863	WORD	n/a	wordpools/wordpool_categorized_EN.txt	LADLE	Kitchentools	6	2	[0, 0, 0]	n/a	catFR1	0	R1381T
281.365	0.783	310464	WORD_OFF	n/a	n/a	LADLE	Kitchentools	6	2	[0, 0, 0]	n/a	catFR1	0	R1381T
282.148	1.6	311250	WORD	n/a	wordpools/wordpool_categorized_EN.txt	FOG	Weather	7	2	[0, 0, 0]	n/a	catFR1	0	R1381T
283.765	0.866	312862	WORD_OFF	n/a	n/a	FOG	Weather	7	2	[0, 0, 0]	n/a	catFR1	0	R1381T
284.631	1.6	313730	WORD	n/a	wordpools/wordpool_categorized_EN.txt	THUNDERSTORM	Weather	8	2	[0, 0, 0]	n/a	catFR1	0	R1381T
286.248	0.95	315342	WORD_OFF	n/a	n/a	THUNDERSTORM	Weather	8	2	[0, 0, 0]	n/a	catFR1	0	R1381T
287.198	1.6	316292	WORD	n/a	wordpools/wordpool_categorized_EN.txt	COAT	Clothing	9	2	[0, 0, 0]	n/a	catFR1	0	R1381T
288.814	0.984	317904	WORD_OFF	n/a	n/a	COAT	Clothing	9	2	[0, 0, 0]	n/a	catFR1	0	R1381T
289.798	1.6	318896	WORD	n/a	wordpools/wordpool_categorized_EN.txt	JACKET	Clothing	10	2	[0, 0, 0]	n/a	catFR1	0	R1381T
291.398	0.949	320488	WORD_OFF	n/a	n/a	JACKET	Clothing	10	2	[0, 0, 0]	n/a	catFR1	0	R1381T
292.347	1.6	321438	WORD	n/a	wordpools/wordpool_categorized_EN.txt	CORKSCREW	Kitchentools	11	2	[0, 0, 0]	n/a	catFR1	0	R1381T
293.948	0.95	323040	WORD_OFF	n/a	n/a	CORKSCREW	Kitchentools	11	2	[0, 0, 0]	n/a	catFR1	0	R1381T
294.898	1.6	323991	WORD	n/a	wordpools/wordpool_categorized_EN.txt	STRAINER	Kitchentools	12	2	[0, 0, 0]	n/a	catFR1	0	R1381T
296.498	0.002	325592	WORD_OFF	n/a	n/a	STRAINER	Kitchentools	12	2	[0, 0, 0]	n/a	catFR1	0	R1381T
296.5	0.0	325592	ENCODING_END	n/a	n/a	n/a	n/a	-999	2	[0, 0, 0]	n/a	catFR1	0	R1381T
296.5	0.0	325592	DISTRACT_START	n/a	n/a	n/a	n/a	-999	2	[0, 0, 0]	n/a	catFR1	0	R1381T
296.498	0.002	325592	PROB	4.549	n/a	n/a	n/a	-999	2	[5, 5, 7]	17.0	catFR1	0	R1381T
296.5	4.564	325594	START	n/a	n/a	n/a	n/a	-999	2	[-999, -999, -999]	n/a	catFR1	0	R1381T
301.064	4.984	330158	PROB	4.967	n/a	n/a	n/a	-999	2	[5, 1, 2]	8.0	catFR1	0	R1381T
306.048	5.235	335142	PROB	5.218	n/a	n/a	n/a	-999	2	[6, 1, 7]	14.0	catFR1	0	R1381T
311.283	5.032	340376	PROB	5.016	n/a	n/a	n/a	-999	2	[3, 3, 7]	13.0	catFR1	0	R1381T
316.315	5.366	345408	PROB	5.35	n/a	n/a	n/a	-999	2	[1, 6, 3]	10.0	catFR1	0	R1381T
321.681	0.0	350774	STOP	n/a	n/a	n/a	n/a	-999	2	[-999, -999, -999]	n/a	catFR1	0	R1381T
321.681	1.034	350775	DISTRACT_END	n/a	n/a	n/a	n/a	-999	2	[0, 0, 0]	n/a	catFR1	0	R1381T
322.715	1.446	351808	REC_START	n/a	n/a	n/a	n/a	-999	2	[0, 0, 0]	n/a	catFR1	0	R1381T
324.161	1.802	353254	REC_WORD	1.446	n/a	PLUS	n/a	-999	2	[0, 0, 0]	n/a	catFR1	0	R1381T
325.963	3.163	355056	REC_WORD	3.248	n/a	DRIZZLE	Weather	1	2	[0, 0, 0]	n/a	catFR1	0	R1381T
329.126	2.77	358218	REC_WORD_VV	6.411	n/a	<>	n/a	-999	2	[0, 0, 0]	n/a	catFR1	0	R1381T
331.896	1.746	360988	REC_WORD_VV	9.181	n/a	<>	n/a	-999	2	[0, 0, 0]	n/a	catFR1	0	R1381T
333.642	19.369	362734	REC_WORD	10.927	n/a	CORKSCREW	Kitchentools	11	2	[0, 0, 0]	n/a	catFR1	0	R1381T
353.011	1.521	382105	REC_END	n/a	n/a	n/a	n/a	-999	2	[0, 0, 0]	n/a	catFR1	0	R1381T
354.532	10.0	383624	COUNTDOWN_START	n/a	n/a	n/a	n/a	-999	3	[0, 0, 0]	n/a	catFR1	0	R1381T
364.882	0.0	393968	COUNTDOWN_END	n/a	n/a	n/a	n/a	-999	3	[0, 0, 0]	n/a	catFR1	0	R1381T
364.882	2.116	393978	ENCODING_START	n/a	n/a	n/a	n/a	-999	3	[0, 0, 0]	n/a	catFR1	0	R1381T
366.998	1.6	396086	WORD	n/a	wordpools/wordpool_categorized_EN.txt	LOBSTER	Oceananimals	1	3	[0, 0, 0]	n/a	catFR1	0	R1381T
368.598	0.767	397688	WORD_OFF	n/a	n/a	LOBSTER	Oceananimals	1	3	[0, 0, 0]	n/a	catFR1	0	R1381T
369.365	1.6	398453	WORD	n/a	wordpools/wordpool_categorized_EN.txt	OYSTER	Oceananimals	2	3	[0, 0, 0]	n/a	catFR1	0	R1381T
370.981	0.917	400075	WORD_OFF	n/a	n/a	OYSTER	Oceananimals	2	3	[0, 0, 0]	n/a	catFR1	0	R1381T
371.898	1.6	400984	WORD	n/a	wordpools/wordpool_categorized_EN.txt	NOTEBOOK	Officesupplies	3	3	[0, 0, 0]	n/a	catFR1	0	R1381T
373.515	0.8	402607	WORD_OFF	n/a	n/a	NOTEBOOK	Officesupplies	3	3	[0, 0, 0]	n/a	catFR1	0	R1381T
374.315	1.6	403402	WORD	n/a	wordpools/wordpool_categorized_EN.txt	FOLDER	Officesupplies	4	3	[0, 0, 0]	n/a	catFR1	0	R1381T
375.931	0.884	405025	WORD_OFF	n/a	n/a	FOLDER	Officesupplies	4	3	[0, 0, 0]	n/a	catFR1	0	R1381T
376.815	1.6	405903	WORD	n/a	wordpools/wordpool_categorized_EN.txt	NIGHTSTAND	Furniture	5	3	[0, 0, 0]	n/a	catFR1	0	R1381T
378.431	0.884	407525	WORD_OFF	n/a	n/a	NIGHTSTAND	Furniture	5	3	[0, 0, 0]	n/a	catFR1	0	R1381T
379.315	1.6	408404	WORD	n/a	wordpools/wordpool_categorized_EN.txt	BED	Furniture	6	3	[0, 0, 0]	n/a	catFR1	0	R1381T
380.931	0.85	410026	WORD_OFF	n/a	n/a	BED	Furniture	6	3	[0, 0, 0]	n/a	catFR1	0	R1381T
381.781	1.6	410873	WORD	n/a	wordpools/wordpool_categorized_EN.txt	PLANKTON	Oceananimals	7	3	[0, 0, 0]	n/a	catFR1	0	R1381T
383.398	1.0	412485	WORD_OFF	n/a	n/a	PLANKTON	Oceananimals	7	3	[0, 0, 0]	n/a	catFR1	0	R1381T
384.398	1.6	413488	WORD	n/a	wordpools/wordpool_categorized_EN.txt	OCTOPUS	Oceananimals	8	3	[0, 0, 0]	n/a	catFR1	0	R1381T
386.014	1.0	415100	WORD_OFF	n/a	n/a	OCTOPUS	Oceananimals	8	3	[0, 0, 0]	n/a	catFR1	0	R1381T
387.014	1.6	416102	WORD	n/a	wordpools/wordpool_categorized_EN.txt	CABINET	Furniture	9	3	[0, 0, 0]	n/a	catFR1	0	R1381T
388.631	0.967	417724	WORD_OFF	n/a	n/a	CABINET	Furniture	9	3	[0, 0, 0]	n/a	catFR1	0	R1381T
389.598	1.6	418685	WORD	n/a	wordpools/wordpool_categorized_EN.txt	DRESSER	Furniture	10	3	[0, 0, 0]	n/a	catFR1	0	R1381T
391.214	1.0	420308	WORD_OFF	n/a	n/a	DRESSER	Furniture	10	3	[0, 0, 0]	n/a	catFR1	0	R1381T
392.214	1.6	421300	WORD	n/a	wordpools/wordpool_categorized_EN.txt	GLUE	Officesupplies	11	3	[0, 0, 0]	n/a	catFR1	0	R1381T
393.814	0.85	422901	WORD_OFF	n/a	n/a	GLUE	Officesupplies	11	3	[0, 0, 0]	n/a	catFR1	0	R1381T
394.664	1.6	423749	WORD	n/a	wordpools/wordpool_categorized_EN.txt	PEN	Officesupplies	12	3	[0, 0, 0]	n/a	catFR1	0	R1381T
396.264	0.001	425350	WORD_OFF	n/a	n/a	PEN	Officesupplies	12	3	[0, 0, 0]	n/a	catFR1	0	R1381T
396.265	0.001	425354	PROB	7.917	n/a	n/a	n/a	-999	3	[3, 6, 5]	14.0	catFR1	0	R1381T
396.266	0.0	425355	START	n/a	n/a	n/a	n/a	-999	3	[-999, -999, -999]	n/a	catFR1	0	R1381T
396.266	0.0	425361	ENCODING_END	n/a	n/a	n/a	n/a	-999	3	[0, 0, 0]	n/a	catFR1	0	R1381T
396.266	7.931	425361	DISTRACT_START	n/a	n/a	n/a	n/a	-999	3	[0, 0, 0]	n/a	catFR1	0	R1381T
404.197	4.869	433286	PROB	4.851	n/a	n/a	n/a	-999	3	[5, 5, 8]	18.0	catFR1	0	R1381T
409.066	5.549	438154	PROB	5.533	n/a	n/a	n/a	-999	3	[4, 3, 1]	8.0	catFR1	0	R1381T
414.615	4.519	443703	PROB	4.5	n/a	n/a	n/a	-999	3	[4, 5, 1]	10.0	catFR1	0	R1381T
419.134	0.0	448218	DISTRACT_END	n/a	n/a	n/a	n/a	-999	3	[0, 0, 0]	n/a	catFR1	0	R1381T
419.134	1.231	448222	STOP	n/a	n/a	n/a	n/a	-999	3	[-999, -999, -999]	n/a	catFR1	0	R1381T
420.365	2.04	449458	REC_START	n/a	n/a	n/a	n/a	-999	3	[0, 0, 0]	n/a	catFR1	0	R1381T
422.405	3.019	451493	REC_WORD	2.04	n/a	PLUS	n/a	-999	3	[0, 0, 0]	n/a	catFR1	0	R1381T
425.424	0.713	454511	REC_WORD	5.059	n/a	LOBSTER	Oceananimals	1	3	[0, 0, 0]	n/a	catFR1	0	R1381T
426.137	7.39	455224	REC_WORD	5.772	n/a	OYSTER	Oceananimals	2	3	[0, 0, 0]	n/a	catFR1	0	R1381T
433.527	11.769	462614	REC_WORD_VV	13.162	n/a	<>	n/a	-999	3	[0, 0, 0]	n/a	catFR1	0	R1381T
445.296	0.795	474382	REC_WORD	24.931	n/a	CABINET	Furniture	9	3	[0, 0, 0]	n/a	catFR1	0	R1381T
446.091	0.764	475177	REC_WORD	25.726	n/a	CABINET	Furniture	9	3	[0, 0, 0]	n/a	catFR1	0	R1381T
446.855	3.799	475941	REC_WORD_VV	26.49	n/a	<>	n/a	-999	3	[0, 0, 0]	n/a	catFR1	0	R1381T
450.654	1.761	479745	REC_END	n/a	n/a	n/a	n/a	-999	3	[0, 0, 0]	n/a	catFR1	0	R1381T
452.415	10.0	481502	COUNTDOWN_START	n/a	n/a	n/a	n/a	-999	4	[0, 0, 0]	n/a	catFR1	0	R1381T
462.766	0.0	491856	COUNTDOWN_END	n/a	n/a	n/a	n/a	-999	4	[0, 0, 0]	n/a	catFR1	0	R1381T
462.766	2.049	491856	ENCODING_START	n/a	n/a	n/a	n/a	-999	4	[0, 0, 0]	n/a	catFR1	0	R1381T
464.815	1.6	493902	WORD	n/a	wordpools/wordpool_categorized_EN.txt	LETTUCE	Vegetables	1	4	[0, 0, 0]	n/a	catFR1	0	R1381T
466.432	0.783	495514	WORD_OFF	n/a	n/a	LETTUCE	Vegetables	1	4	[0, 0, 0]	n/a	catFR1	0	R1381T
467.215	1.6	496299	WORD	n/a	wordpools/wordpool_categorized_EN.txt	BROCCOLI	Vegetables	2	4	[0, 0, 0]	n/a	catFR1	0	R1381T
468.832	0.866	497921	WORD_OFF	n/a	n/a	BROCCOLI	Vegetables	2	4	[0, 0, 0]	n/a	catFR1	0	R1381T
469.698	1.6	498779	WORD	n/a	wordpools/wordpool_categorized_EN.txt	CRAB	Oceananimals	3	4	[0, 0, 0]	n/a	catFR1	0	R1381T
471.315	0.85	500401	WORD_OFF	n/a	n/a	CRAB	Oceananimals	3	4	[0, 0, 0]	n/a	catFR1	0	R1381T
472.165	1.6	501249	WORD	n/a	wordpools/wordpool_categorized_EN.txt	SHRIMP	Oceananimals	4	4	[0, 0, 0]	n/a	catFR1	0	R1381T
473.782	0.95	502871	WORD_OFF	n/a	n/a	SHRIMP	Oceananimals	4	4	[0, 0, 0]	n/a	catFR1	0	R1381T
474.732	1.6	503822	WORD	n/a	wordpools/wordpool_categorized_EN.txt	DOLLHOUSE	Toys	5	4	[0, 0, 0]	n/a	catFR1	0	R1381T
476.332	0.882	505413	WORD_OFF	n/a	n/a	DOLLHOUSE	Toys	5	4	[0, 0, 0]	n/a	catFR1	0	R1381T
477.214	1.6	506302	WORD	n/a	wordpools/wordpool_categorized_EN.txt	FOOTBALL	Toys	6	4	[0, 0, 0]	n/a	catFR1	0	R1381T
478.815	0.917	507903	WORD_OFF	n/a	n/a	FOOTBALL	Toys	6	4	[0, 0, 0]	n/a	catFR1	0	R1381T
479.732	1.6	508823	WORD	n/a	wordpools/wordpool_categorized_EN.txt	ONION	Vegetables	7	4	[0, 0, 0]	n/a	catFR1	0	R1381T
481.332	0.85	510414	WORD_OFF	n/a	n/a	ONION	Vegetables	7	4	[0, 0, 0]	n/a	catFR1	0	R1381T
482.182	1.6	511262	WORD	n/a	wordpools/wordpool_categorized_EN.txt	CELERY	Vegetables	8	4	[0, 0, 0]	n/a	catFR1	0	R1381T
483.782	0.932	512863	WORD_OFF	n/a	n/a	CELERY	Vegetables	8	4	[0, 0, 0]	n/a	catFR1	0	R1381T
484.714	1.6	513804	WORD	n/a	wordpools/wordpool_categorized_EN.txt	JELLYFISH	Oceananimals	9	4	[0, 0, 0]	n/a	catFR1	0	R1381T
486.315	0.967	515405	WORD_OFF	n/a	n/a	JELLYFISH	Oceananimals	9	4	[0, 0, 0]	n/a	catFR1	0	R1381T
487.282	1.6	516366	WORD	n/a	wordpools/wordpool_categorized_EN.txt	TURTLE	Oceananimals	10	4	[0, 0, 0]	n/a	catFR1	0	R1381T
488.899	1.0	517989	WORD_OFF	n/a	n/a	TURTLE	Oceananimals	10	4	[0, 0, 0]	n/a	catFR1	0	R1381T
489.899	1.6	518981	WORD	n/a	wordpools/wordpool_categorized_EN.txt	BARBIE	Toys	11	4	[0, 0, 0]	n/a	catFR1	0	R1381T
491.498	0.866	520582	WORD_OFF	n/a	n/a	BARBIE	Toys	11	4	[0, 0, 0]	n/a	catFR1	0	R1381T
492.364	1.6	521450	WORD	n/a	wordpools/wordpool_categorized_EN.txt	DOLL	Toys	12	4	[0, 0, 0]	n/a	catFR1	0	R1381T
493.965	0.002	523049	PROB	7.233	n/a	n/a	n/a	-999	4	[6, 8, 5]	19.0	catFR1	0	R1381T
493.967	0.0	523051	START	n/a	n/a	n/a	n/a	-999	4	[-999, -999, -999]	n/a	catFR1	0	R1381T
493.965	0.002	523052	WORD_OFF	n/a	n/a	DOLL	Toys	12	4	[0, 0, 0]	n/a	catFR1	0	R1381T
493.967	0.0	523052	ENCODING_END	n/a	n/a	n/a	n/a	-999	4	[0, 0, 0]	n/a	catFR1	0	R1381T
493.967	7.248	523052	DISTRACT_START	n/a	n/a	n/a	n/a	-999	4	[0, 0, 0]	n/a	catFR1	0	R1381T
501.215	4.667	530299	PROB	4.65	n/a	n/a	n/a	-999	4	[7, 7, 7]	21.0	catFR1	0	R1381T
505.882	4.317	534965	PROB	4.299	n/a	n/a	n/a	-999	4	[8, 7, 3]	18.0	catFR1	0	R1381T
510.199	4.133	539282	PROB	4.116	n/a	n/a	n/a	-999	4	[2, 5, 2]	9.0	catFR1	0	R1381T
514.332	0.0	543415	STOP	n/a	n/a	n/a	n/a	-999	4	[-999, -999, -999]	n/a	catFR1	0	R1381T
514.332	1.283	543419	DISTRACT_END	n/a	n/a	n/a	n/a	-999	4	[0, 0, 0]	n/a	catFR1	0	R1381T
515.615	2.533	544700	REC_START	n/a	n/a	n/a	n/a	-999	4	[0, 0, 0]	n/a	catFR1	0	R1381T
518.148	1.0	547231	REC_WORD_VV	2.533	n/a	<>	n/a	-999	4	[0, 0, 0]	n/a	catFR1	0	R1381T
519.148	1.0	548231	REC_WORD_VV	3.533	n/a	<>	n/a	-999	4	[0, 0, 0]	n/a	catFR1	0	R1381T
520.148	3.445	549231	REC_WORD_VV	4.533	n/a	<>	n/a	-999	4	[0, 0, 0]	n/a	catFR1	0	R1381T
523.593	6.12	552675	REC_WORD	7.978	n/a	PLUS SIGN	n/a	-999	4	[0, 0, 0]	n/a	catFR1	0	R1381T
529.713	7.179	558795	REC_WORD	14.098	n/a	LETTUCE	Vegetables	1	4	[0, 0, 0]	n/a	catFR1	0	R1381T
536.892	1.0	565974	REC_WORD_VV	21.277	n/a	<>	n/a	-999	4	[0, 0, 0]	n/a	catFR1	0	R1381T
537.892	8.019	566974	REC_WORD_VV	22.277	n/a	<>	n/a	-999	4	[0, 0, 0]	n/a	catFR1	0	R1381T
545.911	1.738	574997	REC_END	n/a	n/a	n/a	n/a	-999	4	[0, 0, 0]	n/a	catFR1	0	R1381T
547.649	10.0	576733	COUNTDOWN_START	n/a	n/a	n/a	n/a	-999	5	[0, 0, 0]	n/a	catFR1	0	R1381T
557.998	0.001	587077	COUNTDOWN_END	n/a	n/a	n/a	n/a	-999	5	[0, 0, 0]	n/a	catFR1	0	R1381T
557.999	2.049	587077	ENCODING_START	n/a	n/a	n/a	n/a	-999	5	[0, 0, 0]	n/a	catFR1	0	R1381T
560.048	1.6	589133	WORD	n/a	wordpools/wordpool_categorized_EN.txt	BEACH	Landscapes	1	5	[0, 0, 0]	n/a	catFR1	0	R1381T
561.648	0.966	590725	WORD_OFF	n/a	n/a	BEACH	Landscapes	1	5	[0, 0, 0]	n/a	catFR1	0	R1381T
562.614	1.6	591696	WORD	n/a	wordpools/wordpool_categorized_EN.txt	RIVER	Landscapes	2	5	[0, 0, 0]	n/a	catFR1	0	R1381T
564.214	0.9	593298	WORD_OFF	n/a	n/a	RIVER	Landscapes	2	5	[0, 0, 0]	n/a	catFR1	0	R1381T
565.114	1.6	594197	WORD	n/a	wordpools/wordpool_categorized_EN.txt	LEMONADE	Beverages	3	5	[0, 0, 0]	n/a	catFR1	0	R1381T
566.731	0.833	595809	WORD_OFF	n/a	n/a	LEMONADE	Beverages	3	5	[0, 0, 0]	n/a	catFR1	0	R1381T
567.564	1.6	596646	WORD	n/a	wordpools/wordpool_categorized_EN.txt	BEER	Beverages	4	5	[0, 0, 0]	n/a	catFR1	0	R1381T
569.181	0.968	598258	WORD_OFF	n/a	n/a	BEER	Beverages	4	5	[0, 0, 0]	n/a	catFR1	0	R1381T
570.149	1.6	599229	WORD	n/a	wordpools/wordpool_categorized_EN.txt	PETUNIA	Flowers	5	5	[0, 0, 0]	n/a	catFR1	0	R1381T
571.748	0.833	600831	WORD_OFF	n/a	n/a	PETUNIA	Flowers	5	5	[0, 0, 0]	n/a	catFR1	0	R1381T
572.581	1.6	601657	WORD	n/a	wordpools/wordpool_categorized_EN.txt	DAFFODIL	Flowers	6	5	[0, 0, 0]	n/a	catFR1	0	R1381T
574.181	1.0	603259	WORD_OFF	n/a	n/a	DAFFODIL	Flowers	6	5	[0, 0, 0]	n/a	catFR1	0	R1381T
575.181	1.6	604261	WORD	n/a	wordpools/wordpool_categorized_EN.txt	FOREST	Landscapes	7	5	[0, 0, 0]	n/a	catFR1	0	R1381T
576.781	0.801	605863	WORD_OFF	n/a	n/a	FOREST	Landscapes	7	5	[0, 0, 0]	n/a	catFR1	0	R1381T
577.582	1.6	606659	WORD	n/a	wordpools/wordpool_categorized_EN.txt	OCEAN	Landscapes	8	5	[0, 0, 0]	n/a	catFR1	0	R1381T
579.182	0.817	608260	WORD_OFF	n/a	n/a	OCEAN	Landscapes	8	5	[0, 0, 0]	n/a	catFR1	0	R1381T
579.999	1.6	609077	WORD	n/a	wordpools/wordpool_categorized_EN.txt	MILK	Beverages	9	5	[0, 0, 0]	n/a	catFR1	0	R1381T
581.599	0.984	610678	WORD_OFF	n/a	n/a	MILK	Beverages	9	5	[0, 0, 0]	n/a	catFR1	0	R1381T
582.583	1.6	611660	WORD	n/a	wordpools/wordpool_categorized_EN.txt	JUICE	Beverages	10	5	[0, 0, 0]	n/a	catFR1	0	R1381T
584.183	0.999	613262	WORD_OFF	n/a	n/a	JUICE	Beverages	10	5	[0, 0, 0]	n/a	catFR1	0	R1381T
585.182	1.6	614264	WORD	n/a	wordpools/wordpool_categorized_EN.txt	SUNFLOWER	Flowers	11	5	[0, 0, 0]	n/a	catFR1	0	R1381T
586.798	0.801	615876	WORD_OFF	n/a	n/a	SUNFLOWER	Flowers	11	5	[0, 0, 0]	n/a	catFR1	0	R1381T
587.599	1.6	616682	WORD	n/a	wordpools/wordpool_categorized_EN.txt	LILAC	Flowers	12	5	[0, 0, 0]	n/a	catFR1	0	R1381T
589.215	0.001	618294	WORD_OFF	n/a	n/a	LILAC	Flowers	12	5	[0, 0, 0]	n/a	catFR1	0	R1381T
589.216	0.0	618294	ENCODING_END	n/a	n/a	n/a	n/a	-999	5	[0, 0, 0]	n/a	catFR1	0	R1381T
589.216	0.0	618294	DISTRACT_START	n/a	n/a	n/a	n/a	-999	5	[0, 0, 0]	n/a	catFR1	0	R1381T
589.215	0.001	618294	PROB	4.867	n/a	n/a	n/a	-999	5	[6, 4, 2]	12.0	catFR1	0	R1381T
589.216	4.883	618295	START	n/a	n/a	n/a	n/a	-999	5	[-999, -999, -999]	n/a	catFR1	0	R1381T
594.099	5.432	623178	PROB	5.416	n/a	n/a	n/a	-999	5	[6, 6, 3]	15.0	catFR1	0	R1381T
599.531	3.368	628610	PROB	3.351	n/a	n/a	n/a	-999	5	[1, 3, 3]	7.0	catFR1	0	R1381T
602.899	5.85	631977	PROB	5.833	n/a	n/a	n/a	-999	5	[2, 5, 6]	13.0	catFR1	0	R1381T
608.749	3.916	637827	PROB	3.9	n/a	n/a	n/a	-999	5	[4, 3, 8]	15.0	catFR1	0	R1381T
612.665	0.0	641740	DISTRACT_END	n/a	n/a	n/a	n/a	-999	5	[0, 0, 0]	n/a	catFR1	0	R1381T
612.665	1.1	641743	STOP	n/a	n/a	n/a	n/a	-999	5	[-999, -999, -999]	n/a	catFR1	0	R1381T
613.765	1.748	642846	REC_START	n/a	n/a	n/a	n/a	-999	5	[0, 0, 0]	n/a	catFR1	0	R1381T
615.513	1.802	644591	REC_WORD	1.748	n/a	LILAC	Flowers	12	5	[0, 0, 0]	n/a	catFR1	0	R1381T
617.315	2.467	646393	REC_WORD	3.55	n/a	DAFFODIL	Flowers	6	5	[0, 0, 0]	n/a	catFR1	0	R1381T
619.782	1.175	648859	REC_WORD_VV	6.017	n/a	<>	n/a	-999	5	[0, 0, 0]	n/a	catFR1	0	R1381T
620.957	7.678	650034	REC_WORD_VV	7.192	n/a	<>	n/a	-999	5	[0, 0, 0]	n/a	catFR1	0	R1381T
628.635	0.757	657712	REC_WORD	14.87	n/a	BEACH	Landscapes	1	5	[0, 0, 0]	n/a	catFR1	0	R1381T
629.392	8.04	658469	REC_WORD	15.627	n/a	OCEAN	Landscapes	8	5	[0, 0, 0]	n/a	catFR1	0	R1381T
637.432	6.616	666509	REC_WORD	23.667	n/a	LEMONADE	Beverages	3	5	[0, 0, 0]	n/a	catFR1	0	R1381T
644.048	1.417	673123	REC_END	n/a	n/a	n/a	n/a	-999	5	[0, 0, 0]	n/a	catFR1	0	R1381T
645.465	10.0	674549	COUNTDOWN_START	n/a	n/a	n/a	n/a	-999	6	[0, 0, 0]	n/a	catFR1	0	R1381T
655.816	0.0	684892	COUNTDOWN_END	n/a	n/a	n/a	n/a	-999	6	[0, 0, 0]	n/a	catFR1	0	R1381T
655.816	1.899	684892	ENCODING_START	n/a	n/a	n/a	n/a	-999	6	[0, 0, 0]	n/a	catFR1	0	R1381T
657.715	1.6	686794	WORD	n/a	wordpools/wordpool_categorized_EN.txt	RAIN	Weather	1	6	[0, 0, 0]	n/a	catFR1	0	R1381T
659.332	0.8	688406	WORD_OFF	n/a	n/a	RAIN	Weather	1	6	[0, 0, 0]	n/a	catFR1	0	R1381T
660.132	1.6	689212	WORD	n/a	wordpools/wordpool_categorized_EN.txt	CLOUD	Weather	2	6	[0, 0, 0]	n/a	catFR1	0	R1381T
661.732	0.833	690803	WORD_OFF	n/a	n/a	CLOUD	Weather	2	6	[0, 0, 0]	n/a	catFR1	0	R1381T
662.565	1.6	691640	WORD	n/a	wordpools/wordpool_categorized_EN.txt	GRAPE	Fruit	3	6	[0, 0, 0]	n/a	catFR1	0	R1381T
664.181	0.883	693252	WORD_OFF	n/a	n/a	GRAPE	Fruit	3	6	[0, 0, 0]	n/a	catFR1	0	R1381T
665.064	1.6	694141	WORD	n/a	wordpools/wordpool_categorized_EN.txt	LEMON	Fruit	4	6	[0, 0, 0]	n/a	catFR1	0	R1381T
666.681	0.95	695753	WORD_OFF	n/a	n/a	LEMON	Fruit	4	6	[0, 0, 0]	n/a	catFR1	0	R1381T
667.631	1.6	696703	WORD	n/a	wordpools/wordpool_categorized_EN.txt	TURKEY	Farmanimals	5	6	[0, 0, 0]	n/a	catFR1	0	R1381T
669.231	0.933	698305	WORD_OFF	n/a	n/a	TURKEY	Farmanimals	5	6	[0, 0, 0]	n/a	catFR1	0	R1381T
670.164	1.6	699235	WORD	n/a	wordpools/wordpool_categorized_EN.txt	LAMB	Farmanimals	6	6	[0, 0, 0]	n/a	catFR1	0	R1381T
671.765	0.983	700837	WORD_OFF	n/a	n/a	LAMB	Farmanimals	6	6	[0, 0, 0]	n/a	catFR1	0	R1381T
672.748	1.6	701818	WORD	n/a	wordpools/wordpool_categorized_EN.txt	STRAWBERRY	Fruit	7	6	[0, 0, 0]	n/a	catFR1	0	R1381T
674.348	0.817	703420	WORD_OFF	n/a	n/a	STRAWBERRY	Fruit	7	6	[0, 0, 0]	n/a	catFR1	0	R1381T
675.165	1.6	704236	WORD	n/a	wordpools/wordpool_categorized_EN.txt	PEAR	Fruit	8	6	[0, 0, 0]	n/a	catFR1	0	R1381T
676.782	0.816	705859	WORD_OFF	n/a	n/a	PEAR	Fruit	8	6	[0, 0, 0]	n/a	catFR1	0	R1381T
677.598	1.6	706675	WORD	n/a	wordpools/wordpool_categorized_EN.txt	HEN	Farmanimals	9	6	[0, 0, 0]	n/a	catFR1	0	R1381T
679.199	0.95	708277	WORD_OFF	n/a	n/a	HEN	Farmanimals	9	6	[0, 0, 0]	n/a	catFR1	0	R1381T
680.149	1.6	709227	WORD	n/a	wordpools/wordpool_categorized_EN.txt	PIG	Farmanimals	10	6	[0, 0, 0]	n/a	catFR1	0	R1381T
681.765	0.767	710839	WORD_OFF	n/a	n/a	PIG	Farmanimals	10	6	[0, 0, 0]	n/a	catFR1	0	R1381T
682.532	1.6	711604	WORD	n/a	wordpools/wordpool_categorized_EN.txt	THUNDER	Weather	11	6	[0, 0, 0]	n/a	catFR1	0	R1381T
684.132	0.8	713206	WORD_OFF	n/a	n/a	THUNDER	Weather	11	6	[0, 0, 0]	n/a	catFR1	0	R1381T
684.932	1.6	714012	WORD	n/a	wordpools/wordpool_categorized_EN.txt	HUMIDITY	Weather	12	6	[0, 0, 0]	n/a	catFR1	0	R1381T
686.549	0.0	715623	PROB	4.716	n/a	n/a	n/a	-999	6	[6, 6, 2]	14.0	catFR1	0	R1381T
686.549	0.001	715624	WORD_OFF	n/a	n/a	HUMIDITY	Weather	12	6	[0, 0, 0]	n/a	catFR1	0	R1381T
686.55	0.0	715624	ENCODING_END	n/a	n/a	n/a	n/a	-999	6	[0, 0, 0]	n/a	catFR1	0	R1381T
686.55	0.0	715624	DISTRACT_START	n/a	n/a	n/a	n/a	-999	6	[0, 0, 0]	n/a	catFR1	0	R1381T
686.55	4.732	715624	START	n/a	n/a	n/a	n/a	-999	6	[-999, -999, -999]	n/a	catFR1	0	R1381T
691.282	7.734	720356	PROB	7.716	n/a	n/a	n/a	-999	6	[8, 5, 4]	17.0	catFR1	0	R1381T
699.016	4.433	728089	PROB	4.416	n/a	n/a	n/a	-999	6	[1, 1, 8]	10.0	catFR1	0	R1381T
703.449	3.149	732522	PROB	3.133	n/a	n/a	n/a	-999	6	[2, 1, 2]	5.0	catFR1	0	R1381T
706.598	0.0	735670	DISTRACT_END	n/a	n/a	n/a	n/a	-999	6	[0, 0, 0]	n/a	catFR1	0	R1381T
706.598	1.05	735671	STOP	n/a	n/a	n/a	n/a	-999	6	[-999, -999, -999]	n/a	catFR1	0	R1381T
707.648	4.409	736724	REC_START	n/a	n/a	n/a	n/a	-999	6	[0, 0, 0]	n/a	catFR1	0	R1381T
712.057	1.737	741130	REC_WORD_VV	4.409	n/a	<>	n/a	-999	6	[0, 0, 0]	n/a	catFR1	0	R1381T
713.794	3.356	742867	REC_WORD_VV	6.146	n/a	<>	n/a	-999	6	[0, 0, 0]	n/a	catFR1	0	R1381T
717.15	3.272	746222	REC_WORD_VV	9.502	n/a	<>	n/a	-999	6	[0, 0, 0]	n/a	catFR1	0	R1381T
720.422	0.823	749494	REC_WORD	12.774	n/a	HUMIDITY	Weather	12	6	[0, 0, 0]	n/a	catFR1	0	R1381T
721.245	10.672	750317	REC_WORD_VV	13.597	n/a	<>	n/a	-999	6	[0, 0, 0]	n/a	catFR1	0	R1381T
731.917	6.022	760989	REC_WORD	24.269	n/a	THUNDER	Weather	11	6	[0, 0, 0]	n/a	catFR1	0	R1381T
737.939	1.66	767011	REC_END	n/a	n/a	n/a	n/a	-999	6	[0, 0, 0]	n/a	catFR1	0	R1381T
739.599	10.0	768675	COUNTDOWN_START	n/a	n/a	n/a	n/a	-999	7	[0, 0, 0]	n/a	catFR1	0	R1381T
749.949	0.0	779019	COUNTDOWN_END	n/a	n/a	n/a	n/a	-999	7	[0, 0, 0]	n/a	catFR1	0	R1381T
749.949	2.099	779019	ENCODING_START	n/a	n/a	n/a	n/a	-999	7	[0, 0, 0]	n/a	catFR1	0	R1381T
752.048	1.6	781116	WORD	n/a	wordpools/wordpool_categorized_EN.txt	SNOW	Weather	1	7	[0, 0, 0]	n/a	catFR1	0	R1381T
753.648	0.767	782718	WORD_OFF	n/a	n/a	SNOW	Weather	1	7	[0, 0, 0]	n/a	catFR1	0	R1381T
754.415	1.6	783483	WORD	n/a	wordpools/wordpool_categorized_EN.txt	WIND	Weather	2	7	[0, 0, 0]	n/a	catFR1	0	R1381T
756.031	0.817	785105	WORD_OFF	n/a	n/a	WIND	Weather	2	7	[0, 0, 0]	n/a	catFR1	0	R1381T
756.848	1.6	785921	WORD	n/a	wordpools/wordpool_categorized_EN.txt	CARNATION	Flowers	3	7	[0, 0, 0]	n/a	catFR1	0	R1381T
758.464	1.001	787533	WORD_OFF	n/a	n/a	CARNATION	Flowers	3	7	[0, 0, 0]	n/a	catFR1	0	R1381T
759.465	1.6	788536	WORD	n/a	wordpools/wordpool_categorized_EN.txt	MARIGOLD	Flowers	4	7	[0, 0, 0]	n/a	catFR1	0	R1381T
761.065	0.766	790137	WORD_OFF	n/a	n/a	MARIGOLD	Flowers	4	7	[0, 0, 0]	n/a	catFR1	0	R1381T
761.831	1.6	790902	WORD	n/a	wordpools/wordpool_categorized_EN.txt	BULL	Farmanimals	5	7	[0, 0, 0]	n/a	catFR1	0	R1381T
763.431	0.934	792504	WORD_OFF	n/a	n/a	BULL	Farmanimals	5	7	[0, 0, 0]	n/a	catFR1	0	R1381T
764.365	1.6	793434	WORD	n/a	wordpools/wordpool_categorized_EN.txt	HORSE	Farmanimals	6	7	[0, 0, 0]	n/a	catFR1	0	R1381T
765.982	0.965	795056	WORD_OFF	n/a	n/a	HORSE	Farmanimals	6	7	[0, 0, 0]	n/a	catFR1	0	R1381T
766.947	1.6	796017	WORD	n/a	wordpools/wordpool_categorized_EN.txt	HURRICANE	Weather	7	7	[0, 0, 0]	n/a	catFR1	0	R1381T
768.548	0.8	797619	WORD_OFF	n/a	n/a	HURRICANE	Weather	7	7	[0, 0, 0]	n/a	catFR1	0	R1381T
769.348	1.6	798414	WORD	n/a	wordpools/wordpool_categorized_EN.txt	TORNADO	Weather	8	7	[0, 0, 0]	n/a	catFR1	0	R1381T
770.949	0.866	800016	WORD_OFF	n/a	n/a	TORNADO	Weather	8	7	[0, 0, 0]	n/a	catFR1	0	R1381T
771.815	1.6	800884	WORD	n/a	wordpools/wordpool_categorized_EN.txt	CALF	Farmanimals	9	7	[0, 0, 0]	n/a	catFR1	0	R1381T
773.432	0.949	802506	WORD_OFF	n/a	n/a	CALF	Farmanimals	9	7	[0, 0, 0]	n/a	catFR1	0	R1381T
774.381	1.6	803447	WORD	n/a	wordpools/wordpool_categorized_EN.txt	SHEEP	Farmanimals	10	7	[0, 0, 0]	n/a	catFR1	0	R1381T
775.982	0.9	805048	WORD_OFF	n/a	n/a	SHEEP	Farmanimals	10	7	[0, 0, 0]	n/a	catFR1	0	R1381T
776.882	1.6	805947	WORD	n/a	wordpools/wordpool_categorized_EN.txt	ORCHID	Flowers	11	7	[0, 0, 0]	n/a	catFR1	0	R1381T
778.482	0.8	807549	WORD_OFF	n/a	n/a	ORCHID	Flowers	11	7	[0, 0, 0]	n/a	catFR1	0	R1381T
779.282	1.6	808355	WORD	n/a	wordpools/wordpool_categorized_EN.txt	DAISY	Flowers	12	7	[0, 0, 0]	n/a	catFR1	0	R1381T
780.882	0.001	809946	WORD_OFF	n/a	n/a	DAISY	Flowers	12	7	[0, 0, 0]	n/a	catFR1	0	R1381T
780.883	0.001	809952	PROB	6.649	n/a	n/a	n/a	-999	7	[3, 1, 7]	11.0	catFR1	0	R1381T
780.884	0.0	809953	START	n/a	n/a	n/a	n/a	-999	7	[-999, -999, -999]	n/a	catFR1	0	R1381T
780.883	0.001	809957	ENCODING_END	n/a	n/a	n/a	n/a	-999	7	[0, 0, 0]	n/a	catFR1	0	R1381T
780.884	6.665	809957	DISTRACT_START	n/a	n/a	n/a	n/a	-999	7	[0, 0, 0]	n/a	catFR1	0	R1381T
787.549	12.983	816618	PROB	12.966	n/a	n/a	n/a	-999	7	[6, 7, 1]	14.0	catFR1	0	R1381T
800.532	7.75	829600	PROB	7.733	n/a	n/a	n/a	-999	7	[8, 7, 5]	20.0	catFR1	0	R1381T
808.282	0.0	837350	DISTRACT_END	n/a	n/a	n/a	n/a	-999	7	[0, 0, 0]	n/a	catFR1	0	R1381T
808.282	1.066	837350	STOP	n/a	n/a	n/a	n/a	-999	7	[-999, -999, -999]	n/a	catFR1	0	R1381T
809.348	1.695	838415	REC_START	n/a	n/a	n/a	n/a	-999	7	[0, 0, 0]	n/a	catFR1	0	R1381T
811.043	1.57	840111	REC_WORD	1.695	n/a	MARIGOLD	Flowers	4	7	[0, 0, 0]	n/a	catFR1	0	R1381T
812.613	6.809	841681	REC_WORD	3.265	n/a	CARNATION	Flowers	3	7	[0, 0, 0]	n/a	catFR1	0	R1381T
819.422	1.0	848489	REC_WORD_VV	10.074	n/a	<>	n/a	-999	7	[0, 0, 0]	n/a	catFR1	0	R1381T
820.422	0.135	849489	REC_WORD_VV	11.074	n/a	<>	n/a	-999	7	[0, 0, 0]	n/a	catFR1	0	R1381T
820.557	4.922	849624	REC_WORD	11.209	n/a	CALF	Farmanimals	9	7	[0, 0, 0]	n/a	catFR1	0	R1381T
825.479	8.665	854546	REC_WORD	16.131	n/a	HORSE	Farmanimals	6	7	[0, 0, 0]	n/a	catFR1	0	R1381T
834.144	1.52	863210	REC_WORD	24.796	n/a	ORCHID	Flowers	11	7	[0, 0, 0]	n/a	catFR1	0	R1381T
835.664	3.969	864730	REC_WORD	26.316	n/a	DAISY	Flowers	12	7	[0, 0, 0]	n/a	catFR1	0	R1381T
839.633	1.399	868702	REC_END	n/a	n/a	n/a	n/a	-999	7	[0, 0, 0]	n/a	catFR1	0	R1381T
841.032	10.0	870097	COUNTDOWN_START	n/a	n/a	n/a	n/a	-999	8	[0, 0, 0]	n/a	catFR1	0	R1381T
851.382	0.0	880451	COUNTDOWN_END	n/a	n/a	n/a	n/a	-999	8	[0, 0, 0]	n/a	catFR1	0	R1381T
851.382	1.899	880451	ENCODING_START	n/a	n/a	n/a	n/a	-999	8	[0, 0, 0]	n/a	catFR1	0	R1381T
853.281	1.6	882352	WORD	n/a	wordpools/wordpool_categorized_EN.txt	SPIDER	Insects	1	8	[0, 0, 0]	n/a	catFR1	0	R1381T
854.881	0.951	883943	WORD_OFF	n/a	n/a	SPIDER	Insects	1	8	[0, 0, 0]	n/a	catFR1	0	R1381T
855.832	1.6	884894	WORD	n/a	wordpools/wordpool_categorized_EN.txt	MOSQUITO	Insects	2	8	[0, 0, 0]	n/a	catFR1	0	R1381T
857.449	0.866	886516	WORD_OFF	n/a	n/a	MOSQUITO	Insects	2	8	[0, 0, 0]	n/a	catFR1	0	R1381T
858.315	1.6	887384	WORD	n/a	wordpools/wordpool_categorized_EN.txt	LAKE	Landscapes	3	8	[0, 0, 0]	n/a	catFR1	0	R1381T
859.916	0.766	888986	WORD_OFF	n/a	n/a	LAKE	Landscapes	3	8	[0, 0, 0]	n/a	catFR1	0	R1381T
860.682	1.6	889751	WORD	n/a	wordpools/wordpool_categorized_EN.txt	CREEK	Landscapes	4	8	[0, 0, 0]	n/a	catFR1	0	R1381T
862.298	0.8	891363	WORD_OFF	n/a	n/a	CREEK	Landscapes	4	8	[0, 0, 0]	n/a	catFR1	0	R1381T
863.098	1.6	892158	WORD	n/a	wordpools/wordpool_categorized_EN.txt	LION	Zoo	5	8	[0, 0, 0]	n/a	catFR1	0	R1381T
864.698	0.95	893760	WORD_OFF	n/a	n/a	LION	Zoo	5	8	[0, 0, 0]	n/a	catFR1	0	R1381T
865.648	1.6	894711	WORD	n/a	wordpools/wordpool_categorized_EN.txt	ORANGUTAN	Zoo	6	8	[0, 0, 0]	n/a	catFR1	0	R1381T
867.249	0.799	896312	WORD_OFF	n/a	n/a	ORANGUTAN	Zoo	6	8	[0, 0, 0]	n/a	catFR1	0	R1381T
868.048	1.6	897118	WORD	n/a	wordpools/wordpool_categorized_EN.txt	BUTTERFLY	Insects	7	8	[0, 0, 0]	n/a	catFR1	0	R1381T
869.648	0.834	898720	WORD_OFF	n/a	n/a	BUTTERFLY	Insects	7	8	[0, 0, 0]	n/a	catFR1	0	R1381T
870.482	1.6	899547	WORD	n/a	wordpools/wordpool_categorized_EN.txt	MOTH	Insects	8	8	[0, 0, 0]	n/a	catFR1	0	R1381T
872.082	0.933	901148	WORD_OFF	n/a	n/a	MOTH	Insects	8	8	[0, 0, 0]	n/a	catFR1	0	R1381T
873.015	1.6	902078	WORD	n/a	wordpools/wordpool_categorized_EN.txt	HILLS	Landscapes	9	8	[0, 0, 0]	n/a	catFR1	0	R1381T
874.615	0.85	903680	WORD_OFF	n/a	n/a	HILLS	Landscapes	9	8	[0, 0, 0]	n/a	catFR1	0	R1381T
875.465	1.6	904527	WORD	n/a	wordpools/wordpool_categorized_EN.txt	ISLAND	Landscapes	10	8	[0, 0, 0]	n/a	catFR1	0	R1381T
877.065	0.983	906129	WORD_OFF	n/a	n/a	ISLAND	Landscapes	10	8	[0, 0, 0]	n/a	catFR1	0	R1381T
878.048	1.6	907111	WORD	n/a	wordpools/wordpool_categorized_EN.txt	BEAR	Zoo	11	8	[0, 0, 0]	n/a	catFR1	0	R1381T
879.649	0.916	908712	WORD_OFF	n/a	n/a	BEAR	Zoo	11	8	[0, 0, 0]	n/a	catFR1	0	R1381T
880.565	1.6	909632	WORD	n/a	wordpools/wordpool_categorized_EN.txt	GIRAFFE	Zoo	12	8	[0, 0, 0]	n/a	catFR1	0	R1381T
882.166	0.001	911230	PROB	5.166	n/a	n/a	n/a	-999	8	[6, 7, 4]	17.0	catFR1	0	R1381T
882.167	0.0	911231	START	n/a	n/a	n/a	n/a	-999	8	[-999, -999, -999]	n/a	catFR1	0	R1381T
882.165	0.002	911234	WORD_OFF	n/a	n/a	GIRAFFE	Zoo	12	8	[0, 0, 0]	n/a	catFR1	0	R1381T
882.167	0.0	911234	ENCODING_END	n/a	n/a	n/a	n/a	-999	8	[0, 0, 0]	n/a	catFR1	0	R1381T
882.167	5.182	911234	DISTRACT_START	n/a	n/a	n/a	n/a	-999	8	[0, 0, 0]	n/a	catFR1	0	R1381T
887.349	3.651	916413	PROB	3.632	n/a	n/a	n/a	-999	8	[7, 4, 6]	17.0	catFR1	0	R1381T
891.0	3.432	920064	PROB	3.416	n/a	n/a	n/a	-999	8	[6, 4, 1]	11.0	catFR1	0	R1381T
894.432	3.35	923495	PROB	3.333	n/a	n/a	n/a	-999	8	[7, 7, 3]	17.0	catFR1	0	R1381T
897.782	3.966	926845	PROB	3.949	n/a	n/a	n/a	-999	8	[1, 2, 4]	7.0	catFR1	0	R1381T
901.748	3.367	930811	PROB	3.35	n/a	n/a	n/a	-999	8	[2, 1, 2]	5.0	catFR1	0	R1381T
905.115	0.0	934174	DISTRACT_END	n/a	n/a	n/a	n/a	-999	8	[0, 0, 0]	n/a	catFR1	0	R1381T
905.115	1.367	934178	STOP	n/a	n/a	n/a	n/a	-999	8	[-999, -999, -999]	n/a	catFR1	0	R1381T
906.482	1.775	935548	REC_START	n/a	n/a	n/a	n/a	-999	8	[0, 0, 0]	n/a	catFR1	0	R1381T
908.257	1.12	937320	REC_WORD	1.775	n/a	SPIDER	Insects	1	8	[0, 0, 0]	n/a	catFR1	0	R1381T
909.377	2.206	938440	REC_WORD	2.895	n/a	MOSQUITO	Insects	2	8	[0, 0, 0]	n/a	catFR1	0	R1381T
911.583	25.189	940646	REC_WORD	5.101	n/a	LAKE	Landscapes	3	8	[0, 0, 0]	n/a	catFR1	0	R1381T
936.772	1.509	965835	REC_END	n/a	n/a	n/a	n/a	-999	8	[0, 0, 0]	n/a	catFR1	0	R1381T
938.281	10.0	967344	COUNTDOWN_START	n/a	n/a	n/a	n/a	-999	9	[0, 0, 0]	n/a	catFR1	0	R1381T
948.632	0.0	977698	COUNTDOWN_END	n/a	n/a	n/a	n/a	-999	9	[0, 0, 0]	n/a	catFR1	0	R1381T
948.632	2.083	977698	ENCODING_START	n/a	n/a	n/a	n/a	-999	9	[0, 0, 0]	n/a	catFR1	0	R1381T
950.715	1.6	979775	WORD	n/a	wordpools/wordpool_categorized_EN.txt	CROWBAR	Tools	1	9	[0, 0, 0]	n/a	catFR1	0	R1381T
952.315	0.767	981376	WORD_OFF	n/a	n/a	CROWBAR	Tools	1	9	[0, 0, 0]	n/a	catFR1	0	R1381T
953.082	1.6	982141	WORD	n/a	wordpools/wordpool_categorized_EN.txt	SAW	Tools	2	9	[0, 0, 0]	n/a	catFR1	0	R1381T
954.682	0.95	983743	WORD_OFF	n/a	n/a	SAW	Tools	2	9	[0, 0, 0]	n/a	catFR1	0	R1381T
955.632	1.6	984693	WORD	n/a	wordpools/wordpool_categorized_EN.txt	ROOM	Building	3	9	[0, 0, 0]	n/a	catFR1	0	R1381T
957.232	0.816	986295	WORD_OFF	n/a	n/a	ROOM	Building	3	9	[0, 0, 0]	n/a	catFR1	0	R1381T
958.048	1.6	987111	WORD	n/a	wordpools/wordpool_categorized_EN.txt	ROOF	Building	4	9	[0, 0, 0]	n/a	catFR1	0	R1381T
959.665	0.834	988723	WORD_OFF	n/a	n/a	ROOF	Building	4	9	[0, 0, 0]	n/a	catFR1	0	R1381T
960.499	1.6	989560	WORD	n/a	wordpools/wordpool_categorized_EN.txt	ELBOW	Bodyparts	5	9	[0, 0, 0]	n/a	catFR1	0	R1381T
962.099	0.816	991162	WORD_OFF	n/a	n/a	ELBOW	Bodyparts	5	9	[0, 0, 0]	n/a	catFR1	0	R1381T
962.915	1.6	991978	WORD	n/a	wordpools/wordpool_categorized_EN.txt	LEG	Bodyparts	6	9	[0, 0, 0]	n/a	catFR1	0	R1381T
964.515	0.816	993580	WORD_OFF	n/a	n/a	LEG	Bodyparts	6	9	[0, 0, 0]	n/a	catFR1	0	R1381T
965.331	1.6	994396	WORD	n/a	wordpools/wordpool_categorized_EN.txt	HALLWAY	Building	7	9	[0, 0, 0]	n/a	catFR1	0	R1381T
966.932	0.95	995988	WORD_OFF	n/a	n/a	HALLWAY	Building	7	9	[0, 0, 0]	n/a	catFR1	0	R1381T
967.882	1.6	996938	WORD	n/a	wordpools/wordpool_categorized_EN.txt	CEILING	Building	8	9	[0, 0, 0]	n/a	catFR1	0	R1381T
969.482	0.916	998540	WORD_OFF	n/a	n/a	CEILING	Building	8	9	[0, 0, 0]	n/a	catFR1	0	R1381T
970.398	1.6	999460	WORD	n/a	wordpools/wordpool_categorized_EN.txt	HAND	Bodyparts	9	9	[0, 0, 0]	n/a	catFR1	0	R1381T
972.015	0.984	1001072	WORD_OFF	n/a	n/a	HAND	Bodyparts	9	9	[0, 0, 0]	n/a	catFR1	0	R1381T
972.999	1.6	1002064	WORD	n/a	wordpools/wordpool_categorized_EN.txt	NOSE	Bodyparts	10	9	[0, 0, 0]	n/a	catFR1	0	R1381T
974.598	0.767	1003655	WORD_OFF	n/a	n/a	NOSE	Bodyparts	10	9	[0, 0, 0]	n/a	catFR1	0	R1381T
975.365	1.6	1004420	WORD	n/a	wordpools/wordpool_categorized_EN.txt	PLIERS	Tools	11	9	[0, 0, 0]	n/a	catFR1	0	R1381T
976.982	0.85	1006042	WORD_OFF	n/a	n/a	PLIERS	Tools	11	9	[0, 0, 0]	n/a	catFR1	0	R1381T
977.832	1.6	1006889	WORD	n/a	wordpools/wordpool_categorized_EN.txt	LEVEL	Tools	12	9	[0, 0, 0]	n/a	catFR1	0	R1381T
979.432	0.002	1008491	WORD_OFF	n/a	n/a	LEVEL	Tools	12	9	[0, 0, 0]	n/a	catFR1	0	R1381T
979.434	0.0	1008491	ENCODING_END	n/a	n/a	n/a	n/a	-999	9	[0, 0, 0]	n/a	catFR1	0	R1381T
979.434	0.0	1008491	DISTRACT_START	n/a	n/a	n/a	n/a	-999	9	[0, 0, 0]	n/a	catFR1	0	R1381T
979.433	0.001	1008492	PROB	3.615	n/a	n/a	n/a	-999	9	[1, 5, 3]	9.0	catFR1	0	R1381T
979.434	3.631	1008493	START	n/a	n/a	n/a	n/a	-999	9	[-999, -999, -999]	n/a	catFR1	0	R1381T
983.065	4.967	1012124	PROB	4.95	n/a	n/a	n/a	-999	9	[8, 4, 2]	14.0	catFR1	0	R1381T
988.032	5.084	1017091	PROB	5.066	n/a	n/a	n/a	-999	9	[8, 4, 8]	20.0	catFR1	0	R1381T
993.116	4.033	1022174	PROB	4.016	n/a	n/a	n/a	-999	9	[8, 1, 2]	11.0	catFR1	0	R1381T
997.149	4.882	1026207	PROB	4.866	n/a	n/a	n/a	-999	9	[4, 3, 4]	11.0	catFR1	0	R1381T
1002.031	0.0	1031089	STOP	n/a	n/a	n/a	n/a	-999	9	[-999, -999, -999]	n/a	catFR1	0	R1381T
1002.031	1.301	1031090	DISTRACT_END	n/a	n/a	n/a	n/a	-999	9	[0, 0, 0]	n/a	catFR1	0	R1381T
1003.332	9.239	1032392	REC_START	n/a	n/a	n/a	n/a	-999	9	[0, 0, 0]	n/a	catFR1	0	R1381T
1012.571	3.687	1041628	REC_WORD	9.239	n/a	SAW	Tools	2	9	[0, 0, 0]	n/a	catFR1	0	R1381T
1016.258	0.592	1045315	REC_WORD	12.926	n/a	HAND	Bodyparts	9	9	[0, 0, 0]	n/a	catFR1	0	R1381T
1016.85	2.839	1045907	REC_WORD	13.518	n/a	ELBOW	Bodyparts	5	9	[0, 0, 0]	n/a	catFR1	0	R1381T
1019.689	1.024	1048746	REC_WORD	16.357	n/a	LEG	Bodyparts	6	9	[0, 0, 0]	n/a	catFR1	0	R1381T
1020.713	12.891	1049770	REC_WORD	17.381	n/a	NOSE	Bodyparts	10	9	[0, 0, 0]	n/a	catFR1	0	R1381T
1033.604	1.511	1062658	REC_END	n/a	n/a	n/a	n/a	-999	9	[0, 0, 0]	n/a	catFR1	0	R1381T
1035.115	10.0	1064177	COUNTDOWN_START	n/a	n/a	n/a	n/a	-999	10	[0, 0, 0]	n/a	catFR1	0	R1381T
1045.465	0.001	1074521	COUNTDOWN_END	n/a	n/a	n/a	n/a	-999	10	[0, 0, 0]	n/a	catFR1	0	R1381T
1045.466	2.116	1074521	ENCODING_START	n/a	n/a	n/a	n/a	-999	10	[0, 0, 0]	n/a	catFR1	0	R1381T
1047.582	1.6	1076639	WORD	n/a	wordpools/wordpool_categorized_EN.txt	SHOVEL	Tools	1	10	[0, 0, 0]	n/a	catFR1	0	R1381T
1049.199	0.966	1078251	WORD_OFF	n/a	n/a	SHOVEL	Tools	1	10	[0, 0, 0]	n/a	catFR1	0	R1381T
1050.165	1.6	1079222	WORD	n/a	wordpools/wordpool_categorized_EN.txt	RATCHET	Tools	2	10	[0, 0, 0]	n/a	catFR1	0	R1381T
1051.782	0.85	1080834	WORD_OFF	n/a	n/a	RATCHET	Tools	2	10	[0, 0, 0]	n/a	catFR1	0	R1381T
1052.632	1.6	1081692	WORD	n/a	wordpools/wordpool_categorized_EN.txt	KNEE	Bodyparts	3	10	[0, 0, 0]	n/a	catFR1	0	R1381T
1054.232	0.916	1083283	WORD_OFF	n/a	n/a	KNEE	Bodyparts	3	10	[0, 0, 0]	n/a	catFR1	0	R1381T
1055.148	1.6	1084203	WORD	n/a	wordpools/wordpool_categorized_EN.txt	FOOT	Bodyparts	4	10	[0, 0, 0]	n/a	catFR1	0	R1381T
1056.765	0.95	1085825	WORD_OFF	n/a	n/a	FOOT	Bodyparts	4	10	[0, 0, 0]	n/a	catFR1	0	R1381T
1057.715	1.6	1086766	WORD	n/a	wordpools/wordpool_categorized_EN.txt	FLOOR	Building	5	10	[0, 0, 0]	n/a	catFR1	0	R1381T
1059.315	0.95	1088378	WORD_OFF	n/a	n/a	FLOOR	Building	5	10	[0, 0, 0]	n/a	catFR1	0	R1381T
1060.265	1.6	1089318	WORD	n/a	wordpools/wordpool_categorized_EN.txt	STAIRS	Building	6	10	[0, 0, 0]	n/a	catFR1	0	R1381T
1061.865	0.9	1090920	WORD_OFF	n/a	n/a	STAIRS	Building	6	10	[0, 0, 0]	n/a	catFR1	0	R1381T
1062.765	1.6	1091819	WORD	n/a	wordpools/wordpool_categorized_EN.txt	HAMMER	Tools	7	10	[0, 0, 0]	n/a	catFR1	0	R1381T
1064.382	0.833	1093441	WORD_OFF	n/a	n/a	HAMMER	Tools	7	10	[0, 0, 0]	n/a	catFR1	0	R1381T
1065.215	1.6	1094268	WORD	n/a	wordpools/wordpool_categorized_EN.txt	AXE	Tools	8	10	[0, 0, 0]	n/a	catFR1	0	R1381T
1066.832	0.833	1095890	WORD_OFF	n/a	n/a	AXE	Tools	8	10	[0, 0, 0]	n/a	catFR1	0	R1381T
1067.665	1.6	1096717	WORD	n/a	wordpools/wordpool_categorized_EN.txt	ARM	Bodyparts	9	10	[0, 0, 0]	n/a	catFR1	0	R1381T
1069.265	0.983	1098318	WORD_OFF	n/a	n/a	ARM	Bodyparts	9	10	[0, 0, 0]	n/a	catFR1	0	R1381T
1070.248	1.6	1099300	WORD	n/a	wordpools/wordpool_categorized_EN.txt	HEAD	Bodyparts	10	10	[0, 0, 0]	n/a	catFR1	0	R1381T
1071.849	0.899	1100902	WORD_OFF	n/a	n/a	HEAD	Bodyparts	10	10	[0, 0, 0]	n/a	catFR1	0	R1381T
1072.748	1.6	1101801	WORD	n/a	wordpools/wordpool_categorized_EN.txt	BATHROOM	Building	11	10	[0, 0, 0]	n/a	catFR1	0	R1381T
1074.349	0.849	1103402	WORD_OFF	n/a	n/a	BATHROOM	Building	11	10	[0, 0, 0]	n/a	catFR1	0	R1381T
1075.198	1.6	1104250	WORD	n/a	wordpools/wordpool_categorized_EN.txt	ATTIC	Building	12	10	[0, 0, 0]	n/a	catFR1	0	R1381T
1076.798	0.002	1105851	WORD_OFF	n/a	n/a	ATTIC	Building	12	10	[0, 0, 0]	n/a	catFR1	0	R1381T
1076.8	0.0	1105851	ENCODING_END	n/a	n/a	n/a	n/a	-999	10	[0, 0, 0]	n/a	catFR1	0	R1381T
1076.8	0.0	1105851	DISTRACT_START	n/a	n/a	n/a	n/a	-999	10	[0, 0, 0]	n/a	catFR1	0	R1381T
1076.799	0.001	1105853	PROB	4.666	n/a	n/a	n/a	-999	10	[2, 8, 3]	13.0	catFR1	0	R1381T
1076.8	4.682	1105854	START	n/a	n/a	n/a	n/a	-999	10	[-999, -999, -999]	n/a	catFR1	0	R1381T
1081.482	5.25	1110536	PROB	5.233	n/a	n/a	n/a	-999	10	[1, 5, 1]	7.0	catFR1	0	R1381T
1086.732	10.949	1115786	PROB	10.933	n/a	n/a	n/a	-999	10	[8, 7, 7]	22.0	catFR1	0	R1381T
1097.681	0.0	1126734	STOP	n/a	n/a	n/a	n/a	-999	10	[-999, -999, -999]	n/a	catFR1	0	R1381T
1097.681	1.017	1126735	DISTRACT_END	n/a	n/a	n/a	n/a	-999	10	[0, 0, 0]	n/a	catFR1	0	R1381T
1098.698	2.236	1127748	REC_START	n/a	n/a	n/a	n/a	-999	10	[0, 0, 0]	n/a	catFR1	0	R1381T
1100.934	1.517	1129987	REC_WORD	2.236	n/a	AXE	Tools	8	10	[0, 0, 0]	n/a	catFR1	0	R1381T
1102.451	2.538	1131504	REC_WORD	3.753	n/a	HEAD	Bodyparts	10	10	[0, 0, 0]	n/a	catFR1	0	R1381T
1104.989	4.182	1134042	REC_WORD	6.291	n/a	RATCHET	Tools	2	10	[0, 0, 0]	n/a	catFR1	0	R1381T
1109.171	19.776	1138223	REC_WORD	10.473	n/a	FOOT	Bodyparts	4	10	[0, 0, 0]	n/a	catFR1	0	R1381T
1128.947	1.435	1158004	REC_END	n/a	n/a	n/a	n/a	-999	10	[0, 0, 0]	n/a	catFR1	0	R1381T
1130.382	10.0	1159440	COUNTDOWN_START	n/a	n/a	n/a	n/a	-999	11	[0, 0, 0]	n/a	catFR1	0	R1381T
1140.732	0.001	1169784	COUNTDOWN_END	n/a	n/a	n/a	n/a	-999	11	[0, 0, 0]	n/a	catFR1	0	R1381T
1140.733	2.199	1169784	ENCODING_START	n/a	n/a	n/a	n/a	-999	11	[0, 0, 0]	n/a	catFR1	0	R1381T
1142.932	1.6	1171985	WORD	n/a	wordpools/wordpool_categorized_EN.txt	TOE	Bodyparts	1	11	[0, 0, 0]	n/a	catFR1	0	R1381T
1144.532	0.983	1173586	WORD_OFF	n/a	n/a	TOE	Bodyparts	1	11	[0, 0, 0]	n/a	catFR1	0	R1381T
1145.515	1.6	1174568	WORD	n/a	wordpools/wordpool_categorized_EN.txt	EAR	Bodyparts	2	11	[0, 0, 0]	n/a	catFR1	0	R1381T
1147.115	0.95	1176170	WORD_OFF	n/a	n/a	EAR	Bodyparts	2	11	[0, 0, 0]	n/a	catFR1	0	R1381T
1148.065	1.6	1177120	WORD	n/a	wordpools/wordpool_categorized_EN.txt	SPINACH	Vegetables	3	11	[0, 0, 0]	n/a	catFR1	0	R1381T
1149.665	0.984	1178712	WORD_OFF	n/a	n/a	SPINACH	Vegetables	3	11	[0, 0, 0]	n/a	catFR1	0	R1381T
1150.649	1.6	1179704	WORD	n/a	wordpools/wordpool_categorized_EN.txt	CORN	Vegetables	4	11	[0, 0, 0]	n/a	catFR1	0	R1381T
1152.248	0.902	1181295	WORD_OFF	n/a	n/a	CORN	Vegetables	4	11	[0, 0, 0]	n/a	catFR1	0	R1381T
1153.15	1.6	1182204	WORD	n/a	wordpools/wordpool_categorized_EN.txt	TONGS	Kitchentools	5	11	[0, 0, 0]	n/a	catFR1	0	R1381T
1154.748	0.917	1183796	WORD_OFF	n/a	n/a	TONGS	Kitchentools	5	11	[0, 0, 0]	n/a	catFR1	0	R1381T
1155.665	1.6	1184715	WORD	n/a	wordpools/wordpool_categorized_EN.txt	COLANDER	Kitchentools	6	11	[0, 0, 0]	n/a	catFR1	0	R1381T
1157.265	0.983	1186317	WORD_OFF	n/a	n/a	COLANDER	Kitchentools	6	11	[0, 0, 0]	n/a	catFR1	0	R1381T
1158.248	1.6	1187299	WORD	n/a	wordpools/wordpool_categorized_EN.txt	CABBAGE	Vegetables	7	11	[0, 0, 0]	n/a	catFR1	0	R1381T
1159.848	0.967	1188900	WORD_OFF	n/a	n/a	CABBAGE	Vegetables	7	11	[0, 0, 0]	n/a	catFR1	0	R1381T
1160.815	1.6	1189861	WORD	n/a	wordpools/wordpool_categorized_EN.txt	CAULIFLOWER	Vegetables	8	11	[0, 0, 0]	n/a	catFR1	0	R1381T
1162.432	0.933	1191484	WORD_OFF	n/a	n/a	CAULIFLOWER	Vegetables	8	11	[0, 0, 0]	n/a	catFR1	0	R1381T
1163.365	1.6	1192414	WORD	n/a	wordpools/wordpool_categorized_EN.txt	FINGERS	Bodyparts	9	11	[0, 0, 0]	n/a	catFR1	0	R1381T
1164.965	1.0	1194015	WORD_OFF	n/a	n/a	FINGERS	Bodyparts	9	11	[0, 0, 0]	n/a	catFR1	0	R1381T
1165.965	1.6	1195018	WORD	n/a	wordpools/wordpool_categorized_EN.txt	EYE	Bodyparts	10	11	[0, 0, 0]	n/a	catFR1	0	R1381T
1167.565	0.817	1196619	WORD_OFF	n/a	n/a	EYE	Bodyparts	10	11	[0, 0, 0]	n/a	catFR1	0	R1381T
1168.382	1.6	1197436	WORD	n/a	wordpools/wordpool_categorized_EN.txt	PEELER	Kitchentools	11	11	[0, 0, 0]	n/a	catFR1	0	R1381T
1169.998	0.817	1199048	WORD_OFF	n/a	n/a	PEELER	Kitchentools	11	11	[0, 0, 0]	n/a	catFR1	0	R1381T
1170.815	1.6	1199864	WORD	n/a	wordpools/wordpool_categorized_EN.txt	SPATULA	Kitchentools	12	11	[0, 0, 0]	n/a	catFR1	0	R1381T
1172.432	0.001	1201481	PROB	4.0	n/a	n/a	n/a	-999	11	[5, 1, 1]	7.0	catFR1	0	R1381T
1172.433	0.0	1201482	START	n/a	n/a	n/a	n/a	-999	11	[-999, -999, -999]	n/a	catFR1	0	R1381T
1172.432	0.001	1201486	WORD_OFF	n/a	n/a	SPATULA	Kitchentools	12	11	[0, 0, 0]	n/a	catFR1	0	R1381T
1172.433	0.0	1201486	ENCODING_END	n/a	n/a	n/a	n/a	-999	11	[0, 0, 0]	n/a	catFR1	0	R1381T
1172.433	4.016	1201486	DISTRACT_START	n/a	n/a	n/a	n/a	-999	11	[0, 0, 0]	n/a	catFR1	0	R1381T
1176.449	3.884	1205498	PROB	3.866	n/a	n/a	n/a	-999	11	[4, 3, 8]	15.0	catFR1	0	R1381T
1180.333	10.398	1209382	PROB	10.382	n/a	n/a	n/a	-999	11	[7, 8, 6]	21.0	catFR1	0	R1381T
1190.731	4.3	1219779	PROB	4.283	n/a	n/a	n/a	-999	11	[4, 4, 3]	11.0	catFR1	0	R1381T
1195.031	0.0	1224075	DISTRACT_END	n/a	n/a	n/a	n/a	-999	11	[0, 0, 0]	n/a	catFR1	0	R1381T
1195.031	1.317	1224079	STOP	n/a	n/a	n/a	n/a	-999	11	[-999, -999, -999]	n/a	catFR1	0	R1381T
1196.348	4.561	1225398	REC_START	n/a	n/a	n/a	n/a	-999	11	[0, 0, 0]	n/a	catFR1	0	R1381T
1200.909	6.8	1229957	REC_WORD_VV	4.561	n/a	<>	n/a	-999	11	[0, 0, 0]	n/a	catFR1	0	R1381T
1207.709	2.05	1236756	REC_WORD	11.361	n/a	EYE	Bodyparts	10	11	[0, 0, 0]	n/a	catFR1	0	R1381T
1209.759	16.832	1238806	REC_WORD	13.411	n/a	FINGERS	Bodyparts	9	11	[0, 0, 0]	n/a	catFR1	0	R1381T
1226.591	1.508	1255643	REC_END	n/a	n/a	n/a	n/a	-999	11	[0, 0, 0]	n/a	catFR1	0	R1381T
1228.099	10.0	1257152	COUNTDOWN_START	n/a	n/a	n/a	n/a	-999	12	[0, 0, 0]	n/a	catFR1	0	R1381T
1238.449	0.0	1267496	COUNTDOWN_END	n/a	n/a	n/a	n/a	-999	12	[0, 0, 0]	n/a	catFR1	0	R1381T
1238.449	1.933	1267496	ENCODING_START	n/a	n/a	n/a	n/a	-999	12	[0, 0, 0]	n/a	catFR1	0	R1381T
1240.382	1.6	1269428	WORD	n/a	wordpools/wordpool_categorized_EN.txt	PEAS	Vegetables	1	12	[0, 0, 0]	n/a	catFR1	0	R1381T
1241.982	0.95	1271030	WORD_OFF	n/a	n/a	PEAS	Vegetables	1	12	[0, 0, 0]	n/a	catFR1	0	R1381T
1242.932	1.6	1271980	WORD	n/a	wordpools/wordpool_categorized_EN.txt	POTATO	Vegetables	2	12	[0, 0, 0]	n/a	catFR1	0	R1381T
1244.548	0.767	1273592	WORD_OFF	n/a	n/a	POTATO	Vegetables	2	12	[0, 0, 0]	n/a	catFR1	0	R1381T
1245.315	1.6	1274357	WORD	n/a	wordpools/wordpool_categorized_EN.txt	GRATER	Kitchentools	3	12	[0, 0, 0]	n/a	catFR1	0	R1381T
1246.932	0.966	1275979	WORD_OFF	n/a	n/a	GRATER	Kitchentools	3	12	[0, 0, 0]	n/a	catFR1	0	R1381T
1247.898	1.6	1276940	WORD	n/a	wordpools/wordpool_categorized_EN.txt	KNIFE	Kitchentools	4	12	[0, 0, 0]	n/a	catFR1	0	R1381T
1249.498	0.817	1278542	WORD_OFF	n/a	n/a	KNIFE	Kitchentools	4	12	[0, 0, 0]	n/a	catFR1	0	R1381T
1250.315	1.6	1279358	WORD	n/a	wordpools/wordpool_categorized_EN.txt	ROACH	Insects	5	12	[0, 0, 0]	n/a	catFR1	0	R1381T
1251.932	0.783	1280981	WORD_OFF	n/a	n/a	ROACH	Insects	5	12	[0, 0, 0]	n/a	catFR1	0	R1381T
1252.715	1.6	1281756	WORD	n/a	wordpools/wordpool_categorized_EN.txt	BEETLE	Insects	6	12	[0, 0, 0]	n/a	catFR1	0	R1381T
1254.315	0.866	1283357	WORD_OFF	n/a	n/a	BEETLE	Insects	6	12	[0, 0, 0]	n/a	catFR1	0	R1381T
1255.181	1.6	1284225	WORD	n/a	wordpools/wordpool_categorized_EN.txt	CARROT	Vegetables	7	12	[0, 0, 0]	n/a	catFR1	0	R1381T
1256.782	0.783	1285827	WORD_OFF	n/a	n/a	CARROT	Vegetables	7	12	[0, 0, 0]	n/a	catFR1	0	R1381T
1257.565	1.6	1286612	WORD	n/a	wordpools/wordpool_categorized_EN.txt	CUCUMBER	Vegetables	8	12	[0, 0, 0]	n/a	catFR1	0	R1381T
1259.182	0.983	1288224	WORD_OFF	n/a	n/a	CUCUMBER	Vegetables	8	12	[0, 0, 0]	n/a	catFR1	0	R1381T
1260.165	1.6	1289206	WORD	n/a	wordpools/wordpool_categorized_EN.txt	SPOON	Kitchentools	9	12	[0, 0, 0]	n/a	catFR1	0	R1381T
1261.765	0.767	1290808	WORD_OFF	n/a	n/a	SPOON	Kitchentools	9	12	[0, 0, 0]	n/a	catFR1	0	R1381T
1262.532	1.6	1291572	WORD	n/a	wordpools/wordpool_categorized_EN.txt	WHISK	Kitchentools	10	12	[0, 0, 0]	n/a	catFR1	0	R1381T
1264.148	0.934	1293195	WORD_OFF	n/a	n/a	WHISK	Kitchentools	10	12	[0, 0, 0]	n/a	catFR1	0	R1381T
1265.082	1.6	1294125	WORD	n/a	wordpools/wordpool_categorized_EN.txt	GNAT	Insects	11	12	[0, 0, 0]	n/a	catFR1	0	R1381T
1266.682	0.966	1295726	WORD_OFF	n/a	n/a	GNAT	Insects	11	12	[0, 0, 0]	n/a	catFR1	0	R1381T
1267.648	1.6	1296698	WORD	n/a	wordpools/wordpool_categorized_EN.txt	FLY	Insects	12	12	[0, 0, 0]	n/a	catFR1	0	R1381T
1269.265	0.002	1298310	WORD_OFF	n/a	n/a	FLY	Insects	12	12	[0, 0, 0]	n/a	catFR1	0	R1381T
1269.267	0.0	1298310	ENCODING_END	n/a	n/a	n/a	n/a	-999	12	[0, 0, 0]	n/a	catFR1	0	R1381T
1269.267	0.0	1298310	DISTRACT_START	n/a	n/a	n/a	n/a	-999	12	[0, 0, 0]	n/a	catFR1	0	R1381T
1269.266	0.001	1298310	PROB	8.949	n/a	n/a	n/a	-999	12	[5, 3, 2]	10.0	catFR1	0	R1381T
1269.267	8.965	1298311	START	n/a	n/a	n/a	n/a	-999	12	[-999, -999, -999]	n/a	catFR1	0	R1381T
1278.232	3.199	1307276	PROB	3.183	n/a	n/a	n/a	-999	12	[8, 7, 3]	18.0	catFR1	0	R1381T
1281.431	5.518	1310475	PROB	5.5	n/a	n/a	n/a	-999	12	[7, 8, 6]	21.0	catFR1	0	R1381T
1286.949	4.865	1315992	PROB	4.849	n/a	n/a	n/a	-999	12	[6, 7, 2]	15.0	catFR1	0	R1381T
1291.814	0.0	1320857	DISTRACT_END	n/a	n/a	n/a	n/a	-999	12	[0, 0, 0]	n/a	catFR1	0	R1381T
1291.814	1.2	1320857	STOP	n/a	n/a	n/a	n/a	-999	12	[-999, -999, -999]	n/a	catFR1	0	R1381T
1293.014	1.957	1322056	REC_START	n/a	n/a	n/a	n/a	-999	12	[0, 0, 0]	n/a	catFR1	0	R1381T
1294.971	3.729	1324014	REC_WORD	1.957	n/a	GNAT	Insects	11	12	[0, 0, 0]	n/a	catFR1	0	R1381T
1298.7	2.946	1327743	REC_WORD_VV	5.686	n/a	<>	n/a	-999	12	[0, 0, 0]	n/a	catFR1	0	R1381T
1301.646	1.295	1330689	REC_WORD	8.632	n/a	COCKROACH	n/a	-999	12	[0, 0, 0]	n/a	catFR1	0	R1381T
1302.941	20.328	1331983	REC_WORD_VV	9.927	n/a	<>	n/a	-999	12	[0, 0, 0]	n/a	catFR1	0	R1381T
1323.269	0.0	1352312	REC_END	n/a	n/a	n/a	n/a	-999	12	[0, 0, 0]	n/a	catFR1	0	R1381T
