onset	duration	sample	trial_type	response_time	stim_file	item_name	category	serialpos	list	test	answer	experiment	session	subject
0.0	3.76	262558	INSTRUCT_START	n/a	n/a	n/a	n/a	-999	-999	[0, 0, 0]	n/a	catFR1	3	R1530J
3.76	28.317	266311	INSTRUCT_END	n/a	n/a	n/a	n/a	-999	-999	[0, 0, 0]	n/a	catFR1	3	R1530J
32.077	10.351	294623	COUNTDOWN_START	n/a	n/a	n/a	n/a	-999	-999	[0, 0, 0]	n/a	catFR1	3	R1530J
42.428	0.0	304972	COUNTDOWN_END	n/a	n/a	n/a	n/a	-999	-999	[0, 0, 0]	n/a	catFR1	3	R1530J
42.428	2.0	304972	ENCODING_START	n/a	n/a	n/a	n/a	-999	-1	[0, 0, 0]	n/a	catFR1	3	R1530J
44.428	1.599	306983	WORD	n/a	n/a	EYE	BodyParts	1	-1	[0, 0, 0]	n/a	catFR1	3	R1530J
46.027	0.8	308578	WORD_OFF	n/a	n/a	EYE	BodyParts	1	-1	[0, 0, 0]	n/a	catFR1	3	R1530J
46.827	1.617	309369	WORD	n/a	n/a	HAND	BodyParts	2	-1	[0, 0, 0]	n/a	catFR1	3	R1530J
48.444	0.883	310991	WORD_OFF	n/a	n/a	HAND	BodyParts	2	-1	[0, 0, 0]	n/a	catFR1	3	R1530J
49.327	1.617	311876	WORD	n/a	n/a	TUBA	Instruments	3	-1	[0, 0, 0]	n/a	catFR1	3	R1530J
50.944	0.932	313498	WORD_OFF	n/a	n/a	TUBA	Instruments	3	-1	[0, 0, 0]	n/a	catFR1	3	R1530J
51.876	1.601	314423	WORD	n/a	n/a	GUITAR	Instruments	4	-1	[0, 0, 0]	n/a	catFR1	3	R1530J
53.477	0.867	316032	WORD_OFF	n/a	n/a	GUITAR	Instruments	4	-1	[0, 0, 0]	n/a	catFR1	3	R1530J
54.344	1.616	316890	WORD	n/a	n/a	SANDER	Tools	5	-1	[0, 0, 0]	n/a	catFR1	3	R1530J
55.96	0.984	318512	WORD_OFF	n/a	n/a	SANDER	Tools	5	-1	[0, 0, 0]	n/a	catFR1	3	R1530J
56.944	1.615	319490	WORD	n/a	n/a	CROWBAR	Tools	6	-1	[0, 0, 0]	n/a	catFR1	3	R1530J
58.559	0.817	321112	WORD_OFF	n/a	n/a	CROWBAR	Tools	6	-1	[0, 0, 0]	n/a	catFR1	3	R1530J
59.376	1.601	321930	WORD	n/a	n/a	HEAD	BodyParts	7	-1	[0, 0, 0]	n/a	catFR1	3	R1530J
60.977	0.866	323525	WORD_OFF	n/a	n/a	HEAD	BodyParts	7	-1	[0, 0, 0]	n/a	catFR1	3	R1530J
61.843	1.6	324397	WORD	n/a	n/a	ARM	BodyParts	8	-1	[0, 0, 0]	n/a	catFR1	3	R1530J
63.443	0.767	325992	WORD_OFF	n/a	n/a	ARM	BodyParts	8	-1	[0, 0, 0]	n/a	catFR1	3	R1530J
64.21	1.6	326756	WORD	n/a	n/a	FLUTE	Instruments	9	-1	[0, 0, 0]	n/a	catFR1	3	R1530J
65.81	0.833	328351	WORD_OFF	n/a	n/a	FLUTE	Instruments	9	-1	[0, 0, 0]	n/a	catFR1	3	R1530J
66.643	1.601	329196	WORD	n/a	n/a	VIOLIN	Instruments	10	-1	[0, 0, 0]	n/a	catFR1	3	R1530J
68.244	0.999	330791	WORD_OFF	n/a	n/a	VIOLIN	Instruments	10	-1	[0, 0, 0]	n/a	catFR1	3	R1530J
69.243	1.618	331796	WORD	n/a	n/a	HAMMER	Tools	11	-1	[0, 0, 0]	n/a	catFR1	3	R1530J
70.861	0.966	333405	WORD_OFF	n/a	n/a	HAMMER	Tools	11	-1	[0, 0, 0]	n/a	catFR1	3	R1530J
71.827	1.617	334370	WORD	n/a	n/a	SCREWDRIVER	Tools	12	-1	[0, 0, 0]	n/a	catFR1	3	R1530J
73.444	0.0	335987	START	n/a	n/a	n/a	n/a	-999	-1	[-999, -999, -999]	n/a	catFR1	3	R1530J
73.444	0.0	335987	PROB	0.0	n/a	n/a	n/a	-999	-1	[8, 7, 6]	21	catFR1	3	R1530J
73.443	0.001	335992	WORD_OFF	n/a	n/a	SCREWDRIVER	Tools	12	-1	[0, 0, 0]	n/a	catFR1	3	R1530J
73.444	0.0	335992	ENCODING_END	n/a	n/a	n/a	n/a	-999	-1	[0, 0, 0]	n/a	catFR1	3	R1530J
73.444	3.233	335992	DISTRACT_START	n/a	n/a	n/a	n/a	-999	-1	[0, 0, 0]	n/a	catFR1	3	R1530J
76.677	2.217	339220	PROB	2.217	n/a	n/a	n/a	-999	-1	[7, 1, 3]	11	catFR1	3	R1530J
78.894	2.533	341436	PROB	2.533	n/a	n/a	n/a	-999	-1	[3, 4, 2]	9	catFR1	3	R1530J
81.427	3.35	343969	PROB	3.35	n/a	n/a	n/a	-999	-1	[5, 7, 5]	17	catFR1	3	R1530J
84.777	2.617	347319	PROB	2.617	n/a	n/a	n/a	-999	-1	[4, 1, 4]	9	catFR1	3	R1530J
87.394	2.65	349936	PROB	2.65	n/a	n/a	n/a	-999	-1	[7, 6, 6]	19	catFR1	3	R1530J
90.044	3.399	352586	PROB	3.399	n/a	n/a	n/a	-999	-1	[5, 8, 3]	16	catFR1	3	R1530J
93.443	0.0	355985	STOP	n/a	n/a	n/a	n/a	-999	-1	[-999, -999, -999]	n/a	catFR1	3	R1530J
93.443	1.733	355993	DISTRACT_END	n/a	n/a	n/a	n/a	-999	-1	[0, 0, 0]	n/a	catFR1	3	R1530J
95.176	1.066	357722	REC_START	n/a	n/a	n/a	n/a	-999	-1	[0, 0, 0]	n/a	catFR1	3	R1530J
96.242	0.772	358784	REC_WORD	0.772	n/a	HAMMER	Tools	11	-1	[0, 0, 0]	n/a	catFR1	3	R1530J
97.014	0.667	359555	REC_WORD	0.667	n/a	SANDER	Tools	5	-1	[0, 0, 0]	n/a	catFR1	3	R1530J
97.681	1.062	360222	REC_WORD	1.062	n/a	SCREWDRIVER	Tools	12	-1	[0, 0, 0]	n/a	catFR1	3	R1530J
98.743	0.491	361284	REC_WORD	0.491	n/a	ARM	BodyParts	8	-1	[0, 0, 0]	n/a	catFR1	3	R1530J
99.234	1.598	361775	REC_WORD	1.598	n/a	HEAD	BodyParts	7	-1	[0, 0, 0]	n/a	catFR1	3	R1530J
100.832	0.814	363373	REC_WORD	0.814	n/a	VIOLIN	Instruments	10	-1	[0, 0, 0]	n/a	catFR1	3	R1530J
101.646	1.006	364187	REC_WORD	1.006	n/a	TUBA	Instruments	3	-1	[0, 0, 0]	n/a	catFR1	3	R1530J
102.652	2.705	365193	REC_WORD	2.705	n/a	TRUMPET	n/a	-999	-1	[0, 0, 0]	n/a	catFR1	3	R1530J
105.357	2.186	367898	REC_WORD_VV	2.186	n/a	<>	n/a	-999	-1	[0, 0, 0]	n/a	catFR1	3	R1530J
107.543	0.421	370084	REC_WORD_VV	0.421	n/a	<>	n/a	-999	-1	[0, 0, 0]	n/a	catFR1	3	R1530J
107.964	1.51	370505	REC_WORD	1.51	n/a	ARM	BodyParts	8	-1	[0, 0, 0]	n/a	catFR1	3	R1530J
109.474	0.429	372015	REC_WORD	0.429	n/a	ARM	BodyParts	8	-1	[0, 0, 0]	n/a	catFR1	3	R1530J
109.903	3.732	372444	REC_WORD	3.732	n/a	HEAD	BodyParts	7	-1	[0, 0, 0]	n/a	catFR1	3	R1530J
113.635	0.515	376176	REC_WORD	0.515	n/a	TUBA	Instruments	3	-1	[0, 0, 0]	n/a	catFR1	3	R1530J
114.15	0.555	376691	REC_WORD	0.555	n/a	TRUMPET	n/a	-999	-1	[0, 0, 0]	n/a	catFR1	3	R1530J
114.705	2.794	377246	REC_WORD	2.794	n/a	VIOLIN	Instruments	10	-1	[0, 0, 0]	n/a	catFR1	3	R1530J
117.499	0.401	380039	REC_WORD	0.401	n/a	HAMMER	Tools	11	-1	[0, 0, 0]	n/a	catFR1	3	R1530J
117.9	0.549	380440	REC_WORD	0.549	n/a	SANDER	Tools	5	-1	[0, 0, 0]	n/a	catFR1	3	R1530J
118.449	6.902	380989	REC_WORD	6.902	n/a	SCREWDRIVER	Tools	12	-1	[0, 0, 0]	n/a	catFR1	3	R1530J
125.351	7.976	387898	REC_END	n/a	n/a	n/a	n/a	-999	-1	[0, 0, 0]	n/a	catFR1	3	R1530J
133.327	10.35	395874	COUNTDOWN_START	n/a	n/a	n/a	n/a	-999	1	[0, 0, 0]	n/a	catFR1	3	R1530J
143.677	0.0	406223	COUNTDOWN_END	n/a	n/a	n/a	n/a	-999	1	[0, 0, 0]	n/a	catFR1	3	R1530J
143.677	1.8	406223	ENCODING_START	n/a	n/a	n/a	n/a	-999	1	[0, 0, 0]	n/a	catFR1	3	R1530J
145.477	1.615	408020	WORD	n/a	wordpools/wordpool_categorized_EN.txt	FOUNDATION	Building	1	1	[0, 0, 0]	n/a	catFR1	3	R1530J
147.092	0.885	409642	WORD_OFF	n/a	n/a	FOUNDATION	Building	1	1	[0, 0, 0]	n/a	catFR1	3	R1530J
147.977	1.617	410526	WORD	n/a	wordpools/wordpool_categorized_EN.txt	ROOM	Building	2	1	[0, 0, 0]	n/a	catFR1	3	R1530J
149.594	0.85	412135	WORD_OFF	n/a	n/a	ROOM	Building	2	1	[0, 0, 0]	n/a	catFR1	3	R1530J
150.444	1.6	412993	WORD	n/a	wordpools/wordpool_categorized_EN.txt	MIXER	Appliances	3	1	[0, 0, 0]	n/a	catFR1	3	R1530J
152.044	0.767	414588	WORD_OFF	n/a	n/a	MIXER	Appliances	3	1	[0, 0, 0]	n/a	catFR1	3	R1530J
152.811	1.616	415352	WORD	n/a	wordpools/wordpool_categorized_EN.txt	DISHWASHER	Appliances	4	1	[0, 0, 0]	n/a	catFR1	3	R1530J
154.427	0.85	416974	WORD_OFF	n/a	n/a	DISHWASHER	Appliances	4	1	[0, 0, 0]	n/a	catFR1	3	R1530J
155.277	1.617	417819	WORD	n/a	wordpools/wordpool_categorized_EN.txt	RULER	OfficeSupplies	5	1	[0, 0, 0]	n/a	catFR1	3	R1530J
156.894	0.783	419441	WORD_OFF	n/a	n/a	RULER	OfficeSupplies	5	1	[0, 0, 0]	n/a	catFR1	3	R1530J
157.677	1.617	420218	WORD	n/a	wordpools/wordpool_categorized_EN.txt	TAPE	OfficeSupplies	6	1	[0, 0, 0]	n/a	catFR1	3	R1530J
159.294	0.8	421840	WORD_OFF	n/a	n/a	TAPE	OfficeSupplies	6	1	[0, 0, 0]	n/a	catFR1	3	R1530J
160.094	1.616	422631	WORD	n/a	wordpools/wordpool_categorized_EN.txt	WASHER	Appliances	7	1	[0, 0, 0]	n/a	catFR1	3	R1530J
161.71	0.9	424253	WORD_OFF	n/a	n/a	WASHER	Appliances	7	1	[0, 0, 0]	n/a	catFR1	3	R1530J
162.61	1.617	425152	WORD	n/a	wordpools/wordpool_categorized_EN.txt	DRYER	Appliances	8	1	[0, 0, 0]	n/a	catFR1	3	R1530J
164.227	0.833	426774	WORD_OFF	n/a	n/a	DRYER	Appliances	8	1	[0, 0, 0]	n/a	catFR1	3	R1530J
165.06	1.617	427605	WORD	n/a	wordpools/wordpool_categorized_EN.txt	BATHROOM	Building	9	1	[0, 0, 0]	n/a	catFR1	3	R1530J
166.677	0.883	429213	WORD_OFF	n/a	n/a	BATHROOM	Building	9	1	[0, 0, 0]	n/a	catFR1	3	R1530J
167.56	1.617	430098	WORD	n/a	wordpools/wordpool_categorized_EN.txt	CEILING	Building	10	1	[0, 0, 0]	n/a	catFR1	3	R1530J
169.177	0.917	431720	WORD_OFF	n/a	n/a	CEILING	Building	10	1	[0, 0, 0]	n/a	catFR1	3	R1530J
170.094	1.6	432632	WORD	n/a	wordpools/wordpool_categorized_EN.txt	GLUE	OfficeSupplies	11	1	[0, 0, 0]	n/a	catFR1	3	R1530J
171.694	0.882	434240	WORD_OFF	n/a	n/a	GLUE	OfficeSupplies	11	1	[0, 0, 0]	n/a	catFR1	3	R1530J
172.576	1.601	435112	WORD	n/a	wordpools/wordpool_categorized_EN.txt	PENCIL	OfficeSupplies	12	1	[0, 0, 0]	n/a	catFR1	3	R1530J
174.177	0.001	436714	PROB	0.001	n/a	n/a	n/a	-999	1	[6, 3, 6]	15	catFR1	3	R1530J
174.178	0.0	436715	START	n/a	n/a	n/a	n/a	-999	1	[-999, -999, -999]	n/a	catFR1	3	R1530J
174.177	0.001	436720	WORD_OFF	n/a	n/a	PENCIL	OfficeSupplies	12	1	[0, 0, 0]	n/a	catFR1	3	R1530J
174.178	0.0	436720	ENCODING_END	n/a	n/a	n/a	n/a	-999	1	[0, 0, 0]	n/a	catFR1	3	R1530J
174.178	4.383	436720	DISTRACT_START	n/a	n/a	n/a	n/a	-999	1	[0, 0, 0]	n/a	catFR1	3	R1530J
178.561	4.067	441098	PROB	4.067	n/a	n/a	n/a	-999	1	[7, 4, 4]	15	catFR1	3	R1530J
182.628	4.35	445165	PROB	4.35	n/a	n/a	n/a	-999	1	[3, 6, 7]	16	catFR1	3	R1530J
186.978	3.231	449515	PROB	3.231	n/a	n/a	n/a	-999	1	[8, 6, 6]	20	catFR1	3	R1530J
190.209	3.818	452745	PROB	3.818	n/a	n/a	n/a	-999	1	[1, 6, 7]	14	catFR1	3	R1530J
194.027	3.667	456563	PROB	3.667	n/a	n/a	n/a	-999	1	[8, 3, 6]	17	catFR1	3	R1530J
197.694	0.0	460230	STOP	n/a	n/a	n/a	n/a	-999	1	[-999, -999, -999]	n/a	catFR1	3	R1530J
197.694	1.633	460234	DISTRACT_END	n/a	n/a	n/a	n/a	-999	1	[0, 0, 0]	n/a	catFR1	3	R1530J
199.327	1.64	461869	REC_START	n/a	n/a	n/a	n/a	-999	1	[0, 0, 0]	n/a	catFR1	3	R1530J
200.967	0.72	463503	REC_WORD	0.72	n/a	CEILING	Building	10	1	[0, 0, 0]	n/a	catFR1	3	R1530J
201.687	2.084	464223	REC_WORD	2.084	n/a	ERASER	n/a	-999	1	[0, 0, 0]	n/a	catFR1	3	R1530J
203.771	4.48	466307	REC_WORD	4.48	n/a	TAPE	OfficeSupplies	6	1	[0, 0, 0]	n/a	catFR1	3	R1530J
208.251	0.699	470787	REC_WORD	0.699	n/a	WASHER	Appliances	7	1	[0, 0, 0]	n/a	catFR1	3	R1530J
208.95	1.915	471485	REC_WORD	1.915	n/a	DISHWASHER	Appliances	4	1	[0, 0, 0]	n/a	catFR1	3	R1530J
210.865	0.771	473400	REC_WORD	0.771	n/a	BATHROOM	Building	9	1	[0, 0, 0]	n/a	catFR1	3	R1530J
211.636	5.732	474171	REC_WORD	5.732	n/a	CEILING	Building	10	1	[0, 0, 0]	n/a	catFR1	3	R1530J
217.368	3.373	479903	REC_WORD	3.373	n/a	BATHROOM	Building	9	1	[0, 0, 0]	n/a	catFR1	3	R1530J
220.741	2.633	483276	REC_WORD	2.633	n/a	TAPE	OfficeSupplies	6	1	[0, 0, 0]	n/a	catFR1	3	R1530J
223.374	0.933	485909	REC_WORD	0.933	n/a	CEILING	Building	10	1	[0, 0, 0]	n/a	catFR1	3	R1530J
224.307	2.962	486842	REC_WORD	2.962	n/a	BATHROOM	Building	9	1	[0, 0, 0]	n/a	catFR1	3	R1530J
227.269	1.775	489804	REC_WORD	1.775	n/a	TAPE	OfficeSupplies	6	1	[0, 0, 0]	n/a	catFR1	3	R1530J
229.044	0.483	491578	REC_WORD	0.483	n/a	RULER	OfficeSupplies	5	1	[0, 0, 0]	n/a	catFR1	3	R1530J
229.527	1.984	492071	REC_END	n/a	n/a	n/a	n/a	-999	1	[0, 0, 0]	n/a	catFR1	3	R1530J
231.511	10.349	494055	COUNTDOWN_START	n/a	n/a	n/a	n/a	-999	2	[0, 0, 0]	n/a	catFR1	3	R1530J
241.86	0.001	504404	COUNTDOWN_END	n/a	n/a	n/a	n/a	-999	2	[0, 0, 0]	n/a	catFR1	3	R1530J
241.861	2.133	504404	ENCODING_START	n/a	n/a	n/a	n/a	-999	2	[0, 0, 0]	n/a	catFR1	3	R1530J
243.994	1.6	506536	WORD	n/a	wordpools/wordpool_categorized_EN.txt	POTATO	Vegetables	1	2	[0, 0, 0]	n/a	catFR1	3	R1530J
245.594	1.0	508131	WORD_OFF	n/a	n/a	POTATO	Vegetables	1	2	[0, 0, 0]	n/a	catFR1	3	R1530J
246.594	1.6	509136	WORD	n/a	wordpools/wordpool_categorized_EN.txt	CUCUMBER	Vegetables	2	2	[0, 0, 0]	n/a	catFR1	3	R1530J
248.194	0.949	510732	WORD_OFF	n/a	n/a	CUCUMBER	Vegetables	2	2	[0, 0, 0]	n/a	catFR1	3	R1530J
249.143	1.601	511683	WORD	n/a	wordpools/wordpool_categorized_EN.txt	SKIRT	Clothing	3	2	[0, 0, 0]	n/a	catFR1	3	R1530J
250.744	0.933	513279	WORD_OFF	n/a	n/a	SKIRT	Clothing	3	2	[0, 0, 0]	n/a	catFR1	3	R1530J
251.677	1.617	514217	WORD	n/a	wordpools/wordpool_categorized_EN.txt	BLOUSE	Clothing	4	2	[0, 0, 0]	n/a	catFR1	3	R1530J
253.294	0.85	515826	WORD_OFF	n/a	n/a	BLOUSE	Clothing	4	2	[0, 0, 0]	n/a	catFR1	3	R1530J
254.144	1.616	516684	WORD	n/a	wordpools/wordpool_categorized_EN.txt	RADIO	Electronics	5	2	[0, 0, 0]	n/a	catFR1	3	R1530J
255.76	0.834	518292	WORD_OFF	n/a	n/a	RADIO	Electronics	5	2	[0, 0, 0]	n/a	catFR1	3	R1530J
256.594	1.6	519137	WORD	n/a	wordpools/wordpool_categorized_EN.txt	MICROWAVE	Electronics	6	2	[0, 0, 0]	n/a	catFR1	3	R1530J
258.194	1.0	520732	WORD_OFF	n/a	n/a	MICROWAVE	Electronics	6	2	[0, 0, 0]	n/a	catFR1	3	R1530J
259.194	1.6	521737	WORD	n/a	wordpools/wordpool_categorized_EN.txt	UNDERWEAR	Clothing	7	2	[0, 0, 0]	n/a	catFR1	3	R1530J
260.794	0.8	523333	WORD_OFF	n/a	n/a	UNDERWEAR	Clothing	7	2	[0, 0, 0]	n/a	catFR1	3	R1530J
261.594	1.6	524137	WORD	n/a	wordpools/wordpool_categorized_EN.txt	SHOES	Clothing	8	2	[0, 0, 0]	n/a	catFR1	3	R1530J
263.194	0.9	525732	WORD_OFF	n/a	n/a	SHOES	Clothing	8	2	[0, 0, 0]	n/a	catFR1	3	R1530J
264.094	1.616	526630	WORD	n/a	wordpools/wordpool_categorized_EN.txt	CAULIFLOWER	Vegetables	9	2	[0, 0, 0]	n/a	catFR1	3	R1530J
265.71	0.984	528252	WORD_OFF	n/a	n/a	CAULIFLOWER	Vegetables	9	2	[0, 0, 0]	n/a	catFR1	3	R1530J
266.694	1.6	529231	WORD	n/a	wordpools/wordpool_categorized_EN.txt	CORN	Vegetables	10	2	[0, 0, 0]	n/a	catFR1	3	R1530J
268.294	0.8	530826	WORD_OFF	n/a	n/a	CORN	Vegetables	10	2	[0, 0, 0]	n/a	catFR1	3	R1530J
269.094	1.615	531631	WORD	n/a	wordpools/wordpool_categorized_EN.txt	SPEAKER	Electronics	11	2	[0, 0, 0]	n/a	catFR1	3	R1530J
270.709	0.885	533239	WORD_OFF	n/a	n/a	SPEAKER	Electronics	11	2	[0, 0, 0]	n/a	catFR1	3	R1530J
271.594	1.6	534124	WORD	n/a	wordpools/wordpool_categorized_EN.txt	STEREO	Electronics	12	2	[0, 0, 0]	n/a	catFR1	3	R1530J
273.194	0.001	535726	PROB	0.001	n/a	n/a	n/a	-999	2	[3, 2, 7]	12	catFR1	3	R1530J
273.195	0.0	535727	START	n/a	n/a	n/a	n/a	-999	2	[-999, -999, -999]	n/a	catFR1	3	R1530J
273.194	0.001	535733	WORD_OFF	n/a	n/a	STEREO	Electronics	12	2	[0, 0, 0]	n/a	catFR1	3	R1530J
273.195	0.0	535733	ENCODING_END	n/a	n/a	n/a	n/a	-999	2	[0, 0, 0]	n/a	catFR1	3	R1530J
273.195	3.666	535733	DISTRACT_START	n/a	n/a	n/a	n/a	-999	2	[0, 0, 0]	n/a	catFR1	3	R1530J
276.861	4.349	539393	PROB	4.349	n/a	n/a	n/a	-999	2	[1, 3, 2]	6	catFR1	3	R1530J
281.21	2.951	543742	PROB	2.951	n/a	n/a	n/a	-999	2	[2, 7, 4]	13	catFR1	3	R1530J
284.161	5.049	546692	PROB	5.049	n/a	n/a	n/a	-999	2	[1, 8, 5]	14	catFR1	3	R1530J
289.21	3.385	551741	PROB	3.385	n/a	n/a	n/a	-999	2	[4, 6, 3]	13	catFR1	3	R1530J
292.595	2.114	555126	PROB	2.114	n/a	n/a	n/a	-999	2	[1, 2, 8]	11	catFR1	3	R1530J
294.709	0.0	557240	STOP	n/a	n/a	n/a	n/a	-999	2	[-999, -999, -999]	n/a	catFR1	3	R1530J
294.709	1.818	557248	DISTRACT_END	n/a	n/a	n/a	n/a	-999	2	[0, 0, 0]	n/a	catFR1	3	R1530J
296.527	0.592	559058	REC_START	n/a	n/a	n/a	n/a	-999	2	[0, 0, 0]	n/a	catFR1	3	R1530J
297.119	0.679	559650	REC_WORD	0.679	n/a	RADIO	Electronics	5	2	[0, 0, 0]	n/a	catFR1	3	R1530J
297.798	0.809	560329	REC_WORD	0.809	n/a	MICROWAVE	Electronics	6	2	[0, 0, 0]	n/a	catFR1	3	R1530J
298.607	1.0	561138	REC_WORD	1.0	n/a	STEREO	Electronics	12	2	[0, 0, 0]	n/a	catFR1	3	R1530J
299.607	1.495	562138	REC_WORD_VV	1.495	n/a	<>	n/a	-999	2	[0, 0, 0]	n/a	catFR1	3	R1530J
301.102	2.736	563633	REC_WORD	2.736	n/a	SPEAKER	Electronics	11	2	[0, 0, 0]	n/a	catFR1	3	R1530J
303.838	1.828	566368	REC_WORD_VV	1.828	n/a	<>	n/a	-999	2	[0, 0, 0]	n/a	catFR1	3	R1530J
305.666	0.847	568196	REC_WORD	0.847	n/a	BLOUSE	Clothing	4	2	[0, 0, 0]	n/a	catFR1	3	R1530J
306.513	3.148	569043	REC_WORD	3.148	n/a	SHIRT	n/a	-999	2	[0, 0, 0]	n/a	catFR1	3	R1530J
309.661	0.943	572191	REC_WORD_VV	0.943	n/a	<>	n/a	-999	2	[0, 0, 0]	n/a	catFR1	3	R1530J
310.604	1.821	573134	REC_WORD_VV	1.821	n/a	<>	n/a	-999	2	[0, 0, 0]	n/a	catFR1	3	R1530J
312.425	4.997	574955	REC_WORD	4.997	n/a	FOUNDATION	Building	-999	2	[0, 0, 0]	n/a	catFR1	3	R1530J
317.422	0.708	579952	REC_WORD	0.708	n/a	POTATO	Vegetables	1	2	[0, 0, 0]	n/a	catFR1	3	R1530J
318.13	8.619	580660	REC_WORD	8.619	n/a	CUCUMBER	Vegetables	2	2	[0, 0, 0]	n/a	catFR1	3	R1530J
326.749	1.145	589287	REC_END	n/a	n/a	n/a	n/a	-999	2	[0, 0, 0]	n/a	catFR1	3	R1530J
327.894	10.35	590427	COUNTDOWN_START	n/a	n/a	n/a	n/a	-999	3	[0, 0, 0]	n/a	catFR1	3	R1530J
338.244	0.0	600776	COUNTDOWN_END	n/a	n/a	n/a	n/a	-999	3	[0, 0, 0]	n/a	catFR1	3	R1530J
338.244	2.317	600776	ENCODING_START	n/a	n/a	n/a	n/a	-999	3	[0, 0, 0]	n/a	catFR1	3	R1530J
340.561	1.616	603095	WORD	n/a	wordpools/wordpool_categorized_EN.txt	FINGERS	BodyParts	1	3	[0, 0, 0]	n/a	catFR1	3	R1530J
342.177	0.95	604703	WORD_OFF	n/a	n/a	FINGERS	BodyParts	1	3	[0, 0, 0]	n/a	catFR1	3	R1530J
343.127	1.617	605655	WORD	n/a	wordpools/wordpool_categorized_EN.txt	TOE	BodyParts	2	3	[0, 0, 0]	n/a	catFR1	3	R1530J
344.744	0.917	607277	WORD_OFF	n/a	n/a	TOE	BodyParts	2	3	[0, 0, 0]	n/a	catFR1	3	R1530J
345.661	1.617	608189	WORD	n/a	wordpools/wordpool_categorized_EN.txt	CRAB	OceanAnimals	3	3	[0, 0, 0]	n/a	catFR1	3	R1530J
347.278	0.866	609811	WORD_OFF	n/a	n/a	CRAB	OceanAnimals	3	3	[0, 0, 0]	n/a	catFR1	3	R1530J
348.144	1.617	610682	WORD	n/a	wordpools/wordpool_categorized_EN.txt	WHALE	OceanAnimals	4	3	[0, 0, 0]	n/a	catFR1	3	R1530J
349.761	0.865	612291	WORD_OFF	n/a	n/a	WHALE	OceanAnimals	4	3	[0, 0, 0]	n/a	catFR1	3	R1530J
350.626	1.6	613162	WORD	n/a	wordpools/wordpool_categorized_EN.txt	APPLE	Fruit	5	3	[0, 0, 0]	n/a	catFR1	3	R1530J
352.226	0.935	614757	WORD_OFF	n/a	n/a	APPLE	Fruit	5	3	[0, 0, 0]	n/a	catFR1	3	R1530J
353.161	1.599	615696	WORD	n/a	wordpools/wordpool_categorized_EN.txt	PEACH	Fruit	6	3	[0, 0, 0]	n/a	catFR1	3	R1530J
354.76	0.951	617291	WORD_OFF	n/a	n/a	PEACH	Fruit	6	3	[0, 0, 0]	n/a	catFR1	3	R1530J
355.711	1.616	618243	WORD	n/a	wordpools/wordpool_categorized_EN.txt	NOSE	BodyParts	7	3	[0, 0, 0]	n/a	catFR1	3	R1530J
357.327	0.998	619865	WORD_OFF	n/a	n/a	NOSE	BodyParts	7	3	[0, 0, 0]	n/a	catFR1	3	R1530J
358.325	1.602	620857	WORD	n/a	wordpools/wordpool_categorized_EN.txt	EAR	BodyParts	8	3	[0, 0, 0]	n/a	catFR1	3	R1530J
359.927	1.0	622466	WORD_OFF	n/a	n/a	EAR	BodyParts	8	3	[0, 0, 0]	n/a	catFR1	3	R1530J
360.927	1.614	623458	WORD	n/a	wordpools/wordpool_categorized_EN.txt	ORANGE	Fruit	9	3	[0, 0, 0]	n/a	catFR1	3	R1530J
362.541	0.902	625066	WORD_OFF	n/a	n/a	ORANGE	Fruit	9	3	[0, 0, 0]	n/a	catFR1	3	R1530J
363.443	1.617	625978	WORD	n/a	wordpools/wordpool_categorized_EN.txt	CHERRY	Fruit	10	3	[0, 0, 0]	n/a	catFR1	3	R1530J
365.06	0.948	627586	WORD_OFF	n/a	n/a	CHERRY	Fruit	10	3	[0, 0, 0]	n/a	catFR1	3	R1530J
366.008	1.602	628538	WORD	n/a	wordpools/wordpool_categorized_EN.txt	OCTOPUS	OceanAnimals	11	3	[0, 0, 0]	n/a	catFR1	3	R1530J
367.61	0.917	630147	WORD_OFF	n/a	n/a	OCTOPUS	OceanAnimals	11	3	[0, 0, 0]	n/a	catFR1	3	R1530J
368.527	1.6	631058	WORD	n/a	wordpools/wordpool_categorized_EN.txt	PLANKTON	OceanAnimals	12	3	[0, 0, 0]	n/a	catFR1	3	R1530J
370.127	0.002	632654	WORD_OFF	n/a	n/a	PLANKTON	OceanAnimals	12	3	[0, 0, 0]	n/a	catFR1	3	R1530J
370.129	0.0	632654	ENCODING_END	n/a	n/a	n/a	n/a	-999	3	[0, 0, 0]	n/a	catFR1	3	R1530J
370.128	0.001	632655	PROB	0.001	n/a	n/a	n/a	-999	3	[6, 7, 8]	20	catFR1	3	R1530J
370.129	0.0	632656	START	n/a	n/a	n/a	n/a	-999	3	[-999, -999, -999]	n/a	catFR1	3	R1530J
370.129	7.231	632667	DISTRACT_START	n/a	n/a	n/a	n/a	-999	3	[0, 0, 0]	n/a	catFR1	3	R1530J
377.36	2.817	639887	PROB	2.817	n/a	n/a	n/a	-999	3	[4, 7, 3]	14	catFR1	3	R1530J
380.177	4.333	642703	PROB	4.333	n/a	n/a	n/a	-999	3	[8, 1, 5]	13	catFR1	3	R1530J
384.51	3.017	647036	PROB	3.017	n/a	n/a	n/a	-999	3	[6, 5, 3]	14	catFR1	3	R1530J
387.527	3.067	650053	PROB	3.067	n/a	n/a	n/a	-999	3	[4, 3, 8]	15	catFR1	3	R1530J
390.594	0.0	653120	STOP	n/a	n/a	n/a	n/a	-999	3	[-999, -999, -999]	n/a	catFR1	3	R1530J
390.594	1.848	653124	DISTRACT_END	n/a	n/a	n/a	n/a	-999	3	[0, 0, 0]	n/a	catFR1	3	R1530J
392.442	0.717	654974	REC_START	n/a	n/a	n/a	n/a	-999	3	[0, 0, 0]	n/a	catFR1	3	R1530J
393.159	1.0	655685	REC_WORD	1.0	n/a	OCTOPUS	OceanAnimals	11	3	[0, 0, 0]	n/a	catFR1	3	R1530J
394.159	0.762	656685	REC_WORD_VV	0.762	n/a	<>	n/a	-999	3	[0, 0, 0]	n/a	catFR1	3	R1530J
394.921	1.044	657447	REC_WORD	1.044	n/a	WHALE	OceanAnimals	4	3	[0, 0, 0]	n/a	catFR1	3	R1530J
395.965	1.05	658491	REC_WORD	1.05	n/a	PLANKTON	OceanAnimals	12	3	[0, 0, 0]	n/a	catFR1	3	R1530J
397.015	0.691	659540	REC_WORD	0.691	n/a	CHERRY	Fruit	10	3	[0, 0, 0]	n/a	catFR1	3	R1530J
397.706	1.799	660231	REC_WORD	1.799	n/a	APPLE	Fruit	5	3	[0, 0, 0]	n/a	catFR1	3	R1530J
399.505	9.002	662030	REC_WORD	9.002	n/a	ORANGE	Fruit	9	3	[0, 0, 0]	n/a	catFR1	3	R1530J
408.507	2.432	671032	REC_WORD	2.432	n/a	PEACH	Fruit	6	3	[0, 0, 0]	n/a	catFR1	3	R1530J
410.939	0.681	673464	REC_WORD	0.681	n/a	FINGERS	BodyParts	1	3	[0, 0, 0]	n/a	catFR1	3	R1530J
411.62	11.026	674145	REC_WORD	11.026	n/a	TOE	BodyParts	2	3	[0, 0, 0]	n/a	catFR1	3	R1530J
422.646	1.348	685176	REC_END	n/a	n/a	n/a	n/a	-999	3	[0, 0, 0]	n/a	catFR1	3	R1530J
423.994	10.349	686530	COUNTDOWN_START	n/a	n/a	n/a	n/a	-999	4	[0, 0, 0]	n/a	catFR1	3	R1530J
434.343	0.0	696866	COUNTDOWN_END	n/a	n/a	n/a	n/a	-999	4	[0, 0, 0]	n/a	catFR1	3	R1530J
434.343	2.251	696866	ENCODING_START	n/a	n/a	n/a	n/a	-999	4	[0, 0, 0]	n/a	catFR1	3	R1530J
436.594	1.6	699118	WORD	n/a	wordpools/wordpool_categorized_EN.txt	COLA	Beverages	1	4	[0, 0, 0]	n/a	catFR1	3	R1530J
438.194	0.9	700726	WORD_OFF	n/a	n/a	COLA	Beverages	1	4	[0, 0, 0]	n/a	catFR1	3	R1530J
439.094	1.617	701624	WORD	n/a	wordpools/wordpool_categorized_EN.txt	TEA	Beverages	2	4	[0, 0, 0]	n/a	catFR1	3	R1530J
440.711	0.801	703233	WORD_OFF	n/a	n/a	TEA	Beverages	2	4	[0, 0, 0]	n/a	catFR1	3	R1530J
441.512	1.598	704037	WORD	n/a	wordpools/wordpool_categorized_EN.txt	EVERGREEN	Trees	3	4	[0, 0, 0]	n/a	catFR1	3	R1530J
443.11	0.95	705633	WORD_OFF	n/a	n/a	EVERGREEN	Trees	3	4	[0, 0, 0]	n/a	catFR1	3	R1530J
444.06	1.601	706584	WORD	n/a	wordpools/wordpool_categorized_EN.txt	SPRUCE	Trees	4	4	[0, 0, 0]	n/a	catFR1	3	R1530J
445.661	0.933	708193	WORD_OFF	n/a	n/a	SPRUCE	Trees	4	4	[0, 0, 0]	n/a	catFR1	3	R1530J
446.594	1.616	709118	WORD	n/a	wordpools/wordpool_categorized_EN.txt	WIND	Weather	5	4	[0, 0, 0]	n/a	catFR1	3	R1530J
448.21	1.0	710740	WORD_OFF	n/a	n/a	WIND	Weather	5	4	[0, 0, 0]	n/a	catFR1	3	R1530J
449.21	1.6	711732	WORD	n/a	wordpools/wordpool_categorized_EN.txt	HUMIDITY	Weather	6	4	[0, 0, 0]	n/a	catFR1	3	R1530J
450.81	0.866	713341	WORD_OFF	n/a	n/a	HUMIDITY	Weather	6	4	[0, 0, 0]	n/a	catFR1	3	R1530J
451.676	1.6	714199	WORD	n/a	wordpools/wordpool_categorized_EN.txt	BIRCH	Trees	7	4	[0, 0, 0]	n/a	catFR1	3	R1530J
453.276	0.9	715807	WORD_OFF	n/a	n/a	BIRCH	Trees	7	4	[0, 0, 0]	n/a	catFR1	3	R1530J
454.176	1.601	716706	WORD	n/a	wordpools/wordpool_categorized_EN.txt	WALNUT	Trees	8	4	[0, 0, 0]	n/a	catFR1	3	R1530J
455.777	0.783	718301	WORD_OFF	n/a	n/a	WALNUT	Trees	8	4	[0, 0, 0]	n/a	catFR1	3	R1530J
456.56	1.601	719092	WORD	n/a	wordpools/wordpool_categorized_EN.txt	DRIZZLE	Weather	9	4	[0, 0, 0]	n/a	catFR1	3	R1530J
458.161	0.933	720687	WORD_OFF	n/a	n/a	DRIZZLE	Weather	9	4	[0, 0, 0]	n/a	catFR1	3	R1530J
459.094	1.615	721625	WORD	n/a	wordpools/wordpool_categorized_EN.txt	THUNDERSTORM	Weather	10	4	[0, 0, 0]	n/a	catFR1	3	R1530J
460.709	1.001	723234	WORD_OFF	n/a	n/a	THUNDERSTORM	Weather	10	4	[0, 0, 0]	n/a	catFR1	3	R1530J
461.71	1.617	724239	WORD	n/a	wordpools/wordpool_categorized_EN.txt	RUM	Beverages	11	4	[0, 0, 0]	n/a	catFR1	3	R1530J
463.327	0.832	725848	WORD_OFF	n/a	n/a	RUM	Beverages	11	4	[0, 0, 0]	n/a	catFR1	3	R1530J
464.159	1.601	726679	WORD	n/a	wordpools/wordpool_categorized_EN.txt	WINE	Beverages	12	4	[0, 0, 0]	n/a	catFR1	3	R1530J
465.76	0.002	728282	PROB	0.002	n/a	n/a	n/a	-999	4	[8, 6, 3]	15	catFR1	3	R1530J
465.762	0.0	728284	START	n/a	n/a	n/a	n/a	-999	4	[-999, -999, -999]	n/a	catFR1	3	R1530J
465.76	0.002	728288	WORD_OFF	n/a	n/a	WINE	Beverages	12	4	[0, 0, 0]	n/a	catFR1	3	R1530J
465.762	0.0	728288	ENCODING_END	n/a	n/a	n/a	n/a	-999	4	[0, 0, 0]	n/a	catFR1	3	R1530J
465.762	4.215	728288	DISTRACT_START	n/a	n/a	n/a	n/a	-999	4	[0, 0, 0]	n/a	catFR1	3	R1530J
469.977	2.567	732499	PROB	2.567	n/a	n/a	n/a	-999	4	[8, 3, 7]	18	catFR1	3	R1530J
472.544	4.566	735065	PROB	4.566	n/a	n/a	n/a	-999	4	[3, 6, 2]	11	catFR1	3	R1530J
477.11	2.433	739631	PROB	2.433	n/a	n/a	n/a	-999	4	[1, 2, 4]	7	catFR1	3	R1530J
479.543	2.7	742064	PROB	2.7	n/a	n/a	n/a	-999	4	[5, 2, 1]	8	catFR1	3	R1530J
482.243	2.583	744764	PROB	2.583	n/a	n/a	n/a	-999	4	[5, 2, 2]	9	catFR1	3	R1530J
484.826	3.668	747347	PROB	3.668	n/a	n/a	n/a	-999	4	[7, 2, 5]	14	catFR1	3	R1530J
488.494	0.0	751015	STOP	n/a	n/a	n/a	n/a	-999	4	[-999, -999, -999]	n/a	catFR1	3	R1530J
488.494	1.782	751023	DISTRACT_END	n/a	n/a	n/a	n/a	-999	4	[0, 0, 0]	n/a	catFR1	3	R1530J
490.276	1.106	752806	REC_START	n/a	n/a	n/a	n/a	-999	4	[0, 0, 0]	n/a	catFR1	3	R1530J
491.382	1.0	753902	REC_WORD	1.0	n/a	THUNDERSTORM	Weather	10	4	[0, 0, 0]	n/a	catFR1	3	R1530J
492.382	0.723	754902	REC_WORD_VV	0.723	n/a	<>	n/a	-999	4	[0, 0, 0]	n/a	catFR1	3	R1530J
493.105	1.341	755625	REC_WORD	1.341	n/a	WIND	Weather	5	4	[0, 0, 0]	n/a	catFR1	3	R1530J
494.446	3.415	756966	REC_WORD	3.415	n/a	DRIZZLE	Weather	9	4	[0, 0, 0]	n/a	catFR1	3	R1530J
497.861	1.0	760381	REC_WORD	1.0	n/a	SPRUCE	Trees	4	4	[0, 0, 0]	n/a	catFR1	3	R1530J
498.861	0.99	761381	REC_WORD_VV	0.99	n/a	<>	n/a	-999	4	[0, 0, 0]	n/a	catFR1	3	R1530J
499.851	3.863	762371	REC_WORD	3.863	n/a	EVERGREEN	Trees	3	4	[0, 0, 0]	n/a	catFR1	3	R1530J
503.714	2.755	766234	REC_WORD	2.755	n/a	HICKORY	n/a	-999	4	[0, 0, 0]	n/a	catFR1	3	R1530J
506.469	1.053	768989	REC_WORD_VV	1.053	n/a	<>	n/a	-999	4	[0, 0, 0]	n/a	catFR1	3	R1530J
507.522	1.878	770042	REC_WORD_VV	1.878	n/a	<>	n/a	-999	4	[0, 0, 0]	n/a	catFR1	3	R1530J
509.4	0.53	771919	REC_WORD	0.53	n/a	SPRUCE	Trees	4	4	[0, 0, 0]	n/a	catFR1	3	R1530J
509.93	0.991	772449	REC_WORD	0.991	n/a	HICKORY	n/a	-999	4	[0, 0, 0]	n/a	catFR1	3	R1530J
510.921	0.815	773440	REC_WORD	0.815	n/a	THUNDERSTORM	Weather	10	4	[0, 0, 0]	n/a	catFR1	3	R1530J
511.736	1.185	774255	REC_WORD	1.185	n/a	DRIZZLE	Weather	9	4	[0, 0, 0]	n/a	catFR1	3	R1530J
512.921	4.375	775440	REC_WORD	4.375	n/a	HUMIDITY	Weather	6	4	[0, 0, 0]	n/a	catFR1	3	R1530J
517.296	1.097	779815	REC_WORD	1.097	n/a	DRIZZLE	Weather	9	4	[0, 0, 0]	n/a	catFR1	3	R1530J
518.393	2.089	780912	REC_WORD	2.089	n/a	HUMIDITY	Weather	6	4	[0, 0, 0]	n/a	catFR1	3	R1530J
520.482	1.695	783009	REC_END	n/a	n/a	n/a	n/a	-999	4	[0, 0, 0]	n/a	catFR1	3	R1530J
522.177	10.349	784698	COUNTDOWN_START	n/a	n/a	n/a	n/a	-999	5	[0, 0, 0]	n/a	catFR1	3	R1530J
532.526	0.001	795047	COUNTDOWN_END	n/a	n/a	n/a	n/a	-999	5	[0, 0, 0]	n/a	catFR1	3	R1530J
532.527	1.95	795047	ENCODING_START	n/a	n/a	n/a	n/a	-999	5	[0, 0, 0]	n/a	catFR1	3	R1530J
534.477	1.617	797004	WORD	n/a	wordpools/wordpool_categorized_EN.txt	BIKE	Vehicles	1	5	[0, 0, 0]	n/a	catFR1	3	R1530J
536.094	0.797	798612	WORD_OFF	n/a	n/a	BIKE	Vehicles	1	5	[0, 0, 0]	n/a	catFR1	3	R1530J
536.891	1.603	799417	WORD	n/a	wordpools/wordpool_categorized_EN.txt	CAR	Vehicles	2	5	[0, 0, 0]	n/a	catFR1	3	R1530J
538.494	0.983	801012	WORD_OFF	n/a	n/a	CAR	Vehicles	2	5	[0, 0, 0]	n/a	catFR1	3	R1530J
539.477	1.6	802004	WORD	n/a	wordpools/wordpool_categorized_EN.txt	WOOL	Fabric	3	5	[0, 0, 0]	n/a	catFR1	3	R1530J
541.077	1.0	803599	WORD_OFF	n/a	n/a	WOOL	Fabric	3	5	[0, 0, 0]	n/a	catFR1	3	R1530J
542.077	1.617	804605	WORD	n/a	wordpools/wordpool_categorized_EN.txt	FLEECE	Fabric	4	5	[0, 0, 0]	n/a	catFR1	3	R1530J
543.694	0.866	806213	WORD_OFF	n/a	n/a	FLEECE	Fabric	4	5	[0, 0, 0]	n/a	catFR1	3	R1530J
544.56	1.617	807085	WORD	n/a	wordpools/wordpool_categorized_EN.txt	JUICE	Beverages	5	5	[0, 0, 0]	n/a	catFR1	3	R1530J
546.177	1.0	808697	WORD_OFF	n/a	n/a	JUICE	Beverages	5	5	[0, 0, 0]	n/a	catFR1	3	R1530J
547.177	1.617	809699	WORD	n/a	wordpools/wordpool_categorized_EN.txt	SODA	Beverages	6	5	[0, 0, 0]	n/a	catFR1	3	R1530J
548.794	0.883	811321	WORD_OFF	n/a	n/a	SODA	Beverages	6	5	[0, 0, 0]	n/a	catFR1	3	R1530J
549.677	1.617	812206	WORD	n/a	wordpools/wordpool_categorized_EN.txt	VAN	Vehicles	7	5	[0, 0, 0]	n/a	catFR1	3	R1530J
551.294	0.867	813814	WORD_OFF	n/a	n/a	VAN	Vehicles	7	5	[0, 0, 0]	n/a	catFR1	3	R1530J
552.161	1.6	814686	WORD	n/a	wordpools/wordpool_categorized_EN.txt	JEEP	Vehicles	8	5	[0, 0, 0]	n/a	catFR1	3	R1530J
553.761	0.915	816281	WORD_OFF	n/a	n/a	JEEP	Vehicles	8	5	[0, 0, 0]	n/a	catFR1	3	R1530J
554.676	1.601	817192	WORD	n/a	wordpools/wordpool_categorized_EN.txt	DENIM	Fabric	9	5	[0, 0, 0]	n/a	catFR1	3	R1530J
556.277	0.832	818801	WORD_OFF	n/a	n/a	DENIM	Fabric	9	5	[0, 0, 0]	n/a	catFR1	3	R1530J
557.109	1.601	819632	WORD	n/a	wordpools/wordpool_categorized_EN.txt	SILK	Fabric	10	5	[0, 0, 0]	n/a	catFR1	3	R1530J
558.71	0.85	821227	WORD_OFF	n/a	n/a	SILK	Fabric	10	5	[0, 0, 0]	n/a	catFR1	3	R1530J
559.56	1.616	822085	WORD	n/a	wordpools/wordpool_categorized_EN.txt	COFFEE	Beverages	11	5	[0, 0, 0]	n/a	catFR1	3	R1530J
561.176	1.0	823694	WORD_OFF	n/a	n/a	COFFEE	Beverages	11	5	[0, 0, 0]	n/a	catFR1	3	R1530J
562.176	1.618	824699	WORD	n/a	wordpools/wordpool_categorized_EN.txt	WATER	Beverages	12	5	[0, 0, 0]	n/a	catFR1	3	R1530J
563.794	0.001	826311	PROB	0.001	n/a	n/a	n/a	-999	5	[3, 5, 3]	11	catFR1	3	R1530J
563.795	0.0	826312	START	n/a	n/a	n/a	n/a	-999	5	[-999, -999, -999]	n/a	catFR1	3	R1530J
563.794	0.001	826321	WORD_OFF	n/a	n/a	WATER	Beverages	12	5	[0, 0, 0]	n/a	catFR1	3	R1530J
563.795	0.0	826321	ENCODING_END	n/a	n/a	n/a	n/a	-999	5	[0, 0, 0]	n/a	catFR1	3	R1530J
563.795	3.516	826321	DISTRACT_START	n/a	n/a	n/a	n/a	-999	5	[0, 0, 0]	n/a	catFR1	3	R1530J
567.311	3.3	829827	PROB	3.3	n/a	n/a	n/a	-999	5	[5, 8, 3]	16	catFR1	3	R1530J
570.611	3.732	833127	PROB	3.732	n/a	n/a	n/a	-999	5	[3, 2, 1]	6	catFR1	3	R1530J
574.343	3.501	836859	PROB	3.501	n/a	n/a	n/a	-999	5	[6, 7, 2]	15	catFR1	3	R1530J
577.844	2.783	840360	PROB	2.783	n/a	n/a	n/a	-999	5	[3, 1, 8]	12	catFR1	3	R1530J
580.627	2.833	843143	PROB	2.833	n/a	n/a	n/a	-999	5	[3, 5, 2]	10	catFR1	3	R1530J
583.46	3.134	845976	PROB	3.134	n/a	n/a	n/a	-999	5	[3, 8, 5]	16	catFR1	3	R1530J
586.594	0.0	849109	STOP	n/a	n/a	n/a	n/a	-999	5	[-999, -999, -999]	n/a	catFR1	3	R1530J
586.594	1.582	849111	DISTRACT_END	n/a	n/a	n/a	n/a	-999	5	[0, 0, 0]	n/a	catFR1	3	R1530J
588.176	0.707	850692	REC_START	n/a	n/a	n/a	n/a	-999	5	[0, 0, 0]	n/a	catFR1	3	R1530J
588.883	0.765	851398	REC_WORD	0.765	n/a	DENIM	Fabric	9	5	[0, 0, 0]	n/a	catFR1	3	R1530J
589.648	1.497	852163	REC_WORD	1.497	n/a	WOOL	Fabric	3	5	[0, 0, 0]	n/a	catFR1	3	R1530J
591.145	2.729	853660	REC_WORD	2.729	n/a	SILK	Fabric	10	5	[0, 0, 0]	n/a	catFR1	3	R1530J
593.874	0.546	856389	REC_WORD	0.546	n/a	DENIM	Fabric	9	5	[0, 0, 0]	n/a	catFR1	3	R1530J
594.42	0.506	856935	REC_WORD	0.506	n/a	WOOL	Fabric	3	5	[0, 0, 0]	n/a	catFR1	3	R1530J
594.926	1.0	857441	REC_WORD	1.0	n/a	SILK	Fabric	10	5	[0, 0, 0]	n/a	catFR1	3	R1530J
595.926	6.957	858441	REC_WORD_VV	6.957	n/a	<>	n/a	-999	5	[0, 0, 0]	n/a	catFR1	3	R1530J
602.883	2.926	865398	REC_WORD	2.926	n/a	BIKE	Vehicles	1	5	[0, 0, 0]	n/a	catFR1	3	R1530J
605.809	9.078	868323	REC_WORD	9.078	n/a	VAN	Vehicles	7	5	[0, 0, 0]	n/a	catFR1	3	R1530J
614.887	0.771	877401	REC_WORD	0.771	n/a	EVERGREEN	Trees	-999	5	[0, 0, 0]	n/a	catFR1	3	R1530J
615.658	0.46	878172	REC_WORD_VV	0.46	n/a	<>	n/a	-999	5	[0, 0, 0]	n/a	catFR1	3	R1530J
616.118	2.278	878632	REC_WORD	2.278	n/a	EVERGREEN	Trees	-999	5	[0, 0, 0]	n/a	catFR1	3	R1530J
618.396	1.164	880908	REC_END	n/a	n/a	n/a	n/a	-999	5	[0, 0, 0]	n/a	catFR1	3	R1530J
619.56	10.351	882074	COUNTDOWN_START	n/a	n/a	n/a	n/a	-999	6	[0, 0, 0]	n/a	catFR1	3	R1530J
629.911	0.0	892423	COUNTDOWN_END	n/a	n/a	n/a	n/a	-999	6	[0, 0, 0]	n/a	catFR1	3	R1530J
629.911	1.866	892437	ENCODING_START	n/a	n/a	n/a	n/a	-999	6	[0, 0, 0]	n/a	catFR1	3	R1530J
631.777	1.6	894300	WORD	n/a	wordpools/wordpool_categorized_EN.txt	HALLWAY	Building	1	6	[0, 0, 0]	n/a	catFR1	3	R1530J
633.377	0.883	895895	WORD_OFF	n/a	n/a	HALLWAY	Building	1	6	[0, 0, 0]	n/a	catFR1	3	R1530J
634.26	1.601	896780	WORD	n/a	wordpools/wordpool_categorized_EN.txt	WALL	Building	2	6	[0, 0, 0]	n/a	catFR1	3	R1530J
635.861	0.832	898375	WORD_OFF	n/a	n/a	WALL	Building	2	6	[0, 0, 0]	n/a	catFR1	3	R1530J
636.693	1.601	899207	WORD	n/a	wordpools/wordpool_categorized_EN.txt	COBBLER	Desserts	3	6	[0, 0, 0]	n/a	catFR1	3	R1530J
638.294	0.917	900815	WORD_OFF	n/a	n/a	COBBLER	Desserts	3	6	[0, 0, 0]	n/a	catFR1	3	R1530J
639.211	1.599	901727	WORD	n/a	wordpools/wordpool_categorized_EN.txt	JELLO	Desserts	4	6	[0, 0, 0]	n/a	catFR1	3	R1530J
640.81	0.917	903322	WORD_OFF	n/a	n/a	JELLO	Desserts	4	6	[0, 0, 0]	n/a	catFR1	3	R1530J
641.727	1.6	904247	WORD	n/a	wordpools/wordpool_categorized_EN.txt	CYPRESS	Trees	5	6	[0, 0, 0]	n/a	catFR1	3	R1530J
643.327	0.934	905842	WORD_OFF	n/a	n/a	CYPRESS	Trees	5	6	[0, 0, 0]	n/a	catFR1	3	R1530J
644.261	1.615	906781	WORD	n/a	wordpools/wordpool_categorized_EN.txt	OAK	Trees	6	6	[0, 0, 0]	n/a	catFR1	3	R1530J
645.876	1.001	908389	WORD_OFF	n/a	n/a	OAK	Trees	6	6	[0, 0, 0]	n/a	catFR1	3	R1530J
646.877	1.6	909395	WORD	n/a	wordpools/wordpool_categorized_EN.txt	PASTRY	Desserts	7	6	[0, 0, 0]	n/a	catFR1	3	R1530J
648.477	1.0	910990	WORD_OFF	n/a	n/a	PASTRY	Desserts	7	6	[0, 0, 0]	n/a	catFR1	3	R1530J
649.477	1.6	911995	WORD	n/a	wordpools/wordpool_categorized_EN.txt	FUDGE	Desserts	8	6	[0, 0, 0]	n/a	catFR1	3	R1530J
651.077	0.917	913590	WORD_OFF	n/a	n/a	FUDGE	Desserts	8	6	[0, 0, 0]	n/a	catFR1	3	R1530J
651.994	1.6	914515	WORD	n/a	wordpools/wordpool_categorized_EN.txt	STAIRS	Building	9	6	[0, 0, 0]	n/a	catFR1	3	R1530J
653.594	0.983	916111	WORD_OFF	n/a	n/a	STAIRS	Building	9	6	[0, 0, 0]	n/a	catFR1	3	R1530J
654.577	1.617	917089	WORD	n/a	wordpools/wordpool_categorized_EN.txt	FLOOR	Building	10	6	[0, 0, 0]	n/a	catFR1	3	R1530J
656.194	0.882	918711	WORD_OFF	n/a	n/a	FLOOR	Building	10	6	[0, 0, 0]	n/a	catFR1	3	R1530J
657.076	1.6	919596	WORD	n/a	wordpools/wordpool_categorized_EN.txt	HICKORY	Trees	11	6	[0, 0, 0]	n/a	catFR1	3	R1530J
658.676	0.851	921191	WORD_OFF	n/a	n/a	HICKORY	Trees	11	6	[0, 0, 0]	n/a	catFR1	3	R1530J
659.527	1.616	922049	WORD	n/a	wordpools/wordpool_categorized_EN.txt	CEDAR	Trees	12	6	[0, 0, 0]	n/a	catFR1	3	R1530J
661.143	0.001	923654	PROB	0.001	n/a	n/a	n/a	-999	6	[5, 1, 4]	10	catFR1	3	R1530J
661.144	0.0	923655	START	n/a	n/a	n/a	n/a	-999	6	[-999, -999, -999]	n/a	catFR1	3	R1530J
661.143	0.001	923658	WORD_OFF	n/a	n/a	CEDAR	Trees	12	6	[0, 0, 0]	n/a	catFR1	3	R1530J
661.144	0.0	923658	ENCODING_END	n/a	n/a	n/a	n/a	-999	6	[0, 0, 0]	n/a	catFR1	3	R1530J
661.144	3.717	923658	DISTRACT_START	n/a	n/a	n/a	n/a	-999	6	[0, 0, 0]	n/a	catFR1	3	R1530J
664.861	4.449	927372	PROB	4.449	n/a	n/a	n/a	-999	6	[8, 1, 4]	13	catFR1	3	R1530J
669.31	2.701	931821	PROB	2.701	n/a	n/a	n/a	-999	6	[5, 3, 1]	9	catFR1	3	R1530J
672.011	2.6	934522	PROB	2.6	n/a	n/a	n/a	-999	6	[5, 1, 2]	8	catFR1	3	R1530J
674.611	4.964	937122	PROB	4.964	n/a	n/a	n/a	-999	6	[6, 6, 4]	16	catFR1	3	R1530J
679.575	4.068	942085	PROB	4.068	n/a	n/a	n/a	-999	6	[5, 7, 6]	18	catFR1	3	R1530J
683.643	0.0	946152	DISTRACT_END	n/a	n/a	n/a	n/a	-999	6	[0, 0, 0]	n/a	catFR1	3	R1530J
683.643	1.817	946153	STOP	n/a	n/a	n/a	n/a	-999	6	[-999, -999, -999]	n/a	catFR1	3	R1530J
685.46	0.696	947975	REC_START	n/a	n/a	n/a	n/a	-999	6	[0, 0, 0]	n/a	catFR1	3	R1530J
686.156	0.979	948666	REC_WORD	0.979	n/a	HICKORY	Trees	11	6	[0, 0, 0]	n/a	catFR1	3	R1530J
687.135	1.667	949645	REC_WORD	1.667	n/a	CEDAR	Trees	12	6	[0, 0, 0]	n/a	catFR1	3	R1530J
688.802	4.082	951312	REC_WORD	4.082	n/a	OAK	Trees	6	6	[0, 0, 0]	n/a	catFR1	3	R1530J
692.884	5.883	955394	REC_WORD	5.883	n/a	HALLWAY	Building	1	6	[0, 0, 0]	n/a	catFR1	3	R1530J
698.767	10.39	961276	REC_WORD	10.39	n/a	PASTRY	Desserts	7	6	[0, 0, 0]	n/a	catFR1	3	R1530J
709.157	0.241	971666	REC_WORD	0.241	n/a	OAK	Trees	6	6	[0, 0, 0]	n/a	catFR1	3	R1530J
709.398	0.367	971907	REC_WORD	0.367	n/a	CEDAR	Trees	12	6	[0, 0, 0]	n/a	catFR1	3	R1530J
709.765	5.919	972274	REC_WORD	5.919	n/a	HICKORY	Trees	11	6	[0, 0, 0]	n/a	catFR1	3	R1530J
715.684	1.928	978191	REC_END	n/a	n/a	n/a	n/a	-999	6	[0, 0, 0]	n/a	catFR1	3	R1530J
717.612	10.348	980121	COUNTDOWN_START	n/a	n/a	n/a	n/a	-999	7	[0, 0, 0]	n/a	catFR1	3	R1530J
727.96	0.0	990470	COUNTDOWN_END	n/a	n/a	n/a	n/a	-999	7	[0, 0, 0]	n/a	catFR1	3	R1530J
727.96	2.317	990470	ENCODING_START	n/a	n/a	n/a	n/a	-999	7	[0, 0, 0]	n/a	catFR1	3	R1530J
730.277	1.617	992790	WORD	n/a	wordpools/wordpool_categorized_EN.txt	BEE	Insects	1	7	[0, 0, 0]	n/a	catFR1	3	R1530J
731.894	0.933	994412	WORD_OFF	n/a	n/a	BEE	Insects	1	7	[0, 0, 0]	n/a	catFR1	3	R1530J
732.827	1.617	995337	WORD	n/a	wordpools/wordpool_categorized_EN.txt	GNAT	Insects	2	7	[0, 0, 0]	n/a	catFR1	3	R1530J
734.444	0.831	996959	WORD_OFF	n/a	n/a	GNAT	Insects	2	7	[0, 0, 0]	n/a	catFR1	3	R1530J
735.275	1.602	997790	WORD	n/a	wordpools/wordpool_categorized_EN.txt	CHEESECAKE	Desserts	3	7	[0, 0, 0]	n/a	catFR1	3	R1530J
736.877	0.933	999385	WORD_OFF	n/a	n/a	CHEESECAKE	Desserts	3	7	[0, 0, 0]	n/a	catFR1	3	R1530J
737.81	1.617	1000323	WORD	n/a	wordpools/wordpool_categorized_EN.txt	CAKE	Desserts	4	7	[0, 0, 0]	n/a	catFR1	3	R1530J
739.427	0.883	1001945	WORD_OFF	n/a	n/a	CAKE	Desserts	4	7	[0, 0, 0]	n/a	catFR1	3	R1530J
740.31	1.6	1002817	WORD	n/a	wordpools/wordpool_categorized_EN.txt	MARIGOLD	Flowers	5	7	[0, 0, 0]	n/a	catFR1	3	R1530J
741.91	1.0	1004425	WORD_OFF	n/a	n/a	MARIGOLD	Flowers	5	7	[0, 0, 0]	n/a	catFR1	3	R1530J
742.91	1.615	1005417	WORD	n/a	wordpools/wordpool_categorized_EN.txt	SUNFLOWER	Flowers	6	7	[0, 0, 0]	n/a	catFR1	3	R1530J
744.525	0.836	1007040	WORD_OFF	n/a	n/a	SUNFLOWER	Flowers	6	7	[0, 0, 0]	n/a	catFR1	3	R1530J
745.361	1.599	1007871	WORD	n/a	wordpools/wordpool_categorized_EN.txt	BROWNIES	Desserts	7	7	[0, 0, 0]	n/a	catFR1	3	R1530J
746.96	0.967	1009466	WORD_OFF	n/a	n/a	BROWNIES	Desserts	7	7	[0, 0, 0]	n/a	catFR1	3	R1530J
747.927	1.6	1010444	WORD	n/a	wordpools/wordpool_categorized_EN.txt	PUDDING	Desserts	8	7	[0, 0, 0]	n/a	catFR1	3	R1530J
749.527	0.883	1012040	WORD_OFF	n/a	n/a	PUDDING	Desserts	8	7	[0, 0, 0]	n/a	catFR1	3	R1530J
750.41	1.617	1012924	WORD	n/a	wordpools/wordpool_categorized_EN.txt	MOSQUITO	Insects	9	7	[0, 0, 0]	n/a	catFR1	3	R1530J
752.027	0.816	1014533	WORD_OFF	n/a	n/a	MOSQUITO	Insects	9	7	[0, 0, 0]	n/a	catFR1	3	R1530J
752.843	1.6	1015351	WORD	n/a	wordpools/wordpool_categorized_EN.txt	BEETLE	Insects	10	7	[0, 0, 0]	n/a	catFR1	3	R1530J
754.443	0.801	1016960	WORD_OFF	n/a	n/a	BEETLE	Insects	10	7	[0, 0, 0]	n/a	catFR1	3	R1530J
755.244	1.617	1017750	WORD	n/a	wordpools/wordpool_categorized_EN.txt	PETUNIA	Flowers	11	7	[0, 0, 0]	n/a	catFR1	3	R1530J
756.861	0.849	1019372	WORD_OFF	n/a	n/a	PETUNIA	Flowers	11	7	[0, 0, 0]	n/a	catFR1	3	R1530J
757.71	1.618	1020217	WORD	n/a	wordpools/wordpool_categorized_EN.txt	LILAC	Flowers	12	7	[0, 0, 0]	n/a	catFR1	3	R1530J
759.328	0.001	1021834	PROB	0.001	n/a	n/a	n/a	-999	7	[6, 1, 4]	11	catFR1	3	R1530J
759.329	0.0	1021835	START	n/a	n/a	n/a	n/a	-999	7	[-999, -999, -999]	n/a	catFR1	3	R1530J
759.327	0.002	1021839	WORD_OFF	n/a	n/a	LILAC	Flowers	12	7	[0, 0, 0]	n/a	catFR1	3	R1530J
759.329	0.0	1021839	ENCODING_END	n/a	n/a	n/a	n/a	-999	7	[0, 0, 0]	n/a	catFR1	3	R1530J
759.329	3.481	1021839	DISTRACT_START	n/a	n/a	n/a	n/a	-999	7	[0, 0, 0]	n/a	catFR1	3	R1530J
762.81	4.951	1025316	PROB	4.951	n/a	n/a	n/a	-999	7	[3, 7, 5]	15	catFR1	3	R1530J
767.761	3.282	1030267	PROB	3.282	n/a	n/a	n/a	-999	7	[2, 3, 6]	11	catFR1	3	R1530J
771.043	4.483	1033549	PROB	4.483	n/a	n/a	n/a	-999	7	[7, 7, 8]	22	catFR1	3	R1530J
775.526	3.001	1038031	PROB	3.001	n/a	n/a	n/a	-999	7	[4, 3, 3]	10	catFR1	3	R1530J
778.527	2.633	1041032	PROB	2.633	n/a	n/a	n/a	-999	7	[2, 2, 1]	5	catFR1	3	R1530J
781.16	0.0	1043663	DISTRACT_END	n/a	n/a	n/a	n/a	-999	7	[0, 0, 0]	n/a	catFR1	3	R1530J
781.16	1.783	1043665	STOP	n/a	n/a	n/a	n/a	-999	7	[-999, -999, -999]	n/a	catFR1	3	R1530J
782.943	1.423	1045446	REC_START	n/a	n/a	n/a	n/a	-999	7	[0, 0, 0]	n/a	catFR1	3	R1530J
784.366	0.825	1046871	REC_WORD	0.825	n/a	LILAC	Flowers	12	7	[0, 0, 0]	n/a	catFR1	3	R1530J
785.191	1.339	1047696	REC_WORD	1.339	n/a	SUNFLOWER	Flowers	6	7	[0, 0, 0]	n/a	catFR1	3	R1530J
786.53	4.833	1049035	REC_WORD	4.833	n/a	PETUNIA	Flowers	11	7	[0, 0, 0]	n/a	catFR1	3	R1530J
791.363	0.295	1053867	REC_WORD	0.295	n/a	LILAC	Flowers	12	7	[0, 0, 0]	n/a	catFR1	3	R1530J
791.658	0.585	1054162	REC_WORD	0.585	n/a	SUNFLOWER	Flowers	6	7	[0, 0, 0]	n/a	catFR1	3	R1530J
792.243	0.957	1054747	REC_WORD	0.957	n/a	PETUNIA	Flowers	11	7	[0, 0, 0]	n/a	catFR1	3	R1530J
793.2	1.342	1055704	REC_WORD	1.342	n/a	BEE	Insects	1	7	[0, 0, 0]	n/a	catFR1	3	R1530J
794.542	1.086	1057046	REC_WORD	1.086	n/a	GNAT	Insects	2	7	[0, 0, 0]	n/a	catFR1	3	R1530J
795.628	4.589	1058132	REC_WORD	4.589	n/a	MOSQUITO	Insects	9	7	[0, 0, 0]	n/a	catFR1	3	R1530J
800.217	0.441	1062721	REC_WORD	0.441	n/a	BEE	Insects	1	7	[0, 0, 0]	n/a	catFR1	3	R1530J
800.658	0.246	1063162	REC_WORD	0.246	n/a	GNAT	Insects	2	7	[0, 0, 0]	n/a	catFR1	3	R1530J
800.904	1.651	1063408	REC_WORD	1.651	n/a	MOSQUITO	Insects	9	7	[0, 0, 0]	n/a	catFR1	3	R1530J
802.555	0.88	1065059	REC_WORD	0.88	n/a	LILAC	Flowers	12	7	[0, 0, 0]	n/a	catFR1	3	R1530J
803.435	1.883	1065939	REC_WORD	1.883	n/a	PETUNIA	Flowers	11	7	[0, 0, 0]	n/a	catFR1	3	R1530J
805.318	2.683	1067822	REC_WORD	2.683	n/a	LILAC	Flowers	12	7	[0, 0, 0]	n/a	catFR1	3	R1530J
808.001	5.181	1070505	REC_WORD	5.181	n/a	SUNFLOWER	Flowers	6	7	[0, 0, 0]	n/a	catFR1	3	R1530J
813.182	1.312	1075689	REC_END	n/a	n/a	n/a	n/a	-999	7	[0, 0, 0]	n/a	catFR1	3	R1530J
814.494	10.349	1077002	COUNTDOWN_START	n/a	n/a	n/a	n/a	-999	8	[0, 0, 0]	n/a	catFR1	3	R1530J
824.843	0.001	1087351	COUNTDOWN_END	n/a	n/a	n/a	n/a	-999	8	[0, 0, 0]	n/a	catFR1	3	R1530J
824.844	2.05	1087351	ENCODING_START	n/a	n/a	n/a	n/a	-999	8	[0, 0, 0]	n/a	catFR1	3	R1530J
826.894	1.617	1089402	WORD	n/a	wordpools/wordpool_categorized_EN.txt	GRAPE	Fruit	1	8	[0, 0, 0]	n/a	catFR1	3	R1530J
828.511	0.966	1091011	WORD_OFF	n/a	n/a	GRAPE	Fruit	1	8	[0, 0, 0]	n/a	catFR1	3	R1530J
829.477	1.6	1091989	WORD	n/a	wordpools/wordpool_categorized_EN.txt	STRAWBERRY	Fruit	2	8	[0, 0, 0]	n/a	catFR1	3	R1530J
831.077	1.0	1093585	WORD_OFF	n/a	n/a	STRAWBERRY	Fruit	2	8	[0, 0, 0]	n/a	catFR1	3	R1530J
832.077	1.6	1094590	WORD	n/a	wordpools/wordpool_categorized_EN.txt	THUNDER	Weather	3	8	[0, 0, 0]	n/a	catFR1	3	R1530J
833.677	0.983	1096185	WORD_OFF	n/a	n/a	THUNDER	Weather	3	8	[0, 0, 0]	n/a	catFR1	3	R1530J
834.66	1.617	1097164	WORD	n/a	wordpools/wordpool_categorized_EN.txt	HURRICANE	Weather	4	8	[0, 0, 0]	n/a	catFR1	3	R1530J
836.277	0.883	1098786	WORD_OFF	n/a	n/a	HURRICANE	Weather	4	8	[0, 0, 0]	n/a	catFR1	3	R1530J
837.16	1.616	1099671	WORD	n/a	wordpools/wordpool_categorized_EN.txt	ROSE	Flowers	5	8	[0, 0, 0]	n/a	catFR1	3	R1530J
838.776	0.918	1101279	WORD_OFF	n/a	n/a	ROSE	Flowers	5	8	[0, 0, 0]	n/a	catFR1	3	R1530J
839.694	1.599	1102204	WORD	n/a	wordpools/wordpool_categorized_EN.txt	LILY	Flowers	6	8	[0, 0, 0]	n/a	catFR1	3	R1530J
841.293	0.917	1103800	WORD_OFF	n/a	n/a	LILY	Flowers	6	8	[0, 0, 0]	n/a	catFR1	3	R1530J
842.21	1.599	1104711	WORD	n/a	wordpools/wordpool_categorized_EN.txt	BLUEBERRY	Fruit	7	8	[0, 0, 0]	n/a	catFR1	3	R1530J
843.809	0.784	1106320	WORD_OFF	n/a	n/a	BLUEBERRY	Fruit	7	8	[0, 0, 0]	n/a	catFR1	3	R1530J
844.593	1.617	1107097	WORD	n/a	wordpools/wordpool_categorized_EN.txt	LEMON	Fruit	8	8	[0, 0, 0]	n/a	catFR1	3	R1530J
846.21	0.982	1108719	WORD_OFF	n/a	n/a	LEMON	Fruit	8	8	[0, 0, 0]	n/a	catFR1	3	R1530J
847.192	1.6	1109698	WORD	n/a	wordpools/wordpool_categorized_EN.txt	RAIN	Weather	9	8	[0, 0, 0]	n/a	catFR1	3	R1530J
848.792	0.901	1111293	WORD_OFF	n/a	n/a	RAIN	Weather	9	8	[0, 0, 0]	n/a	catFR1	3	R1530J
849.693	1.617	1112191	WORD	n/a	wordpools/wordpool_categorized_EN.txt	CLOUD	Weather	10	8	[0, 0, 0]	n/a	catFR1	3	R1530J
851.31	0.767	1113813	WORD_OFF	n/a	n/a	CLOUD	Weather	10	8	[0, 0, 0]	n/a	catFR1	3	R1530J
852.077	1.6	1114578	WORD	n/a	wordpools/wordpool_categorized_EN.txt	TULIP	Flowers	11	8	[0, 0, 0]	n/a	catFR1	3	R1530J
853.677	0.781	1116186	WORD_OFF	n/a	n/a	TULIP	Flowers	11	8	[0, 0, 0]	n/a	catFR1	3	R1530J
854.458	1.602	1116964	WORD	n/a	wordpools/wordpool_categorized_EN.txt	DAISY	Flowers	12	8	[0, 0, 0]	n/a	catFR1	3	R1530J
856.06	0.001	1118559	WORD_OFF	n/a	n/a	DAISY	Flowers	12	8	[0, 0, 0]	n/a	catFR1	3	R1530J
856.061	0.0	1118562	PROB	0.0	n/a	n/a	n/a	-999	8	[4, 1, 2]	7	catFR1	3	R1530J
856.061	0.0	1118562	START	n/a	n/a	n/a	n/a	-999	8	[-999, -999, -999]	n/a	catFR1	3	R1530J
856.061	0.0	1118572	ENCODING_END	n/a	n/a	n/a	n/a	-999	8	[0, 0, 0]	n/a	catFR1	3	R1530J
856.061	3.299	1118572	DISTRACT_START	n/a	n/a	n/a	n/a	-999	8	[0, 0, 0]	n/a	catFR1	3	R1530J
859.36	3.684	1121861	PROB	3.684	n/a	n/a	n/a	-999	8	[3, 1, 2]	6	catFR1	3	R1530J
863.044	2.3	1125545	PROB	2.3	n/a	n/a	n/a	-999	8	[1, 4, 4]	9	catFR1	3	R1530J
865.344	3.9	1127845	PROB	3.9	n/a	n/a	n/a	-999	8	[6, 3, 6]	15	catFR1	3	R1530J
869.244	4.416	1131744	PROB	4.416	n/a	n/a	n/a	-999	8	[4, 2, 4]	10	catFR1	3	R1530J
873.66	3.851	1136160	PROB	3.851	n/a	n/a	n/a	-999	8	[6, 7, 4]	15	catFR1	3	R1530J
877.511	0.0	1140011	STOP	n/a	n/a	n/a	n/a	-999	8	[-999, -999, -999]	n/a	catFR1	3	R1530J
877.511	1.715	1140021	DISTRACT_END	n/a	n/a	n/a	n/a	-999	8	[0, 0, 0]	n/a	catFR1	3	R1530J
879.226	1.07	1141723	REC_START	n/a	n/a	n/a	n/a	-999	8	[0, 0, 0]	n/a	catFR1	3	R1530J
880.296	0.708	1142796	REC_WORD	0.708	n/a	ROSE	Flowers	5	8	[0, 0, 0]	n/a	catFR1	3	R1530J
881.004	2.122	1143504	REC_WORD	2.122	n/a	LILY	Flowers	6	8	[0, 0, 0]	n/a	catFR1	3	R1530J
883.126	6.068	1145626	REC_WORD	6.068	n/a	LILAC	Flowers	-999	8	[0, 0, 0]	n/a	catFR1	3	R1530J
889.194	0.665	1151693	REC_WORD_VV	0.665	n/a	<>	n/a	-999	8	[0, 0, 0]	n/a	catFR1	3	R1530J
889.859	1.53	1152358	REC_WORD	1.53	n/a	LEMON	Fruit	8	8	[0, 0, 0]	n/a	catFR1	3	R1530J
891.389	1.978	1153888	REC_WORD	1.978	n/a	GRAPE	Fruit	1	8	[0, 0, 0]	n/a	catFR1	3	R1530J
893.367	6.639	1155866	REC_WORD	6.639	n/a	LIME	n/a	-999	8	[0, 0, 0]	n/a	catFR1	3	R1530J
900.006	0.946	1162505	REC_WORD_VV	0.946	n/a	<>	n/a	-999	8	[0, 0, 0]	n/a	catFR1	3	R1530J
900.952	0.271	1163451	REC_WORD	0.271	n/a	GRAPE	Fruit	1	8	[0, 0, 0]	n/a	catFR1	3	R1530J
901.223	1.627	1163722	REC_WORD	1.627	n/a	LIME	n/a	-999	8	[0, 0, 0]	n/a	catFR1	3	R1530J
902.85	1.305	1165349	REC_WORD	1.305	n/a	LILAC	Flowers	-999	8	[0, 0, 0]	n/a	catFR1	3	R1530J
904.155	0.817	1166653	REC_WORD	0.817	n/a	ROSE	Flowers	5	8	[0, 0, 0]	n/a	catFR1	3	R1530J
904.972	4.457	1167470	REC_WORD	4.457	n/a	LILAC	Flowers	-999	8	[0, 0, 0]	n/a	catFR1	3	R1530J
909.429	2.964	1171926	REC_END	n/a	n/a	n/a	n/a	-999	8	[0, 0, 0]	n/a	catFR1	3	R1530J
912.393	10.35	1174902	COUNTDOWN_START	n/a	n/a	n/a	n/a	-999	9	[0, 0, 0]	n/a	catFR1	3	R1530J
922.743	0.0	1185251	COUNTDOWN_END	n/a	n/a	n/a	n/a	-999	9	[0, 0, 0]	n/a	catFR1	3	R1530J
922.743	2.051	1185251	ENCODING_START	n/a	n/a	n/a	n/a	-999	9	[0, 0, 0]	n/a	catFR1	3	R1530J
924.794	1.6	1187288	WORD	n/a	wordpools/wordpool_categorized_EN.txt	SHEEP	FarmAnimals	1	9	[0, 0, 0]	n/a	catFR1	3	R1530J
926.394	0.933	1188897	WORD_OFF	n/a	n/a	SHEEP	FarmAnimals	1	9	[0, 0, 0]	n/a	catFR1	3	R1530J
927.327	1.617	1189835	WORD	n/a	wordpools/wordpool_categorized_EN.txt	BULL	FarmAnimals	2	9	[0, 0, 0]	n/a	catFR1	3	R1530J
928.944	0.883	1191444	WORD_OFF	n/a	n/a	BULL	FarmAnimals	2	9	[0, 0, 0]	n/a	catFR1	3	R1530J
929.827	1.617	1192329	WORD	n/a	wordpools/wordpool_categorized_EN.txt	WINDOW	Building	3	9	[0, 0, 0]	n/a	catFR1	3	R1530J
931.444	0.949	1193951	WORD_OFF	n/a	n/a	WINDOW	Building	3	9	[0, 0, 0]	n/a	catFR1	3	R1530J
932.393	1.601	1194903	WORD	n/a	wordpools/wordpool_categorized_EN.txt	DOOR	Building	4	9	[0, 0, 0]	n/a	catFR1	3	R1530J
933.994	0.999	1196498	WORD_OFF	n/a	n/a	DOOR	Building	4	9	[0, 0, 0]	n/a	catFR1	3	R1530J
934.993	1.618	1197490	WORD	n/a	wordpools/wordpool_categorized_EN.txt	DAFFODIL	Flowers	5	9	[0, 0, 0]	n/a	catFR1	3	R1530J
936.611	0.933	1199112	WORD_OFF	n/a	n/a	DAFFODIL	Flowers	5	9	[0, 0, 0]	n/a	catFR1	3	R1530J
937.544	1.6	1200050	WORD	n/a	wordpools/wordpool_categorized_EN.txt	CARNATION	Flowers	6	9	[0, 0, 0]	n/a	catFR1	3	R1530J
939.144	0.933	1201646	WORD_OFF	n/a	n/a	CARNATION	Flowers	6	9	[0, 0, 0]	n/a	catFR1	3	R1530J
940.077	1.6	1202583	WORD	n/a	wordpools/wordpool_categorized_EN.txt	PIG	FarmAnimals	7	9	[0, 0, 0]	n/a	catFR1	3	R1530J
941.677	0.867	1204179	WORD_OFF	n/a	n/a	PIG	FarmAnimals	7	9	[0, 0, 0]	n/a	catFR1	3	R1530J
942.544	1.6	1205051	WORD	n/a	wordpools/wordpool_categorized_EN.txt	CALF	FarmAnimals	8	9	[0, 0, 0]	n/a	catFR1	3	R1530J
944.144	0.8	1206646	WORD_OFF	n/a	n/a	CALF	FarmAnimals	8	9	[0, 0, 0]	n/a	catFR1	3	R1530J
944.944	1.616	1207450	WORD	n/a	wordpools/wordpool_categorized_EN.txt	VIOLET	Flowers	9	9	[0, 0, 0]	n/a	catFR1	3	R1530J
946.56	0.767	1209059	WORD_OFF	n/a	n/a	VIOLET	Flowers	9	9	[0, 0, 0]	n/a	catFR1	3	R1530J
947.327	1.617	1209823	WORD	n/a	wordpools/wordpool_categorized_EN.txt	ORCHID	Flowers	10	9	[0, 0, 0]	n/a	catFR1	3	R1530J
948.944	0.849	1211445	WORD_OFF	n/a	n/a	ORCHID	Flowers	10	9	[0, 0, 0]	n/a	catFR1	3	R1530J
949.793	1.617	1212289	WORD	n/a	wordpools/wordpool_categorized_EN.txt	ROOF	Building	11	9	[0, 0, 0]	n/a	catFR1	3	R1530J
951.41	0.767	1213912	WORD_OFF	n/a	n/a	ROOF	Building	11	9	[0, 0, 0]	n/a	catFR1	3	R1530J
952.177	1.6	1214676	WORD	n/a	wordpools/wordpool_categorized_EN.txt	ATTIC	Building	12	9	[0, 0, 0]	n/a	catFR1	3	R1530J
953.777	0.001	1216271	WORD_OFF	n/a	n/a	ATTIC	Building	12	9	[0, 0, 0]	n/a	catFR1	3	R1530J
953.778	0.001	1216274	PROB	0.001	n/a	n/a	n/a	-999	9	[1, 5, 3]	9	catFR1	3	R1530J
953.779	0.0	1216275	START	n/a	n/a	n/a	n/a	-999	9	[-999, -999, -999]	n/a	catFR1	3	R1530J
953.779	0.0	1216284	ENCODING_END	n/a	n/a	n/a	n/a	-999	9	[0, 0, 0]	n/a	catFR1	3	R1530J
953.779	2.382	1216284	DISTRACT_START	n/a	n/a	n/a	n/a	-999	9	[0, 0, 0]	n/a	catFR1	3	R1530J
956.161	3.566	1218657	PROB	3.566	n/a	n/a	n/a	-999	9	[7, 2, 8]	17	catFR1	3	R1530J
959.727	2.816	1222222	PROB	2.816	n/a	n/a	n/a	-999	9	[6, 6, 7]	19	catFR1	3	R1530J
962.543	2.735	1225038	PROB	2.735	n/a	n/a	n/a	-999	9	[1, 6, 3]	10	catFR1	3	R1530J
965.278	3.4	1227773	PROB	3.4	n/a	n/a	n/a	-999	9	[8, 3, 5]	16	catFR1	3	R1530J
968.678	2.316	1231173	PROB	2.316	n/a	n/a	n/a	-999	9	[1, 6, 5]	12	catFR1	3	R1530J
970.994	4.166	1233489	PROB	4.166	n/a	n/a	n/a	-999	9	[2, 7, 6]	15	catFR1	3	R1530J
975.16	0.0	1237652	DISTRACT_END	n/a	n/a	n/a	n/a	-999	9	[0, 0, 0]	n/a	catFR1	3	R1530J
975.16	1.817	1237655	STOP	n/a	n/a	n/a	n/a	-999	9	[-999, -999, -999]	n/a	catFR1	3	R1530J
976.977	0.601	1239476	REC_START	n/a	n/a	n/a	n/a	-999	9	[0, 0, 0]	n/a	catFR1	3	R1530J
977.578	1.633	1240073	REC_WORD	1.633	n/a	ROOF	Building	11	9	[0, 0, 0]	n/a	catFR1	3	R1530J
979.211	1.835	1241705	REC_WORD	1.835	n/a	ATTIC	Building	12	9	[0, 0, 0]	n/a	catFR1	3	R1530J
981.046	2.414	1243540	REC_WORD	2.414	n/a	LILAC	Flowers	-999	9	[0, 0, 0]	n/a	catFR1	3	R1530J
983.46	0.418	1245954	REC_WORD_VV	0.418	n/a	<>	n/a	-999	9	[0, 0, 0]	n/a	catFR1	3	R1530J
983.878	0.347	1246372	REC_WORD	0.347	n/a	ROOF	Building	11	9	[0, 0, 0]	n/a	catFR1	3	R1530J
984.225	3.59	1246719	REC_WORD	3.59	n/a	ATTIC	Building	12	9	[0, 0, 0]	n/a	catFR1	3	R1530J
987.815	0.375	1250309	REC_WORD	0.375	n/a	ROOF	Building	11	9	[0, 0, 0]	n/a	catFR1	3	R1530J
988.19	1.028	1250684	REC_WORD	1.028	n/a	ATTIC	Building	12	9	[0, 0, 0]	n/a	catFR1	3	R1530J
989.218	2.506	1251712	REC_WORD	2.506	n/a	LILAC	Flowers	-999	9	[0, 0, 0]	n/a	catFR1	3	R1530J
991.724	1.0	1254218	REC_WORD_VV	1.0	n/a	<>	n/a	-999	9	[0, 0, 0]	n/a	catFR1	3	R1530J
992.724	0.96	1255218	REC_WORD_VV	0.96	n/a	<>	n/a	-999	9	[0, 0, 0]	n/a	catFR1	3	R1530J
993.684	1.075	1256178	REC_WORD	1.075	n/a	SUNFLOWER	Flowers	-999	9	[0, 0, 0]	n/a	catFR1	3	R1530J
994.759	3.304	1257253	REC_WORD	3.304	n/a	LILAC	Flowers	-999	9	[0, 0, 0]	n/a	catFR1	3	R1530J
998.063	3.845	1260556	REC_WORD_VV	3.845	n/a	<>	n/a	-999	9	[0, 0, 0]	n/a	catFR1	3	R1530J
1001.908	0.701	1264401	REC_WORD_VV	0.701	n/a	<>	n/a	-999	9	[0, 0, 0]	n/a	catFR1	3	R1530J
1002.609	4.586	1265102	REC_WORD	4.586	n/a	LILAC	Flowers	-999	9	[0, 0, 0]	n/a	catFR1	3	R1530J
1007.195	2.799	1269691	REC_END	n/a	n/a	n/a	n/a	-999	9	[0, 0, 0]	n/a	catFR1	3	R1530J
1009.994	10.349	1272493	COUNTDOWN_START	n/a	n/a	n/a	n/a	-999	10	[0, 0, 0]	n/a	catFR1	3	R1530J
1020.343	0.001	1282842	COUNTDOWN_END	n/a	n/a	n/a	n/a	-999	10	[0, 0, 0]	n/a	catFR1	3	R1530J
1020.344	2.149	1282842	ENCODING_START	n/a	n/a	n/a	n/a	-999	10	[0, 0, 0]	n/a	catFR1	3	R1530J
1022.493	1.601	1284987	WORD	n/a	wordpools/wordpool_categorized_EN.txt	CARROT	Vegetables	1	10	[0, 0, 0]	n/a	catFR1	3	R1530J
1024.094	0.817	1286596	WORD_OFF	n/a	n/a	CARROT	Vegetables	1	10	[0, 0, 0]	n/a	catFR1	3	R1530J
1024.911	1.615	1287413	WORD	n/a	wordpools/wordpool_categorized_EN.txt	PEAS	Vegetables	2	10	[0, 0, 0]	n/a	catFR1	3	R1530J
1026.526	0.935	1289022	WORD_OFF	n/a	n/a	PEAS	Vegetables	2	10	[0, 0, 0]	n/a	catFR1	3	R1530J
1027.461	1.6	1289960	WORD	n/a	wordpools/wordpool_categorized_EN.txt	BALL	Toys	3	10	[0, 0, 0]	n/a	catFR1	3	R1530J
1029.061	0.8	1291556	WORD_OFF	n/a	n/a	BALL	Toys	3	10	[0, 0, 0]	n/a	catFR1	3	R1530J
1029.861	1.614	1292360	WORD	n/a	wordpools/wordpool_categorized_EN.txt	BLOCKS	Toys	4	10	[0, 0, 0]	n/a	catFR1	3	R1530J
1031.475	0.836	1293969	WORD_OFF	n/a	n/a	BLOCKS	Toys	4	10	[0, 0, 0]	n/a	catFR1	3	R1530J
1032.311	1.6	1294800	WORD	n/a	wordpools/wordpool_categorized_EN.txt	GOAT	FarmAnimals	5	10	[0, 0, 0]	n/a	catFR1	3	R1530J
1033.911	0.999	1296408	WORD_OFF	n/a	n/a	GOAT	FarmAnimals	5	10	[0, 0, 0]	n/a	catFR1	3	R1530J
1034.91	1.617	1297400	WORD	n/a	wordpools/wordpool_categorized_EN.txt	COW	FarmAnimals	6	10	[0, 0, 0]	n/a	catFR1	3	R1530J
1036.527	0.817	1299022	WORD_OFF	n/a	n/a	COW	FarmAnimals	6	10	[0, 0, 0]	n/a	catFR1	3	R1530J
1037.344	1.616	1299840	WORD	n/a	wordpools/wordpool_categorized_EN.txt	ONION	Vegetables	7	10	[0, 0, 0]	n/a	catFR1	3	R1530J
1038.96	0.833	1301449	WORD_OFF	n/a	n/a	ONION	Vegetables	7	10	[0, 0, 0]	n/a	catFR1	3	R1530J
1039.793	1.618	1302293	WORD	n/a	wordpools/wordpool_categorized_EN.txt	BROCCOLI	Vegetables	8	10	[0, 0, 0]	n/a	catFR1	3	R1530J
1041.411	0.9	1303902	WORD_OFF	n/a	n/a	BROCCOLI	Vegetables	8	10	[0, 0, 0]	n/a	catFR1	3	R1530J
1042.311	1.6	1304800	WORD	n/a	wordpools/wordpool_categorized_EN.txt	HORSE	FarmAnimals	9	10	[0, 0, 0]	n/a	catFR1	3	R1530J
1043.911	0.948	1306409	WORD_OFF	n/a	n/a	HORSE	FarmAnimals	9	10	[0, 0, 0]	n/a	catFR1	3	R1530J
1044.859	1.6	1307361	WORD	n/a	wordpools/wordpool_categorized_EN.txt	LAMB	FarmAnimals	10	10	[0, 0, 0]	n/a	catFR1	3	R1530J
1046.459	0.934	1308956	WORD_OFF	n/a	n/a	LAMB	FarmAnimals	10	10	[0, 0, 0]	n/a	catFR1	3	R1530J
1047.393	1.6	1309881	WORD	n/a	wordpools/wordpool_categorized_EN.txt	SLINKY	Toys	11	10	[0, 0, 0]	n/a	catFR1	3	R1530J
1048.993	0.766	1311489	WORD_OFF	n/a	n/a	SLINKY	Toys	11	10	[0, 0, 0]	n/a	catFR1	3	R1530J
1049.759	1.618	1312254	WORD	n/a	wordpools/wordpool_categorized_EN.txt	BASKETBALL	Toys	12	10	[0, 0, 0]	n/a	catFR1	3	R1530J
1051.377	0.002	1313868	PROB	0.002	n/a	n/a	n/a	-999	10	[3, 8, 4]	15	catFR1	3	R1530J
1051.379	0.0	1313870	START	n/a	n/a	n/a	n/a	-999	10	[-999, -999, -999]	n/a	catFR1	3	R1530J
1051.378	0.001	1313876	WORD_OFF	n/a	n/a	BASKETBALL	Toys	12	10	[0, 0, 0]	n/a	catFR1	3	R1530J
1051.379	0.0	1313876	ENCODING_END	n/a	n/a	n/a	n/a	-999	10	[0, 0, 0]	n/a	catFR1	3	R1530J
1051.379	4.698	1313876	DISTRACT_START	n/a	n/a	n/a	n/a	-999	10	[0, 0, 0]	n/a	catFR1	3	R1530J
1056.077	2.817	1318567	PROB	2.817	n/a	n/a	n/a	-999	10	[7, 6, 3]	16	catFR1	3	R1530J
1058.894	4.617	1321384	PROB	4.617	n/a	n/a	n/a	-999	10	[7, 2, 1]	10	catFR1	3	R1530J
1063.511	3.666	1326001	PROB	3.666	n/a	n/a	n/a	-999	10	[6, 1, 8]	15	catFR1	3	R1530J
1067.177	3.166	1329667	PROB	3.166	n/a	n/a	n/a	-999	10	[7, 5, 7]	19	catFR1	3	R1530J
1070.343	10.933	1332833	PROB	10.933	n/a	n/a	n/a	-999	10	[1, 5, 2]	8	catFR1	3	R1530J
1081.276	0.0	1343765	STOP	n/a	n/a	n/a	n/a	-999	10	[-999, -999, -999]	n/a	catFR1	3	R1530J
1081.276	1.883	1343770	DISTRACT_END	n/a	n/a	n/a	n/a	-999	10	[0, 0, 0]	n/a	catFR1	3	R1530J
1083.159	0.619	1345646	REC_START	n/a	n/a	n/a	n/a	-999	10	[0, 0, 0]	n/a	catFR1	3	R1530J
1083.778	1.511	1346267	REC_WORD	1.511	n/a	SLINKY	Toys	11	10	[0, 0, 0]	n/a	catFR1	3	R1530J
1085.289	1.533	1347778	REC_WORD	1.533	n/a	BASKETBALL	Toys	12	10	[0, 0, 0]	n/a	catFR1	3	R1530J
1086.822	2.836	1349311	REC_WORD	2.836	n/a	BLOCKS	Toys	4	10	[0, 0, 0]	n/a	catFR1	3	R1530J
1089.658	0.986	1352147	REC_WORD	0.986	n/a	PEAS	Vegetables	2	10	[0, 0, 0]	n/a	catFR1	3	R1530J
1090.644	1.161	1353133	REC_WORD	1.161	n/a	CORN	Vegetables	-999	10	[0, 0, 0]	n/a	catFR1	3	R1530J
1091.805	6.444	1354293	REC_WORD	6.444	n/a	BROCCOLI	Vegetables	8	10	[0, 0, 0]	n/a	catFR1	3	R1530J
1098.249	0.292	1360737	REC_WORD	0.292	n/a	PEAS	Vegetables	2	10	[0, 0, 0]	n/a	catFR1	3	R1530J
1098.541	0.466	1361029	REC_WORD	0.466	n/a	CORN	Vegetables	-999	10	[0, 0, 0]	n/a	catFR1	3	R1530J
1099.007	1.337	1361495	REC_WORD	1.337	n/a	BLOCKS	Toys	4	10	[0, 0, 0]	n/a	catFR1	3	R1530J
1100.344	0.567	1362832	REC_WORD	0.567	n/a	BROCCOLI	Vegetables	8	10	[0, 0, 0]	n/a	catFR1	3	R1530J
1100.911	0.731	1363399	REC_WORD	0.731	n/a	SLINKY	Toys	11	10	[0, 0, 0]	n/a	catFR1	3	R1530J
1101.642	2.767	1364130	REC_WORD	2.767	n/a	BASKETBALL	Toys	12	10	[0, 0, 0]	n/a	catFR1	3	R1530J
1104.409	7.514	1366897	REC_WORD	7.514	n/a	BLOCKS	Toys	4	10	[0, 0, 0]	n/a	catFR1	3	R1530J
1111.923	0.663	1374410	REC_WORD	0.663	n/a	SLINKY	Toys	11	10	[0, 0, 0]	n/a	catFR1	3	R1530J
1112.586	0.774	1375073	REC_WORD	0.774	n/a	BLOCKS	Toys	4	10	[0, 0, 0]	n/a	catFR1	3	R1530J
1113.36	1.666	1375849	REC_END	n/a	n/a	n/a	n/a	-999	10	[0, 0, 0]	n/a	catFR1	3	R1530J
1115.026	10.351	1377524	COUNTDOWN_START	n/a	n/a	n/a	n/a	-999	11	[0, 0, 0]	n/a	catFR1	3	R1530J
1125.377	0.001	1387873	COUNTDOWN_END	n/a	n/a	n/a	n/a	-999	11	[0, 0, 0]	n/a	catFR1	3	R1530J
1125.378	2.215	1387873	ENCODING_START	n/a	n/a	n/a	n/a	-999	11	[0, 0, 0]	n/a	catFR1	3	R1530J
1127.593	1.6	1390085	WORD	n/a	wordpools/wordpool_categorized_EN.txt	ELM	Trees	1	11	[0, 0, 0]	n/a	catFR1	3	R1530J
1129.193	0.951	1391680	WORD_OFF	n/a	n/a	ELM	Trees	1	11	[0, 0, 0]	n/a	catFR1	3	R1530J
1130.144	1.616	1392632	WORD	n/a	wordpools/wordpool_categorized_EN.txt	MAPLE	Trees	2	11	[0, 0, 0]	n/a	catFR1	3	R1530J
1131.76	0.833	1394254	WORD_OFF	n/a	n/a	MAPLE	Trees	2	11	[0, 0, 0]	n/a	catFR1	3	R1530J
1132.593	1.618	1395085	WORD	n/a	wordpools/wordpool_categorized_EN.txt	IRON	Appliances	3	11	[0, 0, 0]	n/a	catFR1	3	R1530J
1134.211	0.949	1396707	WORD_OFF	n/a	n/a	IRON	Appliances	3	11	[0, 0, 0]	n/a	catFR1	3	R1530J
1135.16	1.6	1397646	WORD	n/a	wordpools/wordpool_categorized_EN.txt	OVEN	Appliances	4	11	[0, 0, 0]	n/a	catFR1	3	R1530J
1136.76	0.835	1399254	WORD_OFF	n/a	n/a	OVEN	Appliances	4	11	[0, 0, 0]	n/a	catFR1	3	R1530J
1137.595	1.616	1400086	WORD	n/a	wordpools/wordpool_categorized_EN.txt	ELBOW	BodyParts	5	11	[0, 0, 0]	n/a	catFR1	3	R1530J
1139.211	0.915	1401694	WORD_OFF	n/a	n/a	ELBOW	BodyParts	5	11	[0, 0, 0]	n/a	catFR1	3	R1530J
1140.126	1.6	1402619	WORD	n/a	wordpools/wordpool_categorized_EN.txt	KNEE	BodyParts	6	11	[0, 0, 0]	n/a	catFR1	3	R1530J
1141.726	0.8	1404214	WORD_OFF	n/a	n/a	KNEE	BodyParts	6	11	[0, 0, 0]	n/a	catFR1	3	R1530J
1142.526	1.6	1405019	WORD	n/a	wordpools/wordpool_categorized_EN.txt	WILLOW	Trees	7	11	[0, 0, 0]	n/a	catFR1	3	R1530J
1144.126	0.851	1406614	WORD_OFF	n/a	n/a	WILLOW	Trees	7	11	[0, 0, 0]	n/a	catFR1	3	R1530J
1144.977	1.6	1407472	WORD	n/a	wordpools/wordpool_categorized_EN.txt	PINE	Trees	8	11	[0, 0, 0]	n/a	catFR1	3	R1530J
1146.577	0.8	1409067	WORD_OFF	n/a	n/a	PINE	Trees	8	11	[0, 0, 0]	n/a	catFR1	3	R1530J
1147.377	1.6	1409872	WORD	n/a	wordpools/wordpool_categorized_EN.txt	STOVE	Appliances	9	11	[0, 0, 0]	n/a	catFR1	3	R1530J
1148.977	0.782	1411467	WORD_OFF	n/a	n/a	STOVE	Appliances	9	11	[0, 0, 0]	n/a	catFR1	3	R1530J
1149.759	1.618	1412244	WORD	n/a	wordpools/wordpool_categorized_EN.txt	BLENDER	Appliances	10	11	[0, 0, 0]	n/a	catFR1	3	R1530J
1151.377	0.848	1413866	WORD_OFF	n/a	n/a	BLENDER	Appliances	10	11	[0, 0, 0]	n/a	catFR1	3	R1530J
1152.225	1.619	1414711	WORD	n/a	wordpools/wordpool_categorized_EN.txt	LEG	BodyParts	11	11	[0, 0, 0]	n/a	catFR1	3	R1530J
1153.844	0.965	1416333	WORD_OFF	n/a	n/a	LEG	BodyParts	11	11	[0, 0, 0]	n/a	catFR1	3	R1530J
1154.809	1.601	1417298	WORD	n/a	wordpools/wordpool_categorized_EN.txt	FOOT	BodyParts	12	11	[0, 0, 0]	n/a	catFR1	3	R1530J
1156.41	0.0	1418893	WORD_OFF	n/a	n/a	FOOT	BodyParts	12	11	[0, 0, 0]	n/a	catFR1	3	R1530J
1156.41	0.001	1418895	PROB	0.001	n/a	n/a	n/a	-999	11	[8, 2, 2]	12	catFR1	3	R1530J
1156.411	0.0	1418896	START	n/a	n/a	n/a	n/a	-999	11	[-999, -999, -999]	n/a	catFR1	3	R1530J
1156.411	0.0	1418907	ENCODING_END	n/a	n/a	n/a	n/a	-999	11	[0, 0, 0]	n/a	catFR1	3	R1530J
1156.411	3.183	1418907	DISTRACT_START	n/a	n/a	n/a	n/a	-999	11	[0, 0, 0]	n/a	catFR1	3	R1530J
1159.594	2.984	1422079	PROB	2.984	n/a	n/a	n/a	-999	11	[5, 6, 4]	15	catFR1	3	R1530J
1162.578	3.049	1425063	PROB	3.049	n/a	n/a	n/a	-999	11	[3, 1, 6]	10	catFR1	3	R1530J
1165.627	3.283	1428112	PROB	3.283	n/a	n/a	n/a	-999	11	[1, 6, 6]	13	catFR1	3	R1530J
1168.91	3.234	1431394	PROB	3.234	n/a	n/a	n/a	-999	11	[3, 3, 8]	14	catFR1	3	R1530J
1172.144	2.915	1434628	PROB	2.915	n/a	n/a	n/a	-999	11	[4, 7, 4]	15	catFR1	3	R1530J
1175.059	2.852	1437543	PROB	2.852	n/a	n/a	n/a	-999	11	[5, 5, 6]	16	catFR1	3	R1530J
1177.911	0.0	1440395	STOP	n/a	n/a	n/a	n/a	-999	11	[-999, -999, -999]	n/a	catFR1	3	R1530J
1177.911	1.915	1440396	DISTRACT_END	n/a	n/a	n/a	n/a	-999	11	[0, 0, 0]	n/a	catFR1	3	R1530J
1179.826	0.836	1442313	REC_START	n/a	n/a	n/a	n/a	-999	11	[0, 0, 0]	n/a	catFR1	3	R1530J
1180.662	0.558	1443146	REC_WORD	0.558	n/a	ELM	Trees	1	11	[0, 0, 0]	n/a	catFR1	3	R1530J
1181.22	1.261	1443704	REC_WORD	1.261	n/a	MAPLE	Trees	2	11	[0, 0, 0]	n/a	catFR1	3	R1530J
1182.481	1.042	1444965	REC_WORD	1.042	n/a	STOVE	Appliances	9	11	[0, 0, 0]	n/a	catFR1	3	R1530J
1183.523	1.103	1446007	REC_WORD	1.103	n/a	IRON	Appliances	3	11	[0, 0, 0]	n/a	catFR1	3	R1530J
1184.626	2.056	1447110	REC_WORD	2.056	n/a	OVEN	Appliances	4	11	[0, 0, 0]	n/a	catFR1	3	R1530J
1186.682	1.0	1449165	REC_WORD_VV	1.0	n/a	<>	n/a	-999	11	[0, 0, 0]	n/a	catFR1	3	R1530J
1187.682	0.723	1450165	REC_WORD_VV	0.723	n/a	<>	n/a	-999	11	[0, 0, 0]	n/a	catFR1	3	R1530J
1188.405	3.242	1450888	REC_WORD	3.242	n/a	WILLOW	Trees	7	11	[0, 0, 0]	n/a	catFR1	3	R1530J
1191.647	1.0	1454130	REC_WORD_VV	1.0	n/a	<>	n/a	-999	11	[0, 0, 0]	n/a	catFR1	3	R1530J
1192.647	0.545	1455130	REC_WORD_VV	0.545	n/a	<>	n/a	-999	11	[0, 0, 0]	n/a	catFR1	3	R1530J
1193.192	0.46	1455675	REC_WORD	0.46	n/a	ELM	Trees	1	11	[0, 0, 0]	n/a	catFR1	3	R1530J
1193.652	2.634	1456135	REC_WORD	2.634	n/a	MAPLE	Trees	2	11	[0, 0, 0]	n/a	catFR1	3	R1530J
1196.286	0.807	1458769	REC_WORD	0.807	n/a	STOVE	Appliances	9	11	[0, 0, 0]	n/a	catFR1	3	R1530J
1197.093	0.448	1459576	REC_WORD	0.448	n/a	OVEN	Appliances	4	11	[0, 0, 0]	n/a	catFR1	3	R1530J
1197.541	1.205	1460024	REC_WORD	1.205	n/a	LEG	BodyParts	11	11	[0, 0, 0]	n/a	catFR1	3	R1530J
1198.746	2.717	1461229	REC_WORD	2.717	n/a	KNEE	BodyParts	6	11	[0, 0, 0]	n/a	catFR1	3	R1530J
1201.463	5.829	1463946	REC_WORD	5.829	n/a	ELBOW	BodyParts	5	11	[0, 0, 0]	n/a	catFR1	3	R1530J
1207.292	2.749	1469774	REC_WORD	2.749	n/a	ELM	Trees	1	11	[0, 0, 0]	n/a	catFR1	3	R1530J
1210.041	1.836	1472528	REC_END	n/a	n/a	n/a	n/a	-999	11	[0, 0, 0]	n/a	catFR1	3	R1530J
1211.877	10.35	1474365	COUNTDOWN_START	n/a	n/a	n/a	n/a	-999	12	[0, 0, 0]	n/a	catFR1	3	R1530J
1222.227	0.0	1484714	COUNTDOWN_END	n/a	n/a	n/a	n/a	-999	12	[0, 0, 0]	n/a	catFR1	3	R1530J
1222.227	2.284	1484714	ENCODING_START	n/a	n/a	n/a	n/a	-999	12	[0, 0, 0]	n/a	catFR1	3	R1530J
1224.511	1.615	1486993	WORD	n/a	wordpools/wordpool_categorized_EN.txt	HEN	FarmAnimals	1	12	[0, 0, 0]	n/a	catFR1	3	R1530J
1226.126	0.801	1488615	WORD_OFF	n/a	n/a	HEN	FarmAnimals	1	12	[0, 0, 0]	n/a	catFR1	3	R1530J
1226.927	1.617	1489419	WORD	n/a	wordpools/wordpool_categorized_EN.txt	TURKEY	FarmAnimals	2	12	[0, 0, 0]	n/a	catFR1	3	R1530J
1228.544	0.798	1491028	WORD_OFF	n/a	n/a	TURKEY	FarmAnimals	2	12	[0, 0, 0]	n/a	catFR1	3	R1530J
1229.342	1.602	1491832	WORD	n/a	wordpools/wordpool_categorized_EN.txt	BARBIE	Toys	3	12	[0, 0, 0]	n/a	catFR1	3	R1530J
1230.944	0.849	1493427	WORD_OFF	n/a	n/a	BARBIE	Toys	3	12	[0, 0, 0]	n/a	catFR1	3	R1530J
1231.793	1.601	1494272	WORD	n/a	wordpools/wordpool_categorized_EN.txt	DOLL	Toys	4	12	[0, 0, 0]	n/a	catFR1	3	R1530J
1233.394	0.915	1495881	WORD_OFF	n/a	n/a	DOLL	Toys	4	12	[0, 0, 0]	n/a	catFR1	3	R1530J
1234.309	1.602	1496792	WORD	n/a	wordpools/wordpool_categorized_EN.txt	COTTON	Fabric	5	12	[0, 0, 0]	n/a	catFR1	3	R1530J
1235.911	0.882	1498401	WORD_OFF	n/a	n/a	COTTON	Fabric	5	12	[0, 0, 0]	n/a	catFR1	3	R1530J
1236.793	1.6	1499272	WORD	n/a	wordpools/wordpool_categorized_EN.txt	SATIN	Fabric	6	12	[0, 0, 0]	n/a	catFR1	3	R1530J
1238.393	0.866	1500881	WORD_OFF	n/a	n/a	SATIN	Fabric	6	12	[0, 0, 0]	n/a	catFR1	3	R1530J
1239.259	1.6	1501739	WORD	n/a	wordpools/wordpool_categorized_EN.txt	BASEBALL	Toys	7	12	[0, 0, 0]	n/a	catFR1	3	R1530J
1240.859	0.884	1503347	WORD_OFF	n/a	n/a	BASEBALL	Toys	7	12	[0, 0, 0]	n/a	catFR1	3	R1530J
1241.743	1.6	1504232	WORD	n/a	wordpools/wordpool_categorized_EN.txt	PUZZLE	Toys	8	12	[0, 0, 0]	n/a	catFR1	3	R1530J
1243.343	0.915	1505827	WORD_OFF	n/a	n/a	PUZZLE	Toys	8	12	[0, 0, 0]	n/a	catFR1	3	R1530J
1244.258	1.601	1506739	WORD	n/a	wordpools/wordpool_categorized_EN.txt	CHICKEN	FarmAnimals	9	12	[0, 0, 0]	n/a	catFR1	3	R1530J
1245.859	0.985	1508348	WORD_OFF	n/a	n/a	CHICKEN	FarmAnimals	9	12	[0, 0, 0]	n/a	catFR1	3	R1530J
1246.844	1.6	1509326	WORD	n/a	wordpools/wordpool_categorized_EN.txt	ROOSTER	FarmAnimals	10	12	[0, 0, 0]	n/a	catFR1	3	R1530J
1248.444	0.765	1510921	WORD_OFF	n/a	n/a	ROOSTER	FarmAnimals	10	12	[0, 0, 0]	n/a	catFR1	3	R1530J
1249.209	1.602	1511699	WORD	n/a	wordpools/wordpool_categorized_EN.txt	SUEDE	Fabric	11	12	[0, 0, 0]	n/a	catFR1	3	R1530J
1250.811	0.966	1513294	WORD_OFF	n/a	n/a	SUEDE	Fabric	11	12	[0, 0, 0]	n/a	catFR1	3	R1530J
1251.777	1.616	1514259	WORD	n/a	wordpools/wordpool_categorized_EN.txt	LINEN	Fabric	12	12	[0, 0, 0]	n/a	catFR1	3	R1530J
1253.393	0.001	1515873	PROB	0.001	n/a	n/a	n/a	-999	12	[4, 2, 5]	11	catFR1	3	R1530J
1253.394	0.0	1515874	START	n/a	n/a	n/a	n/a	-999	12	[-999, -999, -999]	n/a	catFR1	3	R1530J
1253.392	0.001	1515881	WORD_OFF	n/a	n/a	LINEN	Fabric	12	12	[0, 0, 0]	n/a	catFR1	3	R1530J
1253.393	0.001	1515881	ENCODING_END	n/a	n/a	n/a	n/a	-999	12	[0, 0, 0]	n/a	catFR1	3	R1530J
1253.394	3.3	1515881	DISTRACT_START	n/a	n/a	n/a	n/a	-999	12	[0, 0, 0]	n/a	catFR1	3	R1530J
1256.694	2.133	1519174	PROB	2.133	n/a	n/a	n/a	-999	12	[1, 2, 8]	11	catFR1	3	R1530J
1258.827	5.417	1521307	PROB	5.417	n/a	n/a	n/a	-999	12	[8, 8, 6]	22	catFR1	3	R1530J
1264.244	2.416	1526723	PROB	2.416	n/a	n/a	n/a	-999	12	[7, 4, 1]	12	catFR1	3	R1530J
1266.66	2.533	1529139	PROB	2.533	n/a	n/a	n/a	-999	12	[7, 3, 8]	18	catFR1	3	R1530J
1269.193	4.251	1531672	PROB	4.251	n/a	n/a	n/a	-999	12	[6, 7, 8]	21	catFR1	3	R1530J
1273.444	0.0	1535922	DISTRACT_END	n/a	n/a	n/a	n/a	-999	12	[0, 0, 0]	n/a	catFR1	3	R1530J
1273.444	1.867	1535923	STOP	n/a	n/a	n/a	n/a	-999	12	[-999, -999, -999]	n/a	catFR1	3	R1530J
1275.311	1.447	1537799	REC_START	n/a	n/a	n/a	n/a	-999	12	[0, 0, 0]	n/a	catFR1	3	R1530J
1276.758	1.0	1539237	REC_WORD_VV	1.0	n/a	<>	n/a	-999	12	[0, 0, 0]	n/a	catFR1	3	R1530J
1277.758	1.107	1540237	REC_WORD_VV	1.107	n/a	<>	n/a	-999	12	[0, 0, 0]	n/a	catFR1	3	R1530J
1278.865	1.089	1541343	REC_WORD	1.089	n/a	BASEBALL	Toys	7	12	[0, 0, 0]	n/a	catFR1	3	R1530J
1279.954	1.811	1542432	REC_WORD_VV	1.811	n/a	<>	n/a	-999	12	[0, 0, 0]	n/a	catFR1	3	R1530J
1281.765	1.974	1544243	REC_WORD_VV	1.974	n/a	<>	n/a	-999	12	[0, 0, 0]	n/a	catFR1	3	R1530J
1283.739	0.602	1546217	REC_WORD	0.602	n/a	LAMB	FarmAnimals	-999	12	[0, 0, 0]	n/a	catFR1	3	R1530J
1284.341	3.32	1546819	REC_WORD	3.32	n/a	BASEBALL	Toys	7	12	[0, 0, 0]	n/a	catFR1	3	R1530J
1287.661	1.203	1550139	REC_WORD_VV	1.203	n/a	<>	n/a	-999	12	[0, 0, 0]	n/a	catFR1	3	R1530J
1288.864	0.663	1551342	REC_WORD	0.663	n/a	LAMB	FarmAnimals	-999	12	[0, 0, 0]	n/a	catFR1	3	R1530J
1289.527	1.861	1552005	REC_WORD	1.861	n/a	BASEBALL	Toys	7	12	[0, 0, 0]	n/a	catFR1	3	R1530J
1291.388	2.86	1553866	REC_WORD	2.86	n/a	CALF	FarmAnimals	-999	12	[0, 0, 0]	n/a	catFR1	3	R1530J
1294.248	0.861	1556726	REC_WORD	0.861	n/a	HEN	FarmAnimals	1	12	[0, 0, 0]	n/a	catFR1	3	R1530J
1295.109	0.951	1557587	REC_WORD	0.951	n/a	ROOSTER	FarmAnimals	10	12	[0, 0, 0]	n/a	catFR1	3	R1530J
1296.06	6.734	1558538	REC_WORD	6.734	n/a	CHICKEN	FarmAnimals	9	12	[0, 0, 0]	n/a	catFR1	3	R1530J
1302.794	2.74	1565271	REC_WORD	2.74	n/a	BASEBALL	Toys	7	12	[0, 0, 0]	n/a	catFR1	3	R1530J
1305.534	0.0	1568015	REC_END	n/a	n/a	n/a	n/a	-999	12	[0, 0, 0]	n/a	catFR1	3	R1530J
