onset	duration	sample	trial_type	response_time	stim_file	item_name	category	serialpos	list	test	answer	experiment	session	subject
0.0	0.001	103882	START	n/a	n/a	n/a	n/a	-999	-1	[-999, -999, -999]	n/a	catFR1	0	R1457T
0.001	80.015	103883	PROB	80.015	n/a	n/a	n/a	-999	-1	[8, 3, 8]	19	catFR1	0	R1457T
80.016	1.033	183900	STOP	n/a	n/a	n/a	n/a	-999	-1	[-999, -999, -999]	n/a	catFR1	0	R1457T
81.049	1.0	184933	REC_WORD_VV	1.0	n/a	<>	n/a	-999	-1	[0, 0, 0]	n/a	catFR1	0	R1457T
82.049	0.0	185933	REC_WORD_VV	0.0	n/a	<>	n/a	-999	-1	[0, 0, 0]	n/a	catFR1	0	R1457T
-31.533	0.616	207001	COUNTDOWN_START	n/a	n/a	n/a	n/a	-999	-999	[0, 0, 0]	n/a	catFR1	0	R1457T
-30.917	0.0	207611	COUNTDOWN_END	n/a	n/a	n/a	n/a	-999	-999	[0, 0, 0]	n/a	catFR1	0	R1457T
-30.917	1.883	207611	ENCODING_START	n/a	n/a	n/a	n/a	-999	-1	[0, 0, 0]	n/a	catFR1	0	R1457T
-29.034	135.729	209496	WORD	n/a	n/a	CARNATION	Flowers	1	-1	[0, 0, 0]	n/a	catFR1	0	R1457T
106.695	0.0	210580	REC_WORD_VV	0.0	n/a	<>	n/a	-999	-1	[0, 0, 0]	n/a	catFR1	0	R1457T
-27.417	0.783	211111	WORD_OFF	n/a	n/a	CARNATION	Flowers	1	-1	[0, 0, 0]	n/a	catFR1	0	R1457T
-26.634	1.617	211891	WORD	n/a	n/a	DAISY	Flowers	2	-1	[0, 0, 0]	n/a	catFR1	0	R1457T
-25.017	135.172	213506	WORD_OFF	n/a	n/a	DAISY	Flowers	2	-1	[0, 0, 0]	n/a	catFR1	0	R1457T
110.155	0.0	214041	REC_WORD_VV	0.0	n/a	<>	n/a	-999	-1	[0, 0, 0]	n/a	catFR1	0	R1457T
-24.151	1.6	214385	WORD	n/a	n/a	RATCHET	Tools	3	-1	[0, 0, 0]	n/a	catFR1	0	R1457T
-22.551	0.917	215972	WORD_OFF	n/a	n/a	RATCHET	Tools	3	-1	[0, 0, 0]	n/a	catFR1	0	R1457T
-21.634	1.616	216893	WORD	n/a	n/a	SAW	Tools	4	-1	[0, 0, 0]	n/a	catFR1	0	R1457T
-20.018	0.833	218509	WORD_OFF	n/a	n/a	SAW	Tools	4	-1	[0, 0, 0]	n/a	catFR1	0	R1457T
-19.185	1.601	219345	WORD	n/a	n/a	BANJO	Instruments	5	-1	[0, 0, 0]	n/a	catFR1	0	R1457T
-17.584	0.999	220946	WORD_OFF	n/a	n/a	BANJO	Instruments	5	-1	[0, 0, 0]	n/a	catFR1	0	R1457T
-16.585	1.6	221938	WORD	n/a	n/a	TRUMPET	Instruments	6	-1	[0, 0, 0]	n/a	catFR1	0	R1457T
-14.985	0.817	223539	WORD_OFF	n/a	n/a	TRUMPET	Instruments	6	-1	[0, 0, 0]	n/a	catFR1	0	R1457T
-14.168	1.6	224361	WORD	n/a	n/a	SCREWDRIVER	Tools	7	-1	[0, 0, 0]	n/a	catFR1	0	R1457T
-12.568	0.95	225963	WORD_OFF	n/a	n/a	SCREWDRIVER	Tools	7	-1	[0, 0, 0]	n/a	catFR1	0	R1457T
-11.618	1.617	226912	WORD	n/a	n/a	CROWBAR	Tools	8	-1	[0, 0, 0]	n/a	catFR1	0	R1457T
-10.001	0.767	228528	WORD_OFF	n/a	n/a	CROWBAR	Tools	8	-1	[0, 0, 0]	n/a	catFR1	0	R1457T
-9.234	1.617	229293	WORD	n/a	n/a	PIANO	Instruments	9	-1	[0, 0, 0]	n/a	catFR1	0	R1457T
-7.617	0.783	230909	WORD_OFF	n/a	n/a	PIANO	Instruments	9	-1	[0, 0, 0]	n/a	catFR1	0	R1457T
-6.834	1.6	231688	WORD	n/a	n/a	DRUM	Instruments	10	-1	[0, 0, 0]	n/a	catFR1	0	R1457T
-5.234	1.0	233289	WORD_OFF	n/a	n/a	DRUM	Instruments	10	-1	[0, 0, 0]	n/a	catFR1	0	R1457T
-4.234	1.617	234296	WORD	n/a	n/a	MARIGOLD	Flowers	11	-1	[0, 0, 0]	n/a	catFR1	0	R1457T
-2.617	1.0	235911	WORD_OFF	n/a	n/a	MARIGOLD	Flowers	11	-1	[0, 0, 0]	n/a	catFR1	0	R1457T
-1.617	1.616	236917	WORD	n/a	n/a	ROSE	Flowers	12	-1	[0, 0, 0]	n/a	catFR1	0	R1457T
-0.001	0.001	238533	WORD_OFF	n/a	n/a	ROSE	Flowers	12	-1	[0, 0, 0]	n/a	catFR1	0	R1457T
0.0	0.0	238533	ENCODING_END	n/a	n/a	n/a	n/a	-999	-1	[0, 0, 0]	n/a	catFR1	0	R1457T
0.0	201.299	238533	DISTRACT_START	n/a	n/a	n/a	n/a	-999	-1	[0, 0, 0]	n/a	catFR1	0	R1457T
201.299	0.001	305188	PROB	0.001	n/a	n/a	n/a	-999	1	[1, 1, 3]	5	catFR1	0	R1457T
201.3	5.466	305189	START	n/a	n/a	n/a	n/a	-999	1	[-999, -999, -999]	n/a	catFR1	0	R1457T
206.766	5.184	310655	PROB	5.184	n/a	n/a	n/a	-999	1	[1, 5, 6]	13	catFR1	0	R1457T
211.95	0.0	315839	PROB	0.0	n/a	n/a	n/a	-999	1	[2, 6, 1]	9	catFR1	0	R1457T
80.016	135.317	318545	DISTRACT_END	n/a	n/a	n/a	n/a	-999	-1	[0, 0, 0]	n/a	catFR1	0	R1457T
215.333	0.0	319222	PROB	0.0	n/a	n/a	n/a	-999	1	[7, 4, 6]	17	catFR1	0	R1457T
81.049	140.034	319579	REC_START	n/a	n/a	n/a	n/a	-999	-1	[0, 0, 0]	n/a	catFR1	0	R1457T
221.083	4.983	324973	PROB	4.983	n/a	n/a	n/a	-999	1	[7, 3, 8]	18	catFR1	0	R1457T
226.066	3.071	329956	STOP	n/a	n/a	n/a	n/a	-999	1	[-999, -999, -999]	n/a	catFR1	0	R1457T
229.137	2.851	333027	REC_WORD	2.851	n/a	MAPLE	Trees	1	1	[0, 0, 0]	n/a	catFR1	0	R1457T
231.988	5.298	335878	REC_WORD_VV	5.298	n/a	<>	n/a	-999	1	[0, 0, 0]	n/a	catFR1	0	R1457T
237.286	1.0	341176	REC_WORD	1.0	n/a	TREES	n/a	-999	1	[0, 0, 0]	n/a	catFR1	0	R1457T
238.286	0.826	342176	REC_WORD	0.826	n/a	TREES	n/a	-999	1	[0, 0, 0]	n/a	catFR1	0	R1457T
239.112	0.0	343002	REC_WORD	0.0	n/a	WILLOW	n/a	-999	1	[0, 0, 0]	n/a	catFR1	0	R1457T
112.251	25.782	350770	REC_END	n/a	n/a	n/a	n/a	-999	-1	[0, 0, 0]	n/a	catFR1	0	R1457T
138.033	10.35	376562	COUNTDOWN_START	n/a	n/a	n/a	n/a	-999	1	[0, 0, 0]	n/a	catFR1	0	R1457T
148.383	0.0	386908	COUNTDOWN_END	n/a	n/a	n/a	n/a	-999	1	[0, 0, 0]	n/a	catFR1	0	R1457T
148.383	157.133	386908	ENCODING_START	n/a	n/a	n/a	n/a	-999	1	[0, 0, 0]	n/a	catFR1	0	R1457T
305.516	0.001	409409	PROB	0.001	n/a	n/a	n/a	-999	2	[3, 4, 4]	11	catFR1	0	R1457T
305.517	0.0	409410	START	n/a	n/a	n/a	n/a	-999	2	[-999, -999, -999]	n/a	catFR1	0	R1457T
171.932	1.6	410446	WORD	n/a	wordpools/wordpool_categorized_EN.txt	MAPLE	Trees	1	1	[0, 0, 0]	n/a	catFR1	0	R1457T
173.532	0.967	412062	WORD_OFF	n/a	n/a	MAPLE	Trees	1	1	[0, 0, 0]	n/a	catFR1	0	R1457T
174.499	1.617	413025	WORD	n/a	wordpools/wordpool_categorized_EN.txt	WALNUT	Trees	2	1	[0, 0, 0]	n/a	catFR1	0	R1457T
176.116	135.45	414641	WORD_OFF	n/a	n/a	WALNUT	Trees	2	1	[0, 0, 0]	n/a	catFR1	0	R1457T
311.566	0.0	415459	PROB	0.0	n/a	n/a	n/a	-999	2	[8, 5, 4]	17	catFR1	0	R1457T
176.966	1.6	415491	WORD	n/a	wordpools/wordpool_categorized_EN.txt	CLOUD	Weather	3	1	[0, 0, 0]	n/a	catFR1	0	R1457T
178.566	0.817	417078	WORD_OFF	n/a	n/a	CLOUD	Weather	3	1	[0, 0, 0]	n/a	catFR1	0	R1457T
179.383	1.616	417900	WORD	n/a	wordpools/wordpool_categorized_EN.txt	HUMIDITY	Weather	4	1	[0, 0, 0]	n/a	catFR1	0	R1457T
180.999	0.95	419516	WORD_OFF	n/a	n/a	HUMIDITY	Weather	4	1	[0, 0, 0]	n/a	catFR1	0	R1457T
181.949	134.634	420465	WORD	n/a	wordpools/wordpool_categorized_EN.txt	OCTOPUS	OceanAnimals	5	1	[0, 0, 0]	n/a	catFR1	0	R1457T
316.583	0.0	420476	PROB	0.0	n/a	n/a	n/a	-999	2	[3, 7, 5]	15	catFR1	0	R1457T
183.566	0.95	422081	WORD_OFF	n/a	n/a	OCTOPUS	OceanAnimals	5	1	[0, 0, 0]	n/a	catFR1	0	R1457T
184.516	135.65	423030	WORD	n/a	wordpools/wordpool_categorized_EN.txt	SHRIMP	OceanAnimals	6	1	[0, 0, 0]	n/a	catFR1	0	R1457T
320.166	0.0	424059	PROB	0.0	n/a	n/a	n/a	-999	2	[2, 4, 2]	8	catFR1	0	R1457T
186.116	0.967	424632	WORD_OFF	n/a	n/a	SHRIMP	OceanAnimals	6	1	[0, 0, 0]	n/a	catFR1	0	R1457T
187.083	1.616	425595	WORD	n/a	wordpools/wordpool_categorized_EN.txt	PINE	Trees	7	1	[0, 0, 0]	n/a	catFR1	0	R1457T
188.699	135.034	427211	WORD_OFF	n/a	n/a	PINE	Trees	7	1	[0, 0, 0]	n/a	catFR1	0	R1457T
323.733	0.0	427626	PROB	0.0	n/a	n/a	n/a	-999	2	[4, 8, 4]	16	catFR1	0	R1457T
189.584	1.616	428104	WORD	n/a	wordpools/wordpool_categorized_EN.txt	SPRUCE	Trees	8	1	[0, 0, 0]	n/a	catFR1	0	R1457T
191.2	0.983	429719	WORD_OFF	n/a	n/a	SPRUCE	Trees	8	1	[0, 0, 0]	n/a	catFR1	0	R1457T
192.183	136.099	430697	WORD	n/a	wordpools/wordpool_categorized_EN.txt	WHALE	OceanAnimals	9	1	[0, 0, 0]	n/a	catFR1	0	R1457T
328.282	0.0	432175	STOP	n/a	n/a	n/a	n/a	-999	2	[-999, -999, -999]	n/a	catFR1	0	R1457T
193.799	0.966	432313	WORD_OFF	n/a	n/a	WHALE	OceanAnimals	9	1	[0, 0, 0]	n/a	catFR1	0	R1457T
194.765	1.601	433276	WORD	n/a	wordpools/wordpool_categorized_EN.txt	LOBSTER	OceanAnimals	10	1	[0, 0, 0]	n/a	catFR1	0	R1457T
196.366	0.883	434878	WORD_OFF	n/a	n/a	LOBSTER	OceanAnimals	10	1	[0, 0, 0]	n/a	catFR1	0	R1457T
197.249	1.6	435771	WORD	n/a	wordpools/wordpool_categorized_EN.txt	RAIN	Weather	11	1	[0, 0, 0]	n/a	catFR1	0	R1457T
198.849	0.834	437372	WORD_OFF	n/a	n/a	RAIN	Weather	11	1	[0, 0, 0]	n/a	catFR1	0	R1457T
199.683	135.86	438194	WORD	n/a	wordpools/wordpool_categorized_EN.txt	WIND	Weather	12	1	[0, 0, 0]	n/a	catFR1	0	R1457T
335.543	0.0	439437	REC_WORD	0.0	n/a	DRIZZLE	Weather	1	2	[0, 0, 0]	n/a	catFR1	0	R1457T
201.298	0.002	439809	WORD_OFF	n/a	n/a	WIND	Weather	12	1	[0, 0, 0]	n/a	catFR1	0	R1457T
201.3	0.0	439824	ENCODING_END	n/a	n/a	n/a	n/a	-999	1	[0, 0, 0]	n/a	catFR1	0	R1457T
201.3	149.865	439824	DISTRACT_START	n/a	n/a	n/a	n/a	-999	1	[0, 0, 0]	n/a	catFR1	0	R1457T
351.165	1.0	455059	REC_WORD_VV	1.0	n/a	<>	n/a	-999	2	[0, 0, 0]	n/a	catFR1	0	R1457T
352.165	0.0	456059	REC_WORD_VV	0.0	n/a	<>	n/a	-999	2	[0, 0, 0]	n/a	catFR1	0	R1457T
226.066	1.25	464581	DISTRACT_END	n/a	n/a	n/a	n/a	-999	1	[0, 0, 0]	n/a	catFR1	0	R1457T
227.316	31.202	465828	REC_START	n/a	n/a	n/a	n/a	-999	1	[0, 0, 0]	n/a	catFR1	0	R1457T
258.518	5.565	497034	REC_END	n/a	n/a	n/a	n/a	-999	1	[0, 0, 0]	n/a	catFR1	0	R1457T
264.083	141.183	502603	COUNTDOWN_START	n/a	n/a	n/a	n/a	-999	1	[0, 0, 0]	n/a	catFR1	0	R1457T
405.266	0.002	509162	PROB	0.002	n/a	n/a	n/a	-999	3	[5, 7, 5]	17	catFR1	0	R1457T
405.268	0.0	509164	START	n/a	n/a	n/a	n/a	-999	3	[-999, -999, -999]	n/a	catFR1	0	R1457T
274.433	0.0	512948	COUNTDOWN_END	n/a	n/a	n/a	n/a	-999	1	[0, 0, 0]	n/a	catFR1	0	R1457T
274.433	136.282	512948	ENCODING_START	n/a	n/a	n/a	n/a	-999	2	[0, 0, 0]	n/a	catFR1	0	R1457T
410.715	0.0	514611	PROB	0.0	n/a	n/a	n/a	-999	3	[8, 8, 6]	22	catFR1	0	R1457T
276.483	1.616	515003	WORD	n/a	wordpools/wordpool_categorized_EN.txt	DRIZZLE	Weather	1	2	[0, 0, 0]	n/a	catFR1	0	R1457T
278.099	0.917	516618	WORD_OFF	n/a	n/a	DRIZZLE	Weather	1	2	[0, 0, 0]	n/a	catFR1	0	R1457T
279.016	1.617	517525	WORD	n/a	wordpools/wordpool_categorized_EN.txt	SNOW	Weather	2	2	[0, 0, 0]	n/a	catFR1	0	R1457T
280.633	135.3	519141	WORD_OFF	n/a	n/a	SNOW	Weather	2	2	[0, 0, 0]	n/a	catFR1	0	R1457T
415.933	0.0	519830	PROB	0.0	n/a	n/a	n/a	-999	3	[5, 8, 4]	17	catFR1	0	R1457T
281.616	1.6	520133	WORD	n/a	wordpools/wordpool_categorized_EN.txt	VAN	Vehicles	3	2	[0, 0, 0]	n/a	catFR1	0	R1457T
283.216	0.983	521734	WORD_OFF	n/a	n/a	VAN	Vehicles	3	2	[0, 0, 0]	n/a	catFR1	0	R1457T
284.199	1.6	522712	WORD	n/a	wordpools/wordpool_categorized_EN.txt	SCOOTER	Vehicles	4	2	[0, 0, 0]	n/a	catFR1	0	R1457T
285.799	0.917	524314	WORD_OFF	n/a	n/a	SCOOTER	Vehicles	4	2	[0, 0, 0]	n/a	catFR1	0	R1457T
286.716	135.235	525235	WORD	n/a	wordpools/wordpool_categorized_EN.txt	SPINACH	Vegetables	5	2	[0, 0, 0]	n/a	catFR1	0	R1457T
421.951	0.0	525848	PROB	0.0	n/a	n/a	n/a	-999	3	[1, 6, 5]	12	catFR1	0	R1457T
288.316	0.8	526836	WORD_OFF	n/a	n/a	SPINACH	Vegetables	5	2	[0, 0, 0]	n/a	catFR1	0	R1457T
289.116	135.584	527630	WORD	n/a	wordpools/wordpool_categorized_EN.txt	CELERY	Vegetables	6	2	[0, 0, 0]	n/a	catFR1	0	R1457T
424.7	0.0	528597	PROB	0.0	n/a	n/a	n/a	-999	3	[8, 3, 5]	16	catFR1	0	R1457T
290.733	0.799	529245	WORD_OFF	n/a	n/a	CELERY	Vegetables	6	2	[0, 0, 0]	n/a	catFR1	0	R1457T
291.532	1.6	530039	WORD	n/a	wordpools/wordpool_categorized_EN.txt	THUNDERSTORM	Weather	7	2	[0, 0, 0]	n/a	catFR1	0	R1457T
293.132	0.867	531640	WORD_OFF	n/a	n/a	THUNDERSTORM	Weather	7	2	[0, 0, 0]	n/a	catFR1	0	R1457T
293.999	135.35	532519	WORD	n/a	wordpools/wordpool_categorized_EN.txt	FOG	Weather	8	2	[0, 0, 0]	n/a	catFR1	0	R1457T
429.349	0.0	533246	STOP	n/a	n/a	n/a	n/a	-999	3	[-999, -999, -999]	n/a	catFR1	0	R1457T
295.599	0.867	534106	WORD_OFF	n/a	n/a	FOG	Weather	8	2	[0, 0, 0]	n/a	catFR1	0	R1457T
296.466	135.425	534985	WORD	n/a	wordpools/wordpool_categorized_EN.txt	JEEP	Vehicles	9	2	[0, 0, 0]	n/a	catFR1	0	R1457T
431.891	0.0	535788	REC_WORD	0.0	n/a	SPIDER	Insects	3	3	[0, 0, 0]	n/a	catFR1	0	R1457T
298.082	0.951	536600	WORD_OFF	n/a	n/a	JEEP	Vehicles	9	2	[0, 0, 0]	n/a	catFR1	0	R1457T
299.033	1.6	537550	WORD	n/a	wordpools/wordpool_categorized_EN.txt	MOPED	Vehicles	10	2	[0, 0, 0]	n/a	catFR1	0	R1457T
300.633	0.799	539151	WORD_OFF	n/a	n/a	MOPED	Vehicles	10	2	[0, 0, 0]	n/a	catFR1	0	R1457T
301.432	1.617	539945	WORD	n/a	wordpools/wordpool_categorized_EN.txt	CARROT	Vegetables	11	2	[0, 0, 0]	n/a	catFR1	0	R1457T
303.049	0.867	541560	WORD_OFF	n/a	n/a	CARROT	Vegetables	11	2	[0, 0, 0]	n/a	catFR1	0	R1457T
303.916	1.6	542425	WORD	n/a	wordpools/wordpool_categorized_EN.txt	POTATO	Vegetables	12	2	[0, 0, 0]	n/a	catFR1	0	R1457T
305.516	0.001	544026	WORD_OFF	n/a	n/a	POTATO	Vegetables	12	2	[0, 0, 0]	n/a	catFR1	0	R1457T
305.517	0.0	544026	ENCODING_END	n/a	n/a	n/a	n/a	-999	2	[0, 0, 0]	n/a	catFR1	0	R1457T
305.517	135.72	544026	DISTRACT_START	n/a	n/a	n/a	n/a	-999	2	[0, 0, 0]	n/a	catFR1	0	R1457T
441.237	0.0	545135	REC_WORD	0.0	n/a	BEETLE	Insects	4	3	[0, 0, 0]	n/a	catFR1	0	R1457T
328.282	1.401	566799	DISTRACT_END	n/a	n/a	n/a	n/a	-999	2	[0, 0, 0]	n/a	catFR1	0	R1457T
329.683	31.196	568188	REC_START	n/a	n/a	n/a	n/a	-999	2	[0, 0, 0]	n/a	catFR1	0	R1457T
360.879	2.837	599394	REC_END	n/a	n/a	n/a	n/a	-999	2	[0, 0, 0]	n/a	catFR1	0	R1457T
363.716	142.318	602228	COUNTDOWN_START	n/a	n/a	n/a	n/a	-999	2	[0, 0, 0]	n/a	catFR1	0	R1457T
506.034	0.0	609934	START	n/a	n/a	n/a	n/a	-999	4	[-999, -999, -999]	n/a	catFR1	0	R1457T
506.034	0.0	609934	PROB	0.0	n/a	n/a	n/a	-999	4	[3, 6, 2]	10	catFR1	0	R1457T
374.065	0.0	612573	COUNTDOWN_END	n/a	n/a	n/a	n/a	-999	2	[0, 0, 0]	n/a	catFR1	0	R1457T
374.065	2.151	612573	ENCODING_START	n/a	n/a	n/a	n/a	-999	3	[0, 0, 0]	n/a	catFR1	0	R1457T
376.216	135.5	614727	WORD	n/a	wordpools/wordpool_categorized_EN.txt	CHEETAH	Zoo	1	3	[0, 0, 0]	n/a	catFR1	0	R1457T
511.716	0.0	615616	PROB	0.0	n/a	n/a	n/a	-999	4	[7, 4, 2]	13	catFR1	0	R1457T
377.816	0.867	616329	WORD_OFF	n/a	n/a	CHEETAH	Zoo	1	3	[0, 0, 0]	n/a	catFR1	0	R1457T
378.683	1.599	617193	WORD	n/a	wordpools/wordpool_categorized_EN.txt	ELEPHANT	Zoo	2	3	[0, 0, 0]	n/a	catFR1	0	R1457T
380.282	134.885	618794	WORD_OFF	n/a	n/a	ELEPHANT	Zoo	2	3	[0, 0, 0]	n/a	catFR1	0	R1457T
515.167	0.0	619067	PROB	0.0	n/a	n/a	n/a	-999	4	[6, 8, 1]	15	catFR1	0	R1457T
381.199	1.616	619701	WORD	n/a	wordpools/wordpool_categorized_EN.txt	SPIDER	Insects	3	3	[0, 0, 0]	n/a	catFR1	0	R1457T
382.815	0.967	621317	WORD_OFF	n/a	n/a	SPIDER	Insects	3	3	[0, 0, 0]	n/a	catFR1	0	R1457T
383.782	1.601	622295	WORD	n/a	wordpools/wordpool_categorized_EN.txt	BEETLE	Insects	4	3	[0, 0, 0]	n/a	catFR1	0	R1457T
385.383	134.817	623896	WORD_OFF	n/a	n/a	BEETLE	Insects	4	3	[0, 0, 0]	n/a	catFR1	0	R1457T
520.2	0.0	624100	PROB	0.0	n/a	n/a	n/a	-999	4	[6, 7, 4]	17	catFR1	0	R1457T
386.299	1.617	624803	WORD	n/a	wordpools/wordpool_categorized_EN.txt	ORGAN	Instruments	5	3	[0, 0, 0]	n/a	catFR1	0	R1457T
387.916	0.883	626419	WORD_OFF	n/a	n/a	ORGAN	Instruments	5	3	[0, 0, 0]	n/a	catFR1	0	R1457T
388.799	1.617	627311	WORD	n/a	wordpools/wordpool_categorized_EN.txt	FLUTE	Instruments	6	3	[0, 0, 0]	n/a	catFR1	0	R1457T
390.416	135.283	628927	WORD_OFF	n/a	n/a	FLUTE	Instruments	6	3	[0, 0, 0]	n/a	catFR1	0	R1457T
525.699	0.0	629600	PROB	0.0	n/a	n/a	n/a	-999	4	[5, 8, 4]	17	catFR1	0	R1457T
391.333	1.6	629834	WORD	n/a	wordpools/wordpool_categorized_EN.txt	LION	Zoo	7	3	[0, 0, 0]	n/a	catFR1	0	R1457T
392.933	0.865	631435	WORD_OFF	n/a	n/a	LION	Zoo	7	3	[0, 0, 0]	n/a	catFR1	0	R1457T
393.798	1.601	632300	WORD	n/a	wordpools/wordpool_categorized_EN.txt	GORILLA	Zoo	8	3	[0, 0, 0]	n/a	catFR1	0	R1457T
395.399	0.766	633901	WORD_OFF	n/a	n/a	GORILLA	Zoo	8	3	[0, 0, 0]	n/a	catFR1	0	R1457T
396.165	135.916	634666	WORD	n/a	wordpools/wordpool_categorized_EN.txt	TUBA	Instruments	9	3	[0, 0, 0]	n/a	catFR1	0	R1457T
532.081	0.0	635982	STOP	n/a	n/a	n/a	n/a	-999	4	[-999, -999, -999]	n/a	catFR1	0	R1457T
397.783	0.899	636296	WORD_OFF	n/a	n/a	TUBA	Instruments	9	3	[0, 0, 0]	n/a	catFR1	0	R1457T
398.682	135.71	637189	WORD	n/a	wordpools/wordpool_categorized_EN.txt	VIOLIN	Instruments	10	3	[0, 0, 0]	n/a	catFR1	0	R1457T
534.392	0.0	638293	REC_WORD	0.0	n/a	STAPLER	OfficeSupplies	4	4	[0, 0, 0]	n/a	catFR1	0	R1457T
400.282	135.11	638790	WORD_OFF	n/a	n/a	VIOLIN	Instruments	10	3	[0, 0, 0]	n/a	catFR1	0	R1457T
535.392	0.0	639293	REC_WORD	0.0	n/a	STAPLER	OfficeSupplies	4	4	[0, 0, 0]	n/a	catFR1	0	R1457T
401.199	134.615	639711	WORD	n/a	wordpools/wordpool_categorized_EN.txt	CRICKET	Insects	11	3	[0, 0, 0]	n/a	catFR1	0	R1457T
535.814	0.0	639715	REC_WORD	0.0	n/a	RULER	OfficeSupplies	3	4	[0, 0, 0]	n/a	catFR1	0	R1457T
402.815	0.851	641327	WORD_OFF	n/a	n/a	CRICKET	Insects	11	3	[0, 0, 0]	n/a	catFR1	0	R1457T
403.666	136.042	642177	WORD	n/a	wordpools/wordpool_categorized_EN.txt	ROACH	Insects	12	3	[0, 0, 0]	n/a	catFR1	0	R1457T
539.708	0.0	643609	REC_WORD	0.0	n/a	BUS	Vehicles	1	4	[0, 0, 0]	n/a	catFR1	0	R1457T
405.266	0.002	643779	WORD_OFF	n/a	n/a	ROACH	Insects	12	3	[0, 0, 0]	n/a	catFR1	0	R1457T
405.268	0.0	643779	ENCODING_END	n/a	n/a	n/a	n/a	-999	3	[0, 0, 0]	n/a	catFR1	0	R1457T
405.268	140.769	643779	DISTRACT_START	n/a	n/a	n/a	n/a	-999	3	[0, 0, 0]	n/a	catFR1	0	R1457T
546.037	0.0	649938	REC_WORD	0.0	n/a	CAR	Vehicles	2	4	[0, 0, 0]	n/a	catFR1	0	R1457T
429.349	1.083	667856	DISTRACT_END	n/a	n/a	n/a	n/a	-999	3	[0, 0, 0]	n/a	catFR1	0	R1457T
430.432	31.202	668933	REC_START	n/a	n/a	n/a	n/a	-999	3	[0, 0, 0]	n/a	catFR1	0	R1457T
461.634	2.75	700138	REC_END	n/a	n/a	n/a	n/a	-999	3	[0, 0, 0]	n/a	catFR1	0	R1457T
464.384	10.348	702888	COUNTDOWN_START	n/a	n/a	n/a	n/a	-999	3	[0, 0, 0]	n/a	catFR1	0	R1457T
474.732	0.0	713233	COUNTDOWN_END	n/a	n/a	n/a	n/a	-999	3	[0, 0, 0]	n/a	catFR1	0	R1457T
474.732	134.719	713233	ENCODING_START	n/a	n/a	n/a	n/a	-999	4	[0, 0, 0]	n/a	catFR1	0	R1457T
609.451	0.001	713355	START	n/a	n/a	n/a	n/a	-999	5	[-999, -999, -999]	n/a	catFR1	0	R1457T
609.452	0.0	713356	PROB	0.0	n/a	n/a	n/a	-999	5	[5, 3, 2]	10	catFR1	0	R1457T
476.899	1.616	715401	WORD	n/a	wordpools/wordpool_categorized_EN.txt	BUS	Vehicles	1	4	[0, 0, 0]	n/a	catFR1	0	R1457T
478.515	0.884	717016	WORD_OFF	n/a	n/a	BUS	Vehicles	1	4	[0, 0, 0]	n/a	catFR1	0	R1457T
479.399	135.233	717909	WORD	n/a	wordpools/wordpool_categorized_EN.txt	CAR	Vehicles	2	4	[0, 0, 0]	n/a	catFR1	0	R1457T
614.632	0.0	718536	PROB	0.0	n/a	n/a	n/a	-999	5	[6, 1, 3]	10	catFR1	0	R1457T
481.016	1.0	719525	WORD_OFF	n/a	n/a	CAR	Vehicles	2	4	[0, 0, 0]	n/a	catFR1	0	R1457T
482.016	135.884	720517	WORD	n/a	wordpools/wordpool_categorized_EN.txt	RULER	OfficeSupplies	3	4	[0, 0, 0]	n/a	catFR1	0	R1457T
617.9	0.0	721804	PROB	0.0	n/a	n/a	n/a	-999	5	[8, 7, 4]	19	catFR1	0	R1457T
483.632	0.984	722132	WORD_OFF	n/a	n/a	RULER	OfficeSupplies	3	4	[0, 0, 0]	n/a	catFR1	0	R1457T
484.616	1.617	723124	WORD	n/a	wordpools/wordpool_categorized_EN.txt	STAPLER	OfficeSupplies	4	4	[0, 0, 0]	n/a	catFR1	0	R1457T
486.233	0.783	724740	WORD_OFF	n/a	n/a	STAPLER	OfficeSupplies	4	4	[0, 0, 0]	n/a	catFR1	0	R1457T
487.016	1.616	725519	WORD	n/a	wordpools/wordpool_categorized_EN.txt	FREEZER	Appliances	5	4	[0, 0, 0]	n/a	catFR1	0	R1457T
488.632	0.801	727135	WORD_OFF	n/a	n/a	FREEZER	Appliances	5	4	[0, 0, 0]	n/a	catFR1	0	R1457T
489.433	135.467	727943	WORD	n/a	wordpools/wordpool_categorized_EN.txt	IRON	Appliances	6	4	[0, 0, 0]	n/a	catFR1	0	R1457T
624.9	0.0	728804	PROB	0.0	n/a	n/a	n/a	-999	5	[2, 3, 2]	7	catFR1	0	R1457T
491.048	0.816	729558	WORD_OFF	n/a	n/a	IRON	Appliances	6	4	[0, 0, 0]	n/a	catFR1	0	R1457T
491.864	1.602	730366	WORD	n/a	wordpools/wordpool_categorized_EN.txt	PEN	OfficeSupplies	7	4	[0, 0, 0]	n/a	catFR1	0	R1457T
493.466	0.883	731967	WORD_OFF	n/a	n/a	PEN	OfficeSupplies	7	4	[0, 0, 0]	n/a	catFR1	0	R1457T
494.349	135.349	732860	WORD	n/a	wordpools/wordpool_categorized_EN.txt	BINDER	OfficeSupplies	8	4	[0, 0, 0]	n/a	catFR1	0	R1457T
629.698	0.0	733602	STOP	n/a	n/a	n/a	n/a	-999	5	[-999, -999, -999]	n/a	catFR1	0	R1457T
495.949	0.95	734447	WORD_OFF	n/a	n/a	BINDER	OfficeSupplies	8	4	[0, 0, 0]	n/a	catFR1	0	R1457T
496.899	1.616	735397	WORD	n/a	wordpools/wordpool_categorized_EN.txt	TRAIN	Vehicles	9	4	[0, 0, 0]	n/a	catFR1	0	R1457T
498.515	0.967	737012	WORD_OFF	n/a	n/a	TRAIN	Vehicles	9	4	[0, 0, 0]	n/a	catFR1	0	R1457T
499.482	135.806	737990	WORD	n/a	wordpools/wordpool_categorized_EN.txt	MOTORCYCLE	Vehicles	10	4	[0, 0, 0]	n/a	catFR1	0	R1457T
635.288	0.0	739193	REC_WORD_VV	0.0	n/a	<>	n/a	-999	5	[0, 0, 0]	n/a	catFR1	0	R1457T
501.083	135.205	739592	WORD_OFF	n/a	n/a	MOTORCYCLE	Vehicles	10	4	[0, 0, 0]	n/a	catFR1	0	R1457T
636.288	0.0	740193	REC_WORD_VV	0.0	n/a	<>	n/a	-999	5	[0, 0, 0]	n/a	catFR1	0	R1457T
501.882	1.617	740385	WORD	n/a	wordpools/wordpool_categorized_EN.txt	REFRIGERATOR	Appliances	11	4	[0, 0, 0]	n/a	catFR1	0	R1457T
503.499	0.934	742001	WORD_OFF	n/a	n/a	REFRIGERATOR	Appliances	11	4	[0, 0, 0]	n/a	catFR1	0	R1457T
504.433	1.6	742936	WORD	n/a	wordpools/wordpool_categorized_EN.txt	DISHWASHER	Appliances	12	4	[0, 0, 0]	n/a	catFR1	0	R1457T
506.033	0.001	744537	WORD_OFF	n/a	n/a	DISHWASHER	Appliances	12	4	[0, 0, 0]	n/a	catFR1	0	R1457T
506.034	0.0	744537	ENCODING_END	n/a	n/a	n/a	n/a	-999	4	[0, 0, 0]	n/a	catFR1	0	R1457T
506.034	142.865	744537	DISTRACT_START	n/a	n/a	n/a	n/a	-999	4	[0, 0, 0]	n/a	catFR1	0	R1457T
648.899	2.459	752804	REC_WORD	2.459	n/a	PLUM	Fruit	1	5	[0, 0, 0]	n/a	catFR1	0	R1457T
651.358	0.0	755263	REC_WORD	0.0	n/a	BLUEBERRY	Fruit	11	5	[0, 0, 0]	n/a	catFR1	0	R1457T
532.081	1.217	770584	DISTRACT_END	n/a	n/a	n/a	n/a	-999	4	[0, 0, 0]	n/a	catFR1	0	R1457T
533.298	31.236	771803	REC_START	n/a	n/a	n/a	n/a	-999	4	[0, 0, 0]	n/a	catFR1	0	R1457T
564.534	3.583	803037	REC_END	n/a	n/a	n/a	n/a	-999	4	[0, 0, 0]	n/a	catFR1	0	R1457T
568.117	138.266	806622	COUNTDOWN_START	n/a	n/a	n/a	n/a	-999	4	[0, 0, 0]	n/a	catFR1	0	R1457T
706.383	0.001	810290	PROB	0.001	n/a	n/a	n/a	-999	6	[1, 8, 2]	11	catFR1	0	R1457T
706.384	0.0	810291	START	n/a	n/a	n/a	n/a	-999	6	[-999, -999, -999]	n/a	catFR1	0	R1457T
578.466	0.0	816967	COUNTDOWN_END	n/a	n/a	n/a	n/a	-999	4	[0, 0, 0]	n/a	catFR1	0	R1457T
578.466	135.0	816967	ENCODING_START	n/a	n/a	n/a	n/a	-999	5	[0, 0, 0]	n/a	catFR1	0	R1457T
713.466	0.0	817373	PROB	0.0	n/a	n/a	n/a	-999	6	[6, 6, 1]	13	catFR1	0	R1457T
580.483	1.615	818980	WORD	n/a	wordpools/wordpool_categorized_EN.txt	PLUM	Fruit	1	5	[0, 0, 0]	n/a	catFR1	0	R1457T
582.098	135.418	820595	WORD_OFF	n/a	n/a	PLUM	Fruit	1	5	[0, 0, 0]	n/a	catFR1	0	R1457T
717.516	0.0	821424	PROB	0.0	n/a	n/a	n/a	-999	6	[7, 2, 6]	14	catFR1	0	R1457T
583.033	1.6	821531	WORD	n/a	wordpools/wordpool_categorized_EN.txt	PEAR	Fruit	2	5	[0, 0, 0]	n/a	catFR1	0	R1457T
584.633	0.815	823132	WORD_OFF	n/a	n/a	PEAR	Fruit	2	5	[0, 0, 0]	n/a	catFR1	0	R1457T
585.448	1.601	823940	WORD	n/a	wordpools/wordpool_categorized_EN.txt	PLANKTON	OceanAnimals	3	5	[0, 0, 0]	n/a	catFR1	0	R1457T
587.049	134.801	825541	WORD_OFF	n/a	n/a	PLANKTON	OceanAnimals	3	5	[0, 0, 0]	n/a	catFR1	0	R1457T
721.85	0.0	825758	PROB	0.0	n/a	n/a	n/a	-999	6	[7, 2, 6]	15	catFR1	0	R1457T
588.032	1.616	826533	WORD	n/a	wordpools/wordpool_categorized_EN.txt	TURTLE	OceanAnimals	4	5	[0, 0, 0]	n/a	catFR1	0	R1457T
589.648	0.784	828149	WORD_OFF	n/a	n/a	TURTLE	OceanAnimals	4	5	[0, 0, 0]	n/a	catFR1	0	R1457T
590.432	1.601	828928	WORD	n/a	wordpools/wordpool_categorized_EN.txt	SHIRT	Clothing	5	5	[0, 0, 0]	n/a	catFR1	0	R1457T
592.033	0.849	830530	WORD_OFF	n/a	n/a	SHIRT	Clothing	5	5	[0, 0, 0]	n/a	catFR1	0	R1457T
592.882	1.616	831380	WORD	n/a	wordpools/wordpool_categorized_EN.txt	PANTS	Clothing	6	5	[0, 0, 0]	n/a	catFR1	0	R1457T
594.498	0.901	832995	WORD_OFF	n/a	n/a	PANTS	Clothing	6	5	[0, 0, 0]	n/a	catFR1	0	R1457T
595.399	135.166	833902	WORD	n/a	wordpools/wordpool_categorized_EN.txt	SQUID	OceanAnimals	7	5	[0, 0, 0]	n/a	catFR1	0	R1457T
730.565	0.0	834473	STOP	n/a	n/a	n/a	n/a	-999	6	[-999, -999, -999]	n/a	catFR1	0	R1457T
597.016	0.983	835518	WORD_OFF	n/a	n/a	SQUID	OceanAnimals	7	5	[0, 0, 0]	n/a	catFR1	0	R1457T
597.999	136.199	836496	WORD	n/a	wordpools/wordpool_categorized_EN.txt	OYSTER	OceanAnimals	8	5	[0, 0, 0]	n/a	catFR1	0	R1457T
734.198	0.0	838106	REC_WORD_VV	0.0	n/a	<>	n/a	-999	6	[0, 0, 0]	n/a	catFR1	0	R1457T
599.616	0.848	838111	WORD_OFF	n/a	n/a	OYSTER	OceanAnimals	8	5	[0, 0, 0]	n/a	catFR1	0	R1457T
600.464	135.387	838962	WORD	n/a	wordpools/wordpool_categorized_EN.txt	UNDERWEAR	Clothing	9	5	[0, 0, 0]	n/a	catFR1	0	R1457T
735.851	0.0	839759	REC_WORD	0.0	n/a	TEA	Beverages	1	6	[0, 0, 0]	n/a	catFR1	0	R1457T
602.066	135.16	840563	WORD_OFF	n/a	n/a	UNDERWEAR	Clothing	9	5	[0, 0, 0]	n/a	catFR1	0	R1457T
737.226	0.0	841134	REC_WORD	0.0	n/a	BEER	Beverages	2	6	[0, 0, 0]	n/a	catFR1	0	R1457T
602.832	1.617	841328	WORD	n/a	wordpools/wordpool_categorized_EN.txt	JACKET	Clothing	10	5	[0, 0, 0]	n/a	catFR1	0	R1457T
604.449	0.834	842944	WORD_OFF	n/a	n/a	JACKET	Clothing	10	5	[0, 0, 0]	n/a	catFR1	0	R1457T
605.283	134.852	843780	WORD	n/a	wordpools/wordpool_categorized_EN.txt	BLUEBERRY	Fruit	11	5	[0, 0, 0]	n/a	catFR1	0	R1457T
740.135	0.0	844043	REC_WORD_VV	0.0	n/a	<>	n/a	-999	6	[0, 0, 0]	n/a	catFR1	0	R1457T
606.883	0.966	845381	WORD_OFF	n/a	n/a	BLUEBERRY	Fruit	11	5	[0, 0, 0]	n/a	catFR1	0	R1457T
607.849	1.6	846345	WORD	n/a	wordpools/wordpool_categorized_EN.txt	GRAPE	Fruit	12	5	[0, 0, 0]	n/a	catFR1	0	R1457T
609.449	0.002	847946	WORD_OFF	n/a	n/a	GRAPE	Fruit	12	5	[0, 0, 0]	n/a	catFR1	0	R1457T
609.451	0.0	847946	ENCODING_END	n/a	n/a	n/a	n/a	-999	5	[0, 0, 0]	n/a	catFR1	0	R1457T
609.451	140.904	847946	DISTRACT_START	n/a	n/a	n/a	n/a	-999	5	[0, 0, 0]	n/a	catFR1	0	R1457T
750.355	8.518	854264	REC_WORD	8.518	n/a	WINE	Beverages	9	6	[0, 0, 0]	n/a	catFR1	0	R1457T
758.873	0.0	862782	REC_WORD_VV	0.0	n/a	<>	n/a	-999	6	[0, 0, 0]	n/a	catFR1	0	R1457T
629.698	1.201	868197	DISTRACT_END	n/a	n/a	n/a	n/a	-999	5	[0, 0, 0]	n/a	catFR1	0	R1457T
630.899	31.242	869388	REC_START	n/a	n/a	n/a	n/a	-999	5	[0, 0, 0]	n/a	catFR1	0	R1457T
662.141	2.591	900636	REC_END	n/a	n/a	n/a	n/a	-999	5	[0, 0, 0]	n/a	catFR1	0	R1457T
664.732	142.584	903229	COUNTDOWN_START	n/a	n/a	n/a	n/a	-999	5	[0, 0, 0]	n/a	catFR1	0	R1457T
807.316	0.001	911227	PROB	0.001	n/a	n/a	n/a	-999	7	[7, 2, 4]	16	catFR1	0	R1457T
807.317	0.0	911228	START	n/a	n/a	n/a	n/a	-999	7	[-999, -999, -999]	n/a	catFR1	0	R1457T
675.082	0.0	913574	COUNTDOWN_END	n/a	n/a	n/a	n/a	-999	5	[0, 0, 0]	n/a	catFR1	0	R1457T
675.082	1.851	913574	ENCODING_START	n/a	n/a	n/a	n/a	-999	6	[0, 0, 0]	n/a	catFR1	0	R1457T
676.933	1.616	915430	WORD	n/a	wordpools/wordpool_categorized_EN.txt	TEA	Beverages	1	6	[0, 0, 0]	n/a	catFR1	0	R1457T
678.549	0.983	917046	WORD_OFF	n/a	n/a	TEA	Beverages	1	6	[0, 0, 0]	n/a	catFR1	0	R1457T
679.532	1.601	918024	WORD	n/a	wordpools/wordpool_categorized_EN.txt	BEER	Beverages	2	6	[0, 0, 0]	n/a	catFR1	0	R1457T
681.133	135.484	919625	WORD_OFF	n/a	n/a	BEER	Beverages	2	6	[0, 0, 0]	n/a	catFR1	0	R1457T
816.617	0.0	920528	PROB	0.0	n/a	n/a	n/a	-999	7	[7, 4, 3]	10	catFR1	0	R1457T
682.116	1.6	920603	WORD	n/a	wordpools/wordpool_categorized_EN.txt	LEVEL	Tools	3	6	[0, 0, 0]	n/a	catFR1	0	R1457T
683.716	0.866	922204	WORD_OFF	n/a	n/a	LEVEL	Tools	3	6	[0, 0, 0]	n/a	catFR1	0	R1457T
684.582	1.6	923069	WORD	n/a	wordpools/wordpool_categorized_EN.txt	SANDER	Tools	4	6	[0, 0, 0]	n/a	catFR1	0	R1457T
686.182	0.968	924670	WORD_OFF	n/a	n/a	SANDER	Tools	4	6	[0, 0, 0]	n/a	catFR1	0	R1457T
687.15	1.616	925648	WORD	n/a	wordpools/wordpool_categorized_EN.txt	ARM	BodyParts	5	6	[0, 0, 0]	n/a	catFR1	0	R1457T
688.766	0.866	927264	WORD_OFF	n/a	n/a	ARM	BodyParts	5	6	[0, 0, 0]	n/a	catFR1	0	R1457T
689.632	1.6	928128	WORD	n/a	wordpools/wordpool_categorized_EN.txt	NOSE	BodyParts	6	6	[0, 0, 0]	n/a	catFR1	0	R1457T
691.232	0.984	929729	WORD_OFF	n/a	n/a	NOSE	BodyParts	6	6	[0, 0, 0]	n/a	catFR1	0	R1457T
692.216	1.6	930707	WORD	n/a	wordpools/wordpool_categorized_EN.txt	PLIERS	Tools	7	6	[0, 0, 0]	n/a	catFR1	0	R1457T
693.816	0.934	932309	WORD_OFF	n/a	n/a	PLIERS	Tools	7	6	[0, 0, 0]	n/a	catFR1	0	R1457T
694.75	1.599	933244	WORD	n/a	wordpools/wordpool_categorized_EN.txt	HAMMER	Tools	8	6	[0, 0, 0]	n/a	catFR1	0	R1457T
696.349	0.967	934845	WORD_OFF	n/a	n/a	HAMMER	Tools	8	6	[0, 0, 0]	n/a	catFR1	0	R1457T
697.316	1.615	935809	WORD	n/a	wordpools/wordpool_categorized_EN.txt	WINE	Beverages	9	6	[0, 0, 0]	n/a	catFR1	0	R1457T
698.931	0.883	937424	WORD_OFF	n/a	n/a	WINE	Beverages	9	6	[0, 0, 0]	n/a	catFR1	0	R1457T
699.814	1.601	938303	WORD	n/a	wordpools/wordpool_categorized_EN.txt	CIDER	Beverages	10	6	[0, 0, 0]	n/a	catFR1	0	R1457T
701.415	0.933	939904	WORD_OFF	n/a	n/a	CIDER	Beverages	10	6	[0, 0, 0]	n/a	catFR1	0	R1457T
702.348	135.601	940840	WORD	n/a	wordpools/wordpool_categorized_EN.txt	EAR	BodyParts	11	6	[0, 0, 0]	n/a	catFR1	0	R1457T
837.949	0.0	941861	STOP	n/a	n/a	n/a	n/a	-999	7	[-999, -999, -999]	n/a	catFR1	0	R1457T
703.965	0.816	942455	WORD_OFF	n/a	n/a	EAR	BodyParts	11	6	[0, 0, 0]	n/a	catFR1	0	R1457T
704.781	1.602	943277	WORD	n/a	wordpools/wordpool_categorized_EN.txt	HEAD	BodyParts	12	6	[0, 0, 0]	n/a	catFR1	0	R1457T
706.383	0.001	944879	WORD_OFF	n/a	n/a	HEAD	BodyParts	12	6	[0, 0, 0]	n/a	catFR1	0	R1457T
706.384	0.0	944879	ENCODING_END	n/a	n/a	n/a	n/a	-999	6	[0, 0, 0]	n/a	catFR1	0	R1457T
706.384	141.199	944879	DISTRACT_START	n/a	n/a	n/a	n/a	-999	6	[0, 0, 0]	n/a	catFR1	0	R1457T
847.583	1.0	951495	REC_WORD	1.0	n/a	TONGS	KitchenTools	1	7	[0, 0, 0]	n/a	catFR1	0	R1457T
848.583	1.758	952495	REC_WORD	1.758	n/a	TONGS	KitchenTools	1	7	[0, 0, 0]	n/a	catFR1	0	R1457T
850.341	5.83	954253	REC_WORD	5.83	n/a	COLANDER	KitchenTools	8	7	[0, 0, 0]	n/a	catFR1	0	R1457T
856.171	0.0	960084	REC_WORD	0.0	n/a	COOKIE	Desserts	11	7	[0, 0, 0]	n/a	catFR1	0	R1457T
730.565	1.367	969055	DISTRACT_END	n/a	n/a	n/a	n/a	-999	6	[0, 0, 0]	n/a	catFR1	0	R1457T
731.932	31.227	970416	REC_START	n/a	n/a	n/a	n/a	-999	6	[0, 0, 0]	n/a	catFR1	0	R1457T
763.159	3.124	1001649	REC_END	n/a	n/a	n/a	n/a	-999	6	[0, 0, 0]	n/a	catFR1	0	R1457T
766.283	10.35	1004767	COUNTDOWN_START	n/a	n/a	n/a	n/a	-999	6	[0, 0, 0]	n/a	catFR1	0	R1457T
776.633	0.0	1015126	COUNTDOWN_END	n/a	n/a	n/a	n/a	-999	6	[0, 0, 0]	n/a	catFR1	0	R1457T
776.633	2.115	1015126	ENCODING_START	n/a	n/a	n/a	n/a	-999	7	[0, 0, 0]	n/a	catFR1	0	R1457T
778.748	136.017	1017238	WORD	n/a	wordpools/wordpool_categorized_EN.txt	TONGS	KitchenTools	1	7	[0, 0, 0]	n/a	catFR1	0	R1457T
914.765	0.001	1018680	START	n/a	n/a	n/a	n/a	-999	8	[-999, -999, -999]	n/a	catFR1	0	R1457T
914.766	0.0	1018681	PROB	0.0	n/a	n/a	n/a	-999	8	[4, 5, 8]	17	catFR1	0	R1457T
780.348	0.949	1018839	WORD_OFF	n/a	n/a	TONGS	KitchenTools	1	7	[0, 0, 0]	n/a	catFR1	0	R1457T
781.297	1.602	1019789	WORD	n/a	wordpools/wordpool_categorized_EN.txt	WHISK	KitchenTools	2	7	[0, 0, 0]	n/a	catFR1	0	R1457T
782.899	0.982	1021390	WORD_OFF	n/a	n/a	WHISK	KitchenTools	2	7	[0, 0, 0]	n/a	catFR1	0	R1457T
783.881	1.601	1022368	WORD	n/a	wordpools/wordpool_categorized_EN.txt	ROOSTER	FarmAnimals	3	7	[0, 0, 0]	n/a	catFR1	0	R1457T
785.482	0.767	1023969	WORD_OFF	n/a	n/a	ROOSTER	FarmAnimals	3	7	[0, 0, 0]	n/a	catFR1	0	R1457T
786.249	1.616	1024735	WORD	n/a	wordpools/wordpool_categorized_EN.txt	SHEEP	FarmAnimals	4	7	[0, 0, 0]	n/a	catFR1	0	R1457T
787.865	0.783	1026350	WORD_OFF	n/a	n/a	SHEEP	FarmAnimals	4	7	[0, 0, 0]	n/a	catFR1	0	R1457T
788.648	135.319	1027130	WORD	n/a	wordpools/wordpool_categorized_EN.txt	CAKE	Desserts	5	7	[0, 0, 0]	n/a	catFR1	0	R1457T
923.967	0.0	1027882	PROB	0.0	n/a	n/a	n/a	-999	8	[2, 6, 4]	12	catFR1	0	R1457T
790.249	0.95	1028731	WORD_OFF	n/a	n/a	CAKE	Desserts	5	7	[0, 0, 0]	n/a	catFR1	0	R1457T
791.199	135.751	1029680	WORD	n/a	wordpools/wordpool_categorized_EN.txt	MOUSSE	Desserts	6	7	[0, 0, 0]	n/a	catFR1	0	R1457T
926.95	0.0	1030865	PROB	0.0	n/a	n/a	n/a	-999	8	[7, 6, 4]	17	catFR1	0	R1457T
792.799	0.884	1031282	WORD_OFF	n/a	n/a	MOUSSE	Desserts	6	7	[0, 0, 0]	n/a	catFR1	0	R1457T
793.683	1.615	1032175	WORD	n/a	wordpools/wordpool_categorized_EN.txt	KNIFE	KitchenTools	7	7	[0, 0, 0]	n/a	catFR1	0	R1457T
795.298	0.799	1033790	WORD_OFF	n/a	n/a	KNIFE	KitchenTools	7	7	[0, 0, 0]	n/a	catFR1	0	R1457T
796.097	135.086	1034584	WORD	n/a	wordpools/wordpool_categorized_EN.txt	COLANDER	KitchenTools	8	7	[0, 0, 0]	n/a	catFR1	0	R1457T
931.183	0.0	1035098	PROB	0.0	n/a	n/a	n/a	-999	8	[4, 7, 7]	18	catFR1	0	R1457T
797.699	0.833	1036185	WORD_OFF	n/a	n/a	COLANDER	KitchenTools	8	7	[0, 0, 0]	n/a	catFR1	0	R1457T
798.532	1.616	1037021	WORD	n/a	wordpools/wordpool_categorized_EN.txt	TURKEY	FarmAnimals	9	7	[0, 0, 0]	n/a	catFR1	0	R1457T
800.148	0.799	1038637	WORD_OFF	n/a	n/a	TURKEY	FarmAnimals	9	7	[0, 0, 0]	n/a	catFR1	0	R1457T
800.947	134.785	1039430	WORD	n/a	wordpools/wordpool_categorized_EN.txt	COW	FarmAnimals	10	7	[0, 0, 0]	n/a	catFR1	0	R1457T
935.732	0.0	1039647	STOP	n/a	n/a	n/a	n/a	-999	8	[-999, -999, -999]	n/a	catFR1	0	R1457T
802.549	0.782	1041032	WORD_OFF	n/a	n/a	COW	FarmAnimals	10	7	[0, 0, 0]	n/a	catFR1	0	R1457T
803.331	134.732	1041811	WORD	n/a	wordpools/wordpool_categorized_EN.txt	COOKIE	Desserts	11	7	[0, 0, 0]	n/a	catFR1	0	R1457T
938.063	0.998	1041979	REC_WORD	0.998	n/a	STRAINER	KitchenTools	9	8	[0, 0, 0]	n/a	catFR1	0	R1457T
939.061	0.0	1042977	REC_WORD	0.0	n/a	STRAINER	KitchenTools	9	8	[0, 0, 0]	n/a	catFR1	0	R1457T
804.932	0.783	1043412	WORD_OFF	n/a	n/a	COOKIE	Desserts	11	7	[0, 0, 0]	n/a	catFR1	0	R1457T
805.715	1.6	1044206	WORD	n/a	wordpools/wordpool_categorized_EN.txt	COBBLER	Desserts	12	7	[0, 0, 0]	n/a	catFR1	0	R1457T
807.315	0.002	1045807	WORD_OFF	n/a	n/a	COBBLER	Desserts	12	7	[0, 0, 0]	n/a	catFR1	0	R1457T
807.317	0.0	1045807	ENCODING_END	n/a	n/a	n/a	n/a	-999	7	[0, 0, 0]	n/a	catFR1	0	R1457T
807.317	141.387	1045807	DISTRACT_START	n/a	n/a	n/a	n/a	-999	7	[0, 0, 0]	n/a	catFR1	0	R1457T
948.704	0.0	1052620	REC_WORD	0.0	n/a	COLANDER	KitchenTools	-999	8	[0, 0, 0]	n/a	catFR1	0	R1457T
837.949	1.366	1076432	DISTRACT_END	n/a	n/a	n/a	n/a	-999	7	[0, 0, 0]	n/a	catFR1	0	R1457T
839.315	31.234	1077807	REC_START	n/a	n/a	n/a	n/a	-999	7	[0, 0, 0]	n/a	catFR1	0	R1457T
870.549	2.951	1109026	REC_END	n/a	n/a	n/a	n/a	-999	7	[0, 0, 0]	n/a	catFR1	0	R1457T
873.5	138.383	1111988	COUNTDOWN_START	n/a	n/a	n/a	n/a	-999	7	[0, 0, 0]	n/a	catFR1	0	R1457T
1011.883	0.001	1115801	PROB	0.001	n/a	n/a	n/a	-999	9	[3, 7, 3]	13	catFR1	0	R1457T
1011.884	5.733	1115802	START	n/a	n/a	n/a	n/a	-999	9	[-999, -999, -999]	n/a	catFR1	0	R1457T
1017.617	0.0	1121535	PROB	0.0	n/a	n/a	n/a	-999	9	[2, 6, 8]	16	catFR1	0	R1457T
883.849	0.0	1122333	COUNTDOWN_END	n/a	n/a	n/a	n/a	-999	7	[0, 0, 0]	n/a	catFR1	0	R1457T
883.849	2.0	1122333	ENCODING_START	n/a	n/a	n/a	n/a	-999	8	[0, 0, 0]	n/a	catFR1	0	R1457T
885.849	135.85	1124331	WORD	n/a	wordpools/wordpool_categorized_EN.txt	CUPCAKE	Desserts	1	8	[0, 0, 0]	n/a	catFR1	0	R1457T
1021.699	0.0	1125618	PROB	0.0	n/a	n/a	n/a	-999	9	[7, 1, 6]	14	catFR1	0	R1457T
887.449	0.983	1125933	WORD_OFF	n/a	n/a	CUPCAKE	Desserts	1	8	[0, 0, 0]	n/a	catFR1	0	R1457T
888.432	1.6	1126910	WORD	n/a	wordpools/wordpool_categorized_EN.txt	BROWNIES	Desserts	2	8	[0, 0, 0]	n/a	catFR1	0	R1457T
890.032	135.233	1128512	WORD_OFF	n/a	n/a	BROWNIES	Desserts	2	8	[0, 0, 0]	n/a	catFR1	0	R1457T
1025.265	0.0	1129184	PROB	0.0	n/a	n/a	n/a	-999	9	[5, 4, 2]	11	catFR1	0	R1457T
890.799	1.616	1129277	WORD	n/a	wordpools/wordpool_categorized_EN.txt	FORK	KitchenTools	3	8	[0, 0, 0]	n/a	catFR1	0	R1457T
892.415	0.817	1130893	WORD_OFF	n/a	n/a	FORK	KitchenTools	3	8	[0, 0, 0]	n/a	catFR1	0	R1457T
893.232	135.134	1131715	WORD	n/a	wordpools/wordpool_categorized_EN.txt	GRATER	KitchenTools	4	8	[0, 0, 0]	n/a	catFR1	0	R1457T
1028.366	0.0	1132285	PROB	0.0	n/a	n/a	n/a	-999	9	[2, 3, 6]	11	catFR1	0	R1457T
894.848	0.802	1133330	WORD_OFF	n/a	n/a	GRATER	KitchenTools	4	8	[0, 0, 0]	n/a	catFR1	0	R1457T
895.65	1.616	1134138	WORD	n/a	wordpools/wordpool_categorized_EN.txt	CELLO	Instruments	5	8	[0, 0, 0]	n/a	catFR1	0	R1457T
897.266	134.617	1135753	WORD_OFF	n/a	n/a	CELLO	Instruments	5	8	[0, 0, 0]	n/a	catFR1	0	R1457T
1031.883	0.0	1135802	STOP	n/a	n/a	n/a	n/a	-999	9	[-999, -999, -999]	n/a	catFR1	0	R1457T
898.216	1.6	1136703	WORD	n/a	wordpools/wordpool_categorized_EN.txt	TROMBONE	Instruments	6	8	[0, 0, 0]	n/a	catFR1	0	R1457T
899.816	1.0	1138304	WORD_OFF	n/a	n/a	TROMBONE	Instruments	6	8	[0, 0, 0]	n/a	catFR1	0	R1457T
900.816	1.617	1139296	WORD	n/a	wordpools/wordpool_categorized_EN.txt	CHEESECAKE	Desserts	7	8	[0, 0, 0]	n/a	catFR1	0	R1457T
902.433	0.766	1140912	WORD_OFF	n/a	n/a	CHEESECAKE	Desserts	7	8	[0, 0, 0]	n/a	catFR1	0	R1457T
903.199	1.617	1141677	WORD	n/a	wordpools/wordpool_categorized_EN.txt	PIE	Desserts	8	8	[0, 0, 0]	n/a	catFR1	0	R1457T
904.816	0.983	1143293	WORD_OFF	n/a	n/a	PIE	Desserts	8	8	[0, 0, 0]	n/a	catFR1	0	R1457T
905.799	1.617	1144285	WORD	n/a	wordpools/wordpool_categorized_EN.txt	STRAINER	KitchenTools	9	8	[0, 0, 0]	n/a	catFR1	0	R1457T
907.416	0.95	1145900	WORD_OFF	n/a	n/a	STRAINER	KitchenTools	9	8	[0, 0, 0]	n/a	catFR1	0	R1457T
908.366	1.6	1146850	WORD	n/a	wordpools/wordpool_categorized_EN.txt	SPOON	KitchenTools	10	8	[0, 0, 0]	n/a	catFR1	0	R1457T
909.966	0.8	1148451	WORD_OFF	n/a	n/a	SPOON	KitchenTools	10	8	[0, 0, 0]	n/a	catFR1	0	R1457T
910.766	1.6	1149245	WORD	n/a	wordpools/wordpool_categorized_EN.txt	BASS	Instruments	11	8	[0, 0, 0]	n/a	catFR1	0	R1457T
912.366	0.783	1150846	WORD_OFF	n/a	n/a	BASS	Instruments	11	8	[0, 0, 0]	n/a	catFR1	0	R1457T
913.149	1.615	1151625	WORD	n/a	wordpools/wordpool_categorized_EN.txt	GUITAR	Instruments	12	8	[0, 0, 0]	n/a	catFR1	0	R1457T
914.764	0.001	1153241	WORD_OFF	n/a	n/a	GUITAR	Instruments	12	8	[0, 0, 0]	n/a	catFR1	0	R1457T
914.765	0.0	1153242	ENCODING_END	n/a	n/a	n/a	n/a	-999	8	[0, 0, 0]	n/a	catFR1	0	R1457T
914.765	148.462	1153255	DISTRACT_START	n/a	n/a	n/a	n/a	-999	8	[0, 0, 0]	n/a	catFR1	0	R1457T
1063.227	0.0	1167147	REC_WORD_VV	0.0	n/a	<>	n/a	-999	9	[0, 0, 0]	n/a	catFR1	0	R1457T
935.732	1.117	1174215	DISTRACT_END	n/a	n/a	n/a	n/a	-999	8	[0, 0, 0]	n/a	catFR1	0	R1457T
936.849	31.252	1175334	REC_START	n/a	n/a	n/a	n/a	-999	8	[0, 0, 0]	n/a	catFR1	0	R1457T
968.101	2.598	1206582	REC_END	n/a	n/a	n/a	n/a	-999	8	[0, 0, 0]	n/a	catFR1	0	R1457T
970.699	137.583	1209176	COUNTDOWN_START	n/a	n/a	n/a	n/a	-999	8	[0, 0, 0]	n/a	catFR1	0	R1457T
1108.282	0.001	1212204	PROB	0.001	n/a	n/a	n/a	-999	10	[3, 2, 5]	10	catFR1	0	R1457T
1108.283	5.35	1212205	START	n/a	n/a	n/a	n/a	-999	10	[-999, -999, -999]	n/a	catFR1	0	R1457T
1113.633	0.0	1217555	PROB	0.0	n/a	n/a	n/a	-999	10	[8, 6, 8]	22	catFR1	0	R1457T
981.049	0.0	1219521	COUNTDOWN_END	n/a	n/a	n/a	n/a	-999	8	[0, 0, 0]	n/a	catFR1	0	R1457T
981.049	2.117	1219535	ENCODING_START	n/a	n/a	n/a	n/a	-999	9	[0, 0, 0]	n/a	catFR1	0	R1457T
983.166	1.616	1221646	WORD	n/a	wordpools/wordpool_categorized_EN.txt	COTTON	Fabric	1	9	[0, 0, 0]	n/a	catFR1	0	R1457T
984.782	1.0	1223262	WORD_OFF	n/a	n/a	COTTON	Fabric	1	9	[0, 0, 0]	n/a	catFR1	0	R1457T
985.782	1.617	1224254	WORD	n/a	wordpools/wordpool_categorized_EN.txt	SATIN	Fabric	2	9	[0, 0, 0]	n/a	catFR1	0	R1457T
987.399	0.867	1225869	WORD_OFF	n/a	n/a	SATIN	Fabric	2	9	[0, 0, 0]	n/a	catFR1	0	R1457T
988.266	135.467	1226748	WORD	n/a	wordpools/wordpool_categorized_EN.txt	DESK	Furniture	3	9	[0, 0, 0]	n/a	catFR1	0	R1457T
1123.733	0.0	1227655	PROB	0.0	n/a	n/a	n/a	-999	10	[5, 3, 2]	10	catFR1	0	R1457T
989.866	0.95	1228349	WORD_OFF	n/a	n/a	DESK	Furniture	3	9	[0, 0, 0]	n/a	catFR1	0	R1457T
990.816	1.6	1229299	WORD	n/a	wordpools/wordpool_categorized_EN.txt	COUCH	Furniture	4	9	[0, 0, 0]	n/a	catFR1	0	R1457T
992.416	135.033	1230900	WORD_OFF	n/a	n/a	COUCH	Furniture	4	9	[0, 0, 0]	n/a	catFR1	0	R1457T
1127.449	0.0	1231371	PROB	0.0	n/a	n/a	n/a	-999	10	[8, 1, 2]	11	catFR1	0	R1457T
993.182	1.601	1231666	WORD	n/a	wordpools/wordpool_categorized_EN.txt	LETTUCE	Vegetables	5	9	[0, 0, 0]	n/a	catFR1	0	R1457T
994.783	0.816	1233267	WORD_OFF	n/a	n/a	LETTUCE	Vegetables	5	9	[0, 0, 0]	n/a	catFR1	0	R1457T
995.599	135.832	1234075	WORD	n/a	wordpools/wordpool_categorized_EN.txt	PEAS	Vegetables	6	9	[0, 0, 0]	n/a	catFR1	0	R1457T
1131.431	0.0	1235354	STOP	n/a	n/a	n/a	n/a	-999	10	[-999, -999, -999]	n/a	catFR1	0	R1457T
997.215	0.9	1235690	WORD_OFF	n/a	n/a	PEAS	Vegetables	6	9	[0, 0, 0]	n/a	catFR1	0	R1457T
998.115	1.601	1236597	WORD	n/a	wordpools/wordpool_categorized_EN.txt	NIGHTSTAND	Furniture	7	9	[0, 0, 0]	n/a	catFR1	0	R1457T
999.716	0.783	1238199	WORD_OFF	n/a	n/a	NIGHTSTAND	Furniture	7	9	[0, 0, 0]	n/a	catFR1	0	R1457T
1000.499	1.616	1238978	WORD	n/a	wordpools/wordpool_categorized_EN.txt	BED	Furniture	8	9	[0, 0, 0]	n/a	catFR1	0	R1457T
1002.115	0.866	1240594	WORD_OFF	n/a	n/a	BED	Furniture	8	9	[0, 0, 0]	n/a	catFR1	0	R1457T
1002.981	1.602	1241458	WORD	n/a	wordpools/wordpool_categorized_EN.txt	CORN	Vegetables	9	9	[0, 0, 0]	n/a	catFR1	0	R1457T
1004.583	0.783	1243059	WORD_OFF	n/a	n/a	CORN	Vegetables	9	9	[0, 0, 0]	n/a	catFR1	0	R1457T
1005.366	1.616	1243839	WORD	n/a	wordpools/wordpool_categorized_EN.txt	CABBAGE	Vegetables	10	9	[0, 0, 0]	n/a	catFR1	0	R1457T
1006.982	0.866	1245454	WORD_OFF	n/a	n/a	CABBAGE	Vegetables	10	9	[0, 0, 0]	n/a	catFR1	0	R1457T
1007.848	1.601	1246319	WORD	n/a	wordpools/wordpool_categorized_EN.txt	SILK	Fabric	11	9	[0, 0, 0]	n/a	catFR1	0	R1457T
1009.449	0.816	1247920	WORD_OFF	n/a	n/a	SILK	Fabric	11	9	[0, 0, 0]	n/a	catFR1	0	R1457T
1010.265	134.692	1248742	WORD	n/a	wordpools/wordpool_categorized_EN.txt	SPANDEX	Fabric	12	9	[0, 0, 0]	n/a	catFR1	0	R1457T
1144.957	0.0	1248880	REC_WORD	0.0	n/a	BULL	FarmAnimals	11	10	[0, 0, 0]	n/a	catFR1	0	R1457T
1011.883	0.001	1250358	WORD_OFF	n/a	n/a	SPANDEX	Fabric	12	9	[0, 0, 0]	n/a	catFR1	0	R1457T
1011.884	0.0	1250358	ENCODING_END	n/a	n/a	n/a	n/a	-999	9	[0, 0, 0]	n/a	catFR1	0	R1457T
1011.884	134.988	1250358	DISTRACT_START	n/a	n/a	n/a	n/a	-999	9	[0, 0, 0]	n/a	catFR1	0	R1457T
1146.872	3.154	1250795	REC_WORD	3.154	n/a	HAND	BodyParts	8	10	[0, 0, 0]	n/a	catFR1	0	R1457T
1150.026	1.175	1253949	REC_WORD	1.175	n/a	ARM	BodyParts	-999	10	[0, 0, 0]	n/a	catFR1	0	R1457T
1151.201	0.0	1255124	REC_WORD	0.0	n/a	FINGER	n/a	-999	10	[0, 0, 0]	n/a	catFR1	0	R1457T
1031.883	1.333	1270354	DISTRACT_END	n/a	n/a	n/a	n/a	-999	9	[0, 0, 0]	n/a	catFR1	0	R1457T
1033.216	31.241	1271686	REC_START	n/a	n/a	n/a	n/a	-999	9	[0, 0, 0]	n/a	catFR1	0	R1457T
1064.457	2.441	1302934	REC_END	n/a	n/a	n/a	n/a	-999	9	[0, 0, 0]	n/a	catFR1	0	R1457T
1066.898	140.585	1305371	COUNTDOWN_START	n/a	n/a	n/a	n/a	-999	9	[0, 0, 0]	n/a	catFR1	0	R1457T
1207.483	0.001	1311408	PROB	0.001	n/a	n/a	n/a	-999	11	[6, 4, 5]	15	catFR1	0	R1457T
1207.484	0.0	1311409	START	n/a	n/a	n/a	n/a	-999	11	[-999, -999, -999]	n/a	catFR1	0	R1457T
1077.249	0.0	1315716	COUNTDOWN_END	n/a	n/a	n/a	n/a	-999	9	[0, 0, 0]	n/a	catFR1	0	R1457T
1077.249	136.001	1315730	ENCODING_START	n/a	n/a	n/a	n/a	-999	10	[0, 0, 0]	n/a	catFR1	0	R1457T
1213.25	0.0	1317176	PROB	0.0	n/a	n/a	n/a	-999	11	[3, 4, 5]	12	catFR1	0	R1457T
1079.599	1.601	1318069	WORD	n/a	wordpools/wordpool_categorized_EN.txt	FINGERS	BodyParts	1	10	[0, 0, 0]	n/a	catFR1	0	R1457T
1081.2	0.916	1319670	WORD_OFF	n/a	n/a	FINGERS	BodyParts	1	10	[0, 0, 0]	n/a	catFR1	0	R1457T
1082.116	134.634	1320591	WORD	n/a	wordpools/wordpool_categorized_EN.txt	ELBOW	BodyParts	2	10	[0, 0, 0]	n/a	catFR1	0	R1457T
1216.75	0.0	1320676	PROB	0.0	n/a	n/a	n/a	-999	11	[1, 5, 6]	13	catFR1	0	R1457T
1083.733	0.85	1322207	WORD_OFF	n/a	n/a	ELBOW	BodyParts	2	10	[0, 0, 0]	n/a	catFR1	0	R1457T
1084.583	135.8	1323057	WORD	n/a	wordpools/wordpool_categorized_EN.txt	PEACH	Fruit	3	10	[0, 0, 0]	n/a	catFR1	0	R1457T
1220.383	0.0	1324309	PROB	0.0	n/a	n/a	n/a	-999	11	[6, 8, 2]	16	catFR1	0	R1457T
1086.199	0.917	1324673	WORD_OFF	n/a	n/a	PEACH	Fruit	3	10	[0, 0, 0]	n/a	catFR1	0	R1457T
1087.116	1.617	1325594	WORD	n/a	wordpools/wordpool_categorized_EN.txt	APPLE	Fruit	4	10	[0, 0, 0]	n/a	catFR1	0	R1457T
1088.733	0.932	1327209	WORD_OFF	n/a	n/a	APPLE	Fruit	4	10	[0, 0, 0]	n/a	catFR1	0	R1457T
1089.665	135.952	1328145	WORD	n/a	wordpools/wordpool_categorized_EN.txt	HORSE	FarmAnimals	5	10	[0, 0, 0]	n/a	catFR1	0	R1457T
1225.617	0.0	1329543	PROB	0.0	n/a	n/a	n/a	-999	11	[6, 1, 8]	15	catFR1	0	R1457T
1091.266	0.766	1329732	WORD_OFF	n/a	n/a	HORSE	FarmAnimals	5	10	[0, 0, 0]	n/a	catFR1	0	R1457T
1092.032	1.601	1330511	WORD	n/a	wordpools/wordpool_categorized_EN.txt	PIG	FarmAnimals	6	10	[0, 0, 0]	n/a	catFR1	0	R1457T
1093.633	0.782	1332098	WORD_OFF	n/a	n/a	PIG	FarmAnimals	6	10	[0, 0, 0]	n/a	catFR1	0	R1457T
1094.415	135.317	1332892	WORD	n/a	wordpools/wordpool_categorized_EN.txt	LEG	BodyParts	7	10	[0, 0, 0]	n/a	catFR1	0	R1457T
1229.732	0.0	1333658	STOP	n/a	n/a	n/a	n/a	-999	11	[-999, -999, -999]	n/a	catFR1	0	R1457T
1096.016	0.799	1334493	WORD_OFF	n/a	n/a	LEG	BodyParts	7	10	[0, 0, 0]	n/a	catFR1	0	R1457T
1096.815	1.601	1335287	WORD	n/a	wordpools/wordpool_categorized_EN.txt	HAND	BodyParts	8	10	[0, 0, 0]	n/a	catFR1	0	R1457T
1098.416	0.934	1336888	WORD_OFF	n/a	n/a	HAND	BodyParts	8	10	[0, 0, 0]	n/a	catFR1	0	R1457T
1099.35	1.6	1337824	WORD	n/a	wordpools/wordpool_categorized_EN.txt	LIME	Fruit	9	10	[0, 0, 0]	n/a	catFR1	0	R1457T
1100.95	0.915	1339425	WORD_OFF	n/a	n/a	LIME	Fruit	9	10	[0, 0, 0]	n/a	catFR1	0	R1457T
1101.865	1.601	1340332	WORD	n/a	wordpools/wordpool_categorized_EN.txt	ORANGE	Fruit	10	10	[0, 0, 0]	n/a	catFR1	0	R1457T
1103.466	0.816	1341933	WORD_OFF	n/a	n/a	ORANGE	Fruit	10	10	[0, 0, 0]	n/a	catFR1	0	R1457T
1104.282	1.6	1342755	WORD	n/a	wordpools/wordpool_categorized_EN.txt	BULL	FarmAnimals	11	10	[0, 0, 0]	n/a	catFR1	0	R1457T
1105.882	0.784	1344357	WORD_OFF	n/a	n/a	BULL	FarmAnimals	11	10	[0, 0, 0]	n/a	catFR1	0	R1457T
1106.666	1.616	1345136	WORD	n/a	wordpools/wordpool_categorized_EN.txt	HEN	FarmAnimals	12	10	[0, 0, 0]	n/a	catFR1	0	R1457T
1108.282	0.001	1346752	WORD_OFF	n/a	n/a	HEN	FarmAnimals	12	10	[0, 0, 0]	n/a	catFR1	0	R1457T
1108.283	0.0	1346752	ENCODING_END	n/a	n/a	n/a	n/a	-999	10	[0, 0, 0]	n/a	catFR1	0	R1457T
1108.283	150.432	1346752	DISTRACT_START	n/a	n/a	n/a	n/a	-999	10	[0, 0, 0]	n/a	catFR1	0	R1457T
1258.715	0.0	1362642	REC_WORD	0.0	n/a	CABINET	n/a	-999	11	[0, 0, 0]	n/a	catFR1	0	R1457T
1131.431	1.368	1369908	DISTRACT_END	n/a	n/a	n/a	n/a	-999	10	[0, 0, 0]	n/a	catFR1	0	R1457T
1132.799	31.24	1371268	REC_START	n/a	n/a	n/a	n/a	-999	10	[0, 0, 0]	n/a	catFR1	0	R1457T
1164.039	2.343	1402502	REC_END	n/a	n/a	n/a	n/a	-999	10	[0, 0, 0]	n/a	catFR1	0	R1457T
1166.382	139.401	1404854	COUNTDOWN_START	n/a	n/a	n/a	n/a	-999	10	[0, 0, 0]	n/a	catFR1	0	R1457T
1305.783	0.001	1409712	PROB	0.001	n/a	n/a	n/a	-999	12	[5, 2, 1]	8	catFR1	0	R1457T
1305.784	4.099	1409713	START	n/a	n/a	n/a	n/a	-999	12	[-999, -999, -999]	n/a	catFR1	0	R1457T
1309.883	0.0	1413812	PROB	0.0	n/a	n/a	n/a	-999	12	[2, 3, 6]	11	catFR1	0	R1457T
1176.732	0.0	1415200	COUNTDOWN_END	n/a	n/a	n/a	n/a	-999	10	[0, 0, 0]	n/a	catFR1	0	R1457T
1176.732	136.25	1415200	ENCODING_START	n/a	n/a	n/a	n/a	-999	11	[0, 0, 0]	n/a	catFR1	0	R1457T
1312.982	0.0	1416911	PROB	0.0	n/a	n/a	n/a	-999	12	[4, 2, 6]	12	catFR1	0	R1457T
1178.732	1.601	1417198	WORD	n/a	wordpools/wordpool_categorized_EN.txt	COAT	Clothing	1	11	[0, 0, 0]	n/a	catFR1	0	R1457T
1180.333	0.931	1418799	WORD_OFF	n/a	n/a	COAT	Clothing	1	11	[0, 0, 0]	n/a	catFR1	0	R1457T
1181.264	134.769	1419734	WORD	n/a	wordpools/wordpool_categorized_EN.txt	SHORTS	Clothing	2	11	[0, 0, 0]	n/a	catFR1	0	R1457T
1316.033	0.0	1419962	PROB	0.0	n/a	n/a	n/a	-999	12	[4, 3, 1]	8	catFR1	0	R1457T
1182.866	0.899	1421336	WORD_OFF	n/a	n/a	SHORTS	Clothing	2	11	[0, 0, 0]	n/a	catFR1	0	R1457T
1183.765	135.635	1422229	WORD	n/a	wordpools/wordpool_categorized_EN.txt	ATTIC	Building	3	11	[0, 0, 0]	n/a	catFR1	0	R1457T
1319.4	0.0	1423329	PROB	0.0	n/a	n/a	n/a	-999	12	[8, 2, 8]	18	catFR1	0	R1457T
1185.383	0.883	1423844	WORD_OFF	n/a	n/a	ATTIC	Building	3	11	[0, 0, 0]	n/a	catFR1	0	R1457T
1186.266	1.617	1424737	WORD	n/a	wordpools/wordpool_categorized_EN.txt	DOOR	Building	4	11	[0, 0, 0]	n/a	catFR1	0	R1457T
1187.883	0.849	1426352	WORD_OFF	n/a	n/a	DOOR	Building	4	11	[0, 0, 0]	n/a	catFR1	0	R1457T
1188.732	134.901	1427203	WORD	n/a	wordpools/wordpool_categorized_EN.txt	WOOL	Fabric	5	11	[0, 0, 0]	n/a	catFR1	0	R1457T
1323.633	0.0	1427563	PROB	0.0	n/a	n/a	n/a	-999	12	[3, 1, 4]	8	catFR1	0	R1457T
1190.349	0.834	1428818	WORD_OFF	n/a	n/a	WOOL	Fabric	5	11	[0, 0, 0]	n/a	catFR1	0	R1457T
1191.183	1.6	1429654	WORD	n/a	wordpools/wordpool_categorized_EN.txt	NYLON	Fabric	6	11	[0, 0, 0]	n/a	catFR1	0	R1457T
1192.783	0.899	1431256	WORD_OFF	n/a	n/a	NYLON	Fabric	6	11	[0, 0, 0]	n/a	catFR1	0	R1457T
1193.682	1.6	1432149	WORD	n/a	wordpools/wordpool_categorized_EN.txt	BATHROOM	Building	7	11	[0, 0, 0]	n/a	catFR1	0	R1457T
1195.282	0.783	1433750	WORD_OFF	n/a	n/a	BATHROOM	Building	7	11	[0, 0, 0]	n/a	catFR1	0	R1457T
1196.065	1.601	1434529	WORD	n/a	wordpools/wordpool_categorized_EN.txt	FOUNDATION	Building	8	11	[0, 0, 0]	n/a	catFR1	0	R1457T
1197.666	0.817	1436131	WORD_OFF	n/a	n/a	FOUNDATION	Building	8	11	[0, 0, 0]	n/a	catFR1	0	R1457T
1198.483	1.616	1436953	WORD	n/a	wordpools/wordpool_categorized_EN.txt	SOCKS	Clothing	9	11	[0, 0, 0]	n/a	catFR1	0	R1457T
1200.099	135.267	1438568	WORD_OFF	n/a	n/a	SOCKS	Clothing	9	11	[0, 0, 0]	n/a	catFR1	0	R1457T
1335.366	0.0	1439296	STOP	n/a	n/a	n/a	n/a	-999	12	[-999, -999, -999]	n/a	catFR1	0	R1457T
1201.066	1.616	1439532	WORD	n/a	wordpools/wordpool_categorized_EN.txt	JEANS	Clothing	10	11	[0, 0, 0]	n/a	catFR1	0	R1457T
1202.682	0.817	1441147	WORD_OFF	n/a	n/a	JEANS	Clothing	10	11	[0, 0, 0]	n/a	catFR1	0	R1457T
1203.499	134.699	1441969	WORD	n/a	wordpools/wordpool_categorized_EN.txt	FLEECE	Fabric	11	11	[0, 0, 0]	n/a	catFR1	0	R1457T
1338.198	1.002	1442128	REC_WORD	1.002	n/a	FLOWER	n/a	-999	12	[0, 0, 0]	n/a	catFR1	0	R1457T
1339.2	0.0	1443130	REC_WORD	0.0	n/a	FLOWER	n/a	-999	12	[0, 0, 0]	n/a	catFR1	0	R1457T
1205.099	0.767	1443571	WORD_OFF	n/a	n/a	FLEECE	Fabric	11	11	[0, 0, 0]	n/a	catFR1	0	R1457T
1205.866	1.616	1444336	WORD	n/a	wordpools/wordpool_categorized_EN.txt	VELVET	Fabric	12	11	[0, 0, 0]	n/a	catFR1	0	R1457T
1207.482	0.002	1445952	WORD_OFF	n/a	n/a	VELVET	Fabric	12	11	[0, 0, 0]	n/a	catFR1	0	R1457T
1207.484	0.0	1445952	ENCODING_END	n/a	n/a	n/a	n/a	-999	11	[0, 0, 0]	n/a	catFR1	0	R1457T
1207.484	22.248	1445952	DISTRACT_START	n/a	n/a	n/a	n/a	-999	11	[0, 0, 0]	n/a	catFR1	0	R1457T
1229.732	1.201	1468201	DISTRACT_END	n/a	n/a	n/a	n/a	-999	11	[0, 0, 0]	n/a	catFR1	0	R1457T
1230.933	31.278	1469405	REC_START	n/a	n/a	n/a	n/a	-999	11	[0, 0, 0]	n/a	catFR1	0	R1457T
1262.211	2.072	1500682	REC_END	n/a	n/a	n/a	n/a	-999	11	[0, 0, 0]	n/a	catFR1	0	R1457T
1264.283	10.35	1502751	COUNTDOWN_START	n/a	n/a	n/a	n/a	-999	11	[0, 0, 0]	n/a	catFR1	0	R1457T
1274.633	0.0	1513096	COUNTDOWN_END	n/a	n/a	n/a	n/a	-999	11	[0, 0, 0]	n/a	catFR1	0	R1457T
1274.633	2.083	1513096	ENCODING_START	n/a	n/a	n/a	n/a	-999	12	[0, 0, 0]	n/a	catFR1	0	R1457T
1276.716	1.601	1515179	WORD	n/a	wordpools/wordpool_categorized_EN.txt	WALL	Building	1	12	[0, 0, 0]	n/a	catFR1	0	R1457T
1278.317	0.916	1516780	WORD_OFF	n/a	n/a	WALL	Building	1	12	[0, 0, 0]	n/a	catFR1	0	R1457T
1279.233	1.616	1517701	WORD	n/a	wordpools/wordpool_categorized_EN.txt	STAIRS	Building	2	12	[0, 0, 0]	n/a	catFR1	0	R1457T
1280.849	0.767	1519317	WORD_OFF	n/a	n/a	STAIRS	Building	2	12	[0, 0, 0]	n/a	catFR1	0	R1457T
1281.616	1.617	1520082	WORD	n/a	wordpools/wordpool_categorized_EN.txt	NOTEBOOK	OfficeSupplies	3	12	[0, 0, 0]	n/a	catFR1	0	R1457T
1283.233	0.982	1521698	WORD_OFF	n/a	n/a	NOTEBOOK	OfficeSupplies	3	12	[0, 0, 0]	n/a	catFR1	0	R1457T
1284.215	1.601	1522676	WORD	n/a	wordpools/wordpool_categorized_EN.txt	FOLDER	OfficeSupplies	4	12	[0, 0, 0]	n/a	catFR1	0	R1457T
1285.816	0.85	1524277	WORD_OFF	n/a	n/a	FOLDER	OfficeSupplies	4	12	[0, 0, 0]	n/a	catFR1	0	R1457T
1286.666	1.6	1525127	WORD	n/a	wordpools/wordpool_categorized_EN.txt	CHERRY	Fruit	5	12	[0, 0, 0]	n/a	catFR1	0	R1457T
1288.266	0.982	1526729	WORD_OFF	n/a	n/a	CHERRY	Fruit	5	12	[0, 0, 0]	n/a	catFR1	0	R1457T
1289.248	1.601	1527706	WORD	n/a	wordpools/wordpool_categorized_EN.txt	STRAWBERRY	Fruit	6	12	[0, 0, 0]	n/a	catFR1	0	R1457T
1290.849	0.85	1529308	WORD_OFF	n/a	n/a	STRAWBERRY	Fruit	6	12	[0, 0, 0]	n/a	catFR1	0	R1457T
1291.699	1.6	1530158	WORD	n/a	wordpools/wordpool_categorized_EN.txt	GLUE	OfficeSupplies	7	12	[0, 0, 0]	n/a	catFR1	0	R1457T
1293.299	0.834	1531759	WORD_OFF	n/a	n/a	GLUE	OfficeSupplies	7	12	[0, 0, 0]	n/a	catFR1	0	R1457T
1294.133	1.616	1532596	WORD	n/a	wordpools/wordpool_categorized_EN.txt	PENCIL	OfficeSupplies	8	12	[0, 0, 0]	n/a	catFR1	0	R1457T
1295.749	0.884	1534211	WORD_OFF	n/a	n/a	PENCIL	OfficeSupplies	8	12	[0, 0, 0]	n/a	catFR1	0	R1457T
1296.633	1.616	1535090	WORD	n/a	wordpools/wordpool_categorized_EN.txt	LEMON	Fruit	9	12	[0, 0, 0]	n/a	catFR1	0	R1457T
1298.249	0.967	1536705	WORD_OFF	n/a	n/a	LEMON	Fruit	9	12	[0, 0, 0]	n/a	catFR1	0	R1457T
1299.216	1.6	1537683	WORD	n/a	wordpools/wordpool_categorized_EN.txt	BANANA	Fruit	10	12	[0, 0, 0]	n/a	catFR1	0	R1457T
1300.816	0.883	1539284	WORD_OFF	n/a	n/a	BANANA	Fruit	10	12	[0, 0, 0]	n/a	catFR1	0	R1457T
1301.699	1.617	1540163	WORD	n/a	wordpools/wordpool_categorized_EN.txt	CEILING	Building	11	12	[0, 0, 0]	n/a	catFR1	0	R1457T
1303.316	0.85	1541779	WORD_OFF	n/a	n/a	CEILING	Building	11	12	[0, 0, 0]	n/a	catFR1	0	R1457T
1304.166	1.617	1542629	WORD	n/a	wordpools/wordpool_categorized_EN.txt	FLOOR	Building	12	12	[0, 0, 0]	n/a	catFR1	0	R1457T
1305.783	0.001	1544244	WORD_OFF	n/a	n/a	FLOOR	Building	12	12	[0, 0, 0]	n/a	catFR1	0	R1457T
1305.784	0.0	1544244	ENCODING_END	n/a	n/a	n/a	n/a	-999	12	[0, 0, 0]	n/a	catFR1	0	R1457T
1305.784	29.582	1544244	DISTRACT_START	n/a	n/a	n/a	n/a	-999	12	[0, 0, 0]	n/a	catFR1	0	R1457T
1335.366	1.015	1573820	DISTRACT_END	n/a	n/a	n/a	n/a	-999	12	[0, 0, 0]	n/a	catFR1	0	R1457T
1336.381	31.241	1574841	REC_START	n/a	n/a	n/a	n/a	-999	12	[0, 0, 0]	n/a	catFR1	0	R1457T
1367.622	0.0	1606089	REC_END	n/a	n/a	n/a	n/a	-999	12	[0, 0, 0]	n/a	catFR1	0	R1457T
