onset	duration	sample	trial_type	response_time	stim_file	item_name	category	serialpos	list	test	answer	experiment	session	subject
0.0	1.015	10460	INSTRUCT_START	n/a	n/a	n/a	n/a	-999	-999	[0, 0, 0]	n/a	catFR1	1	R1515T
1.015	39.632	11471	INSTRUCT_END	n/a	n/a	n/a	n/a	-999	-999	[0, 0, 0]	n/a	catFR1	1	R1515T
40.647	10.349	51112	COUNTDOWN_START	n/a	n/a	n/a	n/a	-999	-999	[0, 0, 0]	n/a	catFR1	1	R1515T
50.996	0.001	61454	COUNTDOWN_END	n/a	n/a	n/a	n/a	-999	-999	[0, 0, 0]	n/a	catFR1	1	R1515T
50.997	2.034	61454	ENCODING_START	n/a	n/a	n/a	n/a	-999	-1	[0, 0, 0]	n/a	catFR1	1	R1515T
53.031	1.616	63487	WORD	n/a	n/a	BASS	Instruments	1	-1	[0, 0, 0]	n/a	catFR1	1	R1515T
54.647	0.833	65108	WORD_OFF	n/a	n/a	BASS	Instruments	1	-1	[0, 0, 0]	n/a	catFR1	1	R1515T
55.48	1.617	65943	WORD	n/a	n/a	FLUTE	Instruments	2	-1	[0, 0, 0]	n/a	catFR1	1	R1515T
57.097	0.95	67554	WORD_OFF	n/a	n/a	FLUTE	Instruments	2	-1	[0, 0, 0]	n/a	catFR1	1	R1515T
58.047	1.6	68506	WORD	n/a	n/a	SQUID	OceanAnimals	3	-1	[0, 0, 0]	n/a	catFR1	1	R1515T
59.647	0.983	70107	WORD_OFF	n/a	n/a	SQUID	OceanAnimals	3	-1	[0, 0, 0]	n/a	catFR1	1	R1515T
60.63	1.601	71090	WORD	n/a	n/a	FISH	OceanAnimals	4	-1	[0, 0, 0]	n/a	catFR1	1	R1515T
62.231	0.916	72690	WORD_OFF	n/a	n/a	FISH	OceanAnimals	4	-1	[0, 0, 0]	n/a	catFR1	1	R1515T
63.147	1.616	73604	WORD	n/a	n/a	WILLOW	Trees	5	-1	[0, 0, 0]	n/a	catFR1	1	R1515T
64.763	0.834	75224	WORD_OFF	n/a	n/a	WILLOW	Trees	5	-1	[0, 0, 0]	n/a	catFR1	1	R1515T
65.597	1.617	76059	WORD	n/a	n/a	CYPRESS	Trees	6	-1	[0, 0, 0]	n/a	catFR1	1	R1515T
67.214	0.782	77670	WORD_OFF	n/a	n/a	CYPRESS	Trees	6	-1	[0, 0, 0]	n/a	catFR1	1	R1515T
67.996	1.601	78456	WORD	n/a	n/a	PLANKTON	OceanAnimals	7	-1	[0, 0, 0]	n/a	catFR1	1	R1515T
69.597	0.85	80057	WORD_OFF	n/a	n/a	PLANKTON	OceanAnimals	7	-1	[0, 0, 0]	n/a	catFR1	1	R1515T
70.447	1.615	80901	WORD	n/a	n/a	OCTOPUS	OceanAnimals	8	-1	[0, 0, 0]	n/a	catFR1	1	R1515T
72.062	0.934	82522	WORD_OFF	n/a	n/a	OCTOPUS	OceanAnimals	8	-1	[0, 0, 0]	n/a	catFR1	1	R1515T
72.996	1.6	83455	WORD	n/a	n/a	TRUMPET	Instruments	9	-1	[0, 0, 0]	n/a	catFR1	1	R1515T
74.596	0.767	85056	WORD_OFF	n/a	n/a	TRUMPET	Instruments	9	-1	[0, 0, 0]	n/a	catFR1	1	R1515T
75.363	1.601	85822	WORD	n/a	n/a	DRUM	Instruments	10	-1	[0, 0, 0]	n/a	catFR1	1	R1515T
76.964	0.849	87423	WORD_OFF	n/a	n/a	DRUM	Instruments	10	-1	[0, 0, 0]	n/a	catFR1	1	R1515T
77.813	1.617	88268	WORD	n/a	n/a	OAK	Trees	11	-1	[0, 0, 0]	n/a	catFR1	1	R1515T
79.43	0.817	89888	WORD_OFF	n/a	n/a	OAK	Trees	11	-1	[0, 0, 0]	n/a	catFR1	1	R1515T
80.247	1.617	90704	WORD	n/a	n/a	HICKORY	Trees	12	-1	[0, 0, 0]	n/a	catFR1	1	R1515T
81.864	0.001	92324	WORD_OFF	n/a	n/a	HICKORY	Trees	12	-1	[0, 0, 0]	n/a	catFR1	1	R1515T
81.865	0.0	92324	ENCODING_END	n/a	n/a	n/a	n/a	-999	-1	[0, 0, 0]	n/a	catFR1	1	R1515T
81.865	0.0	92324	DISTRACT_START	n/a	n/a	n/a	n/a	-999	-1	[0, 0, 0]	n/a	catFR1	1	R1515T
81.865	0.001	92326	START	n/a	n/a	n/a	n/a	-999	-1	[-999, -999, -999]	n/a	catFR1	1	R1515T
81.866	4.365	92327	PROB	4.365	n/a	n/a	n/a	-999	-1	[5, 2, 7]	14	catFR1	1	R1515T
86.231	17.283	96692	PROB	17.283	n/a	n/a	n/a	-999	-1	[4, 7, 4]	15	catFR1	1	R1515T
103.514	0.0	113971	DISTRACT_END	n/a	n/a	n/a	n/a	-999	-1	[0, 0, 0]	n/a	catFR1	1	R1515T
103.514	1.167	113974	STOP	n/a	n/a	n/a	n/a	-999	-1	[-999, -999, -999]	n/a	catFR1	1	R1515T
104.681	1.775	115140	REC_START	n/a	n/a	n/a	n/a	-999	-1	[0, 0, 0]	n/a	catFR1	1	R1515T
106.456	1.0	116916	REC_WORD	1.0	n/a	MAHOGANY	n/a	-999	-1	[0, 0, 0]	n/a	catFR1	1	R1515T
107.456	0.285	117916	REC_WORD	0.285	n/a	MAHOGANY	n/a	-999	-1	[0, 0, 0]	n/a	catFR1	1	R1515T
107.741	1.388	118201	REC_WORD	1.388	n/a	OAK	Trees	11	-1	[0, 0, 0]	n/a	catFR1	1	R1515T
109.129	1.0	119589	REC_WORD	1.0	n/a	PLANKTON	OceanAnimals	7	-1	[0, 0, 0]	n/a	catFR1	1	R1515T
110.129	0.832	120589	REC_WORD	0.832	n/a	PLANKTON	OceanAnimals	7	-1	[0, 0, 0]	n/a	catFR1	1	R1515T
110.961	1.0	121421	REC_WORD	1.0	n/a	BASS	Instruments	1	-1	[0, 0, 0]	n/a	catFR1	1	R1515T
111.961	0.561	122421	REC_WORD	0.561	n/a	BASS	Instruments	1	-1	[0, 0, 0]	n/a	catFR1	1	R1515T
112.522	1.0	122982	REC_WORD	1.0	n/a	TRUMPET	Instruments	9	-1	[0, 0, 0]	n/a	catFR1	1	R1515T
113.522	2.794	123981	REC_WORD	2.794	n/a	TRUMPET	Instruments	9	-1	[0, 0, 0]	n/a	catFR1	1	R1515T
116.316	0.549	126775	REC_WORD_VV	0.549	n/a	<>	n/a	-999	-1	[0, 0, 0]	n/a	catFR1	1	R1515T
116.865	0.812	127324	REC_WORD	0.812	n/a	OAK	Trees	11	-1	[0, 0, 0]	n/a	catFR1	1	R1515T
117.677	1.0	128136	REC_WORD_VV	1.0	n/a	<>	n/a	-999	-1	[0, 0, 0]	n/a	catFR1	1	R1515T
118.677	1.571	129136	REC_WORD_VV	1.571	n/a	<>	n/a	-999	-1	[0, 0, 0]	n/a	catFR1	1	R1515T
120.248	1.0	130707	REC_WORD_VV	1.0	n/a	<>	n/a	-999	-1	[0, 0, 0]	n/a	catFR1	1	R1515T
121.248	4.401	131707	REC_WORD_VV	4.401	n/a	<>	n/a	-999	-1	[0, 0, 0]	n/a	catFR1	1	R1515T
125.649	10.239	136108	REC_WORD_VV	10.239	n/a	<>	n/a	-999	-1	[0, 0, 0]	n/a	catFR1	1	R1515T
135.888	8.926	146344	REC_END	n/a	n/a	n/a	n/a	-999	-1	[0, 0, 0]	n/a	catFR1	1	R1515T
144.814	10.349	155272	COUNTDOWN_START	n/a	n/a	n/a	n/a	-999	1	[0, 0, 0]	n/a	catFR1	1	R1515T
155.163	0.0	165614	COUNTDOWN_END	n/a	n/a	n/a	n/a	-999	1	[0, 0, 0]	n/a	catFR1	1	R1515T
155.163	2.384	165614	ENCODING_START	n/a	n/a	n/a	n/a	-999	1	[0, 0, 0]	n/a	catFR1	1	R1515T
157.547	1.617	168001	WORD	n/a	wordpools/wordpool_categorized_EN.txt	ROOF	Building	1	1	[0, 0, 0]	n/a	catFR1	1	R1515T
159.164	0.8	169612	WORD_OFF	n/a	n/a	ROOF	Building	1	1	[0, 0, 0]	n/a	catFR1	1	R1515T
159.964	1.6	170417	WORD	n/a	wordpools/wordpool_categorized_EN.txt	ATTIC	Building	2	1	[0, 0, 0]	n/a	catFR1	1	R1515T
161.564	0.783	172018	WORD_OFF	n/a	n/a	ATTIC	Building	2	1	[0, 0, 0]	n/a	catFR1	1	R1515T
162.347	1.617	172804	WORD	n/a	wordpools/wordpool_categorized_EN.txt	CUPCAKE	Desserts	3	1	[0, 0, 0]	n/a	catFR1	1	R1515T
163.964	0.815	174415	WORD_OFF	n/a	n/a	CUPCAKE	Desserts	3	1	[0, 0, 0]	n/a	catFR1	1	R1515T
164.779	1.601	175230	WORD	n/a	wordpools/wordpool_categorized_EN.txt	BROWNIES	Desserts	4	1	[0, 0, 0]	n/a	catFR1	1	R1515T
166.38	0.984	176831	WORD_OFF	n/a	n/a	BROWNIES	Desserts	4	1	[0, 0, 0]	n/a	catFR1	1	R1515T
167.364	1.6	177813	WORD	n/a	wordpools/wordpool_categorized_EN.txt	SCREWDRIVER	Tools	5	1	[0, 0, 0]	n/a	catFR1	1	R1515T
168.964	0.997	179414	WORD_OFF	n/a	n/a	SCREWDRIVER	Tools	5	1	[0, 0, 0]	n/a	catFR1	1	R1515T
169.961	1.602	180416	WORD	n/a	wordpools/wordpool_categorized_EN.txt	RATCHET	Tools	6	1	[0, 0, 0]	n/a	catFR1	1	R1515T
171.563	0.833	182017	WORD_OFF	n/a	n/a	RATCHET	Tools	6	1	[0, 0, 0]	n/a	catFR1	1	R1515T
172.396	1.601	182852	WORD	n/a	wordpools/wordpool_categorized_EN.txt	MOUSSE	Desserts	7	1	[0, 0, 0]	n/a	catFR1	1	R1515T
173.997	0.817	184452	WORD_OFF	n/a	n/a	MOUSSE	Desserts	7	1	[0, 0, 0]	n/a	catFR1	1	R1515T
174.814	1.616	185268	WORD	n/a	wordpools/wordpool_categorized_EN.txt	JELLO	Desserts	8	1	[0, 0, 0]	n/a	catFR1	1	R1515T
176.43	0.85	186878	WORD_OFF	n/a	n/a	JELLO	Desserts	8	1	[0, 0, 0]	n/a	catFR1	1	R1515T
177.28	1.618	187733	WORD	n/a	wordpools/wordpool_categorized_EN.txt	DRILL	Tools	9	1	[0, 0, 0]	n/a	catFR1	1	R1515T
178.898	0.948	189354	WORD_OFF	n/a	n/a	DRILL	Tools	9	1	[0, 0, 0]	n/a	catFR1	1	R1515T
179.846	1.6	190296	WORD	n/a	wordpools/wordpool_categorized_EN.txt	AXE	Tools	10	1	[0, 0, 0]	n/a	catFR1	1	R1515T
181.446	0.818	191897	WORD_OFF	n/a	n/a	AXE	Tools	10	1	[0, 0, 0]	n/a	catFR1	1	R1515T
182.264	1.6	192713	WORD	n/a	wordpools/wordpool_categorized_EN.txt	HALLWAY	Building	11	1	[0, 0, 0]	n/a	catFR1	1	R1515T
183.864	0.867	194314	WORD_OFF	n/a	n/a	HALLWAY	Building	11	1	[0, 0, 0]	n/a	catFR1	1	R1515T
184.731	1.616	195178	WORD	n/a	wordpools/wordpool_categorized_EN.txt	WALL	Building	12	1	[0, 0, 0]	n/a	catFR1	1	R1515T
186.347	0.002	196798	WORD_OFF	n/a	n/a	WALL	Building	12	1	[0, 0, 0]	n/a	catFR1	1	R1515T
186.349	0.0	196798	ENCODING_END	n/a	n/a	n/a	n/a	-999	1	[0, 0, 0]	n/a	catFR1	1	R1515T
186.349	0.0	196798	DISTRACT_START	n/a	n/a	n/a	n/a	-999	1	[0, 0, 0]	n/a	catFR1	1	R1515T
186.348	0.001	196804	PROB	0.001	n/a	n/a	n/a	-999	1	[6, 7, 7]	20	catFR1	1	R1515T
186.349	5.699	196805	START	n/a	n/a	n/a	n/a	-999	1	[-999, -999, -999]	n/a	catFR1	1	R1515T
192.048	5.349	202503	PROB	5.349	n/a	n/a	n/a	-999	1	[1, 7, 4]	12	catFR1	1	R1515T
197.397	4.384	207852	PROB	4.384	n/a	n/a	n/a	-999	1	[5, 5, 8]	18	catFR1	1	R1515T
201.781	6.999	212236	PROB	6.999	n/a	n/a	n/a	-999	1	[8, 6, 6]	20	catFR1	1	R1515T
208.78	0.0	219231	DISTRACT_END	n/a	n/a	n/a	n/a	-999	1	[0, 0, 0]	n/a	catFR1	1	R1515T
208.78	1.034	219235	STOP	n/a	n/a	n/a	n/a	-999	1	[-999, -999, -999]	n/a	catFR1	1	R1515T
209.814	0.519	220263	REC_START	n/a	n/a	n/a	n/a	-999	1	[0, 0, 0]	n/a	catFR1	1	R1515T
210.333	0.93	220788	REC_WORD	0.93	n/a	HALLWAY	Building	11	1	[0, 0, 0]	n/a	catFR1	1	R1515T
211.263	0.634	221717	REC_WORD	0.634	n/a	ROOF	Building	1	1	[0, 0, 0]	n/a	catFR1	1	R1515T
211.897	1.0	222351	REC_WORD	1.0	n/a	ATTIC	Building	2	1	[0, 0, 0]	n/a	catFR1	1	R1515T
212.897	1.488	223351	REC_WORD	1.488	n/a	ATTIC	Building	2	1	[0, 0, 0]	n/a	catFR1	1	R1515T
214.385	1.0	224839	REC_WORD	1.0	n/a	AXE	Tools	10	1	[0, 0, 0]	n/a	catFR1	1	R1515T
215.385	0.614	225839	REC_WORD	0.614	n/a	AXE	Tools	10	1	[0, 0, 0]	n/a	catFR1	1	R1515T
215.999	1.0	226453	REC_WORD	1.0	n/a	SCREWDRIVER	Tools	5	1	[0, 0, 0]	n/a	catFR1	1	R1515T
216.999	1.0	227453	REC_WORD	1.0	n/a	SCREWDRIVER	Tools	5	1	[0, 0, 0]	n/a	catFR1	1	R1515T
217.999	1.691	228453	REC_WORD	1.691	n/a	SCREWDRIVER	Tools	5	1	[0, 0, 0]	n/a	catFR1	1	R1515T
219.69	1.0	230144	REC_WORD	1.0	n/a	MOUSSE	Desserts	7	1	[0, 0, 0]	n/a	catFR1	1	R1515T
220.69	0.125	231144	REC_WORD	0.125	n/a	MOUSSE	Desserts	7	1	[0, 0, 0]	n/a	catFR1	1	R1515T
220.815	1.0	231269	REC_WORD	1.0	n/a	CUPCAKE	Desserts	3	1	[0, 0, 0]	n/a	catFR1	1	R1515T
221.815	0.735	232269	REC_WORD	0.735	n/a	CUPCAKE	Desserts	3	1	[0, 0, 0]	n/a	catFR1	1	R1515T
222.55	1.0	233004	REC_WORD	1.0	n/a	BROWNIE	n/a	-999	1	[0, 0, 0]	n/a	catFR1	1	R1515T
223.55	5.988	234004	REC_WORD	5.988	n/a	BROWNIE	n/a	-999	1	[0, 0, 0]	n/a	catFR1	1	R1515T
229.538	0.394	239992	REC_WORD_VV	0.394	n/a	<>	n/a	-999	1	[0, 0, 0]	n/a	catFR1	1	R1515T
229.932	1.6	240386	REC_WORD	1.6	n/a	ROOF	Building	1	1	[0, 0, 0]	n/a	catFR1	1	R1515T
231.532	9.48	241985	REC_WORD_VV	9.48	n/a	<>	n/a	-999	1	[0, 0, 0]	n/a	catFR1	1	R1515T
241.012	2.218	251457	REC_END	n/a	n/a	n/a	n/a	-999	1	[0, 0, 0]	n/a	catFR1	1	R1515T
243.23	10.35	253676	COUNTDOWN_START	n/a	n/a	n/a	n/a	-999	1	[0, 0, 0]	n/a	catFR1	1	R1515T
253.58	0.0	264028	COUNTDOWN_END	n/a	n/a	n/a	n/a	-999	1	[0, 0, 0]	n/a	catFR1	1	R1515T
253.58	2.05	264028	ENCODING_START	n/a	n/a	n/a	n/a	-999	2	[0, 0, 0]	n/a	catFR1	1	R1515T
255.63	1.6	266081	WORD	n/a	wordpools/wordpool_categorized_EN.txt	BARBIE	Toys	1	2	[0, 0, 0]	n/a	catFR1	1	R1515T
257.23	0.984	267682	WORD_OFF	n/a	n/a	BARBIE	Toys	1	2	[0, 0, 0]	n/a	catFR1	1	R1515T
258.214	1.6	268664	WORD	n/a	wordpools/wordpool_categorized_EN.txt	FOOTBALL	Toys	2	2	[0, 0, 0]	n/a	catFR1	1	R1515T
259.814	0.8	270265	WORD_OFF	n/a	n/a	FOOTBALL	Toys	2	2	[0, 0, 0]	n/a	catFR1	1	R1515T
260.614	1.616	271061	WORD	n/a	wordpools/wordpool_categorized_EN.txt	LAKE	Landscapes	3	2	[0, 0, 0]	n/a	catFR1	1	R1515T
262.23	0.967	272681	WORD_OFF	n/a	n/a	LAKE	Landscapes	3	2	[0, 0, 0]	n/a	catFR1	1	R1515T
263.197	1.617	273644	WORD	n/a	wordpools/wordpool_categorized_EN.txt	RIVER	Landscapes	4	2	[0, 0, 0]	n/a	catFR1	1	R1515T
264.814	0.8	275265	WORD_OFF	n/a	n/a	RIVER	Landscapes	4	2	[0, 0, 0]	n/a	catFR1	1	R1515T
265.614	1.616	276060	WORD	n/a	wordpools/wordpool_categorized_EN.txt	RAIN	Weather	5	2	[0, 0, 0]	n/a	catFR1	1	R1515T
267.23	0.917	277681	WORD_OFF	n/a	n/a	RAIN	Weather	5	2	[0, 0, 0]	n/a	catFR1	1	R1515T
268.147	1.6	278594	WORD	n/a	wordpools/wordpool_categorized_EN.txt	FOG	Weather	6	2	[0, 0, 0]	n/a	catFR1	1	R1515T
269.747	0.833	280195	WORD_OFF	n/a	n/a	FOG	Weather	6	2	[0, 0, 0]	n/a	catFR1	1	R1515T
270.58	1.6	281030	WORD	n/a	wordpools/wordpool_categorized_EN.txt	BASKETBALL	Toys	7	2	[0, 0, 0]	n/a	catFR1	1	R1515T
272.18	0.849	282631	WORD_OFF	n/a	n/a	BASKETBALL	Toys	7	2	[0, 0, 0]	n/a	catFR1	1	R1515T
273.029	1.601	283476	WORD	n/a	wordpools/wordpool_categorized_EN.txt	BLOCKS	Toys	8	2	[0, 0, 0]	n/a	catFR1	1	R1515T
274.63	0.767	285077	WORD_OFF	n/a	n/a	BLOCKS	Toys	8	2	[0, 0, 0]	n/a	catFR1	1	R1515T
275.397	1.617	285843	WORD	n/a	wordpools/wordpool_categorized_EN.txt	LIGHTNING	Weather	9	2	[0, 0, 0]	n/a	catFR1	1	R1515T
277.014	0.783	287463	WORD_OFF	n/a	n/a	LIGHTNING	Weather	9	2	[0, 0, 0]	n/a	catFR1	1	R1515T
277.797	1.616	288239	WORD	n/a	wordpools/wordpool_categorized_EN.txt	WIND	Weather	10	2	[0, 0, 0]	n/a	catFR1	1	R1515T
279.413	0.95	289860	WORD_OFF	n/a	n/a	WIND	Weather	10	2	[0, 0, 0]	n/a	catFR1	1	R1515T
280.363	1.6	290812	WORD	n/a	wordpools/wordpool_categorized_EN.txt	HILLS	Landscapes	11	2	[0, 0, 0]	n/a	catFR1	1	R1515T
281.963	0.983	292413	WORD_OFF	n/a	n/a	HILLS	Landscapes	11	2	[0, 0, 0]	n/a	catFR1	1	R1515T
282.946	1.601	293396	WORD	n/a	wordpools/wordpool_categorized_EN.txt	MOUNTAIN	Landscapes	12	2	[0, 0, 0]	n/a	catFR1	1	R1515T
284.547	0.002	294997	WORD_OFF	n/a	n/a	MOUNTAIN	Landscapes	12	2	[0, 0, 0]	n/a	catFR1	1	R1515T
284.549	0.0	294997	ENCODING_END	n/a	n/a	n/a	n/a	-999	2	[0, 0, 0]	n/a	catFR1	1	R1515T
284.549	0.0	294997	DISTRACT_START	n/a	n/a	n/a	n/a	-999	2	[0, 0, 0]	n/a	catFR1	1	R1515T
284.548	0.001	294999	PROB	0.001	n/a	n/a	n/a	-999	2	[8, 3, 4]	15	catFR1	1	R1515T
284.549	11.948	295000	START	n/a	n/a	n/a	n/a	-999	2	[-999, -999, -999]	n/a	catFR1	1	R1515T
296.497	3.318	306947	PROB	3.318	n/a	n/a	n/a	-999	2	[3, 2, 1]	6	catFR1	1	R1515T
299.815	7.116	310265	PROB	7.116	n/a	n/a	n/a	-999	2	[6, 4, 5]	13	catFR1	1	R1515T
306.931	0.0	317371	DISTRACT_END	n/a	n/a	n/a	n/a	-999	2	[0, 0, 0]	n/a	catFR1	1	R1515T
306.931	1.166	317381	STOP	n/a	n/a	n/a	n/a	-999	2	[-999, -999, -999]	n/a	catFR1	1	R1515T
308.097	0.137	318539	REC_START	n/a	n/a	n/a	n/a	-999	2	[0, 0, 0]	n/a	catFR1	1	R1515T
308.234	1.0	318683	REC_WORD	1.0	n/a	BARBIE	Toys	1	2	[0, 0, 0]	n/a	catFR1	1	R1515T
309.234	1.973	319683	REC_WORD	1.973	n/a	BARBIE	Toys	1	2	[0, 0, 0]	n/a	catFR1	1	R1515T
311.207	5.383	321656	REC_WORD_VV	5.383	n/a	<>	n/a	-999	2	[0, 0, 0]	n/a	catFR1	1	R1515T
316.59	2.498	327039	REC_WORD_VV	2.498	n/a	<>	n/a	-999	2	[0, 0, 0]	n/a	catFR1	1	R1515T
319.088	1.0	329537	REC_WORD	1.0	n/a	HILL	n/a	-999	2	[0, 0, 0]	n/a	catFR1	1	R1515T
320.088	1.978	330537	REC_WORD	1.978	n/a	HILL	n/a	-999	2	[0, 0, 0]	n/a	catFR1	1	R1515T
322.066	1.0	332515	REC_WORD_VV	1.0	n/a	<>	n/a	-999	2	[0, 0, 0]	n/a	catFR1	1	R1515T
323.066	1.0	333515	REC_WORD_VV	1.0	n/a	<>	n/a	-999	2	[0, 0, 0]	n/a	catFR1	1	R1515T
324.066	1.991	334515	REC_WORD_VV	1.991	n/a	<>	n/a	-999	2	[0, 0, 0]	n/a	catFR1	1	R1515T
326.057	13.254	336506	REC_WORD_VV	13.254	n/a	<>	n/a	-999	2	[0, 0, 0]	n/a	catFR1	1	R1515T
339.311	1.72	349753	REC_END	n/a	n/a	n/a	n/a	-999	2	[0, 0, 0]	n/a	catFR1	1	R1515T
341.031	10.349	351472	COUNTDOWN_START	n/a	n/a	n/a	n/a	-999	2	[0, 0, 0]	n/a	catFR1	1	R1515T
351.38	0.0	361824	COUNTDOWN_END	n/a	n/a	n/a	n/a	-999	2	[0, 0, 0]	n/a	catFR1	1	R1515T
351.38	2.033	361824	ENCODING_START	n/a	n/a	n/a	n/a	-999	3	[0, 0, 0]	n/a	catFR1	1	R1515T
353.413	1.617	363857	WORD	n/a	wordpools/wordpool_categorized_EN.txt	DOOR	Building	1	3	[0, 0, 0]	n/a	catFR1	1	R1515T
355.03	0.834	365468	WORD_OFF	n/a	n/a	DOOR	Building	1	3	[0, 0, 0]	n/a	catFR1	1	R1515T
355.864	1.617	366303	WORD	n/a	wordpools/wordpool_categorized_EN.txt	BATHROOM	Building	2	3	[0, 0, 0]	n/a	catFR1	1	R1515T
357.481	0.766	367923	WORD_OFF	n/a	n/a	BATHROOM	Building	2	3	[0, 0, 0]	n/a	catFR1	1	R1515T
358.247	1.617	368689	WORD	n/a	wordpools/wordpool_categorized_EN.txt	CAULIFLOWER	Vegetables	3	3	[0, 0, 0]	n/a	catFR1	1	R1515T
359.864	0.783	370310	WORD_OFF	n/a	n/a	CAULIFLOWER	Vegetables	3	3	[0, 0, 0]	n/a	catFR1	1	R1515T
360.647	1.6	371086	WORD	n/a	wordpools/wordpool_categorized_EN.txt	CELERY	Vegetables	4	3	[0, 0, 0]	n/a	catFR1	1	R1515T
362.247	0.984	372687	WORD_OFF	n/a	n/a	CELERY	Vegetables	4	3	[0, 0, 0]	n/a	catFR1	1	R1515T
363.231	1.616	373669	WORD	n/a	wordpools/wordpool_categorized_EN.txt	NIGHTSTAND	Furniture	5	3	[0, 0, 0]	n/a	catFR1	1	R1515T
364.847	0.883	375290	WORD_OFF	n/a	n/a	NIGHTSTAND	Furniture	5	3	[0, 0, 0]	n/a	catFR1	1	R1515T
365.73	1.601	376174	WORD	n/a	wordpools/wordpool_categorized_EN.txt	CHAIR	Furniture	6	3	[0, 0, 0]	n/a	catFR1	1	R1515T
367.331	0.983	377774	WORD_OFF	n/a	n/a	CHAIR	Furniture	6	3	[0, 0, 0]	n/a	catFR1	1	R1515T
368.314	1.6	378757	WORD	n/a	wordpools/wordpool_categorized_EN.txt	FLOOR	Building	7	3	[0, 0, 0]	n/a	catFR1	1	R1515T
369.914	0.833	380358	WORD_OFF	n/a	n/a	FLOOR	Building	7	3	[0, 0, 0]	n/a	catFR1	1	R1515T
370.747	1.616	381192	WORD	n/a	wordpools/wordpool_categorized_EN.txt	WINDOW	Building	8	3	[0, 0, 0]	n/a	catFR1	1	R1515T
372.363	0.951	382803	WORD_OFF	n/a	n/a	WINDOW	Building	8	3	[0, 0, 0]	n/a	catFR1	1	R1515T
373.314	1.616	383756	WORD	n/a	wordpools/wordpool_categorized_EN.txt	CABINET	Furniture	9	3	[0, 0, 0]	n/a	catFR1	1	R1515T
374.93	0.884	385367	WORD_OFF	n/a	n/a	CABINET	Furniture	9	3	[0, 0, 0]	n/a	catFR1	1	R1515T
375.814	1.6	386251	WORD	n/a	wordpools/wordpool_categorized_EN.txt	COUCH	Furniture	10	3	[0, 0, 0]	n/a	catFR1	1	R1515T
377.414	1.0	387852	WORD_OFF	n/a	n/a	COUCH	Furniture	10	3	[0, 0, 0]	n/a	catFR1	1	R1515T
378.414	1.6	388853	WORD	n/a	wordpools/wordpool_categorized_EN.txt	SPINACH	Vegetables	11	3	[0, 0, 0]	n/a	catFR1	1	R1515T
380.014	0.899	390454	WORD_OFF	n/a	n/a	SPINACH	Vegetables	11	3	[0, 0, 0]	n/a	catFR1	1	R1515T
380.913	1.6	391358	WORD	n/a	wordpools/wordpool_categorized_EN.txt	CUCUMBER	Vegetables	12	3	[0, 0, 0]	n/a	catFR1	1	R1515T
382.513	0.001	392959	WORD_OFF	n/a	n/a	CUCUMBER	Vegetables	12	3	[0, 0, 0]	n/a	catFR1	1	R1515T
382.514	0.0	392959	ENCODING_END	n/a	n/a	n/a	n/a	-999	3	[0, 0, 0]	n/a	catFR1	1	R1515T
382.514	0.0	392959	DISTRACT_START	n/a	n/a	n/a	n/a	-999	3	[0, 0, 0]	n/a	catFR1	1	R1515T
382.514	0.0	392960	START	n/a	n/a	n/a	n/a	-999	3	[-999, -999, -999]	n/a	catFR1	1	R1515T
382.514	6.067	392960	PROB	6.067	n/a	n/a	n/a	-999	3	[1, 8, 6]	15	catFR1	1	R1515T
388.581	3.333	399026	PROB	3.333	n/a	n/a	n/a	-999	3	[1, 7, 8]	16	catFR1	1	R1515T
391.914	3.767	402359	PROB	3.767	n/a	n/a	n/a	-999	3	[2, 8, 4]	14	catFR1	1	R1515T
395.681	7.483	406126	PROB	7.483	n/a	n/a	n/a	-999	3	[4, 5, 8]	17	catFR1	1	R1515T
403.164	0.0	413604	DISTRACT_END	n/a	n/a	n/a	n/a	-999	3	[0, 0, 0]	n/a	catFR1	1	R1515T
403.164	1.032	413609	STOP	n/a	n/a	n/a	n/a	-999	3	[-999, -999, -999]	n/a	catFR1	1	R1515T
404.196	0.002	414636	REC_START	n/a	n/a	n/a	n/a	-999	3	[0, 0, 0]	n/a	catFR1	1	R1515T
404.198	0.736	414643	REC_WORD	0.736	n/a	CUCUMBER	Vegetables	12	3	[0, 0, 0]	n/a	catFR1	1	R1515T
404.934	1.0	415379	REC_WORD	1.0	n/a	SPINACH	Vegetables	11	3	[0, 0, 0]	n/a	catFR1	1	R1515T
405.934	0.87	416378	REC_WORD	0.87	n/a	SPINACH	Vegetables	11	3	[0, 0, 0]	n/a	catFR1	1	R1515T
406.804	1.0	417248	REC_WORD	1.0	n/a	CAULIFLOWER	Vegetables	3	3	[0, 0, 0]	n/a	catFR1	1	R1515T
407.804	2.43	418248	REC_WORD	2.43	n/a	CAULIFLOWER	Vegetables	3	3	[0, 0, 0]	n/a	catFR1	1	R1515T
410.234	0.794	420678	REC_WORD_VV	0.794	n/a	<>	n/a	-999	3	[0, 0, 0]	n/a	catFR1	1	R1515T
411.028	0.775	421472	REC_WORD	0.775	n/a	DOOR	Building	1	3	[0, 0, 0]	n/a	catFR1	1	R1515T
411.803	1.0	422247	REC_WORD	1.0	n/a	HALLWAY	Building	-999	3	[0, 0, 0]	n/a	catFR1	1	R1515T
412.803	1.055	423247	REC_WORD	1.055	n/a	HALLWAY	Building	-999	3	[0, 0, 0]	n/a	catFR1	1	R1515T
413.858	1.0	424302	REC_WORD	1.0	n/a	FLOOR	Building	7	3	[0, 0, 0]	n/a	catFR1	1	R1515T
414.858	0.835	425302	REC_WORD	0.835	n/a	FLOOR	Building	7	3	[0, 0, 0]	n/a	catFR1	1	R1515T
415.693	1.0	426137	REC_WORD	1.0	n/a	CABINET	Furniture	9	3	[0, 0, 0]	n/a	catFR1	1	R1515T
416.693	6.836	427137	REC_WORD	6.836	n/a	CABINET	Furniture	9	3	[0, 0, 0]	n/a	catFR1	1	R1515T
423.529	1.0	433973	REC_WORD	1.0	n/a	BEDROOM	n/a	-999	3	[0, 0, 0]	n/a	catFR1	1	R1515T
424.529	7.433	434973	REC_WORD	7.433	n/a	BEDROOM	n/a	-999	3	[0, 0, 0]	n/a	catFR1	1	R1515T
431.962	1.0	442405	REC_WORD_VV	1.0	n/a	<>	n/a	-999	3	[0, 0, 0]	n/a	catFR1	1	R1515T
432.962	2.483	443405	REC_WORD_VV	2.483	n/a	<>	n/a	-999	3	[0, 0, 0]	n/a	catFR1	1	R1515T
435.445	2.218	445888	REC_END	n/a	n/a	n/a	n/a	-999	3	[0, 0, 0]	n/a	catFR1	1	R1515T
437.663	10.351	448098	COUNTDOWN_START	n/a	n/a	n/a	n/a	-999	3	[0, 0, 0]	n/a	catFR1	1	R1515T
448.014	0.0	458451	COUNTDOWN_END	n/a	n/a	n/a	n/a	-999	3	[0, 0, 0]	n/a	catFR1	1	R1515T
448.014	2.3	458451	ENCODING_START	n/a	n/a	n/a	n/a	-999	4	[0, 0, 0]	n/a	catFR1	1	R1515T
450.314	1.617	460749	WORD	n/a	wordpools/wordpool_categorized_EN.txt	BEER	Beverages	1	4	[0, 0, 0]	n/a	catFR1	1	R1515T
451.931	0.783	462369	WORD_OFF	n/a	n/a	BEER	Beverages	1	4	[0, 0, 0]	n/a	catFR1	1	R1515T
452.714	1.617	463155	WORD	n/a	wordpools/wordpool_categorized_EN.txt	WATER	Beverages	2	4	[0, 0, 0]	n/a	catFR1	1	R1515T
454.331	0.899	464766	WORD_OFF	n/a	n/a	WATER	Beverages	2	4	[0, 0, 0]	n/a	catFR1	1	R1515T
455.23	1.601	465670	WORD	n/a	wordpools/wordpool_categorized_EN.txt	BED	Furniture	3	4	[0, 0, 0]	n/a	catFR1	1	R1515T
456.831	0.966	467271	WORD_OFF	n/a	n/a	BED	Furniture	3	4	[0, 0, 0]	n/a	catFR1	1	R1515T
457.797	1.6	468233	WORD	n/a	wordpools/wordpool_categorized_EN.txt	DRESSER	Furniture	4	4	[0, 0, 0]	n/a	catFR1	1	R1515T
459.397	0.783	469834	WORD_OFF	n/a	n/a	DRESSER	Furniture	4	4	[0, 0, 0]	n/a	catFR1	1	R1515T
460.18	1.6	470620	WORD	n/a	wordpools/wordpool_categorized_EN.txt	PEN	OfficeSupplies	5	4	[0, 0, 0]	n/a	catFR1	1	R1515T
461.78	0.867	472221	WORD_OFF	n/a	n/a	PEN	OfficeSupplies	5	4	[0, 0, 0]	n/a	catFR1	1	R1515T
462.647	1.6	473085	WORD	n/a	wordpools/wordpool_categorized_EN.txt	ERASER	OfficeSupplies	6	4	[0, 0, 0]	n/a	catFR1	1	R1515T
464.247	0.884	474686	WORD_OFF	n/a	n/a	ERASER	OfficeSupplies	6	4	[0, 0, 0]	n/a	catFR1	1	R1515T
465.131	1.616	475570	WORD	n/a	wordpools/wordpool_categorized_EN.txt	DESK	Furniture	7	4	[0, 0, 0]	n/a	catFR1	1	R1515T
466.747	0.85	477181	WORD_OFF	n/a	n/a	DESK	Furniture	7	4	[0, 0, 0]	n/a	catFR1	1	R1515T
467.597	1.6	478035	WORD	n/a	wordpools/wordpool_categorized_EN.txt	TABLE	Furniture	8	4	[0, 0, 0]	n/a	catFR1	1	R1515T
469.197	0.834	479636	WORD_OFF	n/a	n/a	TABLE	Furniture	8	4	[0, 0, 0]	n/a	catFR1	1	R1515T
470.031	1.6	480471	WORD	n/a	wordpools/wordpool_categorized_EN.txt	MARKER	OfficeSupplies	9	4	[0, 0, 0]	n/a	catFR1	1	R1515T
471.631	0.816	482062	WORD_OFF	n/a	n/a	MARKER	OfficeSupplies	9	4	[0, 0, 0]	n/a	catFR1	1	R1515T
472.447	1.6	482887	WORD	n/a	wordpools/wordpool_categorized_EN.txt	STAPLER	OfficeSupplies	10	4	[0, 0, 0]	n/a	catFR1	1	R1515T
474.047	0.936	484478	WORD_OFF	n/a	n/a	STAPLER	OfficeSupplies	10	4	[0, 0, 0]	n/a	catFR1	1	R1515T
474.983	1.597	485421	WORD	n/a	wordpools/wordpool_categorized_EN.txt	SODA	Beverages	11	4	[0, 0, 0]	n/a	catFR1	1	R1515T
476.58	0.966	487012	WORD_OFF	n/a	n/a	SODA	Beverages	11	4	[0, 0, 0]	n/a	catFR1	1	R1515T
477.546	1.601	487985	WORD	n/a	wordpools/wordpool_categorized_EN.txt	JUICE	Beverages	12	4	[0, 0, 0]	n/a	catFR1	1	R1515T
479.147	0.001	489586	WORD_OFF	n/a	n/a	JUICE	Beverages	12	4	[0, 0, 0]	n/a	catFR1	1	R1515T
479.148	0.0	489586	ENCODING_END	n/a	n/a	n/a	n/a	-999	4	[0, 0, 0]	n/a	catFR1	1	R1515T
479.148	0.0	489586	DISTRACT_START	n/a	n/a	n/a	n/a	-999	4	[0, 0, 0]	n/a	catFR1	1	R1515T
479.148	0.0	489589	START	n/a	n/a	n/a	n/a	-999	4	[-999, -999, -999]	n/a	catFR1	1	R1515T
479.148	5.632	489589	PROB	5.632	n/a	n/a	n/a	-999	4	[7, 7, 4]	18	catFR1	1	R1515T
484.78	6.567	495220	PROB	6.567	n/a	n/a	n/a	-999	4	[3, 5, 2]	10	catFR1	1	R1515T
491.347	7.25	501787	PROB	7.25	n/a	n/a	n/a	-999	4	[3, 4, 2]	9	catFR1	1	R1515T
498.597	3.331	509037	PROB	3.331	n/a	n/a	n/a	-999	4	[2, 6, 6]	14	catFR1	1	R1515T
501.928	0.0	512362	DISTRACT_END	n/a	n/a	n/a	n/a	-999	4	[0, 0, 0]	n/a	catFR1	1	R1515T
501.928	1.203	512368	STOP	n/a	n/a	n/a	n/a	-999	4	[-999, -999, -999]	n/a	catFR1	1	R1515T
503.131	0.0	513570	REC_START	n/a	n/a	n/a	n/a	-999	4	[0, 0, 0]	n/a	catFR1	1	R1515T
503.131	0.771	513570	REC_WORD	0.771	n/a	WATER	Beverages	2	4	[0, 0, 0]	n/a	catFR1	1	R1515T
503.902	1.0	514341	REC_WORD	1.0	n/a	SODA	Beverages	11	4	[0, 0, 0]	n/a	catFR1	1	R1515T
504.902	0.025	515341	REC_WORD	0.025	n/a	SODA	Beverages	11	4	[0, 0, 0]	n/a	catFR1	1	R1515T
504.927	1.0	515366	REC_WORD	1.0	n/a	BEER	Beverages	1	4	[0, 0, 0]	n/a	catFR1	1	R1515T
505.927	1.419	516366	REC_WORD	1.419	n/a	BEER	Beverages	1	4	[0, 0, 0]	n/a	catFR1	1	R1515T
507.346	0.65	517785	REC_WORD	0.65	n/a	SODA	Beverages	11	4	[0, 0, 0]	n/a	catFR1	1	R1515T
507.996	0.348	518435	REC_WORD	0.348	n/a	BEER	Beverages	1	4	[0, 0, 0]	n/a	catFR1	1	R1515T
508.344	1.555	518783	REC_WORD	1.555	n/a	JUICE	Beverages	12	4	[0, 0, 0]	n/a	catFR1	1	R1515T
509.899	0.329	520338	REC_WORD_VV	0.329	n/a	<>	n/a	-999	4	[0, 0, 0]	n/a	catFR1	1	R1515T
510.228	0.814	520667	REC_WORD	0.814	n/a	MARKER	OfficeSupplies	9	4	[0, 0, 0]	n/a	catFR1	1	R1515T
511.042	1.0	521481	REC_WORD	1.0	n/a	STAPLER	OfficeSupplies	10	4	[0, 0, 0]	n/a	catFR1	1	R1515T
512.042	1.22	522481	REC_WORD	1.22	n/a	STAPLER	OfficeSupplies	10	4	[0, 0, 0]	n/a	catFR1	1	R1515T
513.262	0.719	523701	REC_WORD	0.719	n/a	PEN	OfficeSupplies	5	4	[0, 0, 0]	n/a	catFR1	1	R1515T
513.981	1.0	524420	REC_WORD	1.0	n/a	ERASER	OfficeSupplies	6	4	[0, 0, 0]	n/a	catFR1	1	R1515T
514.981	1.8	525420	REC_WORD	1.8	n/a	ERASER	OfficeSupplies	6	4	[0, 0, 0]	n/a	catFR1	1	R1515T
516.781	0.794	527220	REC_WORD_VV	0.794	n/a	<>	n/a	-999	4	[0, 0, 0]	n/a	catFR1	1	R1515T
517.575	1.0	528014	REC_WORD	1.0	n/a	BED	Furniture	3	4	[0, 0, 0]	n/a	catFR1	1	R1515T
518.575	1.215	529014	REC_WORD	1.215	n/a	BED	Furniture	3	4	[0, 0, 0]	n/a	catFR1	1	R1515T
519.79	1.0	530229	REC_WORD	1.0	n/a	COUCH	Furniture	-999	4	[0, 0, 0]	n/a	catFR1	1	R1515T
520.79	4.793	531229	REC_WORD	4.793	n/a	COUCH	Furniture	-999	4	[0, 0, 0]	n/a	catFR1	1	R1515T
525.583	0.539	536021	REC_WORD	0.539	n/a	BED	Furniture	3	4	[0, 0, 0]	n/a	catFR1	1	R1515T
526.122	1.499	536560	REC_WORD	1.499	n/a	COUCH	Furniture	-999	4	[0, 0, 0]	n/a	catFR1	1	R1515T
527.621	1.0	538059	REC_WORD	1.0	n/a	CABINET	Furniture	-999	4	[0, 0, 0]	n/a	catFR1	1	R1515T
528.621	5.746	539059	REC_WORD	5.746	n/a	CABINET	Furniture	-999	4	[0, 0, 0]	n/a	catFR1	1	R1515T
534.367	1.564	544804	REC_END	n/a	n/a	n/a	n/a	-999	4	[0, 0, 0]	n/a	catFR1	1	R1515T
535.931	10.349	546365	COUNTDOWN_START	n/a	n/a	n/a	n/a	-999	4	[0, 0, 0]	n/a	catFR1	1	R1515T
546.28	0.0	556717	COUNTDOWN_END	n/a	n/a	n/a	n/a	-999	4	[0, 0, 0]	n/a	catFR1	1	R1515T
546.28	2.067	556717	ENCODING_START	n/a	n/a	n/a	n/a	-999	5	[0, 0, 0]	n/a	catFR1	1	R1515T
548.347	1.6	558780	WORD	n/a	wordpools/wordpool_categorized_EN.txt	PLUM	Fruit	1	5	[0, 0, 0]	n/a	catFR1	1	R1515T
549.947	0.9	560381	WORD_OFF	n/a	n/a	PLUM	Fruit	1	5	[0, 0, 0]	n/a	catFR1	1	R1515T
550.847	1.617	561275	WORD	n/a	wordpools/wordpool_categorized_EN.txt	GRAPE	Fruit	2	5	[0, 0, 0]	n/a	catFR1	1	R1515T
552.464	0.9	562895	WORD_OFF	n/a	n/a	GRAPE	Fruit	2	5	[0, 0, 0]	n/a	catFR1	1	R1515T
553.364	1.617	563799	WORD	n/a	wordpools/wordpool_categorized_EN.txt	HEADPHONES	Electronics	3	5	[0, 0, 0]	n/a	catFR1	1	R1515T
554.981	0.916	565410	WORD_OFF	n/a	n/a	HEADPHONES	Electronics	3	5	[0, 0, 0]	n/a	catFR1	1	R1515T
555.897	1.6	566333	WORD	n/a	wordpools/wordpool_categorized_EN.txt	TELEVISION	Electronics	4	5	[0, 0, 0]	n/a	catFR1	1	R1515T
557.497	0.867	567934	WORD_OFF	n/a	n/a	TELEVISION	Electronics	4	5	[0, 0, 0]	n/a	catFR1	1	R1515T
558.364	1.614	568798	WORD	n/a	wordpools/wordpool_categorized_EN.txt	FORK	KitchenTools	5	5	[0, 0, 0]	n/a	catFR1	1	R1515T
559.978	0.853	570409	WORD_OFF	n/a	n/a	FORK	KitchenTools	5	5	[0, 0, 0]	n/a	catFR1	1	R1515T
560.831	1.6	571263	WORD	n/a	wordpools/wordpool_categorized_EN.txt	CORKSCREW	KitchenTools	6	5	[0, 0, 0]	n/a	catFR1	1	R1515T
562.431	0.783	572864	WORD_OFF	n/a	n/a	CORKSCREW	KitchenTools	6	5	[0, 0, 0]	n/a	catFR1	1	R1515T
563.214	1.616	573650	WORD	n/a	wordpools/wordpool_categorized_EN.txt	PRINTER	Electronics	7	5	[0, 0, 0]	n/a	catFR1	1	R1515T
564.83	1.001	575261	WORD_OFF	n/a	n/a	PRINTER	Electronics	7	5	[0, 0, 0]	n/a	catFR1	1	R1515T
565.831	1.616	576263	WORD	n/a	wordpools/wordpool_categorized_EN.txt	STEREO	Electronics	8	5	[0, 0, 0]	n/a	catFR1	1	R1515T
567.447	1.0	577883	WORD_OFF	n/a	n/a	STEREO	Electronics	8	5	[0, 0, 0]	n/a	catFR1	1	R1515T
568.447	1.617	578875	WORD	n/a	wordpools/wordpool_categorized_EN.txt	COLANDER	KitchenTools	9	5	[0, 0, 0]	n/a	catFR1	1	R1515T
570.064	0.782	580496	WORD_OFF	n/a	n/a	COLANDER	KitchenTools	9	5	[0, 0, 0]	n/a	catFR1	1	R1515T
570.846	1.601	581272	WORD	n/a	wordpools/wordpool_categorized_EN.txt	SPATULA	KitchenTools	10	5	[0, 0, 0]	n/a	catFR1	1	R1515T
572.447	0.899	582883	WORD_OFF	n/a	n/a	SPATULA	KitchenTools	10	5	[0, 0, 0]	n/a	catFR1	1	R1515T
573.346	1.601	583776	WORD	n/a	wordpools/wordpool_categorized_EN.txt	ORANGE	Fruit	11	5	[0, 0, 0]	n/a	catFR1	1	R1515T
574.947	0.95	585377	WORD_OFF	n/a	n/a	ORANGE	Fruit	11	5	[0, 0, 0]	n/a	catFR1	1	R1515T
575.897	1.617	586330	WORD	n/a	wordpools/wordpool_categorized_EN.txt	APPLE	Fruit	12	5	[0, 0, 0]	n/a	catFR1	1	R1515T
577.514	0.0	587941	WORD_OFF	n/a	n/a	APPLE	Fruit	12	5	[0, 0, 0]	n/a	catFR1	1	R1515T
577.514	0.001	587950	PROB	0.001	n/a	n/a	n/a	-999	5	[5, 2, 2]	9	catFR1	1	R1515T
577.515	0.0	587951	ENCODING_END	n/a	n/a	n/a	n/a	-999	5	[0, 0, 0]	n/a	catFR1	1	R1515T
577.515	0.0	587951	DISTRACT_START	n/a	n/a	n/a	n/a	-999	5	[0, 0, 0]	n/a	catFR1	1	R1515T
577.515	4.632	587951	START	n/a	n/a	n/a	n/a	-999	5	[-999, -999, -999]	n/a	catFR1	1	R1515T
582.147	3.166	592582	PROB	3.166	n/a	n/a	n/a	-999	5	[2, 5, 3]	9	catFR1	1	R1515T
585.313	6.918	595748	PROB	6.918	n/a	n/a	n/a	-999	5	[7, 3, 4]	14	catFR1	1	R1515T
592.231	5.432	602666	PROB	5.432	n/a	n/a	n/a	-999	5	[4, 8, 4]	16	catFR1	1	R1515T
597.663	0.0	608095	DISTRACT_END	n/a	n/a	n/a	n/a	-999	5	[0, 0, 0]	n/a	catFR1	1	R1515T
597.663	1.284	608098	STOP	n/a	n/a	n/a	n/a	-999	5	[-999, -999, -999]	n/a	catFR1	1	R1515T
598.947	0.273	609372	REC_START	n/a	n/a	n/a	n/a	-999	5	[0, 0, 0]	n/a	catFR1	1	R1515T
599.22	1.147	609655	REC_WORD	1.147	n/a	PLUM	Fruit	1	5	[0, 0, 0]	n/a	catFR1	1	R1515T
600.367	1.0	610801	REC_WORD	1.0	n/a	ORANGE	Fruit	11	5	[0, 0, 0]	n/a	catFR1	1	R1515T
601.367	1.58	611801	REC_WORD	1.58	n/a	ORANGE	Fruit	11	5	[0, 0, 0]	n/a	catFR1	1	R1515T
602.947	1.0	613381	REC_WORD	1.0	n/a	GRAPE	Fruit	2	5	[0, 0, 0]	n/a	catFR1	1	R1515T
603.947	1.412	614381	REC_WORD	1.412	n/a	GRAPE	Fruit	2	5	[0, 0, 0]	n/a	catFR1	1	R1515T
605.359	1.0	615793	REC_WORD	1.0	n/a	CORKSCREW	KitchenTools	6	5	[0, 0, 0]	n/a	catFR1	1	R1515T
606.359	0.277	616793	REC_WORD	0.277	n/a	CORKSCREW	KitchenTools	6	5	[0, 0, 0]	n/a	catFR1	1	R1515T
606.636	0.635	617070	REC_WORD_VV	0.635	n/a	<>	n/a	-999	5	[0, 0, 0]	n/a	catFR1	1	R1515T
607.271	1.0	617705	REC_WORD	1.0	n/a	CALENDAR	n/a	-999	5	[0, 0, 0]	n/a	catFR1	1	R1515T
608.271	1.166	618705	REC_WORD	1.166	n/a	CALENDAR	n/a	-999	5	[0, 0, 0]	n/a	catFR1	1	R1515T
609.437	0.624	619871	REC_WORD_VV	0.624	n/a	<>	n/a	-999	5	[0, 0, 0]	n/a	catFR1	1	R1515T
610.061	1.0	620495	REC_WORD	1.0	n/a	SPATULA	KitchenTools	10	5	[0, 0, 0]	n/a	catFR1	1	R1515T
611.061	2.695	621495	REC_WORD	2.695	n/a	SPATULA	KitchenTools	10	5	[0, 0, 0]	n/a	catFR1	1	R1515T
613.756	1.0	624190	REC_WORD	1.0	n/a	TELEVISION	Electronics	4	5	[0, 0, 0]	n/a	catFR1	1	R1515T
614.756	3.358	625190	REC_WORD	3.358	n/a	TELEVISION	Electronics	4	5	[0, 0, 0]	n/a	catFR1	1	R1515T
618.114	0.386	628548	REC_WORD_VV	0.386	n/a	<>	n/a	-999	5	[0, 0, 0]	n/a	catFR1	1	R1515T
618.5	0.488	628934	REC_WORD	0.488	n/a	RADIO	n/a	-999	5	[0, 0, 0]	n/a	catFR1	1	R1515T
618.988	3.155	629422	REC_WORD_VV	3.155	n/a	<>	n/a	-999	5	[0, 0, 0]	n/a	catFR1	1	R1515T
622.143	3.08	632576	REC_WORD_VV	3.08	n/a	<>	n/a	-999	5	[0, 0, 0]	n/a	catFR1	1	R1515T
625.223	1.0	635656	REC_WORD_VV	1.0	n/a	<>	n/a	-999	5	[0, 0, 0]	n/a	catFR1	1	R1515T
626.223	3.941	636656	REC_WORD_VV	3.941	n/a	<>	n/a	-999	5	[0, 0, 0]	n/a	catFR1	1	R1515T
630.164	1.9	640595	REC_END	n/a	n/a	n/a	n/a	-999	5	[0, 0, 0]	n/a	catFR1	1	R1515T
632.064	10.35	642491	COUNTDOWN_START	n/a	n/a	n/a	n/a	-999	5	[0, 0, 0]	n/a	catFR1	1	R1515T
642.414	0.0	652843	COUNTDOWN_END	n/a	n/a	n/a	n/a	-999	5	[0, 0, 0]	n/a	catFR1	1	R1515T
642.414	1.983	652843	ENCODING_START	n/a	n/a	n/a	n/a	-999	6	[0, 0, 0]	n/a	catFR1	1	R1515T
644.397	1.616	654827	WORD	n/a	wordpools/wordpool_categorized_EN.txt	BROCCOLI	Vegetables	1	6	[0, 0, 0]	n/a	catFR1	1	R1515T
646.013	0.784	656438	WORD_OFF	n/a	n/a	BROCCOLI	Vegetables	1	6	[0, 0, 0]	n/a	catFR1	1	R1515T
646.797	1.617	657224	WORD	n/a	wordpools/wordpool_categorized_EN.txt	LETTUCE	Vegetables	2	6	[0, 0, 0]	n/a	catFR1	1	R1515T
648.414	0.9	658854	WORD_OFF	n/a	n/a	LETTUCE	Vegetables	2	6	[0, 0, 0]	n/a	catFR1	1	R1515T
649.314	1.616	659738	WORD	n/a	wordpools/wordpool_categorized_EN.txt	BEACH	Landscapes	3	6	[0, 0, 0]	n/a	catFR1	1	R1515T
650.93	0.901	661359	WORD_OFF	n/a	n/a	BEACH	Landscapes	3	6	[0, 0, 0]	n/a	catFR1	1	R1515T
651.831	1.6	662262	WORD	n/a	wordpools/wordpool_categorized_EN.txt	VALLEY	Landscapes	4	6	[0, 0, 0]	n/a	catFR1	1	R1515T
653.431	1.0	663853	WORD_OFF	n/a	n/a	VALLEY	Landscapes	4	6	[0, 0, 0]	n/a	catFR1	1	R1515T
654.431	1.614	664855	WORD	n/a	wordpools/wordpool_categorized_EN.txt	MARBLES	Toys	5	6	[0, 0, 0]	n/a	catFR1	1	R1515T
656.045	1.002	666476	WORD_OFF	n/a	n/a	MARBLES	Toys	5	6	[0, 0, 0]	n/a	catFR1	1	R1515T
657.047	1.6	667478	WORD	n/a	wordpools/wordpool_categorized_EN.txt	DOLLHOUSE	Toys	6	6	[0, 0, 0]	n/a	catFR1	1	R1515T
658.647	0.9	669088	WORD_OFF	n/a	n/a	DOLLHOUSE	Toys	6	6	[0, 0, 0]	n/a	catFR1	1	R1515T
659.547	1.617	669972	WORD	n/a	wordpools/wordpool_categorized_EN.txt	CABBAGE	Vegetables	7	6	[0, 0, 0]	n/a	catFR1	1	R1515T
661.164	0.983	671593	WORD_OFF	n/a	n/a	CABBAGE	Vegetables	7	6	[0, 0, 0]	n/a	catFR1	1	R1515T
662.147	1.6	672575	WORD	n/a	wordpools/wordpool_categorized_EN.txt	POTATO	Vegetables	8	6	[0, 0, 0]	n/a	catFR1	1	R1515T
663.747	0.817	674176	WORD_OFF	n/a	n/a	POTATO	Vegetables	8	6	[0, 0, 0]	n/a	catFR1	1	R1515T
664.564	1.6	674991	WORD	n/a	wordpools/wordpool_categorized_EN.txt	CREEK	Landscapes	9	6	[0, 0, 0]	n/a	catFR1	1	R1515T
666.164	0.917	676592	WORD_OFF	n/a	n/a	CREEK	Landscapes	9	6	[0, 0, 0]	n/a	catFR1	1	R1515T
667.081	1.599	677506	WORD	n/a	wordpools/wordpool_categorized_EN.txt	ISLAND	Landscapes	10	6	[0, 0, 0]	n/a	catFR1	1	R1515T
668.68	0.817	679107	WORD_OFF	n/a	n/a	ISLAND	Landscapes	10	6	[0, 0, 0]	n/a	catFR1	1	R1515T
669.497	1.6	679922	WORD	n/a	wordpools/wordpool_categorized_EN.txt	BASEBALL	Toys	11	6	[0, 0, 0]	n/a	catFR1	1	R1515T
671.097	0.783	681523	WORD_OFF	n/a	n/a	BASEBALL	Toys	11	6	[0, 0, 0]	n/a	catFR1	1	R1515T
671.88	1.601	682308	WORD	n/a	wordpools/wordpool_categorized_EN.txt	BALL	Toys	12	6	[0, 0, 0]	n/a	catFR1	1	R1515T
673.481	0.003	683909	WORD_OFF	n/a	n/a	BALL	Toys	12	6	[0, 0, 0]	n/a	catFR1	1	R1515T
673.484	0.0	683909	ENCODING_END	n/a	n/a	n/a	n/a	-999	6	[0, 0, 0]	n/a	catFR1	1	R1515T
673.484	0.0	683909	DISTRACT_START	n/a	n/a	n/a	n/a	-999	6	[0, 0, 0]	n/a	catFR1	1	R1515T
673.481	0.003	683912	PROB	0.003	n/a	n/a	n/a	-999	6	[6, 3, 3]	12	catFR1	1	R1515T
673.484	5.714	683915	START	n/a	n/a	n/a	n/a	-999	6	[-999, -999, -999]	n/a	catFR1	1	R1515T
679.198	6.083	689628	PROB	6.083	n/a	n/a	n/a	-999	6	[5, 4, 2]	11	catFR1	1	R1515T
685.281	8.481	695711	PROB	8.481	n/a	n/a	n/a	-999	6	[3, 4, 3]	10	catFR1	1	R1515T
693.762	0.0	704191	DISTRACT_END	n/a	n/a	n/a	n/a	-999	6	[0, 0, 0]	n/a	catFR1	1	R1515T
693.762	1.168	704192	STOP	n/a	n/a	n/a	n/a	-999	6	[-999, -999, -999]	n/a	catFR1	1	R1515T
694.93	1.639	705350	REC_START	n/a	n/a	n/a	n/a	-999	6	[0, 0, 0]	n/a	catFR1	1	R1515T
696.569	1.0	706999	REC_WORD	1.0	n/a	BROCCOLI	Vegetables	1	6	[0, 0, 0]	n/a	catFR1	1	R1515T
697.569	0.078	707999	REC_WORD	0.078	n/a	BROCCOLI	Vegetables	1	6	[0, 0, 0]	n/a	catFR1	1	R1515T
697.647	1.0	708077	REC_WORD	1.0	n/a	LETTUCE	Vegetables	2	6	[0, 0, 0]	n/a	catFR1	1	R1515T
698.647	1.796	709076	REC_WORD	1.796	n/a	LETTUCE	Vegetables	2	6	[0, 0, 0]	n/a	catFR1	1	R1515T
700.443	1.0	710872	REC_WORD	1.0	n/a	POTATO	Vegetables	8	6	[0, 0, 0]	n/a	catFR1	1	R1515T
701.443	2.719	711872	REC_WORD	2.719	n/a	POTATO	Vegetables	8	6	[0, 0, 0]	n/a	catFR1	1	R1515T
704.162	0.982	714591	REC_WORD_VV	0.982	n/a	<>	n/a	-999	6	[0, 0, 0]	n/a	catFR1	1	R1515T
705.144	0.97	715573	REC_WORD	0.97	n/a	CREEK	Landscapes	9	6	[0, 0, 0]	n/a	catFR1	1	R1515T
706.114	1.0	716543	REC_WORD	1.0	n/a	VALLEY	Landscapes	4	6	[0, 0, 0]	n/a	catFR1	1	R1515T
707.114	1.56	717543	REC_WORD	1.56	n/a	VALLEY	Landscapes	4	6	[0, 0, 0]	n/a	catFR1	1	R1515T
708.674	4.174	719103	REC_WORD	4.174	n/a	BEACH	Landscapes	3	6	[0, 0, 0]	n/a	catFR1	1	R1515T
712.848	1.0	723277	REC_WORD_VV	1.0	n/a	<>	n/a	-999	6	[0, 0, 0]	n/a	catFR1	1	R1515T
713.848	1.0	724277	REC_WORD_VV	1.0	n/a	<>	n/a	-999	6	[0, 0, 0]	n/a	catFR1	1	R1515T
714.848	1.0	725277	REC_WORD_VV	1.0	n/a	<>	n/a	-999	6	[0, 0, 0]	n/a	catFR1	1	R1515T
715.848	1.0	726277	REC_WORD_VV	1.0	n/a	<>	n/a	-999	6	[0, 0, 0]	n/a	catFR1	1	R1515T
716.848	1.0	727277	REC_WORD_VV	1.0	n/a	<>	n/a	-999	6	[0, 0, 0]	n/a	catFR1	1	R1515T
717.848	5.735	728276	REC_WORD_VV	5.735	n/a	<>	n/a	-999	6	[0, 0, 0]	n/a	catFR1	1	R1515T
723.583	1.0	734011	REC_WORD_VV	1.0	n/a	<>	n/a	-999	6	[0, 0, 0]	n/a	catFR1	1	R1515T
724.583	1.58	735011	REC_WORD_VV	1.58	n/a	<>	n/a	-999	6	[0, 0, 0]	n/a	catFR1	1	R1515T
726.163	2.55	736584	REC_END	n/a	n/a	n/a	n/a	-999	6	[0, 0, 0]	n/a	catFR1	1	R1515T
728.713	10.35	739137	COUNTDOWN_START	n/a	n/a	n/a	n/a	-999	6	[0, 0, 0]	n/a	catFR1	1	R1515T
739.063	0.0	749489	COUNTDOWN_END	n/a	n/a	n/a	n/a	-999	6	[0, 0, 0]	n/a	catFR1	1	R1515T
739.063	2.034	749489	ENCODING_START	n/a	n/a	n/a	n/a	-999	7	[0, 0, 0]	n/a	catFR1	1	R1515T
741.097	1.617	751523	WORD	n/a	wordpools/wordpool_categorized_EN.txt	FOLDER	OfficeSupplies	1	7	[0, 0, 0]	n/a	catFR1	1	R1515T
742.714	0.9	753133	WORD_OFF	n/a	n/a	FOLDER	OfficeSupplies	1	7	[0, 0, 0]	n/a	catFR1	1	R1515T
743.614	1.6	754037	WORD	n/a	wordpools/wordpool_categorized_EN.txt	TAPE	OfficeSupplies	2	7	[0, 0, 0]	n/a	catFR1	1	R1515T
745.214	0.832	755638	WORD_OFF	n/a	n/a	TAPE	OfficeSupplies	2	7	[0, 0, 0]	n/a	catFR1	1	R1515T
746.046	1.602	756473	WORD	n/a	wordpools/wordpool_categorized_EN.txt	HURRICANE	Weather	3	7	[0, 0, 0]	n/a	catFR1	1	R1515T
747.648	0.899	758074	WORD_OFF	n/a	n/a	HURRICANE	Weather	3	7	[0, 0, 0]	n/a	catFR1	1	R1515T
748.547	1.617	758967	WORD	n/a	wordpools/wordpool_categorized_EN.txt	TORNADO	Weather	4	7	[0, 0, 0]	n/a	catFR1	1	R1515T
750.164	1.0	760588	WORD_OFF	n/a	n/a	TORNADO	Weather	4	7	[0, 0, 0]	n/a	catFR1	1	R1515T
751.164	1.6	761590	WORD	n/a	wordpools/wordpool_categorized_EN.txt	COOKIE	Desserts	5	7	[0, 0, 0]	n/a	catFR1	1	R1515T
752.764	1.0	763191	WORD_OFF	n/a	n/a	COOKIE	Desserts	5	7	[0, 0, 0]	n/a	catFR1	1	R1515T
753.764	1.6	764183	WORD	n/a	wordpools/wordpool_categorized_EN.txt	COBBLER	Desserts	6	7	[0, 0, 0]	n/a	catFR1	1	R1515T
755.364	0.85	765784	WORD_OFF	n/a	n/a	COBBLER	Desserts	6	7	[0, 0, 0]	n/a	catFR1	1	R1515T
756.214	1.617	766638	WORD	n/a	wordpools/wordpool_categorized_EN.txt	RULER	OfficeSupplies	7	7	[0, 0, 0]	n/a	catFR1	1	R1515T
757.831	0.799	768249	WORD_OFF	n/a	n/a	RULER	OfficeSupplies	7	7	[0, 0, 0]	n/a	catFR1	1	R1515T
758.63	1.6	769054	WORD	n/a	wordpools/wordpool_categorized_EN.txt	BINDER	OfficeSupplies	8	7	[0, 0, 0]	n/a	catFR1	1	R1515T
760.23	0.984	770655	WORD_OFF	n/a	n/a	BINDER	OfficeSupplies	8	7	[0, 0, 0]	n/a	catFR1	1	R1515T
761.214	1.615	771638	WORD	n/a	wordpools/wordpool_categorized_EN.txt	THUNDER	Weather	9	7	[0, 0, 0]	n/a	catFR1	1	R1515T
762.829	0.985	773248	WORD_OFF	n/a	n/a	THUNDER	Weather	9	7	[0, 0, 0]	n/a	catFR1	1	R1515T
763.814	1.617	774240	WORD	n/a	wordpools/wordpool_categorized_EN.txt	HUMIDITY	Weather	10	7	[0, 0, 0]	n/a	catFR1	1	R1515T
765.431	0.949	775851	WORD_OFF	n/a	n/a	HUMIDITY	Weather	10	7	[0, 0, 0]	n/a	catFR1	1	R1515T
766.38	1.617	776804	WORD	n/a	wordpools/wordpool_categorized_EN.txt	PIE	Desserts	11	7	[0, 0, 0]	n/a	catFR1	1	R1515T
767.997	0.866	778415	WORD_OFF	n/a	n/a	PIE	Desserts	11	7	[0, 0, 0]	n/a	catFR1	1	R1515T
768.863	1.6	779279	WORD	n/a	wordpools/wordpool_categorized_EN.txt	CAKE	Desserts	12	7	[0, 0, 0]	n/a	catFR1	1	R1515T
770.463	0.004	780880	WORD_OFF	n/a	n/a	CAKE	Desserts	12	7	[0, 0, 0]	n/a	catFR1	1	R1515T
770.467	0.0	780890	ENCODING_END	n/a	n/a	n/a	n/a	-999	7	[0, 0, 0]	n/a	catFR1	1	R1515T
770.467	0.0	780890	DISTRACT_START	n/a	n/a	n/a	n/a	-999	7	[0, 0, 0]	n/a	catFR1	1	R1515T
770.464	0.003	780890	PROB	0.003	n/a	n/a	n/a	-999	7	[8, 8, 2]	18	catFR1	1	R1515T
770.467	4.563	780893	START	n/a	n/a	n/a	n/a	-999	7	[-999, -999, -999]	n/a	catFR1	1	R1515T
775.03	4.05	785456	PROB	4.05	n/a	n/a	n/a	-999	7	[1, 1, 3]	5	catFR1	1	R1515T
779.08	10.135	789505	PROB	10.135	n/a	n/a	n/a	-999	7	[1, 4, 5]	10	catFR1	1	R1515T
789.215	13.437	799640	PROB	13.437	n/a	n/a	n/a	-999	7	[4, 8, 7]	19	catFR1	1	R1515T
802.652	0.0	813076	DISTRACT_END	n/a	n/a	n/a	n/a	-999	7	[0, 0, 0]	n/a	catFR1	1	R1515T
802.652	1.245	813076	STOP	n/a	n/a	n/a	n/a	-999	7	[-999, -999, -999]	n/a	catFR1	1	R1515T
803.897	1.094	814313	REC_START	n/a	n/a	n/a	n/a	-999	7	[0, 0, 0]	n/a	catFR1	1	R1515T
804.991	1.0	815415	REC_WORD_VV	1.0	n/a	<>	n/a	-999	7	[0, 0, 0]	n/a	catFR1	1	R1515T
805.991	0.679	816415	REC_WORD_VV	0.679	n/a	<>	n/a	-999	7	[0, 0, 0]	n/a	catFR1	1	R1515T
806.67	1.0	817094	REC_WORD	1.0	n/a	HURRICANE	Weather	3	7	[0, 0, 0]	n/a	catFR1	1	R1515T
807.67	0.054	818094	REC_WORD	0.054	n/a	HURRICANE	Weather	3	7	[0, 0, 0]	n/a	catFR1	1	R1515T
807.724	1.0	818148	REC_WORD	1.0	n/a	HUMIDITY	Weather	10	7	[0, 0, 0]	n/a	catFR1	1	R1515T
808.724	0.09	819148	REC_WORD	0.09	n/a	HUMIDITY	Weather	10	7	[0, 0, 0]	n/a	catFR1	1	R1515T
808.814	1.0	819238	REC_WORD	1.0	n/a	TORNADO	Weather	4	7	[0, 0, 0]	n/a	catFR1	1	R1515T
809.814	1.078	820238	REC_WORD	1.078	n/a	TORNADO	Weather	4	7	[0, 0, 0]	n/a	catFR1	1	R1515T
810.892	1.0	821316	REC_WORD_VV	1.0	n/a	<>	n/a	-999	7	[0, 0, 0]	n/a	catFR1	1	R1515T
811.892	3.44	822316	REC_WORD_VV	3.44	n/a	<>	n/a	-999	7	[0, 0, 0]	n/a	catFR1	1	R1515T
815.332	0.977	825755	REC_WORD_VV	0.977	n/a	<>	n/a	-999	7	[0, 0, 0]	n/a	catFR1	1	R1515T
816.309	1.242	826732	REC_WORD	1.242	n/a	CAKE	Desserts	12	7	[0, 0, 0]	n/a	catFR1	1	R1515T
817.551	1.0	827974	REC_WORD	1.0	n/a	PIE	Desserts	11	7	[0, 0, 0]	n/a	catFR1	1	R1515T
818.551	1.122	828974	REC_WORD	1.122	n/a	PIE	Desserts	11	7	[0, 0, 0]	n/a	catFR1	1	R1515T
819.673	1.0	830096	REC_WORD_VV	1.0	n/a	<>	n/a	-999	7	[0, 0, 0]	n/a	catFR1	1	R1515T
820.673	3.166	831096	REC_WORD_VV	3.166	n/a	<>	n/a	-999	7	[0, 0, 0]	n/a	catFR1	1	R1515T
823.839	1.0	834262	REC_WORD	1.0	n/a	COOKIE	Desserts	5	7	[0, 0, 0]	n/a	catFR1	1	R1515T
824.839	4.765	835262	REC_WORD	4.765	n/a	COOKIE	Desserts	5	7	[0, 0, 0]	n/a	catFR1	1	R1515T
829.604	3.354	840027	REC_WORD_VV	3.354	n/a	<>	n/a	-999	7	[0, 0, 0]	n/a	catFR1	1	R1515T
832.958	2.19	843381	REC_WORD_VV	2.19	n/a	<>	n/a	-999	7	[0, 0, 0]	n/a	catFR1	1	R1515T
835.148	14.682	845566	REC_END	n/a	n/a	n/a	n/a	-999	7	[0, 0, 0]	n/a	catFR1	1	R1515T
849.83	10.349	860250	COUNTDOWN_START	n/a	n/a	n/a	n/a	-999	7	[0, 0, 0]	n/a	catFR1	1	R1515T
860.179	0.0	870592	COUNTDOWN_END	n/a	n/a	n/a	n/a	-999	7	[0, 0, 0]	n/a	catFR1	1	R1515T
860.179	2.135	870602	ENCODING_START	n/a	n/a	n/a	n/a	-999	8	[0, 0, 0]	n/a	catFR1	1	R1515T
862.314	1.6	872733	WORD	n/a	wordpools/wordpool_categorized_EN.txt	PHONE	Electronics	1	8	[0, 0, 0]	n/a	catFR1	1	R1515T
863.914	0.916	874334	WORD_OFF	n/a	n/a	PHONE	Electronics	1	8	[0, 0, 0]	n/a	catFR1	1	R1515T
864.83	1.6	875247	WORD	n/a	wordpools/wordpool_categorized_EN.txt	SCANNER	Electronics	2	8	[0, 0, 0]	n/a	catFR1	1	R1515T
866.43	1.0	876848	WORD_OFF	n/a	n/a	SCANNER	Electronics	2	8	[0, 0, 0]	n/a	catFR1	1	R1515T
867.43	1.601	877850	WORD	n/a	wordpools/wordpool_categorized_EN.txt	ROSE	Flowers	3	8	[0, 0, 0]	n/a	catFR1	1	R1515T
869.031	0.949	879451	WORD_OFF	n/a	n/a	ROSE	Flowers	3	8	[0, 0, 0]	n/a	catFR1	1	R1515T
869.98	1.601	880394	WORD	n/a	wordpools/wordpool_categorized_EN.txt	DAFFODIL	Flowers	4	8	[0, 0, 0]	n/a	catFR1	1	R1515T
871.581	0.882	881995	WORD_OFF	n/a	n/a	DAFFODIL	Flowers	4	8	[0, 0, 0]	n/a	catFR1	1	R1515T
872.463	1.601	882879	WORD	n/a	wordpools/wordpool_categorized_EN.txt	CLOUD	Weather	5	8	[0, 0, 0]	n/a	catFR1	1	R1515T
874.064	0.833	884480	WORD_OFF	n/a	n/a	CLOUD	Weather	5	8	[0, 0, 0]	n/a	catFR1	1	R1515T
874.897	1.6	885315	WORD	n/a	wordpools/wordpool_categorized_EN.txt	DRIZZLE	Weather	6	8	[0, 0, 0]	n/a	catFR1	1	R1515T
876.497	0.933	886916	WORD_OFF	n/a	n/a	DRIZZLE	Weather	6	8	[0, 0, 0]	n/a	catFR1	1	R1515T
877.43	1.601	887849	WORD	n/a	wordpools/wordpool_categorized_EN.txt	MICROWAVE	Electronics	7	8	[0, 0, 0]	n/a	catFR1	1	R1515T
879.031	0.949	889450	WORD_OFF	n/a	n/a	MICROWAVE	Electronics	7	8	[0, 0, 0]	n/a	catFR1	1	R1515T
879.98	1.617	890393	WORD	n/a	wordpools/wordpool_categorized_EN.txt	COMPUTER	Electronics	8	8	[0, 0, 0]	n/a	catFR1	1	R1515T
881.597	1.0	892013	WORD_OFF	n/a	n/a	COMPUTER	Electronics	8	8	[0, 0, 0]	n/a	catFR1	1	R1515T
882.597	1.617	893015	WORD	n/a	wordpools/wordpool_categorized_EN.txt	LILAC	Flowers	9	8	[0, 0, 0]	n/a	catFR1	1	R1515T
884.214	0.816	894626	WORD_OFF	n/a	n/a	LILAC	Flowers	9	8	[0, 0, 0]	n/a	catFR1	1	R1515T
885.03	1.601	895441	WORD	n/a	wordpools/wordpool_categorized_EN.txt	VIOLET	Flowers	10	8	[0, 0, 0]	n/a	catFR1	1	R1515T
886.631	0.933	897042	WORD_OFF	n/a	n/a	VIOLET	Flowers	10	8	[0, 0, 0]	n/a	catFR1	1	R1515T
887.564	1.616	897975	WORD	n/a	wordpools/wordpool_categorized_EN.txt	SNOW	Weather	11	8	[0, 0, 0]	n/a	catFR1	1	R1515T
889.18	1.001	899596	WORD_OFF	n/a	n/a	SNOW	Weather	11	8	[0, 0, 0]	n/a	catFR1	1	R1515T
890.181	1.599	900597	WORD	n/a	wordpools/wordpool_categorized_EN.txt	THUNDERSTORM	Weather	12	8	[0, 0, 0]	n/a	catFR1	1	R1515T
891.78	0.002	902198	WORD_OFF	n/a	n/a	THUNDERSTORM	Weather	12	8	[0, 0, 0]	n/a	catFR1	1	R1515T
891.782	0.0	902198	ENCODING_END	n/a	n/a	n/a	n/a	-999	8	[0, 0, 0]	n/a	catFR1	1	R1515T
891.782	0.0	902198	DISTRACT_START	n/a	n/a	n/a	n/a	-999	8	[0, 0, 0]	n/a	catFR1	1	R1515T
891.781	0.001	902201	PROB	0.001	n/a	n/a	n/a	-999	8	[1, 5, 3]	9	catFR1	1	R1515T
891.782	5.348	902202	START	n/a	n/a	n/a	n/a	-999	8	[-999, -999, -999]	n/a	catFR1	1	R1515T
897.13	6.085	907549	PROB	6.085	n/a	n/a	n/a	-999	8	[3, 3, 7]	13	catFR1	1	R1515T
903.215	6.516	913634	PROB	6.516	n/a	n/a	n/a	-999	8	[8, 5, 3]	16	catFR1	1	R1515T
909.731	6.016	920150	PROB	6.016	n/a	n/a	n/a	-999	8	[5, 7, 7]	19	catFR1	1	R1515T
915.747	0.0	926164	DISTRACT_END	n/a	n/a	n/a	n/a	-999	8	[0, 0, 0]	n/a	catFR1	1	R1515T
915.747	1.05	926165	STOP	n/a	n/a	n/a	n/a	-999	8	[-999, -999, -999]	n/a	catFR1	1	R1515T
916.797	0.738	927214	REC_START	n/a	n/a	n/a	n/a	-999	8	[0, 0, 0]	n/a	catFR1	1	R1515T
917.535	0.603	927953	REC_WORD_VV	0.603	n/a	<>	n/a	-999	8	[0, 0, 0]	n/a	catFR1	1	R1515T
918.138	1.0	928556	REC_WORD	1.0	n/a	ROSE	Flowers	3	8	[0, 0, 0]	n/a	catFR1	1	R1515T
919.138	1.321	929556	REC_WORD	1.321	n/a	ROSE	Flowers	3	8	[0, 0, 0]	n/a	catFR1	1	R1515T
920.459	1.0	930877	REC_WORD	1.0	n/a	VIOLET	Flowers	10	8	[0, 0, 0]	n/a	catFR1	1	R1515T
921.459	0.387	931877	REC_WORD	0.387	n/a	VIOLET	Flowers	10	8	[0, 0, 0]	n/a	catFR1	1	R1515T
921.846	1.0	932264	REC_WORD	1.0	n/a	LILAC	Flowers	9	8	[0, 0, 0]	n/a	catFR1	1	R1515T
922.846	0.35	933264	REC_WORD	0.35	n/a	LILAC	Flowers	9	8	[0, 0, 0]	n/a	catFR1	1	R1515T
923.196	1.0	933614	REC_WORD	1.0	n/a	DAFFODIL	Flowers	4	8	[0, 0, 0]	n/a	catFR1	1	R1515T
924.196	1.113	934614	REC_WORD	1.113	n/a	DAFFODIL	Flowers	4	8	[0, 0, 0]	n/a	catFR1	1	R1515T
925.309	1.0	935727	REC_WORD	1.0	n/a	THUNDERSTORM	Weather	12	8	[0, 0, 0]	n/a	catFR1	1	R1515T
926.309	1.175	936727	REC_WORD	1.175	n/a	THUNDERSTORM	Weather	12	8	[0, 0, 0]	n/a	catFR1	1	R1515T
927.484	8.95	937902	REC_WORD_VV	8.95	n/a	<>	n/a	-999	8	[0, 0, 0]	n/a	catFR1	1	R1515T
936.434	1.005	946851	REC_WORD	1.005	n/a	HUMIDITY	Weather	-999	8	[0, 0, 0]	n/a	catFR1	1	R1515T
937.439	0.279	947856	REC_WORD	0.279	n/a	HUMIDITY	Weather	-999	8	[0, 0, 0]	n/a	catFR1	1	R1515T
937.718	1.0	948135	REC_WORD_VV	1.0	n/a	<>	n/a	-999	8	[0, 0, 0]	n/a	catFR1	1	R1515T
938.718	1.0	949135	REC_WORD_VV	1.0	n/a	<>	n/a	-999	8	[0, 0, 0]	n/a	catFR1	1	R1515T
939.718	8.302	950135	REC_WORD_VV	8.302	n/a	<>	n/a	-999	8	[0, 0, 0]	n/a	catFR1	1	R1515T
948.02	1.527	958428	REC_END	n/a	n/a	n/a	n/a	-999	8	[0, 0, 0]	n/a	catFR1	1	R1515T
949.547	10.349	959960	COUNTDOWN_START	n/a	n/a	n/a	n/a	-999	8	[0, 0, 0]	n/a	catFR1	1	R1515T
959.896	0.0	970312	COUNTDOWN_END	n/a	n/a	n/a	n/a	-999	8	[0, 0, 0]	n/a	catFR1	1	R1515T
959.896	2.017	970312	ENCODING_START	n/a	n/a	n/a	n/a	-999	9	[0, 0, 0]	n/a	catFR1	1	R1515T
961.913	1.6	972326	WORD	n/a	wordpools/wordpool_categorized_EN.txt	TIGER	Zoo	1	9	[0, 0, 0]	n/a	catFR1	1	R1515T
963.513	0.834	973927	WORD_OFF	n/a	n/a	TIGER	Zoo	1	9	[0, 0, 0]	n/a	catFR1	1	R1515T
964.347	1.617	974762	WORD	n/a	wordpools/wordpool_categorized_EN.txt	MONKEY	Zoo	2	9	[0, 0, 0]	n/a	catFR1	1	R1515T
965.964	0.783	976372	WORD_OFF	n/a	n/a	MONKEY	Zoo	2	9	[0, 0, 0]	n/a	catFR1	1	R1515T
966.747	1.617	977158	WORD	n/a	wordpools/wordpool_categorized_EN.txt	WALNUT	Trees	3	9	[0, 0, 0]	n/a	catFR1	1	R1515T
968.364	0.933	978779	WORD_OFF	n/a	n/a	WALNUT	Trees	3	9	[0, 0, 0]	n/a	catFR1	1	R1515T
969.297	1.6	979712	WORD	n/a	wordpools/wordpool_categorized_EN.txt	MAPLE	Trees	4	9	[0, 0, 0]	n/a	catFR1	1	R1515T
970.897	0.783	981313	WORD_OFF	n/a	n/a	MAPLE	Trees	4	9	[0, 0, 0]	n/a	catFR1	1	R1515T
971.68	1.6	982089	WORD	n/a	wordpools/wordpool_categorized_EN.txt	TEA	Beverages	5	9	[0, 0, 0]	n/a	catFR1	1	R1515T
973.28	0.901	983690	WORD_OFF	n/a	n/a	TEA	Beverages	5	9	[0, 0, 0]	n/a	catFR1	1	R1515T
974.181	1.599	984593	WORD	n/a	wordpools/wordpool_categorized_EN.txt	LEMONADE	Beverages	6	9	[0, 0, 0]	n/a	catFR1	1	R1515T
975.78	0.851	986194	WORD_OFF	n/a	n/a	LEMONADE	Beverages	6	9	[0, 0, 0]	n/a	catFR1	1	R1515T
976.631	1.6	987039	WORD	n/a	wordpools/wordpool_categorized_EN.txt	LION	Zoo	7	9	[0, 0, 0]	n/a	catFR1	1	R1515T
978.231	0.932	988640	WORD_OFF	n/a	n/a	LION	Zoo	7	9	[0, 0, 0]	n/a	catFR1	1	R1515T
979.163	1.601	989573	WORD	n/a	wordpools/wordpool_categorized_EN.txt	GIRAFFE	Zoo	8	9	[0, 0, 0]	n/a	catFR1	1	R1515T
980.764	1.0	991174	WORD_OFF	n/a	n/a	GIRAFFE	Zoo	8	9	[0, 0, 0]	n/a	catFR1	1	R1515T
981.764	1.6	992176	WORD	n/a	wordpools/wordpool_categorized_EN.txt	COFFEE	Beverages	9	9	[0, 0, 0]	n/a	catFR1	1	R1515T
983.364	0.799	993777	WORD_OFF	n/a	n/a	COFFEE	Beverages	9	9	[0, 0, 0]	n/a	catFR1	1	R1515T
984.163	1.618	994572	WORD	n/a	wordpools/wordpool_categorized_EN.txt	CIDER	Beverages	10	9	[0, 0, 0]	n/a	catFR1	1	R1515T
985.781	0.833	996193	WORD_OFF	n/a	n/a	CIDER	Beverages	10	9	[0, 0, 0]	n/a	catFR1	1	R1515T
986.614	1.6	997028	WORD	n/a	wordpools/wordpool_categorized_EN.txt	BIRCH	Trees	11	9	[0, 0, 0]	n/a	catFR1	1	R1515T
988.214	0.765	998629	WORD_OFF	n/a	n/a	BIRCH	Trees	11	9	[0, 0, 0]	n/a	catFR1	1	R1515T
988.979	1.601	999395	WORD	n/a	wordpools/wordpool_categorized_EN.txt	EVERGREEN	Trees	12	9	[0, 0, 0]	n/a	catFR1	1	R1515T
990.58	0.001	1000986	WORD_OFF	n/a	n/a	EVERGREEN	Trees	12	9	[0, 0, 0]	n/a	catFR1	1	R1515T
990.581	0.002	1000995	PROB	0.002	n/a	n/a	n/a	-999	9	[7, 4, 8]	19	catFR1	1	R1515T
990.583	0.0	1000996	ENCODING_END	n/a	n/a	n/a	n/a	-999	9	[0, 0, 0]	n/a	catFR1	1	R1515T
990.583	0.0	1000996	DISTRACT_START	n/a	n/a	n/a	n/a	-999	9	[0, 0, 0]	n/a	catFR1	1	R1515T
990.583	7.197	1000997	START	n/a	n/a	n/a	n/a	-999	9	[-999, -999, -999]	n/a	catFR1	1	R1515T
997.78	3.634	1008194	PROB	3.634	n/a	n/a	n/a	-999	9	[6, 1, 6]	13	catFR1	1	R1515T
1001.414	2.599	1011828	PROB	2.599	n/a	n/a	n/a	-999	9	[1, 3, 1]	5	catFR1	1	R1515T
1004.013	7.234	1014427	PROB	7.234	n/a	n/a	n/a	-999	9	[2, 3, 8]	13	catFR1	1	R1515T
1011.247	0.0	1021651	DISTRACT_END	n/a	n/a	n/a	n/a	-999	9	[0, 0, 0]	n/a	catFR1	1	R1515T
1011.247	1.383	1021660	STOP	n/a	n/a	n/a	n/a	-999	9	[-999, -999, -999]	n/a	catFR1	1	R1515T
1012.63	0.255	1023036	REC_START	n/a	n/a	n/a	n/a	-999	9	[0, 0, 0]	n/a	catFR1	1	R1515T
1012.885	0.736	1023298	REC_WORD	0.736	n/a	BIRCH	Trees	11	9	[0, 0, 0]	n/a	catFR1	1	R1515T
1013.621	0.776	1024034	REC_WORD	0.776	n/a	EVERGREEN	Trees	12	9	[0, 0, 0]	n/a	catFR1	1	R1515T
1014.397	1.0	1024810	REC_WORD	1.0	n/a	MAPLE	Trees	4	9	[0, 0, 0]	n/a	catFR1	1	R1515T
1015.397	0.898	1025810	REC_WORD	0.898	n/a	MAPLE	Trees	4	9	[0, 0, 0]	n/a	catFR1	1	R1515T
1016.295	1.0	1026708	REC_WORD	1.0	n/a	LION	Zoo	7	9	[0, 0, 0]	n/a	catFR1	1	R1515T
1017.295	0.111	1027708	REC_WORD	0.111	n/a	LION	Zoo	7	9	[0, 0, 0]	n/a	catFR1	1	R1515T
1017.406	1.0	1027819	REC_WORD	1.0	n/a	TIGER	Zoo	1	9	[0, 0, 0]	n/a	catFR1	1	R1515T
1018.406	1.593	1028819	REC_WORD	1.593	n/a	TIGER	Zoo	1	9	[0, 0, 0]	n/a	catFR1	1	R1515T
1019.999	0.83	1030412	REC_WORD_VV	0.83	n/a	<>	n/a	-999	9	[0, 0, 0]	n/a	catFR1	1	R1515T
1020.829	1.0	1031242	REC_WORD	1.0	n/a	MONKEY	Zoo	2	9	[0, 0, 0]	n/a	catFR1	1	R1515T
1021.829	1.357	1032242	REC_WORD	1.357	n/a	MONKEY	Zoo	2	9	[0, 0, 0]	n/a	catFR1	1	R1515T
1023.186	0.68	1033599	REC_WORD_VV	0.68	n/a	<>	n/a	-999	9	[0, 0, 0]	n/a	catFR1	1	R1515T
1023.866	1.0	1034279	REC_WORD	1.0	n/a	CIDER	Beverages	10	9	[0, 0, 0]	n/a	catFR1	1	R1515T
1024.866	0.06	1035279	REC_WORD	0.06	n/a	CIDER	Beverages	10	9	[0, 0, 0]	n/a	catFR1	1	R1515T
1024.926	1.0	1035339	REC_WORD	1.0	n/a	COFFEE	Beverages	9	9	[0, 0, 0]	n/a	catFR1	1	R1515T
1025.926	0.836	1036339	REC_WORD	0.836	n/a	COFFEE	Beverages	9	9	[0, 0, 0]	n/a	catFR1	1	R1515T
1026.762	8.732	1037175	REC_WORD	8.732	n/a	TEA	Beverages	5	9	[0, 0, 0]	n/a	catFR1	1	R1515T
1035.494	1.0	1045906	REC_WORD	1.0	n/a	EVERGREEN	Trees	12	9	[0, 0, 0]	n/a	catFR1	1	R1515T
1036.494	7.37	1046906	REC_WORD	7.37	n/a	EVERGREEN	Trees	12	9	[0, 0, 0]	n/a	catFR1	1	R1515T
1043.864	2.182	1054269	REC_END	n/a	n/a	n/a	n/a	-999	9	[0, 0, 0]	n/a	catFR1	1	R1515T
1046.046	10.351	1056459	COUNTDOWN_START	n/a	n/a	n/a	n/a	-999	9	[0, 0, 0]	n/a	catFR1	1	R1515T
1056.397	0.0	1066802	COUNTDOWN_END	n/a	n/a	n/a	n/a	-999	9	[0, 0, 0]	n/a	catFR1	1	R1515T
1056.397	2.0	1066802	ENCODING_START	n/a	n/a	n/a	n/a	-999	10	[0, 0, 0]	n/a	catFR1	1	R1515T
1058.397	1.6	1068805	WORD	n/a	wordpools/wordpool_categorized_EN.txt	HEN	FarmAnimals	1	10	[0, 0, 0]	n/a	catFR1	1	R1515T
1059.997	0.982	1070406	WORD_OFF	n/a	n/a	HEN	FarmAnimals	1	10	[0, 0, 0]	n/a	catFR1	1	R1515T
1060.979	1.601	1071388	WORD	n/a	wordpools/wordpool_categorized_EN.txt	SHEEP	FarmAnimals	2	10	[0, 0, 0]	n/a	catFR1	1	R1515T
1062.58	0.817	1072989	WORD_OFF	n/a	n/a	SHEEP	FarmAnimals	2	10	[0, 0, 0]	n/a	catFR1	1	R1515T
1063.397	1.6	1073804	WORD	n/a	wordpools/wordpool_categorized_EN.txt	PIANO	Instruments	3	10	[0, 0, 0]	n/a	catFR1	1	R1515T
1064.997	0.984	1075405	WORD_OFF	n/a	n/a	PIANO	Instruments	3	10	[0, 0, 0]	n/a	catFR1	1	R1515T
1065.981	1.599	1076388	WORD	n/a	wordpools/wordpool_categorized_EN.txt	BANJO	Instruments	4	10	[0, 0, 0]	n/a	catFR1	1	R1515T
1067.58	0.884	1077989	WORD_OFF	n/a	n/a	BANJO	Instruments	4	10	[0, 0, 0]	n/a	catFR1	1	R1515T
1068.464	1.6	1078872	WORD	n/a	wordpools/wordpool_categorized_EN.txt	ORCHID	Flowers	5	10	[0, 0, 0]	n/a	catFR1	1	R1515T
1070.064	0.883	1080473	WORD_OFF	n/a	n/a	ORCHID	Flowers	5	10	[0, 0, 0]	n/a	catFR1	1	R1515T
1070.947	1.617	1081357	WORD	n/a	wordpools/wordpool_categorized_EN.txt	LILY	Flowers	6	10	[0, 0, 0]	n/a	catFR1	1	R1515T
1072.564	0.833	1082968	WORD_OFF	n/a	n/a	LILY	Flowers	6	10	[0, 0, 0]	n/a	catFR1	1	R1515T
1073.397	1.6	1083803	WORD	n/a	wordpools/wordpool_categorized_EN.txt	ORGAN	Instruments	7	10	[0, 0, 0]	n/a	catFR1	1	R1515T
1074.997	0.95	1085404	WORD_OFF	n/a	n/a	ORGAN	Instruments	7	10	[0, 0, 0]	n/a	catFR1	1	R1515T
1075.947	1.617	1086357	WORD	n/a	wordpools/wordpool_categorized_EN.txt	TROMBONE	Instruments	8	10	[0, 0, 0]	n/a	catFR1	1	R1515T
1077.564	0.766	1087967	WORD_OFF	n/a	n/a	TROMBONE	Instruments	8	10	[0, 0, 0]	n/a	catFR1	1	R1515T
1078.33	1.6	1088734	WORD	n/a	wordpools/wordpool_categorized_EN.txt	CARNATION	Flowers	9	10	[0, 0, 0]	n/a	catFR1	1	R1515T
1079.93	0.8	1090334	WORD_OFF	n/a	n/a	CARNATION	Flowers	9	10	[0, 0, 0]	n/a	catFR1	1	R1515T
1080.73	1.617	1091140	WORD	n/a	wordpools/wordpool_categorized_EN.txt	DAISY	Flowers	10	10	[0, 0, 0]	n/a	catFR1	1	R1515T
1082.347	0.784	1092751	WORD_OFF	n/a	n/a	DAISY	Flowers	10	10	[0, 0, 0]	n/a	catFR1	1	R1515T
1083.131	1.615	1093536	WORD	n/a	wordpools/wordpool_categorized_EN.txt	LAMB	FarmAnimals	11	10	[0, 0, 0]	n/a	catFR1	1	R1515T
1084.746	0.834	1095147	WORD_OFF	n/a	n/a	LAMB	FarmAnimals	11	10	[0, 0, 0]	n/a	catFR1	1	R1515T
1085.58	1.6	1095982	WORD	n/a	wordpools/wordpool_categorized_EN.txt	CALF	FarmAnimals	12	10	[0, 0, 0]	n/a	catFR1	1	R1515T
1087.18	0.001	1097583	WORD_OFF	n/a	n/a	CALF	FarmAnimals	12	10	[0, 0, 0]	n/a	catFR1	1	R1515T
1087.181	0.003	1097591	PROB	0.003	n/a	n/a	n/a	-999	10	[1, 2, 6]	9	catFR1	1	R1515T
1087.184	0.0	1097593	ENCODING_END	n/a	n/a	n/a	n/a	-999	10	[0, 0, 0]	n/a	catFR1	1	R1515T
1087.184	0.0	1097593	DISTRACT_START	n/a	n/a	n/a	n/a	-999	10	[0, 0, 0]	n/a	catFR1	1	R1515T
1087.184	3.714	1097594	START	n/a	n/a	n/a	n/a	-999	10	[-999, -999, -999]	n/a	catFR1	1	R1515T
1090.898	3.515	1101307	PROB	3.515	n/a	n/a	n/a	-999	10	[1, 4, 4]	9	catFR1	1	R1515T
1094.413	4.668	1104822	PROB	4.668	n/a	n/a	n/a	-999	10	[6, 1, 7]	14	catFR1	1	R1515T
1099.081	6.117	1109490	PROB	6.117	n/a	n/a	n/a	-999	10	[3, 2, 5]	10	catFR1	1	R1515T
1105.198	4.266	1115607	PROB	4.266	n/a	n/a	n/a	-999	10	[3, 3, 6]	12	catFR1	1	R1515T
1109.464	0.0	1119869	DISTRACT_END	n/a	n/a	n/a	n/a	-999	10	[0, 0, 0]	n/a	catFR1	1	R1515T
1109.464	1.066	1119872	STOP	n/a	n/a	n/a	n/a	-999	10	[-999, -999, -999]	n/a	catFR1	1	R1515T
1110.53	1.673	1120939	REC_START	n/a	n/a	n/a	n/a	-999	10	[0, 0, 0]	n/a	catFR1	1	R1515T
1112.203	1.0	1122611	REC_WORD_VV	1.0	n/a	<>	n/a	-999	10	[0, 0, 0]	n/a	catFR1	1	R1515T
1113.203	0.426	1123611	REC_WORD_VV	0.426	n/a	<>	n/a	-999	10	[0, 0, 0]	n/a	catFR1	1	R1515T
1113.629	1.0	1124037	REC_WORD	1.0	n/a	PIANO	Instruments	3	10	[0, 0, 0]	n/a	catFR1	1	R1515T
1114.629	0.402	1125037	REC_WORD	0.402	n/a	PIANO	Instruments	3	10	[0, 0, 0]	n/a	catFR1	1	R1515T
1115.031	1.0	1125439	REC_WORD	1.0	n/a	ORGAN	Instruments	7	10	[0, 0, 0]	n/a	catFR1	1	R1515T
1116.031	0.929	1126439	REC_WORD	0.929	n/a	ORGAN	Instruments	7	10	[0, 0, 0]	n/a	catFR1	1	R1515T
1116.96	1.0	1127368	REC_WORD	1.0	n/a	BANJO	Instruments	4	10	[0, 0, 0]	n/a	catFR1	1	R1515T
1117.96	2.818	1128368	REC_WORD	2.818	n/a	BANJO	Instruments	4	10	[0, 0, 0]	n/a	catFR1	1	R1515T
1120.778	1.0	1131186	REC_WORD_VV	1.0	n/a	<>	n/a	-999	10	[0, 0, 0]	n/a	catFR1	1	R1515T
1121.778	4.401	1132186	REC_WORD_VV	4.401	n/a	<>	n/a	-999	10	[0, 0, 0]	n/a	catFR1	1	R1515T
1126.179	1.0	1136587	REC_WORD	1.0	n/a	LILY	Flowers	6	10	[0, 0, 0]	n/a	catFR1	1	R1515T
1127.179	0.646	1137586	REC_WORD	0.646	n/a	LILY	Flowers	6	10	[0, 0, 0]	n/a	catFR1	1	R1515T
1127.825	1.0	1138232	REC_WORD	1.0	n/a	ORCHID	Flowers	5	10	[0, 0, 0]	n/a	catFR1	1	R1515T
1128.825	2.659	1139232	REC_WORD	2.659	n/a	ORCHID	Flowers	5	10	[0, 0, 0]	n/a	catFR1	1	R1515T
1131.484	1.0	1141891	REC_WORD	1.0	n/a	DAISY	Flowers	10	10	[0, 0, 0]	n/a	catFR1	1	R1515T
1132.484	4.586	1142891	REC_WORD	4.586	n/a	DAISY	Flowers	10	10	[0, 0, 0]	n/a	catFR1	1	R1515T
1137.07	1.0	1147477	REC_WORD_VV	1.0	n/a	<>	n/a	-999	10	[0, 0, 0]	n/a	catFR1	1	R1515T
1138.07	1.347	1148477	REC_WORD_VV	1.347	n/a	<>	n/a	-999	10	[0, 0, 0]	n/a	catFR1	1	R1515T
1139.417	0.345	1149824	REC_WORD_VV	0.345	n/a	<>	n/a	-999	10	[0, 0, 0]	n/a	catFR1	1	R1515T
1139.762	1.987	1150169	REC_WORD	1.987	n/a	ROSE	Flowers	-999	10	[0, 0, 0]	n/a	catFR1	1	R1515T
1141.749	2.682	1152153	REC_END	n/a	n/a	n/a	n/a	-999	10	[0, 0, 0]	n/a	catFR1	1	R1515T
1144.431	10.349	1154834	COUNTDOWN_START	n/a	n/a	n/a	n/a	-999	10	[0, 0, 0]	n/a	catFR1	1	R1515T
1154.78	0.0	1165186	COUNTDOWN_END	n/a	n/a	n/a	n/a	-999	10	[0, 0, 0]	n/a	catFR1	1	R1515T
1154.78	2.051	1165186	ENCODING_START	n/a	n/a	n/a	n/a	-999	11	[0, 0, 0]	n/a	catFR1	1	R1515T
1156.831	1.599	1167229	WORD	n/a	wordpools/wordpool_categorized_EN.txt	HAWK	Birds	1	11	[0, 0, 0]	n/a	catFR1	1	R1515T
1158.43	0.8	1168830	WORD_OFF	n/a	n/a	HAWK	Birds	1	11	[0, 0, 0]	n/a	catFR1	1	R1515T
1159.23	1.6	1169636	WORD	n/a	wordpools/wordpool_categorized_EN.txt	PIGEON	Birds	2	11	[0, 0, 0]	n/a	catFR1	1	R1515T
1160.83	0.784	1171236	WORD_OFF	n/a	n/a	PIGEON	Birds	2	11	[0, 0, 0]	n/a	catFR1	1	R1515T
1161.614	1.616	1172012	WORD	n/a	wordpools/wordpool_categorized_EN.txt	TOE	BodyParts	3	11	[0, 0, 0]	n/a	catFR1	1	R1515T
1163.23	0.934	1173633	WORD_OFF	n/a	n/a	TOE	BodyParts	3	11	[0, 0, 0]	n/a	catFR1	1	R1515T
1164.164	1.6	1174566	WORD	n/a	wordpools/wordpool_categorized_EN.txt	KNEE	BodyParts	4	11	[0, 0, 0]	n/a	catFR1	1	R1515T
1165.764	0.999	1176167	WORD_OFF	n/a	n/a	KNEE	BodyParts	4	11	[0, 0, 0]	n/a	catFR1	1	R1515T
1166.763	1.601	1177169	WORD	n/a	wordpools/wordpool_categorized_EN.txt	COLA	Beverages	5	11	[0, 0, 0]	n/a	catFR1	1	R1515T
1168.364	0.766	1178760	WORD_OFF	n/a	n/a	COLA	Beverages	5	11	[0, 0, 0]	n/a	catFR1	1	R1515T
1169.13	1.6	1179526	WORD	n/a	wordpools/wordpool_categorized_EN.txt	WINE	Beverages	6	11	[0, 0, 0]	n/a	catFR1	1	R1515T
1170.73	0.867	1181127	WORD_OFF	n/a	n/a	WINE	Beverages	6	11	[0, 0, 0]	n/a	catFR1	1	R1515T
1171.597	1.6	1182001	WORD	n/a	wordpools/wordpool_categorized_EN.txt	ARM	BodyParts	7	11	[0, 0, 0]	n/a	catFR1	1	R1515T
1173.197	0.95	1183602	WORD_OFF	n/a	n/a	ARM	BodyParts	7	11	[0, 0, 0]	n/a	catFR1	1	R1515T
1174.147	1.6	1184545	WORD	n/a	wordpools/wordpool_categorized_EN.txt	EYE	BodyParts	8	11	[0, 0, 0]	n/a	catFR1	1	R1515T
1175.747	0.933	1186146	WORD_OFF	n/a	n/a	EYE	BodyParts	8	11	[0, 0, 0]	n/a	catFR1	1	R1515T
1176.68	1.6	1187079	WORD	n/a	wordpools/wordpool_categorized_EN.txt	GOOSE	Birds	9	11	[0, 0, 0]	n/a	catFR1	1	R1515T
1178.28	0.916	1188680	WORD_OFF	n/a	n/a	GOOSE	Birds	9	11	[0, 0, 0]	n/a	catFR1	1	R1515T
1179.196	1.601	1189593	WORD	n/a	wordpools/wordpool_categorized_EN.txt	DOVE	Birds	10	11	[0, 0, 0]	n/a	catFR1	1	R1515T
1180.797	0.916	1191194	WORD_OFF	n/a	n/a	DOVE	Birds	10	11	[0, 0, 0]	n/a	catFR1	1	R1515T
1181.713	1.6	1192118	WORD	n/a	wordpools/wordpool_categorized_EN.txt	MILK	Beverages	11	11	[0, 0, 0]	n/a	catFR1	1	R1515T
1183.313	0.801	1193709	WORD_OFF	n/a	n/a	MILK	Beverages	11	11	[0, 0, 0]	n/a	catFR1	1	R1515T
1184.114	1.6	1194514	WORD	n/a	wordpools/wordpool_categorized_EN.txt	RUM	Beverages	12	11	[0, 0, 0]	n/a	catFR1	1	R1515T
1185.714	0.003	1196115	WORD_OFF	n/a	n/a	RUM	Beverages	12	11	[0, 0, 0]	n/a	catFR1	1	R1515T
1185.717	0.0	1196115	ENCODING_END	n/a	n/a	n/a	n/a	-999	11	[0, 0, 0]	n/a	catFR1	1	R1515T
1185.717	0.0	1196115	DISTRACT_START	n/a	n/a	n/a	n/a	-999	11	[0, 0, 0]	n/a	catFR1	1	R1515T
1185.714	0.003	1196118	PROB	0.003	n/a	n/a	n/a	-999	11	[1, 4, 8]	13	catFR1	1	R1515T
1185.717	6.447	1196121	START	n/a	n/a	n/a	n/a	-999	11	[-999, -999, -999]	n/a	catFR1	1	R1515T
1192.164	3.749	1202568	PROB	3.749	n/a	n/a	n/a	-999	11	[1, 2, 8]	11	catFR1	1	R1515T
1195.913	8.732	1206317	PROB	8.732	n/a	n/a	n/a	-999	11	[4, 8, 6]	18	catFR1	1	R1515T
1204.645	12.937	1215048	PROB	12.937	n/a	n/a	n/a	-999	11	[5, 8, 6]	19	catFR1	1	R1515T
1217.582	0.0	1227977	DISTRACT_END	n/a	n/a	n/a	n/a	-999	11	[0, 0, 0]	n/a	catFR1	1	R1515T
1217.582	1.298	1227985	STOP	n/a	n/a	n/a	n/a	-999	11	[-999, -999, -999]	n/a	catFR1	1	R1515T
1218.88	0.263	1229283	REC_START	n/a	n/a	n/a	n/a	-999	11	[0, 0, 0]	n/a	catFR1	1	R1515T
1219.143	1.0	1229546	REC_WORD	1.0	n/a	RUM	Beverages	12	11	[0, 0, 0]	n/a	catFR1	1	R1515T
1220.143	2.263	1230546	REC_WORD	2.263	n/a	RUM	Beverages	12	11	[0, 0, 0]	n/a	catFR1	1	R1515T
1222.406	1.0	1232809	REC_WORD	1.0	n/a	COKE	n/a	-999	11	[0, 0, 0]	n/a	catFR1	1	R1515T
1223.406	1.1	1233809	REC_WORD	1.1	n/a	COKE	n/a	-999	11	[0, 0, 0]	n/a	catFR1	1	R1515T
1224.506	1.0	1234908	REC_WORD	1.0	n/a	ARM	BodyParts	7	11	[0, 0, 0]	n/a	catFR1	1	R1515T
1225.506	0.854	1235908	REC_WORD	0.854	n/a	ARM	BodyParts	7	11	[0, 0, 0]	n/a	catFR1	1	R1515T
1226.36	1.0	1236762	REC_WORD	1.0	n/a	TOE	BodyParts	3	11	[0, 0, 0]	n/a	catFR1	1	R1515T
1227.36	14.591	1237762	REC_WORD	14.591	n/a	TOE	BodyParts	3	11	[0, 0, 0]	n/a	catFR1	1	R1515T
1241.951	1.0	1252353	REC_WORD_VV	1.0	n/a	<>	n/a	-999	11	[0, 0, 0]	n/a	catFR1	1	R1515T
1242.951	7.171	1253353	REC_WORD_VV	7.171	n/a	<>	n/a	-999	11	[0, 0, 0]	n/a	catFR1	1	R1515T
1250.122	1.825	1260516	REC_END	n/a	n/a	n/a	n/a	-999	11	[0, 0, 0]	n/a	catFR1	1	R1515T
1251.947	10.349	1262343	COUNTDOWN_START	n/a	n/a	n/a	n/a	-999	11	[0, 0, 0]	n/a	catFR1	1	R1515T
1262.296	0.0	1272695	COUNTDOWN_END	n/a	n/a	n/a	n/a	-999	11	[0, 0, 0]	n/a	catFR1	1	R1515T
1262.296	1.834	1272695	ENCODING_START	n/a	n/a	n/a	n/a	-999	12	[0, 0, 0]	n/a	catFR1	1	R1515T
1264.13	1.601	1274522	WORD	n/a	wordpools/wordpool_categorized_EN.txt	DUCK	Birds	1	12	[0, 0, 0]	n/a	catFR1	1	R1515T
1265.731	0.899	1276123	WORD_OFF	n/a	n/a	DUCK	Birds	1	12	[0, 0, 0]	n/a	catFR1	1	R1515T
1266.63	1.601	1277027	WORD	n/a	wordpools/wordpool_categorized_EN.txt	FINCH	Birds	2	12	[0, 0, 0]	n/a	catFR1	1	R1515T
1268.231	0.916	1278628	WORD_OFF	n/a	n/a	FINCH	Birds	2	12	[0, 0, 0]	n/a	catFR1	1	R1515T
1269.147	1.6	1279541	WORD	n/a	wordpools/wordpool_categorized_EN.txt	FOOT	BodyParts	3	12	[0, 0, 0]	n/a	catFR1	1	R1515T
1270.747	0.867	1281142	WORD_OFF	n/a	n/a	FOOT	BodyParts	3	12	[0, 0, 0]	n/a	catFR1	1	R1515T
1271.614	1.6	1282006	WORD	n/a	wordpools/wordpool_categorized_EN.txt	HAND	BodyParts	4	12	[0, 0, 0]	n/a	catFR1	1	R1515T
1273.214	0.983	1283607	WORD_OFF	n/a	n/a	HAND	BodyParts	4	12	[0, 0, 0]	n/a	catFR1	1	R1515T
1274.197	1.601	1284590	WORD	n/a	wordpools/wordpool_categorized_EN.txt	ELM	Trees	5	12	[0, 0, 0]	n/a	catFR1	1	R1515T
1275.798	0.884	1286191	WORD_OFF	n/a	n/a	ELM	Trees	5	12	[0, 0, 0]	n/a	catFR1	1	R1515T
1276.682	1.615	1287074	WORD	n/a	wordpools/wordpool_categorized_EN.txt	PINE	Trees	6	12	[0, 0, 0]	n/a	catFR1	1	R1515T
1278.297	0.883	1288695	WORD_OFF	n/a	n/a	PINE	Trees	6	12	[0, 0, 0]	n/a	catFR1	1	R1515T
1279.18	1.6	1289579	WORD	n/a	wordpools/wordpool_categorized_EN.txt	NOSE	BodyParts	7	12	[0, 0, 0]	n/a	catFR1	1	R1515T
1280.78	1.0	1291180	WORD_OFF	n/a	n/a	NOSE	BodyParts	7	12	[0, 0, 0]	n/a	catFR1	1	R1515T
1281.78	1.6	1292172	WORD	n/a	wordpools/wordpool_categorized_EN.txt	LEG	BodyParts	8	12	[0, 0, 0]	n/a	catFR1	1	R1515T
1283.38	0.901	1293773	WORD_OFF	n/a	n/a	LEG	BodyParts	8	12	[0, 0, 0]	n/a	catFR1	1	R1515T
1284.281	1.599	1294677	WORD	n/a	wordpools/wordpool_categorized_EN.txt	SPRUCE	Trees	9	12	[0, 0, 0]	n/a	catFR1	1	R1515T
1285.88	0.918	1296277	WORD_OFF	n/a	n/a	SPRUCE	Trees	9	12	[0, 0, 0]	n/a	catFR1	1	R1515T
1286.798	1.599	1297191	WORD	n/a	wordpools/wordpool_categorized_EN.txt	CEDAR	Trees	10	12	[0, 0, 0]	n/a	catFR1	1	R1515T
1288.397	0.817	1298792	WORD_OFF	n/a	n/a	CEDAR	Trees	10	12	[0, 0, 0]	n/a	catFR1	1	R1515T
1289.214	1.6	1299607	WORD	n/a	wordpools/wordpool_categorized_EN.txt	SEAGULL	Birds	11	12	[0, 0, 0]	n/a	catFR1	1	R1515T
1290.814	0.984	1301208	WORD_OFF	n/a	n/a	SEAGULL	Birds	11	12	[0, 0, 0]	n/a	catFR1	1	R1515T
1291.798	1.599	1302190	WORD	n/a	wordpools/wordpool_categorized_EN.txt	BLUEBIRD	Birds	12	12	[0, 0, 0]	n/a	catFR1	1	R1515T
1293.397	0.002	1303791	WORD_OFF	n/a	n/a	BLUEBIRD	Birds	12	12	[0, 0, 0]	n/a	catFR1	1	R1515T
1293.399	0.0	1303791	ENCODING_END	n/a	n/a	n/a	n/a	-999	12	[0, 0, 0]	n/a	catFR1	1	R1515T
1293.397	0.002	1303796	PROB	0.002	n/a	n/a	n/a	-999	12	[1, 6, 6]	13	catFR1	1	R1515T
1293.399	0.0	1303798	START	n/a	n/a	n/a	n/a	-999	12	[-999, -999, -999]	n/a	catFR1	1	R1515T
1293.399	5.065	1303801	DISTRACT_START	n/a	n/a	n/a	n/a	-999	12	[0, 0, 0]	n/a	catFR1	1	R1515T
1298.464	4.433	1308863	PROB	4.433	n/a	n/a	n/a	-999	12	[2, 3, 4]	9	catFR1	1	R1515T
1302.897	4.016	1313295	PROB	4.016	n/a	n/a	n/a	-999	12	[4, 8, 1]	13	catFR1	1	R1515T
1306.913	2.701	1317311	PROB	2.701	n/a	n/a	n/a	-999	12	[7, 1, 1]	9	catFR1	1	R1515T
1309.614	4.117	1320012	PROB	4.117	n/a	n/a	n/a	-999	12	[8, 8, 3]	19	catFR1	1	R1515T
1313.731	0.0	1324122	DISTRACT_END	n/a	n/a	n/a	n/a	-999	12	[0, 0, 0]	n/a	catFR1	1	R1515T
1313.731	1.099	1324129	STOP	n/a	n/a	n/a	n/a	-999	12	[-999, -999, -999]	n/a	catFR1	1	R1515T
1314.83	1.831	1325222	REC_START	n/a	n/a	n/a	n/a	-999	12	[0, 0, 0]	n/a	catFR1	1	R1515T
1316.661	0.317	1327059	REC_WORD_VV	0.317	n/a	<>	n/a	-999	12	[0, 0, 0]	n/a	catFR1	1	R1515T
1316.978	1.0	1327376	REC_WORD	1.0	n/a	ELM	Trees	5	12	[0, 0, 0]	n/a	catFR1	1	R1515T
1317.978	0.195	1328376	REC_WORD	0.195	n/a	ELM	Trees	5	12	[0, 0, 0]	n/a	catFR1	1	R1515T
1318.173	0.487	1328571	REC_WORD_VV	0.487	n/a	<>	n/a	-999	12	[0, 0, 0]	n/a	catFR1	1	R1515T
1318.66	1.0	1329058	REC_WORD	1.0	n/a	PINE	Trees	6	12	[0, 0, 0]	n/a	catFR1	1	R1515T
1319.66	1.216	1330058	REC_WORD	1.216	n/a	PINE	Trees	6	12	[0, 0, 0]	n/a	catFR1	1	R1515T
1320.876	0.499	1331274	REC_WORD_VV	0.499	n/a	<>	n/a	-999	12	[0, 0, 0]	n/a	catFR1	1	R1515T
1321.375	1.0	1331772	REC_WORD	1.0	n/a	SEAGULL	Birds	11	12	[0, 0, 0]	n/a	catFR1	1	R1515T
1322.375	1.458	1332772	REC_WORD	1.458	n/a	SEAGULL	Birds	11	12	[0, 0, 0]	n/a	catFR1	1	R1515T
1323.833	0.399	1334230	REC_WORD_VV	0.399	n/a	<>	n/a	-999	12	[0, 0, 0]	n/a	catFR1	1	R1515T
1324.232	2.105	1334629	REC_WORD	2.105	n/a	DUCK	Birds	1	12	[0, 0, 0]	n/a	catFR1	1	R1515T
1326.337	0.348	1336734	REC_WORD_VV	0.348	n/a	<>	n/a	-999	12	[0, 0, 0]	n/a	catFR1	1	R1515T
1326.685	0.694	1337082	REC_WORD	0.694	n/a	LEG	BodyParts	8	12	[0, 0, 0]	n/a	catFR1	1	R1515T
1327.379	0.381	1337776	REC_WORD_VV	0.381	n/a	<>	n/a	-999	12	[0, 0, 0]	n/a	catFR1	1	R1515T
1327.76	3.132	1338157	REC_WORD	3.132	n/a	ARM	BodyParts	-999	12	[0, 0, 0]	n/a	catFR1	1	R1515T
1330.892	1.0	1341289	REC_WORD_VV	1.0	n/a	<>	n/a	-999	12	[0, 0, 0]	n/a	catFR1	1	R1515T
1331.892	14.182	1342289	REC_WORD_VV	14.182	n/a	<>	n/a	-999	12	[0, 0, 0]	n/a	catFR1	1	R1515T
1346.074	0.0	1356465	REC_END	n/a	n/a	n/a	n/a	-999	12	[0, 0, 0]	n/a	catFR1	1	R1515T
