onset	duration	sample	trial_type	response_time	stim_file	item_name	category	serialpos	list	test	answer	experiment	session	subject
0.0	18.791	159	INSTRUCT_START	n/a	n/a	n/a	n/a	-999	-999	[0, 0, 0]	n/a	catFR1	2	R1328E
18.791	3.45	18949	INSTRUCT_END	n/a	n/a	n/a	n/a	-999	-999	[0, 0, 0]	n/a	catFR1	2	R1328E
22.241	9.058	22399	MIC TEST_START	n/a	n/a	n/a	n/a	-999	-999	[0, 0, 0]	n/a	catFR1	2	R1328E
31.299	0.013	31457	MIC TEST_END	n/a	n/a	n/a	n/a	-999	-999	[0, 0, 0]	n/a	catFR1	2	R1328E
31.312	0.001	31470	TRIAL_START	n/a	n/a	n/a	n/a	-999	-1	[0, 0, 0]	n/a	catFR1	2	R1328E
31.313	0.0	31471	TRIAL	n/a	n/a	n/a	n/a	-999	-1	[0, 0, 0]	n/a	catFR1	2	R1328E
31.313	1.78	31471	WAITING_START	n/a	n/a	n/a	n/a	-999	-1	[0, 0, 0]	n/a	catFR1	2	R1328E
33.093	0.001	33251	WAITING_END	n/a	n/a	n/a	n/a	-999	-1	[0, 0, 0]	n/a	catFR1	2	R1328E
33.094	10.0	33252	COUNTDOWN_START	n/a	n/a	n/a	n/a	-999	-1	[0, 0, 0]	n/a	catFR1	2	R1328E
43.523	0.0	43680	COUNTDOWN_END	n/a	n/a	n/a	n/a	-999	-1	[0, 0, 0]	n/a	catFR1	2	R1328E
43.523	1.122	43680	ORIENT_START	n/a	n/a	n/a	n/a	-999	-1	[0, 0, 0]	n/a	catFR1	2	R1328E
44.645	0.0	44802	ORIENT_END	n/a	n/a	n/a	n/a	-999	-1	[0, 0, 0]	n/a	catFR1	2	R1328E
44.645	0.978	44802	ENCODING_START	n/a	n/a	n/a	n/a	-999	-1	[0, 0, 0]	n/a	catFR1	2	R1328E
45.623	1.6	45780	WORD	n/a	n/a	SILK	n/a	1	-1	[0, 0, 0]	n/a	catFR1	2	R1328E
47.246	0.95	47403	WORD_OFF	n/a	n/a	SILK	n/a	1	-1	[0, 0, 0]	n/a	catFR1	2	R1328E
48.196	1.6	48353	WORD	n/a	n/a	WOOL	n/a	2	-1	[0, 0, 0]	n/a	catFR1	2	R1328E
49.829	0.869	49986	WORD_OFF	n/a	n/a	WOOL	n/a	2	-1	[0, 0, 0]	n/a	catFR1	2	R1328E
50.698	1.6	50855	WORD	n/a	n/a	MINUTE	n/a	3	-1	[0, 0, 0]	n/a	catFR1	2	R1328E
52.314	1.07	52471	WORD_OFF	n/a	n/a	MINUTE	n/a	3	-1	[0, 0, 0]	n/a	catFR1	2	R1328E
53.384	1.6	53541	WORD	n/a	n/a	DENIM	n/a	4	-1	[0, 0, 0]	n/a	catFR1	2	R1328E
55.014	0.863	55171	WORD_OFF	n/a	n/a	DENIM	n/a	4	-1	[0, 0, 0]	n/a	catFR1	2	R1328E
55.877	1.6	56034	WORD	n/a	n/a	HOUR	n/a	5	-1	[0, 0, 0]	n/a	catFR1	2	R1328E
57.514	0.78	57671	WORD_OFF	n/a	n/a	HOUR	n/a	5	-1	[0, 0, 0]	n/a	catFR1	2	R1328E
58.294	1.6	58451	WORD	n/a	n/a	FIREMAN	n/a	6	-1	[0, 0, 0]	n/a	catFR1	2	R1328E
59.931	0.84	60088	WORD_OFF	n/a	n/a	FIREMAN	n/a	6	-1	[0, 0, 0]	n/a	catFR1	2	R1328E
60.771	1.6	60928	WORD	n/a	n/a	FARMER	n/a	7	-1	[0, 0, 0]	n/a	catFR1	2	R1328E
62.399	1.136	62556	WORD_OFF	n/a	n/a	FARMER	n/a	7	-1	[0, 0, 0]	n/a	catFR1	2	R1328E
63.535	1.6	63692	WORD	n/a	n/a	DAY	n/a	8	-1	[0, 0, 0]	n/a	catFR1	2	R1328E
65.165	1.0	65322	WORD_OFF	n/a	n/a	DAY	n/a	8	-1	[0, 0, 0]	n/a	catFR1	2	R1328E
66.165	1.6	66321	WORD	n/a	n/a	PLUMBER	n/a	9	-1	[0, 0, 0]	n/a	catFR1	2	R1328E
67.799	0.804	67955	WORD_OFF	n/a	n/a	PLUMBER	n/a	9	-1	[0, 0, 0]	n/a	catFR1	2	R1328E
68.603	1.6	68759	WORD	n/a	n/a	LEATHER	n/a	10	-1	[0, 0, 0]	n/a	catFR1	2	R1328E
70.233	0.961	70389	WORD_OFF	n/a	n/a	LEATHER	n/a	10	-1	[0, 0, 0]	n/a	catFR1	2	R1328E
71.194	1.6	71350	WORD	n/a	n/a	TEACHER	n/a	11	-1	[0, 0, 0]	n/a	catFR1	2	R1328E
72.817	0.879	72973	WORD_OFF	n/a	n/a	TEACHER	n/a	11	-1	[0, 0, 0]	n/a	catFR1	2	R1328E
73.696	1.6	73852	WORD	n/a	n/a	SECOND	n/a	12	-1	[0, 0, 0]	n/a	catFR1	2	R1328E
75.318	0.001	75474	WORD_OFF	n/a	n/a	SECOND	n/a	12	-1	[0, 0, 0]	n/a	catFR1	2	R1328E
75.319	0.0	75475	ENCODING_END	n/a	n/a	n/a	n/a	-999	-1	[0, 0, 0]	n/a	catFR1	2	R1328E
75.319	0.0	75475	DISTRACT_START	n/a	n/a	n/a	n/a	-999	-1	[0, 0, 0]	n/a	catFR1	2	R1328E
75.319	0.016	75475	START	n/a	n/a	n/a	n/a	-999	-1	[-999, -999, -999]	n/a	catFR1	2	R1328E
75.335	33.851	75491	PROB	33.851	n/a	n/a	n/a	-999	-1	[9, 4, 2]	15.0	catFR1	2	R1328E
109.186	0.02	109341	STOP	n/a	n/a	n/a	n/a	-999	-1	[-999, -999, -999]	n/a	catFR1	2	R1328E
109.206	0.687	109361	DISTRACT_END	n/a	n/a	n/a	n/a	-999	-1	[0, 0, 0]	n/a	catFR1	2	R1328E
109.893	1.6	110048	RETRIEVAL_ORIENT_START	n/a	n/a	n/a	n/a	-999	-1	[0, 0, 0]	n/a	catFR1	2	R1328E
111.557	0.0	111712	RETRIEVAL_ORIENT_END	n/a	n/a	n/a	n/a	-999	-1	[0, 0, 0]	n/a	catFR1	2	R1328E
111.557	0.635	111712	REC_START	n/a	n/a	n/a	n/a	-999	-1	[0, 0, 0]	n/a	catFR1	2	R1328E
112.192	1.312	112347	REC_WORD	0.635	n/a	SILK	n/a	1	-1	[0, 0, 0]	n/a	catFR1	2	R1328E
113.504	0.893	113659	REC_WORD	1.947	n/a	DENIM	n/a	4	-1	[0, 0, 0]	n/a	catFR1	2	R1328E
114.397	0.955	114552	REC_WORD	2.84	n/a	WOOL	n/a	2	-1	[0, 0, 0]	n/a	catFR1	2	R1328E
115.352	0.908	115507	REC_WORD	3.795	n/a	MINUTE	n/a	3	-1	[0, 0, 0]	n/a	catFR1	2	R1328E
116.26	2.176	116415	REC_WORD	4.703	n/a	HOUR	n/a	5	-1	[0, 0, 0]	n/a	catFR1	2	R1328E
118.436	23.133	118591	REC_WORD	6.879	n/a	DAY	n/a	8	-1	[0, 0, 0]	n/a	catFR1	2	R1328E
141.569	0.0	141723	REC_END	n/a	n/a	n/a	n/a	-999	-1	[0, 0, 0]	n/a	catFR1	2	R1328E
141.569	16.93	141723	PRACTICE_POST_INSTRUCT_START	n/a	n/a	n/a	n/a	-999	-1	[0, 0, 0]	n/a	catFR1	2	R1328E
158.499	0.0	158652	PRACTICE_POST_INSTRUCT_END	n/a	n/a	n/a	n/a	-999	-1	[0, 0, 0]	n/a	catFR1	2	R1328E
158.499	0.027	158652	TRIAL_END	n/a	n/a	n/a	n/a	-999	-1	[0, 0, 0]	n/a	catFR1	2	R1328E
158.526	0.001	158679	TRIAL_START	n/a	n/a	n/a	n/a	-999	1	[0, 0, 0]	n/a	catFR1	2	R1328E
158.527	0.0	158680	WAITING_START	n/a	n/a	n/a	n/a	-999	1	[0, 0, 0]	n/a	catFR1	2	R1328E
158.527	10.841	158680	TRIAL	n/a	n/a	n/a	n/a	-999	1	[0, 0, 0]	n/a	catFR1	2	R1328E
169.368	0.0	169521	WAITING_END	n/a	n/a	n/a	n/a	-999	1	[0, 0, 0]	n/a	catFR1	2	R1328E
169.368	10.0	169521	COUNTDOWN_START	n/a	n/a	n/a	n/a	-999	1	[0, 0, 0]	n/a	catFR1	2	R1328E
179.799	0.0	179951	COUNTDOWN_END	n/a	n/a	n/a	n/a	-999	1	[0, 0, 0]	n/a	catFR1	2	R1328E
179.799	1.153	179951	ORIENT_START	n/a	n/a	n/a	n/a	-999	1	[0, 0, 0]	n/a	catFR1	2	R1328E
180.952	0.001	181104	ORIENT_END	n/a	n/a	n/a	n/a	-999	1	[0, 0, 0]	n/a	catFR1	2	R1328E
180.953	1.074	181105	ENCODING_START	n/a	n/a	n/a	n/a	-999	1	[0, 0, 0]	n/a	catFR1	2	R1328E
182.027	1.6	182179	WORD	n/a	wordpools/wordpool_categorized_EN.txt	PANTS	Clothing	1	1	[0, 0, 0]	n/a	catFR1	2	R1328E
183.653	1.039	183805	WORD_OFF	n/a	n/a	PANTS	Clothing	1	1	[0, 0, 0]	n/a	catFR1	2	R1328E
184.692	1.6	184844	WORD	n/a	wordpools/wordpool_categorized_EN.txt	SHOES	Clothing	2	1	[0, 0, 0]	n/a	catFR1	2	R1328E
186.321	1.055	186473	WORD_OFF	n/a	n/a	SHOES	Clothing	2	1	[0, 0, 0]	n/a	catFR1	2	R1328E
187.376	1.6	187528	WORD	n/a	wordpools/wordpool_categorized_EN.txt	ANT	Insects	3	1	[0, 0, 0]	n/a	catFR1	2	R1328E
189.004	1.023	189156	WORD_OFF	n/a	n/a	ANT	Insects	3	1	[0, 0, 0]	n/a	catFR1	2	R1328E
190.027	1.6	190179	WORD	n/a	wordpools/wordpool_categorized_EN.txt	GNAT	Insects	4	1	[0, 0, 0]	n/a	catFR1	2	R1328E
191.654	0.762	191806	WORD_OFF	n/a	n/a	GNAT	Insects	4	1	[0, 0, 0]	n/a	catFR1	2	R1328E
192.416	1.6	192568	WORD	n/a	wordpools/wordpool_categorized_EN.txt	TURTLE	OceanAnimals	5	1	[0, 0, 0]	n/a	catFR1	2	R1328E
194.038	0.754	194190	WORD_OFF	n/a	n/a	TURTLE	OceanAnimals	5	1	[0, 0, 0]	n/a	catFR1	2	R1328E
194.792	1.6	194944	WORD	n/a	wordpools/wordpool_categorized_EN.txt	CRAB	OceanAnimals	6	1	[0, 0, 0]	n/a	catFR1	2	R1328E
196.406	0.796	196558	WORD_OFF	n/a	n/a	CRAB	OceanAnimals	6	1	[0, 0, 0]	n/a	catFR1	2	R1328E
197.202	1.6	197354	WORD	n/a	wordpools/wordpool_categorized_EN.txt	SHIRT	Clothing	7	1	[0, 0, 0]	n/a	catFR1	2	R1328E
198.839	0.841	198991	WORD_OFF	n/a	n/a	SHIRT	Clothing	7	1	[0, 0, 0]	n/a	catFR1	2	R1328E
199.68	1.6	199832	WORD	n/a	wordpools/wordpool_categorized_EN.txt	COAT	Clothing	8	1	[0, 0, 0]	n/a	catFR1	2	R1328E
201.307	0.885	201459	WORD_OFF	n/a	n/a	COAT	Clothing	8	1	[0, 0, 0]	n/a	catFR1	2	R1328E
202.192	1.6	202344	WORD	n/a	wordpools/wordpool_categorized_EN.txt	BUTTERFLY	Insects	9	1	[0, 0, 0]	n/a	catFR1	2	R1328E
203.823	0.847	203975	WORD_OFF	n/a	n/a	BUTTERFLY	Insects	9	1	[0, 0, 0]	n/a	catFR1	2	R1328E
204.67	1.6	204821	WORD	n/a	wordpools/wordpool_categorized_EN.txt	BEE	Insects	10	1	[0, 0, 0]	n/a	catFR1	2	R1328E
206.291	0.917	206442	WORD_OFF	n/a	n/a	BEE	Insects	10	1	[0, 0, 0]	n/a	catFR1	2	R1328E
207.208	1.6	207359	WORD	n/a	wordpools/wordpool_categorized_EN.txt	OCTOPUS	OceanAnimals	11	1	[0, 0, 0]	n/a	catFR1	2	R1328E
208.84	0.937	208991	WORD_OFF	n/a	n/a	OCTOPUS	OceanAnimals	11	1	[0, 0, 0]	n/a	catFR1	2	R1328E
209.777	1.6	209928	WORD	n/a	wordpools/wordpool_categorized_EN.txt	OYSTER	OceanAnimals	12	1	[0, 0, 0]	n/a	catFR1	2	R1328E
211.392	0.0	211543	WORD_OFF	n/a	n/a	OYSTER	OceanAnimals	12	1	[0, 0, 0]	n/a	catFR1	2	R1328E
211.392	0.001	211543	ENCODING_END	n/a	n/a	n/a	n/a	-999	1	[0, 0, 0]	n/a	catFR1	2	R1328E
211.393	0.0	211544	DISTRACT_START	n/a	n/a	n/a	n/a	-999	1	[0, 0, 0]	n/a	catFR1	2	R1328E
211.393	0.015	211544	START	n/a	n/a	n/a	n/a	-999	1	[-999, -999, -999]	n/a	catFR1	2	R1328E
211.408	34.752	211559	PROB	34.752	n/a	n/a	n/a	-999	1	[8, 9, 9]	26.0	catFR1	2	R1328E
246.16	0.02	246310	STOP	n/a	n/a	n/a	n/a	-999	1	[-999, -999, -999]	n/a	catFR1	2	R1328E
246.18	0.647	246330	DISTRACT_END	n/a	n/a	n/a	n/a	-999	1	[0, 0, 0]	n/a	catFR1	2	R1328E
246.827	1.6	246977	RETRIEVAL_ORIENT_START	n/a	n/a	n/a	n/a	-999	1	[0, 0, 0]	n/a	catFR1	2	R1328E
248.547	0.001	248697	RETRIEVAL_ORIENT_END	n/a	n/a	n/a	n/a	-999	1	[0, 0, 0]	n/a	catFR1	2	R1328E
248.548	0.994	248698	REC_START	n/a	n/a	n/a	n/a	-999	1	[0, 0, 0]	n/a	catFR1	2	R1328E
249.542	2.026	249692	REC_WORD	0.994	n/a	COAT	Clothing	8	1	[0, 0, 0]	n/a	catFR1	2	R1328E
251.568	4.298	251718	REC_WORD	3.02	n/a	SHIRT	Clothing	7	1	[0, 0, 0]	n/a	catFR1	2	R1328E
255.866	0.575	256016	REC_WORD	7.318	n/a	PANTS	Clothing	1	1	[0, 0, 0]	n/a	catFR1	2	R1328E
256.441	5.977	256591	REC_WORD	7.893	n/a	SHOES	Clothing	2	1	[0, 0, 0]	n/a	catFR1	2	R1328E
262.418	0.636	262567	REC_WORD	13.87	n/a	CRAB	OceanAnimals	6	1	[0, 0, 0]	n/a	catFR1	2	R1328E
263.054	4.319	263203	REC_WORD	14.506	n/a	OYSTER	OceanAnimals	12	1	[0, 0, 0]	n/a	catFR1	2	R1328E
267.373	11.185	267522	REC_WORD	18.825	n/a	TURTLE	OceanAnimals	5	1	[0, 0, 0]	n/a	catFR1	2	R1328E
278.558	0.0	278707	REC_END	n/a	n/a	n/a	n/a	-999	1	[0, 0, 0]	n/a	catFR1	2	R1328E
278.558	0.026	278707	TRIAL_END	n/a	n/a	n/a	n/a	-999	1	[0, 0, 0]	n/a	catFR1	2	R1328E
278.584	0.001	278733	TRIAL_START	n/a	n/a	n/a	n/a	-999	2	[0, 0, 0]	n/a	catFR1	2	R1328E
278.585	0.0	278734	WAITING_START	n/a	n/a	n/a	n/a	-999	2	[0, 0, 0]	n/a	catFR1	2	R1328E
278.585	6.085	278734	TRIAL	n/a	n/a	n/a	n/a	-999	2	[0, 0, 0]	n/a	catFR1	2	R1328E
284.67	0.001	284819	WAITING_END	n/a	n/a	n/a	n/a	-999	2	[0, 0, 0]	n/a	catFR1	2	R1328E
284.671	10.0	284820	COUNTDOWN_START	n/a	n/a	n/a	n/a	-999	2	[0, 0, 0]	n/a	catFR1	2	R1328E
295.099	0.0	295247	COUNTDOWN_END	n/a	n/a	n/a	n/a	-999	2	[0, 0, 0]	n/a	catFR1	2	R1328E
295.099	1.04	295247	ORIENT_START	n/a	n/a	n/a	n/a	-999	2	[0, 0, 0]	n/a	catFR1	2	R1328E
296.139	0.0	296287	ORIENT_END	n/a	n/a	n/a	n/a	-999	2	[0, 0, 0]	n/a	catFR1	2	R1328E
296.139	1.035	296287	ENCODING_START	n/a	n/a	n/a	n/a	-999	2	[0, 0, 0]	n/a	catFR1	2	R1328E
297.174	1.6	297322	WORD	n/a	wordpools/wordpool_categorized_EN.txt	FOOT	BodyParts	1	2	[0, 0, 0]	n/a	catFR1	2	R1328E
298.806	1.13	298954	WORD_OFF	n/a	n/a	FOOT	BodyParts	1	2	[0, 0, 0]	n/a	catFR1	2	R1328E
299.936	1.6	300084	WORD	n/a	wordpools/wordpool_categorized_EN.txt	NOSE	BodyParts	2	2	[0, 0, 0]	n/a	catFR1	2	R1328E
301.573	0.92	301721	WORD_OFF	n/a	n/a	NOSE	BodyParts	2	2	[0, 0, 0]	n/a	catFR1	2	R1328E
302.493	1.6	302641	WORD	n/a	wordpools/wordpool_categorized_EN.txt	POTATO	Vegetables	3	2	[0, 0, 0]	n/a	catFR1	2	R1328E
304.124	1.011	304272	WORD_OFF	n/a	n/a	POTATO	Vegetables	3	2	[0, 0, 0]	n/a	catFR1	2	R1328E
305.135	1.6	305283	WORD	n/a	wordpools/wordpool_categorized_EN.txt	CARROT	Vegetables	4	2	[0, 0, 0]	n/a	catFR1	2	R1328E
306.758	0.882	306906	WORD_OFF	n/a	n/a	CARROT	Vegetables	4	2	[0, 0, 0]	n/a	catFR1	2	R1328E
307.64	1.6	307788	WORD	n/a	wordpools/wordpool_categorized_EN.txt	BUS	Vehicles	5	2	[0, 0, 0]	n/a	catFR1	2	R1328E
309.275	0.799	309423	WORD_OFF	n/a	n/a	BUS	Vehicles	5	2	[0, 0, 0]	n/a	catFR1	2	R1328E
310.074	1.6	310222	WORD	n/a	wordpools/wordpool_categorized_EN.txt	JEEP	Vehicles	6	2	[0, 0, 0]	n/a	catFR1	2	R1328E
311.708	0.952	311856	WORD_OFF	n/a	n/a	JEEP	Vehicles	6	2	[0, 0, 0]	n/a	catFR1	2	R1328E
312.66	1.6	312808	WORD	n/a	wordpools/wordpool_categorized_EN.txt	ONION	Vegetables	7	2	[0, 0, 0]	n/a	catFR1	2	R1328E
314.293	0.773	314441	WORD_OFF	n/a	n/a	ONION	Vegetables	7	2	[0, 0, 0]	n/a	catFR1	2	R1328E
315.066	1.6	315214	WORD	n/a	wordpools/wordpool_categorized_EN.txt	LETTUCE	Vegetables	8	2	[0, 0, 0]	n/a	catFR1	2	R1328E
316.693	0.763	316840	WORD_OFF	n/a	n/a	LETTUCE	Vegetables	8	2	[0, 0, 0]	n/a	catFR1	2	R1328E
317.456	1.6	317603	WORD	n/a	wordpools/wordpool_categorized_EN.txt	VAN	Vehicles	9	2	[0, 0, 0]	n/a	catFR1	2	R1328E
319.093	0.91	319240	WORD_OFF	n/a	n/a	VAN	Vehicles	9	2	[0, 0, 0]	n/a	catFR1	2	R1328E
320.003	1.6	320150	WORD	n/a	wordpools/wordpool_categorized_EN.txt	MOPED	Vehicles	10	2	[0, 0, 0]	n/a	catFR1	2	R1328E
321.627	1.041	321774	WORD_OFF	n/a	n/a	MOPED	Vehicles	10	2	[0, 0, 0]	n/a	catFR1	2	R1328E
322.668	1.6	322815	WORD	n/a	wordpools/wordpool_categorized_EN.txt	HAND	BodyParts	11	2	[0, 0, 0]	n/a	catFR1	2	R1328E
324.295	0.891	324442	WORD_OFF	n/a	n/a	HAND	BodyParts	11	2	[0, 0, 0]	n/a	catFR1	2	R1328E
325.186	1.6	325333	WORD	n/a	wordpools/wordpool_categorized_EN.txt	ARM	BodyParts	12	2	[0, 0, 0]	n/a	catFR1	2	R1328E
326.811	0.0	326958	WORD_OFF	n/a	n/a	ARM	BodyParts	12	2	[0, 0, 0]	n/a	catFR1	2	R1328E
326.811	0.001	326958	ENCODING_END	n/a	n/a	n/a	n/a	-999	2	[0, 0, 0]	n/a	catFR1	2	R1328E
326.812	0.0	326959	DISTRACT_START	n/a	n/a	n/a	n/a	-999	2	[0, 0, 0]	n/a	catFR1	2	R1328E
326.812	0.015	326959	START	n/a	n/a	n/a	n/a	-999	2	[-999, -999, -999]	n/a	catFR1	2	R1328E
326.827	28.314	326974	PROB	28.314	n/a	n/a	n/a	-999	2	[5, 8, 2]	15.0	catFR1	2	R1328E
355.141	0.008	355287	STOP	n/a	n/a	n/a	n/a	-999	2	[-999, -999, -999]	n/a	catFR1	2	R1328E
355.149	0.679	355295	DISTRACT_END	n/a	n/a	n/a	n/a	-999	2	[0, 0, 0]	n/a	catFR1	2	R1328E
355.828	1.6	355974	RETRIEVAL_ORIENT_START	n/a	n/a	n/a	n/a	-999	2	[0, 0, 0]	n/a	catFR1	2	R1328E
357.516	0.001	357662	RETRIEVAL_ORIENT_END	n/a	n/a	n/a	n/a	-999	2	[0, 0, 0]	n/a	catFR1	2	R1328E
357.517	8.495	357663	REC_START	n/a	n/a	n/a	n/a	-999	2	[0, 0, 0]	n/a	catFR1	2	R1328E
366.012	0.625	366158	REC_WORD	8.495	n/a	FOOT	BodyParts	1	2	[0, 0, 0]	n/a	catFR1	2	R1328E
366.637	20.892	366783	REC_WORD	9.12	n/a	NOSE	BodyParts	2	2	[0, 0, 0]	n/a	catFR1	2	R1328E
387.529	0.0	387674	REC_END	n/a	n/a	n/a	n/a	-999	2	[0, 0, 0]	n/a	catFR1	2	R1328E
387.529	0.026	387674	TRIAL_END	n/a	n/a	n/a	n/a	-999	2	[0, 0, 0]	n/a	catFR1	2	R1328E
387.555	0.001	387700	TRIAL_START	n/a	n/a	n/a	n/a	-999	3	[0, 0, 0]	n/a	catFR1	2	R1328E
387.556	0.0	387701	TRIAL	n/a	n/a	n/a	n/a	-999	3	[0, 0, 0]	n/a	catFR1	2	R1328E
387.556	2.683	387701	WAITING_START	n/a	n/a	n/a	n/a	-999	3	[0, 0, 0]	n/a	catFR1	2	R1328E
390.239	0.0	390384	WAITING_END	n/a	n/a	n/a	n/a	-999	3	[0, 0, 0]	n/a	catFR1	2	R1328E
390.239	10.0	390384	COUNTDOWN_START	n/a	n/a	n/a	n/a	-999	3	[0, 0, 0]	n/a	catFR1	2	R1328E
400.667	0.0	400811	ORIENT_START	n/a	n/a	n/a	n/a	-999	3	[0, 0, 0]	n/a	catFR1	2	R1328E
400.667	1.124	400811	COUNTDOWN_END	n/a	n/a	n/a	n/a	-999	3	[0, 0, 0]	n/a	catFR1	2	R1328E
401.791	0.0	401935	ORIENT_END	n/a	n/a	n/a	n/a	-999	3	[0, 0, 0]	n/a	catFR1	2	R1328E
401.791	0.806	401935	ENCODING_START	n/a	n/a	n/a	n/a	-999	3	[0, 0, 0]	n/a	catFR1	2	R1328E
402.597	1.6	402741	WORD	n/a	wordpools/wordpool_categorized_EN.txt	FUDGE	Desserts	1	3	[0, 0, 0]	n/a	catFR1	2	R1328E
404.225	0.867	404369	WORD_OFF	n/a	n/a	FUDGE	Desserts	1	3	[0, 0, 0]	n/a	catFR1	2	R1328E
405.092	1.6	405236	WORD	n/a	wordpools/wordpool_categorized_EN.txt	CUPCAKE	Desserts	2	3	[0, 0, 0]	n/a	catFR1	2	R1328E
406.725	1.102	406869	WORD_OFF	n/a	n/a	CUPCAKE	Desserts	2	3	[0, 0, 0]	n/a	catFR1	2	R1328E
407.827	1.6	407971	WORD	n/a	wordpools/wordpool_categorized_EN.txt	PRINTER	Electronics	3	3	[0, 0, 0]	n/a	catFR1	2	R1328E
409.459	0.785	409603	WORD_OFF	n/a	n/a	PRINTER	Electronics	3	3	[0, 0, 0]	n/a	catFR1	2	R1328E
410.244	1.6	410388	WORD	n/a	wordpools/wordpool_categorized_EN.txt	SPEAKER	Electronics	4	3	[0, 0, 0]	n/a	catFR1	2	R1328E
411.876	1.006	412020	WORD_OFF	n/a	n/a	SPEAKER	Electronics	4	3	[0, 0, 0]	n/a	catFR1	2	R1328E
412.882	1.6	413026	WORD	n/a	wordpools/wordpool_categorized_EN.txt	PAPER	OfficeSupplies	5	3	[0, 0, 0]	n/a	catFR1	2	R1328E
414.51	0.998	414654	WORD_OFF	n/a	n/a	PAPER	OfficeSupplies	5	3	[0, 0, 0]	n/a	catFR1	2	R1328E
415.508	1.6	415652	WORD	n/a	wordpools/wordpool_categorized_EN.txt	RULER	OfficeSupplies	6	3	[0, 0, 0]	n/a	catFR1	2	R1328E
417.143	0.952	417287	WORD_OFF	n/a	n/a	RULER	OfficeSupplies	6	3	[0, 0, 0]	n/a	catFR1	2	R1328E
418.095	1.6	418239	WORD	n/a	wordpools/wordpool_categorized_EN.txt	CHEESECAKE	Desserts	7	3	[0, 0, 0]	n/a	catFR1	2	R1328E
419.727	0.857	419871	WORD_OFF	n/a	n/a	CHEESECAKE	Desserts	7	3	[0, 0, 0]	n/a	catFR1	2	R1328E
420.584	1.6	420728	WORD	n/a	wordpools/wordpool_categorized_EN.txt	BROWNIES	Desserts	8	3	[0, 0, 0]	n/a	catFR1	2	R1328E
422.211	0.772	422355	WORD_OFF	n/a	n/a	BROWNIES	Desserts	8	3	[0, 0, 0]	n/a	catFR1	2	R1328E
422.983	1.6	423127	WORD	n/a	wordpools/wordpool_categorized_EN.txt	MARKER	OfficeSupplies	9	3	[0, 0, 0]	n/a	catFR1	2	R1328E
424.611	0.909	424755	WORD_OFF	n/a	n/a	MARKER	OfficeSupplies	9	3	[0, 0, 0]	n/a	catFR1	2	R1328E
425.52	1.6	425664	WORD	n/a	wordpools/wordpool_categorized_EN.txt	PEN	OfficeSupplies	10	3	[0, 0, 0]	n/a	catFR1	2	R1328E
427.145	1.121	427288	WORD_OFF	n/a	n/a	PEN	OfficeSupplies	10	3	[0, 0, 0]	n/a	catFR1	2	R1328E
428.266	1.6	428409	WORD	n/a	wordpools/wordpool_categorized_EN.txt	CALCULATOR	Electronics	11	3	[0, 0, 0]	n/a	catFR1	2	R1328E
429.896	0.86	430039	WORD_OFF	n/a	n/a	CALCULATOR	Electronics	11	3	[0, 0, 0]	n/a	catFR1	2	R1328E
430.756	1.6	430899	WORD	n/a	wordpools/wordpool_categorized_EN.txt	STEREO	Electronics	12	3	[0, 0, 0]	n/a	catFR1	2	R1328E
432.38	0.001	432523	WORD_OFF	n/a	n/a	STEREO	Electronics	12	3	[0, 0, 0]	n/a	catFR1	2	R1328E
432.381	0.0	432524	DISTRACT_START	n/a	n/a	n/a	n/a	-999	3	[0, 0, 0]	n/a	catFR1	2	R1328E
432.381	0.0	432524	ENCODING_END	n/a	n/a	n/a	n/a	-999	3	[0, 0, 0]	n/a	catFR1	2	R1328E
432.381	0.016	432524	START	n/a	n/a	n/a	n/a	-999	3	[-999, -999, -999]	n/a	catFR1	2	R1328E
432.397	30.019	432540	PROB	30.019	n/a	n/a	n/a	-999	3	[8, 7, 8]	23.0	catFR1	2	R1328E
462.416	0.019	462558	STOP	n/a	n/a	n/a	n/a	-999	3	[-999, -999, -999]	n/a	catFR1	2	R1328E
462.435	0.591	462577	DISTRACT_END	n/a	n/a	n/a	n/a	-999	3	[0, 0, 0]	n/a	catFR1	2	R1328E
463.026	1.6	463168	RETRIEVAL_ORIENT_START	n/a	n/a	n/a	n/a	-999	3	[0, 0, 0]	n/a	catFR1	2	R1328E
464.735	0.0	464877	RETRIEVAL_ORIENT_END	n/a	n/a	n/a	n/a	-999	3	[0, 0, 0]	n/a	catFR1	2	R1328E
464.735	0.61	464877	REC_START	n/a	n/a	n/a	n/a	-999	3	[0, 0, 0]	n/a	catFR1	2	R1328E
465.345	1.0	465487	REC_WORD	0.61	n/a	SPEAKER	Electronics	4	3	[0, 0, 0]	n/a	catFR1	2	R1328E
466.345	3.394	466487	REC_WORD_VV	1.61	n/a	<>	n/a	-999	3	[0, 0, 0]	n/a	catFR1	2	R1328E
469.739	4.872	469881	REC_WORD	5.004	n/a	STEREO	Electronics	12	3	[0, 0, 0]	n/a	catFR1	2	R1328E
474.611	6.71	474753	REC_WORD	9.876	n/a	PRINTER	Electronics	3	3	[0, 0, 0]	n/a	catFR1	2	R1328E
481.321	13.425	481463	REC_WORD_VV	16.586	n/a	<>	n/a	-999	3	[0, 0, 0]	n/a	catFR1	2	R1328E
494.746	0.0	494887	REC_END	n/a	n/a	n/a	n/a	-999	3	[0, 0, 0]	n/a	catFR1	2	R1328E
494.746	0.026	494887	TRIAL_END	n/a	n/a	n/a	n/a	-999	3	[0, 0, 0]	n/a	catFR1	2	R1328E
494.772	0.0	494913	TRIAL_START	n/a	n/a	n/a	n/a	-999	4	[0, 0, 0]	n/a	catFR1	2	R1328E
494.772	0.0	494913	TRIAL	n/a	n/a	n/a	n/a	-999	4	[0, 0, 0]	n/a	catFR1	2	R1328E
494.772	3.986	494913	WAITING_START	n/a	n/a	n/a	n/a	-999	4	[0, 0, 0]	n/a	catFR1	2	R1328E
498.758	0.0	498899	WAITING_END	n/a	n/a	n/a	n/a	-999	4	[0, 0, 0]	n/a	catFR1	2	R1328E
498.758	10.0	498899	COUNTDOWN_START	n/a	n/a	n/a	n/a	-999	4	[0, 0, 0]	n/a	catFR1	2	R1328E
509.186	0.0	509327	ORIENT_START	n/a	n/a	n/a	n/a	-999	4	[0, 0, 0]	n/a	catFR1	2	R1328E
509.186	1.141	509327	COUNTDOWN_END	n/a	n/a	n/a	n/a	-999	4	[0, 0, 0]	n/a	catFR1	2	R1328E
510.327	0.001	510467	ORIENT_END	n/a	n/a	n/a	n/a	-999	4	[0, 0, 0]	n/a	catFR1	2	R1328E
510.328	0.807	510468	ENCODING_START	n/a	n/a	n/a	n/a	-999	4	[0, 0, 0]	n/a	catFR1	2	R1328E
511.135	1.6	511275	WORD	n/a	wordpools/wordpool_categorized_EN.txt	VACUUM	Appliances	1	4	[0, 0, 0]	n/a	catFR1	2	R1328E
512.76	0.943	512900	WORD_OFF	n/a	n/a	VACUUM	Appliances	1	4	[0, 0, 0]	n/a	catFR1	2	R1328E
513.703	1.6	513843	WORD	n/a	wordpools/wordpool_categorized_EN.txt	FREEZER	Appliances	2	4	[0, 0, 0]	n/a	catFR1	2	R1328E
515.312	1.123	515452	WORD_OFF	n/a	n/a	FREEZER	Appliances	2	4	[0, 0, 0]	n/a	catFR1	2	R1328E
516.435	1.6	516575	WORD	n/a	wordpools/wordpool_categorized_EN.txt	COMPUTER	Electronics	3	4	[0, 0, 0]	n/a	catFR1	2	R1328E
518.061	1.002	518201	WORD_OFF	n/a	n/a	COMPUTER	Electronics	3	4	[0, 0, 0]	n/a	catFR1	2	R1328E
519.063	1.6	519203	WORD	n/a	wordpools/wordpool_categorized_EN.txt	RADIO	Electronics	4	4	[0, 0, 0]	n/a	catFR1	2	R1328E
520.695	0.859	520835	WORD_OFF	n/a	n/a	RADIO	Electronics	4	4	[0, 0, 0]	n/a	catFR1	2	R1328E
521.554	1.6	521694	WORD	n/a	wordpools/wordpool_categorized_EN.txt	ELM	Trees	5	4	[0, 0, 0]	n/a	catFR1	2	R1328E
523.179	0.928	523319	WORD_OFF	n/a	n/a	ELM	Trees	5	4	[0, 0, 0]	n/a	catFR1	2	R1328E
524.107	1.6	524247	WORD	n/a	wordpools/wordpool_categorized_EN.txt	SPRUCE	Trees	6	4	[0, 0, 0]	n/a	catFR1	2	R1328E
525.729	0.819	525869	WORD_OFF	n/a	n/a	SPRUCE	Trees	6	4	[0, 0, 0]	n/a	catFR1	2	R1328E
526.548	1.6	526688	WORD	n/a	wordpools/wordpool_categorized_EN.txt	DISHWASHER	Appliances	7	4	[0, 0, 0]	n/a	catFR1	2	R1328E
528.18	0.974	528320	WORD_OFF	n/a	n/a	DISHWASHER	Appliances	7	4	[0, 0, 0]	n/a	catFR1	2	R1328E
529.154	1.6	529294	WORD	n/a	wordpools/wordpool_categorized_EN.txt	BLENDER	Appliances	8	4	[0, 0, 0]	n/a	catFR1	2	R1328E
530.78	0.777	530920	WORD_OFF	n/a	n/a	BLENDER	Appliances	8	4	[0, 0, 0]	n/a	catFR1	2	R1328E
531.557	1.6	531697	WORD	n/a	wordpools/wordpool_categorized_EN.txt	OAK	Trees	9	4	[0, 0, 0]	n/a	catFR1	2	R1328E
533.18	1.09	533320	WORD_OFF	n/a	n/a	OAK	Trees	9	4	[0, 0, 0]	n/a	catFR1	2	R1328E
534.27	1.6	534410	WORD	n/a	wordpools/wordpool_categorized_EN.txt	WILLOW	Trees	10	4	[0, 0, 0]	n/a	catFR1	2	R1328E
535.898	1.1	536038	WORD_OFF	n/a	n/a	WILLOW	Trees	10	4	[0, 0, 0]	n/a	catFR1	2	R1328E
536.998	1.6	537138	WORD	n/a	wordpools/wordpool_categorized_EN.txt	MICROWAVE	Electronics	11	4	[0, 0, 0]	n/a	catFR1	2	R1328E
538.631	1.089	538770	WORD_OFF	n/a	n/a	MICROWAVE	Electronics	11	4	[0, 0, 0]	n/a	catFR1	2	R1328E
539.72	1.6	539859	WORD	n/a	wordpools/wordpool_categorized_EN.txt	TELEVISION	Electronics	12	4	[0, 0, 0]	n/a	catFR1	2	R1328E
541.333	0.0	541472	WORD_OFF	n/a	n/a	TELEVISION	Electronics	12	4	[0, 0, 0]	n/a	catFR1	2	R1328E
541.333	0.001	541472	ENCODING_END	n/a	n/a	n/a	n/a	-999	4	[0, 0, 0]	n/a	catFR1	2	R1328E
541.334	0.0	541473	DISTRACT_START	n/a	n/a	n/a	n/a	-999	4	[0, 0, 0]	n/a	catFR1	2	R1328E
541.334	0.015	541473	START	n/a	n/a	n/a	n/a	-999	4	[-999, -999, -999]	n/a	catFR1	2	R1328E
541.349	34.415	541488	PROB	34.415	n/a	n/a	n/a	-999	4	[3, 7, 6]	16.0	catFR1	2	R1328E
575.764	0.007	575902	STOP	n/a	n/a	n/a	n/a	-999	4	[-999, -999, -999]	n/a	catFR1	2	R1328E
575.771	0.524	575909	DISTRACT_END	n/a	n/a	n/a	n/a	-999	4	[0, 0, 0]	n/a	catFR1	2	R1328E
576.295	1.6	576433	RETRIEVAL_ORIENT_START	n/a	n/a	n/a	n/a	-999	4	[0, 0, 0]	n/a	catFR1	2	R1328E
577.922	0.0	578060	RETRIEVAL_ORIENT_END	n/a	n/a	n/a	n/a	-999	4	[0, 0, 0]	n/a	catFR1	2	R1328E
577.922	0.656	578060	REC_START	n/a	n/a	n/a	n/a	-999	4	[0, 0, 0]	n/a	catFR1	2	R1328E
578.578	2.51	578716	REC_WORD	0.656	n/a	DISHWASHER	Appliances	7	4	[0, 0, 0]	n/a	catFR1	2	R1328E
581.088	1.0	581226	REC_WORD	3.166	n/a	MICROWAVE	Electronics	11	4	[0, 0, 0]	n/a	catFR1	2	R1328E
582.088	0.197	582226	REC_WORD_VV	4.166	n/a	<>	n/a	-999	4	[0, 0, 0]	n/a	catFR1	2	R1328E
582.285	25.647	582423	REC_WORD	4.363	n/a	STOVE	n/a	-999	4	[0, 0, 0]	n/a	catFR1	2	R1328E
607.932	0.001	608069	REC_END	n/a	n/a	n/a	n/a	-999	4	[0, 0, 0]	n/a	catFR1	2	R1328E
607.933	0.025	608070	TRIAL_END	n/a	n/a	n/a	n/a	-999	4	[0, 0, 0]	n/a	catFR1	2	R1328E
607.958	0.001	608095	TRIAL_START	n/a	n/a	n/a	n/a	-999	5	[0, 0, 0]	n/a	catFR1	2	R1328E
607.959	0.0	608096	TRIAL	n/a	n/a	n/a	n/a	-999	5	[0, 0, 0]	n/a	catFR1	2	R1328E
607.959	7.519	608096	WAITING_START	n/a	n/a	n/a	n/a	-999	5	[0, 0, 0]	n/a	catFR1	2	R1328E
615.478	0.001	615615	WAITING_END	n/a	n/a	n/a	n/a	-999	5	[0, 0, 0]	n/a	catFR1	2	R1328E
615.479	10.0	615616	COUNTDOWN_START	n/a	n/a	n/a	n/a	-999	5	[0, 0, 0]	n/a	catFR1	2	R1328E
625.907	0.001	626043	COUNTDOWN_END	n/a	n/a	n/a	n/a	-999	5	[0, 0, 0]	n/a	catFR1	2	R1328E
625.908	1.106	626044	ORIENT_START	n/a	n/a	n/a	n/a	-999	5	[0, 0, 0]	n/a	catFR1	2	R1328E
627.014	0.0	627150	ENCODING_START	n/a	n/a	n/a	n/a	-999	5	[0, 0, 0]	n/a	catFR1	2	R1328E
627.014	0.779	627150	ORIENT_END	n/a	n/a	n/a	n/a	-999	5	[0, 0, 0]	n/a	catFR1	2	R1328E
627.793	1.6	627929	WORD	n/a	wordpools/wordpool_categorized_EN.txt	GOOSE	Birds	1	5	[0, 0, 0]	n/a	catFR1	2	R1328E
629.414	1.097	629550	WORD_OFF	n/a	n/a	GOOSE	Birds	1	5	[0, 0, 0]	n/a	catFR1	2	R1328E
630.511	1.6	630647	WORD	n/a	wordpools/wordpool_categorized_EN.txt	PIGEON	Birds	2	5	[0, 0, 0]	n/a	catFR1	2	R1328E
632.148	1.089	632284	WORD_OFF	n/a	n/a	PIGEON	Birds	2	5	[0, 0, 0]	n/a	catFR1	2	R1328E
633.237	1.6	633373	WORD	n/a	wordpools/wordpool_categorized_EN.txt	ROOF	Building	3	5	[0, 0, 0]	n/a	catFR1	2	R1328E
634.865	0.81	635001	WORD_OFF	n/a	n/a	ROOF	Building	3	5	[0, 0, 0]	n/a	catFR1	2	R1328E
635.675	1.6	635811	WORD	n/a	wordpools/wordpool_categorized_EN.txt	STAIRS	Building	4	5	[0, 0, 0]	n/a	catFR1	2	R1328E
637.3	0.942	637436	WORD_OFF	n/a	n/a	STAIRS	Building	4	5	[0, 0, 0]	n/a	catFR1	2	R1328E
638.242	1.6	638378	WORD	n/a	wordpools/wordpool_categorized_EN.txt	SCANNER	Electronics	5	5	[0, 0, 0]	n/a	catFR1	2	R1328E
639.866	1.121	640002	WORD_OFF	n/a	n/a	SCANNER	Electronics	5	5	[0, 0, 0]	n/a	catFR1	2	R1328E
640.987	1.6	641123	WORD	n/a	wordpools/wordpool_categorized_EN.txt	HEADPHONES	Electronics	6	5	[0, 0, 0]	n/a	catFR1	2	R1328E
642.616	0.984	642752	WORD_OFF	n/a	n/a	HEADPHONES	Electronics	6	5	[0, 0, 0]	n/a	catFR1	2	R1328E
643.6	1.6	643736	WORD	n/a	wordpools/wordpool_categorized_EN.txt	ROBIN	Birds	7	5	[0, 0, 0]	n/a	catFR1	2	R1328E
645.233	0.92	645369	WORD_OFF	n/a	n/a	ROBIN	Birds	7	5	[0, 0, 0]	n/a	catFR1	2	R1328E
646.153	1.6	646289	WORD	n/a	wordpools/wordpool_categorized_EN.txt	HAWK	Birds	8	5	[0, 0, 0]	n/a	catFR1	2	R1328E
647.784	0.882	647920	WORD_OFF	n/a	n/a	HAWK	Birds	8	5	[0, 0, 0]	n/a	catFR1	2	R1328E
648.666	1.6	648801	WORD	n/a	wordpools/wordpool_categorized_EN.txt	BATHROOM	Building	9	5	[0, 0, 0]	n/a	catFR1	2	R1328E
650.302	1.11	650437	WORD_OFF	n/a	n/a	BATHROOM	Building	9	5	[0, 0, 0]	n/a	catFR1	2	R1328E
651.412	1.6	651547	WORD	n/a	wordpools/wordpool_categorized_EN.txt	ATTIC	Building	10	5	[0, 0, 0]	n/a	catFR1	2	R1328E
653.035	1.127	653170	WORD_OFF	n/a	n/a	ATTIC	Building	10	5	[0, 0, 0]	n/a	catFR1	2	R1328E
654.162	1.6	654297	WORD	n/a	wordpools/wordpool_categorized_EN.txt	TABLET	Electronics	11	5	[0, 0, 0]	n/a	catFR1	2	R1328E
655.785	0.981	655920	WORD_OFF	n/a	n/a	TABLET	Electronics	11	5	[0, 0, 0]	n/a	catFR1	2	R1328E
656.766	1.6	656901	WORD	n/a	wordpools/wordpool_categorized_EN.txt	PHONE	Electronics	12	5	[0, 0, 0]	n/a	catFR1	2	R1328E
658.403	0.001	658538	WORD_OFF	n/a	n/a	PHONE	Electronics	12	5	[0, 0, 0]	n/a	catFR1	2	R1328E
658.404	0.0	658539	ENCODING_END	n/a	n/a	n/a	n/a	-999	5	[0, 0, 0]	n/a	catFR1	2	R1328E
658.404	0.0	658539	DISTRACT_START	n/a	n/a	n/a	n/a	-999	5	[0, 0, 0]	n/a	catFR1	2	R1328E
658.404	0.015	658539	START	n/a	n/a	n/a	n/a	-999	5	[-999, -999, -999]	n/a	catFR1	2	R1328E
658.419	31.826	658554	PROB	31.826	n/a	n/a	n/a	-999	5	[6, 6, 8]	20.0	catFR1	2	R1328E
690.245	0.013	690379	STOP	n/a	n/a	n/a	n/a	-999	5	[-999, -999, -999]	n/a	catFR1	2	R1328E
690.258	0.592	690392	DISTRACT_END	n/a	n/a	n/a	n/a	-999	5	[0, 0, 0]	n/a	catFR1	2	R1328E
690.85	1.6	690984	RETRIEVAL_ORIENT_START	n/a	n/a	n/a	n/a	-999	5	[0, 0, 0]	n/a	catFR1	2	R1328E
692.492	0.0	692626	RETRIEVAL_ORIENT_END	n/a	n/a	n/a	n/a	-999	5	[0, 0, 0]	n/a	catFR1	2	R1328E
692.492	1.552	692626	REC_START	n/a	n/a	n/a	n/a	-999	5	[0, 0, 0]	n/a	catFR1	2	R1328E
694.044	1.069	694178	REC_WORD	1.552	n/a	PIGEON	Birds	2	5	[0, 0, 0]	n/a	catFR1	2	R1328E
695.113	2.553	695247	REC_WORD	2.621	n/a	ROBIN	Birds	7	5	[0, 0, 0]	n/a	catFR1	2	R1328E
697.666	7.183	697800	REC_WORD	5.174	n/a	HAWK	Birds	8	5	[0, 0, 0]	n/a	catFR1	2	R1328E
704.849	17.654	704982	REC_WORD	12.357	n/a	ROOF	Building	3	5	[0, 0, 0]	n/a	catFR1	2	R1328E
722.503	0.001	722636	REC_END	n/a	n/a	n/a	n/a	-999	5	[0, 0, 0]	n/a	catFR1	2	R1328E
722.504	0.026	722637	TRIAL_END	n/a	n/a	n/a	n/a	-999	5	[0, 0, 0]	n/a	catFR1	2	R1328E
722.53	0.0	722663	WAITING_START	n/a	n/a	n/a	n/a	-999	6	[0, 0, 0]	n/a	catFR1	2	R1328E
722.53	0.0	722663	TRIAL	n/a	n/a	n/a	n/a	-999	6	[0, 0, 0]	n/a	catFR1	2	R1328E
722.53	5.051	722663	TRIAL_START	n/a	n/a	n/a	n/a	-999	6	[0, 0, 0]	n/a	catFR1	2	R1328E
727.581	0.001	727714	WAITING_END	n/a	n/a	n/a	n/a	-999	6	[0, 0, 0]	n/a	catFR1	2	R1328E
727.582	10.0	727715	COUNTDOWN_START	n/a	n/a	n/a	n/a	-999	6	[0, 0, 0]	n/a	catFR1	2	R1328E
738.011	0.0	738143	COUNTDOWN_END	n/a	n/a	n/a	n/a	-999	6	[0, 0, 0]	n/a	catFR1	2	R1328E
738.011	1.122	738143	ORIENT_START	n/a	n/a	n/a	n/a	-999	6	[0, 0, 0]	n/a	catFR1	2	R1328E
739.133	0.001	739265	ORIENT_END	n/a	n/a	n/a	n/a	-999	6	[0, 0, 0]	n/a	catFR1	2	R1328E
739.134	1.08	739266	ENCODING_START	n/a	n/a	n/a	n/a	-999	6	[0, 0, 0]	n/a	catFR1	2	R1328E
740.214	1.6	740346	WORD	n/a	wordpools/wordpool_categorized_EN.txt	DAISY	Flowers	1	6	[0, 0, 0]	n/a	catFR1	2	R1328E
741.85	0.904	741982	WORD_OFF	n/a	n/a	DAISY	Flowers	1	6	[0, 0, 0]	n/a	catFR1	2	R1328E
742.754	1.6	742886	WORD	n/a	wordpools/wordpool_categorized_EN.txt	ORCHID	Flowers	2	6	[0, 0, 0]	n/a	catFR1	2	R1328E
744.385	0.825	744517	WORD_OFF	n/a	n/a	ORCHID	Flowers	2	6	[0, 0, 0]	n/a	catFR1	2	R1328E
745.21	1.6	745342	WORD	n/a	wordpools/wordpool_categorized_EN.txt	FORK	KitchenTools	3	6	[0, 0, 0]	n/a	catFR1	2	R1328E
746.835	1.123	746967	WORD_OFF	n/a	n/a	FORK	KitchenTools	3	6	[0, 0, 0]	n/a	catFR1	2	R1328E
747.958	1.6	748090	WORD	n/a	wordpools/wordpool_categorized_EN.txt	KNIFE	KitchenTools	4	6	[0, 0, 0]	n/a	catFR1	2	R1328E
749.585	0.876	749717	WORD_OFF	n/a	n/a	KNIFE	KitchenTools	4	6	[0, 0, 0]	n/a	catFR1	2	R1328E
750.461	1.6	750593	WORD	n/a	wordpools/wordpool_categorized_EN.txt	DRILL	Tools	5	6	[0, 0, 0]	n/a	catFR1	2	R1328E
752.085	1.02	752217	WORD_OFF	n/a	n/a	DRILL	Tools	5	6	[0, 0, 0]	n/a	catFR1	2	R1328E
753.105	1.6	753237	WORD	n/a	wordpools/wordpool_categorized_EN.txt	SAW	Tools	6	6	[0, 0, 0]	n/a	catFR1	2	R1328E
754.736	1.027	754868	WORD_OFF	n/a	n/a	SAW	Tools	6	6	[0, 0, 0]	n/a	catFR1	2	R1328E
755.763	1.6	755895	WORD	n/a	wordpools/wordpool_categorized_EN.txt	SPATULA	KitchenTools	7	6	[0, 0, 0]	n/a	catFR1	2	R1328E
757.371	0.92	757503	WORD_OFF	n/a	n/a	SPATULA	KitchenTools	7	6	[0, 0, 0]	n/a	catFR1	2	R1328E
758.291	1.6	758423	WORD	n/a	wordpools/wordpool_categorized_EN.txt	PEELER	KitchenTools	8	6	[0, 0, 0]	n/a	catFR1	2	R1328E
759.92	1.04	760051	WORD_OFF	n/a	n/a	PEELER	KitchenTools	8	6	[0, 0, 0]	n/a	catFR1	2	R1328E
760.96	1.6	761091	WORD	n/a	wordpools/wordpool_categorized_EN.txt	CARNATION	Flowers	9	6	[0, 0, 0]	n/a	catFR1	2	R1328E
762.587	0.951	762718	WORD_OFF	n/a	n/a	CARNATION	Flowers	9	6	[0, 0, 0]	n/a	catFR1	2	R1328E
763.538	1.6	763669	WORD	n/a	wordpools/wordpool_categorized_EN.txt	LILAC	Flowers	10	6	[0, 0, 0]	n/a	catFR1	2	R1328E
765.171	1.068	765302	WORD_OFF	n/a	n/a	LILAC	Flowers	10	6	[0, 0, 0]	n/a	catFR1	2	R1328E
766.239	1.6	766370	WORD	n/a	wordpools/wordpool_categorized_EN.txt	SANDER	Tools	11	6	[0, 0, 0]	n/a	catFR1	2	R1328E
767.872	0.977	768003	WORD_OFF	n/a	n/a	SANDER	Tools	11	6	[0, 0, 0]	n/a	catFR1	2	R1328E
768.849	1.6	768980	WORD	n/a	wordpools/wordpool_categorized_EN.txt	AXE	Tools	12	6	[0, 0, 0]	n/a	catFR1	2	R1328E
770.472	0.0	770603	WORD_OFF	n/a	n/a	AXE	Tools	12	6	[0, 0, 0]	n/a	catFR1	2	R1328E
770.472	0.001	770603	ENCODING_END	n/a	n/a	n/a	n/a	-999	6	[0, 0, 0]	n/a	catFR1	2	R1328E
770.473	0.0	770604	DISTRACT_START	n/a	n/a	n/a	n/a	-999	6	[0, 0, 0]	n/a	catFR1	2	R1328E
770.473	0.015	770604	START	n/a	n/a	n/a	n/a	-999	6	[-999, -999, -999]	n/a	catFR1	2	R1328E
770.488	7.168	770619	PROB	7.136	n/a	n/a	n/a	-999	6	[5, 2, 7]	14.0	catFR1	2	R1328E
777.656	38.874	777787	PROB	38.874	n/a	n/a	n/a	-999	6	[1, 5, 9]	15.0	catFR1	2	R1328E
816.53	0.017	816659	STOP	n/a	n/a	n/a	n/a	-999	6	[-999, -999, -999]	n/a	catFR1	2	R1328E
816.547	0.661	816676	DISTRACT_END	n/a	n/a	n/a	n/a	-999	6	[0, 0, 0]	n/a	catFR1	2	R1328E
817.208	1.6	817337	RETRIEVAL_ORIENT_START	n/a	n/a	n/a	n/a	-999	6	[0, 0, 0]	n/a	catFR1	2	R1328E
818.78	0.001	818909	RETRIEVAL_ORIENT_END	n/a	n/a	n/a	n/a	-999	6	[0, 0, 0]	n/a	catFR1	2	R1328E
818.781	0.147	818910	REC_START	n/a	n/a	n/a	n/a	-999	6	[0, 0, 0]	n/a	catFR1	2	R1328E
818.928	0.862	819057	REC_WORD	0.147	n/a	DRILL	Tools	5	6	[0, 0, 0]	n/a	catFR1	2	R1328E
819.79	1.01	819919	REC_WORD	1.009	n/a	SAW	Tools	6	6	[0, 0, 0]	n/a	catFR1	2	R1328E
820.8	2.537	820929	REC_WORD	2.019	n/a	AXE	Tools	12	6	[0, 0, 0]	n/a	catFR1	2	R1328E
823.337	1.575	823466	REC_WORD	4.556	n/a	PEELER	KitchenTools	8	6	[0, 0, 0]	n/a	catFR1	2	R1328E
824.912	23.88	825041	REC_WORD	6.131	n/a	SPATULA	KitchenTools	7	6	[0, 0, 0]	n/a	catFR1	2	R1328E
848.792	0.0	848920	REC_END	n/a	n/a	n/a	n/a	-999	6	[0, 0, 0]	n/a	catFR1	2	R1328E
848.792	0.025	848920	TRIAL_END	n/a	n/a	n/a	n/a	-999	6	[0, 0, 0]	n/a	catFR1	2	R1328E
848.817	0.001	848945	TRIAL_START	n/a	n/a	n/a	n/a	-999	7	[0, 0, 0]	n/a	catFR1	2	R1328E
848.818	0.0	848946	WAITING_START	n/a	n/a	n/a	n/a	-999	7	[0, 0, 0]	n/a	catFR1	2	R1328E
848.818	2.018	848946	TRIAL	n/a	n/a	n/a	n/a	-999	7	[0, 0, 0]	n/a	catFR1	2	R1328E
850.836	0.001	850964	WAITING_END	n/a	n/a	n/a	n/a	-999	7	[0, 0, 0]	n/a	catFR1	2	R1328E
850.837	10.0	850965	COUNTDOWN_START	n/a	n/a	n/a	n/a	-999	7	[0, 0, 0]	n/a	catFR1	2	R1328E
861.265	0.001	861393	COUNTDOWN_END	n/a	n/a	n/a	n/a	-999	7	[0, 0, 0]	n/a	catFR1	2	R1328E
861.266	1.272	861394	ORIENT_START	n/a	n/a	n/a	n/a	-999	7	[0, 0, 0]	n/a	catFR1	2	R1328E
862.538	0.0	862666	ORIENT_END	n/a	n/a	n/a	n/a	-999	7	[0, 0, 0]	n/a	catFR1	2	R1328E
862.538	1.115	862666	ENCODING_START	n/a	n/a	n/a	n/a	-999	7	[0, 0, 0]	n/a	catFR1	2	R1328E
863.653	1.6	863781	WORD	n/a	wordpools/wordpool_categorized_EN.txt	VIOLIN	Instruments	1	7	[0, 0, 0]	n/a	catFR1	2	R1328E
865.29	1.017	865418	WORD_OFF	n/a	n/a	VIOLIN	Instruments	1	7	[0, 0, 0]	n/a	catFR1	2	R1328E
866.307	1.6	866435	WORD	n/a	wordpools/wordpool_categorized_EN.txt	TROMBONE	Instruments	2	7	[0, 0, 0]	n/a	catFR1	2	R1328E
867.939	0.827	868067	WORD_OFF	n/a	n/a	TROMBONE	Instruments	2	7	[0, 0, 0]	n/a	catFR1	2	R1328E
868.766	1.6	868894	WORD	n/a	wordpools/wordpool_categorized_EN.txt	TONGS	KitchenTools	3	7	[0, 0, 0]	n/a	catFR1	2	R1328E
870.374	0.925	870502	WORD_OFF	n/a	n/a	TONGS	KitchenTools	3	7	[0, 0, 0]	n/a	catFR1	2	R1328E
871.299	1.6	871426	WORD	n/a	wordpools/wordpool_categorized_EN.txt	LADLE	KitchenTools	4	7	[0, 0, 0]	n/a	catFR1	2	R1328E
872.923	0.859	873050	WORD_OFF	n/a	n/a	LADLE	KitchenTools	4	7	[0, 0, 0]	n/a	catFR1	2	R1328E
873.782	1.6	873909	WORD	n/a	wordpools/wordpool_categorized_EN.txt	SCOOTER	Vehicles	5	7	[0, 0, 0]	n/a	catFR1	2	R1328E
875.408	0.833	875535	WORD_OFF	n/a	n/a	SCOOTER	Vehicles	5	7	[0, 0, 0]	n/a	catFR1	2	R1328E
876.241	1.6	876368	WORD	n/a	wordpools/wordpool_categorized_EN.txt	CAR	Vehicles	6	7	[0, 0, 0]	n/a	catFR1	2	R1328E
877.874	1.117	878001	WORD_OFF	n/a	n/a	CAR	Vehicles	6	7	[0, 0, 0]	n/a	catFR1	2	R1328E
878.991	1.6	879118	WORD	n/a	wordpools/wordpool_categorized_EN.txt	CORKSCREW	KitchenTools	7	7	[0, 0, 0]	n/a	catFR1	2	R1328E
880.625	0.829	880752	WORD_OFF	n/a	n/a	CORKSCREW	KitchenTools	7	7	[0, 0, 0]	n/a	catFR1	2	R1328E
881.454	1.6	881581	WORD	n/a	wordpools/wordpool_categorized_EN.txt	WHISK	KitchenTools	8	7	[0, 0, 0]	n/a	catFR1	2	R1328E
883.075	1.115	883202	WORD_OFF	n/a	n/a	WHISK	KitchenTools	8	7	[0, 0, 0]	n/a	catFR1	2	R1328E
884.19	1.6	884317	WORD	n/a	wordpools/wordpool_categorized_EN.txt	GUITAR	Instruments	9	7	[0, 0, 0]	n/a	catFR1	2	R1328E
885.826	1.005	885953	WORD_OFF	n/a	n/a	GUITAR	Instruments	9	7	[0, 0, 0]	n/a	catFR1	2	R1328E
886.831	1.6	886958	WORD	n/a	wordpools/wordpool_categorized_EN.txt	TRUMPET	Instruments	10	7	[0, 0, 0]	n/a	catFR1	2	R1328E
888.459	0.785	888586	WORD_OFF	n/a	n/a	TRUMPET	Instruments	10	7	[0, 0, 0]	n/a	catFR1	2	R1328E
889.244	1.6	889371	WORD	n/a	wordpools/wordpool_categorized_EN.txt	PLANE	Vehicles	11	7	[0, 0, 0]	n/a	catFR1	2	R1328E
890.876	1.032	891003	WORD_OFF	n/a	n/a	PLANE	Vehicles	11	7	[0, 0, 0]	n/a	catFR1	2	R1328E
891.908	1.6	892035	WORD	n/a	wordpools/wordpool_categorized_EN.txt	BOAT	Vehicles	12	7	[0, 0, 0]	n/a	catFR1	2	R1328E
893.544	0.0	893671	WORD_OFF	n/a	n/a	BOAT	Vehicles	12	7	[0, 0, 0]	n/a	catFR1	2	R1328E
893.544	0.0	893671	ENCODING_END	n/a	n/a	n/a	n/a	-999	7	[0, 0, 0]	n/a	catFR1	2	R1328E
893.544	0.0	893671	DISTRACT_START	n/a	n/a	n/a	n/a	-999	7	[0, 0, 0]	n/a	catFR1	2	R1328E
893.544	0.016	893671	START	n/a	n/a	n/a	n/a	-999	7	[-999, -999, -999]	n/a	catFR1	2	R1328E
893.56	15.619	893687	PROB	15.588	n/a	n/a	n/a	-999	7	[5, 8, 1]	14.0	catFR1	2	R1328E
909.179	9.409	909305	PROB	9.409	n/a	n/a	n/a	-999	7	[2, 2, 3]	7.0	catFR1	2	R1328E
918.588	0.01	918714	STOP	n/a	n/a	n/a	n/a	-999	7	[-999, -999, -999]	n/a	catFR1	2	R1328E
918.598	0.501	918724	DISTRACT_END	n/a	n/a	n/a	n/a	-999	7	[0, 0, 0]	n/a	catFR1	2	R1328E
919.099	1.6	919225	RETRIEVAL_ORIENT_START	n/a	n/a	n/a	n/a	-999	7	[0, 0, 0]	n/a	catFR1	2	R1328E
920.698	0.001	920824	RETRIEVAL_ORIENT_END	n/a	n/a	n/a	n/a	-999	7	[0, 0, 0]	n/a	catFR1	2	R1328E
920.699	0.419	920825	REC_START	n/a	n/a	n/a	n/a	-999	7	[0, 0, 0]	n/a	catFR1	2	R1328E
921.118	0.678	921244	REC_WORD	0.419	n/a	TRUMPET	Instruments	10	7	[0, 0, 0]	n/a	catFR1	2	R1328E
921.796	0.83	921922	REC_WORD	1.097	n/a	TROMBONE	Instruments	2	7	[0, 0, 0]	n/a	catFR1	2	R1328E
922.626	7.877	922752	REC_WORD	1.927	n/a	VIOLIN	Instruments	1	7	[0, 0, 0]	n/a	catFR1	2	R1328E
930.503	20.206	930628	REC_WORD	9.804	n/a	GUITAR	Instruments	9	7	[0, 0, 0]	n/a	catFR1	2	R1328E
950.709	0.0	950834	REC_END	n/a	n/a	n/a	n/a	-999	7	[0, 0, 0]	n/a	catFR1	2	R1328E
950.709	0.026	950834	TRIAL_END	n/a	n/a	n/a	n/a	-999	7	[0, 0, 0]	n/a	catFR1	2	R1328E
950.735	0.001	950860	TRIAL_START	n/a	n/a	n/a	n/a	-999	8	[0, 0, 0]	n/a	catFR1	2	R1328E
950.736	0.0	950861	TRIAL	n/a	n/a	n/a	n/a	-999	8	[0, 0, 0]	n/a	catFR1	2	R1328E
950.736	6.236	950861	WAITING_START	n/a	n/a	n/a	n/a	-999	8	[0, 0, 0]	n/a	catFR1	2	R1328E
956.972	10.0	957096	COUNTDOWN_START	n/a	n/a	n/a	n/a	-999	8	[0, 0, 0]	n/a	catFR1	2	R1328E
956.972	10.428	957096	WAITING_END	n/a	n/a	n/a	n/a	-999	8	[0, 0, 0]	n/a	catFR1	2	R1328E
967.4	0.0	967524	COUNTDOWN_END	n/a	n/a	n/a	n/a	-999	8	[0, 0, 0]	n/a	catFR1	2	R1328E
967.4	1.223	967524	ORIENT_START	n/a	n/a	n/a	n/a	-999	8	[0, 0, 0]	n/a	catFR1	2	R1328E
968.623	0.001	968747	ORIENT_END	n/a	n/a	n/a	n/a	-999	8	[0, 0, 0]	n/a	catFR1	2	R1328E
968.624	1.059	968748	ENCODING_START	n/a	n/a	n/a	n/a	-999	8	[0, 0, 0]	n/a	catFR1	2	R1328E
969.683	1.6	969807	WORD	n/a	wordpools/wordpool_categorized_EN.txt	GOAT	FarmAnimals	1	8	[0, 0, 0]	n/a	catFR1	2	R1328E
971.308	1.021	971432	WORD_OFF	n/a	n/a	GOAT	FarmAnimals	1	8	[0, 0, 0]	n/a	catFR1	2	R1328E
972.329	1.6	972453	WORD	n/a	wordpools/wordpool_categorized_EN.txt	COW	FarmAnimals	2	8	[0, 0, 0]	n/a	catFR1	2	R1328E
973.958	0.953	974082	WORD_OFF	n/a	n/a	COW	FarmAnimals	2	8	[0, 0, 0]	n/a	catFR1	2	R1328E
974.911	1.6	975035	WORD	n/a	wordpools/wordpool_categorized_EN.txt	CELLO	Instruments	3	8	[0, 0, 0]	n/a	catFR1	2	R1328E
976.541	0.986	976665	WORD_OFF	n/a	n/a	CELLO	Instruments	3	8	[0, 0, 0]	n/a	catFR1	2	R1328E
977.527	1.6	977651	WORD	n/a	wordpools/wordpool_categorized_EN.txt	ORGAN	Instruments	4	8	[0, 0, 0]	n/a	catFR1	2	R1328E
979.159	0.774	979283	WORD_OFF	n/a	n/a	ORGAN	Instruments	4	8	[0, 0, 0]	n/a	catFR1	2	R1328E
979.933	1.6	980057	WORD	n/a	wordpools/wordpool_categorized_EN.txt	SLINKY	Toys	5	8	[0, 0, 0]	n/a	catFR1	2	R1328E
981.559	1.111	981683	WORD_OFF	n/a	n/a	SLINKY	Toys	5	8	[0, 0, 0]	n/a	catFR1	2	R1328E
982.67	1.6	982793	WORD	n/a	wordpools/wordpool_categorized_EN.txt	DOLLHOUSE	Toys	6	8	[0, 0, 0]	n/a	catFR1	2	R1328E
984.294	0.884	984417	WORD_OFF	n/a	n/a	DOLLHOUSE	Toys	6	8	[0, 0, 0]	n/a	catFR1	2	R1328E
985.178	1.6	985301	WORD	n/a	wordpools/wordpool_categorized_EN.txt	PIG	FarmAnimals	7	8	[0, 0, 0]	n/a	catFR1	2	R1328E
986.81	0.921	986933	WORD_OFF	n/a	n/a	PIG	FarmAnimals	7	8	[0, 0, 0]	n/a	catFR1	2	R1328E
987.731	1.6	987854	WORD	n/a	wordpools/wordpool_categorized_EN.txt	BULL	FarmAnimals	8	8	[0, 0, 0]	n/a	catFR1	2	R1328E
989.361	1.089	989484	WORD_OFF	n/a	n/a	BULL	FarmAnimals	8	8	[0, 0, 0]	n/a	catFR1	2	R1328E
990.45	1.6	990573	WORD	n/a	wordpools/wordpool_categorized_EN.txt	BASS	Instruments	9	8	[0, 0, 0]	n/a	catFR1	2	R1328E
992.078	0.848	992201	WORD_OFF	n/a	n/a	BASS	Instruments	9	8	[0, 0, 0]	n/a	catFR1	2	R1328E
992.926	1.6	993049	WORD	n/a	wordpools/wordpool_categorized_EN.txt	FLUTE	Instruments	10	8	[0, 0, 0]	n/a	catFR1	2	R1328E
994.561	0.921	994684	WORD_OFF	n/a	n/a	FLUTE	Instruments	10	8	[0, 0, 0]	n/a	catFR1	2	R1328E
995.482	1.6	995605	WORD	n/a	wordpools/wordpool_categorized_EN.txt	FOOTBALL	Toys	11	8	[0, 0, 0]	n/a	catFR1	2	R1328E
997.112	1.013	997235	WORD_OFF	n/a	n/a	FOOTBALL	Toys	11	8	[0, 0, 0]	n/a	catFR1	2	R1328E
998.125	1.6	998248	WORD	n/a	wordpools/wordpool_categorized_EN.txt	BARBIE	Toys	12	8	[0, 0, 0]	n/a	catFR1	2	R1328E
999.762	0.001	999885	WORD_OFF	n/a	n/a	BARBIE	Toys	12	8	[0, 0, 0]	n/a	catFR1	2	R1328E
999.763	0.0	999886	ENCODING_END	n/a	n/a	n/a	n/a	-999	8	[0, 0, 0]	n/a	catFR1	2	R1328E
999.763	0.0	999886	DISTRACT_START	n/a	n/a	n/a	n/a	-999	8	[0, 0, 0]	n/a	catFR1	2	R1328E
999.763	0.016	999886	START	n/a	n/a	n/a	n/a	-999	8	[-999, -999, -999]	n/a	catFR1	2	R1328E
999.779	13.052	999902	PROB	13.017	n/a	n/a	n/a	-999	8	[3, 4, 7]	14.0	catFR1	2	R1328E
1012.831	7.356	1012953	PROB	7.356	n/a	n/a	n/a	-999	8	[5, 9, 4]	18.0	catFR1	2	R1328E
1020.187	0.012	1020309	STOP	n/a	n/a	n/a	n/a	-999	8	[-999, -999, -999]	n/a	catFR1	2	R1328E
1020.199	0.655	1020321	DISTRACT_END	n/a	n/a	n/a	n/a	-999	8	[0, 0, 0]	n/a	catFR1	2	R1328E
1020.854	1.6	1020976	RETRIEVAL_ORIENT_START	n/a	n/a	n/a	n/a	-999	8	[0, 0, 0]	n/a	catFR1	2	R1328E
1022.566	0.001	1022688	RETRIEVAL_ORIENT_END	n/a	n/a	n/a	n/a	-999	8	[0, 0, 0]	n/a	catFR1	2	R1328E
1022.567	0.575	1022689	REC_START	n/a	n/a	n/a	n/a	-999	8	[0, 0, 0]	n/a	catFR1	2	R1328E
1023.142	1.045	1023264	REC_WORD	0.575	n/a	COW	FarmAnimals	2	8	[0, 0, 0]	n/a	catFR1	2	R1328E
1024.187	0.874	1024309	REC_WORD	1.62	n/a	PIG	FarmAnimals	7	8	[0, 0, 0]	n/a	catFR1	2	R1328E
1025.061	1.036	1025183	REC_WORD	2.494	n/a	SHEEP	n/a	-999	8	[0, 0, 0]	n/a	catFR1	2	R1328E
1026.097	5.212	1026219	REC_WORD	3.53	n/a	CELLO	Instruments	3	8	[0, 0, 0]	n/a	catFR1	2	R1328E
1031.309	6.826	1031431	REC_WORD_VV	8.742	n/a	<>	n/a	-999	8	[0, 0, 0]	n/a	catFR1	2	R1328E
1038.135	6.917	1038256	REC_WORD	15.568	n/a	PIG	FarmAnimals	7	8	[0, 0, 0]	n/a	catFR1	2	R1328E
1045.052	7.525	1045173	REC_WORD	22.485	n/a	COW	FarmAnimals	2	8	[0, 0, 0]	n/a	catFR1	2	R1328E
1052.577	0.001	1052698	REC_END	n/a	n/a	n/a	n/a	-999	8	[0, 0, 0]	n/a	catFR1	2	R1328E
1052.578	0.025	1052699	TRIAL_END	n/a	n/a	n/a	n/a	-999	8	[0, 0, 0]	n/a	catFR1	2	R1328E
1052.603	0.0	1052724	TRIAL_START	n/a	n/a	n/a	n/a	-999	9	[0, 0, 0]	n/a	catFR1	2	R1328E
1052.603	0.001	1052724	TRIAL	n/a	n/a	n/a	n/a	-999	9	[0, 0, 0]	n/a	catFR1	2	R1328E
1052.604	11.704	1052725	WAITING_START	n/a	n/a	n/a	n/a	-999	9	[0, 0, 0]	n/a	catFR1	2	R1328E
1064.308	0.0	1064429	WAITING_END	n/a	n/a	n/a	n/a	-999	9	[0, 0, 0]	n/a	catFR1	2	R1328E
1064.308	10.0	1064429	COUNTDOWN_START	n/a	n/a	n/a	n/a	-999	9	[0, 0, 0]	n/a	catFR1	2	R1328E
1074.737	0.0	1074857	COUNTDOWN_END	n/a	n/a	n/a	n/a	-999	9	[0, 0, 0]	n/a	catFR1	2	R1328E
1074.737	1.039	1074857	ORIENT_START	n/a	n/a	n/a	n/a	-999	9	[0, 0, 0]	n/a	catFR1	2	R1328E
1075.776	0.0	1075896	ORIENT_END	n/a	n/a	n/a	n/a	-999	9	[0, 0, 0]	n/a	catFR1	2	R1328E
1075.776	1.12	1075896	ENCODING_START	n/a	n/a	n/a	n/a	-999	9	[0, 0, 0]	n/a	catFR1	2	R1328E
1076.896	1.6	1077016	WORD	n/a	wordpools/wordpool_categorized_EN.txt	HALLWAY	Building	1	9	[0, 0, 0]	n/a	catFR1	2	R1328E
1078.526	0.802	1078646	WORD_OFF	n/a	n/a	HALLWAY	Building	1	9	[0, 0, 0]	n/a	catFR1	2	R1328E
1079.328	1.6	1079448	WORD	n/a	wordpools/wordpool_categorized_EN.txt	FOUNDATION	Building	2	9	[0, 0, 0]	n/a	catFR1	2	R1328E
1080.96	1.102	1081080	WORD_OFF	n/a	n/a	FOUNDATION	Building	2	9	[0, 0, 0]	n/a	catFR1	2	R1328E
1082.062	1.6	1082182	WORD	n/a	wordpools/wordpool_categorized_EN.txt	PEACH	Fruit	3	9	[0, 0, 0]	n/a	catFR1	2	R1328E
1083.694	0.851	1083814	WORD_OFF	n/a	n/a	PEACH	Fruit	3	9	[0, 0, 0]	n/a	catFR1	2	R1328E
1084.545	1.6	1084665	WORD	n/a	wordpools/wordpool_categorized_EN.txt	STRAWBERRY	Fruit	4	9	[0, 0, 0]	n/a	catFR1	2	R1328E
1086.177	0.961	1086297	WORD_OFF	n/a	n/a	STRAWBERRY	Fruit	4	9	[0, 0, 0]	n/a	catFR1	2	R1328E
1087.138	1.6	1087258	WORD	n/a	wordpools/wordpool_categorized_EN.txt	ZEBRA	Zoo	5	9	[0, 0, 0]	n/a	catFR1	2	R1328E
1088.761	1.138	1088881	WORD_OFF	n/a	n/a	ZEBRA	Zoo	5	9	[0, 0, 0]	n/a	catFR1	2	R1328E
1089.899	1.6	1090019	WORD	n/a	wordpools/wordpool_categorized_EN.txt	ORANGUTAN	Zoo	6	9	[0, 0, 0]	n/a	catFR1	2	R1328E
1091.528	0.944	1091648	WORD_OFF	n/a	n/a	ORANGUTAN	Zoo	6	9	[0, 0, 0]	n/a	catFR1	2	R1328E
1092.472	1.6	1092592	WORD	n/a	wordpools/wordpool_categorized_EN.txt	DOOR	Building	7	9	[0, 0, 0]	n/a	catFR1	2	R1328E
1094.095	0.919	1094214	WORD_OFF	n/a	n/a	DOOR	Building	7	9	[0, 0, 0]	n/a	catFR1	2	R1328E
1095.014	1.6	1095133	WORD	n/a	wordpools/wordpool_categorized_EN.txt	WINDOW	Building	8	9	[0, 0, 0]	n/a	catFR1	2	R1328E
1096.646	0.894	1096765	WORD_OFF	n/a	n/a	WINDOW	Building	8	9	[0, 0, 0]	n/a	catFR1	2	R1328E
1097.54	1.6	1097659	WORD	n/a	wordpools/wordpool_categorized_EN.txt	APPLE	Fruit	9	9	[0, 0, 0]	n/a	catFR1	2	R1328E
1099.163	1.117	1099282	WORD_OFF	n/a	n/a	APPLE	Fruit	9	9	[0, 0, 0]	n/a	catFR1	2	R1328E
1100.28	1.6	1100399	WORD	n/a	wordpools/wordpool_categorized_EN.txt	ORANGE	Fruit	10	9	[0, 0, 0]	n/a	catFR1	2	R1328E
1101.913	1.054	1102032	WORD_OFF	n/a	n/a	ORANGE	Fruit	10	9	[0, 0, 0]	n/a	catFR1	2	R1328E
1102.967	1.6	1103086	WORD	n/a	wordpools/wordpool_categorized_EN.txt	LION	Zoo	11	9	[0, 0, 0]	n/a	catFR1	2	R1328E
1104.597	0.911	1104716	WORD_OFF	n/a	n/a	LION	Zoo	11	9	[0, 0, 0]	n/a	catFR1	2	R1328E
1105.508	1.6	1105627	WORD	n/a	wordpools/wordpool_categorized_EN.txt	TIGER	Zoo	12	9	[0, 0, 0]	n/a	catFR1	2	R1328E
1107.131	0.0	1107250	WORD_OFF	n/a	n/a	TIGER	Zoo	12	9	[0, 0, 0]	n/a	catFR1	2	R1328E
1107.131	0.001	1107250	ENCODING_END	n/a	n/a	n/a	n/a	-999	9	[0, 0, 0]	n/a	catFR1	2	R1328E
1107.132	0.0	1107251	DISTRACT_START	n/a	n/a	n/a	n/a	-999	9	[0, 0, 0]	n/a	catFR1	2	R1328E
1107.132	0.015	1107251	START	n/a	n/a	n/a	n/a	-999	9	[-999, -999, -999]	n/a	catFR1	2	R1328E
1107.147	25.113	1107266	PROB	25.113	n/a	n/a	n/a	-999	9	[7, 6, 9]	22.0	catFR1	2	R1328E
1132.26	0.009	1132378	STOP	n/a	n/a	n/a	n/a	-999	9	[-999, -999, -999]	n/a	catFR1	2	R1328E
1132.269	0.689	1132387	DISTRACT_END	n/a	n/a	n/a	n/a	-999	9	[0, 0, 0]	n/a	catFR1	2	R1328E
1132.958	1.6	1133076	RETRIEVAL_ORIENT_START	n/a	n/a	n/a	n/a	-999	9	[0, 0, 0]	n/a	catFR1	2	R1328E
1134.486	0.0	1134604	RETRIEVAL_ORIENT_END	n/a	n/a	n/a	n/a	-999	9	[0, 0, 0]	n/a	catFR1	2	R1328E
1134.486	0.263	1134604	REC_START	n/a	n/a	n/a	n/a	-999	9	[0, 0, 0]	n/a	catFR1	2	R1328E
1134.749	2.173	1134867	REC_WORD	0.263	n/a	HALLWAY	Building	1	9	[0, 0, 0]	n/a	catFR1	2	R1328E
1136.922	13.124	1137040	REC_WORD	2.436	n/a	FOUNDATION	Building	2	9	[0, 0, 0]	n/a	catFR1	2	R1328E
1150.046	6.535	1150163	REC_WORD	15.56	n/a	DOOR	Building	7	9	[0, 0, 0]	n/a	catFR1	2	R1328E
1156.581	7.916	1156698	REC_WORD	22.095	n/a	WINDOW	Building	8	9	[0, 0, 0]	n/a	catFR1	2	R1328E
1164.497	0.0	1164614	REC_END	n/a	n/a	n/a	n/a	-999	9	[0, 0, 0]	n/a	catFR1	2	R1328E
1164.497	0.026	1164614	TRIAL_END	n/a	n/a	n/a	n/a	-999	9	[0, 0, 0]	n/a	catFR1	2	R1328E
1164.523	0.0	1164640	TRIAL_START	n/a	n/a	n/a	n/a	-999	10	[0, 0, 0]	n/a	catFR1	2	R1328E
1164.523	0.0	1164640	TRIAL	n/a	n/a	n/a	n/a	-999	10	[0, 0, 0]	n/a	catFR1	2	R1328E
1164.523	2.752	1164640	WAITING_START	n/a	n/a	n/a	n/a	-999	10	[0, 0, 0]	n/a	catFR1	2	R1328E
1167.275	10.0	1167392	COUNTDOWN_START	n/a	n/a	n/a	n/a	-999	10	[0, 0, 0]	n/a	catFR1	2	R1328E
1167.275	10.428	1167392	WAITING_END	n/a	n/a	n/a	n/a	-999	10	[0, 0, 0]	n/a	catFR1	2	R1328E
1177.703	0.0	1177819	COUNTDOWN_END	n/a	n/a	n/a	n/a	-999	10	[0, 0, 0]	n/a	catFR1	2	R1328E
1177.703	1.09	1177819	ORIENT_START	n/a	n/a	n/a	n/a	-999	10	[0, 0, 0]	n/a	catFR1	2	R1328E
1178.793	0.001	1178909	ORIENT_END	n/a	n/a	n/a	n/a	-999	10	[0, 0, 0]	n/a	catFR1	2	R1328E
1178.794	1.116	1178910	ENCODING_START	n/a	n/a	n/a	n/a	-999	10	[0, 0, 0]	n/a	catFR1	2	R1328E
1179.91	1.6	1180026	WORD	n/a	wordpools/wordpool_categorized_EN.txt	COUCH	Furniture	1	10	[0, 0, 0]	n/a	catFR1	2	R1328E
1181.544	1.038	1181660	WORD_OFF	n/a	n/a	COUCH	Furniture	1	10	[0, 0, 0]	n/a	catFR1	2	R1328E
1182.582	1.6	1182698	WORD	n/a	wordpools/wordpool_categorized_EN.txt	DESK	Furniture	2	10	[0, 0, 0]	n/a	catFR1	2	R1328E
1184.211	0.852	1184327	WORD_OFF	n/a	n/a	DESK	Furniture	2	10	[0, 0, 0]	n/a	catFR1	2	R1328E
1185.063	1.6	1185179	WORD	n/a	wordpools/wordpool_categorized_EN.txt	GLUE	OfficeSupplies	3	10	[0, 0, 0]	n/a	catFR1	2	R1328E
1186.695	0.853	1186811	WORD_OFF	n/a	n/a	GLUE	OfficeSupplies	3	10	[0, 0, 0]	n/a	catFR1	2	R1328E
1187.548	1.6	1187664	WORD	n/a	wordpools/wordpool_categorized_EN.txt	STAPLER	OfficeSupplies	4	10	[0, 0, 0]	n/a	catFR1	2	R1328E
1189.179	0.75	1189295	WORD_OFF	n/a	n/a	STAPLER	OfficeSupplies	4	10	[0, 0, 0]	n/a	catFR1	2	R1328E
1189.929	1.6	1190045	WORD	n/a	wordpools/wordpool_categorized_EN.txt	GIRAFFE	Zoo	5	10	[0, 0, 0]	n/a	catFR1	2	R1328E
1191.563	0.998	1191679	WORD_OFF	n/a	n/a	GIRAFFE	Zoo	5	10	[0, 0, 0]	n/a	catFR1	2	R1328E
1192.561	1.6	1192677	WORD	n/a	wordpools/wordpool_categorized_EN.txt	CHIMPANZEE	Zoo	6	10	[0, 0, 0]	n/a	catFR1	2	R1328E
1194.196	0.783	1194312	WORD_OFF	n/a	n/a	CHIMPANZEE	Zoo	6	10	[0, 0, 0]	n/a	catFR1	2	R1328E
1194.979	1.6	1195095	WORD	n/a	wordpools/wordpool_categorized_EN.txt	CABINET	Furniture	7	10	[0, 0, 0]	n/a	catFR1	2	R1328E
1196.613	1.059	1196729	WORD_OFF	n/a	n/a	CABINET	Furniture	7	10	[0, 0, 0]	n/a	catFR1	2	R1328E
1197.672	1.6	1197788	WORD	n/a	wordpools/wordpool_categorized_EN.txt	SHELF	Furniture	8	10	[0, 0, 0]	n/a	catFR1	2	R1328E
1199.298	0.917	1199414	WORD_OFF	n/a	n/a	SHELF	Furniture	8	10	[0, 0, 0]	n/a	catFR1	2	R1328E
1200.215	1.6	1200331	WORD	n/a	wordpools/wordpool_categorized_EN.txt	PANDA	Zoo	9	10	[0, 0, 0]	n/a	catFR1	2	R1328E
1201.848	0.886	1201964	WORD_OFF	n/a	n/a	PANDA	Zoo	9	10	[0, 0, 0]	n/a	catFR1	2	R1328E
1202.734	1.6	1202850	WORD	n/a	wordpools/wordpool_categorized_EN.txt	MONKEY	Zoo	10	10	[0, 0, 0]	n/a	catFR1	2	R1328E
1204.366	1.083	1204481	WORD_OFF	n/a	n/a	MONKEY	Zoo	10	10	[0, 0, 0]	n/a	catFR1	2	R1328E
1205.449	1.6	1205564	WORD	n/a	wordpools/wordpool_categorized_EN.txt	TAPE	OfficeSupplies	11	10	[0, 0, 0]	n/a	catFR1	2	R1328E
1207.082	0.865	1207197	WORD_OFF	n/a	n/a	TAPE	OfficeSupplies	11	10	[0, 0, 0]	n/a	catFR1	2	R1328E
1207.947	1.6	1208062	WORD	n/a	wordpools/wordpool_categorized_EN.txt	FOLDER	OfficeSupplies	12	10	[0, 0, 0]	n/a	catFR1	2	R1328E
1209.582	0.001	1209697	WORD_OFF	n/a	n/a	FOLDER	OfficeSupplies	12	10	[0, 0, 0]	n/a	catFR1	2	R1328E
1209.583	0.0	1209698	ENCODING_END	n/a	n/a	n/a	n/a	-999	10	[0, 0, 0]	n/a	catFR1	2	R1328E
1209.583	0.0	1209698	DISTRACT_START	n/a	n/a	n/a	n/a	-999	10	[0, 0, 0]	n/a	catFR1	2	R1328E
1209.583	0.016	1209698	START	n/a	n/a	n/a	n/a	-999	10	[-999, -999, -999]	n/a	catFR1	2	R1328E
1209.599	8.418	1209714	PROB	8.39	n/a	n/a	n/a	-999	10	[5, 3, 9]	17.0	catFR1	2	R1328E
1218.017	21.384	1218132	PROB	21.384	n/a	n/a	n/a	-999	10	[7, 5, 9]	21.0	catFR1	2	R1328E
1239.401	0.02	1239515	STOP	n/a	n/a	n/a	n/a	-999	10	[-999, -999, -999]	n/a	catFR1	2	R1328E
1239.421	0.509	1239535	DISTRACT_END	n/a	n/a	n/a	n/a	-999	10	[0, 0, 0]	n/a	catFR1	2	R1328E
1239.93	1.6	1240044	RETRIEVAL_ORIENT_START	n/a	n/a	n/a	n/a	-999	10	[0, 0, 0]	n/a	catFR1	2	R1328E
1241.455	0.0	1241569	RETRIEVAL_ORIENT_END	n/a	n/a	n/a	n/a	-999	10	[0, 0, 0]	n/a	catFR1	2	R1328E
1241.455	0.0	1241569	REC_START	n/a	n/a	n/a	n/a	-999	10	[0, 0, 0]	n/a	catFR1	2	R1328E
1241.455	0.924	1241569	REC_WORD	0.0	n/a	DESK	Furniture	2	10	[0, 0, 0]	n/a	catFR1	2	R1328E
1242.379	1.366	1242493	REC_WORD	0.924	n/a	SHELF	Furniture	8	10	[0, 0, 0]	n/a	catFR1	2	R1328E
1243.745	3.142	1243859	REC_WORD	2.29	n/a	CABINET	Furniture	7	10	[0, 0, 0]	n/a	catFR1	2	R1328E
1246.887	24.58	1247001	REC_WORD	5.432	n/a	GLUE	OfficeSupplies	3	10	[0, 0, 0]	n/a	catFR1	2	R1328E
1271.467	0.0	1271580	REC_END	n/a	n/a	n/a	n/a	-999	10	[0, 0, 0]	n/a	catFR1	2	R1328E
1271.467	0.03	1271580	TRIAL_END	n/a	n/a	n/a	n/a	-999	10	[0, 0, 0]	n/a	catFR1	2	R1328E
1271.497	0.0	1271610	TRIAL_START	n/a	n/a	n/a	n/a	-999	11	[0, 0, 0]	n/a	catFR1	2	R1328E
1271.497	0.0	1271610	TRIAL	n/a	n/a	n/a	n/a	-999	11	[0, 0, 0]	n/a	catFR1	2	R1328E
1271.497	4.114	1271610	WAITING_START	n/a	n/a	n/a	n/a	-999	11	[0, 0, 0]	n/a	catFR1	2	R1328E
1275.611	0.0	1275724	WAITING_END	n/a	n/a	n/a	n/a	-999	11	[0, 0, 0]	n/a	catFR1	2	R1328E
1275.611	10.0	1275724	COUNTDOWN_START	n/a	n/a	n/a	n/a	-999	11	[0, 0, 0]	n/a	catFR1	2	R1328E
1286.04	0.0	1286153	ORIENT_START	n/a	n/a	n/a	n/a	-999	11	[0, 0, 0]	n/a	catFR1	2	R1328E
1286.04	1.023	1286153	COUNTDOWN_END	n/a	n/a	n/a	n/a	-999	11	[0, 0, 0]	n/a	catFR1	2	R1328E
1287.063	0.0	1287176	ORIENT_END	n/a	n/a	n/a	n/a	-999	11	[0, 0, 0]	n/a	catFR1	2	R1328E
1287.063	0.966	1287176	ENCODING_START	n/a	n/a	n/a	n/a	-999	11	[0, 0, 0]	n/a	catFR1	2	R1328E
1288.029	1.6	1288141	WORD	n/a	wordpools/wordpool_categorized_EN.txt	CROW	Birds	1	11	[0, 0, 0]	n/a	catFR1	2	R1328E
1289.663	0.876	1289775	WORD_OFF	n/a	n/a	CROW	Birds	1	11	[0, 0, 0]	n/a	catFR1	2	R1328E
1290.539	1.6	1290651	WORD	n/a	wordpools/wordpool_categorized_EN.txt	SEAGULL	Birds	2	11	[0, 0, 0]	n/a	catFR1	2	R1328E
1292.164	0.835	1292276	WORD_OFF	n/a	n/a	SEAGULL	Birds	2	11	[0, 0, 0]	n/a	catFR1	2	R1328E
1292.999	1.6	1293111	WORD	n/a	wordpools/wordpool_categorized_EN.txt	ROSE	Flowers	3	11	[0, 0, 0]	n/a	catFR1	2	R1328E
1294.631	0.792	1294743	WORD_OFF	n/a	n/a	ROSE	Flowers	3	11	[0, 0, 0]	n/a	catFR1	2	R1328E
1295.423	1.6	1295535	WORD	n/a	wordpools/wordpool_categorized_EN.txt	TULIP	Flowers	4	11	[0, 0, 0]	n/a	catFR1	2	R1328E
1297.048	1.092	1297160	WORD_OFF	n/a	n/a	TULIP	Flowers	4	11	[0, 0, 0]	n/a	catFR1	2	R1328E
1298.14	1.6	1298252	WORD	n/a	wordpools/wordpool_categorized_EN.txt	BEAR	Zoo	5	11	[0, 0, 0]	n/a	catFR1	2	R1328E
1299.765	0.971	1299877	WORD_OFF	n/a	n/a	BEAR	Zoo	5	11	[0, 0, 0]	n/a	catFR1	2	R1328E
1300.736	1.6	1300848	WORD	n/a	wordpools/wordpool_categorized_EN.txt	CHEETAH	Zoo	6	11	[0, 0, 0]	n/a	catFR1	2	R1328E
1302.349	0.832	1302461	WORD_OFF	n/a	n/a	CHEETAH	Zoo	6	11	[0, 0, 0]	n/a	catFR1	2	R1328E
1303.181	1.6	1303293	WORD	n/a	wordpools/wordpool_categorized_EN.txt	PETUNIA	Flowers	7	11	[0, 0, 0]	n/a	catFR1	2	R1328E
1304.816	0.938	1304928	WORD_OFF	n/a	n/a	PETUNIA	Flowers	7	11	[0, 0, 0]	n/a	catFR1	2	R1328E
1305.754	1.6	1305866	WORD	n/a	wordpools/wordpool_categorized_EN.txt	SUNFLOWER	Flowers	8	11	[0, 0, 0]	n/a	catFR1	2	R1328E
1307.384	0.917	1307496	WORD_OFF	n/a	n/a	SUNFLOWER	Flowers	8	11	[0, 0, 0]	n/a	catFR1	2	R1328E
1308.301	1.6	1308413	WORD	n/a	wordpools/wordpool_categorized_EN.txt	GORILLA	Zoo	9	11	[0, 0, 0]	n/a	catFR1	2	R1328E
1309.933	1.132	1310045	WORD_OFF	n/a	n/a	GORILLA	Zoo	9	11	[0, 0, 0]	n/a	catFR1	2	R1328E
1311.065	1.6	1311177	WORD	n/a	wordpools/wordpool_categorized_EN.txt	ELEPHANT	Zoo	10	11	[0, 0, 0]	n/a	catFR1	2	R1328E
1312.7	0.858	1312812	WORD_OFF	n/a	n/a	ELEPHANT	Zoo	10	11	[0, 0, 0]	n/a	catFR1	2	R1328E
1313.558	1.6	1313670	WORD	n/a	wordpools/wordpool_categorized_EN.txt	FINCH	Birds	11	11	[0, 0, 0]	n/a	catFR1	2	R1328E
1315.184	0.821	1315296	WORD_OFF	n/a	n/a	FINCH	Birds	11	11	[0, 0, 0]	n/a	catFR1	2	R1328E
1316.005	1.6	1316116	WORD	n/a	wordpools/wordpool_categorized_EN.txt	BLUEBIRD	Birds	12	11	[0, 0, 0]	n/a	catFR1	2	R1328E
1317.635	0.0	1317746	WORD_OFF	n/a	n/a	BLUEBIRD	Birds	12	11	[0, 0, 0]	n/a	catFR1	2	R1328E
1317.635	0.0	1317746	ENCODING_END	n/a	n/a	n/a	n/a	-999	11	[0, 0, 0]	n/a	catFR1	2	R1328E
1317.635	0.0	1317746	DISTRACT_START	n/a	n/a	n/a	n/a	-999	11	[0, 0, 0]	n/a	catFR1	2	R1328E
1317.635	0.016	1317746	START	n/a	n/a	n/a	n/a	-999	11	[-999, -999, -999]	n/a	catFR1	2	R1328E
1317.651	15.603	1317762	PROB	15.57	n/a	n/a	n/a	-999	11	[3, 6, 8]	17.0	catFR1	2	R1328E
1333.254	7.324	1333365	PROB	7.324	n/a	n/a	n/a	-999	11	[6, 5, 2]	13.0	catFR1	2	R1328E
1340.578	0.011	1340689	STOP	n/a	n/a	n/a	n/a	-999	11	[-999, -999, -999]	n/a	catFR1	2	R1328E
1340.589	0.64	1340700	DISTRACT_END	n/a	n/a	n/a	n/a	-999	11	[0, 0, 0]	n/a	catFR1	2	R1328E
1341.229	1.6	1341340	RETRIEVAL_ORIENT_START	n/a	n/a	n/a	n/a	-999	11	[0, 0, 0]	n/a	catFR1	2	R1328E
1342.872	0.001	1342983	RETRIEVAL_ORIENT_END	n/a	n/a	n/a	n/a	-999	11	[0, 0, 0]	n/a	catFR1	2	R1328E
1342.873	0.49	1342984	REC_START	n/a	n/a	n/a	n/a	-999	11	[0, 0, 0]	n/a	catFR1	2	R1328E
1343.363	1.064	1343473	REC_WORD	0.49	n/a	SUNFLOWER	Flowers	8	11	[0, 0, 0]	n/a	catFR1	2	R1328E
1344.427	1.175	1344537	REC_WORD	1.554	n/a	TULIP	Flowers	4	11	[0, 0, 0]	n/a	catFR1	2	R1328E
1345.602	4.158	1345712	REC_WORD	2.729	n/a	PETUNIA	Flowers	7	11	[0, 0, 0]	n/a	catFR1	2	R1328E
1349.76	23.124	1349870	REC_WORD	6.887	n/a	ROSE	Flowers	3	11	[0, 0, 0]	n/a	catFR1	2	R1328E
1372.884	0.0	1372993	TRIAL_END	n/a	n/a	n/a	n/a	-999	11	[0, 0, 0]	n/a	catFR1	2	R1328E
1372.884	0.026	1372993	REC_END	n/a	n/a	n/a	n/a	-999	11	[0, 0, 0]	n/a	catFR1	2	R1328E
1372.91	0.0	1373019	TRIAL_START	n/a	n/a	n/a	n/a	-999	12	[0, 0, 0]	n/a	catFR1	2	R1328E
1372.91	0.0	1373019	TRIAL	n/a	n/a	n/a	n/a	-999	12	[0, 0, 0]	n/a	catFR1	2	R1328E
1372.91	5.852	1373019	WAITING_START	n/a	n/a	n/a	n/a	-999	12	[0, 0, 0]	n/a	catFR1	2	R1328E
1378.762	0.0	1378871	WAITING_END	n/a	n/a	n/a	n/a	-999	12	[0, 0, 0]	n/a	catFR1	2	R1328E
1378.762	10.0	1378871	COUNTDOWN_START	n/a	n/a	n/a	n/a	-999	12	[0, 0, 0]	n/a	catFR1	2	R1328E
1389.191	0.001	1389300	COUNTDOWN_END	n/a	n/a	n/a	n/a	-999	12	[0, 0, 0]	n/a	catFR1	2	R1328E
1389.192	1.072	1389301	ORIENT_START	n/a	n/a	n/a	n/a	-999	12	[0, 0, 0]	n/a	catFR1	2	R1328E
1390.264	0.0	1390373	ORIENT_END	n/a	n/a	n/a	n/a	-999	12	[0, 0, 0]	n/a	catFR1	2	R1328E
1390.264	0.894	1390373	ENCODING_START	n/a	n/a	n/a	n/a	-999	12	[0, 0, 0]	n/a	catFR1	2	R1328E
1391.158	1.6	1391267	WORD	n/a	wordpools/wordpool_categorized_EN.txt	EAR	BodyParts	1	12	[0, 0, 0]	n/a	catFR1	2	R1328E
1392.781	1.047	1392890	WORD_OFF	n/a	n/a	EAR	BodyParts	1	12	[0, 0, 0]	n/a	catFR1	2	R1328E
1393.828	1.6	1393937	WORD	n/a	wordpools/wordpool_categorized_EN.txt	EYE	BodyParts	2	12	[0, 0, 0]	n/a	catFR1	2	R1328E
1395.465	0.994	1395574	WORD_OFF	n/a	n/a	EYE	BodyParts	2	12	[0, 0, 0]	n/a	catFR1	2	R1328E
1396.459	1.6	1396568	WORD	n/a	wordpools/wordpool_categorized_EN.txt	ROOM	Building	3	12	[0, 0, 0]	n/a	catFR1	2	R1328E
1398.082	0.794	1398191	WORD_OFF	n/a	n/a	ROOM	Building	3	12	[0, 0, 0]	n/a	catFR1	2	R1328E
1398.876	1.6	1398984	WORD	n/a	wordpools/wordpool_categorized_EN.txt	CEILING	Building	4	12	[0, 0, 0]	n/a	catFR1	2	R1328E
1400.499	0.799	1400607	WORD_OFF	n/a	n/a	CEILING	Building	4	12	[0, 0, 0]	n/a	catFR1	2	R1328E
1401.298	1.6	1401406	WORD	n/a	wordpools/wordpool_categorized_EN.txt	TUBA	Instruments	5	12	[0, 0, 0]	n/a	catFR1	2	R1328E
1402.933	1.064	1403041	WORD_OFF	n/a	n/a	TUBA	Instruments	5	12	[0, 0, 0]	n/a	catFR1	2	R1328E
1403.997	1.6	1404105	WORD	n/a	wordpools/wordpool_categorized_EN.txt	DRUM	Instruments	6	12	[0, 0, 0]	n/a	catFR1	2	R1328E
1405.633	1.15	1405741	WORD_OFF	n/a	n/a	DRUM	Instruments	6	12	[0, 0, 0]	n/a	catFR1	2	R1328E
1406.783	1.6	1406891	WORD	n/a	wordpools/wordpool_categorized_EN.txt	LEG	BodyParts	7	12	[0, 0, 0]	n/a	catFR1	2	R1328E
1408.417	0.765	1408525	WORD_OFF	n/a	n/a	LEG	BodyParts	7	12	[0, 0, 0]	n/a	catFR1	2	R1328E
1409.182	1.6	1409290	WORD	n/a	wordpools/wordpool_categorized_EN.txt	KNEE	BodyParts	8	12	[0, 0, 0]	n/a	catFR1	2	R1328E
1410.818	0.972	1410926	WORD_OFF	n/a	n/a	KNEE	BodyParts	8	12	[0, 0, 0]	n/a	catFR1	2	R1328E
1411.79	1.6	1411898	WORD	n/a	wordpools/wordpool_categorized_EN.txt	PIANO	Instruments	9	12	[0, 0, 0]	n/a	catFR1	2	R1328E
1413.418	1.037	1413526	WORD_OFF	n/a	n/a	PIANO	Instruments	9	12	[0, 0, 0]	n/a	catFR1	2	R1328E
1414.455	1.6	1414563	WORD	n/a	wordpools/wordpool_categorized_EN.txt	BANJO	Instruments	10	12	[0, 0, 0]	n/a	catFR1	2	R1328E
1416.085	0.821	1416193	WORD_OFF	n/a	n/a	BANJO	Instruments	10	12	[0, 0, 0]	n/a	catFR1	2	R1328E
1416.906	1.6	1417014	WORD	n/a	wordpools/wordpool_categorized_EN.txt	WALL	Building	11	12	[0, 0, 0]	n/a	catFR1	2	R1328E
1418.536	1.091	1418644	WORD_OFF	n/a	n/a	WALL	Building	11	12	[0, 0, 0]	n/a	catFR1	2	R1328E
1419.627	1.6	1419735	WORD	n/a	wordpools/wordpool_categorized_EN.txt	FLOOR	Building	12	12	[0, 0, 0]	n/a	catFR1	2	R1328E
1421.253	0.0	1421361	WORD_OFF	n/a	n/a	FLOOR	Building	12	12	[0, 0, 0]	n/a	catFR1	2	R1328E
1421.253	0.0	1421361	ENCODING_END	n/a	n/a	n/a	n/a	-999	12	[0, 0, 0]	n/a	catFR1	2	R1328E
1421.253	0.001	1421361	DISTRACT_START	n/a	n/a	n/a	n/a	-999	12	[0, 0, 0]	n/a	catFR1	2	R1328E
1421.254	0.015	1421362	START	n/a	n/a	n/a	n/a	-999	12	[-999, -999, -999]	n/a	catFR1	2	R1328E
1421.269	14.087	1421377	PROB	14.052	n/a	n/a	n/a	-999	12	[7, 4, 5]	16.0	catFR1	2	R1328E
1435.356	13.343	1435463	PROB	13.343	n/a	n/a	n/a	-999	12	[6, 5, 9]	20.0	catFR1	2	R1328E
1448.699	0.009	1448806	STOP	n/a	n/a	n/a	n/a	-999	12	[-999, -999, -999]	n/a	catFR1	2	R1328E
1448.708	0.637	1448815	DISTRACT_END	n/a	n/a	n/a	n/a	-999	12	[0, 0, 0]	n/a	catFR1	2	R1328E
1449.345	1.6	1449452	RETRIEVAL_ORIENT_START	n/a	n/a	n/a	n/a	-999	12	[0, 0, 0]	n/a	catFR1	2	R1328E
1450.908	0.0	1451015	REC_START	n/a	n/a	n/a	n/a	-999	12	[0, 0, 0]	n/a	catFR1	2	R1328E
1450.908	1.738	1451015	RETRIEVAL_ORIENT_END	n/a	n/a	n/a	n/a	-999	12	[0, 0, 0]	n/a	catFR1	2	R1328E
1452.646	1.214	1452753	REC_WORD	1.738	n/a	CEILING	Building	4	12	[0, 0, 0]	n/a	catFR1	2	R1328E
1453.86	1.187	1453967	REC_WORD	2.952	n/a	ROOM	Building	3	12	[0, 0, 0]	n/a	catFR1	2	R1328E
1455.047	1.816	1455153	REC_WORD	4.139	n/a	FLOOR	Building	12	12	[0, 0, 0]	n/a	catFR1	2	R1328E
1456.863	4.521	1456969	REC_WORD	5.955	n/a	WALL	Building	11	12	[0, 0, 0]	n/a	catFR1	2	R1328E
1461.384	0.54	1461490	REC_WORD	10.476	n/a	LEG	BodyParts	7	12	[0, 0, 0]	n/a	catFR1	2	R1328E
1461.924	5.192	1462030	REC_WORD	11.016	n/a	KNEE	BodyParts	8	12	[0, 0, 0]	n/a	catFR1	2	R1328E
1467.116	13.804	1467222	REC_WORD	16.208	n/a	EAR	BodyParts	1	12	[0, 0, 0]	n/a	catFR1	2	R1328E
1480.92	0.0	1481026	TRIAL_END	n/a	n/a	n/a	n/a	-999	12	[0, 0, 0]	n/a	catFR1	2	R1328E
1480.92	0.026	1481026	REC_END	n/a	n/a	n/a	n/a	-999	12	[0, 0, 0]	n/a	catFR1	2	R1328E
1480.946	0.0	1481052	TRIAL_START	n/a	n/a	n/a	n/a	-999	13	[0, 0, 0]	n/a	catFR1	2	R1328E
1480.946	0.001	1481052	TRIAL	n/a	n/a	n/a	n/a	-999	13	[0, 0, 0]	n/a	catFR1	2	R1328E
1480.947	4.385	1481053	WAITING_START	n/a	n/a	n/a	n/a	-999	13	[0, 0, 0]	n/a	catFR1	2	R1328E
1485.332	0.0	1485437	WAITING_END	n/a	n/a	n/a	n/a	-999	13	[0, 0, 0]	n/a	catFR1	2	R1328E
1485.332	10.0	1485437	COUNTDOWN_START	n/a	n/a	n/a	n/a	-999	13	[0, 0, 0]	n/a	catFR1	2	R1328E
1495.761	0.0	1495866	COUNTDOWN_END	n/a	n/a	n/a	n/a	-999	13	[0, 0, 0]	n/a	catFR1	2	R1328E
1495.761	1.038	1495866	ORIENT_START	n/a	n/a	n/a	n/a	-999	13	[0, 0, 0]	n/a	catFR1	2	R1328E
1496.799	0.001	1496904	ORIENT_END	n/a	n/a	n/a	n/a	-999	13	[0, 0, 0]	n/a	catFR1	2	R1328E
1496.8	0.931	1496905	ENCODING_START	n/a	n/a	n/a	n/a	-999	13	[0, 0, 0]	n/a	catFR1	2	R1328E
1497.731	1.6	1497836	WORD	n/a	wordpools/wordpool_categorized_EN.txt	SKIRT	Clothing	1	13	[0, 0, 0]	n/a	catFR1	2	R1328E
1499.35	1.104	1499455	WORD_OFF	n/a	n/a	SKIRT	Clothing	1	13	[0, 0, 0]	n/a	catFR1	2	R1328E
1500.454	1.6	1500559	WORD	n/a	wordpools/wordpool_categorized_EN.txt	UNDERWEAR	Clothing	2	13	[0, 0, 0]	n/a	catFR1	2	R1328E
1502.084	0.762	1502189	WORD_OFF	n/a	n/a	UNDERWEAR	Clothing	2	13	[0, 0, 0]	n/a	catFR1	2	R1328E
1502.846	1.6	1502951	WORD	n/a	wordpools/wordpool_categorized_EN.txt	TRAIN	Vehicles	3	13	[0, 0, 0]	n/a	catFR1	2	R1328E
1504.467	0.757	1504572	WORD_OFF	n/a	n/a	TRAIN	Vehicles	3	13	[0, 0, 0]	n/a	catFR1	2	R1328E
1505.224	1.6	1505329	WORD	n/a	wordpools/wordpool_categorized_EN.txt	MOTORCYCLE	Vehicles	4	13	[0, 0, 0]	n/a	catFR1	2	R1328E
1506.851	0.813	1506956	WORD_OFF	n/a	n/a	MOTORCYCLE	Vehicles	4	13	[0, 0, 0]	n/a	catFR1	2	R1328E
1507.664	1.6	1507769	WORD	n/a	wordpools/wordpool_categorized_EN.txt	THUNDER	Weather	5	13	[0, 0, 0]	n/a	catFR1	2	R1328E
1509.286	0.961	1509391	WORD_OFF	n/a	n/a	THUNDER	Weather	5	13	[0, 0, 0]	n/a	catFR1	2	R1328E
1510.247	1.6	1510351	WORD	n/a	wordpools/wordpool_categorized_EN.txt	RAIN	Weather	6	13	[0, 0, 0]	n/a	catFR1	2	R1328E
1511.869	0.828	1511973	WORD_OFF	n/a	n/a	RAIN	Weather	6	13	[0, 0, 0]	n/a	catFR1	2	R1328E
1512.697	1.6	1512801	WORD	n/a	wordpools/wordpool_categorized_EN.txt	BIKE	Vehicles	7	13	[0, 0, 0]	n/a	catFR1	2	R1328E
1514.32	1.049	1514424	WORD_OFF	n/a	n/a	BIKE	Vehicles	7	13	[0, 0, 0]	n/a	catFR1	2	R1328E
1515.369	1.6	1515473	WORD	n/a	wordpools/wordpool_categorized_EN.txt	TRUCK	Vehicles	8	13	[0, 0, 0]	n/a	catFR1	2	R1328E
1517.003	0.924	1517107	WORD_OFF	n/a	n/a	TRUCK	Vehicles	8	13	[0, 0, 0]	n/a	catFR1	2	R1328E
1517.927	1.6	1518031	WORD	n/a	wordpools/wordpool_categorized_EN.txt	DRESS	Clothing	9	13	[0, 0, 0]	n/a	catFR1	2	R1328E
1519.553	0.844	1519657	WORD_OFF	n/a	n/a	DRESS	Clothing	9	13	[0, 0, 0]	n/a	catFR1	2	R1328E
1520.397	1.6	1520501	WORD	n/a	wordpools/wordpool_categorized_EN.txt	JEANS	Clothing	10	13	[0, 0, 0]	n/a	catFR1	2	R1328E
1522.021	0.778	1522125	WORD_OFF	n/a	n/a	JEANS	Clothing	10	13	[0, 0, 0]	n/a	catFR1	2	R1328E
1522.799	1.6	1522903	WORD	n/a	wordpools/wordpool_categorized_EN.txt	CLOUD	Weather	11	13	[0, 0, 0]	n/a	catFR1	2	R1328E
1524.421	0.928	1524525	WORD_OFF	n/a	n/a	CLOUD	Weather	11	13	[0, 0, 0]	n/a	catFR1	2	R1328E
1525.349	1.6	1525453	WORD	n/a	wordpools/wordpool_categorized_EN.txt	LIGHTNING	Weather	12	13	[0, 0, 0]	n/a	catFR1	2	R1328E
1526.971	0.001	1527075	WORD_OFF	n/a	n/a	LIGHTNING	Weather	12	13	[0, 0, 0]	n/a	catFR1	2	R1328E
1526.972	0.0	1527076	ENCODING_END	n/a	n/a	n/a	n/a	-999	13	[0, 0, 0]	n/a	catFR1	2	R1328E
1526.972	0.0	1527076	DISTRACT_START	n/a	n/a	n/a	n/a	-999	13	[0, 0, 0]	n/a	catFR1	2	R1328E
1526.972	0.016	1527076	START	n/a	n/a	n/a	n/a	-999	13	[-999, -999, -999]	n/a	catFR1	2	R1328E
1526.988	20.039	1527092	PROB	20.039	n/a	n/a	n/a	-999	13	[4, 6, 8]	18.0	catFR1	2	R1328E
1547.027	0.014	1547130	STOP	n/a	n/a	n/a	n/a	-999	13	[-999, -999, -999]	n/a	catFR1	2	R1328E
1547.041	0.554	1547144	DISTRACT_END	n/a	n/a	n/a	n/a	-999	13	[0, 0, 0]	n/a	catFR1	2	R1328E
1547.595	1.6	1547698	RETRIEVAL_ORIENT_START	n/a	n/a	n/a	n/a	-999	13	[0, 0, 0]	n/a	catFR1	2	R1328E
1549.192	0.0	1549295	RETRIEVAL_ORIENT_END	n/a	n/a	n/a	n/a	-999	13	[0, 0, 0]	n/a	catFR1	2	R1328E
1549.192	0.648	1549295	REC_START	n/a	n/a	n/a	n/a	-999	13	[0, 0, 0]	n/a	catFR1	2	R1328E
1549.84	1.045	1549943	REC_WORD	0.648	n/a	DRESS	Clothing	9	13	[0, 0, 0]	n/a	catFR1	2	R1328E
1550.885	1.868	1550988	REC_WORD	1.693	n/a	SKIRT	Clothing	1	13	[0, 0, 0]	n/a	catFR1	2	R1328E
1552.753	4.186	1552856	REC_WORD	3.561	n/a	UNDERWEAR	Clothing	2	13	[0, 0, 0]	n/a	catFR1	2	R1328E
1556.939	1.082	1557042	REC_WORD	7.747	n/a	LIGHTNING	Weather	12	13	[0, 0, 0]	n/a	catFR1	2	R1328E
1558.021	1.261	1558124	REC_WORD	8.829	n/a	THUNDER	Weather	5	13	[0, 0, 0]	n/a	catFR1	2	R1328E
1559.282	19.92	1559385	REC_WORD	10.09	n/a	RAIN	Weather	6	13	[0, 0, 0]	n/a	catFR1	2	R1328E
1579.202	0.001	1579304	REC_END	n/a	n/a	n/a	n/a	-999	13	[0, 0, 0]	n/a	catFR1	2	R1328E
1579.203	0.025	1579305	TRIAL_END	n/a	n/a	n/a	n/a	-999	13	[0, 0, 0]	n/a	catFR1	2	R1328E
1579.228	0.0	1579330	TRIAL_START	n/a	n/a	n/a	n/a	-999	14	[0, 0, 0]	n/a	catFR1	2	R1328E
1579.228	0.001	1579330	TRIAL	n/a	n/a	n/a	n/a	-999	14	[0, 0, 0]	n/a	catFR1	2	R1328E
1579.229	3.536	1579331	WAITING_START	n/a	n/a	n/a	n/a	-999	14	[0, 0, 0]	n/a	catFR1	2	R1328E
1582.765	0.0	1582867	WAITING_END	n/a	n/a	n/a	n/a	-999	14	[0, 0, 0]	n/a	catFR1	2	R1328E
1582.765	10.0	1582867	COUNTDOWN_START	n/a	n/a	n/a	n/a	-999	14	[0, 0, 0]	n/a	catFR1	2	R1328E
1593.193	0.0	1593294	COUNTDOWN_END	n/a	n/a	n/a	n/a	-999	14	[0, 0, 0]	n/a	catFR1	2	R1328E
1593.193	1.04	1593294	ORIENT_START	n/a	n/a	n/a	n/a	-999	14	[0, 0, 0]	n/a	catFR1	2	R1328E
1594.233	0.001	1594334	ORIENT_END	n/a	n/a	n/a	n/a	-999	14	[0, 0, 0]	n/a	catFR1	2	R1328E
1594.234	0.859	1594335	ENCODING_START	n/a	n/a	n/a	n/a	-999	14	[0, 0, 0]	n/a	catFR1	2	R1328E
1595.093	1.6	1595194	WORD	n/a	wordpools/wordpool_categorized_EN.txt	BEER	Beverages	1	14	[0, 0, 0]	n/a	catFR1	2	R1328E
1596.717	0.996	1596818	WORD_OFF	n/a	n/a	BEER	Beverages	1	14	[0, 0, 0]	n/a	catFR1	2	R1328E
1597.713	1.6	1597814	WORD	n/a	wordpools/wordpool_categorized_EN.txt	CIDER	Beverages	2	14	[0, 0, 0]	n/a	catFR1	2	R1328E
1599.335	0.765	1599436	WORD_OFF	n/a	n/a	CIDER	Beverages	2	14	[0, 0, 0]	n/a	catFR1	2	R1328E
1600.1	1.6	1600201	WORD	n/a	wordpools/wordpool_categorized_EN.txt	TOE	BodyParts	3	14	[0, 0, 0]	n/a	catFR1	2	R1328E
1601.734	0.799	1601835	WORD_OFF	n/a	n/a	TOE	BodyParts	3	14	[0, 0, 0]	n/a	catFR1	2	R1328E
1602.533	1.6	1602634	WORD	n/a	wordpools/wordpool_categorized_EN.txt	ELBOW	BodyParts	4	14	[0, 0, 0]	n/a	catFR1	2	R1328E
1604.168	1.112	1604269	WORD_OFF	n/a	n/a	ELBOW	BodyParts	4	14	[0, 0, 0]	n/a	catFR1	2	R1328E
1605.28	1.6	1605381	WORD	n/a	wordpools/wordpool_categorized_EN.txt	PLIERS	Tools	5	14	[0, 0, 0]	n/a	catFR1	2	R1328E
1606.902	0.944	1607003	WORD_OFF	n/a	n/a	PLIERS	Tools	5	14	[0, 0, 0]	n/a	catFR1	2	R1328E
1607.846	1.6	1607947	WORD	n/a	wordpools/wordpool_categorized_EN.txt	SCREWDRIVER	Tools	6	14	[0, 0, 0]	n/a	catFR1	2	R1328E
1609.469	0.897	1609570	WORD_OFF	n/a	n/a	SCREWDRIVER	Tools	6	14	[0, 0, 0]	n/a	catFR1	2	R1328E
1610.366	1.6	1610467	WORD	n/a	wordpools/wordpool_categorized_EN.txt	JUICE	Beverages	7	14	[0, 0, 0]	n/a	catFR1	2	R1328E
1611.986	0.97	1612087	WORD_OFF	n/a	n/a	JUICE	Beverages	7	14	[0, 0, 0]	n/a	catFR1	2	R1328E
1612.956	1.6	1613057	WORD	n/a	wordpools/wordpool_categorized_EN.txt	RUM	Beverages	8	14	[0, 0, 0]	n/a	catFR1	2	R1328E
1614.587	0.853	1614688	WORD_OFF	n/a	n/a	RUM	Beverages	8	14	[0, 0, 0]	n/a	catFR1	2	R1328E
1615.44	1.6	1615541	WORD	n/a	wordpools/wordpool_categorized_EN.txt	FINGERS	BodyParts	9	14	[0, 0, 0]	n/a	catFR1	2	R1328E
1617.071	0.982	1617172	WORD_OFF	n/a	n/a	FINGERS	BodyParts	9	14	[0, 0, 0]	n/a	catFR1	2	R1328E
1618.053	1.6	1618154	WORD	n/a	wordpools/wordpool_categorized_EN.txt	HEAD	BodyParts	10	14	[0, 0, 0]	n/a	catFR1	2	R1328E
1619.688	1.143	1619789	WORD_OFF	n/a	n/a	HEAD	BodyParts	10	14	[0, 0, 0]	n/a	catFR1	2	R1328E
1620.831	1.6	1620931	WORD	n/a	wordpools/wordpool_categorized_EN.txt	CROWBAR	Tools	11	14	[0, 0, 0]	n/a	catFR1	2	R1328E
1622.455	0.845	1622555	WORD_OFF	n/a	n/a	CROWBAR	Tools	11	14	[0, 0, 0]	n/a	catFR1	2	R1328E
1623.3	1.6	1623400	WORD	n/a	wordpools/wordpool_categorized_EN.txt	SHOVEL	Tools	12	14	[0, 0, 0]	n/a	catFR1	2	R1328E
1624.922	0.0	1625022	WORD_OFF	n/a	n/a	SHOVEL	Tools	12	14	[0, 0, 0]	n/a	catFR1	2	R1328E
1624.922	0.0	1625022	ENCODING_END	n/a	n/a	n/a	n/a	-999	14	[0, 0, 0]	n/a	catFR1	2	R1328E
1624.922	0.0	1625022	DISTRACT_START	n/a	n/a	n/a	n/a	-999	14	[0, 0, 0]	n/a	catFR1	2	R1328E
1624.922	0.016	1625022	START	n/a	n/a	n/a	n/a	-999	14	[-999, -999, -999]	n/a	catFR1	2	R1328E
1624.938	11.269	1625038	PROB	11.238	n/a	n/a	n/a	-999	14	[5, 1, 7]	13.0	catFR1	2	R1328E
1636.207	5.884	1636307	PROB	5.858	n/a	n/a	n/a	-999	14	[2, 6, 9]	17.0	catFR1	2	R1328E
1642.091	7.353	1642191	PROB	7.353	n/a	n/a	n/a	-999	14	[8, 1, 8]	17.0	catFR1	2	R1328E
1649.444	0.016	1649543	STOP	n/a	n/a	n/a	n/a	-999	14	[-999, -999, -999]	n/a	catFR1	2	R1328E
1649.46	0.693	1649559	DISTRACT_END	n/a	n/a	n/a	n/a	-999	14	[0, 0, 0]	n/a	catFR1	2	R1328E
1650.153	1.6	1650252	RETRIEVAL_ORIENT_START	n/a	n/a	n/a	n/a	-999	14	[0, 0, 0]	n/a	catFR1	2	R1328E
1651.76	0.0	1651859	RETRIEVAL_ORIENT_END	n/a	n/a	n/a	n/a	-999	14	[0, 0, 0]	n/a	catFR1	2	R1328E
1651.76	0.0	1651859	REC_START	n/a	n/a	n/a	n/a	-999	14	[0, 0, 0]	n/a	catFR1	2	R1328E
1651.76	1.0	1651859	REC_WORD	0.0	n/a	SCREWDRIVER	Tools	6	14	[0, 0, 0]	n/a	catFR1	2	R1328E
1652.76	2.331	1652859	REC_WORD_VV	1.0	n/a	<>	n/a	-999	14	[0, 0, 0]	n/a	catFR1	2	R1328E
1655.091	26.679	1655190	REC_WORD	3.331	n/a	PLIERS	Tools	5	14	[0, 0, 0]	n/a	catFR1	2	R1328E
1681.77	0.001	1681868	REC_END	n/a	n/a	n/a	n/a	-999	14	[0, 0, 0]	n/a	catFR1	2	R1328E
1681.771	0.025	1681869	TRIAL_END	n/a	n/a	n/a	n/a	-999	14	[0, 0, 0]	n/a	catFR1	2	R1328E
1681.796	0.001	1681894	TRIAL_START	n/a	n/a	n/a	n/a	-999	15	[0, 0, 0]	n/a	catFR1	2	R1328E
1681.797	0.0	1681895	WAITING_START	n/a	n/a	n/a	n/a	-999	15	[0, 0, 0]	n/a	catFR1	2	R1328E
1681.797	4.686	1681895	TRIAL	n/a	n/a	n/a	n/a	-999	15	[0, 0, 0]	n/a	catFR1	2	R1328E
1686.483	0.0	1686581	WAITING_END	n/a	n/a	n/a	n/a	-999	15	[0, 0, 0]	n/a	catFR1	2	R1328E
1686.483	10.0	1686581	COUNTDOWN_START	n/a	n/a	n/a	n/a	-999	15	[0, 0, 0]	n/a	catFR1	2	R1328E
1696.912	0.0	1697010	COUNTDOWN_END	n/a	n/a	n/a	n/a	-999	15	[0, 0, 0]	n/a	catFR1	2	R1328E
1696.912	1.206	1697010	ORIENT_START	n/a	n/a	n/a	n/a	-999	15	[0, 0, 0]	n/a	catFR1	2	R1328E
1698.118	0.0	1698216	ORIENT_END	n/a	n/a	n/a	n/a	-999	15	[0, 0, 0]	n/a	catFR1	2	R1328E
1698.118	0.928	1698216	ENCODING_START	n/a	n/a	n/a	n/a	-999	15	[0, 0, 0]	n/a	catFR1	2	R1328E
1699.046	1.6	1699144	WORD	n/a	wordpools/wordpool_categorized_EN.txt	SHORTS	Clothing	1	15	[0, 0, 0]	n/a	catFR1	2	R1328E
1700.669	0.785	1700767	WORD_OFF	n/a	n/a	SHORTS	Clothing	1	15	[0, 0, 0]	n/a	catFR1	2	R1328E
1701.454	1.6	1701552	WORD	n/a	wordpools/wordpool_categorized_EN.txt	JACKET	Clothing	2	15	[0, 0, 0]	n/a	catFR1	2	R1328E
1703.086	0.987	1703184	WORD_OFF	n/a	n/a	JACKET	Clothing	2	15	[0, 0, 0]	n/a	catFR1	2	R1328E
1704.073	1.6	1704171	WORD	n/a	wordpools/wordpool_categorized_EN.txt	PIE	Desserts	3	15	[0, 0, 0]	n/a	catFR1	2	R1328E
1705.703	1.038	1705800	WORD_OFF	n/a	n/a	PIE	Desserts	3	15	[0, 0, 0]	n/a	catFR1	2	R1328E
1706.741	1.6	1706838	WORD	n/a	wordpools/wordpool_categorized_EN.txt	PASTRY	Desserts	4	15	[0, 0, 0]	n/a	catFR1	2	R1328E
1708.371	1.124	1708468	WORD_OFF	n/a	n/a	PASTRY	Desserts	4	15	[0, 0, 0]	n/a	catFR1	2	R1328E
1709.495	1.6	1709592	WORD	n/a	wordpools/wordpool_categorized_EN.txt	SQUID	OceanAnimals	5	15	[0, 0, 0]	n/a	catFR1	2	R1328E
1711.12	1.143	1711217	WORD_OFF	n/a	n/a	SQUID	OceanAnimals	5	15	[0, 0, 0]	n/a	catFR1	2	R1328E
1712.263	1.6	1712360	WORD	n/a	wordpools/wordpool_categorized_EN.txt	JELLYFISH	OceanAnimals	6	15	[0, 0, 0]	n/a	catFR1	2	R1328E
1713.887	1.072	1713984	WORD_OFF	n/a	n/a	JELLYFISH	OceanAnimals	6	15	[0, 0, 0]	n/a	catFR1	2	R1328E
1714.959	1.6	1715056	WORD	n/a	wordpools/wordpool_categorized_EN.txt	COOKIE	Desserts	7	15	[0, 0, 0]	n/a	catFR1	2	R1328E
1716.588	1.109	1716685	WORD_OFF	n/a	n/a	COOKIE	Desserts	7	15	[0, 0, 0]	n/a	catFR1	2	R1328E
1717.697	1.6	1717794	WORD	n/a	wordpools/wordpool_categorized_EN.txt	MOUSSE	Desserts	8	15	[0, 0, 0]	n/a	catFR1	2	R1328E
1719.323	0.982	1719420	WORD_OFF	n/a	n/a	MOUSSE	Desserts	8	15	[0, 0, 0]	n/a	catFR1	2	R1328E
1720.305	1.6	1720402	WORD	n/a	wordpools/wordpool_categorized_EN.txt	FISH	OceanAnimals	9	15	[0, 0, 0]	n/a	catFR1	2	R1328E
1721.939	1.092	1722036	WORD_OFF	n/a	n/a	FISH	OceanAnimals	9	15	[0, 0, 0]	n/a	catFR1	2	R1328E
1723.031	1.6	1723128	WORD	n/a	wordpools/wordpool_categorized_EN.txt	SHRIMP	OceanAnimals	10	15	[0, 0, 0]	n/a	catFR1	2	R1328E
1724.656	0.893	1724753	WORD_OFF	n/a	n/a	SHRIMP	OceanAnimals	10	15	[0, 0, 0]	n/a	catFR1	2	R1328E
1725.549	1.6	1725646	WORD	n/a	wordpools/wordpool_categorized_EN.txt	SOCKS	Clothing	11	15	[0, 0, 0]	n/a	catFR1	2	R1328E
1727.173	0.972	1727270	WORD_OFF	n/a	n/a	SOCKS	Clothing	11	15	[0, 0, 0]	n/a	catFR1	2	R1328E
1728.145	1.6	1728242	WORD	n/a	wordpools/wordpool_categorized_EN.txt	BLOUSE	Clothing	12	15	[0, 0, 0]	n/a	catFR1	2	R1328E
1729.774	0.0	1729871	WORD_OFF	n/a	n/a	BLOUSE	Clothing	12	15	[0, 0, 0]	n/a	catFR1	2	R1328E
1729.774	0.0	1729871	ENCODING_END	n/a	n/a	n/a	n/a	-999	15	[0, 0, 0]	n/a	catFR1	2	R1328E
1729.774	0.0	1729871	DISTRACT_START	n/a	n/a	n/a	n/a	-999	15	[0, 0, 0]	n/a	catFR1	2	R1328E
1729.774	0.016	1729871	START	n/a	n/a	n/a	n/a	-999	15	[-999, -999, -999]	n/a	catFR1	2	R1328E
1729.79	6.301	1729887	PROB	6.273	n/a	n/a	n/a	-999	15	[4, 5, 8]	17.0	catFR1	2	R1328E
1736.091	4.701	1736187	PROB	4.676	n/a	n/a	n/a	-999	15	[1, 7, 8]	16.0	catFR1	2	R1328E
1740.792	12.091	1740888	PROB	12.091	n/a	n/a	n/a	-999	15	[6, 9, 2]	17.0	catFR1	2	R1328E
1752.883	0.011	1752979	STOP	n/a	n/a	n/a	n/a	-999	15	[-999, -999, -999]	n/a	catFR1	2	R1328E
1752.894	0.537	1752990	DISTRACT_END	n/a	n/a	n/a	n/a	-999	15	[0, 0, 0]	n/a	catFR1	2	R1328E
1753.431	1.6	1753527	RETRIEVAL_ORIENT_START	n/a	n/a	n/a	n/a	-999	15	[0, 0, 0]	n/a	catFR1	2	R1328E
1755.045	0.0	1755141	RETRIEVAL_ORIENT_END	n/a	n/a	n/a	n/a	-999	15	[0, 0, 0]	n/a	catFR1	2	R1328E
1755.045	16.323	1755141	REC_START	n/a	n/a	n/a	n/a	-999	15	[0, 0, 0]	n/a	catFR1	2	R1328E
1771.368	7.848	1771463	REC_WORD	16.323	n/a	BLOUSE	Clothing	12	15	[0, 0, 0]	n/a	catFR1	2	R1328E
1779.216	3.326	1779311	REC_WORD	24.171	n/a	SHORTS	Clothing	1	15	[0, 0, 0]	n/a	catFR1	2	R1328E
1782.542	2.515	1782637	REC_WORD	27.497	n/a	JACKET	Clothing	2	15	[0, 0, 0]	n/a	catFR1	2	R1328E
1785.057	0.0	1785152	REC_END	n/a	n/a	n/a	n/a	-999	15	[0, 0, 0]	n/a	catFR1	2	R1328E
1785.057	0.028	1785152	TRIAL_END	n/a	n/a	n/a	n/a	-999	15	[0, 0, 0]	n/a	catFR1	2	R1328E
1785.085	0.001	1785180	TRIAL_START	n/a	n/a	n/a	n/a	-999	16	[0, 0, 0]	n/a	catFR1	2	R1328E
1785.086	0.0	1785181	TRIAL	n/a	n/a	n/a	n/a	-999	16	[0, 0, 0]	n/a	catFR1	2	R1328E
1785.086	5.648	1785181	WAITING_START	n/a	n/a	n/a	n/a	-999	16	[0, 0, 0]	n/a	catFR1	2	R1328E
1790.734	0.001	1790828	WAITING_END	n/a	n/a	n/a	n/a	-999	16	[0, 0, 0]	n/a	catFR1	2	R1328E
1790.735	10.0	1790829	COUNTDOWN_START	n/a	n/a	n/a	n/a	-999	16	[0, 0, 0]	n/a	catFR1	2	R1328E
1801.164	0.0	1801258	COUNTDOWN_END	n/a	n/a	n/a	n/a	-999	16	[0, 0, 0]	n/a	catFR1	2	R1328E
1801.164	1.157	1801258	ORIENT_START	n/a	n/a	n/a	n/a	-999	16	[0, 0, 0]	n/a	catFR1	2	R1328E
1802.321	0.0	1802415	ORIENT_END	n/a	n/a	n/a	n/a	-999	16	[0, 0, 0]	n/a	catFR1	2	R1328E
1802.321	0.784	1802415	ENCODING_START	n/a	n/a	n/a	n/a	-999	16	[0, 0, 0]	n/a	catFR1	2	R1328E
1803.105	1.6	1803199	WORD	n/a	wordpools/wordpool_categorized_EN.txt	IRON	Appliances	1	16	[0, 0, 0]	n/a	catFR1	2	R1328E
1804.737	0.911	1804831	WORD_OFF	n/a	n/a	IRON	Appliances	1	16	[0, 0, 0]	n/a	catFR1	2	R1328E
1805.648	1.6	1805742	WORD	n/a	wordpools/wordpool_categorized_EN.txt	DRYER	Appliances	2	16	[0, 0, 0]	n/a	catFR1	2	R1328E
1807.271	0.774	1807365	WORD_OFF	n/a	n/a	DRYER	Appliances	2	16	[0, 0, 0]	n/a	catFR1	2	R1328E
1808.045	1.6	1808139	WORD	n/a	wordpools/wordpool_categorized_EN.txt	PENCIL	OfficeSupplies	3	16	[0, 0, 0]	n/a	catFR1	2	R1328E
1809.671	1.11	1809765	WORD_OFF	n/a	n/a	PENCIL	OfficeSupplies	3	16	[0, 0, 0]	n/a	catFR1	2	R1328E
1810.781	1.6	1810875	WORD	n/a	wordpools/wordpool_categorized_EN.txt	ERASER	OfficeSupplies	4	16	[0, 0, 0]	n/a	catFR1	2	R1328E
1812.406	0.776	1812500	WORD_OFF	n/a	n/a	ERASER	OfficeSupplies	4	16	[0, 0, 0]	n/a	catFR1	2	R1328E
1813.182	1.6	1813276	WORD	n/a	wordpools/wordpool_categorized_EN.txt	CAULIFLOWER	Vegetables	5	16	[0, 0, 0]	n/a	catFR1	2	R1328E
1814.805	0.911	1814899	WORD_OFF	n/a	n/a	CAULIFLOWER	Vegetables	5	16	[0, 0, 0]	n/a	catFR1	2	R1328E
1815.716	1.6	1815809	WORD	n/a	wordpools/wordpool_categorized_EN.txt	BROCCOLI	Vegetables	6	16	[0, 0, 0]	n/a	catFR1	2	R1328E
1817.34	0.794	1817433	WORD_OFF	n/a	n/a	BROCCOLI	Vegetables	6	16	[0, 0, 0]	n/a	catFR1	2	R1328E
1818.134	1.6	1818227	WORD	n/a	wordpools/wordpool_categorized_EN.txt	REFRIGERATOR	Appliances	7	16	[0, 0, 0]	n/a	catFR1	2	R1328E
1819.756	0.863	1819849	WORD_OFF	n/a	n/a	REFRIGERATOR	Appliances	7	16	[0, 0, 0]	n/a	catFR1	2	R1328E
1820.619	1.6	1820712	WORD	n/a	wordpools/wordpool_categorized_EN.txt	TOASTER	Appliances	8	16	[0, 0, 0]	n/a	catFR1	2	R1328E
1822.257	0.97	1822350	WORD_OFF	n/a	n/a	TOASTER	Appliances	8	16	[0, 0, 0]	n/a	catFR1	2	R1328E
1823.227	1.6	1823320	WORD	n/a	wordpools/wordpool_categorized_EN.txt	SPINACH	Vegetables	9	16	[0, 0, 0]	n/a	catFR1	2	R1328E
1824.857	1.025	1824950	WORD_OFF	n/a	n/a	SPINACH	Vegetables	9	16	[0, 0, 0]	n/a	catFR1	2	R1328E
1825.882	1.6	1825975	WORD	n/a	wordpools/wordpool_categorized_EN.txt	CORN	Vegetables	10	16	[0, 0, 0]	n/a	catFR1	2	R1328E
1827.508	0.947	1827601	WORD_OFF	n/a	n/a	CORN	Vegetables	10	16	[0, 0, 0]	n/a	catFR1	2	R1328E
1828.455	1.6	1828548	WORD	n/a	wordpools/wordpool_categorized_EN.txt	NOTEBOOK	OfficeSupplies	11	16	[0, 0, 0]	n/a	catFR1	2	R1328E
1830.091	0.825	1830184	WORD_OFF	n/a	n/a	NOTEBOOK	OfficeSupplies	11	16	[0, 0, 0]	n/a	catFR1	2	R1328E
1830.916	1.6	1831009	WORD	n/a	wordpools/wordpool_categorized_EN.txt	BINDER	OfficeSupplies	12	16	[0, 0, 0]	n/a	catFR1	2	R1328E
1832.542	0.0	1832635	DISTRACT_START	n/a	n/a	n/a	n/a	-999	16	[0, 0, 0]	n/a	catFR1	2	R1328E
1832.542	0.0	1832635	ENCODING_END	n/a	n/a	n/a	n/a	-999	16	[0, 0, 0]	n/a	catFR1	2	R1328E
1832.542	0.001	1832635	WORD_OFF	n/a	n/a	BINDER	OfficeSupplies	12	16	[0, 0, 0]	n/a	catFR1	2	R1328E
1832.543	0.015	1832636	START	n/a	n/a	n/a	n/a	-999	16	[-999, -999, -999]	n/a	catFR1	2	R1328E
1832.558	2.967	1832651	PROB	2.937	n/a	n/a	n/a	-999	16	[1, 1, 1]	3.0	catFR1	2	R1328E
1835.525	7.252	1835618	PROB	7.227	n/a	n/a	n/a	-999	16	[3, 6, 8]	17.0	catFR1	2	R1328E
1842.777	9.668	1842870	PROB	9.639	n/a	n/a	n/a	-999	16	[8, 2, 3]	13.0	catFR1	2	R1328E
1852.445	4.62	1852537	PROB	4.62	n/a	n/a	n/a	-999	16	[4, 6, 2]	12.0	catFR1	2	R1328E
1857.065	0.014	1857157	STOP	n/a	n/a	n/a	n/a	-999	16	[-999, -999, -999]	n/a	catFR1	2	R1328E
1857.079	0.538	1857171	DISTRACT_END	n/a	n/a	n/a	n/a	-999	16	[0, 0, 0]	n/a	catFR1	2	R1328E
1857.617	1.6	1857709	RETRIEVAL_ORIENT_START	n/a	n/a	n/a	n/a	-999	16	[0, 0, 0]	n/a	catFR1	2	R1328E
1859.314	0.0	1859406	RETRIEVAL_ORIENT_END	n/a	n/a	n/a	n/a	-999	16	[0, 0, 0]	n/a	catFR1	2	R1328E
1859.314	0.553	1859406	REC_START	n/a	n/a	n/a	n/a	-999	16	[0, 0, 0]	n/a	catFR1	2	R1328E
1859.867	1.088	1859959	REC_WORD	0.553	n/a	BINDER	OfficeSupplies	12	16	[0, 0, 0]	n/a	catFR1	2	R1328E
1860.955	4.986	1861047	REC_WORD	1.641	n/a	NOTEBOOK	OfficeSupplies	11	16	[0, 0, 0]	n/a	catFR1	2	R1328E
1865.941	1.286	1866033	REC_WORD	6.627	n/a	REFRIGERATOR	Appliances	7	16	[0, 0, 0]	n/a	catFR1	2	R1328E
1867.227	13.043	1867319	REC_WORD	7.913	n/a	TOASTER	Appliances	8	16	[0, 0, 0]	n/a	catFR1	2	R1328E
1880.27	0.64	1880361	REC_WORD	20.956	n/a	BROCCOLI	Vegetables	6	16	[0, 0, 0]	n/a	catFR1	2	R1328E
1880.91	2.731	1881001	REC_WORD	21.596	n/a	CAULIFLOWER	Vegetables	5	16	[0, 0, 0]	n/a	catFR1	2	R1328E
1883.641	2.776	1883732	REC_WORD	24.327	n/a	SPINACH	Vegetables	9	16	[0, 0, 0]	n/a	catFR1	2	R1328E
1886.417	2.908	1886508	REC_WORD	27.103	n/a	CORN	Vegetables	10	16	[0, 0, 0]	n/a	catFR1	2	R1328E
1889.325	0.0	1889416	REC_END	n/a	n/a	n/a	n/a	-999	16	[0, 0, 0]	n/a	catFR1	2	R1328E
1889.325	0.026	1889416	TRIAL_END	n/a	n/a	n/a	n/a	-999	16	[0, 0, 0]	n/a	catFR1	2	R1328E
1889.351	0.0	1889442	TRIAL_START	n/a	n/a	n/a	n/a	-999	17	[0, 0, 0]	n/a	catFR1	2	R1328E
1889.351	0.0	1889442	TRIAL	n/a	n/a	n/a	n/a	-999	17	[0, 0, 0]	n/a	catFR1	2	R1328E
1889.351	4.618	1889442	WAITING_START	n/a	n/a	n/a	n/a	-999	17	[0, 0, 0]	n/a	catFR1	2	R1328E
1893.969	0.001	1894060	WAITING_END	n/a	n/a	n/a	n/a	-999	17	[0, 0, 0]	n/a	catFR1	2	R1328E
1893.97	10.0	1894061	COUNTDOWN_START	n/a	n/a	n/a	n/a	-999	17	[0, 0, 0]	n/a	catFR1	2	R1328E
1904.398	0.001	1904488	COUNTDOWN_END	n/a	n/a	n/a	n/a	-999	17	[0, 0, 0]	n/a	catFR1	2	R1328E
1904.399	1.022	1904489	ORIENT_START	n/a	n/a	n/a	n/a	-999	17	[0, 0, 0]	n/a	catFR1	2	R1328E
1905.421	0.001	1905511	ORIENT_END	n/a	n/a	n/a	n/a	-999	17	[0, 0, 0]	n/a	catFR1	2	R1328E
1905.422	1.001	1905512	ENCODING_START	n/a	n/a	n/a	n/a	-999	17	[0, 0, 0]	n/a	catFR1	2	R1328E
1906.423	1.6	1906513	WORD	n/a	wordpools/wordpool_categorized_EN.txt	LOBSTER	OceanAnimals	1	17	[0, 0, 0]	n/a	catFR1	2	R1328E
1908.055	1.045	1908145	WORD_OFF	n/a	n/a	LOBSTER	OceanAnimals	1	17	[0, 0, 0]	n/a	catFR1	2	R1328E
1909.1	1.6	1909190	WORD	n/a	wordpools/wordpool_categorized_EN.txt	DOLPHIN	OceanAnimals	2	17	[0, 0, 0]	n/a	catFR1	2	R1328E
1910.722	1.046	1910812	WORD_OFF	n/a	n/a	DOLPHIN	OceanAnimals	2	17	[0, 0, 0]	n/a	catFR1	2	R1328E
1911.768	1.6	1911858	WORD	n/a	wordpools/wordpool_categorized_EN.txt	CEDAR	Trees	3	17	[0, 0, 0]	n/a	catFR1	2	R1328E
1913.39	0.855	1913480	WORD_OFF	n/a	n/a	CEDAR	Trees	3	17	[0, 0, 0]	n/a	catFR1	2	R1328E
1914.245	1.6	1914335	WORD	n/a	wordpools/wordpool_categorized_EN.txt	MAPLE	Trees	4	17	[0, 0, 0]	n/a	catFR1	2	R1328E
1915.873	0.936	1915963	WORD_OFF	n/a	n/a	MAPLE	Trees	4	17	[0, 0, 0]	n/a	catFR1	2	R1328E
1916.809	1.6	1916899	WORD	n/a	wordpools/wordpool_categorized_EN.txt	HUMIDITY	Weather	5	17	[0, 0, 0]	n/a	catFR1	2	R1328E
1918.44	0.867	1918530	WORD_OFF	n/a	n/a	HUMIDITY	Weather	5	17	[0, 0, 0]	n/a	catFR1	2	R1328E
1919.307	1.6	1919397	WORD	n/a	wordpools/wordpool_categorized_EN.txt	FOG	Weather	6	17	[0, 0, 0]	n/a	catFR1	2	R1328E
1920.94	0.828	1921030	WORD_OFF	n/a	n/a	FOG	Weather	6	17	[0, 0, 0]	n/a	catFR1	2	R1328E
1921.768	1.6	1921858	WORD	n/a	wordpools/wordpool_categorized_EN.txt	WHALE	OceanAnimals	7	17	[0, 0, 0]	n/a	catFR1	2	R1328E
1923.392	1.084	1923482	WORD_OFF	n/a	n/a	WHALE	OceanAnimals	7	17	[0, 0, 0]	n/a	catFR1	2	R1328E
1924.476	1.6	1924566	WORD	n/a	wordpools/wordpool_categorized_EN.txt	PLANKTON	OceanAnimals	8	17	[0, 0, 0]	n/a	catFR1	2	R1328E
1926.108	0.909	1926198	WORD_OFF	n/a	n/a	PLANKTON	OceanAnimals	8	17	[0, 0, 0]	n/a	catFR1	2	R1328E
1927.017	1.6	1927106	WORD	n/a	wordpools/wordpool_categorized_EN.txt	SNOW	Weather	9	17	[0, 0, 0]	n/a	catFR1	2	R1328E
1928.642	1.09	1928731	WORD_OFF	n/a	n/a	SNOW	Weather	9	17	[0, 0, 0]	n/a	catFR1	2	R1328E
1929.732	1.6	1929821	WORD	n/a	wordpools/wordpool_categorized_EN.txt	DRIZZLE	Weather	10	17	[0, 0, 0]	n/a	catFR1	2	R1328E
1931.36	0.95	1931449	WORD_OFF	n/a	n/a	DRIZZLE	Weather	10	17	[0, 0, 0]	n/a	catFR1	2	R1328E
1932.31	1.6	1932399	WORD	n/a	wordpools/wordpool_categorized_EN.txt	HICKORY	Trees	11	17	[0, 0, 0]	n/a	catFR1	2	R1328E
1933.943	1.079	1934032	WORD_OFF	n/a	n/a	HICKORY	Trees	11	17	[0, 0, 0]	n/a	catFR1	2	R1328E
1935.022	1.6	1935111	WORD	n/a	wordpools/wordpool_categorized_EN.txt	CYPRESS	Trees	12	17	[0, 0, 0]	n/a	catFR1	2	R1328E
1936.643	0.001	1936732	WORD_OFF	n/a	n/a	CYPRESS	Trees	12	17	[0, 0, 0]	n/a	catFR1	2	R1328E
1936.644	0.0	1936733	ENCODING_END	n/a	n/a	n/a	n/a	-999	17	[0, 0, 0]	n/a	catFR1	2	R1328E
1936.644	0.0	1936733	DISTRACT_START	n/a	n/a	n/a	n/a	-999	17	[0, 0, 0]	n/a	catFR1	2	R1328E
1936.644	0.016	1936733	START	n/a	n/a	n/a	n/a	-999	17	[-999, -999, -999]	n/a	catFR1	2	R1328E
1936.66	7.418	1936749	PROB	7.39	n/a	n/a	n/a	-999	17	[1, 9, 4]	14.0	catFR1	2	R1328E
1944.078	11.735	1944167	PROB	11.708	n/a	n/a	n/a	-999	17	[6, 9, 8]	23.0	catFR1	2	R1328E
1955.813	11.451	1955901	PROB	11.451	n/a	n/a	n/a	-999	17	[9, 7, 7]	23.0	catFR1	2	R1328E
1967.264	0.018	1967352	STOP	n/a	n/a	n/a	n/a	-999	17	[-999, -999, -999]	n/a	catFR1	2	R1328E
1967.282	0.54	1967370	DISTRACT_END	n/a	n/a	n/a	n/a	-999	17	[0, 0, 0]	n/a	catFR1	2	R1328E
1967.822	1.6	1967910	RETRIEVAL_ORIENT_START	n/a	n/a	n/a	n/a	-999	17	[0, 0, 0]	n/a	catFR1	2	R1328E
1969.516	0.0	1969604	RETRIEVAL_ORIENT_END	n/a	n/a	n/a	n/a	-999	17	[0, 0, 0]	n/a	catFR1	2	R1328E
1969.516	29.988	1969604	REC_START	n/a	n/a	n/a	n/a	-999	17	[0, 0, 0]	n/a	catFR1	2	R1328E
1999.504	0.023	1999591	REC_WORD_VV	29.988	n/a	<>	n/a	-999	17	[0, 0, 0]	n/a	catFR1	2	R1328E
1999.527	0.0	1999614	TRIAL_END	n/a	n/a	n/a	n/a	-999	17	[0, 0, 0]	n/a	catFR1	2	R1328E
1999.527	0.026	1999614	REC_END	n/a	n/a	n/a	n/a	-999	17	[0, 0, 0]	n/a	catFR1	2	R1328E
1999.553	0.0	1999640	TRIAL_START	n/a	n/a	n/a	n/a	-999	18	[0, 0, 0]	n/a	catFR1	2	R1328E
1999.553	0.001	1999640	TRIAL	n/a	n/a	n/a	n/a	-999	18	[0, 0, 0]	n/a	catFR1	2	R1328E
1999.554	6.102	1999641	WAITING_START	n/a	n/a	n/a	n/a	-999	18	[0, 0, 0]	n/a	catFR1	2	R1328E
2005.656	0.0	2005743	WAITING_END	n/a	n/a	n/a	n/a	-999	18	[0, 0, 0]	n/a	catFR1	2	R1328E
2005.656	10.0	2005743	COUNTDOWN_START	n/a	n/a	n/a	n/a	-999	18	[0, 0, 0]	n/a	catFR1	2	R1328E
2016.085	0.0	2016171	COUNTDOWN_END	n/a	n/a	n/a	n/a	-999	18	[0, 0, 0]	n/a	catFR1	2	R1328E
2016.085	1.089	2016171	ORIENT_START	n/a	n/a	n/a	n/a	-999	18	[0, 0, 0]	n/a	catFR1	2	R1328E
2017.174	0.0	2017260	ENCODING_START	n/a	n/a	n/a	n/a	-999	18	[0, 0, 0]	n/a	catFR1	2	R1328E
2017.174	1.063	2017260	ORIENT_END	n/a	n/a	n/a	n/a	-999	18	[0, 0, 0]	n/a	catFR1	2	R1328E
2018.237	1.6	2018323	WORD	n/a	wordpools/wordpool_categorized_EN.txt	DUCK	Birds	1	18	[0, 0, 0]	n/a	catFR1	2	R1328E
2019.875	1.123	2019961	WORD_OFF	n/a	n/a	DUCK	Birds	1	18	[0, 0, 0]	n/a	catFR1	2	R1328E
2020.998	1.6	2021084	WORD	n/a	wordpools/wordpool_categorized_EN.txt	SPARROW	Birds	2	18	[0, 0, 0]	n/a	catFR1	2	R1328E
2022.625	0.978	2022711	WORD_OFF	n/a	n/a	SPARROW	Birds	2	18	[0, 0, 0]	n/a	catFR1	2	R1328E
2023.603	1.6	2023689	WORD	n/a	wordpools/wordpool_categorized_EN.txt	COBBLER	Desserts	3	18	[0, 0, 0]	n/a	catFR1	2	R1328E
2025.226	0.766	2025312	WORD_OFF	n/a	n/a	COBBLER	Desserts	3	18	[0, 0, 0]	n/a	catFR1	2	R1328E
2025.992	1.6	2026078	WORD	n/a	wordpools/wordpool_categorized_EN.txt	PUDDING	Desserts	4	18	[0, 0, 0]	n/a	catFR1	2	R1328E
2027.626	0.953	2027712	WORD_OFF	n/a	n/a	PUDDING	Desserts	4	18	[0, 0, 0]	n/a	catFR1	2	R1328E
2028.579	1.6	2028665	WORD	n/a	wordpools/wordpool_categorized_EN.txt	CABBAGE	Vegetables	5	18	[0, 0, 0]	n/a	catFR1	2	R1328E
2030.21	1.104	2030296	WORD_OFF	n/a	n/a	CABBAGE	Vegetables	5	18	[0, 0, 0]	n/a	catFR1	2	R1328E
2031.314	1.6	2031400	WORD	n/a	wordpools/wordpool_categorized_EN.txt	CUCUMBER	Vegetables	6	18	[0, 0, 0]	n/a	catFR1	2	R1328E
2032.944	1.141	2033030	WORD_OFF	n/a	n/a	CUCUMBER	Vegetables	6	18	[0, 0, 0]	n/a	catFR1	2	R1328E
2034.085	1.6	2034171	WORD	n/a	wordpools/wordpool_categorized_EN.txt	CARDINAL	Birds	7	18	[0, 0, 0]	n/a	catFR1	2	R1328E
2035.711	0.78	2035797	WORD_OFF	n/a	n/a	CARDINAL	Birds	7	18	[0, 0, 0]	n/a	catFR1	2	R1328E
2036.491	1.6	2036577	WORD	n/a	wordpools/wordpool_categorized_EN.txt	DOVE	Birds	8	18	[0, 0, 0]	n/a	catFR1	2	R1328E
2038.128	0.919	2038213	WORD_OFF	n/a	n/a	DOVE	Birds	8	18	[0, 0, 0]	n/a	catFR1	2	R1328E
2039.047	1.6	2039132	WORD	n/a	wordpools/wordpool_categorized_EN.txt	CAKE	Desserts	9	18	[0, 0, 0]	n/a	catFR1	2	R1328E
2040.678	0.862	2040763	WORD_OFF	n/a	n/a	CAKE	Desserts	9	18	[0, 0, 0]	n/a	catFR1	2	R1328E
2041.54	1.6	2041625	WORD	n/a	wordpools/wordpool_categorized_EN.txt	JELLO	Desserts	10	18	[0, 0, 0]	n/a	catFR1	2	R1328E
2043.162	0.985	2043247	WORD_OFF	n/a	n/a	JELLO	Desserts	10	18	[0, 0, 0]	n/a	catFR1	2	R1328E
2044.147	1.6	2044232	WORD	n/a	wordpools/wordpool_categorized_EN.txt	CELERY	Vegetables	11	18	[0, 0, 0]	n/a	catFR1	2	R1328E
2045.779	1.122	2045864	WORD_OFF	n/a	n/a	CELERY	Vegetables	11	18	[0, 0, 0]	n/a	catFR1	2	R1328E
2046.901	1.6	2046986	WORD	n/a	wordpools/wordpool_categorized_EN.txt	PEAS	Vegetables	12	18	[0, 0, 0]	n/a	catFR1	2	R1328E
2048.53	0.0	2048615	WORD_OFF	n/a	n/a	PEAS	Vegetables	12	18	[0, 0, 0]	n/a	catFR1	2	R1328E
2048.53	0.0	2048615	ENCODING_END	n/a	n/a	n/a	n/a	-999	18	[0, 0, 0]	n/a	catFR1	2	R1328E
2048.53	0.0	2048615	DISTRACT_START	n/a	n/a	n/a	n/a	-999	18	[0, 0, 0]	n/a	catFR1	2	R1328E
2048.53	0.016	2048615	START	n/a	n/a	n/a	n/a	-999	18	[-999, -999, -999]	n/a	catFR1	2	R1328E
2048.546	7.001	2048631	PROB	6.975	n/a	n/a	n/a	-999	18	[2, 6, 2]	10.0	catFR1	2	R1328E
2055.547	7.718	2055632	PROB	7.692	n/a	n/a	n/a	-999	18	[9, 3, 7]	19.0	catFR1	2	R1328E
2063.265	10.333	2063350	PROB	10.333	n/a	n/a	n/a	-999	18	[3, 1, 7]	11.0	catFR1	2	R1328E
2073.598	0.019	2073682	STOP	n/a	n/a	n/a	n/a	-999	18	[-999, -999, -999]	n/a	catFR1	2	R1328E
2073.617	0.656	2073701	DISTRACT_END	n/a	n/a	n/a	n/a	-999	18	[0, 0, 0]	n/a	catFR1	2	R1328E
2074.273	1.6	2074357	RETRIEVAL_ORIENT_START	n/a	n/a	n/a	n/a	-999	18	[0, 0, 0]	n/a	catFR1	2	R1328E
2075.968	0.0	2076052	RETRIEVAL_ORIENT_END	n/a	n/a	n/a	n/a	-999	18	[0, 0, 0]	n/a	catFR1	2	R1328E
2075.968	6.645	2076052	REC_START	n/a	n/a	n/a	n/a	-999	18	[0, 0, 0]	n/a	catFR1	2	R1328E
2082.613	0.62	2082697	REC_WORD	6.645	n/a	PUDDING	Desserts	4	18	[0, 0, 0]	n/a	catFR1	2	R1328E
2083.233	2.924	2083317	REC_WORD	7.265	n/a	PASTRY	Desserts	-999	18	[0, 0, 0]	n/a	catFR1	2	R1328E
2086.157	7.558	2086241	REC_WORD	10.189	n/a	CELERY	Vegetables	11	18	[0, 0, 0]	n/a	catFR1	2	R1328E
2093.715	9.247	2093798	REC_WORD	17.747	n/a	JELLO	Desserts	10	18	[0, 0, 0]	n/a	catFR1	2	R1328E
2102.962	3.018	2103045	REC_WORD	26.994	n/a	CAKE	Desserts	9	18	[0, 0, 0]	n/a	catFR1	2	R1328E
2105.98	0.0	2106063	REC_END	n/a	n/a	n/a	n/a	-999	18	[0, 0, 0]	n/a	catFR1	2	R1328E
2105.98	0.026	2106063	TRIAL_END	n/a	n/a	n/a	n/a	-999	18	[0, 0, 0]	n/a	catFR1	2	R1328E
2106.006	0.0	2106089	TRIAL_START	n/a	n/a	n/a	n/a	-999	19	[0, 0, 0]	n/a	catFR1	2	R1328E
2106.006	0.001	2106089	TRIAL	n/a	n/a	n/a	n/a	-999	19	[0, 0, 0]	n/a	catFR1	2	R1328E
2106.007	4.667	2106090	WAITING_START	n/a	n/a	n/a	n/a	-999	19	[0, 0, 0]	n/a	catFR1	2	R1328E
2110.674	0.0	2110757	WAITING_END	n/a	n/a	n/a	n/a	-999	19	[0, 0, 0]	n/a	catFR1	2	R1328E
2110.674	10.0	2110757	COUNTDOWN_START	n/a	n/a	n/a	n/a	-999	19	[0, 0, 0]	n/a	catFR1	2	R1328E
2121.103	0.001	2121185	COUNTDOWN_END	n/a	n/a	n/a	n/a	-999	19	[0, 0, 0]	n/a	catFR1	2	R1328E
2121.104	1.122	2121186	ORIENT_START	n/a	n/a	n/a	n/a	-999	19	[0, 0, 0]	n/a	catFR1	2	R1328E
2122.226	0.0	2122308	ENCODING_START	n/a	n/a	n/a	n/a	-999	19	[0, 0, 0]	n/a	catFR1	2	R1328E
2122.226	1.03	2122308	ORIENT_END	n/a	n/a	n/a	n/a	-999	19	[0, 0, 0]	n/a	catFR1	2	R1328E
2123.256	1.6	2123338	WORD	n/a	wordpools/wordpool_categorized_EN.txt	WINE	Beverages	1	19	[0, 0, 0]	n/a	catFR1	2	R1328E
2124.893	0.753	2124975	WORD_OFF	n/a	n/a	WINE	Beverages	1	19	[0, 0, 0]	n/a	catFR1	2	R1328E
2125.646	1.6	2125728	WORD	n/a	wordpools/wordpool_categorized_EN.txt	WATER	Beverages	2	19	[0, 0, 0]	n/a	catFR1	2	R1328E
2127.277	1.019	2127359	WORD_OFF	n/a	n/a	WATER	Beverages	2	19	[0, 0, 0]	n/a	catFR1	2	R1328E
2128.296	1.6	2128378	WORD	n/a	wordpools/wordpool_categorized_EN.txt	ROOSTER	FarmAnimals	3	19	[0, 0, 0]	n/a	catFR1	2	R1328E
2129.927	0.961	2130009	WORD_OFF	n/a	n/a	ROOSTER	FarmAnimals	3	19	[0, 0, 0]	n/a	catFR1	2	R1328E
2130.888	1.6	2130970	WORD	n/a	wordpools/wordpool_categorized_EN.txt	CHICKEN	FarmAnimals	4	19	[0, 0, 0]	n/a	catFR1	2	R1328E
2132.511	1.102	2132593	WORD_OFF	n/a	n/a	CHICKEN	FarmAnimals	4	19	[0, 0, 0]	n/a	catFR1	2	R1328E
2133.613	1.6	2133695	WORD	n/a	wordpools/wordpool_categorized_EN.txt	STREAM	Landscapes	5	19	[0, 0, 0]	n/a	catFR1	2	R1328E
2135.245	0.939	2135327	WORD_OFF	n/a	n/a	STREAM	Landscapes	5	19	[0, 0, 0]	n/a	catFR1	2	R1328E
2136.184	1.6	2136266	WORD	n/a	wordpools/wordpool_categorized_EN.txt	LAKE	Landscapes	6	19	[0, 0, 0]	n/a	catFR1	2	R1328E
2137.812	0.782	2137894	WORD_OFF	n/a	n/a	LAKE	Landscapes	6	19	[0, 0, 0]	n/a	catFR1	2	R1328E
2138.594	1.6	2138676	WORD	n/a	wordpools/wordpool_categorized_EN.txt	MILK	Beverages	7	19	[0, 0, 0]	n/a	catFR1	2	R1328E
2140.229	0.803	2140311	WORD_OFF	n/a	n/a	MILK	Beverages	7	19	[0, 0, 0]	n/a	catFR1	2	R1328E
2141.032	1.6	2141114	WORD	n/a	wordpools/wordpool_categorized_EN.txt	COLA	Beverages	8	19	[0, 0, 0]	n/a	catFR1	2	R1328E
2142.663	0.907	2142745	WORD_OFF	n/a	n/a	COLA	Beverages	8	19	[0, 0, 0]	n/a	catFR1	2	R1328E
2143.57	1.6	2143652	WORD	n/a	wordpools/wordpool_categorized_EN.txt	FOREST	Landscapes	9	19	[0, 0, 0]	n/a	catFR1	2	R1328E
2145.197	1.059	2145279	WORD_OFF	n/a	n/a	FOREST	Landscapes	9	19	[0, 0, 0]	n/a	catFR1	2	R1328E
2146.256	1.6	2146338	WORD	n/a	wordpools/wordpool_categorized_EN.txt	WOODS	Landscapes	10	19	[0, 0, 0]	n/a	catFR1	2	R1328E
2147.88	1.082	2147962	WORD_OFF	n/a	n/a	WOODS	Landscapes	10	19	[0, 0, 0]	n/a	catFR1	2	R1328E
2148.962	1.6	2149043	WORD	n/a	wordpools/wordpool_categorized_EN.txt	HORSE	FarmAnimals	11	19	[0, 0, 0]	n/a	catFR1	2	R1328E
2150.598	1.059	2150679	WORD_OFF	n/a	n/a	HORSE	FarmAnimals	11	19	[0, 0, 0]	n/a	catFR1	2	R1328E
2151.657	1.6	2151738	WORD	n/a	wordpools/wordpool_categorized_EN.txt	LAMB	FarmAnimals	12	19	[0, 0, 0]	n/a	catFR1	2	R1328E
2153.281	0.001	2153362	WORD_OFF	n/a	n/a	LAMB	FarmAnimals	12	19	[0, 0, 0]	n/a	catFR1	2	R1328E
2153.282	0.0	2153363	ENCODING_END	n/a	n/a	n/a	n/a	-999	19	[0, 0, 0]	n/a	catFR1	2	R1328E
2153.282	0.0	2153363	DISTRACT_START	n/a	n/a	n/a	n/a	-999	19	[0, 0, 0]	n/a	catFR1	2	R1328E
2153.282	0.017	2153363	START	n/a	n/a	n/a	n/a	-999	19	[-999, -999, -999]	n/a	catFR1	2	R1328E
2153.299	5.9	2153380	PROB	5.877	n/a	n/a	n/a	-999	19	[9, 9, 4]	22.0	catFR1	2	R1328E
2159.199	14.348	2159280	PROB	14.348	n/a	n/a	n/a	-999	19	[9, 4, 6]	19.0	catFR1	2	R1328E
2173.547	0.021	2173628	STOP	n/a	n/a	n/a	n/a	-999	19	[-999, -999, -999]	n/a	catFR1	2	R1328E
2173.568	0.602	2173649	DISTRACT_END	n/a	n/a	n/a	n/a	-999	19	[0, 0, 0]	n/a	catFR1	2	R1328E
2174.17	1.6	2174251	RETRIEVAL_ORIENT_START	n/a	n/a	n/a	n/a	-999	19	[0, 0, 0]	n/a	catFR1	2	R1328E
2175.869	0.0	2175950	RETRIEVAL_ORIENT_END	n/a	n/a	n/a	n/a	-999	19	[0, 0, 0]	n/a	catFR1	2	R1328E
2175.869	1.985	2175950	REC_START	n/a	n/a	n/a	n/a	-999	19	[0, 0, 0]	n/a	catFR1	2	R1328E
2177.854	1.044	2177934	REC_WORD	1.985	n/a	WOODS	Landscapes	10	19	[0, 0, 0]	n/a	catFR1	2	R1328E
2178.898	12.014	2178978	REC_WORD	3.029	n/a	HORSE	FarmAnimals	11	19	[0, 0, 0]	n/a	catFR1	2	R1328E
2190.912	1.71	2190992	REC_WORD	15.043	n/a	STREAM	Landscapes	5	19	[0, 0, 0]	n/a	catFR1	2	R1328E
2192.622	13.258	2192702	REC_WORD	16.753	n/a	LAKE	Landscapes	6	19	[0, 0, 0]	n/a	catFR1	2	R1328E
2205.88	0.0	2205959	REC_END	n/a	n/a	n/a	n/a	-999	19	[0, 0, 0]	n/a	catFR1	2	R1328E
2205.88	0.025	2205959	TRIAL_END	n/a	n/a	n/a	n/a	-999	19	[0, 0, 0]	n/a	catFR1	2	R1328E
2205.905	0.001	2205984	TRIAL_START	n/a	n/a	n/a	n/a	-999	20	[0, 0, 0]	n/a	catFR1	2	R1328E
2205.906	0.0	2205985	TRIAL	n/a	n/a	n/a	n/a	-999	20	[0, 0, 0]	n/a	catFR1	2	R1328E
2205.906	5.519	2205985	WAITING_START	n/a	n/a	n/a	n/a	-999	20	[0, 0, 0]	n/a	catFR1	2	R1328E
2211.425	0.0	2211504	WAITING_END	n/a	n/a	n/a	n/a	-999	20	[0, 0, 0]	n/a	catFR1	2	R1328E
2211.425	10.0	2211504	COUNTDOWN_START	n/a	n/a	n/a	n/a	-999	20	[0, 0, 0]	n/a	catFR1	2	R1328E
2221.854	0.0	2221933	COUNTDOWN_END	n/a	n/a	n/a	n/a	-999	20	[0, 0, 0]	n/a	catFR1	2	R1328E
2221.854	1.04	2221933	ORIENT_START	n/a	n/a	n/a	n/a	-999	20	[0, 0, 0]	n/a	catFR1	2	R1328E
2222.894	0.0	2222973	ORIENT_END	n/a	n/a	n/a	n/a	-999	20	[0, 0, 0]	n/a	catFR1	2	R1328E
2222.894	1.118	2222973	ENCODING_START	n/a	n/a	n/a	n/a	-999	20	[0, 0, 0]	n/a	catFR1	2	R1328E
2224.012	1.6	2224091	WORD	n/a	wordpools/wordpool_categorized_EN.txt	WASHER	Appliances	1	20	[0, 0, 0]	n/a	catFR1	2	R1328E
2225.644	1.084	2225723	WORD_OFF	n/a	n/a	WASHER	Appliances	1	20	[0, 0, 0]	n/a	catFR1	2	R1328E
2226.728	1.6	2226807	WORD	n/a	wordpools/wordpool_categorized_EN.txt	OVEN	Appliances	2	20	[0, 0, 0]	n/a	catFR1	2	R1328E
2228.346	0.889	2228425	WORD_OFF	n/a	n/a	OVEN	Appliances	2	20	[0, 0, 0]	n/a	catFR1	2	R1328E
2229.235	1.6	2229314	WORD	n/a	wordpools/wordpool_categorized_EN.txt	SODA	Beverages	3	20	[0, 0, 0]	n/a	catFR1	2	R1328E
2230.862	1.075	2230941	WORD_OFF	n/a	n/a	SODA	Beverages	3	20	[0, 0, 0]	n/a	catFR1	2	R1328E
2231.937	1.6	2232015	WORD	n/a	wordpools/wordpool_categorized_EN.txt	LEMONADE	Beverages	4	20	[0, 0, 0]	n/a	catFR1	2	R1328E
2233.562	1.022	2233640	WORD_OFF	n/a	n/a	LEMONADE	Beverages	4	20	[0, 0, 0]	n/a	catFR1	2	R1328E
2234.584	1.6	2234662	WORD	n/a	wordpools/wordpool_categorized_EN.txt	TURKEY	FarmAnimals	5	20	[0, 0, 0]	n/a	catFR1	2	R1328E
2236.213	0.82	2236291	WORD_OFF	n/a	n/a	TURKEY	FarmAnimals	5	20	[0, 0, 0]	n/a	catFR1	2	R1328E
2237.033	1.6	2237111	WORD	n/a	wordpools/wordpool_categorized_EN.txt	CALF	FarmAnimals	6	20	[0, 0, 0]	n/a	catFR1	2	R1328E
2238.663	0.754	2238741	WORD_OFF	n/a	n/a	CALF	FarmAnimals	6	20	[0, 0, 0]	n/a	catFR1	2	R1328E
2239.417	1.6	2239495	WORD	n/a	wordpools/wordpool_categorized_EN.txt	MIXER	Appliances	7	20	[0, 0, 0]	n/a	catFR1	2	R1328E
2241.047	0.965	2241125	WORD_OFF	n/a	n/a	MIXER	Appliances	7	20	[0, 0, 0]	n/a	catFR1	2	R1328E
2242.012	1.6	2242090	WORD	n/a	wordpools/wordpool_categorized_EN.txt	STOVE	Appliances	8	20	[0, 0, 0]	n/a	catFR1	2	R1328E
2243.647	0.882	2243725	WORD_OFF	n/a	n/a	STOVE	Appliances	8	20	[0, 0, 0]	n/a	catFR1	2	R1328E
2244.529	1.6	2244607	WORD	n/a	wordpools/wordpool_categorized_EN.txt	HEN	FarmAnimals	9	20	[0, 0, 0]	n/a	catFR1	2	R1328E
2246.164	1.132	2246242	WORD_OFF	n/a	n/a	HEN	FarmAnimals	9	20	[0, 0, 0]	n/a	catFR1	2	R1328E
2247.296	1.6	2247374	WORD	n/a	wordpools/wordpool_categorized_EN.txt	SHEEP	FarmAnimals	10	20	[0, 0, 0]	n/a	catFR1	2	R1328E
2248.932	0.826	2249010	WORD_OFF	n/a	n/a	SHEEP	FarmAnimals	10	20	[0, 0, 0]	n/a	catFR1	2	R1328E
2249.758	1.6	2249836	WORD	n/a	wordpools/wordpool_categorized_EN.txt	TEA	Beverages	11	20	[0, 0, 0]	n/a	catFR1	2	R1328E
2251.366	1.085	2251444	WORD_OFF	n/a	n/a	TEA	Beverages	11	20	[0, 0, 0]	n/a	catFR1	2	R1328E
2252.451	1.6	2252529	WORD	n/a	wordpools/wordpool_categorized_EN.txt	COFFEE	Beverages	12	20	[0, 0, 0]	n/a	catFR1	2	R1328E
2254.082	0.001	2254160	WORD_OFF	n/a	n/a	COFFEE	Beverages	12	20	[0, 0, 0]	n/a	catFR1	2	R1328E
2254.083	0.0	2254161	ENCODING_END	n/a	n/a	n/a	n/a	-999	20	[0, 0, 0]	n/a	catFR1	2	R1328E
2254.083	0.0	2254161	DISTRACT_START	n/a	n/a	n/a	n/a	-999	20	[0, 0, 0]	n/a	catFR1	2	R1328E
2254.083	0.016	2254161	START	n/a	n/a	n/a	n/a	-999	20	[-999, -999, -999]	n/a	catFR1	2	R1328E
2254.099	18.254	2254177	PROB	18.232	n/a	n/a	n/a	-999	20	[1, 6, 3]	10.0	catFR1	2	R1328E
2272.353	5.589	2272430	PROB	5.589	n/a	n/a	n/a	-999	20	[4, 6, 5]	15.0	catFR1	2	R1328E
2277.942	0.011	2278019	STOP	n/a	n/a	n/a	n/a	-999	20	[-999, -999, -999]	n/a	catFR1	2	R1328E
2277.953	0.635	2278030	DISTRACT_END	n/a	n/a	n/a	n/a	-999	20	[0, 0, 0]	n/a	catFR1	2	R1328E
2278.588	1.6	2278665	RETRIEVAL_ORIENT_START	n/a	n/a	n/a	n/a	-999	20	[0, 0, 0]	n/a	catFR1	2	R1328E
2280.137	0.0	2280214	REC_START	n/a	n/a	n/a	n/a	-999	20	[0, 0, 0]	n/a	catFR1	2	R1328E
2280.137	0.485	2280214	RETRIEVAL_ORIENT_END	n/a	n/a	n/a	n/a	-999	20	[0, 0, 0]	n/a	catFR1	2	R1328E
2280.622	1.478	2280699	REC_WORD	0.485	n/a	STOVE	Appliances	8	20	[0, 0, 0]	n/a	catFR1	2	R1328E
2282.1	9.83	2282177	REC_WORD	1.963	n/a	OVEN	Appliances	2	20	[0, 0, 0]	n/a	catFR1	2	R1328E
2291.93	6.235	2292006	REC_WORD	11.793	n/a	MIXER	Appliances	7	20	[0, 0, 0]	n/a	catFR1	2	R1328E
2298.165	1.199	2298241	REC_WORD	18.028	n/a	COFFEE	Beverages	12	20	[0, 0, 0]	n/a	catFR1	2	R1328E
2299.364	10.784	2299440	REC_WORD	19.227	n/a	TEA	Beverages	11	20	[0, 0, 0]	n/a	catFR1	2	R1328E
