onset	duration	sample	trial_type	response_time	stim_file	item_name	category	serialpos	list	test	answer	experiment	session	subject
0.0	4.517	-1	PROB	4.517	n/a	n/a	n/a	-999	7	[7, 7, 2]	16	catFR1	1	R1500T
4.517	3.701	-1	PROB	3.701	n/a	n/a	n/a	-999	7	[5, 7, 1]	13	catFR1	1	R1500T
8.218	5.633	-1	PROB	5.633	n/a	n/a	n/a	-999	7	[4, 8, 7]	19	catFR1	1	R1500T
13.851	4.549	-1	PROB	4.549	n/a	n/a	n/a	-999	7	[1, 3, 2]	6	catFR1	1	R1500T
18.4	15296.002	-1	STOP	n/a	n/a	n/a	n/a	-999	7	[-999, -999, -999]	n/a	catFR1	1	R1500T
15314.402	0.0	4352	COUNTDOWN_START	n/a	n/a	n/a	n/a	-999	7	[0, 0, 0]	n/a	catFR1	1	R1500T
-1250.114	16574.865	6124	INSTRUCT_START	n/a	n/a	n/a	n/a	-999	-999	[0, 0, 0]	n/a	catFR1	1	R1500T
15324.751	0.002	14697	COUNTDOWN_END	n/a	n/a	n/a	n/a	-999	7	[0, 0, 0]	n/a	catFR1	1	R1500T
15324.753	1.847	14697	ENCODING_START	n/a	n/a	n/a	n/a	-999	8	[0, 0, 0]	n/a	catFR1	1	R1500T
15326.6	1.6	16540	WORD	n/a	wordpools/wordpool_categorized_EN.txt	GUITAR	Instruments	1	8	[0, 0, 0]	n/a	catFR1	1	R1500T
15328.2	0.867	18149	WORD_OFF	n/a	n/a	GUITAR	Instruments	1	8	[0, 0, 0]	n/a	catFR1	1	R1500T
15329.067	1.6	19009	WORD	n/a	wordpools/wordpool_categorized_EN.txt	TROMBONE	Instruments	2	8	[0, 0, 0]	n/a	catFR1	1	R1500T
15330.667	0.932	20609	WORD_OFF	n/a	n/a	TROMBONE	Instruments	2	8	[0, 0, 0]	n/a	catFR1	1	R1500T
15331.599	0.0	21540	WORD	n/a	wordpools/wordpool_categorized_EN.txt	FRISBEE	Toys	3	8	[0, 0, 0]	n/a	catFR1	1	R1500T
-1234.166	16567.365	22066	INSTRUCT_END	n/a	n/a	n/a	n/a	-999	-999	[0, 0, 0]	n/a	catFR1	1	R1500T
15333.199	0.768	23139	WORD_OFF	n/a	n/a	FRISBEE	Toys	3	8	[0, 0, 0]	n/a	catFR1	1	R1500T
15333.967	1.617	23909	WORD	n/a	wordpools/wordpool_categorized_EN.txt	BALL	Toys	4	8	[0, 0, 0]	n/a	catFR1	1	R1500T
15335.584	0.933	25528	WORD_OFF	n/a	n/a	BALL	Toys	4	8	[0, 0, 0]	n/a	catFR1	1	R1500T
15336.517	1.6	26460	WORD	n/a	wordpools/wordpool_categorized_EN.txt	LADLE	KitchenTools	5	8	[0, 0, 0]	n/a	catFR1	1	R1500T
15338.117	1.0	28059	WORD_OFF	n/a	n/a	LADLE	KitchenTools	5	8	[0, 0, 0]	n/a	catFR1	1	R1500T
15339.117	1.617	29061	WORD	n/a	wordpools/wordpool_categorized_EN.txt	COLANDER	KitchenTools	6	8	[0, 0, 0]	n/a	catFR1	1	R1500T
15340.734	0.933	30681	WORD_OFF	n/a	n/a	COLANDER	KitchenTools	6	8	[0, 0, 0]	n/a	catFR1	1	R1500T
15341.667	1.6	31612	WORD	n/a	wordpools/wordpool_categorized_EN.txt	BASS	Instruments	7	8	[0, 0, 0]	n/a	catFR1	1	R1500T
15343.267	0.917	33211	WORD_OFF	n/a	n/a	BASS	Instruments	7	8	[0, 0, 0]	n/a	catFR1	1	R1500T
15344.184	1.6	34122	WORD	n/a	wordpools/wordpool_categorized_EN.txt	FLUTE	Instruments	8	8	[0, 0, 0]	n/a	catFR1	1	R1500T
15345.784	0.967	35732	WORD_OFF	n/a	n/a	FLUTE	Instruments	8	8	[0, 0, 0]	n/a	catFR1	1	R1500T
15346.751	1.615	36693	WORD	n/a	wordpools/wordpool_categorized_EN.txt	SLINKY	Toys	9	8	[0, 0, 0]	n/a	catFR1	1	R1500T
15348.366	1.001	38313	WORD_OFF	n/a	n/a	SLINKY	Toys	9	8	[0, 0, 0]	n/a	catFR1	1	R1500T
15349.367	1.6	39315	WORD	n/a	wordpools/wordpool_categorized_EN.txt	BARBIE	Toys	10	8	[0, 0, 0]	n/a	catFR1	1	R1500T
15350.967	0.934	40914	WORD_OFF	n/a	n/a	BARBIE	Toys	10	8	[0, 0, 0]	n/a	catFR1	1	R1500T
15351.901	1.615	41846	WORD	n/a	wordpools/wordpool_categorized_EN.txt	PEELER	KitchenTools	11	8	[0, 0, 0]	n/a	catFR1	1	R1500T
15353.516	0.901	43465	WORD_OFF	n/a	n/a	PEELER	KitchenTools	11	8	[0, 0, 0]	n/a	catFR1	1	R1500T
15354.417	1.616	44356	WORD	n/a	wordpools/wordpool_categorized_EN.txt	WHISK	KitchenTools	12	8	[0, 0, 0]	n/a	catFR1	1	R1500T
15356.033	0.002	45976	WORD_OFF	n/a	n/a	WHISK	KitchenTools	12	8	[0, 0, 0]	n/a	catFR1	1	R1500T
15356.035	0.0	45976	ENCODING_END	n/a	n/a	n/a	n/a	-999	8	[0, 0, 0]	n/a	catFR1	1	R1500T
15356.035	0.0	45976	DISTRACT_START	n/a	n/a	n/a	n/a	-999	8	[0, 0, 0]	n/a	catFR1	1	R1500T
15356.035	0.001	45976	START	n/a	n/a	n/a	n/a	-999	8	[-999, -999, -999]	n/a	catFR1	1	R1500T
15356.036	7.431	45977	PROB	7.431	n/a	n/a	n/a	-999	8	[3, 4, 5]	12	catFR1	1	R1500T
15363.467	8.283	53408	PROB	8.283	n/a	n/a	n/a	-999	8	[3, 4, 2]	9	catFR1	1	R1500T
15371.75	7.182	61691	PROB	7.182	n/a	n/a	n/a	-999	8	[5, 8, 7]	20	catFR1	1	R1500T
15378.932	0.0	68872	STOP	n/a	n/a	n/a	n/a	-999	8	[-999, -999, -999]	n/a	catFR1	1	R1500T
15378.932	1.252	68873	DISTRACT_END	n/a	n/a	n/a	n/a	-999	8	[0, 0, 0]	n/a	catFR1	1	R1500T
15380.184	1.846	70128	REC_START	n/a	n/a	n/a	n/a	-999	8	[0, 0, 0]	n/a	catFR1	1	R1500T
15382.03	1.374	71970	REC_WORD_VV	1.374	n/a	<>	n/a	-999	8	[0, 0, 0]	n/a	catFR1	1	R1500T
15383.404	2.188	73344	REC_WORD_VV	2.188	n/a	<>	n/a	-999	8	[0, 0, 0]	n/a	catFR1	1	R1500T
15385.592	25.818	75532	REC_WORD_VV	25.818	n/a	<>	n/a	-999	8	[0, 0, 0]	n/a	catFR1	1	R1500T
15411.41	3.989	101345	REC_END	n/a	n/a	n/a	n/a	-999	8	[0, 0, 0]	n/a	catFR1	1	R1500T
15415.399	10.351	105344	COUNTDOWN_START	n/a	n/a	n/a	n/a	-999	8	[0, 0, 0]	n/a	catFR1	1	R1500T
15425.75	0.0	115689	COUNTDOWN_END	n/a	n/a	n/a	n/a	-999	8	[0, 0, 0]	n/a	catFR1	1	R1500T
15425.75	1.85	115689	ENCODING_START	n/a	n/a	n/a	n/a	-999	9	[0, 0, 0]	n/a	catFR1	1	R1500T
15427.6	1.6	117541	WORD	n/a	wordpools/wordpool_categorized_EN.txt	SOFA	Furniture	1	9	[0, 0, 0]	n/a	catFR1	1	R1500T
15429.2	1.017	119141	WORD_OFF	n/a	n/a	SOFA	Furniture	1	9	[0, 0, 0]	n/a	catFR1	1	R1500T
15430.217	1.616	120153	WORD	n/a	wordpools/wordpool_categorized_EN.txt	DRESSER	Furniture	2	9	[0, 0, 0]	n/a	catFR1	1	R1500T
15431.833	0.783	121772	WORD_OFF	n/a	n/a	DRESSER	Furniture	2	9	[0, 0, 0]	n/a	catFR1	1	R1500T
15432.616	1.6	122552	WORD	n/a	wordpools/wordpool_categorized_EN.txt	COFFEE	Beverages	3	9	[0, 0, 0]	n/a	catFR1	1	R1500T
15434.216	0.901	124151	WORD_OFF	n/a	n/a	COFFEE	Beverages	3	9	[0, 0, 0]	n/a	catFR1	1	R1500T
15435.117	1.616	125052	WORD	n/a	wordpools/wordpool_categorized_EN.txt	CIDER	Beverages	4	9	[0, 0, 0]	n/a	catFR1	1	R1500T
15436.733	0.767	126672	WORD_OFF	n/a	n/a	CIDER	Beverages	4	9	[0, 0, 0]	n/a	catFR1	1	R1500T
15437.5	1.6	127441	WORD	n/a	wordpools/wordpool_categorized_EN.txt	HICKORY	Trees	5	9	[0, 0, 0]	n/a	catFR1	1	R1500T
15439.1	0.815	129040	WORD_OFF	n/a	n/a	HICKORY	Trees	5	9	[0, 0, 0]	n/a	catFR1	1	R1500T
15439.915	1.603	129850	WORD	n/a	wordpools/wordpool_categorized_EN.txt	EVERGREEN	Trees	6	9	[0, 0, 0]	n/a	catFR1	1	R1500T
15441.518	1.0	131460	WORD_OFF	n/a	n/a	EVERGREEN	Trees	6	9	[0, 0, 0]	n/a	catFR1	1	R1500T
15442.518	1.615	132452	WORD	n/a	wordpools/wordpool_categorized_EN.txt	TABLE	Furniture	7	9	[0, 0, 0]	n/a	catFR1	1	R1500T
15444.133	0.851	134071	WORD_OFF	n/a	n/a	TABLE	Furniture	7	9	[0, 0, 0]	n/a	catFR1	1	R1500T
15444.984	1.6	134922	WORD	n/a	wordpools/wordpool_categorized_EN.txt	BED	Furniture	8	9	[0, 0, 0]	n/a	catFR1	1	R1500T
15446.584	0.817	136521	WORD_OFF	n/a	n/a	BED	Furniture	8	9	[0, 0, 0]	n/a	catFR1	1	R1500T
15447.401	1.616	137341	WORD	n/a	wordpools/wordpool_categorized_EN.txt	CEDAR	Trees	9	9	[0, 0, 0]	n/a	catFR1	1	R1500T
15449.017	0.984	138950	WORD_OFF	n/a	n/a	CEDAR	Trees	9	9	[0, 0, 0]	n/a	catFR1	1	R1500T
15450.001	1.6	139942	WORD	n/a	wordpools/wordpool_categorized_EN.txt	SPRUCE	Trees	10	9	[0, 0, 0]	n/a	catFR1	1	R1500T
15451.601	0.783	141542	WORD_OFF	n/a	n/a	SPRUCE	Trees	10	9	[0, 0, 0]	n/a	catFR1	1	R1500T
15452.384	1.616	142321	WORD	n/a	wordpools/wordpool_categorized_EN.txt	MILK	Beverages	11	9	[0, 0, 0]	n/a	catFR1	1	R1500T
15454.0	0.967	143941	WORD_OFF	n/a	n/a	MILK	Beverages	11	9	[0, 0, 0]	n/a	catFR1	1	R1500T
15454.967	1.616	144902	WORD	n/a	wordpools/wordpool_categorized_EN.txt	TEA	Beverages	12	9	[0, 0, 0]	n/a	catFR1	1	R1500T
15456.583	0.001	146519	PROB	0.001	n/a	n/a	n/a	-999	9	[5, 7, 6]	18	catFR1	1	R1500T
15456.584	0.0	146520	START	n/a	n/a	n/a	n/a	-999	9	[-999, -999, -999]	n/a	catFR1	1	R1500T
15456.583	0.001	146522	WORD_OFF	n/a	n/a	TEA	Beverages	12	9	[0, 0, 0]	n/a	catFR1	1	R1500T
15456.584	0.0	146522	ENCODING_END	n/a	n/a	n/a	n/a	-999	9	[0, 0, 0]	n/a	catFR1	1	R1500T
15456.584	7.983	146522	DISTRACT_START	n/a	n/a	n/a	n/a	-999	9	[0, 0, 0]	n/a	catFR1	1	R1500T
15464.567	6.534	154503	PROB	6.534	n/a	n/a	n/a	-999	9	[7, 2, 5]	14	catFR1	1	R1500T
15471.101	0.0	161036	PROB	0.0	n/a	n/a	n/a	-999	9	[6, 8, 4]	18	catFR1	1	R1500T
-1091.05	16568.184	165178	COUNTDOWN_START	n/a	n/a	n/a	n/a	-999	-999	[0, 0, 0]	n/a	catFR1	1	R1500T
15477.134	0.0	167069	STOP	n/a	n/a	n/a	n/a	-999	9	[-999, -999, -999]	n/a	catFR1	1	R1500T
15477.134	1.399	167070	DISTRACT_END	n/a	n/a	n/a	n/a	-999	9	[0, 0, 0]	n/a	catFR1	1	R1500T
15478.533	0.996	168467	REC_START	n/a	n/a	n/a	n/a	-999	9	[0, 0, 0]	n/a	catFR1	1	R1500T
15479.529	2.044	169464	REC_WORD	2.044	n/a	CEDAR	Trees	9	9	[0, 0, 0]	n/a	catFR1	1	R1500T
15481.573	1.699	171508	REC_WORD_VV	1.699	n/a	<>	n/a	-999	9	[0, 0, 0]	n/a	catFR1	1	R1500T
15483.272	1.0	173207	REC_WORD	1.0	n/a	SPRUCE	Trees	10	9	[0, 0, 0]	n/a	catFR1	1	R1500T
15484.272	0.0	174207	REC_WORD	0.0	n/a	SPRUCE	Trees	10	9	[0, 0, 0]	n/a	catFR1	1	R1500T
-1080.7	0.0	175523	COUNTDOWN_END	n/a	n/a	n/a	n/a	-999	-999	[0, 0, 0]	n/a	catFR1	1	R1500T
-1080.7	16566.8	175533	ENCODING_START	n/a	n/a	n/a	n/a	-999	-1	[0, 0, 0]	n/a	catFR1	1	R1500T
15486.1	0.0	176035	REC_WORD_VV	0.0	n/a	<>	n/a	-999	9	[0, 0, 0]	n/a	catFR1	1	R1500T
-1078.799	1.616	177426	WORD	n/a	n/a	PETUNIA	Flowers	1	-1	[0, 0, 0]	n/a	catFR1	1	R1500T
-1077.183	0.799	179045	WORD_OFF	n/a	n/a	PETUNIA	Flowers	1	-1	[0, 0, 0]	n/a	catFR1	1	R1500T
-1076.384	1.601	179845	WORD	n/a	n/a	TULIP	Flowers	2	-1	[0, 0, 0]	n/a	catFR1	1	R1500T
-1074.783	1.0	181444	WORD_OFF	n/a	n/a	TULIP	Flowers	2	-1	[0, 0, 0]	n/a	catFR1	1	R1500T
-1073.783	1.617	182446	WORD	n/a	n/a	ELEPHANT	Zoo	3	-1	[0, 0, 0]	n/a	catFR1	1	R1500T
-1072.166	0.95	184056	WORD_OFF	n/a	n/a	ELEPHANT	Zoo	3	-1	[0, 0, 0]	n/a	catFR1	1	R1500T
-1071.216	1.615	185007	WORD	n/a	n/a	ORANGUTAN	Zoo	4	-1	[0, 0, 0]	n/a	catFR1	1	R1500T
-1069.601	0.768	186627	WORD_OFF	n/a	n/a	ORANGUTAN	Zoo	4	-1	[0, 0, 0]	n/a	catFR1	1	R1500T
-1068.833	1.616	187396	WORD	n/a	n/a	OCEAN	Landscapes	5	-1	[0, 0, 0]	n/a	catFR1	1	R1500T
-1067.217	0.898	189006	WORD_OFF	n/a	n/a	OCEAN	Landscapes	5	-1	[0, 0, 0]	n/a	catFR1	1	R1500T
-1066.319	1.603	189907	WORD	n/a	n/a	ISLAND	Landscapes	6	-1	[0, 0, 0]	n/a	catFR1	1	R1500T
-1064.716	0.9	191506	WORD_OFF	n/a	n/a	ISLAND	Landscapes	6	-1	[0, 0, 0]	n/a	catFR1	1	R1500T
-1063.816	1.6	192407	WORD	n/a	n/a	ZEBRA	Zoo	7	-1	[0, 0, 0]	n/a	catFR1	1	R1500T
-1062.216	0.799	194006	WORD_OFF	n/a	n/a	ZEBRA	Zoo	7	-1	[0, 0, 0]	n/a	catFR1	1	R1500T
-1061.417	1.601	194806	WORD	n/a	n/a	GIRAFFE	Zoo	8	-1	[0, 0, 0]	n/a	catFR1	1	R1500T
-1059.816	0.765	196415	WORD_OFF	n/a	n/a	GIRAFFE	Zoo	8	-1	[0, 0, 0]	n/a	catFR1	1	R1500T
-1059.051	1.601	197175	WORD	n/a	n/a	CARNATION	Flowers	9	-1	[0, 0, 0]	n/a	catFR1	1	R1500T
-1057.45	0.884	198774	WORD_OFF	n/a	n/a	CARNATION	Flowers	9	-1	[0, 0, 0]	n/a	catFR1	1	R1500T
-1056.566	16566.295	199665	WORD	n/a	n/a	MARIGOLD	Flowers	10	-1	[0, 0, 0]	n/a	catFR1	1	R1500T
15509.729	0.0	199665	REC_END	n/a	n/a	n/a	n/a	-999	9	[0, 0, 0]	n/a	catFR1	1	R1500T
-1054.95	0.784	201274	WORD_OFF	n/a	n/a	MARIGOLD	Flowers	10	-1	[0, 0, 0]	n/a	catFR1	1	R1500T
-1054.166	1.6	202064	WORD	n/a	n/a	STREAM	Landscapes	11	-1	[0, 0, 0]	n/a	catFR1	1	R1500T
-1052.566	16566.35	203663	WORD_OFF	n/a	n/a	STREAM	Landscapes	11	-1	[0, 0, 0]	n/a	catFR1	1	R1500T
15513.784	0.0	203724	COUNTDOWN_START	n/a	n/a	n/a	n/a	-999	9	[0, 0, 0]	n/a	catFR1	1	R1500T
-1051.766	1.616	204463	WORD	n/a	n/a	CREEK	Landscapes	12	-1	[0, 0, 0]	n/a	catFR1	1	R1500T
-1050.15	0.002	206072	WORD_OFF	n/a	n/a	CREEK	Landscapes	12	-1	[0, 0, 0]	n/a	catFR1	1	R1500T
-1050.148	0.0	206078	START	n/a	n/a	n/a	n/a	-999	-1	[-999, -999, -999]	n/a	catFR1	1	R1500T
-1050.148	0.0	206078	PROB	0.0	n/a	n/a	n/a	-999	-1	[6, 3, 1]	10	catFR1	1	R1500T
-1050.148	0.0	206082	ENCODING_END	n/a	n/a	n/a	n/a	-999	-1	[0, 0, 0]	n/a	catFR1	1	R1500T
-1050.148	5.467	206082	DISTRACT_START	n/a	n/a	n/a	n/a	-999	-1	[0, 0, 0]	n/a	catFR1	1	R1500T
-1044.681	16568.814	211545	PROB	16568.814	n/a	n/a	n/a	-999	-1	[2, 7, 4]	11	catFR1	1	R1500T
15524.133	0.0	214069	COUNTDOWN_END	n/a	n/a	n/a	n/a	-999	9	[0, 0, 0]	n/a	catFR1	1	R1500T
15524.133	0.0	214069	ENCODING_START	n/a	n/a	n/a	n/a	-999	10	[0, 0, 0]	n/a	catFR1	1	R1500T
-1039.95	16566.367	216276	PROB	16566.367	n/a	n/a	n/a	-999	-1	[8, 3, 1]	12	catFR1	1	R1500T
15526.417	1.617	216346	WORD	n/a	wordpools/wordpool_categorized_EN.txt	CHICKEN	FarmAnimals	1	10	[0, 0, 0]	n/a	catFR1	1	R1500T
15528.034	0.949	217966	WORD_OFF	n/a	n/a	CHICKEN	FarmAnimals	1	10	[0, 0, 0]	n/a	catFR1	1	R1500T
15528.983	1.601	218918	WORD	n/a	wordpools/wordpool_categorized_EN.txt	GOAT	FarmAnimals	2	10	[0, 0, 0]	n/a	catFR1	1	R1500T
15530.584	0.0	220517	WORD_OFF	n/a	n/a	GOAT	FarmAnimals	2	10	[0, 0, 0]	n/a	catFR1	1	R1500T
-1035.299	16566.649	220927	PROB	16566.649	n/a	n/a	n/a	-999	-1	[3, 2, 3]	8	catFR1	1	R1500T
15531.35	1.617	221286	WORD	n/a	wordpools/wordpool_categorized_EN.txt	RUM	Beverages	3	10	[0, 0, 0]	n/a	catFR1	1	R1500T
15532.967	0.767	222896	WORD_OFF	n/a	n/a	RUM	Beverages	3	10	[0, 0, 0]	n/a	catFR1	1	R1500T
15533.734	1.6	223665	WORD	n/a	wordpools/wordpool_categorized_EN.txt	WATER	Beverages	4	10	[0, 0, 0]	n/a	catFR1	1	R1500T
15535.334	0.783	225264	WORD_OFF	n/a	n/a	WATER	Beverages	4	10	[0, 0, 0]	n/a	catFR1	1	R1500T
15536.117	0.0	226054	WORD	n/a	wordpools/wordpool_categorized_EN.txt	JEANS	Clothing	5	10	[0, 0, 0]	n/a	catFR1	1	R1500T
-1029.999	0.0	226226	DISTRACT_END	n/a	n/a	n/a	n/a	-999	-1	[0, 0, 0]	n/a	catFR1	1	R1500T
-1029.999	1.266	226226	STOP	n/a	n/a	n/a	n/a	-999	-1	[-999, -999, -999]	n/a	catFR1	1	R1500T
-1028.733	16566.466	227491	REC_START	n/a	n/a	n/a	n/a	-999	-1	[0, 0, 0]	n/a	catFR1	1	R1500T
15537.733	0.767	227663	WORD_OFF	n/a	n/a	JEANS	Clothing	5	10	[0, 0, 0]	n/a	catFR1	1	R1500T
15538.5	0.0	228433	WORD	n/a	wordpools/wordpool_categorized_EN.txt	SHORTS	Clothing	6	10	[0, 0, 0]	n/a	catFR1	1	R1500T
-1026.765	16566.865	229460	REC_WORD_VV	16566.865	n/a	<>	n/a	-999	-1	[0, 0, 0]	n/a	catFR1	1	R1500T
15540.1	0.833	230032	WORD_OFF	n/a	n/a	SHORTS	Clothing	6	10	[0, 0, 0]	n/a	catFR1	1	R1500T
15540.933	1.617	230862	WORD	n/a	wordpools/wordpool_categorized_EN.txt	HORSE	FarmAnimals	7	10	[0, 0, 0]	n/a	catFR1	1	R1500T
15542.55	1.0	232482	WORD_OFF	n/a	n/a	HORSE	FarmAnimals	7	10	[0, 0, 0]	n/a	catFR1	1	R1500T
15543.55	1.616	233484	WORD	n/a	wordpools/wordpool_categorized_EN.txt	BULL	FarmAnimals	8	10	[0, 0, 0]	n/a	catFR1	1	R1500T
15545.166	0.784	235103	WORD_OFF	n/a	n/a	BULL	FarmAnimals	8	10	[0, 0, 0]	n/a	catFR1	1	R1500T
15545.95	0.0	235883	WORD	n/a	wordpools/wordpool_categorized_EN.txt	PANTS	Clothing	9	10	[0, 0, 0]	n/a	catFR1	1	R1500T
-1020.032	16567.582	236193	REC_WORD_VV	16567.582	n/a	<>	n/a	-999	-1	[0, 0, 0]	n/a	catFR1	1	R1500T
15547.55	0.85	237482	WORD_OFF	n/a	n/a	PANTS	Clothing	9	10	[0, 0, 0]	n/a	catFR1	1	R1500T
15548.4	1.6	238332	WORD	n/a	wordpools/wordpool_categorized_EN.txt	SKIRT	Clothing	10	10	[0, 0, 0]	n/a	catFR1	1	R1500T
15550.0	0.851	239932	WORD_OFF	n/a	n/a	SKIRT	Clothing	10	10	[0, 0, 0]	n/a	catFR1	1	R1500T
15550.851	1.616	240782	WORD	n/a	wordpools/wordpool_categorized_EN.txt	SODA	Beverages	11	10	[0, 0, 0]	n/a	catFR1	1	R1500T
15552.467	0.833	242402	WORD_OFF	n/a	n/a	SODA	Beverages	11	10	[0, 0, 0]	n/a	catFR1	1	R1500T
15553.3	1.601	243232	WORD	n/a	wordpools/wordpool_categorized_EN.txt	WINE	Beverages	12	10	[0, 0, 0]	n/a	catFR1	1	R1500T
15554.901	0.001	244831	WORD_OFF	n/a	n/a	WINE	Beverages	12	10	[0, 0, 0]	n/a	catFR1	1	R1500T
15554.902	0.0	244831	ENCODING_END	n/a	n/a	n/a	n/a	-999	10	[0, 0, 0]	n/a	catFR1	1	R1500T
15554.902	0.0	244831	DISTRACT_START	n/a	n/a	n/a	n/a	-999	10	[0, 0, 0]	n/a	catFR1	1	R1500T
15554.901	0.001	244832	PROB	0.001	n/a	n/a	n/a	-999	10	[5, 1, 1]	7	catFR1	1	R1500T
15554.902	0.0	244833	START	n/a	n/a	n/a	n/a	-999	10	[-999, -999, -999]	n/a	catFR1	1	R1500T
-1009.189	1.0	247035	REC_WORD_VV	1.0	n/a	<>	n/a	-999	-1	[0, 0, 0]	n/a	catFR1	1	R1500T
-1008.189	1.41	248035	REC_WORD_VV	1.41	n/a	<>	n/a	-999	-1	[0, 0, 0]	n/a	catFR1	1	R1500T
-1006.779	16566.83	249445	REC_WORD_VV	16566.83	n/a	<>	n/a	-999	-1	[0, 0, 0]	n/a	catFR1	1	R1500T
15560.051	0.0	249982	PROB	0.0	n/a	n/a	n/a	-999	10	[7, 6, 4]	17	catFR1	1	R1500T
-1004.945	1.0	251279	REC_WORD_VV	1.0	n/a	<>	n/a	-999	-1	[0, 0, 0]	n/a	catFR1	1	R1500T
-1003.945	1.258	252279	REC_WORD_VV	1.258	n/a	<>	n/a	-999	-1	[0, 0, 0]	n/a	catFR1	1	R1500T
-1002.687	16567.388	253537	REC_WORD_VV	16567.388	n/a	<>	n/a	-999	-1	[0, 0, 0]	n/a	catFR1	1	R1500T
15564.701	0.0	254631	PROB	0.0	n/a	n/a	n/a	-999	10	[7, 6, 6]	16	catFR1	1	R1500T
-1001.334	3.787	254890	REC_WORD_VV	3.787	n/a	<>	n/a	-999	-1	[0, 0, 0]	n/a	catFR1	1	R1500T
-997.547	16570.831	258679	REC_END	n/a	n/a	n/a	n/a	-999	-1	[0, 0, 0]	n/a	catFR1	1	R1500T
15573.284	6.95	263214	PROB	6.95	n/a	n/a	n/a	-999	10	[8, 4, 8]	20	catFR1	1	R1500T
15580.234	0.0	270164	STOP	n/a	n/a	n/a	n/a	-999	10	[-999, -999, -999]	n/a	catFR1	1	R1500T
15580.234	1.4	270168	DISTRACT_END	n/a	n/a	n/a	n/a	-999	10	[0, 0, 0]	n/a	catFR1	1	R1500T
15581.634	0.932	271564	REC_START	n/a	n/a	n/a	n/a	-999	10	[0, 0, 0]	n/a	catFR1	1	R1500T
15582.566	1.0	272495	REC_WORD_VV	1.0	n/a	<>	n/a	-999	10	[0, 0, 0]	n/a	catFR1	1	R1500T
15583.566	4.586	273495	REC_WORD_VV	4.586	n/a	<>	n/a	-999	10	[0, 0, 0]	n/a	catFR1	1	R1500T
15588.152	0.0	278081	REC_WORD	0.0	n/a	HORSE	FarmAnimals	7	10	[0, 0, 0]	n/a	catFR1	1	R1500T
-971.434	16576.242	284794	COUNTDOWN_START	n/a	n/a	n/a	n/a	-999	1	[0, 0, 0]	n/a	catFR1	1	R1500T
15604.808	0.0	294736	REC_WORD_VV	0.0	n/a	<>	n/a	-999	10	[0, 0, 0]	n/a	catFR1	1	R1500T
-961.084	0.0	295140	COUNTDOWN_END	n/a	n/a	n/a	n/a	-999	1	[0, 0, 0]	n/a	catFR1	1	R1500T
-961.084	1.8	295140	ENCODING_START	n/a	n/a	n/a	n/a	-999	1	[0, 0, 0]	n/a	catFR1	1	R1500T
-959.284	1.601	296941	WORD	n/a	wordpools/wordpool_categorized_EN.txt	BLUEBERRY	Fruit	1	1	[0, 0, 0]	n/a	catFR1	1	R1500T
-957.683	0.95	298541	WORD_OFF	n/a	n/a	BLUEBERRY	Fruit	1	1	[0, 0, 0]	n/a	catFR1	1	R1500T
-956.733	1.6	299492	WORD	n/a	wordpools/wordpool_categorized_EN.txt	LEMON	Fruit	2	1	[0, 0, 0]	n/a	catFR1	1	R1500T
-955.133	0.833	301092	WORD_OFF	n/a	n/a	LEMON	Fruit	2	1	[0, 0, 0]	n/a	catFR1	1	R1500T
-954.3	16567.142	301922	WORD	n/a	wordpools/wordpool_categorized_EN.txt	CORN	Vegetables	3	1	[0, 0, 0]	n/a	catFR1	1	R1500T
15612.842	0.0	302772	REC_END	n/a	n/a	n/a	n/a	-999	10	[0, 0, 0]	n/a	catFR1	1	R1500T
-952.7	0.918	303521	WORD_OFF	n/a	n/a	CORN	Vegetables	3	1	[0, 0, 0]	n/a	catFR1	1	R1500T
-951.782	1.599	304442	WORD	n/a	wordpools/wordpool_categorized_EN.txt	ONION	Vegetables	4	1	[0, 0, 0]	n/a	catFR1	1	R1500T
-950.183	0.9	306041	WORD_OFF	n/a	n/a	ONION	Vegetables	4	1	[0, 0, 0]	n/a	catFR1	1	R1500T
-949.283	1.6	306932	WORD	n/a	wordpools/wordpool_categorized_EN.txt	PIANO	Instruments	5	1	[0, 0, 0]	n/a	catFR1	1	R1500T
-947.683	0.85	308542	WORD_OFF	n/a	n/a	PIANO	Instruments	5	1	[0, 0, 0]	n/a	catFR1	1	R1500T
-946.833	1.617	309392	WORD	n/a	wordpools/wordpool_categorized_EN.txt	ORGAN	Instruments	6	1	[0, 0, 0]	n/a	catFR1	1	R1500T
-945.216	0.783	311001	WORD_OFF	n/a	n/a	ORGAN	Instruments	6	1	[0, 0, 0]	n/a	catFR1	1	R1500T
-944.433	1.6	311791	WORD	n/a	wordpools/wordpool_categorized_EN.txt	CABBAGE	Vegetables	7	1	[0, 0, 0]	n/a	catFR1	1	R1500T
-942.833	0.783	313390	WORD_OFF	n/a	n/a	CABBAGE	Vegetables	7	1	[0, 0, 0]	n/a	catFR1	1	R1500T
-942.05	1.616	314170	WORD	n/a	wordpools/wordpool_categorized_EN.txt	SPINACH	Vegetables	8	1	[0, 0, 0]	n/a	catFR1	1	R1500T
-940.434	16566.584	315789	WORD_OFF	n/a	n/a	SPINACH	Vegetables	8	1	[0, 0, 0]	n/a	catFR1	1	R1500T
15626.15	0.0	316083	COUNTDOWN_START	n/a	n/a	n/a	n/a	-999	10	[0, 0, 0]	n/a	catFR1	1	R1500T
-939.466	1.616	316751	WORD	n/a	wordpools/wordpool_categorized_EN.txt	APPLE	Fruit	9	1	[0, 0, 0]	n/a	catFR1	1	R1500T
-937.85	0.984	318371	WORD_OFF	n/a	n/a	APPLE	Fruit	9	1	[0, 0, 0]	n/a	catFR1	1	R1500T
-936.866	1.616	319352	WORD	n/a	wordpools/wordpool_categorized_EN.txt	PEACH	Fruit	10	1	[0, 0, 0]	n/a	catFR1	1	R1500T
-935.25	0.834	320972	WORD_OFF	n/a	n/a	PEACH	Fruit	10	1	[0, 0, 0]	n/a	catFR1	1	R1500T
-934.416	1.6	321802	WORD	n/a	wordpools/wordpool_categorized_EN.txt	GUITAR	Instruments	11	1	[0, 0, 0]	n/a	catFR1	1	R1500T
-932.816	0.814	323401	WORD_OFF	n/a	n/a	GUITAR	Instruments	11	1	[0, 0, 0]	n/a	catFR1	1	R1500T
-932.002	1.603	324221	WORD	n/a	wordpools/wordpool_categorized_EN.txt	FLUTE	Instruments	12	1	[0, 0, 0]	n/a	catFR1	1	R1500T
-930.399	0.001	325821	WORD_OFF	n/a	n/a	FLUTE	Instruments	12	1	[0, 0, 0]	n/a	catFR1	1	R1500T
-930.398	0.0	325821	ENCODING_END	n/a	n/a	n/a	n/a	-999	1	[0, 0, 0]	n/a	catFR1	1	R1500T
-930.398	0.0	325821	DISTRACT_START	n/a	n/a	n/a	n/a	-999	1	[0, 0, 0]	n/a	catFR1	1	R1500T
-930.399	0.001	325821	PROB	0.001	n/a	n/a	n/a	-999	1	[3, 7, 5]	15	catFR1	1	R1500T
-930.398	16566.898	325822	START	n/a	n/a	n/a	n/a	-999	1	[-999, -999, -999]	n/a	catFR1	1	R1500T
15636.5	0.0	326428	COUNTDOWN_END	n/a	n/a	n/a	n/a	-999	10	[0, 0, 0]	n/a	catFR1	1	R1500T
15636.5	2.3	326428	ENCODING_START	n/a	n/a	n/a	n/a	-999	11	[0, 0, 0]	n/a	catFR1	1	R1500T
15638.8	1.6	328726	WORD	n/a	wordpools/wordpool_categorized_EN.txt	PIG	FarmAnimals	1	11	[0, 0, 0]	n/a	catFR1	1	R1500T
15640.4	0.0	330325	WORD_OFF	n/a	n/a	PIG	FarmAnimals	1	11	[0, 0, 0]	n/a	catFR1	1	R1500T
-925.35	16566.6	330870	PROB	16566.6	n/a	n/a	n/a	-999	1	[5, 3, 8]	16	catFR1	1	R1500T
15641.25	1.616	331175	WORD	n/a	wordpools/wordpool_categorized_EN.txt	COW	FarmAnimals	2	11	[0, 0, 0]	n/a	catFR1	1	R1500T
15642.866	0.834	332795	WORD_OFF	n/a	n/a	COW	FarmAnimals	2	11	[0, 0, 0]	n/a	catFR1	1	R1500T
15643.7	1.616	333625	WORD	n/a	wordpools/wordpool_categorized_EN.txt	JUICE	Beverages	3	11	[0, 0, 0]	n/a	catFR1	1	R1500T
15645.316	0.834	335245	WORD_OFF	n/a	n/a	JUICE	Beverages	3	11	[0, 0, 0]	n/a	catFR1	1	R1500T
15646.15	0.0	336075	WORD	n/a	wordpools/wordpool_categorized_EN.txt	COLA	Beverages	4	11	[0, 0, 0]	n/a	catFR1	1	R1500T
-919.716	16567.466	336503	PROB	16567.466	n/a	n/a	n/a	-999	1	[4, 6, 2]	12	catFR1	1	R1500T
15647.75	0.834	337674	WORD_OFF	n/a	n/a	COLA	Beverages	4	11	[0, 0, 0]	n/a	catFR1	1	R1500T
15648.584	1.617	338514	WORD	n/a	wordpools/wordpool_categorized_EN.txt	COAT	Clothing	5	11	[0, 0, 0]	n/a	catFR1	1	R1500T
15650.201	0.0	340124	WORD_OFF	n/a	n/a	COAT	Clothing	5	11	[0, 0, 0]	n/a	catFR1	1	R1500T
-915.717	16566.784	340502	PROB	16566.784	n/a	n/a	n/a	-999	1	[7, 6, 7]	21	catFR1	1	R1500T
15651.067	1.6	340994	WORD	n/a	wordpools/wordpool_categorized_EN.txt	DRESS	Clothing	6	11	[0, 0, 0]	n/a	catFR1	1	R1500T
15652.667	0.884	342594	WORD_OFF	n/a	n/a	DRESS	Clothing	6	11	[0, 0, 0]	n/a	catFR1	1	R1500T
15653.551	1.616	343474	WORD	n/a	wordpools/wordpool_categorized_EN.txt	LEMONADE	Beverages	7	11	[0, 0, 0]	n/a	catFR1	1	R1500T
15655.167	0.85	345094	WORD_OFF	n/a	n/a	LEMONADE	Beverages	7	11	[0, 0, 0]	n/a	catFR1	1	R1500T
15656.017	1.6	345944	WORD	n/a	wordpools/wordpool_categorized_EN.txt	BEER	Beverages	8	11	[0, 0, 0]	n/a	catFR1	1	R1500T
15657.617	0.0	347543	WORD_OFF	n/a	n/a	BEER	Beverages	8	11	[0, 0, 0]	n/a	catFR1	1	R1500T
-907.916	0.0	348303	DISTRACT_END	n/a	n/a	n/a	n/a	-999	1	[0, 0, 0]	n/a	catFR1	1	R1500T
-907.916	16566.332	348303	STOP	n/a	n/a	n/a	n/a	-999	1	[-999, -999, -999]	n/a	catFR1	1	R1500T
15658.416	0.0	348343	WORD	n/a	wordpools/wordpool_categorized_EN.txt	SHEEP	FarmAnimals	9	11	[0, 0, 0]	n/a	catFR1	1	R1500T
-906.633	16566.65	349588	REC_START	n/a	n/a	n/a	n/a	-999	1	[0, 0, 0]	n/a	catFR1	1	R1500T
15660.017	0.984	349942	WORD_OFF	n/a	n/a	SHEEP	FarmAnimals	9	11	[0, 0, 0]	n/a	catFR1	1	R1500T
15661.001	1.616	350924	WORD	n/a	wordpools/wordpool_categorized_EN.txt	ROOSTER	FarmAnimals	10	11	[0, 0, 0]	n/a	catFR1	1	R1500T
15662.617	0.0	352544	WORD_OFF	n/a	n/a	ROOSTER	FarmAnimals	10	11	[0, 0, 0]	n/a	catFR1	1	R1500T
-902.705	16566.305	353514	REC_WORD	16566.305	n/a	LEAF	n/a	-999	1	[0, 0, 0]	n/a	catFR1	1	R1500T
15663.6	0.0	353526	WORD	n/a	wordpools/wordpool_categorized_EN.txt	SOCKS	Clothing	11	11	[0, 0, 0]	n/a	catFR1	1	R1500T
-901.444	16566.661	354775	REC_WORD_VV	16566.661	n/a	<>	n/a	-999	1	[0, 0, 0]	n/a	catFR1	1	R1500T
15665.217	0.867	355145	WORD_OFF	n/a	n/a	SOCKS	Clothing	11	11	[0, 0, 0]	n/a	catFR1	1	R1500T
15666.084	1.616	356006	WORD	n/a	wordpools/wordpool_categorized_EN.txt	UNDERWEAR	Clothing	12	11	[0, 0, 0]	n/a	catFR1	1	R1500T
15667.7	0.0	357625	WORD_OFF	n/a	n/a	UNDERWEAR	Clothing	12	11	[0, 0, 0]	n/a	catFR1	1	R1500T
15667.7	0.001	357625	PROB	0.001	n/a	n/a	n/a	-999	11	[4, 8, 7]	19	catFR1	1	R1500T
15667.701	0.0	357626	START	n/a	n/a	n/a	n/a	-999	11	[-999, -999, -999]	n/a	catFR1	1	R1500T
15667.701	0.0	357636	ENCODING_END	n/a	n/a	n/a	n/a	-999	11	[0, 0, 0]	n/a	catFR1	1	R1500T
15667.701	7.333	357636	DISTRACT_START	n/a	n/a	n/a	n/a	-999	11	[0, 0, 0]	n/a	catFR1	1	R1500T
15675.034	5.15	364959	PROB	5.15	n/a	n/a	n/a	-999	11	[5, 2, 3]	10	catFR1	1	R1500T
15680.184	0.0	370108	PROB	0.0	n/a	n/a	n/a	-999	11	[8, 3, 6]	14	catFR1	1	R1500T
-885.855	7.252	370363	REC_WORD_VV	7.252	n/a	<>	n/a	-999	1	[0, 0, 0]	n/a	catFR1	1	R1500T
-878.603	1.0	377614	REC_WORD_VV	1.0	n/a	<>	n/a	-999	1	[0, 0, 0]	n/a	catFR1	1	R1500T
-877.603	16567.103	378614	REC_WORD_VV	16567.103	n/a	<>	n/a	-999	1	[0, 0, 0]	n/a	catFR1	1	R1500T
15689.5	0.0	379424	STOP	n/a	n/a	n/a	n/a	-999	11	[-999, -999, -999]	n/a	catFR1	1	R1500T
15689.5	1.233	379429	DISTRACT_END	n/a	n/a	n/a	n/a	-999	11	[0, 0, 0]	n/a	catFR1	1	R1500T
15690.733	0.0	380654	REC_START	n/a	n/a	n/a	n/a	-999	11	[0, 0, 0]	n/a	catFR1	1	R1500T
-875.443	16567.408	380775	REC_END	n/a	n/a	n/a	n/a	-999	1	[0, 0, 0]	n/a	catFR1	1	R1500T
15691.965	1.081	381889	REC_WORD	1.081	n/a	PIG	FarmAnimals	1	11	[0, 0, 0]	n/a	catFR1	1	R1500T
15693.046	1.925	382970	REC_WORD	1.925	n/a	COW	FarmAnimals	2	11	[0, 0, 0]	n/a	catFR1	1	R1500T
15694.971	3.712	384894	REC_WORD_VV	3.712	n/a	<>	n/a	-999	11	[0, 0, 0]	n/a	catFR1	1	R1500T
15698.683	0.0	388606	REC_WORD_VV	0.0	n/a	<>	n/a	-999	11	[0, 0, 0]	n/a	catFR1	1	R1500T
-864.05	10.351	392173	COUNTDOWN_START	n/a	n/a	n/a	n/a	-999	1	[0, 0, 0]	n/a	catFR1	1	R1500T
-853.699	0.0	402518	COUNTDOWN_END	n/a	n/a	n/a	n/a	-999	1	[0, 0, 0]	n/a	catFR1	1	R1500T
-853.699	2.066	402518	ENCODING_START	n/a	n/a	n/a	n/a	-999	2	[0, 0, 0]	n/a	catFR1	1	R1500T
-851.633	1.617	404583	WORD	n/a	wordpools/wordpool_categorized_EN.txt	MAPLE	Trees	1	2	[0, 0, 0]	n/a	catFR1	1	R1500T
-850.016	16567.2	406203	WORD_OFF	n/a	n/a	MAPLE	Trees	1	2	[0, 0, 0]	n/a	catFR1	1	R1500T
15717.184	0.0	407106	REC_WORD	0.0	n/a	SOCK	n/a	-999	11	[0, 0, 0]	n/a	catFR1	1	R1500T
-849.017	16567.692	407195	WORD	n/a	wordpools/wordpool_categorized_EN.txt	PINE	Trees	2	2	[0, 0, 0]	n/a	catFR1	1	R1500T
15718.675	0.0	408597	REC_WORD_VV	0.0	n/a	<>	n/a	-999	11	[0, 0, 0]	n/a	catFR1	1	R1500T
-847.416	0.866	408794	WORD_OFF	n/a	n/a	PINE	Trees	2	2	[0, 0, 0]	n/a	catFR1	1	R1500T
-846.55	1.601	409665	WORD	n/a	wordpools/wordpool_categorized_EN.txt	DRYER	Appliances	3	2	[0, 0, 0]	n/a	catFR1	1	R1500T
-844.949	16566.92	411264	WORD_OFF	n/a	n/a	DRYER	Appliances	3	2	[0, 0, 0]	n/a	catFR1	1	R1500T
15721.971	0.0	411892	REC_END	n/a	n/a	n/a	n/a	-999	11	[0, 0, 0]	n/a	catFR1	1	R1500T
-844.133	1.617	412084	WORD	n/a	wordpools/wordpool_categorized_EN.txt	MIXER	Appliances	4	2	[0, 0, 0]	n/a	catFR1	1	R1500T
-842.516	0.866	413704	WORD_OFF	n/a	n/a	MIXER	Appliances	4	2	[0, 0, 0]	n/a	catFR1	1	R1500T
-841.65	1.616	414564	WORD	n/a	wordpools/wordpool_categorized_EN.txt	CHICKEN	FarmAnimals	5	2	[0, 0, 0]	n/a	catFR1	1	R1500T
-840.034	16566.385	416184	WORD_OFF	n/a	n/a	CHICKEN	FarmAnimals	5	2	[0, 0, 0]	n/a	catFR1	1	R1500T
15726.351	0.0	416275	COUNTDOWN_START	n/a	n/a	n/a	n/a	-999	11	[0, 0, 0]	n/a	catFR1	1	R1500T
-839.251	1.601	416963	WORD	n/a	wordpools/wordpool_categorized_EN.txt	COW	FarmAnimals	6	2	[0, 0, 0]	n/a	catFR1	1	R1500T
-837.65	0.967	418563	WORD_OFF	n/a	n/a	COW	FarmAnimals	6	2	[0, 0, 0]	n/a	catFR1	1	R1500T
-836.683	1.616	419534	WORD	n/a	wordpools/wordpool_categorized_EN.txt	OAK	Trees	7	2	[0, 0, 0]	n/a	catFR1	1	R1500T
-835.067	1.0	421144	WORD_OFF	n/a	n/a	OAK	Trees	7	2	[0, 0, 0]	n/a	catFR1	1	R1500T
-834.067	1.6	422146	WORD	n/a	wordpools/wordpool_categorized_EN.txt	EVERGREEN	Trees	8	2	[0, 0, 0]	n/a	catFR1	1	R1500T
-832.467	0.868	423745	WORD_OFF	n/a	n/a	EVERGREEN	Trees	8	2	[0, 0, 0]	n/a	catFR1	1	R1500T
-831.599	1.616	424616	WORD	n/a	wordpools/wordpool_categorized_EN.txt	VACUUM	Appliances	9	2	[0, 0, 0]	n/a	catFR1	1	R1500T
-829.983	16566.684	426235	WORD_OFF	n/a	n/a	VACUUM	Appliances	9	2	[0, 0, 0]	n/a	catFR1	1	R1500T
15736.701	0.0	426620	COUNTDOWN_END	n/a	n/a	n/a	n/a	-999	11	[0, 0, 0]	n/a	catFR1	1	R1500T
15736.701	0.0	426630	ENCODING_START	n/a	n/a	n/a	n/a	-999	12	[0, 0, 0]	n/a	catFR1	1	R1500T
-829.166	1.616	427045	WORD	n/a	wordpools/wordpool_categorized_EN.txt	REFRIGERATOR	Appliances	10	2	[0, 0, 0]	n/a	catFR1	1	R1500T
-827.55	16566.317	428665	WORD_OFF	n/a	n/a	REFRIGERATOR	Appliances	10	2	[0, 0, 0]	n/a	catFR1	1	R1500T
15738.767	0.0	428685	WORD	n/a	wordpools/wordpool_categorized_EN.txt	REFRIGERATOR	Appliances	1	12	[0, 0, 0]	n/a	catFR1	1	R1500T
-826.55	16566.933	429667	WORD	n/a	wordpools/wordpool_categorized_EN.txt	GOAT	FarmAnimals	11	2	[0, 0, 0]	n/a	catFR1	1	R1500T
15740.383	0.833	430305	WORD_OFF	n/a	n/a	REFRIGERATOR	Appliances	1	12	[0, 0, 0]	n/a	catFR1	1	R1500T
15741.216	0.0	431135	WORD	n/a	wordpools/wordpool_categorized_EN.txt	MIXER	Appliances	2	12	[0, 0, 0]	n/a	catFR1	1	R1500T
-824.934	1.001	431286	WORD_OFF	n/a	n/a	GOAT	FarmAnimals	11	2	[0, 0, 0]	n/a	catFR1	1	R1500T
-823.933	16566.749	432278	WORD	n/a	wordpools/wordpool_categorized_EN.txt	PIG	FarmAnimals	12	2	[0, 0, 0]	n/a	catFR1	1	R1500T
15742.816	0.95	432734	WORD_OFF	n/a	n/a	MIXER	Appliances	2	12	[0, 0, 0]	n/a	catFR1	1	R1500T
15743.766	0.0	433685	WORD	n/a	wordpools/wordpool_categorized_EN.txt	ORGAN	Instruments	3	12	[0, 0, 0]	n/a	catFR1	1	R1500T
-822.317	0.002	433898	WORD_OFF	n/a	n/a	PIG	FarmAnimals	12	2	[0, 0, 0]	n/a	catFR1	1	R1500T
-822.315	0.0	433898	ENCODING_END	n/a	n/a	n/a	n/a	-999	2	[0, 0, 0]	n/a	catFR1	1	R1500T
-822.315	0.0	433898	DISTRACT_START	n/a	n/a	n/a	n/a	-999	2	[0, 0, 0]	n/a	catFR1	1	R1500T
-822.316	0.001	433898	PROB	0.001	n/a	n/a	n/a	-999	2	[5, 5, 2]	12	catFR1	1	R1500T
-822.315	16567.682	433899	START	n/a	n/a	n/a	n/a	-999	2	[-999, -999, -999]	n/a	catFR1	1	R1500T
15745.367	0.899	435285	WORD_OFF	n/a	n/a	ORGAN	Instruments	3	12	[0, 0, 0]	n/a	catFR1	1	R1500T
15746.266	1.617	436186	WORD	n/a	wordpools/wordpool_categorized_EN.txt	TRUMPET	Instruments	4	12	[0, 0, 0]	n/a	catFR1	1	R1500T
15747.883	0.0	437805	WORD_OFF	n/a	n/a	TRUMPET	Instruments	4	12	[0, 0, 0]	n/a	catFR1	1	R1500T
-818.217	16566.967	437997	PROB	16566.967	n/a	n/a	n/a	-999	2	[4, 4, 5]	12	catFR1	1	R1500T
15748.75	1.6	438676	WORD	n/a	wordpools/wordpool_categorized_EN.txt	ELBOW	BodyParts	5	12	[0, 0, 0]	n/a	catFR1	1	R1500T
15750.35	0.917	440275	WORD_OFF	n/a	n/a	ELBOW	BodyParts	5	12	[0, 0, 0]	n/a	catFR1	1	R1500T
15751.267	1.617	441186	WORD	n/a	wordpools/wordpool_categorized_EN.txt	TOE	BodyParts	6	12	[0, 0, 0]	n/a	catFR1	1	R1500T
15752.884	1.0	442806	WORD_OFF	n/a	n/a	TOE	BodyParts	6	12	[0, 0, 0]	n/a	catFR1	1	R1500T
15753.884	0.0	443808	WORD	n/a	wordpools/wordpool_categorized_EN.txt	IRON	Appliances	7	12	[0, 0, 0]	n/a	catFR1	1	R1500T
-811.833	16567.333	444381	PROB	16567.333	n/a	n/a	n/a	-999	2	[7, 4, 3]	13	catFR1	1	R1500T
15755.5	0.817	445417	WORD_OFF	n/a	n/a	IRON	Appliances	7	12	[0, 0, 0]	n/a	catFR1	1	R1500T
15756.317	1.617	446237	WORD	n/a	wordpools/wordpool_categorized_EN.txt	DISHWASHER	Appliances	8	12	[0, 0, 0]	n/a	catFR1	1	R1500T
15757.934	0.816	447857	WORD_OFF	n/a	n/a	DISHWASHER	Appliances	8	12	[0, 0, 0]	n/a	catFR1	1	R1500T
15758.75	1.6	448667	WORD	n/a	wordpools/wordpool_categorized_EN.txt	CELLO	Instruments	9	12	[0, 0, 0]	n/a	catFR1	1	R1500T
15760.35	0.0	450276	WORD_OFF	n/a	n/a	CELLO	Instruments	9	12	[0, 0, 0]	n/a	catFR1	1	R1500T
-805.882	16567.083	450331	PROB	16567.083	n/a	n/a	n/a	-999	2	[1, 2, 3]	6	catFR1	1	R1500T
15761.201	1.6	451126	WORD	n/a	wordpools/wordpool_categorized_EN.txt	PIANO	Instruments	10	12	[0, 0, 0]	n/a	catFR1	1	R1500T
15762.801	0.849	452726	WORD_OFF	n/a	n/a	PIANO	Instruments	10	12	[0, 0, 0]	n/a	catFR1	1	R1500T
15763.65	1.617	453568	WORD	n/a	wordpools/wordpool_categorized_EN.txt	NOSE	BodyParts	11	12	[0, 0, 0]	n/a	catFR1	1	R1500T
15765.267	0.0	455186	WORD_OFF	n/a	n/a	NOSE	BodyParts	11	12	[0, 0, 0]	n/a	catFR1	1	R1500T
-800.65	0.0	455560	DISTRACT_END	n/a	n/a	n/a	n/a	-999	2	[0, 0, 0]	n/a	catFR1	1	R1500T
-800.65	16566.85	455563	STOP	n/a	n/a	n/a	n/a	-999	2	[-999, -999, -999]	n/a	catFR1	1	R1500T
15766.2	0.0	456117	WORD	n/a	wordpools/wordpool_categorized_EN.txt	LEG	BodyParts	12	12	[0, 0, 0]	n/a	catFR1	1	R1500T
-799.549	16567.35	456663	REC_START	n/a	n/a	n/a	n/a	-999	2	[0, 0, 0]	n/a	catFR1	1	R1500T
15767.801	0.003	457721	PROB	0.003	n/a	n/a	n/a	-999	12	[3, 8, 5]	16	catFR1	1	R1500T
15767.804	0.0	457724	START	n/a	n/a	n/a	n/a	-999	12	[-999, -999, -999]	n/a	catFR1	1	R1500T
15767.801	0.003	457726	WORD_OFF	n/a	n/a	LEG	BodyParts	12	12	[0, 0, 0]	n/a	catFR1	1	R1500T
15767.804	0.0	457726	ENCODING_END	n/a	n/a	n/a	n/a	-999	12	[0, 0, 0]	n/a	catFR1	1	R1500T
15767.804	0.0	457726	DISTRACT_START	n/a	n/a	n/a	n/a	-999	12	[0, 0, 0]	n/a	catFR1	1	R1500T
-798.085	1.0	458128	REC_WORD	1.0	n/a	EVERGREEN	Trees	8	2	[0, 0, 0]	n/a	catFR1	1	R1500T
-797.085	0.803	459128	REC_WORD	0.803	n/a	EVERGREEN	Trees	8	2	[0, 0, 0]	n/a	catFR1	1	R1500T
-796.282	16570.167	459931	REC_WORD_VV	16570.167	n/a	<>	n/a	-999	2	[0, 0, 0]	n/a	catFR1	1	R1500T
15773.885	4.732	463804	PROB	4.732	n/a	n/a	n/a	-999	12	[8, 5, 5]	18	catFR1	1	R1500T
15778.617	0.0	468536	PROB	0.0	n/a	n/a	n/a	-999	12	[3, 7, 3]	13	catFR1	1	R1500T
-784.105	16568.006	472107	REC_WORD	16568.006	n/a	PINE	Trees	2	2	[0, 0, 0]	n/a	catFR1	1	R1500T
15783.901	0.0	473820	PROB	0.0	n/a	n/a	n/a	-999	12	[7, 5, 4]	16	catFR1	1	R1500T
-776.692	16566.709	479520	REC_WORD_VV	16566.709	n/a	<>	n/a	-999	2	[0, 0, 0]	n/a	catFR1	1	R1500T
15790.017	0.0	479935	DISTRACT_END	n/a	n/a	n/a	n/a	-999	12	[0, 0, 0]	n/a	catFR1	1	R1500T
15790.017	1.267	479935	STOP	n/a	n/a	n/a	n/a	-999	12	[-999, -999, -999]	n/a	catFR1	1	R1500T
15791.284	1.335	481200	REC_START	n/a	n/a	n/a	n/a	-999	12	[0, 0, 0]	n/a	catFR1	1	R1500T
15792.619	1.0	482537	REC_WORD	1.0	n/a	REFRIGERATOR	Appliances	1	12	[0, 0, 0]	n/a	catFR1	1	R1500T
15793.619	1.425	483537	REC_WORD	1.425	n/a	REFRIGERATOR	Appliances	1	12	[0, 0, 0]	n/a	catFR1	1	R1500T
15795.044	1.491	484962	REC_WORD	1.491	n/a	FREEZER	Appliances	-999	12	[0, 0, 0]	n/a	catFR1	1	R1500T
15796.535	0.0	486453	REC_WORD	0.0	n/a	CELLO	Instruments	9	12	[0, 0, 0]	n/a	catFR1	1	R1500T
-768.354	16567.011	487861	REC_END	n/a	n/a	n/a	n/a	-999	2	[0, 0, 0]	n/a	catFR1	1	R1500T
15798.657	10.883	488575	REC_WORD_VV	10.883	n/a	<>	n/a	-999	12	[0, 0, 0]	n/a	catFR1	1	R1500T
15809.54	0.0	499457	REC_WORD_VV	0.0	n/a	<>	n/a	-999	12	[0, 0, 0]	n/a	catFR1	1	R1500T
-754.384	10.351	501830	COUNTDOWN_START	n/a	n/a	n/a	n/a	-999	2	[0, 0, 0]	n/a	catFR1	1	R1500T
-744.033	0.0	512175	COUNTDOWN_END	n/a	n/a	n/a	n/a	-999	2	[0, 0, 0]	n/a	catFR1	1	R1500T
-744.033	16566.551	512175	ENCODING_START	n/a	n/a	n/a	n/a	-999	3	[0, 0, 0]	n/a	catFR1	1	R1500T
15822.518	0.0	512438	REC_END	n/a	n/a	n/a	n/a	-999	12	[0, 0, 0]	n/a	catFR1	1	R1500T
-742.033	1.6	514179	WORD	n/a	wordpools/wordpool_categorized_EN.txt	MOTH	Insects	1	3	[0, 0, 0]	n/a	catFR1	1	R1500T
-740.433	0.867	515778	WORD_OFF	n/a	n/a	MOTH	Insects	1	3	[0, 0, 0]	n/a	catFR1	1	R1500T
-739.566	1.6	516639	WORD	n/a	wordpools/wordpool_categorized_EN.txt	SPIDER	Insects	2	3	[0, 0, 0]	n/a	catFR1	1	R1500T
-737.966	0.965	518248	WORD_OFF	n/a	n/a	SPIDER	Insects	2	3	[0, 0, 0]	n/a	catFR1	1	R1500T
-737.001	1.602	519210	WORD	n/a	wordpools/wordpool_categorized_EN.txt	DISHWASHER	Appliances	3	3	[0, 0, 0]	n/a	catFR1	1	R1500T
-735.399	0.883	520809	WORD_OFF	n/a	n/a	DISHWASHER	Appliances	3	3	[0, 0, 0]	n/a	catFR1	1	R1500T
-734.516	1.6	521690	WORD	n/a	wordpools/wordpool_categorized_EN.txt	IRON	Appliances	4	3	[0, 0, 0]	n/a	catFR1	1	R1500T
-732.916	0.783	523289	WORD_OFF	n/a	n/a	IRON	Appliances	4	3	[0, 0, 0]	n/a	catFR1	1	R1500T
-732.133	1.617	524079	WORD	n/a	wordpools/wordpool_categorized_EN.txt	STRAWBERRY	Fruit	5	3	[0, 0, 0]	n/a	catFR1	1	R1500T
-730.516	0.983	525688	WORD_OFF	n/a	n/a	STRAWBERRY	Fruit	5	3	[0, 0, 0]	n/a	catFR1	1	R1500T
-729.533	1.617	526680	WORD	n/a	wordpools/wordpool_categorized_EN.txt	PLUM	Fruit	6	3	[0, 0, 0]	n/a	catFR1	1	R1500T
-727.916	0.832	528290	WORD_OFF	n/a	n/a	PLUM	Fruit	6	3	[0, 0, 0]	n/a	catFR1	1	R1500T
-727.084	1.601	529120	WORD	n/a	wordpools/wordpool_categorized_EN.txt	FLY	Insects	7	3	[0, 0, 0]	n/a	catFR1	1	R1500T
-725.483	0.85	530729	WORD_OFF	n/a	n/a	FLY	Insects	7	3	[0, 0, 0]	n/a	catFR1	1	R1500T
-724.633	1.617	531580	WORD	n/a	wordpools/wordpool_categorized_EN.txt	BUTTERFLY	Insects	8	3	[0, 0, 0]	n/a	catFR1	1	R1500T
-723.016	0.9	533189	WORD_OFF	n/a	n/a	BUTTERFLY	Insects	8	3	[0, 0, 0]	n/a	catFR1	1	R1500T
-722.116	1.6	534090	WORD	n/a	wordpools/wordpool_categorized_EN.txt	GRAPE	Fruit	9	3	[0, 0, 0]	n/a	catFR1	1	R1500T
-720.516	0.9	535689	WORD_OFF	n/a	n/a	GRAPE	Fruit	9	3	[0, 0, 0]	n/a	catFR1	1	R1500T
-719.616	1.6	536600	WORD	n/a	wordpools/wordpool_categorized_EN.txt	CHERRY	Fruit	10	3	[0, 0, 0]	n/a	catFR1	1	R1500T
-718.016	0.85	538190	WORD_OFF	n/a	n/a	CHERRY	Fruit	10	3	[0, 0, 0]	n/a	catFR1	1	R1500T
-717.166	1.615	539040	WORD	n/a	wordpools/wordpool_categorized_EN.txt	OVEN	Appliances	11	3	[0, 0, 0]	n/a	catFR1	1	R1500T
-715.551	0.802	540659	WORD_OFF	n/a	n/a	OVEN	Appliances	11	3	[0, 0, 0]	n/a	catFR1	1	R1500T
-714.749	1.616	541459	WORD	n/a	wordpools/wordpool_categorized_EN.txt	FREEZER	Appliances	12	3	[0, 0, 0]	n/a	catFR1	1	R1500T
-713.133	0.002	543076	PROB	0.002	n/a	n/a	n/a	-999	3	[5, 1, 2]	8	catFR1	1	R1500T
-713.131	0.0	543078	START	n/a	n/a	n/a	n/a	-999	3	[-999, -999, -999]	n/a	catFR1	1	R1500T
-713.133	0.002	543079	WORD_OFF	n/a	n/a	FREEZER	Appliances	12	3	[0, 0, 0]	n/a	catFR1	1	R1500T
-713.131	0.0	543079	ENCODING_END	n/a	n/a	n/a	n/a	-999	3	[0, 0, 0]	n/a	catFR1	1	R1500T
-713.131	4.749	543079	DISTRACT_START	n/a	n/a	n/a	n/a	-999	3	[0, 0, 0]	n/a	catFR1	1	R1500T
-708.382	4.0	547826	PROB	4.0	n/a	n/a	n/a	-999	3	[1, 7, 4]	12	catFR1	1	R1500T
-704.382	4.333	551826	PROB	4.333	n/a	n/a	n/a	-999	3	[6, 4, 8]	18	catFR1	1	R1500T
-700.049	4.868	556159	PROB	4.868	n/a	n/a	n/a	-999	3	[6, 2, 4]	12	catFR1	1	R1500T
-695.181	5.264	561027	PROB	5.264	n/a	n/a	n/a	-999	3	[1, 8, 5]	14	catFR1	1	R1500T
-689.917	0.0	566289	DISTRACT_END	n/a	n/a	n/a	n/a	-999	3	[0, 0, 0]	n/a	catFR1	1	R1500T
-689.917	1.367	566290	STOP	n/a	n/a	n/a	n/a	-999	3	[-999, -999, -999]	n/a	catFR1	1	R1500T
-688.55	4.483	567656	REC_START	n/a	n/a	n/a	n/a	-999	3	[0, 0, 0]	n/a	catFR1	1	R1500T
-684.067	1.0	572140	REC_WORD	1.0	n/a	GRAPEVINE	n/a	-999	3	[0, 0, 0]	n/a	catFR1	1	R1500T
-683.067	2.459	573140	REC_WORD	2.459	n/a	GRAPEVINE	n/a	-999	3	[0, 0, 0]	n/a	catFR1	1	R1500T
-680.608	23.292	575599	REC_WORD_VV	23.292	n/a	<>	n/a	-999	3	[0, 0, 0]	n/a	catFR1	1	R1500T
-657.316	19.983	598894	REC_END	n/a	n/a	n/a	n/a	-999	3	[0, 0, 0]	n/a	catFR1	1	R1500T
-637.333	10.349	618876	COUNTDOWN_START	n/a	n/a	n/a	n/a	-999	3	[0, 0, 0]	n/a	catFR1	1	R1500T
-626.984	0.0	629221	COUNTDOWN_END	n/a	n/a	n/a	n/a	-999	3	[0, 0, 0]	n/a	catFR1	1	R1500T
-626.984	2.218	629221	ENCODING_START	n/a	n/a	n/a	n/a	-999	4	[0, 0, 0]	n/a	catFR1	1	R1500T
-624.766	1.6	631437	WORD	n/a	wordpools/wordpool_categorized_EN.txt	PANTS	Clothing	1	4	[0, 0, 0]	n/a	catFR1	1	R1500T
-623.166	0.766	633037	WORD_OFF	n/a	n/a	PANTS	Clothing	1	4	[0, 0, 0]	n/a	catFR1	1	R1500T
-622.4	1.617	633806	WORD	n/a	wordpools/wordpool_categorized_EN.txt	COAT	Clothing	2	4	[0, 0, 0]	n/a	catFR1	1	R1500T
-620.783	0.917	635416	WORD_OFF	n/a	n/a	COAT	Clothing	2	4	[0, 0, 0]	n/a	catFR1	1	R1500T
-619.866	1.6	636337	WORD	n/a	wordpools/wordpool_categorized_EN.txt	PEN	OfficeSupplies	3	4	[0, 0, 0]	n/a	catFR1	1	R1500T
-618.266	0.983	637936	WORD_OFF	n/a	n/a	PEN	OfficeSupplies	3	4	[0, 0, 0]	n/a	catFR1	1	R1500T
-617.283	1.617	638918	WORD	n/a	wordpools/wordpool_categorized_EN.txt	BINDER	OfficeSupplies	4	4	[0, 0, 0]	n/a	catFR1	1	R1500T
-615.666	0.833	640538	WORD_OFF	n/a	n/a	BINDER	OfficeSupplies	4	4	[0, 0, 0]	n/a	catFR1	1	R1500T
-614.833	1.6	641368	WORD	n/a	wordpools/wordpool_categorized_EN.txt	SILK	Fabric	5	4	[0, 0, 0]	n/a	catFR1	1	R1500T
-613.233	0.783	642967	WORD_OFF	n/a	n/a	SILK	Fabric	5	4	[0, 0, 0]	n/a	catFR1	1	R1500T
-612.45	1.617	643756	WORD	n/a	wordpools/wordpool_categorized_EN.txt	SPANDEX	Fabric	6	4	[0, 0, 0]	n/a	catFR1	1	R1500T
-610.833	0.816	645366	WORD_OFF	n/a	n/a	SPANDEX	Fabric	6	4	[0, 0, 0]	n/a	catFR1	1	R1500T
-610.017	1.601	646186	WORD	n/a	wordpools/wordpool_categorized_EN.txt	STAPLER	OfficeSupplies	7	4	[0, 0, 0]	n/a	catFR1	1	R1500T
-608.416	0.916	647785	WORD_OFF	n/a	n/a	STAPLER	OfficeSupplies	7	4	[0, 0, 0]	n/a	catFR1	1	R1500T
-607.5	1.617	648706	WORD	n/a	wordpools/wordpool_categorized_EN.txt	RULER	OfficeSupplies	8	4	[0, 0, 0]	n/a	catFR1	1	R1500T
-605.883	0.799	650316	WORD_OFF	n/a	n/a	RULER	OfficeSupplies	8	4	[0, 0, 0]	n/a	catFR1	1	R1500T
-605.084	1.601	651116	WORD	n/a	wordpools/wordpool_categorized_EN.txt	JEANS	Clothing	9	4	[0, 0, 0]	n/a	catFR1	1	R1500T
-603.483	0.917	652715	WORD_OFF	n/a	n/a	JEANS	Clothing	9	4	[0, 0, 0]	n/a	catFR1	1	R1500T
-602.566	1.616	653636	WORD	n/a	wordpools/wordpool_categorized_EN.txt	SHORTS	Clothing	10	4	[0, 0, 0]	n/a	catFR1	1	R1500T
-600.95	0.917	655256	WORD_OFF	n/a	n/a	SHORTS	Clothing	10	4	[0, 0, 0]	n/a	catFR1	1	R1500T
-600.033	1.6	656167	WORD	n/a	wordpools/wordpool_categorized_EN.txt	FLEECE	Fabric	11	4	[0, 0, 0]	n/a	catFR1	1	R1500T
-598.433	0.967	657766	WORD_OFF	n/a	n/a	FLEECE	Fabric	11	4	[0, 0, 0]	n/a	catFR1	1	R1500T
-597.466	1.6	658738	WORD	n/a	wordpools/wordpool_categorized_EN.txt	SUEDE	Fabric	12	4	[0, 0, 0]	n/a	catFR1	1	R1500T
-595.866	0.0	660336	PROB	0.0	n/a	n/a	n/a	-999	4	[4, 2, 7]	13	catFR1	1	R1500T
-595.866	0.001	660337	WORD_OFF	n/a	n/a	SUEDE	Fabric	12	4	[0, 0, 0]	n/a	catFR1	1	R1500T
-595.865	0.0	660337	ENCODING_END	n/a	n/a	n/a	n/a	-999	4	[0, 0, 0]	n/a	catFR1	1	R1500T
-595.865	0.0	660337	DISTRACT_START	n/a	n/a	n/a	n/a	-999	4	[0, 0, 0]	n/a	catFR1	1	R1500T
-595.865	5.483	660337	START	n/a	n/a	n/a	n/a	-999	4	[-999, -999, -999]	n/a	catFR1	1	R1500T
-590.382	4.232	665820	PROB	4.232	n/a	n/a	n/a	-999	4	[2, 5, 5]	12	catFR1	1	R1500T
-586.15	4.416	670052	PROB	4.416	n/a	n/a	n/a	-999	4	[5, 5, 5]	15	catFR1	1	R1500T
-581.734	6.568	674468	PROB	6.568	n/a	n/a	n/a	-999	4	[6, 3, 2]	12	catFR1	1	R1500T
-575.166	0.0	681035	STOP	n/a	n/a	n/a	n/a	-999	4	[-999, -999, -999]	n/a	catFR1	1	R1500T
-575.166	1.15	681037	DISTRACT_END	n/a	n/a	n/a	n/a	-999	4	[0, 0, 0]	n/a	catFR1	1	R1500T
-574.016	2.674	682181	REC_START	n/a	n/a	n/a	n/a	-999	4	[0, 0, 0]	n/a	catFR1	1	R1500T
-571.342	3.787	684859	REC_WORD	3.787	n/a	BINDER	OfficeSupplies	4	4	[0, 0, 0]	n/a	catFR1	1	R1500T
-567.555	13.406	688646	REC_WORD_VV	13.406	n/a	<>	n/a	-999	4	[0, 0, 0]	n/a	catFR1	1	R1500T
-554.149	11.32	702051	REC_WORD	11.32	n/a	SUEDE	Fabric	12	4	[0, 0, 0]	n/a	catFR1	1	R1500T
-542.829	18.178	713369	REC_END	n/a	n/a	n/a	n/a	-999	4	[0, 0, 0]	n/a	catFR1	1	R1500T
-524.651	10.352	731548	COUNTDOWN_START	n/a	n/a	n/a	n/a	-999	4	[0, 0, 0]	n/a	catFR1	1	R1500T
-514.299	0.0	741894	COUNTDOWN_END	n/a	n/a	n/a	n/a	-999	4	[0, 0, 0]	n/a	catFR1	1	R1500T
-514.299	2.033	741904	ENCODING_START	n/a	n/a	n/a	n/a	-999	5	[0, 0, 0]	n/a	catFR1	1	R1500T
-512.266	1.6	743928	WORD	n/a	wordpools/wordpool_categorized_EN.txt	HORSE	FarmAnimals	1	5	[0, 0, 0]	n/a	catFR1	1	R1500T
-510.666	1.0	745528	WORD_OFF	n/a	n/a	HORSE	FarmAnimals	1	5	[0, 0, 0]	n/a	catFR1	1	R1500T
-509.666	1.617	746530	WORD	n/a	wordpools/wordpool_categorized_EN.txt	BULL	FarmAnimals	2	5	[0, 0, 0]	n/a	catFR1	1	R1500T
-508.049	0.966	748149	WORD_OFF	n/a	n/a	BULL	FarmAnimals	2	5	[0, 0, 0]	n/a	catFR1	1	R1500T
-507.083	1.616	749111	WORD	n/a	wordpools/wordpool_categorized_EN.txt	SEAGULL	Birds	3	5	[0, 0, 0]	n/a	catFR1	1	R1500T
-505.467	0.9	750730	WORD_OFF	n/a	n/a	SEAGULL	Birds	3	5	[0, 0, 0]	n/a	catFR1	1	R1500T
-504.567	1.616	751631	WORD	n/a	wordpools/wordpool_categorized_EN.txt	ROBIN	Birds	4	5	[0, 0, 0]	n/a	catFR1	1	R1500T
-502.951	0.951	753251	WORD_OFF	n/a	n/a	ROBIN	Birds	4	5	[0, 0, 0]	n/a	catFR1	1	R1500T
-502.0	1.617	754192	WORD	n/a	wordpools/wordpool_categorized_EN.txt	ELM	Trees	5	5	[0, 0, 0]	n/a	catFR1	1	R1500T
-500.383	0.867	755812	WORD_OFF	n/a	n/a	ELM	Trees	5	5	[0, 0, 0]	n/a	catFR1	1	R1500T
-499.516	1.6	756682	WORD	n/a	wordpools/wordpool_categorized_EN.txt	BIRCH	Trees	6	5	[0, 0, 0]	n/a	catFR1	1	R1500T
-497.916	0.8	758282	WORD_OFF	n/a	n/a	BIRCH	Trees	6	5	[0, 0, 0]	n/a	catFR1	1	R1500T
-497.116	1.616	759081	WORD	n/a	wordpools/wordpool_categorized_EN.txt	ROOSTER	FarmAnimals	7	5	[0, 0, 0]	n/a	catFR1	1	R1500T
-495.5	0.834	760701	WORD_OFF	n/a	n/a	ROOSTER	FarmAnimals	7	5	[0, 0, 0]	n/a	catFR1	1	R1500T
-494.666	1.617	761531	WORD	n/a	wordpools/wordpool_categorized_EN.txt	SHEEP	FarmAnimals	8	5	[0, 0, 0]	n/a	catFR1	1	R1500T
-493.049	0.95	763151	WORD_OFF	n/a	n/a	SHEEP	FarmAnimals	8	5	[0, 0, 0]	n/a	catFR1	1	R1500T
-492.099	1.616	764092	WORD	n/a	wordpools/wordpool_categorized_EN.txt	CYPRESS	Trees	9	5	[0, 0, 0]	n/a	catFR1	1	R1500T
-490.483	0.999	765712	WORD_OFF	n/a	n/a	CYPRESS	Trees	9	5	[0, 0, 0]	n/a	catFR1	1	R1500T
-489.484	1.601	766714	WORD	n/a	wordpools/wordpool_categorized_EN.txt	WILLOW	Trees	10	5	[0, 0, 0]	n/a	catFR1	1	R1500T
-487.883	0.95	768333	WORD_OFF	n/a	n/a	WILLOW	Trees	10	5	[0, 0, 0]	n/a	catFR1	1	R1500T
-486.933	1.617	769265	WORD	n/a	wordpools/wordpool_categorized_EN.txt	FINCH	Birds	11	5	[0, 0, 0]	n/a	catFR1	1	R1500T
-485.316	0.882	770884	WORD_OFF	n/a	n/a	FINCH	Birds	11	5	[0, 0, 0]	n/a	catFR1	1	R1500T
-484.434	1.601	771765	WORD	n/a	wordpools/wordpool_categorized_EN.txt	DOVE	Birds	12	5	[0, 0, 0]	n/a	catFR1	1	R1500T
-482.833	0.001	773364	WORD_OFF	n/a	n/a	DOVE	Birds	12	5	[0, 0, 0]	n/a	catFR1	1	R1500T
-482.832	0.0	773364	ENCODING_END	n/a	n/a	n/a	n/a	-999	5	[0, 0, 0]	n/a	catFR1	1	R1500T
-482.832	0.0	773364	DISTRACT_START	n/a	n/a	n/a	n/a	-999	5	[0, 0, 0]	n/a	catFR1	1	R1500T
-482.832	0.001	773364	START	n/a	n/a	n/a	n/a	-999	5	[-999, -999, -999]	n/a	catFR1	1	R1500T
-482.831	6.799	773365	PROB	6.799	n/a	n/a	n/a	-999	5	[7, 5, 6]	18	catFR1	1	R1500T
-476.032	4.25	780164	PROB	4.25	n/a	n/a	n/a	-999	5	[3, 1, 8]	12	catFR1	1	R1500T
-471.782	6.25	784414	PROB	6.25	n/a	n/a	n/a	-999	5	[4, 2, 3]	7	catFR1	1	R1500T
-465.532	4.883	790663	PROB	4.883	n/a	n/a	n/a	-999	5	[4, 1, 5]	10	catFR1	1	R1500T
-460.649	0.0	795542	DISTRACT_END	n/a	n/a	n/a	n/a	-999	5	[0, 0, 0]	n/a	catFR1	1	R1500T
-460.649	1.098	795546	STOP	n/a	n/a	n/a	n/a	-999	5	[-999, -999, -999]	n/a	catFR1	1	R1500T
-459.551	2.888	796646	REC_START	n/a	n/a	n/a	n/a	-999	5	[0, 0, 0]	n/a	catFR1	1	R1500T
-456.663	6.406	799532	REC_WORD_VV	6.406	n/a	<>	n/a	-999	5	[0, 0, 0]	n/a	catFR1	1	R1500T
-450.257	1.0	805938	REC_WORD_VV	1.0	n/a	<>	n/a	-999	5	[0, 0, 0]	n/a	catFR1	1	R1500T
-449.257	1.0	806938	REC_WORD_VV	1.0	n/a	<>	n/a	-999	5	[0, 0, 0]	n/a	catFR1	1	R1500T
-448.257	1.161	807938	REC_WORD_VV	1.161	n/a	<>	n/a	-999	5	[0, 0, 0]	n/a	catFR1	1	R1500T
-447.096	18.717	809099	REC_WORD_VV	18.717	n/a	<>	n/a	-999	5	[0, 0, 0]	n/a	catFR1	1	R1500T
-428.379	275.73	827813	REC_END	n/a	n/a	n/a	n/a	-999	5	[0, 0, 0]	n/a	catFR1	1	R1500T
-152.649	10.349	1103528	COUNTDOWN_START	n/a	n/a	n/a	n/a	-999	5	[0, 0, 0]	n/a	catFR1	1	R1500T
-142.3	0.0	1113873	COUNTDOWN_END	n/a	n/a	n/a	n/a	-999	5	[0, 0, 0]	n/a	catFR1	1	R1500T
-142.3	1.867	1113883	ENCODING_START	n/a	n/a	n/a	n/a	-999	6	[0, 0, 0]	n/a	catFR1	1	R1500T
-140.433	1.6	1115746	WORD	n/a	wordpools/wordpool_categorized_EN.txt	TRUMPET	Instruments	1	6	[0, 0, 0]	n/a	catFR1	1	R1500T
-138.833	0.933	1117345	WORD_OFF	n/a	n/a	TRUMPET	Instruments	1	6	[0, 0, 0]	n/a	catFR1	1	R1500T
-137.9	1.617	1118276	WORD	n/a	wordpools/wordpool_categorized_EN.txt	CELLO	Instruments	2	6	[0, 0, 0]	n/a	catFR1	1	R1500T
-136.283	0.783	1119896	WORD_OFF	n/a	n/a	CELLO	Instruments	2	6	[0, 0, 0]	n/a	catFR1	1	R1500T
-135.5	1.6	1120675	WORD	n/a	wordpools/wordpool_categorized_EN.txt	SLINKY	Toys	3	6	[0, 0, 0]	n/a	catFR1	1	R1500T
-133.9	0.817	1122275	WORD_OFF	n/a	n/a	SLINKY	Toys	3	6	[0, 0, 0]	n/a	catFR1	1	R1500T
-133.083	1.6	1123095	WORD	n/a	wordpools/wordpool_categorized_EN.txt	BARBIE	Toys	4	6	[0, 0, 0]	n/a	catFR1	1	R1500T
-131.483	0.766	1124694	WORD_OFF	n/a	n/a	BARBIE	Toys	4	6	[0, 0, 0]	n/a	catFR1	1	R1500T
-130.717	1.6	1125463	WORD	n/a	wordpools/wordpool_categorized_EN.txt	BEE	Insects	5	6	[0, 0, 0]	n/a	catFR1	1	R1500T
-129.117	0.951	1127063	WORD_OFF	n/a	n/a	BEE	Insects	5	6	[0, 0, 0]	n/a	catFR1	1	R1500T
-128.166	1.6	1128014	WORD	n/a	wordpools/wordpool_categorized_EN.txt	CRICKET	Insects	6	6	[0, 0, 0]	n/a	catFR1	1	R1500T
-126.566	0.766	1129613	WORD_OFF	n/a	n/a	CRICKET	Insects	6	6	[0, 0, 0]	n/a	catFR1	1	R1500T
-125.8	1.6	1130383	WORD	n/a	wordpools/wordpool_categorized_EN.txt	BASS	Instruments	7	6	[0, 0, 0]	n/a	catFR1	1	R1500T
-124.2	0.884	1131982	WORD_OFF	n/a	n/a	BASS	Instruments	7	6	[0, 0, 0]	n/a	catFR1	1	R1500T
-123.316	1.616	1132863	WORD	n/a	wordpools/wordpool_categorized_EN.txt	TROMBONE	Instruments	8	6	[0, 0, 0]	n/a	catFR1	1	R1500T
-121.7	0.85	1134482	WORD_OFF	n/a	n/a	TROMBONE	Instruments	8	6	[0, 0, 0]	n/a	catFR1	1	R1500T
-120.85	1.617	1135323	WORD	n/a	wordpools/wordpool_categorized_EN.txt	FRISBEE	Toys	9	6	[0, 0, 0]	n/a	catFR1	1	R1500T
-119.233	0.9	1136942	WORD_OFF	n/a	n/a	FRISBEE	Toys	9	6	[0, 0, 0]	n/a	catFR1	1	R1500T
-118.333	1.6	1137843	WORD	n/a	wordpools/wordpool_categorized_EN.txt	BALL	Toys	10	6	[0, 0, 0]	n/a	catFR1	1	R1500T
-116.733	0.799	1139442	WORD_OFF	n/a	n/a	BALL	Toys	10	6	[0, 0, 0]	n/a	catFR1	1	R1500T
-115.934	1.6	1140242	WORD	n/a	wordpools/wordpool_categorized_EN.txt	ANT	Insects	11	6	[0, 0, 0]	n/a	catFR1	1	R1500T
-114.334	0.8	1141841	WORD_OFF	n/a	n/a	ANT	Insects	11	6	[0, 0, 0]	n/a	catFR1	1	R1500T
-113.534	1.6	1142641	WORD	n/a	wordpools/wordpool_categorized_EN.txt	ROACH	Insects	12	6	[0, 0, 0]	n/a	catFR1	1	R1500T
-111.934	0.001	1144240	WORD_OFF	n/a	n/a	ROACH	Insects	12	6	[0, 0, 0]	n/a	catFR1	1	R1500T
-111.933	0.0	1144244	PROB	0.0	n/a	n/a	n/a	-999	6	[1, 7, 6]	14	catFR1	1	R1500T
-111.933	0.0	1144244	START	n/a	n/a	n/a	n/a	-999	6	[-999, -999, -999]	n/a	catFR1	1	R1500T
-111.933	0.0	1144250	ENCODING_END	n/a	n/a	n/a	n/a	-999	6	[0, 0, 0]	n/a	catFR1	1	R1500T
-111.933	4.95	1144250	DISTRACT_START	n/a	n/a	n/a	n/a	-999	6	[0, 0, 0]	n/a	catFR1	1	R1500T
-106.983	4.151	1149194	PROB	4.151	n/a	n/a	n/a	-999	6	[1, 6, 6]	13	catFR1	1	R1500T
-102.832	5.366	1153344	PROB	5.366	n/a	n/a	n/a	-999	6	[7, 5, 3]	15	catFR1	1	R1500T
-97.466	6.75	1158710	PROB	6.75	n/a	n/a	n/a	-999	6	[6, 6, 8]	20	catFR1	1	R1500T
-90.716	0.0	1165457	DISTRACT_END	n/a	n/a	n/a	n/a	-999	6	[0, 0, 0]	n/a	catFR1	1	R1500T
-90.716	1.016	1165460	STOP	n/a	n/a	n/a	n/a	-999	6	[-999, -999, -999]	n/a	catFR1	1	R1500T
-89.7	1.088	1166479	REC_START	n/a	n/a	n/a	n/a	-999	6	[0, 0, 0]	n/a	catFR1	1	R1500T
-88.612	1.107	1167564	REC_WORD	1.107	n/a	TRUMPET	Instruments	1	6	[0, 0, 0]	n/a	catFR1	1	R1500T
-87.505	1.0	1168671	REC_WORD	1.0	n/a	CELLO	Instruments	2	6	[0, 0, 0]	n/a	catFR1	1	R1500T
-86.505	0.848	1169670	REC_WORD	0.848	n/a	CELLO	Instruments	2	6	[0, 0, 0]	n/a	catFR1	1	R1500T
-85.657	1.0	1170518	REC_WORD	1.0	n/a	TROMBONE	Instruments	8	6	[0, 0, 0]	n/a	catFR1	1	R1500T
-84.657	1.248	1171518	REC_WORD	1.248	n/a	TROMBONE	Instruments	8	6	[0, 0, 0]	n/a	catFR1	1	R1500T
-83.409	1.0	1172766	REC_WORD	1.0	n/a	BASS	Instruments	7	6	[0, 0, 0]	n/a	catFR1	1	R1500T
-82.409	2.087	1173766	REC_WORD	2.087	n/a	BASS	Instruments	7	6	[0, 0, 0]	n/a	catFR1	1	R1500T
-80.322	21.805	1175853	REC_WORD_VV	21.805	n/a	<>	n/a	-999	6	[0, 0, 0]	n/a	catFR1	1	R1500T
-58.517	11.568	1197657	REC_END	n/a	n/a	n/a	n/a	-999	6	[0, 0, 0]	n/a	catFR1	1	R1500T
-46.949	10.35	1209226	COUNTDOWN_START	n/a	n/a	n/a	n/a	-999	6	[0, 0, 0]	n/a	catFR1	1	R1500T
-36.599	0.0	1219572	COUNTDOWN_END	n/a	n/a	n/a	n/a	-999	6	[0, 0, 0]	n/a	catFR1	1	R1500T
-36.599	2.233	1219582	ENCODING_START	n/a	n/a	n/a	n/a	-999	7	[0, 0, 0]	n/a	catFR1	1	R1500T
-34.366	1.616	1221809	WORD	n/a	wordpools/wordpool_categorized_EN.txt	CLOUD	Weather	1	7	[0, 0, 0]	n/a	catFR1	1	R1500T
-32.75	0.866	1223418	WORD_OFF	n/a	n/a	CLOUD	Weather	1	7	[0, 0, 0]	n/a	catFR1	1	R1500T
-31.884	1.601	1224289	WORD	n/a	wordpools/wordpool_categorized_EN.txt	WIND	Weather	2	7	[0, 0, 0]	n/a	catFR1	1	R1500T
-30.283	0.95	1225888	WORD_OFF	n/a	n/a	WIND	Weather	2	7	[0, 0, 0]	n/a	catFR1	1	R1500T
-29.333	1.6	1226840	WORD	n/a	wordpools/wordpool_categorized_EN.txt	VALLEY	Landscapes	3	7	[0, 0, 0]	n/a	catFR1	1	R1500T
-27.733	0.949	1228439	WORD_OFF	n/a	n/a	VALLEY	Landscapes	3	7	[0, 0, 0]	n/a	catFR1	1	R1500T
-26.784	1.601	1229390	WORD	n/a	wordpools/wordpool_categorized_EN.txt	MOUNTAIN	Landscapes	4	7	[0, 0, 0]	n/a	catFR1	1	R1500T
-25.183	0.883	1230990	WORD_OFF	n/a	n/a	MOUNTAIN	Landscapes	4	7	[0, 0, 0]	n/a	catFR1	1	R1500T
-24.3	1.616	1231870	WORD	n/a	wordpools/wordpool_categorized_EN.txt	RUM	Beverages	5	7	[0, 0, 0]	n/a	catFR1	1	R1500T
-22.684	0.934	1233490	WORD_OFF	n/a	n/a	RUM	Beverages	5	7	[0, 0, 0]	n/a	catFR1	1	R1500T
-21.75	1.599	1234421	WORD	n/a	wordpools/wordpool_categorized_EN.txt	WATER	Beverages	6	7	[0, 0, 0]	n/a	catFR1	1	R1500T
-20.151	0.952	1236021	WORD_OFF	n/a	n/a	WATER	Beverages	6	7	[0, 0, 0]	n/a	catFR1	1	R1500T
-19.199	1.615	1236972	WORD	n/a	wordpools/wordpool_categorized_EN.txt	HUMIDITY	Weather	7	7	[0, 0, 0]	n/a	catFR1	1	R1500T
-17.584	0.817	1238592	WORD_OFF	n/a	n/a	HUMIDITY	Weather	7	7	[0, 0, 0]	n/a	catFR1	1	R1500T
-16.767	1.601	1239401	WORD	n/a	wordpools/wordpool_categorized_EN.txt	LIGHTNING	Weather	8	7	[0, 0, 0]	n/a	catFR1	1	R1500T
-15.166	0.817	1241001	WORD_OFF	n/a	n/a	LIGHTNING	Weather	8	7	[0, 0, 0]	n/a	catFR1	1	R1500T
-14.349	1.616	1241821	WORD	n/a	wordpools/wordpool_categorized_EN.txt	BEER	Beverages	9	7	[0, 0, 0]	n/a	catFR1	1	R1500T
-12.733	0.834	1243440	WORD_OFF	n/a	n/a	BEER	Beverages	9	7	[0, 0, 0]	n/a	catFR1	1	R1500T
-11.899	1.6	1244270	WORD	n/a	wordpools/wordpool_categorized_EN.txt	COLA	Beverages	10	7	[0, 0, 0]	n/a	catFR1	1	R1500T
-10.299	0.933	1245870	WORD_OFF	n/a	n/a	COLA	Beverages	10	7	[0, 0, 0]	n/a	catFR1	1	R1500T
-9.366	1.617	1246801	WORD	n/a	wordpools/wordpool_categorized_EN.txt	LAKE	Landscapes	11	7	[0, 0, 0]	n/a	catFR1	1	R1500T
-7.749	0.783	1248421	WORD_OFF	n/a	n/a	LAKE	Landscapes	11	7	[0, 0, 0]	n/a	catFR1	1	R1500T
-6.966	1.617	1249210	WORD	n/a	wordpools/wordpool_categorized_EN.txt	BEACH	Landscapes	12	7	[0, 0, 0]	n/a	catFR1	1	R1500T
-5.349	0.001	1250820	WORD_OFF	n/a	n/a	BEACH	Landscapes	12	7	[0, 0, 0]	n/a	catFR1	1	R1500T
-5.348	0.0	1250820	ENCODING_END	n/a	n/a	n/a	n/a	-999	7	[0, 0, 0]	n/a	catFR1	1	R1500T
-5.349	0.001	1250822	PROB	0.001	n/a	n/a	n/a	-999	7	[2, 2, 5]	9	catFR1	1	R1500T
-5.348	0.0	1250823	START	n/a	n/a	n/a	n/a	-999	7	[-999, -999, -999]	n/a	catFR1	1	R1500T
-5.348	0.0	1250830	DISTRACT_START	n/a	n/a	n/a	n/a	-999	7	[0, 0, 0]	n/a	catFR1	1	R1500T
