onset	duration	sample	trial_type	response_time	stim_file	item_name	category	serialpos	list	test	answer	experiment	session	subject
0.0	164.865	18957	INSTRUCT_START	n/a	n/a	n/a	n/a	-999	-999	[0, 0, 0]	n/a	catFR1	0	R1456D
164.865	39.566	183814	INSTRUCT_END	n/a	n/a	n/a	n/a	-999	-999	[0, 0, 0]	n/a	catFR1	0	R1456D
204.431	10.0	223376	COUNTDOWN_START	n/a	n/a	n/a	n/a	-999	-999	[0, 0, 0]	n/a	catFR1	0	R1456D
214.782	0.0	233725	COUNTDOWN_END	n/a	n/a	n/a	n/a	-999	-999	[0, 0, 0]	n/a	catFR1	0	R1456D
214.782	2.333	233725	ENCODING_START	n/a	n/a	n/a	n/a	-999	-1	[0, 0, 0]	n/a	catFR1	0	R1456D
217.115	1.6	236062	WORD	n/a	n/a	STOVE	Appliances	1	-1	[0, 0, 0]	n/a	catFR1	0	R1456D
218.731	0.8	237676	WORD_OFF	n/a	n/a	STOVE	Appliances	1	-1	[0, 0, 0]	n/a	catFR1	0	R1456D
219.531	1.6	238475	WORD	n/a	n/a	OVEN	Appliances	2	-1	[0, 0, 0]	n/a	catFR1	0	R1456D
221.132	0.883	240080	WORD_OFF	n/a	n/a	OVEN	Appliances	2	-1	[0, 0, 0]	n/a	catFR1	0	R1456D
222.015	1.6	240963	WORD	n/a	n/a	FRISBEE	Toys	3	-1	[0, 0, 0]	n/a	catFR1	0	R1456D
223.615	0.883	242560	WORD_OFF	n/a	n/a	FRISBEE	Toys	3	-1	[0, 0, 0]	n/a	catFR1	0	R1456D
224.498	1.6	243443	WORD	n/a	n/a	MARBLES	Toys	4	-1	[0, 0, 0]	n/a	catFR1	0	R1456D
226.115	0.9	245057	WORD_OFF	n/a	n/a	MARBLES	Toys	4	-1	[0, 0, 0]	n/a	catFR1	0	R1456D
227.015	1.6	245957	WORD	n/a	n/a	VALLEY	Landscapes	5	-1	[0, 0, 0]	n/a	catFR1	0	R1456D
228.631	0.917	247579	WORD_OFF	n/a	n/a	VALLEY	Landscapes	5	-1	[0, 0, 0]	n/a	catFR1	0	R1456D
229.548	1.6	248495	WORD	n/a	n/a	RIVER	Landscapes	6	-1	[0, 0, 0]	n/a	catFR1	0	R1456D
231.165	0.783	250109	WORD_OFF	n/a	n/a	RIVER	Landscapes	6	-1	[0, 0, 0]	n/a	catFR1	0	R1456D
231.948	1.6	250891	WORD	n/a	n/a	DOLLHOUSE	Toys	7	-1	[0, 0, 0]	n/a	catFR1	0	R1456D
233.548	0.833	252489	WORD_OFF	n/a	n/a	DOLLHOUSE	Toys	7	-1	[0, 0, 0]	n/a	catFR1	0	R1456D
234.381	1.6	253321	WORD	n/a	n/a	BLOCKS	Toys	8	-1	[0, 0, 0]	n/a	catFR1	0	R1456D
235.982	0.882	254927	WORD_OFF	n/a	n/a	BLOCKS	Toys	8	-1	[0, 0, 0]	n/a	catFR1	0	R1456D
236.864	1.6	255809	WORD	n/a	n/a	FREEZER	Appliances	9	-1	[0, 0, 0]	n/a	catFR1	0	R1456D
238.465	1.0	257407	WORD_OFF	n/a	n/a	FREEZER	Appliances	9	-1	[0, 0, 0]	n/a	catFR1	0	R1456D
239.465	1.6	258407	WORD	n/a	n/a	IRON	Appliances	10	-1	[0, 0, 0]	n/a	catFR1	0	R1456D
241.08	1.001	260021	WORD_OFF	n/a	n/a	IRON	Appliances	10	-1	[0, 0, 0]	n/a	catFR1	0	R1456D
242.081	1.6	261021	WORD	n/a	n/a	ISLAND	Landscapes	11	-1	[0, 0, 0]	n/a	catFR1	0	R1456D
243.697	0.985	262644	WORD_OFF	n/a	n/a	ISLAND	Landscapes	11	-1	[0, 0, 0]	n/a	catFR1	0	R1456D
244.682	1.6	263628	WORD	n/a	n/a	HILLS	Landscapes	12	-1	[0, 0, 0]	n/a	catFR1	0	R1456D
246.297	0.002	265242	WORD_OFF	n/a	n/a	HILLS	Landscapes	12	-1	[0, 0, 0]	n/a	catFR1	0	R1456D
246.299	0.0	265242	ENCODING_END	n/a	n/a	n/a	n/a	-999	-1	[0, 0, 0]	n/a	catFR1	0	R1456D
246.299	0.0	265242	DISTRACT_START	n/a	n/a	n/a	n/a	-999	-1	[0, 0, 0]	n/a	catFR1	0	R1456D
246.299	0.0	265244	START	n/a	n/a	n/a	n/a	-999	-1	[-999, -999, -999]	n/a	catFR1	0	R1456D
246.299	12.233	265244	PROB	12.217	n/a	n/a	n/a	-999	-1	[3, 6, 6]	15.0	catFR1	0	R1456D
258.532	6.75	277476	PROB	6.733	n/a	n/a	n/a	-999	-1	[7, 6, 4]	17.0	catFR1	0	R1456D
265.282	7.399	284226	PROB	7.382	n/a	n/a	n/a	-999	-1	[5, 4, 4]	13.0	catFR1	0	R1456D
272.681	0.0	291622	DISTRACT_END	n/a	n/a	n/a	n/a	-999	-1	[0, 0, 0]	n/a	catFR1	0	R1456D
272.681	2.333	291624	STOP	n/a	n/a	n/a	n/a	-999	-1	[-999, -999, -999]	n/a	catFR1	0	R1456D
275.014	29.05	293959	REC_START	n/a	n/a	n/a	n/a	-999	-1	[0, 0, 0]	n/a	catFR1	0	R1456D
304.064	1.141	323006	REC_WORD_VV	29.05	n/a	<>	n/a	-999	-1	[0, 0, 0]	n/a	catFR1	0	R1456D
305.205	29.059	324148	REC_END	n/a	n/a	n/a	n/a	-999	-1	[0, 0, 0]	n/a	catFR1	0	R1456D
334.264	10.0	353202	COUNTDOWN_START	n/a	n/a	n/a	n/a	-999	1	[0, 0, 0]	n/a	catFR1	0	R1456D
344.613	0.0	363550	COUNTDOWN_END	n/a	n/a	n/a	n/a	-999	1	[0, 0, 0]	n/a	catFR1	0	R1456D
344.613	1.919	363550	ENCODING_START	n/a	n/a	n/a	n/a	-999	1	[0, 0, 0]	n/a	catFR1	0	R1456D
346.532	1.6	365467	WORD	n/a	wordpools/wordpool_categorized_EN.txt	CEILING	Building	1	1	[0, 0, 0]	n/a	catFR1	0	R1456D
348.148	0.866	367090	WORD_OFF	n/a	n/a	CEILING	Building	1	1	[0, 0, 0]	n/a	catFR1	0	R1456D
349.014	1.6	367956	WORD	n/a	wordpools/wordpool_categorized_EN.txt	BATHROOM	Building	2	1	[0, 0, 0]	n/a	catFR1	0	R1456D
350.615	0.983	369553	WORD_OFF	n/a	n/a	BATHROOM	Building	2	1	[0, 0, 0]	n/a	catFR1	0	R1456D
351.598	1.6	370537	WORD	n/a	wordpools/wordpool_categorized_EN.txt	FLEECE	Fabric	3	1	[0, 0, 0]	n/a	catFR1	0	R1456D
353.198	0.765	372134	WORD_OFF	n/a	n/a	FLEECE	Fabric	3	1	[0, 0, 0]	n/a	catFR1	0	R1456D
353.963	1.6	372899	WORD	n/a	wordpools/wordpool_categorized_EN.txt	NYLON	Fabric	4	1	[0, 0, 0]	n/a	catFR1	0	R1456D
355.564	0.883	374505	WORD_OFF	n/a	n/a	NYLON	Fabric	4	1	[0, 0, 0]	n/a	catFR1	0	R1456D
356.447	1.6	375387	WORD	n/a	wordpools/wordpool_categorized_EN.txt	FINCH	Birds	5	1	[0, 0, 0]	n/a	catFR1	0	R1456D
358.048	0.767	376985	WORD_OFF	n/a	n/a	FINCH	Birds	5	1	[0, 0, 0]	n/a	catFR1	0	R1456D
358.815	1.6	377750	WORD	n/a	wordpools/wordpool_categorized_EN.txt	PIGEON	Birds	6	1	[0, 0, 0]	n/a	catFR1	0	R1456D
360.431	0.817	379372	WORD_OFF	n/a	n/a	PIGEON	Birds	6	1	[0, 0, 0]	n/a	catFR1	0	R1456D
361.248	1.6	380188	WORD	n/a	wordpools/wordpool_categorized_EN.txt	FOUNDATION	Building	7	1	[0, 0, 0]	n/a	catFR1	0	R1456D
362.848	0.783	381785	WORD_OFF	n/a	n/a	FOUNDATION	Building	7	1	[0, 0, 0]	n/a	catFR1	0	R1456D
363.631	1.6	382567	WORD	n/a	wordpools/wordpool_categorized_EN.txt	DOOR	Building	8	1	[0, 0, 0]	n/a	catFR1	0	R1456D
365.231	0.783	384164	WORD_OFF	n/a	n/a	DOOR	Building	8	1	[0, 0, 0]	n/a	catFR1	0	R1456D
366.014	1.6	384954	WORD	n/a	wordpools/wordpool_categorized_EN.txt	CARDINAL	Birds	9	1	[0, 0, 0]	n/a	catFR1	0	R1456D
367.614	0.85	386551	WORD_OFF	n/a	n/a	CARDINAL	Birds	9	1	[0, 0, 0]	n/a	catFR1	0	R1456D
368.464	1.6	387401	WORD	n/a	wordpools/wordpool_categorized_EN.txt	SPARROW	Birds	10	1	[0, 0, 0]	n/a	catFR1	0	R1456D
370.064	0.934	388998	WORD_OFF	n/a	n/a	SPARROW	Birds	10	1	[0, 0, 0]	n/a	catFR1	0	R1456D
370.998	1.6	389931	WORD	n/a	wordpools/wordpool_categorized_EN.txt	SUEDE	Fabric	11	1	[0, 0, 0]	n/a	catFR1	0	R1456D
372.615	0.8	391553	WORD_OFF	n/a	n/a	SUEDE	Fabric	11	1	[0, 0, 0]	n/a	catFR1	0	R1456D
373.415	1.6	392352	WORD	n/a	wordpools/wordpool_categorized_EN.txt	LINEN	Fabric	12	1	[0, 0, 0]	n/a	catFR1	0	R1456D
375.015	0.001	393949	WORD_OFF	n/a	n/a	LINEN	Fabric	12	1	[0, 0, 0]	n/a	catFR1	0	R1456D
375.016	0.0	393949	ENCODING_END	n/a	n/a	n/a	n/a	-999	1	[0, 0, 0]	n/a	catFR1	0	R1456D
375.015	0.001	393953	PROB	12.249	n/a	n/a	n/a	-999	1	[3, 5, 6]	14.0	catFR1	0	R1456D
375.016	0.0	393954	START	n/a	n/a	n/a	n/a	-999	1	[-999, -999, -999]	n/a	catFR1	0	R1456D
375.016	12.265	393958	DISTRACT_START	n/a	n/a	n/a	n/a	-999	1	[0, 0, 0]	n/a	catFR1	0	R1456D
387.281	6.034	406218	PROB	6.016	n/a	n/a	n/a	-999	1	[8, 6, 4]	18.0	catFR1	0	R1456D
393.315	4.483	412252	PROB	4.467	n/a	n/a	n/a	-999	1	[1, 8, 3]	13.0	catFR1	0	R1456D
397.798	0.0	416732	DISTRACT_END	n/a	n/a	n/a	n/a	-999	1	[0, 0, 0]	n/a	catFR1	0	R1456D
397.798	2.383	416735	STOP	n/a	n/a	n/a	n/a	-999	1	[-999, -999, -999]	n/a	catFR1	0	R1456D
400.181	0.0	419118	REC_WORD_VV	0.0	n/a	<>	n/a	-999	1	[0, 0, 0]	n/a	catFR1	0	R1456D
400.181	1.235	419119	REC_START	n/a	n/a	n/a	n/a	-999	1	[0, 0, 0]	n/a	catFR1	0	R1456D
401.416	0.637	420352	REC_WORD_VV	1.235	n/a	<>	n/a	-999	1	[0, 0, 0]	n/a	catFR1	0	R1456D
402.053	3.677	420989	REC_WORD	1.872	n/a	CEILING	Building	1	1	[0, 0, 0]	n/a	catFR1	0	R1456D
405.73	4.032	424666	REC_WORD	5.549	n/a	CEILING	Building	1	1	[0, 0, 0]	n/a	catFR1	0	R1456D
409.762	5.566	428698	REC_WORD_VV	9.581	n/a	<>	n/a	-999	1	[0, 0, 0]	n/a	catFR1	0	R1456D
415.328	1.0	434264	REC_WORD_VV	15.147	n/a	<>	n/a	-999	1	[0, 0, 0]	n/a	catFR1	0	R1456D
416.328	1.0	435264	REC_WORD_VV	16.147	n/a	<>	n/a	-999	1	[0, 0, 0]	n/a	catFR1	0	R1456D
417.328	1.0	436264	REC_WORD_VV	17.147	n/a	<>	n/a	-999	1	[0, 0, 0]	n/a	catFR1	0	R1456D
418.328	1.0	437264	REC_WORD_VV	18.147	n/a	<>	n/a	-999	1	[0, 0, 0]	n/a	catFR1	0	R1456D
419.328	1.0	438263	REC_WORD_VV	19.147	n/a	<>	n/a	-999	1	[0, 0, 0]	n/a	catFR1	0	R1456D
420.328	1.0	439263	REC_WORD_VV	20.147	n/a	<>	n/a	-999	1	[0, 0, 0]	n/a	catFR1	0	R1456D
421.328	1.0	440263	REC_WORD_VV	21.147	n/a	<>	n/a	-999	1	[0, 0, 0]	n/a	catFR1	0	R1456D
422.328	1.0	441263	REC_WORD_VV	22.147	n/a	<>	n/a	-999	1	[0, 0, 0]	n/a	catFR1	0	R1456D
423.328	1.0	442263	REC_WORD_VV	23.147	n/a	<>	n/a	-999	1	[0, 0, 0]	n/a	catFR1	0	R1456D
424.328	3.272	443263	REC_WORD_VV	24.147	n/a	<>	n/a	-999	1	[0, 0, 0]	n/a	catFR1	0	R1456D
427.6	2.776	446535	REC_WORD_VV	27.419	n/a	<>	n/a	-999	1	[0, 0, 0]	n/a	catFR1	0	R1456D
430.376	1113.473	449308	REC_END	n/a	n/a	n/a	n/a	-999	1	[0, 0, 0]	n/a	catFR1	0	R1456D
1543.849	10.0	1562726	COUNTDOWN_START	n/a	n/a	n/a	n/a	-999	2	[0, 0, 0]	n/a	catFR1	0	R1456D
1554.197	0.0	1573067	COUNTDOWN_END	n/a	n/a	n/a	n/a	-999	2	[0, 0, 0]	n/a	catFR1	0	R1456D
1554.197	1.867	1573075	ENCODING_START	n/a	n/a	n/a	n/a	-999	2	[0, 0, 0]	n/a	catFR1	0	R1456D
1556.064	1.6	1574933	WORD	n/a	wordpools/wordpool_categorized_EN.txt	BULL	FarmAnimals	1	2	[0, 0, 0]	n/a	catFR1	0	R1456D
1557.664	0.917	1576539	WORD_OFF	n/a	n/a	BULL	FarmAnimals	1	2	[0, 0, 0]	n/a	catFR1	0	R1456D
1558.581	1.6	1577455	WORD	n/a	wordpools/wordpool_categorized_EN.txt	ROOSTER	FarmAnimals	2	2	[0, 0, 0]	n/a	catFR1	0	R1456D
1560.181	0.884	1579052	WORD_OFF	n/a	n/a	ROOSTER	FarmAnimals	2	2	[0, 0, 0]	n/a	catFR1	0	R1456D
1561.065	1.6	1579935	WORD	n/a	wordpools/wordpool_categorized_EN.txt	DRILL	Tools	3	2	[0, 0, 0]	n/a	catFR1	0	R1456D
1562.665	0.983	1581541	WORD_OFF	n/a	n/a	DRILL	Tools	3	2	[0, 0, 0]	n/a	catFR1	0	R1456D
1563.648	1.6	1582524	WORD	n/a	wordpools/wordpool_categorized_EN.txt	RATCHET	Tools	4	2	[0, 0, 0]	n/a	catFR1	0	R1456D
1565.248	0.766	1584122	WORD_OFF	n/a	n/a	RATCHET	Tools	4	2	[0, 0, 0]	n/a	catFR1	0	R1456D
1566.014	1.6	1584887	WORD	n/a	wordpools/wordpool_categorized_EN.txt	CAULIFLOWER	Vegetables	5	2	[0, 0, 0]	n/a	catFR1	0	R1456D
1567.615	0.967	1586484	WORD_OFF	n/a	n/a	CAULIFLOWER	Vegetables	5	2	[0, 0, 0]	n/a	catFR1	0	R1456D
1568.582	1.6	1587451	WORD	n/a	wordpools/wordpool_categorized_EN.txt	BROCCOLI	Vegetables	6	2	[0, 0, 0]	n/a	catFR1	0	R1456D
1570.199	0.849	1589073	WORD_OFF	n/a	n/a	BROCCOLI	Vegetables	6	2	[0, 0, 0]	n/a	catFR1	0	R1456D
1571.048	1.6	1589922	WORD	n/a	wordpools/wordpool_categorized_EN.txt	SANDER	Tools	7	2	[0, 0, 0]	n/a	catFR1	0	R1456D
1572.648	0.884	1591520	WORD_OFF	n/a	n/a	SANDER	Tools	7	2	[0, 0, 0]	n/a	catFR1	0	R1456D
1573.532	1.6	1592402	WORD	n/a	wordpools/wordpool_categorized_EN.txt	PLIERS	Tools	8	2	[0, 0, 0]	n/a	catFR1	0	R1456D
1575.148	0.834	1594017	WORD_OFF	n/a	n/a	PLIERS	Tools	8	2	[0, 0, 0]	n/a	catFR1	0	R1456D
1575.982	1.6	1594857	WORD	n/a	wordpools/wordpool_categorized_EN.txt	HEN	FarmAnimals	9	2	[0, 0, 0]	n/a	catFR1	0	R1456D
1577.598	0.833	1596471	WORD_OFF	n/a	n/a	HEN	FarmAnimals	9	2	[0, 0, 0]	n/a	catFR1	0	R1456D
1578.431	1.6	1597304	WORD	n/a	wordpools/wordpool_categorized_EN.txt	CALF	FarmAnimals	10	2	[0, 0, 0]	n/a	catFR1	0	R1456D
1580.031	0.901	1598901	WORD_OFF	n/a	n/a	CALF	FarmAnimals	10	2	[0, 0, 0]	n/a	catFR1	0	R1456D
1580.932	1.6	1599800	WORD	n/a	wordpools/wordpool_categorized_EN.txt	SPINACH	Vegetables	11	2	[0, 0, 0]	n/a	catFR1	0	R1456D
1582.548	0.984	1601423	WORD_OFF	n/a	n/a	SPINACH	Vegetables	11	2	[0, 0, 0]	n/a	catFR1	0	R1456D
1583.532	1.6	1602406	WORD	n/a	wordpools/wordpool_categorized_EN.txt	CARROT	Vegetables	12	2	[0, 0, 0]	n/a	catFR1	0	R1456D
1585.148	0.001	1604021	WORD_OFF	n/a	n/a	CARROT	Vegetables	12	2	[0, 0, 0]	n/a	catFR1	0	R1456D
1585.149	0.0	1604021	ENCODING_END	n/a	n/a	n/a	n/a	-999	2	[0, 0, 0]	n/a	catFR1	0	R1456D
1585.149	0.0	1604021	DISTRACT_START	n/a	n/a	n/a	n/a	-999	2	[0, 0, 0]	n/a	catFR1	0	R1456D
1585.148	0.001	1604021	PROB	7.1	n/a	n/a	n/a	-999	2	[8, 5, 3]	16.0	catFR1	0	R1456D
1585.149	7.117	1604022	START	n/a	n/a	n/a	n/a	-999	2	[-999, -999, -999]	n/a	catFR1	0	R1456D
1592.266	7.283	1611139	PROB	7.266	n/a	n/a	n/a	-999	2	[7, 5, 3]	15.0	catFR1	0	R1456D
1599.549	4.582	1618421	PROB	4.566	n/a	n/a	n/a	-999	2	[2, 6, 4]	12.0	catFR1	0	R1456D
1604.131	4.834	1623003	PROB	4.817	n/a	n/a	n/a	-999	2	[4, 7, 7]	18.0	catFR1	0	R1456D
1608.965	0.0	1627837	DISTRACT_END	n/a	n/a	n/a	n/a	-999	2	[0, 0, 0]	n/a	catFR1	0	R1456D
1608.965	2.216	1627837	STOP	n/a	n/a	n/a	n/a	-999	2	[-999, -999, -999]	n/a	catFR1	0	R1456D
1611.181	1.394	1630048	REC_START	n/a	n/a	n/a	n/a	-999	2	[0, 0, 0]	n/a	catFR1	0	R1456D
1612.575	1.0	1631446	REC_WORD_VV	1.394	n/a	<>	n/a	-999	2	[0, 0, 0]	n/a	catFR1	0	R1456D
1613.575	1.0	1632446	REC_WORD_VV	2.394	n/a	<>	n/a	-999	2	[0, 0, 0]	n/a	catFR1	0	R1456D
1614.575	1.0	1633446	REC_WORD_VV	3.394	n/a	<>	n/a	-999	2	[0, 0, 0]	n/a	catFR1	0	R1456D
1615.575	3.003	1634446	REC_WORD_VV	4.394	n/a	<>	n/a	-999	2	[0, 0, 0]	n/a	catFR1	0	R1456D
1618.578	1.004	1637449	REC_WORD_VV	7.397	n/a	<>	n/a	-999	2	[0, 0, 0]	n/a	catFR1	0	R1456D
1619.582	3.296	1638453	REC_WORD	8.401	n/a	BULL	FarmAnimals	1	2	[0, 0, 0]	n/a	catFR1	0	R1456D
1622.878	1.674	1641749	REC_WORD_VV	11.697	n/a	<>	n/a	-999	2	[0, 0, 0]	n/a	catFR1	0	R1456D
1624.552	1.0	1643423	REC_WORD_VV	13.371	n/a	<>	n/a	-999	2	[0, 0, 0]	n/a	catFR1	0	R1456D
1625.552	5.349	1644423	REC_WORD_VV	14.371	n/a	<>	n/a	-999	2	[0, 0, 0]	n/a	catFR1	0	R1456D
1630.901	2.035	1649772	REC_WORD_VV	19.72	n/a	<>	n/a	-999	2	[0, 0, 0]	n/a	catFR1	0	R1456D
1632.936	1.0	1651806	REC_WORD_VV	21.755	n/a	<>	n/a	-999	2	[0, 0, 0]	n/a	catFR1	0	R1456D
1633.936	1.0	1652806	REC_WORD_VV	22.755	n/a	<>	n/a	-999	2	[0, 0, 0]	n/a	catFR1	0	R1456D
1634.936	0.324	1653806	REC_WORD_VV	23.755	n/a	<>	n/a	-999	2	[0, 0, 0]	n/a	catFR1	0	R1456D
1635.26	2.696	1654130	REC_WORD	24.079	n/a	FULL	n/a	-999	2	[0, 0, 0]	n/a	catFR1	0	R1456D
1637.956	1.0	1656826	REC_WORD_VV	26.775	n/a	<>	n/a	-999	2	[0, 0, 0]	n/a	catFR1	0	R1456D
1638.956	1.0	1657826	REC_WORD_VV	27.775	n/a	<>	n/a	-999	2	[0, 0, 0]	n/a	catFR1	0	R1456D
1639.956	1.422	1658826	REC_WORD_VV	28.775	n/a	<>	n/a	-999	2	[0, 0, 0]	n/a	catFR1	0	R1456D
1641.378	27.019	1660245	REC_END	n/a	n/a	n/a	n/a	-999	2	[0, 0, 0]	n/a	catFR1	0	R1456D
1668.397	10.0	1687264	COUNTDOWN_START	n/a	n/a	n/a	n/a	-999	3	[0, 0, 0]	n/a	catFR1	0	R1456D
1678.748	0.0	1697613	COUNTDOWN_END	n/a	n/a	n/a	n/a	-999	3	[0, 0, 0]	n/a	catFR1	0	R1456D
1678.748	2.05	1697613	ENCODING_START	n/a	n/a	n/a	n/a	-999	3	[0, 0, 0]	n/a	catFR1	0	R1456D
1680.798	1.6	1699664	WORD	n/a	wordpools/wordpool_categorized_EN.txt	RUM	Beverages	1	3	[0, 0, 0]	n/a	catFR1	0	R1456D
1682.398	0.833	1701262	WORD_OFF	n/a	n/a	RUM	Beverages	1	3	[0, 0, 0]	n/a	catFR1	0	R1456D
1683.231	1.6	1702094	WORD	n/a	wordpools/wordpool_categorized_EN.txt	MILK	Beverages	2	3	[0, 0, 0]	n/a	catFR1	0	R1456D
1684.831	0.834	1703700	WORD_OFF	n/a	n/a	MILK	Beverages	2	3	[0, 0, 0]	n/a	catFR1	0	R1456D
1685.665	1.6	1704532	WORD	n/a	wordpools/wordpool_categorized_EN.txt	GRAPE	Fruit	3	3	[0, 0, 0]	n/a	catFR1	0	R1456D
1687.265	0.967	1706129	WORD_OFF	n/a	n/a	GRAPE	Fruit	3	3	[0, 0, 0]	n/a	catFR1	0	R1456D
1688.232	1.6	1707096	WORD	n/a	wordpools/wordpool_categorized_EN.txt	BLUEBERRY	Fruit	4	3	[0, 0, 0]	n/a	catFR1	0	R1456D
1689.848	0.867	1708710	WORD_OFF	n/a	n/a	BLUEBERRY	Fruit	4	3	[0, 0, 0]	n/a	catFR1	0	R1456D
1690.715	1.6	1709584	WORD	n/a	wordpools/wordpool_categorized_EN.txt	BALL	Toys	5	3	[0, 0, 0]	n/a	catFR1	0	R1456D
1692.331	0.95	1711199	WORD_OFF	n/a	n/a	BALL	Toys	5	3	[0, 0, 0]	n/a	catFR1	0	R1456D
1693.281	1.6	1712149	WORD	n/a	wordpools/wordpool_categorized_EN.txt	BARBIE	Toys	6	3	[0, 0, 0]	n/a	catFR1	0	R1456D
1694.898	0.916	1713763	WORD_OFF	n/a	n/a	BARBIE	Toys	6	3	[0, 0, 0]	n/a	catFR1	0	R1456D
1695.814	1.6	1714679	WORD	n/a	wordpools/wordpool_categorized_EN.txt	ORANGE	Fruit	7	3	[0, 0, 0]	n/a	catFR1	0	R1456D
1697.415	0.933	1716276	WORD_OFF	n/a	n/a	ORANGE	Fruit	7	3	[0, 0, 0]	n/a	catFR1	0	R1456D
1698.348	1.6	1717209	WORD	n/a	wordpools/wordpool_categorized_EN.txt	PEAR	Fruit	8	3	[0, 0, 0]	n/a	catFR1	0	R1456D
1699.965	0.767	1718832	WORD_OFF	n/a	n/a	PEAR	Fruit	8	3	[0, 0, 0]	n/a	catFR1	0	R1456D
1700.732	1.6	1719597	WORD	n/a	wordpools/wordpool_categorized_EN.txt	BASKETBALL	Toys	9	3	[0, 0, 0]	n/a	catFR1	0	R1456D
1702.348	0.85	1721211	WORD_OFF	n/a	n/a	BASKETBALL	Toys	9	3	[0, 0, 0]	n/a	catFR1	0	R1456D
1703.198	1.6	1722060	WORD	n/a	wordpools/wordpool_categorized_EN.txt	DOLL	Toys	10	3	[0, 0, 0]	n/a	catFR1	0	R1456D
1704.798	1.0	1723666	WORD_OFF	n/a	n/a	DOLL	Toys	10	3	[0, 0, 0]	n/a	catFR1	0	R1456D
1705.798	1.6	1724666	WORD	n/a	wordpools/wordpool_categorized_EN.txt	SODA	Beverages	11	3	[0, 0, 0]	n/a	catFR1	0	R1456D
1707.415	0.915	1726280	WORD_OFF	n/a	n/a	SODA	Beverages	11	3	[0, 0, 0]	n/a	catFR1	0	R1456D
1708.33	1.6	1727197	WORD	n/a	wordpools/wordpool_categorized_EN.txt	TEA	Beverages	12	3	[0, 0, 0]	n/a	catFR1	0	R1456D
1709.947	0.002	1728811	WORD_OFF	n/a	n/a	TEA	Beverages	12	3	[0, 0, 0]	n/a	catFR1	0	R1456D
1709.949	0.0	1728811	ENCODING_END	n/a	n/a	n/a	n/a	-999	3	[0, 0, 0]	n/a	catFR1	0	R1456D
1709.948	0.001	1728814	PROB	5.416	n/a	n/a	n/a	-999	3	[7, 3, 2]	12.0	catFR1	0	R1456D
1709.949	0.0	1728815	START	n/a	n/a	n/a	n/a	-999	3	[-999, -999, -999]	n/a	catFR1	0	R1456D
1709.949	5.432	1728819	DISTRACT_START	n/a	n/a	n/a	n/a	-999	3	[0, 0, 0]	n/a	catFR1	0	R1456D
1715.381	5.633	1734247	PROB	5.617	n/a	n/a	n/a	-999	3	[8, 1, 8]	17.0	catFR1	0	R1456D
1721.014	6.068	1739880	PROB	6.051	n/a	n/a	n/a	-999	3	[2, 6, 5]	13.0	catFR1	0	R1456D
1727.082	7.282	1745947	PROB	7.265	n/a	n/a	n/a	-999	3	[4, 4, 4]	14.0	catFR1	0	R1456D
1734.364	0.0	1753224	DISTRACT_END	n/a	n/a	n/a	n/a	-999	3	[0, 0, 0]	n/a	catFR1	0	R1456D
1734.364	2.268	1753229	STOP	n/a	n/a	n/a	n/a	-999	3	[-999, -999, -999]	n/a	catFR1	0	R1456D
1736.632	0.8	1755493	REC_START	n/a	n/a	n/a	n/a	-999	3	[0, 0, 0]	n/a	catFR1	0	R1456D
1737.432	0.84	1756297	REC_WORD_VV	0.8	n/a	<>	n/a	-999	3	[0, 0, 0]	n/a	catFR1	0	R1456D
1738.272	2.839	1757137	REC_WORD	1.64	n/a	RUM	Beverages	1	3	[0, 0, 0]	n/a	catFR1	0	R1456D
1741.111	1.0	1759976	REC_WORD	4.479	n/a	BLUEBERRY	Fruit	4	3	[0, 0, 0]	n/a	catFR1	0	R1456D
1742.111	3.303	1760976	REC_WORD_VV	5.479	n/a	<>	n/a	-999	3	[0, 0, 0]	n/a	catFR1	0	R1456D
1745.414	2.068	1764278	REC_WORD_VV	8.782	n/a	<>	n/a	-999	3	[0, 0, 0]	n/a	catFR1	0	R1456D
1747.482	3.424	1766346	REC_WORD_VV	10.85	n/a	<>	n/a	-999	3	[0, 0, 0]	n/a	catFR1	0	R1456D
1750.906	1.0	1769770	REC_WORD_VV	14.274	n/a	<>	n/a	-999	3	[0, 0, 0]	n/a	catFR1	0	R1456D
1751.906	1.0	1770770	REC_WORD_VV	15.274	n/a	<>	n/a	-999	3	[0, 0, 0]	n/a	catFR1	0	R1456D
1752.906	1.0	1771770	REC_WORD_VV	16.274	n/a	<>	n/a	-999	3	[0, 0, 0]	n/a	catFR1	0	R1456D
1753.906	1.0	1772770	REC_WORD_VV	17.274	n/a	<>	n/a	-999	3	[0, 0, 0]	n/a	catFR1	0	R1456D
1754.906	1.0	1773770	REC_WORD_VV	18.274	n/a	<>	n/a	-999	3	[0, 0, 0]	n/a	catFR1	0	R1456D
1755.906	1.0	1774770	REC_WORD_VV	19.274	n/a	<>	n/a	-999	3	[0, 0, 0]	n/a	catFR1	0	R1456D
1756.906	1.769	1775770	REC_WORD_VV	20.274	n/a	<>	n/a	-999	3	[0, 0, 0]	n/a	catFR1	0	R1456D
1758.675	1.477	1777539	REC_WORD	22.043	n/a	BLUEBERRY	Fruit	4	3	[0, 0, 0]	n/a	catFR1	0	R1456D
1760.152	1.0	1779016	REC_WORD_VV	23.52	n/a	<>	n/a	-999	3	[0, 0, 0]	n/a	catFR1	0	R1456D
1761.152	1.0	1780016	REC_WORD_VV	24.52	n/a	<>	n/a	-999	3	[0, 0, 0]	n/a	catFR1	0	R1456D
1762.152	1.0	1781015	REC_WORD_VV	25.52	n/a	<>	n/a	-999	3	[0, 0, 0]	n/a	catFR1	0	R1456D
1763.152	1.0	1782015	REC_WORD_VV	26.52	n/a	<>	n/a	-999	3	[0, 0, 0]	n/a	catFR1	0	R1456D
1764.152	1.0	1783015	REC_WORD_VV	27.52	n/a	<>	n/a	-999	3	[0, 0, 0]	n/a	catFR1	0	R1456D
1765.152	1.0	1784015	REC_WORD_VV	28.52	n/a	<>	n/a	-999	3	[0, 0, 0]	n/a	catFR1	0	R1456D
1766.152	0.666	1785015	REC_WORD_VV	29.52	n/a	<>	n/a	-999	3	[0, 0, 0]	n/a	catFR1	0	R1456D
1766.818	41.914	1785683	REC_END	n/a	n/a	n/a	n/a	-999	3	[0, 0, 0]	n/a	catFR1	0	R1456D
1808.732	10.0	1827590	COUNTDOWN_START	n/a	n/a	n/a	n/a	-999	4	[0, 0, 0]	n/a	catFR1	0	R1456D
1819.082	0.0	1837939	COUNTDOWN_END	n/a	n/a	n/a	n/a	-999	4	[0, 0, 0]	n/a	catFR1	0	R1456D
1819.082	2.1	1837939	ENCODING_START	n/a	n/a	n/a	n/a	-999	4	[0, 0, 0]	n/a	catFR1	0	R1456D
1821.182	1.6	1840041	WORD	n/a	wordpools/wordpool_categorized_EN.txt	JELLYFISH	OceanAnimals	1	4	[0, 0, 0]	n/a	catFR1	0	R1456D
1822.797	0.985	1841655	WORD_OFF	n/a	n/a	JELLYFISH	OceanAnimals	1	4	[0, 0, 0]	n/a	catFR1	0	R1456D
1823.782	1.6	1842638	WORD	n/a	wordpools/wordpool_categorized_EN.txt	SHRIMP	OceanAnimals	2	4	[0, 0, 0]	n/a	catFR1	0	R1456D
1825.398	0.884	1844261	WORD_OFF	n/a	n/a	SHRIMP	OceanAnimals	2	4	[0, 0, 0]	n/a	catFR1	0	R1456D
1826.282	1.6	1845144	WORD	n/a	wordpools/wordpool_categorized_EN.txt	JACKET	Clothing	3	4	[0, 0, 0]	n/a	catFR1	0	R1456D
1827.898	0.983	1846758	WORD_OFF	n/a	n/a	JACKET	Clothing	3	4	[0, 0, 0]	n/a	catFR1	0	R1456D
1828.881	1.6	1847741	WORD	n/a	wordpools/wordpool_categorized_EN.txt	UNDERWEAR	Clothing	4	4	[0, 0, 0]	n/a	catFR1	0	R1456D
1830.498	0.883	1849356	WORD_OFF	n/a	n/a	UNDERWEAR	Clothing	4	4	[0, 0, 0]	n/a	catFR1	0	R1456D
1831.381	1.6	1850238	WORD	n/a	wordpools/wordpool_categorized_EN.txt	THUNDER	Weather	5	4	[0, 0, 0]	n/a	catFR1	0	R1456D
1832.982	0.8	1851836	WORD_OFF	n/a	n/a	THUNDER	Weather	5	4	[0, 0, 0]	n/a	catFR1	0	R1456D
1833.782	1.6	1852643	WORD	n/a	wordpools/wordpool_categorized_EN.txt	THUNDERSTORM	Weather	6	4	[0, 0, 0]	n/a	catFR1	0	R1456D
1835.382	0.933	1854240	WORD_OFF	n/a	n/a	THUNDERSTORM	Weather	6	4	[0, 0, 0]	n/a	catFR1	0	R1456D
1836.315	1.6	1855173	WORD	n/a	wordpools/wordpool_categorized_EN.txt	SKIRT	Clothing	7	4	[0, 0, 0]	n/a	catFR1	0	R1456D
1837.932	0.85	1856787	WORD_OFF	n/a	n/a	SKIRT	Clothing	7	4	[0, 0, 0]	n/a	catFR1	0	R1456D
1838.782	1.6	1857636	WORD	n/a	wordpools/wordpool_categorized_EN.txt	SHOES	Clothing	8	4	[0, 0, 0]	n/a	catFR1	0	R1456D
1840.398	0.816	1859259	WORD_OFF	n/a	n/a	SHOES	Clothing	8	4	[0, 0, 0]	n/a	catFR1	0	R1456D
1841.214	1.6	1860074	WORD	n/a	wordpools/wordpool_categorized_EN.txt	PLANKTON	OceanAnimals	9	4	[0, 0, 0]	n/a	catFR1	0	R1456D
1842.815	1.0	1861671	WORD_OFF	n/a	n/a	PLANKTON	OceanAnimals	9	4	[0, 0, 0]	n/a	catFR1	0	R1456D
1843.815	1.6	1862672	WORD	n/a	wordpools/wordpool_categorized_EN.txt	FISH	OceanAnimals	10	4	[0, 0, 0]	n/a	catFR1	0	R1456D
1845.415	0.983	1864269	WORD_OFF	n/a	n/a	FISH	OceanAnimals	10	4	[0, 0, 0]	n/a	catFR1	0	R1456D
1846.398	1.6	1865253	WORD	n/a	wordpools/wordpool_categorized_EN.txt	DRIZZLE	Weather	11	4	[0, 0, 0]	n/a	catFR1	0	R1456D
1848.015	0.95	1866875	WORD_OFF	n/a	n/a	DRIZZLE	Weather	11	4	[0, 0, 0]	n/a	catFR1	0	R1456D
1848.965	1.6	1867825	WORD	n/a	wordpools/wordpool_categorized_EN.txt	CLOUD	Weather	12	4	[0, 0, 0]	n/a	catFR1	0	R1456D
1850.581	0.001	1869439	WORD_OFF	n/a	n/a	CLOUD	Weather	12	4	[0, 0, 0]	n/a	catFR1	0	R1456D
1850.582	0.0	1869439	ENCODING_END	n/a	n/a	n/a	n/a	-999	4	[0, 0, 0]	n/a	catFR1	0	R1456D
1850.582	0.0	1869439	DISTRACT_START	n/a	n/a	n/a	n/a	-999	4	[0, 0, 0]	n/a	catFR1	0	R1456D
1850.581	0.001	1869440	PROB	5.767	n/a	n/a	n/a	-999	4	[3, 2, 6]	11.0	catFR1	0	R1456D
1850.582	5.783	1869441	START	n/a	n/a	n/a	n/a	-999	4	[-999, -999, -999]	n/a	catFR1	0	R1456D
1856.365	5.233	1875223	PROB	5.215	n/a	n/a	n/a	-999	4	[7, 8, 5]	20.0	catFR1	0	R1456D
1861.598	3.518	1880456	PROB	3.5	n/a	n/a	n/a	-999	4	[4, 3, 1]	8.0	catFR1	0	R1456D
1865.116	3.2	1883974	PROB	3.182	n/a	n/a	n/a	-999	4	[1, 3, 3]	7.0	catFR1	0	R1456D
1868.316	4.916	1887174	PROB	4.899	n/a	n/a	n/a	-999	4	[5, 2, 6]	13.0	catFR1	0	R1456D
1873.232	0.0	1892087	DISTRACT_END	n/a	n/a	n/a	n/a	-999	4	[0, 0, 0]	n/a	catFR1	0	R1456D
1873.232	2.233	1892089	STOP	n/a	n/a	n/a	n/a	-999	4	[-999, -999, -999]	n/a	catFR1	0	R1456D
1875.465	1.738	1894323	REC_START	n/a	n/a	n/a	n/a	-999	4	[0, 0, 0]	n/a	catFR1	0	R1456D
1877.203	1.861	1896060	REC_WORD_VV	1.738	n/a	<>	n/a	-999	4	[0, 0, 0]	n/a	catFR1	0	R1456D
1879.064	1.0	1897921	REC_WORD_VV	3.599	n/a	<>	n/a	-999	4	[0, 0, 0]	n/a	catFR1	0	R1456D
1880.064	1.498	1898921	REC_WORD_VV	4.599	n/a	<>	n/a	-999	4	[0, 0, 0]	n/a	catFR1	0	R1456D
1881.562	0.622	1900419	REC_WORD_VV	6.097	n/a	<>	n/a	-999	4	[0, 0, 0]	n/a	catFR1	0	R1456D
1882.184	1.962	1901041	REC_WORD	6.719	n/a	JELLY	n/a	-999	4	[0, 0, 0]	n/a	catFR1	0	R1456D
1884.146	0.437	1903003	REC_WORD_VV	8.681	n/a	<>	n/a	-999	4	[0, 0, 0]	n/a	catFR1	0	R1456D
1884.583	3.194	1903440	REC_WORD	9.118	n/a	SHRIMP	OceanAnimals	2	4	[0, 0, 0]	n/a	catFR1	0	R1456D
1887.777	2.625	1906634	REC_WORD_VV	12.312	n/a	<>	n/a	-999	4	[0, 0, 0]	n/a	catFR1	0	R1456D
1890.402	2.171	1909259	REC_WORD_VV	14.937	n/a	<>	n/a	-999	4	[0, 0, 0]	n/a	catFR1	0	R1456D
1892.573	2.391	1911429	REC_WORD_VV	17.108	n/a	<>	n/a	-999	4	[0, 0, 0]	n/a	catFR1	0	R1456D
1894.964	1.0	1913820	REC_WORD	19.499	n/a	JELLYFISH	OceanAnimals	1	4	[0, 0, 0]	n/a	catFR1	0	R1456D
1895.964	1.831	1914820	REC_WORD_VV	20.499	n/a	<>	n/a	-999	4	[0, 0, 0]	n/a	catFR1	0	R1456D
1897.795	2.195	1916651	REC_WORD_VV	22.33	n/a	<>	n/a	-999	4	[0, 0, 0]	n/a	catFR1	0	R1456D
1899.99	3.549	1918846	REC_WORD_VV	24.525	n/a	<>	n/a	-999	4	[0, 0, 0]	n/a	catFR1	0	R1456D
1903.539	2.116	1922395	REC_WORD_VV	28.074	n/a	<>	n/a	-999	4	[0, 0, 0]	n/a	catFR1	0	R1456D
1905.655	7.326	1924512	REC_END	n/a	n/a	n/a	n/a	-999	4	[0, 0, 0]	n/a	catFR1	0	R1456D
1912.981	10.0	1931834	COUNTDOWN_START	n/a	n/a	n/a	n/a	-999	5	[0, 0, 0]	n/a	catFR1	0	R1456D
1923.332	0.0	1942183	COUNTDOWN_END	n/a	n/a	n/a	n/a	-999	5	[0, 0, 0]	n/a	catFR1	0	R1456D
1923.332	2.183	1942183	ENCODING_START	n/a	n/a	n/a	n/a	-999	5	[0, 0, 0]	n/a	catFR1	0	R1456D
1925.515	1.6	1944369	WORD	n/a	wordpools/wordpool_categorized_EN.txt	TULIP	Flowers	1	5	[0, 0, 0]	n/a	catFR1	0	R1456D
1927.115	0.867	1945966	WORD_OFF	n/a	n/a	TULIP	Flowers	1	5	[0, 0, 0]	n/a	catFR1	0	R1456D
1927.982	1.6	1946832	WORD	n/a	wordpools/wordpool_categorized_EN.txt	PETUNIA	Flowers	2	5	[0, 0, 0]	n/a	catFR1	0	R1456D
1929.582	0.849	1948438	WORD_OFF	n/a	n/a	PETUNIA	Flowers	2	5	[0, 0, 0]	n/a	catFR1	0	R1456D
1930.431	1.6	1949287	WORD	n/a	wordpools/wordpool_categorized_EN.txt	CRICKET	Insects	3	5	[0, 0, 0]	n/a	catFR1	0	R1456D
1932.031	0.8	1950884	WORD_OFF	n/a	n/a	CRICKET	Insects	3	5	[0, 0, 0]	n/a	catFR1	0	R1456D
1932.831	1.6	1951683	WORD	n/a	wordpools/wordpool_categorized_EN.txt	SPIDER	Insects	4	5	[0, 0, 0]	n/a	catFR1	0	R1456D
1934.431	0.984	1953280	WORD_OFF	n/a	n/a	SPIDER	Insects	4	5	[0, 0, 0]	n/a	catFR1	0	R1456D
1935.415	1.6	1954264	WORD	n/a	wordpools/wordpool_categorized_EN.txt	STAPLER	OfficeSupplies	5	5	[0, 0, 0]	n/a	catFR1	0	R1456D
1937.015	0.866	1955869	WORD_OFF	n/a	n/a	STAPLER	OfficeSupplies	5	5	[0, 0, 0]	n/a	catFR1	0	R1456D
1937.881	1.6	1956735	WORD	n/a	wordpools/wordpool_categorized_EN.txt	FOLDER	OfficeSupplies	6	5	[0, 0, 0]	n/a	catFR1	0	R1456D
1939.482	0.783	1958333	WORD_OFF	n/a	n/a	FOLDER	OfficeSupplies	6	5	[0, 0, 0]	n/a	catFR1	0	R1456D
1940.265	1.6	1959114	WORD	n/a	wordpools/wordpool_categorized_EN.txt	MARIGOLD	Flowers	7	5	[0, 0, 0]	n/a	catFR1	0	R1456D
1941.882	0.766	1960737	WORD_OFF	n/a	n/a	MARIGOLD	Flowers	7	5	[0, 0, 0]	n/a	catFR1	0	R1456D
1942.648	1.6	1961502	WORD	n/a	wordpools/wordpool_categorized_EN.txt	SUNFLOWER	Flowers	8	5	[0, 0, 0]	n/a	catFR1	0	R1456D
1944.264	0.901	1963116	WORD_OFF	n/a	n/a	SUNFLOWER	Flowers	8	5	[0, 0, 0]	n/a	catFR1	0	R1456D
1945.165	1.6	1964016	WORD	n/a	wordpools/wordpool_categorized_EN.txt	RULER	OfficeSupplies	9	5	[0, 0, 0]	n/a	catFR1	0	R1456D
1946.765	0.85	1965613	WORD_OFF	n/a	n/a	RULER	OfficeSupplies	9	5	[0, 0, 0]	n/a	catFR1	0	R1456D
1947.615	1.6	1966470	WORD	n/a	wordpools/wordpool_categorized_EN.txt	MARKER	OfficeSupplies	10	5	[0, 0, 0]	n/a	catFR1	0	R1456D
1949.232	0.933	1968084	WORD_OFF	n/a	n/a	MARKER	OfficeSupplies	10	5	[0, 0, 0]	n/a	catFR1	0	R1456D
1950.165	1.6	1969018	WORD	n/a	wordpools/wordpool_categorized_EN.txt	BEETLE	Insects	11	5	[0, 0, 0]	n/a	catFR1	0	R1456D
1951.765	0.766	1970615	WORD_OFF	n/a	n/a	BEETLE	Insects	11	5	[0, 0, 0]	n/a	catFR1	0	R1456D
1952.531	1.6	1971380	WORD	n/a	wordpools/wordpool_categorized_EN.txt	BUTTERFLY	Insects	12	5	[0, 0, 0]	n/a	catFR1	0	R1456D
1954.132	0.0	1972985	PROB	8.266	n/a	n/a	n/a	-999	5	[8, 5, 7]	20.0	catFR1	0	R1456D
1954.132	0.001	1972986	WORD_OFF	n/a	n/a	BUTTERFLY	Insects	12	5	[0, 0, 0]	n/a	catFR1	0	R1456D
1954.133	0.0	1972986	ENCODING_END	n/a	n/a	n/a	n/a	-999	5	[0, 0, 0]	n/a	catFR1	0	R1456D
1954.133	0.0	1972986	DISTRACT_START	n/a	n/a	n/a	n/a	-999	5	[0, 0, 0]	n/a	catFR1	0	R1456D
1954.133	8.282	1972986	START	n/a	n/a	n/a	n/a	-999	5	[-999, -999, -999]	n/a	catFR1	0	R1456D
1962.415	6.349	1981268	PROB	6.332	n/a	n/a	n/a	-999	5	[3, 5, 2]	10.0	catFR1	0	R1456D
1968.764	8.384	1987616	PROB	8.366	n/a	n/a	n/a	-999	5	[7, 8, 8]	23.0	catFR1	0	R1456D
1977.148	0.0	1995995	DISTRACT_END	n/a	n/a	n/a	n/a	-999	5	[0, 0, 0]	n/a	catFR1	0	R1456D
1977.148	2.283	1996000	STOP	n/a	n/a	n/a	n/a	-999	5	[-999, -999, -999]	n/a	catFR1	0	R1456D
1979.431	1.859	1998281	REC_START	n/a	n/a	n/a	n/a	-999	5	[0, 0, 0]	n/a	catFR1	0	R1456D
1981.29	1.0	2000142	REC_WORD_VV	1.859	n/a	<>	n/a	-999	5	[0, 0, 0]	n/a	catFR1	0	R1456D
1982.29	1.0	2001142	REC_WORD_VV	2.859	n/a	<>	n/a	-999	5	[0, 0, 0]	n/a	catFR1	0	R1456D
1983.29	1.0	2002142	REC_WORD_VV	3.859	n/a	<>	n/a	-999	5	[0, 0, 0]	n/a	catFR1	0	R1456D
1984.29	1.018	2003142	REC_WORD_VV	4.859	n/a	<>	n/a	-999	5	[0, 0, 0]	n/a	catFR1	0	R1456D
1985.308	2.947	2004159	REC_WORD	5.877	n/a	JELLY	n/a	-999	5	[0, 0, 0]	n/a	catFR1	0	R1456D
1988.255	3.391	2007106	REC_WORD_VV	8.824	n/a	<>	n/a	-999	5	[0, 0, 0]	n/a	catFR1	0	R1456D
1991.646	3.681	2010497	REC_WORD	12.215	n/a	JELLYFISH	OceanAnimals	-999	5	[0, 0, 0]	n/a	catFR1	0	R1456D
1995.327	1.0	2014178	REC_WORD_VV	15.896	n/a	<>	n/a	-999	5	[0, 0, 0]	n/a	catFR1	0	R1456D
1996.327	1.0	2015178	REC_WORD_VV	16.896	n/a	<>	n/a	-999	5	[0, 0, 0]	n/a	catFR1	0	R1456D
1997.327	1.0	2016178	REC_WORD_VV	17.896	n/a	<>	n/a	-999	5	[0, 0, 0]	n/a	catFR1	0	R1456D
1998.327	2.353	2017178	REC_WORD_VV	18.896	n/a	<>	n/a	-999	5	[0, 0, 0]	n/a	catFR1	0	R1456D
2000.68	4.461	2019531	REC_WORD_VV	21.249	n/a	<>	n/a	-999	5	[0, 0, 0]	n/a	catFR1	0	R1456D
2005.141	1.0	2023991	REC_WORD_VV	25.71	n/a	<>	n/a	-999	5	[0, 0, 0]	n/a	catFR1	0	R1456D
2006.141	1.0	2024991	REC_WORD_VV	26.71	n/a	<>	n/a	-999	5	[0, 0, 0]	n/a	catFR1	0	R1456D
2007.141	1.0	2025991	REC_WORD_VV	27.71	n/a	<>	n/a	-999	5	[0, 0, 0]	n/a	catFR1	0	R1456D
2008.141	1.0	2026991	REC_WORD_VV	28.71	n/a	<>	n/a	-999	5	[0, 0, 0]	n/a	catFR1	0	R1456D
2009.141	0.469	2027991	REC_WORD_VV	29.71	n/a	<>	n/a	-999	5	[0, 0, 0]	n/a	catFR1	0	R1456D
2009.61	14.271	2028462	REC_END	n/a	n/a	n/a	n/a	-999	5	[0, 0, 0]	n/a	catFR1	0	R1456D
2023.881	10.0	2042728	COUNTDOWN_START	n/a	n/a	n/a	n/a	-999	6	[0, 0, 0]	n/a	catFR1	0	R1456D
2034.231	0.0	2053077	COUNTDOWN_END	n/a	n/a	n/a	n/a	-999	6	[0, 0, 0]	n/a	catFR1	0	R1456D
2034.231	2.017	2053077	ENCODING_START	n/a	n/a	n/a	n/a	-999	6	[0, 0, 0]	n/a	catFR1	0	R1456D
2036.248	1.6	2055094	WORD	n/a	wordpools/wordpool_categorized_EN.txt	GOOSE	Birds	1	6	[0, 0, 0]	n/a	catFR1	0	R1456D
2037.848	0.9	2056692	WORD_OFF	n/a	n/a	GOOSE	Birds	1	6	[0, 0, 0]	n/a	catFR1	0	R1456D
2038.748	1.6	2057591	WORD	n/a	wordpools/wordpool_categorized_EN.txt	HAWK	Birds	2	6	[0, 0, 0]	n/a	catFR1	0	R1456D
2040.365	0.95	2059214	WORD_OFF	n/a	n/a	HAWK	Birds	2	6	[0, 0, 0]	n/a	catFR1	0	R1456D
2041.315	1.6	2060164	WORD	n/a	wordpools/wordpool_categorized_EN.txt	LIGHTNING	Weather	3	6	[0, 0, 0]	n/a	catFR1	0	R1456D
2042.915	0.933	2061761	WORD_OFF	n/a	n/a	LIGHTNING	Weather	3	6	[0, 0, 0]	n/a	catFR1	0	R1456D
2043.848	1.6	2062694	WORD	n/a	wordpools/wordpool_categorized_EN.txt	RAIN	Weather	4	6	[0, 0, 0]	n/a	catFR1	0	R1456D
2045.448	0.883	2064292	WORD_OFF	n/a	n/a	RAIN	Weather	4	6	[0, 0, 0]	n/a	catFR1	0	R1456D
2046.331	1.6	2065174	WORD	n/a	wordpools/wordpool_categorized_EN.txt	OAK	Trees	5	6	[0, 0, 0]	n/a	catFR1	0	R1456D
2047.931	0.85	2066780	WORD_OFF	n/a	n/a	OAK	Trees	5	6	[0, 0, 0]	n/a	catFR1	0	R1456D
2048.781	1.6	2067629	WORD	n/a	wordpools/wordpool_categorized_EN.txt	WILLOW	Trees	6	6	[0, 0, 0]	n/a	catFR1	0	R1456D
2050.382	0.9	2069226	WORD_OFF	n/a	n/a	WILLOW	Trees	6	6	[0, 0, 0]	n/a	catFR1	0	R1456D
2051.282	1.6	2070126	WORD	n/a	wordpools/wordpool_categorized_EN.txt	CROW	Birds	7	6	[0, 0, 0]	n/a	catFR1	0	R1456D
2052.881	0.784	2071732	WORD_OFF	n/a	n/a	CROW	Birds	7	6	[0, 0, 0]	n/a	catFR1	0	R1456D
2053.665	1.6	2072513	WORD	n/a	wordpools/wordpool_categorized_EN.txt	BLUEBIRD	Birds	8	6	[0, 0, 0]	n/a	catFR1	0	R1456D
2055.282	0.815	2074127	WORD_OFF	n/a	n/a	BLUEBIRD	Birds	8	6	[0, 0, 0]	n/a	catFR1	0	R1456D
2056.097	1.6	2074943	WORD	n/a	wordpools/wordpool_categorized_EN.txt	FOG	Weather	9	6	[0, 0, 0]	n/a	catFR1	0	R1456D
2057.698	0.9	2076540	WORD_OFF	n/a	n/a	FOG	Weather	9	6	[0, 0, 0]	n/a	catFR1	0	R1456D
2058.598	1.6	2077448	WORD	n/a	wordpools/wordpool_categorized_EN.txt	SNOW	Weather	10	6	[0, 0, 0]	n/a	catFR1	0	R1456D
2060.214	0.966	2079062	WORD_OFF	n/a	n/a	SNOW	Weather	10	6	[0, 0, 0]	n/a	catFR1	0	R1456D
2061.18	1.6	2080029	WORD	n/a	wordpools/wordpool_categorized_EN.txt	WALNUT	Trees	11	6	[0, 0, 0]	n/a	catFR1	0	R1456D
2062.782	0.95	2081626	WORD_OFF	n/a	n/a	WALNUT	Trees	11	6	[0, 0, 0]	n/a	catFR1	0	R1456D
2063.732	1.6	2082576	WORD	n/a	wordpools/wordpool_categorized_EN.txt	BIRCH	Trees	12	6	[0, 0, 0]	n/a	catFR1	0	R1456D
2065.348	0.0	2084190	WORD_OFF	n/a	n/a	BIRCH	Trees	12	6	[0, 0, 0]	n/a	catFR1	0	R1456D
2065.348	0.002	2084195	PROB	6.316	n/a	n/a	n/a	-999	6	[3, 6, 6]	15.0	catFR1	0	R1456D
2065.35	0.0	2084197	START	n/a	n/a	n/a	n/a	-999	6	[-999, -999, -999]	n/a	catFR1	0	R1456D
2065.35	0.0	2084199	ENCODING_END	n/a	n/a	n/a	n/a	-999	6	[0, 0, 0]	n/a	catFR1	0	R1456D
2065.35	6.332	2084199	DISTRACT_START	n/a	n/a	n/a	n/a	-999	6	[0, 0, 0]	n/a	catFR1	0	R1456D
2071.682	5.866	2090529	PROB	5.849	n/a	n/a	n/a	-999	6	[6, 1, 7]	23.0	catFR1	0	R1456D
2077.548	9.333	2096394	PROB	9.316	n/a	n/a	n/a	-999	6	[8, 5, 8]	23.0	catFR1	0	R1456D
2086.881	0.0	2105727	STOP	n/a	n/a	n/a	n/a	-999	6	[-999, -999, -999]	n/a	catFR1	0	R1456D
2086.881	2.251	2105728	DISTRACT_END	n/a	n/a	n/a	n/a	-999	6	[0, 0, 0]	n/a	catFR1	0	R1456D
2089.132	2.961	2107973	REC_START	n/a	n/a	n/a	n/a	-999	6	[0, 0, 0]	n/a	catFR1	0	R1456D
2092.093	2.161	2110939	REC_WORD_VV	2.961	n/a	<>	n/a	-999	6	[0, 0, 0]	n/a	catFR1	0	R1456D
2094.254	3.543	2113100	REC_WORD	5.122	n/a	WALLET	n/a	-999	6	[0, 0, 0]	n/a	catFR1	0	R1456D
2097.797	3.423	2116642	REC_WORD_VV	8.665	n/a	<>	n/a	-999	6	[0, 0, 0]	n/a	catFR1	0	R1456D
2101.22	5.084	2120065	REC_WORD_VV	12.088	n/a	<>	n/a	-999	6	[0, 0, 0]	n/a	catFR1	0	R1456D
2106.304	2.224	2125149	REC_WORD_VV	17.172	n/a	<>	n/a	-999	6	[0, 0, 0]	n/a	catFR1	0	R1456D
2108.528	0.72	2127373	REC_WORD	19.396	n/a	TULIP	Flowers	-999	6	[0, 0, 0]	n/a	catFR1	0	R1456D
2109.248	1.0	2128093	REC_WORD_VV	20.116	n/a	<>	n/a	-999	6	[0, 0, 0]	n/a	catFR1	0	R1456D
2110.248	2.873	2129093	REC_WORD_VV	21.116	n/a	<>	n/a	-999	6	[0, 0, 0]	n/a	catFR1	0	R1456D
2113.121	1.0	2131966	REC_WORD_VV	23.989	n/a	<>	n/a	-999	6	[0, 0, 0]	n/a	catFR1	0	R1456D
2114.121	1.0	2132966	REC_WORD_VV	24.989	n/a	<>	n/a	-999	6	[0, 0, 0]	n/a	catFR1	0	R1456D
2115.121	1.5	2133966	REC_WORD_VV	25.989	n/a	<>	n/a	-999	6	[0, 0, 0]	n/a	catFR1	0	R1456D
2116.621	0.64	2135465	REC_WORD_VV	27.489	n/a	<>	n/a	-999	6	[0, 0, 0]	n/a	catFR1	0	R1456D
2117.261	2.053	2136105	REC_WORD	28.129	n/a	TREE	n/a	-999	6	[0, 0, 0]	n/a	catFR1	0	R1456D
2119.314	9.801	2138153	REC_END	n/a	n/a	n/a	n/a	-999	6	[0, 0, 0]	n/a	catFR1	0	R1456D
2129.115	10.0	2147956	COUNTDOWN_START	n/a	n/a	n/a	n/a	-999	7	[0, 0, 0]	n/a	catFR1	0	R1456D
2139.465	0.0	2158304	COUNTDOWN_END	n/a	n/a	n/a	n/a	-999	7	[0, 0, 0]	n/a	catFR1	0	R1456D
2139.465	2.2	2158304	ENCODING_START	n/a	n/a	n/a	n/a	-999	7	[0, 0, 0]	n/a	catFR1	0	R1456D
2141.665	1.6	2160507	WORD	n/a	wordpools/wordpool_categorized_EN.txt	SOCKS	Clothing	1	7	[0, 0, 0]	n/a	catFR1	0	R1456D
2143.282	0.783	2162121	WORD_OFF	n/a	n/a	SOCKS	Clothing	1	7	[0, 0, 0]	n/a	catFR1	0	R1456D
2144.065	1.6	2162903	WORD	n/a	wordpools/wordpool_categorized_EN.txt	BLOUSE	Clothing	2	7	[0, 0, 0]	n/a	catFR1	0	R1456D
2145.665	0.816	2164509	WORD_OFF	n/a	n/a	BLOUSE	Clothing	2	7	[0, 0, 0]	n/a	catFR1	0	R1456D
2146.481	1.6	2165324	WORD	n/a	wordpools/wordpool_categorized_EN.txt	TAPE	OfficeSupplies	3	7	[0, 0, 0]	n/a	catFR1	0	R1456D
2148.081	0.899	2166921	WORD_OFF	n/a	n/a	TAPE	OfficeSupplies	3	7	[0, 0, 0]	n/a	catFR1	0	R1456D
2148.98	1.6	2167821	WORD	n/a	wordpools/wordpool_categorized_EN.txt	PEN	OfficeSupplies	4	7	[0, 0, 0]	n/a	catFR1	0	R1456D
2150.581	0.85	2169418	WORD_OFF	n/a	n/a	PEN	OfficeSupplies	4	7	[0, 0, 0]	n/a	catFR1	0	R1456D
2151.431	1.6	2170267	WORD	n/a	wordpools/wordpool_categorized_EN.txt	FOOT	BodyParts	5	7	[0, 0, 0]	n/a	catFR1	0	R1456D
2153.031	0.95	2171873	WORD_OFF	n/a	n/a	FOOT	BodyParts	5	7	[0, 0, 0]	n/a	catFR1	0	R1456D
2153.981	1.6	2172823	WORD	n/a	wordpools/wordpool_categorized_EN.txt	KNEE	BodyParts	6	7	[0, 0, 0]	n/a	catFR1	0	R1456D
2155.581	0.867	2174420	WORD_OFF	n/a	n/a	KNEE	BodyParts	6	7	[0, 0, 0]	n/a	catFR1	0	R1456D
2156.448	1.6	2175286	WORD	n/a	wordpools/wordpool_categorized_EN.txt	BINDER	OfficeSupplies	7	7	[0, 0, 0]	n/a	catFR1	0	R1456D
2158.048	0.934	2176892	WORD_OFF	n/a	n/a	BINDER	OfficeSupplies	7	7	[0, 0, 0]	n/a	catFR1	0	R1456D
2158.982	1.6	2177825	WORD	n/a	wordpools/wordpool_categorized_EN.txt	PENCIL	OfficeSupplies	8	7	[0, 0, 0]	n/a	catFR1	0	R1456D
2160.597	0.767	2179439	WORD_OFF	n/a	n/a	PENCIL	OfficeSupplies	8	7	[0, 0, 0]	n/a	catFR1	0	R1456D
2161.364	1.6	2180204	WORD	n/a	wordpools/wordpool_categorized_EN.txt	EAR	BodyParts	9	7	[0, 0, 0]	n/a	catFR1	0	R1456D
2162.964	0.901	2181801	WORD_OFF	n/a	n/a	EAR	BodyParts	9	7	[0, 0, 0]	n/a	catFR1	0	R1456D
2163.865	1.6	2182701	WORD	n/a	wordpools/wordpool_categorized_EN.txt	HAND	BodyParts	10	7	[0, 0, 0]	n/a	catFR1	0	R1456D
2165.465	0.966	2184307	WORD_OFF	n/a	n/a	HAND	BodyParts	10	7	[0, 0, 0]	n/a	catFR1	0	R1456D
2166.431	1.6	2185273	WORD	n/a	wordpools/wordpool_categorized_EN.txt	SHIRT	Clothing	11	7	[0, 0, 0]	n/a	catFR1	0	R1456D
2168.047	0.984	2186888	WORD_OFF	n/a	n/a	SHIRT	Clothing	11	7	[0, 0, 0]	n/a	catFR1	0	R1456D
2169.031	1.6	2187871	WORD	n/a	wordpools/wordpool_categorized_EN.txt	COAT	Clothing	12	7	[0, 0, 0]	n/a	catFR1	0	R1456D
2170.632	0.0	2189468	WORD_OFF	n/a	n/a	COAT	Clothing	12	7	[0, 0, 0]	n/a	catFR1	0	R1456D
2170.632	0.001	2189473	PROB	5.983	n/a	n/a	n/a	-999	7	[1, 3, 2]	6.0	catFR1	0	R1456D
2170.633	0.0	2189474	START	n/a	n/a	n/a	n/a	-999	7	[-999, -999, -999]	n/a	catFR1	0	R1456D
2170.633	0.0	2189477	ENCODING_END	n/a	n/a	n/a	n/a	-999	7	[0, 0, 0]	n/a	catFR1	0	R1456D
2170.633	5.998	2189477	DISTRACT_START	n/a	n/a	n/a	n/a	-999	7	[0, 0, 0]	n/a	catFR1	0	R1456D
2176.631	3.868	2195472	PROB	3.851	n/a	n/a	n/a	-999	7	[5, 2, 2]	9.0	catFR1	0	R1456D
2180.499	2.649	2199340	PROB	2.633	n/a	n/a	n/a	-999	7	[1, 8, 8]	9.0	catFR1	0	R1456D
2183.148	5.117	2201989	PROB	5.101	n/a	n/a	n/a	-999	7	[2, 4, 6]	12.0	catFR1	0	R1456D
2188.265	6.682	2207106	PROB	6.667	n/a	n/a	n/a	-999	7	[1, 8, 7]	16.0	catFR1	0	R1456D
2194.947	0.0	2213787	STOP	n/a	n/a	n/a	n/a	-999	7	[-999, -999, -999]	n/a	catFR1	0	R1456D
2194.947	2.201	2213789	DISTRACT_END	n/a	n/a	n/a	n/a	-999	7	[0, 0, 0]	n/a	catFR1	0	R1456D
2197.148	2.189	2215983	REC_START	n/a	n/a	n/a	n/a	-999	7	[0, 0, 0]	n/a	catFR1	0	R1456D
2199.337	1.935	2218177	REC_WORD_VV	2.189	n/a	<>	n/a	-999	7	[0, 0, 0]	n/a	catFR1	0	R1456D
2201.272	5.256	2220112	REC_WORD_VV	4.124	n/a	<>	n/a	-999	7	[0, 0, 0]	n/a	catFR1	0	R1456D
2206.528	5.728	2225368	REC_WORD_VV	9.38	n/a	<>	n/a	-999	7	[0, 0, 0]	n/a	catFR1	0	R1456D
2212.256	1.0	2231095	REC_WORD_VV	15.108	n/a	<>	n/a	-999	7	[0, 0, 0]	n/a	catFR1	0	R1456D
2213.256	1.0	2232095	REC_WORD_VV	16.108	n/a	<>	n/a	-999	7	[0, 0, 0]	n/a	catFR1	0	R1456D
2214.256	2.795	2233095	REC_WORD_VV	17.108	n/a	<>	n/a	-999	7	[0, 0, 0]	n/a	catFR1	0	R1456D
2217.051	0.52	2235890	REC_WORD_VV	19.903	n/a	<>	n/a	-999	7	[0, 0, 0]	n/a	catFR1	0	R1456D
2217.571	2.241	2236410	REC_WORD	20.423	n/a	TULIP	Flowers	-999	7	[0, 0, 0]	n/a	catFR1	0	R1456D
2219.812	1.0	2238651	REC_WORD_VV	22.664	n/a	<>	n/a	-999	7	[0, 0, 0]	n/a	catFR1	0	R1456D
2220.812	1.0	2239651	REC_WORD_VV	23.664	n/a	<>	n/a	-999	7	[0, 0, 0]	n/a	catFR1	0	R1456D
2221.812	1.91	2240651	REC_WORD_VV	24.664	n/a	<>	n/a	-999	7	[0, 0, 0]	n/a	catFR1	0	R1456D
2223.722	2.506	2242561	REC_WORD_VV	26.574	n/a	<>	n/a	-999	7	[0, 0, 0]	n/a	catFR1	0	R1456D
2226.228	1.138	2245067	REC_WORD_VV	29.08	n/a	<>	n/a	-999	7	[0, 0, 0]	n/a	catFR1	0	R1456D
2227.366	55.315	2246206	REC_END	n/a	n/a	n/a	n/a	-999	7	[0, 0, 0]	n/a	catFR1	0	R1456D
2282.681	10.0	2301514	COUNTDOWN_START	n/a	n/a	n/a	n/a	-999	8	[0, 0, 0]	n/a	catFR1	0	R1456D
2293.032	0.0	2311863	COUNTDOWN_END	n/a	n/a	n/a	n/a	-999	8	[0, 0, 0]	n/a	catFR1	0	R1456D
2293.032	2.216	2311871	ENCODING_START	n/a	n/a	n/a	n/a	-999	8	[0, 0, 0]	n/a	catFR1	0	R1456D
2295.248	1.6	2314082	WORD	n/a	wordpools/wordpool_categorized_EN.txt	STRAINER	KitchenTools	1	8	[0, 0, 0]	n/a	catFR1	0	R1456D
2296.865	0.883	2315696	WORD_OFF	n/a	n/a	STRAINER	KitchenTools	1	8	[0, 0, 0]	n/a	catFR1	0	R1456D
2297.748	1.6	2316579	WORD	n/a	wordpools/wordpool_categorized_EN.txt	CORKSCREW	KitchenTools	2	8	[0, 0, 0]	n/a	catFR1	0	R1456D
2299.363	0.919	2318193	WORD_OFF	n/a	n/a	CORKSCREW	KitchenTools	2	8	[0, 0, 0]	n/a	catFR1	0	R1456D
2300.282	1.6	2319118	WORD	n/a	wordpools/wordpool_categorized_EN.txt	FOREST	Landscapes	3	8	[0, 0, 0]	n/a	catFR1	0	R1456D
2301.897	0.968	2320732	WORD_OFF	n/a	n/a	FOREST	Landscapes	3	8	[0, 0, 0]	n/a	catFR1	0	R1456D
2302.865	1.6	2321699	WORD	n/a	wordpools/wordpool_categorized_EN.txt	CREEK	Landscapes	4	8	[0, 0, 0]	n/a	catFR1	0	R1456D
2304.481	0.85	2323313	WORD_OFF	n/a	n/a	CREEK	Landscapes	4	8	[0, 0, 0]	n/a	catFR1	0	R1456D
2305.331	1.6	2324162	WORD	n/a	wordpools/wordpool_categorized_EN.txt	HAMMER	Tools	5	8	[0, 0, 0]	n/a	catFR1	0	R1456D
2306.932	0.982	2325767	WORD_OFF	n/a	n/a	HAMMER	Tools	5	8	[0, 0, 0]	n/a	catFR1	0	R1456D
2307.914	1.6	2326743	WORD	n/a	wordpools/wordpool_categorized_EN.txt	LEVEL	Tools	6	8	[0, 0, 0]	n/a	catFR1	0	R1456D
2309.515	0.883	2328348	WORD_OFF	n/a	n/a	LEVEL	Tools	6	8	[0, 0, 0]	n/a	catFR1	0	R1456D
2310.398	1.6	2329231	WORD	n/a	wordpools/wordpool_categorized_EN.txt	LADLE	KitchenTools	7	8	[0, 0, 0]	n/a	catFR1	0	R1456D
2312.015	0.933	2330845	WORD_OFF	n/a	n/a	LADLE	KitchenTools	7	8	[0, 0, 0]	n/a	catFR1	0	R1456D
2312.948	1.6	2331778	WORD	n/a	wordpools/wordpool_categorized_EN.txt	PEELER	KitchenTools	8	8	[0, 0, 0]	n/a	catFR1	0	R1456D
2314.548	0.966	2333384	WORD_OFF	n/a	n/a	PEELER	KitchenTools	8	8	[0, 0, 0]	n/a	catFR1	0	R1456D
2315.514	1.6	2334342	WORD	n/a	wordpools/wordpool_categorized_EN.txt	CROWBAR	Tools	9	8	[0, 0, 0]	n/a	catFR1	0	R1456D
2317.115	0.867	2335948	WORD_OFF	n/a	n/a	CROWBAR	Tools	9	8	[0, 0, 0]	n/a	catFR1	0	R1456D
2317.982	1.6	2336814	WORD	n/a	wordpools/wordpool_categorized_EN.txt	WRENCH	Tools	10	8	[0, 0, 0]	n/a	catFR1	0	R1456D
2319.598	1.0	2338428	WORD_OFF	n/a	n/a	WRENCH	Tools	10	8	[0, 0, 0]	n/a	catFR1	0	R1456D
2320.598	1.6	2339428	WORD	n/a	wordpools/wordpool_categorized_EN.txt	BEACH	Landscapes	11	8	[0, 0, 0]	n/a	catFR1	0	R1456D
2322.215	0.916	2341043	WORD_OFF	n/a	n/a	BEACH	Landscapes	11	8	[0, 0, 0]	n/a	catFR1	0	R1456D
2323.131	1.6	2341959	WORD	n/a	wordpools/wordpool_categorized_EN.txt	LAKE	Landscapes	12	8	[0, 0, 0]	n/a	catFR1	0	R1456D
2324.732	0.001	2343565	WORD_OFF	n/a	n/a	LAKE	Landscapes	12	8	[0, 0, 0]	n/a	catFR1	0	R1456D
2324.733	0.0	2343565	ENCODING_END	n/a	n/a	n/a	n/a	-999	8	[0, 0, 0]	n/a	catFR1	0	R1456D
2324.733	0.0	2343565	DISTRACT_START	n/a	n/a	n/a	n/a	-999	8	[0, 0, 0]	n/a	catFR1	0	R1456D
2324.732	0.001	2343565	PROB	8.766	n/a	n/a	n/a	-999	8	[6, 3, 8]	17.0	catFR1	0	R1456D
2324.733	8.781	2343566	START	n/a	n/a	n/a	n/a	-999	8	[-999, -999, -999]	n/a	catFR1	0	R1456D
2333.514	6.634	2352347	PROB	6.618	n/a	n/a	n/a	-999	8	[2, 6, 7]	17.0	catFR1	0	R1456D
2340.148	20.816	2358980	PROB	20.8	n/a	n/a	n/a	-999	8	[4, 5, 3]	12.0	catFR1	0	R1456D
2360.964	0.0	2379795	STOP	n/a	n/a	n/a	n/a	-999	8	[-999, -999, -999]	n/a	catFR1	0	R1456D
2360.964	2.367	2379798	DISTRACT_END	n/a	n/a	n/a	n/a	-999	8	[0, 0, 0]	n/a	catFR1	0	R1456D
2363.331	0.575	2382160	REC_START	n/a	n/a	n/a	n/a	-999	8	[0, 0, 0]	n/a	catFR1	0	R1456D
2363.906	1.0	2382737	REC_WORD_VV	0.575	n/a	<>	n/a	-999	8	[0, 0, 0]	n/a	catFR1	0	R1456D
2364.906	1.0	2383737	REC_WORD_VV	1.575	n/a	<>	n/a	-999	8	[0, 0, 0]	n/a	catFR1	0	R1456D
2365.906	1.0	2384737	REC_WORD_VV	2.575	n/a	<>	n/a	-999	8	[0, 0, 0]	n/a	catFR1	0	R1456D
2366.906	1.0	2385737	REC_WORD_VV	3.575	n/a	<>	n/a	-999	8	[0, 0, 0]	n/a	catFR1	0	R1456D
2367.906	1.573	2386737	REC_WORD_VV	4.575	n/a	<>	n/a	-999	8	[0, 0, 0]	n/a	catFR1	0	R1456D
2369.479	0.241	2388310	REC_WORD_VV	6.148	n/a	<>	n/a	-999	8	[0, 0, 0]	n/a	catFR1	0	R1456D
2369.72	3.878	2388551	REC_WORD	6.389	n/a	HAMMER	Tools	5	8	[0, 0, 0]	n/a	catFR1	0	R1456D
2373.598	5.501	2392429	REC_WORD_VV	10.267	n/a	<>	n/a	-999	8	[0, 0, 0]	n/a	catFR1	0	R1456D
2379.099	5.732	2397929	REC_WORD_VV	15.768	n/a	<>	n/a	-999	8	[0, 0, 0]	n/a	catFR1	0	R1456D
2384.831	1.0	2403661	REC_WORD_VV	21.5	n/a	<>	n/a	-999	8	[0, 0, 0]	n/a	catFR1	0	R1456D
2385.831	1.0	2404661	REC_WORD_VV	22.5	n/a	<>	n/a	-999	8	[0, 0, 0]	n/a	catFR1	0	R1456D
2386.831	1.0	2405661	REC_WORD_VV	23.5	n/a	<>	n/a	-999	8	[0, 0, 0]	n/a	catFR1	0	R1456D
2387.831	4.39	2406661	REC_WORD_VV	24.5	n/a	<>	n/a	-999	8	[0, 0, 0]	n/a	catFR1	0	R1456D
2392.221	1.0	2411051	REC_WORD_VV	28.89	n/a	<>	n/a	-999	8	[0, 0, 0]	n/a	catFR1	0	R1456D
2393.221	0.323	2412051	REC_WORD_VV	29.89	n/a	<>	n/a	-999	8	[0, 0, 0]	n/a	catFR1	0	R1456D
2393.544	14.488	2412374	REC_END	n/a	n/a	n/a	n/a	-999	8	[0, 0, 0]	n/a	catFR1	0	R1456D
2408.032	10.0	2426859	COUNTDOWN_START	n/a	n/a	n/a	n/a	-999	9	[0, 0, 0]	n/a	catFR1	0	R1456D
2418.382	0.0	2437208	COUNTDOWN_END	n/a	n/a	n/a	n/a	-999	9	[0, 0, 0]	n/a	catFR1	0	R1456D
2418.382	2.033	2437208	ENCODING_START	n/a	n/a	n/a	n/a	-999	9	[0, 0, 0]	n/a	catFR1	0	R1456D
2420.415	1.6	2439242	WORD	n/a	wordpools/wordpool_categorized_EN.txt	BANANA	Fruit	1	9	[0, 0, 0]	n/a	catFR1	0	R1456D
2422.032	0.832	2440856	WORD_OFF	n/a	n/a	BANANA	Fruit	1	9	[0, 0, 0]	n/a	catFR1	0	R1456D
2422.864	1.6	2441688	WORD	n/a	wordpools/wordpool_categorized_EN.txt	PLUM	Fruit	2	9	[0, 0, 0]	n/a	catFR1	0	R1456D
2424.464	0.784	2443294	WORD_OFF	n/a	n/a	PLUM	Fruit	2	9	[0, 0, 0]	n/a	catFR1	0	R1456D
2425.248	1.6	2444076	WORD	n/a	wordpools/wordpool_categorized_EN.txt	SEAGULL	Birds	3	9	[0, 0, 0]	n/a	catFR1	0	R1456D
2426.848	0.883	2445673	WORD_OFF	n/a	n/a	SEAGULL	Birds	3	9	[0, 0, 0]	n/a	catFR1	0	R1456D
2427.731	1.6	2446556	WORD	n/a	wordpools/wordpool_categorized_EN.txt	DUCK	Birds	4	9	[0, 0, 0]	n/a	catFR1	0	R1456D
2429.348	0.8	2448178	WORD_OFF	n/a	n/a	DUCK	Birds	4	9	[0, 0, 0]	n/a	catFR1	0	R1456D
2430.148	1.6	2448977	WORD	n/a	wordpools/wordpool_categorized_EN.txt	ARM	BodyParts	5	9	[0, 0, 0]	n/a	catFR1	0	R1456D
2431.764	0.817	2450591	WORD_OFF	n/a	n/a	ARM	BodyParts	5	9	[0, 0, 0]	n/a	catFR1	0	R1456D
2432.581	1.6	2451407	WORD	n/a	wordpools/wordpool_categorized_EN.txt	LEG	BodyParts	6	9	[0, 0, 0]	n/a	catFR1	0	R1456D
2434.181	0.833	2453004	WORD_OFF	n/a	n/a	LEG	BodyParts	6	9	[0, 0, 0]	n/a	catFR1	0	R1456D
2435.014	1.6	2453836	WORD	n/a	wordpools/wordpool_categorized_EN.txt	DOVE	Birds	7	9	[0, 0, 0]	n/a	catFR1	0	R1456D
2436.631	0.933	2455459	WORD_OFF	n/a	n/a	DOVE	Birds	7	9	[0, 0, 0]	n/a	catFR1	0	R1456D
2437.564	1.6	2456392	WORD	n/a	wordpools/wordpool_categorized_EN.txt	ROBIN	Birds	8	9	[0, 0, 0]	n/a	catFR1	0	R1456D
2439.181	0.85	2458006	WORD_OFF	n/a	n/a	ROBIN	Birds	8	9	[0, 0, 0]	n/a	catFR1	0	R1456D
2440.031	1.6	2458855	WORD	n/a	wordpools/wordpool_categorized_EN.txt	TOE	BodyParts	9	9	[0, 0, 0]	n/a	catFR1	0	R1456D
2441.632	0.933	2460461	WORD_OFF	n/a	n/a	TOE	BodyParts	9	9	[0, 0, 0]	n/a	catFR1	0	R1456D
2442.565	1.6	2461394	WORD	n/a	wordpools/wordpool_categorized_EN.txt	HEAD	BodyParts	10	9	[0, 0, 0]	n/a	catFR1	0	R1456D
2444.165	0.767	2462991	WORD_OFF	n/a	n/a	HEAD	BodyParts	10	9	[0, 0, 0]	n/a	catFR1	0	R1456D
2444.932	1.6	2463756	WORD	n/a	wordpools/wordpool_categorized_EN.txt	LEMON	Fruit	11	9	[0, 0, 0]	n/a	catFR1	0	R1456D
2446.547	0.951	2465370	WORD_OFF	n/a	n/a	LEMON	Fruit	11	9	[0, 0, 0]	n/a	catFR1	0	R1456D
2447.498	1.6	2466320	WORD	n/a	wordpools/wordpool_categorized_EN.txt	CHERRY	Fruit	12	9	[0, 0, 0]	n/a	catFR1	0	R1456D
2449.114	0.002	2467943	WORD_OFF	n/a	n/a	CHERRY	Fruit	12	9	[0, 0, 0]	n/a	catFR1	0	R1456D
2449.116	0.0	2467943	ENCODING_END	n/a	n/a	n/a	n/a	-999	9	[0, 0, 0]	n/a	catFR1	0	R1456D
2449.116	0.0	2467943	DISTRACT_START	n/a	n/a	n/a	n/a	-999	9	[0, 0, 0]	n/a	catFR1	0	R1456D
2449.116	0.0	2467943	START	n/a	n/a	n/a	n/a	-999	9	[-999, -999, -999]	n/a	catFR1	0	R1456D
2449.116	9.349	2467943	PROB	9.333	n/a	n/a	n/a	-999	9	[4, 8, 5]	17.0	catFR1	0	R1456D
2458.465	7.418	2477291	PROB	7.399	n/a	n/a	n/a	-999	9	[4, 7, 7]	18.0	catFR1	0	R1456D
2465.883	6.665	2484709	PROB	6.649	n/a	n/a	n/a	-999	9	[6, 4, 6]	16.0	catFR1	0	R1456D
2472.548	0.0	2491372	DISTRACT_END	n/a	n/a	n/a	n/a	-999	9	[0, 0, 0]	n/a	catFR1	0	R1456D
2472.548	2.317	2491373	STOP	n/a	n/a	n/a	n/a	-999	9	[-999, -999, -999]	n/a	catFR1	0	R1456D
2474.865	0.0	2493690	REC_WORD_VV	0.0	n/a	<>	n/a	-999	9	[0, 0, 0]	n/a	catFR1	0	R1456D
2474.865	3.24	2493692	REC_START	n/a	n/a	n/a	n/a	-999	9	[0, 0, 0]	n/a	catFR1	0	R1456D
2478.105	5.532	2496930	REC_WORD_VV	3.24	n/a	<>	n/a	-999	9	[0, 0, 0]	n/a	catFR1	0	R1456D
2483.637	4.093	2502462	REC_WORD_VV	8.772	n/a	<>	n/a	-999	9	[0, 0, 0]	n/a	catFR1	0	R1456D
2487.73	1.0	2506555	REC_WORD_VV	12.865	n/a	<>	n/a	-999	9	[0, 0, 0]	n/a	catFR1	0	R1456D
2488.73	1.0	2507554	REC_WORD_VV	13.865	n/a	<>	n/a	-999	9	[0, 0, 0]	n/a	catFR1	0	R1456D
2489.73	1.0	2508554	REC_WORD_VV	14.865	n/a	<>	n/a	-999	9	[0, 0, 0]	n/a	catFR1	0	R1456D
2490.73	1.573	2509554	REC_WORD_VV	15.865	n/a	<>	n/a	-999	9	[0, 0, 0]	n/a	catFR1	0	R1456D
2492.303	1.0	2511127	REC_WORD_VV	17.438	n/a	<>	n/a	-999	9	[0, 0, 0]	n/a	catFR1	0	R1456D
2493.303	4.195	2512127	REC_WORD_VV	18.438	n/a	<>	n/a	-999	9	[0, 0, 0]	n/a	catFR1	0	R1456D
2497.498	5.604	2516322	REC_WORD_VV	22.633	n/a	<>	n/a	-999	9	[0, 0, 0]	n/a	catFR1	0	R1456D
2503.102	1.997	2521926	REC_WORD_VV	28.237	n/a	<>	n/a	-999	9	[0, 0, 0]	n/a	catFR1	0	R1456D
2505.099	38.115	2523924	REC_END	n/a	n/a	n/a	n/a	-999	9	[0, 0, 0]	n/a	catFR1	0	R1456D
2543.214	10.0	2562031	COUNTDOWN_START	n/a	n/a	n/a	n/a	-999	10	[0, 0, 0]	n/a	catFR1	0	R1456D
2553.565	0.0	2572380	COUNTDOWN_END	n/a	n/a	n/a	n/a	-999	10	[0, 0, 0]	n/a	catFR1	0	R1456D
2553.565	2.266	2572389	ENCODING_START	n/a	n/a	n/a	n/a	-999	10	[0, 0, 0]	n/a	catFR1	0	R1456D
2555.831	1.6	2574650	WORD	n/a	wordpools/wordpool_categorized_EN.txt	MOTORCYCLE	Vehicles	1	10	[0, 0, 0]	n/a	catFR1	0	R1456D
2557.432	0.783	2576247	WORD_OFF	n/a	n/a	MOTORCYCLE	Vehicles	1	10	[0, 0, 0]	n/a	catFR1	0	R1456D
2558.215	1.6	2577038	WORD	n/a	wordpools/wordpool_categorized_EN.txt	VAN	Vehicles	2	10	[0, 0, 0]	n/a	catFR1	0	R1456D
2559.831	1.001	2578652	WORD_OFF	n/a	n/a	VAN	Vehicles	2	10	[0, 0, 0]	n/a	catFR1	0	R1456D
2560.832	1.6	2579652	WORD	n/a	wordpools/wordpool_categorized_EN.txt	ROSE	Flowers	3	10	[0, 0, 0]	n/a	catFR1	0	R1456D
2562.448	0.767	2581266	WORD_OFF	n/a	n/a	ROSE	Flowers	3	10	[0, 0, 0]	n/a	catFR1	0	R1456D
2563.215	1.6	2582031	WORD	n/a	wordpools/wordpool_categorized_EN.txt	ORCHID	Flowers	4	10	[0, 0, 0]	n/a	catFR1	0	R1456D
2564.815	0.933	2583637	WORD_OFF	n/a	n/a	ORCHID	Flowers	4	10	[0, 0, 0]	n/a	catFR1	0	R1456D
2565.748	1.6	2584570	WORD	n/a	wordpools/wordpool_categorized_EN.txt	ORANGUTAN	Zoo	5	10	[0, 0, 0]	n/a	catFR1	0	R1456D
2567.365	0.833	2586184	WORD_OFF	n/a	n/a	ORANGUTAN	Zoo	5	10	[0, 0, 0]	n/a	catFR1	0	R1456D
2568.198	1.6	2587016	WORD	n/a	wordpools/wordpool_categorized_EN.txt	LION	Zoo	6	10	[0, 0, 0]	n/a	catFR1	0	R1456D
2569.815	0.9	2588630	WORD_OFF	n/a	n/a	LION	Zoo	6	10	[0, 0, 0]	n/a	catFR1	0	R1456D
2570.715	1.6	2589530	WORD	n/a	wordpools/wordpool_categorized_EN.txt	DAFFODIL	Flowers	7	10	[0, 0, 0]	n/a	catFR1	0	R1456D
2572.333	0.782	2591152	WORD_OFF	n/a	n/a	DAFFODIL	Flowers	7	10	[0, 0, 0]	n/a	catFR1	0	R1456D
2573.115	1.6	2591934	WORD	n/a	wordpools/wordpool_categorized_EN.txt	LILAC	Flowers	8	10	[0, 0, 0]	n/a	catFR1	0	R1456D
2574.715	1.0	2593532	WORD_OFF	n/a	n/a	LILAC	Flowers	8	10	[0, 0, 0]	n/a	catFR1	0	R1456D
2575.715	1.6	2594532	WORD	n/a	wordpools/wordpool_categorized_EN.txt	BOAT	Vehicles	9	10	[0, 0, 0]	n/a	catFR1	0	R1456D
2577.333	0.865	2596155	WORD_OFF	n/a	n/a	BOAT	Vehicles	9	10	[0, 0, 0]	n/a	catFR1	0	R1456D
2578.198	1.6	2597020	WORD	n/a	wordpools/wordpool_categorized_EN.txt	SCOOTER	Vehicles	10	10	[0, 0, 0]	n/a	catFR1	0	R1456D
2579.815	0.884	2598635	WORD_OFF	n/a	n/a	SCOOTER	Vehicles	10	10	[0, 0, 0]	n/a	catFR1	0	R1456D
2580.699	1.6	2599517	WORD	n/a	wordpools/wordpool_categorized_EN.txt	CHIMPANZEE	Zoo	11	10	[0, 0, 0]	n/a	catFR1	0	R1456D
2582.315	0.782	2601131	WORD_OFF	n/a	n/a	CHIMPANZEE	Zoo	11	10	[0, 0, 0]	n/a	catFR1	0	R1456D
2583.097	1.6	2601913	WORD	n/a	wordpools/wordpool_categorized_EN.txt	PANDA	Zoo	12	10	[0, 0, 0]	n/a	catFR1	0	R1456D
2584.698	0.001	2603517	PROB	6.7	n/a	n/a	n/a	-999	10	[7, 2, 4]	13.0	catFR1	0	R1456D
2584.699	0.0	2603518	START	n/a	n/a	n/a	n/a	-999	10	[-999, -999, -999]	n/a	catFR1	0	R1456D
2584.698	0.001	2603519	WORD_OFF	n/a	n/a	PANDA	Zoo	12	10	[0, 0, 0]	n/a	catFR1	0	R1456D
2584.699	0.0	2603519	ENCODING_END	n/a	n/a	n/a	n/a	-999	10	[0, 0, 0]	n/a	catFR1	0	R1456D
2584.699	6.716	2603519	DISTRACT_START	n/a	n/a	n/a	n/a	-999	10	[0, 0, 0]	n/a	catFR1	0	R1456D
2591.415	4.083	2610234	PROB	4.066	n/a	n/a	n/a	-999	10	[8, 2, 1]	11.0	catFR1	0	R1456D
2595.498	7.201	2614317	PROB	7.183	n/a	n/a	n/a	-999	10	[7, 2, 4]	13.0	catFR1	0	R1456D
2602.699	5.433	2621517	PROB	5.416	n/a	n/a	n/a	-999	10	[6, 1, 8]	15.0	catFR1	0	R1456D
2608.132	0.0	2626949	DISTRACT_END	n/a	n/a	n/a	n/a	-999	10	[0, 0, 0]	n/a	catFR1	0	R1456D
2608.132	2.198	2626950	STOP	n/a	n/a	n/a	n/a	-999	10	[-999, -999, -999]	n/a	catFR1	0	R1456D
2610.33	1.009	2629142	REC_START	n/a	n/a	n/a	n/a	-999	10	[0, 0, 0]	n/a	catFR1	0	R1456D
2611.339	1.0	2630157	REC_WORD_VV	1.009	n/a	<>	n/a	-999	10	[0, 0, 0]	n/a	catFR1	0	R1456D
2612.339	1.0	2631157	REC_WORD_VV	2.009	n/a	<>	n/a	-999	10	[0, 0, 0]	n/a	catFR1	0	R1456D
2613.339	1.0	2632157	REC_WORD_VV	3.009	n/a	<>	n/a	-999	10	[0, 0, 0]	n/a	catFR1	0	R1456D
2614.339	1.0	2633157	REC_WORD_VV	4.009	n/a	<>	n/a	-999	10	[0, 0, 0]	n/a	catFR1	0	R1456D
2615.339	1.0	2634157	REC_WORD_VV	5.009	n/a	<>	n/a	-999	10	[0, 0, 0]	n/a	catFR1	0	R1456D
2616.339	1.0	2635157	REC_WORD_VV	6.009	n/a	<>	n/a	-999	10	[0, 0, 0]	n/a	catFR1	0	R1456D
2617.339	1.567	2636157	REC_WORD_VV	7.009	n/a	<>	n/a	-999	10	[0, 0, 0]	n/a	catFR1	0	R1456D
2618.906	2.682	2637724	REC_WORD_VV	8.576	n/a	<>	n/a	-999	10	[0, 0, 0]	n/a	catFR1	0	R1456D
2621.588	1.735	2640405	REC_WORD_VV	11.258	n/a	<>	n/a	-999	10	[0, 0, 0]	n/a	catFR1	0	R1456D
2623.323	2.394	2642140	REC_WORD_VV	12.993	n/a	<>	n/a	-999	10	[0, 0, 0]	n/a	catFR1	0	R1456D
2625.717	1.0	2644534	REC_WORD	15.387	n/a	FIFTEEN	n/a	-999	10	[0, 0, 0]	n/a	catFR1	0	R1456D
2626.717	1.0	2645534	REC_WORD_VV	16.387	n/a	<>	n/a	-999	10	[0, 0, 0]	n/a	catFR1	0	R1456D
2627.717	1.992	2646534	REC_WORD_VV	17.387	n/a	<>	n/a	-999	10	[0, 0, 0]	n/a	catFR1	0	R1456D
2629.709	2.806	2648526	REC_WORD_VV	19.379	n/a	<>	n/a	-999	10	[0, 0, 0]	n/a	catFR1	0	R1456D
2632.515	2.043	2651332	REC_WORD_VV	22.185	n/a	<>	n/a	-999	10	[0, 0, 0]	n/a	catFR1	0	R1456D
2634.558	1.277	2653375	REC_WORD_VV	24.228	n/a	<>	n/a	-999	10	[0, 0, 0]	n/a	catFR1	0	R1456D
2635.835	1.0	2654652	REC_WORD	25.505	n/a	FIFTEEN	n/a	-999	10	[0, 0, 0]	n/a	catFR1	0	R1456D
2636.835	3.698	2655652	REC_WORD_VV	26.505	n/a	<>	n/a	-999	10	[0, 0, 0]	n/a	catFR1	0	R1456D
2640.533	15.832	2659348	REC_END	n/a	n/a	n/a	n/a	-999	10	[0, 0, 0]	n/a	catFR1	0	R1456D
2656.365	10.0	2675178	COUNTDOWN_START	n/a	n/a	n/a	n/a	-999	11	[0, 0, 0]	n/a	catFR1	0	R1456D
2666.714	0.001	2685527	COUNTDOWN_END	n/a	n/a	n/a	n/a	-999	11	[0, 0, 0]	n/a	catFR1	0	R1456D
2666.715	2.0	2685527	ENCODING_START	n/a	n/a	n/a	n/a	-999	11	[0, 0, 0]	n/a	catFR1	0	R1456D
2668.715	1.6	2687528	WORD	n/a	wordpools/wordpool_categorized_EN.txt	SHOVEL	Tools	1	11	[0, 0, 0]	n/a	catFR1	0	R1456D
2670.331	0.899	2689142	WORD_OFF	n/a	n/a	SHOVEL	Tools	1	11	[0, 0, 0]	n/a	catFR1	0	R1456D
2671.23	1.6	2690041	WORD	n/a	wordpools/wordpool_categorized_EN.txt	AXE	Tools	2	11	[0, 0, 0]	n/a	catFR1	0	R1456D
2672.832	0.816	2691647	WORD_OFF	n/a	n/a	AXE	Tools	2	11	[0, 0, 0]	n/a	catFR1	0	R1456D
2673.648	1.6	2692463	WORD	n/a	wordpools/wordpool_categorized_EN.txt	STAIRS	Building	3	11	[0, 0, 0]	n/a	catFR1	0	R1456D
2675.264	0.918	2694077	WORD_OFF	n/a	n/a	STAIRS	Building	3	11	[0, 0, 0]	n/a	catFR1	0	R1456D
2676.182	1.6	2694993	WORD	n/a	wordpools/wordpool_categorized_EN.txt	WINDOW	Building	4	11	[0, 0, 0]	n/a	catFR1	0	R1456D
2677.798	0.783	2696607	WORD_OFF	n/a	n/a	WINDOW	Building	4	11	[0, 0, 0]	n/a	catFR1	0	R1456D
2678.581	1.6	2697397	WORD	n/a	wordpools/wordpool_categorized_EN.txt	HURRICANE	Weather	5	11	[0, 0, 0]	n/a	catFR1	0	R1456D
2680.182	0.932	2698995	WORD_OFF	n/a	n/a	HURRICANE	Weather	5	11	[0, 0, 0]	n/a	catFR1	0	R1456D
2681.114	1.6	2699928	WORD	n/a	wordpools/wordpool_categorized_EN.txt	WIND	Weather	6	11	[0, 0, 0]	n/a	catFR1	0	R1456D
2682.714	0.868	2701525	WORD_OFF	n/a	n/a	WIND	Weather	6	11	[0, 0, 0]	n/a	catFR1	0	R1456D
2683.582	1.6	2702391	WORD	n/a	wordpools/wordpool_categorized_EN.txt	SCREWDRIVER	Tools	7	11	[0, 0, 0]	n/a	catFR1	0	R1456D
2685.199	0.866	2704013	WORD_OFF	n/a	n/a	SCREWDRIVER	Tools	7	11	[0, 0, 0]	n/a	catFR1	0	R1456D
2686.065	1.6	2704879	WORD	n/a	wordpools/wordpool_categorized_EN.txt	SAW	Tools	8	11	[0, 0, 0]	n/a	catFR1	0	R1456D
2687.665	0.917	2706477	WORD_OFF	n/a	n/a	SAW	Tools	8	11	[0, 0, 0]	n/a	catFR1	0	R1456D
2688.582	1.6	2707393	WORD	n/a	wordpools/wordpool_categorized_EN.txt	HUMIDITY	Weather	9	11	[0, 0, 0]	n/a	catFR1	0	R1456D
2690.198	0.916	2709007	WORD_OFF	n/a	n/a	HUMIDITY	Weather	9	11	[0, 0, 0]	n/a	catFR1	0	R1456D
2691.114	1.6	2709923	WORD	n/a	wordpools/wordpool_categorized_EN.txt	TORNADO	Weather	10	11	[0, 0, 0]	n/a	catFR1	0	R1456D
2692.715	0.95	2711529	WORD_OFF	n/a	n/a	TORNADO	Weather	10	11	[0, 0, 0]	n/a	catFR1	0	R1456D
2693.665	1.6	2712479	WORD	n/a	wordpools/wordpool_categorized_EN.txt	ATTIC	Building	11	11	[0, 0, 0]	n/a	catFR1	0	R1456D
2695.282	0.998	2714093	WORD_OFF	n/a	n/a	ATTIC	Building	11	11	[0, 0, 0]	n/a	catFR1	0	R1456D
2696.28	1.6	2715094	WORD	n/a	wordpools/wordpool_categorized_EN.txt	FLOOR	Building	12	11	[0, 0, 0]	n/a	catFR1	0	R1456D
2697.882	0.001	2716691	WORD_OFF	n/a	n/a	FLOOR	Building	12	11	[0, 0, 0]	n/a	catFR1	0	R1456D
2697.883	0.0	2716696	START	n/a	n/a	n/a	n/a	-999	11	[-999, -999, -999]	n/a	catFR1	0	R1456D
2697.883	0.0	2716696	PROB	9.099	n/a	n/a	n/a	-999	11	[1, 4, 8]	13.0	catFR1	0	R1456D
2697.883	0.0	2716699	ENCODING_END	n/a	n/a	n/a	n/a	-999	11	[0, 0, 0]	n/a	catFR1	0	R1456D
2697.883	9.116	2716699	DISTRACT_START	n/a	n/a	n/a	n/a	-999	11	[0, 0, 0]	n/a	catFR1	0	R1456D
2706.999	6.25	2725812	PROB	6.233	n/a	n/a	n/a	-999	11	[4, 1, 8]	13.0	catFR1	0	R1456D
2713.249	6.115	2732061	PROB	6.099	n/a	n/a	n/a	-999	11	[3, 7, 5]	15.0	catFR1	0	R1456D
2719.364	0.0	2738176	STOP	n/a	n/a	n/a	n/a	-999	11	[-999, -999, -999]	n/a	catFR1	0	R1456D
2719.364	2.333	2738179	DISTRACT_END	n/a	n/a	n/a	n/a	-999	11	[0, 0, 0]	n/a	catFR1	0	R1456D
2721.697	1.354	2740507	REC_START	n/a	n/a	n/a	n/a	-999	11	[0, 0, 0]	n/a	catFR1	0	R1456D
2723.051	2.032	2741863	REC_WORD_VV	1.354	n/a	<>	n/a	-999	11	[0, 0, 0]	n/a	catFR1	0	R1456D
2725.083	0.448	2743895	REC_WORD_VV	3.386	n/a	<>	n/a	-999	11	[0, 0, 0]	n/a	catFR1	0	R1456D
2725.531	3.083	2744343	REC_WORD	3.834	n/a	ATTIC	Building	11	11	[0, 0, 0]	n/a	catFR1	0	R1456D
2728.614	1.0	2747426	REC_WORD	6.917	n/a	WINDOW	Building	4	11	[0, 0, 0]	n/a	catFR1	0	R1456D
2729.614	5.106	2748426	REC_WORD_VV	7.917	n/a	<>	n/a	-999	11	[0, 0, 0]	n/a	catFR1	0	R1456D
2734.72	9.492	2753531	REC_WORD_VV	13.023	n/a	<>	n/a	-999	11	[0, 0, 0]	n/a	catFR1	0	R1456D
2744.212	1.0	2763023	REC_WORD_VV	22.515	n/a	<>	n/a	-999	11	[0, 0, 0]	n/a	catFR1	0	R1456D
2745.212	1.0	2764023	REC_WORD_VV	23.515	n/a	<>	n/a	-999	11	[0, 0, 0]	n/a	catFR1	0	R1456D
2746.212	1.0	2765023	REC_WORD_VV	24.515	n/a	<>	n/a	-999	11	[0, 0, 0]	n/a	catFR1	0	R1456D
2747.212	1.0	2766023	REC_WORD_VV	25.515	n/a	<>	n/a	-999	11	[0, 0, 0]	n/a	catFR1	0	R1456D
2748.212	1.0	2767023	REC_WORD_VV	26.515	n/a	<>	n/a	-999	11	[0, 0, 0]	n/a	catFR1	0	R1456D
2749.212	1.0	2768023	REC_WORD_VV	27.515	n/a	<>	n/a	-999	11	[0, 0, 0]	n/a	catFR1	0	R1456D
2750.212	1.0	2769022	REC_WORD_VV	28.515	n/a	<>	n/a	-999	11	[0, 0, 0]	n/a	catFR1	0	R1456D
2751.212	0.727	2770022	REC_WORD_VV	29.515	n/a	<>	n/a	-999	11	[0, 0, 0]	n/a	catFR1	0	R1456D
2751.939	26.859	2770746	REC_END	n/a	n/a	n/a	n/a	-999	11	[0, 0, 0]	n/a	catFR1	0	R1456D
2778.798	10.0	2797606	COUNTDOWN_START	n/a	n/a	n/a	n/a	-999	12	[0, 0, 0]	n/a	catFR1	0	R1456D
2789.147	0.001	2807955	COUNTDOWN_END	n/a	n/a	n/a	n/a	-999	12	[0, 0, 0]	n/a	catFR1	0	R1456D
2789.148	1.85	2807955	ENCODING_START	n/a	n/a	n/a	n/a	-999	12	[0, 0, 0]	n/a	catFR1	0	R1456D
2790.998	1.6	2809804	WORD	n/a	wordpools/wordpool_categorized_EN.txt	KNIFE	KitchenTools	1	12	[0, 0, 0]	n/a	catFR1	0	R1456D
2792.615	0.949	2811418	WORD_OFF	n/a	n/a	KNIFE	KitchenTools	1	12	[0, 0, 0]	n/a	catFR1	0	R1456D
2793.564	1.6	2812368	WORD	n/a	wordpools/wordpool_categorized_EN.txt	SPATULA	KitchenTools	2	12	[0, 0, 0]	n/a	catFR1	0	R1456D
2795.181	0.883	2813991	WORD_OFF	n/a	n/a	SPATULA	KitchenTools	2	12	[0, 0, 0]	n/a	catFR1	0	R1456D
2796.064	1.6	2814874	WORD	n/a	wordpools/wordpool_categorized_EN.txt	PAPER	OfficeSupplies	3	12	[0, 0, 0]	n/a	catFR1	0	R1456D
2797.664	0.867	2816471	WORD_OFF	n/a	n/a	PAPER	OfficeSupplies	3	12	[0, 0, 0]	n/a	catFR1	0	R1456D
2798.531	1.6	2817337	WORD	n/a	wordpools/wordpool_categorized_EN.txt	NOTEBOOK	OfficeSupplies	4	12	[0, 0, 0]	n/a	catFR1	0	R1456D
2800.131	0.851	2818934	WORD_OFF	n/a	n/a	NOTEBOOK	OfficeSupplies	4	12	[0, 0, 0]	n/a	catFR1	0	R1456D
2800.982	1.6	2819792	WORD	n/a	wordpools/wordpool_categorized_EN.txt	ROOM	Building	5	12	[0, 0, 0]	n/a	catFR1	0	R1456D
2802.598	1.0	2821406	WORD_OFF	n/a	n/a	ROOM	Building	5	12	[0, 0, 0]	n/a	catFR1	0	R1456D
2803.598	1.6	2822406	WORD	n/a	wordpools/wordpool_categorized_EN.txt	HALLWAY	Building	6	12	[0, 0, 0]	n/a	catFR1	0	R1456D
2805.214	0.884	2824020	WORD_OFF	n/a	n/a	HALLWAY	Building	6	12	[0, 0, 0]	n/a	catFR1	0	R1456D
2806.098	1.6	2824903	WORD	n/a	wordpools/wordpool_categorized_EN.txt	GRATER	KitchenTools	7	12	[0, 0, 0]	n/a	catFR1	0	R1456D
2807.698	0.9	2826500	WORD_OFF	n/a	n/a	GRATER	KitchenTools	7	12	[0, 0, 0]	n/a	catFR1	0	R1456D
2808.598	1.6	2827408	WORD	n/a	wordpools/wordpool_categorized_EN.txt	WHISK	KitchenTools	8	12	[0, 0, 0]	n/a	catFR1	0	R1456D
2810.215	0.95	2829022	WORD_OFF	n/a	n/a	WHISK	KitchenTools	8	12	[0, 0, 0]	n/a	catFR1	0	R1456D
2811.165	1.6	2829972	WORD	n/a	wordpools/wordpool_categorized_EN.txt	ROOF	Building	9	12	[0, 0, 0]	n/a	catFR1	0	R1456D
2812.78	1.002	2831586	WORD_OFF	n/a	n/a	ROOF	Building	9	12	[0, 0, 0]	n/a	catFR1	0	R1456D
2813.782	1.6	2832587	WORD	n/a	wordpools/wordpool_categorized_EN.txt	WALL	Building	10	12	[0, 0, 0]	n/a	catFR1	0	R1456D
2815.399	0.982	2834201	WORD_OFF	n/a	n/a	WALL	Building	10	12	[0, 0, 0]	n/a	catFR1	0	R1456D
2816.381	1.6	2835184	WORD	n/a	wordpools/wordpool_categorized_EN.txt	ERASER	OfficeSupplies	11	12	[0, 0, 0]	n/a	catFR1	0	R1456D
2817.981	0.768	2836790	WORD_OFF	n/a	n/a	ERASER	OfficeSupplies	11	12	[0, 0, 0]	n/a	catFR1	0	R1456D
2818.749	1.6	2837555	WORD	n/a	wordpools/wordpool_categorized_EN.txt	GLUE	OfficeSupplies	12	12	[0, 0, 0]	n/a	catFR1	0	R1456D
2820.364	0.001	2839169	WORD_OFF	n/a	n/a	GLUE	OfficeSupplies	12	12	[0, 0, 0]	n/a	catFR1	0	R1456D
2820.365	0.0	2839169	ENCODING_END	n/a	n/a	n/a	n/a	-999	12	[0, 0, 0]	n/a	catFR1	0	R1456D
2820.365	0.0	2839169	DISTRACT_START	n/a	n/a	n/a	n/a	-999	12	[0, 0, 0]	n/a	catFR1	0	R1456D
2820.364	0.001	2839171	PROB	9.5	n/a	n/a	n/a	-999	12	[4, 5, 3]	16.0	catFR1	0	R1456D
2820.365	9.517	2839172	START	n/a	n/a	n/a	n/a	-999	12	[-999, -999, -999]	n/a	catFR1	0	R1456D
2829.882	5.55	2848688	PROB	5.533	n/a	n/a	n/a	-999	12	[7, 5, 5]	17.0	catFR1	0	R1456D
2835.432	6.014	2854238	PROB	6.0	n/a	n/a	n/a	-999	12	[8, 5, 2]	16.0	catFR1	0	R1456D
2841.446	0.0	2860252	STOP	n/a	n/a	n/a	n/a	-999	12	[-999, -999, -999]	n/a	catFR1	0	R1456D
2841.446	2.219	2860253	DISTRACT_END	n/a	n/a	n/a	n/a	-999	12	[0, 0, 0]	n/a	catFR1	0	R1456D
2843.665	1.838	2862472	REC_START	n/a	n/a	n/a	n/a	-999	12	[0, 0, 0]	n/a	catFR1	0	R1456D
2845.503	4.491	2864308	REC_WORD_VV	1.838	n/a	<>	n/a	-999	12	[0, 0, 0]	n/a	catFR1	0	R1456D
2849.994	9.097	2868799	REC_WORD_VV	6.329	n/a	<>	n/a	-999	12	[0, 0, 0]	n/a	catFR1	0	R1456D
2859.091	2.593	2877896	REC_WORD_VV	15.426	n/a	<>	n/a	-999	12	[0, 0, 0]	n/a	catFR1	0	R1456D
2861.684	5.959	2880488	REC_WORD	18.019	n/a	SIXTEEN	n/a	-999	12	[0, 0, 0]	n/a	catFR1	0	R1456D
2867.643	6.252	2886447	REC_WORD_VV	23.978	n/a	<>	n/a	-999	12	[0, 0, 0]	n/a	catFR1	0	R1456D
2873.895	0.0	2892695	REC_END	n/a	n/a	n/a	n/a	-999	12	[0, 0, 0]	n/a	catFR1	0	R1456D
