onset	duration	sample	trial_type	response_time	stim_file	item_name	category	serialpos	list	test	answer	experiment	session	subject
0.0	0.947	6740	INSTRUCT_START	n/a	n/a	n/a	n/a	-999	-999	[0, 0, 0]	n/a	catFR1	5	R1652A
0.947	36.662	7685	INSTRUCT_END	n/a	n/a	n/a	n/a	-999	-999	[0, 0, 0]	n/a	catFR1	5	R1652A
37.609	10.353	44340	COUNTDOWN_START	n/a	n/a	n/a	n/a	-999	-999	[0, 0, 0]	n/a	catFR1	5	R1652A
47.962	0.0	54691	COUNTDOWN_END	n/a	n/a	n/a	n/a	-999	-999	[0, 0, 0]	n/a	catFR1	5	R1652A
47.962	2.229	54703	ENCODING_START	n/a	n/a	n/a	n/a	-999	-1	[0, 0, 0]	n/a	catFR1	5	R1652A
50.191	1.595	56926	WORD	n/a	n/a	UNDERWEAR	Clothing	1	-1	[0, 0, 0]	n/a	catFR1	5	R1652A
51.786	0.957	58515	WORD_OFF	n/a	n/a	UNDERWEAR	Clothing	1	-1	[0, 0, 0]	n/a	catFR1	5	R1652A
52.743	1.609	59471	WORD	n/a	n/a	SHOES	Clothing	2	-1	[0, 0, 0]	n/a	catFR1	5	R1652A
54.352	0.932	61085	WORD_OFF	n/a	n/a	SHOES	Clothing	2	-1	[0, 0, 0]	n/a	catFR1	5	R1652A
55.284	1.609	62017	WORD	n/a	n/a	CELERY	Vegetables	3	-1	[0, 0, 0]	n/a	catFR1	5	R1652A
56.893	0.982	63631	WORD_OFF	n/a	n/a	CELERY	Vegetables	3	-1	[0, 0, 0]	n/a	catFR1	5	R1652A
57.875	1.602	64611	WORD	n/a	n/a	LETTUCE	Vegetables	4	-1	[0, 0, 0]	n/a	catFR1	5	R1652A
59.477	0.9	66212	WORD_OFF	n/a	n/a	LETTUCE	Vegetables	4	-1	[0, 0, 0]	n/a	catFR1	5	R1652A
60.377	1.6	67109	WORD	n/a	n/a	BASKETBALL	Toys	5	-1	[0, 0, 0]	n/a	catFR1	5	R1652A
61.977	0.908	68710	WORD_OFF	n/a	n/a	BASKETBALL	Toys	5	-1	[0, 0, 0]	n/a	catFR1	5	R1652A
62.885	1.608	69618	WORD	n/a	n/a	FOOTBALL	Toys	6	-1	[0, 0, 0]	n/a	catFR1	5	R1652A
64.493	0.784	71220	WORD_OFF	n/a	n/a	FOOTBALL	Toys	6	-1	[0, 0, 0]	n/a	catFR1	5	R1652A
65.277	1.6	72009	WORD	n/a	n/a	CAULIFLOWER	Vegetables	7	-1	[0, 0, 0]	n/a	catFR1	5	R1652A
66.877	0.873	73610	WORD_OFF	n/a	n/a	CAULIFLOWER	Vegetables	7	-1	[0, 0, 0]	n/a	catFR1	5	R1652A
67.75	1.6	74483	WORD	n/a	n/a	PEAS	Vegetables	8	-1	[0, 0, 0]	n/a	catFR1	5	R1652A
69.35	0.785	76084	WORD_OFF	n/a	n/a	PEAS	Vegetables	8	-1	[0, 0, 0]	n/a	catFR1	5	R1652A
70.135	1.607	76873	WORD	n/a	n/a	SOCKS	Clothing	9	-1	[0, 0, 0]	n/a	catFR1	5	R1652A
71.742	0.934	78475	WORD_OFF	n/a	n/a	SOCKS	Clothing	9	-1	[0, 0, 0]	n/a	catFR1	5	R1652A
72.676	1.6	79407	WORD	n/a	n/a	COAT	Clothing	10	-1	[0, 0, 0]	n/a	catFR1	5	R1652A
74.276	0.891	81009	WORD_OFF	n/a	n/a	COAT	Clothing	10	-1	[0, 0, 0]	n/a	catFR1	5	R1652A
75.167	1.609	81905	WORD	n/a	n/a	PUZZLE	Toys	11	-1	[0, 0, 0]	n/a	catFR1	5	R1652A
76.776	0.916	83506	WORD_OFF	n/a	n/a	PUZZLE	Toys	11	-1	[0, 0, 0]	n/a	catFR1	5	R1652A
77.692	1.615	84427	WORD	n/a	n/a	SLINKY	Toys	12	-1	[0, 0, 0]	n/a	catFR1	5	R1652A
79.307	0.0	86034	START	n/a	n/a	n/a	n/a	-999	-1	[-999, -999, -999]	n/a	catFR1	5	R1652A
79.307	0.0	86034	PROB	0.0	n/a	n/a	n/a	-999	-1	[6, 4, 7]	17	catFR1	5	R1652A
79.302	0.005	86040	WORD_OFF	n/a	n/a	SLINKY	Toys	12	-1	[0, 0, 0]	n/a	catFR1	5	R1652A
79.307	0.0	86040	ENCODING_END	n/a	n/a	n/a	n/a	-999	-1	[0, 0, 0]	n/a	catFR1	5	R1652A
79.307	7.529	86040	DISTRACT_START	n/a	n/a	n/a	n/a	-999	-1	[0, 0, 0]	n/a	catFR1	5	R1652A
86.836	4.299	93563	PROB	4.299	n/a	n/a	n/a	-999	-1	[3, 2, 2]	7	catFR1	5	R1652A
91.135	7.19	97862	PROB	7.19	n/a	n/a	n/a	-999	-1	[6, 7, 7]	20	catFR1	5	R1652A
98.325	4.769	105052	PROB	4.769	n/a	n/a	n/a	-999	-1	[5, 1, 2]	8	catFR1	5	R1652A
103.094	0.0	109821	STOP	n/a	n/a	n/a	n/a	-999	-1	[-999, -999, -999]	n/a	catFR1	5	R1652A
103.094	2.009	109824	DISTRACT_END	n/a	n/a	n/a	n/a	-999	-1	[0, 0, 0]	n/a	catFR1	5	R1652A
105.103	0.323	111832	REC_START	n/a	n/a	n/a	n/a	-999	-1	[0, 0, 0]	n/a	catFR1	5	R1652A
105.426	1.904	112153	REC_WORD	1.904	n/a	CELERY	Vegetables	3	-1	[0, 0, 0]	n/a	catFR1	5	R1652A
107.33	1.748	114057	REC_WORD	1.748	n/a	LETTUCE	Vegetables	4	-1	[0, 0, 0]	n/a	catFR1	5	R1652A
109.078	2.194	115805	REC_WORD	2.194	n/a	PEAS	Vegetables	8	-1	[0, 0, 0]	n/a	catFR1	5	R1652A
111.272	2.082	117999	REC_WORD	2.082	n/a	BASKETBALL	Toys	5	-1	[0, 0, 0]	n/a	catFR1	5	R1652A
113.354	21.891	120081	REC_WORD	21.891	n/a	FOOTBALL	Toys	6	-1	[0, 0, 0]	n/a	catFR1	5	R1652A
135.245	11.515	141975	REC_END	n/a	n/a	n/a	n/a	-999	-1	[0, 0, 0]	n/a	catFR1	5	R1652A
146.76	10.341	153496	COUNTDOWN_START	n/a	n/a	n/a	n/a	-999	1	[0, 0, 0]	n/a	catFR1	5	R1652A
157.101	0.0	163834	COUNTDOWN_END	n/a	n/a	n/a	n/a	-999	1	[0, 0, 0]	n/a	catFR1	5	R1652A
157.101	2.049	163834	ENCODING_START	n/a	n/a	n/a	n/a	-999	1	[0, 0, 0]	n/a	catFR1	5	R1652A
159.15	1.602	165878	WORD	n/a	wordpools/wordpool_categorized_EN.txt	LINEN	Fabric	1	1	[0, 0, 0]	n/a	catFR1	5	R1652A
160.752	0.923	167480	WORD_OFF	n/a	n/a	LINEN	Fabric	1	1	[0, 0, 0]	n/a	catFR1	5	R1652A
161.675	1.601	168412	WORD	n/a	wordpools/wordpool_categorized_EN.txt	VELVET	Fabric	2	1	[0, 0, 0]	n/a	catFR1	5	R1652A
163.276	0.832	170014	WORD_OFF	n/a	n/a	VELVET	Fabric	2	1	[0, 0, 0]	n/a	catFR1	5	R1652A
164.108	1.61	170838	WORD	n/a	wordpools/wordpool_categorized_EN.txt	BUS	Vehicles	3	1	[0, 0, 0]	n/a	catFR1	5	R1652A
165.718	0.865	172452	WORD_OFF	n/a	n/a	BUS	Vehicles	3	1	[0, 0, 0]	n/a	catFR1	5	R1652A
166.583	1.602	173312	WORD	n/a	wordpools/wordpool_categorized_EN.txt	JEEP	Vehicles	4	1	[0, 0, 0]	n/a	catFR1	5	R1652A
168.185	0.767	174914	WORD_OFF	n/a	n/a	JEEP	Vehicles	4	1	[0, 0, 0]	n/a	catFR1	5	R1652A
168.952	1.608	175679	WORD	n/a	wordpools/wordpool_categorized_EN.txt	SODA	Beverages	5	1	[0, 0, 0]	n/a	catFR1	5	R1652A
170.56	0.758	177292	WORD_OFF	n/a	n/a	SODA	Beverages	5	1	[0, 0, 0]	n/a	catFR1	5	R1652A
171.318	1.607	178057	WORD	n/a	wordpools/wordpool_categorized_EN.txt	COFFEE	Beverages	6	1	[0, 0, 0]	n/a	catFR1	5	R1652A
172.925	0.808	179659	WORD_OFF	n/a	n/a	COFFEE	Beverages	6	1	[0, 0, 0]	n/a	catFR1	5	R1652A
173.733	1.602	180459	WORD	n/a	wordpools/wordpool_categorized_EN.txt	SCOOTER	Vehicles	7	1	[0, 0, 0]	n/a	catFR1	5	R1652A
175.335	0.79	182073	WORD_OFF	n/a	n/a	SCOOTER	Vehicles	7	1	[0, 0, 0]	n/a	catFR1	5	R1652A
176.125	1.601	182862	WORD	n/a	wordpools/wordpool_categorized_EN.txt	VAN	Vehicles	8	1	[0, 0, 0]	n/a	catFR1	5	R1652A
177.726	0.909	184463	WORD_OFF	n/a	n/a	VAN	Vehicles	8	1	[0, 0, 0]	n/a	catFR1	5	R1652A
178.635	1.608	185372	WORD	n/a	wordpools/wordpool_categorized_EN.txt	WINE	Beverages	9	1	[0, 0, 0]	n/a	catFR1	5	R1652A
180.243	0.907	186973	WORD_OFF	n/a	n/a	WINE	Beverages	9	1	[0, 0, 0]	n/a	catFR1	5	R1652A
181.15	1.601	187881	WORD	n/a	wordpools/wordpool_categorized_EN.txt	MILK	Beverages	10	1	[0, 0, 0]	n/a	catFR1	5	R1652A
182.751	0.775	189483	WORD_OFF	n/a	n/a	MILK	Beverages	10	1	[0, 0, 0]	n/a	catFR1	5	R1652A
183.526	1.608	190260	WORD	n/a	wordpools/wordpool_categorized_EN.txt	FLEECE	Fabric	11	1	[0, 0, 0]	n/a	catFR1	5	R1652A
185.134	0.965	191861	WORD_OFF	n/a	n/a	FLEECE	Fabric	11	1	[0, 0, 0]	n/a	catFR1	5	R1652A
186.099	1.602	192830	WORD	n/a	wordpools/wordpool_categorized_EN.txt	LEATHER	Fabric	12	1	[0, 0, 0]	n/a	catFR1	5	R1652A
187.701	0.003	194427	PROB	0.003	n/a	n/a	n/a	-999	1	[1, 3, 4]	8	catFR1	5	R1652A
187.704	0.0	194430	START	n/a	n/a	n/a	n/a	-999	1	[-999, -999, -999]	n/a	catFR1	5	R1652A
187.701	0.003	194431	WORD_OFF	n/a	n/a	LEATHER	Fabric	12	1	[0, 0, 0]	n/a	catFR1	5	R1652A
187.704	0.0	194431	ENCODING_END	n/a	n/a	n/a	n/a	-999	1	[0, 0, 0]	n/a	catFR1	5	R1652A
187.704	4.613	194431	DISTRACT_START	n/a	n/a	n/a	n/a	-999	1	[0, 0, 0]	n/a	catFR1	5	R1652A
192.317	3.702	199043	PROB	3.702	n/a	n/a	n/a	-999	1	[1, 6, 1]	8	catFR1	5	R1652A
196.019	3.556	202745	PROB	3.556	n/a	n/a	n/a	-999	1	[1, 3, 7]	11	catFR1	5	R1652A
199.575	5.01	206301	PROB	5.01	n/a	n/a	n/a	-999	1	[7, 2, 4]	13	catFR1	5	R1652A
204.585	3.848	211311	PROB	3.848	n/a	n/a	n/a	-999	1	[1, 2, 6]	9	catFR1	5	R1652A
208.433	0.0	215159	STOP	n/a	n/a	n/a	n/a	-999	1	[-999, -999, -999]	n/a	catFR1	5	R1652A
208.433	2.144	215167	DISTRACT_END	n/a	n/a	n/a	n/a	-999	1	[0, 0, 0]	n/a	catFR1	5	R1652A
210.577	0.718	217307	REC_START	n/a	n/a	n/a	n/a	-999	1	[0, 0, 0]	n/a	catFR1	5	R1652A
211.295	1.646	218021	REC_WORD	1.646	n/a	SODA	Beverages	5	1	[0, 0, 0]	n/a	catFR1	5	R1652A
212.941	1.928	219667	REC_WORD	1.928	n/a	COFFEE	Beverages	6	1	[0, 0, 0]	n/a	catFR1	5	R1652A
214.869	3.251	221595	REC_WORD	3.251	n/a	WATER	n/a	-999	1	[0, 0, 0]	n/a	catFR1	5	R1652A
218.12	5.224	224846	REC_WORD	5.224	n/a	LETTUCE	Vegetables	-999	1	[0, 0, 0]	n/a	catFR1	5	R1652A
223.344	17.374	230070	REC_WORD	17.374	n/a	LINEN	Fabric	1	1	[0, 0, 0]	n/a	catFR1	5	R1652A
240.718	4.74	247449	REC_END	n/a	n/a	n/a	n/a	-999	1	[0, 0, 0]	n/a	catFR1	5	R1652A
245.458	10.343	252194	COUNTDOWN_START	n/a	n/a	n/a	n/a	-999	2	[0, 0, 0]	n/a	catFR1	5	R1652A
255.801	0.0	262532	COUNTDOWN_END	n/a	n/a	n/a	n/a	-999	2	[0, 0, 0]	n/a	catFR1	5	R1652A
255.801	2.176	262532	ENCODING_START	n/a	n/a	n/a	n/a	-999	2	[0, 0, 0]	n/a	catFR1	5	R1652A
257.977	1.608	264708	WORD	n/a	wordpools/wordpool_categorized_EN.txt	HEAD	BodyParts	1	2	[0, 0, 0]	n/a	catFR1	5	R1652A
259.585	0.875	266321	WORD_OFF	n/a	n/a	HEAD	BodyParts	1	2	[0, 0, 0]	n/a	catFR1	5	R1652A
260.46	1.606	267194	WORD	n/a	wordpools/wordpool_categorized_EN.txt	FOOT	BodyParts	2	2	[0, 0, 0]	n/a	catFR1	5	R1652A
262.066	0.934	268795	WORD_OFF	n/a	n/a	FOOT	BodyParts	2	2	[0, 0, 0]	n/a	catFR1	5	R1652A
263.0	1.601	269727	WORD	n/a	wordpools/wordpool_categorized_EN.txt	STRAWBERRY	Fruit	3	2	[0, 0, 0]	n/a	catFR1	5	R1652A
264.601	0.766	271329	WORD_OFF	n/a	n/a	STRAWBERRY	Fruit	3	2	[0, 0, 0]	n/a	catFR1	5	R1652A
265.367	1.601	272094	WORD	n/a	wordpools/wordpool_categorized_EN.txt	GRAPE	Fruit	4	2	[0, 0, 0]	n/a	catFR1	5	R1652A
266.968	0.992	273695	WORD_OFF	n/a	n/a	GRAPE	Fruit	4	2	[0, 0, 0]	n/a	catFR1	5	R1652A
267.96	1.606	274699	WORD	n/a	wordpools/wordpool_categorized_EN.txt	NIGHTSTAND	Furniture	5	2	[0, 0, 0]	n/a	catFR1	5	R1652A
269.566	0.977	276301	WORD_OFF	n/a	n/a	NIGHTSTAND	Furniture	5	2	[0, 0, 0]	n/a	catFR1	5	R1652A
270.543	1.607	277269	WORD	n/a	wordpools/wordpool_categorized_EN.txt	COUCH	Furniture	6	2	[0, 0, 0]	n/a	catFR1	5	R1652A
272.15	0.909	278882	WORD_OFF	n/a	n/a	COUCH	Furniture	6	2	[0, 0, 0]	n/a	catFR1	5	R1652A
273.059	1.601	279791	WORD	n/a	wordpools/wordpool_categorized_EN.txt	LEG	BodyParts	7	2	[0, 0, 0]	n/a	catFR1	5	R1652A
274.66	0.881	281392	WORD_OFF	n/a	n/a	LEG	BodyParts	7	2	[0, 0, 0]	n/a	catFR1	5	R1652A
275.541	1.601	282277	WORD	n/a	wordpools/wordpool_categorized_EN.txt	ELBOW	BodyParts	8	2	[0, 0, 0]	n/a	catFR1	5	R1652A
277.142	0.891	283878	WORD_OFF	n/a	n/a	ELBOW	BodyParts	8	2	[0, 0, 0]	n/a	catFR1	5	R1652A
278.033	1.602	284763	WORD	n/a	wordpools/wordpool_categorized_EN.txt	RECLINER	Furniture	9	2	[0, 0, 0]	n/a	catFR1	5	R1652A
279.635	0.906	286364	WORD_OFF	n/a	n/a	RECLINER	Furniture	9	2	[0, 0, 0]	n/a	catFR1	5	R1652A
280.541	1.6	287273	WORD	n/a	wordpools/wordpool_categorized_EN.txt	SHELF	Furniture	10	2	[0, 0, 0]	n/a	catFR1	5	R1652A
282.141	0.892	288874	WORD_OFF	n/a	n/a	SHELF	Furniture	10	2	[0, 0, 0]	n/a	catFR1	5	R1652A
283.033	1.6	289759	WORD	n/a	wordpools/wordpool_categorized_EN.txt	ORANGE	Fruit	11	2	[0, 0, 0]	n/a	catFR1	5	R1652A
284.633	0.96	291360	WORD_OFF	n/a	n/a	ORANGE	Fruit	11	2	[0, 0, 0]	n/a	catFR1	5	R1652A
285.593	1.608	292328	WORD	n/a	wordpools/wordpool_categorized_EN.txt	LEMON	Fruit	12	2	[0, 0, 0]	n/a	catFR1	5	R1652A
287.201	0.001	293927	PROB	0.001	n/a	n/a	n/a	-999	2	[1, 5, 3]	9	catFR1	5	R1652A
287.202	0.004	293930	WORD_OFF	n/a	n/a	LEMON	Fruit	12	2	[0, 0, 0]	n/a	catFR1	5	R1652A
287.206	0.0	293932	START	n/a	n/a	n/a	n/a	-999	2	[-999, -999, -999]	n/a	catFR1	5	R1652A
287.206	0.0	293942	ENCODING_END	n/a	n/a	n/a	n/a	-999	2	[0, 0, 0]	n/a	catFR1	5	R1652A
287.206	4.887	293942	DISTRACT_START	n/a	n/a	n/a	n/a	-999	2	[0, 0, 0]	n/a	catFR1	5	R1652A
292.093	4.499	298819	PROB	4.499	n/a	n/a	n/a	-999	2	[2, 7, 7]	16	catFR1	5	R1652A
296.592	4.476	303318	PROB	4.476	n/a	n/a	n/a	-999	2	[3, 2, 1]	6	catFR1	5	R1652A
301.068	5.95	307794	PROB	5.95	n/a	n/a	n/a	-999	2	[7, 6, 3]	16	catFR1	5	R1652A
307.018	4.107	313744	PROB	4.107	n/a	n/a	n/a	-999	2	[6, 6, 1]	13	catFR1	5	R1652A
311.125	0.0	317851	STOP	n/a	n/a	n/a	n/a	-999	2	[-999, -999, -999]	n/a	catFR1	5	R1652A
311.125	2.318	317857	DISTRACT_END	n/a	n/a	n/a	n/a	-999	2	[0, 0, 0]	n/a	catFR1	5	R1652A
313.443	0.701	320176	REC_START	n/a	n/a	n/a	n/a	-999	2	[0, 0, 0]	n/a	catFR1	5	R1652A
314.144	2.276	320870	REC_WORD	2.276	n/a	ORANGE	Fruit	11	2	[0, 0, 0]	n/a	catFR1	5	R1652A
316.42	1.585	323146	REC_WORD	1.585	n/a	LEMON	Fruit	12	2	[0, 0, 0]	n/a	catFR1	5	R1652A
318.005	2.155	324731	REC_WORD	2.155	n/a	STRAWBERRY	Fruit	3	2	[0, 0, 0]	n/a	catFR1	5	R1652A
320.16	2.141	326886	REC_WORD	2.141	n/a	GRAPE	Fruit	4	2	[0, 0, 0]	n/a	catFR1	5	R1652A
322.301	2.388	329027	REC_WORD	2.388	n/a	LEG	BodyParts	7	2	[0, 0, 0]	n/a	catFR1	5	R1652A
324.689	2.199	331415	REC_WORD	2.199	n/a	SHOULDER	n/a	-999	2	[0, 0, 0]	n/a	catFR1	5	R1652A
326.888	3.258	333614	REC_WORD	3.258	n/a	HEAD	BodyParts	1	2	[0, 0, 0]	n/a	catFR1	5	R1652A
330.146	2.511	336872	REC_WORD	2.511	n/a	DRESS	n/a	-999	2	[0, 0, 0]	n/a	catFR1	5	R1652A
332.657	3.027	339383	REC_WORD	3.027	n/a	COUCH	Furniture	6	2	[0, 0, 0]	n/a	catFR1	5	R1652A
335.684	7.892	342410	REC_WORD	7.892	n/a	NIGHTSTAND	Furniture	5	2	[0, 0, 0]	n/a	catFR1	5	R1652A
343.576	2.775	350306	REC_END	n/a	n/a	n/a	n/a	-999	2	[0, 0, 0]	n/a	catFR1	5	R1652A
346.351	10.341	353091	COUNTDOWN_START	n/a	n/a	n/a	n/a	-999	3	[0, 0, 0]	n/a	catFR1	5	R1652A
356.692	0.0	363418	COUNTDOWN_END	n/a	n/a	n/a	n/a	-999	3	[0, 0, 0]	n/a	catFR1	5	R1652A
356.692	1.951	363429	ENCODING_START	n/a	n/a	n/a	n/a	-999	3	[0, 0, 0]	n/a	catFR1	5	R1652A
358.643	1.609	365378	WORD	n/a	wordpools/wordpool_categorized_EN.txt	BLOCKS	Toys	1	3	[0, 0, 0]	n/a	catFR1	5	R1652A
360.252	0.791	366979	WORD_OFF	n/a	n/a	BLOCKS	Toys	1	3	[0, 0, 0]	n/a	catFR1	5	R1652A
361.043	1.609	367780	WORD	n/a	wordpools/wordpool_categorized_EN.txt	BALL	Toys	2	3	[0, 0, 0]	n/a	catFR1	5	R1652A
362.652	0.965	369381	WORD_OFF	n/a	n/a	BALL	Toys	2	3	[0, 0, 0]	n/a	catFR1	5	R1652A
363.617	1.601	370350	WORD	n/a	wordpools/wordpool_categorized_EN.txt	LADYBUG	Insects	3	3	[0, 0, 0]	n/a	catFR1	5	R1652A
365.218	0.865	371951	WORD_OFF	n/a	n/a	LADYBUG	Insects	3	3	[0, 0, 0]	n/a	catFR1	5	R1652A
366.083	1.602	372812	WORD	n/a	wordpools/wordpool_categorized_EN.txt	ROACH	Insects	4	3	[0, 0, 0]	n/a	catFR1	5	R1652A
367.685	0.915	374413	WORD_OFF	n/a	n/a	ROACH	Insects	4	3	[0, 0, 0]	n/a	catFR1	5	R1652A
368.6	1.601	375333	WORD	n/a	wordpools/wordpool_categorized_EN.txt	DRYER	Appliances	5	3	[0, 0, 0]	n/a	catFR1	5	R1652A
370.201	0.999	376935	WORD_OFF	n/a	n/a	DRYER	Appliances	5	3	[0, 0, 0]	n/a	catFR1	5	R1652A
371.2	1.6	377927	WORD	n/a	wordpools/wordpool_categorized_EN.txt	DISHWASHER	Appliances	6	3	[0, 0, 0]	n/a	catFR1	5	R1652A
372.8	0.951	379529	WORD_OFF	n/a	n/a	DISHWASHER	Appliances	6	3	[0, 0, 0]	n/a	catFR1	5	R1652A
373.751	1.607	380485	WORD	n/a	wordpools/wordpool_categorized_EN.txt	MOTH	Insects	7	3	[0, 0, 0]	n/a	catFR1	5	R1652A
375.358	0.786	382086	WORD_OFF	n/a	n/a	MOTH	Insects	7	3	[0, 0, 0]	n/a	catFR1	5	R1652A
376.144	1.606	382875	WORD	n/a	wordpools/wordpool_categorized_EN.txt	SPIDER	Insects	8	3	[0, 0, 0]	n/a	catFR1	5	R1652A
377.75	0.877	384477	WORD_OFF	n/a	n/a	SPIDER	Insects	8	3	[0, 0, 0]	n/a	catFR1	5	R1652A
378.627	1.606	385361	WORD	n/a	wordpools/wordpool_categorized_EN.txt	IRON	Appliances	9	3	[0, 0, 0]	n/a	catFR1	5	R1652A
380.233	0.826	386963	WORD_OFF	n/a	n/a	IRON	Appliances	9	3	[0, 0, 0]	n/a	catFR1	5	R1652A
381.059	1.601	387787	WORD	n/a	wordpools/wordpool_categorized_EN.txt	OVEN	Appliances	10	3	[0, 0, 0]	n/a	catFR1	5	R1652A
382.66	0.858	389389	WORD_OFF	n/a	n/a	OVEN	Appliances	10	3	[0, 0, 0]	n/a	catFR1	5	R1652A
383.518	1.6	390249	WORD	n/a	wordpools/wordpool_categorized_EN.txt	DOLLHOUSE	Toys	11	3	[0, 0, 0]	n/a	catFR1	5	R1652A
385.118	0.791	391851	WORD_OFF	n/a	n/a	DOLLHOUSE	Toys	11	3	[0, 0, 0]	n/a	catFR1	5	R1652A
385.909	1.602	392640	WORD	n/a	wordpools/wordpool_categorized_EN.txt	BASEBALL	Toys	12	3	[0, 0, 0]	n/a	catFR1	5	R1652A
387.511	0.004	394237	PROB	0.004	n/a	n/a	n/a	-999	3	[7, 8, 2]	17	catFR1	5	R1652A
387.515	0.0	394241	START	n/a	n/a	n/a	n/a	-999	3	[-999, -999, -999]	n/a	catFR1	5	R1652A
387.51	0.005	394253	WORD_OFF	n/a	n/a	BASEBALL	Toys	12	3	[0, 0, 0]	n/a	catFR1	5	R1652A
387.515	0.0	394253	ENCODING_END	n/a	n/a	n/a	n/a	-999	3	[0, 0, 0]	n/a	catFR1	5	R1652A
387.515	5.828	394253	DISTRACT_START	n/a	n/a	n/a	n/a	-999	3	[0, 0, 0]	n/a	catFR1	5	R1652A
393.343	9.558	400068	PROB	9.558	n/a	n/a	n/a	-999	3	[8, 6, 7]	20	catFR1	5	R1652A
402.901	7.665	409626	PROB	7.665	n/a	n/a	n/a	-999	3	[8, 2, 4]	14	catFR1	5	R1652A
410.566	0.0	417291	STOP	n/a	n/a	n/a	n/a	-999	3	[-999, -999, -999]	n/a	catFR1	5	R1652A
410.566	2.069	417296	DISTRACT_END	n/a	n/a	n/a	n/a	-999	3	[0, 0, 0]	n/a	catFR1	5	R1652A
412.635	1.333	419364	REC_START	n/a	n/a	n/a	n/a	-999	3	[0, 0, 0]	n/a	catFR1	5	R1652A
413.968	1.95	420693	REC_WORD	1.95	n/a	DOLLHOUSE	Toys	11	3	[0, 0, 0]	n/a	catFR1	5	R1652A
415.918	1.755	422643	REC_WORD	1.755	n/a	ROACH	Insects	4	3	[0, 0, 0]	n/a	catFR1	5	R1652A
417.673	1.742	424398	REC_WORD	1.742	n/a	LADYBUG	Insects	3	3	[0, 0, 0]	n/a	catFR1	5	R1652A
419.415	9.09	426140	REC_WORD	9.09	n/a	SPIDER	Insects	8	3	[0, 0, 0]	n/a	catFR1	5	R1652A
428.505	14.262	435230	REC_WORD	14.262	n/a	MOTH	Insects	7	3	[0, 0, 0]	n/a	catFR1	5	R1652A
442.767	2.949	449494	REC_END	n/a	n/a	n/a	n/a	-999	3	[0, 0, 0]	n/a	catFR1	5	R1652A
445.716	10.336	452446	COUNTDOWN_START	n/a	n/a	n/a	n/a	-999	4	[0, 0, 0]	n/a	catFR1	5	R1652A
456.052	0.0	462785	COUNTDOWN_END	n/a	n/a	n/a	n/a	-999	4	[0, 0, 0]	n/a	catFR1	5	R1652A
456.052	1.965	462785	ENCODING_START	n/a	n/a	n/a	n/a	-999	4	[0, 0, 0]	n/a	catFR1	5	R1652A
458.017	1.601	464745	WORD	n/a	wordpools/wordpool_categorized_EN.txt	RADIO	Electronics	1	4	[0, 0, 0]	n/a	catFR1	5	R1652A
459.618	0.908	466346	WORD_OFF	n/a	n/a	RADIO	Electronics	1	4	[0, 0, 0]	n/a	catFR1	5	R1652A
460.526	1.608	467255	WORD	n/a	wordpools/wordpool_categorized_EN.txt	HEADPHONES	Electronics	2	4	[0, 0, 0]	n/a	catFR1	5	R1652A
462.134	0.875	468868	WORD_OFF	n/a	n/a	HEADPHONES	Electronics	2	4	[0, 0, 0]	n/a	catFR1	5	R1652A
463.009	1.609	469741	WORD	n/a	wordpools/wordpool_categorized_EN.txt	MIXER	Appliances	3	4	[0, 0, 0]	n/a	catFR1	5	R1652A
464.618	0.817	471354	WORD_OFF	n/a	n/a	MIXER	Appliances	3	4	[0, 0, 0]	n/a	catFR1	5	R1652A
465.435	1.608	472167	WORD	n/a	wordpools/wordpool_categorized_EN.txt	FREEZER	Appliances	4	4	[0, 0, 0]	n/a	catFR1	5	R1652A
467.043	0.858	473780	WORD_OFF	n/a	n/a	FREEZER	Appliances	4	4	[0, 0, 0]	n/a	catFR1	5	R1652A
467.901	1.6	474629	WORD	n/a	wordpools/wordpool_categorized_EN.txt	HUMIDITY	Weather	5	4	[0, 0, 0]	n/a	catFR1	5	R1652A
469.501	0.892	476231	WORD_OFF	n/a	n/a	HUMIDITY	Weather	5	4	[0, 0, 0]	n/a	catFR1	5	R1652A
470.393	1.608	477127	WORD	n/a	wordpools/wordpool_categorized_EN.txt	WIND	Weather	6	4	[0, 0, 0]	n/a	catFR1	5	R1652A
472.001	0.792	478729	WORD_OFF	n/a	n/a	WIND	Weather	6	4	[0, 0, 0]	n/a	catFR1	5	R1652A
472.793	1.608	479529	WORD	n/a	wordpools/wordpool_categorized_EN.txt	VACUUM	Appliances	7	4	[0, 0, 0]	n/a	catFR1	5	R1652A
474.401	0.883	481131	WORD_OFF	n/a	n/a	VACUUM	Appliances	7	4	[0, 0, 0]	n/a	catFR1	5	R1652A
475.284	1.609	482015	WORD	n/a	wordpools/wordpool_categorized_EN.txt	TOASTER	Appliances	8	4	[0, 0, 0]	n/a	catFR1	5	R1652A
476.893	0.967	483629	WORD_OFF	n/a	n/a	TOASTER	Appliances	8	4	[0, 0, 0]	n/a	catFR1	5	R1652A
477.86	1.6	484585	WORD	n/a	wordpools/wordpool_categorized_EN.txt	SNOW	Weather	9	4	[0, 0, 0]	n/a	catFR1	5	R1652A
479.46	0.775	486186	WORD_OFF	n/a	n/a	SNOW	Weather	9	4	[0, 0, 0]	n/a	catFR1	5	R1652A
480.235	1.607	486963	WORD	n/a	wordpools/wordpool_categorized_EN.txt	LIGHTNING	Weather	10	4	[0, 0, 0]	n/a	catFR1	5	R1652A
481.842	0.766	488577	WORD_OFF	n/a	n/a	LIGHTNING	Weather	10	4	[0, 0, 0]	n/a	catFR1	5	R1652A
482.608	1.6	489342	WORD	n/a	wordpools/wordpool_categorized_EN.txt	TELEVISION	Electronics	11	4	[0, 0, 0]	n/a	catFR1	5	R1652A
484.208	0.96	490943	WORD_OFF	n/a	n/a	TELEVISION	Electronics	11	4	[0, 0, 0]	n/a	catFR1	5	R1652A
485.168	1.608	491899	WORD	n/a	wordpools/wordpool_categorized_EN.txt	MICROWAVE	Electronics	12	4	[0, 0, 0]	n/a	catFR1	5	R1652A
486.776	0.003	493501	PROB	0.003	n/a	n/a	n/a	-999	4	[6, 4, 6]	16	catFR1	5	R1652A
486.779	0.0	493504	START	n/a	n/a	n/a	n/a	-999	4	[-999, -999, -999]	n/a	catFR1	5	R1652A
486.776	0.003	493513	WORD_OFF	n/a	n/a	MICROWAVE	Electronics	12	4	[0, 0, 0]	n/a	catFR1	5	R1652A
486.779	0.0	493513	ENCODING_END	n/a	n/a	n/a	n/a	-999	4	[0, 0, 0]	n/a	catFR1	5	R1652A
486.779	6.062	493513	DISTRACT_START	n/a	n/a	n/a	n/a	-999	4	[0, 0, 0]	n/a	catFR1	5	R1652A
492.841	4.659	499566	PROB	4.659	n/a	n/a	n/a	-999	4	[6, 3, 6]	15	catFR1	5	R1652A
497.5	4.376	504225	PROB	4.376	n/a	n/a	n/a	-999	4	[2, 4, 7]	13	catFR1	5	R1652A
501.876	4.867	508601	PROB	4.867	n/a	n/a	n/a	-999	4	[2, 8, 6]	16	catFR1	5	R1652A
506.743	4.607	513468	PROB	4.607	n/a	n/a	n/a	-999	4	[6, 4, 4]	14	catFR1	5	R1652A
511.35	0.0	518074	DISTRACT_END	n/a	n/a	n/a	n/a	-999	4	[0, 0, 0]	n/a	catFR1	5	R1652A
511.35	2.384	518075	STOP	n/a	n/a	n/a	n/a	-999	4	[-999, -999, -999]	n/a	catFR1	5	R1652A
513.734	1.58	520464	REC_START	n/a	n/a	n/a	n/a	-999	4	[0, 0, 0]	n/a	catFR1	5	R1652A
515.314	2.601	522039	REC_WORD	2.601	n/a	MIXER	Appliances	3	4	[0, 0, 0]	n/a	catFR1	5	R1652A
517.915	2.043	524640	REC_WORD	2.043	n/a	HUMIDITY	Weather	5	4	[0, 0, 0]	n/a	catFR1	5	R1652A
519.958	4.342	526683	REC_WORD	4.342	n/a	SNOW	Weather	9	4	[0, 0, 0]	n/a	catFR1	5	R1652A
524.3	3.012	531025	REC_WORD	3.012	n/a	WASHER	n/a	-999	4	[0, 0, 0]	n/a	catFR1	5	R1652A
527.312	8.31	534037	REC_WORD	8.31	n/a	MICROWAVE	Electronics	12	4	[0, 0, 0]	n/a	catFR1	5	R1652A
535.622	8.251	542347	REC_WORD	8.251	n/a	IRON	Appliances	-999	4	[0, 0, 0]	n/a	catFR1	5	R1652A
543.873	4.177	550607	REC_END	n/a	n/a	n/a	n/a	-999	4	[0, 0, 0]	n/a	catFR1	5	R1652A
548.05	10.342	554778	COUNTDOWN_START	n/a	n/a	n/a	n/a	-999	5	[0, 0, 0]	n/a	catFR1	5	R1652A
558.392	0.0	565116	COUNTDOWN_END	n/a	n/a	n/a	n/a	-999	5	[0, 0, 0]	n/a	catFR1	5	R1652A
558.392	1.949	565128	ENCODING_START	n/a	n/a	n/a	n/a	-999	5	[0, 0, 0]	n/a	catFR1	5	R1652A
560.341	1.6	567076	WORD	n/a	wordpools/wordpool_categorized_EN.txt	LILY	Flowers	1	5	[0, 0, 0]	n/a	catFR1	5	R1652A
561.941	0.967	568666	WORD_OFF	n/a	n/a	LILY	Flowers	1	5	[0, 0, 0]	n/a	catFR1	5	R1652A
562.908	1.609	569634	WORD	n/a	wordpools/wordpool_categorized_EN.txt	MARIGOLD	Flowers	2	5	[0, 0, 0]	n/a	catFR1	5	R1652A
564.517	0.774	571247	WORD_OFF	n/a	n/a	MARIGOLD	Flowers	2	5	[0, 0, 0]	n/a	catFR1	5	R1652A
565.291	1.602	572024	WORD	n/a	wordpools/wordpool_categorized_EN.txt	SPOON	KitchenTools	3	5	[0, 0, 0]	n/a	catFR1	5	R1652A
566.893	0.825	573626	WORD_OFF	n/a	n/a	SPOON	KitchenTools	3	5	[0, 0, 0]	n/a	catFR1	5	R1652A
567.718	1.608	574450	WORD	n/a	wordpools/wordpool_categorized_EN.txt	STRAINER	KitchenTools	4	5	[0, 0, 0]	n/a	catFR1	5	R1652A
569.326	0.925	576052	WORD_OFF	n/a	n/a	STRAINER	KitchenTools	4	5	[0, 0, 0]	n/a	catFR1	5	R1652A
570.251	1.6	576984	WORD	n/a	wordpools/wordpool_categorized_EN.txt	TABLE	Furniture	5	5	[0, 0, 0]	n/a	catFR1	5	R1652A
571.851	0.76	578586	WORD_OFF	n/a	n/a	TABLE	Furniture	5	5	[0, 0, 0]	n/a	catFR1	5	R1652A
572.611	1.607	579339	WORD	n/a	wordpools/wordpool_categorized_EN.txt	DRESSER	Furniture	6	5	[0, 0, 0]	n/a	catFR1	5	R1652A
574.218	0.958	580952	WORD_OFF	n/a	n/a	DRESSER	Furniture	6	5	[0, 0, 0]	n/a	catFR1	5	R1652A
575.176	1.6	581908	WORD	n/a	wordpools/wordpool_categorized_EN.txt	LADLE	KitchenTools	7	5	[0, 0, 0]	n/a	catFR1	5	R1652A
576.776	0.817	583510	WORD_OFF	n/a	n/a	LADLE	KitchenTools	7	5	[0, 0, 0]	n/a	catFR1	5	R1652A
577.593	1.599	584323	WORD	n/a	wordpools/wordpool_categorized_EN.txt	FORK	KitchenTools	8	5	[0, 0, 0]	n/a	catFR1	5	R1652A
579.192	0.958	585924	WORD_OFF	n/a	n/a	FORK	KitchenTools	8	5	[0, 0, 0]	n/a	catFR1	5	R1652A
580.15	1.601	586880	WORD	n/a	wordpools/wordpool_categorized_EN.txt	ORCHID	Flowers	9	5	[0, 0, 0]	n/a	catFR1	5	R1652A
581.751	0.799	588482	WORD_OFF	n/a	n/a	ORCHID	Flowers	9	5	[0, 0, 0]	n/a	catFR1	5	R1652A
582.55	1.601	589283	WORD	n/a	wordpools/wordpool_categorized_EN.txt	VIOLET	Flowers	10	5	[0, 0, 0]	n/a	catFR1	5	R1652A
584.151	0.858	590884	WORD_OFF	n/a	n/a	VIOLET	Flowers	10	5	[0, 0, 0]	n/a	catFR1	5	R1652A
585.009	1.609	591745	WORD	n/a	wordpools/wordpool_categorized_EN.txt	BED	Furniture	11	5	[0, 0, 0]	n/a	catFR1	5	R1652A
586.618	0.758	593346	WORD_OFF	n/a	n/a	BED	Furniture	11	5	[0, 0, 0]	n/a	catFR1	5	R1652A
587.376	1.608	594111	WORD	n/a	wordpools/wordpool_categorized_EN.txt	CHAIR	Furniture	12	5	[0, 0, 0]	n/a	catFR1	5	R1652A
588.984	0.003	595709	PROB	0.003	n/a	n/a	n/a	-999	5	[8, 6, 8]	22	catFR1	5	R1652A
588.987	0.0	595712	START	n/a	n/a	n/a	n/a	-999	5	[-999, -999, -999]	n/a	catFR1	5	R1652A
588.984	0.003	595713	WORD_OFF	n/a	n/a	CHAIR	Furniture	12	5	[0, 0, 0]	n/a	catFR1	5	R1652A
588.987	0.0	595713	ENCODING_END	n/a	n/a	n/a	n/a	-999	5	[0, 0, 0]	n/a	catFR1	5	R1652A
588.987	6.572	595725	DISTRACT_START	n/a	n/a	n/a	n/a	-999	5	[0, 0, 0]	n/a	catFR1	5	R1652A
595.559	4.899	602283	PROB	4.899	n/a	n/a	n/a	-999	5	[3, 4, 7]	14	catFR1	5	R1652A
600.458	4.5	607182	PROB	4.5	n/a	n/a	n/a	-999	5	[4, 3, 8]	15	catFR1	5	R1652A
604.958	5.924	611682	PROB	5.924	n/a	n/a	n/a	-999	5	[8, 5, 1]	15	catFR1	5	R1652A
610.882	0.0	617606	STOP	n/a	n/a	n/a	n/a	-999	5	[-999, -999, -999]	n/a	catFR1	5	R1652A
610.882	2.351	617608	DISTRACT_END	n/a	n/a	n/a	n/a	-999	5	[0, 0, 0]	n/a	catFR1	5	R1652A
613.233	2.902	619963	REC_START	n/a	n/a	n/a	n/a	-999	5	[0, 0, 0]	n/a	catFR1	5	R1652A
616.135	8.222	622859	REC_WORD	8.222	n/a	MARIGOLD	Flowers	2	5	[0, 0, 0]	n/a	catFR1	5	R1652A
624.357	1.689	631081	REC_WORD	1.689	n/a	FORK	KitchenTools	8	5	[0, 0, 0]	n/a	catFR1	5	R1652A
626.046	2.491	632770	REC_WORD	2.491	n/a	SPOON	KitchenTools	3	5	[0, 0, 0]	n/a	catFR1	5	R1652A
628.537	4.975	635261	REC_WORD	4.975	n/a	BED	Furniture	11	5	[0, 0, 0]	n/a	catFR1	5	R1652A
633.512	9.854	640236	REC_WORD	9.854	n/a	LILY	Flowers	1	5	[0, 0, 0]	n/a	catFR1	5	R1652A
643.366	4.967	650093	REC_END	n/a	n/a	n/a	n/a	-999	5	[0, 0, 0]	n/a	catFR1	5	R1652A
648.333	10.342	655065	COUNTDOWN_START	n/a	n/a	n/a	n/a	-999	6	[0, 0, 0]	n/a	catFR1	5	R1652A
658.675	0.0	665404	COUNTDOWN_END	n/a	n/a	n/a	n/a	-999	6	[0, 0, 0]	n/a	catFR1	5	R1652A
658.675	2.159	665404	ENCODING_START	n/a	n/a	n/a	n/a	-999	6	[0, 0, 0]	n/a	catFR1	5	R1652A
660.834	1.609	667567	WORD	n/a	wordpools/wordpool_categorized_EN.txt	ELEPHANT	Zoo	1	6	[0, 0, 0]	n/a	catFR1	5	R1652A
662.443	0.933	669168	WORD_OFF	n/a	n/a	ELEPHANT	Zoo	1	6	[0, 0, 0]	n/a	catFR1	5	R1652A
663.376	1.608	670109	WORD	n/a	wordpools/wordpool_categorized_EN.txt	LION	Zoo	2	6	[0, 0, 0]	n/a	catFR1	5	R1652A
664.984	0.832	671714	WORD_OFF	n/a	n/a	LION	Zoo	2	6	[0, 0, 0]	n/a	catFR1	5	R1652A
665.816	1.6	672539	WORD	n/a	wordpools/wordpool_categorized_EN.txt	HAND	BodyParts	3	6	[0, 0, 0]	n/a	catFR1	5	R1652A
667.416	0.859	674140	WORD_OFF	n/a	n/a	HAND	BodyParts	3	6	[0, 0, 0]	n/a	catFR1	5	R1652A
668.275	1.608	675001	WORD	n/a	wordpools/wordpool_categorized_EN.txt	NOSE	BodyParts	4	6	[0, 0, 0]	n/a	catFR1	5	R1652A
669.883	0.918	676614	WORD_OFF	n/a	n/a	NOSE	BodyParts	4	6	[0, 0, 0]	n/a	catFR1	5	R1652A
670.801	1.608	677535	WORD	n/a	wordpools/wordpool_categorized_EN.txt	DAFFODIL	Flowers	5	6	[0, 0, 0]	n/a	catFR1	5	R1652A
672.409	0.84	679136	WORD_OFF	n/a	n/a	DAFFODIL	Flowers	5	6	[0, 0, 0]	n/a	catFR1	5	R1652A
673.249	1.602	679973	WORD	n/a	wordpools/wordpool_categorized_EN.txt	TULIP	Flowers	6	6	[0, 0, 0]	n/a	catFR1	5	R1652A
674.851	0.948	681586	WORD_OFF	n/a	n/a	TULIP	Flowers	6	6	[0, 0, 0]	n/a	catFR1	5	R1652A
675.799	1.6	682531	WORD	n/a	wordpools/wordpool_categorized_EN.txt	EAR	BodyParts	7	6	[0, 0, 0]	n/a	catFR1	5	R1652A
677.399	0.791	684132	WORD_OFF	n/a	n/a	EAR	BodyParts	7	6	[0, 0, 0]	n/a	catFR1	5	R1652A
678.19	1.602	684921	WORD	n/a	wordpools/wordpool_categorized_EN.txt	FINGERS	BodyParts	8	6	[0, 0, 0]	n/a	catFR1	5	R1652A
679.792	0.842	686522	WORD_OFF	n/a	n/a	FINGERS	BodyParts	8	6	[0, 0, 0]	n/a	catFR1	5	R1652A
680.634	1.608	687359	WORD	n/a	wordpools/wordpool_categorized_EN.txt	PANDA	Zoo	9	6	[0, 0, 0]	n/a	catFR1	5	R1652A
682.242	0.851	688973	WORD_OFF	n/a	n/a	PANDA	Zoo	9	6	[0, 0, 0]	n/a	catFR1	5	R1652A
683.093	1.599	689821	WORD	n/a	wordpools/wordpool_categorized_EN.txt	GORILLA	Zoo	10	6	[0, 0, 0]	n/a	catFR1	5	R1652A
684.692	0.891	691423	WORD_OFF	n/a	n/a	GORILLA	Zoo	10	6	[0, 0, 0]	n/a	catFR1	5	R1652A
685.583	1.601	692307	WORD	n/a	wordpools/wordpool_categorized_EN.txt	SUNFLOWER	Flowers	11	6	[0, 0, 0]	n/a	catFR1	5	R1652A
687.184	0.791	693909	WORD_OFF	n/a	n/a	SUNFLOWER	Flowers	11	6	[0, 0, 0]	n/a	catFR1	5	R1652A
687.975	1.609	694709	WORD	n/a	wordpools/wordpool_categorized_EN.txt	CARNATION	Flowers	12	6	[0, 0, 0]	n/a	catFR1	5	R1652A
689.584	0.0	696308	PROB	0.0	n/a	n/a	n/a	-999	6	[8, 8, 3]	19	catFR1	5	R1652A
689.584	0.003	696311	WORD_OFF	n/a	n/a	CARNATION	Flowers	12	6	[0, 0, 0]	n/a	catFR1	5	R1652A
689.587	0.0	696311	ENCODING_END	n/a	n/a	n/a	n/a	-999	6	[0, 0, 0]	n/a	catFR1	5	R1652A
689.587	0.0	696311	START	n/a	n/a	n/a	n/a	-999	6	[-999, -999, -999]	n/a	catFR1	5	R1652A
689.587	5.579	696323	DISTRACT_START	n/a	n/a	n/a	n/a	-999	6	[0, 0, 0]	n/a	catFR1	5	R1652A
695.166	3.85	701890	PROB	3.85	n/a	n/a	n/a	-999	6	[6, 1, 6]	13	catFR1	5	R1652A
699.016	4.876	705740	PROB	4.876	n/a	n/a	n/a	-999	6	[8, 6, 1]	15	catFR1	5	R1652A
703.892	3.617	710616	PROB	3.617	n/a	n/a	n/a	-999	6	[2, 3, 6]	11	catFR1	5	R1652A
707.509	4.449	714233	PROB	4.449	n/a	n/a	n/a	-999	6	[1, 5, 2]	8	catFR1	5	R1652A
711.958	0.0	718682	STOP	n/a	n/a	n/a	n/a	-999	6	[-999, -999, -999]	n/a	catFR1	5	R1652A
711.958	2.209	718685	DISTRACT_END	n/a	n/a	n/a	n/a	-999	6	[0, 0, 0]	n/a	catFR1	5	R1652A
714.167	0.534	720896	REC_START	n/a	n/a	n/a	n/a	-999	6	[0, 0, 0]	n/a	catFR1	5	R1652A
714.701	1.622	721425	REC_WORD	1.622	n/a	ELEPHANT	Zoo	1	6	[0, 0, 0]	n/a	catFR1	5	R1652A
716.323	1.811	723047	REC_WORD	1.811	n/a	LION	Zoo	2	6	[0, 0, 0]	n/a	catFR1	5	R1652A
718.134	2.073	724858	REC_WORD	2.073	n/a	PANDA	Zoo	9	6	[0, 0, 0]	n/a	catFR1	5	R1652A
720.207	1.973	726931	REC_WORD	1.973	n/a	HAND	BodyParts	3	6	[0, 0, 0]	n/a	catFR1	5	R1652A
722.18	2.044	728904	REC_WORD	2.044	n/a	FINGERS	BodyParts	8	6	[0, 0, 0]	n/a	catFR1	5	R1652A
724.224	20.076	730948	REC_WORD	20.076	n/a	NOSE	BodyParts	4	6	[0, 0, 0]	n/a	catFR1	5	R1652A
744.3	2.917	751026	REC_END	n/a	n/a	n/a	n/a	-999	6	[0, 0, 0]	n/a	catFR1	5	R1652A
747.217	10.342	753943	COUNTDOWN_START	n/a	n/a	n/a	n/a	-999	7	[0, 0, 0]	n/a	catFR1	5	R1652A
757.559	0.0	764293	COUNTDOWN_END	n/a	n/a	n/a	n/a	-999	7	[0, 0, 0]	n/a	catFR1	5	R1652A
757.559	2.033	764293	ENCODING_START	n/a	n/a	n/a	n/a	-999	7	[0, 0, 0]	n/a	catFR1	5	R1652A
759.592	1.6	766325	WORD	n/a	wordpools/wordpool_categorized_EN.txt	TRAIN	Vehicles	1	7	[0, 0, 0]	n/a	catFR1	5	R1652A
761.192	0.968	767926	WORD_OFF	n/a	n/a	TRAIN	Vehicles	1	7	[0, 0, 0]	n/a	catFR1	5	R1652A
762.16	1.608	768894	WORD	n/a	wordpools/wordpool_categorized_EN.txt	PLANE	Vehicles	2	7	[0, 0, 0]	n/a	catFR1	5	R1652A
763.768	0.808	770496	WORD_OFF	n/a	n/a	PLANE	Vehicles	2	7	[0, 0, 0]	n/a	catFR1	5	R1652A
764.576	1.6	771309	WORD	n/a	wordpools/wordpool_categorized_EN.txt	TURTLE	OceanAnimals	3	7	[0, 0, 0]	n/a	catFR1	5	R1652A
766.176	0.815	772910	WORD_OFF	n/a	n/a	TURTLE	OceanAnimals	3	7	[0, 0, 0]	n/a	catFR1	5	R1652A
766.991	1.611	773723	WORD	n/a	wordpools/wordpool_categorized_EN.txt	JELLYFISH	OceanAnimals	4	7	[0, 0, 0]	n/a	catFR1	5	R1652A
768.602	0.758	775336	WORD_OFF	n/a	n/a	JELLYFISH	OceanAnimals	4	7	[0, 0, 0]	n/a	catFR1	5	R1652A
769.36	1.608	776089	WORD	n/a	wordpools/wordpool_categorized_EN.txt	CARDINAL	Birds	5	7	[0, 0, 0]	n/a	catFR1	5	R1652A
770.968	0.8	777703	WORD_OFF	n/a	n/a	CARDINAL	Birds	5	7	[0, 0, 0]	n/a	catFR1	5	R1652A
771.768	1.6	778492	WORD	n/a	wordpools/wordpool_categorized_EN.txt	SPARROW	Birds	6	7	[0, 0, 0]	n/a	catFR1	5	R1652A
773.368	0.792	780105	WORD_OFF	n/a	n/a	SPARROW	Birds	6	7	[0, 0, 0]	n/a	catFR1	5	R1652A
774.16	1.607	780894	WORD	n/a	wordpools/wordpool_categorized_EN.txt	DOLPHIN	OceanAnimals	7	7	[0, 0, 0]	n/a	catFR1	5	R1652A
775.767	0.835	782495	WORD_OFF	n/a	n/a	DOLPHIN	OceanAnimals	7	7	[0, 0, 0]	n/a	catFR1	5	R1652A
776.602	1.607	783332	WORD	n/a	wordpools/wordpool_categorized_EN.txt	OCTOPUS	OceanAnimals	8	7	[0, 0, 0]	n/a	catFR1	5	R1652A
778.209	0.908	784934	WORD_OFF	n/a	n/a	OCTOPUS	OceanAnimals	8	7	[0, 0, 0]	n/a	catFR1	5	R1652A
779.117	1.601	785842	WORD	n/a	wordpools/wordpool_categorized_EN.txt	DUCK	Birds	9	7	[0, 0, 0]	n/a	catFR1	5	R1652A
780.718	0.865	787443	WORD_OFF	n/a	n/a	DUCK	Birds	9	7	[0, 0, 0]	n/a	catFR1	5	R1652A
781.583	1.601	788316	WORD	n/a	wordpools/wordpool_categorized_EN.txt	BLUEBIRD	Birds	10	7	[0, 0, 0]	n/a	catFR1	5	R1652A
783.184	0.967	789917	WORD_OFF	n/a	n/a	BLUEBIRD	Birds	10	7	[0, 0, 0]	n/a	catFR1	5	R1652A
784.151	1.608	790886	WORD	n/a	wordpools/wordpool_categorized_EN.txt	BOAT	Vehicles	11	7	[0, 0, 0]	n/a	catFR1	5	R1652A
785.759	0.959	792487	WORD_OFF	n/a	n/a	BOAT	Vehicles	11	7	[0, 0, 0]	n/a	catFR1	5	R1652A
786.718	1.609	793443	WORD	n/a	wordpools/wordpool_categorized_EN.txt	TRUCK	Vehicles	12	7	[0, 0, 0]	n/a	catFR1	5	R1652A
788.327	0.002	795051	PROB	0.002	n/a	n/a	n/a	-999	7	[3, 7, 5]	15	catFR1	5	R1652A
788.329	0.0	795053	START	n/a	n/a	n/a	n/a	-999	7	[-999, -999, -999]	n/a	catFR1	5	R1652A
788.327	0.002	795057	WORD_OFF	n/a	n/a	TRUCK	Vehicles	12	7	[0, 0, 0]	n/a	catFR1	5	R1652A
788.329	0.0	795057	ENCODING_END	n/a	n/a	n/a	n/a	-999	7	[0, 0, 0]	n/a	catFR1	5	R1652A
788.329	5.865	795057	DISTRACT_START	n/a	n/a	n/a	n/a	-999	7	[0, 0, 0]	n/a	catFR1	5	R1652A
794.194	4.299	800918	PROB	4.299	n/a	n/a	n/a	-999	7	[1, 3, 4]	8	catFR1	5	R1652A
798.493	3.85	805217	PROB	3.85	n/a	n/a	n/a	-999	7	[2, 7, 3]	12	catFR1	5	R1652A
802.343	4.583	809067	PROB	4.583	n/a	n/a	n/a	-999	7	[6, 4, 6]	16	catFR1	5	R1652A
806.926	4.391	813649	PROB	4.391	n/a	n/a	n/a	-999	7	[3, 8, 4]	14	catFR1	5	R1652A
811.317	0.0	818040	DISTRACT_END	n/a	n/a	n/a	n/a	-999	7	[0, 0, 0]	n/a	catFR1	5	R1652A
811.317	2.358	818040	STOP	n/a	n/a	n/a	n/a	-999	7	[-999, -999, -999]	n/a	catFR1	5	R1652A
813.675	1.245	820406	REC_START	n/a	n/a	n/a	n/a	-999	7	[0, 0, 0]	n/a	catFR1	5	R1652A
814.92	2.611	821643	REC_WORD	2.611	n/a	TURTLE	OceanAnimals	3	7	[0, 0, 0]	n/a	catFR1	5	R1652A
817.531	2.249	824254	REC_WORD	2.249	n/a	DOLPHIN	OceanAnimals	7	7	[0, 0, 0]	n/a	catFR1	5	R1652A
819.78	2.211	826503	REC_WORD	2.211	n/a	OCTOPUS	OceanAnimals	8	7	[0, 0, 0]	n/a	catFR1	5	R1652A
821.991	2.5	828714	REC_WORD	2.5	n/a	JELLYFISH	OceanAnimals	4	7	[0, 0, 0]	n/a	catFR1	5	R1652A
824.491	19.326	831214	REC_WORD	19.326	n/a	BOAT	Vehicles	11	7	[0, 0, 0]	n/a	catFR1	5	R1652A
843.817	3.135	850549	REC_END	n/a	n/a	n/a	n/a	-999	7	[0, 0, 0]	n/a	catFR1	5	R1652A
846.952	10.34	853680	COUNTDOWN_START	n/a	n/a	n/a	n/a	-999	8	[0, 0, 0]	n/a	catFR1	5	R1652A
857.292	0.001	864019	COUNTDOWN_END	n/a	n/a	n/a	n/a	-999	8	[0, 0, 0]	n/a	catFR1	5	R1652A
857.293	2.01	864019	ENCODING_START	n/a	n/a	n/a	n/a	-999	8	[0, 0, 0]	n/a	catFR1	5	R1652A
859.303	1.607	866026	WORD	n/a	wordpools/wordpool_categorized_EN.txt	TIGER	Zoo	1	8	[0, 0, 0]	n/a	catFR1	5	R1652A
860.91	0.807	867640	WORD_OFF	n/a	n/a	TIGER	Zoo	1	8	[0, 0, 0]	n/a	catFR1	5	R1652A
861.717	1.61	868453	WORD	n/a	wordpools/wordpool_categorized_EN.txt	CHEETAH	Zoo	2	8	[0, 0, 0]	n/a	catFR1	5	R1652A
863.327	0.815	870054	WORD_OFF	n/a	n/a	CHEETAH	Zoo	2	8	[0, 0, 0]	n/a	catFR1	5	R1652A
864.142	1.601	870867	WORD	n/a	wordpools/wordpool_categorized_EN.txt	CAR	Vehicles	3	8	[0, 0, 0]	n/a	catFR1	5	R1652A
865.743	0.775	872469	WORD_OFF	n/a	n/a	CAR	Vehicles	3	8	[0, 0, 0]	n/a	catFR1	5	R1652A
866.518	1.6	873245	WORD	n/a	wordpools/wordpool_categorized_EN.txt	BIKE	Vehicles	4	8	[0, 0, 0]	n/a	catFR1	5	R1652A
868.118	0.785	874847	WORD_OFF	n/a	n/a	BIKE	Vehicles	4	8	[0, 0, 0]	n/a	catFR1	5	R1652A
868.903	1.605	875636	WORD	n/a	wordpools/wordpool_categorized_EN.txt	PLUM	Fruit	5	8	[0, 0, 0]	n/a	catFR1	5	R1652A
870.508	0.785	877237	WORD_OFF	n/a	n/a	PLUM	Fruit	5	8	[0, 0, 0]	n/a	catFR1	5	R1652A
871.293	1.601	878026	WORD	n/a	wordpools/wordpool_categorized_EN.txt	BANANA	Fruit	6	8	[0, 0, 0]	n/a	catFR1	5	R1652A
872.894	0.891	879628	WORD_OFF	n/a	n/a	BANANA	Fruit	6	8	[0, 0, 0]	n/a	catFR1	5	R1652A
873.785	1.608	880512	WORD	n/a	wordpools/wordpool_categorized_EN.txt	MOPED	Vehicles	7	8	[0, 0, 0]	n/a	catFR1	5	R1652A
875.393	0.791	882126	WORD_OFF	n/a	n/a	MOPED	Vehicles	7	8	[0, 0, 0]	n/a	catFR1	5	R1652A
876.184	1.609	882914	WORD	n/a	wordpools/wordpool_categorized_EN.txt	MOTORCYCLE	Vehicles	8	8	[0, 0, 0]	n/a	catFR1	5	R1652A
877.793	0.998	884516	WORD_OFF	n/a	n/a	MOTORCYCLE	Vehicles	8	8	[0, 0, 0]	n/a	catFR1	5	R1652A
878.791	1.602	885520	WORD	n/a	wordpools/wordpool_categorized_EN.txt	MONKEY	Zoo	9	8	[0, 0, 0]	n/a	catFR1	5	R1652A
880.393	0.99	887121	WORD_OFF	n/a	n/a	MONKEY	Zoo	9	8	[0, 0, 0]	n/a	catFR1	5	R1652A
881.383	1.6	888113	WORD	n/a	wordpools/wordpool_categorized_EN.txt	ORANGUTAN	Zoo	10	8	[0, 0, 0]	n/a	catFR1	5	R1652A
882.983	0.786	889715	WORD_OFF	n/a	n/a	ORANGUTAN	Zoo	10	8	[0, 0, 0]	n/a	catFR1	5	R1652A
883.769	1.599	890504	WORD	n/a	wordpools/wordpool_categorized_EN.txt	PEACH	Fruit	11	8	[0, 0, 0]	n/a	catFR1	5	R1652A
885.368	0.849	892093	WORD_OFF	n/a	n/a	PEACH	Fruit	11	8	[0, 0, 0]	n/a	catFR1	5	R1652A
886.217	1.609	892942	WORD	n/a	wordpools/wordpool_categorized_EN.txt	CHERRY	Fruit	12	8	[0, 0, 0]	n/a	catFR1	5	R1652A
887.826	0.004	894549	PROB	0.004	n/a	n/a	n/a	-999	8	[1, 5, 2]	8	catFR1	5	R1652A
887.83	0.0	894553	START	n/a	n/a	n/a	n/a	-999	8	[-999, -999, -999]	n/a	catFR1	5	R1652A
887.827	0.003	894555	WORD_OFF	n/a	n/a	CHERRY	Fruit	12	8	[0, 0, 0]	n/a	catFR1	5	R1652A
887.83	0.0	894555	ENCODING_END	n/a	n/a	n/a	n/a	-999	8	[0, 0, 0]	n/a	catFR1	5	R1652A
887.83	4.48	894555	DISTRACT_START	n/a	n/a	n/a	n/a	-999	8	[0, 0, 0]	n/a	catFR1	5	R1652A
892.31	4.783	899033	PROB	4.783	n/a	n/a	n/a	-999	8	[1, 5, 3]	9	catFR1	5	R1652A
897.093	4.974	903816	PROB	4.974	n/a	n/a	n/a	-999	8	[8, 5, 1]	15	catFR1	5	R1652A
902.067	6.083	908790	PROB	6.083	n/a	n/a	n/a	-999	8	[6, 6, 5]	18	catFR1	5	R1652A
908.15	0.0	914873	DISTRACT_END	n/a	n/a	n/a	n/a	-999	8	[0, 0, 0]	n/a	catFR1	5	R1652A
908.15	2.277	914873	STOP	n/a	n/a	n/a	n/a	-999	8	[-999, -999, -999]	n/a	catFR1	5	R1652A
910.427	2.457	917156	REC_START	n/a	n/a	n/a	n/a	-999	8	[0, 0, 0]	n/a	catFR1	5	R1652A
912.884	2.384	919607	REC_WORD	2.384	n/a	MOPED	Vehicles	7	8	[0, 0, 0]	n/a	catFR1	5	R1652A
915.268	2.046	921991	REC_WORD	2.046	n/a	MOTORCYCLE	Vehicles	8	8	[0, 0, 0]	n/a	catFR1	5	R1652A
917.314	2.107	924037	REC_WORD	2.107	n/a	CHERRY	Fruit	12	8	[0, 0, 0]	n/a	catFR1	5	R1652A
919.421	1.997	926144	REC_WORD	1.997	n/a	PEACH	Fruit	11	8	[0, 0, 0]	n/a	catFR1	5	R1652A
921.418	2.348	928141	REC_WORD	2.348	n/a	PLUM	Fruit	5	8	[0, 0, 0]	n/a	catFR1	5	R1652A
923.766	2.26	930489	REC_WORD	2.26	n/a	MONKEY	Zoo	9	8	[0, 0, 0]	n/a	catFR1	5	R1652A
926.026	3.249	932749	REC_WORD	3.249	n/a	ORANGUTAN	Zoo	10	8	[0, 0, 0]	n/a	catFR1	5	R1652A
929.275	5.98	935998	REC_WORD	5.98	n/a	CHIMPANZEE	n/a	-999	8	[0, 0, 0]	n/a	catFR1	5	R1652A
935.255	4.116	941978	REC_WORD	4.116	n/a	LION	Zoo	-999	8	[0, 0, 0]	n/a	catFR1	5	R1652A
939.371	1.196	946094	REC_WORD	1.196	n/a	CHEETAH	Zoo	2	8	[0, 0, 0]	n/a	catFR1	5	R1652A
940.567	11.718	947299	REC_END	n/a	n/a	n/a	n/a	-999	8	[0, 0, 0]	n/a	catFR1	5	R1652A
952.285	10.34	959012	COUNTDOWN_START	n/a	n/a	n/a	n/a	-999	9	[0, 0, 0]	n/a	catFR1	5	R1652A
962.625	0.001	969350	COUNTDOWN_END	n/a	n/a	n/a	n/a	-999	9	[0, 0, 0]	n/a	catFR1	5	R1652A
962.626	2.09	969350	ENCODING_START	n/a	n/a	n/a	n/a	-999	9	[0, 0, 0]	n/a	catFR1	5	R1652A
964.716	1.6	971441	WORD	n/a	wordpools/wordpool_categorized_EN.txt	WOOL	Fabric	1	9	[0, 0, 0]	n/a	catFR1	5	R1652A
966.316	0.769	973043	WORD_OFF	n/a	n/a	WOOL	Fabric	1	9	[0, 0, 0]	n/a	catFR1	5	R1652A
967.085	1.607	973815	WORD	n/a	wordpools/wordpool_categorized_EN.txt	SATIN	Fabric	2	9	[0, 0, 0]	n/a	catFR1	5	R1652A
968.692	0.992	975421	WORD_OFF	n/a	n/a	SATIN	Fabric	2	9	[0, 0, 0]	n/a	catFR1	5	R1652A
969.684	1.601	976413	WORD	n/a	wordpools/wordpool_categorized_EN.txt	PUDDING	Desserts	3	9	[0, 0, 0]	n/a	catFR1	5	R1652A
971.285	0.965	978015	WORD_OFF	n/a	n/a	PUDDING	Desserts	3	9	[0, 0, 0]	n/a	catFR1	5	R1652A
972.25	1.602	978983	WORD	n/a	wordpools/wordpool_categorized_EN.txt	COOKIE	Desserts	4	9	[0, 0, 0]	n/a	catFR1	5	R1652A
973.852	0.957	980584	WORD_OFF	n/a	n/a	COOKIE	Desserts	4	9	[0, 0, 0]	n/a	catFR1	5	R1652A
974.809	1.608	981541	WORD	n/a	wordpools/wordpool_categorized_EN.txt	ROBIN	Birds	5	9	[0, 0, 0]	n/a	catFR1	5	R1652A
976.417	0.943	983142	WORD_OFF	n/a	n/a	ROBIN	Birds	5	9	[0, 0, 0]	n/a	catFR1	5	R1652A
977.36	1.6	984086	WORD	n/a	wordpools/wordpool_categorized_EN.txt	GOOSE	Birds	6	9	[0, 0, 0]	n/a	catFR1	5	R1652A
978.96	0.965	985688	WORD_OFF	n/a	n/a	GOOSE	Birds	6	9	[0, 0, 0]	n/a	catFR1	5	R1652A
979.925	1.61	986656	WORD	n/a	wordpools/wordpool_categorized_EN.txt	COTTON	Fabric	7	9	[0, 0, 0]	n/a	catFR1	5	R1652A
981.535	0.873	988269	WORD_OFF	n/a	n/a	COTTON	Fabric	7	9	[0, 0, 0]	n/a	catFR1	5	R1652A
982.408	1.601	989142	WORD	n/a	wordpools/wordpool_categorized_EN.txt	SILK	Fabric	8	9	[0, 0, 0]	n/a	catFR1	5	R1652A
984.009	0.958	990744	WORD_OFF	n/a	n/a	SILK	Fabric	8	9	[0, 0, 0]	n/a	catFR1	5	R1652A
984.967	1.602	991700	WORD	n/a	wordpools/wordpool_categorized_EN.txt	CAKE	Desserts	9	9	[0, 0, 0]	n/a	catFR1	5	R1652A
986.569	0.965	993301	WORD_OFF	n/a	n/a	CAKE	Desserts	9	9	[0, 0, 0]	n/a	catFR1	5	R1652A
987.534	1.601	994269	WORD	n/a	wordpools/wordpool_categorized_EN.txt	CUPCAKE	Desserts	10	9	[0, 0, 0]	n/a	catFR1	5	R1652A
989.135	0.983	995859	WORD_OFF	n/a	n/a	CUPCAKE	Desserts	10	9	[0, 0, 0]	n/a	catFR1	5	R1652A
990.118	1.6	996851	WORD	n/a	wordpools/wordpool_categorized_EN.txt	SEAGULL	Birds	11	9	[0, 0, 0]	n/a	catFR1	5	R1652A
991.718	0.884	998452	WORD_OFF	n/a	n/a	SEAGULL	Birds	11	9	[0, 0, 0]	n/a	catFR1	5	R1652A
992.602	1.607	999325	WORD	n/a	wordpools/wordpool_categorized_EN.txt	DOVE	Birds	12	9	[0, 0, 0]	n/a	catFR1	5	R1652A
994.209	0.002	1000932	PROB	0.002	n/a	n/a	n/a	-999	9	[8, 5, 3]	16	catFR1	5	R1652A
994.211	0.0	1000934	START	n/a	n/a	n/a	n/a	-999	9	[-999, -999, -999]	n/a	catFR1	5	R1652A
994.209	0.002	1000938	WORD_OFF	n/a	n/a	DOVE	Birds	12	9	[0, 0, 0]	n/a	catFR1	5	R1652A
994.211	0.0	1000938	ENCODING_END	n/a	n/a	n/a	n/a	-999	9	[0, 0, 0]	n/a	catFR1	5	R1652A
994.211	6.007	1000938	DISTRACT_START	n/a	n/a	n/a	n/a	-999	9	[0, 0, 0]	n/a	catFR1	5	R1652A
1000.218	3.609	1006941	PROB	3.609	n/a	n/a	n/a	-999	9	[5, 1, 1]	7	catFR1	5	R1652A
1003.827	3.124	1010550	PROB	3.124	n/a	n/a	n/a	-999	9	[1, 1, 3]	5	catFR1	5	R1652A
1006.951	3.876	1013674	PROB	3.876	n/a	n/a	n/a	-999	9	[3, 1, 6]	10	catFR1	5	R1652A
1010.827	4.431	1017549	PROB	4.431	n/a	n/a	n/a	-999	9	[2, 1, 4]	7	catFR1	5	R1652A
1015.258	0.0	1021980	STOP	n/a	n/a	n/a	n/a	-999	9	[-999, -999, -999]	n/a	catFR1	5	R1652A
1015.258	2.135	1021985	DISTRACT_END	n/a	n/a	n/a	n/a	-999	9	[0, 0, 0]	n/a	catFR1	5	R1652A
1017.393	1.28	1024125	REC_START	n/a	n/a	n/a	n/a	-999	9	[0, 0, 0]	n/a	catFR1	5	R1652A
1018.673	2.136	1025395	REC_WORD	2.136	n/a	PUDDING	Desserts	3	9	[0, 0, 0]	n/a	catFR1	5	R1652A
1020.809	2.082	1027531	REC_WORD	2.082	n/a	COOKIE	Desserts	4	9	[0, 0, 0]	n/a	catFR1	5	R1652A
1022.891	1.879	1029613	REC_WORD	1.879	n/a	CAKE	Desserts	9	9	[0, 0, 0]	n/a	catFR1	5	R1652A
1024.77	2.518	1031492	REC_WORD	2.518	n/a	CUPCAKE	Desserts	10	9	[0, 0, 0]	n/a	catFR1	5	R1652A
1027.288	1.95	1034010	REC_WORD	1.95	n/a	DOVE	Birds	12	9	[0, 0, 0]	n/a	catFR1	5	R1652A
1029.238	7.673	1035960	REC_WORD	7.673	n/a	SILK	Fabric	8	9	[0, 0, 0]	n/a	catFR1	5	R1652A
1036.911	2.5	1043633	REC_WORD	2.5	n/a	SATIN	Fabric	2	9	[0, 0, 0]	n/a	catFR1	5	R1652A
1039.411	7.5	1046133	REC_WORD	7.5	n/a	WOOL	Fabric	1	9	[0, 0, 0]	n/a	catFR1	5	R1652A
1046.911	0.622	1053633	REC_WORD_VV	0.622	n/a	<>	n/a	-999	9	[0, 0, 0]	n/a	catFR1	5	R1652A
1047.533	4.059	1054255	REC_END	n/a	n/a	n/a	n/a	-999	9	[0, 0, 0]	n/a	catFR1	5	R1652A
1051.592	10.342	1058319	COUNTDOWN_START	n/a	n/a	n/a	n/a	-999	10	[0, 0, 0]	n/a	catFR1	5	R1652A
1061.934	0.0	1068657	COUNTDOWN_END	n/a	n/a	n/a	n/a	-999	10	[0, 0, 0]	n/a	catFR1	5	R1652A
1061.934	2.142	1068669	ENCODING_START	n/a	n/a	n/a	n/a	-999	10	[0, 0, 0]	n/a	catFR1	5	R1652A
1064.076	1.599	1070809	WORD	n/a	wordpools/wordpool_categorized_EN.txt	PHONE	Electronics	1	10	[0, 0, 0]	n/a	catFR1	5	R1652A
1065.675	0.85	1072398	WORD_OFF	n/a	n/a	PHONE	Electronics	1	10	[0, 0, 0]	n/a	catFR1	5	R1652A
1066.525	1.6	1073247	WORD	n/a	wordpools/wordpool_categorized_EN.txt	PRINTER	Electronics	2	10	[0, 0, 0]	n/a	catFR1	5	R1652A
1068.125	0.893	1074848	WORD_OFF	n/a	n/a	PRINTER	Electronics	2	10	[0, 0, 0]	n/a	catFR1	5	R1652A
1069.018	1.607	1075745	WORD	n/a	wordpools/wordpool_categorized_EN.txt	SPANDEX	Fabric	3	10	[0, 0, 0]	n/a	catFR1	5	R1652A
1070.625	0.809	1077358	WORD_OFF	n/a	n/a	SPANDEX	Fabric	3	10	[0, 0, 0]	n/a	catFR1	5	R1652A
1071.434	1.6	1078159	WORD	n/a	wordpools/wordpool_categorized_EN.txt	DENIM	Fabric	4	10	[0, 0, 0]	n/a	catFR1	5	R1652A
1073.034	0.766	1079761	WORD_OFF	n/a	n/a	DENIM	Fabric	4	10	[0, 0, 0]	n/a	catFR1	5	R1652A
1073.8	1.6	1080525	WORD	n/a	wordpools/wordpool_categorized_EN.txt	MOSQUITO	Insects	5	10	[0, 0, 0]	n/a	catFR1	5	R1652A
1075.4	0.802	1082127	WORD_OFF	n/a	n/a	MOSQUITO	Insects	5	10	[0, 0, 0]	n/a	catFR1	5	R1652A
1076.202	1.6	1082928	WORD	n/a	wordpools/wordpool_categorized_EN.txt	ANT	Insects	6	10	[0, 0, 0]	n/a	catFR1	5	R1652A
1077.802	0.881	1084529	WORD_OFF	n/a	n/a	ANT	Insects	6	10	[0, 0, 0]	n/a	catFR1	5	R1652A
1078.683	1.602	1085414	WORD	n/a	wordpools/wordpool_categorized_EN.txt	SUEDE	Fabric	7	10	[0, 0, 0]	n/a	catFR1	5	R1652A
1080.285	0.883	1087015	WORD_OFF	n/a	n/a	SUEDE	Fabric	7	10	[0, 0, 0]	n/a	catFR1	5	R1652A
1081.168	1.609	1087900	WORD	n/a	wordpools/wordpool_categorized_EN.txt	NYLON	Fabric	8	10	[0, 0, 0]	n/a	catFR1	5	R1652A
1082.777	0.773	1089501	WORD_OFF	n/a	n/a	NYLON	Fabric	8	10	[0, 0, 0]	n/a	catFR1	5	R1652A
1083.55	1.6	1090278	WORD	n/a	wordpools/wordpool_categorized_EN.txt	TABLET	Electronics	9	10	[0, 0, 0]	n/a	catFR1	5	R1652A
1085.15	0.85	1091880	WORD_OFF	n/a	n/a	TABLET	Electronics	9	10	[0, 0, 0]	n/a	catFR1	5	R1652A
1086.0	1.601	1092728	WORD	n/a	wordpools/wordpool_categorized_EN.txt	SCANNER	Electronics	10	10	[0, 0, 0]	n/a	catFR1	5	R1652A
1087.601	0.865	1094330	WORD_OFF	n/a	n/a	SCANNER	Electronics	10	10	[0, 0, 0]	n/a	catFR1	5	R1652A
1088.466	1.602	1095190	WORD	n/a	wordpools/wordpool_categorized_EN.txt	BEETLE	Insects	11	10	[0, 0, 0]	n/a	catFR1	5	R1652A
1090.068	0.841	1096792	WORD_OFF	n/a	n/a	BEETLE	Insects	11	10	[0, 0, 0]	n/a	catFR1	5	R1652A
1090.909	1.601	1097640	WORD	n/a	wordpools/wordpool_categorized_EN.txt	GNAT	Insects	12	10	[0, 0, 0]	n/a	catFR1	5	R1652A
1092.51	0.004	1099232	PROB	0.004	n/a	n/a	n/a	-999	10	[2, 4, 1]	7	catFR1	5	R1652A
1092.514	0.0	1099236	START	n/a	n/a	n/a	n/a	-999	10	[-999, -999, -999]	n/a	catFR1	5	R1652A
1092.512	0.002	1099242	WORD_OFF	n/a	n/a	GNAT	Insects	12	10	[0, 0, 0]	n/a	catFR1	5	R1652A
1092.514	0.0	1099242	ENCODING_END	n/a	n/a	n/a	n/a	-999	10	[0, 0, 0]	n/a	catFR1	5	R1652A
1092.514	5.104	1099242	DISTRACT_START	n/a	n/a	n/a	n/a	-999	10	[0, 0, 0]	n/a	catFR1	5	R1652A
1097.618	4.334	1104340	PROB	4.334	n/a	n/a	n/a	-999	10	[2, 2, 4]	8	catFR1	5	R1652A
1101.952	5.257	1108674	PROB	5.257	n/a	n/a	n/a	-999	10	[1, 5, 4]	10	catFR1	5	R1652A
1107.209	7.191	1113931	PROB	7.191	n/a	n/a	n/a	-999	10	[8, 5, 7]	20	catFR1	5	R1652A
1114.4	0.0	1121122	STOP	n/a	n/a	n/a	n/a	-999	10	[-999, -999, -999]	n/a	catFR1	5	R1652A
1114.4	2.252	1121126	DISTRACT_END	n/a	n/a	n/a	n/a	-999	10	[0, 0, 0]	n/a	catFR1	5	R1652A
1116.652	0.761	1123385	REC_START	n/a	n/a	n/a	n/a	-999	10	[0, 0, 0]	n/a	catFR1	5	R1652A
1117.413	2.094	1124135	REC_WORD	2.094	n/a	MOTORCYCLE	Vehicles	-999	10	[0, 0, 0]	n/a	catFR1	5	R1652A
1119.507	1.997	1126229	REC_WORD	1.997	n/a	ANT	Insects	6	10	[0, 0, 0]	n/a	catFR1	5	R1652A
1121.504	9.697	1128226	REC_WORD	9.697	n/a	GNAT	Insects	12	10	[0, 0, 0]	n/a	catFR1	5	R1652A
1131.201	2.262	1137923	REC_WORD	2.262	n/a	TABLET	Electronics	9	10	[0, 0, 0]	n/a	catFR1	5	R1652A
1133.463	13.329	1140185	REC_WORD	13.329	n/a	SCANNER	Electronics	10	10	[0, 0, 0]	n/a	catFR1	5	R1652A
1146.792	3.485	1153515	REC_END	n/a	n/a	n/a	n/a	-999	10	[0, 0, 0]	n/a	catFR1	5	R1652A
1150.277	10.34	1157005	COUNTDOWN_START	n/a	n/a	n/a	n/a	-999	11	[0, 0, 0]	n/a	catFR1	5	R1652A
1160.617	0.0	1167343	COUNTDOWN_END	n/a	n/a	n/a	n/a	-999	11	[0, 0, 0]	n/a	catFR1	5	R1652A
1160.617	2.183	1167343	ENCODING_START	n/a	n/a	n/a	n/a	-999	11	[0, 0, 0]	n/a	catFR1	5	R1652A
1162.8	1.602	1169530	WORD	n/a	wordpools/wordpool_categorized_EN.txt	PEAR	Fruit	1	11	[0, 0, 0]	n/a	catFR1	5	R1652A
1164.402	0.766	1171132	WORD_OFF	n/a	n/a	PEAR	Fruit	1	11	[0, 0, 0]	n/a	catFR1	5	R1652A
1165.168	1.6	1171897	WORD	n/a	wordpools/wordpool_categorized_EN.txt	BLUEBERRY	Fruit	2	11	[0, 0, 0]	n/a	catFR1	5	R1652A
1166.768	0.859	1173498	WORD_OFF	n/a	n/a	BLUEBERRY	Fruit	2	11	[0, 0, 0]	n/a	catFR1	5	R1652A
1167.627	1.607	1174359	WORD	n/a	wordpools/wordpool_categorized_EN.txt	FUDGE	Desserts	3	11	[0, 0, 0]	n/a	catFR1	5	R1652A
1169.234	0.992	1175961	WORD_OFF	n/a	n/a	FUDGE	Desserts	3	11	[0, 0, 0]	n/a	catFR1	5	R1652A
1170.226	1.601	1176953	WORD	n/a	wordpools/wordpool_categorized_EN.txt	BROWNIES	Desserts	4	11	[0, 0, 0]	n/a	catFR1	5	R1652A
1171.827	0.791	1178554	WORD_OFF	n/a	n/a	BROWNIES	Desserts	4	11	[0, 0, 0]	n/a	catFR1	5	R1652A
1172.618	1.6	1179343	WORD	n/a	wordpools/wordpool_categorized_EN.txt	POTATO	Vegetables	5	11	[0, 0, 0]	n/a	catFR1	5	R1652A
1174.218	0.915	1180944	WORD_OFF	n/a	n/a	POTATO	Vegetables	5	11	[0, 0, 0]	n/a	catFR1	5	R1652A
1175.133	1.6	1181865	WORD	n/a	wordpools/wordpool_categorized_EN.txt	ONION	Vegetables	6	11	[0, 0, 0]	n/a	catFR1	5	R1652A
1176.733	0.876	1183466	WORD_OFF	n/a	n/a	ONION	Vegetables	6	11	[0, 0, 0]	n/a	catFR1	5	R1652A
1177.609	1.6	1184339	WORD	n/a	wordpools/wordpool_categorized_EN.txt	APPLE	Fruit	7	11	[0, 0, 0]	n/a	catFR1	5	R1652A
1179.209	0.841	1185940	WORD_OFF	n/a	n/a	APPLE	Fruit	7	11	[0, 0, 0]	n/a	catFR1	5	R1652A
1180.05	1.601	1186777	WORD	n/a	wordpools/wordpool_categorized_EN.txt	LIME	Fruit	8	11	[0, 0, 0]	n/a	catFR1	5	R1652A
1181.651	0.942	1188378	WORD_OFF	n/a	n/a	LIME	Fruit	8	11	[0, 0, 0]	n/a	catFR1	5	R1652A
1182.593	1.609	1189323	WORD	n/a	wordpools/wordpool_categorized_EN.txt	JELLO	Desserts	9	11	[0, 0, 0]	n/a	catFR1	5	R1652A
1184.202	0.841	1190936	WORD_OFF	n/a	n/a	JELLO	Desserts	9	11	[0, 0, 0]	n/a	catFR1	5	R1652A
1185.043	1.608	1191773	WORD	n/a	wordpools/wordpool_categorized_EN.txt	CHEESECAKE	Desserts	10	11	[0, 0, 0]	n/a	catFR1	5	R1652A
1186.651	0.992	1193374	WORD_OFF	n/a	n/a	CHEESECAKE	Desserts	10	11	[0, 0, 0]	n/a	catFR1	5	R1652A
1187.643	1.607	1194366	WORD	n/a	wordpools/wordpool_categorized_EN.txt	CUCUMBER	Vegetables	11	11	[0, 0, 0]	n/a	catFR1	5	R1652A
1189.25	0.835	1195980	WORD_OFF	n/a	n/a	CUCUMBER	Vegetables	11	11	[0, 0, 0]	n/a	catFR1	5	R1652A
1190.085	1.607	1196816	WORD	n/a	wordpools/wordpool_categorized_EN.txt	CARROT	Vegetables	12	11	[0, 0, 0]	n/a	catFR1	5	R1652A
1191.692	0.003	1198414	PROB	0.003	n/a	n/a	n/a	-999	11	[5, 6, 5]	16	catFR1	5	R1652A
1191.695	0.0	1198417	START	n/a	n/a	n/a	n/a	-999	11	[-999, -999, -999]	n/a	catFR1	5	R1652A
1191.692	0.003	1198418	WORD_OFF	n/a	n/a	CARROT	Vegetables	12	11	[0, 0, 0]	n/a	catFR1	5	R1652A
1191.695	0.0	1198418	ENCODING_END	n/a	n/a	n/a	n/a	-999	11	[0, 0, 0]	n/a	catFR1	5	R1652A
1191.695	5.057	1198418	DISTRACT_START	n/a	n/a	n/a	n/a	-999	11	[0, 0, 0]	n/a	catFR1	5	R1652A
1196.752	5.874	1203474	PROB	5.874	n/a	n/a	n/a	-999	11	[7, 6, 6]	19	catFR1	5	R1652A
1202.626	4.983	1209348	PROB	4.983	n/a	n/a	n/a	-999	11	[7, 7, 5]	19	catFR1	5	R1652A
1207.609	5.776	1214331	PROB	5.776	n/a	n/a	n/a	-999	11	[6, 1, 2]	9	catFR1	5	R1652A
1213.385	0.0	1220107	STOP	n/a	n/a	n/a	n/a	-999	11	[-999, -999, -999]	n/a	catFR1	5	R1652A
1213.385	2.192	1220110	DISTRACT_END	n/a	n/a	n/a	n/a	-999	11	[0, 0, 0]	n/a	catFR1	5	R1652A
1215.577	2.547	1222310	REC_START	n/a	n/a	n/a	n/a	-999	11	[0, 0, 0]	n/a	catFR1	5	R1652A
1218.124	3.695	1224845	REC_WORD	3.695	n/a	BROWNIES	Desserts	4	11	[0, 0, 0]	n/a	catFR1	5	R1652A
1221.819	2.369	1228540	REC_WORD	2.369	n/a	PEAR	Fruit	1	11	[0, 0, 0]	n/a	catFR1	5	R1652A
1224.188	2.156	1230909	REC_WORD	2.156	n/a	APPLE	Fruit	7	11	[0, 0, 0]	n/a	catFR1	5	R1652A
1226.344	2.221	1233065	REC_WORD	2.221	n/a	BLUEBERRY	Fruit	2	11	[0, 0, 0]	n/a	catFR1	5	R1652A
1228.565	2.231	1235286	REC_WORD	2.231	n/a	JELLO	Desserts	9	11	[0, 0, 0]	n/a	catFR1	5	R1652A
1230.796	14.927	1237517	REC_WORD	14.927	n/a	CHEESECAKE	Desserts	10	11	[0, 0, 0]	n/a	catFR1	5	R1652A
1245.723	5.194	1252452	REC_END	n/a	n/a	n/a	n/a	-999	11	[0, 0, 0]	n/a	catFR1	5	R1652A
1250.917	10.343	1257651	COUNTDOWN_START	n/a	n/a	n/a	n/a	-999	12	[0, 0, 0]	n/a	catFR1	5	R1652A
1261.26	0.001	1267989	COUNTDOWN_END	n/a	n/a	n/a	n/a	-999	12	[0, 0, 0]	n/a	catFR1	5	R1652A
1261.261	2.222	1267989	ENCODING_START	n/a	n/a	n/a	n/a	-999	12	[0, 0, 0]	n/a	catFR1	5	R1652A
1263.483	1.602	1270212	WORD	n/a	wordpools/wordpool_categorized_EN.txt	FRISBEE	Toys	1	12	[0, 0, 0]	n/a	catFR1	5	R1652A
1265.085	0.857	1271814	WORD_OFF	n/a	n/a	FRISBEE	Toys	1	12	[0, 0, 0]	n/a	catFR1	5	R1652A
1265.942	1.601	1272674	WORD	n/a	wordpools/wordpool_categorized_EN.txt	DOLL	Toys	2	12	[0, 0, 0]	n/a	catFR1	5	R1652A
1267.543	0.907	1274264	WORD_OFF	n/a	n/a	DOLL	Toys	2	12	[0, 0, 0]	n/a	catFR1	5	R1652A
1268.45	1.6	1275172	WORD	n/a	wordpools/wordpool_categorized_EN.txt	CALCULATOR	Electronics	3	12	[0, 0, 0]	n/a	catFR1	5	R1652A
1270.05	0.967	1276774	WORD_OFF	n/a	n/a	CALCULATOR	Electronics	3	12	[0, 0, 0]	n/a	catFR1	5	R1652A
1271.017	1.6	1277742	WORD	n/a	wordpools/wordpool_categorized_EN.txt	SPEAKER	Electronics	4	12	[0, 0, 0]	n/a	catFR1	5	R1652A
1272.617	0.776	1279344	WORD_OFF	n/a	n/a	SPEAKER	Electronics	4	12	[0, 0, 0]	n/a	catFR1	5	R1652A
1273.393	1.6	1280120	WORD	n/a	wordpools/wordpool_categorized_EN.txt	BUTTERFLY	Insects	5	12	[0, 0, 0]	n/a	catFR1	5	R1652A
1274.993	0.975	1281722	WORD_OFF	n/a	n/a	BUTTERFLY	Insects	5	12	[0, 0, 0]	n/a	catFR1	5	R1652A
1275.968	1.6	1282690	WORD	n/a	wordpools/wordpool_categorized_EN.txt	FLY	Insects	6	12	[0, 0, 0]	n/a	catFR1	5	R1652A
1277.568	0.959	1284292	WORD_OFF	n/a	n/a	FLY	Insects	6	12	[0, 0, 0]	n/a	catFR1	5	R1652A
1278.527	1.608	1285248	WORD	n/a	wordpools/wordpool_categorized_EN.txt	MARBLES	Toys	7	12	[0, 0, 0]	n/a	catFR1	5	R1652A
1280.135	0.998	1286861	WORD_OFF	n/a	n/a	MARBLES	Toys	7	12	[0, 0, 0]	n/a	catFR1	5	R1652A
1281.133	1.6	1287865	WORD	n/a	wordpools/wordpool_categorized_EN.txt	BARBIE	Toys	8	12	[0, 0, 0]	n/a	catFR1	5	R1652A
1282.733	0.96	1289455	WORD_OFF	n/a	n/a	BARBIE	Toys	8	12	[0, 0, 0]	n/a	catFR1	5	R1652A
1283.693	1.6	1290423	WORD	n/a	wordpools/wordpool_categorized_EN.txt	BEE	Insects	9	12	[0, 0, 0]	n/a	catFR1	5	R1652A
1285.293	0.925	1292024	WORD_OFF	n/a	n/a	BEE	Insects	9	12	[0, 0, 0]	n/a	catFR1	5	R1652A
1286.218	1.599	1292945	WORD	n/a	wordpools/wordpool_categorized_EN.txt	CRICKET	Insects	10	12	[0, 0, 0]	n/a	catFR1	5	R1652A
1287.817	0.768	1294546	WORD_OFF	n/a	n/a	CRICKET	Insects	10	12	[0, 0, 0]	n/a	catFR1	5	R1652A
1288.585	1.606	1295311	WORD	n/a	wordpools/wordpool_categorized_EN.txt	STEREO	Electronics	11	12	[0, 0, 0]	n/a	catFR1	5	R1652A
1290.191	0.919	1296913	WORD_OFF	n/a	n/a	STEREO	Electronics	11	12	[0, 0, 0]	n/a	catFR1	5	R1652A
1291.11	1.599	1297833	WORD	n/a	wordpools/wordpool_categorized_EN.txt	COMPUTER	Electronics	12	12	[0, 0, 0]	n/a	catFR1	5	R1652A
1292.709	0.004	1299430	PROB	0.004	n/a	n/a	n/a	-999	12	[6, 4, 2]	12	catFR1	5	R1652A
1292.713	0.0	1299434	START	n/a	n/a	n/a	n/a	-999	12	[-999, -999, -999]	n/a	catFR1	5	R1652A
1292.71	0.003	1299435	WORD_OFF	n/a	n/a	COMPUTER	Electronics	12	12	[0, 0, 0]	n/a	catFR1	5	R1652A
1292.713	0.0	1299435	ENCODING_END	n/a	n/a	n/a	n/a	-999	12	[0, 0, 0]	n/a	catFR1	5	R1652A
1292.713	4.905	1299446	DISTRACT_START	n/a	n/a	n/a	n/a	-999	12	[0, 0, 0]	n/a	catFR1	5	R1652A
1297.618	3.768	1304339	PROB	3.768	n/a	n/a	n/a	-999	12	[1, 3, 7]	11	catFR1	5	R1652A
1301.386	6.69	1308107	PROB	6.69	n/a	n/a	n/a	-999	12	[8, 3, 6]	17	catFR1	5	R1652A
1308.076	5.017	1314797	PROB	5.017	n/a	n/a	n/a	-999	12	[2, 4, 2]	6	catFR1	5	R1652A
1313.093	0.0	1319814	STOP	n/a	n/a	n/a	n/a	-999	12	[-999, -999, -999]	n/a	catFR1	5	R1652A
1313.093	2.359	1319824	DISTRACT_END	n/a	n/a	n/a	n/a	-999	12	[0, 0, 0]	n/a	catFR1	5	R1652A
1315.452	1.229	1322179	REC_START	n/a	n/a	n/a	n/a	-999	12	[0, 0, 0]	n/a	catFR1	5	R1652A
1316.681	1.754	1323402	REC_WORD	1.754	n/a	BEE	Insects	9	12	[0, 0, 0]	n/a	catFR1	5	R1652A
1318.435	1.997	1325156	REC_WORD	1.997	n/a	BUTTERFLY	Insects	5	12	[0, 0, 0]	n/a	catFR1	5	R1652A
1320.432	3.093	1327153	REC_WORD	3.093	n/a	FLY	Insects	6	12	[0, 0, 0]	n/a	catFR1	5	R1652A
1323.525	2.113	1330246	REC_WORD	2.113	n/a	BARBIE	Toys	8	12	[0, 0, 0]	n/a	catFR1	5	R1652A
1325.638	3.35	1332359	REC_WORD	3.35	n/a	STEREO	Electronics	11	12	[0, 0, 0]	n/a	catFR1	5	R1652A
1328.988	16.598	1335709	REC_WORD	16.598	n/a	HEADPHONES	Electronics	-999	12	[0, 0, 0]	n/a	catFR1	5	R1652A
1345.586	0.0	1352309	REC_END	n/a	n/a	n/a	n/a	-999	12	[0, 0, 0]	n/a	catFR1	5	R1652A
