onset	duration	sample	trial_type	response_time	stim_file	item_name	category	serialpos	list	test	answer	experiment	session	subject
0.0	164.767	5407	INSTRUCT_START	n/a	n/a	n/a	n/a	-999	-999	[0, 0, 0]	n/a	catFR1	4	R1450D
164.767	34.416	170167	INSTRUCT_END	n/a	n/a	n/a	n/a	-999	-999	[0, 0, 0]	n/a	catFR1	4	R1450D
199.183	10.0	204580	COUNTDOWN_START	n/a	n/a	n/a	n/a	-999	-999	[0, 0, 0]	n/a	catFR1	4	R1450D
209.534	0.0	214930	COUNTDOWN_END	n/a	n/a	n/a	n/a	-999	-999	[0, 0, 0]	n/a	catFR1	4	R1450D
209.534	1.966	214930	ENCODING_START	n/a	n/a	n/a	n/a	-999	-1	[0, 0, 0]	n/a	catFR1	4	R1450D
211.5	1.6	216896	WORD	n/a	n/a	JELLYFISH	OceanAnimals	1	-1	[0, 0, 0]	n/a	catFR1	4	R1450D
213.116	0.917	218512	WORD_OFF	n/a	n/a	JELLYFISH	OceanAnimals	1	-1	[0, 0, 0]	n/a	catFR1	4	R1450D
214.033	1.6	219433	WORD	n/a	n/a	OCTOPUS	OceanAnimals	2	-1	[0, 0, 0]	n/a	catFR1	4	R1450D
215.633	0.9	221031	WORD_OFF	n/a	n/a	OCTOPUS	OceanAnimals	2	-1	[0, 0, 0]	n/a	catFR1	4	R1450D
216.533	1.6	221926	WORD	n/a	n/a	CHERRY	Fruit	3	-1	[0, 0, 0]	n/a	catFR1	4	R1450D
218.136	0.897	223533	WORD_OFF	n/a	n/a	CHERRY	Fruit	3	-1	[0, 0, 0]	n/a	catFR1	4	R1450D
219.033	1.6	224428	WORD	n/a	n/a	PLUM	Fruit	4	-1	[0, 0, 0]	n/a	catFR1	4	R1450D
220.634	0.916	226026	WORD_OFF	n/a	n/a	PLUM	Fruit	4	-1	[0, 0, 0]	n/a	catFR1	4	R1450D
221.55	1.6	226948	WORD	n/a	n/a	HEAD	BodyParts	5	-1	[0, 0, 0]	n/a	catFR1	4	R1450D
223.167	0.933	228563	WORD_OFF	n/a	n/a	HEAD	BodyParts	5	-1	[0, 0, 0]	n/a	catFR1	4	R1450D
224.1	1.6	229494	WORD	n/a	n/a	EYE	BodyParts	6	-1	[0, 0, 0]	n/a	catFR1	4	R1450D
225.717	0.816	231109	WORD_OFF	n/a	n/a	EYE	BodyParts	6	-1	[0, 0, 0]	n/a	catFR1	4	R1450D
226.533	1.6	231934	WORD	n/a	n/a	DOLPHIN	OceanAnimals	7	-1	[0, 0, 0]	n/a	catFR1	4	R1450D
228.15	0.95	233550	WORD_OFF	n/a	n/a	DOLPHIN	OceanAnimals	7	-1	[0, 0, 0]	n/a	catFR1	4	R1450D
229.1	1.6	234498	WORD	n/a	n/a	SHRIMP	OceanAnimals	8	-1	[0, 0, 0]	n/a	catFR1	4	R1450D
230.7	0.783	236095	WORD_OFF	n/a	n/a	SHRIMP	OceanAnimals	8	-1	[0, 0, 0]	n/a	catFR1	4	R1450D
231.483	1.6	236877	WORD	n/a	n/a	ELBOW	BodyParts	9	-1	[0, 0, 0]	n/a	catFR1	4	R1450D
233.099	0.968	238492	WORD_OFF	n/a	n/a	ELBOW	BodyParts	9	-1	[0, 0, 0]	n/a	catFR1	4	R1450D
234.067	1.6	239466	WORD	n/a	n/a	TOE	BodyParts	10	-1	[0, 0, 0]	n/a	catFR1	4	R1450D
235.667	0.983	241064	WORD_OFF	n/a	n/a	TOE	BodyParts	10	-1	[0, 0, 0]	n/a	catFR1	4	R1450D
236.65	1.6	242047	WORD	n/a	n/a	BANANA	Fruit	11	-1	[0, 0, 0]	n/a	catFR1	4	R1450D
238.25	0.767	243645	WORD_OFF	n/a	n/a	BANANA	Fruit	11	-1	[0, 0, 0]	n/a	catFR1	4	R1450D
239.017	1.6	244409	WORD	n/a	n/a	STRAWBERRY	Fruit	12	-1	[0, 0, 0]	n/a	catFR1	4	R1450D
240.635	0.0	246028	START	n/a	n/a	n/a	n/a	-999	-1	[-999, -999, -999]	n/a	catFR1	4	R1450D
240.635	0.0	246028	PROB	9.916	n/a	n/a	n/a	-999	-1	[5, 2, 1]	8.0	catFR1	4	R1450D
240.633	0.001	246033	WORD_OFF	n/a	n/a	STRAWBERRY	Fruit	12	-1	[0, 0, 0]	n/a	catFR1	4	R1450D
240.634	0.001	246033	ENCODING_END	n/a	n/a	n/a	n/a	-999	-1	[0, 0, 0]	n/a	catFR1	4	R1450D
240.635	9.933	246033	DISTRACT_START	n/a	n/a	n/a	n/a	-999	-1	[0, 0, 0]	n/a	catFR1	4	R1450D
250.568	14.065	255961	PROB	14.048	n/a	n/a	n/a	-999	-1	[8, 3, 8]	19.0	catFR1	4	R1450D
264.633	0.0	270025	DISTRACT_END	n/a	n/a	n/a	n/a	-999	-1	[0, 0, 0]	n/a	catFR1	4	R1450D
264.633	2.134	270025	STOP	n/a	n/a	n/a	n/a	-999	-1	[-999, -999, -999]	n/a	catFR1	4	R1450D
266.767	9.573	272158	REC_START	n/a	n/a	n/a	n/a	-999	-1	[0, 0, 0]	n/a	catFR1	4	R1450D
276.34	20.614	281731	REC_WORD_VV	9.573	n/a	<>	n/a	-999	-1	[0, 0, 0]	n/a	catFR1	4	R1450D
296.954	24.096	302349	REC_END	n/a	n/a	n/a	n/a	-999	-1	[0, 0, 0]	n/a	catFR1	4	R1450D
321.05	10.0	326446	COUNTDOWN_START	n/a	n/a	n/a	n/a	-999	1	[0, 0, 0]	n/a	catFR1	4	R1450D
331.4	0.001	336788	COUNTDOWN_END	n/a	n/a	n/a	n/a	-999	1	[0, 0, 0]	n/a	catFR1	4	R1450D
331.401	1.966	336796	ENCODING_START	n/a	n/a	n/a	n/a	-999	1	[0, 0, 0]	n/a	catFR1	4	R1450D
333.367	1.6	338754	WORD	n/a	wordpools/wordpool_categorized_EN.txt	THUNDERSTORM	Weather	1	1	[0, 0, 0]	n/a	catFR1	4	R1450D
334.967	0.915	340361	WORD_OFF	n/a	n/a	THUNDERSTORM	Weather	1	1	[0, 0, 0]	n/a	catFR1	4	R1450D
335.882	1.6	341274	WORD	n/a	wordpools/wordpool_categorized_EN.txt	LIGHTNING	Weather	2	1	[0, 0, 0]	n/a	catFR1	4	R1450D
337.484	0.966	342871	WORD_OFF	n/a	n/a	LIGHTNING	Weather	2	1	[0, 0, 0]	n/a	catFR1	4	R1450D
338.45	1.6	343837	WORD	n/a	wordpools/wordpool_categorized_EN.txt	RADIO	Electronics	3	1	[0, 0, 0]	n/a	catFR1	4	R1450D
340.05	0.783	345444	WORD_OFF	n/a	n/a	RADIO	Electronics	3	1	[0, 0, 0]	n/a	catFR1	4	R1450D
340.833	1.6	346225	WORD	n/a	wordpools/wordpool_categorized_EN.txt	PHONE	Electronics	4	1	[0, 0, 0]	n/a	catFR1	4	R1450D
342.449	0.934	347840	WORD_OFF	n/a	n/a	PHONE	Electronics	4	1	[0, 0, 0]	n/a	catFR1	4	R1450D
343.383	1.6	348771	WORD	n/a	wordpools/wordpool_categorized_EN.txt	UNDERWEAR	Clothing	5	1	[0, 0, 0]	n/a	catFR1	4	R1450D
344.983	0.884	350377	WORD_OFF	n/a	n/a	UNDERWEAR	Clothing	5	1	[0, 0, 0]	n/a	catFR1	4	R1450D
345.867	1.6	351255	WORD	n/a	wordpools/wordpool_categorized_EN.txt	SHOES	Clothing	6	1	[0, 0, 0]	n/a	catFR1	4	R1450D
347.483	0.9	352870	WORD_OFF	n/a	n/a	SHOES	Clothing	6	1	[0, 0, 0]	n/a	catFR1	4	R1450D
348.383	1.6	353775	WORD	n/a	wordpools/wordpool_categorized_EN.txt	TELEVISION	Electronics	7	1	[0, 0, 0]	n/a	catFR1	4	R1450D
349.983	0.866	355372	WORD_OFF	n/a	n/a	TELEVISION	Electronics	7	1	[0, 0, 0]	n/a	catFR1	4	R1450D
350.849	1.6	356241	WORD	n/a	wordpools/wordpool_categorized_EN.txt	SCANNER	Electronics	8	1	[0, 0, 0]	n/a	catFR1	4	R1450D
352.45	0.883	357839	WORD_OFF	n/a	n/a	SCANNER	Electronics	8	1	[0, 0, 0]	n/a	catFR1	4	R1450D
353.333	1.6	358726	WORD	n/a	wordpools/wordpool_categorized_EN.txt	TORNADO	Weather	9	1	[0, 0, 0]	n/a	catFR1	4	R1450D
354.935	0.965	360324	WORD_OFF	n/a	n/a	TORNADO	Weather	9	1	[0, 0, 0]	n/a	catFR1	4	R1450D
355.9	1.6	361289	WORD	n/a	wordpools/wordpool_categorized_EN.txt	HURRICANE	Weather	10	1	[0, 0, 0]	n/a	catFR1	4	R1450D
357.517	0.8	362904	WORD_OFF	n/a	n/a	HURRICANE	Weather	10	1	[0, 0, 0]	n/a	catFR1	4	R1450D
358.317	1.6	363703	WORD	n/a	wordpools/wordpool_categorized_EN.txt	SHORTS	Clothing	11	1	[0, 0, 0]	n/a	catFR1	4	R1450D
359.917	0.983	365310	WORD_OFF	n/a	n/a	SHORTS	Clothing	11	1	[0, 0, 0]	n/a	catFR1	4	R1450D
360.9	1.6	366293	WORD	n/a	wordpools/wordpool_categorized_EN.txt	JACKET	Clothing	12	1	[0, 0, 0]	n/a	catFR1	4	R1450D
362.516	0.001	367903	PROB	11.316	n/a	n/a	n/a	-999	1	[2, 6, 2]	10.0	catFR1	4	R1450D
362.517	0.0	367904	START	n/a	n/a	n/a	n/a	-999	1	[-999, -999, -999]	n/a	catFR1	4	R1450D
362.516	0.001	367908	WORD_OFF	n/a	n/a	JACKET	Clothing	12	1	[0, 0, 0]	n/a	catFR1	4	R1450D
362.517	0.0	367908	ENCODING_END	n/a	n/a	n/a	n/a	-999	1	[0, 0, 0]	n/a	catFR1	4	R1450D
362.517	11.333	367908	DISTRACT_START	n/a	n/a	n/a	n/a	-999	1	[0, 0, 0]	n/a	catFR1	4	R1450D
373.85	15.433	379236	PROB	15.417	n/a	n/a	n/a	-999	1	[8, 7, 4]	19.0	catFR1	4	R1450D
389.283	0.0	394666	DISTRACT_END	n/a	n/a	n/a	n/a	-999	1	[0, 0, 0]	n/a	catFR1	4	R1450D
389.283	2.05	394668	STOP	n/a	n/a	n/a	n/a	-999	1	[-999, -999, -999]	n/a	catFR1	4	R1450D
391.333	6.655	396720	REC_START	n/a	n/a	n/a	n/a	-999	1	[0, 0, 0]	n/a	catFR1	4	R1450D
397.988	1.0	403373	REC_WORD_VV	6.655	n/a	<>	n/a	-999	1	[0, 0, 0]	n/a	catFR1	4	R1450D
398.988	7.333	404373	REC_WORD_VV	7.655	n/a	<>	n/a	-999	1	[0, 0, 0]	n/a	catFR1	4	R1450D
406.321	6.045	411706	REC_WORD_VV	14.988	n/a	<>	n/a	-999	1	[0, 0, 0]	n/a	catFR1	4	R1450D
412.366	1.0	417750	REC_WORD_VV	21.033	n/a	<>	n/a	-999	1	[0, 0, 0]	n/a	catFR1	4	R1450D
413.366	8.139	418750	REC_WORD_VV	22.033	n/a	<>	n/a	-999	1	[0, 0, 0]	n/a	catFR1	4	R1450D
421.505	5.394	426893	REC_END	n/a	n/a	n/a	n/a	-999	1	[0, 0, 0]	n/a	catFR1	4	R1450D
426.899	10.0	432283	COUNTDOWN_START	n/a	n/a	n/a	n/a	-999	2	[0, 0, 0]	n/a	catFR1	4	R1450D
437.249	0.0	442633	COUNTDOWN_END	n/a	n/a	n/a	n/a	-999	2	[0, 0, 0]	n/a	catFR1	4	R1450D
437.249	1.934	442633	ENCODING_START	n/a	n/a	n/a	n/a	-999	2	[0, 0, 0]	n/a	catFR1	4	R1450D
439.183	1.6	444564	WORD	n/a	wordpools/wordpool_categorized_EN.txt	ORANGUTAN	Zoo	1	2	[0, 0, 0]	n/a	catFR1	4	R1450D
440.784	0.982	446171	WORD_OFF	n/a	n/a	ORANGUTAN	Zoo	1	2	[0, 0, 0]	n/a	catFR1	4	R1450D
441.766	1.6	447154	WORD	n/a	wordpools/wordpool_categorized_EN.txt	ZEBRA	Zoo	2	2	[0, 0, 0]	n/a	catFR1	4	R1450D
443.367	0.917	448752	WORD_OFF	n/a	n/a	ZEBRA	Zoo	2	2	[0, 0, 0]	n/a	catFR1	4	R1450D
444.284	1.6	449665	WORD	n/a	wordpools/wordpool_categorized_EN.txt	WHISK	KitchenTools	3	2	[0, 0, 0]	n/a	catFR1	4	R1450D
445.9	0.85	451289	WORD_OFF	n/a	n/a	WHISK	KitchenTools	3	2	[0, 0, 0]	n/a	catFR1	4	R1450D
446.75	1.6	452132	WORD	n/a	wordpools/wordpool_categorized_EN.txt	COLANDER	KitchenTools	4	2	[0, 0, 0]	n/a	catFR1	4	R1450D
448.35	0.933	453738	WORD_OFF	n/a	n/a	COLANDER	KitchenTools	4	2	[0, 0, 0]	n/a	catFR1	4	R1450D
449.283	1.6	454669	WORD	n/a	wordpools/wordpool_categorized_EN.txt	DOLL	Toys	5	2	[0, 0, 0]	n/a	catFR1	4	R1450D
450.9	0.9	456284	WORD_OFF	n/a	n/a	DOLL	Toys	5	2	[0, 0, 0]	n/a	catFR1	4	R1450D
451.8	1.6	457188	WORD	n/a	wordpools/wordpool_categorized_EN.txt	FOOTBALL	Toys	6	2	[0, 0, 0]	n/a	catFR1	4	R1450D
453.416	0.801	458804	WORD_OFF	n/a	n/a	FOOTBALL	Toys	6	2	[0, 0, 0]	n/a	catFR1	4	R1450D
454.217	1.6	459603	WORD	n/a	wordpools/wordpool_categorized_EN.txt	SPATULA	KitchenTools	7	2	[0, 0, 0]	n/a	catFR1	4	R1450D
455.817	0.9	461200	WORD_OFF	n/a	n/a	SPATULA	KitchenTools	7	2	[0, 0, 0]	n/a	catFR1	4	R1450D
456.717	1.6	462104	WORD	n/a	wordpools/wordpool_categorized_EN.txt	KNIFE	KitchenTools	8	2	[0, 0, 0]	n/a	catFR1	4	R1450D
458.334	0.8	463720	WORD_OFF	n/a	n/a	KNIFE	KitchenTools	8	2	[0, 0, 0]	n/a	catFR1	4	R1450D
459.134	1.6	464519	WORD	n/a	wordpools/wordpool_categorized_EN.txt	BASEBALL	Toys	9	2	[0, 0, 0]	n/a	catFR1	4	R1450D
460.75	0.9	466134	WORD_OFF	n/a	n/a	BASEBALL	Toys	9	2	[0, 0, 0]	n/a	catFR1	4	R1450D
461.65	1.6	467038	WORD	n/a	wordpools/wordpool_categorized_EN.txt	BASKETBALL	Toys	10	2	[0, 0, 0]	n/a	catFR1	4	R1450D
463.25	0.766	468636	WORD_OFF	n/a	n/a	BASKETBALL	Toys	10	2	[0, 0, 0]	n/a	catFR1	4	R1450D
464.016	1.6	469400	WORD	n/a	wordpools/wordpool_categorized_EN.txt	GIRAFFE	Zoo	11	2	[0, 0, 0]	n/a	catFR1	4	R1450D
465.616	0.967	470997	WORD_OFF	n/a	n/a	GIRAFFE	Zoo	11	2	[0, 0, 0]	n/a	catFR1	4	R1450D
466.583	1.6	471963	WORD	n/a	wordpools/wordpool_categorized_EN.txt	MONKEY	Zoo	12	2	[0, 0, 0]	n/a	catFR1	4	R1450D
468.184	0.002	473565	PROB	12.316	n/a	n/a	n/a	-999	2	[2, 2, 8]	12.0	catFR1	4	R1450D
468.186	0.0	473567	START	n/a	n/a	n/a	n/a	-999	2	[-999, -999, -999]	n/a	catFR1	4	R1450D
468.183	0.003	473570	WORD_OFF	n/a	n/a	MONKEY	Zoo	12	2	[0, 0, 0]	n/a	catFR1	4	R1450D
468.186	0.0	473570	ENCODING_END	n/a	n/a	n/a	n/a	-999	2	[0, 0, 0]	n/a	catFR1	4	R1450D
468.186	12.331	473570	DISTRACT_START	n/a	n/a	n/a	n/a	-999	2	[0, 0, 0]	n/a	catFR1	4	R1450D
480.517	19.716	485898	PROB	19.699	n/a	n/a	n/a	-999	2	[8, 5, 4]	17.0	catFR1	4	R1450D
500.233	0.0	505612	DISTRACT_END	n/a	n/a	n/a	n/a	-999	2	[0, 0, 0]	n/a	catFR1	4	R1450D
500.233	2.249	505613	STOP	n/a	n/a	n/a	n/a	-999	2	[-999, -999, -999]	n/a	catFR1	4	R1450D
502.482	4.008	507867	REC_START	n/a	n/a	n/a	n/a	-999	2	[0, 0, 0]	n/a	catFR1	4	R1450D
506.49	1.0	511870	REC_WORD_VV	4.008	n/a	<>	n/a	-999	2	[0, 0, 0]	n/a	catFR1	4	R1450D
507.49	1.0	512870	REC_WORD_VV	5.008	n/a	<>	n/a	-999	2	[0, 0, 0]	n/a	catFR1	4	R1450D
508.49	6.755	513869	REC_WORD_VV	6.008	n/a	<>	n/a	-999	2	[0, 0, 0]	n/a	catFR1	4	R1450D
515.245	4.96	520624	REC_WORD	12.763	n/a	GIRAFFE	Zoo	11	2	[0, 0, 0]	n/a	catFR1	4	R1450D
520.205	6.332	525584	REC_WORD	17.723	n/a	DONKEY	n/a	-999	2	[0, 0, 0]	n/a	catFR1	4	R1450D
526.537	6.14	531916	REC_WORD	24.055	n/a	RADIO	Electronics	-999	2	[0, 0, 0]	n/a	catFR1	4	R1450D
532.677	23.289	538058	REC_END	n/a	n/a	n/a	n/a	-999	2	[0, 0, 0]	n/a	catFR1	4	R1450D
555.966	10.0	561348	COUNTDOWN_START	n/a	n/a	n/a	n/a	-999	3	[0, 0, 0]	n/a	catFR1	4	R1450D
566.317	0.0	571698	COUNTDOWN_END	n/a	n/a	n/a	n/a	-999	3	[0, 0, 0]	n/a	catFR1	4	R1450D
566.317	1.933	571698	ENCODING_START	n/a	n/a	n/a	n/a	-999	3	[0, 0, 0]	n/a	catFR1	4	R1450D
568.25	1.6	573630	WORD	n/a	wordpools/wordpool_categorized_EN.txt	LILAC	Flowers	1	3	[0, 0, 0]	n/a	catFR1	4	R1450D
569.867	0.915	575245	WORD_OFF	n/a	n/a	LILAC	Flowers	1	3	[0, 0, 0]	n/a	catFR1	4	R1450D
570.782	1.6	576158	WORD	n/a	wordpools/wordpool_categorized_EN.txt	ORCHID	Flowers	2	3	[0, 0, 0]	n/a	catFR1	4	R1450D
572.4	0.849	577782	WORD_OFF	n/a	n/a	ORCHID	Flowers	2	3	[0, 0, 0]	n/a	catFR1	4	R1450D
573.249	1.6	578625	WORD	n/a	wordpools/wordpool_categorized_EN.txt	CABINET	Furniture	3	3	[0, 0, 0]	n/a	catFR1	4	R1450D
574.849	0.967	580231	WORD_OFF	n/a	n/a	CABINET	Furniture	3	3	[0, 0, 0]	n/a	catFR1	4	R1450D
575.816	1.6	581197	WORD	n/a	wordpools/wordpool_categorized_EN.txt	TABLE	Furniture	4	3	[0, 0, 0]	n/a	catFR1	4	R1450D
577.416	0.801	582795	WORD_OFF	n/a	n/a	TABLE	Furniture	4	3	[0, 0, 0]	n/a	catFR1	4	R1450D
578.217	1.6	583594	WORD	n/a	wordpools/wordpool_categorized_EN.txt	VELVET	Fabric	5	3	[0, 0, 0]	n/a	catFR1	4	R1450D
579.833	0.9	585209	WORD_OFF	n/a	n/a	VELVET	Fabric	5	3	[0, 0, 0]	n/a	catFR1	4	R1450D
580.733	1.6	586113	WORD	n/a	wordpools/wordpool_categorized_EN.txt	SILK	Fabric	6	3	[0, 0, 0]	n/a	catFR1	4	R1450D
582.334	0.933	587711	WORD_OFF	n/a	n/a	SILK	Fabric	6	3	[0, 0, 0]	n/a	catFR1	4	R1450D
583.267	1.6	588641	WORD	n/a	wordpools/wordpool_categorized_EN.txt	TULIP	Flowers	7	3	[0, 0, 0]	n/a	catFR1	4	R1450D
584.882	0.917	590257	WORD_OFF	n/a	n/a	TULIP	Flowers	7	3	[0, 0, 0]	n/a	catFR1	4	R1450D
585.799	1.6	591179	WORD	n/a	wordpools/wordpool_categorized_EN.txt	VIOLET	Flowers	8	3	[0, 0, 0]	n/a	catFR1	4	R1450D
587.4	0.983	592776	WORD_OFF	n/a	n/a	VIOLET	Flowers	8	3	[0, 0, 0]	n/a	catFR1	4	R1450D
588.383	1.6	593759	WORD	n/a	wordpools/wordpool_categorized_EN.txt	DRESSER	Furniture	9	3	[0, 0, 0]	n/a	catFR1	4	R1450D
589.984	0.999	595357	WORD_OFF	n/a	n/a	DRESSER	Furniture	9	3	[0, 0, 0]	n/a	catFR1	4	R1450D
590.983	1.6	596358	WORD	n/a	wordpools/wordpool_categorized_EN.txt	NIGHTSTAND	Furniture	10	3	[0, 0, 0]	n/a	catFR1	4	R1450D
592.584	0.999	597964	WORD_OFF	n/a	n/a	NIGHTSTAND	Furniture	10	3	[0, 0, 0]	n/a	catFR1	4	R1450D
593.583	1.6	598965	WORD	n/a	wordpools/wordpool_categorized_EN.txt	SATIN	Fabric	11	3	[0, 0, 0]	n/a	catFR1	4	R1450D
595.183	0.917	600563	WORD_OFF	n/a	n/a	SATIN	Fabric	11	3	[0, 0, 0]	n/a	catFR1	4	R1450D
596.1	1.6	601476	WORD	n/a	wordpools/wordpool_categorized_EN.txt	LEATHER	Fabric	12	3	[0, 0, 0]	n/a	catFR1	4	R1450D
597.717	0.001	603091	WORD_OFF	n/a	n/a	LEATHER	Fabric	12	3	[0, 0, 0]	n/a	catFR1	4	R1450D
597.718	0.0	603093	START	n/a	n/a	n/a	n/a	-999	3	[-999, -999, -999]	n/a	catFR1	4	R1450D
597.718	0.0	603093	PROB	20.016	n/a	n/a	n/a	-999	3	[6, 8, 1]	15.0	catFR1	4	R1450D
597.718	0.0	603100	ENCODING_END	n/a	n/a	n/a	n/a	-999	3	[0, 0, 0]	n/a	catFR1	4	R1450D
597.718	20.031	603100	DISTRACT_START	n/a	n/a	n/a	n/a	-999	3	[0, 0, 0]	n/a	catFR1	4	R1450D
617.749	0.0	623123	STOP	n/a	n/a	n/a	n/a	-999	3	[-999, -999, -999]	n/a	catFR1	4	R1450D
617.749	2.234	623124	DISTRACT_END	n/a	n/a	n/a	n/a	-999	3	[0, 0, 0]	n/a	catFR1	4	R1450D
619.983	9.12	625362	REC_START	n/a	n/a	n/a	n/a	-999	3	[0, 0, 0]	n/a	catFR1	4	R1450D
629.103	2.219	634476	REC_WORD_VV	9.12	n/a	<>	n/a	-999	3	[0, 0, 0]	n/a	catFR1	4	R1450D
631.322	1.0	636695	REC_WORD_VV	11.339	n/a	<>	n/a	-999	3	[0, 0, 0]	n/a	catFR1	4	R1450D
632.322	1.0	637695	REC_WORD_VV	12.339	n/a	<>	n/a	-999	3	[0, 0, 0]	n/a	catFR1	4	R1450D
633.322	3.925	638695	REC_WORD_VV	13.339	n/a	<>	n/a	-999	3	[0, 0, 0]	n/a	catFR1	4	R1450D
637.247	12.921	642620	REC_WORD	17.264	n/a	GIRAFFE	Zoo	-999	3	[0, 0, 0]	n/a	catFR1	4	R1450D
650.168	5.365	655544	REC_END	n/a	n/a	n/a	n/a	-999	3	[0, 0, 0]	n/a	catFR1	4	R1450D
655.533	10.0	660908	COUNTDOWN_START	n/a	n/a	n/a	n/a	-999	4	[0, 0, 0]	n/a	catFR1	4	R1450D
665.883	0.0	671258	COUNTDOWN_END	n/a	n/a	n/a	n/a	-999	4	[0, 0, 0]	n/a	catFR1	4	R1450D
665.883	2.1	671258	ENCODING_START	n/a	n/a	n/a	n/a	-999	4	[0, 0, 0]	n/a	catFR1	4	R1450D
667.983	1.6	673356	WORD	n/a	wordpools/wordpool_categorized_EN.txt	VAN	Vehicles	1	4	[0, 0, 0]	n/a	catFR1	4	R1450D
669.599	0.868	674972	WORD_OFF	n/a	n/a	VAN	Vehicles	1	4	[0, 0, 0]	n/a	catFR1	4	R1450D
670.467	1.6	675841	WORD	n/a	wordpools/wordpool_categorized_EN.txt	BOAT	Vehicles	2	4	[0, 0, 0]	n/a	catFR1	4	R1450D
672.083	0.9	677456	WORD_OFF	n/a	n/a	BOAT	Vehicles	2	4	[0, 0, 0]	n/a	catFR1	4	R1450D
672.983	1.6	678352	WORD	n/a	wordpools/wordpool_categorized_EN.txt	FLUTE	Instruments	3	4	[0, 0, 0]	n/a	catFR1	4	R1450D
674.584	0.783	679958	WORD_OFF	n/a	n/a	FLUTE	Instruments	3	4	[0, 0, 0]	n/a	catFR1	4	R1450D
675.367	1.6	680739	WORD	n/a	wordpools/wordpool_categorized_EN.txt	TROMBONE	Instruments	4	4	[0, 0, 0]	n/a	catFR1	4	R1450D
676.967	0.883	682337	WORD_OFF	n/a	n/a	TROMBONE	Instruments	4	4	[0, 0, 0]	n/a	catFR1	4	R1450D
677.85	1.6	683224	WORD	n/a	wordpools/wordpool_categorized_EN.txt	NYLON	Fabric	5	4	[0, 0, 0]	n/a	catFR1	4	R1450D
679.45	0.833	684821	WORD_OFF	n/a	n/a	NYLON	Fabric	5	4	[0, 0, 0]	n/a	catFR1	4	R1450D
680.283	1.6	685655	WORD	n/a	wordpools/wordpool_categorized_EN.txt	DENIM	Fabric	6	4	[0, 0, 0]	n/a	catFR1	4	R1450D
681.9	0.767	687271	WORD_OFF	n/a	n/a	DENIM	Fabric	6	4	[0, 0, 0]	n/a	catFR1	4	R1450D
682.667	1.6	688043	WORD	n/a	wordpools/wordpool_categorized_EN.txt	PLANE	Vehicles	7	4	[0, 0, 0]	n/a	catFR1	4	R1450D
684.283	0.934	689659	WORD_OFF	n/a	n/a	PLANE	Vehicles	7	4	[0, 0, 0]	n/a	catFR1	4	R1450D
685.217	1.6	690589	WORD	n/a	wordpools/wordpool_categorized_EN.txt	SCOOTER	Vehicles	8	4	[0, 0, 0]	n/a	catFR1	4	R1450D
686.817	0.999	692187	WORD_OFF	n/a	n/a	SCOOTER	Vehicles	8	4	[0, 0, 0]	n/a	catFR1	4	R1450D
687.816	1.6	693188	WORD	n/a	wordpools/wordpool_categorized_EN.txt	FLEECE	Fabric	9	4	[0, 0, 0]	n/a	catFR1	4	R1450D
689.416	0.784	694785	WORD_OFF	n/a	n/a	FLEECE	Fabric	9	4	[0, 0, 0]	n/a	catFR1	4	R1450D
690.2	1.6	695575	WORD	n/a	wordpools/wordpool_categorized_EN.txt	SUEDE	Fabric	10	4	[0, 0, 0]	n/a	catFR1	4	R1450D
691.817	0.983	697191	WORD_OFF	n/a	n/a	SUEDE	Fabric	10	4	[0, 0, 0]	n/a	catFR1	4	R1450D
692.8	1.6	698174	WORD	n/a	wordpools/wordpool_categorized_EN.txt	TRUMPET	Instruments	11	4	[0, 0, 0]	n/a	catFR1	4	R1450D
694.4	0.883	699772	WORD_OFF	n/a	n/a	TRUMPET	Instruments	11	4	[0, 0, 0]	n/a	catFR1	4	R1450D
695.283	1.6	700658	WORD	n/a	wordpools/wordpool_categorized_EN.txt	PIANO	Instruments	12	4	[0, 0, 0]	n/a	catFR1	4	R1450D
696.9	0.001	702270	PROB	12.516	n/a	n/a	n/a	-999	4	[1, 1, 8]	10.0	catFR1	4	R1450D
696.901	0.0	702271	START	n/a	n/a	n/a	n/a	-999	4	[-999, -999, -999]	n/a	catFR1	4	R1450D
696.9	0.001	702274	WORD_OFF	n/a	n/a	PIANO	Instruments	12	4	[0, 0, 0]	n/a	catFR1	4	R1450D
696.901	0.0	702274	ENCODING_END	n/a	n/a	n/a	n/a	-999	4	[0, 0, 0]	n/a	catFR1	4	R1450D
696.901	12.533	702274	DISTRACT_START	n/a	n/a	n/a	n/a	-999	4	[0, 0, 0]	n/a	catFR1	4	R1450D
709.434	16.001	714803	PROB	15.982	n/a	n/a	n/a	-999	4	[3, 2, 6]	11.0	catFR1	4	R1450D
725.435	0.0	730803	STOP	n/a	n/a	n/a	n/a	-999	4	[-999, -999, -999]	n/a	catFR1	4	R1450D
725.435	2.082	730805	DISTRACT_END	n/a	n/a	n/a	n/a	-999	4	[0, 0, 0]	n/a	catFR1	4	R1450D
727.517	6.359	732884	REC_START	n/a	n/a	n/a	n/a	-999	4	[0, 0, 0]	n/a	catFR1	4	R1450D
733.876	1.0	739244	REC_WORD_VV	6.359	n/a	<>	n/a	-999	4	[0, 0, 0]	n/a	catFR1	4	R1450D
734.876	1.0	740244	REC_WORD_VV	7.359	n/a	<>	n/a	-999	4	[0, 0, 0]	n/a	catFR1	4	R1450D
735.876	2.256	741244	REC_WORD_VV	8.359	n/a	<>	n/a	-999	4	[0, 0, 0]	n/a	catFR1	4	R1450D
738.132	1.0	743500	REC_WORD_VV	10.615	n/a	<>	n/a	-999	4	[0, 0, 0]	n/a	catFR1	4	R1450D
739.132	1.0	744500	REC_WORD_VV	11.615	n/a	<>	n/a	-999	4	[0, 0, 0]	n/a	catFR1	4	R1450D
740.132	1.0	745500	REC_WORD_VV	12.615	n/a	<>	n/a	-999	4	[0, 0, 0]	n/a	catFR1	4	R1450D
741.132	1.828	746500	REC_WORD_VV	13.615	n/a	<>	n/a	-999	4	[0, 0, 0]	n/a	catFR1	4	R1450D
742.96	1.0	748328	REC_WORD_VV	15.443	n/a	<>	n/a	-999	4	[0, 0, 0]	n/a	catFR1	4	R1450D
743.96	1.0	749327	REC_WORD_VV	16.443	n/a	<>	n/a	-999	4	[0, 0, 0]	n/a	catFR1	4	R1450D
744.96	2.628	750327	REC_WORD_VV	17.443	n/a	<>	n/a	-999	4	[0, 0, 0]	n/a	catFR1	4	R1450D
747.588	1.0	752955	REC_WORD_VV	20.071	n/a	<>	n/a	-999	4	[0, 0, 0]	n/a	catFR1	4	R1450D
748.588	1.0	753955	REC_WORD_VV	21.071	n/a	<>	n/a	-999	4	[0, 0, 0]	n/a	catFR1	4	R1450D
749.588	1.0	754955	REC_WORD_VV	22.071	n/a	<>	n/a	-999	4	[0, 0, 0]	n/a	catFR1	4	R1450D
750.588	1.0	755955	REC_WORD_VV	23.071	n/a	<>	n/a	-999	4	[0, 0, 0]	n/a	catFR1	4	R1450D
751.588	1.0	756955	REC_WORD_VV	24.071	n/a	<>	n/a	-999	4	[0, 0, 0]	n/a	catFR1	4	R1450D
752.588	1.0	757955	REC_WORD_VV	25.071	n/a	<>	n/a	-999	4	[0, 0, 0]	n/a	catFR1	4	R1450D
753.588	1.0	758955	REC_WORD_VV	26.071	n/a	<>	n/a	-999	4	[0, 0, 0]	n/a	catFR1	4	R1450D
754.588	3.099	759955	REC_WORD_VV	27.071	n/a	<>	n/a	-999	4	[0, 0, 0]	n/a	catFR1	4	R1450D
757.687	32.997	763058	REC_END	n/a	n/a	n/a	n/a	-999	4	[0, 0, 0]	n/a	catFR1	4	R1450D
790.684	10.0	796048	COUNTDOWN_START	n/a	n/a	n/a	n/a	-999	5	[0, 0, 0]	n/a	catFR1	4	R1450D
801.033	0.0	806398	COUNTDOWN_END	n/a	n/a	n/a	n/a	-999	5	[0, 0, 0]	n/a	catFR1	4	R1450D
801.033	2.267	806398	ENCODING_START	n/a	n/a	n/a	n/a	-999	5	[0, 0, 0]	n/a	catFR1	4	R1450D
803.3	1.6	808663	WORD	n/a	wordpools/wordpool_categorized_EN.txt	DUCK	Birds	1	5	[0, 0, 0]	n/a	catFR1	4	R1450D
804.9	0.967	810270	WORD_OFF	n/a	n/a	DUCK	Birds	1	5	[0, 0, 0]	n/a	catFR1	4	R1450D
805.867	1.6	811236	WORD	n/a	wordpools/wordpool_categorized_EN.txt	DOVE	Birds	2	5	[0, 0, 0]	n/a	catFR1	4	R1450D
807.467	0.783	812833	WORD_OFF	n/a	n/a	DOVE	Birds	2	5	[0, 0, 0]	n/a	catFR1	4	R1450D
808.25	1.6	813615	WORD	n/a	wordpools/wordpool_categorized_EN.txt	TRAIN	Vehicles	3	5	[0, 0, 0]	n/a	catFR1	4	R1450D
809.85	0.934	815212	WORD_OFF	n/a	n/a	TRAIN	Vehicles	3	5	[0, 0, 0]	n/a	catFR1	4	R1450D
810.784	1.6	816152	WORD	n/a	wordpools/wordpool_categorized_EN.txt	BIKE	Vehicles	4	5	[0, 0, 0]	n/a	catFR1	4	R1450D
812.383	0.965	817749	WORD_OFF	n/a	n/a	BIKE	Vehicles	4	5	[0, 0, 0]	n/a	catFR1	4	R1450D
813.348	1.6	818715	WORD	n/a	wordpools/wordpool_categorized_EN.txt	TABLET	Electronics	5	5	[0, 0, 0]	n/a	catFR1	4	R1450D
814.95	0.866	820313	WORD_OFF	n/a	n/a	TABLET	Electronics	5	5	[0, 0, 0]	n/a	catFR1	4	R1450D
815.816	1.6	821182	WORD	n/a	wordpools/wordpool_categorized_EN.txt	PRINTER	Electronics	6	5	[0, 0, 0]	n/a	catFR1	4	R1450D
817.417	0.766	822780	WORD_OFF	n/a	n/a	PRINTER	Electronics	6	5	[0, 0, 0]	n/a	catFR1	4	R1450D
818.183	1.6	823552	WORD	n/a	wordpools/wordpool_categorized_EN.txt	JEEP	Vehicles	7	5	[0, 0, 0]	n/a	catFR1	4	R1450D
819.783	0.783	825150	WORD_OFF	n/a	n/a	JEEP	Vehicles	7	5	[0, 0, 0]	n/a	catFR1	4	R1450D
820.566	1.6	825931	WORD	n/a	wordpools/wordpool_categorized_EN.txt	BUS	Vehicles	8	5	[0, 0, 0]	n/a	catFR1	4	R1450D
822.167	0.883	827529	WORD_OFF	n/a	n/a	BUS	Vehicles	8	5	[0, 0, 0]	n/a	catFR1	4	R1450D
823.05	1.6	828416	WORD	n/a	wordpools/wordpool_categorized_EN.txt	STEREO	Electronics	9	5	[0, 0, 0]	n/a	catFR1	4	R1450D
824.666	0.817	830031	WORD_OFF	n/a	n/a	STEREO	Electronics	9	5	[0, 0, 0]	n/a	catFR1	4	R1450D
825.483	1.6	830847	WORD	n/a	wordpools/wordpool_categorized_EN.txt	COMPUTER	Electronics	10	5	[0, 0, 0]	n/a	catFR1	4	R1450D
827.083	0.8	832445	WORD_OFF	n/a	n/a	COMPUTER	Electronics	10	5	[0, 0, 0]	n/a	catFR1	4	R1450D
827.883	1.6	833244	WORD	n/a	wordpools/wordpool_categorized_EN.txt	CROW	Birds	11	5	[0, 0, 0]	n/a	catFR1	4	R1450D
829.483	0.784	834850	WORD_OFF	n/a	n/a	CROW	Birds	11	5	[0, 0, 0]	n/a	catFR1	4	R1450D
830.267	1.6	835632	WORD	n/a	wordpools/wordpool_categorized_EN.txt	BLUEBIRD	Birds	12	5	[0, 0, 0]	n/a	catFR1	4	R1450D
831.883	0.0	837246	PROB	13.133	n/a	n/a	n/a	-999	5	[3, 7, 3]	13.0	catFR1	4	R1450D
831.883	0.001	837247	WORD_OFF	n/a	n/a	BLUEBIRD	Birds	12	5	[0, 0, 0]	n/a	catFR1	4	R1450D
831.884	0.0	837247	ENCODING_END	n/a	n/a	n/a	n/a	-999	5	[0, 0, 0]	n/a	catFR1	4	R1450D
831.884	0.0	837247	START	n/a	n/a	n/a	n/a	-999	5	[-999, -999, -999]	n/a	catFR1	4	R1450D
831.884	13.148	837256	DISTRACT_START	n/a	n/a	n/a	n/a	-999	5	[0, 0, 0]	n/a	catFR1	4	R1450D
845.032	13.585	850394	PROB	13.568	n/a	n/a	n/a	-999	5	[5, 2, 3]	10.0	catFR1	4	R1450D
858.617	0.0	863978	DISTRACT_END	n/a	n/a	n/a	n/a	-999	5	[0, 0, 0]	n/a	catFR1	4	R1450D
858.617	2.049	863979	STOP	n/a	n/a	n/a	n/a	-999	5	[-999, -999, -999]	n/a	catFR1	4	R1450D
860.666	8.135	866032	REC_START	n/a	n/a	n/a	n/a	-999	5	[0, 0, 0]	n/a	catFR1	4	R1450D
868.801	1.574	874162	REC_WORD_VV	8.135	n/a	<>	n/a	-999	5	[0, 0, 0]	n/a	catFR1	4	R1450D
870.375	3.151	875736	REC_WORD	9.709	n/a	BLUEBIRD	Birds	12	5	[0, 0, 0]	n/a	catFR1	4	R1450D
873.526	8.846	878887	REC_WORD	12.86	n/a	CROW	Birds	11	5	[0, 0, 0]	n/a	catFR1	4	R1450D
882.372	8.49	887732	REC_WORD	21.706	n/a	PLANE	Vehicles	-999	5	[0, 0, 0]	n/a	catFR1	4	R1450D
890.862	21.188	896223	REC_END	n/a	n/a	n/a	n/a	-999	5	[0, 0, 0]	n/a	catFR1	4	R1450D
912.05	10.0	917415	COUNTDOWN_START	n/a	n/a	n/a	n/a	-999	6	[0, 0, 0]	n/a	catFR1	4	R1450D
922.399	0.001	927756	COUNTDOWN_END	n/a	n/a	n/a	n/a	-999	6	[0, 0, 0]	n/a	catFR1	4	R1450D
922.4	1.983	927765	ENCODING_START	n/a	n/a	n/a	n/a	-999	6	[0, 0, 0]	n/a	catFR1	4	R1450D
924.383	1.6	929740	WORD	n/a	wordpools/wordpool_categorized_EN.txt	RECLINER	Furniture	1	6	[0, 0, 0]	n/a	catFR1	4	R1450D
926.0	0.917	931364	WORD_OFF	n/a	n/a	RECLINER	Furniture	1	6	[0, 0, 0]	n/a	catFR1	4	R1450D
926.917	1.6	932277	WORD	n/a	wordpools/wordpool_categorized_EN.txt	BOOKCASE	Furniture	2	6	[0, 0, 0]	n/a	catFR1	4	R1450D
928.533	0.799	933892	WORD_OFF	n/a	n/a	BOOKCASE	Furniture	2	6	[0, 0, 0]	n/a	catFR1	4	R1450D
929.332	1.6	934691	WORD	n/a	wordpools/wordpool_categorized_EN.txt	COFFEE	Beverages	3	6	[0, 0, 0]	n/a	catFR1	4	R1450D
930.933	0.835	936298	WORD_OFF	n/a	n/a	COFFEE	Beverages	3	6	[0, 0, 0]	n/a	catFR1	4	R1450D
931.768	1.6	937132	WORD	n/a	wordpools/wordpool_categorized_EN.txt	LEMONADE	Beverages	4	6	[0, 0, 0]	n/a	catFR1	4	R1450D
933.367	0.965	938729	WORD_OFF	n/a	n/a	LEMONADE	Beverages	4	6	[0, 0, 0]	n/a	catFR1	4	R1450D
934.332	1.6	939695	WORD	n/a	wordpools/wordpool_categorized_EN.txt	PLIERS	Tools	5	6	[0, 0, 0]	n/a	catFR1	4	R1450D
935.933	0.9	941293	WORD_OFF	n/a	n/a	PLIERS	Tools	5	6	[0, 0, 0]	n/a	catFR1	4	R1450D
936.833	1.6	942188	WORD	n/a	wordpools/wordpool_categorized_EN.txt	HAMMER	Tools	6	6	[0, 0, 0]	n/a	catFR1	4	R1450D
938.433	0.967	943795	WORD_OFF	n/a	n/a	HAMMER	Tools	6	6	[0, 0, 0]	n/a	catFR1	4	R1450D
939.4	1.6	944760	WORD	n/a	wordpools/wordpool_categorized_EN.txt	BEER	Beverages	7	6	[0, 0, 0]	n/a	catFR1	4	R1450D
941.0	0.967	946358	WORD_OFF	n/a	n/a	BEER	Beverages	7	6	[0, 0, 0]	n/a	catFR1	4	R1450D
941.967	1.6	947324	WORD	n/a	wordpools/wordpool_categorized_EN.txt	JUICE	Beverages	8	6	[0, 0, 0]	n/a	catFR1	4	R1450D
943.583	0.85	948939	WORD_OFF	n/a	n/a	JUICE	Beverages	8	6	[0, 0, 0]	n/a	catFR1	4	R1450D
944.433	1.6	949791	WORD	n/a	wordpools/wordpool_categorized_EN.txt	AXE	Tools	9	6	[0, 0, 0]	n/a	catFR1	4	R1450D
946.05	0.85	951406	WORD_OFF	n/a	n/a	AXE	Tools	9	6	[0, 0, 0]	n/a	catFR1	4	R1450D
946.9	1.6	952258	WORD	n/a	wordpools/wordpool_categorized_EN.txt	WRENCH	Tools	10	6	[0, 0, 0]	n/a	catFR1	4	R1450D
948.517	0.933	953873	WORD_OFF	n/a	n/a	WRENCH	Tools	10	6	[0, 0, 0]	n/a	catFR1	4	R1450D
949.45	1.6	954812	WORD	n/a	wordpools/wordpool_categorized_EN.txt	COUCH	Furniture	11	6	[0, 0, 0]	n/a	catFR1	4	R1450D
951.066	0.984	956427	WORD_OFF	n/a	n/a	COUCH	Furniture	11	6	[0, 0, 0]	n/a	catFR1	4	R1450D
952.05	1.6	957411	WORD	n/a	wordpools/wordpool_categorized_EN.txt	SOFA	Furniture	12	6	[0, 0, 0]	n/a	catFR1	4	R1450D
953.668	0.0	959025	PROB	22.266	n/a	n/a	n/a	-999	6	[8, 5, 6]	19.0	catFR1	4	R1450D
953.668	0.0	959025	START	n/a	n/a	n/a	n/a	-999	6	[-999, -999, -999]	n/a	catFR1	4	R1450D
953.667	0.001	959026	WORD_OFF	n/a	n/a	SOFA	Furniture	12	6	[0, 0, 0]	n/a	catFR1	4	R1450D
953.668	0.0	959026	ENCODING_END	n/a	n/a	n/a	n/a	-999	6	[0, 0, 0]	n/a	catFR1	4	R1450D
953.668	22.282	959026	DISTRACT_START	n/a	n/a	n/a	n/a	-999	6	[0, 0, 0]	n/a	catFR1	4	R1450D
975.95	0.0	981306	DISTRACT_END	n/a	n/a	n/a	n/a	-999	6	[0, 0, 0]	n/a	catFR1	4	R1450D
975.95	2.267	981306	STOP	n/a	n/a	n/a	n/a	-999	6	[-999, -999, -999]	n/a	catFR1	4	R1450D
978.217	6.59	983579	REC_START	n/a	n/a	n/a	n/a	-999	6	[0, 0, 0]	n/a	catFR1	4	R1450D
984.807	1.0	990162	REC_WORD_VV	6.59	n/a	<>	n/a	-999	6	[0, 0, 0]	n/a	catFR1	4	R1450D
985.807	4.317	991162	REC_WORD_VV	7.59	n/a	<>	n/a	-999	6	[0, 0, 0]	n/a	catFR1	4	R1450D
990.124	13.043	995479	REC_WORD_VV	11.907	n/a	<>	n/a	-999	6	[0, 0, 0]	n/a	catFR1	4	R1450D
1003.167	1.0	1008521	REC_WORD_VV	24.95	n/a	<>	n/a	-999	6	[0, 0, 0]	n/a	catFR1	4	R1450D
1004.167	1.0	1009521	REC_WORD_VV	25.95	n/a	<>	n/a	-999	6	[0, 0, 0]	n/a	catFR1	4	R1450D
1005.167	1.0	1010521	REC_WORD_VV	26.95	n/a	<>	n/a	-999	6	[0, 0, 0]	n/a	catFR1	4	R1450D
1006.167	1.0	1011521	REC_WORD_VV	27.95	n/a	<>	n/a	-999	6	[0, 0, 0]	n/a	catFR1	4	R1450D
1007.167	1.0	1012521	REC_WORD_VV	28.95	n/a	<>	n/a	-999	6	[0, 0, 0]	n/a	catFR1	4	R1450D
1008.167	0.251	1013521	REC_WORD_VV	29.95	n/a	<>	n/a	-999	6	[0, 0, 0]	n/a	catFR1	4	R1450D
1008.418	6.28	1013770	REC_END	n/a	n/a	n/a	n/a	-999	6	[0, 0, 0]	n/a	catFR1	4	R1450D
1014.698	10.0	1020056	COUNTDOWN_START	n/a	n/a	n/a	n/a	-999	7	[0, 0, 0]	n/a	catFR1	4	R1450D
1025.05	0.0	1030406	COUNTDOWN_END	n/a	n/a	n/a	n/a	-999	7	[0, 0, 0]	n/a	catFR1	4	R1450D
1025.05	1.884	1030406	ENCODING_START	n/a	n/a	n/a	n/a	-999	7	[0, 0, 0]	n/a	catFR1	4	R1450D
1026.934	1.6	1032293	WORD	n/a	wordpools/wordpool_categorized_EN.txt	HORSE	FarmAnimals	1	7	[0, 0, 0]	n/a	catFR1	4	R1450D
1028.533	0.85	1033891	WORD_OFF	n/a	n/a	HORSE	FarmAnimals	1	7	[0, 0, 0]	n/a	catFR1	4	R1450D
1029.383	1.6	1034743	WORD	n/a	wordpools/wordpool_categorized_EN.txt	LAMB	FarmAnimals	2	7	[0, 0, 0]	n/a	catFR1	4	R1450D
1031.0	0.766	1036358	WORD_OFF	n/a	n/a	LAMB	FarmAnimals	2	7	[0, 0, 0]	n/a	catFR1	4	R1450D
1031.766	1.6	1037131	WORD	n/a	wordpools/wordpool_categorized_EN.txt	BLENDER	Appliances	3	7	[0, 0, 0]	n/a	catFR1	4	R1450D
1033.367	0.883	1038719	WORD_OFF	n/a	n/a	BLENDER	Appliances	3	7	[0, 0, 0]	n/a	catFR1	4	R1450D
1034.25	1.6	1039606	WORD	n/a	wordpools/wordpool_categorized_EN.txt	WASHER	Appliances	4	7	[0, 0, 0]	n/a	catFR1	4	R1450D
1035.867	0.883	1041221	WORD_OFF	n/a	n/a	WASHER	Appliances	4	7	[0, 0, 0]	n/a	catFR1	4	R1450D
1036.75	1.6	1042108	WORD	n/a	wordpools/wordpool_categorized_EN.txt	PASTRY	Desserts	5	7	[0, 0, 0]	n/a	catFR1	4	R1450D
1038.35	0.85	1043706	WORD_OFF	n/a	n/a	PASTRY	Desserts	5	7	[0, 0, 0]	n/a	catFR1	4	R1450D
1039.2	1.6	1044557	WORD	n/a	wordpools/wordpool_categorized_EN.txt	COOKIE	Desserts	6	7	[0, 0, 0]	n/a	catFR1	4	R1450D
1040.8	0.967	1046155	WORD_OFF	n/a	n/a	COOKIE	Desserts	6	7	[0, 0, 0]	n/a	catFR1	4	R1450D
1041.767	1.6	1047121	WORD	n/a	wordpools/wordpool_categorized_EN.txt	CHICKEN	FarmAnimals	7	7	[0, 0, 0]	n/a	catFR1	4	R1450D
1043.383	0.85	1048736	WORD_OFF	n/a	n/a	CHICKEN	FarmAnimals	7	7	[0, 0, 0]	n/a	catFR1	4	R1450D
1044.233	1.6	1049588	WORD	n/a	wordpools/wordpool_categorized_EN.txt	TURKEY	FarmAnimals	8	7	[0, 0, 0]	n/a	catFR1	4	R1450D
1045.85	0.767	1051203	WORD_OFF	n/a	n/a	TURKEY	FarmAnimals	8	7	[0, 0, 0]	n/a	catFR1	4	R1450D
1046.617	1.6	1051975	WORD	n/a	wordpools/wordpool_categorized_EN.txt	REFRIGERATOR	Appliances	9	7	[0, 0, 0]	n/a	catFR1	4	R1450D
1048.233	0.984	1053591	WORD_OFF	n/a	n/a	REFRIGERATOR	Appliances	9	7	[0, 0, 0]	n/a	catFR1	4	R1450D
1049.217	1.6	1054574	WORD	n/a	wordpools/wordpool_categorized_EN.txt	STOVE	Appliances	10	7	[0, 0, 0]	n/a	catFR1	4	R1450D
1050.817	0.8	1056172	WORD_OFF	n/a	n/a	STOVE	Appliances	10	7	[0, 0, 0]	n/a	catFR1	4	R1450D
1051.617	1.6	1056971	WORD	n/a	wordpools/wordpool_categorized_EN.txt	JELLO	Desserts	11	7	[0, 0, 0]	n/a	catFR1	4	R1450D
1053.233	0.967	1058586	WORD_OFF	n/a	n/a	JELLO	Desserts	11	7	[0, 0, 0]	n/a	catFR1	4	R1450D
1054.2	1.6	1059551	WORD	n/a	wordpools/wordpool_categorized_EN.txt	COBBLER	Desserts	12	7	[0, 0, 0]	n/a	catFR1	4	R1450D
1055.817	0.001	1061167	WORD_OFF	n/a	n/a	COBBLER	Desserts	12	7	[0, 0, 0]	n/a	catFR1	4	R1450D
1055.818	0.0	1061170	START	n/a	n/a	n/a	n/a	-999	7	[-999, -999, -999]	n/a	catFR1	4	R1450D
1055.818	0.0	1061170	PROB	16.532	n/a	n/a	n/a	-999	7	[5, 4, 7]	16.0	catFR1	4	R1450D
1055.818	0.0	1061176	ENCODING_END	n/a	n/a	n/a	n/a	-999	7	[0, 0, 0]	n/a	catFR1	4	R1450D
1055.818	16.549	1061176	DISTRACT_START	n/a	n/a	n/a	n/a	-999	7	[0, 0, 0]	n/a	catFR1	4	R1450D
1072.367	12.9	1077718	PROB	12.883	n/a	n/a	n/a	-999	7	[1, 1, 2]	4.0	catFR1	4	R1450D
1085.267	0.0	1090617	STOP	n/a	n/a	n/a	n/a	-999	7	[-999, -999, -999]	n/a	catFR1	4	R1450D
1085.267	2.333	1090619	DISTRACT_END	n/a	n/a	n/a	n/a	-999	7	[0, 0, 0]	n/a	catFR1	4	R1450D
1087.6	5.771	1092954	REC_START	n/a	n/a	n/a	n/a	-999	7	[0, 0, 0]	n/a	catFR1	4	R1450D
1093.371	7.041	1098721	REC_WORD	5.771	n/a	HORSE	FarmAnimals	1	7	[0, 0, 0]	n/a	catFR1	4	R1450D
1100.412	1.381	1105761	REC_WORD	12.812	n/a	PASTRY	Desserts	5	7	[0, 0, 0]	n/a	catFR1	4	R1450D
1101.793	7.52	1107142	REC_WORD_VV	14.193	n/a	<>	n/a	-999	7	[0, 0, 0]	n/a	catFR1	4	R1450D
1109.313	1.0	1114662	REC_WORD_VV	21.713	n/a	<>	n/a	-999	7	[0, 0, 0]	n/a	catFR1	4	R1450D
1110.313	1.0	1115662	REC_WORD_VV	22.713	n/a	<>	n/a	-999	7	[0, 0, 0]	n/a	catFR1	4	R1450D
1111.313	6.493	1116662	REC_WORD_VV	23.713	n/a	<>	n/a	-999	7	[0, 0, 0]	n/a	catFR1	4	R1450D
1117.806	22.728	1123154	REC_END	n/a	n/a	n/a	n/a	-999	7	[0, 0, 0]	n/a	catFR1	4	R1450D
1140.534	10.0	1145882	COUNTDOWN_START	n/a	n/a	n/a	n/a	-999	8	[0, 0, 0]	n/a	catFR1	4	R1450D
1150.883	0.0	1156232	COUNTDOWN_END	n/a	n/a	n/a	n/a	-999	8	[0, 0, 0]	n/a	catFR1	4	R1450D
1150.883	2.001	1156232	ENCODING_START	n/a	n/a	n/a	n/a	-999	8	[0, 0, 0]	n/a	catFR1	4	R1450D
1152.884	1.6	1158233	WORD	n/a	wordpools/wordpool_categorized_EN.txt	MARBLES	Toys	1	8	[0, 0, 0]	n/a	catFR1	4	R1450D
1154.483	0.917	1159831	WORD_OFF	n/a	n/a	MARBLES	Toys	1	8	[0, 0, 0]	n/a	catFR1	4	R1450D
1155.4	1.6	1160753	WORD	n/a	wordpools/wordpool_categorized_EN.txt	DOLLHOUSE	Toys	2	8	[0, 0, 0]	n/a	catFR1	4	R1450D
1157.0	0.832	1162351	WORD_OFF	n/a	n/a	DOLLHOUSE	Toys	2	8	[0, 0, 0]	n/a	catFR1	4	R1450D
1157.832	1.6	1163185	WORD	n/a	wordpools/wordpool_categorized_EN.txt	EVERGREEN	Trees	3	8	[0, 0, 0]	n/a	catFR1	4	R1450D
1159.433	0.817	1164782	WORD_OFF	n/a	n/a	EVERGREEN	Trees	3	8	[0, 0, 0]	n/a	catFR1	4	R1450D
1160.25	1.6	1165599	WORD	n/a	wordpools/wordpool_categorized_EN.txt	SPRUCE	Trees	4	8	[0, 0, 0]	n/a	catFR1	4	R1450D
1161.85	0.95	1167197	WORD_OFF	n/a	n/a	SPRUCE	Trees	4	8	[0, 0, 0]	n/a	catFR1	4	R1450D
1162.8	1.6	1168145	WORD	n/a	wordpools/wordpool_categorized_EN.txt	MARKER	OfficeSupplies	5	8	[0, 0, 0]	n/a	catFR1	4	R1450D
1164.4	0.85	1169751	WORD_OFF	n/a	n/a	MARKER	OfficeSupplies	5	8	[0, 0, 0]	n/a	catFR1	4	R1450D
1165.25	1.6	1170603	WORD	n/a	wordpools/wordpool_categorized_EN.txt	FOLDER	OfficeSupplies	6	8	[0, 0, 0]	n/a	catFR1	4	R1450D
1166.867	0.8	1172218	WORD_OFF	n/a	n/a	FOLDER	OfficeSupplies	6	8	[0, 0, 0]	n/a	catFR1	4	R1450D
1167.667	1.6	1173017	WORD	n/a	wordpools/wordpool_categorized_EN.txt	MAPLE	Trees	7	8	[0, 0, 0]	n/a	catFR1	4	R1450D
1169.283	0.967	1174632	WORD_OFF	n/a	n/a	MAPLE	Trees	7	8	[0, 0, 0]	n/a	catFR1	4	R1450D
1170.25	1.6	1175598	WORD	n/a	wordpools/wordpool_categorized_EN.txt	WILLOW	Trees	8	8	[0, 0, 0]	n/a	catFR1	4	R1450D
1171.85	0.867	1177196	WORD_OFF	n/a	n/a	WILLOW	Trees	8	8	[0, 0, 0]	n/a	catFR1	4	R1450D
1172.717	1.6	1178065	WORD	n/a	wordpools/wordpool_categorized_EN.txt	BALL	Toys	9	8	[0, 0, 0]	n/a	catFR1	4	R1450D
1174.317	0.933	1179662	WORD_OFF	n/a	n/a	BALL	Toys	9	8	[0, 0, 0]	n/a	catFR1	4	R1450D
1175.25	1.6	1180602	WORD	n/a	wordpools/wordpool_categorized_EN.txt	SLINKY	Toys	10	8	[0, 0, 0]	n/a	catFR1	4	R1450D
1176.85	0.883	1182199	WORD_OFF	n/a	n/a	SLINKY	Toys	10	8	[0, 0, 0]	n/a	catFR1	4	R1450D
1177.733	1.6	1183077	WORD	n/a	wordpools/wordpool_categorized_EN.txt	ERASER	OfficeSupplies	11	8	[0, 0, 0]	n/a	catFR1	4	R1450D
1179.333	0.8	1184684	WORD_OFF	n/a	n/a	ERASER	OfficeSupplies	11	8	[0, 0, 0]	n/a	catFR1	4	R1450D
1180.133	1.6	1185483	WORD	n/a	wordpools/wordpool_categorized_EN.txt	PAPER	OfficeSupplies	12	8	[0, 0, 0]	n/a	catFR1	4	R1450D
1181.734	0.0	1187079	PROB	10.1	n/a	n/a	n/a	-999	8	[5, 2, 7]	14.0	catFR1	4	R1450D
1181.733	0.002	1187080	WORD_OFF	n/a	n/a	PAPER	OfficeSupplies	12	8	[0, 0, 0]	n/a	catFR1	4	R1450D
1181.735	0.0	1187080	ENCODING_END	n/a	n/a	n/a	n/a	-999	8	[0, 0, 0]	n/a	catFR1	4	R1450D
1181.735	0.0	1187080	DISTRACT_START	n/a	n/a	n/a	n/a	-999	8	[0, 0, 0]	n/a	catFR1	4	R1450D
1181.735	10.116	1187080	START	n/a	n/a	n/a	n/a	-999	8	[-999, -999, -999]	n/a	catFR1	4	R1450D
1191.851	13.333	1197196	PROB	13.316	n/a	n/a	n/a	-999	8	[5, 2, 1]	9.0	catFR1	4	R1450D
1205.184	0.0	1210528	DISTRACT_END	n/a	n/a	n/a	n/a	-999	8	[0, 0, 0]	n/a	catFR1	4	R1450D
1205.184	2.299	1210528	STOP	n/a	n/a	n/a	n/a	-999	8	[-999, -999, -999]	n/a	catFR1	4	R1450D
1207.483	13.284	1212828	REC_START	n/a	n/a	n/a	n/a	-999	8	[0, 0, 0]	n/a	catFR1	4	R1450D
1220.767	8.319	1226110	REC_WORD	13.284	n/a	HORSE	FarmAnimals	-999	8	[0, 0, 0]	n/a	catFR1	4	R1450D
1229.086	8.57	1234429	REC_WORD	21.603	n/a	DONKEY	n/a	-999	8	[0, 0, 0]	n/a	catFR1	4	R1450D
1237.656	26.611	1243001	REC_END	n/a	n/a	n/a	n/a	-999	8	[0, 0, 0]	n/a	catFR1	4	R1450D
1264.267	10.0	1269610	COUNTDOWN_START	n/a	n/a	n/a	n/a	-999	9	[0, 0, 0]	n/a	catFR1	4	R1450D
1274.617	0.0	1279960	COUNTDOWN_END	n/a	n/a	n/a	n/a	-999	9	[0, 0, 0]	n/a	catFR1	4	R1450D
1274.617	1.999	1279960	ENCODING_START	n/a	n/a	n/a	n/a	-999	9	[0, 0, 0]	n/a	catFR1	4	R1450D
1276.616	1.6	1281961	WORD	n/a	wordpools/wordpool_categorized_EN.txt	CALF	FarmAnimals	1	9	[0, 0, 0]	n/a	catFR1	4	R1450D
1278.217	0.999	1283559	WORD_OFF	n/a	n/a	CALF	FarmAnimals	1	9	[0, 0, 0]	n/a	catFR1	4	R1450D
1279.216	1.6	1284560	WORD	n/a	wordpools/wordpool_categorized_EN.txt	GOAT	FarmAnimals	2	9	[0, 0, 0]	n/a	catFR1	4	R1450D
1280.816	0.784	1286157	WORD_OFF	n/a	n/a	GOAT	FarmAnimals	2	9	[0, 0, 0]	n/a	catFR1	4	R1450D
1281.6	1.6	1286939	WORD	n/a	wordpools/wordpool_categorized_EN.txt	TOASTER	Appliances	3	9	[0, 0, 0]	n/a	catFR1	4	R1450D
1283.2	0.767	1288545	WORD_OFF	n/a	n/a	TOASTER	Appliances	3	9	[0, 0, 0]	n/a	catFR1	4	R1450D
1283.967	1.6	1289309	WORD	n/a	wordpools/wordpool_categorized_EN.txt	OVEN	Appliances	4	9	[0, 0, 0]	n/a	catFR1	4	R1450D
1285.583	0.783	1290924	WORD_OFF	n/a	n/a	OVEN	Appliances	4	9	[0, 0, 0]	n/a	catFR1	4	R1450D
1286.366	1.6	1291706	WORD	n/a	wordpools/wordpool_categorized_EN.txt	TEA	Beverages	5	9	[0, 0, 0]	n/a	catFR1	4	R1450D
1287.967	0.933	1293312	WORD_OFF	n/a	n/a	TEA	Beverages	5	9	[0, 0, 0]	n/a	catFR1	4	R1450D
1288.9	1.6	1294243	WORD	n/a	wordpools/wordpool_categorized_EN.txt	SODA	Beverages	6	9	[0, 0, 0]	n/a	catFR1	4	R1450D
1290.5	0.8	1295840	WORD_OFF	n/a	n/a	SODA	Beverages	6	9	[0, 0, 0]	n/a	catFR1	4	R1450D
1291.3	1.6	1296639	WORD	n/a	wordpools/wordpool_categorized_EN.txt	DISHWASHER	Appliances	7	9	[0, 0, 0]	n/a	catFR1	4	R1450D
1292.9	0.966	1298246	WORD_OFF	n/a	n/a	DISHWASHER	Appliances	7	9	[0, 0, 0]	n/a	catFR1	4	R1450D
1293.866	1.6	1299212	WORD	n/a	wordpools/wordpool_categorized_EN.txt	VACUUM	Appliances	8	9	[0, 0, 0]	n/a	catFR1	4	R1450D
1295.483	0.983	1300827	WORD_OFF	n/a	n/a	VACUUM	Appliances	8	9	[0, 0, 0]	n/a	catFR1	4	R1450D
1296.466	1.6	1301810	WORD	n/a	wordpools/wordpool_categorized_EN.txt	CIDER	Beverages	9	9	[0, 0, 0]	n/a	catFR1	4	R1450D
1298.067	0.933	1303408	WORD_OFF	n/a	n/a	CIDER	Beverages	9	9	[0, 0, 0]	n/a	catFR1	4	R1450D
1299.0	1.6	1304338	WORD	n/a	wordpools/wordpool_categorized_EN.txt	MILK	Beverages	10	9	[0, 0, 0]	n/a	catFR1	4	R1450D
1300.6	0.817	1305945	WORD_OFF	n/a	n/a	MILK	Beverages	10	9	[0, 0, 0]	n/a	catFR1	4	R1450D
1301.417	1.6	1306761	WORD	n/a	wordpools/wordpool_categorized_EN.txt	BULL	FarmAnimals	11	9	[0, 0, 0]	n/a	catFR1	4	R1450D
1303.034	0.966	1308377	WORD_OFF	n/a	n/a	BULL	FarmAnimals	11	9	[0, 0, 0]	n/a	catFR1	4	R1450D
1304.0	1.6	1309342	WORD	n/a	wordpools/wordpool_categorized_EN.txt	ROOSTER	FarmAnimals	12	9	[0, 0, 0]	n/a	catFR1	4	R1450D
1305.6	0.002	1310940	WORD_OFF	n/a	n/a	ROOSTER	FarmAnimals	12	9	[0, 0, 0]	n/a	catFR1	4	R1450D
1305.602	0.0	1310940	ENCODING_END	n/a	n/a	n/a	n/a	-999	9	[0, 0, 0]	n/a	catFR1	4	R1450D
1305.601	0.001	1310940	PROB	38.199	n/a	n/a	n/a	-999	9	[7, 7, 8]	22.0	catFR1	4	R1450D
1305.602	0.0	1310941	START	n/a	n/a	n/a	n/a	-999	9	[-999, -999, -999]	n/a	catFR1	4	R1450D
1305.602	38.215	1310949	DISTRACT_START	n/a	n/a	n/a	n/a	-999	9	[0, 0, 0]	n/a	catFR1	4	R1450D
1343.817	0.0	1349154	DISTRACT_END	n/a	n/a	n/a	n/a	-999	9	[0, 0, 0]	n/a	catFR1	4	R1450D
1343.817	2.366	1349154	STOP	n/a	n/a	n/a	n/a	-999	9	[-999, -999, -999]	n/a	catFR1	4	R1450D
1346.183	5.139	1351523	REC_START	n/a	n/a	n/a	n/a	-999	9	[0, 0, 0]	n/a	catFR1	4	R1450D
1351.322	11.788	1356659	REC_WORD_VV	5.139	n/a	<>	n/a	-999	9	[0, 0, 0]	n/a	catFR1	4	R1450D
1363.11	1.0	1368446	REC_WORD_VV	16.927	n/a	<>	n/a	-999	9	[0, 0, 0]	n/a	catFR1	4	R1450D
1364.11	1.0	1369446	REC_WORD_VV	17.927	n/a	<>	n/a	-999	9	[0, 0, 0]	n/a	catFR1	4	R1450D
1365.11	1.0	1370446	REC_WORD_VV	18.927	n/a	<>	n/a	-999	9	[0, 0, 0]	n/a	catFR1	4	R1450D
1366.11	1.0	1371446	REC_WORD_VV	19.927	n/a	<>	n/a	-999	9	[0, 0, 0]	n/a	catFR1	4	R1450D
1367.11	1.0	1372446	REC_WORD_VV	20.927	n/a	<>	n/a	-999	9	[0, 0, 0]	n/a	catFR1	4	R1450D
1368.11	1.0	1373446	REC_WORD_VV	21.927	n/a	<>	n/a	-999	9	[0, 0, 0]	n/a	catFR1	4	R1450D
1369.11	1.0	1374446	REC_WORD_VV	22.927	n/a	<>	n/a	-999	9	[0, 0, 0]	n/a	catFR1	4	R1450D
1370.11	1.0	1375446	REC_WORD_VV	23.927	n/a	<>	n/a	-999	9	[0, 0, 0]	n/a	catFR1	4	R1450D
1371.11	1.0	1376446	REC_WORD_VV	24.927	n/a	<>	n/a	-999	9	[0, 0, 0]	n/a	catFR1	4	R1450D
1372.11	1.0	1377446	REC_WORD_VV	25.927	n/a	<>	n/a	-999	9	[0, 0, 0]	n/a	catFR1	4	R1450D
1373.11	1.0	1378445	REC_WORD_VV	26.927	n/a	<>	n/a	-999	9	[0, 0, 0]	n/a	catFR1	4	R1450D
1374.11	2.262	1379445	REC_WORD_VV	27.927	n/a	<>	n/a	-999	9	[0, 0, 0]	n/a	catFR1	4	R1450D
1376.372	17.178	1381714	REC_END	n/a	n/a	n/a	n/a	-999	9	[0, 0, 0]	n/a	catFR1	4	R1450D
1393.55	10.0	1398885	COUNTDOWN_START	n/a	n/a	n/a	n/a	-999	10	[0, 0, 0]	n/a	catFR1	4	R1450D
1403.899	0.001	1409236	COUNTDOWN_END	n/a	n/a	n/a	n/a	-999	10	[0, 0, 0]	n/a	catFR1	4	R1450D
1403.9	1.95	1409236	ENCODING_START	n/a	n/a	n/a	n/a	-999	10	[0, 0, 0]	n/a	catFR1	4	R1450D
1405.85	1.6	1411185	WORD	n/a	wordpools/wordpool_categorized_EN.txt	ANT	Insects	1	10	[0, 0, 0]	n/a	catFR1	4	R1450D
1407.45	0.767	1412782	WORD_OFF	n/a	n/a	ANT	Insects	1	10	[0, 0, 0]	n/a	catFR1	4	R1450D
1408.217	1.6	1413555	WORD	n/a	wordpools/wordpool_categorized_EN.txt	BEETLE	Insects	2	10	[0, 0, 0]	n/a	catFR1	4	R1450D
1409.817	0.916	1415153	WORD_OFF	n/a	n/a	BEETLE	Insects	2	10	[0, 0, 0]	n/a	catFR1	4	R1450D
1410.733	1.6	1416066	WORD	n/a	wordpools/wordpool_categorized_EN.txt	DAFFODIL	Flowers	3	10	[0, 0, 0]	n/a	catFR1	4	R1450D
1412.334	0.783	1417672	WORD_OFF	n/a	n/a	DAFFODIL	Flowers	3	10	[0, 0, 0]	n/a	catFR1	4	R1450D
1413.117	1.6	1418453	WORD	n/a	wordpools/wordpool_categorized_EN.txt	MARIGOLD	Flowers	4	10	[0, 0, 0]	n/a	catFR1	4	R1450D
1414.717	0.782	1420051	WORD_OFF	n/a	n/a	MARIGOLD	Flowers	4	10	[0, 0, 0]	n/a	catFR1	4	R1450D
1415.499	1.6	1420832	WORD	n/a	wordpools/wordpool_categorized_EN.txt	SHEEP	FarmAnimals	5	10	[0, 0, 0]	n/a	catFR1	4	R1450D
1417.1	0.817	1422439	WORD_OFF	n/a	n/a	SHEEP	FarmAnimals	5	10	[0, 0, 0]	n/a	catFR1	4	R1450D
1417.917	1.6	1423255	WORD	n/a	wordpools/wordpool_categorized_EN.txt	COW	FarmAnimals	6	10	[0, 0, 0]	n/a	catFR1	4	R1450D
1419.517	0.983	1424853	WORD_OFF	n/a	n/a	COW	FarmAnimals	6	10	[0, 0, 0]	n/a	catFR1	4	R1450D
1420.5	1.6	1425836	WORD	n/a	wordpools/wordpool_categorized_EN.txt	BUTTERFLY	Insects	7	10	[0, 0, 0]	n/a	catFR1	4	R1450D
1422.117	0.899	1427452	WORD_OFF	n/a	n/a	BUTTERFLY	Insects	7	10	[0, 0, 0]	n/a	catFR1	4	R1450D
1423.016	1.6	1428347	WORD	n/a	wordpools/wordpool_categorized_EN.txt	BEE	Insects	8	10	[0, 0, 0]	n/a	catFR1	4	R1450D
1424.617	0.949	1429954	WORD_OFF	n/a	n/a	BEE	Insects	8	10	[0, 0, 0]	n/a	catFR1	4	R1450D
1425.566	1.6	1430902	WORD	n/a	wordpools/wordpool_categorized_EN.txt	LILY	Flowers	9	10	[0, 0, 0]	n/a	catFR1	4	R1450D
1427.183	0.917	1432517	WORD_OFF	n/a	n/a	LILY	Flowers	9	10	[0, 0, 0]	n/a	catFR1	4	R1450D
1428.1	1.6	1433439	WORD	n/a	wordpools/wordpool_categorized_EN.txt	DAISY	Flowers	10	10	[0, 0, 0]	n/a	catFR1	4	R1450D
1429.717	0.85	1435054	WORD_OFF	n/a	n/a	DAISY	Flowers	10	10	[0, 0, 0]	n/a	catFR1	4	R1450D
1430.567	1.6	1435906	WORD	n/a	wordpools/wordpool_categorized_EN.txt	HEN	FarmAnimals	11	10	[0, 0, 0]	n/a	catFR1	4	R1450D
1432.183	0.767	1437521	WORD_OFF	n/a	n/a	HEN	FarmAnimals	11	10	[0, 0, 0]	n/a	catFR1	4	R1450D
1432.95	1.6	1438285	WORD	n/a	wordpools/wordpool_categorized_EN.txt	PIG	FarmAnimals	12	10	[0, 0, 0]	n/a	catFR1	4	R1450D
1434.55	0.002	1439882	WORD_OFF	n/a	n/a	PIG	FarmAnimals	12	10	[0, 0, 0]	n/a	catFR1	4	R1450D
1434.552	0.0	1439882	ENCODING_END	n/a	n/a	n/a	n/a	-999	10	[0, 0, 0]	n/a	catFR1	4	R1450D
1434.551	0.001	1439883	PROB	11.283	n/a	n/a	n/a	-999	10	[8, 6, 4]	18.0	catFR1	4	R1450D
1434.552	0.0	1439884	START	n/a	n/a	n/a	n/a	-999	10	[-999, -999, -999]	n/a	catFR1	4	R1450D
1434.552	11.299	1439891	DISTRACT_START	n/a	n/a	n/a	n/a	-999	10	[0, 0, 0]	n/a	catFR1	4	R1450D
1445.851	15.999	1451183	PROB	15.983	n/a	n/a	n/a	-999	10	[5, 3, 8]	16.0	catFR1	4	R1450D
1461.85	0.0	1467181	STOP	n/a	n/a	n/a	n/a	-999	10	[-999, -999, -999]	n/a	catFR1	4	R1450D
1461.85	2.1	1467184	DISTRACT_END	n/a	n/a	n/a	n/a	-999	10	[0, 0, 0]	n/a	catFR1	4	R1450D
1463.95	0.764	1469282	REC_START	n/a	n/a	n/a	n/a	-999	10	[0, 0, 0]	n/a	catFR1	4	R1450D
1464.714	0.909	1470045	REC_WORD	0.764	n/a	TULIP	Flowers	-999	10	[0, 0, 0]	n/a	catFR1	4	R1450D
1465.623	1.479	1470954	REC_WORD	1.673	n/a	DAFFODIL	Flowers	3	10	[0, 0, 0]	n/a	catFR1	4	R1450D
1467.102	4.422	1472433	REC_WORD	3.152	n/a	BEE	Insects	8	10	[0, 0, 0]	n/a	catFR1	4	R1450D
1471.524	1.0	1476854	REC_WORD_VV	7.574	n/a	<>	n/a	-999	10	[0, 0, 0]	n/a	catFR1	4	R1450D
1472.524	14.466	1477854	REC_WORD_VV	8.574	n/a	<>	n/a	-999	10	[0, 0, 0]	n/a	catFR1	4	R1450D
1486.99	1.0	1492320	REC_WORD_VV	23.04	n/a	<>	n/a	-999	10	[0, 0, 0]	n/a	catFR1	4	R1450D
1487.99	6.169	1493320	REC_WORD_VV	24.04	n/a	<>	n/a	-999	10	[0, 0, 0]	n/a	catFR1	4	R1450D
1494.159	7.407	1499490	REC_END	n/a	n/a	n/a	n/a	-999	10	[0, 0, 0]	n/a	catFR1	4	R1450D
1501.566	10.0	1506899	COUNTDOWN_START	n/a	n/a	n/a	n/a	-999	11	[0, 0, 0]	n/a	catFR1	4	R1450D
1511.917	0.0	1517249	COUNTDOWN_END	n/a	n/a	n/a	n/a	-999	11	[0, 0, 0]	n/a	catFR1	4	R1450D
1511.917	2.283	1517249	ENCODING_START	n/a	n/a	n/a	n/a	-999	11	[0, 0, 0]	n/a	catFR1	4	R1450D
1514.2	1.6	1519532	WORD	n/a	wordpools/wordpool_categorized_EN.txt	WATER	Beverages	1	11	[0, 0, 0]	n/a	catFR1	4	R1450D
1515.816	0.867	1521147	WORD_OFF	n/a	n/a	WATER	Beverages	1	11	[0, 0, 0]	n/a	catFR1	4	R1450D
1516.683	1.6	1522016	WORD	n/a	wordpools/wordpool_categorized_EN.txt	WINE	Beverages	2	11	[0, 0, 0]	n/a	catFR1	4	R1450D
1518.299	0.851	1523632	WORD_OFF	n/a	n/a	WINE	Beverages	2	11	[0, 0, 0]	n/a	catFR1	4	R1450D
1519.15	1.6	1524483	WORD	n/a	wordpools/wordpool_categorized_EN.txt	FLOOR	Building	3	11	[0, 0, 0]	n/a	catFR1	4	R1450D
1520.767	0.933	1526098	WORD_OFF	n/a	n/a	FLOOR	Building	3	11	[0, 0, 0]	n/a	catFR1	4	R1450D
1521.7	1.6	1527029	WORD	n/a	wordpools/wordpool_categorized_EN.txt	BATHROOM	Building	4	11	[0, 0, 0]	n/a	catFR1	4	R1450D
1523.317	0.983	1528644	WORD_OFF	n/a	n/a	BATHROOM	Building	4	11	[0, 0, 0]	n/a	catFR1	4	R1450D
1524.3	1.6	1529628	WORD	n/a	wordpools/wordpool_categorized_EN.txt	MIXER	Appliances	5	11	[0, 0, 0]	n/a	catFR1	4	R1450D
1525.917	0.783	1531243	WORD_OFF	n/a	n/a	MIXER	Appliances	5	11	[0, 0, 0]	n/a	catFR1	4	R1450D
1526.7	1.6	1532033	WORD	n/a	wordpools/wordpool_categorized_EN.txt	FREEZER	Appliances	6	11	[0, 0, 0]	n/a	catFR1	4	R1450D
1528.317	0.933	1533648	WORD_OFF	n/a	n/a	FREEZER	Appliances	6	11	[0, 0, 0]	n/a	catFR1	4	R1450D
1529.25	1.6	1534579	WORD	n/a	wordpools/wordpool_categorized_EN.txt	COLA	Beverages	7	11	[0, 0, 0]	n/a	catFR1	4	R1450D
1530.85	0.833	1536176	WORD_OFF	n/a	n/a	COLA	Beverages	7	11	[0, 0, 0]	n/a	catFR1	4	R1450D
1531.683	1.6	1537010	WORD	n/a	wordpools/wordpool_categorized_EN.txt	RUM	Beverages	8	11	[0, 0, 0]	n/a	catFR1	4	R1450D
1533.283	0.834	1538617	WORD_OFF	n/a	n/a	RUM	Beverages	8	11	[0, 0, 0]	n/a	catFR1	4	R1450D
1534.117	1.6	1539442	WORD	n/a	wordpools/wordpool_categorized_EN.txt	DRYER	Appliances	9	11	[0, 0, 0]	n/a	catFR1	4	R1450D
1535.717	0.883	1541049	WORD_OFF	n/a	n/a	DRYER	Appliances	9	11	[0, 0, 0]	n/a	catFR1	4	R1450D
1536.6	1.6	1541927	WORD	n/a	wordpools/wordpool_categorized_EN.txt	IRON	Appliances	10	11	[0, 0, 0]	n/a	catFR1	4	R1450D
1538.217	0.766	1543542	WORD_OFF	n/a	n/a	IRON	Appliances	10	11	[0, 0, 0]	n/a	catFR1	4	R1450D
1538.983	1.6	1544314	WORD	n/a	wordpools/wordpool_categorized_EN.txt	HALLWAY	Building	11	11	[0, 0, 0]	n/a	catFR1	4	R1450D
1540.6	0.932	1545930	WORD_OFF	n/a	n/a	HALLWAY	Building	11	11	[0, 0, 0]	n/a	catFR1	4	R1450D
1541.532	1.6	1546860	WORD	n/a	wordpools/wordpool_categorized_EN.txt	DOOR	Building	12	11	[0, 0, 0]	n/a	catFR1	4	R1450D
1543.134	0.001	1548461	PROB	11.766	n/a	n/a	n/a	-999	11	[2, 2, 4]	8.0	catFR1	4	R1450D
1543.135	0.0	1548462	START	n/a	n/a	n/a	n/a	-999	11	[-999, -999, -999]	n/a	catFR1	4	R1450D
1543.134	0.001	1548467	WORD_OFF	n/a	n/a	DOOR	Building	12	11	[0, 0, 0]	n/a	catFR1	4	R1450D
1543.135	0.0	1548467	ENCODING_END	n/a	n/a	n/a	n/a	-999	11	[0, 0, 0]	n/a	catFR1	4	R1450D
1543.135	11.782	1548467	DISTRACT_START	n/a	n/a	n/a	n/a	-999	11	[0, 0, 0]	n/a	catFR1	4	R1450D
1554.917	11.799	1560243	PROB	11.782	n/a	n/a	n/a	-999	11	[2, 4, 3]	9.0	catFR1	4	R1450D
1566.716	0.0	1572042	STOP	n/a	n/a	n/a	n/a	-999	11	[-999, -999, -999]	n/a	catFR1	4	R1450D
1566.716	2.217	1572046	DISTRACT_END	n/a	n/a	n/a	n/a	-999	11	[0, 0, 0]	n/a	catFR1	4	R1450D
1568.933	3.292	1574258	REC_START	n/a	n/a	n/a	n/a	-999	11	[0, 0, 0]	n/a	catFR1	4	R1450D
1572.225	4.089	1577550	REC_WORD_VV	3.292	n/a	<>	n/a	-999	11	[0, 0, 0]	n/a	catFR1	4	R1450D
1576.314	1.408	1581639	REC_WORD	7.381	n/a	BATHROOM	Building	4	11	[0, 0, 0]	n/a	catFR1	4	R1450D
1577.722	13.876	1583047	REC_WORD	8.789	n/a	HALLWAY	Building	11	11	[0, 0, 0]	n/a	catFR1	4	R1450D
1591.598	2.108	1596922	REC_WORD	22.665	n/a	COMPUTER	Electronics	-999	11	[0, 0, 0]	n/a	catFR1	4	R1450D
1593.706	5.393	1599030	REC_WORD_VV	24.773	n/a	<>	n/a	-999	11	[0, 0, 0]	n/a	catFR1	4	R1450D
1599.099	18.834	1604423	REC_END	n/a	n/a	n/a	n/a	-999	11	[0, 0, 0]	n/a	catFR1	4	R1450D
1617.933	10.0	1623262	COUNTDOWN_START	n/a	n/a	n/a	n/a	-999	12	[0, 0, 0]	n/a	catFR1	4	R1450D
1628.284	0.0	1633612	COUNTDOWN_END	n/a	n/a	n/a	n/a	-999	12	[0, 0, 0]	n/a	catFR1	4	R1450D
1628.284	1.916	1633612	ENCODING_START	n/a	n/a	n/a	n/a	-999	12	[0, 0, 0]	n/a	catFR1	4	R1450D
1630.2	1.6	1635526	WORD	n/a	wordpools/wordpool_categorized_EN.txt	NOTEBOOK	OfficeSupplies	1	12	[0, 0, 0]	n/a	catFR1	4	R1450D
1631.8	0.968	1637123	WORD_OFF	n/a	n/a	NOTEBOOK	OfficeSupplies	1	12	[0, 0, 0]	n/a	catFR1	4	R1450D
1632.768	1.6	1638089	WORD	n/a	wordpools/wordpool_categorized_EN.txt	PENCIL	OfficeSupplies	2	12	[0, 0, 0]	n/a	catFR1	4	R1450D
1634.383	0.883	1639704	WORD_OFF	n/a	n/a	PENCIL	OfficeSupplies	2	12	[0, 0, 0]	n/a	catFR1	4	R1450D
1635.266	1.6	1640591	WORD	n/a	wordpools/wordpool_categorized_EN.txt	CEILING	Building	3	12	[0, 0, 0]	n/a	catFR1	4	R1450D
1636.867	0.966	1642189	WORD_OFF	n/a	n/a	CEILING	Building	3	12	[0, 0, 0]	n/a	catFR1	4	R1450D
1637.833	1.6	1643154	WORD	n/a	wordpools/wordpool_categorized_EN.txt	STAIRS	Building	4	12	[0, 0, 0]	n/a	catFR1	4	R1450D
1639.433	0.867	1644761	WORD_OFF	n/a	n/a	STAIRS	Building	4	12	[0, 0, 0]	n/a	catFR1	4	R1450D
1640.3	1.6	1645621	WORD	n/a	wordpools/wordpool_categorized_EN.txt	LEG	BodyParts	5	12	[0, 0, 0]	n/a	catFR1	4	R1450D
1641.917	0.983	1647236	WORD_OFF	n/a	n/a	LEG	BodyParts	5	12	[0, 0, 0]	n/a	catFR1	4	R1450D
1642.9	1.6	1648220	WORD	n/a	wordpools/wordpool_categorized_EN.txt	ARM	BodyParts	6	12	[0, 0, 0]	n/a	catFR1	4	R1450D
1644.5	0.949	1649826	WORD_OFF	n/a	n/a	ARM	BodyParts	6	12	[0, 0, 0]	n/a	catFR1	4	R1450D
1645.449	1.6	1650774	WORD	n/a	wordpools/wordpool_categorized_EN.txt	ROOF	Building	7	12	[0, 0, 0]	n/a	catFR1	4	R1450D
1647.05	0.884	1652372	WORD_OFF	n/a	n/a	ROOF	Building	7	12	[0, 0, 0]	n/a	catFR1	4	R1450D
1647.934	1.6	1653259	WORD	n/a	wordpools/wordpool_categorized_EN.txt	ROOM	Building	8	12	[0, 0, 0]	n/a	catFR1	4	R1450D
1649.533	0.817	1654856	WORD_OFF	n/a	n/a	ROOM	Building	8	12	[0, 0, 0]	n/a	catFR1	4	R1450D
1650.35	1.6	1655673	WORD	n/a	wordpools/wordpool_categorized_EN.txt	PEN	OfficeSupplies	9	12	[0, 0, 0]	n/a	catFR1	4	R1450D
1651.95	0.767	1657271	WORD_OFF	n/a	n/a	PEN	OfficeSupplies	9	12	[0, 0, 0]	n/a	catFR1	4	R1450D
1652.717	1.6	1658043	WORD	n/a	wordpools/wordpool_categorized_EN.txt	BINDER	OfficeSupplies	10	12	[0, 0, 0]	n/a	catFR1	4	R1450D
1654.334	0.849	1659658	WORD_OFF	n/a	n/a	BINDER	OfficeSupplies	10	12	[0, 0, 0]	n/a	catFR1	4	R1450D
1655.183	1.6	1660510	WORD	n/a	wordpools/wordpool_categorized_EN.txt	HAND	BodyParts	11	12	[0, 0, 0]	n/a	catFR1	4	R1450D
1656.8	0.784	1662125	WORD_OFF	n/a	n/a	HAND	BodyParts	11	12	[0, 0, 0]	n/a	catFR1	4	R1450D
1657.584	1.6	1662907	WORD	n/a	wordpools/wordpool_categorized_EN.txt	EAR	BodyParts	12	12	[0, 0, 0]	n/a	catFR1	4	R1450D
1659.2	0.0	1664521	PROB	9.6	n/a	n/a	n/a	-999	12	[2, 2, 7]	11.0	catFR1	4	R1450D
1659.199	0.002	1664522	WORD_OFF	n/a	n/a	EAR	BodyParts	12	12	[0, 0, 0]	n/a	catFR1	4	R1450D
1659.201	0.0	1664522	ENCODING_END	n/a	n/a	n/a	n/a	-999	12	[0, 0, 0]	n/a	catFR1	4	R1450D
1659.201	0.0	1664522	START	n/a	n/a	n/a	n/a	-999	12	[-999, -999, -999]	n/a	catFR1	4	R1450D
1659.201	9.617	1664531	DISTRACT_START	n/a	n/a	n/a	n/a	-999	12	[0, 0, 0]	n/a	catFR1	4	R1450D
1668.818	9.366	1674138	PROB	9.349	n/a	n/a	n/a	-999	12	[1, 7, 2]	10.0	catFR1	4	R1450D
1678.184	13.633	1683504	PROB	13.616	n/a	n/a	n/a	-999	12	[3, 7, 6]	16.0	catFR1	4	R1450D
1691.817	0.0	1697135	DISTRACT_END	n/a	n/a	n/a	n/a	-999	12	[0, 0, 0]	n/a	catFR1	4	R1450D
1691.817	2.382	1697136	STOP	n/a	n/a	n/a	n/a	-999	12	[-999, -999, -999]	n/a	catFR1	4	R1450D
1694.199	1.169	1699522	REC_START	n/a	n/a	n/a	n/a	-999	12	[0, 0, 0]	n/a	catFR1	4	R1450D
1695.368	0.818	1700687	REC_WORD	1.169	n/a	STAIRS	Building	4	12	[0, 0, 0]	n/a	catFR1	4	R1450D
1696.186	15.718	1701505	REC_WORD	1.987	n/a	HALLWAY	Building	-999	12	[0, 0, 0]	n/a	catFR1	4	R1450D
1711.904	6.086	1717222	REC_WORD_VV	17.705	n/a	<>	n/a	-999	12	[0, 0, 0]	n/a	catFR1	4	R1450D
1717.99	0.9	1723308	REC_WORD	23.791	n/a	STAIRS	Building	4	12	[0, 0, 0]	n/a	catFR1	4	R1450D
1718.89	5.476	1724208	REC_WORD	24.691	n/a	HALLWAY	Building	-999	12	[0, 0, 0]	n/a	catFR1	4	R1450D
1724.366	0.0	1729687	REC_END	n/a	n/a	n/a	n/a	-999	12	[0, 0, 0]	n/a	catFR1	4	R1450D
