onset	duration	sample	trial_type	response_time	stim_file	item_name	category	serialpos	list	test	answer	experiment	session	subject
0.0	164.933	4638	INSTRUCT_START	n/a	n/a	n/a	n/a	-999	-999	[0, 0, 0]	n/a	catFR1	0	R1616S
164.933	60.817	169562	INSTRUCT_END	n/a	n/a	n/a	n/a	-999	-999	[0, 0, 0]	n/a	catFR1	0	R1616S
225.75	10.349	230367	COUNTDOWN_START	n/a	n/a	n/a	n/a	-999	-999	[0, 0, 0]	n/a	catFR1	0	R1616S
236.099	0.001	240720	COUNTDOWN_END	n/a	n/a	n/a	n/a	-999	-999	[0, 0, 0]	n/a	catFR1	0	R1616S
236.1	2.032	240720	ENCODING_START	n/a	n/a	n/a	n/a	-999	-1	[0, 0, 0]	n/a	catFR1	0	R1616S
238.132	1.6	242760	WORD	n/a	n/a	DRIZZLE	Weather	1	-1	[0, 0, 0]	n/a	catFR1	0	R1616S
239.732	0.767	244353	WORD_OFF	n/a	n/a	DRIZZLE	Weather	1	-1	[0, 0, 0]	n/a	catFR1	0	R1616S
240.499	1.6	245121	WORD	n/a	n/a	SNOW	Weather	2	-1	[0, 0, 0]	n/a	catFR1	0	R1616S
242.099	0.833	246714	WORD_OFF	n/a	n/a	SNOW	Weather	2	-1	[0, 0, 0]	n/a	catFR1	0	R1616S
242.932	1.6	247552	WORD	n/a	n/a	GIRAFFE	Zoo	3	-1	[0, 0, 0]	n/a	catFR1	0	R1616S
244.532	0.95	249159	WORD_OFF	n/a	n/a	GIRAFFE	Zoo	3	-1	[0, 0, 0]	n/a	catFR1	0	R1616S
245.482	1.6	250109	WORD	n/a	n/a	CHEETAH	Zoo	4	-1	[0, 0, 0]	n/a	catFR1	0	R1616S
247.082	0.9	251702	WORD_OFF	n/a	n/a	CHEETAH	Zoo	4	-1	[0, 0, 0]	n/a	catFR1	0	R1616S
247.982	1.617	252610	WORD	n/a	n/a	LEG	BodyParts	5	-1	[0, 0, 0]	n/a	catFR1	0	R1616S
249.599	0.817	254217	WORD_OFF	n/a	n/a	LEG	BodyParts	5	-1	[0, 0, 0]	n/a	catFR1	0	R1616S
250.416	1.6	255041	WORD	n/a	n/a	ARM	BodyParts	6	-1	[0, 0, 0]	n/a	catFR1	0	R1616S
252.016	0.815	256634	WORD_OFF	n/a	n/a	ARM	BodyParts	6	-1	[0, 0, 0]	n/a	catFR1	0	R1616S
252.831	1.601	257458	WORD	n/a	n/a	BEAR	Zoo	7	-1	[0, 0, 0]	n/a	catFR1	0	R1616S
254.432	0.983	259051	WORD_OFF	n/a	n/a	BEAR	Zoo	7	-1	[0, 0, 0]	n/a	catFR1	0	R1616S
255.415	1.6	260029	WORD	n/a	n/a	CHIMPANZEE	Zoo	8	-1	[0, 0, 0]	n/a	catFR1	0	R1616S
257.015	0.883	261636	WORD_OFF	n/a	n/a	CHIMPANZEE	Zoo	8	-1	[0, 0, 0]	n/a	catFR1	0	R1616S
257.898	1.617	262516	WORD	n/a	n/a	NOSE	BodyParts	9	-1	[0, 0, 0]	n/a	catFR1	0	R1616S
259.515	0.966	264137	WORD_OFF	n/a	n/a	NOSE	BodyParts	9	-1	[0, 0, 0]	n/a	catFR1	0	R1616S
260.481	1.601	265101	WORD	n/a	n/a	HEAD	BodyParts	10	-1	[0, 0, 0]	n/a	catFR1	0	R1616S
262.082	0.918	266708	WORD_OFF	n/a	n/a	HEAD	BodyParts	10	-1	[0, 0, 0]	n/a	catFR1	0	R1616S
263.0	1.616	267616	WORD	n/a	n/a	LIGHTNING	Weather	11	-1	[0, 0, 0]	n/a	catFR1	0	R1616S
264.616	0.85	269236	WORD_OFF	n/a	n/a	LIGHTNING	Weather	11	-1	[0, 0, 0]	n/a	catFR1	0	R1616S
265.466	1.618	270089	WORD	n/a	n/a	HUMIDITY	Weather	12	-1	[0, 0, 0]	n/a	catFR1	0	R1616S
267.084	0.0	271704	START	n/a	n/a	n/a	n/a	-999	-1	[-999, -999, -999]	n/a	catFR1	0	R1616S
267.084	0.0	271704	PROB	0.0	n/a	n/a	n/a	-999	-1	[1, 2, 2]	5	catFR1	0	R1616S
267.082	0.002	271709	WORD_OFF	n/a	n/a	HUMIDITY	Weather	12	-1	[0, 0, 0]	n/a	catFR1	0	R1616S
267.084	0.0	271709	ENCODING_END	n/a	n/a	n/a	n/a	-999	-1	[0, 0, 0]	n/a	catFR1	0	R1616S
267.084	15.114	271709	DISTRACT_START	n/a	n/a	n/a	n/a	-999	-1	[0, 0, 0]	n/a	catFR1	0	R1616S
282.198	6.618	286817	PROB	6.618	n/a	n/a	n/a	-999	-1	[3, 6, 2]	10	catFR1	0	R1616S
288.816	0.0	293435	STOP	n/a	n/a	n/a	n/a	-999	-1	[-999, -999, -999]	n/a	catFR1	0	R1616S
288.816	1.133	293436	DISTRACT_END	n/a	n/a	n/a	n/a	-999	-1	[0, 0, 0]	n/a	catFR1	0	R1616S
289.949	2.326	294567	REC_START	n/a	n/a	n/a	n/a	-999	-1	[0, 0, 0]	n/a	catFR1	0	R1616S
292.275	0.861	296893	REC_WORD	0.861	n/a	DRIZZLE	Weather	1	-1	[0, 0, 0]	n/a	catFR1	0	R1616S
293.136	0.871	297754	REC_WORD	0.871	n/a	GIRAFFE	Zoo	3	-1	[0, 0, 0]	n/a	catFR1	0	R1616S
294.007	0.756	298625	REC_WORD	0.756	n/a	LEG	BodyParts	5	-1	[0, 0, 0]	n/a	catFR1	0	R1616S
294.763	1.663	299381	REC_WORD	1.663	n/a	NOSE	BodyParts	9	-1	[0, 0, 0]	n/a	catFR1	0	R1616S
296.426	0.33	301044	REC_WORD_VV	0.33	n/a	<>	n/a	-999	-1	[0, 0, 0]	n/a	catFR1	0	R1616S
296.756	3.729	301374	REC_WORD	3.729	n/a	BEAR	Zoo	7	-1	[0, 0, 0]	n/a	catFR1	0	R1616S
300.485	10.027	305103	REC_WORD_VV	10.027	n/a	<>	n/a	-999	-1	[0, 0, 0]	n/a	catFR1	0	R1616S
310.512	5.04	315130	REC_WORD_VV	5.04	n/a	<>	n/a	-999	-1	[0, 0, 0]	n/a	catFR1	0	R1616S
315.552	5.584	320169	REC_WORD_VV	5.584	n/a	<>	n/a	-999	-1	[0, 0, 0]	n/a	catFR1	0	R1616S
321.136	14.879	325752	REC_END	n/a	n/a	n/a	n/a	-999	-1	[0, 0, 0]	n/a	catFR1	0	R1616S
336.015	10.35	340632	COUNTDOWN_START	n/a	n/a	n/a	n/a	-999	1	[0, 0, 0]	n/a	catFR1	0	R1616S
346.365	0.0	350986	COUNTDOWN_END	n/a	n/a	n/a	n/a	-999	1	[0, 0, 0]	n/a	catFR1	0	R1616S
346.365	2.151	350986	ENCODING_START	n/a	n/a	n/a	n/a	-999	1	[0, 0, 0]	n/a	catFR1	0	R1616S
348.516	1.616	353137	WORD	n/a	wordpools/wordpool_categorized_EN.txt	PANTS	Clothing	1	1	[0, 0, 0]	n/a	catFR1	0	R1616S
350.132	0.784	354744	WORD_OFF	n/a	n/a	PANTS	Clothing	1	1	[0, 0, 0]	n/a	catFR1	0	R1616S
350.916	1.6	355526	WORD	n/a	wordpools/wordpool_categorized_EN.txt	JEANS	Clothing	2	1	[0, 0, 0]	n/a	catFR1	0	R1616S
352.516	0.816	357133	WORD_OFF	n/a	n/a	JEANS	Clothing	2	1	[0, 0, 0]	n/a	catFR1	0	R1616S
353.332	1.601	357944	WORD	n/a	wordpools/wordpool_categorized_EN.txt	RIVER	Landscapes	3	1	[0, 0, 0]	n/a	catFR1	0	R1616S
354.933	0.799	359550	WORD_OFF	n/a	n/a	RIVER	Landscapes	3	1	[0, 0, 0]	n/a	catFR1	0	R1616S
355.732	1.617	360347	WORD	n/a	wordpools/wordpool_categorized_EN.txt	VALLEY	Landscapes	4	1	[0, 0, 0]	n/a	catFR1	0	R1616S
357.349	0.783	361967	WORD_OFF	n/a	n/a	VALLEY	Landscapes	4	1	[0, 0, 0]	n/a	catFR1	0	R1616S
358.132	1.617	362750	WORD	n/a	wordpools/wordpool_categorized_EN.txt	MAPLE	Trees	5	1	[0, 0, 0]	n/a	catFR1	0	R1616S
359.749	0.767	364371	WORD_OFF	n/a	n/a	MAPLE	Trees	5	1	[0, 0, 0]	n/a	catFR1	0	R1616S
360.516	1.6	365125	WORD	n/a	wordpools/wordpool_categorized_EN.txt	CEDAR	Trees	6	1	[0, 0, 0]	n/a	catFR1	0	R1616S
362.116	0.783	366732	WORD_OFF	n/a	n/a	CEDAR	Trees	6	1	[0, 0, 0]	n/a	catFR1	0	R1616S
362.899	1.616	367514	WORD	n/a	wordpools/wordpool_categorized_EN.txt	ISLAND	Landscapes	7	1	[0, 0, 0]	n/a	catFR1	0	R1616S
364.515	0.784	369135	WORD_OFF	n/a	n/a	ISLAND	Landscapes	7	1	[0, 0, 0]	n/a	catFR1	0	R1616S
365.299	1.616	369917	WORD	n/a	wordpools/wordpool_categorized_EN.txt	BEACH	Landscapes	8	1	[0, 0, 0]	n/a	catFR1	0	R1616S
366.915	0.9	371524	WORD_OFF	n/a	n/a	BEACH	Landscapes	8	1	[0, 0, 0]	n/a	catFR1	0	R1616S
367.815	1.617	372432	WORD	n/a	wordpools/wordpool_categorized_EN.txt	SKIRT	Clothing	9	1	[0, 0, 0]	n/a	catFR1	0	R1616S
369.432	0.934	374053	WORD_OFF	n/a	n/a	SKIRT	Clothing	9	1	[0, 0, 0]	n/a	catFR1	0	R1616S
370.366	1.616	374975	WORD	n/a	wordpools/wordpool_categorized_EN.txt	SOCKS	Clothing	10	1	[0, 0, 0]	n/a	catFR1	0	R1616S
371.982	0.966	376596	WORD_OFF	n/a	n/a	SOCKS	Clothing	10	1	[0, 0, 0]	n/a	catFR1	0	R1616S
372.948	1.601	377560	WORD	n/a	wordpools/wordpool_categorized_EN.txt	WALNUT	Trees	11	1	[0, 0, 0]	n/a	catFR1	0	R1616S
374.549	0.9	379167	WORD_OFF	n/a	n/a	WALNUT	Trees	11	1	[0, 0, 0]	n/a	catFR1	0	R1616S
375.449	1.602	380061	WORD	n/a	wordpools/wordpool_categorized_EN.txt	OAK	Trees	12	1	[0, 0, 0]	n/a	catFR1	0	R1616S
377.051	0.0	381665	START	n/a	n/a	n/a	n/a	-999	1	[-999, -999, -999]	n/a	catFR1	0	R1616S
377.051	0.0	381665	PROB	0.0	n/a	n/a	n/a	-999	1	[7, 6, 8]	21	catFR1	0	R1616S
377.05	0.001	381668	WORD_OFF	n/a	n/a	OAK	Trees	12	1	[0, 0, 0]	n/a	catFR1	0	R1616S
377.051	0.0	381668	ENCODING_END	n/a	n/a	n/a	n/a	-999	1	[0, 0, 0]	n/a	catFR1	0	R1616S
377.051	7.232	381668	DISTRACT_START	n/a	n/a	n/a	n/a	-999	1	[0, 0, 0]	n/a	catFR1	0	R1616S
384.283	5.15	388897	PROB	5.15	n/a	n/a	n/a	-999	1	[5, 2, 3]	10	catFR1	0	R1616S
389.433	3.983	394047	PROB	3.983	n/a	n/a	n/a	-999	1	[8, 2, 8]	18	catFR1	0	R1616S
393.416	3.983	398030	PROB	3.983	n/a	n/a	n/a	-999	1	[3, 7, 5]	15	catFR1	0	R1616S
397.399	0.0	402011	DISTRACT_END	n/a	n/a	n/a	n/a	-999	1	[0, 0, 0]	n/a	catFR1	0	R1616S
397.399	1.267	402012	STOP	n/a	n/a	n/a	n/a	-999	1	[-999, -999, -999]	n/a	catFR1	0	R1616S
398.666	1.206	403282	REC_START	n/a	n/a	n/a	n/a	-999	1	[0, 0, 0]	n/a	catFR1	0	R1616S
399.872	1.199	404485	REC_WORD	1.199	n/a	DRESS	n/a	-999	1	[0, 0, 0]	n/a	catFR1	0	R1616S
401.071	7.173	405684	REC_WORD	7.173	n/a	MAPLE	Trees	5	1	[0, 0, 0]	n/a	catFR1	0	R1616S
408.244	1.606	412857	REC_WORD_VV	1.606	n/a	<>	n/a	-999	1	[0, 0, 0]	n/a	catFR1	0	R1616S
409.85	0.83	414463	REC_WORD	0.83	n/a	ISLAND	Landscapes	7	1	[0, 0, 0]	n/a	catFR1	0	R1616S
410.68	1.616	415293	REC_WORD	1.616	n/a	BEACH	Landscapes	8	1	[0, 0, 0]	n/a	catFR1	0	R1616S
412.296	2.912	416909	REC_WORD	2.912	n/a	RIVER	Landscapes	3	1	[0, 0, 0]	n/a	catFR1	0	R1616S
415.208	11.47	419821	REC_WORD_VV	11.47	n/a	<>	n/a	-999	1	[0, 0, 0]	n/a	catFR1	0	R1616S
426.678	3.221	431290	REC_WORD	3.221	n/a	GIRAFFE, ISLAND, MAPLE	n/a	-999	1	[0, 0, 0]	n/a	catFR1	0	R1616S
429.899	4.566	434509	REC_END	n/a	n/a	n/a	n/a	-999	1	[0, 0, 0]	n/a	catFR1	0	R1616S
434.465	10.351	439078	COUNTDOWN_START	n/a	n/a	n/a	n/a	-999	1	[0, 0, 0]	n/a	catFR1	0	R1616S
444.816	0.0	449431	COUNTDOWN_END	n/a	n/a	n/a	n/a	-999	1	[0, 0, 0]	n/a	catFR1	0	R1616S
444.816	1.933	449431	ENCODING_START	n/a	n/a	n/a	n/a	-999	2	[0, 0, 0]	n/a	catFR1	0	R1616S
446.749	1.617	451359	WORD	n/a	wordpools/wordpool_categorized_EN.txt	OCEAN	Landscapes	1	2	[0, 0, 0]	n/a	catFR1	0	R1616S
448.366	0.783	452980	WORD_OFF	n/a	n/a	OCEAN	Landscapes	1	2	[0, 0, 0]	n/a	catFR1	0	R1616S
449.149	1.6	453762	WORD	n/a	wordpools/wordpool_categorized_EN.txt	HILLS	Landscapes	2	2	[0, 0, 0]	n/a	catFR1	0	R1616S
450.749	0.916	455355	WORD_OFF	n/a	n/a	HILLS	Landscapes	2	2	[0, 0, 0]	n/a	catFR1	0	R1616S
451.665	1.6	456277	WORD	n/a	wordpools/wordpool_categorized_EN.txt	ATTIC	Building	3	2	[0, 0, 0]	n/a	catFR1	0	R1616S
453.265	0.833	457870	WORD_OFF	n/a	n/a	ATTIC	Building	3	2	[0, 0, 0]	n/a	catFR1	0	R1616S
454.098	1.601	458708	WORD	n/a	wordpools/wordpool_categorized_EN.txt	ROOF	Building	4	2	[0, 0, 0]	n/a	catFR1	0	R1616S
455.699	0.866	460315	WORD_OFF	n/a	n/a	ROOF	Building	4	2	[0, 0, 0]	n/a	catFR1	0	R1616S
456.565	1.601	461181	WORD	n/a	wordpools/wordpool_categorized_EN.txt	MIXER	Appliances	5	2	[0, 0, 0]	n/a	catFR1	0	R1616S
458.166	0.917	462774	WORD_OFF	n/a	n/a	MIXER	Appliances	5	2	[0, 0, 0]	n/a	catFR1	0	R1616S
459.083	1.599	463696	WORD	n/a	wordpools/wordpool_categorized_EN.txt	BLENDER	Appliances	6	2	[0, 0, 0]	n/a	catFR1	0	R1616S
460.682	0.784	465289	WORD_OFF	n/a	n/a	BLENDER	Appliances	6	2	[0, 0, 0]	n/a	catFR1	0	R1616S
461.466	1.599	466071	WORD	n/a	wordpools/wordpool_categorized_EN.txt	ROOM	Building	7	2	[0, 0, 0]	n/a	catFR1	0	R1616S
463.065	0.867	467678	WORD_OFF	n/a	n/a	ROOM	Building	7	2	[0, 0, 0]	n/a	catFR1	0	R1616S
463.932	1.6	468544	WORD	n/a	wordpools/wordpool_categorized_EN.txt	FLOOR	Building	8	2	[0, 0, 0]	n/a	catFR1	0	R1616S
465.532	0.801	470137	WORD_OFF	n/a	n/a	FLOOR	Building	8	2	[0, 0, 0]	n/a	catFR1	0	R1616S
466.333	1.616	470948	WORD	n/a	wordpools/wordpool_categorized_EN.txt	WASHER	Appliances	9	2	[0, 0, 0]	n/a	catFR1	0	R1616S
467.949	0.883	472554	WORD_OFF	n/a	n/a	WASHER	Appliances	9	2	[0, 0, 0]	n/a	catFR1	0	R1616S
468.832	1.617	473449	WORD	n/a	wordpools/wordpool_categorized_EN.txt	IRON	Appliances	10	2	[0, 0, 0]	n/a	catFR1	0	R1616S
470.449	0.8	475055	WORD_OFF	n/a	n/a	IRON	Appliances	10	2	[0, 0, 0]	n/a	catFR1	0	R1616S
471.249	1.6	475866	WORD	n/a	wordpools/wordpool_categorized_EN.txt	WOODS	Landscapes	11	2	[0, 0, 0]	n/a	catFR1	0	R1616S
472.849	0.867	477458	WORD_OFF	n/a	n/a	WOODS	Landscapes	11	2	[0, 0, 0]	n/a	catFR1	0	R1616S
473.716	1.617	478325	WORD	n/a	wordpools/wordpool_categorized_EN.txt	CREEK	Landscapes	12	2	[0, 0, 0]	n/a	catFR1	0	R1616S
475.333	0.001	479943	PROB	0.001	n/a	n/a	n/a	-999	2	[7, 4, 5]	16	catFR1	0	R1616S
475.334	0.0	479944	START	n/a	n/a	n/a	n/a	-999	2	[-999, -999, -999]	n/a	catFR1	0	R1616S
475.332	0.002	479945	WORD_OFF	n/a	n/a	CREEK	Landscapes	12	2	[0, 0, 0]	n/a	catFR1	0	R1616S
475.334	0.0	479945	ENCODING_END	n/a	n/a	n/a	n/a	-999	2	[0, 0, 0]	n/a	catFR1	0	R1616S
475.334	5.032	479945	DISTRACT_START	n/a	n/a	n/a	n/a	-999	2	[0, 0, 0]	n/a	catFR1	0	R1616S
480.366	4.8	484975	PROB	4.8	n/a	n/a	n/a	-999	2	[7, 3, 4]	14	catFR1	0	R1616S
485.166	5.35	489775	PROB	5.35	n/a	n/a	n/a	-999	2	[4, 1, 6]	11	catFR1	0	R1616S
490.516	6.799	495125	PROB	6.799	n/a	n/a	n/a	-999	2	[2, 6, 5]	13	catFR1	0	R1616S
497.315	0.0	501923	DISTRACT_END	n/a	n/a	n/a	n/a	-999	2	[0, 0, 0]	n/a	catFR1	0	R1616S
497.315	1.184	501924	STOP	n/a	n/a	n/a	n/a	-999	2	[-999, -999, -999]	n/a	catFR1	0	R1616S
498.499	1.267	503111	REC_START	n/a	n/a	n/a	n/a	-999	2	[0, 0, 0]	n/a	catFR1	0	R1616S
499.766	0.963	504375	REC_WORD	0.963	n/a	MAPLE	Trees	-999	2	[0, 0, 0]	n/a	catFR1	0	R1616S
500.729	1.172	505338	REC_WORD	1.172	n/a	OAK	Trees	-999	2	[0, 0, 0]	n/a	catFR1	0	R1616S
501.901	1.632	506509	REC_WORD	1.632	n/a	RIVER	Landscapes	-999	2	[0, 0, 0]	n/a	catFR1	0	R1616S
503.533	0.998	508141	REC_WORD_VV	0.998	n/a	<>	n/a	-999	2	[0, 0, 0]	n/a	catFR1	0	R1616S
504.531	1.272	509139	REC_WORD_VV	1.272	n/a	<>	n/a	-999	2	[0, 0, 0]	n/a	catFR1	0	R1616S
505.803	0.95	510411	REC_WORD	0.95	n/a	ATTIC	Building	3	2	[0, 0, 0]	n/a	catFR1	0	R1616S
506.753	3.422	511361	REC_WORD	3.422	n/a	ROOM	Building	7	2	[0, 0, 0]	n/a	catFR1	0	R1616S
510.175	3.641	514783	REC_WORD_VV	3.641	n/a	<>	n/a	-999	2	[0, 0, 0]	n/a	catFR1	0	R1616S
513.816	9.807	518424	REC_WORD	9.807	n/a	FLOOR	Building	8	2	[0, 0, 0]	n/a	catFR1	0	R1616S
523.623	1.59	528230	REC_WORD_VV	1.59	n/a	<>	n/a	-999	2	[0, 0, 0]	n/a	catFR1	0	R1616S
525.213	1.165	529820	REC_WORD_VV	1.165	n/a	<>	n/a	-999	2	[0, 0, 0]	n/a	catFR1	0	R1616S
526.378	1.075	530985	REC_WORD_VV	1.075	n/a	<>	n/a	-999	2	[0, 0, 0]	n/a	catFR1	0	R1616S
527.453	2.26	532060	REC_WORD_VV	2.26	n/a	<>	n/a	-999	2	[0, 0, 0]	n/a	catFR1	0	R1616S
529.713	3.236	534324	REC_END	n/a	n/a	n/a	n/a	-999	2	[0, 0, 0]	n/a	catFR1	0	R1616S
532.949	10.35	537565	COUNTDOWN_START	n/a	n/a	n/a	n/a	-999	2	[0, 0, 0]	n/a	catFR1	0	R1616S
543.299	0.0	547904	COUNTDOWN_END	n/a	n/a	n/a	n/a	-999	2	[0, 0, 0]	n/a	catFR1	0	R1616S
543.299	2.167	547904	ENCODING_START	n/a	n/a	n/a	n/a	-999	3	[0, 0, 0]	n/a	catFR1	0	R1616S
545.466	1.616	550070	WORD	n/a	wordpools/wordpool_categorized_EN.txt	DOOR	Building	1	3	[0, 0, 0]	n/a	catFR1	0	R1616S
547.082	0.834	551691	WORD_OFF	n/a	n/a	DOOR	Building	1	3	[0, 0, 0]	n/a	catFR1	0	R1616S
547.916	1.6	552529	WORD	n/a	wordpools/wordpool_categorized_EN.txt	STAIRS	Building	2	3	[0, 0, 0]	n/a	catFR1	0	R1616S
549.516	1.0	554122	WORD_OFF	n/a	n/a	STAIRS	Building	2	3	[0, 0, 0]	n/a	catFR1	0	R1616S
550.516	1.6	555128	WORD	n/a	wordpools/wordpool_categorized_EN.txt	LEATHER	Fabric	3	3	[0, 0, 0]	n/a	catFR1	0	R1616S
552.116	0.949	556721	WORD_OFF	n/a	n/a	LEATHER	Fabric	3	3	[0, 0, 0]	n/a	catFR1	0	R1616S
553.065	1.601	557671	WORD	n/a	wordpools/wordpool_categorized_EN.txt	VELVET	Fabric	4	3	[0, 0, 0]	n/a	catFR1	0	R1616S
554.666	0.865	559277	WORD_OFF	n/a	n/a	VELVET	Fabric	4	3	[0, 0, 0]	n/a	catFR1	0	R1616S
555.531	1.601	560144	WORD	n/a	wordpools/wordpool_categorized_EN.txt	ORANGUTAN	Zoo	5	3	[0, 0, 0]	n/a	catFR1	0	R1616S
557.132	0.948	561736	WORD_OFF	n/a	n/a	ORANGUTAN	Zoo	5	3	[0, 0, 0]	n/a	catFR1	0	R1616S
558.08	1.602	562687	WORD	n/a	wordpools/wordpool_categorized_EN.txt	TIGER	Zoo	6	3	[0, 0, 0]	n/a	catFR1	0	R1616S
559.682	0.866	564293	WORD_OFF	n/a	n/a	TIGER	Zoo	6	3	[0, 0, 0]	n/a	catFR1	0	R1616S
560.548	1.601	565160	WORD	n/a	wordpools/wordpool_categorized_EN.txt	LINEN	Fabric	7	3	[0, 0, 0]	n/a	catFR1	0	R1616S
562.149	0.982	566752	WORD_OFF	n/a	n/a	LINEN	Fabric	7	3	[0, 0, 0]	n/a	catFR1	0	R1616S
563.131	1.6	567744	WORD	n/a	wordpools/wordpool_categorized_EN.txt	FLEECE	Fabric	8	3	[0, 0, 0]	n/a	catFR1	0	R1616S
564.731	0.885	569337	WORD_OFF	n/a	n/a	FLEECE	Fabric	8	3	[0, 0, 0]	n/a	catFR1	0	R1616S
565.616	1.599	570217	WORD	n/a	wordpools/wordpool_categorized_EN.txt	BATHROOM	Building	9	3	[0, 0, 0]	n/a	catFR1	0	R1616S
567.215	0.984	571824	WORD_OFF	n/a	n/a	BATHROOM	Building	9	3	[0, 0, 0]	n/a	catFR1	0	R1616S
568.199	1.616	572802	WORD	n/a	wordpools/wordpool_categorized_EN.txt	WINDOW	Building	10	3	[0, 0, 0]	n/a	catFR1	0	R1616S
569.815	0.967	574423	WORD_OFF	n/a	n/a	WINDOW	Building	10	3	[0, 0, 0]	n/a	catFR1	0	R1616S
570.782	1.6	575387	WORD	n/a	wordpools/wordpool_categorized_EN.txt	GORILLA	Zoo	11	3	[0, 0, 0]	n/a	catFR1	0	R1616S
572.382	0.95	576994	WORD_OFF	n/a	n/a	GORILLA	Zoo	11	3	[0, 0, 0]	n/a	catFR1	0	R1616S
573.332	1.617	577944	WORD	n/a	wordpools/wordpool_categorized_EN.txt	LION	Zoo	12	3	[0, 0, 0]	n/a	catFR1	0	R1616S
574.949	0.002	579551	WORD_OFF	n/a	n/a	LION	Zoo	12	3	[0, 0, 0]	n/a	catFR1	0	R1616S
574.951	0.0	579551	ENCODING_END	n/a	n/a	n/a	n/a	-999	3	[0, 0, 0]	n/a	catFR1	0	R1616S
574.949	0.002	579554	PROB	0.002	n/a	n/a	n/a	-999	3	[5, 8, 2]	15	catFR1	0	R1616S
574.951	0.0	579556	START	n/a	n/a	n/a	n/a	-999	3	[-999, -999, -999]	n/a	catFR1	0	R1616S
574.951	4.948	579565	DISTRACT_START	n/a	n/a	n/a	n/a	-999	3	[0, 0, 0]	n/a	catFR1	0	R1616S
579.899	11.518	584504	PROB	11.518	n/a	n/a	n/a	-999	3	[1, 6, 8]	15	catFR1	0	R1616S
591.417	5.465	596021	PROB	5.465	n/a	n/a	n/a	-999	3	[7, 7, 4]	18	catFR1	0	R1616S
596.882	0.0	601486	DISTRACT_END	n/a	n/a	n/a	n/a	-999	3	[0, 0, 0]	n/a	catFR1	0	R1616S
596.882	1.049	601486	STOP	n/a	n/a	n/a	n/a	-999	3	[-999, -999, -999]	n/a	catFR1	0	R1616S
597.931	1.338	602534	REC_START	n/a	n/a	n/a	n/a	-999	3	[0, 0, 0]	n/a	catFR1	0	R1616S
599.269	0.647	603873	REC_WORD	0.647	n/a	ROOM	Building	-999	3	[0, 0, 0]	n/a	catFR1	0	R1616S
599.916	0.802	604520	REC_WORD	0.802	n/a	GORILLA	Zoo	11	3	[0, 0, 0]	n/a	catFR1	0	R1616S
600.718	0.876	605322	REC_WORD	0.876	n/a	LINEN	Fabric	7	3	[0, 0, 0]	n/a	catFR1	0	R1616S
601.594	0.766	606198	REC_WORD	0.766	n/a	CLOSET	n/a	-999	3	[0, 0, 0]	n/a	catFR1	0	R1616S
602.36	1.362	606964	REC_WORD	1.362	n/a	FLOOR	Building	-999	3	[0, 0, 0]	n/a	catFR1	0	R1616S
603.722	2.153	608326	REC_WORD	2.153	n/a	VELVET	Fabric	4	3	[0, 0, 0]	n/a	catFR1	0	R1616S
605.875	2.665	610479	REC_WORD_VV	2.665	n/a	<>	n/a	-999	3	[0, 0, 0]	n/a	catFR1	0	R1616S
608.54	2.236	613143	REC_WORD_VV	2.236	n/a	<>	n/a	-999	3	[0, 0, 0]	n/a	catFR1	0	R1616S
610.776	2.683	615379	REC_WORD_VV	2.683	n/a	<>	n/a	-999	3	[0, 0, 0]	n/a	catFR1	0	R1616S
613.459	1.283	618062	REC_WORD_VV	1.283	n/a	<>	n/a	-999	3	[0, 0, 0]	n/a	catFR1	0	R1616S
614.742	3.125	619345	REC_WORD	3.125	n/a	ORANGUTAN	Zoo	5	3	[0, 0, 0]	n/a	catFR1	0	R1616S
617.867	4.024	622470	REC_WORD_VV	4.024	n/a	<>	n/a	-999	3	[0, 0, 0]	n/a	catFR1	0	R1616S
621.891	1.503	626494	REC_WORD_VV	1.503	n/a	<>	n/a	-999	3	[0, 0, 0]	n/a	catFR1	0	R1616S
623.394	1.206	627997	REC_WORD_VV	1.206	n/a	<>	n/a	-999	3	[0, 0, 0]	n/a	catFR1	0	R1616S
624.6	1.331	629203	REC_WORD_VV	1.331	n/a	<>	n/a	-999	3	[0, 0, 0]	n/a	catFR1	0	R1616S
625.931	3.192	630534	REC_WORD	3.192	n/a	WINDOW	Building	10	3	[0, 0, 0]	n/a	catFR1	0	R1616S
629.123	3.193	633733	REC_END	n/a	n/a	n/a	n/a	-999	3	[0, 0, 0]	n/a	catFR1	0	R1616S
632.316	10.349	636919	COUNTDOWN_START	n/a	n/a	n/a	n/a	-999	3	[0, 0, 0]	n/a	catFR1	0	R1616S
642.665	0.0	647272	COUNTDOWN_END	n/a	n/a	n/a	n/a	-999	3	[0, 0, 0]	n/a	catFR1	0	R1616S
642.665	2.117	647272	ENCODING_START	n/a	n/a	n/a	n/a	-999	4	[0, 0, 0]	n/a	catFR1	0	R1616S
644.782	1.617	649382	WORD	n/a	wordpools/wordpool_categorized_EN.txt	BASEBALL	Toys	1	4	[0, 0, 0]	n/a	catFR1	0	R1616S
646.399	0.867	651002	WORD_OFF	n/a	n/a	BASEBALL	Toys	1	4	[0, 0, 0]	n/a	catFR1	0	R1616S
647.266	1.616	651869	WORD	n/a	wordpools/wordpool_categorized_EN.txt	DOLLHOUSE	Toys	2	4	[0, 0, 0]	n/a	catFR1	0	R1616S
648.882	0.983	653489	WORD_OFF	n/a	n/a	DOLLHOUSE	Toys	2	4	[0, 0, 0]	n/a	catFR1	0	R1616S
649.865	1.601	654467	WORD	n/a	wordpools/wordpool_categorized_EN.txt	BLUEBERRY	Fruit	3	4	[0, 0, 0]	n/a	catFR1	0	R1616S
651.466	0.916	656074	WORD_OFF	n/a	n/a	BLUEBERRY	Fruit	3	4	[0, 0, 0]	n/a	catFR1	0	R1616S
652.382	1.617	656982	WORD	n/a	wordpools/wordpool_categorized_EN.txt	PEAR	Fruit	4	4	[0, 0, 0]	n/a	catFR1	0	R1616S
653.999	0.899	658603	WORD_OFF	n/a	n/a	PEAR	Fruit	4	4	[0, 0, 0]	n/a	catFR1	0	R1616S
654.898	1.601	659497	WORD	n/a	wordpools/wordpool_categorized_EN.txt	DAISY	Flowers	5	4	[0, 0, 0]	n/a	catFR1	0	R1616S
656.499	0.917	661104	WORD_OFF	n/a	n/a	DAISY	Flowers	5	4	[0, 0, 0]	n/a	catFR1	0	R1616S
657.416	1.6	662012	WORD	n/a	wordpools/wordpool_categorized_EN.txt	TULIP	Flowers	6	4	[0, 0, 0]	n/a	catFR1	0	R1616S
659.016	0.818	663619	WORD_OFF	n/a	n/a	TULIP	Flowers	6	4	[0, 0, 0]	n/a	catFR1	0	R1616S
659.834	1.598	664429	WORD	n/a	wordpools/wordpool_categorized_EN.txt	BARBIE	Toys	7	4	[0, 0, 0]	n/a	catFR1	0	R1616S
661.432	0.866	666036	WORD_OFF	n/a	n/a	BARBIE	Toys	7	4	[0, 0, 0]	n/a	catFR1	0	R1616S
662.298	1.601	666902	WORD	n/a	wordpools/wordpool_categorized_EN.txt	FRISBEE	Toys	8	4	[0, 0, 0]	n/a	catFR1	0	R1616S
663.899	0.983	668495	WORD_OFF	n/a	n/a	FRISBEE	Toys	8	4	[0, 0, 0]	n/a	catFR1	0	R1616S
664.882	1.6	669487	WORD	n/a	wordpools/wordpool_categorized_EN.txt	VIOLET	Flowers	9	4	[0, 0, 0]	n/a	catFR1	0	R1616S
666.482	0.967	671080	WORD_OFF	n/a	n/a	VIOLET	Flowers	9	4	[0, 0, 0]	n/a	catFR1	0	R1616S
667.449	1.6	672044	WORD	n/a	wordpools/wordpool_categorized_EN.txt	PETUNIA	Flowers	10	4	[0, 0, 0]	n/a	catFR1	0	R1616S
669.049	0.883	673651	WORD_OFF	n/a	n/a	PETUNIA	Flowers	10	4	[0, 0, 0]	n/a	catFR1	0	R1616S
669.932	1.6	674531	WORD	n/a	wordpools/wordpool_categorized_EN.txt	STRAWBERRY	Fruit	11	4	[0, 0, 0]	n/a	catFR1	0	R1616S
671.532	0.949	676138	WORD_OFF	n/a	n/a	STRAWBERRY	Fruit	11	4	[0, 0, 0]	n/a	catFR1	0	R1616S
672.481	1.602	677088	WORD	n/a	wordpools/wordpool_categorized_EN.txt	GRAPE	Fruit	12	4	[0, 0, 0]	n/a	catFR1	0	R1616S
674.083	0.001	678681	WORD_OFF	n/a	n/a	GRAPE	Fruit	12	4	[0, 0, 0]	n/a	catFR1	0	R1616S
674.084	0.0	678681	ENCODING_END	n/a	n/a	n/a	n/a	-999	4	[0, 0, 0]	n/a	catFR1	0	R1616S
674.084	0.0	678681	DISTRACT_START	n/a	n/a	n/a	n/a	-999	4	[0, 0, 0]	n/a	catFR1	0	R1616S
674.084	0.0	678684	START	n/a	n/a	n/a	n/a	-999	4	[-999, -999, -999]	n/a	catFR1	0	R1616S
674.084	4.016	678684	PROB	4.016	n/a	n/a	n/a	-999	4	[2, 3, 6]	11	catFR1	0	R1616S
678.1	3.783	682700	PROB	3.783	n/a	n/a	n/a	-999	4	[4, 4, 3]	11	catFR1	0	R1616S
681.883	5.2	686483	PROB	5.2	n/a	n/a	n/a	-999	4	[8, 4, 4]	16	catFR1	0	R1616S
687.083	4.05	691683	PROB	4.05	n/a	n/a	n/a	-999	4	[3, 8, 8]	21	catFR1	0	R1616S
691.133	3.066	695732	PROB	3.066	n/a	n/a	n/a	-999	4	[6, 1, 1]	8	catFR1	0	R1616S
694.199	0.0	698798	STOP	n/a	n/a	n/a	n/a	-999	4	[-999, -999, -999]	n/a	catFR1	0	R1616S
694.199	1.066	698800	DISTRACT_END	n/a	n/a	n/a	n/a	-999	4	[0, 0, 0]	n/a	catFR1	0	R1616S
695.265	0.878	699862	REC_START	n/a	n/a	n/a	n/a	-999	4	[0, 0, 0]	n/a	catFR1	0	R1616S
696.143	0.811	700742	REC_WORD	0.811	n/a	PETUNIA	Flowers	10	4	[0, 0, 0]	n/a	catFR1	0	R1616S
696.954	2.346	701553	REC_WORD	2.346	n/a	VELVET	Fabric	-999	4	[0, 0, 0]	n/a	catFR1	0	R1616S
699.3	1.555	703899	REC_WORD	1.555	n/a	BARBIE	Toys	7	4	[0, 0, 0]	n/a	catFR1	0	R1616S
700.855	5.779	705454	REC_WORD	5.779	n/a	DOLLHOUSE	Toys	2	4	[0, 0, 0]	n/a	catFR1	0	R1616S
706.634	11.463	711233	REC_WORD_VV	11.463	n/a	<>	n/a	-999	4	[0, 0, 0]	n/a	catFR1	0	R1616S
718.097	0.753	722695	REC_WORD	0.753	n/a	VIOLET	Flowers	9	4	[0, 0, 0]	n/a	catFR1	0	R1616S
718.85	0.731	723448	REC_WORD	0.731	n/a	DOLLHOUSE	Toys	2	4	[0, 0, 0]	n/a	catFR1	0	R1616S
719.581	0.854	724179	REC_WORD	0.854	n/a	BARBIE	Toys	7	4	[0, 0, 0]	n/a	catFR1	0	R1616S
720.435	0.935	725033	REC_WORD	0.935	n/a	WALLET	n/a	-999	4	[0, 0, 0]	n/a	catFR1	0	R1616S
721.37	1.256	725968	REC_WORD	1.256	n/a	PETUNIA	Flowers	10	4	[0, 0, 0]	n/a	catFR1	0	R1616S
722.626	1.015	727224	REC_WORD	1.015	n/a	VELVET	Fabric	-999	4	[0, 0, 0]	n/a	catFR1	0	R1616S
723.641	2.85	728239	REC_WORD_VV	2.85	n/a	<>	n/a	-999	4	[0, 0, 0]	n/a	catFR1	0	R1616S
726.491	4.092	731089	REC_END	n/a	n/a	n/a	n/a	-999	4	[0, 0, 0]	n/a	catFR1	0	R1616S
730.583	10.35	735183	COUNTDOWN_START	n/a	n/a	n/a	n/a	-999	4	[0, 0, 0]	n/a	catFR1	0	R1616S
740.933	0.0	745536	COUNTDOWN_END	n/a	n/a	n/a	n/a	-999	4	[0, 0, 0]	n/a	catFR1	0	R1616S
740.933	2.1	745536	ENCODING_START	n/a	n/a	n/a	n/a	-999	5	[0, 0, 0]	n/a	catFR1	0	R1616S
743.033	1.599	747632	WORD	n/a	wordpools/wordpool_categorized_EN.txt	FISH	OceanAnimals	1	5	[0, 0, 0]	n/a	catFR1	0	R1616S
744.632	0.817	749224	WORD_OFF	n/a	n/a	FISH	OceanAnimals	1	5	[0, 0, 0]	n/a	catFR1	0	R1616S
745.449	1.6	750049	WORD	n/a	wordpools/wordpool_categorized_EN.txt	OCTOPUS	OceanAnimals	2	5	[0, 0, 0]	n/a	catFR1	0	R1616S
747.049	0.8	751641	WORD_OFF	n/a	n/a	OCTOPUS	OceanAnimals	2	5	[0, 0, 0]	n/a	catFR1	0	R1616S
747.849	1.6	752452	WORD	n/a	wordpools/wordpool_categorized_EN.txt	PLUM	Fruit	3	5	[0, 0, 0]	n/a	catFR1	0	R1616S
749.449	0.916	754045	WORD_OFF	n/a	n/a	PLUM	Fruit	3	5	[0, 0, 0]	n/a	catFR1	0	R1616S
750.365	1.601	754967	WORD	n/a	wordpools/wordpool_categorized_EN.txt	CHERRY	Fruit	4	5	[0, 0, 0]	n/a	catFR1	0	R1616S
751.966	0.866	756560	WORD_OFF	n/a	n/a	CHERRY	Fruit	4	5	[0, 0, 0]	n/a	catFR1	0	R1616S
752.832	1.601	757426	WORD	n/a	wordpools/wordpool_categorized_EN.txt	PINE	Trees	5	5	[0, 0, 0]	n/a	catFR1	0	R1616S
754.433	0.883	759033	WORD_OFF	n/a	n/a	PINE	Trees	5	5	[0, 0, 0]	n/a	catFR1	0	R1616S
755.316	1.6	759913	WORD	n/a	wordpools/wordpool_categorized_EN.txt	CYPRESS	Trees	6	5	[0, 0, 0]	n/a	catFR1	0	R1616S
756.916	0.782	761520	WORD_OFF	n/a	n/a	CYPRESS	Trees	6	5	[0, 0, 0]	n/a	catFR1	0	R1616S
757.698	1.601	762302	WORD	n/a	wordpools/wordpool_categorized_EN.txt	CRAB	OceanAnimals	7	5	[0, 0, 0]	n/a	catFR1	0	R1616S
759.299	0.884	763895	WORD_OFF	n/a	n/a	CRAB	OceanAnimals	7	5	[0, 0, 0]	n/a	catFR1	0	R1616S
760.183	1.599	764775	WORD	n/a	wordpools/wordpool_categorized_EN.txt	OYSTER	OceanAnimals	8	5	[0, 0, 0]	n/a	catFR1	0	R1616S
761.782	0.967	766382	WORD_OFF	n/a	n/a	OYSTER	OceanAnimals	8	5	[0, 0, 0]	n/a	catFR1	0	R1616S
762.749	1.617	767346	WORD	n/a	wordpools/wordpool_categorized_EN.txt	ELM	Trees	9	5	[0, 0, 0]	n/a	catFR1	0	R1616S
764.366	0.982	768966	WORD_OFF	n/a	n/a	ELM	Trees	9	5	[0, 0, 0]	n/a	catFR1	0	R1616S
765.348	1.6	769945	WORD	n/a	wordpools/wordpool_categorized_EN.txt	SPRUCE	Trees	10	5	[0, 0, 0]	n/a	catFR1	0	R1616S
766.948	0.901	771551	WORD_OFF	n/a	n/a	SPRUCE	Trees	10	5	[0, 0, 0]	n/a	catFR1	0	R1616S
767.849	1.617	772445	WORD	n/a	wordpools/wordpool_categorized_EN.txt	APPLE	Fruit	11	5	[0, 0, 0]	n/a	catFR1	0	R1616S
769.466	0.766	774066	WORD_OFF	n/a	n/a	APPLE	Fruit	11	5	[0, 0, 0]	n/a	catFR1	0	R1616S
770.232	1.617	774835	WORD	n/a	wordpools/wordpool_categorized_EN.txt	PEACH	Fruit	12	5	[0, 0, 0]	n/a	catFR1	0	R1616S
771.849	0.001	776441	WORD_OFF	n/a	n/a	PEACH	Fruit	12	5	[0, 0, 0]	n/a	catFR1	0	R1616S
771.85	0.0	776441	ENCODING_END	n/a	n/a	n/a	n/a	-999	5	[0, 0, 0]	n/a	catFR1	0	R1616S
771.849	0.002	776445	PROB	0.002	n/a	n/a	n/a	-999	5	[3, 1, 6]	10	catFR1	0	R1616S
771.851	0.0	776447	START	n/a	n/a	n/a	n/a	-999	5	[-999, -999, -999]	n/a	catFR1	0	R1616S
771.851	4.765	776455	DISTRACT_START	n/a	n/a	n/a	n/a	-999	5	[0, 0, 0]	n/a	catFR1	0	R1616S
776.616	3.867	781211	PROB	3.867	n/a	n/a	n/a	-999	5	[3, 3, 6]	12	catFR1	0	R1616S
780.483	3.399	785078	PROB	3.399	n/a	n/a	n/a	-999	5	[5, 1, 2]	8	catFR1	0	R1616S
783.882	7.318	788477	PROB	7.318	n/a	n/a	n/a	-999	5	[6, 6, 5]	17	catFR1	0	R1616S
791.2	4.649	795795	PROB	4.649	n/a	n/a	n/a	-999	5	[7, 7, 8]	22	catFR1	0	R1616S
795.849	0.0	800444	STOP	n/a	n/a	n/a	n/a	-999	5	[-999, -999, -999]	n/a	catFR1	0	R1616S
795.849	1.216	800445	DISTRACT_END	n/a	n/a	n/a	n/a	-999	5	[0, 0, 0]	n/a	catFR1	0	R1616S
797.065	1.783	801661	REC_START	n/a	n/a	n/a	n/a	-999	5	[0, 0, 0]	n/a	catFR1	0	R1616S
798.848	0.883	803442	REC_WORD	0.883	n/a	FISH	OceanAnimals	1	5	[0, 0, 0]	n/a	catFR1	0	R1616S
799.731	1.314	804325	REC_WORD	1.314	n/a	OCTOPUS	OceanAnimals	2	5	[0, 0, 0]	n/a	catFR1	0	R1616S
801.045	2.167	805639	REC_WORD	2.167	n/a	OAK	Trees	-999	5	[0, 0, 0]	n/a	catFR1	0	R1616S
803.212	2.094	807806	REC_WORD	2.094	n/a	MAPLE	Trees	-999	5	[0, 0, 0]	n/a	catFR1	0	R1616S
805.306	2.346	809900	REC_WORD	2.346	n/a	ELM	Trees	9	5	[0, 0, 0]	n/a	catFR1	0	R1616S
807.652	7.385	812246	REC_WORD	7.385	n/a	PINE	Trees	5	5	[0, 0, 0]	n/a	catFR1	0	R1616S
815.037	4.562	819631	REC_WORD	4.562	n/a	APPLE	Fruit	11	5	[0, 0, 0]	n/a	catFR1	0	R1616S
819.599	1.592	824192	REC_WORD	1.592	n/a	PLUM	Fruit	3	5	[0, 0, 0]	n/a	catFR1	0	R1616S
821.191	1.685	825784	REC_WORD_VV	1.685	n/a	<>	n/a	-999	5	[0, 0, 0]	n/a	catFR1	0	R1616S
822.876	2.122	827469	REC_WORD_VV	2.122	n/a	<>	n/a	-999	5	[0, 0, 0]	n/a	catFR1	0	R1616S
824.998	0.521	829591	REC_WORD_VV	0.521	n/a	<>	n/a	-999	5	[0, 0, 0]	n/a	catFR1	0	R1616S
825.519	2.782	830112	REC_WORD	2.782	n/a	PINE	Trees	5	5	[0, 0, 0]	n/a	catFR1	0	R1616S
828.301	2.88	832888	REC_END	n/a	n/a	n/a	n/a	-999	5	[0, 0, 0]	n/a	catFR1	0	R1616S
831.181	10.351	835780	COUNTDOWN_START	n/a	n/a	n/a	n/a	-999	5	[0, 0, 0]	n/a	catFR1	0	R1616S
841.532	0.0	846119	COUNTDOWN_END	n/a	n/a	n/a	n/a	-999	5	[0, 0, 0]	n/a	catFR1	0	R1616S
841.532	2.384	846133	ENCODING_START	n/a	n/a	n/a	n/a	-999	6	[0, 0, 0]	n/a	catFR1	0	R1616S
843.916	1.6	848508	WORD	n/a	wordpools/wordpool_categorized_EN.txt	TELEVISION	Electronics	1	6	[0, 0, 0]	n/a	catFR1	0	R1616S
845.516	0.933	850115	WORD_OFF	n/a	n/a	TELEVISION	Electronics	1	6	[0, 0, 0]	n/a	catFR1	0	R1616S
846.449	1.6	851037	WORD	n/a	wordpools/wordpool_categorized_EN.txt	HEADPHONES	Electronics	2	6	[0, 0, 0]	n/a	catFR1	0	R1616S
848.049	0.9	852644	WORD_OFF	n/a	n/a	HEADPHONES	Electronics	2	6	[0, 0, 0]	n/a	catFR1	0	R1616S
848.949	1.6	853538	WORD	n/a	wordpools/wordpool_categorized_EN.txt	FINGERS	BodyParts	3	6	[0, 0, 0]	n/a	catFR1	0	R1616S
850.549	0.817	855145	WORD_OFF	n/a	n/a	FINGERS	BodyParts	3	6	[0, 0, 0]	n/a	catFR1	0	R1616S
851.366	1.599	855955	WORD	n/a	wordpools/wordpool_categorized_EN.txt	ELBOW	BodyParts	4	6	[0, 0, 0]	n/a	catFR1	0	R1616S
852.965	0.967	857562	WORD_OFF	n/a	n/a	ELBOW	BodyParts	4	6	[0, 0, 0]	n/a	catFR1	0	R1616S
853.932	1.6	858526	WORD	n/a	wordpools/wordpool_categorized_EN.txt	CAKE	Desserts	5	6	[0, 0, 0]	n/a	catFR1	0	R1616S
855.532	0.95	860119	WORD_OFF	n/a	n/a	CAKE	Desserts	5	6	[0, 0, 0]	n/a	catFR1	0	R1616S
856.482	1.6	861069	WORD	n/a	wordpools/wordpool_categorized_EN.txt	FUDGE	Desserts	6	6	[0, 0, 0]	n/a	catFR1	0	R1616S
858.082	1.001	862675	WORD_OFF	n/a	n/a	FUDGE	Desserts	6	6	[0, 0, 0]	n/a	catFR1	0	R1616S
859.083	1.599	863681	WORD	n/a	wordpools/wordpool_categorized_EN.txt	EAR	BodyParts	7	6	[0, 0, 0]	n/a	catFR1	0	R1616S
860.682	0.901	865274	WORD_OFF	n/a	n/a	EAR	BodyParts	7	6	[0, 0, 0]	n/a	catFR1	0	R1616S
861.583	1.616	866168	WORD	n/a	wordpools/wordpool_categorized_EN.txt	HAND	BodyParts	8	6	[0, 0, 0]	n/a	catFR1	0	R1616S
863.199	0.767	867789	WORD_OFF	n/a	n/a	HAND	BodyParts	8	6	[0, 0, 0]	n/a	catFR1	0	R1616S
863.966	1.617	868558	WORD	n/a	wordpools/wordpool_categorized_EN.txt	PUDDING	Desserts	9	6	[0, 0, 0]	n/a	catFR1	0	R1616S
865.583	0.766	870178	WORD_OFF	n/a	n/a	PUDDING	Desserts	9	6	[0, 0, 0]	n/a	catFR1	0	R1616S
866.349	1.617	870947	WORD	n/a	wordpools/wordpool_categorized_EN.txt	COOKIE	Desserts	10	6	[0, 0, 0]	n/a	catFR1	0	R1616S
867.966	1.0	872554	WORD_OFF	n/a	n/a	COOKIE	Desserts	10	6	[0, 0, 0]	n/a	catFR1	0	R1616S
868.966	1.616	873560	WORD	n/a	wordpools/wordpool_categorized_EN.txt	TABLET	Electronics	11	6	[0, 0, 0]	n/a	catFR1	0	R1616S
870.582	1.0	875180	WORD_OFF	n/a	n/a	TABLET	Electronics	11	6	[0, 0, 0]	n/a	catFR1	0	R1616S
871.582	1.6	876172	WORD	n/a	wordpools/wordpool_categorized_EN.txt	STEREO	Electronics	12	6	[0, 0, 0]	n/a	catFR1	0	R1616S
873.182	0.001	877773	PROB	0.001	n/a	n/a	n/a	-999	6	[5, 3, 2]	10	catFR1	0	R1616S
873.183	0.0	877774	START	n/a	n/a	n/a	n/a	-999	6	[-999, -999, -999]	n/a	catFR1	0	R1616S
873.182	0.001	877779	WORD_OFF	n/a	n/a	STEREO	Electronics	12	6	[0, 0, 0]	n/a	catFR1	0	R1616S
873.183	0.0	877779	ENCODING_END	n/a	n/a	n/a	n/a	-999	6	[0, 0, 0]	n/a	catFR1	0	R1616S
873.183	4.933	877779	DISTRACT_START	n/a	n/a	n/a	n/a	-999	6	[0, 0, 0]	n/a	catFR1	0	R1616S
878.116	11.4	882707	PROB	11.4	n/a	n/a	n/a	-999	6	[1, 8, 5]	14	catFR1	0	R1616S
889.516	5.416	894106	PROB	5.416	n/a	n/a	n/a	-999	6	[6, 3, 4]	13	catFR1	0	R1616S
894.932	0.0	899519	DISTRACT_END	n/a	n/a	n/a	n/a	-999	6	[0, 0, 0]	n/a	catFR1	0	R1616S
894.932	1.334	899522	STOP	n/a	n/a	n/a	n/a	-999	6	[-999, -999, -999]	n/a	catFR1	0	R1616S
896.266	1.822	900860	REC_START	n/a	n/a	n/a	n/a	-999	6	[0, 0, 0]	n/a	catFR1	0	R1616S
898.088	2.15	902678	REC_WORD_VV	2.15	n/a	<>	n/a	-999	6	[0, 0, 0]	n/a	catFR1	0	R1616S
900.238	2.369	904828	REC_WORD	2.369	n/a	TELEVISION	Electronics	1	6	[0, 0, 0]	n/a	catFR1	0	R1616S
902.607	1.299	907196	REC_WORD	1.299	n/a	HAND	BodyParts	8	6	[0, 0, 0]	n/a	catFR1	0	R1616S
903.906	3.24	908495	REC_WORD	3.24	n/a	FINGERS	BodyParts	3	6	[0, 0, 0]	n/a	catFR1	0	R1616S
907.146	0.87	911735	REC_WORD_VV	0.87	n/a	<>	n/a	-999	6	[0, 0, 0]	n/a	catFR1	0	R1616S
908.016	1.776	912605	REC_WORD	1.776	n/a	CAKE	Desserts	5	6	[0, 0, 0]	n/a	catFR1	0	R1616S
909.792	2.376	914381	REC_WORD	2.376	n/a	PUDDING	Desserts	9	6	[0, 0, 0]	n/a	catFR1	0	R1616S
912.168	2.822	916757	REC_WORD_VV	2.822	n/a	<>	n/a	-999	6	[0, 0, 0]	n/a	catFR1	0	R1616S
914.99	0.488	919579	REC_WORD_VV	0.488	n/a	<>	n/a	-999	6	[0, 0, 0]	n/a	catFR1	0	R1616S
915.478	0.534	920067	REC_WORD	0.534	n/a	CAKE	Desserts	5	6	[0, 0, 0]	n/a	catFR1	0	R1616S
916.012	0.953	920601	REC_WORD	0.953	n/a	PUDDING	Desserts	9	6	[0, 0, 0]	n/a	catFR1	0	R1616S
916.965	2.674	921554	REC_WORD	2.674	n/a	FEET	n/a	-999	6	[0, 0, 0]	n/a	catFR1	0	R1616S
919.639	3.635	924228	REC_WORD_VV	3.635	n/a	<>	n/a	-999	6	[0, 0, 0]	n/a	catFR1	0	R1616S
923.274	0.245	927862	REC_WORD_VV	0.245	n/a	<>	n/a	-999	6	[0, 0, 0]	n/a	catFR1	0	R1616S
923.519	0.445	928107	REC_WORD	0.445	n/a	HAND	BodyParts	8	6	[0, 0, 0]	n/a	catFR1	0	R1616S
923.964	0.59	928552	REC_WORD	0.59	n/a	FINGERS	BodyParts	3	6	[0, 0, 0]	n/a	catFR1	0	R1616S
924.554	2.93	929142	REC_WORD	2.93	n/a	FEET	n/a	-999	6	[0, 0, 0]	n/a	catFR1	0	R1616S
927.484	2.265	932073	REC_END	n/a	n/a	n/a	n/a	-999	6	[0, 0, 0]	n/a	catFR1	0	R1616S
929.749	10.351	934337	COUNTDOWN_START	n/a	n/a	n/a	n/a	-999	6	[0, 0, 0]	n/a	catFR1	0	R1616S
940.1	0.0	944690	COUNTDOWN_END	n/a	n/a	n/a	n/a	-999	6	[0, 0, 0]	n/a	catFR1	0	R1616S
940.1	2.166	944690	ENCODING_START	n/a	n/a	n/a	n/a	-999	7	[0, 0, 0]	n/a	catFR1	0	R1616S
942.266	1.6	946856	WORD	n/a	wordpools/wordpool_categorized_EN.txt	ZEBRA	Zoo	1	7	[0, 0, 0]	n/a	catFR1	0	R1616S
943.866	0.816	948448	WORD_OFF	n/a	n/a	ZEBRA	Zoo	1	7	[0, 0, 0]	n/a	catFR1	0	R1616S
944.682	1.6	949273	WORD	n/a	wordpools/wordpool_categorized_EN.txt	PANDA	Zoo	2	7	[0, 0, 0]	n/a	catFR1	0	R1616S
946.282	0.917	950866	WORD_OFF	n/a	n/a	PANDA	Zoo	2	7	[0, 0, 0]	n/a	catFR1	0	R1616S
947.199	1.616	951788	WORD	n/a	wordpools/wordpool_categorized_EN.txt	SPEAKER	Electronics	3	7	[0, 0, 0]	n/a	catFR1	0	R1616S
948.815	0.901	953408	WORD_OFF	n/a	n/a	SPEAKER	Electronics	3	7	[0, 0, 0]	n/a	catFR1	0	R1616S
949.716	1.616	954303	WORD	n/a	wordpools/wordpool_categorized_EN.txt	COMPUTER	Electronics	4	7	[0, 0, 0]	n/a	catFR1	0	R1616S
951.332	0.967	955923	WORD_OFF	n/a	n/a	COMPUTER	Electronics	4	7	[0, 0, 0]	n/a	catFR1	0	R1616S
952.299	1.617	956887	WORD	n/a	wordpools/wordpool_categorized_EN.txt	PIE	Desserts	5	7	[0, 0, 0]	n/a	catFR1	0	R1616S
953.916	0.966	958508	WORD_OFF	n/a	n/a	PIE	Desserts	5	7	[0, 0, 0]	n/a	catFR1	0	R1616S
954.882	1.6	959472	WORD	n/a	wordpools/wordpool_categorized_EN.txt	BROWNIES	Desserts	6	7	[0, 0, 0]	n/a	catFR1	0	R1616S
956.482	0.817	961065	WORD_OFF	n/a	n/a	BROWNIES	Desserts	6	7	[0, 0, 0]	n/a	catFR1	0	R1616S
957.299	1.6	961889	WORD	n/a	wordpools/wordpool_categorized_EN.txt	PRINTER	Electronics	7	7	[0, 0, 0]	n/a	catFR1	0	R1616S
958.899	0.783	963482	WORD_OFF	n/a	n/a	PRINTER	Electronics	7	7	[0, 0, 0]	n/a	catFR1	0	R1616S
959.682	1.6	964265	WORD	n/a	wordpools/wordpool_categorized_EN.txt	RADIO	Electronics	8	7	[0, 0, 0]	n/a	catFR1	0	R1616S
961.282	0.949	965871	WORD_OFF	n/a	n/a	RADIO	Electronics	8	7	[0, 0, 0]	n/a	catFR1	0	R1616S
962.231	1.618	966821	WORD	n/a	wordpools/wordpool_categorized_EN.txt	ELEPHANT	Zoo	9	7	[0, 0, 0]	n/a	catFR1	0	R1616S
963.849	0.95	968442	WORD_OFF	n/a	n/a	ELEPHANT	Zoo	9	7	[0, 0, 0]	n/a	catFR1	0	R1616S
964.799	1.6	969392	WORD	n/a	wordpools/wordpool_categorized_EN.txt	MONKEY	Zoo	10	7	[0, 0, 0]	n/a	catFR1	0	R1616S
966.399	0.85	970985	WORD_OFF	n/a	n/a	MONKEY	Zoo	10	7	[0, 0, 0]	n/a	catFR1	0	R1616S
967.249	1.6	971837	WORD	n/a	wordpools/wordpool_categorized_EN.txt	PASTRY	Desserts	11	7	[0, 0, 0]	n/a	catFR1	0	R1616S
968.849	0.767	973430	WORD_OFF	n/a	n/a	PASTRY	Desserts	11	7	[0, 0, 0]	n/a	catFR1	0	R1616S
969.616	1.616	974198	WORD	n/a	wordpools/wordpool_categorized_EN.txt	CHEESECAKE	Desserts	12	7	[0, 0, 0]	n/a	catFR1	0	R1616S
971.232	0.0	975818	PROB	0.0	n/a	n/a	n/a	-999	7	[4, 6, 6]	16	catFR1	0	R1616S
971.232	0.002	975819	WORD_OFF	n/a	n/a	CHEESECAKE	Desserts	12	7	[0, 0, 0]	n/a	catFR1	0	R1616S
971.234	0.0	975820	START	n/a	n/a	n/a	n/a	-999	7	[-999, -999, -999]	n/a	catFR1	0	R1616S
971.234	0.0	975833	ENCODING_END	n/a	n/a	n/a	n/a	-999	7	[0, 0, 0]	n/a	catFR1	0	R1616S
971.234	4.517	975833	DISTRACT_START	n/a	n/a	n/a	n/a	-999	7	[0, 0, 0]	n/a	catFR1	0	R1616S
975.751	3.766	980337	PROB	3.766	n/a	n/a	n/a	-999	7	[5, 1, 2]	8	catFR1	0	R1616S
979.517	4.499	984103	PROB	4.499	n/a	n/a	n/a	-999	7	[7, 7, 8]	22	catFR1	0	R1616S
984.016	4.433	988602	PROB	4.433	n/a	n/a	n/a	-999	7	[8, 1, 4]	13	catFR1	0	R1616S
988.449	3.283	993034	PROB	3.283	n/a	n/a	n/a	-999	7	[4, 1, 5]	10	catFR1	0	R1616S
991.732	0.0	996316	DISTRACT_END	n/a	n/a	n/a	n/a	-999	7	[0, 0, 0]	n/a	catFR1	0	R1616S
991.732	1.067	996317	STOP	n/a	n/a	n/a	n/a	-999	7	[-999, -999, -999]	n/a	catFR1	0	R1616S
992.799	1.342	997378	REC_START	n/a	n/a	n/a	n/a	-999	7	[0, 0, 0]	n/a	catFR1	0	R1616S
994.141	0.685	998726	REC_WORD	0.685	n/a	PASTRY	Desserts	11	7	[0, 0, 0]	n/a	catFR1	0	R1616S
994.826	0.927	999411	REC_WORD	0.927	n/a	ZEBRA	Zoo	1	7	[0, 0, 0]	n/a	catFR1	0	R1616S
995.753	1.253	1000338	REC_WORD	1.253	n/a	CAKE	Desserts	-999	7	[0, 0, 0]	n/a	catFR1	0	R1616S
997.006	2.947	1001591	REC_WORD	2.947	n/a	BROWNIES	Desserts	6	7	[0, 0, 0]	n/a	catFR1	0	R1616S
999.953	1.369	1004538	REC_WORD_VV	1.369	n/a	<>	n/a	-999	7	[0, 0, 0]	n/a	catFR1	0	R1616S
1001.322	3.84	1005907	REC_WORD	3.84	n/a	CAKE	Desserts	-999	7	[0, 0, 0]	n/a	catFR1	0	R1616S
1005.162	6.326	1009747	REC_WORD	6.326	n/a	ZEBRA	Zoo	1	7	[0, 0, 0]	n/a	catFR1	0	R1616S
1011.488	3.614	1016072	REC_WORD_VV	3.614	n/a	<>	n/a	-999	7	[0, 0, 0]	n/a	catFR1	0	R1616S
1015.102	8.928	1019686	REC_WORD_VV	8.928	n/a	<>	n/a	-999	7	[0, 0, 0]	n/a	catFR1	0	R1616S
1024.03	1.818	1028619	REC_END	n/a	n/a	n/a	n/a	-999	7	[0, 0, 0]	n/a	catFR1	0	R1616S
1025.848	10.35	1030435	COUNTDOWN_START	n/a	n/a	n/a	n/a	-999	7	[0, 0, 0]	n/a	catFR1	0	R1616S
1036.198	0.0	1040788	COUNTDOWN_END	n/a	n/a	n/a	n/a	-999	7	[0, 0, 0]	n/a	catFR1	0	R1616S
1036.198	2.1	1040788	ENCODING_START	n/a	n/a	n/a	n/a	-999	8	[0, 0, 0]	n/a	catFR1	0	R1616S
1038.298	1.6	1042884	WORD	n/a	wordpools/wordpool_categorized_EN.txt	STOVE	Appliances	1	8	[0, 0, 0]	n/a	catFR1	0	R1616S
1039.898	0.801	1044477	WORD_OFF	n/a	n/a	STOVE	Appliances	1	8	[0, 0, 0]	n/a	catFR1	0	R1616S
1040.699	1.616	1045287	WORD	n/a	wordpools/wordpool_categorized_EN.txt	OVEN	Appliances	2	8	[0, 0, 0]	n/a	catFR1	0	R1616S
1042.315	0.867	1046894	WORD_OFF	n/a	n/a	OVEN	Appliances	2	8	[0, 0, 0]	n/a	catFR1	0	R1616S
1043.182	1.617	1047760	WORD	n/a	wordpools/wordpool_categorized_EN.txt	GUITAR	Instruments	3	8	[0, 0, 0]	n/a	catFR1	0	R1616S
1044.799	0.867	1049381	WORD_OFF	n/a	n/a	GUITAR	Instruments	3	8	[0, 0, 0]	n/a	catFR1	0	R1616S
1045.666	1.616	1050247	WORD	n/a	wordpools/wordpool_categorized_EN.txt	TRUMPET	Instruments	4	8	[0, 0, 0]	n/a	catFR1	0	R1616S
1047.282	0.8	1051868	WORD_OFF	n/a	n/a	TRUMPET	Instruments	4	8	[0, 0, 0]	n/a	catFR1	0	R1616S
1048.082	1.6	1052664	WORD	n/a	wordpools/wordpool_categorized_EN.txt	SOFA	Furniture	5	8	[0, 0, 0]	n/a	catFR1	0	R1616S
1049.682	0.934	1054271	WORD_OFF	n/a	n/a	SOFA	Furniture	5	8	[0, 0, 0]	n/a	catFR1	0	R1616S
1050.616	1.616	1055193	WORD	n/a	wordpools/wordpool_categorized_EN.txt	CABINET	Furniture	6	8	[0, 0, 0]	n/a	catFR1	0	R1616S
1052.232	0.833	1056814	WORD_OFF	n/a	n/a	CABINET	Furniture	6	8	[0, 0, 0]	n/a	catFR1	0	R1616S
1053.065	1.601	1057652	WORD	n/a	wordpools/wordpool_categorized_EN.txt	CELLO	Instruments	7	8	[0, 0, 0]	n/a	catFR1	0	R1616S
1054.666	0.833	1059245	WORD_OFF	n/a	n/a	CELLO	Instruments	7	8	[0, 0, 0]	n/a	catFR1	0	R1616S
1055.499	1.617	1060083	WORD	n/a	wordpools/wordpool_categorized_EN.txt	PIANO	Instruments	8	8	[0, 0, 0]	n/a	catFR1	0	R1616S
1057.116	1.0	1061704	WORD_OFF	n/a	n/a	PIANO	Instruments	8	8	[0, 0, 0]	n/a	catFR1	0	R1616S
1058.116	1.616	1062696	WORD	n/a	wordpools/wordpool_categorized_EN.txt	REFRIGERATOR	Appliances	9	8	[0, 0, 0]	n/a	catFR1	0	R1616S
1059.732	0.917	1064317	WORD_OFF	n/a	n/a	REFRIGERATOR	Appliances	9	8	[0, 0, 0]	n/a	catFR1	0	R1616S
1060.649	1.617	1065225	WORD	n/a	wordpools/wordpool_categorized_EN.txt	TOASTER	Appliances	10	8	[0, 0, 0]	n/a	catFR1	0	R1616S
1062.266	0.833	1066846	WORD_OFF	n/a	n/a	TOASTER	Appliances	10	8	[0, 0, 0]	n/a	catFR1	0	R1616S
1063.099	1.6	1067684	WORD	n/a	wordpools/wordpool_categorized_EN.txt	DRESSER	Furniture	11	8	[0, 0, 0]	n/a	catFR1	0	R1616S
1064.699	0.832	1069277	WORD_OFF	n/a	n/a	DRESSER	Furniture	11	8	[0, 0, 0]	n/a	catFR1	0	R1616S
1065.531	1.6	1070115	WORD	n/a	wordpools/wordpool_categorized_EN.txt	RECLINER	Furniture	12	8	[0, 0, 0]	n/a	catFR1	0	R1616S
1067.131	0.001	1071708	WORD_OFF	n/a	n/a	RECLINER	Furniture	12	8	[0, 0, 0]	n/a	catFR1	0	R1616S
1067.132	0.001	1071714	PROB	0.001	n/a	n/a	n/a	-999	8	[4, 6, 6]	16	catFR1	0	R1616S
1067.133	0.0	1071715	START	n/a	n/a	n/a	n/a	-999	8	[-999, -999, -999]	n/a	catFR1	0	R1616S
1067.133	0.0	1071722	ENCODING_END	n/a	n/a	n/a	n/a	-999	8	[0, 0, 0]	n/a	catFR1	0	R1616S
1067.133	4.284	1071722	DISTRACT_START	n/a	n/a	n/a	n/a	-999	8	[0, 0, 0]	n/a	catFR1	0	R1616S
1071.417	8.333	1075998	PROB	8.333	n/a	n/a	n/a	-999	8	[4, 7, 4]	15	catFR1	0	R1616S
1079.75	5.599	1084331	PROB	5.599	n/a	n/a	n/a	-999	8	[3, 3, 8]	14	catFR1	0	R1616S
1085.349	4.133	1089930	PROB	4.133	n/a	n/a	n/a	-999	8	[4, 2, 4]	10	catFR1	0	R1616S
1089.482	0.0	1094063	DISTRACT_END	n/a	n/a	n/a	n/a	-999	8	[0, 0, 0]	n/a	catFR1	0	R1616S
1089.482	1.316	1094063	STOP	n/a	n/a	n/a	n/a	-999	8	[-999, -999, -999]	n/a	catFR1	0	R1616S
1090.798	1.952	1095376	REC_START	n/a	n/a	n/a	n/a	-999	8	[0, 0, 0]	n/a	catFR1	0	R1616S
1092.75	0.864	1097330	REC_WORD	0.864	n/a	OVEN	Appliances	2	8	[0, 0, 0]	n/a	catFR1	0	R1616S
1093.614	0.723	1098194	REC_WORD	0.723	n/a	STOVE	Appliances	1	8	[0, 0, 0]	n/a	catFR1	0	R1616S
1094.337	2.314	1098917	REC_WORD	2.314	n/a	REFRIGERATOR	Appliances	9	8	[0, 0, 0]	n/a	catFR1	0	R1616S
1096.651	2.4	1101231	REC_WORD_VV	2.4	n/a	<>	n/a	-999	8	[0, 0, 0]	n/a	catFR1	0	R1616S
1099.051	6.451	1103631	REC_WORD	6.451	n/a	PIZZA	n/a	-999	8	[0, 0, 0]	n/a	catFR1	0	R1616S
1105.502	1.322	1110082	REC_WORD_VV	1.322	n/a	<>	n/a	-999	8	[0, 0, 0]	n/a	catFR1	0	R1616S
1106.824	7.448	1111404	REC_WORD_VV	7.448	n/a	<>	n/a	-999	8	[0, 0, 0]	n/a	catFR1	0	R1616S
1114.272	1.971	1118851	REC_WORD_VV	1.971	n/a	<>	n/a	-999	8	[0, 0, 0]	n/a	catFR1	0	R1616S
1116.243	0.592	1120822	REC_WORD	0.592	n/a	STOVE	Appliances	1	8	[0, 0, 0]	n/a	catFR1	0	R1616S
1116.835	5.186	1121414	REC_WORD_VV	5.186	n/a	<>	n/a	-999	8	[0, 0, 0]	n/a	catFR1	0	R1616S
1122.021	1.878	1126603	REC_END	n/a	n/a	n/a	n/a	-999	8	[0, 0, 0]	n/a	catFR1	0	R1616S
1123.899	10.349	1128475	COUNTDOWN_START	n/a	n/a	n/a	n/a	-999	8	[0, 0, 0]	n/a	catFR1	0	R1616S
1134.248	0.0	1138828	COUNTDOWN_END	n/a	n/a	n/a	n/a	-999	8	[0, 0, 0]	n/a	catFR1	0	R1616S
1134.248	2.117	1138828	ENCODING_START	n/a	n/a	n/a	n/a	-999	9	[0, 0, 0]	n/a	catFR1	0	R1616S
1136.365	1.6	1140938	WORD	n/a	wordpools/wordpool_categorized_EN.txt	TURTLE	OceanAnimals	1	9	[0, 0, 0]	n/a	catFR1	0	R1616S
1137.965	0.967	1142545	WORD_OFF	n/a	n/a	TURTLE	OceanAnimals	1	9	[0, 0, 0]	n/a	catFR1	0	R1616S
1138.932	1.601	1143509	WORD	n/a	wordpools/wordpool_categorized_EN.txt	PLANKTON	OceanAnimals	2	9	[0, 0, 0]	n/a	catFR1	0	R1616S
1140.533	1.0	1145116	WORD_OFF	n/a	n/a	PLANKTON	OceanAnimals	2	9	[0, 0, 0]	n/a	catFR1	0	R1616S
1141.533	1.616	1146108	WORD	n/a	wordpools/wordpool_categorized_EN.txt	BIKE	Vehicles	3	9	[0, 0, 0]	n/a	catFR1	0	R1616S
1143.149	0.983	1147728	WORD_OFF	n/a	n/a	BIKE	Vehicles	3	9	[0, 0, 0]	n/a	catFR1	0	R1616S
1144.132	1.617	1148706	WORD	n/a	wordpools/wordpool_categorized_EN.txt	PLANE	Vehicles	4	9	[0, 0, 0]	n/a	catFR1	0	R1616S
1145.749	0.85	1150327	WORD_OFF	n/a	n/a	PLANE	Vehicles	4	9	[0, 0, 0]	n/a	catFR1	0	R1616S
1146.599	1.616	1151180	WORD	n/a	wordpools/wordpool_categorized_EN.txt	CLOUD	Weather	5	9	[0, 0, 0]	n/a	catFR1	0	R1616S
1148.215	0.917	1152800	WORD_OFF	n/a	n/a	CLOUD	Weather	5	9	[0, 0, 0]	n/a	catFR1	0	R1616S
1149.132	1.616	1153708	WORD	n/a	wordpools/wordpool_categorized_EN.txt	THUNDERSTORM	Weather	6	9	[0, 0, 0]	n/a	catFR1	0	R1616S
1150.748	0.966	1155329	WORD_OFF	n/a	n/a	THUNDERSTORM	Weather	6	9	[0, 0, 0]	n/a	catFR1	0	R1616S
1151.714	1.601	1156293	WORD	n/a	wordpools/wordpool_categorized_EN.txt	DOLPHIN	OceanAnimals	7	9	[0, 0, 0]	n/a	catFR1	0	R1616S
1153.315	0.966	1157900	WORD_OFF	n/a	n/a	DOLPHIN	OceanAnimals	7	9	[0, 0, 0]	n/a	catFR1	0	R1616S
1154.281	1.601	1158864	WORD	n/a	wordpools/wordpool_categorized_EN.txt	SHRIMP	OceanAnimals	8	9	[0, 0, 0]	n/a	catFR1	0	R1616S
1155.882	0.867	1160457	WORD_OFF	n/a	n/a	SHRIMP	OceanAnimals	8	9	[0, 0, 0]	n/a	catFR1	0	R1616S
1156.749	1.6	1161323	WORD	n/a	wordpools/wordpool_categorized_EN.txt	FOG	Weather	9	9	[0, 0, 0]	n/a	catFR1	0	R1616S
1158.349	0.916	1162930	WORD_OFF	n/a	n/a	FOG	Weather	9	9	[0, 0, 0]	n/a	catFR1	0	R1616S
1159.265	1.601	1163838	WORD	n/a	wordpools/wordpool_categorized_EN.txt	HURRICANE	Weather	10	9	[0, 0, 0]	n/a	catFR1	0	R1616S
1160.866	0.9	1165445	WORD_OFF	n/a	n/a	HURRICANE	Weather	10	9	[0, 0, 0]	n/a	catFR1	0	R1616S
1161.766	1.6	1166339	WORD	n/a	wordpools/wordpool_categorized_EN.txt	TRUCK	Vehicles	11	9	[0, 0, 0]	n/a	catFR1	0	R1616S
1163.366	0.883	1167946	WORD_OFF	n/a	n/a	TRUCK	Vehicles	11	9	[0, 0, 0]	n/a	catFR1	0	R1616S
1164.249	1.616	1168826	WORD	n/a	wordpools/wordpool_categorized_EN.txt	MOPED	Vehicles	12	9	[0, 0, 0]	n/a	catFR1	0	R1616S
1165.865	0.002	1170442	PROB	0.002	n/a	n/a	n/a	-999	9	[3, 4, 5]	12	catFR1	0	R1616S
1165.867	0.0	1170444	START	n/a	n/a	n/a	n/a	-999	9	[-999, -999, -999]	n/a	catFR1	0	R1616S
1165.865	0.002	1170447	WORD_OFF	n/a	n/a	MOPED	Vehicles	12	9	[0, 0, 0]	n/a	catFR1	0	R1616S
1165.867	0.0	1170447	ENCODING_END	n/a	n/a	n/a	n/a	-999	9	[0, 0, 0]	n/a	catFR1	0	R1616S
1165.867	6.198	1170447	DISTRACT_START	n/a	n/a	n/a	n/a	-999	9	[0, 0, 0]	n/a	catFR1	0	R1616S
1172.065	4.018	1176642	PROB	4.018	n/a	n/a	n/a	-999	9	[1, 1, 5]	7	catFR1	0	R1616S
1176.083	5.549	1180659	PROB	5.549	n/a	n/a	n/a	-999	9	[6, 1, 5]	12	catFR1	0	R1616S
1181.632	5.05	1186208	PROB	5.05	n/a	n/a	n/a	-999	9	[1, 7, 6]	14	catFR1	0	R1616S
1186.682	0.0	1191258	STOP	n/a	n/a	n/a	n/a	-999	9	[-999, -999, -999]	n/a	catFR1	0	R1616S
1186.682	1.35	1191265	DISTRACT_END	n/a	n/a	n/a	n/a	-999	9	[0, 0, 0]	n/a	catFR1	0	R1616S
1188.032	0.646	1192606	REC_START	n/a	n/a	n/a	n/a	-999	9	[0, 0, 0]	n/a	catFR1	0	R1616S
1188.678	0.658	1193254	REC_WORD	0.658	n/a	TURTLE	OceanAnimals	1	9	[0, 0, 0]	n/a	catFR1	0	R1616S
1189.336	0.775	1193912	REC_WORD	0.775	n/a	PLANKTON	OceanAnimals	2	9	[0, 0, 0]	n/a	catFR1	0	R1616S
1190.111	0.712	1194687	REC_WORD	0.712	n/a	DOLPHIN	OceanAnimals	7	9	[0, 0, 0]	n/a	catFR1	0	R1616S
1190.823	1.846	1195399	REC_WORD	1.846	n/a	SEA	n/a	-999	9	[0, 0, 0]	n/a	catFR1	0	R1616S
1192.669	2.156	1197245	REC_WORD_VV	2.156	n/a	<>	n/a	-999	9	[0, 0, 0]	n/a	catFR1	0	R1616S
1194.825	1.4	1199401	REC_WORD_VV	1.4	n/a	<>	n/a	-999	9	[0, 0, 0]	n/a	catFR1	0	R1616S
1196.225	1.584	1200801	REC_WORD	1.584	n/a	HURRICANE	Weather	10	9	[0, 0, 0]	n/a	catFR1	0	R1616S
1197.809	1.363	1202384	REC_WORD	1.363	n/a	THUNDERSTORM	Weather	6	9	[0, 0, 0]	n/a	catFR1	0	R1616S
1199.172	10.262	1203747	REC_WORD	10.262	n/a	FOG	Weather	9	9	[0, 0, 0]	n/a	catFR1	0	R1616S
1209.434	4.91	1214009	REC_WORD_VV	4.91	n/a	<>	n/a	-999	9	[0, 0, 0]	n/a	catFR1	0	R1616S
1214.344	4.937	1218919	REC_WORD_VV	4.937	n/a	<>	n/a	-999	9	[0, 0, 0]	n/a	catFR1	0	R1616S
1219.281	2.218	1223861	REC_END	n/a	n/a	n/a	n/a	-999	9	[0, 0, 0]	n/a	catFR1	0	R1616S
1221.499	10.35	1226082	COUNTDOWN_START	n/a	n/a	n/a	n/a	-999	9	[0, 0, 0]	n/a	catFR1	0	R1616S
1231.849	0.0	1236422	COUNTDOWN_END	n/a	n/a	n/a	n/a	-999	9	[0, 0, 0]	n/a	catFR1	0	R1616S
1231.849	2.033	1236422	ENCODING_START	n/a	n/a	n/a	n/a	-999	10	[0, 0, 0]	n/a	catFR1	0	R1616S
1233.882	1.617	1238461	WORD	n/a	wordpools/wordpool_categorized_EN.txt	WIND	Weather	1	10	[0, 0, 0]	n/a	catFR1	0	R1616S
1235.499	1.0	1240068	WORD_OFF	n/a	n/a	WIND	Weather	1	10	[0, 0, 0]	n/a	catFR1	0	R1616S
1236.499	1.6	1241074	WORD	n/a	wordpools/wordpool_categorized_EN.txt	THUNDER	Weather	2	10	[0, 0, 0]	n/a	catFR1	0	R1616S
1238.099	0.85	1242681	WORD_OFF	n/a	n/a	THUNDER	Weather	2	10	[0, 0, 0]	n/a	catFR1	0	R1616S
1238.949	1.616	1243519	WORD	n/a	wordpools/wordpool_categorized_EN.txt	NYLON	Fabric	3	10	[0, 0, 0]	n/a	catFR1	0	R1616S
1240.565	0.8	1245140	WORD_OFF	n/a	n/a	NYLON	Fabric	3	10	[0, 0, 0]	n/a	catFR1	0	R1616S
1241.365	1.6	1245936	WORD	n/a	wordpools/wordpool_categorized_EN.txt	WOOL	Fabric	4	10	[0, 0, 0]	n/a	catFR1	0	R1616S
1242.965	0.968	1247543	WORD_OFF	n/a	n/a	WOOL	Fabric	4	10	[0, 0, 0]	n/a	catFR1	0	R1616S
1243.933	1.616	1248507	WORD	n/a	wordpools/wordpool_categorized_EN.txt	CALCULATOR	Electronics	5	10	[0, 0, 0]	n/a	catFR1	0	R1616S
1245.549	0.917	1250128	WORD_OFF	n/a	n/a	CALCULATOR	Electronics	5	10	[0, 0, 0]	n/a	catFR1	0	R1616S
1246.466	1.616	1251036	WORD	n/a	wordpools/wordpool_categorized_EN.txt	MICROWAVE	Electronics	6	10	[0, 0, 0]	n/a	catFR1	0	R1616S
1248.082	0.95	1252657	WORD_OFF	n/a	n/a	MICROWAVE	Electronics	6	10	[0, 0, 0]	n/a	catFR1	0	R1616S
1249.032	1.6	1253607	WORD	n/a	wordpools/wordpool_categorized_EN.txt	SILK	Fabric	7	10	[0, 0, 0]	n/a	catFR1	0	R1616S
1250.632	0.833	1255200	WORD_OFF	n/a	n/a	SILK	Fabric	7	10	[0, 0, 0]	n/a	catFR1	0	R1616S
1251.465	1.6	1256038	WORD	n/a	wordpools/wordpool_categorized_EN.txt	SPANDEX	Fabric	8	10	[0, 0, 0]	n/a	catFR1	0	R1616S
1253.065	0.851	1257645	WORD_OFF	n/a	n/a	SPANDEX	Fabric	8	10	[0, 0, 0]	n/a	catFR1	0	R1616S
1253.916	1.6	1258483	WORD	n/a	wordpools/wordpool_categorized_EN.txt	RAIN	Weather	9	10	[0, 0, 0]	n/a	catFR1	0	R1616S
1255.516	0.916	1260090	WORD_OFF	n/a	n/a	RAIN	Weather	9	10	[0, 0, 0]	n/a	catFR1	0	R1616S
1256.432	1.6	1261012	WORD	n/a	wordpools/wordpool_categorized_EN.txt	TORNADO	Weather	10	10	[0, 0, 0]	n/a	catFR1	0	R1616S
1258.032	0.817	1262605	WORD_OFF	n/a	n/a	TORNADO	Weather	10	10	[0, 0, 0]	n/a	catFR1	0	R1616S
1258.849	1.6	1263415	WORD	n/a	wordpools/wordpool_categorized_EN.txt	PHONE	Electronics	11	10	[0, 0, 0]	n/a	catFR1	0	R1616S
1260.449	0.766	1265022	WORD_OFF	n/a	n/a	PHONE	Electronics	11	10	[0, 0, 0]	n/a	catFR1	0	R1616S
1261.215	1.601	1265790	WORD	n/a	wordpools/wordpool_categorized_EN.txt	SCANNER	Electronics	12	10	[0, 0, 0]	n/a	catFR1	0	R1616S
1262.816	0.0	1267383	WORD_OFF	n/a	n/a	SCANNER	Electronics	12	10	[0, 0, 0]	n/a	catFR1	0	R1616S
1262.816	0.001	1267388	PROB	0.001	n/a	n/a	n/a	-999	10	[3, 6, 7]	16	catFR1	0	R1616S
1262.817	0.0	1267389	START	n/a	n/a	n/a	n/a	-999	10	[-999, -999, -999]	n/a	catFR1	0	R1616S
1262.817	0.0	1267397	ENCODING_END	n/a	n/a	n/a	n/a	-999	10	[0, 0, 0]	n/a	catFR1	0	R1616S
1262.817	5.232	1267397	DISTRACT_START	n/a	n/a	n/a	n/a	-999	10	[0, 0, 0]	n/a	catFR1	0	R1616S
1268.049	3.95	1272621	PROB	3.95	n/a	n/a	n/a	-999	10	[1, 5, 7]	13	catFR1	0	R1616S
1271.999	3.484	1276571	PROB	3.484	n/a	n/a	n/a	-999	10	[2, 3, 4]	9	catFR1	0	R1616S
1275.483	3.782	1280055	PROB	3.782	n/a	n/a	n/a	-999	10	[1, 4, 5]	10	catFR1	0	R1616S
1279.265	4.584	1283837	PROB	4.584	n/a	n/a	n/a	-999	10	[8, 6, 8]	22	catFR1	0	R1616S
1283.849	0.0	1288420	STOP	n/a	n/a	n/a	n/a	-999	10	[-999, -999, -999]	n/a	catFR1	0	R1616S
1283.849	1.067	1288425	DISTRACT_END	n/a	n/a	n/a	n/a	-999	10	[0, 0, 0]	n/a	catFR1	0	R1616S
1284.916	1.357	1289487	REC_START	n/a	n/a	n/a	n/a	-999	10	[0, 0, 0]	n/a	catFR1	0	R1616S
1286.273	0.321	1290844	REC_WORD_VV	0.321	n/a	<>	n/a	-999	10	[0, 0, 0]	n/a	catFR1	0	R1616S
1286.594	4.338	1291165	REC_WORD	4.338	n/a	NYLON	Fabric	3	10	[0, 0, 0]	n/a	catFR1	0	R1616S
1290.932	3.325	1295503	REC_WORD_VV	3.325	n/a	<>	n/a	-999	10	[0, 0, 0]	n/a	catFR1	0	R1616S
1294.257	1.823	1298828	REC_WORD	1.823	n/a	THUNDERSTORM	Weather	-999	10	[0, 0, 0]	n/a	catFR1	0	R1616S
1296.08	2.711	1300651	REC_WORD	2.711	n/a	WIND	Weather	1	10	[0, 0, 0]	n/a	catFR1	0	R1616S
1298.791	0.316	1303362	REC_WORD_VV	0.316	n/a	<>	n/a	-999	10	[0, 0, 0]	n/a	catFR1	0	R1616S
1299.107	8.143	1303678	REC_WORD	8.143	n/a	HURRICANE	Weather	-999	10	[0, 0, 0]	n/a	catFR1	0	R1616S
1307.25	1.565	1311820	REC_WORD_VV	1.565	n/a	<>	n/a	-999	10	[0, 0, 0]	n/a	catFR1	0	R1616S
1308.815	7.337	1313385	REC_WORD_VV	7.337	n/a	<>	n/a	-999	10	[0, 0, 0]	n/a	catFR1	0	R1616S
1316.152	5.247	1320728	REC_END	n/a	n/a	n/a	n/a	-999	10	[0, 0, 0]	n/a	catFR1	0	R1616S
1321.399	10.349	1325967	COUNTDOWN_START	n/a	n/a	n/a	n/a	-999	10	[0, 0, 0]	n/a	catFR1	0	R1616S
1331.748	0.0	1336320	COUNTDOWN_END	n/a	n/a	n/a	n/a	-999	10	[0, 0, 0]	n/a	catFR1	0	R1616S
1331.748	1.884	1336320	ENCODING_START	n/a	n/a	n/a	n/a	-999	11	[0, 0, 0]	n/a	catFR1	0	R1616S
1333.632	1.616	1338206	WORD	n/a	wordpools/wordpool_categorized_EN.txt	FOOT	BodyParts	1	11	[0, 0, 0]	n/a	catFR1	0	R1616S
1335.248	0.8	1339813	WORD_OFF	n/a	n/a	FOOT	BodyParts	1	11	[0, 0, 0]	n/a	catFR1	0	R1616S
1336.048	1.601	1340623	WORD	n/a	wordpools/wordpool_categorized_EN.txt	EYE	BodyParts	2	11	[0, 0, 0]	n/a	catFR1	0	R1616S
1337.649	0.916	1342216	WORD_OFF	n/a	n/a	EYE	BodyParts	2	11	[0, 0, 0]	n/a	catFR1	0	R1616S
1338.565	1.601	1343138	WORD	n/a	wordpools/wordpool_categorized_EN.txt	PUZZLE	Toys	3	11	[0, 0, 0]	n/a	catFR1	0	R1616S
1340.166	0.933	1344731	WORD_OFF	n/a	n/a	PUZZLE	Toys	3	11	[0, 0, 0]	n/a	catFR1	0	R1616S
1341.099	1.6	1345667	WORD	n/a	wordpools/wordpool_categorized_EN.txt	BLOCKS	Toys	4	11	[0, 0, 0]	n/a	catFR1	0	R1616S
1342.699	0.833	1347274	WORD_OFF	n/a	n/a	BLOCKS	Toys	4	11	[0, 0, 0]	n/a	catFR1	0	R1616S
1343.532	1.6	1348098	WORD	n/a	wordpools/wordpool_categorized_EN.txt	ORGAN	Instruments	5	11	[0, 0, 0]	n/a	catFR1	0	R1616S
1345.132	1.0	1349705	WORD_OFF	n/a	n/a	ORGAN	Instruments	5	11	[0, 0, 0]	n/a	catFR1	0	R1616S
1346.132	1.617	1350697	WORD	n/a	wordpools/wordpool_categorized_EN.txt	DRUM	Instruments	6	11	[0, 0, 0]	n/a	catFR1	0	R1616S
1347.749	0.867	1352318	WORD_OFF	n/a	n/a	DRUM	Instruments	6	11	[0, 0, 0]	n/a	catFR1	0	R1616S
1348.616	1.616	1353184	WORD	n/a	wordpools/wordpool_categorized_EN.txt	SLINKY	Toys	7	11	[0, 0, 0]	n/a	catFR1	0	R1616S
1350.232	0.816	1354805	WORD_OFF	n/a	n/a	SLINKY	Toys	7	11	[0, 0, 0]	n/a	catFR1	0	R1616S
1351.048	1.601	1355615	WORD	n/a	wordpools/wordpool_categorized_EN.txt	FOOTBALL	Toys	8	11	[0, 0, 0]	n/a	catFR1	0	R1616S
1352.649	0.966	1357222	WORD_OFF	n/a	n/a	FOOTBALL	Toys	8	11	[0, 0, 0]	n/a	catFR1	0	R1616S
1353.615	1.601	1358186	WORD	n/a	wordpools/wordpool_categorized_EN.txt	KNEE	BodyParts	9	11	[0, 0, 0]	n/a	catFR1	0	R1616S
1355.216	0.799	1359779	WORD_OFF	n/a	n/a	KNEE	BodyParts	9	11	[0, 0, 0]	n/a	catFR1	0	R1616S
1356.015	1.601	1360589	WORD	n/a	wordpools/wordpool_categorized_EN.txt	TOE	BodyParts	10	11	[0, 0, 0]	n/a	catFR1	0	R1616S
1357.616	0.983	1362182	WORD_OFF	n/a	n/a	TOE	BodyParts	10	11	[0, 0, 0]	n/a	catFR1	0	R1616S
1358.599	1.616	1363174	WORD	n/a	wordpools/wordpool_categorized_EN.txt	FLUTE	Instruments	11	11	[0, 0, 0]	n/a	catFR1	0	R1616S
1360.215	0.917	1364781	WORD_OFF	n/a	n/a	FLUTE	Instruments	11	11	[0, 0, 0]	n/a	catFR1	0	R1616S
1361.132	1.6	1365703	WORD	n/a	wordpools/wordpool_categorized_EN.txt	TUBA	Instruments	12	11	[0, 0, 0]	n/a	catFR1	0	R1616S
1362.732	0.002	1367296	WORD_OFF	n/a	n/a	TUBA	Instruments	12	11	[0, 0, 0]	n/a	catFR1	0	R1616S
1362.734	0.0	1367302	START	n/a	n/a	n/a	n/a	-999	11	[-999, -999, -999]	n/a	catFR1	0	R1616S
1362.734	0.0	1367302	PROB	0.0	n/a	n/a	n/a	-999	11	[1, 4, 1]	6	catFR1	0	R1616S
1362.734	0.0	1367310	ENCODING_END	n/a	n/a	n/a	n/a	-999	11	[0, 0, 0]	n/a	catFR1	0	R1616S
1362.734	3.116	1367310	DISTRACT_START	n/a	n/a	n/a	n/a	-999	11	[0, 0, 0]	n/a	catFR1	0	R1616S
1365.85	3.482	1370417	PROB	3.482	n/a	n/a	n/a	-999	11	[5, 2, 5]	12	catFR1	0	R1616S
1369.332	5.468	1373899	PROB	5.468	n/a	n/a	n/a	-999	11	[5, 2, 8]	15	catFR1	0	R1616S
1374.8	3.566	1379367	PROB	3.566	n/a	n/a	n/a	-999	11	[8, 2, 6]	16	catFR1	0	R1616S
1378.366	7.083	1382933	PROB	7.083	n/a	n/a	n/a	-999	11	[5, 2, 6]	13	catFR1	0	R1616S
1385.449	0.0	1390014	DISTRACT_END	n/a	n/a	n/a	n/a	-999	11	[0, 0, 0]	n/a	catFR1	0	R1616S
1385.449	1.116	1390016	STOP	n/a	n/a	n/a	n/a	-999	11	[-999, -999, -999]	n/a	catFR1	0	R1616S
1386.565	0.998	1391132	REC_START	n/a	n/a	n/a	n/a	-999	11	[0, 0, 0]	n/a	catFR1	0	R1616S
1387.563	0.974	1392129	REC_WORD	0.974	n/a	FLUTE	Instruments	11	11	[0, 0, 0]	n/a	catFR1	0	R1616S
1388.537	0.966	1393103	REC_WORD	0.966	n/a	ORGAN	Instruments	5	11	[0, 0, 0]	n/a	catFR1	0	R1616S
1389.503	1.999	1394069	REC_WORD	1.999	n/a	CELLO	Instruments	-999	11	[0, 0, 0]	n/a	catFR1	0	R1616S
1391.502	2.055	1396068	REC_WORD	2.055	n/a	FOOTBALL	Toys	8	11	[0, 0, 0]	n/a	catFR1	0	R1616S
1393.557	4.035	1398123	REC_WORD	4.035	n/a	FOOT	BodyParts	1	11	[0, 0, 0]	n/a	catFR1	0	R1616S
1397.592	1.9	1402158	REC_WORD_VV	1.9	n/a	<>	n/a	-999	11	[0, 0, 0]	n/a	catFR1	0	R1616S
1399.492	6.833	1404058	REC_WORD	6.833	n/a	TOE	BodyParts	10	11	[0, 0, 0]	n/a	catFR1	0	R1616S
1406.325	11.48	1410891	REC_WORD_VV	11.48	n/a	<>	n/a	-999	11	[0, 0, 0]	n/a	catFR1	0	R1616S
1417.805	2.444	1422373	REC_END	n/a	n/a	n/a	n/a	-999	11	[0, 0, 0]	n/a	catFR1	0	R1616S
1420.249	10.349	1424818	COUNTDOWN_START	n/a	n/a	n/a	n/a	-999	11	[0, 0, 0]	n/a	catFR1	0	R1616S
1430.598	0.001	1435157	COUNTDOWN_END	n/a	n/a	n/a	n/a	-999	11	[0, 0, 0]	n/a	catFR1	0	R1616S
1430.599	1.95	1435171	ENCODING_START	n/a	n/a	n/a	n/a	-999	12	[0, 0, 0]	n/a	catFR1	0	R1616S
1432.549	1.6	1437113	WORD	n/a	wordpools/wordpool_categorized_EN.txt	BALL	Toys	1	12	[0, 0, 0]	n/a	catFR1	0	R1616S
1434.149	0.967	1438720	WORD_OFF	n/a	n/a	BALL	Toys	1	12	[0, 0, 0]	n/a	catFR1	0	R1616S
1435.116	1.6	1439684	WORD	n/a	wordpools/wordpool_categorized_EN.txt	MARBLES	Toys	2	12	[0, 0, 0]	n/a	catFR1	0	R1616S
1436.716	0.766	1441276	WORD_OFF	n/a	n/a	MARBLES	Toys	2	12	[0, 0, 0]	n/a	catFR1	0	R1616S
1437.482	1.601	1442045	WORD	n/a	wordpools/wordpool_categorized_EN.txt	MOTORCYCLE	Vehicles	3	12	[0, 0, 0]	n/a	catFR1	0	R1616S
1439.083	0.799	1443652	WORD_OFF	n/a	n/a	MOTORCYCLE	Vehicles	3	12	[0, 0, 0]	n/a	catFR1	0	R1616S
1439.882	1.6	1444448	WORD	n/a	wordpools/wordpool_categorized_EN.txt	VAN	Vehicles	4	12	[0, 0, 0]	n/a	catFR1	0	R1616S
1441.482	0.917	1446041	WORD_OFF	n/a	n/a	VAN	Vehicles	4	12	[0, 0, 0]	n/a	catFR1	0	R1616S
1442.399	1.6	1446963	WORD	n/a	wordpools/wordpool_categorized_EN.txt	CIDER	Beverages	5	12	[0, 0, 0]	n/a	catFR1	0	R1616S
1443.999	0.983	1448570	WORD_OFF	n/a	n/a	CIDER	Beverages	5	12	[0, 0, 0]	n/a	catFR1	0	R1616S
1444.982	1.617	1449548	WORD	n/a	wordpools/wordpool_categorized_EN.txt	SODA	Beverages	6	12	[0, 0, 0]	n/a	catFR1	0	R1616S
1446.599	0.834	1451168	WORD_OFF	n/a	n/a	SODA	Beverages	6	12	[0, 0, 0]	n/a	catFR1	0	R1616S
1447.433	1.599	1451993	WORD	n/a	wordpools/wordpool_categorized_EN.txt	DOLL	Toys	7	12	[0, 0, 0]	n/a	catFR1	0	R1616S
1449.032	0.884	1453600	WORD_OFF	n/a	n/a	DOLL	Toys	7	12	[0, 0, 0]	n/a	catFR1	0	R1616S
1449.916	1.6	1454480	WORD	n/a	wordpools/wordpool_categorized_EN.txt	BASKETBALL	Toys	8	12	[0, 0, 0]	n/a	catFR1	0	R1616S
1451.516	0.966	1456086	WORD_OFF	n/a	n/a	BASKETBALL	Toys	8	12	[0, 0, 0]	n/a	catFR1	0	R1616S
1452.482	1.617	1457051	WORD	n/a	wordpools/wordpool_categorized_EN.txt	SCOOTER	Vehicles	9	12	[0, 0, 0]	n/a	catFR1	0	R1616S
1454.099	0.8	1458657	WORD_OFF	n/a	n/a	SCOOTER	Vehicles	9	12	[0, 0, 0]	n/a	catFR1	0	R1616S
1454.899	1.6	1459468	WORD	n/a	wordpools/wordpool_categorized_EN.txt	CAR	Vehicles	10	12	[0, 0, 0]	n/a	catFR1	0	R1616S
1456.499	0.95	1461060	WORD_OFF	n/a	n/a	CAR	Vehicles	10	12	[0, 0, 0]	n/a	catFR1	0	R1616S
1457.449	1.6	1462011	WORD	n/a	wordpools/wordpool_categorized_EN.txt	LEMONADE	Beverages	11	12	[0, 0, 0]	n/a	catFR1	0	R1616S
1459.049	0.817	1463617	WORD_OFF	n/a	n/a	LEMONADE	Beverages	11	12	[0, 0, 0]	n/a	catFR1	0	R1616S
1459.866	1.6	1464428	WORD	n/a	wordpools/wordpool_categorized_EN.txt	WATER	Beverages	12	12	[0, 0, 0]	n/a	catFR1	0	R1616S
1461.466	0.001	1466029	PROB	0.001	n/a	n/a	n/a	-999	12	[5, 8, 8]	21	catFR1	0	R1616S
1461.467	0.0	1466030	START	n/a	n/a	n/a	n/a	-999	12	[-999, -999, -999]	n/a	catFR1	0	R1616S
1461.466	0.001	1466034	WORD_OFF	n/a	n/a	WATER	Beverages	12	12	[0, 0, 0]	n/a	catFR1	0	R1616S
1461.467	0.0	1466034	ENCODING_END	n/a	n/a	n/a	n/a	-999	12	[0, 0, 0]	n/a	catFR1	0	R1616S
1461.467	6.05	1466034	DISTRACT_START	n/a	n/a	n/a	n/a	-999	12	[0, 0, 0]	n/a	catFR1	0	R1616S
1467.517	4.432	1472080	PROB	4.432	n/a	n/a	n/a	-999	12	[7, 7, 5]	19	catFR1	0	R1616S
1471.949	3.3	1476511	PROB	3.3	n/a	n/a	n/a	-999	12	[2, 5, 2]	9	catFR1	0	R1616S
1475.249	4.2	1479811	PROB	4.2	n/a	n/a	n/a	-999	12	[7, 4, 7]	18	catFR1	0	R1616S
1479.449	4.3	1484011	PROB	4.3	n/a	n/a	n/a	-999	12	[1, 5, 7]	13	catFR1	0	R1616S
1483.749	0.0	1488306	DISTRACT_END	n/a	n/a	n/a	n/a	-999	12	[0, 0, 0]	n/a	catFR1	0	R1616S
1483.749	1.216	1488311	STOP	n/a	n/a	n/a	n/a	-999	12	[-999, -999, -999]	n/a	catFR1	0	R1616S
1484.965	2.651	1489521	REC_START	n/a	n/a	n/a	n/a	-999	12	[0, 0, 0]	n/a	catFR1	0	R1616S
1487.616	0.77	1492178	REC_WORD	0.77	n/a	FLUTE	Instruments	-999	12	[0, 0, 0]	n/a	catFR1	0	R1616S
1488.386	2.273	1492948	REC_WORD	2.273	n/a	MARBLES	Toys	2	12	[0, 0, 0]	n/a	catFR1	0	R1616S
1490.659	1.051	1495221	REC_WORD	1.051	n/a	FOOTBALL	Toys	-999	12	[0, 0, 0]	n/a	catFR1	0	R1616S
1491.71	3.234	1496271	REC_WORD	3.234	n/a	BASKETBALL	Toys	8	12	[0, 0, 0]	n/a	catFR1	0	R1616S
1494.944	8.914	1499505	REC_WORD_VV	8.914	n/a	<>	n/a	-999	12	[0, 0, 0]	n/a	catFR1	0	R1616S
1503.858	12.33	1508419	REC_WORD_VV	12.33	n/a	<>	n/a	-999	12	[0, 0, 0]	n/a	catFR1	0	R1616S
1516.188	0.0	1520748	REC_END	n/a	n/a	n/a	n/a	-999	12	[0, 0, 0]	n/a	catFR1	0	R1616S
