onset	duration	sample	trial_type	response_time	stim_file	item_name	category	serialpos	list	test	answer	experiment	session	subject
0.0	0.498	2874	INSTRUCT_START	n/a	n/a	n/a	n/a	-999	-999	[0, 0, 0]	n/a	catFR1	2	R1347D
0.498	15.532	3370	INSTRUCT_END	n/a	n/a	n/a	n/a	-999	-999	[0, 0, 0]	n/a	catFR1	2	R1347D
16.03	10.35	18904	COUNTDOWN_START	n/a	n/a	n/a	n/a	-999	-999	[0, 0, 0]	n/a	catFR1	2	R1347D
26.38	0.001	29252	COUNTDOWN_END	n/a	n/a	n/a	n/a	-999	-999	[0, 0, 0]	n/a	catFR1	2	R1347D
26.381	1.866	29252	ENCODING_START	n/a	n/a	n/a	n/a	-999	-1	[0, 0, 0]	n/a	catFR1	2	R1347D
28.247	1.615	31124	WORD	n/a	n/a	SILK	Materials	1	-1	[0, 0, 0]	n/a	catFR1	2	R1347D
29.862	0.784	32736	WORD_OFF	n/a	n/a	SILK	Materials	1	-1	[0, 0, 0]	n/a	catFR1	2	R1347D
30.646	1.617	33513	WORD	n/a	n/a	WOOL	Materials	2	-1	[0, 0, 0]	n/a	catFR1	2	R1347D
32.263	0.85	35137	WORD_OFF	n/a	n/a	WOOL	Materials	2	-1	[0, 0, 0]	n/a	catFR1	2	R1347D
33.113	1.6	35982	WORD	n/a	n/a	TEACHER	Professions	3	-1	[0, 0, 0]	n/a	catFR1	2	R1347D
34.713	0.8	37583	WORD_OFF	n/a	n/a	TEACHER	Professions	3	-1	[0, 0, 0]	n/a	catFR1	2	R1347D
35.513	1.6	38383	WORD	n/a	n/a	FARMER	Professions	4	-1	[0, 0, 0]	n/a	catFR1	2	R1347D
37.113	1.0	39984	WORD_OFF	n/a	n/a	FARMER	Professions	4	-1	[0, 0, 0]	n/a	catFR1	2	R1347D
38.113	1.6	40987	WORD	n/a	n/a	DAY	Times	5	-1	[0, 0, 0]	n/a	catFR1	2	R1347D
39.713	0.934	42588	WORD_OFF	n/a	n/a	DAY	Times	5	-1	[0, 0, 0]	n/a	catFR1	2	R1347D
40.647	1.616	43524	WORD	n/a	n/a	HOUR	Times	6	-1	[0, 0, 0]	n/a	catFR1	2	R1347D
42.263	0.884	45136	WORD_OFF	n/a	n/a	HOUR	Times	6	-1	[0, 0, 0]	n/a	catFR1	2	R1347D
43.147	1.616	46015	WORD	n/a	n/a	PLUMBER	Professions	7	-1	[0, 0, 0]	n/a	catFR1	2	R1347D
44.763	1.0	47638	WORD_OFF	n/a	n/a	PLUMBER	Professions	7	-1	[0, 0, 0]	n/a	catFR1	2	R1347D
45.763	1.6	48630	WORD	n/a	n/a	FIREMAN	Professions	8	-1	[0, 0, 0]	n/a	catFR1	2	R1347D
47.363	0.967	50231	WORD_OFF	n/a	n/a	FIREMAN	Professions	8	-1	[0, 0, 0]	n/a	catFR1	2	R1347D
48.33	1.616	51200	WORD	n/a	n/a	MINUTE	Times	9	-1	[0, 0, 0]	n/a	catFR1	2	R1347D
49.946	1.001	52812	WORD_OFF	n/a	n/a	MINUTE	Times	9	-1	[0, 0, 0]	n/a	catFR1	2	R1347D
50.947	1.616	53816	WORD	n/a	n/a	SECOND	Times	10	-1	[0, 0, 0]	n/a	catFR1	2	R1347D
52.563	0.767	55439	WORD_OFF	n/a	n/a	SECOND	Times	10	-1	[0, 0, 0]	n/a	catFR1	2	R1347D
53.33	1.6	56205	WORD	n/a	n/a	DENIM	Materials	11	-1	[0, 0, 0]	n/a	catFR1	2	R1347D
54.93	0.917	57797	WORD_OFF	n/a	n/a	DENIM	Materials	11	-1	[0, 0, 0]	n/a	catFR1	2	R1347D
55.847	1.616	58719	WORD	n/a	n/a	LEATHER	Materials	12	-1	[0, 0, 0]	n/a	catFR1	2	R1347D
57.463	0.001	60331	WORD_OFF	n/a	n/a	LEATHER	Materials	12	-1	[0, 0, 0]	n/a	catFR1	2	R1347D
57.464	0.003	60334	PROB	27.032	n/a	n/a	n/a	-999	-1	[7, 8, 3]	18.0	catFR1	2	R1347D
57.467	0.0	60337	START	n/a	n/a	n/a	n/a	-999	-1	[-999, -999, -999]	n/a	catFR1	2	R1347D
57.466	0.001	60342	ENCODING_END	n/a	n/a	n/a	n/a	-999	-1	[0, 0, 0]	n/a	catFR1	2	R1347D
57.467	27.048	60342	DISTRACT_START	n/a	n/a	n/a	n/a	-999	-1	[0, 0, 0]	n/a	catFR1	2	R1347D
84.515	0.0	87383	STOP	n/a	n/a	n/a	n/a	-999	-1	[-999, -999, -999]	n/a	catFR1	2	R1347D
84.515	1.215	87386	DISTRACT_END	n/a	n/a	n/a	n/a	-999	-1	[0, 0, 0]	n/a	catFR1	2	R1347D
85.73	3.765	88603	REC_START	n/a	n/a	n/a	n/a	-999	-1	[0, 0, 0]	n/a	catFR1	2	R1347D
89.495	0.223	92363	REC_WORD	3.765	n/a	WOOL	Materials	2	-1	[0, 0, 0]	n/a	catFR1	2	R1347D
89.718	3.158	92586	REC_WORD	3.988	n/a	FIREMAN	Professions	8	-1	[0, 0, 0]	n/a	catFR1	2	R1347D
92.876	1.732	95744	REC_WORD_VV	7.146	n/a	<>	n/a	-999	-1	[0, 0, 0]	n/a	catFR1	2	R1347D
94.608	21.399	97476	REC_WORD	8.878	n/a	TEACHER	Professions	3	-1	[0, 0, 0]	n/a	catFR1	2	R1347D
116.007	6.089	118870	REC_END	n/a	n/a	n/a	n/a	-999	-1	[0, 0, 0]	n/a	catFR1	2	R1347D
122.096	10.351	124969	COUNTDOWN_START	n/a	n/a	n/a	n/a	-999	1	[0, 0, 0]	n/a	catFR1	2	R1347D
132.447	0.0	135317	COUNTDOWN_END	n/a	n/a	n/a	n/a	-999	1	[0, 0, 0]	n/a	catFR1	2	R1347D
132.447	2.35	135317	ENCODING_START	n/a	n/a	n/a	n/a	-999	1	[0, 0, 0]	n/a	catFR1	2	R1347D
134.797	1.6	137662	WORD	n/a	wordpools/wordpool_categorized_EN.txt	SOFA	Furniture	1	1	[0, 0, 0]	n/a	catFR1	2	R1347D
136.397	0.899	139263	WORD_OFF	n/a	n/a	SOFA	Furniture	1	1	[0, 0, 0]	n/a	catFR1	2	R1347D
137.296	1.601	140165	WORD	n/a	wordpools/wordpool_categorized_EN.txt	DESK	Furniture	2	1	[0, 0, 0]	n/a	catFR1	2	R1347D
138.897	0.933	141765	WORD_OFF	n/a	n/a	DESK	Furniture	2	1	[0, 0, 0]	n/a	catFR1	2	R1347D
139.83	1.6	142701	WORD	n/a	wordpools/wordpool_categorized_EN.txt	BEAR	Zoo	3	1	[0, 0, 0]	n/a	catFR1	2	R1347D
141.43	0.883	144290	WORD_OFF	n/a	n/a	BEAR	Zoo	3	1	[0, 0, 0]	n/a	catFR1	2	R1347D
142.313	1.6	145181	WORD	n/a	wordpools/wordpool_categorized_EN.txt	MONKEY	Zoo	4	1	[0, 0, 0]	n/a	catFR1	2	R1347D
143.913	0.884	146782	WORD_OFF	n/a	n/a	MONKEY	Zoo	4	1	[0, 0, 0]	n/a	catFR1	2	R1347D
144.797	1.6	147661	WORD	n/a	wordpools/wordpool_categorized_EN.txt	ROOF	Building	5	1	[0, 0, 0]	n/a	catFR1	2	R1347D
146.397	1.0	149262	WORD_OFF	n/a	n/a	ROOF	Building	5	1	[0, 0, 0]	n/a	catFR1	2	R1347D
147.397	1.616	150265	WORD	n/a	wordpools/wordpool_categorized_EN.txt	WINDOW	Building	6	1	[0, 0, 0]	n/a	catFR1	2	R1347D
149.013	0.866	151877	WORD_OFF	n/a	n/a	WINDOW	Building	6	1	[0, 0, 0]	n/a	catFR1	2	R1347D
149.879	1.601	152745	WORD	n/a	wordpools/wordpool_categorized_EN.txt	CHIMPANZEE	Zoo	7	1	[0, 0, 0]	n/a	catFR1	2	R1347D
151.48	0.983	154346	WORD_OFF	n/a	n/a	CHIMPANZEE	Zoo	7	1	[0, 0, 0]	n/a	catFR1	2	R1347D
152.463	1.617	155326	WORD	n/a	wordpools/wordpool_categorized_EN.txt	LION	Zoo	8	1	[0, 0, 0]	n/a	catFR1	2	R1347D
154.08	0.867	156950	WORD_OFF	n/a	n/a	LION	Zoo	8	1	[0, 0, 0]	n/a	catFR1	2	R1347D
154.947	1.615	157818	WORD	n/a	wordpools/wordpool_categorized_EN.txt	STAIRS	Building	9	1	[0, 0, 0]	n/a	catFR1	2	R1347D
156.562	0.835	159430	WORD_OFF	n/a	n/a	STAIRS	Building	9	1	[0, 0, 0]	n/a	catFR1	2	R1347D
157.397	1.616	160264	WORD	n/a	wordpools/wordpool_categorized_EN.txt	ATTIC	Building	10	1	[0, 0, 0]	n/a	catFR1	2	R1347D
159.013	0.867	161876	WORD_OFF	n/a	n/a	ATTIC	Building	10	1	[0, 0, 0]	n/a	catFR1	2	R1347D
159.88	1.6	162744	WORD	n/a	wordpools/wordpool_categorized_EN.txt	DRESSER	Furniture	11	1	[0, 0, 0]	n/a	catFR1	2	R1347D
161.48	0.9	164345	WORD_OFF	n/a	n/a	DRESSER	Furniture	11	1	[0, 0, 0]	n/a	catFR1	2	R1347D
162.38	1.617	165246	WORD	n/a	wordpools/wordpool_categorized_EN.txt	NIGHTSTAND	Furniture	12	1	[0, 0, 0]	n/a	catFR1	2	R1347D
163.997	0.001	166858	WORD_OFF	n/a	n/a	NIGHTSTAND	Furniture	12	1	[0, 0, 0]	n/a	catFR1	2	R1347D
163.998	0.0	166858	ENCODING_END	n/a	n/a	n/a	n/a	-999	1	[0, 0, 0]	n/a	catFR1	2	R1347D
163.998	0.0	166862	START	n/a	n/a	n/a	n/a	-999	1	[-999, -999, -999]	n/a	catFR1	2	R1347D
163.998	0.0	166862	PROB	11.649	n/a	n/a	n/a	-999	1	[2, 7, 2]	11.0	catFR1	2	R1347D
163.998	11.666	166870	DISTRACT_START	n/a	n/a	n/a	n/a	-999	1	[0, 0, 0]	n/a	catFR1	2	R1347D
175.664	5.066	178528	PROB	5.049	n/a	n/a	n/a	-999	1	[1, 6, 3]	10.0	catFR1	2	R1347D
180.73	3.85	183594	PROB	3.833	n/a	n/a	n/a	-999	1	[2, 2, 2]	6.0	catFR1	2	R1347D
184.58	0.0	187442	DISTRACT_END	n/a	n/a	n/a	n/a	-999	1	[0, 0, 0]	n/a	catFR1	2	R1347D
184.58	1.383	187443	STOP	n/a	n/a	n/a	n/a	-999	1	[-999, -999, -999]	n/a	catFR1	2	R1347D
185.963	2.521	188829	REC_START	n/a	n/a	n/a	n/a	-999	1	[0, 0, 0]	n/a	catFR1	2	R1347D
188.484	5.528	191347	REC_WORD	2.521	n/a	WOLF	n/a	-999	1	[0, 0, 0]	n/a	catFR1	2	R1347D
194.012	1.53	196875	REC_WORD	8.049	n/a	STAIRS	Building	9	1	[0, 0, 0]	n/a	catFR1	2	R1347D
195.542	0.976	198405	REC_WORD	9.579	n/a	LION	Zoo	8	1	[0, 0, 0]	n/a	catFR1	2	R1347D
196.518	19.701	199381	REC_WORD	10.555	n/a	TEACHER	Professions	-999	1	[0, 0, 0]	n/a	catFR1	2	R1347D
216.219	3.295	219085	REC_END	n/a	n/a	n/a	n/a	-999	1	[0, 0, 0]	n/a	catFR1	2	R1347D
219.514	10.35	222376	COUNTDOWN_START	n/a	n/a	n/a	n/a	-999	2	[0, 0, 0]	n/a	catFR1	2	R1347D
229.864	0.0	232725	COUNTDOWN_END	n/a	n/a	n/a	n/a	-999	2	[0, 0, 0]	n/a	catFR1	2	R1347D
229.864	1.966	232725	ENCODING_START	n/a	n/a	n/a	n/a	-999	2	[0, 0, 0]	n/a	catFR1	2	R1347D
231.83	1.599	234686	WORD	n/a	wordpools/wordpool_categorized_EN.txt	CUCUMBER	Vegetables	1	2	[0, 0, 0]	n/a	catFR1	2	R1347D
233.429	0.918	236287	WORD_OFF	n/a	n/a	CUCUMBER	Vegetables	1	2	[0, 0, 0]	n/a	catFR1	2	R1347D
234.347	1.6	237211	WORD	n/a	wordpools/wordpool_categorized_EN.txt	POTATO	Vegetables	2	2	[0, 0, 0]	n/a	catFR1	2	R1347D
235.947	0.8	238812	WORD_OFF	n/a	n/a	POTATO	Vegetables	2	2	[0, 0, 0]	n/a	catFR1	2	R1347D
236.747	1.6	239612	WORD	n/a	wordpools/wordpool_categorized_EN.txt	CIDER	Beverages	3	2	[0, 0, 0]	n/a	catFR1	2	R1347D
238.347	1.0	241213	WORD_OFF	n/a	n/a	CIDER	Beverages	3	2	[0, 0, 0]	n/a	catFR1	2	R1347D
239.347	1.6	242205	WORD	n/a	wordpools/wordpool_categorized_EN.txt	MILK	Beverages	4	2	[0, 0, 0]	n/a	catFR1	2	R1347D
240.947	0.866	243806	WORD_OFF	n/a	n/a	MILK	Beverages	4	2	[0, 0, 0]	n/a	catFR1	2	R1347D
241.813	1.617	244674	WORD	n/a	wordpools/wordpool_categorized_EN.txt	WHISK	Kitchentools	5	2	[0, 0, 0]	n/a	catFR1	2	R1347D
243.43	0.867	246286	WORD_OFF	n/a	n/a	WHISK	Kitchentools	5	2	[0, 0, 0]	n/a	catFR1	2	R1347D
244.297	1.6	247154	WORD	n/a	wordpools/wordpool_categorized_EN.txt	GRATER	Kitchentools	6	2	[0, 0, 0]	n/a	catFR1	2	R1347D
245.897	0.882	248755	WORD_OFF	n/a	n/a	GRATER	Kitchentools	6	2	[0, 0, 0]	n/a	catFR1	2	R1347D
246.779	1.601	249645	WORD	n/a	wordpools/wordpool_categorized_EN.txt	SPINACH	Vegetables	7	2	[0, 0, 0]	n/a	catFR1	2	R1347D
248.38	0.9	251235	WORD_OFF	n/a	n/a	SPINACH	Vegetables	7	2	[0, 0, 0]	n/a	catFR1	2	R1347D
249.28	1.617	252136	WORD	n/a	wordpools/wordpool_categorized_EN.txt	BROCCOLI	Vegetables	8	2	[0, 0, 0]	n/a	catFR1	2	R1347D
250.897	0.782	253760	WORD_OFF	n/a	n/a	BROCCOLI	Vegetables	8	2	[0, 0, 0]	n/a	catFR1	2	R1347D
251.679	1.601	254538	WORD	n/a	wordpools/wordpool_categorized_EN.txt	PEELER	Kitchentools	9	2	[0, 0, 0]	n/a	catFR1	2	R1347D
253.28	0.949	256138	WORD_OFF	n/a	n/a	PEELER	Kitchentools	9	2	[0, 0, 0]	n/a	catFR1	2	R1347D
254.229	1.6	257085	WORD	n/a	wordpools/wordpool_categorized_EN.txt	COLANDER	Kitchentools	10	2	[0, 0, 0]	n/a	catFR1	2	R1347D
255.829	0.767	258686	WORD_OFF	n/a	n/a	COLANDER	Kitchentools	10	2	[0, 0, 0]	n/a	catFR1	2	R1347D
256.596	1.617	259452	WORD	n/a	wordpools/wordpool_categorized_EN.txt	SODA	Beverages	11	2	[0, 0, 0]	n/a	catFR1	2	R1347D
258.213	0.917	261076	WORD_OFF	n/a	n/a	SODA	Beverages	11	2	[0, 0, 0]	n/a	catFR1	2	R1347D
259.13	1.599	261989	WORD	n/a	wordpools/wordpool_categorized_EN.txt	BEER	Beverages	12	2	[0, 0, 0]	n/a	catFR1	2	R1347D
260.729	0.002	263590	WORD_OFF	n/a	n/a	BEER	Beverages	12	2	[0, 0, 0]	n/a	catFR1	2	R1347D
260.731	0.0	263590	ENCODING_END	n/a	n/a	n/a	n/a	-999	2	[0, 0, 0]	n/a	catFR1	2	R1347D
260.731	0.0	263590	DISTRACT_START	n/a	n/a	n/a	n/a	-999	2	[0, 0, 0]	n/a	catFR1	2	R1347D
260.73	0.001	263590	PROB	8.266	n/a	n/a	n/a	-999	2	[1, 7, 1]	9.0	catFR1	2	R1347D
260.731	8.283	263591	START	n/a	n/a	n/a	n/a	-999	2	[-999, -999, -999]	n/a	catFR1	2	R1347D
269.014	5.782	271873	PROB	5.766	n/a	n/a	n/a	-999	2	[8, 2, 3]	13.0	catFR1	2	R1347D
274.796	11.55	277655	PROB	11.533	n/a	n/a	n/a	-999	2	[8, 3, 5]	16.0	catFR1	2	R1347D
286.346	0.0	289201	DISTRACT_END	n/a	n/a	n/a	n/a	-999	2	[0, 0, 0]	n/a	catFR1	2	R1347D
286.346	1.183	289204	STOP	n/a	n/a	n/a	n/a	-999	2	[-999, -999, -999]	n/a	catFR1	2	R1347D
287.529	4.58	290385	REC_START	n/a	n/a	n/a	n/a	-999	2	[0, 0, 0]	n/a	catFR1	2	R1347D
292.109	3.29	294967	REC_WORD	4.58	n/a	PEELER	Kitchentools	9	2	[0, 0, 0]	n/a	catFR1	2	R1347D
295.399	15.054	298257	REC_WORD	7.87	n/a	POTATO	Vegetables	2	2	[0, 0, 0]	n/a	catFR1	2	R1347D
310.453	7.349	313310	REC_WORD	22.924	n/a	SOFA	Furniture	-999	2	[0, 0, 0]	n/a	catFR1	2	R1347D
317.802	2.578	320663	REC_END	n/a	n/a	n/a	n/a	-999	2	[0, 0, 0]	n/a	catFR1	2	R1347D
320.38	10.35	323233	COUNTDOWN_START	n/a	n/a	n/a	n/a	-999	3	[0, 0, 0]	n/a	catFR1	2	R1347D
330.73	0.0	333582	COUNTDOWN_END	n/a	n/a	n/a	n/a	-999	3	[0, 0, 0]	n/a	catFR1	2	R1347D
330.73	2.283	333593	ENCODING_START	n/a	n/a	n/a	n/a	-999	3	[0, 0, 0]	n/a	catFR1	2	R1347D
333.013	1.617	335870	WORD	n/a	wordpools/wordpool_categorized_EN.txt	FINCH	Birds	1	3	[0, 0, 0]	n/a	catFR1	2	R1347D
334.63	0.999	337482	WORD_OFF	n/a	n/a	FINCH	Birds	1	3	[0, 0, 0]	n/a	catFR1	2	R1347D
335.629	1.601	338485	WORD	n/a	wordpools/wordpool_categorized_EN.txt	DOVE	Birds	2	3	[0, 0, 0]	n/a	catFR1	2	R1347D
337.23	0.999	340086	WORD_OFF	n/a	n/a	DOVE	Birds	2	3	[0, 0, 0]	n/a	catFR1	2	R1347D
338.229	1.601	341089	WORD	n/a	wordpools/wordpool_categorized_EN.txt	SLINKY	Toys	3	3	[0, 0, 0]	n/a	catFR1	2	R1347D
339.83	0.867	342690	WORD_OFF	n/a	n/a	SLINKY	Toys	3	3	[0, 0, 0]	n/a	catFR1	2	R1347D
340.697	1.616	343558	WORD	n/a	wordpools/wordpool_categorized_EN.txt	BASKETBALL	Toys	4	3	[0, 0, 0]	n/a	catFR1	2	R1347D
342.313	0.783	345170	WORD_OFF	n/a	n/a	BASKETBALL	Toys	4	3	[0, 0, 0]	n/a	catFR1	2	R1347D
343.096	1.601	345948	WORD	n/a	wordpools/wordpool_categorized_EN.txt	FUDGE	Desserts	5	3	[0, 0, 0]	n/a	catFR1	2	R1347D
344.697	0.95	347549	WORD_OFF	n/a	n/a	FUDGE	Desserts	5	3	[0, 0, 0]	n/a	catFR1	2	R1347D
345.647	1.616	348507	WORD	n/a	wordpools/wordpool_categorized_EN.txt	CAKE	Desserts	6	3	[0, 0, 0]	n/a	catFR1	2	R1347D
347.263	0.9	350119	WORD_OFF	n/a	n/a	CAKE	Desserts	6	3	[0, 0, 0]	n/a	catFR1	2	R1347D
348.163	1.601	351021	WORD	n/a	wordpools/wordpool_categorized_EN.txt	CROW	Birds	7	3	[0, 0, 0]	n/a	catFR1	2	R1347D
349.764	0.883	352621	WORD_OFF	n/a	n/a	CROW	Birds	7	3	[0, 0, 0]	n/a	catFR1	2	R1347D
350.647	1.6	353501	WORD	n/a	wordpools/wordpool_categorized_EN.txt	HAWK	Birds	8	3	[0, 0, 0]	n/a	catFR1	2	R1347D
352.247	0.8	355101	WORD_OFF	n/a	n/a	HAWK	Birds	8	3	[0, 0, 0]	n/a	catFR1	2	R1347D
353.047	1.616	355902	WORD	n/a	wordpools/wordpool_categorized_EN.txt	PUZZLE	Toys	9	3	[0, 0, 0]	n/a	catFR1	2	R1347D
354.663	0.8	357514	WORD_OFF	n/a	n/a	PUZZLE	Toys	9	3	[0, 0, 0]	n/a	catFR1	2	R1347D
355.463	1.6	358314	WORD	n/a	wordpools/wordpool_categorized_EN.txt	BLOCKS	Toys	10	3	[0, 0, 0]	n/a	catFR1	2	R1347D
357.063	1.0	359915	WORD_OFF	n/a	n/a	BLOCKS	Toys	10	3	[0, 0, 0]	n/a	catFR1	2	R1347D
358.063	1.616	360918	WORD	n/a	wordpools/wordpool_categorized_EN.txt	MOUSSE	Desserts	11	3	[0, 0, 0]	n/a	catFR1	2	R1347D
359.679	0.851	362530	WORD_OFF	n/a	n/a	MOUSSE	Desserts	11	3	[0, 0, 0]	n/a	catFR1	2	R1347D
360.53	1.616	363387	WORD	n/a	wordpools/wordpool_categorized_EN.txt	CHEESECAKE	Desserts	12	3	[0, 0, 0]	n/a	catFR1	2	R1347D
362.146	0.001	364999	WORD_OFF	n/a	n/a	CHEESECAKE	Desserts	12	3	[0, 0, 0]	n/a	catFR1	2	R1347D
362.147	0.001	365002	PROB	12.199	n/a	n/a	n/a	-999	3	[3, 7, 3]	13.0	catFR1	2	R1347D
362.148	0.0	365003	ENCODING_END	n/a	n/a	n/a	n/a	-999	3	[0, 0, 0]	n/a	catFR1	2	R1347D
362.148	0.0	365003	START	n/a	n/a	n/a	n/a	-999	3	[-999, -999, -999]	n/a	catFR1	2	R1347D
362.148	12.216	365010	DISTRACT_START	n/a	n/a	n/a	n/a	-999	3	[0, 0, 0]	n/a	catFR1	2	R1347D
374.364	16.633	377218	PROB	16.616	n/a	n/a	n/a	-999	3	[2, 1, 2]	5.0	catFR1	2	R1347D
390.997	0.0	393846	DISTRACT_END	n/a	n/a	n/a	n/a	-999	3	[0, 0, 0]	n/a	catFR1	2	R1347D
390.997	1.383	393850	STOP	n/a	n/a	n/a	n/a	-999	3	[-999, -999, -999]	n/a	catFR1	2	R1347D
392.38	8.474	395232	REC_START	n/a	n/a	n/a	n/a	-999	3	[0, 0, 0]	n/a	catFR1	2	R1347D
400.854	0.74	403707	REC_WORD	8.474	n/a	CROW	Birds	7	3	[0, 0, 0]	n/a	catFR1	2	R1347D
401.594	21.074	404447	REC_WORD	9.214	n/a	CAKE	Desserts	6	3	[0, 0, 0]	n/a	catFR1	2	R1347D
422.668	5.012	425522	REC_END	n/a	n/a	n/a	n/a	-999	3	[0, 0, 0]	n/a	catFR1	2	R1347D
427.68	10.35	430538	COUNTDOWN_START	n/a	n/a	n/a	n/a	-999	4	[0, 0, 0]	n/a	catFR1	2	R1347D
438.03	0.0	440876	COUNTDOWN_END	n/a	n/a	n/a	n/a	-999	4	[0, 0, 0]	n/a	catFR1	2	R1347D
438.03	2.2	440887	ENCODING_START	n/a	n/a	n/a	n/a	-999	4	[0, 0, 0]	n/a	catFR1	2	R1347D
440.23	1.6	443085	WORD	n/a	wordpools/wordpool_categorized_EN.txt	PETUNIA	Flowers	1	4	[0, 0, 0]	n/a	catFR1	2	R1347D
441.83	0.916	444686	WORD_OFF	n/a	n/a	PETUNIA	Flowers	1	4	[0, 0, 0]	n/a	catFR1	2	R1347D
442.746	1.6	445599	WORD	n/a	wordpools/wordpool_categorized_EN.txt	SUNFLOWER	Flowers	2	4	[0, 0, 0]	n/a	catFR1	2	R1347D
444.346	0.8	447200	WORD_OFF	n/a	n/a	SUNFLOWER	Flowers	2	4	[0, 0, 0]	n/a	catFR1	2	R1347D
445.146	1.617	448000	WORD	n/a	wordpools/wordpool_categorized_EN.txt	HAND	Bodyparts	3	4	[0, 0, 0]	n/a	catFR1	2	R1347D
446.763	0.833	449612	WORD_OFF	n/a	n/a	HAND	Bodyparts	3	4	[0, 0, 0]	n/a	catFR1	2	R1347D
447.596	1.617	450446	WORD	n/a	wordpools/wordpool_categorized_EN.txt	HEAD	Bodyparts	4	4	[0, 0, 0]	n/a	catFR1	2	R1347D
449.213	0.833	452058	WORD_OFF	n/a	n/a	HEAD	Bodyparts	4	4	[0, 0, 0]	n/a	catFR1	2	R1347D
450.046	1.617	452892	WORD	n/a	wordpools/wordpool_categorized_EN.txt	MOPED	Vehicles	5	4	[0, 0, 0]	n/a	catFR1	2	R1347D
451.663	0.95	454516	WORD_OFF	n/a	n/a	MOPED	Vehicles	5	4	[0, 0, 0]	n/a	catFR1	2	R1347D
452.613	1.616	455462	WORD	n/a	wordpools/wordpool_categorized_EN.txt	BIKE	Vehicles	6	4	[0, 0, 0]	n/a	catFR1	2	R1347D
454.229	0.934	457074	WORD_OFF	n/a	n/a	BIKE	Vehicles	6	4	[0, 0, 0]	n/a	catFR1	2	R1347D
455.163	1.6	458010	WORD	n/a	wordpools/wordpool_categorized_EN.txt	NOSE	Bodyparts	7	4	[0, 0, 0]	n/a	catFR1	2	R1347D
456.763	0.966	459611	WORD_OFF	n/a	n/a	NOSE	Bodyparts	7	4	[0, 0, 0]	n/a	catFR1	2	R1347D
457.729	1.617	460580	WORD	n/a	wordpools/wordpool_categorized_EN.txt	TOE	Bodyparts	8	4	[0, 0, 0]	n/a	catFR1	2	R1347D
459.346	0.967	462192	WORD_OFF	n/a	n/a	TOE	Bodyparts	8	4	[0, 0, 0]	n/a	catFR1	2	R1347D
460.313	1.616	463162	WORD	n/a	wordpools/wordpool_categorized_EN.txt	MARIGOLD	Flowers	9	4	[0, 0, 0]	n/a	catFR1	2	R1347D
461.929	0.867	464785	WORD_OFF	n/a	n/a	MARIGOLD	Flowers	9	4	[0, 0, 0]	n/a	catFR1	2	R1347D
462.796	1.6	465642	WORD	n/a	wordpools/wordpool_categorized_EN.txt	LILY	Flowers	10	4	[0, 0, 0]	n/a	catFR1	2	R1347D
464.396	0.933	467242	WORD_OFF	n/a	n/a	LILY	Flowers	10	4	[0, 0, 0]	n/a	catFR1	2	R1347D
465.329	1.617	468178	WORD	n/a	wordpools/wordpool_categorized_EN.txt	BOAT	Vehicles	11	4	[0, 0, 0]	n/a	catFR1	2	R1347D
466.946	0.983	469801	WORD_OFF	n/a	n/a	BOAT	Vehicles	11	4	[0, 0, 0]	n/a	catFR1	2	R1347D
467.929	1.601	470782	WORD	n/a	wordpools/wordpool_categorized_EN.txt	TRAIN	Vehicles	12	4	[0, 0, 0]	n/a	catFR1	2	R1347D
469.53	0.001	472379	PROB	21.967	n/a	n/a	n/a	-999	4	[5, 4, 8]	17.0	catFR1	2	R1347D
469.531	0.0	472380	START	n/a	n/a	n/a	n/a	-999	4	[-999, -999, -999]	n/a	catFR1	2	R1347D
469.529	0.002	472383	WORD_OFF	n/a	n/a	TRAIN	Vehicles	12	4	[0, 0, 0]	n/a	catFR1	2	R1347D
469.531	0.0	472383	ENCODING_END	n/a	n/a	n/a	n/a	-999	4	[0, 0, 0]	n/a	catFR1	2	R1347D
469.531	21.984	472383	DISTRACT_START	n/a	n/a	n/a	n/a	-999	4	[0, 0, 0]	n/a	catFR1	2	R1347D
491.515	0.0	494363	STOP	n/a	n/a	n/a	n/a	-999	4	[-999, -999, -999]	n/a	catFR1	2	R1347D
491.515	1.148	494365	DISTRACT_END	n/a	n/a	n/a	n/a	-999	4	[0, 0, 0]	n/a	catFR1	2	R1347D
492.663	7.485	495514	REC_START	n/a	n/a	n/a	n/a	-999	4	[0, 0, 0]	n/a	catFR1	2	R1347D
500.148	0.723	502996	REC_WORD	7.485	n/a	HAND	Bodyparts	3	4	[0, 0, 0]	n/a	catFR1	2	R1347D
500.871	2.074	503719	REC_WORD	8.208	n/a	HEAD	Bodyparts	4	4	[0, 0, 0]	n/a	catFR1	2	R1347D
502.945	16.217	505793	REC_WORD	10.282	n/a	MOPED	Vehicles	5	4	[0, 0, 0]	n/a	catFR1	2	R1347D
519.162	3.764	522009	REC_WORD	26.499	n/a	PETUNIA	Flowers	1	4	[0, 0, 0]	n/a	catFR1	2	R1347D
522.926	5.104	525770	REC_END	n/a	n/a	n/a	n/a	-999	4	[0, 0, 0]	n/a	catFR1	2	R1347D
528.03	10.35	530877	COUNTDOWN_START	n/a	n/a	n/a	n/a	-999	5	[0, 0, 0]	n/a	catFR1	2	R1347D
538.38	0.0	541225	COUNTDOWN_END	n/a	n/a	n/a	n/a	-999	5	[0, 0, 0]	n/a	catFR1	2	R1347D
538.38	1.916	541225	ENCODING_START	n/a	n/a	n/a	n/a	-999	5	[0, 0, 0]	n/a	catFR1	2	R1347D
540.296	1.6	543142	WORD	n/a	wordpools/wordpool_categorized_EN.txt	CARNATION	Flowers	1	5	[0, 0, 0]	n/a	catFR1	2	R1347D
541.896	0.9	544742	WORD_OFF	n/a	n/a	CARNATION	Flowers	1	5	[0, 0, 0]	n/a	catFR1	2	R1347D
542.796	1.6	545644	WORD	n/a	wordpools/wordpool_categorized_EN.txt	LILAC	Flowers	2	5	[0, 0, 0]	n/a	catFR1	2	R1347D
544.396	0.917	547245	WORD_OFF	n/a	n/a	LILAC	Flowers	2	5	[0, 0, 0]	n/a	catFR1	2	R1347D
545.313	1.6	548158	WORD	n/a	wordpools/wordpool_categorized_EN.txt	CABINET	Furniture	3	5	[0, 0, 0]	n/a	catFR1	2	R1347D
546.913	0.85	549759	WORD_OFF	n/a	n/a	CABINET	Furniture	3	5	[0, 0, 0]	n/a	catFR1	2	R1347D
547.763	1.6	550604	WORD	n/a	wordpools/wordpool_categorized_EN.txt	RECLINER	Furniture	4	5	[0, 0, 0]	n/a	catFR1	2	R1347D
549.363	0.767	552205	WORD_OFF	n/a	n/a	RECLINER	Furniture	4	5	[0, 0, 0]	n/a	catFR1	2	R1347D
550.13	1.616	552971	WORD	n/a	wordpools/wordpool_categorized_EN.txt	LADYBUG	Insects	5	5	[0, 0, 0]	n/a	catFR1	2	R1347D
551.746	0.767	554595	WORD_OFF	n/a	n/a	LADYBUG	Insects	5	5	[0, 0, 0]	n/a	catFR1	2	R1347D
552.513	1.6	555361	WORD	n/a	wordpools/wordpool_categorized_EN.txt	BEETLE	Insects	6	5	[0, 0, 0]	n/a	catFR1	2	R1347D
554.113	0.883	556962	WORD_OFF	n/a	n/a	BEETLE	Insects	6	5	[0, 0, 0]	n/a	catFR1	2	R1347D
554.996	1.6	557841	WORD	n/a	wordpools/wordpool_categorized_EN.txt	ORCHID	Flowers	7	5	[0, 0, 0]	n/a	catFR1	2	R1347D
556.596	0.983	559442	WORD_OFF	n/a	n/a	ORCHID	Flowers	7	5	[0, 0, 0]	n/a	catFR1	2	R1347D
557.579	1.617	560423	WORD	n/a	wordpools/wordpool_categorized_EN.txt	VIOLET	Flowers	8	5	[0, 0, 0]	n/a	catFR1	2	R1347D
559.196	0.933	562046	WORD_OFF	n/a	n/a	VIOLET	Flowers	8	5	[0, 0, 0]	n/a	catFR1	2	R1347D
560.129	1.617	562970	WORD	n/a	wordpools/wordpool_categorized_EN.txt	MOSQUITO	Insects	9	5	[0, 0, 0]	n/a	catFR1	2	R1347D
561.746	0.966	564594	WORD_OFF	n/a	n/a	MOSQUITO	Insects	9	5	[0, 0, 0]	n/a	catFR1	2	R1347D
562.712	1.6	565552	WORD	n/a	wordpools/wordpool_categorized_EN.txt	SPIDER	Insects	10	5	[0, 0, 0]	n/a	catFR1	2	R1347D
564.312	1.0	567153	WORD_OFF	n/a	n/a	SPIDER	Insects	10	5	[0, 0, 0]	n/a	catFR1	2	R1347D
565.312	1.6	568156	WORD	n/a	wordpools/wordpool_categorized_EN.txt	TABLE	Furniture	11	5	[0, 0, 0]	n/a	catFR1	2	R1347D
566.912	0.801	569757	WORD_OFF	n/a	n/a	TABLE	Furniture	11	5	[0, 0, 0]	n/a	catFR1	2	R1347D
567.713	1.6	570557	WORD	n/a	wordpools/wordpool_categorized_EN.txt	CHAIR	Furniture	12	5	[0, 0, 0]	n/a	catFR1	2	R1347D
569.313	0.0	572157	PROB	18.799	n/a	n/a	n/a	-999	5	[5, 4, 1]	10.0	catFR1	2	R1347D
569.313	0.002	572158	WORD_OFF	n/a	n/a	CHAIR	Furniture	12	5	[0, 0, 0]	n/a	catFR1	2	R1347D
569.315	0.0	572158	ENCODING_END	n/a	n/a	n/a	n/a	-999	5	[0, 0, 0]	n/a	catFR1	2	R1347D
569.315	0.0	572158	DISTRACT_START	n/a	n/a	n/a	n/a	-999	5	[0, 0, 0]	n/a	catFR1	2	R1347D
569.315	18.815	572159	START	n/a	n/a	n/a	n/a	-999	5	[-999, -999, -999]	n/a	catFR1	2	R1347D
588.13	10.118	590973	PROB	10.1	n/a	n/a	n/a	-999	5	[6, 2, 4]	12.0	catFR1	2	R1347D
598.248	0.0	601091	STOP	n/a	n/a	n/a	n/a	-999	5	[-999, -999, -999]	n/a	catFR1	2	R1347D
598.248	1.031	601095	DISTRACT_END	n/a	n/a	n/a	n/a	-999	5	[0, 0, 0]	n/a	catFR1	2	R1347D
599.279	9.406	602121	REC_START	n/a	n/a	n/a	n/a	-999	5	[0, 0, 0]	n/a	catFR1	2	R1347D
608.685	13.375	611527	REC_WORD	9.406	n/a	ORCHID	Flowers	7	5	[0, 0, 0]	n/a	catFR1	2	R1347D
622.06	7.506	624902	REC_WORD	22.781	n/a	VIOLET	Flowers	8	5	[0, 0, 0]	n/a	catFR1	2	R1347D
629.566	2.681	632410	REC_END	n/a	n/a	n/a	n/a	-999	5	[0, 0, 0]	n/a	catFR1	2	R1347D
632.247	10.35	635093	COUNTDOWN_START	n/a	n/a	n/a	n/a	-999	6	[0, 0, 0]	n/a	catFR1	2	R1347D
642.597	0.0	645442	COUNTDOWN_END	n/a	n/a	n/a	n/a	-999	6	[0, 0, 0]	n/a	catFR1	2	R1347D
642.597	2.233	645442	ENCODING_START	n/a	n/a	n/a	n/a	-999	6	[0, 0, 0]	n/a	catFR1	2	R1347D
644.83	1.6	647674	WORD	n/a	wordpools/wordpool_categorized_EN.txt	TURTLE	Oceananimals	1	6	[0, 0, 0]	n/a	catFR1	2	R1347D
646.43	0.783	649274	WORD_OFF	n/a	n/a	TURTLE	Oceananimals	1	6	[0, 0, 0]	n/a	catFR1	2	R1347D
647.213	1.6	650052	WORD	n/a	wordpools/wordpool_categorized_EN.txt	WHALE	Oceananimals	2	6	[0, 0, 0]	n/a	catFR1	2	R1347D
648.813	0.8	651653	WORD_OFF	n/a	n/a	WHALE	Oceananimals	2	6	[0, 0, 0]	n/a	catFR1	2	R1347D
649.613	1.6	652453	WORD	n/a	wordpools/wordpool_categorized_EN.txt	VACUUM	Appliances	3	6	[0, 0, 0]	n/a	catFR1	2	R1347D
651.213	0.934	654054	WORD_OFF	n/a	n/a	VACUUM	Appliances	3	6	[0, 0, 0]	n/a	catFR1	2	R1347D
652.147	1.6	654990	WORD	n/a	wordpools/wordpool_categorized_EN.txt	IRON	Appliances	4	6	[0, 0, 0]	n/a	catFR1	2	R1347D
653.747	0.933	656590	WORD_OFF	n/a	n/a	IRON	Appliances	4	6	[0, 0, 0]	n/a	catFR1	2	R1347D
654.68	1.617	657515	WORD	n/a	wordpools/wordpool_categorized_EN.txt	TAPE	Officesupplies	5	6	[0, 0, 0]	n/a	catFR1	2	R1347D
656.297	0.949	659138	WORD_OFF	n/a	n/a	TAPE	Officesupplies	5	6	[0, 0, 0]	n/a	catFR1	2	R1347D
657.246	1.6	660085	WORD	n/a	wordpools/wordpool_categorized_EN.txt	MARKER	Officesupplies	6	6	[0, 0, 0]	n/a	catFR1	2	R1347D
658.846	0.884	661686	WORD_OFF	n/a	n/a	MARKER	Officesupplies	6	6	[0, 0, 0]	n/a	catFR1	2	R1347D
659.73	1.616	662565	WORD	n/a	wordpools/wordpool_categorized_EN.txt	FISH	Oceananimals	7	6	[0, 0, 0]	n/a	catFR1	2	R1347D
661.346	0.901	664188	WORD_OFF	n/a	n/a	FISH	Oceananimals	7	6	[0, 0, 0]	n/a	catFR1	2	R1347D
662.247	1.615	665090	WORD	n/a	wordpools/wordpool_categorized_EN.txt	DOLPHIN	Oceananimals	8	6	[0, 0, 0]	n/a	catFR1	2	R1347D
663.862	0.967	666702	WORD_OFF	n/a	n/a	DOLPHIN	Oceananimals	8	6	[0, 0, 0]	n/a	catFR1	2	R1347D
664.829	1.6	667671	WORD	n/a	wordpools/wordpool_categorized_EN.txt	STOVE	Appliances	9	6	[0, 0, 0]	n/a	catFR1	2	R1347D
666.429	1.001	669272	WORD_OFF	n/a	n/a	STOVE	Appliances	9	6	[0, 0, 0]	n/a	catFR1	2	R1347D
667.43	1.617	670264	WORD	n/a	wordpools/wordpool_categorized_EN.txt	REFRIGERATOR	Appliances	10	6	[0, 0, 0]	n/a	catFR1	2	R1347D
669.047	0.916	671887	WORD_OFF	n/a	n/a	REFRIGERATOR	Appliances	10	6	[0, 0, 0]	n/a	catFR1	2	R1347D
669.963	1.6	672800	WORD	n/a	wordpools/wordpool_categorized_EN.txt	PAPER	Officesupplies	11	6	[0, 0, 0]	n/a	catFR1	2	R1347D
671.563	1.0	674401	WORD_OFF	n/a	n/a	PAPER	Officesupplies	11	6	[0, 0, 0]	n/a	catFR1	2	R1347D
672.563	1.601	675404	WORD	n/a	wordpools/wordpool_categorized_EN.txt	FOLDER	Officesupplies	12	6	[0, 0, 0]	n/a	catFR1	2	R1347D
674.164	0.001	677003	PROB	15.433	n/a	n/a	n/a	-999	6	[6, 1, 7]	14.0	catFR1	2	R1347D
674.165	0.0	677004	START	n/a	n/a	n/a	n/a	-999	6	[-999, -999, -999]	n/a	catFR1	2	R1347D
674.163	0.002	677005	WORD_OFF	n/a	n/a	FOLDER	Officesupplies	12	6	[0, 0, 0]	n/a	catFR1	2	R1347D
674.165	0.0	677005	ENCODING_END	n/a	n/a	n/a	n/a	-999	6	[0, 0, 0]	n/a	catFR1	2	R1347D
674.165	15.449	677005	DISTRACT_START	n/a	n/a	n/a	n/a	-999	6	[0, 0, 0]	n/a	catFR1	2	R1347D
689.614	10.884	692452	PROB	10.866	n/a	n/a	n/a	-999	6	[1, 6, 8]	15.0	catFR1	2	R1347D
700.498	0.0	703336	STOP	n/a	n/a	n/a	n/a	-999	6	[-999, -999, -999]	n/a	catFR1	2	R1347D
700.498	1.299	703338	DISTRACT_END	n/a	n/a	n/a	n/a	-999	6	[0, 0, 0]	n/a	catFR1	2	R1347D
701.797	6.807	704635	REC_START	n/a	n/a	n/a	n/a	-999	6	[0, 0, 0]	n/a	catFR1	2	R1347D
708.604	0.732	711441	REC_WORD	6.807	n/a	TURTLE	Oceananimals	1	6	[0, 0, 0]	n/a	catFR1	2	R1347D
709.336	1.669	712173	REC_WORD	7.539	n/a	WHALE	Oceananimals	2	6	[0, 0, 0]	n/a	catFR1	2	R1347D
711.005	1.261	713842	REC_WORD	9.208	n/a	FISH	Oceananimals	7	6	[0, 0, 0]	n/a	catFR1	2	R1347D
712.266	19.811	715103	REC_WORD	10.469	n/a	DOLPHIN	Oceananimals	8	6	[0, 0, 0]	n/a	catFR1	2	R1347D
732.077	1.786	734913	REC_END	n/a	n/a	n/a	n/a	-999	6	[0, 0, 0]	n/a	catFR1	2	R1347D
733.863	10.35	736706	COUNTDOWN_START	n/a	n/a	n/a	n/a	-999	7	[0, 0, 0]	n/a	catFR1	2	R1347D
744.213	0.0	747054	COUNTDOWN_END	n/a	n/a	n/a	n/a	-999	7	[0, 0, 0]	n/a	catFR1	2	R1347D
744.213	2.216	747054	ENCODING_START	n/a	n/a	n/a	n/a	-999	7	[0, 0, 0]	n/a	catFR1	2	R1347D
746.429	1.6	749263	WORD	n/a	wordpools/wordpool_categorized_EN.txt	ZEBRA	Zoo	1	7	[0, 0, 0]	n/a	catFR1	2	R1347D
748.029	0.801	750864	WORD_OFF	n/a	n/a	ZEBRA	Zoo	1	7	[0, 0, 0]	n/a	catFR1	2	R1347D
748.83	1.6	751664	WORD	n/a	wordpools/wordpool_categorized_EN.txt	GORILLA	Zoo	2	7	[0, 0, 0]	n/a	catFR1	2	R1347D
750.43	0.867	753265	WORD_OFF	n/a	n/a	GORILLA	Zoo	2	7	[0, 0, 0]	n/a	catFR1	2	R1347D
751.297	1.6	754133	WORD	n/a	wordpools/wordpool_categorized_EN.txt	ROACH	Insects	3	7	[0, 0, 0]	n/a	catFR1	2	R1347D
752.897	1.0	755734	WORD_OFF	n/a	n/a	ROACH	Insects	3	7	[0, 0, 0]	n/a	catFR1	2	R1347D
753.897	1.616	756737	WORD	n/a	wordpools/wordpool_categorized_EN.txt	BUTTERFLY	Insects	4	7	[0, 0, 0]	n/a	catFR1	2	R1347D
755.513	0.867	758349	WORD_OFF	n/a	n/a	BUTTERFLY	Insects	4	7	[0, 0, 0]	n/a	catFR1	2	R1347D
756.38	1.6	759217	WORD	n/a	wordpools/wordpool_categorized_EN.txt	DOLLHOUSE	Toys	5	7	[0, 0, 0]	n/a	catFR1	2	R1347D
757.98	0.867	760818	WORD_OFF	n/a	n/a	DOLLHOUSE	Toys	5	7	[0, 0, 0]	n/a	catFR1	2	R1347D
758.847	1.6	761686	WORD	n/a	wordpools/wordpool_categorized_EN.txt	FOOTBALL	Toys	6	7	[0, 0, 0]	n/a	catFR1	2	R1347D
760.447	0.983	763287	WORD_OFF	n/a	n/a	FOOTBALL	Toys	6	7	[0, 0, 0]	n/a	catFR1	2	R1347D
761.43	1.617	764267	WORD	n/a	wordpools/wordpool_categorized_EN.txt	MOTH	Insects	7	7	[0, 0, 0]	n/a	catFR1	2	R1347D
763.047	0.866	765879	WORD_OFF	n/a	n/a	MOTH	Insects	7	7	[0, 0, 0]	n/a	catFR1	2	R1347D
763.913	1.6	766747	WORD	n/a	wordpools/wordpool_categorized_EN.txt	ANT	Insects	8	7	[0, 0, 0]	n/a	catFR1	2	R1347D
765.513	0.834	768348	WORD_OFF	n/a	n/a	ANT	Insects	8	7	[0, 0, 0]	n/a	catFR1	2	R1347D
766.347	1.616	769182	WORD	n/a	wordpools/wordpool_categorized_EN.txt	DOLL	Toys	9	7	[0, 0, 0]	n/a	catFR1	2	R1347D
767.963	0.85	770794	WORD_OFF	n/a	n/a	DOLL	Toys	9	7	[0, 0, 0]	n/a	catFR1	2	R1347D
768.813	1.617	771651	WORD	n/a	wordpools/wordpool_categorized_EN.txt	FRISBEE	Toys	10	7	[0, 0, 0]	n/a	catFR1	2	R1347D
770.43	0.95	773263	WORD_OFF	n/a	n/a	FRISBEE	Toys	10	7	[0, 0, 0]	n/a	catFR1	2	R1347D
771.38	1.617	774210	WORD	n/a	wordpools/wordpool_categorized_EN.txt	CHEETAH	Zoo	11	7	[0, 0, 0]	n/a	catFR1	2	R1347D
772.997	1.0	775833	WORD_OFF	n/a	n/a	CHEETAH	Zoo	11	7	[0, 0, 0]	n/a	catFR1	2	R1347D
773.997	1.616	776825	WORD	n/a	wordpools/wordpool_categorized_EN.txt	TIGER	Zoo	12	7	[0, 0, 0]	n/a	catFR1	2	R1347D
775.613	0.002	778448	WORD_OFF	n/a	n/a	TIGER	Zoo	12	7	[0, 0, 0]	n/a	catFR1	2	R1347D
775.615	0.0	778448	ENCODING_END	n/a	n/a	n/a	n/a	-999	7	[0, 0, 0]	n/a	catFR1	2	R1347D
775.615	0.0	778448	DISTRACT_START	n/a	n/a	n/a	n/a	-999	7	[0, 0, 0]	n/a	catFR1	2	R1347D
775.614	0.001	778448	PROB	24.199	n/a	n/a	n/a	-999	7	[2, 5, 6]	15.0	catFR1	2	R1347D
775.615	24.215	778449	START	n/a	n/a	n/a	n/a	-999	7	[-999, -999, -999]	n/a	catFR1	2	R1347D
799.83	0.0	802662	DISTRACT_END	n/a	n/a	n/a	n/a	-999	7	[0, 0, 0]	n/a	catFR1	2	R1347D
799.83	1.067	802663	STOP	n/a	n/a	n/a	n/a	-999	7	[-999, -999, -999]	n/a	catFR1	2	R1347D
800.897	3.156	803733	REC_START	n/a	n/a	n/a	n/a	-999	7	[0, 0, 0]	n/a	catFR1	2	R1347D
804.053	0.767	806886	REC_WORD	3.156	n/a	ZEBRA	Zoo	1	7	[0, 0, 0]	n/a	catFR1	2	R1347D
804.82	0.723	807652	REC_WORD	3.923	n/a	GORILLA	Zoo	2	7	[0, 0, 0]	n/a	catFR1	2	R1347D
805.543	1.027	808375	REC_WORD	4.646	n/a	MOTH	Insects	7	7	[0, 0, 0]	n/a	catFR1	2	R1347D
806.57	9.109	809402	REC_WORD	5.673	n/a	ANT	Insects	8	7	[0, 0, 0]	n/a	catFR1	2	R1347D
815.679	15.504	818511	REC_WORD	14.782	n/a	ROACH	Insects	3	7	[0, 0, 0]	n/a	catFR1	2	R1347D
831.183	2.197	834012	REC_END	n/a	n/a	n/a	n/a	-999	7	[0, 0, 0]	n/a	catFR1	2	R1347D
833.38	10.35	836210	COUNTDOWN_START	n/a	n/a	n/a	n/a	-999	8	[0, 0, 0]	n/a	catFR1	2	R1347D
843.73	0.0	846558	COUNTDOWN_END	n/a	n/a	n/a	n/a	-999	8	[0, 0, 0]	n/a	catFR1	2	R1347D
843.73	1.9	846558	ENCODING_START	n/a	n/a	n/a	n/a	-999	8	[0, 0, 0]	n/a	catFR1	2	R1347D
845.63	1.6	848463	WORD	n/a	wordpools/wordpool_categorized_EN.txt	LAMB	Farmanimals	1	8	[0, 0, 0]	n/a	catFR1	2	R1347D
847.23	0.766	850064	WORD_OFF	n/a	n/a	LAMB	Farmanimals	1	8	[0, 0, 0]	n/a	catFR1	2	R1347D
847.996	1.6	850831	WORD	n/a	wordpools/wordpool_categorized_EN.txt	SHEEP	Farmanimals	2	8	[0, 0, 0]	n/a	catFR1	2	R1347D
849.596	0.984	852431	WORD_OFF	n/a	n/a	SHEEP	Farmanimals	2	8	[0, 0, 0]	n/a	catFR1	2	R1347D
850.58	1.6	853412	WORD	n/a	wordpools/wordpool_categorized_EN.txt	CAULIFLOWER	Vegetables	3	8	[0, 0, 0]	n/a	catFR1	2	R1347D
852.18	0.783	855013	WORD_OFF	n/a	n/a	CAULIFLOWER	Vegetables	3	8	[0, 0, 0]	n/a	catFR1	2	R1347D
852.963	1.617	855791	WORD	n/a	wordpools/wordpool_categorized_EN.txt	CORN	Vegetables	4	8	[0, 0, 0]	n/a	catFR1	2	R1347D
854.58	0.867	857414	WORD_OFF	n/a	n/a	CORN	Vegetables	4	8	[0, 0, 0]	n/a	catFR1	2	R1347D
855.447	1.616	858282	WORD	n/a	wordpools/wordpool_categorized_EN.txt	BED	Furniture	5	8	[0, 0, 0]	n/a	catFR1	2	R1347D
857.063	0.817	859894	WORD_OFF	n/a	n/a	BED	Furniture	5	8	[0, 0, 0]	n/a	catFR1	2	R1347D
857.88	1.6	860705	WORD	n/a	wordpools/wordpool_categorized_EN.txt	COUCH	Furniture	6	8	[0, 0, 0]	n/a	catFR1	2	R1347D
859.48	0.967	862306	WORD_OFF	n/a	n/a	COUCH	Furniture	6	8	[0, 0, 0]	n/a	catFR1	2	R1347D
860.447	1.6	863276	WORD	n/a	wordpools/wordpool_categorized_EN.txt	CABBAGE	Vegetables	7	8	[0, 0, 0]	n/a	catFR1	2	R1347D
862.047	0.766	864876	WORD_OFF	n/a	n/a	CABBAGE	Vegetables	7	8	[0, 0, 0]	n/a	catFR1	2	R1347D
862.813	1.617	865643	WORD	n/a	wordpools/wordpool_categorized_EN.txt	CELERY	Vegetables	8	8	[0, 0, 0]	n/a	catFR1	2	R1347D
864.43	0.983	867255	WORD_OFF	n/a	n/a	CELERY	Vegetables	8	8	[0, 0, 0]	n/a	catFR1	2	R1347D
865.413	1.6	868247	WORD	n/a	wordpools/wordpool_categorized_EN.txt	GOAT	Farmanimals	9	8	[0, 0, 0]	n/a	catFR1	2	R1347D
867.013	0.967	869848	WORD_OFF	n/a	n/a	GOAT	Farmanimals	9	8	[0, 0, 0]	n/a	catFR1	2	R1347D
867.98	1.6	870806	WORD	n/a	wordpools/wordpool_categorized_EN.txt	TURKEY	Farmanimals	10	8	[0, 0, 0]	n/a	catFR1	2	R1347D
869.58	0.783	872407	WORD_OFF	n/a	n/a	TURKEY	Farmanimals	10	8	[0, 0, 0]	n/a	catFR1	2	R1347D
870.363	1.6	873196	WORD	n/a	wordpools/wordpool_categorized_EN.txt	BOOKCASE	Furniture	11	8	[0, 0, 0]	n/a	catFR1	2	R1347D
871.963	0.984	874796	WORD_OFF	n/a	n/a	BOOKCASE	Furniture	11	8	[0, 0, 0]	n/a	catFR1	2	R1347D
872.947	1.6	875777	WORD	n/a	wordpools/wordpool_categorized_EN.txt	SHELF	Furniture	12	8	[0, 0, 0]	n/a	catFR1	2	R1347D
874.547	0.001	877376	PROB	21.416	n/a	n/a	n/a	-999	8	[2, 3, 1]	6.0	catFR1	2	R1347D
874.548	0.0	877377	START	n/a	n/a	n/a	n/a	-999	8	[-999, -999, -999]	n/a	catFR1	2	R1347D
874.547	0.001	877378	WORD_OFF	n/a	n/a	SHELF	Furniture	12	8	[0, 0, 0]	n/a	catFR1	2	R1347D
874.548	0.0	877378	ENCODING_END	n/a	n/a	n/a	n/a	-999	8	[0, 0, 0]	n/a	catFR1	2	R1347D
874.548	21.433	877378	DISTRACT_START	n/a	n/a	n/a	n/a	-999	8	[0, 0, 0]	n/a	catFR1	2	R1347D
895.981	0.0	898807	DISTRACT_END	n/a	n/a	n/a	n/a	-999	8	[0, 0, 0]	n/a	catFR1	2	R1347D
895.981	1.099	898809	STOP	n/a	n/a	n/a	n/a	-999	8	[-999, -999, -999]	n/a	catFR1	2	R1347D
897.08	18.324	899912	REC_START	n/a	n/a	n/a	n/a	-999	8	[0, 0, 0]	n/a	catFR1	2	R1347D
915.404	0.686	918231	REC_WORD	18.324	n/a	LAMB	Farmanimals	1	8	[0, 0, 0]	n/a	catFR1	2	R1347D
916.09	2.428	918917	REC_WORD	19.01	n/a	BEEF	n/a	-999	8	[0, 0, 0]	n/a	catFR1	2	R1347D
918.518	8.834	921345	REC_WORD	21.438	n/a	ROACH	Insects	-999	8	[0, 0, 0]	n/a	catFR1	2	R1347D
927.352	1.444	930179	REC_END	n/a	n/a	n/a	n/a	-999	8	[0, 0, 0]	n/a	catFR1	2	R1347D
928.796	10.351	931622	COUNTDOWN_START	n/a	n/a	n/a	n/a	-999	9	[0, 0, 0]	n/a	catFR1	2	R1347D
939.147	0.0	941970	COUNTDOWN_END	n/a	n/a	n/a	n/a	-999	9	[0, 0, 0]	n/a	catFR1	2	R1347D
939.147	2.133	941970	ENCODING_START	n/a	n/a	n/a	n/a	-999	9	[0, 0, 0]	n/a	catFR1	2	R1347D
941.28	1.6	944101	WORD	n/a	wordpools/wordpool_categorized_EN.txt	FLOOR	Building	1	9	[0, 0, 0]	n/a	catFR1	2	R1347D
942.88	0.85	945702	WORD_OFF	n/a	n/a	FLOOR	Building	1	9	[0, 0, 0]	n/a	catFR1	2	R1347D
943.73	1.6	946558	WORD	n/a	wordpools/wordpool_categorized_EN.txt	WALL	Building	2	9	[0, 0, 0]	n/a	catFR1	2	R1347D
945.33	0.933	948159	WORD_OFF	n/a	n/a	WALL	Building	2	9	[0, 0, 0]	n/a	catFR1	2	R1347D
946.263	1.6	949084	WORD	n/a	wordpools/wordpool_categorized_EN.txt	BASEBALL	Toys	3	9	[0, 0, 0]	n/a	catFR1	2	R1347D
947.863	0.867	950684	WORD_OFF	n/a	n/a	BASEBALL	Toys	3	9	[0, 0, 0]	n/a	catFR1	2	R1347D
948.73	1.617	951552	WORD	n/a	wordpools/wordpool_categorized_EN.txt	MARBLES	Toys	4	9	[0, 0, 0]	n/a	catFR1	2	R1347D
950.347	0.9	953176	WORD_OFF	n/a	n/a	MARBLES	Toys	4	9	[0, 0, 0]	n/a	catFR1	2	R1347D
951.247	1.6	954077	WORD	n/a	wordpools/wordpool_categorized_EN.txt	BLUEBERRY	Fruit	5	9	[0, 0, 0]	n/a	catFR1	2	R1347D
952.847	0.866	955667	WORD_OFF	n/a	n/a	BLUEBERRY	Fruit	5	9	[0, 0, 0]	n/a	catFR1	2	R1347D
953.713	1.617	956535	WORD	n/a	wordpools/wordpool_categorized_EN.txt	ORANGE	Fruit	6	9	[0, 0, 0]	n/a	catFR1	2	R1347D
955.33	0.8	958158	WORD_OFF	n/a	n/a	ORANGE	Fruit	6	9	[0, 0, 0]	n/a	catFR1	2	R1347D
956.13	1.6	958958	WORD	n/a	wordpools/wordpool_categorized_EN.txt	BATHROOM	Building	7	9	[0, 0, 0]	n/a	catFR1	2	R1347D
957.73	0.849	960559	WORD_OFF	n/a	n/a	BATHROOM	Building	7	9	[0, 0, 0]	n/a	catFR1	2	R1347D
958.579	1.6	961405	WORD	n/a	wordpools/wordpool_categorized_EN.txt	DOOR	Building	8	9	[0, 0, 0]	n/a	catFR1	2	R1347D
960.179	0.834	963005	WORD_OFF	n/a	n/a	DOOR	Building	8	9	[0, 0, 0]	n/a	catFR1	2	R1347D
961.013	1.617	963840	WORD	n/a	wordpools/wordpool_categorized_EN.txt	BALL	Toys	9	9	[0, 0, 0]	n/a	catFR1	2	R1347D
962.63	0.783	965452	WORD_OFF	n/a	n/a	BALL	Toys	9	9	[0, 0, 0]	n/a	catFR1	2	R1347D
963.413	1.617	966241	WORD	n/a	wordpools/wordpool_categorized_EN.txt	BARBIE	Toys	10	9	[0, 0, 0]	n/a	catFR1	2	R1347D
965.03	0.833	967853	WORD_OFF	n/a	n/a	BARBIE	Toys	10	9	[0, 0, 0]	n/a	catFR1	2	R1347D
965.863	1.617	968687	WORD	n/a	wordpools/wordpool_categorized_EN.txt	BANANA	Fruit	11	9	[0, 0, 0]	n/a	catFR1	2	R1347D
967.48	0.766	970299	WORD_OFF	n/a	n/a	BANANA	Fruit	11	9	[0, 0, 0]	n/a	catFR1	2	R1347D
968.246	1.601	971065	WORD	n/a	wordpools/wordpool_categorized_EN.txt	LIME	Fruit	12	9	[0, 0, 0]	n/a	catFR1	2	R1347D
969.847	0.0	972666	WORD_OFF	n/a	n/a	LIME	Fruit	12	9	[0, 0, 0]	n/a	catFR1	2	R1347D
969.847	0.001	972671	PROB	31.199	n/a	n/a	n/a	-999	9	[3, 8, 7]	18.0	catFR1	2	R1347D
969.848	0.0	972672	START	n/a	n/a	n/a	n/a	-999	9	[-999, -999, -999]	n/a	catFR1	2	R1347D
969.848	0.0	972677	ENCODING_END	n/a	n/a	n/a	n/a	-999	9	[0, 0, 0]	n/a	catFR1	2	R1347D
969.848	31.215	972677	DISTRACT_START	n/a	n/a	n/a	n/a	-999	9	[0, 0, 0]	n/a	catFR1	2	R1347D
1001.063	0.0	1003886	STOP	n/a	n/a	n/a	n/a	-999	9	[-999, -999, -999]	n/a	catFR1	2	R1347D
1001.063	1.2	1003892	DISTRACT_END	n/a	n/a	n/a	n/a	-999	9	[0, 0, 0]	n/a	catFR1	2	R1347D
1002.263	6.73	1005086	REC_START	n/a	n/a	n/a	n/a	-999	9	[0, 0, 0]	n/a	catFR1	2	R1347D
1008.993	0.749	1011815	REC_WORD	6.73	n/a	ORANGE	Fruit	6	9	[0, 0, 0]	n/a	catFR1	2	R1347D
1009.742	2.073	1012564	REC_WORD	7.479	n/a	FLOWER	n/a	-999	9	[0, 0, 0]	n/a	catFR1	2	R1347D
1011.815	2.492	1014637	REC_WORD	9.552	n/a	WALL	Building	2	9	[0, 0, 0]	n/a	catFR1	2	R1347D
1014.307	18.224	1017129	REC_WORD	12.044	n/a	DOOR	Building	8	9	[0, 0, 0]	n/a	catFR1	2	R1347D
1032.531	2.415	1035354	REC_END	n/a	n/a	n/a	n/a	-999	9	[0, 0, 0]	n/a	catFR1	2	R1347D
1034.946	10.351	1037766	COUNTDOWN_START	n/a	n/a	n/a	n/a	-999	10	[0, 0, 0]	n/a	catFR1	2	R1347D
1045.297	0.0	1048114	COUNTDOWN_END	n/a	n/a	n/a	n/a	-999	10	[0, 0, 0]	n/a	catFR1	2	R1347D
1045.297	2.049	1048114	ENCODING_START	n/a	n/a	n/a	n/a	-999	10	[0, 0, 0]	n/a	catFR1	2	R1347D
1047.346	1.601	1050166	WORD	n/a	wordpools/wordpool_categorized_EN.txt	MOUNTAIN	Landscapes	1	10	[0, 0, 0]	n/a	catFR1	2	R1347D
1048.947	0.982	1051767	WORD_OFF	n/a	n/a	MOUNTAIN	Landscapes	1	10	[0, 0, 0]	n/a	catFR1	2	R1347D
1049.929	1.601	1052747	WORD	n/a	wordpools/wordpool_categorized_EN.txt	HILLS	Landscapes	2	10	[0, 0, 0]	n/a	catFR1	2	R1347D
1051.53	0.783	1054348	WORD_OFF	n/a	n/a	HILLS	Landscapes	2	10	[0, 0, 0]	n/a	catFR1	2	R1347D
1052.313	1.616	1055137	WORD	n/a	wordpools/wordpool_categorized_EN.txt	DRYER	Appliances	3	10	[0, 0, 0]	n/a	catFR1	2	R1347D
1053.929	0.834	1056749	WORD_OFF	n/a	n/a	DRYER	Appliances	3	10	[0, 0, 0]	n/a	catFR1	2	R1347D
1054.763	1.6	1057583	WORD	n/a	wordpools/wordpool_categorized_EN.txt	TOASTER	Appliances	4	10	[0, 0, 0]	n/a	catFR1	2	R1347D
1056.363	0.816	1059184	WORD_OFF	n/a	n/a	TOASTER	Appliances	4	10	[0, 0, 0]	n/a	catFR1	2	R1347D
1057.179	1.601	1059996	WORD	n/a	wordpools/wordpool_categorized_EN.txt	VIOLIN	Instruments	5	10	[0, 0, 0]	n/a	catFR1	2	R1347D
1058.78	0.833	1061597	WORD_OFF	n/a	n/a	VIOLIN	Instruments	5	10	[0, 0, 0]	n/a	catFR1	2	R1347D
1059.613	1.6	1062431	WORD	n/a	wordpools/wordpool_categorized_EN.txt	CELLO	Instruments	6	10	[0, 0, 0]	n/a	catFR1	2	R1347D
1061.213	0.8	1064031	WORD_OFF	n/a	n/a	CELLO	Instruments	6	10	[0, 0, 0]	n/a	catFR1	2	R1347D
1062.013	1.6	1064832	WORD	n/a	wordpools/wordpool_categorized_EN.txt	FREEZER	Appliances	7	10	[0, 0, 0]	n/a	catFR1	2	R1347D
1063.613	1.0	1066433	WORD_OFF	n/a	n/a	FREEZER	Appliances	7	10	[0, 0, 0]	n/a	catFR1	2	R1347D
1064.613	1.6	1067436	WORD	n/a	wordpools/wordpool_categorized_EN.txt	WASHER	Appliances	8	10	[0, 0, 0]	n/a	catFR1	2	R1347D
1066.213	1.0	1069037	WORD_OFF	n/a	n/a	WASHER	Appliances	8	10	[0, 0, 0]	n/a	catFR1	2	R1347D
1067.213	1.616	1070029	WORD	n/a	wordpools/wordpool_categorized_EN.txt	LAKE	Landscapes	9	10	[0, 0, 0]	n/a	catFR1	2	R1347D
1068.829	0.868	1071652	WORD_OFF	n/a	n/a	LAKE	Landscapes	9	10	[0, 0, 0]	n/a	catFR1	2	R1347D
1069.697	1.616	1072520	WORD	n/a	wordpools/wordpool_categorized_EN.txt	ISLAND	Landscapes	10	10	[0, 0, 0]	n/a	catFR1	2	R1347D
1071.313	0.95	1074132	WORD_OFF	n/a	n/a	ISLAND	Landscapes	10	10	[0, 0, 0]	n/a	catFR1	2	R1347D
1072.263	1.617	1075079	WORD	n/a	wordpools/wordpool_categorized_EN.txt	TUBA	Instruments	11	10	[0, 0, 0]	n/a	catFR1	2	R1347D
1073.88	0.783	1076702	WORD_OFF	n/a	n/a	TUBA	Instruments	11	10	[0, 0, 0]	n/a	catFR1	2	R1347D
1074.663	1.617	1077480	WORD	n/a	wordpools/wordpool_categorized_EN.txt	ORGAN	Instruments	12	10	[0, 0, 0]	n/a	catFR1	2	R1347D
1076.28	0.001	1079099	PROB	8.399	n/a	n/a	n/a	-999	10	[2, 3, 3]	8.0	catFR1	2	R1347D
1076.281	0.0	1079100	START	n/a	n/a	n/a	n/a	-999	10	[-999, -999, -999]	n/a	catFR1	2	R1347D
1076.28	0.001	1079103	WORD_OFF	n/a	n/a	ORGAN	Instruments	12	10	[0, 0, 0]	n/a	catFR1	2	R1347D
1076.281	0.0	1079103	ENCODING_END	n/a	n/a	n/a	n/a	-999	10	[0, 0, 0]	n/a	catFR1	2	R1347D
1076.281	8.416	1079103	DISTRACT_START	n/a	n/a	n/a	n/a	-999	10	[0, 0, 0]	n/a	catFR1	2	R1347D
1084.697	19.316	1087516	PROB	19.299	n/a	n/a	n/a	-999	10	[7, 1, 6]	16.0	catFR1	2	R1347D
1104.013	0.0	1106831	STOP	n/a	n/a	n/a	n/a	-999	10	[-999, -999, -999]	n/a	catFR1	2	R1347D
1104.013	1.199	1106834	DISTRACT_END	n/a	n/a	n/a	n/a	-999	10	[0, 0, 0]	n/a	catFR1	2	R1347D
1105.212	4.481	1108029	REC_START	n/a	n/a	n/a	n/a	-999	10	[0, 0, 0]	n/a	catFR1	2	R1347D
1109.693	0.572	1112510	REC_WORD	4.481	n/a	MOUNTAIN	Landscapes	1	10	[0, 0, 0]	n/a	catFR1	2	R1347D
1110.265	2.372	1113082	REC_WORD	5.053	n/a	HILLS	Landscapes	2	10	[0, 0, 0]	n/a	catFR1	2	R1347D
1112.637	1.859	1115454	REC_WORD	7.425	n/a	ORGAN	Instruments	12	10	[0, 0, 0]	n/a	catFR1	2	R1347D
1114.496	1.963	1117313	REC_WORD	9.284	n/a	VIOLIN	Instruments	5	10	[0, 0, 0]	n/a	catFR1	2	R1347D
1116.459	19.006	1119276	REC_WORD	11.247	n/a	CELLO	Instruments	6	10	[0, 0, 0]	n/a	catFR1	2	R1347D
1135.465	3.448	1138285	REC_END	n/a	n/a	n/a	n/a	-999	10	[0, 0, 0]	n/a	catFR1	2	R1347D
1138.913	10.351	1141734	COUNTDOWN_START	n/a	n/a	n/a	n/a	-999	11	[0, 0, 0]	n/a	catFR1	2	R1347D
1149.264	0.0	1152083	COUNTDOWN_END	n/a	n/a	n/a	n/a	-999	11	[0, 0, 0]	n/a	catFR1	2	R1347D
1149.264	2.032	1152083	ENCODING_START	n/a	n/a	n/a	n/a	-999	11	[0, 0, 0]	n/a	catFR1	2	R1347D
1151.296	1.601	1154112	WORD	n/a	wordpools/wordpool_categorized_EN.txt	CHICKEN	Farmanimals	1	11	[0, 0, 0]	n/a	catFR1	2	R1347D
1152.897	0.966	1155712	WORD_OFF	n/a	n/a	CHICKEN	Farmanimals	1	11	[0, 0, 0]	n/a	catFR1	2	R1347D
1153.863	1.6	1156682	WORD	n/a	wordpools/wordpool_categorized_EN.txt	CALF	Farmanimals	2	11	[0, 0, 0]	n/a	catFR1	2	R1347D
1155.463	0.884	1158283	WORD_OFF	n/a	n/a	CALF	Farmanimals	2	11	[0, 0, 0]	n/a	catFR1	2	R1347D
1156.347	1.6	1159162	WORD	n/a	wordpools/wordpool_categorized_EN.txt	ELM	Trees	3	11	[0, 0, 0]	n/a	catFR1	2	R1347D
1157.947	0.899	1160763	WORD_OFF	n/a	n/a	ELM	Trees	3	11	[0, 0, 0]	n/a	catFR1	2	R1347D
1158.846	1.601	1161664	WORD	n/a	wordpools/wordpool_categorized_EN.txt	HICKORY	Trees	4	11	[0, 0, 0]	n/a	catFR1	2	R1347D
1160.447	0.883	1163265	WORD_OFF	n/a	n/a	HICKORY	Trees	4	11	[0, 0, 0]	n/a	catFR1	2	R1347D
1161.33	1.6	1164144	WORD	n/a	wordpools/wordpool_categorized_EN.txt	HALLWAY	Building	5	11	[0, 0, 0]	n/a	catFR1	2	R1347D
1162.93	0.9	1165745	WORD_OFF	n/a	n/a	HALLWAY	Building	5	11	[0, 0, 0]	n/a	catFR1	2	R1347D
1163.83	1.599	1166647	WORD	n/a	wordpools/wordpool_categorized_EN.txt	ROOM	Building	6	11	[0, 0, 0]	n/a	catFR1	2	R1347D
1165.429	0.884	1168248	WORD_OFF	n/a	n/a	ROOM	Building	6	11	[0, 0, 0]	n/a	catFR1	2	R1347D
1166.313	1.617	1169127	WORD	n/a	wordpools/wordpool_categorized_EN.txt	CEDAR	Trees	7	11	[0, 0, 0]	n/a	catFR1	2	R1347D
1167.93	0.85	1170739	WORD_OFF	n/a	n/a	CEDAR	Trees	7	11	[0, 0, 0]	n/a	catFR1	2	R1347D
1168.78	1.6	1171596	WORD	n/a	wordpools/wordpool_categorized_EN.txt	EVERGREEN	Trees	8	11	[0, 0, 0]	n/a	catFR1	2	R1347D
1170.38	0.816	1173196	WORD_OFF	n/a	n/a	EVERGREEN	Trees	8	11	[0, 0, 0]	n/a	catFR1	2	R1347D
1171.196	1.617	1174008	WORD	n/a	wordpools/wordpool_categorized_EN.txt	FOUNDATION	Building	9	11	[0, 0, 0]	n/a	catFR1	2	R1347D
1172.813	0.983	1175631	WORD_OFF	n/a	n/a	FOUNDATION	Building	9	11	[0, 0, 0]	n/a	catFR1	2	R1347D
1173.796	1.617	1176612	WORD	n/a	wordpools/wordpool_categorized_EN.txt	CEILING	Building	10	11	[0, 0, 0]	n/a	catFR1	2	R1347D
1175.413	0.8	1178224	WORD_OFF	n/a	n/a	CEILING	Building	10	11	[0, 0, 0]	n/a	catFR1	2	R1347D
1176.213	1.617	1179024	WORD	n/a	wordpools/wordpool_categorized_EN.txt	BULL	Farmanimals	11	11	[0, 0, 0]	n/a	catFR1	2	R1347D
1177.83	0.883	1180648	WORD_OFF	n/a	n/a	BULL	Farmanimals	11	11	[0, 0, 0]	n/a	catFR1	2	R1347D
1178.713	1.616	1181527	WORD	n/a	wordpools/wordpool_categorized_EN.txt	HEN	Farmanimals	12	11	[0, 0, 0]	n/a	catFR1	2	R1347D
1180.329	0.002	1183139	WORD_OFF	n/a	n/a	HEN	Farmanimals	12	11	[0, 0, 0]	n/a	catFR1	2	R1347D
1180.331	0.0	1183139	ENCODING_END	n/a	n/a	n/a	n/a	-999	11	[0, 0, 0]	n/a	catFR1	2	R1347D
1180.33	0.001	1183144	PROB	10.349	n/a	n/a	n/a	-999	11	[8, 5, 1]	14.0	catFR1	2	R1347D
1180.331	0.0	1183145	START	n/a	n/a	n/a	n/a	-999	11	[-999, -999, -999]	n/a	catFR1	2	R1347D
1180.331	10.366	1183150	DISTRACT_START	n/a	n/a	n/a	n/a	-999	11	[0, 0, 0]	n/a	catFR1	2	R1347D
1190.697	5.817	1193510	PROB	5.799	n/a	n/a	n/a	-999	11	[6, 5, 5]	16.0	catFR1	2	R1347D
1196.514	5.633	1199327	PROB	5.618	n/a	n/a	n/a	-999	11	[3, 8, 1]	12.0	catFR1	2	R1347D
1202.147	0.0	1204960	STOP	n/a	n/a	n/a	n/a	-999	11	[-999, -999, -999]	n/a	catFR1	2	R1347D
1202.147	1.1	1204963	DISTRACT_END	n/a	n/a	n/a	n/a	-999	11	[0, 0, 0]	n/a	catFR1	2	R1347D
1203.247	29.999	1206056	REC_START	n/a	n/a	n/a	n/a	-999	11	[0, 0, 0]	n/a	catFR1	2	R1347D
1233.246	0.271	1236057	REC_WORD_VV	29.999	n/a	<>	n/a	-999	11	[0, 0, 0]	n/a	catFR1	2	R1347D
1233.517	4.13	1236324	REC_END	n/a	n/a	n/a	n/a	-999	11	[0, 0, 0]	n/a	catFR1	2	R1347D
1237.647	10.35	1240461	COUNTDOWN_START	n/a	n/a	n/a	n/a	-999	12	[0, 0, 0]	n/a	catFR1	2	R1347D
1247.997	0.0	1250809	COUNTDOWN_END	n/a	n/a	n/a	n/a	-999	12	[0, 0, 0]	n/a	catFR1	2	R1347D
1247.997	2.166	1250809	ENCODING_START	n/a	n/a	n/a	n/a	-999	12	[0, 0, 0]	n/a	catFR1	2	R1347D
1250.163	1.617	1252974	WORD	n/a	wordpools/wordpool_categorized_EN.txt	OVEN	Appliances	1	12	[0, 0, 0]	n/a	catFR1	2	R1347D
1251.78	0.85	1254586	WORD_OFF	n/a	n/a	OVEN	Appliances	1	12	[0, 0, 0]	n/a	catFR1	2	R1347D
1252.63	1.617	1255442	WORD	n/a	wordpools/wordpool_categorized_EN.txt	DISHWASHER	Appliances	2	12	[0, 0, 0]	n/a	catFR1	2	R1347D
1254.247	0.915	1257054	WORD_OFF	n/a	n/a	DISHWASHER	Appliances	2	12	[0, 0, 0]	n/a	catFR1	2	R1347D
1255.162	1.601	1257979	WORD	n/a	wordpools/wordpool_categorized_EN.txt	DRUM	Instruments	3	12	[0, 0, 0]	n/a	catFR1	2	R1347D
1256.763	0.816	1259568	WORD_OFF	n/a	n/a	DRUM	Instruments	3	12	[0, 0, 0]	n/a	catFR1	2	R1347D
1257.579	1.601	1260391	WORD	n/a	wordpools/wordpool_categorized_EN.txt	GUITAR	Instruments	4	12	[0, 0, 0]	n/a	catFR1	2	R1347D
1259.18	0.983	1261992	WORD_OFF	n/a	n/a	GUITAR	Instruments	4	12	[0, 0, 0]	n/a	catFR1	2	R1347D
1260.163	1.6	1262972	WORD	n/a	wordpools/wordpool_categorized_EN.txt	COW	Farmanimals	5	12	[0, 0, 0]	n/a	catFR1	2	R1347D
1261.763	0.85	1264573	WORD_OFF	n/a	n/a	COW	Farmanimals	5	12	[0, 0, 0]	n/a	catFR1	2	R1347D
1262.613	1.6	1265419	WORD	n/a	wordpools/wordpool_categorized_EN.txt	HORSE	Farmanimals	6	12	[0, 0, 0]	n/a	catFR1	2	R1347D
1264.213	0.8	1267019	WORD_OFF	n/a	n/a	HORSE	Farmanimals	6	12	[0, 0, 0]	n/a	catFR1	2	R1347D
1265.013	1.617	1267820	WORD	n/a	wordpools/wordpool_categorized_EN.txt	MIXER	Appliances	7	12	[0, 0, 0]	n/a	catFR1	2	R1347D
1266.63	0.933	1269443	WORD_OFF	n/a	n/a	MIXER	Appliances	7	12	[0, 0, 0]	n/a	catFR1	2	R1347D
1267.563	1.616	1270367	WORD	n/a	wordpools/wordpool_categorized_EN.txt	BLENDER	Appliances	8	12	[0, 0, 0]	n/a	catFR1	2	R1347D
1269.179	0.917	1271991	WORD_OFF	n/a	n/a	BLENDER	Appliances	8	12	[0, 0, 0]	n/a	catFR1	2	R1347D
1270.096	1.6	1272904	WORD	n/a	wordpools/wordpool_categorized_EN.txt	ROOSTER	Farmanimals	9	12	[0, 0, 0]	n/a	catFR1	2	R1347D
1271.696	0.833	1274504	WORD_OFF	n/a	n/a	ROOSTER	Farmanimals	9	12	[0, 0, 0]	n/a	catFR1	2	R1347D
1272.529	1.601	1275339	WORD	n/a	wordpools/wordpool_categorized_EN.txt	PIG	Farmanimals	10	12	[0, 0, 0]	n/a	catFR1	2	R1347D
1274.13	0.899	1276939	WORD_OFF	n/a	n/a	PIG	Farmanimals	10	12	[0, 0, 0]	n/a	catFR1	2	R1347D
1275.029	1.6	1277841	WORD	n/a	wordpools/wordpool_categorized_EN.txt	FLUTE	Instruments	11	12	[0, 0, 0]	n/a	catFR1	2	R1347D
1276.629	1.0	1279442	WORD_OFF	n/a	n/a	FLUTE	Instruments	11	12	[0, 0, 0]	n/a	catFR1	2	R1347D
1277.629	1.618	1280434	WORD	n/a	wordpools/wordpool_categorized_EN.txt	TRUMPET	Instruments	12	12	[0, 0, 0]	n/a	catFR1	2	R1347D
1279.247	0.0	1282056	START	n/a	n/a	n/a	n/a	-999	12	[-999, -999, -999]	n/a	catFR1	2	R1347D
1279.246	0.001	1282057	WORD_OFF	n/a	n/a	TRUMPET	Instruments	12	12	[0, 0, 0]	n/a	catFR1	2	R1347D
1279.247	0.0	1282057	ENCODING_END	n/a	n/a	n/a	n/a	-999	12	[0, 0, 0]	n/a	catFR1	2	R1347D
1279.247	0.001	1282057	DISTRACT_START	n/a	n/a	n/a	n/a	-999	12	[0, 0, 0]	n/a	catFR1	2	R1347D
1279.248	11.749	1282057	PROB	11.734	n/a	n/a	n/a	-999	12	[1, 6, 6]	13.0	catFR1	2	R1347D
1290.997	11.933	1293805	PROB	11.916	n/a	n/a	n/a	-999	12	[3, 4, 8]	15.0	catFR1	2	R1347D
1302.93	0.0	1305738	STOP	n/a	n/a	n/a	n/a	-999	12	[-999, -999, -999]	n/a	catFR1	2	R1347D
1302.93	1.383	1305741	DISTRACT_END	n/a	n/a	n/a	n/a	-999	12	[0, 0, 0]	n/a	catFR1	2	R1347D
1304.313	1.962	1307116	REC_START	n/a	n/a	n/a	n/a	-999	12	[0, 0, 0]	n/a	catFR1	2	R1347D
1306.275	0.878	1309082	REC_WORD	1.962	n/a	OVEN	Appliances	1	12	[0, 0, 0]	n/a	catFR1	2	R1347D
1307.153	0.954	1309960	REC_WORD	2.84	n/a	COW	Farmanimals	5	12	[0, 0, 0]	n/a	catFR1	2	R1347D
1308.107	0.801	1310914	REC_WORD	3.794	n/a	PIG	Farmanimals	10	12	[0, 0, 0]	n/a	catFR1	2	R1347D
1308.908	19.479	1311715	REC_WORD	4.595	n/a	TRUMPET	Instruments	12	12	[0, 0, 0]	n/a	catFR1	2	R1347D
1328.387	6.207	1331193	REC_WORD	24.074	n/a	HORSE	Farmanimals	6	12	[0, 0, 0]	n/a	catFR1	2	R1347D
1334.594	0.0	1337395	REC_END	n/a	n/a	n/a	n/a	-999	12	[0, 0, 0]	n/a	catFR1	2	R1347D
