onset	duration	sample	trial_type	response_time	stim_file	item_name	category	serialpos	list	test	answer	experiment	session	subject
0.0	2.432	50282	INSTRUCT_START	n/a	n/a	n/a	n/a	-999	-999	[0, 0, 0]	n/a	catFR1	0	R1379E
2.432	38.3	52714	INSTRUCT_END	n/a	n/a	n/a	n/a	-999	-999	[0, 0, 0]	n/a	catFR1	0	R1379E
40.732	10.0	91018	COUNTDOWN_START	n/a	n/a	n/a	n/a	-999	-999	[0, 0, 0]	n/a	catFR1	0	R1379E
51.081	0.001	101365	COUNTDOWN_END	n/a	n/a	n/a	n/a	-999	-999	[0, 0, 0]	n/a	catFR1	0	R1379E
51.082	2.183	101365	ENCODING_START	n/a	n/a	n/a	n/a	-999	-1	[0, 0, 0]	n/a	catFR1	0	R1379E
53.265	1.6	103551	WORD	n/a	n/a	FIREMAN	Professions	1	-1	[0, 0, 0]	n/a	catFR1	0	R1379E
54.881	0.967	105162	WORD_OFF	n/a	n/a	FIREMAN	Professions	1	-1	[0, 0, 0]	n/a	catFR1	0	R1379E
55.848	1.6	106133	WORD	n/a	n/a	TEACHER	Professions	2	-1	[0, 0, 0]	n/a	catFR1	0	R1379E
57.448	0.867	107733	WORD_OFF	n/a	n/a	TEACHER	Professions	2	-1	[0, 0, 0]	n/a	catFR1	0	R1379E
58.315	1.6	108597	WORD	n/a	n/a	LEATHER	Materials	3	-1	[0, 0, 0]	n/a	catFR1	0	R1379E
59.931	0.817	110218	WORD_OFF	n/a	n/a	LEATHER	Materials	3	-1	[0, 0, 0]	n/a	catFR1	0	R1379E
60.748	1.6	111029	WORD	n/a	n/a	DENIM	Materials	4	-1	[0, 0, 0]	n/a	catFR1	0	R1379E
62.364	0.867	112650	WORD_OFF	n/a	n/a	DENIM	Materials	4	-1	[0, 0, 0]	n/a	catFR1	0	R1379E
63.231	1.6	113514	WORD	n/a	n/a	DAY	Times	5	-1	[0, 0, 0]	n/a	catFR1	0	R1379E
64.848	0.916	115125	WORD_OFF	n/a	n/a	DAY	Times	5	-1	[0, 0, 0]	n/a	catFR1	0	R1379E
65.764	1.6	116042	WORD	n/a	n/a	MINUTE	Times	6	-1	[0, 0, 0]	n/a	catFR1	0	R1379E
67.364	0.967	117642	WORD_OFF	n/a	n/a	MINUTE	Times	6	-1	[0, 0, 0]	n/a	catFR1	0	R1379E
68.331	1.6	118613	WORD	n/a	n/a	PLUMBER	Professions	7	-1	[0, 0, 0]	n/a	catFR1	0	R1379E
69.931	0.983	120213	WORD_OFF	n/a	n/a	PLUMBER	Professions	7	-1	[0, 0, 0]	n/a	catFR1	0	R1379E
70.914	1.6	121194	WORD	n/a	n/a	FARMER	Professions	8	-1	[0, 0, 0]	n/a	catFR1	0	R1379E
72.531	0.934	122815	WORD_OFF	n/a	n/a	FARMER	Professions	8	-1	[0, 0, 0]	n/a	catFR1	0	R1379E
73.465	1.6	123743	WORD	n/a	n/a	SILK	Materials	9	-1	[0, 0, 0]	n/a	catFR1	0	R1379E
75.081	0.934	125365	WORD_OFF	n/a	n/a	SILK	Materials	9	-1	[0, 0, 0]	n/a	catFR1	0	R1379E
76.015	1.6	126293	WORD	n/a	n/a	WOOL	Materials	10	-1	[0, 0, 0]	n/a	catFR1	0	R1379E
77.615	0.8	127903	WORD_OFF	n/a	n/a	WOOL	Materials	10	-1	[0, 0, 0]	n/a	catFR1	0	R1379E
78.415	1.6	128703	WORD	n/a	n/a	SECOND	Times	11	-1	[0, 0, 0]	n/a	catFR1	0	R1379E
80.016	0.983	130293	WORD_OFF	n/a	n/a	SECOND	Times	11	-1	[0, 0, 0]	n/a	catFR1	0	R1379E
80.999	1.6	131285	WORD	n/a	n/a	HOUR	Times	12	-1	[0, 0, 0]	n/a	catFR1	0	R1379E
82.615	0.002	132895	WORD_OFF	n/a	n/a	HOUR	Times	12	-1	[0, 0, 0]	n/a	catFR1	0	R1379E
82.617	0.001	132895	ENCODING_END	n/a	n/a	n/a	n/a	-999	-1	[0, 0, 0]	n/a	catFR1	0	R1379E
82.618	0.0	132895	DISTRACT_START	n/a	n/a	n/a	n/a	-999	-1	[0, 0, 0]	n/a	catFR1	0	R1379E
82.617	0.001	132897	PROB	5.249	n/a	n/a	n/a	-999	-1	[1, 5, 6]	12.0	catFR1	0	R1379E
82.618	5.264	132898	START	n/a	n/a	n/a	n/a	-999	-1	[-999, -999, -999]	n/a	catFR1	0	R1379E
87.882	3.0	138162	PROB	2.983	n/a	n/a	n/a	-999	-1	[5, 1, 8]	14.0	catFR1	0	R1379E
90.882	3.051	141162	PROB	3.033	n/a	n/a	n/a	-999	-1	[3, 2, 5]	10.0	catFR1	0	R1379E
93.933	5.183	144212	PROB	5.166	n/a	n/a	n/a	-999	-1	[6, 3, 6]	15.0	catFR1	0	R1379E
99.116	1.9	149395	PROB	1.883	n/a	n/a	n/a	-999	-1	[4, 1, 1]	6.0	catFR1	0	R1379E
101.016	2.683	151295	PROB	2.665	n/a	n/a	n/a	-999	-1	[1, 7, 3]	11.0	catFR1	0	R1379E
103.699	0.0	153978	STOP	n/a	n/a	n/a	n/a	-999	-1	[-999, -999, -999]	n/a	catFR1	0	R1379E
103.699	1.551	153983	DISTRACT_END	n/a	n/a	n/a	n/a	-999	-1	[0, 0, 0]	n/a	catFR1	0	R1379E
105.25	2.061	155529	REC_START	n/a	n/a	n/a	n/a	-999	-1	[0, 0, 0]	n/a	catFR1	0	R1379E
107.311	0.725	157590	REC_WORD	2.061	n/a	FIREMAN	Professions	1	-1	[0, 0, 0]	n/a	catFR1	0	R1379E
108.036	1.095	158315	REC_WORD	2.786	n/a	TEACHER	Professions	2	-1	[0, 0, 0]	n/a	catFR1	0	R1379E
109.131	2.2	159410	REC_WORD	3.881	n/a	PLUMBER	Professions	7	-1	[0, 0, 0]	n/a	catFR1	0	R1379E
111.331	5.657	161610	REC_WORD	6.081	n/a	SILK	Materials	9	-1	[0, 0, 0]	n/a	catFR1	0	R1379E
116.988	3.795	167267	REC_WORD	11.738	n/a	WOODS	n/a	-999	-1	[0, 0, 0]	n/a	catFR1	0	R1379E
120.783	0.475	171062	REC_WORD	15.533	n/a	FARMER	Professions	8	-1	[0, 0, 0]	n/a	catFR1	0	R1379E
121.258	14.292	171537	REC_WORD_VV	16.008	n/a	<>	n/a	-999	-1	[0, 0, 0]	n/a	catFR1	0	R1379E
135.55	7.464	185833	REC_END	n/a	n/a	n/a	n/a	-999	-1	[0, 0, 0]	n/a	catFR1	0	R1379E
143.014	10.0	193290	COUNTDOWN_START	n/a	n/a	n/a	n/a	-999	1	[0, 0, 0]	n/a	catFR1	0	R1379E
153.366	0.0	203647	COUNTDOWN_END	n/a	n/a	n/a	n/a	-999	1	[0, 0, 0]	n/a	catFR1	0	R1379E
153.366	2.015	203647	ENCODING_START	n/a	n/a	n/a	n/a	-999	1	[0, 0, 0]	n/a	catFR1	0	R1379E
155.381	1.6	205663	WORD	n/a	wordpools/wordpool_categorized_EN.txt	DRIZZLE	Weather	1	1	[0, 0, 0]	n/a	catFR1	0	R1379E
156.982	0.9	207274	WORD_OFF	n/a	n/a	DRIZZLE	Weather	1	1	[0, 0, 0]	n/a	catFR1	0	R1379E
157.882	1.6	208159	WORD	n/a	wordpools/wordpool_categorized_EN.txt	HUMIDITY	Weather	2	1	[0, 0, 0]	n/a	catFR1	0	R1379E
159.482	1.0	209759	WORD_OFF	n/a	n/a	HUMIDITY	Weather	2	1	[0, 0, 0]	n/a	catFR1	0	R1379E
160.482	1.6	210762	WORD	n/a	wordpools/wordpool_categorized_EN.txt	SOFA	Furniture	3	1	[0, 0, 0]	n/a	catFR1	0	R1379E
162.082	0.966	212362	WORD_OFF	n/a	n/a	SOFA	Furniture	3	1	[0, 0, 0]	n/a	catFR1	0	R1379E
163.048	1.6	213322	WORD	n/a	wordpools/wordpool_categorized_EN.txt	COUCH	Furniture	4	1	[0, 0, 0]	n/a	catFR1	0	R1379E
164.648	0.767	214922	WORD_OFF	n/a	n/a	COUCH	Furniture	4	1	[0, 0, 0]	n/a	catFR1	0	R1379E
165.415	1.6	215690	WORD	n/a	wordpools/wordpool_categorized_EN.txt	BLOUSE	Clothing	5	1	[0, 0, 0]	n/a	catFR1	0	R1379E
167.032	0.95	217311	WORD_OFF	n/a	n/a	BLOUSE	Clothing	5	1	[0, 0, 0]	n/a	catFR1	0	R1379E
167.982	1.6	218261	WORD	n/a	wordpools/wordpool_categorized_EN.txt	SKIRT	Clothing	6	1	[0, 0, 0]	n/a	catFR1	0	R1379E
169.599	0.882	219882	WORD_OFF	n/a	n/a	SKIRT	Clothing	6	1	[0, 0, 0]	n/a	catFR1	0	R1379E
170.481	1.6	220757	WORD	n/a	wordpools/wordpool_categorized_EN.txt	TORNADO	Weather	7	1	[0, 0, 0]	n/a	catFR1	0	R1379E
172.082	0.917	222357	WORD_OFF	n/a	n/a	TORNADO	Weather	7	1	[0, 0, 0]	n/a	catFR1	0	R1379E
172.999	1.6	223274	WORD	n/a	wordpools/wordpool_categorized_EN.txt	THUNDER	Weather	8	1	[0, 0, 0]	n/a	catFR1	0	R1379E
174.599	0.765	224874	WORD_OFF	n/a	n/a	THUNDER	Weather	8	1	[0, 0, 0]	n/a	catFR1	0	R1379E
175.364	1.6	225642	WORD	n/a	wordpools/wordpool_categorized_EN.txt	CHAIR	Furniture	9	1	[0, 0, 0]	n/a	catFR1	0	R1379E
176.965	0.934	227242	WORD_OFF	n/a	n/a	CHAIR	Furniture	9	1	[0, 0, 0]	n/a	catFR1	0	R1379E
177.899	1.6	228181	WORD	n/a	wordpools/wordpool_categorized_EN.txt	DESK	Furniture	10	1	[0, 0, 0]	n/a	catFR1	0	R1379E
179.515	0.833	229791	WORD_OFF	n/a	n/a	DESK	Furniture	10	1	[0, 0, 0]	n/a	catFR1	0	R1379E
180.348	1.6	230623	WORD	n/a	wordpools/wordpool_categorized_EN.txt	DRESS	Clothing	11	1	[0, 0, 0]	n/a	catFR1	0	R1379E
181.948	0.884	232223	WORD_OFF	n/a	n/a	DRESS	Clothing	11	1	[0, 0, 0]	n/a	catFR1	0	R1379E
182.832	1.6	233109	WORD	n/a	wordpools/wordpool_categorized_EN.txt	UNDERWEAR	Clothing	12	1	[0, 0, 0]	n/a	catFR1	0	R1379E
184.449	0.001	234725	PROB	4.466	n/a	n/a	n/a	-999	1	[6, 6, 8]	20.0	catFR1	0	R1379E
184.45	0.0	234726	START	n/a	n/a	n/a	n/a	-999	1	[-999, -999, -999]	n/a	catFR1	0	R1379E
184.448	0.002	234730	WORD_OFF	n/a	n/a	UNDERWEAR	Clothing	12	1	[0, 0, 0]	n/a	catFR1	0	R1379E
184.45	0.0	234730	ENCODING_END	n/a	n/a	n/a	n/a	-999	1	[0, 0, 0]	n/a	catFR1	0	R1379E
184.45	4.483	234730	DISTRACT_START	n/a	n/a	n/a	n/a	-999	1	[0, 0, 0]	n/a	catFR1	0	R1379E
188.933	2.799	239209	PROB	2.782	n/a	n/a	n/a	-999	1	[1, 5, 6]	12.0	catFR1	0	R1379E
191.732	4.119	242008	PROB	4.099	n/a	n/a	n/a	-999	1	[8, 7, 6]	21.0	catFR1	0	R1379E
195.851	2.764	246127	PROB	2.75	n/a	n/a	n/a	-999	1	[4, 5, 4]	13.0	catFR1	0	R1379E
198.615	6.949	248891	PROB	6.933	n/a	n/a	n/a	-999	1	[2, 2, 3]	7.0	catFR1	0	R1379E
205.564	0.0	255839	DISTRACT_END	n/a	n/a	n/a	n/a	-999	1	[0, 0, 0]	n/a	catFR1	0	R1379E
205.564	1.618	255840	STOP	n/a	n/a	n/a	n/a	-999	1	[-999, -999, -999]	n/a	catFR1	0	R1379E
207.182	3.132	257459	REC_START	n/a	n/a	n/a	n/a	-999	1	[0, 0, 0]	n/a	catFR1	0	R1379E
210.314	0.68	260590	REC_WORD	3.132	n/a	RAIN	n/a	-999	1	[0, 0, 0]	n/a	catFR1	0	R1379E
210.994	4.039	261270	REC_WORD	3.812	n/a	THUNDER	Weather	8	1	[0, 0, 0]	n/a	catFR1	0	R1379E
215.033	9.381	265308	REC_WORD	7.851	n/a	SILK	Materials	-999	1	[0, 0, 0]	n/a	catFR1	0	R1379E
224.414	13.066	274689	REC_WORD	17.232	n/a	WOODS	n/a	-999	1	[0, 0, 0]	n/a	catFR1	0	R1379E
237.48	2.618	287753	REC_END	n/a	n/a	n/a	n/a	-999	1	[0, 0, 0]	n/a	catFR1	0	R1379E
240.098	10.0	290378	COUNTDOWN_START	n/a	n/a	n/a	n/a	-999	2	[0, 0, 0]	n/a	catFR1	0	R1379E
250.449	0.0	300725	COUNTDOWN_END	n/a	n/a	n/a	n/a	-999	2	[0, 0, 0]	n/a	catFR1	0	R1379E
250.449	2.199	300725	ENCODING_START	n/a	n/a	n/a	n/a	-999	2	[0, 0, 0]	n/a	catFR1	0	R1379E
252.648	1.6	302922	WORD	n/a	wordpools/wordpool_categorized_EN.txt	COW	Farmanimals	1	2	[0, 0, 0]	n/a	catFR1	0	R1379E
254.248	0.95	304522	WORD_OFF	n/a	n/a	COW	Farmanimals	1	2	[0, 0, 0]	n/a	catFR1	0	R1379E
255.198	1.6	305471	WORD	n/a	wordpools/wordpool_categorized_EN.txt	HEN	Farmanimals	2	2	[0, 0, 0]	n/a	catFR1	0	R1379E
256.815	0.917	307093	WORD_OFF	n/a	n/a	HEN	Farmanimals	2	2	[0, 0, 0]	n/a	catFR1	0	R1379E
257.732	1.6	308010	WORD	n/a	wordpools/wordpool_categorized_EN.txt	SHIRT	Clothing	3	2	[0, 0, 0]	n/a	catFR1	0	R1379E
259.332	0.866	309610	WORD_OFF	n/a	n/a	SHIRT	Clothing	3	2	[0, 0, 0]	n/a	catFR1	0	R1379E
260.198	1.6	310474	WORD	n/a	wordpools/wordpool_categorized_EN.txt	PANTS	Clothing	4	2	[0, 0, 0]	n/a	catFR1	0	R1379E
261.798	0.816	312074	WORD_OFF	n/a	n/a	PANTS	Clothing	4	2	[0, 0, 0]	n/a	catFR1	0	R1379E
262.614	1.6	312885	WORD	n/a	wordpools/wordpool_categorized_EN.txt	PIGEON	Birds	5	2	[0, 0, 0]	n/a	catFR1	0	R1379E
264.215	0.95	314495	WORD_OFF	n/a	n/a	PIGEON	Birds	5	2	[0, 0, 0]	n/a	catFR1	0	R1379E
265.165	1.6	315445	WORD	n/a	wordpools/wordpool_categorized_EN.txt	ROBIN	Birds	6	2	[0, 0, 0]	n/a	catFR1	0	R1379E
266.782	0.866	317055	WORD_OFF	n/a	n/a	ROBIN	Birds	6	2	[0, 0, 0]	n/a	catFR1	0	R1379E
267.648	1.6	317919	WORD	n/a	wordpools/wordpool_categorized_EN.txt	SHORTS	Clothing	7	2	[0, 0, 0]	n/a	catFR1	0	R1379E
269.249	0.8	319519	WORD_OFF	n/a	n/a	SHORTS	Clothing	7	2	[0, 0, 0]	n/a	catFR1	0	R1379E
270.049	1.6	320319	WORD	n/a	wordpools/wordpool_categorized_EN.txt	SHOES	Clothing	8	2	[0, 0, 0]	n/a	catFR1	0	R1379E
271.665	0.9	321941	WORD_OFF	n/a	n/a	SHOES	Clothing	8	2	[0, 0, 0]	n/a	catFR1	0	R1379E
272.565	1.6	322837	WORD	n/a	wordpools/wordpool_categorized_EN.txt	CARDINAL	Birds	9	2	[0, 0, 0]	n/a	catFR1	0	R1379E
274.165	0.967	324437	WORD_OFF	n/a	n/a	CARDINAL	Birds	9	2	[0, 0, 0]	n/a	catFR1	0	R1379E
275.132	1.6	325407	WORD	n/a	wordpools/wordpool_categorized_EN.txt	DUCK	Birds	10	2	[0, 0, 0]	n/a	catFR1	0	R1379E
276.748	0.884	327018	WORD_OFF	n/a	n/a	DUCK	Birds	10	2	[0, 0, 0]	n/a	catFR1	0	R1379E
277.632	1.6	327903	WORD	n/a	wordpools/wordpool_categorized_EN.txt	LAMB	Farmanimals	11	2	[0, 0, 0]	n/a	catFR1	0	R1379E
279.249	0.933	329525	WORD_OFF	n/a	n/a	LAMB	Farmanimals	11	2	[0, 0, 0]	n/a	catFR1	0	R1379E
280.182	1.6	330453	WORD	n/a	wordpools/wordpool_categorized_EN.txt	GOAT	Farmanimals	12	2	[0, 0, 0]	n/a	catFR1	0	R1379E
281.799	0.001	332072	PROB	3.3	n/a	n/a	n/a	-999	2	[3, 4, 5]	12.0	catFR1	0	R1379E
281.8	0.0	332073	START	n/a	n/a	n/a	n/a	-999	2	[-999, -999, -999]	n/a	catFR1	0	R1379E
281.798	0.002	332074	WORD_OFF	n/a	n/a	GOAT	Farmanimals	12	2	[0, 0, 0]	n/a	catFR1	0	R1379E
281.8	0.0	332074	ENCODING_END	n/a	n/a	n/a	n/a	-999	2	[0, 0, 0]	n/a	catFR1	0	R1379E
281.8	3.315	332074	DISTRACT_START	n/a	n/a	n/a	n/a	-999	2	[0, 0, 0]	n/a	catFR1	0	R1379E
285.115	2.368	335388	PROB	2.35	n/a	n/a	n/a	-999	2	[3, 1, 5]	9.0	catFR1	0	R1379E
287.483	2.85	337756	PROB	2.832	n/a	n/a	n/a	-999	2	[6, 8, 7]	21.0	catFR1	0	R1379E
290.333	2.516	340606	PROB	2.499	n/a	n/a	n/a	-999	2	[7, 8, 5]	20.0	catFR1	0	R1379E
292.849	2.266	343122	PROB	2.25	n/a	n/a	n/a	-999	2	[7, 1, 3]	11.0	catFR1	0	R1379E
295.115	2.016	345388	PROB	2.0	n/a	n/a	n/a	-999	2	[1, 1, 3]	5.0	catFR1	0	R1379E
297.131	2.534	347404	PROB	2.517	n/a	n/a	n/a	-999	2	[6, 7, 1]	14.0	catFR1	0	R1379E
299.665	4.067	349938	PROB	4.05	n/a	n/a	n/a	-999	2	[2, 3, 8]	13.0	catFR1	0	R1379E
303.732	0.0	354005	DISTRACT_END	n/a	n/a	n/a	n/a	-999	2	[0, 0, 0]	n/a	catFR1	0	R1379E
303.732	1.683	354005	STOP	n/a	n/a	n/a	n/a	-999	2	[-999, -999, -999]	n/a	catFR1	0	R1379E
305.415	2.029	355689	REC_START	n/a	n/a	n/a	n/a	-999	2	[0, 0, 0]	n/a	catFR1	0	R1379E
307.444	0.469	357716	REC_WORD	2.029	n/a	COW	Farmanimals	1	2	[0, 0, 0]	n/a	catFR1	0	R1379E
307.913	1.477	358185	REC_WORD	2.498	n/a	HEN	Farmanimals	2	2	[0, 0, 0]	n/a	catFR1	0	R1379E
309.39	26.325	359662	REC_WORD	3.975	n/a	SHIRT	Clothing	3	2	[0, 0, 0]	n/a	catFR1	0	R1379E
335.715	1.667	385993	REC_END	n/a	n/a	n/a	n/a	-999	2	[0, 0, 0]	n/a	catFR1	0	R1379E
337.382	10.0	387658	COUNTDOWN_START	n/a	n/a	n/a	n/a	-999	3	[0, 0, 0]	n/a	catFR1	0	R1379E
347.732	0.001	398005	COUNTDOWN_END	n/a	n/a	n/a	n/a	-999	3	[0, 0, 0]	n/a	catFR1	0	R1379E
347.733	1.981	398005	ENCODING_START	n/a	n/a	n/a	n/a	-999	3	[0, 0, 0]	n/a	catFR1	0	R1379E
349.714	1.6	399989	WORD	n/a	wordpools/wordpool_categorized_EN.txt	STAPLER	Officesupplies	1	3	[0, 0, 0]	n/a	catFR1	0	R1379E
351.331	0.836	401599	WORD_OFF	n/a	n/a	STAPLER	Officesupplies	1	3	[0, 0, 0]	n/a	catFR1	0	R1379E
352.167	1.6	402442	WORD	n/a	wordpools/wordpool_categorized_EN.txt	GLUE	Officesupplies	2	3	[0, 0, 0]	n/a	catFR1	0	R1379E
353.765	0.833	404042	WORD_OFF	n/a	n/a	GLUE	Officesupplies	2	3	[0, 0, 0]	n/a	catFR1	0	R1379E
354.598	1.6	404874	WORD	n/a	wordpools/wordpool_categorized_EN.txt	LEVEL	Tools	3	3	[0, 0, 0]	n/a	catFR1	0	R1379E
356.198	1.0	406474	WORD_OFF	n/a	n/a	LEVEL	Tools	3	3	[0, 0, 0]	n/a	catFR1	0	R1379E
357.198	1.6	407466	WORD	n/a	wordpools/wordpool_categorized_EN.txt	HAMMER	Tools	4	3	[0, 0, 0]	n/a	catFR1	0	R1379E
358.798	0.95	409066	WORD_OFF	n/a	n/a	HAMMER	Tools	4	3	[0, 0, 0]	n/a	catFR1	0	R1379E
359.748	1.6	410015	WORD	n/a	wordpools/wordpool_categorized_EN.txt	PEAS	Vegetables	5	3	[0, 0, 0]	n/a	catFR1	0	R1379E
361.349	0.983	411626	WORD_OFF	n/a	n/a	PEAS	Vegetables	5	3	[0, 0, 0]	n/a	catFR1	0	R1379E
362.332	1.6	412607	WORD	n/a	wordpools/wordpool_categorized_EN.txt	SPINACH	Vegetables	6	3	[0, 0, 0]	n/a	catFR1	0	R1379E
363.932	0.816	414207	WORD_OFF	n/a	n/a	SPINACH	Vegetables	6	3	[0, 0, 0]	n/a	catFR1	0	R1379E
364.748	1.6	415018	WORD	n/a	wordpools/wordpool_categorized_EN.txt	BINDER	Officesupplies	7	3	[0, 0, 0]	n/a	catFR1	0	R1379E
366.365	0.95	416639	WORD_OFF	n/a	n/a	BINDER	Officesupplies	7	3	[0, 0, 0]	n/a	catFR1	0	R1379E
367.315	1.6	417589	WORD	n/a	wordpools/wordpool_categorized_EN.txt	MARKER	Officesupplies	8	3	[0, 0, 0]	n/a	catFR1	0	R1379E
368.932	0.917	419199	WORD_OFF	n/a	n/a	MARKER	Officesupplies	8	3	[0, 0, 0]	n/a	catFR1	0	R1379E
369.849	1.6	420117	WORD	n/a	wordpools/wordpool_categorized_EN.txt	CELERY	Vegetables	9	3	[0, 0, 0]	n/a	catFR1	0	R1379E
371.465	0.783	421738	WORD_OFF	n/a	n/a	CELERY	Vegetables	9	3	[0, 0, 0]	n/a	catFR1	0	R1379E
372.248	1.6	422517	WORD	n/a	wordpools/wordpool_categorized_EN.txt	POTATO	Vegetables	10	3	[0, 0, 0]	n/a	catFR1	0	R1379E
373.849	0.85	424117	WORD_OFF	n/a	n/a	POTATO	Vegetables	10	3	[0, 0, 0]	n/a	catFR1	0	R1379E
374.699	1.6	424970	WORD	n/a	wordpools/wordpool_categorized_EN.txt	SHOVEL	Tools	11	3	[0, 0, 0]	n/a	catFR1	0	R1379E
376.315	0.8	426591	WORD_OFF	n/a	n/a	SHOVEL	Tools	11	3	[0, 0, 0]	n/a	catFR1	0	R1379E
377.115	1.6	427391	WORD	n/a	wordpools/wordpool_categorized_EN.txt	DRILL	Tools	12	3	[0, 0, 0]	n/a	catFR1	0	R1379E
378.716	0.001	428986	PROB	3.166	n/a	n/a	n/a	-999	3	[5, 3, 6]	14.0	catFR1	0	R1379E
378.717	0.0	428987	START	n/a	n/a	n/a	n/a	-999	3	[-999, -999, -999]	n/a	catFR1	0	R1379E
378.715	0.002	428991	WORD_OFF	n/a	n/a	DRILL	Tools	12	3	[0, 0, 0]	n/a	catFR1	0	R1379E
378.717	0.0	428991	ENCODING_END	n/a	n/a	n/a	n/a	-999	3	[0, 0, 0]	n/a	catFR1	0	R1379E
378.717	3.182	428991	DISTRACT_START	n/a	n/a	n/a	n/a	-999	3	[0, 0, 0]	n/a	catFR1	0	R1379E
381.899	2.267	432169	PROB	2.249	n/a	n/a	n/a	-999	3	[1, 8, 8]	17.0	catFR1	0	R1379E
384.166	4.104	434436	PROB	4.083	n/a	n/a	n/a	-999	3	[8, 1, 7]	16.0	catFR1	0	R1379E
388.27	1.912	438540	PROB	1.899	n/a	n/a	n/a	-999	3	[3, 5, 4]	12.0	catFR1	0	R1379E
390.182	1.75	440452	PROB	1.733	n/a	n/a	n/a	-999	3	[1, 2, 3]	6.0	catFR1	0	R1379E
391.932	1.834	442202	PROB	1.816	n/a	n/a	n/a	-999	3	[1, 1, 4]	6.0	catFR1	0	R1379E
393.766	2.1	444036	PROB	2.082	n/a	n/a	n/a	-999	3	[2, 8, 6]	16.0	catFR1	0	R1379E
395.866	2.5	446136	PROB	2.483	n/a	n/a	n/a	-999	3	[6, 7, 4]	17.0	catFR1	0	R1379E
398.366	3.302	448635	PROB	3.283	n/a	n/a	n/a	-999	3	[6, 2, 2]	10.0	catFR1	0	R1379E
401.668	0.0	451935	DISTRACT_END	n/a	n/a	n/a	n/a	-999	3	[0, 0, 0]	n/a	catFR1	0	R1379E
401.668	1.83	451937	STOP	n/a	n/a	n/a	n/a	-999	3	[-999, -999, -999]	n/a	catFR1	0	R1379E
403.498	2.353	453769	REC_START	n/a	n/a	n/a	n/a	-999	3	[0, 0, 0]	n/a	catFR1	0	R1379E
405.851	1.171	456120	REC_WORD	2.353	n/a	STAPLER	Officesupplies	1	3	[0, 0, 0]	n/a	catFR1	0	R1379E
407.022	12.991	457291	REC_WORD	3.524	n/a	PEN	n/a	-999	3	[0, 0, 0]	n/a	catFR1	0	R1379E
420.013	13.801	470282	REC_WORD	16.515	n/a	HAMMER	Tools	4	3	[0, 0, 0]	n/a	catFR1	0	R1379E
433.814	2.468	484083	REC_END	n/a	n/a	n/a	n/a	-999	3	[0, 0, 0]	n/a	catFR1	0	R1379E
436.282	10.0	486548	COUNTDOWN_START	n/a	n/a	n/a	n/a	-999	4	[0, 0, 0]	n/a	catFR1	0	R1379E
446.632	0.0	496906	COUNTDOWN_END	n/a	n/a	n/a	n/a	-999	4	[0, 0, 0]	n/a	catFR1	0	R1379E
446.632	1.966	496906	ENCODING_START	n/a	n/a	n/a	n/a	-999	4	[0, 0, 0]	n/a	catFR1	0	R1379E
448.598	1.6	498868	WORD	n/a	wordpools/wordpool_categorized_EN.txt	PANDA	Zoo	1	4	[0, 0, 0]	n/a	catFR1	0	R1379E
450.198	0.834	500468	WORD_OFF	n/a	n/a	PANDA	Zoo	1	4	[0, 0, 0]	n/a	catFR1	0	R1379E
451.032	1.6	501300	WORD	n/a	wordpools/wordpool_categorized_EN.txt	ELEPHANT	Zoo	2	4	[0, 0, 0]	n/a	catFR1	0	R1379E
452.632	0.85	502900	WORD_OFF	n/a	n/a	ELEPHANT	Zoo	2	4	[0, 0, 0]	n/a	catFR1	0	R1379E
453.482	1.6	503754	WORD	n/a	wordpools/wordpool_categorized_EN.txt	ORANGE	Fruit	3	4	[0, 0, 0]	n/a	catFR1	0	R1379E
455.099	0.9	505364	WORD_OFF	n/a	n/a	ORANGE	Fruit	3	4	[0, 0, 0]	n/a	catFR1	0	R1379E
455.999	1.6	506271	WORD	n/a	wordpools/wordpool_categorized_EN.txt	PEAR	Fruit	4	4	[0, 0, 0]	n/a	catFR1	0	R1379E
457.615	0.817	507882	WORD_OFF	n/a	n/a	PEAR	Fruit	4	4	[0, 0, 0]	n/a	catFR1	0	R1379E
458.432	1.6	508703	WORD	n/a	wordpools/wordpool_categorized_EN.txt	EVERGREEN	Trees	5	4	[0, 0, 0]	n/a	catFR1	0	R1379E
460.032	0.85	510303	WORD_OFF	n/a	n/a	EVERGREEN	Trees	5	4	[0, 0, 0]	n/a	catFR1	0	R1379E
460.882	1.6	511146	WORD	n/a	wordpools/wordpool_categorized_EN.txt	ELM	Trees	6	4	[0, 0, 0]	n/a	catFR1	0	R1379E
462.498	0.966	512767	WORD_OFF	n/a	n/a	ELM	Trees	6	4	[0, 0, 0]	n/a	catFR1	0	R1379E
463.464	1.6	513738	WORD	n/a	wordpools/wordpool_categorized_EN.txt	GORILLA	Zoo	7	4	[0, 0, 0]	n/a	catFR1	0	R1379E
465.065	0.967	515338	WORD_OFF	n/a	n/a	GORILLA	Zoo	7	4	[0, 0, 0]	n/a	catFR1	0	R1379E
466.032	1.6	516298	WORD	n/a	wordpools/wordpool_categorized_EN.txt	GIRAFFE	Zoo	8	4	[0, 0, 0]	n/a	catFR1	0	R1379E
467.632	0.833	517898	WORD_OFF	n/a	n/a	GIRAFFE	Zoo	8	4	[0, 0, 0]	n/a	catFR1	0	R1379E
468.465	1.6	518730	WORD	n/a	wordpools/wordpool_categorized_EN.txt	PLUM	Fruit	9	4	[0, 0, 0]	n/a	catFR1	0	R1379E
470.065	0.766	520330	WORD_OFF	n/a	n/a	PLUM	Fruit	9	4	[0, 0, 0]	n/a	catFR1	0	R1379E
470.831	1.6	521098	WORD	n/a	wordpools/wordpool_categorized_EN.txt	GRAPE	Fruit	10	4	[0, 0, 0]	n/a	catFR1	0	R1379E
472.431	0.968	522698	WORD_OFF	n/a	n/a	GRAPE	Fruit	10	4	[0, 0, 0]	n/a	catFR1	0	R1379E
473.399	1.6	523668	WORD	n/a	wordpools/wordpool_categorized_EN.txt	OAK	Trees	11	4	[0, 0, 0]	n/a	catFR1	0	R1379E
474.999	0.952	525268	WORD_OFF	n/a	n/a	OAK	Trees	11	4	[0, 0, 0]	n/a	catFR1	0	R1379E
475.951	1.6	526218	WORD	n/a	wordpools/wordpool_categorized_EN.txt	WILLOW	Trees	12	4	[0, 0, 0]	n/a	catFR1	0	R1379E
477.565	0.001	527828	WORD_OFF	n/a	n/a	WILLOW	Trees	12	4	[0, 0, 0]	n/a	catFR1	0	R1379E
477.566	0.001	527833	PROB	3.949	n/a	n/a	n/a	-999	4	[6, 3, 4]	13.0	catFR1	0	R1379E
477.567	0.0	527834	START	n/a	n/a	n/a	n/a	-999	4	[-999, -999, -999]	n/a	catFR1	0	R1379E
477.567	0.0	527839	ENCODING_END	n/a	n/a	n/a	n/a	-999	4	[0, 0, 0]	n/a	catFR1	0	R1379E
477.567	3.965	527839	DISTRACT_START	n/a	n/a	n/a	n/a	-999	4	[0, 0, 0]	n/a	catFR1	0	R1379E
481.532	2.217	531799	PROB	2.2	n/a	n/a	n/a	-999	4	[2, 6, 1]	9.0	catFR1	0	R1379E
483.749	2.4	534016	PROB	2.383	n/a	n/a	n/a	-999	4	[5, 8, 2]	15.0	catFR1	0	R1379E
486.149	2.834	536416	PROB	2.816	n/a	n/a	n/a	-999	4	[8, 5, 6]	19.0	catFR1	0	R1379E
488.983	2.383	539249	PROB	2.366	n/a	n/a	n/a	-999	4	[1, 5, 4]	10.0	catFR1	0	R1379E
491.366	1.966	541632	PROB	1.949	n/a	n/a	n/a	-999	4	[7, 3, 5]	15.0	catFR1	0	R1379E
493.332	2.001	543598	PROB	1.983	n/a	n/a	n/a	-999	4	[8, 7, 6]	21.0	catFR1	0	R1379E
495.333	2.216	545599	PROB	2.199	n/a	n/a	n/a	-999	4	[8, 1, 3]	12.0	catFR1	0	R1379E
497.549	1.599	547815	PROB	1.583	n/a	n/a	n/a	-999	4	[1, 2, 1]	4.0	catFR1	0	R1379E
499.148	0.0	549414	STOP	n/a	n/a	n/a	n/a	-999	4	[-999, -999, -999]	n/a	catFR1	0	R1379E
499.148	1.666	549418	DISTRACT_END	n/a	n/a	n/a	n/a	-999	4	[0, 0, 0]	n/a	catFR1	0	R1379E
500.814	5.053	551080	REC_START	n/a	n/a	n/a	n/a	-999	4	[0, 0, 0]	n/a	catFR1	0	R1379E
505.867	1.212	556133	REC_WORD	5.053	n/a	HEN	Farmanimals	-999	4	[0, 0, 0]	n/a	catFR1	0	R1379E
507.079	1.484	557345	REC_WORD	6.265	n/a	STAPLER	Officesupplies	-999	4	[0, 0, 0]	n/a	catFR1	0	R1379E
508.563	4.98	558829	REC_WORD	7.749	n/a	PAPER	n/a	-999	4	[0, 0, 0]	n/a	catFR1	0	R1379E
513.543	0.587	563809	REC_WORD	12.729	n/a	COW	Farmanimals	-999	4	[0, 0, 0]	n/a	catFR1	0	R1379E
514.13	16.99	564396	REC_WORD	13.316	n/a	PEN	n/a	-999	4	[0, 0, 0]	n/a	catFR1	0	R1379E
531.12	2.028	581384	REC_END	n/a	n/a	n/a	n/a	-999	4	[0, 0, 0]	n/a	catFR1	0	R1379E
533.148	10.0	583412	COUNTDOWN_START	n/a	n/a	n/a	n/a	-999	5	[0, 0, 0]	n/a	catFR1	0	R1379E
543.499	0.0	593759	COUNTDOWN_END	n/a	n/a	n/a	n/a	-999	5	[0, 0, 0]	n/a	catFR1	0	R1379E
543.499	2.116	593770	ENCODING_START	n/a	n/a	n/a	n/a	-999	5	[0, 0, 0]	n/a	catFR1	0	R1379E
545.615	1.6	595882	WORD	n/a	wordpools/wordpool_categorized_EN.txt	BASS	Instruments	1	5	[0, 0, 0]	n/a	catFR1	0	R1379E
547.234	0.781	597503	WORD_OFF	n/a	n/a	BASS	Instruments	1	5	[0, 0, 0]	n/a	catFR1	0	R1379E
548.015	1.6	598282	WORD	n/a	wordpools/wordpool_categorized_EN.txt	ORGAN	Instruments	2	5	[0, 0, 0]	n/a	catFR1	0	R1379E
549.615	0.783	599882	WORD_OFF	n/a	n/a	ORGAN	Instruments	2	5	[0, 0, 0]	n/a	catFR1	0	R1379E
550.398	1.6	600660	WORD	n/a	wordpools/wordpool_categorized_EN.txt	CALF	Farmanimals	3	5	[0, 0, 0]	n/a	catFR1	0	R1379E
551.998	1.0	602260	WORD_OFF	n/a	n/a	CALF	Farmanimals	3	5	[0, 0, 0]	n/a	catFR1	0	R1379E
552.998	1.6	603263	WORD	n/a	wordpools/wordpool_categorized_EN.txt	CHICKEN	Farmanimals	4	5	[0, 0, 0]	n/a	catFR1	0	R1379E
554.598	0.784	604863	WORD_OFF	n/a	n/a	CHICKEN	Farmanimals	4	5	[0, 0, 0]	n/a	catFR1	0	R1379E
555.382	1.6	605652	WORD	n/a	wordpools/wordpool_categorized_EN.txt	CHIMPANZEE	Zoo	5	5	[0, 0, 0]	n/a	catFR1	0	R1379E
556.999	0.999	607263	WORD_OFF	n/a	n/a	CHIMPANZEE	Zoo	5	5	[0, 0, 0]	n/a	catFR1	0	R1379E
557.998	1.6	608266	WORD	n/a	wordpools/wordpool_categorized_EN.txt	CHEETAH	Zoo	6	5	[0, 0, 0]	n/a	catFR1	0	R1379E
559.598	0.8	609866	WORD_OFF	n/a	n/a	CHEETAH	Zoo	6	5	[0, 0, 0]	n/a	catFR1	0	R1379E
560.398	1.6	610666	WORD	n/a	wordpools/wordpool_categorized_EN.txt	PIG	Farmanimals	7	5	[0, 0, 0]	n/a	catFR1	0	R1379E
561.999	0.983	612266	WORD_OFF	n/a	n/a	PIG	Farmanimals	7	5	[0, 0, 0]	n/a	catFR1	0	R1379E
562.982	1.6	613247	WORD	n/a	wordpools/wordpool_categorized_EN.txt	HORSE	Farmanimals	8	5	[0, 0, 0]	n/a	catFR1	0	R1379E
564.599	0.816	614868	WORD_OFF	n/a	n/a	HORSE	Farmanimals	8	5	[0, 0, 0]	n/a	catFR1	0	R1379E
565.415	1.6	615679	WORD	n/a	wordpools/wordpool_categorized_EN.txt	BANJO	Instruments	9	5	[0, 0, 0]	n/a	catFR1	0	R1379E
567.015	0.934	617279	WORD_OFF	n/a	n/a	BANJO	Instruments	9	5	[0, 0, 0]	n/a	catFR1	0	R1379E
567.949	1.6	618218	WORD	n/a	wordpools/wordpool_categorized_EN.txt	DRUM	Instruments	10	5	[0, 0, 0]	n/a	catFR1	0	R1379E
569.565	0.817	619828	WORD_OFF	n/a	n/a	DRUM	Instruments	10	5	[0, 0, 0]	n/a	catFR1	0	R1379E
570.382	1.6	620650	WORD	n/a	wordpools/wordpool_categorized_EN.txt	LION	Zoo	11	5	[0, 0, 0]	n/a	catFR1	0	R1379E
571.982	0.9	622250	WORD_OFF	n/a	n/a	LION	Zoo	11	5	[0, 0, 0]	n/a	catFR1	0	R1379E
572.882	1.6	623146	WORD	n/a	wordpools/wordpool_categorized_EN.txt	ZEBRA	Zoo	12	5	[0, 0, 0]	n/a	catFR1	0	R1379E
574.482	0.002	624746	WORD_OFF	n/a	n/a	ZEBRA	Zoo	12	5	[0, 0, 0]	n/a	catFR1	0	R1379E
574.484	0.0	624746	ENCODING_END	n/a	n/a	n/a	n/a	-999	5	[0, 0, 0]	n/a	catFR1	0	R1379E
574.484	0.0	624746	DISTRACT_START	n/a	n/a	n/a	n/a	-999	5	[0, 0, 0]	n/a	catFR1	0	R1379E
574.483	0.001	624747	PROB	4.549	n/a	n/a	n/a	-999	5	[1, 4, 3]	8.0	catFR1	0	R1379E
574.484	4.565	624748	START	n/a	n/a	n/a	n/a	-999	5	[-999, -999, -999]	n/a	catFR1	0	R1379E
579.049	2.103	629313	PROB	2.083	n/a	n/a	n/a	-999	5	[5, 8, 6]	19.0	catFR1	0	R1379E
581.152	2.597	631415	PROB	2.583	n/a	n/a	n/a	-999	5	[4, 1, 2]	7.0	catFR1	0	R1379E
583.749	2.549	634012	PROB	2.533	n/a	n/a	n/a	-999	5	[6, 1, 4]	11.0	catFR1	0	R1379E
586.298	1.834	636561	PROB	1.817	n/a	n/a	n/a	-999	5	[3, 3, 1]	7.0	catFR1	0	R1379E
588.132	2.867	638395	PROB	2.85	n/a	n/a	n/a	-999	5	[6, 1, 5]	12.0	catFR1	0	R1379E
590.999	2.2	641262	PROB	2.182	n/a	n/a	n/a	-999	5	[8, 4, 1]	14.0	catFR1	0	R1379E
593.199	2.699	643462	PROB	2.683	n/a	n/a	n/a	-999	5	[6, 6, 5]	17.0	catFR1	0	R1379E
595.898	0.0	646161	STOP	n/a	n/a	n/a	n/a	-999	5	[-999, -999, -999]	n/a	catFR1	0	R1379E
595.898	1.883	646164	DISTRACT_END	n/a	n/a	n/a	n/a	-999	5	[0, 0, 0]	n/a	catFR1	0	R1379E
597.781	3.859	648040	REC_START	n/a	n/a	n/a	n/a	-999	5	[0, 0, 0]	n/a	catFR1	0	R1379E
601.64	0.515	651903	REC_WORD	3.859	n/a	LION	Zoo	11	5	[0, 0, 0]	n/a	catFR1	0	R1379E
602.155	25.93	652418	REC_WORD	4.374	n/a	ZEBRA	Zoo	12	5	[0, 0, 0]	n/a	catFR1	0	R1379E
628.085	1.879	678344	REC_END	n/a	n/a	n/a	n/a	-999	5	[0, 0, 0]	n/a	catFR1	0	R1379E
629.964	10.0	680234	COUNTDOWN_START	n/a	n/a	n/a	n/a	-999	6	[0, 0, 0]	n/a	catFR1	0	R1379E
640.316	0.0	690580	COUNTDOWN_END	n/a	n/a	n/a	n/a	-999	6	[0, 0, 0]	n/a	catFR1	0	R1379E
640.316	2.048	690580	ENCODING_START	n/a	n/a	n/a	n/a	-999	6	[0, 0, 0]	n/a	catFR1	0	R1379E
642.364	1.6	692628	WORD	n/a	wordpools/wordpool_categorized_EN.txt	TIGER	Zoo	1	6	[0, 0, 0]	n/a	catFR1	0	R1379E
643.965	0.817	694228	WORD_OFF	n/a	n/a	TIGER	Zoo	1	6	[0, 0, 0]	n/a	catFR1	0	R1379E
644.782	1.6	695039	WORD	n/a	wordpools/wordpool_categorized_EN.txt	MONKEY	Zoo	2	6	[0, 0, 0]	n/a	catFR1	0	R1379E
646.398	0.784	696660	WORD_OFF	n/a	n/a	MONKEY	Zoo	2	6	[0, 0, 0]	n/a	catFR1	0	R1379E
647.182	1.6	697439	WORD	n/a	wordpools/wordpool_categorized_EN.txt	TABLE	Furniture	3	6	[0, 0, 0]	n/a	catFR1	0	R1379E
648.782	0.783	699039	WORD_OFF	n/a	n/a	TABLE	Furniture	3	6	[0, 0, 0]	n/a	catFR1	0	R1379E
649.565	1.6	699828	WORD	n/a	wordpools/wordpool_categorized_EN.txt	RECLINER	Furniture	4	6	[0, 0, 0]	n/a	catFR1	0	R1379E
651.165	0.917	701428	WORD_OFF	n/a	n/a	RECLINER	Furniture	4	6	[0, 0, 0]	n/a	catFR1	0	R1379E
652.082	1.6	702346	WORD	n/a	wordpools/wordpool_categorized_EN.txt	PUDDING	Desserts	5	6	[0, 0, 0]	n/a	catFR1	0	R1379E
653.682	0.983	703946	WORD_OFF	n/a	n/a	PUDDING	Desserts	5	6	[0, 0, 0]	n/a	catFR1	0	R1379E
654.665	1.6	704927	WORD	n/a	wordpools/wordpool_categorized_EN.txt	COBBLER	Desserts	6	6	[0, 0, 0]	n/a	catFR1	0	R1379E
656.282	0.9	706548	WORD_OFF	n/a	n/a	COBBLER	Desserts	6	6	[0, 0, 0]	n/a	catFR1	0	R1379E
657.182	1.6	707444	WORD	n/a	wordpools/wordpool_categorized_EN.txt	BEAR	Zoo	7	6	[0, 0, 0]	n/a	catFR1	0	R1379E
658.782	0.8	709044	WORD_OFF	n/a	n/a	BEAR	Zoo	7	6	[0, 0, 0]	n/a	catFR1	0	R1379E
659.582	1.6	709844	WORD	n/a	wordpools/wordpool_categorized_EN.txt	ORANGUTAN	Zoo	8	6	[0, 0, 0]	n/a	catFR1	0	R1379E
661.182	0.983	711444	WORD_OFF	n/a	n/a	ORANGUTAN	Zoo	8	6	[0, 0, 0]	n/a	catFR1	0	R1379E
662.165	1.6	712426	WORD	n/a	wordpools/wordpool_categorized_EN.txt	PASTRY	Desserts	9	6	[0, 0, 0]	n/a	catFR1	0	R1379E
663.782	0.783	714047	WORD_OFF	n/a	n/a	PASTRY	Desserts	9	6	[0, 0, 0]	n/a	catFR1	0	R1379E
664.565	1.6	714826	WORD	n/a	wordpools/wordpool_categorized_EN.txt	CAKE	Desserts	10	6	[0, 0, 0]	n/a	catFR1	0	R1379E
666.165	0.917	716426	WORD_OFF	n/a	n/a	CAKE	Desserts	10	6	[0, 0, 0]	n/a	catFR1	0	R1379E
667.082	1.6	717343	WORD	n/a	wordpools/wordpool_categorized_EN.txt	CABINET	Furniture	11	6	[0, 0, 0]	n/a	catFR1	0	R1379E
668.682	0.8	718943	WORD_OFF	n/a	n/a	CABINET	Furniture	11	6	[0, 0, 0]	n/a	catFR1	0	R1379E
669.482	1.6	719743	WORD	n/a	wordpools/wordpool_categorized_EN.txt	NIGHTSTAND	Furniture	12	6	[0, 0, 0]	n/a	catFR1	0	R1379E
671.082	0.001	721343	WORD_OFF	n/a	n/a	NIGHTSTAND	Furniture	12	6	[0, 0, 0]	n/a	catFR1	0	R1379E
671.083	0.001	721343	ENCODING_END	n/a	n/a	n/a	n/a	-999	6	[0, 0, 0]	n/a	catFR1	0	R1379E
671.084	0.0	721343	DISTRACT_START	n/a	n/a	n/a	n/a	-999	6	[0, 0, 0]	n/a	catFR1	0	R1379E
671.083	0.001	721343	PROB	3.199	n/a	n/a	n/a	-999	6	[4, 6, 4]	14.0	catFR1	0	R1379E
671.084	3.214	721344	START	n/a	n/a	n/a	n/a	-999	6	[-999, -999, -999]	n/a	catFR1	0	R1379E
674.298	2.134	724558	PROB	2.116	n/a	n/a	n/a	-999	6	[3, 4, 8]	15.0	catFR1	0	R1379E
676.432	4.267	726692	PROB	4.249	n/a	n/a	n/a	-999	6	[4, 8, 6]	18.0	catFR1	0	R1379E
680.699	4.35	730959	PROB	4.333	n/a	n/a	n/a	-999	6	[2, 8, 8]	20.0	catFR1	0	R1379E
685.049	2.282	735309	PROB	2.266	n/a	n/a	n/a	-999	6	[8, 8, 1]	17.0	catFR1	0	R1379E
687.331	2.018	737591	PROB	2.0	n/a	n/a	n/a	-999	6	[7, 2, 6]	15.0	catFR1	0	R1379E
689.349	2.699	739609	PROB	2.683	n/a	n/a	n/a	-999	6	[1, 6, 3]	10.0	catFR1	0	R1379E
692.048	0.0	742308	STOP	n/a	n/a	n/a	n/a	-999	6	[-999, -999, -999]	n/a	catFR1	0	R1379E
692.048	1.883	742314	DISTRACT_END	n/a	n/a	n/a	n/a	-999	6	[0, 0, 0]	n/a	catFR1	0	R1379E
693.931	3.289	744190	REC_START	n/a	n/a	n/a	n/a	-999	6	[0, 0, 0]	n/a	catFR1	0	R1379E
697.22	0.831	747480	REC_WORD	3.289	n/a	CHAIR	Furniture	-999	6	[0, 0, 0]	n/a	catFR1	0	R1379E
698.051	4.433	748311	REC_WORD	4.12	n/a	DESK	Furniture	-999	6	[0, 0, 0]	n/a	catFR1	0	R1379E
702.484	2.832	752743	REC_WORD	8.553	n/a	TIGER	Zoo	1	6	[0, 0, 0]	n/a	catFR1	0	R1379E
705.316	7.693	755575	REC_WORD	11.385	n/a	CHIMPANZEE	Zoo	-999	6	[0, 0, 0]	n/a	catFR1	0	R1379E
713.009	11.217	763268	REC_WORD	19.078	n/a	CHAIR	Furniture	-999	6	[0, 0, 0]	n/a	catFR1	0	R1379E
724.226	1.739	774483	REC_END	n/a	n/a	n/a	n/a	-999	6	[0, 0, 0]	n/a	catFR1	0	R1379E
725.965	10.0	776223	COUNTDOWN_START	n/a	n/a	n/a	n/a	-999	7	[0, 0, 0]	n/a	catFR1	0	R1379E
736.316	0.0	786580	COUNTDOWN_END	n/a	n/a	n/a	n/a	-999	7	[0, 0, 0]	n/a	catFR1	0	R1379E
736.316	1.849	786580	ENCODING_START	n/a	n/a	n/a	n/a	-999	7	[0, 0, 0]	n/a	catFR1	0	R1379E
738.165	1.6	788426	WORD	n/a	wordpools/wordpool_categorized_EN.txt	OVEN	Appliances	1	7	[0, 0, 0]	n/a	catFR1	0	R1379E
739.781	0.951	790036	WORD_OFF	n/a	n/a	OVEN	Appliances	1	7	[0, 0, 0]	n/a	catFR1	0	R1379E
740.732	1.6	790996	WORD	n/a	wordpools/wordpool_categorized_EN.txt	DRYER	Appliances	2	7	[0, 0, 0]	n/a	catFR1	0	R1379E
742.332	0.967	792596	WORD_OFF	n/a	n/a	DRYER	Appliances	2	7	[0, 0, 0]	n/a	catFR1	0	R1379E
743.299	1.6	793556	WORD	n/a	wordpools/wordpool_categorized_EN.txt	TAPE	Officesupplies	3	7	[0, 0, 0]	n/a	catFR1	0	R1379E
744.899	0.766	795156	WORD_OFF	n/a	n/a	TAPE	Officesupplies	3	7	[0, 0, 0]	n/a	catFR1	0	R1379E
745.665	1.6	795924	WORD	n/a	wordpools/wordpool_categorized_EN.txt	PENCIL	Officesupplies	4	7	[0, 0, 0]	n/a	catFR1	0	R1379E
747.265	1.0	797524	WORD_OFF	n/a	n/a	PENCIL	Officesupplies	4	7	[0, 0, 0]	n/a	catFR1	0	R1379E
748.265	1.6	798527	WORD	n/a	wordpools/wordpool_categorized_EN.txt	CUCUMBER	Vegetables	5	7	[0, 0, 0]	n/a	catFR1	0	R1379E
749.865	0.833	800127	WORD_OFF	n/a	n/a	CUCUMBER	Vegetables	5	7	[0, 0, 0]	n/a	catFR1	0	R1379E
750.698	1.6	800959	WORD	n/a	wordpools/wordpool_categorized_EN.txt	CORN	Vegetables	6	7	[0, 0, 0]	n/a	catFR1	0	R1379E
752.299	0.882	802559	WORD_OFF	n/a	n/a	CORN	Vegetables	6	7	[0, 0, 0]	n/a	catFR1	0	R1379E
753.181	1.6	803444	WORD	n/a	wordpools/wordpool_categorized_EN.txt	BLENDER	Appliances	7	7	[0, 0, 0]	n/a	catFR1	0	R1379E
754.781	0.951	805044	WORD_OFF	n/a	n/a	BLENDER	Appliances	7	7	[0, 0, 0]	n/a	catFR1	0	R1379E
755.732	1.6	805994	WORD	n/a	wordpools/wordpool_categorized_EN.txt	VACUUM	Appliances	8	7	[0, 0, 0]	n/a	catFR1	0	R1379E
757.332	0.916	807594	WORD_OFF	n/a	n/a	VACUUM	Appliances	8	7	[0, 0, 0]	n/a	catFR1	0	R1379E
758.248	1.6	808511	WORD	n/a	wordpools/wordpool_categorized_EN.txt	CARROT	Vegetables	9	7	[0, 0, 0]	n/a	catFR1	0	R1379E
759.865	1.0	810122	WORD_OFF	n/a	n/a	CARROT	Vegetables	9	7	[0, 0, 0]	n/a	catFR1	0	R1379E
760.865	1.6	811124	WORD	n/a	wordpools/wordpool_categorized_EN.txt	BROCCOLI	Vegetables	10	7	[0, 0, 0]	n/a	catFR1	0	R1379E
762.465	0.884	812724	WORD_OFF	n/a	n/a	BROCCOLI	Vegetables	10	7	[0, 0, 0]	n/a	catFR1	0	R1379E
763.349	1.6	813610	WORD	n/a	wordpools/wordpool_categorized_EN.txt	NOTEBOOK	Officesupplies	11	7	[0, 0, 0]	n/a	catFR1	0	R1379E
764.949	0.832	815210	WORD_OFF	n/a	n/a	NOTEBOOK	Officesupplies	11	7	[0, 0, 0]	n/a	catFR1	0	R1379E
765.781	1.6	816042	WORD	n/a	wordpools/wordpool_categorized_EN.txt	RULER	Officesupplies	12	7	[0, 0, 0]	n/a	catFR1	0	R1379E
767.382	0.002	817639	PROB	3.533	n/a	n/a	n/a	-999	7	[8, 8, 3]	19.0	catFR1	0	R1379E
767.384	0.0	817641	START	n/a	n/a	n/a	n/a	-999	7	[-999, -999, -999]	n/a	catFR1	0	R1379E
767.382	0.002	817642	WORD_OFF	n/a	n/a	RULER	Officesupplies	12	7	[0, 0, 0]	n/a	catFR1	0	R1379E
767.384	0.0	817642	ENCODING_END	n/a	n/a	n/a	n/a	-999	7	[0, 0, 0]	n/a	catFR1	0	R1379E
767.384	3.549	817642	DISTRACT_START	n/a	n/a	n/a	n/a	-999	7	[0, 0, 0]	n/a	catFR1	0	R1379E
770.933	4.082	821190	PROB	4.066	n/a	n/a	n/a	-999	7	[8, 8, 3]	19.0	catFR1	0	R1379E
775.015	1.868	825272	PROB	1.849	n/a	n/a	n/a	-999	7	[3, 1, 5]	9.0	catFR1	0	R1379E
776.883	2.166	827140	PROB	2.149	n/a	n/a	n/a	-999	7	[1, 1, 7]	9.0	catFR1	0	R1379E
779.049	2.583	829306	PROB	2.565	n/a	n/a	n/a	-999	7	[2, 6, 2]	10.0	catFR1	0	R1379E
781.632	2.017	831889	PROB	2.0	n/a	n/a	n/a	-999	7	[8, 3, 2]	13.0	catFR1	0	R1379E
783.649	4.399	833906	PROB	4.383	n/a	n/a	n/a	-999	7	[8, 7, 3]	18.0	catFR1	0	R1379E
788.048	0.0	838303	DISTRACT_END	n/a	n/a	n/a	n/a	-999	7	[0, 0, 0]	n/a	catFR1	0	R1379E
788.048	1.616	838305	STOP	n/a	n/a	n/a	n/a	-999	7	[-999, -999, -999]	n/a	catFR1	0	R1379E
789.664	2.233	839923	REC_START	n/a	n/a	n/a	n/a	-999	7	[0, 0, 0]	n/a	catFR1	0	R1379E
791.897	1.791	842154	REC_WORD	2.233	n/a	STAPLER	Officesupplies	-999	7	[0, 0, 0]	n/a	catFR1	0	R1379E
793.688	4.077	843944	REC_WORD	4.024	n/a	RULER	Officesupplies	12	7	[0, 0, 0]	n/a	catFR1	0	R1379E
797.765	0.607	848021	REC_WORD	8.101	n/a	DESK	Furniture	-999	7	[0, 0, 0]	n/a	catFR1	0	R1379E
798.372	15.825	848628	REC_WORD	8.708	n/a	CHAIR	Furniture	-999	7	[0, 0, 0]	n/a	catFR1	0	R1379E
814.197	5.753	864453	REC_WORD	24.533	n/a	PENCIL	Officesupplies	4	7	[0, 0, 0]	n/a	catFR1	0	R1379E
819.95	2.365	870206	REC_END	n/a	n/a	n/a	n/a	-999	7	[0, 0, 0]	n/a	catFR1	0	R1379E
822.315	10.0	872575	COUNTDOWN_START	n/a	n/a	n/a	n/a	-999	8	[0, 0, 0]	n/a	catFR1	0	R1379E
832.666	0.0	882922	COUNTDOWN_END	n/a	n/a	n/a	n/a	-999	8	[0, 0, 0]	n/a	catFR1	0	R1379E
832.666	2.066	882922	ENCODING_START	n/a	n/a	n/a	n/a	-999	8	[0, 0, 0]	n/a	catFR1	0	R1379E
834.732	1.6	884991	WORD	n/a	wordpools/wordpool_categorized_EN.txt	HEAD	Bodyparts	1	8	[0, 0, 0]	n/a	catFR1	0	R1379E
836.332	0.867	886591	WORD_OFF	n/a	n/a	HEAD	Bodyparts	1	8	[0, 0, 0]	n/a	catFR1	0	R1379E
837.199	1.6	887455	WORD	n/a	wordpools/wordpool_categorized_EN.txt	HAND	Bodyparts	2	8	[0, 0, 0]	n/a	catFR1	0	R1379E
838.799	0.999	889055	WORD_OFF	n/a	n/a	HAND	Bodyparts	2	8	[0, 0, 0]	n/a	catFR1	0	R1379E
839.798	1.6	890058	WORD	n/a	wordpools/wordpool_categorized_EN.txt	VALLEY	Landscapes	3	8	[0, 0, 0]	n/a	catFR1	0	R1379E
841.398	0.951	891658	WORD_OFF	n/a	n/a	VALLEY	Landscapes	3	8	[0, 0, 0]	n/a	catFR1	0	R1379E
842.349	1.6	892607	WORD	n/a	wordpools/wordpool_categorized_EN.txt	BEACH	Landscapes	4	8	[0, 0, 0]	n/a	catFR1	0	R1379E
843.948	0.984	894207	WORD_OFF	n/a	n/a	BEACH	Landscapes	4	8	[0, 0, 0]	n/a	catFR1	0	R1379E
844.932	1.6	895188	WORD	n/a	wordpools/wordpool_categorized_EN.txt	BED	Furniture	5	8	[0, 0, 0]	n/a	catFR1	0	R1379E
846.549	0.933	896799	WORD_OFF	n/a	n/a	BED	Furniture	5	8	[0, 0, 0]	n/a	catFR1	0	R1379E
847.482	1.6	897738	WORD	n/a	wordpools/wordpool_categorized_EN.txt	BOOKCASE	Furniture	6	8	[0, 0, 0]	n/a	catFR1	0	R1379E
849.099	0.966	899359	WORD_OFF	n/a	n/a	BOOKCASE	Furniture	6	8	[0, 0, 0]	n/a	catFR1	0	R1379E
850.065	1.6	900319	WORD	n/a	wordpools/wordpool_categorized_EN.txt	WOODS	Landscapes	7	8	[0, 0, 0]	n/a	catFR1	0	R1379E
851.665	0.933	901919	WORD_OFF	n/a	n/a	WOODS	Landscapes	7	8	[0, 0, 0]	n/a	catFR1	0	R1379E
852.598	1.6	902858	WORD	n/a	wordpools/wordpool_categorized_EN.txt	RIVER	Landscapes	8	8	[0, 0, 0]	n/a	catFR1	0	R1379E
854.199	0.766	904458	WORD_OFF	n/a	n/a	RIVER	Landscapes	8	8	[0, 0, 0]	n/a	catFR1	0	R1379E
854.965	1.6	905226	WORD	n/a	wordpools/wordpool_categorized_EN.txt	DRESSER	Furniture	9	8	[0, 0, 0]	n/a	catFR1	0	R1379E
856.565	0.867	906826	WORD_OFF	n/a	n/a	DRESSER	Furniture	9	8	[0, 0, 0]	n/a	catFR1	0	R1379E
857.432	1.6	907690	WORD	n/a	wordpools/wordpool_categorized_EN.txt	SHELF	Furniture	10	8	[0, 0, 0]	n/a	catFR1	0	R1379E
859.032	0.916	909290	WORD_OFF	n/a	n/a	SHELF	Furniture	10	8	[0, 0, 0]	n/a	catFR1	0	R1379E
859.948	1.6	910207	WORD	n/a	wordpools/wordpool_categorized_EN.txt	EYE	Bodyparts	11	8	[0, 0, 0]	n/a	catFR1	0	R1379E
861.548	1.001	911807	WORD_OFF	n/a	n/a	EYE	Bodyparts	11	8	[0, 0, 0]	n/a	catFR1	0	R1379E
862.549	1.6	912799	WORD	n/a	wordpools/wordpool_categorized_EN.txt	EAR	Bodyparts	12	8	[0, 0, 0]	n/a	catFR1	0	R1379E
864.165	0.002	914420	WORD_OFF	n/a	n/a	EAR	Bodyparts	12	8	[0, 0, 0]	n/a	catFR1	0	R1379E
864.167	0.0	914420	ENCODING_END	n/a	n/a	n/a	n/a	-999	8	[0, 0, 0]	n/a	catFR1	0	R1379E
864.167	0.0	914420	DISTRACT_START	n/a	n/a	n/a	n/a	-999	8	[0, 0, 0]	n/a	catFR1	0	R1379E
864.166	0.001	914420	PROB	3.016	n/a	n/a	n/a	-999	8	[1, 1, 3]	5.0	catFR1	0	R1379E
864.167	3.032	914421	START	n/a	n/a	n/a	n/a	-999	8	[-999, -999, -999]	n/a	catFR1	0	R1379E
867.199	1.633	917453	PROB	1.616	n/a	n/a	n/a	-999	8	[2, 2, 1]	5.0	catFR1	0	R1379E
868.832	1.5	919086	PROB	1.483	n/a	n/a	n/a	-999	8	[1, 2, 8]	11.0	catFR1	0	R1379E
870.332	1.9	920586	PROB	1.883	n/a	n/a	n/a	-999	8	[8, 3, 4]	15.0	catFR1	0	R1379E
872.232	9.334	922486	PROB	9.316	n/a	n/a	n/a	-999	8	[6, 8, 4]	18.0	catFR1	0	R1379E
881.566	1.682	931820	PROB	1.666	n/a	n/a	n/a	-999	8	[1, 4, 6]	11.0	catFR1	0	R1379E
883.248	1.817	933502	PROB	1.8	n/a	n/a	n/a	-999	8	[7, 5, 6]	21.0	catFR1	0	R1379E
885.065	0.0	935316	DISTRACT_END	n/a	n/a	n/a	n/a	-999	8	[0, 0, 0]	n/a	catFR1	0	R1379E
885.065	1.616	935318	STOP	n/a	n/a	n/a	n/a	-999	8	[-999, -999, -999]	n/a	catFR1	0	R1379E
886.681	3.958	936936	REC_START	n/a	n/a	n/a	n/a	-999	8	[0, 0, 0]	n/a	catFR1	0	R1379E
890.639	0.469	940892	REC_WORD	3.958	n/a	BED	Furniture	5	8	[0, 0, 0]	n/a	catFR1	0	R1379E
891.108	4.972	941361	REC_WORD	4.427	n/a	BOOKCASE	Furniture	6	8	[0, 0, 0]	n/a	catFR1	0	R1379E
896.08	0.708	946333	REC_WORD	9.399	n/a	CHAIR	Furniture	-999	8	[0, 0, 0]	n/a	catFR1	0	R1379E
896.788	20.193	947041	REC_WORD	10.107	n/a	DESK	Furniture	-999	8	[0, 0, 0]	n/a	catFR1	0	R1379E
916.981	1.651	967229	REC_END	n/a	n/a	n/a	n/a	-999	8	[0, 0, 0]	n/a	catFR1	0	R1379E
918.632	10.0	968884	COUNTDOWN_START	n/a	n/a	n/a	n/a	-999	9	[0, 0, 0]	n/a	catFR1	0	R1379E
928.983	0.0	979231	COUNTDOWN_END	n/a	n/a	n/a	n/a	-999	9	[0, 0, 0]	n/a	catFR1	0	R1379E
928.983	2.066	979241	ENCODING_START	n/a	n/a	n/a	n/a	-999	9	[0, 0, 0]	n/a	catFR1	0	R1379E
931.049	1.6	981300	WORD	n/a	wordpools/wordpool_categorized_EN.txt	CABBAGE	Vegetables	1	9	[0, 0, 0]	n/a	catFR1	0	R1379E
932.665	0.95	982921	WORD_OFF	n/a	n/a	CABBAGE	Vegetables	1	9	[0, 0, 0]	n/a	catFR1	0	R1379E
933.615	1.6	983871	WORD	n/a	wordpools/wordpool_categorized_EN.txt	CAULIFLOWER	Vegetables	2	9	[0, 0, 0]	n/a	catFR1	0	R1379E
935.215	0.9	985471	WORD_OFF	n/a	n/a	CAULIFLOWER	Vegetables	2	9	[0, 0, 0]	n/a	catFR1	0	R1379E
936.115	1.6	986367	WORD	n/a	wordpools/wordpool_categorized_EN.txt	TOE	Bodyparts	3	9	[0, 0, 0]	n/a	catFR1	0	R1379E
937.731	0.784	987988	WORD_OFF	n/a	n/a	TOE	Bodyparts	3	9	[0, 0, 0]	n/a	catFR1	0	R1379E
938.515	1.6	988767	WORD	n/a	wordpools/wordpool_categorized_EN.txt	LEG	Bodyparts	4	9	[0, 0, 0]	n/a	catFR1	0	R1379E
940.115	0.95	990367	WORD_OFF	n/a	n/a	LEG	Bodyparts	4	9	[0, 0, 0]	n/a	catFR1	0	R1379E
941.065	1.6	991316	WORD	n/a	wordpools/wordpool_categorized_EN.txt	WHALE	Oceananimals	5	9	[0, 0, 0]	n/a	catFR1	0	R1379E
942.665	0.917	992916	WORD_OFF	n/a	n/a	WHALE	Oceananimals	5	9	[0, 0, 0]	n/a	catFR1	0	R1379E
943.582	1.6	993833	WORD	n/a	wordpools/wordpool_categorized_EN.txt	OCTOPUS	Oceananimals	6	9	[0, 0, 0]	n/a	catFR1	0	R1379E
945.182	1.0	995433	WORD_OFF	n/a	n/a	OCTOPUS	Oceananimals	6	9	[0, 0, 0]	n/a	catFR1	0	R1379E
946.182	1.6	996436	WORD	n/a	wordpools/wordpool_categorized_EN.txt	FINGERS	Bodyparts	7	9	[0, 0, 0]	n/a	catFR1	0	R1379E
947.782	0.899	998036	WORD_OFF	n/a	n/a	FINGERS	Bodyparts	7	9	[0, 0, 0]	n/a	catFR1	0	R1379E
948.681	1.6	998932	WORD	n/a	wordpools/wordpool_categorized_EN.txt	ELBOW	Bodyparts	8	9	[0, 0, 0]	n/a	catFR1	0	R1379E
950.282	0.8	1000532	WORD_OFF	n/a	n/a	ELBOW	Bodyparts	8	9	[0, 0, 0]	n/a	catFR1	0	R1379E
951.082	1.6	1001332	WORD	n/a	wordpools/wordpool_categorized_EN.txt	OYSTER	Oceananimals	9	9	[0, 0, 0]	n/a	catFR1	0	R1379E
952.682	0.9	1002932	WORD_OFF	n/a	n/a	OYSTER	Oceananimals	9	9	[0, 0, 0]	n/a	catFR1	0	R1379E
953.582	1.6	1003839	WORD	n/a	wordpools/wordpool_categorized_EN.txt	FISH	Oceananimals	10	9	[0, 0, 0]	n/a	catFR1	0	R1379E
955.182	0.833	1005439	WORD_OFF	n/a	n/a	FISH	Oceananimals	10	9	[0, 0, 0]	n/a	catFR1	0	R1379E
956.015	1.6	1006271	WORD	n/a	wordpools/wordpool_categorized_EN.txt	LETTUCE	Vegetables	11	9	[0, 0, 0]	n/a	catFR1	0	R1379E
957.615	0.767	1007871	WORD_OFF	n/a	n/a	LETTUCE	Vegetables	11	9	[0, 0, 0]	n/a	catFR1	0	R1379E
958.382	1.6	1008639	WORD	n/a	wordpools/wordpool_categorized_EN.txt	ONION	Vegetables	12	9	[0, 0, 0]	n/a	catFR1	0	R1379E
959.983	0.001	1010234	PROB	3.399	n/a	n/a	n/a	-999	9	[2, 7, 6]	15.0	catFR1	0	R1379E
959.984	0.0	1010235	START	n/a	n/a	n/a	n/a	-999	9	[-999, -999, -999]	n/a	catFR1	0	R1379E
959.982	0.001	1010239	WORD_OFF	n/a	n/a	ONION	Vegetables	12	9	[0, 0, 0]	n/a	catFR1	0	R1379E
959.983	0.001	1010239	ENCODING_END	n/a	n/a	n/a	n/a	-999	9	[0, 0, 0]	n/a	catFR1	0	R1379E
959.984	3.415	1010239	DISTRACT_START	n/a	n/a	n/a	n/a	-999	9	[0, 0, 0]	n/a	catFR1	0	R1379E
963.399	2.3	1013650	PROB	2.283	n/a	n/a	n/a	-999	9	[7, 7, 3]	17.0	catFR1	0	R1379E
965.699	2.25	1015950	PROB	2.232	n/a	n/a	n/a	-999	9	[5, 5, 7]	17.0	catFR1	0	R1379E
967.949	1.95	1018200	PROB	1.933	n/a	n/a	n/a	-999	9	[8, 3, 3]	14.0	catFR1	0	R1379E
969.899	2.383	1020150	PROB	2.366	n/a	n/a	n/a	-999	9	[4, 4, 8]	16.0	catFR1	0	R1379E
972.282	2.2	1022533	PROB	2.183	n/a	n/a	n/a	-999	9	[7, 5, 4]	16.0	catFR1	0	R1379E
974.482	1.983	1024733	PROB	1.966	n/a	n/a	n/a	-999	9	[7, 2, 3]	12.0	catFR1	0	R1379E
976.465	4.95	1026715	PROB	4.933	n/a	n/a	n/a	-999	9	[3, 8, 8]	19.0	catFR1	0	R1379E
981.415	0.0	1031665	STOP	n/a	n/a	n/a	n/a	-999	9	[-999, -999, -999]	n/a	catFR1	0	R1379E
981.415	1.699	1031668	DISTRACT_END	n/a	n/a	n/a	n/a	-999	9	[0, 0, 0]	n/a	catFR1	0	R1379E
983.114	2.616	1033363	REC_START	n/a	n/a	n/a	n/a	-999	9	[0, 0, 0]	n/a	catFR1	0	R1379E
985.73	0.599	1035980	REC_WORD	2.616	n/a	CABBAGE	Vegetables	1	9	[0, 0, 0]	n/a	catFR1	0	R1379E
986.329	7.351	1036579	REC_WORD	3.215	n/a	CAULIFLOWER	Vegetables	2	9	[0, 0, 0]	n/a	catFR1	0	R1379E
993.68	0.461	1043930	REC_WORD	10.566	n/a	WHALE	Oceananimals	5	9	[0, 0, 0]	n/a	catFR1	0	R1379E
994.141	18.28	1044391	REC_WORD	11.027	n/a	OCTOPUS	Oceananimals	6	9	[0, 0, 0]	n/a	catFR1	0	R1379E
1012.421	1.001	1062670	REC_WORD	29.307	n/a	CARROT	Vegetables	-999	9	[0, 0, 0]	n/a	catFR1	0	R1379E
1013.422	2.36	1063667	REC_END	n/a	n/a	n/a	n/a	-999	9	[0, 0, 0]	n/a	catFR1	0	R1379E
1015.782	10.0	1066036	COUNTDOWN_START	n/a	n/a	n/a	n/a	-999	10	[0, 0, 0]	n/a	catFR1	0	R1379E
1026.132	0.001	1076383	COUNTDOWN_END	n/a	n/a	n/a	n/a	-999	10	[0, 0, 0]	n/a	catFR1	0	R1379E
1026.133	2.116	1076383	ENCODING_START	n/a	n/a	n/a	n/a	-999	10	[0, 0, 0]	n/a	catFR1	0	R1379E
1028.249	1.6	1078495	WORD	n/a	wordpools/wordpool_categorized_EN.txt	MOUNTAIN	Landscapes	1	10	[0, 0, 0]	n/a	catFR1	0	R1379E
1029.865	0.85	1080116	WORD_OFF	n/a	n/a	MOUNTAIN	Landscapes	1	10	[0, 0, 0]	n/a	catFR1	0	R1379E
1030.715	1.6	1080969	WORD	n/a	wordpools/wordpool_categorized_EN.txt	OCEAN	Landscapes	2	10	[0, 0, 0]	n/a	catFR1	0	R1379E
1032.315	1.0	1082569	WORD_OFF	n/a	n/a	OCEAN	Landscapes	2	10	[0, 0, 0]	n/a	catFR1	0	R1379E
1033.315	1.6	1083561	WORD	n/a	wordpools/wordpool_categorized_EN.txt	CHEESECAKE	Desserts	3	10	[0, 0, 0]	n/a	catFR1	0	R1379E
1034.915	0.901	1085161	WORD_OFF	n/a	n/a	CHEESECAKE	Desserts	3	10	[0, 0, 0]	n/a	catFR1	0	R1379E
1035.816	1.6	1086068	WORD	n/a	wordpools/wordpool_categorized_EN.txt	PIE	Desserts	4	10	[0, 0, 0]	n/a	catFR1	0	R1379E
1037.431	0.9	1087679	WORD_OFF	n/a	n/a	PIE	Desserts	4	10	[0, 0, 0]	n/a	catFR1	0	R1379E
1038.331	1.6	1088585	WORD	n/a	wordpools/wordpool_categorized_EN.txt	LEMONADE	Beverages	5	10	[0, 0, 0]	n/a	catFR1	0	R1379E
1039.932	1.0	1090185	WORD_OFF	n/a	n/a	LEMONADE	Beverages	5	10	[0, 0, 0]	n/a	catFR1	0	R1379E
1040.932	1.6	1091177	WORD	n/a	wordpools/wordpool_categorized_EN.txt	COLA	Beverages	6	10	[0, 0, 0]	n/a	catFR1	0	R1379E
1042.532	0.95	1092777	WORD_OFF	n/a	n/a	COLA	Beverages	6	10	[0, 0, 0]	n/a	catFR1	0	R1379E
1043.482	1.6	1093727	WORD	n/a	wordpools/wordpool_categorized_EN.txt	HILLS	Landscapes	7	10	[0, 0, 0]	n/a	catFR1	0	R1379E
1045.082	0.883	1095327	WORD_OFF	n/a	n/a	HILLS	Landscapes	7	10	[0, 0, 0]	n/a	catFR1	0	R1379E
1045.965	1.6	1096212	WORD	n/a	wordpools/wordpool_categorized_EN.txt	FOREST	Landscapes	8	10	[0, 0, 0]	n/a	catFR1	0	R1379E
1047.565	0.949	1097812	WORD_OFF	n/a	n/a	FOREST	Landscapes	8	10	[0, 0, 0]	n/a	catFR1	0	R1379E
1048.514	1.6	1098761	WORD	n/a	wordpools/wordpool_categorized_EN.txt	SODA	Beverages	9	10	[0, 0, 0]	n/a	catFR1	0	R1379E
1050.115	0.95	1100361	WORD_OFF	n/a	n/a	SODA	Beverages	9	10	[0, 0, 0]	n/a	catFR1	0	R1379E
1051.065	1.6	1101311	WORD	n/a	wordpools/wordpool_categorized_EN.txt	BEER	Beverages	10	10	[0, 0, 0]	n/a	catFR1	0	R1379E
1052.665	0.967	1102921	WORD_OFF	n/a	n/a	BEER	Beverages	10	10	[0, 0, 0]	n/a	catFR1	0	R1379E
1053.632	1.6	1103881	WORD	n/a	wordpools/wordpool_categorized_EN.txt	MOUSSE	Desserts	11	10	[0, 0, 0]	n/a	catFR1	0	R1379E
1055.248	0.903	1105492	WORD_OFF	n/a	n/a	MOUSSE	Desserts	11	10	[0, 0, 0]	n/a	catFR1	0	R1379E
1056.151	1.6	1106399	WORD	n/a	wordpools/wordpool_categorized_EN.txt	FUDGE	Desserts	12	10	[0, 0, 0]	n/a	catFR1	0	R1379E
1057.749	0.001	1107997	PROB	4.966	n/a	n/a	n/a	-999	10	[5, 2, 2]	11.0	catFR1	0	R1379E
1057.75	0.0	1107998	START	n/a	n/a	n/a	n/a	-999	10	[-999, -999, -999]	n/a	catFR1	0	R1379E
1057.748	0.002	1107999	WORD_OFF	n/a	n/a	FUDGE	Desserts	12	10	[0, 0, 0]	n/a	catFR1	0	R1379E
1057.75	0.0	1107999	ENCODING_END	n/a	n/a	n/a	n/a	-999	10	[0, 0, 0]	n/a	catFR1	0	R1379E
1057.75	4.982	1107999	DISTRACT_START	n/a	n/a	n/a	n/a	-999	10	[0, 0, 0]	n/a	catFR1	0	R1379E
1062.732	2.6	1112980	PROB	2.583	n/a	n/a	n/a	-999	10	[6, 2, 2]	10.0	catFR1	0	R1379E
1065.332	1.533	1115580	PROB	1.516	n/a	n/a	n/a	-999	10	[1, 4, 6]	11.0	catFR1	0	R1379E
1066.865	1.951	1117112	PROB	1.933	n/a	n/a	n/a	-999	10	[4, 2, 2]	8.0	catFR1	0	R1379E
1068.816	2.566	1119063	PROB	2.549	n/a	n/a	n/a	-999	10	[1, 2, 7]	10.0	catFR1	0	R1379E
1071.382	2.133	1121629	PROB	2.116	n/a	n/a	n/a	-999	10	[5, 7, 7]	19.0	catFR1	0	R1379E
1073.515	2.033	1123762	PROB	2.016	n/a	n/a	n/a	-999	10	[3, 2, 7]	12.0	catFR1	0	R1379E
1075.548	1.983	1125795	PROB	1.967	n/a	n/a	n/a	-999	10	[8, 1, 2]	11.0	catFR1	0	R1379E
1077.531	2.95	1127778	PROB	2.933	n/a	n/a	n/a	-999	10	[4, 8, 5]	17.0	catFR1	0	R1379E
1080.481	0.0	1130728	STOP	n/a	n/a	n/a	n/a	-999	10	[-999, -999, -999]	n/a	catFR1	0	R1379E
1080.481	1.817	1130729	DISTRACT_END	n/a	n/a	n/a	n/a	-999	10	[0, 0, 0]	n/a	catFR1	0	R1379E
1082.298	2.908	1132541	REC_START	n/a	n/a	n/a	n/a	-999	10	[0, 0, 0]	n/a	catFR1	0	R1379E
1085.206	17.957	1135453	REC_WORD	2.908	n/a	MOUNTAIN	Landscapes	1	10	[0, 0, 0]	n/a	catFR1	0	R1379E
1103.163	7.239	1153409	REC_WORD	20.865	n/a	OCEAN	Landscapes	2	10	[0, 0, 0]	n/a	catFR1	0	R1379E
1110.402	2.202	1160648	REC_WORD	28.104	n/a	OCTOPUS	Oceananimals	-999	10	[0, 0, 0]	n/a	catFR1	0	R1379E
1112.604	1.745	1162856	REC_END	n/a	n/a	n/a	n/a	-999	10	[0, 0, 0]	n/a	catFR1	0	R1379E
1114.349	10.0	1164596	COUNTDOWN_START	n/a	n/a	n/a	n/a	-999	11	[0, 0, 0]	n/a	catFR1	0	R1379E
1124.699	0.0	1174943	COUNTDOWN_END	n/a	n/a	n/a	n/a	-999	11	[0, 0, 0]	n/a	catFR1	0	R1379E
1124.699	2.199	1174943	ENCODING_START	n/a	n/a	n/a	n/a	-999	11	[0, 0, 0]	n/a	catFR1	0	R1379E
1126.898	1.6	1177140	WORD	n/a	wordpools/wordpool_categorized_EN.txt	DOLPHIN	Oceananimals	1	11	[0, 0, 0]	n/a	catFR1	0	R1379E
1128.498	0.984	1178740	WORD_OFF	n/a	n/a	DOLPHIN	Oceananimals	1	11	[0, 0, 0]	n/a	catFR1	0	R1379E
1129.482	1.6	1179732	WORD	n/a	wordpools/wordpool_categorized_EN.txt	PLANKTON	Oceananimals	2	11	[0, 0, 0]	n/a	catFR1	0	R1379E
1131.082	0.852	1181332	WORD_OFF	n/a	n/a	PLANKTON	Oceananimals	2	11	[0, 0, 0]	n/a	catFR1	0	R1379E
1131.934	1.6	1182185	WORD	n/a	wordpools/wordpool_categorized_EN.txt	FLY	Insects	3	11	[0, 0, 0]	n/a	catFR1	0	R1379E
1133.548	0.866	1183796	WORD_OFF	n/a	n/a	FLY	Insects	3	11	[0, 0, 0]	n/a	catFR1	0	R1379E
1134.414	1.6	1184660	WORD	n/a	wordpools/wordpool_categorized_EN.txt	BEETLE	Insects	4	11	[0, 0, 0]	n/a	catFR1	0	R1379E
1136.015	0.967	1186260	WORD_OFF	n/a	n/a	BEETLE	Insects	4	11	[0, 0, 0]	n/a	catFR1	0	R1379E
1136.982	1.6	1187231	WORD	n/a	wordpools/wordpool_categorized_EN.txt	TEA	Beverages	5	11	[0, 0, 0]	n/a	catFR1	0	R1379E
1138.599	0.849	1188841	WORD_OFF	n/a	n/a	TEA	Beverages	5	11	[0, 0, 0]	n/a	catFR1	0	R1379E
1139.448	1.6	1189695	WORD	n/a	wordpools/wordpool_categorized_EN.txt	CIDER	Beverages	6	11	[0, 0, 0]	n/a	catFR1	0	R1379E
1141.048	1.0	1191295	WORD_OFF	n/a	n/a	CIDER	Beverages	6	11	[0, 0, 0]	n/a	catFR1	0	R1379E
1142.048	1.6	1192297	WORD	n/a	wordpools/wordpool_categorized_EN.txt	JELLYFISH	Oceananimals	7	11	[0, 0, 0]	n/a	catFR1	0	R1379E
1143.648	0.95	1193897	WORD_OFF	n/a	n/a	JELLYFISH	Oceananimals	7	11	[0, 0, 0]	n/a	catFR1	0	R1379E
1144.598	1.6	1194847	WORD	n/a	wordpools/wordpool_categorized_EN.txt	TURTLE	Oceananimals	8	11	[0, 0, 0]	n/a	catFR1	0	R1379E
1146.198	0.984	1196447	WORD_OFF	n/a	n/a	TURTLE	Oceananimals	8	11	[0, 0, 0]	n/a	catFR1	0	R1379E
1147.182	1.6	1197428	WORD	n/a	wordpools/wordpool_categorized_EN.txt	JUICE	Beverages	9	11	[0, 0, 0]	n/a	catFR1	0	R1379E
1148.782	0.9	1199028	WORD_OFF	n/a	n/a	JUICE	Beverages	9	11	[0, 0, 0]	n/a	catFR1	0	R1379E
1149.682	1.6	1199924	WORD	n/a	wordpools/wordpool_categorized_EN.txt	RUM	Beverages	10	11	[0, 0, 0]	n/a	catFR1	0	R1379E
1151.298	0.934	1201545	WORD_OFF	n/a	n/a	RUM	Beverages	10	11	[0, 0, 0]	n/a	catFR1	0	R1379E
1152.232	1.6	1202473	WORD	n/a	wordpools/wordpool_categorized_EN.txt	BUTTERFLY	Insects	11	11	[0, 0, 0]	n/a	catFR1	0	R1379E
1153.832	0.816	1204073	WORD_OFF	n/a	n/a	BUTTERFLY	Insects	11	11	[0, 0, 0]	n/a	catFR1	0	R1379E
1154.648	1.6	1204895	WORD	n/a	wordpools/wordpool_categorized_EN.txt	MOTH	Insects	12	11	[0, 0, 0]	n/a	catFR1	0	R1379E
1156.249	0.0	1206494	PROB	2.516	n/a	n/a	n/a	-999	11	[1, 1, 6]	8.0	catFR1	0	R1379E
1156.248	0.002	1206495	WORD_OFF	n/a	n/a	MOTH	Insects	12	11	[0, 0, 0]	n/a	catFR1	0	R1379E
1156.25	0.0	1206495	ENCODING_END	n/a	n/a	n/a	n/a	-999	11	[0, 0, 0]	n/a	catFR1	0	R1379E
1156.25	0.0	1206495	DISTRACT_START	n/a	n/a	n/a	n/a	-999	11	[0, 0, 0]	n/a	catFR1	0	R1379E
1156.25	2.532	1206495	START	n/a	n/a	n/a	n/a	-999	11	[-999, -999, -999]	n/a	catFR1	0	R1379E
1158.782	1.4	1209026	PROB	1.383	n/a	n/a	n/a	-999	11	[6, 4, 1]	11.0	catFR1	0	R1379E
1160.182	1.967	1210426	PROB	1.949	n/a	n/a	n/a	-999	11	[4, 1, 4]	9.0	catFR1	0	R1379E
1162.149	2.366	1212393	PROB	2.349	n/a	n/a	n/a	-999	11	[3, 4, 7]	14.0	catFR1	0	R1379E
1164.515	2.183	1214759	PROB	2.166	n/a	n/a	n/a	-999	11	[4, 5, 4]	13.0	catFR1	0	R1379E
1166.698	1.868	1216942	PROB	1.849	n/a	n/a	n/a	-999	11	[5, 4, 3]	12.0	catFR1	0	R1379E
1168.566	2.416	1218810	PROB	2.399	n/a	n/a	n/a	-999	11	[6, 2, 7]	15.0	catFR1	0	R1379E
1170.982	1.65	1221226	PROB	1.633	n/a	n/a	n/a	-999	11	[1, 6, 7]	14.0	catFR1	0	R1379E
1172.632	1.783	1222876	PROB	1.766	n/a	n/a	n/a	-999	11	[1, 3, 4]	8.0	catFR1	0	R1379E
1174.415	1.916	1224659	PROB	1.9	n/a	n/a	n/a	-999	11	[8, 2, 2]	12.0	catFR1	0	R1379E
1176.331	0.0	1226575	STOP	n/a	n/a	n/a	n/a	-999	11	[-999, -999, -999]	n/a	catFR1	0	R1379E
1176.331	1.9	1226580	DISTRACT_END	n/a	n/a	n/a	n/a	-999	11	[0, 0, 0]	n/a	catFR1	0	R1379E
1178.231	9.171	1228477	REC_START	n/a	n/a	n/a	n/a	-999	11	[0, 0, 0]	n/a	catFR1	0	R1379E
1187.402	4.988	1237646	REC_WORD	9.171	n/a	TEA	Beverages	5	11	[0, 0, 0]	n/a	catFR1	0	R1379E
1192.39	16.142	1242633	REC_WORD	14.159	n/a	CIDER	Beverages	6	11	[0, 0, 0]	n/a	catFR1	0	R1379E
1208.532	2.3	1258771	REC_END	n/a	n/a	n/a	n/a	-999	11	[0, 0, 0]	n/a	catFR1	0	R1379E
1210.832	10.0	1261076	COUNTDOWN_START	n/a	n/a	n/a	n/a	-999	12	[0, 0, 0]	n/a	catFR1	0	R1379E
1221.182	0.001	1271423	COUNTDOWN_END	n/a	n/a	n/a	n/a	-999	12	[0, 0, 0]	n/a	catFR1	0	R1379E
1221.183	1.966	1271433	ENCODING_START	n/a	n/a	n/a	n/a	-999	12	[0, 0, 0]	n/a	catFR1	0	R1379E
1223.149	1.6	1273396	WORD	n/a	wordpools/wordpool_categorized_EN.txt	CRAB	Oceananimals	1	12	[0, 0, 0]	n/a	catFR1	0	R1379E
1224.749	0.865	1274996	WORD_OFF	n/a	n/a	CRAB	Oceananimals	1	12	[0, 0, 0]	n/a	catFR1	0	R1379E
1225.614	1.6	1275860	WORD	n/a	wordpools/wordpool_categorized_EN.txt	SHRIMP	Oceananimals	2	12	[0, 0, 0]	n/a	catFR1	0	R1379E
1227.217	0.931	1277460	WORD_OFF	n/a	n/a	SHRIMP	Oceananimals	2	12	[0, 0, 0]	n/a	catFR1	0	R1379E
1228.148	1.6	1278388	WORD	n/a	wordpools/wordpool_categorized_EN.txt	FOOT	Bodyparts	3	12	[0, 0, 0]	n/a	catFR1	0	R1379E
1229.764	0.918	1280009	WORD_OFF	n/a	n/a	FOOT	Bodyparts	3	12	[0, 0, 0]	n/a	catFR1	0	R1379E
1230.682	1.6	1280927	WORD	n/a	wordpools/wordpool_categorized_EN.txt	KNEE	Bodyparts	4	12	[0, 0, 0]	n/a	catFR1	0	R1379E
1232.299	0.999	1282537	WORD_OFF	n/a	n/a	KNEE	Bodyparts	4	12	[0, 0, 0]	n/a	catFR1	0	R1379E
1233.298	1.6	1283540	WORD	n/a	wordpools/wordpool_categorized_EN.txt	ROOSTER	Farmanimals	5	12	[0, 0, 0]	n/a	catFR1	0	R1379E
1234.898	0.967	1285140	WORD_OFF	n/a	n/a	ROOSTER	Farmanimals	5	12	[0, 0, 0]	n/a	catFR1	0	R1379E
1235.865	1.6	1286111	WORD	n/a	wordpools/wordpool_categorized_EN.txt	TURKEY	Farmanimals	6	12	[0, 0, 0]	n/a	catFR1	0	R1379E
1237.465	0.901	1287711	WORD_OFF	n/a	n/a	TURKEY	Farmanimals	6	12	[0, 0, 0]	n/a	catFR1	0	R1379E
1238.366	1.6	1288607	WORD	n/a	wordpools/wordpool_categorized_EN.txt	LOBSTER	Oceananimals	7	12	[0, 0, 0]	n/a	catFR1	0	R1379E
1239.982	0.9	1290228	WORD_OFF	n/a	n/a	LOBSTER	Oceananimals	7	12	[0, 0, 0]	n/a	catFR1	0	R1379E
1240.882	1.6	1291124	WORD	n/a	wordpools/wordpool_categorized_EN.txt	SQUID	Oceananimals	8	12	[0, 0, 0]	n/a	catFR1	0	R1379E
1242.482	0.983	1292724	WORD_OFF	n/a	n/a	SQUID	Oceananimals	8	12	[0, 0, 0]	n/a	catFR1	0	R1379E
1243.465	1.6	1293705	WORD	n/a	wordpools/wordpool_categorized_EN.txt	BULL	Farmanimals	9	12	[0, 0, 0]	n/a	catFR1	0	R1379E
1245.065	0.85	1295305	WORD_OFF	n/a	n/a	BULL	Farmanimals	9	12	[0, 0, 0]	n/a	catFR1	0	R1379E
1245.915	1.6	1296159	WORD	n/a	wordpools/wordpool_categorized_EN.txt	SHEEP	Farmanimals	10	12	[0, 0, 0]	n/a	catFR1	0	R1379E
1247.532	0.866	1297769	WORD_OFF	n/a	n/a	SHEEP	Farmanimals	10	12	[0, 0, 0]	n/a	catFR1	0	R1379E
1248.398	1.6	1298644	WORD	n/a	wordpools/wordpool_categorized_EN.txt	NOSE	Bodyparts	11	12	[0, 0, 0]	n/a	catFR1	0	R1379E
1249.998	0.95	1300244	WORD_OFF	n/a	n/a	NOSE	Bodyparts	11	12	[0, 0, 0]	n/a	catFR1	0	R1379E
1250.948	1.6	1301193	WORD	n/a	wordpools/wordpool_categorized_EN.txt	ARM	Bodyparts	12	12	[0, 0, 0]	n/a	catFR1	0	R1379E
1252.565	0.002	1302804	WORD_OFF	n/a	n/a	ARM	Bodyparts	12	12	[0, 0, 0]	n/a	catFR1	0	R1379E
1252.567	0.0	1302804	ENCODING_END	n/a	n/a	n/a	n/a	-999	12	[0, 0, 0]	n/a	catFR1	0	R1379E
1252.565	0.002	1302806	PROB	2.983	n/a	n/a	n/a	-999	12	[2, 2, 5]	9.0	catFR1	0	R1379E
1252.567	0.0	1302808	START	n/a	n/a	n/a	n/a	-999	12	[-999, -999, -999]	n/a	catFR1	0	R1379E
1252.567	2.998	1302815	DISTRACT_START	n/a	n/a	n/a	n/a	-999	12	[0, 0, 0]	n/a	catFR1	0	R1379E
1255.565	1.967	1305806	PROB	1.95	n/a	n/a	n/a	-999	12	[3, 3, 7]	13.0	catFR1	0	R1379E
1257.532	3.3	1307773	PROB	3.283	n/a	n/a	n/a	-999	12	[1, 7, 5]	13.0	catFR1	0	R1379E
1260.832	1.833	1311073	PROB	1.816	n/a	n/a	n/a	-999	12	[6, 2, 5]	13.0	catFR1	0	R1379E
1262.665	2.1	1312906	PROB	2.083	n/a	n/a	n/a	-999	12	[8, 7, 3]	18.0	catFR1	0	R1379E
1264.765	1.75	1315006	PROB	1.733	n/a	n/a	n/a	-999	12	[1, 3, 2]	6.0	catFR1	0	R1379E
1266.515	2.25	1316756	PROB	2.233	n/a	n/a	n/a	-999	12	[8, 3, 5]	16.0	catFR1	0	R1379E
1268.765	2.349	1319006	PROB	2.333	n/a	n/a	n/a	-999	12	[4, 8, 2]	14.0	catFR1	0	R1379E
1271.114	3.15	1321355	PROB	3.133	n/a	n/a	n/a	-999	12	[5, 1, 3]	9.0	catFR1	0	R1379E
1274.264	0.0	1324500	DISTRACT_END	n/a	n/a	n/a	n/a	-999	12	[0, 0, 0]	n/a	catFR1	0	R1379E
1274.264	1.617	1324505	STOP	n/a	n/a	n/a	n/a	-999	12	[-999, -999, -999]	n/a	catFR1	0	R1379E
1275.881	3.869	1326120	REC_START	n/a	n/a	n/a	n/a	-999	12	[0, 0, 0]	n/a	catFR1	0	R1379E
1279.75	6.785	1329991	REC_WORD	3.869	n/a	ELBOW	Bodyparts	-999	12	[0, 0, 0]	n/a	catFR1	0	R1379E
1286.535	19.631	1336775	REC_WORD	10.654	n/a	ARM	Bodyparts	12	12	[0, 0, 0]	n/a	catFR1	0	R1379E
1306.166	0.0	1356403	REC_END	n/a	n/a	n/a	n/a	-999	12	[0, 0, 0]	n/a	catFR1	0	R1379E
