onset	duration	sample	trial_type	response_time	stim_file	item_name	category	serialpos	list	test	answer	experiment	session	subject
0.0	0.0	2281	INSTRUCT_START	n/a	n/a	n/a	n/a	-999	-999	[0, 0, 0]	n/a	catFR1	0	R1499T
-215.236	363.367	3401	INSTRUCT_START	n/a	n/a	n/a	n/a	-999	-999	[0, 0, 0]	n/a	catFR1	0	R1499T
148.131	116.633	150401	INSTRUCT_END	n/a	n/a	n/a	n/a	-999	-999	[0, 0, 0]	n/a	catFR1	0	R1499T
264.764	10.4	267032	COUNTDOWN_START	n/a	n/a	n/a	n/a	-999	-999	[0, 0, 0]	n/a	catFR1	0	R1499T
275.164	0.0	277433	COUNTDOWN_END	n/a	n/a	n/a	n/a	-999	-999	[0, 0, 0]	n/a	catFR1	0	R1499T
275.164	1.85	277433	ENCODING_START	n/a	n/a	n/a	n/a	-999	-1	[0, 0, 0]	n/a	catFR1	0	R1499T
277.014	1.599	279276	WORD	n/a	n/a	CONGELADOR	Appliances	1	-1	[0, 0, 0]	n/a	catFR1	0	R1499T
278.613	1.0	280877	WORD_OFF	n/a	n/a	CONGELADOR	Appliances	1	-1	[0, 0, 0]	n/a	catFR1	0	R1499T
279.613	1.6	281883	WORD	n/a	n/a	TOSTADORA	Appliances	2	-1	[0, 0, 0]	n/a	catFR1	0	R1499T
281.213	0.766	283470	WORD_OFF	n/a	n/a	TOSTADORA	Appliances	2	-1	[0, 0, 0]	n/a	catFR1	0	R1499T
281.979	1.601	284250	WORD	n/a	n/a	PULPO	OceanAnimals	3	-1	[0, 0, 0]	n/a	catFR1	0	R1499T
283.58	0.833	285837	WORD_OFF	n/a	n/a	PULPO	OceanAnimals	3	-1	[0, 0, 0]	n/a	catFR1	0	R1499T
284.413	1.617	286673	WORD	n/a	n/a	TORTUGA	OceanAnimals	4	-1	[0, 0, 0]	n/a	catFR1	0	R1499T
286.03	0.833	288289	WORD_OFF	n/a	n/a	TORTUGA	OceanAnimals	4	-1	[0, 0, 0]	n/a	catFR1	0	R1499T
286.863	1.6	289125	WORD	n/a	n/a	VIOLETA	Flowers	5	-1	[0, 0, 0]	n/a	catFR1	0	R1499T
288.463	0.867	290726	WORD_OFF	n/a	n/a	VIOLETA	Flowers	5	-1	[0, 0, 0]	n/a	catFR1	0	R1499T
289.33	1.6	291591	WORD	n/a	n/a	ORQUIDEA	Flowers	6	-1	[0, 0, 0]	n/a	catFR1	0	R1499T
290.93	0.799	293192	WORD_OFF	n/a	n/a	ORQUIDEA	Flowers	6	-1	[0, 0, 0]	n/a	catFR1	0	R1499T
291.729	1.601	293986	WORD	n/a	n/a	LANGOSTA	OceanAnimals	7	-1	[0, 0, 0]	n/a	catFR1	0	R1499T
293.33	0.85	295587	WORD_OFF	n/a	n/a	LANGOSTA	OceanAnimals	7	-1	[0, 0, 0]	n/a	catFR1	0	R1499T
294.18	1.6	296437	WORD	n/a	n/a	OSTRA	OceanAnimals	8	-1	[0, 0, 0]	n/a	catFR1	0	R1499T
295.78	0.833	298039	WORD_OFF	n/a	n/a	OSTRA	OceanAnimals	8	-1	[0, 0, 0]	n/a	catFR1	0	R1499T
296.613	1.6	298875	WORD	n/a	n/a	LAVADORA	Appliances	9	-1	[0, 0, 0]	n/a	catFR1	0	R1499T
298.213	0.9	300476	WORD_OFF	n/a	n/a	LAVADORA	Appliances	9	-1	[0, 0, 0]	n/a	catFR1	0	R1499T
299.113	1.6	301369	WORD	n/a	n/a	LAVAPLATOS	Appliances	10	-1	[0, 0, 0]	n/a	catFR1	0	R1499T
300.713	0.884	302970	WORD_OFF	n/a	n/a	LAVAPLATOS	Appliances	10	-1	[0, 0, 0]	n/a	catFR1	0	R1499T
301.597	1.617	303863	WORD	n/a	n/a	CALENDULA	Flowers	11	-1	[0, 0, 0]	n/a	catFR1	0	R1499T
303.214	0.849	305479	WORD_OFF	n/a	n/a	CALENDULA	Flowers	11	-1	[0, 0, 0]	n/a	catFR1	0	R1499T
304.063	1.617	306329	WORD	n/a	n/a	PETUNIA	Flowers	12	-1	[0, 0, 0]	n/a	catFR1	0	R1499T
305.68	0.002	307944	WORD_OFF	n/a	n/a	PETUNIA	Flowers	12	-1	[0, 0, 0]	n/a	catFR1	0	R1499T
305.682	0.0	307944	ENCODING_END	n/a	n/a	n/a	n/a	-999	-1	[0, 0, 0]	n/a	catFR1	0	R1499T
305.682	0.0	307944	DISTRACT_START	n/a	n/a	n/a	n/a	-999	-1	[0, 0, 0]	n/a	catFR1	0	R1499T
305.682	0.0	307947	START	n/a	n/a	n/a	n/a	-999	-1	[-999, -999, -999]	n/a	catFR1	0	R1499T
305.682	18.782	307947	PROB	18.782	n/a	n/a	n/a	-999	-1	[7, 8, 7]	24	catFR1	0	R1499T
324.464	6.45	326728	PROB	6.45	n/a	n/a	n/a	-999	-1	[1, 4, 2]	7	catFR1	0	R1499T
330.914	0.0	333170	DISTRACT_END	n/a	n/a	n/a	n/a	-999	-1	[0, 0, 0]	n/a	catFR1	0	R1499T
330.914	1.182	333178	STOP	n/a	n/a	n/a	n/a	-999	-1	[-999, -999, -999]	n/a	catFR1	0	R1499T
332.096	5.979	334360	REC_START	n/a	n/a	n/a	n/a	-999	-1	[0, 0, 0]	n/a	catFR1	0	R1499T
338.075	1.0	340339	REC_WORD	1.0	n/a	LAVAPLATOS	Appliances	10	-1	[0, 0, 0]	n/a	catFR1	0	R1499T
339.075	1.584	341339	REC_WORD	1.584	n/a	LAVAPLATOS	Appliances	10	-1	[0, 0, 0]	n/a	catFR1	0	R1499T
340.659	0.917	342923	REC_WORD_VV	0.917	n/a	<>	n/a	-999	-1	[0, 0, 0]	n/a	catFR1	0	R1499T
341.576	1.0	343840	REC_WORD	1.0	n/a	LAVAPLATOS	Appliances	10	-1	[0, 0, 0]	n/a	catFR1	0	R1499T
342.576	0.376	344840	REC_WORD	0.376	n/a	LAVAPLATOS	Appliances	10	-1	[0, 0, 0]	n/a	catFR1	0	R1499T
342.952	1.631	345216	REC_WORD_VV	1.631	n/a	<>	n/a	-999	-1	[0, 0, 0]	n/a	catFR1	0	R1499T
344.583	1.0	346846	REC_WORD_VV	1.0	n/a	<>	n/a	-999	-1	[0, 0, 0]	n/a	catFR1	0	R1499T
345.583	1.0	347846	REC_WORD_VV	1.0	n/a	<>	n/a	-999	-1	[0, 0, 0]	n/a	catFR1	0	R1499T
346.583	1.0	348846	REC_WORD_VV	1.0	n/a	<>	n/a	-999	-1	[0, 0, 0]	n/a	catFR1	0	R1499T
347.583	6.154	349846	REC_WORD_VV	6.154	n/a	<>	n/a	-999	-1	[0, 0, 0]	n/a	catFR1	0	R1499T
353.737	2.111	356000	REC_WORD_VV	2.111	n/a	<>	n/a	-999	-1	[0, 0, 0]	n/a	catFR1	0	R1499T
355.848	3.666	358111	REC_WORD_VV	3.666	n/a	<>	n/a	-999	-1	[0, 0, 0]	n/a	catFR1	0	R1499T
359.514	3.786	361777	REC_WORD_VV	3.786	n/a	<>	n/a	-999	-1	[0, 0, 0]	n/a	catFR1	0	R1499T
363.3	123.83	365565	REC_END	n/a	n/a	n/a	n/a	-999	-1	[0, 0, 0]	n/a	catFR1	0	R1499T
487.13	10.35	489381	COUNTDOWN_START	n/a	n/a	n/a	n/a	-999	1	[0, 0, 0]	n/a	catFR1	0	R1499T
497.48	0.001	499740	COUNTDOWN_END	n/a	n/a	n/a	n/a	-999	1	[0, 0, 0]	n/a	catFR1	0	R1499T
497.481	1.949	499740	ENCODING_START	n/a	n/a	n/a	n/a	-999	1	[0, 0, 0]	n/a	catFR1	0	R1499T
499.43	1.6	501682	WORD	n/a	wordpools/wordpool_categorized_SP.txt	BEISBOL	Toys	1	1	[0, 0, 0]	n/a	catFR1	0	R1499T
501.03	0.916	503283	WORD_OFF	n/a	n/a	BEISBOL	Toys	1	1	[0, 0, 0]	n/a	catFR1	0	R1499T
501.946	1.601	504204	WORD	n/a	wordpools/wordpool_categorized_SP.txt	FRISBEE	Toys	2	1	[0, 0, 0]	n/a	catFR1	0	R1499T
503.547	0.816	505806	WORD_OFF	n/a	n/a	FRISBEE	Toys	2	1	[0, 0, 0]	n/a	catFR1	0	R1499T
504.363	1.617	506613	WORD	n/a	wordpools/wordpool_categorized_SP.txt	MARTILLO	Tools	3	1	[0, 0, 0]	n/a	catFR1	0	R1499T
505.98	0.817	508229	WORD_OFF	n/a	n/a	MARTILLO	Tools	3	1	[0, 0, 0]	n/a	catFR1	0	R1499T
506.797	1.6	509051	WORD	n/a	wordpools/wordpool_categorized_SP.txt	SIERRA	Tools	4	1	[0, 0, 0]	n/a	catFR1	0	R1499T
508.397	0.9	510652	WORD_OFF	n/a	n/a	SIERRA	Tools	4	1	[0, 0, 0]	n/a	catFR1	0	R1499T
509.297	1.6	511545	WORD	n/a	wordpools/wordpool_categorized_SP.txt	PAPA	Vegetables	5	1	[0, 0, 0]	n/a	catFR1	0	R1499T
510.897	0.966	513146	WORD_OFF	n/a	n/a	PAPA	Vegetables	5	1	[0, 0, 0]	n/a	catFR1	0	R1499T
511.863	1.617	514110	WORD	n/a	wordpools/wordpool_categorized_SP.txt	MAIZ	Vegetables	6	1	[0, 0, 0]	n/a	catFR1	0	R1499T
513.48	0.8	515726	WORD_OFF	n/a	n/a	MAIZ	Vegetables	6	1	[0, 0, 0]	n/a	catFR1	0	R1499T
514.28	1.6	516533	WORD	n/a	wordpools/wordpool_categorized_SP.txt	MUNECO	Toys	7	1	[0, 0, 0]	n/a	catFR1	0	R1499T
515.88	0.934	518135	WORD_OFF	n/a	n/a	MUNECO	Toys	7	1	[0, 0, 0]	n/a	catFR1	0	R1499T
516.814	1.616	519070	WORD	n/a	wordpools/wordpool_categorized_SP.txt	BARBIE	Toys	8	1	[0, 0, 0]	n/a	catFR1	0	R1499T
518.43	0.9	520686	WORD_OFF	n/a	n/a	BARBIE	Toys	8	1	[0, 0, 0]	n/a	catFR1	0	R1499T
519.33	1.617	521578	WORD	n/a	wordpools/wordpool_categorized_SP.txt	ARVEJA	Vegetables	9	1	[0, 0, 0]	n/a	catFR1	0	R1499T
520.947	0.767	523194	WORD_OFF	n/a	n/a	ARVEJA	Vegetables	9	1	[0, 0, 0]	n/a	catFR1	0	R1499T
521.714	1.6	523959	WORD	n/a	wordpools/wordpool_categorized_SP.txt	APIO	Vegetables	10	1	[0, 0, 0]	n/a	catFR1	0	R1499T
523.314	0.833	525561	WORD_OFF	n/a	n/a	APIO	Vegetables	10	1	[0, 0, 0]	n/a	catFR1	0	R1499T
524.147	1.616	526397	WORD	n/a	wordpools/wordpool_categorized_SP.txt	HACHA	Tools	11	1	[0, 0, 0]	n/a	catFR1	0	R1499T
525.763	0.951	528012	WORD_OFF	n/a	n/a	HACHA	Tools	11	1	[0, 0, 0]	n/a	catFR1	0	R1499T
526.714	1.6	528962	WORD	n/a	wordpools/wordpool_categorized_SP.txt	LIJADORA	Tools	12	1	[0, 0, 0]	n/a	catFR1	0	R1499T
528.314	0.001	530563	WORD_OFF	n/a	n/a	LIJADORA	Tools	12	1	[0, 0, 0]	n/a	catFR1	0	R1499T
528.315	0.0	530563	ENCODING_END	n/a	n/a	n/a	n/a	-999	1	[0, 0, 0]	n/a	catFR1	0	R1499T
528.315	0.0	530563	DISTRACT_START	n/a	n/a	n/a	n/a	-999	1	[0, 0, 0]	n/a	catFR1	0	R1499T
528.314	0.001	530568	PROB	0.001	n/a	n/a	n/a	-999	1	[4, 7, 4]	15	catFR1	0	R1499T
528.315	12.032	530569	START	n/a	n/a	n/a	n/a	-999	1	[-999, -999, -999]	n/a	catFR1	0	R1499T
540.347	7.167	542601	PROB	7.167	n/a	n/a	n/a	-999	1	[2, 4, 7]	13	catFR1	0	R1499T
547.514	3.749	549767	PROB	3.749	n/a	n/a	n/a	-999	1	[5, 5, 1]	11	catFR1	0	R1499T
551.263	0.0	553507	DISTRACT_END	n/a	n/a	n/a	n/a	-999	1	[0, 0, 0]	n/a	catFR1	0	R1499T
551.263	1.017	553516	STOP	n/a	n/a	n/a	n/a	-999	1	[-999, -999, -999]	n/a	catFR1	0	R1499T
552.28	2.371	554527	REC_START	n/a	n/a	n/a	n/a	-999	1	[0, 0, 0]	n/a	catFR1	0	R1499T
554.651	1.0	556904	REC_WORD_VV	1.0	n/a	<>	n/a	-999	1	[0, 0, 0]	n/a	catFR1	0	R1499T
555.651	1.583	557904	REC_WORD_VV	1.583	n/a	<>	n/a	-999	1	[0, 0, 0]	n/a	catFR1	0	R1499T
557.234	0.623	559487	REC_WORD	0.623	n/a	PAPA	Vegetables	5	1	[0, 0, 0]	n/a	catFR1	0	R1499T
557.857	1.0	560110	REC_WORD	1.0	n/a	SERRUCHO	n/a	-999	1	[0, 0, 0]	n/a	catFR1	0	R1499T
558.857	0.692	561110	REC_WORD	0.692	n/a	SERRUCHO	n/a	-999	1	[0, 0, 0]	n/a	catFR1	0	R1499T
559.549	1.0	561802	REC_WORD	1.0	n/a	LICUADORA	n/a	-999	1	[0, 0, 0]	n/a	catFR1	0	R1499T
560.549	1.09	562801	REC_WORD	1.09	n/a	LICUADORA	n/a	-999	1	[0, 0, 0]	n/a	catFR1	0	R1499T
561.639	1.09	563891	REC_WORD_VV	1.09	n/a	<>	n/a	-999	1	[0, 0, 0]	n/a	catFR1	0	R1499T
562.729	1.513	564981	REC_WORD_VV	1.513	n/a	<>	n/a	-999	1	[0, 0, 0]	n/a	catFR1	0	R1499T
564.242	1.322	566494	REC_WORD_VV	1.322	n/a	<>	n/a	-999	1	[0, 0, 0]	n/a	catFR1	0	R1499T
565.564	0.562	567816	REC_WORD_VV	0.562	n/a	<>	n/a	-999	1	[0, 0, 0]	n/a	catFR1	0	R1499T
566.126	2.181	568378	REC_WORD	2.181	n/a	HACHA	Tools	11	1	[0, 0, 0]	n/a	catFR1	0	R1499T
568.307	1.031	570559	REC_WORD	1.031	n/a	HACHA	Tools	11	1	[0, 0, 0]	n/a	catFR1	0	R1499T
569.338	1.0	571590	REC_WORD_VV	1.0	n/a	<>	n/a	-999	1	[0, 0, 0]	n/a	catFR1	0	R1499T
570.338	1.316	572590	REC_WORD_VV	1.316	n/a	<>	n/a	-999	1	[0, 0, 0]	n/a	catFR1	0	R1499T
571.654	2.029	573906	REC_WORD_VV	2.029	n/a	<>	n/a	-999	1	[0, 0, 0]	n/a	catFR1	0	R1499T
573.683	3.614	575935	REC_WORD_VV	3.614	n/a	<>	n/a	-999	1	[0, 0, 0]	n/a	catFR1	0	R1499T
577.297	3.271	579549	REC_WORD	3.271	n/a	PAPA	Vegetables	5	1	[0, 0, 0]	n/a	catFR1	0	R1499T
580.568	1.127	582819	REC_WORD	1.127	n/a	PAPA	Vegetables	5	1	[0, 0, 0]	n/a	catFR1	0	R1499T
581.695	1.801	583946	REC_WORD	1.801	n/a	SERRUCHO	n/a	-999	1	[0, 0, 0]	n/a	catFR1	0	R1499T
583.496	7.1	585747	REC_END	n/a	n/a	n/a	n/a	-999	1	[0, 0, 0]	n/a	catFR1	0	R1499T
590.596	10.351	592847	COUNTDOWN_START	n/a	n/a	n/a	n/a	-999	1	[0, 0, 0]	n/a	catFR1	0	R1499T
600.947	0.0	603192	COUNTDOWN_END	n/a	n/a	n/a	n/a	-999	1	[0, 0, 0]	n/a	catFR1	0	R1499T
600.947	2.083	603192	ENCODING_START	n/a	n/a	n/a	n/a	-999	2	[0, 0, 0]	n/a	catFR1	0	R1499T
603.03	1.6	605275	WORD	n/a	wordpools/wordpool_categorized_SP.txt	PETIRROJO	Birds	1	2	[0, 0, 0]	n/a	catFR1	0	R1499T
604.63	0.767	606876	WORD_OFF	n/a	n/a	PETIRROJO	Birds	1	2	[0, 0, 0]	n/a	catFR1	0	R1499T
605.397	1.6	607641	WORD	n/a	wordpools/wordpool_categorized_SP.txt	GORRION	Birds	2	2	[0, 0, 0]	n/a	catFR1	0	R1499T
606.997	0.95	609243	WORD_OFF	n/a	n/a	GORRION	Birds	2	2	[0, 0, 0]	n/a	catFR1	0	R1499T
607.947	1.616	610192	WORD	n/a	wordpools/wordpool_categorized_SP.txt	MARIPOSA	Insects	3	2	[0, 0, 0]	n/a	catFR1	0	R1499T
609.563	0.95	611808	WORD_OFF	n/a	n/a	MARIPOSA	Insects	3	2	[0, 0, 0]	n/a	catFR1	0	R1499T
610.513	1.601	612757	WORD	n/a	wordpools/wordpool_categorized_SP.txt	ARANA	Insects	4	2	[0, 0, 0]	n/a	catFR1	0	R1499T
612.114	0.866	614359	WORD_OFF	n/a	n/a	ARANA	Insects	4	2	[0, 0, 0]	n/a	catFR1	0	R1499T
612.98	1.617	615223	WORD	n/a	wordpools/wordpool_categorized_SP.txt	ASPIRADORA	Appliances	5	2	[0, 0, 0]	n/a	catFR1	0	R1499T
614.597	0.866	616839	WORD_OFF	n/a	n/a	ASPIRADORA	Appliances	5	2	[0, 0, 0]	n/a	catFR1	0	R1499T
615.463	1.616	617717	WORD	n/a	wordpools/wordpool_categorized_SP.txt	MEZCLA	Appliances	6	2	[0, 0, 0]	n/a	catFR1	0	R1499T
617.079	0.801	619319	WORD_OFF	n/a	n/a	MEZCLA	Appliances	6	2	[0, 0, 0]	n/a	catFR1	0	R1499T
617.88	1.6	620126	WORD	n/a	wordpools/wordpool_categorized_SP.txt	CUERVO	Birds	7	2	[0, 0, 0]	n/a	catFR1	0	R1499T
619.48	0.766	621728	WORD_OFF	n/a	n/a	CUERVO	Birds	7	2	[0, 0, 0]	n/a	catFR1	0	R1499T
620.246	1.601	622493	WORD	n/a	wordpools/wordpool_categorized_SP.txt	GANZO	Birds	8	2	[0, 0, 0]	n/a	catFR1	0	R1499T
621.847	0.933	624094	WORD_OFF	n/a	n/a	GANZO	Birds	8	2	[0, 0, 0]	n/a	catFR1	0	R1499T
622.78	1.617	625030	WORD	n/a	wordpools/wordpool_categorized_SP.txt	HORMIGA	Insects	9	2	[0, 0, 0]	n/a	catFR1	0	R1499T
624.397	0.983	626645	WORD_OFF	n/a	n/a	HORMIGA	Insects	9	2	[0, 0, 0]	n/a	catFR1	0	R1499T
625.38	1.6	627623	WORD	n/a	wordpools/wordpool_categorized_SP.txt	MARIQUITA	Insects	10	2	[0, 0, 0]	n/a	catFR1	0	R1499T
626.98	0.833	629225	WORD_OFF	n/a	n/a	MARIQUITA	Insects	10	2	[0, 0, 0]	n/a	catFR1	0	R1499T
627.813	1.617	630061	WORD	n/a	wordpools/wordpool_categorized_SP.txt	HORNO	Appliances	11	2	[0, 0, 0]	n/a	catFR1	0	R1499T
629.43	0.933	631676	WORD_OFF	n/a	n/a	HORNO	Appliances	11	2	[0, 0, 0]	n/a	catFR1	0	R1499T
630.363	1.6	632612	WORD	n/a	wordpools/wordpool_categorized_SP.txt	LICUADORA	Appliances	12	2	[0, 0, 0]	n/a	catFR1	0	R1499T
631.963	0.002	634213	WORD_OFF	n/a	n/a	LICUADORA	Appliances	12	2	[0, 0, 0]	n/a	catFR1	0	R1499T
631.965	0.0	634213	ENCODING_END	n/a	n/a	n/a	n/a	-999	2	[0, 0, 0]	n/a	catFR1	0	R1499T
631.965	0.0	634213	DISTRACT_START	n/a	n/a	n/a	n/a	-999	2	[0, 0, 0]	n/a	catFR1	0	R1499T
631.964	0.001	634213	PROB	0.001	n/a	n/a	n/a	-999	2	[3, 5, 2]	10	catFR1	0	R1499T
631.965	4.899	634214	START	n/a	n/a	n/a	n/a	-999	2	[-999, -999, -999]	n/a	catFR1	0	R1499T
636.864	5.067	639113	PROB	5.067	n/a	n/a	n/a	-999	2	[8, 3, 8]	19	catFR1	0	R1499T
641.931	5.166	644179	PROB	5.166	n/a	n/a	n/a	-999	2	[5, 2, 7]	14	catFR1	0	R1499T
647.097	4.483	649345	PROB	4.483	n/a	n/a	n/a	-999	2	[2, 3, 5]	10	catFR1	0	R1499T
651.58	9.667	653828	PROB	9.667	n/a	n/a	n/a	-999	2	[7, 8, 7]	22	catFR1	0	R1499T
661.247	0.0	663491	DISTRACT_END	n/a	n/a	n/a	n/a	-999	2	[0, 0, 0]	n/a	catFR1	0	R1499T
661.247	1.35	663494	STOP	n/a	n/a	n/a	n/a	-999	2	[-999, -999, -999]	n/a	catFR1	0	R1499T
662.597	0.129	664837	REC_START	n/a	n/a	n/a	n/a	-999	2	[0, 0, 0]	n/a	catFR1	0	R1499T
662.726	0.853	664973	REC_WORD_VV	0.853	n/a	<>	n/a	-999	2	[0, 0, 0]	n/a	catFR1	0	R1499T
663.579	1.1	665826	REC_WORD_VV	1.1	n/a	<>	n/a	-999	2	[0, 0, 0]	n/a	catFR1	0	R1499T
664.679	1.0	666926	REC_WORD	1.0	n/a	HORMIGA	Insects	9	2	[0, 0, 0]	n/a	catFR1	0	R1499T
665.679	1.283	667926	REC_WORD	1.283	n/a	HORMIGA	Insects	9	2	[0, 0, 0]	n/a	catFR1	0	R1499T
666.962	0.633	669209	REC_WORD	0.633	n/a	HORMIGA	Insects	9	2	[0, 0, 0]	n/a	catFR1	0	R1499T
667.595	1.0	669842	REC_WORD	1.0	n/a	MARIPOSA	Insects	3	2	[0, 0, 0]	n/a	catFR1	0	R1499T
668.595	0.898	670842	REC_WORD	0.898	n/a	MARIPOSA	Insects	3	2	[0, 0, 0]	n/a	catFR1	0	R1499T
669.493	1.0	671740	REC_WORD_VV	1.0	n/a	<>	n/a	-999	2	[0, 0, 0]	n/a	catFR1	0	R1499T
670.493	2.314	672740	REC_WORD_VV	2.314	n/a	<>	n/a	-999	2	[0, 0, 0]	n/a	catFR1	0	R1499T
672.807	1.0	675054	REC_WORD_VV	1.0	n/a	<>	n/a	-999	2	[0, 0, 0]	n/a	catFR1	0	R1499T
673.807	1.01	676054	REC_WORD_VV	1.01	n/a	<>	n/a	-999	2	[0, 0, 0]	n/a	catFR1	0	R1499T
674.817	2.066	677064	REC_WORD	2.066	n/a	HACHA	Tools	-999	2	[0, 0, 0]	n/a	catFR1	0	R1499T
676.883	1.0	679130	REC_WORD	1.0	n/a	LICUADORA	Appliances	12	2	[0, 0, 0]	n/a	catFR1	0	R1499T
677.883	0.553	680130	REC_WORD	0.553	n/a	LICUADORA	Appliances	12	2	[0, 0, 0]	n/a	catFR1	0	R1499T
678.436	2.141	680683	REC_WORD	2.141	n/a	LAVADORA	Appliances	-999	2	[0, 0, 0]	n/a	catFR1	0	R1499T
680.577	1.0	682823	REC_WORD	1.0	n/a	ASPIRADORA	Appliances	5	2	[0, 0, 0]	n/a	catFR1	0	R1499T
681.577	3.279	683823	REC_WORD	3.279	n/a	ASPIRADORA	Appliances	5	2	[0, 0, 0]	n/a	catFR1	0	R1499T
684.856	5.816	687102	REC_WORD_VV	5.816	n/a	<>	n/a	-999	2	[0, 0, 0]	n/a	catFR1	0	R1499T
690.672	1.385	692918	REC_WORD	1.385	n/a	GANZO	Birds	8	2	[0, 0, 0]	n/a	catFR1	0	R1499T
692.057	1.731	694303	REC_WORD_VV	1.731	n/a	<>	n/a	-999	2	[0, 0, 0]	n/a	catFR1	0	R1499T
693.788	2.892	696029	REC_END	n/a	n/a	n/a	n/a	-999	2	[0, 0, 0]	n/a	catFR1	0	R1499T
696.68	10.35	698920	COUNTDOWN_START	n/a	n/a	n/a	n/a	-999	2	[0, 0, 0]	n/a	catFR1	0	R1499T
707.03	0.001	709265	COUNTDOWN_END	n/a	n/a	n/a	n/a	-999	2	[0, 0, 0]	n/a	catFR1	0	R1499T
707.031	2.148	709279	ENCODING_START	n/a	n/a	n/a	n/a	-999	3	[0, 0, 0]	n/a	catFR1	0	R1499T
709.179	1.618	711419	WORD	n/a	wordpools/wordpool_categorized_SP.txt	SIDRA	Beverages	1	3	[0, 0, 0]	n/a	catFR1	0	R1499T
710.797	0.849	713034	WORD_OFF	n/a	n/a	SIDRA	Beverages	1	3	[0, 0, 0]	n/a	catFR1	0	R1499T
711.646	1.601	713885	WORD	n/a	wordpools/wordpool_categorized_SP.txt	CERVEZA	Beverages	2	3	[0, 0, 0]	n/a	catFR1	0	R1499T
713.247	1.0	715486	WORD_OFF	n/a	n/a	CERVEZA	Beverages	2	3	[0, 0, 0]	n/a	catFR1	0	R1499T
714.247	1.6	716492	WORD	n/a	wordpools/wordpool_categorized_SP.txt	BALERO	Toys	3	3	[0, 0, 0]	n/a	catFR1	0	R1499T
715.847	0.783	718094	WORD_OFF	n/a	n/a	BALERO	Toys	3	3	[0, 0, 0]	n/a	catFR1	0	R1499T
716.63	1.6	718873	WORD	n/a	wordpools/wordpool_categorized_SP.txt	BLOQUE	Toys	4	3	[0, 0, 0]	n/a	catFR1	0	R1499T
718.23	0.916	720474	WORD_OFF	n/a	n/a	BLOQUE	Toys	4	3	[0, 0, 0]	n/a	catFR1	0	R1499T
719.146	1.601	721381	WORD	n/a	wordpools/wordpool_categorized_SP.txt	PIEL	Fabric	5	3	[0, 0, 0]	n/a	catFR1	0	R1499T
720.747	0.983	722983	WORD_OFF	n/a	n/a	PIEL	Fabric	5	3	[0, 0, 0]	n/a	catFR1	0	R1499T
721.73	1.6	723975	WORD	n/a	wordpools/wordpool_categorized_SP.txt	LANA	Fabric	6	3	[0, 0, 0]	n/a	catFR1	0	R1499T
723.33	0.983	725576	WORD_OFF	n/a	n/a	LANA	Fabric	6	3	[0, 0, 0]	n/a	catFR1	0	R1499T
724.313	1.6	726554	WORD	n/a	wordpools/wordpool_categorized_SP.txt	AGUA	Beverages	7	3	[0, 0, 0]	n/a	catFR1	0	R1499T
725.913	0.817	728155	WORD_OFF	n/a	n/a	AGUA	Beverages	7	3	[0, 0, 0]	n/a	catFR1	0	R1499T
726.73	1.6	728977	WORD	n/a	wordpools/wordpool_categorized_SP.txt	CAFE	Beverages	8	3	[0, 0, 0]	n/a	catFR1	0	R1499T
728.33	0.967	730564	WORD_OFF	n/a	n/a	CAFE	Beverages	8	3	[0, 0, 0]	n/a	catFR1	0	R1499T
729.297	1.6	731542	WORD	n/a	wordpools/wordpool_categorized_SP.txt	LINO	Fabric	9	3	[0, 0, 0]	n/a	catFR1	0	R1499T
730.897	0.949	733144	WORD_OFF	n/a	n/a	LINO	Fabric	9	3	[0, 0, 0]	n/a	catFR1	0	R1499T
731.846	1.616	734093	WORD	n/a	wordpools/wordpool_categorized_SP.txt	SATEN	Fabric	10	3	[0, 0, 0]	n/a	catFR1	0	R1499T
733.462	0.867	735709	WORD_OFF	n/a	n/a	SATEN	Fabric	10	3	[0, 0, 0]	n/a	catFR1	0	R1499T
734.329	1.601	736573	WORD	n/a	wordpools/wordpool_categorized_SP.txt	CANICAS	Toys	11	3	[0, 0, 0]	n/a	catFR1	0	R1499T
735.93	0.949	738174	WORD_OFF	n/a	n/a	CANICAS	Toys	11	3	[0, 0, 0]	n/a	catFR1	0	R1499T
736.879	1.602	739124	WORD	n/a	wordpools/wordpool_categorized_SP.txt	FUTBOL	Toys	12	3	[0, 0, 0]	n/a	catFR1	0	R1499T
738.481	0.0	740724	PROB	0.0	n/a	n/a	n/a	-999	3	[3, 1, 8]	12	catFR1	0	R1499T
738.48	0.002	740725	WORD_OFF	n/a	n/a	FUTBOL	Toys	12	3	[0, 0, 0]	n/a	catFR1	0	R1499T
738.482	0.0	740725	ENCODING_END	n/a	n/a	n/a	n/a	-999	3	[0, 0, 0]	n/a	catFR1	0	R1499T
738.482	0.0	740725	DISTRACT_START	n/a	n/a	n/a	n/a	-999	3	[0, 0, 0]	n/a	catFR1	0	R1499T
738.482	4.782	740725	START	n/a	n/a	n/a	n/a	-999	3	[-999, -999, -999]	n/a	catFR1	0	R1499T
743.264	4.783	745507	PROB	4.783	n/a	n/a	n/a	-999	3	[2, 4, 8]	14	catFR1	0	R1499T
748.047	5.2	750290	PROB	5.2	n/a	n/a	n/a	-999	3	[7, 5, 3]	15	catFR1	0	R1499T
753.247	4.866	755490	PROB	4.866	n/a	n/a	n/a	-999	3	[1, 4, 2]	7	catFR1	0	R1499T
758.113	4.4	760355	PROB	4.4	n/a	n/a	n/a	-999	3	[8, 3, 2]	13	catFR1	0	R1499T
762.513	0.0	764746	DISTRACT_END	n/a	n/a	n/a	n/a	-999	3	[0, 0, 0]	n/a	catFR1	0	R1499T
762.513	1.284	764755	STOP	n/a	n/a	n/a	n/a	-999	3	[-999, -999, -999]	n/a	catFR1	0	R1499T
763.797	3.041	766035	REC_START	n/a	n/a	n/a	n/a	-999	3	[0, 0, 0]	n/a	catFR1	0	R1499T
766.838	1.0	769080	REC_WORD	1.0	n/a	CERVEZA	Beverages	2	3	[0, 0, 0]	n/a	catFR1	0	R1499T
767.838	0.723	770080	REC_WORD	0.723	n/a	CERVEZA	Beverages	2	3	[0, 0, 0]	n/a	catFR1	0	R1499T
768.561	2.004	770803	REC_WORD	2.004	n/a	CAFE	Beverages	8	3	[0, 0, 0]	n/a	catFR1	0	R1499T
770.565	1.094	772807	REC_WORD_VV	1.094	n/a	<>	n/a	-999	3	[0, 0, 0]	n/a	catFR1	0	R1499T
771.659	2.137	773901	REC_WORD	2.137	n/a	AGUA	Beverages	7	3	[0, 0, 0]	n/a	catFR1	0	R1499T
773.796	1.399	776038	REC_WORD	1.399	n/a	AGUA	Beverages	7	3	[0, 0, 0]	n/a	catFR1	0	R1499T
775.195	2.801	777437	REC_WORD	2.801	n/a	LINO	Fabric	9	3	[0, 0, 0]	n/a	catFR1	0	R1499T
777.996	5.94	780237	REC_WORD_VV	5.94	n/a	<>	n/a	-999	3	[0, 0, 0]	n/a	catFR1	0	R1499T
783.936	3.143	786177	REC_WORD_VV	3.143	n/a	<>	n/a	-999	3	[0, 0, 0]	n/a	catFR1	0	R1499T
787.079	0.931	789320	REC_WORD	0.931	n/a	CERVEZA	Beverages	2	3	[0, 0, 0]	n/a	catFR1	0	R1499T
788.01	0.851	790251	REC_WORD	0.851	n/a	CAFE	Beverages	8	3	[0, 0, 0]	n/a	catFR1	0	R1499T
788.861	0.539	791102	REC_WORD	0.539	n/a	LINO	Fabric	9	3	[0, 0, 0]	n/a	catFR1	0	R1499T
789.4	3.508	791641	REC_WORD	3.508	n/a	AGUA	Beverages	7	3	[0, 0, 0]	n/a	catFR1	0	R1499T
792.908	2.1	795149	REC_WORD_VV	2.1	n/a	<>	n/a	-999	3	[0, 0, 0]	n/a	catFR1	0	R1499T
795.008	4.322	797241	REC_END	n/a	n/a	n/a	n/a	-999	3	[0, 0, 0]	n/a	catFR1	0	R1499T
799.33	10.35	801563	COUNTDOWN_START	n/a	n/a	n/a	n/a	-999	3	[0, 0, 0]	n/a	catFR1	0	R1499T
809.68	0.0	811922	COUNTDOWN_END	n/a	n/a	n/a	n/a	-999	3	[0, 0, 0]	n/a	catFR1	0	R1499T
809.68	2.117	811922	ENCODING_START	n/a	n/a	n/a	n/a	-999	4	[0, 0, 0]	n/a	catFR1	0	R1499T
811.797	1.616	814034	WORD	n/a	wordpools/wordpool_categorized_SP.txt	SACACORCHOS	KitchenTools	1	4	[0, 0, 0]	n/a	catFR1	0	R1499T
813.413	0.9	815650	WORD_OFF	n/a	n/a	SACACORCHOS	KitchenTools	1	4	[0, 0, 0]	n/a	catFR1	0	R1499T
814.313	1.6	816556	WORD	n/a	wordpools/wordpool_categorized_SP.txt	COLADOR	KitchenTools	2	4	[0, 0, 0]	n/a	catFR1	0	R1499T
815.913	1.0	818144	WORD_OFF	n/a	n/a	COLADOR	KitchenTools	2	4	[0, 0, 0]	n/a	catFR1	0	R1499T
816.913	1.6	819150	WORD	n/a	wordpools/wordpool_categorized_SP.txt	ZANAHORIA	Vegetables	3	4	[0, 0, 0]	n/a	catFR1	0	R1499T
818.513	0.917	820751	WORD_OFF	n/a	n/a	ZANAHORIA	Vegetables	3	4	[0, 0, 0]	n/a	catFR1	0	R1499T
819.43	1.6	821672	WORD	n/a	wordpools/wordpool_categorized_SP.txt	BROCOLI	Vegetables	4	4	[0, 0, 0]	n/a	catFR1	0	R1499T
821.03	0.767	823260	WORD_OFF	n/a	n/a	BROCOLI	Vegetables	4	4	[0, 0, 0]	n/a	catFR1	0	R1499T
821.797	1.616	824039	WORD	n/a	wordpools/wordpool_categorized_SP.txt	SODA	Beverages	5	4	[0, 0, 0]	n/a	catFR1	0	R1499T
823.413	0.9	825655	WORD_OFF	n/a	n/a	SODA	Beverages	5	4	[0, 0, 0]	n/a	catFR1	0	R1499T
824.313	1.6	826547	WORD	n/a	wordpools/wordpool_categorized_SP.txt	RON	Beverages	6	4	[0, 0, 0]	n/a	catFR1	0	R1499T
825.913	0.966	828149	WORD_OFF	n/a	n/a	RON	Beverages	6	4	[0, 0, 0]	n/a	catFR1	0	R1499T
826.879	1.6	829112	WORD	n/a	wordpools/wordpool_categorized_SP.txt	TENAZAS	KitchenTools	7	4	[0, 0, 0]	n/a	catFR1	0	R1499T
828.479	0.968	830714	WORD_OFF	n/a	n/a	TENAZAS	KitchenTools	7	4	[0, 0, 0]	n/a	catFR1	0	R1499T
829.447	1.616	831677	WORD	n/a	wordpools/wordpool_categorized_SP.txt	CUCHARA	KitchenTools	8	4	[0, 0, 0]	n/a	catFR1	0	R1499T
831.063	0.85	833293	WORD_OFF	n/a	n/a	CUCHARA	KitchenTools	8	4	[0, 0, 0]	n/a	catFR1	0	R1499T
831.913	1.6	834143	WORD	n/a	wordpools/wordpool_categorized_SP.txt	PEPINO	Vegetables	9	4	[0, 0, 0]	n/a	catFR1	0	R1499T
833.513	0.917	835745	WORD_OFF	n/a	n/a	PEPINO	Vegetables	9	4	[0, 0, 0]	n/a	catFR1	0	R1499T
834.43	1.616	836666	WORD	n/a	wordpools/wordpool_categorized_SP.txt	ESPINACA	Vegetables	10	4	[0, 0, 0]	n/a	catFR1	0	R1499T
836.046	0.883	838281	WORD_OFF	n/a	n/a	ESPINACA	Vegetables	10	4	[0, 0, 0]	n/a	catFR1	0	R1499T
836.929	1.6	839160	WORD	n/a	wordpools/wordpool_categorized_SP.txt	TE	Beverages	11	4	[0, 0, 0]	n/a	catFR1	0	R1499T
838.529	0.968	840761	WORD_OFF	n/a	n/a	TE	Beverages	11	4	[0, 0, 0]	n/a	catFR1	0	R1499T
839.497	1.616	841725	WORD	n/a	wordpools/wordpool_categorized_SP.txt	JUGO	Beverages	12	4	[0, 0, 0]	n/a	catFR1	0	R1499T
841.113	0.0	843340	WORD_OFF	n/a	n/a	JUGO	Beverages	12	4	[0, 0, 0]	n/a	catFR1	0	R1499T
841.113	0.001	843351	PROB	0.001	n/a	n/a	n/a	-999	4	[2, 1, 1]	4	catFR1	0	R1499T
841.114	0.0	843352	START	n/a	n/a	n/a	n/a	-999	4	[-999, -999, -999]	n/a	catFR1	0	R1499T
841.114	0.0	843355	ENCODING_END	n/a	n/a	n/a	n/a	-999	4	[0, 0, 0]	n/a	catFR1	0	R1499T
841.114	4.6	843355	DISTRACT_START	n/a	n/a	n/a	n/a	-999	4	[0, 0, 0]	n/a	catFR1	0	R1499T
845.714	4.965	847952	PROB	4.965	n/a	n/a	n/a	-999	4	[5, 8, 7]	20	catFR1	0	R1499T
850.679	4.969	852917	PROB	4.969	n/a	n/a	n/a	-999	4	[4, 8, 3]	15	catFR1	0	R1499T
855.648	4.466	857886	PROB	4.466	n/a	n/a	n/a	-999	4	[4, 5, 8]	17	catFR1	0	R1499T
860.114	4.45	862351	PROB	4.45	n/a	n/a	n/a	-999	4	[3, 1, 5]	9	catFR1	0	R1499T
864.564	0.0	866794	DISTRACT_END	n/a	n/a	n/a	n/a	-999	4	[0, 0, 0]	n/a	catFR1	0	R1499T
864.564	1.4	866801	STOP	n/a	n/a	n/a	n/a	-999	4	[-999, -999, -999]	n/a	catFR1	0	R1499T
865.964	1.979	868197	REC_START	n/a	n/a	n/a	n/a	-999	4	[0, 0, 0]	n/a	catFR1	0	R1499T
867.943	1.889	870180	REC_WORD	1.889	n/a	TE	Beverages	11	4	[0, 0, 0]	n/a	catFR1	0	R1499T
869.832	0.26	872069	REC_WORD	0.26	n/a	TE	Beverages	11	4	[0, 0, 0]	n/a	catFR1	0	R1499T
870.092	1.0	872329	REC_WORD	1.0	n/a	SACACORCHOS	KitchenTools	1	4	[0, 0, 0]	n/a	catFR1	0	R1499T
871.092	1.227	873329	REC_WORD	1.227	n/a	SACACORCHOS	KitchenTools	1	4	[0, 0, 0]	n/a	catFR1	0	R1499T
872.319	1.276	874556	REC_WORD_VV	1.276	n/a	<>	n/a	-999	4	[0, 0, 0]	n/a	catFR1	0	R1499T
873.595	1.002	875832	REC_WORD	1.002	n/a	BROCOLI	Vegetables	4	4	[0, 0, 0]	n/a	catFR1	0	R1499T
874.597	1.63	876834	REC_WORD	1.63	n/a	BROCOLI	Vegetables	4	4	[0, 0, 0]	n/a	catFR1	0	R1499T
876.227	1.0	878463	REC_WORD	1.0	n/a	BROCOLI	Vegetables	4	4	[0, 0, 0]	n/a	catFR1	0	R1499T
877.227	0.065	879463	REC_WORD	0.065	n/a	BROCOLI	Vegetables	4	4	[0, 0, 0]	n/a	catFR1	0	R1499T
877.292	1.0	879528	REC_WORD	1.0	n/a	ZANAHORIA	Vegetables	3	4	[0, 0, 0]	n/a	catFR1	0	R1499T
878.292	0.96	880528	REC_WORD	0.96	n/a	ZANAHORIA	Vegetables	3	4	[0, 0, 0]	n/a	catFR1	0	R1499T
879.252	1.958	881488	REC_WORD_VV	1.958	n/a	<>	n/a	-999	4	[0, 0, 0]	n/a	catFR1	0	R1499T
881.21	1.446	883446	REC_WORD	1.446	n/a	APIO	Vegetables	-999	4	[0, 0, 0]	n/a	catFR1	0	R1499T
882.656	2.772	884892	REC_WORD	2.772	n/a	PEPINO	Vegetables	9	4	[0, 0, 0]	n/a	catFR1	0	R1499T
885.428	1.0	887664	REC_WORD_VV	1.0	n/a	<>	n/a	-999	4	[0, 0, 0]	n/a	catFR1	0	R1499T
886.428	2.196	888664	REC_WORD_VV	2.196	n/a	<>	n/a	-999	4	[0, 0, 0]	n/a	catFR1	0	R1499T
888.624	1.0	890860	REC_WORD_VV	1.0	n/a	<>	n/a	-999	4	[0, 0, 0]	n/a	catFR1	0	R1499T
889.624	3.481	891860	REC_WORD_VV	3.481	n/a	<>	n/a	-999	4	[0, 0, 0]	n/a	catFR1	0	R1499T
893.105	0.693	895341	REC_WORD_VV	0.693	n/a	<>	n/a	-999	4	[0, 0, 0]	n/a	catFR1	0	R1499T
893.798	1.436	896034	REC_WORD	1.436	n/a	PEPINO	Vegetables	9	4	[0, 0, 0]	n/a	catFR1	0	R1499T
895.234	1.924	897470	REC_WORD_VV	1.924	n/a	<>	n/a	-999	4	[0, 0, 0]	n/a	catFR1	0	R1499T
897.158	3.322	899388	REC_END	n/a	n/a	n/a	n/a	-999	4	[0, 0, 0]	n/a	catFR1	0	R1499T
900.48	10.35	902719	COUNTDOWN_START	n/a	n/a	n/a	n/a	-999	4	[0, 0, 0]	n/a	catFR1	0	R1499T
910.83	0.0	913064	COUNTDOWN_END	n/a	n/a	n/a	n/a	-999	4	[0, 0, 0]	n/a	catFR1	0	R1499T
910.83	2.083	913064	ENCODING_START	n/a	n/a	n/a	n/a	-999	5	[0, 0, 0]	n/a	catFR1	0	R1499T
912.913	1.616	915147	WORD	n/a	wordpools/wordpool_categorized_SP.txt	DESTORNILLADOR	Tools	1	5	[0, 0, 0]	n/a	catFR1	0	R1499T
914.529	0.834	916763	WORD_OFF	n/a	n/a	DESTORNILLADOR	Tools	1	5	[0, 0, 0]	n/a	catFR1	0	R1499T
915.363	1.617	917599	WORD	n/a	wordpools/wordpool_categorized_SP.txt	TRINQUETE	Tools	2	5	[0, 0, 0]	n/a	catFR1	0	R1499T
916.98	0.983	919214	WORD_OFF	n/a	n/a	TRINQUETE	Tools	2	5	[0, 0, 0]	n/a	catFR1	0	R1499T
917.963	1.6	920192	WORD	n/a	wordpools/wordpool_categorized_SP.txt	LLUVIA	Weather	3	5	[0, 0, 0]	n/a	catFR1	0	R1499T
919.563	0.834	921793	WORD_OFF	n/a	n/a	LLUVIA	Weather	3	5	[0, 0, 0]	n/a	catFR1	0	R1499T
920.397	1.6	922630	WORD	n/a	wordpools/wordpool_categorized_SP.txt	TORNADO	Weather	4	5	[0, 0, 0]	n/a	catFR1	0	R1499T
921.997	0.85	924231	WORD_OFF	n/a	n/a	TORNADO	Weather	4	5	[0, 0, 0]	n/a	catFR1	0	R1499T
922.847	1.6	925081	WORD	n/a	wordpools/wordpool_categorized_SP.txt	CERDO	FarmAnimals	5	5	[0, 0, 0]	n/a	catFR1	0	R1499T
924.447	0.883	926683	WORD_OFF	n/a	n/a	CERDO	FarmAnimals	5	5	[0, 0, 0]	n/a	catFR1	0	R1499T
925.33	1.6	927561	WORD	n/a	wordpools/wordpool_categorized_SP.txt	VACA	FarmAnimals	6	5	[0, 0, 0]	n/a	catFR1	0	R1499T
926.93	0.783	929163	WORD_OFF	n/a	n/a	VACA	FarmAnimals	6	5	[0, 0, 0]	n/a	catFR1	0	R1499T
927.713	1.6	929942	WORD	n/a	wordpools/wordpool_categorized_SP.txt	ALICATES	Tools	7	5	[0, 0, 0]	n/a	catFR1	0	R1499T
929.313	0.917	931543	WORD_OFF	n/a	n/a	ALICATES	Tools	7	5	[0, 0, 0]	n/a	catFR1	0	R1499T
930.23	1.616	932464	WORD	n/a	wordpools/wordpool_categorized_SP.txt	LLAVE	Tools	8	5	[0, 0, 0]	n/a	catFR1	0	R1499T
931.846	0.9	934080	WORD_OFF	n/a	n/a	LLAVE	Tools	8	5	[0, 0, 0]	n/a	catFR1	0	R1499T
932.746	1.601	934973	WORD	n/a	wordpools/wordpool_categorized_SP.txt	CORDERO	FarmAnimals	9	5	[0, 0, 0]	n/a	catFR1	0	R1499T
934.347	0.95	936574	WORD_OFF	n/a	n/a	CORDERO	FarmAnimals	9	5	[0, 0, 0]	n/a	catFR1	0	R1499T
935.297	1.6	937524	WORD	n/a	wordpools/wordpool_categorized_SP.txt	PAVO	FarmAnimals	10	5	[0, 0, 0]	n/a	catFR1	0	R1499T
936.897	0.8	939125	WORD_OFF	n/a	n/a	PAVO	FarmAnimals	10	5	[0, 0, 0]	n/a	catFR1	0	R1499T
937.697	1.6	939933	WORD	n/a	wordpools/wordpool_categorized_SP.txt	HURACAN	Weather	11	5	[0, 0, 0]	n/a	catFR1	0	R1499T
939.297	0.999	941520	WORD_OFF	n/a	n/a	HURACAN	Weather	11	5	[0, 0, 0]	n/a	catFR1	0	R1499T
940.296	1.6	942526	WORD	n/a	wordpools/wordpool_categorized_SP.txt	NIEVE	Weather	12	5	[0, 0, 0]	n/a	catFR1	0	R1499T
941.896	0.002	944128	WORD_OFF	n/a	n/a	NIEVE	Weather	12	5	[0, 0, 0]	n/a	catFR1	0	R1499T
941.898	0.0	944128	ENCODING_END	n/a	n/a	n/a	n/a	-999	5	[0, 0, 0]	n/a	catFR1	0	R1499T
941.898	0.0	944128	DISTRACT_START	n/a	n/a	n/a	n/a	-999	5	[0, 0, 0]	n/a	catFR1	0	R1499T
941.897	0.001	944130	PROB	0.001	n/a	n/a	n/a	-999	5	[2, 6, 7]	15	catFR1	0	R1499T
941.898	4.733	944131	START	n/a	n/a	n/a	n/a	-999	5	[-999, -999, -999]	n/a	catFR1	0	R1499T
946.631	5.366	948864	PROB	5.366	n/a	n/a	n/a	-999	5	[4, 4, 6]	14	catFR1	0	R1499T
951.997	4.75	954230	PROB	4.75	n/a	n/a	n/a	-999	5	[3, 4, 5]	12	catFR1	0	R1499T
956.747	4.851	958979	PROB	4.851	n/a	n/a	n/a	-999	5	[2, 6, 2]	10	catFR1	0	R1499T
961.598	4.315	963830	PROB	4.315	n/a	n/a	n/a	-999	5	[5, 7, 3]	15	catFR1	0	R1499T
965.913	0.0	968145	STOP	n/a	n/a	n/a	n/a	-999	5	[-999, -999, -999]	n/a	catFR1	0	R1499T
965.913	1.017	968148	DISTRACT_END	n/a	n/a	n/a	n/a	-999	5	[0, 0, 0]	n/a	catFR1	0	R1499T
966.93	4.288	969154	REC_START	n/a	n/a	n/a	n/a	-999	5	[0, 0, 0]	n/a	catFR1	0	R1499T
971.218	1.0	973450	REC_WORD	1.0	n/a	SACACORCHOS	KitchenTools	-999	5	[0, 0, 0]	n/a	catFR1	0	R1499T
972.218	1.406	974450	REC_WORD	1.406	n/a	SACACORCHOS	KitchenTools	-999	5	[0, 0, 0]	n/a	catFR1	0	R1499T
973.624	1.0	975856	REC_WORD	1.0	n/a	SACACORCHOS	KitchenTools	-999	5	[0, 0, 0]	n/a	catFR1	0	R1499T
974.624	1.113	976856	REC_WORD	1.113	n/a	SACACORCHOS	KitchenTools	-999	5	[0, 0, 0]	n/a	catFR1	0	R1499T
975.737	1.0	977968	REC_WORD	1.0	n/a	CERDO	FarmAnimals	5	5	[0, 0, 0]	n/a	catFR1	0	R1499T
976.737	0.619	978968	REC_WORD	0.619	n/a	CERDO	FarmAnimals	5	5	[0, 0, 0]	n/a	catFR1	0	R1499T
977.356	1.0	979587	REC_WORD	1.0	n/a	CORDERO	FarmAnimals	9	5	[0, 0, 0]	n/a	catFR1	0	R1499T
978.356	3.268	980587	REC_WORD	3.268	n/a	CORDERO	FarmAnimals	9	5	[0, 0, 0]	n/a	catFR1	0	R1499T
981.624	0.587	983855	REC_WORD	0.587	n/a	CERDO	FarmAnimals	5	5	[0, 0, 0]	n/a	catFR1	0	R1499T
982.211	0.765	984442	REC_WORD	0.765	n/a	CORDERO	FarmAnimals	9	5	[0, 0, 0]	n/a	catFR1	0	R1499T
982.976	2.118	985207	REC_WORD_VV	2.118	n/a	<>	n/a	-999	5	[0, 0, 0]	n/a	catFR1	0	R1499T
985.094	0.742	987325	REC_WORD	0.742	n/a	LLAVES	n/a	-999	5	[0, 0, 0]	n/a	catFR1	0	R1499T
985.836	2.278	988067	REC_WORD_VV	2.278	n/a	<>	n/a	-999	5	[0, 0, 0]	n/a	catFR1	0	R1499T
988.114	3.224	990345	REC_WORD_VV	3.224	n/a	<>	n/a	-999	5	[0, 0, 0]	n/a	catFR1	0	R1499T
991.338	0.592	993569	REC_WORD	0.592	n/a	CERDO	FarmAnimals	5	5	[0, 0, 0]	n/a	catFR1	0	R1499T
991.93	0.672	994161	REC_WORD	0.672	n/a	CORDERO	FarmAnimals	9	5	[0, 0, 0]	n/a	catFR1	0	R1499T
992.602	1.376	994833	REC_WORD	1.376	n/a	LLAVES	n/a	-999	5	[0, 0, 0]	n/a	catFR1	0	R1499T
993.978	4.146	996209	REC_WORD_VV	4.146	n/a	<>	n/a	-999	5	[0, 0, 0]	n/a	catFR1	0	R1499T
998.124	6.674	1000346	REC_END	n/a	n/a	n/a	n/a	-999	5	[0, 0, 0]	n/a	catFR1	0	R1499T
1004.798	10.348	1007020	COUNTDOWN_START	n/a	n/a	n/a	n/a	-999	5	[0, 0, 0]	n/a	catFR1	0	R1499T
1015.146	0.0	1017365	COUNTDOWN_END	n/a	n/a	n/a	n/a	-999	5	[0, 0, 0]	n/a	catFR1	0	R1499T
1015.146	2.017	1017380	ENCODING_START	n/a	n/a	n/a	n/a	-999	6	[0, 0, 0]	n/a	catFR1	0	R1499T
1017.163	1.616	1019392	WORD	n/a	wordpools/wordpool_categorized_SP.txt	PERA	Fruit	1	6	[0, 0, 0]	n/a	catFR1	0	R1499T
1018.779	0.834	1021008	WORD_OFF	n/a	n/a	PERA	Fruit	1	6	[0, 0, 0]	n/a	catFR1	0	R1499T
1019.613	1.617	1021844	WORD	n/a	wordpools/wordpool_categorized_SP.txt	MANZANA	Fruit	2	6	[0, 0, 0]	n/a	catFR1	0	R1499T
1021.23	0.966	1023459	WORD_OFF	n/a	n/a	MANZANA	Fruit	2	6	[0, 0, 0]	n/a	catFR1	0	R1499T
1022.196	1.618	1024423	WORD	n/a	wordpools/wordpool_categorized_SP.txt	CALZON	Clothing	3	6	[0, 0, 0]	n/a	catFR1	0	R1499T
1023.814	0.866	1026038	WORD_OFF	n/a	n/a	CALZON	Clothing	3	6	[0, 0, 0]	n/a	catFR1	0	R1499T
1024.68	1.6	1026903	WORD	n/a	wordpools/wordpool_categorized_SP.txt	CAMISA	Clothing	4	6	[0, 0, 0]	n/a	catFR1	0	R1499T
1026.28	0.95	1028504	WORD_OFF	n/a	n/a	CAMISA	Clothing	4	6	[0, 0, 0]	n/a	catFR1	0	R1499T
1027.23	1.616	1029454	WORD	n/a	wordpools/wordpool_categorized_SP.txt	TORO	FarmAnimals	5	6	[0, 0, 0]	n/a	catFR1	0	R1499T
1028.846	0.784	1031069	WORD_OFF	n/a	n/a	TORO	FarmAnimals	5	6	[0, 0, 0]	n/a	catFR1	0	R1499T
1029.63	1.6	1031849	WORD	n/a	wordpools/wordpool_categorized_SP.txt	GALLINA	FarmAnimals	6	6	[0, 0, 0]	n/a	catFR1	0	R1499T
1031.23	0.8	1033450	WORD_OFF	n/a	n/a	GALLINA	FarmAnimals	6	6	[0, 0, 0]	n/a	catFR1	0	R1499T
1032.03	1.617	1034258	WORD	n/a	wordpools/wordpool_categorized_SP.txt	DURAZNO	Fruit	7	6	[0, 0, 0]	n/a	catFR1	0	R1499T
1033.647	0.866	1035873	WORD_OFF	n/a	n/a	DURAZNO	Fruit	7	6	[0, 0, 0]	n/a	catFR1	0	R1499T
1034.513	1.601	1036738	WORD	n/a	wordpools/wordpool_categorized_SP.txt	LIMA	Fruit	8	6	[0, 0, 0]	n/a	catFR1	0	R1499T
1036.114	0.916	1038339	WORD_OFF	n/a	n/a	LIMA	Fruit	8	6	[0, 0, 0]	n/a	catFR1	0	R1499T
1037.03	1.617	1039260	WORD	n/a	wordpools/wordpool_categorized_SP.txt	JEANS	Clothing	9	6	[0, 0, 0]	n/a	catFR1	0	R1499T
1038.647	0.766	1040876	WORD_OFF	n/a	n/a	JEANS	Clothing	9	6	[0, 0, 0]	n/a	catFR1	0	R1499T
1039.413	1.616	1041641	WORD	n/a	wordpools/wordpool_categorized_SP.txt	PANTALONES	Clothing	10	6	[0, 0, 0]	n/a	catFR1	0	R1499T
1041.029	0.784	1043257	WORD_OFF	n/a	n/a	PANTALONES	Clothing	10	6	[0, 0, 0]	n/a	catFR1	0	R1499T
1041.813	1.617	1044036	WORD	n/a	wordpools/wordpool_categorized_SP.txt	POLLO	FarmAnimals	11	6	[0, 0, 0]	n/a	catFR1	0	R1499T
1043.43	0.867	1045652	WORD_OFF	n/a	n/a	POLLO	FarmAnimals	11	6	[0, 0, 0]	n/a	catFR1	0	R1499T
1044.297	1.616	1046516	WORD	n/a	wordpools/wordpool_categorized_SP.txt	CABRA	FarmAnimals	12	6	[0, 0, 0]	n/a	catFR1	0	R1499T
1045.913	0.001	1048132	WORD_OFF	n/a	n/a	CABRA	FarmAnimals	12	6	[0, 0, 0]	n/a	catFR1	0	R1499T
1045.914	0.0	1048132	ENCODING_END	n/a	n/a	n/a	n/a	-999	6	[0, 0, 0]	n/a	catFR1	0	R1499T
1045.913	0.001	1048141	PROB	0.001	n/a	n/a	n/a	-999	6	[3, 1, 2]	6	catFR1	0	R1499T
1045.914	0.0	1048142	START	n/a	n/a	n/a	n/a	-999	6	[-999, -999, -999]	n/a	catFR1	0	R1499T
1045.914	5.267	1048146	DISTRACT_START	n/a	n/a	n/a	n/a	-999	6	[0, 0, 0]	n/a	catFR1	0	R1499T
1051.181	4.384	1053409	PROB	4.384	n/a	n/a	n/a	-999	6	[1, 7, 6]	14	catFR1	0	R1499T
1055.565	3.566	1057792	PROB	3.566	n/a	n/a	n/a	-999	6	[1, 3, 3]	7	catFR1	0	R1499T
1059.131	5.432	1061358	PROB	5.432	n/a	n/a	n/a	-999	6	[3, 2, 2]	7	catFR1	0	R1499T
1064.563	3.417	1066790	PROB	3.417	n/a	n/a	n/a	-999	6	[2, 4, 1]	7	catFR1	0	R1499T
1067.98	0.0	1070196	DISTRACT_END	n/a	n/a	n/a	n/a	-999	6	[0, 0, 0]	n/a	catFR1	0	R1499T
1067.98	1.183	1070207	STOP	n/a	n/a	n/a	n/a	-999	6	[-999, -999, -999]	n/a	catFR1	0	R1499T
1069.163	1.038	1071387	REC_START	n/a	n/a	n/a	n/a	-999	6	[0, 0, 0]	n/a	catFR1	0	R1499T
1070.201	0.348	1072428	REC_WORD	0.348	n/a	PERA	Fruit	1	6	[0, 0, 0]	n/a	catFR1	0	R1499T
1070.549	0.985	1072776	REC_WORD	0.985	n/a	MANZANA	Fruit	2	6	[0, 0, 0]	n/a	catFR1	0	R1499T
1071.534	1.0	1073761	REC_WORD	1.0	n/a	CALZON	Clothing	3	6	[0, 0, 0]	n/a	catFR1	0	R1499T
1072.534	1.112	1074761	REC_WORD	1.112	n/a	CALZON	Clothing	3	6	[0, 0, 0]	n/a	catFR1	0	R1499T
1073.646	1.0	1075872	REC_WORD	1.0	n/a	DURAZNO	Fruit	7	6	[0, 0, 0]	n/a	catFR1	0	R1499T
1074.646	1.037	1076872	REC_WORD	1.037	n/a	DURAZNO	Fruit	7	6	[0, 0, 0]	n/a	catFR1	0	R1499T
1075.683	1.0	1077909	REC_WORD	1.0	n/a	CAMISETA	n/a	-999	6	[0, 0, 0]	n/a	catFR1	0	R1499T
1076.683	6.454	1078909	REC_WORD	6.454	n/a	CAMISETA	n/a	-999	6	[0, 0, 0]	n/a	catFR1	0	R1499T
1083.137	0.268	1085363	REC_WORD	0.268	n/a	PERA	Fruit	1	6	[0, 0, 0]	n/a	catFR1	0	R1499T
1083.405	0.639	1085631	REC_WORD	0.639	n/a	MANZANA	Fruit	2	6	[0, 0, 0]	n/a	catFR1	0	R1499T
1084.044	0.809	1086270	REC_WORD	0.809	n/a	CALZON	Clothing	3	6	[0, 0, 0]	n/a	catFR1	0	R1499T
1084.853	1.0	1087079	REC_WORD	1.0	n/a	CAMISETA	n/a	-999	6	[0, 0, 0]	n/a	catFR1	0	R1499T
1085.853	1.092	1088079	REC_WORD	1.092	n/a	CAMISETA	n/a	-999	6	[0, 0, 0]	n/a	catFR1	0	R1499T
1086.945	4.163	1089171	REC_WORD	4.163	n/a	DURAZNO	Fruit	7	6	[0, 0, 0]	n/a	catFR1	0	R1499T
1091.108	1.0	1093334	REC_WORD_VV	1.0	n/a	<>	n/a	-999	6	[0, 0, 0]	n/a	catFR1	0	R1499T
1092.108	2.14	1094334	REC_WORD_VV	2.14	n/a	<>	n/a	-999	6	[0, 0, 0]	n/a	catFR1	0	R1499T
1094.248	1.0	1096473	REC_WORD_VV	1.0	n/a	<>	n/a	-999	6	[0, 0, 0]	n/a	catFR1	0	R1499T
1095.248	5.097	1097473	REC_WORD_VV	5.097	n/a	<>	n/a	-999	6	[0, 0, 0]	n/a	catFR1	0	R1499T
1100.345	2.269	1102564	REC_END	n/a	n/a	n/a	n/a	-999	6	[0, 0, 0]	n/a	catFR1	0	R1499T
1102.614	10.349	1104831	COUNTDOWN_START	n/a	n/a	n/a	n/a	-999	6	[0, 0, 0]	n/a	catFR1	0	R1499T
1112.963	0.0	1115191	COUNTDOWN_END	n/a	n/a	n/a	n/a	-999	6	[0, 0, 0]	n/a	catFR1	0	R1499T
1112.963	2.083	1115191	ENCODING_START	n/a	n/a	n/a	n/a	-999	7	[0, 0, 0]	n/a	catFR1	0	R1499T
1115.046	1.601	1117274	WORD	n/a	wordpools/wordpool_categorized_SP.txt	ESPATULA	KitchenTools	1	7	[0, 0, 0]	n/a	catFR1	0	R1499T
1116.647	0.999	1118861	WORD_OFF	n/a	n/a	ESPATULA	KitchenTools	1	7	[0, 0, 0]	n/a	catFR1	0	R1499T
1117.646	1.601	1119867	WORD	n/a	wordpools/wordpool_categorized_SP.txt	TENEDOR	KitchenTools	2	7	[0, 0, 0]	n/a	catFR1	0	R1499T
1119.247	0.866	1121469	WORD_OFF	n/a	n/a	TENEDOR	KitchenTools	2	7	[0, 0, 0]	n/a	catFR1	0	R1499T
1120.113	1.617	1122333	WORD	n/a	wordpools/wordpool_categorized_SP.txt	PLATANO	Fruit	3	7	[0, 0, 0]	n/a	catFR1	0	R1499T
1121.73	0.932	1123949	WORD_OFF	n/a	n/a	PLATANO	Fruit	3	7	[0, 0, 0]	n/a	catFR1	0	R1499T
1122.662	1.602	1124884	WORD	n/a	wordpools/wordpool_categorized_SP.txt	NARANJA	Fruit	4	7	[0, 0, 0]	n/a	catFR1	0	R1499T
1124.264	0.849	1126485	WORD_OFF	n/a	n/a	NARANJA	Fruit	4	7	[0, 0, 0]	n/a	catFR1	0	R1499T
1125.113	1.601	1127336	WORD	n/a	wordpools/wordpool_categorized_SP.txt	ESCALERAS	Building	5	7	[0, 0, 0]	n/a	catFR1	0	R1499T
1126.714	0.9	1128937	WORD_OFF	n/a	n/a	ESCALERAS	Building	5	7	[0, 0, 0]	n/a	catFR1	0	R1499T
1127.614	1.616	1129830	WORD	n/a	wordpools/wordpool_categorized_SP.txt	ATICO	Building	6	7	[0, 0, 0]	n/a	catFR1	0	R1499T
1129.23	0.884	1131445	WORD_OFF	n/a	n/a	ATICO	Building	6	7	[0, 0, 0]	n/a	catFR1	0	R1499T
1130.114	1.616	1132338	WORD	n/a	wordpools/wordpool_categorized_SP.txt	RALLADOR	KitchenTools	7	7	[0, 0, 0]	n/a	catFR1	0	R1499T
1131.73	0.933	1133954	WORD_OFF	n/a	n/a	RALLADOR	KitchenTools	7	7	[0, 0, 0]	n/a	catFR1	0	R1499T
1132.663	1.601	1134889	WORD	n/a	wordpools/wordpool_categorized_SP.txt	CUCHARON	KitchenTools	8	7	[0, 0, 0]	n/a	catFR1	0	R1499T
1134.264	0.966	1136476	WORD_OFF	n/a	n/a	CUCHARON	KitchenTools	8	7	[0, 0, 0]	n/a	catFR1	0	R1499T
1135.23	1.6	1137454	WORD	n/a	wordpools/wordpool_categorized_SP.txt	PARED	Building	9	7	[0, 0, 0]	n/a	catFR1	0	R1499T
1136.83	0.967	1139055	WORD_OFF	n/a	n/a	PARED	Building	9	7	[0, 0, 0]	n/a	catFR1	0	R1499T
1137.797	1.617	1140019	WORD	n/a	wordpools/wordpool_categorized_SP.txt	PISO	Building	10	7	[0, 0, 0]	n/a	catFR1	0	R1499T
1139.414	0.832	1141635	WORD_OFF	n/a	n/a	PISO	Building	10	7	[0, 0, 0]	n/a	catFR1	0	R1499T
1140.246	1.601	1142471	WORD	n/a	wordpools/wordpool_categorized_SP.txt	LIMON	Fruit	11	7	[0, 0, 0]	n/a	catFR1	0	R1499T
1141.847	0.85	1144072	WORD_OFF	n/a	n/a	LIMON	Fruit	11	7	[0, 0, 0]	n/a	catFR1	0	R1499T
1142.697	1.617	1144922	WORD	n/a	wordpools/wordpool_categorized_SP.txt	CEREZA	Fruit	12	7	[0, 0, 0]	n/a	catFR1	0	R1499T
1144.314	0.0	1146537	PROB	0.0	n/a	n/a	n/a	-999	7	[2, 7, 7]	16	catFR1	0	R1499T
1144.314	0.001	1146538	WORD_OFF	n/a	n/a	CEREZA	Fruit	12	7	[0, 0, 0]	n/a	catFR1	0	R1499T
1144.315	0.0	1146538	ENCODING_END	n/a	n/a	n/a	n/a	-999	7	[0, 0, 0]	n/a	catFR1	0	R1499T
1144.315	0.0	1146538	DISTRACT_START	n/a	n/a	n/a	n/a	-999	7	[0, 0, 0]	n/a	catFR1	0	R1499T
1144.315	4.632	1146538	START	n/a	n/a	n/a	n/a	-999	7	[-999, -999, -999]	n/a	catFR1	0	R1499T
1148.947	3.383	1151170	PROB	3.383	n/a	n/a	n/a	-999	7	[1, 3, 3]	7	catFR1	0	R1499T
1152.33	3.852	1154553	PROB	3.852	n/a	n/a	n/a	-999	7	[6, 2, 4]	12	catFR1	0	R1499T
1156.182	8.848	1158404	PROB	8.848	n/a	n/a	n/a	-999	7	[2, 7, 2]	12	catFR1	0	R1499T
1165.03	0.0	1167242	DISTRACT_END	n/a	n/a	n/a	n/a	-999	7	[0, 0, 0]	n/a	catFR1	0	R1499T
1165.03	1.116	1167252	STOP	n/a	n/a	n/a	n/a	-999	7	[-999, -999, -999]	n/a	catFR1	0	R1499T
1166.146	1.983	1168362	REC_START	n/a	n/a	n/a	n/a	-999	7	[0, 0, 0]	n/a	catFR1	0	R1499T
1168.129	3.059	1170351	REC_WORD	3.059	n/a	PLATANO	Fruit	3	7	[0, 0, 0]	n/a	catFR1	0	R1499T
1171.188	2.916	1173410	REC_WORD	2.916	n/a	PLATANO	Fruit	3	7	[0, 0, 0]	n/a	catFR1	0	R1499T
1174.104	1.0	1176325	REC_WORD_VV	1.0	n/a	<>	n/a	-999	7	[0, 0, 0]	n/a	catFR1	0	R1499T
1175.104	1.664	1177325	REC_WORD_VV	1.664	n/a	<>	n/a	-999	7	[0, 0, 0]	n/a	catFR1	0	R1499T
1176.768	1.0	1178989	REC_WORD	1.0	n/a	NARANJA	Fruit	4	7	[0, 0, 0]	n/a	catFR1	0	R1499T
1177.768	0.445	1179989	REC_WORD	0.445	n/a	NARANJA	Fruit	4	7	[0, 0, 0]	n/a	catFR1	0	R1499T
1178.213	3.482	1180434	REC_WORD	3.482	n/a	PELADOR	n/a	-999	7	[0, 0, 0]	n/a	catFR1	0	R1499T
1181.695	0.837	1183916	REC_WORD_VV	0.837	n/a	<>	n/a	-999	7	[0, 0, 0]	n/a	catFR1	0	R1499T
1182.532	1.856	1184753	REC_WORD	1.856	n/a	PELADOR	n/a	-999	7	[0, 0, 0]	n/a	catFR1	0	R1499T
1184.388	2.61	1186609	REC_WORD_VV	2.61	n/a	<>	n/a	-999	7	[0, 0, 0]	n/a	catFR1	0	R1499T
1186.998	2.882	1189219	REC_WORD	2.882	n/a	COLADOR	KitchenTools	-999	7	[0, 0, 0]	n/a	catFR1	0	R1499T
1189.88	4.352	1192101	REC_WORD	4.352	n/a	CUCHARON	KitchenTools	8	7	[0, 0, 0]	n/a	catFR1	0	R1499T
1194.232	3.106	1196452	REC_WORD_VV	3.106	n/a	<>	n/a	-999	7	[0, 0, 0]	n/a	catFR1	0	R1499T
1197.338	2.209	1199553	REC_END	n/a	n/a	n/a	n/a	-999	7	[0, 0, 0]	n/a	catFR1	0	R1499T
1199.547	10.35	1201764	COUNTDOWN_START	n/a	n/a	n/a	n/a	-999	7	[0, 0, 0]	n/a	catFR1	0	R1499T
1209.897	0.0	1212109	COUNTDOWN_END	n/a	n/a	n/a	n/a	-999	7	[0, 0, 0]	n/a	catFR1	0	R1499T
1209.897	1.949	1212109	ENCODING_START	n/a	n/a	n/a	n/a	-999	8	[0, 0, 0]	n/a	catFR1	0	R1499T
1211.846	1.601	1214065	WORD	n/a	wordpools/wordpool_categorized_SP.txt	ARANDANO	Fruit	1	8	[0, 0, 0]	n/a	catFR1	0	R1499T
1213.447	0.766	1215666	WORD_OFF	n/a	n/a	ARANDANO	Fruit	1	8	[0, 0, 0]	n/a	catFR1	0	R1499T
1214.213	1.6	1216431	WORD	n/a	wordpools/wordpool_categorized_SP.txt	UVA	Fruit	2	8	[0, 0, 0]	n/a	catFR1	0	R1499T
1215.813	0.901	1218033	WORD_OFF	n/a	n/a	UVA	Fruit	2	8	[0, 0, 0]	n/a	catFR1	0	R1499T
1216.714	1.6	1218925	WORD	n/a	wordpools/wordpool_categorized_SP.txt	DIENTE	BodyParts	3	8	[0, 0, 0]	n/a	catFR1	0	R1499T
1218.314	0.85	1220527	WORD_OFF	n/a	n/a	DIENTE	BodyParts	3	8	[0, 0, 0]	n/a	catFR1	0	R1499T
1219.164	1.599	1221377	WORD	n/a	wordpools/wordpool_categorized_SP.txt	OREJA	BodyParts	4	8	[0, 0, 0]	n/a	catFR1	0	R1499T
1220.763	0.984	1222978	WORD_OFF	n/a	n/a	OREJA	BodyParts	4	8	[0, 0, 0]	n/a	catFR1	0	R1499T
1221.747	1.6	1223956	WORD	n/a	wordpools/wordpool_categorized_SP.txt	DULCE	Desserts	5	8	[0, 0, 0]	n/a	catFR1	0	R1499T
1223.347	0.833	1225558	WORD_OFF	n/a	n/a	DULCE	Desserts	5	8	[0, 0, 0]	n/a	catFR1	0	R1499T
1224.18	1.6	1226394	WORD	n/a	wordpools/wordpool_categorized_SP.txt	TARTA	Desserts	6	8	[0, 0, 0]	n/a	catFR1	0	R1499T
1225.78	0.85	1227995	WORD_OFF	n/a	n/a	TARTA	Desserts	6	8	[0, 0, 0]	n/a	catFR1	0	R1499T
1226.63	1.616	1228845	WORD	n/a	wordpools/wordpool_categorized_SP.txt	MANO	BodyParts	7	8	[0, 0, 0]	n/a	catFR1	0	R1499T
1228.246	0.884	1230461	WORD_OFF	n/a	n/a	MANO	BodyParts	7	8	[0, 0, 0]	n/a	catFR1	0	R1499T
1229.13	1.6	1231340	WORD	n/a	wordpools/wordpool_categorized_SP.txt	RODILLA	BodyParts	8	8	[0, 0, 0]	n/a	catFR1	0	R1499T
1230.73	0.8	1232941	WORD_OFF	n/a	n/a	RODILLA	BodyParts	8	8	[0, 0, 0]	n/a	catFR1	0	R1499T
1231.53	1.6	1233749	WORD	n/a	wordpools/wordpool_categorized_SP.txt	PAY	Desserts	9	8	[0, 0, 0]	n/a	catFR1	0	R1499T
1233.13	0.866	1235350	WORD_OFF	n/a	n/a	PAY	Desserts	9	8	[0, 0, 0]	n/a	catFR1	0	R1499T
1233.996	1.6	1236215	WORD	n/a	wordpools/wordpool_categorized_SP.txt	PASTELILLO	Desserts	10	8	[0, 0, 0]	n/a	catFR1	0	R1499T
1235.596	0.851	1237816	WORD_OFF	n/a	n/a	PASTELILLO	Desserts	10	8	[0, 0, 0]	n/a	catFR1	0	R1499T
1236.447	1.6	1238666	WORD	n/a	wordpools/wordpool_categorized_SP.txt	CIRUELA	Fruit	11	8	[0, 0, 0]	n/a	catFR1	0	R1499T
1238.047	0.867	1240268	WORD_OFF	n/a	n/a	CIRUELA	Fruit	11	8	[0, 0, 0]	n/a	catFR1	0	R1499T
1238.914	1.6	1241132	WORD	n/a	wordpools/wordpool_categorized_SP.txt	FRESA	Fruit	12	8	[0, 0, 0]	n/a	catFR1	0	R1499T
1240.514	0.0	1242732	PROB	0.0	n/a	n/a	n/a	-999	8	[8, 4, 6]	18	catFR1	0	R1499T
1240.514	0.001	1242733	WORD_OFF	n/a	n/a	FRESA	Fruit	12	8	[0, 0, 0]	n/a	catFR1	0	R1499T
1240.515	0.0	1242733	ENCODING_END	n/a	n/a	n/a	n/a	-999	8	[0, 0, 0]	n/a	catFR1	0	R1499T
1240.515	0.0	1242733	DISTRACT_START	n/a	n/a	n/a	n/a	-999	8	[0, 0, 0]	n/a	catFR1	0	R1499T
1240.515	5.55	1242733	START	n/a	n/a	n/a	n/a	-999	8	[-999, -999, -999]	n/a	catFR1	0	R1499T
1246.065	6.566	1248283	PROB	6.566	n/a	n/a	n/a	-999	8	[3, 6, 7]	16	catFR1	0	R1499T
1252.631	3.415	1254848	PROB	3.415	n/a	n/a	n/a	-999	8	[4, 4, 1]	9	catFR1	0	R1499T
1256.046	3.801	1258263	PROB	3.801	n/a	n/a	n/a	-999	8	[3, 5, 2]	10	catFR1	0	R1499T
1259.847	5.483	1262064	PROB	5.483	n/a	n/a	n/a	-999	8	[3, 1, 7]	11	catFR1	0	R1499T
1265.33	0.0	1267547	STOP	n/a	n/a	n/a	n/a	-999	8	[-999, -999, -999]	n/a	catFR1	0	R1499T
1265.33	1.033	1267548	DISTRACT_END	n/a	n/a	n/a	n/a	-999	8	[0, 0, 0]	n/a	catFR1	0	R1499T
1266.363	2.598	1268582	REC_START	n/a	n/a	n/a	n/a	-999	8	[0, 0, 0]	n/a	catFR1	0	R1499T
1268.961	1.0	1271178	REC_WORD	1.0	n/a	SIDUELA	n/a	-999	8	[0, 0, 0]	n/a	catFR1	0	R1499T
1269.961	2.722	1272178	REC_WORD	2.722	n/a	SIDUELA	n/a	-999	8	[0, 0, 0]	n/a	catFR1	0	R1499T
1272.683	1.0	1274899	REC_WORD	1.0	n/a	SIDUELA	n/a	-999	8	[0, 0, 0]	n/a	catFR1	0	R1499T
1273.683	0.74	1275899	REC_WORD	0.74	n/a	SIDUELA	n/a	-999	8	[0, 0, 0]	n/a	catFR1	0	R1499T
1274.423	2.724	1276639	REC_WORD_VV	2.724	n/a	<>	n/a	-999	8	[0, 0, 0]	n/a	catFR1	0	R1499T
1277.147	2.055	1279363	REC_WORD_VV	2.055	n/a	<>	n/a	-999	8	[0, 0, 0]	n/a	catFR1	0	R1499T
1279.202	1.0	1281418	REC_WORD_VV	1.0	n/a	<>	n/a	-999	8	[0, 0, 0]	n/a	catFR1	0	R1499T
1280.202	1.26	1282418	REC_WORD_VV	1.26	n/a	<>	n/a	-999	8	[0, 0, 0]	n/a	catFR1	0	R1499T
1281.462	0.796	1283678	REC_WORD	0.796	n/a	CIRUELA	Fruit	11	8	[0, 0, 0]	n/a	catFR1	0	R1499T
1282.258	2.585	1284474	REC_WORD	2.585	n/a	UVA	Fruit	2	8	[0, 0, 0]	n/a	catFR1	0	R1499T
1284.843	1.0	1287059	REC_WORD_VV	1.0	n/a	<>	n/a	-999	8	[0, 0, 0]	n/a	catFR1	0	R1499T
1285.843	2.52	1288059	REC_WORD_VV	2.52	n/a	<>	n/a	-999	8	[0, 0, 0]	n/a	catFR1	0	R1499T
1288.363	3.633	1290579	REC_WORD	3.633	n/a	PALILLO	n/a	-999	8	[0, 0, 0]	n/a	catFR1	0	R1499T
1291.996	5.549	1294211	REC_WORD	5.549	n/a	CORCHO	n/a	-999	8	[0, 0, 0]	n/a	catFR1	0	R1499T
1297.545	3.168	1299759	REC_END	n/a	n/a	n/a	n/a	-999	8	[0, 0, 0]	n/a	catFR1	0	R1499T
1300.713	10.351	1302919	COUNTDOWN_START	n/a	n/a	n/a	n/a	-999	8	[0, 0, 0]	n/a	catFR1	0	R1499T
1311.064	0.0	1313279	COUNTDOWN_END	n/a	n/a	n/a	n/a	-999	8	[0, 0, 0]	n/a	catFR1	0	R1499T
1311.064	1.983	1313279	ENCODING_START	n/a	n/a	n/a	n/a	-999	9	[0, 0, 0]	n/a	catFR1	0	R1499T
1313.047	1.6	1315263	WORD	n/a	wordpools/wordpool_categorized_SP.txt	AUTO	Vehicles	1	9	[0, 0, 0]	n/a	catFR1	0	R1499T
1314.647	1.0	1316864	WORD_OFF	n/a	n/a	AUTO	Vehicles	1	9	[0, 0, 0]	n/a	catFR1	0	R1499T
1315.647	1.6	1317856	WORD	n/a	wordpools/wordpool_categorized_SP.txt	JEEP	Vehicles	2	9	[0, 0, 0]	n/a	catFR1	0	R1499T
1317.247	0.817	1319458	WORD_OFF	n/a	n/a	JEEP	Vehicles	2	9	[0, 0, 0]	n/a	catFR1	0	R1499T
1318.064	1.616	1320279	WORD	n/a	wordpools/wordpool_categorized_SP.txt	TELEFONO	Electronics	3	9	[0, 0, 0]	n/a	catFR1	0	R1499T
1319.68	0.883	1321895	WORD_OFF	n/a	n/a	TELEFONO	Electronics	3	9	[0, 0, 0]	n/a	catFR1	0	R1499T
1320.563	1.6	1322774	WORD	n/a	wordpools/wordpool_categorized_SP.txt	RADIO	Electronics	4	9	[0, 0, 0]	n/a	catFR1	0	R1499T
1322.163	0.784	1324375	WORD_OFF	n/a	n/a	RADIO	Electronics	4	9	[0, 0, 0]	n/a	catFR1	0	R1499T
1322.947	1.6	1325154	WORD	n/a	wordpools/wordpool_categorized_SP.txt	ORGANO	Instruments	5	9	[0, 0, 0]	n/a	catFR1	0	R1499T
1324.547	0.8	1326756	WORD_OFF	n/a	n/a	ORGANO	Instruments	5	9	[0, 0, 0]	n/a	catFR1	0	R1499T
1325.347	1.617	1327564	WORD	n/a	wordpools/wordpool_categorized_SP.txt	TUBA	Instruments	6	9	[0, 0, 0]	n/a	catFR1	0	R1499T
1326.964	0.783	1329179	WORD_OFF	n/a	n/a	TUBA	Instruments	6	9	[0, 0, 0]	n/a	catFR1	0	R1499T
1327.747	1.615	1329958	WORD	n/a	wordpools/wordpool_categorized_SP.txt	AVION	Vehicles	7	9	[0, 0, 0]	n/a	catFR1	0	R1499T
1329.362	0.984	1331574	WORD_OFF	n/a	n/a	AVION	Vehicles	7	9	[0, 0, 0]	n/a	catFR1	0	R1499T
1330.346	1.601	1332552	WORD	n/a	wordpools/wordpool_categorized_SP.txt	CICLOMOTOR	Vehicles	8	9	[0, 0, 0]	n/a	catFR1	0	R1499T
1331.947	0.849	1334153	WORD_OFF	n/a	n/a	CICLOMOTOR	Vehicles	8	9	[0, 0, 0]	n/a	catFR1	0	R1499T
1332.796	1.601	1335004	WORD	n/a	wordpools/wordpool_categorized_SP.txt	IMPRESORA	Electronics	9	9	[0, 0, 0]	n/a	catFR1	0	R1499T
1334.397	0.982	1336605	WORD_OFF	n/a	n/a	IMPRESORA	Electronics	9	9	[0, 0, 0]	n/a	catFR1	0	R1499T
1335.379	1.601	1337583	WORD	n/a	wordpools/wordpool_categorized_SP.txt	AUDIFONOS	Electronics	10	9	[0, 0, 0]	n/a	catFR1	0	R1499T
1336.98	0.783	1339184	WORD_OFF	n/a	n/a	AUDIFONOS	Electronics	10	9	[0, 0, 0]	n/a	catFR1	0	R1499T
1337.763	1.601	1339978	WORD	n/a	wordpools/wordpool_categorized_SP.txt	BANJO	Instruments	11	9	[0, 0, 0]	n/a	catFR1	0	R1499T
1339.364	0.966	1341579	WORD_OFF	n/a	n/a	BANJO	Instruments	11	9	[0, 0, 0]	n/a	catFR1	0	R1499T
1340.33	1.6	1342543	WORD	n/a	wordpools/wordpool_categorized_SP.txt	TROMBON	Instruments	12	9	[0, 0, 0]	n/a	catFR1	0	R1499T
1341.93	0.0	1344143	PROB	0.0	n/a	n/a	n/a	-999	9	[7, 8, 6]	21	catFR1	0	R1499T
1341.93	0.002	1344144	WORD_OFF	n/a	n/a	TROMBON	Instruments	12	9	[0, 0, 0]	n/a	catFR1	0	R1499T
1341.932	0.0	1344144	ENCODING_END	n/a	n/a	n/a	n/a	-999	9	[0, 0, 0]	n/a	catFR1	0	R1499T
1341.932	0.0	1344144	DISTRACT_START	n/a	n/a	n/a	n/a	-999	9	[0, 0, 0]	n/a	catFR1	0	R1499T
1341.932	5.265	1344145	START	n/a	n/a	n/a	n/a	-999	9	[-999, -999, -999]	n/a	catFR1	0	R1499T
1347.197	5.017	1349410	PROB	5.017	n/a	n/a	n/a	-999	9	[4, 1, 7]	12	catFR1	0	R1499T
1352.214	8.683	1354426	PROB	8.683	n/a	n/a	n/a	-999	9	[6, 8, 5]	19	catFR1	0	R1499T
1360.897	5.416	1363109	PROB	5.416	n/a	n/a	n/a	-999	9	[3, 7, 8]	18	catFR1	0	R1499T
1366.313	0.0	1368519	DISTRACT_END	n/a	n/a	n/a	n/a	-999	9	[0, 0, 0]	n/a	catFR1	0	R1499T
1366.313	1.25	1368525	STOP	n/a	n/a	n/a	n/a	-999	9	[-999, -999, -999]	n/a	catFR1	0	R1499T
1367.563	4.77	1369766	REC_START	n/a	n/a	n/a	n/a	-999	9	[0, 0, 0]	n/a	catFR1	0	R1499T
1372.333	2.336	1374544	REC_WORD_VV	2.336	n/a	<>	n/a	-999	9	[0, 0, 0]	n/a	catFR1	0	R1499T
1374.669	3.219	1376880	REC_WORD_VV	3.219	n/a	<>	n/a	-999	9	[0, 0, 0]	n/a	catFR1	0	R1499T
1377.888	2.509	1380099	REC_WORD_VV	2.509	n/a	<>	n/a	-999	9	[0, 0, 0]	n/a	catFR1	0	R1499T
1380.397	0.67	1382608	REC_WORD	0.67	n/a	AVION	Vehicles	7	9	[0, 0, 0]	n/a	catFR1	0	R1499T
1381.067	1.0	1383278	REC_WORD_VV	1.0	n/a	<>	n/a	-999	9	[0, 0, 0]	n/a	catFR1	0	R1499T
1382.067	1.0	1384278	REC_WORD_VV	1.0	n/a	<>	n/a	-999	9	[0, 0, 0]	n/a	catFR1	0	R1499T
1383.067	1.0	1385278	REC_WORD_VV	1.0	n/a	<>	n/a	-999	9	[0, 0, 0]	n/a	catFR1	0	R1499T
1384.067	1.0	1386278	REC_WORD_VV	1.0	n/a	<>	n/a	-999	9	[0, 0, 0]	n/a	catFR1	0	R1499T
1385.067	1.0	1387278	REC_WORD_VV	1.0	n/a	<>	n/a	-999	9	[0, 0, 0]	n/a	catFR1	0	R1499T
1386.067	2.321	1388278	REC_WORD_VV	2.321	n/a	<>	n/a	-999	9	[0, 0, 0]	n/a	catFR1	0	R1499T
1388.388	1.331	1390599	REC_WORD_VV	1.331	n/a	<>	n/a	-999	9	[0, 0, 0]	n/a	catFR1	0	R1499T
1389.719	2.028	1391929	REC_WORD_VV	2.028	n/a	<>	n/a	-999	9	[0, 0, 0]	n/a	catFR1	0	R1499T
1391.747	3.729	1393957	REC_WORD_VV	3.729	n/a	<>	n/a	-999	9	[0, 0, 0]	n/a	catFR1	0	R1499T
1395.476	1.0	1397686	REC_WORD_VV	1.0	n/a	<>	n/a	-999	9	[0, 0, 0]	n/a	catFR1	0	R1499T
1396.476	1.0	1398686	REC_WORD_VV	1.0	n/a	<>	n/a	-999	9	[0, 0, 0]	n/a	catFR1	0	R1499T
1397.476	1.282	1399686	REC_WORD_VV	1.282	n/a	<>	n/a	-999	9	[0, 0, 0]	n/a	catFR1	0	R1499T
1398.758	3.172	1400957	REC_END	n/a	n/a	n/a	n/a	-999	9	[0, 0, 0]	n/a	catFR1	0	R1499T
1401.93	10.35	1404132	COUNTDOWN_START	n/a	n/a	n/a	n/a	-999	9	[0, 0, 0]	n/a	catFR1	0	R1499T
1412.28	0.0	1414491	COUNTDOWN_END	n/a	n/a	n/a	n/a	-999	9	[0, 0, 0]	n/a	catFR1	0	R1499T
1412.28	1.95	1414491	ENCODING_START	n/a	n/a	n/a	n/a	-999	10	[0, 0, 0]	n/a	catFR1	0	R1499T
1414.23	1.616	1416432	WORD	n/a	wordpools/wordpool_categorized_SP.txt	RELAMPAGO	Weather	1	10	[0, 0, 0]	n/a	catFR1	0	R1499T
1415.846	0.967	1418048	WORD_OFF	n/a	n/a	RELAMPAGO	Weather	1	10	[0, 0, 0]	n/a	catFR1	0	R1499T
1416.813	1.601	1419026	WORD	n/a	wordpools/wordpool_categorized_SP.txt	TRUENO	Weather	2	10	[0, 0, 0]	n/a	catFR1	0	R1499T
1418.414	0.816	1420613	WORD_OFF	n/a	n/a	TRUENO	Weather	2	10	[0, 0, 0]	n/a	catFR1	0	R1499T
1419.23	1.616	1421435	WORD	n/a	wordpools/wordpool_categorized_SP.txt	TELEVISION	Electronics	3	10	[0, 0, 0]	n/a	catFR1	0	R1499T
1420.846	0.851	1423051	WORD_OFF	n/a	n/a	TELEVISION	Electronics	3	10	[0, 0, 0]	n/a	catFR1	0	R1499T
1421.697	1.6	1423901	WORD	n/a	wordpools/wordpool_categorized_SP.txt	ESTEREO	Electronics	4	10	[0, 0, 0]	n/a	catFR1	0	R1499T
1423.297	1.0	1425502	WORD_OFF	n/a	n/a	ESTEREO	Electronics	4	10	[0, 0, 0]	n/a	catFR1	0	R1499T
1424.297	1.617	1426508	WORD	n/a	wordpools/wordpool_categorized_SP.txt	AGUILA	Birds	5	10	[0, 0, 0]	n/a	catFR1	0	R1499T
1425.914	0.866	1428124	WORD_OFF	n/a	n/a	AGUILA	Birds	5	10	[0, 0, 0]	n/a	catFR1	0	R1499T
1426.78	1.616	1428988	WORD	n/a	wordpools/wordpool_categorized_SP.txt	PALOMA	Birds	6	10	[0, 0, 0]	n/a	catFR1	0	R1499T
1428.396	1.001	1430604	WORD_OFF	n/a	n/a	PALOMA	Birds	6	10	[0, 0, 0]	n/a	catFR1	0	R1499T
1429.397	1.617	1431596	WORD	n/a	wordpools/wordpool_categorized_SP.txt	PARLANTE	Electronics	7	10	[0, 0, 0]	n/a	catFR1	0	R1499T
1431.014	0.999	1433211	WORD_OFF	n/a	n/a	PARLANTE	Electronics	7	10	[0, 0, 0]	n/a	catFR1	0	R1499T
1432.013	1.601	1434218	WORD	n/a	wordpools/wordpool_categorized_SP.txt	ESCANER	Electronics	8	10	[0, 0, 0]	n/a	catFR1	0	R1499T
1433.614	0.916	1435819	WORD_OFF	n/a	n/a	ESCANER	Electronics	8	10	[0, 0, 0]	n/a	catFR1	0	R1499T
1434.53	1.6	1436740	WORD	n/a	wordpools/wordpool_categorized_SP.txt	NIEBLA	Weather	9	10	[0, 0, 0]	n/a	catFR1	0	R1499T
1436.13	0.784	1438342	WORD_OFF	n/a	n/a	NIEBLA	Weather	9	10	[0, 0, 0]	n/a	catFR1	0	R1499T
1436.914	1.6	1439121	WORD	n/a	wordpools/wordpool_categorized_SP.txt	NUBE	Weather	10	10	[0, 0, 0]	n/a	catFR1	0	R1499T
1438.514	0.832	1440722	WORD_OFF	n/a	n/a	NUBE	Weather	10	10	[0, 0, 0]	n/a	catFR1	0	R1499T
1439.346	1.601	1441544	WORD	n/a	wordpools/wordpool_categorized_SP.txt	GAVIOTA	Birds	11	10	[0, 0, 0]	n/a	catFR1	0	R1499T
1440.947	0.883	1443146	WORD_OFF	n/a	n/a	GAVIOTA	Birds	11	10	[0, 0, 0]	n/a	catFR1	0	R1499T
1441.83	1.616	1444038	WORD	n/a	wordpools/wordpool_categorized_SP.txt	PICHON	Birds	12	10	[0, 0, 0]	n/a	catFR1	0	R1499T
1443.446	0.002	1445654	WORD_OFF	n/a	n/a	PICHON	Birds	12	10	[0, 0, 0]	n/a	catFR1	0	R1499T
1443.448	0.0	1445654	ENCODING_END	n/a	n/a	n/a	n/a	-999	10	[0, 0, 0]	n/a	catFR1	0	R1499T
1443.448	0.0	1445654	DISTRACT_START	n/a	n/a	n/a	n/a	-999	10	[0, 0, 0]	n/a	catFR1	0	R1499T
1443.447	0.001	1445655	PROB	0.001	n/a	n/a	n/a	-999	10	[8, 4, 6]	18	catFR1	0	R1499T
1443.448	5.682	1445656	START	n/a	n/a	n/a	n/a	-999	10	[-999, -999, -999]	n/a	catFR1	0	R1499T
1449.13	3.55	1451337	PROB	3.55	n/a	n/a	n/a	-999	10	[6, 2, 2]	10	catFR1	0	R1499T
1452.68	6.434	1454887	PROB	6.434	n/a	n/a	n/a	-999	10	[3, 8, 4]	15	catFR1	0	R1499T
1459.114	3.75	1461321	PROB	3.75	n/a	n/a	n/a	-999	10	[8, 8, 8]	24	catFR1	0	R1499T
1462.864	4.333	1465071	PROB	4.333	n/a	n/a	n/a	-999	10	[5, 6, 2]	13	catFR1	0	R1499T
1467.197	0.0	1469404	STOP	n/a	n/a	n/a	n/a	-999	10	[-999, -999, -999]	n/a	catFR1	0	R1499T
1467.197	1.2	1469405	DISTRACT_END	n/a	n/a	n/a	n/a	-999	10	[0, 0, 0]	n/a	catFR1	0	R1499T
1468.397	2.245	1470596	REC_START	n/a	n/a	n/a	n/a	-999	10	[0, 0, 0]	n/a	catFR1	0	R1499T
1470.642	1.0	1472848	REC_WORD	1.0	n/a	RELAMPAGO	Weather	1	10	[0, 0, 0]	n/a	catFR1	0	R1499T
1471.642	0.185	1473848	REC_WORD	0.185	n/a	RELAMPAGO	Weather	1	10	[0, 0, 0]	n/a	catFR1	0	R1499T
1471.827	1.391	1474033	REC_WORD	1.391	n/a	PICHON	Birds	12	10	[0, 0, 0]	n/a	catFR1	0	R1499T
1473.218	1.267	1475424	REC_WORD	1.267	n/a	NUBE	Weather	10	10	[0, 0, 0]	n/a	catFR1	0	R1499T
1474.485	10.114	1476691	REC_WORD	10.114	n/a	LLUVIA	Weather	-999	10	[0, 0, 0]	n/a	catFR1	0	R1499T
1484.599	4.621	1486805	REC_WORD	4.621	n/a	TRUENO	Weather	2	10	[0, 0, 0]	n/a	catFR1	0	R1499T
1489.22	0.661	1491425	REC_WORD	0.661	n/a	PICHON	Birds	12	10	[0, 0, 0]	n/a	catFR1	0	R1499T
1489.881	2.75	1492086	REC_WORD_VV	2.75	n/a	<>	n/a	-999	10	[0, 0, 0]	n/a	catFR1	0	R1499T
1492.631	2.478	1494836	REC_WORD_VV	2.478	n/a	<>	n/a	-999	10	[0, 0, 0]	n/a	catFR1	0	R1499T
1495.109	4.46	1497314	REC_WORD_VV	4.46	n/a	<>	n/a	-999	10	[0, 0, 0]	n/a	catFR1	0	R1499T
1499.569	3.061	1501773	REC_END	n/a	n/a	n/a	n/a	-999	10	[0, 0, 0]	n/a	catFR1	0	R1499T
1502.63	10.35	1504834	COUNTDOWN_START	n/a	n/a	n/a	n/a	-999	10	[0, 0, 0]	n/a	catFR1	0	R1499T
1512.98	0.0	1515179	COUNTDOWN_END	n/a	n/a	n/a	n/a	-999	10	[0, 0, 0]	n/a	catFR1	0	R1499T
1512.98	2.15	1515179	ENCODING_START	n/a	n/a	n/a	n/a	-999	11	[0, 0, 0]	n/a	catFR1	0	R1499T
1515.13	1.6	1517333	WORD	n/a	wordpools/wordpool_categorized_SP.txt	VIENTO	Weather	1	11	[0, 0, 0]	n/a	catFR1	0	R1499T
1516.73	0.767	1518934	WORD_OFF	n/a	n/a	VIENTO	Weather	1	11	[0, 0, 0]	n/a	catFR1	0	R1499T
1517.497	1.6	1519700	WORD	n/a	wordpools/wordpool_categorized_SP.txt	HUMEDAD	Weather	2	11	[0, 0, 0]	n/a	catFR1	0	R1499T
1519.097	0.949	1521301	WORD_OFF	n/a	n/a	HUMEDAD	Weather	2	11	[0, 0, 0]	n/a	catFR1	0	R1499T
1520.046	1.601	1522250	WORD	n/a	wordpools/wordpool_categorized_SP.txt	MICROONDAS	Electronics	3	11	[0, 0, 0]	n/a	catFR1	0	R1499T
1521.647	0.983	1523852	WORD_OFF	n/a	n/a	MICROONDAS	Electronics	3	11	[0, 0, 0]	n/a	catFR1	0	R1499T
1522.63	1.6	1524830	WORD	n/a	wordpools/wordpool_categorized_SP.txt	COMPUTADOR	Electronics	4	11	[0, 0, 0]	n/a	catFR1	0	R1499T
1524.23	0.949	1526431	WORD_OFF	n/a	n/a	COMPUTADOR	Electronics	4	11	[0, 0, 0]	n/a	catFR1	0	R1499T
1525.179	1.601	1527380	WORD	n/a	wordpools/wordpool_categorized_SP.txt	BICICLETA	Vehicles	5	11	[0, 0, 0]	n/a	catFR1	0	R1499T
1526.78	0.799	1528982	WORD_OFF	n/a	n/a	BICICLETA	Vehicles	5	11	[0, 0, 0]	n/a	catFR1	0	R1499T
1527.579	1.601	1529775	WORD	n/a	wordpools/wordpool_categorized_SP.txt	AUTOBUS	Vehicles	6	11	[0, 0, 0]	n/a	catFR1	0	R1499T
1529.18	1.0	1531377	WORD_OFF	n/a	n/a	AUTOBUS	Vehicles	6	11	[0, 0, 0]	n/a	catFR1	0	R1499T
1530.18	1.6	1532383	WORD	n/a	wordpools/wordpool_categorized_SP.txt	CALCULADORA	Electronics	7	11	[0, 0, 0]	n/a	catFR1	0	R1499T
1531.78	0.899	1533984	WORD_OFF	n/a	n/a	CALCULADORA	Electronics	7	11	[0, 0, 0]	n/a	catFR1	0	R1499T
1532.679	1.617	1534877	WORD	n/a	wordpools/wordpool_categorized_SP.txt	TABLETA	Electronics	8	11	[0, 0, 0]	n/a	catFR1	0	R1499T
1534.296	0.901	1536493	WORD_OFF	n/a	n/a	TABLETA	Electronics	8	11	[0, 0, 0]	n/a	catFR1	0	R1499T
1535.197	1.6	1537400	WORD	n/a	wordpools/wordpool_categorized_SP.txt	LLOVIZNA	Weather	9	11	[0, 0, 0]	n/a	catFR1	0	R1499T
1536.797	0.866	1539001	WORD_OFF	n/a	n/a	LLOVIZNA	Weather	9	11	[0, 0, 0]	n/a	catFR1	0	R1499T
1537.663	1.617	1539866	WORD	n/a	wordpools/wordpool_categorized_SP.txt	TORMENTA	Weather	10	11	[0, 0, 0]	n/a	catFR1	0	R1499T
1539.28	0.817	1541481	WORD_OFF	n/a	n/a	TORMENTA	Weather	10	11	[0, 0, 0]	n/a	catFR1	0	R1499T
1540.097	1.6	1542289	WORD	n/a	wordpools/wordpool_categorized_SP.txt	CAMIONETA	Vehicles	11	11	[0, 0, 0]	n/a	catFR1	0	R1499T
1541.697	0.916	1543890	WORD_OFF	n/a	n/a	CAMIONETA	Vehicles	11	11	[0, 0, 0]	n/a	catFR1	0	R1499T
1542.613	1.617	1544811	WORD	n/a	wordpools/wordpool_categorized_SP.txt	PATINETA	Vehicles	12	11	[0, 0, 0]	n/a	catFR1	0	R1499T
1544.23	0.001	1546427	WORD_OFF	n/a	n/a	PATINETA	Vehicles	12	11	[0, 0, 0]	n/a	catFR1	0	R1499T
1544.231	0.0	1546427	ENCODING_END	n/a	n/a	n/a	n/a	-999	11	[0, 0, 0]	n/a	catFR1	0	R1499T
1544.231	0.0	1546427	DISTRACT_START	n/a	n/a	n/a	n/a	-999	11	[0, 0, 0]	n/a	catFR1	0	R1499T
1544.23	0.001	1546433	PROB	0.001	n/a	n/a	n/a	-999	11	[2, 2, 2]	6	catFR1	0	R1499T
1544.231	4.065	1546434	START	n/a	n/a	n/a	n/a	-999	11	[-999, -999, -999]	n/a	catFR1	0	R1499T
1548.296	6.784	1550498	PROB	6.784	n/a	n/a	n/a	-999	11	[6, 8, 7]	24	catFR1	0	R1499T
1555.08	5.117	1557282	PROB	5.117	n/a	n/a	n/a	-999	11	[1, 7, 1]	9	catFR1	0	R1499T
1560.197	4.382	1562399	PROB	4.382	n/a	n/a	n/a	-999	11	[6, 2, 3]	11	catFR1	0	R1499T
1564.579	0.0	1566777	DISTRACT_END	n/a	n/a	n/a	n/a	-999	11	[0, 0, 0]	n/a	catFR1	0	R1499T
1564.579	1.1	1566781	STOP	n/a	n/a	n/a	n/a	-999	11	[-999, -999, -999]	n/a	catFR1	0	R1499T
1565.679	1.245	1567882	REC_START	n/a	n/a	n/a	n/a	-999	11	[0, 0, 0]	n/a	catFR1	0	R1499T
1566.924	0.897	1569126	REC_WORD	0.897	n/a	LLOVIZNA	Weather	9	11	[0, 0, 0]	n/a	catFR1	0	R1499T
1567.821	1.0	1570022	REC_WORD	1.0	n/a	BICICLETA	Vehicles	5	11	[0, 0, 0]	n/a	catFR1	0	R1499T
1568.821	0.193	1571022	REC_WORD	0.193	n/a	BICICLETA	Vehicles	5	11	[0, 0, 0]	n/a	catFR1	0	R1499T
1569.014	1.0	1571215	REC_WORD	1.0	n/a	PATINETA	Vehicles	12	11	[0, 0, 0]	n/a	catFR1	0	R1499T
1570.014	1.028	1572215	REC_WORD	1.028	n/a	PATINETA	Vehicles	12	11	[0, 0, 0]	n/a	catFR1	0	R1499T
1571.042	1.0	1573243	REC_WORD_VV	1.0	n/a	<>	n/a	-999	11	[0, 0, 0]	n/a	catFR1	0	R1499T
1572.042	0.606	1574243	REC_WORD_VV	0.606	n/a	<>	n/a	-999	11	[0, 0, 0]	n/a	catFR1	0	R1499T
1572.648	1.0	1574849	REC_WORD	1.0	n/a	AUTOBUS	Vehicles	6	11	[0, 0, 0]	n/a	catFR1	0	R1499T
1573.648	1.929	1575849	REC_WORD	1.929	n/a	AUTOBUS	Vehicles	6	11	[0, 0, 0]	n/a	catFR1	0	R1499T
1575.577	0.5	1577778	REC_WORD_VV	0.5	n/a	<>	n/a	-999	11	[0, 0, 0]	n/a	catFR1	0	R1499T
1576.077	1.0	1578278	REC_WORD	1.0	n/a	COMPUTADOR	Electronics	4	11	[0, 0, 0]	n/a	catFR1	0	R1499T
1577.077	0.864	1579278	REC_WORD	0.864	n/a	COMPUTADOR	Electronics	4	11	[0, 0, 0]	n/a	catFR1	0	R1499T
1577.941	1.0	1580142	REC_WORD	1.0	n/a	MICROONDAS	Electronics	3	11	[0, 0, 0]	n/a	catFR1	0	R1499T
1578.941	1.936	1581142	REC_WORD	1.936	n/a	MICROONDAS	Electronics	3	11	[0, 0, 0]	n/a	catFR1	0	R1499T
1580.877	2.418	1583078	REC_WORD_VV	2.418	n/a	<>	n/a	-999	11	[0, 0, 0]	n/a	catFR1	0	R1499T
1583.295	1.0	1585496	REC_WORD	1.0	n/a	AUTOBUS	Vehicles	6	11	[0, 0, 0]	n/a	catFR1	0	R1499T
1584.295	4.083	1586496	REC_WORD	4.083	n/a	AUTOBUS	Vehicles	6	11	[0, 0, 0]	n/a	catFR1	0	R1499T
1588.378	1.0	1590578	REC_WORD_VV	1.0	n/a	<>	n/a	-999	11	[0, 0, 0]	n/a	catFR1	0	R1499T
1589.378	3.374	1591578	REC_WORD_VV	3.374	n/a	<>	n/a	-999	11	[0, 0, 0]	n/a	catFR1	0	R1499T
1592.752	4.112	1594952	REC_WORD_VV	4.112	n/a	<>	n/a	-999	11	[0, 0, 0]	n/a	catFR1	0	R1499T
1596.864	1.899	1599060	REC_END	n/a	n/a	n/a	n/a	-999	11	[0, 0, 0]	n/a	catFR1	0	R1499T
1598.763	10.35	1600958	COUNTDOWN_START	n/a	n/a	n/a	n/a	-999	11	[0, 0, 0]	n/a	catFR1	0	R1499T
1609.113	0.0	1611304	COUNTDOWN_END	n/a	n/a	n/a	n/a	-999	11	[0, 0, 0]	n/a	catFR1	0	R1499T
1609.113	2.084	1611318	ENCODING_START	n/a	n/a	n/a	n/a	-999	12	[0, 0, 0]	n/a	catFR1	0	R1499T
1611.197	1.6	1613387	WORD	n/a	wordpools/wordpool_categorized_SP.txt	CABALLO	FarmAnimals	1	12	[0, 0, 0]	n/a	catFR1	0	R1499T
1612.797	0.933	1614988	WORD_OFF	n/a	n/a	CABALLO	FarmAnimals	1	12	[0, 0, 0]	n/a	catFR1	0	R1499T
1613.73	1.6	1615924	WORD	n/a	wordpools/wordpool_categorized_SP.txt	BECERRO	FarmAnimals	2	12	[0, 0, 0]	n/a	catFR1	0	R1499T
1615.33	0.867	1617525	WORD_OFF	n/a	n/a	BECERRO	FarmAnimals	2	12	[0, 0, 0]	n/a	catFR1	0	R1499T
1616.197	1.6	1618389	WORD	n/a	wordpools/wordpool_categorized_SP.txt	VIOLIN	Instruments	3	12	[0, 0, 0]	n/a	catFR1	0	R1499T
1617.797	0.8	1619991	WORD_OFF	n/a	n/a	VIOLIN	Instruments	3	12	[0, 0, 0]	n/a	catFR1	0	R1499T
1618.597	1.615	1620798	WORD	n/a	wordpools/wordpool_categorized_SP.txt	TAMBOR	Instruments	4	12	[0, 0, 0]	n/a	catFR1	0	R1499T
1620.212	0.985	1622414	WORD_OFF	n/a	n/a	TAMBOR	Instruments	4	12	[0, 0, 0]	n/a	catFR1	0	R1499T
1621.197	1.615	1623392	WORD	n/a	wordpools/wordpool_categorized_SP.txt	CARDENAL	Birds	5	12	[0, 0, 0]	n/a	catFR1	0	R1499T
1622.812	0.952	1625007	WORD_OFF	n/a	n/a	CARDENAL	Birds	5	12	[0, 0, 0]	n/a	catFR1	0	R1499T
1623.764	1.599	1625957	WORD	n/a	wordpools/wordpool_categorized_SP.txt	PATO	Birds	6	12	[0, 0, 0]	n/a	catFR1	0	R1499T
1625.363	1.0	1627558	WORD_OFF	n/a	n/a	PATO	Birds	6	12	[0, 0, 0]	n/a	catFR1	0	R1499T
1626.363	1.601	1628564	WORD	n/a	wordpools/wordpool_categorized_SP.txt	FLAUTA	Instruments	7	12	[0, 0, 0]	n/a	catFR1	0	R1499T
1627.964	0.799	1630152	WORD_OFF	n/a	n/a	FLAUTA	Instruments	7	12	[0, 0, 0]	n/a	catFR1	0	R1499T
1628.763	1.6	1630959	WORD	n/a	wordpools/wordpool_categorized_SP.txt	PIANO	Instruments	8	12	[0, 0, 0]	n/a	catFR1	0	R1499T
1630.363	0.9	1632561	WORD_OFF	n/a	n/a	PIANO	Instruments	8	12	[0, 0, 0]	n/a	catFR1	0	R1499T
1631.263	1.6	1633454	WORD	n/a	wordpools/wordpool_categorized_SP.txt	GALLO	FarmAnimals	9	12	[0, 0, 0]	n/a	catFR1	0	R1499T
1632.863	0.884	1635055	WORD_OFF	n/a	n/a	GALLO	FarmAnimals	9	12	[0, 0, 0]	n/a	catFR1	0	R1499T
1633.747	1.617	1635948	WORD	n/a	wordpools/wordpool_categorized_SP.txt	OVEJA	FarmAnimals	10	12	[0, 0, 0]	n/a	catFR1	0	R1499T
1635.364	0.833	1637563	WORD_OFF	n/a	n/a	OVEJA	FarmAnimals	10	12	[0, 0, 0]	n/a	catFR1	0	R1499T
1636.197	1.616	1638385	WORD	n/a	wordpools/wordpool_categorized_SP.txt	PINZON	Birds	11	12	[0, 0, 0]	n/a	catFR1	0	R1499T
1637.813	0.951	1640001	WORD_OFF	n/a	n/a	PINZON	Birds	11	12	[0, 0, 0]	n/a	catFR1	0	R1499T
1638.764	1.617	1640964	WORD	n/a	wordpools/wordpool_categorized_SP.txt	HALCON	Birds	12	12	[0, 0, 0]	n/a	catFR1	0	R1499T
1640.381	0.0	1642579	PROB	0.0	n/a	n/a	n/a	-999	12	[1, 6, 5]	12	catFR1	0	R1499T
1640.38	0.002	1642580	WORD_OFF	n/a	n/a	HALCON	Birds	12	12	[0, 0, 0]	n/a	catFR1	0	R1499T
1640.382	0.0	1642580	ENCODING_END	n/a	n/a	n/a	n/a	-999	12	[0, 0, 0]	n/a	catFR1	0	R1499T
1640.382	0.0	1642580	DISTRACT_START	n/a	n/a	n/a	n/a	-999	12	[0, 0, 0]	n/a	catFR1	0	R1499T
1640.382	5.282	1642580	START	n/a	n/a	n/a	n/a	-999	12	[-999, -999, -999]	n/a	catFR1	0	R1499T
1645.664	8.934	1647862	PROB	8.934	n/a	n/a	n/a	-999	12	[4, 7, 6]	18	catFR1	0	R1499T
1654.598	5.133	1656795	PROB	5.133	n/a	n/a	n/a	-999	12	[6, 6, 1]	13	catFR1	0	R1499T
1659.731	5.266	1661928	PROB	5.266	n/a	n/a	n/a	-999	12	[5, 1, 3]	9	catFR1	0	R1499T
1664.997	0.0	1667194	STOP	n/a	n/a	n/a	n/a	-999	12	[-999, -999, -999]	n/a	catFR1	0	R1499T
1664.997	1.183	1667196	DISTRACT_END	n/a	n/a	n/a	n/a	-999	12	[0, 0, 0]	n/a	catFR1	0	R1499T
1666.18	2.254	1668372	REC_START	n/a	n/a	n/a	n/a	-999	12	[0, 0, 0]	n/a	catFR1	0	R1499T
1668.434	0.662	1670630	REC_WORD	0.662	n/a	PATO	Birds	6	12	[0, 0, 0]	n/a	catFR1	0	R1499T
1669.096	3.337	1671292	REC_WORD	3.337	n/a	GALLO	FarmAnimals	9	12	[0, 0, 0]	n/a	catFR1	0	R1499T
1672.433	1.591	1674629	REC_WORD	1.591	n/a	PICHON	Birds	-999	12	[0, 0, 0]	n/a	catFR1	0	R1499T
1674.024	2.369	1676220	REC_WORD	2.369	n/a	CABALLO	FarmAnimals	1	12	[0, 0, 0]	n/a	catFR1	0	R1499T
1676.393	5.087	1678589	REC_WORD	5.087	n/a	BECERRO	FarmAnimals	2	12	[0, 0, 0]	n/a	catFR1	0	R1499T
1681.48	3.445	1683676	REC_WORD	3.445	n/a	VIENTO	Weather	-999	12	[0, 0, 0]	n/a	catFR1	0	R1499T
1684.925	8.16	1687121	REC_WORD	8.16	n/a	TRUENO	Weather	-999	12	[0, 0, 0]	n/a	catFR1	0	R1499T
1693.085	4.286	1695280	REC_WORD_VV	4.286	n/a	<>	n/a	-999	12	[0, 0, 0]	n/a	catFR1	0	R1499T
1697.371	0.0	1699563	REC_END	n/a	n/a	n/a	n/a	-999	12	[0, 0, 0]	n/a	catFR1	0	R1499T
