onset	duration	sample	trial_type	response_time	stim_file	item_name	category	serialpos	list	test	answer	experiment	session	subject
0.0	4.916	131393	INSTRUCT_START	n/a	n/a	n/a	n/a	-999	-999	[0, 0, 0]	n/a	catFR1	8	R1501J
4.916	24.716	136300	INSTRUCT_END	n/a	n/a	n/a	n/a	-999	-999	[0, 0, 0]	n/a	catFR1	8	R1501J
29.632	10.35	161021	COUNTDOWN_START	n/a	n/a	n/a	n/a	-999	-999	[0, 0, 0]	n/a	catFR1	8	R1501J
39.982	0.0	171364	COUNTDOWN_END	n/a	n/a	n/a	n/a	-999	-999	[0, 0, 0]	n/a	catFR1	8	R1501J
39.982	1.934	171377	ENCODING_START	n/a	n/a	n/a	n/a	-999	-1	[0, 0, 0]	n/a	catFR1	8	R1501J
41.916	1.599	173308	WORD	n/a	n/a	TAPE	OfficeSupplies	1	-1	[0, 0, 0]	n/a	catFR1	8	R1501J
43.515	0.783	174896	WORD_OFF	n/a	n/a	TAPE	OfficeSupplies	1	-1	[0, 0, 0]	n/a	catFR1	8	R1501J
44.298	1.617	175689	WORD	n/a	n/a	MARKER	OfficeSupplies	2	-1	[0, 0, 0]	n/a	catFR1	8	R1501J
45.915	0.8	177303	WORD_OFF	n/a	n/a	MARKER	OfficeSupplies	2	-1	[0, 0, 0]	n/a	catFR1	8	R1501J
46.715	1.6	178096	WORD	n/a	n/a	FOOTBALL	Toys	3	-1	[0, 0, 0]	n/a	catFR1	8	R1501J
48.315	0.867	179697	WORD_OFF	n/a	n/a	FOOTBALL	Toys	3	-1	[0, 0, 0]	n/a	catFR1	8	R1501J
49.182	1.615	180570	WORD	n/a	n/a	BASKETBALL	Toys	4	-1	[0, 0, 0]	n/a	catFR1	8	R1501J
50.797	0.884	182183	WORD_OFF	n/a	n/a	BASKETBALL	Toys	4	-1	[0, 0, 0]	n/a	catFR1	8	R1501J
51.681	1.601	183070	WORD	n/a	n/a	GORILLA	Zoo	5	-1	[0, 0, 0]	n/a	catFR1	8	R1501J
53.282	0.915	184670	WORD_OFF	n/a	n/a	GORILLA	Zoo	5	-1	[0, 0, 0]	n/a	catFR1	8	R1501J
54.197	1.601	185583	WORD	n/a	n/a	PANDA	Zoo	6	-1	[0, 0, 0]	n/a	catFR1	8	R1501J
55.798	0.884	187183	WORD_OFF	n/a	n/a	PANDA	Zoo	6	-1	[0, 0, 0]	n/a	catFR1	8	R1501J
56.682	1.6	188069	WORD	n/a	n/a	STAPLER	OfficeSupplies	7	-1	[0, 0, 0]	n/a	catFR1	8	R1501J
58.282	0.982	189670	WORD_OFF	n/a	n/a	STAPLER	OfficeSupplies	7	-1	[0, 0, 0]	n/a	catFR1	8	R1501J
59.264	1.601	190649	WORD	n/a	n/a	BINDER	OfficeSupplies	8	-1	[0, 0, 0]	n/a	catFR1	8	R1501J
60.865	0.934	192249	WORD_OFF	n/a	n/a	BINDER	OfficeSupplies	8	-1	[0, 0, 0]	n/a	catFR1	8	R1501J
61.799	1.616	193188	WORD	n/a	n/a	SLINKY	Toys	9	-1	[0, 0, 0]	n/a	catFR1	8	R1501J
63.415	0.883	194802	WORD_OFF	n/a	n/a	SLINKY	Toys	9	-1	[0, 0, 0]	n/a	catFR1	8	R1501J
64.298	1.617	195688	WORD	n/a	n/a	PUZZLE	Toys	10	-1	[0, 0, 0]	n/a	catFR1	8	R1501J
65.915	0.883	197302	WORD_OFF	n/a	n/a	PUZZLE	Toys	10	-1	[0, 0, 0]	n/a	catFR1	8	R1501J
66.798	1.6	198188	WORD	n/a	n/a	TIGER	Zoo	11	-1	[0, 0, 0]	n/a	catFR1	8	R1501J
68.398	0.85	199788	WORD_OFF	n/a	n/a	TIGER	Zoo	11	-1	[0, 0, 0]	n/a	catFR1	8	R1501J
69.248	1.618	200635	WORD	n/a	n/a	GIRAFFE	Zoo	12	-1	[0, 0, 0]	n/a	catFR1	8	R1501J
70.866	0.001	202248	WORD_OFF	n/a	n/a	GIRAFFE	Zoo	12	-1	[0, 0, 0]	n/a	catFR1	8	R1501J
70.867	0.0	202248	ENCODING_END	n/a	n/a	n/a	n/a	-999	-1	[0, 0, 0]	n/a	catFR1	8	R1501J
70.867	0.0	202252	START	n/a	n/a	n/a	n/a	-999	-1	[-999, -999, -999]	n/a	catFR1	8	R1501J
70.867	0.0	202252	PROB	0.0	n/a	n/a	n/a	-999	-1	[4, 4, 1]	9	catFR1	8	R1501J
70.867	2.965	202262	DISTRACT_START	n/a	n/a	n/a	n/a	-999	-1	[0, 0, 0]	n/a	catFR1	8	R1501J
73.832	2.066	205217	PROB	2.066	n/a	n/a	n/a	-999	-1	[5, 1, 3]	9	catFR1	8	R1501J
75.898	1.951	207283	PROB	1.951	n/a	n/a	n/a	-999	-1	[3, 5, 1]	9	catFR1	8	R1501J
77.849	3.185	209234	PROB	3.185	n/a	n/a	n/a	-999	-1	[8, 1, 8]	17	catFR1	8	R1501J
81.034	2.483	212419	PROB	2.483	n/a	n/a	n/a	-999	-1	[3, 5, 1]	9	catFR1	8	R1501J
83.517	2.249	214902	PROB	2.249	n/a	n/a	n/a	-999	-1	[6, 4, 1]	11	catFR1	8	R1501J
85.766	3.917	217151	PROB	3.917	n/a	n/a	n/a	-999	-1	[1, 1, 3]	5	catFR1	8	R1501J
89.683	2.7	221067	PROB	2.7	n/a	n/a	n/a	-999	-1	[1, 3, 4]	8	catFR1	8	R1501J
92.383	0.0	223767	STOP	n/a	n/a	n/a	n/a	-999	-1	[-999, -999, -999]	n/a	catFR1	8	R1501J
92.383	2.25	223768	DISTRACT_END	n/a	n/a	n/a	n/a	-999	-1	[0, 0, 0]	n/a	catFR1	8	R1501J
94.633	0.182	226011	REC_START	n/a	n/a	n/a	n/a	-999	-1	[0, 0, 0]	n/a	catFR1	8	R1501J
94.815	1.11	226199	REC_WORD	1.11	n/a	TAPE	OfficeSupplies	1	-1	[0, 0, 0]	n/a	catFR1	8	R1501J
95.925	1.525	227309	REC_WORD	1.525	n/a	STAPLER	OfficeSupplies	7	-1	[0, 0, 0]	n/a	catFR1	8	R1501J
97.45	1.983	228834	REC_WORD	1.983	n/a	MARKER	OfficeSupplies	2	-1	[0, 0, 0]	n/a	catFR1	8	R1501J
99.433	2.165	230817	REC_WORD	2.165	n/a	GORILLA	Zoo	5	-1	[0, 0, 0]	n/a	catFR1	8	R1501J
101.598	1.168	232982	REC_WORD_VV	1.168	n/a	<>	n/a	-999	-1	[0, 0, 0]	n/a	catFR1	8	R1501J
102.766	22.047	234150	REC_WORD	22.047	n/a	SLINKY	Toys	9	-1	[0, 0, 0]	n/a	catFR1	8	R1501J
124.813	3.086	256200	REC_END	n/a	n/a	n/a	n/a	-999	-1	[0, 0, 0]	n/a	catFR1	8	R1501J
127.899	10.349	259282	COUNTDOWN_START	n/a	n/a	n/a	n/a	-999	1	[0, 0, 0]	n/a	catFR1	8	R1501J
138.248	0.001	269625	COUNTDOWN_END	n/a	n/a	n/a	n/a	-999	1	[0, 0, 0]	n/a	catFR1	8	R1501J
138.249	1.999	269638	ENCODING_START	n/a	n/a	n/a	n/a	-999	1	[0, 0, 0]	n/a	catFR1	8	R1501J
140.248	1.6	271635	WORD	n/a	wordpools/wordpool_categorized_EN.txt	CUCUMBER	Vegetables	1	1	[0, 0, 0]	n/a	catFR1	8	R1501J
141.848	0.834	273236	WORD_OFF	n/a	n/a	CUCUMBER	Vegetables	1	1	[0, 0, 0]	n/a	catFR1	8	R1501J
142.682	1.616	274069	WORD	n/a	wordpools/wordpool_categorized_EN.txt	SPINACH	Vegetables	2	1	[0, 0, 0]	n/a	catFR1	8	R1501J
144.298	0.784	275683	WORD_OFF	n/a	n/a	SPINACH	Vegetables	2	1	[0, 0, 0]	n/a	catFR1	8	R1501J
145.082	1.615	276463	WORD	n/a	wordpools/wordpool_categorized_EN.txt	ROBIN	Birds	3	1	[0, 0, 0]	n/a	catFR1	8	R1501J
146.697	0.968	278077	WORD_OFF	n/a	n/a	ROBIN	Birds	3	1	[0, 0, 0]	n/a	catFR1	8	R1501J
147.665	1.601	279042	WORD	n/a	wordpools/wordpool_categorized_EN.txt	PIGEON	Birds	4	1	[0, 0, 0]	n/a	catFR1	8	R1501J
149.266	0.766	280643	WORD_OFF	n/a	n/a	PIGEON	Birds	4	1	[0, 0, 0]	n/a	catFR1	8	R1501J
150.032	1.616	281410	WORD	n/a	wordpools/wordpool_categorized_EN.txt	HICKORY	Trees	5	1	[0, 0, 0]	n/a	catFR1	8	R1501J
151.648	0.867	283024	WORD_OFF	n/a	n/a	HICKORY	Trees	5	1	[0, 0, 0]	n/a	catFR1	8	R1501J
152.515	1.616	283896	WORD	n/a	wordpools/wordpool_categorized_EN.txt	CYPRESS	Trees	6	1	[0, 0, 0]	n/a	catFR1	8	R1501J
154.131	0.934	285510	WORD_OFF	n/a	n/a	CYPRESS	Trees	6	1	[0, 0, 0]	n/a	catFR1	8	R1501J
155.065	1.615	286449	WORD	n/a	wordpools/wordpool_categorized_EN.txt	CORN	Vegetables	7	1	[0, 0, 0]	n/a	catFR1	8	R1501J
156.68	0.951	288063	WORD_OFF	n/a	n/a	CORN	Vegetables	7	1	[0, 0, 0]	n/a	catFR1	8	R1501J
157.631	1.616	289015	WORD	n/a	wordpools/wordpool_categorized_EN.txt	LETTUCE	Vegetables	8	1	[0, 0, 0]	n/a	catFR1	8	R1501J
159.247	0.901	290629	WORD_OFF	n/a	n/a	LETTUCE	Vegetables	8	1	[0, 0, 0]	n/a	catFR1	8	R1501J
160.148	1.6	291528	WORD	n/a	wordpools/wordpool_categorized_EN.txt	EVERGREEN	Trees	9	1	[0, 0, 0]	n/a	catFR1	8	R1501J
161.748	0.901	293129	WORD_OFF	n/a	n/a	EVERGREEN	Trees	9	1	[0, 0, 0]	n/a	catFR1	8	R1501J
162.649	1.599	294028	WORD	n/a	wordpools/wordpool_categorized_EN.txt	OAK	Trees	10	1	[0, 0, 0]	n/a	catFR1	8	R1501J
164.248	0.917	295629	WORD_OFF	n/a	n/a	OAK	Trees	10	1	[0, 0, 0]	n/a	catFR1	8	R1501J
165.165	1.6	296541	WORD	n/a	wordpools/wordpool_categorized_EN.txt	CROW	Birds	11	1	[0, 0, 0]	n/a	catFR1	8	R1501J
166.765	0.834	298142	WORD_OFF	n/a	n/a	CROW	Birds	11	1	[0, 0, 0]	n/a	catFR1	8	R1501J
167.599	1.617	298975	WORD	n/a	wordpools/wordpool_categorized_EN.txt	SPARROW	Birds	12	1	[0, 0, 0]	n/a	catFR1	8	R1501J
169.216	0.0	300597	PROB	0.0	n/a	n/a	n/a	-999	1	[3, 7, 6]	16	catFR1	8	R1501J
169.216	0.0	300597	START	n/a	n/a	n/a	n/a	-999	1	[-999, -999, -999]	n/a	catFR1	8	R1501J
169.215	0.001	300602	WORD_OFF	n/a	n/a	SPARROW	Birds	12	1	[0, 0, 0]	n/a	catFR1	8	R1501J
169.216	0.0	300602	ENCODING_END	n/a	n/a	n/a	n/a	-999	1	[0, 0, 0]	n/a	catFR1	8	R1501J
169.216	4.615	300602	DISTRACT_START	n/a	n/a	n/a	n/a	-999	1	[0, 0, 0]	n/a	catFR1	8	R1501J
173.831	3.601	305212	PROB	3.601	n/a	n/a	n/a	-999	1	[2, 7, 7]	16	catFR1	8	R1501J
177.432	3.017	308813	PROB	3.017	n/a	n/a	n/a	-999	1	[2, 8, 7]	17	catFR1	8	R1501J
180.449	2.882	311830	PROB	2.882	n/a	n/a	n/a	-999	1	[1, 8, 6]	15	catFR1	8	R1501J
183.331	4.052	314712	PROB	4.052	n/a	n/a	n/a	-999	1	[1, 8, 5]	14	catFR1	8	R1501J
187.383	4.099	318763	PROB	4.099	n/a	n/a	n/a	-999	1	[5, 2, 8]	15	catFR1	8	R1501J
191.482	0.0	322862	DISTRACT_END	n/a	n/a	n/a	n/a	-999	1	[0, 0, 0]	n/a	catFR1	8	R1501J
191.482	2.066	322862	STOP	n/a	n/a	n/a	n/a	-999	1	[-999, -999, -999]	n/a	catFR1	8	R1501J
193.548	4.217	324934	REC_START	n/a	n/a	n/a	n/a	-999	1	[0, 0, 0]	n/a	catFR1	8	R1501J
197.765	1.318	329145	REC_WORD	1.318	n/a	HICKORY	Trees	5	1	[0, 0, 0]	n/a	catFR1	8	R1501J
199.083	1.268	330463	REC_WORD	1.268	n/a	OAK	Trees	10	1	[0, 0, 0]	n/a	catFR1	8	R1501J
200.351	7.338	331731	REC_WORD	7.338	n/a	CROW	Birds	11	1	[0, 0, 0]	n/a	catFR1	8	R1501J
207.689	8.401	339069	REC_WORD	8.401	n/a	MARKER	OfficeSupplies	-999	1	[0, 0, 0]	n/a	catFR1	8	R1501J
216.09	7.674	347469	REC_WORD	7.674	n/a	SPARROW	Birds	12	1	[0, 0, 0]	n/a	catFR1	8	R1501J
223.764	1.401	355148	REC_END	n/a	n/a	n/a	n/a	-999	1	[0, 0, 0]	n/a	catFR1	8	R1501J
225.165	10.35	356550	COUNTDOWN_START	n/a	n/a	n/a	n/a	-999	2	[0, 0, 0]	n/a	catFR1	8	R1501J
235.515	0.0	366894	COUNTDOWN_END	n/a	n/a	n/a	n/a	-999	2	[0, 0, 0]	n/a	catFR1	8	R1501J
235.515	2.167	366894	ENCODING_START	n/a	n/a	n/a	n/a	-999	2	[0, 0, 0]	n/a	catFR1	8	R1501J
237.682	1.601	369063	WORD	n/a	wordpools/wordpool_categorized_EN.txt	COBBLER	Desserts	1	2	[0, 0, 0]	n/a	catFR1	8	R1501J
239.283	0.898	370663	WORD_OFF	n/a	n/a	COBBLER	Desserts	1	2	[0, 0, 0]	n/a	catFR1	8	R1501J
240.181	1.601	371563	WORD	n/a	wordpools/wordpool_categorized_EN.txt	PUDDING	Desserts	2	2	[0, 0, 0]	n/a	catFR1	8	R1501J
241.782	0.834	373163	WORD_OFF	n/a	n/a	PUDDING	Desserts	2	2	[0, 0, 0]	n/a	catFR1	8	R1501J
242.616	1.615	373996	WORD	n/a	wordpools/wordpool_categorized_EN.txt	PLANKTON	OceanAnimals	3	2	[0, 0, 0]	n/a	catFR1	8	R1501J
244.231	0.935	375610	WORD_OFF	n/a	n/a	PLANKTON	OceanAnimals	3	2	[0, 0, 0]	n/a	catFR1	8	R1501J
245.166	1.615	376549	WORD	n/a	wordpools/wordpool_categorized_EN.txt	WHALE	OceanAnimals	4	2	[0, 0, 0]	n/a	catFR1	8	R1501J
246.781	0.967	378163	WORD_OFF	n/a	n/a	WHALE	OceanAnimals	4	2	[0, 0, 0]	n/a	catFR1	8	R1501J
247.748	1.617	379128	WORD	n/a	wordpools/wordpool_categorized_EN.txt	LILY	Flowers	5	2	[0, 0, 0]	n/a	catFR1	8	R1501J
249.365	1.0	380742	WORD_OFF	n/a	n/a	LILY	Flowers	5	2	[0, 0, 0]	n/a	catFR1	8	R1501J
250.365	1.6	381747	WORD	n/a	wordpools/wordpool_categorized_EN.txt	TULIP	Flowers	6	2	[0, 0, 0]	n/a	catFR1	8	R1501J
251.965	0.95	383348	WORD_OFF	n/a	n/a	TULIP	Flowers	6	2	[0, 0, 0]	n/a	catFR1	8	R1501J
252.915	1.601	384287	WORD	n/a	wordpools/wordpool_categorized_EN.txt	MOUSSE	Desserts	7	2	[0, 0, 0]	n/a	catFR1	8	R1501J
254.516	0.832	385887	WORD_OFF	n/a	n/a	MOUSSE	Desserts	7	2	[0, 0, 0]	n/a	catFR1	8	R1501J
255.348	1.601	386720	WORD	n/a	wordpools/wordpool_categorized_EN.txt	JELLO	Desserts	8	2	[0, 0, 0]	n/a	catFR1	8	R1501J
256.949	0.899	388321	WORD_OFF	n/a	n/a	JELLO	Desserts	8	2	[0, 0, 0]	n/a	catFR1	8	R1501J
257.848	1.6	389220	WORD	n/a	wordpools/wordpool_categorized_EN.txt	MARIGOLD	Flowers	9	2	[0, 0, 0]	n/a	catFR1	8	R1501J
259.448	0.768	390821	WORD_OFF	n/a	n/a	MARIGOLD	Flowers	9	2	[0, 0, 0]	n/a	catFR1	8	R1501J
260.216	1.617	391588	WORD	n/a	wordpools/wordpool_categorized_EN.txt	SUNFLOWER	Flowers	10	2	[0, 0, 0]	n/a	catFR1	8	R1501J
261.833	0.932	393215	WORD_OFF	n/a	n/a	SUNFLOWER	Flowers	10	2	[0, 0, 0]	n/a	catFR1	8	R1501J
262.765	1.616	394141	WORD	n/a	wordpools/wordpool_categorized_EN.txt	FISH	OceanAnimals	11	2	[0, 0, 0]	n/a	catFR1	8	R1501J
264.381	0.817	395754	WORD_OFF	n/a	n/a	FISH	OceanAnimals	11	2	[0, 0, 0]	n/a	catFR1	8	R1501J
265.198	1.617	396574	WORD	n/a	wordpools/wordpool_categorized_EN.txt	OCTOPUS	OceanAnimals	12	2	[0, 0, 0]	n/a	catFR1	8	R1501J
266.815	0.001	398188	WORD_OFF	n/a	n/a	OCTOPUS	OceanAnimals	12	2	[0, 0, 0]	n/a	catFR1	8	R1501J
266.816	0.0	398188	ENCODING_END	n/a	n/a	n/a	n/a	-999	2	[0, 0, 0]	n/a	catFR1	8	R1501J
266.815	0.001	398192	PROB	0.001	n/a	n/a	n/a	-999	2	[6, 1, 6]	13	catFR1	8	R1501J
266.816	0.0	398193	START	n/a	n/a	n/a	n/a	-999	2	[-999, -999, -999]	n/a	catFR1	8	R1501J
266.816	2.9	398201	DISTRACT_START	n/a	n/a	n/a	n/a	-999	2	[0, 0, 0]	n/a	catFR1	8	R1501J
269.716	4.883	401093	PROB	4.883	n/a	n/a	n/a	-999	2	[5, 2, 3]	10	catFR1	8	R1501J
274.599	9.282	405976	PROB	9.282	n/a	n/a	n/a	-999	2	[6, 7, 4]	17	catFR1	8	R1501J
283.881	3.999	415257	PROB	3.999	n/a	n/a	n/a	-999	2	[7, 2, 4]	13	catFR1	8	R1501J
287.88	0.0	419256	STOP	n/a	n/a	n/a	n/a	-999	2	[-999, -999, -999]	n/a	catFR1	8	R1501J
287.88	2.235	419258	DISTRACT_END	n/a	n/a	n/a	n/a	-999	2	[0, 0, 0]	n/a	catFR1	8	R1501J
290.115	0.754	421488	REC_START	n/a	n/a	n/a	n/a	-999	2	[0, 0, 0]	n/a	catFR1	8	R1501J
290.869	1.208	422245	REC_WORD	1.208	n/a	PUDDING	Desserts	2	2	[0, 0, 0]	n/a	catFR1	8	R1501J
292.077	2.505	423453	REC_WORD	2.505	n/a	MOUSSE	Desserts	7	2	[0, 0, 0]	n/a	catFR1	8	R1501J
294.582	11.806	425958	REC_WORD_VV	11.806	n/a	<>	n/a	-999	2	[0, 0, 0]	n/a	catFR1	8	R1501J
306.388	13.925	437763	REC_WORD_VV	13.925	n/a	<>	n/a	-999	2	[0, 0, 0]	n/a	catFR1	8	R1501J
320.313	1.436	451690	REC_END	n/a	n/a	n/a	n/a	-999	2	[0, 0, 0]	n/a	catFR1	8	R1501J
321.749	10.349	453132	COUNTDOWN_START	n/a	n/a	n/a	n/a	-999	3	[0, 0, 0]	n/a	catFR1	8	R1501J
332.098	0.001	463475	COUNTDOWN_END	n/a	n/a	n/a	n/a	-999	3	[0, 0, 0]	n/a	catFR1	8	R1501J
332.099	1.916	463475	ENCODING_START	n/a	n/a	n/a	n/a	-999	3	[0, 0, 0]	n/a	catFR1	8	R1501J
334.015	1.617	465393	WORD	n/a	wordpools/wordpool_categorized_EN.txt	AXE	Tools	1	3	[0, 0, 0]	n/a	catFR1	8	R1501J
335.632	0.899	467006	WORD_OFF	n/a	n/a	AXE	Tools	1	3	[0, 0, 0]	n/a	catFR1	8	R1501J
336.531	1.601	467906	WORD	n/a	wordpools/wordpool_categorized_EN.txt	SCREWDRIVER	Tools	2	3	[0, 0, 0]	n/a	catFR1	8	R1501J
338.132	0.998	469506	WORD_OFF	n/a	n/a	SCREWDRIVER	Tools	2	3	[0, 0, 0]	n/a	catFR1	8	R1501J
339.13	1.601	470511	WORD	n/a	wordpools/wordpool_categorized_EN.txt	ISLAND	Landscapes	3	3	[0, 0, 0]	n/a	catFR1	8	R1501J
340.731	0.816	472099	WORD_OFF	n/a	n/a	ISLAND	Landscapes	3	3	[0, 0, 0]	n/a	catFR1	8	R1501J
341.547	1.601	472919	WORD	n/a	wordpools/wordpool_categorized_EN.txt	RIVER	Landscapes	4	3	[0, 0, 0]	n/a	catFR1	8	R1501J
343.148	0.801	474519	WORD_OFF	n/a	n/a	RIVER	Landscapes	4	3	[0, 0, 0]	n/a	catFR1	8	R1501J
343.949	1.616	475326	WORD	n/a	wordpools/wordpool_categorized_EN.txt	CELERY	Vegetables	5	3	[0, 0, 0]	n/a	catFR1	8	R1501J
345.565	0.766	476940	WORD_OFF	n/a	n/a	CELERY	Vegetables	5	3	[0, 0, 0]	n/a	catFR1	8	R1501J
346.331	1.601	477707	WORD	n/a	wordpools/wordpool_categorized_EN.txt	CARROT	Vegetables	6	3	[0, 0, 0]	n/a	catFR1	8	R1501J
347.932	0.867	479307	WORD_OFF	n/a	n/a	CARROT	Vegetables	6	3	[0, 0, 0]	n/a	catFR1	8	R1501J
348.799	1.616	480167	WORD	n/a	wordpools/wordpool_categorized_EN.txt	CROWBAR	Tools	7	3	[0, 0, 0]	n/a	catFR1	8	R1501J
350.415	0.849	481794	WORD_OFF	n/a	n/a	CROWBAR	Tools	7	3	[0, 0, 0]	n/a	catFR1	8	R1501J
351.264	1.601	482640	WORD	n/a	wordpools/wordpool_categorized_EN.txt	RATCHET	Tools	8	3	[0, 0, 0]	n/a	catFR1	8	R1501J
352.865	0.917	484241	WORD_OFF	n/a	n/a	RATCHET	Tools	8	3	[0, 0, 0]	n/a	catFR1	8	R1501J
353.782	1.6	485153	WORD	n/a	wordpools/wordpool_categorized_EN.txt	HILLS	Landscapes	9	3	[0, 0, 0]	n/a	catFR1	8	R1501J
355.382	0.832	486754	WORD_OFF	n/a	n/a	HILLS	Landscapes	9	3	[0, 0, 0]	n/a	catFR1	8	R1501J
356.214	1.618	487587	WORD	n/a	wordpools/wordpool_categorized_EN.txt	FOREST	Landscapes	10	3	[0, 0, 0]	n/a	catFR1	8	R1501J
357.832	0.916	489201	WORD_OFF	n/a	n/a	FOREST	Landscapes	10	3	[0, 0, 0]	n/a	catFR1	8	R1501J
358.748	1.617	490126	WORD	n/a	wordpools/wordpool_categorized_EN.txt	PEAS	Vegetables	11	3	[0, 0, 0]	n/a	catFR1	8	R1501J
360.365	0.765	491740	WORD_OFF	n/a	n/a	PEAS	Vegetables	11	3	[0, 0, 0]	n/a	catFR1	8	R1501J
361.13	1.617	492507	WORD	n/a	wordpools/wordpool_categorized_EN.txt	ONION	Vegetables	12	3	[0, 0, 0]	n/a	catFR1	8	R1501J
362.747	0.001	494121	WORD_OFF	n/a	n/a	ONION	Vegetables	12	3	[0, 0, 0]	n/a	catFR1	8	R1501J
362.748	0.0	494121	ENCODING_END	n/a	n/a	n/a	n/a	-999	3	[0, 0, 0]	n/a	catFR1	8	R1501J
362.748	0.0	494121	DISTRACT_START	n/a	n/a	n/a	n/a	-999	3	[0, 0, 0]	n/a	catFR1	8	R1501J
362.748	0.0	494121	START	n/a	n/a	n/a	n/a	-999	3	[-999, -999, -999]	n/a	catFR1	8	R1501J
362.748	5.833	494121	PROB	5.833	n/a	n/a	n/a	-999	3	[4, 8, 5]	17	catFR1	8	R1501J
368.581	2.584	499954	PROB	2.584	n/a	n/a	n/a	-999	3	[2, 1, 2]	5	catFR1	8	R1501J
371.165	6.184	502538	PROB	6.184	n/a	n/a	n/a	-999	3	[8, 8, 7]	23	catFR1	8	R1501J
377.349	3.933	508721	PROB	3.933	n/a	n/a	n/a	-999	3	[8, 8, 6]	22	catFR1	8	R1501J
381.282	3.484	512654	PROB	3.484	n/a	n/a	n/a	-999	3	[4, 2, 8]	14	catFR1	8	R1501J
384.766	0.0	516138	STOP	n/a	n/a	n/a	n/a	-999	3	[-999, -999, -999]	n/a	catFR1	8	R1501J
384.766	2.249	516143	DISTRACT_END	n/a	n/a	n/a	n/a	-999	3	[0, 0, 0]	n/a	catFR1	8	R1501J
387.015	0.688	518387	REC_START	n/a	n/a	n/a	n/a	-999	3	[0, 0, 0]	n/a	catFR1	8	R1501J
387.703	4.234	519075	REC_WORD	4.234	n/a	PEAS	Vegetables	11	3	[0, 0, 0]	n/a	catFR1	8	R1501J
391.937	15.581	523309	REC_WORD	15.581	n/a	CROWBAR	Tools	7	3	[0, 0, 0]	n/a	catFR1	8	R1501J
407.518	2.005	538889	REC_WORD	2.005	n/a	PUDDING	Desserts	-999	3	[0, 0, 0]	n/a	catFR1	8	R1501J
409.523	7.279	540894	REC_WORD_VV	7.279	n/a	<>	n/a	-999	3	[0, 0, 0]	n/a	catFR1	8	R1501J
416.802	0.436	548173	REC_WORD	0.436	n/a	RIVER	Landscapes	4	3	[0, 0, 0]	n/a	catFR1	8	R1501J
417.238	1.528	548615	REC_END	n/a	n/a	n/a	n/a	-999	3	[0, 0, 0]	n/a	catFR1	8	R1501J
418.766	10.349	550136	COUNTDOWN_START	n/a	n/a	n/a	n/a	-999	4	[0, 0, 0]	n/a	catFR1	8	R1501J
429.115	0.0	560479	COUNTDOWN_END	n/a	n/a	n/a	n/a	-999	4	[0, 0, 0]	n/a	catFR1	8	R1501J
429.115	2.25	560492	ENCODING_START	n/a	n/a	n/a	n/a	-999	4	[0, 0, 0]	n/a	catFR1	8	R1501J
431.365	1.601	562741	WORD	n/a	wordpools/wordpool_categorized_EN.txt	TURKEY	FarmAnimals	1	4	[0, 0, 0]	n/a	catFR1	8	R1501J
432.966	0.865	564341	WORD_OFF	n/a	n/a	TURKEY	FarmAnimals	1	4	[0, 0, 0]	n/a	catFR1	8	R1501J
433.831	1.617	565201	WORD	n/a	wordpools/wordpool_categorized_EN.txt	GOAT	FarmAnimals	2	4	[0, 0, 0]	n/a	catFR1	8	R1501J
435.448	0.851	566815	WORD_OFF	n/a	n/a	GOAT	FarmAnimals	2	4	[0, 0, 0]	n/a	catFR1	8	R1501J
436.299	1.616	567674	WORD	n/a	wordpools/wordpool_categorized_EN.txt	DRUM	Instruments	3	4	[0, 0, 0]	n/a	catFR1	8	R1501J
437.915	0.917	569288	WORD_OFF	n/a	n/a	DRUM	Instruments	3	4	[0, 0, 0]	n/a	catFR1	8	R1501J
438.832	1.616	570201	WORD	n/a	wordpools/wordpool_categorized_EN.txt	GUITAR	Instruments	4	4	[0, 0, 0]	n/a	catFR1	8	R1501J
440.448	0.867	571814	WORD_OFF	n/a	n/a	GUITAR	Instruments	4	4	[0, 0, 0]	n/a	catFR1	8	R1501J
441.315	1.616	572687	WORD	n/a	wordpools/wordpool_categorized_EN.txt	DAFFODIL	Flowers	5	4	[0, 0, 0]	n/a	catFR1	8	R1501J
442.931	0.818	574301	WORD_OFF	n/a	n/a	DAFFODIL	Flowers	5	4	[0, 0, 0]	n/a	catFR1	8	R1501J
443.749	1.599	575121	WORD	n/a	wordpools/wordpool_categorized_EN.txt	ORCHID	Flowers	6	4	[0, 0, 0]	n/a	catFR1	8	R1501J
445.348	0.851	576721	WORD_OFF	n/a	n/a	ORCHID	Flowers	6	4	[0, 0, 0]	n/a	catFR1	8	R1501J
446.199	1.616	577568	WORD	n/a	wordpools/wordpool_categorized_EN.txt	SHEEP	FarmAnimals	7	4	[0, 0, 0]	n/a	catFR1	8	R1501J
447.815	0.782	579182	WORD_OFF	n/a	n/a	SHEEP	FarmAnimals	7	4	[0, 0, 0]	n/a	catFR1	8	R1501J
448.597	1.601	579962	WORD	n/a	wordpools/wordpool_categorized_EN.txt	PIG	FarmAnimals	8	4	[0, 0, 0]	n/a	catFR1	8	R1501J
450.198	0.984	581562	WORD_OFF	n/a	n/a	PIG	FarmAnimals	8	4	[0, 0, 0]	n/a	catFR1	8	R1501J
451.182	1.6	582554	WORD	n/a	wordpools/wordpool_categorized_EN.txt	VIOLET	Flowers	9	4	[0, 0, 0]	n/a	catFR1	8	R1501J
452.782	0.883	584155	WORD_OFF	n/a	n/a	VIOLET	Flowers	9	4	[0, 0, 0]	n/a	catFR1	8	R1501J
453.665	1.616	585028	WORD	n/a	wordpools/wordpool_categorized_EN.txt	PETUNIA	Flowers	10	4	[0, 0, 0]	n/a	catFR1	8	R1501J
455.281	0.984	586655	WORD_OFF	n/a	n/a	PETUNIA	Flowers	10	4	[0, 0, 0]	n/a	catFR1	8	R1501J
456.265	1.616	587633	WORD	n/a	wordpools/wordpool_categorized_EN.txt	TUBA	Instruments	11	4	[0, 0, 0]	n/a	catFR1	8	R1501J
457.881	0.85	589247	WORD_OFF	n/a	n/a	TUBA	Instruments	11	4	[0, 0, 0]	n/a	catFR1	8	R1501J
458.731	1.601	590094	WORD	n/a	wordpools/wordpool_categorized_EN.txt	BASS	Instruments	12	4	[0, 0, 0]	n/a	catFR1	8	R1501J
460.332	0.001	591701	PROB	0.001	n/a	n/a	n/a	-999	4	[3, 5, 8]	16	catFR1	8	R1501J
460.333	0.0	591702	START	n/a	n/a	n/a	n/a	-999	4	[-999, -999, -999]	n/a	catFR1	8	R1501J
460.332	0.001	591707	WORD_OFF	n/a	n/a	BASS	Instruments	12	4	[0, 0, 0]	n/a	catFR1	8	R1501J
460.333	0.0	591707	ENCODING_END	n/a	n/a	n/a	n/a	-999	4	[0, 0, 0]	n/a	catFR1	8	R1501J
460.333	2.998	591707	DISTRACT_START	n/a	n/a	n/a	n/a	-999	4	[0, 0, 0]	n/a	catFR1	8	R1501J
463.331	4.301	594700	PROB	4.301	n/a	n/a	n/a	-999	4	[3, 8, 8]	19	catFR1	8	R1501J
467.632	7.599	599001	PROB	7.599	n/a	n/a	n/a	-999	4	[6, 6, 8]	20	catFR1	8	R1501J
475.231	8.45	606599	PROB	8.45	n/a	n/a	n/a	-999	4	[2, 1, 4]	7	catFR1	8	R1501J
483.681	0.0	615049	STOP	n/a	n/a	n/a	n/a	-999	4	[-999, -999, -999]	n/a	catFR1	8	R1501J
483.681	2.067	615052	DISTRACT_END	n/a	n/a	n/a	n/a	-999	4	[0, 0, 0]	n/a	catFR1	8	R1501J
485.748	0.523	617110	REC_START	n/a	n/a	n/a	n/a	-999	4	[0, 0, 0]	n/a	catFR1	8	R1501J
486.271	1.37	617639	REC_WORD	1.37	n/a	GOAT	FarmAnimals	2	4	[0, 0, 0]	n/a	catFR1	8	R1501J
487.641	1.479	619009	REC_WORD	1.479	n/a	GUITAR	Instruments	4	4	[0, 0, 0]	n/a	catFR1	8	R1501J
489.12	1.666	620488	REC_WORD	1.666	n/a	DRUM	Instruments	3	4	[0, 0, 0]	n/a	catFR1	8	R1501J
490.786	1.793	622154	REC_WORD	1.793	n/a	DAFFODIL	Flowers	5	4	[0, 0, 0]	n/a	catFR1	8	R1501J
492.579	17.708	623947	REC_WORD	17.708	n/a	PETUNIA	Flowers	10	4	[0, 0, 0]	n/a	catFR1	8	R1501J
510.287	1.003	641654	REC_WORD	1.003	n/a	GUITAR	Instruments	4	4	[0, 0, 0]	n/a	catFR1	8	R1501J
511.29	4.688	642657	REC_WORD	4.688	n/a	DRUM	Instruments	3	4	[0, 0, 0]	n/a	catFR1	8	R1501J
515.978	1.321	647338	REC_END	n/a	n/a	n/a	n/a	-999	4	[0, 0, 0]	n/a	catFR1	8	R1501J
517.299	10.348	648661	COUNTDOWN_START	n/a	n/a	n/a	n/a	-999	5	[0, 0, 0]	n/a	catFR1	8	R1501J
527.647	0.0	659018	COUNTDOWN_END	n/a	n/a	n/a	n/a	-999	5	[0, 0, 0]	n/a	catFR1	8	R1501J
527.647	1.851	659018	ENCODING_START	n/a	n/a	n/a	n/a	-999	5	[0, 0, 0]	n/a	catFR1	8	R1501J
529.498	1.618	660869	WORD	n/a	wordpools/wordpool_categorized_EN.txt	JUICE	Beverages	1	5	[0, 0, 0]	n/a	catFR1	8	R1501J
531.116	0.899	662483	WORD_OFF	n/a	n/a	JUICE	Beverages	1	5	[0, 0, 0]	n/a	catFR1	8	R1501J
532.015	1.616	663382	WORD	n/a	wordpools/wordpool_categorized_EN.txt	MILK	Beverages	2	5	[0, 0, 0]	n/a	catFR1	8	R1501J
533.631	0.784	664996	WORD_OFF	n/a	n/a	MILK	Beverages	2	5	[0, 0, 0]	n/a	catFR1	8	R1501J
534.415	1.616	665776	WORD	n/a	wordpools/wordpool_categorized_EN.txt	FUDGE	Desserts	3	5	[0, 0, 0]	n/a	catFR1	8	R1501J
536.031	0.818	667403	WORD_OFF	n/a	n/a	FUDGE	Desserts	3	5	[0, 0, 0]	n/a	catFR1	8	R1501J
536.849	1.617	668210	WORD	n/a	wordpools/wordpool_categorized_EN.txt	PASTRY	Desserts	4	5	[0, 0, 0]	n/a	catFR1	8	R1501J
538.466	0.765	669837	WORD_OFF	n/a	n/a	PASTRY	Desserts	4	5	[0, 0, 0]	n/a	catFR1	8	R1501J
539.231	1.601	670591	WORD	n/a	wordpools/wordpool_categorized_EN.txt	ROSE	Flowers	5	5	[0, 0, 0]	n/a	catFR1	8	R1501J
540.832	0.783	672191	WORD_OFF	n/a	n/a	ROSE	Flowers	5	5	[0, 0, 0]	n/a	catFR1	8	R1501J
541.615	1.6	672985	WORD	n/a	wordpools/wordpool_categorized_EN.txt	DAISY	Flowers	6	5	[0, 0, 0]	n/a	catFR1	8	R1501J
543.215	0.917	674585	WORD_OFF	n/a	n/a	DAISY	Flowers	6	5	[0, 0, 0]	n/a	catFR1	8	R1501J
544.132	1.616	675498	WORD	n/a	wordpools/wordpool_categorized_EN.txt	CHEESECAKE	Desserts	7	5	[0, 0, 0]	n/a	catFR1	8	R1501J
545.748	0.917	677112	WORD_OFF	n/a	n/a	CHEESECAKE	Desserts	7	5	[0, 0, 0]	n/a	catFR1	8	R1501J
546.665	1.6	678024	WORD	n/a	wordpools/wordpool_categorized_EN.txt	COOKIE	Desserts	8	5	[0, 0, 0]	n/a	catFR1	8	R1501J
548.265	0.966	679625	WORD_OFF	n/a	n/a	COOKIE	Desserts	8	5	[0, 0, 0]	n/a	catFR1	8	R1501J
549.231	1.6	680590	WORD	n/a	wordpools/wordpool_categorized_EN.txt	LILAC	Flowers	9	5	[0, 0, 0]	n/a	catFR1	8	R1501J
550.831	0.934	682191	WORD_OFF	n/a	n/a	LILAC	Flowers	9	5	[0, 0, 0]	n/a	catFR1	8	R1501J
551.765	1.617	683130	WORD	n/a	wordpools/wordpool_categorized_EN.txt	CARNATION	Flowers	10	5	[0, 0, 0]	n/a	catFR1	8	R1501J
553.382	0.849	684743	WORD_OFF	n/a	n/a	CARNATION	Flowers	10	5	[0, 0, 0]	n/a	catFR1	8	R1501J
554.231	1.6	685590	WORD	n/a	wordpools/wordpool_categorized_EN.txt	SODA	Beverages	11	5	[0, 0, 0]	n/a	catFR1	8	R1501J
555.831	0.916	687190	WORD_OFF	n/a	n/a	SODA	Beverages	11	5	[0, 0, 0]	n/a	catFR1	8	R1501J
556.747	1.602	688116	WORD	n/a	wordpools/wordpool_categorized_EN.txt	CIDER	Beverages	12	5	[0, 0, 0]	n/a	catFR1	8	R1501J
558.349	0.0	689714	START	n/a	n/a	n/a	n/a	-999	5	[-999, -999, -999]	n/a	catFR1	8	R1501J
558.349	0.0	689714	PROB	0.0	n/a	n/a	n/a	-999	5	[4, 3, 1]	8	catFR1	8	R1501J
558.348	0.001	689717	WORD_OFF	n/a	n/a	CIDER	Beverages	12	5	[0, 0, 0]	n/a	catFR1	8	R1501J
558.349	0.0	689717	ENCODING_END	n/a	n/a	n/a	n/a	-999	5	[0, 0, 0]	n/a	catFR1	8	R1501J
558.349	6.0	689717	DISTRACT_START	n/a	n/a	n/a	n/a	-999	5	[0, 0, 0]	n/a	catFR1	8	R1501J
564.349	4.616	695714	PROB	4.616	n/a	n/a	n/a	-999	5	[5, 3, 2]	10	catFR1	8	R1501J
568.965	4.717	700329	PROB	4.717	n/a	n/a	n/a	-999	5	[6, 6, 4]	16	catFR1	8	R1501J
573.682	3.567	705046	PROB	3.567	n/a	n/a	n/a	-999	5	[5, 7, 1]	14	catFR1	8	R1501J
577.249	2.633	708613	PROB	2.633	n/a	n/a	n/a	-999	5	[1, 1, 1]	3	catFR1	8	R1501J
579.882	0.0	711246	STOP	n/a	n/a	n/a	n/a	-999	5	[-999, -999, -999]	n/a	catFR1	8	R1501J
579.882	2.333	711250	DISTRACT_END	n/a	n/a	n/a	n/a	-999	5	[0, 0, 0]	n/a	catFR1	8	R1501J
582.215	0.459	713572	REC_START	n/a	n/a	n/a	n/a	-999	5	[0, 0, 0]	n/a	catFR1	8	R1501J
582.674	1.108	714038	REC_WORD	1.108	n/a	DAISY	Flowers	6	5	[0, 0, 0]	n/a	catFR1	8	R1501J
583.782	1.324	715146	REC_WORD	1.324	n/a	CHEESECAKE	Desserts	7	5	[0, 0, 0]	n/a	catFR1	8	R1501J
585.106	1.475	716470	REC_WORD	1.475	n/a	COOKIE	Desserts	8	5	[0, 0, 0]	n/a	catFR1	8	R1501J
586.581	1.445	717945	REC_WORD	1.445	n/a	LILAC	Flowers	9	5	[0, 0, 0]	n/a	catFR1	8	R1501J
588.026	3.38	719390	REC_WORD	3.38	n/a	CARNATION	Flowers	10	5	[0, 0, 0]	n/a	catFR1	8	R1501J
591.406	21.045	722770	REC_WORD_VV	21.045	n/a	<>	n/a	-999	5	[0, 0, 0]	n/a	catFR1	8	R1501J
612.451	1.648	743814	REC_END	n/a	n/a	n/a	n/a	-999	5	[0, 0, 0]	n/a	catFR1	8	R1501J
614.099	10.349	745467	COUNTDOWN_START	n/a	n/a	n/a	n/a	-999	6	[0, 0, 0]	n/a	catFR1	8	R1501J
624.448	0.001	755810	COUNTDOWN_END	n/a	n/a	n/a	n/a	-999	6	[0, 0, 0]	n/a	catFR1	8	R1501J
624.449	2.149	755810	ENCODING_START	n/a	n/a	n/a	n/a	-999	6	[0, 0, 0]	n/a	catFR1	8	R1501J
626.598	1.617	757966	WORD	n/a	wordpools/wordpool_categorized_EN.txt	CABINET	Furniture	1	6	[0, 0, 0]	n/a	catFR1	8	R1501J
628.215	0.966	759580	WORD_OFF	n/a	n/a	CABINET	Furniture	1	6	[0, 0, 0]	n/a	catFR1	8	R1501J
629.181	1.601	760545	WORD	n/a	wordpools/wordpool_categorized_EN.txt	COUCH	Furniture	2	6	[0, 0, 0]	n/a	catFR1	8	R1501J
630.782	0.849	762146	WORD_OFF	n/a	n/a	COUCH	Furniture	2	6	[0, 0, 0]	n/a	catFR1	8	R1501J
631.631	1.6	762992	WORD	n/a	wordpools/wordpool_categorized_EN.txt	SANDER	Tools	3	6	[0, 0, 0]	n/a	catFR1	8	R1501J
633.231	0.999	764593	WORD_OFF	n/a	n/a	SANDER	Tools	3	6	[0, 0, 0]	n/a	catFR1	8	R1501J
634.23	1.601	765598	WORD	n/a	wordpools/wordpool_categorized_EN.txt	SHOVEL	Tools	4	6	[0, 0, 0]	n/a	catFR1	8	R1501J
635.831	0.983	767198	WORD_OFF	n/a	n/a	SHOVEL	Tools	4	6	[0, 0, 0]	n/a	catFR1	8	R1501J
636.814	1.601	768177	WORD	n/a	wordpools/wordpool_categorized_EN.txt	FINGERS	BodyParts	5	6	[0, 0, 0]	n/a	catFR1	8	R1501J
638.415	0.851	769778	WORD_OFF	n/a	n/a	FINGERS	BodyParts	5	6	[0, 0, 0]	n/a	catFR1	8	R1501J
639.266	1.615	770624	WORD	n/a	wordpools/wordpool_categorized_EN.txt	NOSE	BodyParts	6	6	[0, 0, 0]	n/a	catFR1	8	R1501J
640.881	0.916	772238	WORD_OFF	n/a	n/a	NOSE	BodyParts	6	6	[0, 0, 0]	n/a	catFR1	8	R1501J
641.797	1.602	773164	WORD	n/a	wordpools/wordpool_categorized_EN.txt	PLIERS	Tools	7	6	[0, 0, 0]	n/a	catFR1	8	R1501J
643.399	0.849	774764	WORD_OFF	n/a	n/a	PLIERS	Tools	7	6	[0, 0, 0]	n/a	catFR1	8	R1501J
644.248	1.617	775611	WORD	n/a	wordpools/wordpool_categorized_EN.txt	LEVEL	Tools	8	6	[0, 0, 0]	n/a	catFR1	8	R1501J
645.865	0.983	777224	WORD_OFF	n/a	n/a	LEVEL	Tools	8	6	[0, 0, 0]	n/a	catFR1	8	R1501J
646.848	1.617	778216	WORD	n/a	wordpools/wordpool_categorized_EN.txt	CHAIR	Furniture	9	6	[0, 0, 0]	n/a	catFR1	8	R1501J
648.465	0.833	779830	WORD_OFF	n/a	n/a	CHAIR	Furniture	9	6	[0, 0, 0]	n/a	catFR1	8	R1501J
649.298	1.617	780663	WORD	n/a	wordpools/wordpool_categorized_EN.txt	BED	Furniture	10	6	[0, 0, 0]	n/a	catFR1	8	R1501J
650.915	0.867	782277	WORD_OFF	n/a	n/a	BED	Furniture	10	6	[0, 0, 0]	n/a	catFR1	8	R1501J
651.782	1.616	783137	WORD	n/a	wordpools/wordpool_categorized_EN.txt	EYE	BodyParts	11	6	[0, 0, 0]	n/a	catFR1	8	R1501J
653.398	0.901	784763	WORD_OFF	n/a	n/a	EYE	BodyParts	11	6	[0, 0, 0]	n/a	catFR1	8	R1501J
654.299	1.615	785663	WORD	n/a	wordpools/wordpool_categorized_EN.txt	FOOT	BodyParts	12	6	[0, 0, 0]	n/a	catFR1	8	R1501J
655.914	0.0	787275	PROB	0.0	n/a	n/a	n/a	-999	6	[4, 5, 4]	13	catFR1	8	R1501J
655.914	0.001	787276	WORD_OFF	n/a	n/a	FOOT	BodyParts	12	6	[0, 0, 0]	n/a	catFR1	8	R1501J
655.915	0.0	787276	ENCODING_END	n/a	n/a	n/a	n/a	-999	6	[0, 0, 0]	n/a	catFR1	8	R1501J
655.915	0.0	787276	DISTRACT_START	n/a	n/a	n/a	n/a	-999	6	[0, 0, 0]	n/a	catFR1	8	R1501J
655.915	8.867	787276	START	n/a	n/a	n/a	n/a	-999	6	[-999, -999, -999]	n/a	catFR1	8	R1501J
664.782	5.283	796142	PROB	5.283	n/a	n/a	n/a	-999	6	[6, 4, 3]	13	catFR1	8	R1501J
670.065	6.6	801425	PROB	6.6	n/a	n/a	n/a	-999	6	[4, 5, 3]	12	catFR1	8	R1501J
676.665	0.0	808025	STOP	n/a	n/a	n/a	n/a	-999	6	[-999, -999, -999]	n/a	catFR1	8	R1501J
676.665	2.1	808029	DISTRACT_END	n/a	n/a	n/a	n/a	-999	6	[0, 0, 0]	n/a	catFR1	8	R1501J
678.765	1.265	810127	REC_START	n/a	n/a	n/a	n/a	-999	6	[0, 0, 0]	n/a	catFR1	8	R1501J
680.03	1.233	811390	REC_WORD	1.233	n/a	FOOT	BodyParts	12	6	[0, 0, 0]	n/a	catFR1	8	R1501J
681.263	1.133	812623	REC_WORD	1.133	n/a	ARM	n/a	-999	6	[0, 0, 0]	n/a	catFR1	8	R1501J
682.396	1.321	813756	REC_WORD	1.321	n/a	CHAIR	Furniture	9	6	[0, 0, 0]	n/a	catFR1	8	R1501J
683.717	7.866	815077	REC_WORD	7.866	n/a	LEVEL	Tools	8	6	[0, 0, 0]	n/a	catFR1	8	R1501J
691.583	6.126	822942	REC_WORD	6.126	n/a	SANDER	Tools	3	6	[0, 0, 0]	n/a	catFR1	8	R1501J
697.709	2.996	829068	REC_WORD	2.996	n/a	GRATER	n/a	-999	6	[0, 0, 0]	n/a	catFR1	8	R1501J
700.705	8.283	832064	REC_WORD	8.283	n/a	PLIERS	Tools	7	6	[0, 0, 0]	n/a	catFR1	8	R1501J
708.988	1.328	840342	REC_END	n/a	n/a	n/a	n/a	-999	6	[0, 0, 0]	n/a	catFR1	8	R1501J
710.316	10.348	841678	COUNTDOWN_START	n/a	n/a	n/a	n/a	-999	7	[0, 0, 0]	n/a	catFR1	8	R1501J
720.664	0.0	852021	COUNTDOWN_END	n/a	n/a	n/a	n/a	-999	7	[0, 0, 0]	n/a	catFR1	8	R1501J
720.664	2.284	852021	ENCODING_START	n/a	n/a	n/a	n/a	-999	7	[0, 0, 0]	n/a	catFR1	8	R1501J
722.948	1.6	854309	WORD	n/a	wordpools/wordpool_categorized_EN.txt	WOOL	Fabric	1	7	[0, 0, 0]	n/a	catFR1	8	R1501J
724.548	1.001	855910	WORD_OFF	n/a	n/a	WOOL	Fabric	1	7	[0, 0, 0]	n/a	catFR1	8	R1501J
725.549	1.616	856902	WORD	n/a	wordpools/wordpool_categorized_EN.txt	VELVET	Fabric	2	7	[0, 0, 0]	n/a	catFR1	8	R1501J
727.165	0.95	858528	WORD_OFF	n/a	n/a	VELVET	Fabric	2	7	[0, 0, 0]	n/a	catFR1	8	R1501J
728.115	1.615	859468	WORD	n/a	wordpools/wordpool_categorized_EN.txt	MOTH	Insects	3	7	[0, 0, 0]	n/a	catFR1	8	R1501J
729.73	0.851	861081	WORD_OFF	n/a	n/a	MOTH	Insects	3	7	[0, 0, 0]	n/a	catFR1	8	R1501J
730.581	1.601	861941	WORD	n/a	wordpools/wordpool_categorized_EN.txt	FLY	Insects	4	7	[0, 0, 0]	n/a	catFR1	8	R1501J
732.182	0.984	863541	WORD_OFF	n/a	n/a	FLY	Insects	4	7	[0, 0, 0]	n/a	catFR1	8	R1501J
733.166	1.615	864520	WORD	n/a	wordpools/wordpool_categorized_EN.txt	GOOSE	Birds	5	7	[0, 0, 0]	n/a	catFR1	8	R1501J
734.781	0.785	866134	WORD_OFF	n/a	n/a	GOOSE	Birds	5	7	[0, 0, 0]	n/a	catFR1	8	R1501J
735.566	1.616	866927	WORD	n/a	wordpools/wordpool_categorized_EN.txt	CARDINAL	Birds	6	7	[0, 0, 0]	n/a	catFR1	8	R1501J
737.182	0.933	868541	WORD_OFF	n/a	n/a	CARDINAL	Birds	6	7	[0, 0, 0]	n/a	catFR1	8	R1501J
738.115	1.616	869467	WORD	n/a	wordpools/wordpool_categorized_EN.txt	ANT	Insects	7	7	[0, 0, 0]	n/a	catFR1	8	R1501J
739.731	0.801	871094	WORD_OFF	n/a	n/a	ANT	Insects	7	7	[0, 0, 0]	n/a	catFR1	8	R1501J
740.532	1.616	871887	WORD	n/a	wordpools/wordpool_categorized_EN.txt	SPIDER	Insects	8	7	[0, 0, 0]	n/a	catFR1	8	R1501J
742.148	0.917	873501	WORD_OFF	n/a	n/a	SPIDER	Insects	8	7	[0, 0, 0]	n/a	catFR1	8	R1501J
743.065	1.617	874427	WORD	n/a	wordpools/wordpool_categorized_EN.txt	SEAGULL	Birds	9	7	[0, 0, 0]	n/a	catFR1	8	R1501J
744.682	0.884	876041	WORD_OFF	n/a	n/a	SEAGULL	Birds	9	7	[0, 0, 0]	n/a	catFR1	8	R1501J
745.566	1.617	876927	WORD	n/a	wordpools/wordpool_categorized_EN.txt	DOVE	Birds	10	7	[0, 0, 0]	n/a	catFR1	8	R1501J
747.183	0.998	878540	WORD_OFF	n/a	n/a	DOVE	Birds	10	7	[0, 0, 0]	n/a	catFR1	8	R1501J
748.181	1.6	879532	WORD	n/a	wordpools/wordpool_categorized_EN.txt	FLEECE	Fabric	11	7	[0, 0, 0]	n/a	catFR1	8	R1501J
749.781	0.883	881133	WORD_OFF	n/a	n/a	FLEECE	Fabric	11	7	[0, 0, 0]	n/a	catFR1	8	R1501J
750.664	1.601	882019	WORD	n/a	wordpools/wordpool_categorized_EN.txt	LINEN	Fabric	12	7	[0, 0, 0]	n/a	catFR1	8	R1501J
752.265	0.001	883619	WORD_OFF	n/a	n/a	LINEN	Fabric	12	7	[0, 0, 0]	n/a	catFR1	8	R1501J
752.266	0.0	883619	ENCODING_END	n/a	n/a	n/a	n/a	-999	7	[0, 0, 0]	n/a	catFR1	8	R1501J
752.266	0.0	883619	DISTRACT_START	n/a	n/a	n/a	n/a	-999	7	[0, 0, 0]	n/a	catFR1	8	R1501J
752.265	0.001	883622	PROB	0.001	n/a	n/a	n/a	-999	7	[7, 7, 3]	17	catFR1	8	R1501J
752.266	2.949	883623	START	n/a	n/a	n/a	n/a	-999	7	[-999, -999, -999]	n/a	catFR1	8	R1501J
755.215	2.999	886572	PROB	2.999	n/a	n/a	n/a	-999	7	[1, 5, 8]	14	catFR1	8	R1501J
758.214	8.451	889571	PROB	8.451	n/a	n/a	n/a	-999	7	[4, 4, 5]	13	catFR1	8	R1501J
766.665	9.6	898021	PROB	9.6	n/a	n/a	n/a	-999	7	[6, 8, 6]	20	catFR1	8	R1501J
776.265	0.0	907621	STOP	n/a	n/a	n/a	n/a	-999	7	[-999, -999, -999]	n/a	catFR1	8	R1501J
776.265	2.215	907626	DISTRACT_END	n/a	n/a	n/a	n/a	-999	7	[0, 0, 0]	n/a	catFR1	8	R1501J
778.48	1.409	909829	REC_START	n/a	n/a	n/a	n/a	-999	7	[0, 0, 0]	n/a	catFR1	8	R1501J
779.889	1.111	911245	REC_WORD	1.111	n/a	WOOL	Fabric	1	7	[0, 0, 0]	n/a	catFR1	8	R1501J
781.0	3.36	912356	REC_WORD	3.36	n/a	FLEECE	Fabric	11	7	[0, 0, 0]	n/a	catFR1	8	R1501J
784.36	0.333	915715	REC_WORD	0.333	n/a	WOOL	Fabric	1	7	[0, 0, 0]	n/a	catFR1	8	R1501J
784.693	0.829	916048	REC_WORD	0.829	n/a	FLEECE	Fabric	11	7	[0, 0, 0]	n/a	catFR1	8	R1501J
785.522	1.62	916877	REC_WORD	1.62	n/a	LINEN	Fabric	12	7	[0, 0, 0]	n/a	catFR1	8	R1501J
787.142	21.559	918497	REC_WORD	21.559	n/a	CARDINAL	Birds	6	7	[0, 0, 0]	n/a	catFR1	8	R1501J
808.701	1.465	940058	REC_END	n/a	n/a	n/a	n/a	-999	7	[0, 0, 0]	n/a	catFR1	8	R1501J
810.166	10.348	941526	COUNTDOWN_START	n/a	n/a	n/a	n/a	-999	8	[0, 0, 0]	n/a	catFR1	8	R1501J
820.514	0.001	951869	COUNTDOWN_END	n/a	n/a	n/a	n/a	-999	8	[0, 0, 0]	n/a	catFR1	8	R1501J
820.515	2.383	951869	ENCODING_START	n/a	n/a	n/a	n/a	-999	8	[0, 0, 0]	n/a	catFR1	8	R1501J
822.898	1.601	954250	WORD	n/a	wordpools/wordpool_categorized_EN.txt	PEAR	Fruit	1	8	[0, 0, 0]	n/a	catFR1	8	R1501J
824.499	0.865	955850	WORD_OFF	n/a	n/a	PEAR	Fruit	1	8	[0, 0, 0]	n/a	catFR1	8	R1501J
825.364	1.6	956723	WORD	n/a	wordpools/wordpool_categorized_EN.txt	PLUM	Fruit	2	8	[0, 0, 0]	n/a	catFR1	8	R1501J
826.964	0.884	958324	WORD_OFF	n/a	n/a	PLUM	Fruit	2	8	[0, 0, 0]	n/a	catFR1	8	R1501J
827.848	1.617	959197	WORD	n/a	wordpools/wordpool_categorized_EN.txt	CRICKET	Insects	3	8	[0, 0, 0]	n/a	catFR1	8	R1501J
829.465	0.916	960823	WORD_OFF	n/a	n/a	CRICKET	Insects	3	8	[0, 0, 0]	n/a	catFR1	8	R1501J
830.381	1.601	961736	WORD	n/a	wordpools/wordpool_categorized_EN.txt	BEE	Insects	4	8	[0, 0, 0]	n/a	catFR1	8	R1501J
831.982	0.915	963336	WORD_OFF	n/a	n/a	BEE	Insects	4	8	[0, 0, 0]	n/a	catFR1	8	R1501J
832.897	1.601	964249	WORD	n/a	wordpools/wordpool_categorized_EN.txt	TRUCK	Vehicles	5	8	[0, 0, 0]	n/a	catFR1	8	R1501J
834.498	0.967	965850	WORD_OFF	n/a	n/a	TRUCK	Vehicles	5	8	[0, 0, 0]	n/a	catFR1	8	R1501J
835.465	1.616	966815	WORD	n/a	wordpools/wordpool_categorized_EN.txt	BIKE	Vehicles	6	8	[0, 0, 0]	n/a	catFR1	8	R1501J
837.081	0.785	968429	WORD_OFF	n/a	n/a	BIKE	Vehicles	6	8	[0, 0, 0]	n/a	catFR1	8	R1501J
837.866	1.616	969222	WORD	n/a	wordpools/wordpool_categorized_EN.txt	LEMON	Fruit	7	8	[0, 0, 0]	n/a	catFR1	8	R1501J
839.482	0.85	970836	WORD_OFF	n/a	n/a	LEMON	Fruit	7	8	[0, 0, 0]	n/a	catFR1	8	R1501J
840.332	1.6	971682	WORD	n/a	wordpools/wordpool_categorized_EN.txt	BLUEBERRY	Fruit	8	8	[0, 0, 0]	n/a	catFR1	8	R1501J
841.932	0.916	973283	WORD_OFF	n/a	n/a	BLUEBERRY	Fruit	8	8	[0, 0, 0]	n/a	catFR1	8	R1501J
842.848	1.617	974196	WORD	n/a	wordpools/wordpool_categorized_EN.txt	GNAT	Insects	9	8	[0, 0, 0]	n/a	catFR1	8	R1501J
844.465	0.984	975822	WORD_OFF	n/a	n/a	GNAT	Insects	9	8	[0, 0, 0]	n/a	catFR1	8	R1501J
845.449	1.616	976801	WORD	n/a	wordpools/wordpool_categorized_EN.txt	LADYBUG	Insects	10	8	[0, 0, 0]	n/a	catFR1	8	R1501J
847.065	0.949	978415	WORD_OFF	n/a	n/a	LADYBUG	Insects	10	8	[0, 0, 0]	n/a	catFR1	8	R1501J
848.014	1.601	979367	WORD	n/a	wordpools/wordpool_categorized_EN.txt	BUS	Vehicles	11	8	[0, 0, 0]	n/a	catFR1	8	R1501J
849.615	0.85	980968	WORD_OFF	n/a	n/a	BUS	Vehicles	11	8	[0, 0, 0]	n/a	catFR1	8	R1501J
850.465	1.616	981814	WORD	n/a	wordpools/wordpool_categorized_EN.txt	PLANE	Vehicles	12	8	[0, 0, 0]	n/a	catFR1	8	R1501J
852.081	0.001	983428	WORD_OFF	n/a	n/a	PLANE	Vehicles	12	8	[0, 0, 0]	n/a	catFR1	8	R1501J
852.082	0.0	983435	START	n/a	n/a	n/a	n/a	-999	8	[-999, -999, -999]	n/a	catFR1	8	R1501J
852.082	0.0	983435	PROB	0.0	n/a	n/a	n/a	-999	8	[1, 2, 4]	7	catFR1	8	R1501J
852.082	0.0	983441	ENCODING_END	n/a	n/a	n/a	n/a	-999	8	[0, 0, 0]	n/a	catFR1	8	R1501J
852.082	4.502	983441	DISTRACT_START	n/a	n/a	n/a	n/a	-999	8	[0, 0, 0]	n/a	catFR1	8	R1501J
856.584	3.449	987936	PROB	3.449	n/a	n/a	n/a	-999	8	[3, 5, 4]	12	catFR1	8	R1501J
860.033	5.081	991385	PROB	5.081	n/a	n/a	n/a	-999	8	[1, 2, 6]	9	catFR1	8	R1501J
865.114	12.402	996466	PROB	12.402	n/a	n/a	n/a	-999	8	[5, 1, 7]	13	catFR1	8	R1501J
877.516	0.0	1008863	DISTRACT_END	n/a	n/a	n/a	n/a	-999	8	[0, 0, 0]	n/a	catFR1	8	R1501J
877.516	2.199	1008868	STOP	n/a	n/a	n/a	n/a	-999	8	[-999, -999, -999]	n/a	catFR1	8	R1501J
879.715	1.038	1011066	REC_START	n/a	n/a	n/a	n/a	-999	8	[0, 0, 0]	n/a	catFR1	8	R1501J
880.753	1.294	1012104	REC_WORD	1.294	n/a	PEAR	Fruit	1	8	[0, 0, 0]	n/a	catFR1	8	R1501J
882.047	1.176	1013398	REC_WORD	1.176	n/a	PLUM	Fruit	2	8	[0, 0, 0]	n/a	catFR1	8	R1501J
883.223	1.548	1014574	REC_WORD	1.548	n/a	CRICKET	Insects	3	8	[0, 0, 0]	n/a	catFR1	8	R1501J
884.771	1.535	1016122	REC_WORD	1.535	n/a	BEE	Insects	4	8	[0, 0, 0]	n/a	catFR1	8	R1501J
886.306	2.241	1017657	REC_WORD	2.241	n/a	BLUEBERRY	Fruit	8	8	[0, 0, 0]	n/a	catFR1	8	R1501J
888.547	7.103	1019898	REC_WORD	7.103	n/a	BUS	Vehicles	11	8	[0, 0, 0]	n/a	catFR1	8	R1501J
895.65	14.341	1027001	REC_WORD	14.341	n/a	GNAT	Insects	9	8	[0, 0, 0]	n/a	catFR1	8	R1501J
909.991	1.408	1041347	REC_END	n/a	n/a	n/a	n/a	-999	8	[0, 0, 0]	n/a	catFR1	8	R1501J
911.399	10.351	1042749	COUNTDOWN_START	n/a	n/a	n/a	n/a	-999	9	[0, 0, 0]	n/a	catFR1	8	R1501J
921.75	0.0	1053093	COUNTDOWN_END	n/a	n/a	n/a	n/a	-999	9	[0, 0, 0]	n/a	catFR1	8	R1501J
921.75	2.015	1053106	ENCODING_START	n/a	n/a	n/a	n/a	-999	9	[0, 0, 0]	n/a	catFR1	8	R1501J
923.765	1.617	1055116	WORD	n/a	wordpools/wordpool_categorized_EN.txt	PEELER	KitchenTools	1	9	[0, 0, 0]	n/a	catFR1	8	R1501J
925.382	0.983	1056730	WORD_OFF	n/a	n/a	PEELER	KitchenTools	1	9	[0, 0, 0]	n/a	catFR1	8	R1501J
926.365	1.617	1057709	WORD	n/a	wordpools/wordpool_categorized_EN.txt	SPATULA	KitchenTools	2	9	[0, 0, 0]	n/a	catFR1	8	R1501J
927.982	0.783	1059336	WORD_OFF	n/a	n/a	SPATULA	KitchenTools	2	9	[0, 0, 0]	n/a	catFR1	8	R1501J
928.765	1.6	1060116	WORD	n/a	wordpools/wordpool_categorized_EN.txt	BEETLE	Insects	3	9	[0, 0, 0]	n/a	catFR1	8	R1501J
930.365	0.951	1061716	WORD_OFF	n/a	n/a	BEETLE	Insects	3	9	[0, 0, 0]	n/a	catFR1	8	R1501J
931.316	1.616	1062669	WORD	n/a	wordpools/wordpool_categorized_EN.txt	MOSQUITO	Insects	4	9	[0, 0, 0]	n/a	catFR1	8	R1501J
932.932	0.932	1064282	WORD_OFF	n/a	n/a	MOSQUITO	Insects	4	9	[0, 0, 0]	n/a	catFR1	8	R1501J
933.864	1.602	1065208	WORD	n/a	wordpools/wordpool_categorized_EN.txt	RUM	Beverages	5	9	[0, 0, 0]	n/a	catFR1	8	R1501J
935.466	0.85	1066809	WORD_OFF	n/a	n/a	RUM	Beverages	5	9	[0, 0, 0]	n/a	catFR1	8	R1501J
936.316	1.616	1067668	WORD	n/a	wordpools/wordpool_categorized_EN.txt	BEER	Beverages	6	9	[0, 0, 0]	n/a	catFR1	8	R1501J
937.932	0.833	1069282	WORD_OFF	n/a	n/a	BEER	Beverages	6	9	[0, 0, 0]	n/a	catFR1	8	R1501J
938.765	1.6	1070115	WORD	n/a	wordpools/wordpool_categorized_EN.txt	ROACH	Insects	7	9	[0, 0, 0]	n/a	catFR1	8	R1501J
940.365	0.799	1071716	WORD_OFF	n/a	n/a	ROACH	Insects	7	9	[0, 0, 0]	n/a	catFR1	8	R1501J
941.164	1.616	1072509	WORD	n/a	wordpools/wordpool_categorized_EN.txt	BUTTERFLY	Insects	8	9	[0, 0, 0]	n/a	catFR1	8	R1501J
942.78	0.985	1074123	WORD_OFF	n/a	n/a	BUTTERFLY	Insects	8	9	[0, 0, 0]	n/a	catFR1	8	R1501J
943.765	1.6	1075115	WORD	n/a	wordpools/wordpool_categorized_EN.txt	FORK	KitchenTools	9	9	[0, 0, 0]	n/a	catFR1	8	R1501J
945.365	0.9	1076715	WORD_OFF	n/a	n/a	FORK	KitchenTools	9	9	[0, 0, 0]	n/a	catFR1	8	R1501J
946.265	1.6	1077615	WORD	n/a	wordpools/wordpool_categorized_EN.txt	COLANDER	KitchenTools	10	9	[0, 0, 0]	n/a	catFR1	8	R1501J
947.865	0.799	1079215	WORD_OFF	n/a	n/a	COLANDER	KitchenTools	10	9	[0, 0, 0]	n/a	catFR1	8	R1501J
948.664	1.616	1080009	WORD	n/a	wordpools/wordpool_categorized_EN.txt	WINE	Beverages	11	9	[0, 0, 0]	n/a	catFR1	8	R1501J
950.28	0.884	1081622	WORD_OFF	n/a	n/a	WINE	Beverages	11	9	[0, 0, 0]	n/a	catFR1	8	R1501J
951.164	1.601	1082509	WORD	n/a	wordpools/wordpool_categorized_EN.txt	TEA	Beverages	12	9	[0, 0, 0]	n/a	catFR1	8	R1501J
952.765	0.001	1084109	WORD_OFF	n/a	n/a	TEA	Beverages	12	9	[0, 0, 0]	n/a	catFR1	8	R1501J
952.766	0.0	1084114	START	n/a	n/a	n/a	n/a	-999	9	[-999, -999, -999]	n/a	catFR1	8	R1501J
952.766	0.0	1084114	PROB	0.0	n/a	n/a	n/a	-999	9	[4, 3, 5]	12	catFR1	8	R1501J
952.766	0.0	1084122	ENCODING_END	n/a	n/a	n/a	n/a	-999	9	[0, 0, 0]	n/a	catFR1	8	R1501J
952.766	4.182	1084122	DISTRACT_START	n/a	n/a	n/a	n/a	-999	9	[0, 0, 0]	n/a	catFR1	8	R1501J
956.948	5.7	1088296	PROB	5.7	n/a	n/a	n/a	-999	9	[4, 8, 8]	20	catFR1	8	R1501J
962.648	3.717	1093996	PROB	3.717	n/a	n/a	n/a	-999	9	[1, 1, 6]	8	catFR1	8	R1501J
966.365	8.35	1097713	PROB	8.35	n/a	n/a	n/a	-999	9	[1, 7, 8]	16	catFR1	8	R1501J
974.715	0.0	1106062	STOP	n/a	n/a	n/a	n/a	-999	9	[-999, -999, -999]	n/a	catFR1	8	R1501J
974.715	2.133	1106065	DISTRACT_END	n/a	n/a	n/a	n/a	-999	9	[0, 0, 0]	n/a	catFR1	8	R1501J
976.848	0.756	1108190	REC_START	n/a	n/a	n/a	n/a	-999	9	[0, 0, 0]	n/a	catFR1	8	R1501J
977.604	0.897	1108951	REC_WORD	0.897	n/a	PEAR	Fruit	-999	9	[0, 0, 0]	n/a	catFR1	8	R1501J
978.501	2.464	1109848	REC_WORD	2.464	n/a	SPATULA	KitchenTools	2	9	[0, 0, 0]	n/a	catFR1	8	R1501J
980.965	1.023	1112312	REC_WORD	1.023	n/a	BEE	Insects	-999	9	[0, 0, 0]	n/a	catFR1	8	R1501J
981.988	1.54	1113335	REC_WORD	1.54	n/a	MOSQUITO	Insects	4	9	[0, 0, 0]	n/a	catFR1	8	R1501J
983.528	1.545	1114875	REC_WORD	1.545	n/a	RUM	Beverages	5	9	[0, 0, 0]	n/a	catFR1	8	R1501J
985.073	13.389	1116420	REC_WORD	13.389	n/a	BEER	Beverages	6	9	[0, 0, 0]	n/a	catFR1	8	R1501J
998.462	2.014	1129809	REC_WORD	2.014	n/a	BUTTERFLY	Insects	8	9	[0, 0, 0]	n/a	catFR1	8	R1501J
1000.476	6.584	1131822	REC_WORD	6.584	n/a	COLANDER	KitchenTools	10	9	[0, 0, 0]	n/a	catFR1	8	R1501J
1007.06	1.655	1138405	REC_END	n/a	n/a	n/a	n/a	-999	9	[0, 0, 0]	n/a	catFR1	8	R1501J
1008.715	10.349	1140058	COUNTDOWN_START	n/a	n/a	n/a	n/a	-999	10	[0, 0, 0]	n/a	catFR1	8	R1501J
1019.064	0.0	1150414	COUNTDOWN_END	n/a	n/a	n/a	n/a	-999	10	[0, 0, 0]	n/a	catFR1	8	R1501J
1019.064	2.134	1150414	ENCODING_START	n/a	n/a	n/a	n/a	-999	10	[0, 0, 0]	n/a	catFR1	8	R1501J
1021.198	1.6	1152544	WORD	n/a	wordpools/wordpool_categorized_EN.txt	FREEZER	Appliances	1	10	[0, 0, 0]	n/a	catFR1	8	R1501J
1022.798	0.85	1154144	WORD_OFF	n/a	n/a	FREEZER	Appliances	1	10	[0, 0, 0]	n/a	catFR1	8	R1501J
1023.648	1.617	1154991	WORD	n/a	wordpools/wordpool_categorized_EN.txt	STOVE	Appliances	2	10	[0, 0, 0]	n/a	catFR1	8	R1501J
1025.265	0.933	1156604	WORD_OFF	n/a	n/a	STOVE	Appliances	2	10	[0, 0, 0]	n/a	catFR1	8	R1501J
1026.198	1.6	1157543	WORD	n/a	wordpools/wordpool_categorized_EN.txt	LADLE	KitchenTools	3	10	[0, 0, 0]	n/a	catFR1	8	R1501J
1027.798	0.851	1159144	WORD_OFF	n/a	n/a	LADLE	KitchenTools	3	10	[0, 0, 0]	n/a	catFR1	8	R1501J
1028.649	1.616	1159990	WORD	n/a	wordpools/wordpool_categorized_EN.txt	GRATER	KitchenTools	4	10	[0, 0, 0]	n/a	catFR1	8	R1501J
1030.265	0.799	1161604	WORD_OFF	n/a	n/a	GRATER	KitchenTools	4	10	[0, 0, 0]	n/a	catFR1	8	R1501J
1031.064	1.601	1162411	WORD	n/a	wordpools/wordpool_categorized_EN.txt	MOTORCYCLE	Vehicles	5	10	[0, 0, 0]	n/a	catFR1	8	R1501J
1032.665	0.784	1164011	WORD_OFF	n/a	n/a	MOTORCYCLE	Vehicles	5	10	[0, 0, 0]	n/a	catFR1	8	R1501J
1033.449	1.616	1164792	WORD	n/a	wordpools/wordpool_categorized_EN.txt	BOAT	Vehicles	6	10	[0, 0, 0]	n/a	catFR1	8	R1501J
1035.065	0.818	1166405	WORD_OFF	n/a	n/a	BOAT	Vehicles	6	10	[0, 0, 0]	n/a	catFR1	8	R1501J
1035.883	1.615	1167225	WORD	n/a	wordpools/wordpool_categorized_EN.txt	IRON	Appliances	7	10	[0, 0, 0]	n/a	catFR1	8	R1501J
1037.498	0.9	1168839	WORD_OFF	n/a	n/a	IRON	Appliances	7	10	[0, 0, 0]	n/a	catFR1	8	R1501J
1038.398	1.601	1169738	WORD	n/a	wordpools/wordpool_categorized_EN.txt	DRYER	Appliances	8	10	[0, 0, 0]	n/a	catFR1	8	R1501J
1039.999	0.799	1171339	WORD_OFF	n/a	n/a	DRYER	Appliances	8	10	[0, 0, 0]	n/a	catFR1	8	R1501J
1040.798	1.6	1172146	WORD	n/a	wordpools/wordpool_categorized_EN.txt	KNIFE	KitchenTools	9	10	[0, 0, 0]	n/a	catFR1	8	R1501J
1042.398	0.884	1173746	WORD_OFF	n/a	n/a	KNIFE	KitchenTools	9	10	[0, 0, 0]	n/a	catFR1	8	R1501J
1043.282	1.616	1174632	WORD	n/a	wordpools/wordpool_categorized_EN.txt	SPOON	KitchenTools	10	10	[0, 0, 0]	n/a	catFR1	8	R1501J
1044.898	0.85	1176246	WORD_OFF	n/a	n/a	SPOON	KitchenTools	10	10	[0, 0, 0]	n/a	catFR1	8	R1501J
1045.748	1.617	1177092	WORD	n/a	wordpools/wordpool_categorized_EN.txt	SCOOTER	Vehicles	11	10	[0, 0, 0]	n/a	catFR1	8	R1501J
1047.365	0.867	1178706	WORD_OFF	n/a	n/a	SCOOTER	Vehicles	11	10	[0, 0, 0]	n/a	catFR1	8	R1501J
1048.232	1.616	1179579	WORD	n/a	wordpools/wordpool_categorized_EN.txt	CAR	Vehicles	12	10	[0, 0, 0]	n/a	catFR1	8	R1501J
1049.848	0.0	1181192	PROB	0.0	n/a	n/a	n/a	-999	10	[6, 7, 4]	17	catFR1	8	R1501J
1049.848	0.001	1181193	WORD_OFF	n/a	n/a	CAR	Vehicles	12	10	[0, 0, 0]	n/a	catFR1	8	R1501J
1049.849	0.0	1181193	ENCODING_END	n/a	n/a	n/a	n/a	-999	10	[0, 0, 0]	n/a	catFR1	8	R1501J
1049.849	0.0	1181193	DISTRACT_START	n/a	n/a	n/a	n/a	-999	10	[0, 0, 0]	n/a	catFR1	8	R1501J
1049.849	4.815	1181193	START	n/a	n/a	n/a	n/a	-999	10	[-999, -999, -999]	n/a	catFR1	8	R1501J
1054.664	9.184	1186008	PROB	9.184	n/a	n/a	n/a	-999	10	[8, 6, 6]	20	catFR1	8	R1501J
1063.848	4.935	1195192	PROB	4.935	n/a	n/a	n/a	-999	10	[6, 6, 7]	19	catFR1	8	R1501J
1068.783	7.465	1200127	PROB	7.465	n/a	n/a	n/a	-999	10	[5, 1, 6]	12	catFR1	8	R1501J
1076.248	0.0	1207591	STOP	n/a	n/a	n/a	n/a	-999	10	[-999, -999, -999]	n/a	catFR1	8	R1501J
1076.248	2.05	1207593	DISTRACT_END	n/a	n/a	n/a	n/a	-999	10	[0, 0, 0]	n/a	catFR1	8	R1501J
1078.298	0.375	1209638	REC_START	n/a	n/a	n/a	n/a	-999	10	[0, 0, 0]	n/a	catFR1	8	R1501J
1078.673	0.934	1210016	REC_WORD	0.934	n/a	FREEZER	Appliances	1	10	[0, 0, 0]	n/a	catFR1	8	R1501J
1079.607	1.365	1210950	REC_WORD	1.365	n/a	STOVE	Appliances	2	10	[0, 0, 0]	n/a	catFR1	8	R1501J
1080.972	1.331	1212315	REC_WORD	1.331	n/a	LADLE	KitchenTools	3	10	[0, 0, 0]	n/a	catFR1	8	R1501J
1082.303	11.505	1213646	REC_WORD	11.505	n/a	GRATER	KitchenTools	4	10	[0, 0, 0]	n/a	catFR1	8	R1501J
1093.808	14.707	1225151	REC_WORD	14.707	n/a	ICE	n/a	-999	10	[0, 0, 0]	n/a	catFR1	8	R1501J
1108.515	1.385	1239853	REC_END	n/a	n/a	n/a	n/a	-999	10	[0, 0, 0]	n/a	catFR1	8	R1501J
1109.9	10.349	1241242	COUNTDOWN_START	n/a	n/a	n/a	n/a	-999	11	[0, 0, 0]	n/a	catFR1	8	R1501J
1120.249	0.0	1251585	COUNTDOWN_END	n/a	n/a	n/a	n/a	-999	11	[0, 0, 0]	n/a	catFR1	8	R1501J
1120.249	2.217	1251598	ENCODING_START	n/a	n/a	n/a	n/a	-999	11	[0, 0, 0]	n/a	catFR1	8	R1501J
1122.466	1.617	1253807	WORD	n/a	wordpools/wordpool_categorized_EN.txt	REFRIGERATOR	Appliances	1	11	[0, 0, 0]	n/a	catFR1	8	R1501J
1124.083	0.765	1255421	WORD_OFF	n/a	n/a	REFRIGERATOR	Appliances	1	11	[0, 0, 0]	n/a	catFR1	8	R1501J
1124.848	1.6	1256188	WORD	n/a	wordpools/wordpool_categorized_EN.txt	WASHER	Appliances	2	11	[0, 0, 0]	n/a	catFR1	8	R1501J
1126.448	1.0	1257788	WORD_OFF	n/a	n/a	WASHER	Appliances	2	11	[0, 0, 0]	n/a	catFR1	8	R1501J
1127.448	1.6	1258794	WORD	n/a	wordpools/wordpool_categorized_EN.txt	JEEP	Vehicles	3	11	[0, 0, 0]	n/a	catFR1	8	R1501J
1129.048	0.834	1260394	WORD_OFF	n/a	n/a	JEEP	Vehicles	3	11	[0, 0, 0]	n/a	catFR1	8	R1501J
1129.882	1.615	1261227	WORD	n/a	wordpools/wordpool_categorized_EN.txt	MOPED	Vehicles	4	11	[0, 0, 0]	n/a	catFR1	8	R1501J
1131.497	0.769	1262841	WORD_OFF	n/a	n/a	MOPED	Vehicles	4	11	[0, 0, 0]	n/a	catFR1	8	R1501J
1132.266	1.615	1263608	WORD	n/a	wordpools/wordpool_categorized_EN.txt	HAND	BodyParts	5	11	[0, 0, 0]	n/a	catFR1	8	R1501J
1133.881	0.801	1265222	WORD_OFF	n/a	n/a	HAND	BodyParts	5	11	[0, 0, 0]	n/a	catFR1	8	R1501J
1134.682	1.615	1266028	WORD	n/a	wordpools/wordpool_categorized_EN.txt	ARM	BodyParts	6	11	[0, 0, 0]	n/a	catFR1	8	R1501J
1136.297	0.901	1267642	WORD_OFF	n/a	n/a	ARM	BodyParts	6	11	[0, 0, 0]	n/a	catFR1	8	R1501J
1137.198	1.617	1268542	WORD	n/a	wordpools/wordpool_categorized_EN.txt	DISHWASHER	Appliances	7	11	[0, 0, 0]	n/a	catFR1	8	R1501J
1138.815	0.932	1270155	WORD_OFF	n/a	n/a	DISHWASHER	Appliances	7	11	[0, 0, 0]	n/a	catFR1	8	R1501J
1139.747	1.601	1271094	WORD	n/a	wordpools/wordpool_categorized_EN.txt	VACUUM	Appliances	8	11	[0, 0, 0]	n/a	catFR1	8	R1501J
1141.348	0.916	1272681	WORD_OFF	n/a	n/a	VACUUM	Appliances	8	11	[0, 0, 0]	n/a	catFR1	8	R1501J
1142.264	1.601	1273607	WORD	n/a	wordpools/wordpool_categorized_EN.txt	ELBOW	BodyParts	9	11	[0, 0, 0]	n/a	catFR1	8	R1501J
1143.865	0.95	1275208	WORD_OFF	n/a	n/a	ELBOW	BodyParts	9	11	[0, 0, 0]	n/a	catFR1	8	R1501J
1144.815	1.616	1276160	WORD	n/a	wordpools/wordpool_categorized_EN.txt	TOE	BodyParts	10	11	[0, 0, 0]	n/a	catFR1	8	R1501J
1146.431	0.767	1277774	WORD_OFF	n/a	n/a	TOE	BodyParts	10	11	[0, 0, 0]	n/a	catFR1	8	R1501J
1147.198	1.6	1278541	WORD	n/a	wordpools/wordpool_categorized_EN.txt	VAN	Vehicles	11	11	[0, 0, 0]	n/a	catFR1	8	R1501J
1148.798	0.95	1280141	WORD_OFF	n/a	n/a	VAN	Vehicles	11	11	[0, 0, 0]	n/a	catFR1	8	R1501J
1149.748	1.617	1281094	WORD	n/a	wordpools/wordpool_categorized_EN.txt	TRAIN	Vehicles	12	11	[0, 0, 0]	n/a	catFR1	8	R1501J
1151.365	0.0	1282705	PROB	0.0	n/a	n/a	n/a	-999	11	[4, 4, 2]	10	catFR1	8	R1501J
1151.365	0.002	1282707	WORD_OFF	n/a	n/a	TRAIN	Vehicles	12	11	[0, 0, 0]	n/a	catFR1	8	R1501J
1151.367	0.0	1282707	ENCODING_END	n/a	n/a	n/a	n/a	-999	11	[0, 0, 0]	n/a	catFR1	8	R1501J
1151.367	0.0	1282707	DISTRACT_START	n/a	n/a	n/a	n/a	-999	11	[0, 0, 0]	n/a	catFR1	8	R1501J
1151.367	3.681	1282707	START	n/a	n/a	n/a	n/a	-999	11	[-999, -999, -999]	n/a	catFR1	8	R1501J
1155.048	6.118	1286388	PROB	6.118	n/a	n/a	n/a	-999	11	[1, 5, 6]	12	catFR1	8	R1501J
1161.166	4.315	1292506	PROB	4.315	n/a	n/a	n/a	-999	11	[6, 2, 5]	13	catFR1	8	R1501J
1165.481	3.15	1296821	PROB	3.15	n/a	n/a	n/a	-999	11	[8, 8, 8]	24	catFR1	8	R1501J
1168.631	3.417	1299970	PROB	3.417	n/a	n/a	n/a	-999	11	[1, 1, 6]	8	catFR1	8	R1501J
1172.048	0.0	1303381	DISTRACT_END	n/a	n/a	n/a	n/a	-999	11	[0, 0, 0]	n/a	catFR1	8	R1501J
1172.048	2.032	1303387	STOP	n/a	n/a	n/a	n/a	-999	11	[-999, -999, -999]	n/a	catFR1	8	R1501J
1174.08	0.248	1305425	REC_START	n/a	n/a	n/a	n/a	-999	11	[0, 0, 0]	n/a	catFR1	8	R1501J
1174.328	1.308	1305667	REC_WORD	1.308	n/a	REFRIGERATOR	Appliances	1	11	[0, 0, 0]	n/a	catFR1	8	R1501J
1175.636	2.623	1306975	REC_WORD	2.623	n/a	WASHER	Appliances	2	11	[0, 0, 0]	n/a	catFR1	8	R1501J
1178.259	1.283	1309598	REC_WORD	1.283	n/a	JEEP	Vehicles	3	11	[0, 0, 0]	n/a	catFR1	8	R1501J
1179.542	1.869	1310881	REC_WORD	1.869	n/a	DISHWASHER	Appliances	7	11	[0, 0, 0]	n/a	catFR1	8	R1501J
1181.411	2.231	1312750	REC_WORD	2.231	n/a	MOPED	Vehicles	4	11	[0, 0, 0]	n/a	catFR1	8	R1501J
1183.642	2.528	1314981	REC_WORD	2.528	n/a	MOTORCYCLE	Vehicles	-999	11	[0, 0, 0]	n/a	catFR1	8	R1501J
1186.17	5.036	1317509	REC_WORD_VV	5.036	n/a	<>	n/a	-999	11	[0, 0, 0]	n/a	catFR1	8	R1501J
1191.206	0.904	1322544	REC_WORD	0.904	n/a	ARM	BodyParts	6	11	[0, 0, 0]	n/a	catFR1	8	R1501J
1192.11	2.536	1323448	REC_WORD	2.536	n/a	TOE	BodyParts	10	11	[0, 0, 0]	n/a	catFR1	8	R1501J
1194.646	9.642	1325984	REC_WORD	9.642	n/a	FOOT	BodyParts	-999	11	[0, 0, 0]	n/a	catFR1	8	R1501J
1204.288	1.593	1335627	REC_END	n/a	n/a	n/a	n/a	-999	11	[0, 0, 0]	n/a	catFR1	8	R1501J
1205.881	10.351	1337214	COUNTDOWN_START	n/a	n/a	n/a	n/a	-999	12	[0, 0, 0]	n/a	catFR1	8	R1501J
1216.232	0.0	1347571	COUNTDOWN_END	n/a	n/a	n/a	n/a	-999	12	[0, 0, 0]	n/a	catFR1	8	R1501J
1216.232	2.032	1347571	ENCODING_START	n/a	n/a	n/a	n/a	-999	12	[0, 0, 0]	n/a	catFR1	8	R1501J
1218.264	1.601	1349594	WORD	n/a	wordpools/wordpool_categorized_EN.txt	BLENDER	Appliances	1	12	[0, 0, 0]	n/a	catFR1	8	R1501J
1219.865	0.899	1351208	WORD_OFF	n/a	n/a	BLENDER	Appliances	1	12	[0, 0, 0]	n/a	catFR1	8	R1501J
1220.764	1.601	1352108	WORD	n/a	wordpools/wordpool_categorized_EN.txt	MIXER	Appliances	2	12	[0, 0, 0]	n/a	catFR1	8	R1501J
1222.365	0.85	1353708	WORD_OFF	n/a	n/a	MIXER	Appliances	2	12	[0, 0, 0]	n/a	catFR1	8	R1501J
1223.215	1.6	1354554	WORD	n/a	wordpools/wordpool_categorized_EN.txt	EAR	BodyParts	3	12	[0, 0, 0]	n/a	catFR1	8	R1501J
1224.815	0.833	1356155	WORD_OFF	n/a	n/a	EAR	BodyParts	3	12	[0, 0, 0]	n/a	catFR1	8	R1501J
1225.648	1.617	1356988	WORD	n/a	wordpools/wordpool_categorized_EN.txt	KNEE	BodyParts	4	12	[0, 0, 0]	n/a	catFR1	8	R1501J
1227.265	0.883	1358602	WORD_OFF	n/a	n/a	KNEE	BodyParts	4	12	[0, 0, 0]	n/a	catFR1	8	R1501J
1228.148	1.617	1359488	WORD	n/a	wordpools/wordpool_categorized_EN.txt	LEMONADE	Beverages	5	12	[0, 0, 0]	n/a	catFR1	8	R1501J
1229.765	0.782	1361102	WORD_OFF	n/a	n/a	LEMONADE	Beverages	5	12	[0, 0, 0]	n/a	catFR1	8	R1501J
1230.547	1.601	1361882	WORD	n/a	wordpools/wordpool_categorized_EN.txt	WATER	Beverages	6	12	[0, 0, 0]	n/a	catFR1	8	R1501J
1232.148	0.966	1363482	WORD_OFF	n/a	n/a	WATER	Beverages	6	12	[0, 0, 0]	n/a	catFR1	8	R1501J
1233.114	1.6	1364448	WORD	n/a	wordpools/wordpool_categorized_EN.txt	TOASTER	Appliances	7	12	[0, 0, 0]	n/a	catFR1	8	R1501J
1234.714	0.984	1366048	WORD_OFF	n/a	n/a	TOASTER	Appliances	7	12	[0, 0, 0]	n/a	catFR1	8	R1501J
1235.698	1.6	1367040	WORD	n/a	wordpools/wordpool_categorized_EN.txt	OVEN	Appliances	8	12	[0, 0, 0]	n/a	catFR1	8	R1501J
1237.298	0.767	1368641	WORD_OFF	n/a	n/a	OVEN	Appliances	8	12	[0, 0, 0]	n/a	catFR1	8	R1501J
1238.065	1.6	1369395	WORD	n/a	wordpools/wordpool_categorized_EN.txt	LEG	BodyParts	9	12	[0, 0, 0]	n/a	catFR1	8	R1501J
1239.665	0.999	1371008	WORD_OFF	n/a	n/a	LEG	BodyParts	9	12	[0, 0, 0]	n/a	catFR1	8	R1501J
1240.664	1.617	1372000	WORD	n/a	wordpools/wordpool_categorized_EN.txt	HEAD	BodyParts	10	12	[0, 0, 0]	n/a	catFR1	8	R1501J
1242.281	0.917	1373614	WORD_OFF	n/a	n/a	HEAD	BodyParts	10	12	[0, 0, 0]	n/a	catFR1	8	R1501J
1243.198	1.616	1374540	WORD	n/a	wordpools/wordpool_categorized_EN.txt	COFFEE	Beverages	11	12	[0, 0, 0]	n/a	catFR1	8	R1501J
1244.814	0.819	1376154	WORD_OFF	n/a	n/a	COFFEE	Beverages	11	12	[0, 0, 0]	n/a	catFR1	8	R1501J
1245.633	1.615	1376974	WORD	n/a	wordpools/wordpool_categorized_EN.txt	COLA	Beverages	12	12	[0, 0, 0]	n/a	catFR1	8	R1501J
1247.248	0.001	1378584	PROB	0.001	n/a	n/a	n/a	-999	12	[3, 1, 1]	5	catFR1	8	R1501J
1247.249	0.0	1378585	START	n/a	n/a	n/a	n/a	-999	12	[-999, -999, -999]	n/a	catFR1	8	R1501J
1247.247	0.001	1378587	WORD_OFF	n/a	n/a	COLA	Beverages	12	12	[0, 0, 0]	n/a	catFR1	8	R1501J
1247.248	0.001	1378587	ENCODING_END	n/a	n/a	n/a	n/a	-999	12	[0, 0, 0]	n/a	catFR1	8	R1501J
1247.249	2.882	1378587	DISTRACT_START	n/a	n/a	n/a	n/a	-999	12	[0, 0, 0]	n/a	catFR1	8	R1501J
1250.131	3.718	1381467	PROB	3.718	n/a	n/a	n/a	-999	12	[2, 5, 8]	15	catFR1	8	R1501J
1253.849	2.766	1385185	PROB	2.766	n/a	n/a	n/a	-999	12	[1, 6, 4]	11	catFR1	8	R1501J
1256.615	3.033	1387951	PROB	3.033	n/a	n/a	n/a	-999	12	[1, 7, 1]	9	catFR1	8	R1501J
1259.648	3.301	1390984	PROB	3.301	n/a	n/a	n/a	-999	12	[5, 5, 4]	14	catFR1	8	R1501J
1262.949	6.532	1394284	PROB	6.532	n/a	n/a	n/a	-999	12	[7, 6, 3]	16	catFR1	8	R1501J
1269.481	0.0	1400816	STOP	n/a	n/a	n/a	n/a	-999	12	[-999, -999, -999]	n/a	catFR1	8	R1501J
1269.481	2.283	1400821	DISTRACT_END	n/a	n/a	n/a	n/a	-999	12	[0, 0, 0]	n/a	catFR1	8	R1501J
1271.764	0.621	1403104	REC_START	n/a	n/a	n/a	n/a	-999	12	[0, 0, 0]	n/a	catFR1	8	R1501J
1272.385	2.721	1403720	REC_WORD	2.721	n/a	BLENDER	Appliances	1	12	[0, 0, 0]	n/a	catFR1	8	R1501J
1275.106	3.301	1406441	REC_WORD	3.301	n/a	KNEE	BodyParts	4	12	[0, 0, 0]	n/a	catFR1	8	R1501J
1278.407	2.093	1409742	REC_WORD_VV	2.093	n/a	<>	n/a	-999	12	[0, 0, 0]	n/a	catFR1	8	R1501J
1280.5	7.211	1411835	REC_WORD	7.211	n/a	LEMONADE	Beverages	5	12	[0, 0, 0]	n/a	catFR1	8	R1501J
1287.711	4.821	1419045	REC_WORD	4.821	n/a	COLA	Beverages	12	12	[0, 0, 0]	n/a	catFR1	8	R1501J
1292.532	1.597	1423866	REC_WORD	1.597	n/a	WASHER	Appliances	-999	12	[0, 0, 0]	n/a	catFR1	8	R1501J
1294.129	7.861	1425463	REC_WORD_VV	7.861	n/a	<>	n/a	-999	12	[0, 0, 0]	n/a	catFR1	8	R1501J
1301.99	0.0	1433319	REC_END	n/a	n/a	n/a	n/a	-999	12	[0, 0, 0]	n/a	catFR1	8	R1501J
