onset	duration	sample	trial_type	response_time	stim_file	item_name	category	serialpos	list	test	answer	experiment	session	subject
0.0	2.95	127766	INSTRUCT_START	n/a	n/a	n/a	n/a	-999	-999	[0, 0, 0]	n/a	catFR1	6	R1530J
2.95	113.597	130716	INSTRUCT_END	n/a	n/a	n/a	n/a	-999	-999	[0, 0, 0]	n/a	catFR1	6	R1530J
116.547	10.368	244299	COUNTDOWN_START	n/a	n/a	n/a	n/a	-999	-999	[0, 0, 0]	n/a	catFR1	6	R1530J
126.915	0.0	254675	COUNTDOWN_END	n/a	n/a	n/a	n/a	-999	-999	[0, 0, 0]	n/a	catFR1	6	R1530J
126.915	2.184	254675	ENCODING_START	n/a	n/a	n/a	n/a	-999	-1	[0, 0, 0]	n/a	catFR1	6	R1530J
129.099	1.615	256860	WORD	n/a	n/a	BOAT	Vehicles	1	-1	[0, 0, 0]	n/a	catFR1	6	R1530J
130.714	0.817	258469	WORD_OFF	n/a	n/a	BOAT	Vehicles	1	-1	[0, 0, 0]	n/a	catFR1	6	R1530J
131.531	1.6	259287	WORD	n/a	n/a	TRUCK	Vehicles	2	-1	[0, 0, 0]	n/a	catFR1	6	R1530J
133.131	0.767	260882	WORD_OFF	n/a	n/a	TRUCK	Vehicles	2	-1	[0, 0, 0]	n/a	catFR1	6	R1530J
133.898	1.617	261659	WORD	n/a	n/a	BEER	Beverages	3	-1	[0, 0, 0]	n/a	catFR1	6	R1530J
135.515	0.9	263268	WORD_OFF	n/a	n/a	BEER	Beverages	3	-1	[0, 0, 0]	n/a	catFR1	6	R1530J
136.415	1.616	264166	WORD	n/a	n/a	CIDER	Beverages	4	-1	[0, 0, 0]	n/a	catFR1	6	R1530J
138.031	0.933	265788	WORD_OFF	n/a	n/a	CIDER	Beverages	4	-1	[0, 0, 0]	n/a	catFR1	6	R1530J
138.964	1.601	266713	WORD	n/a	n/a	ANT	Insects	5	-1	[0, 0, 0]	n/a	catFR1	6	R1530J
140.565	0.95	268322	WORD_OFF	n/a	n/a	ANT	Insects	5	-1	[0, 0, 0]	n/a	catFR1	6	R1530J
141.515	1.617	269274	WORD	n/a	n/a	FLY	Insects	6	-1	[0, 0, 0]	n/a	catFR1	6	R1530J
143.132	0.782	270882	WORD_OFF	n/a	n/a	FLY	Insects	6	-1	[0, 0, 0]	n/a	catFR1	6	R1530J
143.914	1.617	271673	WORD	n/a	n/a	TRAIN	Vehicles	7	-1	[0, 0, 0]	n/a	catFR1	6	R1530J
145.531	0.867	273282	WORD_OFF	n/a	n/a	TRAIN	Vehicles	7	-1	[0, 0, 0]	n/a	catFR1	6	R1530J
146.398	1.6	274153	WORD	n/a	n/a	BUS	Vehicles	8	-1	[0, 0, 0]	n/a	catFR1	6	R1530J
147.998	0.85	275748	WORD_OFF	n/a	n/a	BUS	Vehicles	8	-1	[0, 0, 0]	n/a	catFR1	6	R1530J
148.848	1.6	276606	WORD	n/a	n/a	MILK	Beverages	9	-1	[0, 0, 0]	n/a	catFR1	6	R1530J
150.448	0.85	278202	WORD_OFF	n/a	n/a	MILK	Beverages	9	-1	[0, 0, 0]	n/a	catFR1	6	R1530J
151.298	1.617	279060	WORD	n/a	n/a	LEMONADE	Beverages	10	-1	[0, 0, 0]	n/a	catFR1	6	R1530J
152.915	0.817	280668	WORD_OFF	n/a	n/a	LEMONADE	Beverages	10	-1	[0, 0, 0]	n/a	catFR1	6	R1530J
153.732	1.616	281486	WORD	n/a	n/a	BUTTERFLY	Insects	11	-1	[0, 0, 0]	n/a	catFR1	6	R1530J
155.348	0.784	283108	WORD_OFF	n/a	n/a	BUTTERFLY	Insects	11	-1	[0, 0, 0]	n/a	catFR1	6	R1530J
156.132	1.617	283886	WORD	n/a	n/a	CRICKET	Insects	12	-1	[0, 0, 0]	n/a	catFR1	6	R1530J
157.749	0.0	285505	START	n/a	n/a	n/a	n/a	-999	-1	[-999, -999, -999]	n/a	catFR1	6	R1530J
157.749	0.0	285505	PROB	0.0	n/a	n/a	n/a	-999	-1	[5, 1, 7]	13	catFR1	6	R1530J
157.748	0.001	285508	WORD_OFF	n/a	n/a	CRICKET	Insects	12	-1	[0, 0, 0]	n/a	catFR1	6	R1530J
157.749	0.0	285508	ENCODING_END	n/a	n/a	n/a	n/a	-999	-1	[0, 0, 0]	n/a	catFR1	6	R1530J
157.749	5.732	285508	DISTRACT_START	n/a	n/a	n/a	n/a	-999	-1	[0, 0, 0]	n/a	catFR1	6	R1530J
163.481	3.283	291236	PROB	3.283	n/a	n/a	n/a	-999	-1	[7, 2, 8]	17	catFR1	6	R1530J
166.764	4.301	294519	PROB	4.301	n/a	n/a	n/a	-999	-1	[3, 5, 2]	10	catFR1	6	R1530J
171.065	3.299	298820	PROB	3.299	n/a	n/a	n/a	-999	-1	[2, 2, 2]	6	catFR1	6	R1530J
174.364	4.901	302119	PROB	4.901	n/a	n/a	n/a	-999	-1	[2, 1, 7]	10	catFR1	6	R1530J
179.265	0.0	307019	STOP	n/a	n/a	n/a	n/a	-999	-1	[-999, -999, -999]	n/a	catFR1	6	R1530J
179.265	1.848	307023	DISTRACT_END	n/a	n/a	n/a	n/a	-999	-1	[0, 0, 0]	n/a	catFR1	6	R1530J
181.113	0.797	308873	REC_START	n/a	n/a	n/a	n/a	-999	-1	[0, 0, 0]	n/a	catFR1	6	R1530J
181.91	0.811	309664	REC_WORD	0.811	n/a	BUS	Vehicles	8	-1	[0, 0, 0]	n/a	catFR1	6	R1530J
182.721	0.721	310475	REC_WORD	0.721	n/a	TRUCK	Vehicles	2	-1	[0, 0, 0]	n/a	catFR1	6	R1530J
183.442	0.827	311196	REC_WORD	0.827	n/a	TRAIN	Vehicles	7	-1	[0, 0, 0]	n/a	catFR1	6	R1530J
184.269	1.184	312023	REC_WORD	1.184	n/a	MILK	Beverages	9	-1	[0, 0, 0]	n/a	catFR1	6	R1530J
185.453	1.819	313207	REC_WORD	1.819	n/a	LEMONADE	Beverages	10	-1	[0, 0, 0]	n/a	catFR1	6	R1530J
187.272	1.042	315026	REC_WORD	1.042	n/a	BUTTERFLY	Insects	11	-1	[0, 0, 0]	n/a	catFR1	6	R1530J
188.314	4.307	316068	REC_WORD	4.307	n/a	CIDER	Beverages	4	-1	[0, 0, 0]	n/a	catFR1	6	R1530J
192.621	0.34	320375	REC_WORD	0.34	n/a	BUS	Vehicles	8	-1	[0, 0, 0]	n/a	catFR1	6	R1530J
192.961	0.262	320715	REC_WORD	0.262	n/a	TRUCK	Vehicles	2	-1	[0, 0, 0]	n/a	catFR1	6	R1530J
193.223	0.425	320977	REC_WORD	0.425	n/a	TRAIN	Vehicles	7	-1	[0, 0, 0]	n/a	catFR1	6	R1530J
193.648	0.595	321402	REC_WORD	0.595	n/a	LEMONADE	Beverages	10	-1	[0, 0, 0]	n/a	catFR1	6	R1530J
194.243	2.286	321997	REC_WORD	2.286	n/a	CIDER	Beverages	4	-1	[0, 0, 0]	n/a	catFR1	6	R1530J
196.529	0.915	324283	REC_WORD	0.915	n/a	WATER	n/a	-999	-1	[0, 0, 0]	n/a	catFR1	6	R1530J
197.444	1.515	325198	REC_WORD	1.515	n/a	TRUCK	Vehicles	2	-1	[0, 0, 0]	n/a	catFR1	6	R1530J
198.959	0.418	326712	REC_WORD	0.418	n/a	TRUCK	Vehicles	2	-1	[0, 0, 0]	n/a	catFR1	6	R1530J
199.377	0.353	327130	REC_WORD	0.353	n/a	BUS	Vehicles	8	-1	[0, 0, 0]	n/a	catFR1	6	R1530J
199.73	4.754	327483	REC_WORD	4.754	n/a	BOAT	Vehicles	1	-1	[0, 0, 0]	n/a	catFR1	6	R1530J
204.484	0.373	332237	REC_WORD	0.373	n/a	TRUCK	Vehicles	2	-1	[0, 0, 0]	n/a	catFR1	6	R1530J
204.857	0.328	332610	REC_WORD	0.328	n/a	BUS	Vehicles	8	-1	[0, 0, 0]	n/a	catFR1	6	R1530J
205.185	2.166	332938	REC_WORD	2.166	n/a	BOAT	Vehicles	1	-1	[0, 0, 0]	n/a	catFR1	6	R1530J
207.351	0.411	335104	REC_WORD	0.411	n/a	LEMONADE	Beverages	10	-1	[0, 0, 0]	n/a	catFR1	6	R1530J
207.762	2.201	335515	REC_WORD	2.201	n/a	CIDER	Beverages	4	-1	[0, 0, 0]	n/a	catFR1	6	R1530J
209.963	1.331	337716	REC_WORD	1.331	n/a	MILK	Beverages	9	-1	[0, 0, 0]	n/a	catFR1	6	R1530J
211.294	11.038	339049	REC_END	n/a	n/a	n/a	n/a	-999	-1	[0, 0, 0]	n/a	catFR1	6	R1530J
222.332	10.35	350081	COUNTDOWN_START	n/a	n/a	n/a	n/a	-999	1	[0, 0, 0]	n/a	catFR1	6	R1530J
232.682	0.0	360430	COUNTDOWN_END	n/a	n/a	n/a	n/a	-999	1	[0, 0, 0]	n/a	catFR1	6	R1530J
232.682	2.016	360430	ENCODING_START	n/a	n/a	n/a	n/a	-999	1	[0, 0, 0]	n/a	catFR1	6	R1530J
234.698	1.617	362455	WORD	n/a	wordpools/wordpool_categorized_EN.txt	SHRIMP	OceanAnimals	1	1	[0, 0, 0]	n/a	catFR1	6	R1530J
236.315	0.784	364063	WORD_OFF	n/a	n/a	SHRIMP	OceanAnimals	1	1	[0, 0, 0]	n/a	catFR1	6	R1530J
237.099	1.616	364854	WORD	n/a	wordpools/wordpool_categorized_EN.txt	DOLPHIN	OceanAnimals	2	1	[0, 0, 0]	n/a	catFR1	6	R1530J
238.715	0.932	366463	WORD_OFF	n/a	n/a	DOLPHIN	OceanAnimals	2	1	[0, 0, 0]	n/a	catFR1	6	R1530J
239.647	1.601	367401	WORD	n/a	wordpools/wordpool_categorized_EN.txt	DOLLHOUSE	Toys	3	1	[0, 0, 0]	n/a	catFR1	6	R1530J
241.248	0.983	368996	WORD_OFF	n/a	n/a	DOLLHOUSE	Toys	3	1	[0, 0, 0]	n/a	catFR1	6	R1530J
242.231	1.617	369975	WORD	n/a	wordpools/wordpool_categorized_EN.txt	FOOTBALL	Toys	4	1	[0, 0, 0]	n/a	catFR1	6	R1530J
243.848	0.816	371597	WORD_OFF	n/a	n/a	FOOTBALL	Toys	4	1	[0, 0, 0]	n/a	catFR1	6	R1530J
244.664	1.6	372415	WORD	n/a	wordpools/wordpool_categorized_EN.txt	SCANNER	Electronics	5	1	[0, 0, 0]	n/a	catFR1	6	R1530J
246.264	0.951	374023	WORD_OFF	n/a	n/a	SCANNER	Electronics	5	1	[0, 0, 0]	n/a	catFR1	6	R1530J
247.215	1.616	374962	WORD	n/a	wordpools/wordpool_categorized_EN.txt	TABLET	Electronics	6	1	[0, 0, 0]	n/a	catFR1	6	R1530J
248.831	0.818	376584	WORD_OFF	n/a	n/a	TABLET	Electronics	6	1	[0, 0, 0]	n/a	catFR1	6	R1530J
249.649	1.616	377402	WORD	n/a	wordpools/wordpool_categorized_EN.txt	FISH	OceanAnimals	7	1	[0, 0, 0]	n/a	catFR1	6	R1530J
251.265	0.766	379010	WORD_OFF	n/a	n/a	FISH	OceanAnimals	7	1	[0, 0, 0]	n/a	catFR1	6	R1530J
252.031	1.617	379774	WORD	n/a	wordpools/wordpool_categorized_EN.txt	JELLYFISH	OceanAnimals	8	1	[0, 0, 0]	n/a	catFR1	6	R1530J
253.648	0.984	381396	WORD_OFF	n/a	n/a	JELLYFISH	OceanAnimals	8	1	[0, 0, 0]	n/a	catFR1	6	R1530J
254.632	1.617	382388	WORD	n/a	wordpools/wordpool_categorized_EN.txt	PHONE	Electronics	9	1	[0, 0, 0]	n/a	catFR1	6	R1530J
256.249	0.865	383997	WORD_OFF	n/a	n/a	PHONE	Electronics	9	1	[0, 0, 0]	n/a	catFR1	6	R1530J
257.114	1.617	384868	WORD	n/a	wordpools/wordpool_categorized_EN.txt	COMPUTER	Electronics	10	1	[0, 0, 0]	n/a	catFR1	6	R1530J
258.731	0.816	386477	WORD_OFF	n/a	n/a	COMPUTER	Electronics	10	1	[0, 0, 0]	n/a	catFR1	6	R1530J
259.547	1.601	387295	WORD	n/a	wordpools/wordpool_categorized_EN.txt	FRISBEE	Toys	11	1	[0, 0, 0]	n/a	catFR1	6	R1530J
261.148	0.967	388903	WORD_OFF	n/a	n/a	FRISBEE	Toys	11	1	[0, 0, 0]	n/a	catFR1	6	R1530J
262.115	1.617	389869	WORD	n/a	wordpools/wordpool_categorized_EN.txt	MARBLES	Toys	12	1	[0, 0, 0]	n/a	catFR1	6	R1530J
263.732	0.001	391477	WORD_OFF	n/a	n/a	MARBLES	Toys	12	1	[0, 0, 0]	n/a	catFR1	6	R1530J
263.733	0.0	391477	ENCODING_END	n/a	n/a	n/a	n/a	-999	1	[0, 0, 0]	n/a	catFR1	6	R1530J
263.733	0.0	391477	DISTRACT_START	n/a	n/a	n/a	n/a	-999	1	[0, 0, 0]	n/a	catFR1	6	R1530J
263.733	0.0	391483	START	n/a	n/a	n/a	n/a	-999	1	[-999, -999, -999]	n/a	catFR1	6	R1530J
263.733	2.765	391483	PROB	2.765	n/a	n/a	n/a	-999	1	[5, 3, 1]	9	catFR1	6	R1530J
266.498	3.784	394248	PROB	3.784	n/a	n/a	n/a	-999	1	[5, 7, 2]	14	catFR1	6	R1530J
270.282	6.016	398032	PROB	6.016	n/a	n/a	n/a	-999	1	[7, 3, 5]	15	catFR1	6	R1530J
276.298	2.617	404047	PROB	2.617	n/a	n/a	n/a	-999	1	[1, 4, 5]	10	catFR1	6	R1530J
278.915	3.617	406664	PROB	3.617	n/a	n/a	n/a	-999	1	[5, 2, 1]	8	catFR1	6	R1530J
282.532	3.95	410281	PROB	3.95	n/a	n/a	n/a	-999	1	[3, 1, 3]	7	catFR1	6	R1530J
286.482	0.0	414226	DISTRACT_END	n/a	n/a	n/a	n/a	-999	1	[0, 0, 0]	n/a	catFR1	6	R1530J
286.482	1.532	414231	STOP	n/a	n/a	n/a	n/a	-999	1	[-999, -999, -999]	n/a	catFR1	6	R1530J
288.014	1.16	415768	REC_START	n/a	n/a	n/a	n/a	-999	1	[0, 0, 0]	n/a	catFR1	6	R1530J
289.174	0.939	416923	REC_WORD	0.939	n/a	FRISBEE	Toys	11	1	[0, 0, 0]	n/a	catFR1	6	R1530J
290.113	1.966	417862	REC_WORD	1.966	n/a	FOOTBALL	Toys	4	1	[0, 0, 0]	n/a	catFR1	6	R1530J
292.079	0.478	419827	REC_WORD_VV	0.478	n/a	<>	n/a	-999	1	[0, 0, 0]	n/a	catFR1	6	R1530J
292.557	0.373	420305	REC_WORD_VV	0.373	n/a	<>	n/a	-999	1	[0, 0, 0]	n/a	catFR1	6	R1530J
292.93	1.154	420678	REC_WORD_VV	1.154	n/a	<>	n/a	-999	1	[0, 0, 0]	n/a	catFR1	6	R1530J
294.084	0.633	421832	REC_WORD	0.633	n/a	FRISBEE	Toys	11	1	[0, 0, 0]	n/a	catFR1	6	R1530J
294.717	2.297	422465	REC_WORD	2.297	n/a	FOOTBALL	Toys	4	1	[0, 0, 0]	n/a	catFR1	6	R1530J
297.014	2.302	424762	REC_WORD	2.302	n/a	ANT	Insects	-999	1	[0, 0, 0]	n/a	catFR1	6	R1530J
299.316	6.253	427064	REC_WORD	6.253	n/a	BUTTERFLY	Insects	-999	1	[0, 0, 0]	n/a	catFR1	6	R1530J
305.569	0.879	433317	REC_WORD	0.879	n/a	SCANNER	Electronics	5	1	[0, 0, 0]	n/a	catFR1	6	R1530J
306.448	11.141	434196	REC_WORD	11.141	n/a	COMPUTER	Electronics	10	1	[0, 0, 0]	n/a	catFR1	6	R1530J
317.589	0.624	445336	REC_WORD_VV	0.624	n/a	<>	n/a	-999	1	[0, 0, 0]	n/a	catFR1	6	R1530J
318.213	1.969	445957	REC_END	n/a	n/a	n/a	n/a	-999	1	[0, 0, 0]	n/a	catFR1	6	R1530J
320.182	10.35	447927	COUNTDOWN_START	n/a	n/a	n/a	n/a	-999	1	[0, 0, 0]	n/a	catFR1	6	R1530J
330.532	0.0	458276	COUNTDOWN_END	n/a	n/a	n/a	n/a	-999	1	[0, 0, 0]	n/a	catFR1	6	R1530J
330.532	2.249	458276	ENCODING_START	n/a	n/a	n/a	n/a	-999	2	[0, 0, 0]	n/a	catFR1	6	R1530J
332.781	1.601	460528	WORD	n/a	wordpools/wordpool_categorized_EN.txt	VACUUM	Appliances	1	2	[0, 0, 0]	n/a	catFR1	6	R1530J
334.382	0.933	462124	WORD_OFF	n/a	n/a	VACUUM	Appliances	1	2	[0, 0, 0]	n/a	catFR1	6	R1530J
335.315	1.616	463062	WORD	n/a	wordpools/wordpool_categorized_EN.txt	REFRIGERATOR	Appliances	2	2	[0, 0, 0]	n/a	catFR1	6	R1530J
336.931	0.999	464671	WORD_OFF	n/a	n/a	REFRIGERATOR	Appliances	2	2	[0, 0, 0]	n/a	catFR1	6	R1530J
337.93	1.601	465676	WORD	n/a	wordpools/wordpool_categorized_EN.txt	LEVEL	Tools	3	2	[0, 0, 0]	n/a	catFR1	6	R1530J
339.531	0.967	467271	WORD_OFF	n/a	n/a	LEVEL	Tools	3	2	[0, 0, 0]	n/a	catFR1	6	R1530J
340.498	1.617	468237	WORD	n/a	wordpools/wordpool_categorized_EN.txt	RATCHET	Tools	4	2	[0, 0, 0]	n/a	catFR1	6	R1530J
342.115	0.816	469859	WORD_OFF	n/a	n/a	RATCHET	Tools	4	2	[0, 0, 0]	n/a	catFR1	6	R1530J
342.931	1.601	470676	WORD	n/a	wordpools/wordpool_categorized_EN.txt	OYSTER	OceanAnimals	5	2	[0, 0, 0]	n/a	catFR1	6	R1530J
344.532	0.917	472272	WORD_OFF	n/a	n/a	OYSTER	OceanAnimals	5	2	[0, 0, 0]	n/a	catFR1	6	R1530J
345.449	1.616	473197	WORD	n/a	wordpools/wordpool_categorized_EN.txt	LOBSTER	OceanAnimals	6	2	[0, 0, 0]	n/a	catFR1	6	R1530J
347.065	0.883	474805	WORD_OFF	n/a	n/a	LOBSTER	OceanAnimals	6	2	[0, 0, 0]	n/a	catFR1	6	R1530J
347.948	1.617	475690	WORD	n/a	wordpools/wordpool_categorized_EN.txt	FREEZER	Appliances	7	2	[0, 0, 0]	n/a	catFR1	6	R1530J
349.565	0.95	477312	WORD_OFF	n/a	n/a	FREEZER	Appliances	7	2	[0, 0, 0]	n/a	catFR1	6	R1530J
350.515	1.615	478264	WORD	n/a	wordpools/wordpool_categorized_EN.txt	TOASTER	Appliances	8	2	[0, 0, 0]	n/a	catFR1	6	R1530J
352.13	0.918	479872	WORD_OFF	n/a	n/a	TOASTER	Appliances	8	2	[0, 0, 0]	n/a	catFR1	6	R1530J
353.048	1.6	480797	WORD	n/a	wordpools/wordpool_categorized_EN.txt	AXE	Tools	9	2	[0, 0, 0]	n/a	catFR1	6	R1530J
354.648	0.868	482393	WORD_OFF	n/a	n/a	AXE	Tools	9	2	[0, 0, 0]	n/a	catFR1	6	R1530J
355.516	1.615	483264	WORD	n/a	wordpools/wordpool_categorized_EN.txt	DRILL	Tools	10	2	[0, 0, 0]	n/a	catFR1	6	R1530J
357.131	0.916	484873	WORD_OFF	n/a	n/a	DRILL	Tools	10	2	[0, 0, 0]	n/a	catFR1	6	R1530J
358.047	1.6	485784	WORD	n/a	wordpools/wordpool_categorized_EN.txt	TURTLE	OceanAnimals	11	2	[0, 0, 0]	n/a	catFR1	6	R1530J
359.647	0.917	487393	WORD_OFF	n/a	n/a	TURTLE	OceanAnimals	11	2	[0, 0, 0]	n/a	catFR1	6	R1530J
360.564	1.601	488304	WORD	n/a	wordpools/wordpool_categorized_EN.txt	SQUID	OceanAnimals	12	2	[0, 0, 0]	n/a	catFR1	6	R1530J
362.165	0.0	489910	START	n/a	n/a	n/a	n/a	-999	2	[-999, -999, -999]	n/a	catFR1	6	R1530J
362.165	0.0	489910	PROB	0.0	n/a	n/a	n/a	-999	2	[4, 2, 3]	9	catFR1	6	R1530J
362.164	0.001	489913	WORD_OFF	n/a	n/a	SQUID	OceanAnimals	12	2	[0, 0, 0]	n/a	catFR1	6	R1530J
362.165	0.0	489913	ENCODING_END	n/a	n/a	n/a	n/a	-999	2	[0, 0, 0]	n/a	catFR1	6	R1530J
362.165	4.917	489913	DISTRACT_START	n/a	n/a	n/a	n/a	-999	2	[0, 0, 0]	n/a	catFR1	6	R1530J
367.082	3.15	494826	PROB	3.15	n/a	n/a	n/a	-999	2	[3, 7, 3]	13	catFR1	6	R1530J
370.232	2.899	497976	PROB	2.899	n/a	n/a	n/a	-999	2	[4, 5, 2]	11	catFR1	6	R1530J
373.131	3.518	500875	PROB	3.518	n/a	n/a	n/a	-999	2	[6, 2, 5]	13	catFR1	6	R1530J
376.649	4.482	504393	PROB	4.482	n/a	n/a	n/a	-999	2	[3, 7, 4]	14	catFR1	6	R1530J
381.131	3.783	508875	PROB	3.783	n/a	n/a	n/a	-999	2	[2, 5, 1]	8	catFR1	6	R1530J
384.914	0.0	512657	STOP	n/a	n/a	n/a	n/a	-999	2	[-999, -999, -999]	n/a	catFR1	6	R1530J
384.914	1.867	512662	DISTRACT_END	n/a	n/a	n/a	n/a	-999	2	[0, 0, 0]	n/a	catFR1	6	R1530J
386.781	1.589	514525	REC_START	n/a	n/a	n/a	n/a	-999	2	[0, 0, 0]	n/a	catFR1	6	R1530J
388.37	1.489	516113	REC_WORD	1.489	n/a	SQUID	OceanAnimals	12	2	[0, 0, 0]	n/a	catFR1	6	R1530J
389.859	0.766	517602	REC_WORD	0.766	n/a	TURTLE	OceanAnimals	11	2	[0, 0, 0]	n/a	catFR1	6	R1530J
390.625	1.544	518368	REC_WORD	1.544	n/a	FREEZER	Appliances	7	2	[0, 0, 0]	n/a	catFR1	6	R1530J
392.169	1.0	519912	REC_WORD	1.0	n/a	REFRIGERATOR	Appliances	2	2	[0, 0, 0]	n/a	catFR1	6	R1530J
393.169	1.11	520912	REC_WORD_VV	1.11	n/a	<>	n/a	-999	2	[0, 0, 0]	n/a	catFR1	6	R1530J
394.279	5.224	522022	REC_WORD	5.224	n/a	RATCHET	Tools	4	2	[0, 0, 0]	n/a	catFR1	6	R1530J
399.503	5.661	527246	REC_WORD	5.661	n/a	DOLPHIN	OceanAnimals	-999	2	[0, 0, 0]	n/a	catFR1	6	R1530J
405.164	0.827	532906	REC_WORD	0.827	n/a	DOLLHOUSE	Toys	-999	2	[0, 0, 0]	n/a	catFR1	6	R1530J
405.991	3.15	533733	REC_WORD_VV	3.15	n/a	<>	n/a	-999	2	[0, 0, 0]	n/a	catFR1	6	R1530J
409.141	0.779	536883	REC_WORD	0.779	n/a	REFRIGERATOR	Appliances	2	2	[0, 0, 0]	n/a	catFR1	6	R1530J
409.92	3.559	537662	REC_WORD	3.559	n/a	FREEZER	Appliances	7	2	[0, 0, 0]	n/a	catFR1	6	R1530J
413.479	1.883	541221	REC_WORD	1.883	n/a	RATCHET	Tools	4	2	[0, 0, 0]	n/a	catFR1	6	R1530J
415.362	1.627	543104	REC_WORD	1.627	n/a	SQUID	OceanAnimals	12	2	[0, 0, 0]	n/a	catFR1	6	R1530J
416.989	1.727	544728	REC_END	n/a	n/a	n/a	n/a	-999	2	[0, 0, 0]	n/a	catFR1	6	R1530J
418.716	10.348	546457	COUNTDOWN_START	n/a	n/a	n/a	n/a	-999	2	[0, 0, 0]	n/a	catFR1	6	R1530J
429.064	0.0	556806	COUNTDOWN_END	n/a	n/a	n/a	n/a	-999	2	[0, 0, 0]	n/a	catFR1	6	R1530J
429.064	2.301	556806	ENCODING_START	n/a	n/a	n/a	n/a	-999	3	[0, 0, 0]	n/a	catFR1	6	R1530J
431.365	1.601	559098	WORD	n/a	wordpools/wordpool_categorized_EN.txt	GIRAFFE	Zoo	1	3	[0, 0, 0]	n/a	catFR1	6	R1530J
432.966	0.882	560707	WORD_OFF	n/a	n/a	GIRAFFE	Zoo	1	3	[0, 0, 0]	n/a	catFR1	6	R1530J
433.848	1.6	561592	WORD	n/a	wordpools/wordpool_categorized_EN.txt	LION	Zoo	2	3	[0, 0, 0]	n/a	catFR1	6	R1530J
435.448	0.949	563187	WORD_OFF	n/a	n/a	LION	Zoo	2	3	[0, 0, 0]	n/a	catFR1	6	R1530J
436.397	1.6	564139	WORD	n/a	wordpools/wordpool_categorized_EN.txt	COAT	Clothing	3	3	[0, 0, 0]	n/a	catFR1	6	R1530J
437.997	0.818	565734	WORD_OFF	n/a	n/a	COAT	Clothing	3	3	[0, 0, 0]	n/a	catFR1	6	R1530J
438.815	1.615	566552	WORD	n/a	wordpools/wordpool_categorized_EN.txt	SHIRT	Clothing	4	3	[0, 0, 0]	n/a	catFR1	6	R1530J
440.43	0.985	568174	WORD_OFF	n/a	n/a	SHIRT	Clothing	4	3	[0, 0, 0]	n/a	catFR1	6	R1530J
441.415	1.616	569152	WORD	n/a	wordpools/wordpool_categorized_EN.txt	PEAR	Fruit	5	3	[0, 0, 0]	n/a	catFR1	6	R1530J
443.031	0.768	570774	WORD_OFF	n/a	n/a	PEAR	Fruit	5	3	[0, 0, 0]	n/a	catFR1	6	R1530J
443.799	1.615	571538	WORD	n/a	wordpools/wordpool_categorized_EN.txt	BANANA	Fruit	6	3	[0, 0, 0]	n/a	catFR1	6	R1530J
445.414	0.8	573147	WORD_OFF	n/a	n/a	BANANA	Fruit	6	3	[0, 0, 0]	n/a	catFR1	6	R1530J
446.214	1.6	573951	WORD	n/a	wordpools/wordpool_categorized_EN.txt	MONKEY	Zoo	7	3	[0, 0, 0]	n/a	catFR1	6	R1530J
447.814	0.967	575560	WORD_OFF	n/a	n/a	MONKEY	Zoo	7	3	[0, 0, 0]	n/a	catFR1	6	R1530J
448.781	1.6	576525	WORD	n/a	wordpools/wordpool_categorized_EN.txt	ZEBRA	Zoo	8	3	[0, 0, 0]	n/a	catFR1	6	R1530J
450.381	0.951	578121	WORD_OFF	n/a	n/a	ZEBRA	Zoo	8	3	[0, 0, 0]	n/a	catFR1	6	R1530J
451.332	1.615	579072	WORD	n/a	wordpools/wordpool_categorized_EN.txt	SHORTS	Clothing	9	3	[0, 0, 0]	n/a	catFR1	6	R1530J
452.947	1.001	580681	WORD_OFF	n/a	n/a	SHORTS	Clothing	9	3	[0, 0, 0]	n/a	catFR1	6	R1530J
453.948	1.615	581686	WORD	n/a	wordpools/wordpool_categorized_EN.txt	DRESS	Clothing	10	3	[0, 0, 0]	n/a	catFR1	6	R1530J
455.563	0.867	583308	WORD_OFF	n/a	n/a	DRESS	Clothing	10	3	[0, 0, 0]	n/a	catFR1	6	R1530J
456.43	1.601	584166	WORD	n/a	wordpools/wordpool_categorized_EN.txt	LIME	Fruit	11	3	[0, 0, 0]	n/a	catFR1	6	R1530J
458.031	0.983	585775	WORD_OFF	n/a	n/a	LIME	Fruit	11	3	[0, 0, 0]	n/a	catFR1	6	R1530J
459.014	1.601	586754	WORD	n/a	wordpools/wordpool_categorized_EN.txt	PLUM	Fruit	12	3	[0, 0, 0]	n/a	catFR1	6	R1530J
460.615	0.0	588349	WORD_OFF	n/a	n/a	PLUM	Fruit	12	3	[0, 0, 0]	n/a	catFR1	6	R1530J
460.615	0.003	588354	PROB	0.003	n/a	n/a	n/a	-999	3	[1, 6, 3]	10	catFR1	6	R1530J
460.618	0.0	588357	START	n/a	n/a	n/a	n/a	-999	3	[-999, -999, -999]	n/a	catFR1	6	R1530J
460.618	0.0	588362	ENCODING_END	n/a	n/a	n/a	n/a	-999	3	[0, 0, 0]	n/a	catFR1	6	R1530J
460.618	3.497	588362	DISTRACT_START	n/a	n/a	n/a	n/a	-999	3	[0, 0, 0]	n/a	catFR1	6	R1530J
464.115	2.466	591854	PROB	2.466	n/a	n/a	n/a	-999	3	[7, 1, 3]	11	catFR1	6	R1530J
466.581	3.218	594320	PROB	3.218	n/a	n/a	n/a	-999	3	[6, 6, 1]	13	catFR1	6	R1530J
469.799	2.732	597538	PROB	2.732	n/a	n/a	n/a	-999	3	[1, 6, 3]	10	catFR1	6	R1530J
472.531	2.951	600270	PROB	2.951	n/a	n/a	n/a	-999	3	[5, 1, 1]	7	catFR1	6	R1530J
475.482	4.566	603221	PROB	4.566	n/a	n/a	n/a	-999	3	[8, 7, 7]	24	catFR1	6	R1530J
480.048	4.599	607786	PROB	4.599	n/a	n/a	n/a	-999	3	[1, 5, 2]	8	catFR1	6	R1530J
484.647	0.0	612385	DISTRACT_END	n/a	n/a	n/a	n/a	-999	3	[0, 0, 0]	n/a	catFR1	6	R1530J
484.647	1.634	612385	STOP	n/a	n/a	n/a	n/a	-999	3	[-999, -999, -999]	n/a	catFR1	6	R1530J
486.281	4.487	614020	REC_START	n/a	n/a	n/a	n/a	-999	3	[0, 0, 0]	n/a	catFR1	6	R1530J
490.768	1.01	618506	REC_WORD	1.01	n/a	LIME	Fruit	11	3	[0, 0, 0]	n/a	catFR1	6	R1530J
491.778	1.087	619516	REC_WORD	1.087	n/a	PLUM	Fruit	12	3	[0, 0, 0]	n/a	catFR1	6	R1530J
492.865	1.217	620603	REC_WORD	1.217	n/a	ZEBRA	Zoo	8	3	[0, 0, 0]	n/a	catFR1	6	R1530J
494.082	1.0	621820	REC_WORD	1.0	n/a	GIRAFFE	Zoo	1	3	[0, 0, 0]	n/a	catFR1	6	R1530J
495.082	2.69	622820	REC_WORD_VV	2.69	n/a	<>	n/a	-999	3	[0, 0, 0]	n/a	catFR1	6	R1530J
497.772	1.274	625509	REC_WORD	1.274	n/a	LIME	Fruit	11	3	[0, 0, 0]	n/a	catFR1	6	R1530J
499.046	0.436	626783	REC_WORD	0.436	n/a	LIME	Fruit	11	3	[0, 0, 0]	n/a	catFR1	6	R1530J
499.482	0.67	627219	REC_WORD	0.67	n/a	PLUM	Fruit	12	3	[0, 0, 0]	n/a	catFR1	6	R1530J
500.152	0.748	627889	REC_WORD	0.748	n/a	ZEBRA	Zoo	8	3	[0, 0, 0]	n/a	catFR1	6	R1530J
500.9	2.998	628637	REC_WORD	2.998	n/a	GIRAFFE	Zoo	1	3	[0, 0, 0]	n/a	catFR1	6	R1530J
503.898	0.981	631635	REC_WORD	0.981	n/a	LION	Zoo	2	3	[0, 0, 0]	n/a	catFR1	6	R1530J
504.879	2.765	632616	REC_WORD_VV	2.765	n/a	<>	n/a	-999	3	[0, 0, 0]	n/a	catFR1	6	R1530J
507.644	1.1	635381	REC_WORD	1.1	n/a	LEVEL	Tools	-999	3	[0, 0, 0]	n/a	catFR1	6	R1530J
508.744	0.584	636481	REC_WORD_VV	0.584	n/a	<>	n/a	-999	3	[0, 0, 0]	n/a	catFR1	6	R1530J
509.328	1.239	637065	REC_WORD	1.239	n/a	LION	Zoo	2	3	[0, 0, 0]	n/a	catFR1	6	R1530J
510.567	0.396	638304	REC_WORD	0.396	n/a	LIME	Fruit	11	3	[0, 0, 0]	n/a	catFR1	6	R1530J
510.963	0.463	638700	REC_WORD	0.463	n/a	PLUM	Fruit	12	3	[0, 0, 0]	n/a	catFR1	6	R1530J
511.426	0.59	639163	REC_WORD	0.59	n/a	ZEBRA	Zoo	8	3	[0, 0, 0]	n/a	catFR1	6	R1530J
512.016	4.482	639753	REC_WORD	4.482	n/a	GIRAFFE	Zoo	1	3	[0, 0, 0]	n/a	catFR1	6	R1530J
516.498	2.234	644236	REC_END	n/a	n/a	n/a	n/a	-999	3	[0, 0, 0]	n/a	catFR1	6	R1530J
518.732	10.349	646475	COUNTDOWN_START	n/a	n/a	n/a	n/a	-999	3	[0, 0, 0]	n/a	catFR1	6	R1530J
529.081	0.0	656810	COUNTDOWN_END	n/a	n/a	n/a	n/a	-999	3	[0, 0, 0]	n/a	catFR1	6	R1530J
529.081	2.101	656824	ENCODING_START	n/a	n/a	n/a	n/a	-999	4	[0, 0, 0]	n/a	catFR1	6	R1530J
531.182	1.616	658915	WORD	n/a	wordpools/wordpool_categorized_EN.txt	MOPED	Vehicles	1	4	[0, 0, 0]	n/a	catFR1	6	R1530J
532.798	0.883	660537	WORD_OFF	n/a	n/a	MOPED	Vehicles	1	4	[0, 0, 0]	n/a	catFR1	6	R1530J
533.681	1.601	661422	WORD	n/a	wordpools/wordpool_categorized_EN.txt	SCOOTER	Vehicles	2	4	[0, 0, 0]	n/a	catFR1	6	R1530J
535.282	0.899	663017	WORD_OFF	n/a	n/a	SCOOTER	Vehicles	2	4	[0, 0, 0]	n/a	catFR1	6	R1530J
536.181	1.617	663915	WORD	n/a	wordpools/wordpool_categorized_EN.txt	SOFA	Furniture	3	4	[0, 0, 0]	n/a	catFR1	6	R1530J
537.798	1.0	665537	WORD_OFF	n/a	n/a	SOFA	Furniture	3	4	[0, 0, 0]	n/a	catFR1	6	R1530J
538.798	1.6	666529	WORD	n/a	wordpools/wordpool_categorized_EN.txt	NIGHTSTAND	Furniture	4	4	[0, 0, 0]	n/a	catFR1	6	R1530J
540.398	0.884	668138	WORD_OFF	n/a	n/a	NIGHTSTAND	Furniture	4	4	[0, 0, 0]	n/a	catFR1	6	R1530J
541.282	1.615	669022	WORD	n/a	wordpools/wordpool_categorized_EN.txt	TROMBONE	Instruments	5	4	[0, 0, 0]	n/a	catFR1	6	R1530J
542.897	0.817	670631	WORD_OFF	n/a	n/a	TROMBONE	Instruments	5	4	[0, 0, 0]	n/a	catFR1	6	R1530J
543.714	1.6	671449	WORD	n/a	wordpools/wordpool_categorized_EN.txt	DRUM	Instruments	6	4	[0, 0, 0]	n/a	catFR1	6	R1530J
545.314	0.901	673044	WORD_OFF	n/a	n/a	DRUM	Instruments	6	4	[0, 0, 0]	n/a	catFR1	6	R1530J
546.215	1.616	673942	WORD	n/a	wordpools/wordpool_categorized_EN.txt	PLANE	Vehicles	7	4	[0, 0, 0]	n/a	catFR1	6	R1530J
547.831	0.767	675564	WORD_OFF	n/a	n/a	PLANE	Vehicles	7	4	[0, 0, 0]	n/a	catFR1	6	R1530J
548.598	1.6	676328	WORD	n/a	wordpools/wordpool_categorized_EN.txt	MOTORCYCLE	Vehicles	8	4	[0, 0, 0]	n/a	catFR1	6	R1530J
550.198	0.8	677937	WORD_OFF	n/a	n/a	MOTORCYCLE	Vehicles	8	4	[0, 0, 0]	n/a	catFR1	6	R1530J
550.998	1.6	678728	WORD	n/a	wordpools/wordpool_categorized_EN.txt	CELLO	Instruments	9	4	[0, 0, 0]	n/a	catFR1	6	R1530J
552.598	0.999	680337	WORD_OFF	n/a	n/a	CELLO	Instruments	9	4	[0, 0, 0]	n/a	catFR1	6	R1530J
553.597	1.617	681329	WORD	n/a	wordpools/wordpool_categorized_EN.txt	ORGAN	Instruments	10	4	[0, 0, 0]	n/a	catFR1	6	R1530J
555.214	0.883	682951	WORD_OFF	n/a	n/a	ORGAN	Instruments	10	4	[0, 0, 0]	n/a	catFR1	6	R1530J
556.097	1.617	683835	WORD	n/a	wordpools/wordpool_categorized_EN.txt	BED	Furniture	11	4	[0, 0, 0]	n/a	catFR1	6	R1530J
557.714	0.983	685444	WORD_OFF	n/a	n/a	BED	Furniture	11	4	[0, 0, 0]	n/a	catFR1	6	R1530J
558.697	1.6	686436	WORD	n/a	wordpools/wordpool_categorized_EN.txt	DESK	Furniture	12	4	[0, 0, 0]	n/a	catFR1	6	R1530J
560.297	0.001	688031	WORD_OFF	n/a	n/a	DESK	Furniture	12	4	[0, 0, 0]	n/a	catFR1	6	R1530J
560.298	0.0	688031	ENCODING_END	n/a	n/a	n/a	n/a	-999	4	[0, 0, 0]	n/a	catFR1	6	R1530J
560.298	0.0	688031	DISTRACT_START	n/a	n/a	n/a	n/a	-999	4	[0, 0, 0]	n/a	catFR1	6	R1530J
560.297	0.001	688031	PROB	0.001	n/a	n/a	n/a	-999	4	[1, 2, 4]	7	catFR1	6	R1530J
560.298	6.117	688032	START	n/a	n/a	n/a	n/a	-999	4	[-999, -999, -999]	n/a	catFR1	6	R1530J
566.415	2.433	694149	PROB	2.433	n/a	n/a	n/a	-999	4	[1, 5, 5]	11	catFR1	6	R1530J
568.848	4.517	696582	PROB	4.517	n/a	n/a	n/a	-999	4	[3, 6, 7]	16	catFR1	6	R1530J
573.365	4.533	701098	PROB	4.533	n/a	n/a	n/a	-999	4	[5, 3, 7]	15	catFR1	6	R1530J
577.898	2.901	705631	PROB	2.901	n/a	n/a	n/a	-999	4	[2, 6, 4]	12	catFR1	6	R1530J
580.799	0.0	708528	DISTRACT_END	n/a	n/a	n/a	n/a	-999	4	[0, 0, 0]	n/a	catFR1	6	R1530J
580.799	1.799	708532	STOP	n/a	n/a	n/a	n/a	-999	4	[-999, -999, -999]	n/a	catFR1	6	R1530J
582.598	1.366	710325	REC_START	n/a	n/a	n/a	n/a	-999	4	[0, 0, 0]	n/a	catFR1	6	R1530J
583.964	1.399	711697	REC_WORD	1.399	n/a	NIGHTSTAND	Furniture	4	4	[0, 0, 0]	n/a	catFR1	6	R1530J
585.363	1.481	713096	REC_WORD	1.481	n/a	BED	Furniture	11	4	[0, 0, 0]	n/a	catFR1	6	R1530J
586.844	1.305	714577	REC_WORD	1.305	n/a	DRUM	Instruments	6	4	[0, 0, 0]	n/a	catFR1	6	R1530J
588.149	7.942	715881	REC_WORD	7.942	n/a	TROMBONE	Instruments	5	4	[0, 0, 0]	n/a	catFR1	6	R1530J
596.091	0.869	723823	REC_WORD_VV	0.869	n/a	<>	n/a	-999	4	[0, 0, 0]	n/a	catFR1	6	R1530J
596.96	2.657	724692	REC_WORD	2.657	n/a	DRESS	Clothing	-999	4	[0, 0, 0]	n/a	catFR1	6	R1530J
599.617	12.084	727349	REC_WORD	12.084	n/a	PANTS	n/a	-999	4	[0, 0, 0]	n/a	catFR1	6	R1530J
611.701	0.603	739432	REC_WORD	0.603	n/a	DRESS	Clothing	-999	4	[0, 0, 0]	n/a	catFR1	6	R1530J
612.304	0.475	740035	REC_WORD	0.475	n/a	PANTS	n/a	-999	4	[0, 0, 0]	n/a	catFR1	6	R1530J
612.779	2.019	740513	REC_END	n/a	n/a	n/a	n/a	-999	4	[0, 0, 0]	n/a	catFR1	6	R1530J
614.798	10.351	742524	COUNTDOWN_START	n/a	n/a	n/a	n/a	-999	4	[0, 0, 0]	n/a	catFR1	6	R1530J
625.149	0.0	752873	COUNTDOWN_END	n/a	n/a	n/a	n/a	-999	4	[0, 0, 0]	n/a	catFR1	6	R1530J
625.149	2.198	752873	ENCODING_START	n/a	n/a	n/a	n/a	-999	5	[0, 0, 0]	n/a	catFR1	6	R1530J
627.347	1.601	755072	WORD	n/a	wordpools/wordpool_categorized_EN.txt	BINDER	OfficeSupplies	1	5	[0, 0, 0]	n/a	catFR1	6	R1530J
628.948	0.899	756680	WORD_OFF	n/a	n/a	BINDER	OfficeSupplies	1	5	[0, 0, 0]	n/a	catFR1	6	R1530J
629.847	1.6	757579	WORD	n/a	wordpools/wordpool_categorized_EN.txt	MARKER	OfficeSupplies	2	5	[0, 0, 0]	n/a	catFR1	6	R1530J
631.447	0.767	759174	WORD_OFF	n/a	n/a	MARKER	OfficeSupplies	2	5	[0, 0, 0]	n/a	catFR1	6	R1530J
632.214	1.602	759938	WORD	n/a	wordpools/wordpool_categorized_EN.txt	CUPCAKE	Desserts	3	5	[0, 0, 0]	n/a	catFR1	6	R1530J
633.816	0.982	761547	WORD_OFF	n/a	n/a	CUPCAKE	Desserts	3	5	[0, 0, 0]	n/a	catFR1	6	R1530J
634.798	1.6	762525	WORD	n/a	wordpools/wordpool_categorized_EN.txt	PIE	Desserts	4	5	[0, 0, 0]	n/a	catFR1	6	R1530J
636.398	0.949	764120	WORD_OFF	n/a	n/a	PIE	Desserts	4	5	[0, 0, 0]	n/a	catFR1	6	R1530J
637.347	1.601	765072	WORD	n/a	wordpools/wordpool_categorized_EN.txt	COLANDER	KitchenTools	5	5	[0, 0, 0]	n/a	catFR1	6	R1530J
638.948	0.917	766681	WORD_OFF	n/a	n/a	COLANDER	KitchenTools	5	5	[0, 0, 0]	n/a	catFR1	6	R1530J
639.865	1.616	767606	WORD	n/a	wordpools/wordpool_categorized_EN.txt	CORKSCREW	KitchenTools	6	5	[0, 0, 0]	n/a	catFR1	6	R1530J
641.481	0.884	769214	WORD_OFF	n/a	n/a	CORKSCREW	KitchenTools	6	5	[0, 0, 0]	n/a	catFR1	6	R1530J
642.365	1.6	770099	WORD	n/a	wordpools/wordpool_categorized_EN.txt	COOKIE	Desserts	7	5	[0, 0, 0]	n/a	catFR1	6	R1530J
643.965	0.832	771694	WORD_OFF	n/a	n/a	COOKIE	Desserts	7	5	[0, 0, 0]	n/a	catFR1	6	R1530J
644.797	1.601	772526	WORD	n/a	wordpools/wordpool_categorized_EN.txt	MOUSSE	Desserts	8	5	[0, 0, 0]	n/a	catFR1	6	R1530J
646.398	0.933	774121	WORD_OFF	n/a	n/a	MOUSSE	Desserts	8	5	[0, 0, 0]	n/a	catFR1	6	R1530J
647.331	1.601	775059	WORD	n/a	wordpools/wordpool_categorized_EN.txt	NOTEBOOK	OfficeSupplies	9	5	[0, 0, 0]	n/a	catFR1	6	R1530J
648.932	0.998	776654	WORD_OFF	n/a	n/a	NOTEBOOK	OfficeSupplies	9	5	[0, 0, 0]	n/a	catFR1	6	R1530J
649.93	1.601	777660	WORD	n/a	wordpools/wordpool_categorized_EN.txt	PAPER	OfficeSupplies	10	5	[0, 0, 0]	n/a	catFR1	6	R1530J
651.531	1.016	779255	WORD_OFF	n/a	n/a	PAPER	OfficeSupplies	10	5	[0, 0, 0]	n/a	catFR1	6	R1530J
652.547	1.618	780274	WORD	n/a	wordpools/wordpool_categorized_EN.txt	SPATULA	KitchenTools	11	5	[0, 0, 0]	n/a	catFR1	6	R1530J
654.165	0.999	781896	WORD_OFF	n/a	n/a	SPATULA	KitchenTools	11	5	[0, 0, 0]	n/a	catFR1	6	R1530J
655.164	1.616	782888	WORD	n/a	wordpools/wordpool_categorized_EN.txt	GRATER	KitchenTools	12	5	[0, 0, 0]	n/a	catFR1	6	R1530J
656.78	0.001	784510	WORD_OFF	n/a	n/a	GRATER	KitchenTools	12	5	[0, 0, 0]	n/a	catFR1	6	R1530J
656.781	0.0	784510	ENCODING_END	n/a	n/a	n/a	n/a	-999	5	[0, 0, 0]	n/a	catFR1	6	R1530J
656.781	0.0	784510	DISTRACT_START	n/a	n/a	n/a	n/a	-999	5	[0, 0, 0]	n/a	catFR1	6	R1530J
656.781	0.0	784510	START	n/a	n/a	n/a	n/a	-999	5	[-999, -999, -999]	n/a	catFR1	6	R1530J
656.781	4.068	784510	PROB	4.068	n/a	n/a	n/a	-999	5	[5, 1, 5]	11	catFR1	6	R1530J
660.849	3.016	788578	PROB	3.016	n/a	n/a	n/a	-999	5	[5, 2, 4]	11	catFR1	6	R1530J
663.865	2.483	791593	PROB	2.483	n/a	n/a	n/a	-999	5	[1, 5, 3]	9	catFR1	6	R1530J
666.348	2.551	794076	PROB	2.551	n/a	n/a	n/a	-999	5	[1, 3, 6]	10	catFR1	6	R1530J
668.899	2.966	796627	PROB	2.966	n/a	n/a	n/a	-999	5	[2, 4, 7]	13	catFR1	6	R1530J
671.865	4.15	799593	PROB	4.15	n/a	n/a	n/a	-999	5	[5, 4, 3]	12	catFR1	6	R1530J
676.015	2.966	803743	PROB	2.966	n/a	n/a	n/a	-999	5	[4, 2, 5]	11	catFR1	6	R1530J
678.981	0.0	806709	DISTRACT_END	n/a	n/a	n/a	n/a	-999	5	[0, 0, 0]	n/a	catFR1	6	R1530J
678.981	1.633	806709	STOP	n/a	n/a	n/a	n/a	-999	5	[-999, -999, -999]	n/a	catFR1	6	R1530J
680.614	0.7	808345	REC_START	n/a	n/a	n/a	n/a	-999	5	[0, 0, 0]	n/a	catFR1	6	R1530J
681.314	1.796	809041	REC_WORD	1.796	n/a	SPATULA	KitchenTools	11	5	[0, 0, 0]	n/a	catFR1	6	R1530J
683.11	1.136	810837	REC_WORD	1.136	n/a	GRATER	KitchenTools	12	5	[0, 0, 0]	n/a	catFR1	6	R1530J
684.246	1.0	811973	REC_WORD	1.0	n/a	CORKSCREW	KitchenTools	6	5	[0, 0, 0]	n/a	catFR1	6	R1530J
685.246	1.056	812973	REC_WORD_VV	1.056	n/a	<>	n/a	-999	5	[0, 0, 0]	n/a	catFR1	6	R1530J
686.302	5.923	814029	REC_WORD	5.923	n/a	COLANDER	KitchenTools	5	5	[0, 0, 0]	n/a	catFR1	6	R1530J
692.225	7.325	819952	REC_WORD	7.325	n/a	MOUSSE	Desserts	8	5	[0, 0, 0]	n/a	catFR1	6	R1530J
699.55	1.564	827277	REC_WORD	1.564	n/a	COLANDER	KitchenTools	5	5	[0, 0, 0]	n/a	catFR1	6	R1530J
701.114	1.04	828840	REC_WORD	1.04	n/a	GRATER	KitchenTools	12	5	[0, 0, 0]	n/a	catFR1	6	R1530J
702.154	3.573	829880	REC_WORD	3.573	n/a	CORKSCREW	KitchenTools	6	5	[0, 0, 0]	n/a	catFR1	6	R1530J
705.727	0.616	833453	REC_WORD	0.616	n/a	PAPER	OfficeSupplies	10	5	[0, 0, 0]	n/a	catFR1	6	R1530J
706.343	0.598	834069	REC_WORD	0.598	n/a	BINDER	OfficeSupplies	1	5	[0, 0, 0]	n/a	catFR1	6	R1530J
706.941	3.854	834667	REC_WORD	3.854	n/a	NOTEBOOK	OfficeSupplies	9	5	[0, 0, 0]	n/a	catFR1	6	R1530J
710.795	3.62	838520	REC_END	n/a	n/a	n/a	n/a	-999	5	[0, 0, 0]	n/a	catFR1	6	R1530J
714.415	10.35	842140	COUNTDOWN_START	n/a	n/a	n/a	n/a	-999	5	[0, 0, 0]	n/a	catFR1	6	R1530J
724.765	0.0	852489	COUNTDOWN_END	n/a	n/a	n/a	n/a	-999	5	[0, 0, 0]	n/a	catFR1	6	R1530J
724.765	2.049	852489	ENCODING_START	n/a	n/a	n/a	n/a	-999	6	[0, 0, 0]	n/a	catFR1	6	R1530J
726.814	1.618	854540	WORD	n/a	wordpools/wordpool_categorized_EN.txt	SHOVEL	Tools	1	6	[0, 0, 0]	n/a	catFR1	6	R1530J
728.432	1.0	856162	WORD_OFF	n/a	n/a	SHOVEL	Tools	1	6	[0, 0, 0]	n/a	catFR1	6	R1530J
729.432	1.599	857154	WORD	n/a	wordpools/wordpool_categorized_EN.txt	WRENCH	Tools	2	6	[0, 0, 0]	n/a	catFR1	6	R1530J
731.031	0.767	858749	WORD_OFF	n/a	n/a	WRENCH	Tools	2	6	[0, 0, 0]	n/a	catFR1	6	R1530J
731.798	1.617	859527	WORD	n/a	wordpools/wordpool_categorized_EN.txt	WHISK	KitchenTools	3	6	[0, 0, 0]	n/a	catFR1	6	R1530J
733.415	0.883	861135	WORD_OFF	n/a	n/a	WHISK	KitchenTools	3	6	[0, 0, 0]	n/a	catFR1	6	R1530J
734.298	1.618	862020	WORD	n/a	wordpools/wordpool_categorized_EN.txt	LADLE	KitchenTools	4	6	[0, 0, 0]	n/a	catFR1	6	R1530J
735.916	0.765	863642	WORD_OFF	n/a	n/a	LADLE	KitchenTools	4	6	[0, 0, 0]	n/a	catFR1	6	R1530J
736.681	1.601	864406	WORD	n/a	wordpools/wordpool_categorized_EN.txt	FOLDER	OfficeSupplies	5	6	[0, 0, 0]	n/a	catFR1	6	R1530J
738.282	0.766	866001	WORD_OFF	n/a	n/a	FOLDER	OfficeSupplies	5	6	[0, 0, 0]	n/a	catFR1	6	R1530J
739.048	1.601	866765	WORD	n/a	wordpools/wordpool_categorized_EN.txt	STAPLER	OfficeSupplies	6	6	[0, 0, 0]	n/a	catFR1	6	R1530J
740.649	0.882	868374	WORD_OFF	n/a	n/a	STAPLER	OfficeSupplies	6	6	[0, 0, 0]	n/a	catFR1	6	R1530J
741.531	1.601	869259	WORD	n/a	wordpools/wordpool_categorized_EN.txt	SAW	Tools	7	6	[0, 0, 0]	n/a	catFR1	6	R1530J
743.132	1.0	870854	WORD_OFF	n/a	n/a	SAW	Tools	7	6	[0, 0, 0]	n/a	catFR1	6	R1530J
744.132	1.616	871860	WORD	n/a	wordpools/wordpool_categorized_EN.txt	PLIERS	Tools	8	6	[0, 0, 0]	n/a	catFR1	6	R1530J
745.748	0.766	873468	WORD_OFF	n/a	n/a	PLIERS	Tools	8	6	[0, 0, 0]	n/a	catFR1	6	R1530J
746.514	1.616	874232	WORD	n/a	wordpools/wordpool_categorized_EN.txt	SPOON	KitchenTools	9	6	[0, 0, 0]	n/a	catFR1	6	R1530J
748.13	0.901	875854	WORD_OFF	n/a	n/a	SPOON	KitchenTools	9	6	[0, 0, 0]	n/a	catFR1	6	R1530J
749.031	1.617	876752	WORD	n/a	wordpools/wordpool_categorized_EN.txt	PEELER	KitchenTools	10	6	[0, 0, 0]	n/a	catFR1	6	R1530J
750.648	0.783	878375	WORD_OFF	n/a	n/a	PEELER	KitchenTools	10	6	[0, 0, 0]	n/a	catFR1	6	R1530J
751.431	1.617	879152	WORD	n/a	wordpools/wordpool_categorized_EN.txt	ERASER	OfficeSupplies	11	6	[0, 0, 0]	n/a	catFR1	6	R1530J
753.048	0.833	880774	WORD_OFF	n/a	n/a	ERASER	OfficeSupplies	11	6	[0, 0, 0]	n/a	catFR1	6	R1530J
753.881	1.617	881605	WORD	n/a	wordpools/wordpool_categorized_EN.txt	PEN	OfficeSupplies	12	6	[0, 0, 0]	n/a	catFR1	6	R1530J
755.498	0.001	883221	PROB	0.001	n/a	n/a	n/a	-999	6	[5, 6, 1]	12	catFR1	6	R1530J
755.499	0.0	883222	START	n/a	n/a	n/a	n/a	-999	6	[-999, -999, -999]	n/a	catFR1	6	R1530J
755.498	0.001	883227	WORD_OFF	n/a	n/a	PEN	OfficeSupplies	12	6	[0, 0, 0]	n/a	catFR1	6	R1530J
755.499	0.0	883227	ENCODING_END	n/a	n/a	n/a	n/a	-999	6	[0, 0, 0]	n/a	catFR1	6	R1530J
755.499	5.216	883227	DISTRACT_START	n/a	n/a	n/a	n/a	-999	6	[0, 0, 0]	n/a	catFR1	6	R1530J
760.715	3.617	888438	PROB	3.617	n/a	n/a	n/a	-999	6	[7, 2, 5]	14	catFR1	6	R1530J
764.332	3.45	892055	PROB	3.45	n/a	n/a	n/a	-999	6	[3, 2, 8]	13	catFR1	6	R1530J
767.782	5.083	895505	PROB	5.083	n/a	n/a	n/a	-999	6	[6, 4, 7]	17	catFR1	6	R1530J
772.865	3.099	900588	PROB	3.099	n/a	n/a	n/a	-999	6	[7, 6, 7]	20	catFR1	6	R1530J
775.964	0.0	903684	DISTRACT_END	n/a	n/a	n/a	n/a	-999	6	[0, 0, 0]	n/a	catFR1	6	R1530J
775.964	1.885	903686	STOP	n/a	n/a	n/a	n/a	-999	6	[-999, -999, -999]	n/a	catFR1	6	R1530J
777.849	1.567	905574	REC_START	n/a	n/a	n/a	n/a	-999	6	[0, 0, 0]	n/a	catFR1	6	R1530J
779.416	1.733	907138	REC_WORD	1.733	n/a	PEN	OfficeSupplies	12	6	[0, 0, 0]	n/a	catFR1	6	R1530J
781.149	1.709	908871	REC_WORD	1.709	n/a	PAPER	OfficeSupplies	-999	6	[0, 0, 0]	n/a	catFR1	6	R1530J
782.858	4.408	910580	REC_WORD	4.408	n/a	ERASER	OfficeSupplies	11	6	[0, 0, 0]	n/a	catFR1	6	R1530J
787.266	1.568	914988	REC_WORD	1.568	n/a	SAW	Tools	7	6	[0, 0, 0]	n/a	catFR1	6	R1530J
788.834	1.0	916556	REC_WORD	1.0	n/a	PLIERS	Tools	8	6	[0, 0, 0]	n/a	catFR1	6	R1530J
789.834	5.118	917556	REC_WORD_VV	5.118	n/a	<>	n/a	-999	6	[0, 0, 0]	n/a	catFR1	6	R1530J
794.952	0.617	922673	REC_WORD	0.617	n/a	SAW	Tools	7	6	[0, 0, 0]	n/a	catFR1	6	R1530J
795.569	1.583	923290	REC_WORD	1.583	n/a	PLIERS	Tools	8	6	[0, 0, 0]	n/a	catFR1	6	R1530J
797.152	0.355	924873	REC_WORD	0.355	n/a	PEN	OfficeSupplies	12	6	[0, 0, 0]	n/a	catFR1	6	R1530J
797.507	0.421	925228	REC_WORD	0.421	n/a	PAPER	OfficeSupplies	-999	6	[0, 0, 0]	n/a	catFR1	6	R1530J
797.928	7.901	925649	REC_WORD	7.901	n/a	ERASER	OfficeSupplies	11	6	[0, 0, 0]	n/a	catFR1	6	R1530J
805.829	0.813	933550	REC_WORD	0.813	n/a	BINDER	OfficeSupplies	-999	6	[0, 0, 0]	n/a	catFR1	6	R1530J
806.642	1.388	934363	REC_WORD	1.388	n/a	FOLDER	OfficeSupplies	5	6	[0, 0, 0]	n/a	catFR1	6	R1530J
808.03	1.968	935750	REC_END	n/a	n/a	n/a	n/a	-999	6	[0, 0, 0]	n/a	catFR1	6	R1530J
809.998	10.351	937720	COUNTDOWN_START	n/a	n/a	n/a	n/a	-999	6	[0, 0, 0]	n/a	catFR1	6	R1530J
820.349	0.0	948069	COUNTDOWN_END	n/a	n/a	n/a	n/a	-999	6	[0, 0, 0]	n/a	catFR1	6	R1530J
820.349	2.366	948069	ENCODING_START	n/a	n/a	n/a	n/a	-999	7	[0, 0, 0]	n/a	catFR1	6	R1530J
822.715	1.6	950429	WORD	n/a	wordpools/wordpool_categorized_EN.txt	SOCKS	Clothing	1	7	[0, 0, 0]	n/a	catFR1	6	R1530J
824.315	1.0	952037	WORD_OFF	n/a	n/a	SOCKS	Clothing	1	7	[0, 0, 0]	n/a	catFR1	6	R1530J
825.315	1.601	953029	WORD	n/a	wordpools/wordpool_categorized_EN.txt	PANTS	Clothing	2	7	[0, 0, 0]	n/a	catFR1	6	R1530J
826.916	0.799	954638	WORD_OFF	n/a	n/a	PANTS	Clothing	2	7	[0, 0, 0]	n/a	catFR1	6	R1530J
827.715	1.616	955429	WORD	n/a	wordpools/wordpool_categorized_EN.txt	ISLAND	Landscapes	3	7	[0, 0, 0]	n/a	catFR1	6	R1530J
829.331	0.934	957051	WORD_OFF	n/a	n/a	ISLAND	Landscapes	3	7	[0, 0, 0]	n/a	catFR1	6	R1530J
830.265	1.617	957989	WORD	n/a	wordpools/wordpool_categorized_EN.txt	FOREST	Landscapes	4	7	[0, 0, 0]	n/a	catFR1	6	R1530J
831.882	0.767	959598	WORD_OFF	n/a	n/a	FOREST	Landscapes	4	7	[0, 0, 0]	n/a	catFR1	6	R1530J
832.649	1.615	960362	WORD	n/a	wordpools/wordpool_categorized_EN.txt	LADYBUG	Insects	5	7	[0, 0, 0]	n/a	catFR1	6	R1530J
834.264	0.833	961984	WORD_OFF	n/a	n/a	LADYBUG	Insects	5	7	[0, 0, 0]	n/a	catFR1	6	R1530J
835.097	1.602	962815	WORD	n/a	wordpools/wordpool_categorized_EN.txt	MOTH	Insects	6	7	[0, 0, 0]	n/a	catFR1	6	R1530J
836.699	0.898	964424	WORD_OFF	n/a	n/a	MOTH	Insects	6	7	[0, 0, 0]	n/a	catFR1	6	R1530J
837.597	1.601	965308	WORD	n/a	wordpools/wordpool_categorized_EN.txt	MOUNTAIN	Landscapes	7	7	[0, 0, 0]	n/a	catFR1	6	R1530J
839.198	0.951	966917	WORD_OFF	n/a	n/a	MOUNTAIN	Landscapes	7	7	[0, 0, 0]	n/a	catFR1	6	R1530J
840.149	1.615	967869	WORD	n/a	wordpools/wordpool_categorized_EN.txt	HILLS	Landscapes	8	7	[0, 0, 0]	n/a	catFR1	6	R1530J
841.764	0.883	969478	WORD_OFF	n/a	n/a	HILLS	Landscapes	8	7	[0, 0, 0]	n/a	catFR1	6	R1530J
842.647	1.6	970362	WORD	n/a	wordpools/wordpool_categorized_EN.txt	JACKET	Clothing	9	7	[0, 0, 0]	n/a	catFR1	6	R1530J
844.247	0.8	971971	WORD_OFF	n/a	n/a	JACKET	Clothing	9	7	[0, 0, 0]	n/a	catFR1	6	R1530J
845.047	1.6	972762	WORD	n/a	wordpools/wordpool_categorized_EN.txt	JEANS	Clothing	10	7	[0, 0, 0]	n/a	catFR1	6	R1530J
846.647	0.951	974371	WORD_OFF	n/a	n/a	JEANS	Clothing	10	7	[0, 0, 0]	n/a	catFR1	6	R1530J
847.598	1.6	975322	WORD	n/a	wordpools/wordpool_categorized_EN.txt	SPIDER	Insects	11	7	[0, 0, 0]	n/a	catFR1	6	R1530J
849.198	0.882	976918	WORD_OFF	n/a	n/a	SPIDER	Insects	11	7	[0, 0, 0]	n/a	catFR1	6	R1530J
850.08	1.601	977802	WORD	n/a	wordpools/wordpool_categorized_EN.txt	ROACH	Insects	12	7	[0, 0, 0]	n/a	catFR1	6	R1530J
851.681	0.002	979398	WORD_OFF	n/a	n/a	ROACH	Insects	12	7	[0, 0, 0]	n/a	catFR1	6	R1530J
851.683	0.0	979398	ENCODING_END	n/a	n/a	n/a	n/a	-999	7	[0, 0, 0]	n/a	catFR1	6	R1530J
851.683	0.0	979398	DISTRACT_START	n/a	n/a	n/a	n/a	-999	7	[0, 0, 0]	n/a	catFR1	6	R1530J
851.681	0.002	979399	PROB	0.002	n/a	n/a	n/a	-999	7	[2, 5, 5]	12	catFR1	6	R1530J
851.683	4.082	979401	START	n/a	n/a	n/a	n/a	-999	7	[-999, -999, -999]	n/a	catFR1	6	R1530J
855.765	3.967	983483	PROB	3.967	n/a	n/a	n/a	-999	7	[6, 8, 3]	17	catFR1	6	R1530J
859.732	3.899	987450	PROB	3.899	n/a	n/a	n/a	-999	7	[2, 2, 6]	10	catFR1	6	R1530J
863.631	3.334	991349	PROB	3.334	n/a	n/a	n/a	-999	7	[2, 8, 3]	13	catFR1	6	R1530J
866.965	2.45	994683	PROB	2.45	n/a	n/a	n/a	-999	7	[3, 3, 3]	9	catFR1	6	R1530J
869.415	4.033	997132	PROB	4.033	n/a	n/a	n/a	-999	7	[5, 8, 2]	15	catFR1	6	R1530J
873.448	0.0	1001165	STOP	n/a	n/a	n/a	n/a	-999	7	[-999, -999, -999]	n/a	catFR1	6	R1530J
873.448	1.783	1001168	DISTRACT_END	n/a	n/a	n/a	n/a	-999	7	[0, 0, 0]	n/a	catFR1	6	R1530J
875.231	1.431	1002951	REC_START	n/a	n/a	n/a	n/a	-999	7	[0, 0, 0]	n/a	catFR1	6	R1530J
876.662	1.18	1004379	REC_WORD	1.18	n/a	MOTH	Insects	6	7	[0, 0, 0]	n/a	catFR1	6	R1530J
877.842	1.015	1005559	REC_WORD	1.015	n/a	ROACH	Insects	12	7	[0, 0, 0]	n/a	catFR1	6	R1530J
878.857	3.471	1006574	REC_WORD	3.471	n/a	SPIDER	Insects	11	7	[0, 0, 0]	n/a	catFR1	6	R1530J
882.328	0.9	1010045	REC_WORD	0.9	n/a	ROACH	Insects	12	7	[0, 0, 0]	n/a	catFR1	6	R1530J
883.228	2.429	1010945	REC_WORD	2.429	n/a	SPIDER	Insects	11	7	[0, 0, 0]	n/a	catFR1	6	R1530J
885.657	2.559	1013373	REC_WORD	2.559	n/a	PLIERS	Tools	-999	7	[0, 0, 0]	n/a	catFR1	6	R1530J
888.216	1.633	1015932	REC_WORD	1.633	n/a	PANTS	Clothing	2	7	[0, 0, 0]	n/a	catFR1	6	R1530J
889.849	4.958	1017565	REC_WORD	4.958	n/a	JEANS	Clothing	10	7	[0, 0, 0]	n/a	catFR1	6	R1530J
894.807	10.604	1022523	REC_WORD	10.604	n/a	SHORTS	Clothing	-999	7	[0, 0, 0]	n/a	catFR1	6	R1530J
905.411	1.538	1033126	REC_END	n/a	n/a	n/a	n/a	-999	7	[0, 0, 0]	n/a	catFR1	6	R1530J
906.949	10.349	1034668	COUNTDOWN_START	n/a	n/a	n/a	n/a	-999	7	[0, 0, 0]	n/a	catFR1	6	R1530J
917.298	0.0	1045017	COUNTDOWN_END	n/a	n/a	n/a	n/a	-999	7	[0, 0, 0]	n/a	catFR1	6	R1530J
917.298	2.051	1045017	ENCODING_START	n/a	n/a	n/a	n/a	-999	8	[0, 0, 0]	n/a	catFR1	6	R1530J
919.349	1.616	1047068	WORD	n/a	wordpools/wordpool_categorized_EN.txt	KNIFE	KitchenTools	1	8	[0, 0, 0]	n/a	catFR1	6	R1530J
920.965	0.883	1048677	WORD_OFF	n/a	n/a	KNIFE	KitchenTools	1	8	[0, 0, 0]	n/a	catFR1	6	R1530J
921.848	1.6	1049561	WORD	n/a	wordpools/wordpool_categorized_EN.txt	STRAINER	KitchenTools	2	8	[0, 0, 0]	n/a	catFR1	6	R1530J
923.448	0.849	1051157	WORD_OFF	n/a	n/a	STRAINER	KitchenTools	2	8	[0, 0, 0]	n/a	catFR1	6	R1530J
924.297	1.602	1052015	WORD	n/a	wordpools/wordpool_categorized_EN.txt	ROBIN	Birds	3	8	[0, 0, 0]	n/a	catFR1	6	R1530J
925.899	0.999	1053610	WORD_OFF	n/a	n/a	ROBIN	Birds	3	8	[0, 0, 0]	n/a	catFR1	6	R1530J
926.898	1.616	1054615	WORD	n/a	wordpools/wordpool_categorized_EN.txt	GOOSE	Birds	4	8	[0, 0, 0]	n/a	catFR1	6	R1530J
928.514	0.768	1056224	WORD_OFF	n/a	n/a	GOOSE	Birds	4	8	[0, 0, 0]	n/a	catFR1	6	R1530J
929.282	1.616	1057001	WORD	n/a	wordpools/wordpool_categorized_EN.txt	FOG	Weather	5	8	[0, 0, 0]	n/a	catFR1	6	R1530J
930.898	0.984	1058610	WORD_OFF	n/a	n/a	FOG	Weather	5	8	[0, 0, 0]	n/a	catFR1	6	R1530J
931.882	1.615	1059589	WORD	n/a	wordpools/wordpool_categorized_EN.txt	LIGHTNING	Weather	6	8	[0, 0, 0]	n/a	catFR1	6	R1530J
933.497	0.901	1061211	WORD_OFF	n/a	n/a	LIGHTNING	Weather	6	8	[0, 0, 0]	n/a	catFR1	6	R1530J
934.398	1.6	1062109	WORD	n/a	wordpools/wordpool_categorized_EN.txt	TONGS	KitchenTools	7	8	[0, 0, 0]	n/a	catFR1	6	R1530J
935.998	1.0	1063718	WORD_OFF	n/a	n/a	TONGS	KitchenTools	7	8	[0, 0, 0]	n/a	catFR1	6	R1530J
936.998	1.616	1064710	WORD	n/a	wordpools/wordpool_categorized_EN.txt	FORK	KitchenTools	8	8	[0, 0, 0]	n/a	catFR1	6	R1530J
938.614	0.916	1066332	WORD_OFF	n/a	n/a	FORK	KitchenTools	8	8	[0, 0, 0]	n/a	catFR1	6	R1530J
939.53	1.6	1067243	WORD	n/a	wordpools/wordpool_categorized_EN.txt	TORNADO	Weather	9	8	[0, 0, 0]	n/a	catFR1	6	R1530J
941.13	0.835	1068838	WORD_OFF	n/a	n/a	TORNADO	Weather	9	8	[0, 0, 0]	n/a	catFR1	6	R1530J
941.965	1.617	1069683	WORD	n/a	wordpools/wordpool_categorized_EN.txt	SNOW	Weather	10	8	[0, 0, 0]	n/a	catFR1	6	R1530J
943.582	1.0	1071292	WORD_OFF	n/a	n/a	SNOW	Weather	10	8	[0, 0, 0]	n/a	catFR1	6	R1530J
944.582	1.615	1072297	WORD	n/a	wordpools/wordpool_categorized_EN.txt	HAWK	Birds	11	8	[0, 0, 0]	n/a	catFR1	6	R1530J
946.197	0.851	1073906	WORD_OFF	n/a	n/a	HAWK	Birds	11	8	[0, 0, 0]	n/a	catFR1	6	R1530J
947.048	1.616	1074764	WORD	n/a	wordpools/wordpool_categorized_EN.txt	BLUEBIRD	Birds	12	8	[0, 0, 0]	n/a	catFR1	6	R1530J
948.664	0.001	1076372	WORD_OFF	n/a	n/a	BLUEBIRD	Birds	12	8	[0, 0, 0]	n/a	catFR1	6	R1530J
948.665	0.0	1076372	ENCODING_END	n/a	n/a	n/a	n/a	-999	8	[0, 0, 0]	n/a	catFR1	6	R1530J
948.665	0.0	1076378	START	n/a	n/a	n/a	n/a	-999	8	[-999, -999, -999]	n/a	catFR1	6	R1530J
948.665	0.0	1076378	PROB	0.0	n/a	n/a	n/a	-999	8	[2, 1, 2]	5	catFR1	6	R1530J
948.665	4.217	1076386	DISTRACT_START	n/a	n/a	n/a	n/a	-999	8	[0, 0, 0]	n/a	catFR1	6	R1530J
952.882	10.132	1080595	PROB	10.132	n/a	n/a	n/a	-999	8	[5, 7, 8]	20	catFR1	6	R1530J
963.014	3.717	1090726	PROB	3.717	n/a	n/a	n/a	-999	8	[2, 4, 3]	9	catFR1	6	R1530J
966.731	3.617	1094443	PROB	3.617	n/a	n/a	n/a	-999	8	[7, 2, 1]	10	catFR1	6	R1530J
970.348	0.0	1098060	STOP	n/a	n/a	n/a	n/a	-999	8	[-999, -999, -999]	n/a	catFR1	6	R1530J
970.348	1.799	1098062	DISTRACT_END	n/a	n/a	n/a	n/a	-999	8	[0, 0, 0]	n/a	catFR1	6	R1530J
972.147	0.99	1099858	REC_START	n/a	n/a	n/a	n/a	-999	8	[0, 0, 0]	n/a	catFR1	6	R1530J
973.137	1.222	1100849	REC_WORD	1.222	n/a	HAWK	Birds	11	8	[0, 0, 0]	n/a	catFR1	6	R1530J
974.359	1.131	1102071	REC_WORD	1.131	n/a	BLUEBIRD	Birds	12	8	[0, 0, 0]	n/a	catFR1	6	R1530J
975.49	1.568	1103202	REC_WORD	1.568	n/a	TORNADO	Weather	9	8	[0, 0, 0]	n/a	catFR1	6	R1530J
977.058	1.902	1104770	REC_WORD	1.902	n/a	FOG	Weather	5	8	[0, 0, 0]	n/a	catFR1	6	R1530J
978.96	2.169	1106671	REC_WORD	2.169	n/a	MOUNTAIN	Landscapes	-999	8	[0, 0, 0]	n/a	catFR1	6	R1530J
981.129	4.73	1108840	REC_WORD	4.73	n/a	LADYBUG	Insects	-999	8	[0, 0, 0]	n/a	catFR1	6	R1530J
985.859	0.487	1113570	REC_WORD	0.487	n/a	HAWK	Birds	11	8	[0, 0, 0]	n/a	catFR1	6	R1530J
986.346	0.967	1114057	REC_WORD	0.967	n/a	BLUEBIRD	Birds	12	8	[0, 0, 0]	n/a	catFR1	6	R1530J
987.313	0.67	1115024	REC_WORD	0.67	n/a	MOUNTAIN	Landscapes	-999	8	[0, 0, 0]	n/a	catFR1	6	R1530J
987.983	1.61	1115694	REC_WORD	1.61	n/a	FOG	Weather	5	8	[0, 0, 0]	n/a	catFR1	6	R1530J
989.593	1.541	1117304	REC_WORD	1.541	n/a	HILLS	Landscapes	-999	8	[0, 0, 0]	n/a	catFR1	6	R1530J
991.134	4.128	1118845	REC_WORD_VV	4.128	n/a	<>	n/a	-999	8	[0, 0, 0]	n/a	catFR1	6	R1530J
995.262	2.896	1122973	REC_WORD	2.896	n/a	TORNADO	Weather	9	8	[0, 0, 0]	n/a	catFR1	6	R1530J
998.158	4.181	1125868	REC_WORD	4.181	n/a	MOUNTAIN	Landscapes	-999	8	[0, 0, 0]	n/a	catFR1	6	R1530J
1002.339	1.177	1130047	REC_END	n/a	n/a	n/a	n/a	-999	8	[0, 0, 0]	n/a	catFR1	6	R1530J
1003.516	10.349	1131227	COUNTDOWN_START	n/a	n/a	n/a	n/a	-999	8	[0, 0, 0]	n/a	catFR1	6	R1530J
1013.865	0.0	1141576	COUNTDOWN_END	n/a	n/a	n/a	n/a	-999	8	[0, 0, 0]	n/a	catFR1	6	R1530J
1013.865	2.015	1141576	ENCODING_START	n/a	n/a	n/a	n/a	-999	9	[0, 0, 0]	n/a	catFR1	6	R1530J
1015.88	1.601	1143587	WORD	n/a	wordpools/wordpool_categorized_EN.txt	BEAR	Zoo	1	9	[0, 0, 0]	n/a	catFR1	6	R1530J
1017.481	0.833	1145195	WORD_OFF	n/a	n/a	BEAR	Zoo	1	9	[0, 0, 0]	n/a	catFR1	6	R1530J
1018.314	1.601	1146027	WORD	n/a	wordpools/wordpool_categorized_EN.txt	CHIMPANZEE	Zoo	2	9	[0, 0, 0]	n/a	catFR1	6	R1530J
1019.915	0.8	1147622	WORD_OFF	n/a	n/a	CHIMPANZEE	Zoo	2	9	[0, 0, 0]	n/a	catFR1	6	R1530J
1020.715	1.6	1148426	WORD	n/a	wordpools/wordpool_categorized_EN.txt	VALLEY	Landscapes	3	9	[0, 0, 0]	n/a	catFR1	6	R1530J
1022.315	0.765	1150021	WORD_OFF	n/a	n/a	VALLEY	Landscapes	3	9	[0, 0, 0]	n/a	catFR1	6	R1530J
1023.08	1.619	1150786	WORD	n/a	wordpools/wordpool_categorized_EN.txt	CREEK	Landscapes	4	9	[0, 0, 0]	n/a	catFR1	6	R1530J
1024.699	0.999	1152408	WORD_OFF	n/a	n/a	CREEK	Landscapes	4	9	[0, 0, 0]	n/a	catFR1	6	R1530J
1025.698	1.601	1153413	WORD	n/a	wordpools/wordpool_categorized_EN.txt	DOVE	Birds	5	9	[0, 0, 0]	n/a	catFR1	6	R1530J
1027.299	0.865	1155008	WORD_OFF	n/a	n/a	DOVE	Birds	5	9	[0, 0, 0]	n/a	catFR1	6	R1530J
1028.164	1.601	1155866	WORD	n/a	wordpools/wordpool_categorized_EN.txt	SPARROW	Birds	6	9	[0, 0, 0]	n/a	catFR1	6	R1530J
1029.765	0.834	1157475	WORD_OFF	n/a	n/a	SPARROW	Birds	6	9	[0, 0, 0]	n/a	catFR1	6	R1530J
1030.599	1.616	1158306	WORD	n/a	wordpools/wordpool_categorized_EN.txt	PANDA	Zoo	7	9	[0, 0, 0]	n/a	catFR1	6	R1530J
1032.215	1.0	1159928	WORD_OFF	n/a	n/a	PANDA	Zoo	7	9	[0, 0, 0]	n/a	catFR1	6	R1530J
1033.215	1.6	1160920	WORD	n/a	wordpools/wordpool_categorized_EN.txt	ELEPHANT	Zoo	8	9	[0, 0, 0]	n/a	catFR1	6	R1530J
1034.815	0.817	1162529	WORD_OFF	n/a	n/a	ELEPHANT	Zoo	8	9	[0, 0, 0]	n/a	catFR1	6	R1530J
1035.632	1.599	1163333	WORD	n/a	wordpools/wordpool_categorized_EN.txt	WOODS	Landscapes	9	9	[0, 0, 0]	n/a	catFR1	6	R1530J
1037.231	0.967	1164942	WORD_OFF	n/a	n/a	WOODS	Landscapes	9	9	[0, 0, 0]	n/a	catFR1	6	R1530J
1038.198	1.616	1165907	WORD	n/a	wordpools/wordpool_categorized_EN.txt	STREAM	Landscapes	10	9	[0, 0, 0]	n/a	catFR1	6	R1530J
1039.814	0.984	1167515	WORD_OFF	n/a	n/a	STREAM	Landscapes	10	9	[0, 0, 0]	n/a	catFR1	6	R1530J
1040.798	1.616	1168507	WORD	n/a	wordpools/wordpool_categorized_EN.txt	CARDINAL	Birds	11	9	[0, 0, 0]	n/a	catFR1	6	R1530J
1042.414	0.983	1170116	WORD_OFF	n/a	n/a	CARDINAL	Birds	11	9	[0, 0, 0]	n/a	catFR1	6	R1530J
1043.397	1.601	1171108	WORD	n/a	wordpools/wordpool_categorized_EN.txt	DUCK	Birds	12	9	[0, 0, 0]	n/a	catFR1	6	R1530J
1044.998	0.001	1172703	WORD_OFF	n/a	n/a	DUCK	Birds	12	9	[0, 0, 0]	n/a	catFR1	6	R1530J
1044.999	0.0	1172703	ENCODING_END	n/a	n/a	n/a	n/a	-999	9	[0, 0, 0]	n/a	catFR1	6	R1530J
1044.999	0.0	1172703	DISTRACT_START	n/a	n/a	n/a	n/a	-999	9	[0, 0, 0]	n/a	catFR1	6	R1530J
1044.999	0.0	1172707	START	n/a	n/a	n/a	n/a	-999	9	[-999, -999, -999]	n/a	catFR1	6	R1530J
1044.999	5.883	1172707	PROB	5.883	n/a	n/a	n/a	-999	9	[6, 3, 7]	16	catFR1	6	R1530J
1050.882	2.75	1178590	PROB	2.75	n/a	n/a	n/a	-999	9	[3, 8, 1]	12	catFR1	6	R1530J
1053.632	2.866	1181339	PROB	2.866	n/a	n/a	n/a	-999	9	[4, 3, 1]	8	catFR1	6	R1530J
1056.498	3.017	1184205	PROB	3.017	n/a	n/a	n/a	-999	9	[1, 2, 7]	10	catFR1	6	R1530J
1059.515	2.549	1187222	PROB	2.549	n/a	n/a	n/a	-999	9	[2, 2, 8]	12	catFR1	6	R1530J
1062.064	3.101	1189771	PROB	3.101	n/a	n/a	n/a	-999	9	[6, 5, 6]	17	catFR1	6	R1530J
1065.165	0.0	1192865	DISTRACT_END	n/a	n/a	n/a	n/a	-999	9	[0, 0, 0]	n/a	catFR1	6	R1530J
1065.165	1.666	1192872	STOP	n/a	n/a	n/a	n/a	-999	9	[-999, -999, -999]	n/a	catFR1	6	R1530J
1066.831	1.049	1194541	REC_START	n/a	n/a	n/a	n/a	-999	9	[0, 0, 0]	n/a	catFR1	6	R1530J
1067.88	1.508	1195587	REC_WORD	1.508	n/a	CARDINAL	Birds	11	9	[0, 0, 0]	n/a	catFR1	6	R1530J
1069.388	1.537	1197095	REC_WORD	1.537	n/a	DUCK	Birds	12	9	[0, 0, 0]	n/a	catFR1	6	R1530J
1070.925	2.541	1198632	REC_WORD	2.541	n/a	SPARROW	Birds	6	9	[0, 0, 0]	n/a	catFR1	6	R1530J
1073.466	3.964	1201172	REC_WORD	3.964	n/a	DOVE	Birds	5	9	[0, 0, 0]	n/a	catFR1	6	R1530J
1077.43	1.64	1205136	REC_WORD	1.64	n/a	VALLEY	Landscapes	3	9	[0, 0, 0]	n/a	catFR1	6	R1530J
1079.07	17.96	1206776	REC_WORD	17.96	n/a	STREAM	Landscapes	10	9	[0, 0, 0]	n/a	catFR1	6	R1530J
1097.03	1.785	1224730	REC_END	n/a	n/a	n/a	n/a	-999	9	[0, 0, 0]	n/a	catFR1	6	R1530J
1098.815	10.349	1226526	COUNTDOWN_START	n/a	n/a	n/a	n/a	-999	9	[0, 0, 0]	n/a	catFR1	6	R1530J
1109.164	0.0	1236862	COUNTDOWN_END	n/a	n/a	n/a	n/a	-999	9	[0, 0, 0]	n/a	catFR1	6	R1530J
1109.164	1.984	1236875	ENCODING_START	n/a	n/a	n/a	n/a	-999	10	[0, 0, 0]	n/a	catFR1	6	R1530J
1111.148	1.616	1238846	WORD	n/a	wordpools/wordpool_categorized_EN.txt	RIVER	Landscapes	1	10	[0, 0, 0]	n/a	catFR1	6	R1530J
1112.764	0.935	1240468	WORD_OFF	n/a	n/a	RIVER	Landscapes	1	10	[0, 0, 0]	n/a	catFR1	6	R1530J
1113.699	1.6	1241406	WORD	n/a	wordpools/wordpool_categorized_EN.txt	OCEAN	Landscapes	2	10	[0, 0, 0]	n/a	catFR1	6	R1530J
1115.299	0.799	1243001	WORD_OFF	n/a	n/a	OCEAN	Landscapes	2	10	[0, 0, 0]	n/a	catFR1	6	R1530J
1116.098	1.6	1243806	WORD	n/a	wordpools/wordpool_categorized_EN.txt	CROW	Birds	3	10	[0, 0, 0]	n/a	catFR1	6	R1530J
1117.698	0.867	1245401	WORD_OFF	n/a	n/a	CROW	Birds	3	10	[0, 0, 0]	n/a	catFR1	6	R1530J
1118.565	1.6	1246272	WORD	n/a	wordpools/wordpool_categorized_EN.txt	SEAGULL	Birds	4	10	[0, 0, 0]	n/a	catFR1	6	R1530J
1120.165	0.783	1247867	WORD_OFF	n/a	n/a	SEAGULL	Birds	4	10	[0, 0, 0]	n/a	catFR1	6	R1530J
1120.948	1.617	1248645	WORD	n/a	wordpools/wordpool_categorized_EN.txt	CHEETAH	Zoo	5	10	[0, 0, 0]	n/a	catFR1	6	R1530J
1122.565	0.999	1250267	WORD_OFF	n/a	n/a	CHEETAH	Zoo	5	10	[0, 0, 0]	n/a	catFR1	6	R1530J
1123.564	1.601	1251272	WORD	n/a	wordpools/wordpool_categorized_EN.txt	ORANGUTAN	Zoo	6	10	[0, 0, 0]	n/a	catFR1	6	R1530J
1125.165	0.85	1252868	WORD_OFF	n/a	n/a	ORANGUTAN	Zoo	6	10	[0, 0, 0]	n/a	catFR1	6	R1530J
1126.015	1.6	1253712	WORD	n/a	wordpools/wordpool_categorized_EN.txt	BEACH	Landscapes	7	10	[0, 0, 0]	n/a	catFR1	6	R1530J
1127.615	0.883	1255321	WORD_OFF	n/a	n/a	BEACH	Landscapes	7	10	[0, 0, 0]	n/a	catFR1	6	R1530J
1128.498	1.6	1256206	WORD	n/a	wordpools/wordpool_categorized_EN.txt	LAKE	Landscapes	8	10	[0, 0, 0]	n/a	catFR1	6	R1530J
1130.098	0.816	1257801	WORD_OFF	n/a	n/a	LAKE	Landscapes	8	10	[0, 0, 0]	n/a	catFR1	6	R1530J
1130.914	1.6	1258619	WORD	n/a	wordpools/wordpool_categorized_EN.txt	PIGEON	Birds	9	10	[0, 0, 0]	n/a	catFR1	6	R1530J
1132.514	0.934	1260214	WORD_OFF	n/a	n/a	PIGEON	Birds	9	10	[0, 0, 0]	n/a	catFR1	6	R1530J
1133.448	1.615	1261152	WORD	n/a	wordpools/wordpool_categorized_EN.txt	FINCH	Birds	10	10	[0, 0, 0]	n/a	catFR1	6	R1530J
1135.063	0.985	1262761	WORD_OFF	n/a	n/a	FINCH	Birds	10	10	[0, 0, 0]	n/a	catFR1	6	R1530J
1136.048	1.616	1263753	WORD	n/a	wordpools/wordpool_categorized_EN.txt	GORILLA	Zoo	11	10	[0, 0, 0]	n/a	catFR1	6	R1530J
1137.664	0.85	1265361	WORD_OFF	n/a	n/a	GORILLA	Zoo	11	10	[0, 0, 0]	n/a	catFR1	6	R1530J
1138.514	1.601	1266219	WORD	n/a	wordpools/wordpool_categorized_EN.txt	TIGER	Zoo	12	10	[0, 0, 0]	n/a	catFR1	6	R1530J
1140.115	0.001	1267815	WORD_OFF	n/a	n/a	TIGER	Zoo	12	10	[0, 0, 0]	n/a	catFR1	6	R1530J
1140.116	0.0	1267815	ENCODING_END	n/a	n/a	n/a	n/a	-999	10	[0, 0, 0]	n/a	catFR1	6	R1530J
1140.116	0.0	1267815	DISTRACT_START	n/a	n/a	n/a	n/a	-999	10	[0, 0, 0]	n/a	catFR1	6	R1530J
1140.115	0.001	1267818	PROB	0.001	n/a	n/a	n/a	-999	10	[3, 4, 2]	9	catFR1	6	R1530J
1140.116	4.649	1267819	START	n/a	n/a	n/a	n/a	-999	10	[-999, -999, -999]	n/a	catFR1	6	R1530J
1144.765	2.983	1272468	PROB	2.983	n/a	n/a	n/a	-999	10	[3, 2, 2]	7	catFR1	6	R1530J
1147.748	3.967	1275450	PROB	3.967	n/a	n/a	n/a	-999	10	[3, 6, 8]	17	catFR1	6	R1530J
1151.715	5.032	1279417	PROB	5.032	n/a	n/a	n/a	-999	10	[7, 5, 1]	13	catFR1	6	R1530J
1156.747	4.485	1284449	PROB	4.485	n/a	n/a	n/a	-999	10	[7, 6, 4]	17	catFR1	6	R1530J
1161.232	0.0	1288928	DISTRACT_END	n/a	n/a	n/a	n/a	-999	10	[0, 0, 0]	n/a	catFR1	6	R1530J
1161.232	1.816	1288934	STOP	n/a	n/a	n/a	n/a	-999	10	[-999, -999, -999]	n/a	catFR1	6	R1530J
1163.048	1.729	1290751	REC_START	n/a	n/a	n/a	n/a	-999	10	[0, 0, 0]	n/a	catFR1	6	R1530J
1164.777	2.206	1292478	REC_WORD	2.206	n/a	FINCH	Birds	10	10	[0, 0, 0]	n/a	catFR1	6	R1530J
1166.983	3.929	1294684	REC_WORD	3.929	n/a	GORILLA	Zoo	11	10	[0, 0, 0]	n/a	catFR1	6	R1530J
1170.912	6.515	1298613	REC_WORD	6.515	n/a	TIGER	Zoo	12	10	[0, 0, 0]	n/a	catFR1	6	R1530J
1177.427	0.746	1305128	REC_WORD_VV	0.746	n/a	<>	n/a	-999	10	[0, 0, 0]	n/a	catFR1	6	R1530J
1178.173	1.0	1305874	REC_WORD	1.0	n/a	FINCH	Birds	10	10	[0, 0, 0]	n/a	catFR1	6	R1530J
1179.173	0.806	1306874	REC_WORD_VV	0.806	n/a	<>	n/a	-999	10	[0, 0, 0]	n/a	catFR1	6	R1530J
1179.979	0.726	1307680	REC_WORD	0.726	n/a	GORILLA	Zoo	11	10	[0, 0, 0]	n/a	catFR1	6	R1530J
1180.705	1.747	1308406	REC_WORD_VV	1.747	n/a	<>	n/a	-999	10	[0, 0, 0]	n/a	catFR1	6	R1530J
1182.452	1.288	1310153	REC_WORD_VV	1.288	n/a	<>	n/a	-999	10	[0, 0, 0]	n/a	catFR1	6	R1530J
1183.74	1.086	1311440	REC_WORD	1.086	n/a	BEACH	Landscapes	7	10	[0, 0, 0]	n/a	catFR1	6	R1530J
1184.826	1.144	1312526	REC_WORD	1.144	n/a	OCEAN	Landscapes	2	10	[0, 0, 0]	n/a	catFR1	6	R1530J
1185.97	7.274	1313670	REC_WORD	7.274	n/a	RIVER	Landscapes	1	10	[0, 0, 0]	n/a	catFR1	6	R1530J
1193.244	1.721	1320940	REC_END	n/a	n/a	n/a	n/a	-999	10	[0, 0, 0]	n/a	catFR1	6	R1530J
1194.965	10.35	1322669	COUNTDOWN_START	n/a	n/a	n/a	n/a	-999	10	[0, 0, 0]	n/a	catFR1	6	R1530J
1205.315	0.0	1333018	COUNTDOWN_END	n/a	n/a	n/a	n/a	-999	10	[0, 0, 0]	n/a	catFR1	6	R1530J
1205.315	2.383	1333018	ENCODING_START	n/a	n/a	n/a	n/a	-999	11	[0, 0, 0]	n/a	catFR1	6	R1530J
1207.698	1.601	1335391	WORD	n/a	wordpools/wordpool_categorized_EN.txt	DRESSER	Furniture	1	11	[0, 0, 0]	n/a	catFR1	6	R1530J
1209.299	0.999	1337000	WORD_OFF	n/a	n/a	DRESSER	Furniture	1	11	[0, 0, 0]	n/a	catFR1	6	R1530J
1210.298	1.618	1337992	WORD	n/a	wordpools/wordpool_categorized_EN.txt	CABINET	Furniture	2	11	[0, 0, 0]	n/a	catFR1	6	R1530J
1211.916	0.899	1339614	WORD_OFF	n/a	n/a	CABINET	Furniture	2	11	[0, 0, 0]	n/a	catFR1	6	R1530J
1212.815	1.6	1340512	WORD	n/a	wordpools/wordpool_categorized_EN.txt	TELEVISION	Electronics	3	11	[0, 0, 0]	n/a	catFR1	6	R1530J
1214.415	0.95	1342107	WORD_OFF	n/a	n/a	TELEVISION	Electronics	3	11	[0, 0, 0]	n/a	catFR1	6	R1530J
1215.365	1.617	1343059	WORD	n/a	wordpools/wordpool_categorized_EN.txt	CALCULATOR	Electronics	4	11	[0, 0, 0]	n/a	catFR1	6	R1530J
1216.982	0.866	1344681	WORD_OFF	n/a	n/a	CALCULATOR	Electronics	4	11	[0, 0, 0]	n/a	catFR1	6	R1530J
1217.848	1.601	1345552	WORD	n/a	wordpools/wordpool_categorized_EN.txt	CABBAGE	Vegetables	5	11	[0, 0, 0]	n/a	catFR1	6	R1530J
1219.449	0.799	1347148	WORD_OFF	n/a	n/a	CABBAGE	Vegetables	5	11	[0, 0, 0]	n/a	catFR1	6	R1530J
1220.248	1.6	1347952	WORD	n/a	wordpools/wordpool_categorized_EN.txt	CELERY	Vegetables	6	11	[0, 0, 0]	n/a	catFR1	6	R1530J
1221.848	0.932	1349547	WORD_OFF	n/a	n/a	CELERY	Vegetables	6	11	[0, 0, 0]	n/a	catFR1	6	R1530J
1222.78	1.601	1350472	WORD	n/a	wordpools/wordpool_categorized_EN.txt	COUCH	Furniture	7	11	[0, 0, 0]	n/a	catFR1	6	R1530J
1224.381	0.9	1352081	WORD_OFF	n/a	n/a	COUCH	Furniture	7	11	[0, 0, 0]	n/a	catFR1	6	R1530J
1225.281	1.601	1352979	WORD	n/a	wordpools/wordpool_categorized_EN.txt	TABLE	Furniture	8	11	[0, 0, 0]	n/a	catFR1	6	R1530J
1226.882	0.783	1354574	WORD_OFF	n/a	n/a	TABLE	Furniture	8	11	[0, 0, 0]	n/a	catFR1	6	R1530J
1227.665	1.615	1355365	WORD	n/a	wordpools/wordpool_categorized_EN.txt	SPINACH	Vegetables	9	11	[0, 0, 0]	n/a	catFR1	6	R1530J
1229.28	0.8	1356974	WORD_OFF	n/a	n/a	SPINACH	Vegetables	9	11	[0, 0, 0]	n/a	catFR1	6	R1530J
1230.08	1.602	1357778	WORD	n/a	wordpools/wordpool_categorized_EN.txt	LETTUCE	Vegetables	10	11	[0, 0, 0]	n/a	catFR1	6	R1530J
1231.682	0.815	1359373	WORD_OFF	n/a	n/a	LETTUCE	Vegetables	10	11	[0, 0, 0]	n/a	catFR1	6	R1530J
1232.497	1.601	1360191	WORD	n/a	wordpools/wordpool_categorized_EN.txt	PRINTER	Electronics	11	11	[0, 0, 0]	n/a	catFR1	6	R1530J
1234.098	0.9	1361800	WORD_OFF	n/a	n/a	PRINTER	Electronics	11	11	[0, 0, 0]	n/a	catFR1	6	R1530J
1234.998	1.6	1362698	WORD	n/a	wordpools/wordpool_categorized_EN.txt	HEADPHONES	Electronics	12	11	[0, 0, 0]	n/a	catFR1	6	R1530J
1236.598	0.001	1364293	WORD_OFF	n/a	n/a	HEADPHONES	Electronics	12	11	[0, 0, 0]	n/a	catFR1	6	R1530J
1236.599	0.0	1364293	ENCODING_END	n/a	n/a	n/a	n/a	-999	11	[0, 0, 0]	n/a	catFR1	6	R1530J
1236.599	0.0	1364293	DISTRACT_START	n/a	n/a	n/a	n/a	-999	11	[0, 0, 0]	n/a	catFR1	6	R1530J
1236.599	0.0	1364297	PROB	0.0	n/a	n/a	n/a	-999	11	[4, 6, 5]	15	catFR1	6	R1530J
1236.599	4.382	1364297	START	n/a	n/a	n/a	n/a	-999	11	[-999, -999, -999]	n/a	catFR1	6	R1530J
1240.981	3.217	1368678	PROB	3.217	n/a	n/a	n/a	-999	11	[7, 6, 5]	18	catFR1	6	R1530J
1244.198	3.816	1371895	PROB	3.816	n/a	n/a	n/a	-999	11	[7, 5, 3]	15	catFR1	6	R1530J
1248.014	3.918	1375711	PROB	3.918	n/a	n/a	n/a	-999	11	[4, 6, 6]	16	catFR1	6	R1530J
1251.932	5.582	1379629	PROB	5.582	n/a	n/a	n/a	-999	11	[8, 6, 8]	22	catFR1	6	R1530J
1257.514	0.0	1385206	DISTRACT_END	n/a	n/a	n/a	n/a	-999	11	[0, 0, 0]	n/a	catFR1	6	R1530J
1257.514	1.534	1385210	STOP	n/a	n/a	n/a	n/a	-999	11	[-999, -999, -999]	n/a	catFR1	6	R1530J
1259.048	0.812	1386747	REC_START	n/a	n/a	n/a	n/a	-999	11	[0, 0, 0]	n/a	catFR1	6	R1530J
1259.86	1.453	1387556	REC_WORD	1.453	n/a	CELERY	Vegetables	6	11	[0, 0, 0]	n/a	catFR1	6	R1530J
1261.313	1.861	1389009	REC_WORD	1.861	n/a	LETTUCE	Vegetables	10	11	[0, 0, 0]	n/a	catFR1	6	R1530J
1263.174	1.566	1390870	REC_WORD	1.566	n/a	SPINACH	Vegetables	9	11	[0, 0, 0]	n/a	catFR1	6	R1530J
1264.74	1.615	1392436	REC_WORD	1.615	n/a	COMPUTER	Electronics	-999	11	[0, 0, 0]	n/a	catFR1	6	R1530J
1266.355	1.0	1394051	REC_WORD	1.0	n/a	HEADPHONES	Electronics	12	11	[0, 0, 0]	n/a	catFR1	6	R1530J
1267.355	1.812	1395051	REC_WORD_VV	1.812	n/a	<>	n/a	-999	11	[0, 0, 0]	n/a	catFR1	6	R1530J
1269.167	1.967	1396863	REC_WORD	1.967	n/a	TELEVISION	Electronics	3	11	[0, 0, 0]	n/a	catFR1	6	R1530J
1271.134	3.574	1398830	REC_WORD	3.574	n/a	DESK	Furniture	-999	11	[0, 0, 0]	n/a	catFR1	6	R1530J
1274.708	8.747	1402404	REC_WORD	8.747	n/a	DRESSER	Furniture	1	11	[0, 0, 0]	n/a	catFR1	6	R1530J
1283.455	5.784	1411150	REC_WORD	5.784	n/a	SCANNER	Electronics	-999	11	[0, 0, 0]	n/a	catFR1	6	R1530J
1289.239	1.626	1416936	REC_END	n/a	n/a	n/a	n/a	-999	11	[0, 0, 0]	n/a	catFR1	6	R1530J
1290.865	10.35	1418558	COUNTDOWN_START	n/a	n/a	n/a	n/a	-999	11	[0, 0, 0]	n/a	catFR1	6	R1530J
1301.215	0.0	1428907	COUNTDOWN_END	n/a	n/a	n/a	n/a	-999	11	[0, 0, 0]	n/a	catFR1	6	R1530J
1301.215	2.016	1428907	ENCODING_START	n/a	n/a	n/a	n/a	-999	12	[0, 0, 0]	n/a	catFR1	6	R1530J
1303.231	1.617	1430931	WORD	n/a	wordpools/wordpool_categorized_EN.txt	BASS	Instruments	1	12	[0, 0, 0]	n/a	catFR1	6	R1530J
1304.848	0.966	1432540	WORD_OFF	n/a	n/a	BASS	Instruments	1	12	[0, 0, 0]	n/a	catFR1	6	R1530J
1305.814	1.6	1433505	WORD	n/a	wordpools/wordpool_categorized_EN.txt	BANJO	Instruments	2	12	[0, 0, 0]	n/a	catFR1	6	R1530J
1307.414	0.984	1435114	WORD_OFF	n/a	n/a	BANJO	Instruments	2	12	[0, 0, 0]	n/a	catFR1	6	R1530J
1308.398	1.601	1436093	WORD	n/a	wordpools/wordpool_categorized_EN.txt	RECLINER	Furniture	3	12	[0, 0, 0]	n/a	catFR1	6	R1530J
1309.999	0.933	1437688	WORD_OFF	n/a	n/a	RECLINER	Furniture	3	12	[0, 0, 0]	n/a	catFR1	6	R1530J
1310.932	1.616	1438626	WORD	n/a	wordpools/wordpool_categorized_EN.txt	SHELF	Furniture	4	12	[0, 0, 0]	n/a	catFR1	6	R1530J
1312.548	0.833	1440235	WORD_OFF	n/a	n/a	SHELF	Furniture	4	12	[0, 0, 0]	n/a	catFR1	6	R1530J
1313.381	1.617	1441079	WORD	n/a	wordpools/wordpool_categorized_EN.txt	NYLON	Fabric	5	12	[0, 0, 0]	n/a	catFR1	6	R1530J
1314.998	0.833	1442688	WORD_OFF	n/a	n/a	NYLON	Fabric	5	12	[0, 0, 0]	n/a	catFR1	6	R1530J
1315.831	1.616	1443519	WORD	n/a	wordpools/wordpool_categorized_EN.txt	LEATHER	Fabric	6	12	[0, 0, 0]	n/a	catFR1	6	R1530J
1317.447	0.834	1445141	WORD_OFF	n/a	n/a	LEATHER	Fabric	6	12	[0, 0, 0]	n/a	catFR1	6	R1530J
1318.281	1.601	1445972	WORD	n/a	wordpools/wordpool_categorized_EN.txt	BOOKCASE	Furniture	7	12	[0, 0, 0]	n/a	catFR1	6	R1530J
1319.882	0.865	1447581	WORD_OFF	n/a	n/a	BOOKCASE	Furniture	7	12	[0, 0, 0]	n/a	catFR1	6	R1530J
1320.747	1.6	1448439	WORD	n/a	wordpools/wordpool_categorized_EN.txt	CHAIR	Furniture	8	12	[0, 0, 0]	n/a	catFR1	6	R1530J
1322.347	0.785	1450034	WORD_OFF	n/a	n/a	CHAIR	Furniture	8	12	[0, 0, 0]	n/a	catFR1	6	R1530J
1323.132	1.616	1450825	WORD	n/a	wordpools/wordpool_categorized_EN.txt	TRUMPET	Instruments	9	12	[0, 0, 0]	n/a	catFR1	6	R1530J
1324.748	0.982	1452434	WORD_OFF	n/a	n/a	TRUMPET	Instruments	9	12	[0, 0, 0]	n/a	catFR1	6	R1530J
1325.73	1.601	1453426	WORD	n/a	wordpools/wordpool_categorized_EN.txt	PIANO	Instruments	10	12	[0, 0, 0]	n/a	catFR1	6	R1530J
1327.331	0.95	1455021	WORD_OFF	n/a	n/a	PIANO	Instruments	10	12	[0, 0, 0]	n/a	catFR1	6	R1530J
1328.281	1.618	1455973	WORD	n/a	wordpools/wordpool_categorized_EN.txt	VELVET	Fabric	11	12	[0, 0, 0]	n/a	catFR1	6	R1530J
1329.899	0.965	1457595	WORD_OFF	n/a	n/a	VELVET	Fabric	11	12	[0, 0, 0]	n/a	catFR1	6	R1530J
1330.864	1.601	1458560	WORD	n/a	wordpools/wordpool_categorized_EN.txt	SPANDEX	Fabric	12	12	[0, 0, 0]	n/a	catFR1	6	R1530J
1332.465	0.001	1460155	WORD_OFF	n/a	n/a	SPANDEX	Fabric	12	12	[0, 0, 0]	n/a	catFR1	6	R1530J
1332.466	0.0	1460155	ENCODING_END	n/a	n/a	n/a	n/a	-999	12	[0, 0, 0]	n/a	catFR1	6	R1530J
1332.466	0.0	1460155	DISTRACT_START	n/a	n/a	n/a	n/a	-999	12	[0, 0, 0]	n/a	catFR1	6	R1530J
1332.465	0.001	1460157	PROB	0.001	n/a	n/a	n/a	-999	12	[3, 2, 5]	10	catFR1	6	R1530J
1332.466	3.884	1460158	START	n/a	n/a	n/a	n/a	-999	12	[-999, -999, -999]	n/a	catFR1	6	R1530J
1336.35	7.298	1464042	PROB	7.298	n/a	n/a	n/a	-999	12	[6, 5, 5]	16	catFR1	6	R1530J
1343.648	3.033	1471340	PROB	3.033	n/a	n/a	n/a	-999	12	[8, 6, 6]	20	catFR1	6	R1530J
1346.681	2.852	1474373	PROB	2.852	n/a	n/a	n/a	-999	12	[2, 7, 2]	11	catFR1	6	R1530J
1349.533	2.749	1477225	PROB	2.749	n/a	n/a	n/a	-999	12	[1, 5, 4]	10	catFR1	6	R1530J
1352.282	3.633	1479973	PROB	3.633	n/a	n/a	n/a	-999	12	[3, 5, 8]	16	catFR1	6	R1530J
1355.915	0.0	1483601	DISTRACT_END	n/a	n/a	n/a	n/a	-999	12	[0, 0, 0]	n/a	catFR1	6	R1530J
1355.915	1.7	1483606	STOP	n/a	n/a	n/a	n/a	-999	12	[-999, -999, -999]	n/a	catFR1	6	R1530J
1357.615	1.508	1485304	REC_START	n/a	n/a	n/a	n/a	-999	12	[0, 0, 0]	n/a	catFR1	6	R1530J
1359.123	1.776	1486814	REC_WORD	1.776	n/a	BANJO	Instruments	2	12	[0, 0, 0]	n/a	catFR1	6	R1530J
1360.899	0.943	1488590	REC_WORD	0.943	n/a	DRUM	Instruments	-999	12	[0, 0, 0]	n/a	catFR1	6	R1530J
1361.842	4.096	1489533	REC_WORD	4.096	n/a	SPANDEX	Fabric	12	12	[0, 0, 0]	n/a	catFR1	6	R1530J
1365.938	0.337	1493629	REC_WORD	0.337	n/a	DRUM	Instruments	-999	12	[0, 0, 0]	n/a	catFR1	6	R1530J
1366.275	1.0	1493966	REC_WORD	1.0	n/a	SPANDEX	Fabric	12	12	[0, 0, 0]	n/a	catFR1	6	R1530J
1367.275	1.446	1494966	REC_WORD_VV	1.446	n/a	<>	n/a	-999	12	[0, 0, 0]	n/a	catFR1	6	R1530J
1368.721	2.162	1496412	REC_WORD	2.162	n/a	JEANS	Clothing	-999	12	[0, 0, 0]	n/a	catFR1	6	R1530J
1370.883	1.26	1498573	REC_WORD	1.26	n/a	SPANDEX	Fabric	12	12	[0, 0, 0]	n/a	catFR1	6	R1530J
1372.143	0.541	1499833	REC_WORD	0.541	n/a	JEANS	Clothing	-999	12	[0, 0, 0]	n/a	catFR1	6	R1530J
1372.684	0.747	1500374	REC_WORD	0.747	n/a	DRUM	Instruments	-999	12	[0, 0, 0]	n/a	catFR1	6	R1530J
1373.431	0.75	1501121	REC_WORD	0.75	n/a	BANJO	Instruments	2	12	[0, 0, 0]	n/a	catFR1	6	R1530J
1374.181	3.38	1501871	REC_WORD	3.38	n/a	PIANO	Instruments	10	12	[0, 0, 0]	n/a	catFR1	6	R1530J
1377.561	0.733	1505251	REC_WORD	0.733	n/a	BANJO	Instruments	2	12	[0, 0, 0]	n/a	catFR1	6	R1530J
1378.294	1.926	1505984	REC_WORD	1.926	n/a	PIANO	Instruments	10	12	[0, 0, 0]	n/a	catFR1	6	R1530J
1380.22	0.55	1507910	REC_WORD_VV	0.55	n/a	<>	n/a	-999	12	[0, 0, 0]	n/a	catFR1	6	R1530J
1380.77	0.99	1508460	REC_WORD	0.99	n/a	TRUMPET	Instruments	9	12	[0, 0, 0]	n/a	catFR1	6	R1530J
1381.76	1.141	1509450	REC_WORD	1.141	n/a	SPANDEX	Fabric	12	12	[0, 0, 0]	n/a	catFR1	6	R1530J
1382.901	2.785	1510591	REC_WORD	2.785	n/a	LEATHER	Fabric	6	12	[0, 0, 0]	n/a	catFR1	6	R1530J
1385.686	0.686	1513376	REC_WORD	0.686	n/a	SPANDEX	Fabric	12	12	[0, 0, 0]	n/a	catFR1	6	R1530J
1386.372	1.44	1514062	REC_WORD	1.44	n/a	LEATHER	Fabric	6	12	[0, 0, 0]	n/a	catFR1	6	R1530J
1387.812	0.0	1515506	REC_END	n/a	n/a	n/a	n/a	-999	12	[0, 0, 0]	n/a	catFR1	6	R1530J
