onset	duration	sample	trial_type	response_time	stim_file	item_name	category	serialpos	list	test	answer	experiment	session	subject
0.0	33.943	490177	SESS_START	n/a	n/a	n/a	n/a	-999	-999	[0, 0, 0]	n/a	catFR1	0	R1050M
33.943	10.0	507148	COUNTDOWN_START	n/a	n/a	n/a	n/a	-999	-999	[0, 0, 0]	n/a	catFR1	0	R1050M
44.371	3.926	512361	COUNTDOWN_END	n/a	n/a	n/a	n/a	-999	-999	[0, 0, 0]	n/a	catFR1	0	R1050M
48.297	1.6	514324	PRACTICE_WORD	n/a	n/a	COTTON	n/a	-999	-999	[0, 0, 0]	n/a	catFR1	0	R1050M
50.748	1.6	515550	PRACTICE_WORD	n/a	n/a	ATTIC	n/a	-999	-999	[0, 0, 0]	n/a	catFR1	0	R1050M
53.298	1.6	516825	PRACTICE_WORD	n/a	n/a	RHINO	n/a	-999	-999	[0, 0, 0]	n/a	catFR1	0	R1050M
55.764	1.6	518058	PRACTICE_WORD	n/a	n/a	BEAM	n/a	-999	-999	[0, 0, 0]	n/a	catFR1	0	R1050M
58.198	1.6	519275	PRACTICE_WORD	n/a	n/a	RING	n/a	-999	-999	[0, 0, 0]	n/a	catFR1	0	R1050M
60.65	1.6	520500	PRACTICE_WORD	n/a	n/a	CAMEL	n/a	-999	-999	[0, 0, 0]	n/a	catFR1	0	R1050M
63.266	1.6	521808	PRACTICE_WORD	n/a	n/a	WAGON	n/a	-999	-999	[0, 0, 0]	n/a	catFR1	0	R1050M
65.667	1.6	523009	PRACTICE_WORD	n/a	n/a	FLOOD	n/a	-999	-999	[0, 0, 0]	n/a	catFR1	0	R1050M
68.083	1.6	524217	PRACTICE_WORD	n/a	n/a	TONGUE	n/a	-999	-999	[0, 0, 0]	n/a	catFR1	0	R1050M
70.585	1.6	525468	PRACTICE_WORD	n/a	n/a	CHEST	n/a	-999	-999	[0, 0, 0]	n/a	catFR1	0	R1050M
73.018	1.6	526684	PRACTICE_WORD	n/a	n/a	IRON	n/a	-999	-999	[0, 0, 0]	n/a	catFR1	0	R1050M
75.603	1.6	527977	PRACTICE_WORD	n/a	n/a	WATCH	n/a	-999	-999	[0, 0, 0]	n/a	catFR1	0	R1050M
77.219	0.0	528785	PRACTICE_DISTRACT_START	n/a	n/a	n/a	n/a	-999	-999	[0, 0, 0]	n/a	catFR1	0	R1050M
77.219	0.016	528785	START	n/a	n/a	n/a	n/a	-999	-1	[-999, -999, -999]	n/a	catFR1	0	R1050M
77.235	8.37	528793	PROB	8.335	n/a	n/a	n/a	-999	-1	[3, 9, 9]	21.0	catFR1	0	R1050M
85.605	9.818	532977	PROB	9.789	n/a	n/a	n/a	-999	-1	[6, 3, 8]	17.0	catFR1	0	R1050M
95.423	4.706	537886	PROB	4.706	n/a	n/a	n/a	-999	-1	[1, 5, 6]	12.0	catFR1	0	R1050M
100.129	0.011	540239	STOP	n/a	n/a	n/a	n/a	-999	-1	[-999, -999, -999]	n/a	catFR1	0	R1050M
100.14	0.702	540244	PRACTICE_DISTRACT_END	n/a	n/a	n/a	n/a	-999	-999	[0, 0, 0]	n/a	catFR1	0	R1050M
100.842	30.516	540595	PRACTICE_REC_START	n/a	n/a	n/a	n/a	-999	-999	[0, 0, 0]	n/a	catFR1	0	R1050M
131.358	20.126	555853	PRACTICE_REC_END	n/a	n/a	n/a	n/a	-999	-999	[0, 0, 0]	n/a	catFR1	0	R1050M
151.484	0.0	565915	TRIAL	n/a	n/a	n/a	n/a	-999	1	[0, 0, 0]	n/a	catFR1	0	R1050M
151.484	10.0	565915	COUNTDOWN_START	n/a	n/a	n/a	n/a	-999	1	[0, 0, 0]	n/a	catFR1	0	R1050M
161.912	0.007	571129	COUNTDOWN_END	n/a	n/a	n/a	n/a	-999	1	[0, 0, 0]	n/a	catFR1	0	R1050M
161.919	1.6	571132	ORIENT	n/a	n/a	n/a	n/a	-999	1	[0, 0, 0]	n/a	catFR1	0	R1050M
165.387	1.6	572866	WORD	n/a	wordpools/wordpool_categorized_EN.txt	BROWNIES	Desserts	1	1	[0, 0, 0]	n/a	catFR1	0	R1050M
167.87	1.6	574108	WORD	n/a	wordpools/wordpool_categorized_EN.txt	PASTRY	Desserts	2	1	[0, 0, 0]	n/a	catFR1	0	R1050M
170.421	1.6	575383	WORD	n/a	wordpools/wordpool_categorized_EN.txt	BIKE	Vehicles	3	1	[0, 0, 0]	n/a	catFR1	0	R1050M
172.921	1.6	576633	WORD	n/a	wordpools/wordpool_categorized_EN.txt	PLANE	Vehicles	4	1	[0, 0, 0]	n/a	catFR1	0	R1050M
175.522	1.6	577933	WORD	n/a	wordpools/wordpool_categorized_EN.txt	FOOT	BodyParts	5	1	[0, 0, 0]	n/a	catFR1	0	R1050M
178.038	1.6	579191	WORD	n/a	wordpools/wordpool_categorized_EN.txt	HAND	BodyParts	6	1	[0, 0, 0]	n/a	catFR1	0	R1050M
180.607	1.6	580476	WORD	n/a	wordpools/wordpool_categorized_EN.txt	PUDDING	Desserts	7	1	[0, 0, 0]	n/a	catFR1	0	R1050M
183.123	1.6	581734	WORD	n/a	wordpools/wordpool_categorized_EN.txt	CUPCAKE	Desserts	8	1	[0, 0, 0]	n/a	catFR1	0	R1050M
185.574	1.6	582959	WORD	n/a	wordpools/wordpool_categorized_EN.txt	KNEE	BodyParts	9	1	[0, 0, 0]	n/a	catFR1	0	R1050M
188.007	1.6	584175	WORD	n/a	wordpools/wordpool_categorized_EN.txt	NOSE	BodyParts	10	1	[0, 0, 0]	n/a	catFR1	0	R1050M
190.625	1.6	585484	WORD	n/a	wordpools/wordpool_categorized_EN.txt	BUS	Vehicles	11	1	[0, 0, 0]	n/a	catFR1	0	R1050M
193.108	1.6	586726	WORD	n/a	wordpools/wordpool_categorized_EN.txt	TRUCK	Vehicles	12	1	[0, 0, 0]	n/a	catFR1	0	R1050M
194.709	0.001	587526	DISTRACT_START	n/a	n/a	n/a	n/a	-999	1	[0, 0, 0]	n/a	catFR1	0	R1050M
194.71	0.016	587527	START	n/a	n/a	n/a	n/a	-999	1	[-999, -999, -999]	n/a	catFR1	0	R1050M
194.726	26.876	587535	PROB	26.876	n/a	n/a	n/a	-999	1	[9, 7, 4]	20.0	catFR1	0	R1050M
221.602	0.012	600972	STOP	n/a	n/a	n/a	n/a	-999	1	[-999, -999, -999]	n/a	catFR1	0	R1050M
221.614	1.15	600978	DISTRACT_END	n/a	n/a	n/a	n/a	-999	1	[0, 0, 0]	n/a	catFR1	0	R1050M
222.764	1.379	601553	REC_START	n/a	n/a	n/a	n/a	-999	1	[0, 0, 0]	n/a	catFR1	0	R1050M
224.143	1.165	602242	REC_WORD	1.379	n/a	BIKE	Vehicles	3	1	[0, 0, 0]	n/a	catFR1	0	R1050M
225.308	2.059	602825	REC_WORD	2.544	n/a	TRUCK	Vehicles	12	1	[0, 0, 0]	n/a	catFR1	0	R1050M
227.367	1.928	603854	REC_WORD	4.603	n/a	PASTRY	Desserts	2	1	[0, 0, 0]	n/a	catFR1	0	R1050M
229.295	4.722	604818	REC_WORD	6.531	n/a	BROWNIES	Desserts	1	1	[0, 0, 0]	n/a	catFR1	0	R1050M
234.017	18.762	607179	REC_WORD	11.253	n/a	KNEE	BodyParts	9	1	[0, 0, 0]	n/a	catFR1	0	R1050M
252.779	18.629	616560	REC_END	n/a	n/a	n/a	n/a	-999	1	[0, 0, 0]	n/a	catFR1	0	R1050M
271.408	0.0	625874	TRIAL	n/a	n/a	n/a	n/a	-999	2	[0, 0, 0]	n/a	catFR1	0	R1050M
271.408	10.0	625874	COUNTDOWN_START	n/a	n/a	n/a	n/a	-999	2	[0, 0, 0]	n/a	catFR1	0	R1050M
281.836	0.023	631087	COUNTDOWN_END	n/a	n/a	n/a	n/a	-999	2	[0, 0, 0]	n/a	catFR1	0	R1050M
281.859	1.6	631099	ORIENT	n/a	n/a	n/a	n/a	-999	2	[0, 0, 0]	n/a	catFR1	0	R1050M
285.36	1.6	632849	WORD	n/a	wordpools/wordpool_categorized_EN.txt	CEDAR	Trees	1	2	[0, 0, 0]	n/a	catFR1	0	R1050M
287.793	1.6	634066	WORD	n/a	wordpools/wordpool_categorized_EN.txt	SPRUCE	Trees	2	2	[0, 0, 0]	n/a	catFR1	0	R1050M
290.295	1.6	635317	WORD	n/a	wordpools/wordpool_categorized_EN.txt	TIGER	Zoo	3	2	[0, 0, 0]	n/a	catFR1	0	R1050M
292.877	1.6	636608	WORD	n/a	wordpools/wordpool_categorized_EN.txt	ORANGUTAN	Zoo	4	2	[0, 0, 0]	n/a	catFR1	0	R1050M
295.379	1.6	637858	WORD	n/a	wordpools/wordpool_categorized_EN.txt	HILLS	Landscapes	5	2	[0, 0, 0]	n/a	catFR1	0	R1050M
297.812	1.6	639075	WORD	n/a	wordpools/wordpool_categorized_EN.txt	CREEK	Landscapes	6	2	[0, 0, 0]	n/a	catFR1	0	R1050M
300.313	1.6	640325	WORD	n/a	wordpools/wordpool_categorized_EN.txt	GIRAFFE	Zoo	7	2	[0, 0, 0]	n/a	catFR1	0	R1050M
302.747	1.6	641542	WORD	n/a	wordpools/wordpool_categorized_EN.txt	BEAR	Zoo	8	2	[0, 0, 0]	n/a	catFR1	0	R1050M
305.196	1.6	642767	WORD	n/a	wordpools/wordpool_categorized_EN.txt	OAK	Trees	9	2	[0, 0, 0]	n/a	catFR1	0	R1050M
307.78	1.6	644059	WORD	n/a	wordpools/wordpool_categorized_EN.txt	MAPLE	Trees	10	2	[0, 0, 0]	n/a	catFR1	0	R1050M
310.264	1.6	645301	WORD	n/a	wordpools/wordpool_categorized_EN.txt	VALLEY	Landscapes	11	2	[0, 0, 0]	n/a	catFR1	0	R1050M
312.732	1.6	646534	WORD	n/a	wordpools/wordpool_categorized_EN.txt	STREAM	Landscapes	12	2	[0, 0, 0]	n/a	catFR1	0	R1050M
314.349	0.001	647343	DISTRACT_START	n/a	n/a	n/a	n/a	-999	2	[0, 0, 0]	n/a	catFR1	0	R1050M
314.35	0.016	647343	START	n/a	n/a	n/a	n/a	-999	2	[-999, -999, -999]	n/a	catFR1	0	R1050M
314.366	6.101	647351	PROB	6.068	n/a	n/a	n/a	-999	2	[9, 4, 7]	20.0	catFR1	0	R1050M
320.467	10.102	650402	PROB	10.071	n/a	n/a	n/a	-999	2	[7, 9, 8]	24.0	catFR1	0	R1050M
330.569	7.809	655453	PROB	7.809	n/a	n/a	n/a	-999	2	[9, 8, 9]	26.0	catFR1	0	R1050M
338.378	0.009	659357	STOP	n/a	n/a	n/a	n/a	-999	2	[-999, -999, -999]	n/a	catFR1	0	R1050M
338.387	1.135	659361	DISTRACT_END	n/a	n/a	n/a	n/a	-999	2	[0, 0, 0]	n/a	catFR1	0	R1050M
339.522	1.207	659929	REC_START	n/a	n/a	n/a	n/a	-999	2	[0, 0, 0]	n/a	catFR1	0	R1050M
340.729	1.061	660532	REC_WORD	1.207	n/a	CEDAR	Trees	1	2	[0, 0, 0]	n/a	catFR1	0	R1050M
341.79	2.413	661063	REC_WORD	2.268	n/a	SPRUCE	Trees	2	2	[0, 0, 0]	n/a	catFR1	0	R1050M
344.203	4.232	662269	REC_WORD	4.681	n/a	MAPLE	Trees	10	2	[0, 0, 0]	n/a	catFR1	0	R1050M
348.435	1.627	664385	REC_WORD	8.913	n/a	TREE	n/a	-999	2	[0, 0, 0]	n/a	catFR1	0	R1050M
350.062	2.285	665198	REC_WORD	10.54	n/a	BEAR	Zoo	8	2	[0, 0, 0]	n/a	catFR1	0	R1050M
352.347	1.909	666341	REC_WORD	12.825	n/a	LION	n/a	-999	2	[0, 0, 0]	n/a	catFR1	0	R1050M
354.256	3.183	667295	REC_WORD	14.734	n/a	TIGER	Zoo	3	2	[0, 0, 0]	n/a	catFR1	0	R1050M
357.439	12.095	668887	REC_WORD	17.917	n/a	GIRAFFE	Zoo	7	2	[0, 0, 0]	n/a	catFR1	0	R1050M
369.534	17.863	674934	REC_END	n/a	n/a	n/a	n/a	-999	2	[0, 0, 0]	n/a	catFR1	0	R1050M
387.397	0.0	683865	TRIAL	n/a	n/a	n/a	n/a	-999	3	[0, 0, 0]	n/a	catFR1	0	R1050M
387.397	10.0	683865	COUNTDOWN_START	n/a	n/a	n/a	n/a	-999	3	[0, 0, 0]	n/a	catFR1	0	R1050M
397.825	0.006	689079	COUNTDOWN_END	n/a	n/a	n/a	n/a	-999	3	[0, 0, 0]	n/a	catFR1	0	R1050M
397.831	1.6	689082	ORIENT	n/a	n/a	n/a	n/a	-999	3	[0, 0, 0]	n/a	catFR1	0	R1050M
401.683	1.6	691008	WORD	n/a	wordpools/wordpool_categorized_EN.txt	GORILLA	Zoo	1	3	[0, 0, 0]	n/a	catFR1	0	R1050M
404.099	1.6	692215	WORD	n/a	wordpools/wordpool_categorized_EN.txt	ELEPHANT	Zoo	2	3	[0, 0, 0]	n/a	catFR1	0	R1050M
406.601	1.6	693466	WORD	n/a	wordpools/wordpool_categorized_EN.txt	ROOF	Building	3	3	[0, 0, 0]	n/a	catFR1	0	R1050M
409.117	1.6	694724	WORD	n/a	wordpools/wordpool_categorized_EN.txt	DOOR	Building	4	3	[0, 0, 0]	n/a	catFR1	0	R1050M
411.685	1.6	696008	WORD	n/a	wordpools/wordpool_categorized_EN.txt	FRISBEE	Toys	5	3	[0, 0, 0]	n/a	catFR1	0	R1050M
414.218	1.6	697275	WORD	n/a	wordpools/wordpool_categorized_EN.txt	BLOCKS	Toys	6	3	[0, 0, 0]	n/a	catFR1	0	R1050M
416.802	1.6	698567	WORD	n/a	wordpools/wordpool_categorized_EN.txt	CEILING	Building	7	3	[0, 0, 0]	n/a	catFR1	0	R1050M
419.252	1.6	699792	WORD	n/a	wordpools/wordpool_categorized_EN.txt	ATTIC	Building	8	3	[0, 0, 0]	n/a	catFR1	0	R1050M
421.67	1.6	701000	WORD	n/a	wordpools/wordpool_categorized_EN.txt	MONKEY	Zoo	9	3	[0, 0, 0]	n/a	catFR1	0	R1050M
424.27	1.6	702300	WORD	n/a	wordpools/wordpool_categorized_EN.txt	CHIMPANZEE	Zoo	10	3	[0, 0, 0]	n/a	catFR1	0	R1050M
426.854	1.6	703592	WORD	n/a	wordpools/wordpool_categorized_EN.txt	BALL	Toys	11	3	[0, 0, 0]	n/a	catFR1	0	R1050M
429.438	1.6	704884	WORD	n/a	wordpools/wordpool_categorized_EN.txt	SLINKY	Toys	12	3	[0, 0, 0]	n/a	catFR1	0	R1050M
431.054	0.001	705692	DISTRACT_START	n/a	n/a	n/a	n/a	-999	3	[0, 0, 0]	n/a	catFR1	0	R1050M
431.055	0.016	705693	START	n/a	n/a	n/a	n/a	-999	3	[-999, -999, -999]	n/a	catFR1	0	R1050M
431.071	10.32	705701	PROB	10.291	n/a	n/a	n/a	-999	3	[3, 5, 9]	17.0	catFR1	0	R1050M
441.391	4.4	710860	PROB	4.378	n/a	n/a	n/a	-999	3	[9, 9, 4]	22.0	catFR1	0	R1050M
445.791	4.535	713060	PROB	4.498	n/a	n/a	n/a	-999	3	[4, 6, 1]	11.0	catFR1	0	R1050M
450.326	6.188	715328	PROB	6.188	n/a	n/a	n/a	-999	3	[5, 3, 6]	14.0	catFR1	0	R1050M
456.514	0.013	718422	STOP	n/a	n/a	n/a	n/a	-999	3	[-999, -999, -999]	n/a	catFR1	0	R1050M
456.527	1.101	718428	DISTRACT_END	n/a	n/a	n/a	n/a	-999	3	[0, 0, 0]	n/a	catFR1	0	R1050M
457.628	1.193	718978	REC_START	n/a	n/a	n/a	n/a	-999	3	[0, 0, 0]	n/a	catFR1	0	R1050M
458.821	2.643	719575	REC_WORD	1.193	n/a	CHIMPANZEE	Zoo	10	3	[0, 0, 0]	n/a	catFR1	0	R1050M
461.464	2.467	720896	REC_WORD	3.836	n/a	GORILLA	Zoo	1	3	[0, 0, 0]	n/a	catFR1	0	R1050M
463.931	2.549	722130	REC_WORD	6.303	n/a	DOOR	Building	4	3	[0, 0, 0]	n/a	catFR1	0	R1050M
466.48	6.109	723404	REC_WORD	8.852	n/a	ATTIC	Building	8	3	[0, 0, 0]	n/a	catFR1	0	R1050M
472.589	8.23	726459	REC_WORD	14.961	n/a	ELEPHANT	Zoo	2	3	[0, 0, 0]	n/a	catFR1	0	R1050M
480.819	6.82	730573	REC_WORD	23.191	n/a	BALL	Toys	11	3	[0, 0, 0]	n/a	catFR1	0	R1050M
487.639	8.262	733983	REC_END	n/a	n/a	n/a	n/a	-999	3	[0, 0, 0]	n/a	catFR1	0	R1050M
495.901	0.0	738114	TRIAL	n/a	n/a	n/a	n/a	-999	4	[0, 0, 0]	n/a	catFR1	0	R1050M
495.901	10.0	738114	COUNTDOWN_START	n/a	n/a	n/a	n/a	-999	4	[0, 0, 0]	n/a	catFR1	0	R1050M
506.329	0.008	743328	COUNTDOWN_END	n/a	n/a	n/a	n/a	-999	4	[0, 0, 0]	n/a	catFR1	0	R1050M
506.337	1.6	743332	ORIENT	n/a	n/a	n/a	n/a	-999	4	[0, 0, 0]	n/a	catFR1	0	R1050M
510.236	1.6	745281	WORD	n/a	wordpools/wordpool_categorized_EN.txt	SPATULA	KitchenTools	1	4	[0, 0, 0]	n/a	catFR1	0	R1050M
512.804	1.6	746565	WORD	n/a	wordpools/wordpool_categorized_EN.txt	GRATER	KitchenTools	2	4	[0, 0, 0]	n/a	catFR1	0	R1050M
515.204	1.6	747765	WORD	n/a	wordpools/wordpool_categorized_EN.txt	BASKETBALL	Toys	3	4	[0, 0, 0]	n/a	catFR1	0	R1050M
517.722	1.6	749024	WORD	n/a	wordpools/wordpool_categorized_EN.txt	BARBIE	Toys	4	4	[0, 0, 0]	n/a	catFR1	0	R1050M
520.323	1.6	750324	WORD	n/a	wordpools/wordpool_categorized_EN.txt	LEG	BodyParts	5	4	[0, 0, 0]	n/a	catFR1	0	R1050M
522.906	1.6	751616	WORD	n/a	wordpools/wordpool_categorized_EN.txt	ELBOW	BodyParts	6	4	[0, 0, 0]	n/a	catFR1	0	R1050M
525.324	1.6	752825	WORD	n/a	wordpools/wordpool_categorized_EN.txt	DOLLHOUSE	Toys	7	4	[0, 0, 0]	n/a	catFR1	0	R1050M
527.758	1.6	754042	WORD	n/a	wordpools/wordpool_categorized_EN.txt	BASEBALL	Toys	8	4	[0, 0, 0]	n/a	catFR1	0	R1050M
530.157	1.6	755241	WORD	n/a	wordpools/wordpool_categorized_EN.txt	CORKSCREW	KitchenTools	9	4	[0, 0, 0]	n/a	catFR1	0	R1050M
532.708	1.6	756516	WORD	n/a	wordpools/wordpool_categorized_EN.txt	SPOON	KitchenTools	10	4	[0, 0, 0]	n/a	catFR1	0	R1050M
535.125	1.6	757725	WORD	n/a	wordpools/wordpool_categorized_EN.txt	TOE	BodyParts	11	4	[0, 0, 0]	n/a	catFR1	0	R1050M
537.576	1.6	758950	WORD	n/a	wordpools/wordpool_categorized_EN.txt	EYE	BodyParts	12	4	[0, 0, 0]	n/a	catFR1	0	R1050M
539.192	0.001	759758	DISTRACT_START	n/a	n/a	n/a	n/a	-999	4	[0, 0, 0]	n/a	catFR1	0	R1050M
539.193	0.016	759759	START	n/a	n/a	n/a	n/a	-999	4	[-999, -999, -999]	n/a	catFR1	0	R1050M
539.209	3.851	759767	PROB	3.816	n/a	n/a	n/a	-999	4	[6, 6, 1]	13.0	catFR1	0	R1050M
543.06	7.201	761692	PROB	7.173	n/a	n/a	n/a	-999	4	[4, 8, 2]	14.0	catFR1	0	R1050M
550.261	5.402	765292	PROB	5.381	n/a	n/a	n/a	-999	4	[6, 3, 1]	10.0	catFR1	0	R1050M
555.663	7.498	767993	PROB	7.498	n/a	n/a	n/a	-999	4	[8, 6, 6]	20.0	catFR1	0	R1050M
563.161	0.019	771742	STOP	n/a	n/a	n/a	n/a	-999	4	[-999, -999, -999]	n/a	catFR1	0	R1050M
563.18	1.035	771752	DISTRACT_END	n/a	n/a	n/a	n/a	-999	4	[0, 0, 0]	n/a	catFR1	0	R1050M
564.215	0.701	772269	REC_START	n/a	n/a	n/a	n/a	-999	4	[0, 0, 0]	n/a	catFR1	0	R1050M
564.916	2.223	772620	REC_WORD	0.701	n/a	SPATULA	KitchenTools	1	4	[0, 0, 0]	n/a	catFR1	0	R1050M
567.139	2.235	773731	REC_WORD	2.924	n/a	GRATER	KitchenTools	2	4	[0, 0, 0]	n/a	catFR1	0	R1050M
569.374	0.77	774848	REC_WORD	5.159	n/a	BASEBALL	Toys	8	4	[0, 0, 0]	n/a	catFR1	0	R1050M
570.144	3.769	775233	REC_WORD	5.929	n/a	BASKETBALL	Toys	3	4	[0, 0, 0]	n/a	catFR1	0	R1050M
573.913	1.146	777118	REC_WORD	9.698	n/a	ELBOW	BodyParts	6	4	[0, 0, 0]	n/a	catFR1	0	R1050M
575.059	12.234	777691	REC_WORD	10.844	n/a	TOE	BodyParts	11	4	[0, 0, 0]	n/a	catFR1	0	R1050M
587.293	6.933	783807	REC_WORD	23.078	n/a	SHOULDER	n/a	-999	4	[0, 0, 0]	n/a	catFR1	0	R1050M
594.226	7.745	787274	REC_END	n/a	n/a	n/a	n/a	-999	4	[0, 0, 0]	n/a	catFR1	0	R1050M
601.971	0.0	791146	TRIAL	n/a	n/a	n/a	n/a	-999	5	[0, 0, 0]	n/a	catFR1	0	R1050M
601.971	10.0	791146	COUNTDOWN_START	n/a	n/a	n/a	n/a	-999	5	[0, 0, 0]	n/a	catFR1	0	R1050M
612.399	0.008	796360	COUNTDOWN_END	n/a	n/a	n/a	n/a	-999	5	[0, 0, 0]	n/a	catFR1	0	R1050M
612.407	1.6	796364	ORIENT	n/a	n/a	n/a	n/a	-999	5	[0, 0, 0]	n/a	catFR1	0	R1050M
616.174	1.6	798247	WORD	n/a	wordpools/wordpool_categorized_EN.txt	DRIZZLE	Weather	1	5	[0, 0, 0]	n/a	catFR1	0	R1050M
618.575	1.6	799448	WORD	n/a	wordpools/wordpool_categorized_EN.txt	RAIN	Weather	2	5	[0, 0, 0]	n/a	catFR1	0	R1050M
621.008	1.6	800664	WORD	n/a	wordpools/wordpool_categorized_EN.txt	HICKORY	Trees	3	5	[0, 0, 0]	n/a	catFR1	0	R1050M
623.443	1.6	801881	WORD	n/a	wordpools/wordpool_categorized_EN.txt	BIRCH	Trees	4	5	[0, 0, 0]	n/a	catFR1	0	R1050M
625.942	1.6	803131	WORD	n/a	wordpools/wordpool_categorized_EN.txt	SHEEP	FarmAnimals	5	5	[0, 0, 0]	n/a	catFR1	0	R1050M
628.327	1.6	804323	WORD	n/a	wordpools/wordpool_categorized_EN.txt	ROOSTER	FarmAnimals	6	5	[0, 0, 0]	n/a	catFR1	0	R1050M
630.86	1.6	805590	WORD	n/a	wordpools/wordpool_categorized_EN.txt	EVERGREEN	Trees	7	5	[0, 0, 0]	n/a	catFR1	0	R1050M
633.362	1.6	806841	WORD	n/a	wordpools/wordpool_categorized_EN.txt	PINE	Trees	8	5	[0, 0, 0]	n/a	catFR1	0	R1050M
635.844	1.6	808082	WORD	n/a	wordpools/wordpool_categorized_EN.txt	SNOW	Weather	9	5	[0, 0, 0]	n/a	catFR1	0	R1050M
638.228	1.6	809273	WORD	n/a	wordpools/wordpool_categorized_EN.txt	HURRICANE	Weather	10	5	[0, 0, 0]	n/a	catFR1	0	R1050M
640.812	1.6	810565	WORD	n/a	wordpools/wordpool_categorized_EN.txt	CALF	FarmAnimals	11	5	[0, 0, 0]	n/a	catFR1	0	R1050M
643.279	1.6	811799	WORD	n/a	wordpools/wordpool_categorized_EN.txt	LAMB	FarmAnimals	12	5	[0, 0, 0]	n/a	catFR1	0	R1050M
644.896	0.001	812607	DISTRACT_START	n/a	n/a	n/a	n/a	-999	5	[0, 0, 0]	n/a	catFR1	0	R1050M
644.897	0.016	812608	START	n/a	n/a	n/a	n/a	-999	5	[-999, -999, -999]	n/a	catFR1	0	R1050M
644.913	5.502	812616	PROB	5.465	n/a	n/a	n/a	-999	5	[5, 9, 4]	18.0	catFR1	0	R1050M
650.415	7.151	815367	PROB	7.131	n/a	n/a	n/a	-999	5	[2, 1, 8]	11.0	catFR1	0	R1050M
657.566	6.467	818942	PROB	6.443	n/a	n/a	n/a	-999	5	[7, 1, 4]	12.0	catFR1	0	R1050M
664.033	8.681	822175	PROB	8.681	n/a	n/a	n/a	-999	5	[8, 7, 6]	21.0	catFR1	0	R1050M
672.714	0.005	826516	STOP	n/a	n/a	n/a	n/a	-999	5	[-999, -999, -999]	n/a	catFR1	0	R1050M
672.719	1.1	826518	DISTRACT_END	n/a	n/a	n/a	n/a	-999	5	[0, 0, 0]	n/a	catFR1	0	R1050M
673.819	2.309	827068	REC_START	n/a	n/a	n/a	n/a	-999	5	[0, 0, 0]	n/a	catFR1	0	R1050M
676.128	1.294	828222	REC_WORD	2.309	n/a	CALF	FarmAnimals	11	5	[0, 0, 0]	n/a	catFR1	0	R1050M
677.422	2.114	828869	REC_WORD	3.603	n/a	SHEEP	FarmAnimals	5	5	[0, 0, 0]	n/a	catFR1	0	R1050M
679.536	1.359	829926	REC_WORD	5.717	n/a	HICKORY	Trees	3	5	[0, 0, 0]	n/a	catFR1	0	R1050M
680.895	4.09	830606	REC_WORD	7.076	n/a	PINE	Trees	8	5	[0, 0, 0]	n/a	catFR1	0	R1050M
684.985	1.077	832651	REC_WORD	11.166	n/a	DRIZZLE	Weather	1	5	[0, 0, 0]	n/a	catFR1	0	R1050M
686.062	2.829	833189	REC_WORD	12.243	n/a	SNOW	Weather	9	5	[0, 0, 0]	n/a	catFR1	0	R1050M
688.891	14.939	834604	REC_WORD	15.072	n/a	HURRICANE	Weather	10	5	[0, 0, 0]	n/a	catFR1	0	R1050M
703.83	3.729	842073	REC_END	n/a	n/a	n/a	n/a	-999	5	[0, 0, 0]	n/a	catFR1	0	R1050M
707.559	10.0	843937	COUNTDOWN_START	n/a	n/a	n/a	n/a	-999	6	[0, 0, 0]	n/a	catFR1	0	R1050M
707.56	10.427	843938	TRIAL	n/a	n/a	n/a	n/a	-999	6	[0, 0, 0]	n/a	catFR1	0	R1050M
717.987	0.007	849151	COUNTDOWN_END	n/a	n/a	n/a	n/a	-999	6	[0, 0, 0]	n/a	catFR1	0	R1050M
717.994	1.6	849154	ORIENT	n/a	n/a	n/a	n/a	-999	6	[0, 0, 0]	n/a	catFR1	0	R1050M
721.828	1.6	851071	WORD	n/a	wordpools/wordpool_categorized_EN.txt	TONGS	KitchenTools	1	6	[0, 0, 0]	n/a	catFR1	0	R1050M
724.228	1.6	852271	WORD	n/a	wordpools/wordpool_categorized_EN.txt	KNIFE	KitchenTools	2	6	[0, 0, 0]	n/a	catFR1	0	R1050M
726.73	1.6	853522	WORD	n/a	wordpools/wordpool_categorized_EN.txt	MILK	Beverages	3	6	[0, 0, 0]	n/a	catFR1	0	R1050M
729.129	1.6	854721	WORD	n/a	wordpools/wordpool_categorized_EN.txt	TEA	Beverages	4	6	[0, 0, 0]	n/a	catFR1	0	R1050M
731.497	1.6	855905	WORD	n/a	wordpools/wordpool_categorized_EN.txt	OCEAN	Landscapes	5	6	[0, 0, 0]	n/a	catFR1	0	R1050M
733.946	1.6	857130	WORD	n/a	wordpools/wordpool_categorized_EN.txt	BEACH	Landscapes	6	6	[0, 0, 0]	n/a	catFR1	0	R1050M
736.415	1.6	858364	WORD	n/a	wordpools/wordpool_categorized_EN.txt	LADLE	KitchenTools	7	6	[0, 0, 0]	n/a	catFR1	0	R1050M
738.814	1.6	859564	WORD	n/a	wordpools/wordpool_categorized_EN.txt	COLANDER	KitchenTools	8	6	[0, 0, 0]	n/a	catFR1	0	R1050M
741.248	1.6	860781	WORD	n/a	wordpools/wordpool_categorized_EN.txt	FOREST	Landscapes	9	6	[0, 0, 0]	n/a	catFR1	0	R1050M
743.765	1.6	862039	WORD	n/a	wordpools/wordpool_categorized_EN.txt	ISLAND	Landscapes	10	6	[0, 0, 0]	n/a	catFR1	0	R1050M
746.216	1.6	863265	WORD	n/a	wordpools/wordpool_categorized_EN.txt	WINE	Beverages	11	6	[0, 0, 0]	n/a	catFR1	0	R1050M
748.634	1.6	864473	WORD	n/a	wordpools/wordpool_categorized_EN.txt	RUM	Beverages	12	6	[0, 0, 0]	n/a	catFR1	0	R1050M
750.25	0.001	865281	DISTRACT_START	n/a	n/a	n/a	n/a	-999	6	[0, 0, 0]	n/a	catFR1	0	R1050M
750.251	0.016	865282	START	n/a	n/a	n/a	n/a	-999	6	[-999, -999, -999]	n/a	catFR1	0	R1050M
750.267	4.684	865290	PROB	4.662	n/a	n/a	n/a	-999	6	[9, 1, 1]	11.0	catFR1	0	R1050M
754.951	6.536	867632	PROB	6.507	n/a	n/a	n/a	-999	6	[3, 9, 4]	16.0	catFR1	0	R1050M
761.487	4.499	870900	PROB	4.474	n/a	n/a	n/a	-999	6	[1, 9, 8]	18.0	catFR1	0	R1050M
765.986	16.031	873149	PROB	16.031	n/a	n/a	n/a	-999	6	[6, 7, 9]	25.0	catFR1	0	R1050M
782.017	0.006	881164	STOP	n/a	n/a	n/a	n/a	-999	6	[-999, -999, -999]	n/a	catFR1	0	R1050M
782.023	1.067	881167	DISTRACT_END	n/a	n/a	n/a	n/a	-999	6	[0, 0, 0]	n/a	catFR1	0	R1050M
783.09	1.216	881700	REC_START	n/a	n/a	n/a	n/a	-999	6	[0, 0, 0]	n/a	catFR1	0	R1050M
784.306	1.895	882308	REC_WORD	1.216	n/a	MILK	Beverages	3	6	[0, 0, 0]	n/a	catFR1	0	R1050M
786.201	3.912	883256	REC_WORD	3.111	n/a	TEA	Beverages	4	6	[0, 0, 0]	n/a	catFR1	0	R1050M
790.113	7.009	885212	REC_WORD	7.023	n/a	LADLE	KitchenTools	7	6	[0, 0, 0]	n/a	catFR1	0	R1050M
797.122	5.091	888716	REC_WORD	14.032	n/a	WINE	Beverages	11	6	[0, 0, 0]	n/a	catFR1	0	R1050M
802.213	10.891	891261	REC_WORD	19.123	n/a	RUM	Beverages	12	6	[0, 0, 0]	n/a	catFR1	0	R1050M
813.104	4.41	896707	REC_END	n/a	n/a	n/a	n/a	-999	6	[0, 0, 0]	n/a	catFR1	0	R1050M
817.514	0.0	898912	TRIAL	n/a	n/a	n/a	n/a	-999	7	[0, 0, 0]	n/a	catFR1	0	R1050M
817.514	10.0	898912	COUNTDOWN_START	n/a	n/a	n/a	n/a	-999	7	[0, 0, 0]	n/a	catFR1	0	R1050M
827.942	0.006	904125	COUNTDOWN_END	n/a	n/a	n/a	n/a	-999	7	[0, 0, 0]	n/a	catFR1	0	R1050M
827.948	1.6	904128	ORIENT	n/a	n/a	n/a	n/a	-999	7	[0, 0, 0]	n/a	catFR1	0	R1050M
831.683	1.6	905996	WORD	n/a	wordpools/wordpool_categorized_EN.txt	ZEBRA	Zoo	1	7	[0, 0, 0]	n/a	catFR1	0	R1050M
834.216	1.6	907262	WORD	n/a	wordpools/wordpool_categorized_EN.txt	CHEETAH	Zoo	2	7	[0, 0, 0]	n/a	catFR1	0	R1050M
836.8	1.6	908554	WORD	n/a	wordpools/wordpool_categorized_EN.txt	SPARROW	Birds	3	7	[0, 0, 0]	n/a	catFR1	0	R1050M
839.368	1.6	909838	WORD	n/a	wordpools/wordpool_categorized_EN.txt	FINCH	Birds	4	7	[0, 0, 0]	n/a	catFR1	0	R1050M
841.768	1.6	911038	WORD	n/a	wordpools/wordpool_categorized_EN.txt	BANJO	Instruments	5	7	[0, 0, 0]	n/a	catFR1	0	R1050M
844.369	1.6	912338	WORD	n/a	wordpools/wordpool_categorized_EN.txt	PIANO	Instruments	6	7	[0, 0, 0]	n/a	catFR1	0	R1050M
846.935	1.6	913621	WORD	n/a	wordpools/wordpool_categorized_EN.txt	LION	Zoo	7	7	[0, 0, 0]	n/a	catFR1	0	R1050M
849.387	1.6	914847	WORD	n/a	wordpools/wordpool_categorized_EN.txt	PANDA	Zoo	8	7	[0, 0, 0]	n/a	catFR1	0	R1050M
851.77	1.6	916039	WORD	n/a	wordpools/wordpool_categorized_EN.txt	FLUTE	Instruments	9	7	[0, 0, 0]	n/a	catFR1	0	R1050M
854.388	1.6	917348	WORD	n/a	wordpools/wordpool_categorized_EN.txt	VIOLIN	Instruments	10	7	[0, 0, 0]	n/a	catFR1	0	R1050M
856.921	1.6	918614	WORD	n/a	wordpools/wordpool_categorized_EN.txt	ROBIN	Birds	11	7	[0, 0, 0]	n/a	catFR1	0	R1050M
859.356	1.6	919831	WORD	n/a	wordpools/wordpool_categorized_EN.txt	DOVE	Birds	12	7	[0, 0, 0]	n/a	catFR1	0	R1050M
860.971	0.002	920639	DISTRACT_START	n/a	n/a	n/a	n/a	-999	7	[0, 0, 0]	n/a	catFR1	0	R1050M
860.973	0.015	920640	START	n/a	n/a	n/a	n/a	-999	7	[-999, -999, -999]	n/a	catFR1	0	R1050M
860.988	4.201	920647	PROB	4.165	n/a	n/a	n/a	-999	7	[4, 8, 4]	16.0	catFR1	0	R1050M
865.189	5.319	922748	PROB	5.293	n/a	n/a	n/a	-999	7	[8, 4, 1]	13.0	catFR1	0	R1050M
870.508	4.934	925407	PROB	4.902	n/a	n/a	n/a	-999	7	[2, 9, 2]	13.0	catFR1	0	R1050M
875.442	6.647	927874	PROB	6.647	n/a	n/a	n/a	-999	7	[9, 6, 4]	21.0	catFR1	0	R1050M
882.089	0.003	931197	STOP	n/a	n/a	n/a	n/a	-999	7	[-999, -999, -999]	n/a	catFR1	0	R1050M
882.092	1.118	931199	DISTRACT_END	n/a	n/a	n/a	n/a	-999	7	[0, 0, 0]	n/a	catFR1	0	R1050M
883.21	2.189	931758	REC_START	n/a	n/a	n/a	n/a	-999	7	[0, 0, 0]	n/a	catFR1	0	R1050M
885.399	1.561	932852	REC_WORD	2.189	n/a	CHEETAH	Zoo	2	7	[0, 0, 0]	n/a	catFR1	0	R1050M
886.96	1.896	933633	REC_WORD	3.75	n/a	PANDA	Zoo	8	7	[0, 0, 0]	n/a	catFR1	0	R1050M
888.856	2.204	934581	REC_WORD	5.646	n/a	SPARROW	Birds	3	7	[0, 0, 0]	n/a	catFR1	0	R1050M
891.06	3.063	935683	REC_WORD	7.85	n/a	FINCH	Birds	4	7	[0, 0, 0]	n/a	catFR1	0	R1050M
894.123	19.098	937214	REC_WORD	10.913	n/a	ZEBRA	Zoo	1	7	[0, 0, 0]	n/a	catFR1	0	R1050M
913.221	41.552	946762	REC_END	n/a	n/a	n/a	n/a	-999	7	[0, 0, 0]	n/a	catFR1	0	R1050M
954.773	10.0	967537	COUNTDOWN_START	n/a	n/a	n/a	n/a	-999	8	[0, 0, 0]	n/a	catFR1	0	R1050M
954.773	10.428	967537	TRIAL	n/a	n/a	n/a	n/a	-999	8	[0, 0, 0]	n/a	catFR1	0	R1050M
965.201	0.007	972751	COUNTDOWN_END	n/a	n/a	n/a	n/a	-999	8	[0, 0, 0]	n/a	catFR1	0	R1050M
965.208	1.6	972754	ORIENT	n/a	n/a	n/a	n/a	-999	8	[0, 0, 0]	n/a	catFR1	0	R1050M
968.792	1.6	974546	WORD	n/a	wordpools/wordpool_categorized_EN.txt	FUDGE	Desserts	1	8	[0, 0, 0]	n/a	catFR1	0	R1050M
971.193	1.6	975747	WORD	n/a	wordpools/wordpool_categorized_EN.txt	JELLO	Desserts	2	8	[0, 0, 0]	n/a	catFR1	0	R1050M
973.728	1.6	977014	WORD	n/a	wordpools/wordpool_categorized_EN.txt	MARKER	OfficeSupplies	3	8	[0, 0, 0]	n/a	catFR1	0	R1050M
976.261	1.6	978281	WORD	n/a	wordpools/wordpool_categorized_EN.txt	ERASER	OfficeSupplies	4	8	[0, 0, 0]	n/a	catFR1	0	R1050M
978.861	1.6	979581	WORD	n/a	wordpools/wordpool_categorized_EN.txt	PETUNIA	Flowers	5	8	[0, 0, 0]	n/a	catFR1	0	R1050M
981.296	1.6	980798	WORD	n/a	wordpools/wordpool_categorized_EN.txt	ORCHID	Flowers	6	8	[0, 0, 0]	n/a	catFR1	0	R1050M
983.862	1.6	982081	WORD	n/a	wordpools/wordpool_categorized_EN.txt	PAPER	OfficeSupplies	7	8	[0, 0, 0]	n/a	catFR1	0	R1050M
986.314	1.6	983307	WORD	n/a	wordpools/wordpool_categorized_EN.txt	RULER	OfficeSupplies	8	8	[0, 0, 0]	n/a	catFR1	0	R1050M
988.93	1.6	984615	WORD	n/a	wordpools/wordpool_categorized_EN.txt	PIE	Desserts	9	8	[0, 0, 0]	n/a	catFR1	0	R1050M
991.365	1.6	985832	WORD	n/a	wordpools/wordpool_categorized_EN.txt	MOUSSE	Desserts	10	8	[0, 0, 0]	n/a	catFR1	0	R1050M
993.947	1.6	987123	WORD	n/a	wordpools/wordpool_categorized_EN.txt	DAISY	Flowers	11	8	[0, 0, 0]	n/a	catFR1	0	R1050M
996.516	1.6	988408	WORD	n/a	wordpools/wordpool_categorized_EN.txt	VIOLET	Flowers	12	8	[0, 0, 0]	n/a	catFR1	0	R1050M
998.132	0.001	989216	DISTRACT_START	n/a	n/a	n/a	n/a	-999	8	[0, 0, 0]	n/a	catFR1	0	R1050M
998.133	0.015	989216	START	n/a	n/a	n/a	n/a	-999	8	[-999, -999, -999]	n/a	catFR1	0	R1050M
998.148	5.835	989224	PROB	5.805	n/a	n/a	n/a	-999	8	[8, 6, 7]	21.0	catFR1	0	R1050M
1003.983	5.234	992141	PROB	5.21	n/a	n/a	n/a	-999	8	[6, 4, 9]	19.0	catFR1	0	R1050M
1009.217	4.751	994758	PROB	4.728	n/a	n/a	n/a	-999	8	[2, 7, 2]	11.0	catFR1	0	R1050M
1013.968	6.209	997133	PROB	6.209	n/a	n/a	n/a	-999	8	[6, 2, 9]	17.0	catFR1	0	R1050M
1020.177	0.009	1000237	STOP	n/a	n/a	n/a	n/a	-999	8	[-999, -999, -999]	n/a	catFR1	0	R1050M
1020.186	1.084	1000242	DISTRACT_END	n/a	n/a	n/a	n/a	-999	8	[0, 0, 0]	n/a	catFR1	0	R1050M
1021.27	0.882	1000784	REC_START	n/a	n/a	n/a	n/a	-999	8	[0, 0, 0]	n/a	catFR1	0	R1050M
1022.152	1.729	1001225	REC_WORD	0.882	n/a	FUDGE	Desserts	1	8	[0, 0, 0]	n/a	catFR1	0	R1050M
1023.881	4.969	1002089	REC_WORD	2.611	n/a	MOUSSE	Desserts	10	8	[0, 0, 0]	n/a	catFR1	0	R1050M
1028.85	3.348	1004574	REC_WORD	7.58	n/a	ORCHID	Flowers	6	8	[0, 0, 0]	n/a	catFR1	0	R1050M
1032.198	3.123	1006248	REC_WORD	10.928	n/a	PETUNIA	Flowers	5	8	[0, 0, 0]	n/a	catFR1	0	R1050M
1035.321	3.257	1007809	REC_WORD	14.051	n/a	MARKER	OfficeSupplies	3	8	[0, 0, 0]	n/a	catFR1	0	R1050M
1038.578	12.703	1009437	REC_WORD	17.308	n/a	ERASER	OfficeSupplies	4	8	[0, 0, 0]	n/a	catFR1	0	R1050M
1051.281	9.913	1015789	REC_END	n/a	n/a	n/a	n/a	-999	8	[0, 0, 0]	n/a	catFR1	0	R1050M
1061.194	0.0	1020745	TRIAL	n/a	n/a	n/a	n/a	-999	9	[0, 0, 0]	n/a	catFR1	0	R1050M
1061.194	10.0	1020745	COUNTDOWN_START	n/a	n/a	n/a	n/a	-999	9	[0, 0, 0]	n/a	catFR1	0	R1050M
1071.622	0.008	1025959	COUNTDOWN_END	n/a	n/a	n/a	n/a	-999	9	[0, 0, 0]	n/a	catFR1	0	R1050M
1071.63	1.6	1025963	ORIENT	n/a	n/a	n/a	n/a	-999	9	[0, 0, 0]	n/a	catFR1	0	R1050M
1075.28	1.6	1027787	WORD	n/a	wordpools/wordpool_categorized_EN.txt	PEAS	Vegetables	1	9	[0, 0, 0]	n/a	catFR1	0	R1050M
1077.83	1.6	1029062	WORD	n/a	wordpools/wordpool_categorized_EN.txt	LETTUCE	Vegetables	2	9	[0, 0, 0]	n/a	catFR1	0	R1050M
1080.264	1.6	1030279	WORD	n/a	wordpools/wordpool_categorized_EN.txt	SHOVEL	Tools	3	9	[0, 0, 0]	n/a	catFR1	0	R1050M
1082.699	1.6	1031497	WORD	n/a	wordpools/wordpool_categorized_EN.txt	AXE	Tools	4	9	[0, 0, 0]	n/a	catFR1	0	R1050M
1085.282	1.6	1032788	WORD	n/a	wordpools/wordpool_categorized_EN.txt	SOCKS	Clothing	5	9	[0, 0, 0]	n/a	catFR1	0	R1050M
1087.75	1.6	1034022	WORD	n/a	wordpools/wordpool_categorized_EN.txt	COAT	Clothing	6	9	[0, 0, 0]	n/a	catFR1	0	R1050M
1090.15	1.6	1035222	WORD	n/a	wordpools/wordpool_categorized_EN.txt	SANDER	Tools	7	9	[0, 0, 0]	n/a	catFR1	0	R1050M
1092.634	1.6	1036464	WORD	n/a	wordpools/wordpool_categorized_EN.txt	LEVEL	Tools	8	9	[0, 0, 0]	n/a	catFR1	0	R1050M
1095.2	1.6	1037747	WORD	n/a	wordpools/wordpool_categorized_EN.txt	CORN	Vegetables	9	9	[0, 0, 0]	n/a	catFR1	0	R1050M
1097.735	1.6	1039014	WORD	n/a	wordpools/wordpool_categorized_EN.txt	SPINACH	Vegetables	10	9	[0, 0, 0]	n/a	catFR1	0	R1050M
1100.251	1.6	1040272	WORD	n/a	wordpools/wordpool_categorized_EN.txt	JACKET	Clothing	11	9	[0, 0, 0]	n/a	catFR1	0	R1050M
1102.686	1.6	1041490	WORD	n/a	wordpools/wordpool_categorized_EN.txt	SHIRT	Clothing	12	9	[0, 0, 0]	n/a	catFR1	0	R1050M
1104.303	0.001	1042298	DISTRACT_START	n/a	n/a	n/a	n/a	-999	9	[0, 0, 0]	n/a	catFR1	0	R1050M
1104.304	0.016	1042299	START	n/a	n/a	n/a	n/a	-999	9	[-999, -999, -999]	n/a	catFR1	0	R1050M
1104.32	3.966	1042307	PROB	3.937	n/a	n/a	n/a	-999	9	[5, 3, 1]	9.0	catFR1	0	R1050M
1108.286	7.535	1044289	PROB	7.515	n/a	n/a	n/a	-999	9	[9, 7, 5]	21.0	catFR1	0	R1050M
1115.821	3.101	1048057	PROB	3.068	n/a	n/a	n/a	-999	9	[6, 3, 1]	10.0	catFR1	0	R1050M
1118.922	4.284	1049607	PROB	4.255	n/a	n/a	n/a	-999	9	[8, 2, 1]	11.0	catFR1	0	R1050M
1123.206	4.124	1051749	PROB	4.124	n/a	n/a	n/a	-999	9	[6, 1, 5]	12.0	catFR1	0	R1050M
1127.33	0.011	1053811	STOP	n/a	n/a	n/a	n/a	-999	9	[-999, -999, -999]	n/a	catFR1	0	R1050M
1127.341	1.118	1053816	DISTRACT_END	n/a	n/a	n/a	n/a	-999	9	[0, 0, 0]	n/a	catFR1	0	R1050M
1128.459	0.95	1054375	REC_START	n/a	n/a	n/a	n/a	-999	9	[0, 0, 0]	n/a	catFR1	0	R1050M
1129.409	1.462	1054850	REC_WORD	0.95	n/a	LEVEL	Tools	8	9	[0, 0, 0]	n/a	catFR1	0	R1050M
1130.871	1.393	1055581	REC_WORD	2.412	n/a	AXE	Tools	4	9	[0, 0, 0]	n/a	catFR1	0	R1050M
1132.264	2.581	1056278	REC_WORD	3.805	n/a	SHIRT	Clothing	12	9	[0, 0, 0]	n/a	catFR1	0	R1050M
1134.845	4.615	1057568	REC_WORD	6.386	n/a	JACKET	Clothing	11	9	[0, 0, 0]	n/a	catFR1	0	R1050M
1139.46	1.875	1059876	REC_WORD	11.001	n/a	PEAS	Vegetables	1	9	[0, 0, 0]	n/a	catFR1	0	R1050M
1141.335	5.744	1060813	REC_WORD	12.876	n/a	LETTUCE	Vegetables	2	9	[0, 0, 0]	n/a	catFR1	0	R1050M
1147.079	11.391	1063685	REC_WORD	18.62	n/a	SANDER	Tools	7	9	[0, 0, 0]	n/a	catFR1	0	R1050M
1158.47	7.661	1069380	REC_END	n/a	n/a	n/a	n/a	-999	9	[0, 0, 0]	n/a	catFR1	0	R1050M
1166.131	0.0	1073210	TRIAL	n/a	n/a	n/a	n/a	-999	10	[0, 0, 0]	n/a	catFR1	0	R1050M
1166.131	10.0	1073210	COUNTDOWN_START	n/a	n/a	n/a	n/a	-999	10	[0, 0, 0]	n/a	catFR1	0	R1050M
1176.559	0.008	1078424	COUNTDOWN_END	n/a	n/a	n/a	n/a	-999	10	[0, 0, 0]	n/a	catFR1	0	R1050M
1176.567	1.6	1078428	ORIENT	n/a	n/a	n/a	n/a	-999	10	[0, 0, 0]	n/a	catFR1	0	R1050M
1180.435	1.6	1080362	WORD	n/a	wordpools/wordpool_categorized_EN.txt	HAWK	Birds	1	10	[0, 0, 0]	n/a	catFR1	0	R1050M
1182.817	1.6	1081553	WORD	n/a	wordpools/wordpool_categorized_EN.txt	DUCK	Birds	2	10	[0, 0, 0]	n/a	catFR1	0	R1050M
1185.285	1.6	1082787	WORD	n/a	wordpools/wordpool_categorized_EN.txt	WHISK	KitchenTools	3	10	[0, 0, 0]	n/a	catFR1	0	R1050M
1187.902	1.6	1084095	WORD	n/a	wordpools/wordpool_categorized_EN.txt	FORK	KitchenTools	4	10	[0, 0, 0]	n/a	catFR1	0	R1050M
1190.503	1.6	1085396	WORD	n/a	wordpools/wordpool_categorized_EN.txt	SCREWDRIVER	Tools	5	10	[0, 0, 0]	n/a	catFR1	0	R1050M
1193.019	1.6	1086654	WORD	n/a	wordpools/wordpool_categorized_EN.txt	SAW	Tools	6	10	[0, 0, 0]	n/a	catFR1	0	R1050M
1195.538	1.6	1087913	WORD	n/a	wordpools/wordpool_categorized_EN.txt	STRAINER	KitchenTools	7	10	[0, 0, 0]	n/a	catFR1	0	R1050M
1198.02	1.6	1089154	WORD	n/a	wordpools/wordpool_categorized_EN.txt	PEELER	KitchenTools	8	10	[0, 0, 0]	n/a	catFR1	0	R1050M
1200.539	1.6	1090413	WORD	n/a	wordpools/wordpool_categorized_EN.txt	BLUEBIRD	Birds	9	10	[0, 0, 0]	n/a	catFR1	0	R1050M
1203.155	1.6	1091721	WORD	n/a	wordpools/wordpool_categorized_EN.txt	CROW	Birds	10	10	[0, 0, 0]	n/a	catFR1	0	R1050M
1205.54	1.6	1092914	WORD	n/a	wordpools/wordpool_categorized_EN.txt	CROWBAR	Tools	11	10	[0, 0, 0]	n/a	catFR1	0	R1050M
1208.072	1.6	1094180	WORD	n/a	wordpools/wordpool_categorized_EN.txt	WRENCH	Tools	12	10	[0, 0, 0]	n/a	catFR1	0	R1050M
1209.673	0.001	1094980	DISTRACT_START	n/a	n/a	n/a	n/a	-999	10	[0, 0, 0]	n/a	catFR1	0	R1050M
1209.674	0.016	1094981	START	n/a	n/a	n/a	n/a	-999	10	[-999, -999, -999]	n/a	catFR1	0	R1050M
1209.69	6.818	1094989	PROB	6.792	n/a	n/a	n/a	-999	10	[6, 7, 5]	18.0	catFR1	0	R1050M
1216.508	6.218	1098398	PROB	6.198	n/a	n/a	n/a	-999	10	[1, 4, 3]	8.0	catFR1	0	R1050M
1222.726	4.668	1101506	PROB	4.636	n/a	n/a	n/a	-999	10	[1, 8, 5]	14.0	catFR1	0	R1050M
1227.394	7.928	1103840	PROB	7.928	n/a	n/a	n/a	-999	10	[1, 1, 7]	9.0	catFR1	0	R1050M
1235.322	0.007	1107804	STOP	n/a	n/a	n/a	n/a	-999	10	[-999, -999, -999]	n/a	catFR1	0	R1050M
1235.329	1.167	1107807	DISTRACT_END	n/a	n/a	n/a	n/a	-999	10	[0, 0, 0]	n/a	catFR1	0	R1050M
1236.496	2.075	1108391	REC_START	n/a	n/a	n/a	n/a	-999	10	[0, 0, 0]	n/a	catFR1	0	R1050M
1238.571	3.984	1109428	REC_WORD	2.075	n/a	PEELER	KitchenTools	8	10	[0, 0, 0]	n/a	catFR1	0	R1050M
1242.555	10.502	1111420	REC_WORD	6.059	n/a	SAW	Tools	6	10	[0, 0, 0]	n/a	catFR1	0	R1050M
1253.057	1.425	1116671	REC_WORD	16.561	n/a	WHISK	KitchenTools	3	10	[0, 0, 0]	n/a	catFR1	0	R1050M
1254.482	2.75	1117383	REC_WORD	17.986	n/a	FORK	KitchenTools	4	10	[0, 0, 0]	n/a	catFR1	0	R1050M
1257.232	3.877	1118758	REC_WORD	20.736	n/a	HAWK	Birds	1	10	[0, 0, 0]	n/a	catFR1	0	R1050M
1261.109	4.007	1120697	REC_WORD	24.613	n/a	DUCK	Birds	2	10	[0, 0, 0]	n/a	catFR1	0	R1050M
1265.116	1.395	1122700	REC_WORD	28.62	n/a	CROW	Birds	10	10	[0, 0, 0]	n/a	catFR1	0	R1050M
1266.511	8.175	1123398	REC_END	n/a	n/a	n/a	n/a	-999	10	[0, 0, 0]	n/a	catFR1	0	R1050M
1274.686	10.0	1127485	COUNTDOWN_START	n/a	n/a	n/a	n/a	-999	11	[0, 0, 0]	n/a	catFR1	0	R1050M
1274.687	10.427	1127485	TRIAL	n/a	n/a	n/a	n/a	-999	11	[0, 0, 0]	n/a	catFR1	0	R1050M
1285.114	0.007	1132699	COUNTDOWN_END	n/a	n/a	n/a	n/a	-999	11	[0, 0, 0]	n/a	catFR1	0	R1050M
1285.121	1.6	1132702	ORIENT	n/a	n/a	n/a	n/a	-999	11	[0, 0, 0]	n/a	catFR1	0	R1050M
1288.656	1.6	1134470	WORD	n/a	wordpools/wordpool_categorized_EN.txt	HEADPHONES	Electronics	1	11	[0, 0, 0]	n/a	catFR1	0	R1050M
1291.139	1.6	1135711	WORD	n/a	wordpools/wordpool_categorized_EN.txt	SCANNER	Electronics	2	11	[0, 0, 0]	n/a	catFR1	0	R1050M
1293.607	1.6	1136945	WORD	n/a	wordpools/wordpool_categorized_EN.txt	CHEESECAKE	Desserts	3	11	[0, 0, 0]	n/a	catFR1	0	R1050M
1296.206	1.6	1138244	WORD	n/a	wordpools/wordpool_categorized_EN.txt	CAKE	Desserts	4	11	[0, 0, 0]	n/a	catFR1	0	R1050M
1298.657	1.6	1139470	WORD	n/a	wordpools/wordpool_categorized_EN.txt	MARBLES	Toys	5	11	[0, 0, 0]	n/a	catFR1	0	R1050M
1301.04	1.6	1140661	WORD	n/a	wordpools/wordpool_categorized_EN.txt	PUZZLE	Toys	6	11	[0, 0, 0]	n/a	catFR1	0	R1050M
1303.492	1.6	1141887	WORD	n/a	wordpools/wordpool_categorized_EN.txt	STEREO	Electronics	7	11	[0, 0, 0]	n/a	catFR1	0	R1050M
1306.041	1.6	1143162	WORD	n/a	wordpools/wordpool_categorized_EN.txt	TABLET	Electronics	8	11	[0, 0, 0]	n/a	catFR1	0	R1050M
1308.426	1.6	1144354	WORD	n/a	wordpools/wordpool_categorized_EN.txt	FOOTBALL	Toys	9	11	[0, 0, 0]	n/a	catFR1	0	R1050M
1310.976	1.6	1145629	WORD	n/a	wordpools/wordpool_categorized_EN.txt	DOLL	Toys	10	11	[0, 0, 0]	n/a	catFR1	0	R1050M
1313.36	1.6	1146821	WORD	n/a	wordpools/wordpool_categorized_EN.txt	COBBLER	Desserts	11	11	[0, 0, 0]	n/a	catFR1	0	R1050M
1315.744	1.6	1148013	WORD	n/a	wordpools/wordpool_categorized_EN.txt	COOKIE	Desserts	12	11	[0, 0, 0]	n/a	catFR1	0	R1050M
1317.361	0.002	1148821	DISTRACT_START	n/a	n/a	n/a	n/a	-999	11	[0, 0, 0]	n/a	catFR1	0	R1050M
1317.363	0.015	1148822	START	n/a	n/a	n/a	n/a	-999	11	[-999, -999, -999]	n/a	catFR1	0	R1050M
1317.378	4.201	1148830	PROB	4.176	n/a	n/a	n/a	-999	11	[6, 8, 4]	18.0	catFR1	0	R1050M
1321.579	5.683	1150930	PROB	5.646	n/a	n/a	n/a	-999	11	[7, 6, 9]	22.0	catFR1	0	R1050M
1327.262	7.403	1153771	PROB	7.38	n/a	n/a	n/a	-999	11	[7, 4, 8]	19.0	catFR1	0	R1050M
1334.665	4.073	1157473	PROB	4.073	n/a	n/a	n/a	-999	11	[5, 1, 4]	10.0	catFR1	0	R1050M
1338.738	0.011	1159509	STOP	n/a	n/a	n/a	n/a	-999	11	[-999, -999, -999]	n/a	catFR1	0	R1050M
1338.749	1.2	1159515	DISTRACT_END	n/a	n/a	n/a	n/a	-999	11	[0, 0, 0]	n/a	catFR1	0	R1050M
1339.949	1.092	1160115	REC_START	n/a	n/a	n/a	n/a	-999	11	[0, 0, 0]	n/a	catFR1	0	R1050M
1341.041	1.484	1160661	REC_WORD	1.092	n/a	CHEESECAKE	Desserts	3	11	[0, 0, 0]	n/a	catFR1	0	R1050M
1342.525	2.061	1161403	REC_WORD	2.576	n/a	CAKE	Desserts	4	11	[0, 0, 0]	n/a	catFR1	0	R1050M
1344.586	14.204	1162433	REC_WORD	4.637	n/a	MARBLES	Toys	5	11	[0, 0, 0]	n/a	catFR1	0	R1050M
1358.79	1.787	1169535	REC_WORD	18.841	n/a	HEADPHONES	Electronics	1	11	[0, 0, 0]	n/a	catFR1	0	R1050M
1360.577	4.684	1170428	REC_WORD	20.628	n/a	TABLET	Electronics	8	11	[0, 0, 0]	n/a	catFR1	0	R1050M
1365.261	4.699	1172770	REC_WORD	25.312	n/a	COBBLESTONE	n/a	-999	11	[0, 0, 0]	n/a	catFR1	0	R1050M
1369.96	5.995	1175119	REC_END	n/a	n/a	n/a	n/a	-999	11	[0, 0, 0]	n/a	catFR1	0	R1050M
1375.955	0.0	1178117	TRIAL	n/a	n/a	n/a	n/a	-999	12	[0, 0, 0]	n/a	catFR1	0	R1050M
1375.955	10.0	1178117	COUNTDOWN_START	n/a	n/a	n/a	n/a	-999	12	[0, 0, 0]	n/a	catFR1	0	R1050M
1386.383	0.008	1183330	COUNTDOWN_END	n/a	n/a	n/a	n/a	-999	12	[0, 0, 0]	n/a	catFR1	0	R1050M
1386.391	1.6	1183334	ORIENT	n/a	n/a	n/a	n/a	-999	12	[0, 0, 0]	n/a	catFR1	0	R1050M
1390.158	1.6	1185218	WORD	n/a	wordpools/wordpool_categorized_EN.txt	BEER	Beverages	1	12	[0, 0, 0]	n/a	catFR1	0	R1050M
1392.643	1.6	1186460	WORD	n/a	wordpools/wordpool_categorized_EN.txt	COLA	Beverages	2	12	[0, 0, 0]	n/a	catFR1	0	R1050M
1395.092	1.6	1187685	WORD	n/a	wordpools/wordpool_categorized_EN.txt	CAULIFLOWER	Vegetables	3	12	[0, 0, 0]	n/a	catFR1	0	R1050M
1397.66	1.6	1188968	WORD	n/a	wordpools/wordpool_categorized_EN.txt	CUCUMBER	Vegetables	4	12	[0, 0, 0]	n/a	catFR1	0	R1050M
1400.06	1.6	1190168	WORD	n/a	wordpools/wordpool_categorized_EN.txt	PIGEON	Birds	5	12	[0, 0, 0]	n/a	catFR1	0	R1050M
1402.645	1.6	1191461	WORD	n/a	wordpools/wordpool_categorized_EN.txt	CARDINAL	Birds	6	12	[0, 0, 0]	n/a	catFR1	0	R1050M
1405.044	1.6	1192660	WORD	n/a	wordpools/wordpool_categorized_EN.txt	CABBAGE	Vegetables	7	12	[0, 0, 0]	n/a	catFR1	0	R1050M
1407.412	1.6	1193844	WORD	n/a	wordpools/wordpool_categorized_EN.txt	CARROT	Vegetables	8	12	[0, 0, 0]	n/a	catFR1	0	R1050M
1409.995	1.6	1195136	WORD	n/a	wordpools/wordpool_categorized_EN.txt	LEMONADE	Beverages	9	12	[0, 0, 0]	n/a	catFR1	0	R1050M
1412.38	1.6	1196328	WORD	n/a	wordpools/wordpool_categorized_EN.txt	COFFEE	Beverages	10	12	[0, 0, 0]	n/a	catFR1	0	R1050M
1414.929	1.6	1197603	WORD	n/a	wordpools/wordpool_categorized_EN.txt	GOOSE	Birds	11	12	[0, 0, 0]	n/a	catFR1	0	R1050M
1417.498	1.6	1198887	WORD	n/a	wordpools/wordpool_categorized_EN.txt	SEAGULL	Birds	12	12	[0, 0, 0]	n/a	catFR1	0	R1050M
1419.114	0.001	1199695	DISTRACT_START	n/a	n/a	n/a	n/a	-999	12	[0, 0, 0]	n/a	catFR1	0	R1050M
1419.115	0.015	1199695	START	n/a	n/a	n/a	n/a	-999	12	[-999, -999, -999]	n/a	catFR1	0	R1050M
1419.13	3.468	1199703	PROB	3.44	n/a	n/a	n/a	-999	12	[5, 1, 5]	11.0	catFR1	0	R1050M
1422.598	4.367	1201437	PROB	4.331	n/a	n/a	n/a	-999	12	[5, 7, 5]	17.0	catFR1	0	R1050M
1426.965	3.167	1203620	PROB	3.14	n/a	n/a	n/a	-999	12	[5, 5, 9]	19.0	catFR1	0	R1050M
1430.132	3.619	1205204	PROB	3.59	n/a	n/a	n/a	-999	12	[1, 1, 2]	4.0	catFR1	0	R1050M
1433.751	12.538	1207013	PROB	12.538	n/a	n/a	n/a	-999	12	[9, 9, 6]	24.0	catFR1	0	R1050M
1446.289	0.014	1213282	STOP	n/a	n/a	n/a	n/a	-999	12	[-999, -999, -999]	n/a	catFR1	0	R1050M
1446.303	1.202	1213289	DISTRACT_END	n/a	n/a	n/a	n/a	-999	12	[0, 0, 0]	n/a	catFR1	0	R1050M
1447.505	3.539	1213890	REC_START	n/a	n/a	n/a	n/a	-999	12	[0, 0, 0]	n/a	catFR1	0	R1050M
1451.044	1.167	1215659	REC_WORD	3.539	n/a	BEER	Beverages	1	12	[0, 0, 0]	n/a	catFR1	0	R1050M
1452.211	3.325	1216242	REC_WORD	4.706	n/a	COLA	Beverages	2	12	[0, 0, 0]	n/a	catFR1	0	R1050M
1455.536	1.857	1217905	REC_WORD	8.031	n/a	LEMONADE	Beverages	9	12	[0, 0, 0]	n/a	catFR1	0	R1050M
1457.393	20.122	1218833	REC_WORD	9.888	n/a	CAULIFLOWER	Vegetables	3	12	[0, 0, 0]	n/a	catFR1	0	R1050M
1477.515	7.478	1228894	REC_END	n/a	n/a	n/a	n/a	-999	12	[0, 0, 0]	n/a	catFR1	0	R1050M
1484.993	0.0	1232633	TRIAL	n/a	n/a	n/a	n/a	-999	13	[0, 0, 0]	n/a	catFR1	0	R1050M
1484.993	10.0	1232633	COUNTDOWN_START	n/a	n/a	n/a	n/a	-999	13	[0, 0, 0]	n/a	catFR1	0	R1050M
1495.421	0.008	1237846	COUNTDOWN_END	n/a	n/a	n/a	n/a	-999	13	[0, 0, 0]	n/a	catFR1	0	R1050M
1495.429	1.6	1237850	ORIENT	n/a	n/a	n/a	n/a	-999	13	[0, 0, 0]	n/a	catFR1	0	R1050M
1499.146	1.6	1239709	WORD	n/a	wordpools/wordpool_categorized_EN.txt	APPLE	Fruit	1	13	[0, 0, 0]	n/a	catFR1	0	R1050M
1501.747	1.6	1241009	WORD	n/a	wordpools/wordpool_categorized_EN.txt	CHERRY	Fruit	2	13	[0, 0, 0]	n/a	catFR1	0	R1050M
1504.18	1.6	1242226	WORD	n/a	wordpools/wordpool_categorized_EN.txt	LAKE	Landscapes	3	13	[0, 0, 0]	n/a	catFR1	0	R1050M
1506.665	1.6	1243468	WORD	n/a	wordpools/wordpool_categorized_EN.txt	WOODS	Landscapes	4	13	[0, 0, 0]	n/a	catFR1	0	R1050M
1509.098	1.6	1244684	WORD	n/a	wordpools/wordpool_categorized_EN.txt	TROMBONE	Instruments	5	13	[0, 0, 0]	n/a	catFR1	0	R1050M
1511.599	1.6	1245935	WORD	n/a	wordpools/wordpool_categorized_EN.txt	CELLO	Instruments	6	13	[0, 0, 0]	n/a	catFR1	0	R1050M
1514.049	1.6	1247160	WORD	n/a	wordpools/wordpool_categorized_EN.txt	MOUNTAIN	Landscapes	7	13	[0, 0, 0]	n/a	catFR1	0	R1050M
1516.584	1.6	1248427	WORD	n/a	wordpools/wordpool_categorized_EN.txt	RIVER	Landscapes	8	13	[0, 0, 0]	n/a	catFR1	0	R1050M
1519.15	1.6	1249710	WORD	n/a	wordpools/wordpool_categorized_EN.txt	BANANA	Fruit	9	13	[0, 0, 0]	n/a	catFR1	0	R1050M
1521.551	1.6	1250911	WORD	n/a	wordpools/wordpool_categorized_EN.txt	BLUEBERRY	Fruit	10	13	[0, 0, 0]	n/a	catFR1	0	R1050M
1523.967	1.6	1252119	WORD	n/a	wordpools/wordpool_categorized_EN.txt	BASS	Instruments	11	13	[0, 0, 0]	n/a	catFR1	0	R1050M
1526.502	1.6	1253386	WORD	n/a	wordpools/wordpool_categorized_EN.txt	TRUMPET	Instruments	12	13	[0, 0, 0]	n/a	catFR1	0	R1050M
1528.118	0.001	1254194	DISTRACT_START	n/a	n/a	n/a	n/a	-999	13	[0, 0, 0]	n/a	catFR1	0	R1050M
1528.119	0.016	1254194	START	n/a	n/a	n/a	n/a	-999	13	[-999, -999, -999]	n/a	catFR1	0	R1050M
1528.135	7.101	1254202	PROB	7.066	n/a	n/a	n/a	-999	13	[2, 8, 2]	12.0	catFR1	0	R1050M
1535.236	5.436	1257753	PROB	5.414	n/a	n/a	n/a	-999	13	[5, 1, 8]	14.0	catFR1	0	R1050M
1540.672	4.951	1260471	PROB	4.93	n/a	n/a	n/a	-999	13	[3, 7, 9]	19.0	catFR1	0	R1050M
1545.623	6.131	1262946	PROB	6.131	n/a	n/a	n/a	-999	13	[1, 4, 7]	12.0	catFR1	0	R1050M
1551.754	0.003	1266011	STOP	n/a	n/a	n/a	n/a	-999	13	[-999, -999, -999]	n/a	catFR1	0	R1050M
1551.757	1.217	1266013	DISTRACT_END	n/a	n/a	n/a	n/a	-999	13	[0, 0, 0]	n/a	catFR1	0	R1050M
1552.974	1.934	1266621	REC_START	n/a	n/a	n/a	n/a	-999	13	[0, 0, 0]	n/a	catFR1	0	R1050M
1554.908	1.619	1267588	REC_WORD	1.934	n/a	CHERRY	Fruit	2	13	[0, 0, 0]	n/a	catFR1	0	R1050M
1556.527	4.945	1268398	REC_WORD	3.553	n/a	APPLE	Fruit	1	13	[0, 0, 0]	n/a	catFR1	0	R1050M
1561.472	2.18	1270870	REC_WORD	8.498	n/a	LAKE	Landscapes	3	13	[0, 0, 0]	n/a	catFR1	0	R1050M
1563.652	2.671	1271960	REC_WORD	10.678	n/a	WOODS	Landscapes	4	13	[0, 0, 0]	n/a	catFR1	0	R1050M
1566.323	3.353	1273295	REC_WORD	13.349	n/a	TRUMPET	Instruments	12	13	[0, 0, 0]	n/a	catFR1	0	R1050M
1569.676	7.805	1274972	REC_WORD	16.702	n/a	TROMBONE	Instruments	5	13	[0, 0, 0]	n/a	catFR1	0	R1050M
1577.481	5.504	1278874	REC_WORD	24.507	n/a	DRUM	n/a	-999	13	[0, 0, 0]	n/a	catFR1	0	R1050M
1582.985	6.995	1281626	REC_END	n/a	n/a	n/a	n/a	-999	13	[0, 0, 0]	n/a	catFR1	0	R1050M
1589.98	0.0	1285123	TRIAL	n/a	n/a	n/a	n/a	-999	14	[0, 0, 0]	n/a	catFR1	0	R1050M
1589.98	10.0	1285123	COUNTDOWN_START	n/a	n/a	n/a	n/a	-999	14	[0, 0, 0]	n/a	catFR1	0	R1050M
1600.408	0.009	1290337	COUNTDOWN_END	n/a	n/a	n/a	n/a	-999	14	[0, 0, 0]	n/a	catFR1	0	R1050M
1600.417	1.6	1290341	ORIENT	n/a	n/a	n/a	n/a	-999	14	[0, 0, 0]	n/a	catFR1	0	R1050M
1604.334	1.6	1292300	WORD	n/a	wordpools/wordpool_categorized_EN.txt	OYSTER	OceanAnimals	1	14	[0, 0, 0]	n/a	catFR1	0	R1050M
1606.9	1.6	1293583	WORD	n/a	wordpools/wordpool_categorized_EN.txt	SHRIMP	OceanAnimals	2	14	[0, 0, 0]	n/a	catFR1	0	R1050M
1609.385	1.6	1294825	WORD	n/a	wordpools/wordpool_categorized_EN.txt	REFRIGERATOR	Appliances	3	14	[0, 0, 0]	n/a	catFR1	0	R1050M
1611.884	1.6	1296075	WORD	n/a	wordpools/wordpool_categorized_EN.txt	BLENDER	Appliances	4	14	[0, 0, 0]	n/a	catFR1	0	R1050M
1614.469	1.6	1297367	WORD	n/a	wordpools/wordpool_categorized_EN.txt	WIND	Weather	5	14	[0, 0, 0]	n/a	catFR1	0	R1050M
1616.852	1.6	1298558	WORD	n/a	wordpools/wordpool_categorized_EN.txt	FOG	Weather	6	14	[0, 0, 0]	n/a	catFR1	0	R1050M
1619.37	1.6	1299817	WORD	n/a	wordpools/wordpool_categorized_EN.txt	MIXER	Appliances	7	14	[0, 0, 0]	n/a	catFR1	0	R1050M
1621.82	1.6	1301042	WORD	n/a	wordpools/wordpool_categorized_EN.txt	VACUUM	Appliances	8	14	[0, 0, 0]	n/a	catFR1	0	R1050M
1624.405	1.6	1302335	WORD	n/a	wordpools/wordpool_categorized_EN.txt	DOLPHIN	OceanAnimals	9	14	[0, 0, 0]	n/a	catFR1	0	R1050M
1626.971	1.6	1303618	WORD	n/a	wordpools/wordpool_categorized_EN.txt	CRAB	OceanAnimals	10	14	[0, 0, 0]	n/a	catFR1	0	R1050M
1629.489	1.6	1304877	WORD	n/a	wordpools/wordpool_categorized_EN.txt	THUNDERSTORM	Weather	11	14	[0, 0, 0]	n/a	catFR1	0	R1050M
1632.022	1.6	1306143	WORD	n/a	wordpools/wordpool_categorized_EN.txt	LIGHTNING	Weather	12	14	[0, 0, 0]	n/a	catFR1	0	R1050M
1633.64	0.001	1306952	DISTRACT_START	n/a	n/a	n/a	n/a	-999	14	[0, 0, 0]	n/a	catFR1	0	R1050M
1633.641	0.015	1306952	START	n/a	n/a	n/a	n/a	-999	14	[-999, -999, -999]	n/a	catFR1	0	R1050M
1633.656	4.484	1306960	PROB	4.449	n/a	n/a	n/a	-999	14	[3, 1, 7]	11.0	catFR1	0	R1050M
1638.14	5.884	1309202	PROB	5.861	n/a	n/a	n/a	-999	14	[1, 3, 6]	10.0	catFR1	0	R1050M
1644.024	5.335	1312144	PROB	5.306	n/a	n/a	n/a	-999	14	[3, 1, 4]	8.0	catFR1	0	R1050M
1649.359	7.818	1314811	PROB	7.818	n/a	n/a	n/a	-999	14	[6, 7, 6]	19.0	catFR1	0	R1050M
1657.177	0.016	1318720	STOP	n/a	n/a	n/a	n/a	-999	14	[-999, -999, -999]	n/a	catFR1	0	R1050M
1657.193	1.068	1318728	DISTRACT_END	n/a	n/a	n/a	n/a	-999	14	[0, 0, 0]	n/a	catFR1	0	R1050M
1658.261	1.204	1319262	REC_START	n/a	n/a	n/a	n/a	-999	14	[0, 0, 0]	n/a	catFR1	0	R1050M
1659.465	2.133	1319864	REC_WORD	1.204	n/a	THUNDERSTORM	Weather	11	14	[0, 0, 0]	n/a	catFR1	0	R1050M
1661.598	26.672	1320930	REC_WORD	3.337	n/a	LIGHTNING	Weather	12	14	[0, 0, 0]	n/a	catFR1	0	R1050M
1688.27	4.63	1334265	REC_END	n/a	n/a	n/a	n/a	-999	14	[0, 0, 0]	n/a	catFR1	0	R1050M
1692.9	10.0	1336580	COUNTDOWN_START	n/a	n/a	n/a	n/a	-999	15	[0, 0, 0]	n/a	catFR1	0	R1050M
1692.9	10.428	1336580	TRIAL	n/a	n/a	n/a	n/a	-999	15	[0, 0, 0]	n/a	catFR1	0	R1050M
1703.328	0.009	1341794	COUNTDOWN_END	n/a	n/a	n/a	n/a	-999	15	[0, 0, 0]	n/a	catFR1	0	R1050M
1703.337	1.6	1341799	ORIENT	n/a	n/a	n/a	n/a	-999	15	[0, 0, 0]	n/a	catFR1	0	R1050M
1706.87	1.6	1343565	WORD	n/a	wordpools/wordpool_categorized_EN.txt	WALL	Building	1	15	[0, 0, 0]	n/a	catFR1	0	R1050M
1709.27	1.6	1344765	WORD	n/a	wordpools/wordpool_categorized_EN.txt	FOUNDATION	Building	2	15	[0, 0, 0]	n/a	catFR1	0	R1050M
1711.871	1.6	1346065	WORD	n/a	wordpools/wordpool_categorized_EN.txt	CARNATION	Flowers	3	15	[0, 0, 0]	n/a	catFR1	0	R1050M
1714.271	1.6	1347265	WORD	n/a	wordpools/wordpool_categorized_EN.txt	LILY	Flowers	4	15	[0, 0, 0]	n/a	catFR1	0	R1050M
1716.656	1.6	1348458	WORD	n/a	wordpools/wordpool_categorized_EN.txt	TABLE	Furniture	5	15	[0, 0, 0]	n/a	catFR1	0	R1050M
1719.122	1.6	1349691	WORD	n/a	wordpools/wordpool_categorized_EN.txt	DRESSER	Furniture	6	15	[0, 0, 0]	n/a	catFR1	0	R1050M
1721.557	1.6	1350908	WORD	n/a	wordpools/wordpool_categorized_EN.txt	HALLWAY	Building	7	15	[0, 0, 0]	n/a	catFR1	0	R1050M
1724.156	1.6	1352207	WORD	n/a	wordpools/wordpool_categorized_EN.txt	BATHROOM	Building	8	15	[0, 0, 0]	n/a	catFR1	0	R1050M
1726.708	1.6	1353483	WORD	n/a	wordpools/wordpool_categorized_EN.txt	DESK	Furniture	9	15	[0, 0, 0]	n/a	catFR1	0	R1050M
1729.207	1.6	1354733	WORD	n/a	wordpools/wordpool_categorized_EN.txt	NIGHTSTAND	Furniture	10	15	[0, 0, 0]	n/a	catFR1	0	R1050M
1731.675	1.6	1355967	WORD	n/a	wordpools/wordpool_categorized_EN.txt	LILAC	Flowers	11	15	[0, 0, 0]	n/a	catFR1	0	R1050M
1734.225	1.6	1357242	WORD	n/a	wordpools/wordpool_categorized_EN.txt	MARIGOLD	Flowers	12	15	[0, 0, 0]	n/a	catFR1	0	R1050M
1735.842	0.001	1358050	DISTRACT_START	n/a	n/a	n/a	n/a	-999	15	[0, 0, 0]	n/a	catFR1	0	R1050M
1735.843	0.016	1358051	START	n/a	n/a	n/a	n/a	-999	15	[-999, -999, -999]	n/a	catFR1	0	R1050M
1735.859	4.768	1358059	PROB	4.735	n/a	n/a	n/a	-999	15	[5, 5, 9]	19.0	catFR1	0	R1050M
1740.627	2.917	1360443	PROB	2.887	n/a	n/a	n/a	-999	15	[4, 1, 4]	9.0	catFR1	0	R1050M
1743.544	6.085	1361901	PROB	6.05	n/a	n/a	n/a	-999	15	[5, 2, 7]	14.0	catFR1	0	R1050M
1749.629	8.212	1364943	PROB	8.212	n/a	n/a	n/a	-999	15	[2, 5, 4]	9.0	catFR1	0	R1050M
1757.841	0.005	1369049	STOP	n/a	n/a	n/a	n/a	-999	15	[-999, -999, -999]	n/a	catFR1	0	R1050M
1757.846	1.201	1369052	DISTRACT_END	n/a	n/a	n/a	n/a	-999	15	[0, 0, 0]	n/a	catFR1	0	R1050M
1759.047	0.832	1369652	REC_START	n/a	n/a	n/a	n/a	-999	15	[0, 0, 0]	n/a	catFR1	0	R1050M
1759.879	1.224	1370068	REC_WORD	0.832	n/a	WALL	Building	1	15	[0, 0, 0]	n/a	catFR1	0	R1050M
1761.103	2.27	1370680	REC_WORD	2.056	n/a	FOUNDATION	Building	2	15	[0, 0, 0]	n/a	catFR1	0	R1050M
1763.373	2.022	1371815	REC_WORD	4.326	n/a	CARNATION	Flowers	3	15	[0, 0, 0]	n/a	catFR1	0	R1050M
1765.395	2.071	1372826	REC_WORD	6.348	n/a	LILY	Flowers	4	15	[0, 0, 0]	n/a	catFR1	0	R1050M
1767.466	8.123	1373861	REC_WORD	8.419	n/a	LILAC	Flowers	11	15	[0, 0, 0]	n/a	catFR1	0	R1050M
1775.589	4.741	1377923	REC_WORD	16.542	n/a	DESK	Furniture	9	15	[0, 0, 0]	n/a	catFR1	0	R1050M
1780.33	5.681	1380293	REC_WORD	21.283	n/a	DRAWER	n/a	-999	15	[0, 0, 0]	n/a	catFR1	0	R1050M
1786.011	3.046	1383133	REC_WORD	26.964	n/a	DOOR	n/a	-999	15	[0, 0, 0]	n/a	catFR1	0	R1050M
1789.057	8.08	1384656	REC_END	n/a	n/a	n/a	n/a	-999	15	[0, 0, 0]	n/a	catFR1	0	R1050M
1797.137	10.0	1388696	COUNTDOWN_START	n/a	n/a	n/a	n/a	-999	16	[0, 0, 0]	n/a	catFR1	0	R1050M
1797.138	10.427	1388696	TRIAL	n/a	n/a	n/a	n/a	-999	16	[0, 0, 0]	n/a	catFR1	0	R1050M
1807.565	0.009	1393910	COUNTDOWN_END	n/a	n/a	n/a	n/a	-999	16	[0, 0, 0]	n/a	catFR1	0	R1050M
1807.574	1.6	1393914	ORIENT	n/a	n/a	n/a	n/a	-999	16	[0, 0, 0]	n/a	catFR1	0	R1050M
1811.29	1.6	1395772	WORD	n/a	wordpools/wordpool_categorized_EN.txt	WATER	Beverages	1	16	[0, 0, 0]	n/a	catFR1	0	R1050M
1813.807	1.6	1397030	WORD	n/a	wordpools/wordpool_categorized_EN.txt	JUICE	Beverages	2	16	[0, 0, 0]	n/a	catFR1	0	R1050M
1816.224	1.6	1398239	WORD	n/a	wordpools/wordpool_categorized_EN.txt	SHORTS	Clothing	3	16	[0, 0, 0]	n/a	catFR1	0	R1050M
1818.676	1.6	1399465	WORD	n/a	wordpools/wordpool_categorized_EN.txt	BLOUSE	Clothing	4	16	[0, 0, 0]	n/a	catFR1	0	R1050M
1821.175	1.6	1400714	WORD	n/a	wordpools/wordpool_categorized_EN.txt	BEE	Insects	5	16	[0, 0, 0]	n/a	catFR1	0	R1050M
1823.743	1.6	1401998	WORD	n/a	wordpools/wordpool_categorized_EN.txt	MOSQUITO	Insects	6	16	[0, 0, 0]	n/a	catFR1	0	R1050M
1826.31	1.6	1403282	WORD	n/a	wordpools/wordpool_categorized_EN.txt	SODA	Beverages	7	16	[0, 0, 0]	n/a	catFR1	0	R1050M
1828.81	1.6	1404532	WORD	n/a	wordpools/wordpool_categorized_EN.txt	CIDER	Beverages	8	16	[0, 0, 0]	n/a	catFR1	0	R1050M
1831.227	1.6	1405740	WORD	n/a	wordpools/wordpool_categorized_EN.txt	ANT	Insects	9	16	[0, 0, 0]	n/a	catFR1	0	R1050M
1833.712	1.6	1406982	WORD	n/a	wordpools/wordpool_categorized_EN.txt	FLY	Insects	10	16	[0, 0, 0]	n/a	catFR1	0	R1050M
1836.278	1.6	1408265	WORD	n/a	wordpools/wordpool_categorized_EN.txt	PANTS	Clothing	11	16	[0, 0, 0]	n/a	catFR1	0	R1050M
1838.812	1.6	1409532	WORD	n/a	wordpools/wordpool_categorized_EN.txt	JEANS	Clothing	12	16	[0, 0, 0]	n/a	catFR1	0	R1050M
1840.413	0.001	1410333	DISTRACT_START	n/a	n/a	n/a	n/a	-999	16	[0, 0, 0]	n/a	catFR1	0	R1050M
1840.414	0.016	1410333	START	n/a	n/a	n/a	n/a	-999	16	[-999, -999, -999]	n/a	catFR1	0	R1050M
1840.43	5.617	1410341	PROB	5.587	n/a	n/a	n/a	-999	16	[8, 1, 4]	15.0	catFR1	0	R1050M
1846.047	10.752	1413150	PROB	10.722	n/a	n/a	n/a	-999	16	[9, 6, 9]	24.0	catFR1	0	R1050M
1856.799	4.082	1418525	PROB	4.082	n/a	n/a	n/a	-999	16	[1, 2, 3]	6.0	catFR1	0	R1050M
1860.881	0.019	1420566	STOP	n/a	n/a	n/a	n/a	-999	16	[-999, -999, -999]	n/a	catFR1	0	R1050M
1860.9	1.167	1420576	DISTRACT_END	n/a	n/a	n/a	n/a	-999	16	[0, 0, 0]	n/a	catFR1	0	R1050M
1862.067	1.783	1421159	REC_START	n/a	n/a	n/a	n/a	-999	16	[0, 0, 0]	n/a	catFR1	0	R1050M
1863.85	2.842	1422051	REC_WORD	1.783	n/a	SHORTS	Clothing	3	16	[0, 0, 0]	n/a	catFR1	0	R1050M
1866.692	1.613	1423472	REC_WORD	4.625	n/a	CIDER	Beverages	8	16	[0, 0, 0]	n/a	catFR1	0	R1050M
1868.305	8.526	1424278	REC_WORD	6.238	n/a	ANT	Insects	9	16	[0, 0, 0]	n/a	catFR1	0	R1050M
1876.831	2.019	1428541	REC_WORD	14.764	n/a	WATER	Beverages	1	16	[0, 0, 0]	n/a	catFR1	0	R1050M
1878.85	13.232	1429550	REC_WORD	16.783	n/a	SODA	Beverages	7	16	[0, 0, 0]	n/a	catFR1	0	R1050M
1892.082	176.191	1436166	REC_END	n/a	n/a	n/a	n/a	-999	16	[0, 0, 0]	n/a	catFR1	0	R1050M
2068.273	10.0	1524256	COUNTDOWN_START	n/a	n/a	n/a	n/a	-999	17	[0, 0, 0]	n/a	catFR1	0	R1050M
2068.274	0.0	1524257	TRIAL	n/a	n/a	n/a	n/a	-999	17	[0, 0, 0]	n/a	catFR1	0	R1050M
