onset	duration	sample	trial_type	response_time	stim_file	item_name	category	serialpos	list	test	answer	experiment	session	subject
0.0	2.814	51653	INSTRUCT_START	n/a	n/a	n/a	n/a	-999	-999	[0, 0, 0]	n/a	catFR1	7	R1662S
2.814	22.516	54456	INSTRUCT_END	n/a	n/a	n/a	n/a	-999	-999	[0, 0, 0]	n/a	catFR1	7	R1662S
25.33	10.345	76983	COUNTDOWN_START	n/a	n/a	n/a	n/a	-999	-999	[0, 0, 0]	n/a	catFR1	7	R1662S
35.675	0.001	87319	COUNTDOWN_END	n/a	n/a	n/a	n/a	-999	-999	[0, 0, 0]	n/a	catFR1	7	R1662S
35.676	2.201	87319	ENCODING_START	n/a	n/a	n/a	n/a	-999	-1	[0, 0, 0]	n/a	catFR1	7	R1662S
37.877	1.605	89522	WORD	n/a	n/a	SHORTS	Clothing	1	-1	[0, 0, 0]	n/a	catFR1	7	R1662S
39.482	0.86	91125	WORD_OFF	n/a	n/a	SHORTS	Clothing	1	-1	[0, 0, 0]	n/a	catFR1	7	R1662S
40.342	1.598	91990	WORD	n/a	n/a	COAT	Clothing	2	-1	[0, 0, 0]	n/a	catFR1	7	R1662S
41.94	1.0	93594	WORD_OFF	n/a	n/a	COAT	Clothing	2	-1	[0, 0, 0]	n/a	catFR1	7	R1662S
42.94	1.6	94586	WORD	n/a	n/a	BOOKCASE	Furniture	3	-1	[0, 0, 0]	n/a	catFR1	7	R1662S
44.54	0.791	96189	WORD_OFF	n/a	n/a	BOOKCASE	Furniture	3	-1	[0, 0, 0]	n/a	catFR1	7	R1662S
45.331	1.608	96985	WORD	n/a	n/a	DRESSER	Furniture	4	-1	[0, 0, 0]	n/a	catFR1	7	R1662S
46.939	0.917	98588	WORD_OFF	n/a	n/a	DRESSER	Furniture	4	-1	[0, 0, 0]	n/a	catFR1	7	R1662S
47.856	1.609	99499	WORD	n/a	n/a	PEELER	KitchenTools	5	-1	[0, 0, 0]	n/a	catFR1	7	R1662S
49.465	0.875	101114	WORD_OFF	n/a	n/a	PEELER	KitchenTools	5	-1	[0, 0, 0]	n/a	catFR1	7	R1662S
50.34	1.612	101991	WORD	n/a	n/a	TONGS	KitchenTools	6	-1	[0, 0, 0]	n/a	catFR1	7	R1662S
51.952	0.879	103594	WORD_OFF	n/a	n/a	TONGS	KitchenTools	6	-1	[0, 0, 0]	n/a	catFR1	7	R1662S
52.831	1.6	104482	WORD	n/a	n/a	CABINET	Furniture	7	-1	[0, 0, 0]	n/a	catFR1	7	R1662S
54.431	0.95	106074	WORD_OFF	n/a	n/a	CABINET	Furniture	7	-1	[0, 0, 0]	n/a	catFR1	7	R1662S
55.381	1.608	107032	WORD	n/a	n/a	TABLE	Furniture	8	-1	[0, 0, 0]	n/a	catFR1	7	R1662S
56.989	0.801	108635	WORD_OFF	n/a	n/a	TABLE	Furniture	8	-1	[0, 0, 0]	n/a	catFR1	7	R1662S
57.79	1.6	109442	WORD	n/a	n/a	GRATER	KitchenTools	9	-1	[0, 0, 0]	n/a	catFR1	7	R1662S
59.39	0.784	111034	WORD_OFF	n/a	n/a	GRATER	KitchenTools	9	-1	[0, 0, 0]	n/a	catFR1	7	R1662S
60.174	1.607	111819	WORD	n/a	n/a	STRAINER	KitchenTools	10	-1	[0, 0, 0]	n/a	catFR1	7	R1662S
61.781	0.885	113434	WORD_OFF	n/a	n/a	STRAINER	KitchenTools	10	-1	[0, 0, 0]	n/a	catFR1	7	R1662S
62.666	1.606	114310	WORD	n/a	n/a	SHOES	Clothing	11	-1	[0, 0, 0]	n/a	catFR1	7	R1662S
64.272	0.935	115914	WORD_OFF	n/a	n/a	SHOES	Clothing	11	-1	[0, 0, 0]	n/a	catFR1	7	R1662S
65.207	1.61	116859	WORD	n/a	n/a	JACKET	Clothing	12	-1	[0, 0, 0]	n/a	catFR1	7	R1662S
66.817	0.0	118460	START	n/a	n/a	n/a	n/a	-999	-1	[-999, -999, -999]	n/a	catFR1	7	R1662S
66.814	0.003	118463	WORD_OFF	n/a	n/a	JACKET	Clothing	12	-1	[0, 0, 0]	n/a	catFR1	7	R1662S
66.817	0.0	118463	ENCODING_END	n/a	n/a	n/a	n/a	-999	-1	[0, 0, 0]	n/a	catFR1	7	R1662S
66.817	0.003	118463	DISTRACT_START	n/a	n/a	n/a	n/a	-999	-1	[0, 0, 0]	n/a	catFR1	7	R1662S
66.82	4.129	118463	PROB	4.129	n/a	n/a	n/a	-999	-1	[7, 4, 7]	18	catFR1	7	R1662S
70.949	4.074	122592	PROB	4.074	n/a	n/a	n/a	-999	-1	[8, 4, 2]	14	catFR1	7	R1662S
75.023	3.025	126666	PROB	3.025	n/a	n/a	n/a	-999	-1	[2, 1, 2]	5	catFR1	7	R1662S
78.048	4.25	129691	PROB	4.25	n/a	n/a	n/a	-999	-1	[8, 7, 7]	22	catFR1	7	R1662S
82.298	5.467	133941	PROB	5.467	n/a	n/a	n/a	-999	-1	[8, 5, 7]	20	catFR1	7	R1662S
87.765	0.0	139408	STOP	n/a	n/a	n/a	n/a	-999	-1	[-999, -999, -999]	n/a	catFR1	7	R1662S
87.765	2.259	139410	DISTRACT_END	n/a	n/a	n/a	n/a	-999	-1	[0, 0, 0]	n/a	catFR1	7	R1662S
90.024	1.914	141671	REC_START	n/a	n/a	n/a	n/a	-999	-1	[0, 0, 0]	n/a	catFR1	7	R1662S
91.938	0.866	143581	REC_WORD	0.866	n/a	CABINET	Furniture	7	-1	[0, 0, 0]	n/a	catFR1	7	R1662S
92.804	2.411	144447	REC_WORD	2.411	n/a	DRESSER	Furniture	4	-1	[0, 0, 0]	n/a	catFR1	7	R1662S
95.215	0.54	146858	REC_WORD	0.54	n/a	PEELER	KitchenTools	5	-1	[0, 0, 0]	n/a	catFR1	7	R1662S
95.755	1.319	147398	REC_WORD	1.319	n/a	GRATER	KitchenTools	9	-1	[0, 0, 0]	n/a	catFR1	7	R1662S
97.074	0.874	148717	REC_WORD	0.874	n/a	SHORTS	Clothing	1	-1	[0, 0, 0]	n/a	catFR1	7	R1662S
97.948	1.75	149591	REC_WORD	1.75	n/a	SHOES	Clothing	11	-1	[0, 0, 0]	n/a	catFR1	7	R1662S
99.698	1.013	151341	REC_WORD	1.013	n/a	COAT	Clothing	2	-1	[0, 0, 0]	n/a	catFR1	7	R1662S
100.711	4.0	152354	REC_WORD	4.0	n/a	JACKET	Clothing	12	-1	[0, 0, 0]	n/a	catFR1	7	R1662S
104.711	8.354	156354	REC_WORD_VV	8.354	n/a	<>	n/a	-999	-1	[0, 0, 0]	n/a	catFR1	7	R1662S
113.065	0.929	164708	REC_WORD	0.929	n/a	DRESSER	Furniture	4	-1	[0, 0, 0]	n/a	catFR1	7	R1662S
113.994	6.177	165637	REC_WORD_VV	6.177	n/a	<>	n/a	-999	-1	[0, 0, 0]	n/a	catFR1	7	R1662S
120.171	2.518	171823	REC_END	n/a	n/a	n/a	n/a	-999	-1	[0, 0, 0]	n/a	catFR1	7	R1662S
122.689	10.343	174338	COUNTDOWN_START	n/a	n/a	n/a	n/a	-999	1	[0, 0, 0]	n/a	catFR1	7	R1662S
133.032	0.001	184684	COUNTDOWN_END	n/a	n/a	n/a	n/a	-999	1	[0, 0, 0]	n/a	catFR1	7	R1662S
133.033	1.932	184684	ENCODING_START	n/a	n/a	n/a	n/a	-999	1	[0, 0, 0]	n/a	catFR1	7	R1662S
134.965	1.608	186611	WORD	n/a	wordpools/wordpool_categorized_EN.txt	GOAT	FarmAnimals	1	1	[0, 0, 0]	n/a	catFR1	7	R1662S
136.573	0.976	188226	WORD_OFF	n/a	n/a	GOAT	FarmAnimals	1	1	[0, 0, 0]	n/a	catFR1	7	R1662S
137.549	1.607	189195	WORD	n/a	wordpools/wordpool_categorized_EN.txt	CHICKEN	FarmAnimals	2	1	[0, 0, 0]	n/a	catFR1	7	R1662S
139.156	0.942	190809	WORD_OFF	n/a	n/a	CHICKEN	FarmAnimals	2	1	[0, 0, 0]	n/a	catFR1	7	R1662S
140.098	1.609	191744	WORD	n/a	wordpools/wordpool_categorized_EN.txt	CLOUD	Weather	3	1	[0, 0, 0]	n/a	catFR1	7	R1662S
141.707	0.767	193359	WORD_OFF	n/a	n/a	CLOUD	Weather	3	1	[0, 0, 0]	n/a	catFR1	7	R1662S
142.474	1.606	194120	WORD	n/a	wordpools/wordpool_categorized_EN.txt	DRIZZLE	Weather	4	1	[0, 0, 0]	n/a	catFR1	7	R1662S
144.08	0.86	195723	WORD_OFF	n/a	n/a	DRIZZLE	Weather	4	1	[0, 0, 0]	n/a	catFR1	7	R1662S
144.94	1.601	196588	WORD	n/a	wordpools/wordpool_categorized_EN.txt	ELM	Trees	5	1	[0, 0, 0]	n/a	catFR1	7	R1662S
146.541	0.974	198192	WORD_OFF	n/a	n/a	ELM	Trees	5	1	[0, 0, 0]	n/a	catFR1	7	R1662S
147.515	1.6	199161	WORD	n/a	wordpools/wordpool_categorized_EN.txt	WALNUT	Trees	6	1	[0, 0, 0]	n/a	catFR1	7	R1662S
149.115	0.825	200764	WORD_OFF	n/a	n/a	WALNUT	Trees	6	1	[0, 0, 0]	n/a	catFR1	7	R1662S
149.94	1.598	201583	WORD	n/a	wordpools/wordpool_categorized_EN.txt	LAMB	FarmAnimals	7	1	[0, 0, 0]	n/a	catFR1	7	R1662S
151.538	0.994	203186	WORD_OFF	n/a	n/a	LAMB	FarmAnimals	7	1	[0, 0, 0]	n/a	catFR1	7	R1662S
152.532	1.607	204178	WORD	n/a	wordpools/wordpool_categorized_EN.txt	BULL	FarmAnimals	8	1	[0, 0, 0]	n/a	catFR1	7	R1662S
154.139	0.775	205782	WORD_OFF	n/a	n/a	BULL	FarmAnimals	8	1	[0, 0, 0]	n/a	catFR1	7	R1662S
154.914	1.601	206566	WORD	n/a	wordpools/wordpool_categorized_EN.txt	CYPRESS	Trees	9	1	[0, 0, 0]	n/a	catFR1	7	R1662S
156.515	0.792	208158	WORD_OFF	n/a	n/a	CYPRESS	Trees	9	1	[0, 0, 0]	n/a	catFR1	7	R1662S
157.307	1.608	208954	WORD	n/a	wordpools/wordpool_categorized_EN.txt	HICKORY	Trees	10	1	[0, 0, 0]	n/a	catFR1	7	R1662S
158.915	1.003	210569	WORD_OFF	n/a	n/a	HICKORY	Trees	10	1	[0, 0, 0]	n/a	catFR1	7	R1662S
159.918	1.607	211561	WORD	n/a	wordpools/wordpool_categorized_EN.txt	SNOW	Weather	11	1	[0, 0, 0]	n/a	catFR1	7	R1662S
161.525	0.898	213176	WORD_OFF	n/a	n/a	SNOW	Weather	11	1	[0, 0, 0]	n/a	catFR1	7	R1662S
162.423	1.601	214075	WORD	n/a	wordpools/wordpool_categorized_EN.txt	THUNDERSTORM	Weather	12	1	[0, 0, 0]	n/a	catFR1	7	R1662S
164.024	0.0	215667	WORD_OFF	n/a	n/a	THUNDERSTORM	Weather	12	1	[0, 0, 0]	n/a	catFR1	7	R1662S
164.024	0.004	215667	PROB	0.004	n/a	n/a	n/a	-999	1	[7, 4, 5]	16	catFR1	7	R1662S
164.028	0.0	215671	START	n/a	n/a	n/a	n/a	-999	1	[-999, -999, -999]	n/a	catFR1	7	R1662S
164.028	0.0	215679	ENCODING_END	n/a	n/a	n/a	n/a	-999	1	[0, 0, 0]	n/a	catFR1	7	R1662S
164.028	5.104	215679	DISTRACT_START	n/a	n/a	n/a	n/a	-999	1	[0, 0, 0]	n/a	catFR1	7	R1662S
169.132	3.774	220775	PROB	3.774	n/a	n/a	n/a	-999	1	[4, 7, 7]	18	catFR1	7	R1662S
172.906	2.926	224549	PROB	2.926	n/a	n/a	n/a	-999	1	[3, 2, 8]	13	catFR1	7	R1662S
175.832	4.35	227475	PROB	4.35	n/a	n/a	n/a	-999	1	[3, 1, 1]	5	catFR1	7	R1662S
180.182	3.058	231825	PROB	3.058	n/a	n/a	n/a	-999	1	[7, 3, 3]	13	catFR1	7	R1662S
183.24	3.858	234883	PROB	3.858	n/a	n/a	n/a	-999	1	[3, 2, 3]	8	catFR1	7	R1662S
187.098	0.0	238741	STOP	n/a	n/a	n/a	n/a	-999	1	[-999, -999, -999]	n/a	catFR1	7	R1662S
187.098	2.342	238748	DISTRACT_END	n/a	n/a	n/a	n/a	-999	1	[0, 0, 0]	n/a	catFR1	7	R1662S
189.44	0.63	241090	REC_START	n/a	n/a	n/a	n/a	-999	1	[0, 0, 0]	n/a	catFR1	7	R1662S
190.07	1.0	241713	REC_WORD	1.0	n/a	CYPRESS	Trees	9	1	[0, 0, 0]	n/a	catFR1	7	R1662S
191.07	1.616	242713	REC_WORD	1.616	n/a	HICKORY	Trees	10	1	[0, 0, 0]	n/a	catFR1	7	R1662S
192.686	0.979	244329	REC_WORD	0.979	n/a	SNOW	Weather	11	1	[0, 0, 0]	n/a	catFR1	7	R1662S
193.665	3.516	245308	REC_WORD	3.516	n/a	THUNDERSTORM	Weather	12	1	[0, 0, 0]	n/a	catFR1	7	R1662S
197.181	10.822	248824	REC_WORD	10.822	n/a	GOAT	FarmAnimals	1	1	[0, 0, 0]	n/a	catFR1	7	R1662S
208.003	9.511	259646	REC_WORD	9.511	n/a	RAIN	n/a	-999	1	[0, 0, 0]	n/a	catFR1	7	R1662S
217.514	2.071	269157	REC_WORD_VV	2.071	n/a	<>	n/a	-999	1	[0, 0, 0]	n/a	catFR1	7	R1662S
219.585	1.354	271231	REC_END	n/a	n/a	n/a	n/a	-999	1	[0, 0, 0]	n/a	catFR1	7	R1662S
220.939	10.342	272592	COUNTDOWN_START	n/a	n/a	n/a	n/a	-999	1	[0, 0, 0]	n/a	catFR1	7	R1662S
231.281	0.001	282927	COUNTDOWN_END	n/a	n/a	n/a	n/a	-999	1	[0, 0, 0]	n/a	catFR1	7	R1662S
231.282	1.94	282927	ENCODING_START	n/a	n/a	n/a	n/a	-999	2	[0, 0, 0]	n/a	catFR1	7	R1662S
233.222	1.609	284865	WORD	n/a	wordpools/wordpool_categorized_EN.txt	ROACH	Insects	1	2	[0, 0, 0]	n/a	catFR1	7	R1662S
234.831	0.957	286480	WORD_OFF	n/a	n/a	ROACH	Insects	1	2	[0, 0, 0]	n/a	catFR1	7	R1662S
235.788	1.618	287437	WORD	n/a	wordpools/wordpool_categorized_EN.txt	MOTH	Insects	2	2	[0, 0, 0]	n/a	catFR1	7	R1662S
237.406	0.784	289052	WORD_OFF	n/a	n/a	MOTH	Insects	2	2	[0, 0, 0]	n/a	catFR1	7	R1662S
238.19	1.608	289836	WORD	n/a	wordpools/wordpool_categorized_EN.txt	APPLE	Fruit	3	2	[0, 0, 0]	n/a	catFR1	7	R1662S
239.798	0.882	291440	WORD_OFF	n/a	n/a	APPLE	Fruit	3	2	[0, 0, 0]	n/a	catFR1	7	R1662S
240.68	1.61	292328	WORD	n/a	wordpools/wordpool_categorized_EN.txt	LIME	Fruit	4	2	[0, 0, 0]	n/a	catFR1	7	R1662S
242.29	0.907	293943	WORD_OFF	n/a	n/a	LIME	Fruit	4	2	[0, 0, 0]	n/a	catFR1	7	R1662S
243.197	1.601	294842	WORD	n/a	wordpools/wordpool_categorized_EN.txt	ZEBRA	Zoo	5	2	[0, 0, 0]	n/a	catFR1	7	R1662S
244.798	0.85	296446	WORD_OFF	n/a	n/a	ZEBRA	Zoo	5	2	[0, 0, 0]	n/a	catFR1	7	R1662S
245.648	1.608	297299	WORD	n/a	wordpools/wordpool_categorized_EN.txt	GORILLA	Zoo	6	2	[0, 0, 0]	n/a	catFR1	7	R1662S
247.256	0.9	298903	WORD_OFF	n/a	n/a	GORILLA	Zoo	6	2	[0, 0, 0]	n/a	catFR1	7	R1662S
248.156	1.608	299802	WORD	n/a	wordpools/wordpool_categorized_EN.txt	GNAT	Insects	7	2	[0, 0, 0]	n/a	catFR1	7	R1662S
249.764	0.767	301406	WORD_OFF	n/a	n/a	GNAT	Insects	7	2	[0, 0, 0]	n/a	catFR1	7	R1662S
250.531	1.6	302179	WORD	n/a	wordpools/wordpool_categorized_EN.txt	BEE	Insects	8	2	[0, 0, 0]	n/a	catFR1	7	R1662S
252.131	0.8	303782	WORD_OFF	n/a	n/a	BEE	Insects	8	2	[0, 0, 0]	n/a	catFR1	7	R1662S
252.931	1.608	304578	WORD	n/a	wordpools/wordpool_categorized_EN.txt	TIGER	Zoo	9	2	[0, 0, 0]	n/a	catFR1	7	R1662S
254.539	0.916	306193	WORD_OFF	n/a	n/a	TIGER	Zoo	9	2	[0, 0, 0]	n/a	catFR1	7	R1662S
255.455	1.601	307104	WORD	n/a	wordpools/wordpool_categorized_EN.txt	GIRAFFE	Zoo	10	2	[0, 0, 0]	n/a	catFR1	7	R1662S
257.056	0.775	308707	WORD_OFF	n/a	n/a	GIRAFFE	Zoo	10	2	[0, 0, 0]	n/a	catFR1	7	R1662S
257.831	1.616	309480	WORD	n/a	wordpools/wordpool_categorized_EN.txt	BANANA	Fruit	11	2	[0, 0, 0]	n/a	catFR1	7	R1662S
259.447	0.968	311095	WORD_OFF	n/a	n/a	BANANA	Fruit	11	2	[0, 0, 0]	n/a	catFR1	7	R1662S
260.415	1.6	312064	WORD	n/a	wordpools/wordpool_categorized_EN.txt	PEAR	Fruit	12	2	[0, 0, 0]	n/a	catFR1	7	R1662S
262.015	0.005	313658	PROB	0.005	n/a	n/a	n/a	-999	2	[6, 7, 1]	14	catFR1	7	R1662S
262.02	0.0	313663	START	n/a	n/a	n/a	n/a	-999	2	[-999, -999, -999]	n/a	catFR1	7	R1662S
262.015	0.005	313667	WORD_OFF	n/a	n/a	PEAR	Fruit	12	2	[0, 0, 0]	n/a	catFR1	7	R1662S
262.02	0.0	313667	ENCODING_END	n/a	n/a	n/a	n/a	-999	2	[0, 0, 0]	n/a	catFR1	7	R1662S
262.02	3.645	313667	DISTRACT_START	n/a	n/a	n/a	n/a	-999	2	[0, 0, 0]	n/a	catFR1	7	R1662S
265.665	2.491	317308	PROB	2.491	n/a	n/a	n/a	-999	2	[3, 5, 5]	13	catFR1	7	R1662S
268.156	2.05	319799	PROB	2.05	n/a	n/a	n/a	-999	2	[1, 7, 1]	9	catFR1	7	R1662S
270.206	3.516	321849	PROB	3.516	n/a	n/a	n/a	-999	2	[1, 6, 8]	15	catFR1	7	R1662S
273.722	3.827	325365	PROB	3.827	n/a	n/a	n/a	-999	2	[6, 3, 5]	14	catFR1	7	R1662S
277.549	2.207	329192	PROB	2.207	n/a	n/a	n/a	-999	2	[1, 3, 1]	5	catFR1	7	R1662S
279.756	3.918	331399	PROB	3.918	n/a	n/a	n/a	-999	2	[7, 4, 8]	19	catFR1	7	R1662S
283.674	0.0	335317	STOP	n/a	n/a	n/a	n/a	-999	2	[-999, -999, -999]	n/a	catFR1	7	R1662S
283.674	2.339	335318	DISTRACT_END	n/a	n/a	n/a	n/a	-999	2	[0, 0, 0]	n/a	catFR1	7	R1662S
286.013	0.3	337660	REC_START	n/a	n/a	n/a	n/a	-999	2	[0, 0, 0]	n/a	catFR1	7	R1662S
286.313	1.693	337956	REC_WORD	1.693	n/a	ROACH	Insects	1	2	[0, 0, 0]	n/a	catFR1	7	R1662S
288.006	0.999	339649	REC_WORD	0.999	n/a	ROACH	Insects	1	2	[0, 0, 0]	n/a	catFR1	7	R1662S
289.005	1.549	340648	REC_WORD_VV	1.549	n/a	<>	n/a	-999	2	[0, 0, 0]	n/a	catFR1	7	R1662S
290.554	0.89	342197	REC_WORD_VV	0.89	n/a	<>	n/a	-999	2	[0, 0, 0]	n/a	catFR1	7	R1662S
291.444	1.32	343087	REC_WORD	1.32	n/a	GNAT	Insects	7	2	[0, 0, 0]	n/a	catFR1	7	R1662S
292.764	1.434	344407	REC_WORD	1.434	n/a	MOTH	Insects	2	2	[0, 0, 0]	n/a	catFR1	7	R1662S
294.198	2.104	345841	REC_WORD	2.104	n/a	BEE	Insects	8	2	[0, 0, 0]	n/a	catFR1	7	R1662S
296.302	1.009	347945	REC_WORD	1.009	n/a	LIME	Fruit	4	2	[0, 0, 0]	n/a	catFR1	7	R1662S
297.311	2.982	348954	REC_WORD	2.982	n/a	PEAR	Fruit	12	2	[0, 0, 0]	n/a	catFR1	7	R1662S
300.293	3.233	351936	REC_WORD	3.233	n/a	MOTH	Insects	2	2	[0, 0, 0]	n/a	catFR1	7	R1662S
303.526	11.346	355169	REC_WORD_VV	11.346	n/a	<>	n/a	-999	2	[0, 0, 0]	n/a	catFR1	7	R1662S
314.872	1.278	366515	REC_WORD_VV	1.278	n/a	<>	n/a	-999	2	[0, 0, 0]	n/a	catFR1	7	R1662S
316.15	1.446	367801	REC_END	n/a	n/a	n/a	n/a	-999	2	[0, 0, 0]	n/a	catFR1	7	R1662S
317.596	10.334	369242	COUNTDOWN_START	n/a	n/a	n/a	n/a	-999	2	[0, 0, 0]	n/a	catFR1	7	R1662S
327.93	0.001	379578	COUNTDOWN_END	n/a	n/a	n/a	n/a	-999	2	[0, 0, 0]	n/a	catFR1	7	R1662S
327.931	1.882	379578	ENCODING_START	n/a	n/a	n/a	n/a	-999	3	[0, 0, 0]	n/a	catFR1	7	R1662S
329.813	1.601	381458	WORD	n/a	wordpools/wordpool_categorized_EN.txt	BASEBALL	Toys	1	3	[0, 0, 0]	n/a	catFR1	7	R1662S
331.414	0.811	383061	WORD_OFF	n/a	n/a	BASEBALL	Toys	1	3	[0, 0, 0]	n/a	catFR1	7	R1662S
332.225	1.605	383869	WORD	n/a	wordpools/wordpool_categorized_EN.txt	PUZZLE	Toys	2	3	[0, 0, 0]	n/a	catFR1	7	R1662S
333.83	0.869	385484	WORD_OFF	n/a	n/a	PUZZLE	Toys	2	3	[0, 0, 0]	n/a	catFR1	7	R1662S
334.699	1.599	386349	WORD	n/a	wordpools/wordpool_categorized_EN.txt	CUPCAKE	Desserts	3	3	[0, 0, 0]	n/a	catFR1	7	R1662S
336.298	0.841	387940	WORD_OFF	n/a	n/a	CUPCAKE	Desserts	3	3	[0, 0, 0]	n/a	catFR1	7	R1662S
337.139	1.601	388794	WORD	n/a	wordpools/wordpool_categorized_EN.txt	COOKIE	Desserts	4	3	[0, 0, 0]	n/a	catFR1	7	R1662S
338.74	0.8	390386	WORD_OFF	n/a	n/a	COOKIE	Desserts	4	3	[0, 0, 0]	n/a	catFR1	7	R1662S
339.54	1.606	391193	WORD	n/a	wordpools/wordpool_categorized_EN.txt	SCANNER	Electronics	5	3	[0, 0, 0]	n/a	catFR1	7	R1662S
341.146	0.943	392797	WORD_OFF	n/a	n/a	SCANNER	Electronics	5	3	[0, 0, 0]	n/a	catFR1	7	R1662S
342.089	1.6	393731	WORD	n/a	wordpools/wordpool_categorized_EN.txt	STEREO	Electronics	6	3	[0, 0, 0]	n/a	catFR1	7	R1662S
343.689	0.903	395334	WORD_OFF	n/a	n/a	STEREO	Electronics	6	3	[0, 0, 0]	n/a	catFR1	7	R1662S
344.592	1.606	396234	WORD	n/a	wordpools/wordpool_categorized_EN.txt	COBBLER	Desserts	7	3	[0, 0, 0]	n/a	catFR1	7	R1662S
346.198	0.884	397849	WORD_OFF	n/a	n/a	COBBLER	Desserts	7	3	[0, 0, 0]	n/a	catFR1	7	R1662S
347.082	1.599	398726	WORD	n/a	wordpools/wordpool_categorized_EN.txt	CAKE	Desserts	8	3	[0, 0, 0]	n/a	catFR1	7	R1662S
348.681	0.808	400329	WORD_OFF	n/a	n/a	CAKE	Desserts	8	3	[0, 0, 0]	n/a	catFR1	7	R1662S
349.489	1.609	401136	WORD	n/a	wordpools/wordpool_categorized_EN.txt	COMPUTER	Electronics	9	3	[0, 0, 0]	n/a	catFR1	7	R1662S
351.098	0.918	402751	WORD_OFF	n/a	n/a	COMPUTER	Electronics	9	3	[0, 0, 0]	n/a	catFR1	7	R1662S
352.016	1.599	403662	WORD	n/a	wordpools/wordpool_categorized_EN.txt	RADIO	Electronics	10	3	[0, 0, 0]	n/a	catFR1	7	R1662S
353.615	0.849	405266	WORD_OFF	n/a	n/a	RADIO	Electronics	10	3	[0, 0, 0]	n/a	catFR1	7	R1662S
354.464	1.611	406108	WORD	n/a	wordpools/wordpool_categorized_EN.txt	DOLL	Toys	11	3	[0, 0, 0]	n/a	catFR1	7	R1662S
356.075	0.872	407723	WORD_OFF	n/a	n/a	DOLL	Toys	11	3	[0, 0, 0]	n/a	catFR1	7	R1662S
356.947	1.6	408599	WORD	n/a	wordpools/wordpool_categorized_EN.txt	DOLLHOUSE	Toys	12	3	[0, 0, 0]	n/a	catFR1	7	R1662S
358.547	0.0	410190	PROB	0.0	n/a	n/a	n/a	-999	3	[4, 7, 3]	14	catFR1	7	R1662S
358.547	0.005	410191	WORD_OFF	n/a	n/a	DOLLHOUSE	Toys	12	3	[0, 0, 0]	n/a	catFR1	7	R1662S
358.552	0.0	410195	START	n/a	n/a	n/a	n/a	-999	3	[-999, -999, -999]	n/a	catFR1	7	R1662S
358.552	0.0	410203	ENCODING_END	n/a	n/a	n/a	n/a	-999	3	[0, 0, 0]	n/a	catFR1	7	R1662S
358.552	3.162	410203	DISTRACT_START	n/a	n/a	n/a	n/a	-999	3	[0, 0, 0]	n/a	catFR1	7	R1662S
361.714	3.159	413357	PROB	3.159	n/a	n/a	n/a	-999	3	[1, 5, 4]	10	catFR1	7	R1662S
364.873	4.783	416516	PROB	4.783	n/a	n/a	n/a	-999	3	[8, 4, 5]	17	catFR1	7	R1662S
369.656	6.983	421299	PROB	6.983	n/a	n/a	n/a	-999	3	[1, 8, 8]	17	catFR1	7	R1662S
376.639	4.401	428282	PROB	4.401	n/a	n/a	n/a	-999	3	[3, 4, 8]	15	catFR1	7	R1662S
381.04	0.0	432683	STOP	n/a	n/a	n/a	n/a	-999	3	[-999, -999, -999]	n/a	catFR1	7	R1662S
381.04	2.025	432684	DISTRACT_END	n/a	n/a	n/a	n/a	-999	3	[0, 0, 0]	n/a	catFR1	7	R1662S
383.065	0.806	434714	REC_START	n/a	n/a	n/a	n/a	-999	3	[0, 0, 0]	n/a	catFR1	7	R1662S
383.871	1.171	435514	REC_WORD	1.171	n/a	DOLL	Toys	11	3	[0, 0, 0]	n/a	catFR1	7	R1662S
385.042	2.501	436685	REC_WORD	2.501	n/a	DOLLHOUSE	Toys	12	3	[0, 0, 0]	n/a	catFR1	7	R1662S
387.543	2.639	439186	REC_WORD	2.639	n/a	RADIO	Electronics	10	3	[0, 0, 0]	n/a	catFR1	7	R1662S
390.182	4.54	441825	REC_WORD_VV	4.54	n/a	<>	n/a	-999	3	[0, 0, 0]	n/a	catFR1	7	R1662S
394.722	2.892	446365	REC_WORD	2.892	n/a	COMPUTER	Electronics	9	3	[0, 0, 0]	n/a	catFR1	7	R1662S
397.614	1.412	449257	REC_WORD_VV	1.412	n/a	<>	n/a	-999	3	[0, 0, 0]	n/a	catFR1	7	R1662S
399.026	0.285	450669	REC_WORD	0.285	n/a	RADIO	Electronics	10	3	[0, 0, 0]	n/a	catFR1	7	R1662S
399.311	3.003	450954	REC_WORD	3.003	n/a	COMPUTER	Electronics	9	3	[0, 0, 0]	n/a	catFR1	7	R1662S
402.314	8.448	453957	REC_WORD_VV	8.448	n/a	<>	n/a	-999	3	[0, 0, 0]	n/a	catFR1	7	R1662S
410.762	0.507	462405	REC_WORD	0.507	n/a	CAKE	Desserts	8	3	[0, 0, 0]	n/a	catFR1	7	R1662S
411.269	0.698	462912	REC_WORD	0.698	n/a	CUPCAKE	Desserts	3	3	[0, 0, 0]	n/a	catFR1	7	R1662S
411.967	1.243	463610	REC_WORD	1.243	n/a	PEACH	n/a	-999	3	[0, 0, 0]	n/a	catFR1	7	R1662S
413.21	2.32	464855	REC_END	n/a	n/a	n/a	n/a	-999	3	[0, 0, 0]	n/a	catFR1	7	R1662S
415.53	10.344	467174	COUNTDOWN_START	n/a	n/a	n/a	n/a	-999	3	[0, 0, 0]	n/a	catFR1	7	R1662S
425.874	0.0	477520	COUNTDOWN_END	n/a	n/a	n/a	n/a	-999	3	[0, 0, 0]	n/a	catFR1	7	R1662S
425.874	2.006	477520	ENCODING_START	n/a	n/a	n/a	n/a	-999	4	[0, 0, 0]	n/a	catFR1	7	R1662S
427.88	1.61	479527	WORD	n/a	wordpools/wordpool_categorized_EN.txt	HAWK	Birds	1	4	[0, 0, 0]	n/a	catFR1	7	R1662S
429.49	0.825	481142	WORD_OFF	n/a	n/a	HAWK	Birds	1	4	[0, 0, 0]	n/a	catFR1	7	R1662S
430.315	1.599	481961	WORD	n/a	wordpools/wordpool_categorized_EN.txt	FINCH	Birds	2	4	[0, 0, 0]	n/a	catFR1	7	R1662S
431.914	0.784	483565	WORD_OFF	n/a	n/a	FINCH	Birds	2	4	[0, 0, 0]	n/a	catFR1	7	R1662S
432.698	1.6	484349	WORD	n/a	wordpools/wordpool_categorized_EN.txt	CORKSCREW	KitchenTools	3	4	[0, 0, 0]	n/a	catFR1	7	R1662S
434.298	0.865	485952	WORD_OFF	n/a	n/a	CORKSCREW	KitchenTools	3	4	[0, 0, 0]	n/a	catFR1	7	R1662S
435.163	1.61	486806	WORD	n/a	wordpools/wordpool_categorized_EN.txt	LADLE	KitchenTools	4	4	[0, 0, 0]	n/a	catFR1	7	R1662S
436.773	0.865	488421	WORD_OFF	n/a	n/a	LADLE	KitchenTools	4	4	[0, 0, 0]	n/a	catFR1	7	R1662S
437.638	1.6	489286	WORD	n/a	wordpools/wordpool_categorized_EN.txt	REFRIGERATOR	Appliances	5	4	[0, 0, 0]	n/a	catFR1	7	R1662S
439.238	0.843	490889	WORD_OFF	n/a	n/a	REFRIGERATOR	Appliances	5	4	[0, 0, 0]	n/a	catFR1	7	R1662S
440.081	1.609	491731	WORD	n/a	wordpools/wordpool_categorized_EN.txt	BLENDER	Appliances	6	4	[0, 0, 0]	n/a	catFR1	7	R1662S
441.69	0.832	493335	WORD_OFF	n/a	n/a	BLENDER	Appliances	6	4	[0, 0, 0]	n/a	catFR1	7	R1662S
442.522	1.61	494165	WORD	n/a	wordpools/wordpool_categorized_EN.txt	PIGEON	Birds	7	4	[0, 0, 0]	n/a	catFR1	7	R1662S
444.132	0.865	495780	WORD_OFF	n/a	n/a	PIGEON	Birds	7	4	[0, 0, 0]	n/a	catFR1	7	R1662S
444.997	1.6	496645	WORD	n/a	wordpools/wordpool_categorized_EN.txt	ROBIN	Birds	8	4	[0, 0, 0]	n/a	catFR1	7	R1662S
446.597	0.883	498248	WORD_OFF	n/a	n/a	ROBIN	Birds	8	4	[0, 0, 0]	n/a	catFR1	7	R1662S
447.48	1.609	499125	WORD	n/a	wordpools/wordpool_categorized_EN.txt	COLANDER	KitchenTools	9	4	[0, 0, 0]	n/a	catFR1	7	R1662S
449.089	0.8	500740	WORD_OFF	n/a	n/a	COLANDER	KitchenTools	9	4	[0, 0, 0]	n/a	catFR1	7	R1662S
449.889	1.6	501536	WORD	n/a	wordpools/wordpool_categorized_EN.txt	SPOON	KitchenTools	10	4	[0, 0, 0]	n/a	catFR1	7	R1662S
451.489	0.842	503139	WORD_OFF	n/a	n/a	SPOON	KitchenTools	10	4	[0, 0, 0]	n/a	catFR1	7	R1662S
452.331	1.608	503981	WORD	n/a	wordpools/wordpool_categorized_EN.txt	WASHER	Appliances	11	4	[0, 0, 0]	n/a	catFR1	7	R1662S
453.939	0.883	505585	WORD_OFF	n/a	n/a	WASHER	Appliances	11	4	[0, 0, 0]	n/a	catFR1	7	R1662S
454.822	1.6	506473	WORD	n/a	wordpools/wordpool_categorized_EN.txt	IRON	Appliances	12	4	[0, 0, 0]	n/a	catFR1	7	R1662S
456.422	0.004	508065	PROB	0.004	n/a	n/a	n/a	-999	4	[4, 3, 7]	14	catFR1	7	R1662S
456.426	0.0	508069	START	n/a	n/a	n/a	n/a	-999	4	[-999, -999, -999]	n/a	catFR1	7	R1662S
456.423	0.003	508076	WORD_OFF	n/a	n/a	IRON	Appliances	12	4	[0, 0, 0]	n/a	catFR1	7	R1662S
456.426	0.0	508076	ENCODING_END	n/a	n/a	n/a	n/a	-999	4	[0, 0, 0]	n/a	catFR1	7	R1662S
456.426	5.212	508076	DISTRACT_START	n/a	n/a	n/a	n/a	-999	4	[0, 0, 0]	n/a	catFR1	7	R1662S
461.638	3.418	513281	PROB	3.418	n/a	n/a	n/a	-999	4	[1, 8, 3]	12	catFR1	7	R1662S
465.056	4.374	516699	PROB	4.374	n/a	n/a	n/a	-999	4	[3, 3, 5]	11	catFR1	7	R1662S
469.43	4.276	521073	PROB	4.276	n/a	n/a	n/a	-999	4	[7, 5, 1]	13	catFR1	7	R1662S
473.706	4.733	525349	PROB	4.733	n/a	n/a	n/a	-999	4	[8, 5, 5]	18	catFR1	7	R1662S
478.439	0.0	530082	STOP	n/a	n/a	n/a	n/a	-999	4	[-999, -999, -999]	n/a	catFR1	7	R1662S
478.439	2.217	530096	DISTRACT_END	n/a	n/a	n/a	n/a	-999	4	[0, 0, 0]	n/a	catFR1	7	R1662S
480.656	1.526	532311	REC_START	n/a	n/a	n/a	n/a	-999	4	[0, 0, 0]	n/a	catFR1	7	R1662S
482.182	1.053	533825	REC_WORD	1.053	n/a	HAWK	Birds	1	4	[0, 0, 0]	n/a	catFR1	7	R1662S
483.235	0.795	534878	REC_WORD	0.795	n/a	FINCH	Birds	2	4	[0, 0, 0]	n/a	catFR1	7	R1662S
484.03	3.176	535673	REC_WORD	3.176	n/a	CORKSCREW	KitchenTools	3	4	[0, 0, 0]	n/a	catFR1	7	R1662S
487.206	3.011	538849	REC_WORD	3.011	n/a	COLANDER	KitchenTools	9	4	[0, 0, 0]	n/a	catFR1	7	R1662S
490.217	4.708	541860	REC_WORD	4.708	n/a	BLENDER	Appliances	6	4	[0, 0, 0]	n/a	catFR1	7	R1662S
494.925	3.774	546568	REC_WORD	3.774	n/a	SPATULA	n/a	-999	4	[0, 0, 0]	n/a	catFR1	7	R1662S
498.699	5.471	550342	REC_WORD_VV	5.471	n/a	<>	n/a	-999	4	[0, 0, 0]	n/a	catFR1	7	R1662S
504.17	6.632	555813	REC_WORD_VV	6.632	n/a	<>	n/a	-999	4	[0, 0, 0]	n/a	catFR1	7	R1662S
510.802	6.914	562452	REC_END	n/a	n/a	n/a	n/a	-999	4	[0, 0, 0]	n/a	catFR1	7	R1662S
517.716	10.339	569361	COUNTDOWN_START	n/a	n/a	n/a	n/a	-999	4	[0, 0, 0]	n/a	catFR1	7	R1662S
528.055	0.0	579708	COUNTDOWN_END	n/a	n/a	n/a	n/a	-999	4	[0, 0, 0]	n/a	catFR1	7	R1662S
528.055	2.042	579708	ENCODING_START	n/a	n/a	n/a	n/a	-999	5	[0, 0, 0]	n/a	catFR1	7	R1662S
530.097	1.608	581749	WORD	n/a	wordpools/wordpool_categorized_EN.txt	UNDERWEAR	Clothing	1	5	[0, 0, 0]	n/a	catFR1	7	R1662S
531.705	0.959	583353	WORD_OFF	n/a	n/a	UNDERWEAR	Clothing	1	5	[0, 0, 0]	n/a	catFR1	7	R1662S
532.664	1.608	584310	WORD	n/a	wordpools/wordpool_categorized_EN.txt	SOCKS	Clothing	2	5	[0, 0, 0]	n/a	catFR1	7	R1662S
534.272	0.9	585925	WORD_OFF	n/a	n/a	SOCKS	Clothing	2	5	[0, 0, 0]	n/a	catFR1	7	R1662S
535.172	1.6	586825	WORD	n/a	wordpools/wordpool_categorized_EN.txt	PLIERS	Tools	3	5	[0, 0, 0]	n/a	catFR1	7	R1662S
536.772	0.95	588417	WORD_OFF	n/a	n/a	PLIERS	Tools	3	5	[0, 0, 0]	n/a	catFR1	7	R1662S
537.722	1.602	589374	WORD	n/a	wordpools/wordpool_categorized_EN.txt	SAW	Tools	4	5	[0, 0, 0]	n/a	catFR1	7	R1662S
539.324	0.899	590977	WORD_OFF	n/a	n/a	SAW	Tools	4	5	[0, 0, 0]	n/a	catFR1	7	R1662S
540.223	1.608	591866	WORD	n/a	wordpools/wordpool_categorized_EN.txt	CALCULATOR	Electronics	5	5	[0, 0, 0]	n/a	catFR1	7	R1662S
541.831	0.983	593480	WORD_OFF	n/a	n/a	CALCULATOR	Electronics	5	5	[0, 0, 0]	n/a	catFR1	7	R1662S
542.814	1.6	594461	WORD	n/a	wordpools/wordpool_categorized_EN.txt	MICROWAVE	Electronics	6	5	[0, 0, 0]	n/a	catFR1	7	R1662S
544.414	0.867	596064	WORD_OFF	n/a	n/a	MICROWAVE	Electronics	6	5	[0, 0, 0]	n/a	catFR1	7	R1662S
545.281	1.607	596929	WORD	n/a	wordpools/wordpool_categorized_EN.txt	SKIRT	Clothing	7	5	[0, 0, 0]	n/a	catFR1	7	R1662S
546.888	0.817	598533	WORD_OFF	n/a	n/a	SKIRT	Clothing	7	5	[0, 0, 0]	n/a	catFR1	7	R1662S
547.705	1.609	599352	WORD	n/a	wordpools/wordpool_categorized_EN.txt	JEANS	Clothing	8	5	[0, 0, 0]	n/a	catFR1	7	R1662S
549.314	0.883	600967	WORD_OFF	n/a	n/a	JEANS	Clothing	8	5	[0, 0, 0]	n/a	catFR1	7	R1662S
550.197	1.607	601843	WORD	n/a	wordpools/wordpool_categorized_EN.txt	SCREWDRIVER	Tools	9	5	[0, 0, 0]	n/a	catFR1	7	R1662S
551.804	0.9	603446	WORD_OFF	n/a	n/a	SCREWDRIVER	Tools	9	5	[0, 0, 0]	n/a	catFR1	7	R1662S
552.704	1.601	604346	WORD	n/a	wordpools/wordpool_categorized_EN.txt	DRILL	Tools	10	5	[0, 0, 0]	n/a	catFR1	7	R1662S
554.305	0.959	605950	WORD_OFF	n/a	n/a	DRILL	Tools	10	5	[0, 0, 0]	n/a	catFR1	7	R1662S
555.264	1.6	606907	WORD	n/a	wordpools/wordpool_categorized_EN.txt	PHONE	Electronics	11	5	[0, 0, 0]	n/a	catFR1	7	R1662S
556.864	0.975	608510	WORD_OFF	n/a	n/a	PHONE	Electronics	11	5	[0, 0, 0]	n/a	catFR1	7	R1662S
557.839	1.608	609491	WORD	n/a	wordpools/wordpool_categorized_EN.txt	TELEVISION	Electronics	12	5	[0, 0, 0]	n/a	catFR1	7	R1662S
559.447	0.002	611090	PROB	0.002	n/a	n/a	n/a	-999	5	[1, 3, 2]	6	catFR1	7	R1662S
559.449	0.0	611092	START	n/a	n/a	n/a	n/a	-999	5	[-999, -999, -999]	n/a	catFR1	7	R1662S
559.447	0.002	611094	WORD_OFF	n/a	n/a	TELEVISION	Electronics	12	5	[0, 0, 0]	n/a	catFR1	7	R1662S
559.449	0.0	611094	ENCODING_END	n/a	n/a	n/a	n/a	-999	5	[0, 0, 0]	n/a	catFR1	7	R1662S
559.449	3.249	611094	DISTRACT_START	n/a	n/a	n/a	n/a	-999	5	[0, 0, 0]	n/a	catFR1	7	R1662S
562.698	4.407	614341	PROB	4.407	n/a	n/a	n/a	-999	5	[4, 8, 4]	16	catFR1	7	R1662S
567.105	2.517	618748	PROB	2.517	n/a	n/a	n/a	-999	5	[5, 5, 1]	11	catFR1	7	R1662S
569.622	3.092	621265	PROB	3.092	n/a	n/a	n/a	-999	5	[3, 7, 6]	16	catFR1	7	R1662S
572.714	3.034	624357	PROB	3.034	n/a	n/a	n/a	-999	5	[5, 3, 1]	9	catFR1	7	R1662S
575.748	3.549	627391	PROB	3.549	n/a	n/a	n/a	-999	5	[1, 8, 2]	11	catFR1	7	R1662S
579.297	5.209	630940	PROB	5.209	n/a	n/a	n/a	-999	5	[6, 7, 8]	21	catFR1	7	R1662S
584.506	0.0	636148	DISTRACT_END	n/a	n/a	n/a	n/a	-999	5	[0, 0, 0]	n/a	catFR1	7	R1662S
584.506	2.225	636149	STOP	n/a	n/a	n/a	n/a	-999	5	[-999, -999, -999]	n/a	catFR1	7	R1662S
586.731	1.706	638374	REC_START	n/a	n/a	n/a	n/a	-999	5	[0, 0, 0]	n/a	catFR1	7	R1662S
588.437	1.579	640080	REC_WORD	1.579	n/a	SOCKS	Clothing	2	5	[0, 0, 0]	n/a	catFR1	7	R1662S
590.016	6.563	641659	REC_WORD	6.563	n/a	SHOES	Clothing	-999	5	[0, 0, 0]	n/a	catFR1	7	R1662S
596.579	14.832	648222	REC_WORD_VV	14.832	n/a	<>	n/a	-999	5	[0, 0, 0]	n/a	catFR1	7	R1662S
611.411	5.469	663054	REC_WORD_VV	5.469	n/a	<>	n/a	-999	5	[0, 0, 0]	n/a	catFR1	7	R1662S
616.88	5.958	668526	REC_END	n/a	n/a	n/a	n/a	-999	5	[0, 0, 0]	n/a	catFR1	7	R1662S
622.838	10.342	674490	COUNTDOWN_START	n/a	n/a	n/a	n/a	-999	5	[0, 0, 0]	n/a	catFR1	7	R1662S
633.18	0.0	684825	COUNTDOWN_END	n/a	n/a	n/a	n/a	-999	5	[0, 0, 0]	n/a	catFR1	7	R1662S
633.18	2.208	684825	ENCODING_START	n/a	n/a	n/a	n/a	-999	6	[0, 0, 0]	n/a	catFR1	7	R1662S
635.388	1.601	687040	WORD	n/a	wordpools/wordpool_categorized_EN.txt	CRICKET	Insects	1	6	[0, 0, 0]	n/a	catFR1	7	R1662S
636.989	0.875	688643	WORD_OFF	n/a	n/a	CRICKET	Insects	1	6	[0, 0, 0]	n/a	catFR1	7	R1662S
637.864	1.618	689508	WORD	n/a	wordpools/wordpool_categorized_EN.txt	MOSQUITO	Insects	2	6	[0, 0, 0]	n/a	catFR1	7	R1662S
639.482	0.873	691135	WORD_OFF	n/a	n/a	MOSQUITO	Insects	2	6	[0, 0, 0]	n/a	catFR1	7	R1662S
640.355	1.607	692000	WORD	n/a	wordpools/wordpool_categorized_EN.txt	MAPLE	Trees	3	6	[0, 0, 0]	n/a	catFR1	7	R1662S
641.962	0.943	693615	WORD_OFF	n/a	n/a	MAPLE	Trees	3	6	[0, 0, 0]	n/a	catFR1	7	R1662S
642.905	1.601	694560	WORD	n/a	wordpools/wordpool_categorized_EN.txt	PINE	Trees	4	6	[0, 0, 0]	n/a	catFR1	7	R1662S
644.506	0.891	696152	WORD_OFF	n/a	n/a	PINE	Trees	4	6	[0, 0, 0]	n/a	catFR1	7	R1662S
645.397	1.6	697040	WORD	n/a	wordpools/wordpool_categorized_EN.txt	VACUUM	Appliances	5	6	[0, 0, 0]	n/a	catFR1	7	R1662S
646.997	0.925	698644	WORD_OFF	n/a	n/a	VACUUM	Appliances	5	6	[0, 0, 0]	n/a	catFR1	7	R1662S
647.922	1.608	699567	WORD	n/a	wordpools/wordpool_categorized_EN.txt	DRYER	Appliances	6	6	[0, 0, 0]	n/a	catFR1	7	R1662S
649.53	0.783	701182	WORD_OFF	n/a	n/a	DRYER	Appliances	6	6	[0, 0, 0]	n/a	catFR1	7	R1662S
650.313	1.601	701954	WORD	n/a	wordpools/wordpool_categorized_EN.txt	WILLOW	Trees	7	6	[0, 0, 0]	n/a	catFR1	7	R1662S
651.914	0.758	703558	WORD_OFF	n/a	n/a	WILLOW	Trees	7	6	[0, 0, 0]	n/a	catFR1	7	R1662S
652.672	1.6	704319	WORD	n/a	wordpools/wordpool_categorized_EN.txt	CEDAR	Trees	8	6	[0, 0, 0]	n/a	catFR1	7	R1662S
654.272	0.858	705922	WORD_OFF	n/a	n/a	CEDAR	Trees	8	6	[0, 0, 0]	n/a	catFR1	7	R1662S
655.13	1.608	706776	WORD	n/a	wordpools/wordpool_categorized_EN.txt	STOVE	Appliances	9	6	[0, 0, 0]	n/a	catFR1	7	R1662S
656.738	0.792	708379	WORD_OFF	n/a	n/a	STOVE	Appliances	9	6	[0, 0, 0]	n/a	catFR1	7	R1662S
657.53	1.609	709175	WORD	n/a	wordpools/wordpool_categorized_EN.txt	FREEZER	Appliances	10	6	[0, 0, 0]	n/a	catFR1	7	R1662S
659.139	0.925	710790	WORD_OFF	n/a	n/a	FREEZER	Appliances	10	6	[0, 0, 0]	n/a	catFR1	7	R1662S
660.064	1.599	711713	WORD	n/a	wordpools/wordpool_categorized_EN.txt	BUTTERFLY	Insects	11	6	[0, 0, 0]	n/a	catFR1	7	R1662S
661.663	0.843	713316	WORD_OFF	n/a	n/a	BUTTERFLY	Insects	11	6	[0, 0, 0]	n/a	catFR1	7	R1662S
662.506	1.601	714158	WORD	n/a	wordpools/wordpool_categorized_EN.txt	LADYBUG	Insects	12	6	[0, 0, 0]	n/a	catFR1	7	R1662S
664.107	0.0	715750	WORD_OFF	n/a	n/a	LADYBUG	Insects	12	6	[0, 0, 0]	n/a	catFR1	7	R1662S
664.107	0.004	715750	PROB	0.004	n/a	n/a	n/a	-999	6	[7, 2, 8]	17	catFR1	7	R1662S
664.111	0.0	715754	START	n/a	n/a	n/a	n/a	-999	6	[-999, -999, -999]	n/a	catFR1	7	R1662S
664.111	0.0	715762	ENCODING_END	n/a	n/a	n/a	n/a	-999	6	[0, 0, 0]	n/a	catFR1	7	R1662S
664.111	3.952	715762	DISTRACT_START	n/a	n/a	n/a	n/a	-999	6	[0, 0, 0]	n/a	catFR1	7	R1662S
668.063	3.16	719706	PROB	3.16	n/a	n/a	n/a	-999	6	[1, 4, 5]	10	catFR1	7	R1662S
671.223	3.59	722866	PROB	3.59	n/a	n/a	n/a	-999	6	[4, 3, 5]	12	catFR1	7	R1662S
674.813	3.733	726456	PROB	3.733	n/a	n/a	n/a	-999	6	[4, 5, 7]	16	catFR1	7	R1662S
678.546	3.343	730189	PROB	3.343	n/a	n/a	n/a	-999	6	[1, 4, 6]	11	catFR1	7	R1662S
681.889	3.359	733532	PROB	3.359	n/a	n/a	n/a	-999	6	[5, 5, 4]	14	catFR1	7	R1662S
685.248	0.0	736891	STOP	n/a	n/a	n/a	n/a	-999	6	[-999, -999, -999]	n/a	catFR1	7	R1662S
685.248	2.358	736893	DISTRACT_END	n/a	n/a	n/a	n/a	-999	6	[0, 0, 0]	n/a	catFR1	7	R1662S
687.606	1.201	739258	REC_START	n/a	n/a	n/a	n/a	-999	6	[0, 0, 0]	n/a	catFR1	7	R1662S
688.807	4.243	740450	REC_WORD	4.243	n/a	BUTTERFLY	Insects	11	6	[0, 0, 0]	n/a	catFR1	7	R1662S
693.05	11.698	744693	REC_WORD_VV	11.698	n/a	<>	n/a	-999	6	[0, 0, 0]	n/a	catFR1	7	R1662S
704.748	9.029	756391	REC_WORD	9.029	n/a	CALCULATOR	Electronics	-999	6	[0, 0, 0]	n/a	catFR1	7	R1662S
713.777	0.613	765420	REC_WORD	0.613	n/a	STOVE	Appliances	9	6	[0, 0, 0]	n/a	catFR1	7	R1662S
714.39	1.294	766033	REC_WORD	1.294	n/a	FREEZER	Appliances	10	6	[0, 0, 0]	n/a	catFR1	7	R1662S
715.684	2.07	767327	REC_WORD	2.07	n/a	REFRIGERATOR	Appliances	-999	6	[0, 0, 0]	n/a	catFR1	7	R1662S
717.754	2.026	769399	REC_END	n/a	n/a	n/a	n/a	-999	6	[0, 0, 0]	n/a	catFR1	7	R1662S
719.78	10.341	771429	COUNTDOWN_START	n/a	n/a	n/a	n/a	-999	6	[0, 0, 0]	n/a	catFR1	7	R1662S
730.121	0.0	781764	COUNTDOWN_END	n/a	n/a	n/a	n/a	-999	6	[0, 0, 0]	n/a	catFR1	7	R1662S
730.121	2.36	781776	ENCODING_START	n/a	n/a	n/a	n/a	-999	7	[0, 0, 0]	n/a	catFR1	7	R1662S
732.481	1.608	784129	WORD	n/a	wordpools/wordpool_categorized_EN.txt	BARBIE	Toys	1	7	[0, 0, 0]	n/a	catFR1	7	R1662S
734.089	0.834	785732	WORD_OFF	n/a	n/a	BARBIE	Toys	1	7	[0, 0, 0]	n/a	catFR1	7	R1662S
734.923	1.6	786574	WORD	n/a	wordpools/wordpool_categorized_EN.txt	BLOCKS	Toys	2	7	[0, 0, 0]	n/a	catFR1	7	R1662S
736.523	0.858	788178	WORD_OFF	n/a	n/a	BLOCKS	Toys	2	7	[0, 0, 0]	n/a	catFR1	7	R1662S
737.381	1.617	789031	WORD	n/a	wordpools/wordpool_categorized_EN.txt	WOOL	Fabric	3	7	[0, 0, 0]	n/a	catFR1	7	R1662S
738.998	0.916	790646	WORD_OFF	n/a	n/a	WOOL	Fabric	3	7	[0, 0, 0]	n/a	catFR1	7	R1662S
739.914	1.61	791557	WORD	n/a	wordpools/wordpool_categorized_EN.txt	SPANDEX	Fabric	4	7	[0, 0, 0]	n/a	catFR1	7	R1662S
741.524	0.915	793172	WORD_OFF	n/a	n/a	SPANDEX	Fabric	4	7	[0, 0, 0]	n/a	catFR1	7	R1662S
742.439	1.608	794083	WORD	n/a	wordpools/wordpool_categorized_EN.txt	MILK	Beverages	5	7	[0, 0, 0]	n/a	catFR1	7	R1662S
744.047	0.858	795698	WORD_OFF	n/a	n/a	MILK	Beverages	5	7	[0, 0, 0]	n/a	catFR1	7	R1662S
744.905	1.608	796552	WORD	n/a	wordpools/wordpool_categorized_EN.txt	RUM	Beverages	6	7	[0, 0, 0]	n/a	catFR1	7	R1662S
746.513	0.841	798167	WORD_OFF	n/a	n/a	RUM	Beverages	6	7	[0, 0, 0]	n/a	catFR1	7	R1662S
747.354	1.6	798997	WORD	n/a	wordpools/wordpool_categorized_EN.txt	SLINKY	Toys	7	7	[0, 0, 0]	n/a	catFR1	7	R1662S
748.954	0.85	800601	WORD_OFF	n/a	n/a	SLINKY	Toys	7	7	[0, 0, 0]	n/a	catFR1	7	R1662S
749.804	1.601	801454	WORD	n/a	wordpools/wordpool_categorized_EN.txt	FRISBEE	Toys	8	7	[0, 0, 0]	n/a	catFR1	7	R1662S
751.405	0.851	803058	WORD_OFF	n/a	n/a	FRISBEE	Toys	8	7	[0, 0, 0]	n/a	catFR1	7	R1662S
752.256	1.6	803911	WORD	n/a	wordpools/wordpool_categorized_EN.txt	LEATHER	Fabric	9	7	[0, 0, 0]	n/a	catFR1	7	R1662S
753.856	0.832	805503	WORD_OFF	n/a	n/a	LEATHER	Fabric	9	7	[0, 0, 0]	n/a	catFR1	7	R1662S
754.688	1.609	806333	WORD	n/a	wordpools/wordpool_categorized_EN.txt	SUEDE	Fabric	10	7	[0, 0, 0]	n/a	catFR1	7	R1662S
756.297	0.791	807948	WORD_OFF	n/a	n/a	SUEDE	Fabric	10	7	[0, 0, 0]	n/a	catFR1	7	R1662S
757.088	1.601	808733	WORD	n/a	wordpools/wordpool_categorized_EN.txt	CIDER	Beverages	11	7	[0, 0, 0]	n/a	catFR1	7	R1662S
758.689	0.8	810336	WORD_OFF	n/a	n/a	CIDER	Beverages	11	7	[0, 0, 0]	n/a	catFR1	7	R1662S
759.489	1.607	811132	WORD	n/a	wordpools/wordpool_categorized_EN.txt	LEMONADE	Beverages	12	7	[0, 0, 0]	n/a	catFR1	7	R1662S
761.096	0.004	812739	PROB	0.004	n/a	n/a	n/a	-999	7	[1, 3, 7]	11	catFR1	7	R1662S
761.1	0.0	812743	START	n/a	n/a	n/a	n/a	-999	7	[-999, -999, -999]	n/a	catFR1	7	R1662S
761.096	0.004	812747	WORD_OFF	n/a	n/a	LEMONADE	Beverages	12	7	[0, 0, 0]	n/a	catFR1	7	R1662S
761.1	0.0	812747	ENCODING_END	n/a	n/a	n/a	n/a	-999	7	[0, 0, 0]	n/a	catFR1	7	R1662S
761.1	4.481	812747	DISTRACT_START	n/a	n/a	n/a	n/a	-999	7	[0, 0, 0]	n/a	catFR1	7	R1662S
765.581	4.033	817224	PROB	4.033	n/a	n/a	n/a	-999	7	[6, 6, 8]	20	catFR1	7	R1662S
769.614	2.749	821257	PROB	2.749	n/a	n/a	n/a	-999	7	[7, 3, 3]	13	catFR1	7	R1662S
772.363	4.134	824006	PROB	4.134	n/a	n/a	n/a	-999	7	[4, 3, 5]	12	catFR1	7	R1662S
776.497	2.557	828140	PROB	2.557	n/a	n/a	n/a	-999	7	[7, 3, 3]	13	catFR1	7	R1662S
779.054	3.367	830697	PROB	3.367	n/a	n/a	n/a	-999	7	[8, 1, 5]	14	catFR1	7	R1662S
782.421	0.0	834063	DISTRACT_END	n/a	n/a	n/a	n/a	-999	7	[0, 0, 0]	n/a	catFR1	7	R1662S
782.421	2.008	834064	STOP	n/a	n/a	n/a	n/a	-999	7	[-999, -999, -999]	n/a	catFR1	7	R1662S
784.429	0.917	836070	REC_START	n/a	n/a	n/a	n/a	-999	7	[0, 0, 0]	n/a	catFR1	7	R1662S
785.346	0.752	836989	REC_WORD	0.752	n/a	BARBIE	Toys	1	7	[0, 0, 0]	n/a	catFR1	7	R1662S
786.098	1.913	837741	REC_WORD	1.913	n/a	BLOCKS	Toys	2	7	[0, 0, 0]	n/a	catFR1	7	R1662S
788.011	0.715	839654	REC_WORD	0.715	n/a	LEATHER	Fabric	9	7	[0, 0, 0]	n/a	catFR1	7	R1662S
788.726	11.926	840369	REC_WORD	11.926	n/a	SUEDE	Fabric	10	7	[0, 0, 0]	n/a	catFR1	7	R1662S
800.652	13.921	852295	REC_WORD_VV	13.921	n/a	<>	n/a	-999	7	[0, 0, 0]	n/a	catFR1	7	R1662S
814.573	1.799	866222	REC_END	n/a	n/a	n/a	n/a	-999	7	[0, 0, 0]	n/a	catFR1	7	R1662S
816.372	10.341	868022	COUNTDOWN_START	n/a	n/a	n/a	n/a	-999	7	[0, 0, 0]	n/a	catFR1	7	R1662S
826.713	0.0	878357	COUNTDOWN_END	n/a	n/a	n/a	n/a	-999	7	[0, 0, 0]	n/a	catFR1	7	R1662S
826.713	1.802	878369	ENCODING_START	n/a	n/a	n/a	n/a	-999	8	[0, 0, 0]	n/a	catFR1	7	R1662S
828.515	1.608	880168	WORD	n/a	wordpools/wordpool_categorized_EN.txt	TOASTER	Appliances	1	8	[0, 0, 0]	n/a	catFR1	7	R1662S
830.123	0.882	881772	WORD_OFF	n/a	n/a	TOASTER	Appliances	1	8	[0, 0, 0]	n/a	catFR1	7	R1662S
831.005	1.602	882648	WORD	n/a	wordpools/wordpool_categorized_EN.txt	DISHWASHER	Appliances	2	8	[0, 0, 0]	n/a	catFR1	7	R1662S
832.607	0.776	884252	WORD_OFF	n/a	n/a	DISHWASHER	Appliances	2	8	[0, 0, 0]	n/a	catFR1	7	R1662S
833.383	1.598	885036	WORD	n/a	wordpools/wordpool_categorized_EN.txt	SANDER	Tools	3	8	[0, 0, 0]	n/a	catFR1	7	R1662S
834.981	0.765	886628	WORD_OFF	n/a	n/a	SANDER	Tools	3	8	[0, 0, 0]	n/a	catFR1	7	R1662S
835.746	1.601	887389	WORD	n/a	wordpools/wordpool_categorized_EN.txt	WRENCH	Tools	4	8	[0, 0, 0]	n/a	catFR1	7	R1662S
837.347	0.967	888992	WORD_OFF	n/a	n/a	WRENCH	Tools	4	8	[0, 0, 0]	n/a	catFR1	7	R1662S
838.314	1.6	889961	WORD	n/a	wordpools/wordpool_categorized_EN.txt	RECLINER	Furniture	5	8	[0, 0, 0]	n/a	catFR1	7	R1662S
839.914	0.915	891565	WORD_OFF	n/a	n/a	RECLINER	Furniture	5	8	[0, 0, 0]	n/a	catFR1	7	R1662S
840.829	1.603	892476	WORD	n/a	wordpools/wordpool_categorized_EN.txt	COUCH	Furniture	6	8	[0, 0, 0]	n/a	catFR1	7	R1662S
842.432	0.841	894079	WORD_OFF	n/a	n/a	COUCH	Furniture	6	8	[0, 0, 0]	n/a	catFR1	7	R1662S
843.273	1.607	894921	WORD	n/a	wordpools/wordpool_categorized_EN.txt	OVEN	Appliances	7	8	[0, 0, 0]	n/a	catFR1	7	R1662S
844.88	0.917	896525	WORD_OFF	n/a	n/a	OVEN	Appliances	7	8	[0, 0, 0]	n/a	catFR1	7	R1662S
845.797	1.607	897447	WORD	n/a	wordpools/wordpool_categorized_EN.txt	MIXER	Appliances	8	8	[0, 0, 0]	n/a	catFR1	7	R1662S
847.404	0.858	899051	WORD_OFF	n/a	n/a	MIXER	Appliances	8	8	[0, 0, 0]	n/a	catFR1	7	R1662S
848.262	1.602	899904	WORD	n/a	wordpools/wordpool_categorized_EN.txt	NIGHTSTAND	Furniture	9	8	[0, 0, 0]	n/a	catFR1	7	R1662S
849.864	0.876	901508	WORD_OFF	n/a	n/a	NIGHTSTAND	Furniture	9	8	[0, 0, 0]	n/a	catFR1	7	R1662S
850.74	1.607	902384	WORD	n/a	wordpools/wordpool_categorized_EN.txt	DESK	Furniture	10	8	[0, 0, 0]	n/a	catFR1	7	R1662S
852.347	0.842	903999	WORD_OFF	n/a	n/a	DESK	Furniture	10	8	[0, 0, 0]	n/a	catFR1	7	R1662S
853.189	1.607	904841	WORD	n/a	wordpools/wordpool_categorized_EN.txt	HAMMER	Tools	11	8	[0, 0, 0]	n/a	catFR1	7	R1662S
854.796	0.826	906445	WORD_OFF	n/a	n/a	HAMMER	Tools	11	8	[0, 0, 0]	n/a	catFR1	7	R1662S
855.622	1.6	907275	WORD	n/a	wordpools/wordpool_categorized_EN.txt	CROWBAR	Tools	12	8	[0, 0, 0]	n/a	catFR1	7	R1662S
857.222	0.001	908865	PROB	0.001	n/a	n/a	n/a	-999	8	[1, 5, 3]	9	catFR1	7	R1662S
857.223	0.003	908867	WORD_OFF	n/a	n/a	CROWBAR	Tools	12	8	[0, 0, 0]	n/a	catFR1	7	R1662S
857.226	0.0	908869	START	n/a	n/a	n/a	n/a	-999	8	[-999, -999, -999]	n/a	catFR1	7	R1662S
857.226	0.0	908878	ENCODING_END	n/a	n/a	n/a	n/a	-999	8	[0, 0, 0]	n/a	catFR1	7	R1662S
857.226	3.82	908878	DISTRACT_START	n/a	n/a	n/a	n/a	-999	8	[0, 0, 0]	n/a	catFR1	7	R1662S
861.046	5.534	912689	PROB	5.534	n/a	n/a	n/a	-999	8	[8, 5, 8]	21	catFR1	7	R1662S
866.58	4.625	918223	PROB	4.625	n/a	n/a	n/a	-999	8	[6, 2, 8]	16	catFR1	7	R1662S
871.205	7.076	922848	PROB	7.076	n/a	n/a	n/a	-999	8	[6, 7, 4]	17	catFR1	7	R1662S
878.281	0.0	929924	STOP	n/a	n/a	n/a	n/a	-999	8	[-999, -999, -999]	n/a	catFR1	7	R1662S
878.281	2.357	929930	DISTRACT_END	n/a	n/a	n/a	n/a	-999	8	[0, 0, 0]	n/a	catFR1	7	R1662S
880.638	2.168	932283	REC_START	n/a	n/a	n/a	n/a	-999	8	[0, 0, 0]	n/a	catFR1	7	R1662S
882.806	1.597	934449	REC_WORD_VV	1.597	n/a	<>	n/a	-999	8	[0, 0, 0]	n/a	catFR1	7	R1662S
884.403	1.208	936046	REC_WORD	1.208	n/a	DESK	Furniture	10	8	[0, 0, 0]	n/a	catFR1	7	R1662S
885.611	0.952	937254	REC_WORD	0.952	n/a	HAMMER	Tools	11	8	[0, 0, 0]	n/a	catFR1	7	R1662S
886.563	1.745	938206	REC_WORD	1.745	n/a	CROWBAR	Tools	12	8	[0, 0, 0]	n/a	catFR1	7	R1662S
888.308	8.062	939951	REC_WORD	8.062	n/a	WRENCH	Tools	4	8	[0, 0, 0]	n/a	catFR1	7	R1662S
896.37	6.637	948013	REC_WORD	6.637	n/a	CEDAR	Trees	-999	8	[0, 0, 0]	n/a	catFR1	7	R1662S
903.007	7.778	954650	REC_WORD_VV	7.778	n/a	<>	n/a	-999	8	[0, 0, 0]	n/a	catFR1	7	R1662S
910.785	3.286	962435	REC_END	n/a	n/a	n/a	n/a	-999	8	[0, 0, 0]	n/a	catFR1	7	R1662S
914.071	10.344	965722	COUNTDOWN_START	n/a	n/a	n/a	n/a	-999	8	[0, 0, 0]	n/a	catFR1	7	R1662S
924.415	0.001	976069	COUNTDOWN_END	n/a	n/a	n/a	n/a	-999	8	[0, 0, 0]	n/a	catFR1	7	R1662S
924.416	2.089	976069	ENCODING_START	n/a	n/a	n/a	n/a	-999	9	[0, 0, 0]	n/a	catFR1	7	R1662S
926.505	1.599	978157	WORD	n/a	wordpools/wordpool_categorized_EN.txt	VAN	Vehicles	1	9	[0, 0, 0]	n/a	catFR1	7	R1662S
928.104	0.867	979749	WORD_OFF	n/a	n/a	VAN	Vehicles	1	9	[0, 0, 0]	n/a	catFR1	7	R1662S
928.971	1.6	980625	WORD	n/a	wordpools/wordpool_categorized_EN.txt	SCOOTER	Vehicles	2	9	[0, 0, 0]	n/a	catFR1	7	R1662S
930.571	0.959	982217	WORD_OFF	n/a	n/a	SCOOTER	Vehicles	2	9	[0, 0, 0]	n/a	catFR1	7	R1662S
931.53	1.6	983175	WORD	n/a	wordpools/wordpool_categorized_EN.txt	CHAIR	Furniture	3	9	[0, 0, 0]	n/a	catFR1	7	R1662S
933.13	0.983	984778	WORD_OFF	n/a	n/a	CHAIR	Furniture	3	9	[0, 0, 0]	n/a	catFR1	7	R1662S
934.113	1.601	985758	WORD	n/a	wordpools/wordpool_categorized_EN.txt	BED	Furniture	4	9	[0, 0, 0]	n/a	catFR1	7	R1662S
935.714	0.849	987362	WORD_OFF	n/a	n/a	BED	Furniture	4	9	[0, 0, 0]	n/a	catFR1	7	R1662S
936.563	1.6	988215	WORD	n/a	wordpools/wordpool_categorized_EN.txt	GOOSE	Birds	5	9	[0, 0, 0]	n/a	catFR1	7	R1662S
938.163	0.849	989807	WORD_OFF	n/a	n/a	GOOSE	Birds	5	9	[0, 0, 0]	n/a	catFR1	7	R1662S
939.012	1.6	990661	WORD	n/a	wordpools/wordpool_categorized_EN.txt	CARDINAL	Birds	6	9	[0, 0, 0]	n/a	catFR1	7	R1662S
940.612	0.818	992264	WORD_OFF	n/a	n/a	CARDINAL	Birds	6	9	[0, 0, 0]	n/a	catFR1	7	R1662S
941.43	1.601	993083	WORD	n/a	wordpools/wordpool_categorized_EN.txt	BUS	Vehicles	7	9	[0, 0, 0]	n/a	catFR1	7	R1662S
943.031	0.833	994675	WORD_OFF	n/a	n/a	BUS	Vehicles	7	9	[0, 0, 0]	n/a	catFR1	7	R1662S
943.864	1.599	995517	WORD	n/a	wordpools/wordpool_categorized_EN.txt	JEEP	Vehicles	8	9	[0, 0, 0]	n/a	catFR1	7	R1662S
945.463	0.967	997109	WORD_OFF	n/a	n/a	JEEP	Vehicles	8	9	[0, 0, 0]	n/a	catFR1	7	R1662S
946.43	1.607	998078	WORD	n/a	wordpools/wordpool_categorized_EN.txt	SPARROW	Birds	9	9	[0, 0, 0]	n/a	catFR1	7	R1662S
948.037	0.902	999681	WORD_OFF	n/a	n/a	SPARROW	Birds	9	9	[0, 0, 0]	n/a	catFR1	7	R1662S
948.939	1.608	1000592	WORD	n/a	wordpools/wordpool_categorized_EN.txt	SEAGULL	Birds	10	9	[0, 0, 0]	n/a	catFR1	7	R1662S
950.547	0.811	1002196	WORD_OFF	n/a	n/a	SEAGULL	Birds	10	9	[0, 0, 0]	n/a	catFR1	7	R1662S
951.358	1.604	1003003	WORD	n/a	wordpools/wordpool_categorized_EN.txt	SOFA	Furniture	11	9	[0, 0, 0]	n/a	catFR1	7	R1662S
952.962	0.877	1004606	WORD_OFF	n/a	n/a	SOFA	Furniture	11	9	[0, 0, 0]	n/a	catFR1	7	R1662S
953.839	1.608	1005483	WORD	n/a	wordpools/wordpool_categorized_EN.txt	SHELF	Furniture	12	9	[0, 0, 0]	n/a	catFR1	7	R1662S
955.447	0.003	1007090	PROB	0.003	n/a	n/a	n/a	-999	9	[2, 3, 7]	12	catFR1	7	R1662S
955.45	0.0	1007093	START	n/a	n/a	n/a	n/a	-999	9	[-999, -999, -999]	n/a	catFR1	7	R1662S
955.447	0.003	1007098	WORD_OFF	n/a	n/a	SHELF	Furniture	12	9	[0, 0, 0]	n/a	catFR1	7	R1662S
955.45	0.0	1007098	ENCODING_END	n/a	n/a	n/a	n/a	-999	9	[0, 0, 0]	n/a	catFR1	7	R1662S
955.45	5.072	1007098	DISTRACT_START	n/a	n/a	n/a	n/a	-999	9	[0, 0, 0]	n/a	catFR1	7	R1662S
960.522	3.0	1012165	PROB	3.0	n/a	n/a	n/a	-999	9	[6, 7, 7]	20	catFR1	7	R1662S
963.522	2.658	1015165	PROB	2.658	n/a	n/a	n/a	-999	9	[8, 3, 2]	13	catFR1	7	R1662S
966.18	2.524	1017823	PROB	2.524	n/a	n/a	n/a	-999	9	[5, 2, 1]	8	catFR1	7	R1662S
968.704	2.817	1020347	PROB	2.817	n/a	n/a	n/a	-999	9	[3, 4, 6]	13	catFR1	7	R1662S
971.521	2.585	1023164	PROB	2.585	n/a	n/a	n/a	-999	9	[4, 1, 4]	9	catFR1	7	R1662S
974.106	4.264	1025749	PROB	4.264	n/a	n/a	n/a	-999	9	[6, 1, 7]	14	catFR1	7	R1662S
978.37	0.0	1030013	STOP	n/a	n/a	n/a	n/a	-999	9	[-999, -999, -999]	n/a	catFR1	7	R1662S
978.37	2.243	1030018	DISTRACT_END	n/a	n/a	n/a	n/a	-999	9	[0, 0, 0]	n/a	catFR1	7	R1662S
980.613	2.604	1032255	REC_START	n/a	n/a	n/a	n/a	-999	9	[0, 0, 0]	n/a	catFR1	7	R1662S
983.217	1.485	1034860	REC_WORD_VV	1.485	n/a	<>	n/a	-999	9	[0, 0, 0]	n/a	catFR1	7	R1662S
984.702	1.234	1036345	REC_WORD	1.234	n/a	SOFA	Furniture	11	9	[0, 0, 0]	n/a	catFR1	7	R1662S
985.936	4.045	1037579	REC_WORD	4.045	n/a	CHAIR	Furniture	3	9	[0, 0, 0]	n/a	catFR1	7	R1662S
989.981	7.552	1041624	REC_WORD_VV	7.552	n/a	<>	n/a	-999	9	[0, 0, 0]	n/a	catFR1	7	R1662S
997.533	6.541	1049176	REC_WORD	6.541	n/a	TOASTER	Appliances	-999	9	[0, 0, 0]	n/a	catFR1	7	R1662S
1004.074	1.914	1055717	REC_WORD	1.914	n/a	JEEP	Vehicles	8	9	[0, 0, 0]	n/a	catFR1	7	R1662S
1005.988	4.207	1057631	REC_WORD	4.207	n/a	BUS	Vehicles	7	9	[0, 0, 0]	n/a	catFR1	7	R1662S
1010.195	0.558	1061838	REC_WORD	0.558	n/a	BOAT	n/a	-999	9	[0, 0, 0]	n/a	catFR1	7	R1662S
1010.753	3.417	1062396	REC_END	n/a	n/a	n/a	n/a	-999	9	[0, 0, 0]	n/a	catFR1	7	R1662S
1014.17	10.344	1065822	COUNTDOWN_START	n/a	n/a	n/a	n/a	-999	9	[0, 0, 0]	n/a	catFR1	7	R1662S
1024.514	0.001	1076157	COUNTDOWN_END	n/a	n/a	n/a	n/a	-999	9	[0, 0, 0]	n/a	catFR1	7	R1662S
1024.515	2.231	1076169	ENCODING_START	n/a	n/a	n/a	n/a	-999	10	[0, 0, 0]	n/a	catFR1	7	R1662S
1026.746	1.601	1078395	WORD	n/a	wordpools/wordpool_categorized_EN.txt	DOOR	Building	1	10	[0, 0, 0]	n/a	catFR1	7	R1662S
1028.347	0.774	1079998	WORD_OFF	n/a	n/a	DOOR	Building	1	10	[0, 0, 0]	n/a	catFR1	7	R1662S
1029.121	1.601	1080771	WORD	n/a	wordpools/wordpool_categorized_EN.txt	WINDOW	Building	2	10	[0, 0, 0]	n/a	catFR1	7	R1662S
1030.722	0.766	1082374	WORD_OFF	n/a	n/a	WINDOW	Building	2	10	[0, 0, 0]	n/a	catFR1	7	R1662S
1031.488	1.608	1083136	WORD	n/a	wordpools/wordpool_categorized_EN.txt	WHISK	KitchenTools	3	10	[0, 0, 0]	n/a	catFR1	7	R1662S
1033.096	0.849	1084739	WORD_OFF	n/a	n/a	WHISK	KitchenTools	3	10	[0, 0, 0]	n/a	catFR1	7	R1662S
1033.945	1.608	1085593	WORD	n/a	wordpools/wordpool_categorized_EN.txt	FORK	KitchenTools	4	10	[0, 0, 0]	n/a	catFR1	7	R1662S
1035.553	0.927	1087196	WORD_OFF	n/a	n/a	FORK	KitchenTools	4	10	[0, 0, 0]	n/a	catFR1	7	R1662S
1036.48	1.6	1088130	WORD	n/a	wordpools/wordpool_categorized_EN.txt	FLY	Insects	5	10	[0, 0, 0]	n/a	catFR1	7	R1662S
1038.08	0.883	1089734	WORD_OFF	n/a	n/a	FLY	Insects	5	10	[0, 0, 0]	n/a	catFR1	7	R1662S
1038.963	1.6	1090610	WORD	n/a	wordpools/wordpool_categorized_EN.txt	BEETLE	Insects	6	10	[0, 0, 0]	n/a	catFR1	7	R1662S
1040.563	0.892	1092214	WORD_OFF	n/a	n/a	BEETLE	Insects	6	10	[0, 0, 0]	n/a	catFR1	7	R1662S
1041.455	1.608	1093102	WORD	n/a	wordpools/wordpool_categorized_EN.txt	KNIFE	KitchenTools	7	10	[0, 0, 0]	n/a	catFR1	7	R1662S
1043.063	0.891	1094717	WORD_OFF	n/a	n/a	KNIFE	KitchenTools	7	10	[0, 0, 0]	n/a	catFR1	7	R1662S
1043.954	1.6	1095605	WORD	n/a	wordpools/wordpool_categorized_EN.txt	SPATULA	KitchenTools	8	10	[0, 0, 0]	n/a	catFR1	7	R1662S
1045.554	0.994	1097197	WORD_OFF	n/a	n/a	SPATULA	KitchenTools	8	10	[0, 0, 0]	n/a	catFR1	7	R1662S
1046.548	1.6	1098200	WORD	n/a	wordpools/wordpool_categorized_EN.txt	FLOOR	Building	9	10	[0, 0, 0]	n/a	catFR1	7	R1662S
1048.148	0.897	1099792	WORD_OFF	n/a	n/a	FLOOR	Building	9	10	[0, 0, 0]	n/a	catFR1	7	R1662S
1049.045	1.601	1100692	WORD	n/a	wordpools/wordpool_categorized_EN.txt	HALLWAY	Building	10	10	[0, 0, 0]	n/a	catFR1	7	R1662S
1050.646	0.817	1102295	WORD_OFF	n/a	n/a	HALLWAY	Building	10	10	[0, 0, 0]	n/a	catFR1	7	R1662S
1051.463	1.608	1103114	WORD	n/a	wordpools/wordpool_categorized_EN.txt	SPIDER	Insects	11	10	[0, 0, 0]	n/a	catFR1	7	R1662S
1053.071	0.776	1104718	WORD_OFF	n/a	n/a	SPIDER	Insects	11	10	[0, 0, 0]	n/a	catFR1	7	R1662S
1053.847	1.608	1105490	WORD	n/a	wordpools/wordpool_categorized_EN.txt	ANT	Insects	12	10	[0, 0, 0]	n/a	catFR1	7	R1662S
1055.455	0.003	1107098	PROB	0.003	n/a	n/a	n/a	-999	10	[7, 8, 2]	17	catFR1	7	R1662S
1055.458	0.0	1107101	START	n/a	n/a	n/a	n/a	-999	10	[-999, -999, -999]	n/a	catFR1	7	R1662S
1055.455	0.003	1107105	WORD_OFF	n/a	n/a	ANT	Insects	12	10	[0, 0, 0]	n/a	catFR1	7	R1662S
1055.458	0.0	1107105	ENCODING_END	n/a	n/a	n/a	n/a	-999	10	[0, 0, 0]	n/a	catFR1	7	R1662S
1055.458	3.938	1107105	DISTRACT_START	n/a	n/a	n/a	n/a	-999	10	[0, 0, 0]	n/a	catFR1	7	R1662S
1059.396	3.183	1111039	PROB	3.183	n/a	n/a	n/a	-999	10	[2, 2, 3]	7	catFR1	7	R1662S
1062.579	4.426	1114222	PROB	4.426	n/a	n/a	n/a	-999	10	[4, 3, 2]	9	catFR1	7	R1662S
1067.005	3.417	1118648	PROB	3.417	n/a	n/a	n/a	-999	10	[3, 2, 3]	8	catFR1	7	R1662S
1070.422	4.574	1122065	PROB	4.574	n/a	n/a	n/a	-999	10	[6, 8, 5]	19	catFR1	7	R1662S
1074.996	2.532	1126640	PROB	2.532	n/a	n/a	n/a	-999	10	[1, 1, 4]	6	catFR1	7	R1662S
1077.528	0.0	1129172	DISTRACT_END	n/a	n/a	n/a	n/a	-999	10	[0, 0, 0]	n/a	catFR1	7	R1662S
1077.528	2.035	1129172	STOP	n/a	n/a	n/a	n/a	-999	10	[-999, -999, -999]	n/a	catFR1	7	R1662S
1079.563	1.71	1131213	REC_START	n/a	n/a	n/a	n/a	-999	10	[0, 0, 0]	n/a	catFR1	7	R1662S
1081.273	0.803	1132917	REC_WORD	0.803	n/a	DOOR	Building	1	10	[0, 0, 0]	n/a	catFR1	7	R1662S
1082.076	1.365	1133720	REC_WORD	1.365	n/a	WINDOW	Building	2	10	[0, 0, 0]	n/a	catFR1	7	R1662S
1083.441	3.904	1135085	REC_WORD	3.904	n/a	SPATULA	KitchenTools	8	10	[0, 0, 0]	n/a	catFR1	7	R1662S
1087.345	2.765	1138989	REC_WORD_VV	2.765	n/a	<>	n/a	-999	10	[0, 0, 0]	n/a	catFR1	7	R1662S
1090.11	3.816	1141754	REC_WORD_VV	3.816	n/a	<>	n/a	-999	10	[0, 0, 0]	n/a	catFR1	7	R1662S
1093.926	11.601	1145570	REC_WORD	11.601	n/a	STOVE	Appliances	-999	10	[0, 0, 0]	n/a	catFR1	7	R1662S
1105.527	1.0	1157171	REC_WORD_VV	1.0	n/a	<>	n/a	-999	10	[0, 0, 0]	n/a	catFR1	7	R1662S
1106.527	3.184	1158171	REC_WORD_VV	3.184	n/a	<>	n/a	-999	10	[0, 0, 0]	n/a	catFR1	7	R1662S
1109.711	1.876	1161354	REC_END	n/a	n/a	n/a	n/a	-999	10	[0, 0, 0]	n/a	catFR1	7	R1662S
1111.587	10.343	1163234	COUNTDOWN_START	n/a	n/a	n/a	n/a	-999	10	[0, 0, 0]	n/a	catFR1	7	R1662S
1121.93	0.001	1173581	COUNTDOWN_END	n/a	n/a	n/a	n/a	-999	10	[0, 0, 0]	n/a	catFR1	7	R1662S
1121.931	1.931	1173581	ENCODING_START	n/a	n/a	n/a	n/a	-999	11	[0, 0, 0]	n/a	catFR1	7	R1662S
1123.862	1.602	1175507	WORD	n/a	wordpools/wordpool_categorized_EN.txt	STAIRS	Building	1	11	[0, 0, 0]	n/a	catFR1	7	R1662S
1125.464	0.807	1177110	WORD_OFF	n/a	n/a	STAIRS	Building	1	11	[0, 0, 0]	n/a	catFR1	7	R1662S
1126.271	1.6	1177918	WORD	n/a	wordpools/wordpool_categorized_EN.txt	ROOF	Building	2	11	[0, 0, 0]	n/a	catFR1	7	R1662S
1127.871	0.825	1179521	WORD_OFF	n/a	n/a	ROOF	Building	2	11	[0, 0, 0]	n/a	catFR1	7	R1662S
1128.696	1.607	1180340	WORD	n/a	wordpools/wordpool_categorized_EN.txt	CREEK	Landscapes	3	11	[0, 0, 0]	n/a	catFR1	7	R1662S
1130.303	0.895	1181955	WORD_OFF	n/a	n/a	CREEK	Landscapes	3	11	[0, 0, 0]	n/a	catFR1	7	R1662S
1131.198	1.601	1182843	WORD	n/a	wordpools/wordpool_categorized_EN.txt	OCEAN	Landscapes	4	11	[0, 0, 0]	n/a	catFR1	7	R1662S
1132.799	0.981	1184447	WORD_OFF	n/a	n/a	OCEAN	Landscapes	4	11	[0, 0, 0]	n/a	catFR1	7	R1662S
1133.78	1.608	1185427	WORD	n/a	wordpools/wordpool_categorized_EN.txt	SILK	Fabric	5	11	[0, 0, 0]	n/a	catFR1	7	R1662S
1135.388	0.858	1187042	WORD_OFF	n/a	n/a	SILK	Fabric	5	11	[0, 0, 0]	n/a	catFR1	7	R1662S
1136.246	1.6	1187896	WORD	n/a	wordpools/wordpool_categorized_EN.txt	NYLON	Fabric	6	11	[0, 0, 0]	n/a	catFR1	7	R1662S
1137.846	0.95	1189499	WORD_OFF	n/a	n/a	NYLON	Fabric	6	11	[0, 0, 0]	n/a	catFR1	7	R1662S
1138.796	1.6	1190445	WORD	n/a	wordpools/wordpool_categorized_EN.txt	FOREST	Landscapes	7	11	[0, 0, 0]	n/a	catFR1	7	R1662S
1140.396	0.833	1192048	WORD_OFF	n/a	n/a	FOREST	Landscapes	7	11	[0, 0, 0]	n/a	catFR1	7	R1662S
1141.229	1.6	1192879	WORD	n/a	wordpools/wordpool_categorized_EN.txt	HILLS	Landscapes	8	11	[0, 0, 0]	n/a	catFR1	7	R1662S
1142.829	0.977	1194482	WORD_OFF	n/a	n/a	HILLS	Landscapes	8	11	[0, 0, 0]	n/a	catFR1	7	R1662S
1143.806	1.599	1195451	WORD	n/a	wordpools/wordpool_categorized_EN.txt	LINEN	Fabric	9	11	[0, 0, 0]	n/a	catFR1	7	R1662S
1145.405	0.934	1197054	WORD_OFF	n/a	n/a	LINEN	Fabric	9	11	[0, 0, 0]	n/a	catFR1	7	R1662S
1146.339	1.607	1197989	WORD	n/a	wordpools/wordpool_categorized_EN.txt	SATIN	Fabric	10	11	[0, 0, 0]	n/a	catFR1	7	R1662S
1147.946	0.858	1199592	WORD_OFF	n/a	n/a	SATIN	Fabric	10	11	[0, 0, 0]	n/a	catFR1	7	R1662S
1148.804	1.609	1200457	WORD	n/a	wordpools/wordpool_categorized_EN.txt	ATTIC	Building	11	11	[0, 0, 0]	n/a	catFR1	7	R1662S
1150.413	0.808	1202060	WORD_OFF	n/a	n/a	ATTIC	Building	11	11	[0, 0, 0]	n/a	catFR1	7	R1662S
1151.221	1.607	1202868	WORD	n/a	wordpools/wordpool_categorized_EN.txt	FOUNDATION	Building	12	11	[0, 0, 0]	n/a	catFR1	7	R1662S
1152.828	0.005	1204472	PROB	0.005	n/a	n/a	n/a	-999	11	[1, 2, 7]	10	catFR1	7	R1662S
1152.833	0.0	1204477	START	n/a	n/a	n/a	n/a	-999	11	[-999, -999, -999]	n/a	catFR1	7	R1662S
1152.829	0.004	1204483	WORD_OFF	n/a	n/a	FOUNDATION	Building	12	11	[0, 0, 0]	n/a	catFR1	7	R1662S
1152.833	0.0	1204483	ENCODING_END	n/a	n/a	n/a	n/a	-999	11	[0, 0, 0]	n/a	catFR1	7	R1662S
1152.833	4.363	1204483	DISTRACT_START	n/a	n/a	n/a	n/a	-999	11	[0, 0, 0]	n/a	catFR1	7	R1662S
1157.196	6.475	1208840	PROB	6.475	n/a	n/a	n/a	-999	11	[8, 7, 1]	16	catFR1	7	R1662S
1163.671	6.025	1215315	PROB	6.025	n/a	n/a	n/a	-999	11	[4, 6, 8]	18	catFR1	7	R1662S
1169.696	9.658	1221340	PROB	9.658	n/a	n/a	n/a	-999	11	[7, 8, 7]	22	catFR1	7	R1662S
1179.354	0.0	1230998	STOP	n/a	n/a	n/a	n/a	-999	11	[-999, -999, -999]	n/a	catFR1	7	R1662S
1179.354	2.009	1231001	DISTRACT_END	n/a	n/a	n/a	n/a	-999	11	[0, 0, 0]	n/a	catFR1	7	R1662S
1181.363	1.314	1233008	REC_START	n/a	n/a	n/a	n/a	-999	11	[0, 0, 0]	n/a	catFR1	7	R1662S
1182.677	1.153	1234321	REC_WORD_VV	1.153	n/a	<>	n/a	-999	11	[0, 0, 0]	n/a	catFR1	7	R1662S
1183.83	0.687	1235474	REC_WORD	0.687	n/a	LINEN	Fabric	9	11	[0, 0, 0]	n/a	catFR1	7	R1662S
1184.517	0.996	1236161	REC_WORD	0.996	n/a	SATIN	Fabric	10	11	[0, 0, 0]	n/a	catFR1	7	R1662S
1185.513	5.728	1237157	REC_WORD	5.728	n/a	NYLON	Fabric	6	11	[0, 0, 0]	n/a	catFR1	7	R1662S
1191.241	8.566	1242885	REC_WORD	8.566	n/a	FOREST	Landscapes	7	11	[0, 0, 0]	n/a	catFR1	7	R1662S
1199.807	3.129	1251451	REC_WORD	3.129	n/a	BEETLE	Insects	-999	11	[0, 0, 0]	n/a	catFR1	7	R1662S
1202.936	2.339	1254580	REC_WORD_VV	2.339	n/a	<>	n/a	-999	11	[0, 0, 0]	n/a	catFR1	7	R1662S
1205.275	3.326	1256919	REC_WORD	3.326	n/a	ANT	Insects	-999	11	[0, 0, 0]	n/a	catFR1	7	R1662S
1208.601	2.911	1260245	REC_WORD_VV	2.911	n/a	<>	n/a	-999	11	[0, 0, 0]	n/a	catFR1	7	R1662S
1211.512	1.916	1263161	REC_END	n/a	n/a	n/a	n/a	-999	11	[0, 0, 0]	n/a	catFR1	7	R1662S
1213.428	10.342	1265075	COUNTDOWN_START	n/a	n/a	n/a	n/a	-999	11	[0, 0, 0]	n/a	catFR1	7	R1662S
1223.77	0.0	1275422	COUNTDOWN_END	n/a	n/a	n/a	n/a	-999	11	[0, 0, 0]	n/a	catFR1	7	R1662S
1223.77	1.85	1275422	ENCODING_START	n/a	n/a	n/a	n/a	-999	12	[0, 0, 0]	n/a	catFR1	7	R1662S
1225.62	1.609	1277268	WORD	n/a	wordpools/wordpool_categorized_EN.txt	ISLAND	Landscapes	1	12	[0, 0, 0]	n/a	catFR1	7	R1662S
1227.229	0.8	1278883	WORD_OFF	n/a	n/a	ISLAND	Landscapes	1	12	[0, 0, 0]	n/a	catFR1	7	R1662S
1228.029	1.601	1279679	WORD	n/a	wordpools/wordpool_categorized_EN.txt	STREAM	Landscapes	2	12	[0, 0, 0]	n/a	catFR1	7	R1662S
1229.63	0.848	1281282	WORD_OFF	n/a	n/a	STREAM	Landscapes	2	12	[0, 0, 0]	n/a	catFR1	7	R1662S
1230.478	1.6	1282124	WORD	n/a	wordpools/wordpool_categorized_EN.txt	VELVET	Fabric	3	12	[0, 0, 0]	n/a	catFR1	7	R1662S
1232.078	0.868	1283727	WORD_OFF	n/a	n/a	VELVET	Fabric	3	12	[0, 0, 0]	n/a	catFR1	7	R1662S
1232.946	1.612	1284592	WORD	n/a	wordpools/wordpool_categorized_EN.txt	COTTON	Fabric	4	12	[0, 0, 0]	n/a	catFR1	7	R1662S
1234.558	0.945	1286207	WORD_OFF	n/a	n/a	COTTON	Fabric	4	12	[0, 0, 0]	n/a	catFR1	7	R1662S
1235.503	1.601	1287153	WORD	n/a	wordpools/wordpool_categorized_EN.txt	CEILING	Building	5	12	[0, 0, 0]	n/a	catFR1	7	R1662S
1237.104	0.817	1288756	WORD_OFF	n/a	n/a	CEILING	Building	5	12	[0, 0, 0]	n/a	catFR1	7	R1662S
1237.921	1.6	1289564	WORD	n/a	wordpools/wordpool_categorized_EN.txt	ROOM	Building	6	12	[0, 0, 0]	n/a	catFR1	7	R1662S
1239.521	0.933	1291167	WORD_OFF	n/a	n/a	ROOM	Building	6	12	[0, 0, 0]	n/a	catFR1	7	R1662S
1240.454	1.609	1292102	WORD	n/a	wordpools/wordpool_categorized_EN.txt	LAKE	Landscapes	7	12	[0, 0, 0]	n/a	catFR1	7	R1662S
1242.063	0.866	1293716	WORD_OFF	n/a	n/a	LAKE	Landscapes	7	12	[0, 0, 0]	n/a	catFR1	7	R1662S
1242.929	1.608	1294582	WORD	n/a	wordpools/wordpool_categorized_EN.txt	BEACH	Landscapes	8	12	[0, 0, 0]	n/a	catFR1	7	R1662S
1244.537	0.926	1296185	WORD_OFF	n/a	n/a	BEACH	Landscapes	8	12	[0, 0, 0]	n/a	catFR1	7	R1662S
1245.463	1.608	1297108	WORD	n/a	wordpools/wordpool_categorized_EN.txt	BATHROOM	Building	9	12	[0, 0, 0]	n/a	catFR1	7	R1662S
1247.071	0.808	1298723	WORD_OFF	n/a	n/a	BATHROOM	Building	9	12	[0, 0, 0]	n/a	catFR1	7	R1662S
1247.879	1.6	1299530	WORD	n/a	wordpools/wordpool_categorized_EN.txt	WALL	Building	10	12	[0, 0, 0]	n/a	catFR1	7	R1662S
1249.479	0.774	1301133	WORD_OFF	n/a	n/a	WALL	Building	10	12	[0, 0, 0]	n/a	catFR1	7	R1662S
1250.253	1.601	1301906	WORD	n/a	wordpools/wordpool_categorized_EN.txt	FLEECE	Fabric	11	12	[0, 0, 0]	n/a	catFR1	7	R1662S
1251.854	0.883	1303498	WORD_OFF	n/a	n/a	FLEECE	Fabric	11	12	[0, 0, 0]	n/a	catFR1	7	R1662S
1252.737	1.601	1304386	WORD	n/a	wordpools/wordpool_categorized_EN.txt	DENIM	Fabric	12	12	[0, 0, 0]	n/a	catFR1	7	R1662S
1254.338	0.004	1305982	PROB	0.004	n/a	n/a	n/a	-999	12	[5, 4, 8]	17	catFR1	7	R1662S
1254.342	0.0	1305986	START	n/a	n/a	n/a	n/a	-999	12	[-999, -999, -999]	n/a	catFR1	7	R1662S
1254.338	0.004	1305990	WORD_OFF	n/a	n/a	DENIM	Fabric	12	12	[0, 0, 0]	n/a	catFR1	7	R1662S
1254.342	0.0	1305990	ENCODING_END	n/a	n/a	n/a	n/a	-999	12	[0, 0, 0]	n/a	catFR1	7	R1662S
1254.342	4.929	1306001	DISTRACT_START	n/a	n/a	n/a	n/a	-999	12	[0, 0, 0]	n/a	catFR1	7	R1662S
1259.271	2.65	1310915	PROB	2.65	n/a	n/a	n/a	-999	12	[1, 4, 1]	6	catFR1	7	R1662S
1261.921	3.025	1313565	PROB	3.025	n/a	n/a	n/a	-999	12	[8, 5, 1]	14	catFR1	7	R1662S
1264.946	2.666	1316590	PROB	2.666	n/a	n/a	n/a	-999	12	[7, 7, 1]	15	catFR1	7	R1662S
1267.612	4.001	1319256	PROB	4.001	n/a	n/a	n/a	-999	12	[2, 4, 1]	7	catFR1	7	R1662S
1271.613	4.274	1323257	PROB	4.274	n/a	n/a	n/a	-999	12	[8, 6, 1]	15	catFR1	7	R1662S
1275.887	0.0	1327531	STOP	n/a	n/a	n/a	n/a	-999	12	[-999, -999, -999]	n/a	catFR1	7	R1662S
1275.887	2.267	1327537	DISTRACT_END	n/a	n/a	n/a	n/a	-999	12	[0, 0, 0]	n/a	catFR1	7	R1662S
1278.154	0.938	1329798	REC_START	n/a	n/a	n/a	n/a	-999	12	[0, 0, 0]	n/a	catFR1	7	R1662S
1279.092	0.611	1330736	REC_WORD	0.611	n/a	ISLAND	Landscapes	1	12	[0, 0, 0]	n/a	catFR1	7	R1662S
1279.703	1.789	1331347	REC_WORD	1.789	n/a	STREAM	Landscapes	2	12	[0, 0, 0]	n/a	catFR1	7	R1662S
1281.492	1.202	1333136	REC_WORD	1.202	n/a	FLEECE	Fabric	11	12	[0, 0, 0]	n/a	catFR1	7	R1662S
1282.694	3.37	1334338	REC_WORD	3.37	n/a	DENIM	Fabric	12	12	[0, 0, 0]	n/a	catFR1	7	R1662S
1286.064	1.466	1337708	REC_WORD	1.466	n/a	OCEAN	Landscapes	-999	12	[0, 0, 0]	n/a	catFR1	7	R1662S
1287.53	9.52	1339174	REC_WORD	9.52	n/a	LAKE	Landscapes	7	12	[0, 0, 0]	n/a	catFR1	7	R1662S
1297.05	11.246	1348694	REC_WORD_VV	11.246	n/a	<>	n/a	-999	12	[0, 0, 0]	n/a	catFR1	7	R1662S
1308.296	0.0	1359938	REC_END	n/a	n/a	n/a	n/a	-999	12	[0, 0, 0]	n/a	catFR1	7	R1662S
