onset	duration	sample	trial_type	response_time	stim_file	item_name	category	serialpos	list	test	answer	experiment	session	subject
0.0	0.0	5333	INSTRUCT_START	n/a	n/a	n/a	n/a	-999	-999	[0, 0, 0]	n/a	catFR1	0	R1187P
0.0	11.129	5333	INSTRUCT_END	n/a	n/a	n/a	n/a	-999	-999	[0, 0, 0]	n/a	catFR1	0	R1187P
11.129	0.0	16462	SESS_START	n/a	n/a	n/a	n/a	-999	-999	[0, 0, 0]	n/a	catFR1	0	R1187P
11.129	82.894	16462	MIC_TEST	n/a	n/a	n/a	n/a	-999	-999	[0, 0, 0]	n/a	catFR1	0	R1187P
94.023	5.097	99352	PRACTICE_TRIAL	n/a	n/a	n/a	n/a	-999	-1	[0, 0, 0]	n/a	catFR1	0	R1187P
99.12	10.428	104449	COUNTDOWN_START	n/a	n/a	n/a	n/a	-999	-1	[0, 0, 0]	n/a	catFR1	0	R1187P
109.548	0.008	114876	COUNTDOWN_END	n/a	n/a	n/a	n/a	-999	-1	[0, 0, 0]	n/a	catFR1	0	R1187P
109.556	1.615	114884	PRACTICE_ORIENT	n/a	n/a	n/a	n/a	-999	-1	[0, 0, 0]	n/a	catFR1	0	R1187P
111.171	2.001	116499	PRACTICE_ORIENT_OFF	n/a	n/a	n/a	n/a	-999	-1	[0, 0, 0]	n/a	catFR1	0	R1187P
113.172	1.618	118500	PRACTICE_WORD	n/a	n/a	TONGUE	n/a	-1	-1	[0, 0, 0]	n/a	catFR1	0	R1187P
114.79	0.983	120118	PRACTICE_WORD_OFF	n/a	n/a	TONGUE	n/a	-999	-1	[0, 0, 0]	n/a	catFR1	0	R1187P
115.773	1.617	121101	PRACTICE_WORD	n/a	n/a	IRON	n/a	-1	-1	[0, 0, 0]	n/a	catFR1	0	R1187P
117.39	0.883	122718	PRACTICE_WORD_OFF	n/a	n/a	IRON	n/a	-999	-1	[0, 0, 0]	n/a	catFR1	0	R1187P
118.273	1.617	123601	PRACTICE_WORD	n/a	n/a	WAGON	n/a	-1	-1	[0, 0, 0]	n/a	catFR1	0	R1187P
119.89	0.818	125218	PRACTICE_WORD_OFF	n/a	n/a	WAGON	n/a	-999	-1	[0, 0, 0]	n/a	catFR1	0	R1187P
120.708	1.616	126035	PRACTICE_WORD	n/a	n/a	CAMEL	n/a	-1	-1	[0, 0, 0]	n/a	catFR1	0	R1187P
122.324	1.0	127651	PRACTICE_WORD_OFF	n/a	n/a	CAMEL	n/a	-999	-1	[0, 0, 0]	n/a	catFR1	0	R1187P
123.324	1.617	128651	PRACTICE_WORD	n/a	n/a	RHINO	n/a	-1	-1	[0, 0, 0]	n/a	catFR1	0	R1187P
124.941	0.901	130268	PRACTICE_WORD_OFF	n/a	n/a	RHINO	n/a	-999	-1	[0, 0, 0]	n/a	catFR1	0	R1187P
125.842	1.617	131169	PRACTICE_WORD	n/a	n/a	WATCH	n/a	-1	-1	[0, 0, 0]	n/a	catFR1	0	R1187P
127.459	0.832	132786	PRACTICE_WORD_OFF	n/a	n/a	WATCH	n/a	-999	-1	[0, 0, 0]	n/a	catFR1	0	R1187P
128.291	1.617	133618	PRACTICE_WORD	n/a	n/a	ATTIC	n/a	-1	-1	[0, 0, 0]	n/a	catFR1	0	R1187P
129.908	0.835	135235	PRACTICE_WORD_OFF	n/a	n/a	ATTIC	n/a	-999	-1	[0, 0, 0]	n/a	catFR1	0	R1187P
130.743	1.616	136070	PRACTICE_WORD	n/a	n/a	FLOOD	n/a	-1	-1	[0, 0, 0]	n/a	catFR1	0	R1187P
132.359	0.883	137686	PRACTICE_WORD_OFF	n/a	n/a	FLOOD	n/a	-999	-1	[0, 0, 0]	n/a	catFR1	0	R1187P
133.242	1.618	138569	PRACTICE_WORD	n/a	n/a	BEAM	n/a	-1	-1	[0, 0, 0]	n/a	catFR1	0	R1187P
134.86	0.867	140187	PRACTICE_WORD_OFF	n/a	n/a	BEAM	n/a	-999	-1	[0, 0, 0]	n/a	catFR1	0	R1187P
135.727	1.616	141054	PRACTICE_WORD	n/a	n/a	RING	n/a	-1	-1	[0, 0, 0]	n/a	catFR1	0	R1187P
137.343	0.95	142670	PRACTICE_WORD_OFF	n/a	n/a	RING	n/a	-999	-1	[0, 0, 0]	n/a	catFR1	0	R1187P
138.293	1.617	143620	PRACTICE_WORD	n/a	n/a	CHEST	n/a	-1	-1	[0, 0, 0]	n/a	catFR1	0	R1187P
139.91	0.984	145237	PRACTICE_WORD_OFF	n/a	n/a	CHEST	n/a	-999	-1	[0, 0, 0]	n/a	catFR1	0	R1187P
140.894	1.618	146220	PRACTICE_WORD	n/a	n/a	COTTON	n/a	-1	-1	[0, 0, 0]	n/a	catFR1	0	R1187P
142.512	0.0	147838	DISTRACT_START	n/a	n/a	n/a	n/a	-999	-1	[0, 0, 0]	n/a	catFR1	0	R1187P
142.512	0.0	147838	ENCODING_END	n/a	n/a	n/a	n/a	-999	-1	[0, 0, 0]	n/a	catFR1	0	R1187P
142.512	0.0	147838	PRACTICE_WORD_OFF	n/a	n/a	COTTON	n/a	-999	-1	[0, 0, 0]	n/a	catFR1	0	R1187P
142.512	0.016	147838	START	n/a	n/a	n/a	n/a	-999	-1	[-999, -999, -999]	n/a	catFR1	0	R1187P
142.528	6.784	147854	PROB	6.755	n/a	n/a	n/a	-999	-1	[1, 6, 5]	12.0	catFR1	0	R1187P
149.312	13.087	154638	PROB	13.059	n/a	n/a	n/a	-999	-1	[5, 3, 7]	16.0	catFR1	0	R1187P
162.399	15.516	167724	PROB	15.516	n/a	n/a	n/a	-999	-1	[6, 3, 1]	10.0	catFR1	0	R1187P
177.915	0.019	183240	STOP	n/a	n/a	n/a	n/a	-999	-1	[-999, -999, -999]	n/a	catFR1	0	R1187P
177.934	0.634	183259	DISTRACT_END	n/a	n/a	n/a	n/a	-999	-1	[0, 0, 0]	n/a	catFR1	0	R1187P
178.568	0.52	183893	RETRIEVAL_ORIENT	n/a	n/a	n/a	n/a	-999	-1	[0, 0, 0]	n/a	catFR1	0	R1187P
179.088	30.008	184413	PRACTICE_REC_START	n/a	n/a	n/a	n/a	-999	-1	[0, 0, 0]	n/a	catFR1	0	R1187P
209.096	19.699	214419	PRACTICE_REC_END	n/a	n/a	n/a	n/a	-999	-1	[0, 0, 0]	n/a	catFR1	0	R1187P
228.795	0.5	234117	TRIAL	n/a	n/a	n/a	n/a	-999	1	[0, 0, 0]	n/a	catFR1	0	R1187P
229.295	10.428	234617	COUNTDOWN_START	n/a	n/a	n/a	n/a	-999	1	[0, 0, 0]	n/a	catFR1	0	R1187P
239.723	0.007	245045	COUNTDOWN_END	n/a	n/a	n/a	n/a	-999	1	[0, 0, 0]	n/a	catFR1	0	R1187P
239.73	1.616	245052	ORIENT	n/a	n/a	n/a	n/a	-999	1	[0, 0, 0]	n/a	catFR1	0	R1187P
241.346	2.0	246667	ORIENT_OFF	n/a	n/a	n/a	n/a	-999	1	[0, 0, 0]	n/a	catFR1	0	R1187P
243.346	1.617	248667	WORD	n/a	wordpools/wordpool_categorized_EN.txt	ANT	Insects	1	1	[0, 0, 0]	n/a	catFR1	0	R1187P
244.963	0.868	250284	WORD_OFF	n/a	n/a	ANT	n/a	1	1	[0, 0, 0]	n/a	catFR1	0	R1187P
245.831	1.617	251152	WORD	n/a	wordpools/wordpool_categorized_EN.txt	BUTTERFLY	Insects	2	1	[0, 0, 0]	n/a	catFR1	0	R1187P
247.448	0.849	252769	WORD_OFF	n/a	n/a	BUTTERFLY	n/a	2	1	[0, 0, 0]	n/a	catFR1	0	R1187P
248.297	1.617	253618	WORD	n/a	wordpools/wordpool_categorized_EN.txt	STAIRS	Building	3	1	[0, 0, 0]	n/a	catFR1	0	R1187P
249.914	0.768	255235	WORD_OFF	n/a	n/a	STAIRS	n/a	3	1	[0, 0, 0]	n/a	catFR1	0	R1187P
250.682	1.616	256003	WORD	n/a	wordpools/wordpool_categorized_EN.txt	FOUNDATION	Building	4	1	[0, 0, 0]	n/a	catFR1	0	R1187P
252.298	0.767	257619	WORD_OFF	n/a	n/a	FOUNDATION	n/a	4	1	[0, 0, 0]	n/a	catFR1	0	R1187P
253.065	1.618	258386	WORD	n/a	wordpools/wordpool_categorized_EN.txt	PEELER	KitchenTools	5	1	[0, 0, 0]	n/a	catFR1	0	R1187P
254.683	1.0	260004	WORD_OFF	n/a	n/a	PEELER	n/a	5	1	[0, 0, 0]	n/a	catFR1	0	R1187P
255.683	1.616	261004	WORD	n/a	wordpools/wordpool_categorized_EN.txt	SPOON	KitchenTools	6	1	[0, 0, 0]	n/a	catFR1	0	R1187P
257.299	0.817	262620	WORD_OFF	n/a	n/a	SPOON	n/a	6	1	[0, 0, 0]	n/a	catFR1	0	R1187P
258.116	1.618	263437	WORD	n/a	wordpools/wordpool_categorized_EN.txt	WALL	Building	7	1	[0, 0, 0]	n/a	catFR1	0	R1187P
259.734	0.983	265055	WORD_OFF	n/a	n/a	WALL	n/a	7	1	[0, 0, 0]	n/a	catFR1	0	R1187P
260.717	1.616	266037	WORD	n/a	wordpools/wordpool_categorized_EN.txt	HALLWAY	Building	8	1	[0, 0, 0]	n/a	catFR1	0	R1187P
262.333	0.784	267653	WORD_OFF	n/a	n/a	HALLWAY	n/a	8	1	[0, 0, 0]	n/a	catFR1	0	R1187P
263.117	1.601	268437	WORD	n/a	wordpools/wordpool_categorized_EN.txt	LADYBUG	Insects	9	1	[0, 0, 0]	n/a	catFR1	0	R1187P
264.718	0.934	270038	WORD_OFF	n/a	n/a	LADYBUG	n/a	9	1	[0, 0, 0]	n/a	catFR1	0	R1187P
265.652	1.616	270972	WORD	n/a	wordpools/wordpool_categorized_EN.txt	SPIDER	Insects	10	1	[0, 0, 0]	n/a	catFR1	0	R1187P
267.268	0.9	272588	WORD_OFF	n/a	n/a	SPIDER	n/a	10	1	[0, 0, 0]	n/a	catFR1	0	R1187P
268.168	1.601	273488	WORD	n/a	wordpools/wordpool_categorized_EN.txt	GRATER	KitchenTools	11	1	[0, 0, 0]	n/a	catFR1	0	R1187P
269.769	0.867	275089	WORD_OFF	n/a	n/a	GRATER	n/a	11	1	[0, 0, 0]	n/a	catFR1	0	R1187P
270.636	1.616	275956	WORD	n/a	wordpools/wordpool_categorized_EN.txt	CORKSCREW	KitchenTools	12	1	[0, 0, 0]	n/a	catFR1	0	R1187P
272.252	0.0	277572	ENCODING_END	n/a	n/a	n/a	n/a	-999	1	[0, 0, 0]	n/a	catFR1	0	R1187P
272.252	0.133	277572	WORD_OFF	n/a	n/a	CORKSCREW	n/a	12	1	[0, 0, 0]	n/a	catFR1	0	R1187P
272.385	0.001	277705	DISTRACT_START	n/a	n/a	n/a	n/a	-999	1	[0, 0, 0]	n/a	catFR1	0	R1187P
272.386	0.017	277706	START	n/a	n/a	n/a	n/a	-999	1	[-999, -999, -999]	n/a	catFR1	0	R1187P
272.403	6.65	277723	PROB	6.615	n/a	n/a	n/a	-999	1	[6, 5, 1]	12.0	catFR1	0	R1187P
279.053	9.386	284373	PROB	9.358	n/a	n/a	n/a	-999	1	[9, 9, 5]	23.0	catFR1	0	R1187P
288.439	5.627	293758	PROB	5.627	n/a	n/a	n/a	-999	1	[2, 3, 1]	6.0	catFR1	0	R1187P
294.066	0.007	299385	STOP	n/a	n/a	n/a	n/a	-999	1	[-999, -999, -999]	n/a	catFR1	0	R1187P
294.073	0.601	299392	DISTRACT_END	n/a	n/a	n/a	n/a	-999	1	[0, 0, 0]	n/a	catFR1	0	R1187P
294.674	0.516	299993	RETRIEVAL_ORIENT	n/a	n/a	n/a	n/a	-999	1	[0, 0, 0]	n/a	catFR1	0	R1187P
295.19	1.987	300509	REC_START	n/a	n/a	n/a	n/a	-999	1	[0, 0, 0]	n/a	catFR1	0	R1187P
297.177	0.841	302496	REC_WORD_VV	1.987	n/a	<>	n/a	-999	1	[0, 0, 0]	n/a	catFR1	0	R1187P
298.018	0.929	303337	REC_WORD	2.828	n/a	ANT	Insects	1	1	[0, 0, 0]	n/a	catFR1	0	R1187P
298.947	1.0	304266	REC_WORD	3.757	n/a	BUTTERFLY	Insects	2	1	[0, 0, 0]	n/a	catFR1	0	R1187P
299.947	0.209	305266	REC_WORD_VV	4.757	n/a	<>	n/a	-999	1	[0, 0, 0]	n/a	catFR1	0	R1187P
300.156	1.0	305475	REC_WORD	4.966	n/a	SPIDER	Insects	10	1	[0, 0, 0]	n/a	catFR1	0	R1187P
301.156	1.322	306474	REC_WORD_VV	5.966	n/a	<>	n/a	-999	1	[0, 0, 0]	n/a	catFR1	0	R1187P
302.478	2.617	307796	REC_WORD	7.288	n/a	HALLWAY	Building	8	1	[0, 0, 0]	n/a	catFR1	0	R1187P
305.095	20.107	310413	REC_WORD_VV	9.905	n/a	<>	n/a	-999	1	[0, 0, 0]	n/a	catFR1	0	R1187P
325.202	28.65	330519	REC_END	n/a	n/a	n/a	n/a	-999	1	[0, 0, 0]	n/a	catFR1	0	R1187P
353.852	0.5	359168	TRIAL	n/a	n/a	n/a	n/a	-999	2	[0, 0, 0]	n/a	catFR1	0	R1187P
354.352	10.428	359668	COUNTDOWN_START	n/a	n/a	n/a	n/a	-999	2	[0, 0, 0]	n/a	catFR1	0	R1187P
364.78	0.007	370095	COUNTDOWN_END	n/a	n/a	n/a	n/a	-999	2	[0, 0, 0]	n/a	catFR1	0	R1187P
364.787	1.617	370102	ORIENT	n/a	n/a	n/a	n/a	-999	2	[0, 0, 0]	n/a	catFR1	0	R1187P
366.404	1.932	371719	ORIENT_OFF	n/a	n/a	n/a	n/a	-999	2	[0, 0, 0]	n/a	catFR1	0	R1187P
368.336	1.601	373651	WORD	n/a	wordpools/wordpool_categorized_EN.txt	PHONE	Electronics	1	2	[0, 0, 0]	n/a	catFR1	0	R1187P
369.937	0.95	375252	WORD_OFF	n/a	n/a	PHONE	n/a	1	2	[0, 0, 0]	n/a	catFR1	0	R1187P
370.887	1.601	376202	WORD	n/a	wordpools/wordpool_categorized_EN.txt	SCANNER	Electronics	2	2	[0, 0, 0]	n/a	catFR1	0	R1187P
372.488	0.766	377803	WORD_OFF	n/a	n/a	SCANNER	n/a	2	2	[0, 0, 0]	n/a	catFR1	0	R1187P
373.254	1.618	378569	WORD	n/a	wordpools/wordpool_categorized_EN.txt	DESK	Furniture	3	2	[0, 0, 0]	n/a	catFR1	0	R1187P
374.872	0.967	380187	WORD_OFF	n/a	n/a	DESK	n/a	3	2	[0, 0, 0]	n/a	catFR1	0	R1187P
375.839	1.617	381154	WORD	n/a	wordpools/wordpool_categorized_EN.txt	RECLINER	Furniture	4	2	[0, 0, 0]	n/a	catFR1	0	R1187P
377.456	0.933	382771	WORD_OFF	n/a	n/a	RECLINER	n/a	4	2	[0, 0, 0]	n/a	catFR1	0	R1187P
378.389	1.616	383704	WORD	n/a	wordpools/wordpool_categorized_EN.txt	MOTH	Insects	5	2	[0, 0, 0]	n/a	catFR1	0	R1187P
380.005	0.835	385320	WORD_OFF	n/a	n/a	MOTH	n/a	5	2	[0, 0, 0]	n/a	catFR1	0	R1187P
380.84	1.617	386154	WORD	n/a	wordpools/wordpool_categorized_EN.txt	GNAT	Insects	6	2	[0, 0, 0]	n/a	catFR1	0	R1187P
382.457	0.882	387771	WORD_OFF	n/a	n/a	GNAT	n/a	6	2	[0, 0, 0]	n/a	catFR1	0	R1187P
383.339	1.617	388653	WORD	n/a	wordpools/wordpool_categorized_EN.txt	TELEVISION	Electronics	7	2	[0, 0, 0]	n/a	catFR1	0	R1187P
384.956	0.785	390270	WORD_OFF	n/a	n/a	TELEVISION	n/a	7	2	[0, 0, 0]	n/a	catFR1	0	R1187P
385.741	1.616	391055	WORD	n/a	wordpools/wordpool_categorized_EN.txt	TABLET	Electronics	8	2	[0, 0, 0]	n/a	catFR1	0	R1187P
387.357	0.817	392671	WORD_OFF	n/a	n/a	TABLET	n/a	8	2	[0, 0, 0]	n/a	catFR1	0	R1187P
388.174	1.618	393488	WORD	n/a	wordpools/wordpool_categorized_EN.txt	DRESSER	Furniture	9	2	[0, 0, 0]	n/a	catFR1	0	R1187P
389.792	0.883	395106	WORD_OFF	n/a	n/a	DRESSER	n/a	9	2	[0, 0, 0]	n/a	catFR1	0	R1187P
390.675	1.616	395989	WORD	n/a	wordpools/wordpool_categorized_EN.txt	SHELF	Furniture	10	2	[0, 0, 0]	n/a	catFR1	0	R1187P
392.291	1.017	397605	WORD_OFF	n/a	n/a	SHELF	n/a	10	2	[0, 0, 0]	n/a	catFR1	0	R1187P
393.308	1.617	398622	WORD	n/a	wordpools/wordpool_categorized_EN.txt	MOSQUITO	Insects	11	2	[0, 0, 0]	n/a	catFR1	0	R1187P
394.925	0.967	400239	WORD_OFF	n/a	n/a	MOSQUITO	n/a	11	2	[0, 0, 0]	n/a	catFR1	0	R1187P
395.892	1.618	401206	WORD	n/a	wordpools/wordpool_categorized_EN.txt	BEETLE	Insects	12	2	[0, 0, 0]	n/a	catFR1	0	R1187P
397.51	0.0	402824	ENCODING_END	n/a	n/a	n/a	n/a	-999	2	[0, 0, 0]	n/a	catFR1	0	R1187P
397.51	0.104	402824	WORD_OFF	n/a	n/a	BEETLE	n/a	12	2	[0, 0, 0]	n/a	catFR1	0	R1187P
397.614	0.0	402928	DISTRACT_START	n/a	n/a	n/a	n/a	-999	2	[0, 0, 0]	n/a	catFR1	0	R1187P
397.614	0.012	402928	START	n/a	n/a	n/a	n/a	-999	2	[-999, -999, -999]	n/a	catFR1	0	R1187P
397.626	10.518	402940	PROB	10.482	n/a	n/a	n/a	-999	2	[5, 2, 7]	14.0	catFR1	0	R1187P
408.144	8.152	413457	PROB	8.115	n/a	n/a	n/a	-999	2	[8, 8, 2]	18.0	catFR1	0	R1187P
416.296	10.443	421609	PROB	10.443	n/a	n/a	n/a	-999	2	[4, 7, 8]	19.0	catFR1	0	R1187P
426.739	0.01	432051	STOP	n/a	n/a	n/a	n/a	-999	2	[-999, -999, -999]	n/a	catFR1	0	R1187P
426.749	0.7	432061	DISTRACT_END	n/a	n/a	n/a	n/a	-999	2	[0, 0, 0]	n/a	catFR1	0	R1187P
427.449	0.516	432761	RETRIEVAL_ORIENT	n/a	n/a	n/a	n/a	-999	2	[0, 0, 0]	n/a	catFR1	0	R1187P
427.965	1.637	433277	REC_START	n/a	n/a	n/a	n/a	-999	2	[0, 0, 0]	n/a	catFR1	0	R1187P
429.602	1.0	434914	REC_WORD_VV	1.637	n/a	<>	n/a	-999	2	[0, 0, 0]	n/a	catFR1	0	R1187P
430.602	0.484	435914	REC_WORD_VV	2.637	n/a	<>	n/a	-999	2	[0, 0, 0]	n/a	catFR1	0	R1187P
431.086	0.508	436398	REC_WORD	3.121	n/a	BILL	n/a	-999	2	[0, 0, 0]	n/a	catFR1	0	R1187P
431.594	1.0	436906	REC_WORD	3.629	n/a	SPIDER	n/a	-999	2	[0, 0, 0]	n/a	catFR1	0	R1187P
432.594	0.814	437906	REC_WORD_VV	4.629	n/a	<>	n/a	-999	2	[0, 0, 0]	n/a	catFR1	0	R1187P
433.408	2.749	438720	REC_WORD	5.443	n/a	HALLWAY	n/a	-999	2	[0, 0, 0]	n/a	catFR1	0	R1187P
436.157	3.302	441469	REC_WORD_VV	8.192	n/a	<>	n/a	-999	2	[0, 0, 0]	n/a	catFR1	0	R1187P
439.459	0.185	444771	REC_WORD_VV	11.494	n/a	<>	n/a	-999	2	[0, 0, 0]	n/a	catFR1	0	R1187P
439.644	2.34	444956	REC_WORD	11.679	n/a	MOTH	Insects	5	2	[0, 0, 0]	n/a	catFR1	0	R1187P
441.984	1.777	447295	REC_WORD_VV	14.019	n/a	<>	n/a	-999	2	[0, 0, 0]	n/a	catFR1	0	R1187P
443.761	2.886	449072	REC_WORD	15.796	n/a	GNAT	Insects	6	2	[0, 0, 0]	n/a	catFR1	0	R1187P
446.647	11.33	451958	REC_WORD_VV	18.682	n/a	<>	n/a	-999	2	[0, 0, 0]	n/a	catFR1	0	R1187P
457.977	8.762	463288	REC_END	n/a	n/a	n/a	n/a	-999	2	[0, 0, 0]	n/a	catFR1	0	R1187P
466.739	0.5	472049	TRIAL	n/a	n/a	n/a	n/a	-999	3	[0, 0, 0]	n/a	catFR1	0	R1187P
467.239	10.428	472549	COUNTDOWN_START	n/a	n/a	n/a	n/a	-999	3	[0, 0, 0]	n/a	catFR1	0	R1187P
477.667	0.008	482977	COUNTDOWN_END	n/a	n/a	n/a	n/a	-999	3	[0, 0, 0]	n/a	catFR1	0	R1187P
477.675	1.616	482985	ORIENT	n/a	n/a	n/a	n/a	-999	3	[0, 0, 0]	n/a	catFR1	0	R1187P
479.291	2.017	484601	ORIENT_OFF	n/a	n/a	n/a	n/a	-999	3	[0, 0, 0]	n/a	catFR1	0	R1187P
481.308	1.617	486617	WORD	n/a	wordpools/wordpool_categorized_EN.txt	SKIRT	Clothing	1	3	[0, 0, 0]	n/a	catFR1	0	R1187P
482.925	0.818	488234	WORD_OFF	n/a	n/a	SKIRT	n/a	1	3	[0, 0, 0]	n/a	catFR1	0	R1187P
483.743	1.616	489052	WORD	n/a	wordpools/wordpool_categorized_EN.txt	UNDERWEAR	Clothing	2	3	[0, 0, 0]	n/a	catFR1	0	R1187P
485.359	0.783	490668	WORD_OFF	n/a	n/a	UNDERWEAR	n/a	2	3	[0, 0, 0]	n/a	catFR1	0	R1187P
486.142	1.601	491451	WORD	n/a	wordpools/wordpool_categorized_EN.txt	CHEETAH	Zoo	3	3	[0, 0, 0]	n/a	catFR1	0	R1187P
487.743	0.917	493052	WORD_OFF	n/a	n/a	CHEETAH	n/a	3	3	[0, 0, 0]	n/a	catFR1	0	R1187P
488.66	1.616	493969	WORD	n/a	wordpools/wordpool_categorized_EN.txt	TIGER	Zoo	4	3	[0, 0, 0]	n/a	catFR1	0	R1187P
490.276	0.8	495585	WORD_OFF	n/a	n/a	TIGER	n/a	4	3	[0, 0, 0]	n/a	catFR1	0	R1187P
491.076	1.618	496385	WORD	n/a	wordpools/wordpool_categorized_EN.txt	LEVEL	Tools	5	3	[0, 0, 0]	n/a	catFR1	0	R1187P
492.694	0.834	498003	WORD_OFF	n/a	n/a	LEVEL	n/a	5	3	[0, 0, 0]	n/a	catFR1	0	R1187P
493.528	1.616	498837	WORD	n/a	wordpools/wordpool_categorized_EN.txt	WRENCH	Tools	6	3	[0, 0, 0]	n/a	catFR1	0	R1187P
495.144	0.883	500453	WORD_OFF	n/a	n/a	WRENCH	n/a	6	3	[0, 0, 0]	n/a	catFR1	0	R1187P
496.027	1.618	501336	WORD	n/a	wordpools/wordpool_categorized_EN.txt	BEAR	Zoo	7	3	[0, 0, 0]	n/a	catFR1	0	R1187P
497.645	1.0	502954	WORD_OFF	n/a	n/a	BEAR	n/a	7	3	[0, 0, 0]	n/a	catFR1	0	R1187P
498.645	1.616	503954	WORD	n/a	wordpools/wordpool_categorized_EN.txt	ELEPHANT	Zoo	8	3	[0, 0, 0]	n/a	catFR1	0	R1187P
500.261	0.867	505570	WORD_OFF	n/a	n/a	ELEPHANT	n/a	8	3	[0, 0, 0]	n/a	catFR1	0	R1187P
501.128	1.618	506436	WORD	n/a	wordpools/wordpool_categorized_EN.txt	JEANS	Clothing	9	3	[0, 0, 0]	n/a	catFR1	0	R1187P
502.746	0.95	508054	WORD_OFF	n/a	n/a	JEANS	n/a	9	3	[0, 0, 0]	n/a	catFR1	0	R1187P
503.696	1.617	509004	WORD	n/a	wordpools/wordpool_categorized_EN.txt	COAT	Clothing	10	3	[0, 0, 0]	n/a	catFR1	0	R1187P
505.313	0.8	510621	WORD_OFF	n/a	n/a	COAT	n/a	10	3	[0, 0, 0]	n/a	catFR1	0	R1187P
506.113	1.618	511421	WORD	n/a	wordpools/wordpool_categorized_EN.txt	CROWBAR	Tools	11	3	[0, 0, 0]	n/a	catFR1	0	R1187P
507.731	0.933	513039	WORD_OFF	n/a	n/a	CROWBAR	n/a	11	3	[0, 0, 0]	n/a	catFR1	0	R1187P
508.664	1.616	513972	WORD	n/a	wordpools/wordpool_categorized_EN.txt	AXE	Tools	12	3	[0, 0, 0]	n/a	catFR1	0	R1187P
510.28	0.0	515588	ENCODING_END	n/a	n/a	n/a	n/a	-999	3	[0, 0, 0]	n/a	catFR1	0	R1187P
510.28	0.105	515588	WORD_OFF	n/a	n/a	AXE	n/a	12	3	[0, 0, 0]	n/a	catFR1	0	R1187P
510.385	0.0	515693	DISTRACT_START	n/a	n/a	n/a	n/a	-999	3	[0, 0, 0]	n/a	catFR1	0	R1187P
510.385	0.013	515693	START	n/a	n/a	n/a	n/a	-999	3	[-999, -999, -999]	n/a	catFR1	0	R1187P
510.398	8.001	515706	PROB	7.972	n/a	n/a	n/a	-999	3	[9, 9, 4]	22.0	catFR1	0	R1187P
518.399	7.751	523707	PROB	7.722	n/a	n/a	n/a	-999	3	[3, 2, 5]	10.0	catFR1	0	R1187P
526.15	11.653	531457	PROB	11.653	n/a	n/a	n/a	-999	3	[7, 4, 9]	19.0	catFR1	0	R1187P
537.803	0.017	543110	STOP	n/a	n/a	n/a	n/a	-999	3	[-999, -999, -999]	n/a	catFR1	0	R1187P
537.82	0.532	543127	DISTRACT_END	n/a	n/a	n/a	n/a	-999	3	[0, 0, 0]	n/a	catFR1	0	R1187P
538.352	0.518	543659	RETRIEVAL_ORIENT	n/a	n/a	n/a	n/a	-999	3	[0, 0, 0]	n/a	catFR1	0	R1187P
538.87	2.282	544177	REC_START	n/a	n/a	n/a	n/a	-999	3	[0, 0, 0]	n/a	catFR1	0	R1187P
541.152	0.497	546458	REC_WORD_VV	2.282	n/a	<>	n/a	-999	3	[0, 0, 0]	n/a	catFR1	0	R1187P
541.649	8.714	546955	REC_WORD_VV	2.779	n/a	<>	n/a	-999	3	[0, 0, 0]	n/a	catFR1	0	R1187P
550.363	2.16	555669	REC_WORD	11.493	n/a	BEAR	Zoo	7	3	[0, 0, 0]	n/a	catFR1	0	R1187P
552.523	2.087	557829	REC_WORD	13.653	n/a	ELEPHANT	Zoo	8	3	[0, 0, 0]	n/a	catFR1	0	R1187P
554.61	3.973	559916	REC_WORD	15.74	n/a	SPIDER	n/a	-999	3	[0, 0, 0]	n/a	catFR1	0	R1187P
558.583	4.892	563889	REC_WORD_VV	19.713	n/a	<>	n/a	-999	3	[0, 0, 0]	n/a	catFR1	0	R1187P
563.475	2.252	568780	REC_WORD	24.605	n/a	TIRE	n/a	-999	3	[0, 0, 0]	n/a	catFR1	0	R1187P
565.727	1.298	571032	REC_WORD_VV	26.857	n/a	<>	n/a	-999	3	[0, 0, 0]	n/a	catFR1	0	R1187P
567.025	1.856	572330	REC_WORD	28.155	n/a	HALLWAY	n/a	-999	3	[0, 0, 0]	n/a	catFR1	0	R1187P
568.881	7.462	574186	REC_END	n/a	n/a	n/a	n/a	-999	3	[0, 0, 0]	n/a	catFR1	0	R1187P
576.343	0.5	581648	TRIAL	n/a	n/a	n/a	n/a	-999	4	[0, 0, 0]	n/a	catFR1	0	R1187P
576.843	10.428	582148	COUNTDOWN_START	n/a	n/a	n/a	n/a	-999	4	[0, 0, 0]	n/a	catFR1	0	R1187P
587.271	0.007	592575	COUNTDOWN_END	n/a	n/a	n/a	n/a	-999	4	[0, 0, 0]	n/a	catFR1	0	R1187P
587.278	1.617	592582	ORIENT	n/a	n/a	n/a	n/a	-999	4	[0, 0, 0]	n/a	catFR1	0	R1187P
588.895	2.184	594199	ORIENT_OFF	n/a	n/a	n/a	n/a	-999	4	[0, 0, 0]	n/a	catFR1	0	R1187P
591.079	1.618	596383	WORD	n/a	wordpools/wordpool_categorized_EN.txt	WINDOW	Building	1	4	[0, 0, 0]	n/a	catFR1	0	R1187P
592.697	0.766	598001	WORD_OFF	n/a	n/a	WINDOW	n/a	1	4	[0, 0, 0]	n/a	catFR1	0	R1187P
593.463	1.616	598767	WORD	n/a	wordpools/wordpool_categorized_EN.txt	ROOF	Building	2	4	[0, 0, 0]	n/a	catFR1	0	R1187P
595.079	0.834	600383	WORD_OFF	n/a	n/a	ROOF	n/a	2	4	[0, 0, 0]	n/a	catFR1	0	R1187P
595.913	1.618	601217	WORD	n/a	wordpools/wordpool_categorized_EN.txt	GRAPE	Fruit	3	4	[0, 0, 0]	n/a	catFR1	0	R1187P
597.531	0.883	602835	WORD_OFF	n/a	n/a	GRAPE	n/a	3	4	[0, 0, 0]	n/a	catFR1	0	R1187P
598.414	1.616	603718	WORD	n/a	wordpools/wordpool_categorized_EN.txt	PEACH	Fruit	4	4	[0, 0, 0]	n/a	catFR1	0	R1187P
600.03	0.851	605334	WORD_OFF	n/a	n/a	PEACH	n/a	4	4	[0, 0, 0]	n/a	catFR1	0	R1187P
600.881	1.617	606184	WORD	n/a	wordpools/wordpool_categorized_EN.txt	ELBOW	BodyParts	5	4	[0, 0, 0]	n/a	catFR1	0	R1187P
602.498	0.967	607801	WORD_OFF	n/a	n/a	ELBOW	n/a	5	4	[0, 0, 0]	n/a	catFR1	0	R1187P
603.465	1.616	608768	WORD	n/a	wordpools/wordpool_categorized_EN.txt	NOSE	BodyParts	6	4	[0, 0, 0]	n/a	catFR1	0	R1187P
605.081	0.984	610384	WORD_OFF	n/a	n/a	NOSE	n/a	6	4	[0, 0, 0]	n/a	catFR1	0	R1187P
606.065	1.618	611368	WORD	n/a	wordpools/wordpool_categorized_EN.txt	BLUEBERRY	Fruit	7	4	[0, 0, 0]	n/a	catFR1	0	R1187P
607.683	0.967	612986	WORD_OFF	n/a	n/a	BLUEBERRY	n/a	7	4	[0, 0, 0]	n/a	catFR1	0	R1187P
608.65	1.616	613953	WORD	n/a	wordpools/wordpool_categorized_EN.txt	APPLE	Fruit	8	4	[0, 0, 0]	n/a	catFR1	0	R1187P
610.266	0.966	615569	WORD_OFF	n/a	n/a	APPLE	n/a	8	4	[0, 0, 0]	n/a	catFR1	0	R1187P
611.232	1.601	616535	WORD	n/a	wordpools/wordpool_categorized_EN.txt	DOOR	Building	9	4	[0, 0, 0]	n/a	catFR1	0	R1187P
612.833	0.801	618136	WORD_OFF	n/a	n/a	DOOR	n/a	9	4	[0, 0, 0]	n/a	catFR1	0	R1187P
613.634	1.616	618937	WORD	n/a	wordpools/wordpool_categorized_EN.txt	BATHROOM	Building	10	4	[0, 0, 0]	n/a	catFR1	0	R1187P
615.25	0.883	620553	WORD_OFF	n/a	n/a	BATHROOM	n/a	10	4	[0, 0, 0]	n/a	catFR1	0	R1187P
616.133	1.601	621436	WORD	n/a	wordpools/wordpool_categorized_EN.txt	LEG	BodyParts	11	4	[0, 0, 0]	n/a	catFR1	0	R1187P
617.734	0.8	623037	WORD_OFF	n/a	n/a	LEG	n/a	11	4	[0, 0, 0]	n/a	catFR1	0	R1187P
618.534	1.617	623837	WORD	n/a	wordpools/wordpool_categorized_EN.txt	FOOT	BodyParts	12	4	[0, 0, 0]	n/a	catFR1	0	R1187P
620.151	0.0	625454	ENCODING_END	n/a	n/a	n/a	n/a	-999	4	[0, 0, 0]	n/a	catFR1	0	R1187P
620.151	0.135	625454	WORD_OFF	n/a	n/a	FOOT	n/a	12	4	[0, 0, 0]	n/a	catFR1	0	R1187P
620.286	0.0	625589	DISTRACT_START	n/a	n/a	n/a	n/a	-999	4	[0, 0, 0]	n/a	catFR1	0	R1187P
620.286	0.015	625589	START	n/a	n/a	n/a	n/a	-999	4	[-999, -999, -999]	n/a	catFR1	0	R1187P
620.301	9.236	625604	PROB	9.206	n/a	n/a	n/a	-999	4	[4, 2, 3]	9.0	catFR1	0	R1187P
629.537	8.301	634839	PROB	8.275	n/a	n/a	n/a	-999	4	[3, 8, 7]	18.0	catFR1	0	R1187P
637.838	6.973	643140	PROB	6.973	n/a	n/a	n/a	-999	4	[7, 1, 9]	17.0	catFR1	0	R1187P
644.811	0.012	650112	STOP	n/a	n/a	n/a	n/a	-999	4	[-999, -999, -999]	n/a	catFR1	0	R1187P
644.823	0.516	650124	DISTRACT_END	n/a	n/a	n/a	n/a	-999	4	[0, 0, 0]	n/a	catFR1	0	R1187P
645.339	0.518	650640	RETRIEVAL_ORIENT	n/a	n/a	n/a	n/a	-999	4	[0, 0, 0]	n/a	catFR1	0	R1187P
645.857	1.556	651158	REC_START	n/a	n/a	n/a	n/a	-999	4	[0, 0, 0]	n/a	catFR1	0	R1187P
647.413	2.42	652714	REC_WORD_VV	1.556	n/a	<>	n/a	-999	4	[0, 0, 0]	n/a	catFR1	0	R1187P
649.833	1.46	655134	REC_WORD	3.976	n/a	AXE	n/a	-999	4	[0, 0, 0]	n/a	catFR1	0	R1187P
651.293	0.225	656594	REC_WORD_VV	5.436	n/a	<>	n/a	-999	4	[0, 0, 0]	n/a	catFR1	0	R1187P
651.518	2.171	656819	REC_WORD	5.661	n/a	BIKE	n/a	-999	4	[0, 0, 0]	n/a	catFR1	0	R1187P
653.689	1.198	658990	REC_WORD_VV	7.832	n/a	<>	n/a	-999	4	[0, 0, 0]	n/a	catFR1	0	R1187P
654.887	2.036	660188	REC_WORD	9.03	n/a	CHEETAH	n/a	-999	4	[0, 0, 0]	n/a	catFR1	0	R1187P
656.923	3.479	662224	REC_WORD_VV	11.066	n/a	<>	n/a	-999	4	[0, 0, 0]	n/a	catFR1	0	R1187P
660.402	1.175	665703	REC_WORD	14.545	n/a	APPLE	Fruit	8	4	[0, 0, 0]	n/a	catFR1	0	R1187P
661.577	2.153	666877	REC_WORD	15.72	n/a	BLUEBERRY	Fruit	7	4	[0, 0, 0]	n/a	catFR1	0	R1187P
663.73	5.577	669030	REC_WORD_VV	17.873	n/a	<>	n/a	-999	4	[0, 0, 0]	n/a	catFR1	0	R1187P
669.307	3.565	674607	REC_WORD	23.45	n/a	PEACH	Fruit	4	4	[0, 0, 0]	n/a	catFR1	0	R1187P
672.872	2.998	678172	REC_WORD_VV	27.015	n/a	<>	n/a	-999	4	[0, 0, 0]	n/a	catFR1	0	R1187P
675.87	10.994	681170	REC_END	n/a	n/a	n/a	n/a	-999	4	[0, 0, 0]	n/a	catFR1	0	R1187P
686.864	0.5	692163	TRIAL	n/a	n/a	n/a	n/a	-999	5	[0, 0, 0]	n/a	catFR1	0	R1187P
687.364	10.428	692663	COUNTDOWN_START	n/a	n/a	n/a	n/a	-999	5	[0, 0, 0]	n/a	catFR1	0	R1187P
697.792	0.008	703091	COUNTDOWN_END	n/a	n/a	n/a	n/a	-999	5	[0, 0, 0]	n/a	catFR1	0	R1187P
697.8	1.617	703099	ORIENT	n/a	n/a	n/a	n/a	-999	5	[0, 0, 0]	n/a	catFR1	0	R1187P
699.417	1.832	704716	ORIENT_OFF	n/a	n/a	n/a	n/a	-999	5	[0, 0, 0]	n/a	catFR1	0	R1187P
701.249	1.618	706547	WORD	n/a	wordpools/wordpool_categorized_EN.txt	VACUUM	Appliances	1	5	[0, 0, 0]	n/a	catFR1	0	R1187P
702.867	0.784	708165	WORD_OFF	n/a	n/a	VACUUM	n/a	1	5	[0, 0, 0]	n/a	catFR1	0	R1187P
703.651	1.616	708949	WORD	n/a	wordpools/wordpool_categorized_EN.txt	OVEN	Appliances	2	5	[0, 0, 0]	n/a	catFR1	0	R1187P
705.267	0.8	710565	WORD_OFF	n/a	n/a	OVEN	n/a	2	5	[0, 0, 0]	n/a	catFR1	0	R1187P
706.067	1.601	711365	WORD	n/a	wordpools/wordpool_categorized_EN.txt	SOCKS	Clothing	3	5	[0, 0, 0]	n/a	catFR1	0	R1187P
707.668	0.767	712966	WORD_OFF	n/a	n/a	SOCKS	n/a	3	5	[0, 0, 0]	n/a	catFR1	0	R1187P
708.435	1.616	713733	WORD	n/a	wordpools/wordpool_categorized_EN.txt	PANTS	Clothing	4	5	[0, 0, 0]	n/a	catFR1	0	R1187P
710.051	0.95	715349	WORD_OFF	n/a	n/a	PANTS	n/a	4	5	[0, 0, 0]	n/a	catFR1	0	R1187P
711.001	1.618	716299	WORD	n/a	wordpools/wordpool_categorized_EN.txt	ROOM	Building	5	5	[0, 0, 0]	n/a	catFR1	0	R1187P
712.619	0.917	717917	WORD_OFF	n/a	n/a	ROOM	n/a	5	5	[0, 0, 0]	n/a	catFR1	0	R1187P
713.536	1.616	718834	WORD	n/a	wordpools/wordpool_categorized_EN.txt	FLOOR	Building	6	5	[0, 0, 0]	n/a	catFR1	0	R1187P
715.152	0.967	720450	WORD_OFF	n/a	n/a	FLOOR	n/a	6	5	[0, 0, 0]	n/a	catFR1	0	R1187P
716.119	1.618	721417	WORD	n/a	wordpools/wordpool_categorized_EN.txt	SHIRT	Clothing	7	5	[0, 0, 0]	n/a	catFR1	0	R1187P
717.737	0.917	723035	WORD_OFF	n/a	n/a	SHIRT	n/a	7	5	[0, 0, 0]	n/a	catFR1	0	R1187P
718.654	1.616	723952	WORD	n/a	wordpools/wordpool_categorized_EN.txt	SHOES	Clothing	8	5	[0, 0, 0]	n/a	catFR1	0	R1187P
720.27	0.866	725568	WORD_OFF	n/a	n/a	SHOES	n/a	8	5	[0, 0, 0]	n/a	catFR1	0	R1187P
721.136	1.602	726433	WORD	n/a	wordpools/wordpool_categorized_EN.txt	REFRIGERATOR	Appliances	9	5	[0, 0, 0]	n/a	catFR1	0	R1187P
722.738	0.95	728035	WORD_OFF	n/a	n/a	REFRIGERATOR	n/a	9	5	[0, 0, 0]	n/a	catFR1	0	R1187P
723.688	1.616	728985	WORD	n/a	wordpools/wordpool_categorized_EN.txt	STOVE	Appliances	10	5	[0, 0, 0]	n/a	catFR1	0	R1187P
725.304	0.95	730601	WORD_OFF	n/a	n/a	STOVE	n/a	10	5	[0, 0, 0]	n/a	catFR1	0	R1187P
726.254	1.601	731551	WORD	n/a	wordpools/wordpool_categorized_EN.txt	ATTIC	Building	11	5	[0, 0, 0]	n/a	catFR1	0	R1187P
727.855	0.834	733152	WORD_OFF	n/a	n/a	ATTIC	n/a	11	5	[0, 0, 0]	n/a	catFR1	0	R1187P
728.689	1.616	733986	WORD	n/a	wordpools/wordpool_categorized_EN.txt	CEILING	Building	12	5	[0, 0, 0]	n/a	catFR1	0	R1187P
730.305	0.0	735602	WORD_OFF	n/a	n/a	CEILING	n/a	12	5	[0, 0, 0]	n/a	catFR1	0	R1187P
730.305	0.102	735602	ENCODING_END	n/a	n/a	n/a	n/a	-999	5	[0, 0, 0]	n/a	catFR1	0	R1187P
730.407	0.0	735704	DISTRACT_START	n/a	n/a	n/a	n/a	-999	5	[0, 0, 0]	n/a	catFR1	0	R1187P
730.407	0.015	735704	START	n/a	n/a	n/a	n/a	-999	5	[-999, -999, -999]	n/a	catFR1	0	R1187P
730.422	11.153	735719	PROB	11.126	n/a	n/a	n/a	-999	5	[8, 8, 7]	23.0	catFR1	0	R1187P
741.575	8.94	746871	PROB	8.94	n/a	n/a	n/a	-999	5	[6, 4, 8]	18.0	catFR1	0	R1187P
750.515	0.011	755811	STOP	n/a	n/a	n/a	n/a	-999	5	[-999, -999, -999]	n/a	catFR1	0	R1187P
750.526	0.683	755822	DISTRACT_END	n/a	n/a	n/a	n/a	-999	5	[0, 0, 0]	n/a	catFR1	0	R1187P
751.209	0.518	756505	RETRIEVAL_ORIENT	n/a	n/a	n/a	n/a	-999	5	[0, 0, 0]	n/a	catFR1	0	R1187P
751.727	1.538	757023	REC_START	n/a	n/a	n/a	n/a	-999	5	[0, 0, 0]	n/a	catFR1	0	R1187P
753.265	0.567	758561	REC_WORD_VV	1.538	n/a	<>	n/a	-999	5	[0, 0, 0]	n/a	catFR1	0	R1187P
753.832	4.754	759128	REC_WORD_VV	2.105	n/a	<>	n/a	-999	5	[0, 0, 0]	n/a	catFR1	0	R1187P
758.586	1.372	763882	REC_WORD	6.859	n/a	LEG	n/a	-999	5	[0, 0, 0]	n/a	catFR1	0	R1187P
759.958	3.256	765254	REC_WORD_VV	8.231	n/a	<>	n/a	-999	5	[0, 0, 0]	n/a	catFR1	0	R1187P
763.214	0.025	768509	REC_WORD_VV	11.487	n/a	<>	n/a	-999	5	[0, 0, 0]	n/a	catFR1	0	R1187P
763.239	2.025	768534	REC_WORD	11.512	n/a	FLOOR	Building	6	5	[0, 0, 0]	n/a	catFR1	0	R1187P
765.264	1.99	770559	REC_WORD	13.537	n/a	SOCKS	Clothing	3	5	[0, 0, 0]	n/a	catFR1	0	R1187P
767.254	2.475	772549	REC_WORD	15.527	n/a	SHOES	Clothing	8	5	[0, 0, 0]	n/a	catFR1	0	R1187P
769.729	5.101	775024	REC_WORD_VV	18.002	n/a	<>	n/a	-999	5	[0, 0, 0]	n/a	catFR1	0	R1187P
774.83	0.244	780125	REC_WORD_VV	23.103	n/a	<>	n/a	-999	5	[0, 0, 0]	n/a	catFR1	0	R1187P
775.074	1.532	780369	REC_WORD	23.347	n/a	STOVE	Appliances	10	5	[0, 0, 0]	n/a	catFR1	0	R1187P
776.606	2.364	781901	REC_WORD_VV	24.879	n/a	<>	n/a	-999	5	[0, 0, 0]	n/a	catFR1	0	R1187P
778.97	2.266	784265	REC_WORD	27.243	n/a	OVEN	Appliances	2	5	[0, 0, 0]	n/a	catFR1	0	R1187P
781.236	0.504	786530	REC_WORD_VV	29.509	n/a	<>	n/a	-999	5	[0, 0, 0]	n/a	catFR1	0	R1187P
781.74	7.293	787034	REC_END	n/a	n/a	n/a	n/a	-999	5	[0, 0, 0]	n/a	catFR1	0	R1187P
789.033	0.5	794327	TRIAL	n/a	n/a	n/a	n/a	-999	6	[0, 0, 0]	n/a	catFR1	0	R1187P
789.533	10.428	794827	COUNTDOWN_START	n/a	n/a	n/a	n/a	-999	6	[0, 0, 0]	n/a	catFR1	0	R1187P
799.961	0.007	805255	COUNTDOWN_END	n/a	n/a	n/a	n/a	-999	6	[0, 0, 0]	n/a	catFR1	0	R1187P
799.968	1.618	805262	ORIENT	n/a	n/a	n/a	n/a	-999	6	[0, 0, 0]	n/a	catFR1	0	R1187P
801.586	2.267	806879	ORIENT_OFF	n/a	n/a	n/a	n/a	-999	6	[0, 0, 0]	n/a	catFR1	0	R1187P
803.853	1.617	809146	WORD	n/a	wordpools/wordpool_categorized_EN.txt	STAPLER	OfficeSupplies	1	6	[0, 0, 0]	n/a	catFR1	0	R1187P
805.47	0.782	810763	WORD_OFF	n/a	n/a	STAPLER	n/a	1	6	[0, 0, 0]	n/a	catFR1	0	R1187P
806.252	1.601	811545	WORD	n/a	wordpools/wordpool_categorized_EN.txt	PAPER	OfficeSupplies	2	6	[0, 0, 0]	n/a	catFR1	0	R1187P
807.853	0.934	813146	WORD_OFF	n/a	n/a	PAPER	n/a	2	6	[0, 0, 0]	n/a	catFR1	0	R1187P
808.787	1.617	814080	WORD	n/a	wordpools/wordpool_categorized_EN.txt	BULL	FarmAnimals	3	6	[0, 0, 0]	n/a	catFR1	0	R1187P
810.404	1.017	815697	WORD_OFF	n/a	n/a	BULL	n/a	3	6	[0, 0, 0]	n/a	catFR1	0	R1187P
811.421	1.616	816714	WORD	n/a	wordpools/wordpool_categorized_EN.txt	SHEEP	FarmAnimals	4	6	[0, 0, 0]	n/a	catFR1	0	R1187P
813.037	0.884	818330	WORD_OFF	n/a	n/a	SHEEP	n/a	4	6	[0, 0, 0]	n/a	catFR1	0	R1187P
813.921	1.618	819214	WORD	n/a	wordpools/wordpool_categorized_EN.txt	RIVER	Landscapes	5	6	[0, 0, 0]	n/a	catFR1	0	R1187P
815.539	0.933	820832	WORD_OFF	n/a	n/a	RIVER	n/a	5	6	[0, 0, 0]	n/a	catFR1	0	R1187P
816.472	1.616	821765	WORD	n/a	wordpools/wordpool_categorized_EN.txt	BEACH	Landscapes	6	6	[0, 0, 0]	n/a	catFR1	0	R1187P
818.088	0.85	823381	WORD_OFF	n/a	n/a	BEACH	n/a	6	6	[0, 0, 0]	n/a	catFR1	0	R1187P
818.938	1.618	824231	WORD	n/a	wordpools/wordpool_categorized_EN.txt	BINDER	OfficeSupplies	7	6	[0, 0, 0]	n/a	catFR1	0	R1187P
820.556	0.95	825849	WORD_OFF	n/a	n/a	BINDER	n/a	7	6	[0, 0, 0]	n/a	catFR1	0	R1187P
821.506	1.616	826798	WORD	n/a	wordpools/wordpool_categorized_EN.txt	PEN	OfficeSupplies	8	6	[0, 0, 0]	n/a	catFR1	0	R1187P
823.122	0.867	828414	WORD_OFF	n/a	n/a	PEN	n/a	8	6	[0, 0, 0]	n/a	catFR1	0	R1187P
823.989	1.601	829281	WORD	n/a	wordpools/wordpool_categorized_EN.txt	LAMB	FarmAnimals	9	6	[0, 0, 0]	n/a	catFR1	0	R1187P
825.59	0.834	830882	WORD_OFF	n/a	n/a	LAMB	n/a	9	6	[0, 0, 0]	n/a	catFR1	0	R1187P
826.424	1.616	831716	WORD	n/a	wordpools/wordpool_categorized_EN.txt	HEN	FarmAnimals	10	6	[0, 0, 0]	n/a	catFR1	0	R1187P
828.04	0.801	833332	WORD_OFF	n/a	n/a	HEN	n/a	10	6	[0, 0, 0]	n/a	catFR1	0	R1187P
828.841	1.617	834133	WORD	n/a	wordpools/wordpool_categorized_EN.txt	OCEAN	Landscapes	11	6	[0, 0, 0]	n/a	catFR1	0	R1187P
830.458	0.833	835750	WORD_OFF	n/a	n/a	OCEAN	n/a	11	6	[0, 0, 0]	n/a	catFR1	0	R1187P
831.291	1.616	836583	WORD	n/a	wordpools/wordpool_categorized_EN.txt	MOUNTAIN	Landscapes	12	6	[0, 0, 0]	n/a	catFR1	0	R1187P
832.907	0.001	838199	WORD_OFF	n/a	n/a	MOUNTAIN	n/a	12	6	[0, 0, 0]	n/a	catFR1	0	R1187P
832.908	0.135	838200	ENCODING_END	n/a	n/a	n/a	n/a	-999	6	[0, 0, 0]	n/a	catFR1	0	R1187P
833.043	0.0	838335	DISTRACT_START	n/a	n/a	n/a	n/a	-999	6	[0, 0, 0]	n/a	catFR1	0	R1187P
833.043	0.015	838335	START	n/a	n/a	n/a	n/a	-999	6	[-999, -999, -999]	n/a	catFR1	0	R1187P
833.058	7.552	838350	PROB	7.521	n/a	n/a	n/a	-999	6	[7, 3, 5]	15.0	catFR1	0	R1187P
840.61	6.251	845902	PROB	6.225	n/a	n/a	n/a	-999	6	[9, 1, 4]	14.0	catFR1	0	R1187P
846.861	6.43	852152	PROB	6.43	n/a	n/a	n/a	-999	6	[6, 1, 5]	12.0	catFR1	0	R1187P
853.291	0.021	858582	STOP	n/a	n/a	n/a	n/a	-999	6	[-999, -999, -999]	n/a	catFR1	0	R1187P
853.312	0.55	858603	DISTRACT_END	n/a	n/a	n/a	n/a	-999	6	[0, 0, 0]	n/a	catFR1	0	R1187P
853.862	0.517	859153	RETRIEVAL_ORIENT	n/a	n/a	n/a	n/a	-999	6	[0, 0, 0]	n/a	catFR1	0	R1187P
854.379	1.689	859670	REC_START	n/a	n/a	n/a	n/a	-999	6	[0, 0, 0]	n/a	catFR1	0	R1187P
856.068	0.984	861359	REC_WORD	1.689	n/a	OCEAN	Landscapes	11	6	[0, 0, 0]	n/a	catFR1	0	R1187P
857.052	2.048	862343	REC_WORD	2.673	n/a	MOUNTAIN	Landscapes	12	6	[0, 0, 0]	n/a	catFR1	0	R1187P
859.1	6.894	864391	REC_WORD_VV	4.721	n/a	<>	n/a	-999	6	[0, 0, 0]	n/a	catFR1	0	R1187P
865.994	3.016	871284	REC_WORD	11.615	n/a	HEN	FarmAnimals	10	6	[0, 0, 0]	n/a	catFR1	0	R1187P
869.01	5.316	874300	REC_WORD_VV	14.631	n/a	<>	n/a	-999	6	[0, 0, 0]	n/a	catFR1	0	R1187P
874.326	1.0	879616	REC_WORD_VV	19.947	n/a	<>	n/a	-999	6	[0, 0, 0]	n/a	catFR1	0	R1187P
875.326	4.461	880616	REC_WORD_VV	20.947	n/a	<>	n/a	-999	6	[0, 0, 0]	n/a	catFR1	0	R1187P
879.787	1.598	885077	REC_WORD_VV	25.408	n/a	<>	n/a	-999	6	[0, 0, 0]	n/a	catFR1	0	R1187P
881.385	3.005	886674	REC_WORD_VV	27.006	n/a	<>	n/a	-999	6	[0, 0, 0]	n/a	catFR1	0	R1187P
884.39	30.783	889679	REC_END	n/a	n/a	n/a	n/a	-999	6	[0, 0, 0]	n/a	catFR1	0	R1187P
915.173	0.5	920461	TRIAL	n/a	n/a	n/a	n/a	-999	7	[0, 0, 0]	n/a	catFR1	0	R1187P
915.673	10.428	920961	COUNTDOWN_START	n/a	n/a	n/a	n/a	-999	7	[0, 0, 0]	n/a	catFR1	0	R1187P
926.101	0.007	931388	COUNTDOWN_END	n/a	n/a	n/a	n/a	-999	7	[0, 0, 0]	n/a	catFR1	0	R1187P
926.108	1.618	931395	ORIENT	n/a	n/a	n/a	n/a	-999	7	[0, 0, 0]	n/a	catFR1	0	R1187P
927.726	1.951	933013	ORIENT_OFF	n/a	n/a	n/a	n/a	-999	7	[0, 0, 0]	n/a	catFR1	0	R1187P
929.677	1.616	934964	WORD	n/a	wordpools/wordpool_categorized_EN.txt	VIOLET	Flowers	1	7	[0, 0, 0]	n/a	catFR1	0	R1187P
931.293	0.867	936580	WORD_OFF	n/a	n/a	VIOLET	n/a	1	7	[0, 0, 0]	n/a	catFR1	0	R1187P
932.16	1.617	937447	WORD	n/a	wordpools/wordpool_categorized_EN.txt	SUNFLOWER	Flowers	2	7	[0, 0, 0]	n/a	catFR1	0	R1187P
933.777	0.834	939064	WORD_OFF	n/a	n/a	SUNFLOWER	n/a	2	7	[0, 0, 0]	n/a	catFR1	0	R1187P
934.611	1.616	939898	WORD	n/a	wordpools/wordpool_categorized_EN.txt	BED	Furniture	3	7	[0, 0, 0]	n/a	catFR1	0	R1187P
936.227	0.834	941514	WORD_OFF	n/a	n/a	BED	n/a	3	7	[0, 0, 0]	n/a	catFR1	0	R1187P
937.061	1.617	942348	WORD	n/a	wordpools/wordpool_categorized_EN.txt	NIGHTSTAND	Furniture	4	7	[0, 0, 0]	n/a	catFR1	0	R1187P
938.678	0.817	943965	WORD_OFF	n/a	n/a	NIGHTSTAND	n/a	4	7	[0, 0, 0]	n/a	catFR1	0	R1187P
939.495	1.616	944782	WORD	n/a	wordpools/wordpool_categorized_EN.txt	CREEK	Landscapes	5	7	[0, 0, 0]	n/a	catFR1	0	R1187P
941.111	0.884	946398	WORD_OFF	n/a	n/a	CREEK	n/a	5	7	[0, 0, 0]	n/a	catFR1	0	R1187P
941.995	1.618	947281	WORD	n/a	wordpools/wordpool_categorized_EN.txt	VALLEY	Landscapes	6	7	[0, 0, 0]	n/a	catFR1	0	R1187P
943.613	0.95	948899	WORD_OFF	n/a	n/a	VALLEY	n/a	6	7	[0, 0, 0]	n/a	catFR1	0	R1187P
944.563	1.616	949849	WORD	n/a	wordpools/wordpool_categorized_EN.txt	PETUNIA	Flowers	7	7	[0, 0, 0]	n/a	catFR1	0	R1187P
946.179	0.933	951465	WORD_OFF	n/a	n/a	PETUNIA	n/a	7	7	[0, 0, 0]	n/a	catFR1	0	R1187P
947.112	1.601	952398	WORD	n/a	wordpools/wordpool_categorized_EN.txt	CARNATION	Flowers	8	7	[0, 0, 0]	n/a	catFR1	0	R1187P
948.713	0.967	953999	WORD_OFF	n/a	n/a	CARNATION	n/a	8	7	[0, 0, 0]	n/a	catFR1	0	R1187P
949.68	1.616	954966	WORD	n/a	wordpools/wordpool_categorized_EN.txt	SOFA	Furniture	9	7	[0, 0, 0]	n/a	catFR1	0	R1187P
951.296	0.984	956582	WORD_OFF	n/a	n/a	SOFA	n/a	9	7	[0, 0, 0]	n/a	catFR1	0	R1187P
952.28	1.6	957566	WORD	n/a	wordpools/wordpool_categorized_EN.txt	CABINET	Furniture	10	7	[0, 0, 0]	n/a	catFR1	0	R1187P
953.88	1.001	959166	WORD_OFF	n/a	n/a	CABINET	n/a	10	7	[0, 0, 0]	n/a	catFR1	0	R1187P
954.881	1.617	960167	WORD	n/a	wordpools/wordpool_categorized_EN.txt	WOODS	Landscapes	11	7	[0, 0, 0]	n/a	catFR1	0	R1187P
956.498	0.85	961784	WORD_OFF	n/a	n/a	WOODS	n/a	11	7	[0, 0, 0]	n/a	catFR1	0	R1187P
957.348	1.617	962634	WORD	n/a	wordpools/wordpool_categorized_EN.txt	ISLAND	Landscapes	12	7	[0, 0, 0]	n/a	catFR1	0	R1187P
958.965	0.0	964251	ENCODING_END	n/a	n/a	n/a	n/a	-999	7	[0, 0, 0]	n/a	catFR1	0	R1187P
958.965	0.127	964251	WORD_OFF	n/a	n/a	ISLAND	n/a	12	7	[0, 0, 0]	n/a	catFR1	0	R1187P
959.092	0.001	964378	DISTRACT_START	n/a	n/a	n/a	n/a	-999	7	[0, 0, 0]	n/a	catFR1	0	R1187P
959.093	0.022	964379	START	n/a	n/a	n/a	n/a	-999	7	[-999, -999, -999]	n/a	catFR1	0	R1187P
959.115	19.983	964401	PROB	19.983	n/a	n/a	n/a	-999	7	[1, 8, 9]	18.0	catFR1	0	R1187P
979.098	0.021	984383	STOP	n/a	n/a	n/a	n/a	-999	7	[-999, -999, -999]	n/a	catFR1	0	R1187P
979.119	0.517	984404	DISTRACT_END	n/a	n/a	n/a	n/a	-999	7	[0, 0, 0]	n/a	catFR1	0	R1187P
979.636	0.516	984921	RETRIEVAL_ORIENT	n/a	n/a	n/a	n/a	-999	7	[0, 0, 0]	n/a	catFR1	0	R1187P
980.152	1.754	985437	REC_START	n/a	n/a	n/a	n/a	-999	7	[0, 0, 0]	n/a	catFR1	0	R1187P
981.906	1.966	987190	REC_WORD_VV	1.754	n/a	<>	n/a	-999	7	[0, 0, 0]	n/a	catFR1	0	R1187P
983.872	1.968	989156	REC_WORD	3.72	n/a	CABIN	n/a	-999	7	[0, 0, 0]	n/a	catFR1	0	R1187P
985.84	1.362	991124	REC_WORD	5.688	n/a	MOUNTAIN	n/a	-999	7	[0, 0, 0]	n/a	catFR1	0	R1187P
987.202	1.815	992486	REC_WORD	7.05	n/a	WOODS	Landscapes	11	7	[0, 0, 0]	n/a	catFR1	0	R1187P
989.017	0.396	994301	REC_WORD_VV	8.865	n/a	<>	n/a	-999	7	[0, 0, 0]	n/a	catFR1	0	R1187P
989.413	1.438	994697	REC_WORD	9.261	n/a	PETUNIA	Flowers	7	7	[0, 0, 0]	n/a	catFR1	0	R1187P
990.851	0.496	996135	REC_WORD_VV	10.699	n/a	<>	n/a	-999	7	[0, 0, 0]	n/a	catFR1	0	R1187P
991.347	1.0	996631	REC_WORD	11.195	n/a	CARNATION	Flowers	8	7	[0, 0, 0]	n/a	catFR1	0	R1187P
992.347	1.514	997631	REC_WORD_VV	12.195	n/a	<>	n/a	-999	7	[0, 0, 0]	n/a	catFR1	0	R1187P
993.861	1.176	999145	REC_WORD	13.709	n/a	BED	Furniture	3	7	[0, 0, 0]	n/a	catFR1	0	R1187P
995.037	4.594	1000321	REC_WORD_VV	14.885	n/a	<>	n/a	-999	7	[0, 0, 0]	n/a	catFR1	0	R1187P
999.631	1.0	1004915	REC_WORD_VV	19.479	n/a	<>	n/a	-999	7	[0, 0, 0]	n/a	catFR1	0	R1187P
1000.631	2.767	1005915	REC_WORD_VV	20.479	n/a	<>	n/a	-999	7	[0, 0, 0]	n/a	catFR1	0	R1187P
1003.398	6.584	1008681	REC_WORD_VV	23.246	n/a	<>	n/a	-999	7	[0, 0, 0]	n/a	catFR1	0	R1187P
1009.982	0.183	1015265	REC_WORD_VV	29.83	n/a	<>	n/a	-999	7	[0, 0, 0]	n/a	catFR1	0	R1187P
1010.165	21.913	1015448	REC_END	n/a	n/a	n/a	n/a	-999	7	[0, 0, 0]	n/a	catFR1	0	R1187P
1032.078	0.5	1037360	TRIAL	n/a	n/a	n/a	n/a	-999	8	[0, 0, 0]	n/a	catFR1	0	R1187P
1032.578	10.428	1037860	COUNTDOWN_START	n/a	n/a	n/a	n/a	-999	8	[0, 0, 0]	n/a	catFR1	0	R1187P
1043.006	0.008	1048287	COUNTDOWN_END	n/a	n/a	n/a	n/a	-999	8	[0, 0, 0]	n/a	catFR1	0	R1187P
1043.014	1.618	1048295	ORIENT	n/a	n/a	n/a	n/a	-999	8	[0, 0, 0]	n/a	catFR1	0	R1187P
1044.632	2.083	1049913	ORIENT_OFF	n/a	n/a	n/a	n/a	-999	8	[0, 0, 0]	n/a	catFR1	0	R1187P
1046.715	1.616	1051996	WORD	n/a	wordpools/wordpool_categorized_EN.txt	BLOUSE	Clothing	1	8	[0, 0, 0]	n/a	catFR1	0	R1187P
1048.331	0.784	1053612	WORD_OFF	n/a	n/a	BLOUSE	n/a	1	8	[0, 0, 0]	n/a	catFR1	0	R1187P
1049.115	1.618	1054396	WORD	n/a	wordpools/wordpool_categorized_EN.txt	SHORTS	Clothing	2	8	[0, 0, 0]	n/a	catFR1	0	R1187P
1050.733	0.95	1056014	WORD_OFF	n/a	n/a	SHORTS	n/a	2	8	[0, 0, 0]	n/a	catFR1	0	R1187P
1051.683	1.616	1056964	WORD	n/a	wordpools/wordpool_categorized_EN.txt	TRUMPET	Instruments	3	8	[0, 0, 0]	n/a	catFR1	0	R1187P
1053.299	0.8	1058580	WORD_OFF	n/a	n/a	TRUMPET	n/a	3	8	[0, 0, 0]	n/a	catFR1	0	R1187P
1054.099	1.618	1059380	WORD	n/a	wordpools/wordpool_categorized_EN.txt	PIANO	Instruments	4	8	[0, 0, 0]	n/a	catFR1	0	R1187P
1055.717	0.817	1060998	WORD_OFF	n/a	n/a	PIANO	n/a	4	8	[0, 0, 0]	n/a	catFR1	0	R1187P
1056.534	1.616	1061815	WORD	n/a	wordpools/wordpool_categorized_EN.txt	FINGERS	BodyParts	5	8	[0, 0, 0]	n/a	catFR1	0	R1187P
1058.15	0.95	1063431	WORD_OFF	n/a	n/a	FINGERS	n/a	5	8	[0, 0, 0]	n/a	catFR1	0	R1187P
1059.1	1.618	1064381	WORD	n/a	wordpools/wordpool_categorized_EN.txt	KNEE	BodyParts	6	8	[0, 0, 0]	n/a	catFR1	0	R1187P
1060.718	0.784	1065999	WORD_OFF	n/a	n/a	KNEE	n/a	6	8	[0, 0, 0]	n/a	catFR1	0	R1187P
1061.502	1.616	1066783	WORD	n/a	wordpools/wordpool_categorized_EN.txt	JACKET	Clothing	7	8	[0, 0, 0]	n/a	catFR1	0	R1187P
1063.118	0.883	1068398	WORD_OFF	n/a	n/a	JACKET	n/a	7	8	[0, 0, 0]	n/a	catFR1	0	R1187P
1064.001	1.618	1069281	WORD	n/a	wordpools/wordpool_categorized_EN.txt	DRESS	Clothing	8	8	[0, 0, 0]	n/a	catFR1	0	R1187P
1065.619	0.784	1070899	WORD_OFF	n/a	n/a	DRESS	n/a	8	8	[0, 0, 0]	n/a	catFR1	0	R1187P
1066.403	1.615	1071683	WORD	n/a	wordpools/wordpool_categorized_EN.txt	GUITAR	Instruments	9	8	[0, 0, 0]	n/a	catFR1	0	R1187P
1068.018	0.967	1073298	WORD_OFF	n/a	n/a	GUITAR	n/a	9	8	[0, 0, 0]	n/a	catFR1	0	R1187P
1068.985	1.601	1074265	WORD	n/a	wordpools/wordpool_categorized_EN.txt	FLUTE	Instruments	10	8	[0, 0, 0]	n/a	catFR1	0	R1187P
1070.586	0.901	1075866	WORD_OFF	n/a	n/a	FLUTE	n/a	10	8	[0, 0, 0]	n/a	catFR1	0	R1187P
1071.487	1.616	1076767	WORD	n/a	wordpools/wordpool_categorized_EN.txt	EAR	BodyParts	11	8	[0, 0, 0]	n/a	catFR1	0	R1187P
1073.103	0.768	1078383	WORD_OFF	n/a	n/a	EAR	n/a	11	8	[0, 0, 0]	n/a	catFR1	0	R1187P
1073.871	1.617	1079151	WORD	n/a	wordpools/wordpool_categorized_EN.txt	TOE	BodyParts	12	8	[0, 0, 0]	n/a	catFR1	0	R1187P
1075.488	0.0	1080768	ENCODING_END	n/a	n/a	n/a	n/a	-999	8	[0, 0, 0]	n/a	catFR1	0	R1187P
1075.488	0.105	1080768	WORD_OFF	n/a	n/a	TOE	n/a	12	8	[0, 0, 0]	n/a	catFR1	0	R1187P
1075.593	0.0	1080873	DISTRACT_START	n/a	n/a	n/a	n/a	-999	8	[0, 0, 0]	n/a	catFR1	0	R1187P
1075.593	0.011	1080873	START	n/a	n/a	n/a	n/a	-999	8	[-999, -999, -999]	n/a	catFR1	0	R1187P
1075.604	6.835	1080884	PROB	6.8	n/a	n/a	n/a	-999	8	[7, 2, 2]	11.0	catFR1	0	R1187P
1082.439	8.401	1087718	PROB	8.364	n/a	n/a	n/a	-999	8	[9, 8, 1]	19.0	catFR1	0	R1187P
1090.84	5.458	1096119	PROB	5.458	n/a	n/a	n/a	-999	8	[6, 6, 6]	24.0	catFR1	0	R1187P
1096.298	0.009	1101577	STOP	n/a	n/a	n/a	n/a	-999	8	[-999, -999, -999]	n/a	catFR1	0	R1187P
1096.307	0.634	1101586	DISTRACT_END	n/a	n/a	n/a	n/a	-999	8	[0, 0, 0]	n/a	catFR1	0	R1187P
1096.941	0.518	1102220	RETRIEVAL_ORIENT	n/a	n/a	n/a	n/a	-999	8	[0, 0, 0]	n/a	catFR1	0	R1187P
1097.459	1.481	1102738	REC_START	n/a	n/a	n/a	n/a	-999	8	[0, 0, 0]	n/a	catFR1	0	R1187P
1098.94	1.0	1104219	REC_WORD_VV	1.481	n/a	<>	n/a	-999	8	[0, 0, 0]	n/a	catFR1	0	R1187P
1099.94	1.0	1105219	REC_WORD_VV	2.481	n/a	<>	n/a	-999	8	[0, 0, 0]	n/a	catFR1	0	R1187P
1100.94	0.376	1106219	REC_WORD_VV	3.481	n/a	<>	n/a	-999	8	[0, 0, 0]	n/a	catFR1	0	R1187P
1101.316	1.833	1106595	REC_WORD	3.857	n/a	DRESS	Clothing	8	8	[0, 0, 0]	n/a	catFR1	0	R1187P
1103.149	1.0	1108427	REC_WORD	5.69	n/a	BLOUSE	Clothing	1	8	[0, 0, 0]	n/a	catFR1	0	R1187P
1104.149	0.415	1109427	REC_WORD_VV	6.69	n/a	<>	n/a	-999	8	[0, 0, 0]	n/a	catFR1	0	R1187P
1104.564	0.776	1109842	REC_WORD_VV	7.105	n/a	<>	n/a	-999	8	[0, 0, 0]	n/a	catFR1	0	R1187P
1105.34	1.0	1110618	REC_WORD	7.881	n/a	FLUTE	Instruments	10	8	[0, 0, 0]	n/a	catFR1	0	R1187P
1106.34	0.7	1111618	REC_WORD_VV	8.881	n/a	<>	n/a	-999	8	[0, 0, 0]	n/a	catFR1	0	R1187P
1107.04	2.063	1112318	REC_WORD	9.581	n/a	GUITAR	Instruments	9	8	[0, 0, 0]	n/a	catFR1	0	R1187P
1109.103	5.421	1114381	REC_WORD_VV	11.644	n/a	<>	n/a	-999	8	[0, 0, 0]	n/a	catFR1	0	R1187P
1114.524	1.036	1119802	REC_WORD	17.065	n/a	EAR	BodyParts	11	8	[0, 0, 0]	n/a	catFR1	0	R1187P
1115.56	6.633	1120838	REC_WORD_VV	18.101	n/a	<>	n/a	-999	8	[0, 0, 0]	n/a	catFR1	0	R1187P
1122.193	1.375	1127470	REC_WORD_VV	24.734	n/a	<>	n/a	-999	8	[0, 0, 0]	n/a	catFR1	0	R1187P
1123.568	3.903	1128845	REC_WORD_VV	26.109	n/a	<>	n/a	-999	8	[0, 0, 0]	n/a	catFR1	0	R1187P
1127.471	10.777	1132748	REC_END	n/a	n/a	n/a	n/a	-999	8	[0, 0, 0]	n/a	catFR1	0	R1187P
1138.248	0.5	1143525	TRIAL	n/a	n/a	n/a	n/a	-999	9	[0, 0, 0]	n/a	catFR1	0	R1187P
1138.748	10.428	1144025	COUNTDOWN_START	n/a	n/a	n/a	n/a	-999	9	[0, 0, 0]	n/a	catFR1	0	R1187P
1149.176	0.008	1154452	COUNTDOWN_END	n/a	n/a	n/a	n/a	-999	9	[0, 0, 0]	n/a	catFR1	0	R1187P
1149.184	1.618	1154460	ORIENT	n/a	n/a	n/a	n/a	-999	9	[0, 0, 0]	n/a	catFR1	0	R1187P
1150.802	2.316	1156078	ORIENT_OFF	n/a	n/a	n/a	n/a	-999	9	[0, 0, 0]	n/a	catFR1	0	R1187P
1153.118	1.618	1158394	WORD	n/a	wordpools/wordpool_categorized_EN.txt	GOAT	FarmAnimals	1	9	[0, 0, 0]	n/a	catFR1	0	R1187P
1154.736	0.867	1160012	WORD_OFF	n/a	n/a	GOAT	n/a	1	9	[0, 0, 0]	n/a	catFR1	0	R1187P
1155.603	1.616	1160879	WORD	n/a	wordpools/wordpool_categorized_EN.txt	HORSE	FarmAnimals	2	9	[0, 0, 0]	n/a	catFR1	0	R1187P
1157.219	0.833	1162495	WORD_OFF	n/a	n/a	HORSE	n/a	2	9	[0, 0, 0]	n/a	catFR1	0	R1187P
1158.052	1.618	1163328	WORD	n/a	wordpools/wordpool_categorized_EN.txt	BLUEBIRD	Birds	3	9	[0, 0, 0]	n/a	catFR1	0	R1187P
1159.67	0.817	1164946	WORD_OFF	n/a	n/a	BLUEBIRD	n/a	3	9	[0, 0, 0]	n/a	catFR1	0	R1187P
1160.487	1.616	1165763	WORD	n/a	wordpools/wordpool_categorized_EN.txt	FINCH	Birds	4	9	[0, 0, 0]	n/a	catFR1	0	R1187P
1162.103	0.95	1167378	WORD_OFF	n/a	n/a	FINCH	n/a	4	9	[0, 0, 0]	n/a	catFR1	0	R1187P
1163.053	1.618	1168328	WORD	n/a	wordpools/wordpool_categorized_EN.txt	CALCULATOR	Electronics	5	9	[0, 0, 0]	n/a	catFR1	0	R1187P
1164.671	0.833	1169946	WORD_OFF	n/a	n/a	CALCULATOR	n/a	5	9	[0, 0, 0]	n/a	catFR1	0	R1187P
1165.504	1.616	1170779	WORD	n/a	wordpools/wordpool_categorized_EN.txt	HEADPHONES	Electronics	6	9	[0, 0, 0]	n/a	catFR1	0	R1187P
1167.12	0.967	1172395	WORD_OFF	n/a	n/a	HEADPHONES	n/a	6	9	[0, 0, 0]	n/a	catFR1	0	R1187P
1168.087	1.601	1173362	WORD	n/a	wordpools/wordpool_categorized_EN.txt	COW	FarmAnimals	7	9	[0, 0, 0]	n/a	catFR1	0	R1187P
1169.688	0.934	1174963	WORD_OFF	n/a	n/a	COW	n/a	7	9	[0, 0, 0]	n/a	catFR1	0	R1187P
1170.622	1.616	1175897	WORD	n/a	wordpools/wordpool_categorized_EN.txt	CALF	FarmAnimals	8	9	[0, 0, 0]	n/a	catFR1	0	R1187P
1172.238	0.784	1177513	WORD_OFF	n/a	n/a	CALF	n/a	8	9	[0, 0, 0]	n/a	catFR1	0	R1187P
1173.022	1.618	1178297	WORD	n/a	wordpools/wordpool_categorized_EN.txt	DUCK	Birds	9	9	[0, 0, 0]	n/a	catFR1	0	R1187P
1174.64	0.866	1179915	WORD_OFF	n/a	n/a	DUCK	n/a	9	9	[0, 0, 0]	n/a	catFR1	0	R1187P
1175.506	1.616	1180781	WORD	n/a	wordpools/wordpool_categorized_EN.txt	DOVE	Birds	10	9	[0, 0, 0]	n/a	catFR1	0	R1187P
1177.122	0.901	1182397	WORD_OFF	n/a	n/a	DOVE	n/a	10	9	[0, 0, 0]	n/a	catFR1	0	R1187P
1178.023	1.618	1183298	WORD	n/a	wordpools/wordpool_categorized_EN.txt	RADIO	Electronics	11	9	[0, 0, 0]	n/a	catFR1	0	R1187P
1179.641	0.966	1184916	WORD_OFF	n/a	n/a	RADIO	n/a	11	9	[0, 0, 0]	n/a	catFR1	0	R1187P
1180.607	1.616	1185882	WORD	n/a	wordpools/wordpool_categorized_EN.txt	SPEAKER	Electronics	12	9	[0, 0, 0]	n/a	catFR1	0	R1187P
1182.223	0.001	1187497	WORD_OFF	n/a	n/a	SPEAKER	n/a	12	9	[0, 0, 0]	n/a	catFR1	0	R1187P
1182.224	0.138	1187498	ENCODING_END	n/a	n/a	n/a	n/a	-999	9	[0, 0, 0]	n/a	catFR1	0	R1187P
1182.362	0.0	1187636	DISTRACT_START	n/a	n/a	n/a	n/a	-999	9	[0, 0, 0]	n/a	catFR1	0	R1187P
1182.362	0.011	1187636	START	n/a	n/a	n/a	n/a	-999	9	[-999, -999, -999]	n/a	catFR1	0	R1187P
1182.373	9.652	1187647	PROB	9.614	n/a	n/a	n/a	-999	9	[6, 2, 5]	13.0	catFR1	0	R1187P
1192.025	12.049	1197299	PROB	12.049	n/a	n/a	n/a	-999	9	[7, 9, 7]	23.0	catFR1	0	R1187P
1204.074	0.02	1209347	STOP	n/a	n/a	n/a	n/a	-999	9	[-999, -999, -999]	n/a	catFR1	0	R1187P
1204.094	0.651	1209367	DISTRACT_END	n/a	n/a	n/a	n/a	-999	9	[0, 0, 0]	n/a	catFR1	0	R1187P
1204.745	0.517	1210018	RETRIEVAL_ORIENT	n/a	n/a	n/a	n/a	-999	9	[0, 0, 0]	n/a	catFR1	0	R1187P
1205.262	1.613	1210535	REC_START	n/a	n/a	n/a	n/a	-999	9	[0, 0, 0]	n/a	catFR1	0	R1187P
1206.875	0.67	1212148	REC_WORD_VV	1.613	n/a	<>	n/a	-999	9	[0, 0, 0]	n/a	catFR1	0	R1187P
1207.545	0.956	1212818	REC_WORD_VV	2.283	n/a	<>	n/a	-999	9	[0, 0, 0]	n/a	catFR1	0	R1187P
1208.501	0.978	1213774	REC_WORD	3.239	n/a	OWL	n/a	-999	9	[0, 0, 0]	n/a	catFR1	0	R1187P
1209.479	0.149	1214752	REC_WORD_VV	4.217	n/a	<>	n/a	-999	9	[0, 0, 0]	n/a	catFR1	0	R1187P
1209.628	2.138	1214901	REC_WORD	4.366	n/a	FINCH	Birds	4	9	[0, 0, 0]	n/a	catFR1	0	R1187P
1211.766	1.744	1217039	REC_WORD_VV	6.504	n/a	<>	n/a	-999	9	[0, 0, 0]	n/a	catFR1	0	R1187P
1213.51	0.531	1218783	REC_WORD_VV	8.248	n/a	<>	n/a	-999	9	[0, 0, 0]	n/a	catFR1	0	R1187P
1214.041	1.836	1219314	REC_WORD	8.779	n/a	DUCK	Birds	9	9	[0, 0, 0]	n/a	catFR1	0	R1187P
1215.877	1.037	1221150	REC_WORD_VV	10.615	n/a	<>	n/a	-999	9	[0, 0, 0]	n/a	catFR1	0	R1187P
1216.914	0.16	1222187	REC_WORD_VV	11.652	n/a	<>	n/a	-999	9	[0, 0, 0]	n/a	catFR1	0	R1187P
1217.074	1.95	1222347	REC_WORD	11.812	n/a	COW	FarmAnimals	7	9	[0, 0, 0]	n/a	catFR1	0	R1187P
1219.024	0.685	1224297	REC_WORD_VV	13.762	n/a	<>	n/a	-999	9	[0, 0, 0]	n/a	catFR1	0	R1187P
1219.709	1.559	1224982	REC_WORD	14.447	n/a	BLUEJAY	n/a	-999	9	[0, 0, 0]	n/a	catFR1	0	R1187P
1221.268	3.898	1226541	REC_WORD_VV	16.006	n/a	<>	n/a	-999	9	[0, 0, 0]	n/a	catFR1	0	R1187P
1225.166	6.269	1230438	REC_WORD_VV	19.904	n/a	<>	n/a	-999	9	[0, 0, 0]	n/a	catFR1	0	R1187P
1231.435	3.84	1236707	REC_WORD_VV	26.173	n/a	<>	n/a	-999	9	[0, 0, 0]	n/a	catFR1	0	R1187P
1235.275	8.71	1240547	REC_END	n/a	n/a	n/a	n/a	-999	9	[0, 0, 0]	n/a	catFR1	0	R1187P
1243.985	0.5	1249256	TRIAL	n/a	n/a	n/a	n/a	-999	10	[0, 0, 0]	n/a	catFR1	0	R1187P
1244.485	10.428	1249756	COUNTDOWN_START	n/a	n/a	n/a	n/a	-999	10	[0, 0, 0]	n/a	catFR1	0	R1187P
1254.913	0.007	1260184	COUNTDOWN_END	n/a	n/a	n/a	n/a	-999	10	[0, 0, 0]	n/a	catFR1	0	R1187P
1254.92	1.601	1260191	ORIENT	n/a	n/a	n/a	n/a	-999	10	[0, 0, 0]	n/a	catFR1	0	R1187P
1256.521	2.084	1261792	ORIENT_OFF	n/a	n/a	n/a	n/a	-999	10	[0, 0, 0]	n/a	catFR1	0	R1187P
1258.605	1.616	1263876	WORD	n/a	wordpools/wordpool_categorized_EN.txt	ORANGUTAN	Zoo	1	10	[0, 0, 0]	n/a	catFR1	0	R1187P
1260.221	0.884	1265492	WORD_OFF	n/a	n/a	ORANGUTAN	n/a	1	10	[0, 0, 0]	n/a	catFR1	0	R1187P
1261.105	1.618	1266376	WORD	n/a	wordpools/wordpool_categorized_EN.txt	CHIMPANZEE	Zoo	2	10	[0, 0, 0]	n/a	catFR1	0	R1187P
1262.723	0.883	1267993	WORD_OFF	n/a	n/a	CHIMPANZEE	n/a	2	10	[0, 0, 0]	n/a	catFR1	0	R1187P
1263.606	1.616	1268876	WORD	n/a	wordpools/wordpool_categorized_EN.txt	CAULIFLOWER	Vegetables	3	10	[0, 0, 0]	n/a	catFR1	0	R1187P
1265.222	0.917	1270492	WORD_OFF	n/a	n/a	CAULIFLOWER	n/a	3	10	[0, 0, 0]	n/a	catFR1	0	R1187P
1266.139	1.618	1271409	WORD	n/a	wordpools/wordpool_categorized_EN.txt	CABBAGE	Vegetables	4	10	[0, 0, 0]	n/a	catFR1	0	R1187P
1267.757	0.884	1273027	WORD_OFF	n/a	n/a	CABBAGE	n/a	4	10	[0, 0, 0]	n/a	catFR1	0	R1187P
1268.641	1.616	1273911	WORD	n/a	wordpools/wordpool_categorized_EN.txt	THUNDER	Weather	5	10	[0, 0, 0]	n/a	catFR1	0	R1187P
1270.257	0.833	1275527	WORD_OFF	n/a	n/a	THUNDER	n/a	5	10	[0, 0, 0]	n/a	catFR1	0	R1187P
1271.09	1.618	1276360	WORD	n/a	wordpools/wordpool_categorized_EN.txt	HURRICANE	Weather	6	10	[0, 0, 0]	n/a	catFR1	0	R1187P
1272.708	0.8	1277978	WORD_OFF	n/a	n/a	HURRICANE	n/a	6	10	[0, 0, 0]	n/a	catFR1	0	R1187P
1273.508	1.616	1278778	WORD	n/a	wordpools/wordpool_categorized_EN.txt	ONION	Vegetables	7	10	[0, 0, 0]	n/a	catFR1	0	R1187P
1275.124	0.934	1280394	WORD_OFF	n/a	n/a	ONION	n/a	7	10	[0, 0, 0]	n/a	catFR1	0	R1187P
1276.058	1.618	1281328	WORD	n/a	wordpools/wordpool_categorized_EN.txt	CUCUMBER	Vegetables	8	10	[0, 0, 0]	n/a	catFR1	0	R1187P
1277.676	1.017	1282946	WORD_OFF	n/a	n/a	CUCUMBER	n/a	8	10	[0, 0, 0]	n/a	catFR1	0	R1187P
1278.693	1.615	1283963	WORD	n/a	wordpools/wordpool_categorized_EN.txt	LION	Zoo	9	10	[0, 0, 0]	n/a	catFR1	0	R1187P
1280.308	0.867	1285578	WORD_OFF	n/a	n/a	LION	n/a	9	10	[0, 0, 0]	n/a	catFR1	0	R1187P
1281.175	1.618	1286445	WORD	n/a	wordpools/wordpool_categorized_EN.txt	MONKEY	Zoo	10	10	[0, 0, 0]	n/a	catFR1	0	R1187P
1282.793	0.95	1288062	WORD_OFF	n/a	n/a	MONKEY	n/a	10	10	[0, 0, 0]	n/a	catFR1	0	R1187P
1283.743	1.616	1289012	WORD	n/a	wordpools/wordpool_categorized_EN.txt	CLOUD	Weather	11	10	[0, 0, 0]	n/a	catFR1	0	R1187P
1285.359	0.834	1290628	WORD_OFF	n/a	n/a	CLOUD	n/a	11	10	[0, 0, 0]	n/a	catFR1	0	R1187P
1286.193	1.618	1291462	WORD	n/a	wordpools/wordpool_categorized_EN.txt	SNOW	Weather	12	10	[0, 0, 0]	n/a	catFR1	0	R1187P
1287.811	0.0	1293080	ENCODING_END	n/a	n/a	n/a	n/a	-999	10	[0, 0, 0]	n/a	catFR1	0	R1187P
1287.811	0.104	1293080	WORD_OFF	n/a	n/a	SNOW	n/a	12	10	[0, 0, 0]	n/a	catFR1	0	R1187P
1287.915	0.0	1293184	DISTRACT_START	n/a	n/a	n/a	n/a	-999	10	[0, 0, 0]	n/a	catFR1	0	R1187P
1287.915	0.012	1293184	START	n/a	n/a	n/a	n/a	-999	10	[-999, -999, -999]	n/a	catFR1	0	R1187P
1287.927	19.504	1293196	PROB	19.469	n/a	n/a	n/a	-999	10	[2, 9, 7]	19.0	catFR1	0	R1187P
1307.431	7.973	1312699	PROB	7.973	n/a	n/a	n/a	-999	10	[1, 6, 2]	9.0	catFR1	0	R1187P
1315.404	0.012	1320672	STOP	n/a	n/a	n/a	n/a	-999	10	[-999, -999, -999]	n/a	catFR1	0	R1187P
1315.416	0.583	1320684	DISTRACT_END	n/a	n/a	n/a	n/a	-999	10	[0, 0, 0]	n/a	catFR1	0	R1187P
1315.999	0.518	1321267	RETRIEVAL_ORIENT	n/a	n/a	n/a	n/a	-999	10	[0, 0, 0]	n/a	catFR1	0	R1187P
1316.517	2.329	1321785	REC_START	n/a	n/a	n/a	n/a	-999	10	[0, 0, 0]	n/a	catFR1	0	R1187P
1318.846	0.589	1324114	REC_WORD_VV	2.329	n/a	<>	n/a	-999	10	[0, 0, 0]	n/a	catFR1	0	R1187P
1319.435	2.534	1324703	REC_WORD_VV	2.918	n/a	<>	n/a	-999	10	[0, 0, 0]	n/a	catFR1	0	R1187P
1321.969	0.587	1327237	REC_WORD_VV	5.452	n/a	<>	n/a	-999	10	[0, 0, 0]	n/a	catFR1	0	R1187P
1322.556	1.858	1327823	REC_WORD	6.039	n/a	ORANGUTAN	Zoo	1	10	[0, 0, 0]	n/a	catFR1	0	R1187P
1324.414	1.114	1329681	REC_WORD	7.897	n/a	THUNDER	Weather	5	10	[0, 0, 0]	n/a	catFR1	0	R1187P
1325.528	4.297	1330795	REC_WORD_VV	9.011	n/a	<>	n/a	-999	10	[0, 0, 0]	n/a	catFR1	0	R1187P
1329.825	0.19	1335092	REC_WORD_VV	13.308	n/a	<>	n/a	-999	10	[0, 0, 0]	n/a	catFR1	0	R1187P
1330.015	1.933	1335282	REC_WORD	13.498	n/a	LION	Zoo	9	10	[0, 0, 0]	n/a	catFR1	0	R1187P
1331.948	7.972	1337215	REC_WORD_VV	15.431	n/a	<>	n/a	-999	10	[0, 0, 0]	n/a	catFR1	0	R1187P
1339.92	5.954	1345187	REC_WORD_VV	23.403	n/a	<>	n/a	-999	10	[0, 0, 0]	n/a	catFR1	0	R1187P
1345.874	0.653	1351140	REC_WORD	29.357	n/a	GOAT	n/a	-999	10	[0, 0, 0]	n/a	catFR1	0	R1187P
1346.527	8.362	1351793	REC_END	n/a	n/a	n/a	n/a	-999	10	[0, 0, 0]	n/a	catFR1	0	R1187P
1354.889	0.5	1360155	TRIAL	n/a	n/a	n/a	n/a	-999	11	[0, 0, 0]	n/a	catFR1	0	R1187P
1355.389	10.428	1360655	COUNTDOWN_START	n/a	n/a	n/a	n/a	-999	11	[0, 0, 0]	n/a	catFR1	0	R1187P
1365.817	0.009	1371082	COUNTDOWN_END	n/a	n/a	n/a	n/a	-999	11	[0, 0, 0]	n/a	catFR1	0	R1187P
1365.826	1.617	1371091	ORIENT	n/a	n/a	n/a	n/a	-999	11	[0, 0, 0]	n/a	catFR1	0	R1187P
1367.443	1.932	1372708	ORIENT_OFF	n/a	n/a	n/a	n/a	-999	11	[0, 0, 0]	n/a	catFR1	0	R1187P
1369.375	1.617	1374640	WORD	n/a	wordpools/wordpool_categorized_EN.txt	BLENDER	Appliances	1	11	[0, 0, 0]	n/a	catFR1	0	R1187P
1370.992	0.917	1376257	WORD_OFF	n/a	n/a	BLENDER	n/a	1	11	[0, 0, 0]	n/a	catFR1	0	R1187P
1371.909	1.618	1377174	WORD	n/a	wordpools/wordpool_categorized_EN.txt	WASHER	Appliances	2	11	[0, 0, 0]	n/a	catFR1	0	R1187P
1373.527	0.783	1378792	WORD_OFF	n/a	n/a	WASHER	n/a	2	11	[0, 0, 0]	n/a	catFR1	0	R1187P
1374.31	1.617	1379575	WORD	n/a	wordpools/wordpool_categorized_EN.txt	SCREWDRIVER	Tools	3	11	[0, 0, 0]	n/a	catFR1	0	R1187P
1375.927	0.784	1381192	WORD_OFF	n/a	n/a	SCREWDRIVER	n/a	3	11	[0, 0, 0]	n/a	catFR1	0	R1187P
1376.711	1.616	1381976	WORD	n/a	wordpools/wordpool_categorized_EN.txt	SHOVEL	Tools	4	11	[0, 0, 0]	n/a	catFR1	0	R1187P
1378.327	0.934	1383592	WORD_OFF	n/a	n/a	SHOVEL	n/a	4	11	[0, 0, 0]	n/a	catFR1	0	R1187P
1379.261	1.617	1384526	WORD	n/a	wordpools/wordpool_categorized_EN.txt	EYE	BodyParts	5	11	[0, 0, 0]	n/a	catFR1	0	R1187P
1380.878	0.834	1386143	WORD_OFF	n/a	n/a	EYE	n/a	5	11	[0, 0, 0]	n/a	catFR1	0	R1187P
1381.712	1.616	1386977	WORD	n/a	wordpools/wordpool_categorized_EN.txt	ARM	BodyParts	6	11	[0, 0, 0]	n/a	catFR1	0	R1187P
1383.328	0.95	1388592	WORD_OFF	n/a	n/a	ARM	n/a	6	11	[0, 0, 0]	n/a	catFR1	0	R1187P
1384.278	1.601	1389542	WORD	n/a	wordpools/wordpool_categorized_EN.txt	FREEZER	Appliances	7	11	[0, 0, 0]	n/a	catFR1	0	R1187P
1385.879	0.884	1391143	WORD_OFF	n/a	n/a	FREEZER	n/a	7	11	[0, 0, 0]	n/a	catFR1	0	R1187P
1386.763	1.616	1392027	WORD	n/a	wordpools/wordpool_categorized_EN.txt	DISHWASHER	Appliances	8	11	[0, 0, 0]	n/a	catFR1	0	R1187P
1388.379	0.983	1393643	WORD_OFF	n/a	n/a	DISHWASHER	n/a	8	11	[0, 0, 0]	n/a	catFR1	0	R1187P
1389.362	1.617	1394626	WORD	n/a	wordpools/wordpool_categorized_EN.txt	SAW	Tools	9	11	[0, 0, 0]	n/a	catFR1	0	R1187P
1390.979	0.984	1396243	WORD_OFF	n/a	n/a	SAW	n/a	9	11	[0, 0, 0]	n/a	catFR1	0	R1187P
1391.963	1.618	1397227	WORD	n/a	wordpools/wordpool_categorized_EN.txt	DRILL	Tools	10	11	[0, 0, 0]	n/a	catFR1	0	R1187P
1393.581	0.867	1398845	WORD_OFF	n/a	n/a	DRILL	n/a	10	11	[0, 0, 0]	n/a	catFR1	0	R1187P
1394.448	1.616	1399712	WORD	n/a	wordpools/wordpool_categorized_EN.txt	HAND	BodyParts	11	11	[0, 0, 0]	n/a	catFR1	0	R1187P
1396.064	0.933	1401328	WORD_OFF	n/a	n/a	HAND	n/a	11	11	[0, 0, 0]	n/a	catFR1	0	R1187P
1396.997	1.618	1402261	WORD	n/a	wordpools/wordpool_categorized_EN.txt	HEAD	BodyParts	12	11	[0, 0, 0]	n/a	catFR1	0	R1187P
1398.615	0.0	1403879	ENCODING_END	n/a	n/a	n/a	n/a	-999	11	[0, 0, 0]	n/a	catFR1	0	R1187P
1398.615	0.102	1403879	WORD_OFF	n/a	n/a	HEAD	n/a	12	11	[0, 0, 0]	n/a	catFR1	0	R1187P
1398.717	0.0	1403981	DISTRACT_START	n/a	n/a	n/a	n/a	-999	11	[0, 0, 0]	n/a	catFR1	0	R1187P
1398.717	0.015	1403981	START	n/a	n/a	n/a	n/a	-999	11	[-999, -999, -999]	n/a	catFR1	0	R1187P
1398.732	12.401	1403996	PROB	12.366	n/a	n/a	n/a	-999	11	[9, 3, 2]	14.0	catFR1	0	R1187P
1411.133	8.582	1416396	PROB	8.582	n/a	n/a	n/a	-999	11	[8, 8, 4]	20.0	catFR1	0	R1187P
1419.715	0.021	1424978	STOP	n/a	n/a	n/a	n/a	-999	11	[-999, -999, -999]	n/a	catFR1	0	R1187P
1419.736	0.516	1424999	DISTRACT_END	n/a	n/a	n/a	n/a	-999	11	[0, 0, 0]	n/a	catFR1	0	R1187P
1420.252	0.518	1425515	RETRIEVAL_ORIENT	n/a	n/a	n/a	n/a	-999	11	[0, 0, 0]	n/a	catFR1	0	R1187P
1420.77	1.494	1426033	REC_START	n/a	n/a	n/a	n/a	-999	11	[0, 0, 0]	n/a	catFR1	0	R1187P
1422.264	0.952	1427526	REC_WORD_VV	1.494	n/a	<>	n/a	-999	11	[0, 0, 0]	n/a	catFR1	0	R1187P
1423.216	1.0	1428478	REC_WORD_VV	2.446	n/a	<>	n/a	-999	11	[0, 0, 0]	n/a	catFR1	0	R1187P
1424.216	2.398	1429478	REC_WORD_VV	3.446	n/a	<>	n/a	-999	11	[0, 0, 0]	n/a	catFR1	0	R1187P
1426.614	1.055	1431876	REC_WORD	5.844	n/a	AXE	n/a	-999	11	[0, 0, 0]	n/a	catFR1	0	R1187P
1427.669	2.264	1432931	REC_WORD_VV	6.899	n/a	<>	n/a	-999	11	[0, 0, 0]	n/a	catFR1	0	R1187P
1429.933	0.295	1435195	REC_WORD_VV	9.163	n/a	<>	n/a	-999	11	[0, 0, 0]	n/a	catFR1	0	R1187P
1430.228	1.134	1435490	REC_WORD	9.458	n/a	BLENDER	Appliances	1	11	[0, 0, 0]	n/a	catFR1	0	R1187P
1431.362	6.652	1436624	REC_WORD_VV	10.592	n/a	<>	n/a	-999	11	[0, 0, 0]	n/a	catFR1	0	R1187P
1438.014	1.0	1443276	REC_WORD_VV	17.244	n/a	<>	n/a	-999	11	[0, 0, 0]	n/a	catFR1	0	R1187P
1439.014	11.159	1444276	REC_WORD_VV	18.244	n/a	<>	n/a	-999	11	[0, 0, 0]	n/a	catFR1	0	R1187P
1450.173	0.608	1455434	REC_WORD_VV	29.403	n/a	<>	n/a	-999	11	[0, 0, 0]	n/a	catFR1	0	R1187P
1450.781	15.897	1456042	REC_END	n/a	n/a	n/a	n/a	-999	11	[0, 0, 0]	n/a	catFR1	0	R1187P
1466.678	0.5	1471938	TRIAL	n/a	n/a	n/a	n/a	-999	12	[0, 0, 0]	n/a	catFR1	0	R1187P
1467.178	10.428	1472438	COUNTDOWN_START	n/a	n/a	n/a	n/a	-999	12	[0, 0, 0]	n/a	catFR1	0	R1187P
1477.606	0.007	1482866	COUNTDOWN_END	n/a	n/a	n/a	n/a	-999	12	[0, 0, 0]	n/a	catFR1	0	R1187P
1477.613	1.616	1482873	ORIENT	n/a	n/a	n/a	n/a	-999	12	[0, 0, 0]	n/a	catFR1	0	R1187P
1479.229	2.202	1484489	ORIENT_OFF	n/a	n/a	n/a	n/a	-999	12	[0, 0, 0]	n/a	catFR1	0	R1187P
1481.431	1.615	1486691	WORD	n/a	wordpools/wordpool_categorized_EN.txt	OYSTER	OceanAnimals	1	12	[0, 0, 0]	n/a	catFR1	0	R1187P
1483.046	0.968	1488305	WORD_OFF	n/a	n/a	OYSTER	n/a	1	12	[0, 0, 0]	n/a	catFR1	0	R1187P
1484.014	1.601	1489273	WORD	n/a	wordpools/wordpool_categorized_EN.txt	SQUID	OceanAnimals	2	12	[0, 0, 0]	n/a	catFR1	0	R1187P
1485.615	0.933	1490874	WORD_OFF	n/a	n/a	SQUID	n/a	2	12	[0, 0, 0]	n/a	catFR1	0	R1187P
1486.548	1.616	1491807	WORD	n/a	wordpools/wordpool_categorized_EN.txt	RATCHET	Tools	3	12	[0, 0, 0]	n/a	catFR1	0	R1187P
1488.164	0.984	1493423	WORD_OFF	n/a	n/a	RATCHET	n/a	3	12	[0, 0, 0]	n/a	catFR1	0	R1187P
1489.148	1.618	1494407	WORD	n/a	wordpools/wordpool_categorized_EN.txt	PLIERS	Tools	4	12	[0, 0, 0]	n/a	catFR1	0	R1187P
1490.766	1.017	1496025	WORD_OFF	n/a	n/a	PLIERS	n/a	4	12	[0, 0, 0]	n/a	catFR1	0	R1187P
1491.783	1.617	1497042	WORD	n/a	wordpools/wordpool_categorized_EN.txt	BASS	Instruments	5	12	[0, 0, 0]	n/a	catFR1	0	R1187P
1493.4	0.866	1498659	WORD_OFF	n/a	n/a	BASS	n/a	5	12	[0, 0, 0]	n/a	catFR1	0	R1187P
1494.266	1.617	1499525	WORD	n/a	wordpools/wordpool_categorized_EN.txt	ORGAN	Instruments	6	12	[0, 0, 0]	n/a	catFR1	0	R1187P
1495.883	1.0	1501142	WORD_OFF	n/a	n/a	ORGAN	n/a	6	12	[0, 0, 0]	n/a	catFR1	0	R1187P
1496.883	1.618	1502142	WORD	n/a	wordpools/wordpool_categorized_EN.txt	OCTOPUS	OceanAnimals	7	12	[0, 0, 0]	n/a	catFR1	0	R1187P
1498.501	0.832	1503760	WORD_OFF	n/a	n/a	OCTOPUS	n/a	7	12	[0, 0, 0]	n/a	catFR1	0	R1187P
1499.333	1.617	1504592	WORD	n/a	wordpools/wordpool_categorized_EN.txt	CRAB	OceanAnimals	8	12	[0, 0, 0]	n/a	catFR1	0	R1187P
1500.95	0.785	1506209	WORD_OFF	n/a	n/a	CRAB	n/a	8	12	[0, 0, 0]	n/a	catFR1	0	R1187P
1501.735	1.616	1506994	WORD	n/a	wordpools/wordpool_categorized_EN.txt	SANDER	Tools	9	12	[0, 0, 0]	n/a	catFR1	0	R1187P
1503.351	0.783	1508609	WORD_OFF	n/a	n/a	SANDER	n/a	9	12	[0, 0, 0]	n/a	catFR1	0	R1187P
1504.134	1.601	1509392	WORD	n/a	wordpools/wordpool_categorized_EN.txt	HAMMER	Tools	10	12	[0, 0, 0]	n/a	catFR1	0	R1187P
1505.735	0.934	1510993	WORD_OFF	n/a	n/a	HAMMER	n/a	10	12	[0, 0, 0]	n/a	catFR1	0	R1187P
1506.669	1.616	1511927	WORD	n/a	wordpools/wordpool_categorized_EN.txt	VIOLIN	Instruments	11	12	[0, 0, 0]	n/a	catFR1	0	R1187P
1508.285	1.0	1513543	WORD_OFF	n/a	n/a	VIOLIN	n/a	11	12	[0, 0, 0]	n/a	catFR1	0	R1187P
1509.285	1.617	1514543	WORD	n/a	wordpools/wordpool_categorized_EN.txt	TROMBONE	Instruments	12	12	[0, 0, 0]	n/a	catFR1	0	R1187P
1510.902	0.0	1516160	ENCODING_END	n/a	n/a	n/a	n/a	-999	12	[0, 0, 0]	n/a	catFR1	0	R1187P
1510.902	0.134	1516160	WORD_OFF	n/a	n/a	TROMBONE	n/a	12	12	[0, 0, 0]	n/a	catFR1	0	R1187P
1511.036	0.0	1516294	DISTRACT_START	n/a	n/a	n/a	n/a	-999	12	[0, 0, 0]	n/a	catFR1	0	R1187P
1511.036	0.016	1516294	START	n/a	n/a	n/a	n/a	-999	12	[-999, -999, -999]	n/a	catFR1	0	R1187P
1511.052	19.705	1516310	PROB	19.679	n/a	n/a	n/a	-999	12	[8, 6, 7]	21.0	catFR1	0	R1187P
1530.757	3.838	1536014	PROB	3.838	n/a	n/a	n/a	-999	12	[5, 5, 5]	15.0	catFR1	0	R1187P
1534.595	0.013	1539852	STOP	n/a	n/a	n/a	n/a	-999	12	[-999, -999, -999]	n/a	catFR1	0	R1187P
1534.608	0.582	1539865	DISTRACT_END	n/a	n/a	n/a	n/a	-999	12	[0, 0, 0]	n/a	catFR1	0	R1187P
1535.19	0.518	1540447	RETRIEVAL_ORIENT	n/a	n/a	n/a	n/a	-999	12	[0, 0, 0]	n/a	catFR1	0	R1187P
1535.708	1.617	1540965	REC_START	n/a	n/a	n/a	n/a	-999	12	[0, 0, 0]	n/a	catFR1	0	R1187P
1537.325	0.708	1542582	REC_WORD_VV	1.617	n/a	<>	n/a	-999	12	[0, 0, 0]	n/a	catFR1	0	R1187P
1538.033	1.556	1543290	REC_WORD_VV	2.325	n/a	<>	n/a	-999	12	[0, 0, 0]	n/a	catFR1	0	R1187P
1539.589	1.0	1544846	REC_WORD_VV	3.881	n/a	<>	n/a	-999	12	[0, 0, 0]	n/a	catFR1	0	R1187P
1540.589	1.362	1545846	REC_WORD_VV	4.881	n/a	<>	n/a	-999	12	[0, 0, 0]	n/a	catFR1	0	R1187P
1541.951	0.941	1547208	REC_WORD	6.243	n/a	HAMMER	Tools	10	12	[0, 0, 0]	n/a	catFR1	0	R1187P
1542.892	3.561	1548148	REC_WORD_VV	7.184	n/a	<>	n/a	-999	12	[0, 0, 0]	n/a	catFR1	0	R1187P
1546.453	1.259	1551709	REC_WORD_VV	10.745	n/a	<>	n/a	-999	12	[0, 0, 0]	n/a	catFR1	0	R1187P
1547.712	10.33	1552968	REC_WORD_VV	12.004	n/a	<>	n/a	-999	12	[0, 0, 0]	n/a	catFR1	0	R1187P
1558.042	0.567	1563298	REC_WORD_VV	22.334	n/a	<>	n/a	-999	12	[0, 0, 0]	n/a	catFR1	0	R1187P
1558.609	2.209	1563865	REC_WORD	22.901	n/a	OCEAN	n/a	-999	12	[0, 0, 0]	n/a	catFR1	0	R1187P
1560.818	1.0	1566074	REC_WORD_VV	25.11	n/a	<>	n/a	-999	12	[0, 0, 0]	n/a	catFR1	0	R1187P
1561.818	3.903	1567074	REC_WORD_VV	26.11	n/a	<>	n/a	-999	12	[0, 0, 0]	n/a	catFR1	0	R1187P
1565.721	24.563	1570976	REC_END	n/a	n/a	n/a	n/a	-999	12	[0, 0, 0]	n/a	catFR1	0	R1187P
1590.284	0.5	1595538	TRIAL	n/a	n/a	n/a	n/a	-999	13	[0, 0, 0]	n/a	catFR1	0	R1187P
1590.784	10.428	1596038	COUNTDOWN_START	n/a	n/a	n/a	n/a	-999	13	[0, 0, 0]	n/a	catFR1	0	R1187P
1601.212	0.007	1606466	COUNTDOWN_END	n/a	n/a	n/a	n/a	-999	13	[0, 0, 0]	n/a	catFR1	0	R1187P
1601.219	1.601	1606473	ORIENT	n/a	n/a	n/a	n/a	-999	13	[0, 0, 0]	n/a	catFR1	0	R1187P
1602.82	2.233	1608073	ORIENT_OFF	n/a	n/a	n/a	n/a	-999	13	[0, 0, 0]	n/a	catFR1	0	R1187P
1605.053	1.618	1610306	WORD	n/a	wordpools/wordpool_categorized_EN.txt	TULIP	Flowers	1	13	[0, 0, 0]	n/a	catFR1	0	R1187P
1606.671	0.934	1611924	WORD_OFF	n/a	n/a	TULIP	n/a	1	13	[0, 0, 0]	n/a	catFR1	0	R1187P
1607.605	1.615	1612858	WORD	n/a	wordpools/wordpool_categorized_EN.txt	ORCHID	Flowers	2	13	[0, 0, 0]	n/a	catFR1	0	R1187P
1609.22	1.017	1614473	WORD_OFF	n/a	n/a	ORCHID	n/a	2	13	[0, 0, 0]	n/a	catFR1	0	R1187P
1610.237	1.601	1615490	WORD	n/a	wordpools/wordpool_categorized_EN.txt	TUBA	Instruments	3	13	[0, 0, 0]	n/a	catFR1	0	R1187P
1611.838	0.901	1617091	WORD_OFF	n/a	n/a	TUBA	n/a	3	13	[0, 0, 0]	n/a	catFR1	0	R1187P
1612.739	1.616	1617992	WORD	n/a	wordpools/wordpool_categorized_EN.txt	DRUM	Instruments	4	13	[0, 0, 0]	n/a	catFR1	0	R1187P
1614.355	0.983	1619608	WORD_OFF	n/a	n/a	DRUM	n/a	4	13	[0, 0, 0]	n/a	catFR1	0	R1187P
1615.338	1.617	1620591	WORD	n/a	wordpools/wordpool_categorized_EN.txt	STEREO	Electronics	5	13	[0, 0, 0]	n/a	catFR1	0	R1187P
1616.955	0.801	1622208	WORD_OFF	n/a	n/a	STEREO	n/a	5	13	[0, 0, 0]	n/a	catFR1	0	R1187P
1617.756	1.616	1623009	WORD	n/a	wordpools/wordpool_categorized_EN.txt	COMPUTER	Electronics	6	13	[0, 0, 0]	n/a	catFR1	0	R1187P
1619.372	1.001	1624625	WORD_OFF	n/a	n/a	COMPUTER	n/a	6	13	[0, 0, 0]	n/a	catFR1	0	R1187P
1620.373	1.617	1625626	WORD	n/a	wordpools/wordpool_categorized_EN.txt	DAISY	Flowers	7	13	[0, 0, 0]	n/a	catFR1	0	R1187P
1621.99	0.884	1627243	WORD_OFF	n/a	n/a	DAISY	n/a	7	13	[0, 0, 0]	n/a	catFR1	0	R1187P
1622.874	1.617	1628126	WORD	n/a	wordpools/wordpool_categorized_EN.txt	MARIGOLD	Flowers	8	13	[0, 0, 0]	n/a	catFR1	0	R1187P
1624.491	1.0	1629743	WORD_OFF	n/a	n/a	MARIGOLD	n/a	8	13	[0, 0, 0]	n/a	catFR1	0	R1187P
1625.491	1.616	1630743	WORD	n/a	wordpools/wordpool_categorized_EN.txt	CELLO	Instruments	9	13	[0, 0, 0]	n/a	catFR1	0	R1187P
1627.107	0.85	1632359	WORD_OFF	n/a	n/a	CELLO	n/a	9	13	[0, 0, 0]	n/a	catFR1	0	R1187P
1627.957	1.601	1633209	WORD	n/a	wordpools/wordpool_categorized_EN.txt	BANJO	Instruments	10	13	[0, 0, 0]	n/a	catFR1	0	R1187P
1629.558	0.951	1634810	WORD_OFF	n/a	n/a	BANJO	n/a	10	13	[0, 0, 0]	n/a	catFR1	0	R1187P
1630.509	1.616	1635761	WORD	n/a	wordpools/wordpool_categorized_EN.txt	PRINTER	Electronics	11	13	[0, 0, 0]	n/a	catFR1	0	R1187P
1632.125	0.833	1637377	WORD_OFF	n/a	n/a	PRINTER	n/a	11	13	[0, 0, 0]	n/a	catFR1	0	R1187P
1632.958	1.602	1638210	WORD	n/a	wordpools/wordpool_categorized_EN.txt	MICROWAVE	Electronics	12	13	[0, 0, 0]	n/a	catFR1	0	R1187P
1634.56	0.0	1639812	WORD_OFF	n/a	n/a	MICROWAVE	n/a	12	13	[0, 0, 0]	n/a	catFR1	0	R1187P
1634.56	0.102	1639812	ENCODING_END	n/a	n/a	n/a	n/a	-999	13	[0, 0, 0]	n/a	catFR1	0	R1187P
1634.662	0.001	1639914	DISTRACT_START	n/a	n/a	n/a	n/a	-999	13	[0, 0, 0]	n/a	catFR1	0	R1187P
1634.663	0.013	1639915	START	n/a	n/a	n/a	n/a	-999	13	[-999, -999, -999]	n/a	catFR1	0	R1187P
1634.676	6.985	1639928	PROB	6.951	n/a	n/a	n/a	-999	13	[3, 8, 3]	14.0	catFR1	0	R1187P
1641.661	5.55	1646913	PROB	5.526	n/a	n/a	n/a	-999	13	[2, 1, 5]	8.0	catFR1	0	R1187P
1647.211	6.701	1652462	PROB	6.672	n/a	n/a	n/a	-999	13	[1, 7, 6]	14.0	catFR1	0	R1187P
1653.912	4.715	1659163	PROB	4.715	n/a	n/a	n/a	-999	13	[2, 8, 2]	12.0	catFR1	0	R1187P
1658.627	0.021	1663878	STOP	n/a	n/a	n/a	n/a	-999	13	[-999, -999, -999]	n/a	catFR1	0	R1187P
1658.648	0.532	1663899	DISTRACT_END	n/a	n/a	n/a	n/a	-999	13	[0, 0, 0]	n/a	catFR1	0	R1187P
1659.18	0.519	1664431	RETRIEVAL_ORIENT	n/a	n/a	n/a	n/a	-999	13	[0, 0, 0]	n/a	catFR1	0	R1187P
1659.699	1.405	1664950	REC_START	n/a	n/a	n/a	n/a	-999	13	[0, 0, 0]	n/a	catFR1	0	R1187P
1661.104	1.055	1666355	REC_WORD_VV	1.405	n/a	<>	n/a	-999	13	[0, 0, 0]	n/a	catFR1	0	R1187P
1662.159	1.08	1667410	REC_WORD	2.46	n/a	TULIP	Flowers	1	13	[0, 0, 0]	n/a	catFR1	0	R1187P
1663.239	1.0	1668489	REC_WORD	3.54	n/a	MARIGOLD	Flowers	8	13	[0, 0, 0]	n/a	catFR1	0	R1187P
1664.239	1.829	1669489	REC_WORD_VV	4.54	n/a	<>	n/a	-999	13	[0, 0, 0]	n/a	catFR1	0	R1187P
1666.068	1.525	1671318	REC_WORD	6.369	n/a	PANSY	n/a	-999	13	[0, 0, 0]	n/a	catFR1	0	R1187P
1667.593	3.991	1672843	REC_WORD_VV	7.894	n/a	<>	n/a	-999	13	[0, 0, 0]	n/a	catFR1	0	R1187P
1671.584	9.426	1676834	REC_WORD_VV	11.885	n/a	<>	n/a	-999	13	[0, 0, 0]	n/a	catFR1	0	R1187P
1681.01	2.362	1686260	REC_WORD	21.311	n/a	CARNATION	n/a	-999	13	[0, 0, 0]	n/a	catFR1	0	R1187P
1683.372	6.338	1688621	REC_WORD_VV	23.673	n/a	<>	n/a	-999	13	[0, 0, 0]	n/a	catFR1	0	R1187P
1689.71	25.798	1694959	REC_END	n/a	n/a	n/a	n/a	-999	13	[0, 0, 0]	n/a	catFR1	0	R1187P
1715.508	0.5	1720756	TRIAL	n/a	n/a	n/a	n/a	-999	14	[0, 0, 0]	n/a	catFR1	0	R1187P
1716.008	10.428	1721256	COUNTDOWN_START	n/a	n/a	n/a	n/a	-999	14	[0, 0, 0]	n/a	catFR1	0	R1187P
1726.436	0.008	1731683	COUNTDOWN_END	n/a	n/a	n/a	n/a	-999	14	[0, 0, 0]	n/a	catFR1	0	R1187P
1726.444	1.616	1731691	ORIENT	n/a	n/a	n/a	n/a	-999	14	[0, 0, 0]	n/a	catFR1	0	R1187P
1728.06	2.3	1733307	ORIENT_OFF	n/a	n/a	n/a	n/a	-999	14	[0, 0, 0]	n/a	catFR1	0	R1187P
1730.36	1.617	1735607	WORD	n/a	wordpools/wordpool_categorized_EN.txt	TONGS	KitchenTools	1	14	[0, 0, 0]	n/a	catFR1	0	R1187P
1731.977	0.95	1737224	WORD_OFF	n/a	n/a	TONGS	n/a	1	14	[0, 0, 0]	n/a	catFR1	0	R1187P
1732.927	1.618	1738174	WORD	n/a	wordpools/wordpool_categorized_EN.txt	FORK	KitchenTools	2	14	[0, 0, 0]	n/a	catFR1	0	R1187P
1734.545	0.766	1739792	WORD_OFF	n/a	n/a	FORK	n/a	2	14	[0, 0, 0]	n/a	catFR1	0	R1187P
1735.311	1.617	1740558	WORD	n/a	wordpools/wordpool_categorized_EN.txt	ROSE	Flowers	3	14	[0, 0, 0]	n/a	catFR1	0	R1187P
1736.928	0.851	1742175	WORD_OFF	n/a	n/a	ROSE	n/a	3	14	[0, 0, 0]	n/a	catFR1	0	R1187P
1737.779	1.617	1743026	WORD	n/a	wordpools/wordpool_categorized_EN.txt	DAFFODIL	Flowers	4	14	[0, 0, 0]	n/a	catFR1	0	R1187P
1739.396	0.816	1744643	WORD_OFF	n/a	n/a	DAFFODIL	n/a	4	14	[0, 0, 0]	n/a	catFR1	0	R1187P
1740.212	1.601	1745459	WORD	n/a	wordpools/wordpool_categorized_EN.txt	BLOCKS	Toys	5	14	[0, 0, 0]	n/a	catFR1	0	R1187P
1741.813	0.934	1747060	WORD_OFF	n/a	n/a	BLOCKS	n/a	5	14	[0, 0, 0]	n/a	catFR1	0	R1187P
1742.747	1.616	1747993	WORD	n/a	wordpools/wordpool_categorized_EN.txt	DOLL	Toys	6	14	[0, 0, 0]	n/a	catFR1	0	R1187P
1744.363	0.783	1749609	WORD_OFF	n/a	n/a	DOLL	n/a	6	14	[0, 0, 0]	n/a	catFR1	0	R1187P
1745.146	1.618	1750392	WORD	n/a	wordpools/wordpool_categorized_EN.txt	KNIFE	KitchenTools	7	14	[0, 0, 0]	n/a	catFR1	0	R1187P
1746.764	0.817	1752010	WORD_OFF	n/a	n/a	KNIFE	n/a	7	14	[0, 0, 0]	n/a	catFR1	0	R1187P
1747.581	1.616	1752827	WORD	n/a	wordpools/wordpool_categorized_EN.txt	LADLE	KitchenTools	8	14	[0, 0, 0]	n/a	catFR1	0	R1187P
1749.197	0.967	1754443	WORD_OFF	n/a	n/a	LADLE	n/a	8	14	[0, 0, 0]	n/a	catFR1	0	R1187P
1750.164	1.618	1755410	WORD	n/a	wordpools/wordpool_categorized_EN.txt	LILAC	Flowers	9	14	[0, 0, 0]	n/a	catFR1	0	R1187P
1751.782	0.95	1757028	WORD_OFF	n/a	n/a	LILAC	n/a	9	14	[0, 0, 0]	n/a	catFR1	0	R1187P
1752.732	1.616	1757978	WORD	n/a	wordpools/wordpool_categorized_EN.txt	LILY	Flowers	10	14	[0, 0, 0]	n/a	catFR1	0	R1187P
1754.348	0.983	1759594	WORD_OFF	n/a	n/a	LILY	n/a	10	14	[0, 0, 0]	n/a	catFR1	0	R1187P
1755.331	1.617	1760577	WORD	n/a	wordpools/wordpool_categorized_EN.txt	PUZZLE	Toys	11	14	[0, 0, 0]	n/a	catFR1	0	R1187P
1756.948	0.785	1762194	WORD_OFF	n/a	n/a	PUZZLE	n/a	11	14	[0, 0, 0]	n/a	catFR1	0	R1187P
1757.733	1.616	1762979	WORD	n/a	wordpools/wordpool_categorized_EN.txt	SLINKY	Toys	12	14	[0, 0, 0]	n/a	catFR1	0	R1187P
1759.349	0.0	1764595	WORD_OFF	n/a	n/a	SLINKY	n/a	12	14	[0, 0, 0]	n/a	catFR1	0	R1187P
1759.349	0.105	1764595	ENCODING_END	n/a	n/a	n/a	n/a	-999	14	[0, 0, 0]	n/a	catFR1	0	R1187P
1759.454	0.0	1764700	DISTRACT_START	n/a	n/a	n/a	n/a	-999	14	[0, 0, 0]	n/a	catFR1	0	R1187P
1759.454	0.013	1764700	START	n/a	n/a	n/a	n/a	-999	14	[-999, -999, -999]	n/a	catFR1	0	R1187P
1759.467	7.75	1764713	PROB	7.712	n/a	n/a	n/a	-999	14	[2, 8, 6]	16.0	catFR1	0	R1187P
1767.217	8.002	1772462	PROB	7.977	n/a	n/a	n/a	-999	14	[6, 4, 9]	19.0	catFR1	0	R1187P
1775.219	6.184	1780464	PROB	6.184	n/a	n/a	n/a	-999	14	[6, 6, 2]	14.0	catFR1	0	R1187P
1781.403	0.018	1786648	STOP	n/a	n/a	n/a	n/a	-999	14	[-999, -999, -999]	n/a	catFR1	0	R1187P
1781.421	0.515	1786666	DISTRACT_END	n/a	n/a	n/a	n/a	-999	14	[0, 0, 0]	n/a	catFR1	0	R1187P
1781.936	0.519	1787181	RETRIEVAL_ORIENT	n/a	n/a	n/a	n/a	-999	14	[0, 0, 0]	n/a	catFR1	0	R1187P
1782.455	1.121	1787700	REC_START	n/a	n/a	n/a	n/a	-999	14	[0, 0, 0]	n/a	catFR1	0	R1187P
1783.576	1.0	1788820	REC_WORD_VV	1.121	n/a	<>	n/a	-999	14	[0, 0, 0]	n/a	catFR1	0	R1187P
1784.576	0.392	1789820	REC_WORD_VV	2.121	n/a	<>	n/a	-999	14	[0, 0, 0]	n/a	catFR1	0	R1187P
1784.968	1.0	1790212	REC_WORD	2.513	n/a	LILAC	Flowers	9	14	[0, 0, 0]	n/a	catFR1	0	R1187P
1785.968	0.158	1791212	REC_WORD_VV	3.513	n/a	<>	n/a	-999	14	[0, 0, 0]	n/a	catFR1	0	R1187P
1786.126	5.418	1791370	REC_WORD_VV	3.671	n/a	<>	n/a	-999	14	[0, 0, 0]	n/a	catFR1	0	R1187P
1791.544	0.03	1796788	REC_WORD_VV	9.089	n/a	<>	n/a	-999	14	[0, 0, 0]	n/a	catFR1	0	R1187P
1791.574	1.241	1796818	REC_WORD	9.119	n/a	SLINKY	Toys	12	14	[0, 0, 0]	n/a	catFR1	0	R1187P
1792.815	1.56	1798059	REC_WORD_VV	10.36	n/a	<>	n/a	-999	14	[0, 0, 0]	n/a	catFR1	0	R1187P
1794.375	1.94	1799619	REC_WORD	11.92	n/a	PANSY	n/a	-999	14	[0, 0, 0]	n/a	catFR1	0	R1187P
1796.315	0.595	1801559	REC_WORD_VV	13.86	n/a	<>	n/a	-999	14	[0, 0, 0]	n/a	catFR1	0	R1187P
1796.91	2.461	1802154	REC_WORD	14.455	n/a	ROSE	Flowers	3	14	[0, 0, 0]	n/a	catFR1	0	R1187P
1799.371	5.015	1804615	REC_WORD_VV	16.916	n/a	<>	n/a	-999	14	[0, 0, 0]	n/a	catFR1	0	R1187P
1804.386	2.19	1809629	REC_WORD_VV	21.931	n/a	<>	n/a	-999	14	[0, 0, 0]	n/a	catFR1	0	R1187P
1806.576	2.902	1811819	REC_WORD	24.121	n/a	PETUNIA	n/a	-999	14	[0, 0, 0]	n/a	catFR1	0	R1187P
1809.478	2.989	1814721	REC_WORD_VV	27.023	n/a	<>	n/a	-999	14	[0, 0, 0]	n/a	catFR1	0	R1187P
1812.467	16.379	1817710	REC_END	n/a	n/a	n/a	n/a	-999	14	[0, 0, 0]	n/a	catFR1	0	R1187P
1828.846	0.0	1834088	TRIAL	n/a	n/a	n/a	n/a	-999	15	[0, 0, 0]	n/a	catFR1	0	R1187P
