onset	duration	sample	trial_type	response_time	stim_file	item_name	category	serialpos	list	test	answer	experiment	session	subject
0.0	164.895	11354	INSTRUCT_START	n/a	n/a	n/a	n/a	-999	-999	[0, 0, 0]	n/a	catFR1	1	R1487T
164.895	91.917	176239	INSTRUCT_END	n/a	n/a	n/a	n/a	-999	-999	[0, 0, 0]	n/a	catFR1	1	R1487T
256.812	10.0	268158	COUNTDOWN_START	n/a	n/a	n/a	n/a	-999	-999	[0, 0, 0]	n/a	catFR1	1	R1487T
267.16	0.001	278503	COUNTDOWN_END	n/a	n/a	n/a	n/a	-999	-999	[0, 0, 0]	n/a	catFR1	1	R1487T
267.161	2.034	278503	ENCODING_START	n/a	n/a	n/a	n/a	-999	-1	[0, 0, 0]	n/a	catFR1	1	R1487T
269.195	1.6	280532	WORD	n/a	n/a	TRAIN	Vehicles	1	-1	[0, 0, 0]	n/a	catFR1	1	R1487T
270.795	0.766	282135	WORD_OFF	n/a	n/a	TRAIN	Vehicles	1	-1	[0, 0, 0]	n/a	catFR1	1	R1487T
271.561	1.6	282905	WORD	n/a	n/a	TRUCK	Vehicles	2	-1	[0, 0, 0]	n/a	catFR1	1	R1487T
273.161	0.834	284500	WORD_OFF	n/a	n/a	TRUCK	Vehicles	2	-1	[0, 0, 0]	n/a	catFR1	1	R1487T
273.995	1.6	285332	WORD	n/a	n/a	GOOSE	Birds	3	-1	[0, 0, 0]	n/a	catFR1	1	R1487T
275.611	0.834	286953	WORD_OFF	n/a	n/a	GOOSE	Birds	3	-1	[0, 0, 0]	n/a	catFR1	1	R1487T
276.445	1.6	287786	WORD	n/a	n/a	FINCH	Birds	4	-1	[0, 0, 0]	n/a	catFR1	1	R1487T
278.061	0.983	289398	WORD_OFF	n/a	n/a	FINCH	Birds	4	-1	[0, 0, 0]	n/a	catFR1	1	R1487T
279.044	1.6	290381	WORD	n/a	n/a	GNAT	Insects	5	-1	[0, 0, 0]	n/a	catFR1	1	R1487T
280.645	0.933	291984	WORD_OFF	n/a	n/a	GNAT	Insects	5	-1	[0, 0, 0]	n/a	catFR1	1	R1487T
281.578	1.6	292914	WORD	n/a	n/a	CRICKET	Insects	6	-1	[0, 0, 0]	n/a	catFR1	1	R1487T
283.195	0.8	294535	WORD_OFF	n/a	n/a	CRICKET	Insects	6	-1	[0, 0, 0]	n/a	catFR1	1	R1487T
283.995	1.6	295332	WORD	n/a	n/a	DOVE	Birds	7	-1	[0, 0, 0]	n/a	catFR1	1	R1487T
285.611	0.784	296953	WORD_OFF	n/a	n/a	DOVE	Birds	7	-1	[0, 0, 0]	n/a	catFR1	1	R1487T
286.395	1.6	297732	WORD	n/a	n/a	CARDINAL	Birds	8	-1	[0, 0, 0]	n/a	catFR1	1	R1487T
288.012	0.849	299353	WORD_OFF	n/a	n/a	CARDINAL	Birds	8	-1	[0, 0, 0]	n/a	catFR1	1	R1487T
288.861	1.6	300203	WORD	n/a	n/a	ANT	Insects	9	-1	[0, 0, 0]	n/a	catFR1	1	R1487T
290.462	0.865	301798	WORD_OFF	n/a	n/a	ANT	Insects	9	-1	[0, 0, 0]	n/a	catFR1	1	R1487T
291.327	1.6	302666	WORD	n/a	n/a	LADYBUG	Insects	10	-1	[0, 0, 0]	n/a	catFR1	1	R1487T
292.928	0.983	304269	WORD_OFF	n/a	n/a	LADYBUG	Insects	10	-1	[0, 0, 0]	n/a	catFR1	1	R1487T
293.911	1.6	305252	WORD	n/a	n/a	SCOOTER	Vehicles	11	-1	[0, 0, 0]	n/a	catFR1	1	R1487T
295.511	0.967	306846	WORD_OFF	n/a	n/a	SCOOTER	Vehicles	11	-1	[0, 0, 0]	n/a	catFR1	1	R1487T
296.478	1.6	307820	WORD	n/a	n/a	PLANE	Vehicles	12	-1	[0, 0, 0]	n/a	catFR1	1	R1487T
298.095	0.0	309431	PROB	12.283	n/a	n/a	n/a	-999	-1	[8, 1, 1]	10.0	catFR1	1	R1487T
298.094	0.002	309432	WORD_OFF	n/a	n/a	PLANE	Vehicles	12	-1	[0, 0, 0]	n/a	catFR1	1	R1487T
298.096	0.0	309432	ENCODING_END	n/a	n/a	n/a	n/a	-999	-1	[0, 0, 0]	n/a	catFR1	1	R1487T
298.096	0.0	309432	DISTRACT_START	n/a	n/a	n/a	n/a	-999	-1	[0, 0, 0]	n/a	catFR1	1	R1487T
298.096	12.299	309432	START	n/a	n/a	n/a	n/a	-999	-1	[-999, -999, -999]	n/a	catFR1	1	R1487T
310.395	7.749	321731	PROB	7.733	n/a	n/a	n/a	-999	-1	[8, 5, 1]	14.0	catFR1	1	R1487T
318.144	0.0	329479	STOP	n/a	n/a	n/a	n/a	-999	-1	[-999, -999, -999]	n/a	catFR1	1	R1487T
318.144	2.367	329485	DISTRACT_END	n/a	n/a	n/a	n/a	-999	-1	[0, 0, 0]	n/a	catFR1	1	R1487T
320.511	1.498	331849	REC_START	n/a	n/a	n/a	n/a	-999	-1	[0, 0, 0]	n/a	catFR1	1	R1487T
322.009	0.595	333344	REC_WORD	1.498	n/a	LOOP	n/a	-999	-1	[0, 0, 0]	n/a	catFR1	1	R1487T
322.604	1.0	333939	REC_WORD	2.093	n/a	TRAIN	Vehicles	1	-1	[0, 0, 0]	n/a	catFR1	1	R1487T
323.604	0.453	334939	REC_WORD	3.093	n/a	TRAIN	Vehicles	1	-1	[0, 0, 0]	n/a	catFR1	1	R1487T
324.057	0.887	335392	REC_WORD_VV	3.546	n/a	<>	n/a	-999	-1	[0, 0, 0]	n/a	catFR1	1	R1487T
324.944	1.0	336279	REC_WORD	4.433	n/a	LADYBUG	Insects	10	-1	[0, 0, 0]	n/a	catFR1	1	R1487T
325.944	3.289	337279	REC_WORD	5.433	n/a	LADYBUG	Insects	10	-1	[0, 0, 0]	n/a	catFR1	1	R1487T
329.233	0.857	340568	REC_WORD_VV	8.722	n/a	<>	n/a	-999	-1	[0, 0, 0]	n/a	catFR1	1	R1487T
330.09	0.56	341425	REC_WORD	9.579	n/a	TRAIN	Vehicles	1	-1	[0, 0, 0]	n/a	catFR1	1	R1487T
330.65	0.667	341985	REC_WORD	10.139	n/a	LOOP	n/a	-999	-1	[0, 0, 0]	n/a	catFR1	1	R1487T
331.317	1.0	342652	REC_WORD_VV	10.806	n/a	<>	n/a	-999	-1	[0, 0, 0]	n/a	catFR1	1	R1487T
332.317	3.204	343652	REC_WORD_VV	11.806	n/a	<>	n/a	-999	-1	[0, 0, 0]	n/a	catFR1	1	R1487T
335.521	1.0	346855	REC_WORD	15.01	n/a	LADYBUG	Insects	10	-1	[0, 0, 0]	n/a	catFR1	1	R1487T
336.521	3.377	347855	REC_WORD	16.01	n/a	LADYBUG	Insects	10	-1	[0, 0, 0]	n/a	catFR1	1	R1487T
339.898	1.0	351232	REC_WORD_VV	19.387	n/a	<>	n/a	-999	-1	[0, 0, 0]	n/a	catFR1	1	R1487T
340.898	2.743	352232	REC_WORD_VV	20.387	n/a	<>	n/a	-999	-1	[0, 0, 0]	n/a	catFR1	1	R1487T
343.641	1.0	354975	REC_WORD_VV	23.13	n/a	<>	n/a	-999	-1	[0, 0, 0]	n/a	catFR1	1	R1487T
344.641	1.067	355975	REC_WORD_VV	24.13	n/a	<>	n/a	-999	-1	[0, 0, 0]	n/a	catFR1	1	R1487T
345.708	5.005	357042	REC_WORD	25.197	n/a	VINE	n/a	-999	-1	[0, 0, 0]	n/a	catFR1	1	R1487T
350.713	13.165	362044	REC_END	n/a	n/a	n/a	n/a	-999	-1	[0, 0, 0]	n/a	catFR1	1	R1487T
363.878	10.0	375214	COUNTDOWN_START	n/a	n/a	n/a	n/a	-999	1	[0, 0, 0]	n/a	catFR1	1	R1487T
374.227	0.001	385560	COUNTDOWN_END	n/a	n/a	n/a	n/a	-999	1	[0, 0, 0]	n/a	catFR1	1	R1487T
374.228	1.917	385568	ENCODING_START	n/a	n/a	n/a	n/a	-999	1	[0, 0, 0]	n/a	catFR1	1	R1487T
376.145	1.6	387482	WORD	n/a	wordpools/wordpool_categorized_EN.txt	ROACH	Insects	1	1	[0, 0, 0]	n/a	catFR1	1	R1487T
377.745	0.866	389076	WORD_OFF	n/a	n/a	ROACH	Insects	1	1	[0, 0, 0]	n/a	catFR1	1	R1487T
378.611	1.6	389944	WORD	n/a	wordpools/wordpool_categorized_EN.txt	BEETLE	Insects	2	1	[0, 0, 0]	n/a	catFR1	1	R1487T
380.211	0.9	391547	WORD_OFF	n/a	n/a	BEETLE	Insects	2	1	[0, 0, 0]	n/a	catFR1	1	R1487T
381.111	1.6	392442	WORD	n/a	wordpools/wordpool_categorized_EN.txt	PEAR	Fruit	3	1	[0, 0, 0]	n/a	catFR1	1	R1487T
382.711	0.984	394045	WORD_OFF	n/a	n/a	PEAR	Fruit	3	1	[0, 0, 0]	n/a	catFR1	1	R1487T
383.695	1.6	395028	WORD	n/a	wordpools/wordpool_categorized_EN.txt	APPLE	Fruit	4	1	[0, 0, 0]	n/a	catFR1	1	R1487T
385.295	1.0	396631	WORD_OFF	n/a	n/a	APPLE	Fruit	4	1	[0, 0, 0]	n/a	catFR1	1	R1487T
386.295	1.6	397632	WORD	n/a	wordpools/wordpool_categorized_EN.txt	NOSE	BodyParts	5	1	[0, 0, 0]	n/a	catFR1	1	R1487T
387.895	0.883	399226	WORD_OFF	n/a	n/a	NOSE	BodyParts	5	1	[0, 0, 0]	n/a	catFR1	1	R1487T
388.778	1.6	400112	WORD	n/a	wordpools/wordpool_categorized_EN.txt	TOE	BodyParts	6	1	[0, 0, 0]	n/a	catFR1	1	R1487T
390.378	0.766	401715	WORD_OFF	n/a	n/a	TOE	BodyParts	6	1	[0, 0, 0]	n/a	catFR1	1	R1487T
391.144	1.6	402477	WORD	n/a	wordpools/wordpool_categorized_EN.txt	BUTTERFLY	Insects	7	1	[0, 0, 0]	n/a	catFR1	1	R1487T
392.745	0.916	404080	WORD_OFF	n/a	n/a	BUTTERFLY	Insects	7	1	[0, 0, 0]	n/a	catFR1	1	R1487T
393.661	1.6	404992	WORD	n/a	wordpools/wordpool_categorized_EN.txt	FLY	Insects	8	1	[0, 0, 0]	n/a	catFR1	1	R1487T
395.261	0.901	406595	WORD_OFF	n/a	n/a	FLY	Insects	8	1	[0, 0, 0]	n/a	catFR1	1	R1487T
396.162	1.6	407499	WORD	n/a	wordpools/wordpool_categorized_EN.txt	EAR	BodyParts	9	1	[0, 0, 0]	n/a	catFR1	1	R1487T
397.761	0.783	409093	WORD_OFF	n/a	n/a	EAR	BodyParts	9	1	[0, 0, 0]	n/a	catFR1	1	R1487T
398.544	1.6	409881	WORD	n/a	wordpools/wordpool_categorized_EN.txt	EYE	BodyParts	10	1	[0, 0, 0]	n/a	catFR1	1	R1487T
400.145	0.833	411476	WORD_OFF	n/a	n/a	EYE	BodyParts	10	1	[0, 0, 0]	n/a	catFR1	1	R1487T
400.978	1.6	412308	WORD	n/a	wordpools/wordpool_categorized_EN.txt	GRAPE	Fruit	11	1	[0, 0, 0]	n/a	catFR1	1	R1487T
402.595	0.95	413929	WORD_OFF	n/a	n/a	GRAPE	Fruit	11	1	[0, 0, 0]	n/a	catFR1	1	R1487T
403.545	1.6	414877	WORD	n/a	wordpools/wordpool_categorized_EN.txt	BLUEBERRY	Fruit	12	1	[0, 0, 0]	n/a	catFR1	1	R1487T
405.162	0.001	416493	PROB	9.582	n/a	n/a	n/a	-999	1	[6, 6, 5]	17.0	catFR1	1	R1487T
405.163	0.0	416494	START	n/a	n/a	n/a	n/a	-999	1	[-999, -999, -999]	n/a	catFR1	1	R1487T
405.161	0.002	416498	WORD_OFF	n/a	n/a	BLUEBERRY	Fruit	12	1	[0, 0, 0]	n/a	catFR1	1	R1487T
405.163	0.0	416498	ENCODING_END	n/a	n/a	n/a	n/a	-999	1	[0, 0, 0]	n/a	catFR1	1	R1487T
405.163	9.598	416498	DISTRACT_START	n/a	n/a	n/a	n/a	-999	1	[0, 0, 0]	n/a	catFR1	1	R1487T
414.761	9.684	426091	PROB	9.667	n/a	n/a	n/a	-999	1	[5, 6, 7]	18.0	catFR1	1	R1487T
424.445	5.55	435775	PROB	5.533	n/a	n/a	n/a	-999	1	[5, 7, 4]	16.0	catFR1	1	R1487T
429.995	0.0	441324	DISTRACT_END	n/a	n/a	n/a	n/a	-999	1	[0, 0, 0]	n/a	catFR1	1	R1487T
429.995	2.167	441324	STOP	n/a	n/a	n/a	n/a	-999	1	[-999, -999, -999]	n/a	catFR1	1	R1487T
432.162	1.332	443493	REC_START	n/a	n/a	n/a	n/a	-999	1	[0, 0, 0]	n/a	catFR1	1	R1487T
433.494	0.634	444823	REC_WORD_VV	1.332	n/a	<>	n/a	-999	1	[0, 0, 0]	n/a	catFR1	1	R1487T
434.128	2.296	445457	REC_WORD	1.966	n/a	TOE	BodyParts	6	1	[0, 0, 0]	n/a	catFR1	1	R1487T
436.424	1.0	447753	REC_WORD_VV	4.262	n/a	<>	n/a	-999	1	[0, 0, 0]	n/a	catFR1	1	R1487T
437.424	0.841	448753	REC_WORD_VV	5.262	n/a	<>	n/a	-999	1	[0, 0, 0]	n/a	catFR1	1	R1487T
438.265	1.0	449594	REC_WORD	6.103	n/a	BLUEBERRY	Fruit	12	1	[0, 0, 0]	n/a	catFR1	1	R1487T
439.265	1.065	450594	REC_WORD	7.103	n/a	BLUEBERRY	Fruit	12	1	[0, 0, 0]	n/a	catFR1	1	R1487T
440.33	5.157	451659	REC_WORD_VV	8.168	n/a	<>	n/a	-999	1	[0, 0, 0]	n/a	catFR1	1	R1487T
445.487	0.711	456816	REC_WORD_VV	13.325	n/a	<>	n/a	-999	1	[0, 0, 0]	n/a	catFR1	1	R1487T
446.198	1.0	457527	REC_WORD	14.036	n/a	BLACKBERRY	n/a	-999	1	[0, 0, 0]	n/a	catFR1	1	R1487T
447.198	4.469	458527	REC_WORD	15.036	n/a	BLACKBERRY	n/a	-999	1	[0, 0, 0]	n/a	catFR1	1	R1487T
451.667	1.0	462995	REC_WORD_VV	19.505	n/a	<>	n/a	-999	1	[0, 0, 0]	n/a	catFR1	1	R1487T
452.667	1.0	463995	REC_WORD_VV	20.505	n/a	<>	n/a	-999	1	[0, 0, 0]	n/a	catFR1	1	R1487T
453.667	3.911	464995	REC_WORD_VV	21.505	n/a	<>	n/a	-999	1	[0, 0, 0]	n/a	catFR1	1	R1487T
457.578	4.76	468906	REC_WORD_VV	25.416	n/a	<>	n/a	-999	1	[0, 0, 0]	n/a	catFR1	1	R1487T
462.338	3.59	473670	REC_END	n/a	n/a	n/a	n/a	-999	1	[0, 0, 0]	n/a	catFR1	1	R1487T
465.928	10.0	477258	COUNTDOWN_START	n/a	n/a	n/a	n/a	-999	2	[0, 0, 0]	n/a	catFR1	1	R1487T
476.277	0.0	487603	COUNTDOWN_END	n/a	n/a	n/a	n/a	-999	2	[0, 0, 0]	n/a	catFR1	1	R1487T
476.277	2.218	487612	ENCODING_START	n/a	n/a	n/a	n/a	-999	2	[0, 0, 0]	n/a	catFR1	1	R1487T
478.495	1.6	489826	WORD	n/a	wordpools/wordpool_categorized_EN.txt	PENCIL	OfficeSupplies	1	2	[0, 0, 0]	n/a	catFR1	1	R1487T
480.095	0.867	491420	WORD_OFF	n/a	n/a	PENCIL	OfficeSupplies	1	2	[0, 0, 0]	n/a	catFR1	1	R1487T
480.962	1.6	492288	WORD	n/a	wordpools/wordpool_categorized_EN.txt	TAPE	OfficeSupplies	2	2	[0, 0, 0]	n/a	catFR1	1	R1487T
482.577	0.851	493909	WORD_OFF	n/a	n/a	TAPE	OfficeSupplies	2	2	[0, 0, 0]	n/a	catFR1	1	R1487T
483.428	1.6	494759	WORD	n/a	wordpools/wordpool_categorized_EN.txt	VIOLET	Flowers	3	2	[0, 0, 0]	n/a	catFR1	1	R1487T
485.046	0.864	496371	WORD_OFF	n/a	n/a	VIOLET	Flowers	3	2	[0, 0, 0]	n/a	catFR1	1	R1487T
485.91	1.6	497239	WORD	n/a	wordpools/wordpool_categorized_EN.txt	LILY	Flowers	4	2	[0, 0, 0]	n/a	catFR1	1	R1487T
487.512	0.783	498842	WORD_OFF	n/a	n/a	LILY	Flowers	4	2	[0, 0, 0]	n/a	catFR1	1	R1487T
488.295	1.6	499622	WORD	n/a	wordpools/wordpool_categorized_EN.txt	CALCULATOR	Electronics	5	2	[0, 0, 0]	n/a	catFR1	1	R1487T
489.895	0.999	501225	WORD_OFF	n/a	n/a	CALCULATOR	Electronics	5	2	[0, 0, 0]	n/a	catFR1	1	R1487T
490.894	1.6	502226	WORD	n/a	wordpools/wordpool_categorized_EN.txt	SPEAKER	Electronics	6	2	[0, 0, 0]	n/a	catFR1	1	R1487T
492.495	0.766	503820	WORD_OFF	n/a	n/a	SPEAKER	Electronics	6	2	[0, 0, 0]	n/a	catFR1	1	R1487T
493.261	1.6	504591	WORD	n/a	wordpools/wordpool_categorized_EN.txt	PETUNIA	Flowers	7	2	[0, 0, 0]	n/a	catFR1	1	R1487T
494.878	0.883	506203	WORD_OFF	n/a	n/a	PETUNIA	Flowers	7	2	[0, 0, 0]	n/a	catFR1	1	R1487T
495.761	1.6	507088	WORD	n/a	wordpools/wordpool_categorized_EN.txt	CARNATION	Flowers	8	2	[0, 0, 0]	n/a	catFR1	1	R1487T
497.361	0.782	508692	WORD_OFF	n/a	n/a	CARNATION	Flowers	8	2	[0, 0, 0]	n/a	catFR1	1	R1487T
498.143	1.6	509471	WORD	n/a	wordpools/wordpool_categorized_EN.txt	BINDER	OfficeSupplies	9	2	[0, 0, 0]	n/a	catFR1	1	R1487T
499.745	0.85	511074	WORD_OFF	n/a	n/a	BINDER	OfficeSupplies	9	2	[0, 0, 0]	n/a	catFR1	1	R1487T
500.595	1.6	511924	WORD	n/a	wordpools/wordpool_categorized_EN.txt	MARKER	OfficeSupplies	10	2	[0, 0, 0]	n/a	catFR1	1	R1487T
502.211	0.783	513536	WORD_OFF	n/a	n/a	MARKER	OfficeSupplies	10	2	[0, 0, 0]	n/a	catFR1	1	R1487T
502.994	1.6	514325	WORD	n/a	wordpools/wordpool_categorized_EN.txt	SCANNER	Electronics	11	2	[0, 0, 0]	n/a	catFR1	1	R1487T
504.594	0.967	515919	WORD_OFF	n/a	n/a	SCANNER	Electronics	11	2	[0, 0, 0]	n/a	catFR1	1	R1487T
505.561	1.6	516893	WORD	n/a	wordpools/wordpool_categorized_EN.txt	PRINTER	Electronics	12	2	[0, 0, 0]	n/a	catFR1	1	R1487T
507.179	0.0	518504	PROB	7.899	n/a	n/a	n/a	-999	2	[5, 4, 7]	16.0	catFR1	1	R1487T
507.178	0.001	518505	WORD_OFF	n/a	n/a	PRINTER	Electronics	12	2	[0, 0, 0]	n/a	catFR1	1	R1487T
507.179	0.001	518505	ENCODING_END	n/a	n/a	n/a	n/a	-999	2	[0, 0, 0]	n/a	catFR1	1	R1487T
507.18	0.0	518505	DISTRACT_START	n/a	n/a	n/a	n/a	-999	2	[0, 0, 0]	n/a	catFR1	1	R1487T
507.18	7.915	518505	START	n/a	n/a	n/a	n/a	-999	2	[-999, -999, -999]	n/a	catFR1	1	R1487T
515.095	5.766	526420	PROB	5.749	n/a	n/a	n/a	-999	2	[5, 4, 4]	13.0	catFR1	1	R1487T
520.861	5.351	532186	PROB	5.333	n/a	n/a	n/a	-999	2	[8, 8, 2]	18.0	catFR1	1	R1487T
526.212	7.016	537536	PROB	7.0	n/a	n/a	n/a	-999	2	[5, 7, 4]	16.0	catFR1	1	R1487T
533.228	0.0	544552	STOP	n/a	n/a	n/a	n/a	-999	2	[-999, -999, -999]	n/a	catFR1	1	R1487T
533.228	2.116	544554	DISTRACT_END	n/a	n/a	n/a	n/a	-999	2	[0, 0, 0]	n/a	catFR1	1	R1487T
535.344	1.295	546670	REC_START	n/a	n/a	n/a	n/a	-999	2	[0, 0, 0]	n/a	catFR1	1	R1487T
536.639	1.23	547963	REC_WORD	1.295	n/a	TAPE	OfficeSupplies	2	2	[0, 0, 0]	n/a	catFR1	1	R1487T
537.869	1.158	549193	REC_WORD	2.525	n/a	MOLLY	n/a	-999	2	[0, 0, 0]	n/a	catFR1	1	R1487T
539.027	1.0	550351	REC_WORD_VV	3.683	n/a	<>	n/a	-999	2	[0, 0, 0]	n/a	catFR1	1	R1487T
540.027	1.193	551351	REC_WORD_VV	4.683	n/a	<>	n/a	-999	2	[0, 0, 0]	n/a	catFR1	1	R1487T
541.22	3.296	552544	REC_WORD	5.876	n/a	CAR	n/a	-999	2	[0, 0, 0]	n/a	catFR1	1	R1487T
544.516	1.0	555840	REC_WORD_VV	9.172	n/a	<>	n/a	-999	2	[0, 0, 0]	n/a	catFR1	1	R1487T
545.516	3.784	556840	REC_WORD_VV	10.172	n/a	<>	n/a	-999	2	[0, 0, 0]	n/a	catFR1	1	R1487T
549.3	1.0	560623	REC_WORD_VV	13.956	n/a	<>	n/a	-999	2	[0, 0, 0]	n/a	catFR1	1	R1487T
550.3	5.663	561623	REC_WORD_VV	14.956	n/a	<>	n/a	-999	2	[0, 0, 0]	n/a	catFR1	1	R1487T
555.963	7.642	567286	REC_WORD_VV	20.619	n/a	<>	n/a	-999	2	[0, 0, 0]	n/a	catFR1	1	R1487T
563.605	1.21	574928	REC_WORD	28.261	n/a	HAVE	n/a	-999	2	[0, 0, 0]	n/a	catFR1	1	R1487T
564.815	0.724	576138	REC_WORD	29.471	n/a	TRUCK	Vehicles	-999	2	[0, 0, 0]	n/a	catFR1	1	R1487T
565.539	4.489	576865	REC_END	n/a	n/a	n/a	n/a	-999	2	[0, 0, 0]	n/a	catFR1	1	R1487T
570.028	10.0	581355	COUNTDOWN_START	n/a	n/a	n/a	n/a	-999	3	[0, 0, 0]	n/a	catFR1	1	R1487T
580.377	0.0	591701	COUNTDOWN_END	n/a	n/a	n/a	n/a	-999	3	[0, 0, 0]	n/a	catFR1	1	R1487T
580.377	2.151	591701	ENCODING_START	n/a	n/a	n/a	n/a	-999	3	[0, 0, 0]	n/a	catFR1	1	R1487T
582.528	1.6	593853	WORD	n/a	wordpools/wordpool_categorized_EN.txt	IRON	Appliances	1	3	[0, 0, 0]	n/a	catFR1	1	R1487T
584.128	0.933	595456	WORD_OFF	n/a	n/a	IRON	Appliances	1	3	[0, 0, 0]	n/a	catFR1	1	R1487T
585.061	1.6	596386	WORD	n/a	wordpools/wordpool_categorized_EN.txt	VACUUM	Appliances	2	3	[0, 0, 0]	n/a	catFR1	1	R1487T
586.678	0.899	597998	WORD_OFF	n/a	n/a	VACUUM	Appliances	2	3	[0, 0, 0]	n/a	catFR1	1	R1487T
587.577	1.6	598901	WORD	n/a	wordpools/wordpool_categorized_EN.txt	GOAT	FarmAnimals	3	3	[0, 0, 0]	n/a	catFR1	1	R1487T
589.178	0.867	600505	WORD_OFF	n/a	n/a	GOAT	FarmAnimals	3	3	[0, 0, 0]	n/a	catFR1	1	R1487T
590.045	1.6	601364	WORD	n/a	wordpools/wordpool_categorized_EN.txt	HORSE	FarmAnimals	4	3	[0, 0, 0]	n/a	catFR1	1	R1487T
591.645	0.983	602967	WORD_OFF	n/a	n/a	HORSE	FarmAnimals	4	3	[0, 0, 0]	n/a	catFR1	1	R1487T
592.628	1.6	603950	WORD	n/a	wordpools/wordpool_categorized_EN.txt	BASEBALL	Toys	5	3	[0, 0, 0]	n/a	catFR1	1	R1487T
594.245	0.916	605571	WORD_OFF	n/a	n/a	BASEBALL	Toys	5	3	[0, 0, 0]	n/a	catFR1	1	R1487T
595.161	1.6	606483	WORD	n/a	wordpools/wordpool_categorized_EN.txt	SLINKY	Toys	6	3	[0, 0, 0]	n/a	catFR1	1	R1487T
596.761	0.9	608086	WORD_OFF	n/a	n/a	SLINKY	Toys	6	3	[0, 0, 0]	n/a	catFR1	1	R1487T
597.661	1.6	608981	WORD	n/a	wordpools/wordpool_categorized_EN.txt	ROOSTER	FarmAnimals	7	3	[0, 0, 0]	n/a	catFR1	1	R1487T
599.278	0.783	610602	WORD_OFF	n/a	n/a	ROOSTER	FarmAnimals	7	3	[0, 0, 0]	n/a	catFR1	1	R1487T
600.061	1.6	611381	WORD	n/a	wordpools/wordpool_categorized_EN.txt	COW	FarmAnimals	8	3	[0, 0, 0]	n/a	catFR1	1	R1487T
601.678	0.934	613002	WORD_OFF	n/a	n/a	COW	FarmAnimals	8	3	[0, 0, 0]	n/a	catFR1	1	R1487T
602.612	1.6	613932	WORD	n/a	wordpools/wordpool_categorized_EN.txt	BARBIE	Toys	9	3	[0, 0, 0]	n/a	catFR1	1	R1487T
604.211	1.0	615535	WORD_OFF	n/a	n/a	BARBIE	Toys	9	3	[0, 0, 0]	n/a	catFR1	1	R1487T
605.211	1.6	616536	WORD	n/a	wordpools/wordpool_categorized_EN.txt	MARBLES	Toys	10	3	[0, 0, 0]	n/a	catFR1	1	R1487T
606.811	0.984	618130	WORD_OFF	n/a	n/a	MARBLES	Toys	10	3	[0, 0, 0]	n/a	catFR1	1	R1487T
607.795	1.6	619113	WORD	n/a	wordpools/wordpool_categorized_EN.txt	STOVE	Appliances	11	3	[0, 0, 0]	n/a	catFR1	1	R1487T
609.411	0.9	620734	WORD_OFF	n/a	n/a	STOVE	Appliances	11	3	[0, 0, 0]	n/a	catFR1	1	R1487T
610.311	1.6	621629	WORD	n/a	wordpools/wordpool_categorized_EN.txt	TOASTER	Appliances	12	3	[0, 0, 0]	n/a	catFR1	1	R1487T
611.911	0.002	623232	WORD_OFF	n/a	n/a	TOASTER	Appliances	12	3	[0, 0, 0]	n/a	catFR1	1	R1487T
611.913	0.0	623232	ENCODING_END	n/a	n/a	n/a	n/a	-999	3	[0, 0, 0]	n/a	catFR1	1	R1487T
611.912	0.001	623232	PROB	7.582	n/a	n/a	n/a	-999	3	[2, 4, 8]	14.0	catFR1	1	R1487T
611.913	0.0	623233	START	n/a	n/a	n/a	n/a	-999	3	[-999, -999, -999]	n/a	catFR1	1	R1487T
611.913	7.598	623241	DISTRACT_START	n/a	n/a	n/a	n/a	-999	3	[0, 0, 0]	n/a	catFR1	1	R1487T
619.511	5.7	630831	PROB	5.683	n/a	n/a	n/a	-999	3	[3, 4, 1]	8.0	catFR1	1	R1487T
625.211	7.317	636530	PROB	7.3	n/a	n/a	n/a	-999	3	[3, 1, 4]	8.0	catFR1	1	R1487T
632.528	0.0	643847	STOP	n/a	n/a	n/a	n/a	-999	3	[-999, -999, -999]	n/a	catFR1	1	R1487T
632.528	2.267	643851	DISTRACT_END	n/a	n/a	n/a	n/a	-999	3	[0, 0, 0]	n/a	catFR1	1	R1487T
634.795	0.856	646118	REC_START	n/a	n/a	n/a	n/a	-999	3	[0, 0, 0]	n/a	catFR1	1	R1487T
635.651	1.594	646970	REC_WORD	0.856	n/a	TOASTER	Appliances	12	3	[0, 0, 0]	n/a	catFR1	1	R1487T
637.245	1.788	648564	REC_WORD_VV	2.45	n/a	<>	n/a	-999	3	[0, 0, 0]	n/a	catFR1	1	R1487T
639.033	7.821	650352	REC_WORD_VV	4.238	n/a	<>	n/a	-999	3	[0, 0, 0]	n/a	catFR1	1	R1487T
646.854	1.0	658172	REC_WORD_VV	12.059	n/a	<>	n/a	-999	3	[0, 0, 0]	n/a	catFR1	1	R1487T
647.854	4.403	659172	REC_WORD_VV	13.059	n/a	<>	n/a	-999	3	[0, 0, 0]	n/a	catFR1	1	R1487T
652.257	3.167	663575	REC_WORD	17.462	n/a	LOAD	n/a	-999	3	[0, 0, 0]	n/a	catFR1	1	R1487T
655.424	1.0	666742	REC_WORD_VV	20.629	n/a	<>	n/a	-999	3	[0, 0, 0]	n/a	catFR1	1	R1487T
656.424	2.764	667742	REC_WORD_VV	21.629	n/a	<>	n/a	-999	3	[0, 0, 0]	n/a	catFR1	1	R1487T
659.188	1.637	670506	REC_WORD	24.393	n/a	PENCIL	OfficeSupplies	-999	3	[0, 0, 0]	n/a	catFR1	1	R1487T
660.825	3.611	672143	REC_WORD	26.03	n/a	PEN	n/a	-999	3	[0, 0, 0]	n/a	catFR1	1	R1487T
664.436	0.557	675753	REC_WORD_VV	29.641	n/a	<>	n/a	-999	3	[0, 0, 0]	n/a	catFR1	1	R1487T
664.993	6.435	676313	REC_END	n/a	n/a	n/a	n/a	-999	3	[0, 0, 0]	n/a	catFR1	1	R1487T
671.428	10.0	682752	COUNTDOWN_START	n/a	n/a	n/a	n/a	-999	4	[0, 0, 0]	n/a	catFR1	1	R1487T
681.778	0.001	693097	COUNTDOWN_END	n/a	n/a	n/a	n/a	-999	4	[0, 0, 0]	n/a	catFR1	1	R1487T
681.779	1.982	693097	ENCODING_START	n/a	n/a	n/a	n/a	-999	4	[0, 0, 0]	n/a	catFR1	1	R1487T
683.761	1.6	695081	WORD	n/a	wordpools/wordpool_categorized_EN.txt	DENIM	Fabric	1	4	[0, 0, 0]	n/a	catFR1	1	R1487T
685.361	1.0	696675	WORD_OFF	n/a	n/a	DENIM	Fabric	1	4	[0, 0, 0]	n/a	catFR1	1	R1487T
686.361	1.6	697676	WORD	n/a	wordpools/wordpool_categorized_EN.txt	SPANDEX	Fabric	2	4	[0, 0, 0]	n/a	catFR1	1	R1487T
687.961	0.833	699279	WORD_OFF	n/a	n/a	SPANDEX	Fabric	2	4	[0, 0, 0]	n/a	catFR1	1	R1487T
688.794	1.6	700112	WORD	n/a	wordpools/wordpool_categorized_EN.txt	BLENDER	Appliances	3	4	[0, 0, 0]	n/a	catFR1	1	R1487T
690.395	0.783	701715	WORD_OFF	n/a	n/a	BLENDER	Appliances	3	4	[0, 0, 0]	n/a	catFR1	1	R1487T
691.178	1.6	702495	WORD	n/a	wordpools/wordpool_categorized_EN.txt	OVEN	Appliances	4	4	[0, 0, 0]	n/a	catFR1	1	R1487T
692.778	0.934	704098	WORD_OFF	n/a	n/a	OVEN	Appliances	4	4	[0, 0, 0]	n/a	catFR1	1	R1487T
693.712	1.6	705028	WORD	n/a	wordpools/wordpool_categorized_EN.txt	ROSE	Flowers	5	4	[0, 0, 0]	n/a	catFR1	1	R1487T
695.328	0.917	706649	WORD_OFF	n/a	n/a	ROSE	Flowers	5	4	[0, 0, 0]	n/a	catFR1	1	R1487T
696.245	1.6	707561	WORD	n/a	wordpools/wordpool_categorized_EN.txt	SUNFLOWER	Flowers	6	4	[0, 0, 0]	n/a	catFR1	1	R1487T
697.845	0.933	709164	WORD_OFF	n/a	n/a	SUNFLOWER	Flowers	6	4	[0, 0, 0]	n/a	catFR1	1	R1487T
698.778	1.6	710094	WORD	n/a	wordpools/wordpool_categorized_EN.txt	SATIN	Fabric	7	4	[0, 0, 0]	n/a	catFR1	1	R1487T
700.378	0.883	711697	WORD_OFF	n/a	n/a	SATIN	Fabric	7	4	[0, 0, 0]	n/a	catFR1	1	R1487T
701.261	1.6	712574	WORD	n/a	wordpools/wordpool_categorized_EN.txt	LEATHER	Fabric	8	4	[0, 0, 0]	n/a	catFR1	1	R1487T
702.861	0.867	714177	WORD_OFF	n/a	n/a	LEATHER	Fabric	8	4	[0, 0, 0]	n/a	catFR1	1	R1487T
703.728	1.6	715045	WORD	n/a	wordpools/wordpool_categorized_EN.txt	DISHWASHER	Appliances	9	4	[0, 0, 0]	n/a	catFR1	1	R1487T
705.345	0.966	716657	WORD_OFF	n/a	n/a	DISHWASHER	Appliances	9	4	[0, 0, 0]	n/a	catFR1	1	R1487T
706.311	1.6	717631	WORD	n/a	wordpools/wordpool_categorized_EN.txt	MIXER	Appliances	10	4	[0, 0, 0]	n/a	catFR1	1	R1487T
707.929	0.882	719243	WORD_OFF	n/a	n/a	MIXER	Appliances	10	4	[0, 0, 0]	n/a	catFR1	1	R1487T
708.811	1.6	720129	WORD	n/a	wordpools/wordpool_categorized_EN.txt	MARIGOLD	Flowers	11	4	[0, 0, 0]	n/a	catFR1	1	R1487T
710.428	0.85	721741	WORD_OFF	n/a	n/a	MARIGOLD	Flowers	11	4	[0, 0, 0]	n/a	catFR1	1	R1487T
711.278	1.6	722591	WORD	n/a	wordpools/wordpool_categorized_EN.txt	DAISY	Flowers	12	4	[0, 0, 0]	n/a	catFR1	1	R1487T
712.878	0.001	724193	PROB	7.65	n/a	n/a	n/a	-999	4	[7, 4, 4]	15.0	catFR1	1	R1487T
712.879	0.0	724194	START	n/a	n/a	n/a	n/a	-999	4	[-999, -999, -999]	n/a	catFR1	1	R1487T
712.878	0.001	724195	WORD_OFF	n/a	n/a	DAISY	Flowers	12	4	[0, 0, 0]	n/a	catFR1	1	R1487T
712.879	0.0	724195	ENCODING_END	n/a	n/a	n/a	n/a	-999	4	[0, 0, 0]	n/a	catFR1	1	R1487T
712.879	7.666	724203	DISTRACT_START	n/a	n/a	n/a	n/a	-999	4	[0, 0, 0]	n/a	catFR1	1	R1487T
720.545	4.732	731859	PROB	4.716	n/a	n/a	n/a	-999	4	[5, 4, 2]	11.0	catFR1	1	R1487T
725.277	7.251	736591	PROB	7.233	n/a	n/a	n/a	-999	4	[3, 2, 8]	13.0	catFR1	1	R1487T
732.528	8.717	743842	PROB	8.7	n/a	n/a	n/a	-999	4	[6, 8, 5]	19.0	catFR1	1	R1487T
741.245	0.0	752558	STOP	n/a	n/a	n/a	n/a	-999	4	[-999, -999, -999]	n/a	catFR1	1	R1487T
741.245	2.183	752564	DISTRACT_END	n/a	n/a	n/a	n/a	-999	4	[0, 0, 0]	n/a	catFR1	1	R1487T
743.428	1.014	754742	REC_START	n/a	n/a	n/a	n/a	-999	4	[0, 0, 0]	n/a	catFR1	1	R1487T
744.442	0.801	755755	REC_WORD_VV	1.014	n/a	<>	n/a	-999	4	[0, 0, 0]	n/a	catFR1	1	R1487T
745.243	1.132	756556	REC_WORD	1.815	n/a	DENIM	Fabric	1	4	[0, 0, 0]	n/a	catFR1	1	R1487T
746.375	1.0	757688	REC_WORD_VV	2.947	n/a	<>	n/a	-999	4	[0, 0, 0]	n/a	catFR1	1	R1487T
747.375	1.253	758688	REC_WORD_VV	3.947	n/a	<>	n/a	-999	4	[0, 0, 0]	n/a	catFR1	1	R1487T
748.628	1.936	759941	REC_WORD	5.2	n/a	LOADER	n/a	-999	4	[0, 0, 0]	n/a	catFR1	1	R1487T
750.564	1.606	761877	REC_WORD	7.136	n/a	TOAST	n/a	-999	4	[0, 0, 0]	n/a	catFR1	1	R1487T
752.17	1.765	763483	REC_WORD	8.742	n/a	DENIM	Fabric	1	4	[0, 0, 0]	n/a	catFR1	1	R1487T
753.935	1.0	765248	REC_WORD_VV	10.507	n/a	<>	n/a	-999	4	[0, 0, 0]	n/a	catFR1	1	R1487T
754.935	3.987	766248	REC_WORD_VV	11.507	n/a	<>	n/a	-999	4	[0, 0, 0]	n/a	catFR1	1	R1487T
758.922	1.0	770234	REC_WORD	15.494	n/a	SATIN	Fabric	7	4	[0, 0, 0]	n/a	catFR1	1	R1487T
759.922	3.221	771234	REC_WORD	16.494	n/a	SATIN	Fabric	7	4	[0, 0, 0]	n/a	catFR1	1	R1487T
763.143	1.0	774455	REC_WORD_VV	19.715	n/a	<>	n/a	-999	4	[0, 0, 0]	n/a	catFR1	1	R1487T
764.143	5.043	775455	REC_WORD_VV	20.715	n/a	<>	n/a	-999	4	[0, 0, 0]	n/a	catFR1	1	R1487T
769.186	0.769	780498	REC_WORD_VV	25.758	n/a	<>	n/a	-999	4	[0, 0, 0]	n/a	catFR1	1	R1487T
769.955	3.65	781267	REC_WORD	26.527	n/a	POUR	n/a	-999	4	[0, 0, 0]	n/a	catFR1	1	R1487T
773.605	3.423	784919	REC_END	n/a	n/a	n/a	n/a	-999	4	[0, 0, 0]	n/a	catFR1	1	R1487T
777.028	10.0	788347	COUNTDOWN_START	n/a	n/a	n/a	n/a	-999	5	[0, 0, 0]	n/a	catFR1	1	R1487T
787.377	0.001	798692	COUNTDOWN_END	n/a	n/a	n/a	n/a	-999	5	[0, 0, 0]	n/a	catFR1	1	R1487T
787.378	2.016	798692	ENCODING_START	n/a	n/a	n/a	n/a	-999	5	[0, 0, 0]	n/a	catFR1	1	R1487T
789.394	1.6	800702	WORD	n/a	wordpools/wordpool_categorized_EN.txt	SUEDE	Fabric	1	5	[0, 0, 0]	n/a	catFR1	1	R1487T
790.995	0.848	802306	WORD_OFF	n/a	n/a	SUEDE	Fabric	1	5	[0, 0, 0]	n/a	catFR1	1	R1487T
791.843	1.6	803156	WORD	n/a	wordpools/wordpool_categorized_EN.txt	LINEN	Fabric	2	5	[0, 0, 0]	n/a	catFR1	1	R1487T
793.444	0.917	804759	WORD_OFF	n/a	n/a	LINEN	Fabric	2	5	[0, 0, 0]	n/a	catFR1	1	R1487T
794.361	1.6	805671	WORD	n/a	wordpools/wordpool_categorized_EN.txt	VIOLIN	Instruments	3	5	[0, 0, 0]	n/a	catFR1	1	R1487T
795.961	0.799	807274	WORD_OFF	n/a	n/a	VIOLIN	Instruments	3	5	[0, 0, 0]	n/a	catFR1	1	R1487T
796.76	1.6	808072	WORD	n/a	wordpools/wordpool_categorized_EN.txt	PIANO	Instruments	4	5	[0, 0, 0]	n/a	catFR1	1	R1487T
798.36	0.867	809675	WORD_OFF	n/a	n/a	PIANO	Instruments	4	5	[0, 0, 0]	n/a	catFR1	1	R1487T
799.227	1.6	810543	WORD	n/a	wordpools/wordpool_categorized_EN.txt	MAPLE	Trees	5	5	[0, 0, 0]	n/a	catFR1	1	R1487T
800.828	0.783	812137	WORD_OFF	n/a	n/a	MAPLE	Trees	5	5	[0, 0, 0]	n/a	catFR1	1	R1487T
801.611	1.6	812925	WORD	n/a	wordpools/wordpool_categorized_EN.txt	CYPRESS	Trees	6	5	[0, 0, 0]	n/a	catFR1	1	R1487T
803.211	0.885	814520	WORD_OFF	n/a	n/a	CYPRESS	Trees	6	5	[0, 0, 0]	n/a	catFR1	1	R1487T
804.096	1.6	815405	WORD	n/a	wordpools/wordpool_categorized_EN.txt	CELLO	Instruments	7	5	[0, 0, 0]	n/a	catFR1	1	R1487T
805.711	0.834	817026	WORD_OFF	n/a	n/a	CELLO	Instruments	7	5	[0, 0, 0]	n/a	catFR1	1	R1487T
806.545	1.6	817859	WORD	n/a	wordpools/wordpool_categorized_EN.txt	TRUMPET	Instruments	8	5	[0, 0, 0]	n/a	catFR1	1	R1487T
808.161	0.917	819471	WORD_OFF	n/a	n/a	TRUMPET	Instruments	8	5	[0, 0, 0]	n/a	catFR1	1	R1487T
809.078	1.6	820392	WORD	n/a	wordpools/wordpool_categorized_EN.txt	WOOL	Fabric	9	5	[0, 0, 0]	n/a	catFR1	1	R1487T
810.678	0.984	821986	WORD_OFF	n/a	n/a	WOOL	Fabric	9	5	[0, 0, 0]	n/a	catFR1	1	R1487T
811.662	1.6	822969	WORD	n/a	wordpools/wordpool_categorized_EN.txt	SILK	Fabric	10	5	[0, 0, 0]	n/a	catFR1	1	R1487T
813.278	0.782	824590	WORD_OFF	n/a	n/a	SILK	Fabric	10	5	[0, 0, 0]	n/a	catFR1	1	R1487T
814.06	1.6	825370	WORD	n/a	wordpools/wordpool_categorized_EN.txt	HICKORY	Trees	11	5	[0, 0, 0]	n/a	catFR1	1	R1487T
815.661	0.783	826973	WORD_OFF	n/a	n/a	HICKORY	Trees	11	5	[0, 0, 0]	n/a	catFR1	1	R1487T
816.444	1.6	827752	WORD	n/a	wordpools/wordpool_categorized_EN.txt	BIRCH	Trees	12	5	[0, 0, 0]	n/a	catFR1	1	R1487T
818.062	0.001	829371	PROB	6.532	n/a	n/a	n/a	-999	5	[1, 2, 6]	9.0	catFR1	1	R1487T
818.063	0.0	829372	START	n/a	n/a	n/a	n/a	-999	5	[-999, -999, -999]	n/a	catFR1	1	R1487T
818.061	0.002	829373	WORD_OFF	n/a	n/a	BIRCH	Trees	12	5	[0, 0, 0]	n/a	catFR1	1	R1487T
818.063	0.0	829373	ENCODING_END	n/a	n/a	n/a	n/a	-999	5	[0, 0, 0]	n/a	catFR1	1	R1487T
818.063	6.548	829373	DISTRACT_START	n/a	n/a	n/a	n/a	-999	5	[0, 0, 0]	n/a	catFR1	1	R1487T
824.611	6.084	835920	PROB	6.067	n/a	n/a	n/a	-999	5	[4, 5, 2]	11.0	catFR1	1	R1487T
830.695	7.917	842004	PROB	7.9	n/a	n/a	n/a	-999	5	[8, 6, 8]	22.0	catFR1	1	R1487T
838.612	0.0	849920	STOP	n/a	n/a	n/a	n/a	-999	5	[-999, -999, -999]	n/a	catFR1	1	R1487T
838.612	2.166	849922	DISTRACT_END	n/a	n/a	n/a	n/a	-999	5	[0, 0, 0]	n/a	catFR1	1	R1487T
840.778	1.69	852091	REC_START	n/a	n/a	n/a	n/a	-999	5	[0, 0, 0]	n/a	catFR1	1	R1487T
842.468	1.0	853776	REC_WORD_VV	1.69	n/a	<>	n/a	-999	5	[0, 0, 0]	n/a	catFR1	1	R1487T
843.468	1.0	854776	REC_WORD_VV	2.69	n/a	<>	n/a	-999	5	[0, 0, 0]	n/a	catFR1	1	R1487T
844.468	1.0	855776	REC_WORD_VV	3.69	n/a	<>	n/a	-999	5	[0, 0, 0]	n/a	catFR1	1	R1487T
845.468	5.105	856776	REC_WORD_VV	4.69	n/a	<>	n/a	-999	5	[0, 0, 0]	n/a	catFR1	1	R1487T
850.573	0.779	861881	REC_WORD	9.795	n/a	DIRT	n/a	-999	5	[0, 0, 0]	n/a	catFR1	1	R1487T
851.352	1.184	862660	REC_WORD	10.574	n/a	CLEAN	n/a	-999	5	[0, 0, 0]	n/a	catFR1	1	R1487T
852.536	2.076	863844	REC_WORD	11.758	n/a	BOARD	n/a	-999	5	[0, 0, 0]	n/a	catFR1	1	R1487T
854.612	4.406	865919	REC_WORD_VV	13.834	n/a	<>	n/a	-999	5	[0, 0, 0]	n/a	catFR1	1	R1487T
859.018	1.0	870325	REC_WORD_VV	18.24	n/a	<>	n/a	-999	5	[0, 0, 0]	n/a	catFR1	1	R1487T
860.018	1.0	871325	REC_WORD_VV	19.24	n/a	<>	n/a	-999	5	[0, 0, 0]	n/a	catFR1	1	R1487T
861.018	1.693	872325	REC_WORD_VV	20.24	n/a	<>	n/a	-999	5	[0, 0, 0]	n/a	catFR1	1	R1487T
862.711	2.174	874018	REC_WORD	21.933	n/a	HICKORY	Trees	11	5	[0, 0, 0]	n/a	catFR1	1	R1487T
864.885	1.0	876192	REC_WORD	24.107	n/a	BOARDS	n/a	-999	5	[0, 0, 0]	n/a	catFR1	1	R1487T
865.885	1.351	877192	REC_WORD	25.107	n/a	BOARDS	n/a	-999	5	[0, 0, 0]	n/a	catFR1	1	R1487T
867.236	1.0	878543	REC_WORD	26.458	n/a	SATIN	Fabric	-999	5	[0, 0, 0]	n/a	catFR1	1	R1487T
868.236	2.222	879543	REC_WORD	27.458	n/a	SATIN	Fabric	-999	5	[0, 0, 0]	n/a	catFR1	1	R1487T
870.458	0.557	881765	REC_WORD_VV	29.68	n/a	<>	n/a	-999	5	[0, 0, 0]	n/a	catFR1	1	R1487T
871.015	4.846	882321	REC_END	n/a	n/a	n/a	n/a	-999	5	[0, 0, 0]	n/a	catFR1	1	R1487T
875.861	10.0	887175	COUNTDOWN_START	n/a	n/a	n/a	n/a	-999	6	[0, 0, 0]	n/a	catFR1	1	R1487T
886.211	0.001	897520	COUNTDOWN_END	n/a	n/a	n/a	n/a	-999	6	[0, 0, 0]	n/a	catFR1	1	R1487T
886.212	2.049	897520	ENCODING_START	n/a	n/a	n/a	n/a	-999	6	[0, 0, 0]	n/a	catFR1	1	R1487T
888.261	1.6	899566	WORD	n/a	wordpools/wordpool_categorized_EN.txt	CEDAR	Trees	1	6	[0, 0, 0]	n/a	catFR1	1	R1487T
889.862	0.933	901169	WORD_OFF	n/a	n/a	CEDAR	Trees	1	6	[0, 0, 0]	n/a	catFR1	1	R1487T
890.795	1.6	902099	WORD	n/a	wordpools/wordpool_categorized_EN.txt	WALNUT	Trees	2	6	[0, 0, 0]	n/a	catFR1	1	R1487T
892.411	0.831	903720	WORD_OFF	n/a	n/a	WALNUT	Trees	2	6	[0, 0, 0]	n/a	catFR1	1	R1487T
893.242	1.6	904552	WORD	n/a	wordpools/wordpool_categorized_EN.txt	NYLON	Fabric	3	6	[0, 0, 0]	n/a	catFR1	1	R1487T
894.844	0.867	906147	WORD_OFF	n/a	n/a	NYLON	Fabric	3	6	[0, 0, 0]	n/a	catFR1	1	R1487T
895.711	1.6	907015	WORD	n/a	wordpools/wordpool_categorized_EN.txt	VELVET	Fabric	4	6	[0, 0, 0]	n/a	catFR1	1	R1487T
897.311	1.0	908618	WORD_OFF	n/a	n/a	VELVET	Fabric	4	6	[0, 0, 0]	n/a	catFR1	1	R1487T
898.311	1.6	909619	WORD	n/a	wordpools/wordpool_categorized_EN.txt	BIKE	Vehicles	5	6	[0, 0, 0]	n/a	catFR1	1	R1487T
899.911	0.916	911222	WORD_OFF	n/a	n/a	BIKE	Vehicles	5	6	[0, 0, 0]	n/a	catFR1	1	R1487T
900.827	1.6	912134	WORD	n/a	wordpools/wordpool_categorized_EN.txt	MOPED	Vehicles	6	6	[0, 0, 0]	n/a	catFR1	1	R1487T
902.428	0.917	913737	WORD_OFF	n/a	n/a	MOPED	Vehicles	6	6	[0, 0, 0]	n/a	catFR1	1	R1487T
903.345	1.6	914650	WORD	n/a	wordpools/wordpool_categorized_EN.txt	SPRUCE	Trees	7	6	[0, 0, 0]	n/a	catFR1	1	R1487T
904.945	0.966	916253	WORD_OFF	n/a	n/a	SPRUCE	Trees	7	6	[0, 0, 0]	n/a	catFR1	1	R1487T
905.911	1.6	917218	WORD	n/a	wordpools/wordpool_categorized_EN.txt	OAK	Trees	8	6	[0, 0, 0]	n/a	catFR1	1	R1487T
907.528	0.982	918839	WORD_OFF	n/a	n/a	OAK	Trees	8	6	[0, 0, 0]	n/a	catFR1	1	R1487T
908.51	1.6	919813	WORD	n/a	wordpools/wordpool_categorized_EN.txt	COTTON	Fabric	9	6	[0, 0, 0]	n/a	catFR1	1	R1487T
910.111	1.001	921416	WORD_OFF	n/a	n/a	COTTON	Fabric	9	6	[0, 0, 0]	n/a	catFR1	1	R1487T
911.112	1.6	922417	WORD	n/a	wordpools/wordpool_categorized_EN.txt	FLEECE	Fabric	10	6	[0, 0, 0]	n/a	catFR1	1	R1487T
912.727	0.884	924029	WORD_OFF	n/a	n/a	FLEECE	Fabric	10	6	[0, 0, 0]	n/a	catFR1	1	R1487T
913.611	1.6	924915	WORD	n/a	wordpools/wordpool_categorized_EN.txt	CAR	Vehicles	11	6	[0, 0, 0]	n/a	catFR1	1	R1487T
915.227	0.934	926536	WORD_OFF	n/a	n/a	CAR	Vehicles	11	6	[0, 0, 0]	n/a	catFR1	1	R1487T
916.161	1.6	927466	WORD	n/a	wordpools/wordpool_categorized_EN.txt	JEEP	Vehicles	12	6	[0, 0, 0]	n/a	catFR1	1	R1487T
917.777	0.002	929081	PROB	6.934	n/a	n/a	n/a	-999	6	[8, 8, 1]	17.0	catFR1	1	R1487T
917.779	0.0	929083	START	n/a	n/a	n/a	n/a	-999	6	[-999, -999, -999]	n/a	catFR1	1	R1487T
917.777	0.002	929087	WORD_OFF	n/a	n/a	JEEP	Vehicles	12	6	[0, 0, 0]	n/a	catFR1	1	R1487T
917.779	0.0	929087	ENCODING_END	n/a	n/a	n/a	n/a	-999	6	[0, 0, 0]	n/a	catFR1	1	R1487T
917.779	6.949	929087	DISTRACT_START	n/a	n/a	n/a	n/a	-999	6	[0, 0, 0]	n/a	catFR1	1	R1487T
924.728	6.334	936032	PROB	6.316	n/a	n/a	n/a	-999	6	[6, 3, 1]	10.0	catFR1	1	R1487T
931.062	6.151	942365	PROB	6.133	n/a	n/a	n/a	-999	6	[3, 4, 7]	14.0	catFR1	1	R1487T
937.213	6.365	948516	PROB	6.349	n/a	n/a	n/a	-999	6	[8, 8, 1]	17.0	catFR1	1	R1487T
943.578	0.0	954879	DISTRACT_END	n/a	n/a	n/a	n/a	-999	6	[0, 0, 0]	n/a	catFR1	1	R1487T
943.578	2.216	954881	STOP	n/a	n/a	n/a	n/a	-999	6	[-999, -999, -999]	n/a	catFR1	1	R1487T
945.794	0.388	957101	REC_START	n/a	n/a	n/a	n/a	-999	6	[0, 0, 0]	n/a	catFR1	1	R1487T
946.182	1.0	957485	REC_WORD	0.388	n/a	FLEECE	Fabric	10	6	[0, 0, 0]	n/a	catFR1	1	R1487T
947.182	1.207	958485	REC_WORD	1.388	n/a	FLEECE	Fabric	10	6	[0, 0, 0]	n/a	catFR1	1	R1487T
948.389	0.748	959692	REC_WORD_VV	2.595	n/a	<>	n/a	-999	6	[0, 0, 0]	n/a	catFR1	1	R1487T
949.137	2.695	960440	REC_WORD	3.343	n/a	BIRCH	Trees	-999	6	[0, 0, 0]	n/a	catFR1	1	R1487T
951.832	1.0	963134	REC_WORD_VV	6.038	n/a	<>	n/a	-999	6	[0, 0, 0]	n/a	catFR1	1	R1487T
952.832	1.0	964134	REC_WORD_VV	7.038	n/a	<>	n/a	-999	6	[0, 0, 0]	n/a	catFR1	1	R1487T
953.832	1.0	965134	REC_WORD_VV	8.038	n/a	<>	n/a	-999	6	[0, 0, 0]	n/a	catFR1	1	R1487T
954.832	3.384	966134	REC_WORD_VV	9.038	n/a	<>	n/a	-999	6	[0, 0, 0]	n/a	catFR1	1	R1487T
958.216	1.0	969518	REC_WORD	12.422	n/a	CEDAR	Trees	1	6	[0, 0, 0]	n/a	catFR1	1	R1487T
959.216	16.805	970518	REC_WORD	13.422	n/a	CEDAR	Trees	1	6	[0, 0, 0]	n/a	catFR1	1	R1487T
976.021	12.64	987322	REC_END	n/a	n/a	n/a	n/a	-999	6	[0, 0, 0]	n/a	catFR1	1	R1487T
988.661	10.0	999970	COUNTDOWN_START	n/a	n/a	n/a	n/a	-999	7	[0, 0, 0]	n/a	catFR1	1	R1487T
999.012	0.0	1010316	COUNTDOWN_END	n/a	n/a	n/a	n/a	-999	7	[0, 0, 0]	n/a	catFR1	1	R1487T
999.012	2.083	1010316	ENCODING_START	n/a	n/a	n/a	n/a	-999	7	[0, 0, 0]	n/a	catFR1	1	R1487T
1001.095	1.6	1012397	WORD	n/a	wordpools/wordpool_categorized_EN.txt	CHEETAH	Zoo	1	7	[0, 0, 0]	n/a	catFR1	1	R1487T
1002.711	0.884	1014009	WORD_OFF	n/a	n/a	CHEETAH	Zoo	1	7	[0, 0, 0]	n/a	catFR1	1	R1487T
1003.595	1.6	1014895	WORD	n/a	wordpools/wordpool_categorized_EN.txt	BEAR	Zoo	2	7	[0, 0, 0]	n/a	catFR1	1	R1487T
1005.211	0.983	1016516	WORD_OFF	n/a	n/a	BEAR	Zoo	2	7	[0, 0, 0]	n/a	catFR1	1	R1487T
1006.194	1.6	1017499	WORD	n/a	wordpools/wordpool_categorized_EN.txt	OCTOPUS	OceanAnimals	3	7	[0, 0, 0]	n/a	catFR1	1	R1487T
1007.795	0.85	1019093	WORD_OFF	n/a	n/a	OCTOPUS	OceanAnimals	3	7	[0, 0, 0]	n/a	catFR1	1	R1487T
1008.645	1.6	1019943	WORD	n/a	wordpools/wordpool_categorized_EN.txt	LOBSTER	OceanAnimals	4	7	[0, 0, 0]	n/a	catFR1	1	R1487T
1010.262	0.949	1021564	WORD_OFF	n/a	n/a	LOBSTER	OceanAnimals	4	7	[0, 0, 0]	n/a	catFR1	1	R1487T
1011.211	1.6	1022512	WORD	n/a	wordpools/wordpool_categorized_EN.txt	DOLLHOUSE	Toys	5	7	[0, 0, 0]	n/a	catFR1	1	R1487T
1012.827	0.95	1024133	WORD_OFF	n/a	n/a	DOLLHOUSE	Toys	5	7	[0, 0, 0]	n/a	catFR1	1	R1487T
1013.777	1.6	1025080	WORD	n/a	wordpools/wordpool_categorized_EN.txt	FRISBEE	Toys	6	7	[0, 0, 0]	n/a	catFR1	1	R1487T
1015.393	0.801	1026692	WORD_OFF	n/a	n/a	FRISBEE	Toys	6	7	[0, 0, 0]	n/a	catFR1	1	R1487T
1016.194	1.6	1027498	WORD	n/a	wordpools/wordpool_categorized_EN.txt	GORILLA	Zoo	7	7	[0, 0, 0]	n/a	catFR1	1	R1487T
1017.794	0.934	1029093	WORD_OFF	n/a	n/a	GORILLA	Zoo	7	7	[0, 0, 0]	n/a	catFR1	1	R1487T
1018.728	1.6	1030031	WORD	n/a	wordpools/wordpool_categorized_EN.txt	ELEPHANT	Zoo	8	7	[0, 0, 0]	n/a	catFR1	1	R1487T
1020.345	0.883	1031643	WORD_OFF	n/a	n/a	ELEPHANT	Zoo	8	7	[0, 0, 0]	n/a	catFR1	1	R1487T
1021.228	1.6	1032529	WORD	n/a	wordpools/wordpool_categorized_EN.txt	FOOTBALL	Toys	9	7	[0, 0, 0]	n/a	catFR1	1	R1487T
1022.828	0.933	1034132	WORD_OFF	n/a	n/a	FOOTBALL	Toys	9	7	[0, 0, 0]	n/a	catFR1	1	R1487T
1023.761	1.6	1035062	WORD	n/a	wordpools/wordpool_categorized_EN.txt	BLOCKS	Toys	10	7	[0, 0, 0]	n/a	catFR1	1	R1487T
1025.378	0.917	1036683	WORD_OFF	n/a	n/a	BLOCKS	Toys	10	7	[0, 0, 0]	n/a	catFR1	1	R1487T
1026.295	1.6	1037595	WORD	n/a	wordpools/wordpool_categorized_EN.txt	FISH	OceanAnimals	11	7	[0, 0, 0]	n/a	catFR1	1	R1487T
1027.895	0.8	1039199	WORD_OFF	n/a	n/a	FISH	OceanAnimals	11	7	[0, 0, 0]	n/a	catFR1	1	R1487T
1028.695	1.6	1039996	WORD	n/a	wordpools/wordpool_categorized_EN.txt	TURTLE	OceanAnimals	12	7	[0, 0, 0]	n/a	catFR1	1	R1487T
1030.311	0.0	1041608	WORD_OFF	n/a	n/a	TURTLE	OceanAnimals	12	7	[0, 0, 0]	n/a	catFR1	1	R1487T
1030.311	0.001	1041609	PROB	6.634	n/a	n/a	n/a	-999	7	[2, 7, 2]	11.0	catFR1	1	R1487T
1030.312	0.0	1041610	START	n/a	n/a	n/a	n/a	-999	7	[-999, -999, -999]	n/a	catFR1	1	R1487T
1030.312	0.0	1041617	ENCODING_END	n/a	n/a	n/a	n/a	-999	7	[0, 0, 0]	n/a	catFR1	1	R1487T
1030.312	6.65	1041617	DISTRACT_START	n/a	n/a	n/a	n/a	-999	7	[0, 0, 0]	n/a	catFR1	1	R1487T
1036.962	5.033	1048260	PROB	5.016	n/a	n/a	n/a	-999	7	[2, 3, 1]	6.0	catFR1	1	R1487T
1041.995	5.35	1053293	PROB	5.333	n/a	n/a	n/a	-999	7	[4, 6, 7]	17.0	catFR1	1	R1487T
1047.345	6.016	1058642	PROB	5.999	n/a	n/a	n/a	-999	7	[1, 4, 8]	13.0	catFR1	1	R1487T
1053.361	0.0	1064658	STOP	n/a	n/a	n/a	n/a	-999	7	[-999, -999, -999]	n/a	catFR1	1	R1487T
1053.361	2.248	1064663	DISTRACT_END	n/a	n/a	n/a	n/a	-999	7	[0, 0, 0]	n/a	catFR1	1	R1487T
1055.609	1.104	1066912	REC_START	n/a	n/a	n/a	n/a	-999	7	[0, 0, 0]	n/a	catFR1	1	R1487T
1056.713	0.76	1068010	REC_WORD	1.104	n/a	FLEECE	Fabric	-999	7	[0, 0, 0]	n/a	catFR1	1	R1487T
1057.473	2.072	1068770	REC_WORD	1.864	n/a	WOOD	n/a	-999	7	[0, 0, 0]	n/a	catFR1	1	R1487T
1059.545	0.464	1070842	REC_WORD_VV	3.936	n/a	<>	n/a	-999	7	[0, 0, 0]	n/a	catFR1	1	R1487T
1060.009	4.519	1071306	REC_WORD	4.4	n/a	CAR	Vehicles	-999	7	[0, 0, 0]	n/a	catFR1	1	R1487T
1064.528	5.97	1075825	REC_WORD_VV	8.919	n/a	<>	n/a	-999	7	[0, 0, 0]	n/a	catFR1	1	R1487T
1070.498	2.72	1081794	REC_WORD	14.889	n/a	TRUCK	Vehicles	-999	7	[0, 0, 0]	n/a	catFR1	1	R1487T
1073.218	1.0	1084514	REC_WORD_VV	17.609	n/a	<>	n/a	-999	7	[0, 0, 0]	n/a	catFR1	1	R1487T
1074.218	1.0	1085514	REC_WORD_VV	18.609	n/a	<>	n/a	-999	7	[0, 0, 0]	n/a	catFR1	1	R1487T
1075.218	2.337	1086514	REC_WORD_VV	19.609	n/a	<>	n/a	-999	7	[0, 0, 0]	n/a	catFR1	1	R1487T
1077.555	1.0	1088851	REC_WORD_VV	21.946	n/a	<>	n/a	-999	7	[0, 0, 0]	n/a	catFR1	1	R1487T
1078.555	1.0	1089851	REC_WORD_VV	22.946	n/a	<>	n/a	-999	7	[0, 0, 0]	n/a	catFR1	1	R1487T
1079.555	4.038	1090851	REC_WORD_VV	23.946	n/a	<>	n/a	-999	7	[0, 0, 0]	n/a	catFR1	1	R1487T
1083.593	1.0	1094889	REC_WORD_VV	27.984	n/a	<>	n/a	-999	7	[0, 0, 0]	n/a	catFR1	1	R1487T
1084.593	1.229	1095889	REC_WORD_VV	28.984	n/a	<>	n/a	-999	7	[0, 0, 0]	n/a	catFR1	1	R1487T
1085.822	3.523	1097115	REC_END	n/a	n/a	n/a	n/a	-999	7	[0, 0, 0]	n/a	catFR1	1	R1487T
1089.345	10.0	1100641	COUNTDOWN_START	n/a	n/a	n/a	n/a	-999	8	[0, 0, 0]	n/a	catFR1	1	R1487T
1099.694	0.0	1110995	COUNTDOWN_END	n/a	n/a	n/a	n/a	-999	8	[0, 0, 0]	n/a	catFR1	1	R1487T
1099.694	1.932	1110995	ENCODING_START	n/a	n/a	n/a	n/a	-999	8	[0, 0, 0]	n/a	catFR1	1	R1487T
1101.626	1.6	1112925	WORD	n/a	wordpools/wordpool_categorized_EN.txt	SHEEP	FarmAnimals	1	8	[0, 0, 0]	n/a	catFR1	1	R1487T
1103.228	0.767	1114529	WORD_OFF	n/a	n/a	SHEEP	FarmAnimals	1	8	[0, 0, 0]	n/a	catFR1	1	R1487T
1103.995	1.6	1115290	WORD	n/a	wordpools/wordpool_categorized_EN.txt	PIG	FarmAnimals	2	8	[0, 0, 0]	n/a	catFR1	1	R1487T
1105.595	0.799	1116893	WORD_OFF	n/a	n/a	PIG	FarmAnimals	2	8	[0, 0, 0]	n/a	catFR1	1	R1487T
1106.394	1.6	1117691	WORD	n/a	wordpools/wordpool_categorized_EN.txt	DUCK	Birds	3	8	[0, 0, 0]	n/a	catFR1	1	R1487T
1107.995	0.783	1119294	WORD_OFF	n/a	n/a	DUCK	Birds	3	8	[0, 0, 0]	n/a	catFR1	1	R1487T
1108.778	1.6	1120073	WORD	n/a	wordpools/wordpool_categorized_EN.txt	PIGEON	Birds	4	8	[0, 0, 0]	n/a	catFR1	1	R1487T
1110.378	1.0	1121676	WORD_OFF	n/a	n/a	PIGEON	Birds	4	8	[0, 0, 0]	n/a	catFR1	1	R1487T
1111.378	1.6	1122677	WORD	n/a	wordpools/wordpool_categorized_EN.txt	BROWNIES	Desserts	5	8	[0, 0, 0]	n/a	catFR1	1	R1487T
1112.995	0.948	1124289	WORD_OFF	n/a	n/a	BROWNIES	Desserts	5	8	[0, 0, 0]	n/a	catFR1	1	R1487T
1113.943	1.6	1125237	WORD	n/a	wordpools/wordpool_categorized_EN.txt	PIE	Desserts	6	8	[0, 0, 0]	n/a	catFR1	1	R1487T
1115.544	0.816	1126840	WORD_OFF	n/a	n/a	PIE	Desserts	6	8	[0, 0, 0]	n/a	catFR1	1	R1487T
1116.36	1.6	1127655	WORD	n/a	wordpools/wordpool_categorized_EN.txt	SEAGULL	Birds	7	8	[0, 0, 0]	n/a	catFR1	1	R1487T
1117.961	0.916	1129258	WORD_OFF	n/a	n/a	SEAGULL	Birds	7	8	[0, 0, 0]	n/a	catFR1	1	R1487T
1118.877	1.6	1130170	WORD	n/a	wordpools/wordpool_categorized_EN.txt	BLUEBIRD	Birds	8	8	[0, 0, 0]	n/a	catFR1	1	R1487T
1120.478	0.916	1131773	WORD_OFF	n/a	n/a	BLUEBIRD	Birds	8	8	[0, 0, 0]	n/a	catFR1	1	R1487T
1121.394	1.6	1132686	WORD	n/a	wordpools/wordpool_categorized_EN.txt	HEN	FarmAnimals	9	8	[0, 0, 0]	n/a	catFR1	1	R1487T
1122.995	0.816	1134289	WORD_OFF	n/a	n/a	HEN	FarmAnimals	9	8	[0, 0, 0]	n/a	catFR1	1	R1487T
1123.811	1.6	1135104	WORD	n/a	wordpools/wordpool_categorized_EN.txt	CALF	FarmAnimals	10	8	[0, 0, 0]	n/a	catFR1	1	R1487T
1125.428	0.899	1136725	WORD_OFF	n/a	n/a	CALF	FarmAnimals	10	8	[0, 0, 0]	n/a	catFR1	1	R1487T
1126.327	1.6	1137619	WORD	n/a	wordpools/wordpool_categorized_EN.txt	CHEESECAKE	Desserts	11	8	[0, 0, 0]	n/a	catFR1	1	R1487T
1127.928	0.933	1139222	WORD_OFF	n/a	n/a	CHEESECAKE	Desserts	11	8	[0, 0, 0]	n/a	catFR1	1	R1487T
1128.861	1.6	1140152	WORD	n/a	wordpools/wordpool_categorized_EN.txt	JELLO	Desserts	12	8	[0, 0, 0]	n/a	catFR1	1	R1487T
1130.478	0.001	1141771	PROB	8.099	n/a	n/a	n/a	-999	8	[6, 7, 7]	20.0	catFR1	1	R1487T
1130.479	0.0	1141772	START	n/a	n/a	n/a	n/a	-999	8	[-999, -999, -999]	n/a	catFR1	1	R1487T
1130.477	0.002	1141773	WORD_OFF	n/a	n/a	JELLO	Desserts	12	8	[0, 0, 0]	n/a	catFR1	1	R1487T
1130.479	0.0	1141773	ENCODING_END	n/a	n/a	n/a	n/a	-999	8	[0, 0, 0]	n/a	catFR1	1	R1487T
1130.479	8.116	1141773	DISTRACT_START	n/a	n/a	n/a	n/a	-999	8	[0, 0, 0]	n/a	catFR1	1	R1487T
1138.595	8.3	1149888	PROB	8.283	n/a	n/a	n/a	-999	8	[7, 6, 2]	15.0	catFR1	1	R1487T
1146.895	6.449	1158187	PROB	6.432	n/a	n/a	n/a	-999	8	[6, 7, 2]	15.0	catFR1	1	R1487T
1153.344	0.0	1164636	STOP	n/a	n/a	n/a	n/a	-999	8	[-999, -999, -999]	n/a	catFR1	1	R1487T
1153.344	2.167	1164642	DISTRACT_END	n/a	n/a	n/a	n/a	-999	8	[0, 0, 0]	n/a	catFR1	1	R1487T
1155.511	1.918	1166803	REC_START	n/a	n/a	n/a	n/a	-999	8	[0, 0, 0]	n/a	catFR1	1	R1487T
1157.429	1.0	1168721	REC_WORD_VV	1.918	n/a	<>	n/a	-999	8	[0, 0, 0]	n/a	catFR1	1	R1487T
1158.429	0.322	1169721	REC_WORD_VV	2.918	n/a	<>	n/a	-999	8	[0, 0, 0]	n/a	catFR1	1	R1487T
1158.751	0.676	1170043	REC_WORD	3.24	n/a	BOWL	n/a	-999	8	[0, 0, 0]	n/a	catFR1	1	R1487T
1159.427	1.77	1170719	REC_WORD	3.916	n/a	CORN	n/a	-999	8	[0, 0, 0]	n/a	catFR1	1	R1487T
1161.197	0.666	1172489	REC_WORD_VV	5.686	n/a	<>	n/a	-999	8	[0, 0, 0]	n/a	catFR1	1	R1487T
1161.863	1.0	1173155	REC_WORD	6.352	n/a	SPOON	n/a	-999	8	[0, 0, 0]	n/a	catFR1	1	R1487T
1162.863	2.421	1174154	REC_WORD	7.352	n/a	SPOON	n/a	-999	8	[0, 0, 0]	n/a	catFR1	1	R1487T
1165.284	0.599	1176575	REC_WORD_VV	9.773	n/a	<>	n/a	-999	8	[0, 0, 0]	n/a	catFR1	1	R1487T
1165.883	3.588	1177174	REC_WORD	10.372	n/a	ELEPHANT	Zoo	-999	8	[0, 0, 0]	n/a	catFR1	1	R1487T
1169.471	1.0	1180762	REC_WORD_VV	13.96	n/a	<>	n/a	-999	8	[0, 0, 0]	n/a	catFR1	1	R1487T
1170.471	1.0	1181762	REC_WORD_VV	14.96	n/a	<>	n/a	-999	8	[0, 0, 0]	n/a	catFR1	1	R1487T
1171.471	1.506	1182762	REC_WORD_VV	15.96	n/a	<>	n/a	-999	8	[0, 0, 0]	n/a	catFR1	1	R1487T
1172.977	1.0	1184268	REC_WORD	17.466	n/a	OCTOPUS	OceanAnimals	-999	8	[0, 0, 0]	n/a	catFR1	1	R1487T
1173.977	0.109	1185268	REC_WORD	18.466	n/a	OCTOPUS	OceanAnimals	-999	8	[0, 0, 0]	n/a	catFR1	1	R1487T
1174.086	9.045	1185377	REC_WORD	18.575	n/a	CHEETAH	Zoo	-999	8	[0, 0, 0]	n/a	catFR1	1	R1487T
1183.131	1.0	1194421	REC_WORD_VV	27.62	n/a	<>	n/a	-999	8	[0, 0, 0]	n/a	catFR1	1	R1487T
1184.131	1.597	1195421	REC_WORD_VV	28.62	n/a	<>	n/a	-999	8	[0, 0, 0]	n/a	catFR1	1	R1487T
1185.728	4.516	1197024	REC_END	n/a	n/a	n/a	n/a	-999	8	[0, 0, 0]	n/a	catFR1	1	R1487T
1190.244	10.0	1201541	COUNTDOWN_START	n/a	n/a	n/a	n/a	-999	9	[0, 0, 0]	n/a	catFR1	1	R1487T
1200.595	0.0	1211886	COUNTDOWN_END	n/a	n/a	n/a	n/a	-999	9	[0, 0, 0]	n/a	catFR1	1	R1487T
1200.595	2.2	1211886	ENCODING_START	n/a	n/a	n/a	n/a	-999	9	[0, 0, 0]	n/a	catFR1	1	R1487T
1202.795	1.6	1214083	WORD	n/a	wordpools/wordpool_categorized_EN.txt	FUDGE	Desserts	1	9	[0, 0, 0]	n/a	catFR1	1	R1487T
1204.395	0.867	1215686	WORD_OFF	n/a	n/a	FUDGE	Desserts	1	9	[0, 0, 0]	n/a	catFR1	1	R1487T
1205.262	1.6	1216554	WORD	n/a	wordpools/wordpool_categorized_EN.txt	COBBLER	Desserts	2	9	[0, 0, 0]	n/a	catFR1	1	R1487T
1206.876	0.852	1218166	WORD_OFF	n/a	n/a	COBBLER	Desserts	2	9	[0, 0, 0]	n/a	catFR1	1	R1487T
1207.728	1.6	1219016	WORD	n/a	wordpools/wordpool_categorized_EN.txt	DOOR	Building	3	9	[0, 0, 0]	n/a	catFR1	1	R1487T
1209.345	0.949	1220637	WORD_OFF	n/a	n/a	DOOR	Building	3	9	[0, 0, 0]	n/a	catFR1	1	R1487T
1210.294	1.6	1221585	WORD	n/a	wordpools/wordpool_categorized_EN.txt	CEILING	Building	4	9	[0, 0, 0]	n/a	catFR1	1	R1487T
1211.895	0.949	1223188	WORD_OFF	n/a	n/a	CEILING	Building	4	9	[0, 0, 0]	n/a	catFR1	1	R1487T
1212.844	1.6	1224136	WORD	n/a	wordpools/wordpool_categorized_EN.txt	PUZZLE	Toys	5	9	[0, 0, 0]	n/a	catFR1	1	R1487T
1214.445	0.767	1225739	WORD_OFF	n/a	n/a	PUZZLE	Toys	5	9	[0, 0, 0]	n/a	catFR1	1	R1487T
1215.212	1.6	1226501	WORD	n/a	wordpools/wordpool_categorized_EN.txt	BASKETBALL	Toys	6	9	[0, 0, 0]	n/a	catFR1	1	R1487T
1216.828	0.766	1228121	WORD_OFF	n/a	n/a	BASKETBALL	Toys	6	9	[0, 0, 0]	n/a	catFR1	1	R1487T
1217.594	1.6	1228883	WORD	n/a	wordpools/wordpool_categorized_EN.txt	WALL	Building	7	9	[0, 0, 0]	n/a	catFR1	1	R1487T
1219.194	0.95	1230486	WORD_OFF	n/a	n/a	WALL	Building	7	9	[0, 0, 0]	n/a	catFR1	1	R1487T
1220.144	1.6	1231434	WORD	n/a	wordpools/wordpool_categorized_EN.txt	ROOF	Building	8	9	[0, 0, 0]	n/a	catFR1	1	R1487T
1221.76	0.917	1233046	WORD_OFF	n/a	n/a	ROOF	Building	8	9	[0, 0, 0]	n/a	catFR1	1	R1487T
1222.677	1.6	1233967	WORD	n/a	wordpools/wordpool_categorized_EN.txt	COOKIE	Desserts	9	9	[0, 0, 0]	n/a	catFR1	1	R1487T
1224.28	0.817	1235570	WORD_OFF	n/a	n/a	COOKIE	Desserts	9	9	[0, 0, 0]	n/a	catFR1	1	R1487T
1225.097	1.6	1236385	WORD	n/a	wordpools/wordpool_categorized_EN.txt	PASTRY	Desserts	10	9	[0, 0, 0]	n/a	catFR1	1	R1487T
1226.713	0.85	1238006	WORD_OFF	n/a	n/a	PASTRY	Desserts	10	9	[0, 0, 0]	n/a	catFR1	1	R1487T
1227.563	1.6	1238856	WORD	n/a	wordpools/wordpool_categorized_EN.txt	DOLL	Toys	11	9	[0, 0, 0]	n/a	catFR1	1	R1487T
1229.163	0.967	1240451	WORD_OFF	n/a	n/a	DOLL	Toys	11	9	[0, 0, 0]	n/a	catFR1	1	R1487T
1230.13	1.6	1241416	WORD	n/a	wordpools/wordpool_categorized_EN.txt	BALL	Toys	12	9	[0, 0, 0]	n/a	catFR1	1	R1487T
1231.73	0.0	1243018	PROB	7.183	n/a	n/a	n/a	-999	9	[6, 6, 6]	18.0	catFR1	1	R1487T
1231.73	0.001	1243019	WORD_OFF	n/a	n/a	BALL	Toys	12	9	[0, 0, 0]	n/a	catFR1	1	R1487T
1231.731	0.0	1243019	ENCODING_END	n/a	n/a	n/a	n/a	-999	9	[0, 0, 0]	n/a	catFR1	1	R1487T
1231.731	0.0	1243019	DISTRACT_START	n/a	n/a	n/a	n/a	-999	9	[0, 0, 0]	n/a	catFR1	1	R1487T
1231.731	7.199	1243019	START	n/a	n/a	n/a	n/a	-999	9	[-999, -999, -999]	n/a	catFR1	1	R1487T
1238.93	7.517	1250217	PROB	7.499	n/a	n/a	n/a	-999	9	[3, 5, 3]	11.0	catFR1	1	R1487T
1246.447	8.533	1257734	PROB	8.516	n/a	n/a	n/a	-999	9	[8, 7, 1]	16.0	catFR1	1	R1487T
1254.98	0.0	1266267	STOP	n/a	n/a	n/a	n/a	-999	9	[-999, -999, -999]	n/a	catFR1	1	R1487T
1254.98	2.049	1266269	DISTRACT_END	n/a	n/a	n/a	n/a	-999	9	[0, 0, 0]	n/a	catFR1	1	R1487T
1257.029	0.845	1268314	REC_START	n/a	n/a	n/a	n/a	-999	9	[0, 0, 0]	n/a	catFR1	1	R1487T
1257.874	0.608	1269161	REC_WORD	0.845	n/a	COOKIE	Desserts	9	9	[0, 0, 0]	n/a	catFR1	1	R1487T
1258.482	1.903	1269769	REC_WORD	1.453	n/a	PASTE	n/a	-999	9	[0, 0, 0]	n/a	catFR1	1	R1487T
1260.385	3.654	1271671	REC_WORD_VV	3.356	n/a	<>	n/a	-999	9	[0, 0, 0]	n/a	catFR1	1	R1487T
1264.039	2.453	1275325	REC_WORD_VV	7.01	n/a	<>	n/a	-999	9	[0, 0, 0]	n/a	catFR1	1	R1487T
1266.492	2.878	1277778	REC_WORD	9.463	n/a	HAIR	n/a	-999	9	[0, 0, 0]	n/a	catFR1	1	R1487T
1269.37	7.61	1280656	REC_WORD_VV	12.341	n/a	<>	n/a	-999	9	[0, 0, 0]	n/a	catFR1	1	R1487T
1276.98	1.0	1288266	REC_WORD_VV	19.951	n/a	<>	n/a	-999	9	[0, 0, 0]	n/a	catFR1	1	R1487T
1277.98	9.275	1289266	REC_WORD_VV	20.951	n/a	<>	n/a	-999	9	[0, 0, 0]	n/a	catFR1	1	R1487T
1287.255	9.041	1298544	REC_END	n/a	n/a	n/a	n/a	-999	9	[0, 0, 0]	n/a	catFR1	1	R1487T
1296.296	10.0	1307588	COUNTDOWN_START	n/a	n/a	n/a	n/a	-999	10	[0, 0, 0]	n/a	catFR1	1	R1487T
1306.646	0.0	1317933	COUNTDOWN_END	n/a	n/a	n/a	n/a	-999	10	[0, 0, 0]	n/a	catFR1	1	R1487T
1306.646	2.184	1317933	ENCODING_START	n/a	n/a	n/a	n/a	-999	10	[0, 0, 0]	n/a	catFR1	1	R1487T
1308.83	1.6	1320120	WORD	n/a	wordpools/wordpool_categorized_EN.txt	ELBOW	BodyParts	1	10	[0, 0, 0]	n/a	catFR1	1	R1487T
1310.446	0.917	1321732	WORD_OFF	n/a	n/a	ELBOW	BodyParts	1	10	[0, 0, 0]	n/a	catFR1	1	R1487T
1311.363	1.6	1322654	WORD	n/a	wordpools/wordpool_categorized_EN.txt	ARM	BodyParts	2	10	[0, 0, 0]	n/a	catFR1	1	R1487T
1312.963	0.767	1324248	WORD_OFF	n/a	n/a	ARM	BodyParts	2	10	[0, 0, 0]	n/a	catFR1	1	R1487T
1313.73	1.6	1325018	WORD	n/a	wordpools/wordpool_categorized_EN.txt	CROW	Birds	3	10	[0, 0, 0]	n/a	catFR1	1	R1487T
1315.345	0.834	1326630	WORD_OFF	n/a	n/a	CROW	Birds	3	10	[0, 0, 0]	n/a	catFR1	1	R1487T
1316.179	1.6	1327463	WORD	n/a	wordpools/wordpool_categorized_EN.txt	ROBIN	Birds	4	10	[0, 0, 0]	n/a	catFR1	1	R1487T
1317.78	0.833	1329066	WORD_OFF	n/a	n/a	ROBIN	Birds	4	10	[0, 0, 0]	n/a	catFR1	1	R1487T
1318.613	1.6	1329899	WORD	n/a	wordpools/wordpool_categorized_EN.txt	LAMB	FarmAnimals	5	10	[0, 0, 0]	n/a	catFR1	1	R1487T
1320.229	0.817	1331511	WORD_OFF	n/a	n/a	LAMB	FarmAnimals	5	10	[0, 0, 0]	n/a	catFR1	1	R1487T
1321.046	1.6	1332334	WORD	n/a	wordpools/wordpool_categorized_EN.txt	TURKEY	FarmAnimals	6	10	[0, 0, 0]	n/a	catFR1	1	R1487T
1322.646	0.883	1333929	WORD_OFF	n/a	n/a	TURKEY	FarmAnimals	6	10	[0, 0, 0]	n/a	catFR1	1	R1487T
1323.529	1.6	1334814	WORD	n/a	wordpools/wordpool_categorized_EN.txt	HAND	BodyParts	7	10	[0, 0, 0]	n/a	catFR1	1	R1487T
1325.13	0.833	1336418	WORD_OFF	n/a	n/a	HAND	BodyParts	7	10	[0, 0, 0]	n/a	catFR1	1	R1487T
1325.963	1.6	1337250	WORD	n/a	wordpools/wordpool_categorized_EN.txt	FINGERS	BodyParts	8	10	[0, 0, 0]	n/a	catFR1	1	R1487T
1327.563	0.783	1338844	WORD_OFF	n/a	n/a	FINGERS	BodyParts	8	10	[0, 0, 0]	n/a	catFR1	1	R1487T
1328.346	1.6	1339633	WORD	n/a	wordpools/wordpool_categorized_EN.txt	BULL	FarmAnimals	9	10	[0, 0, 0]	n/a	catFR1	1	R1487T
1329.946	0.85	1341227	WORD_OFF	n/a	n/a	BULL	FarmAnimals	9	10	[0, 0, 0]	n/a	catFR1	1	R1487T
1330.796	1.6	1342077	WORD	n/a	wordpools/wordpool_categorized_EN.txt	CHICKEN	FarmAnimals	10	10	[0, 0, 0]	n/a	catFR1	1	R1487T
1332.396	0.767	1343680	WORD_OFF	n/a	n/a	CHICKEN	FarmAnimals	10	10	[0, 0, 0]	n/a	catFR1	1	R1487T
1333.163	1.6	1344451	WORD	n/a	wordpools/wordpool_categorized_EN.txt	SPARROW	Birds	11	10	[0, 0, 0]	n/a	catFR1	1	R1487T
1334.78	0.816	1346063	WORD_OFF	n/a	n/a	SPARROW	Birds	11	10	[0, 0, 0]	n/a	catFR1	1	R1487T
1335.596	1.6	1346878	WORD	n/a	wordpools/wordpool_categorized_EN.txt	HAWK	Birds	12	10	[0, 0, 0]	n/a	catFR1	1	R1487T
1337.197	0.001	1348479	PROB	7.533	n/a	n/a	n/a	-999	10	[6, 3, 4]	13.0	catFR1	1	R1487T
1337.198	0.0	1348480	START	n/a	n/a	n/a	n/a	-999	10	[-999, -999, -999]	n/a	catFR1	1	R1487T
1337.197	0.001	1348481	WORD_OFF	n/a	n/a	HAWK	Birds	12	10	[0, 0, 0]	n/a	catFR1	1	R1487T
1337.198	0.0	1348481	ENCODING_END	n/a	n/a	n/a	n/a	-999	10	[0, 0, 0]	n/a	catFR1	1	R1487T
1337.198	7.548	1348481	DISTRACT_START	n/a	n/a	n/a	n/a	-999	10	[0, 0, 0]	n/a	catFR1	1	R1487T
1344.746	6.9	1356028	PROB	6.883	n/a	n/a	n/a	-999	10	[5, 7, 8]	20.0	catFR1	1	R1487T
1351.646	6.15	1362928	PROB	6.133	n/a	n/a	n/a	-999	10	[7, 8, 7]	22.0	catFR1	1	R1487T
1357.796	0.0	1369077	STOP	n/a	n/a	n/a	n/a	-999	10	[-999, -999, -999]	n/a	catFR1	1	R1487T
1357.796	2.3	1369083	DISTRACT_END	n/a	n/a	n/a	n/a	-999	10	[0, 0, 0]	n/a	catFR1	1	R1487T
1360.096	1.795	1371376	REC_START	n/a	n/a	n/a	n/a	-999	10	[0, 0, 0]	n/a	catFR1	1	R1487T
1361.891	1.0	1373172	REC_WORD_VV	1.795	n/a	<>	n/a	-999	10	[0, 0, 0]	n/a	catFR1	1	R1487T
1362.891	0.513	1374172	REC_WORD_VV	2.795	n/a	<>	n/a	-999	10	[0, 0, 0]	n/a	catFR1	1	R1487T
1363.404	1.0	1374685	REC_WORD	3.308	n/a	CROW	Birds	3	10	[0, 0, 0]	n/a	catFR1	1	R1487T
1364.404	2.493	1375685	REC_WORD	4.308	n/a	CROW	Birds	3	10	[0, 0, 0]	n/a	catFR1	1	R1487T
1366.897	1.0	1378178	REC_WORD_VV	6.801	n/a	<>	n/a	-999	10	[0, 0, 0]	n/a	catFR1	1	R1487T
1367.897	1.105	1379178	REC_WORD_VV	7.801	n/a	<>	n/a	-999	10	[0, 0, 0]	n/a	catFR1	1	R1487T
1369.002	4.412	1380283	REC_WORD	8.906	n/a	CHEETAH	Zoo	-999	10	[0, 0, 0]	n/a	catFR1	1	R1487T
1373.414	1.0	1384695	REC_WORD_VV	13.318	n/a	<>	n/a	-999	10	[0, 0, 0]	n/a	catFR1	1	R1487T
1374.414	1.0	1385695	REC_WORD_VV	14.318	n/a	<>	n/a	-999	10	[0, 0, 0]	n/a	catFR1	1	R1487T
1375.414	1.0	1386694	REC_WORD_VV	15.318	n/a	<>	n/a	-999	10	[0, 0, 0]	n/a	catFR1	1	R1487T
1376.414	9.938	1387694	REC_WORD_VV	16.318	n/a	<>	n/a	-999	10	[0, 0, 0]	n/a	catFR1	1	R1487T
1386.352	0.788	1397632	REC_WORD	26.256	n/a	BALL	Toys	-999	10	[0, 0, 0]	n/a	catFR1	1	R1487T
1387.14	2.897	1398420	REC_WORD	27.044	n/a	VEHICLE	n/a	-999	10	[0, 0, 0]	n/a	catFR1	1	R1487T
1390.037	0.293	1401317	REC_WORD_VV	29.941	n/a	<>	n/a	-999	10	[0, 0, 0]	n/a	catFR1	1	R1487T
1390.33	3.699	1401615	REC_END	n/a	n/a	n/a	n/a	-999	10	[0, 0, 0]	n/a	catFR1	1	R1487T
1394.029	10.0	1405317	COUNTDOWN_START	n/a	n/a	n/a	n/a	-999	11	[0, 0, 0]	n/a	catFR1	1	R1487T
1404.379	0.0	1415662	COUNTDOWN_END	n/a	n/a	n/a	n/a	-999	11	[0, 0, 0]	n/a	catFR1	1	R1487T
1404.379	2.151	1415662	ENCODING_START	n/a	n/a	n/a	n/a	-999	11	[0, 0, 0]	n/a	catFR1	1	R1487T
1406.53	1.6	1417815	WORD	n/a	wordpools/wordpool_categorized_EN.txt	ROOM	Building	1	11	[0, 0, 0]	n/a	catFR1	1	R1487T
1408.13	0.799	1419409	WORD_OFF	n/a	n/a	ROOM	Building	1	11	[0, 0, 0]	n/a	catFR1	1	R1487T
1408.929	1.6	1420206	WORD	n/a	wordpools/wordpool_categorized_EN.txt	FLOOR	Building	2	11	[0, 0, 0]	n/a	catFR1	1	R1487T
1410.546	0.883	1421827	WORD_OFF	n/a	n/a	FLOOR	Building	2	11	[0, 0, 0]	n/a	catFR1	1	R1487T
1411.429	1.6	1422713	WORD	n/a	wordpools/wordpool_categorized_EN.txt	SHORTS	Clothing	3	11	[0, 0, 0]	n/a	catFR1	1	R1487T
1413.03	0.95	1424307	WORD_OFF	n/a	n/a	SHORTS	Clothing	3	11	[0, 0, 0]	n/a	catFR1	1	R1487T
1413.98	1.6	1425264	WORD	n/a	wordpools/wordpool_categorized_EN.txt	JEANS	Clothing	4	11	[0, 0, 0]	n/a	catFR1	1	R1487T
1415.58	0.866	1426858	WORD_OFF	n/a	n/a	JEANS	Clothing	4	11	[0, 0, 0]	n/a	catFR1	1	R1487T
1416.446	1.6	1427726	WORD	n/a	wordpools/wordpool_categorized_EN.txt	ISLAND	Landscapes	5	11	[0, 0, 0]	n/a	catFR1	1	R1487T
1418.047	0.883	1429329	WORD_OFF	n/a	n/a	ISLAND	Landscapes	5	11	[0, 0, 0]	n/a	catFR1	1	R1487T
1418.93	1.6	1430207	WORD	n/a	wordpools/wordpool_categorized_EN.txt	LAKE	Landscapes	6	11	[0, 0, 0]	n/a	catFR1	1	R1487T
1420.53	0.966	1431809	WORD_OFF	n/a	n/a	LAKE	Landscapes	6	11	[0, 0, 0]	n/a	catFR1	1	R1487T
1421.496	1.6	1432774	WORD	n/a	wordpools/wordpool_categorized_EN.txt	BLOUSE	Clothing	7	11	[0, 0, 0]	n/a	catFR1	1	R1487T
1423.096	0.934	1434378	WORD_OFF	n/a	n/a	BLOUSE	Clothing	7	11	[0, 0, 0]	n/a	catFR1	1	R1487T
1424.03	1.6	1435308	WORD	n/a	wordpools/wordpool_categorized_EN.txt	DRESS	Clothing	8	11	[0, 0, 0]	n/a	catFR1	1	R1487T
1425.63	0.764	1436911	WORD_OFF	n/a	n/a	DRESS	Clothing	8	11	[0, 0, 0]	n/a	catFR1	1	R1487T
1426.394	1.6	1437672	WORD	n/a	wordpools/wordpool_categorized_EN.txt	STAIRS	Building	9	11	[0, 0, 0]	n/a	catFR1	1	R1487T
1427.994	0.819	1439276	WORD_OFF	n/a	n/a	STAIRS	Building	9	11	[0, 0, 0]	n/a	catFR1	1	R1487T
1428.813	1.6	1440090	WORD	n/a	wordpools/wordpool_categorized_EN.txt	BATHROOM	Building	10	11	[0, 0, 0]	n/a	catFR1	1	R1487T
1430.413	0.783	1441694	WORD_OFF	n/a	n/a	BATHROOM	Building	10	11	[0, 0, 0]	n/a	catFR1	1	R1487T
1431.196	1.6	1442473	WORD	n/a	wordpools/wordpool_categorized_EN.txt	HILLS	Landscapes	11	11	[0, 0, 0]	n/a	catFR1	1	R1487T
1432.813	0.883	1444094	WORD_OFF	n/a	n/a	HILLS	Landscapes	11	11	[0, 0, 0]	n/a	catFR1	1	R1487T
1433.696	1.6	1444980	WORD	n/a	wordpools/wordpool_categorized_EN.txt	VALLEY	Landscapes	12	11	[0, 0, 0]	n/a	catFR1	1	R1487T
1435.296	0.001	1446574	WORD_OFF	n/a	n/a	VALLEY	Landscapes	12	11	[0, 0, 0]	n/a	catFR1	1	R1487T
1435.297	0.001	1446574	PROB	8.099	n/a	n/a	n/a	-999	11	[2, 7, 8]	17.0	catFR1	1	R1487T
1435.298	0.0	1446575	START	n/a	n/a	n/a	n/a	-999	11	[-999, -999, -999]	n/a	catFR1	1	R1487T
1435.298	0.0	1446583	ENCODING_END	n/a	n/a	n/a	n/a	-999	11	[0, 0, 0]	n/a	catFR1	1	R1487T
1435.298	8.115	1446583	DISTRACT_START	n/a	n/a	n/a	n/a	-999	11	[0, 0, 0]	n/a	catFR1	1	R1487T
1443.413	4.417	1454690	PROB	4.4	n/a	n/a	n/a	-999	11	[4, 4, 4]	12.0	catFR1	1	R1487T
1447.83	6.999	1459107	PROB	6.982	n/a	n/a	n/a	-999	11	[7, 8, 7]	22.0	catFR1	1	R1487T
1454.829	11.4	1466105	PROB	11.384	n/a	n/a	n/a	-999	11	[6, 6, 8]	20.0	catFR1	1	R1487T
1466.229	0.0	1477505	STOP	n/a	n/a	n/a	n/a	-999	11	[-999, -999, -999]	n/a	catFR1	1	R1487T
1466.229	2.051	1477512	DISTRACT_END	n/a	n/a	n/a	n/a	-999	11	[0, 0, 0]	n/a	catFR1	1	R1487T
1468.28	1.224	1479557	REC_START	n/a	n/a	n/a	n/a	-999	11	[0, 0, 0]	n/a	catFR1	1	R1487T
1469.504	1.0	1480780	REC_WORD	1.224	n/a	BLOUSE	Clothing	7	11	[0, 0, 0]	n/a	catFR1	1	R1487T
1470.504	0.872	1481780	REC_WORD	2.224	n/a	BLOUSE	Clothing	7	11	[0, 0, 0]	n/a	catFR1	1	R1487T
1471.376	1.0	1482651	REC_WORD	3.096	n/a	STAIRS	Building	9	11	[0, 0, 0]	n/a	catFR1	1	R1487T
1472.376	0.557	1483651	REC_WORD	4.096	n/a	STAIRS	Building	9	11	[0, 0, 0]	n/a	catFR1	1	R1487T
1472.933	1.0	1484208	REC_WORD	4.653	n/a	STORE	n/a	-999	11	[0, 0, 0]	n/a	catFR1	1	R1487T
1473.933	1.571	1485208	REC_WORD	5.653	n/a	STORE	n/a	-999	11	[0, 0, 0]	n/a	catFR1	1	R1487T
1475.504	1.0	1486779	REC_WORD_VV	7.224	n/a	<>	n/a	-999	11	[0, 0, 0]	n/a	catFR1	1	R1487T
1476.504	2.27	1487779	REC_WORD_VV	8.224	n/a	<>	n/a	-999	11	[0, 0, 0]	n/a	catFR1	1	R1487T
1478.774	1.0	1490049	REC_WORD_VV	10.494	n/a	<>	n/a	-999	11	[0, 0, 0]	n/a	catFR1	1	R1487T
1479.774	1.0	1491049	REC_WORD_VV	11.494	n/a	<>	n/a	-999	11	[0, 0, 0]	n/a	catFR1	1	R1487T
1480.774	1.0	1492049	REC_WORD_VV	12.494	n/a	<>	n/a	-999	11	[0, 0, 0]	n/a	catFR1	1	R1487T
1481.774	1.0	1493049	REC_WORD_VV	13.494	n/a	<>	n/a	-999	11	[0, 0, 0]	n/a	catFR1	1	R1487T
1482.774	3.934	1494049	REC_WORD_VV	14.494	n/a	<>	n/a	-999	11	[0, 0, 0]	n/a	catFR1	1	R1487T
1486.708	1.0	1497983	REC_WORD_VV	18.428	n/a	<>	n/a	-999	11	[0, 0, 0]	n/a	catFR1	1	R1487T
1487.708	5.278	1498983	REC_WORD_VV	19.428	n/a	<>	n/a	-999	11	[0, 0, 0]	n/a	catFR1	1	R1487T
1492.986	1.0	1504260	REC_WORD_VV	24.706	n/a	<>	n/a	-999	11	[0, 0, 0]	n/a	catFR1	1	R1487T
1493.986	1.0	1505260	REC_WORD_VV	25.706	n/a	<>	n/a	-999	11	[0, 0, 0]	n/a	catFR1	1	R1487T
1494.986	1.0	1506260	REC_WORD_VV	26.706	n/a	<>	n/a	-999	11	[0, 0, 0]	n/a	catFR1	1	R1487T
1495.986	1.0	1507260	REC_WORD_VV	27.706	n/a	<>	n/a	-999	11	[0, 0, 0]	n/a	catFR1	1	R1487T
1496.986	1.0	1508260	REC_WORD_VV	28.706	n/a	<>	n/a	-999	11	[0, 0, 0]	n/a	catFR1	1	R1487T
1497.986	0.522	1509260	REC_WORD_VV	29.706	n/a	<>	n/a	-999	11	[0, 0, 0]	n/a	catFR1	1	R1487T
1498.508	8.039	1509787	REC_END	n/a	n/a	n/a	n/a	-999	11	[0, 0, 0]	n/a	catFR1	1	R1487T
1506.547	10.0	1517821	COUNTDOWN_START	n/a	n/a	n/a	n/a	-999	12	[0, 0, 0]	n/a	catFR1	1	R1487T
1516.896	0.0	1528175	COUNTDOWN_END	n/a	n/a	n/a	n/a	-999	12	[0, 0, 0]	n/a	catFR1	1	R1487T
1516.896	2.15	1528175	ENCODING_START	n/a	n/a	n/a	n/a	-999	12	[0, 0, 0]	n/a	catFR1	1	R1487T
1519.046	1.6	1530318	WORD	n/a	wordpools/wordpool_categorized_EN.txt	MOUSSE	Desserts	1	12	[0, 0, 0]	n/a	catFR1	1	R1487T
1520.646	0.867	1531921	WORD_OFF	n/a	n/a	MOUSSE	Desserts	1	12	[0, 0, 0]	n/a	catFR1	1	R1487T
1521.513	1.6	1532789	WORD	n/a	wordpools/wordpool_categorized_EN.txt	CUPCAKE	Desserts	2	12	[0, 0, 0]	n/a	catFR1	1	R1487T
1523.13	0.782	1534401	WORD_OFF	n/a	n/a	CUPCAKE	Desserts	2	12	[0, 0, 0]	n/a	catFR1	1	R1487T
1523.912	1.6	1535189	WORD	n/a	wordpools/wordpool_categorized_EN.txt	WINDOW	Building	3	12	[0, 0, 0]	n/a	catFR1	1	R1487T
1525.514	0.799	1536793	WORD_OFF	n/a	n/a	WINDOW	Building	3	12	[0, 0, 0]	n/a	catFR1	1	R1487T
1526.313	1.6	1537590	WORD	n/a	wordpools/wordpool_categorized_EN.txt	FOUNDATION	Building	4	12	[0, 0, 0]	n/a	catFR1	1	R1487T
1527.929	0.8	1539202	WORD_OFF	n/a	n/a	FOUNDATION	Building	4	12	[0, 0, 0]	n/a	catFR1	1	R1487T
1528.729	1.6	1540008	WORD	n/a	wordpools/wordpool_categorized_EN.txt	OCEAN	Landscapes	5	12	[0, 0, 0]	n/a	catFR1	1	R1487T
1530.33	0.9	1541602	WORD_OFF	n/a	n/a	OCEAN	Landscapes	5	12	[0, 0, 0]	n/a	catFR1	1	R1487T
1531.23	1.6	1542505	WORD	n/a	wordpools/wordpool_categorized_EN.txt	FOREST	Landscapes	6	12	[0, 0, 0]	n/a	catFR1	1	R1487T
1532.83	0.983	1544109	WORD_OFF	n/a	n/a	FOREST	Landscapes	6	12	[0, 0, 0]	n/a	catFR1	1	R1487T
1533.813	1.6	1545092	WORD	n/a	wordpools/wordpool_categorized_EN.txt	CAKE	Desserts	7	12	[0, 0, 0]	n/a	catFR1	1	R1487T
1535.413	0.95	1546686	WORD_OFF	n/a	n/a	CAKE	Desserts	7	12	[0, 0, 0]	n/a	catFR1	1	R1487T
1536.363	1.6	1547634	WORD	n/a	wordpools/wordpool_categorized_EN.txt	PUDDING	Desserts	8	12	[0, 0, 0]	n/a	catFR1	1	R1487T
1537.98	0.8	1549255	WORD_OFF	n/a	n/a	PUDDING	Desserts	8	12	[0, 0, 0]	n/a	catFR1	1	R1487T
1538.78	1.6	1550052	WORD	n/a	wordpools/wordpool_categorized_EN.txt	CREEK	Landscapes	9	12	[0, 0, 0]	n/a	catFR1	1	R1487T
1540.38	0.766	1551655	WORD_OFF	n/a	n/a	CREEK	Landscapes	9	12	[0, 0, 0]	n/a	catFR1	1	R1487T
1541.146	1.6	1552425	WORD	n/a	wordpools/wordpool_categorized_EN.txt	RIVER	Landscapes	10	12	[0, 0, 0]	n/a	catFR1	1	R1487T
1542.746	0.917	1554020	WORD_OFF	n/a	n/a	RIVER	Landscapes	10	12	[0, 0, 0]	n/a	catFR1	1	R1487T
1543.663	1.6	1554941	WORD	n/a	wordpools/wordpool_categorized_EN.txt	HALLWAY	Building	11	12	[0, 0, 0]	n/a	catFR1	1	R1487T
1545.263	0.8	1556535	WORD_OFF	n/a	n/a	HALLWAY	Building	11	12	[0, 0, 0]	n/a	catFR1	1	R1487T
1546.063	1.6	1557341	WORD	n/a	wordpools/wordpool_categorized_EN.txt	ATTIC	Building	12	12	[0, 0, 0]	n/a	catFR1	1	R1487T
1547.663	0.002	1558935	WORD_OFF	n/a	n/a	ATTIC	Building	12	12	[0, 0, 0]	n/a	catFR1	1	R1487T
1547.665	0.0	1558935	ENCODING_END	n/a	n/a	n/a	n/a	-999	12	[0, 0, 0]	n/a	catFR1	1	R1487T
1547.664	0.001	1558935	PROB	6.932	n/a	n/a	n/a	-999	12	[7, 5, 2]	14.0	catFR1	1	R1487T
1547.665	0.0	1558936	START	n/a	n/a	n/a	n/a	-999	12	[-999, -999, -999]	n/a	catFR1	1	R1487T
1547.665	6.949	1558944	DISTRACT_START	n/a	n/a	n/a	n/a	-999	12	[0, 0, 0]	n/a	catFR1	1	R1487T
1554.614	5.116	1565885	PROB	5.099	n/a	n/a	n/a	-999	12	[7, 2, 7]	16.0	catFR1	1	R1487T
1559.73	6.466	1571001	PROB	6.45	n/a	n/a	n/a	-999	12	[4, 2, 7]	13.0	catFR1	1	R1487T
1566.196	6.233	1577466	PROB	6.217	n/a	n/a	n/a	-999	12	[4, 7, 3]	14.0	catFR1	1	R1487T
1572.429	0.0	1583699	STOP	n/a	n/a	n/a	n/a	-999	12	[-999, -999, -999]	n/a	catFR1	1	R1487T
1572.429	2.267	1583700	DISTRACT_END	n/a	n/a	n/a	n/a	-999	12	[0, 0, 0]	n/a	catFR1	1	R1487T
1574.696	0.411	1585967	REC_START	n/a	n/a	n/a	n/a	-999	12	[0, 0, 0]	n/a	catFR1	1	R1487T
1575.107	0.832	1586377	REC_WORD	0.411	n/a	HALLWAY	Building	11	12	[0, 0, 0]	n/a	catFR1	1	R1487T
1575.939	1.138	1587209	REC_WORD	1.243	n/a	ATTIC	Building	12	12	[0, 0, 0]	n/a	catFR1	1	R1487T
1577.077	2.019	1588347	REC_WORD_VV	2.381	n/a	<>	n/a	-999	12	[0, 0, 0]	n/a	catFR1	1	R1487T
1579.096	1.0	1590366	REC_WORD	4.4	n/a	STAIRS	Building	-999	12	[0, 0, 0]	n/a	catFR1	1	R1487T
1580.096	3.39	1591366	REC_WORD	5.4	n/a	STAIRS	Building	-999	12	[0, 0, 0]	n/a	catFR1	1	R1487T
1583.486	1.0	1594756	REC_WORD_VV	8.79	n/a	<>	n/a	-999	12	[0, 0, 0]	n/a	catFR1	1	R1487T
1584.486	6.495	1595756	REC_WORD_VV	9.79	n/a	<>	n/a	-999	12	[0, 0, 0]	n/a	catFR1	1	R1487T
1590.981	1.0	1602250	REC_WORD_VV	16.285	n/a	<>	n/a	-999	12	[0, 0, 0]	n/a	catFR1	1	R1487T
1591.981	1.0	1603250	REC_WORD_VV	17.285	n/a	<>	n/a	-999	12	[0, 0, 0]	n/a	catFR1	1	R1487T
1592.981	1.0	1604250	REC_WORD_VV	18.285	n/a	<>	n/a	-999	12	[0, 0, 0]	n/a	catFR1	1	R1487T
1593.981	1.556	1605250	REC_WORD_VV	19.285	n/a	<>	n/a	-999	12	[0, 0, 0]	n/a	catFR1	1	R1487T
1595.537	1.0	1606806	REC_WORD_VV	20.841	n/a	<>	n/a	-999	12	[0, 0, 0]	n/a	catFR1	1	R1487T
1596.537	0.825	1607806	REC_WORD_VV	21.841	n/a	<>	n/a	-999	12	[0, 0, 0]	n/a	catFR1	1	R1487T
1597.362	1.0	1608631	REC_WORD	22.666	n/a	ATTIC	Building	12	12	[0, 0, 0]	n/a	catFR1	1	R1487T
1598.362	2.008	1609631	REC_WORD	23.666	n/a	ATTIC	Building	12	12	[0, 0, 0]	n/a	catFR1	1	R1487T
1600.37	1.0	1611639	REC_WORD	25.674	n/a	STAIRS	Building	-999	12	[0, 0, 0]	n/a	catFR1	1	R1487T
1601.37	1.597	1612639	REC_WORD	26.674	n/a	STAIRS	Building	-999	12	[0, 0, 0]	n/a	catFR1	1	R1487T
1602.967	1.951	1614236	REC_WORD	28.271	n/a	WALK	n/a	-999	12	[0, 0, 0]	n/a	catFR1	1	R1487T
1604.918	0.0	1616188	REC_END	n/a	n/a	n/a	n/a	-999	12	[0, 0, 0]	n/a	catFR1	1	R1487T
