onset	duration	sample	trial_type	response_time	stim_file	item_name	category	serialpos	list	test	answer	experiment	session	subject
0.0	327.089	2074	INSTRUCT_START	n/a	n/a	n/a	n/a	-999	-999	[0, 0, 0]	n/a	catFR1	2	R1320D
327.089	2.717	329146	INSTRUCT_END	n/a	n/a	n/a	n/a	-999	-999	[0, 0, 0]	n/a	catFR1	2	R1320D
329.806	8.886	331863	MIC TEST_START	n/a	n/a	n/a	n/a	-999	-999	[0, 0, 0]	n/a	catFR1	2	R1320D
338.692	0.018	340748	MIC TEST_END	n/a	n/a	n/a	n/a	-999	-999	[0, 0, 0]	n/a	catFR1	2	R1320D
338.71	0.0	340766	TRIAL_START	n/a	n/a	n/a	n/a	-999	-1	[0, 0, 0]	n/a	catFR1	2	R1320D
338.71	0.0	340766	TRIAL	n/a	n/a	n/a	n/a	-999	-1	[0, 0, 0]	n/a	catFR1	2	R1320D
338.71	8.733	340766	WAITING_START	n/a	n/a	n/a	n/a	-999	-1	[0, 0, 0]	n/a	catFR1	2	R1320D
347.443	0.0	349499	WAITING_END	n/a	n/a	n/a	n/a	-999	-1	[0, 0, 0]	n/a	catFR1	2	R1320D
347.443	10.429	349499	COUNTDOWN_START	n/a	n/a	n/a	n/a	-999	-1	[0, 0, 0]	n/a	catFR1	2	R1320D
357.872	0.0	359927	COUNTDOWN_END	n/a	n/a	n/a	n/a	-999	-1	[0, 0, 0]	n/a	catFR1	2	R1320D
357.872	1.156	359927	ORIENT_START	n/a	n/a	n/a	n/a	-999	-1	[0, 0, 0]	n/a	catFR1	2	R1320D
359.028	0.001	361083	ORIENT_END	n/a	n/a	n/a	n/a	-999	-1	[0, 0, 0]	n/a	catFR1	2	R1320D
359.029	1.014	361084	ENCODING_START	n/a	n/a	n/a	n/a	-999	-1	[0, 0, 0]	n/a	catFR1	2	R1320D
360.043	1.636	362098	WORD	n/a	n/a	PLUMBER	n/a	1	-1	[0, 0, 0]	n/a	catFR1	2	R1320D
361.679	1.117	363734	WORD_OFF	n/a	n/a	PLUMBER	n/a	1	-1	[0, 0, 0]	n/a	catFR1	2	R1320D
362.796	1.633	364851	WORD	n/a	n/a	SILK	n/a	2	-1	[0, 0, 0]	n/a	catFR1	2	R1320D
364.429	1.015	366484	WORD_OFF	n/a	n/a	SILK	n/a	2	-1	[0, 0, 0]	n/a	catFR1	2	R1320D
365.444	1.619	367499	WORD	n/a	n/a	LEATHER	n/a	3	-1	[0, 0, 0]	n/a	catFR1	2	R1320D
367.063	1.078	369118	WORD_OFF	n/a	n/a	LEATHER	n/a	3	-1	[0, 0, 0]	n/a	catFR1	2	R1320D
368.141	1.622	370196	WORD	n/a	n/a	FIREMAN	n/a	4	-1	[0, 0, 0]	n/a	catFR1	2	R1320D
369.763	0.793	371818	WORD_OFF	n/a	n/a	FIREMAN	n/a	4	-1	[0, 0, 0]	n/a	catFR1	2	R1320D
370.556	1.625	372611	WORD	n/a	n/a	DENIM	n/a	5	-1	[0, 0, 0]	n/a	catFR1	2	R1320D
372.181	1.092	374235	WORD_OFF	n/a	n/a	DENIM	n/a	5	-1	[0, 0, 0]	n/a	catFR1	2	R1320D
373.273	1.625	375327	WORD	n/a	n/a	FARMER	n/a	6	-1	[0, 0, 0]	n/a	catFR1	2	R1320D
374.898	1.054	376952	WORD_OFF	n/a	n/a	FARMER	n/a	6	-1	[0, 0, 0]	n/a	catFR1	2	R1320D
375.952	1.629	378006	WORD	n/a	n/a	SECOND	n/a	7	-1	[0, 0, 0]	n/a	catFR1	2	R1320D
377.581	1.06	379635	WORD_OFF	n/a	n/a	SECOND	n/a	7	-1	[0, 0, 0]	n/a	catFR1	2	R1320D
378.641	1.624	380695	WORD	n/a	n/a	DAY	n/a	8	-1	[0, 0, 0]	n/a	catFR1	2	R1320D
380.265	1.148	382319	WORD_OFF	n/a	n/a	DAY	n/a	8	-1	[0, 0, 0]	n/a	catFR1	2	R1320D
381.413	1.636	383467	WORD	n/a	n/a	HOUR	n/a	9	-1	[0, 0, 0]	n/a	catFR1	2	R1320D
383.049	1.032	385103	WORD_OFF	n/a	n/a	HOUR	n/a	9	-1	[0, 0, 0]	n/a	catFR1	2	R1320D
384.081	1.635	386135	WORD	n/a	n/a	TEACHER	n/a	10	-1	[0, 0, 0]	n/a	catFR1	2	R1320D
385.716	0.916	387770	WORD_OFF	n/a	n/a	TEACHER	n/a	10	-1	[0, 0, 0]	n/a	catFR1	2	R1320D
386.632	1.635	388686	WORD	n/a	n/a	MINUTE	n/a	11	-1	[0, 0, 0]	n/a	catFR1	2	R1320D
388.267	0.754	390321	WORD_OFF	n/a	n/a	MINUTE	n/a	11	-1	[0, 0, 0]	n/a	catFR1	2	R1320D
389.021	1.63	391075	WORD	n/a	n/a	WOOL	n/a	12	-1	[0, 0, 0]	n/a	catFR1	2	R1320D
390.651	0.0	392704	WORD_OFF	n/a	n/a	WOOL	n/a	12	-1	[0, 0, 0]	n/a	catFR1	2	R1320D
390.651	0.0	392704	ENCODING_END	n/a	n/a	n/a	n/a	-999	-1	[0, 0, 0]	n/a	catFR1	2	R1320D
390.651	0.001	392704	DISTRACT_START	n/a	n/a	n/a	n/a	-999	-1	[0, 0, 0]	n/a	catFR1	2	R1320D
390.652	0.015	392705	START	n/a	n/a	n/a	n/a	-999	-1	[-999, -999, -999]	n/a	catFR1	2	R1320D
390.667	4.201	392720	PROB	4.201	n/a	n/a	n/a	-999	-1	[2, 1, 7]	10	catFR1	2	R1320D
394.868	6.234	396921	PROB	6.234	n/a	n/a	n/a	-999	-1	[7, 5, 7]	19	catFR1	2	R1320D
401.102	5.618	403155	PROB	5.618	n/a	n/a	n/a	-999	-1	[4, 3, 3]	10	catFR1	2	R1320D
406.72	5.487	408773	PROB	5.487	n/a	n/a	n/a	-999	-1	[6, 7, 5]	18	catFR1	2	R1320D
412.207	0.014	414259	STOP	n/a	n/a	n/a	n/a	-999	-1	[-999, -999, -999]	n/a	catFR1	2	R1320D
412.221	0.508	414273	DISTRACT_END	n/a	n/a	n/a	n/a	-999	-1	[0, 0, 0]	n/a	catFR1	2	R1320D
412.729	1.693	414781	RETRIEVAL_ORIENT_START	n/a	n/a	n/a	n/a	-999	-1	[0, 0, 0]	n/a	catFR1	2	R1320D
414.422	0.0	416474	RETRIEVAL_ORIENT_END	n/a	n/a	n/a	n/a	-999	-1	[0, 0, 0]	n/a	catFR1	2	R1320D
414.422	0.301	416474	REC_START	n/a	n/a	n/a	n/a	-999	-1	[0, 0, 0]	n/a	catFR1	2	R1320D
414.723	29.711	416775	REC_WORD_VV	29.711	n/a	<>	n/a	-999	-1	[0, 0, 0]	n/a	catFR1	2	R1320D
444.434	0.001	446485	REC_END	n/a	n/a	n/a	n/a	-999	-1	[0, 0, 0]	n/a	catFR1	2	R1320D
444.435	5.827	446486	PRACTICE_POST_INSTRUCT_START	n/a	n/a	n/a	n/a	-999	-1	[0, 0, 0]	n/a	catFR1	2	R1320D
450.262	0.001	452312	PRACTICE_POST_INSTRUCT_END	n/a	n/a	n/a	n/a	-999	-1	[0, 0, 0]	n/a	catFR1	2	R1320D
450.263	0.026	452313	TRIAL_END	n/a	n/a	n/a	n/a	-999	-1	[0, 0, 0]	n/a	catFR1	2	R1320D
450.289	0.0	452339	TRIAL_START	n/a	n/a	n/a	n/a	-999	1	[0, 0, 0]	n/a	catFR1	2	R1320D
450.289	0.0	452339	TRIAL	n/a	n/a	n/a	n/a	-999	1	[0, 0, 0]	n/a	catFR1	2	R1320D
450.289	3.423	452339	WAITING_START	n/a	n/a	n/a	n/a	-999	1	[0, 0, 0]	n/a	catFR1	2	R1320D
453.712	0.001	455762	WAITING_END	n/a	n/a	n/a	n/a	-999	1	[0, 0, 0]	n/a	catFR1	2	R1320D
453.713	10.428	455763	COUNTDOWN_START	n/a	n/a	n/a	n/a	-999	1	[0, 0, 0]	n/a	catFR1	2	R1320D
464.141	0.001	466191	COUNTDOWN_END	n/a	n/a	n/a	n/a	-999	1	[0, 0, 0]	n/a	catFR1	2	R1320D
464.142	1.055	466192	ORIENT_START	n/a	n/a	n/a	n/a	-999	1	[0, 0, 0]	n/a	catFR1	2	R1320D
465.197	0.001	467247	ORIENT_END	n/a	n/a	n/a	n/a	-999	1	[0, 0, 0]	n/a	catFR1	2	R1320D
465.198	1.112	467248	ENCODING_START	n/a	n/a	n/a	n/a	-999	1	[0, 0, 0]	n/a	catFR1	2	R1320D
466.31	1.638	468359	WORD	n/a	wordpools/wordpool_categorized_EN.txt	IRON	Appliances	1	1	[0, 0, 0]	n/a	catFR1	2	R1320D
467.948	0.839	469997	WORD_OFF	n/a	n/a	IRON	Appliances	1	1	[0, 0, 0]	n/a	catFR1	2	R1320D
468.787	1.628	470836	WORD	n/a	wordpools/wordpool_categorized_EN.txt	OVEN	Appliances	2	1	[0, 0, 0]	n/a	catFR1	2	R1320D
470.415	1.032	472464	WORD_OFF	n/a	n/a	OVEN	Appliances	2	1	[0, 0, 0]	n/a	catFR1	2	R1320D
471.447	1.635	473496	WORD	n/a	wordpools/wordpool_categorized_EN.txt	BED	Furniture	3	1	[0, 0, 0]	n/a	catFR1	2	R1320D
473.082	1.0	475131	WORD_OFF	n/a	n/a	BED	Furniture	3	1	[0, 0, 0]	n/a	catFR1	2	R1320D
474.082	1.634	476131	WORD	n/a	wordpools/wordpool_categorized_EN.txt	SHELF	Furniture	4	1	[0, 0, 0]	n/a	catFR1	2	R1320D
475.716	1.081	477765	WORD_OFF	n/a	n/a	SHELF	Furniture	4	1	[0, 0, 0]	n/a	catFR1	2	R1320D
476.797	1.636	478846	WORD	n/a	wordpools/wordpool_categorized_EN.txt	PEELER	KitchenTools	5	1	[0, 0, 0]	n/a	catFR1	2	R1320D
478.433	1.063	480482	WORD_OFF	n/a	n/a	PEELER	KitchenTools	5	1	[0, 0, 0]	n/a	catFR1	2	R1320D
479.496	1.638	481545	WORD	n/a	wordpools/wordpool_categorized_EN.txt	SPOON	KitchenTools	6	1	[0, 0, 0]	n/a	catFR1	2	R1320D
481.134	0.81	483183	WORD_OFF	n/a	n/a	SPOON	KitchenTools	6	1	[0, 0, 0]	n/a	catFR1	2	R1320D
481.944	1.639	483993	WORD	n/a	wordpools/wordpool_categorized_EN.txt	REFRIGERATOR	Appliances	7	1	[0, 0, 0]	n/a	catFR1	2	R1320D
483.583	1.02	485632	WORD_OFF	n/a	n/a	REFRIGERATOR	Appliances	7	1	[0, 0, 0]	n/a	catFR1	2	R1320D
484.603	1.615	486651	WORD	n/a	wordpools/wordpool_categorized_EN.txt	VACUUM	Appliances	8	1	[0, 0, 0]	n/a	catFR1	2	R1320D
486.218	0.979	488266	WORD_OFF	n/a	n/a	VACUUM	Appliances	8	1	[0, 0, 0]	n/a	catFR1	2	R1320D
487.197	1.638	489245	WORD	n/a	wordpools/wordpool_categorized_EN.txt	BOOKCASE	Furniture	9	1	[0, 0, 0]	n/a	catFR1	2	R1320D
488.835	0.757	490883	WORD_OFF	n/a	n/a	BOOKCASE	Furniture	9	1	[0, 0, 0]	n/a	catFR1	2	R1320D
489.592	1.627	491640	WORD	n/a	wordpools/wordpool_categorized_EN.txt	CABINET	Furniture	10	1	[0, 0, 0]	n/a	catFR1	2	R1320D
491.219	0.966	493267	WORD_OFF	n/a	n/a	CABINET	Furniture	10	1	[0, 0, 0]	n/a	catFR1	2	R1320D
492.185	1.634	494233	WORD	n/a	wordpools/wordpool_categorized_EN.txt	STRAINER	KitchenTools	11	1	[0, 0, 0]	n/a	catFR1	2	R1320D
493.819	1.02	495867	WORD_OFF	n/a	n/a	STRAINER	KitchenTools	11	1	[0, 0, 0]	n/a	catFR1	2	R1320D
494.839	1.63	496887	WORD	n/a	wordpools/wordpool_categorized_EN.txt	CORKSCREW	KitchenTools	12	1	[0, 0, 0]	n/a	catFR1	2	R1320D
496.469	0.0	498517	WORD_OFF	n/a	n/a	CORKSCREW	KitchenTools	12	1	[0, 0, 0]	n/a	catFR1	2	R1320D
496.469	0.001	498517	ENCODING_END	n/a	n/a	n/a	n/a	-999	1	[0, 0, 0]	n/a	catFR1	2	R1320D
496.47	0.0	498518	DISTRACT_START	n/a	n/a	n/a	n/a	-999	1	[0, 0, 0]	n/a	catFR1	2	R1320D
496.47	0.015	498518	START	n/a	n/a	n/a	n/a	-999	1	[-999, -999, -999]	n/a	catFR1	2	R1320D
496.485	6.836	498533	PROB	6.836	n/a	n/a	n/a	-999	1	[7, 9, 8]	24	catFR1	2	R1320D
503.321	3.817	505368	PROB	3.817	n/a	n/a	n/a	-999	1	[1, 3, 1]	5	catFR1	2	R1320D
507.138	5.201	509185	PROB	5.201	n/a	n/a	n/a	-999	1	[8, 1, 4]	13	catFR1	2	R1320D
512.339	5.155	514386	PROB	5.155	n/a	n/a	n/a	-999	1	[2, 9, 5]	16	catFR1	2	R1320D
517.494	0.012	519541	STOP	n/a	n/a	n/a	n/a	-999	1	[-999, -999, -999]	n/a	catFR1	2	R1320D
517.506	0.701	519553	DISTRACT_END	n/a	n/a	n/a	n/a	-999	1	[0, 0, 0]	n/a	catFR1	2	R1320D
518.207	1.55	520254	RETRIEVAL_ORIENT_START	n/a	n/a	n/a	n/a	-999	1	[0, 0, 0]	n/a	catFR1	2	R1320D
519.757	0.001	521804	RETRIEVAL_ORIENT_END	n/a	n/a	n/a	n/a	-999	1	[0, 0, 0]	n/a	catFR1	2	R1320D
519.758	3.069	521805	REC_START	n/a	n/a	n/a	n/a	-999	1	[0, 0, 0]	n/a	catFR1	2	R1320D
522.827	15.139	524873	REC_WORD	15.139	n/a	VACUUM	Appliances	8	1	[0, 0, 0]	n/a	catFR1	2	R1320D
537.966	8.257	540012	REC_WORD_VV	8.257	n/a	<>	n/a	-999	1	[0, 0, 0]	n/a	catFR1	2	R1320D
546.223	0.215	548268	REC_WORD_VV	0.215	n/a	<>	n/a	-999	1	[0, 0, 0]	n/a	catFR1	2	R1320D
546.438	3.332	548483	REC_WORD	3.332	n/a	STRAINER	KitchenTools	11	1	[0, 0, 0]	n/a	catFR1	2	R1320D
549.77	0.0	551815	REC_END	n/a	n/a	n/a	n/a	-999	1	[0, 0, 0]	n/a	catFR1	2	R1320D
549.77	0.023	551815	TRIAL_END	n/a	n/a	n/a	n/a	-999	1	[0, 0, 0]	n/a	catFR1	2	R1320D
549.793	0.001	551838	TRIAL_START	n/a	n/a	n/a	n/a	-999	2	[0, 0, 0]	n/a	catFR1	2	R1320D
549.794	0.0	551839	TRIAL	n/a	n/a	n/a	n/a	-999	2	[0, 0, 0]	n/a	catFR1	2	R1320D
549.794	2.886	551839	WAITING_START	n/a	n/a	n/a	n/a	-999	2	[0, 0, 0]	n/a	catFR1	2	R1320D
552.68	0.001	554725	WAITING_END	n/a	n/a	n/a	n/a	-999	2	[0, 0, 0]	n/a	catFR1	2	R1320D
552.681	10.429	554726	COUNTDOWN_START	n/a	n/a	n/a	n/a	-999	2	[0, 0, 0]	n/a	catFR1	2	R1320D
563.11	0.0	565154	COUNTDOWN_END	n/a	n/a	n/a	n/a	-999	2	[0, 0, 0]	n/a	catFR1	2	R1320D
563.11	1.039	565154	ORIENT_START	n/a	n/a	n/a	n/a	-999	2	[0, 0, 0]	n/a	catFR1	2	R1320D
564.149	0.0	566193	ORIENT_END	n/a	n/a	n/a	n/a	-999	2	[0, 0, 0]	n/a	catFR1	2	R1320D
564.149	1.079	566193	ENCODING_START	n/a	n/a	n/a	n/a	-999	2	[0, 0, 0]	n/a	catFR1	2	R1320D
565.228	1.638	567272	WORD	n/a	wordpools/wordpool_categorized_EN.txt	SHOES	Clothing	1	2	[0, 0, 0]	n/a	catFR1	2	R1320D
566.866	0.866	568910	WORD_OFF	n/a	n/a	SHOES	Clothing	1	2	[0, 0, 0]	n/a	catFR1	2	R1320D
567.732	1.634	569776	WORD	n/a	wordpools/wordpool_categorized_EN.txt	JEANS	Clothing	2	2	[0, 0, 0]	n/a	catFR1	2	R1320D
569.366	1.074	571410	WORD_OFF	n/a	n/a	JEANS	Clothing	2	2	[0, 0, 0]	n/a	catFR1	2	R1320D
570.44	1.627	572484	WORD	n/a	wordpools/wordpool_categorized_EN.txt	PUDDING	Desserts	3	2	[0, 0, 0]	n/a	catFR1	2	R1320D
572.067	1.025	574111	WORD_OFF	n/a	n/a	PUDDING	Desserts	3	2	[0, 0, 0]	n/a	catFR1	2	R1320D
573.092	1.625	575136	WORD	n/a	wordpools/wordpool_categorized_EN.txt	COOKIE	Desserts	4	2	[0, 0, 0]	n/a	catFR1	2	R1320D
574.717	0.824	576761	WORD_OFF	n/a	n/a	COOKIE	Desserts	4	2	[0, 0, 0]	n/a	catFR1	2	R1320D
575.541	1.61	577585	WORD	n/a	wordpools/wordpool_categorized_EN.txt	CABBAGE	Vegetables	5	2	[0, 0, 0]	n/a	catFR1	2	R1320D
577.151	1.012	579195	WORD_OFF	n/a	n/a	CABBAGE	Vegetables	5	2	[0, 0, 0]	n/a	catFR1	2	R1320D
578.163	1.622	580207	WORD	n/a	wordpools/wordpool_categorized_EN.txt	CELERY	Vegetables	6	2	[0, 0, 0]	n/a	catFR1	2	R1320D
579.785	0.979	581828	WORD_OFF	n/a	n/a	CELERY	Vegetables	6	2	[0, 0, 0]	n/a	catFR1	2	R1320D
580.764	1.638	582807	WORD	n/a	wordpools/wordpool_categorized_EN.txt	UNDERWEAR	Clothing	7	2	[0, 0, 0]	n/a	catFR1	2	R1320D
582.402	0.944	584445	WORD_OFF	n/a	n/a	UNDERWEAR	Clothing	7	2	[0, 0, 0]	n/a	catFR1	2	R1320D
583.346	1.623	585389	WORD	n/a	wordpools/wordpool_categorized_EN.txt	SOCKS	Clothing	8	2	[0, 0, 0]	n/a	catFR1	2	R1320D
584.969	0.811	587012	WORD_OFF	n/a	n/a	SOCKS	Clothing	8	2	[0, 0, 0]	n/a	catFR1	2	R1320D
585.78	1.623	587823	WORD	n/a	wordpools/wordpool_categorized_EN.txt	CARROT	Vegetables	9	2	[0, 0, 0]	n/a	catFR1	2	R1320D
587.403	0.883	589446	WORD_OFF	n/a	n/a	CARROT	Vegetables	9	2	[0, 0, 0]	n/a	catFR1	2	R1320D
588.286	1.634	590329	WORD	n/a	wordpools/wordpool_categorized_EN.txt	BROCCOLI	Vegetables	10	2	[0, 0, 0]	n/a	catFR1	2	R1320D
589.92	1.148	591963	WORD_OFF	n/a	n/a	BROCCOLI	Vegetables	10	2	[0, 0, 0]	n/a	catFR1	2	R1320D
591.068	1.636	593111	WORD	n/a	wordpools/wordpool_categorized_EN.txt	CHEESECAKE	Desserts	11	2	[0, 0, 0]	n/a	catFR1	2	R1320D
592.704	1.098	594747	WORD_OFF	n/a	n/a	CHEESECAKE	Desserts	11	2	[0, 0, 0]	n/a	catFR1	2	R1320D
593.802	1.636	595845	WORD	n/a	wordpools/wordpool_categorized_EN.txt	FUDGE	Desserts	12	2	[0, 0, 0]	n/a	catFR1	2	R1320D
595.438	0.0	597481	WORD_OFF	n/a	n/a	FUDGE	Desserts	12	2	[0, 0, 0]	n/a	catFR1	2	R1320D
595.438	0.001	597481	ENCODING_END	n/a	n/a	n/a	n/a	-999	2	[0, 0, 0]	n/a	catFR1	2	R1320D
595.439	0.0	597482	DISTRACT_START	n/a	n/a	n/a	n/a	-999	2	[0, 0, 0]	n/a	catFR1	2	R1320D
595.439	0.014	597482	START	n/a	n/a	n/a	n/a	-999	2	[-999, -999, -999]	n/a	catFR1	2	R1320D
595.453	9.453	597496	PROB	9.453	n/a	n/a	n/a	-999	2	[6, 9, 9]	24	catFR1	2	R1320D
604.906	5.567	606948	PROB	5.567	n/a	n/a	n/a	-999	2	[4, 2, 4]	10	catFR1	2	R1320D
610.473	4.201	612515	PROB	4.201	n/a	n/a	n/a	-999	2	[2, 8, 2]	12	catFR1	2	R1320D
614.674	6.476	616716	PROB	6.476	n/a	n/a	n/a	-999	2	[2, 9, 8]	19	catFR1	2	R1320D
621.15	0.009	623191	STOP	n/a	n/a	n/a	n/a	-999	2	[-999, -999, -999]	n/a	catFR1	2	R1320D
621.159	0.621	623200	DISTRACT_END	n/a	n/a	n/a	n/a	-999	2	[0, 0, 0]	n/a	catFR1	2	R1320D
621.78	1.546	623821	RETRIEVAL_ORIENT_START	n/a	n/a	n/a	n/a	-999	2	[0, 0, 0]	n/a	catFR1	2	R1320D
623.326	0.001	625367	RETRIEVAL_ORIENT_END	n/a	n/a	n/a	n/a	-999	2	[0, 0, 0]	n/a	catFR1	2	R1320D
623.327	12.872	625368	REC_START	n/a	n/a	n/a	n/a	-999	2	[0, 0, 0]	n/a	catFR1	2	R1320D
636.199	5.25	638239	REC_WORD_VV	5.25	n/a	<>	n/a	-999	2	[0, 0, 0]	n/a	catFR1	2	R1320D
641.449	2.139	643489	REC_WORD	2.139	n/a	CARROT	Vegetables	9	2	[0, 0, 0]	n/a	catFR1	2	R1320D
643.588	2.864	645628	REC_WORD	2.864	n/a	BROCCOLI	Vegetables	10	2	[0, 0, 0]	n/a	catFR1	2	R1320D
646.452	6.888	648492	REC_WORD	6.888	n/a	PEELER	KitchenTools	-999	2	[0, 0, 0]	n/a	catFR1	2	R1320D
653.34	0.0	655380	REC_END	n/a	n/a	n/a	n/a	-999	2	[0, 0, 0]	n/a	catFR1	2	R1320D
653.34	0.024	655380	TRIAL_END	n/a	n/a	n/a	n/a	-999	2	[0, 0, 0]	n/a	catFR1	2	R1320D
653.364	0.0	655404	TRIAL_START	n/a	n/a	n/a	n/a	-999	3	[0, 0, 0]	n/a	catFR1	2	R1320D
653.364	0.0	655404	TRIAL	n/a	n/a	n/a	n/a	-999	3	[0, 0, 0]	n/a	catFR1	2	R1320D
653.364	3.251	655404	WAITING_START	n/a	n/a	n/a	n/a	-999	3	[0, 0, 0]	n/a	catFR1	2	R1320D
656.615	0.0	658654	COUNTDOWN_START	n/a	n/a	n/a	n/a	-999	3	[0, 0, 0]	n/a	catFR1	2	R1320D
656.615	10.428	658654	WAITING_END	n/a	n/a	n/a	n/a	-999	3	[0, 0, 0]	n/a	catFR1	2	R1320D
667.043	0.001	669082	COUNTDOWN_END	n/a	n/a	n/a	n/a	-999	3	[0, 0, 0]	n/a	catFR1	2	R1320D
667.044	1.224	669083	ORIENT_START	n/a	n/a	n/a	n/a	-999	3	[0, 0, 0]	n/a	catFR1	2	R1320D
668.268	0.0	670307	ORIENT_END	n/a	n/a	n/a	n/a	-999	3	[0, 0, 0]	n/a	catFR1	2	R1320D
668.268	0.837	670307	ENCODING_START	n/a	n/a	n/a	n/a	-999	3	[0, 0, 0]	n/a	catFR1	2	R1320D
669.105	1.63	671144	WORD	n/a	wordpools/wordpool_categorized_EN.txt	EAR	BodyParts	1	3	[0, 0, 0]	n/a	catFR1	2	R1320D
670.735	0.873	672774	WORD_OFF	n/a	n/a	EAR	BodyParts	1	3	[0, 0, 0]	n/a	catFR1	2	R1320D
671.608	1.627	673647	WORD	n/a	wordpools/wordpool_categorized_EN.txt	FOOT	BodyParts	2	3	[0, 0, 0]	n/a	catFR1	2	R1320D
673.235	0.911	675274	WORD_OFF	n/a	n/a	FOOT	BodyParts	2	3	[0, 0, 0]	n/a	catFR1	2	R1320D
674.146	1.623	676184	WORD	n/a	wordpools/wordpool_categorized_EN.txt	PIE	Desserts	3	3	[0, 0, 0]	n/a	catFR1	2	R1320D
675.769	0.874	677807	WORD_OFF	n/a	n/a	PIE	Desserts	3	3	[0, 0, 0]	n/a	catFR1	2	R1320D
676.643	1.626	678681	WORD	n/a	wordpools/wordpool_categorized_EN.txt	COBBLER	Desserts	4	3	[0, 0, 0]	n/a	catFR1	2	R1320D
678.269	1.048	680307	WORD_OFF	n/a	n/a	COBBLER	Desserts	4	3	[0, 0, 0]	n/a	catFR1	2	R1320D
679.317	1.636	681355	WORD	n/a	wordpools/wordpool_categorized_EN.txt	CROWBAR	Tools	5	3	[0, 0, 0]	n/a	catFR1	2	R1320D
680.953	1.004	682991	WORD_OFF	n/a	n/a	CROWBAR	Tools	5	3	[0, 0, 0]	n/a	catFR1	2	R1320D
681.957	1.629	683995	WORD	n/a	wordpools/wordpool_categorized_EN.txt	DRILL	Tools	6	3	[0, 0, 0]	n/a	catFR1	2	R1320D
683.586	0.908	685624	WORD_OFF	n/a	n/a	DRILL	Tools	6	3	[0, 0, 0]	n/a	catFR1	2	R1320D
684.494	1.627	686532	WORD	n/a	wordpools/wordpool_categorized_EN.txt	JELLO	Desserts	7	3	[0, 0, 0]	n/a	catFR1	2	R1320D
686.121	0.973	688159	WORD_OFF	n/a	n/a	JELLO	Desserts	7	3	[0, 0, 0]	n/a	catFR1	2	R1320D
687.094	1.627	689132	WORD	n/a	wordpools/wordpool_categorized_EN.txt	PASTRY	Desserts	8	3	[0, 0, 0]	n/a	catFR1	2	R1320D
688.721	0.841	690759	WORD_OFF	n/a	n/a	PASTRY	Desserts	8	3	[0, 0, 0]	n/a	catFR1	2	R1320D
689.562	1.626	691600	WORD	n/a	wordpools/wordpool_categorized_EN.txt	SAW	Tools	9	3	[0, 0, 0]	n/a	catFR1	2	R1320D
691.188	1.061	693226	WORD_OFF	n/a	n/a	SAW	Tools	9	3	[0, 0, 0]	n/a	catFR1	2	R1320D
692.249	1.623	694287	WORD	n/a	wordpools/wordpool_categorized_EN.txt	LEVEL	Tools	10	3	[0, 0, 0]	n/a	catFR1	2	R1320D
693.872	0.796	695909	WORD_OFF	n/a	n/a	LEVEL	Tools	10	3	[0, 0, 0]	n/a	catFR1	2	R1320D
694.668	1.621	696705	WORD	n/a	wordpools/wordpool_categorized_EN.txt	EYE	BodyParts	11	3	[0, 0, 0]	n/a	catFR1	2	R1320D
696.289	1.047	698326	WORD_OFF	n/a	n/a	EYE	BodyParts	11	3	[0, 0, 0]	n/a	catFR1	2	R1320D
697.336	1.637	699373	WORD	n/a	wordpools/wordpool_categorized_EN.txt	HAND	BodyParts	12	3	[0, 0, 0]	n/a	catFR1	2	R1320D
698.973	0.001	701010	WORD_OFF	n/a	n/a	HAND	BodyParts	12	3	[0, 0, 0]	n/a	catFR1	2	R1320D
698.974	0.0	701011	ENCODING_END	n/a	n/a	n/a	n/a	-999	3	[0, 0, 0]	n/a	catFR1	2	R1320D
698.974	0.0	701011	DISTRACT_START	n/a	n/a	n/a	n/a	-999	3	[0, 0, 0]	n/a	catFR1	2	R1320D
698.974	0.016	701011	START	n/a	n/a	n/a	n/a	-999	3	[-999, -999, -999]	n/a	catFR1	2	R1320D
698.99	6.668	701027	PROB	6.668	n/a	n/a	n/a	-999	3	[8, 1, 8]	17	catFR1	2	R1320D
705.658	8.551	707695	PROB	8.551	n/a	n/a	n/a	-999	3	[9, 4, 8]	20	catFR1	2	R1320D
714.209	5.357	716245	PROB	5.357	n/a	n/a	n/a	-999	3	[3, 7, 2]	12	catFR1	2	R1320D
719.566	0.01	721602	STOP	n/a	n/a	n/a	n/a	-999	3	[-999, -999, -999]	n/a	catFR1	2	R1320D
719.576	0.672	721612	DISTRACT_END	n/a	n/a	n/a	n/a	-999	3	[0, 0, 0]	n/a	catFR1	2	R1320D
720.248	1.613	722284	RETRIEVAL_ORIENT_START	n/a	n/a	n/a	n/a	-999	3	[0, 0, 0]	n/a	catFR1	2	R1320D
721.861	0.0	723897	RETRIEVAL_ORIENT_END	n/a	n/a	n/a	n/a	-999	3	[0, 0, 0]	n/a	catFR1	2	R1320D
721.861	13.944	723897	REC_START	n/a	n/a	n/a	n/a	-999	3	[0, 0, 0]	n/a	catFR1	2	R1320D
735.805	8.841	737840	REC_WORD_VV	8.841	n/a	<>	n/a	-999	3	[0, 0, 0]	n/a	catFR1	2	R1320D
744.646	7.229	746681	REC_WORD_VV	7.229	n/a	<>	n/a	-999	3	[0, 0, 0]	n/a	catFR1	2	R1320D
751.875	0.0	753909	REC_END	n/a	n/a	n/a	n/a	-999	3	[0, 0, 0]	n/a	catFR1	2	R1320D
751.875	0.024	753909	TRIAL_END	n/a	n/a	n/a	n/a	-999	3	[0, 0, 0]	n/a	catFR1	2	R1320D
751.899	0.0	753933	TRIAL_START	n/a	n/a	n/a	n/a	-999	4	[0, 0, 0]	n/a	catFR1	2	R1320D
751.899	0.001	753933	TRIAL	n/a	n/a	n/a	n/a	-999	4	[0, 0, 0]	n/a	catFR1	2	R1320D
751.9	12.568	753934	WAITING_START	n/a	n/a	n/a	n/a	-999	4	[0, 0, 0]	n/a	catFR1	2	R1320D
764.468	0.0	766502	WAITING_END	n/a	n/a	n/a	n/a	-999	4	[0, 0, 0]	n/a	catFR1	2	R1320D
764.468	10.428	766502	COUNTDOWN_START	n/a	n/a	n/a	n/a	-999	4	[0, 0, 0]	n/a	catFR1	2	R1320D
774.896	0.0	776929	ORIENT_START	n/a	n/a	n/a	n/a	-999	4	[0, 0, 0]	n/a	catFR1	2	R1320D
774.896	1.225	776929	COUNTDOWN_END	n/a	n/a	n/a	n/a	-999	4	[0, 0, 0]	n/a	catFR1	2	R1320D
776.121	0.0	778154	ORIENT_END	n/a	n/a	n/a	n/a	-999	4	[0, 0, 0]	n/a	catFR1	2	R1320D
776.121	0.851	778154	ENCODING_START	n/a	n/a	n/a	n/a	-999	4	[0, 0, 0]	n/a	catFR1	2	R1320D
776.972	1.631	779005	WORD	n/a	wordpools/wordpool_categorized_EN.txt	DRESSER	Furniture	1	4	[0, 0, 0]	n/a	catFR1	2	R1320D
778.603	0.969	780636	WORD_OFF	n/a	n/a	DRESSER	Furniture	1	4	[0, 0, 0]	n/a	catFR1	2	R1320D
779.572	1.616	781605	WORD	n/a	wordpools/wordpool_categorized_EN.txt	RECLINER	Furniture	2	4	[0, 0, 0]	n/a	catFR1	2	R1320D
781.188	0.76	783221	WORD_OFF	n/a	n/a	RECLINER	Furniture	2	4	[0, 0, 0]	n/a	catFR1	2	R1320D
781.948	1.623	783981	WORD	n/a	wordpools/wordpool_categorized_EN.txt	LOBSTER	OceanAnimals	3	4	[0, 0, 0]	n/a	catFR1	2	R1320D
783.571	1.076	785604	WORD_OFF	n/a	n/a	LOBSTER	OceanAnimals	3	4	[0, 0, 0]	n/a	catFR1	2	R1320D
784.647	1.626	786680	WORD	n/a	wordpools/wordpool_categorized_EN.txt	WHALE	OceanAnimals	4	4	[0, 0, 0]	n/a	catFR1	2	R1320D
786.273	1.054	788306	WORD_OFF	n/a	n/a	WHALE	OceanAnimals	4	4	[0, 0, 0]	n/a	catFR1	2	R1320D
787.327	1.629	789359	WORD	n/a	wordpools/wordpool_categorized_EN.txt	LETTUCE	Vegetables	5	4	[0, 0, 0]	n/a	catFR1	2	R1320D
788.956	1.0	790988	WORD_OFF	n/a	n/a	LETTUCE	Vegetables	5	4	[0, 0, 0]	n/a	catFR1	2	R1320D
789.956	1.633	791988	WORD	n/a	wordpools/wordpool_categorized_EN.txt	ONION	Vegetables	6	4	[0, 0, 0]	n/a	catFR1	2	R1320D
791.589	0.801	793621	WORD_OFF	n/a	n/a	ONION	Vegetables	6	4	[0, 0, 0]	n/a	catFR1	2	R1320D
792.39	1.634	794422	WORD	n/a	wordpools/wordpool_categorized_EN.txt	TURTLE	OceanAnimals	7	4	[0, 0, 0]	n/a	catFR1	2	R1320D
794.024	1.063	796056	WORD_OFF	n/a	n/a	TURTLE	OceanAnimals	7	4	[0, 0, 0]	n/a	catFR1	2	R1320D
795.087	1.637	797119	WORD	n/a	wordpools/wordpool_categorized_EN.txt	OCTOPUS	OceanAnimals	8	4	[0, 0, 0]	n/a	catFR1	2	R1320D
796.724	1.121	798756	WORD_OFF	n/a	n/a	OCTOPUS	OceanAnimals	8	4	[0, 0, 0]	n/a	catFR1	2	R1320D
797.845	1.629	799877	WORD	n/a	wordpools/wordpool_categorized_EN.txt	CHAIR	Furniture	9	4	[0, 0, 0]	n/a	catFR1	2	R1320D
799.474	1.076	801506	WORD_OFF	n/a	n/a	CHAIR	Furniture	9	4	[0, 0, 0]	n/a	catFR1	2	R1320D
800.55	1.625	802582	WORD	n/a	wordpools/wordpool_categorized_EN.txt	NIGHTSTAND	Furniture	10	4	[0, 0, 0]	n/a	catFR1	2	R1320D
802.175	0.993	804207	WORD_OFF	n/a	n/a	NIGHTSTAND	Furniture	10	4	[0, 0, 0]	n/a	catFR1	2	R1320D
803.168	1.624	805200	WORD	n/a	wordpools/wordpool_categorized_EN.txt	POTATO	Vegetables	11	4	[0, 0, 0]	n/a	catFR1	2	R1320D
804.792	1.106	806824	WORD_OFF	n/a	n/a	POTATO	Vegetables	11	4	[0, 0, 0]	n/a	catFR1	2	R1320D
805.898	1.627	807930	WORD	n/a	wordpools/wordpool_categorized_EN.txt	SPINACH	Vegetables	12	4	[0, 0, 0]	n/a	catFR1	2	R1320D
807.525	0.001	809556	WORD_OFF	n/a	n/a	SPINACH	Vegetables	12	4	[0, 0, 0]	n/a	catFR1	2	R1320D
807.526	0.0	809557	ENCODING_END	n/a	n/a	n/a	n/a	-999	4	[0, 0, 0]	n/a	catFR1	2	R1320D
807.526	0.0	809557	DISTRACT_START	n/a	n/a	n/a	n/a	-999	4	[0, 0, 0]	n/a	catFR1	2	R1320D
807.526	0.016	809557	START	n/a	n/a	n/a	n/a	-999	4	[-999, -999, -999]	n/a	catFR1	2	R1320D
807.542	9.503	809573	PROB	9.503	n/a	n/a	n/a	-999	4	[1, 4, 7]	17	catFR1	2	R1320D
817.045	12.913	819076	PROB	12.913	n/a	n/a	n/a	-999	4	[8, 5, 3]	16	catFR1	2	R1320D
829.958	0.023	831988	STOP	n/a	n/a	n/a	n/a	-999	4	[-999, -999, -999]	n/a	catFR1	2	R1320D
829.981	0.502	832011	DISTRACT_END	n/a	n/a	n/a	n/a	-999	4	[0, 0, 0]	n/a	catFR1	2	R1320D
830.483	1.665	832513	RETRIEVAL_ORIENT_START	n/a	n/a	n/a	n/a	-999	4	[0, 0, 0]	n/a	catFR1	2	R1320D
832.148	0.0	834178	RETRIEVAL_ORIENT_END	n/a	n/a	n/a	n/a	-999	4	[0, 0, 0]	n/a	catFR1	2	R1320D
832.148	28.305	834178	REC_START	n/a	n/a	n/a	n/a	-999	4	[0, 0, 0]	n/a	catFR1	2	R1320D
860.453	1.706	862482	REC_WORD_VV	1.706	n/a	<>	n/a	-999	4	[0, 0, 0]	n/a	catFR1	2	R1320D
862.159	0.0	864188	TRIAL_END	n/a	n/a	n/a	n/a	-999	4	[0, 0, 0]	n/a	catFR1	2	R1320D
862.159	0.024	864188	REC_END	n/a	n/a	n/a	n/a	-999	4	[0, 0, 0]	n/a	catFR1	2	R1320D
862.183	0.0	864212	TRIAL_START	n/a	n/a	n/a	n/a	-999	5	[0, 0, 0]	n/a	catFR1	2	R1320D
862.183	0.0	864212	TRIAL	n/a	n/a	n/a	n/a	-999	5	[0, 0, 0]	n/a	catFR1	2	R1320D
862.183	4.854	864212	WAITING_START	n/a	n/a	n/a	n/a	-999	5	[0, 0, 0]	n/a	catFR1	2	R1320D
867.037	0.001	869065	WAITING_END	n/a	n/a	n/a	n/a	-999	5	[0, 0, 0]	n/a	catFR1	2	R1320D
867.038	10.429	869066	COUNTDOWN_START	n/a	n/a	n/a	n/a	-999	5	[0, 0, 0]	n/a	catFR1	2	R1320D
877.467	0.0	879495	ORIENT_START	n/a	n/a	n/a	n/a	-999	5	[0, 0, 0]	n/a	catFR1	2	R1320D
877.467	1.206	879495	COUNTDOWN_END	n/a	n/a	n/a	n/a	-999	5	[0, 0, 0]	n/a	catFR1	2	R1320D
878.673	0.0	880701	ENCODING_START	n/a	n/a	n/a	n/a	-999	5	[0, 0, 0]	n/a	catFR1	2	R1320D
878.673	0.774	880701	ORIENT_END	n/a	n/a	n/a	n/a	-999	5	[0, 0, 0]	n/a	catFR1	2	R1320D
879.447	1.626	881475	WORD	n/a	wordpools/wordpool_categorized_EN.txt	ROBIN	Birds	1	5	[0, 0, 0]	n/a	catFR1	2	R1320D
881.073	0.778	883101	WORD_OFF	n/a	n/a	ROBIN	Birds	1	5	[0, 0, 0]	n/a	catFR1	2	R1320D
881.851	1.622	883878	WORD	n/a	wordpools/wordpool_categorized_EN.txt	CARDINAL	Birds	2	5	[0, 0, 0]	n/a	catFR1	2	R1320D
883.473	0.811	885500	WORD_OFF	n/a	n/a	CARDINAL	Birds	2	5	[0, 0, 0]	n/a	catFR1	2	R1320D
884.284	1.623	886311	WORD	n/a	wordpools/wordpool_categorized_EN.txt	SOFA	Furniture	3	5	[0, 0, 0]	n/a	catFR1	2	R1320D
885.907	0.977	887934	WORD_OFF	n/a	n/a	SOFA	Furniture	3	5	[0, 0, 0]	n/a	catFR1	2	R1320D
886.884	1.623	888911	WORD	n/a	wordpools/wordpool_categorized_EN.txt	COUCH	Furniture	4	5	[0, 0, 0]	n/a	catFR1	2	R1320D
888.507	1.065	890534	WORD_OFF	n/a	n/a	COUCH	Furniture	4	5	[0, 0, 0]	n/a	catFR1	2	R1320D
889.572	1.619	891599	WORD	n/a	wordpools/wordpool_categorized_EN.txt	SHOVEL	Tools	5	5	[0, 0, 0]	n/a	catFR1	2	R1320D
891.191	0.924	893218	WORD_OFF	n/a	n/a	SHOVEL	Tools	5	5	[0, 0, 0]	n/a	catFR1	2	R1320D
892.115	1.627	894142	WORD	n/a	wordpools/wordpool_categorized_EN.txt	HAMMER	Tools	6	5	[0, 0, 0]	n/a	catFR1	2	R1320D
893.742	0.968	895769	WORD_OFF	n/a	n/a	HAMMER	Tools	6	5	[0, 0, 0]	n/a	catFR1	2	R1320D
894.71	1.633	896737	WORD	n/a	wordpools/wordpool_categorized_EN.txt	DESK	Furniture	7	5	[0, 0, 0]	n/a	catFR1	2	R1320D
896.343	0.984	898370	WORD_OFF	n/a	n/a	DESK	Furniture	7	5	[0, 0, 0]	n/a	catFR1	2	R1320D
897.327	1.633	899354	WORD	n/a	wordpools/wordpool_categorized_EN.txt	TABLE	Furniture	8	5	[0, 0, 0]	n/a	catFR1	2	R1320D
898.96	0.763	900987	WORD_OFF	n/a	n/a	TABLE	Furniture	8	5	[0, 0, 0]	n/a	catFR1	2	R1320D
899.723	1.637	901750	WORD	n/a	wordpools/wordpool_categorized_EN.txt	DUCK	Birds	9	5	[0, 0, 0]	n/a	catFR1	2	R1320D
901.36	0.888	903386	WORD_OFF	n/a	n/a	DUCK	Birds	9	5	[0, 0, 0]	n/a	catFR1	2	R1320D
902.248	1.629	904274	WORD	n/a	wordpools/wordpool_categorized_EN.txt	SEAGULL	Birds	10	5	[0, 0, 0]	n/a	catFR1	2	R1320D
903.877	0.784	905903	WORD_OFF	n/a	n/a	SEAGULL	Birds	10	5	[0, 0, 0]	n/a	catFR1	2	R1320D
904.661	1.633	906687	WORD	n/a	wordpools/wordpool_categorized_EN.txt	AXE	Tools	11	5	[0, 0, 0]	n/a	catFR1	2	R1320D
906.294	0.787	908320	WORD_OFF	n/a	n/a	AXE	Tools	11	5	[0, 0, 0]	n/a	catFR1	2	R1320D
907.081	1.631	909107	WORD	n/a	wordpools/wordpool_categorized_EN.txt	PLIERS	Tools	12	5	[0, 0, 0]	n/a	catFR1	2	R1320D
908.712	0.0	910738	WORD_OFF	n/a	n/a	PLIERS	Tools	12	5	[0, 0, 0]	n/a	catFR1	2	R1320D
908.712	0.0	910738	ENCODING_END	n/a	n/a	n/a	n/a	-999	5	[0, 0, 0]	n/a	catFR1	2	R1320D
908.712	0.001	910738	DISTRACT_START	n/a	n/a	n/a	n/a	-999	5	[0, 0, 0]	n/a	catFR1	2	R1320D
908.713	0.015	910739	START	n/a	n/a	n/a	n/a	-999	5	[-999, -999, -999]	n/a	catFR1	2	R1320D
908.728	7.351	910754	PROB	7.351	n/a	n/a	n/a	-999	5	[9, 2, 2]	13	catFR1	2	R1320D
916.079	8.369	918105	PROB	8.369	n/a	n/a	n/a	-999	5	[2, 4, 4]	10	catFR1	2	R1320D
924.448	7.631	926473	PROB	7.631	n/a	n/a	n/a	-999	5	[6, 4, 5]	15	catFR1	2	R1320D
932.079	0.02	934104	STOP	n/a	n/a	n/a	n/a	-999	5	[-999, -999, -999]	n/a	catFR1	2	R1320D
932.099	0.632	934124	DISTRACT_END	n/a	n/a	n/a	n/a	-999	5	[0, 0, 0]	n/a	catFR1	2	R1320D
932.731	1.585	934756	RETRIEVAL_ORIENT_START	n/a	n/a	n/a	n/a	-999	5	[0, 0, 0]	n/a	catFR1	2	R1320D
934.316	0.001	936341	RETRIEVAL_ORIENT_END	n/a	n/a	n/a	n/a	-999	5	[0, 0, 0]	n/a	catFR1	2	R1320D
934.317	5.232	936342	REC_START	n/a	n/a	n/a	n/a	-999	5	[0, 0, 0]	n/a	catFR1	2	R1320D
939.549	1.542	941573	REC_WORD	1.542	n/a	TABLE	Furniture	8	5	[0, 0, 0]	n/a	catFR1	2	R1320D
941.091	3.232	943115	REC_WORD	3.232	n/a	HAMMER	Tools	6	5	[0, 0, 0]	n/a	catFR1	2	R1320D
944.323	20.006	946347	REC_WORD	20.006	n/a	LAVA	n/a	-999	5	[0, 0, 0]	n/a	catFR1	2	R1320D
964.329	0.0	966352	TRIAL_END	n/a	n/a	n/a	n/a	-999	5	[0, 0, 0]	n/a	catFR1	2	R1320D
964.329	0.022	966352	REC_END	n/a	n/a	n/a	n/a	-999	5	[0, 0, 0]	n/a	catFR1	2	R1320D
964.351	0.0	966374	TRIAL_START	n/a	n/a	n/a	n/a	-999	6	[0, 0, 0]	n/a	catFR1	2	R1320D
964.351	0.0	966374	TRIAL	n/a	n/a	n/a	n/a	-999	6	[0, 0, 0]	n/a	catFR1	2	R1320D
964.351	4.038	966374	WAITING_START	n/a	n/a	n/a	n/a	-999	6	[0, 0, 0]	n/a	catFR1	2	R1320D
968.389	0.001	970412	WAITING_END	n/a	n/a	n/a	n/a	-999	6	[0, 0, 0]	n/a	catFR1	2	R1320D
968.39	10.428	970413	COUNTDOWN_START	n/a	n/a	n/a	n/a	-999	6	[0, 0, 0]	n/a	catFR1	2	R1320D
978.818	0.001	980840	COUNTDOWN_END	n/a	n/a	n/a	n/a	-999	6	[0, 0, 0]	n/a	catFR1	2	R1320D
978.819	1.022	980841	ORIENT_START	n/a	n/a	n/a	n/a	-999	6	[0, 0, 0]	n/a	catFR1	2	R1320D
979.841	0.001	981863	ORIENT_END	n/a	n/a	n/a	n/a	-999	6	[0, 0, 0]	n/a	catFR1	2	R1320D
979.842	0.827	981864	ENCODING_START	n/a	n/a	n/a	n/a	-999	6	[0, 0, 0]	n/a	catFR1	2	R1320D
980.669	1.623	982691	WORD	n/a	wordpools/wordpool_categorized_EN.txt	COAT	Clothing	1	6	[0, 0, 0]	n/a	catFR1	2	R1320D
982.292	1.145	984314	WORD_OFF	n/a	n/a	COAT	Clothing	1	6	[0, 0, 0]	n/a	catFR1	2	R1320D
983.437	1.622	985459	WORD	n/a	wordpools/wordpool_categorized_EN.txt	PANTS	Clothing	2	6	[0, 0, 0]	n/a	catFR1	2	R1320D
985.059	1.033	987081	WORD_OFF	n/a	n/a	PANTS	Clothing	2	6	[0, 0, 0]	n/a	catFR1	2	R1320D
986.092	1.634	988114	WORD	n/a	wordpools/wordpool_categorized_EN.txt	LADLE	KitchenTools	3	6	[0, 0, 0]	n/a	catFR1	2	R1320D
987.726	1.073	989748	WORD_OFF	n/a	n/a	LADLE	KitchenTools	3	6	[0, 0, 0]	n/a	catFR1	2	R1320D
988.799	1.627	990821	WORD	n/a	wordpools/wordpool_categorized_EN.txt	GRATER	KitchenTools	4	6	[0, 0, 0]	n/a	catFR1	2	R1320D
990.426	1.085	992448	WORD_OFF	n/a	n/a	GRATER	KitchenTools	4	6	[0, 0, 0]	n/a	catFR1	2	R1320D
991.511	1.616	993533	WORD	n/a	wordpools/wordpool_categorized_EN.txt	STAPLER	OfficeSupplies	5	6	[0, 0, 0]	n/a	catFR1	2	R1320D
993.127	0.791	995149	WORD_OFF	n/a	n/a	STAPLER	OfficeSupplies	5	6	[0, 0, 0]	n/a	catFR1	2	R1320D
993.918	1.625	995940	WORD	n/a	wordpools/wordpool_categorized_EN.txt	PENCIL	OfficeSupplies	6	6	[0, 0, 0]	n/a	catFR1	2	R1320D
995.543	0.822	997564	WORD_OFF	n/a	n/a	PENCIL	OfficeSupplies	6	6	[0, 0, 0]	n/a	catFR1	2	R1320D
996.365	1.629	998386	WORD	n/a	wordpools/wordpool_categorized_EN.txt	KNIFE	KitchenTools	7	6	[0, 0, 0]	n/a	catFR1	2	R1320D
997.994	1.081	1000015	WORD_OFF	n/a	n/a	KNIFE	KitchenTools	7	6	[0, 0, 0]	n/a	catFR1	2	R1320D
999.075	1.637	1001096	WORD	n/a	wordpools/wordpool_categorized_EN.txt	SPATULA	KitchenTools	8	6	[0, 0, 0]	n/a	catFR1	2	R1320D
1000.712	1.015	1002733	WORD_OFF	n/a	n/a	SPATULA	KitchenTools	8	6	[0, 0, 0]	n/a	catFR1	2	R1320D
1001.727	1.635	1003748	WORD	n/a	wordpools/wordpool_categorized_EN.txt	GLUE	OfficeSupplies	9	6	[0, 0, 0]	n/a	catFR1	2	R1320D
1003.362	1.019	1005383	WORD_OFF	n/a	n/a	GLUE	OfficeSupplies	9	6	[0, 0, 0]	n/a	catFR1	2	R1320D
1004.381	1.632	1006402	WORD	n/a	wordpools/wordpool_categorized_EN.txt	NOTEBOOK	OfficeSupplies	10	6	[0, 0, 0]	n/a	catFR1	2	R1320D
1006.013	0.854	1008034	WORD_OFF	n/a	n/a	NOTEBOOK	OfficeSupplies	10	6	[0, 0, 0]	n/a	catFR1	2	R1320D
1006.867	1.628	1008888	WORD	n/a	wordpools/wordpool_categorized_EN.txt	SHORTS	Clothing	11	6	[0, 0, 0]	n/a	catFR1	2	R1320D
1008.495	1.092	1010516	WORD_OFF	n/a	n/a	SHORTS	Clothing	11	6	[0, 0, 0]	n/a	catFR1	2	R1320D
1009.587	1.61	1011608	WORD	n/a	wordpools/wordpool_categorized_EN.txt	BLOUSE	Clothing	12	6	[0, 0, 0]	n/a	catFR1	2	R1320D
1011.197	0.0	1013218	ENCODING_END	n/a	n/a	n/a	n/a	-999	6	[0, 0, 0]	n/a	catFR1	2	R1320D
1011.197	0.0	1013218	DISTRACT_START	n/a	n/a	n/a	n/a	-999	6	[0, 0, 0]	n/a	catFR1	2	R1320D
1011.197	0.0	1013218	WORD_OFF	n/a	n/a	BLOUSE	Clothing	12	6	[0, 0, 0]	n/a	catFR1	2	R1320D
1011.197	0.016	1013218	START	n/a	n/a	n/a	n/a	-999	6	[-999, -999, -999]	n/a	catFR1	2	R1320D
1011.213	8.985	1013234	PROB	8.985	n/a	n/a	n/a	-999	6	[9, 3, 8]	20	catFR1	2	R1320D
1020.198	8.618	1022218	PROB	8.618	n/a	n/a	n/a	-999	6	[7, 4, 5]	16	catFR1	2	R1320D
1028.816	4.887	1030836	PROB	4.887	n/a	n/a	n/a	-999	6	[6, 3, 1]	10	catFR1	2	R1320D
1033.703	0.015	1035722	STOP	n/a	n/a	n/a	n/a	-999	6	[-999, -999, -999]	n/a	catFR1	2	R1320D
1033.718	0.596	1035737	DISTRACT_END	n/a	n/a	n/a	n/a	-999	6	[0, 0, 0]	n/a	catFR1	2	R1320D
1034.314	1.687	1036333	RETRIEVAL_ORIENT_START	n/a	n/a	n/a	n/a	-999	6	[0, 0, 0]	n/a	catFR1	2	R1320D
1036.001	0.001	1038020	RETRIEVAL_ORIENT_END	n/a	n/a	n/a	n/a	-999	6	[0, 0, 0]	n/a	catFR1	2	R1320D
1036.002	23.434	1038021	REC_START	n/a	n/a	n/a	n/a	-999	6	[0, 0, 0]	n/a	catFR1	2	R1320D
1059.436	4.526	1061454	REC_WORD_VV	4.526	n/a	<>	n/a	-999	6	[0, 0, 0]	n/a	catFR1	2	R1320D
1063.962	2.053	1065980	REC_WORD_VV	2.053	n/a	<>	n/a	-999	6	[0, 0, 0]	n/a	catFR1	2	R1320D
1066.015	0.0	1068033	TRIAL_END	n/a	n/a	n/a	n/a	-999	6	[0, 0, 0]	n/a	catFR1	2	R1320D
1066.015	0.022	1068033	REC_END	n/a	n/a	n/a	n/a	-999	6	[0, 0, 0]	n/a	catFR1	2	R1320D
1066.037	0.0	1068055	TRIAL_START	n/a	n/a	n/a	n/a	-999	7	[0, 0, 0]	n/a	catFR1	2	R1320D
1066.037	0.0	1068055	TRIAL	n/a	n/a	n/a	n/a	-999	7	[0, 0, 0]	n/a	catFR1	2	R1320D
1066.037	4.57	1068055	WAITING_START	n/a	n/a	n/a	n/a	-999	7	[0, 0, 0]	n/a	catFR1	2	R1320D
1070.607	0.0	1072625	WAITING_END	n/a	n/a	n/a	n/a	-999	7	[0, 0, 0]	n/a	catFR1	2	R1320D
1070.607	10.43	1072625	COUNTDOWN_START	n/a	n/a	n/a	n/a	-999	7	[0, 0, 0]	n/a	catFR1	2	R1320D
1081.037	0.0	1083054	COUNTDOWN_END	n/a	n/a	n/a	n/a	-999	7	[0, 0, 0]	n/a	catFR1	2	R1320D
1081.037	1.173	1083054	ORIENT_START	n/a	n/a	n/a	n/a	-999	7	[0, 0, 0]	n/a	catFR1	2	R1320D
1082.21	0.0	1084227	ORIENT_END	n/a	n/a	n/a	n/a	-999	7	[0, 0, 0]	n/a	catFR1	2	R1320D
1082.21	0.751	1084227	ENCODING_START	n/a	n/a	n/a	n/a	-999	7	[0, 0, 0]	n/a	catFR1	2	R1320D
1082.961	1.632	1084978	WORD	n/a	wordpools/wordpool_categorized_EN.txt	COLA	Beverages	1	7	[0, 0, 0]	n/a	catFR1	2	R1320D
1084.593	1.06	1086610	WORD_OFF	n/a	n/a	COLA	Beverages	1	7	[0, 0, 0]	n/a	catFR1	2	R1320D
1085.653	1.624	1087670	WORD	n/a	wordpools/wordpool_categorized_EN.txt	SODA	Beverages	2	7	[0, 0, 0]	n/a	catFR1	2	R1320D
1087.277	0.756	1089294	WORD_OFF	n/a	n/a	SODA	Beverages	2	7	[0, 0, 0]	n/a	catFR1	2	R1320D
1088.033	1.628	1090050	WORD	n/a	wordpools/wordpool_categorized_EN.txt	BASS	Instruments	3	7	[0, 0, 0]	n/a	catFR1	2	R1320D
1089.661	0.779	1091678	WORD_OFF	n/a	n/a	BASS	Instruments	3	7	[0, 0, 0]	n/a	catFR1	2	R1320D
1090.44	1.638	1092456	WORD	n/a	wordpools/wordpool_categorized_EN.txt	ORGAN	Instruments	4	7	[0, 0, 0]	n/a	catFR1	2	R1320D
1092.078	1.098	1094094	WORD_OFF	n/a	n/a	ORGAN	Instruments	4	7	[0, 0, 0]	n/a	catFR1	2	R1320D
1093.176	1.636	1095192	WORD	n/a	wordpools/wordpool_categorized_EN.txt	RULER	OfficeSupplies	5	7	[0, 0, 0]	n/a	catFR1	2	R1320D
1094.812	0.912	1096828	WORD_OFF	n/a	n/a	RULER	OfficeSupplies	5	7	[0, 0, 0]	n/a	catFR1	2	R1320D
1095.724	1.622	1097740	WORD	n/a	wordpools/wordpool_categorized_EN.txt	MARKER	OfficeSupplies	6	7	[0, 0, 0]	n/a	catFR1	2	R1320D
1097.346	0.884	1099362	WORD_OFF	n/a	n/a	MARKER	OfficeSupplies	6	7	[0, 0, 0]	n/a	catFR1	2	R1320D
1098.23	1.633	1100246	WORD	n/a	wordpools/wordpool_categorized_EN.txt	PIANO	Instruments	7	7	[0, 0, 0]	n/a	catFR1	2	R1320D
1099.863	0.896	1101879	WORD_OFF	n/a	n/a	PIANO	Instruments	7	7	[0, 0, 0]	n/a	catFR1	2	R1320D
1100.759	1.638	1102775	WORD	n/a	wordpools/wordpool_categorized_EN.txt	CELLO	Instruments	8	7	[0, 0, 0]	n/a	catFR1	2	R1320D
1102.397	0.912	1104413	WORD_OFF	n/a	n/a	CELLO	Instruments	8	7	[0, 0, 0]	n/a	catFR1	2	R1320D
1103.309	1.622	1105325	WORD	n/a	wordpools/wordpool_categorized_EN.txt	MILK	Beverages	9	7	[0, 0, 0]	n/a	catFR1	2	R1320D
1104.931	1.142	1106947	WORD_OFF	n/a	n/a	MILK	Beverages	9	7	[0, 0, 0]	n/a	catFR1	2	R1320D
1106.073	1.625	1108089	WORD	n/a	wordpools/wordpool_categorized_EN.txt	TEA	Beverages	10	7	[0, 0, 0]	n/a	catFR1	2	R1320D
1107.698	0.882	1109714	WORD_OFF	n/a	n/a	TEA	Beverages	10	7	[0, 0, 0]	n/a	catFR1	2	R1320D
1108.58	1.635	1110596	WORD	n/a	wordpools/wordpool_categorized_EN.txt	PEN	OfficeSupplies	11	7	[0, 0, 0]	n/a	catFR1	2	R1320D
1110.215	1.091	1112230	WORD_OFF	n/a	n/a	PEN	OfficeSupplies	11	7	[0, 0, 0]	n/a	catFR1	2	R1320D
1111.306	1.626	1113321	WORD	n/a	wordpools/wordpool_categorized_EN.txt	BINDER	OfficeSupplies	12	7	[0, 0, 0]	n/a	catFR1	2	R1320D
1112.932	0.001	1114947	WORD_OFF	n/a	n/a	BINDER	OfficeSupplies	12	7	[0, 0, 0]	n/a	catFR1	2	R1320D
1112.933	0.0	1114948	ENCODING_END	n/a	n/a	n/a	n/a	-999	7	[0, 0, 0]	n/a	catFR1	2	R1320D
1112.933	0.0	1114948	DISTRACT_START	n/a	n/a	n/a	n/a	-999	7	[0, 0, 0]	n/a	catFR1	2	R1320D
1112.933	0.016	1114948	START	n/a	n/a	n/a	n/a	-999	7	[-999, -999, -999]	n/a	catFR1	2	R1320D
1112.949	4.801	1114964	PROB	4.801	n/a	n/a	n/a	-999	7	[8, 1, 1]	10	catFR1	2	R1320D
1117.75	6.517	1119765	PROB	6.517	n/a	n/a	n/a	-999	7	[9, 1, 6]	16	catFR1	2	R1320D
1124.267	6.151	1126282	PROB	6.151	n/a	n/a	n/a	-999	7	[9, 1, 8]	18	catFR1	2	R1320D
1130.418	5.389	1132432	PROB	5.389	n/a	n/a	n/a	-999	7	[9, 2, 1]	12	catFR1	2	R1320D
1135.807	0.013	1137821	STOP	n/a	n/a	n/a	n/a	-999	7	[-999, -999, -999]	n/a	catFR1	2	R1320D
1135.82	0.666	1137834	DISTRACT_END	n/a	n/a	n/a	n/a	-999	7	[0, 0, 0]	n/a	catFR1	2	R1320D
1136.486	1.534	1138500	RETRIEVAL_ORIENT_START	n/a	n/a	n/a	n/a	-999	7	[0, 0, 0]	n/a	catFR1	2	R1320D
1138.02	0.0	1140034	RETRIEVAL_ORIENT_END	n/a	n/a	n/a	n/a	-999	7	[0, 0, 0]	n/a	catFR1	2	R1320D
1138.02	2.971	1140034	REC_START	n/a	n/a	n/a	n/a	-999	7	[0, 0, 0]	n/a	catFR1	2	R1320D
1140.991	0.994	1143005	REC_WORD	0.994	n/a	PIANO	Instruments	7	7	[0, 0, 0]	n/a	catFR1	2	R1320D
1141.985	26.048	1143999	REC_WORD	26.048	n/a	PIANO	Instruments	7	7	[0, 0, 0]	n/a	catFR1	2	R1320D
1168.033	0.001	1170045	REC_END	n/a	n/a	n/a	n/a	-999	7	[0, 0, 0]	n/a	catFR1	2	R1320D
1168.034	0.024	1170046	TRIAL_END	n/a	n/a	n/a	n/a	-999	7	[0, 0, 0]	n/a	catFR1	2	R1320D
1168.058	0.001	1170070	TRIAL_START	n/a	n/a	n/a	n/a	-999	8	[0, 0, 0]	n/a	catFR1	2	R1320D
1168.059	0.0	1170071	WAITING_START	n/a	n/a	n/a	n/a	-999	8	[0, 0, 0]	n/a	catFR1	2	R1320D
1168.059	3.3	1170071	TRIAL	n/a	n/a	n/a	n/a	-999	8	[0, 0, 0]	n/a	catFR1	2	R1320D
1171.359	0.001	1173371	WAITING_END	n/a	n/a	n/a	n/a	-999	8	[0, 0, 0]	n/a	catFR1	2	R1320D
1171.36	10.429	1173372	COUNTDOWN_START	n/a	n/a	n/a	n/a	-999	8	[0, 0, 0]	n/a	catFR1	2	R1320D
1181.789	0.0	1183801	COUNTDOWN_END	n/a	n/a	n/a	n/a	-999	8	[0, 0, 0]	n/a	catFR1	2	R1320D
1181.789	1.039	1183801	ORIENT_START	n/a	n/a	n/a	n/a	-999	8	[0, 0, 0]	n/a	catFR1	2	R1320D
1182.828	0.001	1184840	ORIENT_END	n/a	n/a	n/a	n/a	-999	8	[0, 0, 0]	n/a	catFR1	2	R1320D
1182.829	1.022	1184841	ENCODING_START	n/a	n/a	n/a	n/a	-999	8	[0, 0, 0]	n/a	catFR1	2	R1320D
1183.851	1.627	1185863	WORD	n/a	wordpools/wordpool_categorized_EN.txt	JUICE	Beverages	1	8	[0, 0, 0]	n/a	catFR1	2	R1320D
1185.478	1.102	1187489	WORD_OFF	n/a	n/a	JUICE	Beverages	1	8	[0, 0, 0]	n/a	catFR1	2	R1320D
1186.58	1.616	1188591	WORD	n/a	wordpools/wordpool_categorized_EN.txt	CIDER	Beverages	2	8	[0, 0, 0]	n/a	catFR1	2	R1320D
1188.196	1.129	1190207	WORD_OFF	n/a	n/a	CIDER	Beverages	2	8	[0, 0, 0]	n/a	catFR1	2	R1320D
1189.325	1.638	1191336	WORD	n/a	wordpools/wordpool_categorized_EN.txt	GRAPE	Fruit	3	8	[0, 0, 0]	n/a	catFR1	2	R1320D
1190.963	0.937	1192974	WORD_OFF	n/a	n/a	GRAPE	Fruit	3	8	[0, 0, 0]	n/a	catFR1	2	R1320D
1191.9	1.629	1193911	WORD	n/a	wordpools/wordpool_categorized_EN.txt	ORANGE	Fruit	4	8	[0, 0, 0]	n/a	catFR1	2	R1320D
1193.529	1.008	1195540	WORD_OFF	n/a	n/a	ORANGE	Fruit	4	8	[0, 0, 0]	n/a	catFR1	2	R1320D
1194.537	1.627	1196548	WORD	n/a	wordpools/wordpool_categorized_EN.txt	WRENCH	Tools	5	8	[0, 0, 0]	n/a	catFR1	2	R1320D
1196.164	0.854	1198175	WORD_OFF	n/a	n/a	WRENCH	Tools	5	8	[0, 0, 0]	n/a	catFR1	2	R1320D
1197.018	1.63	1199029	WORD	n/a	wordpools/wordpool_categorized_EN.txt	RATCHET	Tools	6	8	[0, 0, 0]	n/a	catFR1	2	R1320D
1198.648	0.955	1200659	WORD_OFF	n/a	n/a	RATCHET	Tools	6	8	[0, 0, 0]	n/a	catFR1	2	R1320D
1199.603	1.612	1201614	WORD	n/a	wordpools/wordpool_categorized_EN.txt	LEMON	Fruit	7	8	[0, 0, 0]	n/a	catFR1	2	R1320D
1201.215	1.108	1203226	WORD_OFF	n/a	n/a	LEMON	Fruit	7	8	[0, 0, 0]	n/a	catFR1	2	R1320D
1202.323	1.626	1204334	WORD	n/a	wordpools/wordpool_categorized_EN.txt	PLUM	Fruit	8	8	[0, 0, 0]	n/a	catFR1	2	R1320D
1203.949	1.045	1205959	WORD_OFF	n/a	n/a	PLUM	Fruit	8	8	[0, 0, 0]	n/a	catFR1	2	R1320D
1204.994	1.639	1207004	WORD	n/a	wordpools/wordpool_categorized_EN.txt	SCREWDRIVER	Tools	9	8	[0, 0, 0]	n/a	catFR1	2	R1320D
1206.633	1.001	1208643	WORD_OFF	n/a	n/a	SCREWDRIVER	Tools	9	8	[0, 0, 0]	n/a	catFR1	2	R1320D
1207.634	1.632	1209644	WORD	n/a	wordpools/wordpool_categorized_EN.txt	SANDER	Tools	10	8	[0, 0, 0]	n/a	catFR1	2	R1320D
1209.266	0.875	1211276	WORD_OFF	n/a	n/a	SANDER	Tools	10	8	[0, 0, 0]	n/a	catFR1	2	R1320D
1210.141	1.626	1212151	WORD	n/a	wordpools/wordpool_categorized_EN.txt	COFFEE	Beverages	11	8	[0, 0, 0]	n/a	catFR1	2	R1320D
1211.767	1.081	1213777	WORD_OFF	n/a	n/a	COFFEE	Beverages	11	8	[0, 0, 0]	n/a	catFR1	2	R1320D
1212.848	1.635	1214858	WORD	n/a	wordpools/wordpool_categorized_EN.txt	WATER	Beverages	12	8	[0, 0, 0]	n/a	catFR1	2	R1320D
1214.483	0.0	1216493	WORD_OFF	n/a	n/a	WATER	Beverages	12	8	[0, 0, 0]	n/a	catFR1	2	R1320D
1214.483	0.001	1216493	ENCODING_END	n/a	n/a	n/a	n/a	-999	8	[0, 0, 0]	n/a	catFR1	2	R1320D
1214.484	0.0	1216494	DISTRACT_START	n/a	n/a	n/a	n/a	-999	8	[0, 0, 0]	n/a	catFR1	2	R1320D
1214.484	0.015	1216494	START	n/a	n/a	n/a	n/a	-999	8	[-999, -999, -999]	n/a	catFR1	2	R1320D
1214.499	6.985	1216509	PROB	6.985	n/a	n/a	n/a	-999	8	[7, 8, 3]	18	catFR1	2	R1320D
1221.484	9.386	1223494	PROB	9.386	n/a	n/a	n/a	-999	8	[9, 3, 9]	21	catFR1	2	R1320D
1230.87	10.201	1232879	PROB	10.201	n/a	n/a	n/a	-999	8	[5, 6, 2]	13	catFR1	2	R1320D
1241.071	0.018	1243080	STOP	n/a	n/a	n/a	n/a	-999	8	[-999, -999, -999]	n/a	catFR1	2	R1320D
1241.089	0.622	1243098	DISTRACT_END	n/a	n/a	n/a	n/a	-999	8	[0, 0, 0]	n/a	catFR1	2	R1320D
1241.711	1.678	1243719	RETRIEVAL_ORIENT_START	n/a	n/a	n/a	n/a	-999	8	[0, 0, 0]	n/a	catFR1	2	R1320D
1243.389	0.001	1245397	RETRIEVAL_ORIENT_END	n/a	n/a	n/a	n/a	-999	8	[0, 0, 0]	n/a	catFR1	2	R1320D
1243.39	27.933	1245398	REC_START	n/a	n/a	n/a	n/a	-999	8	[0, 0, 0]	n/a	catFR1	2	R1320D
1271.323	2.081	1273330	REC_WORD_VV	2.081	n/a	<>	n/a	-999	8	[0, 0, 0]	n/a	catFR1	2	R1320D
1273.404	0.0	1275411	REC_END	n/a	n/a	n/a	n/a	-999	8	[0, 0, 0]	n/a	catFR1	2	R1320D
1273.404	0.022	1275411	TRIAL_END	n/a	n/a	n/a	n/a	-999	8	[0, 0, 0]	n/a	catFR1	2	R1320D
1273.426	0.001	1275433	TRIAL_START	n/a	n/a	n/a	n/a	-999	9	[0, 0, 0]	n/a	catFR1	2	R1320D
1273.427	0.0	1275434	TRIAL	n/a	n/a	n/a	n/a	-999	9	[0, 0, 0]	n/a	catFR1	2	R1320D
1273.427	61.346	1275434	WAITING_START	n/a	n/a	n/a	n/a	-999	9	[0, 0, 0]	n/a	catFR1	2	R1320D
1334.773	0.0	1336777	WAITING_END	n/a	n/a	n/a	n/a	-999	9	[0, 0, 0]	n/a	catFR1	2	R1320D
1334.773	10.428	1336777	COUNTDOWN_START	n/a	n/a	n/a	n/a	-999	9	[0, 0, 0]	n/a	catFR1	2	R1320D
1345.201	0.001	1347204	COUNTDOWN_END	n/a	n/a	n/a	n/a	-999	9	[0, 0, 0]	n/a	catFR1	2	R1320D
1345.202	1.156	1347205	ORIENT_START	n/a	n/a	n/a	n/a	-999	9	[0, 0, 0]	n/a	catFR1	2	R1320D
1346.358	0.0	1348361	ORIENT_END	n/a	n/a	n/a	n/a	-999	9	[0, 0, 0]	n/a	catFR1	2	R1320D
1346.358	1.135	1348361	ENCODING_START	n/a	n/a	n/a	n/a	-999	9	[0, 0, 0]	n/a	catFR1	2	R1320D
1347.493	1.632	1349496	WORD	n/a	wordpools/wordpool_categorized_EN.txt	BEER	Beverages	1	9	[0, 0, 0]	n/a	catFR1	2	R1320D
1349.125	0.957	1351128	WORD_OFF	n/a	n/a	BEER	Beverages	1	9	[0, 0, 0]	n/a	catFR1	2	R1320D
1350.082	1.627	1352085	WORD	n/a	wordpools/wordpool_categorized_EN.txt	RUM	Beverages	2	9	[0, 0, 0]	n/a	catFR1	2	R1320D
1351.709	1.114	1353712	WORD_OFF	n/a	n/a	RUM	Beverages	2	9	[0, 0, 0]	n/a	catFR1	2	R1320D
1352.823	1.636	1354826	WORD	n/a	wordpools/wordpool_categorized_EN.txt	LILAC	Flowers	3	9	[0, 0, 0]	n/a	catFR1	2	R1320D
1354.459	0.912	1356462	WORD_OFF	n/a	n/a	LILAC	Flowers	3	9	[0, 0, 0]	n/a	catFR1	2	R1320D
1355.371	1.622	1357373	WORD	n/a	wordpools/wordpool_categorized_EN.txt	DAISY	Flowers	4	9	[0, 0, 0]	n/a	catFR1	2	R1320D
1356.993	0.833	1358995	WORD_OFF	n/a	n/a	DAISY	Flowers	4	9	[0, 0, 0]	n/a	catFR1	2	R1320D
1357.826	1.633	1359828	WORD	n/a	wordpools/wordpool_categorized_EN.txt	APPLE	Fruit	5	9	[0, 0, 0]	n/a	catFR1	2	R1320D
1359.459	0.765	1361461	WORD_OFF	n/a	n/a	APPLE	Fruit	5	9	[0, 0, 0]	n/a	catFR1	2	R1320D
1360.224	1.637	1362226	WORD	n/a	wordpools/wordpool_categorized_EN.txt	BLUEBERRY	Fruit	6	9	[0, 0, 0]	n/a	catFR1	2	R1320D
1361.861	1.082	1363863	WORD_OFF	n/a	n/a	BLUEBERRY	Fruit	6	9	[0, 0, 0]	n/a	catFR1	2	R1320D
1362.943	1.634	1364945	WORD	n/a	wordpools/wordpool_categorized_EN.txt	WINE	Beverages	7	9	[0, 0, 0]	n/a	catFR1	2	R1320D
1364.577	0.84	1366579	WORD_OFF	n/a	n/a	WINE	Beverages	7	9	[0, 0, 0]	n/a	catFR1	2	R1320D
1365.417	1.628	1367419	WORD	n/a	wordpools/wordpool_categorized_EN.txt	LEMONADE	Beverages	8	9	[0, 0, 0]	n/a	catFR1	2	R1320D
1367.045	1.114	1369047	WORD_OFF	n/a	n/a	LEMONADE	Beverages	8	9	[0, 0, 0]	n/a	catFR1	2	R1320D
1368.159	1.637	1370161	WORD	n/a	wordpools/wordpool_categorized_EN.txt	ROSE	Flowers	9	9	[0, 0, 0]	n/a	catFR1	2	R1320D
1369.796	1.027	1371798	WORD_OFF	n/a	n/a	ROSE	Flowers	9	9	[0, 0, 0]	n/a	catFR1	2	R1320D
1370.823	1.623	1372825	WORD	n/a	wordpools/wordpool_categorized_EN.txt	ORCHID	Flowers	10	9	[0, 0, 0]	n/a	catFR1	2	R1320D
1372.446	1.027	1374448	WORD_OFF	n/a	n/a	ORCHID	Flowers	10	9	[0, 0, 0]	n/a	catFR1	2	R1320D
1373.473	1.623	1375475	WORD	n/a	wordpools/wordpool_categorized_EN.txt	STRAWBERRY	Fruit	11	9	[0, 0, 0]	n/a	catFR1	2	R1320D
1375.096	0.771	1377097	WORD_OFF	n/a	n/a	STRAWBERRY	Fruit	11	9	[0, 0, 0]	n/a	catFR1	2	R1320D
1375.867	1.629	1377868	WORD	n/a	wordpools/wordpool_categorized_EN.txt	PEAR	Fruit	12	9	[0, 0, 0]	n/a	catFR1	2	R1320D
1377.496	0.001	1379497	WORD_OFF	n/a	n/a	PEAR	Fruit	12	9	[0, 0, 0]	n/a	catFR1	2	R1320D
1377.497	0.0	1379498	ENCODING_END	n/a	n/a	n/a	n/a	-999	9	[0, 0, 0]	n/a	catFR1	2	R1320D
1377.497	0.0	1379498	DISTRACT_START	n/a	n/a	n/a	n/a	-999	9	[0, 0, 0]	n/a	catFR1	2	R1320D
1377.497	0.015	1379498	START	n/a	n/a	n/a	n/a	-999	9	[-999, -999, -999]	n/a	catFR1	2	R1320D
1377.512	6.603	1379513	PROB	6.603	n/a	n/a	n/a	-999	9	[9, 7, 1]	17	catFR1	2	R1320D
1384.115	6.483	1386116	PROB	6.483	n/a	n/a	n/a	-999	9	[4, 9, 1]	14	catFR1	2	R1320D
1390.598	6.436	1392599	PROB	6.436	n/a	n/a	n/a	-999	9	[6, 1, 6]	13	catFR1	2	R1320D
1397.034	3.813	1399034	PROB	3.813	n/a	n/a	n/a	-999	9	[4, 5, 1]	10	catFR1	2	R1320D
1400.847	0.021	1402847	STOP	n/a	n/a	n/a	n/a	-999	9	[-999, -999, -999]	n/a	catFR1	2	R1320D
1400.868	0.518	1402868	DISTRACT_END	n/a	n/a	n/a	n/a	-999	9	[0, 0, 0]	n/a	catFR1	2	R1320D
1401.386	1.649	1403386	RETRIEVAL_ORIENT_START	n/a	n/a	n/a	n/a	-999	9	[0, 0, 0]	n/a	catFR1	2	R1320D
1403.035	0.0	1405035	RETRIEVAL_ORIENT_END	n/a	n/a	n/a	n/a	-999	9	[0, 0, 0]	n/a	catFR1	2	R1320D
1403.035	3.813	1405035	REC_START	n/a	n/a	n/a	n/a	-999	9	[0, 0, 0]	n/a	catFR1	2	R1320D
1406.848	1.973	1408848	REC_WORD	1.973	n/a	RASPBERRY	n/a	-999	9	[0, 0, 0]	n/a	catFR1	2	R1320D
1408.821	24.226	1410821	REC_WORD	24.226	n/a	BLUEBERRY	Fruit	6	9	[0, 0, 0]	n/a	catFR1	2	R1320D
1433.047	0.0	1435045	REC_END	n/a	n/a	n/a	n/a	-999	9	[0, 0, 0]	n/a	catFR1	2	R1320D
1433.047	0.022	1435045	TRIAL_END	n/a	n/a	n/a	n/a	-999	9	[0, 0, 0]	n/a	catFR1	2	R1320D
1433.069	0.0	1435067	TRIAL_START	n/a	n/a	n/a	n/a	-999	10	[0, 0, 0]	n/a	catFR1	2	R1320D
1433.069	0.0	1435067	TRIAL	n/a	n/a	n/a	n/a	-999	10	[0, 0, 0]	n/a	catFR1	2	R1320D
1433.069	4.972	1435067	WAITING_START	n/a	n/a	n/a	n/a	-999	10	[0, 0, 0]	n/a	catFR1	2	R1320D
1438.041	0.001	1440039	WAITING_END	n/a	n/a	n/a	n/a	-999	10	[0, 0, 0]	n/a	catFR1	2	R1320D
1438.042	10.428	1440040	COUNTDOWN_START	n/a	n/a	n/a	n/a	-999	10	[0, 0, 0]	n/a	catFR1	2	R1320D
1448.47	0.0	1450468	ORIENT_START	n/a	n/a	n/a	n/a	-999	10	[0, 0, 0]	n/a	catFR1	2	R1320D
1448.47	1.089	1450468	COUNTDOWN_END	n/a	n/a	n/a	n/a	-999	10	[0, 0, 0]	n/a	catFR1	2	R1320D
1449.559	0.001	1451556	ORIENT_END	n/a	n/a	n/a	n/a	-999	10	[0, 0, 0]	n/a	catFR1	2	R1320D
1449.56	0.755	1451557	ENCODING_START	n/a	n/a	n/a	n/a	-999	10	[0, 0, 0]	n/a	catFR1	2	R1320D
1450.315	1.629	1452312	WORD	n/a	wordpools/wordpool_categorized_EN.txt	VIOLIN	Instruments	1	10	[0, 0, 0]	n/a	catFR1	2	R1320D
1451.944	1.023	1453941	WORD_OFF	n/a	n/a	VIOLIN	Instruments	1	10	[0, 0, 0]	n/a	catFR1	2	R1320D
1452.967	1.626	1454964	WORD	n/a	wordpools/wordpool_categorized_EN.txt	TROMBONE	Instruments	2	10	[0, 0, 0]	n/a	catFR1	2	R1320D
1454.593	0.937	1456590	WORD_OFF	n/a	n/a	TROMBONE	Instruments	2	10	[0, 0, 0]	n/a	catFR1	2	R1320D
1455.53	1.615	1457527	WORD	n/a	wordpools/wordpool_categorized_EN.txt	ERASER	OfficeSupplies	3	10	[0, 0, 0]	n/a	catFR1	2	R1320D
1457.145	0.87	1459142	WORD_OFF	n/a	n/a	ERASER	OfficeSupplies	3	10	[0, 0, 0]	n/a	catFR1	2	R1320D
1458.015	1.63	1460012	WORD	n/a	wordpools/wordpool_categorized_EN.txt	FOLDER	OfficeSupplies	4	10	[0, 0, 0]	n/a	catFR1	2	R1320D
1459.645	1.087	1461642	WORD_OFF	n/a	n/a	FOLDER	OfficeSupplies	4	10	[0, 0, 0]	n/a	catFR1	2	R1320D
1460.732	1.631	1462729	WORD	n/a	wordpools/wordpool_categorized_EN.txt	CORN	Vegetables	5	10	[0, 0, 0]	n/a	catFR1	2	R1320D
1462.363	1.044	1464360	WORD_OFF	n/a	n/a	CORN	Vegetables	5	10	[0, 0, 0]	n/a	catFR1	2	R1320D
1463.407	1.623	1465404	WORD	n/a	wordpools/wordpool_categorized_EN.txt	PEAS	Vegetables	6	10	[0, 0, 0]	n/a	catFR1	2	R1320D
1465.03	1.039	1467027	WORD_OFF	n/a	n/a	PEAS	Vegetables	6	10	[0, 0, 0]	n/a	catFR1	2	R1320D
1466.069	1.628	1468066	WORD	n/a	wordpools/wordpool_categorized_EN.txt	DRUM	Instruments	7	10	[0, 0, 0]	n/a	catFR1	2	R1320D
1467.697	1.138	1469694	WORD_OFF	n/a	n/a	DRUM	Instruments	7	10	[0, 0, 0]	n/a	catFR1	2	R1320D
1468.835	1.628	1470831	WORD	n/a	wordpools/wordpool_categorized_EN.txt	TRUMPET	Instruments	8	10	[0, 0, 0]	n/a	catFR1	2	R1320D
1470.463	1.09	1472459	WORD_OFF	n/a	n/a	TRUMPET	Instruments	8	10	[0, 0, 0]	n/a	catFR1	2	R1320D
1471.553	1.612	1473549	WORD	n/a	wordpools/wordpool_categorized_EN.txt	PAPER	OfficeSupplies	9	10	[0, 0, 0]	n/a	catFR1	2	R1320D
1473.165	0.932	1475161	WORD_OFF	n/a	n/a	PAPER	OfficeSupplies	9	10	[0, 0, 0]	n/a	catFR1	2	R1320D
1474.097	1.635	1476093	WORD	n/a	wordpools/wordpool_categorized_EN.txt	TAPE	OfficeSupplies	10	10	[0, 0, 0]	n/a	catFR1	2	R1320D
1475.732	0.87	1477728	WORD_OFF	n/a	n/a	TAPE	OfficeSupplies	10	10	[0, 0, 0]	n/a	catFR1	2	R1320D
1476.602	1.614	1478598	WORD	n/a	wordpools/wordpool_categorized_EN.txt	CUCUMBER	Vegetables	11	10	[0, 0, 0]	n/a	catFR1	2	R1320D
1478.216	0.872	1480212	WORD_OFF	n/a	n/a	CUCUMBER	Vegetables	11	10	[0, 0, 0]	n/a	catFR1	2	R1320D
1479.088	1.628	1481084	WORD	n/a	wordpools/wordpool_categorized_EN.txt	CAULIFLOWER	Vegetables	12	10	[0, 0, 0]	n/a	catFR1	2	R1320D
1480.716	0.0	1482712	ENCODING_END	n/a	n/a	n/a	n/a	-999	10	[0, 0, 0]	n/a	catFR1	2	R1320D
1480.716	0.001	1482712	WORD_OFF	n/a	n/a	CAULIFLOWER	Vegetables	12	10	[0, 0, 0]	n/a	catFR1	2	R1320D
1480.717	0.0	1482713	DISTRACT_START	n/a	n/a	n/a	n/a	-999	10	[0, 0, 0]	n/a	catFR1	2	R1320D
1480.717	0.015	1482713	START	n/a	n/a	n/a	n/a	-999	10	[-999, -999, -999]	n/a	catFR1	2	R1320D
1480.732	11.019	1482728	PROB	11.019	n/a	n/a	n/a	-999	10	[5, 2, 8]	15	catFR1	2	R1320D
1491.751	8.918	1493746	PROB	8.918	n/a	n/a	n/a	-999	10	[5, 7, 1]	13	catFR1	2	R1320D
1500.669	6.601	1502664	PROB	6.601	n/a	n/a	n/a	-999	10	[5, 2, 3]	10	catFR1	2	R1320D
1507.27	0.017	1509264	STOP	n/a	n/a	n/a	n/a	-999	10	[-999, -999, -999]	n/a	catFR1	2	R1320D
1507.287	0.562	1509281	DISTRACT_END	n/a	n/a	n/a	n/a	-999	10	[0, 0, 0]	n/a	catFR1	2	R1320D
1507.849	1.688	1509843	RETRIEVAL_ORIENT_START	n/a	n/a	n/a	n/a	-999	10	[0, 0, 0]	n/a	catFR1	2	R1320D
1509.537	0.0	1511531	RETRIEVAL_ORIENT_END	n/a	n/a	n/a	n/a	-999	10	[0, 0, 0]	n/a	catFR1	2	R1320D
1509.537	19.99	1511531	REC_START	n/a	n/a	n/a	n/a	-999	10	[0, 0, 0]	n/a	catFR1	2	R1320D
1529.527	2.267	1531520	REC_WORD	2.267	n/a	CORN	Vegetables	5	10	[0, 0, 0]	n/a	catFR1	2	R1320D
1531.794	7.755	1533787	REC_WORD	7.755	n/a	TEA	Beverages	-999	10	[0, 0, 0]	n/a	catFR1	2	R1320D
1539.549	0.0	1541542	TRIAL_END	n/a	n/a	n/a	n/a	-999	10	[0, 0, 0]	n/a	catFR1	2	R1320D
1539.549	0.022	1541542	REC_END	n/a	n/a	n/a	n/a	-999	10	[0, 0, 0]	n/a	catFR1	2	R1320D
1539.571	0.0	1541564	TRIAL_START	n/a	n/a	n/a	n/a	-999	11	[0, 0, 0]	n/a	catFR1	2	R1320D
1539.571	0.0	1541564	TRIAL	n/a	n/a	n/a	n/a	-999	11	[0, 0, 0]	n/a	catFR1	2	R1320D
1539.571	5.34	1541564	WAITING_START	n/a	n/a	n/a	n/a	-999	11	[0, 0, 0]	n/a	catFR1	2	R1320D
1544.911	0.0	1546903	WAITING_END	n/a	n/a	n/a	n/a	-999	11	[0, 0, 0]	n/a	catFR1	2	R1320D
1544.911	10.429	1546903	COUNTDOWN_START	n/a	n/a	n/a	n/a	-999	11	[0, 0, 0]	n/a	catFR1	2	R1320D
1555.34	0.001	1557332	COUNTDOWN_END	n/a	n/a	n/a	n/a	-999	11	[0, 0, 0]	n/a	catFR1	2	R1320D
1555.341	1.221	1557333	ORIENT_START	n/a	n/a	n/a	n/a	-999	11	[0, 0, 0]	n/a	catFR1	2	R1320D
1556.562	0.0	1558554	ORIENT_END	n/a	n/a	n/a	n/a	-999	11	[0, 0, 0]	n/a	catFR1	2	R1320D
1556.562	0.984	1558554	ENCODING_START	n/a	n/a	n/a	n/a	-999	11	[0, 0, 0]	n/a	catFR1	2	R1320D
1557.546	1.617	1559538	WORD	n/a	wordpools/wordpool_categorized_EN.txt	MIXER	Appliances	1	11	[0, 0, 0]	n/a	catFR1	2	R1320D
1559.163	1.033	1561155	WORD_OFF	n/a	n/a	MIXER	Appliances	1	11	[0, 0, 0]	n/a	catFR1	2	R1320D
1560.196	1.635	1562188	WORD	n/a	wordpools/wordpool_categorized_EN.txt	DRYER	Appliances	2	11	[0, 0, 0]	n/a	catFR1	2	R1320D
1561.831	1.134	1563823	WORD_OFF	n/a	n/a	DRYER	Appliances	2	11	[0, 0, 0]	n/a	catFR1	2	R1320D
1562.965	1.632	1564956	WORD	n/a	wordpools/wordpool_categorized_EN.txt	CROW	Birds	3	11	[0, 0, 0]	n/a	catFR1	2	R1320D
1564.597	0.959	1566588	WORD_OFF	n/a	n/a	CROW	Birds	3	11	[0, 0, 0]	n/a	catFR1	2	R1320D
1565.556	1.626	1567547	WORD	n/a	wordpools/wordpool_categorized_EN.txt	FINCH	Birds	4	11	[0, 0, 0]	n/a	catFR1	2	R1320D
1567.182	0.88	1569173	WORD_OFF	n/a	n/a	FINCH	Birds	4	11	[0, 0, 0]	n/a	catFR1	2	R1320D
1568.062	1.637	1570053	WORD	n/a	wordpools/wordpool_categorized_EN.txt	PEACH	Fruit	5	11	[0, 0, 0]	n/a	catFR1	2	R1320D
1569.699	0.95	1571690	WORD_OFF	n/a	n/a	PEACH	Fruit	5	11	[0, 0, 0]	n/a	catFR1	2	R1320D
1570.649	1.634	1572640	WORD	n/a	wordpools/wordpool_categorized_EN.txt	CHERRY	Fruit	6	11	[0, 0, 0]	n/a	catFR1	2	R1320D
1572.283	0.945	1574274	WORD_OFF	n/a	n/a	CHERRY	Fruit	6	11	[0, 0, 0]	n/a	catFR1	2	R1320D
1573.228	1.622	1575219	WORD	n/a	wordpools/wordpool_categorized_EN.txt	SPARROW	Birds	7	11	[0, 0, 0]	n/a	catFR1	2	R1320D
1574.85	0.809	1576841	WORD_OFF	n/a	n/a	SPARROW	Birds	7	11	[0, 0, 0]	n/a	catFR1	2	R1320D
1575.659	1.625	1577650	WORD	n/a	wordpools/wordpool_categorized_EN.txt	GOOSE	Birds	8	11	[0, 0, 0]	n/a	catFR1	2	R1320D
1577.284	0.772	1579275	WORD_OFF	n/a	n/a	GOOSE	Birds	8	11	[0, 0, 0]	n/a	catFR1	2	R1320D
1578.056	1.628	1580047	WORD	n/a	wordpools/wordpool_categorized_EN.txt	TOASTER	Appliances	9	11	[0, 0, 0]	n/a	catFR1	2	R1320D
1579.684	1.113	1581675	WORD_OFF	n/a	n/a	TOASTER	Appliances	9	11	[0, 0, 0]	n/a	catFR1	2	R1320D
1580.797	1.637	1582788	WORD	n/a	wordpools/wordpool_categorized_EN.txt	DISHWASHER	Appliances	10	11	[0, 0, 0]	n/a	catFR1	2	R1320D
1582.434	0.87	1584424	WORD_OFF	n/a	n/a	DISHWASHER	Appliances	10	11	[0, 0, 0]	n/a	catFR1	2	R1320D
1583.304	1.631	1585294	WORD	n/a	wordpools/wordpool_categorized_EN.txt	LIME	Fruit	11	11	[0, 0, 0]	n/a	catFR1	2	R1320D
1584.935	0.866	1586925	WORD_OFF	n/a	n/a	LIME	Fruit	11	11	[0, 0, 0]	n/a	catFR1	2	R1320D
1585.801	1.634	1587791	WORD	n/a	wordpools/wordpool_categorized_EN.txt	BANANA	Fruit	12	11	[0, 0, 0]	n/a	catFR1	2	R1320D
1587.435	0.001	1589425	WORD_OFF	n/a	n/a	BANANA	Fruit	12	11	[0, 0, 0]	n/a	catFR1	2	R1320D
1587.436	0.0	1589426	DISTRACT_START	n/a	n/a	n/a	n/a	-999	11	[0, 0, 0]	n/a	catFR1	2	R1320D
1587.436	0.0	1589426	ENCODING_END	n/a	n/a	n/a	n/a	-999	11	[0, 0, 0]	n/a	catFR1	2	R1320D
1587.436	0.015	1589426	START	n/a	n/a	n/a	n/a	-999	11	[-999, -999, -999]	n/a	catFR1	2	R1320D
1587.451	5.185	1589441	PROB	5.185	n/a	n/a	n/a	-999	11	[7, 6, 3]	16	catFR1	2	R1320D
1592.636	9.485	1594626	PROB	9.485	n/a	n/a	n/a	-999	11	[5, 6, 4]	15	catFR1	2	R1320D
1602.121	5.485	1604110	PROB	5.485	n/a	n/a	n/a	-999	11	[9, 2, 9]	20	catFR1	2	R1320D
1607.606	0.016	1609595	STOP	n/a	n/a	n/a	n/a	-999	11	[-999, -999, -999]	n/a	catFR1	2	R1320D
1607.622	0.63	1609611	DISTRACT_END	n/a	n/a	n/a	n/a	-999	11	[0, 0, 0]	n/a	catFR1	2	R1320D
1608.252	1.571	1610241	RETRIEVAL_ORIENT_START	n/a	n/a	n/a	n/a	-999	11	[0, 0, 0]	n/a	catFR1	2	R1320D
1609.823	0.0	1611812	RETRIEVAL_ORIENT_END	n/a	n/a	n/a	n/a	-999	11	[0, 0, 0]	n/a	catFR1	2	R1320D
1609.823	3.8	1611812	REC_START	n/a	n/a	n/a	n/a	-999	11	[0, 0, 0]	n/a	catFR1	2	R1320D
1613.623	26.213	1615612	REC_WORD	26.213	n/a	TOASTER	Appliances	9	11	[0, 0, 0]	n/a	catFR1	2	R1320D
1639.836	0.001	1641823	REC_END	n/a	n/a	n/a	n/a	-999	11	[0, 0, 0]	n/a	catFR1	2	R1320D
1639.837	0.021	1641824	TRIAL_END	n/a	n/a	n/a	n/a	-999	11	[0, 0, 0]	n/a	catFR1	2	R1320D
1639.858	0.001	1641845	TRIAL_START	n/a	n/a	n/a	n/a	-999	12	[0, 0, 0]	n/a	catFR1	2	R1320D
1639.859	0.0	1641846	TRIAL	n/a	n/a	n/a	n/a	-999	12	[0, 0, 0]	n/a	catFR1	2	R1320D
1639.859	3.17	1641846	WAITING_START	n/a	n/a	n/a	n/a	-999	12	[0, 0, 0]	n/a	catFR1	2	R1320D
1643.029	0.0	1645016	WAITING_END	n/a	n/a	n/a	n/a	-999	12	[0, 0, 0]	n/a	catFR1	2	R1320D
1643.029	10.429	1645016	COUNTDOWN_START	n/a	n/a	n/a	n/a	-999	12	[0, 0, 0]	n/a	catFR1	2	R1320D
1653.458	0.001	1655445	COUNTDOWN_END	n/a	n/a	n/a	n/a	-999	12	[0, 0, 0]	n/a	catFR1	2	R1320D
1653.459	1.154	1655446	ORIENT_START	n/a	n/a	n/a	n/a	-999	12	[0, 0, 0]	n/a	catFR1	2	R1320D
1654.613	0.001	1656600	ORIENT_END	n/a	n/a	n/a	n/a	-999	12	[0, 0, 0]	n/a	catFR1	2	R1320D
1654.614	0.773	1656601	ENCODING_START	n/a	n/a	n/a	n/a	-999	12	[0, 0, 0]	n/a	catFR1	2	R1320D
1655.387	1.628	1657374	WORD	n/a	wordpools/wordpool_categorized_EN.txt	DOVE	Birds	1	12	[0, 0, 0]	n/a	catFR1	2	R1320D
1657.015	1.102	1659002	WORD_OFF	n/a	n/a	DOVE	Birds	1	12	[0, 0, 0]	n/a	catFR1	2	R1320D
1658.117	1.632	1660103	WORD	n/a	wordpools/wordpool_categorized_EN.txt	HAWK	Birds	2	12	[0, 0, 0]	n/a	catFR1	2	R1320D
1659.749	0.991	1661735	WORD_OFF	n/a	n/a	HAWK	Birds	2	12	[0, 0, 0]	n/a	catFR1	2	R1320D
1660.74	1.626	1662726	WORD	n/a	wordpools/wordpool_categorized_EN.txt	SKIRT	Clothing	3	12	[0, 0, 0]	n/a	catFR1	2	R1320D
1662.366	0.869	1664352	WORD_OFF	n/a	n/a	SKIRT	Clothing	3	12	[0, 0, 0]	n/a	catFR1	2	R1320D
1663.235	1.631	1665221	WORD	n/a	wordpools/wordpool_categorized_EN.txt	JACKET	Clothing	4	12	[0, 0, 0]	n/a	catFR1	2	R1320D
1664.866	0.796	1666852	WORD_OFF	n/a	n/a	JACKET	Clothing	4	12	[0, 0, 0]	n/a	catFR1	2	R1320D
1665.662	1.638	1667648	WORD	n/a	wordpools/wordpool_categorized_EN.txt	RADIO	Electronics	5	12	[0, 0, 0]	n/a	catFR1	2	R1320D
1667.3	0.946	1669286	WORD_OFF	n/a	n/a	RADIO	Electronics	5	12	[0, 0, 0]	n/a	catFR1	2	R1320D
1668.246	1.638	1670232	WORD	n/a	wordpools/wordpool_categorized_EN.txt	SPEAKER	Electronics	6	12	[0, 0, 0]	n/a	catFR1	2	R1320D
1669.884	0.879	1671870	WORD_OFF	n/a	n/a	SPEAKER	Electronics	6	12	[0, 0, 0]	n/a	catFR1	2	R1320D
1670.763	1.638	1672749	WORD	n/a	wordpools/wordpool_categorized_EN.txt	BLUEBIRD	Birds	7	12	[0, 0, 0]	n/a	catFR1	2	R1320D
1672.401	0.948	1674387	WORD_OFF	n/a	n/a	BLUEBIRD	Birds	7	12	[0, 0, 0]	n/a	catFR1	2	R1320D
1673.349	1.636	1675335	WORD	n/a	wordpools/wordpool_categorized_EN.txt	PIGEON	Birds	8	12	[0, 0, 0]	n/a	catFR1	2	R1320D
1674.985	0.988	1676971	WORD_OFF	n/a	n/a	PIGEON	Birds	8	12	[0, 0, 0]	n/a	catFR1	2	R1320D
1675.973	1.628	1677959	WORD	n/a	wordpools/wordpool_categorized_EN.txt	SCANNER	Electronics	9	12	[0, 0, 0]	n/a	catFR1	2	R1320D
1677.601	1.005	1679586	WORD_OFF	n/a	n/a	SCANNER	Electronics	9	12	[0, 0, 0]	n/a	catFR1	2	R1320D
1678.606	1.613	1680591	WORD	n/a	wordpools/wordpool_categorized_EN.txt	PHONE	Electronics	10	12	[0, 0, 0]	n/a	catFR1	2	R1320D
1680.219	0.967	1682204	WORD_OFF	n/a	n/a	PHONE	Electronics	10	12	[0, 0, 0]	n/a	catFR1	2	R1320D
1681.186	1.633	1683171	WORD	n/a	wordpools/wordpool_categorized_EN.txt	SHIRT	Clothing	11	12	[0, 0, 0]	n/a	catFR1	2	R1320D
1682.819	1.149	1684804	WORD_OFF	n/a	n/a	SHIRT	Clothing	11	12	[0, 0, 0]	n/a	catFR1	2	R1320D
1683.968	1.634	1685953	WORD	n/a	wordpools/wordpool_categorized_EN.txt	DRESS	Clothing	12	12	[0, 0, 0]	n/a	catFR1	2	R1320D
1685.602	0.001	1687587	WORD_OFF	n/a	n/a	DRESS	Clothing	12	12	[0, 0, 0]	n/a	catFR1	2	R1320D
1685.603	0.0	1687588	ENCODING_END	n/a	n/a	n/a	n/a	-999	12	[0, 0, 0]	n/a	catFR1	2	R1320D
1685.603	0.0	1687588	DISTRACT_START	n/a	n/a	n/a	n/a	-999	12	[0, 0, 0]	n/a	catFR1	2	R1320D
1685.603	0.016	1687588	START	n/a	n/a	n/a	n/a	-999	12	[-999, -999, -999]	n/a	catFR1	2	R1320D
1685.619	6.635	1687604	PROB	6.635	n/a	n/a	n/a	-999	12	[7, 8, 3]	18	catFR1	2	R1320D
1692.254	11.152	1694239	PROB	11.152	n/a	n/a	n/a	-999	12	[8, 7, 4]	13	catFR1	2	R1320D
1703.406	6.321	1705390	PROB	6.321	n/a	n/a	n/a	-999	12	[9, 3, 1]	13	catFR1	2	R1320D
1709.727	0.014	1711711	STOP	n/a	n/a	n/a	n/a	-999	12	[-999, -999, -999]	n/a	catFR1	2	R1320D
1709.741	0.697	1711725	DISTRACT_END	n/a	n/a	n/a	n/a	-999	12	[0, 0, 0]	n/a	catFR1	2	R1320D
1710.438	1.637	1712422	RETRIEVAL_ORIENT_START	n/a	n/a	n/a	n/a	-999	12	[0, 0, 0]	n/a	catFR1	2	R1320D
1712.075	0.0	1714059	REC_START	n/a	n/a	n/a	n/a	-999	12	[0, 0, 0]	n/a	catFR1	2	R1320D
1712.075	3.708	1714059	RETRIEVAL_ORIENT_END	n/a	n/a	n/a	n/a	-999	12	[0, 0, 0]	n/a	catFR1	2	R1320D
1715.783	1.0	1717766	REC_WORD	1.0	n/a	SCANNER	Electronics	9	12	[0, 0, 0]	n/a	catFR1	2	R1320D
1716.783	25.306	1718766	REC_WORD_VV	25.306	n/a	<>	n/a	-999	12	[0, 0, 0]	n/a	catFR1	2	R1320D
1742.089	0.0	1744071	REC_END	n/a	n/a	n/a	n/a	-999	12	[0, 0, 0]	n/a	catFR1	2	R1320D
1742.089	0.022	1744071	TRIAL_END	n/a	n/a	n/a	n/a	-999	12	[0, 0, 0]	n/a	catFR1	2	R1320D
1742.111	0.0	1744093	TRIAL_START	n/a	n/a	n/a	n/a	-999	13	[0, 0, 0]	n/a	catFR1	2	R1320D
1742.111	0.0	1744093	TRIAL	n/a	n/a	n/a	n/a	-999	13	[0, 0, 0]	n/a	catFR1	2	R1320D
1742.111	0.0	1744093	WAITING_START	n/a	n/a	n/a	n/a	-999	13	[0, 0, 0]	n/a	catFR1	2	R1320D
