onset	duration	sample	trial_type	response_time	stim_file	item_name	category	serialpos	list	test	answer	experiment	session	subject
0.0	0.0	6948	INSTRUCT_START	n/a	n/a	n/a	n/a	-999	-999	[0, 0, 0]	n/a	catFR1	1	R1235E
0.0	10.838	6948	INSTRUCT_END	n/a	n/a	n/a	n/a	-999	-999	[0, 0, 0]	n/a	catFR1	1	R1235E
10.838	0.0	17785	SESS_START	n/a	n/a	n/a	n/a	-999	-999	[0, 0, 0]	n/a	catFR1	1	R1235E
10.838	33.5	17785	MIC_TEST	n/a	n/a	n/a	n/a	-999	-999	[0, 0, 0]	n/a	catFR1	1	R1235E
44.338	6.838	51284	PRACTICE_TRIAL	n/a	n/a	n/a	n/a	-999	-1	[0, 0, 0]	n/a	catFR1	1	R1235E
51.176	10.428	58122	COUNTDOWN_START	n/a	n/a	n/a	n/a	-999	-1	[0, 0, 0]	n/a	catFR1	1	R1235E
61.604	0.007	68549	COUNTDOWN_END	n/a	n/a	n/a	n/a	-999	-1	[0, 0, 0]	n/a	catFR1	1	R1235E
61.611	1.616	68556	PRACTICE_ORIENT	n/a	n/a	n/a	n/a	-999	-1	[0, 0, 0]	n/a	catFR1	1	R1235E
63.227	1.984	70172	PRACTICE_ORIENT_OFF	n/a	n/a	n/a	n/a	-999	-1	[0, 0, 0]	n/a	catFR1	1	R1235E
65.211	1.618	72156	PRACTICE_WORD	n/a	n/a	CAMEL	n/a	-1	-1	[0, 0, 0]	n/a	catFR1	1	R1235E
66.829	0.917	73774	PRACTICE_WORD_OFF	n/a	n/a	CAMEL	n/a	-999	-1	[0, 0, 0]	n/a	catFR1	1	R1235E
67.746	1.616	74691	PRACTICE_WORD	n/a	n/a	COTTON	n/a	-1	-1	[0, 0, 0]	n/a	catFR1	1	R1235E
69.362	0.95	76307	PRACTICE_WORD_OFF	n/a	n/a	COTTON	n/a	-999	-1	[0, 0, 0]	n/a	catFR1	1	R1235E
70.312	1.617	77257	PRACTICE_WORD	n/a	n/a	TONGUE	n/a	-1	-1	[0, 0, 0]	n/a	catFR1	1	R1235E
71.929	0.918	78874	PRACTICE_WORD_OFF	n/a	n/a	TONGUE	n/a	-999	-1	[0, 0, 0]	n/a	catFR1	1	R1235E
72.847	1.616	79792	PRACTICE_WORD	n/a	n/a	WATCH	n/a	-1	-1	[0, 0, 0]	n/a	catFR1	1	R1235E
74.463	0.883	81408	PRACTICE_WORD_OFF	n/a	n/a	WATCH	n/a	-999	-1	[0, 0, 0]	n/a	catFR1	1	R1235E
75.346	1.617	82291	PRACTICE_WORD	n/a	n/a	FLOOD	n/a	-1	-1	[0, 0, 0]	n/a	catFR1	1	R1235E
76.963	0.801	83908	PRACTICE_WORD_OFF	n/a	n/a	FLOOD	n/a	-999	-1	[0, 0, 0]	n/a	catFR1	1	R1235E
77.764	1.616	84709	PRACTICE_WORD	n/a	n/a	BEAM	n/a	-1	-1	[0, 0, 0]	n/a	catFR1	1	R1235E
79.38	0.8	86325	PRACTICE_WORD_OFF	n/a	n/a	BEAM	n/a	-999	-1	[0, 0, 0]	n/a	catFR1	1	R1235E
80.18	1.601	87125	PRACTICE_WORD	n/a	n/a	WAGON	n/a	-1	-1	[0, 0, 0]	n/a	catFR1	1	R1235E
81.781	0.951	88725	PRACTICE_WORD_OFF	n/a	n/a	WAGON	n/a	-999	-1	[0, 0, 0]	n/a	catFR1	1	R1235E
82.732	1.616	89676	PRACTICE_WORD	n/a	n/a	RING	n/a	-1	-1	[0, 0, 0]	n/a	catFR1	1	R1235E
84.348	0.95	91292	PRACTICE_WORD_OFF	n/a	n/a	RING	n/a	-999	-1	[0, 0, 0]	n/a	catFR1	1	R1235E
85.298	1.617	92242	PRACTICE_WORD	n/a	n/a	CHEST	n/a	-1	-1	[0, 0, 0]	n/a	catFR1	1	R1235E
86.915	0.834	93859	PRACTICE_WORD_OFF	n/a	n/a	CHEST	n/a	-999	-1	[0, 0, 0]	n/a	catFR1	1	R1235E
87.749	1.616	94693	PRACTICE_WORD	n/a	n/a	IRON	n/a	-1	-1	[0, 0, 0]	n/a	catFR1	1	R1235E
89.365	0.95	96309	PRACTICE_WORD_OFF	n/a	n/a	IRON	n/a	-999	-1	[0, 0, 0]	n/a	catFR1	1	R1235E
90.315	1.617	97259	PRACTICE_WORD	n/a	n/a	ATTIC	n/a	-1	-1	[0, 0, 0]	n/a	catFR1	1	R1235E
91.932	0.984	98876	PRACTICE_WORD_OFF	n/a	n/a	ATTIC	n/a	-999	-1	[0, 0, 0]	n/a	catFR1	1	R1235E
92.916	1.618	99860	PRACTICE_WORD	n/a	n/a	RHINO	n/a	-1	-1	[0, 0, 0]	n/a	catFR1	1	R1235E
94.534	0.0	101478	ENCODING_END	n/a	n/a	n/a	n/a	-999	-1	[0, 0, 0]	n/a	catFR1	1	R1235E
94.534	0.0	101478	PRACTICE_WORD_OFF	n/a	n/a	RHINO	n/a	-999	-1	[0, 0, 0]	n/a	catFR1	1	R1235E
94.534	0.0	101478	DISTRACT_START	n/a	n/a	n/a	n/a	-999	-1	[0, 0, 0]	n/a	catFR1	1	R1235E
94.534	0.016	101478	START	n/a	n/a	n/a	n/a	-999	-1	[-999, -999, -999]	n/a	catFR1	1	R1235E
94.55	57.111	101494	PROB	57.111	n/a	n/a	n/a	-999	-1	[5, 6, 7]	18	catFR1	1	R1235E
151.661	0.016	158603	STOP	n/a	n/a	n/a	n/a	-999	-1	[-999, -999, -999]	n/a	catFR1	1	R1235E
151.677	0.549	158619	DISTRACT_END	n/a	n/a	n/a	n/a	-999	-1	[0, 0, 0]	n/a	catFR1	1	R1235E
152.226	0.518	159168	RETRIEVAL_ORIENT	n/a	n/a	n/a	n/a	-999	-1	[0, 0, 0]	n/a	catFR1	1	R1235E
152.744	30.01	159686	PRACTICE_REC_START	n/a	n/a	n/a	n/a	-999	-1	[0, 0, 0]	n/a	catFR1	1	R1235E
182.754	47.937	189695	PRACTICE_REC_END	n/a	n/a	n/a	n/a	-999	-1	[0, 0, 0]	n/a	catFR1	1	R1235E
230.691	0.5	237630	TRIAL	n/a	n/a	n/a	n/a	-999	1	[0, 0, 0]	n/a	catFR1	1	R1235E
231.191	10.428	238130	COUNTDOWN_START	n/a	n/a	n/a	n/a	-999	1	[0, 0, 0]	n/a	catFR1	1	R1235E
241.619	0.007	248557	COUNTDOWN_END	n/a	n/a	n/a	n/a	-999	1	[0, 0, 0]	n/a	catFR1	1	R1235E
241.626	1.616	248564	ORIENT	n/a	n/a	n/a	n/a	-999	1	[0, 0, 0]	n/a	catFR1	1	R1235E
243.242	2.134	250180	ORIENT_OFF	n/a	n/a	n/a	n/a	-999	1	[0, 0, 0]	n/a	catFR1	1	R1235E
245.376	1.616	252314	WORD	n/a	wordpools/wordpool_categorized_EN.txt	PIGEON	Birds	1	1	[0, 0, 0]	n/a	catFR1	1	R1235E
246.992	0.852	253930	WORD_OFF	n/a	n/a	PIGEON	n/a	1	1	[0, 0, 0]	n/a	catFR1	1	R1235E
247.844	1.617	254782	WORD	n/a	wordpools/wordpool_categorized_EN.txt	DOVE	Birds	2	1	[0, 0, 0]	n/a	catFR1	1	R1235E
249.461	0.865	256399	WORD_OFF	n/a	n/a	DOVE	n/a	2	1	[0, 0, 0]	n/a	catFR1	1	R1235E
250.326	1.617	257264	WORD	n/a	wordpools/wordpool_categorized_EN.txt	ROOSTER	FarmAnimals	3	1	[0, 0, 0]	n/a	catFR1	1	R1235E
251.943	0.835	258881	WORD_OFF	n/a	n/a	ROOSTER	n/a	3	1	[0, 0, 0]	n/a	catFR1	1	R1235E
252.778	1.616	259716	WORD	n/a	wordpools/wordpool_categorized_EN.txt	HEN	FarmAnimals	4	1	[0, 0, 0]	n/a	catFR1	1	R1235E
254.394	0.967	261332	WORD_OFF	n/a	n/a	HEN	n/a	4	1	[0, 0, 0]	n/a	catFR1	1	R1235E
255.361	1.617	262299	WORD	n/a	wordpools/wordpool_categorized_EN.txt	LEMON	Fruit	5	1	[0, 0, 0]	n/a	catFR1	1	R1235E
256.978	0.834	263916	WORD_OFF	n/a	n/a	LEMON	n/a	5	1	[0, 0, 0]	n/a	catFR1	1	R1235E
257.812	1.617	264750	WORD	n/a	wordpools/wordpool_categorized_EN.txt	PEAR	Fruit	6	1	[0, 0, 0]	n/a	catFR1	1	R1235E
259.429	0.949	266367	WORD_OFF	n/a	n/a	PEAR	n/a	6	1	[0, 0, 0]	n/a	catFR1	1	R1235E
260.378	1.617	267316	WORD	n/a	wordpools/wordpool_categorized_EN.txt	SEAGULL	Birds	7	1	[0, 0, 0]	n/a	catFR1	1	R1235E
261.995	0.785	268933	WORD_OFF	n/a	n/a	SEAGULL	n/a	7	1	[0, 0, 0]	n/a	catFR1	1	R1235E
262.78	1.615	269717	WORD	n/a	wordpools/wordpool_categorized_EN.txt	CARDINAL	Birds	8	1	[0, 0, 0]	n/a	catFR1	1	R1235E
264.395	0.851	271332	WORD_OFF	n/a	n/a	CARDINAL	n/a	8	1	[0, 0, 0]	n/a	catFR1	1	R1235E
265.246	1.618	272183	WORD	n/a	wordpools/wordpool_categorized_EN.txt	CALF	FarmAnimals	9	1	[0, 0, 0]	n/a	catFR1	1	R1235E
266.864	0.8	273801	WORD_OFF	n/a	n/a	CALF	n/a	9	1	[0, 0, 0]	n/a	catFR1	1	R1235E
267.664	1.616	274601	WORD	n/a	wordpools/wordpool_categorized_EN.txt	SHEEP	FarmAnimals	10	1	[0, 0, 0]	n/a	catFR1	1	R1235E
269.28	0.917	276217	WORD_OFF	n/a	n/a	SHEEP	n/a	10	1	[0, 0, 0]	n/a	catFR1	1	R1235E
270.197	1.618	277134	WORD	n/a	wordpools/wordpool_categorized_EN.txt	APPLE	Fruit	11	1	[0, 0, 0]	n/a	catFR1	1	R1235E
271.815	0.916	278752	WORD_OFF	n/a	n/a	APPLE	n/a	11	1	[0, 0, 0]	n/a	catFR1	1	R1235E
272.731	1.616	279668	WORD	n/a	wordpools/wordpool_categorized_EN.txt	BLUEBERRY	Fruit	12	1	[0, 0, 0]	n/a	catFR1	1	R1235E
274.347	0.0	281284	ENCODING_END	n/a	n/a	n/a	n/a	-999	1	[0, 0, 0]	n/a	catFR1	1	R1235E
274.347	0.169	281284	WORD_OFF	n/a	n/a	BLUEBERRY	n/a	12	1	[0, 0, 0]	n/a	catFR1	1	R1235E
274.516	0.0	281453	DISTRACT_START	n/a	n/a	n/a	n/a	-999	1	[0, 0, 0]	n/a	catFR1	1	R1235E
274.516	0.016	281453	START	n/a	n/a	n/a	n/a	-999	1	[-999, -999, -999]	n/a	catFR1	1	R1235E
274.532	30.834	281469	PROB	30.834	n/a	n/a	n/a	-999	1	[6, 1, 1]	8	catFR1	1	R1235E
305.366	0.02	312302	STOP	n/a	n/a	n/a	n/a	-999	1	[-999, -999, -999]	n/a	catFR1	1	R1235E
305.386	0.683	312322	DISTRACT_END	n/a	n/a	n/a	n/a	-999	1	[0, 0, 0]	n/a	catFR1	1	R1235E
306.069	0.519	313005	RETRIEVAL_ORIENT	n/a	n/a	n/a	n/a	-999	1	[0, 0, 0]	n/a	catFR1	1	R1235E
306.588	19.582	313524	REC_START	n/a	n/a	n/a	n/a	-999	1	[0, 0, 0]	n/a	catFR1	1	R1235E
326.17	1.607	333105	REC_WORD	1.607	n/a	PIGEON	Birds	1	1	[0, 0, 0]	n/a	catFR1	1	R1235E
327.777	0.836	334712	REC_WORD	0.836	n/a	ROOSTER	FarmAnimals	3	1	[0, 0, 0]	n/a	catFR1	1	R1235E
328.613	7.983	335548	REC_WORD	7.983	n/a	HEN	FarmAnimals	4	1	[0, 0, 0]	n/a	catFR1	1	R1235E
336.596	7.38	343531	REC_END	n/a	n/a	n/a	n/a	-999	1	[0, 0, 0]	n/a	catFR1	1	R1235E
343.976	0.5	350910	TRIAL	n/a	n/a	n/a	n/a	-999	2	[0, 0, 0]	n/a	catFR1	1	R1235E
344.476	10.428	351410	COUNTDOWN_START	n/a	n/a	n/a	n/a	-999	2	[0, 0, 0]	n/a	catFR1	1	R1235E
354.904	0.007	361838	COUNTDOWN_END	n/a	n/a	n/a	n/a	-999	2	[0, 0, 0]	n/a	catFR1	1	R1235E
354.911	1.618	361845	ORIENT	n/a	n/a	n/a	n/a	-999	2	[0, 0, 0]	n/a	catFR1	1	R1235E
356.529	2.167	363463	ORIENT_OFF	n/a	n/a	n/a	n/a	-999	2	[0, 0, 0]	n/a	catFR1	1	R1235E
358.696	1.616	365630	WORD	n/a	wordpools/wordpool_categorized_EN.txt	OYSTER	OceanAnimals	1	2	[0, 0, 0]	n/a	catFR1	1	R1235E
360.312	0.867	367246	WORD_OFF	n/a	n/a	OYSTER	n/a	1	2	[0, 0, 0]	n/a	catFR1	1	R1235E
361.179	1.618	368113	WORD	n/a	wordpools/wordpool_categorized_EN.txt	FISH	OceanAnimals	2	2	[0, 0, 0]	n/a	catFR1	1	R1235E
362.797	0.85	369731	WORD_OFF	n/a	n/a	FISH	n/a	2	2	[0, 0, 0]	n/a	catFR1	1	R1235E
363.647	1.616	370581	WORD	n/a	wordpools/wordpool_categorized_EN.txt	CALCULATOR	Electronics	3	2	[0, 0, 0]	n/a	catFR1	1	R1235E
365.263	0.817	372197	WORD_OFF	n/a	n/a	CALCULATOR	n/a	3	2	[0, 0, 0]	n/a	catFR1	1	R1235E
366.08	1.618	373013	WORD	n/a	wordpools/wordpool_categorized_EN.txt	TELEVISION	Electronics	4	2	[0, 0, 0]	n/a	catFR1	1	R1235E
367.698	0.9	374631	WORD_OFF	n/a	n/a	TELEVISION	n/a	4	2	[0, 0, 0]	n/a	catFR1	1	R1235E
368.598	1.616	375531	WORD	n/a	wordpools/wordpool_categorized_EN.txt	SPRUCE	Trees	5	2	[0, 0, 0]	n/a	catFR1	1	R1235E
370.214	0.833	377147	WORD_OFF	n/a	n/a	SPRUCE	n/a	5	2	[0, 0, 0]	n/a	catFR1	1	R1235E
371.047	1.618	377980	WORD	n/a	wordpools/wordpool_categorized_EN.txt	BIRCH	Trees	6	2	[0, 0, 0]	n/a	catFR1	1	R1235E
372.665	1.001	379598	WORD_OFF	n/a	n/a	BIRCH	n/a	6	2	[0, 0, 0]	n/a	catFR1	1	R1235E
373.666	1.615	380599	WORD	n/a	wordpools/wordpool_categorized_EN.txt	LOBSTER	OceanAnimals	7	2	[0, 0, 0]	n/a	catFR1	1	R1235E
375.281	0.901	382214	WORD_OFF	n/a	n/a	LOBSTER	n/a	7	2	[0, 0, 0]	n/a	catFR1	1	R1235E
376.182	1.618	383115	WORD	n/a	wordpools/wordpool_categorized_EN.txt	OCTOPUS	OceanAnimals	8	2	[0, 0, 0]	n/a	catFR1	1	R1235E
377.8	0.917	384733	WORD_OFF	n/a	n/a	OCTOPUS	n/a	8	2	[0, 0, 0]	n/a	catFR1	1	R1235E
378.717	1.616	385650	WORD	n/a	wordpools/wordpool_categorized_EN.txt	MICROWAVE	Electronics	9	2	[0, 0, 0]	n/a	catFR1	1	R1235E
380.333	0.916	387266	WORD_OFF	n/a	n/a	MICROWAVE	n/a	9	2	[0, 0, 0]	n/a	catFR1	1	R1235E
381.249	1.601	388182	WORD	n/a	wordpools/wordpool_categorized_EN.txt	RADIO	Electronics	10	2	[0, 0, 0]	n/a	catFR1	1	R1235E
382.85	1.017	389783	WORD_OFF	n/a	n/a	RADIO	n/a	10	2	[0, 0, 0]	n/a	catFR1	1	R1235E
383.867	1.617	390800	WORD	n/a	wordpools/wordpool_categorized_EN.txt	CEDAR	Trees	11	2	[0, 0, 0]	n/a	catFR1	1	R1235E
385.484	0.967	392417	WORD_OFF	n/a	n/a	CEDAR	n/a	11	2	[0, 0, 0]	n/a	catFR1	1	R1235E
386.451	1.616	393384	WORD	n/a	wordpools/wordpool_categorized_EN.txt	ELM	Trees	12	2	[0, 0, 0]	n/a	catFR1	1	R1235E
388.067	0.0	395000	WORD_OFF	n/a	n/a	ELM	n/a	12	2	[0, 0, 0]	n/a	catFR1	1	R1235E
388.067	0.132	395000	ENCODING_END	n/a	n/a	n/a	n/a	-999	2	[0, 0, 0]	n/a	catFR1	1	R1235E
388.199	0.001	395132	DISTRACT_START	n/a	n/a	n/a	n/a	-999	2	[0, 0, 0]	n/a	catFR1	1	R1235E
388.2	0.017	395133	START	n/a	n/a	n/a	n/a	-999	2	[-999, -999, -999]	n/a	catFR1	1	R1235E
388.217	28.638	395150	PROB	28.638	n/a	n/a	n/a	-999	2	[6, 2, 9]	17	catFR1	1	R1235E
416.855	0.018	423787	STOP	n/a	n/a	n/a	n/a	-999	2	[-999, -999, -999]	n/a	catFR1	1	R1235E
416.873	0.516	423805	DISTRACT_END	n/a	n/a	n/a	n/a	-999	2	[0, 0, 0]	n/a	catFR1	1	R1235E
417.389	0.518	424321	RETRIEVAL_ORIENT	n/a	n/a	n/a	n/a	-999	2	[0, 0, 0]	n/a	catFR1	1	R1235E
417.907	12.969	424838	REC_START	n/a	n/a	n/a	n/a	-999	2	[0, 0, 0]	n/a	catFR1	1	R1235E
430.876	1.63	437807	REC_WORD_VV	1.63	n/a	<>	n/a	-999	2	[0, 0, 0]	n/a	catFR1	1	R1235E
432.506	1.766	439437	REC_WORD_VV	1.766	n/a	<>	n/a	-999	2	[0, 0, 0]	n/a	catFR1	1	R1235E
434.272	6.945	441203	REC_WORD_VV	6.945	n/a	<>	n/a	-999	2	[0, 0, 0]	n/a	catFR1	1	R1235E
441.217	0.637	448148	REC_WORD	0.637	n/a	OYSTER	OceanAnimals	1	2	[0, 0, 0]	n/a	catFR1	1	R1235E
441.854	6.061	448785	REC_WORD	6.061	n/a	FISH	OceanAnimals	2	2	[0, 0, 0]	n/a	catFR1	1	R1235E
447.915	11.164	454845	REC_END	n/a	n/a	n/a	n/a	-999	2	[0, 0, 0]	n/a	catFR1	1	R1235E
459.079	0.5	466009	TRIAL	n/a	n/a	n/a	n/a	-999	3	[0, 0, 0]	n/a	catFR1	1	R1235E
459.579	10.428	466509	COUNTDOWN_START	n/a	n/a	n/a	n/a	-999	3	[0, 0, 0]	n/a	catFR1	1	R1235E
470.007	0.008	476936	COUNTDOWN_END	n/a	n/a	n/a	n/a	-999	3	[0, 0, 0]	n/a	catFR1	1	R1235E
470.015	1.618	476944	ORIENT	n/a	n/a	n/a	n/a	-999	3	[0, 0, 0]	n/a	catFR1	1	R1235E
471.633	1.983	478562	ORIENT_OFF	n/a	n/a	n/a	n/a	-999	3	[0, 0, 0]	n/a	catFR1	1	R1235E
473.616	1.616	480545	WORD	n/a	wordpools/wordpool_categorized_EN.txt	BIKE	Vehicles	1	3	[0, 0, 0]	n/a	catFR1	1	R1235E
475.232	0.867	482161	WORD_OFF	n/a	n/a	BIKE	n/a	1	3	[0, 0, 0]	n/a	catFR1	1	R1235E
476.099	1.618	483028	WORD	n/a	wordpools/wordpool_categorized_EN.txt	JEEP	Vehicles	2	3	[0, 0, 0]	n/a	catFR1	1	R1235E
477.717	0.85	484646	WORD_OFF	n/a	n/a	JEEP	n/a	2	3	[0, 0, 0]	n/a	catFR1	1	R1235E
478.567	1.616	485496	WORD	n/a	wordpools/wordpool_categorized_EN.txt	GOAT	FarmAnimals	3	3	[0, 0, 0]	n/a	catFR1	1	R1235E
480.183	0.834	487112	WORD_OFF	n/a	n/a	GOAT	n/a	3	3	[0, 0, 0]	n/a	catFR1	1	R1235E
481.017	1.618	487946	WORD	n/a	wordpools/wordpool_categorized_EN.txt	TURKEY	FarmAnimals	4	3	[0, 0, 0]	n/a	catFR1	1	R1235E
482.635	0.983	489564	WORD_OFF	n/a	n/a	TURKEY	n/a	4	3	[0, 0, 0]	n/a	catFR1	1	R1235E
483.618	1.616	490547	WORD	n/a	wordpools/wordpool_categorized_EN.txt	LEVEL	Tools	5	3	[0, 0, 0]	n/a	catFR1	1	R1235E
485.234	0.834	492163	WORD_OFF	n/a	n/a	LEVEL	n/a	5	3	[0, 0, 0]	n/a	catFR1	1	R1235E
486.068	1.617	492997	WORD	n/a	wordpools/wordpool_categorized_EN.txt	AXE	Tools	6	3	[0, 0, 0]	n/a	catFR1	1	R1235E
487.685	0.884	494614	WORD_OFF	n/a	n/a	AXE	n/a	6	3	[0, 0, 0]	n/a	catFR1	1	R1235E
488.569	1.616	495498	WORD	n/a	wordpools/wordpool_categorized_EN.txt	HORSE	FarmAnimals	7	3	[0, 0, 0]	n/a	catFR1	1	R1235E
490.185	0.833	497114	WORD_OFF	n/a	n/a	HORSE	n/a	7	3	[0, 0, 0]	n/a	catFR1	1	R1235E
491.018	1.618	497947	WORD	n/a	wordpools/wordpool_categorized_EN.txt	CHICKEN	FarmAnimals	8	3	[0, 0, 0]	n/a	catFR1	1	R1235E
492.636	1.001	499565	WORD_OFF	n/a	n/a	CHICKEN	n/a	8	3	[0, 0, 0]	n/a	catFR1	1	R1235E
493.637	1.616	500566	WORD	n/a	wordpools/wordpool_categorized_EN.txt	VAN	Vehicles	9	3	[0, 0, 0]	n/a	catFR1	1	R1235E
495.253	0.85	502182	WORD_OFF	n/a	n/a	VAN	n/a	9	3	[0, 0, 0]	n/a	catFR1	1	R1235E
496.103	1.618	503031	WORD	n/a	wordpools/wordpool_categorized_EN.txt	MOPED	Vehicles	10	3	[0, 0, 0]	n/a	catFR1	1	R1235E
497.721	0.816	504649	WORD_OFF	n/a	n/a	MOPED	n/a	10	3	[0, 0, 0]	n/a	catFR1	1	R1235E
498.537	1.616	505465	WORD	n/a	wordpools/wordpool_categorized_EN.txt	PLIERS	Tools	11	3	[0, 0, 0]	n/a	catFR1	1	R1235E
500.153	0.917	507081	WORD_OFF	n/a	n/a	PLIERS	n/a	11	3	[0, 0, 0]	n/a	catFR1	1	R1235E
501.07	1.618	507998	WORD	n/a	wordpools/wordpool_categorized_EN.txt	WRENCH	Tools	12	3	[0, 0, 0]	n/a	catFR1	1	R1235E
502.688	0.0	509616	ENCODING_END	n/a	n/a	n/a	n/a	-999	3	[0, 0, 0]	n/a	catFR1	1	R1235E
502.688	0.133	509616	WORD_OFF	n/a	n/a	WRENCH	n/a	12	3	[0, 0, 0]	n/a	catFR1	1	R1235E
502.821	0.0	509749	DISTRACT_START	n/a	n/a	n/a	n/a	-999	3	[0, 0, 0]	n/a	catFR1	1	R1235E
502.821	0.017	509749	START	n/a	n/a	n/a	n/a	-999	3	[-999, -999, -999]	n/a	catFR1	1	R1235E
502.838	27.306	509766	PROB	27.306	n/a	n/a	n/a	-999	3	[2, 1, 1]	4	catFR1	1	R1235E
530.144	0.015	537071	STOP	n/a	n/a	n/a	n/a	-999	3	[-999, -999, -999]	n/a	catFR1	1	R1235E
530.159	0.684	537086	DISTRACT_END	n/a	n/a	n/a	n/a	-999	3	[0, 0, 0]	n/a	catFR1	1	R1235E
530.843	0.516	537770	RETRIEVAL_ORIENT	n/a	n/a	n/a	n/a	-999	3	[0, 0, 0]	n/a	catFR1	1	R1235E
531.359	10.925	538286	REC_START	n/a	n/a	n/a	n/a	-999	3	[0, 0, 0]	n/a	catFR1	1	R1235E
542.284	16.255	549211	REC_WORD	16.255	n/a	JEEP	Vehicles	2	3	[0, 0, 0]	n/a	catFR1	1	R1235E
558.539	2.829	565465	REC_WORD_VV	2.829	n/a	<>	n/a	-999	3	[0, 0, 0]	n/a	catFR1	1	R1235E
561.368	26.817	568294	REC_END	n/a	n/a	n/a	n/a	-999	3	[0, 0, 0]	n/a	catFR1	1	R1235E
588.185	0.5	595110	TRIAL	n/a	n/a	n/a	n/a	-999	4	[0, 0, 0]	n/a	catFR1	1	R1235E
588.685	10.428	595610	COUNTDOWN_START	n/a	n/a	n/a	n/a	-999	4	[0, 0, 0]	n/a	catFR1	1	R1235E
599.113	0.008	606038	COUNTDOWN_END	n/a	n/a	n/a	n/a	-999	4	[0, 0, 0]	n/a	catFR1	1	R1235E
599.121	1.618	606046	ORIENT	n/a	n/a	n/a	n/a	-999	4	[0, 0, 0]	n/a	catFR1	1	R1235E
600.739	2.1	607663	ORIENT_OFF	n/a	n/a	n/a	n/a	-999	4	[0, 0, 0]	n/a	catFR1	1	R1235E
602.839	1.617	609763	WORD	n/a	wordpools/wordpool_categorized_EN.txt	GORILLA	Zoo	1	4	[0, 0, 0]	n/a	catFR1	1	R1235E
604.456	0.816	611380	WORD_OFF	n/a	n/a	GORILLA	n/a	1	4	[0, 0, 0]	n/a	catFR1	1	R1235E
605.272	1.617	612196	WORD	n/a	wordpools/wordpool_categorized_EN.txt	LION	Zoo	2	4	[0, 0, 0]	n/a	catFR1	1	R1235E
606.889	1.0	613813	WORD_OFF	n/a	n/a	LION	n/a	2	4	[0, 0, 0]	n/a	catFR1	1	R1235E
607.889	1.618	614813	WORD	n/a	wordpools/wordpool_categorized_EN.txt	THUNDER	Weather	3	4	[0, 0, 0]	n/a	catFR1	1	R1235E
609.507	0.882	616431	WORD_OFF	n/a	n/a	THUNDER	n/a	3	4	[0, 0, 0]	n/a	catFR1	1	R1235E
610.389	1.617	617313	WORD	n/a	wordpools/wordpool_categorized_EN.txt	DRIZZLE	Weather	4	4	[0, 0, 0]	n/a	catFR1	1	R1235E
612.006	1.0	618930	WORD_OFF	n/a	n/a	DRIZZLE	n/a	4	4	[0, 0, 0]	n/a	catFR1	1	R1235E
613.006	1.618	619930	WORD	n/a	wordpools/wordpool_categorized_EN.txt	JUICE	Beverages	5	4	[0, 0, 0]	n/a	catFR1	1	R1235E
614.624	0.884	621548	WORD_OFF	n/a	n/a	JUICE	n/a	5	4	[0, 0, 0]	n/a	catFR1	1	R1235E
615.508	1.616	622432	WORD	n/a	wordpools/wordpool_categorized_EN.txt	WATER	Beverages	6	4	[0, 0, 0]	n/a	catFR1	1	R1235E
617.124	0.883	624048	WORD_OFF	n/a	n/a	WATER	n/a	6	4	[0, 0, 0]	n/a	catFR1	1	R1235E
618.007	1.618	624931	WORD	n/a	wordpools/wordpool_categorized_EN.txt	PANDA	Zoo	7	4	[0, 0, 0]	n/a	catFR1	1	R1235E
619.625	0.766	626549	WORD_OFF	n/a	n/a	PANDA	n/a	7	4	[0, 0, 0]	n/a	catFR1	1	R1235E
620.391	1.617	627315	WORD	n/a	wordpools/wordpool_categorized_EN.txt	TIGER	Zoo	8	4	[0, 0, 0]	n/a	catFR1	1	R1235E
622.008	0.933	628932	WORD_OFF	n/a	n/a	TIGER	n/a	8	4	[0, 0, 0]	n/a	catFR1	1	R1235E
622.941	1.602	629865	WORD	n/a	wordpools/wordpool_categorized_EN.txt	HURRICANE	Weather	9	4	[0, 0, 0]	n/a	catFR1	1	R1235E
624.543	0.832	631467	WORD_OFF	n/a	n/a	HURRICANE	n/a	9	4	[0, 0, 0]	n/a	catFR1	1	R1235E
625.375	1.617	632298	WORD	n/a	wordpools/wordpool_categorized_EN.txt	TORNADO	Weather	10	4	[0, 0, 0]	n/a	catFR1	1	R1235E
626.992	1.0	633915	WORD_OFF	n/a	n/a	TORNADO	n/a	10	4	[0, 0, 0]	n/a	catFR1	1	R1235E
627.992	1.618	634915	WORD	n/a	wordpools/wordpool_categorized_EN.txt	TEA	Beverages	11	4	[0, 0, 0]	n/a	catFR1	1	R1235E
629.61	0.783	636533	WORD_OFF	n/a	n/a	TEA	n/a	11	4	[0, 0, 0]	n/a	catFR1	1	R1235E
630.393	1.617	637316	WORD	n/a	wordpools/wordpool_categorized_EN.txt	COLA	Beverages	12	4	[0, 0, 0]	n/a	catFR1	1	R1235E
632.01	0.0	638933	ENCODING_END	n/a	n/a	n/a	n/a	-999	4	[0, 0, 0]	n/a	catFR1	1	R1235E
632.01	0.164	638933	WORD_OFF	n/a	n/a	COLA	n/a	12	4	[0, 0, 0]	n/a	catFR1	1	R1235E
632.174	0.001	639097	DISTRACT_START	n/a	n/a	n/a	n/a	-999	4	[0, 0, 0]	n/a	catFR1	1	R1235E
632.175	0.018	639098	START	n/a	n/a	n/a	n/a	-999	4	[-999, -999, -999]	n/a	catFR1	1	R1235E
632.193	26.878	639116	PROB	26.878	n/a	n/a	n/a	-999	4	[5, 8, 8]	21	catFR1	1	R1235E
659.071	0.01	665993	STOP	n/a	n/a	n/a	n/a	-999	4	[-999, -999, -999]	n/a	catFR1	1	R1235E
659.081	0.518	666003	DISTRACT_END	n/a	n/a	n/a	n/a	-999	4	[0, 0, 0]	n/a	catFR1	1	R1235E
659.599	0.516	666521	RETRIEVAL_ORIENT	n/a	n/a	n/a	n/a	-999	4	[0, 0, 0]	n/a	catFR1	1	R1235E
660.115	9.432	667037	REC_START	n/a	n/a	n/a	n/a	-999	4	[0, 0, 0]	n/a	catFR1	1	R1235E
669.547	2.517	676469	REC_WORD	2.517	n/a	COLA	Beverages	12	4	[0, 0, 0]	n/a	catFR1	1	R1235E
672.064	4.843	678986	REC_WORD	4.843	n/a	PANDA	Zoo	7	4	[0, 0, 0]	n/a	catFR1	1	R1235E
676.907	0.977	683829	REC_WORD	0.977	n/a	HURRICANE	Weather	9	4	[0, 0, 0]	n/a	catFR1	1	R1235E
677.884	12.24	684805	REC_WORD	12.24	n/a	TORNADO	Weather	10	4	[0, 0, 0]	n/a	catFR1	1	R1235E
690.124	247.724	697045	REC_END	n/a	n/a	n/a	n/a	-999	4	[0, 0, 0]	n/a	catFR1	1	R1235E
937.848	0.5	944759	TRIAL	n/a	n/a	n/a	n/a	-999	5	[0, 0, 0]	n/a	catFR1	1	R1235E
938.348	10.428	945259	COUNTDOWN_START	n/a	n/a	n/a	n/a	-999	5	[0, 0, 0]	n/a	catFR1	1	R1235E
948.776	0.007	955687	COUNTDOWN_END	n/a	n/a	n/a	n/a	-999	5	[0, 0, 0]	n/a	catFR1	1	R1235E
948.783	1.616	955694	ORIENT	n/a	n/a	n/a	n/a	-999	5	[0, 0, 0]	n/a	catFR1	1	R1235E
950.399	2.118	957310	ORIENT_OFF	n/a	n/a	n/a	n/a	-999	5	[0, 0, 0]	n/a	catFR1	1	R1235E
952.517	1.616	959428	WORD	n/a	wordpools/wordpool_categorized_EN.txt	CHAIR	Furniture	1	5	[0, 0, 0]	n/a	catFR1	1	R1235E
954.133	0.817	961044	WORD_OFF	n/a	n/a	CHAIR	n/a	1	5	[0, 0, 0]	n/a	catFR1	1	R1235E
954.95	1.618	961861	WORD	n/a	wordpools/wordpool_categorized_EN.txt	BOOKCASE	Furniture	2	5	[0, 0, 0]	n/a	catFR1	1	R1235E
956.568	0.85	963479	WORD_OFF	n/a	n/a	BOOKCASE	n/a	2	5	[0, 0, 0]	n/a	catFR1	1	R1235E
957.418	1.616	964329	WORD	n/a	wordpools/wordpool_categorized_EN.txt	CREEK	Landscapes	3	5	[0, 0, 0]	n/a	catFR1	1	R1235E
959.034	0.767	965945	WORD_OFF	n/a	n/a	CREEK	n/a	3	5	[0, 0, 0]	n/a	catFR1	1	R1235E
959.801	1.617	966712	WORD	n/a	wordpools/wordpool_categorized_EN.txt	BEACH	Landscapes	4	5	[0, 0, 0]	n/a	catFR1	1	R1235E
961.418	0.783	968329	WORD_OFF	n/a	n/a	BEACH	n/a	4	5	[0, 0, 0]	n/a	catFR1	1	R1235E
962.201	1.601	969112	WORD	n/a	wordpools/wordpool_categorized_EN.txt	OVEN	Appliances	5	5	[0, 0, 0]	n/a	catFR1	1	R1235E
963.802	0.967	970712	WORD_OFF	n/a	n/a	OVEN	n/a	5	5	[0, 0, 0]	n/a	catFR1	1	R1235E
964.769	1.616	971679	WORD	n/a	wordpools/wordpool_categorized_EN.txt	IRON	Appliances	6	5	[0, 0, 0]	n/a	catFR1	1	R1235E
966.385	0.967	973295	WORD_OFF	n/a	n/a	IRON	n/a	6	5	[0, 0, 0]	n/a	catFR1	1	R1235E
967.352	1.617	974262	WORD	n/a	wordpools/wordpool_categorized_EN.txt	SOFA	Furniture	7	5	[0, 0, 0]	n/a	catFR1	1	R1235E
968.969	0.801	975879	WORD_OFF	n/a	n/a	SOFA	n/a	7	5	[0, 0, 0]	n/a	catFR1	1	R1235E
969.77	1.616	976680	WORD	n/a	wordpools/wordpool_categorized_EN.txt	NIGHTSTAND	Furniture	8	5	[0, 0, 0]	n/a	catFR1	1	R1235E
971.386	0.917	978296	WORD_OFF	n/a	n/a	NIGHTSTAND	n/a	8	5	[0, 0, 0]	n/a	catFR1	1	R1235E
972.303	1.617	979213	WORD	n/a	wordpools/wordpool_categorized_EN.txt	ISLAND	Landscapes	9	5	[0, 0, 0]	n/a	catFR1	1	R1235E
973.92	0.983	980830	WORD_OFF	n/a	n/a	ISLAND	n/a	9	5	[0, 0, 0]	n/a	catFR1	1	R1235E
974.903	1.618	981813	WORD	n/a	wordpools/wordpool_categorized_EN.txt	STREAM	Landscapes	10	5	[0, 0, 0]	n/a	catFR1	1	R1235E
976.521	1.017	983431	WORD_OFF	n/a	n/a	STREAM	n/a	10	5	[0, 0, 0]	n/a	catFR1	1	R1235E
977.538	1.616	984448	WORD	n/a	wordpools/wordpool_categorized_EN.txt	BLENDER	Appliances	11	5	[0, 0, 0]	n/a	catFR1	1	R1235E
979.154	0.917	986064	WORD_OFF	n/a	n/a	BLENDER	n/a	11	5	[0, 0, 0]	n/a	catFR1	1	R1235E
980.071	1.618	986981	WORD	n/a	wordpools/wordpool_categorized_EN.txt	DISHWASHER	Appliances	12	5	[0, 0, 0]	n/a	catFR1	1	R1235E
981.689	0.0	988599	ENCODING_END	n/a	n/a	n/a	n/a	-999	5	[0, 0, 0]	n/a	catFR1	1	R1235E
981.689	0.136	988599	WORD_OFF	n/a	n/a	DISHWASHER	n/a	12	5	[0, 0, 0]	n/a	catFR1	1	R1235E
981.825	0.0	988735	DISTRACT_START	n/a	n/a	n/a	n/a	-999	5	[0, 0, 0]	n/a	catFR1	1	R1235E
981.825	0.014	988735	START	n/a	n/a	n/a	n/a	-999	5	[-999, -999, -999]	n/a	catFR1	1	R1235E
981.839	32.741	988749	PROB	32.741	n/a	n/a	n/a	-999	5	[1, 6, 8]	15	catFR1	1	R1235E
1014.58	0.015	1021488	STOP	n/a	n/a	n/a	n/a	-999	5	[-999, -999, -999]	n/a	catFR1	1	R1235E
1014.595	0.565	1021503	DISTRACT_END	n/a	n/a	n/a	n/a	-999	5	[0, 0, 0]	n/a	catFR1	1	R1235E
1015.16	0.519	1022068	RETRIEVAL_ORIENT	n/a	n/a	n/a	n/a	-999	5	[0, 0, 0]	n/a	catFR1	1	R1235E
1015.679	5.901	1022587	REC_START	n/a	n/a	n/a	n/a	-999	5	[0, 0, 0]	n/a	catFR1	1	R1235E
1021.58	6.877	1028488	REC_WORD	6.877	n/a	BOOKCASE	Furniture	2	5	[0, 0, 0]	n/a	catFR1	1	R1235E
1028.457	3.357	1035365	REC_WORD	3.357	n/a	ISLAND	Landscapes	9	5	[0, 0, 0]	n/a	catFR1	1	R1235E
1031.814	1.355	1038722	REC_WORD	1.355	n/a	STREAM	Landscapes	10	5	[0, 0, 0]	n/a	catFR1	1	R1235E
1033.169	12.518	1040077	REC_WORD	12.518	n/a	IRON	Appliances	6	5	[0, 0, 0]	n/a	catFR1	1	R1235E
1045.687	15.648	1052594	REC_END	n/a	n/a	n/a	n/a	-999	5	[0, 0, 0]	n/a	catFR1	1	R1235E
1061.335	0.5	1068242	TRIAL	n/a	n/a	n/a	n/a	-999	6	[0, 0, 0]	n/a	catFR1	1	R1235E
1061.835	10.428	1068742	COUNTDOWN_START	n/a	n/a	n/a	n/a	-999	6	[0, 0, 0]	n/a	catFR1	1	R1235E
1072.263	0.007	1079169	COUNTDOWN_END	n/a	n/a	n/a	n/a	-999	6	[0, 0, 0]	n/a	catFR1	1	R1235E
1072.27	1.617	1079176	ORIENT	n/a	n/a	n/a	n/a	-999	6	[0, 0, 0]	n/a	catFR1	1	R1235E
1073.887	2.184	1080793	ORIENT_OFF	n/a	n/a	n/a	n/a	-999	6	[0, 0, 0]	n/a	catFR1	1	R1235E
1076.071	1.618	1082977	WORD	n/a	wordpools/wordpool_categorized_EN.txt	BEAR	Zoo	1	6	[0, 0, 0]	n/a	catFR1	1	R1235E
1077.689	0.917	1084595	WORD_OFF	n/a	n/a	BEAR	n/a	1	6	[0, 0, 0]	n/a	catFR1	1	R1235E
1078.606	1.616	1085512	WORD	n/a	wordpools/wordpool_categorized_EN.txt	ELEPHANT	Zoo	2	6	[0, 0, 0]	n/a	catFR1	1	R1235E
1080.222	0.85	1087128	WORD_OFF	n/a	n/a	ELEPHANT	n/a	2	6	[0, 0, 0]	n/a	catFR1	1	R1235E
1081.072	1.618	1087978	WORD	n/a	wordpools/wordpool_categorized_EN.txt	PLANKTON	OceanAnimals	3	6	[0, 0, 0]	n/a	catFR1	1	R1235E
1082.69	0.783	1089596	WORD_OFF	n/a	n/a	PLANKTON	n/a	3	6	[0, 0, 0]	n/a	catFR1	1	R1235E
1083.473	1.616	1090379	WORD	n/a	wordpools/wordpool_categorized_EN.txt	JELLYFISH	OceanAnimals	4	6	[0, 0, 0]	n/a	catFR1	1	R1235E
1085.089	0.967	1091995	WORD_OFF	n/a	n/a	JELLYFISH	n/a	4	6	[0, 0, 0]	n/a	catFR1	1	R1235E
1086.056	1.618	1092962	WORD	n/a	wordpools/wordpool_categorized_EN.txt	BED	Furniture	5	6	[0, 0, 0]	n/a	catFR1	1	R1235E
1087.674	0.883	1094580	WORD_OFF	n/a	n/a	BED	n/a	5	6	[0, 0, 0]	n/a	catFR1	1	R1235E
1088.557	1.616	1095463	WORD	n/a	wordpools/wordpool_categorized_EN.txt	RECLINER	Furniture	6	6	[0, 0, 0]	n/a	catFR1	1	R1235E
1090.173	0.867	1097079	WORD_OFF	n/a	n/a	RECLINER	n/a	6	6	[0, 0, 0]	n/a	catFR1	1	R1235E
1091.04	1.618	1097946	WORD	n/a	wordpools/wordpool_categorized_EN.txt	DOLPHIN	OceanAnimals	7	6	[0, 0, 0]	n/a	catFR1	1	R1235E
1092.658	0.833	1099563	WORD_OFF	n/a	n/a	DOLPHIN	n/a	7	6	[0, 0, 0]	n/a	catFR1	1	R1235E
1093.491	1.616	1100396	WORD	n/a	wordpools/wordpool_categorized_EN.txt	SQUID	OceanAnimals	8	6	[0, 0, 0]	n/a	catFR1	1	R1235E
1095.107	0.967	1102012	WORD_OFF	n/a	n/a	SQUID	n/a	8	6	[0, 0, 0]	n/a	catFR1	1	R1235E
1096.074	1.601	1102979	WORD	n/a	wordpools/wordpool_categorized_EN.txt	ORANGUTAN	Zoo	9	6	[0, 0, 0]	n/a	catFR1	1	R1235E
1097.675	0.884	1104580	WORD_OFF	n/a	n/a	ORANGUTAN	n/a	9	6	[0, 0, 0]	n/a	catFR1	1	R1235E
1098.559	1.616	1105464	WORD	n/a	wordpools/wordpool_categorized_EN.txt	CHEETAH	Zoo	10	6	[0, 0, 0]	n/a	catFR1	1	R1235E
1100.175	0.883	1107080	WORD_OFF	n/a	n/a	CHEETAH	n/a	10	6	[0, 0, 0]	n/a	catFR1	1	R1235E
1101.058	1.618	1107963	WORD	n/a	wordpools/wordpool_categorized_EN.txt	TABLE	Furniture	11	6	[0, 0, 0]	n/a	catFR1	1	R1235E
1102.676	0.784	1109581	WORD_OFF	n/a	n/a	TABLE	n/a	11	6	[0, 0, 0]	n/a	catFR1	1	R1235E
1103.46	1.616	1110365	WORD	n/a	wordpools/wordpool_categorized_EN.txt	CABINET	Furniture	12	6	[0, 0, 0]	n/a	catFR1	1	R1235E
1105.076	0.0	1111981	WORD_OFF	n/a	n/a	CABINET	n/a	12	6	[0, 0, 0]	n/a	catFR1	1	R1235E
1105.076	0.176	1111981	ENCODING_END	n/a	n/a	n/a	n/a	-999	6	[0, 0, 0]	n/a	catFR1	1	R1235E
1105.252	0.0	1112157	DISTRACT_START	n/a	n/a	n/a	n/a	-999	6	[0, 0, 0]	n/a	catFR1	1	R1235E
1105.252	0.024	1112157	START	n/a	n/a	n/a	n/a	-999	6	[-999, -999, -999]	n/a	catFR1	1	R1235E
1105.276	42.962	1112181	PROB	42.962	n/a	n/a	n/a	-999	6	[3, 5, 9]	17	catFR1	1	R1235E
1148.238	0.012	1155141	STOP	n/a	n/a	n/a	n/a	-999	6	[-999, -999, -999]	n/a	catFR1	1	R1235E
1148.25	0.7	1155153	DISTRACT_END	n/a	n/a	n/a	n/a	-999	6	[0, 0, 0]	n/a	catFR1	1	R1235E
1148.95	0.519	1155853	RETRIEVAL_ORIENT	n/a	n/a	n/a	n/a	-999	6	[0, 0, 0]	n/a	catFR1	1	R1235E
1149.469	11.37	1156372	REC_START	n/a	n/a	n/a	n/a	-999	6	[0, 0, 0]	n/a	catFR1	1	R1235E
1160.839	3.567	1167742	REC_WORD_VV	3.567	n/a	<>	n/a	-999	6	[0, 0, 0]	n/a	catFR1	1	R1235E
1164.406	0.89	1171309	REC_WORD	0.89	n/a	BEAR	Zoo	1	6	[0, 0, 0]	n/a	catFR1	1	R1235E
1165.296	9.771	1172199	REC_WORD	9.771	n/a	ELEPHANT	Zoo	2	6	[0, 0, 0]	n/a	catFR1	1	R1235E
1175.067	4.411	1181969	REC_WORD	4.411	n/a	ORANGUTAN	Zoo	9	6	[0, 0, 0]	n/a	catFR1	1	R1235E
1179.478	88.476	1186380	REC_END	n/a	n/a	n/a	n/a	-999	6	[0, 0, 0]	n/a	catFR1	1	R1235E
1267.954	0.5	1274853	TRIAL	n/a	n/a	n/a	n/a	-999	7	[0, 0, 0]	n/a	catFR1	1	R1235E
1268.454	10.428	1275353	COUNTDOWN_START	n/a	n/a	n/a	n/a	-999	7	[0, 0, 0]	n/a	catFR1	1	R1235E
1278.882	0.008	1285780	COUNTDOWN_END	n/a	n/a	n/a	n/a	-999	7	[0, 0, 0]	n/a	catFR1	1	R1235E
1278.89	1.618	1285788	ORIENT	n/a	n/a	n/a	n/a	-999	7	[0, 0, 0]	n/a	catFR1	1	R1235E
1280.508	2.017	1287406	ORIENT_OFF	n/a	n/a	n/a	n/a	-999	7	[0, 0, 0]	n/a	catFR1	1	R1235E
1282.525	1.616	1289423	WORD	n/a	wordpools/wordpool_categorized_EN.txt	FOREST	Landscapes	1	7	[0, 0, 0]	n/a	catFR1	1	R1235E
1284.141	0.883	1291039	WORD_OFF	n/a	n/a	FOREST	n/a	1	7	[0, 0, 0]	n/a	catFR1	1	R1235E
1285.024	1.618	1291922	WORD	n/a	wordpools/wordpool_categorized_EN.txt	WOODS	Landscapes	2	7	[0, 0, 0]	n/a	catFR1	1	R1235E
1286.642	0.767	1293540	WORD_OFF	n/a	n/a	WOODS	n/a	2	7	[0, 0, 0]	n/a	catFR1	1	R1235E
1287.409	1.616	1294307	WORD	n/a	wordpools/wordpool_categorized_EN.txt	FUDGE	Desserts	3	7	[0, 0, 0]	n/a	catFR1	1	R1235E
1289.025	0.818	1295923	WORD_OFF	n/a	n/a	FUDGE	n/a	3	7	[0, 0, 0]	n/a	catFR1	1	R1235E
1289.843	1.616	1296741	WORD	n/a	wordpools/wordpool_categorized_EN.txt	COBBLER	Desserts	4	7	[0, 0, 0]	n/a	catFR1	1	R1235E
1291.459	0.933	1298357	WORD_OFF	n/a	n/a	COBBLER	n/a	4	7	[0, 0, 0]	n/a	catFR1	1	R1235E
1292.392	1.617	1299290	WORD	n/a	wordpools/wordpool_categorized_EN.txt	RATCHET	Tools	5	7	[0, 0, 0]	n/a	catFR1	1	R1235E
1294.009	0.95	1300907	WORD_OFF	n/a	n/a	RATCHET	n/a	5	7	[0, 0, 0]	n/a	catFR1	1	R1235E
1294.959	1.618	1301857	WORD	n/a	wordpools/wordpool_categorized_EN.txt	HAMMER	Tools	6	7	[0, 0, 0]	n/a	catFR1	1	R1235E
1296.577	0.9	1303475	WORD_OFF	n/a	n/a	HAMMER	n/a	6	7	[0, 0, 0]	n/a	catFR1	1	R1235E
1297.477	1.616	1304375	WORD	n/a	wordpools/wordpool_categorized_EN.txt	OCEAN	Landscapes	7	7	[0, 0, 0]	n/a	catFR1	1	R1235E
1299.093	0.967	1305991	WORD_OFF	n/a	n/a	OCEAN	n/a	7	7	[0, 0, 0]	n/a	catFR1	1	R1235E
1300.06	1.601	1306957	WORD	n/a	wordpools/wordpool_categorized_EN.txt	VALLEY	Landscapes	8	7	[0, 0, 0]	n/a	catFR1	1	R1235E
1301.661	0.917	1308558	WORD_OFF	n/a	n/a	VALLEY	n/a	8	7	[0, 0, 0]	n/a	catFR1	1	R1235E
1302.578	1.616	1309475	WORD	n/a	wordpools/wordpool_categorized_EN.txt	CUPCAKE	Desserts	9	7	[0, 0, 0]	n/a	catFR1	1	R1235E
1304.194	0.817	1311091	WORD_OFF	n/a	n/a	CUPCAKE	n/a	9	7	[0, 0, 0]	n/a	catFR1	1	R1235E
1305.011	1.618	1311908	WORD	n/a	wordpools/wordpool_categorized_EN.txt	BROWNIES	Desserts	10	7	[0, 0, 0]	n/a	catFR1	1	R1235E
1306.629	1.017	1313526	WORD_OFF	n/a	n/a	BROWNIES	n/a	10	7	[0, 0, 0]	n/a	catFR1	1	R1235E
1307.646	1.616	1314543	WORD	n/a	wordpools/wordpool_categorized_EN.txt	DRILL	Tools	11	7	[0, 0, 0]	n/a	catFR1	1	R1235E
1309.262	0.95	1316159	WORD_OFF	n/a	n/a	DRILL	n/a	11	7	[0, 0, 0]	n/a	catFR1	1	R1235E
1310.212	1.618	1317109	WORD	n/a	wordpools/wordpool_categorized_EN.txt	CROWBAR	Tools	12	7	[0, 0, 0]	n/a	catFR1	1	R1235E
1311.83	0.0	1318727	ENCODING_END	n/a	n/a	n/a	n/a	-999	7	[0, 0, 0]	n/a	catFR1	1	R1235E
1311.83	0.162	1318727	WORD_OFF	n/a	n/a	CROWBAR	n/a	12	7	[0, 0, 0]	n/a	catFR1	1	R1235E
1311.992	0.0	1318889	DISTRACT_START	n/a	n/a	n/a	n/a	-999	7	[0, 0, 0]	n/a	catFR1	1	R1235E
1311.992	0.02	1318889	START	n/a	n/a	n/a	n/a	-999	7	[-999, -999, -999]	n/a	catFR1	1	R1235E
1312.012	27.134	1318909	PROB	27.134	n/a	n/a	n/a	-999	7	[4, 4, 9]	17	catFR1	1	R1235E
1339.146	0.021	1346042	STOP	n/a	n/a	n/a	n/a	-999	7	[-999, -999, -999]	n/a	catFR1	1	R1235E
1339.167	0.634	1346063	DISTRACT_END	n/a	n/a	n/a	n/a	-999	7	[0, 0, 0]	n/a	catFR1	1	R1235E
1339.801	0.517	1346697	RETRIEVAL_ORIENT	n/a	n/a	n/a	n/a	-999	7	[0, 0, 0]	n/a	catFR1	1	R1235E
1340.318	11.34	1347214	REC_START	n/a	n/a	n/a	n/a	-999	7	[0, 0, 0]	n/a	catFR1	1	R1235E
1351.658	0.733	1358553	REC_WORD	0.733	n/a	RATCHET	Tools	5	7	[0, 0, 0]	n/a	catFR1	1	R1235E
1352.391	12.626	1359286	REC_WORD	12.626	n/a	HAMMER	Tools	6	7	[0, 0, 0]	n/a	catFR1	1	R1235E
1365.017	5.31	1371912	REC_WORD_VV	5.31	n/a	<>	n/a	-999	7	[0, 0, 0]	n/a	catFR1	1	R1235E
1370.327	30.017	1377222	REC_END	n/a	n/a	n/a	n/a	-999	7	[0, 0, 0]	n/a	catFR1	1	R1235E
1400.344	0.5	1407238	TRIAL	n/a	n/a	n/a	n/a	-999	8	[0, 0, 0]	n/a	catFR1	1	R1235E
1400.844	10.428	1407738	COUNTDOWN_START	n/a	n/a	n/a	n/a	-999	8	[0, 0, 0]	n/a	catFR1	1	R1235E
1411.272	0.008	1418165	COUNTDOWN_END	n/a	n/a	n/a	n/a	-999	8	[0, 0, 0]	n/a	catFR1	1	R1235E
1411.28	1.616	1418173	ORIENT	n/a	n/a	n/a	n/a	-999	8	[0, 0, 0]	n/a	catFR1	1	R1235E
1412.896	1.852	1419789	ORIENT_OFF	n/a	n/a	n/a	n/a	-999	8	[0, 0, 0]	n/a	catFR1	1	R1235E
1414.748	1.616	1421641	WORD	n/a	wordpools/wordpool_categorized_EN.txt	TURTLE	OceanAnimals	1	8	[0, 0, 0]	n/a	catFR1	1	R1235E
1416.364	0.9	1423257	WORD_OFF	n/a	n/a	TURTLE	n/a	1	8	[0, 0, 0]	n/a	catFR1	1	R1235E
1417.264	1.617	1424157	WORD	n/a	wordpools/wordpool_categorized_EN.txt	WHALE	OceanAnimals	2	8	[0, 0, 0]	n/a	catFR1	1	R1235E
1418.881	0.784	1425774	WORD_OFF	n/a	n/a	WHALE	n/a	2	8	[0, 0, 0]	n/a	catFR1	1	R1235E
1419.665	1.616	1426558	WORD	n/a	wordpools/wordpool_categorized_EN.txt	SHORTS	Clothing	3	8	[0, 0, 0]	n/a	catFR1	1	R1235E
1421.281	0.8	1428174	WORD_OFF	n/a	n/a	SHORTS	n/a	3	8	[0, 0, 0]	n/a	catFR1	1	R1235E
1422.081	1.601	1428974	WORD	n/a	wordpools/wordpool_categorized_EN.txt	UNDERWEAR	Clothing	4	8	[0, 0, 0]	n/a	catFR1	1	R1235E
1423.682	1.018	1430575	WORD_OFF	n/a	n/a	UNDERWEAR	n/a	4	8	[0, 0, 0]	n/a	catFR1	1	R1235E
1424.7	1.616	1431593	WORD	n/a	wordpools/wordpool_categorized_EN.txt	SHOVEL	Tools	5	8	[0, 0, 0]	n/a	catFR1	1	R1235E
1426.316	0.966	1433209	WORD_OFF	n/a	n/a	SHOVEL	n/a	5	8	[0, 0, 0]	n/a	catFR1	1	R1235E
1427.282	1.617	1434175	WORD	n/a	wordpools/wordpool_categorized_EN.txt	SANDER	Tools	6	8	[0, 0, 0]	n/a	catFR1	1	R1235E
1428.899	0.984	1435792	WORD_OFF	n/a	n/a	SANDER	n/a	6	8	[0, 0, 0]	n/a	catFR1	1	R1235E
1429.883	1.618	1436775	WORD	n/a	wordpools/wordpool_categorized_EN.txt	SKIRT	Clothing	7	8	[0, 0, 0]	n/a	catFR1	1	R1235E
1431.501	0.816	1438393	WORD_OFF	n/a	n/a	SKIRT	n/a	7	8	[0, 0, 0]	n/a	catFR1	1	R1235E
1432.317	1.617	1439209	WORD	n/a	wordpools/wordpool_categorized_EN.txt	BLOUSE	Clothing	8	8	[0, 0, 0]	n/a	catFR1	1	R1235E
1433.934	0.834	1440826	WORD_OFF	n/a	n/a	BLOUSE	n/a	8	8	[0, 0, 0]	n/a	catFR1	1	R1235E
1434.768	1.616	1441660	WORD	n/a	wordpools/wordpool_categorized_EN.txt	SHRIMP	OceanAnimals	9	8	[0, 0, 0]	n/a	catFR1	1	R1235E
1436.384	0.783	1443276	WORD_OFF	n/a	n/a	SHRIMP	n/a	9	8	[0, 0, 0]	n/a	catFR1	1	R1235E
1437.167	1.601	1444059	WORD	n/a	wordpools/wordpool_categorized_EN.txt	CRAB	OceanAnimals	10	8	[0, 0, 0]	n/a	catFR1	1	R1235E
1438.768	0.968	1445660	WORD_OFF	n/a	n/a	CRAB	n/a	10	8	[0, 0, 0]	n/a	catFR1	1	R1235E
1439.736	1.615	1446628	WORD	n/a	wordpools/wordpool_categorized_EN.txt	SAW	Tools	11	8	[0, 0, 0]	n/a	catFR1	1	R1235E
1441.351	0.934	1448243	WORD_OFF	n/a	n/a	SAW	n/a	11	8	[0, 0, 0]	n/a	catFR1	1	R1235E
1442.285	1.617	1449177	WORD	n/a	wordpools/wordpool_categorized_EN.txt	SCREWDRIVER	Tools	12	8	[0, 0, 0]	n/a	catFR1	1	R1235E
1443.902	0.0	1450794	WORD_OFF	n/a	n/a	SCREWDRIVER	n/a	12	8	[0, 0, 0]	n/a	catFR1	1	R1235E
1443.902	0.132	1450794	ENCODING_END	n/a	n/a	n/a	n/a	-999	8	[0, 0, 0]	n/a	catFR1	1	R1235E
1444.034	0.0	1450926	DISTRACT_START	n/a	n/a	n/a	n/a	-999	8	[0, 0, 0]	n/a	catFR1	1	R1235E
1444.034	0.018	1450926	START	n/a	n/a	n/a	n/a	-999	8	[-999, -999, -999]	n/a	catFR1	1	R1235E
1444.052	53.126	1450944	PROB	53.126	n/a	n/a	n/a	-999	8	[5, 3, 3]	11	catFR1	1	R1235E
1497.178	0.017	1504068	STOP	n/a	n/a	n/a	n/a	-999	8	[-999, -999, -999]	n/a	catFR1	1	R1235E
1497.195	0.534	1504085	DISTRACT_END	n/a	n/a	n/a	n/a	-999	8	[0, 0, 0]	n/a	catFR1	1	R1235E
1497.729	0.517	1504619	RETRIEVAL_ORIENT	n/a	n/a	n/a	n/a	-999	8	[0, 0, 0]	n/a	catFR1	1	R1235E
1498.246	30.0	1505136	REC_START	n/a	n/a	n/a	n/a	-999	8	[0, 0, 0]	n/a	catFR1	1	R1235E
1528.246	0.008	1535135	REC_WORD_VV	0.008	n/a	<>	n/a	-999	8	[0, 0, 0]	n/a	catFR1	1	R1235E
1528.254	11.998	1535143	REC_END	n/a	n/a	n/a	n/a	-999	8	[0, 0, 0]	n/a	catFR1	1	R1235E
1540.252	0.5	1547140	TRIAL	n/a	n/a	n/a	n/a	-999	9	[0, 0, 0]	n/a	catFR1	1	R1235E
1540.752	10.428	1547640	COUNTDOWN_START	n/a	n/a	n/a	n/a	-999	9	[0, 0, 0]	n/a	catFR1	1	R1235E
1551.18	0.007	1558068	COUNTDOWN_END	n/a	n/a	n/a	n/a	-999	9	[0, 0, 0]	n/a	catFR1	1	R1235E
1551.187	1.618	1558075	ORIENT	n/a	n/a	n/a	n/a	-999	9	[0, 0, 0]	n/a	catFR1	1	R1235E
1552.805	2.283	1559693	ORIENT_OFF	n/a	n/a	n/a	n/a	-999	9	[0, 0, 0]	n/a	catFR1	1	R1235E
1555.088	1.618	1561976	WORD	n/a	wordpools/wordpool_categorized_EN.txt	DESK	Furniture	1	9	[0, 0, 0]	n/a	catFR1	1	R1235E
1556.706	0.8	1563594	WORD_OFF	n/a	n/a	DESK	n/a	1	9	[0, 0, 0]	n/a	catFR1	1	R1235E
1557.506	1.616	1564394	WORD	n/a	wordpools/wordpool_categorized_EN.txt	SHELF	Furniture	2	9	[0, 0, 0]	n/a	catFR1	1	R1235E
1559.122	0.784	1566009	WORD_OFF	n/a	n/a	SHELF	n/a	2	9	[0, 0, 0]	n/a	catFR1	1	R1235E
1559.906	1.618	1566793	WORD	n/a	wordpools/wordpool_categorized_EN.txt	COLANDER	KitchenTools	3	9	[0, 0, 0]	n/a	catFR1	1	R1235E
1561.524	0.849	1568411	WORD_OFF	n/a	n/a	COLANDER	n/a	3	9	[0, 0, 0]	n/a	catFR1	1	R1235E
1562.373	1.617	1569260	WORD	n/a	wordpools/wordpool_categorized_EN.txt	SPATULA	KitchenTools	4	9	[0, 0, 0]	n/a	catFR1	1	R1235E
1563.99	0.966	1570877	WORD_OFF	n/a	n/a	SPATULA	n/a	4	9	[0, 0, 0]	n/a	catFR1	1	R1235E
1564.956	1.601	1571843	WORD	n/a	wordpools/wordpool_categorized_EN.txt	RULER	OfficeSupplies	5	9	[0, 0, 0]	n/a	catFR1	1	R1235E
1566.557	0.951	1573444	WORD_OFF	n/a	n/a	RULER	n/a	5	9	[0, 0, 0]	n/a	catFR1	1	R1235E
1567.508	1.616	1574395	WORD	n/a	wordpools/wordpool_categorized_EN.txt	PENCIL	OfficeSupplies	6	9	[0, 0, 0]	n/a	catFR1	1	R1235E
1569.124	0.85	1576011	WORD_OFF	n/a	n/a	PENCIL	n/a	6	9	[0, 0, 0]	n/a	catFR1	1	R1235E
1569.974	1.618	1576861	WORD	n/a	wordpools/wordpool_categorized_EN.txt	KNIFE	KitchenTools	7	9	[0, 0, 0]	n/a	catFR1	1	R1235E
1571.592	0.782	1578479	WORD_OFF	n/a	n/a	KNIFE	n/a	7	9	[0, 0, 0]	n/a	catFR1	1	R1235E
1572.374	1.617	1579261	WORD	n/a	wordpools/wordpool_categorized_EN.txt	WHISK	KitchenTools	8	9	[0, 0, 0]	n/a	catFR1	1	R1235E
1573.991	0.835	1580878	WORD_OFF	n/a	n/a	WHISK	n/a	8	9	[0, 0, 0]	n/a	catFR1	1	R1235E
1574.826	1.617	1581713	WORD	n/a	wordpools/wordpool_categorized_EN.txt	DRESSER	Furniture	9	9	[0, 0, 0]	n/a	catFR1	1	R1235E
1576.443	0.832	1583330	WORD_OFF	n/a	n/a	DRESSER	n/a	9	9	[0, 0, 0]	n/a	catFR1	1	R1235E
1577.275	1.6	1584162	WORD	n/a	wordpools/wordpool_categorized_EN.txt	COUCH	Furniture	10	9	[0, 0, 0]	n/a	catFR1	1	R1235E
1578.875	0.852	1585762	WORD_OFF	n/a	n/a	COUCH	n/a	10	9	[0, 0, 0]	n/a	catFR1	1	R1235E
1579.727	1.616	1586614	WORD	n/a	wordpools/wordpool_categorized_EN.txt	TAPE	OfficeSupplies	11	9	[0, 0, 0]	n/a	catFR1	1	R1235E
1581.343	0.95	1588230	WORD_OFF	n/a	n/a	TAPE	n/a	11	9	[0, 0, 0]	n/a	catFR1	1	R1235E
1582.293	1.617	1589180	WORD	n/a	wordpools/wordpool_categorized_EN.txt	NOTEBOOK	OfficeSupplies	12	9	[0, 0, 0]	n/a	catFR1	1	R1235E
1583.91	0.0	1590797	ENCODING_END	n/a	n/a	n/a	n/a	-999	9	[0, 0, 0]	n/a	catFR1	1	R1235E
1583.91	0.17	1590797	WORD_OFF	n/a	n/a	NOTEBOOK	n/a	12	9	[0, 0, 0]	n/a	catFR1	1	R1235E
1584.08	0.0	1590967	DISTRACT_START	n/a	n/a	n/a	n/a	-999	9	[0, 0, 0]	n/a	catFR1	1	R1235E
1584.08	0.013	1590967	START	n/a	n/a	n/a	n/a	-999	9	[-999, -999, -999]	n/a	catFR1	1	R1235E
1584.093	25.948	1590980	PROB	25.948	n/a	n/a	n/a	-999	9	[1, 6, 6]	13	catFR1	1	R1235E
1610.041	0.007	1616927	STOP	n/a	n/a	n/a	n/a	-999	9	[-999, -999, -999]	n/a	catFR1	1	R1235E
1610.048	0.701	1616934	DISTRACT_END	n/a	n/a	n/a	n/a	-999	9	[0, 0, 0]	n/a	catFR1	1	R1235E
1610.749	0.516	1617634	RETRIEVAL_ORIENT	n/a	n/a	n/a	n/a	-999	9	[0, 0, 0]	n/a	catFR1	1	R1235E
1611.265	3.692	1618150	REC_START	n/a	n/a	n/a	n/a	-999	9	[0, 0, 0]	n/a	catFR1	1	R1235E
1614.957	0.86	1621842	REC_WORD	0.86	n/a	RULER	OfficeSupplies	5	9	[0, 0, 0]	n/a	catFR1	1	R1235E
1615.817	25.457	1622702	REC_WORD	25.457	n/a	DESK	Furniture	1	9	[0, 0, 0]	n/a	catFR1	1	R1235E
1641.274	17.55	1648158	REC_END	n/a	n/a	n/a	n/a	-999	9	[0, 0, 0]	n/a	catFR1	1	R1235E
1658.824	0.5	1665708	TRIAL	n/a	n/a	n/a	n/a	-999	10	[0, 0, 0]	n/a	catFR1	1	R1235E
1659.324	10.428	1666208	COUNTDOWN_START	n/a	n/a	n/a	n/a	-999	10	[0, 0, 0]	n/a	catFR1	1	R1235E
1669.752	0.007	1676635	COUNTDOWN_END	n/a	n/a	n/a	n/a	-999	10	[0, 0, 0]	n/a	catFR1	1	R1235E
1669.759	1.616	1676642	ORIENT	n/a	n/a	n/a	n/a	-999	10	[0, 0, 0]	n/a	catFR1	1	R1235E
1671.375	2.068	1678258	ORIENT_OFF	n/a	n/a	n/a	n/a	-999	10	[0, 0, 0]	n/a	catFR1	1	R1235E
1673.443	1.616	1680326	WORD	n/a	wordpools/wordpool_categorized_EN.txt	PASTRY	Desserts	1	10	[0, 0, 0]	n/a	catFR1	1	R1235E
1675.059	0.934	1681942	WORD_OFF	n/a	n/a	PASTRY	n/a	1	10	[0, 0, 0]	n/a	catFR1	1	R1235E
1675.993	1.618	1682876	WORD	n/a	wordpools/wordpool_categorized_EN.txt	COOKIE	Desserts	2	10	[0, 0, 0]	n/a	catFR1	1	R1235E
1677.611	0.8	1684494	WORD_OFF	n/a	n/a	COOKIE	n/a	2	10	[0, 0, 0]	n/a	catFR1	1	R1235E
1678.411	1.616	1685294	WORD	n/a	wordpools/wordpool_categorized_EN.txt	HUMIDITY	Weather	3	10	[0, 0, 0]	n/a	catFR1	1	R1235E
1680.027	0.933	1686910	WORD_OFF	n/a	n/a	HUMIDITY	n/a	3	10	[0, 0, 0]	n/a	catFR1	1	R1235E
1680.96	1.618	1687843	WORD	n/a	wordpools/wordpool_categorized_EN.txt	RAIN	Weather	4	10	[0, 0, 0]	n/a	catFR1	1	R1235E
1682.578	0.984	1689461	WORD_OFF	n/a	n/a	RAIN	n/a	4	10	[0, 0, 0]	n/a	catFR1	1	R1235E
1683.562	1.615	1690445	WORD	n/a	wordpools/wordpool_categorized_EN.txt	CHERRY	Fruit	5	10	[0, 0, 0]	n/a	catFR1	1	R1235E
1685.177	0.817	1692060	WORD_OFF	n/a	n/a	CHERRY	n/a	5	10	[0, 0, 0]	n/a	catFR1	1	R1235E
1685.994	1.618	1692877	WORD	n/a	wordpools/wordpool_categorized_EN.txt	GRAPE	Fruit	6	10	[0, 0, 0]	n/a	catFR1	1	R1235E
1687.612	0.901	1694495	WORD_OFF	n/a	n/a	GRAPE	n/a	6	10	[0, 0, 0]	n/a	catFR1	1	R1235E
1688.513	1.616	1695395	WORD	n/a	wordpools/wordpool_categorized_EN.txt	WIND	Weather	7	10	[0, 0, 0]	n/a	catFR1	1	R1235E
1690.129	0.833	1697011	WORD_OFF	n/a	n/a	WIND	n/a	7	10	[0, 0, 0]	n/a	catFR1	1	R1235E
1690.962	1.618	1697844	WORD	n/a	wordpools/wordpool_categorized_EN.txt	FOG	Weather	8	10	[0, 0, 0]	n/a	catFR1	1	R1235E
1692.58	0.883	1699462	WORD_OFF	n/a	n/a	FOG	n/a	8	10	[0, 0, 0]	n/a	catFR1	1	R1235E
1693.463	1.616	1700345	WORD	n/a	wordpools/wordpool_categorized_EN.txt	CAKE	Desserts	9	10	[0, 0, 0]	n/a	catFR1	1	R1235E
1695.079	0.95	1701961	WORD_OFF	n/a	n/a	CAKE	n/a	9	10	[0, 0, 0]	n/a	catFR1	1	R1235E
1696.029	1.601	1702911	WORD	n/a	wordpools/wordpool_categorized_EN.txt	PIE	Desserts	10	10	[0, 0, 0]	n/a	catFR1	1	R1235E
1697.63	0.801	1704512	WORD_OFF	n/a	n/a	PIE	n/a	10	10	[0, 0, 0]	n/a	catFR1	1	R1235E
1698.431	1.616	1705313	WORD	n/a	wordpools/wordpool_categorized_EN.txt	STRAWBERRY	Fruit	11	10	[0, 0, 0]	n/a	catFR1	1	R1235E
1700.047	0.95	1706929	WORD_OFF	n/a	n/a	STRAWBERRY	n/a	11	10	[0, 0, 0]	n/a	catFR1	1	R1235E
1700.997	1.601	1707879	WORD	n/a	wordpools/wordpool_categorized_EN.txt	ORANGE	Fruit	12	10	[0, 0, 0]	n/a	catFR1	1	R1235E
1702.598	0.001	1709480	WORD_OFF	n/a	n/a	ORANGE	n/a	12	10	[0, 0, 0]	n/a	catFR1	1	R1235E
1702.599	0.13	1709481	ENCODING_END	n/a	n/a	n/a	n/a	-999	10	[0, 0, 0]	n/a	catFR1	1	R1235E
1702.729	0.0	1709611	DISTRACT_START	n/a	n/a	n/a	n/a	-999	10	[0, 0, 0]	n/a	catFR1	1	R1235E
1702.729	0.019	1709611	START	n/a	n/a	n/a	n/a	-999	10	[-999, -999, -999]	n/a	catFR1	1	R1235E
1702.748	44.065	1709630	PROB	44.065	n/a	n/a	n/a	-999	10	[4, 6, 8]	18	catFR1	1	R1235E
1746.813	0.01	1753693	STOP	n/a	n/a	n/a	n/a	-999	10	[-999, -999, -999]	n/a	catFR1	1	R1235E
1746.823	0.583	1753703	DISTRACT_END	n/a	n/a	n/a	n/a	-999	10	[0, 0, 0]	n/a	catFR1	1	R1235E
1747.406	0.517	1754286	RETRIEVAL_ORIENT	n/a	n/a	n/a	n/a	-999	10	[0, 0, 0]	n/a	catFR1	1	R1235E
1747.923	29.994	1754803	REC_START	n/a	n/a	n/a	n/a	-999	10	[0, 0, 0]	n/a	catFR1	1	R1235E
1777.917	0.014	1784796	REC_WORD_VV	0.014	n/a	<>	n/a	-999	10	[0, 0, 0]	n/a	catFR1	1	R1235E
1777.931	142.321	1784810	REC_END	n/a	n/a	n/a	n/a	-999	10	[0, 0, 0]	n/a	catFR1	1	R1235E
1920.252	0.5	1927126	TRIAL	n/a	n/a	n/a	n/a	-999	11	[0, 0, 0]	n/a	catFR1	1	R1235E
1920.752	10.428	1927626	COUNTDOWN_START	n/a	n/a	n/a	n/a	-999	11	[0, 0, 0]	n/a	catFR1	1	R1235E
1931.18	0.008	1938053	COUNTDOWN_END	n/a	n/a	n/a	n/a	-999	11	[0, 0, 0]	n/a	catFR1	1	R1235E
1931.188	1.617	1938061	ORIENT	n/a	n/a	n/a	n/a	-999	11	[0, 0, 0]	n/a	catFR1	1	R1235E
1932.805	2.316	1939678	ORIENT_OFF	n/a	n/a	n/a	n/a	-999	11	[0, 0, 0]	n/a	catFR1	1	R1235E
1935.121	1.601	1941994	WORD	n/a	wordpools/wordpool_categorized_EN.txt	BUS	Vehicles	1	11	[0, 0, 0]	n/a	catFR1	1	R1235E
1936.722	0.884	1943595	WORD_OFF	n/a	n/a	BUS	n/a	1	11	[0, 0, 0]	n/a	catFR1	1	R1235E
1937.606	1.616	1944479	WORD	n/a	wordpools/wordpool_categorized_EN.txt	TRUCK	Vehicles	2	11	[0, 0, 0]	n/a	catFR1	1	R1235E
1939.222	0.9	1946095	WORD_OFF	n/a	n/a	TRUCK	n/a	2	11	[0, 0, 0]	n/a	catFR1	1	R1235E
1940.122	1.618	1946995	WORD	n/a	wordpools/wordpool_categorized_EN.txt	BEER	Beverages	3	11	[0, 0, 0]	n/a	catFR1	1	R1235E
1941.74	0.984	1948613	WORD_OFF	n/a	n/a	BEER	n/a	3	11	[0, 0, 0]	n/a	catFR1	1	R1235E
1942.724	1.616	1949597	WORD	n/a	wordpools/wordpool_categorized_EN.txt	MILK	Beverages	4	11	[0, 0, 0]	n/a	catFR1	1	R1235E
1944.34	0.917	1951213	WORD_OFF	n/a	n/a	MILK	n/a	4	11	[0, 0, 0]	n/a	catFR1	1	R1235E
1945.257	1.618	1952130	WORD	n/a	wordpools/wordpool_categorized_EN.txt	CORN	Vegetables	5	11	[0, 0, 0]	n/a	catFR1	1	R1235E
1946.875	0.9	1953748	WORD_OFF	n/a	n/a	CORN	n/a	5	11	[0, 0, 0]	n/a	catFR1	1	R1235E
1947.775	1.616	1954647	WORD	n/a	wordpools/wordpool_categorized_EN.txt	CELERY	Vegetables	6	11	[0, 0, 0]	n/a	catFR1	1	R1235E
1949.391	0.883	1956263	WORD_OFF	n/a	n/a	CELERY	n/a	6	11	[0, 0, 0]	n/a	catFR1	1	R1235E
1950.274	1.617	1957146	WORD	n/a	wordpools/wordpool_categorized_EN.txt	TRAIN	Vehicles	7	11	[0, 0, 0]	n/a	catFR1	1	R1235E
1951.891	0.818	1958763	WORD_OFF	n/a	n/a	TRAIN	n/a	7	11	[0, 0, 0]	n/a	catFR1	1	R1235E
1952.709	1.616	1959581	WORD	n/a	wordpools/wordpool_categorized_EN.txt	BOAT	Vehicles	8	11	[0, 0, 0]	n/a	catFR1	1	R1235E
1954.325	0.833	1961197	WORD_OFF	n/a	n/a	BOAT	n/a	8	11	[0, 0, 0]	n/a	catFR1	1	R1235E
1955.158	1.618	1962030	WORD	n/a	wordpools/wordpool_categorized_EN.txt	SODA	Beverages	9	11	[0, 0, 0]	n/a	catFR1	1	R1235E
1956.776	0.934	1963648	WORD_OFF	n/a	n/a	SODA	n/a	9	11	[0, 0, 0]	n/a	catFR1	1	R1235E
1957.71	1.616	1964582	WORD	n/a	wordpools/wordpool_categorized_EN.txt	CIDER	Beverages	10	11	[0, 0, 0]	n/a	catFR1	1	R1235E
1959.326	0.967	1966198	WORD_OFF	n/a	n/a	CIDER	n/a	10	11	[0, 0, 0]	n/a	catFR1	1	R1235E
1960.293	1.617	1967165	WORD	n/a	wordpools/wordpool_categorized_EN.txt	LETTUCE	Vegetables	11	11	[0, 0, 0]	n/a	catFR1	1	R1235E
1961.91	0.817	1968782	WORD_OFF	n/a	n/a	LETTUCE	n/a	11	11	[0, 0, 0]	n/a	catFR1	1	R1235E
1962.727	1.616	1969599	WORD	n/a	wordpools/wordpool_categorized_EN.txt	BROCCOLI	Vegetables	12	11	[0, 0, 0]	n/a	catFR1	1	R1235E
1964.343	0.0	1971215	ENCODING_END	n/a	n/a	n/a	n/a	-999	11	[0, 0, 0]	n/a	catFR1	1	R1235E
1964.343	0.134	1971215	WORD_OFF	n/a	n/a	BROCCOLI	n/a	12	11	[0, 0, 0]	n/a	catFR1	1	R1235E
1964.477	0.0	1971349	DISTRACT_START	n/a	n/a	n/a	n/a	-999	11	[0, 0, 0]	n/a	catFR1	1	R1235E
1964.477	0.017	1971349	START	n/a	n/a	n/a	n/a	-999	11	[-999, -999, -999]	n/a	catFR1	1	R1235E
1964.494	53.263	1971366	PROB	53.263	n/a	n/a	n/a	-999	11	[8, 5, 8]	21	catFR1	1	R1235E
2017.757	0.014	2024627	STOP	n/a	n/a	n/a	n/a	-999	11	[-999, -999, -999]	n/a	catFR1	1	R1235E
2017.771	0.649	2024641	DISTRACT_END	n/a	n/a	n/a	n/a	-999	11	[0, 0, 0]	n/a	catFR1	1	R1235E
2018.42	0.517	2025290	RETRIEVAL_ORIENT	n/a	n/a	n/a	n/a	-999	11	[0, 0, 0]	n/a	catFR1	1	R1235E
2018.937	4.729	2025807	REC_START	n/a	n/a	n/a	n/a	-999	11	[0, 0, 0]	n/a	catFR1	1	R1235E
2023.666	1.185	2030536	REC_WORD	1.185	n/a	BOAT	Vehicles	8	11	[0, 0, 0]	n/a	catFR1	1	R1235E
2024.851	10.777	2031721	REC_WORD	10.777	n/a	CELERY	Vegetables	6	11	[0, 0, 0]	n/a	catFR1	1	R1235E
2035.628	8.132	2042497	REC_WORD	8.132	n/a	CAKE	n/a	-999	11	[0, 0, 0]	n/a	catFR1	1	R1235E
2043.76	5.185	2050629	REC_WORD	5.185	n/a	FIRE	n/a	-999	11	[0, 0, 0]	n/a	catFR1	1	R1235E
2048.945	17.099	2055814	REC_END	n/a	n/a	n/a	n/a	-999	11	[0, 0, 0]	n/a	catFR1	1	R1235E
2066.044	0.5	2072912	TRIAL	n/a	n/a	n/a	n/a	-999	12	[0, 0, 0]	n/a	catFR1	1	R1235E
2066.544	10.428	2073412	COUNTDOWN_START	n/a	n/a	n/a	n/a	-999	12	[0, 0, 0]	n/a	catFR1	1	R1235E
2076.972	0.008	2083840	COUNTDOWN_END	n/a	n/a	n/a	n/a	-999	12	[0, 0, 0]	n/a	catFR1	1	R1235E
2076.98	1.618	2083848	ORIENT	n/a	n/a	n/a	n/a	-999	12	[0, 0, 0]	n/a	catFR1	1	R1235E
2078.598	1.917	2085465	ORIENT_OFF	n/a	n/a	n/a	n/a	-999	12	[0, 0, 0]	n/a	catFR1	1	R1235E
2080.515	1.616	2087382	WORD	n/a	wordpools/wordpool_categorized_EN.txt	MOUSSE	Desserts	1	12	[0, 0, 0]	n/a	catFR1	1	R1235E
2082.131	0.899	2088998	WORD_OFF	n/a	n/a	MOUSSE	n/a	1	12	[0, 0, 0]	n/a	catFR1	1	R1235E
2083.03	1.602	2089897	WORD	n/a	wordpools/wordpool_categorized_EN.txt	PUDDING	Desserts	2	12	[0, 0, 0]	n/a	catFR1	1	R1235E
2084.632	0.95	2091499	WORD_OFF	n/a	n/a	PUDDING	n/a	2	12	[0, 0, 0]	n/a	catFR1	1	R1235E
2085.582	1.616	2092449	WORD	n/a	wordpools/wordpool_categorized_EN.txt	STOVE	Appliances	3	12	[0, 0, 0]	n/a	catFR1	1	R1235E
2087.198	1.0	2094065	WORD_OFF	n/a	n/a	STOVE	n/a	3	12	[0, 0, 0]	n/a	catFR1	1	R1235E
2088.198	1.602	2095065	WORD	n/a	wordpools/wordpool_categorized_EN.txt	DRYER	Appliances	4	12	[0, 0, 0]	n/a	catFR1	1	R1235E
2089.8	0.933	2096667	WORD_OFF	n/a	n/a	DRYER	n/a	4	12	[0, 0, 0]	n/a	catFR1	1	R1235E
2090.733	1.616	2097600	WORD	n/a	wordpools/wordpool_categorized_EN.txt	GIRAFFE	Zoo	5	12	[0, 0, 0]	n/a	catFR1	1	R1235E
2092.349	0.834	2099216	WORD_OFF	n/a	n/a	GIRAFFE	n/a	5	12	[0, 0, 0]	n/a	catFR1	1	R1235E
2093.183	1.618	2100050	WORD	n/a	wordpools/wordpool_categorized_EN.txt	CHIMPANZEE	Zoo	6	12	[0, 0, 0]	n/a	catFR1	1	R1235E
2094.801	1.0	2101668	WORD_OFF	n/a	n/a	CHIMPANZEE	n/a	6	12	[0, 0, 0]	n/a	catFR1	1	R1235E
2095.801	1.617	2102668	WORD	n/a	wordpools/wordpool_categorized_EN.txt	MIXER	Appliances	7	12	[0, 0, 0]	n/a	catFR1	1	R1235E
2097.418	0.782	2104285	WORD_OFF	n/a	n/a	MIXER	n/a	7	12	[0, 0, 0]	n/a	catFR1	1	R1235E
2098.2	1.618	2105067	WORD	n/a	wordpools/wordpool_categorized_EN.txt	REFRIGERATOR	Appliances	8	12	[0, 0, 0]	n/a	catFR1	1	R1235E
2099.818	0.783	2106685	WORD_OFF	n/a	n/a	REFRIGERATOR	n/a	8	12	[0, 0, 0]	n/a	catFR1	1	R1235E
2100.601	1.616	2107468	WORD	n/a	wordpools/wordpool_categorized_EN.txt	CHEESECAKE	Desserts	9	12	[0, 0, 0]	n/a	catFR1	1	R1235E
2102.217	0.834	2109084	WORD_OFF	n/a	n/a	CHEESECAKE	n/a	9	12	[0, 0, 0]	n/a	catFR1	1	R1235E
2103.051	1.601	2109918	WORD	n/a	wordpools/wordpool_categorized_EN.txt	JELLO	Desserts	10	12	[0, 0, 0]	n/a	catFR1	1	R1235E
2104.652	0.767	2111518	WORD_OFF	n/a	n/a	JELLO	n/a	10	12	[0, 0, 0]	n/a	catFR1	1	R1235E
2105.419	1.616	2112285	WORD	n/a	wordpools/wordpool_categorized_EN.txt	ZEBRA	Zoo	11	12	[0, 0, 0]	n/a	catFR1	1	R1235E
2107.035	0.834	2113901	WORD_OFF	n/a	n/a	ZEBRA	n/a	11	12	[0, 0, 0]	n/a	catFR1	1	R1235E
2107.869	1.617	2114735	WORD	n/a	wordpools/wordpool_categorized_EN.txt	MONKEY	Zoo	12	12	[0, 0, 0]	n/a	catFR1	1	R1235E
2109.486	0.001	2116352	WORD_OFF	n/a	n/a	MONKEY	n/a	12	12	[0, 0, 0]	n/a	catFR1	1	R1235E
2109.487	0.17	2116353	ENCODING_END	n/a	n/a	n/a	n/a	-999	12	[0, 0, 0]	n/a	catFR1	1	R1235E
2109.657	0.0	2116523	DISTRACT_START	n/a	n/a	n/a	n/a	-999	12	[0, 0, 0]	n/a	catFR1	1	R1235E
2109.657	0.013	2116523	START	n/a	n/a	n/a	n/a	-999	12	[-999, -999, -999]	n/a	catFR1	1	R1235E
2109.67	57.426	2116536	PROB	57.426	n/a	n/a	n/a	-999	12	[5, 5, 7]	17	catFR1	1	R1235E
2167.096	0.016	2173960	STOP	n/a	n/a	n/a	n/a	-999	12	[-999, -999, -999]	n/a	catFR1	1	R1235E
2167.112	0.518	2173976	DISTRACT_END	n/a	n/a	n/a	n/a	-999	12	[0, 0, 0]	n/a	catFR1	1	R1235E
2167.63	0.517	2174494	RETRIEVAL_ORIENT	n/a	n/a	n/a	n/a	-999	12	[0, 0, 0]	n/a	catFR1	1	R1235E
2168.147	4.163	2175011	REC_START	n/a	n/a	n/a	n/a	-999	12	[0, 0, 0]	n/a	catFR1	1	R1235E
2172.31	25.845	2179174	REC_WORD	25.845	n/a	CHEESECAKE	Desserts	9	12	[0, 0, 0]	n/a	catFR1	1	R1235E
2198.155	80.394	2205018	REC_END	n/a	n/a	n/a	n/a	-999	12	[0, 0, 0]	n/a	catFR1	1	R1235E
2278.549	0.5	2285409	TRIAL	n/a	n/a	n/a	n/a	-999	13	[0, 0, 0]	n/a	catFR1	1	R1235E
2279.049	10.428	2285909	COUNTDOWN_START	n/a	n/a	n/a	n/a	-999	13	[0, 0, 0]	n/a	catFR1	1	R1235E
2289.477	0.008	2296336	COUNTDOWN_END	n/a	n/a	n/a	n/a	-999	13	[0, 0, 0]	n/a	catFR1	1	R1235E
2289.485	1.616	2296344	ORIENT	n/a	n/a	n/a	n/a	-999	13	[0, 0, 0]	n/a	catFR1	1	R1235E
2291.101	2.351	2297960	ORIENT_OFF	n/a	n/a	n/a	n/a	-999	13	[0, 0, 0]	n/a	catFR1	1	R1235E
2293.452	1.616	2300311	WORD	n/a	wordpools/wordpool_categorized_EN.txt	DOLLHOUSE	Toys	1	13	[0, 0, 0]	n/a	catFR1	1	R1235E
2295.068	0.983	2301927	WORD_OFF	n/a	n/a	DOLLHOUSE	n/a	1	13	[0, 0, 0]	n/a	catFR1	1	R1235E
2296.051	1.601	2302910	WORD	n/a	wordpools/wordpool_categorized_EN.txt	SLINKY	Toys	2	13	[0, 0, 0]	n/a	catFR1	1	R1235E
2297.652	0.834	2304511	WORD_OFF	n/a	n/a	SLINKY	n/a	2	13	[0, 0, 0]	n/a	catFR1	1	R1235E
2298.486	1.616	2305345	WORD	n/a	wordpools/wordpool_categorized_EN.txt	WILLOW	Trees	3	13	[0, 0, 0]	n/a	catFR1	1	R1235E
2300.102	0.917	2306961	WORD_OFF	n/a	n/a	WILLOW	n/a	3	13	[0, 0, 0]	n/a	catFR1	1	R1235E
2301.019	1.618	2307878	WORD	n/a	wordpools/wordpool_categorized_EN.txt	WALNUT	Trees	4	13	[0, 0, 0]	n/a	catFR1	1	R1235E
2302.637	0.967	2309496	WORD_OFF	n/a	n/a	WALNUT	n/a	4	13	[0, 0, 0]	n/a	catFR1	1	R1235E
2303.604	1.616	2310463	WORD	n/a	wordpools/wordpool_categorized_EN.txt	JEANS	Clothing	5	13	[0, 0, 0]	n/a	catFR1	1	R1235E
2305.22	0.95	2312079	WORD_OFF	n/a	n/a	JEANS	n/a	5	13	[0, 0, 0]	n/a	catFR1	1	R1235E
2306.17	1.618	2313029	WORD	n/a	wordpools/wordpool_categorized_EN.txt	SHOES	Clothing	6	13	[0, 0, 0]	n/a	catFR1	1	R1235E
2307.788	0.983	2314647	WORD_OFF	n/a	n/a	SHOES	n/a	6	13	[0, 0, 0]	n/a	catFR1	1	R1235E
2308.771	1.616	2315630	WORD	n/a	wordpools/wordpool_categorized_EN.txt	CYPRESS	Trees	7	13	[0, 0, 0]	n/a	catFR1	1	R1235E
2310.387	0.867	2317246	WORD_OFF	n/a	n/a	CYPRESS	n/a	7	13	[0, 0, 0]	n/a	catFR1	1	R1235E
2311.254	1.618	2318112	WORD	n/a	wordpools/wordpool_categorized_EN.txt	HICKORY	Trees	8	13	[0, 0, 0]	n/a	catFR1	1	R1235E
2312.872	0.817	2319730	WORD_OFF	n/a	n/a	HICKORY	n/a	8	13	[0, 0, 0]	n/a	catFR1	1	R1235E
2313.689	1.616	2320547	WORD	n/a	wordpools/wordpool_categorized_EN.txt	BASEBALL	Toys	9	13	[0, 0, 0]	n/a	catFR1	1	R1235E
2315.305	0.967	2322163	WORD_OFF	n/a	n/a	BASEBALL	n/a	9	13	[0, 0, 0]	n/a	catFR1	1	R1235E
2316.272	1.617	2323130	WORD	n/a	wordpools/wordpool_categorized_EN.txt	DOLL	Toys	10	13	[0, 0, 0]	n/a	catFR1	1	R1235E
2317.889	0.968	2324747	WORD_OFF	n/a	n/a	DOLL	n/a	10	13	[0, 0, 0]	n/a	catFR1	1	R1235E
2318.857	1.616	2325715	WORD	n/a	wordpools/wordpool_categorized_EN.txt	JACKET	Clothing	11	13	[0, 0, 0]	n/a	catFR1	1	R1235E
2320.473	0.866	2327331	WORD_OFF	n/a	n/a	JACKET	n/a	11	13	[0, 0, 0]	n/a	catFR1	1	R1235E
2321.339	1.617	2328197	WORD	n/a	wordpools/wordpool_categorized_EN.txt	PANTS	Clothing	12	13	[0, 0, 0]	n/a	catFR1	1	R1235E
2322.956	0.001	2329814	WORD_OFF	n/a	n/a	PANTS	n/a	12	13	[0, 0, 0]	n/a	catFR1	1	R1235E
2322.957	0.131	2329815	ENCODING_END	n/a	n/a	n/a	n/a	-999	13	[0, 0, 0]	n/a	catFR1	1	R1235E
2323.088	0.0	2329946	DISTRACT_START	n/a	n/a	n/a	n/a	-999	13	[0, 0, 0]	n/a	catFR1	1	R1235E
2323.088	0.018	2329946	START	n/a	n/a	n/a	n/a	-999	13	[-999, -999, -999]	n/a	catFR1	1	R1235E
2323.106	66.769	2329964	PROB	66.769	n/a	n/a	n/a	-999	13	[4, 7, 4]	15	catFR1	1	R1235E
2389.875	0.01	2396730	STOP	n/a	n/a	n/a	n/a	-999	13	[-999, -999, -999]	n/a	catFR1	1	R1235E
2389.885	0.617	2396740	DISTRACT_END	n/a	n/a	n/a	n/a	-999	13	[0, 0, 0]	n/a	catFR1	1	R1235E
2390.502	0.517	2397357	RETRIEVAL_ORIENT	n/a	n/a	n/a	n/a	-999	13	[0, 0, 0]	n/a	catFR1	1	R1235E
2391.019	0.864	2397874	REC_START	n/a	n/a	n/a	n/a	-999	13	[0, 0, 0]	n/a	catFR1	1	R1235E
2391.883	2.199	2398738	REC_WORD_VV	2.199	n/a	<>	n/a	-999	13	[0, 0, 0]	n/a	catFR1	1	R1235E
2394.082	0.999	2400937	REC_WORD	0.999	n/a	SLINKY	Toys	2	13	[0, 0, 0]	n/a	catFR1	1	R1235E
2395.081	5.657	2401936	REC_WORD	5.657	n/a	DOLLHOUSE	Toys	1	13	[0, 0, 0]	n/a	catFR1	1	R1235E
2400.738	2.92	2407593	REC_WORD	2.92	n/a	JEANS	Clothing	5	13	[0, 0, 0]	n/a	catFR1	1	R1235E
2403.658	17.369	2410513	REC_WORD	17.369	n/a	PANTS	Clothing	12	13	[0, 0, 0]	n/a	catFR1	1	R1235E
2421.027	9.732	2427881	REC_END	n/a	n/a	n/a	n/a	-999	13	[0, 0, 0]	n/a	catFR1	1	R1235E
2430.759	0.5	2437613	TRIAL	n/a	n/a	n/a	n/a	-999	14	[0, 0, 0]	n/a	catFR1	1	R1235E
2431.259	10.428	2438113	COUNTDOWN_START	n/a	n/a	n/a	n/a	-999	14	[0, 0, 0]	n/a	catFR1	1	R1235E
2441.687	0.008	2448540	COUNTDOWN_END	n/a	n/a	n/a	n/a	-999	14	[0, 0, 0]	n/a	catFR1	1	R1235E
2441.695	1.616	2448548	ORIENT	n/a	n/a	n/a	n/a	-999	14	[0, 0, 0]	n/a	catFR1	1	R1235E
2443.311	2.301	2450164	ORIENT_OFF	n/a	n/a	n/a	n/a	-999	14	[0, 0, 0]	n/a	catFR1	1	R1235E
2445.612	1.616	2452465	WORD	n/a	wordpools/wordpool_categorized_EN.txt	BANANA	Fruit	1	14	[0, 0, 0]	n/a	catFR1	1	R1235E
2447.228	0.933	2454081	WORD_OFF	n/a	n/a	BANANA	n/a	1	14	[0, 0, 0]	n/a	catFR1	1	R1235E
2448.161	1.602	2455014	WORD	n/a	wordpools/wordpool_categorized_EN.txt	PEACH	Fruit	2	14	[0, 0, 0]	n/a	catFR1	1	R1235E
2449.763	0.95	2456616	WORD_OFF	n/a	n/a	PEACH	n/a	2	14	[0, 0, 0]	n/a	catFR1	1	R1235E
2450.713	1.616	2457566	WORD	n/a	wordpools/wordpool_categorized_EN.txt	EYE	BodyParts	3	14	[0, 0, 0]	n/a	catFR1	1	R1235E
2452.329	0.783	2459182	WORD_OFF	n/a	n/a	EYE	n/a	3	14	[0, 0, 0]	n/a	catFR1	1	R1235E
2453.112	1.618	2459965	WORD	n/a	wordpools/wordpool_categorized_EN.txt	NOSE	BodyParts	4	14	[0, 0, 0]	n/a	catFR1	1	R1235E
2454.73	0.834	2461583	WORD_OFF	n/a	n/a	NOSE	n/a	4	14	[0, 0, 0]	n/a	catFR1	1	R1235E
2455.564	1.616	2462417	WORD	n/a	wordpools/wordpool_categorized_EN.txt	WALL	Building	5	14	[0, 0, 0]	n/a	catFR1	1	R1235E
2457.18	0.967	2464033	WORD_OFF	n/a	n/a	WALL	n/a	5	14	[0, 0, 0]	n/a	catFR1	1	R1235E
2458.147	1.618	2465000	WORD	n/a	wordpools/wordpool_categorized_EN.txt	HALLWAY	Building	6	14	[0, 0, 0]	n/a	catFR1	1	R1235E
2459.765	0.8	2466618	WORD_OFF	n/a	n/a	HALLWAY	n/a	6	14	[0, 0, 0]	n/a	catFR1	1	R1235E
2460.565	1.616	2467418	WORD	n/a	wordpools/wordpool_categorized_EN.txt	FINGERS	BodyParts	7	14	[0, 0, 0]	n/a	catFR1	1	R1235E
2462.181	0.916	2469034	WORD_OFF	n/a	n/a	FINGERS	n/a	7	14	[0, 0, 0]	n/a	catFR1	1	R1235E
2463.097	1.619	2469950	WORD	n/a	wordpools/wordpool_categorized_EN.txt	FOOT	BodyParts	8	14	[0, 0, 0]	n/a	catFR1	1	R1235E
2464.716	0.9	2471569	WORD_OFF	n/a	n/a	FOOT	n/a	8	14	[0, 0, 0]	n/a	catFR1	1	R1235E
2465.616	1.616	2472469	WORD	n/a	wordpools/wordpool_categorized_EN.txt	LIME	Fruit	9	14	[0, 0, 0]	n/a	catFR1	1	R1235E
2467.232	0.866	2474084	WORD_OFF	n/a	n/a	LIME	n/a	9	14	[0, 0, 0]	n/a	catFR1	1	R1235E
2468.098	1.618	2474950	WORD	n/a	wordpools/wordpool_categorized_EN.txt	PLUM	Fruit	10	14	[0, 0, 0]	n/a	catFR1	1	R1235E
2469.716	0.984	2476568	WORD_OFF	n/a	n/a	PLUM	n/a	10	14	[0, 0, 0]	n/a	catFR1	1	R1235E
2470.7	1.616	2477552	WORD	n/a	wordpools/wordpool_categorized_EN.txt	CEILING	Building	11	14	[0, 0, 0]	n/a	catFR1	1	R1235E
2472.316	0.883	2479168	WORD_OFF	n/a	n/a	CEILING	n/a	11	14	[0, 0, 0]	n/a	catFR1	1	R1235E
2473.199	1.618	2480051	WORD	n/a	wordpools/wordpool_categorized_EN.txt	ROOM	Building	12	14	[0, 0, 0]	n/a	catFR1	1	R1235E
2474.817	0.0	2481669	ENCODING_END	n/a	n/a	n/a	n/a	-999	14	[0, 0, 0]	n/a	catFR1	1	R1235E
2474.817	0.13	2481669	WORD_OFF	n/a	n/a	ROOM	n/a	12	14	[0, 0, 0]	n/a	catFR1	1	R1235E
2474.947	0.001	2481799	DISTRACT_START	n/a	n/a	n/a	n/a	-999	14	[0, 0, 0]	n/a	catFR1	1	R1235E
2474.948	0.018	2481800	START	n/a	n/a	n/a	n/a	-999	14	[-999, -999, -999]	n/a	catFR1	1	R1235E
2474.966	92.918	2481818	PROB	92.918	n/a	n/a	n/a	-999	14	[8, 2, 3]	13	catFR1	1	R1235E
2567.884	0.015	2574733	STOP	n/a	n/a	n/a	n/a	-999	14	[-999, -999, -999]	n/a	catFR1	1	R1235E
2567.899	0.601	2574748	DISTRACT_END	n/a	n/a	n/a	n/a	-999	14	[0, 0, 0]	n/a	catFR1	1	R1235E
2568.5	0.517	2575349	RETRIEVAL_ORIENT	n/a	n/a	n/a	n/a	-999	14	[0, 0, 0]	n/a	catFR1	1	R1235E
2569.017	4.297	2575866	REC_START	n/a	n/a	n/a	n/a	-999	14	[0, 0, 0]	n/a	catFR1	1	R1235E
2573.314	0.875	2580162	REC_WORD	0.875	n/a	BANANA	Fruit	1	14	[0, 0, 0]	n/a	catFR1	1	R1235E
2574.189	24.836	2581037	REC_WORD	24.836	n/a	PLUM	Fruit	10	14	[0, 0, 0]	n/a	catFR1	1	R1235E
2599.025	39.504	2605872	REC_END	n/a	n/a	n/a	n/a	-999	14	[0, 0, 0]	n/a	catFR1	1	R1235E
2638.529	0.5	2645375	TRIAL	n/a	n/a	n/a	n/a	-999	15	[0, 0, 0]	n/a	catFR1	1	R1235E
2639.029	10.428	2645875	COUNTDOWN_START	n/a	n/a	n/a	n/a	-999	15	[0, 0, 0]	n/a	catFR1	1	R1235E
2649.457	0.008	2656302	COUNTDOWN_END	n/a	n/a	n/a	n/a	-999	15	[0, 0, 0]	n/a	catFR1	1	R1235E
2649.465	1.616	2656310	ORIENT	n/a	n/a	n/a	n/a	-999	15	[0, 0, 0]	n/a	catFR1	1	R1235E
2651.081	2.334	2657926	ORIENT_OFF	n/a	n/a	n/a	n/a	-999	15	[0, 0, 0]	n/a	catFR1	1	R1235E
2653.415	1.616	2660260	WORD	n/a	wordpools/wordpool_categorized_EN.txt	PINE	Trees	1	15	[0, 0, 0]	n/a	catFR1	1	R1235E
2655.031	0.934	2661876	WORD_OFF	n/a	n/a	PINE	n/a	1	15	[0, 0, 0]	n/a	catFR1	1	R1235E
2655.965	1.601	2662810	WORD	n/a	wordpools/wordpool_categorized_EN.txt	OAK	Trees	2	15	[0, 0, 0]	n/a	catFR1	1	R1235E
2657.566	0.95	2664411	WORD_OFF	n/a	n/a	OAK	n/a	2	15	[0, 0, 0]	n/a	catFR1	1	R1235E
2658.516	1.616	2665361	WORD	n/a	wordpools/wordpool_categorized_EN.txt	FOLDER	OfficeSupplies	3	15	[0, 0, 0]	n/a	catFR1	1	R1235E
2660.132	0.817	2666977	WORD_OFF	n/a	n/a	FOLDER	n/a	3	15	[0, 0, 0]	n/a	catFR1	1	R1235E
2660.949	1.618	2667794	WORD	n/a	wordpools/wordpool_categorized_EN.txt	BINDER	OfficeSupplies	4	15	[0, 0, 0]	n/a	catFR1	1	R1235E
2662.567	0.85	2669412	WORD_OFF	n/a	n/a	BINDER	n/a	4	15	[0, 0, 0]	n/a	catFR1	1	R1235E
2663.417	1.616	2670262	WORD	n/a	wordpools/wordpool_categorized_EN.txt	RUM	Beverages	5	15	[0, 0, 0]	n/a	catFR1	1	R1235E
2665.033	0.818	2671878	WORD_OFF	n/a	n/a	RUM	n/a	5	15	[0, 0, 0]	n/a	catFR1	1	R1235E
2665.851	1.617	2672696	WORD	n/a	wordpools/wordpool_categorized_EN.txt	WINE	Beverages	6	15	[0, 0, 0]	n/a	catFR1	1	R1235E
2667.468	0.983	2674313	WORD_OFF	n/a	n/a	WINE	n/a	6	15	[0, 0, 0]	n/a	catFR1	1	R1235E
2668.451	1.616	2675296	WORD	n/a	wordpools/wordpool_categorized_EN.txt	MAPLE	Trees	7	15	[0, 0, 0]	n/a	catFR1	1	R1235E
2670.067	0.95	2676912	WORD_OFF	n/a	n/a	MAPLE	n/a	7	15	[0, 0, 0]	n/a	catFR1	1	R1235E
2671.017	1.618	2677862	WORD	n/a	wordpools/wordpool_categorized_EN.txt	EVERGREEN	Trees	8	15	[0, 0, 0]	n/a	catFR1	1	R1235E
2672.635	0.9	2679480	WORD_OFF	n/a	n/a	EVERGREEN	n/a	8	15	[0, 0, 0]	n/a	catFR1	1	R1235E
2673.535	1.616	2680380	WORD	n/a	wordpools/wordpool_categorized_EN.txt	PEN	OfficeSupplies	9	15	[0, 0, 0]	n/a	catFR1	1	R1235E
2675.151	0.951	2681995	WORD_OFF	n/a	n/a	PEN	n/a	9	15	[0, 0, 0]	n/a	catFR1	1	R1235E
2676.102	1.617	2682946	WORD	n/a	wordpools/wordpool_categorized_EN.txt	GLUE	OfficeSupplies	10	15	[0, 0, 0]	n/a	catFR1	1	R1235E
2677.719	0.851	2684563	WORD_OFF	n/a	n/a	GLUE	n/a	10	15	[0, 0, 0]	n/a	catFR1	1	R1235E
2678.57	1.616	2685414	WORD	n/a	wordpools/wordpool_categorized_EN.txt	LEMONADE	Beverages	11	15	[0, 0, 0]	n/a	catFR1	1	R1235E
2680.186	0.933	2687030	WORD_OFF	n/a	n/a	LEMONADE	n/a	11	15	[0, 0, 0]	n/a	catFR1	1	R1235E
2681.119	1.618	2687963	WORD	n/a	wordpools/wordpool_categorized_EN.txt	COFFEE	Beverages	12	15	[0, 0, 0]	n/a	catFR1	1	R1235E
2682.737	0.0	2689581	WORD_OFF	n/a	n/a	COFFEE	n/a	12	15	[0, 0, 0]	n/a	catFR1	1	R1235E
2682.737	0.168	2689581	ENCODING_END	n/a	n/a	n/a	n/a	-999	15	[0, 0, 0]	n/a	catFR1	1	R1235E
2682.905	0.0	2689749	DISTRACT_START	n/a	n/a	n/a	n/a	-999	15	[0, 0, 0]	n/a	catFR1	1	R1235E
2682.905	0.014	2689749	START	n/a	n/a	n/a	n/a	-999	15	[-999, -999, -999]	n/a	catFR1	1	R1235E
2682.919	72.138	2689763	PROB	72.138	n/a	n/a	n/a	-999	15	[9, 7, 1]	17	catFR1	1	R1235E
2755.057	0.009	2761898	STOP	n/a	n/a	n/a	n/a	-999	15	[-999, -999, -999]	n/a	catFR1	1	R1235E
2755.066	0.601	2761907	DISTRACT_END	n/a	n/a	n/a	n/a	-999	15	[0, 0, 0]	n/a	catFR1	1	R1235E
2755.667	0.516	2762508	RETRIEVAL_ORIENT	n/a	n/a	n/a	n/a	-999	15	[0, 0, 0]	n/a	catFR1	1	R1235E
2756.183	0.657	2763024	REC_START	n/a	n/a	n/a	n/a	-999	15	[0, 0, 0]	n/a	catFR1	1	R1235E
2756.84	0.604	2763681	REC_WORD_VV	0.604	n/a	<>	n/a	-999	15	[0, 0, 0]	n/a	catFR1	1	R1235E
2757.444	3.92	2764285	REC_WORD	3.92	n/a	LEMONADE	Beverages	11	15	[0, 0, 0]	n/a	catFR1	1	R1235E
2761.364	1.239	2768205	REC_WORD	1.239	n/a	PEN	OfficeSupplies	9	15	[0, 0, 0]	n/a	catFR1	1	R1235E
2762.603	23.588	2769444	REC_WORD	23.588	n/a	FOREST	n/a	-999	15	[0, 0, 0]	n/a	catFR1	1	R1235E
2786.191	22.668	2793031	REC_END	n/a	n/a	n/a	n/a	-999	15	[0, 0, 0]	n/a	catFR1	1	R1235E
2808.859	0.5	2815698	TRIAL	n/a	n/a	n/a	n/a	-999	16	[0, 0, 0]	n/a	catFR1	1	R1235E
2809.359	10.428	2816198	COUNTDOWN_START	n/a	n/a	n/a	n/a	-999	16	[0, 0, 0]	n/a	catFR1	1	R1235E
2819.787	0.008	2826626	COUNTDOWN_END	n/a	n/a	n/a	n/a	-999	16	[0, 0, 0]	n/a	catFR1	1	R1235E
2819.795	1.616	2826634	ORIENT	n/a	n/a	n/a	n/a	-999	16	[0, 0, 0]	n/a	catFR1	1	R1235E
2821.411	2.034	2828250	ORIENT_OFF	n/a	n/a	n/a	n/a	-999	16	[0, 0, 0]	n/a	catFR1	1	R1235E
2823.445	1.616	2830284	WORD	n/a	wordpools/wordpool_categorized_EN.txt	PEELER	KitchenTools	1	16	[0, 0, 0]	n/a	catFR1	1	R1235E
2825.061	0.867	2831900	WORD_OFF	n/a	n/a	PEELER	n/a	1	16	[0, 0, 0]	n/a	catFR1	1	R1235E
2825.928	1.618	2832767	WORD	n/a	wordpools/wordpool_categorized_EN.txt	TONGS	KitchenTools	2	16	[0, 0, 0]	n/a	catFR1	1	R1235E
2827.546	0.983	2834385	WORD_OFF	n/a	n/a	TONGS	n/a	2	16	[0, 0, 0]	n/a	catFR1	1	R1235E
2828.529	1.616	2835368	WORD	n/a	wordpools/wordpool_categorized_EN.txt	MARBLES	Toys	3	16	[0, 0, 0]	n/a	catFR1	1	R1235E
2830.145	0.834	2836983	WORD_OFF	n/a	n/a	MARBLES	n/a	3	16	[0, 0, 0]	n/a	catFR1	1	R1235E
2830.979	1.618	2837817	WORD	n/a	wordpools/wordpool_categorized_EN.txt	BASKETBALL	Toys	4	16	[0, 0, 0]	n/a	catFR1	1	R1235E
2832.597	0.883	2839435	WORD_OFF	n/a	n/a	BASKETBALL	n/a	4	16	[0, 0, 0]	n/a	catFR1	1	R1235E
2833.48	1.616	2840318	WORD	n/a	wordpools/wordpool_categorized_EN.txt	ONION	Vegetables	5	16	[0, 0, 0]	n/a	catFR1	1	R1235E
2835.096	0.867	2841934	WORD_OFF	n/a	n/a	ONION	n/a	5	16	[0, 0, 0]	n/a	catFR1	1	R1235E
2835.963	1.618	2842801	WORD	n/a	wordpools/wordpool_categorized_EN.txt	CAULIFLOWER	Vegetables	6	16	[0, 0, 0]	n/a	catFR1	1	R1235E
2837.581	0.833	2844419	WORD_OFF	n/a	n/a	CAULIFLOWER	n/a	6	16	[0, 0, 0]	n/a	catFR1	1	R1235E
2838.414	1.616	2845252	WORD	n/a	wordpools/wordpool_categorized_EN.txt	FOOTBALL	Toys	7	16	[0, 0, 0]	n/a	catFR1	1	R1235E
2840.03	0.818	2846868	WORD_OFF	n/a	n/a	FOOTBALL	n/a	7	16	[0, 0, 0]	n/a	catFR1	1	R1235E
2840.848	1.617	2847686	WORD	n/a	wordpools/wordpool_categorized_EN.txt	BLOCKS	Toys	8	16	[0, 0, 0]	n/a	catFR1	1	R1235E
2842.465	0.984	2849303	WORD_OFF	n/a	n/a	BLOCKS	n/a	8	16	[0, 0, 0]	n/a	catFR1	1	R1235E
2843.449	1.616	2850287	WORD	n/a	wordpools/wordpool_categorized_EN.txt	GRATER	KitchenTools	9	16	[0, 0, 0]	n/a	catFR1	1	R1235E
2845.065	0.983	2851903	WORD_OFF	n/a	n/a	GRATER	n/a	9	16	[0, 0, 0]	n/a	catFR1	1	R1235E
2846.048	1.618	2852886	WORD	n/a	wordpools/wordpool_categorized_EN.txt	SPOON	KitchenTools	10	16	[0, 0, 0]	n/a	catFR1	1	R1235E
2847.666	0.867	2854504	WORD_OFF	n/a	n/a	SPOON	n/a	10	16	[0, 0, 0]	n/a	catFR1	1	R1235E
2848.533	1.616	2855371	WORD	n/a	wordpools/wordpool_categorized_EN.txt	PEAS	Vegetables	11	16	[0, 0, 0]	n/a	catFR1	1	R1235E
2850.149	0.783	2856987	WORD_OFF	n/a	n/a	PEAS	n/a	11	16	[0, 0, 0]	n/a	catFR1	1	R1235E
2850.932	1.618	2857770	WORD	n/a	wordpools/wordpool_categorized_EN.txt	SPINACH	Vegetables	12	16	[0, 0, 0]	n/a	catFR1	1	R1235E
2852.55	0.001	2859388	WORD_OFF	n/a	n/a	SPINACH	n/a	12	16	[0, 0, 0]	n/a	catFR1	1	R1235E
2852.551	0.134	2859389	ENCODING_END	n/a	n/a	n/a	n/a	-999	16	[0, 0, 0]	n/a	catFR1	1	R1235E
2852.685	0.0	2859523	DISTRACT_START	n/a	n/a	n/a	n/a	-999	16	[0, 0, 0]	n/a	catFR1	1	R1235E
2852.685	0.015	2859523	START	n/a	n/a	n/a	n/a	-999	16	[-999, -999, -999]	n/a	catFR1	1	R1235E
2852.7	78.878	2859538	PROB	78.878	n/a	n/a	n/a	-999	16	[7, 1, 1]	9	catFR1	1	R1235E
2931.578	0.02	2938413	STOP	n/a	n/a	n/a	n/a	-999	16	[-999, -999, -999]	n/a	catFR1	1	R1235E
2931.598	0.682	2938433	DISTRACT_END	n/a	n/a	n/a	n/a	-999	16	[0, 0, 0]	n/a	catFR1	1	R1235E
2932.28	0.518	2939115	RETRIEVAL_ORIENT	n/a	n/a	n/a	n/a	-999	16	[0, 0, 0]	n/a	catFR1	1	R1235E
2932.798	1.222	2939633	REC_START	n/a	n/a	n/a	n/a	-999	16	[0, 0, 0]	n/a	catFR1	1	R1235E
2934.02	4.247	2940854	REC_WORD	4.247	n/a	PEELER	KitchenTools	1	16	[0, 0, 0]	n/a	catFR1	1	R1235E
2938.267	1.211	2945101	REC_WORD	1.211	n/a	ONION	Vegetables	5	16	[0, 0, 0]	n/a	catFR1	1	R1235E
2939.478	23.329	2946312	REC_WORD	23.329	n/a	TONGS	KitchenTools	2	16	[0, 0, 0]	n/a	catFR1	1	R1235E
2962.807	33.652	2969640	REC_END	n/a	n/a	n/a	n/a	-999	16	[0, 0, 0]	n/a	catFR1	1	R1235E
2996.459	0.5	3003291	TRIAL	n/a	n/a	n/a	n/a	-999	17	[0, 0, 0]	n/a	catFR1	1	R1235E
2996.959	10.428	3003791	COUNTDOWN_START	n/a	n/a	n/a	n/a	-999	17	[0, 0, 0]	n/a	catFR1	1	R1235E
3007.387	0.006	3014219	COUNTDOWN_END	n/a	n/a	n/a	n/a	-999	17	[0, 0, 0]	n/a	catFR1	1	R1235E
3007.393	1.617	3014225	ORIENT	n/a	n/a	n/a	n/a	-999	17	[0, 0, 0]	n/a	catFR1	1	R1235E
3009.01	1.967	3015842	ORIENT_OFF	n/a	n/a	n/a	n/a	-999	17	[0, 0, 0]	n/a	catFR1	1	R1235E
3010.977	1.601	3017808	WORD	n/a	wordpools/wordpool_categorized_EN.txt	CELLO	Instruments	1	17	[0, 0, 0]	n/a	catFR1	1	R1235E
3012.578	0.951	3019409	WORD_OFF	n/a	n/a	CELLO	n/a	1	17	[0, 0, 0]	n/a	catFR1	1	R1235E
3013.529	1.615	3020360	WORD	n/a	wordpools/wordpool_categorized_EN.txt	VIOLIN	Instruments	2	17	[0, 0, 0]	n/a	catFR1	1	R1235E
3015.144	0.834	3021975	WORD_OFF	n/a	n/a	VIOLIN	n/a	2	17	[0, 0, 0]	n/a	catFR1	1	R1235E
3015.978	1.618	3022809	WORD	n/a	wordpools/wordpool_categorized_EN.txt	PLANE	Vehicles	3	17	[0, 0, 0]	n/a	catFR1	1	R1235E
3017.596	0.817	3024427	WORD_OFF	n/a	n/a	PLANE	n/a	3	17	[0, 0, 0]	n/a	catFR1	1	R1235E
3018.413	1.616	3025244	WORD	n/a	wordpools/wordpool_categorized_EN.txt	CAR	Vehicles	4	17	[0, 0, 0]	n/a	catFR1	1	R1235E
3020.029	0.85	3026860	WORD_OFF	n/a	n/a	CAR	n/a	4	17	[0, 0, 0]	n/a	catFR1	1	R1235E
3020.879	1.618	3027710	WORD	n/a	wordpools/wordpool_categorized_EN.txt	STAIRS	Building	5	17	[0, 0, 0]	n/a	catFR1	1	R1235E
3022.497	0.832	3029328	WORD_OFF	n/a	n/a	STAIRS	n/a	5	17	[0, 0, 0]	n/a	catFR1	1	R1235E
3023.329	1.617	3030160	WORD	n/a	wordpools/wordpool_categorized_EN.txt	ROOF	Building	6	17	[0, 0, 0]	n/a	catFR1	1	R1235E
3024.946	0.95	3031777	WORD_OFF	n/a	n/a	ROOF	n/a	6	17	[0, 0, 0]	n/a	catFR1	1	R1235E
3025.896	1.618	3032727	WORD	n/a	wordpools/wordpool_categorized_EN.txt	SCOOTER	Vehicles	7	17	[0, 0, 0]	n/a	catFR1	1	R1235E
3027.514	0.917	3034345	WORD_OFF	n/a	n/a	SCOOTER	n/a	7	17	[0, 0, 0]	n/a	catFR1	1	R1235E
3028.431	1.616	3035262	WORD	n/a	wordpools/wordpool_categorized_EN.txt	MOTORCYCLE	Vehicles	8	17	[0, 0, 0]	n/a	catFR1	1	R1235E
3030.047	0.967	3036878	WORD_OFF	n/a	n/a	MOTORCYCLE	n/a	8	17	[0, 0, 0]	n/a	catFR1	1	R1235E
3031.014	1.618	3037845	WORD	n/a	wordpools/wordpool_categorized_EN.txt	GUITAR	Instruments	9	17	[0, 0, 0]	n/a	catFR1	1	R1235E
3032.632	0.967	3039463	WORD_OFF	n/a	n/a	GUITAR	n/a	9	17	[0, 0, 0]	n/a	catFR1	1	R1235E
3033.599	1.616	3040430	WORD	n/a	wordpools/wordpool_categorized_EN.txt	BASS	Instruments	10	17	[0, 0, 0]	n/a	catFR1	1	R1235E
3035.215	0.95	3042046	WORD_OFF	n/a	n/a	BASS	n/a	10	17	[0, 0, 0]	n/a	catFR1	1	R1235E
3036.165	1.618	3042996	WORD	n/a	wordpools/wordpool_categorized_EN.txt	DOOR	Building	11	17	[0, 0, 0]	n/a	catFR1	1	R1235E
3037.783	0.783	3044613	WORD_OFF	n/a	n/a	DOOR	n/a	11	17	[0, 0, 0]	n/a	catFR1	1	R1235E
3038.566	1.616	3045396	WORD	n/a	wordpools/wordpool_categorized_EN.txt	FOUNDATION	Building	12	17	[0, 0, 0]	n/a	catFR1	1	R1235E
3040.182	0.0	3047012	WORD_OFF	n/a	n/a	FOUNDATION	n/a	12	17	[0, 0, 0]	n/a	catFR1	1	R1235E
3040.182	0.133	3047012	ENCODING_END	n/a	n/a	n/a	n/a	-999	17	[0, 0, 0]	n/a	catFR1	1	R1235E
3040.315	0.001	3047145	DISTRACT_START	n/a	n/a	n/a	n/a	-999	17	[0, 0, 0]	n/a	catFR1	1	R1235E
3040.316	0.016	3047146	START	n/a	n/a	n/a	n/a	-999	17	[-999, -999, -999]	n/a	catFR1	1	R1235E
3040.332	66.225	3047162	PROB	66.225	n/a	n/a	n/a	-999	17	[8, 8, 5]	21	catFR1	1	R1235E
3106.557	0.021	3113385	STOP	n/a	n/a	n/a	n/a	-999	17	[-999, -999, -999]	n/a	catFR1	1	R1235E
3106.578	0.549	3113406	DISTRACT_END	n/a	n/a	n/a	n/a	-999	17	[0, 0, 0]	n/a	catFR1	1	R1235E
3107.127	0.519	3113955	RETRIEVAL_ORIENT	n/a	n/a	n/a	n/a	-999	17	[0, 0, 0]	n/a	catFR1	1	R1235E
3107.646	5.221	3114474	REC_START	n/a	n/a	n/a	n/a	-999	17	[0, 0, 0]	n/a	catFR1	1	R1235E
3112.867	24.787	3119695	REC_WORD	24.787	n/a	SCOOTER	Vehicles	7	17	[0, 0, 0]	n/a	catFR1	1	R1235E
3137.654	71.859	3144481	REC_END	n/a	n/a	n/a	n/a	-999	17	[0, 0, 0]	n/a	catFR1	1	R1235E
3209.513	0.5	3216337	TRIAL	n/a	n/a	n/a	n/a	-999	18	[0, 0, 0]	n/a	catFR1	1	R1235E
3210.013	10.428	3216837	COUNTDOWN_START	n/a	n/a	n/a	n/a	-999	18	[0, 0, 0]	n/a	catFR1	1	R1235E
3220.441	0.007	3227264	COUNTDOWN_END	n/a	n/a	n/a	n/a	-999	18	[0, 0, 0]	n/a	catFR1	1	R1235E
3220.448	1.616	3227271	ORIENT	n/a	n/a	n/a	n/a	-999	18	[0, 0, 0]	n/a	catFR1	1	R1235E
3222.064	1.851	3228887	ORIENT_OFF	n/a	n/a	n/a	n/a	-999	18	[0, 0, 0]	n/a	catFR1	1	R1235E
3223.915	1.618	3230738	WORD	n/a	wordpools/wordpool_categorized_EN.txt	SNOW	Weather	1	18	[0, 0, 0]	n/a	catFR1	1	R1235E
3225.533	0.849	3232356	WORD_OFF	n/a	n/a	SNOW	n/a	1	18	[0, 0, 0]	n/a	catFR1	1	R1235E
3226.382	1.617	3233205	WORD	n/a	wordpools/wordpool_categorized_EN.txt	THUNDERSTORM	Weather	2	18	[0, 0, 0]	n/a	catFR1	1	R1235E
3227.999	0.883	3234822	WORD_OFF	n/a	n/a	THUNDERSTORM	n/a	2	18	[0, 0, 0]	n/a	catFR1	1	R1235E
3228.882	1.618	3235705	WORD	n/a	wordpools/wordpool_categorized_EN.txt	PIG	FarmAnimals	3	18	[0, 0, 0]	n/a	catFR1	1	R1235E
3230.5	0.849	3237323	WORD_OFF	n/a	n/a	PIG	n/a	3	18	[0, 0, 0]	n/a	catFR1	1	R1235E
3231.349	1.617	3238172	WORD	n/a	wordpools/wordpool_categorized_EN.txt	LAMB	FarmAnimals	4	18	[0, 0, 0]	n/a	catFR1	1	R1235E
3232.966	0.868	3239789	WORD_OFF	n/a	n/a	LAMB	n/a	4	18	[0, 0, 0]	n/a	catFR1	1	R1235E
3233.834	1.617	3240657	WORD	n/a	wordpools/wordpool_categorized_EN.txt	ANT	Insects	5	18	[0, 0, 0]	n/a	catFR1	1	R1235E
3235.451	0.932	3242274	WORD_OFF	n/a	n/a	ANT	n/a	5	18	[0, 0, 0]	n/a	catFR1	1	R1235E
3236.383	1.617	3243206	WORD	n/a	wordpools/wordpool_categorized_EN.txt	FLY	Insects	6	18	[0, 0, 0]	n/a	catFR1	1	R1235E
3238.0	0.967	3244823	WORD_OFF	n/a	n/a	FLY	n/a	6	18	[0, 0, 0]	n/a	catFR1	1	R1235E
3238.967	1.618	3245790	WORD	n/a	wordpools/wordpool_categorized_EN.txt	LIGHTNING	Weather	7	18	[0, 0, 0]	n/a	catFR1	1	R1235E
3240.585	0.834	3247408	WORD_OFF	n/a	n/a	LIGHTNING	n/a	7	18	[0, 0, 0]	n/a	catFR1	1	R1235E
3241.419	1.616	3248242	WORD	n/a	wordpools/wordpool_categorized_EN.txt	CLOUD	Weather	8	18	[0, 0, 0]	n/a	catFR1	1	R1235E
3243.035	0.983	3249858	WORD_OFF	n/a	n/a	CLOUD	n/a	8	18	[0, 0, 0]	n/a	catFR1	1	R1235E
3244.018	1.601	3250840	WORD	n/a	wordpools/wordpool_categorized_EN.txt	COW	FarmAnimals	9	18	[0, 0, 0]	n/a	catFR1	1	R1235E
3245.619	0.834	3252441	WORD_OFF	n/a	n/a	COW	n/a	9	18	[0, 0, 0]	n/a	catFR1	1	R1235E
3246.453	1.616	3253275	WORD	n/a	wordpools/wordpool_categorized_EN.txt	BULL	FarmAnimals	10	18	[0, 0, 0]	n/a	catFR1	1	R1235E
3248.069	0.85	3254891	WORD_OFF	n/a	n/a	BULL	n/a	10	18	[0, 0, 0]	n/a	catFR1	1	R1235E
3248.919	1.618	3255741	WORD	n/a	wordpools/wordpool_categorized_EN.txt	LADYBUG	Insects	11	18	[0, 0, 0]	n/a	catFR1	1	R1235E
3250.537	1.017	3257359	WORD_OFF	n/a	n/a	LADYBUG	n/a	11	18	[0, 0, 0]	n/a	catFR1	1	R1235E
3251.554	1.616	3258376	WORD	n/a	wordpools/wordpool_categorized_EN.txt	MOSQUITO	Insects	12	18	[0, 0, 0]	n/a	catFR1	1	R1235E
3253.17	0.0	3259992	ENCODING_END	n/a	n/a	n/a	n/a	-999	18	[0, 0, 0]	n/a	catFR1	1	R1235E
3253.17	0.169	3259992	WORD_OFF	n/a	n/a	MOSQUITO	n/a	12	18	[0, 0, 0]	n/a	catFR1	1	R1235E
3253.339	0.0	3260161	DISTRACT_START	n/a	n/a	n/a	n/a	-999	18	[0, 0, 0]	n/a	catFR1	1	R1235E
3253.339	0.014	3260161	START	n/a	n/a	n/a	n/a	-999	18	[-999, -999, -999]	n/a	catFR1	1	R1235E
3253.353	52.264	3260175	PROB	52.264	n/a	n/a	n/a	-999	18	[2, 5, 4]	11	catFR1	1	R1235E
3305.617	0.013	3312437	STOP	n/a	n/a	n/a	n/a	-999	18	[-999, -999, -999]	n/a	catFR1	1	R1235E
3305.63	0.632	3312450	DISTRACT_END	n/a	n/a	n/a	n/a	-999	18	[0, 0, 0]	n/a	catFR1	1	R1235E
3306.262	0.519	3313082	RETRIEVAL_ORIENT	n/a	n/a	n/a	n/a	-999	18	[0, 0, 0]	n/a	catFR1	1	R1235E
3306.781	2.346	3313601	REC_START	n/a	n/a	n/a	n/a	-999	18	[0, 0, 0]	n/a	catFR1	1	R1235E
3309.127	11.176	3315947	REC_WORD	11.176	n/a	LADYBUG	Insects	11	18	[0, 0, 0]	n/a	catFR1	1	R1235E
3320.303	16.486	3327123	REC_WORD_VV	16.486	n/a	<>	n/a	-999	18	[0, 0, 0]	n/a	catFR1	1	R1235E
3336.789	39.186	3343608	REC_END	n/a	n/a	n/a	n/a	-999	18	[0, 0, 0]	n/a	catFR1	1	R1235E
3375.975	0.5	3382792	TRIAL	n/a	n/a	n/a	n/a	-999	19	[0, 0, 0]	n/a	catFR1	1	R1235E
3376.475	10.428	3383292	COUNTDOWN_START	n/a	n/a	n/a	n/a	-999	19	[0, 0, 0]	n/a	catFR1	1	R1235E
3386.903	0.007	3393720	COUNTDOWN_END	n/a	n/a	n/a	n/a	-999	19	[0, 0, 0]	n/a	catFR1	1	R1235E
3386.91	1.618	3393727	ORIENT	n/a	n/a	n/a	n/a	-999	19	[0, 0, 0]	n/a	catFR1	1	R1235E
3388.528	2.15	3395345	ORIENT_OFF	n/a	n/a	n/a	n/a	-999	19	[0, 0, 0]	n/a	catFR1	1	R1235E
3390.678	1.616	3397495	WORD	n/a	wordpools/wordpool_categorized_EN.txt	PUZZLE	Toys	1	19	[0, 0, 0]	n/a	catFR1	1	R1235E
3392.294	0.95	3399111	WORD_OFF	n/a	n/a	PUZZLE	n/a	1	19	[0, 0, 0]	n/a	catFR1	1	R1235E
3393.244	1.618	3400061	WORD	n/a	wordpools/wordpool_categorized_EN.txt	FRISBEE	Toys	2	19	[0, 0, 0]	n/a	catFR1	1	R1235E
3394.862	0.817	3401679	WORD_OFF	n/a	n/a	FRISBEE	n/a	2	19	[0, 0, 0]	n/a	catFR1	1	R1235E
3395.679	1.616	3402496	WORD	n/a	wordpools/wordpool_categorized_EN.txt	MARKER	OfficeSupplies	3	19	[0, 0, 0]	n/a	catFR1	1	R1235E
3397.295	0.8	3404112	WORD_OFF	n/a	n/a	MARKER	n/a	3	19	[0, 0, 0]	n/a	catFR1	1	R1235E
3398.095	1.618	3404912	WORD	n/a	wordpools/wordpool_categorized_EN.txt	ERASER	OfficeSupplies	4	19	[0, 0, 0]	n/a	catFR1	1	R1235E
3399.713	0.967	3406529	WORD_OFF	n/a	n/a	ERASER	n/a	4	19	[0, 0, 0]	n/a	catFR1	1	R1235E
3400.68	1.616	3407496	WORD	n/a	wordpools/wordpool_categorized_EN.txt	MOUNTAIN	Landscapes	5	19	[0, 0, 0]	n/a	catFR1	1	R1235E
3402.296	0.9	3409112	WORD_OFF	n/a	n/a	MOUNTAIN	n/a	5	19	[0, 0, 0]	n/a	catFR1	1	R1235E
3403.196	1.618	3410012	WORD	n/a	wordpools/wordpool_categorized_EN.txt	RIVER	Landscapes	6	19	[0, 0, 0]	n/a	catFR1	1	R1235E
3404.814	0.783	3411630	WORD_OFF	n/a	n/a	RIVER	n/a	6	19	[0, 0, 0]	n/a	catFR1	1	R1235E
3405.597	1.616	3412413	WORD	n/a	wordpools/wordpool_categorized_EN.txt	BALL	Toys	7	19	[0, 0, 0]	n/a	catFR1	1	R1235E
3407.213	0.967	3414029	WORD_OFF	n/a	n/a	BALL	n/a	7	19	[0, 0, 0]	n/a	catFR1	1	R1235E
3408.18	1.618	3414996	WORD	n/a	wordpools/wordpool_categorized_EN.txt	BARBIE	Toys	8	19	[0, 0, 0]	n/a	catFR1	1	R1235E
3409.798	1.0	3416614	WORD_OFF	n/a	n/a	BARBIE	n/a	8	19	[0, 0, 0]	n/a	catFR1	1	R1235E
3410.798	1.617	3417614	WORD	n/a	wordpools/wordpool_categorized_EN.txt	STAPLER	OfficeSupplies	9	19	[0, 0, 0]	n/a	catFR1	1	R1235E
3412.415	0.916	3419231	WORD_OFF	n/a	n/a	STAPLER	n/a	9	19	[0, 0, 0]	n/a	catFR1	1	R1235E
3413.331	1.617	3420147	WORD	n/a	wordpools/wordpool_categorized_EN.txt	PAPER	OfficeSupplies	10	19	[0, 0, 0]	n/a	catFR1	1	R1235E
3414.948	1.017	3421764	WORD_OFF	n/a	n/a	PAPER	n/a	10	19	[0, 0, 0]	n/a	catFR1	1	R1235E
3415.965	1.618	3422781	WORD	n/a	wordpools/wordpool_categorized_EN.txt	LAKE	Landscapes	11	19	[0, 0, 0]	n/a	catFR1	1	R1235E
3417.583	0.917	3424399	WORD_OFF	n/a	n/a	LAKE	n/a	11	19	[0, 0, 0]	n/a	catFR1	1	R1235E
3418.5	1.616	3425316	WORD	n/a	wordpools/wordpool_categorized_EN.txt	HILLS	Landscapes	12	19	[0, 0, 0]	n/a	catFR1	1	R1235E
3420.116	0.0	3426932	ENCODING_END	n/a	n/a	n/a	n/a	-999	19	[0, 0, 0]	n/a	catFR1	1	R1235E
3420.116	0.132	3426932	WORD_OFF	n/a	n/a	HILLS	n/a	12	19	[0, 0, 0]	n/a	catFR1	1	R1235E
3420.248	0.0	3427064	DISTRACT_START	n/a	n/a	n/a	n/a	-999	19	[0, 0, 0]	n/a	catFR1	1	R1235E
3420.248	0.018	3427064	START	n/a	n/a	n/a	n/a	-999	19	[-999, -999, -999]	n/a	catFR1	1	R1235E
3420.266	46.281	3427082	PROB	46.281	n/a	n/a	n/a	-999	19	[6, 6, 8]	20	catFR1	1	R1235E
3466.547	0.011	3473361	STOP	n/a	n/a	n/a	n/a	-999	19	[-999, -999, -999]	n/a	catFR1	1	R1235E
3466.558	0.683	3473372	DISTRACT_END	n/a	n/a	n/a	n/a	-999	19	[0, 0, 0]	n/a	catFR1	1	R1235E
3467.241	0.518	3474055	RETRIEVAL_ORIENT	n/a	n/a	n/a	n/a	-999	19	[0, 0, 0]	n/a	catFR1	1	R1235E
3467.759	14.354	3474573	REC_START	n/a	n/a	n/a	n/a	-999	19	[0, 0, 0]	n/a	catFR1	1	R1235E
3482.113	15.654	3488926	REC_WORD_VV	15.654	n/a	<>	n/a	-999	19	[0, 0, 0]	n/a	catFR1	1	R1235E
3497.767	12.682	3504580	REC_END	n/a	n/a	n/a	n/a	-999	19	[0, 0, 0]	n/a	catFR1	1	R1235E
3510.449	0.5	3517261	TRIAL	n/a	n/a	n/a	n/a	-999	20	[0, 0, 0]	n/a	catFR1	1	R1235E
3510.949	10.428	3517761	COUNTDOWN_START	n/a	n/a	n/a	n/a	-999	20	[0, 0, 0]	n/a	catFR1	1	R1235E
3521.377	0.006	3528189	COUNTDOWN_END	n/a	n/a	n/a	n/a	-999	20	[0, 0, 0]	n/a	catFR1	1	R1235E
3521.383	1.618	3528195	ORIENT	n/a	n/a	n/a	n/a	-999	20	[0, 0, 0]	n/a	catFR1	1	R1235E
3523.001	2.283	3529813	ORIENT_OFF	n/a	n/a	n/a	n/a	-999	20	[0, 0, 0]	n/a	catFR1	1	R1235E
3525.284	1.617	3532096	WORD	n/a	wordpools/wordpool_categorized_EN.txt	FLOOR	Building	1	20	[0, 0, 0]	n/a	catFR1	1	R1235E
3526.901	0.934	3533713	WORD_OFF	n/a	n/a	FLOOR	n/a	1	20	[0, 0, 0]	n/a	catFR1	1	R1235E
3527.835	1.618	3534647	WORD	n/a	wordpools/wordpool_categorized_EN.txt	ATTIC	Building	2	20	[0, 0, 0]	n/a	catFR1	1	R1235E
3529.453	0.849	3536264	WORD_OFF	n/a	n/a	ATTIC	n/a	2	20	[0, 0, 0]	n/a	catFR1	1	R1235E
3530.302	1.617	3537113	WORD	n/a	wordpools/wordpool_categorized_EN.txt	STEREO	Electronics	3	20	[0, 0, 0]	n/a	catFR1	1	R1235E
3531.919	0.884	3538730	WORD_OFF	n/a	n/a	STEREO	n/a	3	20	[0, 0, 0]	n/a	catFR1	1	R1235E
3532.803	1.617	3539614	WORD	n/a	wordpools/wordpool_categorized_EN.txt	TABLET	Electronics	4	20	[0, 0, 0]	n/a	catFR1	1	R1235E
3534.42	0.783	3541231	WORD_OFF	n/a	n/a	TABLET	n/a	4	20	[0, 0, 0]	n/a	catFR1	1	R1235E
3535.203	1.618	3542014	WORD	n/a	wordpools/wordpool_categorized_EN.txt	MOTH	Insects	5	20	[0, 0, 0]	n/a	catFR1	1	R1235E
3536.821	1.0	3543632	WORD_OFF	n/a	n/a	MOTH	n/a	5	20	[0, 0, 0]	n/a	catFR1	1	R1235E
3537.821	1.617	3544632	WORD	n/a	wordpools/wordpool_categorized_EN.txt	SPIDER	Insects	6	20	[0, 0, 0]	n/a	catFR1	1	R1235E
3539.438	0.932	3546249	WORD_OFF	n/a	n/a	SPIDER	n/a	6	20	[0, 0, 0]	n/a	catFR1	1	R1235E
3540.37	1.617	3547181	WORD	n/a	wordpools/wordpool_categorized_EN.txt	WINDOW	Building	7	20	[0, 0, 0]	n/a	catFR1	1	R1235E
3541.987	0.835	3548798	WORD_OFF	n/a	n/a	WINDOW	n/a	7	20	[0, 0, 0]	n/a	catFR1	1	R1235E
3542.822	1.617	3549633	WORD	n/a	wordpools/wordpool_categorized_EN.txt	BATHROOM	Building	8	20	[0, 0, 0]	n/a	catFR1	1	R1235E
3544.439	0.966	3551250	WORD_OFF	n/a	n/a	BATHROOM	n/a	8	20	[0, 0, 0]	n/a	catFR1	1	R1235E
3545.405	1.616	3552216	WORD	n/a	wordpools/wordpool_categorized_EN.txt	PHONE	Electronics	9	20	[0, 0, 0]	n/a	catFR1	1	R1235E
3547.021	1.017	3553832	WORD_OFF	n/a	n/a	PHONE	n/a	9	20	[0, 0, 0]	n/a	catFR1	1	R1235E
3548.038	1.618	3554849	WORD	n/a	wordpools/wordpool_categorized_EN.txt	COMPUTER	Electronics	10	20	[0, 0, 0]	n/a	catFR1	1	R1235E
3549.656	0.784	3556467	WORD_OFF	n/a	n/a	COMPUTER	n/a	10	20	[0, 0, 0]	n/a	catFR1	1	R1235E
3550.44	1.616	3557251	WORD	n/a	wordpools/wordpool_categorized_EN.txt	BUTTERFLY	Insects	11	20	[0, 0, 0]	n/a	catFR1	1	R1235E
3552.056	0.833	3558867	WORD_OFF	n/a	n/a	BUTTERFLY	n/a	11	20	[0, 0, 0]	n/a	catFR1	1	R1235E
3552.889	1.618	3559700	WORD	n/a	wordpools/wordpool_categorized_EN.txt	BEETLE	Insects	12	20	[0, 0, 0]	n/a	catFR1	1	R1235E
3554.507	0.0	3561318	ENCODING_END	n/a	n/a	n/a	n/a	-999	20	[0, 0, 0]	n/a	catFR1	1	R1235E
3554.507	0.175	3561318	WORD_OFF	n/a	n/a	BEETLE	n/a	12	20	[0, 0, 0]	n/a	catFR1	1	R1235E
3554.682	0.0	3561493	DISTRACT_START	n/a	n/a	n/a	n/a	-999	20	[0, 0, 0]	n/a	catFR1	1	R1235E
3554.682	0.008	3561493	START	n/a	n/a	n/a	n/a	-999	20	[-999, -999, -999]	n/a	catFR1	1	R1235E
3554.69	29.057	3561501	PROB	29.057	n/a	n/a	n/a	-999	20	[4, 5, 3]	12	catFR1	1	R1235E
3583.747	0.015	3590556	STOP	n/a	n/a	n/a	n/a	-999	20	[-999, -999, -999]	n/a	catFR1	1	R1235E
3583.762	0.533	3590571	DISTRACT_END	n/a	n/a	n/a	n/a	-999	20	[0, 0, 0]	n/a	catFR1	1	R1235E
3584.295	0.518	3591104	RETRIEVAL_ORIENT	n/a	n/a	n/a	n/a	-999	20	[0, 0, 0]	n/a	catFR1	1	R1235E
3584.813	4.47	3591622	REC_START	n/a	n/a	n/a	n/a	-999	20	[0, 0, 0]	n/a	catFR1	1	R1235E
3589.283	1.257	3596092	REC_WORD	1.257	n/a	BEETLE	Insects	12	20	[0, 0, 0]	n/a	catFR1	1	R1235E
3590.54	1.082	3597349	REC_WORD	1.082	n/a	MOTH	Insects	5	20	[0, 0, 0]	n/a	catFR1	1	R1235E
3591.622	23.201	3598431	REC_WORD	23.201	n/a	SPIDER	Insects	6	20	[0, 0, 0]	n/a	catFR1	1	R1235E
3614.823	11.562	3621631	REC_END	n/a	n/a	n/a	n/a	-999	20	[0, 0, 0]	n/a	catFR1	1	R1235E
3626.385	0.5	3633193	TRIAL	n/a	n/a	n/a	n/a	-999	21	[0, 0, 0]	n/a	catFR1	1	R1235E
3626.885	10.428	3633693	COUNTDOWN_START	n/a	n/a	n/a	n/a	-999	21	[0, 0, 0]	n/a	catFR1	1	R1235E
3637.313	0.008	3644120	COUNTDOWN_END	n/a	n/a	n/a	n/a	-999	21	[0, 0, 0]	n/a	catFR1	1	R1235E
3637.321	1.617	3644128	ORIENT	n/a	n/a	n/a	n/a	-999	21	[0, 0, 0]	n/a	catFR1	1	R1235E
3638.938	1.983	3645745	ORIENT_OFF	n/a	n/a	n/a	n/a	-999	21	[0, 0, 0]	n/a	catFR1	1	R1235E
3640.921	1.618	3647728	WORD	n/a	wordpools/wordpool_categorized_EN.txt	TRUMPET	Instruments	1	21	[0, 0, 0]	n/a	catFR1	1	R1235E
3642.539	0.967	3649346	WORD_OFF	n/a	n/a	TRUMPET	n/a	1	21	[0, 0, 0]	n/a	catFR1	1	R1235E
3643.506	1.616	3650313	WORD	n/a	wordpools/wordpool_categorized_EN.txt	TROMBONE	Instruments	2	21	[0, 0, 0]	n/a	catFR1	1	R1235E
3645.122	0.767	3651929	WORD_OFF	n/a	n/a	TROMBONE	n/a	2	21	[0, 0, 0]	n/a	catFR1	1	R1235E
3645.889	1.618	3652696	WORD	n/a	wordpools/wordpool_categorized_EN.txt	PRINTER	Electronics	3	21	[0, 0, 0]	n/a	catFR1	1	R1235E
3647.507	0.799	3654314	WORD_OFF	n/a	n/a	PRINTER	n/a	3	21	[0, 0, 0]	n/a	catFR1	1	R1235E
3648.306	1.617	3655113	WORD	n/a	wordpools/wordpool_categorized_EN.txt	SCANNER	Electronics	4	21	[0, 0, 0]	n/a	catFR1	1	R1235E
3649.923	0.818	3656730	WORD_OFF	n/a	n/a	SCANNER	n/a	4	21	[0, 0, 0]	n/a	catFR1	1	R1235E
3650.741	1.616	3657548	WORD	n/a	wordpools/wordpool_categorized_EN.txt	TOASTER	Appliances	5	21	[0, 0, 0]	n/a	catFR1	1	R1235E
3652.357	0.85	3659164	WORD_OFF	n/a	n/a	TOASTER	n/a	5	21	[0, 0, 0]	n/a	catFR1	1	R1235E
3653.207	1.618	3660014	WORD	n/a	wordpools/wordpool_categorized_EN.txt	VACUUM	Appliances	6	21	[0, 0, 0]	n/a	catFR1	1	R1235E
3654.825	0.85	3661632	WORD_OFF	n/a	n/a	VACUUM	n/a	6	21	[0, 0, 0]	n/a	catFR1	1	R1235E
3655.675	1.616	3662482	WORD	n/a	wordpools/wordpool_categorized_EN.txt	PIANO	Instruments	7	21	[0, 0, 0]	n/a	catFR1	1	R1235E
3657.291	0.967	3664098	WORD_OFF	n/a	n/a	PIANO	n/a	7	21	[0, 0, 0]	n/a	catFR1	1	R1235E
3658.258	1.617	3665065	WORD	n/a	wordpools/wordpool_categorized_EN.txt	BANJO	Instruments	8	21	[0, 0, 0]	n/a	catFR1	1	R1235E
3659.875	0.801	3666681	WORD_OFF	n/a	n/a	BANJO	n/a	8	21	[0, 0, 0]	n/a	catFR1	1	R1235E
3660.676	1.616	3667482	WORD	n/a	wordpools/wordpool_categorized_EN.txt	HEADPHONES	Electronics	9	21	[0, 0, 0]	n/a	catFR1	1	R1235E
3662.292	0.883	3669098	WORD_OFF	n/a	n/a	HEADPHONES	n/a	9	21	[0, 0, 0]	n/a	catFR1	1	R1235E
3663.175	1.601	3669981	WORD	n/a	wordpools/wordpool_categorized_EN.txt	SPEAKER	Electronics	10	21	[0, 0, 0]	n/a	catFR1	1	R1235E
3664.776	0.951	3671582	WORD_OFF	n/a	n/a	SPEAKER	n/a	10	21	[0, 0, 0]	n/a	catFR1	1	R1235E
3665.727	1.616	3672533	WORD	n/a	wordpools/wordpool_categorized_EN.txt	FREEZER	Appliances	11	21	[0, 0, 0]	n/a	catFR1	1	R1235E
3667.343	0.883	3674149	WORD_OFF	n/a	n/a	FREEZER	n/a	11	21	[0, 0, 0]	n/a	catFR1	1	R1235E
3668.226	1.601	3675032	WORD	n/a	wordpools/wordpool_categorized_EN.txt	WASHER	Appliances	12	21	[0, 0, 0]	n/a	catFR1	1	R1235E
3669.827	0.0	3676633	ENCODING_END	n/a	n/a	n/a	n/a	-999	21	[0, 0, 0]	n/a	catFR1	1	R1235E
3669.827	0.164	3676633	WORD_OFF	n/a	n/a	WASHER	n/a	12	21	[0, 0, 0]	n/a	catFR1	1	R1235E
3669.991	0.0	3676797	DISTRACT_START	n/a	n/a	n/a	n/a	-999	21	[0, 0, 0]	n/a	catFR1	1	R1235E
3669.991	0.019	3676797	START	n/a	n/a	n/a	n/a	-999	21	[-999, -999, -999]	n/a	catFR1	1	R1235E
3670.01	42.626	3676816	PROB	42.626	n/a	n/a	n/a	-999	21	[9, 3, 1]	13	catFR1	1	R1235E
3712.636	0.016	3719440	STOP	n/a	n/a	n/a	n/a	-999	21	[-999, -999, -999]	n/a	catFR1	1	R1235E
3712.652	0.615	3719456	DISTRACT_END	n/a	n/a	n/a	n/a	-999	21	[0, 0, 0]	n/a	catFR1	1	R1235E
3713.267	0.519	3720071	RETRIEVAL_ORIENT	n/a	n/a	n/a	n/a	-999	21	[0, 0, 0]	n/a	catFR1	1	R1235E
3713.786	30.0	3720590	REC_START	n/a	n/a	n/a	n/a	-999	21	[0, 0, 0]	n/a	catFR1	1	R1235E
3743.786	0.008	3750589	REC_WORD_VV	0.008	n/a	<>	n/a	-999	21	[0, 0, 0]	n/a	catFR1	1	R1235E
3743.794	14.699	3750597	REC_END	n/a	n/a	n/a	n/a	-999	21	[0, 0, 0]	n/a	catFR1	1	R1235E
3758.493	0.5	3765296	TRIAL	n/a	n/a	n/a	n/a	-999	22	[0, 0, 0]	n/a	catFR1	1	R1235E
3758.993	10.428	3765796	COUNTDOWN_START	n/a	n/a	n/a	n/a	-999	22	[0, 0, 0]	n/a	catFR1	1	R1235E
3769.421	0.007	3776223	COUNTDOWN_END	n/a	n/a	n/a	n/a	-999	22	[0, 0, 0]	n/a	catFR1	1	R1235E
3769.428	1.616	3776230	ORIENT	n/a	n/a	n/a	n/a	-999	22	[0, 0, 0]	n/a	catFR1	1	R1235E
3771.044	2.034	3777846	ORIENT_OFF	n/a	n/a	n/a	n/a	-999	22	[0, 0, 0]	n/a	catFR1	1	R1235E
3773.078	1.618	3779880	WORD	n/a	wordpools/wordpool_categorized_EN.txt	SOCKS	Clothing	1	22	[0, 0, 0]	n/a	catFR1	1	R1235E
3774.696	0.867	3781498	WORD_OFF	n/a	n/a	SOCKS	n/a	1	22	[0, 0, 0]	n/a	catFR1	1	R1235E
3775.563	1.616	3782365	WORD	n/a	wordpools/wordpool_categorized_EN.txt	DRESS	Clothing	2	22	[0, 0, 0]	n/a	catFR1	1	R1235E
3777.179	0.883	3783981	WORD_OFF	n/a	n/a	DRESS	n/a	2	22	[0, 0, 0]	n/a	catFR1	1	R1235E
3778.062	1.618	3784864	WORD	n/a	wordpools/wordpool_categorized_EN.txt	SUNFLOWER	Flowers	3	22	[0, 0, 0]	n/a	catFR1	1	R1235E
3779.68	0.784	3786482	WORD_OFF	n/a	n/a	SUNFLOWER	n/a	3	22	[0, 0, 0]	n/a	catFR1	1	R1235E
3780.464	1.615	3787266	WORD	n/a	wordpools/wordpool_categorized_EN.txt	LILY	Flowers	4	22	[0, 0, 0]	n/a	catFR1	1	R1235E
3782.079	0.884	3788881	WORD_OFF	n/a	n/a	LILY	n/a	4	22	[0, 0, 0]	n/a	catFR1	1	R1235E
3782.963	1.601	3789765	WORD	n/a	wordpools/wordpool_categorized_EN.txt	BLUEBIRD	Birds	5	22	[0, 0, 0]	n/a	catFR1	1	R1235E
3784.564	0.867	3791366	WORD_OFF	n/a	n/a	BLUEBIRD	n/a	5	22	[0, 0, 0]	n/a	catFR1	1	R1235E
3785.431	1.616	3792233	WORD	n/a	wordpools/wordpool_categorized_EN.txt	GOOSE	Birds	6	22	[0, 0, 0]	n/a	catFR1	1	R1235E
3787.047	0.85	3793849	WORD_OFF	n/a	n/a	GOOSE	n/a	6	22	[0, 0, 0]	n/a	catFR1	1	R1235E
3787.897	1.601	3794699	WORD	n/a	wordpools/wordpool_categorized_EN.txt	SHIRT	Clothing	7	22	[0, 0, 0]	n/a	catFR1	1	R1235E
3789.498	0.951	3796299	WORD_OFF	n/a	n/a	SHIRT	n/a	7	22	[0, 0, 0]	n/a	catFR1	1	R1235E
3790.449	1.615	3797250	WORD	n/a	wordpools/wordpool_categorized_EN.txt	COAT	Clothing	8	22	[0, 0, 0]	n/a	catFR1	1	R1235E
3792.064	0.851	3798865	WORD_OFF	n/a	n/a	COAT	n/a	8	22	[0, 0, 0]	n/a	catFR1	1	R1235E
3792.915	1.618	3799716	WORD	n/a	wordpools/wordpool_categorized_EN.txt	DAFFODIL	Flowers	9	22	[0, 0, 0]	n/a	catFR1	1	R1235E
3794.533	0.765	3801334	WORD_OFF	n/a	n/a	DAFFODIL	n/a	9	22	[0, 0, 0]	n/a	catFR1	1	R1235E
3795.298	1.617	3802099	WORD	n/a	wordpools/wordpool_categorized_EN.txt	MARIGOLD	Flowers	10	22	[0, 0, 0]	n/a	catFR1	1	R1235E
3796.915	0.801	3803716	WORD_OFF	n/a	n/a	MARIGOLD	n/a	10	22	[0, 0, 0]	n/a	catFR1	1	R1235E
3797.716	1.616	3804517	WORD	n/a	wordpools/wordpool_categorized_EN.txt	DUCK	Birds	11	22	[0, 0, 0]	n/a	catFR1	1	R1235E
3799.332	1.001	3806133	WORD_OFF	n/a	n/a	DUCK	n/a	11	22	[0, 0, 0]	n/a	catFR1	1	R1235E
3800.333	1.617	3807134	WORD	n/a	wordpools/wordpool_categorized_EN.txt	SPARROW	Birds	12	22	[0, 0, 0]	n/a	catFR1	1	R1235E
3801.95	0.0	3808751	WORD_OFF	n/a	n/a	SPARROW	n/a	12	22	[0, 0, 0]	n/a	catFR1	1	R1235E
3801.95	0.132	3808751	ENCODING_END	n/a	n/a	n/a	n/a	-999	22	[0, 0, 0]	n/a	catFR1	1	R1235E
3802.082	0.0	3808883	DISTRACT_START	n/a	n/a	n/a	n/a	-999	22	[0, 0, 0]	n/a	catFR1	1	R1235E
3802.082	0.018	3808883	START	n/a	n/a	n/a	n/a	-999	22	[-999, -999, -999]	n/a	catFR1	1	R1235E
3802.1	37.014	3808901	PROB	37.014	n/a	n/a	n/a	-999	22	[9, 2, 8]	19	catFR1	1	R1235E
3839.114	0.009	3845914	STOP	n/a	n/a	n/a	n/a	-999	22	[-999, -999, -999]	n/a	catFR1	1	R1235E
3839.123	0.668	3845923	DISTRACT_END	n/a	n/a	n/a	n/a	-999	22	[0, 0, 0]	n/a	catFR1	1	R1235E
3839.791	0.516	3846591	RETRIEVAL_ORIENT	n/a	n/a	n/a	n/a	-999	22	[0, 0, 0]	n/a	catFR1	1	R1235E
3840.307	2.071	3847106	REC_START	n/a	n/a	n/a	n/a	-999	22	[0, 0, 0]	n/a	catFR1	1	R1235E
3842.378	5.292	3849177	REC_WORD	5.292	n/a	DAFFODIL	Flowers	9	22	[0, 0, 0]	n/a	catFR1	1	R1235E
3847.67	12.24	3854469	REC_WORD	12.24	n/a	SUNFLOWER	Flowers	3	22	[0, 0, 0]	n/a	catFR1	1	R1235E
3859.91	10.406	3866709	REC_WORD	10.406	n/a	DUCK	Birds	11	22	[0, 0, 0]	n/a	catFR1	1	R1235E
3870.316	25.168	3877114	REC_END	n/a	n/a	n/a	n/a	-999	22	[0, 0, 0]	n/a	catFR1	1	R1235E
3895.484	0.5	3902281	TRIAL	n/a	n/a	n/a	n/a	-999	23	[0, 0, 0]	n/a	catFR1	1	R1235E
3895.984	10.428	3902781	COUNTDOWN_START	n/a	n/a	n/a	n/a	-999	23	[0, 0, 0]	n/a	catFR1	1	R1235E
3906.412	0.007	3913209	COUNTDOWN_END	n/a	n/a	n/a	n/a	-999	23	[0, 0, 0]	n/a	catFR1	1	R1235E
3906.419	1.616	3913216	ORIENT	n/a	n/a	n/a	n/a	-999	23	[0, 0, 0]	n/a	catFR1	1	R1235E
3908.035	2.334	3914832	ORIENT_OFF	n/a	n/a	n/a	n/a	-999	23	[0, 0, 0]	n/a	catFR1	1	R1235E
3910.369	1.617	3917166	WORD	n/a	wordpools/wordpool_categorized_EN.txt	CARROT	Vegetables	1	23	[0, 0, 0]	n/a	catFR1	1	R1235E
3911.986	0.884	3918783	WORD_OFF	n/a	n/a	CARROT	n/a	1	23	[0, 0, 0]	n/a	catFR1	1	R1235E
3912.87	1.617	3919667	WORD	n/a	wordpools/wordpool_categorized_EN.txt	CABBAGE	Vegetables	2	23	[0, 0, 0]	n/a	catFR1	1	R1235E
3914.487	0.799	3921284	WORD_OFF	n/a	n/a	CABBAGE	n/a	2	23	[0, 0, 0]	n/a	catFR1	1	R1235E
3915.286	1.617	3922083	WORD	n/a	wordpools/wordpool_categorized_EN.txt	ORCHID	Flowers	3	23	[0, 0, 0]	n/a	catFR1	1	R1235E
3916.903	0.951	3923700	WORD_OFF	n/a	n/a	ORCHID	n/a	3	23	[0, 0, 0]	n/a	catFR1	1	R1235E
3917.854	1.617	3924651	WORD	n/a	wordpools/wordpool_categorized_EN.txt	TULIP	Flowers	4	23	[0, 0, 0]	n/a	catFR1	1	R1235E
3919.471	1.0	3926267	WORD_OFF	n/a	n/a	TULIP	n/a	4	23	[0, 0, 0]	n/a	catFR1	1	R1235E
3920.471	1.616	3927267	WORD	n/a	wordpools/wordpool_categorized_EN.txt	ELBOW	BodyParts	5	23	[0, 0, 0]	n/a	catFR1	1	R1235E
3922.087	0.884	3928883	WORD_OFF	n/a	n/a	ELBOW	n/a	5	23	[0, 0, 0]	n/a	catFR1	1	R1235E
3922.971	1.601	3929767	WORD	n/a	wordpools/wordpool_categorized_EN.txt	LEG	BodyParts	6	23	[0, 0, 0]	n/a	catFR1	1	R1235E
3924.572	0.95	3931368	WORD_OFF	n/a	n/a	LEG	n/a	6	23	[0, 0, 0]	n/a	catFR1	1	R1235E
3925.522	1.616	3932318	WORD	n/a	wordpools/wordpool_categorized_EN.txt	CARNATION	Flowers	7	23	[0, 0, 0]	n/a	catFR1	1	R1235E
3927.138	0.917	3933934	WORD_OFF	n/a	n/a	CARNATION	n/a	7	23	[0, 0, 0]	n/a	catFR1	1	R1235E
3928.055	1.618	3934851	WORD	n/a	wordpools/wordpool_categorized_EN.txt	ROSE	Flowers	8	23	[0, 0, 0]	n/a	catFR1	1	R1235E
3929.673	0.834	3936469	WORD_OFF	n/a	n/a	ROSE	n/a	8	23	[0, 0, 0]	n/a	catFR1	1	R1235E
3930.507	1.615	3937303	WORD	n/a	wordpools/wordpool_categorized_EN.txt	CUCUMBER	Vegetables	9	23	[0, 0, 0]	n/a	catFR1	1	R1235E
3932.122	0.767	3938918	WORD_OFF	n/a	n/a	CUCUMBER	n/a	9	23	[0, 0, 0]	n/a	catFR1	1	R1235E
3932.889	1.618	3939685	WORD	n/a	wordpools/wordpool_categorized_EN.txt	POTATO	Vegetables	10	23	[0, 0, 0]	n/a	catFR1	1	R1235E
3934.507	0.883	3941303	WORD_OFF	n/a	n/a	POTATO	n/a	10	23	[0, 0, 0]	n/a	catFR1	1	R1235E
3935.39	1.617	3942186	WORD	n/a	wordpools/wordpool_categorized_EN.txt	TOE	BodyParts	11	23	[0, 0, 0]	n/a	catFR1	1	R1235E
3937.007	0.9	3943803	WORD_OFF	n/a	n/a	TOE	n/a	11	23	[0, 0, 0]	n/a	catFR1	1	R1235E
3937.907	1.618	3944703	WORD	n/a	wordpools/wordpool_categorized_EN.txt	KNEE	BodyParts	12	23	[0, 0, 0]	n/a	catFR1	1	R1235E
3939.525	0.0	3946321	ENCODING_END	n/a	n/a	n/a	n/a	-999	23	[0, 0, 0]	n/a	catFR1	1	R1235E
3939.525	0.174	3946321	WORD_OFF	n/a	n/a	KNEE	n/a	12	23	[0, 0, 0]	n/a	catFR1	1	R1235E
3939.699	0.0	3946495	DISTRACT_START	n/a	n/a	n/a	n/a	-999	23	[0, 0, 0]	n/a	catFR1	1	R1235E
3939.699	0.009	3946495	START	n/a	n/a	n/a	n/a	-999	23	[-999, -999, -999]	n/a	catFR1	1	R1235E
3939.708	90.773	3946504	PROB	90.773	n/a	n/a	n/a	-999	23	[8, 2, 4]	14	catFR1	1	R1235E
4030.481	0.01	4037273	STOP	n/a	n/a	n/a	n/a	-999	23	[-999, -999, -999]	n/a	catFR1	1	R1235E
4030.491	0.649	4037283	DISTRACT_END	n/a	n/a	n/a	n/a	-999	23	[0, 0, 0]	n/a	catFR1	1	R1235E
4031.14	0.518	4037932	RETRIEVAL_ORIENT	n/a	n/a	n/a	n/a	-999	23	[0, 0, 0]	n/a	catFR1	1	R1235E
4031.658	2.62	4038450	REC_START	n/a	n/a	n/a	n/a	-999	23	[0, 0, 0]	n/a	catFR1	1	R1235E
4034.278	8.837	4041070	REC_WORD_VV	8.837	n/a	<>	n/a	-999	23	[0, 0, 0]	n/a	catFR1	1	R1235E
4043.115	18.552	4049907	REC_WORD	18.552	n/a	CUCUMBER	Vegetables	9	23	[0, 0, 0]	n/a	catFR1	1	R1235E
4061.667	10.297	4068458	REC_END	n/a	n/a	n/a	n/a	-999	23	[0, 0, 0]	n/a	catFR1	1	R1235E
4071.964	0.5	4078755	TRIAL	n/a	n/a	n/a	n/a	-999	24	[0, 0, 0]	n/a	catFR1	1	R1235E
4072.464	10.428	4079255	COUNTDOWN_START	n/a	n/a	n/a	n/a	-999	24	[0, 0, 0]	n/a	catFR1	1	R1235E
4082.892	0.007	4089682	COUNTDOWN_END	n/a	n/a	n/a	n/a	-999	24	[0, 0, 0]	n/a	catFR1	1	R1235E
4082.899	1.601	4089689	ORIENT	n/a	n/a	n/a	n/a	-999	24	[0, 0, 0]	n/a	catFR1	1	R1235E
4084.5	2.167	4091290	ORIENT_OFF	n/a	n/a	n/a	n/a	-999	24	[0, 0, 0]	n/a	catFR1	1	R1235E
4086.667	1.616	4093457	WORD	n/a	wordpools/wordpool_categorized_EN.txt	ORGAN	Instruments	1	24	[0, 0, 0]	n/a	catFR1	1	R1235E
4088.283	0.934	4095073	WORD_OFF	n/a	n/a	ORGAN	n/a	1	24	[0, 0, 0]	n/a	catFR1	1	R1235E
4089.217	1.618	4096007	WORD	n/a	wordpools/wordpool_categorized_EN.txt	TUBA	Instruments	2	24	[0, 0, 0]	n/a	catFR1	1	R1235E
4090.835	0.8	4097625	WORD_OFF	n/a	n/a	TUBA	n/a	2	24	[0, 0, 0]	n/a	catFR1	1	R1235E
4091.635	1.616	4098425	WORD	n/a	wordpools/wordpool_categorized_EN.txt	LILAC	Flowers	3	24	[0, 0, 0]	n/a	catFR1	1	R1235E
4093.251	1.0	4100041	WORD_OFF	n/a	n/a	LILAC	n/a	3	24	[0, 0, 0]	n/a	catFR1	1	R1235E
4094.251	1.601	4101041	WORD	n/a	wordpools/wordpool_categorized_EN.txt	DAISY	Flowers	4	24	[0, 0, 0]	n/a	catFR1	1	R1235E
4095.852	0.784	4102642	WORD_OFF	n/a	n/a	DAISY	n/a	4	24	[0, 0, 0]	n/a	catFR1	1	R1235E
4096.636	1.616	4103426	WORD	n/a	wordpools/wordpool_categorized_EN.txt	CORKSCREW	KitchenTools	5	24	[0, 0, 0]	n/a	catFR1	1	R1235E
4098.252	0.833	4105042	WORD_OFF	n/a	n/a	CORKSCREW	n/a	5	24	[0, 0, 0]	n/a	catFR1	1	R1235E
4099.085	1.601	4105875	WORD	n/a	wordpools/wordpool_categorized_EN.txt	STRAINER	KitchenTools	6	24	[0, 0, 0]	n/a	catFR1	1	R1235E
4100.686	0.834	4107475	WORD_OFF	n/a	n/a	STRAINER	n/a	6	24	[0, 0, 0]	n/a	catFR1	1	R1235E
4101.52	1.616	4108309	WORD	n/a	wordpools/wordpool_categorized_EN.txt	PETUNIA	Flowers	7	24	[0, 0, 0]	n/a	catFR1	1	R1235E
4103.136	0.816	4109925	WORD_OFF	n/a	n/a	PETUNIA	n/a	7	24	[0, 0, 0]	n/a	catFR1	1	R1235E
4103.952	1.602	4110741	WORD	n/a	wordpools/wordpool_categorized_EN.txt	VIOLET	Flowers	8	24	[0, 0, 0]	n/a	catFR1	1	R1235E
4105.554	0.833	4112343	WORD_OFF	n/a	n/a	VIOLET	n/a	8	24	[0, 0, 0]	n/a	catFR1	1	R1235E
4106.387	1.616	4113176	WORD	n/a	wordpools/wordpool_categorized_EN.txt	FLUTE	Instruments	9	24	[0, 0, 0]	n/a	catFR1	1	R1235E
4108.003	0.835	4114792	WORD_OFF	n/a	n/a	FLUTE	n/a	9	24	[0, 0, 0]	n/a	catFR1	1	R1235E
4108.838	1.617	4115627	WORD	n/a	wordpools/wordpool_categorized_EN.txt	DRUM	Instruments	10	24	[0, 0, 0]	n/a	catFR1	1	R1235E
4110.455	0.866	4117244	WORD_OFF	n/a	n/a	DRUM	n/a	10	24	[0, 0, 0]	n/a	catFR1	1	R1235E
4111.321	1.617	4118110	WORD	n/a	wordpools/wordpool_categorized_EN.txt	LADLE	KitchenTools	11	24	[0, 0, 0]	n/a	catFR1	1	R1235E
4112.938	0.966	4119727	WORD_OFF	n/a	n/a	LADLE	n/a	11	24	[0, 0, 0]	n/a	catFR1	1	R1235E
4113.904	1.618	4120693	WORD	n/a	wordpools/wordpool_categorized_EN.txt	FORK	KitchenTools	12	24	[0, 0, 0]	n/a	catFR1	1	R1235E
4115.522	0.001	4122311	WORD_OFF	n/a	n/a	FORK	n/a	12	24	[0, 0, 0]	n/a	catFR1	1	R1235E
4115.523	0.132	4122312	ENCODING_END	n/a	n/a	n/a	n/a	-999	24	[0, 0, 0]	n/a	catFR1	1	R1235E
4115.655	0.0	4122444	DISTRACT_START	n/a	n/a	n/a	n/a	-999	24	[0, 0, 0]	n/a	catFR1	1	R1235E
4115.655	0.017	4122444	START	n/a	n/a	n/a	n/a	-999	24	[-999, -999, -999]	n/a	catFR1	1	R1235E
4115.672	33.369	4122461	PROB	33.369	n/a	n/a	n/a	-999	24	[4, 2, 9]	15	catFR1	1	R1235E
4149.041	0.02	4155829	STOP	n/a	n/a	n/a	n/a	-999	24	[-999, -999, -999]	n/a	catFR1	1	R1235E
4149.061	0.534	4155849	DISTRACT_END	n/a	n/a	n/a	n/a	-999	24	[0, 0, 0]	n/a	catFR1	1	R1235E
4149.595	0.517	4156383	RETRIEVAL_ORIENT	n/a	n/a	n/a	n/a	-999	24	[0, 0, 0]	n/a	catFR1	1	R1235E
4150.112	3.96	4156900	REC_START	n/a	n/a	n/a	n/a	-999	24	[0, 0, 0]	n/a	catFR1	1	R1235E
4154.072	4.256	4160859	REC_WORD_VV	4.256	n/a	<>	n/a	-999	24	[0, 0, 0]	n/a	catFR1	1	R1235E
4158.328	1.459	4165115	REC_WORD	1.459	n/a	CORKSCREW	KitchenTools	5	24	[0, 0, 0]	n/a	catFR1	1	R1235E
4159.787	13.708	4166574	REC_WORD	13.708	n/a	LADLE	KitchenTools	11	24	[0, 0, 0]	n/a	catFR1	1	R1235E
4173.495	6.626	4180282	REC_WORD_VV	6.626	n/a	<>	n/a	-999	24	[0, 0, 0]	n/a	catFR1	1	R1235E
4180.121	9.847	4186907	REC_END	n/a	n/a	n/a	n/a	-999	24	[0, 0, 0]	n/a	catFR1	1	R1235E
4189.968	0.5	4196754	TRIAL	n/a	n/a	n/a	n/a	-999	25	[0, 0, 0]	n/a	catFR1	1	R1235E
4190.468	10.428	4197254	COUNTDOWN_START	n/a	n/a	n/a	n/a	-999	25	[0, 0, 0]	n/a	catFR1	1	R1235E
4200.896	0.007	4207682	COUNTDOWN_END	n/a	n/a	n/a	n/a	-999	25	[0, 0, 0]	n/a	catFR1	1	R1235E
4200.903	1.618	4207689	ORIENT	n/a	n/a	n/a	n/a	-999	25	[0, 0, 0]	n/a	catFR1	1	R1235E
4202.521	2.301	4209307	ORIENT_OFF	n/a	n/a	n/a	n/a	-999	25	[0, 0, 0]	n/a	catFR1	1	R1235E
4204.822	1.616	4211607	WORD	n/a	wordpools/wordpool_categorized_EN.txt	BEE	Insects	1	25	[0, 0, 0]	n/a	catFR1	1	R1235E
4206.438	0.916	4213223	WORD_OFF	n/a	n/a	BEE	n/a	1	25	[0, 0, 0]	n/a	catFR1	1	R1235E
4207.354	1.617	4214139	WORD	n/a	wordpools/wordpool_categorized_EN.txt	CRICKET	Insects	2	25	[0, 0, 0]	n/a	catFR1	1	R1235E
4208.971	0.801	4215756	WORD_OFF	n/a	n/a	CRICKET	n/a	2	25	[0, 0, 0]	n/a	catFR1	1	R1235E
4209.772	1.616	4216557	WORD	n/a	wordpools/wordpool_categorized_EN.txt	HEAD	BodyParts	3	25	[0, 0, 0]	n/a	catFR1	1	R1235E
4211.388	0.834	4218173	WORD_OFF	n/a	n/a	HEAD	n/a	3	25	[0, 0, 0]	n/a	catFR1	1	R1235E
4212.222	1.618	4219007	WORD	n/a	wordpools/wordpool_categorized_EN.txt	ARM	BodyParts	4	25	[0, 0, 0]	n/a	catFR1	1	R1235E
4213.84	0.983	4220625	WORD_OFF	n/a	n/a	ARM	n/a	4	25	[0, 0, 0]	n/a	catFR1	1	R1235E
4214.823	1.617	4221608	WORD	n/a	wordpools/wordpool_categorized_EN.txt	ROBIN	Birds	5	25	[0, 0, 0]	n/a	catFR1	1	R1235E
4216.44	0.866	4223225	WORD_OFF	n/a	n/a	ROBIN	n/a	5	25	[0, 0, 0]	n/a	catFR1	1	R1235E
