onset	duration	sample	trial_type	response_time	stim_file	item_name	category	serialpos	list	test	answer	experiment	session	subject
0.0	702.809	2085	INSTRUCT_START	n/a	n/a	n/a	n/a	-999	-999	[0, 0, 0]	n/a	catFR1	0	R1317D
702.809	3.583	704857	INSTRUCT_END	n/a	n/a	n/a	n/a	-999	-999	[0, 0, 0]	n/a	catFR1	0	R1317D
706.392	10.606	708440	MIC TEST_START	n/a	n/a	n/a	n/a	-999	-999	[0, 0, 0]	n/a	catFR1	0	R1317D
716.998	0.013	719045	MIC TEST_END	n/a	n/a	n/a	n/a	-999	-999	[0, 0, 0]	n/a	catFR1	0	R1317D
717.011	0.0	719058	TRIAL_START	n/a	n/a	n/a	n/a	-999	-1	[0, 0, 0]	n/a	catFR1	0	R1317D
717.011	0.0	719058	TRIAL	n/a	n/a	n/a	n/a	-999	-1	[0, 0, 0]	n/a	catFR1	0	R1317D
717.011	9.201	719058	WAITING_START	n/a	n/a	n/a	n/a	-999	-1	[0, 0, 0]	n/a	catFR1	0	R1317D
726.212	10.0	728259	COUNTDOWN_START	n/a	n/a	n/a	n/a	-999	-1	[0, 0, 0]	n/a	catFR1	0	R1317D
726.212	10.43	728259	WAITING_END	n/a	n/a	n/a	n/a	-999	-1	[0, 0, 0]	n/a	catFR1	0	R1317D
736.642	0.0	738688	COUNTDOWN_END	n/a	n/a	n/a	n/a	-999	-1	[0, 0, 0]	n/a	catFR1	0	R1317D
736.642	1.156	738688	ORIENT_START	n/a	n/a	n/a	n/a	-999	-1	[0, 0, 0]	n/a	catFR1	0	R1317D
737.798	0.0	739844	ORIENT_END	n/a	n/a	n/a	n/a	-999	-1	[0, 0, 0]	n/a	catFR1	0	R1317D
737.798	0.845	739844	ENCODING_START	n/a	n/a	n/a	n/a	-999	-1	[0, 0, 0]	n/a	catFR1	0	R1317D
738.643	1.6	740689	WORD	n/a	n/a	DAY	n/a	1	-1	[0, 0, 0]	n/a	catFR1	0	R1317D
740.264	0.784	742310	WORD_OFF	n/a	n/a	DAY	n/a	1	-1	[0, 0, 0]	n/a	catFR1	0	R1317D
741.048	1.6	743094	WORD	n/a	n/a	TEACHER	n/a	2	-1	[0, 0, 0]	n/a	catFR1	0	R1317D
742.682	1.127	744728	WORD_OFF	n/a	n/a	TEACHER	n/a	2	-1	[0, 0, 0]	n/a	catFR1	0	R1317D
743.809	1.6	745855	WORD	n/a	n/a	FARMER	n/a	3	-1	[0, 0, 0]	n/a	catFR1	0	R1317D
745.416	1.07	747462	WORD_OFF	n/a	n/a	FARMER	n/a	3	-1	[0, 0, 0]	n/a	catFR1	0	R1317D
746.486	1.6	748532	WORD	n/a	n/a	LEATHER	n/a	4	-1	[0, 0, 0]	n/a	catFR1	0	R1317D
748.115	0.99	750161	WORD_OFF	n/a	n/a	LEATHER	n/a	4	-1	[0, 0, 0]	n/a	catFR1	0	R1317D
749.105	1.6	751151	WORD	n/a	n/a	SECOND	n/a	5	-1	[0, 0, 0]	n/a	catFR1	0	R1317D
750.717	0.872	752763	WORD_OFF	n/a	n/a	SECOND	n/a	5	-1	[0, 0, 0]	n/a	catFR1	0	R1317D
751.589	1.6	753635	WORD	n/a	n/a	PLUMBER	n/a	6	-1	[0, 0, 0]	n/a	catFR1	0	R1317D
753.216	1.083	755261	WORD_OFF	n/a	n/a	PLUMBER	n/a	6	-1	[0, 0, 0]	n/a	catFR1	0	R1317D
754.299	1.6	756344	WORD	n/a	n/a	MINUTE	n/a	7	-1	[0, 0, 0]	n/a	catFR1	0	R1317D
755.934	0.782	757979	WORD_OFF	n/a	n/a	MINUTE	n/a	7	-1	[0, 0, 0]	n/a	catFR1	0	R1317D
756.716	1.6	758761	WORD	n/a	n/a	FIREMAN	n/a	8	-1	[0, 0, 0]	n/a	catFR1	0	R1317D
758.351	0.827	760396	WORD_OFF	n/a	n/a	FIREMAN	n/a	8	-1	[0, 0, 0]	n/a	catFR1	0	R1317D
759.178	1.6	761223	WORD	n/a	n/a	SILK	n/a	9	-1	[0, 0, 0]	n/a	catFR1	0	R1317D
760.802	1.017	762847	WORD_OFF	n/a	n/a	SILK	n/a	9	-1	[0, 0, 0]	n/a	catFR1	0	R1317D
761.819	1.6	763864	WORD	n/a	n/a	WOOL	n/a	10	-1	[0, 0, 0]	n/a	catFR1	0	R1317D
763.452	0.992	765497	WORD_OFF	n/a	n/a	WOOL	n/a	10	-1	[0, 0, 0]	n/a	catFR1	0	R1317D
764.444	1.6	766489	WORD	n/a	n/a	DENIM	n/a	11	-1	[0, 0, 0]	n/a	catFR1	0	R1317D
766.07	1.022	768115	WORD_OFF	n/a	n/a	DENIM	n/a	11	-1	[0, 0, 0]	n/a	catFR1	0	R1317D
767.092	1.6	769137	WORD	n/a	n/a	HOUR	n/a	12	-1	[0, 0, 0]	n/a	catFR1	0	R1317D
768.72	0.001	770765	WORD_OFF	n/a	n/a	HOUR	n/a	12	-1	[0, 0, 0]	n/a	catFR1	0	R1317D
768.721	0.0	770766	DISTRACT_START	n/a	n/a	n/a	n/a	-999	-1	[0, 0, 0]	n/a	catFR1	0	R1317D
768.721	0.0	770766	ENCODING_END	n/a	n/a	n/a	n/a	-999	-1	[0, 0, 0]	n/a	catFR1	0	R1317D
768.721	0.016	770766	START	n/a	n/a	n/a	n/a	-999	-1	[-999, -999, -999]	n/a	catFR1	0	R1317D
768.737	4.616	770782	PROB	4.581	n/a	n/a	n/a	-999	-1	[4, 9, 2]	15.0	catFR1	0	R1317D
773.353	6.102	775397	PROB	6.066	n/a	n/a	n/a	-999	-1	[5, 6, 7]	18.0	catFR1	0	R1317D
779.455	4.817	781499	PROB	4.791	n/a	n/a	n/a	-999	-1	[3, 9, 2]	14.0	catFR1	0	R1317D
784.272	5.455	786316	PROB	5.455	n/a	n/a	n/a	-999	-1	[4, 6, 9]	19.0	catFR1	0	R1317D
789.727	0.014	791771	STOP	n/a	n/a	n/a	n/a	-999	-1	[-999, -999, -999]	n/a	catFR1	0	R1317D
789.741	0.582	791785	DISTRACT_END	n/a	n/a	n/a	n/a	-999	-1	[0, 0, 0]	n/a	catFR1	0	R1317D
790.323	1.6	792366	RETRIEVAL_ORIENT_START	n/a	n/a	n/a	n/a	-999	-1	[0, 0, 0]	n/a	catFR1	0	R1317D
792.024	0.001	794067	RETRIEVAL_ORIENT_END	n/a	n/a	n/a	n/a	-999	-1	[0, 0, 0]	n/a	catFR1	0	R1317D
792.025	1.912	794068	REC_START	n/a	n/a	n/a	n/a	-999	-1	[0, 0, 0]	n/a	catFR1	0	R1317D
793.937	0.866	795980	REC_WORD	1.912	n/a	TEACHER	n/a	2	-1	[0, 0, 0]	n/a	catFR1	0	R1317D
794.803	2.239	796846	REC_WORD	2.778	n/a	FIREMAN	n/a	8	-1	[0, 0, 0]	n/a	catFR1	0	R1317D
797.042	1.956	799085	REC_WORD	5.017	n/a	LEATHER	n/a	4	-1	[0, 0, 0]	n/a	catFR1	0	R1317D
798.998	23.039	801041	REC_WORD	6.973	n/a	DENIM	n/a	11	-1	[0, 0, 0]	n/a	catFR1	0	R1317D
822.037	0.0	824079	PRACTICE_POST_INSTRUCT_START	n/a	n/a	n/a	n/a	-999	-1	[0, 0, 0]	n/a	catFR1	0	R1317D
822.037	7.244	824079	REC_END	n/a	n/a	n/a	n/a	-999	-1	[0, 0, 0]	n/a	catFR1	0	R1317D
829.281	0.0	831322	PRACTICE_POST_INSTRUCT_END	n/a	n/a	n/a	n/a	-999	-1	[0, 0, 0]	n/a	catFR1	0	R1317D
829.281	0.025	831322	TRIAL_END	n/a	n/a	n/a	n/a	-999	-1	[0, 0, 0]	n/a	catFR1	0	R1317D
829.306	0.0	831347	TRIAL_START	n/a	n/a	n/a	n/a	-999	1	[0, 0, 0]	n/a	catFR1	0	R1317D
829.306	0.0	831347	TRIAL	n/a	n/a	n/a	n/a	-999	1	[0, 0, 0]	n/a	catFR1	0	R1317D
829.306	4.443	831347	WAITING_START	n/a	n/a	n/a	n/a	-999	1	[0, 0, 0]	n/a	catFR1	0	R1317D
833.749	0.0	835790	WAITING_END	n/a	n/a	n/a	n/a	-999	1	[0, 0, 0]	n/a	catFR1	0	R1317D
833.749	10.0	835790	COUNTDOWN_START	n/a	n/a	n/a	n/a	-999	1	[0, 0, 0]	n/a	catFR1	0	R1317D
844.179	0.001	846220	COUNTDOWN_END	n/a	n/a	n/a	n/a	-999	1	[0, 0, 0]	n/a	catFR1	0	R1317D
844.18	1.037	846221	ORIENT_START	n/a	n/a	n/a	n/a	-999	1	[0, 0, 0]	n/a	catFR1	0	R1317D
845.217	0.0	847258	ORIENT_END	n/a	n/a	n/a	n/a	-999	1	[0, 0, 0]	n/a	catFR1	0	R1317D
845.217	0.911	847258	ENCODING_START	n/a	n/a	n/a	n/a	-999	1	[0, 0, 0]	n/a	catFR1	0	R1317D
846.128	1.6	848169	WORD	n/a	wordpools/wordpool_categorized_EN.txt	GOOSE	Birds	1	1	[0, 0, 0]	n/a	catFR1	0	R1317D
847.768	0.942	849808	WORD_OFF	n/a	n/a	GOOSE	Birds	1	1	[0, 0, 0]	n/a	catFR1	0	R1317D
848.71	1.6	850750	WORD	n/a	wordpools/wordpool_categorized_EN.txt	PIGEON	Birds	2	1	[0, 0, 0]	n/a	catFR1	0	R1317D
850.334	1.111	852374	WORD_OFF	n/a	n/a	PIGEON	Birds	2	1	[0, 0, 0]	n/a	catFR1	0	R1317D
851.445	1.6	853485	WORD	n/a	wordpools/wordpool_categorized_EN.txt	RAIN	Weather	3	1	[0, 0, 0]	n/a	catFR1	0	R1317D
853.069	0.891	855109	WORD_OFF	n/a	n/a	RAIN	Weather	3	1	[0, 0, 0]	n/a	catFR1	0	R1317D
853.96	1.6	856000	WORD	n/a	wordpools/wordpool_categorized_EN.txt	SNOW	Weather	4	1	[0, 0, 0]	n/a	catFR1	0	R1317D
855.586	1.128	857626	WORD_OFF	n/a	n/a	SNOW	Weather	4	1	[0, 0, 0]	n/a	catFR1	0	R1317D
856.714	1.6	858754	WORD	n/a	wordpools/wordpool_categorized_EN.txt	CHEETAH	Zoo	5	1	[0, 0, 0]	n/a	catFR1	0	R1317D
858.336	0.995	860376	WORD_OFF	n/a	n/a	CHEETAH	Zoo	5	1	[0, 0, 0]	n/a	catFR1	0	R1317D
859.331	1.6	861371	WORD	n/a	wordpools/wordpool_categorized_EN.txt	CHIMPANZEE	Zoo	6	1	[0, 0, 0]	n/a	catFR1	0	R1317D
860.97	1.121	863010	WORD_OFF	n/a	n/a	CHIMPANZEE	Zoo	6	1	[0, 0, 0]	n/a	catFR1	0	R1317D
862.091	1.6	864131	WORD	n/a	wordpools/wordpool_categorized_EN.txt	HURRICANE	Weather	7	1	[0, 0, 0]	n/a	catFR1	0	R1317D
863.721	0.855	865761	WORD_OFF	n/a	n/a	HURRICANE	Weather	7	1	[0, 0, 0]	n/a	catFR1	0	R1317D
864.576	1.6	866616	WORD	n/a	wordpools/wordpool_categorized_EN.txt	CLOUD	Weather	8	1	[0, 0, 0]	n/a	catFR1	0	R1317D
866.204	0.949	868243	WORD_OFF	n/a	n/a	CLOUD	Weather	8	1	[0, 0, 0]	n/a	catFR1	0	R1317D
867.153	1.6	869192	WORD	n/a	wordpools/wordpool_categorized_EN.txt	ORANGUTAN	Zoo	9	1	[0, 0, 0]	n/a	catFR1	0	R1317D
868.771	1.144	870810	WORD_OFF	n/a	n/a	ORANGUTAN	Zoo	9	1	[0, 0, 0]	n/a	catFR1	0	R1317D
869.915	1.6	871954	WORD	n/a	wordpools/wordpool_categorized_EN.txt	PANDA	Zoo	10	1	[0, 0, 0]	n/a	catFR1	0	R1317D
871.539	1.086	873578	WORD_OFF	n/a	n/a	PANDA	Zoo	10	1	[0, 0, 0]	n/a	catFR1	0	R1317D
872.625	1.6	874664	WORD	n/a	wordpools/wordpool_categorized_EN.txt	ROBIN	Birds	11	1	[0, 0, 0]	n/a	catFR1	0	R1317D
874.255	0.843	876294	WORD_OFF	n/a	n/a	ROBIN	Birds	11	1	[0, 0, 0]	n/a	catFR1	0	R1317D
875.098	1.6	877137	WORD	n/a	wordpools/wordpool_categorized_EN.txt	SPARROW	Birds	12	1	[0, 0, 0]	n/a	catFR1	0	R1317D
876.723	0.001	878762	WORD_OFF	n/a	n/a	SPARROW	Birds	12	1	[0, 0, 0]	n/a	catFR1	0	R1317D
876.724	0.0	878763	DISTRACT_START	n/a	n/a	n/a	n/a	-999	1	[0, 0, 0]	n/a	catFR1	0	R1317D
876.724	0.0	878763	ENCODING_END	n/a	n/a	n/a	n/a	-999	1	[0, 0, 0]	n/a	catFR1	0	R1317D
876.724	0.016	878763	START	n/a	n/a	n/a	n/a	-999	1	[-999, -999, -999]	n/a	catFR1	0	R1317D
876.74	7.834	878779	PROB	7.806	n/a	n/a	n/a	-999	1	[6, 7, 7]	20.0	catFR1	0	R1317D
884.574	3.151	886613	PROB	3.124	n/a	n/a	n/a	-999	1	[1, 1, 7]	9.0	catFR1	0	R1317D
887.725	10.273	889763	PROB	10.273	n/a	n/a	n/a	-999	1	[8, 9, 8]	25.0	catFR1	0	R1317D
897.998	0.012	900036	STOP	n/a	n/a	n/a	n/a	-999	1	[-999, -999, -999]	n/a	catFR1	0	R1317D
898.01	0.586	900048	DISTRACT_END	n/a	n/a	n/a	n/a	-999	1	[0, 0, 0]	n/a	catFR1	0	R1317D
898.596	1.6	900634	RETRIEVAL_ORIENT_START	n/a	n/a	n/a	n/a	-999	1	[0, 0, 0]	n/a	catFR1	0	R1317D
900.293	0.0	902331	RETRIEVAL_ORIENT_END	n/a	n/a	n/a	n/a	-999	1	[0, 0, 0]	n/a	catFR1	0	R1317D
900.293	2.521	902331	REC_START	n/a	n/a	n/a	n/a	-999	1	[0, 0, 0]	n/a	catFR1	0	R1317D
902.814	2.315	904852	REC_WORD	2.521	n/a	CHEETAH	Zoo	5	1	[0, 0, 0]	n/a	catFR1	0	R1317D
905.129	2.318	907166	REC_WORD	4.836	n/a	SNOW	Weather	4	1	[0, 0, 0]	n/a	catFR1	0	R1317D
907.447	1.137	909484	REC_WORD	7.154	n/a	GEESE	n/a	-999	1	[0, 0, 0]	n/a	catFR1	0	R1317D
908.584	6.662	910621	REC_WORD	8.291	n/a	ORANGUTAN	Zoo	9	1	[0, 0, 0]	n/a	catFR1	0	R1317D
915.246	5.455	917283	REC_WORD	14.953	n/a	CHIMPANZEE	Zoo	6	1	[0, 0, 0]	n/a	catFR1	0	R1317D
920.701	9.605	922738	REC_WORD	20.408	n/a	SPARROW	Birds	12	1	[0, 0, 0]	n/a	catFR1	0	R1317D
930.306	0.0	932342	REC_END	n/a	n/a	n/a	n/a	-999	1	[0, 0, 0]	n/a	catFR1	0	R1317D
930.306	0.023	932342	TRIAL_END	n/a	n/a	n/a	n/a	-999	1	[0, 0, 0]	n/a	catFR1	0	R1317D
930.329	0.0	932365	TRIAL_START	n/a	n/a	n/a	n/a	-999	2	[0, 0, 0]	n/a	catFR1	0	R1317D
930.329	0.001	932365	TRIAL	n/a	n/a	n/a	n/a	-999	2	[0, 0, 0]	n/a	catFR1	0	R1317D
930.33	2.47	932366	WAITING_START	n/a	n/a	n/a	n/a	-999	2	[0, 0, 0]	n/a	catFR1	0	R1317D
932.8	0.0	934836	WAITING_END	n/a	n/a	n/a	n/a	-999	2	[0, 0, 0]	n/a	catFR1	0	R1317D
932.8	10.0	934836	COUNTDOWN_START	n/a	n/a	n/a	n/a	-999	2	[0, 0, 0]	n/a	catFR1	0	R1317D
943.229	0.0	945264	COUNTDOWN_END	n/a	n/a	n/a	n/a	-999	2	[0, 0, 0]	n/a	catFR1	0	R1317D
943.229	1.089	945264	ORIENT_START	n/a	n/a	n/a	n/a	-999	2	[0, 0, 0]	n/a	catFR1	0	R1317D
944.318	0.0	946353	ENCODING_START	n/a	n/a	n/a	n/a	-999	2	[0, 0, 0]	n/a	catFR1	0	R1317D
944.318	1.09	946353	ORIENT_END	n/a	n/a	n/a	n/a	-999	2	[0, 0, 0]	n/a	catFR1	0	R1317D
945.408	1.6	947443	WORD	n/a	wordpools/wordpool_categorized_EN.txt	DOOR	Building	1	2	[0, 0, 0]	n/a	catFR1	0	R1317D
947.036	0.934	949071	WORD_OFF	n/a	n/a	DOOR	Building	1	2	[0, 0, 0]	n/a	catFR1	0	R1317D
947.97	1.6	950005	WORD	n/a	wordpools/wordpool_categorized_EN.txt	WINDOW	Building	2	2	[0, 0, 0]	n/a	catFR1	0	R1317D
949.603	0.888	951638	WORD_OFF	n/a	n/a	WINDOW	Building	2	2	[0, 0, 0]	n/a	catFR1	0	R1317D
950.491	1.6	952526	WORD	n/a	wordpools/wordpool_categorized_EN.txt	MARBLES	Toys	3	2	[0, 0, 0]	n/a	catFR1	0	R1317D
952.119	0.877	954154	WORD_OFF	n/a	n/a	MARBLES	Toys	3	2	[0, 0, 0]	n/a	catFR1	0	R1317D
952.996	1.6	955031	WORD	n/a	wordpools/wordpool_categorized_EN.txt	FRISBEE	Toys	4	2	[0, 0, 0]	n/a	catFR1	0	R1317D
954.621	0.778	956656	WORD_OFF	n/a	n/a	FRISBEE	Toys	4	2	[0, 0, 0]	n/a	catFR1	0	R1317D
955.399	1.6	957434	WORD	n/a	wordpools/wordpool_categorized_EN.txt	WILLOW	Trees	5	2	[0, 0, 0]	n/a	catFR1	0	R1317D
957.021	1.033	959056	WORD_OFF	n/a	n/a	WILLOW	Trees	5	2	[0, 0, 0]	n/a	catFR1	0	R1317D
958.054	1.6	960089	WORD	n/a	wordpools/wordpool_categorized_EN.txt	ELM	Trees	6	2	[0, 0, 0]	n/a	catFR1	0	R1317D
959.688	1.146	961723	WORD_OFF	n/a	n/a	ELM	Trees	6	2	[0, 0, 0]	n/a	catFR1	0	R1317D
960.834	1.6	962868	WORD	n/a	wordpools/wordpool_categorized_EN.txt	BASKETBALL	Toys	7	2	[0, 0, 0]	n/a	catFR1	0	R1317D
962.472	0.829	964506	WORD_OFF	n/a	n/a	BASKETBALL	Toys	7	2	[0, 0, 0]	n/a	catFR1	0	R1317D
963.301	1.6	965335	WORD	n/a	wordpools/wordpool_categorized_EN.txt	DOLLHOUSE	Toys	8	2	[0, 0, 0]	n/a	catFR1	0	R1317D
964.922	0.892	966956	WORD_OFF	n/a	n/a	DOLLHOUSE	Toys	8	2	[0, 0, 0]	n/a	catFR1	0	R1317D
965.814	1.6	967848	WORD	n/a	wordpools/wordpool_categorized_EN.txt	WALL	Building	9	2	[0, 0, 0]	n/a	catFR1	0	R1317D
967.44	0.858	969474	WORD_OFF	n/a	n/a	WALL	Building	9	2	[0, 0, 0]	n/a	catFR1	0	R1317D
968.298	1.6	970332	WORD	n/a	wordpools/wordpool_categorized_EN.txt	STAIRS	Building	10	2	[0, 0, 0]	n/a	catFR1	0	R1317D
969.907	1.145	971941	WORD_OFF	n/a	n/a	STAIRS	Building	10	2	[0, 0, 0]	n/a	catFR1	0	R1317D
971.052	1.6	973086	WORD	n/a	wordpools/wordpool_categorized_EN.txt	SPRUCE	Trees	11	2	[0, 0, 0]	n/a	catFR1	0	R1317D
972.691	0.81	974725	WORD_OFF	n/a	n/a	SPRUCE	Trees	11	2	[0, 0, 0]	n/a	catFR1	0	R1317D
973.501	1.6	975535	WORD	n/a	wordpools/wordpool_categorized_EN.txt	PINE	Trees	12	2	[0, 0, 0]	n/a	catFR1	0	R1317D
975.123	0.001	977157	WORD_OFF	n/a	n/a	PINE	Trees	12	2	[0, 0, 0]	n/a	catFR1	0	R1317D
975.124	0.0	977158	ENCODING_END	n/a	n/a	n/a	n/a	-999	2	[0, 0, 0]	n/a	catFR1	0	R1317D
975.124	0.0	977158	DISTRACT_START	n/a	n/a	n/a	n/a	-999	2	[0, 0, 0]	n/a	catFR1	0	R1317D
975.124	0.016	977158	START	n/a	n/a	n/a	n/a	-999	2	[-999, -999, -999]	n/a	catFR1	0	R1317D
975.14	4.101	977174	PROB	4.068	n/a	n/a	n/a	-999	2	[4, 4, 3]	11.0	catFR1	0	R1317D
979.241	3.451	981274	PROB	3.416	n/a	n/a	n/a	-999	2	[4, 1, 5]	1.0	catFR1	0	R1317D
982.692	4.834	984725	PROB	4.803	n/a	n/a	n/a	-999	2	[3, 3, 1]	7.0	catFR1	0	R1317D
987.526	8.871	989559	PROB	8.871	n/a	n/a	n/a	-999	2	[7, 7, 8]	22.0	catFR1	0	R1317D
996.397	0.015	998430	STOP	n/a	n/a	n/a	n/a	-999	2	[-999, -999, -999]	n/a	catFR1	0	R1317D
996.412	0.592	998445	DISTRACT_END	n/a	n/a	n/a	n/a	-999	2	[0, 0, 0]	n/a	catFR1	0	R1317D
997.004	1.6	999037	RETRIEVAL_ORIENT_START	n/a	n/a	n/a	n/a	-999	2	[0, 0, 0]	n/a	catFR1	0	R1317D
998.662	0.001	1000694	RETRIEVAL_ORIENT_END	n/a	n/a	n/a	n/a	-999	2	[0, 0, 0]	n/a	catFR1	0	R1317D
998.663	1.665	1000695	REC_START	n/a	n/a	n/a	n/a	-999	2	[0, 0, 0]	n/a	catFR1	0	R1317D
1000.328	1.637	1002360	REC_WORD	1.665	n/a	SPRUCE	Trees	11	2	[0, 0, 0]	n/a	catFR1	0	R1317D
1001.965	3.618	1003997	REC_WORD	3.302	n/a	WILLOW	Trees	5	2	[0, 0, 0]	n/a	catFR1	0	R1317D
1005.583	2.407	1007615	REC_WORD	6.92	n/a	WALL	Building	9	2	[0, 0, 0]	n/a	catFR1	0	R1317D
1007.99	2.0	1010022	REC_WORD	9.327	n/a	PINE	Trees	12	2	[0, 0, 0]	n/a	catFR1	0	R1317D
1009.99	3.896	1012022	REC_WORD	11.327	n/a	STAIRS	Building	10	2	[0, 0, 0]	n/a	catFR1	0	R1317D
1013.886	0.165	1015918	REC_WORD_VV	15.223	n/a	<>	n/a	-999	2	[0, 0, 0]	n/a	catFR1	0	R1317D
1014.051	14.625	1016083	REC_WORD	15.388	n/a	WINDOW	Building	2	2	[0, 0, 0]	n/a	catFR1	0	R1317D
1028.676	0.001	1030707	REC_END	n/a	n/a	n/a	n/a	-999	2	[0, 0, 0]	n/a	catFR1	0	R1317D
1028.677	0.024	1030708	TRIAL_END	n/a	n/a	n/a	n/a	-999	2	[0, 0, 0]	n/a	catFR1	0	R1317D
1028.701	0.0	1030732	TRIAL_START	n/a	n/a	n/a	n/a	-999	3	[0, 0, 0]	n/a	catFR1	0	R1317D
1028.701	0.0	1030732	TRIAL	n/a	n/a	n/a	n/a	-999	3	[0, 0, 0]	n/a	catFR1	0	R1317D
1028.701	1.917	1030732	WAITING_START	n/a	n/a	n/a	n/a	-999	3	[0, 0, 0]	n/a	catFR1	0	R1317D
1030.618	0.0	1032649	WAITING_END	n/a	n/a	n/a	n/a	-999	3	[0, 0, 0]	n/a	catFR1	0	R1317D
1030.618	10.0	1032649	COUNTDOWN_START	n/a	n/a	n/a	n/a	-999	3	[0, 0, 0]	n/a	catFR1	0	R1317D
1041.047	0.001	1043077	COUNTDOWN_END	n/a	n/a	n/a	n/a	-999	3	[0, 0, 0]	n/a	catFR1	0	R1317D
1041.048	1.088	1043078	ORIENT_START	n/a	n/a	n/a	n/a	-999	3	[0, 0, 0]	n/a	catFR1	0	R1317D
1042.136	0.0	1044166	ENCODING_START	n/a	n/a	n/a	n/a	-999	3	[0, 0, 0]	n/a	catFR1	0	R1317D
1042.136	1.004	1044166	ORIENT_END	n/a	n/a	n/a	n/a	-999	3	[0, 0, 0]	n/a	catFR1	0	R1317D
1043.14	1.6	1045170	WORD	n/a	wordpools/wordpool_categorized_EN.txt	DRYER	Appliances	1	3	[0, 0, 0]	n/a	catFR1	0	R1317D
1044.754	0.937	1046784	WORD_OFF	n/a	n/a	DRYER	Appliances	1	3	[0, 0, 0]	n/a	catFR1	0	R1317D
1045.691	1.6	1047721	WORD	n/a	wordpools/wordpool_categorized_EN.txt	OVEN	Appliances	2	3	[0, 0, 0]	n/a	catFR1	0	R1317D
1047.32	0.963	1049350	WORD_OFF	n/a	n/a	OVEN	Appliances	2	3	[0, 0, 0]	n/a	catFR1	0	R1317D
1048.283	1.6	1050313	WORD	n/a	wordpools/wordpool_categorized_EN.txt	FLUTE	Instruments	3	3	[0, 0, 0]	n/a	catFR1	0	R1317D
1049.921	1.044	1051951	WORD_OFF	n/a	n/a	FLUTE	Instruments	3	3	[0, 0, 0]	n/a	catFR1	0	R1317D
1050.965	1.6	1052995	WORD	n/a	wordpools/wordpool_categorized_EN.txt	BANJO	Instruments	4	3	[0, 0, 0]	n/a	catFR1	0	R1317D
1052.589	1.033	1054619	WORD_OFF	n/a	n/a	BANJO	Instruments	4	3	[0, 0, 0]	n/a	catFR1	0	R1317D
1053.622	1.6	1055652	WORD	n/a	wordpools/wordpool_categorized_EN.txt	WHISK	KitchenTools	5	3	[0, 0, 0]	n/a	catFR1	0	R1317D
1055.255	0.849	1057284	WORD_OFF	n/a	n/a	WHISK	KitchenTools	5	3	[0, 0, 0]	n/a	catFR1	0	R1317D
1056.104	1.6	1058133	WORD	n/a	wordpools/wordpool_categorized_EN.txt	LADLE	KitchenTools	6	3	[0, 0, 0]	n/a	catFR1	0	R1317D
1057.74	0.771	1059769	WORD_OFF	n/a	n/a	LADLE	KitchenTools	6	3	[0, 0, 0]	n/a	catFR1	0	R1317D
1058.511	1.6	1060540	WORD	n/a	wordpools/wordpool_categorized_EN.txt	BLENDER	Appliances	7	3	[0, 0, 0]	n/a	catFR1	0	R1317D
1060.139	1.063	1062168	WORD_OFF	n/a	n/a	BLENDER	Appliances	7	3	[0, 0, 0]	n/a	catFR1	0	R1317D
1061.202	1.6	1063231	WORD	n/a	wordpools/wordpool_categorized_EN.txt	FREEZER	Appliances	8	3	[0, 0, 0]	n/a	catFR1	0	R1317D
1062.84	0.803	1064869	WORD_OFF	n/a	n/a	FREEZER	Appliances	8	3	[0, 0, 0]	n/a	catFR1	0	R1317D
1063.643	1.6	1065672	WORD	n/a	wordpools/wordpool_categorized_EN.txt	TUBA	Instruments	9	3	[0, 0, 0]	n/a	catFR1	0	R1317D
1065.273	1.119	1067302	WORD_OFF	n/a	n/a	TUBA	Instruments	9	3	[0, 0, 0]	n/a	catFR1	0	R1317D
1066.392	1.6	1068421	WORD	n/a	wordpools/wordpool_categorized_EN.txt	CELLO	Instruments	10	3	[0, 0, 0]	n/a	catFR1	0	R1317D
1068.025	0.933	1070054	WORD_OFF	n/a	n/a	CELLO	Instruments	10	3	[0, 0, 0]	n/a	catFR1	0	R1317D
1068.958	1.6	1070987	WORD	n/a	wordpools/wordpool_categorized_EN.txt	SPATULA	KitchenTools	11	3	[0, 0, 0]	n/a	catFR1	0	R1317D
1070.592	1.137	1072621	WORD_OFF	n/a	n/a	SPATULA	KitchenTools	11	3	[0, 0, 0]	n/a	catFR1	0	R1317D
1071.729	1.6	1073758	WORD	n/a	wordpools/wordpool_categorized_EN.txt	FORK	KitchenTools	12	3	[0, 0, 0]	n/a	catFR1	0	R1317D
1073.359	0.0	1075388	WORD_OFF	n/a	n/a	FORK	KitchenTools	12	3	[0, 0, 0]	n/a	catFR1	0	R1317D
1073.359	0.001	1075388	ENCODING_END	n/a	n/a	n/a	n/a	-999	3	[0, 0, 0]	n/a	catFR1	0	R1317D
1073.36	0.0	1075389	DISTRACT_START	n/a	n/a	n/a	n/a	-999	3	[0, 0, 0]	n/a	catFR1	0	R1317D
1073.36	0.015	1075389	START	n/a	n/a	n/a	n/a	-999	3	[-999, -999, -999]	n/a	catFR1	0	R1317D
1073.375	10.586	1075404	PROB	10.56	n/a	n/a	n/a	-999	3	[7, 6, 8]	21.0	catFR1	0	R1317D
1083.961	4.6	1085989	PROB	4.566	n/a	n/a	n/a	-999	3	[6, 9, 1]	16.0	catFR1	0	R1317D
1088.561	8.474	1090589	PROB	8.474	n/a	n/a	n/a	-999	3	[6, 7, 6]	19.0	catFR1	0	R1317D
1097.035	0.012	1099062	STOP	n/a	n/a	n/a	n/a	-999	3	[-999, -999, -999]	n/a	catFR1	0	R1317D
1097.047	0.626	1099074	DISTRACT_END	n/a	n/a	n/a	n/a	-999	3	[0, 0, 0]	n/a	catFR1	0	R1317D
1097.673	1.6	1099700	RETRIEVAL_ORIENT_START	n/a	n/a	n/a	n/a	-999	3	[0, 0, 0]	n/a	catFR1	0	R1317D
1099.246	0.0	1101273	RETRIEVAL_ORIENT_END	n/a	n/a	n/a	n/a	-999	3	[0, 0, 0]	n/a	catFR1	0	R1317D
1099.246	1.957	1101273	REC_START	n/a	n/a	n/a	n/a	-999	3	[0, 0, 0]	n/a	catFR1	0	R1317D
1101.203	1.34	1103230	REC_WORD	1.957	n/a	WHISK	KitchenTools	5	3	[0, 0, 0]	n/a	catFR1	0	R1317D
1102.543	7.129	1104570	REC_WORD	3.297	n/a	LADLE	KitchenTools	6	3	[0, 0, 0]	n/a	catFR1	0	R1317D
1109.672	0.43	1111699	REC_WORD	10.426	n/a	WHISK	KitchenTools	5	3	[0, 0, 0]	n/a	catFR1	0	R1317D
1110.102	6.615	1112129	REC_WORD	10.856	n/a	LADLE	KitchenTools	6	3	[0, 0, 0]	n/a	catFR1	0	R1317D
1116.717	12.543	1118743	REC_WORD_VV	17.471	n/a	<>	n/a	-999	3	[0, 0, 0]	n/a	catFR1	0	R1317D
1129.26	0.0	1131286	REC_END	n/a	n/a	n/a	n/a	-999	3	[0, 0, 0]	n/a	catFR1	0	R1317D
1129.26	0.022	1131286	TRIAL_END	n/a	n/a	n/a	n/a	-999	3	[0, 0, 0]	n/a	catFR1	0	R1317D
1129.282	0.001	1131308	TRIAL_START	n/a	n/a	n/a	n/a	-999	4	[0, 0, 0]	n/a	catFR1	0	R1317D
1129.283	0.0	1131309	TRIAL	n/a	n/a	n/a	n/a	-999	4	[0, 0, 0]	n/a	catFR1	0	R1317D
1129.283	1.969	1131309	WAITING_START	n/a	n/a	n/a	n/a	-999	4	[0, 0, 0]	n/a	catFR1	0	R1317D
1131.252	0.0	1133277	WAITING_END	n/a	n/a	n/a	n/a	-999	4	[0, 0, 0]	n/a	catFR1	0	R1317D
1131.252	10.0	1133277	COUNTDOWN_START	n/a	n/a	n/a	n/a	-999	4	[0, 0, 0]	n/a	catFR1	0	R1317D
1141.681	0.001	1143706	COUNTDOWN_END	n/a	n/a	n/a	n/a	-999	4	[0, 0, 0]	n/a	catFR1	0	R1317D
1141.682	1.14	1143707	ORIENT_START	n/a	n/a	n/a	n/a	-999	4	[0, 0, 0]	n/a	catFR1	0	R1317D
1142.822	0.0	1144847	ORIENT_END	n/a	n/a	n/a	n/a	-999	4	[0, 0, 0]	n/a	catFR1	0	R1317D
1142.822	0.897	1144847	ENCODING_START	n/a	n/a	n/a	n/a	-999	4	[0, 0, 0]	n/a	catFR1	0	R1317D
1143.719	1.6	1145744	WORD	n/a	wordpools/wordpool_categorized_EN.txt	BINDER	OfficeSupplies	1	4	[0, 0, 0]	n/a	catFR1	0	R1317D
1145.355	0.998	1147380	WORD_OFF	n/a	n/a	BINDER	OfficeSupplies	1	4	[0, 0, 0]	n/a	catFR1	0	R1317D
1146.353	1.6	1148378	WORD	n/a	wordpools/wordpool_categorized_EN.txt	PEN	OfficeSupplies	2	4	[0, 0, 0]	n/a	catFR1	0	R1317D
1147.989	0.873	1150014	WORD_OFF	n/a	n/a	PEN	OfficeSupplies	2	4	[0, 0, 0]	n/a	catFR1	0	R1317D
1148.862	1.6	1150887	WORD	n/a	wordpools/wordpool_categorized_EN.txt	BIRCH	Trees	3	4	[0, 0, 0]	n/a	catFR1	0	R1317D
1150.49	0.826	1152514	WORD_OFF	n/a	n/a	BIRCH	Trees	3	4	[0, 0, 0]	n/a	catFR1	0	R1317D
1151.316	1.6	1153340	WORD	n/a	wordpools/wordpool_categorized_EN.txt	CYPRESS	Trees	4	4	[0, 0, 0]	n/a	catFR1	0	R1317D
1152.94	0.85	1154964	WORD_OFF	n/a	n/a	CYPRESS	Trees	4	4	[0, 0, 0]	n/a	catFR1	0	R1317D
1153.79	1.6	1155814	WORD	n/a	wordpools/wordpool_categorized_EN.txt	TIGER	Zoo	5	4	[0, 0, 0]	n/a	catFR1	0	R1317D
1155.424	0.992	1157448	WORD_OFF	n/a	n/a	TIGER	Zoo	5	4	[0, 0, 0]	n/a	catFR1	0	R1317D
1156.416	1.6	1158440	WORD	n/a	wordpools/wordpool_categorized_EN.txt	MONKEY	Zoo	6	4	[0, 0, 0]	n/a	catFR1	0	R1317D
1158.041	1.104	1160065	WORD_OFF	n/a	n/a	MONKEY	Zoo	6	4	[0, 0, 0]	n/a	catFR1	0	R1317D
1159.145	1.6	1161169	WORD	n/a	wordpools/wordpool_categorized_EN.txt	CEDAR	Trees	7	4	[0, 0, 0]	n/a	catFR1	0	R1317D
1160.775	0.873	1162799	WORD_OFF	n/a	n/a	CEDAR	Trees	7	4	[0, 0, 0]	n/a	catFR1	0	R1317D
1161.648	1.6	1163672	WORD	n/a	wordpools/wordpool_categorized_EN.txt	HICKORY	Trees	8	4	[0, 0, 0]	n/a	catFR1	0	R1317D
1163.274	0.796	1165298	WORD_OFF	n/a	n/a	HICKORY	Trees	8	4	[0, 0, 0]	n/a	catFR1	0	R1317D
1164.07	1.6	1166094	WORD	n/a	wordpools/wordpool_categorized_EN.txt	PAPER	OfficeSupplies	9	4	[0, 0, 0]	n/a	catFR1	0	R1317D
1165.693	0.852	1167717	WORD_OFF	n/a	n/a	PAPER	OfficeSupplies	9	4	[0, 0, 0]	n/a	catFR1	0	R1317D
1166.545	1.6	1168569	WORD	n/a	wordpools/wordpool_categorized_EN.txt	GLUE	OfficeSupplies	10	4	[0, 0, 0]	n/a	catFR1	0	R1317D
1168.175	0.839	1170199	WORD_OFF	n/a	n/a	GLUE	OfficeSupplies	10	4	[0, 0, 0]	n/a	catFR1	0	R1317D
1169.014	1.6	1171037	WORD	n/a	wordpools/wordpool_categorized_EN.txt	LION	Zoo	11	4	[0, 0, 0]	n/a	catFR1	0	R1317D
1170.643	1.05	1172666	WORD_OFF	n/a	n/a	LION	Zoo	11	4	[0, 0, 0]	n/a	catFR1	0	R1317D
1171.693	1.6	1173716	WORD	n/a	wordpools/wordpool_categorized_EN.txt	ELEPHANT	Zoo	12	4	[0, 0, 0]	n/a	catFR1	0	R1317D
1173.326	0.001	1175349	WORD_OFF	n/a	n/a	ELEPHANT	Zoo	12	4	[0, 0, 0]	n/a	catFR1	0	R1317D
1173.327	0.0	1175350	ENCODING_END	n/a	n/a	n/a	n/a	-999	4	[0, 0, 0]	n/a	catFR1	0	R1317D
1173.327	0.0	1175350	DISTRACT_START	n/a	n/a	n/a	n/a	-999	4	[0, 0, 0]	n/a	catFR1	0	R1317D
1173.327	0.016	1175350	START	n/a	n/a	n/a	n/a	-999	4	[-999, -999, -999]	n/a	catFR1	0	R1317D
1173.343	5.368	1175366	PROB	5.335	n/a	n/a	n/a	-999	4	[2, 5, 3]	10.0	catFR1	0	R1317D
1178.711	10.219	1180734	PROB	10.193	n/a	n/a	n/a	-999	4	[8, 5, 7]	19.0	catFR1	0	R1317D
1188.93	4.001	1190952	PROB	3.975	n/a	n/a	n/a	-999	4	[6, 1, 3]	10.0	catFR1	0	R1317D
1192.931	5.876	1194953	PROB	5.876	n/a	n/a	n/a	-999	4	[2, 7, 5]	14.0	catFR1	0	R1317D
1198.807	0.008	1200829	STOP	n/a	n/a	n/a	n/a	-999	4	[-999, -999, -999]	n/a	catFR1	0	R1317D
1198.815	0.66	1200837	DISTRACT_END	n/a	n/a	n/a	n/a	-999	4	[0, 0, 0]	n/a	catFR1	0	R1317D
1199.475	1.6	1201497	RETRIEVAL_ORIENT_START	n/a	n/a	n/a	n/a	-999	4	[0, 0, 0]	n/a	catFR1	0	R1317D
1201.016	0.0	1203038	RETRIEVAL_ORIENT_END	n/a	n/a	n/a	n/a	-999	4	[0, 0, 0]	n/a	catFR1	0	R1317D
1201.016	5.909	1203038	REC_START	n/a	n/a	n/a	n/a	-999	4	[0, 0, 0]	n/a	catFR1	0	R1317D
1206.925	1.341	1208946	REC_WORD	5.909	n/a	TIGER	Zoo	5	4	[0, 0, 0]	n/a	catFR1	0	R1317D
1208.266	2.024	1210287	REC_WORD	7.25	n/a	LION	Zoo	11	4	[0, 0, 0]	n/a	catFR1	0	R1317D
1210.29	8.341	1212311	REC_WORD	9.274	n/a	ELEPHANT	Zoo	12	4	[0, 0, 0]	n/a	catFR1	0	R1317D
1218.631	0.317	1220652	REC_WORD	17.615	n/a	WHISK	KitchenTools	-999	4	[0, 0, 0]	n/a	catFR1	0	R1317D
1218.948	0.171	1220969	REC_WORD_VV	17.932	n/a	<>	n/a	-999	4	[0, 0, 0]	n/a	catFR1	0	R1317D
1219.119	0.652	1221140	REC_WORD	18.103	n/a	LADLE	KitchenTools	-999	4	[0, 0, 0]	n/a	catFR1	0	R1317D
1219.771	1.0	1221792	REC_WORD_VV	18.755	n/a	<>	n/a	-999	4	[0, 0, 0]	n/a	catFR1	0	R1317D
1220.771	1.0	1222792	REC_WORD_VV	19.755	n/a	<>	n/a	-999	4	[0, 0, 0]	n/a	catFR1	0	R1317D
1221.771	8.603	1223792	REC_WORD_VV	20.755	n/a	<>	n/a	-999	4	[0, 0, 0]	n/a	catFR1	0	R1317D
1230.374	0.653	1232394	REC_WORD_VV	29.358	n/a	<>	n/a	-999	4	[0, 0, 0]	n/a	catFR1	0	R1317D
1231.027	0.0	1233047	REC_END	n/a	n/a	n/a	n/a	-999	4	[0, 0, 0]	n/a	catFR1	0	R1317D
1231.027	0.024	1233047	TRIAL_END	n/a	n/a	n/a	n/a	-999	4	[0, 0, 0]	n/a	catFR1	0	R1317D
1231.051	0.0	1233071	TRIAL_START	n/a	n/a	n/a	n/a	-999	5	[0, 0, 0]	n/a	catFR1	0	R1317D
1231.051	0.0	1233071	TRIAL	n/a	n/a	n/a	n/a	-999	5	[0, 0, 0]	n/a	catFR1	0	R1317D
1231.051	1.67	1233071	WAITING_START	n/a	n/a	n/a	n/a	-999	5	[0, 0, 0]	n/a	catFR1	0	R1317D
1232.721	0.001	1234741	WAITING_END	n/a	n/a	n/a	n/a	-999	5	[0, 0, 0]	n/a	catFR1	0	R1317D
1232.722	10.0	1234742	COUNTDOWN_START	n/a	n/a	n/a	n/a	-999	5	[0, 0, 0]	n/a	catFR1	0	R1317D
1243.15	0.0	1245170	COUNTDOWN_END	n/a	n/a	n/a	n/a	-999	5	[0, 0, 0]	n/a	catFR1	0	R1317D
1243.15	1.139	1245170	ORIENT_START	n/a	n/a	n/a	n/a	-999	5	[0, 0, 0]	n/a	catFR1	0	R1317D
1244.289	0.001	1246308	ORIENT_END	n/a	n/a	n/a	n/a	-999	5	[0, 0, 0]	n/a	catFR1	0	R1317D
1244.29	1.02	1246309	ENCODING_START	n/a	n/a	n/a	n/a	-999	5	[0, 0, 0]	n/a	catFR1	0	R1317D
1245.31	1.6	1247329	WORD	n/a	wordpools/wordpool_categorized_EN.txt	DUCK	Birds	1	5	[0, 0, 0]	n/a	catFR1	0	R1317D
1246.924	1.117	1248943	WORD_OFF	n/a	n/a	DUCK	Birds	1	5	[0, 0, 0]	n/a	catFR1	0	R1317D
1248.041	1.6	1250060	WORD	n/a	wordpools/wordpool_categorized_EN.txt	BLUEBIRD	Birds	2	5	[0, 0, 0]	n/a	catFR1	0	R1317D
1249.674	0.976	1251693	WORD_OFF	n/a	n/a	BLUEBIRD	Birds	2	5	[0, 0, 0]	n/a	catFR1	0	R1317D
1250.65	1.6	1252669	WORD	n/a	wordpools/wordpool_categorized_EN.txt	EAR	BodyParts	3	5	[0, 0, 0]	n/a	catFR1	0	R1317D
1252.274	0.756	1254293	WORD_OFF	n/a	n/a	EAR	BodyParts	3	5	[0, 0, 0]	n/a	catFR1	0	R1317D
1253.03	1.6	1255049	WORD	n/a	wordpools/wordpool_categorized_EN.txt	ARM	BodyParts	4	5	[0, 0, 0]	n/a	catFR1	0	R1317D
1254.659	0.885	1256678	WORD_OFF	n/a	n/a	ARM	BodyParts	4	5	[0, 0, 0]	n/a	catFR1	0	R1317D
1255.544	1.6	1257563	WORD	n/a	wordpools/wordpool_categorized_EN.txt	JACKET	Clothing	5	5	[0, 0, 0]	n/a	catFR1	0	R1317D
1257.175	0.878	1259194	WORD_OFF	n/a	n/a	JACKET	Clothing	5	5	[0, 0, 0]	n/a	catFR1	0	R1317D
1258.053	1.6	1260072	WORD	n/a	wordpools/wordpool_categorized_EN.txt	JEANS	Clothing	6	5	[0, 0, 0]	n/a	catFR1	0	R1317D
1259.676	1.005	1261695	WORD_OFF	n/a	n/a	JEANS	Clothing	6	5	[0, 0, 0]	n/a	catFR1	0	R1317D
1260.681	1.6	1262700	WORD	n/a	wordpools/wordpool_categorized_EN.txt	LEG	BodyParts	7	5	[0, 0, 0]	n/a	catFR1	0	R1317D
1262.309	1.071	1264328	WORD_OFF	n/a	n/a	LEG	BodyParts	7	5	[0, 0, 0]	n/a	catFR1	0	R1317D
1263.38	1.6	1265398	WORD	n/a	wordpools/wordpool_categorized_EN.txt	FINGERS	BodyParts	8	5	[0, 0, 0]	n/a	catFR1	0	R1317D
1265.011	0.984	1267029	WORD_OFF	n/a	n/a	FINGERS	BodyParts	8	5	[0, 0, 0]	n/a	catFR1	0	R1317D
1265.995	1.6	1268013	WORD	n/a	wordpools/wordpool_categorized_EN.txt	CROW	Birds	9	5	[0, 0, 0]	n/a	catFR1	0	R1317D
1267.628	1.139	1269646	WORD_OFF	n/a	n/a	CROW	Birds	9	5	[0, 0, 0]	n/a	catFR1	0	R1317D
1268.767	1.6	1270785	WORD	n/a	wordpools/wordpool_categorized_EN.txt	SEAGULL	Birds	10	5	[0, 0, 0]	n/a	catFR1	0	R1317D
1270.395	0.817	1272413	WORD_OFF	n/a	n/a	SEAGULL	Birds	10	5	[0, 0, 0]	n/a	catFR1	0	R1317D
1271.212	1.6	1273230	WORD	n/a	wordpools/wordpool_categorized_EN.txt	PANTS	Clothing	11	5	[0, 0, 0]	n/a	catFR1	0	R1317D
1272.829	0.888	1274847	WORD_OFF	n/a	n/a	PANTS	Clothing	11	5	[0, 0, 0]	n/a	catFR1	0	R1317D
1273.717	1.6	1275735	WORD	n/a	wordpools/wordpool_categorized_EN.txt	SOCKS	Clothing	12	5	[0, 0, 0]	n/a	catFR1	0	R1317D
1275.345	0.0	1277363	WORD_OFF	n/a	n/a	SOCKS	Clothing	12	5	[0, 0, 0]	n/a	catFR1	0	R1317D
1275.345	0.001	1277363	ENCODING_END	n/a	n/a	n/a	n/a	-999	5	[0, 0, 0]	n/a	catFR1	0	R1317D
1275.346	0.0	1277364	DISTRACT_START	n/a	n/a	n/a	n/a	-999	5	[0, 0, 0]	n/a	catFR1	0	R1317D
1275.346	0.016	1277364	START	n/a	n/a	n/a	n/a	-999	5	[-999, -999, -999]	n/a	catFR1	0	R1317D
1275.362	6.867	1277380	PROB	6.843	n/a	n/a	n/a	-999	5	[3, 4, 7]	14.0	catFR1	0	R1317D
1282.229	3.769	1284246	PROB	3.729	n/a	n/a	n/a	-999	5	[2, 1, 2]	5.0	catFR1	0	R1317D
1285.998	4.667	1288015	PROB	4.63	n/a	n/a	n/a	-999	5	[1, 3, 7]	11.0	catFR1	0	R1317D
1290.665	4.987	1292682	PROB	4.987	n/a	n/a	n/a	-999	5	[8, 4, 3]	15.0	catFR1	0	R1317D
1295.652	0.014	1297669	STOP	n/a	n/a	n/a	n/a	-999	5	[-999, -999, -999]	n/a	catFR1	0	R1317D
1295.666	0.6	1297683	DISTRACT_END	n/a	n/a	n/a	n/a	-999	5	[0, 0, 0]	n/a	catFR1	0	R1317D
1296.266	1.6	1298283	RETRIEVAL_ORIENT_START	n/a	n/a	n/a	n/a	-999	5	[0, 0, 0]	n/a	catFR1	0	R1317D
1297.833	0.0	1299850	RETRIEVAL_ORIENT_END	n/a	n/a	n/a	n/a	-999	5	[0, 0, 0]	n/a	catFR1	0	R1317D
1297.833	2.114	1299850	REC_START	n/a	n/a	n/a	n/a	-999	5	[0, 0, 0]	n/a	catFR1	0	R1317D
1299.947	1.423	1301964	REC_WORD	2.114	n/a	DUCK	Birds	1	5	[0, 0, 0]	n/a	catFR1	0	R1317D
1301.37	1.363	1303386	REC_WORD	3.537	n/a	BLUEBIRD	Birds	2	5	[0, 0, 0]	n/a	catFR1	0	R1317D
1302.733	1.466	1304749	REC_WORD	4.9	n/a	SEAGULL	Birds	10	5	[0, 0, 0]	n/a	catFR1	0	R1317D
1304.199	1.824	1306215	REC_WORD	6.366	n/a	CROW	Birds	9	5	[0, 0, 0]	n/a	catFR1	0	R1317D
1306.023	3.273	1308039	REC_WORD	8.19	n/a	JEANS	Clothing	6	5	[0, 0, 0]	n/a	catFR1	0	R1317D
1309.296	1.441	1311312	REC_WORD	11.463	n/a	PANTS	Clothing	11	5	[0, 0, 0]	n/a	catFR1	0	R1317D
1310.737	2.563	1312753	REC_WORD	12.904	n/a	ARM	BodyParts	4	5	[0, 0, 0]	n/a	catFR1	0	R1317D
1313.3	14.546	1315316	REC_WORD	15.467	n/a	LEG	BodyParts	7	5	[0, 0, 0]	n/a	catFR1	0	R1317D
1327.846	0.0	1329861	REC_END	n/a	n/a	n/a	n/a	-999	5	[0, 0, 0]	n/a	catFR1	0	R1317D
1327.846	0.022	1329861	TRIAL_END	n/a	n/a	n/a	n/a	-999	5	[0, 0, 0]	n/a	catFR1	0	R1317D
1327.868	0.0	1329883	TRIAL_START	n/a	n/a	n/a	n/a	-999	6	[0, 0, 0]	n/a	catFR1	0	R1317D
1327.868	0.0	1329883	TRIAL	n/a	n/a	n/a	n/a	-999	6	[0, 0, 0]	n/a	catFR1	0	R1317D
1327.868	1.971	1329883	WAITING_START	n/a	n/a	n/a	n/a	-999	6	[0, 0, 0]	n/a	catFR1	0	R1317D
1329.839	0.001	1331854	WAITING_END	n/a	n/a	n/a	n/a	-999	6	[0, 0, 0]	n/a	catFR1	0	R1317D
1329.84	10.0	1331855	COUNTDOWN_START	n/a	n/a	n/a	n/a	-999	6	[0, 0, 0]	n/a	catFR1	0	R1317D
1340.269	0.0	1342283	ORIENT_START	n/a	n/a	n/a	n/a	-999	6	[0, 0, 0]	n/a	catFR1	0	R1317D
1340.269	1.071	1342283	COUNTDOWN_END	n/a	n/a	n/a	n/a	-999	6	[0, 0, 0]	n/a	catFR1	0	R1317D
1341.34	0.001	1343354	ORIENT_END	n/a	n/a	n/a	n/a	-999	6	[0, 0, 0]	n/a	catFR1	0	R1317D
1341.341	0.798	1343355	ENCODING_START	n/a	n/a	n/a	n/a	-999	6	[0, 0, 0]	n/a	catFR1	0	R1317D
1342.139	1.6	1344153	WORD	n/a	wordpools/wordpool_categorized_EN.txt	DOLPHIN	OceanAnimals	1	6	[0, 0, 0]	n/a	catFR1	0	R1317D
1343.775	0.991	1345789	WORD_OFF	n/a	n/a	DOLPHIN	OceanAnimals	1	6	[0, 0, 0]	n/a	catFR1	0	R1317D
1344.766	1.6	1346780	WORD	n/a	wordpools/wordpool_categorized_EN.txt	FISH	OceanAnimals	2	6	[0, 0, 0]	n/a	catFR1	0	R1317D
1346.392	0.807	1348406	WORD_OFF	n/a	n/a	FISH	OceanAnimals	2	6	[0, 0, 0]	n/a	catFR1	0	R1317D
1347.199	1.6	1349213	WORD	n/a	wordpools/wordpool_categorized_EN.txt	RULER	OfficeSupplies	3	6	[0, 0, 0]	n/a	catFR1	0	R1317D
1348.809	0.783	1350823	WORD_OFF	n/a	n/a	RULER	OfficeSupplies	3	6	[0, 0, 0]	n/a	catFR1	0	R1317D
1349.592	1.6	1351606	WORD	n/a	wordpools/wordpool_categorized_EN.txt	MARKER	OfficeSupplies	4	6	[0, 0, 0]	n/a	catFR1	0	R1317D
1351.225	1.037	1353239	WORD_OFF	n/a	n/a	MARKER	OfficeSupplies	4	6	[0, 0, 0]	n/a	catFR1	0	R1317D
1352.262	1.6	1354276	WORD	n/a	wordpools/wordpool_categorized_EN.txt	BEAR	Zoo	5	6	[0, 0, 0]	n/a	catFR1	0	R1317D
1353.893	0.806	1355907	WORD_OFF	n/a	n/a	BEAR	Zoo	5	6	[0, 0, 0]	n/a	catFR1	0	R1317D
1354.699	1.6	1356713	WORD	n/a	wordpools/wordpool_categorized_EN.txt	ZEBRA	Zoo	6	6	[0, 0, 0]	n/a	catFR1	0	R1317D
1356.326	0.833	1358340	WORD_OFF	n/a	n/a	ZEBRA	Zoo	6	6	[0, 0, 0]	n/a	catFR1	0	R1317D
1357.159	1.6	1359173	WORD	n/a	wordpools/wordpool_categorized_EN.txt	ERASER	OfficeSupplies	7	6	[0, 0, 0]	n/a	catFR1	0	R1317D
1358.778	0.79	1360791	WORD_OFF	n/a	n/a	ERASER	OfficeSupplies	7	6	[0, 0, 0]	n/a	catFR1	0	R1317D
1359.568	1.6	1361581	WORD	n/a	wordpools/wordpool_categorized_EN.txt	NOTEBOOK	OfficeSupplies	8	6	[0, 0, 0]	n/a	catFR1	0	R1317D
1361.194	0.891	1363207	WORD_OFF	n/a	n/a	NOTEBOOK	OfficeSupplies	8	6	[0, 0, 0]	n/a	catFR1	0	R1317D
1362.085	1.6	1364098	WORD	n/a	wordpools/wordpool_categorized_EN.txt	GIRAFFE	Zoo	9	6	[0, 0, 0]	n/a	catFR1	0	R1317D
1363.712	1.075	1365725	WORD_OFF	n/a	n/a	GIRAFFE	Zoo	9	6	[0, 0, 0]	n/a	catFR1	0	R1317D
1364.787	1.6	1366800	WORD	n/a	wordpools/wordpool_categorized_EN.txt	GORILLA	Zoo	10	6	[0, 0, 0]	n/a	catFR1	0	R1317D
1366.412	0.802	1368425	WORD_OFF	n/a	n/a	GORILLA	Zoo	10	6	[0, 0, 0]	n/a	catFR1	0	R1317D
1367.214	1.6	1369227	WORD	n/a	wordpools/wordpool_categorized_EN.txt	SHRIMP	OceanAnimals	11	6	[0, 0, 0]	n/a	catFR1	0	R1317D
1368.829	0.8	1370842	WORD_OFF	n/a	n/a	SHRIMP	OceanAnimals	11	6	[0, 0, 0]	n/a	catFR1	0	R1317D
1369.629	1.6	1371642	WORD	n/a	wordpools/wordpool_categorized_EN.txt	WHALE	OceanAnimals	12	6	[0, 0, 0]	n/a	catFR1	0	R1317D
1371.262	0.001	1373275	WORD_OFF	n/a	n/a	WHALE	OceanAnimals	12	6	[0, 0, 0]	n/a	catFR1	0	R1317D
1371.263	0.0	1373276	ENCODING_END	n/a	n/a	n/a	n/a	-999	6	[0, 0, 0]	n/a	catFR1	0	R1317D
1371.263	0.0	1373276	DISTRACT_START	n/a	n/a	n/a	n/a	-999	6	[0, 0, 0]	n/a	catFR1	0	R1317D
1371.263	0.016	1373276	START	n/a	n/a	n/a	n/a	-999	6	[-999, -999, -999]	n/a	catFR1	0	R1317D
1371.279	6.402	1373292	PROB	6.373	n/a	n/a	n/a	-999	6	[9, 8, 6]	23.0	catFR1	0	R1317D
1377.681	7.785	1379693	PROB	7.753	n/a	n/a	n/a	-999	6	[7, 8, 9]	24.0	catFR1	0	R1317D
1385.466	6.096	1387478	PROB	6.096	n/a	n/a	n/a	-999	6	[8, 9, 1]	18.0	catFR1	0	R1317D
1391.562	0.022	1393574	STOP	n/a	n/a	n/a	n/a	-999	6	[-999, -999, -999]	n/a	catFR1	0	R1317D
1391.584	0.565	1393596	DISTRACT_END	n/a	n/a	n/a	n/a	-999	6	[0, 0, 0]	n/a	catFR1	0	R1317D
1392.149	1.6	1394161	RETRIEVAL_ORIENT_START	n/a	n/a	n/a	n/a	-999	6	[0, 0, 0]	n/a	catFR1	0	R1317D
1393.734	0.0	1395746	RETRIEVAL_ORIENT_END	n/a	n/a	n/a	n/a	-999	6	[0, 0, 0]	n/a	catFR1	0	R1317D
1393.734	1.77	1395746	REC_START	n/a	n/a	n/a	n/a	-999	6	[0, 0, 0]	n/a	catFR1	0	R1317D
1395.504	0.959	1397515	REC_WORD	1.77	n/a	DOLPHIN	OceanAnimals	1	6	[0, 0, 0]	n/a	catFR1	0	R1317D
1396.463	1.463	1398474	REC_WORD	2.729	n/a	FISH	OceanAnimals	2	6	[0, 0, 0]	n/a	catFR1	0	R1317D
1397.926	1.856	1399937	REC_WORD	4.192	n/a	BEAR	Zoo	5	6	[0, 0, 0]	n/a	catFR1	0	R1317D
1399.782	1.707	1401793	REC_WORD	6.048	n/a	GIRAFFE	Zoo	9	6	[0, 0, 0]	n/a	catFR1	0	R1317D
1401.489	13.926	1403500	REC_WORD	7.755	n/a	ZEBRA	Zoo	6	6	[0, 0, 0]	n/a	catFR1	0	R1317D
1415.415	8.333	1417425	REC_WORD_VV	21.681	n/a	<>	n/a	-999	6	[0, 0, 0]	n/a	catFR1	0	R1317D
1423.748	0.0	1425758	REC_END	n/a	n/a	n/a	n/a	-999	6	[0, 0, 0]	n/a	catFR1	0	R1317D
1423.748	0.022	1425758	TRIAL_END	n/a	n/a	n/a	n/a	-999	6	[0, 0, 0]	n/a	catFR1	0	R1317D
1423.77	0.0	1425780	TRIAL_START	n/a	n/a	n/a	n/a	-999	7	[0, 0, 0]	n/a	catFR1	0	R1317D
1423.77	0.0	1425780	TRIAL	n/a	n/a	n/a	n/a	-999	7	[0, 0, 0]	n/a	catFR1	0	R1317D
1423.77	1.82	1425780	WAITING_START	n/a	n/a	n/a	n/a	-999	7	[0, 0, 0]	n/a	catFR1	0	R1317D
1425.59	0.0	1427600	WAITING_END	n/a	n/a	n/a	n/a	-999	7	[0, 0, 0]	n/a	catFR1	0	R1317D
1425.59	10.0	1427600	COUNTDOWN_START	n/a	n/a	n/a	n/a	-999	7	[0, 0, 0]	n/a	catFR1	0	R1317D
1436.019	0.0	1438028	COUNTDOWN_END	n/a	n/a	n/a	n/a	-999	7	[0, 0, 0]	n/a	catFR1	0	R1317D
1436.019	1.239	1438028	ORIENT_START	n/a	n/a	n/a	n/a	-999	7	[0, 0, 0]	n/a	catFR1	0	R1317D
1437.258	0.0	1439267	ENCODING_START	n/a	n/a	n/a	n/a	-999	7	[0, 0, 0]	n/a	catFR1	0	R1317D
1437.258	0.943	1439267	ORIENT_END	n/a	n/a	n/a	n/a	-999	7	[0, 0, 0]	n/a	catFR1	0	R1317D
1438.201	1.6	1440210	WORD	n/a	wordpools/wordpool_categorized_EN.txt	VACUUM	Appliances	1	7	[0, 0, 0]	n/a	catFR1	0	R1317D
1439.826	0.902	1441835	WORD_OFF	n/a	n/a	VACUUM	Appliances	1	7	[0, 0, 0]	n/a	catFR1	0	R1317D
1440.728	1.6	1442737	WORD	n/a	wordpools/wordpool_categorized_EN.txt	IRON	Appliances	2	7	[0, 0, 0]	n/a	catFR1	0	R1317D
1442.36	1.025	1444369	WORD_OFF	n/a	n/a	IRON	Appliances	2	7	[0, 0, 0]	n/a	catFR1	0	R1317D
1443.385	1.6	1445394	WORD	n/a	wordpools/wordpool_categorized_EN.txt	MOSQUITO	Insects	3	7	[0, 0, 0]	n/a	catFR1	0	R1317D
1445.01	0.812	1447019	WORD_OFF	n/a	n/a	MOSQUITO	Insects	3	7	[0, 0, 0]	n/a	catFR1	0	R1317D
1445.822	1.6	1447831	WORD	n/a	wordpools/wordpool_categorized_EN.txt	CRICKET	Insects	4	7	[0, 0, 0]	n/a	catFR1	0	R1317D
1447.46	0.794	1449469	WORD_OFF	n/a	n/a	CRICKET	Insects	4	7	[0, 0, 0]	n/a	catFR1	0	R1317D
1448.254	1.6	1450263	WORD	n/a	wordpools/wordpool_categorized_EN.txt	POTATO	Vegetables	5	7	[0, 0, 0]	n/a	catFR1	0	R1317D
1449.877	0.759	1451886	WORD_OFF	n/a	n/a	POTATO	Vegetables	5	7	[0, 0, 0]	n/a	catFR1	0	R1317D
1450.636	1.6	1452645	WORD	n/a	wordpools/wordpool_categorized_EN.txt	SPINACH	Vegetables	6	7	[0, 0, 0]	n/a	catFR1	0	R1317D
1452.26	1.011	1454268	WORD_OFF	n/a	n/a	SPINACH	Vegetables	6	7	[0, 0, 0]	n/a	catFR1	0	R1317D
1453.271	1.6	1455279	WORD	n/a	wordpools/wordpool_categorized_EN.txt	BEETLE	Insects	7	7	[0, 0, 0]	n/a	catFR1	0	R1317D
1454.895	0.982	1456903	WORD_OFF	n/a	n/a	BEETLE	Insects	7	7	[0, 0, 0]	n/a	catFR1	0	R1317D
1455.877	1.6	1457885	WORD	n/a	wordpools/wordpool_categorized_EN.txt	LADYBUG	Insects	8	7	[0, 0, 0]	n/a	catFR1	0	R1317D
1457.512	0.841	1459520	WORD_OFF	n/a	n/a	LADYBUG	Insects	8	7	[0, 0, 0]	n/a	catFR1	0	R1317D
1458.353	1.6	1460361	WORD	n/a	wordpools/wordpool_categorized_EN.txt	CELERY	Vegetables	9	7	[0, 0, 0]	n/a	catFR1	0	R1317D
1459.979	1.057	1461987	WORD_OFF	n/a	n/a	CELERY	Vegetables	9	7	[0, 0, 0]	n/a	catFR1	0	R1317D
1461.036	1.6	1463044	WORD	n/a	wordpools/wordpool_categorized_EN.txt	ONION	Vegetables	10	7	[0, 0, 0]	n/a	catFR1	0	R1317D
1462.663	0.859	1464671	WORD_OFF	n/a	n/a	ONION	Vegetables	10	7	[0, 0, 0]	n/a	catFR1	0	R1317D
1463.522	1.6	1465530	WORD	n/a	wordpools/wordpool_categorized_EN.txt	STOVE	Appliances	11	7	[0, 0, 0]	n/a	catFR1	0	R1317D
1465.146	0.961	1467154	WORD_OFF	n/a	n/a	STOVE	Appliances	11	7	[0, 0, 0]	n/a	catFR1	0	R1317D
1466.107	1.6	1468115	WORD	n/a	wordpools/wordpool_categorized_EN.txt	TOASTER	Appliances	12	7	[0, 0, 0]	n/a	catFR1	0	R1317D
1467.714	0.0	1469722	WORD_OFF	n/a	n/a	TOASTER	Appliances	12	7	[0, 0, 0]	n/a	catFR1	0	R1317D
1467.714	0.001	1469722	ENCODING_END	n/a	n/a	n/a	n/a	-999	7	[0, 0, 0]	n/a	catFR1	0	R1317D
1467.715	0.0	1469723	DISTRACT_START	n/a	n/a	n/a	n/a	-999	7	[0, 0, 0]	n/a	catFR1	0	R1317D
1467.715	0.016	1469723	START	n/a	n/a	n/a	n/a	-999	7	[-999, -999, -999]	n/a	catFR1	0	R1317D
1467.731	4.466	1469739	PROB	4.432	n/a	n/a	n/a	-999	7	[5, 2, 4]	11.0	catFR1	0	R1317D
1472.197	6.569	1474204	PROB	6.542	n/a	n/a	n/a	-999	7	[8, 9, 1]	18.0	catFR1	0	R1317D
1478.766	8.118	1480773	PROB	8.083	n/a	n/a	n/a	-999	7	[4, 6, 7]	17.0	catFR1	0	R1317D
1486.884	5.943	1488891	PROB	5.943	n/a	n/a	n/a	-999	7	[8, 7, 4]	19.0	catFR1	0	R1317D
1492.827	0.008	1494833	STOP	n/a	n/a	n/a	n/a	-999	7	[-999, -999, -999]	n/a	catFR1	0	R1317D
1492.835	0.504	1494841	DISTRACT_END	n/a	n/a	n/a	n/a	-999	7	[0, 0, 0]	n/a	catFR1	0	R1317D
1493.339	1.6	1495345	RETRIEVAL_ORIENT_START	n/a	n/a	n/a	n/a	-999	7	[0, 0, 0]	n/a	catFR1	0	R1317D
1494.919	0.0	1496925	RETRIEVAL_ORIENT_END	n/a	n/a	n/a	n/a	-999	7	[0, 0, 0]	n/a	catFR1	0	R1317D
1494.919	3.426	1496925	REC_START	n/a	n/a	n/a	n/a	-999	7	[0, 0, 0]	n/a	catFR1	0	R1317D
1498.345	1.48	1500351	REC_WORD	3.426	n/a	BEETLE	Insects	7	7	[0, 0, 0]	n/a	catFR1	0	R1317D
1499.825	3.65	1501831	REC_WORD	4.906	n/a	MOSQUITO	Insects	3	7	[0, 0, 0]	n/a	catFR1	0	R1317D
1503.475	9.357	1505481	REC_WORD	8.556	n/a	LADYBUG	Insects	8	7	[0, 0, 0]	n/a	catFR1	0	R1317D
1512.832	5.817	1514837	REC_WORD	17.913	n/a	TOASTER	Appliances	12	7	[0, 0, 0]	n/a	catFR1	0	R1317D
1518.649	6.284	1520654	REC_WORD_VV	23.73	n/a	<>	n/a	-999	7	[0, 0, 0]	n/a	catFR1	0	R1317D
1524.933	0.0	1526938	TRIAL_END	n/a	n/a	n/a	n/a	-999	7	[0, 0, 0]	n/a	catFR1	0	R1317D
1524.933	0.022	1526938	REC_END	n/a	n/a	n/a	n/a	-999	7	[0, 0, 0]	n/a	catFR1	0	R1317D
1524.955	0.0	1526960	WAITING_START	n/a	n/a	n/a	n/a	-999	8	[0, 0, 0]	n/a	catFR1	0	R1317D
1524.955	0.0	1526960	TRIAL_START	n/a	n/a	n/a	n/a	-999	8	[0, 0, 0]	n/a	catFR1	0	R1317D
1524.955	1.703	1526960	TRIAL	n/a	n/a	n/a	n/a	-999	8	[0, 0, 0]	n/a	catFR1	0	R1317D
1526.658	0.001	1528663	WAITING_END	n/a	n/a	n/a	n/a	-999	8	[0, 0, 0]	n/a	catFR1	0	R1317D
1526.659	10.0	1528664	COUNTDOWN_START	n/a	n/a	n/a	n/a	-999	8	[0, 0, 0]	n/a	catFR1	0	R1317D
1537.088	0.0	1539092	COUNTDOWN_END	n/a	n/a	n/a	n/a	-999	8	[0, 0, 0]	n/a	catFR1	0	R1317D
1537.088	1.038	1539092	ORIENT_START	n/a	n/a	n/a	n/a	-999	8	[0, 0, 0]	n/a	catFR1	0	R1317D
1538.126	0.0	1540130	ORIENT_END	n/a	n/a	n/a	n/a	-999	8	[0, 0, 0]	n/a	catFR1	0	R1317D
1538.126	0.948	1540130	ENCODING_START	n/a	n/a	n/a	n/a	-999	8	[0, 0, 0]	n/a	catFR1	0	R1317D
1539.074	1.6	1541078	WORD	n/a	wordpools/wordpool_categorized_EN.txt	FOOT	BodyParts	1	8	[0, 0, 0]	n/a	catFR1	0	R1317D
1540.711	1.022	1542715	WORD_OFF	n/a	n/a	FOOT	BodyParts	1	8	[0, 0, 0]	n/a	catFR1	0	R1317D
1541.733	1.6	1543737	WORD	n/a	wordpools/wordpool_categorized_EN.txt	ELBOW	BodyParts	2	8	[0, 0, 0]	n/a	catFR1	0	R1317D
1543.361	0.913	1545365	WORD_OFF	n/a	n/a	ELBOW	BodyParts	2	8	[0, 0, 0]	n/a	catFR1	0	R1317D
1544.274	1.6	1546278	WORD	n/a	wordpools/wordpool_categorized_EN.txt	LAKE	Landscapes	3	8	[0, 0, 0]	n/a	catFR1	0	R1317D
1545.912	0.804	1547916	WORD_OFF	n/a	n/a	LAKE	Landscapes	3	8	[0, 0, 0]	n/a	catFR1	0	R1317D
1546.716	1.6	1548719	WORD	n/a	wordpools/wordpool_categorized_EN.txt	BEACH	Landscapes	4	8	[0, 0, 0]	n/a	catFR1	0	R1317D
1548.345	1.095	1550348	WORD_OFF	n/a	n/a	BEACH	Landscapes	4	8	[0, 0, 0]	n/a	catFR1	0	R1317D
1549.44	1.6	1551443	WORD	n/a	wordpools/wordpool_categorized_EN.txt	TORNADO	Weather	5	8	[0, 0, 0]	n/a	catFR1	0	R1317D
1551.063	0.828	1553066	WORD_OFF	n/a	n/a	TORNADO	Weather	5	8	[0, 0, 0]	n/a	catFR1	0	R1317D
1551.891	1.6	1553894	WORD	n/a	wordpools/wordpool_categorized_EN.txt	THUNDERSTORM	Weather	6	8	[0, 0, 0]	n/a	catFR1	0	R1317D
1553.53	1.145	1555533	WORD_OFF	n/a	n/a	THUNDERSTORM	Weather	6	8	[0, 0, 0]	n/a	catFR1	0	R1317D
1554.675	1.6	1556678	WORD	n/a	wordpools/wordpool_categorized_EN.txt	STREAM	Landscapes	7	8	[0, 0, 0]	n/a	catFR1	0	R1317D
1556.296	0.891	1558299	WORD_OFF	n/a	n/a	STREAM	Landscapes	7	8	[0, 0, 0]	n/a	catFR1	0	R1317D
1557.187	1.6	1559190	WORD	n/a	wordpools/wordpool_categorized_EN.txt	HILLS	Landscapes	8	8	[0, 0, 0]	n/a	catFR1	0	R1317D
1558.814	0.947	1560817	WORD_OFF	n/a	n/a	HILLS	Landscapes	8	8	[0, 0, 0]	n/a	catFR1	0	R1317D
1559.761	1.6	1561764	WORD	n/a	wordpools/wordpool_categorized_EN.txt	HAND	BodyParts	9	8	[0, 0, 0]	n/a	catFR1	0	R1317D
1561.398	1.056	1563401	WORD_OFF	n/a	n/a	HAND	BodyParts	9	8	[0, 0, 0]	n/a	catFR1	0	R1317D
1562.454	1.6	1564457	WORD	n/a	wordpools/wordpool_categorized_EN.txt	HEAD	BodyParts	10	8	[0, 0, 0]	n/a	catFR1	0	R1317D
1564.082	0.889	1566085	WORD_OFF	n/a	n/a	HEAD	BodyParts	10	8	[0, 0, 0]	n/a	catFR1	0	R1317D
1564.971	1.6	1566974	WORD	n/a	wordpools/wordpool_categorized_EN.txt	DRIZZLE	Weather	11	8	[0, 0, 0]	n/a	catFR1	0	R1317D
1566.599	0.797	1568601	WORD_OFF	n/a	n/a	DRIZZLE	Weather	11	8	[0, 0, 0]	n/a	catFR1	0	R1317D
1567.396	1.6	1569398	WORD	n/a	wordpools/wordpool_categorized_EN.txt	LIGHTNING	Weather	12	8	[0, 0, 0]	n/a	catFR1	0	R1317D
1569.033	0.0	1571035	WORD_OFF	n/a	n/a	LIGHTNING	Weather	12	8	[0, 0, 0]	n/a	catFR1	0	R1317D
1569.033	0.0	1571035	ENCODING_END	n/a	n/a	n/a	n/a	-999	8	[0, 0, 0]	n/a	catFR1	0	R1317D
1569.033	0.0	1571035	DISTRACT_START	n/a	n/a	n/a	n/a	-999	8	[0, 0, 0]	n/a	catFR1	0	R1317D
1569.033	0.016	1571035	START	n/a	n/a	n/a	n/a	-999	8	[-999, -999, -999]	n/a	catFR1	0	R1317D
1569.049	3.934	1571051	PROB	3.907	n/a	n/a	n/a	-999	8	[2, 2, 5]	9.0	catFR1	0	R1317D
1572.983	2.767	1574985	PROB	2.732	n/a	n/a	n/a	-999	8	[6, 6, 1]	13.0	catFR1	0	R1317D
1575.75	5.285	1577752	PROB	5.26	n/a	n/a	n/a	-999	8	[4, 4, 6]	14.0	catFR1	0	R1317D
1581.035	5.249	1583037	PROB	5.222	n/a	n/a	n/a	-999	8	[4, 3, 6]	13.0	catFR1	0	R1317D
1586.284	5.747	1588285	PROB	5.747	n/a	n/a	n/a	-999	8	[5, 9, 6]	20.0	catFR1	0	R1317D
1592.031	0.022	1594032	STOP	n/a	n/a	n/a	n/a	-999	8	[-999, -999, -999]	n/a	catFR1	0	R1317D
1592.053	0.642	1594054	DISTRACT_END	n/a	n/a	n/a	n/a	-999	8	[0, 0, 0]	n/a	catFR1	0	R1317D
1592.695	1.6	1594696	RETRIEVAL_ORIENT_START	n/a	n/a	n/a	n/a	-999	8	[0, 0, 0]	n/a	catFR1	0	R1317D
1594.27	0.0	1596271	RETRIEVAL_ORIENT_END	n/a	n/a	n/a	n/a	-999	8	[0, 0, 0]	n/a	catFR1	0	R1317D
1594.27	2.068	1596271	REC_START	n/a	n/a	n/a	n/a	-999	8	[0, 0, 0]	n/a	catFR1	0	R1317D
1596.338	4.345	1598339	REC_WORD	2.068	n/a	TORNADO	Weather	5	8	[0, 0, 0]	n/a	catFR1	0	R1317D
1600.683	1.447	1602684	REC_WORD	6.413	n/a	LIGHTNING	Weather	12	8	[0, 0, 0]	n/a	catFR1	0	R1317D
1602.13	6.399	1604131	REC_WORD	7.86	n/a	STORM	n/a	-999	8	[0, 0, 0]	n/a	catFR1	0	R1317D
1608.529	1.0	1610529	REC_WORD_VV	14.259	n/a	<>	n/a	-999	8	[0, 0, 0]	n/a	catFR1	0	R1317D
1609.529	6.076	1611529	REC_WORD_VV	15.259	n/a	<>	n/a	-999	8	[0, 0, 0]	n/a	catFR1	0	R1317D
1615.605	0.627	1617605	REC_WORD	21.335	n/a	RAIN	Weather	-999	8	[0, 0, 0]	n/a	catFR1	0	R1317D
1616.232	8.049	1618232	REC_WORD	21.962	n/a	DRIZZLE	Weather	11	8	[0, 0, 0]	n/a	catFR1	0	R1317D
1624.281	0.0	1626280	REC_END	n/a	n/a	n/a	n/a	-999	8	[0, 0, 0]	n/a	catFR1	0	R1317D
1624.281	0.022	1626280	TRIAL_END	n/a	n/a	n/a	n/a	-999	8	[0, 0, 0]	n/a	catFR1	0	R1317D
1624.303	0.001	1626302	TRIAL_START	n/a	n/a	n/a	n/a	-999	9	[0, 0, 0]	n/a	catFR1	0	R1317D
1624.304	0.0	1626303	TRIAL	n/a	n/a	n/a	n/a	-999	9	[0, 0, 0]	n/a	catFR1	0	R1317D
1624.304	1.372	1626303	WAITING_START	n/a	n/a	n/a	n/a	-999	9	[0, 0, 0]	n/a	catFR1	0	R1317D
1625.676	0.001	1627675	WAITING_END	n/a	n/a	n/a	n/a	-999	9	[0, 0, 0]	n/a	catFR1	0	R1317D
1625.677	10.0	1627676	COUNTDOWN_START	n/a	n/a	n/a	n/a	-999	9	[0, 0, 0]	n/a	catFR1	0	R1317D
1636.105	0.0	1638104	COUNTDOWN_END	n/a	n/a	n/a	n/a	-999	9	[0, 0, 0]	n/a	catFR1	0	R1317D
1636.105	1.039	1638104	ORIENT_START	n/a	n/a	n/a	n/a	-999	9	[0, 0, 0]	n/a	catFR1	0	R1317D
1637.144	0.0	1639143	ORIENT_END	n/a	n/a	n/a	n/a	-999	9	[0, 0, 0]	n/a	catFR1	0	R1317D
1637.144	1.145	1639143	ENCODING_START	n/a	n/a	n/a	n/a	-999	9	[0, 0, 0]	n/a	catFR1	0	R1317D
1638.289	1.6	1640288	WORD	n/a	wordpools/wordpool_categorized_EN.txt	MARIGOLD	Flowers	1	9	[0, 0, 0]	n/a	catFR1	0	R1317D
1639.929	0.78	1641928	WORD_OFF	n/a	n/a	MARIGOLD	Flowers	1	9	[0, 0, 0]	n/a	catFR1	0	R1317D
1640.709	1.6	1642708	WORD	n/a	wordpools/wordpool_categorized_EN.txt	TULIP	Flowers	2	9	[0, 0, 0]	n/a	catFR1	0	R1317D
1642.345	1.028	1644343	WORD_OFF	n/a	n/a	TULIP	Flowers	2	9	[0, 0, 0]	n/a	catFR1	0	R1317D
1643.373	1.6	1645371	WORD	n/a	wordpools/wordpool_categorized_EN.txt	ANT	Insects	3	9	[0, 0, 0]	n/a	catFR1	0	R1317D
1644.996	0.913	1646994	WORD_OFF	n/a	n/a	ANT	Insects	3	9	[0, 0, 0]	n/a	catFR1	0	R1317D
1645.909	1.6	1647907	WORD	n/a	wordpools/wordpool_categorized_EN.txt	BEE	Insects	4	9	[0, 0, 0]	n/a	catFR1	0	R1317D
1647.53	1.011	1649528	WORD_OFF	n/a	n/a	BEE	Insects	4	9	[0, 0, 0]	n/a	catFR1	0	R1317D
1648.541	1.6	1650539	WORD	n/a	wordpools/wordpool_categorized_EN.txt	CRAB	OceanAnimals	5	9	[0, 0, 0]	n/a	catFR1	0	R1317D
1650.163	0.764	1652161	WORD_OFF	n/a	n/a	CRAB	OceanAnimals	5	9	[0, 0, 0]	n/a	catFR1	0	R1317D
1650.927	1.6	1652925	WORD	n/a	wordpools/wordpool_categorized_EN.txt	SQUID	OceanAnimals	6	9	[0, 0, 0]	n/a	catFR1	0	R1317D
1652.564	0.919	1654562	WORD_OFF	n/a	n/a	SQUID	OceanAnimals	6	9	[0, 0, 0]	n/a	catFR1	0	R1317D
1653.483	1.6	1655481	WORD	n/a	wordpools/wordpool_categorized_EN.txt	MOTH	Insects	7	9	[0, 0, 0]	n/a	catFR1	0	R1317D
1655.114	0.834	1657112	WORD_OFF	n/a	n/a	MOTH	Insects	7	9	[0, 0, 0]	n/a	catFR1	0	R1317D
1655.948	1.6	1657946	WORD	n/a	wordpools/wordpool_categorized_EN.txt	SPIDER	Insects	8	9	[0, 0, 0]	n/a	catFR1	0	R1317D
1657.582	0.802	1659580	WORD_OFF	n/a	n/a	SPIDER	Insects	8	9	[0, 0, 0]	n/a	catFR1	0	R1317D
1658.384	1.6	1660382	WORD	n/a	wordpools/wordpool_categorized_EN.txt	LILY	Flowers	9	9	[0, 0, 0]	n/a	catFR1	0	R1317D
1660.016	1.051	1662013	WORD_OFF	n/a	n/a	LILY	Flowers	9	9	[0, 0, 0]	n/a	catFR1	0	R1317D
1661.067	1.6	1663064	WORD	n/a	wordpools/wordpool_categorized_EN.txt	ROSE	Flowers	10	9	[0, 0, 0]	n/a	catFR1	0	R1317D
1662.7	1.057	1664697	WORD_OFF	n/a	n/a	ROSE	Flowers	10	9	[0, 0, 0]	n/a	catFR1	0	R1317D
1663.757	1.6	1665754	WORD	n/a	wordpools/wordpool_categorized_EN.txt	OCTOPUS	OceanAnimals	11	9	[0, 0, 0]	n/a	catFR1	0	R1317D
1665.383	0.775	1667380	WORD_OFF	n/a	n/a	OCTOPUS	OceanAnimals	11	9	[0, 0, 0]	n/a	catFR1	0	R1317D
1666.158	1.6	1668155	WORD	n/a	wordpools/wordpool_categorized_EN.txt	JELLYFISH	OceanAnimals	12	9	[0, 0, 0]	n/a	catFR1	0	R1317D
1667.784	0.0	1669781	WORD_OFF	n/a	n/a	JELLYFISH	OceanAnimals	12	9	[0, 0, 0]	n/a	catFR1	0	R1317D
1667.784	0.001	1669781	ENCODING_END	n/a	n/a	n/a	n/a	-999	9	[0, 0, 0]	n/a	catFR1	0	R1317D
1667.785	0.0	1669782	DISTRACT_START	n/a	n/a	n/a	n/a	-999	9	[0, 0, 0]	n/a	catFR1	0	R1317D
1667.785	0.015	1669782	START	n/a	n/a	n/a	n/a	-999	9	[-999, -999, -999]	n/a	catFR1	0	R1317D
1667.8	5.367	1669797	PROB	5.332	n/a	n/a	n/a	-999	9	[9, 7, 4]	20.0	catFR1	0	R1317D
1673.167	9.085	1675164	PROB	9.05	n/a	n/a	n/a	-999	9	[8, 3, 1]	12.0	catFR1	0	R1317D
1682.252	7.76	1684248	PROB	7.76	n/a	n/a	n/a	-999	9	[9, 8, 8]	25.0	catFR1	0	R1317D
1690.012	0.009	1692008	STOP	n/a	n/a	n/a	n/a	-999	9	[-999, -999, -999]	n/a	catFR1	0	R1317D
1690.021	0.58	1692017	DISTRACT_END	n/a	n/a	n/a	n/a	-999	9	[0, 0, 0]	n/a	catFR1	0	R1317D
1690.601	1.6	1692597	RETRIEVAL_ORIENT_START	n/a	n/a	n/a	n/a	-999	9	[0, 0, 0]	n/a	catFR1	0	R1317D
1692.137	0.001	1694133	RETRIEVAL_ORIENT_END	n/a	n/a	n/a	n/a	-999	9	[0, 0, 0]	n/a	catFR1	0	R1317D
1692.138	2.567	1694134	REC_START	n/a	n/a	n/a	n/a	-999	9	[0, 0, 0]	n/a	catFR1	0	R1317D
1694.705	1.682	1696701	REC_WORD	2.567	n/a	SQUID	OceanAnimals	6	9	[0, 0, 0]	n/a	catFR1	0	R1317D
1696.387	2.217	1698383	REC_WORD	4.249	n/a	JELLYFISH	OceanAnimals	12	9	[0, 0, 0]	n/a	catFR1	0	R1317D
1698.604	3.089	1700599	REC_WORD	6.466	n/a	TULIP	Flowers	2	9	[0, 0, 0]	n/a	catFR1	0	R1317D
1701.693	1.852	1703688	REC_WORD_VV	9.555	n/a	<>	n/a	-999	9	[0, 0, 0]	n/a	catFR1	0	R1317D
1703.545	11.783	1705540	REC_WORD	11.407	n/a	MARIGOLD	Flowers	1	9	[0, 0, 0]	n/a	catFR1	0	R1317D
1715.328	6.821	1717323	REC_WORD	23.19	n/a	ROSE	Flowers	10	9	[0, 0, 0]	n/a	catFR1	0	R1317D
1722.149	0.001	1724143	REC_END	n/a	n/a	n/a	n/a	-999	9	[0, 0, 0]	n/a	catFR1	0	R1317D
1722.15	0.023	1724144	TRIAL_END	n/a	n/a	n/a	n/a	-999	9	[0, 0, 0]	n/a	catFR1	0	R1317D
1722.173	0.0	1724167	WAITING_START	n/a	n/a	n/a	n/a	-999	10	[0, 0, 0]	n/a	catFR1	0	R1317D
1722.173	0.0	1724167	TRIAL	n/a	n/a	n/a	n/a	-999	10	[0, 0, 0]	n/a	catFR1	0	R1317D
1722.173	1.888	1724167	TRIAL_START	n/a	n/a	n/a	n/a	-999	10	[0, 0, 0]	n/a	catFR1	0	R1317D
1724.061	0.0	1726055	WAITING_END	n/a	n/a	n/a	n/a	-999	10	[0, 0, 0]	n/a	catFR1	0	R1317D
1724.061	10.0	1726055	COUNTDOWN_START	n/a	n/a	n/a	n/a	-999	10	[0, 0, 0]	n/a	catFR1	0	R1317D
1734.49	0.0	1736484	COUNTDOWN_END	n/a	n/a	n/a	n/a	-999	10	[0, 0, 0]	n/a	catFR1	0	R1317D
1734.49	1.173	1736484	ORIENT_START	n/a	n/a	n/a	n/a	-999	10	[0, 0, 0]	n/a	catFR1	0	R1317D
1735.663	0.0	1737656	ORIENT_END	n/a	n/a	n/a	n/a	-999	10	[0, 0, 0]	n/a	catFR1	0	R1317D
1735.663	0.832	1737656	ENCODING_START	n/a	n/a	n/a	n/a	-999	10	[0, 0, 0]	n/a	catFR1	0	R1317D
1736.495	1.6	1738488	WORD	n/a	wordpools/wordpool_categorized_EN.txt	FINCH	Birds	1	10	[0, 0, 0]	n/a	catFR1	0	R1317D
1738.129	0.94	1740122	WORD_OFF	n/a	n/a	FINCH	Birds	1	10	[0, 0, 0]	n/a	catFR1	0	R1317D
1739.069	1.6	1741062	WORD	n/a	wordpools/wordpool_categorized_EN.txt	HAWK	Birds	2	10	[0, 0, 0]	n/a	catFR1	0	R1317D
1740.697	0.952	1742690	WORD_OFF	n/a	n/a	HAWK	Birds	2	10	[0, 0, 0]	n/a	catFR1	0	R1317D
1741.649	1.6	1743642	WORD	n/a	wordpools/wordpool_categorized_EN.txt	RADIO	Electronics	3	10	[0, 0, 0]	n/a	catFR1	0	R1317D
1743.28	0.925	1745273	WORD_OFF	n/a	n/a	RADIO	Electronics	3	10	[0, 0, 0]	n/a	catFR1	0	R1317D
1744.205	1.6	1746198	WORD	n/a	wordpools/wordpool_categorized_EN.txt	STEREO	Electronics	4	10	[0, 0, 0]	n/a	catFR1	0	R1317D
1745.832	1.142	1747825	WORD_OFF	n/a	n/a	STEREO	Electronics	4	10	[0, 0, 0]	n/a	catFR1	0	R1317D
1746.974	1.6	1748967	WORD	n/a	wordpools/wordpool_categorized_EN.txt	FOLDER	OfficeSupplies	5	10	[0, 0, 0]	n/a	catFR1	0	R1317D
1748.599	0.785	1750592	WORD_OFF	n/a	n/a	FOLDER	OfficeSupplies	5	10	[0, 0, 0]	n/a	catFR1	0	R1317D
1749.384	1.6	1751377	WORD	n/a	wordpools/wordpool_categorized_EN.txt	STAPLER	OfficeSupplies	6	10	[0, 0, 0]	n/a	catFR1	0	R1317D
1751.016	0.808	1753009	WORD_OFF	n/a	n/a	STAPLER	OfficeSupplies	6	10	[0, 0, 0]	n/a	catFR1	0	R1317D
1751.824	1.6	1753817	WORD	n/a	wordpools/wordpool_categorized_EN.txt	COMPUTER	Electronics	7	10	[0, 0, 0]	n/a	catFR1	0	R1317D
1753.45	1.135	1755443	WORD_OFF	n/a	n/a	COMPUTER	Electronics	7	10	[0, 0, 0]	n/a	catFR1	0	R1317D
1754.585	1.6	1756577	WORD	n/a	wordpools/wordpool_categorized_EN.txt	SCANNER	Electronics	8	10	[0, 0, 0]	n/a	catFR1	0	R1317D
1756.216	0.95	1758208	WORD_OFF	n/a	n/a	SCANNER	Electronics	8	10	[0, 0, 0]	n/a	catFR1	0	R1317D
1757.166	1.6	1759158	WORD	n/a	wordpools/wordpool_categorized_EN.txt	DOVE	Birds	9	10	[0, 0, 0]	n/a	catFR1	0	R1317D
1758.801	0.89	1760793	WORD_OFF	n/a	n/a	DOVE	Birds	9	10	[0, 0, 0]	n/a	catFR1	0	R1317D
1759.691	1.6	1761683	WORD	n/a	wordpools/wordpool_categorized_EN.txt	CARDINAL	Birds	10	10	[0, 0, 0]	n/a	catFR1	0	R1317D
1761.317	0.777	1763309	WORD_OFF	n/a	n/a	CARDINAL	Birds	10	10	[0, 0, 0]	n/a	catFR1	0	R1317D
1762.094	1.6	1764086	WORD	n/a	wordpools/wordpool_categorized_EN.txt	TAPE	OfficeSupplies	11	10	[0, 0, 0]	n/a	catFR1	0	R1317D
1763.718	0.799	1765710	WORD_OFF	n/a	n/a	TAPE	OfficeSupplies	11	10	[0, 0, 0]	n/a	catFR1	0	R1317D
1764.517	1.6	1766509	WORD	n/a	wordpools/wordpool_categorized_EN.txt	PENCIL	OfficeSupplies	12	10	[0, 0, 0]	n/a	catFR1	0	R1317D
1766.151	0.0	1768143	WORD_OFF	n/a	n/a	PENCIL	OfficeSupplies	12	10	[0, 0, 0]	n/a	catFR1	0	R1317D
1766.151	0.001	1768143	ENCODING_END	n/a	n/a	n/a	n/a	-999	10	[0, 0, 0]	n/a	catFR1	0	R1317D
1766.152	0.0	1768144	DISTRACT_START	n/a	n/a	n/a	n/a	-999	10	[0, 0, 0]	n/a	catFR1	0	R1317D
1766.152	0.015	1768144	START	n/a	n/a	n/a	n/a	-999	10	[-999, -999, -999]	n/a	catFR1	0	R1317D
1766.167	4.802	1768159	PROB	4.768	n/a	n/a	n/a	-999	10	[9, 5, 1]	15.0	catFR1	0	R1317D
1770.969	3.751	1772961	PROB	3.726	n/a	n/a	n/a	-999	10	[3, 1, 7]	11.0	catFR1	0	R1317D
1774.72	3.951	1776711	PROB	3.926	n/a	n/a	n/a	-999	10	[1, 5, 3]	9.0	catFR1	0	R1317D
1778.671	6.017	1780662	PROB	5.987	n/a	n/a	n/a	-999	10	[7, 4, 8]	19.0	catFR1	0	R1317D
1784.688	5.102	1786679	PROB	5.102	n/a	n/a	n/a	-999	10	[5, 7, 7]	19.0	catFR1	0	R1317D
1789.79	0.016	1791781	STOP	n/a	n/a	n/a	n/a	-999	10	[-999, -999, -999]	n/a	catFR1	0	R1317D
1789.806	0.657	1791797	DISTRACT_END	n/a	n/a	n/a	n/a	-999	10	[0, 0, 0]	n/a	catFR1	0	R1317D
1790.463	1.6	1792454	RETRIEVAL_ORIENT_START	n/a	n/a	n/a	n/a	-999	10	[0, 0, 0]	n/a	catFR1	0	R1317D
1792.139	0.0	1794129	RETRIEVAL_ORIENT_END	n/a	n/a	n/a	n/a	-999	10	[0, 0, 0]	n/a	catFR1	0	R1317D
1792.139	1.435	1794129	REC_START	n/a	n/a	n/a	n/a	-999	10	[0, 0, 0]	n/a	catFR1	0	R1317D
1793.574	1.546	1795564	REC_WORD	1.435	n/a	FINCH	Birds	1	10	[0, 0, 0]	n/a	catFR1	0	R1317D
1795.12	1.712	1797110	REC_WORD	2.981	n/a	HAWK	Birds	2	10	[0, 0, 0]	n/a	catFR1	0	R1317D
1796.832	5.476	1798822	REC_WORD	4.693	n/a	CARDINAL	Birds	10	10	[0, 0, 0]	n/a	catFR1	0	R1317D
1802.308	1.788	1804298	REC_WORD	10.169	n/a	COMPUTER	Electronics	7	10	[0, 0, 0]	n/a	catFR1	0	R1317D
1804.096	5.259	1806086	REC_WORD	11.957	n/a	SCANNER	Electronics	8	10	[0, 0, 0]	n/a	catFR1	0	R1317D
1809.355	0.768	1811345	REC_WORD	17.216	n/a	RADIO	Electronics	3	10	[0, 0, 0]	n/a	catFR1	0	R1317D
1810.123	6.22	1812113	REC_WORD	17.984	n/a	STEREO	Electronics	4	10	[0, 0, 0]	n/a	catFR1	0	R1317D
1816.343	5.809	1818332	REC_WORD	24.204	n/a	DOVE	Birds	9	10	[0, 0, 0]	n/a	catFR1	0	R1317D
1822.152	0.0	1824141	REC_END	n/a	n/a	n/a	n/a	-999	10	[0, 0, 0]	n/a	catFR1	0	R1317D
1822.152	0.026	1824141	TRIAL_END	n/a	n/a	n/a	n/a	-999	10	[0, 0, 0]	n/a	catFR1	0	R1317D
1822.178	0.0	1824167	WAITING_START	n/a	n/a	n/a	n/a	-999	11	[0, 0, 0]	n/a	catFR1	0	R1317D
1822.178	0.0	1824167	TRIAL_START	n/a	n/a	n/a	n/a	-999	11	[0, 0, 0]	n/a	catFR1	0	R1317D
1822.178	2.1	1824167	TRIAL	n/a	n/a	n/a	n/a	-999	11	[0, 0, 0]	n/a	catFR1	0	R1317D
1824.278	0.001	1826267	WAITING_END	n/a	n/a	n/a	n/a	-999	11	[0, 0, 0]	n/a	catFR1	0	R1317D
1824.279	10.0	1826268	COUNTDOWN_START	n/a	n/a	n/a	n/a	-999	11	[0, 0, 0]	n/a	catFR1	0	R1317D
1834.707	0.001	1836695	COUNTDOWN_END	n/a	n/a	n/a	n/a	-999	11	[0, 0, 0]	n/a	catFR1	0	R1317D
1834.708	1.223	1836696	ORIENT_START	n/a	n/a	n/a	n/a	-999	11	[0, 0, 0]	n/a	catFR1	0	R1317D
1835.931	0.001	1837919	ORIENT_END	n/a	n/a	n/a	n/a	-999	11	[0, 0, 0]	n/a	catFR1	0	R1317D
1835.932	1.031	1837920	ENCODING_START	n/a	n/a	n/a	n/a	-999	11	[0, 0, 0]	n/a	catFR1	0	R1317D
1836.963	1.6	1838951	WORD	n/a	wordpools/wordpool_categorized_EN.txt	HALLWAY	Building	1	11	[0, 0, 0]	n/a	catFR1	0	R1317D
1838.598	0.919	1840586	WORD_OFF	n/a	n/a	HALLWAY	Building	1	11	[0, 0, 0]	n/a	catFR1	0	R1317D
1839.517	1.6	1841505	WORD	n/a	wordpools/wordpool_categorized_EN.txt	ROOM	Building	2	11	[0, 0, 0]	n/a	catFR1	0	R1317D
1841.148	0.961	1843136	WORD_OFF	n/a	n/a	ROOM	Building	2	11	[0, 0, 0]	n/a	catFR1	0	R1317D
1842.109	1.6	1844097	WORD	n/a	wordpools/wordpool_categorized_EN.txt	ROOSTER	FarmAnimals	3	11	[0, 0, 0]	n/a	catFR1	0	R1317D
1843.733	1.128	1845721	WORD_OFF	n/a	n/a	ROOSTER	FarmAnimals	3	11	[0, 0, 0]	n/a	catFR1	0	R1317D
1844.861	1.6	1846849	WORD	n/a	wordpools/wordpool_categorized_EN.txt	HEN	FarmAnimals	4	11	[0, 0, 0]	n/a	catFR1	0	R1317D
1846.483	0.888	1848471	WORD_OFF	n/a	n/a	HEN	FarmAnimals	4	11	[0, 0, 0]	n/a	catFR1	0	R1317D
1847.371	1.6	1849359	WORD	n/a	wordpools/wordpool_categorized_EN.txt	ORCHID	Flowers	5	11	[0, 0, 0]	n/a	catFR1	0	R1317D
1849.0	0.919	1850987	WORD_OFF	n/a	n/a	ORCHID	Flowers	5	11	[0, 0, 0]	n/a	catFR1	0	R1317D
1849.919	1.6	1851906	WORD	n/a	wordpools/wordpool_categorized_EN.txt	LILAC	Flowers	6	11	[0, 0, 0]	n/a	catFR1	0	R1317D
1851.551	1.038	1853538	WORD_OFF	n/a	n/a	LILAC	Flowers	6	11	[0, 0, 0]	n/a	catFR1	0	R1317D
1852.589	1.6	1854576	WORD	n/a	wordpools/wordpool_categorized_EN.txt	CHICKEN	FarmAnimals	7	11	[0, 0, 0]	n/a	catFR1	0	R1317D
1854.217	0.918	1856204	WORD_OFF	n/a	n/a	CHICKEN	FarmAnimals	7	11	[0, 0, 0]	n/a	catFR1	0	R1317D
1855.135	1.6	1857122	WORD	n/a	wordpools/wordpool_categorized_EN.txt	CALF	FarmAnimals	8	11	[0, 0, 0]	n/a	catFR1	0	R1317D
1856.751	0.782	1858738	WORD_OFF	n/a	n/a	CALF	FarmAnimals	8	11	[0, 0, 0]	n/a	catFR1	0	R1317D
1857.533	1.6	1859520	WORD	n/a	wordpools/wordpool_categorized_EN.txt	FLOOR	Building	9	11	[0, 0, 0]	n/a	catFR1	0	R1317D
1859.168	0.921	1861155	WORD_OFF	n/a	n/a	FLOOR	Building	9	11	[0, 0, 0]	n/a	catFR1	0	R1317D
1860.089	1.6	1862076	WORD	n/a	wordpools/wordpool_categorized_EN.txt	BATHROOM	Building	10	11	[0, 0, 0]	n/a	catFR1	0	R1317D
1861.719	0.895	1863706	WORD_OFF	n/a	n/a	BATHROOM	Building	10	11	[0, 0, 0]	n/a	catFR1	0	R1317D
1862.614	1.6	1864601	WORD	n/a	wordpools/wordpool_categorized_EN.txt	VIOLET	Flowers	11	11	[0, 0, 0]	n/a	catFR1	0	R1317D
1864.235	1.107	1866222	WORD_OFF	n/a	n/a	VIOLET	Flowers	11	11	[0, 0, 0]	n/a	catFR1	0	R1317D
1865.342	1.6	1867329	WORD	n/a	wordpools/wordpool_categorized_EN.txt	DAFFODIL	Flowers	12	11	[0, 0, 0]	n/a	catFR1	0	R1317D
1866.953	0.001	1868940	WORD_OFF	n/a	n/a	DAFFODIL	Flowers	12	11	[0, 0, 0]	n/a	catFR1	0	R1317D
1866.954	0.0	1868941	ENCODING_END	n/a	n/a	n/a	n/a	-999	11	[0, 0, 0]	n/a	catFR1	0	R1317D
1866.954	0.0	1868941	DISTRACT_START	n/a	n/a	n/a	n/a	-999	11	[0, 0, 0]	n/a	catFR1	0	R1317D
1866.954	0.016	1868941	START	n/a	n/a	n/a	n/a	-999	11	[-999, -999, -999]	n/a	catFR1	0	R1317D
1866.97	4.751	1868957	PROB	4.715	n/a	n/a	n/a	-999	11	[9, 1, 7]	17.0	catFR1	0	R1317D
1871.721	4.583	1873707	PROB	4.551	n/a	n/a	n/a	-999	11	[2, 3, 2]	7.0	catFR1	0	R1317D
1876.304	4.452	1878290	PROB	4.426	n/a	n/a	n/a	-999	11	[7, 6, 1]	14.0	catFR1	0	R1317D
1880.756	6.744	1882742	PROB	6.744	n/a	n/a	n/a	-999	11	[9, 7, 6]	22.0	catFR1	0	R1317D
1887.5	0.007	1889485	STOP	n/a	n/a	n/a	n/a	-999	11	[-999, -999, -999]	n/a	catFR1	0	R1317D
1887.507	0.59	1889492	DISTRACT_END	n/a	n/a	n/a	n/a	-999	11	[0, 0, 0]	n/a	catFR1	0	R1317D
1888.097	1.6	1890082	RETRIEVAL_ORIENT_START	n/a	n/a	n/a	n/a	-999	11	[0, 0, 0]	n/a	catFR1	0	R1317D
1889.624	0.001	1891609	RETRIEVAL_ORIENT_END	n/a	n/a	n/a	n/a	-999	11	[0, 0, 0]	n/a	catFR1	0	R1317D
1889.625	2.371	1891610	REC_START	n/a	n/a	n/a	n/a	-999	11	[0, 0, 0]	n/a	catFR1	0	R1317D
1891.996	1.412	1893981	REC_WORD	2.371	n/a	ROOSTER	FarmAnimals	3	11	[0, 0, 0]	n/a	catFR1	0	R1317D
1893.408	1.902	1895393	REC_WORD	3.783	n/a	HEN	FarmAnimals	4	11	[0, 0, 0]	n/a	catFR1	0	R1317D
1895.31	2.807	1897295	REC_WORD	5.685	n/a	CHICKEN	FarmAnimals	7	11	[0, 0, 0]	n/a	catFR1	0	R1317D
1898.117	3.583	1900102	REC_WORD	8.492	n/a	LILAC	Flowers	6	11	[0, 0, 0]	n/a	catFR1	0	R1317D
1901.7	1.085	1903685	REC_WORD	12.075	n/a	HALLWAY	Building	1	11	[0, 0, 0]	n/a	catFR1	0	R1317D
1902.785	6.437	1904770	REC_WORD	13.16	n/a	ROOM	Building	2	11	[0, 0, 0]	n/a	catFR1	0	R1317D
1909.222	2.552	1911206	REC_WORD_VV	19.597	n/a	<>	n/a	-999	11	[0, 0, 0]	n/a	catFR1	0	R1317D
1911.774	0.215	1913758	REC_WORD_VV	22.149	n/a	<>	n/a	-999	11	[0, 0, 0]	n/a	catFR1	0	R1317D
1911.989	4.069	1913973	REC_WORD	22.364	n/a	TOASTER	Appliances	-999	11	[0, 0, 0]	n/a	catFR1	0	R1317D
1916.058	3.578	1918042	REC_WORD	26.433	n/a	OVEN	Appliances	-999	11	[0, 0, 0]	n/a	catFR1	0	R1317D
1919.636	0.0	1921620	TRIAL_END	n/a	n/a	n/a	n/a	-999	11	[0, 0, 0]	n/a	catFR1	0	R1317D
1919.636	0.026	1921620	REC_END	n/a	n/a	n/a	n/a	-999	11	[0, 0, 0]	n/a	catFR1	0	R1317D
1919.662	0.0	1921646	TRIAL_START	n/a	n/a	n/a	n/a	-999	12	[0, 0, 0]	n/a	catFR1	0	R1317D
1919.662	0.0	1921646	TRIAL	n/a	n/a	n/a	n/a	-999	12	[0, 0, 0]	n/a	catFR1	0	R1317D
1919.662	1.617	1921646	WAITING_START	n/a	n/a	n/a	n/a	-999	12	[0, 0, 0]	n/a	catFR1	0	R1317D
1921.279	0.0	1923263	WAITING_END	n/a	n/a	n/a	n/a	-999	12	[0, 0, 0]	n/a	catFR1	0	R1317D
1921.279	10.0	1923263	COUNTDOWN_START	n/a	n/a	n/a	n/a	-999	12	[0, 0, 0]	n/a	catFR1	0	R1317D
1931.708	0.0	1933691	COUNTDOWN_END	n/a	n/a	n/a	n/a	-999	12	[0, 0, 0]	n/a	catFR1	0	R1317D
1931.708	1.024	1933691	ORIENT_START	n/a	n/a	n/a	n/a	-999	12	[0, 0, 0]	n/a	catFR1	0	R1317D
1932.732	0.001	1934715	ORIENT_END	n/a	n/a	n/a	n/a	-999	12	[0, 0, 0]	n/a	catFR1	0	R1317D
1932.733	1.025	1934716	ENCODING_START	n/a	n/a	n/a	n/a	-999	12	[0, 0, 0]	n/a	catFR1	0	R1317D
1933.758	1.6	1935741	WORD	n/a	wordpools/wordpool_categorized_EN.txt	DAISY	Flowers	1	12	[0, 0, 0]	n/a	catFR1	0	R1317D
1935.383	0.922	1937366	WORD_OFF	n/a	n/a	DAISY	Flowers	1	12	[0, 0, 0]	n/a	catFR1	0	R1317D
1936.305	1.6	1938288	WORD	n/a	wordpools/wordpool_categorized_EN.txt	PETUNIA	Flowers	2	12	[0, 0, 0]	n/a	catFR1	0	R1317D
1937.917	1.049	1939900	WORD_OFF	n/a	n/a	PETUNIA	Flowers	2	12	[0, 0, 0]	n/a	catFR1	0	R1317D
1938.966	1.6	1940949	WORD	n/a	wordpools/wordpool_categorized_EN.txt	TABLE	Furniture	3	12	[0, 0, 0]	n/a	catFR1	0	R1317D
1940.6	0.8	1942583	WORD_OFF	n/a	n/a	TABLE	Furniture	3	12	[0, 0, 0]	n/a	catFR1	0	R1317D
1941.4	1.6	1943383	WORD	n/a	wordpools/wordpool_categorized_EN.txt	COUCH	Furniture	4	12	[0, 0, 0]	n/a	catFR1	0	R1317D
1943.034	1.062	1945017	WORD_OFF	n/a	n/a	COUCH	Furniture	4	12	[0, 0, 0]	n/a	catFR1	0	R1317D
1944.096	1.6	1946078	WORD	n/a	wordpools/wordpool_categorized_EN.txt	EVERGREEN	Trees	5	12	[0, 0, 0]	n/a	catFR1	0	R1317D
1945.718	0.892	1947700	WORD_OFF	n/a	n/a	EVERGREEN	Trees	5	12	[0, 0, 0]	n/a	catFR1	0	R1317D
1946.61	1.6	1948592	WORD	n/a	wordpools/wordpool_categorized_EN.txt	OAK	Trees	6	12	[0, 0, 0]	n/a	catFR1	0	R1317D
1948.234	0.959	1950216	WORD_OFF	n/a	n/a	OAK	Trees	6	12	[0, 0, 0]	n/a	catFR1	0	R1317D
1949.193	1.6	1951175	WORD	n/a	wordpools/wordpool_categorized_EN.txt	NIGHTSTAND	Furniture	7	12	[0, 0, 0]	n/a	catFR1	0	R1317D
1950.819	0.845	1952801	WORD_OFF	n/a	n/a	NIGHTSTAND	Furniture	7	12	[0, 0, 0]	n/a	catFR1	0	R1317D
1951.664	1.6	1953646	WORD	n/a	wordpools/wordpool_categorized_EN.txt	BED	Furniture	8	12	[0, 0, 0]	n/a	catFR1	0	R1317D
1953.285	0.879	1955267	WORD_OFF	n/a	n/a	BED	Furniture	8	12	[0, 0, 0]	n/a	catFR1	0	R1317D
1954.164	1.6	1956146	WORD	n/a	wordpools/wordpool_categorized_EN.txt	CARNATION	Flowers	9	12	[0, 0, 0]	n/a	catFR1	0	R1317D
1955.803	1.03	1957785	WORD_OFF	n/a	n/a	CARNATION	Flowers	9	12	[0, 0, 0]	n/a	catFR1	0	R1317D
1956.833	1.6	1958815	WORD	n/a	wordpools/wordpool_categorized_EN.txt	SUNFLOWER	Flowers	10	12	[0, 0, 0]	n/a	catFR1	0	R1317D
1958.47	0.796	1960452	WORD_OFF	n/a	n/a	SUNFLOWER	Flowers	10	12	[0, 0, 0]	n/a	catFR1	0	R1317D
1959.266	1.6	1961248	WORD	n/a	wordpools/wordpool_categorized_EN.txt	WALNUT	Trees	11	12	[0, 0, 0]	n/a	catFR1	0	R1317D
1960.904	0.952	1962886	WORD_OFF	n/a	n/a	WALNUT	Trees	11	12	[0, 0, 0]	n/a	catFR1	0	R1317D
1961.856	1.6	1963838	WORD	n/a	wordpools/wordpool_categorized_EN.txt	MAPLE	Trees	12	12	[0, 0, 0]	n/a	catFR1	0	R1317D
1963.488	0.0	1965469	WORD_OFF	n/a	n/a	MAPLE	Trees	12	12	[0, 0, 0]	n/a	catFR1	0	R1317D
1963.488	0.001	1965469	ENCODING_END	n/a	n/a	n/a	n/a	-999	12	[0, 0, 0]	n/a	catFR1	0	R1317D
1963.489	0.0	1965470	DISTRACT_START	n/a	n/a	n/a	n/a	-999	12	[0, 0, 0]	n/a	catFR1	0	R1317D
1963.489	0.015	1965470	START	n/a	n/a	n/a	n/a	-999	12	[-999, -999, -999]	n/a	catFR1	0	R1317D
1963.504	6.468	1965485	PROB	6.44	n/a	n/a	n/a	-999	12	[6, 9, 7]	22.0	catFR1	0	R1317D
1969.972	3.534	1971953	PROB	3.509	n/a	n/a	n/a	-999	12	[2, 3, 5]	10.0	catFR1	0	R1317D
1973.506	5.968	1975487	PROB	5.938	n/a	n/a	n/a	-999	12	[4, 6, 8]	18.0	catFR1	0	R1317D
1979.474	3.084	1981455	PROB	3.049	n/a	n/a	n/a	-999	12	[2, 2, 8]	12.0	catFR1	0	R1317D
1982.558	5.46	1984538	PROB	5.46	n/a	n/a	n/a	-999	12	[9, 2, 8]	19.0	catFR1	0	R1317D
1988.018	0.008	1989998	STOP	n/a	n/a	n/a	n/a	-999	12	[-999, -999, -999]	n/a	catFR1	0	R1317D
1988.026	0.567	1990006	DISTRACT_END	n/a	n/a	n/a	n/a	-999	12	[0, 0, 0]	n/a	catFR1	0	R1317D
1988.593	1.6	1990573	RETRIEVAL_ORIENT_START	n/a	n/a	n/a	n/a	-999	12	[0, 0, 0]	n/a	catFR1	0	R1317D
1990.208	0.001	1992188	RETRIEVAL_ORIENT_END	n/a	n/a	n/a	n/a	-999	12	[0, 0, 0]	n/a	catFR1	0	R1317D
1990.209	2.134	1992189	REC_START	n/a	n/a	n/a	n/a	-999	12	[0, 0, 0]	n/a	catFR1	0	R1317D
1992.343	1.567	1994323	REC_WORD	2.134	n/a	SPRUCE	Trees	-999	12	[0, 0, 0]	n/a	catFR1	0	R1317D
1993.91	2.374	1995890	REC_WORD	3.701	n/a	OAK	Trees	6	12	[0, 0, 0]	n/a	catFR1	0	R1317D
1996.284	0.36	1998264	REC_WORD_VV	6.075	n/a	<>	n/a	-999	12	[0, 0, 0]	n/a	catFR1	0	R1317D
1996.644	2.08	1998624	REC_WORD	6.435	n/a	NIGHTSTAND	Furniture	7	12	[0, 0, 0]	n/a	catFR1	0	R1317D
1998.724	11.85	2000704	REC_WORD	8.515	n/a	TABLE	Furniture	3	12	[0, 0, 0]	n/a	catFR1	0	R1317D
2010.574	9.646	2012553	REC_WORD_VV	20.365	n/a	<>	n/a	-999	12	[0, 0, 0]	n/a	catFR1	0	R1317D
2020.22	0.0	2022198	TRIAL_END	n/a	n/a	n/a	n/a	-999	12	[0, 0, 0]	n/a	catFR1	0	R1317D
2020.22	0.024	2022198	REC_END	n/a	n/a	n/a	n/a	-999	12	[0, 0, 0]	n/a	catFR1	0	R1317D
2020.244	0.0	2022222	TRIAL_START	n/a	n/a	n/a	n/a	-999	13	[0, 0, 0]	n/a	catFR1	0	R1317D
2020.244	0.0	2022222	TRIAL	n/a	n/a	n/a	n/a	-999	13	[0, 0, 0]	n/a	catFR1	0	R1317D
2020.244	1.554	2022222	WAITING_START	n/a	n/a	n/a	n/a	-999	13	[0, 0, 0]	n/a	catFR1	0	R1317D
2021.798	0.001	2023776	WAITING_END	n/a	n/a	n/a	n/a	-999	13	[0, 0, 0]	n/a	catFR1	0	R1317D
2021.799	10.0	2023777	COUNTDOWN_START	n/a	n/a	n/a	n/a	-999	13	[0, 0, 0]	n/a	catFR1	0	R1317D
2032.228	0.001	2034206	COUNTDOWN_END	n/a	n/a	n/a	n/a	-999	13	[0, 0, 0]	n/a	catFR1	0	R1317D
2032.229	1.155	2034207	ORIENT_START	n/a	n/a	n/a	n/a	-999	13	[0, 0, 0]	n/a	catFR1	0	R1317D
2033.384	0.0	2035362	ORIENT_END	n/a	n/a	n/a	n/a	-999	13	[0, 0, 0]	n/a	catFR1	0	R1317D
2033.384	1.087	2035362	ENCODING_START	n/a	n/a	n/a	n/a	-999	13	[0, 0, 0]	n/a	catFR1	0	R1317D
2034.471	1.6	2036449	WORD	n/a	wordpools/wordpool_categorized_EN.txt	COOKIE	Desserts	1	13	[0, 0, 0]	n/a	catFR1	0	R1317D
2036.1	0.843	2038078	WORD_OFF	n/a	n/a	COOKIE	Desserts	1	13	[0, 0, 0]	n/a	catFR1	0	R1317D
2036.943	1.6	2038921	WORD	n/a	wordpools/wordpool_categorized_EN.txt	PIE	Desserts	2	13	[0, 0, 0]	n/a	catFR1	0	R1317D
2038.568	0.974	2040545	WORD_OFF	n/a	n/a	PIE	Desserts	2	13	[0, 0, 0]	n/a	catFR1	0	R1317D
2039.542	1.6	2041519	WORD	n/a	wordpools/wordpool_categorized_EN.txt	PHONE	Electronics	3	13	[0, 0, 0]	n/a	catFR1	0	R1317D
2041.168	1.103	2043145	WORD_OFF	n/a	n/a	PHONE	Electronics	3	13	[0, 0, 0]	n/a	catFR1	0	R1317D
2042.271	1.6	2044248	WORD	n/a	wordpools/wordpool_categorized_EN.txt	SPEAKER	Electronics	4	13	[0, 0, 0]	n/a	catFR1	0	R1317D
2043.886	0.894	2045863	WORD_OFF	n/a	n/a	SPEAKER	Electronics	4	13	[0, 0, 0]	n/a	catFR1	0	R1317D
2044.78	1.6	2046757	WORD	n/a	wordpools/wordpool_categorized_EN.txt	VAN	Vehicles	5	13	[0, 0, 0]	n/a	catFR1	0	R1317D
2046.403	1.114	2048380	WORD_OFF	n/a	n/a	VAN	Vehicles	5	13	[0, 0, 0]	n/a	catFR1	0	R1317D
2047.517	1.6	2049494	WORD	n/a	wordpools/wordpool_categorized_EN.txt	SCOOTER	Vehicles	6	13	[0, 0, 0]	n/a	catFR1	0	R1317D
2049.152	0.973	2051129	WORD_OFF	n/a	n/a	SCOOTER	Vehicles	6	13	[0, 0, 0]	n/a	catFR1	0	R1317D
2050.125	1.6	2052102	WORD	n/a	wordpools/wordpool_categorized_EN.txt	COBBLER	Desserts	7	13	[0, 0, 0]	n/a	catFR1	0	R1317D
2051.754	1.067	2053731	WORD_OFF	n/a	n/a	COBBLER	Desserts	7	13	[0, 0, 0]	n/a	catFR1	0	R1317D
2052.821	1.6	2054798	WORD	n/a	wordpools/wordpool_categorized_EN.txt	FUDGE	Desserts	8	13	[0, 0, 0]	n/a	catFR1	0	R1317D
2054.454	1.097	2056431	WORD_OFF	n/a	n/a	FUDGE	Desserts	8	13	[0, 0, 0]	n/a	catFR1	0	R1317D
2055.551	1.6	2057528	WORD	n/a	wordpools/wordpool_categorized_EN.txt	TELEVISION	Electronics	9	13	[0, 0, 0]	n/a	catFR1	0	R1317D
2057.187	0.913	2059163	WORD_OFF	n/a	n/a	TELEVISION	Electronics	9	13	[0, 0, 0]	n/a	catFR1	0	R1317D
2058.1	1.6	2060076	WORD	n/a	wordpools/wordpool_categorized_EN.txt	TABLET	Electronics	10	13	[0, 0, 0]	n/a	catFR1	0	R1317D
2059.739	1.037	2061715	WORD_OFF	n/a	n/a	TABLET	Electronics	10	13	[0, 0, 0]	n/a	catFR1	0	R1317D
2060.776	1.6	2062752	WORD	n/a	wordpools/wordpool_categorized_EN.txt	JEEP	Vehicles	11	13	[0, 0, 0]	n/a	catFR1	0	R1317D
2062.406	1.125	2064382	WORD_OFF	n/a	n/a	JEEP	Vehicles	11	13	[0, 0, 0]	n/a	catFR1	0	R1317D
2063.531	1.6	2065507	WORD	n/a	wordpools/wordpool_categorized_EN.txt	PLANE	Vehicles	12	13	[0, 0, 0]	n/a	catFR1	0	R1317D
2065.155	0.001	2067131	WORD_OFF	n/a	n/a	PLANE	Vehicles	12	13	[0, 0, 0]	n/a	catFR1	0	R1317D
2065.156	0.0	2067132	ENCODING_END	n/a	n/a	n/a	n/a	-999	13	[0, 0, 0]	n/a	catFR1	0	R1317D
2065.156	0.0	2067132	DISTRACT_START	n/a	n/a	n/a	n/a	-999	13	[0, 0, 0]	n/a	catFR1	0	R1317D
2065.156	0.016	2067132	START	n/a	n/a	n/a	n/a	-999	13	[-999, -999, -999]	n/a	catFR1	0	R1317D
2065.172	5.402	2067148	PROB	5.364	n/a	n/a	n/a	-999	13	[9, 6, 4]	19.0	catFR1	0	R1317D
2070.574	7.351	2072550	PROB	7.327	n/a	n/a	n/a	-999	13	[8, 5, 7]	20.0	catFR1	0	R1317D
2077.925	6.935	2079900	PROB	6.902	n/a	n/a	n/a	-999	13	[6, 6, 7]	19.0	catFR1	0	R1317D
2084.86	5.301	2086835	PROB	5.301	n/a	n/a	n/a	-999	13	[8, 2, 5]	15.0	catFR1	0	R1317D
2090.161	0.016	2092136	STOP	n/a	n/a	n/a	n/a	-999	13	[-999, -999, -999]	n/a	catFR1	0	R1317D
2090.177	0.663	2092152	DISTRACT_END	n/a	n/a	n/a	n/a	-999	13	[0, 0, 0]	n/a	catFR1	0	R1317D
2090.84	1.6	2092815	RETRIEVAL_ORIENT_START	n/a	n/a	n/a	n/a	-999	13	[0, 0, 0]	n/a	catFR1	0	R1317D
2092.461	0.001	2094436	RETRIEVAL_ORIENT_END	n/a	n/a	n/a	n/a	-999	13	[0, 0, 0]	n/a	catFR1	0	R1317D
2092.462	1.022	2094437	REC_START	n/a	n/a	n/a	n/a	-999	13	[0, 0, 0]	n/a	catFR1	0	R1317D
2093.484	1.513	2095459	REC_WORD	1.022	n/a	JEEP	Vehicles	11	13	[0, 0, 0]	n/a	catFR1	0	R1317D
2094.997	3.925	2096971	REC_WORD	2.535	n/a	COOKIE	Desserts	1	13	[0, 0, 0]	n/a	catFR1	0	R1317D
2098.922	0.645	2100896	REC_WORD	6.46	n/a	FUDGE	Desserts	8	13	[0, 0, 0]	n/a	catFR1	0	R1317D
2099.567	9.561	2101541	REC_WORD	7.105	n/a	COBBLER	Desserts	7	13	[0, 0, 0]	n/a	catFR1	0	R1317D
2109.128	13.347	2111102	REC_WORD	16.666	n/a	TELEPHONE	n/a	-999	13	[0, 0, 0]	n/a	catFR1	0	R1317D
2122.475	0.0	2124448	REC_END	n/a	n/a	n/a	n/a	-999	13	[0, 0, 0]	n/a	catFR1	0	R1317D
2122.475	0.021	2124448	TRIAL_END	n/a	n/a	n/a	n/a	-999	13	[0, 0, 0]	n/a	catFR1	0	R1317D
2122.496	0.001	2124469	TRIAL_START	n/a	n/a	n/a	n/a	-999	14	[0, 0, 0]	n/a	catFR1	0	R1317D
2122.497	0.0	2124470	WAITING_START	n/a	n/a	n/a	n/a	-999	14	[0, 0, 0]	n/a	catFR1	0	R1317D
2122.497	2.337	2124470	TRIAL	n/a	n/a	n/a	n/a	-999	14	[0, 0, 0]	n/a	catFR1	0	R1317D
2124.834	0.0	2126807	WAITING_END	n/a	n/a	n/a	n/a	-999	14	[0, 0, 0]	n/a	catFR1	0	R1317D
2124.834	10.0	2126807	COUNTDOWN_START	n/a	n/a	n/a	n/a	-999	14	[0, 0, 0]	n/a	catFR1	0	R1317D
2135.263	0.001	2137235	COUNTDOWN_END	n/a	n/a	n/a	n/a	-999	14	[0, 0, 0]	n/a	catFR1	0	R1317D
2135.264	1.255	2137236	ORIENT_START	n/a	n/a	n/a	n/a	-999	14	[0, 0, 0]	n/a	catFR1	0	R1317D
2136.519	0.001	2138491	ORIENT_END	n/a	n/a	n/a	n/a	-999	14	[0, 0, 0]	n/a	catFR1	0	R1317D
2136.52	1.115	2138492	ENCODING_START	n/a	n/a	n/a	n/a	-999	14	[0, 0, 0]	n/a	catFR1	0	R1317D
2137.635	1.6	2139607	WORD	n/a	wordpools/wordpool_categorized_EN.txt	COLA	Beverages	1	14	[0, 0, 0]	n/a	catFR1	0	R1317D
2139.269	0.88	2141241	WORD_OFF	n/a	n/a	COLA	Beverages	1	14	[0, 0, 0]	n/a	catFR1	0	R1317D
2140.149	1.6	2142121	WORD	n/a	wordpools/wordpool_categorized_EN.txt	TEA	Beverages	2	14	[0, 0, 0]	n/a	catFR1	0	R1317D
2141.77	0.808	2143742	WORD_OFF	n/a	n/a	TEA	Beverages	2	14	[0, 0, 0]	n/a	catFR1	0	R1317D
2142.578	1.6	2144550	WORD	n/a	wordpools/wordpool_categorized_EN.txt	ROOF	Building	3	14	[0, 0, 0]	n/a	catFR1	0	R1317D
2144.203	0.797	2146175	WORD_OFF	n/a	n/a	ROOF	Building	3	14	[0, 0, 0]	n/a	catFR1	0	R1317D
2145.0	1.6	2146972	WORD	n/a	wordpools/wordpool_categorized_EN.txt	CEILING	Building	4	14	[0, 0, 0]	n/a	catFR1	0	R1317D
2146.638	0.948	2148610	WORD_OFF	n/a	n/a	CEILING	Building	4	14	[0, 0, 0]	n/a	catFR1	0	R1317D
2147.586	1.6	2149558	WORD	n/a	wordpools/wordpool_categorized_EN.txt	CREEK	Landscapes	5	14	[0, 0, 0]	n/a	catFR1	0	R1317D
2149.221	1.11	2151193	WORD_OFF	n/a	n/a	CREEK	Landscapes	5	14	[0, 0, 0]	n/a	catFR1	0	R1317D
2150.331	1.6	2152303	WORD	n/a	wordpools/wordpool_categorized_EN.txt	WOODS	Landscapes	6	14	[0, 0, 0]	n/a	catFR1	0	R1317D
2151.939	1.09	2153910	WORD_OFF	n/a	n/a	WOODS	Landscapes	6	14	[0, 0, 0]	n/a	catFR1	0	R1317D
2153.029	1.6	2155000	WORD	n/a	wordpools/wordpool_categorized_EN.txt	FOUNDATION	Building	7	14	[0, 0, 0]	n/a	catFR1	0	R1317D
2154.656	0.825	2156627	WORD_OFF	n/a	n/a	FOUNDATION	Building	7	14	[0, 0, 0]	n/a	catFR1	0	R1317D
2155.481	1.6	2157452	WORD	n/a	wordpools/wordpool_categorized_EN.txt	ATTIC	Building	8	14	[0, 0, 0]	n/a	catFR1	0	R1317D
2157.106	1.0	2159077	WORD_OFF	n/a	n/a	ATTIC	Building	8	14	[0, 0, 0]	n/a	catFR1	0	R1317D
2158.106	1.6	2160077	WORD	n/a	wordpools/wordpool_categorized_EN.txt	FOREST	Landscapes	9	14	[0, 0, 0]	n/a	catFR1	0	R1317D
2159.74	0.947	2161711	WORD_OFF	n/a	n/a	FOREST	Landscapes	9	14	[0, 0, 0]	n/a	catFR1	0	R1317D
2160.687	1.6	2162658	WORD	n/a	wordpools/wordpool_categorized_EN.txt	MOUNTAIN	Landscapes	10	14	[0, 0, 0]	n/a	catFR1	0	R1317D
2162.323	0.824	2164294	WORD_OFF	n/a	n/a	MOUNTAIN	Landscapes	10	14	[0, 0, 0]	n/a	catFR1	0	R1317D
2163.147	1.6	2165118	WORD	n/a	wordpools/wordpool_categorized_EN.txt	COFFEE	Beverages	11	14	[0, 0, 0]	n/a	catFR1	0	R1317D
2164.758	1.114	2166729	WORD_OFF	n/a	n/a	COFFEE	Beverages	11	14	[0, 0, 0]	n/a	catFR1	0	R1317D
2165.872	1.6	2167843	WORD	n/a	wordpools/wordpool_categorized_EN.txt	LEMONADE	Beverages	12	14	[0, 0, 0]	n/a	catFR1	0	R1317D
2167.508	0.001	2169479	WORD_OFF	n/a	n/a	LEMONADE	Beverages	12	14	[0, 0, 0]	n/a	catFR1	0	R1317D
2167.509	0.0	2169480	ENCODING_END	n/a	n/a	n/a	n/a	-999	14	[0, 0, 0]	n/a	catFR1	0	R1317D
2167.509	0.0	2169480	DISTRACT_START	n/a	n/a	n/a	n/a	-999	14	[0, 0, 0]	n/a	catFR1	0	R1317D
2167.509	0.016	2169480	START	n/a	n/a	n/a	n/a	-999	14	[-999, -999, -999]	n/a	catFR1	0	R1317D
2167.525	6.451	2169496	PROB	6.413	n/a	n/a	n/a	-999	14	[9, 4, 5]	14.0	catFR1	0	R1317D
2173.976	6.15	2175946	PROB	6.112	n/a	n/a	n/a	-999	14	[3, 9, 6]	18.0	catFR1	0	R1317D
2180.126	2.885	2182096	PROB	2.859	n/a	n/a	n/a	-999	14	[9, 1, 2]	12.0	catFR1	0	R1317D
2183.011	5.936	2184981	PROB	5.936	n/a	n/a	n/a	-999	14	[2, 4, 9]	15.0	catFR1	0	R1317D
2188.947	0.015	2190917	STOP	n/a	n/a	n/a	n/a	-999	14	[-999, -999, -999]	n/a	catFR1	0	R1317D
2188.962	0.533	2190932	DISTRACT_END	n/a	n/a	n/a	n/a	-999	14	[0, 0, 0]	n/a	catFR1	0	R1317D
2189.495	1.6	2191464	RETRIEVAL_ORIENT_START	n/a	n/a	n/a	n/a	-999	14	[0, 0, 0]	n/a	catFR1	0	R1317D
2191.128	0.001	2193097	RETRIEVAL_ORIENT_END	n/a	n/a	n/a	n/a	-999	14	[0, 0, 0]	n/a	catFR1	0	R1317D
2191.129	3.01	2193098	REC_START	n/a	n/a	n/a	n/a	-999	14	[0, 0, 0]	n/a	catFR1	0	R1317D
2194.139	1.457	2196108	REC_WORD	3.01	n/a	WOODS	Landscapes	6	14	[0, 0, 0]	n/a	catFR1	0	R1317D
2195.596	1.82	2197565	REC_WORD	4.467	n/a	MOUNTAIN	Landscapes	10	14	[0, 0, 0]	n/a	catFR1	0	R1317D
2197.416	23.726	2199385	REC_WORD	6.287	n/a	CREEK	Landscapes	5	14	[0, 0, 0]	n/a	catFR1	0	R1317D
2221.142	0.0	2223110	REC_END	n/a	n/a	n/a	n/a	-999	14	[0, 0, 0]	n/a	catFR1	0	R1317D
2221.142	0.024	2223110	TRIAL_END	n/a	n/a	n/a	n/a	-999	14	[0, 0, 0]	n/a	catFR1	0	R1317D
2221.166	0.0	2223134	TRIAL_START	n/a	n/a	n/a	n/a	-999	15	[0, 0, 0]	n/a	catFR1	0	R1317D
2221.166	0.0	2223134	TRIAL	n/a	n/a	n/a	n/a	-999	15	[0, 0, 0]	n/a	catFR1	0	R1317D
2221.166	1.935	2223134	WAITING_START	n/a	n/a	n/a	n/a	-999	15	[0, 0, 0]	n/a	catFR1	0	R1317D
2223.101	0.0	2225069	WAITING_END	n/a	n/a	n/a	n/a	-999	15	[0, 0, 0]	n/a	catFR1	0	R1317D
2223.101	10.0	2225069	COUNTDOWN_START	n/a	n/a	n/a	n/a	-999	15	[0, 0, 0]	n/a	catFR1	0	R1317D
2233.53	0.0	2235497	ORIENT_START	n/a	n/a	n/a	n/a	-999	15	[0, 0, 0]	n/a	catFR1	0	R1317D
2233.53	1.157	2235497	COUNTDOWN_END	n/a	n/a	n/a	n/a	-999	15	[0, 0, 0]	n/a	catFR1	0	R1317D
2234.687	0.001	2236654	ORIENT_END	n/a	n/a	n/a	n/a	-999	15	[0, 0, 0]	n/a	catFR1	0	R1317D
2234.688	0.81	2236655	ENCODING_START	n/a	n/a	n/a	n/a	-999	15	[0, 0, 0]	n/a	catFR1	0	R1317D
2235.498	1.6	2237465	WORD	n/a	wordpools/wordpool_categorized_EN.txt	BOOKCASE	Furniture	1	15	[0, 0, 0]	n/a	catFR1	0	R1317D
2237.12	0.914	2239087	WORD_OFF	n/a	n/a	BOOKCASE	Furniture	1	15	[0, 0, 0]	n/a	catFR1	0	R1317D
2238.034	1.6	2240001	WORD	n/a	wordpools/wordpool_categorized_EN.txt	SOFA	Furniture	2	15	[0, 0, 0]	n/a	catFR1	0	R1317D
2239.672	0.778	2241639	WORD_OFF	n/a	n/a	SOFA	Furniture	2	15	[0, 0, 0]	n/a	catFR1	0	R1317D
2240.45	1.6	2242417	WORD	n/a	wordpools/wordpool_categorized_EN.txt	LOBSTER	OceanAnimals	3	15	[0, 0, 0]	n/a	catFR1	0	R1317D
2242.088	0.827	2244055	WORD_OFF	n/a	n/a	LOBSTER	OceanAnimals	3	15	[0, 0, 0]	n/a	catFR1	0	R1317D
2242.915	1.6	2244882	WORD	n/a	wordpools/wordpool_categorized_EN.txt	PLANKTON	OceanAnimals	4	15	[0, 0, 0]	n/a	catFR1	0	R1317D
2244.539	0.83	2246506	WORD_OFF	n/a	n/a	PLANKTON	OceanAnimals	4	15	[0, 0, 0]	n/a	catFR1	0	R1317D
2245.369	1.6	2247336	WORD	n/a	wordpools/wordpool_categorized_EN.txt	MOTORCYCLE	Vehicles	5	15	[0, 0, 0]	n/a	catFR1	0	R1317D
2247.006	1.053	2248972	WORD_OFF	n/a	n/a	MOTORCYCLE	Vehicles	5	15	[0, 0, 0]	n/a	catFR1	0	R1317D
2248.059	1.6	2250025	WORD	n/a	wordpools/wordpool_categorized_EN.txt	MOPED	Vehicles	6	15	[0, 0, 0]	n/a	catFR1	0	R1317D
2249.69	0.763	2251656	WORD_OFF	n/a	n/a	MOPED	Vehicles	6	15	[0, 0, 0]	n/a	catFR1	0	R1317D
2250.453	1.6	2252419	WORD	n/a	wordpools/wordpool_categorized_EN.txt	SHELF	Furniture	7	15	[0, 0, 0]	n/a	catFR1	0	R1317D
2252.09	1.127	2254056	WORD_OFF	n/a	n/a	SHELF	Furniture	7	15	[0, 0, 0]	n/a	catFR1	0	R1317D
2253.217	1.6	2255183	WORD	n/a	wordpools/wordpool_categorized_EN.txt	CABINET	Furniture	8	15	[0, 0, 0]	n/a	catFR1	0	R1317D
2254.841	1.075	2256807	WORD_OFF	n/a	n/a	CABINET	Furniture	8	15	[0, 0, 0]	n/a	catFR1	0	R1317D
2255.916	1.6	2257882	WORD	n/a	wordpools/wordpool_categorized_EN.txt	TURTLE	OceanAnimals	9	15	[0, 0, 0]	n/a	catFR1	0	R1317D
2257.541	1.032	2259507	WORD_OFF	n/a	n/a	TURTLE	OceanAnimals	9	15	[0, 0, 0]	n/a	catFR1	0	R1317D
2258.573	1.6	2260539	WORD	n/a	wordpools/wordpool_categorized_EN.txt	OYSTER	OceanAnimals	10	15	[0, 0, 0]	n/a	catFR1	0	R1317D
2260.207	0.883	2262173	WORD_OFF	n/a	n/a	OYSTER	OceanAnimals	10	15	[0, 0, 0]	n/a	catFR1	0	R1317D
2261.09	1.6	2263056	WORD	n/a	wordpools/wordpool_categorized_EN.txt	BUS	Vehicles	11	15	[0, 0, 0]	n/a	catFR1	0	R1317D
2262.726	0.816	2264692	WORD_OFF	n/a	n/a	BUS	Vehicles	11	15	[0, 0, 0]	n/a	catFR1	0	R1317D
2263.542	1.6	2265508	WORD	n/a	wordpools/wordpool_categorized_EN.txt	CAR	Vehicles	12	15	[0, 0, 0]	n/a	catFR1	0	R1317D
2265.175	0.001	2267140	WORD_OFF	n/a	n/a	CAR	Vehicles	12	15	[0, 0, 0]	n/a	catFR1	0	R1317D
2265.176	0.0	2267141	DISTRACT_START	n/a	n/a	n/a	n/a	-999	15	[0, 0, 0]	n/a	catFR1	0	R1317D
2265.176	0.0	2267141	ENCODING_END	n/a	n/a	n/a	n/a	-999	15	[0, 0, 0]	n/a	catFR1	0	R1317D
2265.176	0.016	2267141	START	n/a	n/a	n/a	n/a	-999	15	[-999, -999, -999]	n/a	catFR1	0	R1317D
2265.192	4.518	2267157	PROB	4.488	n/a	n/a	n/a	-999	15	[2, 2, 8]	12.0	catFR1	0	R1317D
2269.71	4.617	2271675	PROB	4.593	n/a	n/a	n/a	-999	15	[6, 5, 4]	15.0	catFR1	0	R1317D
2274.327	5.168	2276292	PROB	5.129	n/a	n/a	n/a	-999	15	[4, 7, 6]	17.0	catFR1	0	R1317D
2279.495	5.468	2281460	PROB	5.429	n/a	n/a	n/a	-999	15	[7, 5, 1]	13.0	catFR1	0	R1317D
2284.963	6.326	2286927	PROB	6.326	n/a	n/a	n/a	-999	15	[3, 7, 6]	16.0	catFR1	0	R1317D
2291.289	0.007	2293253	STOP	n/a	n/a	n/a	n/a	-999	15	[-999, -999, -999]	n/a	catFR1	0	R1317D
2291.296	0.596	2293260	DISTRACT_END	n/a	n/a	n/a	n/a	-999	15	[0, 0, 0]	n/a	catFR1	0	R1317D
2291.892	1.6	2293856	RETRIEVAL_ORIENT_START	n/a	n/a	n/a	n/a	-999	15	[0, 0, 0]	n/a	catFR1	0	R1317D
2293.598	0.0	2295562	RETRIEVAL_ORIENT_END	n/a	n/a	n/a	n/a	-999	15	[0, 0, 0]	n/a	catFR1	0	R1317D
2293.598	4.201	2295562	REC_START	n/a	n/a	n/a	n/a	-999	15	[0, 0, 0]	n/a	catFR1	0	R1317D
2297.799	1.78	2299763	REC_WORD	4.201	n/a	PLANKTON	OceanAnimals	4	15	[0, 0, 0]	n/a	catFR1	0	R1317D
2299.579	4.179	2301543	REC_WORD	5.981	n/a	OYSTER	OceanAnimals	10	15	[0, 0, 0]	n/a	catFR1	0	R1317D
2303.758	7.828	2305721	REC_WORD	10.16	n/a	LOBSTER	OceanAnimals	3	15	[0, 0, 0]	n/a	catFR1	0	R1317D
2311.586	1.429	2313549	REC_WORD	17.988	n/a	MOTORCYCLE	Vehicles	5	15	[0, 0, 0]	n/a	catFR1	0	R1317D
2313.015	3.092	2314978	REC_WORD	19.417	n/a	CAR	Vehicles	12	15	[0, 0, 0]	n/a	catFR1	0	R1317D
2316.107	7.505	2318070	REC_WORD	22.509	n/a	SCOOTER	Vehicles	-999	15	[0, 0, 0]	n/a	catFR1	0	R1317D
2323.612	0.0	2325574	REC_END	n/a	n/a	n/a	n/a	-999	15	[0, 0, 0]	n/a	catFR1	0	R1317D
2323.612	0.024	2325574	TRIAL_END	n/a	n/a	n/a	n/a	-999	15	[0, 0, 0]	n/a	catFR1	0	R1317D
2323.636	0.0	2325598	TRIAL_START	n/a	n/a	n/a	n/a	-999	16	[0, 0, 0]	n/a	catFR1	0	R1317D
2323.636	0.001	2325598	TRIAL	n/a	n/a	n/a	n/a	-999	16	[0, 0, 0]	n/a	catFR1	0	R1317D
2323.637	1.75	2325599	WAITING_START	n/a	n/a	n/a	n/a	-999	16	[0, 0, 0]	n/a	catFR1	0	R1317D
2325.387	0.0	2327349	WAITING_END	n/a	n/a	n/a	n/a	-999	16	[0, 0, 0]	n/a	catFR1	0	R1317D
2325.387	10.0	2327349	COUNTDOWN_START	n/a	n/a	n/a	n/a	-999	16	[0, 0, 0]	n/a	catFR1	0	R1317D
2335.817	0.0	2337779	COUNTDOWN_END	n/a	n/a	n/a	n/a	-999	16	[0, 0, 0]	n/a	catFR1	0	R1317D
2335.817	1.022	2337779	ORIENT_START	n/a	n/a	n/a	n/a	-999	16	[0, 0, 0]	n/a	catFR1	0	R1317D
2336.839	0.001	2338801	ORIENT_END	n/a	n/a	n/a	n/a	-999	16	[0, 0, 0]	n/a	catFR1	0	R1317D
2336.84	0.786	2338802	ENCODING_START	n/a	n/a	n/a	n/a	-999	16	[0, 0, 0]	n/a	catFR1	0	R1317D
2337.626	1.6	2339588	WORD	n/a	wordpools/wordpool_categorized_EN.txt	FLY	Insects	1	16	[0, 0, 0]	n/a	catFR1	0	R1317D
2339.255	1.064	2341217	WORD_OFF	n/a	n/a	FLY	Insects	1	16	[0, 0, 0]	n/a	catFR1	0	R1317D
2340.319	1.6	2342281	WORD	n/a	wordpools/wordpool_categorized_EN.txt	BUTTERFLY	Insects	2	16	[0, 0, 0]	n/a	catFR1	0	R1317D
2341.957	0.828	2343918	WORD_OFF	n/a	n/a	BUTTERFLY	Insects	2	16	[0, 0, 0]	n/a	catFR1	0	R1317D
2342.785	1.6	2344746	WORD	n/a	wordpools/wordpool_categorized_EN.txt	VIOLIN	Instruments	3	16	[0, 0, 0]	n/a	catFR1	0	R1317D
2344.407	0.814	2346368	WORD_OFF	n/a	n/a	VIOLIN	Instruments	3	16	[0, 0, 0]	n/a	catFR1	0	R1317D
2345.221	1.6	2347182	WORD	n/a	wordpools/wordpool_categorized_EN.txt	BASS	Instruments	4	16	[0, 0, 0]	n/a	catFR1	0	R1317D
2346.858	0.92	2348819	WORD_OFF	n/a	n/a	BASS	Instruments	4	16	[0, 0, 0]	n/a	catFR1	0	R1317D
2347.778	1.6	2349739	WORD	n/a	wordpools/wordpool_categorized_EN.txt	RIVER	Landscapes	5	16	[0, 0, 0]	n/a	catFR1	0	R1317D
2349.408	1.068	2351369	WORD_OFF	n/a	n/a	RIVER	Landscapes	5	16	[0, 0, 0]	n/a	catFR1	0	R1317D
2350.476	1.6	2352437	WORD	n/a	wordpools/wordpool_categorized_EN.txt	VALLEY	Landscapes	6	16	[0, 0, 0]	n/a	catFR1	0	R1317D
2352.108	1.012	2354069	WORD_OFF	n/a	n/a	VALLEY	Landscapes	6	16	[0, 0, 0]	n/a	catFR1	0	R1317D
2353.12	1.6	2355081	WORD	n/a	wordpools/wordpool_categorized_EN.txt	ROACH	Insects	7	16	[0, 0, 0]	n/a	catFR1	0	R1317D
2354.742	0.971	2356703	WORD_OFF	n/a	n/a	ROACH	Insects	7	16	[0, 0, 0]	n/a	catFR1	0	R1317D
2355.713	1.6	2357674	WORD	n/a	wordpools/wordpool_categorized_EN.txt	GNAT	Insects	8	16	[0, 0, 0]	n/a	catFR1	0	R1317D
2357.342	0.888	2359303	WORD_OFF	n/a	n/a	GNAT	Insects	8	16	[0, 0, 0]	n/a	catFR1	0	R1317D
2358.23	1.6	2360191	WORD	n/a	wordpools/wordpool_categorized_EN.txt	ISLAND	Landscapes	9	16	[0, 0, 0]	n/a	catFR1	0	R1317D
2359.844	1.04	2361804	WORD_OFF	n/a	n/a	ISLAND	Landscapes	9	16	[0, 0, 0]	n/a	catFR1	0	R1317D
2360.884	1.6	2362844	WORD	n/a	wordpools/wordpool_categorized_EN.txt	OCEAN	Landscapes	10	16	[0, 0, 0]	n/a	catFR1	0	R1317D
2362.511	0.917	2364471	WORD_OFF	n/a	n/a	OCEAN	Landscapes	10	16	[0, 0, 0]	n/a	catFR1	0	R1317D
2363.428	1.6	2365388	WORD	n/a	wordpools/wordpool_categorized_EN.txt	DRUM	Instruments	11	16	[0, 0, 0]	n/a	catFR1	0	R1317D
2365.061	1.027	2367021	WORD_OFF	n/a	n/a	DRUM	Instruments	11	16	[0, 0, 0]	n/a	catFR1	0	R1317D
2366.088	1.6	2368048	WORD	n/a	wordpools/wordpool_categorized_EN.txt	ORGAN	Instruments	12	16	[0, 0, 0]	n/a	catFR1	0	R1317D
2367.695	0.0	2369655	ENCODING_END	n/a	n/a	n/a	n/a	-999	16	[0, 0, 0]	n/a	catFR1	0	R1317D
2367.695	0.0	2369655	DISTRACT_START	n/a	n/a	n/a	n/a	-999	16	[0, 0, 0]	n/a	catFR1	0	R1317D
2367.695	0.001	2369655	WORD_OFF	n/a	n/a	ORGAN	Instruments	12	16	[0, 0, 0]	n/a	catFR1	0	R1317D
2367.696	0.015	2369656	START	n/a	n/a	n/a	n/a	-999	16	[-999, -999, -999]	n/a	catFR1	0	R1317D
2367.711	8.869	2369671	PROB	8.83	n/a	n/a	n/a	-999	16	[3, 4, 9]	16.0	catFR1	0	R1317D
2376.58	3.766	2378540	PROB	3.737	n/a	n/a	n/a	-999	16	[1, 4, 1]	6.0	catFR1	0	R1317D
2380.346	5.202	2382305	PROB	5.164	n/a	n/a	n/a	-999	16	[5, 4, 6]	15.0	catFR1	0	R1317D
2385.548	5.916	2387507	PROB	5.916	n/a	n/a	n/a	-999	16	[3, 9, 4]	16.0	catFR1	0	R1317D
2391.464	0.018	2393423	STOP	n/a	n/a	n/a	n/a	-999	16	[-999, -999, -999]	n/a	catFR1	0	R1317D
2391.482	0.634	2393441	DISTRACT_END	n/a	n/a	n/a	n/a	-999	16	[0, 0, 0]	n/a	catFR1	0	R1317D
2392.116	1.6	2394075	RETRIEVAL_ORIENT_START	n/a	n/a	n/a	n/a	-999	16	[0, 0, 0]	n/a	catFR1	0	R1317D
2393.75	0.0	2395709	RETRIEVAL_ORIENT_END	n/a	n/a	n/a	n/a	-999	16	[0, 0, 0]	n/a	catFR1	0	R1317D
2393.75	2.907	2395709	REC_START	n/a	n/a	n/a	n/a	-999	16	[0, 0, 0]	n/a	catFR1	0	R1317D
2396.657	1.243	2398616	REC_WORD	2.907	n/a	FLY	Insects	1	16	[0, 0, 0]	n/a	catFR1	0	R1317D
2397.9	2.174	2399858	REC_WORD	4.15	n/a	BUTTERFLY	Insects	2	16	[0, 0, 0]	n/a	catFR1	0	R1317D
2400.074	4.221	2402032	REC_WORD	6.324	n/a	GNAT	Insects	8	16	[0, 0, 0]	n/a	catFR1	0	R1317D
2404.295	1.421	2406253	REC_WORD	10.545	n/a	VALLEY	Landscapes	6	16	[0, 0, 0]	n/a	catFR1	0	R1317D
2405.716	18.047	2407674	REC_WORD	11.966	n/a	OCEAN	Landscapes	10	16	[0, 0, 0]	n/a	catFR1	0	R1317D
2423.763	0.0	2425720	TRIAL_END	n/a	n/a	n/a	n/a	-999	16	[0, 0, 0]	n/a	catFR1	0	R1317D
2423.763	0.026	2425720	REC_END	n/a	n/a	n/a	n/a	-999	16	[0, 0, 0]	n/a	catFR1	0	R1317D
2423.789	0.0	2425746	TRIAL_START	n/a	n/a	n/a	n/a	-999	17	[0, 0, 0]	n/a	catFR1	0	R1317D
2423.789	0.0	2425746	TRIAL	n/a	n/a	n/a	n/a	-999	17	[0, 0, 0]	n/a	catFR1	0	R1317D
2423.789	1.85	2425746	WAITING_START	n/a	n/a	n/a	n/a	-999	17	[0, 0, 0]	n/a	catFR1	0	R1317D
2425.639	0.0	2427596	WAITING_END	n/a	n/a	n/a	n/a	-999	17	[0, 0, 0]	n/a	catFR1	0	R1317D
2425.639	10.0	2427596	COUNTDOWN_START	n/a	n/a	n/a	n/a	-999	17	[0, 0, 0]	n/a	catFR1	0	R1317D
2436.067	0.001	2438023	COUNTDOWN_END	n/a	n/a	n/a	n/a	-999	17	[0, 0, 0]	n/a	catFR1	0	R1317D
2436.068	1.155	2438024	ORIENT_START	n/a	n/a	n/a	n/a	-999	17	[0, 0, 0]	n/a	catFR1	0	R1317D
2437.223	0.001	2439179	ORIENT_END	n/a	n/a	n/a	n/a	-999	17	[0, 0, 0]	n/a	catFR1	0	R1317D
2437.224	0.888	2439180	ENCODING_START	n/a	n/a	n/a	n/a	-999	17	[0, 0, 0]	n/a	catFR1	0	R1317D
2438.112	1.6	2440068	WORD	n/a	wordpools/wordpool_categorized_EN.txt	MIXER	Appliances	1	17	[0, 0, 0]	n/a	catFR1	0	R1317D
2439.741	0.889	2441697	WORD_OFF	n/a	n/a	MIXER	Appliances	1	17	[0, 0, 0]	n/a	catFR1	0	R1317D
2440.63	1.6	2442586	WORD	n/a	wordpools/wordpool_categorized_EN.txt	DISHWASHER	Appliances	2	17	[0, 0, 0]	n/a	catFR1	0	R1317D
2442.257	0.87	2444213	WORD_OFF	n/a	n/a	DISHWASHER	Appliances	2	17	[0, 0, 0]	n/a	catFR1	0	R1317D
2443.127	1.6	2445083	WORD	n/a	wordpools/wordpool_categorized_EN.txt	TURKEY	FarmAnimals	3	17	[0, 0, 0]	n/a	catFR1	0	R1317D
2444.742	0.814	2446698	WORD_OFF	n/a	n/a	TURKEY	FarmAnimals	3	17	[0, 0, 0]	n/a	catFR1	0	R1317D
2445.556	1.6	2447512	WORD	n/a	wordpools/wordpool_categorized_EN.txt	GOAT	FarmAnimals	4	17	[0, 0, 0]	n/a	catFR1	0	R1317D
2447.192	0.938	2449148	WORD_OFF	n/a	n/a	GOAT	FarmAnimals	4	17	[0, 0, 0]	n/a	catFR1	0	R1317D
2448.13	1.6	2450086	WORD	n/a	wordpools/wordpool_categorized_EN.txt	RECLINER	Furniture	5	17	[0, 0, 0]	n/a	catFR1	0	R1317D
2449.76	1.067	2451716	WORD_OFF	n/a	n/a	RECLINER	Furniture	5	17	[0, 0, 0]	n/a	catFR1	0	R1317D
2450.827	1.6	2452783	WORD	n/a	wordpools/wordpool_categorized_EN.txt	CHAIR	Furniture	6	17	[0, 0, 0]	n/a	catFR1	0	R1317D
2452.46	0.985	2454416	WORD_OFF	n/a	n/a	CHAIR	Furniture	6	17	[0, 0, 0]	n/a	catFR1	0	R1317D
2453.445	1.6	2455401	WORD	n/a	wordpools/wordpool_categorized_EN.txt	REFRIGERATOR	Appliances	7	17	[0, 0, 0]	n/a	catFR1	0	R1317D
2455.078	0.857	2457033	WORD_OFF	n/a	n/a	REFRIGERATOR	Appliances	7	17	[0, 0, 0]	n/a	catFR1	0	R1317D
2455.935	1.6	2457890	WORD	n/a	wordpools/wordpool_categorized_EN.txt	WASHER	Appliances	8	17	[0, 0, 0]	n/a	catFR1	0	R1317D
2457.561	0.959	2459516	WORD_OFF	n/a	n/a	WASHER	Appliances	8	17	[0, 0, 0]	n/a	catFR1	0	R1317D
2458.52	1.6	2460475	WORD	n/a	wordpools/wordpool_categorized_EN.txt	DESK	Furniture	9	17	[0, 0, 0]	n/a	catFR1	0	R1317D
2460.144	1.137	2462099	WORD_OFF	n/a	n/a	DESK	Furniture	9	17	[0, 0, 0]	n/a	catFR1	0	R1317D
2461.281	1.6	2463236	WORD	n/a	wordpools/wordpool_categorized_EN.txt	DRESSER	Furniture	10	17	[0, 0, 0]	n/a	catFR1	0	R1317D
2462.895	0.817	2464850	WORD_OFF	n/a	n/a	DRESSER	Furniture	10	17	[0, 0, 0]	n/a	catFR1	0	R1317D
2463.712	1.6	2465667	WORD	n/a	wordpools/wordpool_categorized_EN.txt	COW	FarmAnimals	11	17	[0, 0, 0]	n/a	catFR1	0	R1317D
2465.345	1.048	2467300	WORD_OFF	n/a	n/a	COW	FarmAnimals	11	17	[0, 0, 0]	n/a	catFR1	0	R1317D
2466.393	1.6	2468348	WORD	n/a	wordpools/wordpool_categorized_EN.txt	HORSE	FarmAnimals	12	17	[0, 0, 0]	n/a	catFR1	0	R1317D
2468.03	0.0	2469985	WORD_OFF	n/a	n/a	HORSE	FarmAnimals	12	17	[0, 0, 0]	n/a	catFR1	0	R1317D
2468.03	0.0	2469985	ENCODING_END	n/a	n/a	n/a	n/a	-999	17	[0, 0, 0]	n/a	catFR1	0	R1317D
2468.03	0.001	2469985	DISTRACT_START	n/a	n/a	n/a	n/a	-999	17	[0, 0, 0]	n/a	catFR1	0	R1317D
2468.031	0.015	2469986	START	n/a	n/a	n/a	n/a	-999	17	[-999, -999, -999]	n/a	catFR1	0	R1317D
2468.046	5.618	2470001	PROB	5.594	n/a	n/a	n/a	-999	17	[3, 8, 4]	15.0	catFR1	0	R1317D
2473.664	4.533	2475618	PROB	4.503	n/a	n/a	n/a	-999	17	[2, 9, 2]	13.0	catFR1	0	R1317D
2478.197	3.818	2480151	PROB	3.788	n/a	n/a	n/a	-999	17	[1, 9, 7]	17.0	catFR1	0	R1317D
2482.015	4.385	2483969	PROB	4.357	n/a	n/a	n/a	-999	17	[1, 8, 3]	12.0	catFR1	0	R1317D
2486.4	2.324	2488354	PROB	2.324	n/a	n/a	n/a	-999	17	[1, 1, 9]	11.0	catFR1	0	R1317D
2488.724	0.01	2490678	STOP	n/a	n/a	n/a	n/a	-999	17	[-999, -999, -999]	n/a	catFR1	0	R1317D
2488.734	0.544	2490688	DISTRACT_END	n/a	n/a	n/a	n/a	-999	17	[0, 0, 0]	n/a	catFR1	0	R1317D
2489.278	1.6	2491232	RETRIEVAL_ORIENT_START	n/a	n/a	n/a	n/a	-999	17	[0, 0, 0]	n/a	catFR1	0	R1317D
2490.834	0.0	2492788	REC_START	n/a	n/a	n/a	n/a	-999	17	[0, 0, 0]	n/a	catFR1	0	R1317D
2490.834	1.726	2492788	RETRIEVAL_ORIENT_END	n/a	n/a	n/a	n/a	-999	17	[0, 0, 0]	n/a	catFR1	0	R1317D
2492.56	1.119	2494513	REC_WORD	1.726	n/a	TURKEY	FarmAnimals	3	17	[0, 0, 0]	n/a	catFR1	0	R1317D
2493.679	1.283	2495632	REC_WORD	2.845	n/a	COW	FarmAnimals	11	17	[0, 0, 0]	n/a	catFR1	0	R1317D
2494.962	3.069	2496915	REC_WORD	4.128	n/a	RECLINER	Furniture	5	17	[0, 0, 0]	n/a	catFR1	0	R1317D
2498.031	0.71	2499984	REC_WORD	7.197	n/a	CHAIR	Furniture	6	17	[0, 0, 0]	n/a	catFR1	0	R1317D
2498.741	4.74	2500694	REC_WORD	7.907	n/a	REFRIGERATOR	Appliances	7	17	[0, 0, 0]	n/a	catFR1	0	R1317D
2503.481	17.364	2505434	REC_WORD_VV	12.647	n/a	<>	n/a	-999	17	[0, 0, 0]	n/a	catFR1	0	R1317D
2520.845	0.0	2522797	TRIAL_END	n/a	n/a	n/a	n/a	-999	17	[0, 0, 0]	n/a	catFR1	0	R1317D
2520.845	0.022	2522797	REC_END	n/a	n/a	n/a	n/a	-999	17	[0, 0, 0]	n/a	catFR1	0	R1317D
2520.867	0.0	2522819	TRIAL_START	n/a	n/a	n/a	n/a	-999	18	[0, 0, 0]	n/a	catFR1	0	R1317D
2520.867	0.001	2522819	TRIAL	n/a	n/a	n/a	n/a	-999	18	[0, 0, 0]	n/a	catFR1	0	R1317D
2520.868	2.155	2522820	WAITING_START	n/a	n/a	n/a	n/a	-999	18	[0, 0, 0]	n/a	catFR1	0	R1317D
2523.023	0.001	2524975	WAITING_END	n/a	n/a	n/a	n/a	-999	18	[0, 0, 0]	n/a	catFR1	0	R1317D
2523.024	10.0	2524976	COUNTDOWN_START	n/a	n/a	n/a	n/a	-999	18	[0, 0, 0]	n/a	catFR1	0	R1317D
2533.452	0.0	2535403	COUNTDOWN_END	n/a	n/a	n/a	n/a	-999	18	[0, 0, 0]	n/a	catFR1	0	R1317D
2533.452	1.207	2535403	ORIENT_START	n/a	n/a	n/a	n/a	-999	18	[0, 0, 0]	n/a	catFR1	0	R1317D
2534.659	0.0	2536610	ORIENT_END	n/a	n/a	n/a	n/a	-999	18	[0, 0, 0]	n/a	catFR1	0	R1317D
2534.659	1.099	2536610	ENCODING_START	n/a	n/a	n/a	n/a	-999	18	[0, 0, 0]	n/a	catFR1	0	R1317D
2535.758	1.6	2537709	WORD	n/a	wordpools/wordpool_categorized_EN.txt	EYE	BodyParts	1	18	[0, 0, 0]	n/a	catFR1	0	R1317D
2537.393	0.852	2539344	WORD_OFF	n/a	n/a	EYE	BodyParts	1	18	[0, 0, 0]	n/a	catFR1	0	R1317D
2538.245	1.6	2540196	WORD	n/a	wordpools/wordpool_categorized_EN.txt	NOSE	BodyParts	2	18	[0, 0, 0]	n/a	catFR1	0	R1317D
2539.859	1.081	2541810	WORD_OFF	n/a	n/a	NOSE	BodyParts	2	18	[0, 0, 0]	n/a	catFR1	0	R1317D
2540.94	1.6	2542891	WORD	n/a	wordpools/wordpool_categorized_EN.txt	DRILL	Tools	3	18	[0, 0, 0]	n/a	catFR1	0	R1317D
2542.577	0.931	2544528	WORD_OFF	n/a	n/a	DRILL	Tools	3	18	[0, 0, 0]	n/a	catFR1	0	R1317D
2543.508	1.6	2545459	WORD	n/a	wordpools/wordpool_categorized_EN.txt	CROWBAR	Tools	4	18	[0, 0, 0]	n/a	catFR1	0	R1317D
2545.143	0.918	2547094	WORD_OFF	n/a	n/a	CROWBAR	Tools	4	18	[0, 0, 0]	n/a	catFR1	0	R1317D
2546.061	1.6	2548012	WORD	n/a	wordpools/wordpool_categorized_EN.txt	FOG	Weather	5	18	[0, 0, 0]	n/a	catFR1	0	R1317D
2547.694	0.777	2549645	WORD_OFF	n/a	n/a	FOG	Weather	5	18	[0, 0, 0]	n/a	catFR1	0	R1317D
2548.471	1.6	2550421	WORD	n/a	wordpools/wordpool_categorized_EN.txt	WIND	Weather	6	18	[0, 0, 0]	n/a	catFR1	0	R1317D
2550.094	1.033	2552044	WORD_OFF	n/a	n/a	WIND	Weather	6	18	[0, 0, 0]	n/a	catFR1	0	R1317D
2551.127	1.6	2553077	WORD	n/a	wordpools/wordpool_categorized_EN.txt	SCREWDRIVER	Tools	7	18	[0, 0, 0]	n/a	catFR1	0	R1317D
2552.745	1.111	2554695	WORD_OFF	n/a	n/a	SCREWDRIVER	Tools	7	18	[0, 0, 0]	n/a	catFR1	0	R1317D
2553.856	1.6	2555806	WORD	n/a	wordpools/wordpool_categorized_EN.txt	HAMMER	Tools	8	18	[0, 0, 0]	n/a	catFR1	0	R1317D
2555.479	0.881	2557429	WORD_OFF	n/a	n/a	HAMMER	Tools	8	18	[0, 0, 0]	n/a	catFR1	0	R1317D
2556.36	1.6	2558310	WORD	n/a	wordpools/wordpool_categorized_EN.txt	KNEE	BodyParts	9	18	[0, 0, 0]	n/a	catFR1	0	R1317D
2557.996	0.963	2559946	WORD_OFF	n/a	n/a	KNEE	BodyParts	9	18	[0, 0, 0]	n/a	catFR1	0	R1317D
2558.959	1.6	2560909	WORD	n/a	wordpools/wordpool_categorized_EN.txt	TOE	BodyParts	10	18	[0, 0, 0]	n/a	catFR1	0	R1317D
2560.58	0.859	2562530	WORD_OFF	n/a	n/a	TOE	BodyParts	10	18	[0, 0, 0]	n/a	catFR1	0	R1317D
2561.439	1.6	2563389	WORD	n/a	wordpools/wordpool_categorized_EN.txt	HUMIDITY	Weather	11	18	[0, 0, 0]	n/a	catFR1	0	R1317D
2563.064	0.808	2565014	WORD_OFF	n/a	n/a	HUMIDITY	Weather	11	18	[0, 0, 0]	n/a	catFR1	0	R1317D
2563.872	1.6	2565822	WORD	n/a	wordpools/wordpool_categorized_EN.txt	THUNDER	Weather	12	18	[0, 0, 0]	n/a	catFR1	0	R1317D
2565.498	0.0	2567448	WORD_OFF	n/a	n/a	THUNDER	Weather	12	18	[0, 0, 0]	n/a	catFR1	0	R1317D
2565.498	0.0	2567448	ENCODING_END	n/a	n/a	n/a	n/a	-999	18	[0, 0, 0]	n/a	catFR1	0	R1317D
2565.498	0.001	2567448	DISTRACT_START	n/a	n/a	n/a	n/a	-999	18	[0, 0, 0]	n/a	catFR1	0	R1317D
2565.499	0.015	2567449	START	n/a	n/a	n/a	n/a	-999	18	[-999, -999, -999]	n/a	catFR1	0	R1317D
2565.514	3.8	2567464	PROB	3.771	n/a	n/a	n/a	-999	18	[4, 4, 1]	9.0	catFR1	0	R1317D
2569.314	3.501	2571263	PROB	3.467	n/a	n/a	n/a	-999	18	[2, 4, 4]	10.0	catFR1	0	R1317D
2572.815	4.517	2574764	PROB	4.494	n/a	n/a	n/a	-999	18	[1, 3, 6]	10.0	catFR1	0	R1317D
2577.332	2.934	2579281	PROB	2.897	n/a	n/a	n/a	-999	18	[3, 3, 1]	7.0	catFR1	0	R1317D
2580.266	4.618	2582215	PROB	4.595	n/a	n/a	n/a	-999	18	[4, 1, 3]	8.0	catFR1	0	R1317D
2584.884	4.799	2586833	PROB	4.799	n/a	n/a	n/a	-999	18	[7, 4, 5]	16.0	catFR1	0	R1317D
2589.683	0.019	2591631	STOP	n/a	n/a	n/a	n/a	-999	18	[-999, -999, -999]	n/a	catFR1	0	R1317D
2589.702	0.616	2591650	DISTRACT_END	n/a	n/a	n/a	n/a	-999	18	[0, 0, 0]	n/a	catFR1	0	R1317D
2590.318	1.6	2592266	RETRIEVAL_ORIENT_START	n/a	n/a	n/a	n/a	-999	18	[0, 0, 0]	n/a	catFR1	0	R1317D
2591.919	0.0	2593867	REC_START	n/a	n/a	n/a	n/a	-999	18	[0, 0, 0]	n/a	catFR1	0	R1317D
2591.919	1.509	2593867	RETRIEVAL_ORIENT_END	n/a	n/a	n/a	n/a	-999	18	[0, 0, 0]	n/a	catFR1	0	R1317D
2593.428	2.181	2595376	REC_WORD	1.509	n/a	SCREWDRIVER	Tools	7	18	[0, 0, 0]	n/a	catFR1	0	R1317D
2595.609	2.658	2597557	REC_WORD	3.69	n/a	HAMMER	Tools	8	18	[0, 0, 0]	n/a	catFR1	0	R1317D
2598.267	2.699	2600215	REC_WORD	6.348	n/a	DRILL	Tools	3	18	[0, 0, 0]	n/a	catFR1	0	R1317D
2600.966	1.048	2602914	REC_WORD	9.047	n/a	FOG	Weather	5	18	[0, 0, 0]	n/a	catFR1	0	R1317D
2602.014	3.68	2603962	REC_WORD	10.095	n/a	HUMIDITY	Weather	11	18	[0, 0, 0]	n/a	catFR1	0	R1317D
2605.694	16.239	2607641	REC_WORD_VV	13.775	n/a	<>	n/a	-999	18	[0, 0, 0]	n/a	catFR1	0	R1317D
2621.933	0.0	2623880	TRIAL_END	n/a	n/a	n/a	n/a	-999	18	[0, 0, 0]	n/a	catFR1	0	R1317D
2621.933	0.022	2623880	REC_END	n/a	n/a	n/a	n/a	-999	18	[0, 0, 0]	n/a	catFR1	0	R1317D
2621.955	0.0	2623902	WAITING_START	n/a	n/a	n/a	n/a	-999	19	[0, 0, 0]	n/a	catFR1	0	R1317D
2621.955	0.0	2623902	TRIAL	n/a	n/a	n/a	n/a	-999	19	[0, 0, 0]	n/a	catFR1	0	R1317D
2621.955	1.87	2623902	TRIAL_START	n/a	n/a	n/a	n/a	-999	19	[0, 0, 0]	n/a	catFR1	0	R1317D
2623.825	0.0	2625772	WAITING_END	n/a	n/a	n/a	n/a	-999	19	[0, 0, 0]	n/a	catFR1	0	R1317D
2623.825	10.0	2625772	COUNTDOWN_START	n/a	n/a	n/a	n/a	-999	19	[0, 0, 0]	n/a	catFR1	0	R1317D
2634.255	0.0	2636201	COUNTDOWN_END	n/a	n/a	n/a	n/a	-999	19	[0, 0, 0]	n/a	catFR1	0	R1317D
2634.255	1.054	2636201	ORIENT_START	n/a	n/a	n/a	n/a	-999	19	[0, 0, 0]	n/a	catFR1	0	R1317D
2635.309	0.001	2637255	ORIENT_END	n/a	n/a	n/a	n/a	-999	19	[0, 0, 0]	n/a	catFR1	0	R1317D
2635.31	0.799	2637256	ENCODING_START	n/a	n/a	n/a	n/a	-999	19	[0, 0, 0]	n/a	catFR1	0	R1317D
2636.109	1.6	2638055	WORD	n/a	wordpools/wordpool_categorized_EN.txt	MILK	Beverages	1	19	[0, 0, 0]	n/a	catFR1	0	R1317D
2637.727	0.786	2639673	WORD_OFF	n/a	n/a	MILK	Beverages	1	19	[0, 0, 0]	n/a	catFR1	0	R1317D
2638.513	1.6	2640459	WORD	n/a	wordpools/wordpool_categorized_EN.txt	WATER	Beverages	2	19	[0, 0, 0]	n/a	catFR1	0	R1317D
2640.144	0.77	2642090	WORD_OFF	n/a	n/a	WATER	Beverages	2	19	[0, 0, 0]	n/a	catFR1	0	R1317D
2640.914	1.6	2642860	WORD	n/a	wordpools/wordpool_categorized_EN.txt	TROMBONE	Instruments	3	19	[0, 0, 0]	n/a	catFR1	0	R1317D
2642.545	1.049	2644491	WORD_OFF	n/a	n/a	TROMBONE	Instruments	3	19	[0, 0, 0]	n/a	catFR1	0	R1317D
2643.594	1.6	2645539	WORD	n/a	wordpools/wordpool_categorized_EN.txt	GUITAR	Instruments	4	19	[0, 0, 0]	n/a	catFR1	0	R1317D
2645.228	1.024	2647173	WORD_OFF	n/a	n/a	GUITAR	Instruments	4	19	[0, 0, 0]	n/a	catFR1	0	R1317D
2646.252	1.6	2648197	WORD	n/a	wordpools/wordpool_categorized_EN.txt	GRATER	KitchenTools	5	19	[0, 0, 0]	n/a	catFR1	0	R1317D
2647.863	0.993	2649808	WORD_OFF	n/a	n/a	GRATER	KitchenTools	5	19	[0, 0, 0]	n/a	catFR1	0	R1317D
2648.856	1.6	2650801	WORD	n/a	wordpools/wordpool_categorized_EN.txt	PEELER	KitchenTools	6	19	[0, 0, 0]	n/a	catFR1	0	R1317D
2650.48	0.755	2652425	WORD_OFF	n/a	n/a	PEELER	KitchenTools	6	19	[0, 0, 0]	n/a	catFR1	0	R1317D
2651.235	1.6	2653180	WORD	n/a	wordpools/wordpool_categorized_EN.txt	TRUMPET	Instruments	7	19	[0, 0, 0]	n/a	catFR1	0	R1317D
2652.864	0.793	2654809	WORD_OFF	n/a	n/a	TRUMPET	Instruments	7	19	[0, 0, 0]	n/a	catFR1	0	R1317D
2653.657	1.6	2655602	WORD	n/a	wordpools/wordpool_categorized_EN.txt	PIANO	Instruments	8	19	[0, 0, 0]	n/a	catFR1	0	R1317D
2655.28	0.975	2657225	WORD_OFF	n/a	n/a	PIANO	Instruments	8	19	[0, 0, 0]	n/a	catFR1	0	R1317D
2656.255	1.6	2658200	WORD	n/a	wordpools/wordpool_categorized_EN.txt	KNIFE	KitchenTools	9	19	[0, 0, 0]	n/a	catFR1	0	R1317D
