onset	duration	sample	trial_type	response_time	stim_file	item_name	category	serialpos	list	test	answer	experiment	session	subject
0.0	19.976	2564	SESS_START	n/a	n/a	n/a	n/a	-999	-999	[0, 0, 0]	n/a	catFR1	2	R1157C
19.976	10.428	12551	COUNTDOWN_START	n/a	n/a	n/a	n/a	-999	-999	[0, 0, 0]	n/a	catFR1	2	R1157C
30.404	3.575	17764	COUNTDOWN_END	n/a	n/a	n/a	n/a	-999	-999	[0, 0, 0]	n/a	catFR1	2	R1157C
33.979	2.482	19552	PRACTICE_WORD	n/a	n/a	CAMEL	n/a	-999	-999	[0, 0, 0]	n/a	catFR1	2	R1157C
36.461	2.469	20793	PRACTICE_WORD	n/a	n/a	ATTIC	n/a	-999	-999	[0, 0, 0]	n/a	catFR1	2	R1157C
38.93	2.632	22027	PRACTICE_WORD	n/a	n/a	RHINO	n/a	-999	-999	[0, 0, 0]	n/a	catFR1	2	R1157C
41.562	2.402	23343	PRACTICE_WORD	n/a	n/a	RING	n/a	-999	-999	[0, 0, 0]	n/a	catFR1	2	R1157C
43.964	2.399	24544	PRACTICE_WORD	n/a	n/a	CHEST	n/a	-999	-999	[0, 0, 0]	n/a	catFR1	2	R1157C
46.363	2.402	25743	PRACTICE_WORD	n/a	n/a	IRON	n/a	-999	-999	[0, 0, 0]	n/a	catFR1	2	R1157C
48.765	2.549	26944	PRACTICE_WORD	n/a	n/a	WATCH	n/a	-999	-999	[0, 0, 0]	n/a	catFR1	2	R1157C
51.314	2.435	28218	PRACTICE_WORD	n/a	n/a	WAGON	n/a	-999	-999	[0, 0, 0]	n/a	catFR1	2	R1157C
53.749	2.534	29436	PRACTICE_WORD	n/a	n/a	BEAM	n/a	-999	-999	[0, 0, 0]	n/a	catFR1	2	R1157C
56.283	2.383	30703	PRACTICE_WORD	n/a	n/a	TONGUE	n/a	-999	-999	[0, 0, 0]	n/a	catFR1	2	R1157C
58.666	2.451	31894	PRACTICE_WORD	n/a	n/a	COTTON	n/a	-999	-999	[0, 0, 0]	n/a	catFR1	2	R1157C
61.117	1.617	33120	PRACTICE_WORD	n/a	n/a	FLOOD	n/a	-999	-999	[0, 0, 0]	n/a	catFR1	2	R1157C
62.734	0.0	33928	PRACTICE_DISTRACT_START	n/a	n/a	n/a	n/a	-999	-999	[0, 0, 0]	n/a	catFR1	2	R1157C
62.734	0.017	33928	START	n/a	n/a	n/a	n/a	-999	-1	[-999, -999, -999]	n/a	catFR1	2	R1157C
62.751	4.234	33936	PROB	4.201	n/a	n/a	n/a	-999	-1	[5, 4, 7]	16.0	catFR1	2	R1157C
66.985	3.449	36053	PROB	3.414	n/a	n/a	n/a	-999	-1	[7, 5, 5]	17.0	catFR1	2	R1157C
70.434	2.251	37778	PROB	2.221	n/a	n/a	n/a	-999	-1	[3, 3, 1]	7.0	catFR1	2	R1157C
72.685	2.535	38903	PROB	2.499	n/a	n/a	n/a	-999	-1	[2, 4, 1]	7.0	catFR1	2	R1157C
75.22	3.484	40170	PROB	3.459	n/a	n/a	n/a	-999	-1	[4, 4, 5]	13.0	catFR1	2	R1157C
78.704	2.05	41912	PROB	2.016	n/a	n/a	n/a	-999	-1	[1, 1, 1]	3.0	catFR1	2	R1157C
80.754	3.757	42937	PROB	3.757	n/a	n/a	n/a	-999	-1	[7, 4, 5]	16.0	catFR1	2	R1157C
84.511	0.01	44816	STOP	n/a	n/a	n/a	n/a	-999	-1	[-999, -999, -999]	n/a	catFR1	2	R1157C
84.521	0.602	44821	PRACTICE_DISTRACT_END	n/a	n/a	n/a	n/a	-999	-999	[0, 0, 0]	n/a	catFR1	2	R1157C
85.123	30.514	45121	PRACTICE_REC_START	n/a	n/a	n/a	n/a	-999	-999	[0, 0, 0]	n/a	catFR1	2	R1157C
115.637	7.007	60377	PRACTICE_REC_END	n/a	n/a	n/a	n/a	-999	-999	[0, 0, 0]	n/a	catFR1	2	R1157C
122.644	0.001	63880	COUNTDOWN_START	n/a	n/a	n/a	n/a	-999	1	[0, 0, 0]	n/a	catFR1	2	R1157C
122.645	10.427	63881	TRIAL	n/a	n/a	n/a	n/a	-999	1	[0, 0, 0]	n/a	catFR1	2	R1157C
133.072	0.009	69094	COUNTDOWN_END	n/a	n/a	n/a	n/a	-999	1	[0, 0, 0]	n/a	catFR1	2	R1157C
133.081	3.884	69098	ORIENT	n/a	n/a	n/a	n/a	-999	1	[0, 0, 0]	n/a	catFR1	2	R1157C
136.965	2.433	71040	WORD	n/a	wordpools/wordpool_categorized_EN.txt	MONKEY	Zoo	1	1	[0, 0, 0]	n/a	catFR1	2	R1157C
139.398	2.401	72257	WORD	n/a	wordpools/wordpool_categorized_EN.txt	ORANGUTAN	Zoo	2	1	[0, 0, 0]	n/a	catFR1	2	R1157C
141.799	2.583	73457	WORD	n/a	wordpools/wordpool_categorized_EN.txt	OCTOPUS	OceanAnimals	3	1	[0, 0, 0]	n/a	catFR1	2	R1157C
144.382	2.602	74748	WORD	n/a	wordpools/wordpool_categorized_EN.txt	DOLPHIN	OceanAnimals	4	1	[0, 0, 0]	n/a	catFR1	2	R1157C
146.984	2.415	76049	WORD	n/a	wordpools/wordpool_categorized_EN.txt	LEMON	Fruit	5	1	[0, 0, 0]	n/a	catFR1	2	R1157C
149.399	2.602	77257	WORD	n/a	wordpools/wordpool_categorized_EN.txt	CHERRY	Fruit	6	1	[0, 0, 0]	n/a	catFR1	2	R1157C
152.001	2.583	78558	WORD	n/a	wordpools/wordpool_categorized_EN.txt	FISH	OceanAnimals	7	1	[0, 0, 0]	n/a	catFR1	2	R1157C
154.584	2.518	79849	WORD	n/a	wordpools/wordpool_categorized_EN.txt	JELLYFISH	OceanAnimals	8	1	[0, 0, 0]	n/a	catFR1	2	R1157C
157.102	2.383	81108	WORD	n/a	wordpools/wordpool_categorized_EN.txt	GIRAFFE	Zoo	9	1	[0, 0, 0]	n/a	catFR1	2	R1157C
159.485	2.435	82299	WORD	n/a	wordpools/wordpool_categorized_EN.txt	LION	Zoo	10	1	[0, 0, 0]	n/a	catFR1	2	R1157C
161.92	2.433	83517	WORD	n/a	wordpools/wordpool_categorized_EN.txt	BANANA	Fruit	11	1	[0, 0, 0]	n/a	catFR1	2	R1157C
164.353	1.617	84733	WORD	n/a	wordpools/wordpool_categorized_EN.txt	BLUEBERRY	Fruit	12	1	[0, 0, 0]	n/a	catFR1	2	R1157C
165.97	0.001	85542	DISTRACT_START	n/a	n/a	n/a	n/a	-999	1	[0, 0, 0]	n/a	catFR1	2	R1157C
165.971	0.016	85542	START	n/a	n/a	n/a	n/a	-999	1	[-999, -999, -999]	n/a	catFR1	2	R1157C
165.987	4.284	85550	PROB	4.253	n/a	n/a	n/a	-999	1	[9, 3, 5]	17.0	catFR1	2	R1157C
170.271	3.25	87692	PROB	3.224	n/a	n/a	n/a	-999	1	[3, 5, 5]	13.0	catFR1	2	R1157C
173.521	3.385	89317	PROB	3.351	n/a	n/a	n/a	-999	1	[6, 8, 6]	20.0	catFR1	2	R1157C
176.906	2.25	91009	PROB	2.23	n/a	n/a	n/a	-999	1	[3, 5, 1]	9.0	catFR1	2	R1157C
179.156	3.417	92134	PROB	3.387	n/a	n/a	n/a	-999	1	[5, 2, 9]	16.0	catFR1	2	R1157C
182.573	3.73	93842	PROB	3.73	n/a	n/a	n/a	-999	1	[6, 6, 9]	1.0	catFR1	2	R1157C
186.303	0.003	95707	STOP	n/a	n/a	n/a	n/a	-999	1	[-999, -999, -999]	n/a	catFR1	2	R1157C
186.306	1.171	95709	DISTRACT_END	n/a	n/a	n/a	n/a	-999	1	[0, 0, 0]	n/a	catFR1	2	R1157C
187.477	0.0	96294	REC_WORD_VV	0.0	n/a	<>	n/a	-999	1	[0, 0, 0]	n/a	catFR1	2	R1157C
187.477	1.0	96294	REC_START	n/a	n/a	n/a	n/a	-999	1	[0, 0, 0]	n/a	catFR1	2	R1157C
188.477	1.0	96794	REC_WORD_VV	1.0	n/a	<>	n/a	-999	1	[0, 0, 0]	n/a	catFR1	2	R1157C
189.477	2.396	97294	REC_WORD_VV	2.0	n/a	<>	n/a	-999	1	[0, 0, 0]	n/a	catFR1	2	R1157C
191.873	1.201	98492	REC_WORD	4.396	n/a	ORANGUTAN	Zoo	2	1	[0, 0, 0]	n/a	catFR1	2	R1157C
193.074	0.824	99092	REC_WORD	5.597	n/a	GIRAFFE	Zoo	9	1	[0, 0, 0]	n/a	catFR1	2	R1157C
193.898	1.855	99504	REC_WORD	6.421	n/a	LION	Zoo	10	1	[0, 0, 0]	n/a	catFR1	2	R1157C
195.753	0.361	100432	REC_WORD	8.276	n/a	LEMON	Fruit	5	1	[0, 0, 0]	n/a	catFR1	2	R1157C
196.114	7.679	100612	REC_WORD	8.637	n/a	CHERRY	Fruit	6	1	[0, 0, 0]	n/a	catFR1	2	R1157C
203.793	13.684	104451	REC_WORD	16.316	n/a	FISH	OceanAnimals	7	1	[0, 0, 0]	n/a	catFR1	2	R1157C
217.477	0.006	111293	REC_WORD_VV	30.0	n/a	<>	n/a	-999	1	[0, 0, 0]	n/a	catFR1	2	R1157C
217.483	1.847	111296	REC_END	n/a	n/a	n/a	n/a	-999	1	[0, 0, 0]	n/a	catFR1	2	R1157C
219.33	0.0	112219	TRIAL	n/a	n/a	n/a	n/a	-999	2	[0, 0, 0]	n/a	catFR1	2	R1157C
219.33	10.428	112219	COUNTDOWN_START	n/a	n/a	n/a	n/a	-999	2	[0, 0, 0]	n/a	catFR1	2	R1157C
229.758	0.008	117433	COUNTDOWN_END	n/a	n/a	n/a	n/a	-999	2	[0, 0, 0]	n/a	catFR1	2	R1157C
229.766	3.616	117437	ORIENT	n/a	n/a	n/a	n/a	-999	2	[0, 0, 0]	n/a	catFR1	2	R1157C
233.382	2.385	119245	WORD	n/a	wordpools/wordpool_categorized_EN.txt	CEDAR	Trees	1	2	[0, 0, 0]	n/a	catFR1	2	R1157C
235.767	2.451	120437	WORD	n/a	wordpools/wordpool_categorized_EN.txt	SPRUCE	Trees	2	2	[0, 0, 0]	n/a	catFR1	2	R1157C
238.218	2.382	121662	WORD	n/a	wordpools/wordpool_categorized_EN.txt	LEMONADE	Beverages	3	2	[0, 0, 0]	n/a	catFR1	2	R1157C
240.6	2.402	122853	WORD	n/a	wordpools/wordpool_categorized_EN.txt	RUM	Beverages	4	2	[0, 0, 0]	n/a	catFR1	2	R1157C
243.002	2.399	124054	WORD	n/a	wordpools/wordpool_categorized_EN.txt	PASTRY	Desserts	5	2	[0, 0, 0]	n/a	catFR1	2	R1157C
245.401	2.485	125254	WORD	n/a	wordpools/wordpool_categorized_EN.txt	COBBLER	Desserts	6	2	[0, 0, 0]	n/a	catFR1	2	R1157C
247.886	2.416	126496	WORD	n/a	wordpools/wordpool_categorized_EN.txt	SODA	Beverages	7	2	[0, 0, 0]	n/a	catFR1	2	R1157C
250.302	2.452	127704	WORD	n/a	wordpools/wordpool_categorized_EN.txt	CIDER	Beverages	8	2	[0, 0, 0]	n/a	catFR1	2	R1157C
252.754	2.633	128930	WORD	n/a	wordpools/wordpool_categorized_EN.txt	WALNUT	Trees	9	2	[0, 0, 0]	n/a	catFR1	2	R1157C
255.387	2.468	130246	WORD	n/a	wordpools/wordpool_categorized_EN.txt	BIRCH	Trees	10	2	[0, 0, 0]	n/a	catFR1	2	R1157C
257.855	2.533	131480	WORD	n/a	wordpools/wordpool_categorized_EN.txt	FUDGE	Desserts	11	2	[0, 0, 0]	n/a	catFR1	2	R1157C
260.388	1.618	132746	WORD	n/a	wordpools/wordpool_categorized_EN.txt	CAKE	Desserts	12	2	[0, 0, 0]	n/a	catFR1	2	R1157C
262.006	0.0	133555	DISTRACT_START	n/a	n/a	n/a	n/a	-999	2	[0, 0, 0]	n/a	catFR1	2	R1157C
262.006	0.016	133555	START	n/a	n/a	n/a	n/a	-999	2	[-999, -999, -999]	n/a	catFR1	2	R1157C
262.022	2.616	133563	PROB	2.593	n/a	n/a	n/a	-999	2	[2, 5, 1]	8.0	catFR1	2	R1157C
264.638	5.519	134871	PROB	5.498	n/a	n/a	n/a	-999	2	[6, 9, 5]	20.0	catFR1	2	R1157C
270.157	3.551	137631	PROB	3.53	n/a	n/a	n/a	-999	2	[4, 9, 1]	14.0	catFR1	2	R1157C
273.708	17.996	139406	PROB	17.996	n/a	n/a	n/a	-999	2	[5, 7, 4]	16.0	catFR1	2	R1157C
291.704	0.007	148403	STOP	n/a	n/a	n/a	n/a	-999	2	[-999, -999, -999]	n/a	catFR1	2	R1157C
291.711	1.152	148407	DISTRACT_END	n/a	n/a	n/a	n/a	-999	2	[0, 0, 0]	n/a	catFR1	2	R1157C
292.863	4.306	148983	REC_START	n/a	n/a	n/a	n/a	-999	2	[0, 0, 0]	n/a	catFR1	2	R1157C
297.169	0.578	151135	REC_WORD	4.306	n/a	LEMONADE	Beverages	3	2	[0, 0, 0]	n/a	catFR1	2	R1157C
297.747	0.713	151424	REC_WORD	4.884	n/a	FUDGE	Desserts	11	2	[0, 0, 0]	n/a	catFR1	2	R1157C
298.46	15.811	151781	REC_WORD	5.597	n/a	CAKE	Desserts	12	2	[0, 0, 0]	n/a	catFR1	2	R1157C
314.271	0.413	159686	REC_WORD	21.408	n/a	SPRUCE	Trees	2	2	[0, 0, 0]	n/a	catFR1	2	R1157C
314.684	8.188	159892	REC_WORD	21.821	n/a	CEDAR	Trees	1	2	[0, 0, 0]	n/a	catFR1	2	R1157C
322.872	1.962	163986	REC_END	n/a	n/a	n/a	n/a	-999	2	[0, 0, 0]	n/a	catFR1	2	R1157C
324.834	0.0	164967	COUNTDOWN_START	n/a	n/a	n/a	n/a	-999	3	[0, 0, 0]	n/a	catFR1	2	R1157C
324.834	10.428	164967	TRIAL	n/a	n/a	n/a	n/a	-999	3	[0, 0, 0]	n/a	catFR1	2	R1157C
335.262	0.008	170180	COUNTDOWN_END	n/a	n/a	n/a	n/a	-999	3	[0, 0, 0]	n/a	catFR1	2	R1157C
335.27	3.534	170184	ORIENT	n/a	n/a	n/a	n/a	-999	3	[0, 0, 0]	n/a	catFR1	2	R1157C
338.804	2.533	171951	WORD	n/a	wordpools/wordpool_categorized_EN.txt	CELLO	Instruments	1	3	[0, 0, 0]	n/a	catFR1	2	R1157C
341.337	2.601	173217	WORD	n/a	wordpools/wordpool_categorized_EN.txt	PIANO	Instruments	2	3	[0, 0, 0]	n/a	catFR1	2	R1157C
343.938	2.516	174518	WORD	n/a	wordpools/wordpool_categorized_EN.txt	SLINKY	Toys	3	3	[0, 0, 0]	n/a	catFR1	2	R1157C
346.454	2.535	175776	WORD	n/a	wordpools/wordpool_categorized_EN.txt	DOLL	Toys	4	3	[0, 0, 0]	n/a	catFR1	2	R1157C
348.989	2.499	177043	WORD	n/a	wordpools/wordpool_categorized_EN.txt	WHALE	OceanAnimals	5	3	[0, 0, 0]	n/a	catFR1	2	R1157C
351.488	2.435	178293	WORD	n/a	wordpools/wordpool_categorized_EN.txt	TURTLE	OceanAnimals	6	3	[0, 0, 0]	n/a	catFR1	2	R1157C
353.923	2.533	179510	WORD	n/a	wordpools/wordpool_categorized_EN.txt	FOOTBALL	Toys	7	3	[0, 0, 0]	n/a	catFR1	2	R1157C
356.456	2.385	180776	WORD	n/a	wordpools/wordpool_categorized_EN.txt	MARBLES	Toys	8	3	[0, 0, 0]	n/a	catFR1	2	R1157C
358.841	2.499	181969	WORD	n/a	wordpools/wordpool_categorized_EN.txt	GUITAR	Instruments	9	3	[0, 0, 0]	n/a	catFR1	2	R1157C
361.34	2.468	183218	WORD	n/a	wordpools/wordpool_categorized_EN.txt	VIOLIN	Instruments	10	3	[0, 0, 0]	n/a	catFR1	2	R1157C
363.808	2.451	184452	WORD	n/a	wordpools/wordpool_categorized_EN.txt	LOBSTER	OceanAnimals	11	3	[0, 0, 0]	n/a	catFR1	2	R1157C
366.259	1.617	185677	WORD	n/a	wordpools/wordpool_categorized_EN.txt	OYSTER	OceanAnimals	12	3	[0, 0, 0]	n/a	catFR1	2	R1157C
367.876	0.001	186486	DISTRACT_START	n/a	n/a	n/a	n/a	-999	3	[0, 0, 0]	n/a	catFR1	2	R1157C
367.877	0.016	186486	START	n/a	n/a	n/a	n/a	-999	3	[-999, -999, -999]	n/a	catFR1	2	R1157C
367.893	3.733	186494	PROB	3.706	n/a	n/a	n/a	-999	3	[7, 6, 1]	14.0	catFR1	2	R1157C
371.626	2.351	188361	PROB	2.318	n/a	n/a	n/a	-999	3	[1, 2, 8]	11.0	catFR1	2	R1157C
373.977	2.867	189536	PROB	2.847	n/a	n/a	n/a	-999	3	[3, 4, 9]	16.0	catFR1	2	R1157C
376.844	2.284	190969	PROB	2.26	n/a	n/a	n/a	-999	3	[6, 1, 1]	8.0	catFR1	2	R1157C
379.128	2.533	192111	PROB	2.511	n/a	n/a	n/a	-999	3	[3, 5, 9]	17.0	catFR1	2	R1157C
381.661	3.285	193378	PROB	3.251	n/a	n/a	n/a	-999	3	[9, 3, 2]	14.0	catFR1	2	R1157C
384.946	2.25	195020	PROB	2.23	n/a	n/a	n/a	-999	3	[4, 5, 4]	13.0	catFR1	2	R1157C
387.196	2.796	196145	PROB	2.796	n/a	n/a	n/a	-999	3	[9, 5, 1]	15.0	catFR1	2	R1157C
389.992	0.005	197543	STOP	n/a	n/a	n/a	n/a	-999	3	[-999, -999, -999]	n/a	catFR1	2	R1157C
389.997	1.1	197545	DISTRACT_END	n/a	n/a	n/a	n/a	-999	3	[0, 0, 0]	n/a	catFR1	2	R1157C
391.097	18.045	198095	REC_START	n/a	n/a	n/a	n/a	-999	3	[0, 0, 0]	n/a	catFR1	2	R1157C
409.142	11.965	207117	REC_WORD	18.045	n/a	WHALE	OceanAnimals	5	3	[0, 0, 0]	n/a	catFR1	2	R1157C
421.107	1.963	213099	REC_END	n/a	n/a	n/a	n/a	-999	3	[0, 0, 0]	n/a	catFR1	2	R1157C
423.07	0.0	214080	COUNTDOWN_START	n/a	n/a	n/a	n/a	-999	4	[0, 0, 0]	n/a	catFR1	2	R1157C
423.07	10.428	214080	TRIAL	n/a	n/a	n/a	n/a	-999	4	[0, 0, 0]	n/a	catFR1	2	R1157C
433.498	0.006	219294	COUNTDOWN_END	n/a	n/a	n/a	n/a	-999	4	[0, 0, 0]	n/a	catFR1	2	R1157C
433.504	3.735	219297	ORIENT	n/a	n/a	n/a	n/a	-999	4	[0, 0, 0]	n/a	catFR1	2	R1157C
437.239	2.45	221164	WORD	n/a	wordpools/wordpool_categorized_EN.txt	PLUM	Fruit	1	4	[0, 0, 0]	n/a	catFR1	2	R1157C
439.689	2.468	222389	WORD	n/a	wordpools/wordpool_categorized_EN.txt	STRAWBERRY	Fruit	2	4	[0, 0, 0]	n/a	catFR1	2	R1157C
442.157	2.617	223623	WORD	n/a	wordpools/wordpool_categorized_EN.txt	RADIO	Electronics	3	4	[0, 0, 0]	n/a	catFR1	2	R1157C
444.774	2.616	224932	WORD	n/a	wordpools/wordpool_categorized_EN.txt	COMPUTER	Electronics	4	4	[0, 0, 0]	n/a	catFR1	2	R1157C
447.39	2.368	226239	WORD	n/a	wordpools/wordpool_categorized_EN.txt	ATTIC	Building	5	4	[0, 0, 0]	n/a	catFR1	2	R1157C
449.758	2.384	227423	WORD	n/a	wordpools/wordpool_categorized_EN.txt	CEILING	Building	6	4	[0, 0, 0]	n/a	catFR1	2	R1157C
452.142	2.383	228615	WORD	n/a	wordpools/wordpool_categorized_EN.txt	HEADPHONES	Electronics	7	4	[0, 0, 0]	n/a	catFR1	2	R1157C
454.525	2.535	229807	WORD	n/a	wordpools/wordpool_categorized_EN.txt	SPEAKER	Electronics	8	4	[0, 0, 0]	n/a	catFR1	2	R1157C
457.06	2.616	231074	WORD	n/a	wordpools/wordpool_categorized_EN.txt	APPLE	Fruit	9	4	[0, 0, 0]	n/a	catFR1	2	R1157C
459.676	2.451	232382	WORD	n/a	wordpools/wordpool_categorized_EN.txt	ORANGE	Fruit	10	4	[0, 0, 0]	n/a	catFR1	2	R1157C
462.127	2.383	233607	WORD	n/a	wordpools/wordpool_categorized_EN.txt	DOOR	Building	11	4	[0, 0, 0]	n/a	catFR1	2	R1157C
464.51	1.601	234799	WORD	n/a	wordpools/wordpool_categorized_EN.txt	HALLWAY	Building	12	4	[0, 0, 0]	n/a	catFR1	2	R1157C
466.111	0.001	235599	DISTRACT_START	n/a	n/a	n/a	n/a	-999	4	[0, 0, 0]	n/a	catFR1	2	R1157C
466.112	0.016	235600	START	n/a	n/a	n/a	n/a	-999	4	[-999, -999, -999]	n/a	catFR1	2	R1157C
466.128	3.316	235608	PROB	3.287	n/a	n/a	n/a	-999	4	[8, 1, 7]	16.0	catFR1	2	R1157C
469.444	2.951	237265	PROB	2.915	n/a	n/a	n/a	-999	4	[6, 7, 5]	18.0	catFR1	2	R1157C
472.395	1.635	238741	PROB	1.613	n/a	n/a	n/a	-999	4	[6, 4, 1]	11.0	catFR1	2	R1157C
474.03	1.95	239558	PROB	1.93	n/a	n/a	n/a	-999	4	[5, 3, 8]	11.0	catFR1	2	R1157C
475.98	3.5	240533	PROB	3.475	n/a	n/a	n/a	-999	4	[8, 9, 2]	19.0	catFR1	2	R1157C
479.48	2.234	242283	PROB	2.207	n/a	n/a	n/a	-999	4	[4, 6, 1]	11.0	catFR1	2	R1157C
481.714	4.001	243400	PROB	3.973	n/a	n/a	n/a	-999	4	[5, 1, 4]	10.0	catFR1	2	R1157C
485.715	3.78	245400	PROB	3.78	n/a	n/a	n/a	-999	4	[3, 7, 5]	15.0	catFR1	2	R1157C
489.495	0.003	247290	STOP	n/a	n/a	n/a	n/a	-999	4	[-999, -999, -999]	n/a	catFR1	2	R1157C
489.498	1.067	247292	DISTRACT_END	n/a	n/a	n/a	n/a	-999	4	[0, 0, 0]	n/a	catFR1	2	R1157C
490.565	17.658	247825	REC_START	n/a	n/a	n/a	n/a	-999	4	[0, 0, 0]	n/a	catFR1	2	R1157C
508.223	1.0	256653	REC_WORD_VV	17.658	n/a	<>	n/a	-999	4	[0, 0, 0]	n/a	catFR1	2	R1157C
509.223	9.919	257153	REC_WORD_VV	18.658	n/a	<>	n/a	-999	4	[0, 0, 0]	n/a	catFR1	2	R1157C
519.142	1.44	262112	REC_WORD	28.577	n/a	ATTIC	Building	5	4	[0, 0, 0]	n/a	catFR1	2	R1157C
520.582	1.573	262832	REC_END	n/a	n/a	n/a	n/a	-999	4	[0, 0, 0]	n/a	catFR1	2	R1157C
522.155	0.001	263619	COUNTDOWN_START	n/a	n/a	n/a	n/a	-999	5	[0, 0, 0]	n/a	catFR1	2	R1157C
522.156	10.427	263619	TRIAL	n/a	n/a	n/a	n/a	-999	5	[0, 0, 0]	n/a	catFR1	2	R1157C
532.583	0.007	268832	COUNTDOWN_END	n/a	n/a	n/a	n/a	-999	5	[0, 0, 0]	n/a	catFR1	2	R1157C
532.59	3.668	268836	ORIENT	n/a	n/a	n/a	n/a	-999	5	[0, 0, 0]	n/a	catFR1	2	R1157C
536.258	2.4	270670	WORD	n/a	wordpools/wordpool_categorized_EN.txt	STRAINER	KitchenTools	1	5	[0, 0, 0]	n/a	catFR1	2	R1157C
538.658	2.585	271870	WORD	n/a	wordpools/wordpool_categorized_EN.txt	CORKSCREW	KitchenTools	2	5	[0, 0, 0]	n/a	catFR1	2	R1157C
541.243	2.583	273162	WORD	n/a	wordpools/wordpool_categorized_EN.txt	ROSE	Flowers	3	5	[0, 0, 0]	n/a	catFR1	2	R1157C
543.826	2.55	274453	WORD	n/a	wordpools/wordpool_categorized_EN.txt	DAFFODIL	Flowers	4	5	[0, 0, 0]	n/a	catFR1	2	R1157C
546.376	2.368	275728	WORD	n/a	wordpools/wordpool_categorized_EN.txt	STAIRS	Building	5	5	[0, 0, 0]	n/a	catFR1	2	R1157C
548.744	2.434	276912	WORD	n/a	wordpools/wordpool_categorized_EN.txt	FLOOR	Building	6	5	[0, 0, 0]	n/a	catFR1	2	R1157C
551.178	2.449	278129	WORD	n/a	wordpools/wordpool_categorized_EN.txt	LADLE	KitchenTools	7	5	[0, 0, 0]	n/a	catFR1	2	R1157C
553.627	2.402	279353	WORD	n/a	wordpools/wordpool_categorized_EN.txt	SPATULA	KitchenTools	8	5	[0, 0, 0]	n/a	catFR1	2	R1157C
556.029	2.516	280554	WORD	n/a	wordpools/wordpool_categorized_EN.txt	WINDOW	Building	9	5	[0, 0, 0]	n/a	catFR1	2	R1157C
558.545	2.501	281812	WORD	n/a	wordpools/wordpool_categorized_EN.txt	ROOM	Building	10	5	[0, 0, 0]	n/a	catFR1	2	R1157C
561.046	2.416	283063	WORD	n/a	wordpools/wordpool_categorized_EN.txt	PETUNIA	Flowers	11	5	[0, 0, 0]	n/a	catFR1	2	R1157C
563.462	1.601	284270	WORD	n/a	wordpools/wordpool_categorized_EN.txt	TULIP	Flowers	12	5	[0, 0, 0]	n/a	catFR1	2	R1157C
565.063	0.001	285071	DISTRACT_START	n/a	n/a	n/a	n/a	-999	5	[0, 0, 0]	n/a	catFR1	2	R1157C
565.064	0.016	285071	START	n/a	n/a	n/a	n/a	-999	5	[-999, -999, -999]	n/a	catFR1	2	R1157C
565.08	3.168	285079	PROB	3.136	n/a	n/a	n/a	-999	5	[4, 5, 2]	11.0	catFR1	2	R1157C
568.248	2.116	286663	PROB	2.087	n/a	n/a	n/a	-999	5	[1, 6, 5]	12.0	catFR1	2	R1157C
570.364	4.151	287721	PROB	4.131	n/a	n/a	n/a	-999	5	[8, 5, 8]	21.0	catFR1	2	R1157C
574.515	2.468	289796	PROB	2.437	n/a	n/a	n/a	-999	5	[6, 3, 5]	14.0	catFR1	2	R1157C
576.983	3.234	291030	PROB	3.201	n/a	n/a	n/a	-999	5	[7, 4, 1]	12.0	catFR1	2	R1157C
580.217	3.034	292647	PROB	2.999	n/a	n/a	n/a	-999	5	[5, 6, 8]	19.0	catFR1	2	R1157C
583.251	2.893	294164	PROB	2.893	n/a	n/a	n/a	-999	5	[8, 3, 9]	20.0	catFR1	2	R1157C
586.144	0.007	295610	STOP	n/a	n/a	n/a	n/a	-999	5	[-999, -999, -999]	n/a	catFR1	2	R1157C
586.151	1.217	295614	DISTRACT_END	n/a	n/a	n/a	n/a	-999	5	[0, 0, 0]	n/a	catFR1	2	R1157C
587.368	14.222	296222	REC_START	n/a	n/a	n/a	n/a	-999	5	[0, 0, 0]	n/a	catFR1	2	R1157C
601.59	0.358	303333	REC_WORD	14.222	n/a	PLUM	n/a	-999	5	[0, 0, 0]	n/a	catFR1	2	R1157C
601.948	14.282	303512	REC_WORD	14.58	n/a	STRAWBERRY	n/a	-999	5	[0, 0, 0]	n/a	catFR1	2	R1157C
616.23	1.149	310652	REC_WORD	28.862	n/a	CELLO	n/a	-999	5	[0, 0, 0]	n/a	catFR1	2	R1157C
617.379	1.511	311227	REC_END	n/a	n/a	n/a	n/a	-999	5	[0, 0, 0]	n/a	catFR1	2	R1157C
618.89	0.001	311982	COUNTDOWN_START	n/a	n/a	n/a	n/a	-999	6	[0, 0, 0]	n/a	catFR1	2	R1157C
618.891	10.427	311983	TRIAL	n/a	n/a	n/a	n/a	-999	6	[0, 0, 0]	n/a	catFR1	2	R1157C
629.318	0.007	317196	COUNTDOWN_END	n/a	n/a	n/a	n/a	-999	6	[0, 0, 0]	n/a	catFR1	2	R1157C
629.325	3.652	317199	ORIENT	n/a	n/a	n/a	n/a	-999	6	[0, 0, 0]	n/a	catFR1	2	R1157C
632.977	2.433	319025	WORD	n/a	wordpools/wordpool_categorized_EN.txt	WIND	Weather	1	6	[0, 0, 0]	n/a	catFR1	2	R1157C
635.41	2.534	320241	WORD	n/a	wordpools/wordpool_categorized_EN.txt	LIGHTNING	Weather	2	6	[0, 0, 0]	n/a	catFR1	2	R1157C
637.944	2.4	321508	WORD	n/a	wordpools/wordpool_categorized_EN.txt	ARM	BodyParts	3	6	[0, 0, 0]	n/a	catFR1	2	R1157C
640.344	2.501	322708	WORD	n/a	wordpools/wordpool_categorized_EN.txt	EAR	BodyParts	4	6	[0, 0, 0]	n/a	catFR1	2	R1157C
642.845	2.6	323959	WORD	n/a	wordpools/wordpool_categorized_EN.txt	COOKIE	Desserts	5	6	[0, 0, 0]	n/a	catFR1	2	R1157C
645.445	2.535	325258	WORD	n/a	wordpools/wordpool_categorized_EN.txt	MOUSSE	Desserts	6	6	[0, 0, 0]	n/a	catFR1	2	R1157C
647.98	2.516	326526	WORD	n/a	wordpools/wordpool_categorized_EN.txt	THUNDERSTORM	Weather	7	6	[0, 0, 0]	n/a	catFR1	2	R1157C
650.496	2.485	327784	WORD	n/a	wordpools/wordpool_categorized_EN.txt	HURRICANE	Weather	8	6	[0, 0, 0]	n/a	catFR1	2	R1157C
652.981	2.616	329026	WORD	n/a	wordpools/wordpool_categorized_EN.txt	PUDDING	Desserts	9	6	[0, 0, 0]	n/a	catFR1	2	R1157C
655.597	2.585	330334	WORD	n/a	wordpools/wordpool_categorized_EN.txt	PIE	Desserts	10	6	[0, 0, 0]	n/a	catFR1	2	R1157C
658.182	2.6	331626	WORD	n/a	wordpools/wordpool_categorized_EN.txt	KNEE	BodyParts	11	6	[0, 0, 0]	n/a	catFR1	2	R1157C
660.782	1.616	332926	WORD	n/a	wordpools/wordpool_categorized_EN.txt	TOE	BodyParts	12	6	[0, 0, 0]	n/a	catFR1	2	R1157C
662.398	0.001	333734	DISTRACT_START	n/a	n/a	n/a	n/a	-999	6	[0, 0, 0]	n/a	catFR1	2	R1157C
662.399	0.016	333735	START	n/a	n/a	n/a	n/a	-999	6	[-999, -999, -999]	n/a	catFR1	2	R1157C
662.415	2.917	333743	PROB	2.896	n/a	n/a	n/a	-999	6	[7, 4, 3]	14.0	catFR1	2	R1157C
665.332	2.635	335201	PROB	2.604	n/a	n/a	n/a	-999	6	[5, 7, 4]	16.0	catFR1	2	R1157C
667.967	3.95	336518	PROB	3.921	n/a	n/a	n/a	-999	6	[4, 8, 7]	19.0	catFR1	2	R1157C
671.917	2.334	338493	PROB	2.315	n/a	n/a	n/a	-999	6	[2, 4, 2]	8.0	catFR1	2	R1157C
674.251	2.617	339660	PROB	2.589	n/a	n/a	n/a	-999	6	[4, 7, 6]	17.0	catFR1	2	R1157C
676.868	2.5	340969	PROB	2.467	n/a	n/a	n/a	-999	6	[9, 2, 4]	15.0	catFR1	2	R1157C
679.368	1.835	342218	PROB	1.8	n/a	n/a	n/a	-999	6	[3, 7, 1]	11.0	catFR1	2	R1157C
681.203	2.725	343136	PROB	2.725	n/a	n/a	n/a	-999	6	[7, 5, 8]	20.0	catFR1	2	R1157C
683.928	0.009	344498	STOP	n/a	n/a	n/a	n/a	-999	6	[-999, -999, -999]	n/a	catFR1	2	R1157C
683.937	1.033	344503	DISTRACT_END	n/a	n/a	n/a	n/a	-999	6	[0, 0, 0]	n/a	catFR1	2	R1157C
684.97	3.41	345019	REC_START	n/a	n/a	n/a	n/a	-999	6	[0, 0, 0]	n/a	catFR1	2	R1157C
688.38	0.849	346724	REC_WORD	3.41	n/a	HURRICANE	Weather	8	6	[0, 0, 0]	n/a	catFR1	2	R1157C
689.229	1.55	347149	REC_WORD	4.259	n/a	THUNDERSTORM	Weather	7	6	[0, 0, 0]	n/a	catFR1	2	R1157C
690.779	24.203	347923	REC_WORD	5.809	n/a	WIND	Weather	1	6	[0, 0, 0]	n/a	catFR1	2	R1157C
714.982	1.894	360024	REC_END	n/a	n/a	n/a	n/a	-999	6	[0, 0, 0]	n/a	catFR1	2	R1157C
716.876	0.0	360971	COUNTDOWN_START	n/a	n/a	n/a	n/a	-999	7	[0, 0, 0]	n/a	catFR1	2	R1157C
716.876	10.428	360971	TRIAL	n/a	n/a	n/a	n/a	-999	7	[0, 0, 0]	n/a	catFR1	2	R1157C
727.304	0.006	366184	COUNTDOWN_END	n/a	n/a	n/a	n/a	-999	7	[0, 0, 0]	n/a	catFR1	2	R1157C
727.31	3.685	366187	ORIENT	n/a	n/a	n/a	n/a	-999	7	[0, 0, 0]	n/a	catFR1	2	R1157C
730.995	2.417	368030	WORD	n/a	wordpools/wordpool_categorized_EN.txt	HAND	BodyParts	1	7	[0, 0, 0]	n/a	catFR1	2	R1157C
733.412	2.534	369238	WORD	n/a	wordpools/wordpool_categorized_EN.txt	LEG	BodyParts	2	7	[0, 0, 0]	n/a	catFR1	2	R1157C
735.946	2.517	370505	WORD	n/a	wordpools/wordpool_categorized_EN.txt	KNIFE	KitchenTools	3	7	[0, 0, 0]	n/a	catFR1	2	R1157C
738.463	2.384	371763	WORD	n/a	wordpools/wordpool_categorized_EN.txt	GRATER	KitchenTools	4	7	[0, 0, 0]	n/a	catFR1	2	R1157C
740.847	2.483	372955	WORD	n/a	wordpools/wordpool_categorized_EN.txt	SOCKS	Clothing	5	7	[0, 0, 0]	n/a	catFR1	2	R1157C
743.33	2.368	374197	WORD	n/a	wordpools/wordpool_categorized_EN.txt	SHOES	Clothing	6	7	[0, 0, 0]	n/a	catFR1	2	R1157C
745.698	2.534	375381	WORD	n/a	wordpools/wordpool_categorized_EN.txt	FOOT	BodyParts	7	7	[0, 0, 0]	n/a	catFR1	2	R1157C
748.232	2.467	376648	WORD	n/a	wordpools/wordpool_categorized_EN.txt	NOSE	BodyParts	8	7	[0, 0, 0]	n/a	catFR1	2	R1157C
750.699	2.384	377881	WORD	n/a	wordpools/wordpool_categorized_EN.txt	SKIRT	Clothing	9	7	[0, 0, 0]	n/a	catFR1	2	R1157C
753.083	2.45	379073	WORD	n/a	wordpools/wordpool_categorized_EN.txt	JACKET	Clothing	10	7	[0, 0, 0]	n/a	catFR1	2	R1157C
755.533	2.401	380298	WORD	n/a	wordpools/wordpool_categorized_EN.txt	PEELER	KitchenTools	11	7	[0, 0, 0]	n/a	catFR1	2	R1157C
757.934	1.616	381498	WORD	n/a	wordpools/wordpool_categorized_EN.txt	WHISK	KitchenTools	12	7	[0, 0, 0]	n/a	catFR1	2	R1157C
759.55	0.001	382306	DISTRACT_START	n/a	n/a	n/a	n/a	-999	7	[0, 0, 0]	n/a	catFR1	2	R1157C
759.551	0.016	382307	START	n/a	n/a	n/a	n/a	-999	7	[-999, -999, -999]	n/a	catFR1	2	R1157C
759.567	2.95	382315	PROB	2.92	n/a	n/a	n/a	-999	7	[5, 2, 7]	14.0	catFR1	2	R1157C
762.517	2.568	383789	PROB	2.547	n/a	n/a	n/a	-999	7	[7, 8, 2]	17.0	catFR1	2	R1157C
765.085	3.935	385073	PROB	3.899	n/a	n/a	n/a	-999	7	[7, 4, 4]	15.0	catFR1	2	R1157C
769.02	1.649	387041	PROB	1.627	n/a	n/a	n/a	-999	7	[1, 7, 3]	11.0	catFR1	2	R1157C
770.669	2.0	387865	PROB	1.97	n/a	n/a	n/a	-999	7	[3, 5, 1]	11.0	catFR1	2	R1157C
772.669	5.286	388865	PROB	5.259	n/a	n/a	n/a	-999	7	[7, 7, 6]	20.0	catFR1	2	R1157C
777.955	2.325	391508	PROB	2.325	n/a	n/a	n/a	-999	7	[8, 1, 6]	15.0	catFR1	2	R1157C
780.28	0.007	392670	STOP	n/a	n/a	n/a	n/a	-999	7	[-999, -999, -999]	n/a	catFR1	2	R1157C
780.287	1.118	392674	DISTRACT_END	n/a	n/a	n/a	n/a	-999	7	[0, 0, 0]	n/a	catFR1	2	R1157C
781.405	8.352	393233	REC_START	n/a	n/a	n/a	n/a	-999	7	[0, 0, 0]	n/a	catFR1	2	R1157C
789.757	0.832	397408	REC_WORD	8.352	n/a	KNIFE	KitchenTools	3	7	[0, 0, 0]	n/a	catFR1	2	R1157C
790.589	3.619	397824	REC_WORD	9.184	n/a	FOOT	BodyParts	7	7	[0, 0, 0]	n/a	catFR1	2	R1157C
794.208	0.895	399634	REC_WORD	12.803	n/a	LEG	BodyParts	2	7	[0, 0, 0]	n/a	catFR1	2	R1157C
795.103	0.873	400081	REC_WORD	13.698	n/a	ARM	n/a	-999	7	[0, 0, 0]	n/a	catFR1	2	R1157C
795.976	1.311	400517	REC_WORD_VV	14.571	n/a	<>	n/a	-999	7	[0, 0, 0]	n/a	catFR1	2	R1157C
797.287	1.696	401173	REC_WORD	15.882	n/a	HAND	BodyParts	1	7	[0, 0, 0]	n/a	catFR1	2	R1157C
798.983	2.68	402021	REC_WORD	17.578	n/a	PEELER	KitchenTools	11	7	[0, 0, 0]	n/a	catFR1	2	R1157C
801.663	9.751	403361	REC_WORD	20.258	n/a	GRATER	KitchenTools	4	7	[0, 0, 0]	n/a	catFR1	2	R1157C
811.414	1.631	408236	REC_END	n/a	n/a	n/a	n/a	-999	7	[0, 0, 0]	n/a	catFR1	2	R1157C
813.045	0.0	409051	TRIAL	n/a	n/a	n/a	n/a	-999	8	[0, 0, 0]	n/a	catFR1	2	R1157C
813.045	10.428	409051	COUNTDOWN_START	n/a	n/a	n/a	n/a	-999	8	[0, 0, 0]	n/a	catFR1	2	R1157C
823.473	0.006	414265	COUNTDOWN_END	n/a	n/a	n/a	n/a	-999	8	[0, 0, 0]	n/a	catFR1	2	R1157C
823.479	3.402	414268	ORIENT	n/a	n/a	n/a	n/a	-999	8	[0, 0, 0]	n/a	catFR1	2	R1157C
826.881	2.432	415969	WORD	n/a	wordpools/wordpool_categorized_EN.txt	TABLE	Furniture	1	8	[0, 0, 0]	n/a	catFR1	2	R1157C
829.313	2.469	417185	WORD	n/a	wordpools/wordpool_categorized_EN.txt	SOFA	Furniture	2	8	[0, 0, 0]	n/a	catFR1	2	R1157C
831.782	2.383	418419	WORD	n/a	wordpools/wordpool_categorized_EN.txt	GNAT	Insects	3	8	[0, 0, 0]	n/a	catFR1	2	R1157C
834.165	2.416	419610	WORD	n/a	wordpools/wordpool_categorized_EN.txt	BEETLE	Insects	4	8	[0, 0, 0]	n/a	catFR1	2	R1157C
836.581	2.485	420818	WORD	n/a	wordpools/wordpool_categorized_EN.txt	SHRIMP	OceanAnimals	5	8	[0, 0, 0]	n/a	catFR1	2	R1157C
839.066	2.5	422061	WORD	n/a	wordpools/wordpool_categorized_EN.txt	PLANKTON	OceanAnimals	6	8	[0, 0, 0]	n/a	catFR1	2	R1157C
841.566	2.585	423311	WORD	n/a	wordpools/wordpool_categorized_EN.txt	BOOKCASE	Furniture	7	8	[0, 0, 0]	n/a	catFR1	2	R1157C
844.151	2.399	424603	WORD	n/a	wordpools/wordpool_categorized_EN.txt	BED	Furniture	8	8	[0, 0, 0]	n/a	catFR1	2	R1157C
846.55	2.485	425802	WORD	n/a	wordpools/wordpool_categorized_EN.txt	CRAB	OceanAnimals	9	8	[0, 0, 0]	n/a	catFR1	2	R1157C
849.035	2.599	427045	WORD	n/a	wordpools/wordpool_categorized_EN.txt	SQUID	OceanAnimals	10	8	[0, 0, 0]	n/a	catFR1	2	R1157C
851.634	2.568	428344	WORD	n/a	wordpools/wordpool_categorized_EN.txt	SPIDER	Insects	11	8	[0, 0, 0]	n/a	catFR1	2	R1157C
854.202	1.617	429628	WORD	n/a	wordpools/wordpool_categorized_EN.txt	CRICKET	Insects	12	8	[0, 0, 0]	n/a	catFR1	2	R1157C
855.819	0.001	430436	DISTRACT_START	n/a	n/a	n/a	n/a	-999	8	[0, 0, 0]	n/a	catFR1	2	R1157C
855.82	0.016	430437	START	n/a	n/a	n/a	n/a	-999	8	[-999, -999, -999]	n/a	catFR1	2	R1157C
855.836	4.783	430445	PROB	4.763	n/a	n/a	n/a	-999	8	[2, 3, 4]	9.0	catFR1	2	R1157C
860.619	2.017	432836	PROB	1.988	n/a	n/a	n/a	-999	8	[7, 5, 9]	21.0	catFR1	2	R1157C
862.636	1.917	433845	PROB	1.883	n/a	n/a	n/a	-999	8	[2, 1, 5]	8.0	catFR1	2	R1157C
864.553	2.485	434803	PROB	2.463	n/a	n/a	n/a	-999	8	[3, 6, 9]	18.0	catFR1	2	R1157C
867.038	2.734	436045	PROB	2.698	n/a	n/a	n/a	-999	8	[6, 8, 2]	16.0	catFR1	2	R1157C
869.772	6.228	437412	PROB	6.228	n/a	n/a	n/a	-999	8	[3, 8, 8]	19.0	catFR1	2	R1157C
876.0	0.007	440526	STOP	n/a	n/a	n/a	n/a	-999	8	[-999, -999, -999]	n/a	catFR1	2	R1157C
876.007	1.067	440530	DISTRACT_END	n/a	n/a	n/a	n/a	-999	8	[0, 0, 0]	n/a	catFR1	2	R1157C
877.074	2.027	441063	REC_START	n/a	n/a	n/a	n/a	-999	8	[0, 0, 0]	n/a	catFR1	2	R1157C
879.101	0.407	442076	REC_WORD	2.027	n/a	SHRIMP	OceanAnimals	5	8	[0, 0, 0]	n/a	catFR1	2	R1157C
879.508	0.454	442280	REC_WORD	2.434	n/a	CRAB	OceanAnimals	9	8	[0, 0, 0]	n/a	catFR1	2	R1157C
879.962	0.957	442507	REC_WORD_VV	2.888	n/a	<>	n/a	-999	8	[0, 0, 0]	n/a	catFR1	2	R1157C
880.919	16.035	442985	REC_WORD	3.845	n/a	SQUID	OceanAnimals	10	8	[0, 0, 0]	n/a	catFR1	2	R1157C
896.954	10.13	451002	REC_WORD	19.88	n/a	BOOKCASE	Furniture	7	8	[0, 0, 0]	n/a	catFR1	2	R1157C
907.084	1.862	456067	REC_END	n/a	n/a	n/a	n/a	-999	8	[0, 0, 0]	n/a	catFR1	2	R1157C
908.946	0.0	456998	TRIAL	n/a	n/a	n/a	n/a	-999	9	[0, 0, 0]	n/a	catFR1	2	R1157C
908.946	10.428	456998	COUNTDOWN_START	n/a	n/a	n/a	n/a	-999	9	[0, 0, 0]	n/a	catFR1	2	R1157C
919.374	0.007	462211	COUNTDOWN_END	n/a	n/a	n/a	n/a	-999	9	[0, 0, 0]	n/a	catFR1	2	R1157C
919.381	3.801	462215	ORIENT	n/a	n/a	n/a	n/a	-999	9	[0, 0, 0]	n/a	catFR1	2	R1157C
923.182	2.5	464115	WORD	n/a	wordpools/wordpool_categorized_EN.txt	FLUTE	Instruments	1	9	[0, 0, 0]	n/a	catFR1	2	R1157C
925.682	2.468	465365	WORD	n/a	wordpools/wordpool_categorized_EN.txt	TUBA	Instruments	2	9	[0, 0, 0]	n/a	catFR1	2	R1157C
928.15	2.499	466599	WORD	n/a	wordpools/wordpool_categorized_EN.txt	ELM	Trees	3	9	[0, 0, 0]	n/a	catFR1	2	R1157C
930.649	2.519	467848	WORD	n/a	wordpools/wordpool_categorized_EN.txt	HICKORY	Trees	4	9	[0, 0, 0]	n/a	catFR1	2	R1157C
933.168	2.432	469108	WORD	n/a	wordpools/wordpool_categorized_EN.txt	AXE	Tools	5	9	[0, 0, 0]	n/a	catFR1	2	R1157C
935.6	2.602	470323	WORD	n/a	wordpools/wordpool_categorized_EN.txt	CROWBAR	Tools	6	9	[0, 0, 0]	n/a	catFR1	2	R1157C
938.202	2.482	471624	WORD	n/a	wordpools/wordpool_categorized_EN.txt	DRUM	Instruments	7	9	[0, 0, 0]	n/a	catFR1	2	R1157C
940.684	2.452	472865	WORD	n/a	wordpools/wordpool_categorized_EN.txt	TRUMPET	Instruments	8	9	[0, 0, 0]	n/a	catFR1	2	R1157C
943.136	2.4	474091	WORD	n/a	wordpools/wordpool_categorized_EN.txt	DRILL	Tools	9	9	[0, 0, 0]	n/a	catFR1	2	R1157C
945.536	2.484	475291	WORD	n/a	wordpools/wordpool_categorized_EN.txt	SANDER	Tools	10	9	[0, 0, 0]	n/a	catFR1	2	R1157C
948.02	2.433	476533	WORD	n/a	wordpools/wordpool_categorized_EN.txt	WILLOW	Trees	11	9	[0, 0, 0]	n/a	catFR1	2	R1157C
950.453	1.601	477749	WORD	n/a	wordpools/wordpool_categorized_EN.txt	OAK	Trees	12	9	[0, 0, 0]	n/a	catFR1	2	R1157C
952.054	0.001	478550	DISTRACT_START	n/a	n/a	n/a	n/a	-999	9	[0, 0, 0]	n/a	catFR1	2	R1157C
952.055	0.016	478550	START	n/a	n/a	n/a	n/a	-999	9	[-999, -999, -999]	n/a	catFR1	2	R1157C
952.071	7.035	478558	PROB	7.001	n/a	n/a	n/a	-999	9	[8, 5, 9]	22.0	catFR1	2	R1157C
959.106	2.283	482075	PROB	2.261	n/a	n/a	n/a	-999	9	[2, 1, 6]	9.0	catFR1	2	R1157C
961.389	7.802	483217	PROB	7.779	n/a	n/a	n/a	-999	9	[5, 3, 7]	15.0	catFR1	2	R1157C
969.191	3.577	487118	PROB	3.577	n/a	n/a	n/a	-999	9	[6, 6, 6]	18.0	catFR1	2	R1157C
972.768	0.007	488906	STOP	n/a	n/a	n/a	n/a	-999	9	[-999, -999, -999]	n/a	catFR1	2	R1157C
972.775	1.134	488909	DISTRACT_END	n/a	n/a	n/a	n/a	-999	9	[0, 0, 0]	n/a	catFR1	2	R1157C
973.909	1.577	489476	REC_START	n/a	n/a	n/a	n/a	-999	9	[0, 0, 0]	n/a	catFR1	2	R1157C
975.486	0.868	490265	REC_WORD	1.577	n/a	FLUTE	Instruments	1	9	[0, 0, 0]	n/a	catFR1	2	R1157C
976.354	27.568	490699	REC_WORD	2.445	n/a	TUBA	Instruments	2	9	[0, 0, 0]	n/a	catFR1	2	R1157C
1003.922	1.943	504482	REC_END	n/a	n/a	n/a	n/a	-999	9	[0, 0, 0]	n/a	catFR1	2	R1157C
1005.865	0.0	505453	TRIAL	n/a	n/a	n/a	n/a	-999	10	[0, 0, 0]	n/a	catFR1	2	R1157C
1005.865	10.428	505453	COUNTDOWN_START	n/a	n/a	n/a	n/a	-999	10	[0, 0, 0]	n/a	catFR1	2	R1157C
1016.293	0.006	510667	COUNTDOWN_END	n/a	n/a	n/a	n/a	-999	10	[0, 0, 0]	n/a	catFR1	2	R1157C
1016.299	3.485	510670	ORIENT	n/a	n/a	n/a	n/a	-999	10	[0, 0, 0]	n/a	catFR1	2	R1157C
1019.784	2.533	512412	WORD	n/a	wordpools/wordpool_categorized_EN.txt	FORK	KitchenTools	1	10	[0, 0, 0]	n/a	catFR1	2	R1157C
1022.317	2.367	513678	WORD	n/a	wordpools/wordpool_categorized_EN.txt	SPOON	KitchenTools	2	10	[0, 0, 0]	n/a	catFR1	2	R1157C
1024.684	2.401	514862	WORD	n/a	wordpools/wordpool_categorized_EN.txt	GRAPE	Fruit	3	10	[0, 0, 0]	n/a	catFR1	2	R1157C
1027.085	2.5	516062	WORD	n/a	wordpools/wordpool_categorized_EN.txt	PEACH	Fruit	4	10	[0, 0, 0]	n/a	catFR1	2	R1157C
1029.585	2.468	517312	WORD	n/a	wordpools/wordpool_categorized_EN.txt	DISHWASHER	Appliances	5	10	[0, 0, 0]	n/a	catFR1	2	R1157C
1032.053	2.583	518546	WORD	n/a	wordpools/wordpool_categorized_EN.txt	VACUUM	Appliances	6	10	[0, 0, 0]	n/a	catFR1	2	R1157C
1034.636	2.602	519837	WORD	n/a	wordpools/wordpool_categorized_EN.txt	LIME	Fruit	7	10	[0, 0, 0]	n/a	catFR1	2	R1157C
1037.238	2.517	521138	WORD	n/a	wordpools/wordpool_categorized_EN.txt	PEAR	Fruit	8	10	[0, 0, 0]	n/a	catFR1	2	R1157C
1039.755	2.549	522396	WORD	n/a	wordpools/wordpool_categorized_EN.txt	COLANDER	KitchenTools	9	10	[0, 0, 0]	n/a	catFR1	2	R1157C
1042.304	2.502	523671	WORD	n/a	wordpools/wordpool_categorized_EN.txt	TONGS	KitchenTools	10	10	[0, 0, 0]	n/a	catFR1	2	R1157C
1044.806	2.599	524922	WORD	n/a	wordpools/wordpool_categorized_EN.txt	DRYER	Appliances	11	10	[0, 0, 0]	n/a	catFR1	2	R1157C
1047.405	1.601	526221	WORD	n/a	wordpools/wordpool_categorized_EN.txt	OVEN	Appliances	12	10	[0, 0, 0]	n/a	catFR1	2	R1157C
1049.006	0.001	527022	DISTRACT_START	n/a	n/a	n/a	n/a	-999	10	[0, 0, 0]	n/a	catFR1	2	R1157C
1049.007	0.016	527022	START	n/a	n/a	n/a	n/a	-999	10	[-999, -999, -999]	n/a	catFR1	2	R1157C
1049.023	3.583	527030	PROB	3.552	n/a	n/a	n/a	-999	10	[6, 6, 1]	13.0	catFR1	2	R1157C
1052.606	3.102	528821	PROB	3.073	n/a	n/a	n/a	-999	10	[6, 8, 4]	18.0	catFR1	2	R1157C
1055.708	2.616	530372	PROB	2.595	n/a	n/a	n/a	-999	10	[7, 2, 4]	13.0	catFR1	2	R1157C
1058.324	2.167	531680	PROB	2.147	n/a	n/a	n/a	-999	10	[3, 1, 4]	8.0	catFR1	2	R1157C
1060.491	1.984	532764	PROB	1.948	n/a	n/a	n/a	-999	10	[5, 1, 2]	8.0	catFR1	2	R1157C
1062.475	2.668	533756	PROB	2.645	n/a	n/a	n/a	-999	10	[5, 7, 4]	16.0	catFR1	2	R1157C
1065.143	2.516	535089	PROB	2.496	n/a	n/a	n/a	-999	10	[3, 9, 4]	16.0	catFR1	2	R1157C
1067.659	2.836	536347	PROB	2.836	n/a	n/a	n/a	-999	10	[8, 8, 3]	19.0	catFR1	2	R1157C
1070.495	0.015	537765	STOP	n/a	n/a	n/a	n/a	-999	10	[-999, -999, -999]	n/a	catFR1	2	R1157C
1070.51	1.134	537773	DISTRACT_END	n/a	n/a	n/a	n/a	-999	10	[0, 0, 0]	n/a	catFR1	2	R1157C
1071.644	21.328	538340	REC_START	n/a	n/a	n/a	n/a	-999	10	[0, 0, 0]	n/a	catFR1	2	R1157C
1092.972	0.254	549003	REC_WORD	21.328	n/a	FORK	KitchenTools	1	10	[0, 0, 0]	n/a	catFR1	2	R1157C
1093.226	4.654	549130	REC_WORD	21.582	n/a	SPOON	KitchenTools	2	10	[0, 0, 0]	n/a	catFR1	2	R1157C
1097.88	1.429	551456	REC_WORD	26.236	n/a	OVEN	Appliances	12	10	[0, 0, 0]	n/a	catFR1	2	R1157C
1099.309	2.344	552171	REC_WORD	27.665	n/a	DRYER	Appliances	11	10	[0, 0, 0]	n/a	catFR1	2	R1157C
1101.653	2.314	553343	REC_END	n/a	n/a	n/a	n/a	-999	10	[0, 0, 0]	n/a	catFR1	2	R1157C
1103.967	0.0	554500	TRIAL	n/a	n/a	n/a	n/a	-999	11	[0, 0, 0]	n/a	catFR1	2	R1157C
1103.967	10.428	554500	COUNTDOWN_START	n/a	n/a	n/a	n/a	-999	11	[0, 0, 0]	n/a	catFR1	2	R1157C
1114.395	0.006	559713	COUNTDOWN_END	n/a	n/a	n/a	n/a	-999	11	[0, 0, 0]	n/a	catFR1	2	R1157C
1114.401	3.535	559716	ORIENT	n/a	n/a	n/a	n/a	-999	11	[0, 0, 0]	n/a	catFR1	2	R1157C
1117.936	2.533	561484	WORD	n/a	wordpools/wordpool_categorized_EN.txt	PUZZLE	Toys	1	11	[0, 0, 0]	n/a	catFR1	2	R1157C
1120.469	2.585	562750	WORD	n/a	wordpools/wordpool_categorized_EN.txt	FRISBEE	Toys	2	11	[0, 0, 0]	n/a	catFR1	2	R1157C
1123.054	2.599	564042	WORD	n/a	wordpools/wordpool_categorized_EN.txt	PANDA	Zoo	3	11	[0, 0, 0]	n/a	catFR1	2	R1157C
1125.653	2.502	565342	WORD	n/a	wordpools/wordpool_categorized_EN.txt	GORILLA	Zoo	4	11	[0, 0, 0]	n/a	catFR1	2	R1157C
1128.155	2.416	566593	WORD	n/a	wordpools/wordpool_categorized_EN.txt	TABLET	Electronics	5	11	[0, 0, 0]	n/a	catFR1	2	R1157C
1130.571	2.518	567801	WORD	n/a	wordpools/wordpool_categorized_EN.txt	CALCULATOR	Electronics	6	11	[0, 0, 0]	n/a	catFR1	2	R1157C
1133.089	2.383	569059	WORD	n/a	wordpools/wordpool_categorized_EN.txt	CHEETAH	Zoo	7	11	[0, 0, 0]	n/a	catFR1	2	R1157C
1135.472	2.451	570251	WORD	n/a	wordpools/wordpool_categorized_EN.txt	ZEBRA	Zoo	8	11	[0, 0, 0]	n/a	catFR1	2	R1157C
1137.923	2.483	571476	WORD	n/a	wordpools/wordpool_categorized_EN.txt	BARBIE	Toys	9	11	[0, 0, 0]	n/a	catFR1	2	R1157C
1140.406	2.469	572718	WORD	n/a	wordpools/wordpool_categorized_EN.txt	BALL	Toys	10	11	[0, 0, 0]	n/a	catFR1	2	R1157C
1142.875	2.549	573952	WORD	n/a	wordpools/wordpool_categorized_EN.txt	PRINTER	Electronics	11	11	[0, 0, 0]	n/a	catFR1	2	R1157C
1145.424	1.601	575226	WORD	n/a	wordpools/wordpool_categorized_EN.txt	TELEVISION	Electronics	12	11	[0, 0, 0]	n/a	catFR1	2	R1157C
1147.025	0.001	576027	DISTRACT_START	n/a	n/a	n/a	n/a	-999	11	[0, 0, 0]	n/a	catFR1	2	R1157C
1147.026	0.016	576027	START	n/a	n/a	n/a	n/a	-999	11	[-999, -999, -999]	n/a	catFR1	2	R1157C
1147.042	3.167	576035	PROB	3.142	n/a	n/a	n/a	-999	11	[6, 4, 5]	15.0	catFR1	2	R1157C
1150.209	3.901	577619	PROB	3.871	n/a	n/a	n/a	-999	11	[5, 9, 7]	21.0	catFR1	2	R1157C
1154.11	4.533	579569	PROB	4.505	n/a	n/a	n/a	-999	11	[7, 6, 6]	21.0	catFR1	2	R1157C
1158.643	6.469	581835	PROB	6.437	n/a	n/a	n/a	-999	11	[1, 8, 8]	17.0	catFR1	2	R1157C
1165.112	2.848	585070	PROB	2.848	n/a	n/a	n/a	-999	11	[6, 4, 6]	16.0	catFR1	2	R1157C
1167.96	0.002	586493	STOP	n/a	n/a	n/a	n/a	-999	11	[-999, -999, -999]	n/a	catFR1	2	R1157C
1167.962	1.018	586494	DISTRACT_END	n/a	n/a	n/a	n/a	-999	11	[0, 0, 0]	n/a	catFR1	2	R1157C
1168.98	2.998	587003	REC_START	n/a	n/a	n/a	n/a	-999	11	[0, 0, 0]	n/a	catFR1	2	R1157C
1171.978	0.922	588502	REC_WORD	2.998	n/a	FRISBEE	Toys	2	11	[0, 0, 0]	n/a	catFR1	2	R1157C
1172.9	0.846	588963	REC_WORD	3.92	n/a	PUZZLE	Toys	1	11	[0, 0, 0]	n/a	catFR1	2	R1157C
1173.746	2.558	589386	REC_WORD	4.766	n/a	CHEETAH	Zoo	7	11	[0, 0, 0]	n/a	catFR1	2	R1157C
1176.304	22.686	590665	REC_WORD	7.324	n/a	ZEBRA	Zoo	8	11	[0, 0, 0]	n/a	catFR1	2	R1157C
1198.99	1.879	602007	REC_END	n/a	n/a	n/a	n/a	-999	11	[0, 0, 0]	n/a	catFR1	2	R1157C
1200.869	0.0	602947	TRIAL	n/a	n/a	n/a	n/a	-999	12	[0, 0, 0]	n/a	catFR1	2	R1157C
1200.869	10.428	602947	COUNTDOWN_START	n/a	n/a	n/a	n/a	-999	12	[0, 0, 0]	n/a	catFR1	2	R1157C
1211.297	0.006	608160	COUNTDOWN_END	n/a	n/a	n/a	n/a	-999	12	[0, 0, 0]	n/a	catFR1	2	R1157C
1211.303	3.485	608163	ORIENT	n/a	n/a	n/a	n/a	-999	12	[0, 0, 0]	n/a	catFR1	2	R1157C
1214.788	2.6	609905	WORD	n/a	wordpools/wordpool_categorized_EN.txt	TORNADO	Weather	1	12	[0, 0, 0]	n/a	catFR1	2	R1157C
1217.388	2.618	611205	WORD	n/a	wordpools/wordpool_categorized_EN.txt	HUMIDITY	Weather	2	12	[0, 0, 0]	n/a	catFR1	2	R1157C
1220.006	2.516	612514	WORD	n/a	wordpools/wordpool_categorized_EN.txt	ORGAN	Instruments	3	12	[0, 0, 0]	n/a	catFR1	2	R1157C
1222.522	2.402	613772	WORD	n/a	wordpools/wordpool_categorized_EN.txt	TROMBONE	Instruments	4	12	[0, 0, 0]	n/a	catFR1	2	R1157C
1224.924	2.599	614973	WORD	n/a	wordpools/wordpool_categorized_EN.txt	LILAC	Flowers	5	12	[0, 0, 0]	n/a	catFR1	2	R1157C
1227.523	2.435	616272	WORD	n/a	wordpools/wordpool_categorized_EN.txt	SUNFLOWER	Flowers	6	12	[0, 0, 0]	n/a	catFR1	2	R1157C
1229.958	2.583	617490	WORD	n/a	wordpools/wordpool_categorized_EN.txt	BANJO	Instruments	7	12	[0, 0, 0]	n/a	catFR1	2	R1157C
1232.541	2.618	618781	WORD	n/a	wordpools/wordpool_categorized_EN.txt	BASS	Instruments	8	12	[0, 0, 0]	n/a	catFR1	2	R1157C
1235.159	2.449	620090	WORD	n/a	wordpools/wordpool_categorized_EN.txt	THUNDER	Weather	9	12	[0, 0, 0]	n/a	catFR1	2	R1157C
1237.608	2.518	621314	WORD	n/a	wordpools/wordpool_categorized_EN.txt	FOG	Weather	10	12	[0, 0, 0]	n/a	catFR1	2	R1157C
1240.126	2.45	622573	WORD	n/a	wordpools/wordpool_categorized_EN.txt	LILY	Flowers	11	12	[0, 0, 0]	n/a	catFR1	2	R1157C
1242.576	1.601	623798	WORD	n/a	wordpools/wordpool_categorized_EN.txt	ORCHID	Flowers	12	12	[0, 0, 0]	n/a	catFR1	2	R1157C
1244.177	0.0	624599	DISTRACT_START	n/a	n/a	n/a	n/a	-999	12	[0, 0, 0]	n/a	catFR1	2	R1157C
1244.177	0.017	624599	START	n/a	n/a	n/a	n/a	-999	12	[-999, -999, -999]	n/a	catFR1	2	R1157C
1244.194	2.934	624607	PROB	2.91	n/a	n/a	n/a	-999	12	[1, 7, 8]	16.0	catFR1	2	R1157C
1247.128	2.133	626074	PROB	2.112	n/a	n/a	n/a	-999	12	[3, 8, 2]	13.0	catFR1	2	R1157C
1249.261	2.818	627140	PROB	2.787	n/a	n/a	n/a	-999	12	[9, 7, 3]	19.0	catFR1	2	R1157C
1252.079	2.599	628549	PROB	2.576	n/a	n/a	n/a	-999	12	[2, 5, 5]	12.0	catFR1	2	R1157C
1254.678	3.734	629849	PROB	3.713	n/a	n/a	n/a	-999	12	[6, 7, 3]	16.0	catFR1	2	R1157C
1258.412	4.469	631716	PROB	4.444	n/a	n/a	n/a	-999	12	[4, 5, 6]	15.0	catFR1	2	R1157C
1262.881	3.239	633950	PROB	3.239	n/a	n/a	n/a	-999	12	[8, 5, 8]	21.0	catFR1	2	R1157C
1266.12	0.011	635569	STOP	n/a	n/a	n/a	n/a	-999	12	[-999, -999, -999]	n/a	catFR1	2	R1157C
1266.131	1.134	635575	DISTRACT_END	n/a	n/a	n/a	n/a	-999	12	[0, 0, 0]	n/a	catFR1	2	R1157C
1267.265	1.266	636142	REC_START	n/a	n/a	n/a	n/a	-999	12	[0, 0, 0]	n/a	catFR1	2	R1157C
1268.531	2.946	636775	REC_WORD	1.266	n/a	TORNADO	Weather	1	12	[0, 0, 0]	n/a	catFR1	2	R1157C
1271.477	0.688	638248	REC_WORD	4.212	n/a	HUMIDITY	Weather	2	12	[0, 0, 0]	n/a	catFR1	2	R1157C
1272.165	6.183	638592	REC_WORD	4.9	n/a	FOG	Weather	10	12	[0, 0, 0]	n/a	catFR1	2	R1157C
1278.348	0.878	641683	REC_WORD_VV	11.083	n/a	<>	n/a	-999	12	[0, 0, 0]	n/a	catFR1	2	R1157C
1279.226	13.55	642122	REC_WORD	11.961	n/a	SUNFLOWER	Flowers	6	12	[0, 0, 0]	n/a	catFR1	2	R1157C
1292.776	1.032	648896	REC_WORD	25.511	n/a	BASS	Instruments	8	12	[0, 0, 0]	n/a	catFR1	2	R1157C
1293.808	3.47	649412	REC_WORD	26.543	n/a	BANJO	Instruments	7	12	[0, 0, 0]	n/a	catFR1	2	R1157C
1297.278	1.643	651147	REC_END	n/a	n/a	n/a	n/a	-999	12	[0, 0, 0]	n/a	catFR1	2	R1157C
1298.921	0.0	651968	TRIAL	n/a	n/a	n/a	n/a	-999	13	[0, 0, 0]	n/a	catFR1	2	R1157C
1298.921	10.428	651968	COUNTDOWN_START	n/a	n/a	n/a	n/a	-999	13	[0, 0, 0]	n/a	catFR1	2	R1157C
1309.349	0.006	657182	COUNTDOWN_END	n/a	n/a	n/a	n/a	-999	13	[0, 0, 0]	n/a	catFR1	2	R1157C
1309.355	3.869	657185	ORIENT	n/a	n/a	n/a	n/a	-999	13	[0, 0, 0]	n/a	catFR1	2	R1157C
1313.224	2.383	659119	WORD	n/a	wordpools/wordpool_categorized_EN.txt	BLUEBIRD	Birds	1	13	[0, 0, 0]	n/a	catFR1	2	R1157C
1315.607	2.418	660311	WORD	n/a	wordpools/wordpool_categorized_EN.txt	ROBIN	Birds	2	13	[0, 0, 0]	n/a	catFR1	2	R1157C
1318.025	2.466	661520	WORD	n/a	wordpools/wordpool_categorized_EN.txt	BLOUSE	Clothing	3	13	[0, 0, 0]	n/a	catFR1	2	R1157C
1320.491	2.601	662752	WORD	n/a	wordpools/wordpool_categorized_EN.txt	DRESS	Clothing	4	13	[0, 0, 0]	n/a	catFR1	2	R1157C
1323.092	2.45	664053	WORD	n/a	wordpools/wordpool_categorized_EN.txt	WINE	Beverages	5	13	[0, 0, 0]	n/a	catFR1	2	R1157C
1325.542	2.468	665278	WORD	n/a	wordpools/wordpool_categorized_EN.txt	COFFEE	Beverages	6	13	[0, 0, 0]	n/a	catFR1	2	R1157C
1328.01	2.599	666512	WORD	n/a	wordpools/wordpool_categorized_EN.txt	HAWK	Birds	7	13	[0, 0, 0]	n/a	catFR1	2	R1157C
1330.609	2.485	667811	WORD	n/a	wordpools/wordpool_categorized_EN.txt	CROW	Birds	8	13	[0, 0, 0]	n/a	catFR1	2	R1157C
1333.094	2.566	669053	WORD	n/a	wordpools/wordpool_categorized_EN.txt	TEA	Beverages	9	13	[0, 0, 0]	n/a	catFR1	2	R1157C
1335.66	2.469	670336	WORD	n/a	wordpools/wordpool_categorized_EN.txt	WATER	Beverages	10	13	[0, 0, 0]	n/a	catFR1	2	R1157C
1338.129	2.6	671571	WORD	n/a	wordpools/wordpool_categorized_EN.txt	SHORTS	Clothing	11	13	[0, 0, 0]	n/a	catFR1	2	R1157C
1340.729	1.616	672871	WORD	n/a	wordpools/wordpool_categorized_EN.txt	UNDERWEAR	Clothing	12	13	[0, 0, 0]	n/a	catFR1	2	R1157C
1342.345	0.001	673678	DISTRACT_START	n/a	n/a	n/a	n/a	-999	13	[0, 0, 0]	n/a	catFR1	2	R1157C
1342.346	0.016	673679	START	n/a	n/a	n/a	n/a	-999	13	[-999, -999, -999]	n/a	catFR1	2	R1157C
1342.362	2.668	673687	PROB	2.646	n/a	n/a	n/a	-999	13	[2, 3, 4]	9.0	catFR1	2	R1157C
1345.03	3.684	675021	PROB	3.657	n/a	n/a	n/a	-999	13	[9, 5, 8]	22.0	catFR1	2	R1157C
1348.714	3.95	676863	PROB	3.925	n/a	n/a	n/a	-999	13	[9, 6, 5]	20.0	catFR1	2	R1157C
1352.664	1.717	678838	PROB	1.695	n/a	n/a	n/a	-999	13	[7, 2, 3]	12.0	catFR1	2	R1157C
1354.381	6.267	679696	PROB	6.242	n/a	n/a	n/a	-999	13	[5, 9, 4]	18.0	catFR1	2	R1157C
1360.648	2.52	682829	PROB	2.52	n/a	n/a	n/a	-999	13	[2, 8, 6]	16.0	catFR1	2	R1157C
1363.168	0.015	684089	STOP	n/a	n/a	n/a	n/a	-999	13	[-999, -999, -999]	n/a	catFR1	2	R1157C
1363.183	1.068	684097	DISTRACT_END	n/a	n/a	n/a	n/a	-999	13	[0, 0, 0]	n/a	catFR1	2	R1157C
1364.251	21.331	684631	REC_START	n/a	n/a	n/a	n/a	-999	13	[0, 0, 0]	n/a	catFR1	2	R1157C
1385.582	1.136	695295	REC_WORD	21.331	n/a	BLUEBIRD	Birds	1	13	[0, 0, 0]	n/a	catFR1	2	R1157C
1386.718	3.505	695863	REC_WORD	22.467	n/a	CROW	Birds	8	13	[0, 0, 0]	n/a	catFR1	2	R1157C
1390.223	1.245	697615	REC_WORD	25.972	n/a	WINE	Beverages	5	13	[0, 0, 0]	n/a	catFR1	2	R1157C
1391.468	0.471	698238	REC_WORD	27.217	n/a	COFFEE	Beverages	6	13	[0, 0, 0]	n/a	catFR1	2	R1157C
1391.939	2.32	698473	REC_WORD	27.688	n/a	TEA	Beverages	9	13	[0, 0, 0]	n/a	catFR1	2	R1157C
1394.259	1.48	699633	REC_END	n/a	n/a	n/a	n/a	-999	13	[0, 0, 0]	n/a	catFR1	2	R1157C
1395.739	0.0	700373	TRIAL	n/a	n/a	n/a	n/a	-999	14	[0, 0, 0]	n/a	catFR1	2	R1157C
1395.739	10.428	700373	COUNTDOWN_START	n/a	n/a	n/a	n/a	-999	14	[0, 0, 0]	n/a	catFR1	2	R1157C
1406.167	0.008	705587	COUNTDOWN_END	n/a	n/a	n/a	n/a	-999	14	[0, 0, 0]	n/a	catFR1	2	R1157C
1406.175	3.551	705591	ORIENT	n/a	n/a	n/a	n/a	-999	14	[0, 0, 0]	n/a	catFR1	2	R1157C
1409.726	2.566	707366	WORD	n/a	wordpools/wordpool_categorized_EN.txt	LAMB	FarmAnimals	1	14	[0, 0, 0]	n/a	catFR1	2	R1157C
1412.292	2.367	708649	WORD	n/a	wordpools/wordpool_categorized_EN.txt	HEN	FarmAnimals	2	14	[0, 0, 0]	n/a	catFR1	2	R1157C
1414.659	2.468	709832	WORD	n/a	wordpools/wordpool_categorized_EN.txt	CABINET	Furniture	3	14	[0, 0, 0]	n/a	catFR1	2	R1157C
1417.127	2.567	711066	WORD	n/a	wordpools/wordpool_categorized_EN.txt	RECLINER	Furniture	4	14	[0, 0, 0]	n/a	catFR1	2	R1157C
1419.694	2.6	712350	WORD	n/a	wordpools/wordpool_categorized_EN.txt	DOLLHOUSE	Toys	5	14	[0, 0, 0]	n/a	catFR1	2	R1157C
1422.294	2.618	713650	WORD	n/a	wordpools/wordpool_categorized_EN.txt	BASEBALL	Toys	6	14	[0, 0, 0]	n/a	catFR1	2	R1157C
1424.912	2.516	714958	WORD	n/a	wordpools/wordpool_categorized_EN.txt	DRESSER	Furniture	7	14	[0, 0, 0]	n/a	catFR1	2	R1157C
1427.428	2.401	716216	WORD	n/a	wordpools/wordpool_categorized_EN.txt	NIGHTSTAND	Furniture	8	14	[0, 0, 0]	n/a	catFR1	2	R1157C
1429.829	2.6	717417	WORD	n/a	wordpools/wordpool_categorized_EN.txt	TURKEY	FarmAnimals	9	14	[0, 0, 0]	n/a	catFR1	2	R1157C
1432.429	2.585	718717	WORD	n/a	wordpools/wordpool_categorized_EN.txt	CALF	FarmAnimals	10	14	[0, 0, 0]	n/a	catFR1	2	R1157C
1435.014	2.432	720009	WORD	n/a	wordpools/wordpool_categorized_EN.txt	BASKETBALL	Toys	11	14	[0, 0, 0]	n/a	catFR1	2	R1157C
1437.446	1.602	721225	WORD	n/a	wordpools/wordpool_categorized_EN.txt	BLOCKS	Toys	12	14	[0, 0, 0]	n/a	catFR1	2	R1157C
1439.048	0.0	722026	DISTRACT_START	n/a	n/a	n/a	n/a	-999	14	[0, 0, 0]	n/a	catFR1	2	R1157C
1439.048	0.016	722026	START	n/a	n/a	n/a	n/a	-999	14	[-999, -999, -999]	n/a	catFR1	2	R1157C
1439.064	4.001	722034	PROB	3.976	n/a	n/a	n/a	-999	14	[3, 6, 6]	15.0	catFR1	2	R1157C
1443.065	3.984	724034	PROB	3.951	n/a	n/a	n/a	-999	14	[4, 3, 6]	13.0	catFR1	2	R1157C
1447.049	2.3	726026	PROB	2.27	n/a	n/a	n/a	-999	14	[1, 3, 9]	13.0	catFR1	2	R1157C
1449.349	3.502	727176	PROB	3.475	n/a	n/a	n/a	-999	14	[7, 6, 4]	17.0	catFR1	2	R1157C
1452.851	2.516	728927	PROB	2.484	n/a	n/a	n/a	-999	14	[1, 7, 5]	13.0	catFR1	2	R1157C
1455.367	2.917	730185	PROB	2.897	n/a	n/a	n/a	-999	14	[1, 9, 6]	16.0	catFR1	2	R1157C
1458.284	2.94	731643	PROB	2.94	n/a	n/a	n/a	-999	14	[4, 5, 6]	15.0	catFR1	2	R1157C
1461.224	0.011	733113	STOP	n/a	n/a	n/a	n/a	-999	14	[-999, -999, -999]	n/a	catFR1	2	R1157C
1461.235	1.183	733118	DISTRACT_END	n/a	n/a	n/a	n/a	-999	14	[0, 0, 0]	n/a	catFR1	2	R1157C
1462.418	30.0	733710	REC_START	n/a	n/a	n/a	n/a	-999	14	[0, 0, 0]	n/a	catFR1	2	R1157C
1492.418	0.01	748709	REC_WORD_VV	30.0	n/a	<>	n/a	-999	14	[0, 0, 0]	n/a	catFR1	2	R1157C
1492.428	2.797	748714	REC_END	n/a	n/a	n/a	n/a	-999	14	[0, 0, 0]	n/a	catFR1	2	R1157C
1495.225	0.0	750112	COUNTDOWN_START	n/a	n/a	n/a	n/a	-999	15	[0, 0, 0]	n/a	catFR1	2	R1157C
1495.225	10.428	750112	TRIAL	n/a	n/a	n/a	n/a	-999	15	[0, 0, 0]	n/a	catFR1	2	R1157C
1505.653	0.007	755325	COUNTDOWN_END	n/a	n/a	n/a	n/a	-999	15	[0, 0, 0]	n/a	catFR1	2	R1157C
1505.66	3.8	755329	ORIENT	n/a	n/a	n/a	n/a	-999	15	[0, 0, 0]	n/a	catFR1	2	R1157C
1509.46	2.502	757229	WORD	n/a	wordpools/wordpool_categorized_EN.txt	BROCCOLI	Vegetables	1	15	[0, 0, 0]	n/a	catFR1	2	R1157C
1511.962	2.583	758480	WORD	n/a	wordpools/wordpool_categorized_EN.txt	ONION	Vegetables	2	15	[0, 0, 0]	n/a	catFR1	2	R1157C
1514.545	2.418	759771	WORD	n/a	wordpools/wordpool_categorized_EN.txt	STOVE	Appliances	3	15	[0, 0, 0]	n/a	catFR1	2	R1157C
1516.963	2.516	760980	WORD	n/a	wordpools/wordpool_categorized_EN.txt	BLENDER	Appliances	4	15	[0, 0, 0]	n/a	catFR1	2	R1157C
1519.479	2.518	762238	WORD	n/a	wordpools/wordpool_categorized_EN.txt	MOTH	Insects	5	15	[0, 0, 0]	n/a	catFR1	2	R1157C
1521.997	2.45	763497	WORD	n/a	wordpools/wordpool_categorized_EN.txt	LADYBUG	Insects	6	15	[0, 0, 0]	n/a	catFR1	2	R1157C
1524.447	2.568	764722	WORD	n/a	wordpools/wordpool_categorized_EN.txt	FREEZER	Appliances	7	15	[0, 0, 0]	n/a	catFR1	2	R1157C
1527.015	2.566	766006	WORD	n/a	wordpools/wordpool_categorized_EN.txt	WASHER	Appliances	8	15	[0, 0, 0]	n/a	catFR1	2	R1157C
1529.581	2.385	767288	WORD	n/a	wordpools/wordpool_categorized_EN.txt	CABBAGE	Vegetables	9	15	[0, 0, 0]	n/a	catFR1	2	R1157C
1531.966	2.482	768481	WORD	n/a	wordpools/wordpool_categorized_EN.txt	PEAS	Vegetables	10	15	[0, 0, 0]	n/a	catFR1	2	R1157C
1534.448	2.435	769722	WORD	n/a	wordpools/wordpool_categorized_EN.txt	ANT	Insects	11	15	[0, 0, 0]	n/a	catFR1	2	R1157C
1536.883	1.616	770939	WORD	n/a	wordpools/wordpool_categorized_EN.txt	ROACH	Insects	12	15	[0, 0, 0]	n/a	catFR1	2	R1157C
1538.499	0.001	771747	DISTRACT_START	n/a	n/a	n/a	n/a	-999	15	[0, 0, 0]	n/a	catFR1	2	R1157C
1538.5	0.016	771748	START	n/a	n/a	n/a	n/a	-999	15	[-999, -999, -999]	n/a	catFR1	2	R1157C
1538.516	3.452	771756	PROB	3.428	n/a	n/a	n/a	-999	15	[8, 5, 3]	16.0	catFR1	2	R1157C
1541.968	2.566	773481	PROB	2.535	n/a	n/a	n/a	-999	15	[7, 8, 5]	20.0	catFR1	2	R1157C
1544.534	2.618	774764	PROB	2.586	n/a	n/a	n/a	-999	15	[9, 9, 5]	23.0	catFR1	2	R1157C
1547.152	3.834	776073	PROB	3.8	n/a	n/a	n/a	-999	15	[4, 2, 6]	12.0	catFR1	2	R1157C
1550.986	6.801	777990	PROB	6.766	n/a	n/a	n/a	-999	15	[5, 9, 5]	19.0	catFR1	2	R1157C
1557.787	1.812	781390	PROB	1.812	n/a	n/a	n/a	-999	15	[3, 1, 9]	13.0	catFR1	2	R1157C
1559.599	0.004	782296	STOP	n/a	n/a	n/a	n/a	-999	15	[-999, -999, -999]	n/a	catFR1	2	R1157C
1559.603	1.185	782298	DISTRACT_END	n/a	n/a	n/a	n/a	-999	15	[0, 0, 0]	n/a	catFR1	2	R1157C
1560.788	0.543	782891	REC_START	n/a	n/a	n/a	n/a	-999	15	[0, 0, 0]	n/a	catFR1	2	R1157C
1561.331	0.427	783162	REC_WORD	0.543	n/a	BROCCOLI	Vegetables	1	15	[0, 0, 0]	n/a	catFR1	2	R1157C
1561.758	0.369	783376	REC_WORD	0.97	n/a	ONION	Vegetables	2	15	[0, 0, 0]	n/a	catFR1	2	R1157C
1562.127	1.656	783560	REC_WORD	1.339	n/a	STOVE	Appliances	3	15	[0, 0, 0]	n/a	catFR1	2	R1157C
1563.783	5.545	784388	REC_WORD	2.995	n/a	FREEZER	Appliances	7	15	[0, 0, 0]	n/a	catFR1	2	R1157C
1569.328	21.471	787160	REC_WORD	8.54	n/a	ANT	Insects	11	15	[0, 0, 0]	n/a	catFR1	2	R1157C
1590.799	1.61	797895	REC_END	n/a	n/a	n/a	n/a	-999	15	[0, 0, 0]	n/a	catFR1	2	R1157C
1592.409	0.001	798700	COUNTDOWN_START	n/a	n/a	n/a	n/a	-999	16	[0, 0, 0]	n/a	catFR1	2	R1157C
1592.41	10.427	798700	TRIAL	n/a	n/a	n/a	n/a	-999	16	[0, 0, 0]	n/a	catFR1	2	R1157C
1602.837	0.009	803913	COUNTDOWN_END	n/a	n/a	n/a	n/a	-999	16	[0, 0, 0]	n/a	catFR1	2	R1157C
1602.846	3.733	803918	ORIENT	n/a	n/a	n/a	n/a	-999	16	[0, 0, 0]	n/a	catFR1	2	R1157C
1606.579	2.601	805784	WORD	n/a	wordpools/wordpool_categorized_EN.txt	BIKE	Vehicles	1	16	[0, 0, 0]	n/a	catFR1	2	R1157C
1609.18	2.467	807085	WORD	n/a	wordpools/wordpool_categorized_EN.txt	VAN	Vehicles	2	16	[0, 0, 0]	n/a	catFR1	2	R1157C
1611.647	2.534	808318	WORD	n/a	wordpools/wordpool_categorized_EN.txt	TAPE	OfficeSupplies	3	16	[0, 0, 0]	n/a	catFR1	2	R1157C
1614.181	2.567	809585	WORD	n/a	wordpools/wordpool_categorized_EN.txt	MARKER	OfficeSupplies	4	16	[0, 0, 0]	n/a	catFR1	2	R1157C
1616.748	2.55	810868	WORD	n/a	wordpools/wordpool_categorized_EN.txt	PHONE	Electronics	5	16	[0, 0, 0]	n/a	catFR1	2	R1157C
1619.298	2.602	812143	WORD	n/a	wordpools/wordpool_categorized_EN.txt	STEREO	Electronics	6	16	[0, 0, 0]	n/a	catFR1	2	R1157C
1621.9	2.616	813444	WORD	n/a	wordpools/wordpool_categorized_EN.txt	TRUCK	Vehicles	7	16	[0, 0, 0]	n/a	catFR1	2	R1157C
1624.516	2.418	814752	WORD	n/a	wordpools/wordpool_categorized_EN.txt	BUS	Vehicles	8	16	[0, 0, 0]	n/a	catFR1	2	R1157C
1626.934	2.499	815961	WORD	n/a	wordpools/wordpool_categorized_EN.txt	MICROWAVE	Electronics	9	16	[0, 0, 0]	n/a	catFR1	2	R1157C
1629.433	2.402	817210	WORD	n/a	wordpools/wordpool_categorized_EN.txt	SCANNER	Electronics	10	16	[0, 0, 0]	n/a	catFR1	2	R1157C
1631.835	2.583	818411	WORD	n/a	wordpools/wordpool_categorized_EN.txt	PEN	OfficeSupplies	11	16	[0, 0, 0]	n/a	catFR1	2	R1157C
1634.418	1.618	819702	WORD	n/a	wordpools/wordpool_categorized_EN.txt	NOTEBOOK	OfficeSupplies	12	16	[0, 0, 0]	n/a	catFR1	2	R1157C
1636.036	0.0	820511	DISTRACT_START	n/a	n/a	n/a	n/a	-999	16	[0, 0, 0]	n/a	catFR1	2	R1157C
1636.036	0.016	820511	START	n/a	n/a	n/a	n/a	-999	16	[-999, -999, -999]	n/a	catFR1	2	R1157C
1636.052	3.101	820519	PROB	3.076	n/a	n/a	n/a	-999	16	[7, 7, 4]	18.0	catFR1	2	R1157C
1639.153	4.366	822070	PROB	4.342	n/a	n/a	n/a	-999	16	[5, 2, 8]	15.0	catFR1	2	R1157C
1643.519	1.817	824253	PROB	1.784	n/a	n/a	n/a	-999	16	[1, 2, 1]	4.0	catFR1	2	R1157C
1645.336	2.968	825161	PROB	2.936	n/a	n/a	n/a	-999	16	[2, 4, 3]	9.0	catFR1	2	R1157C
1648.304	3.685	826645	PROB	3.656	n/a	n/a	n/a	-999	16	[6, 8, 8]	22.0	catFR1	2	R1157C
1651.989	2.233	828487	PROB	2.203	n/a	n/a	n/a	-999	16	[3, 6, 2]	11.0	catFR1	2	R1157C
1654.222	3.882	829604	PROB	3.882	n/a	n/a	n/a	-999	16	[9, 5, 4]	18.0	catFR1	2	R1157C
1658.104	0.019	831544	STOP	n/a	n/a	n/a	n/a	-999	16	[-999, -999, -999]	n/a	catFR1	2	R1157C
1658.123	1.051	831554	DISTRACT_END	n/a	n/a	n/a	n/a	-999	16	[0, 0, 0]	n/a	catFR1	2	R1157C
1659.174	2.476	832079	REC_START	n/a	n/a	n/a	n/a	-999	16	[0, 0, 0]	n/a	catFR1	2	R1157C
1661.65	4.594	833317	REC_WORD	2.476	n/a	MICROWAVE	Electronics	9	16	[0, 0, 0]	n/a	catFR1	2	R1157C
1666.244	22.939	835614	REC_WORD	7.07	n/a	STEREO	Electronics	6	16	[0, 0, 0]	n/a	catFR1	2	R1157C
1689.183	1.362	847083	REC_END	n/a	n/a	n/a	n/a	-999	16	[0, 0, 0]	n/a	catFR1	2	R1157C
1690.545	0.0	847764	TRIAL	n/a	n/a	n/a	n/a	-999	17	[0, 0, 0]	n/a	catFR1	2	R1157C
1690.545	10.428	847764	COUNTDOWN_START	n/a	n/a	n/a	n/a	-999	17	[0, 0, 0]	n/a	catFR1	2	R1157C
1700.973	0.008	852977	COUNTDOWN_END	n/a	n/a	n/a	n/a	-999	17	[0, 0, 0]	n/a	catFR1	2	R1157C
1700.981	3.834	852981	ORIENT	n/a	n/a	n/a	n/a	-999	17	[0, 0, 0]	n/a	catFR1	2	R1157C
1704.815	2.567	854898	WORD	n/a	wordpools/wordpool_categorized_EN.txt	BEER	Beverages	1	17	[0, 0, 0]	n/a	catFR1	2	R1157C
1707.382	2.418	856181	WORD	n/a	wordpools/wordpool_categorized_EN.txt	MILK	Beverages	2	17	[0, 0, 0]	n/a	catFR1	2	R1157C
1709.8	2.483	857390	WORD	n/a	wordpools/wordpool_categorized_EN.txt	WALL	Building	3	17	[0, 0, 0]	n/a	catFR1	2	R1157C
1712.283	2.4	858632	WORD	n/a	wordpools/wordpool_categorized_EN.txt	BATHROOM	Building	4	17	[0, 0, 0]	n/a	catFR1	2	R1157C
1714.683	2.385	859832	WORD	n/a	wordpools/wordpool_categorized_EN.txt	REFRIGERATOR	Appliances	5	17	[0, 0, 0]	n/a	catFR1	2	R1157C
1717.068	2.566	861024	WORD	n/a	wordpools/wordpool_categorized_EN.txt	MIXER	Appliances	6	17	[0, 0, 0]	n/a	catFR1	2	R1157C
1719.634	2.501	862307	WORD	n/a	wordpools/wordpool_categorized_EN.txt	COLA	Beverages	7	17	[0, 0, 0]	n/a	catFR1	2	R1157C
1722.135	2.45	863557	WORD	n/a	wordpools/wordpool_categorized_EN.txt	JUICE	Beverages	8	17	[0, 0, 0]	n/a	catFR1	2	R1157C
1724.585	2.601	864782	WORD	n/a	wordpools/wordpool_categorized_EN.txt	TOASTER	Appliances	9	17	[0, 0, 0]	n/a	catFR1	2	R1157C
1727.186	2.534	866082	WORD	n/a	wordpools/wordpool_categorized_EN.txt	IRON	Appliances	10	17	[0, 0, 0]	n/a	catFR1	2	R1157C
1729.72	2.451	867349	WORD	n/a	wordpools/wordpool_categorized_EN.txt	FOUNDATION	Building	11	17	[0, 0, 0]	n/a	catFR1	2	R1157C
1732.171	1.617	868575	WORD	n/a	wordpools/wordpool_categorized_EN.txt	ROOF	Building	12	17	[0, 0, 0]	n/a	catFR1	2	R1157C
1733.788	0.0	869383	DISTRACT_START	n/a	n/a	n/a	n/a	-999	17	[0, 0, 0]	n/a	catFR1	2	R1157C
1733.788	0.016	869383	START	n/a	n/a	n/a	n/a	-999	17	[-999, -999, -999]	n/a	catFR1	2	R1157C
1733.804	2.7	869391	PROB	2.675	n/a	n/a	n/a	-999	17	[1, 3, 8]	12.0	catFR1	2	R1157C
1736.504	2.351	870741	PROB	2.328	n/a	n/a	n/a	-999	17	[4, 4, 5]	13.0	catFR1	2	R1157C
1738.855	2.184	871916	PROB	2.161	n/a	n/a	n/a	-999	17	[5, 2, 3]	10.0	catFR1	2	R1157C
1741.039	3.4	873008	PROB	3.368	n/a	n/a	n/a	-999	17	[2, 4, 2]	8.0	catFR1	2	R1157C
1744.439	2.167	874708	PROB	2.144	n/a	n/a	n/a	-999	17	[9, 1, 4]	14.0	catFR1	2	R1157C
1746.606	2.234	875792	PROB	2.202	n/a	n/a	n/a	-999	17	[1, 3, 9]	13.0	catFR1	2	R1157C
1748.84	2.234	876909	PROB	2.2	n/a	n/a	n/a	-999	17	[1, 3, 8]	12.0	catFR1	2	R1157C
1751.074	2.651	878025	PROB	2.63	n/a	n/a	n/a	-999	17	[7, 8, 7]	22.0	catFR1	2	R1157C
1753.725	2.219	879351	PROB	2.219	n/a	n/a	n/a	-999	17	[1, 3, 4]	8.0	catFR1	2	R1157C
1755.944	0.015	880460	STOP	n/a	n/a	n/a	n/a	-999	17	[-999, -999, -999]	n/a	catFR1	2	R1157C
1755.959	1.084	880468	DISTRACT_END	n/a	n/a	n/a	n/a	-999	17	[0, 0, 0]	n/a	catFR1	2	R1157C
1757.043	0.587	881010	REC_START	n/a	n/a	n/a	n/a	-999	17	[0, 0, 0]	n/a	catFR1	2	R1157C
1757.63	0.32	881303	REC_WORD	0.587	n/a	BEER	Beverages	1	17	[0, 0, 0]	n/a	catFR1	2	R1157C
1757.95	0.608	881463	REC_WORD	0.907	n/a	MILK	Beverages	2	17	[0, 0, 0]	n/a	catFR1	2	R1157C
1758.558	0.563	881767	REC_WORD	1.515	n/a	COLA	Beverages	7	17	[0, 0, 0]	n/a	catFR1	2	R1157C
1759.121	1.044	882049	REC_WORD	2.078	n/a	JUICE	Beverages	8	17	[0, 0, 0]	n/a	catFR1	2	R1157C
1760.165	26.888	882571	REC_WORD	3.122	n/a	REFRIGERATOR	Appliances	5	17	[0, 0, 0]	n/a	catFR1	2	R1157C
1787.053	2.029	896013	REC_END	n/a	n/a	n/a	n/a	-999	17	[0, 0, 0]	n/a	catFR1	2	R1157C
1789.082	0.0	897028	TRIAL	n/a	n/a	n/a	n/a	-999	18	[0, 0, 0]	n/a	catFR1	2	R1157C
1789.082	10.428	897028	COUNTDOWN_START	n/a	n/a	n/a	n/a	-999	18	[0, 0, 0]	n/a	catFR1	2	R1157C
1799.51	0.006	902241	COUNTDOWN_END	n/a	n/a	n/a	n/a	-999	18	[0, 0, 0]	n/a	catFR1	2	R1157C
1799.516	3.917	902244	ORIENT	n/a	n/a	n/a	n/a	-999	18	[0, 0, 0]	n/a	catFR1	2	R1157C
1803.433	2.418	904203	WORD	n/a	wordpools/wordpool_categorized_EN.txt	DESK	Furniture	1	18	[0, 0, 0]	n/a	catFR1	2	R1157C
1805.851	2.6	905412	WORD	n/a	wordpools/wordpool_categorized_EN.txt	CHAIR	Furniture	2	18	[0, 0, 0]	n/a	catFR1	2	R1157C
1808.451	2.518	906711	WORD	n/a	wordpools/wordpool_categorized_EN.txt	CAR	Vehicles	3	18	[0, 0, 0]	n/a	catFR1	2	R1157C
1810.969	2.5	907970	WORD	n/a	wordpools/wordpool_categorized_EN.txt	TRAIN	Vehicles	4	18	[0, 0, 0]	n/a	catFR1	2	R1157C
1813.469	2.401	909220	WORD	n/a	wordpools/wordpool_categorized_EN.txt	PLIERS	Tools	5	18	[0, 0, 0]	n/a	catFR1	2	R1157C
1815.87	2.384	910421	WORD	n/a	wordpools/wordpool_categorized_EN.txt	WRENCH	Tools	6	18	[0, 0, 0]	n/a	catFR1	2	R1157C
1818.254	2.383	911613	WORD	n/a	wordpools/wordpool_categorized_EN.txt	SCOOTER	Vehicles	7	18	[0, 0, 0]	n/a	catFR1	2	R1157C
1820.637	2.551	912804	WORD	n/a	wordpools/wordpool_categorized_EN.txt	PLANE	Vehicles	8	18	[0, 0, 0]	n/a	catFR1	2	R1157C
1823.188	2.399	914079	WORD	n/a	wordpools/wordpool_categorized_EN.txt	COUCH	Furniture	9	18	[0, 0, 0]	n/a	catFR1	2	R1157C
1825.587	2.385	915279	WORD	n/a	wordpools/wordpool_categorized_EN.txt	SHELF	Furniture	10	18	[0, 0, 0]	n/a	catFR1	2	R1157C
1827.972	2.45	916471	WORD	n/a	wordpools/wordpool_categorized_EN.txt	LEVEL	Tools	11	18	[0, 0, 0]	n/a	catFR1	2	R1157C
1830.422	1.618	917696	WORD	n/a	wordpools/wordpool_categorized_EN.txt	SAW	Tools	12	18	[0, 0, 0]	n/a	catFR1	2	R1157C
1832.04	0.0	918505	DISTRACT_START	n/a	n/a	n/a	n/a	-999	18	[0, 0, 0]	n/a	catFR1	2	R1157C
1832.04	0.016	918505	START	n/a	n/a	n/a	n/a	-999	18	[-999, -999, -999]	n/a	catFR1	2	R1157C
1832.056	3.651	918513	PROB	3.623	n/a	n/a	n/a	-999	18	[8, 3, 7]	18.0	catFR1	2	R1157C
1835.707	3.501	920338	PROB	3.469	n/a	n/a	n/a	-999	18	[5, 8, 5]	16.0	catFR1	2	R1157C
1839.208	3.099	922089	PROB	3.079	n/a	n/a	n/a	-999	18	[6, 8, 8]	22.0	catFR1	2	R1157C
1842.307	2.017	923638	PROB	1.996	n/a	n/a	n/a	-999	18	[2, 7, 1]	10.0	catFR1	2	R1157C
1844.324	2.952	924646	PROB	2.932	n/a	n/a	n/a	-999	18	[2, 5, 8]	15.0	catFR1	2	R1157C
1847.276	2.033	926122	PROB	2.004	n/a	n/a	n/a	-999	18	[2, 3, 4]	11.0	catFR1	2	R1157C
1849.309	4.435	927139	PROB	4.435	n/a	n/a	n/a	-999	18	[4, 7, 2]	13.0	catFR1	2	R1157C
1853.744	0.017	929356	STOP	n/a	n/a	n/a	n/a	-999	18	[-999, -999, -999]	n/a	catFR1	2	R1157C
1853.761	1.183	929365	DISTRACT_END	n/a	n/a	n/a	n/a	-999	18	[0, 0, 0]	n/a	catFR1	2	R1157C
1854.944	0.775	929956	REC_START	n/a	n/a	n/a	n/a	-999	18	[0, 0, 0]	n/a	catFR1	2	R1157C
1855.719	0.516	930343	REC_WORD	0.775	n/a	DESK	Furniture	1	18	[0, 0, 0]	n/a	catFR1	2	R1157C
1856.235	1.563	930601	REC_WORD	1.291	n/a	CHAIR	Furniture	2	18	[0, 0, 0]	n/a	catFR1	2	R1157C
1857.798	0.358	931383	REC_WORD	2.854	n/a	CAR	Vehicles	3	18	[0, 0, 0]	n/a	catFR1	2	R1157C
1858.156	3.421	931562	REC_WORD	3.212	n/a	SCOOTER	Vehicles	7	18	[0, 0, 0]	n/a	catFR1	2	R1157C
1861.577	7.926	933272	REC_WORD	6.633	n/a	LEVEL	Tools	11	18	[0, 0, 0]	n/a	catFR1	2	R1157C
1869.503	15.453	937235	REC_WORD	14.559	n/a	SAW	Tools	12	18	[0, 0, 0]	n/a	catFR1	2	R1157C
1884.956	1.577	944961	REC_END	n/a	n/a	n/a	n/a	-999	18	[0, 0, 0]	n/a	catFR1	2	R1157C
1886.533	0.0	945749	COUNTDOWN_START	n/a	n/a	n/a	n/a	-999	19	[0, 0, 0]	n/a	catFR1	2	R1157C
1886.533	10.428	945749	TRIAL	n/a	n/a	n/a	n/a	-999	19	[0, 0, 0]	n/a	catFR1	2	R1157C
1896.961	0.008	950963	COUNTDOWN_END	n/a	n/a	n/a	n/a	-999	19	[0, 0, 0]	n/a	catFR1	2	R1157C
1896.969	3.616	950967	ORIENT	n/a	n/a	n/a	n/a	-999	19	[0, 0, 0]	n/a	catFR1	2	R1157C
1900.585	2.385	952775	WORD	n/a	wordpools/wordpool_categorized_EN.txt	SHIRT	Clothing	1	19	[0, 0, 0]	n/a	catFR1	2	R1157C
1902.97	2.533	953967	WORD	n/a	wordpools/wordpool_categorized_EN.txt	COAT	Clothing	2	19	[0, 0, 0]	n/a	catFR1	2	R1157C
1905.503	2.518	955233	WORD	n/a	wordpools/wordpool_categorized_EN.txt	DRIZZLE	Weather	3	19	[0, 0, 0]	n/a	catFR1	2	R1157C
1908.021	2.616	956492	WORD	n/a	wordpools/wordpool_categorized_EN.txt	CLOUD	Weather	4	19	[0, 0, 0]	n/a	catFR1	2	R1157C
1910.637	2.385	957800	WORD	n/a	wordpools/wordpool_categorized_EN.txt	ERASER	OfficeSupplies	5	19	[0, 0, 0]	n/a	catFR1	2	R1157C
1913.022	2.466	958992	WORD	n/a	wordpools/wordpool_categorized_EN.txt	BINDER	OfficeSupplies	6	19	[0, 0, 0]	n/a	catFR1	2	R1157C
1915.488	2.485	960225	WORD	n/a	wordpools/wordpool_categorized_EN.txt	JEANS	Clothing	7	19	[0, 0, 0]	n/a	catFR1	2	R1157C
1917.973	2.516	961468	WORD	n/a	wordpools/wordpool_categorized_EN.txt	PANTS	Clothing	8	19	[0, 0, 0]	n/a	catFR1	2	R1157C
1920.489	2.368	962726	WORD	n/a	wordpools/wordpool_categorized_EN.txt	PAPER	OfficeSupplies	9	19	[0, 0, 0]	n/a	catFR1	2	R1157C
1922.857	2.483	963910	WORD	n/a	wordpools/wordpool_categorized_EN.txt	STAPLER	OfficeSupplies	10	19	[0, 0, 0]	n/a	catFR1	2	R1157C
1925.34	2.585	965151	WORD	n/a	wordpools/wordpool_categorized_EN.txt	SNOW	Weather	11	19	[0, 0, 0]	n/a	catFR1	2	R1157C
1927.925	1.616	966443	WORD	n/a	wordpools/wordpool_categorized_EN.txt	RAIN	Weather	12	19	[0, 0, 0]	n/a	catFR1	2	R1157C
1929.541	0.0	967251	DISTRACT_START	n/a	n/a	n/a	n/a	-999	19	[0, 0, 0]	n/a	catFR1	2	R1157C
1929.541	0.016	967251	START	n/a	n/a	n/a	n/a	-999	19	[-999, -999, -999]	n/a	catFR1	2	R1157C
1929.557	4.219	967259	PROB	4.187	n/a	n/a	n/a	-999	19	[9, 1, 3]	13.0	catFR1	2	R1157C
1933.776	2.883	969369	PROB	2.863	n/a	n/a	n/a	-999	19	[5, 8, 1]	14.0	catFR1	2	R1157C
1936.659	1.65	970810	PROB	1.628	n/a	n/a	n/a	-999	19	[6, 2, 3]	11.0	catFR1	2	R1157C
1938.309	2.067	971635	PROB	2.042	n/a	n/a	n/a	-999	19	[4, 2, 1]	7.0	catFR1	2	R1157C
1940.376	6.586	972668	PROB	6.56	n/a	n/a	n/a	-999	19	[9, 4, 5]	16.0	catFR1	2	R1157C
1946.962	5.477	975961	PROB	5.477	n/a	n/a	n/a	-999	19	[6, 5, 8]	19.0	catFR1	2	R1157C
1952.439	0.006	978699	STOP	n/a	n/a	n/a	n/a	-999	19	[-999, -999, -999]	n/a	catFR1	2	R1157C
1952.445	1.051	978702	DISTRACT_END	n/a	n/a	n/a	n/a	-999	19	[0, 0, 0]	n/a	catFR1	2	R1157C
1953.496	11.07	979228	REC_START	n/a	n/a	n/a	n/a	-999	19	[0, 0, 0]	n/a	catFR1	2	R1157C
1964.566	0.203	984762	REC_WORD_VV	11.07	n/a	<>	n/a	-999	19	[0, 0, 0]	n/a	catFR1	2	R1157C
1964.769	0.551	984864	REC_WORD	11.273	n/a	DRIZZLE	Weather	3	19	[0, 0, 0]	n/a	catFR1	2	R1157C
1965.32	1.832	985139	REC_WORD	11.824	n/a	RAIN	Weather	12	19	[0, 0, 0]	n/a	catFR1	2	R1157C
1967.152	2.707	986055	REC_WORD	13.656	n/a	CLOUD	Weather	4	19	[0, 0, 0]	n/a	catFR1	2	R1157C
1969.859	0.449	987409	REC_WORD	16.363	n/a	SHIRT	Clothing	1	19	[0, 0, 0]	n/a	catFR1	2	R1157C
1970.308	13.197	987633	REC_WORD	16.812	n/a	COAT	Clothing	2	19	[0, 0, 0]	n/a	catFR1	2	R1157C
1983.505	1.731	994231	REC_END	n/a	n/a	n/a	n/a	-999	19	[0, 0, 0]	n/a	catFR1	2	R1157C
1985.236	0.0	995096	TRIAL	n/a	n/a	n/a	n/a	-999	20	[0, 0, 0]	n/a	catFR1	2	R1157C
1985.236	10.428	995096	COUNTDOWN_START	n/a	n/a	n/a	n/a	-999	20	[0, 0, 0]	n/a	catFR1	2	R1157C
1995.664	0.006	1000310	COUNTDOWN_END	n/a	n/a	n/a	n/a	-999	20	[0, 0, 0]	n/a	catFR1	2	R1157C
1995.67	3.452	1000313	ORIENT	n/a	n/a	n/a	n/a	-999	20	[0, 0, 0]	n/a	catFR1	2	R1157C
1999.122	2.566	1002039	WORD	n/a	wordpools/wordpool_categorized_EN.txt	CHIMPANZEE	Zoo	1	20	[0, 0, 0]	n/a	catFR1	2	R1157C
2001.688	2.385	1003322	WORD	n/a	wordpools/wordpool_categorized_EN.txt	ELEPHANT	Zoo	2	20	[0, 0, 0]	n/a	catFR1	2	R1157C
2004.073	2.616	1004514	WORD	n/a	wordpools/wordpool_categorized_EN.txt	LAKE	Landscapes	3	20	[0, 0, 0]	n/a	catFR1	2	R1157C
2006.689	2.468	1005822	WORD	n/a	wordpools/wordpool_categorized_EN.txt	BEACH	Landscapes	4	20	[0, 0, 0]	n/a	catFR1	2	R1157C
2009.157	2.6	1007056	WORD	n/a	wordpools/wordpool_categorized_EN.txt	MOSQUITO	Insects	5	20	[0, 0, 0]	n/a	catFR1	2	R1157C
2011.757	2.501	1008356	WORD	n/a	wordpools/wordpool_categorized_EN.txt	BUTTERFLY	Insects	6	20	[0, 0, 0]	n/a	catFR1	2	R1157C
2014.258	2.467	1009606	WORD	n/a	wordpools/wordpool_categorized_EN.txt	TIGER	Zoo	7	20	[0, 0, 0]	n/a	catFR1	2	R1157C
2016.725	2.434	1010840	WORD	n/a	wordpools/wordpool_categorized_EN.txt	BEAR	Zoo	8	20	[0, 0, 0]	n/a	catFR1	2	R1157C
2019.159	2.432	1012056	WORD	n/a	wordpools/wordpool_categorized_EN.txt	FLY	Insects	9	20	[0, 0, 0]	n/a	catFR1	2	R1157C
2021.591	2.535	1013272	WORD	n/a	wordpools/wordpool_categorized_EN.txt	BEE	Insects	10	20	[0, 0, 0]	n/a	catFR1	2	R1157C
2024.126	2.383	1014540	WORD	n/a	wordpools/wordpool_categorized_EN.txt	ISLAND	Landscapes	11	20	[0, 0, 0]	n/a	catFR1	2	R1157C
2026.509	1.601	1015731	WORD	n/a	wordpools/wordpool_categorized_EN.txt	VALLEY	Landscapes	12	20	[0, 0, 0]	n/a	catFR1	2	R1157C
2028.11	0.001	1016532	DISTRACT_START	n/a	n/a	n/a	n/a	-999	20	[0, 0, 0]	n/a	catFR1	2	R1157C
2028.111	0.016	1016532	START	n/a	n/a	n/a	n/a	-999	20	[-999, -999, -999]	n/a	catFR1	2	R1157C
2028.127	3.333	1016540	PROB	3.304	n/a	n/a	n/a	-999	20	[2, 9, 5]	16.0	catFR1	2	R1157C
2031.46	2.884	1018206	PROB	2.851	n/a	n/a	n/a	-999	20	[2, 9, 1]	12.0	catFR1	2	R1157C
2034.344	7.586	1019648	PROB	7.56	n/a	n/a	n/a	-999	20	[4, 5, 5]	14.0	catFR1	2	R1157C
2041.93	6.206	1023441	PROB	6.206	n/a	n/a	n/a	-999	20	[6, 5, 6]	17.0	catFR1	2	R1157C
2048.136	0.012	1026544	STOP	n/a	n/a	n/a	n/a	-999	20	[-999, -999, -999]	n/a	catFR1	2	R1157C
2048.148	1.166	1026550	DISTRACT_END	n/a	n/a	n/a	n/a	-999	20	[0, 0, 0]	n/a	catFR1	2	R1157C
2049.314	0.336	1027133	REC_START	n/a	n/a	n/a	n/a	-999	20	[0, 0, 0]	n/a	catFR1	2	R1157C
2049.65	0.707	1027301	REC_WORD	0.336	n/a	CHIMPANZEE	Zoo	1	20	[0, 0, 0]	n/a	catFR1	2	R1157C
2050.357	0.869	1027654	REC_WORD	1.043	n/a	ELEPHANT	Zoo	2	20	[0, 0, 0]	n/a	catFR1	2	R1157C
2051.226	0.568	1028089	REC_WORD	1.912	n/a	TIGER	Zoo	7	20	[0, 0, 0]	n/a	catFR1	2	R1157C
2051.794	0.501	1028373	REC_WORD	2.48	n/a	BEAR	Zoo	8	20	[0, 0, 0]	n/a	catFR1	2	R1157C
2052.295	12.201	1028623	REC_WORD	2.981	n/a	FLY	Insects	9	20	[0, 0, 0]	n/a	catFR1	2	R1157C
2064.496	14.831	1034723	REC_WORD	15.182	n/a	MOSQUITO	Insects	5	20	[0, 0, 0]	n/a	catFR1	2	R1157C
2079.327	1.71	1042138	REC_END	n/a	n/a	n/a	n/a	-999	20	[0, 0, 0]	n/a	catFR1	2	R1157C
2081.037	0.0	1042993	TRIAL	n/a	n/a	n/a	n/a	-999	21	[0, 0, 0]	n/a	catFR1	2	R1157C
2081.037	10.428	1042993	COUNTDOWN_START	n/a	n/a	n/a	n/a	-999	21	[0, 0, 0]	n/a	catFR1	2	R1157C
2091.465	0.007	1048206	COUNTDOWN_END	n/a	n/a	n/a	n/a	-999	21	[0, 0, 0]	n/a	catFR1	2	R1157C
2091.472	3.867	1048210	ORIENT	n/a	n/a	n/a	n/a	-999	21	[0, 0, 0]	n/a	catFR1	2	R1157C
2095.339	2.518	1050143	WORD	n/a	wordpools/wordpool_categorized_EN.txt	DAISY	Flowers	1	21	[0, 0, 0]	n/a	catFR1	2	R1157C
2097.857	2.483	1051402	WORD	n/a	wordpools/wordpool_categorized_EN.txt	MARIGOLD	Flowers	2	21	[0, 0, 0]	n/a	catFR1	2	R1157C
2100.34	2.535	1052643	WORD	n/a	wordpools/wordpool_categorized_EN.txt	CUPCAKE	Desserts	3	21	[0, 0, 0]	n/a	catFR1	2	R1157C
2102.875	2.433	1053911	WORD	n/a	wordpools/wordpool_categorized_EN.txt	BROWNIES	Desserts	4	21	[0, 0, 0]	n/a	catFR1	2	R1157C
2105.308	2.468	1055127	WORD	n/a	wordpools/wordpool_categorized_EN.txt	RULER	OfficeSupplies	5	21	[0, 0, 0]	n/a	catFR1	2	R1157C
2107.776	2.4	1056361	WORD	n/a	wordpools/wordpool_categorized_EN.txt	FOLDER	OfficeSupplies	6	21	[0, 0, 0]	n/a	catFR1	2	R1157C
2110.176	2.618	1057561	WORD	n/a	wordpools/wordpool_categorized_EN.txt	JELLO	Desserts	7	21	[0, 0, 0]	n/a	catFR1	2	R1157C
2112.794	2.549	1058870	WORD	n/a	wordpools/wordpool_categorized_EN.txt	CHEESECAKE	Desserts	8	21	[0, 0, 0]	n/a	catFR1	2	R1157C
2115.343	2.418	1060144	WORD	n/a	wordpools/wordpool_categorized_EN.txt	CARNATION	Flowers	9	21	[0, 0, 0]	n/a	catFR1	2	R1157C
2117.761	2.533	1061353	WORD	n/a	wordpools/wordpool_categorized_EN.txt	VIOLET	Flowers	10	21	[0, 0, 0]	n/a	catFR1	2	R1157C
2120.294	2.535	1062620	WORD	n/a	wordpools/wordpool_categorized_EN.txt	PENCIL	OfficeSupplies	11	21	[0, 0, 0]	n/a	catFR1	2	R1157C
2122.829	1.616	1063887	WORD	n/a	wordpools/wordpool_categorized_EN.txt	GLUE	OfficeSupplies	12	21	[0, 0, 0]	n/a	catFR1	2	R1157C
2124.445	0.0	1064695	DISTRACT_START	n/a	n/a	n/a	n/a	-999	21	[0, 0, 0]	n/a	catFR1	2	R1157C
2124.445	0.016	1064695	START	n/a	n/a	n/a	n/a	-999	21	[-999, -999, -999]	n/a	catFR1	2	R1157C
2124.461	3.385	1064703	PROB	3.363	n/a	n/a	n/a	-999	21	[2, 9, 9]	20.0	catFR1	2	R1157C
2127.846	2.467	1066395	PROB	2.441	n/a	n/a	n/a	-999	21	[4, 8, 4]	16.0	catFR1	2	R1157C
2130.313	2.167	1067629	PROB	2.142	n/a	n/a	n/a	-999	21	[1, 4, 4]	9.0	catFR1	2	R1157C
2132.48	4.518	1068712	PROB	4.488	n/a	n/a	n/a	-999	21	[9, 6, 9]	24.0	catFR1	2	R1157C
2136.998	2.65	1070971	PROB	2.625	n/a	n/a	n/a	-999	21	[3, 3, 7]	17.0	catFR1	2	R1157C
2139.648	5.08	1072296	PROB	5.08	n/a	n/a	n/a	-999	21	[8, 9, 1]	18.0	catFR1	2	R1157C
2144.728	0.005	1074836	STOP	n/a	n/a	n/a	n/a	-999	21	[-999, -999, -999]	n/a	catFR1	2	R1157C
2144.733	1.117	1074838	DISTRACT_END	n/a	n/a	n/a	n/a	-999	21	[0, 0, 0]	n/a	catFR1	2	R1157C
2145.85	0.96	1075396	REC_START	n/a	n/a	n/a	n/a	-999	21	[0, 0, 0]	n/a	catFR1	2	R1157C
2146.81	3.542	1075876	REC_WORD	0.96	n/a	JELLO	Desserts	7	21	[0, 0, 0]	n/a	catFR1	2	R1157C
2150.352	0.451	1077647	REC_WORD	4.502	n/a	RULER	OfficeSupplies	5	21	[0, 0, 0]	n/a	catFR1	2	R1157C
2150.803	25.06	1077873	REC_WORD	4.953	n/a	FOLDER	OfficeSupplies	6	21	[0, 0, 0]	n/a	catFR1	2	R1157C
2175.863	1.442	1090402	REC_END	n/a	n/a	n/a	n/a	-999	21	[0, 0, 0]	n/a	catFR1	2	R1157C
2177.305	0.0	1091123	TRIAL	n/a	n/a	n/a	n/a	-999	22	[0, 0, 0]	n/a	catFR1	2	R1157C
2177.305	10.428	1091123	COUNTDOWN_START	n/a	n/a	n/a	n/a	-999	22	[0, 0, 0]	n/a	catFR1	2	R1157C
2187.733	0.008	1096336	COUNTDOWN_END	n/a	n/a	n/a	n/a	-999	22	[0, 0, 0]	n/a	catFR1	2	R1157C
2187.741	3.783	1096340	ORIENT	n/a	n/a	n/a	n/a	-999	22	[0, 0, 0]	n/a	catFR1	2	R1157C
2191.524	2.502	1098232	WORD	n/a	wordpools/wordpool_categorized_EN.txt	PINE	Trees	1	22	[0, 0, 0]	n/a	catFR1	2	R1157C
2194.026	2.466	1099482	WORD	n/a	wordpools/wordpool_categorized_EN.txt	MAPLE	Trees	2	22	[0, 0, 0]	n/a	catFR1	2	R1157C
2196.492	2.451	1100715	WORD	n/a	wordpools/wordpool_categorized_EN.txt	COW	FarmAnimals	3	22	[0, 0, 0]	n/a	catFR1	2	R1157C
2198.943	2.616	1101941	WORD	n/a	wordpools/wordpool_categorized_EN.txt	GOAT	FarmAnimals	4	22	[0, 0, 0]	n/a	catFR1	2	R1157C
2201.559	2.452	1103249	WORD	n/a	wordpools/wordpool_categorized_EN.txt	MOTORCYCLE	Vehicles	5	22	[0, 0, 0]	n/a	catFR1	2	R1157C
2204.011	2.433	1104474	WORD	n/a	wordpools/wordpool_categorized_EN.txt	MOPED	Vehicles	6	22	[0, 0, 0]	n/a	catFR1	2	R1157C
2206.444	2.435	1105691	WORD	n/a	wordpools/wordpool_categorized_EN.txt	CYPRESS	Trees	7	22	[0, 0, 0]	n/a	catFR1	2	R1157C
2208.879	2.432	1106908	WORD	n/a	wordpools/wordpool_categorized_EN.txt	EVERGREEN	Trees	8	22	[0, 0, 0]	n/a	catFR1	2	R1157C
2211.311	2.569	1108124	WORD	n/a	wordpools/wordpool_categorized_EN.txt	BOAT	Vehicles	9	22	[0, 0, 0]	n/a	catFR1	2	R1157C
2213.88	2.383	1109409	WORD	n/a	wordpools/wordpool_categorized_EN.txt	JEEP	Vehicles	10	22	[0, 0, 0]	n/a	catFR1	2	R1157C
2216.263	2.468	1110600	WORD	n/a	wordpools/wordpool_categorized_EN.txt	BULL	FarmAnimals	11	22	[0, 0, 0]	n/a	catFR1	2	R1157C
2218.731	1.615	1111834	WORD	n/a	wordpools/wordpool_categorized_EN.txt	CHICKEN	FarmAnimals	12	22	[0, 0, 0]	n/a	catFR1	2	R1157C
2220.346	0.001	1112641	DISTRACT_START	n/a	n/a	n/a	n/a	-999	22	[0, 0, 0]	n/a	catFR1	2	R1157C
2220.347	0.016	1112642	START	n/a	n/a	n/a	n/a	-999	22	[-999, -999, -999]	n/a	catFR1	2	R1157C
2220.363	3.951	1112650	PROB	3.924	n/a	n/a	n/a	-999	22	[4, 6, 5]	15.0	catFR1	2	R1157C
2224.314	5.452	1114625	PROB	5.422	n/a	n/a	n/a	-999	22	[8, 9, 6]	24.0	catFR1	2	R1157C
2229.766	3.217	1117351	PROB	3.186	n/a	n/a	n/a	-999	22	[4, 6, 1]	11.0	catFR1	2	R1157C
2232.983	2.4	1118959	PROB	2.376	n/a	n/a	n/a	-999	22	[2, 5, 2]	9.0	catFR1	2	R1157C
2235.383	3.084	1120159	PROB	3.056	n/a	n/a	n/a	-999	22	[4, 4, 7]	15.0	catFR1	2	R1157C
2238.467	3.501	1121701	PROB	3.501	n/a	n/a	n/a	-999	22	[4, 5, 4]	13.0	catFR1	2	R1157C
2241.968	0.017	1123451	STOP	n/a	n/a	n/a	n/a	-999	22	[-999, -999, -999]	n/a	catFR1	2	R1157C
2241.985	1.217	1123460	DISTRACT_END	n/a	n/a	n/a	n/a	-999	22	[0, 0, 0]	n/a	catFR1	2	R1157C
2243.202	14.673	1124068	REC_START	n/a	n/a	n/a	n/a	-999	22	[0, 0, 0]	n/a	catFR1	2	R1157C
2257.875	15.339	1131404	REC_WORD	14.673	n/a	COW	FarmAnimals	3	22	[0, 0, 0]	n/a	catFR1	2	R1157C
2273.214	1.711	1139073	REC_END	n/a	n/a	n/a	n/a	-999	22	[0, 0, 0]	n/a	catFR1	2	R1157C
2274.925	0.0	1139928	TRIAL	n/a	n/a	n/a	n/a	-999	23	[0, 0, 0]	n/a	catFR1	2	R1157C
2274.925	10.428	1139928	COUNTDOWN_START	n/a	n/a	n/a	n/a	-999	23	[0, 0, 0]	n/a	catFR1	2	R1157C
2285.353	0.006	1145142	COUNTDOWN_END	n/a	n/a	n/a	n/a	-999	23	[0, 0, 0]	n/a	catFR1	2	R1157C
2285.359	3.451	1145145	ORIENT	n/a	n/a	n/a	n/a	-999	23	[0, 0, 0]	n/a	catFR1	2	R1157C
2288.81	2.583	1146870	WORD	n/a	wordpools/wordpool_categorized_EN.txt	GOOSE	Birds	1	23	[0, 0, 0]	n/a	catFR1	2	R1157C
2291.393	2.369	1148162	WORD	n/a	wordpools/wordpool_categorized_EN.txt	FINCH	Birds	2	23	[0, 0, 0]	n/a	catFR1	2	R1157C
2293.762	2.517	1149346	WORD	n/a	wordpools/wordpool_categorized_EN.txt	SHOVEL	Tools	3	23	[0, 0, 0]	n/a	catFR1	2	R1157C
2296.279	2.5	1150605	WORD	n/a	wordpools/wordpool_categorized_EN.txt	SCREWDRIVER	Tools	4	23	[0, 0, 0]	n/a	catFR1	2	R1157C
2298.779	2.616	1151854	WORD	n/a	wordpools/wordpool_categorized_EN.txt	SPINACH	Vegetables	5	23	[0, 0, 0]	n/a	catFR1	2	R1157C
2301.395	2.552	1153162	WORD	n/a	wordpools/wordpool_categorized_EN.txt	CUCUMBER	Vegetables	6	23	[0, 0, 0]	n/a	catFR1	2	R1157C
2303.947	2.466	1154438	WORD	n/a	wordpools/wordpool_categorized_EN.txt	HAMMER	Tools	7	23	[0, 0, 0]	n/a	catFR1	2	R1157C
2306.413	2.551	1155671	WORD	n/a	wordpools/wordpool_categorized_EN.txt	RATCHET	Tools	8	23	[0, 0, 0]	n/a	catFR1	2	R1157C
2308.964	2.617	1156946	WORD	n/a	wordpools/wordpool_categorized_EN.txt	SEAGULL	Birds	9	23	[0, 0, 0]	n/a	catFR1	2	R1157C
2311.581	2.601	1158255	WORD	n/a	wordpools/wordpool_categorized_EN.txt	PIGEON	Birds	10	23	[0, 0, 0]	n/a	catFR1	2	R1157C
2314.182	2.383	1159555	WORD	n/a	wordpools/wordpool_categorized_EN.txt	CARROT	Vegetables	11	23	[0, 0, 0]	n/a	catFR1	2	R1157C
2316.565	1.601	1160747	WORD	n/a	wordpools/wordpool_categorized_EN.txt	LETTUCE	Vegetables	12	23	[0, 0, 0]	n/a	catFR1	2	R1157C
2318.166	0.001	1161547	DISTRACT_START	n/a	n/a	n/a	n/a	-999	23	[0, 0, 0]	n/a	catFR1	2	R1157C
2318.167	0.016	1161548	START	n/a	n/a	n/a	n/a	-999	23	[-999, -999, -999]	n/a	catFR1	2	R1157C
2318.183	4.684	1161556	PROB	4.649	n/a	n/a	n/a	-999	23	[7, 9, 9]	25.0	catFR1	2	R1157C
2322.867	2.384	1163897	PROB	2.349	n/a	n/a	n/a	-999	23	[5, 1, 1]	7.0	catFR1	2	R1157C
2325.251	2.349	1165089	PROB	2.316	n/a	n/a	n/a	-999	23	[7, 5, 4]	16.0	catFR1	2	R1157C
2327.6	2.001	1166264	PROB	1.967	n/a	n/a	n/a	-999	23	[1, 2, 2]	5.0	catFR1	2	R1157C
2329.601	2.717	1167264	PROB	2.694	n/a	n/a	n/a	-999	23	[2, 3, 5]	10.0	catFR1	2	R1157C
2332.318	2.585	1168622	PROB	2.554	n/a	n/a	n/a	-999	23	[5, 4, 8]	17.0	catFR1	2	R1157C
2334.903	2.8	1169915	PROB	2.768	n/a	n/a	n/a	-999	23	[1, 9, 5]	15.0	catFR1	2	R1157C
2337.703	2.832	1171315	PROB	2.832	n/a	n/a	n/a	-999	23	[3, 4, 4]	10.0	catFR1	2	R1157C
2340.535	0.018	1172731	STOP	n/a	n/a	n/a	n/a	-999	23	[-999, -999, -999]	n/a	catFR1	2	R1157C
2340.553	1.034	1172740	DISTRACT_END	n/a	n/a	n/a	n/a	-999	23	[0, 0, 0]	n/a	catFR1	2	R1157C
2341.587	2.014	1173257	REC_START	n/a	n/a	n/a	n/a	-999	23	[0, 0, 0]	n/a	catFR1	2	R1157C
2343.601	0.939	1174263	REC_WORD	2.014	n/a	SPINACH	Vegetables	5	23	[0, 0, 0]	n/a	catFR1	2	R1157C
2344.54	20.163	1174733	REC_WORD	2.953	n/a	LETTUCE	Vegetables	12	23	[0, 0, 0]	n/a	catFR1	2	R1157C
2364.703	6.893	1184814	REC_WORD	23.116	n/a	CUCUMBER	Vegetables	6	23	[0, 0, 0]	n/a	catFR1	2	R1157C
2371.596	1.73	1188260	REC_END	n/a	n/a	n/a	n/a	-999	23	[0, 0, 0]	n/a	catFR1	2	R1157C
2373.326	0.0	1189125	TRIAL	n/a	n/a	n/a	n/a	-999	24	[0, 0, 0]	n/a	catFR1	2	R1157C
2373.326	10.428	1189125	COUNTDOWN_START	n/a	n/a	n/a	n/a	-999	24	[0, 0, 0]	n/a	catFR1	2	R1157C
2383.754	0.008	1194338	COUNTDOWN_END	n/a	n/a	n/a	n/a	-999	24	[0, 0, 0]	n/a	catFR1	2	R1157C
2383.762	3.666	1194342	ORIENT	n/a	n/a	n/a	n/a	-999	24	[0, 0, 0]	n/a	catFR1	2	R1157C
2387.428	2.402	1196175	WORD	n/a	wordpools/wordpool_categorized_EN.txt	CREEK	Landscapes	1	24	[0, 0, 0]	n/a	catFR1	2	R1157C
2389.83	2.616	1197376	WORD	n/a	wordpools/wordpool_categorized_EN.txt	MOUNTAIN	Landscapes	2	24	[0, 0, 0]	n/a	catFR1	2	R1157C
2392.446	2.485	1198684	WORD	n/a	wordpools/wordpool_categorized_EN.txt	POTATO	Vegetables	3	24	[0, 0, 0]	n/a	catFR1	2	R1157C
2394.931	2.516	1199926	WORD	n/a	wordpools/wordpool_categorized_EN.txt	CORN	Vegetables	4	24	[0, 0, 0]	n/a	catFR1	2	R1157C
2397.447	2.401	1201184	WORD	n/a	wordpools/wordpool_categorized_EN.txt	SHEEP	FarmAnimals	5	24	[0, 0, 0]	n/a	catFR1	2	R1157C
2399.848	2.418	1202385	WORD	n/a	wordpools/wordpool_categorized_EN.txt	ROOSTER	FarmAnimals	6	24	[0, 0, 0]	n/a	catFR1	2	R1157C
2402.266	2.416	1203593	WORD	n/a	wordpools/wordpool_categorized_EN.txt	CAULIFLOWER	Vegetables	7	24	[0, 0, 0]	n/a	catFR1	2	R1157C
2404.682	2.451	1204801	WORD	n/a	wordpools/wordpool_categorized_EN.txt	CELERY	Vegetables	8	24	[0, 0, 0]	n/a	catFR1	2	R1157C
2407.133	2.617	1206027	WORD	n/a	wordpools/wordpool_categorized_EN.txt	STREAM	Landscapes	9	24	[0, 0, 0]	n/a	catFR1	2	R1157C
2409.75	2.518	1207335	WORD	n/a	wordpools/wordpool_categorized_EN.txt	RIVER	Landscapes	10	24	[0, 0, 0]	n/a	catFR1	2	R1157C
2412.268	2.633	1208594	WORD	n/a	wordpools/wordpool_categorized_EN.txt	HORSE	FarmAnimals	11	24	[0, 0, 0]	n/a	catFR1	2	R1157C
2414.901	1.616	1209910	WORD	n/a	wordpools/wordpool_categorized_EN.txt	PIG	FarmAnimals	12	24	[0, 0, 0]	n/a	catFR1	2	R1157C
2416.517	0.001	1210718	DISTRACT_START	n/a	n/a	n/a	n/a	-999	24	[0, 0, 0]	n/a	catFR1	2	R1157C
2416.518	0.016	1210719	START	n/a	n/a	n/a	n/a	-999	24	[-999, -999, -999]	n/a	catFR1	2	R1157C
2416.534	3.252	1210727	PROB	3.226	n/a	n/a	n/a	-999	24	[6, 7, 5]	20.0	catFR1	2	R1157C
2419.786	2.749	1212353	PROB	2.725	n/a	n/a	n/a	-999	24	[9, 8, 3]	20.0	catFR1	2	R1157C
2422.535	2.635	1213727	PROB	2.601	n/a	n/a	n/a	-999	24	[8, 3, 6]	17.0	catFR1	2	R1157C
2425.17	2.233	1215044	PROB	2.213	n/a	n/a	n/a	-999	24	[6, 1, 1]	8.0	catFR1	2	R1157C
2427.403	2.1	1216161	PROB	2.076	n/a	n/a	n/a	-999	24	[2, 7, 3]	12.0	catFR1	2	R1157C
2429.503	2.735	1217211	PROB	2.713	n/a	n/a	n/a	-999	24	[4, 5, 1]	10.0	catFR1	2	R1157C
2432.238	2.349	1218578	PROB	2.321	n/a	n/a	n/a	-999	24	[9, 2, 1]	12.0	catFR1	2	R1157C
2434.587	2.549	1219753	PROB	2.549	n/a	n/a	n/a	-999	24	[5, 7, 4]	16.0	catFR1	2	R1157C
2437.136	0.003	1221027	STOP	n/a	n/a	n/a	n/a	-999	24	[-999, -999, -999]	n/a	catFR1	2	R1157C
2437.139	1.05	1221028	DISTRACT_END	n/a	n/a	n/a	n/a	-999	24	[0, 0, 0]	n/a	catFR1	2	R1157C
2438.189	4.26	1221553	REC_START	n/a	n/a	n/a	n/a	-999	24	[0, 0, 0]	n/a	catFR1	2	R1157C
2442.449	1.937	1223683	REC_WORD	4.26	n/a	CREEK	Landscapes	1	24	[0, 0, 0]	n/a	catFR1	2	R1157C
2444.386	0.523	1224652	REC_WORD	6.197	n/a	RIVER	Landscapes	10	24	[0, 0, 0]	n/a	catFR1	2	R1157C
2444.909	9.305	1224913	REC_WORD	6.72	n/a	STREAM	Landscapes	9	24	[0, 0, 0]	n/a	catFR1	2	R1157C
2454.214	3.783	1229565	REC_WORD	16.025	n/a	MOUNTAIN	Landscapes	2	24	[0, 0, 0]	n/a	catFR1	2	R1157C
2457.997	2.588	1231457	REC_WORD	19.808	n/a	ROOSTER	FarmAnimals	6	24	[0, 0, 0]	n/a	catFR1	2	R1157C
2460.585	7.619	1232750	REC_WORD	22.396	n/a	CAULIFLOWER	Vegetables	7	24	[0, 0, 0]	n/a	catFR1	2	R1157C
2468.204	1.508	1236560	REC_END	n/a	n/a	n/a	n/a	-999	24	[0, 0, 0]	n/a	catFR1	2	R1157C
2469.712	0.0	1237314	TRIAL	n/a	n/a	n/a	n/a	-999	25	[0, 0, 0]	n/a	catFR1	2	R1157C
2469.712	10.428	1237314	COUNTDOWN_START	n/a	n/a	n/a	n/a	-999	25	[0, 0, 0]	n/a	catFR1	2	R1157C
2480.14	0.007	1242527	COUNTDOWN_END	n/a	n/a	n/a	n/a	-999	25	[0, 0, 0]	n/a	catFR1	2	R1157C
2480.147	3.834	1242531	ORIENT	n/a	n/a	n/a	n/a	-999	25	[0, 0, 0]	n/a	catFR1	2	R1157C
2483.981	2.383	1244447	WORD	n/a	wordpools/wordpool_categorized_EN.txt	WOODS	Landscapes	1	25	[0, 0, 0]	n/a	catFR1	2	R1157C
2486.364	2.468	1245639	WORD	n/a	wordpools/wordpool_categorized_EN.txt	FOREST	Landscapes	2	25	[0, 0, 0]	n/a	catFR1	2	R1157C
2488.832	2.434	1246873	WORD	n/a	wordpools/wordpool_categorized_EN.txt	CARDINAL	Birds	3	25	[0, 0, 0]	n/a	catFR1	2	R1157C
2491.266	2.617	1248090	WORD	n/a	wordpools/wordpool_categorized_EN.txt	DUCK	Birds	4	25	[0, 0, 0]	n/a	catFR1	2	R1157C
2493.883	2.466	1249398	WORD	n/a	wordpools/wordpool_categorized_EN.txt	EYE	BodyParts	5	25	[0, 0, 0]	n/a	catFR1	2	R1157C
2496.349	2.602	1250631	WORD	n/a	wordpools/wordpool_categorized_EN.txt	HEAD	BodyParts	6	25	[0, 0, 0]	n/a	catFR1	2	R1157C
2498.951	2.483	1251932	WORD	n/a	wordpools/wordpool_categorized_EN.txt	HILLS	Landscapes	7	25	[0, 0, 0]	n/a	catFR1	2	R1157C
2501.434	2.634	1253173	WORD	n/a	wordpools/wordpool_categorized_EN.txt	OCEAN	Landscapes	8	25	[0, 0, 0]	n/a	catFR1	2	R1157C
2504.068	2.6	1254490	WORD	n/a	wordpools/wordpool_categorized_EN.txt	FINGERS	BodyParts	9	25	[0, 0, 0]	n/a	catFR1	2	R1157C
2506.668	2.401	1255790	WORD	n/a	wordpools/wordpool_categorized_EN.txt	ELBOW	BodyParts	10	25	[0, 0, 0]	n/a	catFR1	2	R1157C
2509.069	2.516	1256990	WORD	n/a	wordpools/wordpool_categorized_EN.txt	DOVE	Birds	11	25	[0, 0, 0]	n/a	catFR1	2	R1157C
2511.585	1.602	1258248	WORD	n/a	wordpools/wordpool_categorized_EN.txt	SPARROW	Birds	12	25	[0, 0, 0]	n/a	catFR1	2	R1157C
2513.187	0.0	1259049	DISTRACT_START	n/a	n/a	n/a	n/a	-999	25	[0, 0, 0]	n/a	catFR1	2	R1157C
2513.187	0.017	1259049	START	n/a	n/a	n/a	n/a	-999	25	[-999, -999, -999]	n/a	catFR1	2	R1157C
2513.204	2.266	1259058	PROB	2.235	n/a	n/a	n/a	-999	25	[2, 9, 1]	12.0	catFR1	2	R1157C
2515.47	2.534	1260191	PROB	2.514	n/a	n/a	n/a	-999	25	[2, 1, 4]	7.0	catFR1	2	R1157C
2518.004	2.868	1261458	PROB	2.844	n/a	n/a	n/a	-999	25	[3, 2, 2]	7.0	catFR1	2	R1157C
2520.872	2.933	1262891	PROB	2.912	n/a	n/a	n/a	-999	25	[3, 7, 4]	14.0	catFR1	2	R1157C
2523.805	4.918	1264358	PROB	4.891	n/a	n/a	n/a	-999	25	[5, 1, 9]	15.0	catFR1	2	R1157C
2528.723	1.666	1266817	PROB	1.644	n/a	n/a	n/a	-999	25	[3, 1, 1]	5.0	catFR1	2	R1157C
2530.389	2.618	1267649	PROB	2.587	n/a	n/a	n/a	-999	25	[3, 6, 8]	17.0	catFR1	2	R1157C
2533.007	2.408	1268958	PROB	2.408	n/a	n/a	n/a	-999	25	[2, 8, 7]	17.0	catFR1	2	R1157C
2535.415	0.008	1270162	STOP	n/a	n/a	n/a	n/a	-999	25	[-999, -999, -999]	n/a	catFR1	2	R1157C
2535.423	1.085	1270166	DISTRACT_END	n/a	n/a	n/a	n/a	-999	25	[0, 0, 0]	n/a	catFR1	2	R1157C
2536.508	0.422	1270709	REC_START	n/a	n/a	n/a	n/a	-999	25	[0, 0, 0]	n/a	catFR1	2	R1157C
2536.93	18.668	1270920	REC_WORD	0.422	n/a	OCEAN	Landscapes	8	25	[0, 0, 0]	n/a	catFR1	2	R1157C
2555.598	10.919	1280253	REC_WORD	19.09	n/a	ELBOW	BodyParts	10	25	[0, 0, 0]	n/a	catFR1	2	R1157C
2566.517	8.715	1285712	REC_END	n/a	n/a	n/a	n/a	-999	25	[0, 0, 0]	n/a	catFR1	2	R1157C
2575.232	0.0	1290069	SESS_END	n/a	n/a	n/a	n/a	-999	25	[0, 0, 0]	n/a	catFR1	2	R1157C
