onset	duration	sample	trial_type	response_time	stim_file	item_name	category	serialpos	list	test	answer	experiment	session	subject
0.0	6.993	44264	INSTRUCT_START	n/a	n/a	n/a	n/a	-999	-999	[0, 0, 0]	n/a	catFR1	1	R1389J
6.993	31.056	51257	INSTRUCT_END	n/a	n/a	n/a	n/a	-999	-999	[0, 0, 0]	n/a	catFR1	1	R1389J
38.049	10.0	82311	COUNTDOWN_START	n/a	n/a	n/a	n/a	-999	-999	[0, 0, 0]	n/a	catFR1	1	R1389J
48.414	0.0	92667	COUNTDOWN_END	n/a	n/a	n/a	n/a	-999	-999	[0, 0, 0]	n/a	catFR1	1	R1389J
48.414	2.069	92679	ENCODING_START	n/a	n/a	n/a	n/a	-999	-1	[0, 0, 0]	n/a	catFR1	1	R1389J
50.483	1.6	94735	WORD	n/a	n/a	SUNFLOWER	Flowers	1	-1	[0, 0, 0]	n/a	catFR1	1	R1389J
52.098	0.951	96357	WORD_OFF	n/a	n/a	SUNFLOWER	Flowers	1	-1	[0, 0, 0]	n/a	catFR1	1	R1389J
53.049	1.6	97300	WORD	n/a	n/a	ROSE	Flowers	2	-1	[0, 0, 0]	n/a	catFR1	1	R1389J
54.649	0.883	98909	WORD_OFF	n/a	n/a	ROSE	Flowers	2	-1	[0, 0, 0]	n/a	catFR1	1	R1389J
55.532	1.6	99792	WORD	n/a	n/a	JEANS	Clothing	3	-1	[0, 0, 0]	n/a	catFR1	1	R1389J
57.149	0.915	101401	WORD_OFF	n/a	n/a	JEANS	Clothing	3	-1	[0, 0, 0]	n/a	catFR1	1	R1389J
58.064	1.6	102321	WORD	n/a	n/a	UNDERWEAR	Clothing	4	-1	[0, 0, 0]	n/a	catFR1	1	R1389J
59.665	0.883	103918	WORD_OFF	n/a	n/a	UNDERWEAR	Clothing	4	-1	[0, 0, 0]	n/a	catFR1	1	R1389J
60.548	1.6	104801	WORD	n/a	n/a	LIGHTNING	Weather	5	-1	[0, 0, 0]	n/a	catFR1	1	R1389J
62.164	1.0	106422	WORD_OFF	n/a	n/a	LIGHTNING	Weather	5	-1	[0, 0, 0]	n/a	catFR1	1	R1389J
63.164	1.6	107426	WORD	n/a	n/a	TORNADO	Weather	6	-1	[0, 0, 0]	n/a	catFR1	1	R1389J
64.765	0.767	109023	WORD_OFF	n/a	n/a	TORNADO	Weather	6	-1	[0, 0, 0]	n/a	catFR1	1	R1389J
65.532	1.6	109785	WORD	n/a	n/a	PETUNIA	Flowers	7	-1	[0, 0, 0]	n/a	catFR1	1	R1389J
67.149	0.866	111406	WORD_OFF	n/a	n/a	PETUNIA	Flowers	7	-1	[0, 0, 0]	n/a	catFR1	1	R1389J
68.015	1.6	112277	WORD	n/a	n/a	ORCHID	Flowers	8	-1	[0, 0, 0]	n/a	catFR1	1	R1389J
69.616	0.998	113874	WORD_OFF	n/a	n/a	ORCHID	Flowers	8	-1	[0, 0, 0]	n/a	catFR1	1	R1389J
70.614	1.6	114866	WORD	n/a	n/a	SHOES	Clothing	9	-1	[0, 0, 0]	n/a	catFR1	1	R1389J
72.216	0.849	116475	WORD_OFF	n/a	n/a	SHOES	Clothing	9	-1	[0, 0, 0]	n/a	catFR1	1	R1389J
73.065	1.6	117322	WORD	n/a	n/a	DRESS	Clothing	10	-1	[0, 0, 0]	n/a	catFR1	1	R1389J
74.682	0.783	118943	WORD_OFF	n/a	n/a	DRESS	Clothing	10	-1	[0, 0, 0]	n/a	catFR1	1	R1389J
75.465	1.6	119717	WORD	n/a	n/a	WIND	Weather	11	-1	[0, 0, 0]	n/a	catFR1	1	R1389J
77.099	0.917	121350	WORD_OFF	n/a	n/a	WIND	Weather	11	-1	[0, 0, 0]	n/a	catFR1	1	R1389J
78.016	1.6	122269	WORD	n/a	n/a	HUMIDITY	Weather	12	-1	[0, 0, 0]	n/a	catFR1	1	R1389J
79.633	0.0	123888	START	n/a	n/a	n/a	n/a	-999	-1	[-999, -999, -999]	n/a	catFR1	1	R1389J
79.633	0.0	123888	PROB	9.017	n/a	n/a	n/a	-999	-1	[3, 5, 5]	13.0	catFR1	1	R1389J
79.631	0.002	123891	WORD_OFF	n/a	n/a	HUMIDITY	Weather	12	-1	[0, 0, 0]	n/a	catFR1	1	R1389J
79.633	0.0	123891	ENCODING_END	n/a	n/a	n/a	n/a	-999	-1	[0, 0, 0]	n/a	catFR1	1	R1389J
79.633	9.033	123891	DISTRACT_START	n/a	n/a	n/a	n/a	-999	-1	[0, 0, 0]	n/a	catFR1	1	R1389J
88.666	8.617	132921	PROB	8.6	n/a	n/a	n/a	-999	-1	[3, 3, 3]	9.0	catFR1	1	R1389J
97.283	4.699	141537	PROB	4.682	n/a	n/a	n/a	-999	-1	[1, 5, 5]	11.0	catFR1	1	R1389J
101.982	0.0	146235	DISTRACT_END	n/a	n/a	n/a	n/a	-999	-1	[0, 0, 0]	n/a	catFR1	1	R1389J
101.982	2.167	146236	STOP	n/a	n/a	n/a	n/a	-999	-1	[-999, -999, -999]	n/a	catFR1	1	R1389J
104.149	0.94	148408	REC_START	n/a	n/a	n/a	n/a	-999	-1	[0, 0, 0]	n/a	catFR1	1	R1389J
105.089	4.16	149343	REC_WORD_VV	0.94	n/a	<>	n/a	-999	-1	[0, 0, 0]	n/a	catFR1	1	R1389J
109.249	1.559	153503	REC_WORD	5.1	n/a	SUNFLOWER	Flowers	1	-1	[0, 0, 0]	n/a	catFR1	1	R1389J
110.808	2.301	155062	REC_WORD	6.659	n/a	PETUNIA	Flowers	7	-1	[0, 0, 0]	n/a	catFR1	1	R1389J
113.109	2.264	157363	REC_WORD_VV	8.96	n/a	<>	n/a	-999	-1	[0, 0, 0]	n/a	catFR1	1	R1389J
115.373	19.01	159626	REC_WORD	11.224	n/a	JEANS	Clothing	3	-1	[0, 0, 0]	n/a	catFR1	1	R1389J
134.383	6.316	178632	REC_END	n/a	n/a	n/a	n/a	-999	-1	[0, 0, 0]	n/a	catFR1	1	R1389J
140.699	10.0	184959	COUNTDOWN_START	n/a	n/a	n/a	n/a	-999	1	[0, 0, 0]	n/a	catFR1	1	R1389J
151.059	0.0	195314	COUNTDOWN_END	n/a	n/a	n/a	n/a	-999	1	[0, 0, 0]	n/a	catFR1	1	R1389J
151.059	1.956	195314	ENCODING_START	n/a	n/a	n/a	n/a	-999	1	[0, 0, 0]	n/a	catFR1	1	R1389J
153.015	1.6	197274	WORD	n/a	wordpools/wordpool_categorized_EN.txt	NOTEBOOK	OfficeSupplies	1	1	[0, 0, 0]	n/a	catFR1	1	R1389J
154.616	0.965	198871	WORD_OFF	n/a	n/a	NOTEBOOK	OfficeSupplies	1	1	[0, 0, 0]	n/a	catFR1	1	R1389J
155.581	1.6	199839	WORD	n/a	wordpools/wordpool_categorized_EN.txt	STAPLER	OfficeSupplies	2	1	[0, 0, 0]	n/a	catFR1	1	R1389J
157.182	0.9	201436	WORD_OFF	n/a	n/a	STAPLER	OfficeSupplies	2	1	[0, 0, 0]	n/a	catFR1	1	R1389J
158.082	1.6	202331	WORD	n/a	wordpools/wordpool_categorized_EN.txt	PEELER	KitchenTools	3	1	[0, 0, 0]	n/a	catFR1	1	R1389J
159.682	0.767	203940	WORD_OFF	n/a	n/a	PEELER	KitchenTools	3	1	[0, 0, 0]	n/a	catFR1	1	R1389J
160.449	1.6	204702	WORD	n/a	wordpools/wordpool_categorized_EN.txt	SPATULA	KitchenTools	4	1	[0, 0, 0]	n/a	catFR1	1	R1389J
162.065	0.9	206323	WORD_OFF	n/a	n/a	SPATULA	KitchenTools	4	1	[0, 0, 0]	n/a	catFR1	1	R1389J
162.965	1.6	207218	WORD	n/a	wordpools/wordpool_categorized_EN.txt	SPRUCE	Trees	5	1	[0, 0, 0]	n/a	catFR1	1	R1389J
164.582	0.85	208840	WORD_OFF	n/a	n/a	SPRUCE	Trees	5	1	[0, 0, 0]	n/a	catFR1	1	R1389J
165.432	1.6	209686	WORD	n/a	wordpools/wordpool_categorized_EN.txt	CYPRESS	Trees	6	1	[0, 0, 0]	n/a	catFR1	1	R1389J
167.032	0.882	211283	WORD_OFF	n/a	n/a	CYPRESS	Trees	6	1	[0, 0, 0]	n/a	catFR1	1	R1389J
167.914	1.6	212166	WORD	n/a	wordpools/wordpool_categorized_EN.txt	TONGS	KitchenTools	7	1	[0, 0, 0]	n/a	catFR1	1	R1389J
169.516	0.848	213763	WORD_OFF	n/a	n/a	TONGS	KitchenTools	7	1	[0, 0, 0]	n/a	catFR1	1	R1389J
170.364	1.6	214622	WORD	n/a	wordpools/wordpool_categorized_EN.txt	WHISK	KitchenTools	8	1	[0, 0, 0]	n/a	catFR1	1	R1389J
171.964	0.885	216219	WORD_OFF	n/a	n/a	WHISK	KitchenTools	8	1	[0, 0, 0]	n/a	catFR1	1	R1389J
172.849	1.6	217102	WORD	n/a	wordpools/wordpool_categorized_EN.txt	PINE	Trees	9	1	[0, 0, 0]	n/a	catFR1	1	R1389J
174.449	0.866	218699	WORD_OFF	n/a	n/a	PINE	Trees	9	1	[0, 0, 0]	n/a	catFR1	1	R1389J
175.315	1.6	219570	WORD	n/a	wordpools/wordpool_categorized_EN.txt	HICKORY	Trees	10	1	[0, 0, 0]	n/a	catFR1	1	R1389J
176.916	0.882	221167	WORD_OFF	n/a	n/a	HICKORY	Trees	10	1	[0, 0, 0]	n/a	catFR1	1	R1389J
177.798	1.6	222050	WORD	n/a	wordpools/wordpool_categorized_EN.txt	PAPER	OfficeSupplies	11	1	[0, 0, 0]	n/a	catFR1	1	R1389J
179.399	0.783	223647	WORD_OFF	n/a	n/a	PAPER	OfficeSupplies	11	1	[0, 0, 0]	n/a	catFR1	1	R1389J
180.182	1.6	224433	WORD	n/a	wordpools/wordpool_categorized_EN.txt	ERASER	OfficeSupplies	12	1	[0, 0, 0]	n/a	catFR1	1	R1389J
181.799	0.001	226050	PROB	12.799	n/a	n/a	n/a	-999	1	[7, 4, 4]	15.0	catFR1	1	R1389J
181.8	0.0	226051	START	n/a	n/a	n/a	n/a	-999	1	[-999, -999, -999]	n/a	catFR1	1	R1389J
181.799	0.001	226054	WORD_OFF	n/a	n/a	ERASER	OfficeSupplies	12	1	[0, 0, 0]	n/a	catFR1	1	R1389J
181.8	0.0	226054	ENCODING_END	n/a	n/a	n/a	n/a	-999	1	[0, 0, 0]	n/a	catFR1	1	R1389J
181.8	12.815	226054	DISTRACT_START	n/a	n/a	n/a	n/a	-999	1	[0, 0, 0]	n/a	catFR1	1	R1389J
194.615	10.583	238865	PROB	10.566	n/a	n/a	n/a	-999	1	[5, 6, 7]	19.0	catFR1	1	R1389J
205.198	0.0	249448	STOP	n/a	n/a	n/a	n/a	-999	1	[-999, -999, -999]	n/a	catFR1	1	R1389J
205.198	2.216	249451	DISTRACT_END	n/a	n/a	n/a	n/a	-999	1	[0, 0, 0]	n/a	catFR1	1	R1389J
207.414	7.14	251661	REC_START	n/a	n/a	n/a	n/a	-999	1	[0, 0, 0]	n/a	catFR1	1	R1389J
214.554	6.203	258803	REC_WORD	7.14	n/a	STAPLER	OfficeSupplies	2	1	[0, 0, 0]	n/a	catFR1	1	R1389J
220.757	0.5	265006	REC_WORD_VV	13.343	n/a	<>	n/a	-999	1	[0, 0, 0]	n/a	catFR1	1	R1389J
221.257	12.746	265506	REC_WORD_VV	13.843	n/a	<>	n/a	-999	1	[0, 0, 0]	n/a	catFR1	1	R1389J
234.003	3.612	278251	REC_WORD_VV	26.589	n/a	<>	n/a	-999	1	[0, 0, 0]	n/a	catFR1	1	R1389J
237.615	6.018	281860	REC_END	n/a	n/a	n/a	n/a	-999	1	[0, 0, 0]	n/a	catFR1	1	R1389J
243.633	10.0	287885	COUNTDOWN_START	n/a	n/a	n/a	n/a	-999	2	[0, 0, 0]	n/a	catFR1	1	R1389J
253.991	0.001	298240	COUNTDOWN_END	n/a	n/a	n/a	n/a	-999	2	[0, 0, 0]	n/a	catFR1	1	R1389J
253.992	2.356	298240	ENCODING_START	n/a	n/a	n/a	n/a	-999	2	[0, 0, 0]	n/a	catFR1	1	R1389J
256.348	1.6	300600	WORD	n/a	wordpools/wordpool_categorized_EN.txt	FOLDER	OfficeSupplies	1	2	[0, 0, 0]	n/a	catFR1	1	R1389J
257.949	0.983	302196	WORD_OFF	n/a	n/a	FOLDER	OfficeSupplies	1	2	[0, 0, 0]	n/a	catFR1	1	R1389J
258.932	1.6	303176	WORD	n/a	wordpools/wordpool_categorized_EN.txt	PEN	OfficeSupplies	2	2	[0, 0, 0]	n/a	catFR1	1	R1389J
260.549	0.9	304797	WORD_OFF	n/a	n/a	PEN	OfficeSupplies	2	2	[0, 0, 0]	n/a	catFR1	1	R1389J
261.449	1.6	305693	WORD	n/a	wordpools/wordpool_categorized_EN.txt	PIANO	Instruments	3	2	[0, 0, 0]	n/a	catFR1	1	R1389J
263.049	0.983	307302	WORD_OFF	n/a	n/a	PIANO	Instruments	3	2	[0, 0, 0]	n/a	catFR1	1	R1389J
264.032	1.6	308281	WORD	n/a	wordpools/wordpool_categorized_EN.txt	BANJO	Instruments	4	2	[0, 0, 0]	n/a	catFR1	1	R1389J
265.632	0.867	309878	WORD_OFF	n/a	n/a	BANJO	Instruments	4	2	[0, 0, 0]	n/a	catFR1	1	R1389J
266.499	1.6	310749	WORD	n/a	wordpools/wordpool_categorized_EN.txt	ROBIN	Birds	5	2	[0, 0, 0]	n/a	catFR1	1	R1389J
268.116	0.915	312370	WORD_OFF	n/a	n/a	ROBIN	Birds	5	2	[0, 0, 0]	n/a	catFR1	1	R1389J
269.031	1.6	313278	WORD	n/a	wordpools/wordpool_categorized_EN.txt	SEAGULL	Birds	6	2	[0, 0, 0]	n/a	catFR1	1	R1389J
270.632	0.884	314875	WORD_OFF	n/a	n/a	SEAGULL	Birds	6	2	[0, 0, 0]	n/a	catFR1	1	R1389J
271.516	1.6	315758	WORD	n/a	wordpools/wordpool_categorized_EN.txt	RULER	OfficeSupplies	7	2	[0, 0, 0]	n/a	catFR1	1	R1389J
273.132	0.917	317379	WORD_OFF	n/a	n/a	RULER	OfficeSupplies	7	2	[0, 0, 0]	n/a	catFR1	1	R1389J
274.049	1.6	318298	WORD	n/a	wordpools/wordpool_categorized_EN.txt	GLUE	OfficeSupplies	8	2	[0, 0, 0]	n/a	catFR1	1	R1389J
275.665	0.95	319907	WORD_OFF	n/a	n/a	GLUE	OfficeSupplies	8	2	[0, 0, 0]	n/a	catFR1	1	R1389J
276.615	1.6	320863	WORD	n/a	wordpools/wordpool_categorized_EN.txt	DRUM	Instruments	9	2	[0, 0, 0]	n/a	catFR1	1	R1389J
278.215	0.817	322460	WORD_OFF	n/a	n/a	DRUM	Instruments	9	2	[0, 0, 0]	n/a	catFR1	1	R1389J
279.032	1.6	323282	WORD	n/a	wordpools/wordpool_categorized_EN.txt	GUITAR	Instruments	10	2	[0, 0, 0]	n/a	catFR1	1	R1389J
280.632	0.933	324879	WORD_OFF	n/a	n/a	GUITAR	Instruments	10	2	[0, 0, 0]	n/a	catFR1	1	R1389J
281.565	1.6	325811	WORD	n/a	wordpools/wordpool_categorized_EN.txt	DUCK	Birds	11	2	[0, 0, 0]	n/a	catFR1	1	R1389J
283.165	0.866	327408	WORD_OFF	n/a	n/a	DUCK	Birds	11	2	[0, 0, 0]	n/a	catFR1	1	R1389J
284.031	1.6	328279	WORD	n/a	wordpools/wordpool_categorized_EN.txt	DOVE	Birds	12	2	[0, 0, 0]	n/a	catFR1	1	R1389J
285.631	0.001	329876	WORD_OFF	n/a	n/a	DOVE	Birds	12	2	[0, 0, 0]	n/a	catFR1	1	R1389J
285.632	0.0	329876	ENCODING_END	n/a	n/a	n/a	n/a	-999	2	[0, 0, 0]	n/a	catFR1	1	R1389J
285.632	0.0	329878	START	n/a	n/a	n/a	n/a	-999	2	[-999, -999, -999]	n/a	catFR1	1	R1389J
285.632	0.0	329878	PROB	6.666	n/a	n/a	n/a	-999	2	[1, 8, 1]	10.0	catFR1	1	R1389J
285.632	6.683	329888	DISTRACT_START	n/a	n/a	n/a	n/a	-999	2	[0, 0, 0]	n/a	catFR1	1	R1389J
292.315	8.55	336561	PROB	8.533	n/a	n/a	n/a	-999	2	[2, 3, 2]	8.0	catFR1	1	R1389J
300.865	6.383	345111	PROB	6.366	n/a	n/a	n/a	-999	2	[7, 2, 7]	16.0	catFR1	1	R1389J
307.248	0.0	351493	STOP	n/a	n/a	n/a	n/a	-999	2	[-999, -999, -999]	n/a	catFR1	1	R1389J
307.248	2.25	351494	DISTRACT_END	n/a	n/a	n/a	n/a	-999	2	[0, 0, 0]	n/a	catFR1	1	R1389J
309.498	2.62	353740	REC_START	n/a	n/a	n/a	n/a	-999	2	[0, 0, 0]	n/a	catFR1	1	R1389J
312.118	2.274	356363	REC_WORD	2.62	n/a	FOLDER	OfficeSupplies	1	2	[0, 0, 0]	n/a	catFR1	1	R1389J
314.392	1.777	358637	REC_WORD	4.894	n/a	PEN	OfficeSupplies	2	2	[0, 0, 0]	n/a	catFR1	1	R1389J
316.169	2.341	360414	REC_WORD	6.671	n/a	STAPLER	OfficeSupplies	-999	2	[0, 0, 0]	n/a	catFR1	1	R1389J
318.51	3.447	362755	REC_WORD	9.012	n/a	RULER	OfficeSupplies	7	2	[0, 0, 0]	n/a	catFR1	1	R1389J
321.957	16.715	366202	REC_WORD_VV	12.459	n/a	<>	n/a	-999	2	[0, 0, 0]	n/a	catFR1	1	R1389J
338.672	1.032	382916	REC_WORD_VV	29.174	n/a	<>	n/a	-999	2	[0, 0, 0]	n/a	catFR1	1	R1389J
339.704	6.395	383952	REC_END	n/a	n/a	n/a	n/a	-999	2	[0, 0, 0]	n/a	catFR1	1	R1389J
346.099	10.0	390351	COUNTDOWN_START	n/a	n/a	n/a	n/a	-999	3	[0, 0, 0]	n/a	catFR1	1	R1389J
356.459	0.0	400707	COUNTDOWN_END	n/a	n/a	n/a	n/a	-999	3	[0, 0, 0]	n/a	catFR1	1	R1389J
356.459	2.039	400707	ENCODING_START	n/a	n/a	n/a	n/a	-999	3	[0, 0, 0]	n/a	catFR1	1	R1389J
358.498	1.6	402739	WORD	n/a	wordpools/wordpool_categorized_EN.txt	BARBIE	Toys	1	3	[0, 0, 0]	n/a	catFR1	1	R1389J
360.099	0.951	404348	WORD_OFF	n/a	n/a	BARBIE	Toys	1	3	[0, 0, 0]	n/a	catFR1	1	R1389J
361.05	1.6	405292	WORD	n/a	wordpools/wordpool_categorized_EN.txt	BASKETBALL	Toys	2	3	[0, 0, 0]	n/a	catFR1	1	R1389J
362.666	0.982	406913	WORD_OFF	n/a	n/a	BASKETBALL	Toys	2	3	[0, 0, 0]	n/a	catFR1	1	R1389J
363.648	1.6	407893	WORD	n/a	wordpools/wordpool_categorized_EN.txt	NIGHTSTAND	Furniture	3	3	[0, 0, 0]	n/a	catFR1	1	R1389J
365.249	0.933	409490	WORD_OFF	n/a	n/a	NIGHTSTAND	Furniture	3	3	[0, 0, 0]	n/a	catFR1	1	R1389J
366.182	1.6	410421	WORD	n/a	wordpools/wordpool_categorized_EN.txt	BED	Furniture	4	3	[0, 0, 0]	n/a	catFR1	1	R1389J
367.782	1.0	412030	WORD_OFF	n/a	n/a	BED	Furniture	4	3	[0, 0, 0]	n/a	catFR1	1	R1389J
368.782	1.6	413022	WORD	n/a	wordpools/wordpool_categorized_EN.txt	FINCH	Birds	5	3	[0, 0, 0]	n/a	catFR1	1	R1389J
370.399	0.965	414643	WORD_OFF	n/a	n/a	FINCH	Birds	5	3	[0, 0, 0]	n/a	catFR1	1	R1389J
371.364	1.6	415611	WORD	n/a	wordpools/wordpool_categorized_EN.txt	BLUEBIRD	Birds	6	3	[0, 0, 0]	n/a	catFR1	1	R1389J
372.965	0.95	417208	WORD_OFF	n/a	n/a	BLUEBIRD	Birds	6	3	[0, 0, 0]	n/a	catFR1	1	R1389J
373.915	1.6	418164	WORD	n/a	wordpools/wordpool_categorized_EN.txt	BOOKCASE	Furniture	7	3	[0, 0, 0]	n/a	catFR1	1	R1389J
375.515	0.799	419760	WORD_OFF	n/a	n/a	BOOKCASE	Furniture	7	3	[0, 0, 0]	n/a	catFR1	1	R1389J
376.314	1.6	420559	WORD	n/a	wordpools/wordpool_categorized_EN.txt	CABINET	Furniture	8	3	[0, 0, 0]	n/a	catFR1	1	R1389J
377.915	0.967	422156	WORD_OFF	n/a	n/a	CABINET	Furniture	8	3	[0, 0, 0]	n/a	catFR1	1	R1389J
378.882	1.6	423123	WORD	n/a	wordpools/wordpool_categorized_EN.txt	CARDINAL	Birds	9	3	[0, 0, 0]	n/a	catFR1	1	R1389J
380.499	0.865	424745	WORD_OFF	n/a	n/a	CARDINAL	Birds	9	3	[0, 0, 0]	n/a	catFR1	1	R1389J
381.364	1.6	425603	WORD	n/a	wordpools/wordpool_categorized_EN.txt	SPARROW	Birds	10	3	[0, 0, 0]	n/a	catFR1	1	R1389J
382.965	0.966	427212	WORD_OFF	n/a	n/a	SPARROW	Birds	10	3	[0, 0, 0]	n/a	catFR1	1	R1389J
383.931	1.6	428180	WORD	n/a	wordpools/wordpool_categorized_EN.txt	BASEBALL	Toys	11	3	[0, 0, 0]	n/a	catFR1	1	R1389J
385.531	0.85	429777	WORD_OFF	n/a	n/a	BASEBALL	Toys	11	3	[0, 0, 0]	n/a	catFR1	1	R1389J
386.381	1.6	430624	WORD	n/a	wordpools/wordpool_categorized_EN.txt	DOLLHOUSE	Toys	12	3	[0, 0, 0]	n/a	catFR1	1	R1389J
387.982	0.001	432221	WORD_OFF	n/a	n/a	DOLLHOUSE	Toys	12	3	[0, 0, 0]	n/a	catFR1	1	R1389J
387.983	0.0	432221	ENCODING_END	n/a	n/a	n/a	n/a	-999	3	[0, 0, 0]	n/a	catFR1	1	R1389J
387.982	0.001	432224	PROB	11.449	n/a	n/a	n/a	-999	3	[8, 4, 5]	17.0	catFR1	1	R1389J
387.983	0.0	432225	START	n/a	n/a	n/a	n/a	-999	3	[-999, -999, -999]	n/a	catFR1	1	R1389J
387.983	11.465	432233	DISTRACT_START	n/a	n/a	n/a	n/a	-999	3	[0, 0, 0]	n/a	catFR1	1	R1389J
399.448	7.5	443690	PROB	7.483	n/a	n/a	n/a	-999	3	[1, 1, 4]	6.0	catFR1	1	R1389J
406.948	10.734	451189	PROB	10.717	n/a	n/a	n/a	-999	3	[7, 2, 4]	13.0	catFR1	1	R1389J
417.682	0.0	461920	DISTRACT_END	n/a	n/a	n/a	n/a	-999	3	[0, 0, 0]	n/a	catFR1	1	R1389J
417.682	2.167	461923	STOP	n/a	n/a	n/a	n/a	-999	3	[-999, -999, -999]	n/a	catFR1	1	R1389J
419.849	2.939	464094	REC_START	n/a	n/a	n/a	n/a	-999	3	[0, 0, 0]	n/a	catFR1	1	R1389J
422.788	1.605	467029	REC_WORD	2.939	n/a	CARDINAL	Birds	9	3	[0, 0, 0]	n/a	catFR1	1	R1389J
424.393	25.672	468634	REC_WORD	4.544	n/a	SPARROW	Birds	10	3	[0, 0, 0]	n/a	catFR1	1	R1389J
450.065	10.568	494305	REC_END	n/a	n/a	n/a	n/a	-999	3	[0, 0, 0]	n/a	catFR1	1	R1389J
460.633	10.0	504879	COUNTDOWN_START	n/a	n/a	n/a	n/a	-999	4	[0, 0, 0]	n/a	catFR1	1	R1389J
470.991	0.001	515234	COUNTDOWN_END	n/a	n/a	n/a	n/a	-999	4	[0, 0, 0]	n/a	catFR1	1	R1389J
470.992	1.957	515234	ENCODING_START	n/a	n/a	n/a	n/a	-999	4	[0, 0, 0]	n/a	catFR1	1	R1389J
472.949	1.6	517194	WORD	n/a	wordpools/wordpool_categorized_EN.txt	VELVET	Fabric	1	4	[0, 0, 0]	n/a	catFR1	1	R1389J
474.566	0.899	518803	WORD_OFF	n/a	n/a	VELVET	Fabric	1	4	[0, 0, 0]	n/a	catFR1	1	R1389J
475.465	1.6	519710	WORD	n/a	wordpools/wordpool_categorized_EN.txt	SPANDEX	Fabric	2	4	[0, 0, 0]	n/a	catFR1	1	R1389J
477.082	0.85	521319	WORD_OFF	n/a	n/a	SPANDEX	Fabric	2	4	[0, 0, 0]	n/a	catFR1	1	R1389J
477.932	1.6	522166	WORD	n/a	wordpools/wordpool_categorized_EN.txt	BINDER	OfficeSupplies	3	4	[0, 0, 0]	n/a	catFR1	1	R1389J
479.532	0.833	523775	WORD_OFF	n/a	n/a	BINDER	OfficeSupplies	3	4	[0, 0, 0]	n/a	catFR1	1	R1389J
480.365	1.6	524610	WORD	n/a	wordpools/wordpool_categorized_EN.txt	MARKER	OfficeSupplies	4	4	[0, 0, 0]	n/a	catFR1	1	R1389J
481.982	0.767	526219	WORD_OFF	n/a	n/a	MARKER	OfficeSupplies	4	4	[0, 0, 0]	n/a	catFR1	1	R1389J
482.749	1.6	526993	WORD	n/a	wordpools/wordpool_categorized_EN.txt	CORKSCREW	KitchenTools	5	4	[0, 0, 0]	n/a	catFR1	1	R1389J
484.365	0.816	528602	WORD_OFF	n/a	n/a	CORKSCREW	KitchenTools	5	4	[0, 0, 0]	n/a	catFR1	1	R1389J
485.181	1.6	529425	WORD	n/a	wordpools/wordpool_categorized_EN.txt	COLANDER	KitchenTools	6	4	[0, 0, 0]	n/a	catFR1	1	R1389J
486.782	0.9	531022	WORD_OFF	n/a	n/a	COLANDER	KitchenTools	6	4	[0, 0, 0]	n/a	catFR1	1	R1389J
487.682	1.6	531917	WORD	n/a	wordpools/wordpool_categorized_EN.txt	PENCIL	OfficeSupplies	7	4	[0, 0, 0]	n/a	catFR1	1	R1389J
489.298	0.767	533538	WORD_OFF	n/a	n/a	PENCIL	OfficeSupplies	7	4	[0, 0, 0]	n/a	catFR1	1	R1389J
490.065	1.6	534300	WORD	n/a	wordpools/wordpool_categorized_EN.txt	TAPE	OfficeSupplies	8	4	[0, 0, 0]	n/a	catFR1	1	R1389J
491.681	0.867	535921	WORD_OFF	n/a	n/a	TAPE	OfficeSupplies	8	4	[0, 0, 0]	n/a	catFR1	1	R1389J
492.548	1.6	536792	WORD	n/a	wordpools/wordpool_categorized_EN.txt	STRAINER	KitchenTools	9	4	[0, 0, 0]	n/a	catFR1	1	R1389J
494.148	0.934	538389	WORD_OFF	n/a	n/a	STRAINER	KitchenTools	9	4	[0, 0, 0]	n/a	catFR1	1	R1389J
495.082	1.6	539320	WORD	n/a	wordpools/wordpool_categorized_EN.txt	KNIFE	KitchenTools	10	4	[0, 0, 0]	n/a	catFR1	1	R1389J
496.698	0.833	540942	WORD_OFF	n/a	n/a	KNIFE	KitchenTools	10	4	[0, 0, 0]	n/a	catFR1	1	R1389J
497.531	1.6	541764	WORD	n/a	wordpools/wordpool_categorized_EN.txt	LINEN	Fabric	11	4	[0, 0, 0]	n/a	catFR1	1	R1389J
499.133	0.916	543373	WORD_OFF	n/a	n/a	LINEN	Fabric	11	4	[0, 0, 0]	n/a	catFR1	1	R1389J
500.049	1.6	544293	WORD	n/a	wordpools/wordpool_categorized_EN.txt	SATIN	Fabric	12	4	[0, 0, 0]	n/a	catFR1	1	R1389J
501.649	0.002	545886	PROB	8.249	n/a	n/a	n/a	-999	4	[2, 7, 4]	13.0	catFR1	1	R1389J
501.651	0.0	545888	START	n/a	n/a	n/a	n/a	-999	4	[-999, -999, -999]	n/a	catFR1	1	R1389J
501.649	0.001	545889	WORD_OFF	n/a	n/a	SATIN	Fabric	12	4	[0, 0, 0]	n/a	catFR1	1	R1389J
501.65	0.001	545889	ENCODING_END	n/a	n/a	n/a	n/a	-999	4	[0, 0, 0]	n/a	catFR1	1	R1389J
501.651	8.266	545889	DISTRACT_START	n/a	n/a	n/a	n/a	-999	4	[0, 0, 0]	n/a	catFR1	1	R1389J
509.917	5.266	554154	PROB	5.248	n/a	n/a	n/a	-999	4	[4, 5, 1]	10.0	catFR1	1	R1389J
515.183	7.831	559420	PROB	7.816	n/a	n/a	n/a	-999	4	[3, 5, 6]	14.0	catFR1	1	R1389J
523.014	0.0	567250	STOP	n/a	n/a	n/a	n/a	-999	4	[-999, -999, -999]	n/a	catFR1	1	R1389J
523.014	2.135	567254	DISTRACT_END	n/a	n/a	n/a	n/a	-999	4	[0, 0, 0]	n/a	catFR1	1	R1389J
525.149	2.565	569391	REC_START	n/a	n/a	n/a	n/a	-999	4	[0, 0, 0]	n/a	catFR1	1	R1389J
527.714	3.72	571950	REC_WORD_VV	2.565	n/a	<>	n/a	-999	4	[0, 0, 0]	n/a	catFR1	1	R1389J
531.434	0.734	575670	REC_WORD_VV	6.285	n/a	<>	n/a	-999	4	[0, 0, 0]	n/a	catFR1	1	R1389J
532.168	0.925	576404	REC_WORD	7.019	n/a	LINEN	Fabric	11	4	[0, 0, 0]	n/a	catFR1	1	R1389J
533.093	6.685	577329	REC_WORD	7.944	n/a	SATIN	Fabric	12	4	[0, 0, 0]	n/a	catFR1	1	R1389J
539.778	11.685	584014	REC_WORD_VV	14.629	n/a	<>	n/a	-999	4	[0, 0, 0]	n/a	catFR1	1	R1389J
551.463	3.896	595698	REC_WORD_VV	26.314	n/a	<>	n/a	-999	4	[0, 0, 0]	n/a	catFR1	1	R1389J
555.359	17.09	599590	REC_END	n/a	n/a	n/a	n/a	-999	4	[0, 0, 0]	n/a	catFR1	1	R1389J
572.449	10.0	616684	COUNTDOWN_START	n/a	n/a	n/a	n/a	-999	5	[0, 0, 0]	n/a	catFR1	1	R1389J
582.81	0.0	627040	COUNTDOWN_END	n/a	n/a	n/a	n/a	-999	5	[0, 0, 0]	n/a	catFR1	1	R1389J
582.81	2.222	627040	ENCODING_START	n/a	n/a	n/a	n/a	-999	5	[0, 0, 0]	n/a	catFR1	1	R1389J
585.032	1.6	629266	WORD	n/a	wordpools/wordpool_categorized_EN.txt	PLANKTON	OceanAnimals	1	5	[0, 0, 0]	n/a	catFR1	1	R1389J
586.649	0.949	630887	WORD_OFF	n/a	n/a	PLANKTON	OceanAnimals	1	5	[0, 0, 0]	n/a	catFR1	1	R1389J
587.598	1.6	631830	WORD	n/a	wordpools/wordpool_categorized_EN.txt	OYSTER	OceanAnimals	2	5	[0, 0, 0]	n/a	catFR1	1	R1389J
589.198	0.95	633427	WORD_OFF	n/a	n/a	OYSTER	OceanAnimals	2	5	[0, 0, 0]	n/a	catFR1	1	R1389J
590.148	1.6	634383	WORD	n/a	wordpools/wordpool_categorized_EN.txt	FOUNDATION	Building	3	5	[0, 0, 0]	n/a	catFR1	1	R1389J
591.765	0.9	636004	WORD_OFF	n/a	n/a	FOUNDATION	Building	3	5	[0, 0, 0]	n/a	catFR1	1	R1389J
592.665	1.6	636899	WORD	n/a	wordpools/wordpool_categorized_EN.txt	BATHROOM	Building	4	5	[0, 0, 0]	n/a	catFR1	1	R1389J
594.265	0.967	638496	WORD_OFF	n/a	n/a	BATHROOM	Building	4	5	[0, 0, 0]	n/a	catFR1	1	R1389J
595.232	1.6	639464	WORD	n/a	wordpools/wordpool_categorized_EN.txt	FINGERS	BodyParts	5	5	[0, 0, 0]	n/a	catFR1	1	R1389J
596.832	0.916	641061	WORD_OFF	n/a	n/a	FINGERS	BodyParts	5	5	[0, 0, 0]	n/a	catFR1	1	R1389J
597.748	1.6	641980	WORD	n/a	wordpools/wordpool_categorized_EN.txt	LEG	BodyParts	6	5	[0, 0, 0]	n/a	catFR1	1	R1389J
599.365	0.916	643601	WORD_OFF	n/a	n/a	LEG	BodyParts	6	5	[0, 0, 0]	n/a	catFR1	1	R1389J
600.281	1.6	644521	WORD	n/a	wordpools/wordpool_categorized_EN.txt	ROOM	Building	7	5	[0, 0, 0]	n/a	catFR1	1	R1389J
601.898	0.866	646130	WORD_OFF	n/a	n/a	ROOM	Building	7	5	[0, 0, 0]	n/a	catFR1	1	R1389J
602.764	1.6	647001	WORD	n/a	wordpools/wordpool_categorized_EN.txt	CEILING	Building	8	5	[0, 0, 0]	n/a	catFR1	1	R1389J
604.365	1.0	648598	WORD_OFF	n/a	n/a	CEILING	Building	8	5	[0, 0, 0]	n/a	catFR1	1	R1389J
605.365	1.6	649602	WORD	n/a	wordpools/wordpool_categorized_EN.txt	CRAB	OceanAnimals	9	5	[0, 0, 0]	n/a	catFR1	1	R1389J
606.965	0.817	651199	WORD_OFF	n/a	n/a	CRAB	OceanAnimals	9	5	[0, 0, 0]	n/a	catFR1	1	R1389J
607.782	1.6	652021	WORD	n/a	wordpools/wordpool_categorized_EN.txt	DOLPHIN	OceanAnimals	10	5	[0, 0, 0]	n/a	catFR1	1	R1389J
609.382	1.0	653618	WORD_OFF	n/a	n/a	DOLPHIN	OceanAnimals	10	5	[0, 0, 0]	n/a	catFR1	1	R1389J
610.382	1.6	654622	WORD	n/a	wordpools/wordpool_categorized_EN.txt	ARM	BodyParts	11	5	[0, 0, 0]	n/a	catFR1	1	R1389J
611.999	0.882	656231	WORD_OFF	n/a	n/a	ARM	BodyParts	11	5	[0, 0, 0]	n/a	catFR1	1	R1389J
612.881	1.6	657114	WORD	n/a	wordpools/wordpool_categorized_EN.txt	FOOT	BodyParts	12	5	[0, 0, 0]	n/a	catFR1	1	R1389J
614.482	0.001	658711	WORD_OFF	n/a	n/a	FOOT	BodyParts	12	5	[0, 0, 0]	n/a	catFR1	1	R1389J
614.483	0.0	658711	ENCODING_END	n/a	n/a	n/a	n/a	-999	5	[0, 0, 0]	n/a	catFR1	1	R1389J
614.482	0.001	658715	PROB	6.999	n/a	n/a	n/a	-999	5	[4, 2, 4]	10.0	catFR1	1	R1389J
614.483	0.0	658716	START	n/a	n/a	n/a	n/a	-999	5	[-999, -999, -999]	n/a	catFR1	1	R1389J
614.483	7.015	658723	DISTRACT_START	n/a	n/a	n/a	n/a	-999	5	[0, 0, 0]	n/a	catFR1	1	R1389J
621.498	12.201	665730	PROB	12.184	n/a	n/a	n/a	-999	5	[3, 2, 2]	7.0	catFR1	1	R1389J
633.699	12.499	677931	PROB	12.483	n/a	n/a	n/a	-999	5	[3, 6, 2]	11.0	catFR1	1	R1389J
646.198	0.0	690429	STOP	n/a	n/a	n/a	n/a	-999	5	[-999, -999, -999]	n/a	catFR1	1	R1389J
646.198	2.233	690431	DISTRACT_END	n/a	n/a	n/a	n/a	-999	5	[0, 0, 0]	n/a	catFR1	1	R1389J
648.431	2.294	692665	REC_START	n/a	n/a	n/a	n/a	-999	5	[0, 0, 0]	n/a	catFR1	1	R1389J
650.725	2.952	694956	REC_WORD	2.294	n/a	PLANKTON	OceanAnimals	1	5	[0, 0, 0]	n/a	catFR1	1	R1389J
653.677	3.742	697908	REC_WORD	5.246	n/a	OYSTER	OceanAnimals	2	5	[0, 0, 0]	n/a	catFR1	1	R1389J
657.419	3.248	701650	REC_WORD	8.988	n/a	CRAB	OceanAnimals	9	5	[0, 0, 0]	n/a	catFR1	1	R1389J
660.667	14.95	704898	REC_WORD	12.236	n/a	WHALE	n/a	-999	5	[0, 0, 0]	n/a	catFR1	1	R1389J
675.617	1.0	719847	REC_WORD_VV	27.186	n/a	<>	n/a	-999	5	[0, 0, 0]	n/a	catFR1	1	R1389J
676.617	1.997	720847	REC_WORD_VV	28.186	n/a	<>	n/a	-999	5	[0, 0, 0]	n/a	catFR1	1	R1389J
678.614	15.752	722840	REC_END	n/a	n/a	n/a	n/a	-999	5	[0, 0, 0]	n/a	catFR1	1	R1389J
694.366	10.0	738591	COUNTDOWN_START	n/a	n/a	n/a	n/a	-999	6	[0, 0, 0]	n/a	catFR1	1	R1389J
704.728	0.0	748959	COUNTDOWN_END	n/a	n/a	n/a	n/a	-999	6	[0, 0, 0]	n/a	catFR1	1	R1389J
704.728	2.188	748959	ENCODING_START	n/a	n/a	n/a	n/a	-999	6	[0, 0, 0]	n/a	catFR1	1	R1389J
706.916	1.6	751149	WORD	n/a	wordpools/wordpool_categorized_EN.txt	STOVE	Appliances	1	6	[0, 0, 0]	n/a	catFR1	1	R1389J
708.532	0.8	752758	WORD_OFF	n/a	n/a	STOVE	Appliances	1	6	[0, 0, 0]	n/a	catFR1	1	R1389J
709.332	1.6	753556	WORD	n/a	wordpools/wordpool_categorized_EN.txt	IRON	Appliances	2	6	[0, 0, 0]	n/a	catFR1	1	R1389J
710.948	0.8	755177	WORD_OFF	n/a	n/a	IRON	Appliances	2	6	[0, 0, 0]	n/a	catFR1	1	R1389J
711.748	1.6	755976	WORD	n/a	wordpools/wordpool_categorized_EN.txt	GOOSE	Birds	3	6	[0, 0, 0]	n/a	catFR1	1	R1389J
713.349	0.982	757572	WORD_OFF	n/a	n/a	GOOSE	Birds	3	6	[0, 0, 0]	n/a	catFR1	1	R1389J
714.331	1.6	758564	WORD	n/a	wordpools/wordpool_categorized_EN.txt	PIGEON	Birds	4	6	[0, 0, 0]	n/a	catFR1	1	R1389J
715.932	0.949	760161	WORD_OFF	n/a	n/a	PIGEON	Birds	4	6	[0, 0, 0]	n/a	catFR1	1	R1389J
716.881	1.6	761105	WORD	n/a	wordpools/wordpool_categorized_EN.txt	GRATER	KitchenTools	5	6	[0, 0, 0]	n/a	catFR1	1	R1389J
718.482	0.932	762714	WORD_OFF	n/a	n/a	GRATER	KitchenTools	5	6	[0, 0, 0]	n/a	catFR1	1	R1389J
719.414	1.6	763645	WORD	n/a	wordpools/wordpool_categorized_EN.txt	FORK	KitchenTools	6	6	[0, 0, 0]	n/a	catFR1	1	R1389J
721.014	0.934	765242	WORD_OFF	n/a	n/a	FORK	KitchenTools	6	6	[0, 0, 0]	n/a	catFR1	1	R1389J
721.948	1.6	766174	WORD	n/a	wordpools/wordpool_categorized_EN.txt	BLENDER	Appliances	7	6	[0, 0, 0]	n/a	catFR1	1	R1389J
723.549	1.0	767783	WORD_OFF	n/a	n/a	BLENDER	Appliances	7	6	[0, 0, 0]	n/a	catFR1	1	R1389J
724.549	1.6	768775	WORD	n/a	wordpools/wordpool_categorized_EN.txt	REFRIGERATOR	Appliances	8	6	[0, 0, 0]	n/a	catFR1	1	R1389J
726.165	0.867	770396	WORD_OFF	n/a	n/a	REFRIGERATOR	Appliances	8	6	[0, 0, 0]	n/a	catFR1	1	R1389J
727.032	1.6	771267	WORD	n/a	wordpools/wordpool_categorized_EN.txt	CROW	Birds	9	6	[0, 0, 0]	n/a	catFR1	1	R1389J
728.649	0.816	772876	WORD_OFF	n/a	n/a	CROW	Birds	9	6	[0, 0, 0]	n/a	catFR1	1	R1389J
729.465	1.6	773698	WORD	n/a	wordpools/wordpool_categorized_EN.txt	HAWK	Birds	10	6	[0, 0, 0]	n/a	catFR1	1	R1389J
731.065	0.967	775295	WORD_OFF	n/a	n/a	HAWK	Birds	10	6	[0, 0, 0]	n/a	catFR1	1	R1389J
732.032	1.6	776263	WORD	n/a	wordpools/wordpool_categorized_EN.txt	SPOON	KitchenTools	11	6	[0, 0, 0]	n/a	catFR1	1	R1389J
733.632	0.95	777860	WORD_OFF	n/a	n/a	SPOON	KitchenTools	11	6	[0, 0, 0]	n/a	catFR1	1	R1389J
734.582	1.6	778816	WORD	n/a	wordpools/wordpool_categorized_EN.txt	LADLE	KitchenTools	12	6	[0, 0, 0]	n/a	catFR1	1	R1389J
736.182	0.001	780410	PROB	7.632	n/a	n/a	n/a	-999	6	[1, 3, 7]	11.0	catFR1	1	R1389J
736.183	0.0	780411	START	n/a	n/a	n/a	n/a	-999	6	[-999, -999, -999]	n/a	catFR1	1	R1389J
736.182	0.001	780413	WORD_OFF	n/a	n/a	LADLE	KitchenTools	12	6	[0, 0, 0]	n/a	catFR1	1	R1389J
736.183	0.0	780413	ENCODING_END	n/a	n/a	n/a	n/a	-999	6	[0, 0, 0]	n/a	catFR1	1	R1389J
736.183	7.649	780413	DISTRACT_START	n/a	n/a	n/a	n/a	-999	6	[0, 0, 0]	n/a	catFR1	1	R1389J
743.832	5.401	788059	PROB	5.383	n/a	n/a	n/a	-999	6	[2, 1, 3]	6.0	catFR1	1	R1389J
749.233	8.532	793460	PROB	8.516	n/a	n/a	n/a	-999	6	[7, 8, 4]	19.0	catFR1	1	R1389J
757.765	0.0	801992	STOP	n/a	n/a	n/a	n/a	-999	6	[-999, -999, -999]	n/a	catFR1	1	R1389J
757.765	2.317	801995	DISTRACT_END	n/a	n/a	n/a	n/a	-999	6	[0, 0, 0]	n/a	catFR1	1	R1389J
760.082	5.3	804313	REC_START	n/a	n/a	n/a	n/a	-999	6	[0, 0, 0]	n/a	catFR1	1	R1389J
765.382	3.13	809608	REC_WORD_VV	5.3	n/a	<>	n/a	-999	6	[0, 0, 0]	n/a	catFR1	1	R1389J
768.512	1.562	812738	REC_WORD	8.43	n/a	FORK	KitchenTools	6	6	[0, 0, 0]	n/a	catFR1	1	R1389J
770.074	2.233	814300	REC_WORD	9.992	n/a	SPOON	KitchenTools	11	6	[0, 0, 0]	n/a	catFR1	1	R1389J
772.307	2.85	816533	REC_WORD	12.225	n/a	REFRIGERATOR	Appliances	8	6	[0, 0, 0]	n/a	catFR1	1	R1389J
775.157	3.764	819383	REC_WORD	15.075	n/a	GOOSE	Birds	3	6	[0, 0, 0]	n/a	catFR1	1	R1389J
778.921	11.379	823147	REC_WORD	18.839	n/a	HAWK	Birds	10	6	[0, 0, 0]	n/a	catFR1	1	R1389J
790.3	7.566	834525	REC_END	n/a	n/a	n/a	n/a	-999	6	[0, 0, 0]	n/a	catFR1	1	R1389J
797.866	10.0	842098	COUNTDOWN_START	n/a	n/a	n/a	n/a	-999	7	[0, 0, 0]	n/a	catFR1	1	R1389J
808.226	0.0	852453	COUNTDOWN_END	n/a	n/a	n/a	n/a	-999	7	[0, 0, 0]	n/a	catFR1	1	R1389J
808.226	2.006	852453	ENCODING_START	n/a	n/a	n/a	n/a	-999	7	[0, 0, 0]	n/a	catFR1	1	R1389J
810.232	1.6	854462	WORD	n/a	wordpools/wordpool_categorized_EN.txt	SPEAKER	Electronics	1	7	[0, 0, 0]	n/a	catFR1	1	R1389J
811.832	0.999	856059	WORD_OFF	n/a	n/a	SPEAKER	Electronics	1	7	[0, 0, 0]	n/a	catFR1	1	R1389J
812.831	1.6	857051	WORD	n/a	wordpools/wordpool_categorized_EN.txt	SCANNER	Electronics	2	7	[0, 0, 0]	n/a	catFR1	1	R1389J
814.432	0.851	858660	WORD_OFF	n/a	n/a	SCANNER	Electronics	2	7	[0, 0, 0]	n/a	catFR1	1	R1389J
815.283	1.6	859506	WORD	n/a	wordpools/wordpool_categorized_EN.txt	FLY	Insects	3	7	[0, 0, 0]	n/a	catFR1	1	R1389J
816.882	0.967	861103	WORD_OFF	n/a	n/a	FLY	Insects	3	7	[0, 0, 0]	n/a	catFR1	1	R1389J
817.849	1.6	862071	WORD	n/a	wordpools/wordpool_categorized_EN.txt	BEE	Insects	4	7	[0, 0, 0]	n/a	catFR1	1	R1389J
819.464	1.0	863692	WORD_OFF	n/a	n/a	BEE	Insects	4	7	[0, 0, 0]	n/a	catFR1	1	R1389J
820.464	1.6	864684	WORD	n/a	wordpools/wordpool_categorized_EN.txt	FLOOR	Building	5	7	[0, 0, 0]	n/a	catFR1	1	R1389J
822.065	0.834	866293	WORD_OFF	n/a	n/a	FLOOR	Building	5	7	[0, 0, 0]	n/a	catFR1	1	R1389J
822.899	1.6	867128	WORD	n/a	wordpools/wordpool_categorized_EN.txt	WINDOW	Building	6	7	[0, 0, 0]	n/a	catFR1	1	R1389J
824.499	0.932	868725	WORD_OFF	n/a	n/a	WINDOW	Building	6	7	[0, 0, 0]	n/a	catFR1	1	R1389J
825.431	1.6	869656	WORD	n/a	wordpools/wordpool_categorized_EN.txt	MOSQUITO	Insects	7	7	[0, 0, 0]	n/a	catFR1	1	R1389J
827.032	0.983	871253	WORD_OFF	n/a	n/a	MOSQUITO	Insects	7	7	[0, 0, 0]	n/a	catFR1	1	R1389J
828.015	1.6	872245	WORD	n/a	wordpools/wordpool_categorized_EN.txt	CRICKET	Insects	8	7	[0, 0, 0]	n/a	catFR1	1	R1389J
829.615	0.95	873842	WORD_OFF	n/a	n/a	CRICKET	Insects	8	7	[0, 0, 0]	n/a	catFR1	1	R1389J
830.565	1.6	874786	WORD	n/a	wordpools/wordpool_categorized_EN.txt	STAIRS	Building	9	7	[0, 0, 0]	n/a	catFR1	1	R1389J
832.165	0.817	876395	WORD_OFF	n/a	n/a	STAIRS	Building	9	7	[0, 0, 0]	n/a	catFR1	1	R1389J
832.982	1.6	877205	WORD	n/a	wordpools/wordpool_categorized_EN.txt	ROOF	Building	10	7	[0, 0, 0]	n/a	catFR1	1	R1389J
834.599	0.882	878826	WORD_OFF	n/a	n/a	ROOF	Building	10	7	[0, 0, 0]	n/a	catFR1	1	R1389J
835.481	1.6	879709	WORD	n/a	wordpools/wordpool_categorized_EN.txt	COMPUTER	Electronics	11	7	[0, 0, 0]	n/a	catFR1	1	R1389J
837.082	0.782	881306	WORD_OFF	n/a	n/a	COMPUTER	Electronics	11	7	[0, 0, 0]	n/a	catFR1	1	R1389J
837.864	1.6	882092	WORD	n/a	wordpools/wordpool_categorized_EN.txt	CALCULATOR	Electronics	12	7	[0, 0, 0]	n/a	catFR1	1	R1389J
839.465	0.0	883688	PROB	6.283	n/a	n/a	n/a	-999	7	[5, 5, 3]	13.0	catFR1	1	R1389J
839.465	0.001	883689	WORD_OFF	n/a	n/a	CALCULATOR	Electronics	12	7	[0, 0, 0]	n/a	catFR1	1	R1389J
839.466	0.0	883689	ENCODING_END	n/a	n/a	n/a	n/a	-999	7	[0, 0, 0]	n/a	catFR1	1	R1389J
839.466	0.0	883689	DISTRACT_START	n/a	n/a	n/a	n/a	-999	7	[0, 0, 0]	n/a	catFR1	1	R1389J
839.466	6.3	883689	START	n/a	n/a	n/a	n/a	-999	7	[-999, -999, -999]	n/a	catFR1	1	R1389J
845.766	9.133	889989	PROB	9.116	n/a	n/a	n/a	-999	7	[2, 6, 6]	14.0	catFR1	1	R1389J
854.899	6.249	899122	PROB	6.233	n/a	n/a	n/a	-999	7	[4, 5, 5]	14.0	catFR1	1	R1389J
861.148	0.0	905368	DISTRACT_END	n/a	n/a	n/a	n/a	-999	7	[0, 0, 0]	n/a	catFR1	1	R1389J
861.148	2.151	905370	STOP	n/a	n/a	n/a	n/a	-999	7	[-999, -999, -999]	n/a	catFR1	1	R1389J
863.299	7.06	907517	REC_START	n/a	n/a	n/a	n/a	-999	7	[0, 0, 0]	n/a	catFR1	1	R1389J
870.359	23.157	914581	REC_WORD_VV	7.06	n/a	<>	n/a	-999	7	[0, 0, 0]	n/a	catFR1	1	R1389J
893.516	33.799	937741	REC_END	n/a	n/a	n/a	n/a	-999	7	[0, 0, 0]	n/a	catFR1	1	R1389J
927.315	10.0	971542	COUNTDOWN_START	n/a	n/a	n/a	n/a	-999	8	[0, 0, 0]	n/a	catFR1	1	R1389J
937.674	0.0	981897	COUNTDOWN_END	n/a	n/a	n/a	n/a	-999	8	[0, 0, 0]	n/a	catFR1	1	R1389J
937.674	2.007	981897	ENCODING_START	n/a	n/a	n/a	n/a	-999	8	[0, 0, 0]	n/a	catFR1	1	R1389J
939.681	1.6	983905	WORD	n/a	wordpools/wordpool_categorized_EN.txt	JACKET	Clothing	1	8	[0, 0, 0]	n/a	catFR1	1	R1389J
941.282	0.95	985502	WORD_OFF	n/a	n/a	JACKET	Clothing	1	8	[0, 0, 0]	n/a	catFR1	1	R1389J
942.232	1.6	986446	WORD	n/a	wordpools/wordpool_categorized_EN.txt	COAT	Clothing	2	8	[0, 0, 0]	n/a	catFR1	1	R1389J
943.849	0.783	988067	WORD_OFF	n/a	n/a	COAT	Clothing	2	8	[0, 0, 0]	n/a	catFR1	1	R1389J
944.632	1.6	988853	WORD	n/a	wordpools/wordpool_categorized_EN.txt	MOTORCYCLE	Vehicles	3	8	[0, 0, 0]	n/a	catFR1	1	R1389J
946.232	1.0	990450	WORD_OFF	n/a	n/a	MOTORCYCLE	Vehicles	3	8	[0, 0, 0]	n/a	catFR1	1	R1389J
947.232	1.6	991454	WORD	n/a	wordpools/wordpool_categorized_EN.txt	CAR	Vehicles	4	8	[0, 0, 0]	n/a	catFR1	1	R1389J
948.848	0.884	993063	WORD_OFF	n/a	n/a	CAR	Vehicles	4	8	[0, 0, 0]	n/a	catFR1	1	R1389J
949.732	1.6	993946	WORD	n/a	wordpools/wordpool_categorized_EN.txt	ORANGUTAN	Zoo	5	8	[0, 0, 0]	n/a	catFR1	1	R1389J
951.348	0.983	995568	WORD_OFF	n/a	n/a	ORANGUTAN	Zoo	5	8	[0, 0, 0]	n/a	catFR1	1	R1389J
952.331	1.6	996547	WORD	n/a	wordpools/wordpool_categorized_EN.txt	TIGER	Zoo	6	8	[0, 0, 0]	n/a	catFR1	1	R1389J
953.932	0.766	998156	WORD_OFF	n/a	n/a	TIGER	Zoo	6	8	[0, 0, 0]	n/a	catFR1	1	R1389J
954.698	1.6	998919	WORD	n/a	wordpools/wordpool_categorized_EN.txt	SHIRT	Clothing	7	8	[0, 0, 0]	n/a	catFR1	1	R1389J
956.298	0.767	1000515	WORD_OFF	n/a	n/a	SHIRT	Clothing	7	8	[0, 0, 0]	n/a	catFR1	1	R1389J
957.065	1.6	1001290	WORD	n/a	wordpools/wordpool_categorized_EN.txt	SKIRT	Clothing	8	8	[0, 0, 0]	n/a	catFR1	1	R1389J
958.682	0.85	1002899	WORD_OFF	n/a	n/a	SKIRT	Clothing	8	8	[0, 0, 0]	n/a	catFR1	1	R1389J
959.532	1.6	1003745	WORD	n/a	wordpools/wordpool_categorized_EN.txt	SCOOTER	Vehicles	9	8	[0, 0, 0]	n/a	catFR1	1	R1389J
961.148	0.767	1005367	WORD_OFF	n/a	n/a	SCOOTER	Vehicles	9	8	[0, 0, 0]	n/a	catFR1	1	R1389J
961.915	1.6	1006129	WORD	n/a	wordpools/wordpool_categorized_EN.txt	PLANE	Vehicles	10	8	[0, 0, 0]	n/a	catFR1	1	R1389J
963.515	0.917	1007738	WORD_OFF	n/a	n/a	PLANE	Vehicles	10	8	[0, 0, 0]	n/a	catFR1	1	R1389J
964.432	1.6	1008645	WORD	n/a	wordpools/wordpool_categorized_EN.txt	CHIMPANZEE	Zoo	11	8	[0, 0, 0]	n/a	catFR1	1	R1389J
966.048	0.984	1010266	WORD_OFF	n/a	n/a	CHIMPANZEE	Zoo	11	8	[0, 0, 0]	n/a	catFR1	1	R1389J
967.032	1.6	1011246	WORD	n/a	wordpools/wordpool_categorized_EN.txt	GIRAFFE	Zoo	12	8	[0, 0, 0]	n/a	catFR1	1	R1389J
968.632	0.001	1012850	PROB	4.982	n/a	n/a	n/a	-999	8	[1, 3, 3]	7.0	catFR1	1	R1389J
968.633	0.0	1012851	START	n/a	n/a	n/a	n/a	-999	8	[-999, -999, -999]	n/a	catFR1	1	R1389J
968.632	0.001	1012855	WORD_OFF	n/a	n/a	GIRAFFE	Zoo	12	8	[0, 0, 0]	n/a	catFR1	1	R1389J
968.633	0.0	1012855	ENCODING_END	n/a	n/a	n/a	n/a	-999	8	[0, 0, 0]	n/a	catFR1	1	R1389J
968.633	4.999	1012855	DISTRACT_START	n/a	n/a	n/a	n/a	-999	8	[0, 0, 0]	n/a	catFR1	1	R1389J
973.632	7.05	1017850	PROB	7.033	n/a	n/a	n/a	-999	8	[6, 3, 2]	11.0	catFR1	1	R1389J
980.682	6.933	1024899	PROB	6.916	n/a	n/a	n/a	-999	8	[6, 8, 8]	22.0	catFR1	1	R1389J
987.615	9.534	1031832	PROB	9.517	n/a	n/a	n/a	-999	8	[2, 6, 7]	15.0	catFR1	1	R1389J
997.149	0.0	1041366	STOP	n/a	n/a	n/a	n/a	-999	8	[-999, -999, -999]	n/a	catFR1	1	R1389J
997.149	2.133	1041369	DISTRACT_END	n/a	n/a	n/a	n/a	-999	8	[0, 0, 0]	n/a	catFR1	1	R1389J
999.282	4.665	1043494	REC_START	n/a	n/a	n/a	n/a	-999	8	[0, 0, 0]	n/a	catFR1	1	R1389J
1003.947	2.385	1048163	REC_WORD	4.665	n/a	JACKET	Clothing	1	8	[0, 0, 0]	n/a	catFR1	1	R1389J
1006.332	1.991	1050548	REC_WORD	7.05	n/a	SHIRT	Clothing	7	8	[0, 0, 0]	n/a	catFR1	1	R1389J
1008.323	2.66	1052539	REC_WORD	9.041	n/a	COAT	Clothing	2	8	[0, 0, 0]	n/a	catFR1	1	R1389J
1010.983	18.505	1055199	REC_WORD	11.701	n/a	SKIRT	Clothing	8	8	[0, 0, 0]	n/a	catFR1	1	R1389J
1029.488	8.178	1073706	REC_END	n/a	n/a	n/a	n/a	-999	8	[0, 0, 0]	n/a	catFR1	1	R1389J
1037.666	10.0	1081884	COUNTDOWN_START	n/a	n/a	n/a	n/a	-999	9	[0, 0, 0]	n/a	catFR1	1	R1389J
1048.026	0.0	1092239	COUNTDOWN_END	n/a	n/a	n/a	n/a	-999	9	[0, 0, 0]	n/a	catFR1	1	R1389J
1048.026	2.223	1092239	ENCODING_START	n/a	n/a	n/a	n/a	-999	9	[0, 0, 0]	n/a	catFR1	1	R1389J
1050.249	1.6	1094465	WORD	n/a	wordpools/wordpool_categorized_EN.txt	CHEESECAKE	Desserts	1	9	[0, 0, 0]	n/a	catFR1	1	R1389J
1051.849	0.817	1096062	WORD_OFF	n/a	n/a	CHEESECAKE	Desserts	1	9	[0, 0, 0]	n/a	catFR1	1	R1389J
1052.666	1.6	1096884	WORD	n/a	wordpools/wordpool_categorized_EN.txt	PUDDING	Desserts	2	9	[0, 0, 0]	n/a	catFR1	1	R1389J
1054.266	0.849	1098481	WORD_OFF	n/a	n/a	PUDDING	Desserts	2	9	[0, 0, 0]	n/a	catFR1	1	R1389J
1055.115	1.6	1099328	WORD	n/a	wordpools/wordpool_categorized_EN.txt	ELBOW	BodyParts	3	9	[0, 0, 0]	n/a	catFR1	1	R1389J
1056.715	0.822	1100925	WORD_OFF	n/a	n/a	ELBOW	BodyParts	3	9	[0, 0, 0]	n/a	catFR1	1	R1389J
1057.537	1.6	1101748	WORD	n/a	wordpools/wordpool_categorized_EN.txt	HAND	BodyParts	4	9	[0, 0, 0]	n/a	catFR1	1	R1389J
1059.149	0.85	1103369	WORD_OFF	n/a	n/a	HAND	BodyParts	4	9	[0, 0, 0]	n/a	catFR1	1	R1389J
1059.999	1.6	1104216	WORD	n/a	wordpools/wordpool_categorized_EN.txt	OCEAN	Landscapes	5	9	[0, 0, 0]	n/a	catFR1	1	R1389J
1061.599	0.917	1105812	WORD_OFF	n/a	n/a	OCEAN	Landscapes	5	9	[0, 0, 0]	n/a	catFR1	1	R1389J
1062.516	1.6	1106732	WORD	n/a	wordpools/wordpool_categorized_EN.txt	MOUNTAIN	Landscapes	6	9	[0, 0, 0]	n/a	catFR1	1	R1389J
1064.116	0.766	1108329	WORD_OFF	n/a	n/a	MOUNTAIN	Landscapes	6	9	[0, 0, 0]	n/a	catFR1	1	R1389J
1064.882	1.6	1109103	WORD	n/a	wordpools/wordpool_categorized_EN.txt	CAKE	Desserts	7	9	[0, 0, 0]	n/a	catFR1	1	R1389J
1066.482	0.884	1110700	WORD_OFF	n/a	n/a	CAKE	Desserts	7	9	[0, 0, 0]	n/a	catFR1	1	R1389J
1067.366	1.6	1111583	WORD	n/a	wordpools/wordpool_categorized_EN.txt	JELLO	Desserts	8	9	[0, 0, 0]	n/a	catFR1	1	R1389J
1068.982	1.0	1113192	WORD_OFF	n/a	n/a	JELLO	Desserts	8	9	[0, 0, 0]	n/a	catFR1	1	R1389J
1069.982	1.6	1114196	WORD	n/a	wordpools/wordpool_categorized_EN.txt	TOE	BodyParts	9	9	[0, 0, 0]	n/a	catFR1	1	R1389J
1071.582	0.934	1115793	WORD_OFF	n/a	n/a	TOE	BodyParts	9	9	[0, 0, 0]	n/a	catFR1	1	R1389J
1072.516	1.6	1116724	WORD	n/a	wordpools/wordpool_categorized_EN.txt	EAR	BodyParts	10	9	[0, 0, 0]	n/a	catFR1	1	R1389J
1074.132	0.916	1118346	WORD_OFF	n/a	n/a	EAR	BodyParts	10	9	[0, 0, 0]	n/a	catFR1	1	R1389J
1075.048	1.6	1119265	WORD	n/a	wordpools/wordpool_categorized_EN.txt	RIVER	Landscapes	11	9	[0, 0, 0]	n/a	catFR1	1	R1389J
1076.649	0.867	1120862	WORD_OFF	n/a	n/a	RIVER	Landscapes	11	9	[0, 0, 0]	n/a	catFR1	1	R1389J
1077.516	1.6	1121733	WORD	n/a	wordpools/wordpool_categorized_EN.txt	LAKE	Landscapes	12	9	[0, 0, 0]	n/a	catFR1	1	R1389J
1079.132	0.001	1123342	WORD_OFF	n/a	n/a	LAKE	Landscapes	12	9	[0, 0, 0]	n/a	catFR1	1	R1389J
1079.133	0.001	1123346	PROB	7.233	n/a	n/a	n/a	-999	9	[4, 1, 7]	12.0	catFR1	1	R1389J
1079.134	0.0	1123347	START	n/a	n/a	n/a	n/a	-999	9	[-999, -999, -999]	n/a	catFR1	1	R1389J
1079.134	0.0	1123354	ENCODING_END	n/a	n/a	n/a	n/a	-999	9	[0, 0, 0]	n/a	catFR1	1	R1389J
1079.134	7.249	1123354	DISTRACT_START	n/a	n/a	n/a	n/a	-999	9	[0, 0, 0]	n/a	catFR1	1	R1389J
1086.383	6.366	1130596	PROB	6.349	n/a	n/a	n/a	-999	9	[5, 4, 3]	12.0	catFR1	1	R1389J
1092.749	6.149	1136962	PROB	6.133	n/a	n/a	n/a	-999	9	[6, 5, 1]	12.0	catFR1	1	R1389J
1098.898	14.484	1143110	PROB	14.466	n/a	n/a	n/a	-999	9	[3, 3, 8]	15.0	catFR1	1	R1389J
1113.382	0.0	1157590	DISTRACT_END	n/a	n/a	n/a	n/a	-999	9	[0, 0, 0]	n/a	catFR1	1	R1389J
1113.382	2.133	1157594	STOP	n/a	n/a	n/a	n/a	-999	9	[-999, -999, -999]	n/a	catFR1	1	R1389J
1115.515	3.119	1159727	REC_START	n/a	n/a	n/a	n/a	-999	9	[0, 0, 0]	n/a	catFR1	1	R1389J
1118.634	2.231	1162846	REC_WORD_VV	3.119	n/a	<>	n/a	-999	9	[0, 0, 0]	n/a	catFR1	1	R1389J
1120.865	2.464	1165077	REC_WORD	5.35	n/a	CHEESECAKE	Desserts	1	9	[0, 0, 0]	n/a	catFR1	1	R1389J
1123.329	2.1	1167540	REC_WORD	7.814	n/a	PUDDING	Desserts	2	9	[0, 0, 0]	n/a	catFR1	1	R1389J
1125.429	16.2	1169640	REC_WORD	9.914	n/a	CAKE	Desserts	7	9	[0, 0, 0]	n/a	catFR1	1	R1389J
1141.629	4.109	1185840	REC_WORD	26.114	n/a	YOGURT	n/a	-999	9	[0, 0, 0]	n/a	catFR1	1	R1389J
1145.738	12.028	1189951	REC_END	n/a	n/a	n/a	n/a	-999	9	[0, 0, 0]	n/a	catFR1	1	R1389J
1157.766	10.0	1201976	COUNTDOWN_START	n/a	n/a	n/a	n/a	-999	10	[0, 0, 0]	n/a	catFR1	1	R1389J
1168.127	0.0	1212344	COUNTDOWN_END	n/a	n/a	n/a	n/a	-999	10	[0, 0, 0]	n/a	catFR1	1	R1389J
1168.127	2.088	1212344	ENCODING_START	n/a	n/a	n/a	n/a	-999	10	[0, 0, 0]	n/a	catFR1	1	R1389J
1170.215	1.6	1214424	WORD	n/a	wordpools/wordpool_categorized_EN.txt	BUTTERFLY	Insects	1	10	[0, 0, 0]	n/a	catFR1	1	R1389J
1171.815	0.95	1216021	WORD_OFF	n/a	n/a	BUTTERFLY	Insects	1	10	[0, 0, 0]	n/a	catFR1	1	R1389J
1172.765	1.6	1216977	WORD	n/a	wordpools/wordpool_categorized_EN.txt	ANT	Insects	2	10	[0, 0, 0]	n/a	catFR1	1	R1389J
1174.365	0.883	1218574	WORD_OFF	n/a	n/a	ANT	Insects	2	10	[0, 0, 0]	n/a	catFR1	1	R1389J
1175.248	1.6	1219457	WORD	n/a	wordpools/wordpool_categorized_EN.txt	VACUUM	Appliances	3	10	[0, 0, 0]	n/a	catFR1	1	R1389J
1176.848	0.833	1221054	WORD_OFF	n/a	n/a	VACUUM	Appliances	3	10	[0, 0, 0]	n/a	catFR1	1	R1389J
1177.681	1.6	1221888	WORD	n/a	wordpools/wordpool_categorized_EN.txt	WASHER	Appliances	4	10	[0, 0, 0]	n/a	catFR1	1	R1389J
1179.298	0.95	1223510	WORD_OFF	n/a	n/a	WASHER	Appliances	4	10	[0, 0, 0]	n/a	catFR1	1	R1389J
1180.248	1.6	1224453	WORD	n/a	wordpools/wordpool_categorized_EN.txt	HEADPHONES	Electronics	5	10	[0, 0, 0]	n/a	catFR1	1	R1389J
1181.865	0.9	1226074	WORD_OFF	n/a	n/a	HEADPHONES	Electronics	5	10	[0, 0, 0]	n/a	catFR1	1	R1389J
1182.765	1.6	1226969	WORD	n/a	wordpools/wordpool_categorized_EN.txt	TABLET	Electronics	6	10	[0, 0, 0]	n/a	catFR1	1	R1389J
1184.381	1.0	1228591	WORD_OFF	n/a	n/a	TABLET	Electronics	6	10	[0, 0, 0]	n/a	catFR1	1	R1389J
1185.381	1.6	1229595	WORD	n/a	wordpools/wordpool_categorized_EN.txt	GNAT	Insects	7	10	[0, 0, 0]	n/a	catFR1	1	R1389J
1186.981	1.001	1231192	WORD_OFF	n/a	n/a	GNAT	Insects	7	10	[0, 0, 0]	n/a	catFR1	1	R1389J
1187.982	1.6	1232196	WORD	n/a	wordpools/wordpool_categorized_EN.txt	LADYBUG	Insects	8	10	[0, 0, 0]	n/a	catFR1	1	R1389J
1189.582	0.834	1233792	WORD_OFF	n/a	n/a	LADYBUG	Insects	8	10	[0, 0, 0]	n/a	catFR1	1	R1389J
1190.416	1.6	1234627	WORD	n/a	wordpools/wordpool_categorized_EN.txt	TELEVISION	Electronics	9	10	[0, 0, 0]	n/a	catFR1	1	R1389J
1192.016	0.983	1236224	WORD_OFF	n/a	n/a	TELEVISION	Electronics	9	10	[0, 0, 0]	n/a	catFR1	1	R1389J
1192.999	1.6	1237204	WORD	n/a	wordpools/wordpool_categorized_EN.txt	PHONE	Electronics	10	10	[0, 0, 0]	n/a	catFR1	1	R1389J
1194.615	0.967	1238825	WORD_OFF	n/a	n/a	PHONE	Electronics	10	10	[0, 0, 0]	n/a	catFR1	1	R1389J
1195.582	1.6	1239793	WORD	n/a	wordpools/wordpool_categorized_EN.txt	DRYER	Appliances	11	10	[0, 0, 0]	n/a	catFR1	1	R1389J
1197.182	0.783	1241390	WORD_OFF	n/a	n/a	DRYER	Appliances	11	10	[0, 0, 0]	n/a	catFR1	1	R1389J
1197.965	1.6	1242176	WORD	n/a	wordpools/wordpool_categorized_EN.txt	MIXER	Appliances	12	10	[0, 0, 0]	n/a	catFR1	1	R1389J
1199.566	0.001	1243773	WORD_OFF	n/a	n/a	MIXER	Appliances	12	10	[0, 0, 0]	n/a	catFR1	1	R1389J
1199.567	0.0	1243773	ENCODING_END	n/a	n/a	n/a	n/a	-999	10	[0, 0, 0]	n/a	catFR1	1	R1389J
1199.566	0.001	1243774	PROB	9.966	n/a	n/a	n/a	-999	10	[8, 7, 7]	22.0	catFR1	1	R1389J
1199.567	0.0	1243775	START	n/a	n/a	n/a	n/a	-999	10	[-999, -999, -999]	n/a	catFR1	1	R1389J
1199.567	9.981	1243785	DISTRACT_START	n/a	n/a	n/a	n/a	-999	10	[0, 0, 0]	n/a	catFR1	1	R1389J
1209.548	10.501	1253756	PROB	10.484	n/a	n/a	n/a	-999	10	[5, 8, 2]	14.0	catFR1	1	R1389J
1220.049	0.0	1264254	DISTRACT_END	n/a	n/a	n/a	n/a	-999	10	[0, 0, 0]	n/a	catFR1	1	R1389J
1220.049	2.383	1264256	STOP	n/a	n/a	n/a	n/a	-999	10	[-999, -999, -999]	n/a	catFR1	1	R1389J
1222.432	6.66	1266645	REC_START	n/a	n/a	n/a	n/a	-999	10	[0, 0, 0]	n/a	catFR1	1	R1389J
1229.092	4.24	1273299	REC_WORD	6.66	n/a	PHONE	Electronics	10	10	[0, 0, 0]	n/a	catFR1	1	R1389J
1233.332	19.324	1277539	REC_WORD	10.9	n/a	DRYER	Appliances	11	10	[0, 0, 0]	n/a	catFR1	1	R1389J
1252.656	9.761	1296857	REC_END	n/a	n/a	n/a	n/a	-999	10	[0, 0, 0]	n/a	catFR1	1	R1389J
1262.417	10.0	1306632	COUNTDOWN_START	n/a	n/a	n/a	n/a	-999	11	[0, 0, 0]	n/a	catFR1	1	R1389J
1272.776	0.0	1316987	COUNTDOWN_END	n/a	n/a	n/a	n/a	-999	11	[0, 0, 0]	n/a	catFR1	1	R1389J
1272.776	2.022	1316987	ENCODING_START	n/a	n/a	n/a	n/a	-999	11	[0, 0, 0]	n/a	catFR1	1	R1389J
1274.798	1.6	1319008	WORD	n/a	wordpools/wordpool_categorized_EN.txt	BEAR	Zoo	1	11	[0, 0, 0]	n/a	catFR1	1	R1389J
1276.399	0.933	1320605	WORD_OFF	n/a	n/a	BEAR	Zoo	1	11	[0, 0, 0]	n/a	catFR1	1	R1389J
1277.332	1.6	1321536	WORD	n/a	wordpools/wordpool_categorized_EN.txt	MONKEY	Zoo	2	11	[0, 0, 0]	n/a	catFR1	1	R1389J
1278.932	0.817	1323133	WORD_OFF	n/a	n/a	MONKEY	Zoo	2	11	[0, 0, 0]	n/a	catFR1	1	R1389J
1279.749	1.6	1323956	WORD	n/a	wordpools/wordpool_categorized_EN.txt	WALNUT	Trees	3	11	[0, 0, 0]	n/a	catFR1	1	R1389J
1281.365	1.0	1325577	WORD_OFF	n/a	n/a	WALNUT	Trees	3	11	[0, 0, 0]	n/a	catFR1	1	R1389J
1282.365	1.6	1326569	WORD	n/a	wordpools/wordpool_categorized_EN.txt	CEDAR	Trees	4	11	[0, 0, 0]	n/a	catFR1	1	R1389J
1283.965	0.9	1328165	WORD_OFF	n/a	n/a	CEDAR	Trees	4	11	[0, 0, 0]	n/a	catFR1	1	R1389J
1284.865	1.6	1329073	WORD	n/a	wordpools/wordpool_categorized_EN.txt	VIOLIN	Instruments	5	11	[0, 0, 0]	n/a	catFR1	1	R1389J
1286.465	0.834	1330670	WORD_OFF	n/a	n/a	VIOLIN	Instruments	5	11	[0, 0, 0]	n/a	catFR1	1	R1389J
1287.299	1.6	1331504	WORD	n/a	wordpools/wordpool_categorized_EN.txt	TRUMPET	Instruments	6	11	[0, 0, 0]	n/a	catFR1	1	R1389J
1288.899	0.882	1333101	WORD_OFF	n/a	n/a	TRUMPET	Instruments	6	11	[0, 0, 0]	n/a	catFR1	1	R1389J
1289.781	1.6	1333984	WORD	n/a	wordpools/wordpool_categorized_EN.txt	WILLOW	Trees	7	11	[0, 0, 0]	n/a	catFR1	1	R1389J
1291.382	0.95	1335593	WORD_OFF	n/a	n/a	WILLOW	Trees	7	11	[0, 0, 0]	n/a	catFR1	1	R1389J
1292.332	1.6	1336537	WORD	n/a	wordpools/wordpool_categorized_EN.txt	EVERGREEN	Trees	8	11	[0, 0, 0]	n/a	catFR1	1	R1389J
1293.949	0.883	1338158	WORD_OFF	n/a	n/a	EVERGREEN	Trees	8	11	[0, 0, 0]	n/a	catFR1	1	R1389J
1294.832	1.6	1339041	WORD	n/a	wordpools/wordpool_categorized_EN.txt	CHEETAH	Zoo	9	11	[0, 0, 0]	n/a	catFR1	1	R1389J
1296.432	0.883	1340638	WORD_OFF	n/a	n/a	CHEETAH	Zoo	9	11	[0, 0, 0]	n/a	catFR1	1	R1389J
1297.315	1.6	1341521	WORD	n/a	wordpools/wordpool_categorized_EN.txt	ELEPHANT	Zoo	10	11	[0, 0, 0]	n/a	catFR1	1	R1389J
1298.916	0.916	1343118	WORD_OFF	n/a	n/a	ELEPHANT	Zoo	10	11	[0, 0, 0]	n/a	catFR1	1	R1389J
1299.832	1.6	1344037	WORD	n/a	wordpools/wordpool_categorized_EN.txt	TROMBONE	Instruments	11	11	[0, 0, 0]	n/a	catFR1	1	R1389J
1301.449	1.0	1345659	WORD_OFF	n/a	n/a	TROMBONE	Instruments	11	11	[0, 0, 0]	n/a	catFR1	1	R1389J
1302.449	1.6	1346651	WORD	n/a	wordpools/wordpool_categorized_EN.txt	ORGAN	Instruments	12	11	[0, 0, 0]	n/a	catFR1	1	R1389J
1304.066	0.001	1348270	PROB	7.183	n/a	n/a	n/a	-999	11	[7, 1, 2]	10.0	catFR1	1	R1389J
1304.067	0.0	1348271	START	n/a	n/a	n/a	n/a	-999	11	[-999, -999, -999]	n/a	catFR1	1	R1389J
1304.065	0.002	1348272	WORD_OFF	n/a	n/a	ORGAN	Instruments	12	11	[0, 0, 0]	n/a	catFR1	1	R1389J
1304.067	0.0	1348272	ENCODING_END	n/a	n/a	n/a	n/a	-999	11	[0, 0, 0]	n/a	catFR1	1	R1389J
1304.067	7.198	1348272	DISTRACT_START	n/a	n/a	n/a	n/a	-999	11	[0, 0, 0]	n/a	catFR1	1	R1389J
1311.265	6.918	1355469	PROB	6.9	n/a	n/a	n/a	-999	11	[7, 2, 4]	13.0	catFR1	1	R1389J
1318.183	9.332	1362386	PROB	9.316	n/a	n/a	n/a	-999	11	[5, 8, 2]	15.0	catFR1	1	R1389J
1327.515	0.0	1371717	DISTRACT_END	n/a	n/a	n/a	n/a	-999	11	[0, 0, 0]	n/a	catFR1	1	R1389J
1327.515	2.334	1371718	STOP	n/a	n/a	n/a	n/a	-999	11	[-999, -999, -999]	n/a	catFR1	1	R1389J
1329.849	2.495	1374047	REC_START	n/a	n/a	n/a	n/a	-999	11	[0, 0, 0]	n/a	catFR1	1	R1389J
1332.344	2.705	1376547	REC_WORD	2.495	n/a	BEAR	Zoo	1	11	[0, 0, 0]	n/a	catFR1	1	R1389J
1335.049	2.978	1379252	REC_WORD	5.2	n/a	ELEPHANT	Zoo	10	11	[0, 0, 0]	n/a	catFR1	1	R1389J
1338.027	3.658	1382229	REC_WORD	8.178	n/a	MONKEY	Zoo	2	11	[0, 0, 0]	n/a	catFR1	1	R1389J
1341.685	4.239	1385887	REC_WORD	11.836	n/a	DRYER	Appliances	-999	11	[0, 0, 0]	n/a	catFR1	1	R1389J
1345.924	14.127	1390126	REC_WORD_VV	16.075	n/a	<>	n/a	-999	11	[0, 0, 0]	n/a	catFR1	1	R1389J
1360.051	9.531	1404259	REC_END	n/a	n/a	n/a	n/a	-999	11	[0, 0, 0]	n/a	catFR1	1	R1389J
1369.582	10.0	1413792	COUNTDOWN_START	n/a	n/a	n/a	n/a	-999	12	[0, 0, 0]	n/a	catFR1	1	R1389J
1379.945	0.0	1424147	COUNTDOWN_END	n/a	n/a	n/a	n/a	-999	12	[0, 0, 0]	n/a	catFR1	1	R1389J
1379.945	2.153	1424147	ENCODING_START	n/a	n/a	n/a	n/a	-999	12	[0, 0, 0]	n/a	catFR1	1	R1389J
1382.098	1.6	1426301	WORD	n/a	wordpools/wordpool_categorized_EN.txt	VALLEY	Landscapes	1	12	[0, 0, 0]	n/a	catFR1	1	R1389J
1383.699	0.767	1427898	WORD_OFF	n/a	n/a	VALLEY	Landscapes	1	12	[0, 0, 0]	n/a	catFR1	1	R1389J
1384.466	1.6	1428672	WORD	n/a	wordpools/wordpool_categorized_EN.txt	HILLS	Landscapes	2	12	[0, 0, 0]	n/a	catFR1	1	R1389J
1386.082	0.917	1430281	WORD_OFF	n/a	n/a	HILLS	Landscapes	2	12	[0, 0, 0]	n/a	catFR1	1	R1389J
1386.999	1.6	1431200	WORD	n/a	wordpools/wordpool_categorized_EN.txt	ZEBRA	Zoo	3	12	[0, 0, 0]	n/a	catFR1	1	R1389J
1388.616	0.95	1432821	WORD_OFF	n/a	n/a	ZEBRA	Zoo	3	12	[0, 0, 0]	n/a	catFR1	1	R1389J
1389.566	1.6	1433765	WORD	n/a	wordpools/wordpool_categorized_EN.txt	GORILLA	Zoo	4	12	[0, 0, 0]	n/a	catFR1	1	R1389J
1391.182	0.767	1435386	WORD_OFF	n/a	n/a	GORILLA	Zoo	4	12	[0, 0, 0]	n/a	catFR1	1	R1389J
1391.949	1.6	1436148	WORD	n/a	wordpools/wordpool_categorized_EN.txt	LILY	Flowers	5	12	[0, 0, 0]	n/a	catFR1	1	R1389J
1393.565	0.883	1437769	WORD_OFF	n/a	n/a	LILY	Flowers	5	12	[0, 0, 0]	n/a	catFR1	1	R1389J
1394.448	1.6	1438652	WORD	n/a	wordpools/wordpool_categorized_EN.txt	LILAC	Flowers	6	12	[0, 0, 0]	n/a	catFR1	1	R1389J
1396.049	0.849	1440249	WORD_OFF	n/a	n/a	LILAC	Flowers	6	12	[0, 0, 0]	n/a	catFR1	1	R1389J
1396.898	1.6	1441096	WORD	n/a	wordpools/wordpool_categorized_EN.txt	PANDA	Zoo	7	12	[0, 0, 0]	n/a	catFR1	1	R1389J
1398.498	0.934	1442705	WORD_OFF	n/a	n/a	PANDA	Zoo	7	12	[0, 0, 0]	n/a	catFR1	1	R1389J
1399.432	1.6	1443637	WORD	n/a	wordpools/wordpool_categorized_EN.txt	LION	Zoo	8	12	[0, 0, 0]	n/a	catFR1	1	R1389J
1401.032	0.817	1445233	WORD_OFF	n/a	n/a	LION	Zoo	8	12	[0, 0, 0]	n/a	catFR1	1	R1389J
1401.849	1.6	1446044	WORD	n/a	wordpools/wordpool_categorized_EN.txt	ISLAND	Landscapes	9	12	[0, 0, 0]	n/a	catFR1	1	R1389J
1403.465	0.95	1447665	WORD_OFF	n/a	n/a	ISLAND	Landscapes	9	12	[0, 0, 0]	n/a	catFR1	1	R1389J
1404.415	1.6	1448621	WORD	n/a	wordpools/wordpool_categorized_EN.txt	FOREST	Landscapes	10	12	[0, 0, 0]	n/a	catFR1	1	R1389J
1406.032	0.766	1450230	WORD_OFF	n/a	n/a	FOREST	Landscapes	10	12	[0, 0, 0]	n/a	catFR1	1	R1389J
1406.798	1.6	1451004	WORD	n/a	wordpools/wordpool_categorized_EN.txt	TULIP	Flowers	11	12	[0, 0, 0]	n/a	catFR1	1	R1389J
1408.399	1.0	1452601	WORD_OFF	n/a	n/a	TULIP	Flowers	11	12	[0, 0, 0]	n/a	catFR1	1	R1389J
1409.399	1.6	1453605	WORD	n/a	wordpools/wordpool_categorized_EN.txt	DAISY	Flowers	12	12	[0, 0, 0]	n/a	catFR1	1	R1389J
1410.999	0.002	1455198	PROB	11.032	n/a	n/a	n/a	-999	12	[3, 7, 8]	18.0	catFR1	1	R1389J
1411.001	0.0	1455200	START	n/a	n/a	n/a	n/a	-999	12	[-999, -999, -999]	n/a	catFR1	1	R1389J
1410.999	0.001	1455202	WORD_OFF	n/a	n/a	DAISY	Flowers	12	12	[0, 0, 0]	n/a	catFR1	1	R1389J
1411.0	0.001	1455202	ENCODING_END	n/a	n/a	n/a	n/a	-999	12	[0, 0, 0]	n/a	catFR1	1	R1389J
1411.001	11.048	1455202	DISTRACT_START	n/a	n/a	n/a	n/a	-999	12	[0, 0, 0]	n/a	catFR1	1	R1389J
1422.049	3.667	1466248	PROB	3.65	n/a	n/a	n/a	-999	12	[1, 2, 2]	5.0	catFR1	1	R1389J
1425.716	7.499	1469915	PROB	7.483	n/a	n/a	n/a	-999	12	[5, 2, 1]	8.0	catFR1	1	R1389J
1433.215	0.0	1477413	DISTRACT_END	n/a	n/a	n/a	n/a	-999	12	[0, 0, 0]	n/a	catFR1	1	R1389J
1433.215	2.266	1477413	STOP	n/a	n/a	n/a	n/a	-999	12	[-999, -999, -999]	n/a	catFR1	1	R1389J
1435.481	3.109	1479683	REC_START	n/a	n/a	n/a	n/a	-999	12	[0, 0, 0]	n/a	catFR1	1	R1389J
1438.59	1.811	1482788	REC_WORD_VV	3.109	n/a	<>	n/a	-999	12	[0, 0, 0]	n/a	catFR1	1	R1389J
1440.401	1.491	1484599	REC_WORD	4.92	n/a	GORILLA	Zoo	4	12	[0, 0, 0]	n/a	catFR1	1	R1389J
1441.892	2.765	1486090	REC_WORD	6.411	n/a	LION	Zoo	8	12	[0, 0, 0]	n/a	catFR1	1	R1389J
1444.657	2.845	1488855	REC_WORD_VV	9.176	n/a	<>	n/a	-999	12	[0, 0, 0]	n/a	catFR1	1	R1389J
1447.502	4.245	1491700	REC_WORD	12.021	n/a	ZEBRA	Zoo	3	12	[0, 0, 0]	n/a	catFR1	1	R1389J
1451.747	13.915	1495945	REC_WORD	16.266	n/a	TULIP	Flowers	11	12	[0, 0, 0]	n/a	catFR1	1	R1389J
1465.662	0.0	1509859	REC_END	n/a	n/a	n/a	n/a	-999	12	[0, 0, 0]	n/a	catFR1	1	R1389J
