onset	duration	sample	trial_type	response_time	stim_file	item_name	category	serialpos	list	test	answer	experiment	session	subject
0.0	38.22	71367	SESS_START	n/a	n/a	n/a	n/a	-999	-999	[0, 0, 0]	n/a	catFR1	1	R1032D
38.22	10.428	132507	COUNTDOWN_START	n/a	n/a	n/a	n/a	-999	-999	[0, 0, 0]	n/a	catFR1	1	R1032D
48.648	3.608	149188	COUNTDOWN_END	n/a	n/a	n/a	n/a	-999	-999	[0, 0, 0]	n/a	catFR1	1	R1032D
52.256	2.551	154960	PRACTICE_WORD	n/a	n/a	WAGON	n/a	-999	-999	[0, 0, 0]	n/a	catFR1	1	R1032D
54.807	2.617	159041	PRACTICE_WORD	n/a	n/a	RHINO	n/a	-999	-999	[0, 0, 0]	n/a	catFR1	1	R1032D
57.424	2.45	163227	PRACTICE_WORD	n/a	n/a	IRON	n/a	-999	-999	[0, 0, 0]	n/a	catFR1	1	R1032D
59.874	2.517	167147	PRACTICE_WORD	n/a	n/a	BEAM	n/a	-999	-999	[0, 0, 0]	n/a	catFR1	1	R1032D
62.391	2.384	171173	PRACTICE_WORD	n/a	n/a	FLOOD	n/a	-999	-999	[0, 0, 0]	n/a	catFR1	1	R1032D
64.775	2.518	174987	PRACTICE_WORD	n/a	n/a	COTTON	n/a	-999	-999	[0, 0, 0]	n/a	catFR1	1	R1032D
67.293	2.433	179015	PRACTICE_WORD	n/a	n/a	CAMEL	n/a	-999	-999	[0, 0, 0]	n/a	catFR1	1	R1032D
69.726	2.568	182907	PRACTICE_WORD	n/a	n/a	WATCH	n/a	-999	-999	[0, 0, 0]	n/a	catFR1	1	R1032D
72.294	2.449	187015	PRACTICE_WORD	n/a	n/a	RING	n/a	-999	-999	[0, 0, 0]	n/a	catFR1	1	R1032D
74.743	2.434	190932	PRACTICE_WORD	n/a	n/a	TONGUE	n/a	-999	-999	[0, 0, 0]	n/a	catFR1	1	R1032D
77.177	2.584	194826	PRACTICE_WORD	n/a	n/a	CHEST	n/a	-999	-999	[0, 0, 0]	n/a	catFR1	1	R1032D
79.761	1.6	198960	PRACTICE_WORD	n/a	n/a	ATTIC	n/a	-999	-999	[0, 0, 0]	n/a	catFR1	1	R1032D
81.361	0.0	201519	PRACTICE_DISTRACT_START	n/a	n/a	n/a	n/a	-999	-999	[0, 0, 0]	n/a	catFR1	1	R1032D
81.361	0.017	201519	START	n/a	n/a	n/a	n/a	-999	-1	[-999, -999, -999]	n/a	catFR1	1	R1032D
81.378	9.152	201546	PROB	9.152	n/a	n/a	n/a	-999	-1	[7, 9, 6]	17	catFR1	1	R1032D
90.53	7.284	216187	PROB	7.284	n/a	n/a	n/a	-999	-1	[2, 8, 5]	15	catFR1	1	R1032D
97.814	4.553	227839	PROB	4.553	n/a	n/a	n/a	-999	-1	[1, 3, 9]	13	catFR1	1	R1032D
102.367	0.015	235122	STOP	n/a	n/a	n/a	n/a	-999	-1	[-999, -999, -999]	n/a	catFR1	1	R1032D
102.382	0.636	235146	PRACTICE_DISTRACT_END	n/a	n/a	n/a	n/a	-999	-999	[0, 0, 0]	n/a	catFR1	1	R1032D
103.018	30.514	236164	PRACTICE_REC_START	n/a	n/a	n/a	n/a	-999	-999	[0, 0, 0]	n/a	catFR1	1	R1032D
133.532	18.342	284977	PRACTICE_REC_END	n/a	n/a	n/a	n/a	-999	-999	[0, 0, 0]	n/a	catFR1	1	R1032D
151.874	0.001	314319	COUNTDOWN_START	n/a	n/a	n/a	n/a	-999	1	[0, 0, 0]	n/a	catFR1	1	R1032D
151.875	10.427	314320	TRIAL	n/a	n/a	n/a	n/a	-999	1	[0, 0, 0]	n/a	catFR1	1	R1032D
162.302	0.008	331000	COUNTDOWN_END	n/a	n/a	n/a	n/a	-999	1	[0, 0, 0]	n/a	catFR1	1	R1032D
162.31	3.8	331013	ORIENT	n/a	n/a	n/a	n/a	-999	1	[0, 0, 0]	n/a	catFR1	1	R1032D
166.11	2.45	337092	WORD	n/a	wordpools/wordpool_categorized_EN.txt	CARROT	Vegetables	1	1	[0, 0, 0]	n/a	catFR1	1	R1032D
168.56	2.368	341011	WORD	n/a	wordpools/wordpool_categorized_EN.txt	BROCCOLI	Vegetables	2	1	[0, 0, 0]	n/a	catFR1	1	R1032D
170.928	2.584	344799	WORD	n/a	wordpools/wordpool_categorized_EN.txt	TORNADO	Weather	3	1	[0, 0, 0]	n/a	catFR1	1	R1032D
173.512	2.383	348933	WORD	n/a	wordpools/wordpool_categorized_EN.txt	DRIZZLE	Weather	4	1	[0, 0, 0]	n/a	catFR1	1	R1032D
175.895	2.501	352745	WORD	n/a	wordpools/wordpool_categorized_EN.txt	FREEZER	Appliances	5	1	[0, 0, 0]	n/a	catFR1	1	R1032D
178.396	2.5	356746	WORD	n/a	wordpools/wordpool_categorized_EN.txt	BLENDER	Appliances	6	1	[0, 0, 0]	n/a	catFR1	1	R1032D
180.896	2.601	360745	WORD	n/a	wordpools/wordpool_categorized_EN.txt	POTATO	Vegetables	7	1	[0, 0, 0]	n/a	catFR1	1	R1032D
183.497	2.567	364906	WORD	n/a	wordpools/wordpool_categorized_EN.txt	LETTUCE	Vegetables	8	1	[0, 0, 0]	n/a	catFR1	1	R1032D
186.064	2.4	369012	WORD	n/a	wordpools/wordpool_categorized_EN.txt	WASHER	Appliances	9	1	[0, 0, 0]	n/a	catFR1	1	R1032D
188.464	2.601	372851	WORD	n/a	wordpools/wordpool_categorized_EN.txt	TOASTER	Appliances	10	1	[0, 0, 0]	n/a	catFR1	1	R1032D
191.065	2.417	377012	WORD	n/a	wordpools/wordpool_categorized_EN.txt	SNOW	Weather	11	1	[0, 0, 0]	n/a	catFR1	1	R1032D
193.482	1.617	380879	WORD	n/a	wordpools/wordpool_categorized_EN.txt	THUNDERSTORM	Weather	12	1	[0, 0, 0]	n/a	catFR1	1	R1032D
195.099	0.001	383465	DISTRACT_START	n/a	n/a	n/a	n/a	-999	1	[0, 0, 0]	n/a	catFR1	1	R1032D
195.1	0.015	383467	START	n/a	n/a	n/a	n/a	-999	1	[-999, -999, -999]	n/a	catFR1	1	R1032D
195.115	5.118	383491	PROB	5.118	n/a	n/a	n/a	-999	1	[9, 6, 2]	17	catFR1	1	R1032D
200.233	3.717	391678	PROB	3.717	n/a	n/a	n/a	-999	1	[9, 6, 3]	18	catFR1	1	R1032D
203.95	5.218	397624	PROB	5.218	n/a	n/a	n/a	-999	1	[8, 3, 4]	15	catFR1	1	R1032D
209.168	6.999	405971	PROB	6.999	n/a	n/a	n/a	-999	1	[5, 4, 7]	16	catFR1	1	R1032D
216.167	0.019	417168	STOP	n/a	n/a	n/a	n/a	-999	1	[-999, -999, -999]	n/a	catFR1	1	R1032D
216.186	1.152	417198	DISTRACT_END	n/a	n/a	n/a	n/a	-999	1	[0, 0, 0]	n/a	catFR1	1	R1032D
217.338	3.174	419041	REC_START	n/a	n/a	n/a	n/a	-999	1	[0, 0, 0]	n/a	catFR1	1	R1032D
220.512	0.894	424118	REC_WORD	0.894	n/a	CARROT	Vegetables	1	1	[0, 0, 0]	n/a	catFR1	1	R1032D
221.406	0.846	425548	REC_WORD	0.846	n/a	LETTUCE	Vegetables	8	1	[0, 0, 0]	n/a	catFR1	1	R1032D
222.252	1.982	426902	REC_WORD	1.982	n/a	POTATO	Vegetables	7	1	[0, 0, 0]	n/a	catFR1	1	R1032D
224.234	5.448	430072	REC_WORD	5.448	n/a	BLENDER	Appliances	6	1	[0, 0, 0]	n/a	catFR1	1	R1032D
229.682	7.709	438788	REC_WORD_VV	7.709	n/a	<>	n/a	-999	1	[0, 0, 0]	n/a	catFR1	1	R1032D
237.391	9.957	451120	REC_WORD	9.957	n/a	STORM	n/a	-999	1	[0, 0, 0]	n/a	catFR1	1	R1032D
247.348	3.728	467048	REC_END	n/a	n/a	n/a	n/a	-999	1	[0, 0, 0]	n/a	catFR1	1	R1032D
251.076	0.0	473011	TRIAL	n/a	n/a	n/a	n/a	-999	2	[0, 0, 0]	n/a	catFR1	1	R1032D
251.076	10.428	473011	COUNTDOWN_START	n/a	n/a	n/a	n/a	-999	2	[0, 0, 0]	n/a	catFR1	1	R1032D
261.504	0.007	489693	COUNTDOWN_END	n/a	n/a	n/a	n/a	-999	2	[0, 0, 0]	n/a	catFR1	1	R1032D
261.511	3.651	489704	ORIENT	n/a	n/a	n/a	n/a	-999	2	[0, 0, 0]	n/a	catFR1	1	R1032D
265.162	2.417	495545	WORD	n/a	wordpools/wordpool_categorized_EN.txt	SHEEP	FarmAnimals	1	2	[0, 0, 0]	n/a	catFR1	1	R1032D
267.579	2.45	499411	WORD	n/a	wordpools/wordpool_categorized_EN.txt	TURKEY	FarmAnimals	2	2	[0, 0, 0]	n/a	catFR1	1	R1032D
270.029	2.534	503330	WORD	n/a	wordpools/wordpool_categorized_EN.txt	BEE	Insects	3	2	[0, 0, 0]	n/a	catFR1	1	R1032D
272.563	2.434	507384	WORD	n/a	wordpools/wordpool_categorized_EN.txt	BEETLE	Insects	4	2	[0, 0, 0]	n/a	catFR1	1	R1032D
274.997	2.45	511278	WORD	n/a	wordpools/wordpool_categorized_EN.txt	PRINTER	Electronics	5	2	[0, 0, 0]	n/a	catFR1	1	R1032D
277.447	2.601	515197	WORD	n/a	wordpools/wordpool_categorized_EN.txt	TELEVISION	Electronics	6	2	[0, 0, 0]	n/a	catFR1	1	R1032D
280.048	2.483	519358	WORD	n/a	wordpools/wordpool_categorized_EN.txt	GNAT	Insects	7	2	[0, 0, 0]	n/a	catFR1	1	R1032D
282.531	2.601	523330	WORD	n/a	wordpools/wordpool_categorized_EN.txt	LADYBUG	Insects	8	2	[0, 0, 0]	n/a	catFR1	1	R1032D
285.132	2.417	527491	WORD	n/a	wordpools/wordpool_categorized_EN.txt	HORSE	FarmAnimals	9	2	[0, 0, 0]	n/a	catFR1	1	R1032D
287.549	2.434	531357	WORD	n/a	wordpools/wordpool_categorized_EN.txt	BULL	FarmAnimals	10	2	[0, 0, 0]	n/a	catFR1	1	R1032D
289.983	2.567	535251	WORD	n/a	wordpools/wordpool_categorized_EN.txt	SPEAKER	Electronics	11	2	[0, 0, 0]	n/a	catFR1	1	R1032D
292.55	1.617	539357	WORD	n/a	wordpools/wordpool_categorized_EN.txt	RADIO	Electronics	12	2	[0, 0, 0]	n/a	catFR1	1	R1032D
294.167	0.001	541944	DISTRACT_START	n/a	n/a	n/a	n/a	-999	2	[0, 0, 0]	n/a	catFR1	1	R1032D
294.168	0.016	541945	START	n/a	n/a	n/a	n/a	-999	2	[-999, -999, -999]	n/a	catFR1	1	R1032D
294.184	4.75	541971	PROB	4.75	n/a	n/a	n/a	-999	2	[3, 9, 9]	21	catFR1	1	R1032D
298.934	3.484	549570	PROB	3.484	n/a	n/a	n/a	-999	2	[7, 9, 6]	22	catFR1	1	R1032D
302.418	2.451	555143	PROB	2.451	n/a	n/a	n/a	-999	2	[3, 3, 3]	9	catFR1	1	R1032D
304.869	4.167	559064	PROB	4.167	n/a	n/a	n/a	-999	2	[5, 5, 6]	16	catFR1	1	R1032D
309.036	3.101	565730	PROB	3.101	n/a	n/a	n/a	-999	2	[1, 9, 6]	16	catFR1	1	R1032D
312.137	4.965	570690	PROB	4.965	n/a	n/a	n/a	-999	2	[6, 1, 2]	9	catFR1	1	R1032D
317.102	0.019	578633	STOP	n/a	n/a	n/a	n/a	-999	2	[-999, -999, -999]	n/a	catFR1	1	R1032D
317.121	1.118	578663	DISTRACT_END	n/a	n/a	n/a	n/a	-999	2	[0, 0, 0]	n/a	catFR1	1	R1032D
318.239	3.313	580452	REC_START	n/a	n/a	n/a	n/a	-999	2	[0, 0, 0]	n/a	catFR1	1	R1032D
321.552	1.032	585752	REC_WORD	1.032	n/a	HORSE	FarmAnimals	9	2	[0, 0, 0]	n/a	catFR1	1	R1032D
322.584	1.367	587402	REC_WORD	1.367	n/a	BEETLE	Insects	4	2	[0, 0, 0]	n/a	catFR1	1	R1032D
323.951	8.271	589589	REC_WORD	8.271	n/a	LADYBUG	Insects	8	2	[0, 0, 0]	n/a	catFR1	1	R1032D
332.222	16.029	602820	REC_WORD	16.029	n/a	BEE	Insects	3	2	[0, 0, 0]	n/a	catFR1	1	R1032D
348.251	2.993	628462	REC_END	n/a	n/a	n/a	n/a	-999	2	[0, 0, 0]	n/a	catFR1	1	R1032D
351.244	0.0	633250	COUNTDOWN_START	n/a	n/a	n/a	n/a	-999	3	[0, 0, 0]	n/a	catFR1	1	R1032D
351.244	10.428	633250	TRIAL	n/a	n/a	n/a	n/a	-999	3	[0, 0, 0]	n/a	catFR1	1	R1032D
361.672	0.007	649931	COUNTDOWN_END	n/a	n/a	n/a	n/a	-999	3	[0, 0, 0]	n/a	catFR1	1	R1032D
361.679	3.734	649942	ORIENT	n/a	n/a	n/a	n/a	-999	3	[0, 0, 0]	n/a	catFR1	1	R1032D
365.413	2.451	655916	WORD	n/a	wordpools/wordpool_categorized_EN.txt	TRUMPET	Instruments	1	3	[0, 0, 0]	n/a	catFR1	1	R1032D
367.864	2.383	659837	WORD	n/a	wordpools/wordpool_categorized_EN.txt	BANJO	Instruments	2	3	[0, 0, 0]	n/a	catFR1	1	R1032D
370.247	2.418	663649	WORD	n/a	wordpools/wordpool_categorized_EN.txt	MOUNTAIN	Landscapes	3	3	[0, 0, 0]	n/a	catFR1	1	R1032D
372.665	2.533	667517	WORD	n/a	wordpools/wordpool_categorized_EN.txt	VALLEY	Landscapes	4	3	[0, 0, 0]	n/a	catFR1	1	R1032D
375.198	2.601	671569	WORD	n/a	wordpools/wordpool_categorized_EN.txt	CEILING	Building	5	3	[0, 0, 0]	n/a	catFR1	1	R1032D
377.799	2.384	675730	WORD	n/a	wordpools/wordpool_categorized_EN.txt	ROOM	Building	6	3	[0, 0, 0]	n/a	catFR1	1	R1032D
380.183	2.483	679543	WORD	n/a	wordpools/wordpool_categorized_EN.txt	FOREST	Landscapes	7	3	[0, 0, 0]	n/a	catFR1	1	R1032D
382.666	2.434	683515	WORD	n/a	wordpools/wordpool_categorized_EN.txt	STREAM	Landscapes	8	3	[0, 0, 0]	n/a	catFR1	1	R1032D
385.1	2.451	687409	WORD	n/a	wordpools/wordpool_categorized_EN.txt	DRUM	Instruments	9	3	[0, 0, 0]	n/a	catFR1	1	R1032D
387.551	2.517	691330	WORD	n/a	wordpools/wordpool_categorized_EN.txt	VIOLIN	Instruments	10	3	[0, 0, 0]	n/a	catFR1	1	R1032D
390.068	2.55	695356	WORD	n/a	wordpools/wordpool_categorized_EN.txt	STAIRS	Building	11	3	[0, 0, 0]	n/a	catFR1	1	R1032D
392.618	1.617	699435	WORD	n/a	wordpools/wordpool_categorized_EN.txt	BATHROOM	Building	12	3	[0, 0, 0]	n/a	catFR1	1	R1032D
394.235	0.001	702022	DISTRACT_START	n/a	n/a	n/a	n/a	-999	3	[0, 0, 0]	n/a	catFR1	1	R1032D
394.236	0.016	702024	START	n/a	n/a	n/a	n/a	-999	3	[-999, -999, -999]	n/a	catFR1	1	R1032D
394.252	3.267	702049	PROB	3.267	n/a	n/a	n/a	-999	3	[5, 1, 3]	9	catFR1	1	R1032D
397.519	4.584	707276	PROB	4.584	n/a	n/a	n/a	-999	3	[5, 4, 5]	14	catFR1	1	R1032D
402.103	4.334	714609	PROB	4.334	n/a	n/a	n/a	-999	3	[5, 1, 4]	10	catFR1	1	R1032D
406.437	2.934	721542	PROB	2.934	n/a	n/a	n/a	-999	3	[1, 5, 1]	7	catFR1	1	R1032D
409.371	4.284	726235	PROB	4.284	n/a	n/a	n/a	-999	3	[9, 7, 6]	22	catFR1	1	R1032D
413.655	4.76	733088	PROB	4.76	n/a	n/a	n/a	-999	3	[4, 5, 8]	17	catFR1	1	R1032D
418.415	0.008	740703	STOP	n/a	n/a	n/a	n/a	-999	3	[-999, -999, -999]	n/a	catFR1	1	R1032D
418.423	1.134	740716	DISTRACT_END	n/a	n/a	n/a	n/a	-999	3	[0, 0, 0]	n/a	catFR1	1	R1032D
419.557	4.4	742530	REC_START	n/a	n/a	n/a	n/a	-999	3	[0, 0, 0]	n/a	catFR1	1	R1032D
423.957	1.052	749568	REC_WORD	1.052	n/a	DRUM	Instruments	9	3	[0, 0, 0]	n/a	catFR1	1	R1032D
425.009	1.5	751251	REC_WORD	1.5	n/a	CEILING	Building	5	3	[0, 0, 0]	n/a	catFR1	1	R1032D
426.509	2.018	753651	REC_WORD	2.018	n/a	BANJO	Instruments	2	3	[0, 0, 0]	n/a	catFR1	1	R1032D
428.527	12.449	756879	REC_WORD	12.449	n/a	PIANO	n/a	-999	3	[0, 0, 0]	n/a	catFR1	1	R1032D
440.976	8.597	776793	REC_WORD_VV	8.597	n/a	<>	n/a	-999	3	[0, 0, 0]	n/a	catFR1	1	R1032D
449.573	2.523	790546	REC_END	n/a	n/a	n/a	n/a	-999	3	[0, 0, 0]	n/a	catFR1	1	R1032D
452.096	0.0	794582	TRIAL	n/a	n/a	n/a	n/a	-999	4	[0, 0, 0]	n/a	catFR1	1	R1032D
452.096	10.428	794582	COUNTDOWN_START	n/a	n/a	n/a	n/a	-999	4	[0, 0, 0]	n/a	catFR1	1	R1032D
462.524	0.007	811264	COUNTDOWN_END	n/a	n/a	n/a	n/a	-999	4	[0, 0, 0]	n/a	catFR1	1	R1032D
462.531	3.717	811275	ORIENT	n/a	n/a	n/a	n/a	-999	4	[0, 0, 0]	n/a	catFR1	1	R1032D
466.248	2.484	817221	WORD	n/a	wordpools/wordpool_categorized_EN.txt	COBBLER	Desserts	1	4	[0, 0, 0]	n/a	catFR1	1	R1032D
468.732	2.534	821195	WORD	n/a	wordpools/wordpool_categorized_EN.txt	CUPCAKE	Desserts	2	4	[0, 0, 0]	n/a	catFR1	1	R1032D
471.266	2.45	825248	WORD	n/a	wordpools/wordpool_categorized_EN.txt	COUCH	Furniture	3	4	[0, 0, 0]	n/a	catFR1	1	R1032D
473.716	2.434	829167	WORD	n/a	wordpools/wordpool_categorized_EN.txt	SHELF	Furniture	4	4	[0, 0, 0]	n/a	catFR1	1	R1032D
476.15	2.434	833061	WORD	n/a	wordpools/wordpool_categorized_EN.txt	UNDERWEAR	Clothing	5	4	[0, 0, 0]	n/a	catFR1	1	R1032D
478.584	2.5	836955	WORD	n/a	wordpools/wordpool_categorized_EN.txt	SHORTS	Clothing	6	4	[0, 0, 0]	n/a	catFR1	1	R1032D
481.084	2.584	840954	WORD	n/a	wordpools/wordpool_categorized_EN.txt	BROWNIES	Desserts	7	4	[0, 0, 0]	n/a	catFR1	1	R1032D
483.668	2.384	845088	WORD	n/a	wordpools/wordpool_categorized_EN.txt	MOUSSE	Desserts	8	4	[0, 0, 0]	n/a	catFR1	1	R1032D
486.052	2.5	848901	WORD	n/a	wordpools/wordpool_categorized_EN.txt	JEANS	Clothing	9	4	[0, 0, 0]	n/a	catFR1	1	R1032D
488.552	2.534	852901	WORD	n/a	wordpools/wordpool_categorized_EN.txt	SKIRT	Clothing	10	4	[0, 0, 0]	n/a	catFR1	1	R1032D
491.086	2.617	856954	WORD	n/a	wordpools/wordpool_categorized_EN.txt	DRESSER	Furniture	11	4	[0, 0, 0]	n/a	catFR1	1	R1032D
493.703	1.601	861141	WORD	n/a	wordpools/wordpool_categorized_EN.txt	NIGHTSTAND	Furniture	12	4	[0, 0, 0]	n/a	catFR1	1	R1032D
495.304	0.001	863702	DISTRACT_START	n/a	n/a	n/a	n/a	-999	4	[0, 0, 0]	n/a	catFR1	1	R1032D
495.305	0.016	863703	START	n/a	n/a	n/a	n/a	-999	4	[-999, -999, -999]	n/a	catFR1	1	R1032D
495.321	4.018	863729	PROB	4.018	n/a	n/a	n/a	-999	4	[4, 4, 9]	17	catFR1	1	R1032D
499.339	2.984	870156	PROB	2.984	n/a	n/a	n/a	-999	4	[8, 6, 2]	16	catFR1	1	R1032D
502.323	2.849	874930	PROB	2.849	n/a	n/a	n/a	-999	4	[5, 3, 2]	10	catFR1	1	R1032D
505.172	2.667	879487	PROB	2.667	n/a	n/a	n/a	-999	4	[5, 5, 7]	17	catFR1	1	R1032D
507.839	3.634	883754	PROB	3.634	n/a	n/a	n/a	-999	4	[9, 3, 6]	18	catFR1	1	R1032D
511.473	2.467	889567	PROB	2.467	n/a	n/a	n/a	-999	4	[1, 9, 1]	11	catFR1	1	R1032D
513.94	3.675	893514	PROB	3.675	n/a	n/a	n/a	-999	4	[3, 2, 9]	14	catFR1	1	R1032D
517.615	0.009	899392	STOP	n/a	n/a	n/a	n/a	-999	4	[-999, -999, -999]	n/a	catFR1	1	R1032D
517.624	1.118	899407	DISTRACT_END	n/a	n/a	n/a	n/a	-999	4	[0, 0, 0]	n/a	catFR1	1	R1032D
518.742	1.761	901195	REC_START	n/a	n/a	n/a	n/a	-999	4	[0, 0, 0]	n/a	catFR1	1	R1032D
520.503	1.585	904012	REC_WORD	1.585	n/a	BROWNIES	Desserts	7	4	[0, 0, 0]	n/a	catFR1	1	R1032D
522.088	4.142	906548	REC_WORD	4.142	n/a	MOUSSE	Desserts	8	4	[0, 0, 0]	n/a	catFR1	1	R1032D
526.23	1.345	913174	REC_WORD_VV	1.345	n/a	<>	n/a	-999	4	[0, 0, 0]	n/a	catFR1	1	R1032D
527.575	14.736	915325	REC_WORD	14.736	n/a	SKIRT	Clothing	10	4	[0, 0, 0]	n/a	catFR1	1	R1032D
542.311	6.443	938898	REC_WORD	6.443	n/a	COBBLER	Desserts	1	4	[0, 0, 0]	n/a	catFR1	1	R1032D
548.754	2.693	949205	REC_END	n/a	n/a	n/a	n/a	-999	4	[0, 0, 0]	n/a	catFR1	1	R1032D
551.447	0.0	953513	TRIAL	n/a	n/a	n/a	n/a	-999	5	[0, 0, 0]	n/a	catFR1	1	R1032D
551.447	10.428	953513	COUNTDOWN_START	n/a	n/a	n/a	n/a	-999	5	[0, 0, 0]	n/a	catFR1	1	R1032D
561.875	0.008	970195	COUNTDOWN_END	n/a	n/a	n/a	n/a	-999	5	[0, 0, 0]	n/a	catFR1	1	R1032D
561.883	3.684	970208	ORIENT	n/a	n/a	n/a	n/a	-999	5	[0, 0, 0]	n/a	catFR1	1	R1032D
565.567	2.383	976101	WORD	n/a	wordpools/wordpool_categorized_EN.txt	CHEETAH	Zoo	1	5	[0, 0, 0]	n/a	catFR1	1	R1032D
567.95	2.417	979913	WORD	n/a	wordpools/wordpool_categorized_EN.txt	ORANGUTAN	Zoo	2	5	[0, 0, 0]	n/a	catFR1	1	R1032D
570.367	2.568	983780	WORD	n/a	wordpools/wordpool_categorized_EN.txt	GUITAR	Instruments	3	5	[0, 0, 0]	n/a	catFR1	1	R1032D
572.935	2.583	987888	WORD	n/a	wordpools/wordpool_categorized_EN.txt	TROMBONE	Instruments	4	5	[0, 0, 0]	n/a	catFR1	1	R1032D
575.518	2.401	992020	WORD	n/a	wordpools/wordpool_categorized_EN.txt	BLOUSE	Clothing	5	5	[0, 0, 0]	n/a	catFR1	1	R1032D
577.919	2.6	995860	WORD	n/a	wordpools/wordpool_categorized_EN.txt	SHIRT	Clothing	6	5	[0, 0, 0]	n/a	catFR1	1	R1032D
580.519	2.534	1000020	WORD	n/a	wordpools/wordpool_categorized_EN.txt	BASS	Instruments	7	5	[0, 0, 0]	n/a	catFR1	1	R1032D
583.053	2.5	1004073	WORD	n/a	wordpools/wordpool_categorized_EN.txt	TUBA	Instruments	8	5	[0, 0, 0]	n/a	catFR1	1	R1032D
585.553	2.551	1008072	WORD	n/a	wordpools/wordpool_categorized_EN.txt	GIRAFFE	Zoo	9	5	[0, 0, 0]	n/a	catFR1	1	R1032D
588.104	2.567	1012153	WORD	n/a	wordpools/wordpool_categorized_EN.txt	CHIMPANZEE	Zoo	10	5	[0, 0, 0]	n/a	catFR1	1	R1032D
590.671	2.467	1016260	WORD	n/a	wordpools/wordpool_categorized_EN.txt	JACKET	Clothing	11	5	[0, 0, 0]	n/a	catFR1	1	R1032D
593.138	1.617	1020206	WORD	n/a	wordpools/wordpool_categorized_EN.txt	COAT	Clothing	12	5	[0, 0, 0]	n/a	catFR1	1	R1032D
594.755	0.001	1022793	DISTRACT_START	n/a	n/a	n/a	n/a	-999	5	[0, 0, 0]	n/a	catFR1	1	R1032D
594.756	0.016	1022794	START	n/a	n/a	n/a	n/a	-999	5	[-999, -999, -999]	n/a	catFR1	1	R1032D
594.772	3.301	1022820	PROB	3.301	n/a	n/a	n/a	-999	5	[2, 4, 5]	11	catFR1	1	R1032D
598.073	3.466	1028101	PROB	3.466	n/a	n/a	n/a	-999	5	[9, 4, 9]	22	catFR1	1	R1032D
601.539	4.202	1033645	PROB	4.202	n/a	n/a	n/a	-999	5	[5, 9, 3]	17	catFR1	1	R1032D
605.741	4.184	1040367	PROB	4.184	n/a	n/a	n/a	-999	5	[6, 8, 5]	19	catFR1	1	R1032D
609.925	3.017	1047060	PROB	3.017	n/a	n/a	n/a	-999	5	[6, 6, 3]	15	catFR1	1	R1032D
612.942	4.841	1051887	PROB	4.841	n/a	n/a	n/a	-999	5	[6, 7, 8]	21	catFR1	1	R1032D
617.783	0.01	1059631	STOP	n/a	n/a	n/a	n/a	-999	5	[-999, -999, -999]	n/a	catFR1	1	R1032D
617.793	1.184	1059647	DISTRACT_END	n/a	n/a	n/a	n/a	-999	5	[0, 0, 0]	n/a	catFR1	1	R1032D
618.977	1.931	1061541	REC_START	n/a	n/a	n/a	n/a	-999	5	[0, 0, 0]	n/a	catFR1	1	R1032D
620.908	1.279	1064630	REC_WORD	1.279	n/a	CHEETAH	Zoo	1	5	[0, 0, 0]	n/a	catFR1	1	R1032D
622.187	3.065	1066676	REC_WORD	3.065	n/a	CHIMPANZEE	Zoo	10	5	[0, 0, 0]	n/a	catFR1	1	R1032D
625.252	3.132	1071579	REC_WORD	3.132	n/a	BASS	Instruments	7	5	[0, 0, 0]	n/a	catFR1	1	R1032D
628.384	14.158	1076589	REC_WORD	14.158	n/a	COAT	Clothing	12	5	[0, 0, 0]	n/a	catFR1	1	R1032D
642.542	6.447	1099237	REC_WORD_VV	6.447	n/a	<>	n/a	-999	5	[0, 0, 0]	n/a	catFR1	1	R1032D
648.989	2.96	1109551	REC_END	n/a	n/a	n/a	n/a	-999	5	[0, 0, 0]	n/a	catFR1	1	R1032D
651.949	0.0	1114286	TRIAL	n/a	n/a	n/a	n/a	-999	6	[0, 0, 0]	n/a	catFR1	1	R1032D
651.949	10.428	1114286	COUNTDOWN_START	n/a	n/a	n/a	n/a	-999	6	[0, 0, 0]	n/a	catFR1	1	R1032D
662.377	0.007	1130967	COUNTDOWN_END	n/a	n/a	n/a	n/a	-999	6	[0, 0, 0]	n/a	catFR1	1	R1032D
662.384	4.001	1130979	ORIENT	n/a	n/a	n/a	n/a	-999	6	[0, 0, 0]	n/a	catFR1	1	R1032D
666.385	2.534	1137379	WORD	n/a	wordpools/wordpool_categorized_EN.txt	SCOOTER	Vehicles	1	6	[0, 0, 0]	n/a	catFR1	1	R1032D
668.919	2.5	1141433	WORD	n/a	wordpools/wordpool_categorized_EN.txt	TRAIN	Vehicles	2	6	[0, 0, 0]	n/a	catFR1	1	R1032D
671.419	2.401	1145432	WORD	n/a	wordpools/wordpool_categorized_EN.txt	PEN	OfficeSupplies	3	6	[0, 0, 0]	n/a	catFR1	1	R1032D
673.82	2.6	1149273	WORD	n/a	wordpools/wordpool_categorized_EN.txt	BINDER	OfficeSupplies	4	6	[0, 0, 0]	n/a	catFR1	1	R1032D
676.42	2.501	1153432	WORD	n/a	wordpools/wordpool_categorized_EN.txt	PASTRY	Desserts	5	6	[0, 0, 0]	n/a	catFR1	1	R1032D
678.921	2.401	1157433	WORD	n/a	wordpools/wordpool_categorized_EN.txt	CHEESECAKE	Desserts	6	6	[0, 0, 0]	n/a	catFR1	1	R1032D
681.322	2.483	1161274	WORD	n/a	wordpools/wordpool_categorized_EN.txt	TRUCK	Vehicles	7	6	[0, 0, 0]	n/a	catFR1	1	R1032D
683.805	2.467	1165246	WORD	n/a	wordpools/wordpool_categorized_EN.txt	BUS	Vehicles	8	6	[0, 0, 0]	n/a	catFR1	1	R1032D
686.272	2.434	1169192	WORD	n/a	wordpools/wordpool_categorized_EN.txt	JELLO	Desserts	9	6	[0, 0, 0]	n/a	catFR1	1	R1032D
688.706	2.384	1173086	WORD	n/a	wordpools/wordpool_categorized_EN.txt	PUDDING	Desserts	10	6	[0, 0, 0]	n/a	catFR1	1	R1032D
691.09	2.617	1176899	WORD	n/a	wordpools/wordpool_categorized_EN.txt	NOTEBOOK	OfficeSupplies	11	6	[0, 0, 0]	n/a	catFR1	1	R1032D
693.707	1.618	1181086	WORD	n/a	wordpools/wordpool_categorized_EN.txt	TAPE	OfficeSupplies	12	6	[0, 0, 0]	n/a	catFR1	1	R1032D
695.325	0.001	1183674	DISTRACT_START	n/a	n/a	n/a	n/a	-999	6	[0, 0, 0]	n/a	catFR1	1	R1032D
695.326	0.015	1183676	START	n/a	n/a	n/a	n/a	-999	6	[-999, -999, -999]	n/a	catFR1	1	R1032D
695.341	3.75	1183700	PROB	3.75	n/a	n/a	n/a	-999	6	[1, 7, 2]	10	catFR1	1	R1032D
699.091	3.401	1189699	PROB	3.401	n/a	n/a	n/a	-999	6	[9, 3, 5]	17	catFR1	1	R1032D
702.492	3.267	1195139	PROB	3.267	n/a	n/a	n/a	-999	6	[9, 1, 5]	15	catFR1	1	R1032D
705.759	3.117	1200365	PROB	3.117	n/a	n/a	n/a	-999	6	[2, 2, 8]	12	catFR1	1	R1032D
708.876	3.001	1205352	PROB	3.001	n/a	n/a	n/a	-999	6	[7, 6, 3]	16	catFR1	1	R1032D
711.877	2.983	1210152	PROB	2.983	n/a	n/a	n/a	-999	6	[3, 8, 4]	15	catFR1	1	R1032D
714.86	2.507	1214924	PROB	2.507	n/a	n/a	n/a	-999	6	[2, 9, 1]	12	catFR1	1	R1032D
717.367	0.011	1218935	STOP	n/a	n/a	n/a	n/a	-999	6	[-999, -999, -999]	n/a	catFR1	1	R1032D
717.378	1.134	1218952	DISTRACT_END	n/a	n/a	n/a	n/a	-999	6	[0, 0, 0]	n/a	catFR1	1	R1032D
718.512	1.83	1220766	REC_START	n/a	n/a	n/a	n/a	-999	6	[0, 0, 0]	n/a	catFR1	1	R1032D
720.342	1.549	1223694	REC_WORD	1.549	n/a	SCOOTER	Vehicles	1	6	[0, 0, 0]	n/a	catFR1	1	R1032D
721.891	1.593	1226172	REC_WORD	1.593	n/a	TRAIN	Vehicles	2	6	[0, 0, 0]	n/a	catFR1	1	R1032D
723.484	1.078	1228720	REC_WORD	1.078	n/a	TRUCK	Vehicles	7	6	[0, 0, 0]	n/a	catFR1	1	R1032D
724.562	23.962	1230444	REC_WORD	23.962	n/a	BUS	Vehicles	8	6	[0, 0, 0]	n/a	catFR1	1	R1032D
748.524	3.743	1268776	REC_END	n/a	n/a	n/a	n/a	-999	6	[0, 0, 0]	n/a	catFR1	1	R1032D
752.267	0.001	1274764	COUNTDOWN_START	n/a	n/a	n/a	n/a	-999	7	[0, 0, 0]	n/a	catFR1	1	R1032D
752.268	10.427	1274766	TRIAL	n/a	n/a	n/a	n/a	-999	7	[0, 0, 0]	n/a	catFR1	1	R1032D
762.695	0.008	1291446	COUNTDOWN_END	n/a	n/a	n/a	n/a	-999	7	[0, 0, 0]	n/a	catFR1	1	R1032D
762.703	3.684	1291458	ORIENT	n/a	n/a	n/a	n/a	-999	7	[0, 0, 0]	n/a	catFR1	1	R1032D
766.387	2.567	1297352	WORD	n/a	wordpools/wordpool_categorized_EN.txt	WALNUT	Trees	1	7	[0, 0, 0]	n/a	catFR1	1	R1032D
768.954	2.517	1301458	WORD	n/a	wordpools/wordpool_categorized_EN.txt	ELM	Trees	2	7	[0, 0, 0]	n/a	catFR1	1	R1032D
771.471	2.45	1305484	WORD	n/a	wordpools/wordpool_categorized_EN.txt	PEAR	Fruit	3	7	[0, 0, 0]	n/a	catFR1	1	R1032D
773.921	2.385	1309404	WORD	n/a	wordpools/wordpool_categorized_EN.txt	ORANGE	Fruit	4	7	[0, 0, 0]	n/a	catFR1	1	R1032D
776.306	2.6	1313219	WORD	n/a	wordpools/wordpool_categorized_EN.txt	THUNDER	Weather	5	7	[0, 0, 0]	n/a	catFR1	1	R1032D
778.906	2.6	1317378	WORD	n/a	wordpools/wordpool_categorized_EN.txt	LIGHTNING	Weather	6	7	[0, 0, 0]	n/a	catFR1	1	R1032D
781.506	2.384	1321537	WORD	n/a	wordpools/wordpool_categorized_EN.txt	BIRCH	Trees	7	7	[0, 0, 0]	n/a	catFR1	1	R1032D
783.89	2.55	1325351	WORD	n/a	wordpools/wordpool_categorized_EN.txt	PINE	Trees	8	7	[0, 0, 0]	n/a	catFR1	1	R1032D
786.44	2.451	1329430	WORD	n/a	wordpools/wordpool_categorized_EN.txt	HURRICANE	Weather	9	7	[0, 0, 0]	n/a	catFR1	1	R1032D
788.891	2.401	1333351	WORD	n/a	wordpools/wordpool_categorized_EN.txt	RAIN	Weather	10	7	[0, 0, 0]	n/a	catFR1	1	R1032D
791.292	2.483	1337192	WORD	n/a	wordpools/wordpool_categorized_EN.txt	CHERRY	Fruit	11	7	[0, 0, 0]	n/a	catFR1	1	R1032D
793.775	1.617	1341164	WORD	n/a	wordpools/wordpool_categorized_EN.txt	STRAWBERRY	Fruit	12	7	[0, 0, 0]	n/a	catFR1	1	R1032D
795.392	0.001	1343751	DISTRACT_START	n/a	n/a	n/a	n/a	-999	7	[0, 0, 0]	n/a	catFR1	1	R1032D
795.393	0.016	1343752	START	n/a	n/a	n/a	n/a	-999	7	[-999, -999, -999]	n/a	catFR1	1	R1032D
795.409	6.017	1343778	PROB	6.017	n/a	n/a	n/a	-999	7	[6, 8, 3]	17	catFR1	1	R1032D
801.426	4.701	1353403	PROB	4.701	n/a	n/a	n/a	-999	7	[5, 7, 2]	14	catFR1	1	R1032D
806.127	2.717	1360924	PROB	2.717	n/a	n/a	n/a	-999	7	[4, 4, 4]	12	catFR1	1	R1032D
808.844	4.668	1365270	PROB	4.668	n/a	n/a	n/a	-999	7	[4, 4, 9]	17	catFR1	1	R1032D
813.512	2.647	1372737	PROB	2.647	n/a	n/a	n/a	-999	7	[1, 8, 2]	11	catFR1	1	R1032D
816.159	0.003	1376972	STOP	n/a	n/a	n/a	n/a	-999	7	[-999, -999, -999]	n/a	catFR1	1	R1032D
816.162	1.135	1376976	DISTRACT_END	n/a	n/a	n/a	n/a	-999	7	[0, 0, 0]	n/a	catFR1	1	R1032D
817.297	1.38	1378792	REC_START	n/a	n/a	n/a	n/a	-999	7	[0, 0, 0]	n/a	catFR1	1	R1032D
818.677	1.065	1381000	REC_WORD	1.065	n/a	WALNUT	Trees	1	7	[0, 0, 0]	n/a	catFR1	1	R1032D
819.742	1.213	1382703	REC_WORD	1.213	n/a	PEAR	Fruit	3	7	[0, 0, 0]	n/a	catFR1	1	R1032D
820.955	1.484	1384644	REC_WORD	1.484	n/a	ORANGE	Fruit	4	7	[0, 0, 0]	n/a	catFR1	1	R1032D
822.439	1.518	1387018	REC_WORD	1.518	n/a	STRAWBERRY	Fruit	12	7	[0, 0, 0]	n/a	catFR1	1	R1032D
823.957	23.356	1389446	REC_WORD	23.356	n/a	CHERRY	Fruit	11	7	[0, 0, 0]	n/a	catFR1	1	R1032D
847.313	2.622	1426809	REC_END	n/a	n/a	n/a	n/a	-999	7	[0, 0, 0]	n/a	catFR1	1	R1032D
849.935	0.0	1431003	TRIAL	n/a	n/a	n/a	n/a	-999	8	[0, 0, 0]	n/a	catFR1	1	R1032D
849.935	10.428	1431003	COUNTDOWN_START	n/a	n/a	n/a	n/a	-999	8	[0, 0, 0]	n/a	catFR1	1	R1032D
860.363	0.007	1447685	COUNTDOWN_END	n/a	n/a	n/a	n/a	-999	8	[0, 0, 0]	n/a	catFR1	1	R1032D
860.37	3.734	1447696	ORIENT	n/a	n/a	n/a	n/a	-999	8	[0, 0, 0]	n/a	catFR1	1	R1032D
864.104	2.451	1453669	WORD	n/a	wordpools/wordpool_categorized_EN.txt	TEA	Beverages	1	8	[0, 0, 0]	n/a	catFR1	1	R1032D
866.555	2.4	1457590	WORD	n/a	wordpools/wordpool_categorized_EN.txt	BEER	Beverages	2	8	[0, 0, 0]	n/a	catFR1	1	R1032D
868.955	2.467	1461429	WORD	n/a	wordpools/wordpool_categorized_EN.txt	CHICKEN	FarmAnimals	3	8	[0, 0, 0]	n/a	catFR1	1	R1032D
871.422	2.551	1465376	WORD	n/a	wordpools/wordpool_categorized_EN.txt	ROOSTER	FarmAnimals	4	8	[0, 0, 0]	n/a	catFR1	1	R1032D
873.973	2.434	1469456	WORD	n/a	wordpools/wordpool_categorized_EN.txt	WHALE	OceanAnimals	5	8	[0, 0, 0]	n/a	catFR1	1	R1032D
876.407	2.467	1473350	WORD	n/a	wordpools/wordpool_categorized_EN.txt	DOLPHIN	OceanAnimals	6	8	[0, 0, 0]	n/a	catFR1	1	R1032D
878.874	2.617	1477296	WORD	n/a	wordpools/wordpool_categorized_EN.txt	HEN	FarmAnimals	7	8	[0, 0, 0]	n/a	catFR1	1	R1032D
881.491	2.434	1481483	WORD	n/a	wordpools/wordpool_categorized_EN.txt	COW	FarmAnimals	8	8	[0, 0, 0]	n/a	catFR1	1	R1032D
883.925	2.584	1485377	WORD	n/a	wordpools/wordpool_categorized_EN.txt	COFFEE	Beverages	9	8	[0, 0, 0]	n/a	catFR1	1	R1032D
886.509	2.467	1489510	WORD	n/a	wordpools/wordpool_categorized_EN.txt	WATER	Beverages	10	8	[0, 0, 0]	n/a	catFR1	1	R1032D
888.976	2.534	1493457	WORD	n/a	wordpools/wordpool_categorized_EN.txt	TURTLE	OceanAnimals	11	8	[0, 0, 0]	n/a	catFR1	1	R1032D
891.51	1.616	1497510	WORD	n/a	wordpools/wordpool_categorized_EN.txt	CRAB	OceanAnimals	12	8	[0, 0, 0]	n/a	catFR1	1	R1032D
893.126	0.001	1500095	DISTRACT_START	n/a	n/a	n/a	n/a	-999	8	[0, 0, 0]	n/a	catFR1	1	R1032D
893.127	0.016	1500097	START	n/a	n/a	n/a	n/a	-999	8	[-999, -999, -999]	n/a	catFR1	1	R1032D
893.143	5.034	1500123	PROB	5.034	n/a	n/a	n/a	-999	8	[3, 1, 8]	12	catFR1	1	R1032D
898.177	3.601	1508175	PROB	3.601	n/a	n/a	n/a	-999	8	[9, 1, 6]	16	catFR1	1	R1032D
901.778	5.968	1513936	PROB	5.968	n/a	n/a	n/a	-999	8	[8, 7, 1]	15	catFR1	1	R1032D
907.746	6.725	1523483	PROB	6.725	n/a	n/a	n/a	-999	8	[5, 6, 5]	16	catFR1	1	R1032D
914.471	0.009	1534241	STOP	n/a	n/a	n/a	n/a	-999	8	[-999, -999, -999]	n/a	catFR1	1	R1032D
914.48	1.168	1534255	DISTRACT_END	n/a	n/a	n/a	n/a	-999	8	[0, 0, 0]	n/a	catFR1	1	R1032D
915.648	2.237	1536124	REC_START	n/a	n/a	n/a	n/a	-999	8	[0, 0, 0]	n/a	catFR1	1	R1032D
917.885	1.19	1539702	REC_WORD	1.19	n/a	TEA	Beverages	1	8	[0, 0, 0]	n/a	catFR1	1	R1032D
919.075	1.022	1541606	REC_WORD	1.022	n/a	BEER	Beverages	2	8	[0, 0, 0]	n/a	catFR1	1	R1032D
920.097	0.913	1543241	REC_WORD	0.913	n/a	COFFEE	Beverages	9	8	[0, 0, 0]	n/a	catFR1	1	R1032D
921.01	24.648	1544701	REC_WORD	24.648	n/a	WATER	Beverages	10	8	[0, 0, 0]	n/a	catFR1	1	R1032D
945.658	2.696	1584130	REC_END	n/a	n/a	n/a	n/a	-999	8	[0, 0, 0]	n/a	catFR1	1	R1032D
948.354	0.0	1588443	TRIAL	n/a	n/a	n/a	n/a	-999	9	[0, 0, 0]	n/a	catFR1	1	R1032D
948.354	10.428	1588443	COUNTDOWN_START	n/a	n/a	n/a	n/a	-999	9	[0, 0, 0]	n/a	catFR1	1	R1032D
958.782	0.006	1605125	COUNTDOWN_END	n/a	n/a	n/a	n/a	-999	9	[0, 0, 0]	n/a	catFR1	1	R1032D
958.788	3.668	1605134	ORIENT	n/a	n/a	n/a	n/a	-999	9	[0, 0, 0]	n/a	catFR1	1	R1032D
962.456	2.5	1611002	WORD	n/a	wordpools/wordpool_categorized_EN.txt	LEVEL	Tools	1	9	[0, 0, 0]	n/a	catFR1	1	R1032D
964.956	2.484	1615001	WORD	n/a	wordpools/wordpool_categorized_EN.txt	SHOVEL	Tools	2	9	[0, 0, 0]	n/a	catFR1	1	R1032D
967.44	2.617	1618975	WORD	n/a	wordpools/wordpool_categorized_EN.txt	WINDOW	Building	3	9	[0, 0, 0]	n/a	catFR1	1	R1032D
970.057	2.501	1623161	WORD	n/a	wordpools/wordpool_categorized_EN.txt	DOOR	Building	4	9	[0, 0, 0]	n/a	catFR1	1	R1032D
972.558	2.45	1627162	WORD	n/a	wordpools/wordpool_categorized_EN.txt	LIME	Fruit	5	9	[0, 0, 0]	n/a	catFR1	1	R1032D
975.008	2.584	1631082	WORD	n/a	wordpools/wordpool_categorized_EN.txt	GRAPE	Fruit	6	9	[0, 0, 0]	n/a	catFR1	1	R1032D
977.592	2.5	1635215	WORD	n/a	wordpools/wordpool_categorized_EN.txt	SCREWDRIVER	Tools	7	9	[0, 0, 0]	n/a	catFR1	1	R1032D
980.092	2.451	1639214	WORD	n/a	wordpools/wordpool_categorized_EN.txt	AXE	Tools	8	9	[0, 0, 0]	n/a	catFR1	1	R1032D
982.543	2.567	1643135	WORD	n/a	wordpools/wordpool_categorized_EN.txt	PLUM	Fruit	9	9	[0, 0, 0]	n/a	catFR1	1	R1032D
985.11	2.484	1647242	WORD	n/a	wordpools/wordpool_categorized_EN.txt	APPLE	Fruit	10	9	[0, 0, 0]	n/a	catFR1	1	R1032D
987.594	2.4	1651215	WORD	n/a	wordpools/wordpool_categorized_EN.txt	HALLWAY	Building	11	9	[0, 0, 0]	n/a	catFR1	1	R1032D
989.994	1.617	1655055	WORD	n/a	wordpools/wordpool_categorized_EN.txt	FOUNDATION	Building	12	9	[0, 0, 0]	n/a	catFR1	1	R1032D
991.611	0.001	1657641	DISTRACT_START	n/a	n/a	n/a	n/a	-999	9	[0, 0, 0]	n/a	catFR1	1	R1032D
991.612	0.016	1657643	START	n/a	n/a	n/a	n/a	-999	9	[-999, -999, -999]	n/a	catFR1	1	R1032D
991.628	4.117	1657668	PROB	4.117	n/a	n/a	n/a	-999	9	[7, 8, 2]	17	catFR1	1	R1032D
995.745	3.334	1664254	PROB	3.334	n/a	n/a	n/a	-999	9	[7, 4, 8]	19	catFR1	1	R1032D
999.079	4.252	1669588	PROB	4.252	n/a	n/a	n/a	-999	9	[3, 5, 7]	15	catFR1	1	R1032D
1003.331	4.366	1676390	PROB	4.366	n/a	n/a	n/a	-999	9	[1, 5, 7]	13	catFR1	1	R1032D
1007.697	3.034	1683374	PROB	3.034	n/a	n/a	n/a	-999	9	[1, 9, 9]	19	catFR1	1	R1032D
1010.731	4.724	1688227	PROB	4.724	n/a	n/a	n/a	-999	9	[9, 8, 7]	24	catFR1	1	R1032D
1015.455	0.011	1695784	STOP	n/a	n/a	n/a	n/a	-999	9	[-999, -999, -999]	n/a	catFR1	1	R1032D
1015.466	1.034	1695802	DISTRACT_END	n/a	n/a	n/a	n/a	-999	9	[0, 0, 0]	n/a	catFR1	1	R1032D
1016.5	2.923	1697456	REC_START	n/a	n/a	n/a	n/a	-999	9	[0, 0, 0]	n/a	catFR1	1	R1032D
1019.423	1.064	1702132	REC_WORD	1.064	n/a	PLUM	Fruit	9	9	[0, 0, 0]	n/a	catFR1	1	R1032D
1020.487	4.407	1703834	REC_WORD	4.407	n/a	APPLE	Fruit	10	9	[0, 0, 0]	n/a	catFR1	1	R1032D
1024.894	6.452	1710884	REC_WORD	6.452	n/a	FOUNDATION	Building	12	9	[0, 0, 0]	n/a	catFR1	1	R1032D
1031.346	7.983	1721205	REC_WORD	7.983	n/a	WINDOW	Building	3	9	[0, 0, 0]	n/a	catFR1	1	R1032D
1039.329	7.182	1733975	REC_WORD	7.182	n/a	DOOR	Building	4	9	[0, 0, 0]	n/a	catFR1	1	R1032D
1046.511	2.727	1745464	REC_END	n/a	n/a	n/a	n/a	-999	9	[0, 0, 0]	n/a	catFR1	1	R1032D
1049.238	0.001	1749827	COUNTDOWN_START	n/a	n/a	n/a	n/a	-999	10	[0, 0, 0]	n/a	catFR1	1	R1032D
1049.239	10.427	1749828	TRIAL	n/a	n/a	n/a	n/a	-999	10	[0, 0, 0]	n/a	catFR1	1	R1032D
1059.666	0.008	1766508	COUNTDOWN_END	n/a	n/a	n/a	n/a	-999	10	[0, 0, 0]	n/a	catFR1	1	R1032D
1059.674	3.734	1766521	ORIENT	n/a	n/a	n/a	n/a	-999	10	[0, 0, 0]	n/a	catFR1	1	R1032D
1063.408	2.55	1772495	WORD	n/a	wordpools/wordpool_categorized_EN.txt	SUNFLOWER	Flowers	1	10	[0, 0, 0]	n/a	catFR1	1	R1032D
1065.958	2.434	1776574	WORD	n/a	wordpools/wordpool_categorized_EN.txt	VIOLET	Flowers	2	10	[0, 0, 0]	n/a	catFR1	1	R1032D
1068.392	2.55	1780467	WORD	n/a	wordpools/wordpool_categorized_EN.txt	CAR	Vehicles	3	10	[0, 0, 0]	n/a	catFR1	1	R1032D
1070.942	2.501	1784547	WORD	n/a	wordpools/wordpool_categorized_EN.txt	JEEP	Vehicles	4	10	[0, 0, 0]	n/a	catFR1	1	R1032D
1073.443	2.45	1788547	WORD	n/a	wordpools/wordpool_categorized_EN.txt	BLOCKS	Toys	5	10	[0, 0, 0]	n/a	catFR1	1	R1032D
1075.893	2.601	1792467	WORD	n/a	wordpools/wordpool_categorized_EN.txt	BASKETBALL	Toys	6	10	[0, 0, 0]	n/a	catFR1	1	R1032D
1078.494	2.534	1796628	WORD	n/a	wordpools/wordpool_categorized_EN.txt	MOPED	Vehicles	7	10	[0, 0, 0]	n/a	catFR1	1	R1032D
1081.028	2.617	1800681	WORD	n/a	wordpools/wordpool_categorized_EN.txt	PLANE	Vehicles	8	10	[0, 0, 0]	n/a	catFR1	1	R1032D
1083.645	2.484	1804868	WORD	n/a	wordpools/wordpool_categorized_EN.txt	MARIGOLD	Flowers	9	10	[0, 0, 0]	n/a	catFR1	1	R1032D
1086.129	2.55	1808841	WORD	n/a	wordpools/wordpool_categorized_EN.txt	ROSE	Flowers	10	10	[0, 0, 0]	n/a	catFR1	1	R1032D
1088.679	2.567	1812920	WORD	n/a	wordpools/wordpool_categorized_EN.txt	FOOTBALL	Toys	11	10	[0, 0, 0]	n/a	catFR1	1	R1032D
1091.246	1.617	1817027	WORD	n/a	wordpools/wordpool_categorized_EN.txt	SLINKY	Toys	12	10	[0, 0, 0]	n/a	catFR1	1	R1032D
1092.863	0.001	1819614	DISTRACT_START	n/a	n/a	n/a	n/a	-999	10	[0, 0, 0]	n/a	catFR1	1	R1032D
1092.864	0.016	1819615	START	n/a	n/a	n/a	n/a	-999	10	[-999, -999, -999]	n/a	catFR1	1	R1032D
1092.88	3.7	1819641	PROB	3.7	n/a	n/a	n/a	-999	10	[2, 1, 6]	9	catFR1	1	R1032D
1096.58	4.085	1825560	PROB	4.085	n/a	n/a	n/a	-999	10	[7, 9, 4]	20	catFR1	1	R1032D
1100.665	2.85	1832094	PROB	2.85	n/a	n/a	n/a	-999	10	[3, 4, 2]	9	catFR1	1	R1032D
1103.515	2.9	1836653	PROB	2.9	n/a	n/a	n/a	-999	10	[3, 1, 7]	11	catFR1	1	R1032D
1106.415	2.851	1841293	PROB	2.851	n/a	n/a	n/a	-999	10	[9, 1, 3]	13	catFR1	1	R1032D
1109.266	4.197	1845853	PROB	4.197	n/a	n/a	n/a	-999	10	[6, 7, 6]	19	catFR1	1	R1032D
1113.463	0.004	1852567	STOP	n/a	n/a	n/a	n/a	-999	10	[-999, -999, -999]	n/a	catFR1	1	R1032D
1113.467	1.151	1852574	DISTRACT_END	n/a	n/a	n/a	n/a	-999	10	[0, 0, 0]	n/a	catFR1	1	R1032D
1114.618	1.627	1854415	REC_START	n/a	n/a	n/a	n/a	-999	10	[0, 0, 0]	n/a	catFR1	1	R1032D
1116.245	1.527	1857018	REC_WORD	1.527	n/a	SUNFLOWER	Flowers	1	10	[0, 0, 0]	n/a	catFR1	1	R1032D
1117.772	2.047	1859460	REC_WORD	2.047	n/a	MARIGOLD	Flowers	9	10	[0, 0, 0]	n/a	catFR1	1	R1032D
1119.819	24.81	1862735	REC_WORD	24.81	n/a	ROSE	Flowers	10	10	[0, 0, 0]	n/a	catFR1	1	R1032D
1144.629	2.444	1902423	REC_END	n/a	n/a	n/a	n/a	-999	10	[0, 0, 0]	n/a	catFR1	1	R1032D
1147.073	0.0	1906333	TRIAL	n/a	n/a	n/a	n/a	-999	11	[0, 0, 0]	n/a	catFR1	1	R1032D
1147.073	10.428	1906333	COUNTDOWN_START	n/a	n/a	n/a	n/a	-999	11	[0, 0, 0]	n/a	catFR1	1	R1032D
1157.501	0.007	1923015	COUNTDOWN_END	n/a	n/a	n/a	n/a	-999	11	[0, 0, 0]	n/a	catFR1	1	R1032D
1157.508	3.551	1923026	ORIENT	n/a	n/a	n/a	n/a	-999	11	[0, 0, 0]	n/a	catFR1	1	R1032D
1161.059	2.45	1928706	WORD	n/a	wordpools/wordpool_categorized_EN.txt	PEELER	KitchenTools	1	11	[0, 0, 0]	n/a	catFR1	1	R1032D
1163.509	2.451	1932626	WORD	n/a	wordpools/wordpool_categorized_EN.txt	CORKSCREW	KitchenTools	2	11	[0, 0, 0]	n/a	catFR1	1	R1032D
1165.96	2.417	1936546	WORD	n/a	wordpools/wordpool_categorized_EN.txt	FINGERS	BodyParts	3	11	[0, 0, 0]	n/a	catFR1	1	R1032D
1168.377	2.534	1940413	WORD	n/a	wordpools/wordpool_categorized_EN.txt	HEAD	BodyParts	4	11	[0, 0, 0]	n/a	catFR1	1	R1032D
1170.911	2.584	1944466	WORD	n/a	wordpools/wordpool_categorized_EN.txt	MOTORCYCLE	Vehicles	5	11	[0, 0, 0]	n/a	catFR1	1	R1032D
1173.495	2.467	1948600	WORD	n/a	wordpools/wordpool_categorized_EN.txt	BOAT	Vehicles	6	11	[0, 0, 0]	n/a	catFR1	1	R1032D
1175.962	2.483	1952547	WORD	n/a	wordpools/wordpool_categorized_EN.txt	STRAINER	KitchenTools	7	11	[0, 0, 0]	n/a	catFR1	1	R1032D
1178.445	2.534	1956519	WORD	n/a	wordpools/wordpool_categorized_EN.txt	FORK	KitchenTools	8	11	[0, 0, 0]	n/a	catFR1	1	R1032D
1180.979	2.567	1960572	WORD	n/a	wordpools/wordpool_categorized_EN.txt	BIKE	Vehicles	9	11	[0, 0, 0]	n/a	catFR1	1	R1032D
1183.546	2.584	1964679	WORD	n/a	wordpools/wordpool_categorized_EN.txt	VAN	Vehicles	10	11	[0, 0, 0]	n/a	catFR1	1	R1032D
1186.13	2.601	1968812	WORD	n/a	wordpools/wordpool_categorized_EN.txt	EYE	BodyParts	11	11	[0, 0, 0]	n/a	catFR1	1	R1032D
1188.731	1.618	1972973	WORD	n/a	wordpools/wordpool_categorized_EN.txt	FOOT	BodyParts	12	11	[0, 0, 0]	n/a	catFR1	1	R1032D
1190.349	0.001	1975561	DISTRACT_START	n/a	n/a	n/a	n/a	-999	11	[0, 0, 0]	n/a	catFR1	1	R1032D
1190.35	0.014	1975563	START	n/a	n/a	n/a	n/a	-999	11	[-999, -999, -999]	n/a	catFR1	1	R1032D
1190.364	4.151	1975585	PROB	4.151	n/a	n/a	n/a	-999	11	[9, 6, 4]	19	catFR1	1	R1032D
1194.515	4.001	1982226	PROB	4.001	n/a	n/a	n/a	-999	11	[8, 7, 6]	21	catFR1	1	R1032D
1198.516	4.234	1988626	PROB	4.234	n/a	n/a	n/a	-999	11	[5, 4, 6]	15	catFR1	1	R1032D
1202.75	1.984	1995399	PROB	1.984	n/a	n/a	n/a	-999	11	[1, 1, 1]	3	catFR1	1	R1032D
1204.734	5.551	1998573	PROB	5.551	n/a	n/a	n/a	-999	11	[9, 4, 8]	21	catFR1	1	R1032D
1210.285	4.738	2007453	PROB	4.738	n/a	n/a	n/a	-999	11	[5, 7, 6]	18	catFR1	1	R1032D
1215.023	0.012	2015032	STOP	n/a	n/a	n/a	n/a	-999	11	[-999, -999, -999]	n/a	catFR1	1	R1032D
1215.035	1.068	2015051	DISTRACT_END	n/a	n/a	n/a	n/a	-999	11	[0, 0, 0]	n/a	catFR1	1	R1032D
1216.103	2.681	2016760	REC_START	n/a	n/a	n/a	n/a	-999	11	[0, 0, 0]	n/a	catFR1	1	R1032D
1218.784	1.615	2021049	REC_WORD	1.615	n/a	MOTORCYCLE	Vehicles	5	11	[0, 0, 0]	n/a	catFR1	1	R1032D
1220.399	1.408	2023632	REC_WORD	1.408	n/a	BOAT	Vehicles	6	11	[0, 0, 0]	n/a	catFR1	1	R1032D
1221.807	1.461	2025885	REC_WORD	1.461	n/a	VAN	Vehicles	10	11	[0, 0, 0]	n/a	catFR1	1	R1032D
1223.268	22.847	2028222	REC_WORD	22.847	n/a	FORK	KitchenTools	8	11	[0, 0, 0]	n/a	catFR1	1	R1032D
1246.115	2.71	2064770	REC_END	n/a	n/a	n/a	n/a	-999	11	[0, 0, 0]	n/a	catFR1	1	R1032D
1248.825	0.0	2069105	TRIAL	n/a	n/a	n/a	n/a	-999	12	[0, 0, 0]	n/a	catFR1	1	R1032D
1248.825	10.428	2069105	COUNTDOWN_START	n/a	n/a	n/a	n/a	-999	12	[0, 0, 0]	n/a	catFR1	1	R1032D
1259.253	0.007	2085787	COUNTDOWN_END	n/a	n/a	n/a	n/a	-999	12	[0, 0, 0]	n/a	catFR1	1	R1032D
1259.26	3.551	2085798	ORIENT	n/a	n/a	n/a	n/a	-999	12	[0, 0, 0]	n/a	catFR1	1	R1032D
1262.811	2.434	2091478	WORD	n/a	wordpools/wordpool_categorized_EN.txt	PIANO	Instruments	1	12	[0, 0, 0]	n/a	catFR1	1	R1032D
1265.245	2.566	2095372	WORD	n/a	wordpools/wordpool_categorized_EN.txt	ORGAN	Instruments	2	12	[0, 0, 0]	n/a	catFR1	1	R1032D
1267.811	2.385	2099477	WORD	n/a	wordpools/wordpool_categorized_EN.txt	CROWBAR	Tools	3	12	[0, 0, 0]	n/a	catFR1	1	R1032D
1270.196	2.5	2103292	WORD	n/a	wordpools/wordpool_categorized_EN.txt	WRENCH	Tools	4	12	[0, 0, 0]	n/a	catFR1	1	R1032D
1272.696	2.467	2107291	WORD	n/a	wordpools/wordpool_categorized_EN.txt	LADLE	KitchenTools	5	12	[0, 0, 0]	n/a	catFR1	1	R1032D
1275.163	2.517	2111238	WORD	n/a	wordpools/wordpool_categorized_EN.txt	WHISK	KitchenTools	6	12	[0, 0, 0]	n/a	catFR1	1	R1032D
1277.68	2.484	2115264	WORD	n/a	wordpools/wordpool_categorized_EN.txt	CELLO	Instruments	7	12	[0, 0, 0]	n/a	catFR1	1	R1032D
1280.164	2.484	2119238	WORD	n/a	wordpools/wordpool_categorized_EN.txt	FLUTE	Instruments	8	12	[0, 0, 0]	n/a	catFR1	1	R1032D
1282.648	2.467	2123212	WORD	n/a	wordpools/wordpool_categorized_EN.txt	TONGS	KitchenTools	9	12	[0, 0, 0]	n/a	catFR1	1	R1032D
1285.115	2.5	2127158	WORD	n/a	wordpools/wordpool_categorized_EN.txt	COLANDER	KitchenTools	10	12	[0, 0, 0]	n/a	catFR1	1	R1032D
1287.615	2.451	2131157	WORD	n/a	wordpools/wordpool_categorized_EN.txt	PLIERS	Tools	11	12	[0, 0, 0]	n/a	catFR1	1	R1032D
1290.066	1.617	2135078	WORD	n/a	wordpools/wordpool_categorized_EN.txt	HAMMER	Tools	12	12	[0, 0, 0]	n/a	catFR1	1	R1032D
1291.683	0.001	2137665	DISTRACT_START	n/a	n/a	n/a	n/a	-999	12	[0, 0, 0]	n/a	catFR1	1	R1032D
1291.684	0.015	2137666	START	n/a	n/a	n/a	n/a	-999	12	[-999, -999, -999]	n/a	catFR1	1	R1032D
1291.699	5.585	2137690	PROB	5.585	n/a	n/a	n/a	-999	12	[7, 2, 5]	14	catFR1	1	R1032D
1297.284	3.167	2146625	PROB	3.167	n/a	n/a	n/a	-999	12	[2, 4, 3]	9	catFR1	1	R1032D
1300.451	3.001	2151691	PROB	3.001	n/a	n/a	n/a	-999	12	[8, 3, 3]	14	catFR1	1	R1032D
1303.452	2.967	2156492	PROB	2.967	n/a	n/a	n/a	-999	12	[8, 8, 4]	20	catFR1	1	R1032D
1306.419	2.15	2161238	PROB	2.15	n/a	n/a	n/a	-999	12	[1, 2, 3]	6	catFR1	1	R1032D
1308.569	3.678	2164677	PROB	3.678	n/a	n/a	n/a	-999	12	[9, 4, 1]	14	catFR1	1	R1032D
1312.247	0.006	2170561	STOP	n/a	n/a	n/a	n/a	-999	12	[-999, -999, -999]	n/a	catFR1	1	R1032D
1312.253	1.168	2170571	DISTRACT_END	n/a	n/a	n/a	n/a	-999	12	[0, 0, 0]	n/a	catFR1	1	R1032D
1313.421	1.646	2172439	REC_START	n/a	n/a	n/a	n/a	-999	12	[0, 0, 0]	n/a	catFR1	1	R1032D
1315.067	1.19	2175072	REC_WORD	1.19	n/a	LADLE	KitchenTools	5	12	[0, 0, 0]	n/a	catFR1	1	R1032D
1316.257	1.633	2176976	REC_WORD	1.633	n/a	WHISK	KitchenTools	6	12	[0, 0, 0]	n/a	catFR1	1	R1032D
1317.89	25.543	2179588	REC_WORD	25.543	n/a	TONGS	KitchenTools	9	12	[0, 0, 0]	n/a	catFR1	1	R1032D
1343.433	3.443	2220449	REC_END	n/a	n/a	n/a	n/a	-999	12	[0, 0, 0]	n/a	catFR1	1	R1032D
1346.876	0.001	2225957	COUNTDOWN_START	n/a	n/a	n/a	n/a	-999	13	[0, 0, 0]	n/a	catFR1	1	R1032D
1346.877	10.427	2225958	TRIAL	n/a	n/a	n/a	n/a	-999	13	[0, 0, 0]	n/a	catFR1	1	R1032D
1357.304	0.008	2242638	COUNTDOWN_END	n/a	n/a	n/a	n/a	-999	13	[0, 0, 0]	n/a	catFR1	1	R1032D
1357.312	3.717	2242651	ORIENT	n/a	n/a	n/a	n/a	-999	13	[0, 0, 0]	n/a	catFR1	1	R1032D
1361.029	2.584	2248597	WORD	n/a	wordpools/wordpool_categorized_EN.txt	LAKE	Landscapes	1	13	[0, 0, 0]	n/a	catFR1	1	R1032D
1363.613	2.533	2252731	WORD	n/a	wordpools/wordpool_categorized_EN.txt	ISLAND	Landscapes	2	13	[0, 0, 0]	n/a	catFR1	1	R1032D
1366.146	2.601	2256783	WORD	n/a	wordpools/wordpool_categorized_EN.txt	IRON	Appliances	3	13	[0, 0, 0]	n/a	catFR1	1	R1032D
1368.747	2.467	2260944	WORD	n/a	wordpools/wordpool_categorized_EN.txt	REFRIGERATOR	Appliances	4	13	[0, 0, 0]	n/a	catFR1	1	R1032D
1371.214	2.501	2264890	WORD	n/a	wordpools/wordpool_categorized_EN.txt	LEMON	Fruit	5	13	[0, 0, 0]	n/a	catFR1	1	R1032D
1373.715	2.5	2268891	WORD	n/a	wordpools/wordpool_categorized_EN.txt	BANANA	Fruit	6	13	[0, 0, 0]	n/a	catFR1	1	R1032D
1376.215	2.617	2272890	WORD	n/a	wordpools/wordpool_categorized_EN.txt	STOVE	Appliances	7	13	[0, 0, 0]	n/a	catFR1	1	R1032D
1378.832	2.617	2277077	WORD	n/a	wordpools/wordpool_categorized_EN.txt	VACUUM	Appliances	8	13	[0, 0, 0]	n/a	catFR1	1	R1032D
1381.449	2.634	2281263	WORD	n/a	wordpools/wordpool_categorized_EN.txt	BEACH	Landscapes	9	13	[0, 0, 0]	n/a	catFR1	1	R1032D
1384.083	2.467	2285477	WORD	n/a	wordpools/wordpool_categorized_EN.txt	HILLS	Landscapes	10	13	[0, 0, 0]	n/a	catFR1	1	R1032D
1386.55	2.551	2289423	WORD	n/a	wordpools/wordpool_categorized_EN.txt	BLUEBERRY	Fruit	11	13	[0, 0, 0]	n/a	catFR1	1	R1032D
1389.101	1.617	2293504	WORD	n/a	wordpools/wordpool_categorized_EN.txt	PEACH	Fruit	12	13	[0, 0, 0]	n/a	catFR1	1	R1032D
1390.718	0.001	2296091	DISTRACT_START	n/a	n/a	n/a	n/a	-999	13	[0, 0, 0]	n/a	catFR1	1	R1032D
1390.719	0.015	2296092	START	n/a	n/a	n/a	n/a	-999	13	[-999, -999, -999]	n/a	catFR1	1	R1032D
1390.734	4.468	2296116	PROB	4.468	n/a	n/a	n/a	-999	13	[2, 7, 8]	17	catFR1	1	R1032D
1395.202	4.084	2303264	PROB	4.084	n/a	n/a	n/a	-999	13	[7, 8, 9]	24	catFR1	1	R1032D
1399.286	6.052	2309797	PROB	6.052	n/a	n/a	n/a	-999	13	[7, 1, 1]	9	catFR1	1	R1032D
1405.338	5.3	2319478	PROB	5.3	n/a	n/a	n/a	-999	13	[7, 6, 6]	19	catFR1	1	R1032D
1410.638	3.601	2327956	PROB	3.601	n/a	n/a	n/a	-999	13	[7, 4, 4]	15	catFR1	1	R1032D
1414.239	0.016	2333717	STOP	n/a	n/a	n/a	n/a	-999	13	[-999, -999, -999]	n/a	catFR1	1	R1032D
1414.255	1.201	2333743	DISTRACT_END	n/a	n/a	n/a	n/a	-999	13	[0, 0, 0]	n/a	catFR1	1	R1032D
1415.456	3.221	2335664	REC_START	n/a	n/a	n/a	n/a	-999	13	[0, 0, 0]	n/a	catFR1	1	R1032D
1418.677	2.284	2340816	REC_WORD	2.284	n/a	ISLAND	Landscapes	2	13	[0, 0, 0]	n/a	catFR1	1	R1032D
1420.961	3.012	2344470	REC_WORD	3.012	n/a	BEACH	Landscapes	9	13	[0, 0, 0]	n/a	catFR1	1	R1032D
1423.973	21.494	2349288	REC_WORD	21.494	n/a	WATER	n/a	-999	13	[0, 0, 0]	n/a	catFR1	1	R1032D
1445.467	2.928	2383672	REC_END	n/a	n/a	n/a	n/a	-999	13	[0, 0, 0]	n/a	catFR1	1	R1032D
1448.395	0.0	2388356	TRIAL	n/a	n/a	n/a	n/a	-999	14	[0, 0, 0]	n/a	catFR1	1	R1032D
1448.395	10.428	2388356	COUNTDOWN_START	n/a	n/a	n/a	n/a	-999	14	[0, 0, 0]	n/a	catFR1	1	R1032D
1458.823	0.007	2405038	COUNTDOWN_END	n/a	n/a	n/a	n/a	-999	14	[0, 0, 0]	n/a	catFR1	1	R1032D
1458.83	3.617	2405049	ORIENT	n/a	n/a	n/a	n/a	-999	14	[0, 0, 0]	n/a	catFR1	1	R1032D
1462.447	2.434	2410835	WORD	n/a	wordpools/wordpool_categorized_EN.txt	ROACH	Insects	1	14	[0, 0, 0]	n/a	catFR1	1	R1032D
1464.881	2.517	2414729	WORD	n/a	wordpools/wordpool_categorized_EN.txt	MOTH	Insects	2	14	[0, 0, 0]	n/a	catFR1	1	R1032D
1467.398	2.601	2418755	WORD	n/a	wordpools/wordpool_categorized_EN.txt	DRESS	Clothing	3	14	[0, 0, 0]	n/a	catFR1	1	R1032D
1469.999	2.5	2422916	WORD	n/a	wordpools/wordpool_categorized_EN.txt	SOCKS	Clothing	4	14	[0, 0, 0]	n/a	catFR1	1	R1032D
1472.499	2.517	2426915	WORD	n/a	wordpools/wordpool_categorized_EN.txt	BLUEBIRD	Birds	5	14	[0, 0, 0]	n/a	catFR1	1	R1032D
1475.016	2.384	2430942	WORD	n/a	wordpools/wordpool_categorized_EN.txt	FINCH	Birds	6	14	[0, 0, 0]	n/a	catFR1	1	R1032D
1477.4	2.401	2434755	WORD	n/a	wordpools/wordpool_categorized_EN.txt	ANT	Insects	7	14	[0, 0, 0]	n/a	catFR1	1	R1032D
1479.801	2.617	2438596	WORD	n/a	wordpools/wordpool_categorized_EN.txt	MOSQUITO	Insects	8	14	[0, 0, 0]	n/a	catFR1	1	R1032D
1482.418	2.567	2442783	WORD	n/a	wordpools/wordpool_categorized_EN.txt	HAWK	Birds	9	14	[0, 0, 0]	n/a	catFR1	1	R1032D
1484.985	2.634	2446889	WORD	n/a	wordpools/wordpool_categorized_EN.txt	ROBIN	Birds	10	14	[0, 0, 0]	n/a	catFR1	1	R1032D
1487.619	2.467	2451103	WORD	n/a	wordpools/wordpool_categorized_EN.txt	PANTS	Clothing	11	14	[0, 0, 0]	n/a	catFR1	1	R1032D
1490.086	1.617	2455049	WORD	n/a	wordpools/wordpool_categorized_EN.txt	SHOES	Clothing	12	14	[0, 0, 0]	n/a	catFR1	1	R1032D
1491.703	0.001	2457636	DISTRACT_START	n/a	n/a	n/a	n/a	-999	14	[0, 0, 0]	n/a	catFR1	1	R1032D
1491.704	0.015	2457637	START	n/a	n/a	n/a	n/a	-999	14	[-999, -999, -999]	n/a	catFR1	1	R1032D
1491.719	3.635	2457661	PROB	3.635	n/a	n/a	n/a	-999	14	[2, 7, 3]	12	catFR1	1	R1032D
1495.354	3.1	2463476	PROB	3.1	n/a	n/a	n/a	-999	14	[5, 2, 4]	11	catFR1	1	R1032D
1498.454	4.051	2468435	PROB	4.051	n/a	n/a	n/a	-999	14	[9, 2, 5]	16	catFR1	1	R1032D
1502.505	3.851	2474916	PROB	3.851	n/a	n/a	n/a	-999	14	[4, 2, 3]	9	catFR1	1	R1032D
1506.356	3.9	2481076	PROB	3.9	n/a	n/a	n/a	-999	14	[3, 2, 7]	12	catFR1	1	R1032D
1510.256	3.383	2487315	PROB	3.383	n/a	n/a	n/a	-999	14	[2, 6, 1]	9	catFR1	1	R1032D
1513.639	0.018	2492727	STOP	n/a	n/a	n/a	n/a	-999	14	[-999, -999, -999]	n/a	catFR1	1	R1032D
1513.657	1.201	2492755	DISTRACT_END	n/a	n/a	n/a	n/a	-999	14	[0, 0, 0]	n/a	catFR1	1	R1032D
1514.858	2.431	2494677	REC_START	n/a	n/a	n/a	n/a	-999	14	[0, 0, 0]	n/a	catFR1	1	R1032D
1517.289	1.321	2498566	REC_WORD	1.321	n/a	DRESS	Clothing	3	14	[0, 0, 0]	n/a	catFR1	1	R1032D
1518.61	1.706	2500679	REC_WORD	1.706	n/a	SOCKS	Clothing	4	14	[0, 0, 0]	n/a	catFR1	1	R1032D
1520.316	1.399	2503408	REC_WORD	1.399	n/a	PANTS	Clothing	11	14	[0, 0, 0]	n/a	catFR1	1	R1032D
1521.715	23.154	2505646	REC_WORD	23.154	n/a	MOSQUITO	Insects	8	14	[0, 0, 0]	n/a	catFR1	1	R1032D
1544.869	3.445	2542685	REC_END	n/a	n/a	n/a	n/a	-999	14	[0, 0, 0]	n/a	catFR1	1	R1032D
1548.314	0.0	2548196	TRIAL	n/a	n/a	n/a	n/a	-999	15	[0, 0, 0]	n/a	catFR1	1	R1032D
1548.314	10.428	2548196	COUNTDOWN_START	n/a	n/a	n/a	n/a	-999	15	[0, 0, 0]	n/a	catFR1	1	R1032D
1558.742	0.006	2564878	COUNTDOWN_END	n/a	n/a	n/a	n/a	-999	15	[0, 0, 0]	n/a	catFR1	1	R1032D
1558.748	3.552	2564887	ORIENT	n/a	n/a	n/a	n/a	-999	15	[0, 0, 0]	n/a	catFR1	1	R1032D
1562.3	2.483	2570569	WORD	n/a	wordpools/wordpool_categorized_EN.txt	DRILL	Tools	1	15	[0, 0, 0]	n/a	catFR1	1	R1032D
1564.783	2.45	2574541	WORD	n/a	wordpools/wordpool_categorized_EN.txt	RATCHET	Tools	2	15	[0, 0, 0]	n/a	catFR1	1	R1032D
1567.233	2.451	2578461	WORD	n/a	wordpools/wordpool_categorized_EN.txt	DUCK	Birds	3	15	[0, 0, 0]	n/a	catFR1	1	R1032D
1569.684	2.517	2582381	WORD	n/a	wordpools/wordpool_categorized_EN.txt	CROW	Birds	4	15	[0, 0, 0]	n/a	catFR1	1	R1032D
1572.201	2.567	2586408	WORD	n/a	wordpools/wordpool_categorized_EN.txt	CARNATION	Flowers	5	15	[0, 0, 0]	n/a	catFR1	1	R1032D
1574.768	2.484	2590514	WORD	n/a	wordpools/wordpool_categorized_EN.txt	DAISY	Flowers	6	15	[0, 0, 0]	n/a	catFR1	1	R1032D
1577.252	2.383	2594488	WORD	n/a	wordpools/wordpool_categorized_EN.txt	SEAGULL	Birds	7	15	[0, 0, 0]	n/a	catFR1	1	R1032D
1579.635	2.568	2598300	WORD	n/a	wordpools/wordpool_categorized_EN.txt	PIGEON	Birds	8	15	[0, 0, 0]	n/a	catFR1	1	R1032D
1582.203	2.583	2602408	WORD	n/a	wordpools/wordpool_categorized_EN.txt	SAW	Tools	9	15	[0, 0, 0]	n/a	catFR1	1	R1032D
1584.786	2.484	2606540	WORD	n/a	wordpools/wordpool_categorized_EN.txt	SANDER	Tools	10	15	[0, 0, 0]	n/a	catFR1	1	R1032D
1587.27	2.617	2610514	WORD	n/a	wordpools/wordpool_categorized_EN.txt	DAFFODIL	Flowers	11	15	[0, 0, 0]	n/a	catFR1	1	R1032D
1589.887	1.617	2614700	WORD	n/a	wordpools/wordpool_categorized_EN.txt	TULIP	Flowers	12	15	[0, 0, 0]	n/a	catFR1	1	R1032D
1591.504	0.001	2617287	DISTRACT_START	n/a	n/a	n/a	n/a	-999	15	[0, 0, 0]	n/a	catFR1	1	R1032D
1591.505	0.016	2617288	START	n/a	n/a	n/a	n/a	-999	15	[-999, -999, -999]	n/a	catFR1	1	R1032D
1591.521	5.785	2617314	PROB	5.785	n/a	n/a	n/a	-999	15	[6, 5, 9]	20	catFR1	1	R1032D
1597.306	6.117	2626568	PROB	6.117	n/a	n/a	n/a	-999	15	[2, 8, 1]	11	catFR1	1	R1032D
1603.423	3.834	2636354	PROB	3.834	n/a	n/a	n/a	-999	15	[2, 8, 8]	18	catFR1	1	R1032D
1607.257	4.734	2642487	PROB	4.734	n/a	n/a	n/a	-999	15	[9, 4, 8]	21	catFR1	1	R1032D
1611.991	0.017	2650060	STOP	n/a	n/a	n/a	n/a	-999	15	[-999, -999, -999]	n/a	catFR1	1	R1032D
1612.008	1.217	2650087	DISTRACT_END	n/a	n/a	n/a	n/a	-999	15	[0, 0, 0]	n/a	catFR1	1	R1032D
1613.225	2.226	2652034	REC_START	n/a	n/a	n/a	n/a	-999	15	[0, 0, 0]	n/a	catFR1	1	R1032D
1615.451	1.029	2655595	REC_WORD	1.029	n/a	DAISY	Flowers	6	15	[0, 0, 0]	n/a	catFR1	1	R1032D
1616.48	26.76	2657241	REC_WORD	26.76	n/a	CARNATION	Flowers	5	15	[0, 0, 0]	n/a	catFR1	1	R1032D
1643.24	3.808	2700049	REC_END	n/a	n/a	n/a	n/a	-999	15	[0, 0, 0]	n/a	catFR1	1	R1032D
1647.048	0.0	2706140	TRIAL	n/a	n/a	n/a	n/a	-999	16	[0, 0, 0]	n/a	catFR1	1	R1032D
1647.048	10.428	2706140	COUNTDOWN_START	n/a	n/a	n/a	n/a	-999	16	[0, 0, 0]	n/a	catFR1	1	R1032D
1657.476	0.007	2722822	COUNTDOWN_END	n/a	n/a	n/a	n/a	-999	16	[0, 0, 0]	n/a	catFR1	1	R1032D
1657.483	3.784	2722833	ORIENT	n/a	n/a	n/a	n/a	-999	16	[0, 0, 0]	n/a	catFR1	1	R1032D
1661.267	2.451	2728886	WORD	n/a	wordpools/wordpool_categorized_EN.txt	CRICKET	Insects	1	16	[0, 0, 0]	n/a	catFR1	1	R1032D
1663.718	2.55	2732807	WORD	n/a	wordpools/wordpool_categorized_EN.txt	SPIDER	Insects	2	16	[0, 0, 0]	n/a	catFR1	1	R1032D
1666.268	2.417	2736886	WORD	n/a	wordpools/wordpool_categorized_EN.txt	PEAS	Vegetables	3	16	[0, 0, 0]	n/a	catFR1	1	R1032D
1668.685	2.467	2740753	WORD	n/a	wordpools/wordpool_categorized_EN.txt	CUCUMBER	Vegetables	4	16	[0, 0, 0]	n/a	catFR1	1	R1032D
1671.152	2.434	2744699	WORD	n/a	wordpools/wordpool_categorized_EN.txt	DESK	Furniture	5	16	[0, 0, 0]	n/a	catFR1	1	R1032D
1673.586	2.467	2748593	WORD	n/a	wordpools/wordpool_categorized_EN.txt	CABINET	Furniture	6	16	[0, 0, 0]	n/a	catFR1	1	R1032D
1676.053	2.467	2752539	WORD	n/a	wordpools/wordpool_categorized_EN.txt	ONION	Vegetables	7	16	[0, 0, 0]	n/a	catFR1	1	R1032D
1678.52	2.584	2756486	WORD	n/a	wordpools/wordpool_categorized_EN.txt	SPINACH	Vegetables	8	16	[0, 0, 0]	n/a	catFR1	1	R1032D
1681.104	2.384	2760619	WORD	n/a	wordpools/wordpool_categorized_EN.txt	FLY	Insects	9	16	[0, 0, 0]	n/a	catFR1	1	R1032D
1683.488	2.45	2764433	WORD	n/a	wordpools/wordpool_categorized_EN.txt	BUTTERFLY	Insects	10	16	[0, 0, 0]	n/a	catFR1	1	R1032D
1685.938	2.385	2768352	WORD	n/a	wordpools/wordpool_categorized_EN.txt	BED	Furniture	11	16	[0, 0, 0]	n/a	catFR1	1	R1032D
1688.323	1.616	2772168	WORD	n/a	wordpools/wordpool_categorized_EN.txt	SOFA	Furniture	12	16	[0, 0, 0]	n/a	catFR1	1	R1032D
1689.939	0.001	2774753	DISTRACT_START	n/a	n/a	n/a	n/a	-999	16	[0, 0, 0]	n/a	catFR1	1	R1032D
1689.94	0.016	2774754	START	n/a	n/a	n/a	n/a	-999	16	[-999, -999, -999]	n/a	catFR1	1	R1032D
1689.956	14.786	2774780	PROB	14.786	n/a	n/a	n/a	-999	16	[2, 1, 2]	5	catFR1	1	R1032D
1704.742	5.777	2798433	PROB	5.777	n/a	n/a	n/a	-999	16	[5, 6, 6]	17	catFR1	1	R1032D
1710.519	0.007	2807674	STOP	n/a	n/a	n/a	n/a	-999	16	[-999, -999, -999]	n/a	catFR1	1	R1032D
1710.526	1.218	2807686	DISTRACT_END	n/a	n/a	n/a	n/a	-999	16	[0, 0, 0]	n/a	catFR1	1	R1032D
1711.744	2.951	2809634	REC_START	n/a	n/a	n/a	n/a	-999	16	[0, 0, 0]	n/a	catFR1	1	R1032D
1714.695	0.946	2814355	REC_WORD	0.946	n/a	CRICKET	Insects	1	16	[0, 0, 0]	n/a	catFR1	1	R1032D
1715.641	1.96	2815868	REC_WORD	1.96	n/a	SPIDER	Insects	2	16	[0, 0, 0]	n/a	catFR1	1	R1032D
1717.601	1.399	2819004	REC_WORD	1.399	n/a	PEAS	Vegetables	3	16	[0, 0, 0]	n/a	catFR1	1	R1032D
1719.0	1.184	2821241	REC_WORD	1.184	n/a	SPINACH	Vegetables	8	16	[0, 0, 0]	n/a	catFR1	1	R1032D
1720.184	21.572	2823136	REC_WORD	21.572	n/a	ONION	Vegetables	7	16	[0, 0, 0]	n/a	catFR1	1	R1032D
1741.756	2.776	2857644	REC_END	n/a	n/a	n/a	n/a	-999	16	[0, 0, 0]	n/a	catFR1	1	R1032D
1744.532	0.001	2862085	COUNTDOWN_START	n/a	n/a	n/a	n/a	-999	17	[0, 0, 0]	n/a	catFR1	1	R1032D
1744.533	10.427	2862086	TRIAL	n/a	n/a	n/a	n/a	-999	17	[0, 0, 0]	n/a	catFR1	1	R1032D
1754.96	0.008	2878767	COUNTDOWN_END	n/a	n/a	n/a	n/a	-999	17	[0, 0, 0]	n/a	catFR1	1	R1032D
1754.968	3.767	2878779	ORIENT	n/a	n/a	n/a	n/a	-999	17	[0, 0, 0]	n/a	catFR1	1	R1032D
1758.735	2.568	2884805	WORD	n/a	wordpools/wordpool_categorized_EN.txt	MARKER	OfficeSupplies	1	17	[0, 0, 0]	n/a	catFR1	1	R1032D
1761.303	2.4	2888913	WORD	n/a	wordpools/wordpool_categorized_EN.txt	PAPER	OfficeSupplies	2	17	[0, 0, 0]	n/a	catFR1	1	R1032D
1763.703	2.601	2892753	WORD	n/a	wordpools/wordpool_categorized_EN.txt	SPRUCE	Trees	3	17	[0, 0, 0]	n/a	catFR1	1	R1032D
1766.304	2.399	2896913	WORD	n/a	wordpools/wordpool_categorized_EN.txt	CEDAR	Trees	4	17	[0, 0, 0]	n/a	catFR1	1	R1032D
1768.703	2.619	2900751	WORD	n/a	wordpools/wordpool_categorized_EN.txt	CALCULATOR	Electronics	5	17	[0, 0, 0]	n/a	catFR1	1	R1032D
1771.322	2.399	2904941	WORD	n/a	wordpools/wordpool_categorized_EN.txt	SCANNER	Electronics	6	17	[0, 0, 0]	n/a	catFR1	1	R1032D
1773.721	2.517	2908778	WORD	n/a	wordpools/wordpool_categorized_EN.txt	RULER	OfficeSupplies	7	17	[0, 0, 0]	n/a	catFR1	1	R1032D
1776.238	2.617	2912805	WORD	n/a	wordpools/wordpool_categorized_EN.txt	ERASER	OfficeSupplies	8	17	[0, 0, 0]	n/a	catFR1	1	R1032D
1778.855	2.485	2916991	WORD	n/a	wordpools/wordpool_categorized_EN.txt	MICROWAVE	Electronics	9	17	[0, 0, 0]	n/a	catFR1	1	R1032D
1781.34	2.5	2920966	WORD	n/a	wordpools/wordpool_categorized_EN.txt	HEADPHONES	Electronics	10	17	[0, 0, 0]	n/a	catFR1	1	R1032D
1783.84	2.617	2924966	WORD	n/a	wordpools/wordpool_categorized_EN.txt	CYPRESS	Trees	11	17	[0, 0, 0]	n/a	catFR1	1	R1032D
1786.457	1.617	2929152	WORD	n/a	wordpools/wordpool_categorized_EN.txt	OAK	Trees	12	17	[0, 0, 0]	n/a	catFR1	1	R1032D
1788.074	0.001	2931739	DISTRACT_START	n/a	n/a	n/a	n/a	-999	17	[0, 0, 0]	n/a	catFR1	1	R1032D
1788.075	0.015	2931740	START	n/a	n/a	n/a	n/a	-999	17	[-999, -999, -999]	n/a	catFR1	1	R1032D
1788.09	3.601	2931764	PROB	3.601	n/a	n/a	n/a	-999	17	[7, 2, 3]	12	catFR1	1	R1032D
1791.691	4.934	2937525	PROB	4.934	n/a	n/a	n/a	-999	17	[6, 3, 6]	15	catFR1	1	R1032D
1796.625	3.584	2945418	PROB	3.584	n/a	n/a	n/a	-999	17	[8, 7, 6]	21	catFR1	1	R1032D
1800.209	8.35	2951151	PROB	8.35	n/a	n/a	n/a	-999	17	[5, 9, 7]	21	catFR1	1	R1032D
1808.559	0.018	2964509	STOP	n/a	n/a	n/a	n/a	-999	17	[-999, -999, -999]	n/a	catFR1	1	R1032D
1808.577	1.22	2964537	DISTRACT_END	n/a	n/a	n/a	n/a	-999	17	[0, 0, 0]	n/a	catFR1	1	R1032D
1809.797	4.963	2966489	REC_START	n/a	n/a	n/a	n/a	-999	17	[0, 0, 0]	n/a	catFR1	1	R1032D
1814.76	1.093	2974428	REC_WORD	1.093	n/a	MARKER	OfficeSupplies	1	17	[0, 0, 0]	n/a	catFR1	1	R1032D
1815.853	1.481	2976177	REC_WORD	1.481	n/a	PAPER	OfficeSupplies	2	17	[0, 0, 0]	n/a	catFR1	1	R1032D
1817.334	2.608	2978546	REC_WORD	2.608	n/a	SCANNER	Electronics	6	17	[0, 0, 0]	n/a	catFR1	1	R1032D
1819.942	1.5	2982718	REC_WORD	1.5	n/a	RULER	OfficeSupplies	7	17	[0, 0, 0]	n/a	catFR1	1	R1032D
1821.442	18.365	2985117	REC_WORD	18.365	n/a	CALCULATOR	Electronics	5	17	[0, 0, 0]	n/a	catFR1	1	R1032D
1839.807	3.677	3014496	REC_END	n/a	n/a	n/a	n/a	-999	17	[0, 0, 0]	n/a	catFR1	1	R1032D
1843.484	0.0	3020378	TRIAL	n/a	n/a	n/a	n/a	-999	18	[0, 0, 0]	n/a	catFR1	1	R1032D
1843.484	10.428	3020378	COUNTDOWN_START	n/a	n/a	n/a	n/a	-999	18	[0, 0, 0]	n/a	catFR1	1	R1032D
1853.912	0.007	3037059	COUNTDOWN_END	n/a	n/a	n/a	n/a	-999	18	[0, 0, 0]	n/a	catFR1	1	R1032D
1853.919	3.75	3037071	ORIENT	n/a	n/a	n/a	n/a	-999	18	[0, 0, 0]	n/a	catFR1	1	R1032D
1857.669	2.485	3043070	WORD	n/a	wordpools/wordpool_categorized_EN.txt	HAND	BodyParts	1	18	[0, 0, 0]	n/a	catFR1	1	R1032D
1860.154	2.383	3047045	WORD	n/a	wordpools/wordpool_categorized_EN.txt	ELBOW	BodyParts	2	18	[0, 0, 0]	n/a	catFR1	1	R1032D
1862.537	2.584	3050857	WORD	n/a	wordpools/wordpool_categorized_EN.txt	LILAC	Flowers	3	18	[0, 0, 0]	n/a	catFR1	1	R1032D
1865.121	2.417	3054990	WORD	n/a	wordpools/wordpool_categorized_EN.txt	PETUNIA	Flowers	4	18	[0, 0, 0]	n/a	catFR1	1	R1032D
1867.538	2.501	3058857	WORD	n/a	wordpools/wordpool_categorized_EN.txt	DISHWASHER	Appliances	5	18	[0, 0, 0]	n/a	catFR1	1	R1032D
1870.039	2.517	3062858	WORD	n/a	wordpools/wordpool_categorized_EN.txt	DRYER	Appliances	6	18	[0, 0, 0]	n/a	catFR1	1	R1032D
1872.556	2.55	3066884	WORD	n/a	wordpools/wordpool_categorized_EN.txt	LILY	Flowers	7	18	[0, 0, 0]	n/a	catFR1	1	R1032D
1875.106	2.468	3070963	WORD	n/a	wordpools/wordpool_categorized_EN.txt	ORCHID	Flowers	8	18	[0, 0, 0]	n/a	catFR1	1	R1032D
1877.574	2.383	3074911	WORD	n/a	wordpools/wordpool_categorized_EN.txt	NOSE	BodyParts	9	18	[0, 0, 0]	n/a	catFR1	1	R1032D
1879.957	2.434	3078724	WORD	n/a	wordpools/wordpool_categorized_EN.txt	LEG	BodyParts	10	18	[0, 0, 0]	n/a	catFR1	1	R1032D
1882.391	2.384	3082617	WORD	n/a	wordpools/wordpool_categorized_EN.txt	OVEN	Appliances	11	18	[0, 0, 0]	n/a	catFR1	1	R1032D
1884.775	1.617	3086431	WORD	n/a	wordpools/wordpool_categorized_EN.txt	MIXER	Appliances	12	18	[0, 0, 0]	n/a	catFR1	1	R1032D
1886.392	0.001	3089018	DISTRACT_START	n/a	n/a	n/a	n/a	-999	18	[0, 0, 0]	n/a	catFR1	1	R1032D
1886.393	0.015	3089019	START	n/a	n/a	n/a	n/a	-999	18	[-999, -999, -999]	n/a	catFR1	1	R1032D
1886.408	5.535	3089043	PROB	5.535	n/a	n/a	n/a	-999	18	[8, 5, 1]	14	catFR1	1	R1032D
1891.943	5.684	3097897	PROB	5.684	n/a	n/a	n/a	-999	18	[4, 7, 5]	16	catFR1	1	R1032D
1897.627	3.601	3106990	PROB	3.601	n/a	n/a	n/a	-999	18	[1, 6, 8]	15	catFR1	1	R1032D
1901.228	5.651	3112751	PROB	5.651	n/a	n/a	n/a	-999	18	[5, 3, 9]	17	catFR1	1	R1032D
1906.879	0.016	3121791	STOP	n/a	n/a	n/a	n/a	-999	18	[-999, -999, -999]	n/a	catFR1	1	R1032D
1906.895	1.151	3121816	DISTRACT_END	n/a	n/a	n/a	n/a	-999	18	[0, 0, 0]	n/a	catFR1	1	R1032D
1908.046	2.18	3123657	REC_START	n/a	n/a	n/a	n/a	-999	18	[0, 0, 0]	n/a	catFR1	1	R1032D
1910.226	1.336	3127145	REC_WORD	1.336	n/a	ELBOW	BodyParts	2	18	[0, 0, 0]	n/a	catFR1	1	R1032D
1911.562	26.499	3129282	REC_WORD	26.499	n/a	LEG	BodyParts	10	18	[0, 0, 0]	n/a	catFR1	1	R1032D
1938.061	44.698	3171672	REC_END	n/a	n/a	n/a	n/a	-999	18	[0, 0, 0]	n/a	catFR1	1	R1032D
1982.759	0.001	3243175	COUNTDOWN_START	n/a	n/a	n/a	n/a	-999	19	[0, 0, 0]	n/a	catFR1	1	R1032D
1982.76	0.0	3243177	TRIAL	n/a	n/a	n/a	n/a	-999	19	[0, 0, 0]	n/a	catFR1	1	R1032D
