onset	duration	sample	trial_type	response_time	stim_file	item_name	category	serialpos	list	test	answer	experiment	session	subject
0.0	0.0	5021	INSTRUCT_START	n/a	n/a	n/a	n/a	-999	-999	[0, 0, 0]	n/a	catFR1	0	R1264P
0.0	11.025	5021	INSTRUCT_END	n/a	n/a	n/a	n/a	-999	-999	[0, 0, 0]	n/a	catFR1	0	R1264P
11.025	0.0	16045	SESS_START	n/a	n/a	n/a	n/a	-999	-999	[0, 0, 0]	n/a	catFR1	0	R1264P
11.025	219.408	16045	MIC_TEST	n/a	n/a	n/a	n/a	-999	-999	[0, 0, 0]	n/a	catFR1	0	R1264P
230.433	1.611	235442	PRACTICE_TRIAL	n/a	n/a	n/a	n/a	-999	-1	[0, 0, 0]	n/a	catFR1	0	R1264P
232.044	10.428	237053	COUNTDOWN_START	n/a	n/a	n/a	n/a	-999	-1	[0, 0, 0]	n/a	catFR1	0	R1264P
242.472	0.008	247480	COUNTDOWN_END	n/a	n/a	n/a	n/a	-999	-1	[0, 0, 0]	n/a	catFR1	0	R1264P
242.48	1.617	247488	PRACTICE_ORIENT	n/a	n/a	n/a	n/a	-999	-1	[0, 0, 0]	n/a	catFR1	0	R1264P
244.097	2.2	249105	PRACTICE_ORIENT_OFF	n/a	n/a	n/a	n/a	-999	-1	[0, 0, 0]	n/a	catFR1	0	R1264P
246.297	1.617	251305	PRACTICE_WORD	n/a	n/a	BEAM	n/a	-1	-1	[0, 0, 0]	n/a	catFR1	0	R1264P
247.914	0.95	252922	PRACTICE_WORD_OFF	n/a	n/a	BEAM	n/a	-999	-1	[0, 0, 0]	n/a	catFR1	0	R1264P
248.864	1.617	253872	PRACTICE_WORD	n/a	n/a	WAGON	n/a	-1	-1	[0, 0, 0]	n/a	catFR1	0	R1264P
250.481	0.934	255489	PRACTICE_WORD_OFF	n/a	n/a	WAGON	n/a	-999	-1	[0, 0, 0]	n/a	catFR1	0	R1264P
251.415	1.617	256423	PRACTICE_WORD	n/a	n/a	ATTIC	n/a	-1	-1	[0, 0, 0]	n/a	catFR1	0	R1264P
253.032	1.0	258040	PRACTICE_WORD_OFF	n/a	n/a	ATTIC	n/a	-999	-1	[0, 0, 0]	n/a	catFR1	0	R1264P
254.032	1.616	259040	PRACTICE_WORD	n/a	n/a	RHINO	n/a	-1	-1	[0, 0, 0]	n/a	catFR1	0	R1264P
255.648	0.834	260656	PRACTICE_WORD_OFF	n/a	n/a	RHINO	n/a	-999	-1	[0, 0, 0]	n/a	catFR1	0	R1264P
256.482	1.617	261490	PRACTICE_WORD	n/a	n/a	COTTON	n/a	-1	-1	[0, 0, 0]	n/a	catFR1	0	R1264P
258.099	0.95	263107	PRACTICE_WORD_OFF	n/a	n/a	COTTON	n/a	-999	-1	[0, 0, 0]	n/a	catFR1	0	R1264P
259.049	1.616	264057	PRACTICE_WORD	n/a	n/a	CHEST	n/a	-1	-1	[0, 0, 0]	n/a	catFR1	0	R1264P
260.665	1.001	265672	PRACTICE_WORD_OFF	n/a	n/a	CHEST	n/a	-999	-1	[0, 0, 0]	n/a	catFR1	0	R1264P
261.666	1.618	266673	PRACTICE_WORD	n/a	n/a	IRON	n/a	-1	-1	[0, 0, 0]	n/a	catFR1	0	R1264P
263.284	0.816	268291	PRACTICE_WORD_OFF	n/a	n/a	IRON	n/a	-999	-1	[0, 0, 0]	n/a	catFR1	0	R1264P
264.1	1.617	269107	PRACTICE_WORD	n/a	n/a	CAMEL	n/a	-1	-1	[0, 0, 0]	n/a	catFR1	0	R1264P
265.717	0.933	270724	PRACTICE_WORD_OFF	n/a	n/a	CAMEL	n/a	-999	-1	[0, 0, 0]	n/a	catFR1	0	R1264P
266.65	1.618	271657	PRACTICE_WORD	n/a	n/a	WATCH	n/a	-1	-1	[0, 0, 0]	n/a	catFR1	0	R1264P
268.268	0.983	273275	PRACTICE_WORD_OFF	n/a	n/a	WATCH	n/a	-999	-1	[0, 0, 0]	n/a	catFR1	0	R1264P
269.251	1.617	274258	PRACTICE_WORD	n/a	n/a	TONGUE	n/a	-1	-1	[0, 0, 0]	n/a	catFR1	0	R1264P
270.868	1.001	275875	PRACTICE_WORD_OFF	n/a	n/a	TONGUE	n/a	-999	-1	[0, 0, 0]	n/a	catFR1	0	R1264P
271.869	1.617	276876	PRACTICE_WORD	n/a	n/a	RING	n/a	-1	-1	[0, 0, 0]	n/a	catFR1	0	R1264P
273.486	0.916	278493	PRACTICE_WORD_OFF	n/a	n/a	RING	n/a	-999	-1	[0, 0, 0]	n/a	catFR1	0	R1264P
274.402	1.617	279409	PRACTICE_WORD	n/a	n/a	FLOOD	n/a	-1	-1	[0, 0, 0]	n/a	catFR1	0	R1264P
276.019	0.0	281026	ENCODING_END	n/a	n/a	n/a	n/a	-999	-1	[0, 0, 0]	n/a	catFR1	0	R1264P
276.019	0.001	281026	PRACTICE_WORD_OFF	n/a	n/a	FLOOD	n/a	-999	-1	[0, 0, 0]	n/a	catFR1	0	R1264P
276.02	0.0	281027	DISTRACT_START	n/a	n/a	n/a	n/a	-999	-1	[0, 0, 0]	n/a	catFR1	0	R1264P
276.02	0.016	281027	START	n/a	n/a	n/a	n/a	-999	-1	[-999, -999, -999]	n/a	catFR1	0	R1264P
276.036	4.901	281043	PROB	4.901	n/a	n/a	n/a	-999	-1	[3, 1, 1]	5	catFR1	0	R1264P
280.937	5.201	285943	PROB	5.201	n/a	n/a	n/a	-999	-1	[8, 3, 7]	1	catFR1	0	R1264P
286.138	4.45	291144	PROB	4.45	n/a	n/a	n/a	-999	-1	[3, 2, 9]	14	catFR1	0	R1264P
290.588	6.351	295594	PROB	6.351	n/a	n/a	n/a	-999	-1	[5, 7, 9]	21	catFR1	0	R1264P
296.939	0.018	301945	STOP	n/a	n/a	n/a	n/a	-999	-1	[-999, -999, -999]	n/a	catFR1	0	R1264P
296.957	0.699	301963	DISTRACT_END	n/a	n/a	n/a	n/a	-999	-1	[0, 0, 0]	n/a	catFR1	0	R1264P
297.656	0.518	302662	RETRIEVAL_ORIENT	n/a	n/a	n/a	n/a	-999	-1	[0, 0, 0]	n/a	catFR1	0	R1264P
298.174	30.014	303180	PRACTICE_REC_START	n/a	n/a	n/a	n/a	-999	-1	[0, 0, 0]	n/a	catFR1	0	R1264P
328.188	51.051	333192	PRACTICE_REC_END	n/a	n/a	n/a	n/a	-999	-1	[0, 0, 0]	n/a	catFR1	0	R1264P
379.239	0.5	384240	TRIAL	n/a	n/a	n/a	n/a	-999	1	[0, 0, 0]	n/a	catFR1	0	R1264P
379.739	10.428	384740	COUNTDOWN_START	n/a	n/a	n/a	n/a	-999	1	[0, 0, 0]	n/a	catFR1	0	R1264P
390.167	0.007	395168	COUNTDOWN_END	n/a	n/a	n/a	n/a	-999	1	[0, 0, 0]	n/a	catFR1	0	R1264P
390.174	1.617	395175	ORIENT	n/a	n/a	n/a	n/a	-999	1	[0, 0, 0]	n/a	catFR1	0	R1264P
391.791	2.351	396792	ORIENT_OFF	n/a	n/a	n/a	n/a	-999	1	[0, 0, 0]	n/a	catFR1	0	R1264P
394.142	1.617	399143	WORD	n/a	wordpools/wordpool_categorized_EN.txt	ELBOW	BodyParts	1	1	[0, 0, 0]	n/a	catFR1	0	R1264P
395.759	0.849	400759	WORD_OFF	n/a	n/a	ELBOW	n/a	1	1	[0, 0, 0]	n/a	catFR1	0	R1264P
396.608	1.618	401608	WORD	n/a	wordpools/wordpool_categorized_EN.txt	EAR	BodyParts	2	1	[0, 0, 0]	n/a	catFR1	0	R1264P
398.226	0.95	403226	WORD_OFF	n/a	n/a	EAR	n/a	2	1	[0, 0, 0]	n/a	catFR1	0	R1264P
399.176	1.617	404176	WORD	n/a	wordpools/wordpool_categorized_EN.txt	CHERRY	Fruit	3	1	[0, 0, 0]	n/a	catFR1	0	R1264P
400.793	1.0	405793	WORD_OFF	n/a	n/a	CHERRY	n/a	3	1	[0, 0, 0]	n/a	catFR1	0	R1264P
401.793	1.617	406793	WORD	n/a	wordpools/wordpool_categorized_EN.txt	STRAWBERRY	Fruit	4	1	[0, 0, 0]	n/a	catFR1	0	R1264P
403.41	0.917	408410	WORD_OFF	n/a	n/a	STRAWBERRY	n/a	4	1	[0, 0, 0]	n/a	catFR1	0	R1264P
404.327	1.617	409327	WORD	n/a	wordpools/wordpool_categorized_EN.txt	SHRIMP	OceanAnimals	5	1	[0, 0, 0]	n/a	catFR1	0	R1264P
405.944	0.767	410944	WORD_OFF	n/a	n/a	SHRIMP	n/a	5	1	[0, 0, 0]	n/a	catFR1	0	R1264P
406.711	1.616	411711	WORD	n/a	wordpools/wordpool_categorized_EN.txt	PLANKTON	OceanAnimals	6	1	[0, 0, 0]	n/a	catFR1	0	R1264P
408.327	0.884	413327	WORD_OFF	n/a	n/a	PLANKTON	n/a	6	1	[0, 0, 0]	n/a	catFR1	0	R1264P
409.211	1.617	414211	WORD	n/a	wordpools/wordpool_categorized_EN.txt	ORANGE	Fruit	7	1	[0, 0, 0]	n/a	catFR1	0	R1264P
410.828	0.816	415828	WORD_OFF	n/a	n/a	ORANGE	n/a	7	1	[0, 0, 0]	n/a	catFR1	0	R1264P
411.644	1.618	416644	WORD	n/a	wordpools/wordpool_categorized_EN.txt	BANANA	Fruit	8	1	[0, 0, 0]	n/a	catFR1	0	R1264P
413.262	0.983	418262	WORD_OFF	n/a	n/a	BANANA	n/a	8	1	[0, 0, 0]	n/a	catFR1	0	R1264P
414.245	1.617	419245	WORD	n/a	wordpools/wordpool_categorized_EN.txt	LEG	BodyParts	9	1	[0, 0, 0]	n/a	catFR1	0	R1264P
415.862	0.766	420861	WORD_OFF	n/a	n/a	LEG	n/a	9	1	[0, 0, 0]	n/a	catFR1	0	R1264P
416.628	1.618	421627	WORD	n/a	wordpools/wordpool_categorized_EN.txt	HAND	BodyParts	10	1	[0, 0, 0]	n/a	catFR1	0	R1264P
418.246	0.984	423245	WORD_OFF	n/a	n/a	HAND	n/a	10	1	[0, 0, 0]	n/a	catFR1	0	R1264P
419.23	1.617	424229	WORD	n/a	wordpools/wordpool_categorized_EN.txt	FISH	OceanAnimals	11	1	[0, 0, 0]	n/a	catFR1	0	R1264P
420.847	0.967	425846	WORD_OFF	n/a	n/a	FISH	n/a	11	1	[0, 0, 0]	n/a	catFR1	0	R1264P
421.814	1.617	426813	WORD	n/a	wordpools/wordpool_categorized_EN.txt	DOLPHIN	OceanAnimals	12	1	[0, 0, 0]	n/a	catFR1	0	R1264P
423.431	0.0	428430	ENCODING_END	n/a	n/a	n/a	n/a	-999	1	[0, 0, 0]	n/a	catFR1	0	R1264P
423.431	0.132	428430	WORD_OFF	n/a	n/a	DOLPHIN	n/a	12	1	[0, 0, 0]	n/a	catFR1	0	R1264P
423.563	0.0	428562	DISTRACT_START	n/a	n/a	n/a	n/a	-999	1	[0, 0, 0]	n/a	catFR1	0	R1264P
423.563	0.017	428562	START	n/a	n/a	n/a	n/a	-999	1	[-999, -999, -999]	n/a	catFR1	0	R1264P
423.58	6.168	428579	PROB	6.168	n/a	n/a	n/a	-999	1	[9, 2, 5]	14	catFR1	0	R1264P
429.748	7.485	434747	PROB	7.485	n/a	n/a	n/a	-999	1	[7, 1, 9]	17	catFR1	0	R1264P
437.233	4.884	442231	PROB	4.884	n/a	n/a	n/a	-999	1	[2, 2, 5]	9	catFR1	0	R1264P
442.117	4.358	447115	PROB	4.358	n/a	n/a	n/a	-999	1	[5, 1, 3]	9	catFR1	0	R1264P
446.475	0.01	451473	STOP	n/a	n/a	n/a	n/a	-999	1	[-999, -999, -999]	n/a	catFR1	0	R1264P
446.485	0.683	451483	DISTRACT_END	n/a	n/a	n/a	n/a	-999	1	[0, 0, 0]	n/a	catFR1	0	R1264P
447.168	0.517	452166	RETRIEVAL_ORIENT	n/a	n/a	n/a	n/a	-999	1	[0, 0, 0]	n/a	catFR1	0	R1264P
447.685	1.256	452683	REC_START	n/a	n/a	n/a	n/a	-999	1	[0, 0, 0]	n/a	catFR1	0	R1264P
448.941	1.507	453939	REC_WORD	1.507	n/a	LEG	BodyParts	9	1	[0, 0, 0]	n/a	catFR1	0	R1264P
450.448	1.464	455446	REC_WORD	1.464	n/a	EAR	BodyParts	2	1	[0, 0, 0]	n/a	catFR1	0	R1264P
451.912	1.849	456910	REC_WORD	1.849	n/a	ELBOW	BodyParts	1	1	[0, 0, 0]	n/a	catFR1	0	R1264P
453.761	2.253	458758	REC_WORD	2.253	n/a	HAND	BodyParts	10	1	[0, 0, 0]	n/a	catFR1	0	R1264P
456.014	1.998	461011	REC_WORD	1.998	n/a	PLANKTON	OceanAnimals	6	1	[0, 0, 0]	n/a	catFR1	0	R1264P
458.012	4.939	463009	REC_WORD	4.939	n/a	BEAM	n/a	-999	1	[0, 0, 0]	n/a	catFR1	0	R1264P
462.951	2.473	467948	REC_WORD	2.473	n/a	FOOT	n/a	-999	1	[0, 0, 0]	n/a	catFR1	0	R1264P
465.424	4.121	470421	REC_WORD	4.121	n/a	SHRIMP	OceanAnimals	5	1	[0, 0, 0]	n/a	catFR1	0	R1264P
469.545	8.151	474542	REC_WORD	8.151	n/a	BAY	n/a	-999	1	[0, 0, 0]	n/a	catFR1	0	R1264P
477.696	7.663	482692	REC_END	n/a	n/a	n/a	n/a	-999	1	[0, 0, 0]	n/a	catFR1	0	R1264P
485.359	0.5	490355	TRIAL	n/a	n/a	n/a	n/a	-999	2	[0, 0, 0]	n/a	catFR1	0	R1264P
485.859	10.428	490855	COUNTDOWN_START	n/a	n/a	n/a	n/a	-999	2	[0, 0, 0]	n/a	catFR1	0	R1264P
496.287	0.007	501282	COUNTDOWN_END	n/a	n/a	n/a	n/a	-999	2	[0, 0, 0]	n/a	catFR1	0	R1264P
496.294	1.617	501289	ORIENT	n/a	n/a	n/a	n/a	-999	2	[0, 0, 0]	n/a	catFR1	0	R1264P
497.911	2.234	502906	ORIENT_OFF	n/a	n/a	n/a	n/a	-999	2	[0, 0, 0]	n/a	catFR1	0	R1264P
500.145	1.617	505140	WORD	n/a	wordpools/wordpool_categorized_EN.txt	TELEVISION	Electronics	1	2	[0, 0, 0]	n/a	catFR1	0	R1264P
501.762	1.0	506757	WORD_OFF	n/a	n/a	TELEVISION	n/a	1	2	[0, 0, 0]	n/a	catFR1	0	R1264P
502.762	1.617	507757	WORD	n/a	wordpools/wordpool_categorized_EN.txt	SCANNER	Electronics	2	2	[0, 0, 0]	n/a	catFR1	0	R1264P
504.379	0.984	509374	WORD_OFF	n/a	n/a	SCANNER	n/a	2	2	[0, 0, 0]	n/a	catFR1	0	R1264P
505.363	1.617	510358	WORD	n/a	wordpools/wordpool_categorized_EN.txt	THUNDER	Weather	3	2	[0, 0, 0]	n/a	catFR1	0	R1264P
506.98	0.917	511975	WORD_OFF	n/a	n/a	THUNDER	n/a	3	2	[0, 0, 0]	n/a	catFR1	0	R1264P
507.897	1.616	512892	WORD	n/a	wordpools/wordpool_categorized_EN.txt	LIGHTNING	Weather	4	2	[0, 0, 0]	n/a	catFR1	0	R1264P
509.513	0.834	514508	WORD_OFF	n/a	n/a	LIGHTNING	n/a	4	2	[0, 0, 0]	n/a	catFR1	0	R1264P
510.347	1.617	515342	WORD	n/a	wordpools/wordpool_categorized_EN.txt	TABLE	Furniture	5	2	[0, 0, 0]	n/a	catFR1	0	R1264P
511.964	0.967	516958	WORD_OFF	n/a	n/a	TABLE	n/a	5	2	[0, 0, 0]	n/a	catFR1	0	R1264P
512.931	1.617	517925	WORD	n/a	wordpools/wordpool_categorized_EN.txt	DESK	Furniture	6	2	[0, 0, 0]	n/a	catFR1	0	R1264P
514.548	0.883	519542	WORD_OFF	n/a	n/a	DESK	n/a	6	2	[0, 0, 0]	n/a	catFR1	0	R1264P
515.431	1.617	520425	WORD	n/a	wordpools/wordpool_categorized_EN.txt	THUNDERSTORM	Weather	7	2	[0, 0, 0]	n/a	catFR1	0	R1264P
517.048	0.984	522042	WORD_OFF	n/a	n/a	THUNDERSTORM	n/a	7	2	[0, 0, 0]	n/a	catFR1	0	R1264P
518.032	1.616	523026	WORD	n/a	wordpools/wordpool_categorized_EN.txt	TORNADO	Weather	8	2	[0, 0, 0]	n/a	catFR1	0	R1264P
519.648	0.868	524642	WORD_OFF	n/a	n/a	TORNADO	n/a	8	2	[0, 0, 0]	n/a	catFR1	0	R1264P
520.516	1.616	525510	WORD	n/a	wordpools/wordpool_categorized_EN.txt	MICROWAVE	Electronics	9	2	[0, 0, 0]	n/a	catFR1	0	R1264P
522.132	0.767	527126	WORD_OFF	n/a	n/a	MICROWAVE	n/a	9	2	[0, 0, 0]	n/a	catFR1	0	R1264P
522.899	1.617	527893	WORD	n/a	wordpools/wordpool_categorized_EN.txt	PHONE	Electronics	10	2	[0, 0, 0]	n/a	catFR1	0	R1264P
524.516	0.817	529510	WORD_OFF	n/a	n/a	PHONE	n/a	10	2	[0, 0, 0]	n/a	catFR1	0	R1264P
525.333	1.617	530327	WORD	n/a	wordpools/wordpool_categorized_EN.txt	CHAIR	Furniture	11	2	[0, 0, 0]	n/a	catFR1	0	R1264P
526.95	1.0	531944	WORD_OFF	n/a	n/a	CHAIR	n/a	11	2	[0, 0, 0]	n/a	catFR1	0	R1264P
527.95	1.616	532944	WORD	n/a	wordpools/wordpool_categorized_EN.txt	DRESSER	Furniture	12	2	[0, 0, 0]	n/a	catFR1	0	R1264P
529.566	0.0	534560	ENCODING_END	n/a	n/a	n/a	n/a	-999	2	[0, 0, 0]	n/a	catFR1	0	R1264P
529.566	0.104	534560	WORD_OFF	n/a	n/a	DRESSER	n/a	12	2	[0, 0, 0]	n/a	catFR1	0	R1264P
529.67	0.0	534664	DISTRACT_START	n/a	n/a	n/a	n/a	-999	2	[0, 0, 0]	n/a	catFR1	0	R1264P
529.67	0.013	534664	START	n/a	n/a	n/a	n/a	-999	2	[-999, -999, -999]	n/a	catFR1	0	R1264P
529.683	4.884	534677	PROB	4.884	n/a	n/a	n/a	-999	2	[7, 1, 4]	12	catFR1	0	R1264P
534.567	4.152	539560	PROB	4.152	n/a	n/a	n/a	-999	2	[2, 2, 6]	10	catFR1	0	R1264P
538.719	5.051	543712	PROB	5.051	n/a	n/a	n/a	-999	2	[2, 3, 9]	14	catFR1	0	R1264P
543.77	4.267	548763	PROB	4.267	n/a	n/a	n/a	-999	2	[2, 9, 9]	20	catFR1	0	R1264P
548.037	3.102	553030	PROB	3.102	n/a	n/a	n/a	-999	2	[1, 6, 7]	14	catFR1	0	R1264P
551.139	0.016	556131	STOP	n/a	n/a	n/a	n/a	-999	2	[-999, -999, -999]	n/a	catFR1	0	R1264P
551.155	0.683	556147	DISTRACT_END	n/a	n/a	n/a	n/a	-999	2	[0, 0, 0]	n/a	catFR1	0	R1264P
551.838	0.518	556830	RETRIEVAL_ORIENT	n/a	n/a	n/a	n/a	-999	2	[0, 0, 0]	n/a	catFR1	0	R1264P
552.356	2.174	557348	REC_START	n/a	n/a	n/a	n/a	-999	2	[0, 0, 0]	n/a	catFR1	0	R1264P
554.53	1.551	559522	REC_WORD	1.551	n/a	FOOT	n/a	-999	2	[0, 0, 0]	n/a	catFR1	0	R1264P
556.081	1.349	561073	REC_WORD	1.349	n/a	ELBOW	n/a	-999	2	[0, 0, 0]	n/a	catFR1	0	R1264P
557.43	3.179	562422	REC_WORD	3.179	n/a	TELEVISION	Electronics	1	2	[0, 0, 0]	n/a	catFR1	0	R1264P
560.609	8.072	565601	REC_WORD	8.072	n/a	SCREEN	n/a	-999	2	[0, 0, 0]	n/a	catFR1	0	R1264P
568.681	5.572	573673	REC_WORD	5.572	n/a	CABLE	n/a	-999	2	[0, 0, 0]	n/a	catFR1	0	R1264P
574.253	8.113	579244	REC_WORD	8.113	n/a	WIRE	n/a	-999	2	[0, 0, 0]	n/a	catFR1	0	R1264P
582.366	6.979	587357	REC_END	n/a	n/a	n/a	n/a	-999	2	[0, 0, 0]	n/a	catFR1	0	R1264P
589.345	0.5	594335	TRIAL	n/a	n/a	n/a	n/a	-999	3	[0, 0, 0]	n/a	catFR1	0	R1264P
589.845	10.428	594835	COUNTDOWN_START	n/a	n/a	n/a	n/a	-999	3	[0, 0, 0]	n/a	catFR1	0	R1264P
600.273	0.008	605263	COUNTDOWN_END	n/a	n/a	n/a	n/a	-999	3	[0, 0, 0]	n/a	catFR1	0	R1264P
600.281	1.617	605271	ORIENT	n/a	n/a	n/a	n/a	-999	3	[0, 0, 0]	n/a	catFR1	0	R1264P
601.898	2.1	606888	ORIENT_OFF	n/a	n/a	n/a	n/a	-999	3	[0, 0, 0]	n/a	catFR1	0	R1264P
603.998	1.616	608988	WORD	n/a	wordpools/wordpool_categorized_EN.txt	LILY	Flowers	1	3	[0, 0, 0]	n/a	catFR1	0	R1264P
605.614	0.784	610604	WORD_OFF	n/a	n/a	LILY	n/a	1	3	[0, 0, 0]	n/a	catFR1	0	R1264P
606.398	1.617	611388	WORD	n/a	wordpools/wordpool_categorized_EN.txt	SUNFLOWER	Flowers	2	3	[0, 0, 0]	n/a	catFR1	0	R1264P
608.015	1.017	613005	WORD_OFF	n/a	n/a	SUNFLOWER	n/a	2	3	[0, 0, 0]	n/a	catFR1	0	R1264P
609.032	1.616	614021	WORD	n/a	wordpools/wordpool_categorized_EN.txt	SPINACH	Vegetables	3	3	[0, 0, 0]	n/a	catFR1	0	R1264P
610.648	0.768	615637	WORD_OFF	n/a	n/a	SPINACH	n/a	3	3	[0, 0, 0]	n/a	catFR1	0	R1264P
611.416	1.617	616405	WORD	n/a	wordpools/wordpool_categorized_EN.txt	ONION	Vegetables	4	3	[0, 0, 0]	n/a	catFR1	0	R1264P
613.033	0.817	618022	WORD_OFF	n/a	n/a	ONION	n/a	4	3	[0, 0, 0]	n/a	catFR1	0	R1264P
613.85	1.617	618839	WORD	n/a	wordpools/wordpool_categorized_EN.txt	COUCH	Furniture	5	3	[0, 0, 0]	n/a	catFR1	0	R1264P
615.467	0.95	620456	WORD_OFF	n/a	n/a	COUCH	n/a	5	3	[0, 0, 0]	n/a	catFR1	0	R1264P
616.417	1.617	621406	WORD	n/a	wordpools/wordpool_categorized_EN.txt	BED	Furniture	6	3	[0, 0, 0]	n/a	catFR1	0	R1264P
618.034	0.867	623023	WORD_OFF	n/a	n/a	BED	n/a	6	3	[0, 0, 0]	n/a	catFR1	0	R1264P
618.901	1.617	623890	WORD	n/a	wordpools/wordpool_categorized_EN.txt	BROCCOLI	Vegetables	7	3	[0, 0, 0]	n/a	catFR1	0	R1264P
620.518	0.983	625507	WORD_OFF	n/a	n/a	BROCCOLI	n/a	7	3	[0, 0, 0]	n/a	catFR1	0	R1264P
621.501	1.617	626490	WORD	n/a	wordpools/wordpool_categorized_EN.txt	PEAS	Vegetables	8	3	[0, 0, 0]	n/a	catFR1	0	R1264P
623.118	0.9	628107	WORD_OFF	n/a	n/a	PEAS	n/a	8	3	[0, 0, 0]	n/a	catFR1	0	R1264P
624.018	1.616	629007	WORD	n/a	wordpools/wordpool_categorized_EN.txt	ROSE	Flowers	9	3	[0, 0, 0]	n/a	catFR1	0	R1264P
625.634	0.868	630623	WORD_OFF	n/a	n/a	ROSE	n/a	9	3	[0, 0, 0]	n/a	catFR1	0	R1264P
626.502	1.617	631491	WORD	n/a	wordpools/wordpool_categorized_EN.txt	VIOLET	Flowers	10	3	[0, 0, 0]	n/a	catFR1	0	R1264P
628.119	0.984	633107	WORD_OFF	n/a	n/a	VIOLET	n/a	10	3	[0, 0, 0]	n/a	catFR1	0	R1264P
629.103	1.617	634091	WORD	n/a	wordpools/wordpool_categorized_EN.txt	BOOKCASE	Furniture	11	3	[0, 0, 0]	n/a	catFR1	0	R1264P
630.72	0.949	635708	WORD_OFF	n/a	n/a	BOOKCASE	n/a	11	3	[0, 0, 0]	n/a	catFR1	0	R1264P
631.669	1.618	636657	WORD	n/a	wordpools/wordpool_categorized_EN.txt	SOFA	Furniture	12	3	[0, 0, 0]	n/a	catFR1	0	R1264P
633.287	0.0	638275	ENCODING_END	n/a	n/a	n/a	n/a	-999	3	[0, 0, 0]	n/a	catFR1	0	R1264P
633.287	0.101	638275	WORD_OFF	n/a	n/a	SOFA	n/a	12	3	[0, 0, 0]	n/a	catFR1	0	R1264P
633.388	0.0	638376	DISTRACT_START	n/a	n/a	n/a	n/a	-999	3	[0, 0, 0]	n/a	catFR1	0	R1264P
633.388	0.015	638376	START	n/a	n/a	n/a	n/a	-999	3	[-999, -999, -999]	n/a	catFR1	0	R1264P
633.403	6.002	638391	PROB	6.002	n/a	n/a	n/a	-999	3	[4, 3, 3]	10	catFR1	0	R1264P
639.405	4.334	644393	PROB	4.334	n/a	n/a	n/a	-999	3	[8, 3, 5]	16	catFR1	0	R1264P
643.739	4.184	648727	PROB	4.184	n/a	n/a	n/a	-999	3	[6, 3, 1]	10	catFR1	0	R1264P
647.923	2.749	652910	PROB	2.749	n/a	n/a	n/a	-999	3	[5, 5, 4]	14	catFR1	0	R1264P
650.672	5.66	655659	PROB	5.66	n/a	n/a	n/a	-999	3	[3, 4, 9]	16	catFR1	0	R1264P
656.332	0.009	661319	STOP	n/a	n/a	n/a	n/a	-999	3	[-999, -999, -999]	n/a	catFR1	0	R1264P
656.341	0.533	661328	DISTRACT_END	n/a	n/a	n/a	n/a	-999	3	[0, 0, 0]	n/a	catFR1	0	R1264P
656.874	0.518	661861	RETRIEVAL_ORIENT	n/a	n/a	n/a	n/a	-999	3	[0, 0, 0]	n/a	catFR1	0	R1264P
657.392	3.005	662379	REC_START	n/a	n/a	n/a	n/a	-999	3	[0, 0, 0]	n/a	catFR1	0	R1264P
660.397	3.937	665384	REC_WORD_VV	3.937	n/a	<>	n/a	-999	3	[0, 0, 0]	n/a	catFR1	0	R1264P
664.334	2.076	669321	REC_WORD	2.076	n/a	TELEVISION	n/a	-999	3	[0, 0, 0]	n/a	catFR1	0	R1264P
666.41	3.953	671396	REC_WORD	3.953	n/a	SCREEN	n/a	-999	3	[0, 0, 0]	n/a	catFR1	0	R1264P
670.363	6.614	675349	REC_WORD	6.614	n/a	ANKLE	n/a	-999	3	[0, 0, 0]	n/a	catFR1	0	R1264P
676.977	1.546	681963	REC_WORD	1.546	n/a	SOFA	Furniture	12	3	[0, 0, 0]	n/a	catFR1	0	R1264P
678.523	8.88	683509	REC_WORD	8.88	n/a	BED	Furniture	6	3	[0, 0, 0]	n/a	catFR1	0	R1264P
687.403	8.346	692388	REC_END	n/a	n/a	n/a	n/a	-999	3	[0, 0, 0]	n/a	catFR1	0	R1264P
695.749	0.5	700734	TRIAL	n/a	n/a	n/a	n/a	-999	4	[0, 0, 0]	n/a	catFR1	0	R1264P
696.249	10.428	701234	COUNTDOWN_START	n/a	n/a	n/a	n/a	-999	4	[0, 0, 0]	n/a	catFR1	0	R1264P
706.677	0.006	711661	COUNTDOWN_END	n/a	n/a	n/a	n/a	-999	4	[0, 0, 0]	n/a	catFR1	0	R1264P
706.683	1.601	711667	ORIENT	n/a	n/a	n/a	n/a	-999	4	[0, 0, 0]	n/a	catFR1	0	R1264P
708.284	1.951	713268	ORIENT_OFF	n/a	n/a	n/a	n/a	-999	4	[0, 0, 0]	n/a	catFR1	0	R1264P
710.235	1.617	715219	WORD	n/a	wordpools/wordpool_categorized_EN.txt	BOAT	Vehicles	1	4	[0, 0, 0]	n/a	catFR1	0	R1264P
711.852	0.916	716836	WORD_OFF	n/a	n/a	BOAT	n/a	1	4	[0, 0, 0]	n/a	catFR1	0	R1264P
712.768	1.617	717752	WORD	n/a	wordpools/wordpool_categorized_EN.txt	VAN	Vehicles	2	4	[0, 0, 0]	n/a	catFR1	0	R1264P
714.385	1.001	719369	WORD_OFF	n/a	n/a	VAN	n/a	2	4	[0, 0, 0]	n/a	catFR1	0	R1264P
715.386	1.617	720370	WORD	n/a	wordpools/wordpool_categorized_EN.txt	WHISK	KitchenTools	3	4	[0, 0, 0]	n/a	catFR1	0	R1264P
717.003	0.816	721987	WORD_OFF	n/a	n/a	WHISK	n/a	3	4	[0, 0, 0]	n/a	catFR1	0	R1264P
717.819	1.617	722803	WORD	n/a	wordpools/wordpool_categorized_EN.txt	SPATULA	KitchenTools	4	4	[0, 0, 0]	n/a	catFR1	0	R1264P
719.436	0.801	724420	WORD_OFF	n/a	n/a	SPATULA	n/a	4	4	[0, 0, 0]	n/a	catFR1	0	R1264P
720.237	1.616	725221	WORD	n/a	wordpools/wordpool_categorized_EN.txt	JELLO	Desserts	5	4	[0, 0, 0]	n/a	catFR1	0	R1264P
721.853	0.917	726837	WORD_OFF	n/a	n/a	JELLO	n/a	5	4	[0, 0, 0]	n/a	catFR1	0	R1264P
722.77	1.617	727754	WORD	n/a	wordpools/wordpool_categorized_EN.txt	PASTRY	Desserts	6	4	[0, 0, 0]	n/a	catFR1	0	R1264P
724.387	0.8	729370	WORD_OFF	n/a	n/a	PASTRY	n/a	6	4	[0, 0, 0]	n/a	catFR1	0	R1264P
725.187	1.617	730170	WORD	n/a	wordpools/wordpool_categorized_EN.txt	PEELER	KitchenTools	7	4	[0, 0, 0]	n/a	catFR1	0	R1264P
726.804	0.849	731787	WORD_OFF	n/a	n/a	PEELER	n/a	7	4	[0, 0, 0]	n/a	catFR1	0	R1264P
727.653	1.602	732636	WORD	n/a	wordpools/wordpool_categorized_EN.txt	TONGS	KitchenTools	8	4	[0, 0, 0]	n/a	catFR1	0	R1264P
729.255	0.8	734238	WORD_OFF	n/a	n/a	TONGS	n/a	8	4	[0, 0, 0]	n/a	catFR1	0	R1264P
730.055	1.616	735038	WORD	n/a	wordpools/wordpool_categorized_EN.txt	SCOOTER	Vehicles	9	4	[0, 0, 0]	n/a	catFR1	0	R1264P
731.671	0.967	736654	WORD_OFF	n/a	n/a	SCOOTER	n/a	9	4	[0, 0, 0]	n/a	catFR1	0	R1264P
732.638	1.601	737621	WORD	n/a	wordpools/wordpool_categorized_EN.txt	BIKE	Vehicles	10	4	[0, 0, 0]	n/a	catFR1	0	R1264P
734.239	0.967	739222	WORD_OFF	n/a	n/a	BIKE	n/a	10	4	[0, 0, 0]	n/a	catFR1	0	R1264P
735.206	1.617	740189	WORD	n/a	wordpools/wordpool_categorized_EN.txt	COBBLER	Desserts	11	4	[0, 0, 0]	n/a	catFR1	0	R1264P
736.823	0.917	741806	WORD_OFF	n/a	n/a	COBBLER	n/a	11	4	[0, 0, 0]	n/a	catFR1	0	R1264P
737.74	1.617	742723	WORD	n/a	wordpools/wordpool_categorized_EN.txt	CAKE	Desserts	12	4	[0, 0, 0]	n/a	catFR1	0	R1264P
739.357	0.0	744340	ENCODING_END	n/a	n/a	n/a	n/a	-999	4	[0, 0, 0]	n/a	catFR1	0	R1264P
739.357	0.139	744340	WORD_OFF	n/a	n/a	CAKE	n/a	12	4	[0, 0, 0]	n/a	catFR1	0	R1264P
739.496	0.0	744479	DISTRACT_START	n/a	n/a	n/a	n/a	-999	4	[0, 0, 0]	n/a	catFR1	0	R1264P
739.496	0.011	744479	START	n/a	n/a	n/a	n/a	-999	4	[-999, -999, -999]	n/a	catFR1	0	R1264P
739.507	5.434	744490	PROB	5.434	n/a	n/a	n/a	-999	4	[1, 8, 5]	14	catFR1	0	R1264P
744.941	5.218	749923	PROB	5.218	n/a	n/a	n/a	-999	4	[5, 4, 9]	18	catFR1	0	R1264P
750.159	4.317	755141	PROB	4.317	n/a	n/a	n/a	-999	4	[8, 9, 9]	26	catFR1	0	R1264P
754.476	3.484	759458	PROB	3.484	n/a	n/a	n/a	-999	4	[2, 6, 7]	15	catFR1	0	R1264P
757.96	3.643	762942	PROB	3.643	n/a	n/a	n/a	-999	4	[3, 2, 5]	10	catFR1	0	R1264P
761.603	0.007	766585	STOP	n/a	n/a	n/a	n/a	-999	4	[-999, -999, -999]	n/a	catFR1	0	R1264P
761.61	0.718	766592	DISTRACT_END	n/a	n/a	n/a	n/a	-999	4	[0, 0, 0]	n/a	catFR1	0	R1264P
762.328	0.518	767310	RETRIEVAL_ORIENT	n/a	n/a	n/a	n/a	-999	4	[0, 0, 0]	n/a	catFR1	0	R1264P
762.846	5.302	767828	REC_START	n/a	n/a	n/a	n/a	-999	4	[0, 0, 0]	n/a	catFR1	0	R1264P
768.148	4.98	773129	REC_WORD	4.98	n/a	PEELER	KitchenTools	7	4	[0, 0, 0]	n/a	catFR1	0	R1264P
773.128	17.246	778109	REC_WORD	17.246	n/a	SPATULA	KitchenTools	4	4	[0, 0, 0]	n/a	catFR1	0	R1264P
790.374	1.867	795354	REC_WORD	1.867	n/a	YARD	n/a	-999	4	[0, 0, 0]	n/a	catFR1	0	R1264P
792.241	0.617	797221	REC_WORD	0.617	n/a	BARN	n/a	-999	4	[0, 0, 0]	n/a	catFR1	0	R1264P
792.858	6.06	797838	REC_END	n/a	n/a	n/a	n/a	-999	4	[0, 0, 0]	n/a	catFR1	0	R1264P
798.918	0.5	803898	TRIAL	n/a	n/a	n/a	n/a	-999	5	[0, 0, 0]	n/a	catFR1	0	R1264P
799.418	10.428	804398	COUNTDOWN_START	n/a	n/a	n/a	n/a	-999	5	[0, 0, 0]	n/a	catFR1	0	R1264P
809.846	0.008	814825	COUNTDOWN_END	n/a	n/a	n/a	n/a	-999	5	[0, 0, 0]	n/a	catFR1	0	R1264P
809.854	1.616	814833	ORIENT	n/a	n/a	n/a	n/a	-999	5	[0, 0, 0]	n/a	catFR1	0	R1264P
811.47	2.15	816449	ORIENT_OFF	n/a	n/a	n/a	n/a	-999	5	[0, 0, 0]	n/a	catFR1	0	R1264P
813.62	1.618	818599	WORD	n/a	wordpools/wordpool_categorized_EN.txt	SQUID	OceanAnimals	1	5	[0, 0, 0]	n/a	catFR1	0	R1264P
815.238	0.9	820217	WORD_OFF	n/a	n/a	SQUID	n/a	1	5	[0, 0, 0]	n/a	catFR1	0	R1264P
816.138	1.617	821117	WORD	n/a	wordpools/wordpool_categorized_EN.txt	OYSTER	OceanAnimals	2	5	[0, 0, 0]	n/a	catFR1	0	R1264P
817.755	0.816	822734	WORD_OFF	n/a	n/a	OYSTER	n/a	2	5	[0, 0, 0]	n/a	catFR1	0	R1264P
818.571	1.618	823550	WORD	n/a	wordpools/wordpool_categorized_EN.txt	STEREO	Electronics	3	5	[0, 0, 0]	n/a	catFR1	0	R1264P
820.189	0.967	825168	WORD_OFF	n/a	n/a	STEREO	n/a	3	5	[0, 0, 0]	n/a	catFR1	0	R1264P
821.156	1.617	826134	WORD	n/a	wordpools/wordpool_categorized_EN.txt	COMPUTER	Electronics	4	5	[0, 0, 0]	n/a	catFR1	0	R1264P
822.773	0.832	827751	WORD_OFF	n/a	n/a	COMPUTER	n/a	4	5	[0, 0, 0]	n/a	catFR1	0	R1264P
823.605	1.618	828583	WORD	n/a	wordpools/wordpool_categorized_EN.txt	DOOR	Building	5	5	[0, 0, 0]	n/a	catFR1	0	R1264P
825.223	0.817	830201	WORD_OFF	n/a	n/a	DOOR	n/a	5	5	[0, 0, 0]	n/a	catFR1	0	R1264P
826.04	1.616	831018	WORD	n/a	wordpools/wordpool_categorized_EN.txt	WINDOW	Building	6	5	[0, 0, 0]	n/a	catFR1	0	R1264P
827.656	0.95	832634	WORD_OFF	n/a	n/a	WINDOW	n/a	6	5	[0, 0, 0]	n/a	catFR1	0	R1264P
828.606	1.601	833584	WORD	n/a	wordpools/wordpool_categorized_EN.txt	CALCULATOR	Electronics	7	5	[0, 0, 0]	n/a	catFR1	0	R1264P
830.207	0.967	835185	WORD_OFF	n/a	n/a	CALCULATOR	n/a	7	5	[0, 0, 0]	n/a	catFR1	0	R1264P
831.174	1.617	836152	WORD	n/a	wordpools/wordpool_categorized_EN.txt	HEADPHONES	Electronics	8	5	[0, 0, 0]	n/a	catFR1	0	R1264P
832.791	0.933	837769	WORD_OFF	n/a	n/a	HEADPHONES	n/a	8	5	[0, 0, 0]	n/a	catFR1	0	R1264P
833.724	1.618	838702	WORD	n/a	wordpools/wordpool_categorized_EN.txt	OCTOPUS	OceanAnimals	9	5	[0, 0, 0]	n/a	catFR1	0	R1264P
835.342	0.866	840320	WORD_OFF	n/a	n/a	OCTOPUS	n/a	9	5	[0, 0, 0]	n/a	catFR1	0	R1264P
836.208	1.617	841186	WORD	n/a	wordpools/wordpool_categorized_EN.txt	TURTLE	OceanAnimals	10	5	[0, 0, 0]	n/a	catFR1	0	R1264P
837.825	0.984	842803	WORD_OFF	n/a	n/a	TURTLE	n/a	10	5	[0, 0, 0]	n/a	catFR1	0	R1264P
838.809	1.617	843787	WORD	n/a	wordpools/wordpool_categorized_EN.txt	ROOF	Building	11	5	[0, 0, 0]	n/a	catFR1	0	R1264P
840.426	0.767	845403	WORD_OFF	n/a	n/a	ROOF	n/a	11	5	[0, 0, 0]	n/a	catFR1	0	R1264P
841.193	1.617	846170	WORD	n/a	wordpools/wordpool_categorized_EN.txt	ATTIC	Building	12	5	[0, 0, 0]	n/a	catFR1	0	R1264P
842.81	0.0	847787	ENCODING_END	n/a	n/a	n/a	n/a	-999	5	[0, 0, 0]	n/a	catFR1	0	R1264P
842.81	0.101	847787	WORD_OFF	n/a	n/a	ATTIC	n/a	12	5	[0, 0, 0]	n/a	catFR1	0	R1264P
842.911	0.0	847888	DISTRACT_START	n/a	n/a	n/a	n/a	-999	5	[0, 0, 0]	n/a	catFR1	0	R1264P
842.911	0.015	847888	START	n/a	n/a	n/a	n/a	-999	5	[-999, -999, -999]	n/a	catFR1	0	R1264P
842.926	5.035	847903	PROB	5.035	n/a	n/a	n/a	-999	5	[4, 6, 2]	12	catFR1	0	R1264P
847.961	3.666	852938	PROB	3.666	n/a	n/a	n/a	-999	5	[6, 6, 4]	16	catFR1	0	R1264P
851.627	3.535	856604	PROB	3.535	n/a	n/a	n/a	-999	5	[9, 3, 7]	19	catFR1	0	R1264P
855.162	3.717	860139	PROB	3.717	n/a	n/a	n/a	-999	5	[3, 9, 8]	20	catFR1	0	R1264P
858.879	2.634	863856	PROB	2.634	n/a	n/a	n/a	-999	5	[2, 7, 7]	16	catFR1	0	R1264P
861.513	3.555	866489	PROB	3.555	n/a	n/a	n/a	-999	5	[3, 8, 9]	20	catFR1	0	R1264P
865.068	0.013	870044	STOP	n/a	n/a	n/a	n/a	-999	5	[-999, -999, -999]	n/a	catFR1	0	R1264P
865.081	0.582	870057	DISTRACT_END	n/a	n/a	n/a	n/a	-999	5	[0, 0, 0]	n/a	catFR1	0	R1264P
865.663	0.518	870639	RETRIEVAL_ORIENT	n/a	n/a	n/a	n/a	-999	5	[0, 0, 0]	n/a	catFR1	0	R1264P
866.181	0.69	871157	REC_START	n/a	n/a	n/a	n/a	-999	5	[0, 0, 0]	n/a	catFR1	0	R1264P
866.871	1.388	871847	REC_WORD	1.388	n/a	SQUID	OceanAnimals	1	5	[0, 0, 0]	n/a	catFR1	0	R1264P
868.259	4.537	873235	REC_WORD	4.537	n/a	OYSTER	OceanAnimals	2	5	[0, 0, 0]	n/a	catFR1	0	R1264P
872.796	0.865	877772	REC_WORD	0.865	n/a	DOOR	Building	5	5	[0, 0, 0]	n/a	catFR1	0	R1264P
873.661	14.468	878637	REC_WORD	14.468	n/a	WINDOW	Building	6	5	[0, 0, 0]	n/a	catFR1	0	R1264P
888.129	7.401	893104	REC_WORD	7.401	n/a	TELEVISION	n/a	-999	5	[0, 0, 0]	n/a	catFR1	0	R1264P
895.53	0.664	900505	REC_WORD	0.664	n/a	RADIO	n/a	-999	5	[0, 0, 0]	n/a	catFR1	0	R1264P
896.194	8.744	901169	REC_END	n/a	n/a	n/a	n/a	-999	5	[0, 0, 0]	n/a	catFR1	0	R1264P
904.938	0.5	909912	TRIAL	n/a	n/a	n/a	n/a	-999	6	[0, 0, 0]	n/a	catFR1	0	R1264P
905.438	10.428	910412	COUNTDOWN_START	n/a	n/a	n/a	n/a	-999	6	[0, 0, 0]	n/a	catFR1	0	R1264P
915.866	0.007	920840	COUNTDOWN_END	n/a	n/a	n/a	n/a	-999	6	[0, 0, 0]	n/a	catFR1	0	R1264P
915.873	1.617	920847	ORIENT	n/a	n/a	n/a	n/a	-999	6	[0, 0, 0]	n/a	catFR1	0	R1264P
917.49	1.884	922463	ORIENT_OFF	n/a	n/a	n/a	n/a	-999	6	[0, 0, 0]	n/a	catFR1	0	R1264P
919.374	1.617	924347	WORD	n/a	wordpools/wordpool_categorized_EN.txt	SHOES	Clothing	1	6	[0, 0, 0]	n/a	catFR1	0	R1264P
920.991	0.833	925964	WORD_OFF	n/a	n/a	SHOES	n/a	1	6	[0, 0, 0]	n/a	catFR1	0	R1264P
921.824	1.617	926797	WORD	n/a	wordpools/wordpool_categorized_EN.txt	SHORTS	Clothing	2	6	[0, 0, 0]	n/a	catFR1	0	R1264P
923.441	1.001	928414	WORD_OFF	n/a	n/a	SHORTS	n/a	2	6	[0, 0, 0]	n/a	catFR1	0	R1264P
924.442	1.617	929415	WORD	n/a	wordpools/wordpool_categorized_EN.txt	STREAM	Landscapes	3	6	[0, 0, 0]	n/a	catFR1	0	R1264P
926.059	0.916	931032	WORD_OFF	n/a	n/a	STREAM	n/a	3	6	[0, 0, 0]	n/a	catFR1	0	R1264P
926.975	1.616	931948	WORD	n/a	wordpools/wordpool_categorized_EN.txt	HILLS	Landscapes	4	6	[0, 0, 0]	n/a	catFR1	0	R1264P
928.591	0.885	933564	WORD_OFF	n/a	n/a	HILLS	n/a	4	6	[0, 0, 0]	n/a	catFR1	0	R1264P
929.476	1.617	934449	WORD	n/a	wordpools/wordpool_categorized_EN.txt	FLUTE	Instruments	5	6	[0, 0, 0]	n/a	catFR1	0	R1264P
931.093	1.0	936066	WORD_OFF	n/a	n/a	FLUTE	n/a	5	6	[0, 0, 0]	n/a	catFR1	0	R1264P
932.093	1.617	937066	WORD	n/a	wordpools/wordpool_categorized_EN.txt	BANJO	Instruments	6	6	[0, 0, 0]	n/a	catFR1	0	R1264P
933.71	0.8	938683	WORD_OFF	n/a	n/a	BANJO	n/a	6	6	[0, 0, 0]	n/a	catFR1	0	R1264P
934.51	1.617	939483	WORD	n/a	wordpools/wordpool_categorized_EN.txt	SKIRT	Clothing	7	6	[0, 0, 0]	n/a	catFR1	0	R1264P
936.127	0.95	941100	WORD_OFF	n/a	n/a	SKIRT	n/a	7	6	[0, 0, 0]	n/a	catFR1	0	R1264P
937.077	1.616	942049	WORD	n/a	wordpools/wordpool_categorized_EN.txt	SOCKS	Clothing	8	6	[0, 0, 0]	n/a	catFR1	0	R1264P
938.693	0.818	943665	WORD_OFF	n/a	n/a	SOCKS	n/a	8	6	[0, 0, 0]	n/a	catFR1	0	R1264P
939.511	1.617	944483	WORD	n/a	wordpools/wordpool_categorized_EN.txt	RIVER	Landscapes	9	6	[0, 0, 0]	n/a	catFR1	0	R1264P
941.128	0.934	946100	WORD_OFF	n/a	n/a	RIVER	n/a	9	6	[0, 0, 0]	n/a	catFR1	0	R1264P
942.062	1.616	947034	WORD	n/a	wordpools/wordpool_categorized_EN.txt	VALLEY	Landscapes	10	6	[0, 0, 0]	n/a	catFR1	0	R1264P
943.678	1.0	948650	WORD_OFF	n/a	n/a	VALLEY	n/a	10	6	[0, 0, 0]	n/a	catFR1	0	R1264P
944.678	1.601	949650	WORD	n/a	wordpools/wordpool_categorized_EN.txt	ORGAN	Instruments	11	6	[0, 0, 0]	n/a	catFR1	0	R1264P
946.279	0.767	951251	WORD_OFF	n/a	n/a	ORGAN	n/a	11	6	[0, 0, 0]	n/a	catFR1	0	R1264P
947.046	1.616	952018	WORD	n/a	wordpools/wordpool_categorized_EN.txt	TRUMPET	Instruments	12	6	[0, 0, 0]	n/a	catFR1	0	R1264P
948.662	0.0	953634	ENCODING_END	n/a	n/a	n/a	n/a	-999	6	[0, 0, 0]	n/a	catFR1	0	R1264P
948.662	0.103	953634	WORD_OFF	n/a	n/a	TRUMPET	n/a	12	6	[0, 0, 0]	n/a	catFR1	0	R1264P
948.765	0.001	953737	DISTRACT_START	n/a	n/a	n/a	n/a	-999	6	[0, 0, 0]	n/a	catFR1	0	R1264P
948.766	0.014	953738	START	n/a	n/a	n/a	n/a	-999	6	[-999, -999, -999]	n/a	catFR1	0	R1264P
948.78	4.067	953752	PROB	4.067	n/a	n/a	n/a	-999	6	[6, 6, 2]	14	catFR1	0	R1264P
952.847	2.651	957819	PROB	2.651	n/a	n/a	n/a	-999	6	[3, 6, 3]	12	catFR1	0	R1264P
955.498	3.467	960470	PROB	3.467	n/a	n/a	n/a	-999	6	[7, 2, 6]	15	catFR1	0	R1264P
958.965	2.917	963936	PROB	2.917	n/a	n/a	n/a	-999	6	[3, 7, 4]	14	catFR1	0	R1264P
961.882	3.051	966853	PROB	3.051	n/a	n/a	n/a	-999	6	[6, 1, 1]	6	catFR1	0	R1264P
964.933	6.07	969904	PROB	6.07	n/a	n/a	n/a	-999	6	[4, 7, 1]	12	catFR1	0	R1264P
971.003	0.014	975974	STOP	n/a	n/a	n/a	n/a	-999	6	[-999, -999, -999]	n/a	catFR1	0	R1264P
971.017	0.566	975988	DISTRACT_END	n/a	n/a	n/a	n/a	-999	6	[0, 0, 0]	n/a	catFR1	0	R1264P
971.583	0.519	976554	RETRIEVAL_ORIENT	n/a	n/a	n/a	n/a	-999	6	[0, 0, 0]	n/a	catFR1	0	R1264P
972.102	1.656	977073	REC_START	n/a	n/a	n/a	n/a	-999	6	[0, 0, 0]	n/a	catFR1	0	R1264P
973.758	1.642	978729	REC_WORD	1.642	n/a	VALLEY	Landscapes	10	6	[0, 0, 0]	n/a	catFR1	0	R1264P
975.4	2.983	980371	REC_WORD	2.983	n/a	STREAM	Landscapes	3	6	[0, 0, 0]	n/a	catFR1	0	R1264P
978.383	2.266	983353	REC_WORD_VV	2.266	n/a	<>	n/a	-999	6	[0, 0, 0]	n/a	catFR1	0	R1264P
980.649	1.927	985619	REC_WORD	1.927	n/a	OYSTER	n/a	-999	6	[0, 0, 0]	n/a	catFR1	0	R1264P
982.576	5.38	987546	REC_WORD	5.38	n/a	SQUID	n/a	-999	6	[0, 0, 0]	n/a	catFR1	0	R1264P
987.956	1.836	992926	REC_WORD	1.836	n/a	SHOES	Clothing	1	6	[0, 0, 0]	n/a	catFR1	0	R1264P
989.792	1.524	994762	REC_WORD	1.524	n/a	PANTS	n/a	-999	6	[0, 0, 0]	n/a	catFR1	0	R1264P
991.316	1.286	996286	REC_WORD_VV	1.286	n/a	<>	n/a	-999	6	[0, 0, 0]	n/a	catFR1	0	R1264P
992.602	6.727	997572	REC_WORD_VV	6.727	n/a	<>	n/a	-999	6	[0, 0, 0]	n/a	catFR1	0	R1264P
999.329	1.933	1004298	REC_WORD	1.933	n/a	MAGNIFIER	n/a	-999	6	[0, 0, 0]	n/a	catFR1	0	R1264P
1001.262	0.853	1006231	REC_WORD	0.853	n/a	GLASSES	n/a	-999	6	[0, 0, 0]	n/a	catFR1	0	R1264P
1002.115	6.376	1007084	REC_END	n/a	n/a	n/a	n/a	-999	6	[0, 0, 0]	n/a	catFR1	0	R1264P
1008.491	0.5	1013460	TRIAL	n/a	n/a	n/a	n/a	-999	7	[0, 0, 0]	n/a	catFR1	0	R1264P
1008.991	10.428	1013960	COUNTDOWN_START	n/a	n/a	n/a	n/a	-999	7	[0, 0, 0]	n/a	catFR1	0	R1264P
1019.419	0.007	1024387	COUNTDOWN_END	n/a	n/a	n/a	n/a	-999	7	[0, 0, 0]	n/a	catFR1	0	R1264P
1019.426	1.617	1024394	ORIENT	n/a	n/a	n/a	n/a	-999	7	[0, 0, 0]	n/a	catFR1	0	R1264P
1021.043	1.934	1026011	ORIENT_OFF	n/a	n/a	n/a	n/a	-999	7	[0, 0, 0]	n/a	catFR1	0	R1264P
1022.977	1.616	1027945	WORD	n/a	wordpools/wordpool_categorized_EN.txt	SPOON	KitchenTools	1	7	[0, 0, 0]	n/a	catFR1	0	R1264P
1024.593	0.967	1029561	WORD_OFF	n/a	n/a	SPOON	n/a	1	7	[0, 0, 0]	n/a	catFR1	0	R1264P
1025.56	1.618	1030528	WORD	n/a	wordpools/wordpool_categorized_EN.txt	GRATER	KitchenTools	2	7	[0, 0, 0]	n/a	catFR1	0	R1264P
1027.178	0.817	1032146	WORD_OFF	n/a	n/a	GRATER	n/a	2	7	[0, 0, 0]	n/a	catFR1	0	R1264P
1027.995	1.616	1032963	WORD	n/a	wordpools/wordpool_categorized_EN.txt	WILLOW	Trees	3	7	[0, 0, 0]	n/a	catFR1	0	R1264P
1029.611	0.851	1034579	WORD_OFF	n/a	n/a	WILLOW	n/a	3	7	[0, 0, 0]	n/a	catFR1	0	R1264P
1030.462	1.617	1035430	WORD	n/a	wordpools/wordpool_categorized_EN.txt	BIRCH	Trees	4	7	[0, 0, 0]	n/a	catFR1	0	R1264P
1032.079	0.783	1037047	WORD_OFF	n/a	n/a	BIRCH	n/a	4	7	[0, 0, 0]	n/a	catFR1	0	R1264P
1032.862	1.617	1037830	WORD	n/a	wordpools/wordpool_categorized_EN.txt	PANTS	Clothing	5	7	[0, 0, 0]	n/a	catFR1	0	R1264P
1034.479	0.867	1039446	WORD_OFF	n/a	n/a	PANTS	n/a	5	7	[0, 0, 0]	n/a	catFR1	0	R1264P
1035.346	1.617	1040313	WORD	n/a	wordpools/wordpool_categorized_EN.txt	JEANS	Clothing	6	7	[0, 0, 0]	n/a	catFR1	0	R1264P
1036.963	0.767	1041930	WORD_OFF	n/a	n/a	JEANS	n/a	6	7	[0, 0, 0]	n/a	catFR1	0	R1264P
1037.73	1.617	1042697	WORD	n/a	wordpools/wordpool_categorized_EN.txt	FORK	KitchenTools	7	7	[0, 0, 0]	n/a	catFR1	0	R1264P
1039.347	0.767	1044314	WORD_OFF	n/a	n/a	FORK	n/a	7	7	[0, 0, 0]	n/a	catFR1	0	R1264P
1040.114	1.617	1045081	WORD	n/a	wordpools/wordpool_categorized_EN.txt	STRAINER	KitchenTools	8	7	[0, 0, 0]	n/a	catFR1	0	R1264P
1041.731	1.0	1046698	WORD_OFF	n/a	n/a	STRAINER	n/a	8	7	[0, 0, 0]	n/a	catFR1	0	R1264P
1042.731	1.617	1047698	WORD	n/a	wordpools/wordpool_categorized_EN.txt	PINE	Trees	9	7	[0, 0, 0]	n/a	catFR1	0	R1264P
1044.348	0.783	1049315	WORD_OFF	n/a	n/a	PINE	n/a	9	7	[0, 0, 0]	n/a	catFR1	0	R1264P
1045.131	1.617	1050098	WORD	n/a	wordpools/wordpool_categorized_EN.txt	CEDAR	Trees	10	7	[0, 0, 0]	n/a	catFR1	0	R1264P
1046.748	0.949	1051715	WORD_OFF	n/a	n/a	CEDAR	n/a	10	7	[0, 0, 0]	n/a	catFR1	0	R1264P
1047.697	1.618	1052664	WORD	n/a	wordpools/wordpool_categorized_EN.txt	JACKET	Clothing	11	7	[0, 0, 0]	n/a	catFR1	0	R1264P
1049.315	0.934	1054282	WORD_OFF	n/a	n/a	JACKET	n/a	11	7	[0, 0, 0]	n/a	catFR1	0	R1264P
1050.249	1.617	1055216	WORD	n/a	wordpools/wordpool_categorized_EN.txt	COAT	Clothing	12	7	[0, 0, 0]	n/a	catFR1	0	R1264P
1051.866	0.0	1056833	WORD_OFF	n/a	n/a	COAT	n/a	12	7	[0, 0, 0]	n/a	catFR1	0	R1264P
1051.866	0.13	1056833	ENCODING_END	n/a	n/a	n/a	n/a	-999	7	[0, 0, 0]	n/a	catFR1	0	R1264P
1051.996	0.0	1056963	DISTRACT_START	n/a	n/a	n/a	n/a	-999	7	[0, 0, 0]	n/a	catFR1	0	R1264P
1051.996	0.02	1056963	START	n/a	n/a	n/a	n/a	-999	7	[-999, -999, -999]	n/a	catFR1	0	R1264P
1052.016	6.468	1056983	PROB	6.468	n/a	n/a	n/a	-999	7	[4, 8, 5]	17	catFR1	0	R1264P
1058.484	4.534	1063450	PROB	4.534	n/a	n/a	n/a	-999	7	[9, 5, 2]	16	catFR1	0	R1264P
1063.018	3.616	1067984	PROB	3.616	n/a	n/a	n/a	-999	7	[1, 7, 8]	16	catFR1	0	R1264P
1066.634	3.118	1071600	PROB	3.118	n/a	n/a	n/a	-999	7	[8, 5, 2]	15	catFR1	0	R1264P
1069.752	3.476	1074718	PROB	3.476	n/a	n/a	n/a	-999	7	[3, 3, 8]	14	catFR1	0	R1264P
1073.228	0.009	1078193	STOP	n/a	n/a	n/a	n/a	-999	7	[-999, -999, -999]	n/a	catFR1	0	R1264P
1073.237	0.6	1078202	DISTRACT_END	n/a	n/a	n/a	n/a	-999	7	[0, 0, 0]	n/a	catFR1	0	R1264P
1073.837	0.517	1078802	RETRIEVAL_ORIENT	n/a	n/a	n/a	n/a	-999	7	[0, 0, 0]	n/a	catFR1	0	R1264P
1074.354	29.994	1079319	REC_START	n/a	n/a	n/a	n/a	-999	7	[0, 0, 0]	n/a	catFR1	0	R1264P
1104.348	0.018	1109312	REC_WORD_VV	0.018	n/a	<>	n/a	-999	7	[0, 0, 0]	n/a	catFR1	0	R1264P
1104.366	6.911	1109330	REC_END	n/a	n/a	n/a	n/a	-999	7	[0, 0, 0]	n/a	catFR1	0	R1264P
1111.277	0.5	1116240	TRIAL	n/a	n/a	n/a	n/a	-999	8	[0, 0, 0]	n/a	catFR1	0	R1264P
1111.777	10.428	1116740	COUNTDOWN_START	n/a	n/a	n/a	n/a	-999	8	[0, 0, 0]	n/a	catFR1	0	R1264P
1122.205	0.007	1127168	COUNTDOWN_END	n/a	n/a	n/a	n/a	-999	8	[0, 0, 0]	n/a	catFR1	0	R1264P
1122.212	1.617	1127175	ORIENT	n/a	n/a	n/a	n/a	-999	8	[0, 0, 0]	n/a	catFR1	0	R1264P
1123.829	2.217	1128792	ORIENT_OFF	n/a	n/a	n/a	n/a	-999	8	[0, 0, 0]	n/a	catFR1	0	R1264P
1126.046	1.616	1131009	WORD	n/a	wordpools/wordpool_categorized_EN.txt	EVERGREEN	Trees	1	8	[0, 0, 0]	n/a	catFR1	0	R1264P
1127.662	0.818	1132625	WORD_OFF	n/a	n/a	EVERGREEN	n/a	1	8	[0, 0, 0]	n/a	catFR1	0	R1264P
1128.48	1.617	1133443	WORD	n/a	wordpools/wordpool_categorized_EN.txt	WALNUT	Trees	2	8	[0, 0, 0]	n/a	catFR1	0	R1264P
1130.097	0.984	1135059	WORD_OFF	n/a	n/a	WALNUT	n/a	2	8	[0, 0, 0]	n/a	catFR1	0	R1264P
1131.081	1.616	1136043	WORD	n/a	wordpools/wordpool_categorized_EN.txt	ROBIN	Birds	3	8	[0, 0, 0]	n/a	catFR1	0	R1264P
1132.697	0.851	1137659	WORD_OFF	n/a	n/a	ROBIN	n/a	3	8	[0, 0, 0]	n/a	catFR1	0	R1264P
1133.548	1.617	1138510	WORD	n/a	wordpools/wordpool_categorized_EN.txt	HAWK	Birds	4	8	[0, 0, 0]	n/a	catFR1	0	R1264P
1135.165	0.883	1140127	WORD_OFF	n/a	n/a	HAWK	n/a	4	8	[0, 0, 0]	n/a	catFR1	0	R1264P
1136.048	1.616	1141010	WORD	n/a	wordpools/wordpool_categorized_EN.txt	FOLDER	OfficeSupplies	5	8	[0, 0, 0]	n/a	catFR1	0	R1264P
1137.664	0.934	1142626	WORD_OFF	n/a	n/a	FOLDER	n/a	5	8	[0, 0, 0]	n/a	catFR1	0	R1264P
1138.598	1.618	1143560	WORD	n/a	wordpools/wordpool_categorized_EN.txt	STAPLER	OfficeSupplies	6	8	[0, 0, 0]	n/a	catFR1	0	R1264P
1140.216	0.95	1145178	WORD_OFF	n/a	n/a	STAPLER	n/a	6	8	[0, 0, 0]	n/a	catFR1	0	R1264P
1141.166	1.617	1146128	WORD	n/a	wordpools/wordpool_categorized_EN.txt	MAPLE	Trees	7	8	[0, 0, 0]	n/a	catFR1	0	R1264P
1142.783	0.983	1147745	WORD_OFF	n/a	n/a	MAPLE	n/a	7	8	[0, 0, 0]	n/a	catFR1	0	R1264P
1143.766	1.617	1148728	WORD	n/a	wordpools/wordpool_categorized_EN.txt	OAK	Trees	8	8	[0, 0, 0]	n/a	catFR1	0	R1264P
1145.383	0.984	1150345	WORD_OFF	n/a	n/a	OAK	n/a	8	8	[0, 0, 0]	n/a	catFR1	0	R1264P
1146.367	1.617	1151329	WORD	n/a	wordpools/wordpool_categorized_EN.txt	PIGEON	Birds	9	8	[0, 0, 0]	n/a	catFR1	0	R1264P
1147.984	0.867	1152946	WORD_OFF	n/a	n/a	PIGEON	n/a	9	8	[0, 0, 0]	n/a	catFR1	0	R1264P
1148.851	1.617	1153813	WORD	n/a	wordpools/wordpool_categorized_EN.txt	BLUEBIRD	Birds	10	8	[0, 0, 0]	n/a	catFR1	0	R1264P
1150.468	0.833	1155429	WORD_OFF	n/a	n/a	BLUEBIRD	n/a	10	8	[0, 0, 0]	n/a	catFR1	0	R1264P
1151.301	1.617	1156262	WORD	n/a	wordpools/wordpool_categorized_EN.txt	PAPER	OfficeSupplies	11	8	[0, 0, 0]	n/a	catFR1	0	R1264P
1152.918	0.834	1157879	WORD_OFF	n/a	n/a	PAPER	n/a	11	8	[0, 0, 0]	n/a	catFR1	0	R1264P
1153.752	1.617	1158713	WORD	n/a	wordpools/wordpool_categorized_EN.txt	PENCIL	OfficeSupplies	12	8	[0, 0, 0]	n/a	catFR1	0	R1264P
1155.369	0.0	1160330	ENCODING_END	n/a	n/a	n/a	n/a	-999	8	[0, 0, 0]	n/a	catFR1	0	R1264P
1155.369	0.113	1160330	WORD_OFF	n/a	n/a	PENCIL	n/a	12	8	[0, 0, 0]	n/a	catFR1	0	R1264P
1155.482	0.0	1160443	DISTRACT_START	n/a	n/a	n/a	n/a	-999	8	[0, 0, 0]	n/a	catFR1	0	R1264P
1155.482	0.02	1160443	START	n/a	n/a	n/a	n/a	-999	8	[-999, -999, -999]	n/a	catFR1	0	R1264P
1155.502	5.801	1160463	PROB	5.801	n/a	n/a	n/a	-999	8	[1, 8, 1]	10	catFR1	0	R1264P
1161.303	5.818	1166264	PROB	5.818	n/a	n/a	n/a	-999	8	[5, 8, 9]	22	catFR1	0	R1264P
1167.121	3.617	1172082	PROB	3.617	n/a	n/a	n/a	-999	8	[5, 2, 3]	19	catFR1	0	R1264P
1170.738	3.833	1175698	PROB	3.833	n/a	n/a	n/a	-999	8	[2, 7, 7]	16	catFR1	0	R1264P
1174.571	3.753	1179531	PROB	3.753	n/a	n/a	n/a	-999	8	[5, 8, 3]	16	catFR1	0	R1264P
1178.324	0.016	1183284	STOP	n/a	n/a	n/a	n/a	-999	8	[-999, -999, -999]	n/a	catFR1	0	R1264P
1178.34	0.55	1183300	DISTRACT_END	n/a	n/a	n/a	n/a	-999	8	[0, 0, 0]	n/a	catFR1	0	R1264P
1178.89	0.517	1183850	RETRIEVAL_ORIENT	n/a	n/a	n/a	n/a	-999	8	[0, 0, 0]	n/a	catFR1	0	R1264P
1179.407	2.833	1184367	REC_START	n/a	n/a	n/a	n/a	-999	8	[0, 0, 0]	n/a	catFR1	0	R1264P
1182.24	2.089	1187200	REC_WORD	2.089	n/a	PIGEON	Birds	9	8	[0, 0, 0]	n/a	catFR1	0	R1264P
1184.329	8.338	1189289	REC_WORD	8.338	n/a	HAWK	Birds	4	8	[0, 0, 0]	n/a	catFR1	0	R1264P
1192.667	4.622	1197626	REC_WORD	4.622	n/a	EVERGREEN	Trees	1	8	[0, 0, 0]	n/a	catFR1	0	R1264P
1197.289	12.129	1202248	REC_WORD	12.129	n/a	ZOMBIE	n/a	-999	8	[0, 0, 0]	n/a	catFR1	0	R1264P
1209.418	5.695	1214376	REC_END	n/a	n/a	n/a	n/a	-999	8	[0, 0, 0]	n/a	catFR1	0	R1264P
1215.113	0.5	1220071	TRIAL	n/a	n/a	n/a	n/a	-999	9	[0, 0, 0]	n/a	catFR1	0	R1264P
1215.613	10.428	1220571	COUNTDOWN_START	n/a	n/a	n/a	n/a	-999	9	[0, 0, 0]	n/a	catFR1	0	R1264P
1226.041	0.008	1230999	COUNTDOWN_END	n/a	n/a	n/a	n/a	-999	9	[0, 0, 0]	n/a	catFR1	0	R1264P
1226.049	1.616	1231007	ORIENT	n/a	n/a	n/a	n/a	-999	9	[0, 0, 0]	n/a	catFR1	0	R1264P
1227.665	1.95	1232622	ORIENT_OFF	n/a	n/a	n/a	n/a	-999	9	[0, 0, 0]	n/a	catFR1	0	R1264P
1229.615	1.601	1234572	WORD	n/a	wordpools/wordpool_categorized_EN.txt	DOVE	Birds	1	9	[0, 0, 0]	n/a	catFR1	0	R1264P
1231.216	0.8	1236173	WORD_OFF	n/a	n/a	DOVE	n/a	1	9	[0, 0, 0]	n/a	catFR1	0	R1264P
1232.016	1.616	1236973	WORD	n/a	wordpools/wordpool_categorized_EN.txt	CROW	Birds	2	9	[0, 0, 0]	n/a	catFR1	0	R1264P
1233.632	1.001	1238589	WORD_OFF	n/a	n/a	CROW	n/a	2	9	[0, 0, 0]	n/a	catFR1	0	R1264P
1234.633	1.617	1239590	WORD	n/a	wordpools/wordpool_categorized_EN.txt	FOREST	Landscapes	3	9	[0, 0, 0]	n/a	catFR1	0	R1264P
1236.25	0.984	1241207	WORD_OFF	n/a	n/a	FOREST	n/a	3	9	[0, 0, 0]	n/a	catFR1	0	R1264P
1237.234	1.617	1242191	WORD	n/a	wordpools/wordpool_categorized_EN.txt	OCEAN	Landscapes	4	9	[0, 0, 0]	n/a	catFR1	0	R1264P
1238.851	0.934	1243808	WORD_OFF	n/a	n/a	OCEAN	n/a	4	9	[0, 0, 0]	n/a	catFR1	0	R1264P
1239.785	1.616	1244742	WORD	n/a	wordpools/wordpool_categorized_EN.txt	PEACH	Fruit	5	9	[0, 0, 0]	n/a	catFR1	0	R1264P
1241.401	0.767	1246358	WORD_OFF	n/a	n/a	PEACH	n/a	5	9	[0, 0, 0]	n/a	catFR1	0	R1264P
1242.168	1.617	1247125	WORD	n/a	wordpools/wordpool_categorized_EN.txt	LEMON	Fruit	6	9	[0, 0, 0]	n/a	catFR1	0	R1264P
1243.785	0.767	1248742	WORD_OFF	n/a	n/a	LEMON	n/a	6	9	[0, 0, 0]	n/a	catFR1	0	R1264P
1244.552	1.617	1249509	WORD	n/a	wordpools/wordpool_categorized_EN.txt	CARDINAL	Birds	7	9	[0, 0, 0]	n/a	catFR1	0	R1264P
1246.169	0.834	1251125	WORD_OFF	n/a	n/a	CARDINAL	n/a	7	9	[0, 0, 0]	n/a	catFR1	0	R1264P
1247.003	1.615	1251959	WORD	n/a	wordpools/wordpool_categorized_EN.txt	GOOSE	Birds	8	9	[0, 0, 0]	n/a	catFR1	0	R1264P
1248.618	0.818	1253574	WORD_OFF	n/a	n/a	GOOSE	n/a	8	9	[0, 0, 0]	n/a	catFR1	0	R1264P
1249.436	1.617	1254392	WORD	n/a	wordpools/wordpool_categorized_EN.txt	MOUNTAIN	Landscapes	9	9	[0, 0, 0]	n/a	catFR1	0	R1264P
1251.053	0.967	1256009	WORD_OFF	n/a	n/a	MOUNTAIN	n/a	9	9	[0, 0, 0]	n/a	catFR1	0	R1264P
1252.02	1.616	1256976	WORD	n/a	wordpools/wordpool_categorized_EN.txt	ISLAND	Landscapes	10	9	[0, 0, 0]	n/a	catFR1	0	R1264P
1253.636	0.95	1258592	WORD_OFF	n/a	n/a	ISLAND	n/a	10	9	[0, 0, 0]	n/a	catFR1	0	R1264P
1254.586	1.618	1259542	WORD	n/a	wordpools/wordpool_categorized_EN.txt	APPLE	Fruit	11	9	[0, 0, 0]	n/a	catFR1	0	R1264P
1256.204	0.967	1261160	WORD_OFF	n/a	n/a	APPLE	n/a	11	9	[0, 0, 0]	n/a	catFR1	0	R1264P
1257.171	1.617	1262127	WORD	n/a	wordpools/wordpool_categorized_EN.txt	LIME	Fruit	12	9	[0, 0, 0]	n/a	catFR1	0	R1264P
1258.788	0.0	1263744	ENCODING_END	n/a	n/a	n/a	n/a	-999	9	[0, 0, 0]	n/a	catFR1	0	R1264P
1258.788	0.133	1263744	WORD_OFF	n/a	n/a	LIME	n/a	12	9	[0, 0, 0]	n/a	catFR1	0	R1264P
1258.921	0.0	1263877	DISTRACT_START	n/a	n/a	n/a	n/a	-999	9	[0, 0, 0]	n/a	catFR1	0	R1264P
1258.921	0.017	1263877	START	n/a	n/a	n/a	n/a	-999	9	[-999, -999, -999]	n/a	catFR1	0	R1264P
1258.938	4.768	1263894	PROB	4.768	n/a	n/a	n/a	-999	9	[8, 7, 6]	21	catFR1	0	R1264P
1263.706	3.966	1268662	PROB	3.966	n/a	n/a	n/a	-999	9	[2, 5, 8]	15	catFR1	0	R1264P
1267.672	5.719	1272627	PROB	5.719	n/a	n/a	n/a	-999	9	[9, 3, 6]	17	catFR1	0	R1264P
1273.391	4.717	1278346	PROB	4.717	n/a	n/a	n/a	-999	9	[6, 1, 7]	15	catFR1	0	R1264P
1278.108	4.447	1283063	PROB	4.447	n/a	n/a	n/a	-999	9	[6, 4, 5]	15	catFR1	0	R1264P
1282.555	0.02	1287510	STOP	n/a	n/a	n/a	n/a	-999	9	[-999, -999, -999]	n/a	catFR1	0	R1264P
1282.575	0.534	1287530	DISTRACT_END	n/a	n/a	n/a	n/a	-999	9	[0, 0, 0]	n/a	catFR1	0	R1264P
1283.109	0.517	1288064	RETRIEVAL_ORIENT	n/a	n/a	n/a	n/a	-999	9	[0, 0, 0]	n/a	catFR1	0	R1264P
1283.626	4.596	1288581	REC_START	n/a	n/a	n/a	n/a	-999	9	[0, 0, 0]	n/a	catFR1	0	R1264P
1288.222	1.509	1293176	REC_WORD_VV	1.509	n/a	<>	n/a	-999	9	[0, 0, 0]	n/a	catFR1	0	R1264P
1289.731	2.489	1294685	REC_WORD	2.489	n/a	RIVER	n/a	-999	9	[0, 0, 0]	n/a	catFR1	0	R1264P
1292.22	4.807	1297174	REC_WORD	4.807	n/a	MOUNTAIN	Landscapes	9	9	[0, 0, 0]	n/a	catFR1	0	R1264P
1297.027	1.253	1301981	REC_WORD	1.253	n/a	FORK	n/a	-999	9	[0, 0, 0]	n/a	catFR1	0	R1264P
1298.28	4.145	1303234	REC_WORD	4.145	n/a	PLATE	n/a	-999	9	[0, 0, 0]	n/a	catFR1	0	R1264P
1302.425	11.213	1307379	REC_WORD	11.213	n/a	EVERGREEN	n/a	-999	9	[0, 0, 0]	n/a	catFR1	0	R1264P
1313.638	5.878	1318591	REC_END	n/a	n/a	n/a	n/a	-999	9	[0, 0, 0]	n/a	catFR1	0	R1264P
1319.516	0.5	1324469	TRIAL	n/a	n/a	n/a	n/a	-999	10	[0, 0, 0]	n/a	catFR1	0	R1264P
1320.016	10.428	1324969	COUNTDOWN_START	n/a	n/a	n/a	n/a	-999	10	[0, 0, 0]	n/a	catFR1	0	R1264P
1330.444	0.008	1335396	COUNTDOWN_END	n/a	n/a	n/a	n/a	-999	10	[0, 0, 0]	n/a	catFR1	0	R1264P
1330.452	1.617	1335404	ORIENT	n/a	n/a	n/a	n/a	-999	10	[0, 0, 0]	n/a	catFR1	0	R1264P
1332.069	2.017	1337021	ORIENT_OFF	n/a	n/a	n/a	n/a	-999	10	[0, 0, 0]	n/a	catFR1	0	R1264P
1334.086	1.616	1339038	WORD	n/a	wordpools/wordpool_categorized_EN.txt	BEACH	Landscapes	1	10	[0, 0, 0]	n/a	catFR1	0	R1264P
1335.702	0.883	1340654	WORD_OFF	n/a	n/a	BEACH	n/a	1	10	[0, 0, 0]	n/a	catFR1	0	R1264P
1336.585	1.618	1341537	WORD	n/a	wordpools/wordpool_categorized_EN.txt	CREEK	Landscapes	2	10	[0, 0, 0]	n/a	catFR1	0	R1264P
1338.203	0.95	1343155	WORD_OFF	n/a	n/a	CREEK	n/a	2	10	[0, 0, 0]	n/a	catFR1	0	R1264P
1339.153	1.617	1344105	WORD	n/a	wordpools/wordpool_categorized_EN.txt	MILK	Beverages	3	10	[0, 0, 0]	n/a	catFR1	0	R1264P
1340.77	1.0	1345722	WORD_OFF	n/a	n/a	MILK	n/a	3	10	[0, 0, 0]	n/a	catFR1	0	R1264P
1341.77	1.617	1346722	WORD	n/a	wordpools/wordpool_categorized_EN.txt	RUM	Beverages	4	10	[0, 0, 0]	n/a	catFR1	0	R1264P
1343.387	0.784	1348338	WORD_OFF	n/a	n/a	RUM	n/a	4	10	[0, 0, 0]	n/a	catFR1	0	R1264P
1344.171	1.617	1349122	WORD	n/a	wordpools/wordpool_categorized_EN.txt	BROWNIES	Desserts	5	10	[0, 0, 0]	n/a	catFR1	0	R1264P
1345.788	0.917	1350739	WORD_OFF	n/a	n/a	BROWNIES	n/a	5	10	[0, 0, 0]	n/a	catFR1	0	R1264P
1346.705	1.617	1351656	WORD	n/a	wordpools/wordpool_categorized_EN.txt	PIE	Desserts	6	10	[0, 0, 0]	n/a	catFR1	0	R1264P
1348.322	0.917	1353273	WORD_OFF	n/a	n/a	PIE	n/a	6	10	[0, 0, 0]	n/a	catFR1	0	R1264P
1349.239	1.616	1354190	WORD	n/a	wordpools/wordpool_categorized_EN.txt	JUICE	Beverages	7	10	[0, 0, 0]	n/a	catFR1	0	R1264P
1350.855	0.934	1355806	WORD_OFF	n/a	n/a	JUICE	n/a	7	10	[0, 0, 0]	n/a	catFR1	0	R1264P
1351.789	1.617	1356740	WORD	n/a	wordpools/wordpool_categorized_EN.txt	SODA	Beverages	8	10	[0, 0, 0]	n/a	catFR1	0	R1264P
1353.406	0.767	1358357	WORD_OFF	n/a	n/a	SODA	n/a	8	10	[0, 0, 0]	n/a	catFR1	0	R1264P
1354.173	1.617	1359124	WORD	n/a	wordpools/wordpool_categorized_EN.txt	LAKE	Landscapes	9	10	[0, 0, 0]	n/a	catFR1	0	R1264P
1355.79	0.899	1360741	WORD_OFF	n/a	n/a	LAKE	n/a	9	10	[0, 0, 0]	n/a	catFR1	0	R1264P
1356.689	1.618	1361640	WORD	n/a	wordpools/wordpool_categorized_EN.txt	WOODS	Landscapes	10	10	[0, 0, 0]	n/a	catFR1	0	R1264P
1358.307	0.883	1363258	WORD_OFF	n/a	n/a	WOODS	n/a	10	10	[0, 0, 0]	n/a	catFR1	0	R1264P
1359.19	1.617	1364141	WORD	n/a	wordpools/wordpool_categorized_EN.txt	CHEESECAKE	Desserts	11	10	[0, 0, 0]	n/a	catFR1	0	R1264P
1360.807	0.849	1365758	WORD_OFF	n/a	n/a	CHEESECAKE	n/a	11	10	[0, 0, 0]	n/a	catFR1	0	R1264P
1361.656	1.602	1366607	WORD	n/a	wordpools/wordpool_categorized_EN.txt	PUDDING	Desserts	12	10	[0, 0, 0]	n/a	catFR1	0	R1264P
1363.258	0.0	1368208	ENCODING_END	n/a	n/a	n/a	n/a	-999	10	[0, 0, 0]	n/a	catFR1	0	R1264P
1363.258	0.133	1368208	WORD_OFF	n/a	n/a	PUDDING	n/a	12	10	[0, 0, 0]	n/a	catFR1	0	R1264P
1363.391	0.0	1368341	DISTRACT_START	n/a	n/a	n/a	n/a	-999	10	[0, 0, 0]	n/a	catFR1	0	R1264P
1363.391	0.017	1368341	START	n/a	n/a	n/a	n/a	-999	10	[-999, -999, -999]	n/a	catFR1	0	R1264P
1363.408	6.217	1368358	PROB	6.217	n/a	n/a	n/a	-999	10	[9, 9, 8]	26	catFR1	0	R1264P
1369.625	4.984	1374575	PROB	4.984	n/a	n/a	n/a	-999	10	[7, 4, 7]	18	catFR1	0	R1264P
1374.609	3.967	1379559	PROB	3.967	n/a	n/a	n/a	-999	10	[4, 1, 5]	10	catFR1	0	R1264P
1378.576	3.769	1383526	PROB	3.769	n/a	n/a	n/a	-999	10	[4, 7, 6]	17	catFR1	0	R1264P
1382.345	4.53	1387294	PROB	4.53	n/a	n/a	n/a	-999	10	[4, 3, 3]	10	catFR1	0	R1264P
1386.875	0.021	1391824	STOP	n/a	n/a	n/a	n/a	-999	10	[-999, -999, -999]	n/a	catFR1	0	R1264P
1386.896	0.6	1391845	DISTRACT_END	n/a	n/a	n/a	n/a	-999	10	[0, 0, 0]	n/a	catFR1	0	R1264P
1387.496	0.517	1392445	RETRIEVAL_ORIENT	n/a	n/a	n/a	n/a	-999	10	[0, 0, 0]	n/a	catFR1	0	R1264P
1388.013	3.53	1392962	REC_START	n/a	n/a	n/a	n/a	-999	10	[0, 0, 0]	n/a	catFR1	0	R1264P
1391.543	1.831	1396492	REC_WORD	1.831	n/a	EVERGREEN	n/a	-999	10	[0, 0, 0]	n/a	catFR1	0	R1264P
1393.374	3.046	1398323	REC_WORD	3.046	n/a	NOTE	n/a	-999	10	[0, 0, 0]	n/a	catFR1	0	R1264P
1396.42	3.512	1401369	REC_WORD	3.512	n/a	FOREST	n/a	-999	10	[0, 0, 0]	n/a	catFR1	0	R1264P
1399.932	2.584	1404881	REC_WORD	2.584	n/a	SODA	Beverages	8	10	[0, 0, 0]	n/a	catFR1	0	R1264P
1402.516	7.867	1407464	REC_WORD	7.867	n/a	DOOR	n/a	-999	10	[0, 0, 0]	n/a	catFR1	0	R1264P
1410.383	2.721	1415331	REC_WORD	2.721	n/a	WINDOW	n/a	-999	10	[0, 0, 0]	n/a	catFR1	0	R1264P
1413.104	4.921	1418052	REC_WORD	4.921	n/a	MUSIC	n/a	-999	10	[0, 0, 0]	n/a	catFR1	0	R1264P
1418.025	30.049	1422973	REC_END	n/a	n/a	n/a	n/a	-999	10	[0, 0, 0]	n/a	catFR1	0	R1264P
1448.074	0.5	1453020	TRIAL	n/a	n/a	n/a	n/a	-999	11	[0, 0, 0]	n/a	catFR1	0	R1264P
1448.574	10.428	1453520	COUNTDOWN_START	n/a	n/a	n/a	n/a	-999	11	[0, 0, 0]	n/a	catFR1	0	R1264P
1459.002	0.007	1463947	COUNTDOWN_END	n/a	n/a	n/a	n/a	-999	11	[0, 0, 0]	n/a	catFR1	0	R1264P
1459.009	1.616	1463954	ORIENT	n/a	n/a	n/a	n/a	-999	11	[0, 0, 0]	n/a	catFR1	0	R1264P
1460.625	2.118	1465570	ORIENT_OFF	n/a	n/a	n/a	n/a	-999	11	[0, 0, 0]	n/a	catFR1	0	R1264P
1462.743	1.617	1467688	WORD	n/a	wordpools/wordpool_categorized_EN.txt	CROWBAR	Tools	1	11	[0, 0, 0]	n/a	catFR1	0	R1264P
1464.36	0.884	1469305	WORD_OFF	n/a	n/a	CROWBAR	n/a	1	11	[0, 0, 0]	n/a	catFR1	0	R1264P
1465.244	1.617	1470189	WORD	n/a	wordpools/wordpool_categorized_EN.txt	SHOVEL	Tools	2	11	[0, 0, 0]	n/a	catFR1	0	R1264P
1466.861	0.916	1471806	WORD_OFF	n/a	n/a	SHOVEL	n/a	2	11	[0, 0, 0]	n/a	catFR1	0	R1264P
1467.777	1.618	1472722	WORD	n/a	wordpools/wordpool_categorized_EN.txt	SHELF	Furniture	3	11	[0, 0, 0]	n/a	catFR1	0	R1264P
1469.395	1.0	1474340	WORD_OFF	n/a	n/a	SHELF	n/a	3	11	[0, 0, 0]	n/a	catFR1	0	R1264P
1470.395	1.617	1475340	WORD	n/a	wordpools/wordpool_categorized_EN.txt	NIGHTSTAND	Furniture	4	11	[0, 0, 0]	n/a	catFR1	0	R1264P
1472.012	0.783	1476957	WORD_OFF	n/a	n/a	NIGHTSTAND	n/a	4	11	[0, 0, 0]	n/a	catFR1	0	R1264P
1472.795	1.617	1477740	WORD	n/a	wordpools/wordpool_categorized_EN.txt	CRAB	OceanAnimals	5	11	[0, 0, 0]	n/a	catFR1	0	R1264P
1474.412	0.884	1479357	WORD_OFF	n/a	n/a	CRAB	n/a	5	11	[0, 0, 0]	n/a	catFR1	0	R1264P
1475.296	1.617	1480241	WORD	n/a	wordpools/wordpool_categorized_EN.txt	WHALE	OceanAnimals	6	11	[0, 0, 0]	n/a	catFR1	0	R1264P
1476.913	0.782	1481858	WORD_OFF	n/a	n/a	WHALE	n/a	6	11	[0, 0, 0]	n/a	catFR1	0	R1264P
1477.695	1.618	1482640	WORD	n/a	wordpools/wordpool_categorized_EN.txt	RATCHET	Tools	7	11	[0, 0, 0]	n/a	catFR1	0	R1264P
1479.313	0.933	1484257	WORD_OFF	n/a	n/a	RATCHET	n/a	7	11	[0, 0, 0]	n/a	catFR1	0	R1264P
1480.246	1.618	1485190	WORD	n/a	wordpools/wordpool_categorized_EN.txt	AXE	Tools	8	11	[0, 0, 0]	n/a	catFR1	0	R1264P
1481.864	0.866	1486808	WORD_OFF	n/a	n/a	AXE	n/a	8	11	[0, 0, 0]	n/a	catFR1	0	R1264P
1482.73	1.617	1487674	WORD	n/a	wordpools/wordpool_categorized_EN.txt	CABINET	Furniture	9	11	[0, 0, 0]	n/a	catFR1	0	R1264P
1484.347	1.001	1489291	WORD_OFF	n/a	n/a	CABINET	n/a	9	11	[0, 0, 0]	n/a	catFR1	0	R1264P
1485.348	1.616	1490292	WORD	n/a	wordpools/wordpool_categorized_EN.txt	RECLINER	Furniture	10	11	[0, 0, 0]	n/a	catFR1	0	R1264P
1486.964	0.767	1491908	WORD_OFF	n/a	n/a	RECLINER	n/a	10	11	[0, 0, 0]	n/a	catFR1	0	R1264P
1487.731	1.617	1492675	WORD	n/a	wordpools/wordpool_categorized_EN.txt	LOBSTER	OceanAnimals	11	11	[0, 0, 0]	n/a	catFR1	0	R1264P
1489.348	0.884	1494292	WORD_OFF	n/a	n/a	LOBSTER	n/a	11	11	[0, 0, 0]	n/a	catFR1	0	R1264P
1490.232	1.617	1495176	WORD	n/a	wordpools/wordpool_categorized_EN.txt	JELLYFISH	OceanAnimals	12	11	[0, 0, 0]	n/a	catFR1	0	R1264P
1491.849	0.0	1496793	WORD_OFF	n/a	n/a	JELLYFISH	n/a	12	11	[0, 0, 0]	n/a	catFR1	0	R1264P
1491.849	0.104	1496793	ENCODING_END	n/a	n/a	n/a	n/a	-999	11	[0, 0, 0]	n/a	catFR1	0	R1264P
1491.953	0.0	1496897	DISTRACT_START	n/a	n/a	n/a	n/a	-999	11	[0, 0, 0]	n/a	catFR1	0	R1264P
1491.953	0.012	1496897	START	n/a	n/a	n/a	n/a	-999	11	[-999, -999, -999]	n/a	catFR1	0	R1264P
1491.965	8.618	1496909	PROB	8.618	n/a	n/a	n/a	-999	11	[1, 1, 8]	10	catFR1	0	R1264P
1500.583	2.751	1505526	PROB	2.751	n/a	n/a	n/a	-999	11	[1, 9, 9]	19	catFR1	0	R1264P
1503.334	2.984	1508277	PROB	2.984	n/a	n/a	n/a	-999	11	[2, 9, 3]	14	catFR1	0	R1264P
1506.318	3.134	1511261	PROB	3.134	n/a	n/a	n/a	-999	11	[9, 6, 1]	16	catFR1	0	R1264P
1509.452	4.102	1514395	PROB	4.102	n/a	n/a	n/a	-999	11	[9, 2, 4]	15	catFR1	0	R1264P
1513.554	0.015	1518497	STOP	n/a	n/a	n/a	n/a	-999	11	[-999, -999, -999]	n/a	catFR1	0	R1264P
1513.569	0.551	1518512	DISTRACT_END	n/a	n/a	n/a	n/a	-999	11	[0, 0, 0]	n/a	catFR1	0	R1264P
1514.12	0.516	1519063	RETRIEVAL_ORIENT	n/a	n/a	n/a	n/a	-999	11	[0, 0, 0]	n/a	catFR1	0	R1264P
1514.636	5.49	1519579	REC_START	n/a	n/a	n/a	n/a	-999	11	[0, 0, 0]	n/a	catFR1	0	R1264P
1520.126	1.556	1525068	REC_WORD	1.556	n/a	FORK	n/a	-999	11	[0, 0, 0]	n/a	catFR1	0	R1264P
1521.682	5.41	1526624	REC_WORD	5.41	n/a	PLATE	n/a	-999	11	[0, 0, 0]	n/a	catFR1	0	R1264P
1527.092	5.643	1532034	REC_WORD	5.643	n/a	CROWBAR	Tools	1	11	[0, 0, 0]	n/a	catFR1	0	R1264P
1532.735	11.912	1537677	REC_WORD	11.912	n/a	HAMMER	n/a	-999	11	[0, 0, 0]	n/a	catFR1	0	R1264P
1544.647	6.346	1549588	REC_END	n/a	n/a	n/a	n/a	-999	11	[0, 0, 0]	n/a	catFR1	0	R1264P
1550.993	0.5	1555934	TRIAL	n/a	n/a	n/a	n/a	-999	12	[0, 0, 0]	n/a	catFR1	0	R1264P
1551.493	10.428	1556434	COUNTDOWN_START	n/a	n/a	n/a	n/a	-999	12	[0, 0, 0]	n/a	catFR1	0	R1264P
1561.921	0.008	1566861	COUNTDOWN_END	n/a	n/a	n/a	n/a	-999	12	[0, 0, 0]	n/a	catFR1	0	R1264P
1561.929	1.617	1566869	ORIENT	n/a	n/a	n/a	n/a	-999	12	[0, 0, 0]	n/a	catFR1	0	R1264P
1563.546	2.4	1568486	ORIENT_OFF	n/a	n/a	n/a	n/a	-999	12	[0, 0, 0]	n/a	catFR1	0	R1264P
1565.946	1.616	1570886	WORD	n/a	wordpools/wordpool_categorized_EN.txt	FLY	Insects	1	12	[0, 0, 0]	n/a	catFR1	0	R1264P
1567.562	0.818	1572502	WORD_OFF	n/a	n/a	FLY	n/a	1	12	[0, 0, 0]	n/a	catFR1	0	R1264P
1568.38	1.617	1573320	WORD	n/a	wordpools/wordpool_categorized_EN.txt	ANT	Insects	2	12	[0, 0, 0]	n/a	catFR1	0	R1264P
1569.997	0.783	1574937	WORD_OFF	n/a	n/a	ANT	n/a	2	12	[0, 0, 0]	n/a	catFR1	0	R1264P
1570.78	1.617	1575720	WORD	n/a	wordpools/wordpool_categorized_EN.txt	LEMONADE	Beverages	3	12	[0, 0, 0]	n/a	catFR1	0	R1264P
1572.397	0.817	1577337	WORD_OFF	n/a	n/a	LEMONADE	n/a	3	12	[0, 0, 0]	n/a	catFR1	0	R1264P
1573.214	1.617	1578154	WORD	n/a	wordpools/wordpool_categorized_EN.txt	TEA	Beverages	4	12	[0, 0, 0]	n/a	catFR1	0	R1264P
1574.831	0.833	1579770	WORD_OFF	n/a	n/a	TEA	n/a	4	12	[0, 0, 0]	n/a	catFR1	0	R1264P
1575.664	1.618	1580603	WORD	n/a	wordpools/wordpool_categorized_EN.txt	WALL	Building	5	12	[0, 0, 0]	n/a	catFR1	0	R1264P
1577.282	0.966	1582221	WORD_OFF	n/a	n/a	WALL	n/a	5	12	[0, 0, 0]	n/a	catFR1	0	R1264P
1578.248	1.617	1583187	WORD	n/a	wordpools/wordpool_categorized_EN.txt	FOUNDATION	Building	6	12	[0, 0, 0]	n/a	catFR1	0	R1264P
1579.865	0.783	1584804	WORD_OFF	n/a	n/a	FOUNDATION	n/a	6	12	[0, 0, 0]	n/a	catFR1	0	R1264P
1580.648	1.618	1585587	WORD	n/a	wordpools/wordpool_categorized_EN.txt	WATER	Beverages	7	12	[0, 0, 0]	n/a	catFR1	0	R1264P
1582.266	0.85	1587205	WORD_OFF	n/a	n/a	WATER	n/a	7	12	[0, 0, 0]	n/a	catFR1	0	R1264P
1583.116	1.617	1588055	WORD	n/a	wordpools/wordpool_categorized_EN.txt	BEER	Beverages	8	12	[0, 0, 0]	n/a	catFR1	0	R1264P
1584.733	0.817	1589672	WORD_OFF	n/a	n/a	BEER	n/a	8	12	[0, 0, 0]	n/a	catFR1	0	R1264P
1585.55	1.617	1590489	WORD	n/a	wordpools/wordpool_categorized_EN.txt	LADYBUG	Insects	9	12	[0, 0, 0]	n/a	catFR1	0	R1264P
1587.167	0.883	1592106	WORD_OFF	n/a	n/a	LADYBUG	n/a	9	12	[0, 0, 0]	n/a	catFR1	0	R1264P
1588.05	1.616	1592989	WORD	n/a	wordpools/wordpool_categorized_EN.txt	BEE	Insects	10	12	[0, 0, 0]	n/a	catFR1	0	R1264P
1589.666	1.0	1594605	WORD_OFF	n/a	n/a	BEE	n/a	10	12	[0, 0, 0]	n/a	catFR1	0	R1264P
1590.666	1.618	1595605	WORD	n/a	wordpools/wordpool_categorized_EN.txt	BATHROOM	Building	11	12	[0, 0, 0]	n/a	catFR1	0	R1264P
1592.284	0.884	1597223	WORD_OFF	n/a	n/a	BATHROOM	n/a	11	12	[0, 0, 0]	n/a	catFR1	0	R1264P
1593.168	1.617	1598107	WORD	n/a	wordpools/wordpool_categorized_EN.txt	CEILING	Building	12	12	[0, 0, 0]	n/a	catFR1	0	R1264P
1594.785	0.0	1599723	WORD_OFF	n/a	n/a	CEILING	n/a	12	12	[0, 0, 0]	n/a	catFR1	0	R1264P
1594.785	0.137	1599723	ENCODING_END	n/a	n/a	n/a	n/a	-999	12	[0, 0, 0]	n/a	catFR1	0	R1264P
1594.922	0.001	1599860	DISTRACT_START	n/a	n/a	n/a	n/a	-999	12	[0, 0, 0]	n/a	catFR1	0	R1264P
1594.923	0.012	1599861	START	n/a	n/a	n/a	n/a	-999	12	[-999, -999, -999]	n/a	catFR1	0	R1264P
1594.935	5.234	1599873	PROB	5.234	n/a	n/a	n/a	-999	12	[2, 3, 9]	14	catFR1	0	R1264P
1600.169	3.017	1605107	PROB	3.017	n/a	n/a	n/a	-999	12	[1, 5, 7]	1	catFR1	0	R1264P
1603.186	4.551	1608124	PROB	4.551	n/a	n/a	n/a	-999	12	[8, 8, 5]	21	catFR1	0	R1264P
1607.737	2.967	1612675	PROB	2.967	n/a	n/a	n/a	-999	12	[3, 1, 1]	5	catFR1	0	R1264P
1610.704	2.368	1615642	PROB	2.368	n/a	n/a	n/a	-999	12	[2, 1, 1]	4	catFR1	0	R1264P
1613.072	3.747	1618010	PROB	3.747	n/a	n/a	n/a	-999	12	[5, 3, 6]	14	catFR1	0	R1264P
1616.819	0.02	1621756	STOP	n/a	n/a	n/a	n/a	-999	12	[-999, -999, -999]	n/a	catFR1	0	R1264P
1616.839	0.55	1621776	DISTRACT_END	n/a	n/a	n/a	n/a	-999	12	[0, 0, 0]	n/a	catFR1	0	R1264P
1617.389	0.518	1622326	RETRIEVAL_ORIENT	n/a	n/a	n/a	n/a	-999	12	[0, 0, 0]	n/a	catFR1	0	R1264P
1617.907	3.166	1622844	REC_START	n/a	n/a	n/a	n/a	-999	12	[0, 0, 0]	n/a	catFR1	0	R1264P
1621.073	1.4	1626010	REC_WORD	1.4	n/a	BATHROOM	Building	11	12	[0, 0, 0]	n/a	catFR1	0	R1264P
1622.473	2.513	1627410	REC_WORD	2.513	n/a	CEILING	Building	12	12	[0, 0, 0]	n/a	catFR1	0	R1264P
1624.986	2.707	1629923	REC_WORD	2.707	n/a	ANT	Insects	2	12	[0, 0, 0]	n/a	catFR1	0	R1264P
1627.693	8.349	1632630	REC_WORD	8.349	n/a	FLY	Insects	1	12	[0, 0, 0]	n/a	catFR1	0	R1264P
1636.042	1.523	1640978	REC_WORD	1.523	n/a	TEA	Beverages	4	12	[0, 0, 0]	n/a	catFR1	0	R1264P
1637.565	7.492	1642501	REC_WORD	7.492	n/a	LEMONADE	Beverages	3	12	[0, 0, 0]	n/a	catFR1	0	R1264P
1645.057	1.02	1649993	REC_WORD	1.02	n/a	DOOR	n/a	-999	12	[0, 0, 0]	n/a	catFR1	0	R1264P
1646.077	1.09	1651013	REC_WORD_VV	1.09	n/a	<>	n/a	-999	12	[0, 0, 0]	n/a	catFR1	0	R1264P
1647.167	0.753	1652103	REC_WORD	0.753	n/a	FLYING	n/a	-999	12	[0, 0, 0]	n/a	catFR1	0	R1264P
1647.92	6.609	1652856	REC_END	n/a	n/a	n/a	n/a	-999	12	[0, 0, 0]	n/a	catFR1	0	R1264P
1654.529	0.5	1659464	TRIAL	n/a	n/a	n/a	n/a	-999	13	[0, 0, 0]	n/a	catFR1	0	R1264P
1655.029	10.428	1659964	COUNTDOWN_START	n/a	n/a	n/a	n/a	-999	13	[0, 0, 0]	n/a	catFR1	0	R1264P
1665.457	0.008	1670392	COUNTDOWN_END	n/a	n/a	n/a	n/a	-999	13	[0, 0, 0]	n/a	catFR1	0	R1264P
1665.465	1.617	1670400	ORIENT	n/a	n/a	n/a	n/a	-999	13	[0, 0, 0]	n/a	catFR1	0	R1264P
1667.082	2.2	1672017	ORIENT_OFF	n/a	n/a	n/a	n/a	-999	13	[0, 0, 0]	n/a	catFR1	0	R1264P
1669.282	1.617	1674217	WORD	n/a	wordpools/wordpool_categorized_EN.txt	LETTUCE	Vegetables	1	13	[0, 0, 0]	n/a	catFR1	0	R1264P
1670.899	0.867	1675834	WORD_OFF	n/a	n/a	LETTUCE	n/a	1	13	[0, 0, 0]	n/a	catFR1	0	R1264P
1671.766	1.617	1676700	WORD	n/a	wordpools/wordpool_categorized_EN.txt	CORN	Vegetables	2	13	[0, 0, 0]	n/a	catFR1	0	R1264P
1673.383	1.0	1678317	WORD_OFF	n/a	n/a	CORN	n/a	2	13	[0, 0, 0]	n/a	catFR1	0	R1264P
1674.383	1.617	1679317	WORD	n/a	wordpools/wordpool_categorized_EN.txt	FINCH	Birds	3	13	[0, 0, 0]	n/a	catFR1	0	R1264P
1676.0	0.917	1680934	WORD_OFF	n/a	n/a	FINCH	n/a	3	13	[0, 0, 0]	n/a	catFR1	0	R1264P
1676.917	1.617	1681851	WORD	n/a	wordpools/wordpool_categorized_EN.txt	DUCK	Birds	4	13	[0, 0, 0]	n/a	catFR1	0	R1264P
1678.534	0.833	1683468	WORD_OFF	n/a	n/a	DUCK	n/a	4	13	[0, 0, 0]	n/a	catFR1	0	R1264P
1679.367	1.617	1684301	WORD	n/a	wordpools/wordpool_categorized_EN.txt	RAIN	Weather	5	13	[0, 0, 0]	n/a	catFR1	0	R1264P
1680.984	0.917	1685918	WORD_OFF	n/a	n/a	RAIN	n/a	5	13	[0, 0, 0]	n/a	catFR1	0	R1264P
1681.901	1.617	1686835	WORD	n/a	wordpools/wordpool_categorized_EN.txt	SNOW	Weather	6	13	[0, 0, 0]	n/a	catFR1	0	R1264P
1683.518	0.767	1688452	WORD_OFF	n/a	n/a	SNOW	n/a	6	13	[0, 0, 0]	n/a	catFR1	0	R1264P
1684.285	1.617	1689219	WORD	n/a	wordpools/wordpool_categorized_EN.txt	CUCUMBER	Vegetables	7	13	[0, 0, 0]	n/a	catFR1	0	R1264P
1685.902	0.934	1690836	WORD_OFF	n/a	n/a	CUCUMBER	n/a	7	13	[0, 0, 0]	n/a	catFR1	0	R1264P
1686.836	1.616	1691770	WORD	n/a	wordpools/wordpool_categorized_EN.txt	CAULIFLOWER	Vegetables	8	13	[0, 0, 0]	n/a	catFR1	0	R1264P
1688.452	0.884	1693386	WORD_OFF	n/a	n/a	CAULIFLOWER	n/a	8	13	[0, 0, 0]	n/a	catFR1	0	R1264P
1689.336	1.617	1694270	WORD	n/a	wordpools/wordpool_categorized_EN.txt	SEAGULL	Birds	9	13	[0, 0, 0]	n/a	catFR1	0	R1264P
1690.953	0.933	1695886	WORD_OFF	n/a	n/a	SEAGULL	n/a	9	13	[0, 0, 0]	n/a	catFR1	0	R1264P
1691.886	1.617	1696819	WORD	n/a	wordpools/wordpool_categorized_EN.txt	SPARROW	Birds	10	13	[0, 0, 0]	n/a	catFR1	0	R1264P
1693.503	0.867	1698436	WORD_OFF	n/a	n/a	SPARROW	n/a	10	13	[0, 0, 0]	n/a	catFR1	0	R1264P
1694.37	1.617	1699303	WORD	n/a	wordpools/wordpool_categorized_EN.txt	HURRICANE	Weather	11	13	[0, 0, 0]	n/a	catFR1	0	R1264P
1695.987	0.85	1700920	WORD_OFF	n/a	n/a	HURRICANE	n/a	11	13	[0, 0, 0]	n/a	catFR1	0	R1264P
1696.837	1.617	1701770	WORD	n/a	wordpools/wordpool_categorized_EN.txt	FOG	Weather	12	13	[0, 0, 0]	n/a	catFR1	0	R1264P
1698.454	0.001	1703387	WORD_OFF	n/a	n/a	FOG	n/a	12	13	[0, 0, 0]	n/a	catFR1	0	R1264P
1698.455	0.099	1703388	ENCODING_END	n/a	n/a	n/a	n/a	-999	13	[0, 0, 0]	n/a	catFR1	0	R1264P
1698.554	0.0	1703487	DISTRACT_START	n/a	n/a	n/a	n/a	-999	13	[0, 0, 0]	n/a	catFR1	0	R1264P
1698.554	0.016	1703487	START	n/a	n/a	n/a	n/a	-999	13	[-999, -999, -999]	n/a	catFR1	0	R1264P
1698.57	4.702	1703503	PROB	4.702	n/a	n/a	n/a	-999	13	[5, 8, 4]	17	catFR1	0	R1264P
1703.272	3.867	1708205	PROB	3.867	n/a	n/a	n/a	-999	13	[8, 4, 5]	17	catFR1	0	R1264P
1707.139	4.018	1712072	PROB	4.018	n/a	n/a	n/a	-999	13	[5, 3, 8]	16	catFR1	0	R1264P
1711.157	2.55	1716089	PROB	2.55	n/a	n/a	n/a	-999	13	[3, 3, 2]	8	catFR1	0	R1264P
1713.707	4.351	1718639	PROB	4.351	n/a	n/a	n/a	-999	13	[4, 5, 1]	19	catFR1	0	R1264P
1718.058	2.857	1722990	PROB	2.857	n/a	n/a	n/a	-999	13	[9, 1, 1]	11	catFR1	0	R1264P
1720.915	0.01	1725847	STOP	n/a	n/a	n/a	n/a	-999	13	[-999, -999, -999]	n/a	catFR1	0	R1264P
1720.925	0.567	1725857	DISTRACT_END	n/a	n/a	n/a	n/a	-999	13	[0, 0, 0]	n/a	catFR1	0	R1264P
1721.492	0.518	1726424	RETRIEVAL_ORIENT	n/a	n/a	n/a	n/a	-999	13	[0, 0, 0]	n/a	catFR1	0	R1264P
1722.01	2.751	1726942	REC_START	n/a	n/a	n/a	n/a	-999	13	[0, 0, 0]	n/a	catFR1	0	R1264P
1724.761	1.721	1729693	REC_WORD	1.721	n/a	WINDOW	n/a	-999	13	[0, 0, 0]	n/a	catFR1	0	R1264P
1726.482	2.02	1731414	REC_WORD	2.02	n/a	FINE	n/a	-999	13	[0, 0, 0]	n/a	catFR1	0	R1264P
1728.502	1.922	1733434	REC_WORD	1.922	n/a	CUCUMBER	Vegetables	7	13	[0, 0, 0]	n/a	catFR1	0	R1264P
1730.424	1.758	1735355	REC_WORD	1.758	n/a	LETTUCE	Vegetables	1	13	[0, 0, 0]	n/a	catFR1	0	R1264P
1732.182	7.984	1737113	REC_WORD	7.984	n/a	CAULIFLOWER	Vegetables	8	13	[0, 0, 0]	n/a	catFR1	0	R1264P
1740.166	9.76	1745097	REC_WORD	9.76	n/a	ONION	n/a	-999	13	[0, 0, 0]	n/a	catFR1	0	R1264P
1749.926	2.095	1754856	REC_WORD	2.095	n/a	FIGHTING	n/a	-999	13	[0, 0, 0]	n/a	catFR1	0	R1264P
1752.021	6.61	1756951	REC_END	n/a	n/a	n/a	n/a	-999	13	[0, 0, 0]	n/a	catFR1	0	R1264P
1758.631	0.5	1763561	TRIAL	n/a	n/a	n/a	n/a	-999	14	[0, 0, 0]	n/a	catFR1	0	R1264P
1759.131	10.428	1764061	COUNTDOWN_START	n/a	n/a	n/a	n/a	-999	14	[0, 0, 0]	n/a	catFR1	0	R1264P
1769.559	0.008	1774488	COUNTDOWN_END	n/a	n/a	n/a	n/a	-999	14	[0, 0, 0]	n/a	catFR1	0	R1264P
1769.567	1.601	1774496	ORIENT	n/a	n/a	n/a	n/a	-999	14	[0, 0, 0]	n/a	catFR1	0	R1264P
1771.168	1.967	1776097	ORIENT_OFF	n/a	n/a	n/a	n/a	-999	14	[0, 0, 0]	n/a	catFR1	0	R1264P
1773.135	1.617	1778064	WORD	n/a	wordpools/wordpool_categorized_EN.txt	SHEEP	FarmAnimals	1	14	[0, 0, 0]	n/a	catFR1	0	R1264P
1774.752	0.916	1779681	WORD_OFF	n/a	n/a	SHEEP	n/a	1	14	[0, 0, 0]	n/a	catFR1	0	R1264P
1775.668	1.618	1780597	WORD	n/a	wordpools/wordpool_categorized_EN.txt	HEN	FarmAnimals	2	14	[0, 0, 0]	n/a	catFR1	0	R1264P
1777.286	0.817	1782215	WORD_OFF	n/a	n/a	HEN	n/a	2	14	[0, 0, 0]	n/a	catFR1	0	R1264P
1778.103	1.617	1783032	WORD	n/a	wordpools/wordpool_categorized_EN.txt	CARROT	Vegetables	3	14	[0, 0, 0]	n/a	catFR1	0	R1264P
1779.72	0.849	1784649	WORD_OFF	n/a	n/a	CARROT	n/a	3	14	[0, 0, 0]	n/a	catFR1	0	R1264P
1780.569	1.618	1785498	WORD	n/a	wordpools/wordpool_categorized_EN.txt	CELERY	Vegetables	4	14	[0, 0, 0]	n/a	catFR1	0	R1264P
1782.187	0.783	1787116	WORD_OFF	n/a	n/a	CELERY	n/a	4	14	[0, 0, 0]	n/a	catFR1	0	R1264P
1782.97	1.616	1787899	WORD	n/a	wordpools/wordpool_categorized_EN.txt	REFRIGERATOR	Appliances	5	14	[0, 0, 0]	n/a	catFR1	0	R1264P
1784.586	0.768	1789515	WORD_OFF	n/a	n/a	REFRIGERATOR	n/a	5	14	[0, 0, 0]	n/a	catFR1	0	R1264P
1785.354	1.617	1790283	WORD	n/a	wordpools/wordpool_categorized_EN.txt	WASHER	Appliances	6	14	[0, 0, 0]	n/a	catFR1	0	R1264P
1786.971	0.867	1791900	WORD_OFF	n/a	n/a	WASHER	n/a	6	14	[0, 0, 0]	n/a	catFR1	0	R1264P
1787.838	1.617	1792766	WORD	n/a	wordpools/wordpool_categorized_EN.txt	HORSE	FarmAnimals	7	14	[0, 0, 0]	n/a	catFR1	0	R1264P
1789.455	0.833	1794383	WORD_OFF	n/a	n/a	HORSE	n/a	7	14	[0, 0, 0]	n/a	catFR1	0	R1264P
1790.288	1.617	1795216	WORD	n/a	wordpools/wordpool_categorized_EN.txt	CALF	FarmAnimals	8	14	[0, 0, 0]	n/a	catFR1	0	R1264P
1791.905	1.001	1796833	WORD_OFF	n/a	n/a	CALF	n/a	8	14	[0, 0, 0]	n/a	catFR1	0	R1264P
1792.906	1.617	1797834	WORD	n/a	wordpools/wordpool_categorized_EN.txt	CABBAGE	Vegetables	9	14	[0, 0, 0]	n/a	catFR1	0	R1264P
1794.523	0.783	1799451	WORD_OFF	n/a	n/a	CABBAGE	n/a	9	14	[0, 0, 0]	n/a	catFR1	0	R1264P
1795.306	1.617	1800234	WORD	n/a	wordpools/wordpool_categorized_EN.txt	POTATO	Vegetables	10	14	[0, 0, 0]	n/a	catFR1	0	R1264P
1796.923	0.85	1801851	WORD_OFF	n/a	n/a	POTATO	n/a	10	14	[0, 0, 0]	n/a	catFR1	0	R1264P
1797.773	1.617	1802701	WORD	n/a	wordpools/wordpool_categorized_EN.txt	IRON	Appliances	11	14	[0, 0, 0]	n/a	catFR1	0	R1264P
1799.39	0.967	1804318	WORD_OFF	n/a	n/a	IRON	n/a	11	14	[0, 0, 0]	n/a	catFR1	0	R1264P
1800.357	1.617	1805285	WORD	n/a	wordpools/wordpool_categorized_EN.txt	FREEZER	Appliances	12	14	[0, 0, 0]	n/a	catFR1	0	R1264P
1801.974	0.0	1806902	ENCODING_END	n/a	n/a	n/a	n/a	-999	14	[0, 0, 0]	n/a	catFR1	0	R1264P
1801.974	0.102	1806902	WORD_OFF	n/a	n/a	FREEZER	n/a	12	14	[0, 0, 0]	n/a	catFR1	0	R1264P
1802.076	0.0	1807004	DISTRACT_START	n/a	n/a	n/a	n/a	-999	14	[0, 0, 0]	n/a	catFR1	0	R1264P
1802.076	0.015	1807004	START	n/a	n/a	n/a	n/a	-999	14	[-999, -999, -999]	n/a	catFR1	0	R1264P
1802.091	7.533	1807019	PROB	7.533	n/a	n/a	n/a	-999	14	[4, 1, 9]	14	catFR1	0	R1264P
1809.624	4.219	1814551	PROB	4.219	n/a	n/a	n/a	-999	14	[7, 8, 9]	24	catFR1	0	R1264P
1813.843	5.234	1818770	PROB	5.234	n/a	n/a	n/a	-999	14	[3, 7, 9]	19	catFR1	0	R1264P
1819.077	2.984	1824004	PROB	2.984	n/a	n/a	n/a	-999	14	[2, 2, 3]	7	catFR1	0	R1264P
1822.061	3.524	1826988	PROB	3.524	n/a	n/a	n/a	-999	14	[7, 4, 7]	18	catFR1	0	R1264P
1825.585	0.01	1830512	STOP	n/a	n/a	n/a	n/a	-999	14	[-999, -999, -999]	n/a	catFR1	0	R1264P
1825.595	0.6	1830522	DISTRACT_END	n/a	n/a	n/a	n/a	-999	14	[0, 0, 0]	n/a	catFR1	0	R1264P
1826.195	0.518	1831121	RETRIEVAL_ORIENT	n/a	n/a	n/a	n/a	-999	14	[0, 0, 0]	n/a	catFR1	0	R1264P
1826.713	1.779	1831639	REC_START	n/a	n/a	n/a	n/a	-999	14	[0, 0, 0]	n/a	catFR1	0	R1264P
1828.492	28.221	1833418	REC_WORD_VV	28.221	n/a	<>	n/a	-999	14	[0, 0, 0]	n/a	catFR1	0	R1264P
1856.713	0.013	1861638	REC_WORD_VV	0.013	n/a	<>	n/a	-999	14	[0, 0, 0]	n/a	catFR1	0	R1264P
1856.726	8.193	1861651	REC_END	n/a	n/a	n/a	n/a	-999	14	[0, 0, 0]	n/a	catFR1	0	R1264P
1864.919	0.5	1869843	TRIAL	n/a	n/a	n/a	n/a	-999	15	[0, 0, 0]	n/a	catFR1	0	R1264P
1865.419	10.428	1870343	COUNTDOWN_START	n/a	n/a	n/a	n/a	-999	15	[0, 0, 0]	n/a	catFR1	0	R1264P
1875.847	0.008	1880771	COUNTDOWN_END	n/a	n/a	n/a	n/a	-999	15	[0, 0, 0]	n/a	catFR1	0	R1264P
1875.855	1.617	1880779	ORIENT	n/a	n/a	n/a	n/a	-999	15	[0, 0, 0]	n/a	catFR1	0	R1264P
1877.472	2.132	1882396	ORIENT_OFF	n/a	n/a	n/a	n/a	-999	15	[0, 0, 0]	n/a	catFR1	0	R1264P
1879.604	1.618	1884528	WORD	n/a	wordpools/wordpool_categorized_EN.txt	SPEAKER	Electronics	1	15	[0, 0, 0]	n/a	catFR1	0	R1264P
1881.222	0.95	1886146	WORD_OFF	n/a	n/a	SPEAKER	n/a	1	15	[0, 0, 0]	n/a	catFR1	0	R1264P
1882.172	1.617	1887096	WORD	n/a	wordpools/wordpool_categorized_EN.txt	RADIO	Electronics	2	15	[0, 0, 0]	n/a	catFR1	0	R1264P
1883.789	0.833	1888712	WORD_OFF	n/a	n/a	RADIO	n/a	2	15	[0, 0, 0]	n/a	catFR1	0	R1264P
1884.622	1.618	1889545	WORD	n/a	wordpools/wordpool_categorized_EN.txt	CRICKET	Insects	3	15	[0, 0, 0]	n/a	catFR1	0	R1264P
1886.24	0.85	1891163	WORD_OFF	n/a	n/a	CRICKET	n/a	3	15	[0, 0, 0]	n/a	catFR1	0	R1264P
1887.09	1.617	1892013	WORD	n/a	wordpools/wordpool_categorized_EN.txt	SPIDER	Insects	4	15	[0, 0, 0]	n/a	catFR1	0	R1264P
1888.707	0.966	1893630	WORD_OFF	n/a	n/a	SPIDER	n/a	4	15	[0, 0, 0]	n/a	catFR1	0	R1264P
1889.673	1.618	1894596	WORD	n/a	wordpools/wordpool_categorized_EN.txt	KNIFE	KitchenTools	5	15	[0, 0, 0]	n/a	catFR1	0	R1264P
1891.291	0.817	1896214	WORD_OFF	n/a	n/a	KNIFE	n/a	5	15	[0, 0, 0]	n/a	catFR1	0	R1264P
1892.108	1.617	1897031	WORD	n/a	wordpools/wordpool_categorized_EN.txt	CORKSCREW	KitchenTools	6	15	[0, 0, 0]	n/a	catFR1	0	R1264P
1893.725	0.965	1898648	WORD_OFF	n/a	n/a	CORKSCREW	n/a	6	15	[0, 0, 0]	n/a	catFR1	0	R1264P
1894.69	1.618	1899613	WORD	n/a	wordpools/wordpool_categorized_EN.txt	TABLET	Electronics	7	15	[0, 0, 0]	n/a	catFR1	0	R1264P
1896.308	0.817	1901231	WORD_OFF	n/a	n/a	TABLET	n/a	7	15	[0, 0, 0]	n/a	catFR1	0	R1264P
1897.125	1.617	1902048	WORD	n/a	wordpools/wordpool_categorized_EN.txt	PRINTER	Electronics	8	15	[0, 0, 0]	n/a	catFR1	0	R1264P
1898.742	0.767	1903665	WORD_OFF	n/a	n/a	PRINTER	n/a	8	15	[0, 0, 0]	n/a	catFR1	0	R1264P
1899.509	1.617	1904432	WORD	n/a	wordpools/wordpool_categorized_EN.txt	GNAT	Insects	9	15	[0, 0, 0]	n/a	catFR1	0	R1264P
1901.126	0.95	1906049	WORD_OFF	n/a	n/a	GNAT	n/a	9	15	[0, 0, 0]	n/a	catFR1	0	R1264P
1902.076	1.616	1906999	WORD	n/a	wordpools/wordpool_categorized_EN.txt	MOTH	Insects	10	15	[0, 0, 0]	n/a	catFR1	0	R1264P
1903.692	0.867	1908614	WORD_OFF	n/a	n/a	MOTH	n/a	10	15	[0, 0, 0]	n/a	catFR1	0	R1264P
1904.559	1.618	1909481	WORD	n/a	wordpools/wordpool_categorized_EN.txt	LADLE	KitchenTools	11	15	[0, 0, 0]	n/a	catFR1	0	R1264P
1906.177	0.983	1911099	WORD_OFF	n/a	n/a	LADLE	n/a	11	15	[0, 0, 0]	n/a	catFR1	0	R1264P
1907.16	1.617	1912082	WORD	n/a	wordpools/wordpool_categorized_EN.txt	COLANDER	KitchenTools	12	15	[0, 0, 0]	n/a	catFR1	0	R1264P
1908.777	0.001	1913699	WORD_OFF	n/a	n/a	COLANDER	n/a	12	15	[0, 0, 0]	n/a	catFR1	0	R1264P
1908.778	0.134	1913700	ENCODING_END	n/a	n/a	n/a	n/a	-999	15	[0, 0, 0]	n/a	catFR1	0	R1264P
1908.912	0.0	1913834	DISTRACT_START	n/a	n/a	n/a	n/a	-999	15	[0, 0, 0]	n/a	catFR1	0	R1264P
1908.912	0.015	1913834	START	n/a	n/a	n/a	n/a	-999	15	[-999, -999, -999]	n/a	catFR1	0	R1264P
1908.927	6.385	1913849	PROB	6.385	n/a	n/a	n/a	-999	15	[7, 2, 9]	18	catFR1	0	R1264P
1915.312	3.851	1920234	PROB	3.851	n/a	n/a	n/a	-999	15	[2, 8, 8]	18	catFR1	0	R1264P
1919.163	3.533	1924085	PROB	3.533	n/a	n/a	n/a	-999	15	[6, 2, 8]	16	catFR1	0	R1264P
1922.696	4.702	1927617	PROB	4.702	n/a	n/a	n/a	-999	15	[8, 5, 4]	17	catFR1	0	R1264P
1927.398	4.062	1932319	PROB	4.062	n/a	n/a	n/a	-999	15	[3, 4, 1]	8	catFR1	0	R1264P
1931.46	0.022	1936381	STOP	n/a	n/a	n/a	n/a	-999	15	[-999, -999, -999]	n/a	catFR1	0	R1264P
1931.482	0.533	1936403	DISTRACT_END	n/a	n/a	n/a	n/a	-999	15	[0, 0, 0]	n/a	catFR1	0	R1264P
1932.015	0.517	1936936	RETRIEVAL_ORIENT	n/a	n/a	n/a	n/a	-999	15	[0, 0, 0]	n/a	catFR1	0	R1264P
1932.532	3.771	1937453	REC_START	n/a	n/a	n/a	n/a	-999	15	[0, 0, 0]	n/a	catFR1	0	R1264P
1936.303	11.857	1941224	REC_WORD	11.857	n/a	KNIFE	KitchenTools	5	15	[0, 0, 0]	n/a	catFR1	0	R1264P
1948.16	5.051	1953080	REC_WORD_VV	5.051	n/a	<>	n/a	-999	15	[0, 0, 0]	n/a	catFR1	0	R1264P
1953.211	9.031	1958131	REC_WORD	9.031	n/a	NEVER	n/a	-999	15	[0, 0, 0]	n/a	catFR1	0	R1264P
1962.242	0.303	1967161	REC_WORD_VV	0.303	n/a	<>	n/a	-999	15	[0, 0, 0]	n/a	catFR1	0	R1264P
1962.545	46.084	1967464	REC_END	n/a	n/a	n/a	n/a	-999	15	[0, 0, 0]	n/a	catFR1	0	R1264P
2008.629	0.5	2013546	TRIAL	n/a	n/a	n/a	n/a	-999	16	[0, 0, 0]	n/a	catFR1	0	R1264P
2009.129	10.428	2014046	COUNTDOWN_START	n/a	n/a	n/a	n/a	-999	16	[0, 0, 0]	n/a	catFR1	0	R1264P
2019.557	0.007	2024473	COUNTDOWN_END	n/a	n/a	n/a	n/a	-999	16	[0, 0, 0]	n/a	catFR1	0	R1264P
2019.564	1.618	2024480	ORIENT	n/a	n/a	n/a	n/a	-999	16	[0, 0, 0]	n/a	catFR1	0	R1264P
2021.182	2.35	2026098	ORIENT_OFF	n/a	n/a	n/a	n/a	-999	16	[0, 0, 0]	n/a	catFR1	0	R1264P
2023.532	1.617	2028448	WORD	n/a	wordpools/wordpool_categorized_EN.txt	PLUM	Fruit	1	16	[0, 0, 0]	n/a	catFR1	0	R1264P
2025.149	0.984	2030065	WORD_OFF	n/a	n/a	PLUM	n/a	1	16	[0, 0, 0]	n/a	catFR1	0	R1264P
2026.133	1.617	2031049	WORD	n/a	wordpools/wordpool_categorized_EN.txt	PEAR	Fruit	2	16	[0, 0, 0]	n/a	catFR1	0	R1264P
2027.75	0.983	2032666	WORD_OFF	n/a	n/a	PEAR	n/a	2	16	[0, 0, 0]	n/a	catFR1	0	R1264P
2028.733	1.617	2033649	WORD	n/a	wordpools/wordpool_categorized_EN.txt	ELM	Trees	3	16	[0, 0, 0]	n/a	catFR1	0	R1264P
2030.35	0.884	2035266	WORD_OFF	n/a	n/a	ELM	n/a	3	16	[0, 0, 0]	n/a	catFR1	0	R1264P
2031.234	1.617	2036150	WORD	n/a	wordpools/wordpool_categorized_EN.txt	CYPRESS	Trees	4	16	[0, 0, 0]	n/a	catFR1	0	R1264P
2032.851	1.0	2037767	WORD_OFF	n/a	n/a	CYPRESS	n/a	4	16	[0, 0, 0]	n/a	catFR1	0	R1264P
2033.851	1.617	2038767	WORD	n/a	wordpools/wordpool_categorized_EN.txt	PLIERS	Tools	5	16	[0, 0, 0]	n/a	catFR1	0	R1264P
2035.468	0.833	2040384	WORD_OFF	n/a	n/a	PLIERS	n/a	5	16	[0, 0, 0]	n/a	catFR1	0	R1264P
2036.301	1.617	2041217	WORD	n/a	wordpools/wordpool_categorized_EN.txt	DRILL	Tools	6	16	[0, 0, 0]	n/a	catFR1	0	R1264P
2037.918	0.884	2042834	WORD_OFF	n/a	n/a	DRILL	n/a	6	16	[0, 0, 0]	n/a	catFR1	0	R1264P
2038.802	1.617	2043717	WORD	n/a	wordpools/wordpool_categorized_EN.txt	BLUEBERRY	Fruit	7	16	[0, 0, 0]	n/a	catFR1	0	R1264P
2040.419	0.833	2045334	WORD_OFF	n/a	n/a	BLUEBERRY	n/a	7	16	[0, 0, 0]	n/a	catFR1	0	R1264P
2041.252	1.617	2046167	WORD	n/a	wordpools/wordpool_categorized_EN.txt	GRAPE	Fruit	8	16	[0, 0, 0]	n/a	catFR1	0	R1264P
2042.869	0.951	2047784	WORD_OFF	n/a	n/a	GRAPE	n/a	8	16	[0, 0, 0]	n/a	catFR1	0	R1264P
2043.82	1.616	2048735	WORD	n/a	wordpools/wordpool_categorized_EN.txt	SPRUCE	Trees	9	16	[0, 0, 0]	n/a	catFR1	0	R1264P
2045.436	0.867	2050351	WORD_OFF	n/a	n/a	SPRUCE	n/a	9	16	[0, 0, 0]	n/a	catFR1	0	R1264P
2046.303	1.617	2051218	WORD	n/a	wordpools/wordpool_categorized_EN.txt	HICKORY	Trees	10	16	[0, 0, 0]	n/a	catFR1	0	R1264P
2047.92	0.834	2052835	WORD_OFF	n/a	n/a	HICKORY	n/a	10	16	[0, 0, 0]	n/a	catFR1	0	R1264P
2048.754	1.617	2053669	WORD	n/a	wordpools/wordpool_categorized_EN.txt	HAMMER	Tools	11	16	[0, 0, 0]	n/a	catFR1	0	R1264P
2050.371	0.917	2055286	WORD_OFF	n/a	n/a	HAMMER	n/a	11	16	[0, 0, 0]	n/a	catFR1	0	R1264P
2051.288	1.617	2056203	WORD	n/a	wordpools/wordpool_categorized_EN.txt	SAW	Tools	12	16	[0, 0, 0]	n/a	catFR1	0	R1264P
2052.905	0.0	2057820	WORD_OFF	n/a	n/a	SAW	n/a	12	16	[0, 0, 0]	n/a	catFR1	0	R1264P
2052.905	0.101	2057820	ENCODING_END	n/a	n/a	n/a	n/a	-999	16	[0, 0, 0]	n/a	catFR1	0	R1264P
2053.006	0.0	2057921	DISTRACT_START	n/a	n/a	n/a	n/a	-999	16	[0, 0, 0]	n/a	catFR1	0	R1264P
2053.006	0.015	2057921	START	n/a	n/a	n/a	n/a	-999	16	[-999, -999, -999]	n/a	catFR1	0	R1264P
2053.021	5.6	2057936	PROB	5.6	n/a	n/a	n/a	-999	16	[6, 3, 1]	10	catFR1	0	R1264P
2058.621	3.018	2063535	PROB	3.018	n/a	n/a	n/a	-999	16	[7, 3, 7]	17	catFR1	0	R1264P
2061.639	2.983	2066553	PROB	2.983	n/a	n/a	n/a	-999	16	[5, 3, 9]	17	catFR1	0	R1264P
2064.622	4.086	2069536	PROB	4.086	n/a	n/a	n/a	-999	16	[4, 5, 3]	12	catFR1	0	R1264P
2068.708	2.217	2073622	PROB	2.217	n/a	n/a	n/a	-999	16	[1, 2, 8]	11	catFR1	0	R1264P
2070.925	4.126	2075839	PROB	4.126	n/a	n/a	n/a	-999	16	[3, 5, 8]	16	catFR1	0	R1264P
2075.051	0.008	2079965	STOP	n/a	n/a	n/a	n/a	-999	16	[-999, -999, -999]	n/a	catFR1	0	R1264P
2075.059	0.7	2079973	DISTRACT_END	n/a	n/a	n/a	n/a	-999	16	[0, 0, 0]	n/a	catFR1	0	R1264P
2075.759	0.517	2080673	RETRIEVAL_ORIENT	n/a	n/a	n/a	n/a	-999	16	[0, 0, 0]	n/a	catFR1	0	R1264P
2076.276	2.431	2081190	REC_START	n/a	n/a	n/a	n/a	-999	16	[0, 0, 0]	n/a	catFR1	0	R1264P
2078.707	1.363	2083620	REC_WORD	1.363	n/a	MAPLE	n/a	-999	16	[0, 0, 0]	n/a	catFR1	0	R1264P
2080.07	2.547	2084983	REC_WORD	2.547	n/a	LEAF	n/a	-999	16	[0, 0, 0]	n/a	catFR1	0	R1264P
2082.617	9.49	2087530	REC_WORD_VV	9.49	n/a	<>	n/a	-999	16	[0, 0, 0]	n/a	catFR1	0	R1264P
2092.107	1.297	2097020	REC_WORD	1.297	n/a	BOWLING	n/a	-999	16	[0, 0, 0]	n/a	catFR1	0	R1264P
2093.404	10.257	2098317	REC_WORD	10.257	n/a	FRAME	n/a	-999	16	[0, 0, 0]	n/a	catFR1	0	R1264P
2103.661	1.001	2108573	REC_WORD	1.001	n/a	PINE	n/a	-999	16	[0, 0, 0]	n/a	catFR1	0	R1264P
2104.662	1.627	2109574	REC_WORD	1.627	n/a	CYPRESS	Trees	4	16	[0, 0, 0]	n/a	catFR1	0	R1264P
2106.289	6.727	2111201	REC_END	n/a	n/a	n/a	n/a	-999	16	[0, 0, 0]	n/a	catFR1	0	R1264P
2113.016	0.5	2117928	TRIAL	n/a	n/a	n/a	n/a	-999	17	[0, 0, 0]	n/a	catFR1	0	R1264P
2113.516	10.428	2118428	COUNTDOWN_START	n/a	n/a	n/a	n/a	-999	17	[0, 0, 0]	n/a	catFR1	0	R1264P
2123.944	0.007	2128855	COUNTDOWN_END	n/a	n/a	n/a	n/a	-999	17	[0, 0, 0]	n/a	catFR1	0	R1264P
2123.951	1.616	2128862	ORIENT	n/a	n/a	n/a	n/a	-999	17	[0, 0, 0]	n/a	catFR1	0	R1264P
2125.567	2.202	2130478	ORIENT_OFF	n/a	n/a	n/a	n/a	-999	17	[0, 0, 0]	n/a	catFR1	0	R1264P
2127.769	1.617	2132680	WORD	n/a	wordpools/wordpool_categorized_EN.txt	BALL	Toys	1	17	[0, 0, 0]	n/a	catFR1	0	R1264P
2129.386	0.9	2134297	WORD_OFF	n/a	n/a	BALL	n/a	1	17	[0, 0, 0]	n/a	catFR1	0	R1264P
2130.286	1.617	2135197	WORD	n/a	wordpools/wordpool_categorized_EN.txt	DOLLHOUSE	Toys	2	17	[0, 0, 0]	n/a	catFR1	0	R1264P
2131.903	0.817	2136814	WORD_OFF	n/a	n/a	DOLLHOUSE	n/a	2	17	[0, 0, 0]	n/a	catFR1	0	R1264P
2132.72	1.617	2137631	WORD	n/a	wordpools/wordpool_categorized_EN.txt	FINGERS	BodyParts	3	17	[0, 0, 0]	n/a	catFR1	0	R1264P
2134.337	0.85	2139248	WORD_OFF	n/a	n/a	FINGERS	n/a	3	17	[0, 0, 0]	n/a	catFR1	0	R1264P
2135.187	1.617	2140097	WORD	n/a	wordpools/wordpool_categorized_EN.txt	HEAD	BodyParts	4	17	[0, 0, 0]	n/a	catFR1	0	R1264P
2136.804	0.782	2141714	WORD_OFF	n/a	n/a	HEAD	n/a	4	17	[0, 0, 0]	n/a	catFR1	0	R1264P
2137.586	1.618	2142496	WORD	n/a	wordpools/wordpool_categorized_EN.txt	ORANGUTAN	Zoo	5	17	[0, 0, 0]	n/a	catFR1	0	R1264P
2139.204	0.9	2144114	WORD_OFF	n/a	n/a	ORANGUTAN	n/a	5	17	[0, 0, 0]	n/a	catFR1	0	R1264P
2140.104	1.617	2145014	WORD	n/a	wordpools/wordpool_categorized_EN.txt	GIRAFFE	Zoo	6	17	[0, 0, 0]	n/a	catFR1	0	R1264P
2141.721	0.883	2146631	WORD_OFF	n/a	n/a	GIRAFFE	n/a	6	17	[0, 0, 0]	n/a	catFR1	0	R1264P
2142.604	1.618	2147514	WORD	n/a	wordpools/wordpool_categorized_EN.txt	PUZZLE	Toys	7	17	[0, 0, 0]	n/a	catFR1	0	R1264P
2144.222	0.9	2149132	WORD_OFF	n/a	n/a	PUZZLE	n/a	7	17	[0, 0, 0]	n/a	catFR1	0	R1264P
2145.122	1.617	2150032	WORD	n/a	wordpools/wordpool_categorized_EN.txt	DOLL	Toys	8	17	[0, 0, 0]	n/a	catFR1	0	R1264P
2146.739	0.783	2151649	WORD_OFF	n/a	n/a	DOLL	n/a	8	17	[0, 0, 0]	n/a	catFR1	0	R1264P
2147.522	1.617	2152432	WORD	n/a	wordpools/wordpool_categorized_EN.txt	ARM	BodyParts	9	17	[0, 0, 0]	n/a	catFR1	0	R1264P
2149.139	0.834	2154049	WORD_OFF	n/a	n/a	ARM	n/a	9	17	[0, 0, 0]	n/a	catFR1	0	R1264P
2149.973	1.616	2154883	WORD	n/a	wordpools/wordpool_categorized_EN.txt	FOOT	BodyParts	10	17	[0, 0, 0]	n/a	catFR1	0	R1264P
2151.589	0.934	2156499	WORD_OFF	n/a	n/a	FOOT	n/a	10	17	[0, 0, 0]	n/a	catFR1	0	R1264P
2152.523	1.617	2157433	WORD	n/a	wordpools/wordpool_categorized_EN.txt	PANDA	Zoo	11	17	[0, 0, 0]	n/a	catFR1	0	R1264P
2154.14	0.784	2159050	WORD_OFF	n/a	n/a	PANDA	n/a	11	17	[0, 0, 0]	n/a	catFR1	0	R1264P
2154.924	1.617	2159833	WORD	n/a	wordpools/wordpool_categorized_EN.txt	BEAR	Zoo	12	17	[0, 0, 0]	n/a	catFR1	0	R1264P
2156.541	0.0	2161450	WORD_OFF	n/a	n/a	BEAR	n/a	12	17	[0, 0, 0]	n/a	catFR1	0	R1264P
2156.541	0.107	2161450	ENCODING_END	n/a	n/a	n/a	n/a	-999	17	[0, 0, 0]	n/a	catFR1	0	R1264P
2156.648	0.0	2161557	DISTRACT_START	n/a	n/a	n/a	n/a	-999	17	[0, 0, 0]	n/a	catFR1	0	R1264P
2156.648	0.008	2161557	START	n/a	n/a	n/a	n/a	-999	17	[-999, -999, -999]	n/a	catFR1	0	R1264P
2156.656	4.968	2161565	PROB	4.968	n/a	n/a	n/a	-999	17	[6, 1, 1]	8	catFR1	0	R1264P
2161.624	4.552	2166533	PROB	4.552	n/a	n/a	n/a	-999	17	[4, 6, 5]	15	catFR1	0	R1264P
2166.176	2.634	2171085	PROB	2.634	n/a	n/a	n/a	-999	17	[4, 7, 3]	14	catFR1	0	R1264P
2168.81	3.75	2173719	PROB	3.75	n/a	n/a	n/a	-999	17	[5, 4, 7]	16	catFR1	0	R1264P
2172.56	3.017	2177469	PROB	3.017	n/a	n/a	n/a	-999	17	[4, 1, 4]	9	catFR1	0	R1264P
2175.577	3.602	2180485	PROB	3.602	n/a	n/a	n/a	-999	17	[4, 1, 9]	14	catFR1	0	R1264P
2179.179	0.016	2184087	STOP	n/a	n/a	n/a	n/a	-999	17	[-999, -999, -999]	n/a	catFR1	0	R1264P
2179.195	0.7	2184103	DISTRACT_END	n/a	n/a	n/a	n/a	-999	17	[0, 0, 0]	n/a	catFR1	0	R1264P
2179.895	0.518	2184803	RETRIEVAL_ORIENT	n/a	n/a	n/a	n/a	-999	17	[0, 0, 0]	n/a	catFR1	0	R1264P
2180.413	7.458	2185321	REC_START	n/a	n/a	n/a	n/a	-999	17	[0, 0, 0]	n/a	catFR1	0	R1264P
2187.871	4.69	2192779	REC_WORD	4.69	n/a	DOLLHOUSE	Toys	2	17	[0, 0, 0]	n/a	catFR1	0	R1264P
2192.561	4.428	2197469	REC_WORD	4.428	n/a	HAND	n/a	-999	17	[0, 0, 0]	n/a	catFR1	0	R1264P
2196.989	2.851	2201896	REC_WORD	2.851	n/a	ORANGUTAN	Zoo	5	17	[0, 0, 0]	n/a	catFR1	0	R1264P
2199.84	8.775	2204747	REC_WORD	8.775	n/a	GIRAFFE	Zoo	6	17	[0, 0, 0]	n/a	catFR1	0	R1264P
2208.615	1.81	2213522	REC_WORD	1.81	n/a	HAND	n/a	-999	17	[0, 0, 0]	n/a	catFR1	0	R1264P
2210.425	19.529	2215332	REC_END	n/a	n/a	n/a	n/a	-999	17	[0, 0, 0]	n/a	catFR1	0	R1264P
2229.954	0.5	2234860	TRIAL	n/a	n/a	n/a	n/a	-999	18	[0, 0, 0]	n/a	catFR1	0	R1264P
2230.454	10.428	2235360	COUNTDOWN_START	n/a	n/a	n/a	n/a	-999	18	[0, 0, 0]	n/a	catFR1	0	R1264P
2240.882	0.008	2245787	COUNTDOWN_END	n/a	n/a	n/a	n/a	-999	18	[0, 0, 0]	n/a	catFR1	0	R1264P
2240.89	1.617	2245795	ORIENT	n/a	n/a	n/a	n/a	-999	18	[0, 0, 0]	n/a	catFR1	0	R1264P
2242.507	2.017	2247412	ORIENT_OFF	n/a	n/a	n/a	n/a	-999	18	[0, 0, 0]	n/a	catFR1	0	R1264P
2244.524	1.617	2249429	WORD	n/a	wordpools/wordpool_categorized_EN.txt	CELLO	Instruments	1	18	[0, 0, 0]	n/a	catFR1	0	R1264P
2246.141	0.817	2251046	WORD_OFF	n/a	n/a	CELLO	n/a	1	18	[0, 0, 0]	n/a	catFR1	0	R1264P
2246.958	1.616	2251863	WORD	n/a	wordpools/wordpool_categorized_EN.txt	TROMBONE	Instruments	2	18	[0, 0, 0]	n/a	catFR1	0	R1264P
2248.574	0.868	2253479	WORD_OFF	n/a	n/a	TROMBONE	n/a	2	18	[0, 0, 0]	n/a	catFR1	0	R1264P
2249.442	1.617	2254347	WORD	n/a	wordpools/wordpool_categorized_EN.txt	BINDER	OfficeSupplies	3	18	[0, 0, 0]	n/a	catFR1	0	R1264P
2251.059	0.816	2255963	WORD_OFF	n/a	n/a	BINDER	n/a	3	18	[0, 0, 0]	n/a	catFR1	0	R1264P
2251.875	1.618	2256779	WORD	n/a	wordpools/wordpool_categorized_EN.txt	MARKER	OfficeSupplies	4	18	[0, 0, 0]	n/a	catFR1	0	R1264P
2253.493	0.983	2258397	WORD_OFF	n/a	n/a	MARKER	n/a	4	18	[0, 0, 0]	n/a	catFR1	0	R1264P
2254.476	1.617	2259380	WORD	n/a	wordpools/wordpool_categorized_EN.txt	BASKETBALL	Toys	5	18	[0, 0, 0]	n/a	catFR1	0	R1264P
2256.093	0.833	2260997	WORD_OFF	n/a	n/a	BASKETBALL	n/a	5	18	[0, 0, 0]	n/a	catFR1	0	R1264P
2256.926	1.617	2261830	WORD	n/a	wordpools/wordpool_categorized_EN.txt	BASEBALL	Toys	6	18	[0, 0, 0]	n/a	catFR1	0	R1264P
2258.543	0.951	2263447	WORD_OFF	n/a	n/a	BASEBALL	n/a	6	18	[0, 0, 0]	n/a	catFR1	0	R1264P
2259.494	1.617	2264398	WORD	n/a	wordpools/wordpool_categorized_EN.txt	RULER	OfficeSupplies	7	18	[0, 0, 0]	n/a	catFR1	0	R1264P
2261.111	0.983	2266015	WORD_OFF	n/a	n/a	RULER	n/a	7	18	[0, 0, 0]	n/a	catFR1	0	R1264P
2262.094	1.617	2266998	WORD	n/a	wordpools/wordpool_categorized_EN.txt	NOTEBOOK	OfficeSupplies	8	18	[0, 0, 0]	n/a	catFR1	0	R1264P
2263.711	1.0	2268615	WORD_OFF	n/a	n/a	NOTEBOOK	n/a	8	18	[0, 0, 0]	n/a	catFR1	0	R1264P
2264.711	1.617	2269615	WORD	n/a	wordpools/wordpool_categorized_EN.txt	VIOLIN	Instruments	9	18	[0, 0, 0]	n/a	catFR1	0	R1264P
2266.328	0.917	2271232	WORD_OFF	n/a	n/a	VIOLIN	n/a	9	18	[0, 0, 0]	n/a	catFR1	0	R1264P
2267.245	1.617	2272149	WORD	n/a	wordpools/wordpool_categorized_EN.txt	TUBA	Instruments	10	18	[0, 0, 0]	n/a	catFR1	0	R1264P
2268.862	0.766	2273766	WORD_OFF	n/a	n/a	TUBA	n/a	10	18	[0, 0, 0]	n/a	catFR1	0	R1264P
2269.628	1.618	2274532	WORD	n/a	wordpools/wordpool_categorized_EN.txt	FRISBEE	Toys	11	18	[0, 0, 0]	n/a	catFR1	0	R1264P
2271.246	0.817	2276149	WORD_OFF	n/a	n/a	FRISBEE	n/a	11	18	[0, 0, 0]	n/a	catFR1	0	R1264P
2272.063	1.616	2276966	WORD	n/a	wordpools/wordpool_categorized_EN.txt	FOOTBALL	Toys	12	18	[0, 0, 0]	n/a	catFR1	0	R1264P
2273.679	0.0	2278582	WORD_OFF	n/a	n/a	FOOTBALL	n/a	12	18	[0, 0, 0]	n/a	catFR1	0	R1264P
2273.679	0.135	2278582	ENCODING_END	n/a	n/a	n/a	n/a	-999	18	[0, 0, 0]	n/a	catFR1	0	R1264P
2273.814	0.001	2278717	DISTRACT_START	n/a	n/a	n/a	n/a	-999	18	[0, 0, 0]	n/a	catFR1	0	R1264P
2273.815	0.015	2278718	START	n/a	n/a	n/a	n/a	-999	18	[-999, -999, -999]	n/a	catFR1	0	R1264P
2273.83	5.567	2278733	PROB	5.567	n/a	n/a	n/a	-999	18	[8, 1, 9]	18	catFR1	0	R1264P
2279.397	3.551	2284300	PROB	3.551	n/a	n/a	n/a	-999	18	[8, 1, 1]	10	catFR1	0	R1264P
2282.948	3.716	2287851	PROB	3.716	n/a	n/a	n/a	-999	18	[1, 2, 7]	10	catFR1	0	R1264P
2286.664	3.702	2291567	PROB	3.702	n/a	n/a	n/a	-999	18	[8, 9, 4]	22	catFR1	0	R1264P
2290.366	4.405	2295268	PROB	4.405	n/a	n/a	n/a	-999	18	[3, 5, 4]	12	catFR1	0	R1264P
2294.771	0.013	2299673	STOP	n/a	n/a	n/a	n/a	-999	18	[-999, -999, -999]	n/a	catFR1	0	R1264P
2294.784	0.6	2299686	DISTRACT_END	n/a	n/a	n/a	n/a	-999	18	[0, 0, 0]	n/a	catFR1	0	R1264P
2295.384	0.517	2300286	RETRIEVAL_ORIENT	n/a	n/a	n/a	n/a	-999	18	[0, 0, 0]	n/a	catFR1	0	R1264P
2295.901	13.846	2300803	REC_START	n/a	n/a	n/a	n/a	-999	18	[0, 0, 0]	n/a	catFR1	0	R1264P
2309.747	5.453	2314648	REC_WORD	5.453	n/a	FOOTBALL	Toys	12	18	[0, 0, 0]	n/a	catFR1	0	R1264P
2315.2	2.014	2320101	REC_WORD	2.014	n/a	BASEBALL	Toys	6	18	[0, 0, 0]	n/a	catFR1	0	R1264P
2317.214	2.064	2322115	REC_WORD	2.064	n/a	FRISBEE	Toys	11	18	[0, 0, 0]	n/a	catFR1	0	R1264P
2319.278	5.918	2324179	REC_WORD	5.918	n/a	SOCCER	n/a	-999	18	[0, 0, 0]	n/a	catFR1	0	R1264P
2325.196	0.716	2330097	REC_WORD_VV	0.716	n/a	<>	n/a	-999	18	[0, 0, 0]	n/a	catFR1	0	R1264P
2325.912	10.479	2330813	REC_END	n/a	n/a	n/a	n/a	-999	18	[0, 0, 0]	n/a	catFR1	0	R1264P
2336.391	0.5	2341291	TRIAL	n/a	n/a	n/a	n/a	-999	19	[0, 0, 0]	n/a	catFR1	0	R1264P
2336.891	10.428	2341791	COUNTDOWN_START	n/a	n/a	n/a	n/a	-999	19	[0, 0, 0]	n/a	catFR1	0	R1264P
2347.319	0.008	2352219	COUNTDOWN_END	n/a	n/a	n/a	n/a	-999	19	[0, 0, 0]	n/a	catFR1	0	R1264P
2347.327	1.617	2352227	ORIENT	n/a	n/a	n/a	n/a	-999	19	[0, 0, 0]	n/a	catFR1	0	R1264P
2348.944	2.334	2353843	ORIENT_OFF	n/a	n/a	n/a	n/a	-999	19	[0, 0, 0]	n/a	catFR1	0	R1264P
2351.278	1.617	2356177	WORD	n/a	wordpools/wordpool_categorized_EN.txt	ROOM	Building	1	19	[0, 0, 0]	n/a	catFR1	0	R1264P
2352.895	0.983	2357794	WORD_OFF	n/a	n/a	ROOM	n/a	1	19	[0, 0, 0]	n/a	catFR1	0	R1264P
2353.878	1.617	2358777	WORD	n/a	wordpools/wordpool_categorized_EN.txt	STAIRS	Building	2	19	[0, 0, 0]	n/a	catFR1	0	R1264P
2355.495	0.834	2360394	WORD_OFF	n/a	n/a	STAIRS	n/a	2	19	[0, 0, 0]	n/a	catFR1	0	R1264P
2356.329	1.616	2361228	WORD	n/a	wordpools/wordpool_categorized_EN.txt	GLUE	OfficeSupplies	3	19	[0, 0, 0]	n/a	catFR1	0	R1264P
2357.945	0.784	2362844	WORD_OFF	n/a	n/a	GLUE	n/a	3	19	[0, 0, 0]	n/a	catFR1	0	R1264P
2358.729	1.617	2363628	WORD	n/a	wordpools/wordpool_categorized_EN.txt	ERASER	OfficeSupplies	4	19	[0, 0, 0]	n/a	catFR1	0	R1264P
2360.346	1.0	2365245	WORD_OFF	n/a	n/a	ERASER	n/a	4	19	[0, 0, 0]	n/a	catFR1	0	R1264P
2361.346	1.617	2366245	WORD	n/a	wordpools/wordpool_categorized_EN.txt	UNDERWEAR	Clothing	5	19	[0, 0, 0]	n/a	catFR1	0	R1264P
2362.963	0.917	2367862	WORD_OFF	n/a	n/a	UNDERWEAR	n/a	5	19	[0, 0, 0]	n/a	catFR1	0	R1264P
2363.88	1.617	2368779	WORD	n/a	wordpools/wordpool_categorized_EN.txt	SHIRT	Clothing	6	19	[0, 0, 0]	n/a	catFR1	0	R1264P
2365.497	0.817	2370396	WORD_OFF	n/a	n/a	SHIRT	n/a	6	19	[0, 0, 0]	n/a	catFR1	0	R1264P
2366.314	1.617	2371213	WORD	n/a	wordpools/wordpool_categorized_EN.txt	HALLWAY	Building	7	19	[0, 0, 0]	n/a	catFR1	0	R1264P
2367.931	0.816	2372829	WORD_OFF	n/a	n/a	HALLWAY	n/a	7	19	[0, 0, 0]	n/a	catFR1	0	R1264P
2368.747	1.618	2373645	WORD	n/a	wordpools/wordpool_categorized_EN.txt	FLOOR	Building	8	19	[0, 0, 0]	n/a	catFR1	0	R1264P
2370.365	0.933	2375263	WORD_OFF	n/a	n/a	FLOOR	n/a	8	19	[0, 0, 0]	n/a	catFR1	0	R1264P
2371.298	1.617	2376196	WORD	n/a	wordpools/wordpool_categorized_EN.txt	PEN	OfficeSupplies	9	19	[0, 0, 0]	n/a	catFR1	0	R1264P
2372.915	1.0	2377813	WORD_OFF	n/a	n/a	PEN	n/a	9	19	[0, 0, 0]	n/a	catFR1	0	R1264P
2373.915	1.617	2378813	WORD	n/a	wordpools/wordpool_categorized_EN.txt	TAPE	OfficeSupplies	10	19	[0, 0, 0]	n/a	catFR1	0	R1264P
2375.532	0.85	2380430	WORD_OFF	n/a	n/a	TAPE	n/a	10	19	[0, 0, 0]	n/a	catFR1	0	R1264P
2376.382	1.617	2381280	WORD	n/a	wordpools/wordpool_categorized_EN.txt	DRESS	Clothing	11	19	[0, 0, 0]	n/a	catFR1	0	R1264P
2377.999	0.884	2382897	WORD_OFF	n/a	n/a	DRESS	n/a	11	19	[0, 0, 0]	n/a	catFR1	0	R1264P
2378.883	1.617	2383781	WORD	n/a	wordpools/wordpool_categorized_EN.txt	BLOUSE	Clothing	12	19	[0, 0, 0]	n/a	catFR1	0	R1264P
2380.5	0.0	2385398	WORD_OFF	n/a	n/a	BLOUSE	n/a	12	19	[0, 0, 0]	n/a	catFR1	0	R1264P
2380.5	0.1	2385398	ENCODING_END	n/a	n/a	n/a	n/a	-999	19	[0, 0, 0]	n/a	catFR1	0	R1264P
2380.6	0.0	2385498	DISTRACT_START	n/a	n/a	n/a	n/a	-999	19	[0, 0, 0]	n/a	catFR1	0	R1264P
2380.6	0.015	2385498	START	n/a	n/a	n/a	n/a	-999	19	[-999, -999, -999]	n/a	catFR1	0	R1264P
2380.615	5.869	2385513	PROB	5.869	n/a	n/a	n/a	-999	19	[4, 3, 6]	13	catFR1	0	R1264P
2386.484	4.117	2391381	PROB	4.117	n/a	n/a	n/a	-999	19	[7, 4, 3]	14	catFR1	0	R1264P
2390.601	4.0	2395498	PROB	4.0	n/a	n/a	n/a	-999	19	[3, 4, 8]	15	catFR1	0	R1264P
2394.601	3.135	2399498	PROB	3.135	n/a	n/a	n/a	-999	19	[5, 5, 8]	18	catFR1	0	R1264P
2397.736	3.108	2402633	PROB	3.108	n/a	n/a	n/a	-999	19	[2, 6, 2]	10	catFR1	0	R1264P
2400.844	0.01	2405741	STOP	n/a	n/a	n/a	n/a	-999	19	[-999, -999, -999]	n/a	catFR1	0	R1264P
2400.854	0.55	2405751	DISTRACT_END	n/a	n/a	n/a	n/a	-999	19	[0, 0, 0]	n/a	catFR1	0	R1264P
2401.404	0.517	2406301	RETRIEVAL_ORIENT	n/a	n/a	n/a	n/a	-999	19	[0, 0, 0]	n/a	catFR1	0	R1264P
2401.921	30.0	2406818	REC_START	n/a	n/a	n/a	n/a	-999	19	[0, 0, 0]	n/a	catFR1	0	R1264P
2431.921	0.013	2436816	REC_WORD_VV	0.013	n/a	<>	n/a	-999	19	[0, 0, 0]	n/a	catFR1	0	R1264P
2431.934	13.595	2436829	REC_END	n/a	n/a	n/a	n/a	-999	19	[0, 0, 0]	n/a	catFR1	0	R1264P
2445.529	0.5	2450423	TRIAL	n/a	n/a	n/a	n/a	-999	20	[0, 0, 0]	n/a	catFR1	0	R1264P
2446.029	10.428	2450923	COUNTDOWN_START	n/a	n/a	n/a	n/a	-999	20	[0, 0, 0]	n/a	catFR1	0	R1264P
2456.457	0.007	2461351	COUNTDOWN_END	n/a	n/a	n/a	n/a	-999	20	[0, 0, 0]	n/a	catFR1	0	R1264P
2456.464	1.617	2461358	ORIENT	n/a	n/a	n/a	n/a	-999	20	[0, 0, 0]	n/a	catFR1	0	R1264P
2458.081	2.084	2462975	ORIENT_OFF	n/a	n/a	n/a	n/a	-999	20	[0, 0, 0]	n/a	catFR1	0	R1264P
2460.165	1.617	2465059	WORD	n/a	wordpools/wordpool_categorized_EN.txt	LAMB	FarmAnimals	1	20	[0, 0, 0]	n/a	catFR1	0	R1264P
2461.782	0.866	2466676	WORD_OFF	n/a	n/a	LAMB	n/a	1	20	[0, 0, 0]	n/a	catFR1	0	R1264P
2462.648	1.618	2467542	WORD	n/a	wordpools/wordpool_categorized_EN.txt	CHICKEN	FarmAnimals	2	20	[0, 0, 0]	n/a	catFR1	0	R1264P
2464.266	0.983	2469159	WORD_OFF	n/a	n/a	CHICKEN	n/a	2	20	[0, 0, 0]	n/a	catFR1	0	R1264P
2465.249	1.617	2470142	WORD	n/a	wordpools/wordpool_categorized_EN.txt	KNEE	BodyParts	3	20	[0, 0, 0]	n/a	catFR1	0	R1264P
2466.866	0.816	2471759	WORD_OFF	n/a	n/a	KNEE	n/a	3	20	[0, 0, 0]	n/a	catFR1	0	R1264P
2467.682	1.618	2472575	WORD	n/a	wordpools/wordpool_categorized_EN.txt	TOE	BodyParts	4	20	[0, 0, 0]	n/a	catFR1	0	R1264P
2469.3	0.9	2474193	WORD_OFF	n/a	n/a	TOE	n/a	4	20	[0, 0, 0]	n/a	catFR1	0	R1264P
2470.2	1.617	2475093	WORD	n/a	wordpools/wordpool_categorized_EN.txt	PETUNIA	Flowers	5	20	[0, 0, 0]	n/a	catFR1	0	R1264P
2471.817	0.866	2476710	WORD_OFF	n/a	n/a	PETUNIA	n/a	5	20	[0, 0, 0]	n/a	catFR1	0	R1264P
2472.683	1.618	2477576	WORD	n/a	wordpools/wordpool_categorized_EN.txt	MARIGOLD	Flowers	6	20	[0, 0, 0]	n/a	catFR1	0	R1264P
2474.301	0.933	2479194	WORD_OFF	n/a	n/a	MARIGOLD	n/a	6	20	[0, 0, 0]	n/a	catFR1	0	R1264P
2475.234	1.617	2480127	WORD	n/a	wordpools/wordpool_categorized_EN.txt	BULL	FarmAnimals	7	20	[0, 0, 0]	n/a	catFR1	0	R1264P
2476.851	0.816	2481744	WORD_OFF	n/a	n/a	BULL	n/a	7	20	[0, 0, 0]	n/a	catFR1	0	R1264P
2477.667	1.618	2482560	WORD	n/a	wordpools/wordpool_categorized_EN.txt	ROOSTER	FarmAnimals	8	20	[0, 0, 0]	n/a	catFR1	0	R1264P
2479.285	0.867	2484178	WORD_OFF	n/a	n/a	ROOSTER	n/a	8	20	[0, 0, 0]	n/a	catFR1	0	R1264P
2480.152	1.617	2485045	WORD	n/a	wordpools/wordpool_categorized_EN.txt	EYE	BodyParts	9	20	[0, 0, 0]	n/a	catFR1	0	R1264P
2481.769	0.966	2486662	WORD_OFF	n/a	n/a	EYE	n/a	9	20	[0, 0, 0]	n/a	catFR1	0	R1264P
2482.735	1.618	2487628	WORD	n/a	wordpools/wordpool_categorized_EN.txt	NOSE	BodyParts	10	20	[0, 0, 0]	n/a	catFR1	0	R1264P
2484.353	0.85	2489245	WORD_OFF	n/a	n/a	NOSE	n/a	10	20	[0, 0, 0]	n/a	catFR1	0	R1264P
2485.203	1.617	2490095	WORD	n/a	wordpools/wordpool_categorized_EN.txt	LILAC	Flowers	11	20	[0, 0, 0]	n/a	catFR1	0	R1264P
2486.82	0.95	2491712	WORD_OFF	n/a	n/a	LILAC	n/a	11	20	[0, 0, 0]	n/a	catFR1	0	R1264P
2487.77	1.617	2492662	WORD	n/a	wordpools/wordpool_categorized_EN.txt	CARNATION	Flowers	12	20	[0, 0, 0]	n/a	catFR1	0	R1264P
2489.387	0.0	2494279	ENCODING_END	n/a	n/a	n/a	n/a	-999	20	[0, 0, 0]	n/a	catFR1	0	R1264P
2489.387	0.101	2494279	WORD_OFF	n/a	n/a	CARNATION	n/a	12	20	[0, 0, 0]	n/a	catFR1	0	R1264P
2489.488	0.0	2494380	DISTRACT_START	n/a	n/a	n/a	n/a	-999	20	[0, 0, 0]	n/a	catFR1	0	R1264P
2489.488	0.016	2494380	START	n/a	n/a	n/a	n/a	-999	20	[-999, -999, -999]	n/a	catFR1	0	R1264P
2489.504	4.934	2494396	PROB	4.934	n/a	n/a	n/a	-999	20	[3, 7, 7]	17	catFR1	0	R1264P
2494.438	4.984	2499330	PROB	4.984	n/a	n/a	n/a	-999	20	[8, 7, 8]	23	catFR1	0	R1264P
2499.422	2.967	2504314	PROB	2.967	n/a	n/a	n/a	-999	20	[3, 9, 6]	18	catFR1	0	R1264P
2502.389	2.451	2507280	PROB	2.451	n/a	n/a	n/a	-999	20	[4, 5, 5]	14	catFR1	0	R1264P
2504.84	2.417	2509731	PROB	2.417	n/a	n/a	n/a	-999	20	[1, 6, 6]	13	catFR1	0	R1264P
2507.257	2.017	2512148	PROB	2.017	n/a	n/a	n/a	-999	20	[1, 3, 7]	11	catFR1	0	R1264P
2509.274	3.696	2514165	PROB	3.696	n/a	n/a	n/a	-999	20	[6, 2, 9]	17	catFR1	0	R1264P
2512.97	0.022	2517861	STOP	n/a	n/a	n/a	n/a	-999	20	[-999, -999, -999]	n/a	catFR1	0	R1264P
2512.992	0.533	2517883	DISTRACT_END	n/a	n/a	n/a	n/a	-999	20	[0, 0, 0]	n/a	catFR1	0	R1264P
2513.525	0.517	2518416	RETRIEVAL_ORIENT	n/a	n/a	n/a	n/a	-999	20	[0, 0, 0]	n/a	catFR1	0	R1264P
2514.042	0.553	2518933	REC_START	n/a	n/a	n/a	n/a	-999	20	[0, 0, 0]	n/a	catFR1	0	R1264P
2514.595	8.675	2519486	REC_WORD_VV	8.675	n/a	<>	n/a	-999	20	[0, 0, 0]	n/a	catFR1	0	R1264P
2523.27	1.0	2528160	REC_WORD	1.0	n/a	PETUNIA	Flowers	5	20	[0, 0, 0]	n/a	catFR1	0	R1264P
2524.27	2.941	2529160	REC_WORD_VV	2.941	n/a	<>	n/a	-999	20	[0, 0, 0]	n/a	catFR1	0	R1264P
2527.211	5.768	2532101	REC_WORD	5.768	n/a	ORANGUTAN	n/a	-999	20	[0, 0, 0]	n/a	catFR1	0	R1264P
2532.979	2.014	2537869	REC_WORD	2.014	n/a	STAR	n/a	-999	20	[0, 0, 0]	n/a	catFR1	0	R1264P
2534.993	1.07	2539883	REC_WORD	1.07	n/a	MOON	n/a	-999	20	[0, 0, 0]	n/a	catFR1	0	R1264P
2536.063	4.407	2540953	REC_WORD	4.407	n/a	HAND	n/a	-999	20	[0, 0, 0]	n/a	catFR1	0	R1264P
2540.47	3.586	2545360	REC_WORD	3.586	n/a	FIST	n/a	-999	20	[0, 0, 0]	n/a	catFR1	0	R1264P
2544.056	105.328	2548945	REC_END	n/a	n/a	n/a	n/a	-999	20	[0, 0, 0]	n/a	catFR1	0	R1264P
2649.384	0.0	2654268	TRIAL	n/a	n/a	n/a	n/a	-999	21	[0, 0, 0]	n/a	catFR1	0	R1264P
