onset	duration	sample	trial_type	response_time	stim_file	item_name	category	serialpos	list	test	answer	experiment	session	subject
0.0	128.169	10685433	SESS_START	n/a	n/a	n/a	n/a	-999	-999	[0, 0, 0]	n/a	catFR1	1	R1028M
128.169	10.428	10749511	COUNTDOWN_START	n/a	n/a	n/a	n/a	-999	-999	[0, 0, 0]	n/a	catFR1	1	R1028M
138.597	3.675	10754724	COUNTDOWN_END	n/a	n/a	n/a	n/a	-999	-999	[0, 0, 0]	n/a	catFR1	1	R1028M
142.272	2.517	10756562	PRACTICE_WORD	n/a	n/a	RING	n/a	-999	-999	[0, 0, 0]	n/a	catFR1	1	R1028M
144.789	2.534	10757820	PRACTICE_WORD	n/a	n/a	ATTIC	n/a	-999	-999	[0, 0, 0]	n/a	catFR1	1	R1028M
147.323	2.417	10759087	PRACTICE_WORD	n/a	n/a	CHEST	n/a	-999	-999	[0, 0, 0]	n/a	catFR1	1	R1028M
149.74	2.484	10760295	PRACTICE_WORD	n/a	n/a	TONGUE	n/a	-999	-999	[0, 0, 0]	n/a	catFR1	1	R1028M
152.224	2.567	10761537	PRACTICE_WORD	n/a	n/a	FLOOD	n/a	-999	-999	[0, 0, 0]	n/a	catFR1	1	R1028M
154.791	2.45	10762821	PRACTICE_WORD	n/a	n/a	IRON	n/a	-999	-999	[0, 0, 0]	n/a	catFR1	1	R1028M
157.241	2.551	10764045	PRACTICE_WORD	n/a	n/a	RHINO	n/a	-999	-999	[0, 0, 0]	n/a	catFR1	1	R1028M
159.792	2.517	10765321	PRACTICE_WORD	n/a	n/a	BEAM	n/a	-999	-999	[0, 0, 0]	n/a	catFR1	1	R1028M
162.309	2.601	10766579	PRACTICE_WORD	n/a	n/a	WATCH	n/a	-999	-999	[0, 0, 0]	n/a	catFR1	1	R1028M
164.91	2.633	10767879	PRACTICE_WORD	n/a	n/a	WAGON	n/a	-999	-999	[0, 0, 0]	n/a	catFR1	1	R1028M
167.543	2.484	10769196	PRACTICE_WORD	n/a	n/a	CAMEL	n/a	-999	-999	[0, 0, 0]	n/a	catFR1	1	R1028M
170.027	1.617	10770438	PRACTICE_WORD	n/a	n/a	COTTON	n/a	-999	-999	[0, 0, 0]	n/a	catFR1	1	R1028M
171.644	0.001	10771246	PRACTICE_DISTRACT_START	n/a	n/a	n/a	n/a	-999	-999	[0, 0, 0]	n/a	catFR1	1	R1028M
171.645	0.016	10771247	START	n/a	n/a	n/a	n/a	-999	1	[-999, -999, -999]	n/a	catFR1	1	R1028M
171.661	9.502	10771255	PROB	9.502	n/a	n/a	n/a	-999	1	[9, 5, 1]	15	catFR1	1	R1028M
181.163	4.551	10776005	PROB	4.551	n/a	n/a	n/a	-999	1	[6, 1, 7]	14	catFR1	1	R1028M
185.714	7.682	10778280	PROB	7.682	n/a	n/a	n/a	-999	1	[2, 8, 5]	15	catFR1	1	R1028M
193.396	0.019	10782121	STOP	n/a	n/a	n/a	n/a	-999	1	[-999, -999, -999]	n/a	catFR1	1	R1028M
193.415	0.636	10782131	PRACTICE_DISTRACT_END	n/a	n/a	n/a	n/a	-999	-999	[0, 0, 0]	n/a	catFR1	1	R1028M
194.051	30.514	10782448	PRACTICE_REC_START	n/a	n/a	n/a	n/a	-999	-999	[0, 0, 0]	n/a	catFR1	1	R1028M
224.565	109.044	10797704	PRACTICE_REC_END	n/a	n/a	n/a	n/a	-999	-999	[0, 0, 0]	n/a	catFR1	1	R1028M
333.609	0.0	10852220	TRIAL	n/a	n/a	n/a	n/a	-999	1	[0, 0, 0]	n/a	catFR1	1	R1028M
333.609	10.428	10852220	COUNTDOWN_START	n/a	n/a	n/a	n/a	-999	1	[0, 0, 0]	n/a	catFR1	1	R1028M
344.037	0.007	10857434	COUNTDOWN_END	n/a	n/a	n/a	n/a	-999	1	[0, 0, 0]	n/a	catFR1	1	R1028M
344.044	3.651	10857437	ORIENT	n/a	n/a	n/a	n/a	-999	1	[0, 0, 0]	n/a	catFR1	1	R1028M
347.695	2.567	10859262	WORD	n/a	wordpools/wordpool_categorized_EN.txt	ERASER	OfficeSupplies	1	1	[0, 0, 0]	n/a	catFR1	1	R1028M
350.262	2.434	10860546	WORD	n/a	wordpools/wordpool_categorized_EN.txt	PAPER	OfficeSupplies	2	1	[0, 0, 0]	n/a	catFR1	1	R1028M
352.696	2.467	10861763	WORD	n/a	wordpools/wordpool_categorized_EN.txt	GUITAR	Instruments	3	1	[0, 0, 0]	n/a	catFR1	1	R1028M
355.163	2.617	10862996	WORD	n/a	wordpools/wordpool_categorized_EN.txt	TUBA	Instruments	4	1	[0, 0, 0]	n/a	catFR1	1	R1028M
357.78	2.434	10864304	WORD	n/a	wordpools/wordpool_categorized_EN.txt	CRICKET	Insects	5	1	[0, 0, 0]	n/a	catFR1	1	R1028M
360.214	2.45	10865521	WORD	n/a	wordpools/wordpool_categorized_EN.txt	MOTH	Insects	6	1	[0, 0, 0]	n/a	catFR1	1	R1028M
362.664	2.484	10866746	WORD	n/a	wordpools/wordpool_categorized_EN.txt	NOTEBOOK	OfficeSupplies	7	1	[0, 0, 0]	n/a	catFR1	1	R1028M
365.148	2.484	10867988	WORD	n/a	wordpools/wordpool_categorized_EN.txt	PENCIL	OfficeSupplies	8	1	[0, 0, 0]	n/a	catFR1	1	R1028M
367.632	2.484	10869230	WORD	n/a	wordpools/wordpool_categorized_EN.txt	ROACH	Insects	9	1	[0, 0, 0]	n/a	catFR1	1	R1028M
370.116	2.617	10870472	WORD	n/a	wordpools/wordpool_categorized_EN.txt	BEE	Insects	10	1	[0, 0, 0]	n/a	catFR1	1	R1028M
372.733	2.417	10871780	WORD	n/a	wordpools/wordpool_categorized_EN.txt	CELLO	Instruments	11	1	[0, 0, 0]	n/a	catFR1	1	R1028M
375.15	1.617	10872989	WORD	n/a	wordpools/wordpool_categorized_EN.txt	DRUM	Instruments	12	1	[0, 0, 0]	n/a	catFR1	1	R1028M
376.767	0.001	10873797	DISTRACT_START	n/a	n/a	n/a	n/a	-999	1	[0, 0, 0]	n/a	catFR1	1	R1028M
376.768	0.016	10873797	START	n/a	n/a	n/a	n/a	-999	2	[-999, -999, -999]	n/a	catFR1	1	R1028M
376.784	3.417	10873805	PROB	3.417	n/a	n/a	n/a	-999	2	[2, 4, 6]	12	catFR1	1	R1028M
380.201	4.334	10875514	PROB	4.334	n/a	n/a	n/a	-999	2	[5, 3, 6]	14	catFR1	1	R1028M
384.535	3.284	10877681	PROB	3.284	n/a	n/a	n/a	-999	2	[2, 8, 8]	18	catFR1	1	R1028M
387.819	3.834	10879322	PROB	3.834	n/a	n/a	n/a	-999	2	[4, 8, 2]	14	catFR1	1	R1028M
391.653	4.634	10881239	PROB	4.634	n/a	n/a	n/a	-999	2	[9, 3, 5]	17	catFR1	1	R1028M
396.287	3.941	10883556	PROB	3.941	n/a	n/a	n/a	-999	2	[2, 7, 8]	17	catFR1	1	R1028M
400.228	0.01	10885526	STOP	n/a	n/a	n/a	n/a	-999	2	[-999, -999, -999]	n/a	catFR1	1	R1028M
400.238	1.084	10885531	DISTRACT_END	n/a	n/a	n/a	n/a	-999	1	[0, 0, 0]	n/a	catFR1	1	R1028M
401.322	1.693	10886073	REC_START	n/a	n/a	n/a	n/a	-999	1	[0, 0, 0]	n/a	catFR1	1	R1028M
403.015	1.008	10886920	REC_WORD	1.008	n/a	CELLO	Instruments	11	1	[0, 0, 0]	n/a	catFR1	1	R1028M
404.023	1.278	10887424	REC_WORD	1.278	n/a	DRUM	Instruments	12	1	[0, 0, 0]	n/a	catFR1	1	R1028M
405.301	1.034	10888063	REC_WORD	1.034	n/a	CRICKET	Insects	5	1	[0, 0, 0]	n/a	catFR1	1	R1028M
406.335	1.188	10888579	REC_WORD	1.188	n/a	MOTH	Insects	6	1	[0, 0, 0]	n/a	catFR1	1	R1028M
407.523	23.81	10889173	REC_WORD	23.81	n/a	GUITAR	Instruments	3	1	[0, 0, 0]	n/a	catFR1	1	R1028M
431.333	37.702	10901077	REC_END	n/a	n/a	n/a	n/a	-999	1	[0, 0, 0]	n/a	catFR1	1	R1028M
469.035	0.0	10919926	TRIAL	n/a	n/a	n/a	n/a	-999	2	[0, 0, 0]	n/a	catFR1	1	R1028M
469.035	10.428	10919926	COUNTDOWN_START	n/a	n/a	n/a	n/a	-999	2	[0, 0, 0]	n/a	catFR1	1	R1028M
479.463	0.007	10925140	COUNTDOWN_END	n/a	n/a	n/a	n/a	-999	2	[0, 0, 0]	n/a	catFR1	1	R1028M
479.47	3.467	10925143	ORIENT	n/a	n/a	n/a	n/a	-999	2	[0, 0, 0]	n/a	catFR1	1	R1028M
482.937	2.518	10926876	WORD	n/a	wordpools/wordpool_categorized_EN.txt	COBBLER	Desserts	1	2	[0, 0, 0]	n/a	catFR1	1	R1028M
485.455	2.45	10928135	WORD	n/a	wordpools/wordpool_categorized_EN.txt	COOKIE	Desserts	2	2	[0, 0, 0]	n/a	catFR1	1	R1028M
487.905	2.384	10929360	WORD	n/a	wordpools/wordpool_categorized_EN.txt	CALCULATOR	Electronics	3	2	[0, 0, 0]	n/a	catFR1	1	R1028M
490.289	2.567	10930552	WORD	n/a	wordpools/wordpool_categorized_EN.txt	RADIO	Electronics	4	2	[0, 0, 0]	n/a	catFR1	1	R1028M
492.856	2.4	10931835	WORD	n/a	wordpools/wordpool_categorized_EN.txt	PANDA	Zoo	5	2	[0, 0, 0]	n/a	catFR1	1	R1028M
495.256	2.451	10933035	WORD	n/a	wordpools/wordpool_categorized_EN.txt	ORANGUTAN	Zoo	6	2	[0, 0, 0]	n/a	catFR1	1	R1028M
497.707	2.567	10934261	WORD	n/a	wordpools/wordpool_categorized_EN.txt	MICROWAVE	Electronics	7	2	[0, 0, 0]	n/a	catFR1	1	R1028M
500.274	2.467	10935544	WORD	n/a	wordpools/wordpool_categorized_EN.txt	COMPUTER	Electronics	8	2	[0, 0, 0]	n/a	catFR1	1	R1028M
502.741	2.501	10936777	WORD	n/a	wordpools/wordpool_categorized_EN.txt	CHEESECAKE	Desserts	9	2	[0, 0, 0]	n/a	catFR1	1	R1028M
505.242	2.484	10938028	WORD	n/a	wordpools/wordpool_categorized_EN.txt	CAKE	Desserts	10	2	[0, 0, 0]	n/a	catFR1	1	R1028M
507.726	2.417	10939270	WORD	n/a	wordpools/wordpool_categorized_EN.txt	LION	Zoo	11	2	[0, 0, 0]	n/a	catFR1	1	R1028M
510.143	1.617	10940478	WORD	n/a	wordpools/wordpool_categorized_EN.txt	GORILLA	Zoo	12	2	[0, 0, 0]	n/a	catFR1	1	R1028M
511.76	0.001	10941286	DISTRACT_START	n/a	n/a	n/a	n/a	-999	2	[0, 0, 0]	n/a	catFR1	1	R1028M
511.761	0.015	10941287	START	n/a	n/a	n/a	n/a	-999	3	[-999, -999, -999]	n/a	catFR1	1	R1028M
511.776	5.151	10941294	PROB	5.151	n/a	n/a	n/a	-999	3	[9, 4, 2]	15	catFR1	1	R1028M
516.927	5.001	10943870	PROB	5.001	n/a	n/a	n/a	-999	3	[7, 9, 6]	22	catFR1	1	R1028M
521.928	3.351	10946370	PROB	3.351	n/a	n/a	n/a	-999	3	[4, 8, 8]	20	catFR1	1	R1028M
525.279	3.934	10948045	PROB	3.934	n/a	n/a	n/a	-999	3	[2, 6, 5]	13	catFR1	1	R1028M
529.213	3.999	10950012	PROB	3.999	n/a	n/a	n/a	-999	3	[3, 6, 6]	15	catFR1	1	R1028M
533.212	0.018	10952011	STOP	n/a	n/a	n/a	n/a	-999	3	[-999, -999, -999]	n/a	catFR1	1	R1028M
533.23	1.218	10952020	DISTRACT_END	n/a	n/a	n/a	n/a	-999	2	[0, 0, 0]	n/a	catFR1	1	R1028M
534.448	0.862	10952629	REC_START	n/a	n/a	n/a	n/a	-999	2	[0, 0, 0]	n/a	catFR1	1	R1028M
535.31	0.607	10953060	REC_WORD	0.607	n/a	PANDA	Zoo	5	2	[0, 0, 0]	n/a	catFR1	1	R1028M
535.917	1.382	10953364	REC_WORD	1.382	n/a	ORANGUTAN	Zoo	6	2	[0, 0, 0]	n/a	catFR1	1	R1028M
537.299	1.831	10954055	REC_WORD	1.831	n/a	LION	Zoo	11	2	[0, 0, 0]	n/a	catFR1	1	R1028M
539.13	1.804	10954970	REC_WORD	1.804	n/a	CHEESECAKE	Desserts	9	2	[0, 0, 0]	n/a	catFR1	1	R1028M
540.934	1.795	10955872	REC_WORD	1.795	n/a	COBBLER	Desserts	1	2	[0, 0, 0]	n/a	catFR1	1	R1028M
542.729	1.455	10956769	REC_WORD	1.455	n/a	COOKIE	Desserts	2	2	[0, 0, 0]	n/a	catFR1	1	R1028M
544.184	20.273	10957497	REC_WORD	20.273	n/a	CAKE	Desserts	10	2	[0, 0, 0]	n/a	catFR1	1	R1028M
564.457	9.998	10967632	REC_END	n/a	n/a	n/a	n/a	-999	2	[0, 0, 0]	n/a	catFR1	1	R1028M
574.455	0.0	10972631	TRIAL	n/a	n/a	n/a	n/a	-999	3	[0, 0, 0]	n/a	catFR1	1	R1028M
574.455	10.428	10972631	COUNTDOWN_START	n/a	n/a	n/a	n/a	-999	3	[0, 0, 0]	n/a	catFR1	1	R1028M
584.883	0.007	10977844	COUNTDOWN_END	n/a	n/a	n/a	n/a	-999	3	[0, 0, 0]	n/a	catFR1	1	R1028M
584.89	3.734	10977848	ORIENT	n/a	n/a	n/a	n/a	-999	3	[0, 0, 0]	n/a	catFR1	1	R1028M
588.624	2.434	10979714	WORD	n/a	wordpools/wordpool_categorized_EN.txt	PLANKTON	OceanAnimals	1	3	[0, 0, 0]	n/a	catFR1	1	R1028M
591.058	2.451	10980931	WORD	n/a	wordpools/wordpool_categorized_EN.txt	OCTOPUS	OceanAnimals	2	3	[0, 0, 0]	n/a	catFR1	1	R1028M
593.509	2.583	10982157	WORD	n/a	wordpools/wordpool_categorized_EN.txt	PIE	Desserts	3	3	[0, 0, 0]	n/a	catFR1	1	R1028M
596.092	2.468	10983448	WORD	n/a	wordpools/wordpool_categorized_EN.txt	CUPCAKE	Desserts	4	3	[0, 0, 0]	n/a	catFR1	1	R1028M
598.56	2.534	10984682	WORD	n/a	wordpools/wordpool_categorized_EN.txt	DRIZZLE	Weather	5	3	[0, 0, 0]	n/a	catFR1	1	R1028M
601.094	2.383	10985949	WORD	n/a	wordpools/wordpool_categorized_EN.txt	FOG	Weather	6	3	[0, 0, 0]	n/a	catFR1	1	R1028M
603.477	2.584	10987140	WORD	n/a	wordpools/wordpool_categorized_EN.txt	CRAB	OceanAnimals	7	3	[0, 0, 0]	n/a	catFR1	1	R1028M
606.061	2.534	10988432	WORD	n/a	wordpools/wordpool_categorized_EN.txt	TURTLE	OceanAnimals	8	3	[0, 0, 0]	n/a	catFR1	1	R1028M
608.595	2.467	10989699	WORD	n/a	wordpools/wordpool_categorized_EN.txt	SNOW	Weather	9	3	[0, 0, 0]	n/a	catFR1	1	R1028M
611.062	2.584	10990932	WORD	n/a	wordpools/wordpool_categorized_EN.txt	RAIN	Weather	10	3	[0, 0, 0]	n/a	catFR1	1	R1028M
613.646	2.45	10992224	WORD	n/a	wordpools/wordpool_categorized_EN.txt	PUDDING	Desserts	11	3	[0, 0, 0]	n/a	catFR1	1	R1028M
616.096	1.617	10993449	WORD	n/a	wordpools/wordpool_categorized_EN.txt	BROWNIES	Desserts	12	3	[0, 0, 0]	n/a	catFR1	1	R1028M
617.713	0.001	10994257	DISTRACT_START	n/a	n/a	n/a	n/a	-999	3	[0, 0, 0]	n/a	catFR1	1	R1028M
617.714	0.016	10994258	START	n/a	n/a	n/a	n/a	-999	4	[-999, -999, -999]	n/a	catFR1	1	R1028M
617.73	5.584	10994266	PROB	5.584	n/a	n/a	n/a	-999	4	[3, 6, 3]	12	catFR1	1	R1028M
623.314	3.368	10997058	PROB	3.368	n/a	n/a	n/a	-999	4	[1, 2, 7]	10	catFR1	1	R1028M
626.682	11.13	10998742	PROB	11.13	n/a	n/a	n/a	-999	4	[8, 7, 9]	24	catFR1	1	R1028M
637.812	0.005	11004306	STOP	n/a	n/a	n/a	n/a	-999	4	[-999, -999, -999]	n/a	catFR1	1	R1028M
637.817	1.034	11004308	DISTRACT_END	n/a	n/a	n/a	n/a	-999	3	[0, 0, 0]	n/a	catFR1	1	R1028M
638.851	2.004	11004825	REC_START	n/a	n/a	n/a	n/a	-999	3	[0, 0, 0]	n/a	catFR1	1	R1028M
640.855	1.035	11005827	REC_WORD	1.035	n/a	WHALE	n/a	-999	3	[0, 0, 0]	n/a	catFR1	1	R1028M
641.89	1.261	11006345	REC_WORD	1.261	n/a	OCTOPUS	OceanAnimals	2	3	[0, 0, 0]	n/a	catFR1	1	R1028M
643.151	2.812	11006975	REC_WORD	2.812	n/a	PLANKTON	OceanAnimals	1	3	[0, 0, 0]	n/a	catFR1	1	R1028M
645.963	1.586	11008381	REC_WORD	1.586	n/a	CRAB	OceanAnimals	7	3	[0, 0, 0]	n/a	catFR1	1	R1028M
647.549	1.397	11009174	REC_WORD	1.397	n/a	PUDDING	Desserts	11	3	[0, 0, 0]	n/a	catFR1	1	R1028M
648.946	2.076	11009872	REC_WORD	2.076	n/a	CUPCAKE	Desserts	4	3	[0, 0, 0]	n/a	catFR1	1	R1028M
651.022	1.296	11010910	REC_WORD	1.296	n/a	CAKE	n/a	-999	3	[0, 0, 0]	n/a	catFR1	1	R1028M
652.318	1.639	11011558	REC_WORD	1.639	n/a	DRIZZLE	Weather	5	3	[0, 0, 0]	n/a	catFR1	1	R1028M
653.957	1.418	11012378	REC_WORD	1.418	n/a	RAIN	Weather	10	3	[0, 0, 0]	n/a	catFR1	1	R1028M
655.375	13.491	11013087	REC_WORD	13.491	n/a	FOG	Weather	6	3	[0, 0, 0]	n/a	catFR1	1	R1028M
668.866	38.981	11019831	REC_END	n/a	n/a	n/a	n/a	-999	3	[0, 0, 0]	n/a	catFR1	1	R1028M
707.847	0.001	11039320	COUNTDOWN_START	n/a	n/a	n/a	n/a	-999	4	[0, 0, 0]	n/a	catFR1	1	R1028M
707.848	10.427	11039320	TRIAL	n/a	n/a	n/a	n/a	-999	4	[0, 0, 0]	n/a	catFR1	1	R1028M
718.275	0.008	11044533	COUNTDOWN_END	n/a	n/a	n/a	n/a	-999	4	[0, 0, 0]	n/a	catFR1	1	R1028M
718.283	3.6	11044537	ORIENT	n/a	n/a	n/a	n/a	-999	4	[0, 0, 0]	n/a	catFR1	1	R1028M
721.883	2.451	11046337	WORD	n/a	wordpools/wordpool_categorized_EN.txt	DUCK	Birds	1	4	[0, 0, 0]	n/a	catFR1	1	R1028M
724.334	2.55	11047562	WORD	n/a	wordpools/wordpool_categorized_EN.txt	SPARROW	Birds	2	4	[0, 0, 0]	n/a	catFR1	1	R1028M
726.884	2.617	11048837	WORD	n/a	wordpools/wordpool_categorized_EN.txt	DOLL	Toys	3	4	[0, 0, 0]	n/a	catFR1	1	R1028M
729.501	2.534	11050146	WORD	n/a	wordpools/wordpool_categorized_EN.txt	BASEBALL	Toys	4	4	[0, 0, 0]	n/a	catFR1	1	R1028M
732.035	2.517	11051413	WORD	n/a	wordpools/wordpool_categorized_EN.txt	DRYER	Appliances	5	4	[0, 0, 0]	n/a	catFR1	1	R1028M
734.552	2.384	11052671	WORD	n/a	wordpools/wordpool_categorized_EN.txt	VACUUM	Appliances	6	4	[0, 0, 0]	n/a	catFR1	1	R1028M
736.936	2.451	11053863	WORD	n/a	wordpools/wordpool_categorized_EN.txt	SLINKY	Toys	7	4	[0, 0, 0]	n/a	catFR1	1	R1028M
739.387	2.4	11055088	WORD	n/a	wordpools/wordpool_categorized_EN.txt	BALL	Toys	8	4	[0, 0, 0]	n/a	catFR1	1	R1028M
741.787	2.55	11056288	WORD	n/a	wordpools/wordpool_categorized_EN.txt	DOVE	Birds	9	4	[0, 0, 0]	n/a	catFR1	1	R1028M
744.337	2.601	11057563	WORD	n/a	wordpools/wordpool_categorized_EN.txt	CARDINAL	Birds	10	4	[0, 0, 0]	n/a	catFR1	1	R1028M
746.938	2.434	11058863	WORD	n/a	wordpools/wordpool_categorized_EN.txt	MIXER	Appliances	11	4	[0, 0, 0]	n/a	catFR1	1	R1028M
749.372	1.617	11060080	WORD	n/a	wordpools/wordpool_categorized_EN.txt	BLENDER	Appliances	12	4	[0, 0, 0]	n/a	catFR1	1	R1028M
750.989	0.001	11060889	DISTRACT_START	n/a	n/a	n/a	n/a	-999	4	[0, 0, 0]	n/a	catFR1	1	R1028M
750.99	0.016	11060889	START	n/a	n/a	n/a	n/a	-999	5	[-999, -999, -999]	n/a	catFR1	1	R1028M
751.006	3.9	11060897	PROB	3.9	n/a	n/a	n/a	-999	5	[2, 5, 9]	16	catFR1	1	R1028M
754.906	5.701	11062847	PROB	5.701	n/a	n/a	n/a	-999	5	[8, 4, 5]	17	catFR1	1	R1028M
760.607	6.552	11065697	PROB	6.552	n/a	n/a	n/a	-999	5	[8, 9, 2]	19	catFR1	1	R1028M
767.159	3.183	11068973	PROB	3.183	n/a	n/a	n/a	-999	5	[6, 4, 8]	18	catFR1	1	R1028M
770.342	2.997	11070564	PROB	2.997	n/a	n/a	n/a	-999	5	[2, 1, 1]	4	catFR1	1	R1028M
773.339	0.021	11072062	STOP	n/a	n/a	n/a	n/a	-999	5	[-999, -999, -999]	n/a	catFR1	1	R1028M
773.36	1.084	11072073	DISTRACT_END	n/a	n/a	n/a	n/a	-999	4	[0, 0, 0]	n/a	catFR1	1	R1028M
774.444	1.462	11072615	REC_START	n/a	n/a	n/a	n/a	-999	4	[0, 0, 0]	n/a	catFR1	1	R1028M
775.906	0.959	11073346	REC_WORD	0.959	n/a	DOLL	Toys	3	4	[0, 0, 0]	n/a	catFR1	1	R1028M
776.865	1.985	11073825	REC_WORD	1.985	n/a	BASEBALL	Toys	4	4	[0, 0, 0]	n/a	catFR1	1	R1028M
778.85	0.844	11074818	REC_WORD	0.844	n/a	BALL	Toys	8	4	[0, 0, 0]	n/a	catFR1	1	R1028M
779.694	1.208	11075240	REC_WORD	1.208	n/a	SLINKY	Toys	7	4	[0, 0, 0]	n/a	catFR1	1	R1028M
780.902	0.691	11075844	REC_WORD	0.691	n/a	CARDINAL	Birds	10	4	[0, 0, 0]	n/a	catFR1	1	R1028M
781.593	1.687	11076189	REC_WORD	1.687	n/a	SPARROW	Birds	2	4	[0, 0, 0]	n/a	catFR1	1	R1028M
783.28	1.149	11077032	REC_WORD	1.149	n/a	DOVE	Birds	9	4	[0, 0, 0]	n/a	catFR1	1	R1028M
784.429	0.982	11077607	REC_WORD	0.982	n/a	DUCK	Birds	1	4	[0, 0, 0]	n/a	catFR1	1	R1028M
785.411	1.003	11078098	REC_WORD	1.003	n/a	VACUUM	Appliances	6	4	[0, 0, 0]	n/a	catFR1	1	R1028M
786.414	1.213	11078599	REC_WORD	1.213	n/a	BLENDER	Appliances	12	4	[0, 0, 0]	n/a	catFR1	1	R1028M
787.627	5.261	11079206	REC_WORD	5.261	n/a	MIXER	Appliances	11	4	[0, 0, 0]	n/a	catFR1	1	R1028M
792.888	11.571	11081836	REC_WORD	11.571	n/a	CARDINAL	Birds	10	4	[0, 0, 0]	n/a	catFR1	1	R1028M
804.459	39.331	11087621	REC_END	n/a	n/a	n/a	n/a	-999	4	[0, 0, 0]	n/a	catFR1	1	R1028M
843.79	0.0	11107284	TRIAL	n/a	n/a	n/a	n/a	-999	5	[0, 0, 0]	n/a	catFR1	1	R1028M
843.79	10.428	11107284	COUNTDOWN_START	n/a	n/a	n/a	n/a	-999	5	[0, 0, 0]	n/a	catFR1	1	R1028M
854.218	0.008	11112498	COUNTDOWN_END	n/a	n/a	n/a	n/a	-999	5	[0, 0, 0]	n/a	catFR1	1	R1028M
854.226	3.734	11112502	ORIENT	n/a	n/a	n/a	n/a	-999	5	[0, 0, 0]	n/a	catFR1	1	R1028M
857.96	2.467	11114369	WORD	n/a	wordpools/wordpool_categorized_EN.txt	FLUTE	Instruments	1	5	[0, 0, 0]	n/a	catFR1	1	R1028M
860.427	2.6	11115602	WORD	n/a	wordpools/wordpool_categorized_EN.txt	ORGAN	Instruments	2	5	[0, 0, 0]	n/a	catFR1	1	R1028M
863.027	2.551	11116902	WORD	n/a	wordpools/wordpool_categorized_EN.txt	BUS	Vehicles	3	5	[0, 0, 0]	n/a	catFR1	1	R1028M
865.578	2.567	11118177	WORD	n/a	wordpools/wordpool_categorized_EN.txt	JEEP	Vehicles	4	5	[0, 0, 0]	n/a	catFR1	1	R1028M
868.145	2.55	11119460	WORD	n/a	wordpools/wordpool_categorized_EN.txt	PUZZLE	Toys	5	5	[0, 0, 0]	n/a	catFR1	1	R1028M
870.695	2.451	11120735	WORD	n/a	wordpools/wordpool_categorized_EN.txt	DOLLHOUSE	Toys	6	5	[0, 0, 0]	n/a	catFR1	1	R1028M
873.146	2.434	11121961	WORD	n/a	wordpools/wordpool_categorized_EN.txt	TRAIN	Vehicles	7	5	[0, 0, 0]	n/a	catFR1	1	R1028M
875.58	2.4	11123178	WORD	n/a	wordpools/wordpool_categorized_EN.txt	PLANE	Vehicles	8	5	[0, 0, 0]	n/a	catFR1	1	R1028M
877.98	2.451	11124377	WORD	n/a	wordpools/wordpool_categorized_EN.txt	BANJO	Instruments	9	5	[0, 0, 0]	n/a	catFR1	1	R1028M
880.431	2.567	11125603	WORD	n/a	wordpools/wordpool_categorized_EN.txt	VIOLIN	Instruments	10	5	[0, 0, 0]	n/a	catFR1	1	R1028M
882.998	2.45	11126886	WORD	n/a	wordpools/wordpool_categorized_EN.txt	FOOTBALL	Toys	11	5	[0, 0, 0]	n/a	catFR1	1	R1028M
885.448	1.617	11128111	WORD	n/a	wordpools/wordpool_categorized_EN.txt	MARBLES	Toys	12	5	[0, 0, 0]	n/a	catFR1	1	R1028M
887.065	0.001	11128919	DISTRACT_START	n/a	n/a	n/a	n/a	-999	5	[0, 0, 0]	n/a	catFR1	1	R1028M
887.066	0.016	11128920	START	n/a	n/a	n/a	n/a	-999	6	[-999, -999, -999]	n/a	catFR1	1	R1028M
887.082	3.967	11128928	PROB	3.967	n/a	n/a	n/a	-999	6	[7, 1, 2]	10	catFR1	1	R1028M
891.049	3.951	11130911	PROB	3.951	n/a	n/a	n/a	-999	6	[3, 4, 5]	12	catFR1	1	R1028M
895.0	5.751	11132887	PROB	5.751	n/a	n/a	n/a	-999	6	[5, 9, 6]	20	catFR1	1	R1028M
900.751	3.368	11135762	PROB	3.368	n/a	n/a	n/a	-999	6	[7, 5, 3]	15	catFR1	1	R1028M
904.119	14.117	11137446	PROB	14.117	n/a	n/a	n/a	-999	6	[8, 8, 9]	25	catFR1	1	R1028M
918.236	0.019	11144503	STOP	n/a	n/a	n/a	n/a	-999	6	[-999, -999, -999]	n/a	catFR1	1	R1028M
918.255	1.034	11144513	DISTRACT_END	n/a	n/a	n/a	n/a	-999	5	[0, 0, 0]	n/a	catFR1	1	R1028M
919.289	1.375	11145030	REC_START	n/a	n/a	n/a	n/a	-999	5	[0, 0, 0]	n/a	catFR1	1	R1028M
920.664	1.779	11145717	REC_WORD	1.779	n/a	FOOTBALL	Toys	11	5	[0, 0, 0]	n/a	catFR1	1	R1028M
922.443	4.527	11146607	REC_WORD	4.527	n/a	DOLLHOUSE	Toys	6	5	[0, 0, 0]	n/a	catFR1	1	R1028M
926.97	0.989	11148870	REC_WORD	0.989	n/a	TRAIN	Vehicles	7	5	[0, 0, 0]	n/a	catFR1	1	R1028M
927.959	1.337	11149364	REC_WORD	1.337	n/a	PLANE	Vehicles	8	5	[0, 0, 0]	n/a	catFR1	1	R1028M
929.296	20.004	11150033	REC_WORD	20.004	n/a	BUS	Vehicles	3	5	[0, 0, 0]	n/a	catFR1	1	R1028M
949.3	132.486	11160034	REC_END	n/a	n/a	n/a	n/a	-999	5	[0, 0, 0]	n/a	catFR1	1	R1028M
1081.786	0.0	11226270	TRIAL	n/a	n/a	n/a	n/a	-999	6	[0, 0, 0]	n/a	catFR1	1	R1028M
1081.786	10.428	11226270	COUNTDOWN_START	n/a	n/a	n/a	n/a	-999	6	[0, 0, 0]	n/a	catFR1	1	R1028M
1092.214	0.007	11231483	COUNTDOWN_END	n/a	n/a	n/a	n/a	-999	6	[0, 0, 0]	n/a	catFR1	1	R1028M
1092.221	3.934	11231487	ORIENT	n/a	n/a	n/a	n/a	-999	6	[0, 0, 0]	n/a	catFR1	1	R1028M
1096.155	2.601	11233454	WORD	n/a	wordpools/wordpool_categorized_EN.txt	SPRUCE	Trees	1	6	[0, 0, 0]	n/a	catFR1	1	R1028M
1098.756	2.567	11234754	WORD	n/a	wordpools/wordpool_categorized_EN.txt	WILLOW	Trees	2	6	[0, 0, 0]	n/a	catFR1	1	R1028M
1101.323	2.401	11236037	WORD	n/a	wordpools/wordpool_categorized_EN.txt	JACKET	Clothing	3	6	[0, 0, 0]	n/a	catFR1	1	R1028M
1103.724	2.5	11237238	WORD	n/a	wordpools/wordpool_categorized_EN.txt	DRESS	Clothing	4	6	[0, 0, 0]	n/a	catFR1	1	R1028M
1106.224	2.567	11238488	WORD	n/a	wordpools/wordpool_categorized_EN.txt	JELLO	Desserts	5	6	[0, 0, 0]	n/a	catFR1	1	R1028M
1108.791	2.417	11239771	WORD	n/a	wordpools/wordpool_categorized_EN.txt	FUDGE	Desserts	6	6	[0, 0, 0]	n/a	catFR1	1	R1028M
1111.208	2.567	11240979	WORD	n/a	wordpools/wordpool_categorized_EN.txt	BLOUSE	Clothing	7	6	[0, 0, 0]	n/a	catFR1	1	R1028M
1113.775	2.401	11242263	WORD	n/a	wordpools/wordpool_categorized_EN.txt	PANTS	Clothing	8	6	[0, 0, 0]	n/a	catFR1	1	R1028M
1116.176	2.567	11243463	WORD	n/a	wordpools/wordpool_categorized_EN.txt	CEDAR	Trees	9	6	[0, 0, 0]	n/a	catFR1	1	R1028M
1118.743	2.617	11244746	WORD	n/a	wordpools/wordpool_categorized_EN.txt	HICKORY	Trees	10	6	[0, 0, 0]	n/a	catFR1	1	R1028M
1121.36	2.584	11246055	WORD	n/a	wordpools/wordpool_categorized_EN.txt	PASTRY	Desserts	11	6	[0, 0, 0]	n/a	catFR1	1	R1028M
1123.944	1.617	11247347	WORD	n/a	wordpools/wordpool_categorized_EN.txt	MOUSSE	Desserts	12	6	[0, 0, 0]	n/a	catFR1	1	R1028M
1125.561	0.001	11248155	DISTRACT_START	n/a	n/a	n/a	n/a	-999	6	[0, 0, 0]	n/a	catFR1	1	R1028M
1125.562	0.016	11248156	START	n/a	n/a	n/a	n/a	-999	7	[-999, -999, -999]	n/a	catFR1	1	R1028M
1125.578	7.434	11248164	PROB	7.434	n/a	n/a	n/a	-999	7	[7, 8, 5]	20	catFR1	1	R1028M
1133.012	3.251	11251880	PROB	3.251	n/a	n/a	n/a	-999	7	[3, 1, 1]	5	catFR1	1	R1028M
1136.263	5.568	11253506	PROB	5.568	n/a	n/a	n/a	-999	7	[2, 9, 6]	17	catFR1	1	R1028M
1141.831	6.349	11256289	PROB	6.349	n/a	n/a	n/a	-999	7	[7, 8, 4]	19	catFR1	1	R1028M
1148.18	0.019	11259463	STOP	n/a	n/a	n/a	n/a	-999	7	[-999, -999, -999]	n/a	catFR1	1	R1028M
1148.199	1.101	11259473	DISTRACT_END	n/a	n/a	n/a	n/a	-999	6	[0, 0, 0]	n/a	catFR1	1	R1028M
1149.3	2.602	11260023	REC_START	n/a	n/a	n/a	n/a	-999	6	[0, 0, 0]	n/a	catFR1	1	R1028M
1151.902	1.502	11261324	REC_WORD	1.502	n/a	SPRUCE	Trees	1	6	[0, 0, 0]	n/a	catFR1	1	R1028M
1153.404	0.907	11262075	REC_WORD	0.907	n/a	WILLOW	Trees	2	6	[0, 0, 0]	n/a	catFR1	1	R1028M
1154.311	2.318	11262529	REC_WORD	2.318	n/a	CEDAR	Trees	9	6	[0, 0, 0]	n/a	catFR1	1	R1028M
1156.629	1.322	11263687	REC_WORD	1.322	n/a	OAK	n/a	-999	6	[0, 0, 0]	n/a	catFR1	1	R1028M
1157.951	1.06	11264348	REC_WORD	1.06	n/a	JACKET	Clothing	3	6	[0, 0, 0]	n/a	catFR1	1	R1028M
1159.011	1.224	11264878	REC_WORD	1.224	n/a	BLOUSE	Clothing	7	6	[0, 0, 0]	n/a	catFR1	1	R1028M
1160.235	3.228	11265490	REC_WORD	3.228	n/a	PANTS	Clothing	8	6	[0, 0, 0]	n/a	catFR1	1	R1028M
1163.463	8.312	11267104	REC_WORD	8.312	n/a	FUDGE	Desserts	6	6	[0, 0, 0]	n/a	catFR1	1	R1028M
1171.775	2.835	11271260	REC_WORD	2.835	n/a	MOUSSE	Desserts	12	6	[0, 0, 0]	n/a	catFR1	1	R1028M
1174.61	4.701	11272677	REC_WORD	4.701	n/a	BROWNIES	n/a	-999	6	[0, 0, 0]	n/a	catFR1	1	R1028M
1179.311	72.091	11275027	REC_END	n/a	n/a	n/a	n/a	-999	6	[0, 0, 0]	n/a	catFR1	1	R1028M
1251.402	0.0	11311069	COUNTDOWN_START	n/a	n/a	n/a	n/a	-999	7	[0, 0, 0]	n/a	catFR1	1	R1028M
1251.402	10.428	11311069	TRIAL	n/a	n/a	n/a	n/a	-999	7	[0, 0, 0]	n/a	catFR1	1	R1028M
1261.83	0.007	11316283	COUNTDOWN_END	n/a	n/a	n/a	n/a	-999	7	[0, 0, 0]	n/a	catFR1	1	R1028M
1261.837	3.768	11316286	ORIENT	n/a	n/a	n/a	n/a	-999	7	[0, 0, 0]	n/a	catFR1	1	R1028M
1265.605	2.517	11318170	WORD	n/a	wordpools/wordpool_categorized_EN.txt	HILLS	Landscapes	1	7	[0, 0, 0]	n/a	catFR1	1	R1028M
1268.122	2.6	11319428	WORD	n/a	wordpools/wordpool_categorized_EN.txt	RIVER	Landscapes	2	7	[0, 0, 0]	n/a	catFR1	1	R1028M
1270.722	2.534	11320728	WORD	n/a	wordpools/wordpool_categorized_EN.txt	COFFEE	Beverages	3	7	[0, 0, 0]	n/a	catFR1	1	R1028M
1273.256	2.417	11321995	WORD	n/a	wordpools/wordpool_categorized_EN.txt	CIDER	Beverages	4	7	[0, 0, 0]	n/a	catFR1	1	R1028M
1275.673	2.484	11323203	WORD	n/a	wordpools/wordpool_categorized_EN.txt	PETUNIA	Flowers	5	7	[0, 0, 0]	n/a	catFR1	1	R1028M
1278.157	2.484	11324445	WORD	n/a	wordpools/wordpool_categorized_EN.txt	VIOLET	Flowers	6	7	[0, 0, 0]	n/a	catFR1	1	R1028M
1280.641	2.5	11325687	WORD	n/a	wordpools/wordpool_categorized_EN.txt	JUICE	Beverages	7	7	[0, 0, 0]	n/a	catFR1	1	R1028M
1283.141	2.451	11326937	WORD	n/a	wordpools/wordpool_categorized_EN.txt	LEMONADE	Beverages	8	7	[0, 0, 0]	n/a	catFR1	1	R1028M
1285.592	2.417	11328162	WORD	n/a	wordpools/wordpool_categorized_EN.txt	MOUNTAIN	Landscapes	9	7	[0, 0, 0]	n/a	catFR1	1	R1028M
1288.009	2.484	11329371	WORD	n/a	wordpools/wordpool_categorized_EN.txt	FOREST	Landscapes	10	7	[0, 0, 0]	n/a	catFR1	1	R1028M
1290.493	2.384	11330613	WORD	n/a	wordpools/wordpool_categorized_EN.txt	LILAC	Flowers	11	7	[0, 0, 0]	n/a	catFR1	1	R1028M
1292.877	1.617	11331804	WORD	n/a	wordpools/wordpool_categorized_EN.txt	ROSE	Flowers	12	7	[0, 0, 0]	n/a	catFR1	1	R1028M
1294.494	0.001	11332613	DISTRACT_START	n/a	n/a	n/a	n/a	-999	7	[0, 0, 0]	n/a	catFR1	1	R1028M
1294.495	0.015	11332613	START	n/a	n/a	n/a	n/a	-999	8	[-999, -999, -999]	n/a	catFR1	1	R1028M
1294.51	3.684	11332621	PROB	3.684	n/a	n/a	n/a	-999	8	[3, 9, 7]	19	catFR1	1	R1028M
1298.194	5.451	11334463	PROB	5.451	n/a	n/a	n/a	-999	8	[5, 6, 6]	17	catFR1	1	R1028M
1303.645	4.268	11337188	PROB	4.268	n/a	n/a	n/a	-999	8	[9, 3, 7]	19	catFR1	1	R1028M
1307.913	3.984	11339322	PROB	3.984	n/a	n/a	n/a	-999	8	[2, 1, 7]	10	catFR1	1	R1028M
1311.897	5.643	11341313	PROB	5.643	n/a	n/a	n/a	-999	8	[1, 5, 8]	14	catFR1	1	R1028M
1317.54	0.008	11344135	STOP	n/a	n/a	n/a	n/a	-999	8	[-999, -999, -999]	n/a	catFR1	1	R1028M
1317.548	1.151	11344139	DISTRACT_END	n/a	n/a	n/a	n/a	-999	7	[0, 0, 0]	n/a	catFR1	1	R1028M
1318.699	1.011	11344714	REC_START	n/a	n/a	n/a	n/a	-999	7	[0, 0, 0]	n/a	catFR1	1	R1028M
1319.71	1.187	11345220	REC_WORD	1.187	n/a	MOUNTAIN	Landscapes	9	7	[0, 0, 0]	n/a	catFR1	1	R1028M
1320.897	1.236	11345813	REC_WORD	1.236	n/a	HILLS	Landscapes	1	7	[0, 0, 0]	n/a	catFR1	1	R1028M
1322.133	1.001	11346431	REC_WORD	1.001	n/a	RIVER	Landscapes	2	7	[0, 0, 0]	n/a	catFR1	1	R1028M
1323.134	1.702	11346931	REC_WORD	1.702	n/a	FOREST	Landscapes	10	7	[0, 0, 0]	n/a	catFR1	1	R1028M
1324.836	2.627	11347782	REC_WORD	2.627	n/a	VIOLET	Flowers	6	7	[0, 0, 0]	n/a	catFR1	1	R1028M
1327.463	1.451	11349096	REC_WORD	1.451	n/a	PETUNIA	Flowers	5	7	[0, 0, 0]	n/a	catFR1	1	R1028M
1328.914	2.353	11349821	REC_WORD	2.353	n/a	ROSE	Flowers	12	7	[0, 0, 0]	n/a	catFR1	1	R1028M
1331.267	1.865	11350997	REC_WORD	1.865	n/a	COFFEE	Beverages	3	7	[0, 0, 0]	n/a	catFR1	1	R1028M
1333.132	1.334	11351930	REC_WORD	1.334	n/a	LEMONADE	Beverages	8	7	[0, 0, 0]	n/a	catFR1	1	R1028M
1334.466	6.22	11352597	REC_WORD	6.22	n/a	CIDER	Beverages	4	7	[0, 0, 0]	n/a	catFR1	1	R1028M
1340.686	7.772	11355706	REC_WORD	7.772	n/a	PETUNIA	Flowers	5	7	[0, 0, 0]	n/a	catFR1	1	R1028M
1348.458	0.252	11359592	REC_WORD	0.252	n/a	HILLS	Landscapes	1	7	[0, 0, 0]	n/a	catFR1	1	R1028M
1348.71	369.631	11359718	REC_END	n/a	n/a	n/a	n/a	-999	7	[0, 0, 0]	n/a	catFR1	1	R1028M
1718.341	0.0	11544514	TRIAL	n/a	n/a	n/a	n/a	-999	8	[0, 0, 0]	n/a	catFR1	1	R1028M
1718.341	10.428	11544514	COUNTDOWN_START	n/a	n/a	n/a	n/a	-999	8	[0, 0, 0]	n/a	catFR1	1	R1028M
1728.769	0.008	11549728	COUNTDOWN_END	n/a	n/a	n/a	n/a	-999	8	[0, 0, 0]	n/a	catFR1	1	R1028M
1728.777	3.601	11549732	ORIENT	n/a	n/a	n/a	n/a	-999	8	[0, 0, 0]	n/a	catFR1	1	R1028M
1732.378	2.517	11551532	WORD	n/a	wordpools/wordpool_categorized_EN.txt	CUCUMBER	Vegetables	1	8	[0, 0, 0]	n/a	catFR1	1	R1028M
1734.895	2.517	11552790	WORD	n/a	wordpools/wordpool_categorized_EN.txt	PEAS	Vegetables	2	8	[0, 0, 0]	n/a	catFR1	1	R1028M
1737.412	2.501	11554049	WORD	n/a	wordpools/wordpool_categorized_EN.txt	WALL	Building	3	8	[0, 0, 0]	n/a	catFR1	1	R1028M
1739.913	2.4	11555299	WORD	n/a	wordpools/wordpool_categorized_EN.txt	ATTIC	Building	4	8	[0, 0, 0]	n/a	catFR1	1	R1028M
1742.313	2.551	11556499	WORD	n/a	wordpools/wordpool_categorized_EN.txt	SHEEP	FarmAnimals	5	8	[0, 0, 0]	n/a	catFR1	1	R1028M
1744.864	2.482	11557774	WORD	n/a	wordpools/wordpool_categorized_EN.txt	TURKEY	FarmAnimals	6	8	[0, 0, 0]	n/a	catFR1	1	R1028M
1747.346	2.602	11559015	WORD	n/a	wordpools/wordpool_categorized_EN.txt	ROOF	Building	7	8	[0, 0, 0]	n/a	catFR1	1	R1028M
1749.948	2.617	11560316	WORD	n/a	wordpools/wordpool_categorized_EN.txt	BATHROOM	Building	8	8	[0, 0, 0]	n/a	catFR1	1	R1028M
1752.565	2.434	11561625	WORD	n/a	wordpools/wordpool_categorized_EN.txt	ONION	Vegetables	9	8	[0, 0, 0]	n/a	catFR1	1	R1028M
1754.999	2.617	11562841	WORD	n/a	wordpools/wordpool_categorized_EN.txt	CELERY	Vegetables	10	8	[0, 0, 0]	n/a	catFR1	1	R1028M
1757.616	2.384	11564150	WORD	n/a	wordpools/wordpool_categorized_EN.txt	LAMB	FarmAnimals	11	8	[0, 0, 0]	n/a	catFR1	1	R1028M
1760.0	1.617	11565342	WORD	n/a	wordpools/wordpool_categorized_EN.txt	BULL	FarmAnimals	12	8	[0, 0, 0]	n/a	catFR1	1	R1028M
1761.617	0.001	11566150	DISTRACT_START	n/a	n/a	n/a	n/a	-999	8	[0, 0, 0]	n/a	catFR1	1	R1028M
1761.618	0.015	11566151	START	n/a	n/a	n/a	n/a	-999	9	[-999, -999, -999]	n/a	catFR1	1	R1028M
1761.633	3.501	11566158	PROB	3.501	n/a	n/a	n/a	-999	9	[8, 2, 5]	15	catFR1	1	R1028M
1765.134	5.551	11567908	PROB	5.551	n/a	n/a	n/a	-999	9	[9, 9, 9]	27	catFR1	1	R1028M
1770.685	5.518	11570684	PROB	5.518	n/a	n/a	n/a	-999	9	[4, 8, 5]	17	catFR1	1	R1028M
1776.203	6.297	11573442	PROB	6.297	n/a	n/a	n/a	-999	9	[8, 9, 5]	22	catFR1	1	R1028M
1782.5	0.021	11576590	STOP	n/a	n/a	n/a	n/a	-999	9	[-999, -999, -999]	n/a	catFR1	1	R1028M
1782.521	1.034	11576601	DISTRACT_END	n/a	n/a	n/a	n/a	-999	8	[0, 0, 0]	n/a	catFR1	1	R1028M
1783.555	1.724	11577118	REC_START	n/a	n/a	n/a	n/a	-999	8	[0, 0, 0]	n/a	catFR1	1	R1028M
1785.279	1.077	11577980	REC_WORD	1.077	n/a	ATTIC	Building	4	8	[0, 0, 0]	n/a	catFR1	1	R1028M
1786.356	2.44	11578518	REC_WORD	2.44	n/a	ROOF	Building	7	8	[0, 0, 0]	n/a	catFR1	1	R1028M
1788.796	1.083	11579738	REC_WORD	1.083	n/a	PEAS	Vegetables	2	8	[0, 0, 0]	n/a	catFR1	1	R1028M
1789.879	1.224	11580280	REC_WORD	1.224	n/a	CUCUMBER	Vegetables	1	8	[0, 0, 0]	n/a	catFR1	1	R1028M
1791.103	2.109	11580892	REC_WORD	2.109	n/a	ONION	Vegetables	9	8	[0, 0, 0]	n/a	catFR1	1	R1028M
1793.212	1.162	11581946	REC_WORD	1.162	n/a	CELERY	Vegetables	10	8	[0, 0, 0]	n/a	catFR1	1	R1028M
1794.374	1.086	11582527	REC_WORD	1.086	n/a	SHEEP	FarmAnimals	5	8	[0, 0, 0]	n/a	catFR1	1	R1028M
1795.46	1.933	11583070	REC_WORD	1.933	n/a	TURKEY	FarmAnimals	6	8	[0, 0, 0]	n/a	catFR1	1	R1028M
1797.393	1.352	11584036	REC_WORD	1.352	n/a	BULL	FarmAnimals	12	8	[0, 0, 0]	n/a	catFR1	1	R1028M
1798.745	4.649	11584712	REC_WORD	4.649	n/a	LAMB	FarmAnimals	11	8	[0, 0, 0]	n/a	catFR1	1	R1028M
1803.394	10.172	11587036	REC_WORD	10.172	n/a	BATHROOM	Building	8	8	[0, 0, 0]	n/a	catFR1	1	R1028M
1813.566	16.614	11592122	REC_END	n/a	n/a	n/a	n/a	-999	8	[0, 0, 0]	n/a	catFR1	1	R1028M
1830.18	0.0	11600428	TRIAL	n/a	n/a	n/a	n/a	-999	9	[0, 0, 0]	n/a	catFR1	1	R1028M
1830.18	10.428	11600428	COUNTDOWN_START	n/a	n/a	n/a	n/a	-999	9	[0, 0, 0]	n/a	catFR1	1	R1028M
1840.608	0.007	11605641	COUNTDOWN_END	n/a	n/a	n/a	n/a	-999	9	[0, 0, 0]	n/a	catFR1	1	R1028M
1840.615	3.918	11605645	ORIENT	n/a	n/a	n/a	n/a	-999	9	[0, 0, 0]	n/a	catFR1	1	R1028M
1844.533	2.384	11607604	WORD	n/a	wordpools/wordpool_categorized_EN.txt	WASHER	Appliances	1	9	[0, 0, 0]	n/a	catFR1	1	R1028M
1846.917	2.433	11608796	WORD	n/a	wordpools/wordpool_categorized_EN.txt	TOASTER	Appliances	2	9	[0, 0, 0]	n/a	catFR1	1	R1028M
1849.35	2.567	11610012	WORD	n/a	wordpools/wordpool_categorized_EN.txt	DAFFODIL	Flowers	3	9	[0, 0, 0]	n/a	catFR1	1	R1028M
1851.917	2.518	11611295	WORD	n/a	wordpools/wordpool_categorized_EN.txt	TULIP	Flowers	4	9	[0, 0, 0]	n/a	catFR1	1	R1028M
1854.435	2.55	11612554	WORD	n/a	wordpools/wordpool_categorized_EN.txt	ELBOW	BodyParts	5	9	[0, 0, 0]	n/a	catFR1	1	R1028M
1856.985	2.517	11613829	WORD	n/a	wordpools/wordpool_categorized_EN.txt	TOE	BodyParts	6	9	[0, 0, 0]	n/a	catFR1	1	R1028M
1859.502	2.434	11615087	WORD	n/a	wordpools/wordpool_categorized_EN.txt	SUNFLOWER	Flowers	7	9	[0, 0, 0]	n/a	catFR1	1	R1028M
1861.936	2.484	11616304	WORD	n/a	wordpools/wordpool_categorized_EN.txt	ORCHID	Flowers	8	9	[0, 0, 0]	n/a	catFR1	1	R1028M
1864.42	2.467	11617546	WORD	n/a	wordpools/wordpool_categorized_EN.txt	IRON	Appliances	9	9	[0, 0, 0]	n/a	catFR1	1	R1028M
1866.887	2.484	11618780	WORD	n/a	wordpools/wordpool_categorized_EN.txt	STOVE	Appliances	10	9	[0, 0, 0]	n/a	catFR1	1	R1028M
1869.371	2.383	11620021	WORD	n/a	wordpools/wordpool_categorized_EN.txt	HAND	BodyParts	11	9	[0, 0, 0]	n/a	catFR1	1	R1028M
1871.754	1.618	11621213	WORD	n/a	wordpools/wordpool_categorized_EN.txt	NOSE	BodyParts	12	9	[0, 0, 0]	n/a	catFR1	1	R1028M
1873.372	0.001	11622022	DISTRACT_START	n/a	n/a	n/a	n/a	-999	9	[0, 0, 0]	n/a	catFR1	1	R1028M
1873.373	0.015	11622022	START	n/a	n/a	n/a	n/a	-999	10	[-999, -999, -999]	n/a	catFR1	1	R1028M
1873.388	5.568	11622030	PROB	5.568	n/a	n/a	n/a	-999	10	[8, 3, 9]	20	catFR1	1	R1028M
1878.956	13.419	11624813	PROB	13.419	n/a	n/a	n/a	-999	10	[5, 7, 9]	23	catFR1	1	R1028M
1892.375	4.469	11631522	PROB	4.469	n/a	n/a	n/a	-999	10	[4, 3, 7]	14	catFR1	1	R1028M
1896.844	0.015	11633757	STOP	n/a	n/a	n/a	n/a	-999	10	[-999, -999, -999]	n/a	catFR1	1	R1028M
1896.859	1.051	11633764	DISTRACT_END	n/a	n/a	n/a	n/a	-999	9	[0, 0, 0]	n/a	catFR1	1	R1028M
1897.91	1.631	11634290	REC_START	n/a	n/a	n/a	n/a	-999	9	[0, 0, 0]	n/a	catFR1	1	R1028M
1899.541	1.457	11635105	REC_WORD	1.457	n/a	STOVE	Appliances	10	9	[0, 0, 0]	n/a	catFR1	1	R1028M
1900.998	1.015	11635833	REC_WORD	1.015	n/a	MICROWAVE	n/a	-999	9	[0, 0, 0]	n/a	catFR1	1	R1028M
1902.013	1.763	11636341	REC_WORD	1.763	n/a	DRYER	n/a	-999	9	[0, 0, 0]	n/a	catFR1	1	R1028M
1903.776	1.324	11637222	REC_WORD	1.324	n/a	TOASTER	Appliances	2	9	[0, 0, 0]	n/a	catFR1	1	R1028M
1905.1	2.639	11637884	REC_WORD	2.639	n/a	DAFFODIL	Flowers	3	9	[0, 0, 0]	n/a	catFR1	1	R1028M
1907.739	13.182	11639203	REC_WORD	13.182	n/a	TULIP	Flowers	4	9	[0, 0, 0]	n/a	catFR1	1	R1028M
1920.921	0.577	11645794	REC_WORD	0.577	n/a	IRON	Appliances	9	9	[0, 0, 0]	n/a	catFR1	1	R1028M
1921.498	0.653	11646082	REC_WORD	0.653	n/a	HAND	BodyParts	11	9	[0, 0, 0]	n/a	catFR1	1	R1028M
1922.151	0.504	11646409	REC_WORD	0.504	n/a	NOSE	BodyParts	12	9	[0, 0, 0]	n/a	catFR1	1	R1028M
1922.655	5.27	11646661	REC_WORD	5.27	n/a	TOE	BodyParts	6	9	[0, 0, 0]	n/a	catFR1	1	R1028M
1927.925	88.841	11649295	REC_END	n/a	n/a	n/a	n/a	-999	9	[0, 0, 0]	n/a	catFR1	1	R1028M
2016.766	0.0	11693711	TRIAL	n/a	n/a	n/a	n/a	-999	10	[0, 0, 0]	n/a	catFR1	1	R1028M
2016.766	10.428	11693711	COUNTDOWN_START	n/a	n/a	n/a	n/a	-999	10	[0, 0, 0]	n/a	catFR1	1	R1028M
2027.194	0.007	11698925	COUNTDOWN_END	n/a	n/a	n/a	n/a	-999	10	[0, 0, 0]	n/a	catFR1	1	R1028M
2027.201	3.618	11698928	ORIENT	n/a	n/a	n/a	n/a	-999	10	[0, 0, 0]	n/a	catFR1	1	R1028M
2030.819	2.567	11700737	WORD	n/a	wordpools/wordpool_categorized_EN.txt	TELEVISION	Electronics	1	10	[0, 0, 0]	n/a	catFR1	1	R1028M
2033.386	2.6	11702020	WORD	n/a	wordpools/wordpool_categorized_EN.txt	SCANNER	Electronics	2	10	[0, 0, 0]	n/a	catFR1	1	R1028M
2035.986	2.567	11703320	WORD	n/a	wordpools/wordpool_categorized_EN.txt	BEACH	Landscapes	3	10	[0, 0, 0]	n/a	catFR1	1	R1028M
2038.553	2.418	11704604	WORD	n/a	wordpools/wordpool_categorized_EN.txt	VALLEY	Landscapes	4	10	[0, 0, 0]	n/a	catFR1	1	R1028M
2040.971	2.55	11705813	WORD	n/a	wordpools/wordpool_categorized_EN.txt	STRAINER	KitchenTools	5	10	[0, 0, 0]	n/a	catFR1	1	R1028M
2043.521	2.551	11707087	WORD	n/a	wordpools/wordpool_categorized_EN.txt	SPOON	KitchenTools	6	10	[0, 0, 0]	n/a	catFR1	1	R1028M
2046.072	2.383	11708363	WORD	n/a	wordpools/wordpool_categorized_EN.txt	STREAM	Landscapes	7	10	[0, 0, 0]	n/a	catFR1	1	R1028M
2048.455	2.467	11709554	WORD	n/a	wordpools/wordpool_categorized_EN.txt	LAKE	Landscapes	8	10	[0, 0, 0]	n/a	catFR1	1	R1028M
2050.922	2.518	11710788	WORD	n/a	wordpools/wordpool_categorized_EN.txt	PHONE	Electronics	9	10	[0, 0, 0]	n/a	catFR1	1	R1028M
2053.44	2.567	11712046	WORD	n/a	wordpools/wordpool_categorized_EN.txt	SPEAKER	Electronics	10	10	[0, 0, 0]	n/a	catFR1	1	R1028M
2056.007	2.417	11713330	WORD	n/a	wordpools/wordpool_categorized_EN.txt	PEELER	KitchenTools	11	10	[0, 0, 0]	n/a	catFR1	1	R1028M
2058.424	1.617	11714538	WORD	n/a	wordpools/wordpool_categorized_EN.txt	SPATULA	KitchenTools	12	10	[0, 0, 0]	n/a	catFR1	1	R1028M
2060.041	0.001	11715347	DISTRACT_START	n/a	n/a	n/a	n/a	-999	10	[0, 0, 0]	n/a	catFR1	1	R1028M
2060.042	0.016	11715347	START	n/a	n/a	n/a	n/a	-999	11	[-999, -999, -999]	n/a	catFR1	1	R1028M
2060.058	4.184	11715355	PROB	4.184	n/a	n/a	n/a	-999	11	[2, 1, 9]	12	catFR1	1	R1028M
2064.242	3.417	11717447	PROB	3.417	n/a	n/a	n/a	-999	11	[4, 1, 9]	14	catFR1	1	R1028M
2067.659	4.334	11719155	PROB	4.334	n/a	n/a	n/a	-999	11	[6, 9, 3]	18	catFR1	1	R1028M
2071.993	3.401	11721322	PROB	3.401	n/a	n/a	n/a	-999	11	[7, 1, 4]	12	catFR1	1	R1028M
2075.394	5.73	11723022	PROB	5.73	n/a	n/a	n/a	-999	11	[3, 8, 1]	12	catFR1	1	R1028M
2081.124	0.004	11725887	STOP	n/a	n/a	n/a	n/a	-999	11	[-999, -999, -999]	n/a	catFR1	1	R1028M
2081.128	1.101	11725889	DISTRACT_END	n/a	n/a	n/a	n/a	-999	10	[0, 0, 0]	n/a	catFR1	1	R1028M
2082.229	0.74	11726439	REC_START	n/a	n/a	n/a	n/a	-999	10	[0, 0, 0]	n/a	catFR1	1	R1028M
2082.969	0.958	11726809	REC_WORD	0.958	n/a	SPATULA	KitchenTools	12	10	[0, 0, 0]	n/a	catFR1	1	R1028M
2083.927	2.4	11727288	REC_WORD	2.4	n/a	SPOON	KitchenTools	6	10	[0, 0, 0]	n/a	catFR1	1	R1028M
2086.327	6.065	11728488	REC_WORD	6.065	n/a	STRAINER	KitchenTools	5	10	[0, 0, 0]	n/a	catFR1	1	R1028M
2092.392	3.448	11731520	REC_WORD	3.448	n/a	PEELER	KitchenTools	11	10	[0, 0, 0]	n/a	catFR1	1	R1028M
2095.84	0.66	11733244	REC_WORD	0.66	n/a	TELEVISION	Electronics	1	10	[0, 0, 0]	n/a	catFR1	1	R1028M
2096.5	0.383	11733574	REC_WORD	0.383	n/a	PHONE	Electronics	9	10	[0, 0, 0]	n/a	catFR1	1	R1028M
2096.883	0.656	11733766	REC_WORD	0.656	n/a	SPEAKER	Electronics	10	10	[0, 0, 0]	n/a	catFR1	1	R1028M
2097.539	9.421	11734094	REC_WORD	9.421	n/a	SCANNER	Electronics	2	10	[0, 0, 0]	n/a	catFR1	1	R1028M
2106.96	1.211	11738804	REC_WORD	1.211	n/a	RIVER	n/a	-999	10	[0, 0, 0]	n/a	catFR1	1	R1028M
2108.171	0.664	11739409	REC_WORD	0.664	n/a	LAKE	Landscapes	8	10	[0, 0, 0]	n/a	catFR1	1	R1028M
2108.835	0.214	11739741	REC_WORD_VV	0.214	n/a	<>	n/a	-999	10	[0, 0, 0]	n/a	catFR1	1	R1028M
2109.049	1.593	11739848	REC_WORD	1.593	n/a	RIVER	n/a	-999	10	[0, 0, 0]	n/a	catFR1	1	R1028M
2110.642	1.603	11740644	REC_WORD	1.603	n/a	STREAM	Landscapes	7	10	[0, 0, 0]	n/a	catFR1	1	R1028M
2112.245	524.09	11741446	REC_END	n/a	n/a	n/a	n/a	-999	10	[0, 0, 0]	n/a	catFR1	1	R1028M
2636.335	0.0	12003464	TRIAL	n/a	n/a	n/a	n/a	-999	11	[0, 0, 0]	n/a	catFR1	1	R1028M
2636.335	10.428	12003464	COUNTDOWN_START	n/a	n/a	n/a	n/a	-999	11	[0, 0, 0]	n/a	catFR1	1	R1028M
2646.763	0.008	12008677	COUNTDOWN_END	n/a	n/a	n/a	n/a	-999	11	[0, 0, 0]	n/a	catFR1	1	R1028M
2646.771	3.7	12008681	ORIENT	n/a	n/a	n/a	n/a	-999	11	[0, 0, 0]	n/a	catFR1	1	R1028M
2650.471	2.501	12010531	WORD	n/a	wordpools/wordpool_categorized_EN.txt	ISLAND	Landscapes	1	11	[0, 0, 0]	n/a	catFR1	1	R1028M
2652.972	2.384	12011781	WORD	n/a	wordpools/wordpool_categorized_EN.txt	OCEAN	Landscapes	2	11	[0, 0, 0]	n/a	catFR1	1	R1028M
2655.356	2.5	12012973	WORD	n/a	wordpools/wordpool_categorized_EN.txt	SCREWDRIVER	Tools	3	11	[0, 0, 0]	n/a	catFR1	1	R1028M
2657.856	2.483	12014223	WORD	n/a	wordpools/wordpool_categorized_EN.txt	WRENCH	Tools	4	11	[0, 0, 0]	n/a	catFR1	1	R1028M
2660.339	2.518	12015464	WORD	n/a	wordpools/wordpool_categorized_EN.txt	GOAT	FarmAnimals	5	11	[0, 0, 0]	n/a	catFR1	1	R1028M
2662.857	2.417	12016723	WORD	n/a	wordpools/wordpool_categorized_EN.txt	COW	FarmAnimals	6	11	[0, 0, 0]	n/a	catFR1	1	R1028M
2665.274	2.417	12017932	WORD	n/a	wordpools/wordpool_categorized_EN.txt	CREEK	Landscapes	7	11	[0, 0, 0]	n/a	catFR1	1	R1028M
2667.691	2.384	12019140	WORD	n/a	wordpools/wordpool_categorized_EN.txt	WOODS	Landscapes	8	11	[0, 0, 0]	n/a	catFR1	1	R1028M
2670.075	2.601	12020332	WORD	n/a	wordpools/wordpool_categorized_EN.txt	HEN	FarmAnimals	9	11	[0, 0, 0]	n/a	catFR1	1	R1028M
2672.676	2.583	12021632	WORD	n/a	wordpools/wordpool_categorized_EN.txt	CHICKEN	FarmAnimals	10	11	[0, 0, 0]	n/a	catFR1	1	R1028M
2675.259	2.451	12022924	WORD	n/a	wordpools/wordpool_categorized_EN.txt	CROWBAR	Tools	11	11	[0, 0, 0]	n/a	catFR1	1	R1028M
2677.71	1.617	12024149	WORD	n/a	wordpools/wordpool_categorized_EN.txt	PLIERS	Tools	12	11	[0, 0, 0]	n/a	catFR1	1	R1028M
2679.327	0.001	12024957	DISTRACT_START	n/a	n/a	n/a	n/a	-999	11	[0, 0, 0]	n/a	catFR1	1	R1028M
2679.328	0.014	12024958	START	n/a	n/a	n/a	n/a	-999	12	[-999, -999, -999]	n/a	catFR1	1	R1028M
2679.342	4.586	12024965	PROB	4.586	n/a	n/a	n/a	-999	12	[8, 5, 3]	16	catFR1	1	R1028M
2683.928	5.651	12027258	PROB	5.651	n/a	n/a	n/a	-999	12	[9, 2, 2]	13	catFR1	1	R1028M
2689.579	3.634	12030083	PROB	3.634	n/a	n/a	n/a	-999	12	[8, 8, 5]	21	catFR1	1	R1028M
2693.213	3.317	12031900	PROB	3.317	n/a	n/a	n/a	-999	12	[7, 2, 1]	10	catFR1	1	R1028M
2696.53	5.202	12033558	PROB	5.202	n/a	n/a	n/a	-999	12	[2, 5, 6]	13	catFR1	1	R1028M
2701.732	0.016	12036159	STOP	n/a	n/a	n/a	n/a	-999	12	[-999, -999, -999]	n/a	catFR1	1	R1028M
2701.748	1.117	12036167	DISTRACT_END	n/a	n/a	n/a	n/a	-999	11	[0, 0, 0]	n/a	catFR1	1	R1028M
2702.865	1.148	12036725	REC_START	n/a	n/a	n/a	n/a	-999	11	[0, 0, 0]	n/a	catFR1	1	R1028M
2704.013	1.672	12037299	REC_WORD	1.672	n/a	ISLAND	Landscapes	1	11	[0, 0, 0]	n/a	catFR1	1	R1028M
2705.685	1.526	12038135	REC_WORD	1.526	n/a	OCEAN	Landscapes	2	11	[0, 0, 0]	n/a	catFR1	1	R1028M
2707.211	1.873	12038898	REC_WORD	1.873	n/a	CROWBAR	Tools	11	11	[0, 0, 0]	n/a	catFR1	1	R1028M
2709.084	1.077	12039834	REC_WORD	1.077	n/a	WRENCH	Tools	4	11	[0, 0, 0]	n/a	catFR1	1	R1028M
2710.161	3.688	12040373	REC_WORD	3.688	n/a	SCREWDRIVER	Tools	3	11	[0, 0, 0]	n/a	catFR1	1	R1028M
2713.849	0.902	12042217	REC_WORD	0.902	n/a	GOAT	FarmAnimals	5	11	[0, 0, 0]	n/a	catFR1	1	R1028M
2714.751	0.945	12042668	REC_WORD	0.945	n/a	COW	FarmAnimals	6	11	[0, 0, 0]	n/a	catFR1	1	R1028M
2715.696	1.168	12043140	REC_WORD	1.168	n/a	CHICKEN	FarmAnimals	10	11	[0, 0, 0]	n/a	catFR1	1	R1028M
2716.864	3.781	12043724	REC_WORD	3.781	n/a	HEN	FarmAnimals	9	11	[0, 0, 0]	n/a	catFR1	1	R1028M
2720.645	2.963	12045614	REC_WORD	2.963	n/a	CROWBAR	Tools	11	11	[0, 0, 0]	n/a	catFR1	1	R1028M
2723.608	0.911	12047096	REC_WORD	0.911	n/a	WOODS	Landscapes	8	11	[0, 0, 0]	n/a	catFR1	1	R1028M
2724.519	1.615	12047551	REC_WORD	1.615	n/a	RIVER	n/a	-999	11	[0, 0, 0]	n/a	catFR1	1	R1028M
2726.134	6.746	12048358	REC_WORD	6.746	n/a	CREEK	Landscapes	7	11	[0, 0, 0]	n/a	catFR1	1	R1028M
2732.88	83.707	12051731	REC_END	n/a	n/a	n/a	n/a	-999	11	[0, 0, 0]	n/a	catFR1	1	R1028M
2816.587	0.0	12093580	TRIAL	n/a	n/a	n/a	n/a	-999	12	[0, 0, 0]	n/a	catFR1	1	R1028M
2816.587	10.428	12093580	COUNTDOWN_START	n/a	n/a	n/a	n/a	-999	12	[0, 0, 0]	n/a	catFR1	1	R1028M
2827.015	0.007	12098794	COUNTDOWN_END	n/a	n/a	n/a	n/a	-999	12	[0, 0, 0]	n/a	catFR1	1	R1028M
2827.022	3.917	12098797	ORIENT	n/a	n/a	n/a	n/a	-999	12	[0, 0, 0]	n/a	catFR1	1	R1028M
2830.939	2.551	12100756	WORD	n/a	wordpools/wordpool_categorized_EN.txt	LEG	BodyParts	1	12	[0, 0, 0]	n/a	catFR1	1	R1028M
2833.49	2.584	12102031	WORD	n/a	wordpools/wordpool_categorized_EN.txt	EYE	BodyParts	2	12	[0, 0, 0]	n/a	catFR1	1	R1028M
2836.074	2.583	12103323	WORD	n/a	wordpools/wordpool_categorized_EN.txt	CALF	FarmAnimals	3	12	[0, 0, 0]	n/a	catFR1	1	R1028M
2838.657	2.551	12104614	WORD	n/a	wordpools/wordpool_categorized_EN.txt	HORSE	FarmAnimals	4	12	[0, 0, 0]	n/a	catFR1	1	R1028M
2841.208	2.617	12105890	WORD	n/a	wordpools/wordpool_categorized_EN.txt	TORNADO	Weather	5	12	[0, 0, 0]	n/a	catFR1	1	R1028M
2843.825	2.617	12107198	WORD	n/a	wordpools/wordpool_categorized_EN.txt	CLOUD	Weather	6	12	[0, 0, 0]	n/a	catFR1	1	R1028M
2846.442	2.601	12108506	WORD	n/a	wordpools/wordpool_categorized_EN.txt	PIG	FarmAnimals	7	12	[0, 0, 0]	n/a	catFR1	1	R1028M
2849.043	2.6	12109807	WORD	n/a	wordpools/wordpool_categorized_EN.txt	ROOSTER	FarmAnimals	8	12	[0, 0, 0]	n/a	catFR1	1	R1028M
2851.643	2.417	12111106	WORD	n/a	wordpools/wordpool_categorized_EN.txt	HEAD	BodyParts	9	12	[0, 0, 0]	n/a	catFR1	1	R1028M
2854.06	2.484	12112315	WORD	n/a	wordpools/wordpool_categorized_EN.txt	EAR	BodyParts	10	12	[0, 0, 0]	n/a	catFR1	1	R1028M
2856.544	2.451	12113557	WORD	n/a	wordpools/wordpool_categorized_EN.txt	HURRICANE	Weather	11	12	[0, 0, 0]	n/a	catFR1	1	R1028M
2858.995	1.617	12114782	WORD	n/a	wordpools/wordpool_categorized_EN.txt	LIGHTNING	Weather	12	12	[0, 0, 0]	n/a	catFR1	1	R1028M
2860.612	0.001	12115591	DISTRACT_START	n/a	n/a	n/a	n/a	-999	12	[0, 0, 0]	n/a	catFR1	1	R1028M
2860.613	0.015	12115591	START	n/a	n/a	n/a	n/a	-999	13	[-999, -999, -999]	n/a	catFR1	1	R1028M
2860.628	4.717	12115599	PROB	4.717	n/a	n/a	n/a	-999	13	[5, 2, 4]	11	catFR1	1	R1028M
2865.345	4.418	12117957	PROB	4.418	n/a	n/a	n/a	-999	13	[4, 4, 5]	13	catFR1	1	R1028M
2869.763	3.801	12120166	PROB	3.801	n/a	n/a	n/a	-999	13	[6, 1, 3]	10	catFR1	1	R1028M
2873.564	5.801	12122066	PROB	5.801	n/a	n/a	n/a	-999	13	[6, 5, 3]	14	catFR1	1	R1028M
2879.365	5.647	12124966	PROB	5.647	n/a	n/a	n/a	-999	13	[1, 2, 4]	7	catFR1	1	R1028M
2885.012	0.004	12127789	STOP	n/a	n/a	n/a	n/a	-999	13	[-999, -999, -999]	n/a	catFR1	1	R1028M
2885.016	1.068	12127791	DISTRACT_END	n/a	n/a	n/a	n/a	-999	12	[0, 0, 0]	n/a	catFR1	1	R1028M
2886.084	1.016	12128325	REC_START	n/a	n/a	n/a	n/a	-999	12	[0, 0, 0]	n/a	catFR1	1	R1028M
2887.1	1.042	12128833	REC_WORD	1.042	n/a	LEG	BodyParts	1	12	[0, 0, 0]	n/a	catFR1	1	R1028M
2888.142	1.334	12129354	REC_WORD	1.334	n/a	EYE	BodyParts	2	12	[0, 0, 0]	n/a	catFR1	1	R1028M
2889.476	1.445	12130021	REC_WORD	1.445	n/a	EAR	BodyParts	10	12	[0, 0, 0]	n/a	catFR1	1	R1028M
2890.921	1.34	12130743	REC_WORD	1.34	n/a	HEAD	BodyParts	9	12	[0, 0, 0]	n/a	catFR1	1	R1028M
2892.261	1.677	12131413	REC_WORD	1.677	n/a	ROOSTER	FarmAnimals	8	12	[0, 0, 0]	n/a	catFR1	1	R1028M
2893.938	1.376	12132252	REC_WORD	1.376	n/a	CALF	FarmAnimals	3	12	[0, 0, 0]	n/a	catFR1	1	R1028M
2895.314	1.153	12132940	REC_WORD	1.153	n/a	CALF	FarmAnimals	3	12	[0, 0, 0]	n/a	catFR1	1	R1028M
2896.467	1.327	12133516	REC_WORD	1.327	n/a	HORSE	FarmAnimals	4	12	[0, 0, 0]	n/a	catFR1	1	R1028M
2897.794	1.106	12134180	REC_WORD	1.106	n/a	PIG	FarmAnimals	7	12	[0, 0, 0]	n/a	catFR1	1	R1028M
2898.9	1.328	12134733	REC_WORD	1.328	n/a	HURRICANE	Weather	11	12	[0, 0, 0]	n/a	catFR1	1	R1028M
2900.228	1.271	12135396	REC_WORD	1.271	n/a	LIGHTNING	Weather	12	12	[0, 0, 0]	n/a	catFR1	1	R1028M
2901.499	14.595	12136032	REC_WORD	14.595	n/a	TORNADO	Weather	5	12	[0, 0, 0]	n/a	catFR1	1	R1028M
2916.094	80.243	12143329	REC_END	n/a	n/a	n/a	n/a	-999	12	[0, 0, 0]	n/a	catFR1	1	R1028M
2996.337	0.0	12183446	COUNTDOWN_START	n/a	n/a	n/a	n/a	-999	13	[0, 0, 0]	n/a	catFR1	1	R1028M
2996.337	10.428	12183446	TRIAL	n/a	n/a	n/a	n/a	-999	13	[0, 0, 0]	n/a	catFR1	1	R1028M
3006.765	0.008	12188659	COUNTDOWN_END	n/a	n/a	n/a	n/a	-999	13	[0, 0, 0]	n/a	catFR1	1	R1028M
3006.773	3.651	12188663	ORIENT	n/a	n/a	n/a	n/a	-999	13	[0, 0, 0]	n/a	catFR1	1	R1028M
3010.424	2.384	12190489	WORD	n/a	wordpools/wordpool_categorized_EN.txt	SHIRT	Clothing	1	13	[0, 0, 0]	n/a	catFR1	1	R1028M
3012.808	2.4	12191681	WORD	n/a	wordpools/wordpool_categorized_EN.txt	COAT	Clothing	2	13	[0, 0, 0]	n/a	catFR1	1	R1028M
3015.208	2.534	12192880	WORD	n/a	wordpools/wordpool_categorized_EN.txt	POTATO	Vegetables	3	13	[0, 0, 0]	n/a	catFR1	1	R1028M
3017.742	2.551	12194147	WORD	n/a	wordpools/wordpool_categorized_EN.txt	BROCCOLI	Vegetables	4	13	[0, 0, 0]	n/a	catFR1	1	R1028M
3020.293	2.617	12195423	WORD	n/a	wordpools/wordpool_categorized_EN.txt	BASKETBALL	Toys	5	13	[0, 0, 0]	n/a	catFR1	1	R1028M
3022.91	2.6	12196731	WORD	n/a	wordpools/wordpool_categorized_EN.txt	BARBIE	Toys	6	13	[0, 0, 0]	n/a	catFR1	1	R1028M
3025.51	2.534	12198031	WORD	n/a	wordpools/wordpool_categorized_EN.txt	SHORTS	Clothing	7	13	[0, 0, 0]	n/a	catFR1	1	R1028M
3028.044	2.567	12199298	WORD	n/a	wordpools/wordpool_categorized_EN.txt	JEANS	Clothing	8	13	[0, 0, 0]	n/a	catFR1	1	R1028M
3030.611	2.617	12200581	WORD	n/a	wordpools/wordpool_categorized_EN.txt	BLOCKS	Toys	9	13	[0, 0, 0]	n/a	catFR1	1	R1028M
3033.228	2.618	12201890	WORD	n/a	wordpools/wordpool_categorized_EN.txt	FRISBEE	Toys	10	13	[0, 0, 0]	n/a	catFR1	1	R1028M
3035.846	2.55	12203198	WORD	n/a	wordpools/wordpool_categorized_EN.txt	CAULIFLOWER	Vegetables	11	13	[0, 0, 0]	n/a	catFR1	1	R1028M
3038.396	1.617	12204473	WORD	n/a	wordpools/wordpool_categorized_EN.txt	LETTUCE	Vegetables	12	13	[0, 0, 0]	n/a	catFR1	1	R1028M
3040.013	0.001	12205282	DISTRACT_START	n/a	n/a	n/a	n/a	-999	13	[0, 0, 0]	n/a	catFR1	1	R1028M
3040.014	0.016	12205282	START	n/a	n/a	n/a	n/a	-999	14	[-999, -999, -999]	n/a	catFR1	1	R1028M
3040.03	4.784	12205290	PROB	4.784	n/a	n/a	n/a	-999	14	[3, 4, 4]	11	catFR1	1	R1028M
3044.814	5.618	12207682	PROB	5.618	n/a	n/a	n/a	-999	14	[3, 9, 6]	18	catFR1	1	R1028M
3050.432	5.767	12210491	PROB	5.767	n/a	n/a	n/a	-999	14	[7, 6, 8]	21	catFR1	1	R1028M
3056.199	6.108	12213374	PROB	6.108	n/a	n/a	n/a	-999	14	[3, 6, 9]	18	catFR1	1	R1028M
3062.307	0.01	12216428	STOP	n/a	n/a	n/a	n/a	-999	14	[-999, -999, -999]	n/a	catFR1	1	R1028M
3062.317	1.218	12216433	DISTRACT_END	n/a	n/a	n/a	n/a	-999	13	[0, 0, 0]	n/a	catFR1	1	R1028M
3063.535	0.991	12217041	REC_START	n/a	n/a	n/a	n/a	-999	13	[0, 0, 0]	n/a	catFR1	1	R1028M
3064.526	0.432	12217537	REC_WORD	0.432	n/a	WHALE	n/a	-999	13	[0, 0, 0]	n/a	catFR1	1	R1028M
3064.958	1.624	12217753	REC_WORD	1.624	n/a	SHRIMP	n/a	-999	13	[0, 0, 0]	n/a	catFR1	1	R1028M
3066.582	1.297	12218565	REC_WORD	1.297	n/a	NOSE	n/a	-999	13	[0, 0, 0]	n/a	catFR1	1	R1028M
3067.879	0.896	12219213	REC_WORD	0.896	n/a	PEAS	n/a	-999	13	[0, 0, 0]	n/a	catFR1	1	R1028M
3068.775	13.192	12219661	REC_WORD	13.192	n/a	SPINACH	n/a	-999	13	[0, 0, 0]	n/a	catFR1	1	R1028M
3081.967	0.615	12226257	REC_WORD	0.615	n/a	HAND	n/a	-999	13	[0, 0, 0]	n/a	catFR1	1	R1028M
3082.582	10.965	12226564	REC_WORD	10.965	n/a	FINGERS	n/a	-999	13	[0, 0, 0]	n/a	catFR1	1	R1028M
3093.547	49.319	12232046	REC_END	n/a	n/a	n/a	n/a	-999	13	[0, 0, 0]	n/a	catFR1	1	R1028M
3142.866	0.0	12256703	TRIAL	n/a	n/a	n/a	n/a	-999	14	[0, 0, 0]	n/a	catFR1	1	R1028M
3142.866	10.428	12256703	COUNTDOWN_START	n/a	n/a	n/a	n/a	-999	14	[0, 0, 0]	n/a	catFR1	1	R1028M
3153.294	0.008	12261916	COUNTDOWN_END	n/a	n/a	n/a	n/a	-999	14	[0, 0, 0]	n/a	catFR1	1	R1028M
3153.302	3.834	12261920	ORIENT	n/a	n/a	n/a	n/a	-999	14	[0, 0, 0]	n/a	catFR1	1	R1028M
3157.136	2.567	12263837	WORD	n/a	wordpools/wordpool_categorized_EN.txt	PINE	Trees	1	14	[0, 0, 0]	n/a	catFR1	1	R1028M
3159.703	2.517	12265120	WORD	n/a	wordpools/wordpool_categorized_EN.txt	OAK	Trees	2	14	[0, 0, 0]	n/a	catFR1	1	R1028M
3162.22	2.534	12266379	WORD	n/a	wordpools/wordpool_categorized_EN.txt	RULER	OfficeSupplies	3	14	[0, 0, 0]	n/a	catFR1	1	R1028M
3164.754	2.434	12267646	WORD	n/a	wordpools/wordpool_categorized_EN.txt	GLUE	OfficeSupplies	4	14	[0, 0, 0]	n/a	catFR1	1	R1028M
3167.188	2.483	12268863	WORD	n/a	wordpools/wordpool_categorized_EN.txt	KNIFE	KitchenTools	5	14	[0, 0, 0]	n/a	catFR1	1	R1028M
3169.671	2.551	12270104	WORD	n/a	wordpools/wordpool_categorized_EN.txt	CORKSCREW	KitchenTools	6	14	[0, 0, 0]	n/a	catFR1	1	R1028M
3172.222	2.634	12271379	WORD	n/a	wordpools/wordpool_categorized_EN.txt	BIRCH	Trees	7	14	[0, 0, 0]	n/a	catFR1	1	R1028M
3174.856	2.482	12272696	WORD	n/a	wordpools/wordpool_categorized_EN.txt	MAPLE	Trees	8	14	[0, 0, 0]	n/a	catFR1	1	R1028M
3177.338	2.518	12273937	WORD	n/a	wordpools/wordpool_categorized_EN.txt	TONGS	KitchenTools	9	14	[0, 0, 0]	n/a	catFR1	1	R1028M
3179.856	2.601	12275196	WORD	n/a	wordpools/wordpool_categorized_EN.txt	COLANDER	KitchenTools	10	14	[0, 0, 0]	n/a	catFR1	1	R1028M
3182.457	2.484	12276496	WORD	n/a	wordpools/wordpool_categorized_EN.txt	STAPLER	OfficeSupplies	11	14	[0, 0, 0]	n/a	catFR1	1	R1028M
3184.941	1.617	12277738	WORD	n/a	wordpools/wordpool_categorized_EN.txt	TAPE	OfficeSupplies	12	14	[0, 0, 0]	n/a	catFR1	1	R1028M
3186.558	0.001	12278547	DISTRACT_START	n/a	n/a	n/a	n/a	-999	14	[0, 0, 0]	n/a	catFR1	1	R1028M
3186.559	0.016	12278547	START	n/a	n/a	n/a	n/a	-999	15	[-999, -999, -999]	n/a	catFR1	1	R1028M
3186.575	8.518	12278555	PROB	8.518	n/a	n/a	n/a	-999	15	[7, 4, 1]	12	catFR1	1	R1028M
3195.093	4.051	12282814	PROB	4.051	n/a	n/a	n/a	-999	15	[7, 7, 2]	16	catFR1	1	R1028M
3199.144	2.784	12284839	PROB	2.784	n/a	n/a	n/a	-999	15	[6, 1, 9]	16	catFR1	1	R1028M
3201.928	5.844	12286231	PROB	5.844	n/a	n/a	n/a	-999	15	[6, 6, 9]	21	catFR1	1	R1028M
3207.772	0.007	12289152	STOP	n/a	n/a	n/a	n/a	-999	15	[-999, -999, -999]	n/a	catFR1	1	R1028M
3207.779	1.2	12289156	DISTRACT_END	n/a	n/a	n/a	n/a	-999	14	[0, 0, 0]	n/a	catFR1	1	R1028M
3208.979	1.167	12289756	REC_START	n/a	n/a	n/a	n/a	-999	14	[0, 0, 0]	n/a	catFR1	1	R1028M
3210.146	0.805	12290339	REC_WORD	0.805	n/a	GLUE	OfficeSupplies	4	14	[0, 0, 0]	n/a	catFR1	1	R1028M
3210.951	1.15	12290742	REC_WORD	1.15	n/a	TAPE	OfficeSupplies	12	14	[0, 0, 0]	n/a	catFR1	1	R1028M
3212.101	1.139	12291317	REC_WORD	1.139	n/a	COLANDER	KitchenTools	10	14	[0, 0, 0]	n/a	catFR1	1	R1028M
3213.24	1.711	12291886	REC_WORD	1.711	n/a	STAPLER	OfficeSupplies	11	14	[0, 0, 0]	n/a	catFR1	1	R1028M
3214.951	1.376	12292742	REC_WORD	1.376	n/a	BIRCH	Trees	7	14	[0, 0, 0]	n/a	catFR1	1	R1028M
3216.327	1.324	12293430	REC_WORD	1.324	n/a	PINE	Trees	1	14	[0, 0, 0]	n/a	catFR1	1	R1028M
3217.651	1.283	12294091	REC_WORD	1.283	n/a	MAPLE	Trees	8	14	[0, 0, 0]	n/a	catFR1	1	R1028M
3218.934	9.069	12294733	REC_WORD	9.069	n/a	OAK	Trees	2	14	[0, 0, 0]	n/a	catFR1	1	R1028M
3228.003	10.991	12299267	REC_WORD	10.991	n/a	TAPE	OfficeSupplies	12	14	[0, 0, 0]	n/a	catFR1	1	R1028M
3238.994	287.196	12304762	REC_END	n/a	n/a	n/a	n/a	-999	14	[0, 0, 0]	n/a	catFR1	1	R1028M
3526.19	0.0	12448345	TRIAL	n/a	n/a	n/a	n/a	-999	15	[0, 0, 0]	n/a	catFR1	1	R1028M
3526.19	10.428	12448345	COUNTDOWN_START	n/a	n/a	n/a	n/a	-999	15	[0, 0, 0]	n/a	catFR1	1	R1028M
3536.618	0.007	12453558	COUNTDOWN_END	n/a	n/a	n/a	n/a	-999	15	[0, 0, 0]	n/a	catFR1	1	R1028M
3536.625	3.851	12453562	ORIENT	n/a	n/a	n/a	n/a	-999	15	[0, 0, 0]	n/a	catFR1	1	R1028M
3540.476	2.434	12455487	WORD	n/a	wordpools/wordpool_categorized_EN.txt	SHOES	Clothing	1	15	[0, 0, 0]	n/a	catFR1	1	R1028M
3542.91	2.584	12456704	WORD	n/a	wordpools/wordpool_categorized_EN.txt	SKIRT	Clothing	2	15	[0, 0, 0]	n/a	catFR1	1	R1028M
3545.494	2.534	12457996	WORD	n/a	wordpools/wordpool_categorized_EN.txt	THUNDERSTORM	Weather	3	15	[0, 0, 0]	n/a	catFR1	1	R1028M
3548.028	2.417	12459263	WORD	n/a	wordpools/wordpool_categorized_EN.txt	THUNDER	Weather	4	15	[0, 0, 0]	n/a	catFR1	1	R1028M
3550.445	2.467	12460471	WORD	n/a	wordpools/wordpool_categorized_EN.txt	VAN	Vehicles	5	15	[0, 0, 0]	n/a	catFR1	1	R1028M
3552.912	2.517	12461705	WORD	n/a	wordpools/wordpool_categorized_EN.txt	BIKE	Vehicles	6	15	[0, 0, 0]	n/a	catFR1	1	R1028M
3555.429	2.467	12462963	WORD	n/a	wordpools/wordpool_categorized_EN.txt	WIND	Weather	7	15	[0, 0, 0]	n/a	catFR1	1	R1028M
3557.896	2.601	12464196	WORD	n/a	wordpools/wordpool_categorized_EN.txt	HUMIDITY	Weather	8	15	[0, 0, 0]	n/a	catFR1	1	R1028M
3560.497	2.55	12465497	WORD	n/a	wordpools/wordpool_categorized_EN.txt	UNDERWEAR	Clothing	9	15	[0, 0, 0]	n/a	catFR1	1	R1028M
3563.047	2.501	12466772	WORD	n/a	wordpools/wordpool_categorized_EN.txt	SOCKS	Clothing	10	15	[0, 0, 0]	n/a	catFR1	1	R1028M
3565.548	2.467	12468022	WORD	n/a	wordpools/wordpool_categorized_EN.txt	BOAT	Vehicles	11	15	[0, 0, 0]	n/a	catFR1	1	R1028M
3568.015	1.617	12469255	WORD	n/a	wordpools/wordpool_categorized_EN.txt	MOTORCYCLE	Vehicles	12	15	[0, 0, 0]	n/a	catFR1	1	R1028M
3569.632	0.001	12470064	DISTRACT_START	n/a	n/a	n/a	n/a	-999	15	[0, 0, 0]	n/a	catFR1	1	R1028M
3569.633	0.015	12470064	START	n/a	n/a	n/a	n/a	-999	16	[-999, -999, -999]	n/a	catFR1	1	R1028M
3569.648	7.285	12470072	PROB	7.285	n/a	n/a	n/a	-999	16	[8, 8, 8]	24	catFR1	1	R1028M
3576.933	4.501	12473714	PROB	4.501	n/a	n/a	n/a	-999	16	[8, 9, 2]	19	catFR1	1	R1028M
3581.434	7.768	12475964	PROB	7.768	n/a	n/a	n/a	-999	16	[3, 4, 5]	12	catFR1	1	R1028M
3589.202	3.786	12479848	PROB	3.786	n/a	n/a	n/a	-999	16	[9, 2, 2]	13	catFR1	1	R1028M
3592.988	0.015	12481740	STOP	n/a	n/a	n/a	n/a	-999	16	[-999, -999, -999]	n/a	catFR1	1	R1028M
3593.003	1.218	12481748	DISTRACT_END	n/a	n/a	n/a	n/a	-999	15	[0, 0, 0]	n/a	catFR1	1	R1028M
3594.221	0.71	12482357	REC_START	n/a	n/a	n/a	n/a	-999	15	[0, 0, 0]	n/a	catFR1	1	R1028M
3594.931	0.884	12482712	REC_WORD	0.884	n/a	THUNDER	Weather	4	15	[0, 0, 0]	n/a	catFR1	1	R1028M
3595.815	1.936	12483154	REC_WORD	1.936	n/a	THUNDERSTORM	Weather	3	15	[0, 0, 0]	n/a	catFR1	1	R1028M
3597.751	0.688	12484122	REC_WORD	0.688	n/a	WIND	Weather	7	15	[0, 0, 0]	n/a	catFR1	1	R1028M
3598.439	1.315	12484466	REC_WORD	1.315	n/a	HUMIDITY	Weather	8	15	[0, 0, 0]	n/a	catFR1	1	R1028M
3599.754	0.834	12485123	REC_WORD	0.834	n/a	SHOES	Clothing	1	15	[0, 0, 0]	n/a	catFR1	1	R1028M
3600.588	1.064	12485540	REC_WORD	1.064	n/a	SOCKS	Clothing	10	15	[0, 0, 0]	n/a	catFR1	1	R1028M
3601.652	5.174	12486072	REC_WORD	5.174	n/a	SKIRT	Clothing	2	15	[0, 0, 0]	n/a	catFR1	1	R1028M
3606.826	7.608	12488659	REC_WORD	7.608	n/a	BOAT	Vehicles	11	15	[0, 0, 0]	n/a	catFR1	1	R1028M
3614.434	0.823	12492462	REC_WORD	0.823	n/a	MOTORCYCLE	Vehicles	12	15	[0, 0, 0]	n/a	catFR1	1	R1028M
3615.257	6.697	12492874	REC_WORD	6.697	n/a	BIKE	Vehicles	6	15	[0, 0, 0]	n/a	catFR1	1	R1028M
3621.954	2.277	12496222	REC_WORD	2.277	n/a	UNDERWEAR	Clothing	9	15	[0, 0, 0]	n/a	catFR1	1	R1028M
3624.231	113.0	12497360	REC_END	n/a	n/a	n/a	n/a	-999	15	[0, 0, 0]	n/a	catFR1	1	R1028M
3737.231	0.0	12553854	TRIAL	n/a	n/a	n/a	n/a	-999	16	[0, 0, 0]	n/a	catFR1	1	R1028M
3737.231	10.428	12553854	COUNTDOWN_START	n/a	n/a	n/a	n/a	-999	16	[0, 0, 0]	n/a	catFR1	1	R1028M
3747.659	0.007	12559068	COUNTDOWN_END	n/a	n/a	n/a	n/a	-999	16	[0, 0, 0]	n/a	catFR1	1	R1028M
3747.666	3.551	12559071	ORIENT	n/a	n/a	n/a	n/a	-999	16	[0, 0, 0]	n/a	catFR1	1	R1028M
3751.217	2.4	12560847	WORD	n/a	wordpools/wordpool_categorized_EN.txt	SOFA	Furniture	1	16	[0, 0, 0]	n/a	catFR1	1	R1028M
3753.617	2.6	12562047	WORD	n/a	wordpools/wordpool_categorized_EN.txt	NIGHTSTAND	Furniture	2	16	[0, 0, 0]	n/a	catFR1	1	R1028M
3756.217	2.368	12563347	WORD	n/a	wordpools/wordpool_categorized_EN.txt	KNEE	BodyParts	3	16	[0, 0, 0]	n/a	catFR1	1	R1028M
3758.585	2.467	12564530	WORD	n/a	wordpools/wordpool_categorized_EN.txt	FINGERS	BodyParts	4	16	[0, 0, 0]	n/a	catFR1	1	R1028M
3761.052	2.484	12565764	WORD	n/a	wordpools/wordpool_categorized_EN.txt	PEN	OfficeSupplies	5	16	[0, 0, 0]	n/a	catFR1	1	R1028M
3763.536	2.4	12567006	WORD	n/a	wordpools/wordpool_categorized_EN.txt	MARKER	OfficeSupplies	6	16	[0, 0, 0]	n/a	catFR1	1	R1028M
3765.936	2.601	12568206	WORD	n/a	wordpools/wordpool_categorized_EN.txt	TABLE	Furniture	7	16	[0, 0, 0]	n/a	catFR1	1	R1028M
3768.537	2.417	12569506	WORD	n/a	wordpools/wordpool_categorized_EN.txt	RECLINER	Furniture	8	16	[0, 0, 0]	n/a	catFR1	1	R1028M
3770.954	2.617	12570714	WORD	n/a	wordpools/wordpool_categorized_EN.txt	FOLDER	OfficeSupplies	9	16	[0, 0, 0]	n/a	catFR1	1	R1028M
3773.571	2.567	12572023	WORD	n/a	wordpools/wordpool_categorized_EN.txt	BINDER	OfficeSupplies	10	16	[0, 0, 0]	n/a	catFR1	1	R1028M
3776.138	2.551	12573306	WORD	n/a	wordpools/wordpool_categorized_EN.txt	FOOT	BodyParts	11	16	[0, 0, 0]	n/a	catFR1	1	R1028M
3778.689	1.617	12574581	WORD	n/a	wordpools/wordpool_categorized_EN.txt	ARM	BodyParts	12	16	[0, 0, 0]	n/a	catFR1	1	R1028M
3780.306	0.001	12575390	DISTRACT_START	n/a	n/a	n/a	n/a	-999	16	[0, 0, 0]	n/a	catFR1	1	R1028M
3780.307	0.015	12575390	START	n/a	n/a	n/a	n/a	-999	17	[-999, -999, -999]	n/a	catFR1	1	R1028M
3780.322	5.885	12575398	PROB	5.885	n/a	n/a	n/a	-999	17	[9, 4, 7]	20	catFR1	1	R1028M
3786.207	3.701	12578340	PROB	3.701	n/a	n/a	n/a	-999	17	[8, 1, 7]	16	catFR1	1	R1028M
3789.908	3.067	12580190	PROB	3.067	n/a	n/a	n/a	-999	17	[4, 3, 7]	14	catFR1	1	R1028M
3792.975	5.968	12581724	PROB	5.968	n/a	n/a	n/a	-999	17	[5, 3, 8]	16	catFR1	1	R1028M
3798.943	4.221	12584707	PROB	4.221	n/a	n/a	n/a	-999	17	[8, 3, 7]	18	catFR1	1	R1028M
3803.164	0.013	12586818	STOP	n/a	n/a	n/a	n/a	-999	17	[-999, -999, -999]	n/a	catFR1	1	R1028M
3803.177	1.101	12586824	DISTRACT_END	n/a	n/a	n/a	n/a	-999	16	[0, 0, 0]	n/a	catFR1	1	R1028M
3804.278	0.415	12587375	REC_START	n/a	n/a	n/a	n/a	-999	16	[0, 0, 0]	n/a	catFR1	1	R1028M
3804.693	1.035	12587582	REC_WORD	1.035	n/a	SOFA	Furniture	1	16	[0, 0, 0]	n/a	catFR1	1	R1028M
3805.728	1.928	12588099	REC_WORD	1.928	n/a	RECLINER	Furniture	8	16	[0, 0, 0]	n/a	catFR1	1	R1028M
3807.656	1.701	12589063	REC_WORD	1.701	n/a	KNIFE	n/a	-999	16	[0, 0, 0]	n/a	catFR1	1	R1028M
3809.357	1.853	12589914	REC_WORD	1.853	n/a	KNEE	BodyParts	3	16	[0, 0, 0]	n/a	catFR1	1	R1028M
3811.21	2.707	12590840	REC_WORD	2.707	n/a	HAND	n/a	-999	16	[0, 0, 0]	n/a	catFR1	1	R1028M
3813.917	1.178	12592194	REC_WORD	1.178	n/a	FINGERS	BodyParts	4	16	[0, 0, 0]	n/a	catFR1	1	R1028M
3815.095	1.72	12592782	REC_WORD	1.72	n/a	ARM	BodyParts	12	16	[0, 0, 0]	n/a	catFR1	1	R1028M
3816.815	12.464	12593642	REC_WORD	12.464	n/a	NIGHTSTAND	Furniture	2	16	[0, 0, 0]	n/a	catFR1	1	R1028M
3829.279	5.01	12599874	REC_WORD	5.01	n/a	TOE	n/a	-999	16	[0, 0, 0]	n/a	catFR1	1	R1028M
3834.289	127.202	12602378	REC_END	n/a	n/a	n/a	n/a	-999	16	[0, 0, 0]	n/a	catFR1	1	R1028M
3961.491	0.0	12665973	TRIAL	n/a	n/a	n/a	n/a	-999	17	[0, 0, 0]	n/a	catFR1	1	R1028M
3961.491	10.428	12665973	COUNTDOWN_START	n/a	n/a	n/a	n/a	-999	17	[0, 0, 0]	n/a	catFR1	1	R1028M
3971.919	0.007	12671186	COUNTDOWN_END	n/a	n/a	n/a	n/a	-999	17	[0, 0, 0]	n/a	catFR1	1	R1028M
3971.926	3.734	12671190	ORIENT	n/a	n/a	n/a	n/a	-999	17	[0, 0, 0]	n/a	catFR1	1	R1028M
3975.66	2.517	12673057	WORD	n/a	wordpools/wordpool_categorized_EN.txt	BANANA	Fruit	1	17	[0, 0, 0]	n/a	catFR1	1	R1028M
3978.177	2.417	12674315	WORD	n/a	wordpools/wordpool_categorized_EN.txt	CHERRY	Fruit	2	17	[0, 0, 0]	n/a	catFR1	1	R1028M
3980.594	2.601	12675523	WORD	n/a	wordpools/wordpool_categorized_EN.txt	ELEPHANT	Zoo	3	17	[0, 0, 0]	n/a	catFR1	1	R1028M
3983.195	2.5	12676824	WORD	n/a	wordpools/wordpool_categorized_EN.txt	CHIMPANZEE	Zoo	4	17	[0, 0, 0]	n/a	catFR1	1	R1028M
3985.695	2.568	12678074	WORD	n/a	wordpools/wordpool_categorized_EN.txt	HAMMER	Tools	5	17	[0, 0, 0]	n/a	catFR1	1	R1028M
3988.263	2.55	12679357	WORD	n/a	wordpools/wordpool_categorized_EN.txt	SHOVEL	Tools	6	17	[0, 0, 0]	n/a	catFR1	1	R1028M
3990.813	2.517	12680632	WORD	n/a	wordpools/wordpool_categorized_EN.txt	GRAPE	Fruit	7	17	[0, 0, 0]	n/a	catFR1	1	R1028M
3993.33	2.567	12681891	WORD	n/a	wordpools/wordpool_categorized_EN.txt	STRAWBERRY	Fruit	8	17	[0, 0, 0]	n/a	catFR1	1	R1028M
3995.897	2.45	12683174	WORD	n/a	wordpools/wordpool_categorized_EN.txt	DRILL	Tools	9	17	[0, 0, 0]	n/a	catFR1	1	R1028M
3998.347	2.385	12684399	WORD	n/a	wordpools/wordpool_categorized_EN.txt	RATCHET	Tools	10	17	[0, 0, 0]	n/a	catFR1	1	R1028M
4000.732	2.55	12685591	WORD	n/a	wordpools/wordpool_categorized_EN.txt	ZEBRA	Zoo	11	17	[0, 0, 0]	n/a	catFR1	1	R1028M
4003.282	1.617	12686866	WORD	n/a	wordpools/wordpool_categorized_EN.txt	BEAR	Zoo	12	17	[0, 0, 0]	n/a	catFR1	1	R1028M
4004.899	0.001	12687675	DISTRACT_START	n/a	n/a	n/a	n/a	-999	17	[0, 0, 0]	n/a	catFR1	1	R1028M
4004.9	0.016	12687675	START	n/a	n/a	n/a	n/a	-999	18	[-999, -999, -999]	n/a	catFR1	1	R1028M
4004.916	4.217	12687683	PROB	4.217	n/a	n/a	n/a	-999	18	[1, 4, 5]	10	catFR1	1	R1028M
4009.133	4.884	12689791	PROB	4.884	n/a	n/a	n/a	-999	18	[6, 3, 9]	18	catFR1	1	R1028M
4014.017	2.934	12692233	PROB	2.934	n/a	n/a	n/a	-999	18	[3, 8, 2]	13	catFR1	1	R1028M
4016.951	15.109	12693700	PROB	15.109	n/a	n/a	n/a	-999	18	[8, 9, 8]	24	catFR1	1	R1028M
4032.06	0.011	12701254	STOP	n/a	n/a	n/a	n/a	-999	18	[-999, -999, -999]	n/a	catFR1	1	R1028M
4032.071	1.217	12701259	DISTRACT_END	n/a	n/a	n/a	n/a	-999	17	[0, 0, 0]	n/a	catFR1	1	R1028M
4033.288	1.815	12701868	REC_START	n/a	n/a	n/a	n/a	-999	17	[0, 0, 0]	n/a	catFR1	1	R1028M
4035.103	0.532	12702775	REC_WORD	0.532	n/a	BEAR	Zoo	12	17	[0, 0, 0]	n/a	catFR1	1	R1028M
4035.635	0.685	12703041	REC_WORD	0.685	n/a	ELEPHANT	Zoo	3	17	[0, 0, 0]	n/a	catFR1	1	R1028M
4036.32	1.77	12703383	REC_WORD	1.77	n/a	CHIMPANZEE	Zoo	4	17	[0, 0, 0]	n/a	catFR1	1	R1028M
4038.09	2.81	12704268	REC_WORD	2.81	n/a	ZEBRA	Zoo	11	17	[0, 0, 0]	n/a	catFR1	1	R1028M
4040.9	3.547	12705673	REC_WORD	3.547	n/a	DRILL	Tools	9	17	[0, 0, 0]	n/a	catFR1	1	R1028M
4044.447	1.185	12707447	REC_WORD	1.185	n/a	BANANA	Fruit	1	17	[0, 0, 0]	n/a	catFR1	1	R1028M
4045.632	1.091	12708039	REC_WORD	1.091	n/a	STRAWBERRY	Fruit	8	17	[0, 0, 0]	n/a	catFR1	1	R1028M
4046.723	0.816	12708584	REC_WORD	0.816	n/a	GRAPE	Fruit	7	17	[0, 0, 0]	n/a	catFR1	1	R1028M
4047.539	3.081	12708992	REC_WORD	3.081	n/a	CHERRY	Fruit	2	17	[0, 0, 0]	n/a	catFR1	1	R1028M
4050.62	3.935	12710533	REC_WORD	3.935	n/a	HAMMER	Tools	5	17	[0, 0, 0]	n/a	catFR1	1	R1028M
4054.555	8.749	12712500	REC_WORD	8.749	n/a	ZEBRA	Zoo	11	17	[0, 0, 0]	n/a	catFR1	1	R1028M
4063.304	68.103	12716874	REC_END	n/a	n/a	n/a	n/a	-999	17	[0, 0, 0]	n/a	catFR1	1	R1028M
4131.407	0.0	12750922	TRIAL	n/a	n/a	n/a	n/a	-999	18	[0, 0, 0]	n/a	catFR1	1	R1028M
4131.407	10.428	12750922	COUNTDOWN_START	n/a	n/a	n/a	n/a	-999	18	[0, 0, 0]	n/a	catFR1	1	R1028M
4141.835	0.007	12756135	COUNTDOWN_END	n/a	n/a	n/a	n/a	-999	18	[0, 0, 0]	n/a	catFR1	1	R1028M
4141.842	3.534	12756139	ORIENT	n/a	n/a	n/a	n/a	-999	18	[0, 0, 0]	n/a	catFR1	1	R1028M
4145.376	2.401	12757906	WORD	n/a	wordpools/wordpool_categorized_EN.txt	CORN	Vegetables	1	18	[0, 0, 0]	n/a	catFR1	1	R1028M
4147.777	2.617	12759106	WORD	n/a	wordpools/wordpool_categorized_EN.txt	SPINACH	Vegetables	2	18	[0, 0, 0]	n/a	catFR1	1	R1028M
4150.394	2.55	12760415	WORD	n/a	wordpools/wordpool_categorized_EN.txt	FREEZER	Appliances	3	18	[0, 0, 0]	n/a	catFR1	1	R1028M
4152.944	2.517	12761689	WORD	n/a	wordpools/wordpool_categorized_EN.txt	DISHWASHER	Appliances	4	18	[0, 0, 0]	n/a	catFR1	1	R1028M
4155.461	2.601	12762948	WORD	n/a	wordpools/wordpool_categorized_EN.txt	ORANGE	Fruit	5	18	[0, 0, 0]	n/a	catFR1	1	R1028M
4158.062	2.617	12764248	WORD	n/a	wordpools/wordpool_categorized_EN.txt	APPLE	Fruit	6	18	[0, 0, 0]	n/a	catFR1	1	R1028M
4160.679	2.517	12765557	WORD	n/a	wordpools/wordpool_categorized_EN.txt	CABBAGE	Vegetables	7	18	[0, 0, 0]	n/a	catFR1	1	R1028M
4163.196	2.501	12766815	WORD	n/a	wordpools/wordpool_categorized_EN.txt	CARROT	Vegetables	8	18	[0, 0, 0]	n/a	catFR1	1	R1028M
4165.697	2.567	12768065	WORD	n/a	wordpools/wordpool_categorized_EN.txt	LIME	Fruit	9	18	[0, 0, 0]	n/a	catFR1	1	R1028M
4168.264	2.517	12769349	WORD	n/a	wordpools/wordpool_categorized_EN.txt	PEAR	Fruit	10	18	[0, 0, 0]	n/a	catFR1	1	R1028M
4170.781	2.384	12770607	WORD	n/a	wordpools/wordpool_categorized_EN.txt	OVEN	Appliances	11	18	[0, 0, 0]	n/a	catFR1	1	R1028M
4173.165	1.617	12771799	WORD	n/a	wordpools/wordpool_categorized_EN.txt	REFRIGERATOR	Appliances	12	18	[0, 0, 0]	n/a	catFR1	1	R1028M
4174.782	0.001	12772607	DISTRACT_START	n/a	n/a	n/a	n/a	-999	18	[0, 0, 0]	n/a	catFR1	1	R1028M
4174.783	0.015	12772608	START	n/a	n/a	n/a	n/a	-999	19	[-999, -999, -999]	n/a	catFR1	1	R1028M
4174.798	4.068	12772615	PROB	4.068	n/a	n/a	n/a	-999	19	[5, 2, 1]	8	catFR1	1	R1028M
4178.866	4.784	12774649	PROB	4.784	n/a	n/a	n/a	-999	19	[9, 3, 4]	16	catFR1	1	R1028M
4183.65	4.918	12777041	PROB	4.918	n/a	n/a	n/a	-999	19	[9, 3, 3]	15	catFR1	1	R1028M
4188.568	4.017	12779500	PROB	4.017	n/a	n/a	n/a	-999	19	[5, 9, 5]	19	catFR1	1	R1028M
4192.585	5.499	12781508	PROB	5.499	n/a	n/a	n/a	-999	19	[8, 3, 6]	17	catFR1	1	R1028M
4198.084	0.019	12784257	STOP	n/a	n/a	n/a	n/a	-999	19	[-999, -999, -999]	n/a	catFR1	1	R1028M
4198.103	1.051	12784267	DISTRACT_END	n/a	n/a	n/a	n/a	-999	18	[0, 0, 0]	n/a	catFR1	1	R1028M
4199.154	0.715	12784792	REC_START	n/a	n/a	n/a	n/a	-999	18	[0, 0, 0]	n/a	catFR1	1	R1028M
4199.869	0.776	12785149	REC_WORD	0.776	n/a	CORN	Vegetables	1	18	[0, 0, 0]	n/a	catFR1	1	R1028M
4200.645	1.619	12785537	REC_WORD	1.619	n/a	SPINACH	Vegetables	2	18	[0, 0, 0]	n/a	catFR1	1	R1028M
4202.264	1.045	12786347	REC_WORD	1.045	n/a	CARROT	Vegetables	8	18	[0, 0, 0]	n/a	catFR1	1	R1028M
4203.309	1.07	12786869	REC_WORD	1.07	n/a	ORANGE	Fruit	5	18	[0, 0, 0]	n/a	catFR1	1	R1028M
4204.379	0.956	12787404	REC_WORD	0.956	n/a	APPLE	Fruit	6	18	[0, 0, 0]	n/a	catFR1	1	R1028M
4205.335	1.068	12787882	REC_WORD	1.068	n/a	FREEZER	Appliances	3	18	[0, 0, 0]	n/a	catFR1	1	R1028M
4206.403	1.512	12788416	REC_WORD	1.512	n/a	REFRIGERATOR	Appliances	12	18	[0, 0, 0]	n/a	catFR1	1	R1028M
4207.915	4.501	12789172	REC_WORD	4.501	n/a	OVEN	Appliances	11	18	[0, 0, 0]	n/a	catFR1	1	R1028M
4212.416	16.738	12791422	REC_WORD	16.738	n/a	CABBAGE	Vegetables	7	18	[0, 0, 0]	n/a	catFR1	1	R1028M
4229.154	0.011	12799790	REC_WORD	0.011	n/a	PEAR	Fruit	10	18	[0, 0, 0]	n/a	catFR1	1	R1028M
4229.165	122.218	12799796	REC_END	n/a	n/a	n/a	n/a	-999	18	[0, 0, 0]	n/a	catFR1	1	R1028M
4351.383	0.0	12860899	TRIAL	n/a	n/a	n/a	n/a	-999	19	[0, 0, 0]	n/a	catFR1	1	R1028M
4351.383	10.428	12860899	COUNTDOWN_START	n/a	n/a	n/a	n/a	-999	19	[0, 0, 0]	n/a	catFR1	1	R1028M
4361.811	0.007	12866112	COUNTDOWN_END	n/a	n/a	n/a	n/a	-999	19	[0, 0, 0]	n/a	catFR1	1	R1028M
4361.818	3.7	12866116	ORIENT	n/a	n/a	n/a	n/a	-999	19	[0, 0, 0]	n/a	catFR1	1	R1028M
4365.518	2.468	12867965	WORD	n/a	wordpools/wordpool_categorized_EN.txt	SEAGULL	Birds	1	19	[0, 0, 0]	n/a	catFR1	1	R1028M
4367.986	2.6	12869199	WORD	n/a	wordpools/wordpool_categorized_EN.txt	CROW	Birds	2	19	[0, 0, 0]	n/a	catFR1	1	R1028M
4370.586	2.517	12870499	WORD	n/a	wordpools/wordpool_categorized_EN.txt	FLY	Insects	3	19	[0, 0, 0]	n/a	catFR1	1	R1028M
4373.103	2.467	12871757	WORD	n/a	wordpools/wordpool_categorized_EN.txt	ANT	Insects	4	19	[0, 0, 0]	n/a	catFR1	1	R1028M
4375.57	2.601	12872991	WORD	n/a	wordpools/wordpool_categorized_EN.txt	MONKEY	Zoo	5	19	[0, 0, 0]	n/a	catFR1	1	R1028M
4378.171	2.451	12874291	WORD	n/a	wordpools/wordpool_categorized_EN.txt	CHEETAH	Zoo	6	19	[0, 0, 0]	n/a	catFR1	1	R1028M
4380.622	2.517	12875517	WORD	n/a	wordpools/wordpool_categorized_EN.txt	HAWK	Birds	7	19	[0, 0, 0]	n/a	catFR1	1	R1028M
4383.139	2.5	12876775	WORD	n/a	wordpools/wordpool_categorized_EN.txt	GOOSE	Birds	8	19	[0, 0, 0]	n/a	catFR1	1	R1028M
4385.639	2.384	12878025	WORD	n/a	wordpools/wordpool_categorized_EN.txt	TIGER	Zoo	9	19	[0, 0, 0]	n/a	catFR1	1	R1028M
4388.023	2.584	12879217	WORD	n/a	wordpools/wordpool_categorized_EN.txt	GIRAFFE	Zoo	10	19	[0, 0, 0]	n/a	catFR1	1	R1028M
4390.607	2.517	12880509	WORD	n/a	wordpools/wordpool_categorized_EN.txt	MOSQUITO	Insects	11	19	[0, 0, 0]	n/a	catFR1	1	R1028M
4393.124	1.617	12881767	WORD	n/a	wordpools/wordpool_categorized_EN.txt	GNAT	Insects	12	19	[0, 0, 0]	n/a	catFR1	1	R1028M
4394.741	0.001	12882575	DISTRACT_START	n/a	n/a	n/a	n/a	-999	19	[0, 0, 0]	n/a	catFR1	1	R1028M
4394.742	0.015	12882576	START	n/a	n/a	n/a	n/a	-999	20	[-999, -999, -999]	n/a	catFR1	1	R1028M
4394.757	3.701	12882583	PROB	3.701	n/a	n/a	n/a	-999	20	[1, 3, 6]	9	catFR1	1	R1028M
4398.458	6.668	12884434	PROB	6.668	n/a	n/a	n/a	-999	20	[1, 2, 4]	7	catFR1	1	R1028M
4405.126	3.634	12887767	PROB	3.634	n/a	n/a	n/a	-999	20	[6, 3, 2]	11	catFR1	1	R1028M
4408.76	7.292	12889584	PROB	7.292	n/a	n/a	n/a	-999	20	[7, 6, 9]	22	catFR1	1	R1028M
4416.052	0.01	12893230	STOP	n/a	n/a	n/a	n/a	-999	20	[-999, -999, -999]	n/a	catFR1	1	R1028M
4416.062	1.134	12893235	DISTRACT_END	n/a	n/a	n/a	n/a	-999	19	[0, 0, 0]	n/a	catFR1	1	R1028M
4417.196	1.224	12893802	REC_START	n/a	n/a	n/a	n/a	-999	19	[0, 0, 0]	n/a	catFR1	1	R1028M
4418.42	1.203	12894414	REC_WORD	1.203	n/a	CROW	Birds	2	19	[0, 0, 0]	n/a	catFR1	1	R1028M
4419.623	2.487	12895015	REC_WORD	2.487	n/a	SEAGULL	Birds	1	19	[0, 0, 0]	n/a	catFR1	1	R1028M
4422.11	1.559	12896258	REC_WORD	1.559	n/a	HAWK	Birds	7	19	[0, 0, 0]	n/a	catFR1	1	R1028M
4423.669	1.706	12897038	REC_WORD	1.706	n/a	MOSQUITO	Insects	11	19	[0, 0, 0]	n/a	catFR1	1	R1028M
4425.375	1.663	12897891	REC_WORD	1.663	n/a	FLY	Insects	3	19	[0, 0, 0]	n/a	catFR1	1	R1028M
4427.038	20.169	12898722	REC_WORD	20.169	n/a	ANT	Insects	4	19	[0, 0, 0]	n/a	catFR1	1	R1028M
4447.207	60.289	12908806	REC_END	n/a	n/a	n/a	n/a	-999	19	[0, 0, 0]	n/a	catFR1	1	R1028M
4507.496	0.0	12938947	TRIAL	n/a	n/a	n/a	n/a	-999	20	[0, 0, 0]	n/a	catFR1	1	R1028M
4507.496	10.428	12938947	COUNTDOWN_START	n/a	n/a	n/a	n/a	-999	20	[0, 0, 0]	n/a	catFR1	1	R1028M
4517.924	0.007	12944160	COUNTDOWN_END	n/a	n/a	n/a	n/a	-999	20	[0, 0, 0]	n/a	catFR1	1	R1028M
4517.931	3.668	12944164	ORIENT	n/a	n/a	n/a	n/a	-999	20	[0, 0, 0]	n/a	catFR1	1	R1028M
4521.599	2.6	12945998	WORD	n/a	wordpools/wordpool_categorized_EN.txt	CAR	Vehicles	1	20	[0, 0, 0]	n/a	catFR1	1	R1028M
4524.199	2.567	12947298	WORD	n/a	wordpools/wordpool_categorized_EN.txt	SCOOTER	Vehicles	2	20	[0, 0, 0]	n/a	catFR1	1	R1028M
4526.766	2.451	12948581	WORD	n/a	wordpools/wordpool_categorized_EN.txt	CYPRESS	Trees	3	20	[0, 0, 0]	n/a	catFR1	1	R1028M
4529.217	2.4	12949806	WORD	n/a	wordpools/wordpool_categorized_EN.txt	ELM	Trees	4	20	[0, 0, 0]	n/a	catFR1	1	R1028M
4531.617	2.567	12951006	WORD	n/a	wordpools/wordpool_categorized_EN.txt	AXE	Tools	5	20	[0, 0, 0]	n/a	catFR1	1	R1028M
4534.184	2.518	12952290	WORD	n/a	wordpools/wordpool_categorized_EN.txt	SANDER	Tools	6	20	[0, 0, 0]	n/a	catFR1	1	R1028M
4536.702	2.45	12953548	WORD	n/a	wordpools/wordpool_categorized_EN.txt	WALNUT	Trees	7	20	[0, 0, 0]	n/a	catFR1	1	R1028M
4539.152	2.4	12954773	WORD	n/a	wordpools/wordpool_categorized_EN.txt	EVERGREEN	Trees	8	20	[0, 0, 0]	n/a	catFR1	1	R1028M
4541.552	2.484	12955973	WORD	n/a	wordpools/wordpool_categorized_EN.txt	MOPED	Vehicles	9	20	[0, 0, 0]	n/a	catFR1	1	R1028M
4544.036	2.517	12957215	WORD	n/a	wordpools/wordpool_categorized_EN.txt	TRUCK	Vehicles	10	20	[0, 0, 0]	n/a	catFR1	1	R1028M
4546.553	2.434	12958473	WORD	n/a	wordpools/wordpool_categorized_EN.txt	SAW	Tools	11	20	[0, 0, 0]	n/a	catFR1	1	R1028M
4548.987	1.617	12959690	WORD	n/a	wordpools/wordpool_categorized_EN.txt	LEVEL	Tools	12	20	[0, 0, 0]	n/a	catFR1	1	R1028M
4550.604	0.001	12960499	DISTRACT_START	n/a	n/a	n/a	n/a	-999	20	[0, 0, 0]	n/a	catFR1	1	R1028M
4550.605	0.016	12960499	START	n/a	n/a	n/a	n/a	-999	21	[-999, -999, -999]	n/a	catFR1	1	R1028M
4550.621	3.067	12960507	PROB	3.067	n/a	n/a	n/a	-999	21	[1, 7, 3]	11	catFR1	1	R1028M
4553.688	3.684	12962041	PROB	3.684	n/a	n/a	n/a	-999	21	[1, 5, 4]	10	catFR1	1	R1028M
4557.372	4.101	12963882	PROB	4.101	n/a	n/a	n/a	-999	21	[7, 8, 2]	17	catFR1	1	R1028M
4561.473	5.334	12965933	PROB	5.334	n/a	n/a	n/a	-999	21	[9, 9, 3]	21	catFR1	1	R1028M
4566.807	3.957	12968599	PROB	3.957	n/a	n/a	n/a	-999	21	[3, 5, 3]	11	catFR1	1	R1028M
4570.764	0.011	12970578	STOP	n/a	n/a	n/a	n/a	-999	21	[-999, -999, -999]	n/a	catFR1	1	R1028M
4570.775	1.134	12970583	DISTRACT_END	n/a	n/a	n/a	n/a	-999	20	[0, 0, 0]	n/a	catFR1	1	R1028M
4571.909	0.782	12971150	REC_START	n/a	n/a	n/a	n/a	-999	20	[0, 0, 0]	n/a	catFR1	1	R1028M
4572.691	1.119	12971541	REC_WORD	1.119	n/a	SANDER	Tools	6	20	[0, 0, 0]	n/a	catFR1	1	R1028M
4573.81	2.107	12972101	REC_WORD	2.107	n/a	AXE	Tools	5	20	[0, 0, 0]	n/a	catFR1	1	R1028M
4575.917	2.554	12973154	REC_WORD	2.554	n/a	CYPRESS	Trees	3	20	[0, 0, 0]	n/a	catFR1	1	R1028M
4578.471	1.88	12974431	REC_WORD	1.88	n/a	MAPLE	n/a	-999	20	[0, 0, 0]	n/a	catFR1	1	R1028M
4580.351	1.411	12975371	REC_WORD	1.411	n/a	SCOOTER	Vehicles	2	20	[0, 0, 0]	n/a	catFR1	1	R1028M
4581.762	0.572	12976076	REC_WORD	0.572	n/a	CAR	Vehicles	1	20	[0, 0, 0]	n/a	catFR1	1	R1028M
4582.334	1.148	12976362	REC_WORD	1.148	n/a	MOPED	Vehicles	9	20	[0, 0, 0]	n/a	catFR1	1	R1028M
4583.482	15.989	12976936	REC_WORD	15.989	n/a	TRUCK	Vehicles	10	20	[0, 0, 0]	n/a	catFR1	1	R1028M
4599.471	2.449	12984930	REC_WORD	2.449	n/a	OAK	n/a	-999	20	[0, 0, 0]	n/a	catFR1	1	R1028M
4601.92	802.382	12986154	REC_END	n/a	n/a	n/a	n/a	-999	20	[0, 0, 0]	n/a	catFR1	1	R1028M
5404.302	0.0	13387303	TRIAL	n/a	n/a	n/a	n/a	-999	21	[0, 0, 0]	n/a	catFR1	1	R1028M
5404.302	10.428	13387303	COUNTDOWN_START	n/a	n/a	n/a	n/a	-999	21	[0, 0, 0]	n/a	catFR1	1	R1028M
5414.73	0.007	13392517	COUNTDOWN_END	n/a	n/a	n/a	n/a	-999	21	[0, 0, 0]	n/a	catFR1	1	R1028M
5414.737	3.751	13392520	ORIENT	n/a	n/a	n/a	n/a	-999	21	[0, 0, 0]	n/a	catFR1	1	R1028M
5418.488	2.501	13394396	WORD	n/a	wordpools/wordpool_categorized_EN.txt	PIANO	Instruments	1	21	[0, 0, 0]	n/a	catFR1	1	R1028M
5420.989	2.417	13395646	WORD	n/a	wordpools/wordpool_categorized_EN.txt	TRUMPET	Instruments	2	21	[0, 0, 0]	n/a	catFR1	1	R1028M
5423.406	2.567	13396854	WORD	n/a	wordpools/wordpool_categorized_EN.txt	CHAIR	Furniture	3	21	[0, 0, 0]	n/a	catFR1	1	R1028M
5425.973	2.5	13398138	WORD	n/a	wordpools/wordpool_categorized_EN.txt	DRESSER	Furniture	4	21	[0, 0, 0]	n/a	catFR1	1	R1028M
5428.473	2.584	13399388	WORD	n/a	wordpools/wordpool_categorized_EN.txt	WINE	Beverages	5	21	[0, 0, 0]	n/a	catFR1	1	R1028M
5431.057	2.384	13400680	WORD	n/a	wordpools/wordpool_categorized_EN.txt	COLA	Beverages	6	21	[0, 0, 0]	n/a	catFR1	1	R1028M
5433.441	2.45	13401871	WORD	n/a	wordpools/wordpool_categorized_EN.txt	TROMBONE	Instruments	7	21	[0, 0, 0]	n/a	catFR1	1	R1028M
5435.891	2.584	13403096	WORD	n/a	wordpools/wordpool_categorized_EN.txt	BASS	Instruments	8	21	[0, 0, 0]	n/a	catFR1	1	R1028M
5438.475	2.484	13404388	WORD	n/a	wordpools/wordpool_categorized_EN.txt	TEA	Beverages	9	21	[0, 0, 0]	n/a	catFR1	1	R1028M
5440.959	2.467	13405630	WORD	n/a	wordpools/wordpool_categorized_EN.txt	WATER	Beverages	10	21	[0, 0, 0]	n/a	catFR1	1	R1028M
5443.426	2.451	13406863	WORD	n/a	wordpools/wordpool_categorized_EN.txt	COUCH	Furniture	11	21	[0, 0, 0]	n/a	catFR1	1	R1028M
5445.877	1.617	13408089	WORD	n/a	wordpools/wordpool_categorized_EN.txt	BOOKCASE	Furniture	12	21	[0, 0, 0]	n/a	catFR1	1	R1028M
5447.494	0.001	13408897	DISTRACT_START	n/a	n/a	n/a	n/a	-999	21	[0, 0, 0]	n/a	catFR1	1	R1028M
5447.495	0.015	13408898	START	n/a	n/a	n/a	n/a	-999	22	[-999, -999, -999]	n/a	catFR1	1	R1028M
5447.51	4.018	13408905	PROB	4.018	n/a	n/a	n/a	-999	22	[3, 1, 6]	10	catFR1	1	R1028M
5451.528	3.217	13410914	PROB	3.217	n/a	n/a	n/a	-999	22	[3, 4, 4]	11	catFR1	1	R1028M
5454.745	4.301	13412522	PROB	4.301	n/a	n/a	n/a	-999	22	[1, 4, 2]	7	catFR1	1	R1028M
5459.046	3.701	13414673	PROB	3.701	n/a	n/a	n/a	-999	22	[5, 4, 5]	14	catFR1	1	R1028M
5462.747	4.841	13416523	PROB	4.841	n/a	n/a	n/a	-999	22	[4, 5, 9]	18	catFR1	1	R1028M
5467.588	0.01	13418943	STOP	n/a	n/a	n/a	n/a	-999	22	[-999, -999, -999]	n/a	catFR1	1	R1028M
5467.598	1.1	13418948	DISTRACT_END	n/a	n/a	n/a	n/a	-999	21	[0, 0, 0]	n/a	catFR1	1	R1028M
5468.698	1.115	13419498	REC_START	n/a	n/a	n/a	n/a	-999	21	[0, 0, 0]	n/a	catFR1	1	R1028M
5469.813	3.762	13420056	REC_WORD	3.762	n/a	COUCH	Furniture	11	21	[0, 0, 0]	n/a	catFR1	1	R1028M
5473.575	1.693	13421936	REC_WORD	1.693	n/a	DRESSER	Furniture	4	21	[0, 0, 0]	n/a	catFR1	1	R1028M
5475.268	2.736	13422783	REC_WORD	2.736	n/a	SOFA	n/a	-999	21	[0, 0, 0]	n/a	catFR1	1	R1028M
5478.004	0.99	13424151	REC_WORD	0.99	n/a	WINE	Beverages	5	21	[0, 0, 0]	n/a	catFR1	1	R1028M
5478.994	2.488	13424646	REC_WORD	2.488	n/a	COLA	Beverages	6	21	[0, 0, 0]	n/a	catFR1	1	R1028M
5481.482	0.636	13425889	REC_WORD	0.636	n/a	WATER	Beverages	10	21	[0, 0, 0]	n/a	catFR1	1	R1028M
5482.118	2.112	13426207	REC_WORD	2.112	n/a	TEA	Beverages	9	21	[0, 0, 0]	n/a	catFR1	1	R1028M
5484.23	0.805	13427263	REC_WORD	0.805	n/a	PIANO	Instruments	1	21	[0, 0, 0]	n/a	catFR1	1	R1028M
5485.035	7.626	13427666	REC_WORD	7.626	n/a	TROMBONE	Instruments	7	21	[0, 0, 0]	n/a	catFR1	1	R1028M
5492.661	3.597	13431478	REC_WORD	3.597	n/a	CHAIR	Furniture	3	21	[0, 0, 0]	n/a	catFR1	1	R1028M
5496.258	2.455	13433277	REC_WORD	2.455	n/a	TUBA	n/a	-999	21	[0, 0, 0]	n/a	catFR1	1	R1028M
5498.713	43.065	13434504	REC_END	n/a	n/a	n/a	n/a	-999	21	[0, 0, 0]	n/a	catFR1	1	R1028M
5541.778	0.001	13456034	COUNTDOWN_START	n/a	n/a	n/a	n/a	-999	22	[0, 0, 0]	n/a	catFR1	1	R1028M
5541.779	10.427	13456035	TRIAL	n/a	n/a	n/a	n/a	-999	22	[0, 0, 0]	n/a	catFR1	1	R1028M
5552.206	0.008	13461248	COUNTDOWN_END	n/a	n/a	n/a	n/a	-999	22	[0, 0, 0]	n/a	catFR1	1	R1028M
5552.214	3.751	13461252	ORIENT	n/a	n/a	n/a	n/a	-999	22	[0, 0, 0]	n/a	catFR1	1	R1028M
5555.965	2.517	13463127	WORD	n/a	wordpools/wordpool_categorized_EN.txt	BED	Furniture	1	22	[0, 0, 0]	n/a	catFR1	1	R1028M
5558.482	2.617	13464385	WORD	n/a	wordpools/wordpool_categorized_EN.txt	DESK	Furniture	2	22	[0, 0, 0]	n/a	catFR1	1	R1028M
5561.099	2.4	13465694	WORD	n/a	wordpools/wordpool_categorized_EN.txt	WHISK	KitchenTools	3	22	[0, 0, 0]	n/a	catFR1	1	R1028M
5563.499	2.468	13466894	WORD	n/a	wordpools/wordpool_categorized_EN.txt	LADLE	KitchenTools	4	22	[0, 0, 0]	n/a	catFR1	1	R1028M
5565.967	2.567	13468128	WORD	n/a	wordpools/wordpool_categorized_EN.txt	BUTTERFLY	Insects	5	22	[0, 0, 0]	n/a	catFR1	1	R1028M
5568.534	2.483	13469411	WORD	n/a	wordpools/wordpool_categorized_EN.txt	BEETLE	Insects	6	22	[0, 0, 0]	n/a	catFR1	1	R1028M
5571.017	2.434	13470652	WORD	n/a	wordpools/wordpool_categorized_EN.txt	FORK	KitchenTools	7	22	[0, 0, 0]	n/a	catFR1	1	R1028M
5573.451	2.501	13471869	WORD	n/a	wordpools/wordpool_categorized_EN.txt	GRATER	KitchenTools	8	22	[0, 0, 0]	n/a	catFR1	1	R1028M
5575.952	2.484	13473120	WORD	n/a	wordpools/wordpool_categorized_EN.txt	SHELF	Furniture	9	22	[0, 0, 0]	n/a	catFR1	1	R1028M
5578.436	2.567	13474361	WORD	n/a	wordpools/wordpool_categorized_EN.txt	CABINET	Furniture	10	22	[0, 0, 0]	n/a	catFR1	1	R1028M
5581.003	2.55	13475645	WORD	n/a	wordpools/wordpool_categorized_EN.txt	LADYBUG	Insects	11	22	[0, 0, 0]	n/a	catFR1	1	R1028M
5583.553	1.617	13476920	WORD	n/a	wordpools/wordpool_categorized_EN.txt	SPIDER	Insects	12	22	[0, 0, 0]	n/a	catFR1	1	R1028M
5585.17	0.001	13477728	DISTRACT_START	n/a	n/a	n/a	n/a	-999	22	[0, 0, 0]	n/a	catFR1	1	R1028M
5585.171	0.016	13477729	START	n/a	n/a	n/a	n/a	-999	23	[-999, -999, -999]	n/a	catFR1	1	R1028M
5585.187	3.084	13477737	PROB	3.084	n/a	n/a	n/a	-999	23	[2, 6, 4]	12	catFR1	1	R1028M
5588.271	3.951	13479278	PROB	3.951	n/a	n/a	n/a	-999	23	[4, 7, 8]	19	catFR1	1	R1028M
5592.222	6.517	13481254	PROB	6.517	n/a	n/a	n/a	-999	23	[7, 2, 7]	16	catFR1	1	R1028M
5598.739	6.793	13484512	PROB	6.793	n/a	n/a	n/a	-999	23	[1, 1, 5]	7	catFR1	1	R1028M
5605.532	0.009	13487908	STOP	n/a	n/a	n/a	n/a	-999	23	[-999, -999, -999]	n/a	catFR1	1	R1028M
5605.541	1.151	13487912	DISTRACT_END	n/a	n/a	n/a	n/a	-999	22	[0, 0, 0]	n/a	catFR1	1	R1028M
5606.692	0.705	13488488	REC_START	n/a	n/a	n/a	n/a	-999	22	[0, 0, 0]	n/a	catFR1	1	R1028M
5607.397	1.359	13488840	REC_WORD	1.359	n/a	WHISK	KitchenTools	3	22	[0, 0, 0]	n/a	catFR1	1	R1028M
5608.756	2.198	13489520	REC_WORD	2.198	n/a	FORK	KitchenTools	7	22	[0, 0, 0]	n/a	catFR1	1	R1028M
5610.954	2.237	13490619	REC_WORD	2.237	n/a	LADLE	KitchenTools	4	22	[0, 0, 0]	n/a	catFR1	1	R1028M
5613.191	1.53	13491737	REC_WORD	1.53	n/a	SPIDER	Insects	12	22	[0, 0, 0]	n/a	catFR1	1	R1028M
5614.721	1.332	13492502	REC_WORD	1.332	n/a	BUTTERFLY	Insects	5	22	[0, 0, 0]	n/a	catFR1	1	R1028M
5616.053	4.356	13493168	REC_WORD	4.356	n/a	LADYBUG	Insects	11	22	[0, 0, 0]	n/a	catFR1	1	R1028M
5620.409	1.139	13495346	REC_WORD	1.139	n/a	BED	Furniture	1	22	[0, 0, 0]	n/a	catFR1	1	R1028M
5621.548	1.031	13495915	REC_WORD	1.031	n/a	DESK	Furniture	2	22	[0, 0, 0]	n/a	catFR1	1	R1028M
5622.579	14.124	13496431	REC_WORD	14.124	n/a	SHELF	Furniture	9	22	[0, 0, 0]	n/a	catFR1	1	R1028M
5636.703	292.133	13503492	REC_END	n/a	n/a	n/a	n/a	-999	22	[0, 0, 0]	n/a	catFR1	1	R1028M
5928.836	0.001	13649543	COUNTDOWN_START	n/a	n/a	n/a	n/a	-999	23	[0, 0, 0]	n/a	catFR1	1	R1028M
5928.837	10.427	13649544	TRIAL	n/a	n/a	n/a	n/a	-999	23	[0, 0, 0]	n/a	catFR1	1	R1028M
5939.264	0.008	13654757	COUNTDOWN_END	n/a	n/a	n/a	n/a	-999	23	[0, 0, 0]	n/a	catFR1	1	R1028M
5939.272	3.717	13654761	ORIENT	n/a	n/a	n/a	n/a	-999	23	[0, 0, 0]	n/a	catFR1	1	R1028M
5942.989	2.584	13656619	WORD	n/a	wordpools/wordpool_categorized_EN.txt	SODA	Beverages	1	23	[0, 0, 0]	n/a	catFR1	1	R1028M
5945.573	2.567	13657911	WORD	n/a	wordpools/wordpool_categorized_EN.txt	BEER	Beverages	2	23	[0, 0, 0]	n/a	catFR1	1	R1028M
5948.14	2.417	13659194	WORD	n/a	wordpools/wordpool_categorized_EN.txt	ROBIN	Birds	3	23	[0, 0, 0]	n/a	catFR1	1	R1028M
5950.557	2.417	13660403	WORD	n/a	wordpools/wordpool_categorized_EN.txt	BLUEBIRD	Birds	4	23	[0, 0, 0]	n/a	catFR1	1	R1028M
5952.974	2.468	13661611	WORD	n/a	wordpools/wordpool_categorized_EN.txt	FISH	OceanAnimals	5	23	[0, 0, 0]	n/a	catFR1	1	R1028M
5955.442	2.483	13662845	WORD	n/a	wordpools/wordpool_categorized_EN.txt	JELLYFISH	OceanAnimals	6	23	[0, 0, 0]	n/a	catFR1	1	R1028M
5957.925	2.518	13664086	WORD	n/a	wordpools/wordpool_categorized_EN.txt	RUM	Beverages	7	23	[0, 0, 0]	n/a	catFR1	1	R1028M
5960.443	2.45	13665345	WORD	n/a	wordpools/wordpool_categorized_EN.txt	MILK	Beverages	8	23	[0, 0, 0]	n/a	catFR1	1	R1028M
5962.893	2.45	13666570	WORD	n/a	wordpools/wordpool_categorized_EN.txt	OYSTER	OceanAnimals	9	23	[0, 0, 0]	n/a	catFR1	1	R1028M
5965.343	2.518	13667795	WORD	n/a	wordpools/wordpool_categorized_EN.txt	SQUID	OceanAnimals	10	23	[0, 0, 0]	n/a	catFR1	1	R1028M
5967.861	2.5	13669054	WORD	n/a	wordpools/wordpool_categorized_EN.txt	FINCH	Birds	11	23	[0, 0, 0]	n/a	catFR1	1	R1028M
5970.361	1.617	13670304	WORD	n/a	wordpools/wordpool_categorized_EN.txt	PIGEON	Birds	12	23	[0, 0, 0]	n/a	catFR1	1	R1028M
5971.978	0.001	13671112	DISTRACT_START	n/a	n/a	n/a	n/a	-999	23	[0, 0, 0]	n/a	catFR1	1	R1028M
5971.979	0.016	13671112	START	n/a	n/a	n/a	n/a	-999	24	[-999, -999, -999]	n/a	catFR1	1	R1028M
5971.995	5.134	13671120	PROB	5.134	n/a	n/a	n/a	-999	24	[3, 5, 8]	16	catFR1	1	R1028M
5977.129	4.984	13673687	PROB	4.984	n/a	n/a	n/a	-999	24	[7, 8, 1]	16	catFR1	1	R1028M
5982.113	5.435	13676179	PROB	5.435	n/a	n/a	n/a	-999	24	[5, 9, 6]	20	catFR1	1	R1028M
5987.548	3.534	13678896	PROB	3.534	n/a	n/a	n/a	-999	24	[3, 3, 2]	8	catFR1	1	R1028M
5991.082	3.874	13680663	PROB	3.874	n/a	n/a	n/a	-999	24	[4, 8, 9]	21	catFR1	1	R1028M
5994.956	0.01	13682600	STOP	n/a	n/a	n/a	n/a	-999	24	[-999, -999, -999]	n/a	catFR1	1	R1028M
5994.966	1.034	13682605	DISTRACT_END	n/a	n/a	n/a	n/a	-999	23	[0, 0, 0]	n/a	catFR1	1	R1028M
5996.0	1.262	13683122	REC_START	n/a	n/a	n/a	n/a	-999	23	[0, 0, 0]	n/a	catFR1	1	R1028M
5997.262	1.365	13683753	REC_WORD	1.365	n/a	BLUEBIRD	Birds	4	23	[0, 0, 0]	n/a	catFR1	1	R1028M
5998.627	2.127	13684435	REC_WORD	2.127	n/a	ROBIN	Birds	3	23	[0, 0, 0]	n/a	catFR1	1	R1028M
6000.754	3.182	13685498	REC_WORD	3.182	n/a	COLA	n/a	-999	23	[0, 0, 0]	n/a	catFR1	1	R1028M
6003.936	0.925	13687089	REC_WORD	0.925	n/a	OYSTER	OceanAnimals	9	23	[0, 0, 0]	n/a	catFR1	1	R1028M
6004.861	1.196	13687552	REC_WORD	1.196	n/a	SQUID	OceanAnimals	10	23	[0, 0, 0]	n/a	catFR1	1	R1028M
6006.057	1.211	13688150	REC_WORD	1.211	n/a	MILK	Beverages	8	23	[0, 0, 0]	n/a	catFR1	1	R1028M
6007.268	1.187	13688755	REC_WORD	1.187	n/a	RUM	Beverages	7	23	[0, 0, 0]	n/a	catFR1	1	R1028M
6008.455	17.557	13689349	REC_WORD	17.557	n/a	BEER	Beverages	2	23	[0, 0, 0]	n/a	catFR1	1	R1028M
6026.012	32.099	13698126	REC_END	n/a	n/a	n/a	n/a	-999	23	[0, 0, 0]	n/a	catFR1	1	R1028M
6058.111	0.001	13714174	COUNTDOWN_START	n/a	n/a	n/a	n/a	-999	24	[0, 0, 0]	n/a	catFR1	1	R1028M
6058.112	10.427	13714174	TRIAL	n/a	n/a	n/a	n/a	-999	24	[0, 0, 0]	n/a	catFR1	1	R1028M
6068.539	0.008	13719387	COUNTDOWN_END	n/a	n/a	n/a	n/a	-999	24	[0, 0, 0]	n/a	catFR1	1	R1028M
6068.547	3.467	13719391	ORIENT	n/a	n/a	n/a	n/a	-999	24	[0, 0, 0]	n/a	catFR1	1	R1028M
6072.014	2.484	13721125	WORD	n/a	wordpools/wordpool_categorized_EN.txt	STAIRS	Building	1	24	[0, 0, 0]	n/a	catFR1	1	R1028M
6074.498	2.417	13722367	WORD	n/a	wordpools/wordpool_categorized_EN.txt	HALLWAY	Building	2	24	[0, 0, 0]	n/a	catFR1	1	R1028M
6076.915	2.551	13723575	WORD	n/a	wordpools/wordpool_categorized_EN.txt	DOLPHIN	OceanAnimals	3	24	[0, 0, 0]	n/a	catFR1	1	R1028M
6079.466	2.4	13724850	WORD	n/a	wordpools/wordpool_categorized_EN.txt	SHRIMP	OceanAnimals	4	24	[0, 0, 0]	n/a	catFR1	1	R1028M
6081.866	2.534	13726050	WORD	n/a	wordpools/wordpool_categorized_EN.txt	PRINTER	Electronics	5	24	[0, 0, 0]	n/a	catFR1	1	R1028M
6084.4	2.384	13727317	WORD	n/a	wordpools/wordpool_categorized_EN.txt	STEREO	Electronics	6	24	[0, 0, 0]	n/a	catFR1	1	R1028M
6086.784	2.483	13728509	WORD	n/a	wordpools/wordpool_categorized_EN.txt	WHALE	OceanAnimals	7	24	[0, 0, 0]	n/a	catFR1	1	R1028M
6089.267	2.501	13729750	WORD	n/a	wordpools/wordpool_categorized_EN.txt	LOBSTER	OceanAnimals	8	24	[0, 0, 0]	n/a	catFR1	1	R1028M
6091.768	2.45	13731001	WORD	n/a	wordpools/wordpool_categorized_EN.txt	WINDOW	Building	9	24	[0, 0, 0]	n/a	catFR1	1	R1028M
6094.218	2.417	13732226	WORD	n/a	wordpools/wordpool_categorized_EN.txt	DOOR	Building	10	24	[0, 0, 0]	n/a	catFR1	1	R1028M
6096.635	2.384	13733434	WORD	n/a	wordpools/wordpool_categorized_EN.txt	TABLET	Electronics	11	24	[0, 0, 0]	n/a	catFR1	1	R1028M
6099.019	1.617	13734626	WORD	n/a	wordpools/wordpool_categorized_EN.txt	HEADPHONES	Electronics	12	24	[0, 0, 0]	n/a	catFR1	1	R1028M
6100.636	0.001	13735434	DISTRACT_START	n/a	n/a	n/a	n/a	-999	24	[0, 0, 0]	n/a	catFR1	1	R1028M
6100.637	0.016	13735435	START	n/a	n/a	n/a	n/a	-999	25	[-999, -999, -999]	n/a	catFR1	1	R1028M
6100.653	3.851	13735443	PROB	3.851	n/a	n/a	n/a	-999	25	[8, 9, 2]	19	catFR1	1	R1028M
6104.504	4.234	13737368	PROB	4.234	n/a	n/a	n/a	-999	25	[4, 3, 9]	16	catFR1	1	R1028M
6108.738	5.434	13739485	PROB	5.434	n/a	n/a	n/a	-999	25	[2, 9, 7]	18	catFR1	1	R1028M
6114.172	2.851	13742202	PROB	2.851	n/a	n/a	n/a	-999	25	[6, 5, 5]	16	catFR1	1	R1028M
6117.023	16.365	13743627	PROB	16.365	n/a	n/a	n/a	-999	25	[6, 7, 9]	21	catFR1	1	R1028M
6133.388	0.004	13751809	STOP	n/a	n/a	n/a	n/a	-999	25	[-999, -999, -999]	n/a	catFR1	1	R1028M
6133.392	1.151	13751811	DISTRACT_END	n/a	n/a	n/a	n/a	-999	24	[0, 0, 0]	n/a	catFR1	1	R1028M
6134.543	0.971	13752386	REC_START	n/a	n/a	n/a	n/a	-999	24	[0, 0, 0]	n/a	catFR1	1	R1028M
6135.514	0.942	13752871	REC_WORD	0.942	n/a	DOLPHIN	OceanAnimals	3	24	[0, 0, 0]	n/a	catFR1	1	R1028M
6136.456	1.17	13753342	REC_WORD	1.17	n/a	WHALE	OceanAnimals	7	24	[0, 0, 0]	n/a	catFR1	1	R1028M
6137.626	1.369	13753927	REC_WORD	1.369	n/a	SHRIMP	OceanAnimals	4	24	[0, 0, 0]	n/a	catFR1	1	R1028M
6138.995	1.34	13754612	REC_WORD	1.34	n/a	LOBSTER	OceanAnimals	8	24	[0, 0, 0]	n/a	catFR1	1	R1028M
6140.335	1.402	13755282	REC_WORD	1.402	n/a	WINDOW	Building	9	24	[0, 0, 0]	n/a	catFR1	1	R1028M
6141.737	1.556	13755983	REC_WORD	1.556	n/a	PRINTER	Electronics	5	24	[0, 0, 0]	n/a	catFR1	1	R1028M
6143.293	1.576	13756761	REC_WORD	1.576	n/a	STEREO	Electronics	6	24	[0, 0, 0]	n/a	catFR1	1	R1028M
6144.869	1.54	13757548	REC_WORD	1.54	n/a	HEADPHONES	Electronics	12	24	[0, 0, 0]	n/a	catFR1	1	R1028M
6146.409	1.526	13758318	REC_WORD	1.526	n/a	STAIRS	Building	1	24	[0, 0, 0]	n/a	catFR1	1	R1028M
6147.935	16.623	13759081	REC_WORD	16.623	n/a	HALLWAY	Building	2	24	[0, 0, 0]	n/a	catFR1	1	R1028M
6164.558	23.145	13767392	REC_END	n/a	n/a	n/a	n/a	-999	24	[0, 0, 0]	n/a	catFR1	1	R1028M
6187.703	0.0	13778963	TRIAL	n/a	n/a	n/a	n/a	-999	25	[0, 0, 0]	n/a	catFR1	1	R1028M
6187.703	10.428	13778963	COUNTDOWN_START	n/a	n/a	n/a	n/a	-999	25	[0, 0, 0]	n/a	catFR1	1	R1028M
6198.131	0.007	13784177	COUNTDOWN_END	n/a	n/a	n/a	n/a	-999	25	[0, 0, 0]	n/a	catFR1	1	R1028M
6198.138	3.818	13784180	ORIENT	n/a	n/a	n/a	n/a	-999	25	[0, 0, 0]	n/a	catFR1	1	R1028M
6201.956	2.567	13786089	WORD	n/a	wordpools/wordpool_categorized_EN.txt	ROOM	Building	1	25	[0, 0, 0]	n/a	catFR1	1	R1028M
6204.523	2.534	13787372	WORD	n/a	wordpools/wordpool_categorized_EN.txt	CEILING	Building	2	25	[0, 0, 0]	n/a	catFR1	1	R1028M
6207.057	2.617	13788639	WORD	n/a	wordpools/wordpool_categorized_EN.txt	BLUEBERRY	Fruit	3	25	[0, 0, 0]	n/a	catFR1	1	R1028M
6209.674	2.467	13789948	WORD	n/a	wordpools/wordpool_categorized_EN.txt	LEMON	Fruit	4	25	[0, 0, 0]	n/a	catFR1	1	R1028M
6212.141	2.551	13791181	WORD	n/a	wordpools/wordpool_categorized_EN.txt	CARNATION	Flowers	5	25	[0, 0, 0]	n/a	catFR1	1	R1028M
6214.692	2.516	13792456	WORD	n/a	wordpools/wordpool_categorized_EN.txt	LILY	Flowers	6	25	[0, 0, 0]	n/a	catFR1	1	R1028M
6217.208	2.568	13793714	WORD	n/a	wordpools/wordpool_categorized_EN.txt	FLOOR	Building	7	25	[0, 0, 0]	n/a	catFR1	1	R1028M
6219.776	2.434	13794998	WORD	n/a	wordpools/wordpool_categorized_EN.txt	FOUNDATION	Building	8	25	[0, 0, 0]	n/a	catFR1	1	R1028M
6222.21	2.6	13796215	WORD	n/a	wordpools/wordpool_categorized_EN.txt	MARIGOLD	Flowers	9	25	[0, 0, 0]	n/a	catFR1	1	R1028M
6224.81	2.584	13797515	WORD	n/a	wordpools/wordpool_categorized_EN.txt	DAISY	Flowers	10	25	[0, 0, 0]	n/a	catFR1	1	R1028M
6227.394	2.451	13798807	WORD	n/a	wordpools/wordpool_categorized_EN.txt	PLUM	Fruit	11	25	[0, 0, 0]	n/a	catFR1	1	R1028M
6229.845	1.616	13800032	WORD	n/a	wordpools/wordpool_categorized_EN.txt	PEACH	Fruit	12	25	[0, 0, 0]	n/a	catFR1	1	R1028M
6231.461	0.001	13800840	DISTRACT_START	n/a	n/a	n/a	n/a	-999	25	[0, 0, 0]	n/a	catFR1	1	R1028M
6231.462	0.016	13800840	START	n/a	n/a	n/a	n/a	-999	26	[-999, -999, -999]	n/a	catFR1	1	R1028M
6231.478	4.268	13800848	PROB	4.268	n/a	n/a	n/a	-999	26	[9, 1, 5]	15	catFR1	1	R1028M
6235.746	3.2	13802982	PROB	3.2	n/a	n/a	n/a	-999	26	[1, 6, 9]	16	catFR1	1	R1028M
6238.946	6.101	13804582	PROB	6.101	n/a	n/a	n/a	-999	26	[4, 9, 7]	20	catFR1	1	R1028M
6245.047	3.701	13807632	PROB	3.701	n/a	n/a	n/a	-999	26	[6, 4, 3]	13	catFR1	1	R1028M
6248.748	5.52	13809483	PROB	5.52	n/a	n/a	n/a	-999	26	[5, 3, 8]	16	catFR1	1	R1028M
6254.268	0.015	13812242	STOP	n/a	n/a	n/a	n/a	-999	26	[-999, -999, -999]	n/a	catFR1	1	R1028M
6254.283	1.1	13812250	DISTRACT_END	n/a	n/a	n/a	n/a	-999	25	[0, 0, 0]	n/a	catFR1	1	R1028M
6255.383	0.36	13812800	REC_START	n/a	n/a	n/a	n/a	-999	25	[0, 0, 0]	n/a	catFR1	1	R1028M
6255.743	0.802	13812980	REC_WORD	0.802	n/a	PEACH	Fruit	12	25	[0, 0, 0]	n/a	catFR1	1	R1028M
6256.545	1.326	13813381	REC_WORD	1.326	n/a	PLUM	Fruit	11	25	[0, 0, 0]	n/a	catFR1	1	R1028M
6257.871	1.643	13814044	REC_WORD	1.643	n/a	MARIGOLD	Flowers	9	25	[0, 0, 0]	n/a	catFR1	1	R1028M
6259.514	1.228	13814865	REC_WORD	1.228	n/a	BLUEBERRY	Fruit	3	25	[0, 0, 0]	n/a	catFR1	1	R1028M
6260.742	0.509	13815479	REC_WORD	0.509	n/a	ROOM	Building	1	25	[0, 0, 0]	n/a	catFR1	1	R1028M
6261.251	1.284	13815733	REC_WORD	1.284	n/a	CEILING	Building	2	25	[0, 0, 0]	n/a	catFR1	1	R1028M
6262.535	3.078	13816375	REC_WORD	3.078	n/a	FLOOR	Building	7	25	[0, 0, 0]	n/a	catFR1	1	R1028M
6265.613	4.645	13817914	REC_WORD	4.645	n/a	FOUNDATION	Building	8	25	[0, 0, 0]	n/a	catFR1	1	R1028M
6270.258	15.129	13820236	REC_WORD	15.129	n/a	LEMON	Fruit	4	25	[0, 0, 0]	n/a	catFR1	1	R1028M
6285.387	0.011	13827800	REC_WORD	0.011	n/a	LILY	Flowers	6	25	[0, 0, 0]	n/a	catFR1	1	R1028M
6285.398	207.548	13827806	REC_END	n/a	n/a	n/a	n/a	-999	25	[0, 0, 0]	n/a	catFR1	1	R1028M
6492.946	0.0	13931569	SESS_END	n/a	n/a	n/a	n/a	-999	25	[0, 0, 0]	n/a	catFR1	1	R1028M
