onset	duration	sample	trial_type	response_time	stim_file	item_name	category	serialpos	list	test	answer	experiment	session	subject
0.0	5.632	9940	INSTRUCT_START	n/a	n/a	n/a	n/a	-999	-999	[0, 0, 0]	n/a	catFR1	3	R1500T
5.632	45.148	15568	INSTRUCT_END	n/a	n/a	n/a	n/a	-999	-999	[0, 0, 0]	n/a	catFR1	3	R1500T
50.78	10.351	60714	COUNTDOWN_START	n/a	n/a	n/a	n/a	-999	-999	[0, 0, 0]	n/a	catFR1	3	R1500T
61.131	0.0	71059	COUNTDOWN_END	n/a	n/a	n/a	n/a	-999	-999	[0, 0, 0]	n/a	catFR1	3	R1500T
61.131	1.967	71059	ENCODING_START	n/a	n/a	n/a	n/a	-999	-1	[0, 0, 0]	n/a	catFR1	3	R1500T
63.098	1.6	73033	WORD	n/a	n/a	BEACH	Landscapes	1	-1	[0, 0, 0]	n/a	catFR1	3	R1500T
64.698	0.867	74632	WORD_OFF	n/a	n/a	BEACH	Landscapes	1	-1	[0, 0, 0]	n/a	catFR1	3	R1500T
65.565	1.616	75493	WORD	n/a	n/a	CREEK	Landscapes	2	-1	[0, 0, 0]	n/a	catFR1	3	R1500T
67.181	0.934	77112	WORD_OFF	n/a	n/a	CREEK	Landscapes	2	-1	[0, 0, 0]	n/a	catFR1	3	R1500T
68.115	1.599	78044	WORD	n/a	n/a	ROBIN	Birds	3	-1	[0, 0, 0]	n/a	catFR1	3	R1500T
69.714	0.767	79643	WORD_OFF	n/a	n/a	ROBIN	Birds	3	-1	[0, 0, 0]	n/a	catFR1	3	R1500T
70.481	1.616	80412	WORD	n/a	n/a	DOVE	Birds	4	-1	[0, 0, 0]	n/a	catFR1	3	R1500T
72.097	0.951	82032	WORD_OFF	n/a	n/a	DOVE	Birds	4	-1	[0, 0, 0]	n/a	catFR1	3	R1500T
73.048	1.616	82983	WORD	n/a	n/a	BALL	Toys	5	-1	[0, 0, 0]	n/a	catFR1	3	R1500T
74.664	0.883	84593	WORD_OFF	n/a	n/a	BALL	Toys	5	-1	[0, 0, 0]	n/a	catFR1	3	R1500T
75.547	1.601	85473	WORD	n/a	n/a	BARBIE	Toys	6	-1	[0, 0, 0]	n/a	catFR1	3	R1500T
77.148	0.833	87083	WORD_OFF	n/a	n/a	BARBIE	Toys	6	-1	[0, 0, 0]	n/a	catFR1	3	R1500T
77.981	1.616	87913	WORD	n/a	n/a	ISLAND	Landscapes	7	-1	[0, 0, 0]	n/a	catFR1	3	R1500T
79.597	0.968	89522	WORD_OFF	n/a	n/a	ISLAND	Landscapes	7	-1	[0, 0, 0]	n/a	catFR1	3	R1500T
80.565	1.616	90494	WORD	n/a	n/a	LAKE	Landscapes	8	-1	[0, 0, 0]	n/a	catFR1	3	R1500T
82.181	0.934	92114	WORD_OFF	n/a	n/a	LAKE	Landscapes	8	-1	[0, 0, 0]	n/a	catFR1	3	R1500T
83.115	1.6	93045	WORD	n/a	n/a	SEAGULL	Birds	9	-1	[0, 0, 0]	n/a	catFR1	3	R1500T
84.715	0.766	94644	WORD_OFF	n/a	n/a	SEAGULL	Birds	9	-1	[0, 0, 0]	n/a	catFR1	3	R1500T
85.481	1.6	95414	WORD	n/a	n/a	FINCH	Birds	10	-1	[0, 0, 0]	n/a	catFR1	3	R1500T
87.081	0.883	97013	WORD_OFF	n/a	n/a	FINCH	Birds	10	-1	[0, 0, 0]	n/a	catFR1	3	R1500T
87.964	1.6	97894	WORD	n/a	n/a	SLINKY	Toys	11	-1	[0, 0, 0]	n/a	catFR1	3	R1500T
89.564	0.883	99493	WORD_OFF	n/a	n/a	SLINKY	Toys	11	-1	[0, 0, 0]	n/a	catFR1	3	R1500T
90.447	1.618	100374	WORD	n/a	n/a	FRISBEE	Toys	12	-1	[0, 0, 0]	n/a	catFR1	3	R1500T
92.065	0.001	101993	WORD_OFF	n/a	n/a	FRISBEE	Toys	12	-1	[0, 0, 0]	n/a	catFR1	3	R1500T
92.066	0.0	101993	ENCODING_END	n/a	n/a	n/a	n/a	-999	-1	[0, 0, 0]	n/a	catFR1	3	R1500T
92.066	0.0	101998	START	n/a	n/a	n/a	n/a	-999	-1	[-999, -999, -999]	n/a	catFR1	3	R1500T
92.066	0.0	101998	PROB	5.266	n/a	n/a	n/a	-999	-1	[5, 2, 3]	10.0	catFR1	3	R1500T
92.066	5.283	102003	DISTRACT_START	n/a	n/a	n/a	n/a	-999	-1	[0, 0, 0]	n/a	catFR1	3	R1500T
97.349	4.632	107281	PROB	4.616	n/a	n/a	n/a	-999	-1	[4, 1, 2]	7.0	catFR1	3	R1500T
101.981	6.2	111913	PROB	6.183	n/a	n/a	n/a	-999	-1	[7, 7, 3]	17.0	catFR1	3	R1500T
108.181	4.466	118112	PROB	4.45	n/a	n/a	n/a	-999	-1	[2, 5, 1]	8.0	catFR1	3	R1500T
112.647	0.0	122572	DISTRACT_END	n/a	n/a	n/a	n/a	-999	-1	[0, 0, 0]	n/a	catFR1	3	R1500T
112.647	2.251	122578	STOP	n/a	n/a	n/a	n/a	-999	-1	[-999, -999, -999]	n/a	catFR1	3	R1500T
114.898	1.341	124827	REC_START	n/a	n/a	n/a	n/a	-999	-1	[0, 0, 0]	n/a	catFR1	3	R1500T
116.239	1.26	126170	REC_WORD	1.341	n/a	BEACH	Landscapes	1	-1	[0, 0, 0]	n/a	catFR1	3	R1500T
117.499	1.0	127430	REC_WORD	2.601	n/a	SEAGULL	Birds	9	-1	[0, 0, 0]	n/a	catFR1	3	R1500T
118.499	1.717	128430	REC_WORD	3.601	n/a	SEAGULL	Birds	9	-1	[0, 0, 0]	n/a	catFR1	3	R1500T
120.216	24.883	130147	REC_WORD_VV	5.318	n/a	<>	n/a	-999	-1	[0, 0, 0]	n/a	catFR1	3	R1500T
145.099	10.798	155025	REC_END	n/a	n/a	n/a	n/a	-999	-1	[0, 0, 0]	n/a	catFR1	3	R1500T
155.897	10.35	165825	COUNTDOWN_START	n/a	n/a	n/a	n/a	-999	1	[0, 0, 0]	n/a	catFR1	3	R1500T
166.247	0.0	176171	COUNTDOWN_END	n/a	n/a	n/a	n/a	-999	1	[0, 0, 0]	n/a	catFR1	3	R1500T
166.247	2.168	176171	ENCODING_START	n/a	n/a	n/a	n/a	-999	1	[0, 0, 0]	n/a	catFR1	3	R1500T
168.415	1.6	178337	WORD	n/a	wordpools/wordpool_categorized_EN.txt	ONION	Vegetables	1	1	[0, 0, 0]	n/a	catFR1	3	R1500T
170.015	0.85	179936	WORD_OFF	n/a	n/a	ONION	Vegetables	1	1	[0, 0, 0]	n/a	catFR1	3	R1500T
170.865	1.6	180786	WORD	n/a	wordpools/wordpool_categorized_EN.txt	SPINACH	Vegetables	2	1	[0, 0, 0]	n/a	catFR1	3	R1500T
172.465	0.883	182386	WORD_OFF	n/a	n/a	SPINACH	Vegetables	2	1	[0, 0, 0]	n/a	catFR1	3	R1500T
173.348	1.6	183276	WORD	n/a	wordpools/wordpool_categorized_EN.txt	FREEZER	Appliances	3	1	[0, 0, 0]	n/a	catFR1	3	R1500T
174.948	0.967	184876	WORD_OFF	n/a	n/a	FREEZER	Appliances	3	1	[0, 0, 0]	n/a	catFR1	3	R1500T
175.915	1.616	185837	WORD	n/a	wordpools/wordpool_categorized_EN.txt	OVEN	Appliances	4	1	[0, 0, 0]	n/a	catFR1	3	R1500T
177.531	0.866	187457	WORD_OFF	n/a	n/a	OVEN	Appliances	4	1	[0, 0, 0]	n/a	catFR1	3	R1500T
178.397	1.601	188317	WORD	n/a	wordpools/wordpool_categorized_EN.txt	JEANS	Clothing	5	1	[0, 0, 0]	n/a	catFR1	3	R1500T
179.998	0.85	189927	WORD_OFF	n/a	n/a	JEANS	Clothing	5	1	[0, 0, 0]	n/a	catFR1	3	R1500T
180.848	1.616	190777	WORD	n/a	wordpools/wordpool_categorized_EN.txt	SOCKS	Clothing	6	1	[0, 0, 0]	n/a	catFR1	3	R1500T
182.464	0.966	192387	WORD_OFF	n/a	n/a	SOCKS	Clothing	6	1	[0, 0, 0]	n/a	catFR1	3	R1500T
183.43	1.601	193358	WORD	n/a	wordpools/wordpool_categorized_EN.txt	CABBAGE	Vegetables	7	1	[0, 0, 0]	n/a	catFR1	3	R1500T
185.031	0.967	194958	WORD_OFF	n/a	n/a	CABBAGE	Vegetables	7	1	[0, 0, 0]	n/a	catFR1	3	R1500T
185.998	1.616	195919	WORD	n/a	wordpools/wordpool_categorized_EN.txt	CORN	Vegetables	8	1	[0, 0, 0]	n/a	catFR1	3	R1500T
187.614	0.9	197539	WORD_OFF	n/a	n/a	CORN	Vegetables	8	1	[0, 0, 0]	n/a	catFR1	3	R1500T
188.514	1.6	198440	WORD	n/a	wordpools/wordpool_categorized_EN.txt	PANTS	Clothing	9	1	[0, 0, 0]	n/a	catFR1	3	R1500T
190.114	0.783	200039	WORD_OFF	n/a	n/a	PANTS	Clothing	9	1	[0, 0, 0]	n/a	catFR1	3	R1500T
190.897	1.617	200819	WORD	n/a	wordpools/wordpool_categorized_EN.txt	DRESS	Clothing	10	1	[0, 0, 0]	n/a	catFR1	3	R1500T
192.514	0.984	202438	WORD_OFF	n/a	n/a	DRESS	Clothing	10	1	[0, 0, 0]	n/a	catFR1	3	R1500T
193.498	1.614	203420	WORD	n/a	wordpools/wordpool_categorized_EN.txt	VACUUM	Appliances	11	1	[0, 0, 0]	n/a	catFR1	3	R1500T
195.112	0.903	205040	WORD_OFF	n/a	n/a	VACUUM	Appliances	11	1	[0, 0, 0]	n/a	catFR1	3	R1500T
196.015	1.616	205941	WORD	n/a	wordpools/wordpool_categorized_EN.txt	MIXER	Appliances	12	1	[0, 0, 0]	n/a	catFR1	3	R1500T
197.631	0.001	207558	PROB	6.583	n/a	n/a	n/a	-999	1	[5, 6, 4]	15.0	catFR1	3	R1500T
197.632	0.0	207559	START	n/a	n/a	n/a	n/a	-999	1	[-999, -999, -999]	n/a	catFR1	3	R1500T
197.631	0.001	207560	WORD_OFF	n/a	n/a	MIXER	Appliances	12	1	[0, 0, 0]	n/a	catFR1	3	R1500T
197.632	0.0	207560	ENCODING_END	n/a	n/a	n/a	n/a	-999	1	[0, 0, 0]	n/a	catFR1	3	R1500T
197.632	6.6	207560	DISTRACT_START	n/a	n/a	n/a	n/a	-999	1	[0, 0, 0]	n/a	catFR1	3	R1500T
204.232	4.767	214159	PROB	4.749	n/a	n/a	n/a	-999	1	[1, 2, 6]	9.0	catFR1	3	R1500T
208.999	4.733	218925	PROB	4.716	n/a	n/a	n/a	-999	1	[2, 3, 7]	12.0	catFR1	3	R1500T
213.732	5.132	223658	PROB	5.115	n/a	n/a	n/a	-999	1	[7, 6, 1]	14.0	catFR1	3	R1500T
218.864	0.0	228787	DISTRACT_END	n/a	n/a	n/a	n/a	-999	1	[0, 0, 0]	n/a	catFR1	3	R1500T
218.864	2.351	228790	STOP	n/a	n/a	n/a	n/a	-999	1	[-999, -999, -999]	n/a	catFR1	3	R1500T
221.215	5.622	231143	REC_START	n/a	n/a	n/a	n/a	-999	1	[0, 0, 0]	n/a	catFR1	3	R1500T
226.837	4.034	236762	REC_WORD	5.622	n/a	BEACH	Landscapes	-999	1	[0, 0, 0]	n/a	catFR1	3	R1500T
230.871	10.544	240796	REC_WORD	9.656	n/a	SEAGULL	Birds	-999	1	[0, 0, 0]	n/a	catFR1	3	R1500T
241.415	2.681	251340	REC_WORD	20.2	n/a	ONION	Vegetables	1	1	[0, 0, 0]	n/a	catFR1	3	R1500T
244.096	7.329	254021	REC_WORD	22.881	n/a	OVEN	Appliances	4	1	[0, 0, 0]	n/a	catFR1	3	R1500T
251.425	3.773	261351	REC_END	n/a	n/a	n/a	n/a	-999	1	[0, 0, 0]	n/a	catFR1	3	R1500T
255.198	10.349	265116	COUNTDOWN_START	n/a	n/a	n/a	n/a	-999	2	[0, 0, 0]	n/a	catFR1	3	R1500T
265.547	0.0	275472	COUNTDOWN_END	n/a	n/a	n/a	n/a	-999	2	[0, 0, 0]	n/a	catFR1	3	R1500T
265.547	2.334	275472	ENCODING_START	n/a	n/a	n/a	n/a	-999	2	[0, 0, 0]	n/a	catFR1	3	R1500T
267.881	1.6	277800	WORD	n/a	wordpools/wordpool_categorized_EN.txt	HUMIDITY	Weather	1	2	[0, 0, 0]	n/a	catFR1	3	R1500T
269.481	0.95	279399	WORD_OFF	n/a	n/a	HUMIDITY	Weather	1	2	[0, 0, 0]	n/a	catFR1	3	R1500T
270.431	1.6	280351	WORD	n/a	wordpools/wordpool_categorized_EN.txt	TORNADO	Weather	2	2	[0, 0, 0]	n/a	catFR1	3	R1500T
272.031	0.884	281950	WORD_OFF	n/a	n/a	TORNADO	Weather	2	2	[0, 0, 0]	n/a	catFR1	3	R1500T
272.915	1.616	282831	WORD	n/a	wordpools/wordpool_categorized_EN.txt	BINDER	OfficeSupplies	3	2	[0, 0, 0]	n/a	catFR1	3	R1500T
274.531	0.95	284450	WORD_OFF	n/a	n/a	BINDER	OfficeSupplies	3	2	[0, 0, 0]	n/a	catFR1	3	R1500T
275.481	1.6	285402	WORD	n/a	wordpools/wordpool_categorized_EN.txt	PEN	OfficeSupplies	4	2	[0, 0, 0]	n/a	catFR1	3	R1500T
277.081	0.983	287001	WORD_OFF	n/a	n/a	PEN	OfficeSupplies	4	2	[0, 0, 0]	n/a	catFR1	3	R1500T
278.064	1.601	287983	WORD	n/a	wordpools/wordpool_categorized_EN.txt	COLANDER	KitchenTools	5	2	[0, 0, 0]	n/a	catFR1	3	R1500T
279.665	0.916	289582	WORD_OFF	n/a	n/a	COLANDER	KitchenTools	5	2	[0, 0, 0]	n/a	catFR1	3	R1500T
280.581	1.6	290504	WORD	n/a	wordpools/wordpool_categorized_EN.txt	PEELER	KitchenTools	6	2	[0, 0, 0]	n/a	catFR1	3	R1500T
282.181	0.917	292103	WORD_OFF	n/a	n/a	PEELER	KitchenTools	6	2	[0, 0, 0]	n/a	catFR1	3	R1500T
283.098	1.6	293014	WORD	n/a	wordpools/wordpool_categorized_EN.txt	LIGHTNING	Weather	7	2	[0, 0, 0]	n/a	catFR1	3	R1500T
284.698	0.783	294623	WORD_OFF	n/a	n/a	LIGHTNING	Weather	7	2	[0, 0, 0]	n/a	catFR1	3	R1500T
285.481	1.616	295403	WORD	n/a	wordpools/wordpool_categorized_EN.txt	RAIN	Weather	8	2	[0, 0, 0]	n/a	catFR1	3	R1500T
287.097	0.918	297022	WORD_OFF	n/a	n/a	RAIN	Weather	8	2	[0, 0, 0]	n/a	catFR1	3	R1500T
288.015	1.615	297933	WORD	n/a	wordpools/wordpool_categorized_EN.txt	WHISK	KitchenTools	9	2	[0, 0, 0]	n/a	catFR1	3	R1500T
289.63	1.0	299553	WORD_OFF	n/a	n/a	WHISK	KitchenTools	9	2	[0, 0, 0]	n/a	catFR1	3	R1500T
290.63	1.6	300555	WORD	n/a	wordpools/wordpool_categorized_EN.txt	LADLE	KitchenTools	10	2	[0, 0, 0]	n/a	catFR1	3	R1500T
292.23	0.768	302154	WORD_OFF	n/a	n/a	LADLE	KitchenTools	10	2	[0, 0, 0]	n/a	catFR1	3	R1500T
292.998	1.616	302914	WORD	n/a	wordpools/wordpool_categorized_EN.txt	STAPLER	OfficeSupplies	11	2	[0, 0, 0]	n/a	catFR1	3	R1500T
294.614	0.984	304533	WORD_OFF	n/a	n/a	STAPLER	OfficeSupplies	11	2	[0, 0, 0]	n/a	catFR1	3	R1500T
295.598	1.616	305515	WORD	n/a	wordpools/wordpool_categorized_EN.txt	RULER	OfficeSupplies	12	2	[0, 0, 0]	n/a	catFR1	3	R1500T
297.214	0.001	307135	WORD_OFF	n/a	n/a	RULER	OfficeSupplies	12	2	[0, 0, 0]	n/a	catFR1	3	R1500T
297.215	0.0	307135	ENCODING_END	n/a	n/a	n/a	n/a	-999	2	[0, 0, 0]	n/a	catFR1	3	R1500T
297.215	0.0	307135	DISTRACT_START	n/a	n/a	n/a	n/a	-999	2	[0, 0, 0]	n/a	catFR1	3	R1500T
297.214	0.001	307136	PROB	6.584	n/a	n/a	n/a	-999	2	[7, 2, 4]	12.0	catFR1	3	R1500T
297.215	6.6	307137	START	n/a	n/a	n/a	n/a	-999	2	[-999, -999, -999]	n/a	catFR1	3	R1500T
303.815	6.933	313737	PROB	6.916	n/a	n/a	n/a	-999	2	[4, 8, 7]	19.0	catFR1	3	R1500T
310.748	6.35	320669	PROB	6.332	n/a	n/a	n/a	-999	2	[5, 3, 2]	10.0	catFR1	3	R1500T
317.098	4.717	327019	PROB	4.7	n/a	n/a	n/a	-999	2	[3, 2, 8]	13.0	catFR1	3	R1500T
321.815	0.0	331732	DISTRACT_END	n/a	n/a	n/a	n/a	-999	2	[0, 0, 0]	n/a	catFR1	3	R1500T
321.815	2.25	331736	STOP	n/a	n/a	n/a	n/a	-999	2	[-999, -999, -999]	n/a	catFR1	3	R1500T
324.065	20.139	333987	REC_START	n/a	n/a	n/a	n/a	-999	2	[0, 0, 0]	n/a	catFR1	3	R1500T
344.204	10.094	354124	REC_WORD	20.139	n/a	ONION	Vegetables	-999	2	[0, 0, 0]	n/a	catFR1	3	R1500T
354.298	3.614	364215	REC_END	n/a	n/a	n/a	n/a	-999	2	[0, 0, 0]	n/a	catFR1	3	R1500T
357.912	10.353	367829	COUNTDOWN_START	n/a	n/a	n/a	n/a	-999	3	[0, 0, 0]	n/a	catFR1	3	R1500T
368.265	0.0	378184	COUNTDOWN_END	n/a	n/a	n/a	n/a	-999	3	[0, 0, 0]	n/a	catFR1	3	R1500T
368.265	1.982	378184	ENCODING_START	n/a	n/a	n/a	n/a	-999	3	[0, 0, 0]	n/a	catFR1	3	R1500T
370.247	1.601	380158	WORD	n/a	wordpools/wordpool_categorized_EN.txt	SILK	Fabric	1	3	[0, 0, 0]	n/a	catFR1	3	R1500T
371.848	1.0	381767	WORD_OFF	n/a	n/a	SILK	Fabric	1	3	[0, 0, 0]	n/a	catFR1	3	R1500T
372.848	1.6	382759	WORD	n/a	wordpools/wordpool_categorized_EN.txt	NYLON	Fabric	2	3	[0, 0, 0]	n/a	catFR1	3	R1500T
374.448	0.965	384359	WORD_OFF	n/a	n/a	NYLON	Fabric	2	3	[0, 0, 0]	n/a	catFR1	3	R1500T
375.413	1.602	385331	WORD	n/a	wordpools/wordpool_categorized_EN.txt	MOUNTAIN	Landscapes	3	3	[0, 0, 0]	n/a	catFR1	3	R1500T
377.015	0.966	386930	WORD_OFF	n/a	n/a	MOUNTAIN	Landscapes	3	3	[0, 0, 0]	n/a	catFR1	3	R1500T
377.981	1.6	387892	WORD	n/a	wordpools/wordpool_categorized_EN.txt	OCEAN	Landscapes	4	3	[0, 0, 0]	n/a	catFR1	3	R1500T
379.581	1.0	389501	WORD_OFF	n/a	n/a	OCEAN	Landscapes	4	3	[0, 0, 0]	n/a	catFR1	3	R1500T
380.581	1.617	390493	WORD	n/a	wordpools/wordpool_categorized_EN.txt	SKIRT	Clothing	5	3	[0, 0, 0]	n/a	catFR1	3	R1500T
382.198	0.9	392113	WORD_OFF	n/a	n/a	SKIRT	Clothing	5	3	[0, 0, 0]	n/a	catFR1	3	R1500T
383.098	1.616	393013	WORD	n/a	wordpools/wordpool_categorized_EN.txt	SHORTS	Clothing	6	3	[0, 0, 0]	n/a	catFR1	3	R1500T
384.714	0.834	394633	WORD_OFF	n/a	n/a	SHORTS	Clothing	6	3	[0, 0, 0]	n/a	catFR1	3	R1500T
385.548	1.6	395463	WORD	n/a	wordpools/wordpool_categorized_EN.txt	WOOL	Fabric	7	3	[0, 0, 0]	n/a	catFR1	3	R1500T
387.148	0.866	397062	WORD_OFF	n/a	n/a	WOOL	Fabric	7	3	[0, 0, 0]	n/a	catFR1	3	R1500T
388.014	1.617	397933	WORD	n/a	wordpools/wordpool_categorized_EN.txt	VELVET	Fabric	8	3	[0, 0, 0]	n/a	catFR1	3	R1500T
389.631	0.95	399542	WORD_OFF	n/a	n/a	VELVET	Fabric	8	3	[0, 0, 0]	n/a	catFR1	3	R1500T
390.581	1.602	400494	WORD	n/a	wordpools/wordpool_categorized_EN.txt	STREAM	Landscapes	9	3	[0, 0, 0]	n/a	catFR1	3	R1500T
392.183	0.948	402093	WORD_OFF	n/a	n/a	STREAM	Landscapes	9	3	[0, 0, 0]	n/a	catFR1	3	R1500T
393.131	1.616	403045	WORD	n/a	wordpools/wordpool_categorized_EN.txt	VALLEY	Landscapes	10	3	[0, 0, 0]	n/a	catFR1	3	R1500T
394.747	0.765	404664	WORD_OFF	n/a	n/a	VALLEY	Landscapes	10	3	[0, 0, 0]	n/a	catFR1	3	R1500T
395.512	1.602	405424	WORD	n/a	wordpools/wordpool_categorized_EN.txt	UNDERWEAR	Clothing	11	3	[0, 0, 0]	n/a	catFR1	3	R1500T
397.114	0.783	407023	WORD_OFF	n/a	n/a	UNDERWEAR	Clothing	11	3	[0, 0, 0]	n/a	catFR1	3	R1500T
397.897	1.6	407812	WORD	n/a	wordpools/wordpool_categorized_EN.txt	COAT	Clothing	12	3	[0, 0, 0]	n/a	catFR1	3	R1500T
399.497	0.004	409412	WORD_OFF	n/a	n/a	COAT	Clothing	12	3	[0, 0, 0]	n/a	catFR1	3	R1500T
399.501	0.0	409412	ENCODING_END	n/a	n/a	n/a	n/a	-999	3	[0, 0, 0]	n/a	catFR1	3	R1500T
399.498	0.003	409415	PROB	5.167	n/a	n/a	n/a	-999	3	[1, 3, 4]	8.0	catFR1	3	R1500T
399.501	0.0	409418	START	n/a	n/a	n/a	n/a	-999	3	[-999, -999, -999]	n/a	catFR1	3	R1500T
399.501	5.181	409422	DISTRACT_START	n/a	n/a	n/a	n/a	-999	3	[0, 0, 0]	n/a	catFR1	3	R1500T
404.682	5.65	414598	PROB	5.633	n/a	n/a	n/a	-999	3	[6, 7, 3]	16.0	catFR1	3	R1500T
410.332	5.1	420248	PROB	5.083	n/a	n/a	n/a	-999	3	[4, 1, 5]	10.0	catFR1	3	R1500T
415.432	7.382	425348	PROB	7.366	n/a	n/a	n/a	-999	3	[8, 4, 5]	17.0	catFR1	3	R1500T
422.814	0.0	432724	DISTRACT_END	n/a	n/a	n/a	n/a	-999	3	[0, 0, 0]	n/a	catFR1	3	R1500T
422.814	2.017	432730	STOP	n/a	n/a	n/a	n/a	-999	3	[-999, -999, -999]	n/a	catFR1	3	R1500T
424.831	30.011	434746	REC_START	n/a	n/a	n/a	n/a	-999	3	[0, 0, 0]	n/a	catFR1	3	R1500T
454.842	0.242	464756	REC_WORD_VV	30.011	n/a	<>	n/a	-999	3	[0, 0, 0]	n/a	catFR1	3	R1500T
455.084	75.197	464994	REC_END	n/a	n/a	n/a	n/a	-999	3	[0, 0, 0]	n/a	catFR1	3	R1500T
530.281	10.349	540194	COUNTDOWN_START	n/a	n/a	n/a	n/a	-999	4	[0, 0, 0]	n/a	catFR1	3	R1500T
540.63	0.0	550539	COUNTDOWN_END	n/a	n/a	n/a	n/a	-999	4	[0, 0, 0]	n/a	catFR1	3	R1500T
540.63	1.985	550539	ENCODING_START	n/a	n/a	n/a	n/a	-999	4	[0, 0, 0]	n/a	catFR1	3	R1500T
542.615	1.616	552523	WORD	n/a	wordpools/wordpool_categorized_EN.txt	TRAIN	Vehicles	1	4	[0, 0, 0]	n/a	catFR1	3	R1500T
544.231	0.784	554142	WORD_OFF	n/a	n/a	TRAIN	Vehicles	1	4	[0, 0, 0]	n/a	catFR1	3	R1500T
545.015	1.6	554922	WORD	n/a	wordpools/wordpool_categorized_EN.txt	JEEP	Vehicles	2	4	[0, 0, 0]	n/a	catFR1	3	R1500T
546.615	0.95	556521	WORD_OFF	n/a	n/a	JEEP	Vehicles	2	4	[0, 0, 0]	n/a	catFR1	3	R1500T
547.565	1.616	557473	WORD	n/a	wordpools/wordpool_categorized_EN.txt	RECLINER	Furniture	3	4	[0, 0, 0]	n/a	catFR1	3	R1500T
549.181	0.95	559092	WORD_OFF	n/a	n/a	RECLINER	Furniture	3	4	[0, 0, 0]	n/a	catFR1	3	R1500T
550.131	1.6	560034	WORD	n/a	wordpools/wordpool_categorized_EN.txt	CHAIR	Furniture	4	4	[0, 0, 0]	n/a	catFR1	3	R1500T
551.731	0.767	561633	WORD_OFF	n/a	n/a	CHAIR	Furniture	4	4	[0, 0, 0]	n/a	catFR1	3	R1500T
552.498	1.617	562402	WORD	n/a	wordpools/wordpool_categorized_EN.txt	HURRICANE	Weather	5	4	[0, 0, 0]	n/a	catFR1	3	R1500T
554.115	0.766	564022	WORD_OFF	n/a	n/a	HURRICANE	Weather	5	4	[0, 0, 0]	n/a	catFR1	3	R1500T
554.881	1.617	564791	WORD	n/a	wordpools/wordpool_categorized_EN.txt	FOG	Weather	6	4	[0, 0, 0]	n/a	catFR1	3	R1500T
556.498	0.917	566401	WORD_OFF	n/a	n/a	FOG	Weather	6	4	[0, 0, 0]	n/a	catFR1	3	R1500T
557.415	1.599	567322	WORD	n/a	wordpools/wordpool_categorized_EN.txt	VAN	Vehicles	7	4	[0, 0, 0]	n/a	catFR1	3	R1500T
559.014	0.767	568921	WORD_OFF	n/a	n/a	VAN	Vehicles	7	4	[0, 0, 0]	n/a	catFR1	3	R1500T
559.781	1.617	569691	WORD	n/a	wordpools/wordpool_categorized_EN.txt	BUS	Vehicles	8	4	[0, 0, 0]	n/a	catFR1	3	R1500T
561.398	0.816	571300	WORD_OFF	n/a	n/a	BUS	Vehicles	8	4	[0, 0, 0]	n/a	catFR1	3	R1500T
562.214	1.601	572120	WORD	n/a	wordpools/wordpool_categorized_EN.txt	SNOW	Weather	9	4	[0, 0, 0]	n/a	catFR1	3	R1500T
563.815	0.8	573719	WORD_OFF	n/a	n/a	SNOW	Weather	9	4	[0, 0, 0]	n/a	catFR1	3	R1500T
564.615	1.616	574519	WORD	n/a	wordpools/wordpool_categorized_EN.txt	CLOUD	Weather	10	4	[0, 0, 0]	n/a	catFR1	3	R1500T
566.231	0.767	576139	WORD_OFF	n/a	n/a	CLOUD	Weather	10	4	[0, 0, 0]	n/a	catFR1	3	R1500T
566.998	1.6	576908	WORD	n/a	wordpools/wordpool_categorized_EN.txt	SHELF	Furniture	11	4	[0, 0, 0]	n/a	catFR1	3	R1500T
568.598	0.801	578507	WORD_OFF	n/a	n/a	SHELF	Furniture	11	4	[0, 0, 0]	n/a	catFR1	3	R1500T
569.399	1.599	579307	WORD	n/a	wordpools/wordpool_categorized_EN.txt	CABINET	Furniture	12	4	[0, 0, 0]	n/a	catFR1	3	R1500T
570.998	0.003	580906	WORD_OFF	n/a	n/a	CABINET	Furniture	12	4	[0, 0, 0]	n/a	catFR1	3	R1500T
571.001	0.0	580906	ENCODING_END	n/a	n/a	n/a	n/a	-999	4	[0, 0, 0]	n/a	catFR1	3	R1500T
571.001	0.0	580906	DISTRACT_START	n/a	n/a	n/a	n/a	-999	4	[0, 0, 0]	n/a	catFR1	3	R1500T
570.998	0.003	580906	PROB	4.882	n/a	n/a	n/a	-999	4	[1, 8, 6]	15.0	catFR1	3	R1500T
571.001	4.898	580909	START	n/a	n/a	n/a	n/a	-999	4	[-999, -999, -999]	n/a	catFR1	3	R1500T
575.899	4.433	585807	PROB	4.416	n/a	n/a	n/a	-999	4	[1, 7, 1]	9.0	catFR1	3	R1500T
580.332	4.033	590240	PROB	4.016	n/a	n/a	n/a	-999	4	[4, 2, 1]	7.0	catFR1	3	R1500T
584.365	5.234	594272	PROB	5.216	n/a	n/a	n/a	-999	4	[7, 5, 3]	15.0	catFR1	3	R1500T
589.599	5.281	599506	PROB	5.265	n/a	n/a	n/a	-999	4	[2, 5, 1]	8.0	catFR1	3	R1500T
594.88	0.0	604785	DISTRACT_END	n/a	n/a	n/a	n/a	-999	4	[0, 0, 0]	n/a	catFR1	3	R1500T
594.88	2.184	604787	STOP	n/a	n/a	n/a	n/a	-999	4	[-999, -999, -999]	n/a	catFR1	3	R1500T
597.064	10.429	606969	REC_START	n/a	n/a	n/a	n/a	-999	4	[0, 0, 0]	n/a	catFR1	3	R1500T
607.493	1.794	617399	REC_WORD	10.429	n/a	CLOUD	Weather	10	4	[0, 0, 0]	n/a	catFR1	3	R1500T
609.287	17.996	619193	REC_WORD_VV	12.223	n/a	<>	n/a	-999	4	[0, 0, 0]	n/a	catFR1	3	R1500T
627.283	4.815	637187	REC_END	n/a	n/a	n/a	n/a	-999	4	[0, 0, 0]	n/a	catFR1	3	R1500T
632.098	10.35	642005	COUNTDOWN_START	n/a	n/a	n/a	n/a	-999	5	[0, 0, 0]	n/a	catFR1	3	R1500T
642.448	0.0	652350	COUNTDOWN_END	n/a	n/a	n/a	n/a	-999	5	[0, 0, 0]	n/a	catFR1	3	R1500T
642.448	2.15	652350	ENCODING_START	n/a	n/a	n/a	n/a	-999	5	[0, 0, 0]	n/a	catFR1	3	R1500T
644.598	1.6	654496	WORD	n/a	wordpools/wordpool_categorized_EN.txt	ZEBRA	Zoo	1	5	[0, 0, 0]	n/a	catFR1	3	R1500T
646.198	1.0	656096	WORD_OFF	n/a	n/a	ZEBRA	Zoo	1	5	[0, 0, 0]	n/a	catFR1	3	R1500T
647.198	1.617	657098	WORD	n/a	wordpools/wordpool_categorized_EN.txt	ORANGUTAN	Zoo	2	5	[0, 0, 0]	n/a	catFR1	3	R1500T
648.815	0.916	658717	WORD_OFF	n/a	n/a	ORANGUTAN	Zoo	2	5	[0, 0, 0]	n/a	catFR1	3	R1500T
649.731	1.601	659628	WORD	n/a	wordpools/wordpool_categorized_EN.txt	DENIM	Fabric	3	5	[0, 0, 0]	n/a	catFR1	3	R1500T
651.332	0.849	661238	WORD_OFF	n/a	n/a	DENIM	Fabric	3	5	[0, 0, 0]	n/a	catFR1	3	R1500T
652.181	1.6	662078	WORD	n/a	wordpools/wordpool_categorized_EN.txt	SPANDEX	Fabric	4	5	[0, 0, 0]	n/a	catFR1	3	R1500T
653.781	0.867	663677	WORD_OFF	n/a	n/a	SPANDEX	Fabric	4	5	[0, 0, 0]	n/a	catFR1	3	R1500T
654.648	1.6	664548	WORD	n/a	wordpools/wordpool_categorized_EN.txt	COLA	Beverages	5	5	[0, 0, 0]	n/a	catFR1	3	R1500T
656.248	0.8	666147	WORD_OFF	n/a	n/a	COLA	Beverages	5	5	[0, 0, 0]	n/a	catFR1	3	R1500T
657.048	1.617	666947	WORD	n/a	wordpools/wordpool_categorized_EN.txt	WINE	Beverages	6	5	[0, 0, 0]	n/a	catFR1	3	R1500T
658.665	1.0	668567	WORD_OFF	n/a	n/a	WINE	Beverages	6	5	[0, 0, 0]	n/a	catFR1	3	R1500T
659.665	1.616	669569	WORD	n/a	wordpools/wordpool_categorized_EN.txt	LINEN	Fabric	7	5	[0, 0, 0]	n/a	catFR1	3	R1500T
661.281	0.784	671178	WORD_OFF	n/a	n/a	LINEN	Fabric	7	5	[0, 0, 0]	n/a	catFR1	3	R1500T
662.065	1.6	671968	WORD	n/a	wordpools/wordpool_categorized_EN.txt	SUEDE	Fabric	8	5	[0, 0, 0]	n/a	catFR1	3	R1500T
663.665	0.816	673567	WORD_OFF	n/a	n/a	SUEDE	Fabric	8	5	[0, 0, 0]	n/a	catFR1	3	R1500T
664.481	1.6	674387	WORD	n/a	wordpools/wordpool_categorized_EN.txt	TEA	Beverages	9	5	[0, 0, 0]	n/a	catFR1	3	R1500T
666.081	0.817	675986	WORD_OFF	n/a	n/a	TEA	Beverages	9	5	[0, 0, 0]	n/a	catFR1	3	R1500T
666.898	1.6	676796	WORD	n/a	wordpools/wordpool_categorized_EN.txt	SODA	Beverages	10	5	[0, 0, 0]	n/a	catFR1	3	R1500T
668.498	0.816	678395	WORD_OFF	n/a	n/a	SODA	Beverages	10	5	[0, 0, 0]	n/a	catFR1	3	R1500T
669.314	1.601	679215	WORD	n/a	wordpools/wordpool_categorized_EN.txt	GIRAFFE	Zoo	11	5	[0, 0, 0]	n/a	catFR1	3	R1500T
670.915	0.766	680815	WORD_OFF	n/a	n/a	GIRAFFE	Zoo	11	5	[0, 0, 0]	n/a	catFR1	3	R1500T
671.681	1.617	681584	WORD	n/a	wordpools/wordpool_categorized_EN.txt	ELEPHANT	Zoo	12	5	[0, 0, 0]	n/a	catFR1	3	R1500T
673.298	0.0	683201	PROB	5.117	n/a	n/a	n/a	-999	5	[1, 2, 5]	8.0	catFR1	3	R1500T
673.298	0.003	683204	WORD_OFF	n/a	n/a	ELEPHANT	Zoo	12	5	[0, 0, 0]	n/a	catFR1	3	R1500T
673.301	0.0	683204	ENCODING_END	n/a	n/a	n/a	n/a	-999	5	[0, 0, 0]	n/a	catFR1	3	R1500T
673.301	0.0	683204	DISTRACT_START	n/a	n/a	n/a	n/a	-999	5	[0, 0, 0]	n/a	catFR1	3	R1500T
673.301	5.13	683204	START	n/a	n/a	n/a	n/a	-999	5	[-999, -999, -999]	n/a	catFR1	3	R1500T
678.431	6.65	688334	PROB	6.634	n/a	n/a	n/a	-999	5	[6, 6, 4]	16.0	catFR1	3	R1500T
685.081	4.885	694983	PROB	4.867	n/a	n/a	n/a	-999	5	[1, 7, 2]	10.0	catFR1	3	R1500T
689.966	6.414	699868	PROB	6.399	n/a	n/a	n/a	-999	5	[7, 7, 2]	16.0	catFR1	3	R1500T
696.38	0.0	706282	STOP	n/a	n/a	n/a	n/a	-999	5	[-999, -999, -999]	n/a	catFR1	3	R1500T
696.38	2.15	706283	DISTRACT_END	n/a	n/a	n/a	n/a	-999	5	[0, 0, 0]	n/a	catFR1	3	R1500T
698.53	0.903	708427	REC_START	n/a	n/a	n/a	n/a	-999	5	[0, 0, 0]	n/a	catFR1	3	R1500T
699.433	2.55	709335	REC_WORD	0.903	n/a	GIRAFFE	Zoo	11	5	[0, 0, 0]	n/a	catFR1	3	R1500T
701.983	21.95	711884	REC_WORD_VV	3.453	n/a	<>	n/a	-999	5	[0, 0, 0]	n/a	catFR1	3	R1500T
723.933	4.816	733833	REC_WORD_VV	25.403	n/a	<>	n/a	-999	5	[0, 0, 0]	n/a	catFR1	3	R1500T
728.749	8.932	738644	REC_END	n/a	n/a	n/a	n/a	-999	5	[0, 0, 0]	n/a	catFR1	3	R1500T
737.681	10.349	747582	COUNTDOWN_START	n/a	n/a	n/a	n/a	-999	6	[0, 0, 0]	n/a	catFR1	3	R1500T
748.03	0.0	757928	COUNTDOWN_END	n/a	n/a	n/a	n/a	-999	6	[0, 0, 0]	n/a	catFR1	3	R1500T
748.03	1.901	757938	ENCODING_START	n/a	n/a	n/a	n/a	-999	6	[0, 0, 0]	n/a	catFR1	3	R1500T
749.931	1.6	759831	WORD	n/a	wordpools/wordpool_categorized_EN.txt	BED	Furniture	1	6	[0, 0, 0]	n/a	catFR1	3	R1500T
751.531	0.784	761430	WORD_OFF	n/a	n/a	BED	Furniture	1	6	[0, 0, 0]	n/a	catFR1	3	R1500T
752.315	1.614	762209	WORD	n/a	wordpools/wordpool_categorized_EN.txt	COUCH	Furniture	2	6	[0, 0, 0]	n/a	catFR1	3	R1500T
753.929	0.769	763829	WORD_OFF	n/a	n/a	COUCH	Furniture	2	6	[0, 0, 0]	n/a	catFR1	3	R1500T
754.698	1.617	764598	WORD	n/a	wordpools/wordpool_categorized_EN.txt	FLEECE	Fabric	3	6	[0, 0, 0]	n/a	catFR1	3	R1500T
756.315	0.883	766208	WORD_OFF	n/a	n/a	FLEECE	Fabric	3	6	[0, 0, 0]	n/a	catFR1	3	R1500T
757.198	1.6	767098	WORD	n/a	wordpools/wordpool_categorized_EN.txt	SATIN	Fabric	4	6	[0, 0, 0]	n/a	catFR1	3	R1500T
758.798	0.817	768698	WORD_OFF	n/a	n/a	SATIN	Fabric	4	6	[0, 0, 0]	n/a	catFR1	3	R1500T
759.615	1.6	769508	WORD	n/a	wordpools/wordpool_categorized_EN.txt	MARIGOLD	Flowers	5	6	[0, 0, 0]	n/a	catFR1	3	R1500T
761.215	0.983	771107	WORD_OFF	n/a	n/a	MARIGOLD	Flowers	5	6	[0, 0, 0]	n/a	catFR1	3	R1500T
762.198	1.6	772089	WORD	n/a	wordpools/wordpool_categorized_EN.txt	CARNATION	Flowers	6	6	[0, 0, 0]	n/a	catFR1	3	R1500T
763.798	0.983	773698	WORD_OFF	n/a	n/a	CARNATION	Flowers	6	6	[0, 0, 0]	n/a	catFR1	3	R1500T
764.781	1.617	774680	WORD	n/a	wordpools/wordpool_categorized_EN.txt	COTTON	Fabric	7	6	[0, 0, 0]	n/a	catFR1	3	R1500T
766.398	0.8	776290	WORD_OFF	n/a	n/a	COTTON	Fabric	7	6	[0, 0, 0]	n/a	catFR1	3	R1500T
767.198	1.617	777089	WORD	n/a	wordpools/wordpool_categorized_EN.txt	LEATHER	Fabric	8	6	[0, 0, 0]	n/a	catFR1	3	R1500T
768.815	0.816	778709	WORD_OFF	n/a	n/a	LEATHER	Fabric	8	6	[0, 0, 0]	n/a	catFR1	3	R1500T
769.631	1.617	779529	WORD	n/a	wordpools/wordpool_categorized_EN.txt	TULIP	Flowers	9	6	[0, 0, 0]	n/a	catFR1	3	R1500T
771.248	0.781	781148	WORD_OFF	n/a	n/a	TULIP	Flowers	9	6	[0, 0, 0]	n/a	catFR1	3	R1500T
772.029	1.602	781928	WORD	n/a	wordpools/wordpool_categorized_EN.txt	PETUNIA	Flowers	10	6	[0, 0, 0]	n/a	catFR1	3	R1500T
773.631	0.834	783527	WORD_OFF	n/a	n/a	PETUNIA	Flowers	10	6	[0, 0, 0]	n/a	catFR1	3	R1500T
774.465	1.6	784357	WORD	n/a	wordpools/wordpool_categorized_EN.txt	DESK	Furniture	11	6	[0, 0, 0]	n/a	catFR1	3	R1500T
776.065	1.0	785957	WORD_OFF	n/a	n/a	DESK	Furniture	11	6	[0, 0, 0]	n/a	catFR1	3	R1500T
777.065	1.6	786959	WORD	n/a	wordpools/wordpool_categorized_EN.txt	SOFA	Furniture	12	6	[0, 0, 0]	n/a	catFR1	3	R1500T
778.665	0.001	788558	WORD_OFF	n/a	n/a	SOFA	Furniture	12	6	[0, 0, 0]	n/a	catFR1	3	R1500T
778.666	0.0	788558	ENCODING_END	n/a	n/a	n/a	n/a	-999	6	[0, 0, 0]	n/a	catFR1	3	R1500T
778.666	0.0	788564	PROB	6.249	n/a	n/a	n/a	-999	6	[6, 5, 3]	14.0	catFR1	3	R1500T
778.666	0.0	788564	START	n/a	n/a	n/a	n/a	-999	6	[-999, -999, -999]	n/a	catFR1	3	R1500T
778.666	6.266	788568	DISTRACT_START	n/a	n/a	n/a	n/a	-999	6	[0, 0, 0]	n/a	catFR1	3	R1500T
784.932	6.966	794829	PROB	6.95	n/a	n/a	n/a	-999	6	[6, 2, 2]	10.0	catFR1	3	R1500T
791.898	8.915	801795	PROB	8.9	n/a	n/a	n/a	-999	6	[2, 2, 5]	9.0	catFR1	3	R1500T
800.813	0.0	810706	DISTRACT_END	n/a	n/a	n/a	n/a	-999	6	[0, 0, 0]	n/a	catFR1	3	R1500T
800.813	2.218	810709	STOP	n/a	n/a	n/a	n/a	-999	6	[-999, -999, -999]	n/a	catFR1	3	R1500T
803.031	29.994	812921	REC_START	n/a	n/a	n/a	n/a	-999	6	[0, 0, 0]	n/a	catFR1	3	R1500T
833.025	0.237	842920	REC_WORD_VV	29.994	n/a	<>	n/a	-999	6	[0, 0, 0]	n/a	catFR1	3	R1500T
833.262	58.652	843158	REC_END	n/a	n/a	n/a	n/a	-999	6	[0, 0, 0]	n/a	catFR1	3	R1500T
891.914	10.35	901808	COUNTDOWN_START	n/a	n/a	n/a	n/a	-999	7	[0, 0, 0]	n/a	catFR1	3	R1500T
902.264	0.0	912153	COUNTDOWN_END	n/a	n/a	n/a	n/a	-999	7	[0, 0, 0]	n/a	catFR1	3	R1500T
902.264	2.301	912153	ENCODING_START	n/a	n/a	n/a	n/a	-999	7	[0, 0, 0]	n/a	catFR1	3	R1500T
904.565	1.615	914451	WORD	n/a	wordpools/wordpool_categorized_EN.txt	COW	FarmAnimals	1	7	[0, 0, 0]	n/a	catFR1	3	R1500T
906.18	1.001	916070	WORD_OFF	n/a	n/a	COW	FarmAnimals	1	7	[0, 0, 0]	n/a	catFR1	3	R1500T
907.181	1.616	917073	WORD	n/a	wordpools/wordpool_categorized_EN.txt	GOAT	FarmAnimals	2	7	[0, 0, 0]	n/a	catFR1	3	R1500T
908.797	0.983	918682	WORD_OFF	n/a	n/a	GOAT	FarmAnimals	2	7	[0, 0, 0]	n/a	catFR1	3	R1500T
909.78	1.601	919664	WORD	n/a	wordpools/wordpool_categorized_EN.txt	FLUTE	Instruments	3	7	[0, 0, 0]	n/a	catFR1	3	R1500T
911.381	0.782	921273	WORD_OFF	n/a	n/a	FLUTE	Instruments	3	7	[0, 0, 0]	n/a	catFR1	3	R1500T
912.163	1.601	922053	WORD	n/a	wordpools/wordpool_categorized_EN.txt	PIANO	Instruments	4	7	[0, 0, 0]	n/a	catFR1	3	R1500T
913.764	0.85	923652	WORD_OFF	n/a	n/a	PIANO	Instruments	4	7	[0, 0, 0]	n/a	catFR1	3	R1500T
914.614	1.601	924502	WORD	n/a	wordpools/wordpool_categorized_EN.txt	THUNDERSTORM	Weather	5	7	[0, 0, 0]	n/a	catFR1	3	R1500T
916.215	0.867	926102	WORD_OFF	n/a	n/a	THUNDERSTORM	Weather	5	7	[0, 0, 0]	n/a	catFR1	3	R1500T
917.082	1.599	926972	WORD	n/a	wordpools/wordpool_categorized_EN.txt	WIND	Weather	6	7	[0, 0, 0]	n/a	catFR1	3	R1500T
918.681	1.0	928572	WORD_OFF	n/a	n/a	WIND	Weather	6	7	[0, 0, 0]	n/a	catFR1	3	R1500T
919.681	1.616	929574	WORD	n/a	wordpools/wordpool_categorized_EN.txt	BASS	Instruments	7	7	[0, 0, 0]	n/a	catFR1	3	R1500T
921.297	0.884	931183	WORD_OFF	n/a	n/a	BASS	Instruments	7	7	[0, 0, 0]	n/a	catFR1	3	R1500T
922.181	1.617	932064	WORD	n/a	wordpools/wordpool_categorized_EN.txt	GUITAR	Instruments	8	7	[0, 0, 0]	n/a	catFR1	3	R1500T
923.798	0.817	933683	WORD_OFF	n/a	n/a	GUITAR	Instruments	8	7	[0, 0, 0]	n/a	catFR1	3	R1500T
924.615	1.616	934503	WORD	n/a	wordpools/wordpool_categorized_EN.txt	CHICKEN	FarmAnimals	9	7	[0, 0, 0]	n/a	catFR1	3	R1500T
926.231	0.85	936123	WORD_OFF	n/a	n/a	CHICKEN	FarmAnimals	9	7	[0, 0, 0]	n/a	catFR1	3	R1500T
927.081	1.617	936973	WORD	n/a	wordpools/wordpool_categorized_EN.txt	BULL	FarmAnimals	10	7	[0, 0, 0]	n/a	catFR1	3	R1500T
928.698	1.0	938583	WORD_OFF	n/a	n/a	BULL	FarmAnimals	10	7	[0, 0, 0]	n/a	catFR1	3	R1500T
929.698	1.6	939585	WORD	n/a	wordpools/wordpool_categorized_EN.txt	DRIZZLE	Weather	11	7	[0, 0, 0]	n/a	catFR1	3	R1500T
931.298	0.767	941184	WORD_OFF	n/a	n/a	DRIZZLE	Weather	11	7	[0, 0, 0]	n/a	catFR1	3	R1500T
932.065	1.616	941954	WORD	n/a	wordpools/wordpool_categorized_EN.txt	THUNDER	Weather	12	7	[0, 0, 0]	n/a	catFR1	3	R1500T
933.681	0.0	943571	PROB	6.35	n/a	n/a	n/a	-999	7	[8, 2, 3]	13.0	catFR1	3	R1500T
933.681	0.002	943573	WORD_OFF	n/a	n/a	THUNDER	Weather	12	7	[0, 0, 0]	n/a	catFR1	3	R1500T
933.683	0.0	943573	ENCODING_END	n/a	n/a	n/a	n/a	-999	7	[0, 0, 0]	n/a	catFR1	3	R1500T
933.683	0.0	943573	DISTRACT_START	n/a	n/a	n/a	n/a	-999	7	[0, 0, 0]	n/a	catFR1	3	R1500T
933.683	6.366	943573	START	n/a	n/a	n/a	n/a	-999	7	[-999, -999, -999]	n/a	catFR1	3	R1500T
940.049	7.082	949938	PROB	7.065	n/a	n/a	n/a	-999	7	[7, 4, 7]	18.0	catFR1	3	R1500T
947.131	7.167	957020	PROB	7.149	n/a	n/a	n/a	-999	7	[5, 3, 7]	15.0	catFR1	3	R1500T
954.298	0.0	964182	DISTRACT_END	n/a	n/a	n/a	n/a	-999	7	[0, 0, 0]	n/a	catFR1	3	R1500T
954.298	2.117	964187	STOP	n/a	n/a	n/a	n/a	-999	7	[-999, -999, -999]	n/a	catFR1	3	R1500T
956.415	13.638	966296	REC_START	n/a	n/a	n/a	n/a	-999	7	[0, 0, 0]	n/a	catFR1	3	R1500T
970.053	4.568	979941	REC_WORD	13.638	n/a	COW	FarmAnimals	1	7	[0, 0, 0]	n/a	catFR1	3	R1500T
974.621	12.017	984509	REC_WORD_VV	18.206	n/a	<>	n/a	-999	7	[0, 0, 0]	n/a	catFR1	3	R1500T
986.638	29.11	996524	REC_END	n/a	n/a	n/a	n/a	-999	7	[0, 0, 0]	n/a	catFR1	3	R1500T
1015.748	10.35	1025636	COUNTDOWN_START	n/a	n/a	n/a	n/a	-999	8	[0, 0, 0]	n/a	catFR1	3	R1500T
1026.098	0.0	1035981	COUNTDOWN_END	n/a	n/a	n/a	n/a	-999	8	[0, 0, 0]	n/a	catFR1	3	R1500T
1026.098	2.117	1035981	ENCODING_START	n/a	n/a	n/a	n/a	-999	8	[0, 0, 0]	n/a	catFR1	3	R1500T
1028.215	1.6	1038096	WORD	n/a	wordpools/wordpool_categorized_EN.txt	WALNUT	Trees	1	8	[0, 0, 0]	n/a	catFR1	3	R1500T
1029.815	0.816	1039696	WORD_OFF	n/a	n/a	WALNUT	Trees	1	8	[0, 0, 0]	n/a	catFR1	3	R1500T
1030.631	1.616	1040516	WORD	n/a	wordpools/wordpool_categorized_EN.txt	CYPRESS	Trees	2	8	[0, 0, 0]	n/a	catFR1	3	R1500T
1032.247	1.001	1042125	WORD_OFF	n/a	n/a	CYPRESS	Trees	2	8	[0, 0, 0]	n/a	catFR1	3	R1500T
1033.248	1.6	1043127	WORD	n/a	wordpools/wordpool_categorized_EN.txt	REFRIGERATOR	Appliances	3	8	[0, 0, 0]	n/a	catFR1	3	R1500T
1034.848	0.802	1044727	WORD_OFF	n/a	n/a	REFRIGERATOR	Appliances	3	8	[0, 0, 0]	n/a	catFR1	3	R1500T
1035.65	1.616	1045536	WORD	n/a	wordpools/wordpool_categorized_EN.txt	DRYER	Appliances	4	8	[0, 0, 0]	n/a	catFR1	3	R1500T
1037.266	0.832	1047146	WORD_OFF	n/a	n/a	DRYER	Appliances	4	8	[0, 0, 0]	n/a	catFR1	3	R1500T
1038.098	1.6	1047976	WORD	n/a	wordpools/wordpool_categorized_EN.txt	ROOSTER	FarmAnimals	5	8	[0, 0, 0]	n/a	catFR1	3	R1500T
1039.698	0.983	1049575	WORD_OFF	n/a	n/a	ROOSTER	FarmAnimals	5	8	[0, 0, 0]	n/a	catFR1	3	R1500T
1040.681	1.617	1050567	WORD	n/a	wordpools/wordpool_categorized_EN.txt	SHEEP	FarmAnimals	6	8	[0, 0, 0]	n/a	catFR1	3	R1500T
1042.298	0.9	1052177	WORD_OFF	n/a	n/a	SHEEP	FarmAnimals	6	8	[0, 0, 0]	n/a	catFR1	3	R1500T
1043.198	1.6	1053078	WORD	n/a	wordpools/wordpool_categorized_EN.txt	IRON	Appliances	7	8	[0, 0, 0]	n/a	catFR1	3	R1500T
1044.798	0.9	1054677	WORD_OFF	n/a	n/a	IRON	Appliances	7	8	[0, 0, 0]	n/a	catFR1	3	R1500T
1045.698	1.617	1055578	WORD	n/a	wordpools/wordpool_categorized_EN.txt	DISHWASHER	Appliances	8	8	[0, 0, 0]	n/a	catFR1	3	R1500T
1047.315	0.799	1057198	WORD_OFF	n/a	n/a	DISHWASHER	Appliances	8	8	[0, 0, 0]	n/a	catFR1	3	R1500T
1048.114	1.601	1057997	WORD	n/a	wordpools/wordpool_categorized_EN.txt	HORSE	FarmAnimals	9	8	[0, 0, 0]	n/a	catFR1	3	R1500T
1049.715	0.866	1059597	WORD_OFF	n/a	n/a	HORSE	FarmAnimals	9	8	[0, 0, 0]	n/a	catFR1	3	R1500T
1050.581	1.602	1060467	WORD	n/a	wordpools/wordpool_categorized_EN.txt	PIG	FarmAnimals	10	8	[0, 0, 0]	n/a	catFR1	3	R1500T
1052.183	0.982	1062066	WORD_OFF	n/a	n/a	PIG	FarmAnimals	10	8	[0, 0, 0]	n/a	catFR1	3	R1500T
1053.165	1.6	1063048	WORD	n/a	wordpools/wordpool_categorized_EN.txt	PINE	Trees	11	8	[0, 0, 0]	n/a	catFR1	3	R1500T
1054.765	0.95	1064648	WORD_OFF	n/a	n/a	PINE	Trees	11	8	[0, 0, 0]	n/a	catFR1	3	R1500T
1055.715	1.616	1065599	WORD	n/a	wordpools/wordpool_categorized_EN.txt	WILLOW	Trees	12	8	[0, 0, 0]	n/a	catFR1	3	R1500T
1057.331	0.002	1067209	WORD_OFF	n/a	n/a	WILLOW	Trees	12	8	[0, 0, 0]	n/a	catFR1	3	R1500T
1057.333	0.0	1067209	ENCODING_END	n/a	n/a	n/a	n/a	-999	8	[0, 0, 0]	n/a	catFR1	3	R1500T
1057.332	0.001	1067215	PROB	8.848	n/a	n/a	n/a	-999	8	[8, 8, 7]	18.0	catFR1	3	R1500T
1057.333	0.0	1067216	START	n/a	n/a	n/a	n/a	-999	8	[-999, -999, -999]	n/a	catFR1	3	R1500T
1057.333	8.866	1067219	DISTRACT_START	n/a	n/a	n/a	n/a	-999	8	[0, 0, 0]	n/a	catFR1	3	R1500T
1066.199	6.616	1076082	PROB	6.598	n/a	n/a	n/a	-999	8	[2, 2, 3]	7.0	catFR1	3	R1500T
1072.815	9.799	1082698	PROB	9.782	n/a	n/a	n/a	-999	8	[8, 6, 3]	17.0	catFR1	3	R1500T
1082.614	0.0	1092494	DISTRACT_END	n/a	n/a	n/a	n/a	-999	8	[0, 0, 0]	n/a	catFR1	3	R1500T
1082.614	2.083	1092496	STOP	n/a	n/a	n/a	n/a	-999	8	[-999, -999, -999]	n/a	catFR1	3	R1500T
1084.697	30.01	1094578	REC_START	n/a	n/a	n/a	n/a	-999	8	[0, 0, 0]	n/a	catFR1	3	R1500T
1114.707	0.228	1124588	REC_WORD_VV	30.01	n/a	<>	n/a	-999	8	[0, 0, 0]	n/a	catFR1	3	R1500T
1114.935	15.013	1124815	REC_END	n/a	n/a	n/a	n/a	-999	8	[0, 0, 0]	n/a	catFR1	3	R1500T
1129.948	10.349	1139827	COUNTDOWN_START	n/a	n/a	n/a	n/a	-999	9	[0, 0, 0]	n/a	catFR1	3	R1500T
1140.297	0.0	1150172	COUNTDOWN_END	n/a	n/a	n/a	n/a	-999	9	[0, 0, 0]	n/a	catFR1	3	R1500T
1140.297	2.117	1150172	ENCODING_START	n/a	n/a	n/a	n/a	-999	9	[0, 0, 0]	n/a	catFR1	3	R1500T
1142.414	1.617	1152288	WORD	n/a	wordpools/wordpool_categorized_EN.txt	TROMBONE	Instruments	1	9	[0, 0, 0]	n/a	catFR1	3	R1500T
1144.031	0.934	1153907	WORD_OFF	n/a	n/a	TROMBONE	Instruments	1	9	[0, 0, 0]	n/a	catFR1	3	R1500T
1144.965	1.616	1154839	WORD	n/a	wordpools/wordpool_categorized_EN.txt	ORGAN	Instruments	2	9	[0, 0, 0]	n/a	catFR1	3	R1500T
1146.581	0.85	1156458	WORD_OFF	n/a	n/a	ORGAN	Instruments	2	9	[0, 0, 0]	n/a	catFR1	3	R1500T
1147.431	1.6	1157308	WORD	n/a	wordpools/wordpool_categorized_EN.txt	BOOKCASE	Furniture	3	9	[0, 0, 0]	n/a	catFR1	3	R1500T
1149.031	0.767	1158908	WORD_OFF	n/a	n/a	BOOKCASE	Furniture	3	9	[0, 0, 0]	n/a	catFR1	3	R1500T
1149.798	1.616	1159677	WORD	n/a	wordpools/wordpool_categorized_EN.txt	DRESSER	Furniture	4	9	[0, 0, 0]	n/a	catFR1	3	R1500T
1151.414	0.817	1161287	WORD_OFF	n/a	n/a	DRESSER	Furniture	4	9	[0, 0, 0]	n/a	catFR1	3	R1500T
1152.231	1.601	1162106	WORD	n/a	wordpools/wordpool_categorized_EN.txt	HEAD	BodyParts	5	9	[0, 0, 0]	n/a	catFR1	3	R1500T
1153.832	0.999	1163706	WORD_OFF	n/a	n/a	HEAD	BodyParts	5	9	[0, 0, 0]	n/a	catFR1	3	R1500T
1154.831	1.617	1164708	WORD	n/a	wordpools/wordpool_categorized_EN.txt	LEG	BodyParts	6	9	[0, 0, 0]	n/a	catFR1	3	R1500T
1156.448	0.933	1166328	WORD_OFF	n/a	n/a	LEG	BodyParts	6	9	[0, 0, 0]	n/a	catFR1	3	R1500T
1157.381	1.6	1167259	WORD	n/a	wordpools/wordpool_categorized_EN.txt	TABLE	Furniture	7	9	[0, 0, 0]	n/a	catFR1	3	R1500T
1158.981	0.784	1168858	WORD_OFF	n/a	n/a	TABLE	Furniture	7	9	[0, 0, 0]	n/a	catFR1	3	R1500T
1159.765	1.616	1169638	WORD	n/a	wordpools/wordpool_categorized_EN.txt	NIGHTSTAND	Furniture	8	9	[0, 0, 0]	n/a	catFR1	3	R1500T
1161.381	0.9	1171257	WORD_OFF	n/a	n/a	NIGHTSTAND	Furniture	8	9	[0, 0, 0]	n/a	catFR1	3	R1500T
1162.281	1.617	1172158	WORD	n/a	wordpools/wordpool_categorized_EN.txt	ARM	BodyParts	9	9	[0, 0, 0]	n/a	catFR1	3	R1500T
1163.898	0.85	1173778	WORD_OFF	n/a	n/a	ARM	BodyParts	9	9	[0, 0, 0]	n/a	catFR1	3	R1500T
1164.748	1.6	1174618	WORD	n/a	wordpools/wordpool_categorized_EN.txt	TOE	BodyParts	10	9	[0, 0, 0]	n/a	catFR1	3	R1500T
1166.348	0.816	1176227	WORD_OFF	n/a	n/a	TOE	BodyParts	10	9	[0, 0, 0]	n/a	catFR1	3	R1500T
1167.164	1.601	1177037	WORD	n/a	wordpools/wordpool_categorized_EN.txt	CELLO	Instruments	11	9	[0, 0, 0]	n/a	catFR1	3	R1500T
1168.765	0.9	1178636	WORD_OFF	n/a	n/a	CELLO	Instruments	11	9	[0, 0, 0]	n/a	catFR1	3	R1500T
1169.665	1.599	1179537	WORD	n/a	wordpools/wordpool_categorized_EN.txt	TRUMPET	Instruments	12	9	[0, 0, 0]	n/a	catFR1	3	R1500T
1171.264	0.002	1181137	WORD_OFF	n/a	n/a	TRUMPET	Instruments	12	9	[0, 0, 0]	n/a	catFR1	3	R1500T
1171.266	0.0	1181137	ENCODING_END	n/a	n/a	n/a	n/a	-999	9	[0, 0, 0]	n/a	catFR1	3	R1500T
1171.265	0.001	1181143	PROB	5.832	n/a	n/a	n/a	-999	9	[3, 3, 6]	12.0	catFR1	3	R1500T
1171.266	0.0	1181144	START	n/a	n/a	n/a	n/a	-999	9	[-999, -999, -999]	n/a	catFR1	3	R1500T
1171.266	5.848	1181147	DISTRACT_START	n/a	n/a	n/a	n/a	-999	9	[0, 0, 0]	n/a	catFR1	3	R1500T
1177.114	5.585	1186991	PROB	5.567	n/a	n/a	n/a	-999	9	[4, 3, 3]	10.0	catFR1	3	R1500T
1182.699	3.582	1192576	PROB	3.566	n/a	n/a	n/a	-999	9	[2, 2, 1]	5.0	catFR1	3	R1500T
1186.281	5.184	1196158	PROB	5.167	n/a	n/a	n/a	-999	9	[3, 7, 8]	18.0	catFR1	3	R1500T
1191.465	0.0	1201341	DISTRACT_END	n/a	n/a	n/a	n/a	-999	9	[0, 0, 0]	n/a	catFR1	3	R1500T
1191.465	2.3	1201342	STOP	n/a	n/a	n/a	n/a	-999	9	[-999, -999, -999]	n/a	catFR1	3	R1500T
1193.765	30.011	1203637	REC_START	n/a	n/a	n/a	n/a	-999	9	[0, 0, 0]	n/a	catFR1	3	R1500T
1223.776	0.229	1233651	REC_WORD_VV	30.011	n/a	<>	n/a	-999	9	[0, 0, 0]	n/a	catFR1	3	R1500T
1224.005	7.393	1233875	REC_END	n/a	n/a	n/a	n/a	-999	9	[0, 0, 0]	n/a	catFR1	3	R1500T
1231.398	10.349	1241274	COUNTDOWN_START	n/a	n/a	n/a	n/a	-999	10	[0, 0, 0]	n/a	catFR1	3	R1500T
1241.747	0.0	1251619	COUNTDOWN_END	n/a	n/a	n/a	n/a	-999	10	[0, 0, 0]	n/a	catFR1	3	R1500T
1241.747	2.034	1251619	ENCODING_START	n/a	n/a	n/a	n/a	-999	10	[0, 0, 0]	n/a	catFR1	3	R1500T
1243.781	1.6	1253654	WORD	n/a	wordpools/wordpool_categorized_EN.txt	HICKORY	Trees	1	10	[0, 0, 0]	n/a	catFR1	3	R1500T
1245.381	0.85	1255253	WORD_OFF	n/a	n/a	HICKORY	Trees	1	10	[0, 0, 0]	n/a	catFR1	3	R1500T
1246.231	1.6	1256104	WORD	n/a	wordpools/wordpool_categorized_EN.txt	OAK	Trees	2	10	[0, 0, 0]	n/a	catFR1	3	R1500T
1247.831	0.867	1257703	WORD_OFF	n/a	n/a	OAK	Trees	2	10	[0, 0, 0]	n/a	catFR1	3	R1500T
1248.698	1.6	1258573	WORD	n/a	wordpools/wordpool_categorized_EN.txt	ELBOW	BodyParts	3	10	[0, 0, 0]	n/a	catFR1	3	R1500T
1250.298	0.95	1260173	WORD_OFF	n/a	n/a	ELBOW	BodyParts	3	10	[0, 0, 0]	n/a	catFR1	3	R1500T
1251.248	1.6	1261114	WORD	n/a	wordpools/wordpool_categorized_EN.txt	KNEE	BodyParts	4	10	[0, 0, 0]	n/a	catFR1	3	R1500T
1252.848	0.917	1262713	WORD_OFF	n/a	n/a	KNEE	BodyParts	4	10	[0, 0, 0]	n/a	catFR1	3	R1500T
1253.765	1.616	1263635	WORD	n/a	wordpools/wordpool_categorized_EN.txt	MOTH	Insects	5	10	[0, 0, 0]	n/a	catFR1	3	R1500T
1255.381	0.9	1265254	WORD_OFF	n/a	n/a	MOTH	Insects	5	10	[0, 0, 0]	n/a	catFR1	3	R1500T
1256.281	1.617	1266155	WORD	n/a	wordpools/wordpool_categorized_EN.txt	SPIDER	Insects	6	10	[0, 0, 0]	n/a	catFR1	3	R1500T
1257.898	0.833	1267765	WORD_OFF	n/a	n/a	SPIDER	Insects	6	10	[0, 0, 0]	n/a	catFR1	3	R1500T
1258.731	1.617	1268605	WORD	n/a	wordpools/wordpool_categorized_EN.txt	NOSE	BodyParts	7	10	[0, 0, 0]	n/a	catFR1	3	R1500T
1260.348	0.767	1270214	WORD_OFF	n/a	n/a	NOSE	BodyParts	7	10	[0, 0, 0]	n/a	catFR1	3	R1500T
1261.115	1.616	1270983	WORD	n/a	wordpools/wordpool_categorized_EN.txt	HAND	BodyParts	8	10	[0, 0, 0]	n/a	catFR1	3	R1500T
1262.731	0.984	1272603	WORD_OFF	n/a	n/a	HAND	BodyParts	8	10	[0, 0, 0]	n/a	catFR1	3	R1500T
1263.715	1.616	1273585	WORD	n/a	wordpools/wordpool_categorized_EN.txt	SPRUCE	Trees	9	10	[0, 0, 0]	n/a	catFR1	3	R1500T
1265.331	0.85	1275205	WORD_OFF	n/a	n/a	SPRUCE	Trees	9	10	[0, 0, 0]	n/a	catFR1	3	R1500T
1266.181	1.6	1276055	WORD	n/a	wordpools/wordpool_categorized_EN.txt	ELM	Trees	10	10	[0, 0, 0]	n/a	catFR1	3	R1500T
1267.781	0.85	1277654	WORD_OFF	n/a	n/a	ELM	Trees	10	10	[0, 0, 0]	n/a	catFR1	3	R1500T
1268.631	1.617	1278504	WORD	n/a	wordpools/wordpool_categorized_EN.txt	ROACH	Insects	11	10	[0, 0, 0]	n/a	catFR1	3	R1500T
1270.248	0.817	1280114	WORD_OFF	n/a	n/a	ROACH	Insects	11	10	[0, 0, 0]	n/a	catFR1	3	R1500T
1271.065	1.599	1280934	WORD	n/a	wordpools/wordpool_categorized_EN.txt	CRICKET	Insects	12	10	[0, 0, 0]	n/a	catFR1	3	R1500T
1272.664	0.002	1282533	WORD_OFF	n/a	n/a	CRICKET	Insects	12	10	[0, 0, 0]	n/a	catFR1	3	R1500T
1272.666	0.0	1282533	ENCODING_END	n/a	n/a	n/a	n/a	-999	10	[0, 0, 0]	n/a	catFR1	3	R1500T
1272.666	0.0	1282533	DISTRACT_START	n/a	n/a	n/a	n/a	-999	10	[0, 0, 0]	n/a	catFR1	3	R1500T
1272.665	0.001	1282538	PROB	5.333	n/a	n/a	n/a	-999	10	[2, 7, 8]	17.0	catFR1	3	R1500T
1272.666	5.349	1282539	START	n/a	n/a	n/a	n/a	-999	10	[-999, -999, -999]	n/a	catFR1	3	R1500T
1278.015	4.366	1287887	PROB	4.349	n/a	n/a	n/a	-999	10	[6, 5, 1]	12.0	catFR1	3	R1500T
1282.381	9.018	1292253	PROB	9.0	n/a	n/a	n/a	-999	10	[7, 7, 7]	21.0	catFR1	3	R1500T
1291.399	7.132	1301271	PROB	7.116	n/a	n/a	n/a	-999	10	[8, 7, 3]	18.0	catFR1	3	R1500T
1298.531	0.0	1308396	DISTRACT_END	n/a	n/a	n/a	n/a	-999	10	[0, 0, 0]	n/a	catFR1	3	R1500T
1298.531	2.017	1308402	STOP	n/a	n/a	n/a	n/a	-999	10	[-999, -999, -999]	n/a	catFR1	3	R1500T
1300.548	5.71	1310418	REC_START	n/a	n/a	n/a	n/a	-999	10	[0, 0, 0]	n/a	catFR1	3	R1500T
1306.258	1.0	1316129	REC_WORD_VV	5.71	n/a	<>	n/a	-999	10	[0, 0, 0]	n/a	catFR1	3	R1500T
1307.258	1.0	1317129	REC_WORD_VV	6.71	n/a	<>	n/a	-999	10	[0, 0, 0]	n/a	catFR1	3	R1500T
1308.258	3.703	1318129	REC_WORD_VV	7.71	n/a	<>	n/a	-999	10	[0, 0, 0]	n/a	catFR1	3	R1500T
1311.961	12.023	1321832	REC_WORD	11.413	n/a	HICKORY	Trees	1	10	[0, 0, 0]	n/a	catFR1	3	R1500T
1323.984	1.514	1333854	REC_WORD	23.436	n/a	KNEE	BodyParts	4	10	[0, 0, 0]	n/a	catFR1	3	R1500T
1325.498	5.287	1335368	REC_WORD	24.95	n/a	HAND	BodyParts	8	10	[0, 0, 0]	n/a	catFR1	3	R1500T
1330.785	7.797	1340656	REC_END	n/a	n/a	n/a	n/a	-999	10	[0, 0, 0]	n/a	catFR1	3	R1500T
1338.582	10.348	1348451	COUNTDOWN_START	n/a	n/a	n/a	n/a	-999	11	[0, 0, 0]	n/a	catFR1	3	R1500T
1348.93	0.0	1358796	COUNTDOWN_END	n/a	n/a	n/a	n/a	-999	11	[0, 0, 0]	n/a	catFR1	3	R1500T
1348.93	2.168	1358796	ENCODING_START	n/a	n/a	n/a	n/a	-999	11	[0, 0, 0]	n/a	catFR1	3	R1500T
1351.098	1.6	1360962	WORD	n/a	wordpools/wordpool_categorized_EN.txt	JUICE	Beverages	1	11	[0, 0, 0]	n/a	catFR1	3	R1500T
1352.698	1.0	1362561	WORD_OFF	n/a	n/a	JUICE	Beverages	1	11	[0, 0, 0]	n/a	catFR1	3	R1500T
1353.698	1.616	1363563	WORD	n/a	wordpools/wordpool_categorized_EN.txt	WATER	Beverages	2	11	[0, 0, 0]	n/a	catFR1	3	R1500T
1355.314	0.984	1365183	WORD_OFF	n/a	n/a	WATER	Beverages	2	11	[0, 0, 0]	n/a	catFR1	3	R1500T
1356.298	1.617	1366165	WORD	n/a	wordpools/wordpool_categorized_EN.txt	GRAPE	Fruit	3	11	[0, 0, 0]	n/a	catFR1	3	R1500T
1357.915	0.766	1367784	WORD_OFF	n/a	n/a	GRAPE	Fruit	3	11	[0, 0, 0]	n/a	catFR1	3	R1500T
1358.681	1.6	1368544	WORD	n/a	wordpools/wordpool_categorized_EN.txt	APPLE	Fruit	4	11	[0, 0, 0]	n/a	catFR1	3	R1500T
1360.281	0.784	1370143	WORD_OFF	n/a	n/a	APPLE	Fruit	4	11	[0, 0, 0]	n/a	catFR1	3	R1500T
1361.065	1.616	1370932	WORD	n/a	wordpools/wordpool_categorized_EN.txt	MAPLE	Trees	5	11	[0, 0, 0]	n/a	catFR1	3	R1500T
1362.681	0.934	1372542	WORD_OFF	n/a	n/a	MAPLE	Trees	5	11	[0, 0, 0]	n/a	catFR1	3	R1500T
1363.615	1.616	1373483	WORD	n/a	wordpools/wordpool_categorized_EN.txt	EVERGREEN	Trees	6	11	[0, 0, 0]	n/a	catFR1	3	R1500T
1365.231	0.983	1375093	WORD_OFF	n/a	n/a	EVERGREEN	Trees	6	11	[0, 0, 0]	n/a	catFR1	3	R1500T
1366.214	1.601	1376075	WORD	n/a	wordpools/wordpool_categorized_EN.txt	LEMON	Fruit	7	11	[0, 0, 0]	n/a	catFR1	3	R1500T
1367.815	0.866	1377684	WORD_OFF	n/a	n/a	LEMON	Fruit	7	11	[0, 0, 0]	n/a	catFR1	3	R1500T
1368.681	1.6	1378545	WORD	n/a	wordpools/wordpool_categorized_EN.txt	BLUEBERRY	Fruit	8	11	[0, 0, 0]	n/a	catFR1	3	R1500T
1370.281	0.783	1380144	WORD_OFF	n/a	n/a	BLUEBERRY	Fruit	8	11	[0, 0, 0]	n/a	catFR1	3	R1500T
1371.064	1.601	1380933	WORD	n/a	wordpools/wordpool_categorized_EN.txt	MILK	Beverages	9	11	[0, 0, 0]	n/a	catFR1	3	R1500T
1372.665	0.933	1382533	WORD_OFF	n/a	n/a	MILK	Beverages	9	11	[0, 0, 0]	n/a	catFR1	3	R1500T
1373.598	1.6	1383464	WORD	n/a	wordpools/wordpool_categorized_EN.txt	COFFEE	Beverages	10	11	[0, 0, 0]	n/a	catFR1	3	R1500T
1375.198	0.8	1385063	WORD_OFF	n/a	n/a	COFFEE	Beverages	10	11	[0, 0, 0]	n/a	catFR1	3	R1500T
1375.998	1.617	1385863	WORD	n/a	wordpools/wordpool_categorized_EN.txt	BIRCH	Trees	11	11	[0, 0, 0]	n/a	catFR1	3	R1500T
1377.615	0.916	1387483	WORD_OFF	n/a	n/a	BIRCH	Trees	11	11	[0, 0, 0]	n/a	catFR1	3	R1500T
1378.531	1.6	1388394	WORD	n/a	wordpools/wordpool_categorized_EN.txt	CEDAR	Trees	12	11	[0, 0, 0]	n/a	catFR1	3	R1500T
1380.131	0.002	1389993	WORD_OFF	n/a	n/a	CEDAR	Trees	12	11	[0, 0, 0]	n/a	catFR1	3	R1500T
1380.133	0.0	1389993	ENCODING_END	n/a	n/a	n/a	n/a	-999	11	[0, 0, 0]	n/a	catFR1	3	R1500T
1380.132	0.001	1389999	PROB	4.85	n/a	n/a	n/a	-999	11	[1, 1, 6]	8.0	catFR1	3	R1500T
1380.133	0.0	1390000	START	n/a	n/a	n/a	n/a	-999	11	[-999, -999, -999]	n/a	catFR1	3	R1500T
1380.133	4.866	1390003	DISTRACT_START	n/a	n/a	n/a	n/a	-999	11	[0, 0, 0]	n/a	catFR1	3	R1500T
1384.999	8.983	1394866	PROB	8.966	n/a	n/a	n/a	-999	11	[8, 8, 6]	18.0	catFR1	3	R1500T
1393.982	5.433	1403848	PROB	5.416	n/a	n/a	n/a	-999	11	[6, 6, 2]	14.0	catFR1	3	R1500T
1399.415	4.866	1409281	PROB	4.85	n/a	n/a	n/a	-999	11	[1, 5, 1]	7.0	catFR1	3	R1500T
1404.281	0.0	1414145	DISTRACT_END	n/a	n/a	n/a	n/a	-999	11	[0, 0, 0]	n/a	catFR1	3	R1500T
1404.281	2.284	1414147	STOP	n/a	n/a	n/a	n/a	-999	11	[-999, -999, -999]	n/a	catFR1	3	R1500T
1406.565	17.634	1416431	REC_START	n/a	n/a	n/a	n/a	-999	11	[0, 0, 0]	n/a	catFR1	3	R1500T
1424.199	12.592	1434064	REC_WORD	17.634	n/a	BIRCH	Trees	11	11	[0, 0, 0]	n/a	catFR1	3	R1500T
1436.791	9.14	1446648	REC_END	n/a	n/a	n/a	n/a	-999	11	[0, 0, 0]	n/a	catFR1	3	R1500T
1445.931	10.35	1455799	COUNTDOWN_START	n/a	n/a	n/a	n/a	-999	12	[0, 0, 0]	n/a	catFR1	3	R1500T
1456.281	0.0	1466144	COUNTDOWN_END	n/a	n/a	n/a	n/a	-999	12	[0, 0, 0]	n/a	catFR1	3	R1500T
1456.281	2.35	1466144	ENCODING_START	n/a	n/a	n/a	n/a	-999	12	[0, 0, 0]	n/a	catFR1	3	R1500T
1458.631	1.6	1468493	WORD	n/a	wordpools/wordpool_categorized_EN.txt	STRAWBERRY	Fruit	1	12	[0, 0, 0]	n/a	catFR1	3	R1500T
1460.231	0.867	1470092	WORD_OFF	n/a	n/a	STRAWBERRY	Fruit	1	12	[0, 0, 0]	n/a	catFR1	3	R1500T
1461.098	1.615	1470962	WORD	n/a	wordpools/wordpool_categorized_EN.txt	PLUM	Fruit	2	12	[0, 0, 0]	n/a	catFR1	3	R1500T
1462.713	0.784	1472572	WORD_OFF	n/a	n/a	PLUM	Fruit	2	12	[0, 0, 0]	n/a	catFR1	3	R1500T
1463.497	1.601	1473361	WORD	n/a	wordpools/wordpool_categorized_EN.txt	BUTTERFLY	Insects	3	12	[0, 0, 0]	n/a	catFR1	3	R1500T
1465.098	0.85	1474961	WORD_OFF	n/a	n/a	BUTTERFLY	Insects	3	12	[0, 0, 0]	n/a	catFR1	3	R1500T
1465.948	1.6	1475811	WORD	n/a	wordpools/wordpool_categorized_EN.txt	FLY	Insects	4	12	[0, 0, 0]	n/a	catFR1	3	R1500T
1467.548	1.0	1477410	WORD_OFF	n/a	n/a	FLY	Insects	4	12	[0, 0, 0]	n/a	catFR1	3	R1500T
1468.548	1.617	1478402	WORD	n/a	wordpools/wordpool_categorized_EN.txt	LEMONADE	Beverages	5	12	[0, 0, 0]	n/a	catFR1	3	R1500T
1470.165	0.817	1480022	WORD_OFF	n/a	n/a	LEMONADE	Beverages	5	12	[0, 0, 0]	n/a	catFR1	3	R1500T
1470.982	1.616	1480842	WORD	n/a	wordpools/wordpool_categorized_EN.txt	CIDER	Beverages	6	12	[0, 0, 0]	n/a	catFR1	3	R1500T
1472.598	0.833	1482462	WORD_OFF	n/a	n/a	CIDER	Beverages	6	12	[0, 0, 0]	n/a	catFR1	3	R1500T
1473.431	1.6	1483292	WORD	n/a	wordpools/wordpool_categorized_EN.txt	ANT	Insects	7	12	[0, 0, 0]	n/a	catFR1	3	R1500T
1475.031	0.917	1484891	WORD_OFF	n/a	n/a	ANT	Insects	7	12	[0, 0, 0]	n/a	catFR1	3	R1500T
1475.948	1.6	1485812	WORD	n/a	wordpools/wordpool_categorized_EN.txt	BEE	Insects	8	12	[0, 0, 0]	n/a	catFR1	3	R1500T
1477.548	0.933	1487411	WORD_OFF	n/a	n/a	BEE	Insects	8	12	[0, 0, 0]	n/a	catFR1	3	R1500T
1478.481	1.617	1488343	WORD	n/a	wordpools/wordpool_categorized_EN.txt	CHERRY	Fruit	9	12	[0, 0, 0]	n/a	catFR1	3	R1500T
1480.098	0.899	1489952	WORD_OFF	n/a	n/a	CHERRY	Fruit	9	12	[0, 0, 0]	n/a	catFR1	3	R1500T
1480.997	1.601	1490853	WORD	n/a	wordpools/wordpool_categorized_EN.txt	PEACH	Fruit	10	12	[0, 0, 0]	n/a	catFR1	3	R1500T
1482.598	0.95	1492463	WORD_OFF	n/a	n/a	PEACH	Fruit	10	12	[0, 0, 0]	n/a	catFR1	3	R1500T
1483.548	1.616	1493404	WORD	n/a	wordpools/wordpool_categorized_EN.txt	BEER	Beverages	11	12	[0, 0, 0]	n/a	catFR1	3	R1500T
1485.164	0.951	1495024	WORD_OFF	n/a	n/a	BEER	Beverages	11	12	[0, 0, 0]	n/a	catFR1	3	R1500T
1486.115	1.616	1495975	WORD	n/a	wordpools/wordpool_categorized_EN.txt	RUM	Beverages	12	12	[0, 0, 0]	n/a	catFR1	3	R1500T
1487.731	0.0	1497584	WORD_OFF	n/a	n/a	RUM	Beverages	12	12	[0, 0, 0]	n/a	catFR1	3	R1500T
1487.731	0.001	1497593	PROB	9.55	n/a	n/a	n/a	-999	12	[2, 3, 5]	10.0	catFR1	3	R1500T
1487.732	0.0	1497594	START	n/a	n/a	n/a	n/a	-999	12	[-999, -999, -999]	n/a	catFR1	3	R1500T
1487.732	0.0	1497595	ENCODING_END	n/a	n/a	n/a	n/a	-999	12	[0, 0, 0]	n/a	catFR1	3	R1500T
1487.732	9.566	1497595	DISTRACT_START	n/a	n/a	n/a	n/a	-999	12	[0, 0, 0]	n/a	catFR1	3	R1500T
1497.298	6.667	1507159	PROB	6.65	n/a	n/a	n/a	-999	12	[4, 2, 7]	13.0	catFR1	3	R1500T
1503.965	6.85	1513826	PROB	6.833	n/a	n/a	n/a	-999	12	[7, 2, 6]	15.0	catFR1	3	R1500T
1510.815	0.0	1520674	DISTRACT_END	n/a	n/a	n/a	n/a	-999	12	[0, 0, 0]	n/a	catFR1	3	R1500T
1510.815	2.233	1520675	STOP	n/a	n/a	n/a	n/a	-999	12	[-999, -999, -999]	n/a	catFR1	3	R1500T
1513.048	5.774	1522909	REC_START	n/a	n/a	n/a	n/a	-999	12	[0, 0, 0]	n/a	catFR1	3	R1500T
1518.822	3.295	1528682	REC_WORD	5.774	n/a	GRAPE	Fruit	-999	12	[0, 0, 0]	n/a	catFR1	3	R1500T
1522.117	1.0	1531977	REC_WORD_VV	9.069	n/a	<>	n/a	-999	12	[0, 0, 0]	n/a	catFR1	3	R1500T
1523.117	2.35	1532977	REC_WORD_VV	10.069	n/a	<>	n/a	-999	12	[0, 0, 0]	n/a	catFR1	3	R1500T
1525.467	6.176	1535327	REC_WORD_VV	12.419	n/a	<>	n/a	-999	12	[0, 0, 0]	n/a	catFR1	3	R1500T
1531.643	6.653	1541502	REC_WORD	18.595	n/a	LEMONADE	Beverages	5	12	[0, 0, 0]	n/a	catFR1	3	R1500T
1538.296	4.985	1548155	REC_WORD	25.248	n/a	STRAWBERRY	Fruit	1	12	[0, 0, 0]	n/a	catFR1	3	R1500T
1543.281	0.0	1553136	REC_END	n/a	n/a	n/a	n/a	-999	12	[0, 0, 0]	n/a	catFR1	3	R1500T
