onset	duration	sample	trial_type	response_time	stim_file	item_name	category	serialpos	list	test	answer	experiment	session	subject
0.0	2.049	700384	INSTRUCT_START	n/a	n/a	n/a	n/a	-999	-999	[0, 0, 0]	n/a	catFR1	0	R1376D
2.049	54.483	702422	INSTRUCT_END	n/a	n/a	n/a	n/a	-999	-999	[0, 0, 0]	n/a	catFR1	0	R1376D
56.532	10.35	756906	COUNTDOWN_START	n/a	n/a	n/a	n/a	-999	-999	[0, 0, 0]	n/a	catFR1	0	R1376D
66.882	0.001	767262	COUNTDOWN_END	n/a	n/a	n/a	n/a	-999	-999	[0, 0, 0]	n/a	catFR1	0	R1376D
66.883	2.082	767262	ENCODING_START	n/a	n/a	n/a	n/a	-999	-1	[0, 0, 0]	n/a	catFR1	0	R1376D
68.965	1.616	769344	WORD	n/a	n/a	FIREMAN	Professions	1	-1	[0, 0, 0]	n/a	catFR1	0	R1376D
70.581	0.95	770957	WORD_OFF	n/a	n/a	FIREMAN	Professions	1	-1	[0, 0, 0]	n/a	catFR1	0	R1376D
71.531	1.617	771906	WORD	n/a	n/a	FARMER	Professions	2	-1	[0, 0, 0]	n/a	catFR1	0	R1376D
73.148	0.8	773530	WORD_OFF	n/a	n/a	FARMER	Professions	2	-1	[0, 0, 0]	n/a	catFR1	0	R1376D
73.948	1.6	774326	WORD	n/a	n/a	DENIM	Materials	3	-1	[0, 0, 0]	n/a	catFR1	0	R1376D
75.548	0.867	775928	WORD_OFF	n/a	n/a	DENIM	Materials	3	-1	[0, 0, 0]	n/a	catFR1	0	R1376D
76.415	1.617	776789	WORD	n/a	n/a	SILK	Materials	4	-1	[0, 0, 0]	n/a	catFR1	0	R1376D
78.032	0.816	778403	WORD_OFF	n/a	n/a	SILK	Materials	4	-1	[0, 0, 0]	n/a	catFR1	0	R1376D
78.848	1.616	779220	WORD	n/a	n/a	DAY	Times	5	-1	[0, 0, 0]	n/a	catFR1	0	R1376D
80.464	0.834	780834	WORD_OFF	n/a	n/a	DAY	Times	5	-1	[0, 0, 0]	n/a	catFR1	0	R1376D
81.298	1.6	781673	WORD	n/a	n/a	HOUR	Times	6	-1	[0, 0, 0]	n/a	catFR1	0	R1376D
82.898	0.817	783276	WORD_OFF	n/a	n/a	HOUR	Times	6	-1	[0, 0, 0]	n/a	catFR1	0	R1376D
83.715	1.6	784093	WORD	n/a	n/a	TEACHER	Professions	7	-1	[0, 0, 0]	n/a	catFR1	0	R1376D
85.315	0.816	785685	WORD_OFF	n/a	n/a	TEACHER	Professions	7	-1	[0, 0, 0]	n/a	catFR1	0	R1376D
86.131	1.6	786502	WORD	n/a	n/a	PLUMBER	Professions	8	-1	[0, 0, 0]	n/a	catFR1	0	R1376D
87.731	0.967	788105	WORD_OFF	n/a	n/a	PLUMBER	Professions	8	-1	[0, 0, 0]	n/a	catFR1	0	R1376D
88.698	1.617	789075	WORD	n/a	n/a	SECOND	Times	9	-1	[0, 0, 0]	n/a	catFR1	0	R1376D
90.315	0.916	790688	WORD_OFF	n/a	n/a	SECOND	Times	9	-1	[0, 0, 0]	n/a	catFR1	0	R1376D
91.231	1.6	791604	WORD	n/a	n/a	MINUTE	Times	10	-1	[0, 0, 0]	n/a	catFR1	0	R1376D
92.831	0.884	793206	WORD_OFF	n/a	n/a	MINUTE	Times	10	-1	[0, 0, 0]	n/a	catFR1	0	R1376D
93.715	1.616	794089	WORD	n/a	n/a	WOOL	Materials	11	-1	[0, 0, 0]	n/a	catFR1	0	R1376D
95.331	0.9	795703	WORD_OFF	n/a	n/a	WOOL	Materials	11	-1	[0, 0, 0]	n/a	catFR1	0	R1376D
96.231	1.601	796608	WORD	n/a	n/a	LEATHER	Materials	12	-1	[0, 0, 0]	n/a	catFR1	0	R1376D
97.832	0.002	798206	PROB	0.002	n/a	n/a	n/a	-999	-1	[2, 3, 4]	9	catFR1	0	R1376D
97.834	0.0	798208	START	n/a	n/a	n/a	n/a	-999	-1	[-999, -999, -999]	n/a	catFR1	0	R1376D
97.831	0.002	798210	WORD_OFF	n/a	n/a	LEATHER	Materials	12	-1	[0, 0, 0]	n/a	catFR1	0	R1376D
97.833	0.001	798210	ENCODING_END	n/a	n/a	n/a	n/a	-999	-1	[0, 0, 0]	n/a	catFR1	0	R1376D
97.834	7.047	798210	DISTRACT_START	n/a	n/a	n/a	n/a	-999	-1	[0, 0, 0]	n/a	catFR1	0	R1376D
104.881	13.133	805255	PROB	13.133	n/a	n/a	n/a	-999	-1	[6, 5, 5]	16	catFR1	0	R1376D
118.014	0.0	818387	STOP	n/a	n/a	n/a	n/a	-999	-1	[-999, -999, -999]	n/a	catFR1	0	R1376D
118.014	1.367	818388	DISTRACT_END	n/a	n/a	n/a	n/a	-999	-1	[0, 0, 0]	n/a	catFR1	0	R1376D
119.381	2.809	819751	REC_START	n/a	n/a	n/a	n/a	-999	-1	[0, 0, 0]	n/a	catFR1	0	R1376D
122.19	2.612	822563	REC_WORD	2.612	n/a	FIREMAN	Professions	1	-1	[0, 0, 0]	n/a	catFR1	0	R1376D
124.802	0.746	825175	REC_WORD_VV	0.746	n/a	<>	n/a	-999	-1	[0, 0, 0]	n/a	catFR1	0	R1376D
125.548	1.394	825920	REC_WORD	1.394	n/a	FIREARM	n/a	-999	-1	[0, 0, 0]	n/a	catFR1	0	R1376D
126.942	0.602	827314	REC_WORD	0.602	n/a	DAY	Times	5	-1	[0, 0, 0]	n/a	catFR1	0	R1376D
127.544	0.724	827916	REC_WORD	0.724	n/a	TIME	n/a	-999	-1	[0, 0, 0]	n/a	catFR1	0	R1376D
128.268	1.768	828640	REC_WORD	1.768	n/a	HOUR	Times	6	-1	[0, 0, 0]	n/a	catFR1	0	R1376D
130.036	0.428	830408	REC_WORD_VV	0.428	n/a	<>	n/a	-999	-1	[0, 0, 0]	n/a	catFR1	0	R1376D
130.464	3.444	830836	REC_WORD	3.444	n/a	WOOL	Materials	11	-1	[0, 0, 0]	n/a	catFR1	0	R1376D
133.908	0.472	834280	REC_WORD	0.472	n/a	PLUMBER	Professions	8	-1	[0, 0, 0]	n/a	catFR1	0	R1376D
134.38	2.144	834752	REC_WORD	2.144	n/a	TEACHER	Professions	7	-1	[0, 0, 0]	n/a	catFR1	0	R1376D
136.524	0.235	836896	REC_WORD_VV	0.235	n/a	<>	n/a	-999	-1	[0, 0, 0]	n/a	catFR1	0	R1376D
136.759	0.279	837131	REC_WORD	0.279	n/a	MINUTE	Times	10	-1	[0, 0, 0]	n/a	catFR1	0	R1376D
137.038	1.482	837410	REC_WORD	1.482	n/a	SECOND	Times	9	-1	[0, 0, 0]	n/a	catFR1	0	R1376D
138.52	4.713	838892	REC_WORD_VV	4.713	n/a	<>	n/a	-999	-1	[0, 0, 0]	n/a	catFR1	0	R1376D
143.233	0.3	843605	REC_WORD	0.3	n/a	GNAT	n/a	-999	-1	[0, 0, 0]	n/a	catFR1	0	R1376D
143.533	0.471	843905	REC_WORD_VV	0.471	n/a	<>	n/a	-999	-1	[0, 0, 0]	n/a	catFR1	0	R1376D
144.004	3.987	844376	REC_WORD_VV	3.987	n/a	<>	n/a	-999	-1	[0, 0, 0]	n/a	catFR1	0	R1376D
147.991	1.621	848362	REC_WORD_VV	1.621	n/a	<>	n/a	-999	-1	[0, 0, 0]	n/a	catFR1	0	R1376D
149.612	20.319	849979	REC_END	n/a	n/a	n/a	n/a	-999	-1	[0, 0, 0]	n/a	catFR1	0	R1376D
169.931	10.351	870299	COUNTDOWN_START	n/a	n/a	n/a	n/a	-999	1	[0, 0, 0]	n/a	catFR1	0	R1376D
180.282	0.0	880655	COUNTDOWN_END	n/a	n/a	n/a	n/a	-999	1	[0, 0, 0]	n/a	catFR1	0	R1376D
180.282	2.233	880655	ENCODING_START	n/a	n/a	n/a	n/a	-999	1	[0, 0, 0]	n/a	catFR1	0	R1376D
182.515	1.616	882879	WORD	n/a	wordpools/wordpool_categorized_EN.txt	BEETLE	Insects	1	1	[0, 0, 0]	n/a	catFR1	0	R1376D
184.131	0.784	884503	WORD_OFF	n/a	n/a	BEETLE	Insects	1	1	[0, 0, 0]	n/a	catFR1	0	R1376D
184.915	1.616	885288	WORD	n/a	wordpools/wordpool_categorized_EN.txt	GNAT	Insects	2	1	[0, 0, 0]	n/a	catFR1	0	R1376D
186.531	0.867	886901	WORD_OFF	n/a	n/a	GNAT	Insects	2	1	[0, 0, 0]	n/a	catFR1	0	R1376D
187.398	1.6	887763	WORD	n/a	wordpools/wordpool_categorized_EN.txt	WASHER	Appliances	3	1	[0, 0, 0]	n/a	catFR1	0	R1376D
188.998	0.833	889365	WORD_OFF	n/a	n/a	WASHER	Appliances	3	1	[0, 0, 0]	n/a	catFR1	0	R1376D
189.831	1.6	890204	WORD	n/a	wordpools/wordpool_categorized_EN.txt	IRON	Appliances	4	1	[0, 0, 0]	n/a	catFR1	0	R1376D
191.431	0.867	891796	WORD_OFF	n/a	n/a	IRON	Appliances	4	1	[0, 0, 0]	n/a	catFR1	0	R1376D
192.298	1.616	892668	WORD	n/a	wordpools/wordpool_categorized_EN.txt	RUM	Beverages	5	1	[0, 0, 0]	n/a	catFR1	0	R1376D
193.914	0.917	894281	WORD_OFF	n/a	n/a	RUM	Beverages	5	1	[0, 0, 0]	n/a	catFR1	0	R1376D
194.831	1.6	895197	WORD	n/a	wordpools/wordpool_categorized_EN.txt	BEER	Beverages	6	1	[0, 0, 0]	n/a	catFR1	0	R1376D
196.431	0.883	896800	WORD_OFF	n/a	n/a	BEER	Beverages	6	1	[0, 0, 0]	n/a	catFR1	0	R1376D
197.314	1.617	897683	WORD	n/a	wordpools/wordpool_categorized_EN.txt	ANT	Insects	7	1	[0, 0, 0]	n/a	catFR1	0	R1376D
198.931	0.933	899296	WORD_OFF	n/a	n/a	ANT	Insects	7	1	[0, 0, 0]	n/a	catFR1	0	R1376D
199.864	1.6	900233	WORD	n/a	wordpools/wordpool_categorized_EN.txt	ROACH	Insects	8	1	[0, 0, 0]	n/a	catFR1	0	R1376D
201.464	0.95	901836	WORD_OFF	n/a	n/a	ROACH	Insects	8	1	[0, 0, 0]	n/a	catFR1	0	R1376D
202.414	1.6	902784	WORD	n/a	wordpools/wordpool_categorized_EN.txt	LEMONADE	Beverages	9	1	[0, 0, 0]	n/a	catFR1	0	R1376D
204.014	0.933	904387	WORD_OFF	n/a	n/a	LEMONADE	Beverages	9	1	[0, 0, 0]	n/a	catFR1	0	R1376D
204.947	1.6	905313	WORD	n/a	wordpools/wordpool_categorized_EN.txt	COLA	Beverages	10	1	[0, 0, 0]	n/a	catFR1	0	R1376D
206.547	0.767	906916	WORD_OFF	n/a	n/a	COLA	Beverages	10	1	[0, 0, 0]	n/a	catFR1	0	R1376D
207.314	1.6	907679	WORD	n/a	wordpools/wordpool_categorized_EN.txt	TOASTER	Appliances	11	1	[0, 0, 0]	n/a	catFR1	0	R1376D
208.914	0.883	909281	WORD_OFF	n/a	n/a	TOASTER	Appliances	11	1	[0, 0, 0]	n/a	catFR1	0	R1376D
209.797	1.601	910164	WORD	n/a	wordpools/wordpool_categorized_EN.txt	VACUUM	Appliances	12	1	[0, 0, 0]	n/a	catFR1	0	R1376D
211.398	0.0	911766	PROB	0.0	n/a	n/a	n/a	-999	1	[5, 4, 8]	17	catFR1	0	R1376D
211.397	0.002	911767	WORD_OFF	n/a	n/a	VACUUM	Appliances	12	1	[0, 0, 0]	n/a	catFR1	0	R1376D
211.399	0.0	911767	ENCODING_END	n/a	n/a	n/a	n/a	-999	1	[0, 0, 0]	n/a	catFR1	0	R1376D
211.399	0.0	911767	DISTRACT_START	n/a	n/a	n/a	n/a	-999	1	[0, 0, 0]	n/a	catFR1	0	R1376D
211.399	6.398	911767	START	n/a	n/a	n/a	n/a	-999	1	[-999, -999, -999]	n/a	catFR1	0	R1376D
217.797	5.118	918165	PROB	5.118	n/a	n/a	n/a	-999	1	[7, 8, 3]	18	catFR1	0	R1376D
222.915	5.701	923282	PROB	5.701	n/a	n/a	n/a	-999	1	[2, 7, 4]	13	catFR1	0	R1376D
228.616	4.399	928983	PROB	4.399	n/a	n/a	n/a	-999	1	[1, 2, 7]	10	catFR1	0	R1376D
233.015	0.0	933382	STOP	n/a	n/a	n/a	n/a	-999	1	[-999, -999, -999]	n/a	catFR1	0	R1376D
233.015	1.233	933384	DISTRACT_END	n/a	n/a	n/a	n/a	-999	1	[0, 0, 0]	n/a	catFR1	0	R1376D
234.248	2.101	934615	REC_START	n/a	n/a	n/a	n/a	-999	1	[0, 0, 0]	n/a	catFR1	0	R1376D
236.349	1.197	936716	REC_WORD_VV	1.197	n/a	<>	n/a	-999	1	[0, 0, 0]	n/a	catFR1	0	R1376D
237.546	0.669	937913	REC_WORD	0.669	n/a	BEER	Beverages	6	1	[0, 0, 0]	n/a	catFR1	0	R1376D
238.215	1.59	938582	REC_WORD	1.59	n/a	RUM	Beverages	5	1	[0, 0, 0]	n/a	catFR1	0	R1376D
239.805	1.699	940172	REC_WORD	1.699	n/a	TOASTER	Appliances	11	1	[0, 0, 0]	n/a	catFR1	0	R1376D
241.504	1.796	941870	REC_WORD	1.796	n/a	IRON	Appliances	4	1	[0, 0, 0]	n/a	catFR1	0	R1376D
243.3	1.214	943666	REC_WORD	1.214	n/a	BEETLE	Insects	1	1	[0, 0, 0]	n/a	catFR1	0	R1376D
244.514	2.78	944880	REC_WORD	2.78	n/a	GNAT	Insects	2	1	[0, 0, 0]	n/a	catFR1	0	R1376D
247.294	1.305	947660	REC_WORD_VV	1.305	n/a	<>	n/a	-999	1	[0, 0, 0]	n/a	catFR1	0	R1376D
248.599	6.522	948965	REC_WORD_VV	6.522	n/a	<>	n/a	-999	1	[0, 0, 0]	n/a	catFR1	0	R1376D
255.121	0.414	955487	REC_WORD	0.414	n/a	DRYER	n/a	-999	1	[0, 0, 0]	n/a	catFR1	0	R1376D
255.535	1.914	955901	REC_WORD	1.914	n/a	WASHER	Appliances	3	1	[0, 0, 0]	n/a	catFR1	0	R1376D
257.449	0.946	957815	REC_WORD_VV	0.946	n/a	<>	n/a	-999	1	[0, 0, 0]	n/a	catFR1	0	R1376D
258.395	6.091	958761	REC_WORD_VV	6.091	n/a	<>	n/a	-999	1	[0, 0, 0]	n/a	catFR1	0	R1376D
264.486	4.445	964855	REC_END	n/a	n/a	n/a	n/a	-999	1	[0, 0, 0]	n/a	catFR1	0	R1376D
268.931	10.351	969303	COUNTDOWN_START	n/a	n/a	n/a	n/a	-999	2	[0, 0, 0]	n/a	catFR1	0	R1376D
279.282	0.0	979648	COUNTDOWN_END	n/a	n/a	n/a	n/a	-999	2	[0, 0, 0]	n/a	catFR1	0	R1376D
279.282	2.332	979648	ENCODING_START	n/a	n/a	n/a	n/a	-999	2	[0, 0, 0]	n/a	catFR1	0	R1376D
281.614	1.617	981981	WORD	n/a	wordpools/wordpool_categorized_EN.txt	TABLE	Furniture	1	2	[0, 0, 0]	n/a	catFR1	0	R1376D
283.231	0.767	983594	WORD_OFF	n/a	n/a	TABLE	Furniture	1	2	[0, 0, 0]	n/a	catFR1	0	R1376D
283.998	1.599	984357	WORD	n/a	wordpools/wordpool_categorized_EN.txt	CHAIR	Furniture	2	2	[0, 0, 0]	n/a	catFR1	0	R1376D
285.597	0.834	985960	WORD_OFF	n/a	n/a	CHAIR	Furniture	2	2	[0, 0, 0]	n/a	catFR1	0	R1376D
286.431	1.6	986799	WORD	n/a	wordpools/wordpool_categorized_EN.txt	DOLLHOUSE	Toys	3	2	[0, 0, 0]	n/a	catFR1	0	R1376D
288.031	0.983	988391	WORD_OFF	n/a	n/a	DOLLHOUSE	Toys	3	2	[0, 0, 0]	n/a	catFR1	0	R1376D
289.014	1.6	989372	WORD	n/a	wordpools/wordpool_categorized_EN.txt	BASKETBALL	Toys	4	2	[0, 0, 0]	n/a	catFR1	0	R1376D
290.614	0.967	990974	WORD_OFF	n/a	n/a	BASKETBALL	Toys	4	2	[0, 0, 0]	n/a	catFR1	0	R1376D
291.581	1.616	991944	WORD	n/a	wordpools/wordpool_categorized_EN.txt	KNEE	Bodyparts	5	2	[0, 0, 0]	n/a	catFR1	0	R1376D
293.197	0.9	993558	WORD_OFF	n/a	n/a	KNEE	Bodyparts	5	2	[0, 0, 0]	n/a	catFR1	0	R1376D
294.097	1.6	994462	WORD	n/a	wordpools/wordpool_categorized_EN.txt	HEAD	Bodyparts	6	2	[0, 0, 0]	n/a	catFR1	0	R1376D
295.697	0.984	996065	WORD_OFF	n/a	n/a	HEAD	Bodyparts	6	2	[0, 0, 0]	n/a	catFR1	0	R1376D
296.681	1.616	997046	WORD	n/a	wordpools/wordpool_categorized_EN.txt	DRESSER	Furniture	7	2	[0, 0, 0]	n/a	catFR1	0	R1376D
298.297	0.884	998659	WORD_OFF	n/a	n/a	DRESSER	Furniture	7	2	[0, 0, 0]	n/a	catFR1	0	R1376D
299.181	1.599	999542	WORD	n/a	wordpools/wordpool_categorized_EN.txt	BED	Furniture	8	2	[0, 0, 0]	n/a	catFR1	0	R1376D
300.78	0.934	1001145	WORD_OFF	n/a	n/a	BED	Furniture	8	2	[0, 0, 0]	n/a	catFR1	0	R1376D
301.714	1.6	1002071	WORD	n/a	wordpools/wordpool_categorized_EN.txt	BASEBALL	Toys	9	2	[0, 0, 0]	n/a	catFR1	0	R1376D
303.314	0.766	1003674	WORD_OFF	n/a	n/a	BASEBALL	Toys	9	2	[0, 0, 0]	n/a	catFR1	0	R1376D
304.08	1.6	1004448	WORD	n/a	wordpools/wordpool_categorized_EN.txt	PUZZLE	Toys	10	2	[0, 0, 0]	n/a	catFR1	0	R1376D
305.68	0.917	1006039	WORD_OFF	n/a	n/a	PUZZLE	Toys	10	2	[0, 0, 0]	n/a	catFR1	0	R1376D
306.597	1.6	1006955	WORD	n/a	wordpools/wordpool_categorized_EN.txt	HAND	Bodyparts	11	2	[0, 0, 0]	n/a	catFR1	0	R1376D
308.197	0.933	1008558	WORD_OFF	n/a	n/a	HAND	Bodyparts	11	2	[0, 0, 0]	n/a	catFR1	0	R1376D
309.13	1.601	1009495	WORD	n/a	wordpools/wordpool_categorized_EN.txt	ARM	Bodyparts	12	2	[0, 0, 0]	n/a	catFR1	0	R1376D
310.731	0.001	1011094	PROB	0.001	n/a	n/a	n/a	-999	2	[3, 2, 5]	10	catFR1	0	R1376D
310.732	0.0	1011095	START	n/a	n/a	n/a	n/a	-999	2	[-999, -999, -999]	n/a	catFR1	0	R1376D
310.731	0.001	1011098	WORD_OFF	n/a	n/a	ARM	Bodyparts	12	2	[0, 0, 0]	n/a	catFR1	0	R1376D
310.732	0.0	1011098	ENCODING_END	n/a	n/a	n/a	n/a	-999	2	[0, 0, 0]	n/a	catFR1	0	R1376D
310.732	4.2	1011098	DISTRACT_START	n/a	n/a	n/a	n/a	-999	2	[0, 0, 0]	n/a	catFR1	0	R1376D
314.932	6.883	1015295	PROB	6.883	n/a	n/a	n/a	-999	2	[7, 7, 5]	19	catFR1	0	R1376D
321.815	10.151	1022177	PROB	10.151	n/a	n/a	n/a	-999	2	[5, 7, 8]	20	catFR1	0	R1376D
331.966	0.0	1032322	DISTRACT_END	n/a	n/a	n/a	n/a	-999	2	[0, 0, 0]	n/a	catFR1	0	R1376D
331.966	1.099	1032328	STOP	n/a	n/a	n/a	n/a	-999	2	[-999, -999, -999]	n/a	catFR1	0	R1376D
333.065	1.89	1033423	REC_START	n/a	n/a	n/a	n/a	-999	2	[0, 0, 0]	n/a	catFR1	0	R1376D
334.955	1.365	1035317	REC_WORD	1.365	n/a	DOLLHOUSE	Toys	3	2	[0, 0, 0]	n/a	catFR1	0	R1376D
336.32	0.857	1036682	REC_WORD	0.857	n/a	CHAIR	Furniture	2	2	[0, 0, 0]	n/a	catFR1	0	R1376D
337.177	2.119	1037538	REC_WORD	2.119	n/a	TABLE	Furniture	1	2	[0, 0, 0]	n/a	catFR1	0	R1376D
339.296	2.028	1039657	REC_WORD_VV	2.028	n/a	<>	n/a	-999	2	[0, 0, 0]	n/a	catFR1	0	R1376D
341.324	0.864	1041685	REC_WORD	0.864	n/a	KNEE	Bodyparts	5	2	[0, 0, 0]	n/a	catFR1	0	R1376D
342.188	0.457	1042549	REC_WORD	0.457	n/a	ARM	Bodyparts	12	2	[0, 0, 0]	n/a	catFR1	0	R1376D
342.645	1.651	1043006	REC_WORD	1.651	n/a	HAND	Bodyparts	11	2	[0, 0, 0]	n/a	catFR1	0	R1376D
344.296	0.972	1044657	REC_WORD_VV	0.972	n/a	<>	n/a	-999	2	[0, 0, 0]	n/a	catFR1	0	R1376D
345.268	1.572	1045629	REC_WORD	1.572	n/a	HEADACHE	n/a	-999	2	[0, 0, 0]	n/a	catFR1	0	R1376D
346.84	0.756	1047201	REC_WORD	0.756	n/a	BASKETBALL	Toys	4	2	[0, 0, 0]	n/a	catFR1	0	R1376D
347.596	3.061	1047957	REC_WORD	3.061	n/a	BASEBALL	Toys	9	2	[0, 0, 0]	n/a	catFR1	0	R1376D
350.657	1.199	1051018	REC_WORD_VV	1.199	n/a	<>	n/a	-999	2	[0, 0, 0]	n/a	catFR1	0	R1376D
351.856	3.941	1052217	REC_WORD	3.941	n/a	PUZZLE	Toys	10	2	[0, 0, 0]	n/a	catFR1	0	R1376D
355.797	2.736	1056158	REC_WORD_VV	2.736	n/a	<>	n/a	-999	2	[0, 0, 0]	n/a	catFR1	0	R1376D
358.533	0.932	1058893	REC_WORD_VV	0.932	n/a	<>	n/a	-999	2	[0, 0, 0]	n/a	catFR1	0	R1376D
359.465	0.922	1059825	REC_WORD	0.922	n/a	HAND	Bodyparts	11	2	[0, 0, 0]	n/a	catFR1	0	R1376D
360.387	2.163	1060747	REC_WORD_VV	2.163	n/a	<>	n/a	-999	2	[0, 0, 0]	n/a	catFR1	0	R1376D
362.55	0.749	1062910	REC_WORD	0.749	n/a	KNEE	Bodyparts	5	2	[0, 0, 0]	n/a	catFR1	0	R1376D
363.299	4.466	1063663	REC_END	n/a	n/a	n/a	n/a	-999	2	[0, 0, 0]	n/a	catFR1	0	R1376D
367.765	10.35	1068121	COUNTDOWN_START	n/a	n/a	n/a	n/a	-999	3	[0, 0, 0]	n/a	catFR1	0	R1376D
378.115	0.0	1078477	COUNTDOWN_END	n/a	n/a	n/a	n/a	-999	3	[0, 0, 0]	n/a	catFR1	0	R1376D
378.115	2.1	1078477	ENCODING_START	n/a	n/a	n/a	n/a	-999	3	[0, 0, 0]	n/a	catFR1	0	R1376D
380.215	1.6	1080570	WORD	n/a	wordpools/wordpool_categorized_EN.txt	CORN	Vegetables	1	3	[0, 0, 0]	n/a	catFR1	0	R1376D
381.815	0.866	1082173	WORD_OFF	n/a	n/a	CORN	Vegetables	1	3	[0, 0, 0]	n/a	catFR1	0	R1376D
382.681	1.6	1083045	WORD	n/a	wordpools/wordpool_categorized_EN.txt	PEAS	Vegetables	2	3	[0, 0, 0]	n/a	catFR1	0	R1376D
384.281	0.95	1084636	WORD_OFF	n/a	n/a	PEAS	Vegetables	2	3	[0, 0, 0]	n/a	catFR1	0	R1376D
385.231	1.6	1085585	WORD	n/a	wordpools/wordpool_categorized_EN.txt	RAIN	Weather	3	3	[0, 0, 0]	n/a	catFR1	0	R1376D
386.831	0.767	1087187	WORD_OFF	n/a	n/a	RAIN	Weather	3	3	[0, 0, 0]	n/a	catFR1	0	R1376D
387.598	1.6	1087961	WORD	n/a	wordpools/wordpool_categorized_EN.txt	SNOW	Weather	4	3	[0, 0, 0]	n/a	catFR1	0	R1376D
389.198	1.0	1089553	WORD_OFF	n/a	n/a	SNOW	Weather	4	3	[0, 0, 0]	n/a	catFR1	0	R1376D
390.198	1.6	1090556	WORD	n/a	wordpools/wordpool_categorized_EN.txt	STAPLER	Officesupplies	5	3	[0, 0, 0]	n/a	catFR1	0	R1376D
391.798	0.816	1092158	WORD_OFF	n/a	n/a	STAPLER	Officesupplies	5	3	[0, 0, 0]	n/a	catFR1	0	R1376D
392.614	1.601	1092976	WORD	n/a	wordpools/wordpool_categorized_EN.txt	PEN	Officesupplies	6	3	[0, 0, 0]	n/a	catFR1	0	R1376D
394.215	0.85	1094578	WORD_OFF	n/a	n/a	PEN	Officesupplies	6	3	[0, 0, 0]	n/a	catFR1	0	R1376D
395.065	1.6	1095428	WORD	n/a	wordpools/wordpool_categorized_EN.txt	CARROT	Vegetables	7	3	[0, 0, 0]	n/a	catFR1	0	R1376D
396.665	0.9	1097020	WORD_OFF	n/a	n/a	CARROT	Vegetables	7	3	[0, 0, 0]	n/a	catFR1	0	R1376D
397.565	1.616	1097925	WORD	n/a	wordpools/wordpool_categorized_EN.txt	CUCUMBER	Vegetables	8	3	[0, 0, 0]	n/a	catFR1	0	R1376D
399.181	0.95	1099538	WORD_OFF	n/a	n/a	CUCUMBER	Vegetables	8	3	[0, 0, 0]	n/a	catFR1	0	R1376D
400.131	1.6	1100486	WORD	n/a	wordpools/wordpool_categorized_EN.txt	HUMIDITY	Weather	9	3	[0, 0, 0]	n/a	catFR1	0	R1376D
401.731	0.899	1102089	WORD_OFF	n/a	n/a	HUMIDITY	Weather	9	3	[0, 0, 0]	n/a	catFR1	0	R1376D
402.63	1.601	1102994	WORD	n/a	wordpools/wordpool_categorized_EN.txt	FOG	Weather	10	3	[0, 0, 0]	n/a	catFR1	0	R1376D
404.231	0.8	1104585	WORD_OFF	n/a	n/a	FOG	Weather	10	3	[0, 0, 0]	n/a	catFR1	0	R1376D
405.031	1.616	1105392	WORD	n/a	wordpools/wordpool_categorized_EN.txt	NOTEBOOK	Officesupplies	11	3	[0, 0, 0]	n/a	catFR1	0	R1376D
406.647	0.9	1107005	WORD_OFF	n/a	n/a	NOTEBOOK	Officesupplies	11	3	[0, 0, 0]	n/a	catFR1	0	R1376D
407.547	1.601	1107899	WORD	n/a	wordpools/wordpool_categorized_EN.txt	PENCIL	Officesupplies	12	3	[0, 0, 0]	n/a	catFR1	0	R1376D
409.148	0.001	1109502	WORD_OFF	n/a	n/a	PENCIL	Officesupplies	12	3	[0, 0, 0]	n/a	catFR1	0	R1376D
409.149	0.0	1109502	ENCODING_END	n/a	n/a	n/a	n/a	-999	3	[0, 0, 0]	n/a	catFR1	0	R1376D
409.149	0.0	1109507	START	n/a	n/a	n/a	n/a	-999	3	[-999, -999, -999]	n/a	catFR1	0	R1376D
409.149	0.0	1109507	PROB	0.0	n/a	n/a	n/a	-999	3	[6, 2, 1]	9	catFR1	0	R1376D
409.149	3.333	1109513	DISTRACT_START	n/a	n/a	n/a	n/a	-999	3	[0, 0, 0]	n/a	catFR1	0	R1376D
412.482	3.45	1112840	PROB	3.45	n/a	n/a	n/a	-999	3	[1, 4, 5]	10	catFR1	0	R1376D
415.932	4.716	1116289	PROB	4.716	n/a	n/a	n/a	-999	3	[5, 4, 7]	16	catFR1	0	R1376D
420.648	7.667	1121005	PROB	7.667	n/a	n/a	n/a	-999	3	[6, 7, 6]	19	catFR1	0	R1376D
428.315	10.033	1128672	PROB	10.033	n/a	n/a	n/a	-999	3	[7, 8, 4]	19	catFR1	0	R1376D
438.348	0.0	1138704	STOP	n/a	n/a	n/a	n/a	-999	3	[-999, -999, -999]	n/a	catFR1	0	R1376D
438.348	1.3	1138706	DISTRACT_END	n/a	n/a	n/a	n/a	-999	3	[0, 0, 0]	n/a	catFR1	0	R1376D
439.648	2.382	1140003	REC_START	n/a	n/a	n/a	n/a	-999	3	[0, 0, 0]	n/a	catFR1	0	R1376D
442.03	0.844	1142386	REC_WORD_VV	0.844	n/a	<>	n/a	-999	3	[0, 0, 0]	n/a	catFR1	0	R1376D
442.874	0.86	1143230	REC_WORD	0.86	n/a	CUCUMBER	Vegetables	8	3	[0, 0, 0]	n/a	catFR1	0	R1376D
443.734	1.471	1144090	REC_WORD	1.471	n/a	CARROT	Vegetables	7	3	[0, 0, 0]	n/a	catFR1	0	R1376D
445.205	1.546	1145561	REC_WORD_VV	1.546	n/a	<>	n/a	-999	3	[0, 0, 0]	n/a	catFR1	0	R1376D
446.751	0.825	1147107	REC_WORD_VV	0.825	n/a	<>	n/a	-999	3	[0, 0, 0]	n/a	catFR1	0	R1376D
447.576	2.28	1147932	REC_WORD_VV	2.28	n/a	<>	n/a	-999	3	[0, 0, 0]	n/a	catFR1	0	R1376D
449.856	1.597	1150212	REC_WORD_VV	1.597	n/a	<>	n/a	-999	3	[0, 0, 0]	n/a	catFR1	0	R1376D
451.453	4.416	1151809	REC_WORD	4.416	n/a	FOG	Weather	10	3	[0, 0, 0]	n/a	catFR1	0	R1376D
455.869	0.539	1156224	REC_WORD_VV	0.539	n/a	<>	n/a	-999	3	[0, 0, 0]	n/a	catFR1	0	R1376D
456.408	0.969	1156763	REC_WORD	0.969	n/a	NOTEBOOK	Officesupplies	11	3	[0, 0, 0]	n/a	catFR1	0	R1376D
457.377	1.21	1157732	REC_WORD	1.21	n/a	PEN	Officesupplies	6	3	[0, 0, 0]	n/a	catFR1	0	R1376D
458.587	3.645	1158942	REC_WORD_VV	3.645	n/a	<>	n/a	-999	3	[0, 0, 0]	n/a	catFR1	0	R1376D
462.232	2.612	1162587	REC_WORD_VV	2.612	n/a	<>	n/a	-999	3	[0, 0, 0]	n/a	catFR1	0	R1376D
464.844	1.0	1165199	REC_WORD_VV	1.0	n/a	<>	n/a	-999	3	[0, 0, 0]	n/a	catFR1	0	R1376D
465.844	1.495	1166199	REC_WORD_VV	1.495	n/a	<>	n/a	-999	3	[0, 0, 0]	n/a	catFR1	0	R1376D
467.339	2.543	1167694	REC_WORD_VV	2.543	n/a	<>	n/a	-999	3	[0, 0, 0]	n/a	catFR1	0	R1376D
469.882	2.999	1170232	REC_END	n/a	n/a	n/a	n/a	-999	3	[0, 0, 0]	n/a	catFR1	0	R1376D
472.881	10.351	1173240	COUNTDOWN_START	n/a	n/a	n/a	n/a	-999	4	[0, 0, 0]	n/a	catFR1	0	R1376D
483.232	0.0	1183585	COUNTDOWN_END	n/a	n/a	n/a	n/a	-999	4	[0, 0, 0]	n/a	catFR1	0	R1376D
483.232	1.933	1183585	ENCODING_START	n/a	n/a	n/a	n/a	-999	4	[0, 0, 0]	n/a	catFR1	0	R1376D
485.165	1.599	1185515	WORD	n/a	wordpools/wordpool_categorized_EN.txt	BROWNIES	Desserts	1	4	[0, 0, 0]	n/a	catFR1	0	R1376D
486.764	0.883	1187117	WORD_OFF	n/a	n/a	BROWNIES	Desserts	1	4	[0, 0, 0]	n/a	catFR1	0	R1376D
487.647	1.6	1188000	WORD	n/a	wordpools/wordpool_categorized_EN.txt	CUPCAKE	Desserts	2	4	[0, 0, 0]	n/a	catFR1	0	R1376D
489.247	0.817	1189603	WORD_OFF	n/a	n/a	CUPCAKE	Desserts	2	4	[0, 0, 0]	n/a	catFR1	0	R1376D
490.064	1.617	1190420	WORD	n/a	wordpools/wordpool_categorized_EN.txt	ONION	Vegetables	3	4	[0, 0, 0]	n/a	catFR1	0	R1376D
491.681	0.949	1192034	WORD_OFF	n/a	n/a	ONION	Vegetables	3	4	[0, 0, 0]	n/a	catFR1	0	R1376D
492.63	1.6	1192982	WORD	n/a	wordpools/wordpool_categorized_EN.txt	CABBAGE	Vegetables	4	4	[0, 0, 0]	n/a	catFR1	0	R1376D
494.23	0.95	1194585	WORD_OFF	n/a	n/a	CABBAGE	Vegetables	4	4	[0, 0, 0]	n/a	catFR1	0	R1376D
495.18	1.601	1195533	WORD	n/a	wordpools/wordpool_categorized_EN.txt	BOOKCASE	Furniture	5	4	[0, 0, 0]	n/a	catFR1	0	R1376D
496.781	0.783	1197136	WORD_OFF	n/a	n/a	BOOKCASE	Furniture	5	4	[0, 0, 0]	n/a	catFR1	0	R1376D
497.564	1.601	1197920	WORD	n/a	wordpools/wordpool_categorized_EN.txt	SHELF	Furniture	6	4	[0, 0, 0]	n/a	catFR1	0	R1376D
499.165	0.799	1199512	WORD_OFF	n/a	n/a	SHELF	Furniture	6	4	[0, 0, 0]	n/a	catFR1	0	R1376D
499.964	1.601	1200319	WORD	n/a	wordpools/wordpool_categorized_EN.txt	PIE	Desserts	7	4	[0, 0, 0]	n/a	catFR1	0	R1376D
501.565	0.883	1201921	WORD_OFF	n/a	n/a	PIE	Desserts	7	4	[0, 0, 0]	n/a	catFR1	0	R1376D
502.448	1.617	1202804	WORD	n/a	wordpools/wordpool_categorized_EN.txt	JELLO	Desserts	8	4	[0, 0, 0]	n/a	catFR1	0	R1376D
504.065	0.966	1204417	WORD_OFF	n/a	n/a	JELLO	Desserts	8	4	[0, 0, 0]	n/a	catFR1	0	R1376D
505.031	1.6	1205388	WORD	n/a	wordpools/wordpool_categorized_EN.txt	CAULIFLOWER	Vegetables	9	4	[0, 0, 0]	n/a	catFR1	0	R1376D
506.631	0.883	1206979	WORD_OFF	n/a	n/a	CAULIFLOWER	Vegetables	9	4	[0, 0, 0]	n/a	catFR1	0	R1376D
507.514	1.601	1207862	WORD	n/a	wordpools/wordpool_categorized_EN.txt	POTATO	Vegetables	10	4	[0, 0, 0]	n/a	catFR1	0	R1376D
509.115	0.9	1209465	WORD_OFF	n/a	n/a	POTATO	Vegetables	10	4	[0, 0, 0]	n/a	catFR1	0	R1376D
510.015	1.6	1210369	WORD	n/a	wordpools/wordpool_categorized_EN.txt	DESK	Furniture	11	4	[0, 0, 0]	n/a	catFR1	0	R1376D
511.615	0.883	1211961	WORD_OFF	n/a	n/a	DESK	Furniture	11	4	[0, 0, 0]	n/a	catFR1	0	R1376D
512.498	1.617	1212855	WORD	n/a	wordpools/wordpool_categorized_EN.txt	CABINET	Furniture	12	4	[0, 0, 0]	n/a	catFR1	0	R1376D
514.115	0.0	1214467	PROB	0.0	n/a	n/a	n/a	-999	4	[1, 4, 7]	12	catFR1	0	R1376D
514.114	0.002	1214468	WORD_OFF	n/a	n/a	CABINET	Furniture	12	4	[0, 0, 0]	n/a	catFR1	0	R1376D
514.116	0.0	1214468	ENCODING_END	n/a	n/a	n/a	n/a	-999	4	[0, 0, 0]	n/a	catFR1	0	R1376D
514.116	0.0	1214468	DISTRACT_START	n/a	n/a	n/a	n/a	-999	4	[0, 0, 0]	n/a	catFR1	0	R1376D
514.116	5.982	1214468	START	n/a	n/a	n/a	n/a	-999	4	[-999, -999, -999]	n/a	catFR1	0	R1376D
520.098	4.217	1220450	PROB	4.217	n/a	n/a	n/a	-999	4	[2, 2, 6]	10	catFR1	0	R1376D
524.315	2.702	1224667	PROB	2.702	n/a	n/a	n/a	-999	4	[1, 1, 3]	5	catFR1	0	R1376D
527.017	11.398	1227369	PROB	11.398	n/a	n/a	n/a	-999	4	[5, 6, 7]	18	catFR1	0	R1376D
538.415	0.0	1238766	STOP	n/a	n/a	n/a	n/a	-999	4	[-999, -999, -999]	n/a	catFR1	0	R1376D
538.415	1.033	1238767	DISTRACT_END	n/a	n/a	n/a	n/a	-999	4	[0, 0, 0]	n/a	catFR1	0	R1376D
539.448	2.627	1239802	REC_START	n/a	n/a	n/a	n/a	-999	4	[0, 0, 0]	n/a	catFR1	0	R1376D
542.075	1.401	1242426	REC_WORD	1.401	n/a	CAULIFLOWER	Vegetables	9	4	[0, 0, 0]	n/a	catFR1	0	R1376D
543.476	0.707	1243827	REC_WORD	0.707	n/a	CABBAGE	Vegetables	4	4	[0, 0, 0]	n/a	catFR1	0	R1376D
544.183	0.422	1244534	REC_WORD_VV	0.422	n/a	<>	n/a	-999	4	[0, 0, 0]	n/a	catFR1	0	R1376D
544.605	1.131	1244956	REC_WORD	1.131	n/a	BOOKSHELF	n/a	-999	4	[0, 0, 0]	n/a	catFR1	0	R1376D
545.736	0.809	1246087	REC_WORD_VV	0.809	n/a	<>	n/a	-999	4	[0, 0, 0]	n/a	catFR1	0	R1376D
546.545	1.554	1246896	REC_WORD	1.554	n/a	BOOKCASE	Furniture	5	4	[0, 0, 0]	n/a	catFR1	0	R1376D
548.099	3.874	1248450	REC_WORD_VV	3.874	n/a	<>	n/a	-999	4	[0, 0, 0]	n/a	catFR1	0	R1376D
551.973	1.382	1252323	REC_WORD_VV	1.382	n/a	<>	n/a	-999	4	[0, 0, 0]	n/a	catFR1	0	R1376D
553.355	1.0	1253705	REC_WORD_VV	1.0	n/a	<>	n/a	-999	4	[0, 0, 0]	n/a	catFR1	0	R1376D
554.355	2.654	1254705	REC_WORD_VV	2.654	n/a	<>	n/a	-999	4	[0, 0, 0]	n/a	catFR1	0	R1376D
557.009	0.827	1257359	REC_WORD	0.827	n/a	CARROTS	n/a	-999	4	[0, 0, 0]	n/a	catFR1	0	R1376D
557.836	1.737	1258186	REC_WORD	1.737	n/a	CABBAGE	Vegetables	4	4	[0, 0, 0]	n/a	catFR1	0	R1376D
559.573	4.137	1259923	REC_WORD	4.137	n/a	POTATO	Vegetables	10	4	[0, 0, 0]	n/a	catFR1	0	R1376D
563.71	2.264	1264060	REC_WORD_VV	2.264	n/a	<>	n/a	-999	4	[0, 0, 0]	n/a	catFR1	0	R1376D
565.974	0.478	1266324	REC_WORD	0.478	n/a	DESK	Furniture	11	4	[0, 0, 0]	n/a	catFR1	0	R1376D
566.452	0.742	1266802	REC_WORD	0.742	n/a	CHAIR	Furniture	-999	4	[0, 0, 0]	n/a	catFR1	0	R1376D
567.194	2.49	1267544	REC_WORD_VV	2.49	n/a	<>	n/a	-999	4	[0, 0, 0]	n/a	catFR1	0	R1376D
569.684	1.847	1270031	REC_END	n/a	n/a	n/a	n/a	-999	4	[0, 0, 0]	n/a	catFR1	0	R1376D
571.531	10.35	1271884	COUNTDOWN_START	n/a	n/a	n/a	n/a	-999	5	[0, 0, 0]	n/a	catFR1	0	R1376D
581.881	0.0	1282229	COUNTDOWN_END	n/a	n/a	n/a	n/a	-999	5	[0, 0, 0]	n/a	catFR1	0	R1376D
581.881	1.983	1282229	ENCODING_START	n/a	n/a	n/a	n/a	-999	5	[0, 0, 0]	n/a	catFR1	0	R1376D
583.864	1.616	1284213	WORD	n/a	wordpools/wordpool_categorized_EN.txt	VIOLIN	Instruments	1	5	[0, 0, 0]	n/a	catFR1	0	R1376D
585.48	0.934	1285827	WORD_OFF	n/a	n/a	VIOLIN	Instruments	1	5	[0, 0, 0]	n/a	catFR1	0	R1376D
586.414	1.6	1286764	WORD	n/a	wordpools/wordpool_categorized_EN.txt	ORGAN	Instruments	2	5	[0, 0, 0]	n/a	catFR1	0	R1376D
588.014	0.8	1288367	WORD_OFF	n/a	n/a	ORGAN	Instruments	2	5	[0, 0, 0]	n/a	catFR1	0	R1376D
588.814	1.601	1289163	WORD	n/a	wordpools/wordpool_categorized_EN.txt	ERASER	Officesupplies	3	5	[0, 0, 0]	n/a	catFR1	0	R1376D
590.415	0.916	1290765	WORD_OFF	n/a	n/a	ERASER	Officesupplies	3	5	[0, 0, 0]	n/a	catFR1	0	R1376D
591.331	1.6	1291681	WORD	n/a	wordpools/wordpool_categorized_EN.txt	FOLDER	Officesupplies	4	5	[0, 0, 0]	n/a	catFR1	0	R1376D
592.931	0.984	1293283	WORD_OFF	n/a	n/a	FOLDER	Officesupplies	4	5	[0, 0, 0]	n/a	catFR1	0	R1376D
593.915	1.6	1294264	WORD	n/a	wordpools/wordpool_categorized_EN.txt	SHOVEL	Tools	5	5	[0, 0, 0]	n/a	catFR1	0	R1376D
595.515	0.816	1295867	WORD_OFF	n/a	n/a	SHOVEL	Tools	5	5	[0, 0, 0]	n/a	catFR1	0	R1376D
596.331	1.6	1296684	WORD	n/a	wordpools/wordpool_categorized_EN.txt	DRILL	Tools	6	5	[0, 0, 0]	n/a	catFR1	0	R1376D
597.931	0.95	1298276	WORD_OFF	n/a	n/a	DRILL	Tools	6	5	[0, 0, 0]	n/a	catFR1	0	R1376D
598.881	1.6	1299224	WORD	n/a	wordpools/wordpool_categorized_EN.txt	TRUMPET	Instruments	7	5	[0, 0, 0]	n/a	catFR1	0	R1376D
600.481	0.967	1300827	WORD_OFF	n/a	n/a	TRUMPET	Instruments	7	5	[0, 0, 0]	n/a	catFR1	0	R1376D
601.448	1.616	1301797	WORD	n/a	wordpools/wordpool_categorized_EN.txt	TUBA	Instruments	8	5	[0, 0, 0]	n/a	catFR1	0	R1376D
603.064	0.767	1303410	WORD_OFF	n/a	n/a	TUBA	Instruments	8	5	[0, 0, 0]	n/a	catFR1	0	R1376D
603.831	1.6	1304173	WORD	n/a	wordpools/wordpool_categorized_EN.txt	LEVEL	Tools	9	5	[0, 0, 0]	n/a	catFR1	0	R1376D
605.431	0.967	1305776	WORD_OFF	n/a	n/a	LEVEL	Tools	9	5	[0, 0, 0]	n/a	catFR1	0	R1376D
606.398	1.6	1306746	WORD	n/a	wordpools/wordpool_categorized_EN.txt	CROWBAR	Tools	10	5	[0, 0, 0]	n/a	catFR1	0	R1376D
607.998	0.833	1308348	WORD_OFF	n/a	n/a	CROWBAR	Tools	10	5	[0, 0, 0]	n/a	catFR1	0	R1376D
608.831	1.6	1309177	WORD	n/a	wordpools/wordpool_categorized_EN.txt	TAPE	Officesupplies	11	5	[0, 0, 0]	n/a	catFR1	0	R1376D
610.431	0.767	1310779	WORD_OFF	n/a	n/a	TAPE	Officesupplies	11	5	[0, 0, 0]	n/a	catFR1	0	R1376D
611.198	1.6	1311542	WORD	n/a	wordpools/wordpool_categorized_EN.txt	MARKER	Officesupplies	12	5	[0, 0, 0]	n/a	catFR1	0	R1376D
612.798	0.003	1313145	WORD_OFF	n/a	n/a	MARKER	Officesupplies	12	5	[0, 0, 0]	n/a	catFR1	0	R1376D
612.801	0.0	1313145	ENCODING_END	n/a	n/a	n/a	n/a	-999	5	[0, 0, 0]	n/a	catFR1	0	R1376D
612.801	0.0	1313145	DISTRACT_START	n/a	n/a	n/a	n/a	-999	5	[0, 0, 0]	n/a	catFR1	0	R1376D
612.799	0.002	1313146	PROB	0.002	n/a	n/a	n/a	-999	5	[8, 7, 5]	20	catFR1	0	R1376D
612.801	8.647	1313148	START	n/a	n/a	n/a	n/a	-999	5	[-999, -999, -999]	n/a	catFR1	0	R1376D
621.448	4.783	1321795	PROB	4.783	n/a	n/a	n/a	-999	5	[7, 3, 2]	12	catFR1	0	R1376D
626.231	6.534	1326577	PROB	6.534	n/a	n/a	n/a	-999	5	[3, 8, 4]	15	catFR1	0	R1376D
632.765	2.333	1333111	PROB	2.333	n/a	n/a	n/a	-999	5	[1, 5, 1]	7	catFR1	0	R1376D
635.098	0.0	1335444	STOP	n/a	n/a	n/a	n/a	-999	5	[-999, -999, -999]	n/a	catFR1	0	R1376D
635.098	1.35	1335449	DISTRACT_END	n/a	n/a	n/a	n/a	-999	5	[0, 0, 0]	n/a	catFR1	0	R1376D
636.448	1.6	1336789	REC_START	n/a	n/a	n/a	n/a	-999	5	[0, 0, 0]	n/a	catFR1	0	R1376D
638.048	0.94	1338394	REC_WORD	0.94	n/a	CROWBAR	Tools	10	5	[0, 0, 0]	n/a	catFR1	0	R1376D
638.988	1.452	1339334	REC_WORD	1.452	n/a	SHOVEL	Tools	5	5	[0, 0, 0]	n/a	catFR1	0	R1376D
640.44	4.329	1340786	REC_WORD_VV	4.329	n/a	<>	n/a	-999	5	[0, 0, 0]	n/a	catFR1	0	R1376D
644.769	0.226	1345114	REC_WORD_VV	0.226	n/a	<>	n/a	-999	5	[0, 0, 0]	n/a	catFR1	0	R1376D
644.995	1.146	1345340	REC_WORD	1.146	n/a	TRUMPET	Instruments	7	5	[0, 0, 0]	n/a	catFR1	0	R1376D
646.141	1.659	1346486	REC_WORD	1.659	n/a	TUBA	Instruments	8	5	[0, 0, 0]	n/a	catFR1	0	R1376D
647.8	1.42	1348145	REC_WORD_VV	1.42	n/a	<>	n/a	-999	5	[0, 0, 0]	n/a	catFR1	0	R1376D
649.22	2.997	1349565	REC_WORD	2.997	n/a	LEVEL	Tools	9	5	[0, 0, 0]	n/a	catFR1	0	R1376D
652.217	2.758	1352562	REC_WORD	2.758	n/a	VIOLIN	Instruments	1	5	[0, 0, 0]	n/a	catFR1	0	R1376D
654.975	0.474	1355320	REC_WORD	0.474	n/a	TUBA	Instruments	8	5	[0, 0, 0]	n/a	catFR1	0	R1376D
655.449	1.495	1355794	REC_WORD_VV	1.495	n/a	<>	n/a	-999	5	[0, 0, 0]	n/a	catFR1	0	R1376D
656.944	3.895	1357289	REC_WORD_VV	3.895	n/a	<>	n/a	-999	5	[0, 0, 0]	n/a	catFR1	0	R1376D
660.839	5.841	1361184	REC_WORD_VV	5.841	n/a	<>	n/a	-999	5	[0, 0, 0]	n/a	catFR1	0	R1376D
666.68	1.967	1367029	REC_END	n/a	n/a	n/a	n/a	-999	5	[0, 0, 0]	n/a	catFR1	0	R1376D
668.647	10.351	1368991	COUNTDOWN_START	n/a	n/a	n/a	n/a	-999	6	[0, 0, 0]	n/a	catFR1	0	R1376D
678.998	0.0	1379336	COUNTDOWN_END	n/a	n/a	n/a	n/a	-999	6	[0, 0, 0]	n/a	catFR1	0	R1376D
678.998	2.267	1379347	ENCODING_START	n/a	n/a	n/a	n/a	-999	6	[0, 0, 0]	n/a	catFR1	0	R1376D
681.265	1.6	1381604	WORD	n/a	wordpools/wordpool_categorized_EN.txt	SPRUCE	Trees	1	6	[0, 0, 0]	n/a	catFR1	0	R1376D
682.865	0.833	1383206	WORD_OFF	n/a	n/a	SPRUCE	Trees	1	6	[0, 0, 0]	n/a	catFR1	0	R1376D
683.698	1.6	1384046	WORD	n/a	wordpools/wordpool_categorized_EN.txt	HICKORY	Trees	2	6	[0, 0, 0]	n/a	catFR1	0	R1376D
685.298	0.983	1385637	WORD_OFF	n/a	n/a	HICKORY	Trees	2	6	[0, 0, 0]	n/a	catFR1	0	R1376D
686.281	1.6	1386629	WORD	n/a	wordpools/wordpool_categorized_EN.txt	ROOM	Building	3	6	[0, 0, 0]	n/a	catFR1	0	R1376D
687.881	0.884	1388221	WORD_OFF	n/a	n/a	ROOM	Building	3	6	[0, 0, 0]	n/a	catFR1	0	R1376D
688.765	1.6	1389104	WORD	n/a	wordpools/wordpool_categorized_EN.txt	DOOR	Building	4	6	[0, 0, 0]	n/a	catFR1	0	R1376D
690.365	0.783	1390706	WORD_OFF	n/a	n/a	DOOR	Building	4	6	[0, 0, 0]	n/a	catFR1	0	R1376D
691.148	1.6	1391491	WORD	n/a	wordpools/wordpool_categorized_EN.txt	CLOUD	Weather	5	6	[0, 0, 0]	n/a	catFR1	0	R1376D
692.748	0.783	1393094	WORD_OFF	n/a	n/a	CLOUD	Weather	5	6	[0, 0, 0]	n/a	catFR1	0	R1376D
693.531	1.617	1393878	WORD	n/a	wordpools/wordpool_categorized_EN.txt	LIGHTNING	Weather	6	6	[0, 0, 0]	n/a	catFR1	0	R1376D
695.148	0.883	1395492	WORD_OFF	n/a	n/a	LIGHTNING	Weather	6	6	[0, 0, 0]	n/a	catFR1	0	R1376D
696.031	1.6	1396375	WORD	n/a	wordpools/wordpool_categorized_EN.txt	WALL	Building	7	6	[0, 0, 0]	n/a	catFR1	0	R1376D
697.631	0.767	1397977	WORD_OFF	n/a	n/a	WALL	Building	7	6	[0, 0, 0]	n/a	catFR1	0	R1376D
698.398	1.617	1398740	WORD	n/a	wordpools/wordpool_categorized_EN.txt	STAIRS	Building	8	6	[0, 0, 0]	n/a	catFR1	0	R1376D
700.015	0.966	1400354	WORD_OFF	n/a	n/a	STAIRS	Building	8	6	[0, 0, 0]	n/a	catFR1	0	R1376D
700.981	1.617	1401324	WORD	n/a	wordpools/wordpool_categorized_EN.txt	THUNDER	Weather	9	6	[0, 0, 0]	n/a	catFR1	0	R1376D
702.598	0.767	1402937	WORD_OFF	n/a	n/a	THUNDER	Weather	9	6	[0, 0, 0]	n/a	catFR1	0	R1376D
703.365	1.6	1403711	WORD	n/a	wordpools/wordpool_categorized_EN.txt	THUNDERSTORM	Weather	10	6	[0, 0, 0]	n/a	catFR1	0	R1376D
704.965	0.783	1405303	WORD_OFF	n/a	n/a	THUNDERSTORM	Weather	10	6	[0, 0, 0]	n/a	catFR1	0	R1376D
705.748	1.6	1406088	WORD	n/a	wordpools/wordpool_categorized_EN.txt	WALNUT	Trees	11	6	[0, 0, 0]	n/a	catFR1	0	R1376D
707.348	0.933	1407690	WORD_OFF	n/a	n/a	WALNUT	Trees	11	6	[0, 0, 0]	n/a	catFR1	0	R1376D
708.281	1.617	1408628	WORD	n/a	wordpools/wordpool_categorized_EN.txt	PINE	Trees	12	6	[0, 0, 0]	n/a	catFR1	0	R1376D
709.898	0.001	1410241	WORD_OFF	n/a	n/a	PINE	Trees	12	6	[0, 0, 0]	n/a	catFR1	0	R1376D
709.899	0.0	1410241	ENCODING_END	n/a	n/a	n/a	n/a	-999	6	[0, 0, 0]	n/a	catFR1	0	R1376D
709.899	0.0	1410241	DISTRACT_START	n/a	n/a	n/a	n/a	-999	6	[0, 0, 0]	n/a	catFR1	0	R1376D
709.899	0.0	1410241	START	n/a	n/a	n/a	n/a	-999	6	[-999, -999, -999]	n/a	catFR1	0	R1376D
709.899	7.383	1410241	PROB	7.383	n/a	n/a	n/a	-999	6	[8, 5, 4]	17	catFR1	0	R1376D
717.282	4.283	1417624	PROB	4.283	n/a	n/a	n/a	-999	6	[1, 5, 3]	9	catFR1	0	R1376D
721.565	3.35	1421907	PROB	3.35	n/a	n/a	n/a	-999	6	[1, 8, 1]	10	catFR1	0	R1376D
724.915	3.1	1425256	PROB	3.1	n/a	n/a	n/a	-999	6	[2, 5, 5]	12	catFR1	0	R1376D
728.015	3.733	1428356	PROB	3.733	n/a	n/a	n/a	-999	6	[4, 3, 7]	14	catFR1	0	R1376D
731.748	0.0	1432087	DISTRACT_END	n/a	n/a	n/a	n/a	-999	6	[0, 0, 0]	n/a	catFR1	0	R1376D
731.748	1.266	1432089	STOP	n/a	n/a	n/a	n/a	-999	6	[-999, -999, -999]	n/a	catFR1	0	R1376D
733.014	1.326	1433351	REC_START	n/a	n/a	n/a	n/a	-999	6	[0, 0, 0]	n/a	catFR1	0	R1376D
734.34	1.101	1434681	REC_WORD	1.101	n/a	CLOUD	Weather	5	6	[0, 0, 0]	n/a	catFR1	0	R1376D
735.441	0.732	1435782	REC_WORD	0.732	n/a	THUNDERSTORM	Weather	10	6	[0, 0, 0]	n/a	catFR1	0	R1376D
736.173	1.452	1436514	REC_WORD	1.452	n/a	LIGHTNING	Weather	6	6	[0, 0, 0]	n/a	catFR1	0	R1376D
737.625	2.01	1437966	REC_WORD	2.01	n/a	FOG	Weather	-999	6	[0, 0, 0]	n/a	catFR1	0	R1376D
739.635	1.399	1439976	REC_WORD_VV	1.399	n/a	<>	n/a	-999	6	[0, 0, 0]	n/a	catFR1	0	R1376D
741.034	0.862	1441374	REC_WORD	0.862	n/a	RAIN	Weather	-999	6	[0, 0, 0]	n/a	catFR1	0	R1376D
741.896	1.459	1442236	REC_WORD_VV	1.459	n/a	<>	n/a	-999	6	[0, 0, 0]	n/a	catFR1	0	R1376D
743.355	2.5	1443695	REC_WORD_VV	2.5	n/a	<>	n/a	-999	6	[0, 0, 0]	n/a	catFR1	0	R1376D
745.855	4.131	1446195	REC_WORD_VV	4.131	n/a	<>	n/a	-999	6	[0, 0, 0]	n/a	catFR1	0	R1376D
749.986	4.909	1450326	REC_WORD	4.909	n/a	CLOUDY	n/a	-999	6	[0, 0, 0]	n/a	catFR1	0	R1376D
754.895	8.336	1455235	REC_WORD_VV	8.336	n/a	<>	n/a	-999	6	[0, 0, 0]	n/a	catFR1	0	R1376D
763.231	2.567	1463569	REC_END	n/a	n/a	n/a	n/a	-999	6	[0, 0, 0]	n/a	catFR1	0	R1376D
765.798	10.351	1466142	COUNTDOWN_START	n/a	n/a	n/a	n/a	-999	7	[0, 0, 0]	n/a	catFR1	0	R1376D
776.149	0.0	1476487	COUNTDOWN_END	n/a	n/a	n/a	n/a	-999	7	[0, 0, 0]	n/a	catFR1	0	R1376D
776.149	2.316	1476487	ENCODING_START	n/a	n/a	n/a	n/a	-999	7	[0, 0, 0]	n/a	catFR1	0	R1376D
778.465	1.6	1478798	WORD	n/a	wordpools/wordpool_categorized_EN.txt	BIKE	Vehicles	1	7	[0, 0, 0]	n/a	catFR1	0	R1376D
780.065	0.95	1480400	WORD_OFF	n/a	n/a	BIKE	Vehicles	1	7	[0, 0, 0]	n/a	catFR1	0	R1376D
781.015	1.616	1481349	WORD	n/a	wordpools/wordpool_categorized_EN.txt	BOAT	Vehicles	2	7	[0, 0, 0]	n/a	catFR1	0	R1376D
782.631	0.967	1482973	WORD_OFF	n/a	n/a	BOAT	Vehicles	2	7	[0, 0, 0]	n/a	catFR1	0	R1376D
783.598	1.6	1483932	WORD	n/a	wordpools/wordpool_categorized_EN.txt	TIGER	Zoo	3	7	[0, 0, 0]	n/a	catFR1	0	R1376D
785.198	0.983	1485535	WORD_OFF	n/a	n/a	TIGER	Zoo	3	7	[0, 0, 0]	n/a	catFR1	0	R1376D
786.181	1.6	1486516	WORD	n/a	wordpools/wordpool_categorized_EN.txt	ELEPHANT	Zoo	4	7	[0, 0, 0]	n/a	catFR1	0	R1376D
787.781	0.867	1488118	WORD_OFF	n/a	n/a	ELEPHANT	Zoo	4	7	[0, 0, 0]	n/a	catFR1	0	R1376D
788.648	1.6	1488990	WORD	n/a	wordpools/wordpool_categorized_EN.txt	LIME	Fruit	5	7	[0, 0, 0]	n/a	catFR1	0	R1376D
790.248	0.9	1490582	WORD_OFF	n/a	n/a	LIME	Fruit	5	7	[0, 0, 0]	n/a	catFR1	0	R1376D
791.148	1.617	1491487	WORD	n/a	wordpools/wordpool_categorized_EN.txt	APPLE	Fruit	6	7	[0, 0, 0]	n/a	catFR1	0	R1376D
792.765	0.916	1493100	WORD_OFF	n/a	n/a	APPLE	Fruit	6	7	[0, 0, 0]	n/a	catFR1	0	R1376D
793.681	1.6	1494016	WORD	n/a	wordpools/wordpool_categorized_EN.txt	BEAR	Zoo	7	7	[0, 0, 0]	n/a	catFR1	0	R1376D
795.281	0.784	1495618	WORD_OFF	n/a	n/a	BEAR	Zoo	7	7	[0, 0, 0]	n/a	catFR1	0	R1376D
796.065	1.616	1496403	WORD	n/a	wordpools/wordpool_categorized_EN.txt	CHIMPANZEE	Zoo	8	7	[0, 0, 0]	n/a	catFR1	0	R1376D
797.681	0.767	1498017	WORD_OFF	n/a	n/a	CHIMPANZEE	Zoo	8	7	[0, 0, 0]	n/a	catFR1	0	R1376D
798.448	1.617	1498791	WORD	n/a	wordpools/wordpool_categorized_EN.txt	SCOOTER	Vehicles	9	7	[0, 0, 0]	n/a	catFR1	0	R1376D
800.065	0.783	1500404	WORD_OFF	n/a	n/a	SCOOTER	Vehicles	9	7	[0, 0, 0]	n/a	catFR1	0	R1376D
800.848	1.617	1501189	WORD	n/a	wordpools/wordpool_categorized_EN.txt	VAN	Vehicles	10	7	[0, 0, 0]	n/a	catFR1	0	R1376D
802.465	0.783	1502802	WORD_OFF	n/a	n/a	VAN	Vehicles	10	7	[0, 0, 0]	n/a	catFR1	0	R1376D
803.248	1.6	1503587	WORD	n/a	wordpools/wordpool_categorized_EN.txt	ORANGE	Fruit	11	7	[0, 0, 0]	n/a	catFR1	0	R1376D
804.848	0.983	1505189	WORD_OFF	n/a	n/a	ORANGE	Fruit	11	7	[0, 0, 0]	n/a	catFR1	0	R1376D
805.831	1.617	1506171	WORD	n/a	wordpools/wordpool_categorized_EN.txt	CHERRY	Fruit	12	7	[0, 0, 0]	n/a	catFR1	0	R1376D
807.448	0.001	1507784	WORD_OFF	n/a	n/a	CHERRY	Fruit	12	7	[0, 0, 0]	n/a	catFR1	0	R1376D
807.449	0.001	1507784	ENCODING_END	n/a	n/a	n/a	n/a	-999	7	[0, 0, 0]	n/a	catFR1	0	R1376D
807.45	0.0	1507784	DISTRACT_START	n/a	n/a	n/a	n/a	-999	7	[0, 0, 0]	n/a	catFR1	0	R1376D
807.448	0.002	1507785	PROB	0.002	n/a	n/a	n/a	-999	7	[5, 5, 3]	13	catFR1	0	R1376D
807.45	3.849	1507787	START	n/a	n/a	n/a	n/a	-999	7	[-999, -999, -999]	n/a	catFR1	0	R1376D
811.299	5.666	1511636	PROB	5.666	n/a	n/a	n/a	-999	7	[3, 8, 2]	13	catFR1	0	R1376D
816.965	2.85	1517302	PROB	2.85	n/a	n/a	n/a	-999	7	[2, 1, 3]	6	catFR1	0	R1376D
819.815	5.516	1520151	PROB	5.516	n/a	n/a	n/a	-999	7	[6, 3, 3]	12	catFR1	0	R1376D
825.331	3.849	1525667	PROB	3.849	n/a	n/a	n/a	-999	7	[8, 1, 1]	10	catFR1	0	R1376D
829.18	0.0	1529516	STOP	n/a	n/a	n/a	n/a	-999	7	[-999, -999, -999]	n/a	catFR1	0	R1376D
829.18	1.384	1529521	DISTRACT_END	n/a	n/a	n/a	n/a	-999	7	[0, 0, 0]	n/a	catFR1	0	R1376D
830.564	3.552	1530905	REC_START	n/a	n/a	n/a	n/a	-999	7	[0, 0, 0]	n/a	catFR1	0	R1376D
834.116	0.326	1534452	REC_WORD_VV	0.326	n/a	<>	n/a	-999	7	[0, 0, 0]	n/a	catFR1	0	R1376D
834.442	0.819	1534778	REC_WORD	0.819	n/a	APPLE	Fruit	6	7	[0, 0, 0]	n/a	catFR1	0	R1376D
835.261	0.99	1535597	REC_WORD	0.99	n/a	LIME	Fruit	5	7	[0, 0, 0]	n/a	catFR1	0	R1376D
836.251	2.346	1536587	REC_WORD	2.346	n/a	CHERRY	Fruit	12	7	[0, 0, 0]	n/a	catFR1	0	R1376D
838.597	2.016	1538932	REC_WORD_VV	2.016	n/a	<>	n/a	-999	7	[0, 0, 0]	n/a	catFR1	0	R1376D
840.613	2.161	1540948	REC_WORD	2.161	n/a	CHIMPANZEE	Zoo	8	7	[0, 0, 0]	n/a	catFR1	0	R1376D
842.774	0.616	1543109	REC_WORD	0.616	n/a	TIGER	Zoo	3	7	[0, 0, 0]	n/a	catFR1	0	R1376D
843.39	1.188	1543725	REC_WORD	1.188	n/a	ELEPHANT	Zoo	4	7	[0, 0, 0]	n/a	catFR1	0	R1376D
844.578	2.593	1544913	REC_WORD	2.593	n/a	LION	n/a	-999	7	[0, 0, 0]	n/a	catFR1	0	R1376D
847.171	3.864	1547506	REC_WORD_VV	3.864	n/a	<>	n/a	-999	7	[0, 0, 0]	n/a	catFR1	0	R1376D
851.035	1.0	1551370	REC_WORD_VV	1.0	n/a	<>	n/a	-999	7	[0, 0, 0]	n/a	catFR1	0	R1376D
852.035	2.971	1552370	REC_WORD_VV	2.971	n/a	<>	n/a	-999	7	[0, 0, 0]	n/a	catFR1	0	R1376D
855.006	1.007	1555341	REC_WORD	1.007	n/a	BEAR	Zoo	7	7	[0, 0, 0]	n/a	catFR1	0	R1376D
856.013	3.676	1556348	REC_WORD_VV	3.676	n/a	<>	n/a	-999	7	[0, 0, 0]	n/a	catFR1	0	R1376D
859.689	1.112	1560023	REC_WORD	1.112	n/a	TIGER	Zoo	3	7	[0, 0, 0]	n/a	catFR1	0	R1376D
860.801	2.564	1561134	REC_END	n/a	n/a	n/a	n/a	-999	7	[0, 0, 0]	n/a	catFR1	0	R1376D
863.365	10.351	1563696	COUNTDOWN_START	n/a	n/a	n/a	n/a	-999	8	[0, 0, 0]	n/a	catFR1	0	R1376D
873.716	0.0	1574052	COUNTDOWN_END	n/a	n/a	n/a	n/a	-999	8	[0, 0, 0]	n/a	catFR1	0	R1376D
873.716	2.182	1574052	ENCODING_START	n/a	n/a	n/a	n/a	-999	8	[0, 0, 0]	n/a	catFR1	0	R1376D
875.898	1.616	1576232	WORD	n/a	wordpools/wordpool_categorized_EN.txt	MARBLES	Toys	1	8	[0, 0, 0]	n/a	catFR1	0	R1376D
877.514	0.917	1577845	WORD_OFF	n/a	n/a	MARBLES	Toys	1	8	[0, 0, 0]	n/a	catFR1	0	R1376D
878.431	1.6	1578761	WORD	n/a	wordpools/wordpool_categorized_EN.txt	FOOTBALL	Toys	2	8	[0, 0, 0]	n/a	catFR1	0	R1376D
880.031	0.9	1580363	WORD_OFF	n/a	n/a	FOOTBALL	Toys	2	8	[0, 0, 0]	n/a	catFR1	0	R1376D
880.931	1.617	1581268	WORD	n/a	wordpools/wordpool_categorized_EN.txt	FOOT	Bodyparts	3	8	[0, 0, 0]	n/a	catFR1	0	R1376D
882.548	0.933	1582882	WORD_OFF	n/a	n/a	FOOT	Bodyparts	3	8	[0, 0, 0]	n/a	catFR1	0	R1376D
883.481	1.6	1583819	WORD	n/a	wordpools/wordpool_categorized_EN.txt	ELBOW	Bodyparts	4	8	[0, 0, 0]	n/a	catFR1	0	R1376D
885.081	0.884	1585411	WORD_OFF	n/a	n/a	ELBOW	Bodyparts	4	8	[0, 0, 0]	n/a	catFR1	0	R1376D
885.965	1.6	1586294	WORD	n/a	wordpools/wordpool_categorized_EN.txt	PLANE	Vehicles	5	8	[0, 0, 0]	n/a	catFR1	0	R1376D
887.565	0.983	1587896	WORD_OFF	n/a	n/a	PLANE	Vehicles	5	8	[0, 0, 0]	n/a	catFR1	0	R1376D
888.548	1.6	1588877	WORD	n/a	wordpools/wordpool_categorized_EN.txt	JEEP	Vehicles	6	8	[0, 0, 0]	n/a	catFR1	0	R1376D
890.148	0.95	1590480	WORD_OFF	n/a	n/a	JEEP	Vehicles	6	8	[0, 0, 0]	n/a	catFR1	0	R1376D
891.098	1.6	1591428	WORD	n/a	wordpools/wordpool_categorized_EN.txt	LEG	Bodyparts	7	8	[0, 0, 0]	n/a	catFR1	0	R1376D
892.698	1.0	1593030	WORD_OFF	n/a	n/a	LEG	Bodyparts	7	8	[0, 0, 0]	n/a	catFR1	0	R1376D
893.698	1.6	1594033	WORD	n/a	wordpools/wordpool_categorized_EN.txt	NOSE	Bodyparts	8	8	[0, 0, 0]	n/a	catFR1	0	R1376D
895.298	0.933	1595636	WORD_OFF	n/a	n/a	NOSE	Bodyparts	8	8	[0, 0, 0]	n/a	catFR1	0	R1376D
896.231	1.6	1596562	WORD	n/a	wordpools/wordpool_categorized_EN.txt	BALL	Toys	9	8	[0, 0, 0]	n/a	catFR1	0	R1376D
897.831	0.784	1598165	WORD_OFF	n/a	n/a	BALL	Toys	9	8	[0, 0, 0]	n/a	catFR1	0	R1376D
898.615	1.6	1598950	WORD	n/a	wordpools/wordpool_categorized_EN.txt	BARBIE	Toys	10	8	[0, 0, 0]	n/a	catFR1	0	R1376D
900.215	0.865	1600541	WORD_OFF	n/a	n/a	BARBIE	Toys	10	8	[0, 0, 0]	n/a	catFR1	0	R1376D
901.08	1.601	1601413	WORD	n/a	wordpools/wordpool_categorized_EN.txt	TRUCK	Vehicles	11	8	[0, 0, 0]	n/a	catFR1	0	R1376D
902.681	0.784	1603016	WORD_OFF	n/a	n/a	TRUCK	Vehicles	11	8	[0, 0, 0]	n/a	catFR1	0	R1376D
903.465	1.599	1603801	WORD	n/a	wordpools/wordpool_categorized_EN.txt	CAR	Vehicles	12	8	[0, 0, 0]	n/a	catFR1	0	R1376D
905.064	0.001	1605392	WORD_OFF	n/a	n/a	CAR	Vehicles	12	8	[0, 0, 0]	n/a	catFR1	0	R1376D
905.065	0.001	1605397	PROB	0.001	n/a	n/a	n/a	-999	8	[1, 8, 3]	12	catFR1	0	R1376D
905.066	0.0	1605398	START	n/a	n/a	n/a	n/a	-999	8	[-999, -999, -999]	n/a	catFR1	0	R1376D
905.066	0.0	1605403	ENCODING_END	n/a	n/a	n/a	n/a	-999	8	[0, 0, 0]	n/a	catFR1	0	R1376D
905.066	3.916	1605403	DISTRACT_START	n/a	n/a	n/a	n/a	-999	8	[0, 0, 0]	n/a	catFR1	0	R1376D
908.982	5.666	1609314	PROB	5.666	n/a	n/a	n/a	-999	8	[3, 1, 8]	12	catFR1	0	R1376D
914.648	6.55	1614979	PROB	6.55	n/a	n/a	n/a	-999	8	[3, 8, 4]	15	catFR1	0	R1376D
921.198	5.016	1621529	PROB	5.016	n/a	n/a	n/a	-999	8	[6, 4, 1]	11	catFR1	0	R1376D
926.214	0.0	1626540	DISTRACT_END	n/a	n/a	n/a	n/a	-999	8	[0, 0, 0]	n/a	catFR1	0	R1376D
926.214	1.15	1626545	STOP	n/a	n/a	n/a	n/a	-999	8	[-999, -999, -999]	n/a	catFR1	0	R1376D
927.364	2.801	1627696	REC_START	n/a	n/a	n/a	n/a	-999	8	[0, 0, 0]	n/a	catFR1	0	R1376D
930.165	0.667	1630496	REC_WORD	0.667	n/a	LEG	Bodyparts	7	8	[0, 0, 0]	n/a	catFR1	0	R1376D
930.832	1.021	1631163	REC_WORD	1.021	n/a	NOSE	Bodyparts	8	8	[0, 0, 0]	n/a	catFR1	0	R1376D
931.853	1.373	1632184	REC_WORD	1.373	n/a	FOOTBALL	Toys	2	8	[0, 0, 0]	n/a	catFR1	0	R1376D
933.226	1.687	1633557	REC_WORD	1.687	n/a	FOOT	Bodyparts	3	8	[0, 0, 0]	n/a	catFR1	0	R1376D
934.913	1.724	1635243	REC_WORD	1.724	n/a	ARM	Bodyparts	-999	8	[0, 0, 0]	n/a	catFR1	0	R1376D
936.637	8.788	1636967	REC_WORD_VV	8.788	n/a	<>	n/a	-999	8	[0, 0, 0]	n/a	catFR1	0	R1376D
945.425	12.174	1645755	REC_WORD_VV	12.174	n/a	<>	n/a	-999	8	[0, 0, 0]	n/a	catFR1	0	R1376D
957.599	3.082	1657925	REC_END	n/a	n/a	n/a	n/a	-999	8	[0, 0, 0]	n/a	catFR1	0	R1376D
960.681	10.35	1661010	COUNTDOWN_START	n/a	n/a	n/a	n/a	-999	9	[0, 0, 0]	n/a	catFR1	0	R1376D
971.031	0.0	1671355	COUNTDOWN_END	n/a	n/a	n/a	n/a	-999	9	[0, 0, 0]	n/a	catFR1	0	R1376D
971.031	2.234	1671355	ENCODING_START	n/a	n/a	n/a	n/a	-999	9	[0, 0, 0]	n/a	catFR1	0	R1376D
973.265	1.6	1673590	WORD	n/a	wordpools/wordpool_categorized_EN.txt	ZEBRA	Zoo	1	9	[0, 0, 0]	n/a	catFR1	0	R1376D
974.865	0.766	1675192	WORD_OFF	n/a	n/a	ZEBRA	Zoo	1	9	[0, 0, 0]	n/a	catFR1	0	R1376D
975.631	1.617	1675955	WORD	n/a	wordpools/wordpool_categorized_EN.txt	PANDA	Zoo	2	9	[0, 0, 0]	n/a	catFR1	0	R1376D
977.248	0.817	1677579	WORD_OFF	n/a	n/a	PANDA	Zoo	2	9	[0, 0, 0]	n/a	catFR1	0	R1376D
978.065	1.616	1678397	WORD	n/a	wordpools/wordpool_categorized_EN.txt	HURRICANE	Weather	3	9	[0, 0, 0]	n/a	catFR1	0	R1376D
979.681	0.867	1680010	WORD_OFF	n/a	n/a	HURRICANE	Weather	3	9	[0, 0, 0]	n/a	catFR1	0	R1376D
980.548	1.6	1680871	WORD	n/a	wordpools/wordpool_categorized_EN.txt	WIND	Weather	4	9	[0, 0, 0]	n/a	catFR1	0	R1376D
982.148	0.767	1682474	WORD_OFF	n/a	n/a	WIND	Weather	4	9	[0, 0, 0]	n/a	catFR1	0	R1376D
982.915	1.6	1683248	WORD	n/a	wordpools/wordpool_categorized_EN.txt	LADYBUG	Insects	5	9	[0, 0, 0]	n/a	catFR1	0	R1376D
984.515	0.882	1684839	WORD_OFF	n/a	n/a	LADYBUG	Insects	5	9	[0, 0, 0]	n/a	catFR1	0	R1376D
985.397	1.601	1685722	WORD	n/a	wordpools/wordpool_categorized_EN.txt	BEE	Insects	6	9	[0, 0, 0]	n/a	catFR1	0	R1376D
986.998	0.95	1687325	WORD_OFF	n/a	n/a	BEE	Insects	6	9	[0, 0, 0]	n/a	catFR1	0	R1376D
987.948	1.617	1688273	WORD	n/a	wordpools/wordpool_categorized_EN.txt	GIRAFFE	Zoo	7	9	[0, 0, 0]	n/a	catFR1	0	R1376D
989.565	0.917	1689887	WORD_OFF	n/a	n/a	GIRAFFE	Zoo	7	9	[0, 0, 0]	n/a	catFR1	0	R1376D
990.482	1.599	1690813	WORD	n/a	wordpools/wordpool_categorized_EN.txt	MONKEY	Zoo	8	9	[0, 0, 0]	n/a	catFR1	0	R1376D
992.081	0.983	1692405	WORD_OFF	n/a	n/a	MONKEY	Zoo	8	9	[0, 0, 0]	n/a	catFR1	0	R1376D
993.064	1.601	1693397	WORD	n/a	wordpools/wordpool_categorized_EN.txt	MOSQUITO	Insects	9	9	[0, 0, 0]	n/a	catFR1	0	R1376D
994.665	0.833	1694988	WORD_OFF	n/a	n/a	MOSQUITO	Insects	9	9	[0, 0, 0]	n/a	catFR1	0	R1376D
995.498	1.6	1695828	WORD	n/a	wordpools/wordpool_categorized_EN.txt	MOTH	Insects	10	9	[0, 0, 0]	n/a	catFR1	0	R1376D
997.098	0.883	1697430	WORD_OFF	n/a	n/a	MOTH	Insects	10	9	[0, 0, 0]	n/a	catFR1	0	R1376D
997.981	1.6	1698313	WORD	n/a	wordpools/wordpool_categorized_EN.txt	DRIZZLE	Weather	11	9	[0, 0, 0]	n/a	catFR1	0	R1376D
999.581	0.833	1699905	WORD_OFF	n/a	n/a	DRIZZLE	Weather	11	9	[0, 0, 0]	n/a	catFR1	0	R1376D
1000.414	1.6	1700744	WORD	n/a	wordpools/wordpool_categorized_EN.txt	TORNADO	Weather	12	9	[0, 0, 0]	n/a	catFR1	0	R1376D
1002.014	0.001	1702336	WORD_OFF	n/a	n/a	TORNADO	Weather	12	9	[0, 0, 0]	n/a	catFR1	0	R1376D
1002.015	0.001	1702342	PROB	0.001	n/a	n/a	n/a	-999	9	[1, 7, 2]	10	catFR1	0	R1376D
1002.016	0.0	1702343	START	n/a	n/a	n/a	n/a	-999	9	[-999, -999, -999]	n/a	catFR1	0	R1376D
1002.016	0.0	1702347	ENCODING_END	n/a	n/a	n/a	n/a	-999	9	[0, 0, 0]	n/a	catFR1	0	R1376D
1002.016	4.466	1702347	DISTRACT_START	n/a	n/a	n/a	n/a	-999	9	[0, 0, 0]	n/a	catFR1	0	R1376D
1006.482	6.265	1706809	PROB	6.265	n/a	n/a	n/a	-999	9	[6, 4, 6]	16	catFR1	0	R1376D
1012.747	4.767	1713073	PROB	4.767	n/a	n/a	n/a	-999	9	[3, 6, 2]	11	catFR1	0	R1376D
1017.514	3.601	1717840	PROB	3.601	n/a	n/a	n/a	-999	9	[1, 3, 7]	11	catFR1	0	R1376D
1021.115	5.115	1721441	PROB	5.115	n/a	n/a	n/a	-999	9	[7, 1, 8]	16	catFR1	0	R1376D
1026.23	0.0	1726556	STOP	n/a	n/a	n/a	n/a	-999	9	[-999, -999, -999]	n/a	catFR1	0	R1376D
1026.23	1.084	1726558	DISTRACT_END	n/a	n/a	n/a	n/a	-999	9	[0, 0, 0]	n/a	catFR1	0	R1376D
1027.314	3.471	1727637	REC_START	n/a	n/a	n/a	n/a	-999	9	[0, 0, 0]	n/a	catFR1	0	R1376D
1030.785	1.621	1731110	REC_WORD_VV	1.621	n/a	<>	n/a	-999	9	[0, 0, 0]	n/a	catFR1	0	R1376D
1032.406	1.6	1732731	REC_WORD	1.6	n/a	GIRAFFE	Zoo	7	9	[0, 0, 0]	n/a	catFR1	0	R1376D
1034.006	1.0	1734331	REC_WORD_VV	1.0	n/a	<>	n/a	-999	9	[0, 0, 0]	n/a	catFR1	0	R1376D
1035.006	2.288	1735331	REC_WORD_VV	2.288	n/a	<>	n/a	-999	9	[0, 0, 0]	n/a	catFR1	0	R1376D
1037.294	6.107	1737619	REC_WORD_VV	6.107	n/a	<>	n/a	-999	9	[0, 0, 0]	n/a	catFR1	0	R1376D
1043.401	0.463	1743726	REC_WORD	0.463	n/a	MONKEY	Zoo	8	9	[0, 0, 0]	n/a	catFR1	0	R1376D
1043.864	0.498	1744189	REC_WORD_VV	0.498	n/a	<>	n/a	-999	9	[0, 0, 0]	n/a	catFR1	0	R1376D
1044.362	0.419	1744687	REC_WORD_VV	0.419	n/a	<>	n/a	-999	9	[0, 0, 0]	n/a	catFR1	0	R1376D
1044.781	1.463	1745106	REC_WORD	1.463	n/a	LADYBUG	Insects	5	9	[0, 0, 0]	n/a	catFR1	0	R1376D
1046.244	11.301	1746569	REC_WORD	11.301	n/a	BEE	Insects	6	9	[0, 0, 0]	n/a	catFR1	0	R1376D
1057.545	3.602	1757866	REC_END	n/a	n/a	n/a	n/a	-999	9	[0, 0, 0]	n/a	catFR1	0	R1376D
1061.147	10.351	1761474	COUNTDOWN_START	n/a	n/a	n/a	n/a	-999	10	[0, 0, 0]	n/a	catFR1	0	R1376D
1071.498	0.001	1771819	COUNTDOWN_END	n/a	n/a	n/a	n/a	-999	10	[0, 0, 0]	n/a	catFR1	0	R1376D
1071.499	2.149	1771819	ENCODING_START	n/a	n/a	n/a	n/a	-999	10	[0, 0, 0]	n/a	catFR1	0	R1376D
1073.648	1.617	1773967	WORD	n/a	wordpools/wordpool_categorized_EN.txt	EAR	Bodyparts	1	10	[0, 0, 0]	n/a	catFR1	0	R1376D
1075.265	0.966	1775591	WORD_OFF	n/a	n/a	EAR	Bodyparts	1	10	[0, 0, 0]	n/a	catFR1	0	R1376D
1076.231	1.6	1776550	WORD	n/a	wordpools/wordpool_categorized_EN.txt	TOE	Bodyparts	2	10	[0, 0, 0]	n/a	catFR1	0	R1376D
1077.831	0.8	1778153	WORD_OFF	n/a	n/a	TOE	Bodyparts	2	10	[0, 0, 0]	n/a	catFR1	0	R1376D
1078.631	1.6	1778959	WORD	n/a	wordpools/wordpool_categorized_EN.txt	SEAGULL	Birds	3	10	[0, 0, 0]	n/a	catFR1	0	R1376D
1080.231	0.934	1780551	WORD_OFF	n/a	n/a	SEAGULL	Birds	3	10	[0, 0, 0]	n/a	catFR1	0	R1376D
1081.165	1.6	1781489	WORD	n/a	wordpools/wordpool_categorized_EN.txt	HAWK	Birds	4	10	[0, 0, 0]	n/a	catFR1	0	R1376D
1082.765	0.933	1783091	WORD_OFF	n/a	n/a	HAWK	Birds	4	10	[0, 0, 0]	n/a	catFR1	0	R1376D
1083.698	1.6	1784018	WORD	n/a	wordpools/wordpool_categorized_EN.txt	PIG	Farmanimals	5	10	[0, 0, 0]	n/a	catFR1	0	R1376D
1085.298	1.0	1785620	WORD_OFF	n/a	n/a	PIG	Farmanimals	5	10	[0, 0, 0]	n/a	catFR1	0	R1376D
1086.298	1.616	1786623	WORD	n/a	wordpools/wordpool_categorized_EN.txt	ROOSTER	Farmanimals	6	10	[0, 0, 0]	n/a	catFR1	0	R1376D
1087.914	0.884	1788236	WORD_OFF	n/a	n/a	ROOSTER	Farmanimals	6	10	[0, 0, 0]	n/a	catFR1	0	R1376D
1088.798	1.6	1789119	WORD	n/a	wordpools/wordpool_categorized_EN.txt	FINGERS	Bodyparts	7	10	[0, 0, 0]	n/a	catFR1	0	R1376D
1090.398	0.966	1790722	WORD_OFF	n/a	n/a	FINGERS	Bodyparts	7	10	[0, 0, 0]	n/a	catFR1	0	R1376D
1091.364	1.6	1791681	WORD	n/a	wordpools/wordpool_categorized_EN.txt	EYE	Bodyparts	8	10	[0, 0, 0]	n/a	catFR1	0	R1376D
1092.964	0.8	1793284	WORD_OFF	n/a	n/a	EYE	Bodyparts	8	10	[0, 0, 0]	n/a	catFR1	0	R1376D
1093.764	1.617	1794090	WORD	n/a	wordpools/wordpool_categorized_EN.txt	GOOSE	Birds	9	10	[0, 0, 0]	n/a	catFR1	0	R1376D
1095.381	0.833	1795704	WORD_OFF	n/a	n/a	GOOSE	Birds	9	10	[0, 0, 0]	n/a	catFR1	0	R1376D
1096.214	1.617	1796532	WORD	n/a	wordpools/wordpool_categorized_EN.txt	BLUEBIRD	Birds	10	10	[0, 0, 0]	n/a	catFR1	0	R1376D
1097.831	0.933	1798156	WORD_OFF	n/a	n/a	BLUEBIRD	Birds	10	10	[0, 0, 0]	n/a	catFR1	0	R1376D
1098.764	1.6	1799083	WORD	n/a	wordpools/wordpool_categorized_EN.txt	GOAT	Farmanimals	11	10	[0, 0, 0]	n/a	catFR1	0	R1376D
1100.364	0.8	1800685	WORD_OFF	n/a	n/a	GOAT	Farmanimals	11	10	[0, 0, 0]	n/a	catFR1	0	R1376D
1101.164	1.6	1801481	WORD	n/a	wordpools/wordpool_categorized_EN.txt	COW	Farmanimals	12	10	[0, 0, 0]	n/a	catFR1	0	R1376D
1102.764	0.0	1803084	WORD_OFF	n/a	n/a	COW	Farmanimals	12	10	[0, 0, 0]	n/a	catFR1	0	R1376D
1102.764	0.002	1803086	PROB	0.002	n/a	n/a	n/a	-999	10	[1, 2, 1]	4	catFR1	0	R1376D
1102.766	0.0	1803088	START	n/a	n/a	n/a	n/a	-999	10	[-999, -999, -999]	n/a	catFR1	0	R1376D
1102.766	0.0	1803094	ENCODING_END	n/a	n/a	n/a	n/a	-999	10	[0, 0, 0]	n/a	catFR1	0	R1376D
1102.766	3.549	1803094	DISTRACT_START	n/a	n/a	n/a	n/a	-999	10	[0, 0, 0]	n/a	catFR1	0	R1376D
1106.315	3.283	1806637	PROB	3.283	n/a	n/a	n/a	-999	10	[8, 2, 2]	12	catFR1	0	R1376D
1109.598	6.483	1809919	PROB	6.483	n/a	n/a	n/a	-999	10	[6, 4, 5]	15	catFR1	0	R1376D
1116.081	6.25	1816402	PROB	6.25	n/a	n/a	n/a	-999	10	[3, 3, 8]	14	catFR1	0	R1376D
1122.331	4.718	1822652	PROB	4.718	n/a	n/a	n/a	-999	10	[1, 4, 2]	7	catFR1	0	R1376D
1127.049	0.0	1827369	STOP	n/a	n/a	n/a	n/a	-999	10	[-999, -999, -999]	n/a	catFR1	0	R1376D
1127.049	1.316	1827371	DISTRACT_END	n/a	n/a	n/a	n/a	-999	10	[0, 0, 0]	n/a	catFR1	0	R1376D
1128.365	1.8	1828690	REC_START	n/a	n/a	n/a	n/a	-999	10	[0, 0, 0]	n/a	catFR1	0	R1376D
1130.165	0.754	1830485	REC_WORD	0.754	n/a	EAR	Bodyparts	1	10	[0, 0, 0]	n/a	catFR1	0	R1376D
1130.919	1.531	1831239	REC_WORD	1.531	n/a	FINGERS	Bodyparts	7	10	[0, 0, 0]	n/a	catFR1	0	R1376D
1132.45	0.814	1832770	REC_WORD	0.814	n/a	HAIR	n/a	-999	10	[0, 0, 0]	n/a	catFR1	0	R1376D
1133.264	2.027	1833584	REC_WORD_VV	2.027	n/a	<>	n/a	-999	10	[0, 0, 0]	n/a	catFR1	0	R1376D
1135.291	0.79	1835611	REC_WORD_VV	0.79	n/a	<>	n/a	-999	10	[0, 0, 0]	n/a	catFR1	0	R1376D
1136.081	1.526	1836401	REC_WORD_VV	1.526	n/a	<>	n/a	-999	10	[0, 0, 0]	n/a	catFR1	0	R1376D
1137.607	1.368	1837927	REC_WORD_VV	1.368	n/a	<>	n/a	-999	10	[0, 0, 0]	n/a	catFR1	0	R1376D
1138.975	0.577	1839295	REC_WORD	0.577	n/a	ROOSTER	Farmanimals	6	10	[0, 0, 0]	n/a	catFR1	0	R1376D
1139.552	0.513	1839872	REC_WORD_VV	0.513	n/a	<>	n/a	-999	10	[0, 0, 0]	n/a	catFR1	0	R1376D
1140.065	2.122	1840385	REC_WORD	2.122	n/a	SEAGULL	Birds	3	10	[0, 0, 0]	n/a	catFR1	0	R1376D
1142.187	2.538	1842507	REC_WORD_VV	2.538	n/a	<>	n/a	-999	10	[0, 0, 0]	n/a	catFR1	0	R1376D
1144.725	1.99	1845045	REC_WORD	1.99	n/a	PIG	Farmanimals	5	10	[0, 0, 0]	n/a	catFR1	0	R1376D
1146.715	0.547	1847034	REC_WORD_VV	0.547	n/a	<>	n/a	-999	10	[0, 0, 0]	n/a	catFR1	0	R1376D
1147.262	1.076	1847581	REC_WORD	1.076	n/a	ROOSTER	Farmanimals	6	10	[0, 0, 0]	n/a	catFR1	0	R1376D
1148.338	2.824	1848657	REC_WORD_VV	2.824	n/a	<>	n/a	-999	10	[0, 0, 0]	n/a	catFR1	0	R1376D
1151.162	2.328	1851481	REC_WORD_VV	2.328	n/a	<>	n/a	-999	10	[0, 0, 0]	n/a	catFR1	0	R1376D
1153.49	0.376	1853809	REC_WORD_VV	0.376	n/a	<>	n/a	-999	10	[0, 0, 0]	n/a	catFR1	0	R1376D
1153.866	3.898	1854185	REC_WORD_VV	3.898	n/a	<>	n/a	-999	10	[0, 0, 0]	n/a	catFR1	0	R1376D
1157.764	0.84	1858083	REC_WORD	0.84	n/a	EAR	Bodyparts	1	10	[0, 0, 0]	n/a	catFR1	0	R1376D
1158.604	2.377	1858919	REC_END	n/a	n/a	n/a	n/a	-999	10	[0, 0, 0]	n/a	catFR1	0	R1376D
1160.981	10.351	1861306	COUNTDOWN_START	n/a	n/a	n/a	n/a	-999	11	[0, 0, 0]	n/a	catFR1	0	R1376D
1171.332	0.0	1871651	COUNTDOWN_END	n/a	n/a	n/a	n/a	-999	11	[0, 0, 0]	n/a	catFR1	0	R1376D
1171.332	2.216	1871651	ENCODING_START	n/a	n/a	n/a	n/a	-999	11	[0, 0, 0]	n/a	catFR1	0	R1376D
1173.548	1.6	1873864	WORD	n/a	wordpools/wordpool_categorized_EN.txt	ROBIN	Birds	1	11	[0, 0, 0]	n/a	catFR1	0	R1376D
1175.148	0.983	1875467	WORD_OFF	n/a	n/a	ROBIN	Birds	1	11	[0, 0, 0]	n/a	catFR1	0	R1376D
1176.131	1.6	1876448	WORD	n/a	wordpools/wordpool_categorized_EN.txt	DUCK	Birds	2	11	[0, 0, 0]	n/a	catFR1	0	R1376D
1177.731	0.9	1878050	WORD_OFF	n/a	n/a	DUCK	Birds	2	11	[0, 0, 0]	n/a	catFR1	0	R1376D
1178.631	1.6	1878944	WORD	n/a	wordpools/wordpool_categorized_EN.txt	CRICKET	Insects	3	11	[0, 0, 0]	n/a	catFR1	0	R1376D
1180.231	0.834	1880547	WORD_OFF	n/a	n/a	CRICKET	Insects	3	11	[0, 0, 0]	n/a	catFR1	0	R1376D
1181.065	1.616	1881386	WORD	n/a	wordpools/wordpool_categorized_EN.txt	FLY	Insects	4	11	[0, 0, 0]	n/a	catFR1	0	R1376D
1182.681	0.9	1882999	WORD_OFF	n/a	n/a	FLY	Insects	4	11	[0, 0, 0]	n/a	catFR1	0	R1376D
1183.581	1.6	1883893	WORD	n/a	wordpools/wordpool_categorized_EN.txt	REFRIGERATOR	Appliances	5	11	[0, 0, 0]	n/a	catFR1	0	R1376D
1185.181	0.9	1885496	WORD_OFF	n/a	n/a	REFRIGERATOR	Appliances	5	11	[0, 0, 0]	n/a	catFR1	0	R1376D
1186.081	1.6	1886401	WORD	n/a	wordpools/wordpool_categorized_EN.txt	DRYER	Appliances	6	11	[0, 0, 0]	n/a	catFR1	0	R1376D
1187.681	0.95	1888003	WORD_OFF	n/a	n/a	DRYER	Appliances	6	11	[0, 0, 0]	n/a	catFR1	0	R1376D
1188.631	1.6	1888951	WORD	n/a	wordpools/wordpool_categorized_EN.txt	BUTTERFLY	Insects	7	11	[0, 0, 0]	n/a	catFR1	0	R1376D
1190.231	1.0	1890543	WORD_OFF	n/a	n/a	BUTTERFLY	Insects	7	11	[0, 0, 0]	n/a	catFR1	0	R1376D
1191.231	1.616	1891546	WORD	n/a	wordpools/wordpool_categorized_EN.txt	SPIDER	Insects	8	11	[0, 0, 0]	n/a	catFR1	0	R1376D
1192.847	0.934	1893159	WORD_OFF	n/a	n/a	SPIDER	Insects	8	11	[0, 0, 0]	n/a	catFR1	0	R1376D
1193.781	1.617	1894097	WORD	n/a	wordpools/wordpool_categorized_EN.txt	BLENDER	Appliances	9	11	[0, 0, 0]	n/a	catFR1	0	R1376D
1195.398	0.833	1895710	WORD_OFF	n/a	n/a	BLENDER	Appliances	9	11	[0, 0, 0]	n/a	catFR1	0	R1376D
1196.231	1.616	1896550	WORD	n/a	wordpools/wordpool_categorized_EN.txt	OVEN	Appliances	10	11	[0, 0, 0]	n/a	catFR1	0	R1376D
1197.847	0.884	1898163	WORD_OFF	n/a	n/a	OVEN	Appliances	10	11	[0, 0, 0]	n/a	catFR1	0	R1376D
1198.731	1.6	1899046	WORD	n/a	wordpools/wordpool_categorized_EN.txt	CARDINAL	Birds	11	11	[0, 0, 0]	n/a	catFR1	0	R1376D
1200.331	0.766	1900648	WORD_OFF	n/a	n/a	CARDINAL	Birds	11	11	[0, 0, 0]	n/a	catFR1	0	R1376D
1201.097	1.6	1901411	WORD	n/a	wordpools/wordpool_categorized_EN.txt	SPARROW	Birds	12	11	[0, 0, 0]	n/a	catFR1	0	R1376D
1202.697	0.002	1903014	WORD_OFF	n/a	n/a	SPARROW	Birds	12	11	[0, 0, 0]	n/a	catFR1	0	R1376D
1202.699	0.0	1903014	ENCODING_END	n/a	n/a	n/a	n/a	-999	11	[0, 0, 0]	n/a	catFR1	0	R1376D
1202.699	0.0	1903014	DISTRACT_START	n/a	n/a	n/a	n/a	-999	11	[0, 0, 0]	n/a	catFR1	0	R1376D
1202.698	0.001	1903014	PROB	0.001	n/a	n/a	n/a	-999	11	[1, 6, 5]	12	catFR1	0	R1376D
1202.699	4.482	1903015	START	n/a	n/a	n/a	n/a	-999	11	[-999, -999, -999]	n/a	catFR1	0	R1376D
1207.181	6.634	1907497	PROB	6.634	n/a	n/a	n/a	-999	11	[5, 7, 8]	20	catFR1	0	R1376D
1213.815	6.7	1914131	PROB	6.7	n/a	n/a	n/a	-999	11	[1, 4, 7]	12	catFR1	0	R1376D
1220.515	7.083	1920831	PROB	7.083	n/a	n/a	n/a	-999	11	[3, 8, 6]	17	catFR1	0	R1376D
1227.598	0.0	1927912	DISTRACT_END	n/a	n/a	n/a	n/a	-999	11	[0, 0, 0]	n/a	catFR1	0	R1376D
1227.598	1.133	1927913	STOP	n/a	n/a	n/a	n/a	-999	11	[-999, -999, -999]	n/a	catFR1	0	R1376D
1228.731	1.916	1929046	REC_START	n/a	n/a	n/a	n/a	-999	11	[0, 0, 0]	n/a	catFR1	0	R1376D
1230.647	0.993	1930962	REC_WORD	0.993	n/a	REFRIGERATOR	Appliances	5	11	[0, 0, 0]	n/a	catFR1	0	R1376D
1231.64	1.343	1931955	REC_WORD	1.343	n/a	OVEN	Appliances	10	11	[0, 0, 0]	n/a	catFR1	0	R1376D
1232.983	5.608	1933298	REC_WORD_VV	5.608	n/a	<>	n/a	-999	11	[0, 0, 0]	n/a	catFR1	0	R1376D
1238.591	3.025	1938906	REC_WORD_VV	3.025	n/a	<>	n/a	-999	11	[0, 0, 0]	n/a	catFR1	0	R1376D
1241.616	0.574	1941930	REC_WORD	0.574	n/a	CRICKET	Insects	3	11	[0, 0, 0]	n/a	catFR1	0	R1376D
1242.19	3.924	1942504	REC_WORD_VV	3.924	n/a	<>	n/a	-999	11	[0, 0, 0]	n/a	catFR1	0	R1376D
1246.114	1.0	1946428	REC_WORD_VV	1.0	n/a	<>	n/a	-999	11	[0, 0, 0]	n/a	catFR1	0	R1376D
1247.114	11.853	1947428	REC_WORD_VV	11.853	n/a	<>	n/a	-999	11	[0, 0, 0]	n/a	catFR1	0	R1376D
1258.967	2.414	1959285	REC_END	n/a	n/a	n/a	n/a	-999	11	[0, 0, 0]	n/a	catFR1	0	R1376D
1261.381	10.351	1961694	COUNTDOWN_START	n/a	n/a	n/a	n/a	-999	12	[0, 0, 0]	n/a	catFR1	0	R1376D
1271.732	0.0	1972050	COUNTDOWN_END	n/a	n/a	n/a	n/a	-999	12	[0, 0, 0]	n/a	catFR1	0	R1376D
1271.732	2.082	1972050	ENCODING_START	n/a	n/a	n/a	n/a	-999	12	[0, 0, 0]	n/a	catFR1	0	R1376D
1273.814	1.601	1974122	WORD	n/a	wordpools/wordpool_categorized_EN.txt	LETTUCE	Vegetables	1	12	[0, 0, 0]	n/a	catFR1	0	R1376D
1275.415	0.85	1975724	WORD_OFF	n/a	n/a	LETTUCE	Vegetables	1	12	[0, 0, 0]	n/a	catFR1	0	R1376D
1276.265	1.616	1976574	WORD	n/a	wordpools/wordpool_categorized_EN.txt	SPINACH	Vegetables	2	12	[0, 0, 0]	n/a	catFR1	0	R1376D
1277.881	0.966	1978199	WORD_OFF	n/a	n/a	SPINACH	Vegetables	2	12	[0, 0, 0]	n/a	catFR1	0	R1376D
1278.847	1.601	1979158	WORD	n/a	wordpools/wordpool_categorized_EN.txt	MIXER	Appliances	3	12	[0, 0, 0]	n/a	catFR1	0	R1376D
1280.448	0.983	1980760	WORD_OFF	n/a	n/a	MIXER	Appliances	3	12	[0, 0, 0]	n/a	catFR1	0	R1376D
1281.431	1.6	1981742	WORD	n/a	wordpools/wordpool_categorized_EN.txt	STOVE	Appliances	4	12	[0, 0, 0]	n/a	catFR1	0	R1376D
1283.031	0.817	1983344	WORD_OFF	n/a	n/a	STOVE	Appliances	4	12	[0, 0, 0]	n/a	catFR1	0	R1376D
1283.848	1.617	1984162	WORD	n/a	wordpools/wordpool_categorized_EN.txt	RULER	Officesupplies	5	12	[0, 0, 0]	n/a	catFR1	0	R1376D
1285.465	0.983	1985775	WORD_OFF	n/a	n/a	RULER	Officesupplies	5	12	[0, 0, 0]	n/a	catFR1	0	R1376D
1286.448	1.6	1986756	WORD	n/a	wordpools/wordpool_categorized_EN.txt	PAPER	Officesupplies	6	12	[0, 0, 0]	n/a	catFR1	0	R1376D
1288.048	1.0	1988358	WORD_OFF	n/a	n/a	PAPER	Officesupplies	6	12	[0, 0, 0]	n/a	catFR1	0	R1376D
1289.048	1.617	1989361	WORD	n/a	wordpools/wordpool_categorized_EN.txt	BROCCOLI	Vegetables	7	12	[0, 0, 0]	n/a	catFR1	0	R1376D
1290.665	0.8	1990975	WORD_OFF	n/a	n/a	BROCCOLI	Vegetables	7	12	[0, 0, 0]	n/a	catFR1	0	R1376D
1291.465	1.6	1991781	WORD	n/a	wordpools/wordpool_categorized_EN.txt	CELERY	Vegetables	8	12	[0, 0, 0]	n/a	catFR1	0	R1376D
1293.065	0.866	1993373	WORD_OFF	n/a	n/a	CELERY	Vegetables	8	12	[0, 0, 0]	n/a	catFR1	0	R1376D
1293.931	1.616	1994245	WORD	n/a	wordpools/wordpool_categorized_EN.txt	DISHWASHER	Appliances	9	12	[0, 0, 0]	n/a	catFR1	0	R1376D
1295.547	0.9	1995869	WORD_OFF	n/a	n/a	DISHWASHER	Appliances	9	12	[0, 0, 0]	n/a	catFR1	0	R1376D
1296.447	1.617	1996763	WORD	n/a	wordpools/wordpool_categorized_EN.txt	FREEZER	Appliances	10	12	[0, 0, 0]	n/a	catFR1	0	R1376D
1298.064	0.916	1998377	WORD_OFF	n/a	n/a	FREEZER	Appliances	10	12	[0, 0, 0]	n/a	catFR1	0	R1376D
1298.98	1.617	1999292	WORD	n/a	wordpools/wordpool_categorized_EN.txt	BINDER	Officesupplies	11	12	[0, 0, 0]	n/a	catFR1	0	R1376D
1300.597	0.817	2000906	WORD_OFF	n/a	n/a	BINDER	Officesupplies	11	12	[0, 0, 0]	n/a	catFR1	0	R1376D
1301.414	1.618	2001723	WORD	n/a	wordpools/wordpool_categorized_EN.txt	GLUE	Officesupplies	12	12	[0, 0, 0]	n/a	catFR1	0	R1376D
1303.032	0.002	2003343	PROB	0.002	n/a	n/a	n/a	-999	12	[5, 1, 1]	7	catFR1	0	R1376D
1303.034	0.0	2003345	START	n/a	n/a	n/a	n/a	-999	12	[-999, -999, -999]	n/a	catFR1	0	R1376D
1303.031	0.003	2003348	WORD_OFF	n/a	n/a	GLUE	Officesupplies	12	12	[0, 0, 0]	n/a	catFR1	0	R1376D
1303.034	0.0	2003348	ENCODING_END	n/a	n/a	n/a	n/a	-999	12	[0, 0, 0]	n/a	catFR1	0	R1376D
1303.034	3.681	2003348	DISTRACT_START	n/a	n/a	n/a	n/a	-999	12	[0, 0, 0]	n/a	catFR1	0	R1376D
1306.715	4.834	2007026	PROB	4.834	n/a	n/a	n/a	-999	12	[2, 8, 7]	17	catFR1	0	R1376D
1311.549	4.165	2011860	PROB	4.165	n/a	n/a	n/a	-999	12	[3, 5, 3]	11	catFR1	0	R1376D
1315.714	5.134	2016025	PROB	5.134	n/a	n/a	n/a	-999	12	[4, 3, 7]	14	catFR1	0	R1376D
1320.848	3.85	2021158	PROB	3.85	n/a	n/a	n/a	-999	12	[2, 8, 5]	15	catFR1	0	R1376D
1324.698	0.0	2025008	DISTRACT_END	n/a	n/a	n/a	n/a	-999	12	[0, 0, 0]	n/a	catFR1	0	R1376D
1324.698	1.3	2025008	STOP	n/a	n/a	n/a	n/a	-999	12	[-999, -999, -999]	n/a	catFR1	0	R1376D
1325.998	1.481	2026305	REC_START	n/a	n/a	n/a	n/a	-999	12	[0, 0, 0]	n/a	catFR1	0	R1376D
1327.479	0.884	2027789	REC_WORD	0.884	n/a	CANE	n/a	-999	12	[0, 0, 0]	n/a	catFR1	0	R1376D
1328.363	1.065	2028673	REC_WORD	1.065	n/a	BROCCOLI	Vegetables	7	12	[0, 0, 0]	n/a	catFR1	0	R1376D
1329.428	1.006	2029738	REC_WORD	1.006	n/a	LETTUCE	Vegetables	1	12	[0, 0, 0]	n/a	catFR1	0	R1376D
1330.434	1.035	2030744	REC_WORD	1.035	n/a	SPINACH	Vegetables	2	12	[0, 0, 0]	n/a	catFR1	0	R1376D
1331.469	0.466	2031779	REC_WORD	0.466	n/a	BROCCOLI	Vegetables	7	12	[0, 0, 0]	n/a	catFR1	0	R1376D
1331.935	0.307	2032245	REC_WORD	0.307	n/a	FLOWER	n/a	-999	12	[0, 0, 0]	n/a	catFR1	0	R1376D
1332.242	1.563	2032552	REC_WORD_VV	1.563	n/a	<>	n/a	-999	12	[0, 0, 0]	n/a	catFR1	0	R1376D
1333.805	0.441	2034115	REC_WORD_VV	0.441	n/a	<>	n/a	-999	12	[0, 0, 0]	n/a	catFR1	0	R1376D
1334.246	0.57	2034556	REC_WORD	0.57	n/a	MIXER	Appliances	3	12	[0, 0, 0]	n/a	catFR1	0	R1376D
1334.816	1.784	2035126	REC_WORD	1.784	n/a	FREEZER	Appliances	10	12	[0, 0, 0]	n/a	catFR1	0	R1376D
1336.6	1.839	2036910	REC_WORD_VV	1.839	n/a	<>	n/a	-999	12	[0, 0, 0]	n/a	catFR1	0	R1376D
1338.439	2.319	2038748	REC_WORD_VV	2.319	n/a	<>	n/a	-999	12	[0, 0, 0]	n/a	catFR1	0	R1376D
1340.758	0.549	2041067	REC_WORD_VV	0.549	n/a	<>	n/a	-999	12	[0, 0, 0]	n/a	catFR1	0	R1376D
1341.307	0.898	2041616	REC_WORD	0.898	n/a	PENCIL	Officesupplies	-999	12	[0, 0, 0]	n/a	catFR1	0	R1376D
1342.205	1.728	2042514	REC_WORD	1.728	n/a	BINDER	Officesupplies	11	12	[0, 0, 0]	n/a	catFR1	0	R1376D
1343.933	1.525	2044242	REC_WORD	1.525	n/a	NOTEBOOK	Officesupplies	-999	12	[0, 0, 0]	n/a	catFR1	0	R1376D
1345.458	1.213	2045767	REC_WORD_VV	1.213	n/a	<>	n/a	-999	12	[0, 0, 0]	n/a	catFR1	0	R1376D
1346.671	4.171	2046980	REC_WORD_VV	4.171	n/a	<>	n/a	-999	12	[0, 0, 0]	n/a	catFR1	0	R1376D
1350.842	0.731	2051151	REC_WORD	0.731	n/a	CAULIFLOWER	Vegetables	-999	12	[0, 0, 0]	n/a	catFR1	0	R1376D
1351.573	1.745	2051882	REC_WORD	1.745	n/a	BROCCOLI	Vegetables	7	12	[0, 0, 0]	n/a	catFR1	0	R1376D
1353.318	1.389	2053627	REC_WORD_VV	1.389	n/a	<>	n/a	-999	12	[0, 0, 0]	n/a	catFR1	0	R1376D
1354.707	1.524	2055016	REC_WORD_VV	1.524	n/a	<>	n/a	-999	12	[0, 0, 0]	n/a	catFR1	0	R1376D
1356.231	0.0	2056545	REC_END	n/a	n/a	n/a	n/a	-999	12	[0, 0, 0]	n/a	catFR1	0	R1376D
