onset	duration	sample	trial_type	response_time	stim_file	item_name	category	serialpos	list	test	answer	experiment	session	subject
0.0	35.785	3130	SESS_START	n/a	n/a	n/a	n/a	-999	-999	[0, 0, 0]	n/a	catFR1	0	R1180C
35.785	10.0	21021	COUNTDOWN_START	n/a	n/a	n/a	n/a	-999	-999	[0, 0, 0]	n/a	catFR1	0	R1180C
46.213	3.692	26235	COUNTDOWN_END	n/a	n/a	n/a	n/a	-999	-999	[0, 0, 0]	n/a	catFR1	0	R1180C
49.905	1.6	28081	PRACTICE_WORD	n/a	n/a	TONGUE	n/a	-999	-999	[0, 0, 0]	n/a	catFR1	0	R1180C
52.337	1.6	29296	PRACTICE_WORD	n/a	n/a	IRON	n/a	-999	-999	[0, 0, 0]	n/a	catFR1	0	R1180C
54.822	1.6	30539	PRACTICE_WORD	n/a	n/a	CAMEL	n/a	-999	-999	[0, 0, 0]	n/a	catFR1	0	R1180C
57.205	1.6	31730	PRACTICE_WORD	n/a	n/a	CHEST	n/a	-999	-999	[0, 0, 0]	n/a	catFR1	0	R1180C
59.69	1.6	32973	PRACTICE_WORD	n/a	n/a	WATCH	n/a	-999	-999	[0, 0, 0]	n/a	catFR1	0	R1180C
62.289	1.6	34272	PRACTICE_WORD	n/a	n/a	RHINO	n/a	-999	-999	[0, 0, 0]	n/a	catFR1	0	R1180C
64.707	1.6	35481	PRACTICE_WORD	n/a	n/a	WAGON	n/a	-999	-999	[0, 0, 0]	n/a	catFR1	0	R1180C
67.29	1.6	36772	PRACTICE_WORD	n/a	n/a	ATTIC	n/a	-999	-999	[0, 0, 0]	n/a	catFR1	0	R1180C
69.775	1.6	38015	PRACTICE_WORD	n/a	n/a	COTTON	n/a	-999	-999	[0, 0, 0]	n/a	catFR1	0	R1180C
72.174	1.6	39214	PRACTICE_WORD	n/a	n/a	BEAM	n/a	-999	-999	[0, 0, 0]	n/a	catFR1	0	R1180C
74.643	1.6	40448	PRACTICE_WORD	n/a	n/a	RING	n/a	-999	-999	[0, 0, 0]	n/a	catFR1	0	R1180C
77.059	1.6	41656	PRACTICE_WORD	n/a	n/a	FLOOD	n/a	-999	-999	[0, 0, 0]	n/a	catFR1	0	R1180C
78.677	0.0	42465	PRACTICE_DISTRACT_START	n/a	n/a	n/a	n/a	-999	-999	[0, 0, 0]	n/a	catFR1	0	R1180C
78.677	0.016	42465	START	n/a	n/a	n/a	n/a	-999	-1	[-999, -999, -999]	n/a	catFR1	0	R1180C
78.693	12.136	42473	PROB	12.109	n/a	n/a	n/a	-999	-1	[7, 5, 6]	16.0	catFR1	0	R1180C
90.829	8.756	48541	PROB	8.756	n/a	n/a	n/a	-999	-1	[5, 9, 1]	15.0	catFR1	0	R1180C
99.585	0.011	52918	STOP	n/a	n/a	n/a	n/a	-999	-1	[-999, -999, -999]	n/a	catFR1	0	R1180C
99.596	0.553	52924	PRACTICE_DISTRACT_END	n/a	n/a	n/a	n/a	-999	-999	[0, 0, 0]	n/a	catFR1	0	R1180C
100.149	30.515	53200	PRACTICE_REC_START	n/a	n/a	n/a	n/a	-999	-999	[0, 0, 0]	n/a	catFR1	0	R1180C
130.664	27.61	68456	PRACTICE_REC_END	n/a	n/a	n/a	n/a	-999	-999	[0, 0, 0]	n/a	catFR1	0	R1180C
158.274	10.0	82260	COUNTDOWN_START	n/a	n/a	n/a	n/a	-999	1	[0, 0, 0]	n/a	catFR1	0	R1180C
158.274	10.428	82260	TRIAL	n/a	n/a	n/a	n/a	-999	1	[0, 0, 0]	n/a	catFR1	0	R1180C
168.702	0.008	87474	COUNTDOWN_END	n/a	n/a	n/a	n/a	-999	1	[0, 0, 0]	n/a	catFR1	0	R1180C
168.71	1.6	87478	ORIENT	n/a	n/a	n/a	n/a	-999	1	[0, 0, 0]	n/a	catFR1	0	R1180C
172.427	1.6	89336	WORD	n/a	wordpools/wordpool_categorized_EN.txt	MILK	Beverages	1	1	[0, 0, 0]	n/a	catFR1	0	R1180C
174.828	1.6	90537	WORD	n/a	wordpools/wordpool_categorized_EN.txt	RUM	Beverages	2	1	[0, 0, 0]	n/a	catFR1	0	R1180C
177.278	1.6	91761	WORD	n/a	wordpools/wordpool_categorized_EN.txt	STREAM	Landscapes	3	1	[0, 0, 0]	n/a	catFR1	0	R1180C
179.713	1.6	92979	WORD	n/a	wordpools/wordpool_categorized_EN.txt	HILLS	Landscapes	4	1	[0, 0, 0]	n/a	catFR1	0	R1180C
182.245	1.6	94245	WORD	n/a	wordpools/wordpool_categorized_EN.txt	CHAIR	Furniture	5	1	[0, 0, 0]	n/a	catFR1	0	R1180C
184.697	1.6	95471	WORD	n/a	wordpools/wordpool_categorized_EN.txt	RECLINER	Furniture	6	1	[0, 0, 0]	n/a	catFR1	0	R1180C
187.113	1.6	96679	WORD	n/a	wordpools/wordpool_categorized_EN.txt	FOREST	Landscapes	7	1	[0, 0, 0]	n/a	catFR1	0	R1180C
189.513	1.6	97878	WORD	n/a	wordpools/wordpool_categorized_EN.txt	CREEK	Landscapes	8	1	[0, 0, 0]	n/a	catFR1	0	R1180C
192.064	1.6	99154	WORD	n/a	wordpools/wordpool_categorized_EN.txt	WINE	Beverages	9	1	[0, 0, 0]	n/a	catFR1	0	R1180C
194.531	1.6	100387	WORD	n/a	wordpools/wordpool_categorized_EN.txt	COLA	Beverages	10	1	[0, 0, 0]	n/a	catFR1	0	R1180C
196.966	1.6	101605	WORD	n/a	wordpools/wordpool_categorized_EN.txt	CABINET	Furniture	11	1	[0, 0, 0]	n/a	catFR1	0	R1180C
199.365	1.6	102804	WORD	n/a	wordpools/wordpool_categorized_EN.txt	SHELF	Furniture	12	1	[0, 0, 0]	n/a	catFR1	0	R1180C
200.966	0.001	103604	DISTRACT_START	n/a	n/a	n/a	n/a	-999	1	[0, 0, 0]	n/a	catFR1	0	R1180C
200.967	0.016	103605	START	n/a	n/a	n/a	n/a	-999	1	[-999, -999, -999]	n/a	catFR1	0	R1180C
200.983	10.284	103613	PROB	10.249	n/a	n/a	n/a	-999	1	[6, 6, 7]	19.0	catFR1	0	R1180C
211.267	7.653	108754	PROB	7.622	n/a	n/a	n/a	-999	1	[4, 3, 6]	13.0	catFR1	0	R1180C
218.92	3.505	112581	PROB	3.505	n/a	n/a	n/a	-999	1	[8, 2, 2]	12.0	catFR1	0	R1180C
222.425	0.011	114333	STOP	n/a	n/a	n/a	n/a	-999	1	[-999, -999, -999]	n/a	catFR1	0	R1180C
222.436	1.021	114338	DISTRACT_END	n/a	n/a	n/a	n/a	-999	1	[0, 0, 0]	n/a	catFR1	0	R1180C
223.457	1.881	114849	REC_START	n/a	n/a	n/a	n/a	-999	1	[0, 0, 0]	n/a	catFR1	0	R1180C
225.338	0.829	115789	REC_WORD	1.881	n/a	RUM	Beverages	2	1	[0, 0, 0]	n/a	catFR1	0	R1180C
226.167	1.242	116204	REC_WORD	2.71	n/a	STREAM	Landscapes	3	1	[0, 0, 0]	n/a	catFR1	0	R1180C
227.409	1.616	116825	REC_WORD	3.952	n/a	MILK	Beverages	1	1	[0, 0, 0]	n/a	catFR1	0	R1180C
229.025	1.024	117633	REC_WORD	5.568	n/a	CHAIR	Furniture	5	1	[0, 0, 0]	n/a	catFR1	0	R1180C
230.049	8.395	118145	REC_WORD	6.592	n/a	RECLINER	Furniture	6	1	[0, 0, 0]	n/a	catFR1	0	R1180C
238.444	15.022	122342	REC_WORD	14.987	n/a	HILLS	Landscapes	4	1	[0, 0, 0]	n/a	catFR1	0	R1180C
253.466	4.478	129852	REC_END	n/a	n/a	n/a	n/a	-999	1	[0, 0, 0]	n/a	catFR1	0	R1180C
257.944	0.0	132091	TRIAL	n/a	n/a	n/a	n/a	-999	2	[0, 0, 0]	n/a	catFR1	0	R1180C
257.944	10.0	132091	COUNTDOWN_START	n/a	n/a	n/a	n/a	-999	2	[0, 0, 0]	n/a	catFR1	0	R1180C
268.372	0.006	137304	COUNTDOWN_END	n/a	n/a	n/a	n/a	-999	2	[0, 0, 0]	n/a	catFR1	0	R1180C
268.378	1.6	137307	ORIENT	n/a	n/a	n/a	n/a	-999	2	[0, 0, 0]	n/a	catFR1	0	R1180C
271.996	1.6	139116	WORD	n/a	wordpools/wordpool_categorized_EN.txt	HAND	BodyParts	1	2	[0, 0, 0]	n/a	catFR1	0	R1180C
274.563	1.6	140400	WORD	n/a	wordpools/wordpool_categorized_EN.txt	ELBOW	BodyParts	2	2	[0, 0, 0]	n/a	catFR1	0	R1180C
277.08	1.6	141658	WORD	n/a	wordpools/wordpool_categorized_EN.txt	RADIO	Electronics	3	2	[0, 0, 0]	n/a	catFR1	0	R1180C
279.53	1.6	142883	WORD	n/a	wordpools/wordpool_categorized_EN.txt	PRINTER	Electronics	4	2	[0, 0, 0]	n/a	catFR1	0	R1180C
282.032	1.6	144134	WORD	n/a	wordpools/wordpool_categorized_EN.txt	CUPCAKE	Desserts	5	2	[0, 0, 0]	n/a	catFR1	0	R1180C
284.649	1.6	145442	WORD	n/a	wordpools/wordpool_categorized_EN.txt	PIE	Desserts	6	2	[0, 0, 0]	n/a	catFR1	0	R1180C
287.232	1.6	146734	WORD	n/a	wordpools/wordpool_categorized_EN.txt	NOSE	BodyParts	7	2	[0, 0, 0]	n/a	catFR1	0	R1180C
289.85	1.6	148042	WORD	n/a	wordpools/wordpool_categorized_EN.txt	LEG	BodyParts	8	2	[0, 0, 0]	n/a	catFR1	0	R1180C
292.316	1.6	149275	WORD	n/a	wordpools/wordpool_categorized_EN.txt	CHEESECAKE	Desserts	9	2	[0, 0, 0]	n/a	catFR1	0	R1180C
294.701	1.6	150468	WORD	n/a	wordpools/wordpool_categorized_EN.txt	COBBLER	Desserts	10	2	[0, 0, 0]	n/a	catFR1	0	R1180C
297.084	1.6	151659	WORD	n/a	wordpools/wordpool_categorized_EN.txt	CALCULATOR	Electronics	11	2	[0, 0, 0]	n/a	catFR1	0	R1180C
299.718	1.6	152976	WORD	n/a	wordpools/wordpool_categorized_EN.txt	TABLET	Electronics	12	2	[0, 0, 0]	n/a	catFR1	0	R1180C
301.334	0.001	153784	DISTRACT_START	n/a	n/a	n/a	n/a	-999	2	[0, 0, 0]	n/a	catFR1	0	R1180C
301.335	0.016	153784	START	n/a	n/a	n/a	n/a	-999	2	[-999, -999, -999]	n/a	catFR1	0	R1180C
301.351	10.303	153792	PROB	10.274	n/a	n/a	n/a	-999	2	[1, 4, 6]	11.0	catFR1	0	R1180C
311.654	7.6	158944	PROB	7.57	n/a	n/a	n/a	-999	2	[6, 5, 3]	14.0	catFR1	0	R1180C
319.254	5.555	162743	PROB	5.555	n/a	n/a	n/a	-999	2	[7, 6, 1]	14.0	catFR1	0	R1180C
324.809	0.014	165520	STOP	n/a	n/a	n/a	n/a	-999	2	[-999, -999, -999]	n/a	catFR1	0	R1180C
324.823	1.101	165527	DISTRACT_END	n/a	n/a	n/a	n/a	-999	2	[0, 0, 0]	n/a	catFR1	0	R1180C
325.924	2.164	166078	REC_START	n/a	n/a	n/a	n/a	-999	2	[0, 0, 0]	n/a	catFR1	0	R1180C
328.088	1.261	167160	REC_WORD	2.164	n/a	CUPCAKE	Desserts	5	2	[0, 0, 0]	n/a	catFR1	0	R1180C
329.349	1.226	167790	REC_WORD	3.425	n/a	COBBLER	Desserts	10	2	[0, 0, 0]	n/a	catFR1	0	R1180C
330.575	1.095	168403	REC_WORD	4.651	n/a	CHEESECAKE	Desserts	9	2	[0, 0, 0]	n/a	catFR1	0	R1180C
331.67	1.345	168951	REC_WORD	5.746	n/a	HAND	BodyParts	1	2	[0, 0, 0]	n/a	catFR1	0	R1180C
333.015	1.904	169623	REC_WORD	7.091	n/a	ELBOW	BodyParts	2	2	[0, 0, 0]	n/a	catFR1	0	R1180C
334.919	5.752	170575	REC_WORD	8.995	n/a	LEG	BodyParts	8	2	[0, 0, 0]	n/a	catFR1	0	R1180C
340.671	15.264	173451	REC_WORD	14.747	n/a	NOSE	BodyParts	7	2	[0, 0, 0]	n/a	catFR1	0	R1180C
355.935	2.911	181082	REC_END	n/a	n/a	n/a	n/a	-999	2	[0, 0, 0]	n/a	catFR1	0	R1180C
358.846	0.0	182537	TRIAL	n/a	n/a	n/a	n/a	-999	3	[0, 0, 0]	n/a	catFR1	0	R1180C
358.846	10.0	182537	COUNTDOWN_START	n/a	n/a	n/a	n/a	-999	3	[0, 0, 0]	n/a	catFR1	0	R1180C
369.274	0.007	187751	COUNTDOWN_END	n/a	n/a	n/a	n/a	-999	3	[0, 0, 0]	n/a	catFR1	0	R1180C
369.281	1.6	187754	ORIENT	n/a	n/a	n/a	n/a	-999	3	[0, 0, 0]	n/a	catFR1	0	R1180C
372.732	1.6	189480	WORD	n/a	wordpools/wordpool_categorized_EN.txt	BED	Furniture	1	3	[0, 0, 0]	n/a	catFR1	0	R1180C
375.148	1.6	190688	WORD	n/a	wordpools/wordpool_categorized_EN.txt	NIGHTSTAND	Furniture	2	3	[0, 0, 0]	n/a	catFR1	0	R1180C
377.615	1.6	191921	WORD	n/a	wordpools/wordpool_categorized_EN.txt	ELEPHANT	Zoo	3	3	[0, 0, 0]	n/a	catFR1	0	R1180C
380.0	1.6	193114	WORD	n/a	wordpools/wordpool_categorized_EN.txt	GORILLA	Zoo	4	3	[0, 0, 0]	n/a	catFR1	0	R1180C
382.616	1.6	194421	WORD	n/a	wordpools/wordpool_categorized_EN.txt	ORANGE	Fruit	5	3	[0, 0, 0]	n/a	catFR1	0	R1180C
385.217	1.6	195722	WORD	n/a	wordpools/wordpool_categorized_EN.txt	PEAR	Fruit	6	3	[0, 0, 0]	n/a	catFR1	0	R1180C
387.785	1.6	197006	WORD	n/a	wordpools/wordpool_categorized_EN.txt	PANDA	Zoo	7	3	[0, 0, 0]	n/a	catFR1	0	R1180C
390.284	1.6	198255	WORD	n/a	wordpools/wordpool_categorized_EN.txt	LION	Zoo	8	3	[0, 0, 0]	n/a	catFR1	0	R1180C
392.786	1.6	199506	WORD	n/a	wordpools/wordpool_categorized_EN.txt	BOOKCASE	Furniture	9	3	[0, 0, 0]	n/a	catFR1	0	R1180C
395.385	1.6	200805	WORD	n/a	wordpools/wordpool_categorized_EN.txt	DESK	Furniture	10	3	[0, 0, 0]	n/a	catFR1	0	R1180C
397.954	1.6	202090	WORD	n/a	wordpools/wordpool_categorized_EN.txt	LIME	Fruit	11	3	[0, 0, 0]	n/a	catFR1	0	R1180C
400.403	1.6	203314	WORD	n/a	wordpools/wordpool_categorized_EN.txt	PEACH	Fruit	12	3	[0, 0, 0]	n/a	catFR1	0	R1180C
402.004	0.001	204115	DISTRACT_START	n/a	n/a	n/a	n/a	-999	3	[0, 0, 0]	n/a	catFR1	0	R1180C
402.005	0.016	204115	START	n/a	n/a	n/a	n/a	-999	3	[-999, -999, -999]	n/a	catFR1	0	R1180C
402.021	4.634	204123	PROB	4.604	n/a	n/a	n/a	-999	3	[7, 1, 3]	11.0	catFR1	0	R1180C
406.655	13.219	206440	PROB	13.187	n/a	n/a	n/a	-999	3	[8, 6, 3]	17.0	catFR1	0	R1180C
419.874	3.792	213049	PROB	3.792	n/a	n/a	n/a	-999	3	[1, 1, 9]	11.0	catFR1	0	R1180C
423.666	0.009	214945	STOP	n/a	n/a	n/a	n/a	-999	3	[-999, -999, -999]	n/a	catFR1	0	R1180C
423.675	1.134	214949	DISTRACT_END	n/a	n/a	n/a	n/a	-999	3	[0, 0, 0]	n/a	catFR1	0	R1180C
424.809	3.818	215516	REC_START	n/a	n/a	n/a	n/a	-999	3	[0, 0, 0]	n/a	catFR1	0	R1180C
428.627	1.171	217425	REC_WORD	3.818	n/a	BED	Furniture	1	3	[0, 0, 0]	n/a	catFR1	0	R1180C
429.798	2.043	218010	REC_WORD	4.989	n/a	NIGHTSTAND	Furniture	2	3	[0, 0, 0]	n/a	catFR1	0	R1180C
431.841	1.321	219032	REC_WORD	7.032	n/a	PANDA	Zoo	7	3	[0, 0, 0]	n/a	catFR1	0	R1180C
433.162	1.78	219692	REC_WORD	8.353	n/a	GORILLA	Zoo	4	3	[0, 0, 0]	n/a	catFR1	0	R1180C
434.942	11.511	220582	REC_WORD	10.133	n/a	LIME	Fruit	11	3	[0, 0, 0]	n/a	catFR1	0	R1180C
446.453	8.371	226337	REC_WORD	21.644	n/a	DESK	Furniture	10	3	[0, 0, 0]	n/a	catFR1	0	R1180C
454.824	2.69	230522	REC_END	n/a	n/a	n/a	n/a	-999	3	[0, 0, 0]	n/a	catFR1	0	R1180C
457.514	10.0	231867	COUNTDOWN_START	n/a	n/a	n/a	n/a	-999	4	[0, 0, 0]	n/a	catFR1	0	R1180C
457.514	10.428	231867	TRIAL	n/a	n/a	n/a	n/a	-999	4	[0, 0, 0]	n/a	catFR1	0	R1180C
467.942	0.008	237081	COUNTDOWN_END	n/a	n/a	n/a	n/a	-999	4	[0, 0, 0]	n/a	catFR1	0	R1180C
467.95	1.6	237085	ORIENT	n/a	n/a	n/a	n/a	-999	4	[0, 0, 0]	n/a	catFR1	0	R1180C
471.533	1.6	238876	WORD	n/a	wordpools/wordpool_categorized_EN.txt	FISH	OceanAnimals	1	4	[0, 0, 0]	n/a	catFR1	0	R1180C
474.15	1.6	240184	WORD	n/a	wordpools/wordpool_categorized_EN.txt	TURTLE	OceanAnimals	2	4	[0, 0, 0]	n/a	catFR1	0	R1180C
476.652	1.6	241435	WORD	n/a	wordpools/wordpool_categorized_EN.txt	HEAD	BodyParts	3	4	[0, 0, 0]	n/a	catFR1	0	R1180C
479.084	1.6	242651	WORD	n/a	wordpools/wordpool_categorized_EN.txt	KNEE	BodyParts	4	4	[0, 0, 0]	n/a	catFR1	0	R1180C
481.468	1.6	243843	WORD	n/a	wordpools/wordpool_categorized_EN.txt	WALL	Building	5	4	[0, 0, 0]	n/a	catFR1	0	R1180C
483.886	1.6	245052	WORD	n/a	wordpools/wordpool_categorized_EN.txt	FOUNDATION	Building	6	4	[0, 0, 0]	n/a	catFR1	0	R1180C
486.419	1.6	246318	WORD	n/a	wordpools/wordpool_categorized_EN.txt	LOBSTER	OceanAnimals	7	4	[0, 0, 0]	n/a	catFR1	0	R1180C
489.021	1.6	247619	WORD	n/a	wordpools/wordpool_categorized_EN.txt	WHALE	OceanAnimals	8	4	[0, 0, 0]	n/a	catFR1	0	R1180C
491.62	1.6	248919	WORD	n/a	wordpools/wordpool_categorized_EN.txt	ROOM	Building	9	4	[0, 0, 0]	n/a	catFR1	0	R1180C
494.221	1.6	250219	WORD	n/a	wordpools/wordpool_categorized_EN.txt	FLOOR	Building	10	4	[0, 0, 0]	n/a	catFR1	0	R1180C
496.638	1.6	251427	WORD	n/a	wordpools/wordpool_categorized_EN.txt	EAR	BodyParts	11	4	[0, 0, 0]	n/a	catFR1	0	R1180C
499.105	1.6	252661	WORD	n/a	wordpools/wordpool_categorized_EN.txt	EYE	BodyParts	12	4	[0, 0, 0]	n/a	catFR1	0	R1180C
500.723	0.001	253470	DISTRACT_START	n/a	n/a	n/a	n/a	-999	4	[0, 0, 0]	n/a	catFR1	0	R1180C
500.724	0.015	253470	START	n/a	n/a	n/a	n/a	-999	4	[-999, -999, -999]	n/a	catFR1	0	R1180C
500.739	6.152	253478	PROB	6.127	n/a	n/a	n/a	-999	4	[4, 2, 1]	7.0	catFR1	0	R1180C
506.891	6.566	256553	PROB	6.542	n/a	n/a	n/a	-999	4	[3, 1, 2]	6.0	catFR1	0	R1180C
513.457	8.711	259836	PROB	8.711	n/a	n/a	n/a	-999	4	[5, 3, 8]	16.0	catFR1	0	R1180C
522.168	0.008	264191	STOP	n/a	n/a	n/a	n/a	-999	4	[-999, -999, -999]	n/a	catFR1	0	R1180C
522.176	1.217	264195	DISTRACT_END	n/a	n/a	n/a	n/a	-999	4	[0, 0, 0]	n/a	catFR1	0	R1180C
523.393	2.167	264804	REC_START	n/a	n/a	n/a	n/a	-999	4	[0, 0, 0]	n/a	catFR1	0	R1180C
525.56	2.386	265887	REC_WORD	2.167	n/a	ROOM	Building	9	4	[0, 0, 0]	n/a	catFR1	0	R1180C
527.946	11.07	267080	REC_WORD	4.553	n/a	WALL	Building	5	4	[0, 0, 0]	n/a	catFR1	0	R1180C
539.016	7.086	272615	REC_WORD	15.623	n/a	FISH	OceanAnimals	1	4	[0, 0, 0]	n/a	catFR1	0	R1180C
546.102	6.059	276157	REC_WORD	22.709	n/a	KNEE	BodyParts	4	4	[0, 0, 0]	n/a	catFR1	0	R1180C
552.161	1.244	279186	REC_WORD	28.768	n/a	EYE	BodyParts	12	4	[0, 0, 0]	n/a	catFR1	0	R1180C
553.405	5.228	279808	REC_END	n/a	n/a	n/a	n/a	-999	4	[0, 0, 0]	n/a	catFR1	0	R1180C
558.633	0.0	282422	TRIAL	n/a	n/a	n/a	n/a	-999	5	[0, 0, 0]	n/a	catFR1	0	R1180C
558.633	10.0	282422	COUNTDOWN_START	n/a	n/a	n/a	n/a	-999	5	[0, 0, 0]	n/a	catFR1	0	R1180C
569.061	0.007	287636	COUNTDOWN_END	n/a	n/a	n/a	n/a	-999	5	[0, 0, 0]	n/a	catFR1	0	R1180C
569.068	1.6	287639	ORIENT	n/a	n/a	n/a	n/a	-999	5	[0, 0, 0]	n/a	catFR1	0	R1180C
572.853	1.6	289532	WORD	n/a	wordpools/wordpool_categorized_EN.txt	VACUUM	Appliances	1	5	[0, 0, 0]	n/a	catFR1	0	R1180C
575.269	1.6	290739	WORD	n/a	wordpools/wordpool_categorized_EN.txt	FREEZER	Appliances	2	5	[0, 0, 0]	n/a	catFR1	0	R1180C
577.671	1.6	291940	WORD	n/a	wordpools/wordpool_categorized_EN.txt	SPIDER	Insects	3	5	[0, 0, 0]	n/a	catFR1	0	R1180C
580.12	1.6	293165	WORD	n/a	wordpools/wordpool_categorized_EN.txt	MOTH	Insects	4	5	[0, 0, 0]	n/a	catFR1	0	R1180C
582.554	1.6	294382	WORD	n/a	wordpools/wordpool_categorized_EN.txt	CROWBAR	Tools	5	5	[0, 0, 0]	n/a	catFR1	0	R1180C
585.005	1.6	295607	WORD	n/a	wordpools/wordpool_categorized_EN.txt	DRILL	Tools	6	5	[0, 0, 0]	n/a	catFR1	0	R1180C
587.471	1.6	296840	WORD	n/a	wordpools/wordpool_categorized_EN.txt	ANT	Insects	7	5	[0, 0, 0]	n/a	catFR1	0	R1180C
589.956	1.6	298082	WORD	n/a	wordpools/wordpool_categorized_EN.txt	LADYBUG	Insects	8	5	[0, 0, 0]	n/a	catFR1	0	R1180C
592.439	1.6	299324	WORD	n/a	wordpools/wordpool_categorized_EN.txt	DISHWASHER	Appliances	9	5	[0, 0, 0]	n/a	catFR1	0	R1180C
594.991	1.6	300600	WORD	n/a	wordpools/wordpool_categorized_EN.txt	IRON	Appliances	10	5	[0, 0, 0]	n/a	catFR1	0	R1180C
597.457	1.6	301832	WORD	n/a	wordpools/wordpool_categorized_EN.txt	SANDER	Tools	11	5	[0, 0, 0]	n/a	catFR1	0	R1180C
599.892	1.6	303050	WORD	n/a	wordpools/wordpool_categorized_EN.txt	AXE	Tools	12	5	[0, 0, 0]	n/a	catFR1	0	R1180C
601.507	0.002	303857	DISTRACT_START	n/a	n/a	n/a	n/a	-999	5	[0, 0, 0]	n/a	catFR1	0	R1180C
601.509	0.015	303858	START	n/a	n/a	n/a	n/a	-999	5	[-999, -999, -999]	n/a	catFR1	0	R1180C
601.524	5.651	303866	PROB	5.621	n/a	n/a	n/a	-999	5	[2, 8, 8]	18.0	catFR1	0	R1180C
607.175	11.169	306691	PROB	11.137	n/a	n/a	n/a	-999	5	[8, 3, 9]	20.0	catFR1	0	R1180C
618.344	4.401	312275	PROB	4.401	n/a	n/a	n/a	-999	5	[1, 4, 1]	6.0	catFR1	0	R1180C
622.745	0.017	314475	STOP	n/a	n/a	n/a	n/a	-999	5	[-999, -999, -999]	n/a	catFR1	0	R1180C
622.762	1.134	314484	DISTRACT_END	n/a	n/a	n/a	n/a	-999	5	[0, 0, 0]	n/a	catFR1	0	R1180C
623.896	1.733	315051	REC_START	n/a	n/a	n/a	n/a	-999	5	[0, 0, 0]	n/a	catFR1	0	R1180C
625.629	8.911	315917	REC_WORD	1.733	n/a	CROWBAR	Tools	5	5	[0, 0, 0]	n/a	catFR1	0	R1180C
634.54	1.449	320372	REC_WORD	10.644	n/a	LADYBUG	Insects	8	5	[0, 0, 0]	n/a	catFR1	0	R1180C
635.989	17.919	321097	REC_WORD	12.093	n/a	MOTH	Insects	4	5	[0, 0, 0]	n/a	catFR1	0	R1180C
653.908	10.511	330055	REC_END	n/a	n/a	n/a	n/a	-999	5	[0, 0, 0]	n/a	catFR1	0	R1180C
664.419	0.0	335310	TRIAL	n/a	n/a	n/a	n/a	-999	6	[0, 0, 0]	n/a	catFR1	0	R1180C
664.419	10.0	335310	COUNTDOWN_START	n/a	n/a	n/a	n/a	-999	6	[0, 0, 0]	n/a	catFR1	0	R1180C
674.847	0.009	340524	COUNTDOWN_END	n/a	n/a	n/a	n/a	-999	6	[0, 0, 0]	n/a	catFR1	0	R1180C
674.856	1.6	340529	ORIENT	n/a	n/a	n/a	n/a	-999	6	[0, 0, 0]	n/a	catFR1	0	R1180C
678.405	1.6	342303	WORD	n/a	wordpools/wordpool_categorized_EN.txt	BASS	Instruments	1	6	[0, 0, 0]	n/a	catFR1	0	R1180C
680.973	1.6	343587	WORD	n/a	wordpools/wordpool_categorized_EN.txt	FLUTE	Instruments	2	6	[0, 0, 0]	n/a	catFR1	0	R1180C
683.589	1.6	344895	WORD	n/a	wordpools/wordpool_categorized_EN.txt	PUDDING	Desserts	3	6	[0, 0, 0]	n/a	catFR1	0	R1180C
686.19	1.6	346195	WORD	n/a	wordpools/wordpool_categorized_EN.txt	PASTRY	Desserts	4	6	[0, 0, 0]	n/a	catFR1	0	R1180C
688.64	1.6	347420	WORD	n/a	wordpools/wordpool_categorized_EN.txt	GRATER	KitchenTools	5	6	[0, 0, 0]	n/a	catFR1	0	R1180C
691.091	1.6	348645	WORD	n/a	wordpools/wordpool_categorized_EN.txt	SPOON	KitchenTools	6	6	[0, 0, 0]	n/a	catFR1	0	R1180C
693.642	1.6	349921	WORD	n/a	wordpools/wordpool_categorized_EN.txt	BANJO	Instruments	7	6	[0, 0, 0]	n/a	catFR1	0	R1180C
696.142	1.6	351171	WORD	n/a	wordpools/wordpool_categorized_EN.txt	TRUMPET	Instruments	8	6	[0, 0, 0]	n/a	catFR1	0	R1180C
698.66	1.6	352429	WORD	n/a	wordpools/wordpool_categorized_EN.txt	STRAINER	KitchenTools	9	6	[0, 0, 0]	n/a	catFR1	0	R1180C
701.176	1.6	353687	WORD	n/a	wordpools/wordpool_categorized_EN.txt	WHISK	KitchenTools	10	6	[0, 0, 0]	n/a	catFR1	0	R1180C
703.744	1.6	354971	WORD	n/a	wordpools/wordpool_categorized_EN.txt	COOKIE	Desserts	11	6	[0, 0, 0]	n/a	catFR1	0	R1180C
706.177	1.6	356188	WORD	n/a	wordpools/wordpool_categorized_EN.txt	CAKE	Desserts	12	6	[0, 0, 0]	n/a	catFR1	0	R1180C
707.778	0.001	356988	DISTRACT_START	n/a	n/a	n/a	n/a	-999	6	[0, 0, 0]	n/a	catFR1	0	R1180C
707.779	0.016	356989	START	n/a	n/a	n/a	n/a	-999	6	[-999, -999, -999]	n/a	catFR1	0	R1180C
707.795	10.235	356997	PROB	10.215	n/a	n/a	n/a	-999	6	[7, 5, 8]	20.0	catFR1	0	R1180C
718.03	5.284	362114	PROB	5.251	n/a	n/a	n/a	-999	6	[8, 6, 1]	15.0	catFR1	0	R1180C
723.314	5.295	364755	PROB	5.295	n/a	n/a	n/a	-999	6	[1, 6, 7]	14.0	catFR1	0	R1180C
728.609	0.006	367403	STOP	n/a	n/a	n/a	n/a	-999	6	[-999, -999, -999]	n/a	catFR1	0	R1180C
728.615	1.118	367406	DISTRACT_END	n/a	n/a	n/a	n/a	-999	6	[0, 0, 0]	n/a	catFR1	0	R1180C
729.733	2.391	367965	REC_START	n/a	n/a	n/a	n/a	-999	6	[0, 0, 0]	n/a	catFR1	0	R1180C
732.124	1.613	369160	REC_WORD	2.391	n/a	FLUTE	Instruments	2	6	[0, 0, 0]	n/a	catFR1	0	R1180C
733.737	1.385	369966	REC_WORD	4.004	n/a	BASS	Instruments	1	6	[0, 0, 0]	n/a	catFR1	0	R1180C
735.122	4.839	370659	REC_WORD	5.389	n/a	PUDDING	Desserts	3	6	[0, 0, 0]	n/a	catFR1	0	R1180C
739.961	19.787	373078	REC_WORD	10.228	n/a	TRUMPET	Instruments	8	6	[0, 0, 0]	n/a	catFR1	0	R1180C
759.748	17.692	382971	REC_END	n/a	n/a	n/a	n/a	-999	6	[0, 0, 0]	n/a	catFR1	0	R1180C
777.44	10.0	391816	COUNTDOWN_START	n/a	n/a	n/a	n/a	-999	7	[0, 0, 0]	n/a	catFR1	0	R1180C
777.441	10.427	391816	TRIAL	n/a	n/a	n/a	n/a	-999	7	[0, 0, 0]	n/a	catFR1	0	R1180C
787.868	0.009	397030	COUNTDOWN_END	n/a	n/a	n/a	n/a	-999	7	[0, 0, 0]	n/a	catFR1	0	R1180C
787.877	1.6	397034	ORIENT	n/a	n/a	n/a	n/a	-999	7	[0, 0, 0]	n/a	catFR1	0	R1180C
791.728	1.6	398959	WORD	n/a	wordpools/wordpool_categorized_EN.txt	CELLO	Instruments	1	7	[0, 0, 0]	n/a	catFR1	0	R1180C
794.244	1.6	400217	WORD	n/a	wordpools/wordpool_categorized_EN.txt	TROMBONE	Instruments	2	7	[0, 0, 0]	n/a	catFR1	0	R1180C
796.678	1.6	401434	WORD	n/a	wordpools/wordpool_categorized_EN.txt	PUZZLE	Toys	3	7	[0, 0, 0]	n/a	catFR1	0	R1180C
799.111	1.6	402651	WORD	n/a	wordpools/wordpool_categorized_EN.txt	BARBIE	Toys	4	7	[0, 0, 0]	n/a	catFR1	0	R1180C
801.646	1.6	403918	WORD	n/a	wordpools/wordpool_categorized_EN.txt	HURRICANE	Weather	5	7	[0, 0, 0]	n/a	catFR1	0	R1180C
804.095	1.6	405142	WORD	n/a	wordpools/wordpool_categorized_EN.txt	THUNDER	Weather	6	7	[0, 0, 0]	n/a	catFR1	0	R1180C
806.546	1.6	406368	WORD	n/a	wordpools/wordpool_categorized_EN.txt	BLOCKS	Toys	7	7	[0, 0, 0]	n/a	catFR1	0	R1180C
809.163	1.6	407676	WORD	n/a	wordpools/wordpool_categorized_EN.txt	DOLLHOUSE	Toys	8	7	[0, 0, 0]	n/a	catFR1	0	R1180C
811.53	1.6	408859	WORD	n/a	wordpools/wordpool_categorized_EN.txt	ORGAN	Instruments	9	7	[0, 0, 0]	n/a	catFR1	0	R1180C
813.915	1.6	410052	WORD	n/a	wordpools/wordpool_categorized_EN.txt	DRUM	Instruments	10	7	[0, 0, 0]	n/a	catFR1	0	R1180C
816.448	1.6	411318	WORD	n/a	wordpools/wordpool_categorized_EN.txt	LIGHTNING	Weather	11	7	[0, 0, 0]	n/a	catFR1	0	R1180C
819.032	1.6	412610	WORD	n/a	wordpools/wordpool_categorized_EN.txt	HUMIDITY	Weather	12	7	[0, 0, 0]	n/a	catFR1	0	R1180C
820.65	0.001	413419	DISTRACT_START	n/a	n/a	n/a	n/a	-999	7	[0, 0, 0]	n/a	catFR1	0	R1180C
820.651	0.015	413420	START	n/a	n/a	n/a	n/a	-999	7	[-999, -999, -999]	n/a	catFR1	0	R1180C
820.666	4.034	413427	PROB	4.008	n/a	n/a	n/a	-999	7	[2, 1, 6]	9.0	catFR1	0	R1180C
824.7	9.468	415444	PROB	9.437	n/a	n/a	n/a	-999	7	[2, 6, 3]	13.0	catFR1	0	R1180C
834.168	7.193	420177	PROB	7.193	n/a	n/a	n/a	-999	7	[3, 7, 7]	17.0	catFR1	0	R1180C
841.361	0.008	423774	STOP	n/a	n/a	n/a	n/a	-999	7	[-999, -999, -999]	n/a	catFR1	0	R1180C
841.369	1.084	423778	DISTRACT_END	n/a	n/a	n/a	n/a	-999	7	[0, 0, 0]	n/a	catFR1	0	R1180C
842.453	3.966	424320	REC_START	n/a	n/a	n/a	n/a	-999	7	[0, 0, 0]	n/a	catFR1	0	R1180C
846.419	1.54	426302	REC_WORD	3.966	n/a	THUNDER	Weather	6	7	[0, 0, 0]	n/a	catFR1	0	R1180C
847.959	1.548	427072	REC_WORD	5.506	n/a	HURRICANE	Weather	5	7	[0, 0, 0]	n/a	catFR1	0	R1180C
849.507	2.065	427846	REC_WORD	7.054	n/a	LIGHTNING	Weather	11	7	[0, 0, 0]	n/a	catFR1	0	R1180C
851.572	1.098	428879	REC_WORD	9.119	n/a	BARBIE	Toys	4	7	[0, 0, 0]	n/a	catFR1	0	R1180C
852.67	2.324	429428	REC_WORD	10.217	n/a	DOLLHOUSE	Toys	8	7	[0, 0, 0]	n/a	catFR1	0	R1180C
854.994	1.768	430590	REC_WORD	12.541	n/a	CELLO	Instruments	1	7	[0, 0, 0]	n/a	catFR1	0	R1180C
856.762	10.248	431474	REC_WORD	14.309	n/a	TROMBONE	Instruments	2	7	[0, 0, 0]	n/a	catFR1	0	R1180C
867.01	5.455	436597	REC_WORD	24.557	n/a	STORM	n/a	-999	7	[0, 0, 0]	n/a	catFR1	0	R1180C
872.465	6.144	439324	REC_END	n/a	n/a	n/a	n/a	-999	7	[0, 0, 0]	n/a	catFR1	0	R1180C
878.609	10.0	442396	COUNTDOWN_START	n/a	n/a	n/a	n/a	-999	8	[0, 0, 0]	n/a	catFR1	0	R1180C
878.61	10.427	442397	TRIAL	n/a	n/a	n/a	n/a	-999	8	[0, 0, 0]	n/a	catFR1	0	R1180C
889.037	0.009	447610	COUNTDOWN_END	n/a	n/a	n/a	n/a	-999	8	[0, 0, 0]	n/a	catFR1	0	R1180C
889.046	1.6	447614	ORIENT	n/a	n/a	n/a	n/a	-999	8	[0, 0, 0]	n/a	catFR1	0	R1180C
892.78	1.6	449481	WORD	n/a	wordpools/wordpool_categorized_EN.txt	JUICE	Beverages	1	8	[0, 0, 0]	n/a	catFR1	0	R1180C
895.379	1.6	450780	WORD	n/a	wordpools/wordpool_categorized_EN.txt	TEA	Beverages	2	8	[0, 0, 0]	n/a	catFR1	0	R1180C
897.914	1.6	452048	WORD	n/a	wordpools/wordpool_categorized_EN.txt	PIANO	Instruments	3	8	[0, 0, 0]	n/a	catFR1	0	R1180C
900.43	1.6	453306	WORD	n/a	wordpools/wordpool_categorized_EN.txt	GUITAR	Instruments	4	8	[0, 0, 0]	n/a	catFR1	0	R1180C
903.032	1.6	454606	WORD	n/a	wordpools/wordpool_categorized_EN.txt	GIRAFFE	Zoo	5	8	[0, 0, 0]	n/a	catFR1	0	R1180C
905.498	1.6	455839	WORD	n/a	wordpools/wordpool_categorized_EN.txt	TIGER	Zoo	6	8	[0, 0, 0]	n/a	catFR1	0	R1180C
907.883	1.6	457032	WORD	n/a	wordpools/wordpool_categorized_EN.txt	WATER	Beverages	7	8	[0, 0, 0]	n/a	catFR1	0	R1180C
910.332	1.6	458256	WORD	n/a	wordpools/wordpool_categorized_EN.txt	LEMONADE	Beverages	8	8	[0, 0, 0]	n/a	catFR1	0	R1180C
912.734	1.6	459457	WORD	n/a	wordpools/wordpool_categorized_EN.txt	MONKEY	Zoo	9	8	[0, 0, 0]	n/a	catFR1	0	R1180C
915.316	1.6	460748	WORD	n/a	wordpools/wordpool_categorized_EN.txt	CHIMPANZEE	Zoo	10	8	[0, 0, 0]	n/a	catFR1	0	R1180C
917.868	1.6	462024	WORD	n/a	wordpools/wordpool_categorized_EN.txt	VIOLIN	Instruments	11	8	[0, 0, 0]	n/a	catFR1	0	R1180C
920.45	1.6	463315	WORD	n/a	wordpools/wordpool_categorized_EN.txt	TUBA	Instruments	12	8	[0, 0, 0]	n/a	catFR1	0	R1180C
922.052	0.001	464116	DISTRACT_START	n/a	n/a	n/a	n/a	-999	8	[0, 0, 0]	n/a	catFR1	0	R1180C
922.053	0.015	464116	START	n/a	n/a	n/a	n/a	-999	8	[-999, -999, -999]	n/a	catFR1	0	R1180C
922.068	7.484	464124	PROB	7.453	n/a	n/a	n/a	-999	8	[3, 2, 5]	10.0	catFR1	0	R1180C
929.552	7.935	467865	PROB	7.913	n/a	n/a	n/a	-999	8	[3, 4, 8]	15.0	catFR1	0	R1180C
937.487	9.706	471832	PROB	9.706	n/a	n/a	n/a	-999	8	[2, 7, 5]	14.0	catFR1	0	R1180C
947.193	0.013	476685	STOP	n/a	n/a	n/a	n/a	-999	8	[-999, -999, -999]	n/a	catFR1	0	R1180C
947.206	1.05	476692	DISTRACT_END	n/a	n/a	n/a	n/a	-999	8	[0, 0, 0]	n/a	catFR1	0	R1180C
948.256	2.699	477216	REC_START	n/a	n/a	n/a	n/a	-999	8	[0, 0, 0]	n/a	catFR1	0	R1180C
950.955	1.0	478566	REC_WORD	2.699	n/a	CHIMPANZEE	Zoo	10	8	[0, 0, 0]	n/a	catFR1	0	R1180C
951.955	1.85	479066	REC_WORD_VV	3.699	n/a	<>	n/a	-999	8	[0, 0, 0]	n/a	catFR1	0	R1180C
953.805	2.691	479991	REC_WORD	5.549	n/a	TUBA	Instruments	12	8	[0, 0, 0]	n/a	catFR1	0	R1180C
956.496	21.772	481336	REC_WORD	8.24	n/a	VIOLIN	Instruments	11	8	[0, 0, 0]	n/a	catFR1	0	R1180C
978.268	13.296	492221	REC_END	n/a	n/a	n/a	n/a	-999	8	[0, 0, 0]	n/a	catFR1	0	R1180C
991.564	0.0	498869	TRIAL	n/a	n/a	n/a	n/a	-999	9	[0, 0, 0]	n/a	catFR1	0	R1180C
991.564	10.0	498869	COUNTDOWN_START	n/a	n/a	n/a	n/a	-999	9	[0, 0, 0]	n/a	catFR1	0	R1180C
1001.992	0.008	504082	COUNTDOWN_END	n/a	n/a	n/a	n/a	-999	9	[0, 0, 0]	n/a	catFR1	0	R1180C
1002.0	1.6	504086	ORIENT	n/a	n/a	n/a	n/a	-999	9	[0, 0, 0]	n/a	catFR1	0	R1180C
1005.4	1.6	505786	WORD	n/a	wordpools/wordpool_categorized_EN.txt	CORN	Vegetables	1	9	[0, 0, 0]	n/a	catFR1	0	R1180C
1007.968	1.6	507070	WORD	n/a	wordpools/wordpool_categorized_EN.txt	LETTUCE	Vegetables	2	9	[0, 0, 0]	n/a	catFR1	0	R1180C
1010.518	1.6	508345	WORD	n/a	wordpools/wordpool_categorized_EN.txt	APPLE	Fruit	3	9	[0, 0, 0]	n/a	catFR1	0	R1180C
1013.002	1.6	509587	WORD	n/a	wordpools/wordpool_categorized_EN.txt	GRAPE	Fruit	4	9	[0, 0, 0]	n/a	catFR1	0	R1180C
1015.602	1.6	510887	WORD	n/a	wordpools/wordpool_categorized_EN.txt	ROSE	Flowers	5	9	[0, 0, 0]	n/a	catFR1	0	R1180C
1018.053	1.6	512112	WORD	n/a	wordpools/wordpool_categorized_EN.txt	PETUNIA	Flowers	6	9	[0, 0, 0]	n/a	catFR1	0	R1180C
1020.453	1.6	513312	WORD	n/a	wordpools/wordpool_categorized_EN.txt	BANANA	Fruit	7	9	[0, 0, 0]	n/a	catFR1	0	R1180C
1023.004	1.6	514587	WORD	n/a	wordpools/wordpool_categorized_EN.txt	BLUEBERRY	Fruit	8	9	[0, 0, 0]	n/a	catFR1	0	R1180C
1025.454	1.6	515812	WORD	n/a	wordpools/wordpool_categorized_EN.txt	CARROT	Vegetables	9	9	[0, 0, 0]	n/a	catFR1	0	R1180C
1028.022	1.6	517096	WORD	n/a	wordpools/wordpool_categorized_EN.txt	CUCUMBER	Vegetables	10	9	[0, 0, 0]	n/a	catFR1	0	R1180C
1030.505	1.6	518337	WORD	n/a	wordpools/wordpool_categorized_EN.txt	LILY	Flowers	11	9	[0, 0, 0]	n/a	catFR1	0	R1180C
1033.006	1.6	519588	WORD	n/a	wordpools/wordpool_categorized_EN.txt	LILAC	Flowers	12	9	[0, 0, 0]	n/a	catFR1	0	R1180C
1034.622	0.001	520396	DISTRACT_START	n/a	n/a	n/a	n/a	-999	9	[0, 0, 0]	n/a	catFR1	0	R1180C
1034.623	0.016	520396	START	n/a	n/a	n/a	n/a	-999	9	[-999, -999, -999]	n/a	catFR1	0	R1180C
1034.639	5.684	520404	PROB	5.65	n/a	n/a	n/a	-999	9	[7, 6, 2]	15.0	catFR1	0	R1180C
1040.323	10.37	523246	PROB	10.343	n/a	n/a	n/a	-999	9	[3, 8, 7]	18.0	catFR1	0	R1180C
1050.693	4.844	528430	PROB	4.844	n/a	n/a	n/a	-999	9	[3, 5, 4]	12.0	catFR1	0	R1180C
1055.537	0.006	530852	STOP	n/a	n/a	n/a	n/a	-999	9	[-999, -999, -999]	n/a	catFR1	0	R1180C
1055.543	1.118	530855	DISTRACT_END	n/a	n/a	n/a	n/a	-999	9	[0, 0, 0]	n/a	catFR1	0	R1180C
1056.661	1.109	531414	REC_START	n/a	n/a	n/a	n/a	-999	9	[0, 0, 0]	n/a	catFR1	0	R1180C
1057.77	1.156	531969	REC_WORD	1.109	n/a	CUCUMBER	Vegetables	10	9	[0, 0, 0]	n/a	catFR1	0	R1180C
1058.926	1.082	532547	REC_WORD	2.265	n/a	LILAC	Flowers	12	9	[0, 0, 0]	n/a	catFR1	0	R1180C
1060.008	1.885	533088	REC_WORD	3.347	n/a	CARROT	Vegetables	9	9	[0, 0, 0]	n/a	catFR1	0	R1180C
1061.893	1.062	534030	REC_WORD	5.232	n/a	LILY	Flowers	11	9	[0, 0, 0]	n/a	catFR1	0	R1180C
1062.955	23.718	534561	REC_WORD	6.294	n/a	PETUNIA	Flowers	6	9	[0, 0, 0]	n/a	catFR1	0	R1180C
1086.673	3.96	546419	REC_END	n/a	n/a	n/a	n/a	-999	9	[0, 0, 0]	n/a	catFR1	0	R1180C
1090.633	0.0	548399	TRIAL	n/a	n/a	n/a	n/a	-999	10	[0, 0, 0]	n/a	catFR1	0	R1180C
1090.633	10.0	548399	COUNTDOWN_START	n/a	n/a	n/a	n/a	-999	10	[0, 0, 0]	n/a	catFR1	0	R1180C
1101.061	0.007	553612	COUNTDOWN_END	n/a	n/a	n/a	n/a	-999	10	[0, 0, 0]	n/a	catFR1	0	R1180C
1101.068	1.6	553616	ORIENT	n/a	n/a	n/a	n/a	-999	10	[0, 0, 0]	n/a	catFR1	0	R1180C
1104.703	1.6	555433	WORD	n/a	wordpools/wordpool_categorized_EN.txt	HEN	FarmAnimals	1	10	[0, 0, 0]	n/a	catFR1	0	R1180C
1107.086	1.6	556624	WORD	n/a	wordpools/wordpool_categorized_EN.txt	TURKEY	FarmAnimals	2	10	[0, 0, 0]	n/a	catFR1	0	R1180C
1109.519	1.6	557841	WORD	n/a	wordpools/wordpool_categorized_EN.txt	DAFFODIL	Flowers	3	10	[0, 0, 0]	n/a	catFR1	0	R1180C
1111.921	1.6	559042	WORD	n/a	wordpools/wordpool_categorized_EN.txt	TULIP	Flowers	4	10	[0, 0, 0]	n/a	catFR1	0	R1180C
1114.354	1.6	560258	WORD	n/a	wordpools/wordpool_categorized_EN.txt	OYSTER	OceanAnimals	5	10	[0, 0, 0]	n/a	catFR1	0	R1180C
1116.922	1.6	561542	WORD	n/a	wordpools/wordpool_categorized_EN.txt	CRAB	OceanAnimals	6	10	[0, 0, 0]	n/a	catFR1	0	R1180C
1119.505	1.6	562833	WORD	n/a	wordpools/wordpool_categorized_EN.txt	CHICKEN	FarmAnimals	7	10	[0, 0, 0]	n/a	catFR1	0	R1180C
1122.006	1.6	564084	WORD	n/a	wordpools/wordpool_categorized_EN.txt	SHEEP	FarmAnimals	8	10	[0, 0, 0]	n/a	catFR1	0	R1180C
1124.422	1.6	565292	WORD	n/a	wordpools/wordpool_categorized_EN.txt	SHRIMP	OceanAnimals	9	10	[0, 0, 0]	n/a	catFR1	0	R1180C
1126.874	1.6	566518	WORD	n/a	wordpools/wordpool_categorized_EN.txt	OCTOPUS	OceanAnimals	10	10	[0, 0, 0]	n/a	catFR1	0	R1180C
1129.373	1.6	567767	WORD	n/a	wordpools/wordpool_categorized_EN.txt	MARIGOLD	Flowers	11	10	[0, 0, 0]	n/a	catFR1	0	R1180C
1131.941	1.6	569051	WORD	n/a	wordpools/wordpool_categorized_EN.txt	ORCHID	Flowers	12	10	[0, 0, 0]	n/a	catFR1	0	R1180C
1133.557	0.001	569859	DISTRACT_START	n/a	n/a	n/a	n/a	-999	10	[0, 0, 0]	n/a	catFR1	0	R1180C
1133.558	0.016	569859	START	n/a	n/a	n/a	n/a	-999	10	[-999, -999, -999]	n/a	catFR1	0	R1180C
1133.574	21.77	569867	PROB	21.77	n/a	n/a	n/a	-999	10	[8, 3, 5]	16.0	catFR1	0	R1180C
1155.344	0.017	580751	STOP	n/a	n/a	n/a	n/a	-999	10	[-999, -999, -999]	n/a	catFR1	0	R1180C
1155.361	1.084	580760	DISTRACT_END	n/a	n/a	n/a	n/a	-999	10	[0, 0, 0]	n/a	catFR1	0	R1180C
1156.445	3.041	581302	REC_START	n/a	n/a	n/a	n/a	-999	10	[0, 0, 0]	n/a	catFR1	0	R1180C
1159.486	2.11	582822	REC_WORD	3.041	n/a	PETUNIA	n/a	-999	10	[0, 0, 0]	n/a	catFR1	0	R1180C
1161.596	2.305	583877	REC_WORD	5.151	n/a	MARIGOLD	Flowers	11	10	[0, 0, 0]	n/a	catFR1	0	R1180C
1163.901	1.496	585029	REC_WORD	7.456	n/a	OCTOPUS	OceanAnimals	10	10	[0, 0, 0]	n/a	catFR1	0	R1180C
1165.397	1.663	585777	REC_WORD	8.952	n/a	HEN	FarmAnimals	1	10	[0, 0, 0]	n/a	catFR1	0	R1180C
1167.06	8.458	586609	REC_WORD	10.615	n/a	CHICKEN	FarmAnimals	7	10	[0, 0, 0]	n/a	catFR1	0	R1180C
1175.518	6.386	590837	REC_WORD	19.073	n/a	DAFFODIL	Flowers	3	10	[0, 0, 0]	n/a	catFR1	0	R1180C
1181.904	4.557	594030	REC_WORD	25.459	n/a	OYSTER	OceanAnimals	5	10	[0, 0, 0]	n/a	catFR1	0	R1180C
1186.461	2.308	596308	REC_END	n/a	n/a	n/a	n/a	-999	10	[0, 0, 0]	n/a	catFR1	0	R1180C
1188.769	0.0	597462	TRIAL	n/a	n/a	n/a	n/a	-999	11	[0, 0, 0]	n/a	catFR1	0	R1180C
1188.769	10.0	597462	COUNTDOWN_START	n/a	n/a	n/a	n/a	-999	11	[0, 0, 0]	n/a	catFR1	0	R1180C
1199.197	0.006	602676	COUNTDOWN_END	n/a	n/a	n/a	n/a	-999	11	[0, 0, 0]	n/a	catFR1	0	R1180C
1199.203	1.6	602679	ORIENT	n/a	n/a	n/a	n/a	-999	11	[0, 0, 0]	n/a	catFR1	0	R1180C
1202.604	1.6	604379	WORD	n/a	wordpools/wordpool_categorized_EN.txt	MAPLE	Trees	1	11	[0, 0, 0]	n/a	catFR1	0	R1180C
1205.038	1.6	605596	WORD	n/a	wordpools/wordpool_categorized_EN.txt	ELM	Trees	2	11	[0, 0, 0]	n/a	catFR1	0	R1180C
1207.504	1.6	606829	WORD	n/a	wordpools/wordpool_categorized_EN.txt	HALLWAY	Building	3	11	[0, 0, 0]	n/a	catFR1	0	R1180C
1210.105	1.6	608129	WORD	n/a	wordpools/wordpool_categorized_EN.txt	DOOR	Building	4	11	[0, 0, 0]	n/a	catFR1	0	R1180C
1212.472	1.6	609313	WORD	n/a	wordpools/wordpool_categorized_EN.txt	TONGS	KitchenTools	5	11	[0, 0, 0]	n/a	catFR1	0	R1180C
1215.089	1.6	610621	WORD	n/a	wordpools/wordpool_categorized_EN.txt	FORK	KitchenTools	6	11	[0, 0, 0]	n/a	catFR1	0	R1180C
1217.49	1.6	611822	WORD	n/a	wordpools/wordpool_categorized_EN.txt	ATTIC	Building	7	11	[0, 0, 0]	n/a	catFR1	0	R1180C
1219.891	1.6	613022	WORD	n/a	wordpools/wordpool_categorized_EN.txt	CEILING	Building	8	11	[0, 0, 0]	n/a	catFR1	0	R1180C
1222.29	1.6	614221	WORD	n/a	wordpools/wordpool_categorized_EN.txt	PINE	Trees	9	11	[0, 0, 0]	n/a	catFR1	0	R1180C
1224.792	1.6	615472	WORD	n/a	wordpools/wordpool_categorized_EN.txt	EVERGREEN	Trees	10	11	[0, 0, 0]	n/a	catFR1	0	R1180C
1227.225	1.6	616689	WORD	n/a	wordpools/wordpool_categorized_EN.txt	KNIFE	KitchenTools	11	11	[0, 0, 0]	n/a	catFR1	0	R1180C
1229.76	1.6	617956	WORD	n/a	wordpools/wordpool_categorized_EN.txt	SPATULA	KitchenTools	12	11	[0, 0, 0]	n/a	catFR1	0	R1180C
1231.376	0.001	618764	DISTRACT_START	n/a	n/a	n/a	n/a	-999	11	[0, 0, 0]	n/a	catFR1	0	R1180C
1231.377	0.015	618764	START	n/a	n/a	n/a	n/a	-999	11	[-999, -999, -999]	n/a	catFR1	0	R1180C
1231.392	6.668	618772	PROB	6.642	n/a	n/a	n/a	-999	11	[7, 5, 1]	13.0	catFR1	0	R1180C
1238.06	5.819	622106	PROB	5.789	n/a	n/a	n/a	-999	11	[1, 2, 4]	7.0	catFR1	0	R1180C
1243.879	6.818	625015	PROB	6.794	n/a	n/a	n/a	-999	11	[5, 8, 3]	16.0	catFR1	0	R1180C
1250.697	8.392	628424	PROB	8.392	n/a	n/a	n/a	-999	11	[9, 6, 4]	19.0	catFR1	0	R1180C
1259.089	0.009	632619	STOP	n/a	n/a	n/a	n/a	-999	11	[-999, -999, -999]	n/a	catFR1	0	R1180C
1259.098	1.201	632624	DISTRACT_END	n/a	n/a	n/a	n/a	-999	11	[0, 0, 0]	n/a	catFR1	0	R1180C
1260.299	2.488	633224	REC_START	n/a	n/a	n/a	n/a	-999	11	[0, 0, 0]	n/a	catFR1	0	R1180C
1262.787	1.027	634468	REC_WORD	2.488	n/a	ATTIC	Building	7	11	[0, 0, 0]	n/a	catFR1	0	R1180C
1263.814	1.215	634982	REC_WORD	3.515	n/a	MAPLE	Trees	1	11	[0, 0, 0]	n/a	catFR1	0	R1180C
1265.029	1.047	635589	REC_WORD	4.73	n/a	ELM	Trees	2	11	[0, 0, 0]	n/a	catFR1	0	R1180C
1266.076	10.363	636112	REC_WORD	5.777	n/a	HALLWAY	Building	3	11	[0, 0, 0]	n/a	catFR1	0	R1180C
1276.439	13.871	641294	REC_WORD	16.14	n/a	CEILING	Building	8	11	[0, 0, 0]	n/a	catFR1	0	R1180C
1290.31	3.044	648228	REC_END	n/a	n/a	n/a	n/a	-999	11	[0, 0, 0]	n/a	catFR1	0	R1180C
1293.354	10.0	649750	COUNTDOWN_START	n/a	n/a	n/a	n/a	-999	12	[0, 0, 0]	n/a	catFR1	0	R1180C
1293.354	10.428	649750	TRIAL	n/a	n/a	n/a	n/a	-999	12	[0, 0, 0]	n/a	catFR1	0	R1180C
1303.782	0.008	654964	COUNTDOWN_END	n/a	n/a	n/a	n/a	-999	12	[0, 0, 0]	n/a	catFR1	0	R1180C
1303.79	1.6	654968	ORIENT	n/a	n/a	n/a	n/a	-999	12	[0, 0, 0]	n/a	catFR1	0	R1180C
1307.223	1.6	656684	WORD	n/a	wordpools/wordpool_categorized_EN.txt	TRUCK	Vehicles	1	12	[0, 0, 0]	n/a	catFR1	0	R1180C
1309.59	1.6	657868	WORD	n/a	wordpools/wordpool_categorized_EN.txt	TRAIN	Vehicles	2	12	[0, 0, 0]	n/a	catFR1	0	R1180C
1312.124	1.6	659134	WORD	n/a	wordpools/wordpool_categorized_EN.txt	CIDER	Beverages	3	12	[0, 0, 0]	n/a	catFR1	0	R1180C
1314.591	1.6	660368	WORD	n/a	wordpools/wordpool_categorized_EN.txt	COFFEE	Beverages	4	12	[0, 0, 0]	n/a	catFR1	0	R1180C
1316.993	1.6	661569	WORD	n/a	wordpools/wordpool_categorized_EN.txt	PHONE	Electronics	5	12	[0, 0, 0]	n/a	catFR1	0	R1180C
1319.392	1.6	662768	WORD	n/a	wordpools/wordpool_categorized_EN.txt	MICROWAVE	Electronics	6	12	[0, 0, 0]	n/a	catFR1	0	R1180C
1322.01	1.6	664077	WORD	n/a	wordpools/wordpool_categorized_EN.txt	BEER	Beverages	7	12	[0, 0, 0]	n/a	catFR1	0	R1180C
1324.526	1.6	665335	WORD	n/a	wordpools/wordpool_categorized_EN.txt	SODA	Beverages	8	12	[0, 0, 0]	n/a	catFR1	0	R1180C
1326.995	1.6	666569	WORD	n/a	wordpools/wordpool_categorized_EN.txt	SCOOTER	Vehicles	9	12	[0, 0, 0]	n/a	catFR1	0	R1180C
1329.411	1.6	667777	WORD	n/a	wordpools/wordpool_categorized_EN.txt	BIKE	Vehicles	10	12	[0, 0, 0]	n/a	catFR1	0	R1180C
1331.829	1.6	668986	WORD	n/a	wordpools/wordpool_categorized_EN.txt	SCANNER	Electronics	11	12	[0, 0, 0]	n/a	catFR1	0	R1180C
1334.362	1.6	670252	WORD	n/a	wordpools/wordpool_categorized_EN.txt	TELEVISION	Electronics	12	12	[0, 0, 0]	n/a	catFR1	0	R1180C
1335.963	0.001	671053	DISTRACT_START	n/a	n/a	n/a	n/a	-999	12	[0, 0, 0]	n/a	catFR1	0	R1180C
1335.964	0.016	671053	START	n/a	n/a	n/a	n/a	-999	12	[-999, -999, -999]	n/a	catFR1	0	R1180C
1335.98	8.134	671061	PROB	8.1	n/a	n/a	n/a	-999	12	[9, 7, 6]	22.0	catFR1	0	R1180C
1344.114	3.417	675128	PROB	3.39	n/a	n/a	n/a	-999	12	[8, 4, 4]	16.0	catFR1	0	R1180C
1347.531	9.262	676836	PROB	9.262	n/a	n/a	n/a	-999	12	[8, 2, 9]	19.0	catFR1	0	R1180C
1356.793	0.007	681467	STOP	n/a	n/a	n/a	n/a	-999	12	[-999, -999, -999]	n/a	catFR1	0	R1180C
1356.8	1.218	681470	DISTRACT_END	n/a	n/a	n/a	n/a	-999	12	[0, 0, 0]	n/a	catFR1	0	R1180C
1358.018	1.049	682079	REC_START	n/a	n/a	n/a	n/a	-999	12	[0, 0, 0]	n/a	catFR1	0	R1180C
1359.067	1.0	682604	REC_WORD	1.049	n/a	SCOOTER	Vehicles	9	12	[0, 0, 0]	n/a	catFR1	0	R1180C
1360.067	1.342	683104	REC_WORD_VV	2.049	n/a	<>	n/a	-999	12	[0, 0, 0]	n/a	catFR1	0	R1180C
1361.409	1.159	683775	REC_WORD	3.391	n/a	BIKE	Vehicles	10	12	[0, 0, 0]	n/a	catFR1	0	R1180C
1362.568	2.433	684354	REC_WORD	4.55	n/a	TRUCK	Vehicles	1	12	[0, 0, 0]	n/a	catFR1	0	R1180C
1365.001	3.234	685571	REC_WORD	6.983	n/a	BEER	Beverages	7	12	[0, 0, 0]	n/a	catFR1	0	R1180C
1368.235	19.793	687187	REC_WORD	10.217	n/a	SODA	Beverages	8	12	[0, 0, 0]	n/a	catFR1	0	R1180C
1388.028	2.144	697083	REC_END	n/a	n/a	n/a	n/a	-999	12	[0, 0, 0]	n/a	catFR1	0	R1180C
1390.172	0.0	698155	TRIAL	n/a	n/a	n/a	n/a	-999	13	[0, 0, 0]	n/a	catFR1	0	R1180C
1390.172	10.0	698155	COUNTDOWN_START	n/a	n/a	n/a	n/a	-999	13	[0, 0, 0]	n/a	catFR1	0	R1180C
1400.6	0.007	703369	COUNTDOWN_END	n/a	n/a	n/a	n/a	-999	13	[0, 0, 0]	n/a	catFR1	0	R1180C
1400.607	1.6	703372	ORIENT	n/a	n/a	n/a	n/a	-999	13	[0, 0, 0]	n/a	catFR1	0	R1180C
1404.325	1.6	705231	WORD	n/a	wordpools/wordpool_categorized_EN.txt	STEREO	Electronics	1	13	[0, 0, 0]	n/a	catFR1	0	R1180C
1406.926	1.6	706531	WORD	n/a	wordpools/wordpool_categorized_EN.txt	HEADPHONES	Electronics	2	13	[0, 0, 0]	n/a	catFR1	0	R1180C
1409.542	1.6	707839	WORD	n/a	wordpools/wordpool_categorized_EN.txt	SAW	Tools	3	13	[0, 0, 0]	n/a	catFR1	0	R1180C
1412.16	1.6	709148	WORD	n/a	wordpools/wordpool_categorized_EN.txt	SCREWDRIVER	Tools	4	13	[0, 0, 0]	n/a	catFR1	0	R1180C
1414.794	1.6	710465	WORD	n/a	wordpools/wordpool_categorized_EN.txt	JEANS	Clothing	5	13	[0, 0, 0]	n/a	catFR1	0	R1180C
1417.344	1.6	711740	WORD	n/a	wordpools/wordpool_categorized_EN.txt	DRESS	Clothing	6	13	[0, 0, 0]	n/a	catFR1	0	R1180C
1419.829	1.6	712982	WORD	n/a	wordpools/wordpool_categorized_EN.txt	RATCHET	Tools	7	13	[0, 0, 0]	n/a	catFR1	0	R1180C
1422.395	1.6	714265	WORD	n/a	wordpools/wordpool_categorized_EN.txt	LEVEL	Tools	8	13	[0, 0, 0]	n/a	catFR1	0	R1180C
1424.946	1.6	715540	WORD	n/a	wordpools/wordpool_categorized_EN.txt	COMPUTER	Electronics	9	13	[0, 0, 0]	n/a	catFR1	0	R1180C
1427.395	1.6	716765	WORD	n/a	wordpools/wordpool_categorized_EN.txt	SPEAKER	Electronics	10	13	[0, 0, 0]	n/a	catFR1	0	R1180C
1429.897	1.6	718016	WORD	n/a	wordpools/wordpool_categorized_EN.txt	PANTS	Clothing	11	13	[0, 0, 0]	n/a	catFR1	0	R1180C
1432.363	1.6	719249	WORD	n/a	wordpools/wordpool_categorized_EN.txt	SOCKS	Clothing	12	13	[0, 0, 0]	n/a	catFR1	0	R1180C
1433.964	0.001	720049	DISTRACT_START	n/a	n/a	n/a	n/a	-999	13	[0, 0, 0]	n/a	catFR1	0	R1180C
1433.965	0.016	720050	START	n/a	n/a	n/a	n/a	-999	13	[-999, -999, -999]	n/a	catFR1	0	R1180C
1433.981	6.234	720058	PROB	6.203	n/a	n/a	n/a	-999	13	[3, 1, 8]	12.0	catFR1	0	R1180C
1440.215	10.385	723174	PROB	10.353	n/a	n/a	n/a	-999	13	[8, 3, 4]	15.0	catFR1	0	R1180C
1450.6	3.102	728366	PROB	3.074	n/a	n/a	n/a	-999	13	[1, 2, 2]	5.0	catFR1	0	R1180C
1453.702	6.283	729917	PROB	6.283	n/a	n/a	n/a	-999	13	[9, 6, 2]	17.0	catFR1	0	R1180C
1459.985	0.018	733058	STOP	n/a	n/a	n/a	n/a	-999	13	[-999, -999, -999]	n/a	catFR1	0	R1180C
1460.003	1.05	733067	DISTRACT_END	n/a	n/a	n/a	n/a	-999	13	[0, 0, 0]	n/a	catFR1	0	R1180C
1461.053	1.123	733592	REC_START	n/a	n/a	n/a	n/a	-999	13	[0, 0, 0]	n/a	catFR1	0	R1180C
1462.176	0.585	734154	REC_WORD	1.123	n/a	RATCHET	Tools	7	13	[0, 0, 0]	n/a	catFR1	0	R1180C
1462.761	2.869	734446	REC_WORD_VV	1.708	n/a	<>	n/a	-999	13	[0, 0, 0]	n/a	catFR1	0	R1180C
1465.63	1.0	735881	REC_WORD	4.577	n/a	SOCKS	Clothing	12	13	[0, 0, 0]	n/a	catFR1	0	R1180C
1466.63	10.174	736381	REC_WORD_VV	5.577	n/a	<>	n/a	-999	13	[0, 0, 0]	n/a	catFR1	0	R1180C
1476.804	5.899	741467	REC_WORD_VV	15.751	n/a	<>	n/a	-999	13	[0, 0, 0]	n/a	catFR1	0	R1180C
1482.703	4.476	744416	REC_WORD_VV	21.65	n/a	<>	n/a	-999	13	[0, 0, 0]	n/a	catFR1	0	R1180C
1487.179	3.888	746654	REC_WORD	26.126	n/a	SAW	Tools	3	13	[0, 0, 0]	n/a	catFR1	0	R1180C
1491.067	9.794	748598	REC_END	n/a	n/a	n/a	n/a	-999	13	[0, 0, 0]	n/a	catFR1	0	R1180C
1500.861	0.0	753495	TRIAL	n/a	n/a	n/a	n/a	-999	14	[0, 0, 0]	n/a	catFR1	0	R1180C
1500.861	10.0	753495	COUNTDOWN_START	n/a	n/a	n/a	n/a	-999	14	[0, 0, 0]	n/a	catFR1	0	R1180C
1511.289	0.006	758708	COUNTDOWN_END	n/a	n/a	n/a	n/a	-999	14	[0, 0, 0]	n/a	catFR1	0	R1180C
1511.295	1.6	758711	ORIENT	n/a	n/a	n/a	n/a	-999	14	[0, 0, 0]	n/a	catFR1	0	R1180C
1514.83	1.6	760479	WORD	n/a	wordpools/wordpool_categorized_EN.txt	ISLAND	Landscapes	1	14	[0, 0, 0]	n/a	catFR1	0	R1180C
1517.279	1.6	761703	WORD	n/a	wordpools/wordpool_categorized_EN.txt	MOUNTAIN	Landscapes	2	14	[0, 0, 0]	n/a	catFR1	0	R1180C
1519.731	1.6	762929	WORD	n/a	wordpools/wordpool_categorized_EN.txt	BLENDER	Appliances	3	14	[0, 0, 0]	n/a	catFR1	0	R1180C
1522.23	1.6	764178	WORD	n/a	wordpools/wordpool_categorized_EN.txt	OVEN	Appliances	4	14	[0, 0, 0]	n/a	catFR1	0	R1180C
1524.782	1.6	765454	WORD	n/a	wordpools/wordpool_categorized_EN.txt	DRIZZLE	Weather	5	14	[0, 0, 0]	n/a	catFR1	0	R1180C
1527.214	1.6	766670	WORD	n/a	wordpools/wordpool_categorized_EN.txt	SNOW	Weather	6	14	[0, 0, 0]	n/a	catFR1	0	R1180C
1529.699	1.6	767912	WORD	n/a	wordpools/wordpool_categorized_EN.txt	VALLEY	Landscapes	7	14	[0, 0, 0]	n/a	catFR1	0	R1180C
1532.232	1.6	769179	WORD	n/a	wordpools/wordpool_categorized_EN.txt	RIVER	Landscapes	8	14	[0, 0, 0]	n/a	catFR1	0	R1180C
1534.717	1.6	770421	WORD	n/a	wordpools/wordpool_categorized_EN.txt	RAIN	Weather	9	14	[0, 0, 0]	n/a	catFR1	0	R1180C
1537.133	1.6	771629	WORD	n/a	wordpools/wordpool_categorized_EN.txt	FOG	Weather	10	14	[0, 0, 0]	n/a	catFR1	0	R1180C
1539.651	1.6	772888	WORD	n/a	wordpools/wordpool_categorized_EN.txt	DRYER	Appliances	11	14	[0, 0, 0]	n/a	catFR1	0	R1180C
1542.101	1.6	774113	WORD	n/a	wordpools/wordpool_categorized_EN.txt	REFRIGERATOR	Appliances	12	14	[0, 0, 0]	n/a	catFR1	0	R1180C
1543.719	0.001	774922	DISTRACT_START	n/a	n/a	n/a	n/a	-999	14	[0, 0, 0]	n/a	catFR1	0	R1180C
1543.72	0.015	774922	START	n/a	n/a	n/a	n/a	-999	14	[-999, -999, -999]	n/a	catFR1	0	R1180C
1543.735	7.334	774930	PROB	7.306	n/a	n/a	n/a	-999	14	[7, 3, 9]	19.0	catFR1	0	R1180C
1551.069	9.869	778596	PROB	9.836	n/a	n/a	n/a	-999	14	[6, 7, 8]	21.0	catFR1	0	R1180C
1560.938	12.744	783530	PROB	12.744	n/a	n/a	n/a	-999	14	[5, 7, 6]	18.0	catFR1	0	R1180C
1573.682	0.009	789902	STOP	n/a	n/a	n/a	n/a	-999	14	[-999, -999, -999]	n/a	catFR1	0	R1180C
1573.691	1.117	789906	DISTRACT_END	n/a	n/a	n/a	n/a	-999	14	[0, 0, 0]	n/a	catFR1	0	R1180C
1574.808	6.585	790465	REC_START	n/a	n/a	n/a	n/a	-999	14	[0, 0, 0]	n/a	catFR1	0	R1180C
1581.393	3.517	793757	REC_WORD	6.585	n/a	SNOW	Weather	6	14	[0, 0, 0]	n/a	catFR1	0	R1180C
1584.91	14.357	795515	REC_WORD	10.102	n/a	RIVER	Landscapes	8	14	[0, 0, 0]	n/a	catFR1	0	R1180C
1599.267	5.556	802693	REC_WORD	24.459	n/a	RAIN	Weather	9	14	[0, 0, 0]	n/a	catFR1	0	R1180C
1604.823	5.058	805471	REC_END	n/a	n/a	n/a	n/a	-999	14	[0, 0, 0]	n/a	catFR1	0	R1180C
1609.881	0.0	808000	TRIAL	n/a	n/a	n/a	n/a	-999	15	[0, 0, 0]	n/a	catFR1	0	R1180C
1609.881	10.0	808000	COUNTDOWN_START	n/a	n/a	n/a	n/a	-999	15	[0, 0, 0]	n/a	catFR1	0	R1180C
1620.309	0.006	813213	COUNTDOWN_END	n/a	n/a	n/a	n/a	-999	15	[0, 0, 0]	n/a	catFR1	0	R1180C
1620.315	1.6	813216	ORIENT	n/a	n/a	n/a	n/a	-999	15	[0, 0, 0]	n/a	catFR1	0	R1180C
1624.133	1.6	815125	WORD	n/a	wordpools/wordpool_categorized_EN.txt	FOLDER	OfficeSupplies	1	15	[0, 0, 0]	n/a	catFR1	0	R1180C
1626.633	1.6	816375	WORD	n/a	wordpools/wordpool_categorized_EN.txt	PENCIL	OfficeSupplies	2	15	[0, 0, 0]	n/a	catFR1	0	R1180C
1629.084	1.6	817600	WORD	n/a	wordpools/wordpool_categorized_EN.txt	CYPRESS	Trees	3	15	[0, 0, 0]	n/a	catFR1	0	R1180C
1631.534	1.6	818825	WORD	n/a	wordpools/wordpool_categorized_EN.txt	CEDAR	Trees	4	15	[0, 0, 0]	n/a	catFR1	0	R1180C
1633.952	1.6	820034	WORD	n/a	wordpools/wordpool_categorized_EN.txt	BUTTERFLY	Insects	5	15	[0, 0, 0]	n/a	catFR1	0	R1180C
1636.552	1.6	821334	WORD	n/a	wordpools/wordpool_categorized_EN.txt	ROACH	Insects	6	15	[0, 0, 0]	n/a	catFR1	0	R1180C
1639.02	1.6	822568	WORD	n/a	wordpools/wordpool_categorized_EN.txt	WILLOW	Trees	7	15	[0, 0, 0]	n/a	catFR1	0	R1180C
1641.453	1.6	823784	WORD	n/a	wordpools/wordpool_categorized_EN.txt	WALNUT	Trees	8	15	[0, 0, 0]	n/a	catFR1	0	R1180C
1644.021	1.6	825068	WORD	n/a	wordpools/wordpool_categorized_EN.txt	PEN	OfficeSupplies	9	15	[0, 0, 0]	n/a	catFR1	0	R1180C
1646.437	1.6	826276	WORD	n/a	wordpools/wordpool_categorized_EN.txt	ERASER	OfficeSupplies	10	15	[0, 0, 0]	n/a	catFR1	0	R1180C
1648.972	1.6	827544	WORD	n/a	wordpools/wordpool_categorized_EN.txt	FLY	Insects	11	15	[0, 0, 0]	n/a	catFR1	0	R1180C
1651.405	1.6	828760	WORD	n/a	wordpools/wordpool_categorized_EN.txt	BEETLE	Insects	12	15	[0, 0, 0]	n/a	catFR1	0	R1180C
1653.006	0.001	829560	DISTRACT_START	n/a	n/a	n/a	n/a	-999	15	[0, 0, 0]	n/a	catFR1	0	R1180C
1653.007	0.015	829561	START	n/a	n/a	n/a	n/a	-999	15	[-999, -999, -999]	n/a	catFR1	0	R1180C
1653.022	5.35	829568	PROB	5.331	n/a	n/a	n/a	-999	15	[4, 2, 9]	14.0	catFR1	0	R1180C
1658.372	5.968	832243	PROB	5.932	n/a	n/a	n/a	-999	15	[5, 2, 9]	16.0	catFR1	0	R1180C
1664.34	5.935	835227	PROB	5.909	n/a	n/a	n/a	-999	15	[2, 2, 8]	12.0	catFR1	0	R1180C
1670.275	6.878	838194	PROB	6.878	n/a	n/a	n/a	-999	15	[7, 5, 1]	13.0	catFR1	0	R1180C
1677.153	0.006	841633	STOP	n/a	n/a	n/a	n/a	-999	15	[-999, -999, -999]	n/a	catFR1	0	R1180C
1677.159	1.201	841636	DISTRACT_END	n/a	n/a	n/a	n/a	-999	15	[0, 0, 0]	n/a	catFR1	0	R1180C
1678.36	3.249	842236	REC_START	n/a	n/a	n/a	n/a	-999	15	[0, 0, 0]	n/a	catFR1	0	R1180C
1681.609	6.602	843861	REC_WORD	3.249	n/a	BUTTERFLY	Insects	5	15	[0, 0, 0]	n/a	catFR1	0	R1180C
1688.211	20.161	847161	REC_WORD	9.851	n/a	BEETLE	Insects	12	15	[0, 0, 0]	n/a	catFR1	0	R1180C
1708.372	2.827	857241	REC_END	n/a	n/a	n/a	n/a	-999	15	[0, 0, 0]	n/a	catFR1	0	R1180C
1711.199	0.0	858654	TRIAL	n/a	n/a	n/a	n/a	-999	16	[0, 0, 0]	n/a	catFR1	0	R1180C
1711.199	10.0	858654	COUNTDOWN_START	n/a	n/a	n/a	n/a	-999	16	[0, 0, 0]	n/a	catFR1	0	R1180C
1721.627	0.007	863868	COUNTDOWN_END	n/a	n/a	n/a	n/a	-999	16	[0, 0, 0]	n/a	catFR1	0	R1180C
1721.634	1.6	863871	ORIENT	n/a	n/a	n/a	n/a	-999	16	[0, 0, 0]	n/a	catFR1	0	R1180C
1725.418	1.6	865763	WORD	n/a	wordpools/wordpool_categorized_EN.txt	PAPER	OfficeSupplies	1	16	[0, 0, 0]	n/a	catFR1	0	R1180C
1727.803	1.6	866956	WORD	n/a	wordpools/wordpool_categorized_EN.txt	BINDER	OfficeSupplies	2	16	[0, 0, 0]	n/a	catFR1	0	R1180C
1730.386	1.6	868247	WORD	n/a	wordpools/wordpool_categorized_EN.txt	POTATO	Vegetables	3	16	[0, 0, 0]	n/a	catFR1	0	R1180C
1732.937	1.6	869522	WORD	n/a	wordpools/wordpool_categorized_EN.txt	SPINACH	Vegetables	4	16	[0, 0, 0]	n/a	catFR1	0	R1180C
1735.37	1.6	870739	WORD	n/a	wordpools/wordpool_categorized_EN.txt	DUCK	Birds	5	16	[0, 0, 0]	n/a	catFR1	0	R1180C
1737.805	1.6	871956	WORD	n/a	wordpools/wordpool_categorized_EN.txt	SPARROW	Birds	6	16	[0, 0, 0]	n/a	catFR1	0	R1180C
1740.338	1.6	873223	WORD	n/a	wordpools/wordpool_categorized_EN.txt	TAPE	OfficeSupplies	7	16	[0, 0, 0]	n/a	catFR1	0	R1180C
1742.723	1.6	874415	WORD	n/a	wordpools/wordpool_categorized_EN.txt	RULER	OfficeSupplies	8	16	[0, 0, 0]	n/a	catFR1	0	R1180C
1745.189	1.6	875648	WORD	n/a	wordpools/wordpool_categorized_EN.txt	CROW	Birds	9	16	[0, 0, 0]	n/a	catFR1	0	R1180C
1747.74	1.6	876923	WORD	n/a	wordpools/wordpool_categorized_EN.txt	BLUEBIRD	Birds	10	16	[0, 0, 0]	n/a	catFR1	0	R1180C
1750.173	1.6	878140	WORD	n/a	wordpools/wordpool_categorized_EN.txt	BROCCOLI	Vegetables	11	16	[0, 0, 0]	n/a	catFR1	0	R1180C
1752.573	1.6	879340	WORD	n/a	wordpools/wordpool_categorized_EN.txt	PEAS	Vegetables	12	16	[0, 0, 0]	n/a	catFR1	0	R1180C
1754.19	0.001	880148	DISTRACT_START	n/a	n/a	n/a	n/a	-999	16	[0, 0, 0]	n/a	catFR1	0	R1180C
1754.191	0.016	880148	START	n/a	n/a	n/a	n/a	-999	16	[-999, -999, -999]	n/a	catFR1	0	R1180C
1754.207	4.968	880156	PROB	4.937	n/a	n/a	n/a	-999	16	[1, 4, 9]	14.0	catFR1	0	R1180C
1759.175	6.719	882640	PROB	6.683	n/a	n/a	n/a	-999	16	[3, 5, 3]	11.0	catFR1	0	R1180C
1765.894	6.633	885999	PROB	6.611	n/a	n/a	n/a	-999	16	[9, 4, 9]	22.0	catFR1	0	R1180C
1772.527	9.266	889316	PROB	9.266	n/a	n/a	n/a	-999	16	[3, 6, 9]	18.0	catFR1	0	R1180C
1781.793	0.004	893948	STOP	n/a	n/a	n/a	n/a	-999	16	[-999, -999, -999]	n/a	catFR1	0	R1180C
1781.797	1.184	893950	DISTRACT_END	n/a	n/a	n/a	n/a	-999	16	[0, 0, 0]	n/a	catFR1	0	R1180C
1782.981	2.623	894542	REC_START	n/a	n/a	n/a	n/a	-999	16	[0, 0, 0]	n/a	catFR1	0	R1180C
1785.604	1.534	895854	REC_WORD	2.623	n/a	PEAS	Vegetables	12	16	[0, 0, 0]	n/a	catFR1	0	R1180C
1787.138	4.597	896621	REC_WORD	4.157	n/a	BROCCOLI	Vegetables	11	16	[0, 0, 0]	n/a	catFR1	0	R1180C
1791.735	3.282	898919	REC_WORD	8.754	n/a	BLUEBIRD	Birds	10	16	[0, 0, 0]	n/a	catFR1	0	R1180C
1795.017	10.533	900560	REC_WORD	12.036	n/a	SPARROW	Birds	6	16	[0, 0, 0]	n/a	catFR1	0	R1180C
1805.55	5.986	905826	REC_WORD	22.569	n/a	PAPER	OfficeSupplies	1	16	[0, 0, 0]	n/a	catFR1	0	R1180C
1811.536	1.456	908818	REC_WORD	28.555	n/a	PENCIL	n/a	-999	16	[0, 0, 0]	n/a	catFR1	0	R1180C
1812.992	2.577	909546	REC_END	n/a	n/a	n/a	n/a	-999	16	[0, 0, 0]	n/a	catFR1	0	R1180C
1815.569	0.0	910835	TRIAL	n/a	n/a	n/a	n/a	-999	17	[0, 0, 0]	n/a	catFR1	0	R1180C
1815.569	10.0	910835	COUNTDOWN_START	n/a	n/a	n/a	n/a	-999	17	[0, 0, 0]	n/a	catFR1	0	R1180C
1825.997	0.008	916048	COUNTDOWN_END	n/a	n/a	n/a	n/a	-999	17	[0, 0, 0]	n/a	catFR1	0	R1180C
1826.005	1.6	916052	ORIENT	n/a	n/a	n/a	n/a	-999	17	[0, 0, 0]	n/a	catFR1	0	R1180C
1829.706	1.6	917903	WORD	n/a	wordpools/wordpool_categorized_EN.txt	SKIRT	Clothing	1	17	[0, 0, 0]	n/a	catFR1	0	R1180C
1832.338	1.6	919219	WORD	n/a	wordpools/wordpool_categorized_EN.txt	JACKET	Clothing	2	17	[0, 0, 0]	n/a	catFR1	0	R1180C
1834.79	1.6	920444	WORD	n/a	wordpools/wordpool_categorized_EN.txt	SOFA	Furniture	3	17	[0, 0, 0]	n/a	catFR1	0	R1180C
1837.339	1.6	921719	WORD	n/a	wordpools/wordpool_categorized_EN.txt	DRESSER	Furniture	4	17	[0, 0, 0]	n/a	catFR1	0	R1180C
1839.924	1.6	923011	WORD	n/a	wordpools/wordpool_categorized_EN.txt	WINDOW	Building	5	17	[0, 0, 0]	n/a	catFR1	0	R1180C
1842.44	1.6	924269	WORD	n/a	wordpools/wordpool_categorized_EN.txt	STAIRS	Building	6	17	[0, 0, 0]	n/a	catFR1	0	R1180C
1844.925	1.6	925511	WORD	n/a	wordpools/wordpool_categorized_EN.txt	COUCH	Furniture	7	17	[0, 0, 0]	n/a	catFR1	0	R1180C
1847.358	1.6	926728	WORD	n/a	wordpools/wordpool_categorized_EN.txt	TABLE	Furniture	8	17	[0, 0, 0]	n/a	catFR1	0	R1180C
1849.759	1.6	927928	WORD	n/a	wordpools/wordpool_categorized_EN.txt	SHIRT	Clothing	9	17	[0, 0, 0]	n/a	catFR1	0	R1180C
1852.159	1.6	929128	WORD	n/a	wordpools/wordpool_categorized_EN.txt	SHORTS	Clothing	10	17	[0, 0, 0]	n/a	catFR1	0	R1180C
1854.76	1.6	930429	WORD	n/a	wordpools/wordpool_categorized_EN.txt	BATHROOM	Building	11	17	[0, 0, 0]	n/a	catFR1	0	R1180C
1857.26	1.6	931678	WORD	n/a	wordpools/wordpool_categorized_EN.txt	ROOF	Building	12	17	[0, 0, 0]	n/a	catFR1	0	R1180C
1858.861	0.001	932479	DISTRACT_START	n/a	n/a	n/a	n/a	-999	17	[0, 0, 0]	n/a	catFR1	0	R1180C
1858.862	0.016	932479	START	n/a	n/a	n/a	n/a	-999	17	[-999, -999, -999]	n/a	catFR1	0	R1180C
1858.878	5.2	932487	PROB	5.179	n/a	n/a	n/a	-999	17	[4, 9, 9]	22.0	catFR1	0	R1180C
1864.078	9.703	935087	PROB	9.668	n/a	n/a	n/a	-999	17	[9, 8, 7]	24.0	catFR1	0	R1180C
1873.781	4.184	939938	PROB	4.157	n/a	n/a	n/a	-999	17	[9, 1, 7]	17.0	catFR1	0	R1180C
1877.965	11.212	942030	PROB	11.212	n/a	n/a	n/a	-999	17	[9, 6, 7]	22.0	catFR1	0	R1180C
1889.177	0.006	947636	STOP	n/a	n/a	n/a	n/a	-999	17	[-999, -999, -999]	n/a	catFR1	0	R1180C
1889.183	1.167	947639	DISTRACT_END	n/a	n/a	n/a	n/a	-999	17	[0, 0, 0]	n/a	catFR1	0	R1180C
1890.35	1.202	948222	REC_START	n/a	n/a	n/a	n/a	-999	17	[0, 0, 0]	n/a	catFR1	0	R1180C
1891.552	2.048	948823	REC_WORD	1.202	n/a	SKIRT	Clothing	1	17	[0, 0, 0]	n/a	catFR1	0	R1180C
1893.6	4.161	949847	REC_WORD	3.25	n/a	SHIRT	Clothing	9	17	[0, 0, 0]	n/a	catFR1	0	R1180C
1897.761	22.601	951927	REC_WORD	7.411	n/a	PANTS	n/a	-999	17	[0, 0, 0]	n/a	catFR1	0	R1180C
1920.362	3.378	963227	REC_END	n/a	n/a	n/a	n/a	-999	17	[0, 0, 0]	n/a	catFR1	0	R1180C
1923.74	0.0	964915	TRIAL	n/a	n/a	n/a	n/a	-999	18	[0, 0, 0]	n/a	catFR1	0	R1180C
1923.74	10.0	964915	COUNTDOWN_START	n/a	n/a	n/a	n/a	-999	18	[0, 0, 0]	n/a	catFR1	0	R1180C
1934.168	0.006	970129	COUNTDOWN_END	n/a	n/a	n/a	n/a	-999	18	[0, 0, 0]	n/a	catFR1	0	R1180C
1934.174	1.6	970132	ORIENT	n/a	n/a	n/a	n/a	-999	18	[0, 0, 0]	n/a	catFR1	0	R1180C
1937.826	1.6	971958	WORD	n/a	wordpools/wordpool_categorized_EN.txt	CARNATION	Flowers	1	18	[0, 0, 0]	n/a	catFR1	0	R1180C
1940.442	1.6	973266	WORD	n/a	wordpools/wordpool_categorized_EN.txt	DAISY	Flowers	2	18	[0, 0, 0]	n/a	catFR1	0	R1180C
1942.86	1.6	974475	WORD	n/a	wordpools/wordpool_categorized_EN.txt	CLOUD	Weather	3	18	[0, 0, 0]	n/a	catFR1	0	R1180C
1945.476	1.6	975783	WORD	n/a	wordpools/wordpool_categorized_EN.txt	WIND	Weather	4	18	[0, 0, 0]	n/a	catFR1	0	R1180C
1947.928	1.6	977008	WORD	n/a	wordpools/wordpool_categorized_EN.txt	CARDINAL	Birds	5	18	[0, 0, 0]	n/a	catFR1	0	R1180C
1950.327	1.6	978208	WORD	n/a	wordpools/wordpool_categorized_EN.txt	HAWK	Birds	6	18	[0, 0, 0]	n/a	catFR1	0	R1180C
1952.712	1.6	979400	WORD	n/a	wordpools/wordpool_categorized_EN.txt	THUNDERSTORM	Weather	7	18	[0, 0, 0]	n/a	catFR1	0	R1180C
1955.195	1.6	980642	WORD	n/a	wordpools/wordpool_categorized_EN.txt	TORNADO	Weather	8	18	[0, 0, 0]	n/a	catFR1	0	R1180C
1957.629	1.6	981858	WORD	n/a	wordpools/wordpool_categorized_EN.txt	VIOLET	Flowers	9	18	[0, 0, 0]	n/a	catFR1	0	R1180C
1960.062	1.6	983075	WORD	n/a	wordpools/wordpool_categorized_EN.txt	SUNFLOWER	Flowers	10	18	[0, 0, 0]	n/a	catFR1	0	R1180C
1962.496	1.6	984292	WORD	n/a	wordpools/wordpool_categorized_EN.txt	ROBIN	Birds	11	18	[0, 0, 0]	n/a	catFR1	0	R1180C
1964.998	1.6	985543	WORD	n/a	wordpools/wordpool_categorized_EN.txt	FINCH	Birds	12	18	[0, 0, 0]	n/a	catFR1	0	R1180C
1966.614	0.001	986351	DISTRACT_START	n/a	n/a	n/a	n/a	-999	18	[0, 0, 0]	n/a	catFR1	0	R1180C
1966.615	0.015	986351	START	n/a	n/a	n/a	n/a	-999	18	[-999, -999, -999]	n/a	catFR1	0	R1180C
1966.63	4.352	986359	PROB	4.316	n/a	n/a	n/a	-999	18	[9, 5, 5]	19.0	catFR1	0	R1180C
1970.982	4.2	988534	PROB	4.17	n/a	n/a	n/a	-999	18	[1, 2, 4]	7.0	catFR1	0	R1180C
1975.182	8.152	990634	PROB	8.123	n/a	n/a	n/a	-999	18	[9, 8, 5]	22.0	catFR1	0	R1180C
1983.334	5.955	994710	PROB	5.955	n/a	n/a	n/a	-999	18	[4, 8, 1]	13.0	catFR1	0	R1180C
1989.289	0.012	997687	STOP	n/a	n/a	n/a	n/a	-999	18	[-999, -999, -999]	n/a	catFR1	0	R1180C
1989.301	1.218	997693	DISTRACT_END	n/a	n/a	n/a	n/a	-999	18	[0, 0, 0]	n/a	catFR1	0	R1180C
1990.519	2.978	998302	REC_START	n/a	n/a	n/a	n/a	-999	18	[0, 0, 0]	n/a	catFR1	0	R1180C
1993.497	1.189	999791	REC_WORD	2.978	n/a	CARDINAL	Birds	5	18	[0, 0, 0]	n/a	catFR1	0	R1180C
1994.686	0.994	1000385	REC_WORD	4.167	n/a	FINCH	Birds	12	18	[0, 0, 0]	n/a	catFR1	0	R1180C
1995.68	1.862	1000882	REC_WORD	5.161	n/a	SUNFLOWER	Flowers	10	18	[0, 0, 0]	n/a	catFR1	0	R1180C
1997.542	1.344	1001813	REC_WORD	7.023	n/a	WIND	Weather	4	18	[0, 0, 0]	n/a	catFR1	0	R1180C
1998.886	8.355	1002485	REC_WORD	8.367	n/a	CLOUD	Weather	3	18	[0, 0, 0]	n/a	catFR1	0	R1180C
2007.241	13.289	1006662	REC_WORD	16.722	n/a	THUNDERSTORM	Weather	7	18	[0, 0, 0]	n/a	catFR1	0	R1180C
2020.53	5.978	1013306	REC_END	n/a	n/a	n/a	n/a	-999	18	[0, 0, 0]	n/a	catFR1	0	R1180C
2026.508	10.0	1016295	COUNTDOWN_START	n/a	n/a	n/a	n/a	-999	19	[0, 0, 0]	n/a	catFR1	0	R1180C
2026.509	10.427	1016295	TRIAL	n/a	n/a	n/a	n/a	-999	19	[0, 0, 0]	n/a	catFR1	0	R1180C
2036.936	0.009	1021509	COUNTDOWN_END	n/a	n/a	n/a	n/a	-999	19	[0, 0, 0]	n/a	catFR1	0	R1180C
2036.945	1.6	1021513	ORIENT	n/a	n/a	n/a	n/a	-999	19	[0, 0, 0]	n/a	catFR1	0	R1180C
2040.511	1.6	1023296	WORD	n/a	wordpools/wordpool_categorized_EN.txt	BASKETBALL	Toys	1	19	[0, 0, 0]	n/a	catFR1	0	R1180C
2042.912	1.6	1024496	WORD	n/a	wordpools/wordpool_categorized_EN.txt	SLINKY	Toys	2	19	[0, 0, 0]	n/a	catFR1	0	R1180C
2045.378	1.6	1025729	WORD	n/a	wordpools/wordpool_categorized_EN.txt	GLUE	OfficeSupplies	3	19	[0, 0, 0]	n/a	catFR1	0	R1180C
2047.963	1.6	1027022	WORD	n/a	wordpools/wordpool_categorized_EN.txt	MARKER	OfficeSupplies	4	19	[0, 0, 0]	n/a	catFR1	0	R1180C
2050.346	1.6	1028213	WORD	n/a	wordpools/wordpool_categorized_EN.txt	OCEAN	Landscapes	5	19	[0, 0, 0]	n/a	catFR1	0	R1180C
2052.797	1.6	1029438	WORD	n/a	wordpools/wordpool_categorized_EN.txt	WOODS	Landscapes	6	19	[0, 0, 0]	n/a	catFR1	0	R1180C
2055.28	1.6	1030680	WORD	n/a	wordpools/wordpool_categorized_EN.txt	DOLL	Toys	7	19	[0, 0, 0]	n/a	catFR1	0	R1180C
2057.665	1.6	1031872	WORD	n/a	wordpools/wordpool_categorized_EN.txt	MARBLES	Toys	8	19	[0, 0, 0]	n/a	catFR1	0	R1180C
2060.065	1.6	1033072	WORD	n/a	wordpools/wordpool_categorized_EN.txt	BEACH	Landscapes	9	19	[0, 0, 0]	n/a	catFR1	0	R1180C
2062.448	1.6	1034263	WORD	n/a	wordpools/wordpool_categorized_EN.txt	LAKE	Landscapes	10	19	[0, 0, 0]	n/a	catFR1	0	R1180C
2064.916	1.6	1035497	WORD	n/a	wordpools/wordpool_categorized_EN.txt	NOTEBOOK	OfficeSupplies	11	19	[0, 0, 0]	n/a	catFR1	0	R1180C
2067.433	1.6	1036756	WORD	n/a	wordpools/wordpool_categorized_EN.txt	STAPLER	OfficeSupplies	12	19	[0, 0, 0]	n/a	catFR1	0	R1180C
2069.051	0.001	1037565	DISTRACT_START	n/a	n/a	n/a	n/a	-999	19	[0, 0, 0]	n/a	catFR1	0	R1180C
2069.052	0.014	1037565	START	n/a	n/a	n/a	n/a	-999	19	[-999, -999, -999]	n/a	catFR1	0	R1180C
2069.066	5.986	1037572	PROB	5.951	n/a	n/a	n/a	-999	19	[9, 1, 6]	16.0	catFR1	0	R1180C
2075.052	4.55	1040565	PROB	4.524	n/a	n/a	n/a	-999	19	[6, 2, 6]	14.0	catFR1	0	R1180C
2079.602	5.352	1042840	PROB	5.328	n/a	n/a	n/a	-999	19	[2, 3, 6]	9.0	catFR1	0	R1180C
2084.954	7.575	1045515	PROB	7.575	n/a	n/a	n/a	-999	19	[5, 7, 8]	20.0	catFR1	0	R1180C
2092.529	0.008	1049303	STOP	n/a	n/a	n/a	n/a	-999	19	[-999, -999, -999]	n/a	catFR1	0	R1180C
2092.537	1.202	1049307	DISTRACT_END	n/a	n/a	n/a	n/a	-999	19	[0, 0, 0]	n/a	catFR1	0	R1180C
2093.739	1.655	1049908	REC_START	n/a	n/a	n/a	n/a	-999	19	[0, 0, 0]	n/a	catFR1	0	R1180C
2095.394	1.462	1050735	REC_WORD_VV	1.655	n/a	<>	n/a	-999	19	[0, 0, 0]	n/a	catFR1	0	R1180C
2096.856	3.579	1051466	REC_WORD	3.117	n/a	STAPLER	OfficeSupplies	12	19	[0, 0, 0]	n/a	catFR1	0	R1180C
2100.435	23.316	1053255	REC_WORD	6.696	n/a	PAPER	n/a	-999	19	[0, 0, 0]	n/a	catFR1	0	R1180C
2123.751	10.327	1064912	REC_END	n/a	n/a	n/a	n/a	-999	19	[0, 0, 0]	n/a	catFR1	0	R1180C
2134.078	10.0	1070075	COUNTDOWN_START	n/a	n/a	n/a	n/a	-999	20	[0, 0, 0]	n/a	catFR1	0	R1180C
2134.079	10.427	1070076	TRIAL	n/a	n/a	n/a	n/a	-999	20	[0, 0, 0]	n/a	catFR1	0	R1180C
2144.506	0.008	1075289	COUNTDOWN_END	n/a	n/a	n/a	n/a	-999	20	[0, 0, 0]	n/a	catFR1	0	R1180C
2144.514	1.6	1075293	ORIENT	n/a	n/a	n/a	n/a	-999	20	[0, 0, 0]	n/a	catFR1	0	R1180C
2148.314	1.6	1077193	WORD	n/a	wordpools/wordpool_categorized_EN.txt	BIRCH	Trees	1	20	[0, 0, 0]	n/a	catFR1	0	R1180C
2150.899	1.6	1078485	WORD	n/a	wordpools/wordpool_categorized_EN.txt	HICKORY	Trees	2	20	[0, 0, 0]	n/a	catFR1	0	R1180C
2153.448	1.6	1079759	WORD	n/a	wordpools/wordpool_categorized_EN.txt	PLANKTON	OceanAnimals	3	20	[0, 0, 0]	n/a	catFR1	0	R1180C
2155.85	1.6	1080960	WORD	n/a	wordpools/wordpool_categorized_EN.txt	DOLPHIN	OceanAnimals	4	20	[0, 0, 0]	n/a	catFR1	0	R1180C
2158.316	1.6	1082193	WORD	n/a	wordpools/wordpool_categorized_EN.txt	LEMON	Fruit	5	20	[0, 0, 0]	n/a	catFR1	0	R1180C
2160.684	1.6	1083377	WORD	n/a	wordpools/wordpool_categorized_EN.txt	PLUM	Fruit	6	20	[0, 0, 0]	n/a	catFR1	0	R1180C
2163.167	1.6	1084618	WORD	n/a	wordpools/wordpool_categorized_EN.txt	SPRUCE	Trees	7	20	[0, 0, 0]	n/a	catFR1	0	R1180C
2165.568	1.6	1085819	WORD	n/a	wordpools/wordpool_categorized_EN.txt	OAK	Trees	8	20	[0, 0, 0]	n/a	catFR1	0	R1180C
2168.019	1.6	1087044	WORD	n/a	wordpools/wordpool_categorized_EN.txt	STRAWBERRY	Fruit	9	20	[0, 0, 0]	n/a	catFR1	0	R1180C
2170.619	1.6	1088344	WORD	n/a	wordpools/wordpool_categorized_EN.txt	CHERRY	Fruit	10	20	[0, 0, 0]	n/a	catFR1	0	R1180C
2173.119	1.6	1089594	WORD	n/a	wordpools/wordpool_categorized_EN.txt	SQUID	OceanAnimals	11	20	[0, 0, 0]	n/a	catFR1	0	R1180C
2175.721	1.6	1090895	WORD	n/a	wordpools/wordpool_categorized_EN.txt	JELLYFISH	OceanAnimals	12	20	[0, 0, 0]	n/a	catFR1	0	R1180C
2177.336	0.002	1091702	DISTRACT_START	n/a	n/a	n/a	n/a	-999	20	[0, 0, 0]	n/a	catFR1	0	R1180C
2177.338	0.015	1091703	START	n/a	n/a	n/a	n/a	-999	20	[-999, -999, -999]	n/a	catFR1	0	R1180C
2177.353	7.268	1091711	PROB	7.239	n/a	n/a	n/a	-999	20	[7, 8, 4]	19.0	catFR1	0	R1180C
2184.621	5.186	1095344	PROB	5.165	n/a	n/a	n/a	-999	20	[3, 2, 6]	11.0	catFR1	0	R1180C
2189.807	4.05	1097937	PROB	4.019	n/a	n/a	n/a	-999	20	[5, 4, 3]	12.0	catFR1	0	R1180C
2193.857	11.145	1099962	PROB	11.145	n/a	n/a	n/a	-999	20	[5, 6, 7]	18.0	catFR1	0	R1180C
2205.002	0.007	1105534	STOP	n/a	n/a	n/a	n/a	-999	20	[-999, -999, -999]	n/a	catFR1	0	R1180C
2205.009	1.2	1105538	DISTRACT_END	n/a	n/a	n/a	n/a	-999	20	[0, 0, 0]	n/a	catFR1	0	R1180C
2206.209	2.709	1106138	REC_START	n/a	n/a	n/a	n/a	-999	20	[0, 0, 0]	n/a	catFR1	0	R1180C
2208.918	1.16	1107492	REC_WORD	2.709	n/a	PLANKTON	OceanAnimals	3	20	[0, 0, 0]	n/a	catFR1	0	R1180C
2210.078	1.381	1108072	REC_WORD	3.869	n/a	SQUID	OceanAnimals	11	20	[0, 0, 0]	n/a	catFR1	0	R1180C
2211.459	5.152	1108762	REC_WORD	5.25	n/a	OAK	Trees	8	20	[0, 0, 0]	n/a	catFR1	0	R1180C
2216.611	4.877	1111338	REC_WORD	10.402	n/a	HICKORY	Trees	2	20	[0, 0, 0]	n/a	catFR1	0	R1180C
2221.488	1.232	1113776	REC_WORD	15.279	n/a	PLUM	Fruit	6	20	[0, 0, 0]	n/a	catFR1	0	R1180C
2222.72	13.504	1114392	REC_WORD	16.511	n/a	LEMON	Fruit	5	20	[0, 0, 0]	n/a	catFR1	0	R1180C
2236.224	2.924	1121144	REC_END	n/a	n/a	n/a	n/a	-999	20	[0, 0, 0]	n/a	catFR1	0	R1180C
2239.148	0.0	1122606	TRIAL	n/a	n/a	n/a	n/a	-999	21	[0, 0, 0]	n/a	catFR1	0	R1180C
2239.148	10.0	1122606	COUNTDOWN_START	n/a	n/a	n/a	n/a	-999	21	[0, 0, 0]	n/a	catFR1	0	R1180C
2249.576	0.007	1127819	COUNTDOWN_END	n/a	n/a	n/a	n/a	-999	21	[0, 0, 0]	n/a	catFR1	0	R1180C
2249.583	1.6	1127823	ORIENT	n/a	n/a	n/a	n/a	-999	21	[0, 0, 0]	n/a	catFR1	0	R1180C
2253.284	1.6	1129673	WORD	n/a	wordpools/wordpool_categorized_EN.txt	ORANGUTAN	Zoo	1	21	[0, 0, 0]	n/a	catFR1	0	R1180C
2255.819	1.6	1130940	WORD	n/a	wordpools/wordpool_categorized_EN.txt	CHEETAH	Zoo	2	21	[0, 0, 0]	n/a	catFR1	0	R1180C
2258.285	1.6	1132173	WORD	n/a	wordpools/wordpool_categorized_EN.txt	ROOSTER	FarmAnimals	3	21	[0, 0, 0]	n/a	catFR1	0	R1180C
2260.737	1.6	1133399	WORD	n/a	wordpools/wordpool_categorized_EN.txt	BULL	FarmAnimals	4	21	[0, 0, 0]	n/a	catFR1	0	R1180C
2263.136	1.6	1134599	WORD	n/a	wordpools/wordpool_categorized_EN.txt	BEE	Insects	5	21	[0, 0, 0]	n/a	catFR1	0	R1180C
2265.57	1.6	1135815	WORD	n/a	wordpools/wordpool_categorized_EN.txt	GNAT	Insects	6	21	[0, 0, 0]	n/a	catFR1	0	R1180C
2268.07	1.6	1137065	WORD	n/a	wordpools/wordpool_categorized_EN.txt	ZEBRA	Zoo	7	21	[0, 0, 0]	n/a	catFR1	0	R1180C
2270.621	1.6	1138341	WORD	n/a	wordpools/wordpool_categorized_EN.txt	BEAR	Zoo	8	21	[0, 0, 0]	n/a	catFR1	0	R1180C
2273.055	1.6	1139558	WORD	n/a	wordpools/wordpool_categorized_EN.txt	MOSQUITO	Insects	9	21	[0, 0, 0]	n/a	catFR1	0	R1180C
2275.438	1.6	1140749	WORD	n/a	wordpools/wordpool_categorized_EN.txt	CRICKET	Insects	10	21	[0, 0, 0]	n/a	catFR1	0	R1180C
2277.84	1.6	1141950	WORD	n/a	wordpools/wordpool_categorized_EN.txt	COW	FarmAnimals	11	21	[0, 0, 0]	n/a	catFR1	0	R1180C
2280.439	1.6	1143249	WORD	n/a	wordpools/wordpool_categorized_EN.txt	CALF	FarmAnimals	12	21	[0, 0, 0]	n/a	catFR1	0	R1180C
2282.04	0.002	1144050	DISTRACT_START	n/a	n/a	n/a	n/a	-999	21	[0, 0, 0]	n/a	catFR1	0	R1180C
2282.042	0.014	1144051	START	n/a	n/a	n/a	n/a	-999	21	[-999, -999, -999]	n/a	catFR1	0	R1180C
2282.056	6.652	1144058	PROB	6.618	n/a	n/a	n/a	-999	21	[9, 6, 3]	18.0	catFR1	0	R1180C
2288.708	7.801	1147383	PROB	7.781	n/a	n/a	n/a	-999	21	[8, 4, 6]	18.0	catFR1	0	R1180C
2296.509	5.532	1151284	PROB	5.532	n/a	n/a	n/a	-999	21	[1, 2, 5]	8.0	catFR1	0	R1180C
2302.041	0.019	1154049	STOP	n/a	n/a	n/a	n/a	-999	21	[-999, -999, -999]	n/a	catFR1	0	R1180C
2302.06	1.117	1154059	DISTRACT_END	n/a	n/a	n/a	n/a	-999	21	[0, 0, 0]	n/a	catFR1	0	R1180C
2303.177	1.87	1154617	REC_START	n/a	n/a	n/a	n/a	-999	21	[0, 0, 0]	n/a	catFR1	0	R1180C
2305.047	2.529	1155552	REC_WORD	1.87	n/a	ORANGUTAN	Zoo	1	21	[0, 0, 0]	n/a	catFR1	0	R1180C
2307.576	12.365	1156817	REC_WORD	4.399	n/a	GNAT	Insects	6	21	[0, 0, 0]	n/a	catFR1	0	R1180C
2319.941	6.307	1162999	REC_WORD	16.764	n/a	BEE	Insects	5	21	[0, 0, 0]	n/a	catFR1	0	R1180C
2326.248	6.941	1166152	REC_WORD	23.071	n/a	ZEBRA	Zoo	7	21	[0, 0, 0]	n/a	catFR1	0	R1180C
2333.189	4.495	1169622	REC_END	n/a	n/a	n/a	n/a	-999	21	[0, 0, 0]	n/a	catFR1	0	R1180C
2337.684	0.0	1171869	TRIAL	n/a	n/a	n/a	n/a	-999	22	[0, 0, 0]	n/a	catFR1	0	R1180C
2337.684	10.0	1171869	COUNTDOWN_START	n/a	n/a	n/a	n/a	-999	22	[0, 0, 0]	n/a	catFR1	0	R1180C
2348.112	0.007	1177083	COUNTDOWN_END	n/a	n/a	n/a	n/a	-999	22	[0, 0, 0]	n/a	catFR1	0	R1180C
2348.119	1.6	1177086	ORIENT	n/a	n/a	n/a	n/a	-999	22	[0, 0, 0]	n/a	catFR1	0	R1180C
2352.069	1.6	1179061	WORD	n/a	wordpools/wordpool_categorized_EN.txt	BROWNIES	Desserts	1	22	[0, 0, 0]	n/a	catFR1	0	R1180C
2354.52	1.6	1180287	WORD	n/a	wordpools/wordpool_categorized_EN.txt	JELLO	Desserts	2	22	[0, 0, 0]	n/a	catFR1	0	R1180C
2357.021	1.6	1181537	WORD	n/a	wordpools/wordpool_categorized_EN.txt	SEAGULL	Birds	3	22	[0, 0, 0]	n/a	catFR1	0	R1180C
2359.537	1.6	1182795	WORD	n/a	wordpools/wordpool_categorized_EN.txt	GOOSE	Birds	4	22	[0, 0, 0]	n/a	catFR1	0	R1180C
2361.956	1.6	1184004	WORD	n/a	wordpools/wordpool_categorized_EN.txt	SHOVEL	Tools	5	22	[0, 0, 0]	n/a	catFR1	0	R1180C
2364.472	1.6	1185262	WORD	n/a	wordpools/wordpool_categorized_EN.txt	HAMMER	Tools	6	22	[0, 0, 0]	n/a	catFR1	0	R1180C
2367.072	1.6	1186562	WORD	n/a	wordpools/wordpool_categorized_EN.txt	MOUSSE	Desserts	7	22	[0, 0, 0]	n/a	catFR1	0	R1180C
2369.506	1.6	1187779	WORD	n/a	wordpools/wordpool_categorized_EN.txt	FUDGE	Desserts	8	22	[0, 0, 0]	n/a	catFR1	0	R1180C
2372.09	1.6	1189071	WORD	n/a	wordpools/wordpool_categorized_EN.txt	PLIERS	Tools	9	22	[0, 0, 0]	n/a	catFR1	0	R1180C
2374.64	1.6	1190346	WORD	n/a	wordpools/wordpool_categorized_EN.txt	WRENCH	Tools	10	22	[0, 0, 0]	n/a	catFR1	0	R1180C
2377.141	1.6	1191596	WORD	n/a	wordpools/wordpool_categorized_EN.txt	PIGEON	Birds	11	22	[0, 0, 0]	n/a	catFR1	0	R1180C
2379.659	1.6	1192855	WORD	n/a	wordpools/wordpool_categorized_EN.txt	DOVE	Birds	12	22	[0, 0, 0]	n/a	catFR1	0	R1180C
2381.275	0.001	1193663	DISTRACT_START	n/a	n/a	n/a	n/a	-999	22	[0, 0, 0]	n/a	catFR1	0	R1180C
2381.276	0.015	1193663	START	n/a	n/a	n/a	n/a	-999	22	[-999, -999, -999]	n/a	catFR1	0	R1180C
2381.291	9.553	1193671	PROB	9.519	n/a	n/a	n/a	-999	22	[9, 3, 3]	15.0	catFR1	0	R1180C
2390.844	5.384	1198447	PROB	5.348	n/a	n/a	n/a	-999	22	[5, 2, 9]	16.0	catFR1	0	R1180C
2396.228	7.397	1201139	PROB	7.397	n/a	n/a	n/a	-999	22	[8, 5, 1]	14.0	catFR1	0	R1180C
2403.625	0.004	1204837	STOP	n/a	n/a	n/a	n/a	-999	22	[-999, -999, -999]	n/a	catFR1	0	R1180C
2403.629	1.202	1204839	DISTRACT_END	n/a	n/a	n/a	n/a	-999	22	[0, 0, 0]	n/a	catFR1	0	R1180C
2404.831	3.411	1205440	REC_START	n/a	n/a	n/a	n/a	-999	22	[0, 0, 0]	n/a	catFR1	0	R1180C
2408.242	1.363	1207145	REC_WORD	3.411	n/a	JELLO	Desserts	2	22	[0, 0, 0]	n/a	catFR1	0	R1180C
2409.605	2.781	1207827	REC_WORD	4.774	n/a	BROWNIES	Desserts	1	22	[0, 0, 0]	n/a	catFR1	0	R1180C
2412.386	2.068	1209217	REC_WORD	7.555	n/a	MOUSSE	Desserts	7	22	[0, 0, 0]	n/a	catFR1	0	R1180C
2414.454	20.403	1210251	REC_WORD	9.623	n/a	GOOSE	Birds	4	22	[0, 0, 0]	n/a	catFR1	0	R1180C
2434.857	17.414	1220451	REC_END	n/a	n/a	n/a	n/a	-999	22	[0, 0, 0]	n/a	catFR1	0	R1180C
2452.271	10.0	1229158	COUNTDOWN_START	n/a	n/a	n/a	n/a	-999	23	[0, 0, 0]	n/a	catFR1	0	R1180C
2452.272	10.427	1229158	TRIAL	n/a	n/a	n/a	n/a	-999	23	[0, 0, 0]	n/a	catFR1	0	R1180C
2462.699	0.009	1234371	COUNTDOWN_END	n/a	n/a	n/a	n/a	-999	23	[0, 0, 0]	n/a	catFR1	0	R1180C
2462.708	1.6	1234376	ORIENT	n/a	n/a	n/a	n/a	-999	23	[0, 0, 0]	n/a	catFR1	0	R1180C
2466.541	1.6	1236292	WORD	n/a	wordpools/wordpool_categorized_EN.txt	PIG	FarmAnimals	1	23	[0, 0, 0]	n/a	catFR1	0	R1180C
2469.026	1.6	1237534	WORD	n/a	wordpools/wordpool_categorized_EN.txt	HORSE	FarmAnimals	2	23	[0, 0, 0]	n/a	catFR1	0	R1180C
2471.442	1.6	1238742	WORD	n/a	wordpools/wordpool_categorized_EN.txt	VAN	Vehicles	3	23	[0, 0, 0]	n/a	catFR1	0	R1180C
2473.843	1.6	1239943	WORD	n/a	wordpools/wordpool_categorized_EN.txt	JEEP	Vehicles	4	23	[0, 0, 0]	n/a	catFR1	0	R1180C
2476.476	1.6	1241259	WORD	n/a	wordpools/wordpool_categorized_EN.txt	STOVE	Appliances	5	23	[0, 0, 0]	n/a	catFR1	0	R1180C
2478.961	1.6	1242502	WORD	n/a	wordpools/wordpool_categorized_EN.txt	MIXER	Appliances	6	23	[0, 0, 0]	n/a	catFR1	0	R1180C
2481.544	1.6	1243793	WORD	n/a	wordpools/wordpool_categorized_EN.txt	MOTORCYCLE	Vehicles	7	23	[0, 0, 0]	n/a	catFR1	0	R1180C
2484.028	1.6	1245035	WORD	n/a	wordpools/wordpool_categorized_EN.txt	MOPED	Vehicles	8	23	[0, 0, 0]	n/a	catFR1	0	R1180C
2486.528	1.6	1246285	WORD	n/a	wordpools/wordpool_categorized_EN.txt	LAMB	FarmAnimals	9	23	[0, 0, 0]	n/a	catFR1	0	R1180C
2489.095	1.6	1247568	WORD	n/a	wordpools/wordpool_categorized_EN.txt	GOAT	FarmAnimals	10	23	[0, 0, 0]	n/a	catFR1	0	R1180C
2491.545	1.6	1248793	WORD	n/a	wordpools/wordpool_categorized_EN.txt	TOASTER	Appliances	11	23	[0, 0, 0]	n/a	catFR1	0	R1180C
2494.146	1.6	1250093	WORD	n/a	wordpools/wordpool_categorized_EN.txt	WASHER	Appliances	12	23	[0, 0, 0]	n/a	catFR1	0	R1180C
2495.747	0.001	1250894	DISTRACT_START	n/a	n/a	n/a	n/a	-999	23	[0, 0, 0]	n/a	catFR1	0	R1180C
2495.748	0.016	1250894	START	n/a	n/a	n/a	n/a	-999	23	[-999, -999, -999]	n/a	catFR1	0	R1180C
2495.764	5.467	1250902	PROB	5.444	n/a	n/a	n/a	-999	23	[3, 6, 4]	13.0	catFR1	0	R1180C
2501.231	9.201	1253636	PROB	9.177	n/a	n/a	n/a	-999	23	[4, 3, 3]	10.0	catFR1	0	R1180C
2510.432	4.818	1258236	PROB	4.776	n/a	n/a	n/a	-999	23	[2, 4, 2]	8.0	catFR1	0	R1180C
2515.25	5.839	1260644	PROB	5.839	n/a	n/a	n/a	-999	23	[4, 6, 1]	11.0	catFR1	0	R1180C
2521.089	0.012	1263564	STOP	n/a	n/a	n/a	n/a	-999	23	[-999, -999, -999]	n/a	catFR1	0	R1180C
2521.101	1.201	1263570	DISTRACT_END	n/a	n/a	n/a	n/a	-999	23	[0, 0, 0]	n/a	catFR1	0	R1180C
2522.302	1.76	1264170	REC_START	n/a	n/a	n/a	n/a	-999	23	[0, 0, 0]	n/a	catFR1	0	R1180C
2524.062	1.657	1265050	REC_WORD	1.76	n/a	MOPED	Vehicles	8	23	[0, 0, 0]	n/a	catFR1	0	R1180C
2525.719	26.593	1265878	REC_WORD	3.417	n/a	JEEP	Vehicles	4	23	[0, 0, 0]	n/a	catFR1	0	R1180C
2552.312	29.751	1279174	REC_END	n/a	n/a	n/a	n/a	-999	23	[0, 0, 0]	n/a	catFR1	0	R1180C
2582.063	0.0	1294048	TRIAL	n/a	n/a	n/a	n/a	-999	24	[0, 0, 0]	n/a	catFR1	0	R1180C
2582.063	10.0	1294048	COUNTDOWN_START	n/a	n/a	n/a	n/a	-999	24	[0, 0, 0]	n/a	catFR1	0	R1180C
2592.491	0.007	1299262	COUNTDOWN_END	n/a	n/a	n/a	n/a	-999	24	[0, 0, 0]	n/a	catFR1	0	R1180C
2592.498	1.6	1299265	ORIENT	n/a	n/a	n/a	n/a	-999	24	[0, 0, 0]	n/a	catFR1	0	R1180C
2596.232	1.6	1301132	WORD	n/a	wordpools/wordpool_categorized_EN.txt	PLANE	Vehicles	1	24	[0, 0, 0]	n/a	catFR1	0	R1180C
2598.733	1.6	1302382	WORD	n/a	wordpools/wordpool_categorized_EN.txt	BOAT	Vehicles	2	24	[0, 0, 0]	n/a	catFR1	0	R1180C
2601.166	1.6	1303599	WORD	n/a	wordpools/wordpool_categorized_EN.txt	BLOUSE	Clothing	3	24	[0, 0, 0]	n/a	catFR1	0	R1180C
2603.566	1.6	1304799	WORD	n/a	wordpools/wordpool_categorized_EN.txt	COAT	Clothing	4	24	[0, 0, 0]	n/a	catFR1	0	R1180C
2606.001	1.6	1306016	WORD	n/a	wordpools/wordpool_categorized_EN.txt	FRISBEE	Toys	5	24	[0, 0, 0]	n/a	catFR1	0	R1180C
2608.484	1.6	1307257	WORD	n/a	wordpools/wordpool_categorized_EN.txt	BASEBALL	Toys	6	24	[0, 0, 0]	n/a	catFR1	0	R1180C
2610.886	1.6	1308458	WORD	n/a	wordpools/wordpool_categorized_EN.txt	CAR	Vehicles	7	24	[0, 0, 0]	n/a	catFR1	0	R1180C
2613.268	1.6	1309649	WORD	n/a	wordpools/wordpool_categorized_EN.txt	BUS	Vehicles	8	24	[0, 0, 0]	n/a	catFR1	0	R1180C
2615.72	1.6	1310875	WORD	n/a	wordpools/wordpool_categorized_EN.txt	FOOTBALL	Toys	9	24	[0, 0, 0]	n/a	catFR1	0	R1180C
2618.186	1.6	1312108	WORD	n/a	wordpools/wordpool_categorized_EN.txt	BALL	Toys	10	24	[0, 0, 0]	n/a	catFR1	0	R1180C
2620.671	1.6	1313350	WORD	n/a	wordpools/wordpool_categorized_EN.txt	SHOES	Clothing	11	24	[0, 0, 0]	n/a	catFR1	0	R1180C
2623.237	1.6	1314633	WORD	n/a	wordpools/wordpool_categorized_EN.txt	UNDERWEAR	Clothing	12	24	[0, 0, 0]	n/a	catFR1	0	R1180C
2624.838	0.001	1315434	DISTRACT_START	n/a	n/a	n/a	n/a	-999	24	[0, 0, 0]	n/a	catFR1	0	R1180C
2624.839	0.016	1315434	START	n/a	n/a	n/a	n/a	-999	24	[-999, -999, -999]	n/a	catFR1	0	R1180C
2624.855	7.767	1315442	PROB	7.746	n/a	n/a	n/a	-999	24	[6, 7, 3]	16.0	catFR1	0	R1180C
2632.622	6.651	1319325	PROB	6.626	n/a	n/a	n/a	-999	24	[5, 8, 9]	22.0	catFR1	0	R1180C
2639.273	9.401	1322650	PROB	9.401	n/a	n/a	n/a	-999	24	[3, 6, 4]	13.0	catFR1	0	R1180C
2648.674	0.019	1327351	STOP	n/a	n/a	n/a	n/a	-999	24	[-999, -999, -999]	n/a	catFR1	0	R1180C
2648.693	1.217	1327360	DISTRACT_END	n/a	n/a	n/a	n/a	-999	24	[0, 0, 0]	n/a	catFR1	0	R1180C
2649.91	2.086	1327968	REC_START	n/a	n/a	n/a	n/a	-999	24	[0, 0, 0]	n/a	catFR1	0	R1180C
2651.996	1.703	1329011	REC_WORD	2.086	n/a	PLANE	Vehicles	1	24	[0, 0, 0]	n/a	catFR1	0	R1180C
2653.699	1.527	1329863	REC_WORD	3.789	n/a	BOAT	Vehicles	2	24	[0, 0, 0]	n/a	catFR1	0	R1180C
2655.226	4.282	1330626	REC_WORD	5.316	n/a	BLOUSE	Clothing	3	24	[0, 0, 0]	n/a	catFR1	0	R1180C
2659.508	4.911	1332767	REC_WORD	9.598	n/a	CAR	Vehicles	7	24	[0, 0, 0]	n/a	catFR1	0	R1180C
2664.419	15.505	1335222	REC_WORD	14.509	n/a	COAT	Clothing	4	24	[0, 0, 0]	n/a	catFR1	0	R1180C
2679.924	13.96	1342974	REC_END	n/a	n/a	n/a	n/a	-999	24	[0, 0, 0]	n/a	catFR1	0	R1180C
2693.884	10.0	1349954	COUNTDOWN_START	n/a	n/a	n/a	n/a	-999	25	[0, 0, 0]	n/a	catFR1	0	R1180C
2693.885	10.427	1349954	TRIAL	n/a	n/a	n/a	n/a	-999	25	[0, 0, 0]	n/a	catFR1	0	R1180C
2704.312	0.007	1355167	COUNTDOWN_END	n/a	n/a	n/a	n/a	-999	25	[0, 0, 0]	n/a	catFR1	0	R1180C
2704.319	1.6	1355171	ORIENT	n/a	n/a	n/a	n/a	-999	25	[0, 0, 0]	n/a	catFR1	0	R1180C
2708.12	1.6	1357071	WORD	n/a	wordpools/wordpool_categorized_EN.txt	CAULIFLOWER	Vegetables	1	25	[0, 0, 0]	n/a	catFR1	0	R1180C
2710.503	1.6	1358262	WORD	n/a	wordpools/wordpool_categorized_EN.txt	CABBAGE	Vegetables	2	25	[0, 0, 0]	n/a	catFR1	0	R1180C
2712.921	1.6	1359471	WORD	n/a	wordpools/wordpool_categorized_EN.txt	PEELER	KitchenTools	3	25	[0, 0, 0]	n/a	catFR1	0	R1180C
2715.354	1.6	1360688	WORD	n/a	wordpools/wordpool_categorized_EN.txt	LADLE	KitchenTools	4	25	[0, 0, 0]	n/a	catFR1	0	R1180C
2717.822	1.6	1361922	WORD	n/a	wordpools/wordpool_categorized_EN.txt	FINGERS	BodyParts	5	25	[0, 0, 0]	n/a	catFR1	0	R1180C
2720.372	1.6	1363196	WORD	n/a	wordpools/wordpool_categorized_EN.txt	FOOT	BodyParts	6	25	[0, 0, 0]	n/a	catFR1	0	R1180C
2722.757	1.6	1364389	WORD	n/a	wordpools/wordpool_categorized_EN.txt	CELERY	Vegetables	7	25	[0, 0, 0]	n/a	catFR1	0	R1180C
2725.239	1.6	1365630	WORD	n/a	wordpools/wordpool_categorized_EN.txt	ONION	Vegetables	8	25	[0, 0, 0]	n/a	catFR1	0	R1180C
2727.64	1.6	1366830	WORD	n/a	wordpools/wordpool_categorized_EN.txt	ARM	BodyParts	9	25	[0, 0, 0]	n/a	catFR1	0	R1180C
2730.19	1.6	1368105	WORD	n/a	wordpools/wordpool_categorized_EN.txt	TOE	BodyParts	10	25	[0, 0, 0]	n/a	catFR1	0	R1180C
2732.608	1.6	1369314	WORD	n/a	wordpools/wordpool_categorized_EN.txt	COLANDER	KitchenTools	11	25	[0, 0, 0]	n/a	catFR1	0	R1180C
2735.091	1.6	1370555	WORD	n/a	wordpools/wordpool_categorized_EN.txt	CORKSCREW	KitchenTools	12	25	[0, 0, 0]	n/a	catFR1	0	R1180C
2736.692	0.002	1371356	DISTRACT_START	n/a	n/a	n/a	n/a	-999	25	[0, 0, 0]	n/a	catFR1	0	R1180C
2736.694	0.015	1371357	START	n/a	n/a	n/a	n/a	-999	25	[-999, -999, -999]	n/a	catFR1	0	R1180C
2736.709	7.985	1371364	PROB	7.957	n/a	n/a	n/a	-999	25	[1, 4, 7]	12.0	catFR1	0	R1180C
2744.694	3.184	1375356	PROB	3.156	n/a	n/a	n/a	-999	25	[1, 6, 1]	8.0	catFR1	0	R1180C
2747.878	5.283	1376948	PROB	5.258	n/a	n/a	n/a	-999	25	[8, 5, 8]	21.0	catFR1	0	R1180C
2753.161	3.068	1379589	PROB	3.047	n/a	n/a	n/a	-999	25	[5, 5, 5]	15.0	catFR1	0	R1180C
2756.229	6.996	1381123	PROB	6.996	n/a	n/a	n/a	-999	25	[2, 4, 8]	14.0	catFR1	0	R1180C
2763.225	0.005	1384621	STOP	n/a	n/a	n/a	n/a	-999	25	[-999, -999, -999]	n/a	catFR1	0	R1180C
2763.23	1.117	1384624	DISTRACT_END	n/a	n/a	n/a	n/a	-999	25	[0, 0, 0]	n/a	catFR1	0	R1180C
2764.347	3.424	1385182	REC_START	n/a	n/a	n/a	n/a	-999	25	[0, 0, 0]	n/a	catFR1	0	R1180C
2767.771	1.528	1386894	REC_WORD	3.424	n/a	PEELER	KitchenTools	3	25	[0, 0, 0]	n/a	catFR1	0	R1180C
2769.299	1.618	1387658	REC_WORD	4.952	n/a	CAULIFLOWER	Vegetables	1	25	[0, 0, 0]	n/a	catFR1	0	R1180C
2770.917	23.445	1388467	REC_WORD	6.57	n/a	CABBAGE	Vegetables	2	25	[0, 0, 0]	n/a	catFR1	0	R1180C
2794.362	12.544	1400188	REC_END	n/a	n/a	n/a	n/a	-999	25	[0, 0, 0]	n/a	catFR1	0	R1180C
2806.906	0.0	1406460	SESS_END	n/a	n/a	n/a	n/a	-999	25	[0, 0, 0]	n/a	catFR1	0	R1180C
