onset	duration	sample	trial_type	response_time	stim_file	item_name	category	serialpos	list	test	answer	experiment	session	subject
0.0	164.796	67141	INSTRUCT_START	n/a	n/a	n/a	n/a	-999	-999	[0, 0, 0]	n/a	catFR1	0	R1515T
164.796	309.834	231931	INSTRUCT_END	n/a	n/a	n/a	n/a	-999	-999	[0, 0, 0]	n/a	catFR1	0	R1515T
474.63	10.351	541749	COUNTDOWN_START	n/a	n/a	n/a	n/a	-999	-999	[0, 0, 0]	n/a	catFR1	0	R1515T
484.981	0.0	552101	COUNTDOWN_END	n/a	n/a	n/a	n/a	-999	-999	[0, 0, 0]	n/a	catFR1	0	R1515T
484.981	2.033	552101	ENCODING_START	n/a	n/a	n/a	n/a	-999	-1	[0, 0, 0]	n/a	catFR1	0	R1515T
487.014	1.6	554134	WORD	n/a	n/a	CEILING	Building	1	-1	[0, 0, 0]	n/a	catFR1	0	R1515T
488.614	0.867	555725	WORD_OFF	n/a	n/a	CEILING	Building	1	-1	[0, 0, 0]	n/a	catFR1	0	R1515T
489.481	1.599	556600	WORD	n/a	n/a	FOUNDATION	Building	2	-1	[0, 0, 0]	n/a	catFR1	0	R1515T
491.08	0.834	558200	WORD_OFF	n/a	n/a	FOUNDATION	Building	2	-1	[0, 0, 0]	n/a	catFR1	0	R1515T
491.914	1.617	559026	WORD	n/a	n/a	BEAR	Zoo	3	-1	[0, 0, 0]	n/a	catFR1	0	R1515T
493.531	0.8	560646	WORD_OFF	n/a	n/a	BEAR	Zoo	3	-1	[0, 0, 0]	n/a	catFR1	0	R1515T
494.331	1.6	561452	WORD	n/a	n/a	CHEETAH	Zoo	4	-1	[0, 0, 0]	n/a	catFR1	0	R1515T
495.931	0.915	563043	WORD_OFF	n/a	n/a	CHEETAH	Zoo	4	-1	[0, 0, 0]	n/a	catFR1	0	R1515T
496.846	1.601	563966	WORD	n/a	n/a	ROOSTER	FarmAnimals	5	-1	[0, 0, 0]	n/a	catFR1	0	R1515T
498.447	0.917	565567	WORD_OFF	n/a	n/a	ROOSTER	FarmAnimals	5	-1	[0, 0, 0]	n/a	catFR1	0	R1515T
499.364	1.616	566480	WORD	n/a	n/a	BULL	FarmAnimals	6	-1	[0, 0, 0]	n/a	catFR1	0	R1515T
500.98	0.951	568101	WORD_OFF	n/a	n/a	BULL	FarmAnimals	6	-1	[0, 0, 0]	n/a	catFR1	0	R1515T
501.931	1.616	569044	WORD	n/a	n/a	ORANGUTAN	Zoo	7	-1	[0, 0, 0]	n/a	catFR1	0	R1515T
503.547	0.782	570664	WORD_OFF	n/a	n/a	ORANGUTAN	Zoo	7	-1	[0, 0, 0]	n/a	catFR1	0	R1515T
504.329	1.602	571440	WORD	n/a	n/a	ZEBRA	Zoo	8	-1	[0, 0, 0]	n/a	catFR1	0	R1515T
505.931	0.85	573041	WORD_OFF	n/a	n/a	ZEBRA	Zoo	8	-1	[0, 0, 0]	n/a	catFR1	0	R1515T
506.781	1.616	573896	WORD	n/a	n/a	ROOM	Building	9	-1	[0, 0, 0]	n/a	catFR1	0	R1515T
508.397	0.867	575516	WORD_OFF	n/a	n/a	ROOM	Building	9	-1	[0, 0, 0]	n/a	catFR1	0	R1515T
509.264	1.6	576381	WORD	n/a	n/a	STAIRS	Building	10	-1	[0, 0, 0]	n/a	catFR1	0	R1515T
510.864	0.983	577982	WORD_OFF	n/a	n/a	STAIRS	Building	10	-1	[0, 0, 0]	n/a	catFR1	0	R1515T
511.847	1.617	578964	WORD	n/a	n/a	PIG	FarmAnimals	11	-1	[0, 0, 0]	n/a	catFR1	0	R1515T
513.464	0.95	580575	WORD_OFF	n/a	n/a	PIG	FarmAnimals	11	-1	[0, 0, 0]	n/a	catFR1	0	R1515T
514.414	1.601	581527	WORD	n/a	n/a	TURKEY	FarmAnimals	12	-1	[0, 0, 0]	n/a	catFR1	0	R1515T
516.015	0.0	583127	START	n/a	n/a	n/a	n/a	-999	-1	[-999, -999, -999]	n/a	catFR1	0	R1515T
516.014	0.001	583128	WORD_OFF	n/a	n/a	TURKEY	FarmAnimals	12	-1	[0, 0, 0]	n/a	catFR1	0	R1515T
516.015	0.0	583128	ENCODING_END	n/a	n/a	n/a	n/a	-999	-1	[0, 0, 0]	n/a	catFR1	0	R1515T
516.015	0.001	583128	DISTRACT_START	n/a	n/a	n/a	n/a	-999	-1	[0, 0, 0]	n/a	catFR1	0	R1515T
516.016	7.532	583128	PROB	7.532	n/a	n/a	n/a	-999	-1	[2, 3, 4]	9	catFR1	0	R1515T
523.548	5.299	590659	PROB	5.299	n/a	n/a	n/a	-999	-1	[3, 4, 3]	10	catFR1	0	R1515T
528.847	3.884	595958	PROB	3.884	n/a	n/a	n/a	-999	-1	[2, 8, 5]	15	catFR1	0	R1515T
532.731	5.866	599842	PROB	5.866	n/a	n/a	n/a	-999	-1	[7, 5, 3]	15	catFR1	0	R1515T
538.597	0.0	605707	STOP	n/a	n/a	n/a	n/a	-999	-1	[-999, -999, -999]	n/a	catFR1	0	R1515T
538.597	1.066	605708	DISTRACT_END	n/a	n/a	n/a	n/a	-999	-1	[0, 0, 0]	n/a	catFR1	0	R1515T
539.663	2.01	606779	REC_START	n/a	n/a	n/a	n/a	-999	-1	[0, 0, 0]	n/a	catFR1	0	R1515T
541.673	0.994	608783	REC_WORD_VV	0.994	n/a	<>	n/a	-999	-1	[0, 0, 0]	n/a	catFR1	0	R1515T
542.667	1.0	609777	REC_WORD	1.0	n/a	CEILING	Building	1	-1	[0, 0, 0]	n/a	catFR1	0	R1515T
543.667	0.106	610777	REC_WORD	0.106	n/a	CEILING	Building	1	-1	[0, 0, 0]	n/a	catFR1	0	R1515T
543.773	1.0	610883	REC_WORD	1.0	n/a	BULL	FarmAnimals	6	-1	[0, 0, 0]	n/a	catFR1	0	R1515T
544.773	0.821	611883	REC_WORD	0.821	n/a	BULL	FarmAnimals	6	-1	[0, 0, 0]	n/a	catFR1	0	R1515T
545.594	1.0	612704	REC_WORD	1.0	n/a	ZEBRA	Zoo	8	-1	[0, 0, 0]	n/a	catFR1	0	R1515T
546.594	1.111	613704	REC_WORD	1.111	n/a	ZEBRA	Zoo	8	-1	[0, 0, 0]	n/a	catFR1	0	R1515T
547.705	1.0	614815	REC_WORD	1.0	n/a	FOUNDATION	Building	2	-1	[0, 0, 0]	n/a	catFR1	0	R1515T
548.705	3.024	615815	REC_WORD	3.024	n/a	FOUNDATION	Building	2	-1	[0, 0, 0]	n/a	catFR1	0	R1515T
551.729	1.0	618839	REC_WORD	1.0	n/a	CHEETAH	Zoo	4	-1	[0, 0, 0]	n/a	catFR1	0	R1515T
552.729	9.971	619839	REC_WORD	9.971	n/a	CHEETAH	Zoo	4	-1	[0, 0, 0]	n/a	catFR1	0	R1515T
562.7	1.0	629809	REC_WORD_VV	1.0	n/a	<>	n/a	-999	-1	[0, 0, 0]	n/a	catFR1	0	R1515T
563.7	1.0	630809	REC_WORD_VV	1.0	n/a	<>	n/a	-999	-1	[0, 0, 0]	n/a	catFR1	0	R1515T
564.7	1.185	631809	REC_WORD_VV	1.185	n/a	<>	n/a	-999	-1	[0, 0, 0]	n/a	catFR1	0	R1515T
565.885	5.005	632994	REC_WORD	5.005	n/a	CHEETAH	Zoo	4	-1	[0, 0, 0]	n/a	catFR1	0	R1515T
570.89	25.624	638002	REC_END	n/a	n/a	n/a	n/a	-999	-1	[0, 0, 0]	n/a	catFR1	0	R1515T
596.514	10.349	663627	COUNTDOWN_START	n/a	n/a	n/a	n/a	-999	1	[0, 0, 0]	n/a	catFR1	0	R1515T
606.863	0.0	673970	COUNTDOWN_END	n/a	n/a	n/a	n/a	-999	1	[0, 0, 0]	n/a	catFR1	0	R1515T
606.863	2.017	673980	ENCODING_START	n/a	n/a	n/a	n/a	-999	1	[0, 0, 0]	n/a	catFR1	0	R1515T
608.88	1.6	675993	WORD	n/a	wordpools/wordpool_categorized_EN.txt	HEAD	BodyParts	1	1	[0, 0, 0]	n/a	catFR1	0	R1515T
610.48	0.85	677594	WORD_OFF	n/a	n/a	HEAD	BodyParts	1	1	[0, 0, 0]	n/a	catFR1	0	R1515T
611.33	1.617	678439	WORD	n/a	wordpools/wordpool_categorized_EN.txt	FINGERS	BodyParts	2	1	[0, 0, 0]	n/a	catFR1	0	R1515T
612.947	0.767	680059	WORD_OFF	n/a	n/a	FINGERS	BodyParts	2	1	[0, 0, 0]	n/a	catFR1	0	R1515T
613.714	1.617	680825	WORD	n/a	wordpools/wordpool_categorized_EN.txt	PANDA	Zoo	3	1	[0, 0, 0]	n/a	catFR1	0	R1515T
615.331	0.983	682436	WORD_OFF	n/a	n/a	PANDA	Zoo	3	1	[0, 0, 0]	n/a	catFR1	0	R1515T
616.314	1.617	683428	WORD	n/a	wordpools/wordpool_categorized_EN.txt	ELEPHANT	Zoo	4	1	[0, 0, 0]	n/a	catFR1	0	R1515T
617.931	0.766	685039	WORD_OFF	n/a	n/a	ELEPHANT	Zoo	4	1	[0, 0, 0]	n/a	catFR1	0	R1515T
618.697	1.616	685805	WORD	n/a	wordpools/wordpool_categorized_EN.txt	PLANE	Vehicles	5	1	[0, 0, 0]	n/a	catFR1	0	R1515T
620.313	0.967	687426	WORD_OFF	n/a	n/a	PLANE	Vehicles	5	1	[0, 0, 0]	n/a	catFR1	0	R1515T
621.28	1.601	688388	WORD	n/a	wordpools/wordpool_categorized_EN.txt	SCOOTER	Vehicles	6	1	[0, 0, 0]	n/a	catFR1	0	R1515T
622.881	0.833	689989	WORD_OFF	n/a	n/a	SCOOTER	Vehicles	6	1	[0, 0, 0]	n/a	catFR1	0	R1515T
623.714	1.616	690824	WORD	n/a	wordpools/wordpool_categorized_EN.txt	EAR	BodyParts	7	1	[0, 0, 0]	n/a	catFR1	0	R1515T
625.33	0.851	692435	WORD_OFF	n/a	n/a	EAR	BodyParts	7	1	[0, 0, 0]	n/a	catFR1	0	R1515T
626.181	1.6	693289	WORD	n/a	wordpools/wordpool_categorized_EN.txt	ELBOW	BodyParts	8	1	[0, 0, 0]	n/a	catFR1	0	R1515T
627.781	0.9	694890	WORD_OFF	n/a	n/a	ELBOW	BodyParts	8	1	[0, 0, 0]	n/a	catFR1	0	R1515T
628.681	1.616	695794	WORD	n/a	wordpools/wordpool_categorized_EN.txt	GORILLA	Zoo	9	1	[0, 0, 0]	n/a	catFR1	0	R1515T
630.297	0.9	697405	WORD_OFF	n/a	n/a	GORILLA	Zoo	9	1	[0, 0, 0]	n/a	catFR1	0	R1515T
631.197	1.617	698308	WORD	n/a	wordpools/wordpool_categorized_EN.txt	CHIMPANZEE	Zoo	10	1	[0, 0, 0]	n/a	catFR1	0	R1515T
632.814	0.817	699919	WORD_OFF	n/a	n/a	CHIMPANZEE	Zoo	10	1	[0, 0, 0]	n/a	catFR1	0	R1515T
633.631	1.616	700744	WORD	n/a	wordpools/wordpool_categorized_EN.txt	JEEP	Vehicles	11	1	[0, 0, 0]	n/a	catFR1	0	R1515T
635.247	0.917	702355	WORD_OFF	n/a	n/a	JEEP	Vehicles	11	1	[0, 0, 0]	n/a	catFR1	0	R1515T
636.164	1.617	703268	WORD	n/a	wordpools/wordpool_categorized_EN.txt	BUS	Vehicles	12	1	[0, 0, 0]	n/a	catFR1	0	R1515T
637.781	0.002	704886	PROB	0.002	n/a	n/a	n/a	-999	1	[2, 2, 3]	7	catFR1	0	R1515T
637.783	0.0	704888	START	n/a	n/a	n/a	n/a	-999	1	[-999, -999, -999]	n/a	catFR1	0	R1515T
637.78	0.003	704889	WORD_OFF	n/a	n/a	BUS	Vehicles	12	1	[0, 0, 0]	n/a	catFR1	0	R1515T
637.783	0.0	704889	ENCODING_END	n/a	n/a	n/a	n/a	-999	1	[0, 0, 0]	n/a	catFR1	0	R1515T
637.783	4.881	704889	DISTRACT_START	n/a	n/a	n/a	n/a	-999	1	[0, 0, 0]	n/a	catFR1	0	R1515T
642.664	4.801	709769	PROB	4.801	n/a	n/a	n/a	-999	1	[3, 2, 5]	10	catFR1	0	R1515T
647.465	4.166	714570	PROB	4.166	n/a	n/a	n/a	-999	1	[8, 6, 2]	16	catFR1	0	R1515T
651.631	5.483	718736	PROB	5.483	n/a	n/a	n/a	-999	1	[2, 3, 5]	10	catFR1	0	R1515T
657.114	3.733	724218	PROB	3.733	n/a	n/a	n/a	-999	1	[2, 2, 1]	5	catFR1	0	R1515T
660.847	0.0	727950	DISTRACT_END	n/a	n/a	n/a	n/a	-999	1	[0, 0, 0]	n/a	catFR1	0	R1515T
660.847	1.033	727951	STOP	n/a	n/a	n/a	n/a	-999	1	[-999, -999, -999]	n/a	catFR1	0	R1515T
661.88	3.251	728991	REC_START	n/a	n/a	n/a	n/a	-999	1	[0, 0, 0]	n/a	catFR1	0	R1515T
665.131	0.873	732235	REC_WORD	0.873	n/a	HEAD	BodyParts	1	1	[0, 0, 0]	n/a	catFR1	0	R1515T
666.004	1.0	733108	REC_WORD	1.0	n/a	FINGERS	BodyParts	2	1	[0, 0, 0]	n/a	catFR1	0	R1515T
667.004	3.449	734108	REC_WORD	3.449	n/a	FINGERS	BodyParts	2	1	[0, 0, 0]	n/a	catFR1	0	R1515T
670.453	0.49	737557	REC_WORD_VV	0.49	n/a	<>	n/a	-999	1	[0, 0, 0]	n/a	catFR1	0	R1515T
670.943	1.0	738047	REC_WORD	1.0	n/a	CHIMPANZEE	Zoo	10	1	[0, 0, 0]	n/a	catFR1	0	R1515T
671.943	8.422	739047	REC_WORD	8.422	n/a	CHIMPANZEE	Zoo	10	1	[0, 0, 0]	n/a	catFR1	0	R1515T
680.365	1.0	747468	REC_WORD_VV	1.0	n/a	<>	n/a	-999	1	[0, 0, 0]	n/a	catFR1	0	R1515T
681.365	1.0	748468	REC_WORD_VV	1.0	n/a	<>	n/a	-999	1	[0, 0, 0]	n/a	catFR1	0	R1515T
682.365	2.857	749468	REC_WORD_VV	2.857	n/a	<>	n/a	-999	1	[0, 0, 0]	n/a	catFR1	0	R1515T
685.222	0.173	752325	REC_WORD_VV	0.173	n/a	<>	n/a	-999	1	[0, 0, 0]	n/a	catFR1	0	R1515T
685.395	7.659	752498	REC_WORD	7.659	n/a	BULL	FarmAnimals	-999	1	[0, 0, 0]	n/a	catFR1	0	R1515T
693.054	15.777	760156	REC_END	n/a	n/a	n/a	n/a	-999	1	[0, 0, 0]	n/a	catFR1	0	R1515T
708.831	10.349	775939	COUNTDOWN_START	n/a	n/a	n/a	n/a	-999	1	[0, 0, 0]	n/a	catFR1	0	R1515T
719.18	0.001	786282	COUNTDOWN_END	n/a	n/a	n/a	n/a	-999	1	[0, 0, 0]	n/a	catFR1	0	R1515T
719.181	2.315	786282	ENCODING_START	n/a	n/a	n/a	n/a	-999	2	[0, 0, 0]	n/a	catFR1	0	R1515T
721.496	1.6	788600	WORD	n/a	wordpools/wordpool_categorized_EN.txt	WOODS	Landscapes	1	2	[0, 0, 0]	n/a	catFR1	0	R1515T
723.096	0.935	790201	WORD_OFF	n/a	n/a	WOODS	Landscapes	1	2	[0, 0, 0]	n/a	catFR1	0	R1515T
724.031	1.614	791134	WORD	n/a	wordpools/wordpool_categorized_EN.txt	STREAM	Landscapes	2	2	[0, 0, 0]	n/a	catFR1	0	R1515T
725.645	0.933	792744	WORD_OFF	n/a	n/a	STREAM	Landscapes	2	2	[0, 0, 0]	n/a	catFR1	0	R1515T
726.578	1.601	793678	WORD	n/a	wordpools/wordpool_categorized_EN.txt	STRAINER	KitchenTools	3	2	[0, 0, 0]	n/a	catFR1	0	R1515T
728.179	0.966	795279	WORD_OFF	n/a	n/a	STRAINER	KitchenTools	3	2	[0, 0, 0]	n/a	catFR1	0	R1515T
729.145	1.603	796251	WORD	n/a	wordpools/wordpool_categorized_EN.txt	KNIFE	KitchenTools	4	2	[0, 0, 0]	n/a	catFR1	0	R1515T
730.748	0.866	797852	WORD_OFF	n/a	n/a	KNIFE	KitchenTools	4	2	[0, 0, 0]	n/a	catFR1	0	R1515T
731.614	1.614	798716	WORD	n/a	wordpools/wordpool_categorized_EN.txt	ROBIN	Birds	5	2	[0, 0, 0]	n/a	catFR1	0	R1515T
733.228	1.001	800327	WORD_OFF	n/a	n/a	ROBIN	Birds	5	2	[0, 0, 0]	n/a	catFR1	0	R1515T
734.229	1.6	801329	WORD	n/a	wordpools/wordpool_categorized_EN.txt	CROW	Birds	6	2	[0, 0, 0]	n/a	catFR1	0	R1515T
735.829	0.917	802930	WORD_OFF	n/a	n/a	CROW	Birds	6	2	[0, 0, 0]	n/a	catFR1	0	R1515T
736.746	1.602	803853	WORD	n/a	wordpools/wordpool_categorized_EN.txt	SPOON	KitchenTools	7	2	[0, 0, 0]	n/a	catFR1	0	R1515T
738.348	0.899	805454	WORD_OFF	n/a	n/a	SPOON	KitchenTools	7	2	[0, 0, 0]	n/a	catFR1	0	R1515T
739.247	1.614	806348	WORD	n/a	wordpools/wordpool_categorized_EN.txt	TONGS	KitchenTools	8	2	[0, 0, 0]	n/a	catFR1	0	R1515T
740.861	0.784	807968	WORD_OFF	n/a	n/a	TONGS	KitchenTools	8	2	[0, 0, 0]	n/a	catFR1	0	R1515T
741.645	1.6	808744	WORD	n/a	wordpools/wordpool_categorized_EN.txt	OCEAN	Landscapes	9	2	[0, 0, 0]	n/a	catFR1	0	R1515T
743.245	0.866	810345	WORD_OFF	n/a	n/a	OCEAN	Landscapes	9	2	[0, 0, 0]	n/a	catFR1	0	R1515T
744.111	1.603	811209	WORD	n/a	wordpools/wordpool_categorized_EN.txt	FOREST	Landscapes	10	2	[0, 0, 0]	n/a	catFR1	0	R1515T
745.714	0.982	812820	WORD_OFF	n/a	n/a	FOREST	Landscapes	10	2	[0, 0, 0]	n/a	catFR1	0	R1515T
746.696	1.616	813802	WORD	n/a	wordpools/wordpool_categorized_EN.txt	CARDINAL	Birds	11	2	[0, 0, 0]	n/a	catFR1	0	R1515T
748.312	0.8	815413	WORD_OFF	n/a	n/a	CARDINAL	Birds	11	2	[0, 0, 0]	n/a	catFR1	0	R1515T
749.112	1.6	816219	WORD	n/a	wordpools/wordpool_categorized_EN.txt	SPARROW	Birds	12	2	[0, 0, 0]	n/a	catFR1	0	R1515T
750.712	0.0	817810	WORD_OFF	n/a	n/a	SPARROW	Birds	12	2	[0, 0, 0]	n/a	catFR1	0	R1515T
750.712	0.001	817812	START	n/a	n/a	n/a	n/a	-999	2	[-999, -999, -999]	n/a	catFR1	0	R1515T
750.713	0.0	817813	PROB	0.0	n/a	n/a	n/a	-999	2	[3, 8, 8]	19	catFR1	0	R1515T
750.712	0.0	817820	ENCODING_END	n/a	n/a	n/a	n/a	-999	2	[0, 0, 0]	n/a	catFR1	0	R1515T
750.712	5.202	817820	DISTRACT_START	n/a	n/a	n/a	n/a	-999	2	[0, 0, 0]	n/a	catFR1	0	R1515T
755.914	3.501	823013	PROB	3.501	n/a	n/a	n/a	-999	2	[4, 2, 8]	14	catFR1	0	R1515T
759.415	5.332	826514	PROB	5.332	n/a	n/a	n/a	-999	2	[2, 7, 7]	16	catFR1	0	R1515T
764.747	3.1	831846	PROB	3.1	n/a	n/a	n/a	-999	2	[1, 5, 1]	7	catFR1	0	R1515T
767.847	16.717	834946	PROB	16.717	n/a	n/a	n/a	-999	2	[7, 8, 4]	19	catFR1	0	R1515T
784.564	0.0	851662	STOP	n/a	n/a	n/a	n/a	-999	2	[-999, -999, -999]	n/a	catFR1	0	R1515T
784.564	1.349	851665	DISTRACT_END	n/a	n/a	n/a	n/a	-999	2	[0, 0, 0]	n/a	catFR1	0	R1515T
785.913	2.786	853011	REC_START	n/a	n/a	n/a	n/a	-999	2	[0, 0, 0]	n/a	catFR1	0	R1515T
788.699	1.0	855797	REC_WORD	1.0	n/a	ROBIN	Birds	5	2	[0, 0, 0]	n/a	catFR1	0	R1515T
789.699	0.054	856797	REC_WORD	0.054	n/a	ROBIN	Birds	5	2	[0, 0, 0]	n/a	catFR1	0	R1515T
789.753	1.0	856851	REC_WORD	1.0	n/a	SPARROW	Birds	12	2	[0, 0, 0]	n/a	catFR1	0	R1515T
790.753	1.029	857850	REC_WORD	1.029	n/a	SPARROW	Birds	12	2	[0, 0, 0]	n/a	catFR1	0	R1515T
791.782	1.0	858879	REC_WORD	1.0	n/a	FOREST	Landscapes	10	2	[0, 0, 0]	n/a	catFR1	0	R1515T
792.782	2.337	859879	REC_WORD	2.337	n/a	FOREST	Landscapes	10	2	[0, 0, 0]	n/a	catFR1	0	R1515T
795.119	4.455	862216	REC_WORD_VV	4.455	n/a	<>	n/a	-999	2	[0, 0, 0]	n/a	catFR1	0	R1515T
799.574	1.0	866671	REC_WORD_VV	1.0	n/a	<>	n/a	-999	2	[0, 0, 0]	n/a	catFR1	0	R1515T
800.574	5.142	867671	REC_WORD_VV	5.142	n/a	<>	n/a	-999	2	[0, 0, 0]	n/a	catFR1	0	R1515T
805.716	0.412	872813	REC_WORD_VV	0.412	n/a	<>	n/a	-999	2	[0, 0, 0]	n/a	catFR1	0	R1515T
806.128	1.0	873225	REC_WORD	1.0	n/a	ARROW	n/a	-999	2	[0, 0, 0]	n/a	catFR1	0	R1515T
807.128	4.879	874225	REC_WORD	4.879	n/a	ARROW	n/a	-999	2	[0, 0, 0]	n/a	catFR1	0	R1515T
812.007	1.0	879103	REC_WORD_VV	1.0	n/a	<>	n/a	-999	2	[0, 0, 0]	n/a	catFR1	0	R1515T
813.007	1.0	880103	REC_WORD_VV	1.0	n/a	<>	n/a	-999	2	[0, 0, 0]	n/a	catFR1	0	R1515T
814.007	1.0	881103	REC_WORD_VV	1.0	n/a	<>	n/a	-999	2	[0, 0, 0]	n/a	catFR1	0	R1515T
815.007	2.098	882103	REC_WORD_VV	2.098	n/a	<>	n/a	-999	2	[0, 0, 0]	n/a	catFR1	0	R1515T
817.105	7.509	884205	REC_END	n/a	n/a	n/a	n/a	-999	2	[0, 0, 0]	n/a	catFR1	0	R1515T
824.614	10.349	891719	COUNTDOWN_START	n/a	n/a	n/a	n/a	-999	2	[0, 0, 0]	n/a	catFR1	0	R1515T
834.963	0.0	902061	COUNTDOWN_END	n/a	n/a	n/a	n/a	-999	2	[0, 0, 0]	n/a	catFR1	0	R1515T
834.963	2.117	902061	ENCODING_START	n/a	n/a	n/a	n/a	-999	3	[0, 0, 0]	n/a	catFR1	0	R1515T
837.08	1.601	904182	WORD	n/a	wordpools/wordpool_categorized_EN.txt	CHEESECAKE	Desserts	1	3	[0, 0, 0]	n/a	catFR1	0	R1515T
838.681	0.766	905783	WORD_OFF	n/a	n/a	CHEESECAKE	Desserts	1	3	[0, 0, 0]	n/a	catFR1	0	R1515T
839.447	1.617	906549	WORD	n/a	wordpools/wordpool_categorized_EN.txt	FUDGE	Desserts	2	3	[0, 0, 0]	n/a	catFR1	0	R1515T
841.064	1.0	908160	WORD_OFF	n/a	n/a	FUDGE	Desserts	2	3	[0, 0, 0]	n/a	catFR1	0	R1515T
842.064	1.616	909162	WORD	n/a	wordpools/wordpool_categorized_EN.txt	SHELF	Furniture	3	3	[0, 0, 0]	n/a	catFR1	0	R1515T
843.68	0.799	910773	WORD_OFF	n/a	n/a	SHELF	Furniture	3	3	[0, 0, 0]	n/a	catFR1	0	R1515T
844.479	1.602	911578	WORD	n/a	wordpools/wordpool_categorized_EN.txt	BOOKCASE	Furniture	4	3	[0, 0, 0]	n/a	catFR1	0	R1515T
846.081	0.832	913179	WORD_OFF	n/a	n/a	BOOKCASE	Furniture	4	3	[0, 0, 0]	n/a	catFR1	0	R1515T
846.913	1.601	914014	WORD	n/a	wordpools/wordpool_categorized_EN.txt	WHISK	KitchenTools	5	3	[0, 0, 0]	n/a	catFR1	0	R1515T
848.514	0.917	915615	WORD_OFF	n/a	n/a	WHISK	KitchenTools	5	3	[0, 0, 0]	n/a	catFR1	0	R1515T
849.431	1.599	916528	WORD	n/a	wordpools/wordpool_categorized_EN.txt	GRATER	KitchenTools	6	3	[0, 0, 0]	n/a	catFR1	0	R1515T
851.03	0.901	918129	WORD_OFF	n/a	n/a	GRATER	KitchenTools	6	3	[0, 0, 0]	n/a	catFR1	0	R1515T
851.931	1.6	919033	WORD	n/a	wordpools/wordpool_categorized_EN.txt	SOFA	Furniture	7	3	[0, 0, 0]	n/a	catFR1	0	R1515T
853.531	0.85	920624	WORD_OFF	n/a	n/a	SOFA	Furniture	7	3	[0, 0, 0]	n/a	catFR1	0	R1515T
854.381	1.616	921479	WORD	n/a	wordpools/wordpool_categorized_EN.txt	RECLINER	Furniture	8	3	[0, 0, 0]	n/a	catFR1	0	R1515T
855.997	0.967	923089	WORD_OFF	n/a	n/a	RECLINER	Furniture	8	3	[0, 0, 0]	n/a	catFR1	0	R1515T
856.964	1.617	924062	WORD	n/a	wordpools/wordpool_categorized_EN.txt	PEELER	KitchenTools	9	3	[0, 0, 0]	n/a	catFR1	0	R1515T
858.581	0.95	925682	WORD_OFF	n/a	n/a	PEELER	KitchenTools	9	3	[0, 0, 0]	n/a	catFR1	0	R1515T
859.531	1.615	926625	WORD	n/a	wordpools/wordpool_categorized_EN.txt	LADLE	KitchenTools	10	3	[0, 0, 0]	n/a	catFR1	0	R1515T
861.146	0.918	928246	WORD_OFF	n/a	n/a	LADLE	KitchenTools	10	3	[0, 0, 0]	n/a	catFR1	0	R1515T
862.064	1.6	929159	WORD	n/a	wordpools/wordpool_categorized_EN.txt	PASTRY	Desserts	11	3	[0, 0, 0]	n/a	catFR1	0	R1515T
863.664	0.917	930760	WORD_OFF	n/a	n/a	PASTRY	Desserts	11	3	[0, 0, 0]	n/a	catFR1	0	R1515T
864.581	1.617	931674	WORD	n/a	wordpools/wordpool_categorized_EN.txt	PUDDING	Desserts	12	3	[0, 0, 0]	n/a	catFR1	0	R1515T
866.198	0.001	933292	PROB	0.001	n/a	n/a	n/a	-999	3	[1, 6, 1]	8	catFR1	0	R1515T
866.199	0.0	933293	START	n/a	n/a	n/a	n/a	-999	3	[-999, -999, -999]	n/a	catFR1	0	R1515T
866.197	0.002	933294	WORD_OFF	n/a	n/a	PUDDING	Desserts	12	3	[0, 0, 0]	n/a	catFR1	0	R1515T
866.199	0.0	933294	ENCODING_END	n/a	n/a	n/a	n/a	-999	3	[0, 0, 0]	n/a	catFR1	0	R1515T
866.199	3.598	933294	DISTRACT_START	n/a	n/a	n/a	n/a	-999	3	[0, 0, 0]	n/a	catFR1	0	R1515T
869.797	18.666	936890	PROB	18.666	n/a	n/a	n/a	-999	3	[7, 5, 6]	18	catFR1	0	R1515T
888.463	0.0	955556	STOP	n/a	n/a	n/a	n/a	-999	3	[-999, -999, -999]	n/a	catFR1	0	R1515T
888.463	1.267	955560	DISTRACT_END	n/a	n/a	n/a	n/a	-999	3	[0, 0, 0]	n/a	catFR1	0	R1515T
889.73	1.238	956827	REC_START	n/a	n/a	n/a	n/a	-999	3	[0, 0, 0]	n/a	catFR1	0	R1515T
890.968	1.0	958060	REC_WORD	1.0	n/a	LADLE	KitchenTools	10	3	[0, 0, 0]	n/a	catFR1	0	R1515T
891.968	0.023	959060	REC_WORD	0.023	n/a	LADLE	KitchenTools	10	3	[0, 0, 0]	n/a	catFR1	0	R1515T
891.991	1.0	959083	REC_WORD	1.0	n/a	PEELER	KitchenTools	9	3	[0, 0, 0]	n/a	catFR1	0	R1515T
892.991	2.252	960083	REC_WORD	2.252	n/a	PEELER	KitchenTools	9	3	[0, 0, 0]	n/a	catFR1	0	R1515T
895.243	1.876	962335	REC_WORD_VV	1.876	n/a	<>	n/a	-999	3	[0, 0, 0]	n/a	catFR1	0	R1515T
897.119	1.0	964211	REC_WORD	1.0	n/a	RECLINER	Furniture	8	3	[0, 0, 0]	n/a	catFR1	0	R1515T
898.119	0.277	965211	REC_WORD	0.277	n/a	RECLINER	Furniture	8	3	[0, 0, 0]	n/a	catFR1	0	R1515T
898.396	1.0	965488	REC_WORD	1.0	n/a	SHELF	Furniture	3	3	[0, 0, 0]	n/a	catFR1	0	R1515T
899.396	4.854	966488	REC_WORD	4.854	n/a	SHELF	Furniture	3	3	[0, 0, 0]	n/a	catFR1	0	R1515T
904.25	1.0	971342	REC_WORD	1.0	n/a	KITCHEN	n/a	-999	3	[0, 0, 0]	n/a	catFR1	0	R1515T
905.25	2.347	972342	REC_WORD	2.347	n/a	KITCHEN	n/a	-999	3	[0, 0, 0]	n/a	catFR1	0	R1515T
907.597	1.0	974689	REC_WORD_VV	1.0	n/a	<>	n/a	-999	3	[0, 0, 0]	n/a	catFR1	0	R1515T
908.597	0.656	975688	REC_WORD_VV	0.656	n/a	<>	n/a	-999	3	[0, 0, 0]	n/a	catFR1	0	R1515T
909.253	1.0	976344	REC_WORD	1.0	n/a	STRAINER	KitchenTools	-999	3	[0, 0, 0]	n/a	catFR1	0	R1515T
910.253	0.585	977344	REC_WORD	0.585	n/a	STRAINER	KitchenTools	-999	3	[0, 0, 0]	n/a	catFR1	0	R1515T
910.838	1.0	977929	REC_WORD_VV	1.0	n/a	<>	n/a	-999	3	[0, 0, 0]	n/a	catFR1	0	R1515T
911.838	1.211	978929	REC_WORD_VV	1.211	n/a	<>	n/a	-999	3	[0, 0, 0]	n/a	catFR1	0	R1515T
913.049	1.0	980140	REC_WORD	1.0	n/a	FUDGE	Desserts	2	3	[0, 0, 0]	n/a	catFR1	0	R1515T
914.049	0.214	981140	REC_WORD	0.214	n/a	FUDGE	Desserts	2	3	[0, 0, 0]	n/a	catFR1	0	R1515T
914.263	1.0	981354	REC_WORD	1.0	n/a	PUDDING	Desserts	12	3	[0, 0, 0]	n/a	catFR1	0	R1515T
915.263	2.163	982354	REC_WORD	2.163	n/a	PUDDING	Desserts	12	3	[0, 0, 0]	n/a	catFR1	0	R1515T
917.426	1.0	984517	REC_WORD_VV	1.0	n/a	<>	n/a	-999	3	[0, 0, 0]	n/a	catFR1	0	R1515T
918.426	2.512	985517	REC_WORD_VV	2.512	n/a	<>	n/a	-999	3	[0, 0, 0]	n/a	catFR1	0	R1515T
920.938	6.409	988031	REC_END	n/a	n/a	n/a	n/a	-999	3	[0, 0, 0]	n/a	catFR1	0	R1515T
927.347	10.351	994444	COUNTDOWN_START	n/a	n/a	n/a	n/a	-999	3	[0, 0, 0]	n/a	catFR1	0	R1515T
937.698	0.0	1004787	COUNTDOWN_END	n/a	n/a	n/a	n/a	-999	3	[0, 0, 0]	n/a	catFR1	0	R1515T
937.698	2.116	1004797	ENCODING_START	n/a	n/a	n/a	n/a	-999	4	[0, 0, 0]	n/a	catFR1	0	R1515T
939.814	1.616	1006908	WORD	n/a	wordpools/wordpool_categorized_EN.txt	MOPED	Vehicles	1	4	[0, 0, 0]	n/a	catFR1	0	R1515T
941.43	0.784	1008519	WORD_OFF	n/a	n/a	MOPED	Vehicles	1	4	[0, 0, 0]	n/a	catFR1	0	R1515T
942.214	1.616	1009305	WORD	n/a	wordpools/wordpool_categorized_EN.txt	TRAIN	Vehicles	2	4	[0, 0, 0]	n/a	catFR1	0	R1515T
943.83	0.767	1010925	WORD_OFF	n/a	n/a	TRAIN	Vehicles	2	4	[0, 0, 0]	n/a	catFR1	0	R1515T
944.597	1.617	1011692	WORD	n/a	wordpools/wordpool_categorized_EN.txt	CORN	Vegetables	3	4	[0, 0, 0]	n/a	catFR1	0	R1515T
946.214	0.833	1013302	WORD_OFF	n/a	n/a	CORN	Vegetables	3	4	[0, 0, 0]	n/a	catFR1	0	R1515T
947.047	1.6	1014137	WORD	n/a	wordpools/wordpool_categorized_EN.txt	CARROT	Vegetables	4	4	[0, 0, 0]	n/a	catFR1	0	R1515T
948.647	0.799	1015738	WORD_OFF	n/a	n/a	CARROT	Vegetables	4	4	[0, 0, 0]	n/a	catFR1	0	R1515T
949.446	1.601	1016544	WORD	n/a	wordpools/wordpool_categorized_EN.txt	SUNFLOWER	Flowers	5	4	[0, 0, 0]	n/a	catFR1	0	R1515T
951.047	0.9	1018144	WORD_OFF	n/a	n/a	SUNFLOWER	Flowers	5	4	[0, 0, 0]	n/a	catFR1	0	R1515T
951.947	1.617	1019038	WORD	n/a	wordpools/wordpool_categorized_EN.txt	TULIP	Flowers	6	4	[0, 0, 0]	n/a	catFR1	0	R1515T
953.564	0.799	1020659	WORD_OFF	n/a	n/a	TULIP	Flowers	6	4	[0, 0, 0]	n/a	catFR1	0	R1515T
954.363	1.601	1021454	WORD	n/a	wordpools/wordpool_categorized_EN.txt	TRUCK	Vehicles	7	4	[0, 0, 0]	n/a	catFR1	0	R1515T
955.964	0.817	1023055	WORD_OFF	n/a	n/a	TRUCK	Vehicles	7	4	[0, 0, 0]	n/a	catFR1	0	R1515T
956.781	1.6	1023871	WORD	n/a	wordpools/wordpool_categorized_EN.txt	BIKE	Vehicles	8	4	[0, 0, 0]	n/a	catFR1	0	R1515T
958.381	0.916	1025471	WORD_OFF	n/a	n/a	BIKE	Vehicles	8	4	[0, 0, 0]	n/a	catFR1	0	R1515T
959.297	1.617	1026385	WORD	n/a	wordpools/wordpool_categorized_EN.txt	ONION	Vegetables	9	4	[0, 0, 0]	n/a	catFR1	0	R1515T
960.914	0.85	1028005	WORD_OFF	n/a	n/a	ONION	Vegetables	9	4	[0, 0, 0]	n/a	catFR1	0	R1515T
961.764	1.6	1028860	WORD	n/a	wordpools/wordpool_categorized_EN.txt	PEAS	Vegetables	10	4	[0, 0, 0]	n/a	catFR1	0	R1515T
963.364	0.883	1030451	WORD_OFF	n/a	n/a	PEAS	Vegetables	10	4	[0, 0, 0]	n/a	catFR1	0	R1515T
964.247	1.617	1031335	WORD	n/a	wordpools/wordpool_categorized_EN.txt	PETUNIA	Flowers	11	4	[0, 0, 0]	n/a	catFR1	0	R1515T
965.864	0.966	1032956	WORD_OFF	n/a	n/a	PETUNIA	Flowers	11	4	[0, 0, 0]	n/a	catFR1	0	R1515T
966.83	1.6	1033918	WORD	n/a	wordpools/wordpool_categorized_EN.txt	MARIGOLD	Flowers	12	4	[0, 0, 0]	n/a	catFR1	0	R1515T
968.43	0.002	1035519	WORD_OFF	n/a	n/a	MARIGOLD	Flowers	12	4	[0, 0, 0]	n/a	catFR1	0	R1515T
968.432	0.0	1035520	START	n/a	n/a	n/a	n/a	-999	4	[-999, -999, -999]	n/a	catFR1	0	R1515T
968.432	0.0	1035520	PROB	0.0	n/a	n/a	n/a	-999	4	[6, 6, 8]	20	catFR1	0	R1515T
968.432	0.0	1035529	ENCODING_END	n/a	n/a	n/a	n/a	-999	4	[0, 0, 0]	n/a	catFR1	0	R1515T
968.432	7.215	1035529	DISTRACT_START	n/a	n/a	n/a	n/a	-999	4	[0, 0, 0]	n/a	catFR1	0	R1515T
975.647	9.984	1042735	PROB	9.984	n/a	n/a	n/a	-999	4	[6, 1, 8]	15	catFR1	0	R1515T
985.631	5.666	1052719	PROB	5.666	n/a	n/a	n/a	-999	4	[7, 7, 6]	20	catFR1	0	R1515T
991.297	0.0	1058384	DISTRACT_END	n/a	n/a	n/a	n/a	-999	4	[0, 0, 0]	n/a	catFR1	0	R1515T
991.297	1.283	1058384	STOP	n/a	n/a	n/a	n/a	-999	4	[-999, -999, -999]	n/a	catFR1	0	R1515T
992.58	1.117	1059671	REC_START	n/a	n/a	n/a	n/a	-999	4	[0, 0, 0]	n/a	catFR1	0	R1515T
993.697	1.0	1060784	REC_WORD	1.0	n/a	PETUNIA	Flowers	11	4	[0, 0, 0]	n/a	catFR1	0	R1515T
994.697	0.226	1061784	REC_WORD	0.226	n/a	PETUNIA	Flowers	11	4	[0, 0, 0]	n/a	catFR1	0	R1515T
994.923	1.0	1062010	REC_WORD	1.0	n/a	MARIGOLD	Flowers	12	4	[0, 0, 0]	n/a	catFR1	0	R1515T
995.923	2.436	1063010	REC_WORD	2.436	n/a	MARIGOLD	Flowers	12	4	[0, 0, 0]	n/a	catFR1	0	R1515T
998.359	1.0	1065446	REC_WORD_VV	1.0	n/a	<>	n/a	-999	4	[0, 0, 0]	n/a	catFR1	0	R1515T
999.359	12.611	1066446	REC_WORD_VV	12.611	n/a	<>	n/a	-999	4	[0, 0, 0]	n/a	catFR1	0	R1515T
1011.97	1.0	1079056	REC_WORD_VV	1.0	n/a	<>	n/a	-999	4	[0, 0, 0]	n/a	catFR1	0	R1515T
1012.97	10.832	1080056	REC_WORD_VV	10.832	n/a	<>	n/a	-999	4	[0, 0, 0]	n/a	catFR1	0	R1515T
1023.802	6.312	1090894	REC_END	n/a	n/a	n/a	n/a	-999	4	[0, 0, 0]	n/a	catFR1	0	R1515T
1030.114	10.35	1097200	COUNTDOWN_START	n/a	n/a	n/a	n/a	-999	4	[0, 0, 0]	n/a	catFR1	0	R1515T
1040.464	0.0	1107552	COUNTDOWN_END	n/a	n/a	n/a	n/a	-999	4	[0, 0, 0]	n/a	catFR1	0	R1515T
1040.464	2.016	1107552	ENCODING_START	n/a	n/a	n/a	n/a	-999	5	[0, 0, 0]	n/a	catFR1	0	R1515T
1042.48	1.617	1109566	WORD	n/a	wordpools/wordpool_categorized_EN.txt	VACUUM	Appliances	1	5	[0, 0, 0]	n/a	catFR1	0	R1515T
1044.097	0.983	1111186	WORD_OFF	n/a	n/a	VACUUM	Appliances	1	5	[0, 0, 0]	n/a	catFR1	0	R1515T
1045.08	1.601	1112168	WORD	n/a	wordpools/wordpool_categorized_EN.txt	DRYER	Appliances	2	5	[0, 0, 0]	n/a	catFR1	0	R1515T
1046.681	0.949	1113769	WORD_OFF	n/a	n/a	DRYER	Appliances	2	5	[0, 0, 0]	n/a	catFR1	0	R1515T
1047.63	1.601	1114722	WORD	n/a	wordpools/wordpool_categorized_EN.txt	GLUE	OfficeSupplies	3	5	[0, 0, 0]	n/a	catFR1	0	R1515T
1049.231	0.866	1116323	WORD_OFF	n/a	n/a	GLUE	OfficeSupplies	3	5	[0, 0, 0]	n/a	catFR1	0	R1515T
1050.097	1.6	1117187	WORD	n/a	wordpools/wordpool_categorized_EN.txt	NOTEBOOK	OfficeSupplies	4	5	[0, 0, 0]	n/a	catFR1	0	R1515T
1051.697	0.883	1118788	WORD_OFF	n/a	n/a	NOTEBOOK	OfficeSupplies	4	5	[0, 0, 0]	n/a	catFR1	0	R1515T
1052.58	1.6	1119662	WORD	n/a	wordpools/wordpool_categorized_EN.txt	TUBA	Instruments	5	5	[0, 0, 0]	n/a	catFR1	0	R1515T
1054.18	0.817	1121263	WORD_OFF	n/a	n/a	TUBA	Instruments	5	5	[0, 0, 0]	n/a	catFR1	0	R1515T
1054.997	1.616	1122088	WORD	n/a	wordpools/wordpool_categorized_EN.txt	VIOLIN	Instruments	6	5	[0, 0, 0]	n/a	catFR1	0	R1515T
1056.613	0.801	1123699	WORD_OFF	n/a	n/a	VIOLIN	Instruments	6	5	[0, 0, 0]	n/a	catFR1	0	R1515T
1057.414	1.6	1124504	WORD	n/a	wordpools/wordpool_categorized_EN.txt	PAPER	OfficeSupplies	7	5	[0, 0, 0]	n/a	catFR1	0	R1515T
1059.014	0.917	1126105	WORD_OFF	n/a	n/a	PAPER	OfficeSupplies	7	5	[0, 0, 0]	n/a	catFR1	0	R1515T
1059.931	1.6	1127019	WORD	n/a	wordpools/wordpool_categorized_EN.txt	PENCIL	OfficeSupplies	8	5	[0, 0, 0]	n/a	catFR1	0	R1515T
1061.531	0.966	1128620	WORD_OFF	n/a	n/a	PENCIL	OfficeSupplies	8	5	[0, 0, 0]	n/a	catFR1	0	R1515T
1062.497	1.6	1129582	WORD	n/a	wordpools/wordpool_categorized_EN.txt	WASHER	Appliances	9	5	[0, 0, 0]	n/a	catFR1	0	R1515T
1064.097	0.967	1131183	WORD_OFF	n/a	n/a	WASHER	Appliances	9	5	[0, 0, 0]	n/a	catFR1	0	R1515T
1065.064	1.6	1132146	WORD	n/a	wordpools/wordpool_categorized_EN.txt	FREEZER	Appliances	10	5	[0, 0, 0]	n/a	catFR1	0	R1515T
1066.664	0.833	1133747	WORD_OFF	n/a	n/a	FREEZER	Appliances	10	5	[0, 0, 0]	n/a	catFR1	0	R1515T
1067.497	1.617	1134582	WORD	n/a	wordpools/wordpool_categorized_EN.txt	CELLO	Instruments	11	5	[0, 0, 0]	n/a	catFR1	0	R1515T
1069.114	0.816	1136202	WORD_OFF	n/a	n/a	CELLO	Instruments	11	5	[0, 0, 0]	n/a	catFR1	0	R1515T
1069.93	1.601	1137017	WORD	n/a	wordpools/wordpool_categorized_EN.txt	GUITAR	Instruments	12	5	[0, 0, 0]	n/a	catFR1	0	R1515T
1071.531	0.001	1138614	PROB	0.001	n/a	n/a	n/a	-999	5	[3, 6, 5]	14	catFR1	0	R1515T
1071.532	0.0	1138615	START	n/a	n/a	n/a	n/a	-999	5	[-999, -999, -999]	n/a	catFR1	0	R1515T
1071.531	0.001	1138618	WORD_OFF	n/a	n/a	GUITAR	Instruments	12	5	[0, 0, 0]	n/a	catFR1	0	R1515T
1071.532	0.0	1138618	ENCODING_END	n/a	n/a	n/a	n/a	-999	5	[0, 0, 0]	n/a	catFR1	0	R1515T
1071.532	7.348	1138618	DISTRACT_START	n/a	n/a	n/a	n/a	-999	5	[0, 0, 0]	n/a	catFR1	0	R1515T
1078.88	9.335	1145963	PROB	9.335	n/a	n/a	n/a	-999	5	[3, 6, 8]	17	catFR1	0	R1515T
1088.215	6.165	1155297	PROB	6.165	n/a	n/a	n/a	-999	5	[5, 3, 7]	15	catFR1	0	R1515T
1094.38	0.0	1161462	STOP	n/a	n/a	n/a	n/a	-999	5	[-999, -999, -999]	n/a	catFR1	0	R1515T
1094.38	1.083	1161464	DISTRACT_END	n/a	n/a	n/a	n/a	-999	5	[0, 0, 0]	n/a	catFR1	0	R1515T
1095.463	0.004	1162544	REC_START	n/a	n/a	n/a	n/a	-999	5	[0, 0, 0]	n/a	catFR1	0	R1515T
1095.467	1.0	1162549	REC_WORD_VV	1.0	n/a	<>	n/a	-999	5	[0, 0, 0]	n/a	catFR1	0	R1515T
1096.467	0.217	1163549	REC_WORD_VV	0.217	n/a	<>	n/a	-999	5	[0, 0, 0]	n/a	catFR1	0	R1515T
1096.684	0.705	1163766	REC_WORD	0.705	n/a	TUBA	Instruments	5	5	[0, 0, 0]	n/a	catFR1	0	R1515T
1097.389	1.0	1164471	REC_WORD	1.0	n/a	CELLO	Instruments	11	5	[0, 0, 0]	n/a	catFR1	0	R1515T
1098.389	0.26	1165471	REC_WORD	0.26	n/a	CELLO	Instruments	11	5	[0, 0, 0]	n/a	catFR1	0	R1515T
1098.649	1.0	1165731	REC_WORD	1.0	n/a	GUITAR	Instruments	12	5	[0, 0, 0]	n/a	catFR1	0	R1515T
1099.649	1.051	1166731	REC_WORD	1.051	n/a	GUITAR	Instruments	12	5	[0, 0, 0]	n/a	catFR1	0	R1515T
1100.7	1.0	1167782	REC_WORD_VV	1.0	n/a	<>	n/a	-999	5	[0, 0, 0]	n/a	catFR1	0	R1515T
1101.7	0.031	1168782	REC_WORD_VV	0.031	n/a	<>	n/a	-999	5	[0, 0, 0]	n/a	catFR1	0	R1515T
1101.731	1.0	1168813	REC_WORD	1.0	n/a	VACUUM	Appliances	1	5	[0, 0, 0]	n/a	catFR1	0	R1515T
1102.731	0.477	1169813	REC_WORD	0.477	n/a	VACUUM	Appliances	1	5	[0, 0, 0]	n/a	catFR1	0	R1515T
1103.208	1.0	1170290	REC_WORD	1.0	n/a	DRYER	Appliances	2	5	[0, 0, 0]	n/a	catFR1	0	R1515T
1104.208	1.43	1171289	REC_WORD	1.43	n/a	DRYER	Appliances	2	5	[0, 0, 0]	n/a	catFR1	0	R1515T
1105.638	1.0	1172719	REC_WORD	1.0	n/a	WASHER	Appliances	9	5	[0, 0, 0]	n/a	catFR1	0	R1515T
1106.638	2.676	1173719	REC_WORD	2.676	n/a	WASHER	Appliances	9	5	[0, 0, 0]	n/a	catFR1	0	R1515T
1109.314	0.633	1176395	REC_WORD_VV	0.633	n/a	<>	n/a	-999	5	[0, 0, 0]	n/a	catFR1	0	R1515T
1109.947	1.0	1177028	REC_WORD	1.0	n/a	VIOLIN	Instruments	6	5	[0, 0, 0]	n/a	catFR1	0	R1515T
1110.947	1.305	1178028	REC_WORD	1.305	n/a	VIOLIN	Instruments	6	5	[0, 0, 0]	n/a	catFR1	0	R1515T
1112.252	1.0	1179333	REC_WORD_VV	1.0	n/a	<>	n/a	-999	5	[0, 0, 0]	n/a	catFR1	0	R1515T
1113.252	2.601	1180333	REC_WORD_VV	2.601	n/a	<>	n/a	-999	5	[0, 0, 0]	n/a	catFR1	0	R1515T
1115.853	2.394	1182934	REC_WORD	2.394	n/a	GLUE	OfficeSupplies	3	5	[0, 0, 0]	n/a	catFR1	0	R1515T
1118.247	1.0	1185328	REC_WORD_VV	1.0	n/a	<>	n/a	-999	5	[0, 0, 0]	n/a	catFR1	0	R1515T
1119.247	7.449	1186328	REC_WORD_VV	7.449	n/a	<>	n/a	-999	5	[0, 0, 0]	n/a	catFR1	0	R1515T
1126.696	4.501	1193777	REC_END	n/a	n/a	n/a	n/a	-999	5	[0, 0, 0]	n/a	catFR1	0	R1515T
1131.197	10.35	1198286	COUNTDOWN_START	n/a	n/a	n/a	n/a	-999	5	[0, 0, 0]	n/a	catFR1	0	R1515T
1141.547	0.001	1208628	COUNTDOWN_END	n/a	n/a	n/a	n/a	-999	5	[0, 0, 0]	n/a	catFR1	0	R1515T
1141.548	2.232	1208628	ENCODING_START	n/a	n/a	n/a	n/a	-999	6	[0, 0, 0]	n/a	catFR1	0	R1515T
1143.78	1.6	1210867	WORD	n/a	wordpools/wordpool_categorized_EN.txt	CHICKEN	FarmAnimals	1	6	[0, 0, 0]	n/a	catFR1	0	R1515T
1145.38	0.884	1212458	WORD_OFF	n/a	n/a	CHICKEN	FarmAnimals	1	6	[0, 0, 0]	n/a	catFR1	0	R1515T
1146.264	1.616	1213342	WORD	n/a	wordpools/wordpool_categorized_EN.txt	HORSE	FarmAnimals	2	6	[0, 0, 0]	n/a	catFR1	0	R1515T
1147.88	0.9	1214963	WORD_OFF	n/a	n/a	HORSE	FarmAnimals	2	6	[0, 0, 0]	n/a	catFR1	0	R1515T
1148.78	1.6	1215867	WORD	n/a	wordpools/wordpool_categorized_EN.txt	LEMON	Fruit	3	6	[0, 0, 0]	n/a	catFR1	0	R1515T
1150.38	0.867	1217458	WORD_OFF	n/a	n/a	LEMON	Fruit	3	6	[0, 0, 0]	n/a	catFR1	0	R1515T
1151.247	1.616	1218332	WORD	n/a	wordpools/wordpool_categorized_EN.txt	STRAWBERRY	Fruit	4	6	[0, 0, 0]	n/a	catFR1	0	R1515T
1152.863	0.834	1219943	WORD_OFF	n/a	n/a	STRAWBERRY	Fruit	4	6	[0, 0, 0]	n/a	catFR1	0	R1515T
1153.697	1.601	1220777	WORD	n/a	wordpools/wordpool_categorized_EN.txt	IRON	Appliances	5	6	[0, 0, 0]	n/a	catFR1	0	R1515T
1155.298	0.766	1222378	WORD_OFF	n/a	n/a	IRON	Appliances	5	6	[0, 0, 0]	n/a	catFR1	0	R1515T
1156.064	1.616	1223145	WORD	n/a	wordpools/wordpool_categorized_EN.txt	OVEN	Appliances	6	6	[0, 0, 0]	n/a	catFR1	0	R1515T
1157.68	0.85	1224765	WORD_OFF	n/a	n/a	OVEN	Appliances	6	6	[0, 0, 0]	n/a	catFR1	0	R1515T
1158.53	1.6	1225610	WORD	n/a	wordpools/wordpool_categorized_EN.txt	BLUEBERRY	Fruit	7	6	[0, 0, 0]	n/a	catFR1	0	R1515T
1160.13	0.95	1227211	WORD_OFF	n/a	n/a	BLUEBERRY	Fruit	7	6	[0, 0, 0]	n/a	catFR1	0	R1515T
1161.08	1.601	1228163	WORD	n/a	wordpools/wordpool_categorized_EN.txt	PEACH	Fruit	8	6	[0, 0, 0]	n/a	catFR1	0	R1515T
1162.681	0.983	1229764	WORD_OFF	n/a	n/a	PEACH	Fruit	8	6	[0, 0, 0]	n/a	catFR1	0	R1515T
1163.664	1.617	1230747	WORD	n/a	wordpools/wordpool_categorized_EN.txt	MIXER	Appliances	9	6	[0, 0, 0]	n/a	catFR1	0	R1515T
1165.281	0.983	1232367	WORD_OFF	n/a	n/a	MIXER	Appliances	9	6	[0, 0, 0]	n/a	catFR1	0	R1515T
1166.264	1.617	1233349	WORD	n/a	wordpools/wordpool_categorized_EN.txt	TOASTER	Appliances	10	6	[0, 0, 0]	n/a	catFR1	0	R1515T
1167.881	0.849	1234960	WORD_OFF	n/a	n/a	TOASTER	Appliances	10	6	[0, 0, 0]	n/a	catFR1	0	R1515T
1168.73	1.6	1235815	WORD	n/a	wordpools/wordpool_categorized_EN.txt	COW	FarmAnimals	11	6	[0, 0, 0]	n/a	catFR1	0	R1515T
1170.33	0.784	1237416	WORD_OFF	n/a	n/a	COW	FarmAnimals	11	6	[0, 0, 0]	n/a	catFR1	0	R1515T
1171.114	1.617	1238192	WORD	n/a	wordpools/wordpool_categorized_EN.txt	GOAT	FarmAnimals	12	6	[0, 0, 0]	n/a	catFR1	0	R1515T
1172.731	0.001	1239809	PROB	0.001	n/a	n/a	n/a	-999	6	[4, 5, 8]	17	catFR1	0	R1515T
1172.732	0.0	1239810	START	n/a	n/a	n/a	n/a	-999	6	[-999, -999, -999]	n/a	catFR1	0	R1515T
1172.731	0.001	1239812	WORD_OFF	n/a	n/a	GOAT	FarmAnimals	12	6	[0, 0, 0]	n/a	catFR1	0	R1515T
1172.732	0.0	1239812	ENCODING_END	n/a	n/a	n/a	n/a	-999	6	[0, 0, 0]	n/a	catFR1	0	R1515T
1172.732	8.982	1239812	DISTRACT_START	n/a	n/a	n/a	n/a	-999	6	[0, 0, 0]	n/a	catFR1	0	R1515T
1181.714	4.3	1248792	PROB	4.3	n/a	n/a	n/a	-999	6	[8, 2, 8]	18	catFR1	0	R1515T
1186.014	6.416	1253091	PROB	6.416	n/a	n/a	n/a	-999	6	[5, 4, 6]	15	catFR1	0	R1515T
1192.43	7.367	1259507	PROB	7.367	n/a	n/a	n/a	-999	6	[8, 4, 5]	17	catFR1	0	R1515T
1199.797	0.0	1266874	STOP	n/a	n/a	n/a	n/a	-999	6	[-999, -999, -999]	n/a	catFR1	0	R1515T
1199.797	1.216	1266881	DISTRACT_END	n/a	n/a	n/a	n/a	-999	6	[0, 0, 0]	n/a	catFR1	0	R1515T
1201.013	0.342	1268089	REC_START	n/a	n/a	n/a	n/a	-999	6	[0, 0, 0]	n/a	catFR1	0	R1515T
1201.355	0.243	1268432	REC_WORD_VV	0.243	n/a	<>	n/a	-999	6	[0, 0, 0]	n/a	catFR1	0	R1515T
1201.598	1.0	1268675	REC_WORD	1.0	n/a	STRAWBERRY	Fruit	4	6	[0, 0, 0]	n/a	catFR1	0	R1515T
1202.598	1.956	1269674	REC_WORD	1.956	n/a	STRAWBERRY	Fruit	4	6	[0, 0, 0]	n/a	catFR1	0	R1515T
1204.554	1.0	1271630	REC_WORD	1.0	n/a	LEMON	Fruit	3	6	[0, 0, 0]	n/a	catFR1	0	R1515T
1205.554	2.66	1272630	REC_WORD	2.66	n/a	LEMON	Fruit	3	6	[0, 0, 0]	n/a	catFR1	0	R1515T
1208.214	1.0	1275290	REC_WORD	1.0	n/a	STRAWBERRY	Fruit	4	6	[0, 0, 0]	n/a	catFR1	0	R1515T
1209.214	0.113	1276290	REC_WORD	0.113	n/a	STRAWBERRY	Fruit	4	6	[0, 0, 0]	n/a	catFR1	0	R1515T
1209.327	1.0	1276403	REC_WORD	1.0	n/a	LEMON	Fruit	3	6	[0, 0, 0]	n/a	catFR1	0	R1515T
1210.327	1.446	1277403	REC_WORD	1.446	n/a	LEMON	Fruit	3	6	[0, 0, 0]	n/a	catFR1	0	R1515T
1211.773	1.0	1278849	REC_WORD_VV	1.0	n/a	<>	n/a	-999	6	[0, 0, 0]	n/a	catFR1	0	R1515T
1212.773	1.0	1279849	REC_WORD_VV	1.0	n/a	<>	n/a	-999	6	[0, 0, 0]	n/a	catFR1	0	R1515T
1213.773	5.332	1280849	REC_WORD_VV	5.332	n/a	<>	n/a	-999	6	[0, 0, 0]	n/a	catFR1	0	R1515T
1219.105	1.0	1286181	REC_WORD_VV	1.0	n/a	<>	n/a	-999	6	[0, 0, 0]	n/a	catFR1	0	R1515T
1220.105	0.955	1287181	REC_WORD_VV	0.955	n/a	<>	n/a	-999	6	[0, 0, 0]	n/a	catFR1	0	R1515T
1221.06	0.633	1288136	REC_WORD	0.633	n/a	STRAWBERRY	Fruit	4	6	[0, 0, 0]	n/a	catFR1	0	R1515T
1221.693	1.116	1288768	REC_WORD	1.116	n/a	LEMON	Fruit	3	6	[0, 0, 0]	n/a	catFR1	0	R1515T
1222.809	0.528	1289884	REC_WORD_VV	0.528	n/a	<>	n/a	-999	6	[0, 0, 0]	n/a	catFR1	0	R1515T
1223.337	1.0	1290412	REC_WORD	1.0	n/a	HORSE	FarmAnimals	2	6	[0, 0, 0]	n/a	catFR1	0	R1515T
1224.337	0.661	1291412	REC_WORD	0.661	n/a	HORSE	FarmAnimals	2	6	[0, 0, 0]	n/a	catFR1	0	R1515T
1224.998	0.397	1292073	REC_WORD_VV	0.397	n/a	<>	n/a	-999	6	[0, 0, 0]	n/a	catFR1	0	R1515T
1225.395	1.0	1292470	REC_WORD	1.0	n/a	COW	FarmAnimals	11	6	[0, 0, 0]	n/a	catFR1	0	R1515T
1226.395	2.393	1293470	REC_WORD	2.393	n/a	COW	FarmAnimals	11	6	[0, 0, 0]	n/a	catFR1	0	R1515T
1228.788	1.46	1295863	REC_WORD_VV	1.46	n/a	<>	n/a	-999	6	[0, 0, 0]	n/a	catFR1	0	R1515T
1230.248	1.98	1297323	REC_WORD	1.98	n/a	PIG	FarmAnimals	-999	6	[0, 0, 0]	n/a	catFR1	0	R1515T
1232.228	6.919	1299303	REC_END	n/a	n/a	n/a	n/a	-999	6	[0, 0, 0]	n/a	catFR1	0	R1515T
1239.147	10.349	1306227	COUNTDOWN_START	n/a	n/a	n/a	n/a	-999	6	[0, 0, 0]	n/a	catFR1	0	R1515T
1249.496	0.0	1316569	COUNTDOWN_END	n/a	n/a	n/a	n/a	-999	6	[0, 0, 0]	n/a	catFR1	0	R1515T
1249.496	2.284	1316579	ENCODING_START	n/a	n/a	n/a	n/a	-999	7	[0, 0, 0]	n/a	catFR1	0	R1515T
1251.78	1.601	1318858	WORD	n/a	wordpools/wordpool_categorized_EN.txt	OYSTER	OceanAnimals	1	7	[0, 0, 0]	n/a	catFR1	0	R1515T
1253.381	1.0	1320459	WORD_OFF	n/a	n/a	OYSTER	OceanAnimals	1	7	[0, 0, 0]	n/a	catFR1	0	R1515T
1254.381	1.616	1321460	WORD	n/a	wordpools/wordpool_categorized_EN.txt	TURTLE	OceanAnimals	2	7	[0, 0, 0]	n/a	catFR1	0	R1515T
1255.997	0.884	1323071	WORD_OFF	n/a	n/a	TURTLE	OceanAnimals	2	7	[0, 0, 0]	n/a	catFR1	0	R1515T
1256.881	1.599	1323955	WORD	n/a	wordpools/wordpool_categorized_EN.txt	PLIERS	Tools	3	7	[0, 0, 0]	n/a	catFR1	0	R1515T
1258.48	0.95	1325556	WORD_OFF	n/a	n/a	PLIERS	Tools	3	7	[0, 0, 0]	n/a	catFR1	0	R1515T
1259.43	1.601	1326509	WORD	n/a	wordpools/wordpool_categorized_EN.txt	CROWBAR	Tools	4	7	[0, 0, 0]	n/a	catFR1	0	R1515T
1261.031	0.766	1328110	WORD_OFF	n/a	n/a	CROWBAR	Tools	4	7	[0, 0, 0]	n/a	catFR1	0	R1515T
1261.797	1.6	1328876	WORD	n/a	wordpools/wordpool_categorized_EN.txt	VAN	Vehicles	5	7	[0, 0, 0]	n/a	catFR1	0	R1515T
1263.397	0.933	1330477	WORD_OFF	n/a	n/a	VAN	Vehicles	5	7	[0, 0, 0]	n/a	catFR1	0	R1515T
1264.33	1.6	1331410	WORD	n/a	wordpools/wordpool_categorized_EN.txt	BOAT	Vehicles	6	7	[0, 0, 0]	n/a	catFR1	0	R1515T
1265.93	0.984	1333011	WORD_OFF	n/a	n/a	BOAT	Vehicles	6	7	[0, 0, 0]	n/a	catFR1	0	R1515T
1266.914	1.616	1333993	WORD	n/a	wordpools/wordpool_categorized_EN.txt	DOLPHIN	OceanAnimals	7	7	[0, 0, 0]	n/a	catFR1	0	R1515T
1268.53	0.801	1335604	WORD_OFF	n/a	n/a	DOLPHIN	OceanAnimals	7	7	[0, 0, 0]	n/a	catFR1	0	R1515T
1269.331	1.6	1336409	WORD	n/a	wordpools/wordpool_categorized_EN.txt	SHRIMP	OceanAnimals	8	7	[0, 0, 0]	n/a	catFR1	0	R1515T
1270.931	0.933	1338010	WORD_OFF	n/a	n/a	SHRIMP	OceanAnimals	8	7	[0, 0, 0]	n/a	catFR1	0	R1515T
1271.864	1.616	1338943	WORD	n/a	wordpools/wordpool_categorized_EN.txt	SHOVEL	Tools	9	7	[0, 0, 0]	n/a	catFR1	0	R1515T
1273.48	0.883	1340554	WORD_OFF	n/a	n/a	SHOVEL	Tools	9	7	[0, 0, 0]	n/a	catFR1	0	R1515T
1274.363	1.601	1341438	WORD	n/a	wordpools/wordpool_categorized_EN.txt	LEVEL	Tools	10	7	[0, 0, 0]	n/a	catFR1	0	R1515T
1275.964	0.797	1343039	WORD_OFF	n/a	n/a	LEVEL	Tools	10	7	[0, 0, 0]	n/a	catFR1	0	R1515T
1276.761	1.602	1343835	WORD	n/a	wordpools/wordpool_categorized_EN.txt	CAR	Vehicles	11	7	[0, 0, 0]	n/a	catFR1	0	R1515T
1278.363	0.817	1345435	WORD_OFF	n/a	n/a	CAR	Vehicles	11	7	[0, 0, 0]	n/a	catFR1	0	R1515T
1279.18	1.601	1346260	WORD	n/a	wordpools/wordpool_categorized_EN.txt	MOTORCYCLE	Vehicles	12	7	[0, 0, 0]	n/a	catFR1	0	R1515T
1280.781	0.001	1347853	PROB	0.001	n/a	n/a	n/a	-999	7	[7, 7, 8]	22	catFR1	0	R1515T
1280.782	0.0	1347854	START	n/a	n/a	n/a	n/a	-999	7	[-999, -999, -999]	n/a	catFR1	0	R1515T
1280.78	0.002	1347857	WORD_OFF	n/a	n/a	MOTORCYCLE	Vehicles	12	7	[0, 0, 0]	n/a	catFR1	0	R1515T
1280.782	0.0	1347861	ENCODING_END	n/a	n/a	n/a	n/a	-999	7	[0, 0, 0]	n/a	catFR1	0	R1515T
1280.782	5.833	1347861	DISTRACT_START	n/a	n/a	n/a	n/a	-999	7	[0, 0, 0]	n/a	catFR1	0	R1515T
1286.615	11.364	1353687	PROB	11.364	n/a	n/a	n/a	-999	7	[5, 7, 6]	18	catFR1	0	R1515T
1297.979	7.167	1365051	PROB	7.167	n/a	n/a	n/a	-999	7	[8, 8, 8]	24	catFR1	0	R1515T
1305.146	0.0	1372217	STOP	n/a	n/a	n/a	n/a	-999	7	[-999, -999, -999]	n/a	catFR1	0	R1515T
1305.146	1.301	1372219	DISTRACT_END	n/a	n/a	n/a	n/a	-999	7	[0, 0, 0]	n/a	catFR1	0	R1515T
1306.447	0.393	1373526	REC_START	n/a	n/a	n/a	n/a	-999	7	[0, 0, 0]	n/a	catFR1	0	R1515T
1306.84	0.918	1373911	REC_WORD	0.918	n/a	PLIER	n/a	-999	7	[0, 0, 0]	n/a	catFR1	0	R1515T
1307.758	1.0	1374829	REC_WORD	1.0	n/a	LEVEL	Tools	10	7	[0, 0, 0]	n/a	catFR1	0	R1515T
1308.758	1.342	1375829	REC_WORD	1.342	n/a	LEVEL	Tools	10	7	[0, 0, 0]	n/a	catFR1	0	R1515T
1310.1	1.0	1377171	REC_WORD_VV	1.0	n/a	<>	n/a	-999	7	[0, 0, 0]	n/a	catFR1	0	R1515T
1311.1	3.683	1378171	REC_WORD_VV	3.683	n/a	<>	n/a	-999	7	[0, 0, 0]	n/a	catFR1	0	R1515T
1314.783	1.0	1381854	REC_WORD_VV	1.0	n/a	<>	n/a	-999	7	[0, 0, 0]	n/a	catFR1	0	R1515T
1315.783	8.008	1382854	REC_WORD_VV	8.008	n/a	<>	n/a	-999	7	[0, 0, 0]	n/a	catFR1	0	R1515T
1323.791	1.0	1390861	REC_WORD	1.0	n/a	DOLPHIN	OceanAnimals	7	7	[0, 0, 0]	n/a	catFR1	0	R1515T
1324.791	1.735	1391861	REC_WORD	1.735	n/a	DOLPHIN	OceanAnimals	7	7	[0, 0, 0]	n/a	catFR1	0	R1515T
1326.526	1.601	1393596	REC_WORD	1.601	n/a	TURTLE	OceanAnimals	2	7	[0, 0, 0]	n/a	catFR1	0	R1515T
1328.127	8.079	1395197	REC_WORD	8.079	n/a	SHRIMP	OceanAnimals	8	7	[0, 0, 0]	n/a	catFR1	0	R1515T
1336.206	1.476	1403276	REC_WORD_VV	1.476	n/a	<>	n/a	-999	7	[0, 0, 0]	n/a	catFR1	0	R1515T
1337.682	2.882	1404759	REC_END	n/a	n/a	n/a	n/a	-999	7	[0, 0, 0]	n/a	catFR1	0	R1515T
1340.564	10.349	1407637	COUNTDOWN_START	n/a	n/a	n/a	n/a	-999	7	[0, 0, 0]	n/a	catFR1	0	R1515T
1350.913	0.0	1417989	COUNTDOWN_END	n/a	n/a	n/a	n/a	-999	7	[0, 0, 0]	n/a	catFR1	0	R1515T
1350.913	2.118	1417989	ENCODING_START	n/a	n/a	n/a	n/a	-999	8	[0, 0, 0]	n/a	catFR1	0	R1515T
1353.031	1.599	1420101	WORD	n/a	wordpools/wordpool_categorized_EN.txt	DOLL	Toys	1	8	[0, 0, 0]	n/a	catFR1	0	R1515T
1354.63	0.934	1421702	WORD_OFF	n/a	n/a	DOLL	Toys	1	8	[0, 0, 0]	n/a	catFR1	0	R1515T
1355.564	1.6	1422635	WORD	n/a	wordpools/wordpool_categorized_EN.txt	SLINKY	Toys	2	8	[0, 0, 0]	n/a	catFR1	0	R1515T
1357.164	0.95	1424236	WORD_OFF	n/a	n/a	SLINKY	Toys	2	8	[0, 0, 0]	n/a	catFR1	0	R1515T
1358.114	1.616	1425188	WORD	n/a	wordpools/wordpool_categorized_EN.txt	RADIO	Electronics	3	8	[0, 0, 0]	n/a	catFR1	0	R1515T
1359.73	0.867	1426799	WORD_OFF	n/a	n/a	RADIO	Electronics	3	8	[0, 0, 0]	n/a	catFR1	0	R1515T
1360.597	1.6	1427673	WORD	n/a	wordpools/wordpool_categorized_EN.txt	CALCULATOR	Electronics	4	8	[0, 0, 0]	n/a	catFR1	0	R1515T
1362.197	0.849	1429264	WORD_OFF	n/a	n/a	CALCULATOR	Electronics	4	8	[0, 0, 0]	n/a	catFR1	0	R1515T
1363.046	1.601	1430119	WORD	n/a	wordpools/wordpool_categorized_EN.txt	LOBSTER	OceanAnimals	5	8	[0, 0, 0]	n/a	catFR1	0	R1515T
1364.647	0.833	1431720	WORD_OFF	n/a	n/a	LOBSTER	OceanAnimals	5	8	[0, 0, 0]	n/a	catFR1	0	R1515T
1365.48	1.601	1432555	WORD	n/a	wordpools/wordpool_categorized_EN.txt	CRAB	OceanAnimals	6	8	[0, 0, 0]	n/a	catFR1	0	R1515T
1367.081	0.816	1434156	WORD_OFF	n/a	n/a	CRAB	OceanAnimals	6	8	[0, 0, 0]	n/a	catFR1	0	R1515T
1367.897	1.6	1434971	WORD	n/a	wordpools/wordpool_categorized_EN.txt	FRISBEE	Toys	7	8	[0, 0, 0]	n/a	catFR1	0	R1515T
1369.497	0.883	1436572	WORD_OFF	n/a	n/a	FRISBEE	Toys	7	8	[0, 0, 0]	n/a	catFR1	0	R1515T
1370.38	1.601	1437456	WORD	n/a	wordpools/wordpool_categorized_EN.txt	PUZZLE	Toys	8	8	[0, 0, 0]	n/a	catFR1	0	R1515T
1371.981	0.933	1439047	WORD_OFF	n/a	n/a	PUZZLE	Toys	8	8	[0, 0, 0]	n/a	catFR1	0	R1515T
1372.914	1.6	1439990	WORD	n/a	wordpools/wordpool_categorized_EN.txt	TABLET	Electronics	9	8	[0, 0, 0]	n/a	catFR1	0	R1515T
1374.514	0.784	1441581	WORD_OFF	n/a	n/a	TABLET	Electronics	9	8	[0, 0, 0]	n/a	catFR1	0	R1515T
1375.298	1.615	1442367	WORD	n/a	wordpools/wordpool_categorized_EN.txt	SPEAKER	Electronics	10	8	[0, 0, 0]	n/a	catFR1	0	R1515T
1376.913	0.867	1443987	WORD_OFF	n/a	n/a	SPEAKER	Electronics	10	8	[0, 0, 0]	n/a	catFR1	0	R1515T
1377.78	1.617	1444851	WORD	n/a	wordpools/wordpool_categorized_EN.txt	WHALE	OceanAnimals	11	8	[0, 0, 0]	n/a	catFR1	0	R1515T
1379.397	0.867	1446462	WORD_OFF	n/a	n/a	WHALE	OceanAnimals	11	8	[0, 0, 0]	n/a	catFR1	0	R1515T
1380.264	1.617	1447336	WORD	n/a	wordpools/wordpool_categorized_EN.txt	JELLYFISH	OceanAnimals	12	8	[0, 0, 0]	n/a	catFR1	0	R1515T
1381.881	0.0	1448947	WORD_OFF	n/a	n/a	JELLYFISH	OceanAnimals	12	8	[0, 0, 0]	n/a	catFR1	0	R1515T
1381.881	0.001	1448948	PROB	0.001	n/a	n/a	n/a	-999	8	[7, 7, 2]	16	catFR1	0	R1515T
1381.882	0.0	1448949	START	n/a	n/a	n/a	n/a	-999	8	[-999, -999, -999]	n/a	catFR1	0	R1515T
1381.882	0.0	1448957	ENCODING_END	n/a	n/a	n/a	n/a	-999	8	[0, 0, 0]	n/a	catFR1	0	R1515T
1381.882	4.049	1448957	DISTRACT_START	n/a	n/a	n/a	n/a	-999	8	[0, 0, 0]	n/a	catFR1	0	R1515T
1385.931	5.749	1452998	PROB	5.749	n/a	n/a	n/a	-999	8	[6, 8, 4]	18	catFR1	0	R1515T
1391.68	6.935	1458747	PROB	6.935	n/a	n/a	n/a	-999	8	[2, 7, 8]	17	catFR1	0	R1515T
1398.615	4.249	1465681	PROB	4.249	n/a	n/a	n/a	-999	8	[3, 2, 1]	6	catFR1	0	R1515T
1402.864	0.0	1469930	STOP	n/a	n/a	n/a	n/a	-999	8	[-999, -999, -999]	n/a	catFR1	0	R1515T
1402.864	1.066	1469936	DISTRACT_END	n/a	n/a	n/a	n/a	-999	8	[0, 0, 0]	n/a	catFR1	0	R1515T
1403.93	0.634	1470997	REC_START	n/a	n/a	n/a	n/a	-999	8	[0, 0, 0]	n/a	catFR1	0	R1515T
1404.564	1.0	1471630	REC_WORD	1.0	n/a	DOLL	Toys	1	8	[0, 0, 0]	n/a	catFR1	0	R1515T
1405.564	2.408	1472630	REC_WORD	2.408	n/a	DOLL	Toys	1	8	[0, 0, 0]	n/a	catFR1	0	R1515T
1407.972	1.0	1475038	REC_WORD	1.0	n/a	JELLYFISH	OceanAnimals	12	8	[0, 0, 0]	n/a	catFR1	0	R1515T
1408.972	1.461	1476038	REC_WORD	1.461	n/a	JELLYFISH	OceanAnimals	12	8	[0, 0, 0]	n/a	catFR1	0	R1515T
1410.433	1.691	1477499	REC_WORD_VV	1.691	n/a	<>	n/a	-999	8	[0, 0, 0]	n/a	catFR1	0	R1515T
1412.124	1.0	1479190	REC_WORD	1.0	n/a	FRISBEE	Toys	7	8	[0, 0, 0]	n/a	catFR1	0	R1515T
1413.124	1.828	1480190	REC_WORD	1.828	n/a	FRISBEE	Toys	7	8	[0, 0, 0]	n/a	catFR1	0	R1515T
1414.952	0.158	1482018	REC_WORD_VV	0.158	n/a	<>	n/a	-999	8	[0, 0, 0]	n/a	catFR1	0	R1515T
1415.11	1.0	1482176	REC_WORD	1.0	n/a	RADIO	Electronics	3	8	[0, 0, 0]	n/a	catFR1	0	R1515T
1416.11	3.597	1483176	REC_WORD	3.597	n/a	RADIO	Electronics	3	8	[0, 0, 0]	n/a	catFR1	0	R1515T
1419.707	1.0	1486772	REC_WORD_VV	1.0	n/a	<>	n/a	-999	8	[0, 0, 0]	n/a	catFR1	0	R1515T
1420.707	4.235	1487772	REC_WORD_VV	4.235	n/a	<>	n/a	-999	8	[0, 0, 0]	n/a	catFR1	0	R1515T
1424.942	1.657	1492007	REC_WORD	1.657	n/a	RADIO	Electronics	3	8	[0, 0, 0]	n/a	catFR1	0	R1515T
1426.599	0.109	1493664	REC_WORD_VV	0.109	n/a	<>	n/a	-999	8	[0, 0, 0]	n/a	catFR1	0	R1515T
1426.708	1.0	1493773	REC_WORD	1.0	n/a	SLINKY	Toys	2	8	[0, 0, 0]	n/a	catFR1	0	R1515T
1427.708	2.295	1494773	REC_WORD	2.295	n/a	SLINKY	Toys	2	8	[0, 0, 0]	n/a	catFR1	0	R1515T
1430.003	2.555	1497068	REC_WORD_VV	2.555	n/a	<>	n/a	-999	8	[0, 0, 0]	n/a	catFR1	0	R1515T
1432.558	1.0	1499623	REC_WORD_VV	1.0	n/a	<>	n/a	-999	8	[0, 0, 0]	n/a	catFR1	0	R1515T
1433.558	1.607	1500623	REC_WORD_VV	1.607	n/a	<>	n/a	-999	8	[0, 0, 0]	n/a	catFR1	0	R1515T
1435.165	3.399	1502230	REC_END	n/a	n/a	n/a	n/a	-999	8	[0, 0, 0]	n/a	catFR1	0	R1515T
1438.564	10.35	1505638	COUNTDOWN_START	n/a	n/a	n/a	n/a	-999	8	[0, 0, 0]	n/a	catFR1	0	R1515T
1448.914	0.0	1515981	COUNTDOWN_END	n/a	n/a	n/a	n/a	-999	8	[0, 0, 0]	n/a	catFR1	0	R1515T
1448.914	1.95	1515981	ENCODING_START	n/a	n/a	n/a	n/a	-999	9	[0, 0, 0]	n/a	catFR1	0	R1515T
1450.864	1.6	1517935	WORD	n/a	wordpools/wordpool_categorized_EN.txt	DISHWASHER	Appliances	1	9	[0, 0, 0]	n/a	catFR1	0	R1515T
1452.464	0.883	1519526	WORD_OFF	n/a	n/a	DISHWASHER	Appliances	1	9	[0, 0, 0]	n/a	catFR1	0	R1515T
1453.347	1.617	1520410	WORD	n/a	wordpools/wordpool_categorized_EN.txt	STOVE	Appliances	2	9	[0, 0, 0]	n/a	catFR1	0	R1515T
1454.964	0.85	1522031	WORD_OFF	n/a	n/a	STOVE	Appliances	2	9	[0, 0, 0]	n/a	catFR1	0	R1515T
1455.814	1.616	1522876	WORD	n/a	wordpools/wordpool_categorized_EN.txt	SANDER	Tools	3	9	[0, 0, 0]	n/a	catFR1	0	R1515T
1457.43	0.868	1524496	WORD_OFF	n/a	n/a	SANDER	Tools	3	9	[0, 0, 0]	n/a	catFR1	0	R1515T
1458.298	1.616	1525361	WORD	n/a	wordpools/wordpool_categorized_EN.txt	WRENCH	Tools	4	9	[0, 0, 0]	n/a	catFR1	0	R1515T
1459.914	0.966	1526981	WORD_OFF	n/a	n/a	WRENCH	Tools	4	9	[0, 0, 0]	n/a	catFR1	0	R1515T
1460.88	1.6	1527944	WORD	n/a	wordpools/wordpool_categorized_EN.txt	LIME	Fruit	5	9	[0, 0, 0]	n/a	catFR1	0	R1515T
1462.48	0.833	1529545	WORD_OFF	n/a	n/a	LIME	Fruit	5	9	[0, 0, 0]	n/a	catFR1	0	R1515T
1463.313	1.6	1530380	WORD	n/a	wordpools/wordpool_categorized_EN.txt	BANANA	Fruit	6	9	[0, 0, 0]	n/a	catFR1	0	R1515T
1464.913	0.984	1531980	WORD_OFF	n/a	n/a	BANANA	Fruit	6	9	[0, 0, 0]	n/a	catFR1	0	R1515T
1465.897	1.617	1532963	WORD	n/a	wordpools/wordpool_categorized_EN.txt	REFRIGERATOR	Appliances	7	9	[0, 0, 0]	n/a	catFR1	0	R1515T
1467.514	0.932	1534583	WORD_OFF	n/a	n/a	REFRIGERATOR	Appliances	7	9	[0, 0, 0]	n/a	catFR1	0	R1515T
1468.446	1.601	1535516	WORD	n/a	wordpools/wordpool_categorized_EN.txt	BLENDER	Appliances	8	9	[0, 0, 0]	n/a	catFR1	0	R1515T
1470.047	0.983	1537117	WORD_OFF	n/a	n/a	BLENDER	Appliances	8	9	[0, 0, 0]	n/a	catFR1	0	R1515T
1471.03	1.601	1538099	WORD	n/a	wordpools/wordpool_categorized_EN.txt	HAMMER	Tools	9	9	[0, 0, 0]	n/a	catFR1	0	R1515T
1472.631	0.816	1539700	WORD_OFF	n/a	n/a	HAMMER	Tools	9	9	[0, 0, 0]	n/a	catFR1	0	R1515T
1473.447	1.616	1540516	WORD	n/a	wordpools/wordpool_categorized_EN.txt	SAW	Tools	10	9	[0, 0, 0]	n/a	catFR1	0	R1515T
1475.063	0.834	1542126	WORD_OFF	n/a	n/a	SAW	Tools	10	9	[0, 0, 0]	n/a	catFR1	0	R1515T
1475.897	1.6	1542961	WORD	n/a	wordpools/wordpool_categorized_EN.txt	CHERRY	Fruit	11	9	[0, 0, 0]	n/a	catFR1	0	R1515T
1477.497	0.784	1544562	WORD_OFF	n/a	n/a	CHERRY	Fruit	11	9	[0, 0, 0]	n/a	catFR1	0	R1515T
1478.281	1.601	1545348	WORD	n/a	wordpools/wordpool_categorized_EN.txt	PEAR	Fruit	12	9	[0, 0, 0]	n/a	catFR1	0	R1515T
1479.882	0.0	1546944	START	n/a	n/a	n/a	n/a	-999	9	[-999, -999, -999]	n/a	catFR1	0	R1515T
1479.882	0.0	1546944	PROB	0.0	n/a	n/a	n/a	-999	9	[2, 7, 8]	17	catFR1	0	R1515T
1479.88	0.002	1546949	WORD_OFF	n/a	n/a	PEAR	Fruit	12	9	[0, 0, 0]	n/a	catFR1	0	R1515T
1479.882	0.0	1546949	ENCODING_END	n/a	n/a	n/a	n/a	-999	9	[0, 0, 0]	n/a	catFR1	0	R1515T
1479.882	10.216	1546949	DISTRACT_START	n/a	n/a	n/a	n/a	-999	9	[0, 0, 0]	n/a	catFR1	0	R1515T
1490.098	6.182	1557160	PROB	6.182	n/a	n/a	n/a	-999	9	[8, 8, 5]	21	catFR1	0	R1515T
1496.28	7.734	1563341	PROB	7.734	n/a	n/a	n/a	-999	9	[2, 5, 4]	11	catFR1	0	R1515T
1504.014	0.0	1571075	STOP	n/a	n/a	n/a	n/a	-999	9	[-999, -999, -999]	n/a	catFR1	0	R1515T
1504.014	1.083	1571081	DISTRACT_END	n/a	n/a	n/a	n/a	-999	9	[0, 0, 0]	n/a	catFR1	0	R1515T
1505.097	0.57	1572161	REC_START	n/a	n/a	n/a	n/a	-999	9	[0, 0, 0]	n/a	catFR1	0	R1515T
1505.667	1.0	1572728	REC_WORD	1.0	n/a	REFRIGERATOR	Appliances	7	9	[0, 0, 0]	n/a	catFR1	0	R1515T
1506.667	0.777	1573728	REC_WORD	0.777	n/a	REFRIGERATOR	Appliances	7	9	[0, 0, 0]	n/a	catFR1	0	R1515T
1507.444	1.0	1574505	REC_WORD	1.0	n/a	DISHWASHER	Appliances	1	9	[0, 0, 0]	n/a	catFR1	0	R1515T
1508.444	1.389	1575505	REC_WORD	1.389	n/a	DISHWASHER	Appliances	1	9	[0, 0, 0]	n/a	catFR1	0	R1515T
1509.833	7.398	1576894	REC_WORD_VV	7.398	n/a	<>	n/a	-999	9	[0, 0, 0]	n/a	catFR1	0	R1515T
1517.231	0.326	1584291	REC_WORD_VV	0.326	n/a	<>	n/a	-999	9	[0, 0, 0]	n/a	catFR1	0	R1515T
1517.557	1.0	1584617	REC_WORD	1.0	n/a	STOVE	Appliances	2	9	[0, 0, 0]	n/a	catFR1	0	R1515T
1518.557	0.863	1585617	REC_WORD	0.863	n/a	STOVE	Appliances	2	9	[0, 0, 0]	n/a	catFR1	0	R1515T
1519.42	1.0	1586480	REC_WORD	1.0	n/a	LIME	Fruit	5	9	[0, 0, 0]	n/a	catFR1	0	R1515T
1520.42	2.482	1587480	REC_WORD	2.482	n/a	LIME	Fruit	5	9	[0, 0, 0]	n/a	catFR1	0	R1515T
1522.902	1.0	1589962	REC_WORD_VV	1.0	n/a	<>	n/a	-999	9	[0, 0, 0]	n/a	catFR1	0	R1515T
1523.902	1.683	1590962	REC_WORD_VV	1.683	n/a	<>	n/a	-999	9	[0, 0, 0]	n/a	catFR1	0	R1515T
1525.585	1.0	1592645	REC_WORD	1.0	n/a	BLENDER	Appliances	8	9	[0, 0, 0]	n/a	catFR1	0	R1515T
1526.585	2.516	1593645	REC_WORD	2.516	n/a	BLENDER	Appliances	8	9	[0, 0, 0]	n/a	catFR1	0	R1515T
1529.101	7.227	1596161	REC_WORD_VV	7.227	n/a	<>	n/a	-999	9	[0, 0, 0]	n/a	catFR1	0	R1515T
1536.328	3.035	1603395	REC_END	n/a	n/a	n/a	n/a	-999	9	[0, 0, 0]	n/a	catFR1	0	R1515T
1539.363	10.351	1606430	COUNTDOWN_START	n/a	n/a	n/a	n/a	-999	9	[0, 0, 0]	n/a	catFR1	0	R1515T
1549.714	0.0	1616772	COUNTDOWN_END	n/a	n/a	n/a	n/a	-999	9	[0, 0, 0]	n/a	catFR1	0	R1515T
1549.714	2.249	1616782	ENCODING_START	n/a	n/a	n/a	n/a	-999	10	[0, 0, 0]	n/a	catFR1	0	R1515T
1551.963	1.601	1619021	WORD	n/a	wordpools/wordpool_categorized_EN.txt	ROACH	Insects	1	10	[0, 0, 0]	n/a	catFR1	0	R1515T
1553.564	0.983	1620622	WORD_OFF	n/a	n/a	ROACH	Insects	1	10	[0, 0, 0]	n/a	catFR1	0	R1515T
1554.547	1.617	1621614	WORD	n/a	wordpools/wordpool_categorized_EN.txt	GNAT	Insects	2	10	[0, 0, 0]	n/a	catFR1	0	R1515T
1556.164	0.833	1623225	WORD_OFF	n/a	n/a	GNAT	Insects	2	10	[0, 0, 0]	n/a	catFR1	0	R1515T
1556.997	1.6	1624060	WORD	n/a	wordpools/wordpool_categorized_EN.txt	DENIM	Fabric	3	10	[0, 0, 0]	n/a	catFR1	0	R1515T
1558.597	0.816	1625661	WORD_OFF	n/a	n/a	DENIM	Fabric	3	10	[0, 0, 0]	n/a	catFR1	0	R1515T
1559.413	1.601	1626476	WORD	n/a	wordpools/wordpool_categorized_EN.txt	WOOL	Fabric	4	10	[0, 0, 0]	n/a	catFR1	0	R1515T
1561.014	0.95	1628077	WORD_OFF	n/a	n/a	WOOL	Fabric	4	10	[0, 0, 0]	n/a	catFR1	0	R1515T
1561.964	1.6	1629029	WORD	n/a	wordpools/wordpool_categorized_EN.txt	SHIRT	Clothing	5	10	[0, 0, 0]	n/a	catFR1	0	R1515T
1563.564	0.867	1630621	WORD_OFF	n/a	n/a	SHIRT	Clothing	5	10	[0, 0, 0]	n/a	catFR1	0	R1515T
1564.431	1.599	1631495	WORD	n/a	wordpools/wordpool_categorized_EN.txt	COAT	Clothing	6	10	[0, 0, 0]	n/a	catFR1	0	R1515T
1566.03	0.985	1633096	WORD_OFF	n/a	n/a	COAT	Clothing	6	10	[0, 0, 0]	n/a	catFR1	0	R1515T
1567.015	1.615	1634078	WORD	n/a	wordpools/wordpool_categorized_EN.txt	SILK	Fabric	7	10	[0, 0, 0]	n/a	catFR1	0	R1515T
1568.63	0.884	1635689	WORD_OFF	n/a	n/a	SILK	Fabric	7	10	[0, 0, 0]	n/a	catFR1	0	R1515T
1569.514	1.6	1636573	WORD	n/a	wordpools/wordpool_categorized_EN.txt	LINEN	Fabric	8	10	[0, 0, 0]	n/a	catFR1	0	R1515T
1571.114	0.883	1638173	WORD_OFF	n/a	n/a	LINEN	Fabric	8	10	[0, 0, 0]	n/a	catFR1	0	R1515T
1571.997	1.6	1639057	WORD	n/a	wordpools/wordpool_categorized_EN.txt	SHOES	Clothing	9	10	[0, 0, 0]	n/a	catFR1	0	R1515T
1573.597	0.884	1640658	WORD_OFF	n/a	n/a	SHOES	Clothing	9	10	[0, 0, 0]	n/a	catFR1	0	R1515T
1574.481	1.599	1641542	WORD	n/a	wordpools/wordpool_categorized_EN.txt	DRESS	Clothing	10	10	[0, 0, 0]	n/a	catFR1	0	R1515T
1576.08	0.951	1643143	WORD_OFF	n/a	n/a	DRESS	Clothing	10	10	[0, 0, 0]	n/a	catFR1	0	R1515T
1577.031	1.6	1644096	WORD	n/a	wordpools/wordpool_categorized_EN.txt	BUTTERFLY	Insects	11	10	[0, 0, 0]	n/a	catFR1	0	R1515T
1578.631	0.799	1645687	WORD_OFF	n/a	n/a	BUTTERFLY	Insects	11	10	[0, 0, 0]	n/a	catFR1	0	R1515T
1579.43	1.601	1646493	WORD	n/a	wordpools/wordpool_categorized_EN.txt	BEETLE	Insects	12	10	[0, 0, 0]	n/a	catFR1	0	R1515T
1581.031	0.001	1648088	PROB	0.001	n/a	n/a	n/a	-999	10	[2, 8, 6]	16	catFR1	0	R1515T
1581.032	0.0	1648089	START	n/a	n/a	n/a	n/a	-999	10	[-999, -999, -999]	n/a	catFR1	0	R1515T
1581.03	0.002	1648093	WORD_OFF	n/a	n/a	BEETLE	Insects	12	10	[0, 0, 0]	n/a	catFR1	0	R1515T
1581.032	0.0	1648093	ENCODING_END	n/a	n/a	n/a	n/a	-999	10	[0, 0, 0]	n/a	catFR1	0	R1515T
1581.032	4.782	1648093	DISTRACT_START	n/a	n/a	n/a	n/a	-999	10	[0, 0, 0]	n/a	catFR1	0	R1515T
1585.814	10.3	1652871	PROB	10.3	n/a	n/a	n/a	-999	10	[2, 7, 5]	14	catFR1	0	R1515T
1596.114	3.467	1663170	PROB	3.467	n/a	n/a	n/a	-999	10	[1, 2, 5]	8	catFR1	0	R1515T
1599.581	6.566	1666637	PROB	6.566	n/a	n/a	n/a	-999	10	[7, 4, 3]	14	catFR1	0	R1515T
1606.147	0.0	1673203	STOP	n/a	n/a	n/a	n/a	-999	10	[-999, -999, -999]	n/a	catFR1	0	R1515T
1606.147	1.249	1673208	DISTRACT_END	n/a	n/a	n/a	n/a	-999	10	[0, 0, 0]	n/a	catFR1	0	R1515T
1607.396	0.893	1674455	REC_START	n/a	n/a	n/a	n/a	-999	10	[0, 0, 0]	n/a	catFR1	0	R1515T
1608.289	0.951	1675345	REC_WORD_VV	0.951	n/a	<>	n/a	-999	10	[0, 0, 0]	n/a	catFR1	0	R1515T
1609.24	0.913	1676296	REC_WORD	0.913	n/a	ROACH	Insects	1	10	[0, 0, 0]	n/a	catFR1	0	R1515T
1610.153	1.0	1677209	REC_WORD	1.0	n/a	GNAT	Insects	2	10	[0, 0, 0]	n/a	catFR1	0	R1515T
1611.153	1.499	1678209	REC_WORD	1.499	n/a	GNAT	Insects	2	10	[0, 0, 0]	n/a	catFR1	0	R1515T
1612.652	1.0	1679708	REC_WORD	1.0	n/a	BEETLE	Insects	12	10	[0, 0, 0]	n/a	catFR1	0	R1515T
1613.652	2.982	1680707	REC_WORD	2.982	n/a	BEETLE	Insects	12	10	[0, 0, 0]	n/a	catFR1	0	R1515T
1616.634	1.0	1683689	REC_WORD	1.0	n/a	BUTTERFLY	Insects	11	10	[0, 0, 0]	n/a	catFR1	0	R1515T
1617.634	3.747	1684689	REC_WORD	3.747	n/a	BUTTERFLY	Insects	11	10	[0, 0, 0]	n/a	catFR1	0	R1515T
1621.381	0.951	1688436	REC_WORD_VV	0.951	n/a	<>	n/a	-999	10	[0, 0, 0]	n/a	catFR1	0	R1515T
1622.332	1.0	1689387	REC_WORD	1.0	n/a	LINEN	Fabric	8	10	[0, 0, 0]	n/a	catFR1	0	R1515T
1623.332	0.746	1690387	REC_WORD	0.746	n/a	LINEN	Fabric	8	10	[0, 0, 0]	n/a	catFR1	0	R1515T
1624.078	1.0	1691133	REC_WORD	1.0	n/a	SILK	Fabric	7	10	[0, 0, 0]	n/a	catFR1	0	R1515T
1625.078	3.853	1692133	REC_WORD	3.853	n/a	SILK	Fabric	7	10	[0, 0, 0]	n/a	catFR1	0	R1515T
1628.931	0.418	1695986	REC_WORD_VV	0.418	n/a	<>	n/a	-999	10	[0, 0, 0]	n/a	catFR1	0	R1515T
1629.349	2.574	1696404	REC_WORD	2.574	n/a	COTTON	n/a	-999	10	[0, 0, 0]	n/a	catFR1	0	R1515T
1631.923	6.691	1698978	REC_WORD_VV	6.691	n/a	<>	n/a	-999	10	[0, 0, 0]	n/a	catFR1	0	R1515T
1638.614	2.367	1705669	REC_END	n/a	n/a	n/a	n/a	-999	10	[0, 0, 0]	n/a	catFR1	0	R1515T
1640.981	10.35	1708036	COUNTDOWN_START	n/a	n/a	n/a	n/a	-999	10	[0, 0, 0]	n/a	catFR1	0	R1515T
1651.331	0.0	1718388	COUNTDOWN_END	n/a	n/a	n/a	n/a	-999	10	[0, 0, 0]	n/a	catFR1	0	R1515T
1651.331	1.965	1718388	ENCODING_START	n/a	n/a	n/a	n/a	-999	11	[0, 0, 0]	n/a	catFR1	0	R1515T
1653.296	1.601	1720352	WORD	n/a	wordpools/wordpool_categorized_EN.txt	SPANDEX	Fabric	1	11	[0, 0, 0]	n/a	catFR1	0	R1515T
1654.897	0.799	1721953	WORD_OFF	n/a	n/a	SPANDEX	Fabric	1	11	[0, 0, 0]	n/a	catFR1	0	R1515T
1655.696	1.601	1722749	WORD	n/a	wordpools/wordpool_categorized_EN.txt	VELVET	Fabric	2	11	[0, 0, 0]	n/a	catFR1	0	R1515T
1657.297	1.0	1724350	WORD_OFF	n/a	n/a	VELVET	Fabric	2	11	[0, 0, 0]	n/a	catFR1	0	R1515T
1658.297	1.6	1725352	WORD	n/a	wordpools/wordpool_categorized_EN.txt	PANTS	Clothing	3	11	[0, 0, 0]	n/a	catFR1	0	R1515T
1659.897	0.817	1726953	WORD_OFF	n/a	n/a	PANTS	Clothing	3	11	[0, 0, 0]	n/a	catFR1	0	R1515T
1660.714	1.6	1727768	WORD	n/a	wordpools/wordpool_categorized_EN.txt	JEANS	Clothing	4	11	[0, 0, 0]	n/a	catFR1	0	R1515T
1662.314	0.883	1729369	WORD_OFF	n/a	n/a	JEANS	Clothing	4	11	[0, 0, 0]	n/a	catFR1	0	R1515T
1663.197	1.616	1730253	WORD	n/a	wordpools/wordpool_categorized_EN.txt	BEE	Insects	5	11	[0, 0, 0]	n/a	catFR1	0	R1515T
1664.813	0.951	1731873	WORD_OFF	n/a	n/a	BEE	Insects	5	11	[0, 0, 0]	n/a	catFR1	0	R1515T
1665.764	1.616	1732816	WORD	n/a	wordpools/wordpool_categorized_EN.txt	FLY	Insects	6	11	[0, 0, 0]	n/a	catFR1	0	R1515T
1667.38	0.784	1734437	WORD_OFF	n/a	n/a	FLY	Insects	6	11	[0, 0, 0]	n/a	catFR1	0	R1515T
1668.164	1.617	1735222	WORD	n/a	wordpools/wordpool_categorized_EN.txt	SKIRT	Clothing	7	11	[0, 0, 0]	n/a	catFR1	0	R1515T
1669.781	0.966	1736833	WORD_OFF	n/a	n/a	SKIRT	Clothing	7	11	[0, 0, 0]	n/a	catFR1	0	R1515T
1670.747	1.6	1737806	WORD	n/a	wordpools/wordpool_categorized_EN.txt	UNDERWEAR	Clothing	8	11	[0, 0, 0]	n/a	catFR1	0	R1515T
1672.347	1.0	1739407	WORD_OFF	n/a	n/a	UNDERWEAR	Clothing	8	11	[0, 0, 0]	n/a	catFR1	0	R1515T
1673.347	1.6	1740399	WORD	n/a	wordpools/wordpool_categorized_EN.txt	SATIN	Fabric	9	11	[0, 0, 0]	n/a	catFR1	0	R1515T
1674.947	0.984	1741999	WORD_OFF	n/a	n/a	SATIN	Fabric	9	11	[0, 0, 0]	n/a	catFR1	0	R1515T
1675.931	1.599	1742982	WORD	n/a	wordpools/wordpool_categorized_EN.txt	LEATHER	Fabric	10	11	[0, 0, 0]	n/a	catFR1	0	R1515T
1677.53	0.867	1744583	WORD_OFF	n/a	n/a	LEATHER	Fabric	10	11	[0, 0, 0]	n/a	catFR1	0	R1515T
1678.397	1.6	1745457	WORD	n/a	wordpools/wordpool_categorized_EN.txt	CRICKET	Insects	11	11	[0, 0, 0]	n/a	catFR1	0	R1515T
1679.997	0.884	1747048	WORD_OFF	n/a	n/a	CRICKET	Insects	11	11	[0, 0, 0]	n/a	catFR1	0	R1515T
1680.881	1.618	1747932	WORD	n/a	wordpools/wordpool_categorized_EN.txt	MOTH	Insects	12	11	[0, 0, 0]	n/a	catFR1	0	R1515T
1682.499	0.0	1749551	PROB	0.0	n/a	n/a	n/a	-999	11	[8, 2, 7]	17	catFR1	0	R1515T
1682.499	0.0	1749551	START	n/a	n/a	n/a	n/a	-999	11	[-999, -999, -999]	n/a	catFR1	0	R1515T
1682.497	0.002	1749552	WORD_OFF	n/a	n/a	MOTH	Insects	12	11	[0, 0, 0]	n/a	catFR1	0	R1515T
1682.499	0.0	1749552	ENCODING_END	n/a	n/a	n/a	n/a	-999	11	[0, 0, 0]	n/a	catFR1	0	R1515T
1682.499	4.249	1749552	DISTRACT_START	n/a	n/a	n/a	n/a	-999	11	[0, 0, 0]	n/a	catFR1	0	R1515T
1686.748	9.149	1753800	PROB	9.149	n/a	n/a	n/a	-999	11	[3, 5, 6]	14	catFR1	0	R1515T
1695.897	5.05	1762948	PROB	5.05	n/a	n/a	n/a	-999	11	[2, 1, 1]	4	catFR1	0	R1515T
1700.947	5.349	1767998	PROB	5.349	n/a	n/a	n/a	-999	11	[3, 2, 5]	10	catFR1	0	R1515T
1706.296	0.0	1773347	STOP	n/a	n/a	n/a	n/a	-999	11	[-999, -999, -999]	n/a	catFR1	0	R1515T
1706.296	1.2	1773351	DISTRACT_END	n/a	n/a	n/a	n/a	-999	11	[0, 0, 0]	n/a	catFR1	0	R1515T
1707.496	1.247	1774549	REC_START	n/a	n/a	n/a	n/a	-999	11	[0, 0, 0]	n/a	catFR1	0	R1515T
1708.743	1.0	1775794	REC_WORD	1.0	n/a	MOTH	Insects	12	11	[0, 0, 0]	n/a	catFR1	0	R1515T
1709.743	0.849	1776794	REC_WORD	0.849	n/a	MOTH	Insects	12	11	[0, 0, 0]	n/a	catFR1	0	R1515T
1710.592	1.0	1777643	REC_WORD_VV	1.0	n/a	<>	n/a	-999	11	[0, 0, 0]	n/a	catFR1	0	R1515T
1711.592	5.105	1778642	REC_WORD_VV	5.105	n/a	<>	n/a	-999	11	[0, 0, 0]	n/a	catFR1	0	R1515T
1716.697	1.0	1783747	REC_WORD_VV	1.0	n/a	<>	n/a	-999	11	[0, 0, 0]	n/a	catFR1	0	R1515T
1717.697	1.0	1784747	REC_WORD_VV	1.0	n/a	<>	n/a	-999	11	[0, 0, 0]	n/a	catFR1	0	R1515T
1718.697	5.964	1785747	REC_WORD_VV	5.964	n/a	<>	n/a	-999	11	[0, 0, 0]	n/a	catFR1	0	R1515T
1724.661	1.0	1791711	REC_WORD_VV	1.0	n/a	<>	n/a	-999	11	[0, 0, 0]	n/a	catFR1	0	R1515T
1725.661	1.0	1792711	REC_WORD_VV	1.0	n/a	<>	n/a	-999	11	[0, 0, 0]	n/a	catFR1	0	R1515T
1726.661	2.111	1793711	REC_WORD_VV	2.111	n/a	<>	n/a	-999	11	[0, 0, 0]	n/a	catFR1	0	R1515T
1728.772	1.0	1795822	REC_WORD_VV	1.0	n/a	<>	n/a	-999	11	[0, 0, 0]	n/a	catFR1	0	R1515T
1729.772	0.969	1796822	REC_WORD_VV	0.969	n/a	<>	n/a	-999	11	[0, 0, 0]	n/a	catFR1	0	R1515T
1730.741	0.835	1797790	REC_WORD	0.835	n/a	MOTH	Insects	12	11	[0, 0, 0]	n/a	catFR1	0	R1515T
1731.576	1.0	1798625	REC_WORD_VV	1.0	n/a	<>	n/a	-999	11	[0, 0, 0]	n/a	catFR1	0	R1515T
1732.576	1.0	1799625	REC_WORD_VV	1.0	n/a	<>	n/a	-999	11	[0, 0, 0]	n/a	catFR1	0	R1515T
1733.576	1.0	1800625	REC_WORD_VV	1.0	n/a	<>	n/a	-999	11	[0, 0, 0]	n/a	catFR1	0	R1515T
1734.576	4.138	1801625	REC_WORD_VV	4.138	n/a	<>	n/a	-999	11	[0, 0, 0]	n/a	catFR1	0	R1515T
1738.714	2.483	1805762	REC_END	n/a	n/a	n/a	n/a	-999	11	[0, 0, 0]	n/a	catFR1	0	R1515T
1741.197	10.35	1808247	COUNTDOWN_START	n/a	n/a	n/a	n/a	-999	11	[0, 0, 0]	n/a	catFR1	0	R1515T
1751.547	0.0	1818600	COUNTDOWN_END	n/a	n/a	n/a	n/a	-999	11	[0, 0, 0]	n/a	catFR1	0	R1515T
1751.547	2.1	1818600	ENCODING_START	n/a	n/a	n/a	n/a	-999	12	[0, 0, 0]	n/a	catFR1	0	R1515T
1753.647	1.6	1820701	WORD	n/a	wordpools/wordpool_categorized_EN.txt	BLOUSE	Clothing	1	12	[0, 0, 0]	n/a	catFR1	0	R1515T
1755.247	0.884	1822302	WORD_OFF	n/a	n/a	BLOUSE	Clothing	1	12	[0, 0, 0]	n/a	catFR1	0	R1515T
1756.131	1.6	1823186	WORD	n/a	wordpools/wordpool_categorized_EN.txt	SOCKS	Clothing	2	12	[0, 0, 0]	n/a	catFR1	0	R1515T
1757.731	0.766	1824777	WORD_OFF	n/a	n/a	SOCKS	Clothing	2	12	[0, 0, 0]	n/a	catFR1	0	R1515T
1758.497	1.6	1825544	WORD	n/a	wordpools/wordpool_categorized_EN.txt	COTTON	Fabric	3	12	[0, 0, 0]	n/a	catFR1	0	R1515T
1760.097	0.966	1827144	WORD_OFF	n/a	n/a	COTTON	Fabric	3	12	[0, 0, 0]	n/a	catFR1	0	R1515T
1761.063	1.601	1828117	WORD	n/a	wordpools/wordpool_categorized_EN.txt	FLEECE	Fabric	4	12	[0, 0, 0]	n/a	catFR1	0	R1515T
1762.664	0.95	1829718	WORD_OFF	n/a	n/a	FLEECE	Fabric	4	12	[0, 0, 0]	n/a	catFR1	0	R1515T
1763.614	1.6	1830661	WORD	n/a	wordpools/wordpool_categorized_EN.txt	SPIDER	Insects	5	12	[0, 0, 0]	n/a	catFR1	0	R1515T
1765.214	0.883	1832262	WORD_OFF	n/a	n/a	SPIDER	Insects	5	12	[0, 0, 0]	n/a	catFR1	0	R1515T
1766.097	1.617	1833146	WORD	n/a	wordpools/wordpool_categorized_EN.txt	MOSQUITO	Insects	6	12	[0, 0, 0]	n/a	catFR1	0	R1515T
1767.714	0.9	1834766	WORD_OFF	n/a	n/a	MOSQUITO	Insects	6	12	[0, 0, 0]	n/a	catFR1	0	R1515T
1768.614	1.617	1835660	WORD	n/a	wordpools/wordpool_categorized_EN.txt	NYLON	Fabric	7	12	[0, 0, 0]	n/a	catFR1	0	R1515T
1770.231	0.783	1837281	WORD_OFF	n/a	n/a	NYLON	Fabric	7	12	[0, 0, 0]	n/a	catFR1	0	R1515T
1771.014	1.616	1838066	WORD	n/a	wordpools/wordpool_categorized_EN.txt	SUEDE	Fabric	8	12	[0, 0, 0]	n/a	catFR1	0	R1515T
1772.63	0.901	1839677	WORD_OFF	n/a	n/a	SUEDE	Fabric	8	12	[0, 0, 0]	n/a	catFR1	0	R1515T
1773.531	1.616	1840581	WORD	n/a	wordpools/wordpool_categorized_EN.txt	LADYBUG	Insects	9	12	[0, 0, 0]	n/a	catFR1	0	R1515T
1775.147	0.85	1842201	WORD_OFF	n/a	n/a	LADYBUG	Insects	9	12	[0, 0, 0]	n/a	catFR1	0	R1515T
1775.997	1.6	1843046	WORD	n/a	wordpools/wordpool_categorized_EN.txt	ANT	Insects	10	12	[0, 0, 0]	n/a	catFR1	0	R1515T
1777.597	0.967	1844647	WORD_OFF	n/a	n/a	ANT	Insects	10	12	[0, 0, 0]	n/a	catFR1	0	R1515T
1778.564	1.6	1845609	WORD	n/a	wordpools/wordpool_categorized_EN.txt	SHORTS	Clothing	11	12	[0, 0, 0]	n/a	catFR1	0	R1515T
1780.164	0.933	1847220	WORD_OFF	n/a	n/a	SHORTS	Clothing	11	12	[0, 0, 0]	n/a	catFR1	0	R1515T
1781.097	1.617	1848143	WORD	n/a	wordpools/wordpool_categorized_EN.txt	JACKET	Clothing	12	12	[0, 0, 0]	n/a	catFR1	0	R1515T
1782.714	0.001	1849761	PROB	0.001	n/a	n/a	n/a	-999	12	[8, 6, 1]	15	catFR1	0	R1515T
1782.715	0.0	1849762	START	n/a	n/a	n/a	n/a	-999	12	[-999, -999, -999]	n/a	catFR1	0	R1515T
1782.713	0.002	1849764	WORD_OFF	n/a	n/a	JACKET	Clothing	12	12	[0, 0, 0]	n/a	catFR1	0	R1515T
1782.715	0.0	1849764	ENCODING_END	n/a	n/a	n/a	n/a	-999	12	[0, 0, 0]	n/a	catFR1	0	R1515T
1782.715	9.766	1849764	DISTRACT_START	n/a	n/a	n/a	n/a	-999	12	[0, 0, 0]	n/a	catFR1	0	R1515T
1792.481	6.982	1859527	PROB	6.982	n/a	n/a	n/a	-999	12	[4, 8, 5]	17	catFR1	0	R1515T
1799.463	10.167	1866509	PROB	10.167	n/a	n/a	n/a	-999	12	[8, 5, 4]	17	catFR1	0	R1515T
1809.63	0.0	1876675	STOP	n/a	n/a	n/a	n/a	-999	12	[-999, -999, -999]	n/a	catFR1	0	R1515T
1809.63	1.233	1876676	DISTRACT_END	n/a	n/a	n/a	n/a	-999	12	[0, 0, 0]	n/a	catFR1	0	R1515T
1810.863	0.523	1877913	REC_START	n/a	n/a	n/a	n/a	-999	12	[0, 0, 0]	n/a	catFR1	0	R1515T
1811.386	0.716	1878431	REC_WORD_VV	0.716	n/a	<>	n/a	-999	12	[0, 0, 0]	n/a	catFR1	0	R1515T
1812.102	0.907	1879147	REC_WORD	0.907	n/a	ANT	Insects	10	12	[0, 0, 0]	n/a	catFR1	0	R1515T
1813.009	1.0	1880054	REC_WORD	1.0	n/a	MOSQUITO	Insects	6	12	[0, 0, 0]	n/a	catFR1	0	R1515T
1814.009	0.89	1881054	REC_WORD	0.89	n/a	MOSQUITO	Insects	6	12	[0, 0, 0]	n/a	catFR1	0	R1515T
1814.899	1.0	1881944	REC_WORD	1.0	n/a	FLEECE	Fabric	4	12	[0, 0, 0]	n/a	catFR1	0	R1515T
1815.899	0.669	1882944	REC_WORD	0.669	n/a	FLEECE	Fabric	4	12	[0, 0, 0]	n/a	catFR1	0	R1515T
1816.568	0.185	1883613	REC_WORD_VV	0.185	n/a	<>	n/a	-999	12	[0, 0, 0]	n/a	catFR1	0	R1515T
1816.753	1.0	1883798	REC_WORD	1.0	n/a	BLOUSE	Clothing	1	12	[0, 0, 0]	n/a	catFR1	0	R1515T
1817.753	0.386	1884798	REC_WORD	0.386	n/a	BLOUSE	Clothing	1	12	[0, 0, 0]	n/a	catFR1	0	R1515T
1818.139	1.0	1885184	REC_WORD	1.0	n/a	JACKET	Clothing	12	12	[0, 0, 0]	n/a	catFR1	0	R1515T
1819.139	2.111	1886184	REC_WORD	2.111	n/a	JACKET	Clothing	12	12	[0, 0, 0]	n/a	catFR1	0	R1515T
1821.25	1.0	1888295	REC_WORD_VV	1.0	n/a	<>	n/a	-999	12	[0, 0, 0]	n/a	catFR1	0	R1515T
1822.25	1.564	1889295	REC_WORD_VV	1.564	n/a	<>	n/a	-999	12	[0, 0, 0]	n/a	catFR1	0	R1515T
1823.814	1.0	1890859	REC_WORD	1.0	n/a	SHORTS	Clothing	11	12	[0, 0, 0]	n/a	catFR1	0	R1515T
1824.814	6.842	1891859	REC_WORD	6.842	n/a	SHORTS	Clothing	11	12	[0, 0, 0]	n/a	catFR1	0	R1515T
1831.656	7.016	1898700	REC_WORD_VV	7.016	n/a	<>	n/a	-999	12	[0, 0, 0]	n/a	catFR1	0	R1515T
1838.672	3.403	1905716	REC_WORD_VV	3.403	n/a	<>	n/a	-999	12	[0, 0, 0]	n/a	catFR1	0	R1515T
1842.075	0.0	1909127	REC_END	n/a	n/a	n/a	n/a	-999	12	[0, 0, 0]	n/a	catFR1	0	R1515T
