onset	duration	sample	trial_type	response_time	stim_file	item_name	category	serialpos	list	test	answer	experiment	session	subject
0.0	0.0	-1	INSTRUCT_START	n/a	n/a	n/a	n/a	-999	-999	[0, 0, 0]	n/a	catFR1	2	R1286J
0.0	0.0	-1	INSTRUCT_END	n/a	n/a	n/a	n/a	-999	-999	[0, 0, 0]	n/a	catFR1	2	R1286J
0.0	0.0	-1	SESS_START	n/a	n/a	n/a	n/a	-999	-999	[0, 0, 0]	n/a	catFR1	2	R1286J
0.0	497.108	-1	MIC_TEST	n/a	n/a	n/a	n/a	-999	-999	[0, 0, 0]	n/a	catFR1	2	R1286J
497.108	2.501	474131	PRACTICE_TRIAL	n/a	n/a	n/a	n/a	-999	-1	[0, 0, 0]	n/a	catFR1	2	R1286J
499.609	10.0	476632	COUNTDOWN_START	n/a	n/a	n/a	n/a	-999	-1	[0, 0, 0]	n/a	catFR1	2	R1286J
510.037	0.006	487060	COUNTDOWN_END	n/a	n/a	n/a	n/a	-999	-1	[0, 0, 0]	n/a	catFR1	2	R1286J
510.043	1.6	487066	PRACTICE_ORIENT	n/a	n/a	n/a	n/a	-999	-1	[0, 0, 0]	n/a	catFR1	2	R1286J
511.661	2.016	488684	PRACTICE_ORIENT_OFF	n/a	n/a	n/a	n/a	-999	-1	[0, 0, 0]	n/a	catFR1	2	R1286J
513.677	1.6	490700	PRACTICE_WORD	n/a	n/a	WATCH	n/a	-1	-1	[0, 0, 0]	n/a	catFR1	2	R1286J
515.294	0.834	492317	PRACTICE_WORD_OFF	n/a	n/a	WATCH	n/a	-999	-1	[0, 0, 0]	n/a	catFR1	2	R1286J
516.128	1.6	493151	PRACTICE_WORD	n/a	n/a	FLOOD	n/a	-1	-1	[0, 0, 0]	n/a	catFR1	2	R1286J
517.745	0.9	494768	PRACTICE_WORD_OFF	n/a	n/a	FLOOD	n/a	-999	-1	[0, 0, 0]	n/a	catFR1	2	R1286J
518.645	1.6	495668	PRACTICE_WORD	n/a	n/a	FAUCET	n/a	-1	-1	[0, 0, 0]	n/a	catFR1	2	R1286J
520.262	0.8	497285	PRACTICE_WORD_OFF	n/a	n/a	FAUCET	n/a	-999	-1	[0, 0, 0]	n/a	catFR1	2	R1286J
521.062	1.6	498085	PRACTICE_WORD	n/a	n/a	COTTON	n/a	-1	-1	[0, 0, 0]	n/a	catFR1	2	R1286J
522.679	0.917	499702	PRACTICE_WORD_OFF	n/a	n/a	COTTON	n/a	-999	-1	[0, 0, 0]	n/a	catFR1	2	R1286J
523.596	1.6	500618	PRACTICE_WORD	n/a	n/a	TONGUE	n/a	-1	-1	[0, 0, 0]	n/a	catFR1	2	R1286J
525.213	0.983	502235	PRACTICE_WORD_OFF	n/a	n/a	TONGUE	n/a	-999	-1	[0, 0, 0]	n/a	catFR1	2	R1286J
526.196	1.6	503218	PRACTICE_WORD	n/a	n/a	BEAM	n/a	-1	-1	[0, 0, 0]	n/a	catFR1	2	R1286J
527.812	0.951	504834	PRACTICE_WORD_OFF	n/a	n/a	BEAM	n/a	-999	-1	[0, 0, 0]	n/a	catFR1	2	R1286J
528.763	1.6	505785	PRACTICE_WORD	n/a	n/a	CHEST	n/a	-1	-1	[0, 0, 0]	n/a	catFR1	2	R1286J
530.38	0.784	507402	PRACTICE_WORD_OFF	n/a	n/a	CHEST	n/a	-999	-1	[0, 0, 0]	n/a	catFR1	2	R1286J
531.164	1.6	508186	PRACTICE_WORD	n/a	n/a	RHINO	n/a	-1	-1	[0, 0, 0]	n/a	catFR1	2	R1286J
532.781	0.767	509803	PRACTICE_WORD_OFF	n/a	n/a	RHINO	n/a	-999	-1	[0, 0, 0]	n/a	catFR1	2	R1286J
533.548	1.6	510570	PRACTICE_WORD	n/a	n/a	ALLEY	n/a	-1	-1	[0, 0, 0]	n/a	catFR1	2	R1286J
535.164	0.866	512186	PRACTICE_WORD_OFF	n/a	n/a	ALLEY	n/a	-999	-1	[0, 0, 0]	n/a	catFR1	2	R1286J
536.03	1.6	513052	PRACTICE_WORD	n/a	n/a	WAGON	n/a	-1	-1	[0, 0, 0]	n/a	catFR1	2	R1286J
537.648	0.767	514670	PRACTICE_WORD_OFF	n/a	n/a	WAGON	n/a	-999	-1	[0, 0, 0]	n/a	catFR1	2	R1286J
538.415	1.6	515437	PRACTICE_WORD	n/a	n/a	CAMEL	n/a	-1	-1	[0, 0, 0]	n/a	catFR1	2	R1286J
540.031	0.85	517053	PRACTICE_WORD_OFF	n/a	n/a	CAMEL	n/a	-999	-1	[0, 0, 0]	n/a	catFR1	2	R1286J
540.881	1.6	517903	PRACTICE_WORD	n/a	n/a	RING	n/a	-1	-1	[0, 0, 0]	n/a	catFR1	2	R1286J
542.499	0.0	519521	PRACTICE_WORD_OFF	n/a	n/a	RING	n/a	-999	-1	[0, 0, 0]	n/a	catFR1	2	R1286J
542.499	0.0	519521	DISTRACT_START	n/a	n/a	n/a	n/a	-999	-1	[0, 0, 0]	n/a	catFR1	2	R1286J
542.499	0.0	519521	ENCODING_END	n/a	n/a	n/a	n/a	-999	-1	[0, 0, 0]	n/a	catFR1	2	R1286J
542.499	0.017	519521	START	n/a	n/a	n/a	n/a	-999	-1	[-999, -999, -999]	n/a	catFR1	2	R1286J
542.516	8.818	519538	PROB	8.785	n/a	n/a	n/a	-999	-1	[6, 3, 2]	11.0	catFR1	2	R1286J
551.334	4.884	528356	PROB	4.848	n/a	n/a	n/a	-999	-1	[4, 1, 3]	8.0	catFR1	2	R1286J
556.218	7.243	533239	PROB	7.243	n/a	n/a	n/a	-999	-1	[1, 6, 3]	10.0	catFR1	2	R1286J
563.461	0.008	540482	STOP	n/a	n/a	n/a	n/a	-999	-1	[-999, -999, -999]	n/a	catFR1	2	R1286J
563.469	0.65	540490	DISTRACT_END	n/a	n/a	n/a	n/a	-999	-1	[0, 0, 0]	n/a	catFR1	2	R1286J
564.119	0.523	541140	RETRIEVAL_ORIENT	n/a	n/a	n/a	n/a	-999	-1	[0, 0, 0]	n/a	catFR1	2	R1286J
564.642	30.008	541663	PRACTICE_REC_START	n/a	n/a	n/a	n/a	-999	-1	[0, 0, 0]	n/a	catFR1	2	R1286J
594.65	6.076	571670	PRACTICE_REC_END	n/a	n/a	n/a	n/a	-999	-1	[0, 0, 0]	n/a	catFR1	2	R1286J
600.726	0.0	577746	TRIAL	n/a	n/a	n/a	n/a	-999	1	[0, 0, 0]	n/a	catFR1	2	R1286J
600.726	10.0	577746	COUNTDOWN_START	n/a	n/a	n/a	n/a	-999	1	[0, 0, 0]	n/a	catFR1	2	R1286J
611.154	0.007	588174	COUNTDOWN_END	n/a	n/a	n/a	n/a	-999	1	[0, 0, 0]	n/a	catFR1	2	R1286J
611.161	1.6	588181	ORIENT	n/a	n/a	n/a	n/a	-999	1	[0, 0, 0]	n/a	catFR1	2	R1286J
612.777	1.901	589796	ORIENT_OFF	n/a	n/a	n/a	n/a	-999	1	[0, 0, 0]	n/a	catFR1	2	R1286J
614.678	1.6	591697	WORD	n/a	wordpools/wordpool_categorized_EN.txt	COMPUTER	Electronics	1	1	[0, 0, 0]	n/a	catFR1	2	R1286J
616.295	0.95	593314	WORD_OFF	n/a	n/a	COMPUTER	n/a	1	1	[0, 0, 0]	n/a	catFR1	2	R1286J
617.245	1.6	594264	WORD	n/a	wordpools/wordpool_categorized_EN.txt	HEADPHONES	Electronics	2	1	[0, 0, 0]	n/a	catFR1	2	R1286J
618.861	0.818	595880	WORD_OFF	n/a	n/a	HEADPHONES	n/a	2	1	[0, 0, 0]	n/a	catFR1	2	R1286J
619.679	1.6	596698	WORD	n/a	wordpools/wordpool_categorized_EN.txt	PEAS	Vegetables	3	1	[0, 0, 0]	n/a	catFR1	2	R1286J
621.296	0.816	598315	WORD_OFF	n/a	n/a	PEAS	n/a	3	1	[0, 0, 0]	n/a	catFR1	2	R1286J
622.112	1.6	599131	WORD	n/a	wordpools/wordpool_categorized_EN.txt	CUCUMBER	Vegetables	4	1	[0, 0, 0]	n/a	catFR1	2	R1286J
623.729	0.767	600748	WORD_OFF	n/a	n/a	CUCUMBER	n/a	4	1	[0, 0, 0]	n/a	catFR1	2	R1286J
624.496	1.6	601515	WORD	n/a	wordpools/wordpool_categorized_EN.txt	TULIP	Flowers	5	1	[0, 0, 0]	n/a	catFR1	2	R1286J
626.113	0.833	603132	WORD_OFF	n/a	n/a	TULIP	n/a	5	1	[0, 0, 0]	n/a	catFR1	2	R1286J
626.946	1.6	603965	WORD	n/a	wordpools/wordpool_categorized_EN.txt	MARIGOLD	Flowers	6	1	[0, 0, 0]	n/a	catFR1	2	R1286J
628.564	0.95	605583	WORD_OFF	n/a	n/a	MARIGOLD	n/a	6	1	[0, 0, 0]	n/a	catFR1	2	R1286J
629.514	1.6	606533	WORD	n/a	wordpools/wordpool_categorized_EN.txt	CORN	Vegetables	7	1	[0, 0, 0]	n/a	catFR1	2	R1286J
631.131	0.782	608150	WORD_OFF	n/a	n/a	CORN	n/a	7	1	[0, 0, 0]	n/a	catFR1	2	R1286J
631.913	1.6	608932	WORD	n/a	wordpools/wordpool_categorized_EN.txt	CAULIFLOWER	Vegetables	8	1	[0, 0, 0]	n/a	catFR1	2	R1286J
633.531	0.984	610550	WORD_OFF	n/a	n/a	CAULIFLOWER	n/a	8	1	[0, 0, 0]	n/a	catFR1	2	R1286J
634.515	1.6	611534	WORD	n/a	wordpools/wordpool_categorized_EN.txt	MICROWAVE	Electronics	9	1	[0, 0, 0]	n/a	catFR1	2	R1286J
636.132	0.865	613151	WORD_OFF	n/a	n/a	MICROWAVE	n/a	9	1	[0, 0, 0]	n/a	catFR1	2	R1286J
636.997	1.6	614016	WORD	n/a	wordpools/wordpool_categorized_EN.txt	TELEVISION	Electronics	10	1	[0, 0, 0]	n/a	catFR1	2	R1286J
638.615	0.884	615634	WORD_OFF	n/a	n/a	TELEVISION	n/a	10	1	[0, 0, 0]	n/a	catFR1	2	R1286J
639.499	1.6	616518	WORD	n/a	wordpools/wordpool_categorized_EN.txt	CARNATION	Flowers	11	1	[0, 0, 0]	n/a	catFR1	2	R1286J
641.116	0.899	618134	WORD_OFF	n/a	n/a	CARNATION	n/a	11	1	[0, 0, 0]	n/a	catFR1	2	R1286J
642.015	1.6	619033	WORD	n/a	wordpools/wordpool_categorized_EN.txt	SUNFLOWER	Flowers	12	1	[0, 0, 0]	n/a	catFR1	2	R1286J
643.633	0.0	620651	ENCODING_END	n/a	n/a	n/a	n/a	-999	1	[0, 0, 0]	n/a	catFR1	2	R1286J
643.633	0.076	620651	WORD_OFF	n/a	n/a	SUNFLOWER	n/a	12	1	[0, 0, 0]	n/a	catFR1	2	R1286J
643.709	0.0	620727	DISTRACT_START	n/a	n/a	n/a	n/a	-999	1	[0, 0, 0]	n/a	catFR1	2	R1286J
643.709	0.007	620727	START	n/a	n/a	n/a	n/a	-999	1	[-999, -999, -999]	n/a	catFR1	2	R1286J
643.716	7.835	620734	PROB	7.803	n/a	n/a	n/a	-999	1	[2, 3, 1]	6.0	catFR1	2	R1286J
651.551	4.801	628569	PROB	4.775	n/a	n/a	n/a	-999	1	[8, 9, 5]	22.0	catFR1	2	R1286J
656.352	5.05	633370	PROB	5.014	n/a	n/a	n/a	-999	1	[6, 4, 8]	18.0	catFR1	2	R1286J
661.402	7.001	638420	PROB	7.001	n/a	n/a	n/a	-999	1	[9, 9, 7]	25.0	catFR1	2	R1286J
668.403	0.017	645421	STOP	n/a	n/a	n/a	n/a	-999	1	[-999, -999, -999]	n/a	catFR1	2	R1286J
668.42	0.566	645438	DISTRACT_END	n/a	n/a	n/a	n/a	-999	1	[0, 0, 0]	n/a	catFR1	2	R1286J
668.986	0.518	646004	RETRIEVAL_ORIENT	n/a	n/a	n/a	n/a	-999	1	[0, 0, 0]	n/a	catFR1	2	R1286J
669.504	3.668	646522	REC_START	n/a	n/a	n/a	n/a	-999	1	[0, 0, 0]	n/a	catFR1	2	R1286J
673.172	1.489	650189	REC_WORD	3.668	n/a	COTTON	n/a	-999	1	[0, 0, 0]	n/a	catFR1	2	R1286J
674.661	1.598	651678	REC_WORD	5.157	n/a	CORN	Vegetables	7	1	[0, 0, 0]	n/a	catFR1	2	R1286J
676.259	1.927	653276	REC_WORD	6.755	n/a	TULIP	Flowers	5	1	[0, 0, 0]	n/a	catFR1	2	R1286J
678.186	3.622	655203	REC_WORD	8.682	n/a	CARNATION	Flowers	11	1	[0, 0, 0]	n/a	catFR1	2	R1286J
681.808	17.708	658825	REC_WORD	12.304	n/a	CAULIFLOWER	Vegetables	8	1	[0, 0, 0]	n/a	catFR1	2	R1286J
699.516	1.893	676532	REC_END	n/a	n/a	n/a	n/a	-999	1	[0, 0, 0]	n/a	catFR1	2	R1286J
701.409	0.0	678425	TRIAL	n/a	n/a	n/a	n/a	-999	2	[0, 0, 0]	n/a	catFR1	2	R1286J
701.409	10.0	678425	COUNTDOWN_START	n/a	n/a	n/a	n/a	-999	2	[0, 0, 0]	n/a	catFR1	2	R1286J
711.837	0.006	688853	COUNTDOWN_END	n/a	n/a	n/a	n/a	-999	2	[0, 0, 0]	n/a	catFR1	2	R1286J
711.843	1.6	688859	ORIENT	n/a	n/a	n/a	n/a	-999	2	[0, 0, 0]	n/a	catFR1	2	R1286J
713.461	2.101	690477	ORIENT_OFF	n/a	n/a	n/a	n/a	-999	2	[0, 0, 0]	n/a	catFR1	2	R1286J
715.562	1.6	692578	WORD	n/a	wordpools/wordpool_categorized_EN.txt	DOLL	Toys	1	2	[0, 0, 0]	n/a	catFR1	2	R1286J
717.178	0.901	694194	WORD_OFF	n/a	n/a	DOLL	n/a	1	2	[0, 0, 0]	n/a	catFR1	2	R1286J
718.079	1.6	695095	WORD	n/a	wordpools/wordpool_categorized_EN.txt	FOOTBALL	Toys	2	2	[0, 0, 0]	n/a	catFR1	2	R1286J
719.696	0.833	696712	WORD_OFF	n/a	n/a	FOOTBALL	n/a	2	2	[0, 0, 0]	n/a	catFR1	2	R1286J
720.529	1.6	697545	WORD	n/a	wordpools/wordpool_categorized_EN.txt	OYSTER	OceanAnimals	3	2	[0, 0, 0]	n/a	catFR1	2	R1286J
722.146	0.782	699162	WORD_OFF	n/a	n/a	OYSTER	n/a	3	2	[0, 0, 0]	n/a	catFR1	2	R1286J
722.928	1.6	699944	WORD	n/a	wordpools/wordpool_categorized_EN.txt	SHRIMP	OceanAnimals	4	2	[0, 0, 0]	n/a	catFR1	2	R1286J
724.546	0.984	701562	WORD_OFF	n/a	n/a	SHRIMP	n/a	4	2	[0, 0, 0]	n/a	catFR1	2	R1286J
725.53	1.6	702546	WORD	n/a	wordpools/wordpool_categorized_EN.txt	HICKORY	Trees	5	2	[0, 0, 0]	n/a	catFR1	2	R1286J
727.147	0.967	704163	WORD_OFF	n/a	n/a	HICKORY	n/a	5	2	[0, 0, 0]	n/a	catFR1	2	R1286J
728.114	1.6	705130	WORD	n/a	wordpools/wordpool_categorized_EN.txt	OAK	Trees	6	2	[0, 0, 0]	n/a	catFR1	2	R1286J
729.731	0.916	706746	WORD_OFF	n/a	n/a	OAK	n/a	6	2	[0, 0, 0]	n/a	catFR1	2	R1286J
730.647	1.6	707662	WORD	n/a	wordpools/wordpool_categorized_EN.txt	CRAB	OceanAnimals	7	2	[0, 0, 0]	n/a	catFR1	2	R1286J
732.264	0.984	709279	WORD_OFF	n/a	n/a	CRAB	n/a	7	2	[0, 0, 0]	n/a	catFR1	2	R1286J
733.248	1.6	710263	WORD	n/a	wordpools/wordpool_categorized_EN.txt	PLANKTON	OceanAnimals	8	2	[0, 0, 0]	n/a	catFR1	2	R1286J
734.864	0.983	711879	WORD_OFF	n/a	n/a	PLANKTON	n/a	8	2	[0, 0, 0]	n/a	catFR1	2	R1286J
735.847	1.6	712862	WORD	n/a	wordpools/wordpool_categorized_EN.txt	DOLLHOUSE	Toys	9	2	[0, 0, 0]	n/a	catFR1	2	R1286J
737.448	0.934	714463	WORD_OFF	n/a	n/a	DOLLHOUSE	n/a	9	2	[0, 0, 0]	n/a	catFR1	2	R1286J
738.382	1.6	715397	WORD	n/a	wordpools/wordpool_categorized_EN.txt	BALL	Toys	10	2	[0, 0, 0]	n/a	catFR1	2	R1286J
739.998	0.867	717013	WORD_OFF	n/a	n/a	BALL	n/a	10	2	[0, 0, 0]	n/a	catFR1	2	R1286J
740.865	1.6	717880	WORD	n/a	wordpools/wordpool_categorized_EN.txt	CYPRESS	Trees	11	2	[0, 0, 0]	n/a	catFR1	2	R1286J
742.483	0.783	719498	WORD_OFF	n/a	n/a	CYPRESS	n/a	11	2	[0, 0, 0]	n/a	catFR1	2	R1286J
743.266	1.6	720281	WORD	n/a	wordpools/wordpool_categorized_EN.txt	ELM	Trees	12	2	[0, 0, 0]	n/a	catFR1	2	R1286J
744.882	0.0	721897	ENCODING_END	n/a	n/a	n/a	n/a	-999	2	[0, 0, 0]	n/a	catFR1	2	R1286J
744.882	0.105	721897	WORD_OFF	n/a	n/a	ELM	n/a	12	2	[0, 0, 0]	n/a	catFR1	2	R1286J
744.987	0.0	722002	DISTRACT_START	n/a	n/a	n/a	n/a	-999	2	[0, 0, 0]	n/a	catFR1	2	R1286J
744.987	0.012	722002	START	n/a	n/a	n/a	n/a	-999	2	[-999, -999, -999]	n/a	catFR1	2	R1286J
744.999	9.286	722014	PROB	9.259	n/a	n/a	n/a	-999	2	[6, 9, 1]	16.0	catFR1	2	R1286J
754.285	4.367	731300	PROB	4.334	n/a	n/a	n/a	-999	2	[5, 5, 2]	12.0	catFR1	2	R1286J
758.652	5.818	735666	PROB	5.791	n/a	n/a	n/a	-999	2	[7, 5, 6]	18.0	catFR1	2	R1286J
764.47	5.372	741484	PROB	5.372	n/a	n/a	n/a	-999	2	[3, 2, 3]	8.0	catFR1	2	R1286J
769.842	0.011	746856	STOP	n/a	n/a	n/a	n/a	-999	2	[-999, -999, -999]	n/a	catFR1	2	R1286J
769.853	0.601	746867	DISTRACT_END	n/a	n/a	n/a	n/a	-999	2	[0, 0, 0]	n/a	catFR1	2	R1286J
770.454	0.517	747468	RETRIEVAL_ORIENT	n/a	n/a	n/a	n/a	-999	2	[0, 0, 0]	n/a	catFR1	2	R1286J
770.971	1.896	747985	REC_START	n/a	n/a	n/a	n/a	-999	2	[0, 0, 0]	n/a	catFR1	2	R1286J
772.867	1.443	749881	REC_WORD	1.896	n/a	DOLL	Toys	1	2	[0, 0, 0]	n/a	catFR1	2	R1286J
774.31	1.0	751324	REC_WORD	3.339	n/a	DOLLHOUSE	Toys	9	2	[0, 0, 0]	n/a	catFR1	2	R1286J
775.31	1.259	752324	REC_WORD_VV	4.339	n/a	<>	n/a	-999	2	[0, 0, 0]	n/a	catFR1	2	R1286J
776.569	2.125	753583	REC_WORD	5.598	n/a	PLANKTON	OceanAnimals	8	2	[0, 0, 0]	n/a	catFR1	2	R1286J
778.694	2.169	755708	REC_WORD	7.723	n/a	SHRIMP	OceanAnimals	4	2	[0, 0, 0]	n/a	catFR1	2	R1286J
780.863	1.0	757877	REC_WORD	9.892	n/a	CYPRESS	Trees	11	2	[0, 0, 0]	n/a	catFR1	2	R1286J
781.863	1.484	758877	REC_WORD_VV	10.892	n/a	<>	n/a	-999	2	[0, 0, 0]	n/a	catFR1	2	R1286J
783.347	4.65	760361	REC_WORD	12.376	n/a	PINE	n/a	-999	2	[0, 0, 0]	n/a	catFR1	2	R1286J
787.997	12.984	765010	REC_WORD	17.026	n/a	OYSTER	OceanAnimals	3	2	[0, 0, 0]	n/a	catFR1	2	R1286J
800.981	2.295	777994	REC_END	n/a	n/a	n/a	n/a	-999	2	[0, 0, 0]	n/a	catFR1	2	R1286J
803.276	0.0	780289	TRIAL	n/a	n/a	n/a	n/a	-999	3	[0, 0, 0]	n/a	catFR1	2	R1286J
803.276	10.0	780289	COUNTDOWN_START	n/a	n/a	n/a	n/a	-999	3	[0, 0, 0]	n/a	catFR1	2	R1286J
813.704	0.007	790717	COUNTDOWN_END	n/a	n/a	n/a	n/a	-999	3	[0, 0, 0]	n/a	catFR1	2	R1286J
813.711	1.6	790724	ORIENT	n/a	n/a	n/a	n/a	-999	3	[0, 0, 0]	n/a	catFR1	2	R1286J
815.328	2.317	792341	ORIENT_OFF	n/a	n/a	n/a	n/a	-999	3	[0, 0, 0]	n/a	catFR1	2	R1286J
817.645	1.6	794657	WORD	n/a	wordpools/wordpool_categorized_EN.txt	SAW	Tools	1	3	[0, 0, 0]	n/a	catFR1	2	R1286J
819.262	0.766	796274	WORD_OFF	n/a	n/a	SAW	n/a	1	3	[0, 0, 0]	n/a	catFR1	2	R1286J
820.028	1.6	797040	WORD	n/a	wordpools/wordpool_categorized_EN.txt	CROWBAR	Tools	2	3	[0, 0, 0]	n/a	catFR1	2	R1286J
821.646	0.984	798658	WORD_OFF	n/a	n/a	CROWBAR	n/a	2	3	[0, 0, 0]	n/a	catFR1	2	R1286J
822.63	1.6	799642	WORD	n/a	wordpools/wordpool_categorized_EN.txt	BED	Furniture	3	3	[0, 0, 0]	n/a	catFR1	2	R1286J
824.247	0.866	801259	WORD_OFF	n/a	n/a	BED	n/a	3	3	[0, 0, 0]	n/a	catFR1	2	R1286J
825.113	1.6	802125	WORD	n/a	wordpools/wordpool_categorized_EN.txt	TABLE	Furniture	4	3	[0, 0, 0]	n/a	catFR1	2	R1286J
826.73	0.917	803742	WORD_OFF	n/a	n/a	TABLE	n/a	4	3	[0, 0, 0]	n/a	catFR1	2	R1286J
827.647	1.6	804659	WORD	n/a	wordpools/wordpool_categorized_EN.txt	ROOF	Building	5	3	[0, 0, 0]	n/a	catFR1	2	R1286J
829.264	0.783	806276	WORD_OFF	n/a	n/a	ROOF	n/a	5	3	[0, 0, 0]	n/a	catFR1	2	R1286J
830.047	1.6	807059	WORD	n/a	wordpools/wordpool_categorized_EN.txt	HALLWAY	Building	6	3	[0, 0, 0]	n/a	catFR1	2	R1286J
831.664	0.867	808676	WORD_OFF	n/a	n/a	HALLWAY	n/a	6	3	[0, 0, 0]	n/a	catFR1	2	R1286J
832.531	1.6	809543	WORD	n/a	wordpools/wordpool_categorized_EN.txt	WRENCH	Tools	7	3	[0, 0, 0]	n/a	catFR1	2	R1286J
834.148	1.0	811160	WORD_OFF	n/a	n/a	WRENCH	n/a	7	3	[0, 0, 0]	n/a	catFR1	2	R1286J
835.148	1.6	812160	WORD	n/a	wordpools/wordpool_categorized_EN.txt	RATCHET	Tools	8	3	[0, 0, 0]	n/a	catFR1	2	R1286J
836.765	0.767	813777	WORD_OFF	n/a	n/a	RATCHET	n/a	8	3	[0, 0, 0]	n/a	catFR1	2	R1286J
837.532	1.6	814544	WORD	n/a	wordpools/wordpool_categorized_EN.txt	DRESSER	Furniture	9	3	[0, 0, 0]	n/a	catFR1	2	R1286J
839.149	0.866	816161	WORD_OFF	n/a	n/a	DRESSER	n/a	9	3	[0, 0, 0]	n/a	catFR1	2	R1286J
840.015	1.6	817027	WORD	n/a	wordpools/wordpool_categorized_EN.txt	RECLINER	Furniture	10	3	[0, 0, 0]	n/a	catFR1	2	R1286J
841.616	0.984	818628	WORD_OFF	n/a	n/a	RECLINER	n/a	10	3	[0, 0, 0]	n/a	catFR1	2	R1286J
842.6	1.6	819612	WORD	n/a	wordpools/wordpool_categorized_EN.txt	DOOR	Building	11	3	[0, 0, 0]	n/a	catFR1	2	R1286J
844.217	0.85	821229	WORD_OFF	n/a	n/a	DOOR	n/a	11	3	[0, 0, 0]	n/a	catFR1	2	R1286J
845.067	1.6	822079	WORD	n/a	wordpools/wordpool_categorized_EN.txt	STAIRS	Building	12	3	[0, 0, 0]	n/a	catFR1	2	R1286J
846.684	0.0	823695	ENCODING_END	n/a	n/a	n/a	n/a	-999	3	[0, 0, 0]	n/a	catFR1	2	R1286J
846.684	0.078	823695	WORD_OFF	n/a	n/a	STAIRS	n/a	12	3	[0, 0, 0]	n/a	catFR1	2	R1286J
846.762	0.0	823773	DISTRACT_START	n/a	n/a	n/a	n/a	-999	3	[0, 0, 0]	n/a	catFR1	2	R1286J
846.762	0.022	823773	START	n/a	n/a	n/a	n/a	-999	3	[-999, -999, -999]	n/a	catFR1	2	R1286J
846.784	12.084	823795	PROB	12.06	n/a	n/a	n/a	-999	3	[6, 9, 8]	27.0	catFR1	2	R1286J
858.868	8.399	835879	PROB	8.399	n/a	n/a	n/a	-999	3	[9, 7, 3]	19.0	catFR1	2	R1286J
867.267	0.021	844278	STOP	n/a	n/a	n/a	n/a	-999	3	[-999, -999, -999]	n/a	catFR1	2	R1286J
867.288	0.648	844299	DISTRACT_END	n/a	n/a	n/a	n/a	-999	3	[0, 0, 0]	n/a	catFR1	2	R1286J
867.936	0.519	844947	RETRIEVAL_ORIENT	n/a	n/a	n/a	n/a	-999	3	[0, 0, 0]	n/a	catFR1	2	R1286J
868.455	2.824	845466	REC_START	n/a	n/a	n/a	n/a	-999	3	[0, 0, 0]	n/a	catFR1	2	R1286J
871.279	1.687	848290	REC_WORD	2.824	n/a	WRENCH	Tools	7	3	[0, 0, 0]	n/a	catFR1	2	R1286J
872.966	1.0	849977	REC_WORD	4.511	n/a	CROWBAR	Tools	2	3	[0, 0, 0]	n/a	catFR1	2	R1286J
873.966	2.366	850977	REC_WORD_VV	5.511	n/a	<>	n/a	-999	3	[0, 0, 0]	n/a	catFR1	2	R1286J
876.332	20.739	853342	REC_WORD	7.877	n/a	TABLE	Furniture	4	3	[0, 0, 0]	n/a	catFR1	2	R1286J
897.071	1.396	874081	REC_WORD	28.616	n/a	CABINET	n/a	-999	3	[0, 0, 0]	n/a	catFR1	2	R1286J
898.467	2.659	875477	REC_END	n/a	n/a	n/a	n/a	-999	3	[0, 0, 0]	n/a	catFR1	2	R1286J
901.126	0.0	878136	TRIAL	n/a	n/a	n/a	n/a	-999	4	[0, 0, 0]	n/a	catFR1	2	R1286J
901.126	10.0	878136	COUNTDOWN_START	n/a	n/a	n/a	n/a	-999	4	[0, 0, 0]	n/a	catFR1	2	R1286J
911.554	0.007	888563	COUNTDOWN_END	n/a	n/a	n/a	n/a	-999	4	[0, 0, 0]	n/a	catFR1	2	R1286J
911.561	1.6	888570	ORIENT	n/a	n/a	n/a	n/a	-999	4	[0, 0, 0]	n/a	catFR1	2	R1286J
913.178	2.034	890187	ORIENT_OFF	n/a	n/a	n/a	n/a	-999	4	[0, 0, 0]	n/a	catFR1	2	R1286J
915.212	1.6	892221	WORD	n/a	wordpools/wordpool_categorized_EN.txt	TRUCK	Vehicles	1	4	[0, 0, 0]	n/a	catFR1	2	R1286J
916.828	0.884	893837	WORD_OFF	n/a	n/a	TRUCK	n/a	1	4	[0, 0, 0]	n/a	catFR1	2	R1286J
917.712	1.6	894721	WORD	n/a	wordpools/wordpool_categorized_EN.txt	MOTORCYCLE	Vehicles	2	4	[0, 0, 0]	n/a	catFR1	2	R1286J
919.329	0.95	896338	WORD_OFF	n/a	n/a	MOTORCYCLE	n/a	2	4	[0, 0, 0]	n/a	catFR1	2	R1286J
920.279	1.6	897288	WORD	n/a	wordpools/wordpool_categorized_EN.txt	BASKETBALL	Toys	3	4	[0, 0, 0]	n/a	catFR1	2	R1286J
921.895	0.901	898904	WORD_OFF	n/a	n/a	BASKETBALL	n/a	3	4	[0, 0, 0]	n/a	catFR1	2	R1286J
922.796	1.6	899805	WORD	n/a	wordpools/wordpool_categorized_EN.txt	BARBIE	Toys	4	4	[0, 0, 0]	n/a	catFR1	2	R1286J
924.414	0.783	901423	WORD_OFF	n/a	n/a	BARBIE	n/a	4	4	[0, 0, 0]	n/a	catFR1	2	R1286J
925.197	1.6	902206	WORD	n/a	wordpools/wordpool_categorized_EN.txt	JEANS	Clothing	5	4	[0, 0, 0]	n/a	catFR1	2	R1286J
926.813	0.901	903822	WORD_OFF	n/a	n/a	JEANS	n/a	5	4	[0, 0, 0]	n/a	catFR1	2	R1286J
927.714	1.6	904723	WORD	n/a	wordpools/wordpool_categorized_EN.txt	SHIRT	Clothing	6	4	[0, 0, 0]	n/a	catFR1	2	R1286J
929.331	0.834	906340	WORD_OFF	n/a	n/a	SHIRT	n/a	6	4	[0, 0, 0]	n/a	catFR1	2	R1286J
930.165	1.6	907174	WORD	n/a	wordpools/wordpool_categorized_EN.txt	FRISBEE	Toys	7	4	[0, 0, 0]	n/a	catFR1	2	R1286J
931.781	0.951	908790	WORD_OFF	n/a	n/a	FRISBEE	n/a	7	4	[0, 0, 0]	n/a	catFR1	2	R1286J
932.732	1.6	909741	WORD	n/a	wordpools/wordpool_categorized_EN.txt	BASEBALL	Toys	8	4	[0, 0, 0]	n/a	catFR1	2	R1286J
934.349	0.866	911358	WORD_OFF	n/a	n/a	BASEBALL	n/a	8	4	[0, 0, 0]	n/a	catFR1	2	R1286J
935.215	1.6	912223	WORD	n/a	wordpools/wordpool_categorized_EN.txt	MOPED	Vehicles	9	4	[0, 0, 0]	n/a	catFR1	2	R1286J
936.831	0.801	913839	WORD_OFF	n/a	n/a	MOPED	n/a	9	4	[0, 0, 0]	n/a	catFR1	2	R1286J
937.632	1.6	914640	WORD	n/a	wordpools/wordpool_categorized_EN.txt	CAR	Vehicles	10	4	[0, 0, 0]	n/a	catFR1	2	R1286J
939.249	0.934	916257	WORD_OFF	n/a	n/a	CAR	n/a	10	4	[0, 0, 0]	n/a	catFR1	2	R1286J
940.183	1.6	917191	WORD	n/a	wordpools/wordpool_categorized_EN.txt	UNDERWEAR	Clothing	11	4	[0, 0, 0]	n/a	catFR1	2	R1286J
941.799	0.984	918807	WORD_OFF	n/a	n/a	UNDERWEAR	n/a	11	4	[0, 0, 0]	n/a	catFR1	2	R1286J
942.783	1.6	919791	WORD	n/a	wordpools/wordpool_categorized_EN.txt	DRESS	Clothing	12	4	[0, 0, 0]	n/a	catFR1	2	R1286J
944.4	0.0	921408	ENCODING_END	n/a	n/a	n/a	n/a	-999	4	[0, 0, 0]	n/a	catFR1	2	R1286J
944.4	0.078	921408	WORD_OFF	n/a	n/a	DRESS	n/a	12	4	[0, 0, 0]	n/a	catFR1	2	R1286J
944.478	0.0	921486	DISTRACT_START	n/a	n/a	n/a	n/a	-999	4	[0, 0, 0]	n/a	catFR1	2	R1286J
944.478	0.022	921486	START	n/a	n/a	n/a	n/a	-999	4	[-999, -999, -999]	n/a	catFR1	2	R1286J
944.5	8.002	921508	PROB	7.964	n/a	n/a	n/a	-999	4	[7, 2, 8]	17.0	catFR1	2	R1286J
952.502	5.316	929510	PROB	5.289	n/a	n/a	n/a	-999	4	[8, 1, 7]	16.0	catFR1	2	R1286J
957.818	4.319	934826	PROB	4.286	n/a	n/a	n/a	-999	4	[1, 4, 4]	9.0	catFR1	2	R1286J
962.137	7.504	939145	PROB	7.504	n/a	n/a	n/a	-999	4	[9, 8, 5]	18.0	catFR1	2	R1286J
969.641	0.014	946648	STOP	n/a	n/a	n/a	n/a	-999	4	[-999, -999, -999]	n/a	catFR1	2	R1286J
969.655	0.533	946662	DISTRACT_END	n/a	n/a	n/a	n/a	-999	4	[0, 0, 0]	n/a	catFR1	2	R1286J
970.188	0.517	947195	RETRIEVAL_ORIENT	n/a	n/a	n/a	n/a	-999	4	[0, 0, 0]	n/a	catFR1	2	R1286J
970.705	2.954	947712	REC_START	n/a	n/a	n/a	n/a	-999	4	[0, 0, 0]	n/a	catFR1	2	R1286J
973.659	0.29	950666	REC_WORD	2.954	n/a	FUR	n/a	-999	4	[0, 0, 0]	n/a	catFR1	2	R1286J
973.949	1.612	950956	REC_WORD	3.244	n/a	BEE	n/a	-999	4	[0, 0, 0]	n/a	catFR1	2	R1286J
975.561	1.826	952568	REC_WORD	4.856	n/a	TRUCK	Vehicles	1	4	[0, 0, 0]	n/a	catFR1	2	R1286J
977.387	2.112	954394	REC_WORD	6.682	n/a	JEANS	Clothing	5	4	[0, 0, 0]	n/a	catFR1	2	R1286J
979.499	1.0	956506	REC_WORD	8.794	n/a	MOTORCYCLE	Vehicles	2	4	[0, 0, 0]	n/a	catFR1	2	R1286J
980.499	1.504	957506	REC_WORD_VV	9.794	n/a	<>	n/a	-999	4	[0, 0, 0]	n/a	catFR1	2	R1286J
982.003	1.0	959010	REC_WORD	11.298	n/a	SAW	n/a	-999	4	[0, 0, 0]	n/a	catFR1	2	R1286J
983.003	11.586	960010	REC_WORD_VV	12.298	n/a	<>	n/a	-999	4	[0, 0, 0]	n/a	catFR1	2	R1286J
994.589	3.324	971595	REC_WORD	23.884	n/a	RATCHET	n/a	-999	4	[0, 0, 0]	n/a	catFR1	2	R1286J
997.913	2.805	974919	REC_WORD	27.208	n/a	WRENCH	n/a	-999	4	[0, 0, 0]	n/a	catFR1	2	R1286J
1000.718	2.559	977724	REC_END	n/a	n/a	n/a	n/a	-999	4	[0, 0, 0]	n/a	catFR1	2	R1286J
1003.277	0.0	980283	TRIAL	n/a	n/a	n/a	n/a	-999	5	[0, 0, 0]	n/a	catFR1	2	R1286J
1003.277	10.0	980283	COUNTDOWN_START	n/a	n/a	n/a	n/a	-999	5	[0, 0, 0]	n/a	catFR1	2	R1286J
1013.705	0.007	990711	COUNTDOWN_END	n/a	n/a	n/a	n/a	-999	5	[0, 0, 0]	n/a	catFR1	2	R1286J
1013.712	1.6	990718	ORIENT	n/a	n/a	n/a	n/a	-999	5	[0, 0, 0]	n/a	catFR1	2	R1286J
1015.329	2.267	992335	ORIENT_OFF	n/a	n/a	n/a	n/a	-999	5	[0, 0, 0]	n/a	catFR1	2	R1286J
1017.596	1.6	994602	WORD	n/a	wordpools/wordpool_categorized_EN.txt	PUZZLE	Toys	1	5	[0, 0, 0]	n/a	catFR1	2	R1286J
1019.213	0.917	996219	WORD_OFF	n/a	n/a	PUZZLE	n/a	1	5	[0, 0, 0]	n/a	catFR1	2	R1286J
1020.13	1.6	997136	WORD	n/a	wordpools/wordpool_categorized_EN.txt	SLINKY	Toys	2	5	[0, 0, 0]	n/a	catFR1	2	R1286J
1021.747	0.783	998753	WORD_OFF	n/a	n/a	SLINKY	n/a	2	5	[0, 0, 0]	n/a	catFR1	2	R1286J
1022.53	1.6	999536	WORD	n/a	wordpools/wordpool_categorized_EN.txt	FOREST	Landscapes	3	5	[0, 0, 0]	n/a	catFR1	2	R1286J
1024.147	0.984	1001152	WORD_OFF	n/a	n/a	FOREST	n/a	3	5	[0, 0, 0]	n/a	catFR1	2	R1286J
1025.131	1.6	1002136	WORD	n/a	wordpools/wordpool_categorized_EN.txt	ISLAND	Landscapes	4	5	[0, 0, 0]	n/a	catFR1	2	R1286J
1026.747	0.784	1003752	WORD_OFF	n/a	n/a	ISLAND	n/a	4	5	[0, 0, 0]	n/a	catFR1	2	R1286J
1027.531	1.6	1004536	WORD	n/a	wordpools/wordpool_categorized_EN.txt	FINCH	Birds	5	5	[0, 0, 0]	n/a	catFR1	2	R1286J
1029.148	0.782	1006153	WORD_OFF	n/a	n/a	FINCH	n/a	5	5	[0, 0, 0]	n/a	catFR1	2	R1286J
1029.93	1.6	1006935	WORD	n/a	wordpools/wordpool_categorized_EN.txt	CROW	Birds	6	5	[0, 0, 0]	n/a	catFR1	2	R1286J
1031.548	0.917	1008553	WORD_OFF	n/a	n/a	CROW	n/a	6	5	[0, 0, 0]	n/a	catFR1	2	R1286J
1032.465	1.6	1009470	WORD	n/a	wordpools/wordpool_categorized_EN.txt	BLOCKS	Toys	7	5	[0, 0, 0]	n/a	catFR1	2	R1286J
1034.082	0.984	1011087	WORD_OFF	n/a	n/a	BLOCKS	n/a	7	5	[0, 0, 0]	n/a	catFR1	2	R1286J
1035.066	1.6	1012071	WORD	n/a	wordpools/wordpool_categorized_EN.txt	MARBLES	Toys	8	5	[0, 0, 0]	n/a	catFR1	2	R1286J
1036.683	0.883	1013688	WORD_OFF	n/a	n/a	MARBLES	n/a	8	5	[0, 0, 0]	n/a	catFR1	2	R1286J
1037.566	1.6	1014571	WORD	n/a	wordpools/wordpool_categorized_EN.txt	WOODS	Landscapes	9	5	[0, 0, 0]	n/a	catFR1	2	R1286J
1039.183	0.849	1016188	WORD_OFF	n/a	n/a	WOODS	n/a	9	5	[0, 0, 0]	n/a	catFR1	2	R1286J
1040.032	1.6	1017037	WORD	n/a	wordpools/wordpool_categorized_EN.txt	CREEK	Landscapes	10	5	[0, 0, 0]	n/a	catFR1	2	R1286J
1041.65	0.8	1018655	WORD_OFF	n/a	n/a	CREEK	n/a	10	5	[0, 0, 0]	n/a	catFR1	2	R1286J
1042.45	1.6	1019455	WORD	n/a	wordpools/wordpool_categorized_EN.txt	SPARROW	Birds	11	5	[0, 0, 0]	n/a	catFR1	2	R1286J
1044.067	0.849	1021072	WORD_OFF	n/a	n/a	SPARROW	n/a	11	5	[0, 0, 0]	n/a	catFR1	2	R1286J
1044.916	1.6	1021921	WORD	n/a	wordpools/wordpool_categorized_EN.txt	DOVE	Birds	12	5	[0, 0, 0]	n/a	catFR1	2	R1286J
1046.534	0.0	1023539	ENCODING_END	n/a	n/a	n/a	n/a	-999	5	[0, 0, 0]	n/a	catFR1	2	R1286J
1046.534	0.104	1023539	WORD_OFF	n/a	n/a	DOVE	n/a	12	5	[0, 0, 0]	n/a	catFR1	2	R1286J
1046.638	0.0	1023643	DISTRACT_START	n/a	n/a	n/a	n/a	-999	5	[0, 0, 0]	n/a	catFR1	2	R1286J
1046.638	0.013	1023643	START	n/a	n/a	n/a	n/a	-999	5	[-999, -999, -999]	n/a	catFR1	2	R1286J
1046.651	7.418	1023656	PROB	7.393	n/a	n/a	n/a	-999	5	[5, 6, 6]	17.0	catFR1	2	R1286J
1054.069	5.634	1031073	PROB	5.599	n/a	n/a	n/a	-999	5	[9, 3, 1]	13.0	catFR1	2	R1286J
1059.703	6.718	1036707	PROB	6.685	n/a	n/a	n/a	-999	5	[8, 4, 6]	18.0	catFR1	2	R1286J
1066.421	4.615	1043425	PROB	4.615	n/a	n/a	n/a	-999	5	[7, 3, 2]	12.0	catFR1	2	R1286J
1071.036	0.019	1048040	STOP	n/a	n/a	n/a	n/a	-999	5	[-999, -999, -999]	n/a	catFR1	2	R1286J
1071.055	0.7	1048059	DISTRACT_END	n/a	n/a	n/a	n/a	-999	5	[0, 0, 0]	n/a	catFR1	2	R1286J
1071.755	0.517	1048759	RETRIEVAL_ORIENT	n/a	n/a	n/a	n/a	-999	5	[0, 0, 0]	n/a	catFR1	2	R1286J
1072.272	1.748	1049276	REC_START	n/a	n/a	n/a	n/a	-999	5	[0, 0, 0]	n/a	catFR1	2	R1286J
1074.02	1.446	1051024	REC_WORD	1.748	n/a	PUZZLE	Toys	1	5	[0, 0, 0]	n/a	catFR1	2	R1286J
1075.466	1.791	1052470	REC_WORD	3.194	n/a	ISLAND	Landscapes	4	5	[0, 0, 0]	n/a	catFR1	2	R1286J
1077.257	2.139	1054261	REC_WORD	4.985	n/a	FINCH	Birds	5	5	[0, 0, 0]	n/a	catFR1	2	R1286J
1079.396	22.302	1056400	REC_WORD	7.124	n/a	CROW	Birds	6	5	[0, 0, 0]	n/a	catFR1	2	R1286J
1101.698	0.587	1078701	REC_WORD	29.426	n/a	SCREWDRIVER	n/a	-999	5	[0, 0, 0]	n/a	catFR1	2	R1286J
1102.285	3.026	1079288	REC_END	n/a	n/a	n/a	n/a	-999	5	[0, 0, 0]	n/a	catFR1	2	R1286J
1105.311	10.0	1082314	COUNTDOWN_START	n/a	n/a	n/a	n/a	-999	6	[0, 0, 0]	n/a	catFR1	2	R1286J
1105.311	10.428	1082314	TRIAL	n/a	n/a	n/a	n/a	-999	6	[0, 0, 0]	n/a	catFR1	2	R1286J
1115.739	0.007	1092741	COUNTDOWN_END	n/a	n/a	n/a	n/a	-999	6	[0, 0, 0]	n/a	catFR1	2	R1286J
1115.746	1.6	1092748	ORIENT	n/a	n/a	n/a	n/a	-999	6	[0, 0, 0]	n/a	catFR1	2	R1286J
1117.363	1.933	1094365	ORIENT_OFF	n/a	n/a	n/a	n/a	-999	6	[0, 0, 0]	n/a	catFR1	2	R1286J
1119.296	1.6	1096298	WORD	n/a	wordpools/wordpool_categorized_EN.txt	HURRICANE	Weather	1	6	[0, 0, 0]	n/a	catFR1	2	R1286J
1120.912	0.917	1097914	WORD_OFF	n/a	n/a	HURRICANE	n/a	1	6	[0, 0, 0]	n/a	catFR1	2	R1286J
1121.829	1.6	1098831	WORD	n/a	wordpools/wordpool_categorized_EN.txt	HUMIDITY	Weather	2	6	[0, 0, 0]	n/a	catFR1	2	R1286J
1123.43	0.951	1100432	WORD_OFF	n/a	n/a	HUMIDITY	n/a	2	6	[0, 0, 0]	n/a	catFR1	2	R1286J
1124.381	1.6	1101383	WORD	n/a	wordpools/wordpool_categorized_EN.txt	BUS	Vehicles	3	6	[0, 0, 0]	n/a	catFR1	2	R1286J
1125.997	0.95	1102999	WORD_OFF	n/a	n/a	BUS	n/a	3	6	[0, 0, 0]	n/a	catFR1	2	R1286J
1126.947	1.6	1103949	WORD	n/a	wordpools/wordpool_categorized_EN.txt	JEEP	Vehicles	4	6	[0, 0, 0]	n/a	catFR1	2	R1286J
1128.565	0.9	1105567	WORD_OFF	n/a	n/a	JEEP	n/a	4	6	[0, 0, 0]	n/a	catFR1	2	R1286J
1129.465	1.6	1106467	WORD	n/a	wordpools/wordpool_categorized_EN.txt	DAFFODIL	Flowers	5	6	[0, 0, 0]	n/a	catFR1	2	R1286J
1131.082	0.832	1108084	WORD_OFF	n/a	n/a	DAFFODIL	n/a	5	6	[0, 0, 0]	n/a	catFR1	2	R1286J
1131.914	1.6	1108916	WORD	n/a	wordpools/wordpool_categorized_EN.txt	DAISY	Flowers	6	6	[0, 0, 0]	n/a	catFR1	2	R1286J
1133.532	0.85	1110534	WORD_OFF	n/a	n/a	DAISY	n/a	6	6	[0, 0, 0]	n/a	catFR1	2	R1286J
1134.382	1.6	1111384	WORD	n/a	wordpools/wordpool_categorized_EN.txt	VAN	Vehicles	7	6	[0, 0, 0]	n/a	catFR1	2	R1286J
1135.998	0.785	1113000	WORD_OFF	n/a	n/a	VAN	n/a	7	6	[0, 0, 0]	n/a	catFR1	2	R1286J
1136.783	1.6	1113785	WORD	n/a	wordpools/wordpool_categorized_EN.txt	TRAIN	Vehicles	8	6	[0, 0, 0]	n/a	catFR1	2	R1286J
1138.4	1.0	1115402	WORD_OFF	n/a	n/a	TRAIN	n/a	8	6	[0, 0, 0]	n/a	catFR1	2	R1286J
1139.4	1.6	1116402	WORD	n/a	wordpools/wordpool_categorized_EN.txt	FOG	Weather	9	6	[0, 0, 0]	n/a	catFR1	2	R1286J
1141.016	0.783	1118017	WORD_OFF	n/a	n/a	FOG	n/a	9	6	[0, 0, 0]	n/a	catFR1	2	R1286J
1141.799	1.6	1118800	WORD	n/a	wordpools/wordpool_categorized_EN.txt	RAIN	Weather	10	6	[0, 0, 0]	n/a	catFR1	2	R1286J
1143.417	1.0	1120418	WORD_OFF	n/a	n/a	RAIN	n/a	10	6	[0, 0, 0]	n/a	catFR1	2	R1286J
1144.417	1.6	1121418	WORD	n/a	wordpools/wordpool_categorized_EN.txt	ROSE	Flowers	11	6	[0, 0, 0]	n/a	catFR1	2	R1286J
1146.033	0.984	1123034	WORD_OFF	n/a	n/a	ROSE	n/a	11	6	[0, 0, 0]	n/a	catFR1	2	R1286J
1147.017	1.6	1124018	WORD	n/a	wordpools/wordpool_categorized_EN.txt	LILAC	Flowers	12	6	[0, 0, 0]	n/a	catFR1	2	R1286J
1148.635	0.0	1125636	ENCODING_END	n/a	n/a	n/a	n/a	-999	6	[0, 0, 0]	n/a	catFR1	2	R1286J
1148.635	0.074	1125636	WORD_OFF	n/a	n/a	LILAC	n/a	12	6	[0, 0, 0]	n/a	catFR1	2	R1286J
1148.709	0.001	1125710	DISTRACT_START	n/a	n/a	n/a	n/a	-999	6	[0, 0, 0]	n/a	catFR1	2	R1286J
1148.71	0.008	1125711	START	n/a	n/a	n/a	n/a	-999	6	[-999, -999, -999]	n/a	catFR1	2	R1286J
1148.718	9.668	1125719	PROB	9.629	n/a	n/a	n/a	-999	6	[1, 4, 7]	12.0	catFR1	2	R1286J
1158.386	7.551	1135387	PROB	7.526	n/a	n/a	n/a	-999	6	[6, 5, 3]	14.0	catFR1	2	R1286J
1165.937	7.263	1142938	PROB	7.263	n/a	n/a	n/a	-999	6	[9, 1, 5]	15.0	catFR1	2	R1286J
1173.2	0.022	1150200	STOP	n/a	n/a	n/a	n/a	-999	6	[-999, -999, -999]	n/a	catFR1	2	R1286J
1173.222	0.649	1150222	DISTRACT_END	n/a	n/a	n/a	n/a	-999	6	[0, 0, 0]	n/a	catFR1	2	R1286J
1173.871	0.519	1150871	RETRIEVAL_ORIENT	n/a	n/a	n/a	n/a	-999	6	[0, 0, 0]	n/a	catFR1	2	R1286J
1174.39	2.429	1151390	REC_START	n/a	n/a	n/a	n/a	-999	6	[0, 0, 0]	n/a	catFR1	2	R1286J
1176.819	1.829	1153819	REC_WORD	2.429	n/a	BUS	Vehicles	3	6	[0, 0, 0]	n/a	catFR1	2	R1286J
1178.648	1.65	1155648	REC_WORD	4.258	n/a	JEEP	Vehicles	4	6	[0, 0, 0]	n/a	catFR1	2	R1286J
1180.298	2.286	1157298	REC_WORD	5.908	n/a	TRAIN	Vehicles	8	6	[0, 0, 0]	n/a	catFR1	2	R1286J
1182.584	2.411	1159584	REC_WORD	8.194	n/a	ROSE	Flowers	11	6	[0, 0, 0]	n/a	catFR1	2	R1286J
1184.995	1.0	1161995	REC_WORD	10.605	n/a	CARNATION	n/a	-999	6	[0, 0, 0]	n/a	catFR1	2	R1286J
1185.995	1.179	1162995	REC_WORD_VV	11.605	n/a	<>	n/a	-999	6	[0, 0, 0]	n/a	catFR1	2	R1286J
1187.174	6.588	1164174	REC_WORD	12.784	n/a	RAIN	Weather	10	6	[0, 0, 0]	n/a	catFR1	2	R1286J
1193.762	1.501	1170762	REC_WORD	19.372	n/a	MOTORCYCLE	n/a	-999	6	[0, 0, 0]	n/a	catFR1	2	R1286J
1195.263	9.138	1172263	REC_WORD	20.873	n/a	HURRICANE	Weather	1	6	[0, 0, 0]	n/a	catFR1	2	R1286J
1204.401	2.243	1181400	REC_END	n/a	n/a	n/a	n/a	-999	6	[0, 0, 0]	n/a	catFR1	2	R1286J
1206.644	0.0	1183643	TRIAL	n/a	n/a	n/a	n/a	-999	7	[0, 0, 0]	n/a	catFR1	2	R1286J
1206.644	10.0	1183643	COUNTDOWN_START	n/a	n/a	n/a	n/a	-999	7	[0, 0, 0]	n/a	catFR1	2	R1286J
1217.072	0.008	1194071	COUNTDOWN_END	n/a	n/a	n/a	n/a	-999	7	[0, 0, 0]	n/a	catFR1	2	R1286J
1217.08	1.6	1194079	ORIENT	n/a	n/a	n/a	n/a	-999	7	[0, 0, 0]	n/a	catFR1	2	R1286J
1218.697	2.067	1195696	ORIENT_OFF	n/a	n/a	n/a	n/a	-999	7	[0, 0, 0]	n/a	catFR1	2	R1286J
1220.764	1.6	1197763	WORD	n/a	wordpools/wordpool_categorized_EN.txt	FLOOR	Building	1	7	[0, 0, 0]	n/a	catFR1	2	R1286J
1222.381	0.883	1199380	WORD_OFF	n/a	n/a	FLOOR	n/a	1	7	[0, 0, 0]	n/a	catFR1	2	R1286J
1223.264	1.6	1200263	WORD	n/a	wordpools/wordpool_categorized_EN.txt	CEILING	Building	2	7	[0, 0, 0]	n/a	catFR1	2	R1286J
1224.88	0.933	1201879	WORD_OFF	n/a	n/a	CEILING	n/a	2	7	[0, 0, 0]	n/a	catFR1	2	R1286J
1225.813	1.6	1202812	WORD	n/a	wordpools/wordpool_categorized_EN.txt	SODA	Beverages	3	7	[0, 0, 0]	n/a	catFR1	2	R1286J
1227.415	0.8	1204414	WORD_OFF	n/a	n/a	SODA	n/a	3	7	[0, 0, 0]	n/a	catFR1	2	R1286J
1228.215	1.6	1205214	WORD	n/a	wordpools/wordpool_categorized_EN.txt	MILK	Beverages	4	7	[0, 0, 0]	n/a	catFR1	2	R1286J
1229.831	0.851	1206829	WORD_OFF	n/a	n/a	MILK	n/a	4	7	[0, 0, 0]	n/a	catFR1	2	R1286J
1230.682	1.6	1207680	WORD	n/a	wordpools/wordpool_categorized_EN.txt	BANJO	Instruments	5	7	[0, 0, 0]	n/a	catFR1	2	R1286J
1232.299	0.933	1209297	WORD_OFF	n/a	n/a	BANJO	n/a	5	7	[0, 0, 0]	n/a	catFR1	2	R1286J
1233.232	1.6	1210230	WORD	n/a	wordpools/wordpool_categorized_EN.txt	ORGAN	Instruments	6	7	[0, 0, 0]	n/a	catFR1	2	R1286J
1234.848	0.835	1211846	WORD_OFF	n/a	n/a	ORGAN	n/a	6	7	[0, 0, 0]	n/a	catFR1	2	R1286J
1235.683	1.6	1212681	WORD	n/a	wordpools/wordpool_categorized_EN.txt	WINE	Beverages	7	7	[0, 0, 0]	n/a	catFR1	2	R1286J
1237.3	0.933	1214298	WORD_OFF	n/a	n/a	WINE	n/a	7	7	[0, 0, 0]	n/a	catFR1	2	R1286J
1238.233	1.6	1215231	WORD	n/a	wordpools/wordpool_categorized_EN.txt	JUICE	Beverages	8	7	[0, 0, 0]	n/a	catFR1	2	R1286J
1239.849	0.768	1216847	WORD_OFF	n/a	n/a	JUICE	n/a	8	7	[0, 0, 0]	n/a	catFR1	2	R1286J
1240.617	1.6	1217615	WORD	n/a	wordpools/wordpool_categorized_EN.txt	ROOM	Building	9	7	[0, 0, 0]	n/a	catFR1	2	R1286J
1242.234	0.983	1219232	WORD_OFF	n/a	n/a	ROOM	n/a	9	7	[0, 0, 0]	n/a	catFR1	2	R1286J
1243.217	1.6	1220215	WORD	n/a	wordpools/wordpool_categorized_EN.txt	FOUNDATION	Building	10	7	[0, 0, 0]	n/a	catFR1	2	R1286J
1244.833	0.902	1221831	WORD_OFF	n/a	n/a	FOUNDATION	n/a	10	7	[0, 0, 0]	n/a	catFR1	2	R1286J
1245.735	1.6	1222733	WORD	n/a	wordpools/wordpool_categorized_EN.txt	TUBA	Instruments	11	7	[0, 0, 0]	n/a	catFR1	2	R1286J
1247.352	1.0	1224350	WORD_OFF	n/a	n/a	TUBA	n/a	11	7	[0, 0, 0]	n/a	catFR1	2	R1286J
1248.352	1.6	1225350	WORD	n/a	wordpools/wordpool_categorized_EN.txt	VIOLIN	Instruments	12	7	[0, 0, 0]	n/a	catFR1	2	R1286J
1249.968	0.0	1226966	ENCODING_END	n/a	n/a	n/a	n/a	-999	7	[0, 0, 0]	n/a	catFR1	2	R1286J
1249.968	0.078	1226966	WORD_OFF	n/a	n/a	VIOLIN	n/a	12	7	[0, 0, 0]	n/a	catFR1	2	R1286J
1250.046	0.0	1227044	DISTRACT_START	n/a	n/a	n/a	n/a	-999	7	[0, 0, 0]	n/a	catFR1	2	R1286J
1250.046	0.023	1227044	START	n/a	n/a	n/a	n/a	-999	7	[-999, -999, -999]	n/a	catFR1	2	R1286J
1250.069	13.218	1227067	PROB	13.183	n/a	n/a	n/a	-999	7	[8, 4, 7]	19.0	catFR1	2	R1286J
1263.287	6.684	1240284	PROB	6.645	n/a	n/a	n/a	-999	7	[8, 7, 5]	17.0	catFR1	2	R1286J
1269.971	9.706	1246968	PROB	9.706	n/a	n/a	n/a	-999	7	[2, 4, 3]	9.0	catFR1	2	R1286J
1279.677	0.013	1256674	STOP	n/a	n/a	n/a	n/a	-999	7	[-999, -999, -999]	n/a	catFR1	2	R1286J
1279.69	0.684	1256687	DISTRACT_END	n/a	n/a	n/a	n/a	-999	7	[0, 0, 0]	n/a	catFR1	2	R1286J
1280.374	0.516	1257371	RETRIEVAL_ORIENT	n/a	n/a	n/a	n/a	-999	7	[0, 0, 0]	n/a	catFR1	2	R1286J
1280.89	9.025	1257887	REC_START	n/a	n/a	n/a	n/a	-999	7	[0, 0, 0]	n/a	catFR1	2	R1286J
1289.915	4.549	1266911	REC_WORD	9.025	n/a	BUS	n/a	-999	7	[0, 0, 0]	n/a	catFR1	2	R1286J
1294.464	1.297	1271460	REC_WORD	13.574	n/a	BUS	n/a	-999	7	[0, 0, 0]	n/a	catFR1	2	R1286J
1295.761	15.141	1272757	REC_WORD	14.871	n/a	JEEP	n/a	-999	7	[0, 0, 0]	n/a	catFR1	2	R1286J
1310.902	4.161	1287898	REC_END	n/a	n/a	n/a	n/a	-999	7	[0, 0, 0]	n/a	catFR1	2	R1286J
1315.063	0.0	1292059	TRIAL	n/a	n/a	n/a	n/a	-999	8	[0, 0, 0]	n/a	catFR1	2	R1286J
1315.063	10.0	1292059	COUNTDOWN_START	n/a	n/a	n/a	n/a	-999	8	[0, 0, 0]	n/a	catFR1	2	R1286J
1325.491	0.007	1302486	COUNTDOWN_END	n/a	n/a	n/a	n/a	-999	8	[0, 0, 0]	n/a	catFR1	2	R1286J
1325.498	1.6	1302493	ORIENT	n/a	n/a	n/a	n/a	-999	8	[0, 0, 0]	n/a	catFR1	2	R1286J
1327.115	2.05	1304110	ORIENT_OFF	n/a	n/a	n/a	n/a	-999	8	[0, 0, 0]	n/a	catFR1	2	R1286J
1329.165	1.6	1306160	WORD	n/a	wordpools/wordpool_categorized_EN.txt	LEVEL	Tools	1	8	[0, 0, 0]	n/a	catFR1	2	R1286J
1330.782	0.917	1307777	WORD_OFF	n/a	n/a	LEVEL	n/a	1	8	[0, 0, 0]	n/a	catFR1	2	R1286J
1331.699	1.6	1308694	WORD	n/a	wordpools/wordpool_categorized_EN.txt	AXE	Tools	2	8	[0, 0, 0]	n/a	catFR1	2	R1286J
1333.316	0.967	1310311	WORD_OFF	n/a	n/a	AXE	n/a	2	8	[0, 0, 0]	n/a	catFR1	2	R1286J
1334.283	1.6	1311278	WORD	n/a	wordpools/wordpool_categorized_EN.txt	LIGHTNING	Weather	3	8	[0, 0, 0]	n/a	catFR1	2	R1286J
1335.899	0.868	1312894	WORD_OFF	n/a	n/a	LIGHTNING	n/a	3	8	[0, 0, 0]	n/a	catFR1	2	R1286J
1336.767	1.6	1313762	WORD	n/a	wordpools/wordpool_categorized_EN.txt	SNOW	Weather	4	8	[0, 0, 0]	n/a	catFR1	2	R1286J
1338.384	0.883	1315379	WORD_OFF	n/a	n/a	SNOW	n/a	4	8	[0, 0, 0]	n/a	catFR1	2	R1286J
1339.267	1.6	1316262	WORD	n/a	wordpools/wordpool_categorized_EN.txt	GUITAR	Instruments	5	8	[0, 0, 0]	n/a	catFR1	2	R1286J
1340.883	0.917	1317878	WORD_OFF	n/a	n/a	GUITAR	n/a	5	8	[0, 0, 0]	n/a	catFR1	2	R1286J
1341.8	1.6	1318795	WORD	n/a	wordpools/wordpool_categorized_EN.txt	CELLO	Instruments	6	8	[0, 0, 0]	n/a	catFR1	2	R1286J
1343.418	0.883	1320413	WORD_OFF	n/a	n/a	CELLO	n/a	6	8	[0, 0, 0]	n/a	catFR1	2	R1286J
1344.301	1.6	1321296	WORD	n/a	wordpools/wordpool_categorized_EN.txt	PLIERS	Tools	7	8	[0, 0, 0]	n/a	catFR1	2	R1286J
1345.917	0.818	1322912	WORD_OFF	n/a	n/a	PLIERS	n/a	7	8	[0, 0, 0]	n/a	catFR1	2	R1286J
1346.735	1.6	1323729	WORD	n/a	wordpools/wordpool_categorized_EN.txt	SHOVEL	Tools	8	8	[0, 0, 0]	n/a	catFR1	2	R1286J
1348.352	0.833	1325346	WORD_OFF	n/a	n/a	SHOVEL	n/a	8	8	[0, 0, 0]	n/a	catFR1	2	R1286J
1349.185	1.6	1326179	WORD	n/a	wordpools/wordpool_categorized_EN.txt	DRIZZLE	Weather	9	8	[0, 0, 0]	n/a	catFR1	2	R1286J
1350.801	0.818	1327795	WORD_OFF	n/a	n/a	DRIZZLE	n/a	9	8	[0, 0, 0]	n/a	catFR1	2	R1286J
1351.619	1.6	1328613	WORD	n/a	wordpools/wordpool_categorized_EN.txt	THUNDER	Weather	10	8	[0, 0, 0]	n/a	catFR1	2	R1286J
1353.236	0.799	1330230	WORD_OFF	n/a	n/a	THUNDER	n/a	10	8	[0, 0, 0]	n/a	catFR1	2	R1286J
1354.035	1.6	1331029	WORD	n/a	wordpools/wordpool_categorized_EN.txt	TROMBONE	Instruments	11	8	[0, 0, 0]	n/a	catFR1	2	R1286J
1355.636	0.834	1332630	WORD_OFF	n/a	n/a	TROMBONE	n/a	11	8	[0, 0, 0]	n/a	catFR1	2	R1286J
1356.47	1.6	1333464	WORD	n/a	wordpools/wordpool_categorized_EN.txt	DRUM	Instruments	12	8	[0, 0, 0]	n/a	catFR1	2	R1286J
1358.087	0.0	1335081	ENCODING_END	n/a	n/a	n/a	n/a	-999	8	[0, 0, 0]	n/a	catFR1	2	R1286J
1358.087	0.102	1335081	WORD_OFF	n/a	n/a	DRUM	n/a	12	8	[0, 0, 0]	n/a	catFR1	2	R1286J
1358.189	0.0	1335183	DISTRACT_START	n/a	n/a	n/a	n/a	-999	8	[0, 0, 0]	n/a	catFR1	2	R1286J
1358.189	0.015	1335183	START	n/a	n/a	n/a	n/a	-999	8	[-999, -999, -999]	n/a	catFR1	2	R1286J
1358.204	8.201	1335198	PROB	8.171	n/a	n/a	n/a	-999	8	[3, 1, 6]	10.0	catFR1	2	R1286J
1366.405	4.667	1343399	PROB	4.64	n/a	n/a	n/a	-999	8	[1, 7, 3]	11.0	catFR1	2	R1286J
1371.072	5.351	1348066	PROB	5.319	n/a	n/a	n/a	-999	8	[4, 6, 1]	11.0	catFR1	2	R1286J
1376.423	7.112	1353416	PROB	7.112	n/a	n/a	n/a	-999	8	[8, 6, 2]	16.0	catFR1	2	R1286J
1383.535	0.023	1360528	STOP	n/a	n/a	n/a	n/a	-999	8	[-999, -999, -999]	n/a	catFR1	2	R1286J
1383.558	0.617	1360551	DISTRACT_END	n/a	n/a	n/a	n/a	-999	8	[0, 0, 0]	n/a	catFR1	2	R1286J
1384.175	0.517	1361168	RETRIEVAL_ORIENT	n/a	n/a	n/a	n/a	-999	8	[0, 0, 0]	n/a	catFR1	2	R1286J
1384.692	3.67	1361685	REC_START	n/a	n/a	n/a	n/a	-999	8	[0, 0, 0]	n/a	catFR1	2	R1286J
1388.362	1.741	1365355	REC_WORD	3.67	n/a	AXE	Tools	2	8	[0, 0, 0]	n/a	catFR1	2	R1286J
1390.103	3.043	1367096	REC_WORD	5.411	n/a	LEVEL	Tools	1	8	[0, 0, 0]	n/a	catFR1	2	R1286J
1393.146	1.839	1370139	REC_WORD	8.454	n/a	ORGAN	n/a	-999	8	[0, 0, 0]	n/a	catFR1	2	R1286J
1394.985	2.473	1371978	REC_WORD	10.293	n/a	BANJO	n/a	-999	8	[0, 0, 0]	n/a	catFR1	2	R1286J
1397.458	1.53	1374451	REC_WORD	12.766	n/a	PIANO	n/a	-999	8	[0, 0, 0]	n/a	catFR1	2	R1286J
1398.988	1.0	1375981	REC_WORD	14.296	n/a	TROMBONE	Instruments	11	8	[0, 0, 0]	n/a	catFR1	2	R1286J
1399.988	12.104	1376981	REC_WORD_VV	15.296	n/a	<>	n/a	-999	8	[0, 0, 0]	n/a	catFR1	2	R1286J
1412.092	2.611	1389084	REC_WORD_VV	27.4	n/a	<>	n/a	-999	8	[0, 0, 0]	n/a	catFR1	2	R1286J
1414.703	3.193	1391695	REC_END	n/a	n/a	n/a	n/a	-999	8	[0, 0, 0]	n/a	catFR1	2	R1286J
1417.896	0.0	1394888	TRIAL	n/a	n/a	n/a	n/a	-999	9	[0, 0, 0]	n/a	catFR1	2	R1286J
1417.896	10.0	1394888	COUNTDOWN_START	n/a	n/a	n/a	n/a	-999	9	[0, 0, 0]	n/a	catFR1	2	R1286J
1428.324	0.008	1405316	COUNTDOWN_END	n/a	n/a	n/a	n/a	-999	9	[0, 0, 0]	n/a	catFR1	2	R1286J
1428.332	1.6	1405324	ORIENT	n/a	n/a	n/a	n/a	-999	9	[0, 0, 0]	n/a	catFR1	2	R1286J
1429.948	2.318	1406940	ORIENT_OFF	n/a	n/a	n/a	n/a	-999	9	[0, 0, 0]	n/a	catFR1	2	R1286J
1432.266	1.6	1409258	WORD	n/a	wordpools/wordpool_categorized_EN.txt	OCTOPUS	OceanAnimals	1	9	[0, 0, 0]	n/a	catFR1	2	R1286J
1433.882	0.901	1410874	WORD_OFF	n/a	n/a	OCTOPUS	n/a	1	9	[0, 0, 0]	n/a	catFR1	2	R1286J
1434.783	1.6	1411774	WORD	n/a	wordpools/wordpool_categorized_EN.txt	JELLYFISH	OceanAnimals	2	9	[0, 0, 0]	n/a	catFR1	2	R1286J
1436.4	0.884	1413391	WORD_OFF	n/a	n/a	JELLYFISH	n/a	2	9	[0, 0, 0]	n/a	catFR1	2	R1286J
1437.284	1.6	1414275	WORD	n/a	wordpools/wordpool_categorized_EN.txt	WIND	Weather	3	9	[0, 0, 0]	n/a	catFR1	2	R1286J
1438.9	0.95	1415891	WORD_OFF	n/a	n/a	WIND	n/a	3	9	[0, 0, 0]	n/a	catFR1	2	R1286J
1439.85	1.6	1416841	WORD	n/a	wordpools/wordpool_categorized_EN.txt	CLOUD	Weather	4	9	[0, 0, 0]	n/a	catFR1	2	R1286J
1441.468	0.8	1418459	WORD_OFF	n/a	n/a	CLOUD	n/a	4	9	[0, 0, 0]	n/a	catFR1	2	R1286J
1442.268	1.6	1419259	WORD	n/a	wordpools/wordpool_categorized_EN.txt	LEMONADE	Beverages	5	9	[0, 0, 0]	n/a	catFR1	2	R1286J
1443.884	0.983	1420875	WORD_OFF	n/a	n/a	LEMONADE	n/a	5	9	[0, 0, 0]	n/a	catFR1	2	R1286J
1444.867	1.6	1421858	WORD	n/a	wordpools/wordpool_categorized_EN.txt	CIDER	Beverages	6	9	[0, 0, 0]	n/a	catFR1	2	R1286J
1446.468	0.967	1423459	WORD_OFF	n/a	n/a	CIDER	n/a	6	9	[0, 0, 0]	n/a	catFR1	2	R1286J
1447.435	1.6	1424426	WORD	n/a	wordpools/wordpool_categorized_EN.txt	FISH	OceanAnimals	7	9	[0, 0, 0]	n/a	catFR1	2	R1286J
1449.051	0.85	1426042	WORD_OFF	n/a	n/a	FISH	n/a	7	9	[0, 0, 0]	n/a	catFR1	2	R1286J
1449.901	1.6	1426892	WORD	n/a	wordpools/wordpool_categorized_EN.txt	TURTLE	OceanAnimals	8	9	[0, 0, 0]	n/a	catFR1	2	R1286J
1451.503	0.85	1428494	WORD_OFF	n/a	n/a	TURTLE	n/a	8	9	[0, 0, 0]	n/a	catFR1	2	R1286J
1452.353	1.6	1429344	WORD	n/a	wordpools/wordpool_categorized_EN.txt	TORNADO	Weather	9	9	[0, 0, 0]	n/a	catFR1	2	R1286J
1453.969	0.916	1430960	WORD_OFF	n/a	n/a	TORNADO	n/a	9	9	[0, 0, 0]	n/a	catFR1	2	R1286J
1454.885	1.6	1431876	WORD	n/a	wordpools/wordpool_categorized_EN.txt	THUNDERSTORM	Weather	10	9	[0, 0, 0]	n/a	catFR1	2	R1286J
1456.487	1.0	1433478	WORD_OFF	n/a	n/a	THUNDERSTORM	n/a	10	9	[0, 0, 0]	n/a	catFR1	2	R1286J
1457.487	1.6	1434478	WORD	n/a	wordpools/wordpool_categorized_EN.txt	BEER	Beverages	11	9	[0, 0, 0]	n/a	catFR1	2	R1286J
1459.104	0.882	1436095	WORD_OFF	n/a	n/a	BEER	n/a	11	9	[0, 0, 0]	n/a	catFR1	2	R1286J
1459.986	1.6	1436977	WORD	n/a	wordpools/wordpool_categorized_EN.txt	RUM	Beverages	12	9	[0, 0, 0]	n/a	catFR1	2	R1286J
1461.587	0.001	1438578	WORD_OFF	n/a	n/a	RUM	n/a	12	9	[0, 0, 0]	n/a	catFR1	2	R1286J
1461.588	0.077	1438579	ENCODING_END	n/a	n/a	n/a	n/a	-999	9	[0, 0, 0]	n/a	catFR1	2	R1286J
1461.665	0.0	1438656	DISTRACT_START	n/a	n/a	n/a	n/a	-999	9	[0, 0, 0]	n/a	catFR1	2	R1286J
1461.665	0.022	1438656	START	n/a	n/a	n/a	n/a	-999	9	[-999, -999, -999]	n/a	catFR1	2	R1286J
1461.687	7.052	1438678	PROB	7.019	n/a	n/a	n/a	-999	9	[1, 6, 2]	9.0	catFR1	2	R1286J
1468.739	3.851	1445729	PROB	3.824	n/a	n/a	n/a	-999	9	[1, 1, 6]	8.0	catFR1	2	R1286J
1472.59	3.917	1449580	PROB	3.893	n/a	n/a	n/a	-999	9	[4, 2, 6]	12.0	catFR1	2	R1286J
1476.507	14.473	1453497	PROB	14.473	n/a	n/a	n/a	-999	9	[3, 9, 4]	16.0	catFR1	2	R1286J
1490.98	0.012	1467970	STOP	n/a	n/a	n/a	n/a	-999	9	[-999, -999, -999]	n/a	catFR1	2	R1286J
1490.992	0.534	1467982	DISTRACT_END	n/a	n/a	n/a	n/a	-999	9	[0, 0, 0]	n/a	catFR1	2	R1286J
1491.526	0.517	1468516	RETRIEVAL_ORIENT	n/a	n/a	n/a	n/a	-999	9	[0, 0, 0]	n/a	catFR1	2	R1286J
1492.043	1.647	1469033	REC_START	n/a	n/a	n/a	n/a	-999	9	[0, 0, 0]	n/a	catFR1	2	R1286J
1493.69	2.443	1470679	REC_WORD	1.647	n/a	OCTOPUS	OceanAnimals	1	9	[0, 0, 0]	n/a	catFR1	2	R1286J
1496.133	2.225	1473122	REC_WORD	4.09	n/a	JELLYFISH	OceanAnimals	2	9	[0, 0, 0]	n/a	catFR1	2	R1286J
1498.358	2.166	1475347	REC_WORD	6.315	n/a	FISH	OceanAnimals	7	9	[0, 0, 0]	n/a	catFR1	2	R1286J
1500.524	6.952	1477513	REC_WORD	8.481	n/a	PLANKTON	n/a	-999	9	[0, 0, 0]	n/a	catFR1	2	R1286J
1507.476	7.831	1484465	REC_WORD	15.433	n/a	SAW	n/a	-999	9	[0, 0, 0]	n/a	catFR1	2	R1286J
1515.307	2.653	1492296	REC_WORD	23.264	n/a	HURRICANE	n/a	-999	9	[0, 0, 0]	n/a	catFR1	2	R1286J
1517.96	4.095	1494949	REC_WORD	25.917	n/a	TORNADO	Weather	9	9	[0, 0, 0]	n/a	catFR1	2	R1286J
1522.055	3.027	1499044	REC_END	n/a	n/a	n/a	n/a	-999	9	[0, 0, 0]	n/a	catFR1	2	R1286J
1525.082	0.0	1502070	TRIAL	n/a	n/a	n/a	n/a	-999	10	[0, 0, 0]	n/a	catFR1	2	R1286J
1525.082	10.0	1502070	COUNTDOWN_START	n/a	n/a	n/a	n/a	-999	10	[0, 0, 0]	n/a	catFR1	2	R1286J
1535.51	0.007	1512498	COUNTDOWN_END	n/a	n/a	n/a	n/a	-999	10	[0, 0, 0]	n/a	catFR1	2	R1286J
1535.517	1.6	1512505	ORIENT	n/a	n/a	n/a	n/a	-999	10	[0, 0, 0]	n/a	catFR1	2	R1286J
1537.134	2.1	1514122	ORIENT_OFF	n/a	n/a	n/a	n/a	-999	10	[0, 0, 0]	n/a	catFR1	2	R1286J
1539.234	1.6	1516222	WORD	n/a	wordpools/wordpool_categorized_EN.txt	SQUID	OceanAnimals	1	10	[0, 0, 0]	n/a	catFR1	2	R1286J
1540.85	0.885	1517838	WORD_OFF	n/a	n/a	SQUID	n/a	1	10	[0, 0, 0]	n/a	catFR1	2	R1286J
1541.735	1.6	1518723	WORD	n/a	wordpools/wordpool_categorized_EN.txt	LOBSTER	OceanAnimals	2	10	[0, 0, 0]	n/a	catFR1	2	R1286J
1543.352	0.933	1520340	WORD_OFF	n/a	n/a	LOBSTER	n/a	2	10	[0, 0, 0]	n/a	catFR1	2	R1286J
1544.285	1.6	1521273	WORD	n/a	wordpools/wordpool_categorized_EN.txt	TIGER	Zoo	3	10	[0, 0, 0]	n/a	catFR1	2	R1286J
1545.901	0.851	1522889	WORD_OFF	n/a	n/a	TIGER	n/a	3	10	[0, 0, 0]	n/a	catFR1	2	R1286J
1546.752	1.6	1523740	WORD	n/a	wordpools/wordpool_categorized_EN.txt	GORILLA	Zoo	4	10	[0, 0, 0]	n/a	catFR1	2	R1286J
1548.369	0.967	1525357	WORD_OFF	n/a	n/a	GORILLA	n/a	4	10	[0, 0, 0]	n/a	catFR1	2	R1286J
1549.336	1.6	1526324	WORD	n/a	wordpools/wordpool_categorized_EN.txt	PRINTER	Electronics	5	10	[0, 0, 0]	n/a	catFR1	2	R1286J
1550.952	0.967	1527940	WORD_OFF	n/a	n/a	PRINTER	n/a	5	10	[0, 0, 0]	n/a	catFR1	2	R1286J
1551.919	1.6	1528907	WORD	n/a	wordpools/wordpool_categorized_EN.txt	TABLET	Electronics	6	10	[0, 0, 0]	n/a	catFR1	2	R1286J
1553.537	0.8	1530524	WORD_OFF	n/a	n/a	TABLET	n/a	6	10	[0, 0, 0]	n/a	catFR1	2	R1286J
1554.337	1.6	1531324	WORD	n/a	wordpools/wordpool_categorized_EN.txt	ELEPHANT	Zoo	7	10	[0, 0, 0]	n/a	catFR1	2	R1286J
1555.953	0.983	1532940	WORD_OFF	n/a	n/a	ELEPHANT	n/a	7	10	[0, 0, 0]	n/a	catFR1	2	R1286J
1556.936	1.6	1533923	WORD	n/a	wordpools/wordpool_categorized_EN.txt	BEAR	Zoo	8	10	[0, 0, 0]	n/a	catFR1	2	R1286J
1558.554	0.85	1535541	WORD_OFF	n/a	n/a	BEAR	n/a	8	10	[0, 0, 0]	n/a	catFR1	2	R1286J
1559.404	1.6	1536391	WORD	n/a	wordpools/wordpool_categorized_EN.txt	WHALE	OceanAnimals	9	10	[0, 0, 0]	n/a	catFR1	2	R1286J
1561.02	0.8	1538007	WORD_OFF	n/a	n/a	WHALE	n/a	9	10	[0, 0, 0]	n/a	catFR1	2	R1286J
1561.82	1.6	1538807	WORD	n/a	wordpools/wordpool_categorized_EN.txt	DOLPHIN	OceanAnimals	10	10	[0, 0, 0]	n/a	catFR1	2	R1286J
1563.422	1.016	1540409	WORD_OFF	n/a	n/a	DOLPHIN	n/a	10	10	[0, 0, 0]	n/a	catFR1	2	R1286J
1564.438	1.6	1541425	WORD	n/a	wordpools/wordpool_categorized_EN.txt	SPEAKER	Electronics	11	10	[0, 0, 0]	n/a	catFR1	2	R1286J
1566.055	0.949	1543042	WORD_OFF	n/a	n/a	SPEAKER	n/a	11	10	[0, 0, 0]	n/a	catFR1	2	R1286J
1567.004	1.6	1543991	WORD	n/a	wordpools/wordpool_categorized_EN.txt	RADIO	Electronics	12	10	[0, 0, 0]	n/a	catFR1	2	R1286J
1568.622	0.001	1545609	WORD_OFF	n/a	n/a	RADIO	n/a	12	10	[0, 0, 0]	n/a	catFR1	2	R1286J
1568.623	0.103	1545610	ENCODING_END	n/a	n/a	n/a	n/a	-999	10	[0, 0, 0]	n/a	catFR1	2	R1286J
1568.726	0.0	1545713	DISTRACT_START	n/a	n/a	n/a	n/a	-999	10	[0, 0, 0]	n/a	catFR1	2	R1286J
1568.726	0.013	1545713	START	n/a	n/a	n/a	n/a	-999	10	[-999, -999, -999]	n/a	catFR1	2	R1286J
1568.739	10.952	1545726	PROB	10.928	n/a	n/a	n/a	-999	10	[5, 8, 2]	15.0	catFR1	2	R1286J
1579.691	5.368	1556678	PROB	5.342	n/a	n/a	n/a	-999	10	[8, 6, 2]	16.0	catFR1	2	R1286J
1585.059	5.094	1562045	PROB	5.094	n/a	n/a	n/a	-999	10	[1, 6, 7]	14.0	catFR1	2	R1286J
1590.153	0.023	1567139	STOP	n/a	n/a	n/a	n/a	-999	10	[-999, -999, -999]	n/a	catFR1	2	R1286J
1590.176	0.683	1567162	DISTRACT_END	n/a	n/a	n/a	n/a	-999	10	[0, 0, 0]	n/a	catFR1	2	R1286J
1590.859	0.518	1567845	RETRIEVAL_ORIENT	n/a	n/a	n/a	n/a	-999	10	[0, 0, 0]	n/a	catFR1	2	R1286J
1591.377	1.456	1568363	REC_START	n/a	n/a	n/a	n/a	-999	10	[0, 0, 0]	n/a	catFR1	2	R1286J
1592.833	2.002	1569819	REC_WORD	1.456	n/a	SQUID	OceanAnimals	1	10	[0, 0, 0]	n/a	catFR1	2	R1286J
1594.835	1.0	1571821	REC_WORD	3.458	n/a	LOBSTER	OceanAnimals	2	10	[0, 0, 0]	n/a	catFR1	2	R1286J
1595.835	1.475	1572821	REC_WORD_VV	4.458	n/a	<>	n/a	-999	10	[0, 0, 0]	n/a	catFR1	2	R1286J
1597.31	2.238	1574296	REC_WORD	5.933	n/a	GORILLA	Zoo	4	10	[0, 0, 0]	n/a	catFR1	2	R1286J
1599.548	1.0	1576534	REC_WORD	8.171	n/a	TIGER	Zoo	3	10	[0, 0, 0]	n/a	catFR1	2	R1286J
1600.548	1.674	1577534	REC_WORD_VV	9.171	n/a	<>	n/a	-999	10	[0, 0, 0]	n/a	catFR1	2	R1286J
1602.222	19.167	1579208	REC_WORD	10.845	n/a	PLANKTON	n/a	-999	10	[0, 0, 0]	n/a	catFR1	2	R1286J
1621.389	1.658	1598374	REC_END	n/a	n/a	n/a	n/a	-999	10	[0, 0, 0]	n/a	catFR1	2	R1286J
1623.047	0.0	1600032	TRIAL	n/a	n/a	n/a	n/a	-999	11	[0, 0, 0]	n/a	catFR1	2	R1286J
1623.047	10.0	1600032	COUNTDOWN_START	n/a	n/a	n/a	n/a	-999	11	[0, 0, 0]	n/a	catFR1	2	R1286J
1633.475	0.008	1610460	COUNTDOWN_END	n/a	n/a	n/a	n/a	-999	11	[0, 0, 0]	n/a	catFR1	2	R1286J
1633.483	1.6	1610468	ORIENT	n/a	n/a	n/a	n/a	-999	11	[0, 0, 0]	n/a	catFR1	2	R1286J
1635.1	2.234	1612085	ORIENT_OFF	n/a	n/a	n/a	n/a	-999	11	[0, 0, 0]	n/a	catFR1	2	R1286J
1637.334	1.6	1614319	WORD	n/a	wordpools/wordpool_categorized_EN.txt	WATER	Beverages	1	11	[0, 0, 0]	n/a	catFR1	2	R1286J
1638.95	0.9	1615935	WORD_OFF	n/a	n/a	WATER	n/a	1	11	[0, 0, 0]	n/a	catFR1	2	R1286J
1639.85	1.6	1616835	WORD	n/a	wordpools/wordpool_categorized_EN.txt	COFFEE	Beverages	2	11	[0, 0, 0]	n/a	catFR1	2	R1286J
1641.451	0.951	1618435	WORD_OFF	n/a	n/a	COFFEE	n/a	2	11	[0, 0, 0]	n/a	catFR1	2	R1286J
1642.402	1.6	1619386	WORD	n/a	wordpools/wordpool_categorized_EN.txt	GOAT	FarmAnimals	3	11	[0, 0, 0]	n/a	catFR1	2	R1286J
1644.018	0.916	1621002	WORD_OFF	n/a	n/a	GOAT	n/a	3	11	[0, 0, 0]	n/a	catFR1	2	R1286J
1644.934	1.6	1621918	WORD	n/a	wordpools/wordpool_categorized_EN.txt	CALF	FarmAnimals	4	11	[0, 0, 0]	n/a	catFR1	2	R1286J
1646.552	0.984	1623536	WORD_OFF	n/a	n/a	CALF	n/a	4	11	[0, 0, 0]	n/a	catFR1	2	R1286J
1647.536	1.6	1624520	WORD	n/a	wordpools/wordpool_categorized_EN.txt	STEREO	Electronics	5	11	[0, 0, 0]	n/a	catFR1	2	R1286J
1649.153	0.9	1626137	WORD_OFF	n/a	n/a	STEREO	n/a	5	11	[0, 0, 0]	n/a	catFR1	2	R1286J
1650.053	1.6	1627037	WORD	n/a	wordpools/wordpool_categorized_EN.txt	CALCULATOR	Electronics	6	11	[0, 0, 0]	n/a	catFR1	2	R1286J
1651.67	0.867	1628654	WORD_OFF	n/a	n/a	CALCULATOR	n/a	6	11	[0, 0, 0]	n/a	catFR1	2	R1286J
1652.537	1.6	1629521	WORD	n/a	wordpools/wordpool_categorized_EN.txt	COLA	Beverages	7	11	[0, 0, 0]	n/a	catFR1	2	R1286J
1654.154	0.849	1631138	WORD_OFF	n/a	n/a	COLA	n/a	7	11	[0, 0, 0]	n/a	catFR1	2	R1286J
1655.003	1.6	1631987	WORD	n/a	wordpools/wordpool_categorized_EN.txt	TEA	Beverages	8	11	[0, 0, 0]	n/a	catFR1	2	R1286J
1656.621	0.9	1633605	WORD_OFF	n/a	n/a	TEA	n/a	8	11	[0, 0, 0]	n/a	catFR1	2	R1286J
1657.521	1.6	1634505	WORD	n/a	wordpools/wordpool_categorized_EN.txt	HEN	FarmAnimals	9	11	[0, 0, 0]	n/a	catFR1	2	R1286J
1659.138	0.832	1636122	WORD_OFF	n/a	n/a	HEN	n/a	9	11	[0, 0, 0]	n/a	catFR1	2	R1286J
1659.97	1.6	1636954	WORD	n/a	wordpools/wordpool_categorized_EN.txt	SHEEP	FarmAnimals	10	11	[0, 0, 0]	n/a	catFR1	2	R1286J
1661.571	0.901	1638555	WORD_OFF	n/a	n/a	SHEEP	n/a	10	11	[0, 0, 0]	n/a	catFR1	2	R1286J
1662.472	1.6	1639456	WORD	n/a	wordpools/wordpool_categorized_EN.txt	SCANNER	Electronics	11	11	[0, 0, 0]	n/a	catFR1	2	R1286J
1664.089	1.017	1641073	WORD_OFF	n/a	n/a	SCANNER	n/a	11	11	[0, 0, 0]	n/a	catFR1	2	R1286J
1665.106	1.6	1642090	WORD	n/a	wordpools/wordpool_categorized_EN.txt	PHONE	Electronics	12	11	[0, 0, 0]	n/a	catFR1	2	R1286J
1666.722	0.001	1643706	WORD_OFF	n/a	n/a	PHONE	n/a	12	11	[0, 0, 0]	n/a	catFR1	2	R1286J
1666.723	0.103	1643707	ENCODING_END	n/a	n/a	n/a	n/a	-999	11	[0, 0, 0]	n/a	catFR1	2	R1286J
1666.826	0.0	1643810	DISTRACT_START	n/a	n/a	n/a	n/a	-999	11	[0, 0, 0]	n/a	catFR1	2	R1286J
1666.826	0.012	1643810	START	n/a	n/a	n/a	n/a	-999	11	[-999, -999, -999]	n/a	catFR1	2	R1286J
1666.838	11.102	1643822	PROB	11.077	n/a	n/a	n/a	-999	11	[2, 6, 7]	15.0	catFR1	2	R1286J
1677.94	5.101	1654923	PROB	5.069	n/a	n/a	n/a	-999	11	[1, 7, 8]	14.0	catFR1	2	R1286J
1683.041	6.395	1660024	PROB	6.395	n/a	n/a	n/a	-999	11	[2, 1, 4]	7.0	catFR1	2	R1286J
1689.436	0.024	1666419	STOP	n/a	n/a	n/a	n/a	-999	11	[-999, -999, -999]	n/a	catFR1	2	R1286J
1689.46	0.549	1666443	DISTRACT_END	n/a	n/a	n/a	n/a	-999	11	[0, 0, 0]	n/a	catFR1	2	R1286J
1690.009	0.518	1666992	RETRIEVAL_ORIENT	n/a	n/a	n/a	n/a	-999	11	[0, 0, 0]	n/a	catFR1	2	R1286J
1690.527	2.487	1667510	REC_START	n/a	n/a	n/a	n/a	-999	11	[0, 0, 0]	n/a	catFR1	2	R1286J
1693.014	2.244	1669997	REC_WORD	2.487	n/a	GOAT	FarmAnimals	3	11	[0, 0, 0]	n/a	catFR1	2	R1286J
1695.258	10.757	1672241	REC_WORD	4.731	n/a	SHEEP	FarmAnimals	10	11	[0, 0, 0]	n/a	catFR1	2	R1286J
1706.015	14.522	1682997	REC_WORD	15.488	n/a	GORILLA	n/a	-999	11	[0, 0, 0]	n/a	catFR1	2	R1286J
1720.537	2.562	1697519	REC_END	n/a	n/a	n/a	n/a	-999	11	[0, 0, 0]	n/a	catFR1	2	R1286J
1723.099	0.0	1700081	TRIAL	n/a	n/a	n/a	n/a	-999	12	[0, 0, 0]	n/a	catFR1	2	R1286J
1723.099	10.0	1700081	COUNTDOWN_START	n/a	n/a	n/a	n/a	-999	12	[0, 0, 0]	n/a	catFR1	2	R1286J
1733.527	0.007	1710508	COUNTDOWN_END	n/a	n/a	n/a	n/a	-999	12	[0, 0, 0]	n/a	catFR1	2	R1286J
1733.534	1.6	1710515	ORIENT	n/a	n/a	n/a	n/a	-999	12	[0, 0, 0]	n/a	catFR1	2	R1286J
1735.151	2.0	1712132	ORIENT_OFF	n/a	n/a	n/a	n/a	-999	12	[0, 0, 0]	n/a	catFR1	2	R1286J
1737.151	1.6	1714132	WORD	n/a	wordpools/wordpool_categorized_EN.txt	FLUTE	Instruments	1	12	[0, 0, 0]	n/a	catFR1	2	R1286J
1738.768	0.917	1715749	WORD_OFF	n/a	n/a	FLUTE	n/a	1	12	[0, 0, 0]	n/a	catFR1	2	R1286J
1739.685	1.6	1716666	WORD	n/a	wordpools/wordpool_categorized_EN.txt	BASS	Instruments	2	12	[0, 0, 0]	n/a	catFR1	2	R1286J
1741.302	0.967	1718283	WORD_OFF	n/a	n/a	BASS	n/a	2	12	[0, 0, 0]	n/a	catFR1	2	R1286J
1742.269	1.6	1719250	WORD	n/a	wordpools/wordpool_categorized_EN.txt	PEN	OfficeSupplies	3	12	[0, 0, 0]	n/a	catFR1	2	R1286J
1743.884	0.902	1720865	WORD_OFF	n/a	n/a	PEN	n/a	3	12	[0, 0, 0]	n/a	catFR1	2	R1286J
1744.786	1.6	1721767	WORD	n/a	wordpools/wordpool_categorized_EN.txt	GLUE	OfficeSupplies	4	12	[0, 0, 0]	n/a	catFR1	2	R1286J
1746.403	0.8	1723384	WORD_OFF	n/a	n/a	GLUE	n/a	4	12	[0, 0, 0]	n/a	catFR1	2	R1286J
1747.203	1.6	1724184	WORD	n/a	wordpools/wordpool_categorized_EN.txt	ZEBRA	Zoo	5	12	[0, 0, 0]	n/a	catFR1	2	R1286J
1748.819	0.934	1725800	WORD_OFF	n/a	n/a	ZEBRA	n/a	5	12	[0, 0, 0]	n/a	catFR1	2	R1286J
1749.753	1.6	1726734	WORD	n/a	wordpools/wordpool_categorized_EN.txt	PANDA	Zoo	6	12	[0, 0, 0]	n/a	catFR1	2	R1286J
1751.37	0.783	1728351	WORD_OFF	n/a	n/a	PANDA	n/a	6	12	[0, 0, 0]	n/a	catFR1	2	R1286J
1752.153	1.6	1729134	WORD	n/a	wordpools/wordpool_categorized_EN.txt	MARKER	OfficeSupplies	7	12	[0, 0, 0]	n/a	catFR1	2	R1286J
1753.77	0.851	1730751	WORD_OFF	n/a	n/a	MARKER	n/a	7	12	[0, 0, 0]	n/a	catFR1	2	R1286J
1754.621	1.6	1731602	WORD	n/a	wordpools/wordpool_categorized_EN.txt	ERASER	OfficeSupplies	8	12	[0, 0, 0]	n/a	catFR1	2	R1286J
1756.238	0.95	1733219	WORD_OFF	n/a	n/a	ERASER	n/a	8	12	[0, 0, 0]	n/a	catFR1	2	R1286J
1757.188	1.6	1734169	WORD	n/a	wordpools/wordpool_categorized_EN.txt	PIANO	Instruments	9	12	[0, 0, 0]	n/a	catFR1	2	R1286J
1758.804	0.867	1735784	WORD_OFF	n/a	n/a	PIANO	n/a	9	12	[0, 0, 0]	n/a	catFR1	2	R1286J
1759.671	1.6	1736651	WORD	n/a	wordpools/wordpool_categorized_EN.txt	TRUMPET	Instruments	10	12	[0, 0, 0]	n/a	catFR1	2	R1286J
1761.288	0.951	1738268	WORD_OFF	n/a	n/a	TRUMPET	n/a	10	12	[0, 0, 0]	n/a	catFR1	2	R1286J
1762.239	1.6	1739219	WORD	n/a	wordpools/wordpool_categorized_EN.txt	ORANGUTAN	Zoo	11	12	[0, 0, 0]	n/a	catFR1	2	R1286J
1763.855	0.867	1740835	WORD_OFF	n/a	n/a	ORANGUTAN	n/a	11	12	[0, 0, 0]	n/a	catFR1	2	R1286J
1764.722	1.6	1741702	WORD	n/a	wordpools/wordpool_categorized_EN.txt	CHIMPANZEE	Zoo	12	12	[0, 0, 0]	n/a	catFR1	2	R1286J
1766.339	0.0	1743319	ENCODING_END	n/a	n/a	n/a	n/a	-999	12	[0, 0, 0]	n/a	catFR1	2	R1286J
1766.339	0.078	1743319	WORD_OFF	n/a	n/a	CHIMPANZEE	n/a	12	12	[0, 0, 0]	n/a	catFR1	2	R1286J
1766.417	0.0	1743397	DISTRACT_START	n/a	n/a	n/a	n/a	-999	12	[0, 0, 0]	n/a	catFR1	2	R1286J
1766.417	0.022	1743397	START	n/a	n/a	n/a	n/a	-999	12	[-999, -999, -999]	n/a	catFR1	2	R1286J
1766.439	9.202	1743419	PROB	9.175	n/a	n/a	n/a	-999	12	[3, 2, 6]	11.0	catFR1	2	R1286J
1775.641	6.634	1752621	PROB	6.597	n/a	n/a	n/a	-999	12	[9, 5, 7]	21.0	catFR1	2	R1286J
1782.275	13.827	1759255	PROB	13.827	n/a	n/a	n/a	-999	12	[8, 3, 8]	19.0	catFR1	2	R1286J
1796.102	0.009	1773081	STOP	n/a	n/a	n/a	n/a	-999	12	[-999, -999, -999]	n/a	catFR1	2	R1286J
1796.111	0.667	1773090	DISTRACT_END	n/a	n/a	n/a	n/a	-999	12	[0, 0, 0]	n/a	catFR1	2	R1286J
1796.778	0.517	1773757	RETRIEVAL_ORIENT	n/a	n/a	n/a	n/a	-999	12	[0, 0, 0]	n/a	catFR1	2	R1286J
1797.295	5.99	1774274	REC_START	n/a	n/a	n/a	n/a	-999	12	[0, 0, 0]	n/a	catFR1	2	R1286J
1803.285	1.717	1780264	REC_WORD	5.99	n/a	GOAT	n/a	-999	12	[0, 0, 0]	n/a	catFR1	2	R1286J
1805.002	1.935	1781981	REC_WORD	7.707	n/a	SHEEP	n/a	-999	12	[0, 0, 0]	n/a	catFR1	2	R1286J
1806.937	1.349	1783916	REC_WORD	9.642	n/a	GORILLA	n/a	-999	12	[0, 0, 0]	n/a	catFR1	2	R1286J
1808.286	1.0	1785265	REC_WORD	10.991	n/a	CHIMPANZEE	Zoo	12	12	[0, 0, 0]	n/a	catFR1	2	R1286J
1809.286	0.296	1786265	REC_WORD_VV	11.991	n/a	<>	n/a	-999	12	[0, 0, 0]	n/a	catFR1	2	R1286J
1809.582	17.725	1786561	REC_WORD	12.287	n/a	ZEBRA	Zoo	5	12	[0, 0, 0]	n/a	catFR1	2	R1286J
1827.307	2.06	1804285	REC_END	n/a	n/a	n/a	n/a	-999	12	[0, 0, 0]	n/a	catFR1	2	R1286J
1829.367	0.0	1806345	TRIAL	n/a	n/a	n/a	n/a	-999	13	[0, 0, 0]	n/a	catFR1	2	R1286J
1829.367	10.0	1806345	COUNTDOWN_START	n/a	n/a	n/a	n/a	-999	13	[0, 0, 0]	n/a	catFR1	2	R1286J
1839.795	0.006	1816773	COUNTDOWN_END	n/a	n/a	n/a	n/a	-999	13	[0, 0, 0]	n/a	catFR1	2	R1286J
1839.801	1.6	1816779	ORIENT	n/a	n/a	n/a	n/a	-999	13	[0, 0, 0]	n/a	catFR1	2	R1286J
1841.419	2.05	1818397	ORIENT_OFF	n/a	n/a	n/a	n/a	-999	13	[0, 0, 0]	n/a	catFR1	2	R1286J
1843.469	1.6	1820447	WORD	n/a	wordpools/wordpool_categorized_EN.txt	SHOES	Clothing	1	13	[0, 0, 0]	n/a	catFR1	2	R1286J
1845.086	0.816	1822064	WORD_OFF	n/a	n/a	SHOES	n/a	1	13	[0, 0, 0]	n/a	catFR1	2	R1286J
1845.902	1.6	1822880	WORD	n/a	wordpools/wordpool_categorized_EN.txt	SOCKS	Clothing	2	13	[0, 0, 0]	n/a	catFR1	2	R1286J
1847.52	0.85	1824497	WORD_OFF	n/a	n/a	SOCKS	n/a	2	13	[0, 0, 0]	n/a	catFR1	2	R1286J
1848.37	1.6	1825347	WORD	n/a	wordpools/wordpool_categorized_EN.txt	TOASTER	Appliances	3	13	[0, 0, 0]	n/a	catFR1	2	R1286J
1849.986	0.967	1826963	WORD_OFF	n/a	n/a	TOASTER	n/a	3	13	[0, 0, 0]	n/a	catFR1	2	R1286J
1850.953	1.6	1827930	WORD	n/a	wordpools/wordpool_categorized_EN.txt	STOVE	Appliances	4	13	[0, 0, 0]	n/a	catFR1	2	R1286J
1852.57	0.801	1829547	WORD_OFF	n/a	n/a	STOVE	n/a	4	13	[0, 0, 0]	n/a	catFR1	2	R1286J
1853.371	1.6	1830348	WORD	n/a	wordpools/wordpool_categorized_EN.txt	PEAR	Fruit	5	13	[0, 0, 0]	n/a	catFR1	2	R1286J
1854.987	0.784	1831964	WORD_OFF	n/a	n/a	PEAR	n/a	5	13	[0, 0, 0]	n/a	catFR1	2	R1286J
1855.771	1.6	1832748	WORD	n/a	wordpools/wordpool_categorized_EN.txt	STRAWBERRY	Fruit	6	13	[0, 0, 0]	n/a	catFR1	2	R1286J
1857.388	0.883	1834365	WORD_OFF	n/a	n/a	STRAWBERRY	n/a	6	13	[0, 0, 0]	n/a	catFR1	2	R1286J
1858.271	1.6	1835248	WORD	n/a	wordpools/wordpool_categorized_EN.txt	FREEZER	Appliances	7	13	[0, 0, 0]	n/a	catFR1	2	R1286J
1859.887	0.901	1836864	WORD_OFF	n/a	n/a	FREEZER	n/a	7	13	[0, 0, 0]	n/a	catFR1	2	R1286J
1860.788	1.6	1837765	WORD	n/a	wordpools/wordpool_categorized_EN.txt	OVEN	Appliances	8	13	[0, 0, 0]	n/a	catFR1	2	R1286J
1862.406	0.766	1839383	WORD_OFF	n/a	n/a	OVEN	n/a	8	13	[0, 0, 0]	n/a	catFR1	2	R1286J
1863.172	1.6	1840149	WORD	n/a	wordpools/wordpool_categorized_EN.txt	BLOUSE	Clothing	9	13	[0, 0, 0]	n/a	catFR1	2	R1286J
1864.788	0.801	1841765	WORD_OFF	n/a	n/a	BLOUSE	n/a	9	13	[0, 0, 0]	n/a	catFR1	2	R1286J
1865.589	1.6	1842566	WORD	n/a	wordpools/wordpool_categorized_EN.txt	COAT	Clothing	10	13	[0, 0, 0]	n/a	catFR1	2	R1286J
1867.206	1.017	1844183	WORD_OFF	n/a	n/a	COAT	n/a	10	13	[0, 0, 0]	n/a	catFR1	2	R1286J
1868.223	1.6	1845200	WORD	n/a	wordpools/wordpool_categorized_EN.txt	LIME	Fruit	11	13	[0, 0, 0]	n/a	catFR1	2	R1286J
1869.839	0.851	1846816	WORD_OFF	n/a	n/a	LIME	n/a	11	13	[0, 0, 0]	n/a	catFR1	2	R1286J
1870.69	1.6	1847667	WORD	n/a	wordpools/wordpool_categorized_EN.txt	ORANGE	Fruit	12	13	[0, 0, 0]	n/a	catFR1	2	R1286J
1872.307	0.0	1849284	ENCODING_END	n/a	n/a	n/a	n/a	-999	13	[0, 0, 0]	n/a	catFR1	2	R1286J
1872.307	0.103	1849284	WORD_OFF	n/a	n/a	ORANGE	n/a	12	13	[0, 0, 0]	n/a	catFR1	2	R1286J
1872.41	0.0	1849387	DISTRACT_START	n/a	n/a	n/a	n/a	-999	13	[0, 0, 0]	n/a	catFR1	2	R1286J
1872.41	0.014	1849387	START	n/a	n/a	n/a	n/a	-999	13	[-999, -999, -999]	n/a	catFR1	2	R1286J
1872.424	12.401	1849401	PROB	12.37	n/a	n/a	n/a	-999	13	[8, 4, 3]	15.0	catFR1	2	R1286J
1884.825	6.252	1861801	PROB	6.224	n/a	n/a	n/a	-999	13	[3, 9, 8]	20.0	catFR1	2	R1286J
1891.077	5.717	1868053	PROB	5.717	n/a	n/a	n/a	-999	13	[8, 9, 5]	17.0	catFR1	2	R1286J
1896.794	0.017	1873770	STOP	n/a	n/a	n/a	n/a	-999	13	[-999, -999, -999]	n/a	catFR1	2	R1286J
1896.811	0.55	1873787	DISTRACT_END	n/a	n/a	n/a	n/a	-999	13	[0, 0, 0]	n/a	catFR1	2	R1286J
1897.361	0.517	1874337	RETRIEVAL_ORIENT	n/a	n/a	n/a	n/a	-999	13	[0, 0, 0]	n/a	catFR1	2	R1286J
1897.878	21.266	1874854	REC_START	n/a	n/a	n/a	n/a	-999	13	[0, 0, 0]	n/a	catFR1	2	R1286J
1919.144	8.509	1896119	REC_WORD_VV	21.266	n/a	<>	n/a	-999	13	[0, 0, 0]	n/a	catFR1	2	R1286J
1927.653	0.236	1904628	REC_WORD	29.775	n/a	SHOES	Clothing	1	13	[0, 0, 0]	n/a	catFR1	2	R1286J
1927.889	2.478	1904864	REC_END	n/a	n/a	n/a	n/a	-999	13	[0, 0, 0]	n/a	catFR1	2	R1286J
1930.367	0.0	1907342	TRIAL	n/a	n/a	n/a	n/a	-999	14	[0, 0, 0]	n/a	catFR1	2	R1286J
1930.367	10.0	1907342	COUNTDOWN_START	n/a	n/a	n/a	n/a	-999	14	[0, 0, 0]	n/a	catFR1	2	R1286J
1940.795	0.006	1917769	COUNTDOWN_END	n/a	n/a	n/a	n/a	-999	14	[0, 0, 0]	n/a	catFR1	2	R1286J
1940.801	1.6	1917775	ORIENT	n/a	n/a	n/a	n/a	-999	14	[0, 0, 0]	n/a	catFR1	2	R1286J
1942.419	2.35	1919393	ORIENT_OFF	n/a	n/a	n/a	n/a	-999	14	[0, 0, 0]	n/a	catFR1	2	R1286J
1944.769	1.6	1921743	WORD	n/a	wordpools/wordpool_categorized_EN.txt	SCOOTER	Vehicles	1	14	[0, 0, 0]	n/a	catFR1	2	R1286J
1946.386	0.884	1923360	WORD_OFF	n/a	n/a	SCOOTER	n/a	1	14	[0, 0, 0]	n/a	catFR1	2	R1286J
1947.27	1.6	1924244	WORD	n/a	wordpools/wordpool_categorized_EN.txt	BIKE	Vehicles	2	14	[0, 0, 0]	n/a	catFR1	2	R1286J
1948.886	0.933	1925860	WORD_OFF	n/a	n/a	BIKE	n/a	2	14	[0, 0, 0]	n/a	catFR1	2	R1286J
1949.819	1.6	1926793	WORD	n/a	wordpools/wordpool_categorized_EN.txt	BEACH	Landscapes	3	14	[0, 0, 0]	n/a	catFR1	2	R1286J
1951.437	0.834	1928411	WORD_OFF	n/a	n/a	BEACH	n/a	3	14	[0, 0, 0]	n/a	catFR1	2	R1286J
1952.271	1.6	1929245	WORD	n/a	wordpools/wordpool_categorized_EN.txt	RIVER	Landscapes	4	14	[0, 0, 0]	n/a	catFR1	2	R1286J
1953.887	0.851	1930861	WORD_OFF	n/a	n/a	RIVER	n/a	4	14	[0, 0, 0]	n/a	catFR1	2	R1286J
1954.738	1.6	1931712	WORD	n/a	wordpools/wordpool_categorized_EN.txt	NIGHTSTAND	Furniture	5	14	[0, 0, 0]	n/a	catFR1	2	R1286J
1956.355	0.95	1933329	WORD_OFF	n/a	n/a	NIGHTSTAND	n/a	5	14	[0, 0, 0]	n/a	catFR1	2	R1286J
1957.305	1.6	1934279	WORD	n/a	wordpools/wordpool_categorized_EN.txt	COUCH	Furniture	6	14	[0, 0, 0]	n/a	catFR1	2	R1286J
1958.921	0.768	1935895	WORD_OFF	n/a	n/a	COUCH	n/a	6	14	[0, 0, 0]	n/a	catFR1	2	R1286J
1959.689	1.6	1936663	WORD	n/a	wordpools/wordpool_categorized_EN.txt	PLANE	Vehicles	7	14	[0, 0, 0]	n/a	catFR1	2	R1286J
1961.306	0.85	1938280	WORD_OFF	n/a	n/a	PLANE	n/a	7	14	[0, 0, 0]	n/a	catFR1	2	R1286J
1962.156	1.6	1939130	WORD	n/a	wordpools/wordpool_categorized_EN.txt	BOAT	Vehicles	8	14	[0, 0, 0]	n/a	catFR1	2	R1286J
1963.773	0.917	1940746	WORD_OFF	n/a	n/a	BOAT	n/a	8	14	[0, 0, 0]	n/a	catFR1	2	R1286J
1964.69	1.6	1941663	WORD	n/a	wordpools/wordpool_categorized_EN.txt	VALLEY	Landscapes	9	14	[0, 0, 0]	n/a	catFR1	2	R1286J
1966.306	0.784	1943279	WORD_OFF	n/a	n/a	VALLEY	n/a	9	14	[0, 0, 0]	n/a	catFR1	2	R1286J
1967.09	1.6	1944063	WORD	n/a	wordpools/wordpool_categorized_EN.txt	STREAM	Landscapes	10	14	[0, 0, 0]	n/a	catFR1	2	R1286J
1968.707	0.8	1945680	WORD_OFF	n/a	n/a	STREAM	n/a	10	14	[0, 0, 0]	n/a	catFR1	2	R1286J
1969.507	1.6	1946480	WORD	n/a	wordpools/wordpool_categorized_EN.txt	CHAIR	Furniture	11	14	[0, 0, 0]	n/a	catFR1	2	R1286J
1971.124	0.916	1948097	WORD_OFF	n/a	n/a	CHAIR	n/a	11	14	[0, 0, 0]	n/a	catFR1	2	R1286J
1972.04	1.6	1949013	WORD	n/a	wordpools/wordpool_categorized_EN.txt	CABINET	Furniture	12	14	[0, 0, 0]	n/a	catFR1	2	R1286J
1973.658	0.0	1950631	ENCODING_END	n/a	n/a	n/a	n/a	-999	14	[0, 0, 0]	n/a	catFR1	2	R1286J
1973.658	0.075	1950631	WORD_OFF	n/a	n/a	CABINET	n/a	12	14	[0, 0, 0]	n/a	catFR1	2	R1286J
1973.733	0.0	1950706	DISTRACT_START	n/a	n/a	n/a	n/a	-999	14	[0, 0, 0]	n/a	catFR1	2	R1286J
1973.733	0.008	1950706	START	n/a	n/a	n/a	n/a	-999	14	[-999, -999, -999]	n/a	catFR1	2	R1286J
1973.741	7.418	1950714	PROB	7.385	n/a	n/a	n/a	-999	14	[9, 7, 7]	23.0	catFR1	2	R1286J
1981.159	4.384	1958132	PROB	4.358	n/a	n/a	n/a	-999	14	[8, 2, 2]	12.0	catFR1	2	R1286J
1985.543	20.871	1962516	PROB	20.871	n/a	n/a	n/a	-999	14	[2, 5, 6]	13.0	catFR1	2	R1286J
2006.414	0.016	1983386	STOP	n/a	n/a	n/a	n/a	-999	14	[-999, -999, -999]	n/a	catFR1	2	R1286J
2006.43	0.532	1983402	DISTRACT_END	n/a	n/a	n/a	n/a	-999	14	[0, 0, 0]	n/a	catFR1	2	R1286J
2006.962	0.519	1983934	RETRIEVAL_ORIENT	n/a	n/a	n/a	n/a	-999	14	[0, 0, 0]	n/a	catFR1	2	R1286J
2007.481	3.18	1984453	REC_START	n/a	n/a	n/a	n/a	-999	14	[0, 0, 0]	n/a	catFR1	2	R1286J
2010.661	0.572	1987633	REC_WORD	3.18	n/a	GOAT	n/a	-999	14	[0, 0, 0]	n/a	catFR1	2	R1286J
2011.233	1.0	1988205	REC_WORD_VV	3.752	n/a	<>	n/a	-999	14	[0, 0, 0]	n/a	catFR1	2	R1286J
2012.233	1.956	1989205	REC_WORD_VV	4.752	n/a	<>	n/a	-999	14	[0, 0, 0]	n/a	catFR1	2	R1286J
2014.189	2.395	1991161	REC_WORD_VV	6.708	n/a	<>	n/a	-999	14	[0, 0, 0]	n/a	catFR1	2	R1286J
2016.584	4.269	1993556	REC_WORD_VV	9.103	n/a	<>	n/a	-999	14	[0, 0, 0]	n/a	catFR1	2	R1286J
2020.853	16.638	1997825	REC_WORD_VV	13.372	n/a	<>	n/a	-999	14	[0, 0, 0]	n/a	catFR1	2	R1286J
2037.491	7.279	2014462	REC_END	n/a	n/a	n/a	n/a	-999	14	[0, 0, 0]	n/a	catFR1	2	R1286J
2044.77	0.0	2021741	TRIAL	n/a	n/a	n/a	n/a	-999	15	[0, 0, 0]	n/a	catFR1	2	R1286J
2044.77	10.0	2021741	COUNTDOWN_START	n/a	n/a	n/a	n/a	-999	15	[0, 0, 0]	n/a	catFR1	2	R1286J
2055.198	0.007	2032168	COUNTDOWN_END	n/a	n/a	n/a	n/a	-999	15	[0, 0, 0]	n/a	catFR1	2	R1286J
2055.205	1.6	2032175	ORIENT	n/a	n/a	n/a	n/a	-999	15	[0, 0, 0]	n/a	catFR1	2	R1286J
2056.821	2.301	2033791	ORIENT_OFF	n/a	n/a	n/a	n/a	-999	15	[0, 0, 0]	n/a	catFR1	2	R1286J
2059.122	1.6	2036092	WORD	n/a	wordpools/wordpool_categorized_EN.txt	DRYER	Appliances	1	15	[0, 0, 0]	n/a	catFR1	2	R1286J
2060.739	0.95	2037709	WORD_OFF	n/a	n/a	DRYER	n/a	1	15	[0, 0, 0]	n/a	catFR1	2	R1286J
2061.689	1.6	2038659	WORD	n/a	wordpools/wordpool_categorized_EN.txt	REFRIGERATOR	Appliances	2	15	[0, 0, 0]	n/a	catFR1	2	R1286J
2063.306	0.834	2040276	WORD_OFF	n/a	n/a	REFRIGERATOR	n/a	2	15	[0, 0, 0]	n/a	catFR1	2	R1286J
2064.14	1.6	2041110	WORD	n/a	wordpools/wordpool_categorized_EN.txt	BEETLE	Insects	3	15	[0, 0, 0]	n/a	catFR1	2	R1286J
2065.756	0.834	2042726	WORD_OFF	n/a	n/a	BEETLE	n/a	3	15	[0, 0, 0]	n/a	catFR1	2	R1286J
2066.59	1.6	2043560	WORD	n/a	wordpools/wordpool_categorized_EN.txt	GNAT	Insects	4	15	[0, 0, 0]	n/a	catFR1	2	R1286J
2068.207	0.917	2045177	WORD_OFF	n/a	n/a	GNAT	n/a	4	15	[0, 0, 0]	n/a	catFR1	2	R1286J
2069.124	1.6	2046094	WORD	n/a	wordpools/wordpool_categorized_EN.txt	LION	Zoo	5	15	[0, 0, 0]	n/a	catFR1	2	R1286J
2070.741	0.817	2047711	WORD_OFF	n/a	n/a	LION	n/a	5	15	[0, 0, 0]	n/a	catFR1	2	R1286J
2071.558	1.6	2048528	WORD	n/a	wordpools/wordpool_categorized_EN.txt	GIRAFFE	Zoo	6	15	[0, 0, 0]	n/a	catFR1	2	R1286J
2073.174	0.951	2050144	WORD_OFF	n/a	n/a	GIRAFFE	n/a	6	15	[0, 0, 0]	n/a	catFR1	2	R1286J
2074.125	1.6	2051095	WORD	n/a	wordpools/wordpool_categorized_EN.txt	BLENDER	Appliances	7	15	[0, 0, 0]	n/a	catFR1	2	R1286J
2075.742	0.883	2052712	WORD_OFF	n/a	n/a	BLENDER	n/a	7	15	[0, 0, 0]	n/a	catFR1	2	R1286J
2076.625	1.6	2053595	WORD	n/a	wordpools/wordpool_categorized_EN.txt	DISHWASHER	Appliances	8	15	[0, 0, 0]	n/a	catFR1	2	R1286J
2078.242	0.95	2055212	WORD_OFF	n/a	n/a	DISHWASHER	n/a	8	15	[0, 0, 0]	n/a	catFR1	2	R1286J
2079.192	1.6	2056162	WORD	n/a	wordpools/wordpool_categorized_EN.txt	CRICKET	Insects	9	15	[0, 0, 0]	n/a	catFR1	2	R1286J
2080.808	1.0	2057778	WORD_OFF	n/a	n/a	CRICKET	n/a	9	15	[0, 0, 0]	n/a	catFR1	2	R1286J
2081.808	1.6	2058777	WORD	n/a	wordpools/wordpool_categorized_EN.txt	LADYBUG	Insects	10	15	[0, 0, 0]	n/a	catFR1	2	R1286J
2083.426	0.867	2060395	WORD_OFF	n/a	n/a	LADYBUG	n/a	10	15	[0, 0, 0]	n/a	catFR1	2	R1286J
2084.293	1.6	2061262	WORD	n/a	wordpools/wordpool_categorized_EN.txt	MONKEY	Zoo	11	15	[0, 0, 0]	n/a	catFR1	2	R1286J
2085.909	0.851	2062878	WORD_OFF	n/a	n/a	MONKEY	n/a	11	15	[0, 0, 0]	n/a	catFR1	2	R1286J
2086.76	1.6	2063729	WORD	n/a	wordpools/wordpool_categorized_EN.txt	CHEETAH	Zoo	12	15	[0, 0, 0]	n/a	catFR1	2	R1286J
2088.377	0.0	2065346	ENCODING_END	n/a	n/a	n/a	n/a	-999	15	[0, 0, 0]	n/a	catFR1	2	R1286J
2088.377	0.078	2065346	WORD_OFF	n/a	n/a	CHEETAH	n/a	12	15	[0, 0, 0]	n/a	catFR1	2	R1286J
2088.455	0.0	2065424	DISTRACT_START	n/a	n/a	n/a	n/a	-999	15	[0, 0, 0]	n/a	catFR1	2	R1286J
2088.455	0.022	2065424	START	n/a	n/a	n/a	n/a	-999	15	[-999, -999, -999]	n/a	catFR1	2	R1286J
2088.477	11.669	2065446	PROB	11.632	n/a	n/a	n/a	-999	15	[3, 5, 9]	17.0	catFR1	2	R1286J
2100.146	5.551	2077115	PROB	5.515	n/a	n/a	n/a	-999	15	[6, 4, 4]	14.0	catFR1	2	R1286J
2105.697	3.949	2082666	PROB	3.949	n/a	n/a	n/a	-999	15	[6, 5, 3]	14.0	catFR1	2	R1286J
2109.646	0.018	2086615	STOP	n/a	n/a	n/a	n/a	-999	15	[-999, -999, -999]	n/a	catFR1	2	R1286J
2109.664	0.517	2086633	DISTRACT_END	n/a	n/a	n/a	n/a	-999	15	[0, 0, 0]	n/a	catFR1	2	R1286J
2110.181	0.517	2087150	RETRIEVAL_ORIENT	n/a	n/a	n/a	n/a	-999	15	[0, 0, 0]	n/a	catFR1	2	R1286J
2110.698	1.81	2087666	REC_START	n/a	n/a	n/a	n/a	-999	15	[0, 0, 0]	n/a	catFR1	2	R1286J
2112.508	1.247	2089476	REC_WORD	1.81	n/a	LION	Zoo	5	15	[0, 0, 0]	n/a	catFR1	2	R1286J
2113.755	1.527	2090723	REC_WORD	3.057	n/a	GNAT	Insects	4	15	[0, 0, 0]	n/a	catFR1	2	R1286J
2115.282	1.791	2092250	REC_WORD	4.584	n/a	CHEETAH	Zoo	12	15	[0, 0, 0]	n/a	catFR1	2	R1286J
2117.073	1.924	2094041	REC_WORD	6.375	n/a	DRYER	Appliances	1	15	[0, 0, 0]	n/a	catFR1	2	R1286J
2118.997	1.0	2095965	REC_WORD	8.299	n/a	REFRIGERATOR	Appliances	2	15	[0, 0, 0]	n/a	catFR1	2	R1286J
2119.997	5.591	2096965	REC_WORD_VV	9.299	n/a	<>	n/a	-999	15	[0, 0, 0]	n/a	catFR1	2	R1286J
2125.588	11.208	2102556	REC_WORD	14.89	n/a	CHEETAH	Zoo	12	15	[0, 0, 0]	n/a	catFR1	2	R1286J
2136.796	3.914	2113764	REC_WORD	26.098	n/a	TABLE	n/a	-999	15	[0, 0, 0]	n/a	catFR1	2	R1286J
2140.71	3.043	2117677	REC_END	n/a	n/a	n/a	n/a	-999	15	[0, 0, 0]	n/a	catFR1	2	R1286J
2143.753	0.0	2120720	TRIAL	n/a	n/a	n/a	n/a	-999	16	[0, 0, 0]	n/a	catFR1	2	R1286J
2143.753	10.0	2120720	COUNTDOWN_START	n/a	n/a	n/a	n/a	-999	16	[0, 0, 0]	n/a	catFR1	2	R1286J
2154.181	0.007	2131148	COUNTDOWN_END	n/a	n/a	n/a	n/a	-999	16	[0, 0, 0]	n/a	catFR1	2	R1286J
2154.188	1.6	2131155	ORIENT	n/a	n/a	n/a	n/a	-999	16	[0, 0, 0]	n/a	catFR1	2	R1286J
2155.804	2.017	2132771	ORIENT_OFF	n/a	n/a	n/a	n/a	-999	16	[0, 0, 0]	n/a	catFR1	2	R1286J
2157.821	1.6	2134788	WORD	n/a	wordpools/wordpool_categorized_EN.txt	BROWNIES	Desserts	1	16	[0, 0, 0]	n/a	catFR1	2	R1286J
2159.422	0.851	2136389	WORD_OFF	n/a	n/a	BROWNIES	n/a	1	16	[0, 0, 0]	n/a	catFR1	2	R1286J
2160.273	1.6	2137240	WORD	n/a	wordpools/wordpool_categorized_EN.txt	PASTRY	Desserts	2	16	[0, 0, 0]	n/a	catFR1	2	R1286J
2161.889	1.016	2138856	WORD_OFF	n/a	n/a	PASTRY	n/a	2	16	[0, 0, 0]	n/a	catFR1	2	R1286J
2162.905	1.6	2139872	WORD	n/a	wordpools/wordpool_categorized_EN.txt	LAKE	Landscapes	3	16	[0, 0, 0]	n/a	catFR1	2	R1286J
2164.506	0.951	2141473	WORD_OFF	n/a	n/a	LAKE	n/a	3	16	[0, 0, 0]	n/a	catFR1	2	R1286J
2165.457	1.6	2142424	WORD	n/a	wordpools/wordpool_categorized_EN.txt	HILLS	Landscapes	4	16	[0, 0, 0]	n/a	catFR1	2	R1286J
2167.074	0.816	2144041	WORD_OFF	n/a	n/a	HILLS	n/a	4	16	[0, 0, 0]	n/a	catFR1	2	R1286J
2167.89	1.6	2144857	WORD	n/a	wordpools/wordpool_categorized_EN.txt	CARROT	Vegetables	5	16	[0, 0, 0]	n/a	catFR1	2	R1286J
2169.508	0.95	2146474	WORD_OFF	n/a	n/a	CARROT	n/a	5	16	[0, 0, 0]	n/a	catFR1	2	R1286J
2170.458	1.6	2147424	WORD	n/a	wordpools/wordpool_categorized_EN.txt	ONION	Vegetables	6	16	[0, 0, 0]	n/a	catFR1	2	R1286J
2172.075	0.865	2149041	WORD_OFF	n/a	n/a	ONION	n/a	6	16	[0, 0, 0]	n/a	catFR1	2	R1286J
2172.94	1.6	2149906	WORD	n/a	wordpools/wordpool_categorized_EN.txt	CUPCAKE	Desserts	7	16	[0, 0, 0]	n/a	catFR1	2	R1286J
2174.558	0.817	2151524	WORD_OFF	n/a	n/a	CUPCAKE	n/a	7	16	[0, 0, 0]	n/a	catFR1	2	R1286J
2175.375	1.6	2152341	WORD	n/a	wordpools/wordpool_categorized_EN.txt	FUDGE	Desserts	8	16	[0, 0, 0]	n/a	catFR1	2	R1286J
2176.991	0.85	2153957	WORD_OFF	n/a	n/a	FUDGE	n/a	8	16	[0, 0, 0]	n/a	catFR1	2	R1286J
2177.841	1.6	2154807	WORD	n/a	wordpools/wordpool_categorized_EN.txt	OCEAN	Landscapes	9	16	[0, 0, 0]	n/a	catFR1	2	R1286J
2179.459	1.0	2156425	WORD_OFF	n/a	n/a	OCEAN	n/a	9	16	[0, 0, 0]	n/a	catFR1	2	R1286J
2180.459	1.6	2157425	WORD	n/a	wordpools/wordpool_categorized_EN.txt	MOUNTAIN	Landscapes	10	16	[0, 0, 0]	n/a	catFR1	2	R1286J
2182.076	0.899	2159042	WORD_OFF	n/a	n/a	MOUNTAIN	n/a	10	16	[0, 0, 0]	n/a	catFR1	2	R1286J
2182.975	1.6	2159941	WORD	n/a	wordpools/wordpool_categorized_EN.txt	SPINACH	Vegetables	11	16	[0, 0, 0]	n/a	catFR1	2	R1286J
2184.593	0.817	2161559	WORD_OFF	n/a	n/a	SPINACH	n/a	11	16	[0, 0, 0]	n/a	catFR1	2	R1286J
2185.41	1.6	2162376	WORD	n/a	wordpools/wordpool_categorized_EN.txt	POTATO	Vegetables	12	16	[0, 0, 0]	n/a	catFR1	2	R1286J
2187.026	0.0	2163992	WORD_OFF	n/a	n/a	POTATO	n/a	12	16	[0, 0, 0]	n/a	catFR1	2	R1286J
2187.026	0.103	2163992	ENCODING_END	n/a	n/a	n/a	n/a	-999	16	[0, 0, 0]	n/a	catFR1	2	R1286J
2187.129	0.0	2164095	DISTRACT_START	n/a	n/a	n/a	n/a	-999	16	[0, 0, 0]	n/a	catFR1	2	R1286J
2187.129	0.015	2164095	START	n/a	n/a	n/a	n/a	-999	16	[-999, -999, -999]	n/a	catFR1	2	R1286J
2187.144	8.635	2164110	PROB	8.599	n/a	n/a	n/a	-999	16	[2, 3, 8]	13.0	catFR1	2	R1286J
2195.779	4.033	2172745	PROB	3.996	n/a	n/a	n/a	-999	16	[5, 3, 5]	13.0	catFR1	2	R1286J
2199.812	7.067	2176777	PROB	7.042	n/a	n/a	n/a	-999	16	[8, 7, 2]	17.0	catFR1	2	R1286J
2206.879	6.36	2183844	PROB	6.36	n/a	n/a	n/a	-999	16	[6, 5, 8]	19.0	catFR1	2	R1286J
2213.239	0.009	2190204	STOP	n/a	n/a	n/a	n/a	-999	16	[-999, -999, -999]	n/a	catFR1	2	R1286J
2213.248	0.583	2190213	DISTRACT_END	n/a	n/a	n/a	n/a	-999	16	[0, 0, 0]	n/a	catFR1	2	R1286J
2213.831	0.518	2190796	RETRIEVAL_ORIENT	n/a	n/a	n/a	n/a	-999	16	[0, 0, 0]	n/a	catFR1	2	R1286J
2214.349	3.143	2191314	REC_START	n/a	n/a	n/a	n/a	-999	16	[0, 0, 0]	n/a	catFR1	2	R1286J
2217.492	1.634	2194457	REC_WORD	3.143	n/a	MOUNTAIN	Landscapes	10	16	[0, 0, 0]	n/a	catFR1	2	R1286J
2219.126	3.213	2196091	REC_WORD	4.777	n/a	STREAM	n/a	-999	16	[0, 0, 0]	n/a	catFR1	2	R1286J
2222.339	1.778	2199304	REC_WORD	7.99	n/a	CUPCAKE	Desserts	7	16	[0, 0, 0]	n/a	catFR1	2	R1286J
2224.117	8.507	2201082	REC_WORD	9.768	n/a	VALLEY	n/a	-999	16	[0, 0, 0]	n/a	catFR1	2	R1286J
2232.624	5.029	2209588	REC_WORD	18.275	n/a	PASTRY	Desserts	2	16	[0, 0, 0]	n/a	catFR1	2	R1286J
2237.653	4.958	2214617	REC_WORD_VV	23.304	n/a	<>	n/a	-999	16	[0, 0, 0]	n/a	catFR1	2	R1286J
2242.611	1.0	2219575	REC_WORD	28.262	n/a	STREAM	n/a	-999	16	[0, 0, 0]	n/a	catFR1	2	R1286J
2243.611	0.476	2220575	REC_WORD	29.262	n/a	VALLEY	n/a	-999	16	[0, 0, 0]	n/a	catFR1	2	R1286J
2244.087	0.273	2221051	REC_WORD	29.738	n/a	STREAM	n/a	-999	16	[0, 0, 0]	n/a	catFR1	2	R1286J
2244.36	3.377	2221324	REC_END	n/a	n/a	n/a	n/a	-999	16	[0, 0, 0]	n/a	catFR1	2	R1286J
2247.737	10.0	2224701	COUNTDOWN_START	n/a	n/a	n/a	n/a	-999	17	[0, 0, 0]	n/a	catFR1	2	R1286J
2247.737	10.428	2224701	TRIAL	n/a	n/a	n/a	n/a	-999	17	[0, 0, 0]	n/a	catFR1	2	R1286J
2258.165	0.008	2235128	COUNTDOWN_END	n/a	n/a	n/a	n/a	-999	17	[0, 0, 0]	n/a	catFR1	2	R1286J
2258.173	1.6	2235136	ORIENT	n/a	n/a	n/a	n/a	-999	17	[0, 0, 0]	n/a	catFR1	2	R1286J
2259.788	1.902	2236751	ORIENT_OFF	n/a	n/a	n/a	n/a	-999	17	[0, 0, 0]	n/a	catFR1	2	R1286J
2261.69	1.6	2238653	WORD	n/a	wordpools/wordpool_categorized_EN.txt	IRON	Appliances	1	17	[0, 0, 0]	n/a	catFR1	2	R1286J
2263.307	0.783	2240270	WORD_OFF	n/a	n/a	IRON	n/a	1	17	[0, 0, 0]	n/a	catFR1	2	R1286J
2264.09	1.6	2241053	WORD	n/a	wordpools/wordpool_categorized_EN.txt	MIXER	Appliances	2	17	[0, 0, 0]	n/a	catFR1	2	R1286J
2265.707	0.984	2242670	WORD_OFF	n/a	n/a	MIXER	n/a	2	17	[0, 0, 0]	n/a	catFR1	2	R1286J
2266.691	1.6	2243654	WORD	n/a	wordpools/wordpool_categorized_EN.txt	SOFA	Furniture	3	17	[0, 0, 0]	n/a	catFR1	2	R1286J
2268.308	0.966	2245271	WORD_OFF	n/a	n/a	SOFA	n/a	3	17	[0, 0, 0]	n/a	catFR1	2	R1286J
2269.274	1.6	2246237	WORD	n/a	wordpools/wordpool_categorized_EN.txt	BOOKCASE	Furniture	4	17	[0, 0, 0]	n/a	catFR1	2	R1286J
2270.89	0.818	2247853	WORD_OFF	n/a	n/a	BOOKCASE	n/a	4	17	[0, 0, 0]	n/a	catFR1	2	R1286J
2271.708	1.6	2248671	WORD	n/a	wordpools/wordpool_categorized_EN.txt	EVERGREEN	Trees	5	17	[0, 0, 0]	n/a	catFR1	2	R1286J
2273.325	0.9	2250288	WORD_OFF	n/a	n/a	EVERGREEN	n/a	5	17	[0, 0, 0]	n/a	catFR1	2	R1286J
2274.225	1.6	2251188	WORD	n/a	wordpools/wordpool_categorized_EN.txt	CEDAR	Trees	6	17	[0, 0, 0]	n/a	catFR1	2	R1286J
2275.841	0.868	2252804	WORD_OFF	n/a	n/a	CEDAR	n/a	6	17	[0, 0, 0]	n/a	catFR1	2	R1286J
2276.709	1.6	2253672	WORD	n/a	wordpools/wordpool_categorized_EN.txt	SHELF	Furniture	7	17	[0, 0, 0]	n/a	catFR1	2	R1286J
2278.326	0.883	2255289	WORD_OFF	n/a	n/a	SHELF	n/a	7	17	[0, 0, 0]	n/a	catFR1	2	R1286J
2279.209	1.6	2256172	WORD	n/a	wordpools/wordpool_categorized_EN.txt	DESK	Furniture	8	17	[0, 0, 0]	n/a	catFR1	2	R1286J
2280.825	1.017	2257788	WORD_OFF	n/a	n/a	DESK	n/a	8	17	[0, 0, 0]	n/a	catFR1	2	R1286J
2281.842	1.6	2258805	WORD	n/a	wordpools/wordpool_categorized_EN.txt	WASHER	Appliances	9	17	[0, 0, 0]	n/a	catFR1	2	R1286J
2283.46	0.884	2260423	WORD_OFF	n/a	n/a	WASHER	n/a	9	17	[0, 0, 0]	n/a	catFR1	2	R1286J
2284.344	1.6	2261307	WORD	n/a	wordpools/wordpool_categorized_EN.txt	VACUUM	Appliances	10	17	[0, 0, 0]	n/a	catFR1	2	R1286J
2285.959	0.802	2262922	WORD_OFF	n/a	n/a	VACUUM	n/a	10	17	[0, 0, 0]	n/a	catFR1	2	R1286J
2286.761	1.6	2263724	WORD	n/a	wordpools/wordpool_categorized_EN.txt	WALNUT	Trees	11	17	[0, 0, 0]	n/a	catFR1	2	R1286J
2288.378	0.766	2265340	WORD_OFF	n/a	n/a	WALNUT	n/a	11	17	[0, 0, 0]	n/a	catFR1	2	R1286J
2289.144	1.6	2266106	WORD	n/a	wordpools/wordpool_categorized_EN.txt	SPRUCE	Trees	12	17	[0, 0, 0]	n/a	catFR1	2	R1286J
2290.761	0.0	2267723	ENCODING_END	n/a	n/a	n/a	n/a	-999	17	[0, 0, 0]	n/a	catFR1	2	R1286J
2290.761	0.077	2267723	WORD_OFF	n/a	n/a	SPRUCE	n/a	12	17	[0, 0, 0]	n/a	catFR1	2	R1286J
2290.838	0.0	2267800	DISTRACT_START	n/a	n/a	n/a	n/a	-999	17	[0, 0, 0]	n/a	catFR1	2	R1286J
2290.838	0.022	2267800	START	n/a	n/a	n/a	n/a	-999	17	[-999, -999, -999]	n/a	catFR1	2	R1286J
2290.86	10.487	2267822	PROB	10.457	n/a	n/a	n/a	-999	17	[9, 5, 8]	22.0	catFR1	2	R1286J
2301.347	3.3	2278309	PROB	3.274	n/a	n/a	n/a	-999	17	[2, 1, 9]	12.0	catFR1	2	R1286J
2304.647	6.79	2281609	PROB	6.79	n/a	n/a	n/a	-999	17	[1, 3, 1]	5.0	catFR1	2	R1286J
2311.437	0.011	2288399	STOP	n/a	n/a	n/a	n/a	-999	17	[-999, -999, -999]	n/a	catFR1	2	R1286J
2311.448	0.667	2288410	DISTRACT_END	n/a	n/a	n/a	n/a	-999	17	[0, 0, 0]	n/a	catFR1	2	R1286J
2312.115	0.517	2289077	RETRIEVAL_ORIENT	n/a	n/a	n/a	n/a	-999	17	[0, 0, 0]	n/a	catFR1	2	R1286J
2312.632	5.096	2289594	REC_START	n/a	n/a	n/a	n/a	-999	17	[0, 0, 0]	n/a	catFR1	2	R1286J
2317.728	3.938	2294689	REC_WORD	5.096	n/a	IRON	Appliances	1	17	[0, 0, 0]	n/a	catFR1	2	R1286J
2321.666	2.367	2298627	REC_WORD	9.034	n/a	COUCH	n/a	-999	17	[0, 0, 0]	n/a	catFR1	2	R1286J
2324.033	4.13	2300994	REC_WORD	11.401	n/a	TABLE	n/a	-999	17	[0, 0, 0]	n/a	catFR1	2	R1286J
2328.163	8.856	2305124	REC_WORD	15.531	n/a	BOOKCASE	Furniture	4	17	[0, 0, 0]	n/a	catFR1	2	R1286J
2337.019	5.624	2313980	REC_WORD	24.387	n/a	SPRUCE	Trees	12	17	[0, 0, 0]	n/a	catFR1	2	R1286J
2342.643	3.644	2319604	REC_END	n/a	n/a	n/a	n/a	-999	17	[0, 0, 0]	n/a	catFR1	2	R1286J
2346.287	0.0	2323247	TRIAL	n/a	n/a	n/a	n/a	-999	18	[0, 0, 0]	n/a	catFR1	2	R1286J
2346.287	10.0	2323247	COUNTDOWN_START	n/a	n/a	n/a	n/a	-999	18	[0, 0, 0]	n/a	catFR1	2	R1286J
2356.715	0.007	2333675	COUNTDOWN_END	n/a	n/a	n/a	n/a	-999	18	[0, 0, 0]	n/a	catFR1	2	R1286J
2356.722	1.6	2333682	ORIENT	n/a	n/a	n/a	n/a	-999	18	[0, 0, 0]	n/a	catFR1	2	R1286J
2358.339	2.001	2335299	ORIENT_OFF	n/a	n/a	n/a	n/a	-999	18	[0, 0, 0]	n/a	catFR1	2	R1286J
2360.34	1.6	2337300	WORD	n/a	wordpools/wordpool_categorized_EN.txt	EYE	BodyParts	1	18	[0, 0, 0]	n/a	catFR1	2	R1286J
2361.956	0.916	2338916	WORD_OFF	n/a	n/a	EYE	n/a	1	18	[0, 0, 0]	n/a	catFR1	2	R1286J
2362.872	1.6	2339832	WORD	n/a	wordpools/wordpool_categorized_EN.txt	EAR	BodyParts	2	18	[0, 0, 0]	n/a	catFR1	2	R1286J
2364.474	0.867	2341434	WORD_OFF	n/a	n/a	EAR	n/a	2	18	[0, 0, 0]	n/a	catFR1	2	R1286J
2365.341	1.6	2342301	WORD	n/a	wordpools/wordpool_categorized_EN.txt	CHERRY	Fruit	3	18	[0, 0, 0]	n/a	catFR1	2	R1286J
2366.957	0.833	2343917	WORD_OFF	n/a	n/a	CHERRY	n/a	3	18	[0, 0, 0]	n/a	catFR1	2	R1286J
2367.79	1.6	2344750	WORD	n/a	wordpools/wordpool_categorized_EN.txt	PEACH	Fruit	4	18	[0, 0, 0]	n/a	catFR1	2	R1286J
2369.408	0.984	2346368	WORD_OFF	n/a	n/a	PEACH	n/a	4	18	[0, 0, 0]	n/a	catFR1	2	R1286J
2370.392	1.6	2347352	WORD	n/a	wordpools/wordpool_categorized_EN.txt	SEAGULL	Birds	5	18	[0, 0, 0]	n/a	catFR1	2	R1286J
2372.007	0.851	2348967	WORD_OFF	n/a	n/a	SEAGULL	n/a	5	18	[0, 0, 0]	n/a	catFR1	2	R1286J
2372.858	1.6	2349818	WORD	n/a	wordpools/wordpool_categorized_EN.txt	ROBIN	Birds	6	18	[0, 0, 0]	n/a	catFR1	2	R1286J
2374.475	0.801	2351435	WORD_OFF	n/a	n/a	ROBIN	n/a	6	18	[0, 0, 0]	n/a	catFR1	2	R1286J
2375.276	1.6	2352235	WORD	n/a	wordpools/wordpool_categorized_EN.txt	PLUM	Fruit	7	18	[0, 0, 0]	n/a	catFR1	2	R1286J
2376.892	0.916	2353851	WORD_OFF	n/a	n/a	PLUM	n/a	7	18	[0, 0, 0]	n/a	catFR1	2	R1286J
2377.808	1.6	2354767	WORD	n/a	wordpools/wordpool_categorized_EN.txt	BANANA	Fruit	8	18	[0, 0, 0]	n/a	catFR1	2	R1286J
2379.426	0.784	2356385	WORD_OFF	n/a	n/a	BANANA	n/a	8	18	[0, 0, 0]	n/a	catFR1	2	R1286J
2380.21	1.6	2357169	WORD	n/a	wordpools/wordpool_categorized_EN.txt	ARM	BodyParts	9	18	[0, 0, 0]	n/a	catFR1	2	R1286J
2381.826	1.017	2358785	WORD_OFF	n/a	n/a	ARM	n/a	9	18	[0, 0, 0]	n/a	catFR1	2	R1286J
2382.843	1.6	2359802	WORD	n/a	wordpools/wordpool_categorized_EN.txt	TOE	BodyParts	10	18	[0, 0, 0]	n/a	catFR1	2	R1286J
2384.46	0.934	2361419	WORD_OFF	n/a	n/a	TOE	n/a	10	18	[0, 0, 0]	n/a	catFR1	2	R1286J
2385.394	1.6	2362353	WORD	n/a	wordpools/wordpool_categorized_EN.txt	PIGEON	Birds	11	18	[0, 0, 0]	n/a	catFR1	2	R1286J
2387.01	0.917	2363969	WORD_OFF	n/a	n/a	PIGEON	n/a	11	18	[0, 0, 0]	n/a	catFR1	2	R1286J
2387.927	1.6	2364886	WORD	n/a	wordpools/wordpool_categorized_EN.txt	CARDINAL	Birds	12	18	[0, 0, 0]	n/a	catFR1	2	R1286J
2389.545	0.0	2366504	WORD_OFF	n/a	n/a	CARDINAL	n/a	12	18	[0, 0, 0]	n/a	catFR1	2	R1286J
2389.545	0.078	2366504	ENCODING_END	n/a	n/a	n/a	n/a	-999	18	[0, 0, 0]	n/a	catFR1	2	R1286J
2389.623	0.0	2366582	DISTRACT_START	n/a	n/a	n/a	n/a	-999	18	[0, 0, 0]	n/a	catFR1	2	R1286J
2389.623	0.022	2366582	START	n/a	n/a	n/a	n/a	-999	18	[-999, -999, -999]	n/a	catFR1	2	R1286J
2389.645	9.651	2366604	PROB	9.616	n/a	n/a	n/a	-999	18	[1, 6, 9]	16.0	catFR1	2	R1286J
2399.296	7.667	2376255	PROB	7.628	n/a	n/a	n/a	-999	18	[6, 1, 8]	15.0	catFR1	2	R1286J
2406.963	6.426	2383921	PROB	6.426	n/a	n/a	n/a	-999	18	[2, 1, 7]	10.0	catFR1	2	R1286J
2413.389	0.01	2390347	STOP	n/a	n/a	n/a	n/a	-999	18	[-999, -999, -999]	n/a	catFR1	2	R1286J
2413.399	0.532	2390357	DISTRACT_END	n/a	n/a	n/a	n/a	-999	18	[0, 0, 0]	n/a	catFR1	2	R1286J
2413.931	0.519	2390889	RETRIEVAL_ORIENT	n/a	n/a	n/a	n/a	-999	18	[0, 0, 0]	n/a	catFR1	2	R1286J
2414.45	2.962	2391408	REC_START	n/a	n/a	n/a	n/a	-999	18	[0, 0, 0]	n/a	catFR1	2	R1286J
2417.412	2.939	2394370	REC_WORD	2.962	n/a	PEACH	Fruit	4	18	[0, 0, 0]	n/a	catFR1	2	R1286J
2420.351	2.109	2397309	REC_WORD	5.901	n/a	PLUM	Fruit	7	18	[0, 0, 0]	n/a	catFR1	2	R1286J
2422.46	1.0	2399418	REC_WORD	8.01	n/a	STRAWBERRY	n/a	-999	18	[0, 0, 0]	n/a	catFR1	2	R1286J
2423.46	11.104	2400418	REC_WORD_VV	9.01	n/a	<>	n/a	-999	18	[0, 0, 0]	n/a	catFR1	2	R1286J
2434.564	2.729	2411521	REC_WORD_VV	20.114	n/a	<>	n/a	-999	18	[0, 0, 0]	n/a	catFR1	2	R1286J
2437.293	7.169	2414250	REC_WORD	22.843	n/a	SPRUCE	n/a	-999	18	[0, 0, 0]	n/a	catFR1	2	R1286J
2444.462	3.776	2421419	REC_END	n/a	n/a	n/a	n/a	-999	18	[0, 0, 0]	n/a	catFR1	2	R1286J
2448.238	0.0	2425195	TRIAL	n/a	n/a	n/a	n/a	-999	19	[0, 0, 0]	n/a	catFR1	2	R1286J
2448.238	10.0	2425195	COUNTDOWN_START	n/a	n/a	n/a	n/a	-999	19	[0, 0, 0]	n/a	catFR1	2	R1286J
2458.666	0.007	2435623	COUNTDOWN_END	n/a	n/a	n/a	n/a	-999	19	[0, 0, 0]	n/a	catFR1	2	R1286J
2458.673	1.6	2435630	ORIENT	n/a	n/a	n/a	n/a	-999	19	[0, 0, 0]	n/a	catFR1	2	R1286J
2460.29	1.884	2437247	ORIENT_OFF	n/a	n/a	n/a	n/a	-999	19	[0, 0, 0]	n/a	catFR1	2	R1286J
2462.174	1.6	2439131	WORD	n/a	wordpools/wordpool_categorized_EN.txt	GRAPE	Fruit	1	19	[0, 0, 0]	n/a	catFR1	2	R1286J
2463.79	0.884	2440746	WORD_OFF	n/a	n/a	GRAPE	n/a	1	19	[0, 0, 0]	n/a	catFR1	2	R1286J
2464.674	1.6	2441630	WORD	n/a	wordpools/wordpool_categorized_EN.txt	LEMON	Fruit	2	19	[0, 0, 0]	n/a	catFR1	2	R1286J
2466.291	0.817	2443247	WORD_OFF	n/a	n/a	LEMON	n/a	2	19	[0, 0, 0]	n/a	catFR1	2	R1286J
2467.108	1.6	2444064	WORD	n/a	wordpools/wordpool_categorized_EN.txt	PINE	Trees	3	19	[0, 0, 0]	n/a	catFR1	2	R1286J
2468.725	0.8	2445681	WORD_OFF	n/a	n/a	PINE	n/a	3	19	[0, 0, 0]	n/a	catFR1	2	R1286J
2469.525	1.6	2446481	WORD	n/a	wordpools/wordpool_categorized_EN.txt	BIRCH	Trees	4	19	[0, 0, 0]	n/a	catFR1	2	R1286J
2471.142	0.849	2448098	WORD_OFF	n/a	n/a	BIRCH	n/a	4	19	[0, 0, 0]	n/a	catFR1	2	R1286J
2471.991	1.6	2448947	WORD	n/a	wordpools/wordpool_categorized_EN.txt	TAPE	OfficeSupplies	5	19	[0, 0, 0]	n/a	catFR1	2	R1286J
2473.609	0.95	2450565	WORD_OFF	n/a	n/a	TAPE	n/a	5	19	[0, 0, 0]	n/a	catFR1	2	R1286J
2474.559	1.6	2451515	WORD	n/a	wordpools/wordpool_categorized_EN.txt	STAPLER	OfficeSupplies	6	19	[0, 0, 0]	n/a	catFR1	2	R1286J
2476.176	0.95	2453132	WORD_OFF	n/a	n/a	STAPLER	n/a	6	19	[0, 0, 0]	n/a	catFR1	2	R1286J
2477.126	1.6	2454082	WORD	n/a	wordpools/wordpool_categorized_EN.txt	WILLOW	Trees	7	19	[0, 0, 0]	n/a	catFR1	2	R1286J
2478.743	0.984	2455699	WORD_OFF	n/a	n/a	WILLOW	n/a	7	19	[0, 0, 0]	n/a	catFR1	2	R1286J
2479.727	1.6	2456683	WORD	n/a	wordpools/wordpool_categorized_EN.txt	MAPLE	Trees	8	19	[0, 0, 0]	n/a	catFR1	2	R1286J
2481.344	1.016	2458300	WORD_OFF	n/a	n/a	MAPLE	n/a	8	19	[0, 0, 0]	n/a	catFR1	2	R1286J
2482.36	1.6	2459316	WORD	n/a	wordpools/wordpool_categorized_EN.txt	APPLE	Fruit	9	19	[0, 0, 0]	n/a	catFR1	2	R1286J
2483.976	0.967	2460932	WORD_OFF	n/a	n/a	APPLE	n/a	9	19	[0, 0, 0]	n/a	catFR1	2	R1286J
2484.943	1.6	2461899	WORD	n/a	wordpools/wordpool_categorized_EN.txt	BLUEBERRY	Fruit	10	19	[0, 0, 0]	n/a	catFR1	2	R1286J
2486.561	1.017	2463517	WORD_OFF	n/a	n/a	BLUEBERRY	n/a	10	19	[0, 0, 0]	n/a	catFR1	2	R1286J
2487.578	1.6	2464534	WORD	n/a	wordpools/wordpool_categorized_EN.txt	PENCIL	OfficeSupplies	11	19	[0, 0, 0]	n/a	catFR1	2	R1286J
2489.195	0.967	2466151	WORD_OFF	n/a	n/a	PENCIL	n/a	11	19	[0, 0, 0]	n/a	catFR1	2	R1286J
2490.162	1.6	2467118	WORD	n/a	wordpools/wordpool_categorized_EN.txt	RULER	OfficeSupplies	12	19	[0, 0, 0]	n/a	catFR1	2	R1286J
2491.779	0.0	2468735	ENCODING_END	n/a	n/a	n/a	n/a	-999	19	[0, 0, 0]	n/a	catFR1	2	R1286J
2491.779	0.102	2468735	WORD_OFF	n/a	n/a	RULER	n/a	12	19	[0, 0, 0]	n/a	catFR1	2	R1286J
2491.881	0.0	2468837	DISTRACT_START	n/a	n/a	n/a	n/a	-999	19	[0, 0, 0]	n/a	catFR1	2	R1286J
2491.881	0.013	2468837	START	n/a	n/a	n/a	n/a	-999	19	[-999, -999, -999]	n/a	catFR1	2	R1286J
2491.894	9.085	2468850	PROB	9.055	n/a	n/a	n/a	-999	19	[4, 8, 9]	21.0	catFR1	2	R1286J
2500.979	4.619	2477934	PROB	4.587	n/a	n/a	n/a	-999	19	[1, 7, 7]	15.0	catFR1	2	R1286J
2505.598	9.839	2482553	PROB	9.839	n/a	n/a	n/a	-999	19	[2, 7, 7]	16.0	catFR1	2	R1286J
2515.437	0.013	2492392	STOP	n/a	n/a	n/a	n/a	-999	19	[-999, -999, -999]	n/a	catFR1	2	R1286J
2515.45	0.616	2492405	DISTRACT_END	n/a	n/a	n/a	n/a	-999	19	[0, 0, 0]	n/a	catFR1	2	R1286J
2516.066	0.518	2493021	RETRIEVAL_ORIENT	n/a	n/a	n/a	n/a	-999	19	[0, 0, 0]	n/a	catFR1	2	R1286J
2516.584	2.27	2493539	REC_START	n/a	n/a	n/a	n/a	-999	19	[0, 0, 0]	n/a	catFR1	2	R1286J
2518.854	0.99	2495809	REC_WORD	2.27	n/a	MAPLE	Trees	8	19	[0, 0, 0]	n/a	catFR1	2	R1286J
2519.844	14.791	2496799	REC_WORD	3.26	n/a	APPLE	Fruit	9	19	[0, 0, 0]	n/a	catFR1	2	R1286J
2534.635	1.819	2511589	REC_WORD	18.051	n/a	BANANA	n/a	-999	19	[0, 0, 0]	n/a	catFR1	2	R1286J
2536.454	10.14	2513408	REC_WORD	19.87	n/a	STRAWBERRY	n/a	-999	19	[0, 0, 0]	n/a	catFR1	2	R1286J
2546.594	2.711	2523548	REC_END	n/a	n/a	n/a	n/a	-999	19	[0, 0, 0]	n/a	catFR1	2	R1286J
2549.305	0.0	2526259	TRIAL	n/a	n/a	n/a	n/a	-999	20	[0, 0, 0]	n/a	catFR1	2	R1286J
2549.305	10.0	2526259	COUNTDOWN_START	n/a	n/a	n/a	n/a	-999	20	[0, 0, 0]	n/a	catFR1	2	R1286J
2559.733	0.007	2536686	COUNTDOWN_END	n/a	n/a	n/a	n/a	-999	20	[0, 0, 0]	n/a	catFR1	2	R1286J
2559.74	1.6	2536693	ORIENT	n/a	n/a	n/a	n/a	-999	20	[0, 0, 0]	n/a	catFR1	2	R1286J
2561.357	2.151	2538310	ORIENT_OFF	n/a	n/a	n/a	n/a	-999	20	[0, 0, 0]	n/a	catFR1	2	R1286J
2563.508	1.6	2540461	WORD	n/a	wordpools/wordpool_categorized_EN.txt	BROCCOLI	Vegetables	1	20	[0, 0, 0]	n/a	catFR1	2	R1286J
2565.124	0.916	2542077	WORD_OFF	n/a	n/a	BROCCOLI	n/a	1	20	[0, 0, 0]	n/a	catFR1	2	R1286J
2566.04	1.6	2542993	WORD	n/a	wordpools/wordpool_categorized_EN.txt	LETTUCE	Vegetables	2	20	[0, 0, 0]	n/a	catFR1	2	R1286J
2567.642	0.816	2544595	WORD_OFF	n/a	n/a	LETTUCE	n/a	2	20	[0, 0, 0]	n/a	catFR1	2	R1286J
2568.458	1.6	2545411	WORD	n/a	wordpools/wordpool_categorized_EN.txt	FOOT	BodyParts	3	20	[0, 0, 0]	n/a	catFR1	2	R1286J
2570.075	0.766	2547028	WORD_OFF	n/a	n/a	FOOT	n/a	3	20	[0, 0, 0]	n/a	catFR1	2	R1286J
2570.841	1.6	2547794	WORD	n/a	wordpools/wordpool_categorized_EN.txt	HEAD	BodyParts	4	20	[0, 0, 0]	n/a	catFR1	2	R1286J
2572.459	0.784	2549412	WORD_OFF	n/a	n/a	HEAD	n/a	4	20	[0, 0, 0]	n/a	catFR1	2	R1286J
2573.243	1.6	2550196	WORD	n/a	wordpools/wordpool_categorized_EN.txt	CORKSCREW	KitchenTools	5	20	[0, 0, 0]	n/a	catFR1	2	R1286J
2574.858	0.984	2551811	WORD_OFF	n/a	n/a	CORKSCREW	n/a	5	20	[0, 0, 0]	n/a	catFR1	2	R1286J
2575.842	1.6	2552795	WORD	n/a	wordpools/wordpool_categorized_EN.txt	PEELER	KitchenTools	6	20	[0, 0, 0]	n/a	catFR1	2	R1286J
2577.46	0.883	2554413	WORD_OFF	n/a	n/a	PEELER	n/a	6	20	[0, 0, 0]	n/a	catFR1	2	R1286J
2578.343	1.6	2555296	WORD	n/a	wordpools/wordpool_categorized_EN.txt	CABBAGE	Vegetables	7	20	[0, 0, 0]	n/a	catFR1	2	R1286J
2579.959	0.917	2556912	WORD_OFF	n/a	n/a	CABBAGE	n/a	7	20	[0, 0, 0]	n/a	catFR1	2	R1286J
2580.876	1.6	2557829	WORD	n/a	wordpools/wordpool_categorized_EN.txt	CELERY	Vegetables	8	20	[0, 0, 0]	n/a	catFR1	2	R1286J
2582.494	0.95	2559446	WORD_OFF	n/a	n/a	CELERY	n/a	8	20	[0, 0, 0]	n/a	catFR1	2	R1286J
2583.444	1.6	2560396	WORD	n/a	wordpools/wordpool_categorized_EN.txt	LEG	BodyParts	9	20	[0, 0, 0]	n/a	catFR1	2	R1286J
2585.061	0.933	2562013	WORD_OFF	n/a	n/a	LEG	n/a	9	20	[0, 0, 0]	n/a	catFR1	2	R1286J
2585.994	1.6	2562946	WORD	n/a	wordpools/wordpool_categorized_EN.txt	NOSE	BodyParts	10	20	[0, 0, 0]	n/a	catFR1	2	R1286J
2587.595	0.817	2564547	WORD_OFF	n/a	n/a	NOSE	n/a	10	20	[0, 0, 0]	n/a	catFR1	2	R1286J
2588.412	1.6	2565364	WORD	n/a	wordpools/wordpool_categorized_EN.txt	LADLE	KitchenTools	11	20	[0, 0, 0]	n/a	catFR1	2	R1286J
2590.028	1.0	2566980	WORD_OFF	n/a	n/a	LADLE	n/a	11	20	[0, 0, 0]	n/a	catFR1	2	R1286J
2591.028	1.6	2567980	WORD	n/a	wordpools/wordpool_categorized_EN.txt	GRATER	KitchenTools	12	20	[0, 0, 0]	n/a	catFR1	2	R1286J
2592.646	0.0	2569598	ENCODING_END	n/a	n/a	n/a	n/a	-999	20	[0, 0, 0]	n/a	catFR1	2	R1286J
2592.646	0.075	2569598	WORD_OFF	n/a	n/a	GRATER	n/a	12	20	[0, 0, 0]	n/a	catFR1	2	R1286J
2592.721	0.0	2569673	DISTRACT_START	n/a	n/a	n/a	n/a	-999	20	[0, 0, 0]	n/a	catFR1	2	R1286J
2592.721	0.008	2569673	START	n/a	n/a	n/a	n/a	-999	20	[-999, -999, -999]	n/a	catFR1	2	R1286J
2592.729	7.035	2569681	PROB	6.995	n/a	n/a	n/a	-999	20	[1, 7, 2]	10.0	catFR1	2	R1286J
2599.764	3.817	2576716	PROB	3.792	n/a	n/a	n/a	-999	20	[1, 2, 8]	11.0	catFR1	2	R1286J
2603.581	4.151	2580533	PROB	4.119	n/a	n/a	n/a	-999	20	[2, 3, 6]	11.0	catFR1	2	R1286J
2607.732	6.208	2584684	PROB	6.208	n/a	n/a	n/a	-999	20	[5, 5, 8]	18.0	catFR1	2	R1286J
2613.94	0.009	2590891	STOP	n/a	n/a	n/a	n/a	-999	20	[-999, -999, -999]	n/a	catFR1	2	R1286J
2613.949	0.567	2590900	DISTRACT_END	n/a	n/a	n/a	n/a	-999	20	[0, 0, 0]	n/a	catFR1	2	R1286J
2614.516	0.517	2591467	RETRIEVAL_ORIENT	n/a	n/a	n/a	n/a	-999	20	[0, 0, 0]	n/a	catFR1	2	R1286J
2615.033	2.501	2591984	REC_START	n/a	n/a	n/a	n/a	-999	20	[0, 0, 0]	n/a	catFR1	2	R1286J
2617.534	2.738	2594485	REC_WORD	2.501	n/a	GRATER	KitchenTools	12	20	[0, 0, 0]	n/a	catFR1	2	R1286J
2620.272	1.972	2597223	REC_WORD	5.239	n/a	PEELER	KitchenTools	6	20	[0, 0, 0]	n/a	catFR1	2	R1286J
2622.244	2.14	2599195	REC_WORD	7.211	n/a	BROCCOLI	Vegetables	1	20	[0, 0, 0]	n/a	catFR1	2	R1286J
2624.384	15.388	2601335	REC_WORD	9.351	n/a	CABBAGE	Vegetables	7	20	[0, 0, 0]	n/a	catFR1	2	R1286J
2639.772	5.272	2616723	REC_WORD	24.739	n/a	ONION	n/a	-999	20	[0, 0, 0]	n/a	catFR1	2	R1286J
2645.044	2.894	2621994	REC_END	n/a	n/a	n/a	n/a	-999	20	[0, 0, 0]	n/a	catFR1	2	R1286J
2647.938	0.0	2624888	TRIAL	n/a	n/a	n/a	n/a	-999	21	[0, 0, 0]	n/a	catFR1	2	R1286J
2647.938	10.0	2624888	COUNTDOWN_START	n/a	n/a	n/a	n/a	-999	21	[0, 0, 0]	n/a	catFR1	2	R1286J
2658.366	0.008	2635316	COUNTDOWN_END	n/a	n/a	n/a	n/a	-999	21	[0, 0, 0]	n/a	catFR1	2	R1286J
2658.374	1.6	2635324	ORIENT	n/a	n/a	n/a	n/a	-999	21	[0, 0, 0]	n/a	catFR1	2	R1286J
2659.99	2.084	2636940	ORIENT_OFF	n/a	n/a	n/a	n/a	-999	21	[0, 0, 0]	n/a	catFR1	2	R1286J
2662.074	1.6	2639024	WORD	n/a	wordpools/wordpool_categorized_EN.txt	HAMMER	Tools	1	21	[0, 0, 0]	n/a	catFR1	2	R1286J
2663.691	0.784	2640641	WORD_OFF	n/a	n/a	HAMMER	n/a	1	21	[0, 0, 0]	n/a	catFR1	2	R1286J
2664.475	1.6	2641425	WORD	n/a	wordpools/wordpool_categorized_EN.txt	SANDER	Tools	2	21	[0, 0, 0]	n/a	catFR1	2	R1286J
2666.092	0.832	2643042	WORD_OFF	n/a	n/a	SANDER	n/a	2	21	[0, 0, 0]	n/a	catFR1	2	R1286J
2666.924	1.6	2643874	WORD	n/a	wordpools/wordpool_categorized_EN.txt	KNEE	BodyParts	3	21	[0, 0, 0]	n/a	catFR1	2	R1286J
2668.525	0.95	2645475	WORD_OFF	n/a	n/a	KNEE	n/a	3	21	[0, 0, 0]	n/a	catFR1	2	R1286J
2669.475	1.6	2646424	WORD	n/a	wordpools/wordpool_categorized_EN.txt	ELBOW	BodyParts	4	21	[0, 0, 0]	n/a	catFR1	2	R1286J
2671.092	1.001	2648041	WORD_OFF	n/a	n/a	ELBOW	n/a	4	21	[0, 0, 0]	n/a	catFR1	2	R1286J
2672.093	1.6	2649042	WORD	n/a	wordpools/wordpool_categorized_EN.txt	PAPER	OfficeSupplies	5	21	[0, 0, 0]	n/a	catFR1	2	R1286J
2673.71	0.833	2650659	WORD_OFF	n/a	n/a	PAPER	n/a	5	21	[0, 0, 0]	n/a	catFR1	2	R1286J
2674.543	1.6	2651492	WORD	n/a	wordpools/wordpool_categorized_EN.txt	BINDER	OfficeSupplies	6	21	[0, 0, 0]	n/a	catFR1	2	R1286J
2676.16	0.849	2653109	WORD_OFF	n/a	n/a	BINDER	n/a	6	21	[0, 0, 0]	n/a	catFR1	2	R1286J
2677.009	1.6	2653958	WORD	n/a	wordpools/wordpool_categorized_EN.txt	DRILL	Tools	7	21	[0, 0, 0]	n/a	catFR1	2	R1286J
2678.627	1.0	2655576	WORD_OFF	n/a	n/a	DRILL	n/a	7	21	[0, 0, 0]	n/a	catFR1	2	R1286J
2679.627	1.6	2656576	WORD	n/a	wordpools/wordpool_categorized_EN.txt	SCREWDRIVER	Tools	8	21	[0, 0, 0]	n/a	catFR1	2	R1286J
2681.244	0.783	2658193	WORD_OFF	n/a	n/a	SCREWDRIVER	n/a	8	21	[0, 0, 0]	n/a	catFR1	2	R1286J
2682.027	1.6	2658976	WORD	n/a	wordpools/wordpool_categorized_EN.txt	HAND	BodyParts	9	21	[0, 0, 0]	n/a	catFR1	2	R1286J
2683.645	0.933	2660594	WORD_OFF	n/a	n/a	HAND	n/a	9	21	[0, 0, 0]	n/a	catFR1	2	R1286J
2684.578	1.6	2661527	WORD	n/a	wordpools/wordpool_categorized_EN.txt	FINGERS	BodyParts	10	21	[0, 0, 0]	n/a	catFR1	2	R1286J
2686.195	0.95	2663144	WORD_OFF	n/a	n/a	FINGERS	n/a	10	21	[0, 0, 0]	n/a	catFR1	2	R1286J
2687.145	1.6	2664094	WORD	n/a	wordpools/wordpool_categorized_EN.txt	NOTEBOOK	OfficeSupplies	11	21	[0, 0, 0]	n/a	catFR1	2	R1286J
2688.762	0.984	2665711	WORD_OFF	n/a	n/a	NOTEBOOK	n/a	11	21	[0, 0, 0]	n/a	catFR1	2	R1286J
2689.746	1.6	2666695	WORD	n/a	wordpools/wordpool_categorized_EN.txt	FOLDER	OfficeSupplies	12	21	[0, 0, 0]	n/a	catFR1	2	R1286J
2691.363	0.0	2668312	ENCODING_END	n/a	n/a	n/a	n/a	-999	21	[0, 0, 0]	n/a	catFR1	2	R1286J
2691.363	0.079	2668312	WORD_OFF	n/a	n/a	FOLDER	n/a	12	21	[0, 0, 0]	n/a	catFR1	2	R1286J
2691.442	0.0	2668391	DISTRACT_START	n/a	n/a	n/a	n/a	-999	21	[0, 0, 0]	n/a	catFR1	2	R1286J
2691.442	0.021	2668391	START	n/a	n/a	n/a	n/a	-999	21	[-999, -999, -999]	n/a	catFR1	2	R1286J
2691.463	7.167	2668412	PROB	7.138	n/a	n/a	n/a	-999	21	[8, 7, 2]	17.0	catFR1	2	R1286J
2698.63	6.035	2675579	PROB	6.002	n/a	n/a	n/a	-999	21	[8, 3, 8]	19.0	catFR1	2	R1286J
2704.665	6.894	2681613	PROB	6.894	n/a	n/a	n/a	-999	21	[8, 7, 9]	24.0	catFR1	2	R1286J
2711.559	0.024	2688507	STOP	n/a	n/a	n/a	n/a	-999	21	[-999, -999, -999]	n/a	catFR1	2	R1286J
2711.583	0.6	2688531	DISTRACT_END	n/a	n/a	n/a	n/a	-999	21	[0, 0, 0]	n/a	catFR1	2	R1286J
2712.183	0.517	2689131	RETRIEVAL_ORIENT	n/a	n/a	n/a	n/a	-999	21	[0, 0, 0]	n/a	catFR1	2	R1286J
2712.7	2.141	2689648	REC_START	n/a	n/a	n/a	n/a	-999	21	[0, 0, 0]	n/a	catFR1	2	R1286J
2714.841	1.54	2691789	REC_WORD	2.141	n/a	HAMMER	Tools	1	21	[0, 0, 0]	n/a	catFR1	2	R1286J
2716.381	2.254	2693329	REC_WORD	3.681	n/a	SANDER	Tools	2	21	[0, 0, 0]	n/a	catFR1	2	R1286J
2718.635	2.147	2695583	REC_WORD	5.935	n/a	HAND	BodyParts	9	21	[0, 0, 0]	n/a	catFR1	2	R1286J
2720.782	3.717	2697730	REC_WORD	8.082	n/a	FOLDER	OfficeSupplies	12	21	[0, 0, 0]	n/a	catFR1	2	R1286J
2724.499	10.855	2701447	REC_WORD	11.799	n/a	PAPER	OfficeSupplies	5	21	[0, 0, 0]	n/a	catFR1	2	R1286J
2735.354	7.356	2712301	REC_WORD	22.654	n/a	CHEST	n/a	-999	21	[0, 0, 0]	n/a	catFR1	2	R1286J
2742.71	3.995	2719657	REC_END	n/a	n/a	n/a	n/a	-999	21	[0, 0, 0]	n/a	catFR1	2	R1286J
2746.705	10.0	2723652	COUNTDOWN_START	n/a	n/a	n/a	n/a	-999	22	[0, 0, 0]	n/a	catFR1	2	R1286J
2746.705	10.428	2723652	TRIAL	n/a	n/a	n/a	n/a	-999	22	[0, 0, 0]	n/a	catFR1	2	R1286J
2757.133	0.007	2734080	COUNTDOWN_END	n/a	n/a	n/a	n/a	-999	22	[0, 0, 0]	n/a	catFR1	2	R1286J
2757.14	1.6	2734087	ORIENT	n/a	n/a	n/a	n/a	-999	22	[0, 0, 0]	n/a	catFR1	2	R1286J
2758.757	2.2	2735703	ORIENT_OFF	n/a	n/a	n/a	n/a	-999	22	[0, 0, 0]	n/a	catFR1	2	R1286J
2760.957	1.6	2737903	WORD	n/a	wordpools/wordpool_categorized_EN.txt	WALL	Building	1	22	[0, 0, 0]	n/a	catFR1	2	R1286J
2762.575	0.783	2739521	WORD_OFF	n/a	n/a	WALL	n/a	1	22	[0, 0, 0]	n/a	catFR1	2	R1286J
2763.358	1.6	2740304	WORD	n/a	wordpools/wordpool_categorized_EN.txt	BATHROOM	Building	2	22	[0, 0, 0]	n/a	catFR1	2	R1286J
2764.974	0.933	2741920	WORD_OFF	n/a	n/a	BATHROOM	n/a	2	22	[0, 0, 0]	n/a	catFR1	2	R1286J
2765.907	1.6	2742853	WORD	n/a	wordpools/wordpool_categorized_EN.txt	PIG	FarmAnimals	3	22	[0, 0, 0]	n/a	catFR1	2	R1286J
2767.525	0.967	2744471	WORD_OFF	n/a	n/a	PIG	n/a	3	22	[0, 0, 0]	n/a	catFR1	2	R1286J
2768.492	1.6	2745438	WORD	n/a	wordpools/wordpool_categorized_EN.txt	BULL	FarmAnimals	4	22	[0, 0, 0]	n/a	catFR1	2	R1286J
2770.109	0.783	2747055	WORD_OFF	n/a	n/a	BULL	n/a	4	22	[0, 0, 0]	n/a	catFR1	2	R1286J
2770.892	1.6	2747838	WORD	n/a	wordpools/wordpool_categorized_EN.txt	ROACH	Insects	5	22	[0, 0, 0]	n/a	catFR1	2	R1286J
2772.51	0.849	2749456	WORD_OFF	n/a	n/a	ROACH	n/a	5	22	[0, 0, 0]	n/a	catFR1	2	R1286J
2773.359	1.6	2750305	WORD	n/a	wordpools/wordpool_categorized_EN.txt	ANT	Insects	6	22	[0, 0, 0]	n/a	catFR1	2	R1286J
2774.975	0.867	2751921	WORD_OFF	n/a	n/a	ANT	n/a	6	22	[0, 0, 0]	n/a	catFR1	2	R1286J
2775.842	1.6	2752788	WORD	n/a	wordpools/wordpool_categorized_EN.txt	WINDOW	Building	7	22	[0, 0, 0]	n/a	catFR1	2	R1286J
2777.444	0.85	2754390	WORD_OFF	n/a	n/a	WINDOW	n/a	7	22	[0, 0, 0]	n/a	catFR1	2	R1286J
2778.294	1.6	2755240	WORD	n/a	wordpools/wordpool_categorized_EN.txt	ATTIC	Building	8	22	[0, 0, 0]	n/a	catFR1	2	R1286J
2779.91	0.917	2756856	WORD_OFF	n/a	n/a	ATTIC	n/a	8	22	[0, 0, 0]	n/a	catFR1	2	R1286J
2780.827	1.6	2757773	WORD	n/a	wordpools/wordpool_categorized_EN.txt	COW	FarmAnimals	9	22	[0, 0, 0]	n/a	catFR1	2	R1286J
2782.445	0.783	2759391	WORD_OFF	n/a	n/a	COW	n/a	9	22	[0, 0, 0]	n/a	catFR1	2	R1286J
2783.228	1.6	2760174	WORD	n/a	wordpools/wordpool_categorized_EN.txt	TURKEY	FarmAnimals	10	22	[0, 0, 0]	n/a	catFR1	2	R1286J
2784.844	0.851	2761790	WORD_OFF	n/a	n/a	TURKEY	n/a	10	22	[0, 0, 0]	n/a	catFR1	2	R1286J
2785.695	1.6	2762641	WORD	n/a	wordpools/wordpool_categorized_EN.txt	BEE	Insects	11	22	[0, 0, 0]	n/a	catFR1	2	R1286J
2787.312	0.884	2764257	WORD_OFF	n/a	n/a	BEE	n/a	11	22	[0, 0, 0]	n/a	catFR1	2	R1286J
2788.196	1.6	2765141	WORD	n/a	wordpools/wordpool_categorized_EN.txt	FLY	Insects	12	22	[0, 0, 0]	n/a	catFR1	2	R1286J
2789.812	0.0	2766757	ENCODING_END	n/a	n/a	n/a	n/a	-999	22	[0, 0, 0]	n/a	catFR1	2	R1286J
2789.812	0.103	2766757	WORD_OFF	n/a	n/a	FLY	n/a	12	22	[0, 0, 0]	n/a	catFR1	2	R1286J
2789.915	0.0	2766860	DISTRACT_START	n/a	n/a	n/a	n/a	-999	22	[0, 0, 0]	n/a	catFR1	2	R1286J
2789.915	0.013	2766860	START	n/a	n/a	n/a	n/a	-999	22	[-999, -999, -999]	n/a	catFR1	2	R1286J
2789.928	6.519	2766873	PROB	6.481	n/a	n/a	n/a	-999	22	[4, 4, 2]	10.0	catFR1	2	R1286J
