onset	duration	sample	trial_type	response_time	stim_file	item_name	category	serialpos	list	test	answer	experiment	session	subject
0.0	4.498	59542	INSTRUCT_START	n/a	n/a	n/a	n/a	-999	-999	[0, 0, 0]	n/a	catFR1	3	R1658S
4.498	20.698	64040	INSTRUCT_END	n/a	n/a	n/a	n/a	-999	-999	[0, 0, 0]	n/a	catFR1	3	R1658S
25.196	10.361	84737	COUNTDOWN_START	n/a	n/a	n/a	n/a	-999	-999	[0, 0, 0]	n/a	catFR1	3	R1658S
35.557	0.0	95096	COUNTDOWN_END	n/a	n/a	n/a	n/a	-999	-999	[0, 0, 0]	n/a	catFR1	3	R1658S
35.557	2.252	95107	ENCODING_START	n/a	n/a	n/a	n/a	-999	-1	[0, 0, 0]	n/a	catFR1	3	R1658S
37.809	1.605	97351	WORD	n/a	n/a	TOE	BodyParts	1	-1	[0, 0, 0]	n/a	catFR1	3	R1658S
39.414	0.857	98963	WORD_OFF	n/a	n/a	TOE	BodyParts	1	-1	[0, 0, 0]	n/a	catFR1	3	R1658S
40.271	1.607	99819	WORD	n/a	n/a	HAND	BodyParts	2	-1	[0, 0, 0]	n/a	catFR1	3	R1658S
41.878	0.782	101420	WORD_OFF	n/a	n/a	HAND	BodyParts	2	-1	[0, 0, 0]	n/a	catFR1	3	R1658S
42.66	1.601	102209	WORD	n/a	n/a	SPARROW	Birds	3	-1	[0, 0, 0]	n/a	catFR1	3	R1658S
44.261	0.874	103810	WORD_OFF	n/a	n/a	SPARROW	Birds	3	-1	[0, 0, 0]	n/a	catFR1	3	R1658S
45.135	1.612	104678	WORD	n/a	n/a	ROBIN	Birds	4	-1	[0, 0, 0]	n/a	catFR1	3	R1658S
46.747	0.938	106290	WORD_OFF	n/a	n/a	ROBIN	Birds	4	-1	[0, 0, 0]	n/a	catFR1	3	R1658S
47.685	1.621	107226	WORD	n/a	n/a	BLOCKS	Toys	5	-1	[0, 0, 0]	n/a	catFR1	3	R1658S
49.306	0.871	108849	WORD_OFF	n/a	n/a	BLOCKS	Toys	5	-1	[0, 0, 0]	n/a	catFR1	3	R1658S
50.177	1.6	109717	WORD	n/a	n/a	PUZZLE	Toys	6	-1	[0, 0, 0]	n/a	catFR1	3	R1658S
51.777	0.818	111329	WORD_OFF	n/a	n/a	PUZZLE	Toys	6	-1	[0, 0, 0]	n/a	catFR1	3	R1658S
52.595	1.607	112141	WORD	n/a	n/a	HAWK	Birds	7	-1	[0, 0, 0]	n/a	catFR1	3	R1658S
54.202	0.959	113753	WORD_OFF	n/a	n/a	HAWK	Birds	7	-1	[0, 0, 0]	n/a	catFR1	3	R1658S
55.161	1.6	114711	WORD	n/a	n/a	GOOSE	Birds	8	-1	[0, 0, 0]	n/a	catFR1	3	R1658S
56.761	0.849	116311	WORD_OFF	n/a	n/a	GOOSE	Birds	8	-1	[0, 0, 0]	n/a	catFR1	3	R1658S
57.61	1.6	117157	WORD	n/a	n/a	BARBIE	Toys	9	-1	[0, 0, 0]	n/a	catFR1	3	R1658S
59.21	0.885	118758	WORD_OFF	n/a	n/a	BARBIE	Toys	9	-1	[0, 0, 0]	n/a	catFR1	3	R1658S
60.095	1.607	119637	WORD	n/a	n/a	DOLL	Toys	10	-1	[0, 0, 0]	n/a	catFR1	3	R1658S
61.702	0.918	121249	WORD_OFF	n/a	n/a	DOLL	Toys	10	-1	[0, 0, 0]	n/a	catFR1	3	R1658S
62.62	1.608	122162	WORD	n/a	n/a	HEAD	BodyParts	11	-1	[0, 0, 0]	n/a	catFR1	3	R1658S
64.228	0.891	123774	WORD_OFF	n/a	n/a	HEAD	BodyParts	11	-1	[0, 0, 0]	n/a	catFR1	3	R1658S
65.119	1.6	124665	WORD	n/a	n/a	ELBOW	BodyParts	12	-1	[0, 0, 0]	n/a	catFR1	3	R1658S
66.719	0.007	126265	WORD_OFF	n/a	n/a	ELBOW	BodyParts	12	-1	[0, 0, 0]	n/a	catFR1	3	R1658S
66.726	0.0	126272	START	n/a	n/a	n/a	n/a	-999	-1	[-999, -999, -999]	n/a	catFR1	3	R1658S
66.726	0.0	126272	PROB	0.0	n/a	n/a	n/a	-999	-1	[6, 3, 4]	13	catFR1	3	R1658S
66.726	0.0	126277	ENCODING_END	n/a	n/a	n/a	n/a	-999	-1	[0, 0, 0]	n/a	catFR1	3	R1658S
66.726	7.984	126277	DISTRACT_START	n/a	n/a	n/a	n/a	-999	-1	[0, 0, 0]	n/a	catFR1	3	R1658S
74.71	10.492	134256	PROB	10.492	n/a	n/a	n/a	-999	-1	[8, 8, 3]	19	catFR1	3	R1658S
85.202	6.016	144748	PROB	6.016	n/a	n/a	n/a	-999	-1	[3, 5, 2]	9	catFR1	3	R1658S
91.218	0.0	150761	DISTRACT_END	n/a	n/a	n/a	n/a	-999	-1	[0, 0, 0]	n/a	catFR1	3	R1658S
91.218	2.135	150765	STOP	n/a	n/a	n/a	n/a	-999	-1	[-999, -999, -999]	n/a	catFR1	3	R1658S
93.353	0.304	152903	REC_START	n/a	n/a	n/a	n/a	-999	-1	[0, 0, 0]	n/a	catFR1	3	R1658S
93.657	1.295	153204	REC_WORD	1.295	n/a	BARBIE	Toys	9	-1	[0, 0, 0]	n/a	catFR1	3	R1658S
94.952	3.847	154499	REC_WORD	3.847	n/a	DOLL	Toys	10	-1	[0, 0, 0]	n/a	catFR1	3	R1658S
98.799	2.765	158346	REC_WORD	2.765	n/a	BIRD	n/a	-999	-1	[0, 0, 0]	n/a	catFR1	3	R1658S
101.564	2.284	161111	REC_WORD	2.284	n/a	HAND	BodyParts	2	-1	[0, 0, 0]	n/a	catFR1	3	R1658S
103.848	2.472	163395	REC_WORD	2.472	n/a	HEAD	BodyParts	11	-1	[0, 0, 0]	n/a	catFR1	3	R1658S
106.32	4.039	165867	REC_WORD	4.039	n/a	TOE	BodyParts	1	-1	[0, 0, 0]	n/a	catFR1	3	R1658S
110.359	3.284	169906	REC_WORD	3.284	n/a	SPARROW	Birds	3	-1	[0, 0, 0]	n/a	catFR1	3	R1658S
113.643	9.874	173190	REC_WORD	9.874	n/a	GOOSE	Birds	8	-1	[0, 0, 0]	n/a	catFR1	3	R1658S
123.517	11.834	183057	REC_END	n/a	n/a	n/a	n/a	-999	-1	[0, 0, 0]	n/a	catFR1	3	R1658S
135.351	10.35	194905	COUNTDOWN_START	n/a	n/a	n/a	n/a	-999	1	[0, 0, 0]	n/a	catFR1	3	R1658S
145.701	0.0	205242	COUNTDOWN_END	n/a	n/a	n/a	n/a	-999	1	[0, 0, 0]	n/a	catFR1	3	R1658S
145.701	2.024	205253	ENCODING_START	n/a	n/a	n/a	n/a	-999	1	[0, 0, 0]	n/a	catFR1	3	R1658S
147.725	1.6	207271	WORD	n/a	wordpools/wordpool_categorized_EN.txt	RIVER	Landscapes	1	1	[0, 0, 0]	n/a	catFR1	3	R1658S
149.325	0.785	208872	WORD_OFF	n/a	n/a	RIVER	Landscapes	1	1	[0, 0, 0]	n/a	catFR1	3	R1658S
150.11	1.608	209661	WORD	n/a	wordpools/wordpool_categorized_EN.txt	MOUNTAIN	Landscapes	2	1	[0, 0, 0]	n/a	catFR1	3	R1658S
151.718	0.766	211262	WORD_OFF	n/a	n/a	MOUNTAIN	Landscapes	2	1	[0, 0, 0]	n/a	catFR1	3	R1658S
152.484	1.61	212028	WORD	n/a	wordpools/wordpool_categorized_EN.txt	CARDINAL	Birds	3	1	[0, 0, 0]	n/a	catFR1	3	R1658S
154.094	0.997	213640	WORD_OFF	n/a	n/a	CARDINAL	Birds	3	1	[0, 0, 0]	n/a	catFR1	3	R1658S
155.091	1.609	214643	WORD	n/a	wordpools/wordpool_categorized_EN.txt	DUCK	Birds	4	1	[0, 0, 0]	n/a	catFR1	3	R1658S
156.7	0.8	216244	WORD_OFF	n/a	n/a	DUCK	Birds	4	1	[0, 0, 0]	n/a	catFR1	3	R1658S
157.5	1.609	217044	WORD	n/a	wordpools/wordpool_categorized_EN.txt	CEDAR	Trees	5	1	[0, 0, 0]	n/a	catFR1	3	R1658S
159.109	0.8	218656	WORD_OFF	n/a	n/a	CEDAR	Trees	5	1	[0, 0, 0]	n/a	catFR1	3	R1658S
159.909	1.607	219468	WORD	n/a	wordpools/wordpool_categorized_EN.txt	BIRCH	Trees	6	1	[0, 0, 0]	n/a	catFR1	3	R1658S
161.516	0.942	221058	WORD_OFF	n/a	n/a	BIRCH	Trees	6	1	[0, 0, 0]	n/a	catFR1	3	R1658S
162.458	1.609	222004	WORD	n/a	wordpools/wordpool_categorized_EN.txt	BLUEBIRD	Birds	7	1	[0, 0, 0]	n/a	catFR1	3	R1658S
164.067	0.958	223616	WORD_OFF	n/a	n/a	BLUEBIRD	Birds	7	1	[0, 0, 0]	n/a	catFR1	3	R1658S
165.025	1.608	224575	WORD	n/a	wordpools/wordpool_categorized_EN.txt	DOVE	Birds	8	1	[0, 0, 0]	n/a	catFR1	3	R1658S
166.633	0.867	226175	WORD_OFF	n/a	n/a	DOVE	Birds	8	1	[0, 0, 0]	n/a	catFR1	3	R1658S
167.5	1.608	227043	WORD	n/a	wordpools/wordpool_categorized_EN.txt	WALNUT	Trees	9	1	[0, 0, 0]	n/a	catFR1	3	R1658S
169.108	0.758	228655	WORD_OFF	n/a	n/a	WALNUT	Trees	9	1	[0, 0, 0]	n/a	catFR1	3	R1658S
169.866	1.601	229411	WORD	n/a	wordpools/wordpool_categorized_EN.txt	CYPRESS	Trees	10	1	[0, 0, 0]	n/a	catFR1	3	R1658S
171.467	0.858	231011	WORD_OFF	n/a	n/a	CYPRESS	Trees	10	1	[0, 0, 0]	n/a	catFR1	3	R1658S
172.325	1.607	231879	WORD	n/a	wordpools/wordpool_categorized_EN.txt	ISLAND	Landscapes	11	1	[0, 0, 0]	n/a	catFR1	3	R1658S
173.932	0.91	233480	WORD_OFF	n/a	n/a	ISLAND	Landscapes	11	1	[0, 0, 0]	n/a	catFR1	3	R1658S
174.842	1.609	234393	WORD	n/a	wordpools/wordpool_categorized_EN.txt	VALLEY	Landscapes	12	1	[0, 0, 0]	n/a	catFR1	3	R1658S
176.451	0.0	235994	WORD_OFF	n/a	n/a	VALLEY	Landscapes	12	1	[0, 0, 0]	n/a	catFR1	3	R1658S
176.451	0.003	235999	PROB	0.003	n/a	n/a	n/a	-999	1	[5, 6, 6]	17	catFR1	3	R1658S
176.454	0.0	236002	START	n/a	n/a	n/a	n/a	-999	1	[-999, -999, -999]	n/a	catFR1	3	R1658S
176.454	0.0	236005	ENCODING_END	n/a	n/a	n/a	n/a	-999	1	[0, 0, 0]	n/a	catFR1	3	R1658S
176.454	14.366	236005	DISTRACT_START	n/a	n/a	n/a	n/a	-999	1	[0, 0, 0]	n/a	catFR1	3	R1658S
190.82	6.737	250368	PROB	6.737	n/a	n/a	n/a	-999	1	[1, 6, 4]	11	catFR1	3	R1658S
197.557	0.0	257106	STOP	n/a	n/a	n/a	n/a	-999	1	[-999, -999, -999]	n/a	catFR1	3	R1658S
197.557	2.086	257108	DISTRACT_END	n/a	n/a	n/a	n/a	-999	1	[0, 0, 0]	n/a	catFR1	3	R1658S
199.643	3.937	259193	REC_START	n/a	n/a	n/a	n/a	-999	1	[0, 0, 0]	n/a	catFR1	3	R1658S
203.58	2.688	263129	REC_WORD_VV	2.688	n/a	<>	n/a	-999	1	[0, 0, 0]	n/a	catFR1	3	R1658S
206.268	23.533	265817	REC_WORD_VV	23.533	n/a	<>	n/a	-999	1	[0, 0, 0]	n/a	catFR1	3	R1658S
229.801	2.98	289348	REC_END	n/a	n/a	n/a	n/a	-999	1	[0, 0, 0]	n/a	catFR1	3	R1658S
232.781	10.342	292335	COUNTDOWN_START	n/a	n/a	n/a	n/a	-999	1	[0, 0, 0]	n/a	catFR1	3	R1658S
243.123	0.0	302672	COUNTDOWN_END	n/a	n/a	n/a	n/a	-999	1	[0, 0, 0]	n/a	catFR1	3	R1658S
243.123	2.291	302672	ENCODING_START	n/a	n/a	n/a	n/a	-999	2	[0, 0, 0]	n/a	catFR1	3	R1658S
245.414	1.601	304960	WORD	n/a	wordpools/wordpool_categorized_EN.txt	SANDER	Tools	1	2	[0, 0, 0]	n/a	catFR1	3	R1658S
247.015	0.826	306561	WORD_OFF	n/a	n/a	SANDER	Tools	1	2	[0, 0, 0]	n/a	catFR1	3	R1658S
247.841	1.607	307384	WORD	n/a	wordpools/wordpool_categorized_EN.txt	SAW	Tools	2	2	[0, 0, 0]	n/a	catFR1	3	R1658S
249.448	0.784	308996	WORD_OFF	n/a	n/a	SAW	Tools	2	2	[0, 0, 0]	n/a	catFR1	3	R1658S
250.232	1.617	309785	WORD	n/a	wordpools/wordpool_categorized_EN.txt	PIG	FarmAnimals	3	2	[0, 0, 0]	n/a	catFR1	3	R1658S
251.849	0.858	311397	WORD_OFF	n/a	n/a	PIG	FarmAnimals	3	2	[0, 0, 0]	n/a	catFR1	3	R1658S
252.707	1.609	312254	WORD	n/a	wordpools/wordpool_categorized_EN.txt	BULL	FarmAnimals	4	2	[0, 0, 0]	n/a	catFR1	3	R1658S
254.316	0.865	313866	WORD_OFF	n/a	n/a	BULL	FarmAnimals	4	2	[0, 0, 0]	n/a	catFR1	3	R1658S
255.181	1.601	314734	WORD	n/a	wordpools/wordpool_categorized_EN.txt	CRAB	OceanAnimals	5	2	[0, 0, 0]	n/a	catFR1	3	R1658S
256.782	0.842	316335	WORD_OFF	n/a	n/a	CRAB	OceanAnimals	5	2	[0, 0, 0]	n/a	catFR1	3	R1658S
257.624	1.607	317169	WORD	n/a	wordpools/wordpool_categorized_EN.txt	TURTLE	OceanAnimals	6	2	[0, 0, 0]	n/a	catFR1	3	R1658S
259.231	0.85	318781	WORD_OFF	n/a	n/a	TURTLE	OceanAnimals	6	2	[0, 0, 0]	n/a	catFR1	3	R1658S
260.081	1.599	319626	WORD	n/a	wordpools/wordpool_categorized_EN.txt	SCREWDRIVER	Tools	7	2	[0, 0, 0]	n/a	catFR1	3	R1658S
261.68	0.853	321227	WORD_OFF	n/a	n/a	SCREWDRIVER	Tools	7	2	[0, 0, 0]	n/a	catFR1	3	R1658S
262.533	1.608	322084	WORD	n/a	wordpools/wordpool_categorized_EN.txt	LEVEL	Tools	8	2	[0, 0, 0]	n/a	catFR1	3	R1658S
264.141	0.999	323696	WORD_OFF	n/a	n/a	LEVEL	Tools	8	2	[0, 0, 0]	n/a	catFR1	3	R1658S
265.14	1.601	324688	WORD	n/a	wordpools/wordpool_categorized_EN.txt	SQUID	OceanAnimals	9	2	[0, 0, 0]	n/a	catFR1	3	R1658S
266.741	1.004	326288	WORD_OFF	n/a	n/a	SQUID	OceanAnimals	9	2	[0, 0, 0]	n/a	catFR1	3	R1658S
267.745	1.602	327292	WORD	n/a	wordpools/wordpool_categorized_EN.txt	OYSTER	OceanAnimals	10	2	[0, 0, 0]	n/a	catFR1	3	R1658S
269.347	0.793	328892	WORD_OFF	n/a	n/a	OYSTER	OceanAnimals	10	2	[0, 0, 0]	n/a	catFR1	3	R1658S
270.14	1.6	329693	WORD	n/a	wordpools/wordpool_categorized_EN.txt	HEN	FarmAnimals	11	2	[0, 0, 0]	n/a	catFR1	3	R1658S
271.74	0.95	331293	WORD_OFF	n/a	n/a	HEN	FarmAnimals	11	2	[0, 0, 0]	n/a	catFR1	3	R1658S
272.69	1.608	332240	WORD	n/a	wordpools/wordpool_categorized_EN.txt	LAMB	FarmAnimals	12	2	[0, 0, 0]	n/a	catFR1	3	R1658S
274.298	0.001	333848	PROB	0.001	n/a	n/a	n/a	-999	2	[6, 7, 4]	17	catFR1	3	R1658S
274.299	0.005	333852	WORD_OFF	n/a	n/a	LAMB	FarmAnimals	12	2	[0, 0, 0]	n/a	catFR1	3	R1658S
274.304	0.001	333852	ENCODING_END	n/a	n/a	n/a	n/a	-999	2	[0, 0, 0]	n/a	catFR1	3	R1658S
274.305	0.0	333852	DISTRACT_START	n/a	n/a	n/a	n/a	-999	2	[0, 0, 0]	n/a	catFR1	3	R1658S
274.305	11.26	333855	START	n/a	n/a	n/a	n/a	-999	2	[-999, -999, -999]	n/a	catFR1	3	R1658S
285.565	5.941	345115	PROB	5.941	n/a	n/a	n/a	-999	2	[6, 8, 8]	22	catFR1	3	R1658S
291.506	6.468	351056	PROB	6.468	n/a	n/a	n/a	-999	2	[1, 4, 4]	9	catFR1	3	R1658S
297.974	0.0	357524	STOP	n/a	n/a	n/a	n/a	-999	2	[-999, -999, -999]	n/a	catFR1	3	R1658S
297.974	2.165	357525	DISTRACT_END	n/a	n/a	n/a	n/a	-999	2	[0, 0, 0]	n/a	catFR1	3	R1658S
300.139	0.618	359689	REC_START	n/a	n/a	n/a	n/a	-999	2	[0, 0, 0]	n/a	catFR1	3	R1658S
300.757	10.857	360308	REC_WORD	10.857	n/a	SCREWDRIVER	Tools	7	2	[0, 0, 0]	n/a	catFR1	3	R1658S
311.614	18.678	371165	REC_WORD	18.678	n/a	CROW	n/a	-999	2	[0, 0, 0]	n/a	catFR1	3	R1658S
330.292	2.896	389844	REC_END	n/a	n/a	n/a	n/a	-999	2	[0, 0, 0]	n/a	catFR1	3	R1658S
333.188	10.334	392741	COUNTDOWN_START	n/a	n/a	n/a	n/a	-999	2	[0, 0, 0]	n/a	catFR1	3	R1658S
343.522	0.0	403067	COUNTDOWN_END	n/a	n/a	n/a	n/a	-999	2	[0, 0, 0]	n/a	catFR1	3	R1658S
343.522	2.15	403078	ENCODING_START	n/a	n/a	n/a	n/a	-999	3	[0, 0, 0]	n/a	catFR1	3	R1658S
345.672	1.601	405220	WORD	n/a	wordpools/wordpool_categorized_EN.txt	CHEESECAKE	Desserts	1	3	[0, 0, 0]	n/a	catFR1	3	R1658S
347.273	0.806	406821	WORD_OFF	n/a	n/a	CHEESECAKE	Desserts	1	3	[0, 0, 0]	n/a	catFR1	3	R1658S
348.079	1.61	407632	WORD	n/a	wordpools/wordpool_categorized_EN.txt	COBBLER	Desserts	2	3	[0, 0, 0]	n/a	catFR1	3	R1658S
349.689	0.791	409233	WORD_OFF	n/a	n/a	COBBLER	Desserts	2	3	[0, 0, 0]	n/a	catFR1	3	R1658S
350.48	1.601	410033	WORD	n/a	wordpools/wordpool_categorized_EN.txt	BANANA	Fruit	3	3	[0, 0, 0]	n/a	catFR1	3	R1658S
352.081	0.958	411634	WORD_OFF	n/a	n/a	BANANA	Fruit	3	3	[0, 0, 0]	n/a	catFR1	3	R1658S
353.039	1.607	412592	WORD	n/a	wordpools/wordpool_categorized_EN.txt	PLUM	Fruit	4	3	[0, 0, 0]	n/a	catFR1	3	R1658S
354.646	0.809	414193	WORD_OFF	n/a	n/a	PLUM	Fruit	4	3	[0, 0, 0]	n/a	catFR1	3	R1658S
355.455	1.609	415005	WORD	n/a	wordpools/wordpool_categorized_EN.txt	ANT	Insects	5	3	[0, 0, 0]	n/a	catFR1	3	R1658S
357.064	0.915	416617	WORD_OFF	n/a	n/a	ANT	Insects	5	3	[0, 0, 0]	n/a	catFR1	3	R1658S
357.979	1.601	417530	WORD	n/a	wordpools/wordpool_categorized_EN.txt	ROACH	Insects	6	3	[0, 0, 0]	n/a	catFR1	3	R1658S
359.58	0.834	419131	WORD_OFF	n/a	n/a	ROACH	Insects	6	3	[0, 0, 0]	n/a	catFR1	3	R1658S
360.414	1.599	419965	WORD	n/a	wordpools/wordpool_categorized_EN.txt	CUPCAKE	Desserts	7	3	[0, 0, 0]	n/a	catFR1	3	R1658S
362.013	0.849	421565	WORD_OFF	n/a	n/a	CUPCAKE	Desserts	7	3	[0, 0, 0]	n/a	catFR1	3	R1658S
362.862	1.602	422411	WORD	n/a	wordpools/wordpool_categorized_EN.txt	BROWNIES	Desserts	8	3	[0, 0, 0]	n/a	catFR1	3	R1658S
364.464	0.982	424012	WORD_OFF	n/a	n/a	BROWNIES	Desserts	8	3	[0, 0, 0]	n/a	catFR1	3	R1658S
365.446	1.61	424992	WORD	n/a	wordpools/wordpool_categorized_EN.txt	LIME	Fruit	9	3	[0, 0, 0]	n/a	catFR1	3	R1658S
367.056	0.798	426604	WORD_OFF	n/a	n/a	LIME	Fruit	9	3	[0, 0, 0]	n/a	catFR1	3	R1658S
367.854	1.6	427405	WORD	n/a	wordpools/wordpool_categorized_EN.txt	ORANGE	Fruit	10	3	[0, 0, 0]	n/a	catFR1	3	R1658S
369.454	0.783	429005	WORD_OFF	n/a	n/a	ORANGE	Fruit	10	3	[0, 0, 0]	n/a	catFR1	3	R1658S
370.237	1.609	429783	WORD	n/a	wordpools/wordpool_categorized_EN.txt	SPIDER	Insects	11	3	[0, 0, 0]	n/a	catFR1	3	R1658S
371.846	0.859	431395	WORD_OFF	n/a	n/a	SPIDER	Insects	11	3	[0, 0, 0]	n/a	catFR1	3	R1658S
372.705	1.609	432252	WORD	n/a	wordpools/wordpool_categorized_EN.txt	GNAT	Insects	12	3	[0, 0, 0]	n/a	catFR1	3	R1658S
374.314	0.0	433864	WORD_OFF	n/a	n/a	GNAT	Insects	12	3	[0, 0, 0]	n/a	catFR1	3	R1658S
374.313	0.005	433865	PROB	0.005	n/a	n/a	n/a	-999	3	[7, 2, 1]	10	catFR1	3	R1658S
374.318	0.0	433870	START	n/a	n/a	n/a	n/a	-999	3	[-999, -999, -999]	n/a	catFR1	3	R1658S
374.318	0.0	433875	ENCODING_END	n/a	n/a	n/a	n/a	-999	3	[0, 0, 0]	n/a	catFR1	3	R1658S
374.318	8.861	433875	DISTRACT_START	n/a	n/a	n/a	n/a	-999	3	[0, 0, 0]	n/a	catFR1	3	R1658S
383.179	16.991	442731	PROB	16.991	n/a	n/a	n/a	-999	3	[2, 8, 8]	18	catFR1	3	R1658S
400.17	0.0	459722	STOP	n/a	n/a	n/a	n/a	-999	3	[-999, -999, -999]	n/a	catFR1	3	R1658S
400.17	2.284	459724	DISTRACT_END	n/a	n/a	n/a	n/a	-999	3	[0, 0, 0]	n/a	catFR1	3	R1658S
402.454	2.224	462001	REC_START	n/a	n/a	n/a	n/a	-999	3	[0, 0, 0]	n/a	catFR1	3	R1658S
404.678	2.699	464231	REC_WORD	2.699	n/a	CHEESECAKE	Desserts	1	3	[0, 0, 0]	n/a	catFR1	3	R1658S
407.377	6.277	466930	REC_WORD	6.277	n/a	CAKE	n/a	-999	3	[0, 0, 0]	n/a	catFR1	3	R1658S
413.654	2.43	473207	REC_WORD	2.43	n/a	PIE	n/a	-999	3	[0, 0, 0]	n/a	catFR1	3	R1658S
416.084	16.523	475637	REC_WORD	16.523	n/a	APPLE	n/a	-999	3	[0, 0, 0]	n/a	catFR1	3	R1658S
432.607	2.537	492155	REC_END	n/a	n/a	n/a	n/a	-999	3	[0, 0, 0]	n/a	catFR1	3	R1658S
435.144	10.334	494692	COUNTDOWN_START	n/a	n/a	n/a	n/a	-999	3	[0, 0, 0]	n/a	catFR1	3	R1658S
445.478	0.0	505029	COUNTDOWN_END	n/a	n/a	n/a	n/a	-999	3	[0, 0, 0]	n/a	catFR1	3	R1658S
445.478	1.992	505029	ENCODING_START	n/a	n/a	n/a	n/a	-999	4	[0, 0, 0]	n/a	catFR1	3	R1658S
447.47	1.601	507024	WORD	n/a	wordpools/wordpool_categorized_EN.txt	ORANGUTAN	Zoo	1	4	[0, 0, 0]	n/a	catFR1	3	R1658S
449.071	0.882	508625	WORD_OFF	n/a	n/a	ORANGUTAN	Zoo	1	4	[0, 0, 0]	n/a	catFR1	3	R1658S
449.953	1.618	509504	WORD	n/a	wordpools/wordpool_categorized_EN.txt	MONKEY	Zoo	2	4	[0, 0, 0]	n/a	catFR1	3	R1658S
451.571	0.94	511127	WORD_OFF	n/a	n/a	MONKEY	Zoo	2	4	[0, 0, 0]	n/a	catFR1	3	R1658S
452.511	1.601	512063	WORD	n/a	wordpools/wordpool_categorized_EN.txt	LEATHER	Fabric	3	4	[0, 0, 0]	n/a	catFR1	3	R1658S
454.112	0.775	513664	WORD_OFF	n/a	n/a	LEATHER	Fabric	3	4	[0, 0, 0]	n/a	catFR1	3	R1658S
454.887	1.608	514441	WORD	n/a	wordpools/wordpool_categorized_EN.txt	COTTON	Fabric	4	4	[0, 0, 0]	n/a	catFR1	3	R1658S
456.495	0.967	516042	WORD_OFF	n/a	n/a	COTTON	Fabric	4	4	[0, 0, 0]	n/a	catFR1	3	R1658S
457.462	1.608	517012	WORD	n/a	wordpools/wordpool_categorized_EN.txt	HORSE	FarmAnimals	5	4	[0, 0, 0]	n/a	catFR1	3	R1658S
459.07	0.782	518624	WORD_OFF	n/a	n/a	HORSE	FarmAnimals	5	4	[0, 0, 0]	n/a	catFR1	3	R1658S
459.852	1.601	519401	WORD	n/a	wordpools/wordpool_categorized_EN.txt	CALF	FarmAnimals	6	4	[0, 0, 0]	n/a	catFR1	3	R1658S
461.453	0.949	521013	WORD_OFF	n/a	n/a	CALF	FarmAnimals	6	4	[0, 0, 0]	n/a	catFR1	3	R1658S
462.402	1.601	521949	WORD	n/a	wordpools/wordpool_categorized_EN.txt	GIRAFFE	Zoo	7	4	[0, 0, 0]	n/a	catFR1	3	R1658S
464.003	0.999	523561	WORD_OFF	n/a	n/a	GIRAFFE	Zoo	7	4	[0, 0, 0]	n/a	catFR1	3	R1658S
465.002	1.601	524553	WORD	n/a	wordpools/wordpool_categorized_EN.txt	ZEBRA	Zoo	8	4	[0, 0, 0]	n/a	catFR1	3	R1658S
466.603	0.966	526154	WORD_OFF	n/a	n/a	ZEBRA	Zoo	8	4	[0, 0, 0]	n/a	catFR1	3	R1658S
467.569	1.61	527123	WORD	n/a	wordpools/wordpool_categorized_EN.txt	COW	FarmAnimals	9	4	[0, 0, 0]	n/a	catFR1	3	R1658S
469.179	0.816	528735	WORD_OFF	n/a	n/a	COW	FarmAnimals	9	4	[0, 0, 0]	n/a	catFR1	3	R1658S
469.995	1.608	529547	WORD	n/a	wordpools/wordpool_categorized_EN.txt	TURKEY	FarmAnimals	10	4	[0, 0, 0]	n/a	catFR1	3	R1658S
471.603	0.843	531159	WORD_OFF	n/a	n/a	TURKEY	FarmAnimals	10	4	[0, 0, 0]	n/a	catFR1	3	R1658S
472.446	1.607	532004	WORD	n/a	wordpools/wordpool_categorized_EN.txt	WOOL	Fabric	11	4	[0, 0, 0]	n/a	catFR1	3	R1658S
474.053	0.999	533605	WORD_OFF	n/a	n/a	WOOL	Fabric	11	4	[0, 0, 0]	n/a	catFR1	3	R1658S
475.052	1.608	534608	WORD	n/a	wordpools/wordpool_categorized_EN.txt	NYLON	Fabric	12	4	[0, 0, 0]	n/a	catFR1	3	R1658S
476.66	0.001	536209	WORD_OFF	n/a	n/a	NYLON	Fabric	12	4	[0, 0, 0]	n/a	catFR1	3	R1658S
476.661	0.001	536215	PROB	0.001	n/a	n/a	n/a	-999	4	[6, 5, 5]	16	catFR1	3	R1658S
476.662	0.0	536216	START	n/a	n/a	n/a	n/a	-999	4	[-999, -999, -999]	n/a	catFR1	3	R1658S
476.662	0.0	536220	ENCODING_END	n/a	n/a	n/a	n/a	-999	4	[0, 0, 0]	n/a	catFR1	3	R1658S
476.662	8.358	536220	DISTRACT_START	n/a	n/a	n/a	n/a	-999	4	[0, 0, 0]	n/a	catFR1	3	R1658S
485.02	5.658	544574	PROB	5.658	n/a	n/a	n/a	-999	4	[4, 1, 5]	10	catFR1	3	R1658S
490.678	12.948	550232	PROB	12.948	n/a	n/a	n/a	-999	4	[1, 4, 7]	13	catFR1	3	R1658S
503.626	0.0	563180	STOP	n/a	n/a	n/a	n/a	-999	4	[-999, -999, -999]	n/a	catFR1	3	R1658S
503.626	2.292	563185	DISTRACT_END	n/a	n/a	n/a	n/a	-999	4	[0, 0, 0]	n/a	catFR1	3	R1658S
505.918	0.0	565472	REC_WORD	0.0	n/a	ORANGUTAN	Zoo	1	4	[0, 0, 0]	n/a	catFR1	3	R1658S
505.918	1.855	565473	REC_START	n/a	n/a	n/a	n/a	-999	4	[0, 0, 0]	n/a	catFR1	3	R1658S
507.773	9.484	567327	REC_WORD	9.484	n/a	MONKEY	Zoo	2	4	[0, 0, 0]	n/a	catFR1	3	R1658S
517.257	4.135	576812	REC_WORD	4.135	n/a	SCREWDRIVER	Tools	-999	4	[0, 0, 0]	n/a	catFR1	3	R1658S
521.392	4.465	580947	REC_WORD	4.465	n/a	PEAR	n/a	-999	4	[0, 0, 0]	n/a	catFR1	3	R1658S
525.857	7.307	585412	REC_WORD	7.307	n/a	GIRAFFE	Zoo	7	4	[0, 0, 0]	n/a	catFR1	3	R1658S
533.164	2.907	592719	REC_WORD	2.907	n/a	ELEPHANT	n/a	-999	4	[0, 0, 0]	n/a	catFR1	3	R1658S
536.071	2.646	595627	REC_END	n/a	n/a	n/a	n/a	-999	4	[0, 0, 0]	n/a	catFR1	3	R1658S
538.717	10.351	598277	COUNTDOWN_START	n/a	n/a	n/a	n/a	-999	4	[0, 0, 0]	n/a	catFR1	3	R1658S
549.068	0.0	608625	COUNTDOWN_END	n/a	n/a	n/a	n/a	-999	4	[0, 0, 0]	n/a	catFR1	3	R1658S
549.068	2.25	608625	ENCODING_START	n/a	n/a	n/a	n/a	-999	5	[0, 0, 0]	n/a	catFR1	3	R1658S
551.318	1.6	610868	WORD	n/a	wordpools/wordpool_categorized_EN.txt	BINDER	OfficeSupplies	1	5	[0, 0, 0]	n/a	catFR1	3	R1658S
552.918	0.817	612469	WORD_OFF	n/a	n/a	BINDER	OfficeSupplies	1	5	[0, 0, 0]	n/a	catFR1	3	R1658S
553.735	1.607	613292	WORD	n/a	wordpools/wordpool_categorized_EN.txt	STAPLER	OfficeSupplies	2	5	[0, 0, 0]	n/a	catFR1	3	R1658S
555.342	0.884	614893	WORD_OFF	n/a	n/a	STAPLER	OfficeSupplies	2	5	[0, 0, 0]	n/a	catFR1	3	R1658S
556.226	1.609	615783	WORD	n/a	wordpools/wordpool_categorized_EN.txt	SUNFLOWER	Flowers	3	5	[0, 0, 0]	n/a	catFR1	3	R1658S
557.835	0.857	617395	WORD_OFF	n/a	n/a	SUNFLOWER	Flowers	3	5	[0, 0, 0]	n/a	catFR1	3	R1658S
558.692	1.602	618241	WORD	n/a	wordpools/wordpool_categorized_EN.txt	ORCHID	Flowers	4	5	[0, 0, 0]	n/a	catFR1	3	R1658S
560.294	0.814	619853	WORD_OFF	n/a	n/a	ORCHID	Flowers	4	5	[0, 0, 0]	n/a	catFR1	3	R1658S
561.108	1.609	620664	WORD	n/a	wordpools/wordpool_categorized_EN.txt	OAK	Trees	5	5	[0, 0, 0]	n/a	catFR1	3	R1658S
562.717	0.784	622276	WORD_OFF	n/a	n/a	OAK	Trees	5	5	[0, 0, 0]	n/a	catFR1	3	R1658S
563.501	1.608	623054	WORD	n/a	wordpools/wordpool_categorized_EN.txt	WILLOW	Trees	6	5	[0, 0, 0]	n/a	catFR1	3	R1658S
565.109	0.934	624666	WORD_OFF	n/a	n/a	WILLOW	Trees	6	5	[0, 0, 0]	n/a	catFR1	3	R1658S
566.043	1.61	625602	WORD	n/a	wordpools/wordpool_categorized_EN.txt	DAFFODIL	Flowers	7	5	[0, 0, 0]	n/a	catFR1	3	R1658S
567.653	0.807	627214	WORD_OFF	n/a	n/a	DAFFODIL	Flowers	7	5	[0, 0, 0]	n/a	catFR1	3	R1658S
568.46	1.599	628014	WORD	n/a	wordpools/wordpool_categorized_EN.txt	ROSE	Flowers	8	5	[0, 0, 0]	n/a	catFR1	3	R1658S
570.059	0.85	629615	WORD_OFF	n/a	n/a	ROSE	Flowers	8	5	[0, 0, 0]	n/a	catFR1	3	R1658S
570.909	1.6	630460	WORD	n/a	wordpools/wordpool_categorized_EN.txt	MAPLE	Trees	9	5	[0, 0, 0]	n/a	catFR1	3	R1658S
572.509	0.942	632061	WORD_OFF	n/a	n/a	MAPLE	Trees	9	5	[0, 0, 0]	n/a	catFR1	3	R1658S
573.451	1.6	633008	WORD	n/a	wordpools/wordpool_categorized_EN.txt	ELM	Trees	10	5	[0, 0, 0]	n/a	catFR1	3	R1658S
575.051	0.824	634609	WORD_OFF	n/a	n/a	ELM	Trees	10	5	[0, 0, 0]	n/a	catFR1	3	R1658S
575.875	1.6	635431	WORD	n/a	wordpools/wordpool_categorized_EN.txt	ERASER	OfficeSupplies	11	5	[0, 0, 0]	n/a	catFR1	3	R1658S
577.475	0.825	637032	WORD_OFF	n/a	n/a	ERASER	OfficeSupplies	11	5	[0, 0, 0]	n/a	catFR1	3	R1658S
578.3	1.601	637855	WORD	n/a	wordpools/wordpool_categorized_EN.txt	PEN	OfficeSupplies	12	5	[0, 0, 0]	n/a	catFR1	3	R1658S
579.901	0.003	639456	WORD_OFF	n/a	n/a	PEN	OfficeSupplies	12	5	[0, 0, 0]	n/a	catFR1	3	R1658S
579.904	0.0	639456	ENCODING_END	n/a	n/a	n/a	n/a	-999	5	[0, 0, 0]	n/a	catFR1	3	R1658S
579.904	0.0	639456	DISTRACT_START	n/a	n/a	n/a	n/a	-999	5	[0, 0, 0]	n/a	catFR1	3	R1658S
579.901	0.003	639457	PROB	0.003	n/a	n/a	n/a	-999	5	[1, 5, 6]	12	catFR1	3	R1658S
579.904	5.165	639460	START	n/a	n/a	n/a	n/a	-999	5	[-999, -999, -999]	n/a	catFR1	3	R1658S
585.069	5.14	644625	PROB	5.14	n/a	n/a	n/a	-999	5	[4, 7, 7]	18	catFR1	3	R1658S
590.209	33.124	649765	PROB	33.124	n/a	n/a	n/a	-999	5	[4, 7, 5]	16	catFR1	3	R1658S
623.333	0.0	682890	DISTRACT_END	n/a	n/a	n/a	n/a	-999	5	[0, 0, 0]	n/a	catFR1	3	R1658S
623.333	2.267	682890	STOP	n/a	n/a	n/a	n/a	-999	5	[-999, -999, -999]	n/a	catFR1	3	R1658S
625.6	0.305	685155	REC_START	n/a	n/a	n/a	n/a	-999	5	[0, 0, 0]	n/a	catFR1	3	R1658S
625.905	1.43	685462	REC_WORD	1.43	n/a	BINDER	OfficeSupplies	1	5	[0, 0, 0]	n/a	catFR1	3	R1658S
627.335	1.35	686892	REC_WORD	1.35	n/a	PEN	OfficeSupplies	12	5	[0, 0, 0]	n/a	catFR1	3	R1658S
628.685	2.086	688242	REC_WORD	2.086	n/a	MARKER	n/a	-999	5	[0, 0, 0]	n/a	catFR1	3	R1658S
630.771	2.734	690328	REC_WORD	2.734	n/a	SUNFLOWER	Flowers	3	5	[0, 0, 0]	n/a	catFR1	3	R1658S
633.505	6.27	693062	REC_WORD	6.27	n/a	DAFFODIL	Flowers	7	5	[0, 0, 0]	n/a	catFR1	3	R1658S
639.775	10.463	699332	REC_WORD	10.463	n/a	PAPER	n/a	-999	5	[0, 0, 0]	n/a	catFR1	3	R1658S
650.238	5.512	709795	REC_WORD	5.512	n/a	ORCHID	Flowers	4	5	[0, 0, 0]	n/a	catFR1	3	R1658S
655.75	3.499	715310	REC_END	n/a	n/a	n/a	n/a	-999	5	[0, 0, 0]	n/a	catFR1	3	R1658S
659.249	10.341	718804	COUNTDOWN_START	n/a	n/a	n/a	n/a	-999	5	[0, 0, 0]	n/a	catFR1	3	R1658S
669.59	0.001	729153	COUNTDOWN_END	n/a	n/a	n/a	n/a	-999	5	[0, 0, 0]	n/a	catFR1	3	R1658S
669.591	2.0	729153	ENCODING_START	n/a	n/a	n/a	n/a	-999	6	[0, 0, 0]	n/a	catFR1	3	R1658S
671.591	1.608	731148	WORD	n/a	wordpools/wordpool_categorized_EN.txt	VIOLET	Flowers	1	6	[0, 0, 0]	n/a	catFR1	3	R1658S
673.199	0.932	732760	WORD_OFF	n/a	n/a	VIOLET	Flowers	1	6	[0, 0, 0]	n/a	catFR1	3	R1658S
674.131	1.602	733684	WORD	n/a	wordpools/wordpool_categorized_EN.txt	TULIP	Flowers	2	6	[0, 0, 0]	n/a	catFR1	3	R1658S
675.733	0.833	735285	WORD_OFF	n/a	n/a	TULIP	Flowers	2	6	[0, 0, 0]	n/a	catFR1	3	R1658S
676.566	1.6	736131	WORD	n/a	wordpools/wordpool_categorized_EN.txt	RUM	Beverages	3	6	[0, 0, 0]	n/a	catFR1	3	R1658S
678.166	0.983	737720	WORD_OFF	n/a	n/a	RUM	Beverages	3	6	[0, 0, 0]	n/a	catFR1	3	R1658S
679.149	1.602	738701	WORD	n/a	wordpools/wordpool_categorized_EN.txt	TEA	Beverages	4	6	[0, 0, 0]	n/a	catFR1	3	R1658S
680.751	0.915	740313	WORD_OFF	n/a	n/a	TEA	Beverages	4	6	[0, 0, 0]	n/a	catFR1	3	R1658S
681.666	1.6	741226	WORD	n/a	wordpools/wordpool_categorized_EN.txt	CRICKET	Insects	5	6	[0, 0, 0]	n/a	catFR1	3	R1658S
683.266	0.792	742827	WORD_OFF	n/a	n/a	CRICKET	Insects	5	6	[0, 0, 0]	n/a	catFR1	3	R1658S
684.058	1.609	743616	WORD	n/a	wordpools/wordpool_categorized_EN.txt	FLY	Insects	6	6	[0, 0, 0]	n/a	catFR1	3	R1658S
685.667	0.906	745228	WORD_OFF	n/a	n/a	FLY	Insects	6	6	[0, 0, 0]	n/a	catFR1	3	R1658S
686.573	1.607	746130	WORD	n/a	wordpools/wordpool_categorized_EN.txt	JUICE	Beverages	7	6	[0, 0, 0]	n/a	catFR1	3	R1658S
688.18	0.993	747742	WORD_OFF	n/a	n/a	JUICE	Beverages	7	6	[0, 0, 0]	n/a	catFR1	3	R1658S
689.173	1.609	748734	WORD	n/a	wordpools/wordpool_categorized_EN.txt	LEMONADE	Beverages	8	6	[0, 0, 0]	n/a	catFR1	3	R1658S
690.782	0.834	750346	WORD_OFF	n/a	n/a	LEMONADE	Beverages	8	6	[0, 0, 0]	n/a	catFR1	3	R1658S
691.616	1.607	751168	WORD	n/a	wordpools/wordpool_categorized_EN.txt	LADYBUG	Insects	9	6	[0, 0, 0]	n/a	catFR1	3	R1658S
693.223	0.951	752780	WORD_OFF	n/a	n/a	LADYBUG	Insects	9	6	[0, 0, 0]	n/a	catFR1	3	R1658S
694.174	1.607	753727	WORD	n/a	wordpools/wordpool_categorized_EN.txt	BEETLE	Insects	10	6	[0, 0, 0]	n/a	catFR1	3	R1658S
695.781	0.977	755339	WORD_OFF	n/a	n/a	BEETLE	Insects	10	6	[0, 0, 0]	n/a	catFR1	3	R1658S
696.758	1.607	756320	WORD	n/a	wordpools/wordpool_categorized_EN.txt	LILY	Flowers	11	6	[0, 0, 0]	n/a	catFR1	3	R1658S
698.365	0.826	757921	WORD_OFF	n/a	n/a	LILY	Flowers	11	6	[0, 0, 0]	n/a	catFR1	3	R1658S
699.191	1.606	758744	WORD	n/a	wordpools/wordpool_categorized_EN.txt	MARIGOLD	Flowers	12	6	[0, 0, 0]	n/a	catFR1	3	R1658S
700.797	0.002	760356	WORD_OFF	n/a	n/a	MARIGOLD	Flowers	12	6	[0, 0, 0]	n/a	catFR1	3	R1658S
700.799	0.0	760356	ENCODING_END	n/a	n/a	n/a	n/a	-999	6	[0, 0, 0]	n/a	catFR1	3	R1658S
700.799	0.0	760356	DISTRACT_START	n/a	n/a	n/a	n/a	-999	6	[0, 0, 0]	n/a	catFR1	3	R1658S
700.798	0.001	760356	PROB	0.001	n/a	n/a	n/a	-999	6	[2, 7, 4]	13	catFR1	3	R1658S
700.799	11.724	760357	START	n/a	n/a	n/a	n/a	-999	6	[-999, -999, -999]	n/a	catFR1	3	R1658S
712.523	11.268	772081	PROB	11.268	n/a	n/a	n/a	-999	6	[5, 5, 5]	15	catFR1	3	R1658S
723.791	0.0	783350	STOP	n/a	n/a	n/a	n/a	-999	6	[-999, -999, -999]	n/a	catFR1	3	R1658S
723.791	2.332	783352	DISTRACT_END	n/a	n/a	n/a	n/a	-999	6	[0, 0, 0]	n/a	catFR1	3	R1658S
726.123	0.0	785682	REC_WORD_VV	0.0	n/a	<>	n/a	-999	6	[0, 0, 0]	n/a	catFR1	3	R1658S
726.123	1.0	785685	REC_START	n/a	n/a	n/a	n/a	-999	6	[0, 0, 0]	n/a	catFR1	3	R1658S
727.123	29.152	786682	REC_WORD_VV	29.152	n/a	<>	n/a	-999	6	[0, 0, 0]	n/a	catFR1	3	R1658S
756.275	2.821	815829	REC_END	n/a	n/a	n/a	n/a	-999	6	[0, 0, 0]	n/a	catFR1	3	R1658S
759.096	10.342	818658	COUNTDOWN_START	n/a	n/a	n/a	n/a	-999	6	[0, 0, 0]	n/a	catFR1	3	R1658S
769.438	0.001	828995	COUNTDOWN_END	n/a	n/a	n/a	n/a	-999	6	[0, 0, 0]	n/a	catFR1	3	R1658S
769.439	2.133	828995	ENCODING_START	n/a	n/a	n/a	n/a	-999	7	[0, 0, 0]	n/a	catFR1	3	R1658S
771.572	1.617	831126	WORD	n/a	wordpools/wordpool_categorized_EN.txt	PHONE	Electronics	1	7	[0, 0, 0]	n/a	catFR1	3	R1658S
773.189	0.809	832749	WORD_OFF	n/a	n/a	PHONE	Electronics	1	7	[0, 0, 0]	n/a	catFR1	3	R1658S
773.998	1.608	833561	WORD	n/a	wordpools/wordpool_categorized_EN.txt	PRINTER	Electronics	2	7	[0, 0, 0]	n/a	catFR1	3	R1658S
775.606	0.782	835161	WORD_OFF	n/a	n/a	PRINTER	Electronics	2	7	[0, 0, 0]	n/a	catFR1	3	R1658S
776.388	1.6	835951	WORD	n/a	wordpools/wordpool_categorized_EN.txt	STRAWBERRY	Fruit	3	7	[0, 0, 0]	n/a	catFR1	3	R1658S
777.988	0.8	837551	WORD_OFF	n/a	n/a	STRAWBERRY	Fruit	3	7	[0, 0, 0]	n/a	catFR1	3	R1658S
778.788	1.601	838352	WORD	n/a	wordpools/wordpool_categorized_EN.txt	LEMON	Fruit	4	7	[0, 0, 0]	n/a	catFR1	3	R1658S
780.389	0.991	839952	WORD_OFF	n/a	n/a	LEMON	Fruit	4	7	[0, 0, 0]	n/a	catFR1	3	R1658S
781.38	1.601	840944	WORD	n/a	wordpools/wordpool_categorized_EN.txt	TORNADO	Weather	5	7	[0, 0, 0]	n/a	catFR1	3	R1658S
782.981	0.817	842545	WORD_OFF	n/a	n/a	TORNADO	Weather	5	7	[0, 0, 0]	n/a	catFR1	3	R1658S
783.798	1.606	843357	WORD	n/a	wordpools/wordpool_categorized_EN.txt	HURRICANE	Weather	6	7	[0, 0, 0]	n/a	catFR1	3	R1658S
785.404	0.794	844957	WORD_OFF	n/a	n/a	HURRICANE	Weather	6	7	[0, 0, 0]	n/a	catFR1	3	R1658S
786.198	1.609	845758	WORD	n/a	wordpools/wordpool_categorized_EN.txt	STEREO	Electronics	7	7	[0, 0, 0]	n/a	catFR1	3	R1658S
787.807	0.806	847370	WORD_OFF	n/a	n/a	STEREO	Electronics	7	7	[0, 0, 0]	n/a	catFR1	3	R1658S
788.613	1.601	848170	WORD	n/a	wordpools/wordpool_categorized_EN.txt	COMPUTER	Electronics	8	7	[0, 0, 0]	n/a	catFR1	3	R1658S
790.214	0.832	849771	WORD_OFF	n/a	n/a	COMPUTER	Electronics	8	7	[0, 0, 0]	n/a	catFR1	3	R1658S
791.046	1.603	850605	WORD	n/a	wordpools/wordpool_categorized_EN.txt	PEAR	Fruit	9	7	[0, 0, 0]	n/a	catFR1	3	R1658S
792.649	0.838	852206	WORD_OFF	n/a	n/a	PEAR	Fruit	9	7	[0, 0, 0]	n/a	catFR1	3	R1658S
793.487	1.61	853040	WORD	n/a	wordpools/wordpool_categorized_EN.txt	BLUEBERRY	Fruit	10	7	[0, 0, 0]	n/a	catFR1	3	R1658S
795.097	0.799	854652	WORD_OFF	n/a	n/a	BLUEBERRY	Fruit	10	7	[0, 0, 0]	n/a	catFR1	3	R1658S
795.896	1.599	855452	WORD	n/a	wordpools/wordpool_categorized_EN.txt	CLOUD	Weather	11	7	[0, 0, 0]	n/a	catFR1	3	R1658S
797.495	0.792	857053	WORD_OFF	n/a	n/a	CLOUD	Weather	11	7	[0, 0, 0]	n/a	catFR1	3	R1658S
798.287	1.6	857842	WORD	n/a	wordpools/wordpool_categorized_EN.txt	LIGHTNING	Weather	12	7	[0, 0, 0]	n/a	catFR1	3	R1658S
799.887	0.002	859443	WORD_OFF	n/a	n/a	LIGHTNING	Weather	12	7	[0, 0, 0]	n/a	catFR1	3	R1658S
799.889	0.0	859443	ENCODING_END	n/a	n/a	n/a	n/a	-999	7	[0, 0, 0]	n/a	catFR1	3	R1658S
799.887	0.002	859447	PROB	0.002	n/a	n/a	n/a	-999	7	[5, 6, 1]	12	catFR1	3	R1658S
799.889	0.0	859449	START	n/a	n/a	n/a	n/a	-999	7	[-999, -999, -999]	n/a	catFR1	3	R1658S
799.889	5.815	859454	DISTRACT_START	n/a	n/a	n/a	n/a	-999	7	[0, 0, 0]	n/a	catFR1	3	R1658S
805.704	6.534	865264	PROB	6.534	n/a	n/a	n/a	-999	7	[7, 1, 4]	12	catFR1	3	R1658S
812.238	22.041	871798	PROB	22.041	n/a	n/a	n/a	-999	7	[8, 1, 7]	16	catFR1	3	R1658S
834.279	0.0	893836	DISTRACT_END	n/a	n/a	n/a	n/a	-999	7	[0, 0, 0]	n/a	catFR1	3	R1658S
834.279	2.192	893840	STOP	n/a	n/a	n/a	n/a	-999	7	[-999, -999, -999]	n/a	catFR1	3	R1658S
836.471	0.712	896034	REC_START	n/a	n/a	n/a	n/a	-999	7	[0, 0, 0]	n/a	catFR1	3	R1658S
837.183	8.196	896744	REC_WORD	8.196	n/a	CLOUD	Weather	11	7	[0, 0, 0]	n/a	catFR1	3	R1658S
845.379	8.711	904940	REC_WORD	8.711	n/a	HURRICANE	Weather	6	7	[0, 0, 0]	n/a	catFR1	3	R1658S
854.09	12.536	913651	REC_WORD_VV	12.536	n/a	<>	n/a	-999	7	[0, 0, 0]	n/a	catFR1	3	R1658S
866.626	3.685	926189	REC_END	n/a	n/a	n/a	n/a	-999	7	[0, 0, 0]	n/a	catFR1	3	R1658S
870.311	10.35	929875	COUNTDOWN_START	n/a	n/a	n/a	n/a	-999	7	[0, 0, 0]	n/a	catFR1	3	R1658S
880.661	0.0	940223	COUNTDOWN_END	n/a	n/a	n/a	n/a	-999	7	[0, 0, 0]	n/a	catFR1	3	R1658S
880.661	2.292	940223	ENCODING_START	n/a	n/a	n/a	n/a	-999	8	[0, 0, 0]	n/a	catFR1	3	R1658S
882.953	1.6	942512	WORD	n/a	wordpools/wordpool_categorized_EN.txt	CHICKEN	FarmAnimals	1	8	[0, 0, 0]	n/a	catFR1	3	R1658S
884.553	0.99	944112	WORD_OFF	n/a	n/a	CHICKEN	FarmAnimals	1	8	[0, 0, 0]	n/a	catFR1	3	R1658S
885.543	1.601	945104	WORD	n/a	wordpools/wordpool_categorized_EN.txt	ROOSTER	FarmAnimals	2	8	[0, 0, 0]	n/a	catFR1	3	R1658S
887.144	0.984	946705	WORD_OFF	n/a	n/a	ROOSTER	FarmAnimals	2	8	[0, 0, 0]	n/a	catFR1	3	R1658S
888.128	1.611	947686	WORD	n/a	wordpools/wordpool_categorized_EN.txt	THUNDERSTORM	Weather	3	8	[0, 0, 0]	n/a	catFR1	3	R1658S
889.739	0.971	949298	WORD_OFF	n/a	n/a	THUNDERSTORM	Weather	3	8	[0, 0, 0]	n/a	catFR1	3	R1658S
890.71	1.619	950267	WORD	n/a	wordpools/wordpool_categorized_EN.txt	DRIZZLE	Weather	4	8	[0, 0, 0]	n/a	catFR1	3	R1658S
892.329	0.815	951890	WORD_OFF	n/a	n/a	DRIZZLE	Weather	4	8	[0, 0, 0]	n/a	catFR1	3	R1658S
893.144	1.599	952702	WORD	n/a	wordpools/wordpool_categorized_EN.txt	PEAS	Vegetables	5	8	[0, 0, 0]	n/a	catFR1	3	R1658S
894.743	0.893	954303	WORD_OFF	n/a	n/a	PEAS	Vegetables	5	8	[0, 0, 0]	n/a	catFR1	3	R1658S
895.636	1.601	955205	WORD	n/a	wordpools/wordpool_categorized_EN.txt	LETTUCE	Vegetables	6	8	[0, 0, 0]	n/a	catFR1	3	R1658S
897.237	0.816	956794	WORD_OFF	n/a	n/a	LETTUCE	Vegetables	6	8	[0, 0, 0]	n/a	catFR1	3	R1658S
898.053	1.599	957617	WORD	n/a	wordpools/wordpool_categorized_EN.txt	SHEEP	FarmAnimals	7	8	[0, 0, 0]	n/a	catFR1	3	R1658S
899.652	0.825	959218	WORD_OFF	n/a	n/a	SHEEP	FarmAnimals	7	8	[0, 0, 0]	n/a	catFR1	3	R1658S
900.477	1.602	960041	WORD	n/a	wordpools/wordpool_categorized_EN.txt	GOAT	FarmAnimals	8	8	[0, 0, 0]	n/a	catFR1	3	R1658S
902.079	0.798	961641	WORD_OFF	n/a	n/a	GOAT	FarmAnimals	8	8	[0, 0, 0]	n/a	catFR1	3	R1658S
902.877	1.603	962442	WORD	n/a	wordpools/wordpool_categorized_EN.txt	SNOW	Weather	9	8	[0, 0, 0]	n/a	catFR1	3	R1658S
904.48	0.875	964042	WORD_OFF	n/a	n/a	SNOW	Weather	9	8	[0, 0, 0]	n/a	catFR1	3	R1658S
905.355	1.607	964910	WORD	n/a	wordpools/wordpool_categorized_EN.txt	THUNDER	Weather	10	8	[0, 0, 0]	n/a	catFR1	3	R1658S
906.962	0.832	966522	WORD_OFF	n/a	n/a	THUNDER	Weather	10	8	[0, 0, 0]	n/a	catFR1	3	R1658S
907.794	1.6	967357	WORD	n/a	wordpools/wordpool_categorized_EN.txt	CORN	Vegetables	11	8	[0, 0, 0]	n/a	catFR1	3	R1658S
909.394	0.851	968957	WORD_OFF	n/a	n/a	CORN	Vegetables	11	8	[0, 0, 0]	n/a	catFR1	3	R1658S
910.245	1.607	969803	WORD	n/a	wordpools/wordpool_categorized_EN.txt	CELERY	Vegetables	12	8	[0, 0, 0]	n/a	catFR1	3	R1658S
911.852	0.003	971415	WORD_OFF	n/a	n/a	CELERY	Vegetables	12	8	[0, 0, 0]	n/a	catFR1	3	R1658S
911.855	0.0	971415	ENCODING_END	n/a	n/a	n/a	n/a	-999	8	[0, 0, 0]	n/a	catFR1	3	R1658S
911.855	0.0	971415	DISTRACT_START	n/a	n/a	n/a	n/a	-999	8	[0, 0, 0]	n/a	catFR1	3	R1658S
911.854	0.001	971416	PROB	0.001	n/a	n/a	n/a	-999	8	[5, 7, 7]	19	catFR1	3	R1658S
911.855	18.389	971417	START	n/a	n/a	n/a	n/a	-999	8	[-999, -999, -999]	n/a	catFR1	3	R1658S
930.244	6.142	989807	PROB	6.142	n/a	n/a	n/a	-999	8	[8, 4, 4]	16	catFR1	3	R1658S
936.386	0.0	995944	DISTRACT_END	n/a	n/a	n/a	n/a	-999	8	[0, 0, 0]	n/a	catFR1	3	R1658S
936.386	2.241	995949	STOP	n/a	n/a	n/a	n/a	-999	8	[-999, -999, -999]	n/a	catFR1	3	R1658S
938.627	0.676	998188	REC_START	n/a	n/a	n/a	n/a	-999	8	[0, 0, 0]	n/a	catFR1	3	R1658S
939.303	1.976	998866	REC_WORD	1.976	n/a	CORN	Vegetables	11	8	[0, 0, 0]	n/a	catFR1	3	R1658S
941.279	3.66	1000842	REC_WORD	3.66	n/a	LETTUCE	Vegetables	6	8	[0, 0, 0]	n/a	catFR1	3	R1658S
944.939	23.833	1004502	REC_WORD	23.833	n/a	PEAS	Vegetables	5	8	[0, 0, 0]	n/a	catFR1	3	R1658S
968.772	2.746	1028331	REC_END	n/a	n/a	n/a	n/a	-999	8	[0, 0, 0]	n/a	catFR1	3	R1658S
971.518	10.341	1031081	COUNTDOWN_START	n/a	n/a	n/a	n/a	-999	8	[0, 0, 0]	n/a	catFR1	3	R1658S
981.859	0.0	1041418	COUNTDOWN_END	n/a	n/a	n/a	n/a	-999	8	[0, 0, 0]	n/a	catFR1	3	R1658S
981.859	1.86	1041418	ENCODING_START	n/a	n/a	n/a	n/a	-999	9	[0, 0, 0]	n/a	catFR1	3	R1658S
983.719	1.607	1043278	WORD	n/a	wordpools/wordpool_categorized_EN.txt	WALL	Building	1	9	[0, 0, 0]	n/a	catFR1	3	R1658S
985.326	0.959	1044890	WORD_OFF	n/a	n/a	WALL	Building	1	9	[0, 0, 0]	n/a	catFR1	3	R1658S
986.285	1.609	1045849	WORD	n/a	wordpools/wordpool_categorized_EN.txt	CEILING	Building	2	9	[0, 0, 0]	n/a	catFR1	3	R1658S
987.894	0.999	1047461	WORD_OFF	n/a	n/a	CEILING	Building	2	9	[0, 0, 0]	n/a	catFR1	3	R1658S
988.893	1.6	1048453	WORD	n/a	wordpools/wordpool_categorized_EN.txt	SUEDE	Fabric	3	9	[0, 0, 0]	n/a	catFR1	3	R1658S
990.493	0.951	1050053	WORD_OFF	n/a	n/a	SUEDE	Fabric	3	9	[0, 0, 0]	n/a	catFR1	3	R1658S
991.444	1.6	1051011	WORD	n/a	wordpools/wordpool_categorized_EN.txt	SATIN	Fabric	4	9	[0, 0, 0]	n/a	catFR1	3	R1658S
993.044	0.808	1052612	WORD_OFF	n/a	n/a	SATIN	Fabric	4	9	[0, 0, 0]	n/a	catFR1	3	R1658S
993.852	1.6	1053413	WORD	n/a	wordpools/wordpool_categorized_EN.txt	LOBSTER	OceanAnimals	5	9	[0, 0, 0]	n/a	catFR1	3	R1658S
995.452	0.924	1055013	WORD_OFF	n/a	n/a	LOBSTER	OceanAnimals	5	9	[0, 0, 0]	n/a	catFR1	3	R1658S
996.376	1.599	1055938	WORD	n/a	wordpools/wordpool_categorized_EN.txt	FISH	OceanAnimals	6	9	[0, 0, 0]	n/a	catFR1	3	R1658S
997.975	0.933	1057538	WORD_OFF	n/a	n/a	FISH	OceanAnimals	6	9	[0, 0, 0]	n/a	catFR1	3	R1658S
998.908	1.601	1058474	WORD	n/a	wordpools/wordpool_categorized_EN.txt	ATTIC	Building	7	9	[0, 0, 0]	n/a	catFR1	3	R1658S
1000.509	0.766	1060075	WORD_OFF	n/a	n/a	ATTIC	Building	7	9	[0, 0, 0]	n/a	catFR1	3	R1658S
1001.275	1.601	1060841	WORD	n/a	wordpools/wordpool_categorized_EN.txt	WINDOW	Building	8	9	[0, 0, 0]	n/a	catFR1	3	R1658S
1002.876	0.983	1062442	WORD_OFF	n/a	n/a	WINDOW	Building	8	9	[0, 0, 0]	n/a	catFR1	3	R1658S
1003.859	1.6	1063423	WORD	n/a	wordpools/wordpool_categorized_EN.txt	VELVET	Fabric	9	9	[0, 0, 0]	n/a	catFR1	3	R1658S
1005.459	0.899	1065023	WORD_OFF	n/a	n/a	VELVET	Fabric	9	9	[0, 0, 0]	n/a	catFR1	3	R1658S
1006.358	1.601	1065925	WORD	n/a	wordpools/wordpool_categorized_EN.txt	SILK	Fabric	10	9	[0, 0, 0]	n/a	catFR1	3	R1658S
1007.959	0.835	1067526	WORD_OFF	n/a	n/a	SILK	Fabric	10	9	[0, 0, 0]	n/a	catFR1	3	R1658S
1008.794	1.607	1068360	WORD	n/a	wordpools/wordpool_categorized_EN.txt	SHRIMP	OceanAnimals	11	9	[0, 0, 0]	n/a	catFR1	3	R1658S
1010.401	0.909	1069961	WORD_OFF	n/a	n/a	SHRIMP	OceanAnimals	11	9	[0, 0, 0]	n/a	catFR1	3	R1658S
1011.31	1.607	1070874	WORD	n/a	wordpools/wordpool_categorized_EN.txt	WHALE	OceanAnimals	12	9	[0, 0, 0]	n/a	catFR1	3	R1658S
1012.917	0.0	1072475	WORD_OFF	n/a	n/a	WHALE	OceanAnimals	12	9	[0, 0, 0]	n/a	catFR1	3	R1658S
1012.916	0.003	1072480	PROB	0.003	n/a	n/a	n/a	-999	9	[5, 5, 1]	11	catFR1	3	R1658S
1012.919	0.0	1072483	START	n/a	n/a	n/a	n/a	-999	9	[-999, -999, -999]	n/a	catFR1	3	R1658S
1012.919	0.0	1072486	ENCODING_END	n/a	n/a	n/a	n/a	-999	9	[0, 0, 0]	n/a	catFR1	3	R1658S
1012.919	4.341	1072486	DISTRACT_START	n/a	n/a	n/a	n/a	-999	9	[0, 0, 0]	n/a	catFR1	3	R1658S
1017.26	8.066	1076824	PROB	8.066	n/a	n/a	n/a	-999	9	[8, 8, 4]	20	catFR1	3	R1658S
1025.326	13.915	1084890	PROB	13.915	n/a	n/a	n/a	-999	9	[5, 6, 8]	19	catFR1	3	R1658S
1039.241	0.0	1098806	STOP	n/a	n/a	n/a	n/a	-999	9	[-999, -999, -999]	n/a	catFR1	3	R1658S
1039.241	2.352	1098808	DISTRACT_END	n/a	n/a	n/a	n/a	-999	9	[0, 0, 0]	n/a	catFR1	3	R1658S
1041.593	30.006	1101153	REC_START	n/a	n/a	n/a	n/a	-999	9	[0, 0, 0]	n/a	catFR1	3	R1658S
1071.599	0.148	1131164	REC_WORD_VV	0.148	n/a	<>	n/a	-999	9	[0, 0, 0]	n/a	catFR1	3	R1658S
1071.747	4.393	1131318	REC_END	n/a	n/a	n/a	n/a	-999	9	[0, 0, 0]	n/a	catFR1	3	R1658S
1076.14	10.342	1135703	COUNTDOWN_START	n/a	n/a	n/a	n/a	-999	9	[0, 0, 0]	n/a	catFR1	3	R1658S
1086.482	0.0	1146040	COUNTDOWN_END	n/a	n/a	n/a	n/a	-999	9	[0, 0, 0]	n/a	catFR1	3	R1658S
1086.482	1.976	1146052	ENCODING_START	n/a	n/a	n/a	n/a	-999	10	[0, 0, 0]	n/a	catFR1	3	R1658S
1088.458	1.608	1148024	WORD	n/a	wordpools/wordpool_categorized_EN.txt	COLA	Beverages	1	10	[0, 0, 0]	n/a	catFR1	3	R1658S
1090.066	0.992	1149625	WORD_OFF	n/a	n/a	COLA	Beverages	1	10	[0, 0, 0]	n/a	catFR1	3	R1658S
1091.058	1.608	1150628	WORD	n/a	wordpools/wordpool_categorized_EN.txt	CIDER	Beverages	2	10	[0, 0, 0]	n/a	catFR1	3	R1658S
1092.666	0.799	1152229	WORD_OFF	n/a	n/a	CIDER	Beverages	2	10	[0, 0, 0]	n/a	catFR1	3	R1658S
1093.465	1.601	1153030	WORD	n/a	wordpools/wordpool_categorized_EN.txt	PLANKTON	OceanAnimals	3	10	[0, 0, 0]	n/a	catFR1	3	R1658S
1095.066	0.769	1154630	WORD_OFF	n/a	n/a	PLANKTON	OceanAnimals	3	10	[0, 0, 0]	n/a	catFR1	3	R1658S
1095.835	1.606	1155397	WORD	n/a	wordpools/wordpool_categorized_EN.txt	OCTOPUS	OceanAnimals	4	10	[0, 0, 0]	n/a	catFR1	3	R1658S
1097.441	0.95	1157009	WORD_OFF	n/a	n/a	OCTOPUS	OceanAnimals	4	10	[0, 0, 0]	n/a	catFR1	3	R1658S
1098.391	1.608	1157956	WORD	n/a	wordpools/wordpool_categorized_EN.txt	WIND	Weather	5	10	[0, 0, 0]	n/a	catFR1	3	R1658S
1099.999	0.917	1159568	WORD_OFF	n/a	n/a	WIND	Weather	5	10	[0, 0, 0]	n/a	catFR1	3	R1658S
1100.916	1.607	1160481	WORD	n/a	wordpools/wordpool_categorized_EN.txt	RAIN	Weather	6	10	[0, 0, 0]	n/a	catFR1	3	R1658S
1102.523	0.876	1162093	WORD_OFF	n/a	n/a	RAIN	Weather	6	10	[0, 0, 0]	n/a	catFR1	3	R1658S
1103.399	1.6	1162961	WORD	n/a	wordpools/wordpool_categorized_EN.txt	SODA	Beverages	7	10	[0, 0, 0]	n/a	catFR1	3	R1658S
1104.999	0.95	1164562	WORD_OFF	n/a	n/a	SODA	Beverages	7	10	[0, 0, 0]	n/a	catFR1	3	R1658S
1105.949	1.6	1165508	WORD	n/a	wordpools/wordpool_categorized_EN.txt	BEER	Beverages	8	10	[0, 0, 0]	n/a	catFR1	3	R1658S
1107.549	0.784	1167120	WORD_OFF	n/a	n/a	BEER	Beverages	8	10	[0, 0, 0]	n/a	catFR1	3	R1658S
1108.333	1.601	1167898	WORD	n/a	wordpools/wordpool_categorized_EN.txt	HUMIDITY	Weather	9	10	[0, 0, 0]	n/a	catFR1	3	R1658S
1109.934	0.783	1169499	WORD_OFF	n/a	n/a	HUMIDITY	Weather	9	10	[0, 0, 0]	n/a	catFR1	3	R1658S
1110.717	1.607	1170277	WORD	n/a	wordpools/wordpool_categorized_EN.txt	FOG	Weather	10	10	[0, 0, 0]	n/a	catFR1	3	R1658S
1112.324	0.775	1171889	WORD_OFF	n/a	n/a	FOG	Weather	10	10	[0, 0, 0]	n/a	catFR1	3	R1658S
1113.099	1.608	1172667	WORD	n/a	wordpools/wordpool_categorized_EN.txt	DOLPHIN	OceanAnimals	11	10	[0, 0, 0]	n/a	catFR1	3	R1658S
1114.707	0.859	1174279	WORD_OFF	n/a	n/a	DOLPHIN	OceanAnimals	11	10	[0, 0, 0]	n/a	catFR1	3	R1658S
1115.566	1.602	1175135	WORD	n/a	wordpools/wordpool_categorized_EN.txt	JELLYFISH	OceanAnimals	12	10	[0, 0, 0]	n/a	catFR1	3	R1658S
1117.168	0.0	1176734	PROB	0.0	n/a	n/a	n/a	-999	10	[6, 6, 2]	14	catFR1	3	R1658S
1117.168	0.003	1176736	WORD_OFF	n/a	n/a	JELLYFISH	OceanAnimals	12	10	[0, 0, 0]	n/a	catFR1	3	R1658S
1117.171	0.0	1176736	ENCODING_END	n/a	n/a	n/a	n/a	-999	10	[0, 0, 0]	n/a	catFR1	3	R1658S
1117.171	0.0	1176736	DISTRACT_START	n/a	n/a	n/a	n/a	-999	10	[0, 0, 0]	n/a	catFR1	3	R1658S
1117.171	6.561	1176737	START	n/a	n/a	n/a	n/a	-999	10	[-999, -999, -999]	n/a	catFR1	3	R1658S
1123.732	19.05	1183298	PROB	19.05	n/a	n/a	n/a	-999	10	[8, 6, 3]	17	catFR1	3	R1658S
1142.782	0.0	1202348	DISTRACT_END	n/a	n/a	n/a	n/a	-999	10	[0, 0, 0]	n/a	catFR1	3	R1658S
1142.782	2.216	1202349	STOP	n/a	n/a	n/a	n/a	-999	10	[-999, -999, -999]	n/a	catFR1	3	R1658S
1144.998	30.007	1204568	REC_START	n/a	n/a	n/a	n/a	-999	10	[0, 0, 0]	n/a	catFR1	3	R1658S
1175.005	0.147	1234572	REC_WORD_VV	0.147	n/a	<>	n/a	-999	10	[0, 0, 0]	n/a	catFR1	3	R1658S
1175.152	5.247	1234723	REC_END	n/a	n/a	n/a	n/a	-999	10	[0, 0, 0]	n/a	catFR1	3	R1658S
1180.399	10.339	1239965	COUNTDOWN_START	n/a	n/a	n/a	n/a	-999	10	[0, 0, 0]	n/a	catFR1	3	R1658S
1190.738	0.0	1250302	COUNTDOWN_END	n/a	n/a	n/a	n/a	-999	10	[0, 0, 0]	n/a	catFR1	3	R1658S
1190.738	2.136	1250302	ENCODING_START	n/a	n/a	n/a	n/a	-999	11	[0, 0, 0]	n/a	catFR1	3	R1658S
1192.874	1.606	1252444	WORD	n/a	wordpools/wordpool_categorized_EN.txt	ONION	Vegetables	1	11	[0, 0, 0]	n/a	catFR1	3	R1658S
1194.48	0.801	1254044	WORD_OFF	n/a	n/a	ONION	Vegetables	1	11	[0, 0, 0]	n/a	catFR1	3	R1658S
1195.281	1.607	1254856	WORD	n/a	wordpools/wordpool_categorized_EN.txt	CAULIFLOWER	Vegetables	2	11	[0, 0, 0]	n/a	catFR1	3	R1658S
1196.888	0.951	1256457	WORD_OFF	n/a	n/a	CAULIFLOWER	Vegetables	2	11	[0, 0, 0]	n/a	catFR1	3	R1658S
1197.839	1.599	1257404	WORD	n/a	wordpools/wordpool_categorized_EN.txt	SPEAKER	Electronics	3	11	[0, 0, 0]	n/a	catFR1	3	R1658S
1199.438	0.876	1259004	WORD_OFF	n/a	n/a	SPEAKER	Electronics	3	11	[0, 0, 0]	n/a	catFR1	3	R1658S
1200.314	1.61	1259884	WORD	n/a	wordpools/wordpool_categorized_EN.txt	SCANNER	Electronics	4	11	[0, 0, 0]	n/a	catFR1	3	R1658S
1201.924	0.798	1261496	WORD_OFF	n/a	n/a	SCANNER	Electronics	4	11	[0, 0, 0]	n/a	catFR1	3	R1658S
1202.722	1.599	1262285	WORD	n/a	wordpools/wordpool_categorized_EN.txt	FORK	KitchenTools	5	11	[0, 0, 0]	n/a	catFR1	3	R1658S
1204.321	0.985	1263885	WORD_OFF	n/a	n/a	FORK	KitchenTools	5	11	[0, 0, 0]	n/a	catFR1	3	R1658S
1205.306	1.608	1264877	WORD	n/a	wordpools/wordpool_categorized_EN.txt	LADLE	KitchenTools	6	11	[0, 0, 0]	n/a	catFR1	3	R1658S
1206.914	0.933	1266478	WORD_OFF	n/a	n/a	LADLE	KitchenTools	6	11	[0, 0, 0]	n/a	catFR1	3	R1658S
1207.847	1.617	1267414	WORD	n/a	wordpools/wordpool_categorized_EN.txt	CUCUMBER	Vegetables	7	11	[0, 0, 0]	n/a	catFR1	3	R1658S
1209.464	0.95	1269026	WORD_OFF	n/a	n/a	CUCUMBER	Vegetables	7	11	[0, 0, 0]	n/a	catFR1	3	R1658S
1210.414	1.601	1269984	WORD	n/a	wordpools/wordpool_categorized_EN.txt	CARROT	Vegetables	8	11	[0, 0, 0]	n/a	catFR1	3	R1658S
1212.015	0.914	1271585	WORD_OFF	n/a	n/a	CARROT	Vegetables	8	11	[0, 0, 0]	n/a	catFR1	3	R1658S
1212.929	1.601	1272498	WORD	n/a	wordpools/wordpool_categorized_EN.txt	RADIO	Electronics	9	11	[0, 0, 0]	n/a	catFR1	3	R1658S
1214.53	0.876	1274099	WORD_OFF	n/a	n/a	RADIO	Electronics	9	11	[0, 0, 0]	n/a	catFR1	3	R1658S
1215.406	1.607	1274978	WORD	n/a	wordpools/wordpool_categorized_EN.txt	CALCULATOR	Electronics	10	11	[0, 0, 0]	n/a	catFR1	3	R1658S
1217.013	0.942	1276579	WORD_OFF	n/a	n/a	CALCULATOR	Electronics	10	11	[0, 0, 0]	n/a	catFR1	3	R1658S
1217.955	1.609	1277525	WORD	n/a	wordpools/wordpool_categorized_EN.txt	TONGS	KitchenTools	11	11	[0, 0, 0]	n/a	catFR1	3	R1658S
1219.564	0.809	1279137	WORD_OFF	n/a	n/a	TONGS	KitchenTools	11	11	[0, 0, 0]	n/a	catFR1	3	R1658S
1220.373	1.601	1279938	WORD	n/a	wordpools/wordpool_categorized_EN.txt	WHISK	KitchenTools	12	11	[0, 0, 0]	n/a	catFR1	3	R1658S
1221.974	0.002	1281539	WORD_OFF	n/a	n/a	WHISK	KitchenTools	12	11	[0, 0, 0]	n/a	catFR1	3	R1658S
1221.976	0.0	1281539	ENCODING_END	n/a	n/a	n/a	n/a	-999	11	[0, 0, 0]	n/a	catFR1	3	R1658S
1221.976	0.0	1281539	DISTRACT_START	n/a	n/a	n/a	n/a	-999	11	[0, 0, 0]	n/a	catFR1	3	R1658S
1221.972	0.004	1281540	PROB	0.004	n/a	n/a	n/a	-999	11	[8, 5, 6]	19	catFR1	3	R1658S
1221.976	14.92	1281544	START	n/a	n/a	n/a	n/a	-999	11	[-999, -999, -999]	n/a	catFR1	3	R1658S
1236.896	9.375	1296464	PROB	9.375	n/a	n/a	n/a	-999	11	[3, 2, 7]	12	catFR1	3	R1658S
1246.271	0.0	1305840	STOP	n/a	n/a	n/a	n/a	-999	11	[-999, -999, -999]	n/a	catFR1	3	R1658S
1246.271	2.351	1305843	DISTRACT_END	n/a	n/a	n/a	n/a	-999	11	[0, 0, 0]	n/a	catFR1	3	R1658S
1248.622	3.473	1308187	REC_START	n/a	n/a	n/a	n/a	-999	11	[0, 0, 0]	n/a	catFR1	3	R1658S
1252.095	4.112	1311664	REC_WORD	4.112	n/a	CUCUMBER	Vegetables	7	11	[0, 0, 0]	n/a	catFR1	3	R1658S
1256.207	22.567	1315776	REC_WORD	22.567	n/a	COOK	n/a	-999	11	[0, 0, 0]	n/a	catFR1	3	R1658S
1278.774	4.046	1338342	REC_END	n/a	n/a	n/a	n/a	-999	11	[0, 0, 0]	n/a	catFR1	3	R1658S
1282.82	10.35	1342389	COUNTDOWN_START	n/a	n/a	n/a	n/a	-999	11	[0, 0, 0]	n/a	catFR1	3	R1658S
1293.17	0.0	1352737	COUNTDOWN_END	n/a	n/a	n/a	n/a	-999	11	[0, 0, 0]	n/a	catFR1	3	R1658S
1293.17	2.066	1352737	ENCODING_START	n/a	n/a	n/a	n/a	-999	12	[0, 0, 0]	n/a	catFR1	3	R1658S
1295.236	1.602	1354800	WORD	n/a	wordpools/wordpool_categorized_EN.txt	SPATULA	KitchenTools	1	12	[0, 0, 0]	n/a	catFR1	3	R1658S
1296.838	0.858	1356412	WORD_OFF	n/a	n/a	SPATULA	KitchenTools	1	12	[0, 0, 0]	n/a	catFR1	3	R1658S
1297.696	1.608	1357269	WORD	n/a	wordpools/wordpool_categorized_EN.txt	GRATER	KitchenTools	2	12	[0, 0, 0]	n/a	catFR1	3	R1658S
1299.304	0.824	1358869	WORD_OFF	n/a	n/a	GRATER	KitchenTools	2	12	[0, 0, 0]	n/a	catFR1	3	R1658S
1300.128	1.601	1359692	WORD	n/a	wordpools/wordpool_categorized_EN.txt	STAIRS	Building	3	12	[0, 0, 0]	n/a	catFR1	3	R1658S
1301.729	0.993	1361293	WORD_OFF	n/a	n/a	STAIRS	Building	3	12	[0, 0, 0]	n/a	catFR1	3	R1658S
1302.722	1.606	1362296	WORD	n/a	wordpools/wordpool_categorized_EN.txt	HALLWAY	Building	4	12	[0, 0, 0]	n/a	catFR1	3	R1658S
1304.328	0.825	1363897	WORD_OFF	n/a	n/a	HALLWAY	Building	4	12	[0, 0, 0]	n/a	catFR1	3	R1658S
1305.153	1.6	1364720	WORD	n/a	wordpools/wordpool_categorized_EN.txt	TABLET	Electronics	5	12	[0, 0, 0]	n/a	catFR1	3	R1658S
1306.753	0.959	1366321	WORD_OFF	n/a	n/a	TABLET	Electronics	5	12	[0, 0, 0]	n/a	catFR1	3	R1658S
1307.712	1.6	1367279	WORD	n/a	wordpools/wordpool_categorized_EN.txt	TELEVISION	Electronics	6	12	[0, 0, 0]	n/a	catFR1	3	R1658S
1309.312	0.833	1368880	WORD_OFF	n/a	n/a	TELEVISION	Electronics	6	12	[0, 0, 0]	n/a	catFR1	3	R1658S
1310.145	1.601	1369714	WORD	n/a	wordpools/wordpool_categorized_EN.txt	COLANDER	KitchenTools	7	12	[0, 0, 0]	n/a	catFR1	3	R1658S
1311.746	0.914	1371315	WORD_OFF	n/a	n/a	COLANDER	KitchenTools	7	12	[0, 0, 0]	n/a	catFR1	3	R1658S
1312.66	1.601	1372228	WORD	n/a	wordpools/wordpool_categorized_EN.txt	STRAINER	KitchenTools	8	12	[0, 0, 0]	n/a	catFR1	3	R1658S
1314.261	0.976	1373828	WORD_OFF	n/a	n/a	STRAINER	KitchenTools	8	12	[0, 0, 0]	n/a	catFR1	3	R1658S
1315.237	1.6	1374809	WORD	n/a	wordpools/wordpool_categorized_EN.txt	HEADPHONES	Electronics	9	12	[0, 0, 0]	n/a	catFR1	3	R1658S
1316.837	0.783	1376410	WORD_OFF	n/a	n/a	HEADPHONES	Electronics	9	12	[0, 0, 0]	n/a	catFR1	3	R1658S
1317.62	1.6	1377188	WORD	n/a	wordpools/wordpool_categorized_EN.txt	MICROWAVE	Electronics	10	12	[0, 0, 0]	n/a	catFR1	3	R1658S
1319.22	0.916	1378788	WORD_OFF	n/a	n/a	MICROWAVE	Electronics	10	12	[0, 0, 0]	n/a	catFR1	3	R1658S
1320.136	1.6	1379701	WORD	n/a	wordpools/wordpool_categorized_EN.txt	DOOR	Building	11	12	[0, 0, 0]	n/a	catFR1	3	R1658S
1321.736	0.841	1381302	WORD_OFF	n/a	n/a	DOOR	Building	11	12	[0, 0, 0]	n/a	catFR1	3	R1658S
1322.577	1.601	1382148	WORD	n/a	wordpools/wordpool_categorized_EN.txt	FOUNDATION	Building	12	12	[0, 0, 0]	n/a	catFR1	3	R1658S
1324.178	0.002	1383748	WORD_OFF	n/a	n/a	FOUNDATION	Building	12	12	[0, 0, 0]	n/a	catFR1	3	R1658S
1324.18	0.0	1383748	ENCODING_END	n/a	n/a	n/a	n/a	-999	12	[0, 0, 0]	n/a	catFR1	3	R1658S
1324.18	0.0	1383748	DISTRACT_START	n/a	n/a	n/a	n/a	-999	12	[0, 0, 0]	n/a	catFR1	3	R1658S
1324.178	0.002	1383748	PROB	0.002	n/a	n/a	n/a	-999	12	[3, 8, 3]	14	catFR1	3	R1658S
1324.18	19.798	1383750	START	n/a	n/a	n/a	n/a	-999	12	[-999, -999, -999]	n/a	catFR1	3	R1658S
1343.978	22.041	1403549	PROB	22.041	n/a	n/a	n/a	-999	12	[5, 7, 6]	18	catFR1	3	R1658S
1366.019	0.0	1425590	STOP	n/a	n/a	n/a	n/a	-999	12	[-999, -999, -999]	n/a	catFR1	3	R1658S
1366.019	2.342	1425593	DISTRACT_END	n/a	n/a	n/a	n/a	-999	12	[0, 0, 0]	n/a	catFR1	3	R1658S
1368.361	30.006	1427937	REC_START	n/a	n/a	n/a	n/a	-999	12	[0, 0, 0]	n/a	catFR1	3	R1658S
1398.367	0.149	1457939	REC_WORD_VV	0.149	n/a	<>	n/a	-999	12	[0, 0, 0]	n/a	catFR1	3	R1658S
1398.516	0.0	1458081	REC_END	n/a	n/a	n/a	n/a	-999	12	[0, 0, 0]	n/a	catFR1	3	R1658S
