onset	duration	sample	trial_type	response_time	stim_file	item_name	category	serialpos	list	test	answer	experiment	session	subject
0.0	0.009	233284	SESS_START	n/a	n/a	n/a	n/a	-999	0	[0, 0, 0]	n/a	catFR1	2	R1640T
0.009	122.664	233293	TRIAL	n/a	n/a	n/a	n/a	-999	-1	[0, 0, 0]	n/a	catFR1	2	R1640T
122.673	10.0	355957	COUNTDOWN	n/a	n/a	n/a	n/a	-999	-1	[0, 0, 0]	n/a	catFR1	2	R1640T
133.105	2.168	366389	ENCODING_START	n/a	n/a	n/a	n/a	-999	-1	[0, 0, 0]	n/a	catFR1	2	R1640T
135.273	1.6	368557	WORD	n/a	n/a	FISH	OceanAnimals	1	-1	[0, 0, 0]	n/a	catFR1	2	R1640T
137.705	1.6	370989	WORD	n/a	n/a	SQUID	OceanAnimals	2	-1	[0, 0, 0]	n/a	catFR1	2	R1640T
140.122	1.6	373406	WORD	n/a	n/a	MAPLE	Trees	3	-1	[0, 0, 0]	n/a	catFR1	2	R1640T
142.504	1.6	375788	WORD	n/a	n/a	PINE	Trees	4	-1	[0, 0, 0]	n/a	catFR1	2	R1640T
144.954	1.6	378238	WORD	n/a	n/a	CROW	Birds	5	-1	[0, 0, 0]	n/a	catFR1	2	R1640T
147.538	1.6	380822	WORD	n/a	n/a	FINCH	Birds	6	-1	[0, 0, 0]	n/a	catFR1	2	R1640T
150.138	1.6	383422	WORD	n/a	n/a	PLANKTON	OceanAnimals	7	-1	[0, 0, 0]	n/a	catFR1	2	R1640T
152.721	1.6	386005	WORD	n/a	n/a	SHRIMP	OceanAnimals	8	-1	[0, 0, 0]	n/a	catFR1	2	R1640T
155.152	1.6	388436	WORD	n/a	n/a	CARDINAL	Birds	9	-1	[0, 0, 0]	n/a	catFR1	2	R1640T
157.754	1.6	391038	WORD	n/a	n/a	SPARROW	Birds	10	-1	[0, 0, 0]	n/a	catFR1	2	R1640T
160.337	1.6	393621	WORD	n/a	n/a	OAK	Trees	11	-1	[0, 0, 0]	n/a	catFR1	2	R1640T
162.804	1.6	396088	WORD	n/a	n/a	WILLOW	Trees	12	-1	[0, 0, 0]	n/a	catFR1	2	R1640T
164.421	0.003	397705	PROB	10.467	n/a	n/a	n/a	-999	0	[8, 4, 3]	15.0	catFR1	2	R1640T
164.424	10.479	397708	DISTRACT_START	n/a	n/a	n/a	n/a	-999	0	[0, 0, 0]	n/a	catFR1	2	R1640T
174.903	4.565	408187	PROB	4.548	n/a	n/a	n/a	-999	0	[3, 2, 1]	6.0	catFR1	2	R1640T
179.468	13.821	412752	PROB	11.55	n/a	n/a	n/a	-999	0	[3, 8, 6]	16.0	catFR1	2	R1640T
193.289	1.159	426573	REC_START	n/a	n/a	n/a	n/a	-999	-1	[0, 0, 0]	n/a	catFR1	2	R1640T
194.448	0.549	427732	REC_WORD	1.159	n/a	PLUS	n/a	-999	-1	[0, 0, 0]	n/a	catFR1	2	R1640T
194.997	1.851	428281	REC_WORD	1.708	n/a	SQUID	OceanAnimals	2	-1	[0, 0, 0]	n/a	catFR1	2	R1640T
196.848	7.874	430132	REC_WORD_VV	3.559	n/a	<>	n/a	-999	-1	[0, 0, 0]	n/a	catFR1	2	R1640T
204.722	7.347	438006	REC_WORD	11.433	n/a	FISH	OceanAnimals	1	-1	[0, 0, 0]	n/a	catFR1	2	R1640T
212.069	11.381	445353	REC_WORD_VV	18.78	n/a	<>	n/a	-999	-1	[0, 0, 0]	n/a	catFR1	2	R1640T
223.45	41.782	456734	TRIAL	n/a	n/a	n/a	n/a	-999	1	[0, 0, 0]	n/a	catFR1	2	R1640T
265.232	10.0	498516	COUNTDOWN	n/a	n/a	n/a	n/a	-999	1	[0, 0, 0]	n/a	catFR1	2	R1640T
275.598	2.051	508882	ENCODING_START	n/a	n/a	n/a	n/a	-999	1	[0, 0, 0]	n/a	catFR1	2	R1640T
277.649	1.6	510933	WORD	n/a	wordpools/wordpool_categorized_EN.txt	STAIRS	Building	1	1	[0, 0, 0]	n/a	catFR1	2	R1640T
280.249	1.6	513533	WORD	n/a	wordpools/wordpool_categorized_EN.txt	BATHROOM	Building	2	1	[0, 0, 0]	n/a	catFR1	2	R1640T
282.715	1.6	515999	WORD	n/a	wordpools/wordpool_categorized_EN.txt	COTTON	Fabric	3	1	[0, 0, 0]	n/a	catFR1	2	R1640T
285.215	1.6	518499	WORD	n/a	wordpools/wordpool_categorized_EN.txt	SILK	Fabric	4	1	[0, 0, 0]	n/a	catFR1	2	R1640T
287.632	1.6	520916	WORD	n/a	wordpools/wordpool_categorized_EN.txt	SHELF	Furniture	5	1	[0, 0, 0]	n/a	catFR1	2	R1640T
290.166	1.6	523450	WORD	n/a	wordpools/wordpool_categorized_EN.txt	COUCH	Furniture	6	1	[0, 0, 0]	n/a	catFR1	2	R1640T
292.662	1.6	525946	WORD	n/a	wordpools/wordpool_categorized_EN.txt	DOOR	Building	7	1	[0, 0, 0]	n/a	catFR1	2	R1640T
295.248	1.6	528532	WORD	n/a	wordpools/wordpool_categorized_EN.txt	FLOOR	Building	8	1	[0, 0, 0]	n/a	catFR1	2	R1640T
297.814	1.6	531098	WORD	n/a	wordpools/wordpool_categorized_EN.txt	SUEDE	Fabric	9	1	[0, 0, 0]	n/a	catFR1	2	R1640T
300.397	1.6	533681	WORD	n/a	wordpools/wordpool_categorized_EN.txt	WOOL	Fabric	10	1	[0, 0, 0]	n/a	catFR1	2	R1640T
302.88	1.6	536164	WORD	n/a	wordpools/wordpool_categorized_EN.txt	DRESSER	Furniture	11	1	[0, 0, 0]	n/a	catFR1	2	R1640T
305.33	1.6	538614	WORD	n/a	wordpools/wordpool_categorized_EN.txt	NIGHTSTAND	Furniture	12	1	[0, 0, 0]	n/a	catFR1	2	R1640T
306.948	0.001	540232	PROB	5.949	n/a	n/a	n/a	-999	1	[5, 4, 5]	14.0	catFR1	2	R1640T
306.949	5.965	540233	DISTRACT_START	n/a	n/a	n/a	n/a	-999	1	[0, 0, 0]	n/a	catFR1	2	R1640T
312.914	22.039	546198	PROB	19.582	n/a	n/a	n/a	-999	1	[7, 7, 6]	20.0	catFR1	2	R1640T
334.953	1.104	568237	REC_START	n/a	n/a	n/a	n/a	-999	1	[0, 0, 0]	n/a	catFR1	2	R1640T
336.057	0.583	569341	REC_WORD_VV	1.104	n/a	<>	n/a	-999	1	[0, 0, 0]	n/a	catFR1	2	R1640T
336.64	1.257	569924	REC_WORD	1.687	n/a	PLUS	n/a	-999	1	[0, 0, 0]	n/a	catFR1	2	R1640T
337.897	4.306	571181	REC_WORD	2.944	n/a	STAIRS	Building	1	1	[0, 0, 0]	n/a	catFR1	2	R1640T
342.203	2.464	575487	REC_WORD_VV	7.25	n/a	<>	n/a	-999	1	[0, 0, 0]	n/a	catFR1	2	R1640T
344.667	20.458	577951	REC_WORD_VV	9.714	n/a	<>	n/a	-999	1	[0, 0, 0]	n/a	catFR1	2	R1640T
365.125	2.602	598409	TRIAL	n/a	n/a	n/a	n/a	-999	2	[0, 0, 0]	n/a	catFR1	2	R1640T
367.727	10.0	601011	COUNTDOWN	n/a	n/a	n/a	n/a	-999	2	[0, 0, 0]	n/a	catFR1	2	R1640T
378.076	2.001	611360	ENCODING_START	n/a	n/a	n/a	n/a	-999	2	[0, 0, 0]	n/a	catFR1	2	R1640T
380.077	1.6	613361	WORD	n/a	wordpools/wordpool_categorized_EN.txt	HAMMER	Tools	1	2	[0, 0, 0]	n/a	catFR1	2	R1640T
382.66	1.6	615944	WORD	n/a	wordpools/wordpool_categorized_EN.txt	SCREWDRIVER	Tools	2	2	[0, 0, 0]	n/a	catFR1	2	R1640T
385.076	1.6	618360	WORD	n/a	wordpools/wordpool_categorized_EN.txt	UNDERWEAR	Clothing	3	2	[0, 0, 0]	n/a	catFR1	2	R1640T
387.694	1.6	620978	WORD	n/a	wordpools/wordpool_categorized_EN.txt	DRESS	Clothing	4	2	[0, 0, 0]	n/a	catFR1	2	R1640T
390.277	1.6	623561	WORD	n/a	wordpools/wordpool_categorized_EN.txt	SPATULA	KitchenTools	5	2	[0, 0, 0]	n/a	catFR1	2	R1640T
392.893	1.6	626177	WORD	n/a	wordpools/wordpool_categorized_EN.txt	STRAINER	KitchenTools	6	2	[0, 0, 0]	n/a	catFR1	2	R1640T
395.358	1.6	628642	WORD	n/a	wordpools/wordpool_categorized_EN.txt	RATCHET	Tools	7	2	[0, 0, 0]	n/a	catFR1	2	R1640T
397.843	1.6	631127	WORD	n/a	wordpools/wordpool_categorized_EN.txt	SAW	Tools	8	2	[0, 0, 0]	n/a	catFR1	2	R1640T
400.243	1.6	633527	WORD	n/a	wordpools/wordpool_categorized_EN.txt	WHISK	KitchenTools	9	2	[0, 0, 0]	n/a	catFR1	2	R1640T
402.808	1.6	636092	WORD	n/a	wordpools/wordpool_categorized_EN.txt	PEELER	KitchenTools	10	2	[0, 0, 0]	n/a	catFR1	2	R1640T
405.374	1.6	638658	WORD	n/a	wordpools/wordpool_categorized_EN.txt	JEANS	Clothing	11	2	[0, 0, 0]	n/a	catFR1	2	R1640T
407.823	1.6	641107	WORD	n/a	wordpools/wordpool_categorized_EN.txt	SKIRT	Clothing	12	2	[0, 0, 0]	n/a	catFR1	2	R1640T
409.44	0.0	642724	DISTRACT_START	n/a	n/a	n/a	n/a	-999	2	[0, 0, 0]	n/a	catFR1	2	R1640T
409.44	10.966	642724	PROB	10.949	n/a	n/a	n/a	-999	2	[7, 7, 2]	16.0	catFR1	2	R1640T
420.406	6.334	653690	PROB	6.316	n/a	n/a	n/a	-999	2	[4, 5, 1]	10.0	catFR1	2	R1640T
426.74	9.268	660024	PROB	6.834	n/a	n/a	n/a	-999	2	[6, 4, 3]	13.0	catFR1	2	R1640T
436.008	2.34	669292	REC_START	n/a	n/a	n/a	n/a	-999	2	[0, 0, 0]	n/a	catFR1	2	R1640T
438.348	0.225	671632	REC_WORD_VV	2.34	n/a	<>	n/a	-999	2	[0, 0, 0]	n/a	catFR1	2	R1640T
438.573	0.735	671857	REC_WORD	2.565	n/a	PLUS	n/a	-999	2	[0, 0, 0]	n/a	catFR1	2	R1640T
439.308	1.799	672592	REC_WORD	3.3	n/a	HAMMER	Tools	1	2	[0, 0, 0]	n/a	catFR1	2	R1640T
441.107	1.778	674391	REC_WORD	5.099	n/a	MALLET	n/a	-999	2	[0, 0, 0]	n/a	catFR1	2	R1640T
442.885	1.0	676169	REC_WORD	6.877	n/a	STAIRS	Building	-999	2	[0, 0, 0]	n/a	catFR1	2	R1640T
443.885	1.911	677169	REC_WORD_VV	7.877	n/a	<>	n/a	-999	2	[0, 0, 0]	n/a	catFR1	2	R1640T
445.796	1.0	679080	REC_WORD	9.788	n/a	SCREWDRIVER	Tools	2	2	[0, 0, 0]	n/a	catFR1	2	R1640T
446.796	19.349	680080	REC_WORD_VV	10.788	n/a	<>	n/a	-999	2	[0, 0, 0]	n/a	catFR1	2	R1640T
466.145	2.127	699429	TRIAL	n/a	n/a	n/a	n/a	-999	3	[0, 0, 0]	n/a	catFR1	2	R1640T
468.272	10.0	701556	COUNTDOWN	n/a	n/a	n/a	n/a	-999	3	[0, 0, 0]	n/a	catFR1	2	R1640T
478.64	2.032	711924	ENCODING_START	n/a	n/a	n/a	n/a	-999	3	[0, 0, 0]	n/a	catFR1	2	R1640T
480.672	1.6	713956	WORD	n/a	wordpools/wordpool_categorized_EN.txt	CARNATION	Flowers	1	3	[0, 0, 0]	n/a	catFR1	2	R1640T
483.037	1.6	716321	WORD	n/a	wordpools/wordpool_categorized_EN.txt	ORCHID	Flowers	2	3	[0, 0, 0]	n/a	catFR1	2	R1640T
485.488	1.6	718772	WORD	n/a	wordpools/wordpool_categorized_EN.txt	BLOUSE	Clothing	3	3	[0, 0, 0]	n/a	catFR1	2	R1640T
487.922	1.6	721206	WORD	n/a	wordpools/wordpool_categorized_EN.txt	COAT	Clothing	4	3	[0, 0, 0]	n/a	catFR1	2	R1640T
490.489	1.6	723773	WORD	n/a	wordpools/wordpool_categorized_EN.txt	ANT	Insects	5	3	[0, 0, 0]	n/a	catFR1	2	R1640T
493.088	1.6	726372	WORD	n/a	wordpools/wordpool_categorized_EN.txt	ROACH	Insects	6	3	[0, 0, 0]	n/a	catFR1	2	R1640T
495.688	1.6	728972	WORD	n/a	wordpools/wordpool_categorized_EN.txt	PANTS	Clothing	7	3	[0, 0, 0]	n/a	catFR1	2	R1640T
498.121	1.6	731405	WORD	n/a	wordpools/wordpool_categorized_EN.txt	SHOES	Clothing	8	3	[0, 0, 0]	n/a	catFR1	2	R1640T
500.538	1.6	733822	WORD	n/a	wordpools/wordpool_categorized_EN.txt	DAISY	Flowers	9	3	[0, 0, 0]	n/a	catFR1	2	R1640T
502.921	1.6	736205	WORD	n/a	wordpools/wordpool_categorized_EN.txt	LILAC	Flowers	10	3	[0, 0, 0]	n/a	catFR1	2	R1640T
505.471	1.6	738755	WORD	n/a	wordpools/wordpool_categorized_EN.txt	CRICKET	Insects	11	3	[0, 0, 0]	n/a	catFR1	2	R1640T
508.087	1.6	741371	WORD	n/a	wordpools/wordpool_categorized_EN.txt	LADYBUG	Insects	12	3	[0, 0, 0]	n/a	catFR1	2	R1640T
509.704	0.001	742988	PROB	-23.455	n/a	n/a	n/a	-999	3	[3, 8, 1]	12.0	catFR1	2	R1640T
509.705	44.33	742989	DISTRACT_START	n/a	n/a	n/a	n/a	-999	3	[0, 0, 0]	n/a	catFR1	2	R1640T
554.035	0.0	787319	REC_START	n/a	n/a	n/a	n/a	-999	3	[0, 0, 0]	n/a	catFR1	2	R1640T
554.035	1.0	787319	REC_WORD_VV	0.0	n/a	<>	n/a	-999	3	[0, 0, 0]	n/a	catFR1	2	R1640T
555.035	1.0	788319	REC_WORD_VV	1.0	n/a	<>	n/a	-999	3	[0, 0, 0]	n/a	catFR1	2	R1640T
556.035	1.0	789319	REC_WORD_VV	2.0	n/a	<>	n/a	-999	3	[0, 0, 0]	n/a	catFR1	2	R1640T
557.035	1.0	790319	REC_WORD_VV	3.0	n/a	<>	n/a	-999	3	[0, 0, 0]	n/a	catFR1	2	R1640T
558.035	1.0	791319	REC_WORD_VV	4.0	n/a	<>	n/a	-999	3	[0, 0, 0]	n/a	catFR1	2	R1640T
559.035	1.0	792319	REC_WORD_VV	5.0	n/a	<>	n/a	-999	3	[0, 0, 0]	n/a	catFR1	2	R1640T
560.035	1.0	793319	REC_WORD_VV	6.0	n/a	<>	n/a	-999	3	[0, 0, 0]	n/a	catFR1	2	R1640T
561.035	1.0	794319	REC_WORD_VV	7.0	n/a	<>	n/a	-999	3	[0, 0, 0]	n/a	catFR1	2	R1640T
562.035	1.0	795319	REC_WORD_VV	8.0	n/a	<>	n/a	-999	3	[0, 0, 0]	n/a	catFR1	2	R1640T
563.035	1.0	796319	REC_WORD_VV	9.0	n/a	<>	n/a	-999	3	[0, 0, 0]	n/a	catFR1	2	R1640T
564.035	1.0	797319	REC_WORD_VV	10.0	n/a	<>	n/a	-999	3	[0, 0, 0]	n/a	catFR1	2	R1640T
565.035	1.0	798319	REC_WORD_VV	11.0	n/a	<>	n/a	-999	3	[0, 0, 0]	n/a	catFR1	2	R1640T
566.035	1.0	799319	REC_WORD_VV	12.0	n/a	<>	n/a	-999	3	[0, 0, 0]	n/a	catFR1	2	R1640T
567.035	1.0	800319	REC_WORD_VV	13.0	n/a	<>	n/a	-999	3	[0, 0, 0]	n/a	catFR1	2	R1640T
568.035	1.0	801319	REC_WORD_VV	14.0	n/a	<>	n/a	-999	3	[0, 0, 0]	n/a	catFR1	2	R1640T
569.035	1.0	802319	REC_WORD_VV	15.0	n/a	<>	n/a	-999	3	[0, 0, 0]	n/a	catFR1	2	R1640T
570.035	1.0	803319	REC_WORD_VV	16.0	n/a	<>	n/a	-999	3	[0, 0, 0]	n/a	catFR1	2	R1640T
571.035	1.0	804319	REC_WORD_VV	17.0	n/a	<>	n/a	-999	3	[0, 0, 0]	n/a	catFR1	2	R1640T
572.035	1.0	805319	REC_WORD_VV	18.0	n/a	<>	n/a	-999	3	[0, 0, 0]	n/a	catFR1	2	R1640T
573.035	1.0	806319	REC_WORD_VV	19.0	n/a	<>	n/a	-999	3	[0, 0, 0]	n/a	catFR1	2	R1640T
574.035	1.0	807319	REC_WORD_VV	20.0	n/a	<>	n/a	-999	3	[0, 0, 0]	n/a	catFR1	2	R1640T
575.035	1.0	808319	REC_WORD_VV	21.0	n/a	<>	n/a	-999	3	[0, 0, 0]	n/a	catFR1	2	R1640T
576.035	1.0	809319	REC_WORD_VV	22.0	n/a	<>	n/a	-999	3	[0, 0, 0]	n/a	catFR1	2	R1640T
577.035	1.0	810319	REC_WORD_VV	23.0	n/a	<>	n/a	-999	3	[0, 0, 0]	n/a	catFR1	2	R1640T
578.035	1.0	811319	REC_WORD_VV	24.0	n/a	<>	n/a	-999	3	[0, 0, 0]	n/a	catFR1	2	R1640T
579.035	1.0	812319	REC_WORD_VV	25.0	n/a	<>	n/a	-999	3	[0, 0, 0]	n/a	catFR1	2	R1640T
580.035	1.0	813319	REC_WORD_VV	26.0	n/a	<>	n/a	-999	3	[0, 0, 0]	n/a	catFR1	2	R1640T
581.035	1.0	814319	REC_WORD_VV	27.0	n/a	<>	n/a	-999	3	[0, 0, 0]	n/a	catFR1	2	R1640T
582.035	1.0	815319	REC_WORD_VV	28.0	n/a	<>	n/a	-999	3	[0, 0, 0]	n/a	catFR1	2	R1640T
583.035	1.144	816319	REC_WORD_VV	29.0	n/a	<>	n/a	-999	3	[0, 0, 0]	n/a	catFR1	2	R1640T
584.179	0.055	817463	TRIAL	n/a	n/a	n/a	n/a	-999	4	[0, 0, 0]	n/a	catFR1	2	R1640T
584.234	10.0	817518	COUNTDOWN	n/a	n/a	n/a	n/a	-999	4	[0, 0, 0]	n/a	catFR1	2	R1640T
594.567	2.165	827851	ENCODING_START	n/a	n/a	n/a	n/a	-999	4	[0, 0, 0]	n/a	catFR1	2	R1640T
596.732	1.6	830016	WORD	n/a	wordpools/wordpool_categorized_EN.txt	COOKIE	Desserts	1	4	[0, 0, 0]	n/a	catFR1	2	R1640T
599.117	1.6	832401	WORD	n/a	wordpools/wordpool_categorized_EN.txt	MOUSSE	Desserts	2	4	[0, 0, 0]	n/a	catFR1	2	R1640T
601.599	1.6	834883	WORD	n/a	wordpools/wordpool_categorized_EN.txt	FOREST	Landscapes	3	4	[0, 0, 0]	n/a	catFR1	2	R1640T
604.049	1.6	837333	WORD	n/a	wordpools/wordpool_categorized_EN.txt	OCEAN	Landscapes	4	4	[0, 0, 0]	n/a	catFR1	2	R1640T
606.649	1.6	839933	WORD	n/a	wordpools/wordpool_categorized_EN.txt	LADLE	KitchenTools	5	4	[0, 0, 0]	n/a	catFR1	2	R1640T
609.05	1.6	842334	WORD	n/a	wordpools/wordpool_categorized_EN.txt	GRATER	KitchenTools	6	4	[0, 0, 0]	n/a	catFR1	2	R1640T
611.515	1.6	844799	WORD	n/a	wordpools/wordpool_categorized_EN.txt	RIVER	Landscapes	7	4	[0, 0, 0]	n/a	catFR1	2	R1640T
614.032	1.6	847316	WORD	n/a	wordpools/wordpool_categorized_EN.txt	LAKE	Landscapes	8	4	[0, 0, 0]	n/a	catFR1	2	R1640T
616.649	1.6	849933	WORD	n/a	wordpools/wordpool_categorized_EN.txt	TONGS	KitchenTools	9	4	[0, 0, 0]	n/a	catFR1	2	R1640T
619.266	1.6	852550	WORD	n/a	wordpools/wordpool_categorized_EN.txt	SPOON	KitchenTools	10	4	[0, 0, 0]	n/a	catFR1	2	R1640T
621.682	1.6	854966	WORD	n/a	wordpools/wordpool_categorized_EN.txt	PASTRY	Desserts	11	4	[0, 0, 0]	n/a	catFR1	2	R1640T
624.265	1.6	857549	WORD	n/a	wordpools/wordpool_categorized_EN.txt	BROWNIES	Desserts	12	4	[0, 0, 0]	n/a	catFR1	2	R1640T
625.866	0.0	859150	DISTRACT_START	n/a	n/a	n/a	n/a	-999	4	[0, 0, 0]	n/a	catFR1	2	R1640T
625.866	15.15	859150	PROB	15.132	n/a	n/a	n/a	-999	4	[2, 8, 5]	17.0	catFR1	2	R1640T
641.016	9.798	874300	PROB	7.365	n/a	n/a	n/a	-999	4	[3, 6, 6]	15.0	catFR1	2	R1640T
650.814	10.78	884098	REC_START	n/a	n/a	n/a	n/a	-999	4	[0, 0, 0]	n/a	catFR1	2	R1640T
661.594	19.371	894878	REC_WORD_VV	10.78	n/a	<>	n/a	-999	4	[0, 0, 0]	n/a	catFR1	2	R1640T
680.965	2.48	914249	TRIAL	n/a	n/a	n/a	n/a	-999	5	[0, 0, 0]	n/a	catFR1	2	R1640T
683.445	10.0	916729	COUNTDOWN	n/a	n/a	n/a	n/a	-999	5	[0, 0, 0]	n/a	catFR1	2	R1640T
693.795	2.067	927079	ENCODING_START	n/a	n/a	n/a	n/a	-999	5	[0, 0, 0]	n/a	catFR1	2	R1640T
695.862	1.6	929146	WORD	n/a	wordpools/wordpool_categorized_EN.txt	BEER	Beverages	1	5	[0, 0, 0]	n/a	catFR1	2	R1640T
698.394	1.6	931678	WORD	n/a	wordpools/wordpool_categorized_EN.txt	MILK	Beverages	2	5	[0, 0, 0]	n/a	catFR1	2	R1640T
700.946	1.6	934230	WORD	n/a	wordpools/wordpool_categorized_EN.txt	KNEE	BodyParts	3	5	[0, 0, 0]	n/a	catFR1	2	R1640T
703.428	1.6	936712	WORD	n/a	wordpools/wordpool_categorized_EN.txt	NOSE	BodyParts	4	5	[0, 0, 0]	n/a	catFR1	2	R1640T
705.945	1.6	939229	WORD	n/a	wordpools/wordpool_categorized_EN.txt	CUCUMBER	Vegetables	5	5	[0, 0, 0]	n/a	catFR1	2	R1640T
708.461	1.6	941745	WORD	n/a	wordpools/wordpool_categorized_EN.txt	CORN	Vegetables	6	5	[0, 0, 0]	n/a	catFR1	2	R1640T
710.828	1.6	944112	WORD	n/a	wordpools/wordpool_categorized_EN.txt	LEMONADE	Beverages	7	5	[0, 0, 0]	n/a	catFR1	2	R1640T
713.277	1.6	946561	WORD	n/a	wordpools/wordpool_categorized_EN.txt	WATER	Beverages	8	5	[0, 0, 0]	n/a	catFR1	2	R1640T
715.678	1.6	948962	WORD	n/a	wordpools/wordpool_categorized_EN.txt	CARROT	Vegetables	9	5	[0, 0, 0]	n/a	catFR1	2	R1640T
718.177	1.6	951461	WORD	n/a	wordpools/wordpool_categorized_EN.txt	PEAS	Vegetables	10	5	[0, 0, 0]	n/a	catFR1	2	R1640T
720.594	1.6	953878	WORD	n/a	wordpools/wordpool_categorized_EN.txt	TOE	BodyParts	11	5	[0, 0, 0]	n/a	catFR1	2	R1640T
723.061	1.6	956345	WORD	n/a	wordpools/wordpool_categorized_EN.txt	HEAD	BodyParts	12	5	[0, 0, 0]	n/a	catFR1	2	R1640T
724.677	0.001	957961	PROB	13.781	n/a	n/a	n/a	-999	5	[7, 8, 5]	20.0	catFR1	2	R1640T
724.678	13.799	957962	DISTRACT_START	n/a	n/a	n/a	n/a	-999	5	[0, 0, 0]	n/a	catFR1	2	R1640T
738.477	13.08	971761	PROB	10.982	n/a	n/a	n/a	-999	5	[6, 8, 5]	19.0	catFR1	2	R1640T
751.557	30.016	984841	REC_START	n/a	n/a	n/a	n/a	-999	5	[0, 0, 0]	n/a	catFR1	2	R1640T
781.573	0.143	1014857	REC_WORD_VV	30.016	n/a	<>	n/a	-999	5	[0, 0, 0]	n/a	catFR1	2	R1640T
781.716	2.573	1015000	TRIAL	n/a	n/a	n/a	n/a	-999	6	[0, 0, 0]	n/a	catFR1	2	R1640T
784.289	10.0	1017573	COUNTDOWN	n/a	n/a	n/a	n/a	-999	6	[0, 0, 0]	n/a	catFR1	2	R1640T
794.657	2.166	1027941	ENCODING_START	n/a	n/a	n/a	n/a	-999	6	[0, 0, 0]	n/a	catFR1	2	R1640T
796.823	1.6	1030107	WORD	n/a	wordpools/wordpool_categorized_EN.txt	CORKSCREW	KitchenTools	1	6	[0, 0, 0]	n/a	catFR1	2	R1640T
799.207	1.6	1032491	WORD	n/a	wordpools/wordpool_categorized_EN.txt	FORK	KitchenTools	2	6	[0, 0, 0]	n/a	catFR1	2	R1640T
801.773	1.6	1035057	WORD	n/a	wordpools/wordpool_categorized_EN.txt	GOAT	FarmAnimals	3	6	[0, 0, 0]	n/a	catFR1	2	R1640T
804.357	1.6	1037641	WORD	n/a	wordpools/wordpool_categorized_EN.txt	CALF	FarmAnimals	4	6	[0, 0, 0]	n/a	catFR1	2	R1640T
806.956	1.6	1040240	WORD	n/a	wordpools/wordpool_categorized_EN.txt	TAPE	OfficeSupplies	5	6	[0, 0, 0]	n/a	catFR1	2	R1640T
809.407	1.6	1042691	WORD	n/a	wordpools/wordpool_categorized_EN.txt	STAPLER	OfficeSupplies	6	6	[0, 0, 0]	n/a	catFR1	2	R1640T
811.79	1.6	1045074	WORD	n/a	wordpools/wordpool_categorized_EN.txt	KNIFE	KitchenTools	7	6	[0, 0, 0]	n/a	catFR1	2	R1640T
814.273	1.6	1047557	WORD	n/a	wordpools/wordpool_categorized_EN.txt	COLANDER	KitchenTools	8	6	[0, 0, 0]	n/a	catFR1	2	R1640T
816.823	1.6	1050107	WORD	n/a	wordpools/wordpool_categorized_EN.txt	FOLDER	OfficeSupplies	9	6	[0, 0, 0]	n/a	catFR1	2	R1640T
819.29	1.6	1052574	WORD	n/a	wordpools/wordpool_categorized_EN.txt	PEN	OfficeSupplies	10	6	[0, 0, 0]	n/a	catFR1	2	R1640T
821.773	1.6	1055057	WORD	n/a	wordpools/wordpool_categorized_EN.txt	PIG	FarmAnimals	11	6	[0, 0, 0]	n/a	catFR1	2	R1640T
824.189	1.6	1057473	WORD	n/a	wordpools/wordpool_categorized_EN.txt	COW	FarmAnimals	12	6	[0, 0, 0]	n/a	catFR1	2	R1640T
825.805	0.001	1059089	DISTRACT_START	n/a	n/a	n/a	n/a	-999	6	[0, 0, 0]	n/a	catFR1	2	R1640T
825.806	8.366	1059090	PROB	8.35	n/a	n/a	n/a	-999	6	[4, 5, 2]	11.0	catFR1	2	R1640T
834.172	5.533	1067456	PROB	5.517	n/a	n/a	n/a	-999	6	[4, 2, 1]	7.0	catFR1	2	R1640T
839.705	10.177	1072989	PROB	7.966	n/a	n/a	n/a	-999	6	[3, 7, 5]	15.0	catFR1	2	R1640T
849.882	24.164	1083166	REC_START	n/a	n/a	n/a	n/a	-999	6	[0, 0, 0]	n/a	catFR1	2	R1640T
874.046	0.711	1107330	REC_WORD_VV	24.164	n/a	<>	n/a	-999	6	[0, 0, 0]	n/a	catFR1	2	R1640T
874.757	0.443	1108041	REC_WORD	24.875	n/a	MAPLE	n/a	-999	6	[0, 0, 0]	n/a	catFR1	2	R1640T
875.2	1.777	1108484	REC_WORD	25.318	n/a	CHAIR	n/a	-999	6	[0, 0, 0]	n/a	catFR1	2	R1640T
876.977	2.343	1110261	REC_WORD	27.095	n/a	CORKSCREW	KitchenTools	1	6	[0, 0, 0]	n/a	catFR1	2	R1640T
879.32	0.711	1112604	REC_WORD	29.438	n/a	SPOON	KitchenTools	-999	6	[0, 0, 0]	n/a	catFR1	2	R1640T
880.031	0.839	1113315	TRIAL	n/a	n/a	n/a	n/a	-999	7	[0, 0, 0]	n/a	catFR1	2	R1640T
880.87	10.0	1114154	COUNTDOWN	n/a	n/a	n/a	n/a	-999	7	[0, 0, 0]	n/a	catFR1	2	R1640T
891.236	2.066	1124520	ENCODING_START	n/a	n/a	n/a	n/a	-999	7	[0, 0, 0]	n/a	catFR1	2	R1640T
893.302	1.6	1126586	WORD	n/a	wordpools/wordpool_categorized_EN.txt	BOOKCASE	Furniture	1	7	[0, 0, 0]	n/a	catFR1	2	R1640T
895.685	1.6	1128969	WORD	n/a	wordpools/wordpool_categorized_EN.txt	BED	Furniture	2	7	[0, 0, 0]	n/a	catFR1	2	R1640T
898.152	1.6	1131436	WORD	n/a	wordpools/wordpool_categorized_EN.txt	RAIN	Weather	3	7	[0, 0, 0]	n/a	catFR1	2	R1640T
900.686	1.6	1133970	WORD	n/a	wordpools/wordpool_categorized_EN.txt	THUNDER	Weather	4	7	[0, 0, 0]	n/a	catFR1	2	R1640T
903.052	1.6	1136336	WORD	n/a	wordpools/wordpool_categorized_EN.txt	WALNUT	Trees	5	7	[0, 0, 0]	n/a	catFR1	2	R1640T
905.435	1.6	1138719	WORD	n/a	wordpools/wordpool_categorized_EN.txt	EVERGREEN	Trees	6	7	[0, 0, 0]	n/a	catFR1	2	R1640T
907.918	1.6	1141202	WORD	n/a	wordpools/wordpool_categorized_EN.txt	CLOUD	Weather	7	7	[0, 0, 0]	n/a	catFR1	2	R1640T
910.385	1.6	1143669	WORD	n/a	wordpools/wordpool_categorized_EN.txt	HURRICANE	Weather	8	7	[0, 0, 0]	n/a	catFR1	2	R1640T
913.002	1.6	1146286	WORD	n/a	wordpools/wordpool_categorized_EN.txt	CHAIR	Furniture	9	7	[0, 0, 0]	n/a	catFR1	2	R1640T
915.601	1.6	1148885	WORD	n/a	wordpools/wordpool_categorized_EN.txt	TABLE	Furniture	10	7	[0, 0, 0]	n/a	catFR1	2	R1640T
918.035	1.6	1151319	WORD	n/a	wordpools/wordpool_categorized_EN.txt	CYPRESS	Trees	11	7	[0, 0, 0]	n/a	catFR1	2	R1640T
920.601	1.6	1153885	WORD	n/a	wordpools/wordpool_categorized_EN.txt	CEDAR	Trees	12	7	[0, 0, 0]	n/a	catFR1	2	R1640T
922.218	0.001	1155502	PROB	14.049	n/a	n/a	n/a	-999	7	[1, 4, 3]	8.0	catFR1	2	R1640T
922.219	14.066	1155503	DISTRACT_START	n/a	n/a	n/a	n/a	-999	7	[0, 0, 0]	n/a	catFR1	2	R1640T
936.285	8.393	1169569	PROB	6.182	n/a	n/a	n/a	-999	7	[5, 8, 2]	15.0	catFR1	2	R1640T
944.678	2.148	1177962	REC_START	n/a	n/a	n/a	n/a	-999	7	[0, 0, 0]	n/a	catFR1	2	R1640T
946.826	0.519	1180110	REC_WORD_VV	2.148	n/a	<>	n/a	-999	7	[0, 0, 0]	n/a	catFR1	2	R1640T
947.345	0.956	1180629	REC_WORD	2.667	n/a	BOOKCASE	Furniture	1	7	[0, 0, 0]	n/a	catFR1	2	R1640T
948.301	2.873	1181585	REC_WORD	3.623	n/a	RAIN	Weather	3	7	[0, 0, 0]	n/a	catFR1	2	R1640T
951.174	4.722	1184458	REC_WORD	6.496	n/a	CLOUD	Weather	7	7	[0, 0, 0]	n/a	catFR1	2	R1640T
955.896	0.553	1189180	REC_WORD_VV	11.218	n/a	<>	n/a	-999	7	[0, 0, 0]	n/a	catFR1	2	R1640T
956.449	2.572	1189733	REC_WORD	11.771	n/a	THUNDER	Weather	4	7	[0, 0, 0]	n/a	catFR1	2	R1640T
959.021	15.804	1192305	REC_WORD_VV	14.343	n/a	<>	n/a	-999	7	[0, 0, 0]	n/a	catFR1	2	R1640T
974.825	4.057	1208109	TRIAL	n/a	n/a	n/a	n/a	-999	8	[0, 0, 0]	n/a	catFR1	2	R1640T
978.882	10.0	1212166	COUNTDOWN	n/a	n/a	n/a	n/a	-999	8	[0, 0, 0]	n/a	catFR1	2	R1640T
989.248	2.117	1222532	ENCODING_START	n/a	n/a	n/a	n/a	-999	8	[0, 0, 0]	n/a	catFR1	2	R1640T
991.365	1.6	1224649	WORD	n/a	wordpools/wordpool_categorized_EN.txt	BASEBALL	Toys	1	8	[0, 0, 0]	n/a	catFR1	2	R1640T
993.765	1.6	1227049	WORD	n/a	wordpools/wordpool_categorized_EN.txt	FRISBEE	Toys	2	8	[0, 0, 0]	n/a	catFR1	2	R1640T
996.198	1.6	1229482	WORD	n/a	wordpools/wordpool_categorized_EN.txt	SPINACH	Vegetables	3	8	[0, 0, 0]	n/a	catFR1	2	R1640T
998.664	1.6	1231948	WORD	n/a	wordpools/wordpool_categorized_EN.txt	LETTUCE	Vegetables	4	8	[0, 0, 0]	n/a	catFR1	2	R1640T
1001.265	1.6	1234549	WORD	n/a	wordpools/wordpool_categorized_EN.txt	PENCIL	OfficeSupplies	5	8	[0, 0, 0]	n/a	catFR1	2	R1640T
1003.714	1.6	1236998	WORD	n/a	wordpools/wordpool_categorized_EN.txt	RULER	OfficeSupplies	6	8	[0, 0, 0]	n/a	catFR1	2	R1640T
1006.098	1.6	1239382	WORD	n/a	wordpools/wordpool_categorized_EN.txt	BALL	Toys	7	8	[0, 0, 0]	n/a	catFR1	2	R1640T
1008.564	1.6	1241848	WORD	n/a	wordpools/wordpool_categorized_EN.txt	DOLLHOUSE	Toys	8	8	[0, 0, 0]	n/a	catFR1	2	R1640T
1011.131	1.6	1244415	WORD	n/a	wordpools/wordpool_categorized_EN.txt	CAULIFLOWER	Vegetables	9	8	[0, 0, 0]	n/a	catFR1	2	R1640T
1013.53	1.6	1246814	WORD	n/a	wordpools/wordpool_categorized_EN.txt	POTATO	Vegetables	10	8	[0, 0, 0]	n/a	catFR1	2	R1640T
1015.997	1.6	1249281	WORD	n/a	wordpools/wordpool_categorized_EN.txt	MARKER	OfficeSupplies	11	8	[0, 0, 0]	n/a	catFR1	2	R1640T
1018.58	1.6	1251864	WORD	n/a	wordpools/wordpool_categorized_EN.txt	GLUE	OfficeSupplies	12	8	[0, 0, 0]	n/a	catFR1	2	R1640T
1020.197	0.001	1253481	PROB	10.348	n/a	n/a	n/a	-999	8	[4, 8, 3]	15.0	catFR1	2	R1640T
1020.198	10.365	1253482	DISTRACT_START	n/a	n/a	n/a	n/a	-999	8	[0, 0, 0]	n/a	catFR1	2	R1640T
1030.563	9.55	1263847	PROB	9.532	n/a	n/a	n/a	-999	8	[8, 8, 8]	24.0	catFR1	2	R1640T
1040.113	6.9	1273397	PROB	4.766	n/a	n/a	n/a	-999	8	[4, 4, 1]	9.0	catFR1	2	R1640T
1047.013	2.928	1280297	REC_START	n/a	n/a	n/a	n/a	-999	8	[0, 0, 0]	n/a	catFR1	2	R1640T
1049.941	1.061	1283225	REC_WORD_VV	2.928	n/a	<>	n/a	-999	8	[0, 0, 0]	n/a	catFR1	2	R1640T
1051.002	14.457	1284286	REC_WORD	3.989	n/a	GLUE	OfficeSupplies	12	8	[0, 0, 0]	n/a	catFR1	2	R1640T
1065.459	1.0	1298743	REC_WORD_VV	18.446	n/a	<>	n/a	-999	8	[0, 0, 0]	n/a	catFR1	2	R1640T
1066.459	10.696	1299743	REC_WORD_VV	19.446	n/a	<>	n/a	-999	8	[0, 0, 0]	n/a	catFR1	2	R1640T
1077.155	2.989	1310439	TRIAL	n/a	n/a	n/a	n/a	-999	9	[0, 0, 0]	n/a	catFR1	2	R1640T
1080.144	10.0	1313428	COUNTDOWN	n/a	n/a	n/a	n/a	-999	9	[0, 0, 0]	n/a	catFR1	2	R1640T
1090.493	2.049	1323777	ENCODING_START	n/a	n/a	n/a	n/a	-999	9	[0, 0, 0]	n/a	catFR1	2	R1640T
1092.542	1.6	1325826	WORD	n/a	wordpools/wordpool_categorized_EN.txt	CHERRY	Fruit	1	9	[0, 0, 0]	n/a	catFR1	2	R1640T
1095.06	1.6	1328344	WORD	n/a	wordpools/wordpool_categorized_EN.txt	BLUEBERRY	Fruit	2	9	[0, 0, 0]	n/a	catFR1	2	R1640T
1097.613	1.6	1330897	WORD	n/a	wordpools/wordpool_categorized_EN.txt	ONION	Vegetables	3	9	[0, 0, 0]	n/a	catFR1	2	R1640T
1100.009	1.6	1333293	WORD	n/a	wordpools/wordpool_categorized_EN.txt	BROCCOLI	Vegetables	4	9	[0, 0, 0]	n/a	catFR1	2	R1640T
1102.459	1.6	1335743	WORD	n/a	wordpools/wordpool_categorized_EN.txt	BIKE	Vehicles	5	9	[0, 0, 0]	n/a	catFR1	2	R1640T
1104.843	1.6	1338127	WORD	n/a	wordpools/wordpool_categorized_EN.txt	BUS	Vehicles	6	9	[0, 0, 0]	n/a	catFR1	2	R1640T
1107.36	1.6	1340644	WORD	n/a	wordpools/wordpool_categorized_EN.txt	PEAR	Fruit	7	9	[0, 0, 0]	n/a	catFR1	2	R1640T
1109.84	1.6	1343124	WORD	n/a	wordpools/wordpool_categorized_EN.txt	GRAPE	Fruit	8	9	[0, 0, 0]	n/a	catFR1	2	R1640T
1112.343	1.6	1345627	WORD	n/a	wordpools/wordpool_categorized_EN.txt	CELERY	Vegetables	9	9	[0, 0, 0]	n/a	catFR1	2	R1640T
1114.725	1.6	1348009	WORD	n/a	wordpools/wordpool_categorized_EN.txt	CABBAGE	Vegetables	10	9	[0, 0, 0]	n/a	catFR1	2	R1640T
1117.126	1.6	1350410	WORD	n/a	wordpools/wordpool_categorized_EN.txt	JEEP	Vehicles	11	9	[0, 0, 0]	n/a	catFR1	2	R1640T
1119.726	1.6	1353010	WORD	n/a	wordpools/wordpool_categorized_EN.txt	TRAIN	Vehicles	12	9	[0, 0, 0]	n/a	catFR1	2	R1640T
1121.342	0.001	1354626	PROB	16.765	n/a	n/a	n/a	-999	9	[4, 8, 2]	14.0	catFR1	2	R1640T
1121.343	16.782	1354627	DISTRACT_START	n/a	n/a	n/a	n/a	-999	9	[0, 0, 0]	n/a	catFR1	2	R1640T
1138.125	7.921	1371409	PROB	5.732	n/a	n/a	n/a	-999	9	[3, 1, 7]	11.0	catFR1	2	R1640T
1146.046	7.387	1379330	REC_START	n/a	n/a	n/a	n/a	-999	9	[0, 0, 0]	n/a	catFR1	2	R1640T
1153.433	0.148	1386717	REC_WORD_VV	7.387	n/a	<>	n/a	-999	9	[0, 0, 0]	n/a	catFR1	2	R1640T
1153.581	18.807	1386865	REC_WORD	7.535	n/a	PEAR	Fruit	7	9	[0, 0, 0]	n/a	catFR1	2	R1640T
1172.388	1.0	1405672	REC_WORD_VV	26.342	n/a	<>	n/a	-999	9	[0, 0, 0]	n/a	catFR1	2	R1640T
1173.388	2.797	1406672	REC_WORD_VV	27.342	n/a	<>	n/a	-999	9	[0, 0, 0]	n/a	catFR1	2	R1640T
1176.185	3.021	1409469	TRIAL	n/a	n/a	n/a	n/a	-999	10	[0, 0, 0]	n/a	catFR1	2	R1640T
1179.206	10.0	1412490	COUNTDOWN	n/a	n/a	n/a	n/a	-999	10	[0, 0, 0]	n/a	catFR1	2	R1640T
1189.572	2.383	1422856	ENCODING_START	n/a	n/a	n/a	n/a	-999	10	[0, 0, 0]	n/a	catFR1	2	R1640T
1191.955	1.6	1425239	WORD	n/a	wordpools/wordpool_categorized_EN.txt	SOFA	Furniture	1	10	[0, 0, 0]	n/a	catFR1	2	R1640T
1194.339	1.6	1427623	WORD	n/a	wordpools/wordpool_categorized_EN.txt	DESK	Furniture	2	10	[0, 0, 0]	n/a	catFR1	2	R1640T
1196.722	1.6	1430006	WORD	n/a	wordpools/wordpool_categorized_EN.txt	VAN	Vehicles	3	10	[0, 0, 0]	n/a	catFR1	2	R1640T
1199.155	1.6	1432439	WORD	n/a	wordpools/wordpool_categorized_EN.txt	SCOOTER	Vehicles	4	10	[0, 0, 0]	n/a	catFR1	2	R1640T
1201.755	1.6	1435039	WORD	n/a	wordpools/wordpool_categorized_EN.txt	DRYER	Appliances	5	10	[0, 0, 0]	n/a	catFR1	2	R1640T
1204.27	1.6	1437554	WORD	n/a	wordpools/wordpool_categorized_EN.txt	BLENDER	Appliances	6	10	[0, 0, 0]	n/a	catFR1	2	R1640T
1206.838	1.6	1440122	WORD	n/a	wordpools/wordpool_categorized_EN.txt	CABINET	Furniture	7	10	[0, 0, 0]	n/a	catFR1	2	R1640T
1209.237	1.6	1442521	WORD	n/a	wordpools/wordpool_categorized_EN.txt	RECLINER	Furniture	8	10	[0, 0, 0]	n/a	catFR1	2	R1640T
1211.737	1.6	1445021	WORD	n/a	wordpools/wordpool_categorized_EN.txt	TRUCK	Vehicles	9	10	[0, 0, 0]	n/a	catFR1	2	R1640T
1214.238	1.6	1447522	WORD	n/a	wordpools/wordpool_categorized_EN.txt	MOPED	Vehicles	10	10	[0, 0, 0]	n/a	catFR1	2	R1640T
1216.838	1.6	1450122	WORD	n/a	wordpools/wordpool_categorized_EN.txt	DISHWASHER	Appliances	11	10	[0, 0, 0]	n/a	catFR1	2	R1640T
1219.287	1.6	1452571	WORD	n/a	wordpools/wordpool_categorized_EN.txt	STOVE	Appliances	12	10	[0, 0, 0]	n/a	catFR1	2	R1640T
1220.887	0.002	1454171	PROB	8.216	n/a	n/a	n/a	-999	10	[4, 5, 6]	15.0	catFR1	2	R1640T
1220.889	8.231	1454173	DISTRACT_START	n/a	n/a	n/a	n/a	-999	10	[0, 0, 0]	n/a	catFR1	2	R1640T
1229.12	5.733	1462404	PROB	5.716	n/a	n/a	n/a	-999	10	[5, 4, 5]	14.0	catFR1	2	R1640T
1234.853	11.257	1468137	PROB	8.916	n/a	n/a	n/a	-999	10	[3, 1, 6]	10.0	catFR1	2	R1640T
1246.11	30.014	1479394	REC_START	n/a	n/a	n/a	n/a	-999	10	[0, 0, 0]	n/a	catFR1	2	R1640T
1276.124	0.15	1509408	REC_WORD_VV	30.014	n/a	<>	n/a	-999	10	[0, 0, 0]	n/a	catFR1	2	R1640T
1276.274	3.226	1509558	TRIAL	n/a	n/a	n/a	n/a	-999	11	[0, 0, 0]	n/a	catFR1	2	R1640T
1279.5	10.0	1512784	COUNTDOWN	n/a	n/a	n/a	n/a	-999	11	[0, 0, 0]	n/a	catFR1	2	R1640T
1289.85	2.217	1523134	ENCODING_START	n/a	n/a	n/a	n/a	-999	11	[0, 0, 0]	n/a	catFR1	2	R1640T
1292.067	1.6	1525351	WORD	n/a	wordpools/wordpool_categorized_EN.txt	LIGHTNING	Weather	1	11	[0, 0, 0]	n/a	catFR1	2	R1640T
1294.584	1.6	1527868	WORD	n/a	wordpools/wordpool_categorized_EN.txt	SNOW	Weather	2	11	[0, 0, 0]	n/a	catFR1	2	R1640T
1297.184	1.6	1530468	WORD	n/a	wordpools/wordpool_categorized_EN.txt	WALL	Building	3	11	[0, 0, 0]	n/a	catFR1	2	R1640T
1299.584	1.6	1532868	WORD	n/a	wordpools/wordpool_categorized_EN.txt	ROOF	Building	4	11	[0, 0, 0]	n/a	catFR1	2	R1640T
1302.0	1.6	1535284	WORD	n/a	wordpools/wordpool_categorized_EN.txt	NOTEBOOK	OfficeSupplies	5	11	[0, 0, 0]	n/a	catFR1	2	R1640T
1304.584	1.6	1537868	WORD	n/a	wordpools/wordpool_categorized_EN.txt	ERASER	OfficeSupplies	6	11	[0, 0, 0]	n/a	catFR1	2	R1640T
1307.034	1.6	1540318	WORD	n/a	wordpools/wordpool_categorized_EN.txt	WIND	Weather	7	11	[0, 0, 0]	n/a	catFR1	2	R1640T
1309.45	1.6	1542734	WORD	n/a	wordpools/wordpool_categorized_EN.txt	THUNDERSTORM	Weather	8	11	[0, 0, 0]	n/a	catFR1	2	R1640T
1312.016	1.6	1545300	WORD	n/a	wordpools/wordpool_categorized_EN.txt	PAPER	OfficeSupplies	9	11	[0, 0, 0]	n/a	catFR1	2	R1640T
1314.55	1.6	1547834	WORD	n/a	wordpools/wordpool_categorized_EN.txt	BINDER	OfficeSupplies	10	11	[0, 0, 0]	n/a	catFR1	2	R1640T
1317.066	1.6	1550350	WORD	n/a	wordpools/wordpool_categorized_EN.txt	WINDOW	Building	11	11	[0, 0, 0]	n/a	catFR1	2	R1640T
1319.532	1.6	1552816	WORD	n/a	wordpools/wordpool_categorized_EN.txt	ROOM	Building	12	11	[0, 0, 0]	n/a	catFR1	2	R1640T
1321.133	0.001	1554417	PROB	12.115	n/a	n/a	n/a	-999	11	[1, 2, 4]	7.0	catFR1	2	R1640T
1321.134	12.131	1554418	DISTRACT_START	n/a	n/a	n/a	n/a	-999	11	[0, 0, 0]	n/a	catFR1	2	R1640T
1333.265	5.499	1566549	PROB	5.483	n/a	n/a	n/a	-999	11	[2, 2, 2]	6.0	catFR1	2	R1640T
1338.764	10.622	1572048	PROB	8.499	n/a	n/a	n/a	-999	11	[2, 2, 6]	10.0	catFR1	2	R1640T
1349.386	1.998	1582670	REC_START	n/a	n/a	n/a	n/a	-999	11	[0, 0, 0]	n/a	catFR1	2	R1640T
1351.384	0.635	1584668	REC_WORD_VV	1.998	n/a	<>	n/a	-999	11	[0, 0, 0]	n/a	catFR1	2	R1640T
1352.019	4.961	1585303	REC_WORD	2.633	n/a	SNOWBALL	n/a	-999	11	[0, 0, 0]	n/a	catFR1	2	R1640T
1356.98	4.44	1590264	REC_WORD	7.594	n/a	WALL	Building	3	11	[0, 0, 0]	n/a	catFR1	2	R1640T
1361.42	4.533	1594704	REC_WORD_VV	12.034	n/a	<>	n/a	-999	11	[0, 0, 0]	n/a	catFR1	2	R1640T
1365.953	5.148	1599237	REC_WORD_VV	16.567	n/a	<>	n/a	-999	11	[0, 0, 0]	n/a	catFR1	2	R1640T
1371.101	8.419	1604385	REC_WORD_VV	21.715	n/a	<>	n/a	-999	11	[0, 0, 0]	n/a	catFR1	2	R1640T
1379.52	2.009	1612804	TRIAL	n/a	n/a	n/a	n/a	-999	12	[0, 0, 0]	n/a	catFR1	2	R1640T
1381.529	10.0	1614813	COUNTDOWN	n/a	n/a	n/a	n/a	-999	12	[0, 0, 0]	n/a	catFR1	2	R1640T
1391.878	2.201	1625162	ENCODING_START	n/a	n/a	n/a	n/a	-999	12	[0, 0, 0]	n/a	catFR1	2	R1640T
1394.079	1.6	1627363	WORD	n/a	wordpools/wordpool_categorized_EN.txt	HALLWAY	Building	1	12	[0, 0, 0]	n/a	catFR1	2	R1640T
1396.496	1.6	1629780	WORD	n/a	wordpools/wordpool_categorized_EN.txt	ATTIC	Building	2	12	[0, 0, 0]	n/a	catFR1	2	R1640T
1399.045	1.6	1632329	WORD	n/a	wordpools/wordpool_categorized_EN.txt	PLIERS	Tools	3	12	[0, 0, 0]	n/a	catFR1	2	R1640T
1401.429	1.6	1634713	WORD	n/a	wordpools/wordpool_categorized_EN.txt	AXE	Tools	4	12	[0, 0, 0]	n/a	catFR1	2	R1640T
1403.996	1.6	1637280	WORD	n/a	wordpools/wordpool_categorized_EN.txt	TORNADO	Weather	5	12	[0, 0, 0]	n/a	catFR1	2	R1640T
1406.378	1.6	1639662	WORD	n/a	wordpools/wordpool_categorized_EN.txt	HUMIDITY	Weather	6	12	[0, 0, 0]	n/a	catFR1	2	R1640T
1408.778	1.6	1642062	WORD	n/a	wordpools/wordpool_categorized_EN.txt	SANDER	Tools	7	12	[0, 0, 0]	n/a	catFR1	2	R1640T
1411.245	1.6	1644529	WORD	n/a	wordpools/wordpool_categorized_EN.txt	CROWBAR	Tools	8	12	[0, 0, 0]	n/a	catFR1	2	R1640T
1413.811	1.6	1647095	WORD	n/a	wordpools/wordpool_categorized_EN.txt	CEILING	Building	9	12	[0, 0, 0]	n/a	catFR1	2	R1640T
1416.311	1.6	1649595	WORD	n/a	wordpools/wordpool_categorized_EN.txt	FOUNDATION	Building	10	12	[0, 0, 0]	n/a	catFR1	2	R1640T
1418.81	1.6	1652094	WORD	n/a	wordpools/wordpool_categorized_EN.txt	FOG	Weather	11	12	[0, 0, 0]	n/a	catFR1	2	R1640T
1421.328	1.6	1654612	WORD	n/a	wordpools/wordpool_categorized_EN.txt	DRIZZLE	Weather	12	12	[0, 0, 0]	n/a	catFR1	2	R1640T
1422.945	0.001	1656229	PROB	9.116	n/a	n/a	n/a	-999	12	[1, 7, 5]	13.0	catFR1	2	R1640T
1422.946	9.132	1656230	DISTRACT_START	n/a	n/a	n/a	n/a	-999	12	[0, 0, 0]	n/a	catFR1	2	R1640T
1432.078	5.583	1665362	PROB	5.566	n/a	n/a	n/a	-999	12	[2, 6, 6]	14.0	catFR1	2	R1640T
1437.661	15.071	1670945	PROB	12.699	n/a	n/a	n/a	-999	12	[7, 4, 8]	19.0	catFR1	2	R1640T
1452.732	9.82	1686016	REC_START	n/a	n/a	n/a	n/a	-999	12	[0, 0, 0]	n/a	catFR1	2	R1640T
1462.552	3.479	1695836	REC_WORD_VV	9.82	n/a	<>	n/a	-999	12	[0, 0, 0]	n/a	catFR1	2	R1640T
1466.031	10.003	1699315	REC_WORD	13.299	n/a	MEATBALL	n/a	-999	12	[0, 0, 0]	n/a	catFR1	2	R1640T
1476.034	6.84	1709318	REC_WORD	23.302	n/a	STOVE	Appliances	-999	12	[0, 0, 0]	n/a	catFR1	2	R1640T
1482.874	0.0	1716158	SESS_END	n/a	n/a	n/a	n/a	-999	12	[0, 0, 0]	n/a	catFR1	2	R1640T
