onset	duration	sample	trial_type	response_time	stim_file	item_name	category	serialpos	list	test	answer	experiment	session	subject
0.0	30.064	227720	SESS_START	n/a	n/a	n/a	n/a	-999	-999	[0, 0, 0]	n/a	catFR1	3	R1108J
30.064	10.428	257784	COUNTDOWN_START	n/a	n/a	n/a	n/a	-999	-999	[0, 0, 0]	n/a	catFR1	3	R1108J
40.492	3.858	268212	COUNTDOWN_END	n/a	n/a	n/a	n/a	-999	-999	[0, 0, 0]	n/a	catFR1	3	R1108J
44.35	2.499	272070	PRACTICE_WORD	n/a	n/a	FLOOD	n/a	-999	-999	[0, 0, 0]	n/a	catFR1	3	R1108J
46.849	2.468	274569	PRACTICE_WORD	n/a	n/a	CAMEL	n/a	-999	-999	[0, 0, 0]	n/a	catFR1	3	R1108J
49.317	2.599	277037	PRACTICE_WORD	n/a	n/a	TONGUE	n/a	-999	-999	[0, 0, 0]	n/a	catFR1	3	R1108J
51.916	2.485	279636	PRACTICE_WORD	n/a	n/a	WATCH	n/a	-999	-999	[0, 0, 0]	n/a	catFR1	3	R1108J
54.401	2.483	282121	PRACTICE_WORD	n/a	n/a	ATTIC	n/a	-999	-999	[0, 0, 0]	n/a	catFR1	3	R1108J
56.884	2.501	284604	PRACTICE_WORD	n/a	n/a	RING	n/a	-999	-999	[0, 0, 0]	n/a	catFR1	3	R1108J
59.385	2.583	287105	PRACTICE_WORD	n/a	n/a	IRON	n/a	-999	-999	[0, 0, 0]	n/a	catFR1	3	R1108J
61.968	2.6	289688	PRACTICE_WORD	n/a	n/a	RHINO	n/a	-999	-999	[0, 0, 0]	n/a	catFR1	3	R1108J
64.568	2.417	292288	PRACTICE_WORD	n/a	n/a	BEAM	n/a	-999	-999	[0, 0, 0]	n/a	catFR1	3	R1108J
66.985	2.55	294705	PRACTICE_WORD	n/a	n/a	COTTON	n/a	-999	-999	[0, 0, 0]	n/a	catFR1	3	R1108J
69.535	2.567	297255	PRACTICE_WORD	n/a	n/a	WAGON	n/a	-999	-999	[0, 0, 0]	n/a	catFR1	3	R1108J
72.102	1.617	299822	PRACTICE_WORD	n/a	n/a	CHEST	n/a	-999	-999	[0, 0, 0]	n/a	catFR1	3	R1108J
73.719	0.001	301439	PRACTICE_DISTRACT_START	n/a	n/a	n/a	n/a	-999	-999	[0, 0, 0]	n/a	catFR1	3	R1108J
73.72	0.016	301440	START	n/a	n/a	n/a	n/a	-999	-1	[-999, -999, -999]	n/a	catFR1	3	R1108J
73.736	8.134	301456	PROB	8.134	n/a	n/a	n/a	-999	-1	[7, 2, 4]	13	catFR1	3	R1108J
81.87	8.184	309590	PROB	8.184	n/a	n/a	n/a	-999	-1	[4, 9, 6]	19	catFR1	3	R1108J
90.054	11.076	317774	PROB	11.076	n/a	n/a	n/a	-999	-1	[6, 6, 7]	19	catFR1	3	R1108J
101.13	0.009	328850	STOP	n/a	n/a	n/a	n/a	-999	-1	[-999, -999, -999]	n/a	catFR1	3	R1108J
101.139	0.669	328859	PRACTICE_DISTRACT_END	n/a	n/a	n/a	n/a	-999	-999	[0, 0, 0]	n/a	catFR1	3	R1108J
101.808	30.516	329528	PRACTICE_REC_START	n/a	n/a	n/a	n/a	-999	-999	[0, 0, 0]	n/a	catFR1	3	R1108J
132.324	4.503	360044	PRACTICE_REC_END	n/a	n/a	n/a	n/a	-999	-999	[0, 0, 0]	n/a	catFR1	3	R1108J
136.827	0.001	364547	COUNTDOWN_START	n/a	n/a	n/a	n/a	-999	1	[0, 0, 0]	n/a	catFR1	3	R1108J
136.828	10.427	364548	TRIAL	n/a	n/a	n/a	n/a	-999	1	[0, 0, 0]	n/a	catFR1	3	R1108J
147.255	0.008	374975	COUNTDOWN_END	n/a	n/a	n/a	n/a	-999	1	[0, 0, 0]	n/a	catFR1	3	R1108J
147.263	3.499	374983	ORIENT	n/a	n/a	n/a	n/a	-999	1	[0, 0, 0]	n/a	catFR1	3	R1108J
150.762	2.502	378482	WORD	n/a	wordpools/wordpool_categorized_EN.txt	WHISK	KitchenTools	1	1	[0, 0, 0]	n/a	catFR1	3	R1108J
153.264	2.616	380984	WORD	n/a	wordpools/wordpool_categorized_EN.txt	CORKSCREW	KitchenTools	2	1	[0, 0, 0]	n/a	catFR1	3	R1108J
155.88	2.401	383600	WORD	n/a	wordpools/wordpool_categorized_EN.txt	RAIN	Weather	3	1	[0, 0, 0]	n/a	catFR1	3	R1108J
158.281	2.549	386001	WORD	n/a	wordpools/wordpool_categorized_EN.txt	THUNDER	Weather	4	1	[0, 0, 0]	n/a	catFR1	3	R1108J
160.83	2.485	388550	WORD	n/a	wordpools/wordpool_categorized_EN.txt	COFFEE	Beverages	5	1	[0, 0, 0]	n/a	catFR1	3	R1108J
163.315	2.416	391035	WORD	n/a	wordpools/wordpool_categorized_EN.txt	COLA	Beverages	6	1	[0, 0, 0]	n/a	catFR1	3	R1108J
165.731	2.568	393451	WORD	n/a	wordpools/wordpool_categorized_EN.txt	COLANDER	KitchenTools	7	1	[0, 0, 0]	n/a	catFR1	3	R1108J
168.299	2.582	396019	WORD	n/a	wordpools/wordpool_categorized_EN.txt	SPOON	KitchenTools	8	1	[0, 0, 0]	n/a	catFR1	3	R1108J
170.881	2.518	398601	WORD	n/a	wordpools/wordpool_categorized_EN.txt	CIDER	Beverages	9	1	[0, 0, 0]	n/a	catFR1	3	R1108J
173.399	2.467	401119	WORD	n/a	wordpools/wordpool_categorized_EN.txt	RUM	Beverages	10	1	[0, 0, 0]	n/a	catFR1	3	R1108J
175.866	2.55	403586	WORD	n/a	wordpools/wordpool_categorized_EN.txt	LIGHTNING	Weather	11	1	[0, 0, 0]	n/a	catFR1	3	R1108J
178.416	1.617	406136	WORD	n/a	wordpools/wordpool_categorized_EN.txt	SNOW	Weather	12	1	[0, 0, 0]	n/a	catFR1	3	R1108J
180.033	0.001	407753	DISTRACT_START	n/a	n/a	n/a	n/a	-999	1	[0, 0, 0]	n/a	catFR1	3	R1108J
180.034	0.015	407754	START	n/a	n/a	n/a	n/a	-999	1	[-999, -999, -999]	n/a	catFR1	3	R1108J
180.049	9.835	407769	PROB	9.835	n/a	n/a	n/a	-999	1	[5, 4, 7]	16	catFR1	3	R1108J
189.884	11.282	417604	PROB	11.282	n/a	n/a	n/a	-999	1	[9, 6, 7]	22	catFR1	3	R1108J
201.166	0.019	428885	STOP	n/a	n/a	n/a	n/a	-999	1	[-999, -999, -999]	n/a	catFR1	3	R1108J
201.185	1.153	428904	DISTRACT_END	n/a	n/a	n/a	n/a	-999	1	[0, 0, 0]	n/a	catFR1	3	R1108J
202.338	1.036	430057	REC_START	n/a	n/a	n/a	n/a	-999	1	[0, 0, 0]	n/a	catFR1	3	R1108J
203.374	0.73	431093	REC_WORD	0.73	n/a	ROOM	n/a	-999	1	[0, 0, 0]	n/a	catFR1	3	R1108J
204.104	0.756	431823	REC_WORD	0.756	n/a	COLA	Beverages	6	1	[0, 0, 0]	n/a	catFR1	3	R1108J
204.86	1.636	432579	REC_WORD	1.636	n/a	COFFEE	Beverages	5	1	[0, 0, 0]	n/a	catFR1	3	R1108J
206.496	1.236	434215	REC_WORD	1.236	n/a	COLANDER	KitchenTools	7	1	[0, 0, 0]	n/a	catFR1	3	R1108J
207.732	0.872	435451	REC_WORD	0.872	n/a	WHISK	KitchenTools	1	1	[0, 0, 0]	n/a	catFR1	3	R1108J
208.604	2.043	436323	REC_WORD	2.043	n/a	SPOON	KitchenTools	8	1	[0, 0, 0]	n/a	catFR1	3	R1108J
210.647	2.222	438366	REC_WORD	2.222	n/a	CIDER	Beverages	9	1	[0, 0, 0]	n/a	catFR1	3	R1108J
212.869	1.041	440588	REC_WORD	1.041	n/a	THUNDER	Weather	4	1	[0, 0, 0]	n/a	catFR1	3	R1108J
213.91	2.065	441629	REC_WORD	2.065	n/a	RAIN	Weather	3	1	[0, 0, 0]	n/a	catFR1	3	R1108J
215.975	16.373	443694	REC_WORD_VV	16.373	n/a	<>	n/a	-999	1	[0, 0, 0]	n/a	catFR1	3	R1108J
232.348	2.492	460067	REC_END	n/a	n/a	n/a	n/a	-999	1	[0, 0, 0]	n/a	catFR1	3	R1108J
234.84	0.0	462559	TRIAL	n/a	n/a	n/a	n/a	-999	2	[0, 0, 0]	n/a	catFR1	3	R1108J
234.84	10.428	462559	COUNTDOWN_START	n/a	n/a	n/a	n/a	-999	2	[0, 0, 0]	n/a	catFR1	3	R1108J
245.268	0.007	472987	COUNTDOWN_END	n/a	n/a	n/a	n/a	-999	2	[0, 0, 0]	n/a	catFR1	3	R1108J
245.275	3.683	472994	ORIENT	n/a	n/a	n/a	n/a	-999	2	[0, 0, 0]	n/a	catFR1	3	R1108J
248.958	2.467	476677	WORD	n/a	wordpools/wordpool_categorized_EN.txt	BEETLE	Insects	1	2	[0, 0, 0]	n/a	catFR1	3	R1108J
251.425	2.484	479144	WORD	n/a	wordpools/wordpool_categorized_EN.txt	MOTH	Insects	2	2	[0, 0, 0]	n/a	catFR1	3	R1108J
253.909	2.451	481628	WORD	n/a	wordpools/wordpool_categorized_EN.txt	BALL	Toys	3	2	[0, 0, 0]	n/a	catFR1	3	R1108J
256.36	2.432	484079	WORD	n/a	wordpools/wordpool_categorized_EN.txt	BLOCKS	Toys	4	2	[0, 0, 0]	n/a	catFR1	3	R1108J
258.792	2.485	486511	WORD	n/a	wordpools/wordpool_categorized_EN.txt	DISHWASHER	Appliances	5	2	[0, 0, 0]	n/a	catFR1	3	R1108J
261.277	2.616	488996	WORD	n/a	wordpools/wordpool_categorized_EN.txt	WASHER	Appliances	6	2	[0, 0, 0]	n/a	catFR1	3	R1108J
263.893	2.601	491612	WORD	n/a	wordpools/wordpool_categorized_EN.txt	MARBLES	Toys	7	2	[0, 0, 0]	n/a	catFR1	3	R1108J
266.494	2.4	494213	WORD	n/a	wordpools/wordpool_categorized_EN.txt	PUZZLE	Toys	8	2	[0, 0, 0]	n/a	catFR1	3	R1108J
268.894	2.6	496613	WORD	n/a	wordpools/wordpool_categorized_EN.txt	SPIDER	Insects	9	2	[0, 0, 0]	n/a	catFR1	3	R1108J
271.494	2.551	499213	WORD	n/a	wordpools/wordpool_categorized_EN.txt	ROACH	Insects	10	2	[0, 0, 0]	n/a	catFR1	3	R1108J
274.045	2.55	501764	WORD	n/a	wordpools/wordpool_categorized_EN.txt	TOASTER	Appliances	11	2	[0, 0, 0]	n/a	catFR1	3	R1108J
276.595	1.618	504314	WORD	n/a	wordpools/wordpool_categorized_EN.txt	BLENDER	Appliances	12	2	[0, 0, 0]	n/a	catFR1	3	R1108J
278.213	0.0	505932	DISTRACT_START	n/a	n/a	n/a	n/a	-999	2	[0, 0, 0]	n/a	catFR1	3	R1108J
278.213	0.016	505932	START	n/a	n/a	n/a	n/a	-999	2	[-999, -999, -999]	n/a	catFR1	3	R1108J
278.229	4.533	505948	PROB	4.533	n/a	n/a	n/a	-999	2	[9, 3, 9]	21	catFR1	3	R1108J
282.762	7.218	510481	PROB	7.218	n/a	n/a	n/a	-999	2	[4, 9, 5]	18	catFR1	3	R1108J
289.98	4.75	517699	PROB	4.75	n/a	n/a	n/a	-999	2	[5, 9, 5]	19	catFR1	3	R1108J
294.73	6.448	522449	PROB	6.448	n/a	n/a	n/a	-999	2	[4, 1, 4]	9	catFR1	3	R1108J
301.178	0.02	528897	STOP	n/a	n/a	n/a	n/a	-999	2	[-999, -999, -999]	n/a	catFR1	3	R1108J
301.198	1.068	528917	DISTRACT_END	n/a	n/a	n/a	n/a	-999	2	[0, 0, 0]	n/a	catFR1	3	R1108J
302.266	1.006	529985	REC_START	n/a	n/a	n/a	n/a	-999	2	[0, 0, 0]	n/a	catFR1	3	R1108J
303.272	0.805	530991	REC_WORD	0.805	n/a	ROACH	Insects	10	2	[0, 0, 0]	n/a	catFR1	3	R1108J
304.077	1.16	531796	REC_WORD	1.16	n/a	SPIDER	Insects	9	2	[0, 0, 0]	n/a	catFR1	3	R1108J
305.237	1.539	532956	REC_WORD	1.539	n/a	BEETLE	Insects	1	2	[0, 0, 0]	n/a	catFR1	3	R1108J
306.776	4.594	534495	REC_WORD_VV	4.594	n/a	<>	n/a	-999	2	[0, 0, 0]	n/a	catFR1	3	R1108J
311.37	1.0	539089	REC_WORD	1.0	n/a	DISHWASHER	Appliances	5	2	[0, 0, 0]	n/a	catFR1	3	R1108J
312.37	0.174	540089	REC_WORD_VV	0.174	n/a	<>	n/a	-999	2	[0, 0, 0]	n/a	catFR1	3	R1108J
312.544	1.59	540263	REC_WORD	1.59	n/a	WASHER	Appliances	6	2	[0, 0, 0]	n/a	catFR1	3	R1108J
314.134	1.087	541853	REC_WORD	1.087	n/a	MARBLES	Toys	7	2	[0, 0, 0]	n/a	catFR1	3	R1108J
315.221	1.296	542940	REC_WORD	1.296	n/a	PUZZLE	Toys	8	2	[0, 0, 0]	n/a	catFR1	3	R1108J
316.517	1.118	544236	REC_WORD	1.118	n/a	MOTH	Insects	2	2	[0, 0, 0]	n/a	catFR1	3	R1108J
317.635	1.42	545354	REC_WORD	1.42	n/a	BALL	Toys	3	2	[0, 0, 0]	n/a	catFR1	3	R1108J
319.055	5.515	546774	REC_WORD_VV	5.515	n/a	<>	n/a	-999	2	[0, 0, 0]	n/a	catFR1	3	R1108J
324.57	7.711	552289	REC_WORD	7.711	n/a	BLOCKS	Toys	4	2	[0, 0, 0]	n/a	catFR1	3	R1108J
332.281	10.122	560000	REC_END	n/a	n/a	n/a	n/a	-999	2	[0, 0, 0]	n/a	catFR1	3	R1108J
342.403	0.0	570122	COUNTDOWN_START	n/a	n/a	n/a	n/a	-999	3	[0, 0, 0]	n/a	catFR1	3	R1108J
342.403	10.428	570122	TRIAL	n/a	n/a	n/a	n/a	-999	3	[0, 0, 0]	n/a	catFR1	3	R1108J
352.831	0.007	580550	COUNTDOWN_END	n/a	n/a	n/a	n/a	-999	3	[0, 0, 0]	n/a	catFR1	3	R1108J
352.838	3.784	580557	ORIENT	n/a	n/a	n/a	n/a	-999	3	[0, 0, 0]	n/a	catFR1	3	R1108J
356.622	2.617	584341	WORD	n/a	wordpools/wordpool_categorized_EN.txt	GRATER	KitchenTools	1	3	[0, 0, 0]	n/a	catFR1	3	R1108J
359.239	2.533	586958	WORD	n/a	wordpools/wordpool_categorized_EN.txt	STRAINER	KitchenTools	2	3	[0, 0, 0]	n/a	catFR1	3	R1108J
361.772	2.417	589491	WORD	n/a	wordpools/wordpool_categorized_EN.txt	STEREO	Electronics	3	3	[0, 0, 0]	n/a	catFR1	3	R1108J
364.189	2.467	591908	WORD	n/a	wordpools/wordpool_categorized_EN.txt	HEADPHONES	Electronics	4	3	[0, 0, 0]	n/a	catFR1	3	R1108J
366.656	2.517	594375	WORD	n/a	wordpools/wordpool_categorized_EN.txt	GNAT	Insects	5	3	[0, 0, 0]	n/a	catFR1	3	R1108J
369.173	2.534	596892	WORD	n/a	wordpools/wordpool_categorized_EN.txt	FLY	Insects	6	3	[0, 0, 0]	n/a	catFR1	3	R1108J
371.707	2.568	599426	WORD	n/a	wordpools/wordpool_categorized_EN.txt	RADIO	Electronics	7	3	[0, 0, 0]	n/a	catFR1	3	R1108J
374.275	2.416	601994	WORD	n/a	wordpools/wordpool_categorized_EN.txt	SCANNER	Electronics	8	3	[0, 0, 0]	n/a	catFR1	3	R1108J
376.691	2.4	604410	WORD	n/a	wordpools/wordpool_categorized_EN.txt	SPATULA	KitchenTools	9	3	[0, 0, 0]	n/a	catFR1	3	R1108J
379.091	2.55	606810	WORD	n/a	wordpools/wordpool_categorized_EN.txt	LADLE	KitchenTools	10	3	[0, 0, 0]	n/a	catFR1	3	R1108J
381.641	2.434	609360	WORD	n/a	wordpools/wordpool_categorized_EN.txt	BUTTERFLY	Insects	11	3	[0, 0, 0]	n/a	catFR1	3	R1108J
384.075	1.617	611794	WORD	n/a	wordpools/wordpool_categorized_EN.txt	CRICKET	Insects	12	3	[0, 0, 0]	n/a	catFR1	3	R1108J
385.692	0.001	613411	DISTRACT_START	n/a	n/a	n/a	n/a	-999	3	[0, 0, 0]	n/a	catFR1	3	R1108J
385.693	0.016	613412	START	n/a	n/a	n/a	n/a	-999	3	[-999, -999, -999]	n/a	catFR1	3	R1108J
385.709	4.017	613428	PROB	4.017	n/a	n/a	n/a	-999	3	[7, 8, 2]	17	catFR1	3	R1108J
389.726	8.001	617445	PROB	8.001	n/a	n/a	n/a	-999	3	[9, 9, 5]	23	catFR1	3	R1108J
397.727	3.535	625446	PROB	3.535	n/a	n/a	n/a	-999	3	[5, 6, 1]	12	catFR1	3	R1108J
401.262	13.287	628981	PROB	13.287	n/a	n/a	n/a	-999	3	[4, 9, 6]	19	catFR1	3	R1108J
414.549	0.013	642268	STOP	n/a	n/a	n/a	n/a	-999	3	[-999, -999, -999]	n/a	catFR1	3	R1108J
414.562	1.034	642281	DISTRACT_END	n/a	n/a	n/a	n/a	-999	3	[0, 0, 0]	n/a	catFR1	3	R1108J
415.596	0.77	643315	REC_START	n/a	n/a	n/a	n/a	-999	3	[0, 0, 0]	n/a	catFR1	3	R1108J
416.366	0.764	644085	REC_WORD	0.764	n/a	GNAT	Insects	5	3	[0, 0, 0]	n/a	catFR1	3	R1108J
417.13	1.738	644849	REC_WORD	1.738	n/a	FLY	Insects	6	3	[0, 0, 0]	n/a	catFR1	3	R1108J
418.868	1.27	646587	REC_WORD_VV	1.27	n/a	<>	n/a	-999	3	[0, 0, 0]	n/a	catFR1	3	R1108J
420.138	1.41	647857	REC_WORD	1.41	n/a	CRICKET	Insects	12	3	[0, 0, 0]	n/a	catFR1	3	R1108J
421.548	2.505	649267	REC_WORD_VV	2.505	n/a	<>	n/a	-999	3	[0, 0, 0]	n/a	catFR1	3	R1108J
424.053	1.0	651772	REC_WORD	1.0	n/a	BUTTERFLY	Insects	11	3	[0, 0, 0]	n/a	catFR1	3	R1108J
425.053	1.056	652772	REC_WORD_VV	1.056	n/a	<>	n/a	-999	3	[0, 0, 0]	n/a	catFR1	3	R1108J
426.109	2.23	653828	REC_WORD_VV	2.23	n/a	<>	n/a	-999	3	[0, 0, 0]	n/a	catFR1	3	R1108J
428.339	11.716	656058	REC_WORD_VV	11.716	n/a	<>	n/a	-999	3	[0, 0, 0]	n/a	catFR1	3	R1108J
440.055	1.0	667774	REC_WORD_VV	1.0	n/a	<>	n/a	-999	3	[0, 0, 0]	n/a	catFR1	3	R1108J
441.055	4.556	668774	REC_WORD_VV	4.556	n/a	<>	n/a	-999	3	[0, 0, 0]	n/a	catFR1	3	R1108J
445.611	8.073	673330	REC_END	n/a	n/a	n/a	n/a	-999	3	[0, 0, 0]	n/a	catFR1	3	R1108J
453.684	0.0	681403	TRIAL	n/a	n/a	n/a	n/a	-999	4	[0, 0, 0]	n/a	catFR1	3	R1108J
453.684	10.428	681403	COUNTDOWN_START	n/a	n/a	n/a	n/a	-999	4	[0, 0, 0]	n/a	catFR1	3	R1108J
464.112	0.007	691831	COUNTDOWN_END	n/a	n/a	n/a	n/a	-999	4	[0, 0, 0]	n/a	catFR1	3	R1108J
464.119	3.9	691838	ORIENT	n/a	n/a	n/a	n/a	-999	4	[0, 0, 0]	n/a	catFR1	3	R1108J
468.019	2.434	695738	WORD	n/a	wordpools/wordpool_categorized_EN.txt	GUITAR	Instruments	1	4	[0, 0, 0]	n/a	catFR1	3	R1108J
470.453	2.4	698172	WORD	n/a	wordpools/wordpool_categorized_EN.txt	ORGAN	Instruments	2	4	[0, 0, 0]	n/a	catFR1	3	R1108J
472.853	2.501	700572	WORD	n/a	wordpools/wordpool_categorized_EN.txt	TIGER	Zoo	3	4	[0, 0, 0]	n/a	catFR1	3	R1108J
475.354	2.449	703073	WORD	n/a	wordpools/wordpool_categorized_EN.txt	MONKEY	Zoo	4	4	[0, 0, 0]	n/a	catFR1	3	R1108J
477.803	2.469	705522	WORD	n/a	wordpools/wordpool_categorized_EN.txt	SHRIMP	OceanAnimals	5	4	[0, 0, 0]	n/a	catFR1	3	R1108J
480.272	2.582	707991	WORD	n/a	wordpools/wordpool_categorized_EN.txt	PLANKTON	OceanAnimals	6	4	[0, 0, 0]	n/a	catFR1	3	R1108J
482.854	2.435	710573	WORD	n/a	wordpools/wordpool_categorized_EN.txt	ELEPHANT	Zoo	7	4	[0, 0, 0]	n/a	catFR1	3	R1108J
485.289	2.582	713008	WORD	n/a	wordpools/wordpool_categorized_EN.txt	BEAR	Zoo	8	4	[0, 0, 0]	n/a	catFR1	3	R1108J
487.871	2.601	715590	WORD	n/a	wordpools/wordpool_categorized_EN.txt	BASS	Instruments	9	4	[0, 0, 0]	n/a	catFR1	3	R1108J
490.472	2.6	718191	WORD	n/a	wordpools/wordpool_categorized_EN.txt	TRUMPET	Instruments	10	4	[0, 0, 0]	n/a	catFR1	3	R1108J
493.072	2.534	720791	WORD	n/a	wordpools/wordpool_categorized_EN.txt	FISH	OceanAnimals	11	4	[0, 0, 0]	n/a	catFR1	3	R1108J
495.606	1.601	723325	WORD	n/a	wordpools/wordpool_categorized_EN.txt	WHALE	OceanAnimals	12	4	[0, 0, 0]	n/a	catFR1	3	R1108J
497.207	0.001	724926	DISTRACT_START	n/a	n/a	n/a	n/a	-999	4	[0, 0, 0]	n/a	catFR1	3	R1108J
497.208	0.016	724927	START	n/a	n/a	n/a	n/a	-999	4	[-999, -999, -999]	n/a	catFR1	3	R1108J
497.224	3.766	724943	PROB	3.766	n/a	n/a	n/a	-999	4	[6, 3, 6]	15	catFR1	3	R1108J
500.99	11.219	728709	PROB	11.219	n/a	n/a	n/a	-999	4	[6, 6, 8]	20	catFR1	3	R1108J
512.209	10.687	739928	PROB	10.687	n/a	n/a	n/a	-999	4	[6, 3, 8]	17	catFR1	3	R1108J
522.896	0.013	750615	STOP	n/a	n/a	n/a	n/a	-999	4	[-999, -999, -999]	n/a	catFR1	3	R1108J
522.909	1.235	750628	DISTRACT_END	n/a	n/a	n/a	n/a	-999	4	[0, 0, 0]	n/a	catFR1	3	R1108J
524.144	1.016	751863	REC_START	n/a	n/a	n/a	n/a	-999	4	[0, 0, 0]	n/a	catFR1	3	R1108J
525.16	1.309	752879	REC_WORD	1.309	n/a	TIGER	Zoo	3	4	[0, 0, 0]	n/a	catFR1	3	R1108J
526.469	1.648	754188	REC_WORD	1.648	n/a	MONKEY	Zoo	4	4	[0, 0, 0]	n/a	catFR1	3	R1108J
528.117	1.0	755836	REC_WORD_VV	1.0	n/a	<>	n/a	-999	4	[0, 0, 0]	n/a	catFR1	3	R1108J
529.117	1.377	756836	REC_WORD_VV	1.377	n/a	<>	n/a	-999	4	[0, 0, 0]	n/a	catFR1	3	R1108J
530.494	1.563	758213	REC_WORD	1.563	n/a	ORGAN	Instruments	2	4	[0, 0, 0]	n/a	catFR1	3	R1108J
532.057	1.694	759776	REC_WORD	1.694	n/a	GUITAR	Instruments	1	4	[0, 0, 0]	n/a	catFR1	3	R1108J
533.751	4.453	761470	REC_WORD_VV	4.453	n/a	<>	n/a	-999	4	[0, 0, 0]	n/a	catFR1	3	R1108J
538.204	1.904	765923	REC_WORD	1.904	n/a	BASS	Instruments	9	4	[0, 0, 0]	n/a	catFR1	3	R1108J
540.108	2.357	767827	REC_WORD	2.357	n/a	TRUMPET	Instruments	10	4	[0, 0, 0]	n/a	catFR1	3	R1108J
542.465	11.69	770184	REC_WORD_VV	11.69	n/a	<>	n/a	-999	4	[0, 0, 0]	n/a	catFR1	3	R1108J
554.155	2.275	781873	REC_END	n/a	n/a	n/a	n/a	-999	4	[0, 0, 0]	n/a	catFR1	3	R1108J
556.43	0.001	784148	COUNTDOWN_START	n/a	n/a	n/a	n/a	-999	5	[0, 0, 0]	n/a	catFR1	3	R1108J
556.431	10.427	784149	TRIAL	n/a	n/a	n/a	n/a	-999	5	[0, 0, 0]	n/a	catFR1	3	R1108J
566.858	0.007	794576	COUNTDOWN_END	n/a	n/a	n/a	n/a	-999	5	[0, 0, 0]	n/a	catFR1	3	R1108J
566.865	3.501	794583	ORIENT	n/a	n/a	n/a	n/a	-999	5	[0, 0, 0]	n/a	catFR1	3	R1108J
570.366	2.566	798084	WORD	n/a	wordpools/wordpool_categorized_EN.txt	BROCCOLI	Vegetables	1	5	[0, 0, 0]	n/a	catFR1	3	R1108J
572.932	2.584	800650	WORD	n/a	wordpools/wordpool_categorized_EN.txt	PEAS	Vegetables	2	5	[0, 0, 0]	n/a	catFR1	3	R1108J
575.516	2.5	803234	WORD	n/a	wordpools/wordpool_categorized_EN.txt	TONGS	KitchenTools	3	5	[0, 0, 0]	n/a	catFR1	3	R1108J
578.016	2.501	805734	WORD	n/a	wordpools/wordpool_categorized_EN.txt	KNIFE	KitchenTools	4	5	[0, 0, 0]	n/a	catFR1	3	R1108J
580.517	2.617	808235	WORD	n/a	wordpools/wordpool_categorized_EN.txt	BUS	Vehicles	5	5	[0, 0, 0]	n/a	catFR1	3	R1108J
583.134	2.4	810852	WORD	n/a	wordpools/wordpool_categorized_EN.txt	PLANE	Vehicles	6	5	[0, 0, 0]	n/a	catFR1	3	R1108J
585.534	2.617	813252	WORD	n/a	wordpools/wordpool_categorized_EN.txt	CELERY	Vegetables	7	5	[0, 0, 0]	n/a	catFR1	3	R1108J
588.151	2.534	815869	WORD	n/a	wordpools/wordpool_categorized_EN.txt	LETTUCE	Vegetables	8	5	[0, 0, 0]	n/a	catFR1	3	R1108J
590.685	2.618	818403	WORD	n/a	wordpools/wordpool_categorized_EN.txt	TRAIN	Vehicles	9	5	[0, 0, 0]	n/a	catFR1	3	R1108J
593.303	2.599	821021	WORD	n/a	wordpools/wordpool_categorized_EN.txt	BIKE	Vehicles	10	5	[0, 0, 0]	n/a	catFR1	3	R1108J
595.902	2.617	823620	WORD	n/a	wordpools/wordpool_categorized_EN.txt	PEELER	KitchenTools	11	5	[0, 0, 0]	n/a	catFR1	3	R1108J
598.519	1.617	826237	WORD	n/a	wordpools/wordpool_categorized_EN.txt	FORK	KitchenTools	12	5	[0, 0, 0]	n/a	catFR1	3	R1108J
600.136	0.001	827854	DISTRACT_START	n/a	n/a	n/a	n/a	-999	5	[0, 0, 0]	n/a	catFR1	3	R1108J
600.137	0.015	827855	START	n/a	n/a	n/a	n/a	-999	5	[-999, -999, -999]	n/a	catFR1	3	R1108J
600.152	14.636	827870	PROB	14.636	n/a	n/a	n/a	-999	5	[8, 5, 7]	20	catFR1	3	R1108J
614.788	14.328	842506	PROB	14.328	n/a	n/a	n/a	-999	5	[7, 9, 5]	22	catFR1	3	R1108J
629.116	0.007	856834	STOP	n/a	n/a	n/a	n/a	-999	5	[-999, -999, -999]	n/a	catFR1	3	R1108J
629.123	1.034	856841	DISTRACT_END	n/a	n/a	n/a	n/a	-999	5	[0, 0, 0]	n/a	catFR1	3	R1108J
630.157	1.227	857875	REC_START	n/a	n/a	n/a	n/a	-999	5	[0, 0, 0]	n/a	catFR1	3	R1108J
631.384	1.442	859102	REC_WORD	1.442	n/a	PEELER	KitchenTools	11	5	[0, 0, 0]	n/a	catFR1	3	R1108J
632.826	1.802	860544	REC_WORD_VV	1.802	n/a	<>	n/a	-999	5	[0, 0, 0]	n/a	catFR1	3	R1108J
634.628	1.785	862346	REC_WORD	1.785	n/a	KNIFE	KitchenTools	4	5	[0, 0, 0]	n/a	catFR1	3	R1108J
636.413	1.0	864131	REC_WORD_VV	1.0	n/a	<>	n/a	-999	5	[0, 0, 0]	n/a	catFR1	3	R1108J
637.413	1.217	865131	REC_WORD_VV	1.217	n/a	<>	n/a	-999	5	[0, 0, 0]	n/a	catFR1	3	R1108J
638.63	1.362	866348	REC_WORD	1.362	n/a	BROCCOLI	Vegetables	1	5	[0, 0, 0]	n/a	catFR1	3	R1108J
639.992	1.0	867710	REC_WORD	1.0	n/a	PEAS	Vegetables	2	5	[0, 0, 0]	n/a	catFR1	3	R1108J
640.992	0.515	868710	REC_WORD_VV	0.515	n/a	<>	n/a	-999	5	[0, 0, 0]	n/a	catFR1	3	R1108J
641.507	1.272	869225	REC_WORD	1.272	n/a	LETTUCE	Vegetables	8	5	[0, 0, 0]	n/a	catFR1	3	R1108J
642.779	3.941	870497	REC_WORD_VV	3.941	n/a	<>	n/a	-999	5	[0, 0, 0]	n/a	catFR1	3	R1108J
646.72	1.779	874438	REC_WORD	1.779	n/a	PLANE	Vehicles	6	5	[0, 0, 0]	n/a	catFR1	3	R1108J
648.499	1.116	876217	REC_WORD	1.116	n/a	BIKE	Vehicles	10	5	[0, 0, 0]	n/a	catFR1	3	R1108J
649.615	1.7	877333	REC_WORD	1.7	n/a	BUS	Vehicles	5	5	[0, 0, 0]	n/a	catFR1	3	R1108J
651.315	8.854	879033	REC_WORD_VV	8.854	n/a	<>	n/a	-999	5	[0, 0, 0]	n/a	catFR1	3	R1108J
660.169	2.241	887887	REC_END	n/a	n/a	n/a	n/a	-999	5	[0, 0, 0]	n/a	catFR1	3	R1108J
662.41	0.001	890128	COUNTDOWN_START	n/a	n/a	n/a	n/a	-999	6	[0, 0, 0]	n/a	catFR1	3	R1108J
662.411	10.427	890129	TRIAL	n/a	n/a	n/a	n/a	-999	6	[0, 0, 0]	n/a	catFR1	3	R1108J
672.838	0.007	900556	COUNTDOWN_END	n/a	n/a	n/a	n/a	-999	6	[0, 0, 0]	n/a	catFR1	3	R1108J
672.845	3.667	900563	ORIENT	n/a	n/a	n/a	n/a	-999	6	[0, 0, 0]	n/a	catFR1	3	R1108J
676.512	2.6	904230	WORD	n/a	wordpools/wordpool_categorized_EN.txt	CARROT	Vegetables	1	6	[0, 0, 0]	n/a	catFR1	3	R1108J
679.112	2.401	906830	WORD	n/a	wordpools/wordpool_categorized_EN.txt	CORN	Vegetables	2	6	[0, 0, 0]	n/a	catFR1	3	R1108J
681.513	2.55	909231	WORD	n/a	wordpools/wordpool_categorized_EN.txt	JELLYFISH	OceanAnimals	3	6	[0, 0, 0]	n/a	catFR1	3	R1108J
684.063	2.584	911781	WORD	n/a	wordpools/wordpool_categorized_EN.txt	TURTLE	OceanAnimals	4	6	[0, 0, 0]	n/a	catFR1	3	R1108J
686.647	2.45	914365	WORD	n/a	wordpools/wordpool_categorized_EN.txt	BINDER	OfficeSupplies	5	6	[0, 0, 0]	n/a	catFR1	3	R1108J
689.097	2.517	916815	WORD	n/a	wordpools/wordpool_categorized_EN.txt	GLUE	OfficeSupplies	6	6	[0, 0, 0]	n/a	catFR1	3	R1108J
691.614	2.417	919332	WORD	n/a	wordpools/wordpool_categorized_EN.txt	LOBSTER	OceanAnimals	7	6	[0, 0, 0]	n/a	catFR1	3	R1108J
694.031	2.434	921749	WORD	n/a	wordpools/wordpool_categorized_EN.txt	SQUID	OceanAnimals	8	6	[0, 0, 0]	n/a	catFR1	3	R1108J
696.465	2.617	924183	WORD	n/a	wordpools/wordpool_categorized_EN.txt	POTATO	Vegetables	9	6	[0, 0, 0]	n/a	catFR1	3	R1108J
699.082	2.417	926800	WORD	n/a	wordpools/wordpool_categorized_EN.txt	SPINACH	Vegetables	10	6	[0, 0, 0]	n/a	catFR1	3	R1108J
701.499	2.483	929217	WORD	n/a	wordpools/wordpool_categorized_EN.txt	PENCIL	OfficeSupplies	11	6	[0, 0, 0]	n/a	catFR1	3	R1108J
703.982	1.617	931700	WORD	n/a	wordpools/wordpool_categorized_EN.txt	ERASER	OfficeSupplies	12	6	[0, 0, 0]	n/a	catFR1	3	R1108J
705.599	0.001	933317	DISTRACT_START	n/a	n/a	n/a	n/a	-999	6	[0, 0, 0]	n/a	catFR1	3	R1108J
705.6	0.016	933318	START	n/a	n/a	n/a	n/a	-999	6	[-999, -999, -999]	n/a	catFR1	3	R1108J
705.616	12.318	933334	PROB	12.318	n/a	n/a	n/a	-999	6	[5, 5, 4]	14	catFR1	3	R1108J
717.934	5.419	945652	PROB	5.419	n/a	n/a	n/a	-999	6	[6, 3, 3]	12	catFR1	3	R1108J
723.353	20.174	951071	PROB	20.174	n/a	n/a	n/a	-999	6	[7, 9, 8]	24	catFR1	3	R1108J
743.527	0.01	971245	STOP	n/a	n/a	n/a	n/a	-999	6	[-999, -999, -999]	n/a	catFR1	3	R1108J
743.537	1.118	971255	DISTRACT_END	n/a	n/a	n/a	n/a	-999	6	[0, 0, 0]	n/a	catFR1	3	R1108J
744.655	2.761	972373	REC_START	n/a	n/a	n/a	n/a	-999	6	[0, 0, 0]	n/a	catFR1	3	R1108J
747.416	0.344	975134	REC_WORD_VV	0.344	n/a	<>	n/a	-999	6	[0, 0, 0]	n/a	catFR1	3	R1108J
747.76	1.065	975478	REC_WORD	1.065	n/a	CARROT	Vegetables	1	6	[0, 0, 0]	n/a	catFR1	3	R1108J
748.825	25.841	976543	REC_WORD_VV	25.841	n/a	<>	n/a	-999	6	[0, 0, 0]	n/a	catFR1	3	R1108J
774.666	2.092	1002384	REC_END	n/a	n/a	n/a	n/a	-999	6	[0, 0, 0]	n/a	catFR1	3	R1108J
776.758	0.001	1004476	COUNTDOWN_START	n/a	n/a	n/a	n/a	-999	7	[0, 0, 0]	n/a	catFR1	3	R1108J
776.759	10.427	1004477	TRIAL	n/a	n/a	n/a	n/a	-999	7	[0, 0, 0]	n/a	catFR1	3	R1108J
787.186	0.007	1014904	COUNTDOWN_END	n/a	n/a	n/a	n/a	-999	7	[0, 0, 0]	n/a	catFR1	3	R1108J
787.193	3.634	1014911	ORIENT	n/a	n/a	n/a	n/a	-999	7	[0, 0, 0]	n/a	catFR1	3	R1108J
790.827	2.468	1018545	WORD	n/a	wordpools/wordpool_categorized_EN.txt	BANJO	Instruments	1	7	[0, 0, 0]	n/a	catFR1	3	R1108J
793.295	2.416	1021013	WORD	n/a	wordpools/wordpool_categorized_EN.txt	CELLO	Instruments	2	7	[0, 0, 0]	n/a	catFR1	3	R1108J
795.711	2.584	1023429	WORD	n/a	wordpools/wordpool_categorized_EN.txt	GRAPE	Fruit	3	7	[0, 0, 0]	n/a	catFR1	3	R1108J
798.295	2.583	1026013	WORD	n/a	wordpools/wordpool_categorized_EN.txt	LIME	Fruit	4	7	[0, 0, 0]	n/a	catFR1	3	R1108J
800.878	2.617	1028596	WORD	n/a	wordpools/wordpool_categorized_EN.txt	TAPE	OfficeSupplies	5	7	[0, 0, 0]	n/a	catFR1	3	R1108J
803.495	2.517	1031213	WORD	n/a	wordpools/wordpool_categorized_EN.txt	STAPLER	OfficeSupplies	6	7	[0, 0, 0]	n/a	catFR1	3	R1108J
806.012	2.567	1033730	WORD	n/a	wordpools/wordpool_categorized_EN.txt	TUBA	Instruments	7	7	[0, 0, 0]	n/a	catFR1	3	R1108J
808.579	2.567	1036297	WORD	n/a	wordpools/wordpool_categorized_EN.txt	TROMBONE	Instruments	8	7	[0, 0, 0]	n/a	catFR1	3	R1108J
811.146	2.467	1038864	WORD	n/a	wordpools/wordpool_categorized_EN.txt	NOTEBOOK	OfficeSupplies	9	7	[0, 0, 0]	n/a	catFR1	3	R1108J
813.613	2.584	1041331	WORD	n/a	wordpools/wordpool_categorized_EN.txt	FOLDER	OfficeSupplies	10	7	[0, 0, 0]	n/a	catFR1	3	R1108J
816.197	2.516	1043915	WORD	n/a	wordpools/wordpool_categorized_EN.txt	PEAR	Fruit	11	7	[0, 0, 0]	n/a	catFR1	3	R1108J
818.713	1.602	1046431	WORD	n/a	wordpools/wordpool_categorized_EN.txt	PLUM	Fruit	12	7	[0, 0, 0]	n/a	catFR1	3	R1108J
820.315	0.001	1048033	DISTRACT_START	n/a	n/a	n/a	n/a	-999	7	[0, 0, 0]	n/a	catFR1	3	R1108J
820.316	0.015	1048034	START	n/a	n/a	n/a	n/a	-999	7	[-999, -999, -999]	n/a	catFR1	3	R1108J
820.331	7.584	1048049	PROB	7.584	n/a	n/a	n/a	-999	7	[6, 4, 4]	14	catFR1	3	R1108J
827.915	14.496	1055633	PROB	14.496	n/a	n/a	n/a	-999	7	[4, 1, 7]	12	catFR1	3	R1108J
842.411	0.005	1070129	STOP	n/a	n/a	n/a	n/a	-999	7	[-999, -999, -999]	n/a	catFR1	3	R1108J
842.416	1.135	1070134	DISTRACT_END	n/a	n/a	n/a	n/a	-999	7	[0, 0, 0]	n/a	catFR1	3	R1108J
843.551	1.006	1071269	REC_START	n/a	n/a	n/a	n/a	-999	7	[0, 0, 0]	n/a	catFR1	3	R1108J
844.557	1.426	1072275	REC_WORD	1.426	n/a	EAR	n/a	-999	7	[0, 0, 0]	n/a	catFR1	3	R1108J
845.983	2.037	1073701	REC_WORD_VV	2.037	n/a	<>	n/a	-999	7	[0, 0, 0]	n/a	catFR1	3	R1108J
848.02	1.0	1075738	REC_WORD	1.0	n/a	NOTEBOOK	OfficeSupplies	9	7	[0, 0, 0]	n/a	catFR1	3	R1108J
849.02	1.251	1076738	REC_WORD_VV	1.251	n/a	<>	n/a	-999	7	[0, 0, 0]	n/a	catFR1	3	R1108J
850.271	1.367	1077989	REC_WORD	1.367	n/a	TAPE	OfficeSupplies	5	7	[0, 0, 0]	n/a	catFR1	3	R1108J
851.638	21.924	1079356	REC_WORD_VV	21.924	n/a	<>	n/a	-999	7	[0, 0, 0]	n/a	catFR1	3	R1108J
873.562	2.209	1101280	REC_END	n/a	n/a	n/a	n/a	-999	7	[0, 0, 0]	n/a	catFR1	3	R1108J
875.771	0.0	1103489	COUNTDOWN_START	n/a	n/a	n/a	n/a	-999	8	[0, 0, 0]	n/a	catFR1	3	R1108J
875.771	10.428	1103489	TRIAL	n/a	n/a	n/a	n/a	-999	8	[0, 0, 0]	n/a	catFR1	3	R1108J
886.199	0.008	1113917	COUNTDOWN_END	n/a	n/a	n/a	n/a	-999	8	[0, 0, 0]	n/a	catFR1	3	R1108J
886.207	3.765	1113925	ORIENT	n/a	n/a	n/a	n/a	-999	8	[0, 0, 0]	n/a	catFR1	3	R1108J
889.972	2.601	1117690	WORD	n/a	wordpools/wordpool_categorized_EN.txt	STAIRS	Building	1	8	[0, 0, 0]	n/a	catFR1	3	R1108J
892.573	2.384	1120291	WORD	n/a	wordpools/wordpool_categorized_EN.txt	WINDOW	Building	2	8	[0, 0, 0]	n/a	catFR1	3	R1108J
894.957	2.483	1122675	WORD	n/a	wordpools/wordpool_categorized_EN.txt	MAPLE	Trees	3	8	[0, 0, 0]	n/a	catFR1	3	R1108J
897.44	2.55	1125158	WORD	n/a	wordpools/wordpool_categorized_EN.txt	BIRCH	Trees	4	8	[0, 0, 0]	n/a	catFR1	3	R1108J
899.99	2.451	1127708	WORD	n/a	wordpools/wordpool_categorized_EN.txt	SHELF	Furniture	5	8	[0, 0, 0]	n/a	catFR1	3	R1108J
902.441	2.467	1130159	WORD	n/a	wordpools/wordpool_categorized_EN.txt	DESK	Furniture	6	8	[0, 0, 0]	n/a	catFR1	3	R1108J
904.908	2.401	1132626	WORD	n/a	wordpools/wordpool_categorized_EN.txt	BATHROOM	Building	7	8	[0, 0, 0]	n/a	catFR1	3	R1108J
907.309	2.433	1135026	WORD	n/a	wordpools/wordpool_categorized_EN.txt	ROOM	Building	8	8	[0, 0, 0]	n/a	catFR1	3	R1108J
909.742	2.417	1137459	WORD	n/a	wordpools/wordpool_categorized_EN.txt	CABINET	Furniture	9	8	[0, 0, 0]	n/a	catFR1	3	R1108J
912.159	2.384	1139876	WORD	n/a	wordpools/wordpool_categorized_EN.txt	NIGHTSTAND	Furniture	10	8	[0, 0, 0]	n/a	catFR1	3	R1108J
914.543	2.483	1142260	WORD	n/a	wordpools/wordpool_categorized_EN.txt	SPRUCE	Trees	11	8	[0, 0, 0]	n/a	catFR1	3	R1108J
917.026	1.617	1144743	WORD	n/a	wordpools/wordpool_categorized_EN.txt	HICKORY	Trees	12	8	[0, 0, 0]	n/a	catFR1	3	R1108J
918.643	0.001	1146360	DISTRACT_START	n/a	n/a	n/a	n/a	-999	8	[0, 0, 0]	n/a	catFR1	3	R1108J
918.644	0.015	1146361	START	n/a	n/a	n/a	n/a	-999	8	[-999, -999, -999]	n/a	catFR1	3	R1108J
918.659	4.201	1146376	PROB	4.201	n/a	n/a	n/a	-999	8	[3, 9, 1]	13	catFR1	3	R1108J
922.86	9.751	1150577	PROB	9.751	n/a	n/a	n/a	-999	8	[5, 2, 9]	16	catFR1	3	R1108J
932.611	8.997	1160328	PROB	8.997	n/a	n/a	n/a	-999	8	[4, 4, 6]	14	catFR1	3	R1108J
941.608	0.004	1169325	STOP	n/a	n/a	n/a	n/a	-999	8	[-999, -999, -999]	n/a	catFR1	3	R1108J
941.612	1.201	1169329	DISTRACT_END	n/a	n/a	n/a	n/a	-999	8	[0, 0, 0]	n/a	catFR1	3	R1108J
942.813	0.404	1170530	REC_START	n/a	n/a	n/a	n/a	-999	8	[0, 0, 0]	n/a	catFR1	3	R1108J
943.217	1.146	1170934	REC_WORD	1.146	n/a	SPOON	n/a	-999	8	[0, 0, 0]	n/a	catFR1	3	R1108J
944.363	0.846	1172080	REC_WORD	0.846	n/a	MAPLE	Trees	3	8	[0, 0, 0]	n/a	catFR1	3	R1108J
945.209	1.339	1172926	REC_WORD	1.339	n/a	BIRCH	Trees	4	8	[0, 0, 0]	n/a	catFR1	3	R1108J
946.548	26.279	1174265	REC_WORD_VV	26.279	n/a	<>	n/a	-999	8	[0, 0, 0]	n/a	catFR1	3	R1108J
972.827	2.106	1200544	REC_END	n/a	n/a	n/a	n/a	-999	8	[0, 0, 0]	n/a	catFR1	3	R1108J
974.933	0.001	1202650	COUNTDOWN_START	n/a	n/a	n/a	n/a	-999	9	[0, 0, 0]	n/a	catFR1	3	R1108J
974.934	10.427	1202651	TRIAL	n/a	n/a	n/a	n/a	-999	9	[0, 0, 0]	n/a	catFR1	3	R1108J
985.361	0.008	1213078	COUNTDOWN_END	n/a	n/a	n/a	n/a	-999	9	[0, 0, 0]	n/a	catFR1	3	R1108J
985.369	3.499	1213086	ORIENT	n/a	n/a	n/a	n/a	-999	9	[0, 0, 0]	n/a	catFR1	3	R1108J
988.868	2.535	1216585	WORD	n/a	wordpools/wordpool_categorized_EN.txt	CALF	FarmAnimals	1	9	[0, 0, 0]	n/a	catFR1	3	R1108J
991.403	2.616	1219120	WORD	n/a	wordpools/wordpool_categorized_EN.txt	ROOSTER	FarmAnimals	2	9	[0, 0, 0]	n/a	catFR1	3	R1108J
994.019	2.501	1221736	WORD	n/a	wordpools/wordpool_categorized_EN.txt	MIXER	Appliances	3	9	[0, 0, 0]	n/a	catFR1	3	R1108J
996.52	2.483	1224237	WORD	n/a	wordpools/wordpool_categorized_EN.txt	IRON	Appliances	4	9	[0, 0, 0]	n/a	catFR1	3	R1108J
999.003	2.534	1226720	WORD	n/a	wordpools/wordpool_categorized_EN.txt	LEG	BodyParts	5	9	[0, 0, 0]	n/a	catFR1	3	R1108J
1001.537	2.567	1229254	WORD	n/a	wordpools/wordpool_categorized_EN.txt	EYE	BodyParts	6	9	[0, 0, 0]	n/a	catFR1	3	R1108J
1004.104	2.55	1231821	WORD	n/a	wordpools/wordpool_categorized_EN.txt	FREEZER	Appliances	7	9	[0, 0, 0]	n/a	catFR1	3	R1108J
1006.654	2.601	1234371	WORD	n/a	wordpools/wordpool_categorized_EN.txt	OVEN	Appliances	8	9	[0, 0, 0]	n/a	catFR1	3	R1108J
1009.255	2.466	1236972	WORD	n/a	wordpools/wordpool_categorized_EN.txt	BULL	FarmAnimals	9	9	[0, 0, 0]	n/a	catFR1	3	R1108J
1011.721	2.585	1239438	WORD	n/a	wordpools/wordpool_categorized_EN.txt	LAMB	FarmAnimals	10	9	[0, 0, 0]	n/a	catFR1	3	R1108J
1014.306	2.516	1242023	WORD	n/a	wordpools/wordpool_categorized_EN.txt	ELBOW	BodyParts	11	9	[0, 0, 0]	n/a	catFR1	3	R1108J
1016.822	1.617	1244539	WORD	n/a	wordpools/wordpool_categorized_EN.txt	KNEE	BodyParts	12	9	[0, 0, 0]	n/a	catFR1	3	R1108J
1018.439	0.0	1246156	DISTRACT_START	n/a	n/a	n/a	n/a	-999	9	[0, 0, 0]	n/a	catFR1	3	R1108J
1018.439	0.016	1246156	START	n/a	n/a	n/a	n/a	-999	9	[-999, -999, -999]	n/a	catFR1	3	R1108J
1018.455	10.718	1246172	PROB	10.718	n/a	n/a	n/a	-999	9	[7, 9, 9]	26	catFR1	3	R1108J
1029.173	8.801	1256890	PROB	8.801	n/a	n/a	n/a	-999	9	[1, 8, 9]	18	catFR1	3	R1108J
1037.974	7.637	1265691	PROB	7.637	n/a	n/a	n/a	-999	9	[3, 7, 8]	18	catFR1	3	R1108J
1045.611	0.015	1273328	STOP	n/a	n/a	n/a	n/a	-999	9	[-999, -999, -999]	n/a	catFR1	3	R1108J
1045.626	1.151	1273343	DISTRACT_END	n/a	n/a	n/a	n/a	-999	9	[0, 0, 0]	n/a	catFR1	3	R1108J
1046.777	0.811	1274494	REC_START	n/a	n/a	n/a	n/a	-999	9	[0, 0, 0]	n/a	catFR1	3	R1108J
1047.588	0.834	1275305	REC_WORD	0.834	n/a	ROOSTER	FarmAnimals	2	9	[0, 0, 0]	n/a	catFR1	3	R1108J
1048.422	0.944	1276139	REC_WORD	0.944	n/a	BULL	FarmAnimals	9	9	[0, 0, 0]	n/a	catFR1	3	R1108J
1049.366	1.216	1277083	REC_WORD	1.216	n/a	LAMB	FarmAnimals	10	9	[0, 0, 0]	n/a	catFR1	3	R1108J
1050.582	1.541	1278299	REC_WORD	1.541	n/a	CALF	FarmAnimals	1	9	[0, 0, 0]	n/a	catFR1	3	R1108J
1052.123	13.635	1279840	REC_WORD_VV	13.635	n/a	<>	n/a	-999	9	[0, 0, 0]	n/a	catFR1	3	R1108J
1065.758	1.604	1293475	REC_WORD	1.604	n/a	FREEZER	Appliances	7	9	[0, 0, 0]	n/a	catFR1	3	R1108J
1067.362	9.426	1295079	REC_WORD_VV	9.426	n/a	<>	n/a	-999	9	[0, 0, 0]	n/a	catFR1	3	R1108J
1076.788	5.642	1304505	REC_END	n/a	n/a	n/a	n/a	-999	9	[0, 0, 0]	n/a	catFR1	3	R1108J
1082.43	0.001	1310147	COUNTDOWN_START	n/a	n/a	n/a	n/a	-999	10	[0, 0, 0]	n/a	catFR1	3	R1108J
1082.431	10.427	1310148	TRIAL	n/a	n/a	n/a	n/a	-999	10	[0, 0, 0]	n/a	catFR1	3	R1108J
1092.858	0.007	1320575	COUNTDOWN_END	n/a	n/a	n/a	n/a	-999	10	[0, 0, 0]	n/a	catFR1	3	R1108J
1092.865	3.567	1320582	ORIENT	n/a	n/a	n/a	n/a	-999	10	[0, 0, 0]	n/a	catFR1	3	R1108J
1096.432	2.45	1324149	WORD	n/a	wordpools/wordpool_categorized_EN.txt	WIND	Weather	1	10	[0, 0, 0]	n/a	catFR1	3	R1108J
1098.882	2.418	1326599	WORD	n/a	wordpools/wordpool_categorized_EN.txt	CLOUD	Weather	2	10	[0, 0, 0]	n/a	catFR1	3	R1108J
1101.3	2.516	1329017	WORD	n/a	wordpools/wordpool_categorized_EN.txt	DRILL	Tools	3	10	[0, 0, 0]	n/a	catFR1	3	R1108J
1103.816	2.419	1331533	WORD	n/a	wordpools/wordpool_categorized_EN.txt	SANDER	Tools	4	10	[0, 0, 0]	n/a	catFR1	3	R1108J
1106.235	2.399	1333952	WORD	n/a	wordpools/wordpool_categorized_EN.txt	SPEAKER	Electronics	5	10	[0, 0, 0]	n/a	catFR1	3	R1108J
1108.634	2.584	1336351	WORD	n/a	wordpools/wordpool_categorized_EN.txt	CALCULATOR	Electronics	6	10	[0, 0, 0]	n/a	catFR1	3	R1108J
1111.218	2.516	1338935	WORD	n/a	wordpools/wordpool_categorized_EN.txt	SCREWDRIVER	Tools	7	10	[0, 0, 0]	n/a	catFR1	3	R1108J
1113.734	2.535	1341451	WORD	n/a	wordpools/wordpool_categorized_EN.txt	WRENCH	Tools	8	10	[0, 0, 0]	n/a	catFR1	3	R1108J
1116.269	2.532	1343986	WORD	n/a	wordpools/wordpool_categorized_EN.txt	HUMIDITY	Weather	9	10	[0, 0, 0]	n/a	catFR1	3	R1108J
1118.801	2.485	1346518	WORD	n/a	wordpools/wordpool_categorized_EN.txt	DRIZZLE	Weather	10	10	[0, 0, 0]	n/a	catFR1	3	R1108J
1121.286	2.433	1349003	WORD	n/a	wordpools/wordpool_categorized_EN.txt	MICROWAVE	Electronics	11	10	[0, 0, 0]	n/a	catFR1	3	R1108J
1123.719	1.601	1351436	WORD	n/a	wordpools/wordpool_categorized_EN.txt	TELEVISION	Electronics	12	10	[0, 0, 0]	n/a	catFR1	3	R1108J
1125.32	0.001	1353037	DISTRACT_START	n/a	n/a	n/a	n/a	-999	10	[0, 0, 0]	n/a	catFR1	3	R1108J
1125.321	0.016	1353038	START	n/a	n/a	n/a	n/a	-999	10	[-999, -999, -999]	n/a	catFR1	3	R1108J
1125.337	10.267	1353054	PROB	10.267	n/a	n/a	n/a	-999	10	[1, 7, 5]	13	catFR1	3	R1108J
1135.604	5.768	1363321	PROB	5.768	n/a	n/a	n/a	-999	10	[4, 6, 5]	15	catFR1	3	R1108J
1141.372	7.139	1369089	PROB	7.139	n/a	n/a	n/a	-999	10	[1, 3, 6]	10	catFR1	3	R1108J
1148.511	0.011	1376228	STOP	n/a	n/a	n/a	n/a	-999	10	[-999, -999, -999]	n/a	catFR1	3	R1108J
1148.522	1.117	1376239	DISTRACT_END	n/a	n/a	n/a	n/a	-999	10	[0, 0, 0]	n/a	catFR1	3	R1108J
1149.639	2.101	1377356	REC_START	n/a	n/a	n/a	n/a	-999	10	[0, 0, 0]	n/a	catFR1	3	R1108J
1151.74	1.0	1379457	REC_WORD	1.0	n/a	SCREWDRIVER	Tools	7	10	[0, 0, 0]	n/a	catFR1	3	R1108J
1152.74	0.363	1380457	REC_WORD_VV	0.363	n/a	<>	n/a	-999	10	[0, 0, 0]	n/a	catFR1	3	R1108J
1153.103	2.013	1380820	REC_WORD	2.013	n/a	DRILL	Tools	3	10	[0, 0, 0]	n/a	catFR1	3	R1108J
1155.116	1.0	1382833	REC_WORD	1.0	n/a	MICROWAVE	Electronics	11	10	[0, 0, 0]	n/a	catFR1	3	R1108J
1156.116	0.738	1383833	REC_WORD_VV	0.738	n/a	<>	n/a	-999	10	[0, 0, 0]	n/a	catFR1	3	R1108J
1156.854	3.281	1384571	REC_WORD_VV	3.281	n/a	<>	n/a	-999	10	[0, 0, 0]	n/a	catFR1	3	R1108J
1160.135	1.0	1387852	REC_WORD	1.0	n/a	HUMIDITY	Weather	9	10	[0, 0, 0]	n/a	catFR1	3	R1108J
1161.135	1.495	1388852	REC_WORD_VV	1.495	n/a	<>	n/a	-999	10	[0, 0, 0]	n/a	catFR1	3	R1108J
1162.63	2.154	1390347	REC_WORD	2.154	n/a	WIND	Weather	1	10	[0, 0, 0]	n/a	catFR1	3	R1108J
1164.784	1.825	1392501	REC_WORD	1.825	n/a	CLOUD	Weather	2	10	[0, 0, 0]	n/a	catFR1	3	R1108J
1166.609	1.675	1394326	REC_WORD	1.675	n/a	DRIZZLE	Weather	10	10	[0, 0, 0]	n/a	catFR1	3	R1108J
1168.284	2.456	1396001	REC_WORD_VV	2.456	n/a	<>	n/a	-999	10	[0, 0, 0]	n/a	catFR1	3	R1108J
1170.74	2.505	1398457	REC_WORD	2.505	n/a	SANDER	Tools	4	10	[0, 0, 0]	n/a	catFR1	3	R1108J
1173.245	2.054	1400962	REC_WORD	2.054	n/a	WRENCH	Tools	8	10	[0, 0, 0]	n/a	catFR1	3	R1108J
1175.299	4.352	1403016	REC_WORD_VV	4.352	n/a	<>	n/a	-999	10	[0, 0, 0]	n/a	catFR1	3	R1108J
1179.651	829.631	1407368	REC_END	n/a	n/a	n/a	n/a	-999	10	[0, 0, 0]	n/a	catFR1	3	R1108J
2009.282	0.0	2236996	TRIAL	n/a	n/a	n/a	n/a	-999	11	[0, 0, 0]	n/a	catFR1	3	R1108J
2009.282	10.428	2236996	COUNTDOWN_START	n/a	n/a	n/a	n/a	-999	11	[0, 0, 0]	n/a	catFR1	3	R1108J
2019.71	0.006	2247424	COUNTDOWN_END	n/a	n/a	n/a	n/a	-999	11	[0, 0, 0]	n/a	catFR1	3	R1108J
2019.716	3.601	2247430	ORIENT	n/a	n/a	n/a	n/a	-999	11	[0, 0, 0]	n/a	catFR1	3	R1108J
2023.317	2.383	2251031	WORD	n/a	wordpools/wordpool_categorized_EN.txt	ELM	Trees	1	11	[0, 0, 0]	n/a	catFR1	3	R1108J
2025.7	2.383	2253414	WORD	n/a	wordpools/wordpool_categorized_EN.txt	PINE	Trees	2	11	[0, 0, 0]	n/a	catFR1	3	R1108J
2028.083	2.584	2255797	WORD	n/a	wordpools/wordpool_categorized_EN.txt	SHIRT	Clothing	3	11	[0, 0, 0]	n/a	catFR1	3	R1108J
2030.667	2.517	2258381	WORD	n/a	wordpools/wordpool_categorized_EN.txt	SHOES	Clothing	4	11	[0, 0, 0]	n/a	catFR1	3	R1108J
2033.184	2.601	2260898	WORD	n/a	wordpools/wordpool_categorized_EN.txt	SAW	Tools	5	11	[0, 0, 0]	n/a	catFR1	3	R1108J
2035.785	2.501	2263499	WORD	n/a	wordpools/wordpool_categorized_EN.txt	LEVEL	Tools	6	11	[0, 0, 0]	n/a	catFR1	3	R1108J
2038.286	2.599	2266000	WORD	n/a	wordpools/wordpool_categorized_EN.txt	OAK	Trees	7	11	[0, 0, 0]	n/a	catFR1	3	R1108J
2040.885	2.567	2268599	WORD	n/a	wordpools/wordpool_categorized_EN.txt	CEDAR	Trees	8	11	[0, 0, 0]	n/a	catFR1	3	R1108J
2043.452	2.434	2271166	WORD	n/a	wordpools/wordpool_categorized_EN.txt	SHOVEL	Tools	9	11	[0, 0, 0]	n/a	catFR1	3	R1108J
2045.886	2.55	2273600	WORD	n/a	wordpools/wordpool_categorized_EN.txt	CROWBAR	Tools	10	11	[0, 0, 0]	n/a	catFR1	3	R1108J
2048.436	2.584	2276150	WORD	n/a	wordpools/wordpool_categorized_EN.txt	COAT	Clothing	11	11	[0, 0, 0]	n/a	catFR1	3	R1108J
2051.02	1.617	2278734	WORD	n/a	wordpools/wordpool_categorized_EN.txt	SHORTS	Clothing	12	11	[0, 0, 0]	n/a	catFR1	3	R1108J
2052.637	0.001	2280351	DISTRACT_START	n/a	n/a	n/a	n/a	-999	11	[0, 0, 0]	n/a	catFR1	3	R1108J
2052.638	0.015	2280352	START	n/a	n/a	n/a	n/a	-999	11	[-999, -999, -999]	n/a	catFR1	3	R1108J
2052.653	6.034	2280367	PROB	6.034	n/a	n/a	n/a	-999	11	[6, 5, 4]	15	catFR1	3	R1108J
2058.687	4.368	2286401	PROB	4.368	n/a	n/a	n/a	-999	11	[1, 3, 7]	11	catFR1	3	R1108J
2063.055	3.467	2290769	PROB	3.467	n/a	n/a	n/a	-999	11	[2, 1, 2]	5	catFR1	3	R1108J
2066.522	3.217	2294236	PROB	3.217	n/a	n/a	n/a	-999	11	[3, 3, 1]	7	catFR1	3	R1108J
2069.739	3.31	2297453	PROB	3.31	n/a	n/a	n/a	-999	11	[5, 2, 1]	8	catFR1	3	R1108J
2073.049	0.007	2300763	STOP	n/a	n/a	n/a	n/a	-999	11	[-999, -999, -999]	n/a	catFR1	3	R1108J
2073.056	1.219	2300770	DISTRACT_END	n/a	n/a	n/a	n/a	-999	11	[0, 0, 0]	n/a	catFR1	3	R1108J
2074.275	0.499	2301989	REC_START	n/a	n/a	n/a	n/a	-999	11	[0, 0, 0]	n/a	catFR1	3	R1108J
2074.774	1.165	2302488	REC_WORD	1.165	n/a	ELM	Trees	1	11	[0, 0, 0]	n/a	catFR1	3	R1108J
2075.939	1.211	2303653	REC_WORD	1.211	n/a	PINE	Trees	2	11	[0, 0, 0]	n/a	catFR1	3	R1108J
2077.15	1.333	2304864	REC_WORD	1.333	n/a	SAW	Tools	5	11	[0, 0, 0]	n/a	catFR1	3	R1108J
2078.483	1.539	2306197	REC_WORD	1.539	n/a	LEVEL	Tools	6	11	[0, 0, 0]	n/a	catFR1	3	R1108J
2080.022	1.487	2307736	REC_WORD	1.487	n/a	CEDAR	Trees	8	11	[0, 0, 0]	n/a	catFR1	3	R1108J
2081.509	7.029	2309223	REC_WORD_VV	7.029	n/a	<>	n/a	-999	11	[0, 0, 0]	n/a	catFR1	3	R1108J
2088.538	1.316	2316252	REC_WORD	1.316	n/a	SHORTS	Clothing	12	11	[0, 0, 0]	n/a	catFR1	3	R1108J
2089.854	2.018	2317568	REC_WORD	2.018	n/a	SHIRT	Clothing	3	11	[0, 0, 0]	n/a	catFR1	3	R1108J
2091.872	1.257	2319586	REC_WORD	1.257	n/a	SHOES	Clothing	4	11	[0, 0, 0]	n/a	catFR1	3	R1108J
2093.129	11.157	2320843	REC_WORD	11.157	n/a	COAT	Clothing	11	11	[0, 0, 0]	n/a	catFR1	3	R1108J
2104.286	2.558	2332000	REC_END	n/a	n/a	n/a	n/a	-999	11	[0, 0, 0]	n/a	catFR1	3	R1108J
2106.844	0.0	2334558	TRIAL	n/a	n/a	n/a	n/a	-999	12	[0, 0, 0]	n/a	catFR1	3	R1108J
2106.844	10.428	2334558	COUNTDOWN_START	n/a	n/a	n/a	n/a	-999	12	[0, 0, 0]	n/a	catFR1	3	R1108J
2117.272	0.007	2344986	COUNTDOWN_END	n/a	n/a	n/a	n/a	-999	12	[0, 0, 0]	n/a	catFR1	3	R1108J
2117.279	3.849	2344993	ORIENT	n/a	n/a	n/a	n/a	-999	12	[0, 0, 0]	n/a	catFR1	3	R1108J
2121.128	2.551	2348842	WORD	n/a	wordpools/wordpool_categorized_EN.txt	THUNDERSTORM	Weather	1	12	[0, 0, 0]	n/a	catFR1	3	R1108J
2123.679	2.601	2351393	WORD	n/a	wordpools/wordpool_categorized_EN.txt	FOG	Weather	2	12	[0, 0, 0]	n/a	catFR1	3	R1108J
2126.28	2.483	2353994	WORD	n/a	wordpools/wordpool_categorized_EN.txt	ROSE	Flowers	3	12	[0, 0, 0]	n/a	catFR1	3	R1108J
2128.763	2.551	2356477	WORD	n/a	wordpools/wordpool_categorized_EN.txt	DAFFODIL	Flowers	4	12	[0, 0, 0]	n/a	catFR1	3	R1108J
2131.314	2.566	2359028	WORD	n/a	wordpools/wordpool_categorized_EN.txt	TOE	BodyParts	5	12	[0, 0, 0]	n/a	catFR1	3	R1108J
2133.88	2.385	2361594	WORD	n/a	wordpools/wordpool_categorized_EN.txt	NOSE	BodyParts	6	12	[0, 0, 0]	n/a	catFR1	3	R1108J
2136.265	2.466	2363979	WORD	n/a	wordpools/wordpool_categorized_EN.txt	HURRICANE	Weather	7	12	[0, 0, 0]	n/a	catFR1	3	R1108J
2138.731	2.45	2366445	WORD	n/a	wordpools/wordpool_categorized_EN.txt	TORNADO	Weather	8	12	[0, 0, 0]	n/a	catFR1	3	R1108J
2141.181	2.417	2368895	WORD	n/a	wordpools/wordpool_categorized_EN.txt	FOOT	BodyParts	9	12	[0, 0, 0]	n/a	catFR1	3	R1108J
2143.598	2.601	2371312	WORD	n/a	wordpools/wordpool_categorized_EN.txt	HEAD	BodyParts	10	12	[0, 0, 0]	n/a	catFR1	3	R1108J
2146.199	2.483	2373913	WORD	n/a	wordpools/wordpool_categorized_EN.txt	ORCHID	Flowers	11	12	[0, 0, 0]	n/a	catFR1	3	R1108J
2148.682	1.618	2376396	WORD	n/a	wordpools/wordpool_categorized_EN.txt	PETUNIA	Flowers	12	12	[0, 0, 0]	n/a	catFR1	3	R1108J
2150.3	0.001	2378014	DISTRACT_START	n/a	n/a	n/a	n/a	-999	12	[0, 0, 0]	n/a	catFR1	3	R1108J
2150.301	0.016	2378015	START	n/a	n/a	n/a	n/a	-999	12	[-999, -999, -999]	n/a	catFR1	3	R1108J
2150.317	15.002	2378031	PROB	15.002	n/a	n/a	n/a	-999	12	[4, 7, 9]	20	catFR1	3	R1108J
2165.319	6.438	2393033	PROB	6.438	n/a	n/a	n/a	-999	12	[8, 4, 8]	20	catFR1	3	R1108J
2171.757	0.011	2399471	STOP	n/a	n/a	n/a	n/a	-999	12	[-999, -999, -999]	n/a	catFR1	3	R1108J
2171.768	1.201	2399482	DISTRACT_END	n/a	n/a	n/a	n/a	-999	12	[0, 0, 0]	n/a	catFR1	3	R1108J
2172.969	1.389	2400683	REC_START	n/a	n/a	n/a	n/a	-999	12	[0, 0, 0]	n/a	catFR1	3	R1108J
2174.358	1.0	2402072	REC_WORD	1.0	n/a	PETUNIA	Flowers	12	12	[0, 0, 0]	n/a	catFR1	3	R1108J
2175.358	0.561	2403072	REC_WORD_VV	0.561	n/a	<>	n/a	-999	12	[0, 0, 0]	n/a	catFR1	3	R1108J
2175.919	1.575	2403633	REC_WORD	1.575	n/a	ORCHID	Flowers	11	12	[0, 0, 0]	n/a	catFR1	3	R1108J
2177.494	1.0	2405208	REC_WORD_VV	1.0	n/a	<>	n/a	-999	12	[0, 0, 0]	n/a	catFR1	3	R1108J
2178.494	2.334	2406208	REC_WORD_VV	2.334	n/a	<>	n/a	-999	12	[0, 0, 0]	n/a	catFR1	3	R1108J
2180.828	0.747	2408542	REC_WORD	0.747	n/a	NOSE	BodyParts	6	12	[0, 0, 0]	n/a	catFR1	3	R1108J
2181.575	1.466	2409289	REC_WORD	1.466	n/a	HEAD	BodyParts	10	12	[0, 0, 0]	n/a	catFR1	3	R1108J
2183.041	0.654	2410755	REC_WORD	0.654	n/a	TOE	BodyParts	5	12	[0, 0, 0]	n/a	catFR1	3	R1108J
2183.695	1.509	2411409	REC_WORD	1.509	n/a	FOOT	BodyParts	9	12	[0, 0, 0]	n/a	catFR1	3	R1108J
2185.204	10.83	2412918	REC_WORD_VV	10.83	n/a	<>	n/a	-999	12	[0, 0, 0]	n/a	catFR1	3	R1108J
2196.034	1.418	2423748	REC_WORD	1.418	n/a	ROSE	Flowers	3	12	[0, 0, 0]	n/a	catFR1	3	R1108J
2197.452	5.529	2425166	REC_WORD_VV	5.529	n/a	<>	n/a	-999	12	[0, 0, 0]	n/a	catFR1	3	R1108J
2202.981	3.41	2430695	REC_END	n/a	n/a	n/a	n/a	-999	12	[0, 0, 0]	n/a	catFR1	3	R1108J
2206.391	0.0	2434105	TRIAL	n/a	n/a	n/a	n/a	-999	13	[0, 0, 0]	n/a	catFR1	3	R1108J
2206.391	10.428	2434105	COUNTDOWN_START	n/a	n/a	n/a	n/a	-999	13	[0, 0, 0]	n/a	catFR1	3	R1108J
2216.819	0.005	2444533	COUNTDOWN_END	n/a	n/a	n/a	n/a	-999	13	[0, 0, 0]	n/a	catFR1	3	R1108J
2216.824	3.767	2444538	ORIENT	n/a	n/a	n/a	n/a	-999	13	[0, 0, 0]	n/a	catFR1	3	R1108J
2220.591	2.567	2448305	WORD	n/a	wordpools/wordpool_categorized_EN.txt	VALLEY	Landscapes	1	13	[0, 0, 0]	n/a	catFR1	3	R1108J
2223.158	2.467	2450872	WORD	n/a	wordpools/wordpool_categorized_EN.txt	STREAM	Landscapes	2	13	[0, 0, 0]	n/a	catFR1	3	R1108J
2225.625	2.45	2453339	WORD	n/a	wordpools/wordpool_categorized_EN.txt	BLUEBIRD	Birds	3	13	[0, 0, 0]	n/a	catFR1	3	R1108J
2228.075	2.584	2455789	WORD	n/a	wordpools/wordpool_categorized_EN.txt	DOVE	Birds	4	13	[0, 0, 0]	n/a	catFR1	3	R1108J
2230.659	2.484	2458373	WORD	n/a	wordpools/wordpool_categorized_EN.txt	LILY	Flowers	5	13	[0, 0, 0]	n/a	catFR1	3	R1108J
2233.143	2.517	2460857	WORD	n/a	wordpools/wordpool_categorized_EN.txt	DAISY	Flowers	6	13	[0, 0, 0]	n/a	catFR1	3	R1108J
2235.66	2.416	2463374	WORD	n/a	wordpools/wordpool_categorized_EN.txt	DUCK	Birds	7	13	[0, 0, 0]	n/a	catFR1	3	R1108J
2238.076	2.585	2465790	WORD	n/a	wordpools/wordpool_categorized_EN.txt	ROBIN	Birds	8	13	[0, 0, 0]	n/a	catFR1	3	R1108J
2240.661	2.618	2468375	WORD	n/a	wordpools/wordpool_categorized_EN.txt	RIVER	Landscapes	9	13	[0, 0, 0]	n/a	catFR1	3	R1108J
2243.279	2.432	2470993	WORD	n/a	wordpools/wordpool_categorized_EN.txt	HILLS	Landscapes	10	13	[0, 0, 0]	n/a	catFR1	3	R1108J
2245.711	2.535	2473425	WORD	n/a	wordpools/wordpool_categorized_EN.txt	LILAC	Flowers	11	13	[0, 0, 0]	n/a	catFR1	3	R1108J
2248.246	1.616	2475960	WORD	n/a	wordpools/wordpool_categorized_EN.txt	VIOLET	Flowers	12	13	[0, 0, 0]	n/a	catFR1	3	R1108J
2249.862	0.001	2477576	DISTRACT_START	n/a	n/a	n/a	n/a	-999	13	[0, 0, 0]	n/a	catFR1	3	R1108J
2249.863	0.015	2477577	START	n/a	n/a	n/a	n/a	-999	13	[-999, -999, -999]	n/a	catFR1	3	R1108J
2249.878	14.869	2477592	PROB	14.869	n/a	n/a	n/a	-999	13	[7, 5, 9]	22	catFR1	3	R1108J
2264.747	10.206	2492461	PROB	10.206	n/a	n/a	n/a	-999	13	[5, 2, 7]	14	catFR1	3	R1108J
2274.953	0.012	2502667	STOP	n/a	n/a	n/a	n/a	-999	13	[-999, -999, -999]	n/a	catFR1	3	R1108J
2274.965	1.101	2502679	DISTRACT_END	n/a	n/a	n/a	n/a	-999	13	[0, 0, 0]	n/a	catFR1	3	R1108J
2276.066	1.9	2503780	REC_START	n/a	n/a	n/a	n/a	-999	13	[0, 0, 0]	n/a	catFR1	3	R1108J
2277.966	1.808	2505680	REC_WORD	1.808	n/a	VIOLET	Flowers	12	13	[0, 0, 0]	n/a	catFR1	3	R1108J
2279.774	1.158	2507488	REC_WORD	1.158	n/a	DAISY	Flowers	6	13	[0, 0, 0]	n/a	catFR1	3	R1108J
2280.932	0.91	2508646	REC_WORD	0.91	n/a	LILY	Flowers	5	13	[0, 0, 0]	n/a	catFR1	3	R1108J
2281.842	0.884	2509556	REC_WORD	0.884	n/a	BLUEBIRD	Birds	3	13	[0, 0, 0]	n/a	catFR1	3	R1108J
2282.726	1.232	2510440	REC_WORD	1.232	n/a	ROBIN	Birds	8	13	[0, 0, 0]	n/a	catFR1	3	R1108J
2283.958	1.34	2511672	REC_WORD	1.34	n/a	DUCK	Birds	7	13	[0, 0, 0]	n/a	catFR1	3	R1108J
2285.298	4.218	2513012	REC_WORD_VV	4.218	n/a	<>	n/a	-999	13	[0, 0, 0]	n/a	catFR1	3	R1108J
2289.516	1.588	2517230	REC_WORD	1.588	n/a	HILLS	Landscapes	10	13	[0, 0, 0]	n/a	catFR1	3	R1108J
2291.104	1.0	2518818	REC_WORD	1.0	n/a	VALLEY	Landscapes	1	13	[0, 0, 0]	n/a	catFR1	3	R1108J
2292.104	0.849	2519818	REC_WORD_VV	0.849	n/a	<>	n/a	-999	13	[0, 0, 0]	n/a	catFR1	3	R1108J
2292.953	1.0	2520667	REC_WORD	1.0	n/a	STREAM	Landscapes	2	13	[0, 0, 0]	n/a	catFR1	3	R1108J
2293.953	1.168	2521667	REC_WORD_VV	1.168	n/a	<>	n/a	-999	13	[0, 0, 0]	n/a	catFR1	3	R1108J
2295.121	10.956	2522835	REC_WORD_VV	10.956	n/a	<>	n/a	-999	13	[0, 0, 0]	n/a	catFR1	3	R1108J
2306.077	2.075	2533791	REC_END	n/a	n/a	n/a	n/a	-999	13	[0, 0, 0]	n/a	catFR1	3	R1108J
2308.152	0.0	2535866	COUNTDOWN_START	n/a	n/a	n/a	n/a	-999	14	[0, 0, 0]	n/a	catFR1	3	R1108J
2308.152	10.428	2535866	TRIAL	n/a	n/a	n/a	n/a	-999	14	[0, 0, 0]	n/a	catFR1	3	R1108J
2318.58	0.007	2546294	COUNTDOWN_END	n/a	n/a	n/a	n/a	-999	14	[0, 0, 0]	n/a	catFR1	3	R1108J
2318.587	3.668	2546301	ORIENT	n/a	n/a	n/a	n/a	-999	14	[0, 0, 0]	n/a	catFR1	3	R1108J
2322.255	2.5	2549968	WORD	n/a	wordpools/wordpool_categorized_EN.txt	BLUEBERRY	Fruit	1	14	[0, 0, 0]	n/a	catFR1	3	R1108J
2324.755	2.4	2552468	WORD	n/a	wordpools/wordpool_categorized_EN.txt	ORANGE	Fruit	2	14	[0, 0, 0]	n/a	catFR1	3	R1108J
2327.155	2.617	2554868	WORD	n/a	wordpools/wordpool_categorized_EN.txt	WOODS	Landscapes	3	14	[0, 0, 0]	n/a	catFR1	3	R1108J
2329.772	2.551	2557485	WORD	n/a	wordpools/wordpool_categorized_EN.txt	OCEAN	Landscapes	4	14	[0, 0, 0]	n/a	catFR1	3	R1108J
2332.323	2.566	2560036	WORD	n/a	wordpools/wordpool_categorized_EN.txt	RECLINER	Furniture	5	14	[0, 0, 0]	n/a	catFR1	3	R1108J
2334.889	2.468	2562602	WORD	n/a	wordpools/wordpool_categorized_EN.txt	BED	Furniture	6	14	[0, 0, 0]	n/a	catFR1	3	R1108J
2337.357	2.449	2565070	WORD	n/a	wordpools/wordpool_categorized_EN.txt	FOREST	Landscapes	7	14	[0, 0, 0]	n/a	catFR1	3	R1108J
2339.806	2.384	2567519	WORD	n/a	wordpools/wordpool_categorized_EN.txt	BEACH	Landscapes	8	14	[0, 0, 0]	n/a	catFR1	3	R1108J
2342.19	2.384	2569903	WORD	n/a	wordpools/wordpool_categorized_EN.txt	PEACH	Fruit	9	14	[0, 0, 0]	n/a	catFR1	3	R1108J
2344.574	2.434	2572287	WORD	n/a	wordpools/wordpool_categorized_EN.txt	APPLE	Fruit	10	14	[0, 0, 0]	n/a	catFR1	3	R1108J
2347.008	2.5	2574721	WORD	n/a	wordpools/wordpool_categorized_EN.txt	TABLE	Furniture	11	14	[0, 0, 0]	n/a	catFR1	3	R1108J
2349.508	1.617	2577221	WORD	n/a	wordpools/wordpool_categorized_EN.txt	BOOKCASE	Furniture	12	14	[0, 0, 0]	n/a	catFR1	3	R1108J
2351.125	0.001	2578838	DISTRACT_START	n/a	n/a	n/a	n/a	-999	14	[0, 0, 0]	n/a	catFR1	3	R1108J
2351.126	0.015	2578839	START	n/a	n/a	n/a	n/a	-999	14	[-999, -999, -999]	n/a	catFR1	3	R1108J
2351.141	11.018	2578854	PROB	11.018	n/a	n/a	n/a	-999	14	[1, 5, 8]	14	catFR1	3	R1108J
2362.159	4.534	2589872	PROB	4.534	n/a	n/a	n/a	-999	14	[2, 1, 8]	11	catFR1	3	R1108J
2366.693	8.585	2594406	PROB	8.585	n/a	n/a	n/a	-999	14	[7, 8, 5]	20	catFR1	3	R1108J
2375.278	0.017	2602991	STOP	n/a	n/a	n/a	n/a	-999	14	[-999, -999, -999]	n/a	catFR1	3	R1108J
2375.295	1.167	2603008	DISTRACT_END	n/a	n/a	n/a	n/a	-999	14	[0, 0, 0]	n/a	catFR1	3	R1108J
2376.462	0.891	2604175	REC_START	n/a	n/a	n/a	n/a	-999	14	[0, 0, 0]	n/a	catFR1	3	R1108J
2377.353	0.612	2605066	REC_WORD	0.612	n/a	APPLE	Fruit	10	14	[0, 0, 0]	n/a	catFR1	3	R1108J
2377.965	1.165	2605678	REC_WORD	1.165	n/a	PEACH	Fruit	9	14	[0, 0, 0]	n/a	catFR1	3	R1108J
2379.13	1.657	2606843	REC_WORD	1.657	n/a	BLUEBERRY	Fruit	1	14	[0, 0, 0]	n/a	catFR1	3	R1108J
2380.787	1.627	2608500	REC_WORD_VV	1.627	n/a	<>	n/a	-999	14	[0, 0, 0]	n/a	catFR1	3	R1108J
2382.414	0.835	2610127	REC_WORD	0.835	n/a	BOOKCASE	Furniture	12	14	[0, 0, 0]	n/a	catFR1	3	R1108J
2383.249	1.0	2610962	REC_WORD	1.0	n/a	RECLINER	Furniture	5	14	[0, 0, 0]	n/a	catFR1	3	R1108J
2384.249	0.807	2611962	REC_WORD_VV	0.807	n/a	<>	n/a	-999	14	[0, 0, 0]	n/a	catFR1	3	R1108J
2385.056	2.323	2612769	REC_WORD_VV	2.323	n/a	<>	n/a	-999	14	[0, 0, 0]	n/a	catFR1	3	R1108J
2387.379	1.0	2615092	REC_WORD	1.0	n/a	ORANGE	Fruit	2	14	[0, 0, 0]	n/a	catFR1	3	R1108J
2388.379	1.709	2616092	REC_WORD_VV	1.709	n/a	<>	n/a	-999	14	[0, 0, 0]	n/a	catFR1	3	R1108J
2390.088	15.671	2617801	REC_WORD_VV	15.671	n/a	<>	n/a	-999	14	[0, 0, 0]	n/a	catFR1	3	R1108J
2405.759	0.715	2633472	REC_WORD	0.715	n/a	BED	Furniture	6	14	[0, 0, 0]	n/a	catFR1	3	R1108J
2406.474	2.508	2634187	REC_END	n/a	n/a	n/a	n/a	-999	14	[0, 0, 0]	n/a	catFR1	3	R1108J
2408.982	0.0	2636695	TRIAL	n/a	n/a	n/a	n/a	-999	15	[0, 0, 0]	n/a	catFR1	3	R1108J
2408.982	10.428	2636695	COUNTDOWN_START	n/a	n/a	n/a	n/a	-999	15	[0, 0, 0]	n/a	catFR1	3	R1108J
2419.41	0.006	2647123	COUNTDOWN_END	n/a	n/a	n/a	n/a	-999	15	[0, 0, 0]	n/a	catFR1	3	R1108J
2419.416	3.651	2647129	ORIENT	n/a	n/a	n/a	n/a	-999	15	[0, 0, 0]	n/a	catFR1	3	R1108J
2423.067	2.417	2650780	WORD	n/a	wordpools/wordpool_categorized_EN.txt	PANTS	Clothing	1	15	[0, 0, 0]	n/a	catFR1	3	R1108J
2425.484	2.467	2653197	WORD	n/a	wordpools/wordpool_categorized_EN.txt	JEANS	Clothing	2	15	[0, 0, 0]	n/a	catFR1	3	R1108J
2427.951	2.534	2655664	WORD	n/a	wordpools/wordpool_categorized_EN.txt	PEN	OfficeSupplies	3	15	[0, 0, 0]	n/a	catFR1	3	R1108J
2430.485	2.4	2658198	WORD	n/a	wordpools/wordpool_categorized_EN.txt	MARKER	OfficeSupplies	4	15	[0, 0, 0]	n/a	catFR1	3	R1108J
2432.885	2.6	2660598	WORD	n/a	wordpools/wordpool_categorized_EN.txt	CAR	Vehicles	5	15	[0, 0, 0]	n/a	catFR1	3	R1108J
2435.485	2.417	2663198	WORD	n/a	wordpools/wordpool_categorized_EN.txt	MOTORCYCLE	Vehicles	6	15	[0, 0, 0]	n/a	catFR1	3	R1108J
2437.902	2.567	2665615	WORD	n/a	wordpools/wordpool_categorized_EN.txt	PAPER	OfficeSupplies	7	15	[0, 0, 0]	n/a	catFR1	3	R1108J
2440.469	2.384	2668182	WORD	n/a	wordpools/wordpool_categorized_EN.txt	RULER	OfficeSupplies	8	15	[0, 0, 0]	n/a	catFR1	3	R1108J
2442.853	2.485	2670566	WORD	n/a	wordpools/wordpool_categorized_EN.txt	BLOUSE	Clothing	9	15	[0, 0, 0]	n/a	catFR1	3	R1108J
2445.338	2.482	2673051	WORD	n/a	wordpools/wordpool_categorized_EN.txt	SOCKS	Clothing	10	15	[0, 0, 0]	n/a	catFR1	3	R1108J
2447.82	2.485	2675533	WORD	n/a	wordpools/wordpool_categorized_EN.txt	SCOOTER	Vehicles	11	15	[0, 0, 0]	n/a	catFR1	3	R1108J
2450.305	1.616	2678018	WORD	n/a	wordpools/wordpool_categorized_EN.txt	TRUCK	Vehicles	12	15	[0, 0, 0]	n/a	catFR1	3	R1108J
2451.921	0.001	2679634	DISTRACT_START	n/a	n/a	n/a	n/a	-999	15	[0, 0, 0]	n/a	catFR1	3	R1108J
2451.922	0.015	2679635	START	n/a	n/a	n/a	n/a	-999	15	[-999, -999, -999]	n/a	catFR1	3	R1108J
2451.937	6.118	2679650	PROB	6.118	n/a	n/a	n/a	-999	15	[4, 6, 5]	14	catFR1	3	R1108J
2458.055	6.734	2685768	PROB	6.734	n/a	n/a	n/a	-999	15	[1, 6, 3]	10	catFR1	3	R1108J
2464.789	8.524	2692502	PROB	8.524	n/a	n/a	n/a	-999	15	[5, 7, 2]	14	catFR1	3	R1108J
2473.313	0.011	2701026	STOP	n/a	n/a	n/a	n/a	-999	15	[-999, -999, -999]	n/a	catFR1	3	R1108J
2473.324	1.068	2701037	DISTRACT_END	n/a	n/a	n/a	n/a	-999	15	[0, 0, 0]	n/a	catFR1	3	R1108J
2474.392	1.289	2702105	REC_START	n/a	n/a	n/a	n/a	-999	15	[0, 0, 0]	n/a	catFR1	3	R1108J
2475.681	1.031	2703394	REC_WORD	1.031	n/a	TRUCK	Vehicles	12	15	[0, 0, 0]	n/a	catFR1	3	R1108J
2476.712	0.958	2704425	REC_WORD	0.958	n/a	MOTORCYCLE	Vehicles	6	15	[0, 0, 0]	n/a	catFR1	3	R1108J
2477.67	1.375	2705383	REC_WORD	1.375	n/a	CAR	Vehicles	5	15	[0, 0, 0]	n/a	catFR1	3	R1108J
2479.045	0.857	2706758	REC_WORD_VV	0.857	n/a	<>	n/a	-999	15	[0, 0, 0]	n/a	catFR1	3	R1108J
2479.902	1.99	2707615	REC_WORD	1.99	n/a	RULER	OfficeSupplies	8	15	[0, 0, 0]	n/a	catFR1	3	R1108J
2481.892	1.527	2709605	REC_WORD	1.527	n/a	BLOUSE	Clothing	9	15	[0, 0, 0]	n/a	catFR1	3	R1108J
2483.419	3.625	2711132	REC_WORD_VV	3.625	n/a	<>	n/a	-999	15	[0, 0, 0]	n/a	catFR1	3	R1108J
2487.044	1.481	2714757	REC_WORD	1.481	n/a	PAPER	OfficeSupplies	7	15	[0, 0, 0]	n/a	catFR1	3	R1108J
2488.525	5.267	2716238	REC_WORD_VV	5.267	n/a	<>	n/a	-999	15	[0, 0, 0]	n/a	catFR1	3	R1108J
2493.792	10.61	2721505	REC_WORD_VV	10.61	n/a	<>	n/a	-999	15	[0, 0, 0]	n/a	catFR1	3	R1108J
2504.402	2.225	2732115	REC_END	n/a	n/a	n/a	n/a	-999	15	[0, 0, 0]	n/a	catFR1	3	R1108J
2506.627	0.001	2734340	COUNTDOWN_START	n/a	n/a	n/a	n/a	-999	16	[0, 0, 0]	n/a	catFR1	3	R1108J
2506.628	10.427	2734341	TRIAL	n/a	n/a	n/a	n/a	-999	16	[0, 0, 0]	n/a	catFR1	3	R1108J
2517.055	0.008	2744768	COUNTDOWN_END	n/a	n/a	n/a	n/a	-999	16	[0, 0, 0]	n/a	catFR1	3	R1108J
2517.063	3.833	2744776	ORIENT	n/a	n/a	n/a	n/a	-999	16	[0, 0, 0]	n/a	catFR1	3	R1108J
2520.896	2.551	2748609	WORD	n/a	wordpools/wordpool_categorized_EN.txt	GORILLA	Zoo	1	16	[0, 0, 0]	n/a	catFR1	3	R1108J
2523.447	2.383	2751160	WORD	n/a	wordpools/wordpool_categorized_EN.txt	PANDA	Zoo	2	16	[0, 0, 0]	n/a	catFR1	3	R1108J
2525.83	2.485	2753543	WORD	n/a	wordpools/wordpool_categorized_EN.txt	COUCH	Furniture	3	16	[0, 0, 0]	n/a	catFR1	3	R1108J
2528.315	2.466	2756028	WORD	n/a	wordpools/wordpool_categorized_EN.txt	SOFA	Furniture	4	16	[0, 0, 0]	n/a	catFR1	3	R1108J
2530.781	2.568	2758494	WORD	n/a	wordpools/wordpool_categorized_EN.txt	TULIP	Flowers	5	16	[0, 0, 0]	n/a	catFR1	3	R1108J
2533.349	2.499	2761062	WORD	n/a	wordpools/wordpool_categorized_EN.txt	MARIGOLD	Flowers	6	16	[0, 0, 0]	n/a	catFR1	3	R1108J
2535.848	2.551	2763561	WORD	n/a	wordpools/wordpool_categorized_EN.txt	GIRAFFE	Zoo	7	16	[0, 0, 0]	n/a	catFR1	3	R1108J
2538.399	2.499	2766112	WORD	n/a	wordpools/wordpool_categorized_EN.txt	ZEBRA	Zoo	8	16	[0, 0, 0]	n/a	catFR1	3	R1108J
2540.898	2.485	2768611	WORD	n/a	wordpools/wordpool_categorized_EN.txt	CARNATION	Flowers	9	16	[0, 0, 0]	n/a	catFR1	3	R1108J
2543.383	2.383	2771096	WORD	n/a	wordpools/wordpool_categorized_EN.txt	SUNFLOWER	Flowers	10	16	[0, 0, 0]	n/a	catFR1	3	R1108J
2545.766	2.584	2773479	WORD	n/a	wordpools/wordpool_categorized_EN.txt	CHAIR	Furniture	11	16	[0, 0, 0]	n/a	catFR1	3	R1108J
2548.35	1.616	2776063	WORD	n/a	wordpools/wordpool_categorized_EN.txt	DRESSER	Furniture	12	16	[0, 0, 0]	n/a	catFR1	3	R1108J
2549.966	0.001	2777679	DISTRACT_START	n/a	n/a	n/a	n/a	-999	16	[0, 0, 0]	n/a	catFR1	3	R1108J
2549.967	0.016	2777680	START	n/a	n/a	n/a	n/a	-999	16	[-999, -999, -999]	n/a	catFR1	3	R1108J
2549.983	7.386	2777696	PROB	7.386	n/a	n/a	n/a	-999	16	[2, 6, 9]	17	catFR1	3	R1108J
2557.369	3.815	2785082	PROB	3.815	n/a	n/a	n/a	-999	16	[3, 2, 3]	8	catFR1	3	R1108J
2561.184	8.019	2788897	PROB	8.019	n/a	n/a	n/a	-999	16	[6, 8, 6]	20	catFR1	3	R1108J
2569.203	9.265	2796916	PROB	9.265	n/a	n/a	n/a	-999	16	[5, 7, 8]	20	catFR1	3	R1108J
2578.468	0.019	2806181	STOP	n/a	n/a	n/a	n/a	-999	16	[-999, -999, -999]	n/a	catFR1	3	R1108J
2578.487	1.15	2806200	DISTRACT_END	n/a	n/a	n/a	n/a	-999	16	[0, 0, 0]	n/a	catFR1	3	R1108J
2579.637	0.431	2807350	REC_START	n/a	n/a	n/a	n/a	-999	16	[0, 0, 0]	n/a	catFR1	3	R1108J
2580.068	0.757	2807781	REC_WORD	0.757	n/a	CHAIR	Furniture	11	16	[0, 0, 0]	n/a	catFR1	3	R1108J
2580.825	2.552	2808538	REC_WORD	2.552	n/a	SOFA	Furniture	4	16	[0, 0, 0]	n/a	catFR1	3	R1108J
2583.377	1.363	2811090	REC_WORD	1.363	n/a	COUCH	Furniture	3	16	[0, 0, 0]	n/a	catFR1	3	R1108J
2584.74	1.72	2812453	REC_WORD	1.72	n/a	MARIGOLD	Flowers	6	16	[0, 0, 0]	n/a	catFR1	3	R1108J
2586.46	2.905	2814173	REC_WORD_VV	2.905	n/a	<>	n/a	-999	16	[0, 0, 0]	n/a	catFR1	3	R1108J
2589.365	0.795	2817078	REC_WORD	0.795	n/a	PANDA	Zoo	2	16	[0, 0, 0]	n/a	catFR1	3	R1108J
2590.16	1.347	2817873	REC_WORD	1.347	n/a	GORILLA	Zoo	1	16	[0, 0, 0]	n/a	catFR1	3	R1108J
2591.507	2.483	2819220	REC_WORD	2.483	n/a	ZEBRA	Zoo	8	16	[0, 0, 0]	n/a	catFR1	3	R1108J
2593.99	1.569	2821703	REC_WORD_VV	1.569	n/a	<>	n/a	-999	16	[0, 0, 0]	n/a	catFR1	3	R1108J
2595.559	1.0	2823272	REC_WORD	1.0	n/a	SUNFLOWER	Flowers	10	16	[0, 0, 0]	n/a	catFR1	3	R1108J
2596.559	2.301	2824272	REC_WORD_VV	2.301	n/a	<>	n/a	-999	16	[0, 0, 0]	n/a	catFR1	3	R1108J
2598.86	10.793	2826573	REC_WORD_VV	10.793	n/a	<>	n/a	-999	16	[0, 0, 0]	n/a	catFR1	3	R1108J
2609.653	2.321	2837366	REC_END	n/a	n/a	n/a	n/a	-999	16	[0, 0, 0]	n/a	catFR1	3	R1108J
2611.974	0.001	2839687	COUNTDOWN_START	n/a	n/a	n/a	n/a	-999	17	[0, 0, 0]	n/a	catFR1	3	R1108J
2611.975	10.427	2839688	TRIAL	n/a	n/a	n/a	n/a	-999	17	[0, 0, 0]	n/a	catFR1	3	R1108J
2622.402	0.007	2850115	COUNTDOWN_END	n/a	n/a	n/a	n/a	-999	17	[0, 0, 0]	n/a	catFR1	3	R1108J
2622.409	3.651	2850122	ORIENT	n/a	n/a	n/a	n/a	-999	17	[0, 0, 0]	n/a	catFR1	3	R1108J
2626.06	2.5	2853773	WORD	n/a	wordpools/wordpool_categorized_EN.txt	PIE	Desserts	1	17	[0, 0, 0]	n/a	catFR1	3	R1108J
2628.56	2.617	2856273	WORD	n/a	wordpools/wordpool_categorized_EN.txt	JELLO	Desserts	2	17	[0, 0, 0]	n/a	catFR1	3	R1108J
2631.177	2.383	2858890	WORD	n/a	wordpools/wordpool_categorized_EN.txt	HALLWAY	Building	3	17	[0, 0, 0]	n/a	catFR1	3	R1108J
2633.56	2.518	2861273	WORD	n/a	wordpools/wordpool_categorized_EN.txt	ATTIC	Building	4	17	[0, 0, 0]	n/a	catFR1	3	R1108J
2636.078	2.45	2863791	WORD	n/a	wordpools/wordpool_categorized_EN.txt	PHONE	Electronics	5	17	[0, 0, 0]	n/a	catFR1	3	R1108J
2638.528	2.433	2866241	WORD	n/a	wordpools/wordpool_categorized_EN.txt	PRINTER	Electronics	6	17	[0, 0, 0]	n/a	catFR1	3	R1108J
2640.961	2.418	2868674	WORD	n/a	wordpools/wordpool_categorized_EN.txt	MOUSSE	Desserts	7	17	[0, 0, 0]	n/a	catFR1	3	R1108J
2643.379	2.517	2871092	WORD	n/a	wordpools/wordpool_categorized_EN.txt	PUDDING	Desserts	8	17	[0, 0, 0]	n/a	catFR1	3	R1108J
2645.896	2.451	2873609	WORD	n/a	wordpools/wordpool_categorized_EN.txt	COMPUTER	Electronics	9	17	[0, 0, 0]	n/a	catFR1	3	R1108J
2648.347	2.499	2876060	WORD	n/a	wordpools/wordpool_categorized_EN.txt	TABLET	Electronics	10	17	[0, 0, 0]	n/a	catFR1	3	R1108J
2650.846	2.567	2878559	WORD	n/a	wordpools/wordpool_categorized_EN.txt	ROOF	Building	11	17	[0, 0, 0]	n/a	catFR1	3	R1108J
2653.413	1.617	2881126	WORD	n/a	wordpools/wordpool_categorized_EN.txt	DOOR	Building	12	17	[0, 0, 0]	n/a	catFR1	3	R1108J
2655.03	0.001	2882743	DISTRACT_START	n/a	n/a	n/a	n/a	-999	17	[0, 0, 0]	n/a	catFR1	3	R1108J
2655.031	0.016	2882744	START	n/a	n/a	n/a	n/a	-999	17	[-999, -999, -999]	n/a	catFR1	3	R1108J
2655.047	4.268	2882760	PROB	4.268	n/a	n/a	n/a	-999	17	[4, 8, 2]	14	catFR1	3	R1108J
2659.315	5.35	2887028	PROB	5.35	n/a	n/a	n/a	-999	17	[9, 3, 6]	18	catFR1	3	R1108J
2664.665	4.266	2892378	PROB	4.266	n/a	n/a	n/a	-999	17	[1, 7, 6]	12	catFR1	3	R1108J
2668.931	7.813	2896644	PROB	7.813	n/a	n/a	n/a	-999	17	[8, 3, 5]	16	catFR1	3	R1108J
2676.744	0.005	2904456	STOP	n/a	n/a	n/a	n/a	-999	17	[-999, -999, -999]	n/a	catFR1	3	R1108J
2676.749	1.101	2904461	DISTRACT_END	n/a	n/a	n/a	n/a	-999	17	[0, 0, 0]	n/a	catFR1	3	R1108J
2677.85	0.901	2905562	REC_START	n/a	n/a	n/a	n/a	-999	17	[0, 0, 0]	n/a	catFR1	3	R1108J
2678.751	0.774	2906463	REC_WORD	0.774	n/a	MOUSSE	Desserts	7	17	[0, 0, 0]	n/a	catFR1	3	R1108J
2679.525	1.0	2907237	REC_WORD	1.0	n/a	PUDDING	Desserts	8	17	[0, 0, 0]	n/a	catFR1	3	R1108J
2680.525	0.382	2908237	REC_WORD_VV	0.382	n/a	<>	n/a	-999	17	[0, 0, 0]	n/a	catFR1	3	R1108J
2680.907	2.471	2908619	REC_WORD	2.471	n/a	JELLO	Desserts	2	17	[0, 0, 0]	n/a	catFR1	3	R1108J
2683.378	1.0	2911090	REC_WORD_VV	1.0	n/a	<>	n/a	-999	17	[0, 0, 0]	n/a	catFR1	3	R1108J
2684.378	22.515	2912090	REC_WORD_VV	22.515	n/a	<>	n/a	-999	17	[0, 0, 0]	n/a	catFR1	3	R1108J
2706.893	0.969	2934605	REC_WORD	0.969	n/a	PIE	Desserts	1	17	[0, 0, 0]	n/a	catFR1	3	R1108J
2707.862	2.942	2935574	REC_END	n/a	n/a	n/a	n/a	-999	17	[0, 0, 0]	n/a	catFR1	3	R1108J
2710.804	0.0	2938516	TRIAL	n/a	n/a	n/a	n/a	-999	18	[0, 0, 0]	n/a	catFR1	3	R1108J
2710.804	10.428	2938516	COUNTDOWN_START	n/a	n/a	n/a	n/a	-999	18	[0, 0, 0]	n/a	catFR1	3	R1108J
2721.232	0.007	2948944	COUNTDOWN_END	n/a	n/a	n/a	n/a	-999	18	[0, 0, 0]	n/a	catFR1	3	R1108J
2721.239	3.65	2948951	ORIENT	n/a	n/a	n/a	n/a	-999	18	[0, 0, 0]	n/a	catFR1	3	R1108J
2724.889	2.617	2952601	WORD	n/a	wordpools/wordpool_categorized_EN.txt	WALL	Building	1	18	[0, 0, 0]	n/a	catFR1	3	R1108J
2727.506	2.617	2955218	WORD	n/a	wordpools/wordpool_categorized_EN.txt	FOUNDATION	Building	2	18	[0, 0, 0]	n/a	catFR1	3	R1108J
2730.123	2.6	2957835	WORD	n/a	wordpools/wordpool_categorized_EN.txt	ARM	BodyParts	3	18	[0, 0, 0]	n/a	catFR1	3	R1108J
2732.723	2.518	2960435	WORD	n/a	wordpools/wordpool_categorized_EN.txt	FINGERS	BodyParts	4	18	[0, 0, 0]	n/a	catFR1	3	R1108J
2735.241	2.449	2962953	WORD	n/a	wordpools/wordpool_categorized_EN.txt	FRISBEE	Toys	5	18	[0, 0, 0]	n/a	catFR1	3	R1108J
2737.69	2.602	2965402	WORD	n/a	wordpools/wordpool_categorized_EN.txt	BARBIE	Toys	6	18	[0, 0, 0]	n/a	catFR1	3	R1108J
2740.292	2.532	2968004	WORD	n/a	wordpools/wordpool_categorized_EN.txt	EAR	BodyParts	7	18	[0, 0, 0]	n/a	catFR1	3	R1108J
2742.824	2.518	2970536	WORD	n/a	wordpools/wordpool_categorized_EN.txt	HAND	BodyParts	8	18	[0, 0, 0]	n/a	catFR1	3	R1108J
2745.342	2.399	2973054	WORD	n/a	wordpools/wordpool_categorized_EN.txt	FLOOR	Building	9	18	[0, 0, 0]	n/a	catFR1	3	R1108J
2747.741	2.569	2975453	WORD	n/a	wordpools/wordpool_categorized_EN.txt	CEILING	Building	10	18	[0, 0, 0]	n/a	catFR1	3	R1108J
2750.31	2.616	2978022	WORD	n/a	wordpools/wordpool_categorized_EN.txt	BASKETBALL	Toys	11	18	[0, 0, 0]	n/a	catFR1	3	R1108J
2752.926	1.617	2980638	WORD	n/a	wordpools/wordpool_categorized_EN.txt	DOLL	Toys	12	18	[0, 0, 0]	n/a	catFR1	3	R1108J
2754.543	0.0	2982255	DISTRACT_START	n/a	n/a	n/a	n/a	-999	18	[0, 0, 0]	n/a	catFR1	3	R1108J
2754.543	0.016	2982255	START	n/a	n/a	n/a	n/a	-999	18	[-999, -999, -999]	n/a	catFR1	3	R1108J
2754.559	15.102	2982271	PROB	15.102	n/a	n/a	n/a	-999	18	[9, 8, 9]	27	catFR1	3	R1108J
2769.661	13.822	2997373	PROB	13.822	n/a	n/a	n/a	-999	18	[4, 9, 8]	21	catFR1	3	R1108J
2783.483	0.013	3011195	STOP	n/a	n/a	n/a	n/a	-999	18	[-999, -999, -999]	n/a	catFR1	3	R1108J
2783.496	1.034	3011208	DISTRACT_END	n/a	n/a	n/a	n/a	-999	18	[0, 0, 0]	n/a	catFR1	3	R1108J
2784.53	1.29	3012242	REC_START	n/a	n/a	n/a	n/a	-999	18	[0, 0, 0]	n/a	catFR1	3	R1108J
2785.82	0.939	3013532	REC_WORD	0.939	n/a	FOUNDATION	Building	2	18	[0, 0, 0]	n/a	catFR1	3	R1108J
2786.759	1.506	3014471	REC_WORD	1.506	n/a	CEILING	Building	10	18	[0, 0, 0]	n/a	catFR1	3	R1108J
2788.265	1.623	3015977	REC_WORD	1.623	n/a	ROOF	n/a	-999	18	[0, 0, 0]	n/a	catFR1	3	R1108J
2789.888	0.93	3017600	REC_WORD	0.93	n/a	HAND	BodyParts	8	18	[0, 0, 0]	n/a	catFR1	3	R1108J
2790.818	0.917	3018530	REC_WORD	0.917	n/a	FINGERS	BodyParts	4	18	[0, 0, 0]	n/a	catFR1	3	R1108J
2791.735	1.655	3019447	REC_WORD	1.655	n/a	ARM	BodyParts	3	18	[0, 0, 0]	n/a	catFR1	3	R1108J
2793.39	2.807	3021102	REC_WORD_VV	2.807	n/a	<>	n/a	-999	18	[0, 0, 0]	n/a	catFR1	3	R1108J
2796.197	1.648	3023909	REC_WORD	1.648	n/a	DOLL	Toys	12	18	[0, 0, 0]	n/a	catFR1	3	R1108J
2797.845	3.22	3025557	REC_WORD_VV	3.22	n/a	<>	n/a	-999	18	[0, 0, 0]	n/a	catFR1	3	R1108J
2801.065	1.809	3028777	REC_WORD	1.809	n/a	FRISBEE	Toys	5	18	[0, 0, 0]	n/a	catFR1	3	R1108J
2802.874	6.891	3030586	REC_WORD_VV	6.891	n/a	<>	n/a	-999	18	[0, 0, 0]	n/a	catFR1	3	R1108J
2809.765	4.78	3037477	REC_WORD	4.78	n/a	BASKETBALL	Toys	11	18	[0, 0, 0]	n/a	catFR1	3	R1108J
2814.545	11.273	3042257	REC_END	n/a	n/a	n/a	n/a	-999	18	[0, 0, 0]	n/a	catFR1	3	R1108J
2825.818	0.001	3053530	COUNTDOWN_START	n/a	n/a	n/a	n/a	-999	19	[0, 0, 0]	n/a	catFR1	3	R1108J
2825.819	10.427	3053531	TRIAL	n/a	n/a	n/a	n/a	-999	19	[0, 0, 0]	n/a	catFR1	3	R1108J
2836.246	0.008	3063958	COUNTDOWN_END	n/a	n/a	n/a	n/a	-999	19	[0, 0, 0]	n/a	catFR1	3	R1108J
2836.254	3.599	3063966	ORIENT	n/a	n/a	n/a	n/a	-999	19	[0, 0, 0]	n/a	catFR1	3	R1108J
2839.853	2.452	3067565	WORD	n/a	wordpools/wordpool_categorized_EN.txt	OYSTER	OceanAnimals	1	19	[0, 0, 0]	n/a	catFR1	3	R1108J
2842.305	2.466	3070017	WORD	n/a	wordpools/wordpool_categorized_EN.txt	CRAB	OceanAnimals	2	19	[0, 0, 0]	n/a	catFR1	3	R1108J
2844.771	2.383	3072483	WORD	n/a	wordpools/wordpool_categorized_EN.txt	GOAT	FarmAnimals	3	19	[0, 0, 0]	n/a	catFR1	3	R1108J
2847.154	2.584	3074866	WORD	n/a	wordpools/wordpool_categorized_EN.txt	TURKEY	FarmAnimals	4	19	[0, 0, 0]	n/a	catFR1	3	R1108J
2849.738	2.501	3077450	WORD	n/a	wordpools/wordpool_categorized_EN.txt	CREEK	Landscapes	5	19	[0, 0, 0]	n/a	catFR1	3	R1108J
2852.239	2.566	3079951	WORD	n/a	wordpools/wordpool_categorized_EN.txt	MOUNTAIN	Landscapes	6	19	[0, 0, 0]	n/a	catFR1	3	R1108J
2854.805	2.502	3082517	WORD	n/a	wordpools/wordpool_categorized_EN.txt	SHEEP	FarmAnimals	7	19	[0, 0, 0]	n/a	catFR1	3	R1108J
2857.307	2.499	3085019	WORD	n/a	wordpools/wordpool_categorized_EN.txt	HEN	FarmAnimals	8	19	[0, 0, 0]	n/a	catFR1	3	R1108J
2859.806	2.401	3087518	WORD	n/a	wordpools/wordpool_categorized_EN.txt	DOLPHIN	OceanAnimals	9	19	[0, 0, 0]	n/a	catFR1	3	R1108J
2862.207	2.383	3089919	WORD	n/a	wordpools/wordpool_categorized_EN.txt	OCTOPUS	OceanAnimals	10	19	[0, 0, 0]	n/a	catFR1	3	R1108J
2864.59	2.567	3092302	WORD	n/a	wordpools/wordpool_categorized_EN.txt	LAKE	Landscapes	11	19	[0, 0, 0]	n/a	catFR1	3	R1108J
2867.157	1.617	3094869	WORD	n/a	wordpools/wordpool_categorized_EN.txt	ISLAND	Landscapes	12	19	[0, 0, 0]	n/a	catFR1	3	R1108J
2868.774	0.001	3096486	DISTRACT_START	n/a	n/a	n/a	n/a	-999	19	[0, 0, 0]	n/a	catFR1	3	R1108J
2868.775	0.015	3096487	START	n/a	n/a	n/a	n/a	-999	19	[-999, -999, -999]	n/a	catFR1	3	R1108J
2868.79	8.252	3096502	PROB	8.252	n/a	n/a	n/a	-999	19	[9, 6, 4]	20	catFR1	3	R1108J
2877.042	6.235	3104754	PROB	6.235	n/a	n/a	n/a	-999	19	[4, 3, 4]	11	catFR1	3	R1108J
2883.277	7.826	3110989	PROB	7.826	n/a	n/a	n/a	-999	19	[5, 2, 4]	11	catFR1	3	R1108J
2891.103	0.007	3118815	STOP	n/a	n/a	n/a	n/a	-999	19	[-999, -999, -999]	n/a	catFR1	3	R1108J
2891.11	1.152	3118822	DISTRACT_END	n/a	n/a	n/a	n/a	-999	19	[0, 0, 0]	n/a	catFR1	3	R1108J
2892.262	1.241	3119974	REC_START	n/a	n/a	n/a	n/a	-999	19	[0, 0, 0]	n/a	catFR1	3	R1108J
2893.503	1.131	3121215	REC_WORD	1.131	n/a	GOAT	FarmAnimals	3	19	[0, 0, 0]	n/a	catFR1	3	R1108J
2894.634	0.995	3122346	REC_WORD	0.995	n/a	SHEEP	FarmAnimals	7	19	[0, 0, 0]	n/a	catFR1	3	R1108J
2895.629	1.977	3123341	REC_WORD	1.977	n/a	HEN	FarmAnimals	8	19	[0, 0, 0]	n/a	catFR1	3	R1108J
2897.606	0.819	3125318	REC_WORD_VV	0.819	n/a	<>	n/a	-999	19	[0, 0, 0]	n/a	catFR1	3	R1108J
2898.425	1.0	3126137	REC_WORD	1.0	n/a	OCTOPUS	OceanAnimals	10	19	[0, 0, 0]	n/a	catFR1	3	R1108J
2899.425	1.014	3127137	REC_WORD_VV	1.014	n/a	<>	n/a	-999	19	[0, 0, 0]	n/a	catFR1	3	R1108J
2900.439	0.68	3128151	REC_WORD	0.68	n/a	CREEK	Landscapes	5	19	[0, 0, 0]	n/a	catFR1	3	R1108J
2901.119	1.65	3128831	REC_WORD	1.65	n/a	CRAB	OceanAnimals	2	19	[0, 0, 0]	n/a	catFR1	3	R1108J
2902.769	1.025	3130481	REC_WORD_VV	1.025	n/a	<>	n/a	-999	19	[0, 0, 0]	n/a	catFR1	3	R1108J
2903.794	1.817	3131506	REC_WORD	1.817	n/a	OYSTER	OceanAnimals	1	19	[0, 0, 0]	n/a	catFR1	3	R1108J
2905.611	16.66	3133323	REC_WORD_VV	16.66	n/a	<>	n/a	-999	19	[0, 0, 0]	n/a	catFR1	3	R1108J
2922.271	3.727	3149983	REC_END	n/a	n/a	n/a	n/a	-999	19	[0, 0, 0]	n/a	catFR1	3	R1108J
2925.998	0.0	3153710	TRIAL	n/a	n/a	n/a	n/a	-999	20	[0, 0, 0]	n/a	catFR1	3	R1108J
2925.998	10.428	3153710	COUNTDOWN_START	n/a	n/a	n/a	n/a	-999	20	[0, 0, 0]	n/a	catFR1	3	R1108J
2936.426	0.007	3164138	COUNTDOWN_END	n/a	n/a	n/a	n/a	-999	20	[0, 0, 0]	n/a	catFR1	3	R1108J
2936.433	3.784	3164145	ORIENT	n/a	n/a	n/a	n/a	-999	20	[0, 0, 0]	n/a	catFR1	3	R1108J
2940.217	2.416	3167929	WORD	n/a	wordpools/wordpool_categorized_EN.txt	CHICKEN	FarmAnimals	1	20	[0, 0, 0]	n/a	catFR1	3	R1108J
2942.633	2.467	3170345	WORD	n/a	wordpools/wordpool_categorized_EN.txt	HORSE	FarmAnimals	2	20	[0, 0, 0]	n/a	catFR1	3	R1108J
2945.1	2.617	3172812	WORD	n/a	wordpools/wordpool_categorized_EN.txt	BEE	Insects	3	20	[0, 0, 0]	n/a	catFR1	3	R1108J
2947.717	2.551	3175429	WORD	n/a	wordpools/wordpool_categorized_EN.txt	LADYBUG	Insects	4	20	[0, 0, 0]	n/a	catFR1	3	R1108J
2950.268	2.4	3177980	WORD	n/a	wordpools/wordpool_categorized_EN.txt	WILLOW	Trees	5	20	[0, 0, 0]	n/a	catFR1	3	R1108J
2952.668	2.568	3180380	WORD	n/a	wordpools/wordpool_categorized_EN.txt	WALNUT	Trees	6	20	[0, 0, 0]	n/a	catFR1	3	R1108J
2955.236	2.566	3182948	WORD	n/a	wordpools/wordpool_categorized_EN.txt	COW	FarmAnimals	7	20	[0, 0, 0]	n/a	catFR1	3	R1108J
2957.802	2.518	3185514	WORD	n/a	wordpools/wordpool_categorized_EN.txt	PIG	FarmAnimals	8	20	[0, 0, 0]	n/a	catFR1	3	R1108J
2960.32	2.532	3188032	WORD	n/a	wordpools/wordpool_categorized_EN.txt	CYPRESS	Trees	9	20	[0, 0, 0]	n/a	catFR1	3	R1108J
2962.852	2.468	3190564	WORD	n/a	wordpools/wordpool_categorized_EN.txt	EVERGREEN	Trees	10	20	[0, 0, 0]	n/a	catFR1	3	R1108J
2965.32	2.549	3193032	WORD	n/a	wordpools/wordpool_categorized_EN.txt	ANT	Insects	11	20	[0, 0, 0]	n/a	catFR1	3	R1108J
2967.869	1.617	3195581	WORD	n/a	wordpools/wordpool_categorized_EN.txt	MOSQUITO	Insects	12	20	[0, 0, 0]	n/a	catFR1	3	R1108J
2969.486	0.001	3197198	DISTRACT_START	n/a	n/a	n/a	n/a	-999	20	[0, 0, 0]	n/a	catFR1	3	R1108J
2969.487	0.016	3197199	START	n/a	n/a	n/a	n/a	-999	20	[-999, -999, -999]	n/a	catFR1	3	R1108J
2969.503	11.968	3197215	PROB	11.968	n/a	n/a	n/a	-999	20	[9, 6, 4]	20	catFR1	3	R1108J
2981.471	7.101	3209183	PROB	7.101	n/a	n/a	n/a	-999	20	[4, 6, 2]	12	catFR1	3	R1108J
2988.572	7.247	3216284	PROB	7.247	n/a	n/a	n/a	-999	20	[7, 3, 3]	13	catFR1	3	R1108J
2995.819	0.004	3223531	STOP	n/a	n/a	n/a	n/a	-999	20	[-999, -999, -999]	n/a	catFR1	3	R1108J
2995.823	1.152	3223535	DISTRACT_END	n/a	n/a	n/a	n/a	-999	20	[0, 0, 0]	n/a	catFR1	3	R1108J
2996.975	0.749	3224687	REC_START	n/a	n/a	n/a	n/a	-999	20	[0, 0, 0]	n/a	catFR1	3	R1108J
2997.724	0.895	3225436	REC_WORD	0.895	n/a	WILLOW	Trees	5	20	[0, 0, 0]	n/a	catFR1	3	R1108J
2998.619	1.048	3226331	REC_WORD	1.048	n/a	WALNUT	Trees	6	20	[0, 0, 0]	n/a	catFR1	3	R1108J
2999.667	1.102	3227379	REC_WORD	1.102	n/a	CYPRESS	Trees	9	20	[0, 0, 0]	n/a	catFR1	3	R1108J
3000.769	2.251	3228481	REC_WORD	2.251	n/a	EVERGREEN	Trees	10	20	[0, 0, 0]	n/a	catFR1	3	R1108J
3003.02	1.115	3230732	REC_WORD	1.115	n/a	HORSE	FarmAnimals	2	20	[0, 0, 0]	n/a	catFR1	3	R1108J
3004.135	1.196	3231847	REC_WORD	1.196	n/a	BEE	Insects	3	20	[0, 0, 0]	n/a	catFR1	3	R1108J
3005.331	1.781	3233043	REC_WORD	1.781	n/a	COW	FarmAnimals	7	20	[0, 0, 0]	n/a	catFR1	3	R1108J
3007.112	3.14	3234824	REC_WORD_VV	3.14	n/a	<>	n/a	-999	20	[0, 0, 0]	n/a	catFR1	3	R1108J
3010.252	2.477	3237964	REC_WORD	2.477	n/a	LADYBUG	Insects	4	20	[0, 0, 0]	n/a	catFR1	3	R1108J
3012.729	14.256	3240441	REC_WORD_VV	14.256	n/a	<>	n/a	-999	20	[0, 0, 0]	n/a	catFR1	3	R1108J
3026.985	2.26	3254697	REC_END	n/a	n/a	n/a	n/a	-999	20	[0, 0, 0]	n/a	catFR1	3	R1108J
3029.245	0.0	3256957	TRIAL	n/a	n/a	n/a	n/a	-999	21	[0, 0, 0]	n/a	catFR1	3	R1108J
3029.245	10.428	3256957	COUNTDOWN_START	n/a	n/a	n/a	n/a	-999	21	[0, 0, 0]	n/a	catFR1	3	R1108J
3039.673	0.006	3267384	COUNTDOWN_END	n/a	n/a	n/a	n/a	-999	21	[0, 0, 0]	n/a	catFR1	3	R1108J
3039.679	3.75	3267390	ORIENT	n/a	n/a	n/a	n/a	-999	21	[0, 0, 0]	n/a	catFR1	3	R1108J
3043.429	2.601	3271140	WORD	n/a	wordpools/wordpool_categorized_EN.txt	HAMMER	Tools	1	21	[0, 0, 0]	n/a	catFR1	3	R1108J
3046.03	2.45	3273741	WORD	n/a	wordpools/wordpool_categorized_EN.txt	PLIERS	Tools	2	21	[0, 0, 0]	n/a	catFR1	3	R1108J
3048.48	2.4	3276191	WORD	n/a	wordpools/wordpool_categorized_EN.txt	VAN	Vehicles	3	21	[0, 0, 0]	n/a	catFR1	3	R1108J
3050.88	2.485	3278591	WORD	n/a	wordpools/wordpool_categorized_EN.txt	BOAT	Vehicles	4	21	[0, 0, 0]	n/a	catFR1	3	R1108J
3053.365	2.583	3281076	WORD	n/a	wordpools/wordpool_categorized_EN.txt	SPARROW	Birds	5	21	[0, 0, 0]	n/a	catFR1	3	R1108J
3055.948	2.516	3283659	WORD	n/a	wordpools/wordpool_categorized_EN.txt	PIGEON	Birds	6	21	[0, 0, 0]	n/a	catFR1	3	R1108J
3058.464	2.484	3286175	WORD	n/a	wordpools/wordpool_categorized_EN.txt	RATCHET	Tools	7	21	[0, 0, 0]	n/a	catFR1	3	R1108J
3060.948	2.6	3288659	WORD	n/a	wordpools/wordpool_categorized_EN.txt	AXE	Tools	8	21	[0, 0, 0]	n/a	catFR1	3	R1108J
3063.548	2.451	3291259	WORD	n/a	wordpools/wordpool_categorized_EN.txt	SEAGULL	Birds	9	21	[0, 0, 0]	n/a	catFR1	3	R1108J
3065.999	2.583	3293710	WORD	n/a	wordpools/wordpool_categorized_EN.txt	HAWK	Birds	10	21	[0, 0, 0]	n/a	catFR1	3	R1108J
3068.582	2.584	3296293	WORD	n/a	wordpools/wordpool_categorized_EN.txt	MOPED	Vehicles	11	21	[0, 0, 0]	n/a	catFR1	3	R1108J
3071.166	1.617	3298877	WORD	n/a	wordpools/wordpool_categorized_EN.txt	JEEP	Vehicles	12	21	[0, 0, 0]	n/a	catFR1	3	R1108J
3072.783	0.001	3300494	DISTRACT_START	n/a	n/a	n/a	n/a	-999	21	[0, 0, 0]	n/a	catFR1	3	R1108J
3072.784	0.016	3300495	START	n/a	n/a	n/a	n/a	-999	21	[-999, -999, -999]	n/a	catFR1	3	R1108J
3072.8	6.133	3300511	PROB	6.133	n/a	n/a	n/a	-999	21	[8, 2, 9]	19	catFR1	3	R1108J
3078.933	3.935	3306644	PROB	3.935	n/a	n/a	n/a	-999	21	[2, 4, 1]	7	catFR1	3	R1108J
3082.868	3.584	3310579	PROB	3.584	n/a	n/a	n/a	-999	21	[9, 9, 2]	20	catFR1	3	R1108J
3086.452	5.851	3314163	PROB	5.851	n/a	n/a	n/a	-999	21	[5, 1, 6]	12	catFR1	3	R1108J
3092.303	7.288	3320014	PROB	7.288	n/a	n/a	n/a	-999	21	[9, 5, 6]	20	catFR1	3	R1108J
3099.591	0.012	3327302	STOP	n/a	n/a	n/a	n/a	-999	21	[-999, -999, -999]	n/a	catFR1	3	R1108J
3099.603	1.134	3327314	DISTRACT_END	n/a	n/a	n/a	n/a	-999	21	[0, 0, 0]	n/a	catFR1	3	R1108J
3100.737	1.586	3328448	REC_START	n/a	n/a	n/a	n/a	-999	21	[0, 0, 0]	n/a	catFR1	3	R1108J
3102.323	1.092	3330034	REC_WORD	1.092	n/a	MOPED	Vehicles	11	21	[0, 0, 0]	n/a	catFR1	3	R1108J
3103.415	1.398	3331126	REC_WORD	1.398	n/a	JEEP	Vehicles	12	21	[0, 0, 0]	n/a	catFR1	3	R1108J
3104.813	4.098	3332524	REC_WORD_VV	4.098	n/a	<>	n/a	-999	21	[0, 0, 0]	n/a	catFR1	3	R1108J
3108.911	6.866	3336622	REC_WORD_VV	6.866	n/a	<>	n/a	-999	21	[0, 0, 0]	n/a	catFR1	3	R1108J
3115.777	14.971	3343488	REC_WORD_VV	14.971	n/a	<>	n/a	-999	21	[0, 0, 0]	n/a	catFR1	3	R1108J
3130.748	2.46	3358459	REC_END	n/a	n/a	n/a	n/a	-999	21	[0, 0, 0]	n/a	catFR1	3	R1108J
3133.208	0.0	3360919	COUNTDOWN_START	n/a	n/a	n/a	n/a	-999	22	[0, 0, 0]	n/a	catFR1	3	R1108J
3133.208	10.428	3360919	TRIAL	n/a	n/a	n/a	n/a	-999	22	[0, 0, 0]	n/a	catFR1	3	R1108J
3143.636	0.006	3371347	COUNTDOWN_END	n/a	n/a	n/a	n/a	-999	22	[0, 0, 0]	n/a	catFR1	3	R1108J
3143.642	3.534	3371353	ORIENT	n/a	n/a	n/a	n/a	-999	22	[0, 0, 0]	n/a	catFR1	3	R1108J
3147.176	2.433	3374887	WORD	n/a	wordpools/wordpool_categorized_EN.txt	DOLLHOUSE	Toys	1	22	[0, 0, 0]	n/a	catFR1	3	R1108J
3149.609	2.584	3377320	WORD	n/a	wordpools/wordpool_categorized_EN.txt	BASEBALL	Toys	2	22	[0, 0, 0]	n/a	catFR1	3	R1108J
3152.193	2.567	3379904	WORD	n/a	wordpools/wordpool_categorized_EN.txt	LEMONADE	Beverages	3	22	[0, 0, 0]	n/a	catFR1	3	R1108J
3154.76	2.367	3382471	WORD	n/a	wordpools/wordpool_categorized_EN.txt	JUICE	Beverages	4	22	[0, 0, 0]	n/a	catFR1	3	R1108J
3157.127	2.467	3384838	WORD	n/a	wordpools/wordpool_categorized_EN.txt	DRESS	Clothing	5	22	[0, 0, 0]	n/a	catFR1	3	R1108J
3159.594	2.4	3387305	WORD	n/a	wordpools/wordpool_categorized_EN.txt	SKIRT	Clothing	6	22	[0, 0, 0]	n/a	catFR1	3	R1108J
3161.994	2.517	3389705	WORD	n/a	wordpools/wordpool_categorized_EN.txt	TEA	Beverages	7	22	[0, 0, 0]	n/a	catFR1	3	R1108J
3164.511	2.451	3392222	WORD	n/a	wordpools/wordpool_categorized_EN.txt	WINE	Beverages	8	22	[0, 0, 0]	n/a	catFR1	3	R1108J
3166.962	2.466	3394673	WORD	n/a	wordpools/wordpool_categorized_EN.txt	SLINKY	Toys	9	22	[0, 0, 0]	n/a	catFR1	3	R1108J
3169.428	2.534	3397139	WORD	n/a	wordpools/wordpool_categorized_EN.txt	FOOTBALL	Toys	10	22	[0, 0, 0]	n/a	catFR1	3	R1108J
3171.962	2.501	3399673	WORD	n/a	wordpools/wordpool_categorized_EN.txt	UNDERWEAR	Clothing	11	22	[0, 0, 0]	n/a	catFR1	3	R1108J
3174.463	1.617	3402174	WORD	n/a	wordpools/wordpool_categorized_EN.txt	JACKET	Clothing	12	22	[0, 0, 0]	n/a	catFR1	3	R1108J
3176.08	0.001	3403791	DISTRACT_START	n/a	n/a	n/a	n/a	-999	22	[0, 0, 0]	n/a	catFR1	3	R1108J
3176.081	0.015	3403792	START	n/a	n/a	n/a	n/a	-999	22	[-999, -999, -999]	n/a	catFR1	3	R1108J
3176.096	4.302	3403807	PROB	4.302	n/a	n/a	n/a	-999	22	[5, 7, 5]	17	catFR1	3	R1108J
3180.398	5.216	3408109	PROB	5.216	n/a	n/a	n/a	-999	22	[2, 7, 8]	17	catFR1	3	R1108J
3185.614	8.868	3413325	PROB	8.868	n/a	n/a	n/a	-999	22	[3, 3, 9]	15	catFR1	3	R1108J
3194.482	5.056	3422193	PROB	5.056	n/a	n/a	n/a	-999	22	[2, 3, 3]	8	catFR1	3	R1108J
3199.538	0.011	3427249	STOP	n/a	n/a	n/a	n/a	-999	22	[-999, -999, -999]	n/a	catFR1	3	R1108J
3199.549	1.101	3427260	DISTRACT_END	n/a	n/a	n/a	n/a	-999	22	[0, 0, 0]	n/a	catFR1	3	R1108J
3200.65	0.821	3428361	REC_START	n/a	n/a	n/a	n/a	-999	22	[0, 0, 0]	n/a	catFR1	3	R1108J
3201.471	6.602	3429182	REC_WORD_VV	6.602	n/a	<>	n/a	-999	22	[0, 0, 0]	n/a	catFR1	3	R1108J
3208.073	0.994	3435784	REC_WORD	0.994	n/a	DOLLHOUSE	Toys	1	22	[0, 0, 0]	n/a	catFR1	3	R1108J
3209.067	1.753	3436778	REC_WORD	1.753	n/a	BASEBALL	Toys	2	22	[0, 0, 0]	n/a	catFR1	3	R1108J
3210.82	5.532	3438531	REC_WORD_VV	5.532	n/a	<>	n/a	-999	22	[0, 0, 0]	n/a	catFR1	3	R1108J
3216.352	2.159	3444063	REC_WORD_VV	2.159	n/a	<>	n/a	-999	22	[0, 0, 0]	n/a	catFR1	3	R1108J
3218.511	1.578	3446222	REC_WORD	1.578	n/a	LEMONADE	Beverages	3	22	[0, 0, 0]	n/a	catFR1	3	R1108J
3220.089	1.703	3447800	REC_WORD	1.703	n/a	JUICE	Beverages	4	22	[0, 0, 0]	n/a	catFR1	3	R1108J
3221.792	8.868	3449503	REC_WORD_VV	8.868	n/a	<>	n/a	-999	22	[0, 0, 0]	n/a	catFR1	3	R1108J
3230.66	2.527	3458371	REC_END	n/a	n/a	n/a	n/a	-999	22	[0, 0, 0]	n/a	catFR1	3	R1108J
3233.187	0.0	3460898	TRIAL	n/a	n/a	n/a	n/a	-999	23	[0, 0, 0]	n/a	catFR1	3	R1108J
3233.187	10.428	3460898	COUNTDOWN_START	n/a	n/a	n/a	n/a	-999	23	[0, 0, 0]	n/a	catFR1	3	R1108J
3243.615	0.006	3471326	COUNTDOWN_END	n/a	n/a	n/a	n/a	-999	23	[0, 0, 0]	n/a	catFR1	3	R1108J
3243.621	3.801	3471332	ORIENT	n/a	n/a	n/a	n/a	-999	23	[0, 0, 0]	n/a	catFR1	3	R1108J
3247.422	2.517	3475133	WORD	n/a	wordpools/wordpool_categorized_EN.txt	CHERRY	Fruit	1	23	[0, 0, 0]	n/a	catFR1	3	R1108J
3249.939	2.434	3477650	WORD	n/a	wordpools/wordpool_categorized_EN.txt	LEMON	Fruit	2	23	[0, 0, 0]	n/a	catFR1	3	R1108J
3252.373	2.417	3480084	WORD	n/a	wordpools/wordpool_categorized_EN.txt	CABBAGE	Vegetables	3	23	[0, 0, 0]	n/a	catFR1	3	R1108J
3254.79	2.383	3482501	WORD	n/a	wordpools/wordpool_categorized_EN.txt	CAULIFLOWER	Vegetables	4	23	[0, 0, 0]	n/a	catFR1	3	R1108J
3257.173	2.484	3484884	WORD	n/a	wordpools/wordpool_categorized_EN.txt	LION	Zoo	5	23	[0, 0, 0]	n/a	catFR1	3	R1108J
3259.657	2.568	3487368	WORD	n/a	wordpools/wordpool_categorized_EN.txt	CHEETAH	Zoo	6	23	[0, 0, 0]	n/a	catFR1	3	R1108J
3262.225	2.583	3489936	WORD	n/a	wordpools/wordpool_categorized_EN.txt	STRAWBERRY	Fruit	7	23	[0, 0, 0]	n/a	catFR1	3	R1108J
3264.808	2.633	3492519	WORD	n/a	wordpools/wordpool_categorized_EN.txt	BANANA	Fruit	8	23	[0, 0, 0]	n/a	catFR1	3	R1108J
3267.441	2.4	3495152	WORD	n/a	wordpools/wordpool_categorized_EN.txt	ORANGUTAN	Zoo	9	23	[0, 0, 0]	n/a	catFR1	3	R1108J
3269.841	2.435	3497552	WORD	n/a	wordpools/wordpool_categorized_EN.txt	CHIMPANZEE	Zoo	10	23	[0, 0, 0]	n/a	catFR1	3	R1108J
3272.276	2.433	3499987	WORD	n/a	wordpools/wordpool_categorized_EN.txt	ONION	Vegetables	11	23	[0, 0, 0]	n/a	catFR1	3	R1108J
3274.709	1.601	3502420	WORD	n/a	wordpools/wordpool_categorized_EN.txt	CUCUMBER	Vegetables	12	23	[0, 0, 0]	n/a	catFR1	3	R1108J
3276.31	0.001	3504021	DISTRACT_START	n/a	n/a	n/a	n/a	-999	23	[0, 0, 0]	n/a	catFR1	3	R1108J
3276.311	0.016	3504022	START	n/a	n/a	n/a	n/a	-999	23	[-999, -999, -999]	n/a	catFR1	3	R1108J
3276.327	4.116	3504038	PROB	4.116	n/a	n/a	n/a	-999	23	[2, 4, 5]	11	catFR1	3	R1108J
3280.443	5.484	3508154	PROB	5.484	n/a	n/a	n/a	-999	23	[4, 5, 4]	13	catFR1	3	R1108J
3285.927	7.634	3513638	PROB	7.634	n/a	n/a	n/a	-999	23	[2, 7, 8]	17	catFR1	3	R1108J
3293.561	7.654	3521272	PROB	7.654	n/a	n/a	n/a	-999	23	[9, 7, 3]	20	catFR1	3	R1108J
3301.215	0.015	3528926	STOP	n/a	n/a	n/a	n/a	-999	23	[-999, -999, -999]	n/a	catFR1	3	R1108J
3301.23	1.216	3528941	DISTRACT_END	n/a	n/a	n/a	n/a	-999	23	[0, 0, 0]	n/a	catFR1	3	R1108J
3302.446	0.772	3530157	REC_START	n/a	n/a	n/a	n/a	-999	23	[0, 0, 0]	n/a	catFR1	3	R1108J
3303.218	1.01	3530929	REC_WORD	1.01	n/a	CHIMPANZEE	Zoo	10	23	[0, 0, 0]	n/a	catFR1	3	R1108J
3304.228	1.0	3531939	REC_WORD	1.0	n/a	ORANGUTAN	Zoo	9	23	[0, 0, 0]	n/a	catFR1	3	R1108J
3305.228	0.665	3532939	REC_WORD_VV	0.665	n/a	<>	n/a	-999	23	[0, 0, 0]	n/a	catFR1	3	R1108J
3305.893	0.621	3533604	REC_WORD	0.621	n/a	BANANA	Fruit	8	23	[0, 0, 0]	n/a	catFR1	3	R1108J
3306.514	0.786	3534225	REC_WORD	0.786	n/a	STRAWBERRY	Fruit	7	23	[0, 0, 0]	n/a	catFR1	3	R1108J
3307.3	1.237	3535011	REC_WORD	1.237	n/a	ONION	Vegetables	11	23	[0, 0, 0]	n/a	catFR1	3	R1108J
3308.537	1.0	3536248	REC_WORD	1.0	n/a	CAULIFLOWER	Vegetables	4	23	[0, 0, 0]	n/a	catFR1	3	R1108J
3309.537	0.15	3537248	REC_WORD_VV	0.15	n/a	<>	n/a	-999	23	[0, 0, 0]	n/a	catFR1	3	R1108J
3309.687	1.585	3537398	REC_WORD	1.585	n/a	CHERRY	Fruit	1	23	[0, 0, 0]	n/a	catFR1	3	R1108J
3311.272	2.925	3538983	REC_WORD_VV	2.925	n/a	<>	n/a	-999	23	[0, 0, 0]	n/a	catFR1	3	R1108J
3314.197	1.715	3541908	REC_WORD	1.715	n/a	CELERY	n/a	-999	23	[0, 0, 0]	n/a	catFR1	3	R1108J
3315.912	6.281	3543623	REC_WORD_VV	6.281	n/a	<>	n/a	-999	23	[0, 0, 0]	n/a	catFR1	3	R1108J
3322.193	10.262	3549904	REC_WORD	10.262	n/a	LION	Zoo	5	23	[0, 0, 0]	n/a	catFR1	3	R1108J
3332.455	2.328	3560166	REC_END	n/a	n/a	n/a	n/a	-999	23	[0, 0, 0]	n/a	catFR1	3	R1108J
3334.783	0.0	3562494	COUNTDOWN_START	n/a	n/a	n/a	n/a	-999	24	[0, 0, 0]	n/a	catFR1	3	R1108J
3334.783	10.428	3562494	TRIAL	n/a	n/a	n/a	n/a	-999	24	[0, 0, 0]	n/a	catFR1	3	R1108J
3345.211	0.008	3572922	COUNTDOWN_END	n/a	n/a	n/a	n/a	-999	24	[0, 0, 0]	n/a	catFR1	3	R1108J
3345.219	3.749	3572930	ORIENT	n/a	n/a	n/a	n/a	-999	24	[0, 0, 0]	n/a	catFR1	3	R1108J
3348.968	2.435	3576679	WORD	n/a	wordpools/wordpool_categorized_EN.txt	DRYER	Appliances	1	24	[0, 0, 0]	n/a	catFR1	3	R1108J
3351.403	2.416	3579114	WORD	n/a	wordpools/wordpool_categorized_EN.txt	STOVE	Appliances	2	24	[0, 0, 0]	n/a	catFR1	3	R1108J
3353.819	2.485	3581530	WORD	n/a	wordpools/wordpool_categorized_EN.txt	COOKIE	Desserts	3	24	[0, 0, 0]	n/a	catFR1	3	R1108J
3356.304	2.449	3584015	WORD	n/a	wordpools/wordpool_categorized_EN.txt	CHEESECAKE	Desserts	4	24	[0, 0, 0]	n/a	catFR1	3	R1108J
3358.753	2.501	3586464	WORD	n/a	wordpools/wordpool_categorized_EN.txt	SODA	Beverages	5	24	[0, 0, 0]	n/a	catFR1	3	R1108J
3361.254	2.416	3588965	WORD	n/a	wordpools/wordpool_categorized_EN.txt	WATER	Beverages	6	24	[0, 0, 0]	n/a	catFR1	3	R1108J
3363.67	2.4	3591381	WORD	n/a	wordpools/wordpool_categorized_EN.txt	CUPCAKE	Desserts	7	24	[0, 0, 0]	n/a	catFR1	3	R1108J
3366.07	2.617	3593781	WORD	n/a	wordpools/wordpool_categorized_EN.txt	BROWNIES	Desserts	8	24	[0, 0, 0]	n/a	catFR1	3	R1108J
3368.687	2.384	3596398	WORD	n/a	wordpools/wordpool_categorized_EN.txt	REFRIGERATOR	Appliances	9	24	[0, 0, 0]	n/a	catFR1	3	R1108J
3371.071	2.484	3598782	WORD	n/a	wordpools/wordpool_categorized_EN.txt	VACUUM	Appliances	10	24	[0, 0, 0]	n/a	catFR1	3	R1108J
3373.555	2.45	3601266	WORD	n/a	wordpools/wordpool_categorized_EN.txt	BEER	Beverages	11	24	[0, 0, 0]	n/a	catFR1	3	R1108J
3376.005	1.617	3603716	WORD	n/a	wordpools/wordpool_categorized_EN.txt	MILK	Beverages	12	24	[0, 0, 0]	n/a	catFR1	3	R1108J
3377.622	0.001	3605333	DISTRACT_START	n/a	n/a	n/a	n/a	-999	24	[0, 0, 0]	n/a	catFR1	3	R1108J
3377.623	0.015	3605334	START	n/a	n/a	n/a	n/a	-999	24	[-999, -999, -999]	n/a	catFR1	3	R1108J
3377.638	4.585	3605349	PROB	4.585	n/a	n/a	n/a	-999	24	[2, 6, 2]	10	catFR1	3	R1108J
3382.223	5.001	3609934	PROB	5.001	n/a	n/a	n/a	-999	24	[5, 4, 3]	13	catFR1	3	R1108J
3387.224	19.722	3614934	PROB	19.722	n/a	n/a	n/a	-999	24	[7, 3, 9]	19	catFR1	3	R1108J
3406.946	0.013	3634656	STOP	n/a	n/a	n/a	n/a	-999	24	[-999, -999, -999]	n/a	catFR1	3	R1108J
3406.959	1.117	3634669	DISTRACT_END	n/a	n/a	n/a	n/a	-999	24	[0, 0, 0]	n/a	catFR1	3	R1108J
3408.076	0.649	3635786	REC_START	n/a	n/a	n/a	n/a	-999	24	[0, 0, 0]	n/a	catFR1	3	R1108J
3408.725	1.0	3636435	REC_WORD	1.0	n/a	CHEESECAKE	Desserts	4	24	[0, 0, 0]	n/a	catFR1	3	R1108J
3409.725	0.815	3637435	REC_WORD_VV	0.815	n/a	<>	n/a	-999	24	[0, 0, 0]	n/a	catFR1	3	R1108J
3410.54	1.108	3638250	REC_WORD_VV	1.108	n/a	<>	n/a	-999	24	[0, 0, 0]	n/a	catFR1	3	R1108J
3411.648	1.0	3639358	REC_WORD	1.0	n/a	COOKIE	Desserts	3	24	[0, 0, 0]	n/a	catFR1	3	R1108J
3412.648	0.847	3640358	REC_WORD_VV	0.847	n/a	<>	n/a	-999	24	[0, 0, 0]	n/a	catFR1	3	R1108J
3413.495	1.0	3641205	REC_WORD	1.0	n/a	STOVE	Appliances	2	24	[0, 0, 0]	n/a	catFR1	3	R1108J
3414.495	0.85	3642205	REC_WORD_VV	0.85	n/a	<>	n/a	-999	24	[0, 0, 0]	n/a	catFR1	3	R1108J
3415.345	20.008	3643055	REC_WORD_VV	20.008	n/a	<>	n/a	-999	24	[0, 0, 0]	n/a	catFR1	3	R1108J
3435.353	1.173	3663063	REC_WORD	1.173	n/a	BEER	Beverages	11	24	[0, 0, 0]	n/a	catFR1	3	R1108J
3436.526	1.561	3664236	REC_WORD_VV	1.561	n/a	<>	n/a	-999	24	[0, 0, 0]	n/a	catFR1	3	R1108J
3438.087	2.876	3665797	REC_END	n/a	n/a	n/a	n/a	-999	24	[0, 0, 0]	n/a	catFR1	3	R1108J
3440.963	0.0	3668673	TRIAL	n/a	n/a	n/a	n/a	-999	25	[0, 0, 0]	n/a	catFR1	3	R1108J
3440.963	10.428	3668673	COUNTDOWN_START	n/a	n/a	n/a	n/a	-999	25	[0, 0, 0]	n/a	catFR1	3	R1108J
3451.391	0.008	3679101	COUNTDOWN_END	n/a	n/a	n/a	n/a	-999	25	[0, 0, 0]	n/a	catFR1	3	R1108J
3451.399	3.616	3679109	ORIENT	n/a	n/a	n/a	n/a	-999	25	[0, 0, 0]	n/a	catFR1	3	R1108J
3455.015	2.385	3682725	WORD	n/a	wordpools/wordpool_categorized_EN.txt	GOOSE	Birds	1	25	[0, 0, 0]	n/a	catFR1	3	R1108J
3457.4	2.465	3685110	WORD	n/a	wordpools/wordpool_categorized_EN.txt	CROW	Birds	2	25	[0, 0, 0]	n/a	catFR1	3	R1108J
3459.865	2.519	3687575	WORD	n/a	wordpools/wordpool_categorized_EN.txt	VIOLIN	Instruments	3	25	[0, 0, 0]	n/a	catFR1	3	R1108J
3462.384	2.549	3690094	WORD	n/a	wordpools/wordpool_categorized_EN.txt	PIANO	Instruments	4	25	[0, 0, 0]	n/a	catFR1	3	R1108J
3464.933	2.418	3692643	WORD	n/a	wordpools/wordpool_categorized_EN.txt	FUDGE	Desserts	5	25	[0, 0, 0]	n/a	catFR1	3	R1108J
3467.351	2.466	3695061	WORD	n/a	wordpools/wordpool_categorized_EN.txt	PASTRY	Desserts	6	25	[0, 0, 0]	n/a	catFR1	3	R1108J
3469.817	2.518	3697527	WORD	n/a	wordpools/wordpool_categorized_EN.txt	CARDINAL	Birds	7	25	[0, 0, 0]	n/a	catFR1	3	R1108J
3472.335	2.433	3700045	WORD	n/a	wordpools/wordpool_categorized_EN.txt	FINCH	Birds	8	25	[0, 0, 0]	n/a	catFR1	3	R1108J
3474.768	2.551	3702478	WORD	n/a	wordpools/wordpool_categorized_EN.txt	COBBLER	Desserts	9	25	[0, 0, 0]	n/a	catFR1	3	R1108J
3477.319	2.516	3705029	WORD	n/a	wordpools/wordpool_categorized_EN.txt	CAKE	Desserts	10	25	[0, 0, 0]	n/a	catFR1	3	R1108J
3479.835	2.484	3707545	WORD	n/a	wordpools/wordpool_categorized_EN.txt	FLUTE	Instruments	11	25	[0, 0, 0]	n/a	catFR1	3	R1108J
3482.319	1.616	3710029	WORD	n/a	wordpools/wordpool_categorized_EN.txt	DRUM	Instruments	12	25	[0, 0, 0]	n/a	catFR1	3	R1108J
3483.935	0.001	3711645	DISTRACT_START	n/a	n/a	n/a	n/a	-999	25	[0, 0, 0]	n/a	catFR1	3	R1108J
3483.936	0.016	3711646	START	n/a	n/a	n/a	n/a	-999	25	[-999, -999, -999]	n/a	catFR1	3	R1108J
3483.952	5.301	3711662	PROB	5.301	n/a	n/a	n/a	-999	25	[4, 5, 8]	17	catFR1	3	R1108J
3489.253	4.3	3716963	PROB	4.3	n/a	n/a	n/a	-999	25	[6, 9, 5]	20	catFR1	3	R1108J
3493.553	9.669	3721263	PROB	9.669	n/a	n/a	n/a	-999	25	[8, 9, 6]	24	catFR1	3	R1108J
3503.222	5.943	3730932	PROB	5.943	n/a	n/a	n/a	-999	25	[3, 1, 4]	8	catFR1	3	R1108J
3509.165	0.007	3736875	STOP	n/a	n/a	n/a	n/a	-999	25	[-999, -999, -999]	n/a	catFR1	3	R1108J
3509.172	1.218	3736882	DISTRACT_END	n/a	n/a	n/a	n/a	-999	25	[0, 0, 0]	n/a	catFR1	3	R1108J
3510.39	0.682	3738100	REC_START	n/a	n/a	n/a	n/a	-999	25	[0, 0, 0]	n/a	catFR1	3	R1108J
3511.072	1.758	3738782	REC_WORD	1.758	n/a	COBBLER	Desserts	9	25	[0, 0, 0]	n/a	catFR1	3	R1108J
3512.83	1.556	3740540	REC_WORD	1.556	n/a	CAKE	Desserts	10	25	[0, 0, 0]	n/a	catFR1	3	R1108J
3514.386	1.0	3742096	REC_WORD_VV	1.0	n/a	<>	n/a	-999	25	[0, 0, 0]	n/a	catFR1	3	R1108J
3515.386	2.677	3743096	REC_WORD_VV	2.677	n/a	<>	n/a	-999	25	[0, 0, 0]	n/a	catFR1	3	R1108J
3518.063	0.75	3745773	REC_WORD	0.75	n/a	FINCH	Birds	8	25	[0, 0, 0]	n/a	catFR1	3	R1108J
3518.813	0.703	3746523	REC_WORD	0.703	n/a	CARDINAL	Birds	7	25	[0, 0, 0]	n/a	catFR1	3	R1108J
3519.516	2.68	3747226	REC_WORD	2.68	n/a	CROW	Birds	2	25	[0, 0, 0]	n/a	catFR1	3	R1108J
3522.196	1.0	3749906	REC_WORD_VV	1.0	n/a	<>	n/a	-999	25	[0, 0, 0]	n/a	catFR1	3	R1108J
3523.196	17.207	3750906	REC_WORD_VV	17.207	n/a	<>	n/a	-999	25	[0, 0, 0]	n/a	catFR1	3	R1108J
3540.403	27.994	3768113	REC_END	n/a	n/a	n/a	n/a	-999	25	[0, 0, 0]	n/a	catFR1	3	R1108J
3568.397	0.0	-1	SESS_END	n/a	n/a	n/a	n/a	-999	25	[0, 0, 0]	n/a	catFR1	3	R1108J
