onset	duration	sample	trial_type	response_time	stim_file	item_name	category	serialpos	list	test	answer	experiment	session	subject
0.0	34.108	4756	SESS_START	n/a	n/a	n/a	n/a	-999	-999	[0, 0, 0]	n/a	catFR1	0	R1112M
34.108	10.428	21809	COUNTDOWN_START	n/a	n/a	n/a	n/a	-999	-999	[0, 0, 0]	n/a	catFR1	0	R1112M
44.536	3.791	27023	COUNTDOWN_END	n/a	n/a	n/a	n/a	-999	-999	[0, 0, 0]	n/a	catFR1	0	R1112M
48.327	2.383	28918	PRACTICE_WORD	n/a	n/a	ATTIC	n/a	-999	-999	[0, 0, 0]	n/a	catFR1	0	R1112M
50.71	2.452	30110	PRACTICE_WORD	n/a	n/a	CAMEL	n/a	-999	-999	[0, 0, 0]	n/a	catFR1	0	R1112M
53.162	2.582	31335	PRACTICE_WORD	n/a	n/a	BEAM	n/a	-999	-999	[0, 0, 0]	n/a	catFR1	0	R1112M
55.744	2.385	32626	PRACTICE_WORD	n/a	n/a	RING	n/a	-999	-999	[0, 0, 0]	n/a	catFR1	0	R1112M
58.129	2.45	33819	PRACTICE_WORD	n/a	n/a	TONGUE	n/a	-999	-999	[0, 0, 0]	n/a	catFR1	0	R1112M
60.579	2.618	35044	PRACTICE_WORD	n/a	n/a	RHINO	n/a	-999	-999	[0, 0, 0]	n/a	catFR1	0	R1112M
63.197	2.6	36353	PRACTICE_WORD	n/a	n/a	COTTON	n/a	-999	-999	[0, 0, 0]	n/a	catFR1	0	R1112M
65.797	2.451	37653	PRACTICE_WORD	n/a	n/a	FLOOD	n/a	-999	-999	[0, 0, 0]	n/a	catFR1	0	R1112M
68.248	2.534	38878	PRACTICE_WORD	n/a	n/a	WAGON	n/a	-999	-999	[0, 0, 0]	n/a	catFR1	0	R1112M
70.782	2.6	40145	PRACTICE_WORD	n/a	n/a	WATCH	n/a	-999	-999	[0, 0, 0]	n/a	catFR1	0	R1112M
73.382	2.417	41445	PRACTICE_WORD	n/a	n/a	CHEST	n/a	-999	-999	[0, 0, 0]	n/a	catFR1	0	R1112M
75.799	1.617	42653	PRACTICE_WORD	n/a	n/a	IRON	n/a	-999	-999	[0, 0, 0]	n/a	catFR1	0	R1112M
77.416	0.001	43462	PRACTICE_DISTRACT_START	n/a	n/a	n/a	n/a	-999	-999	[0, 0, 0]	n/a	catFR1	0	R1112M
77.417	0.016	43462	START	n/a	n/a	n/a	n/a	-999	-1	[-999, -999, -999]	n/a	catFR1	0	R1112M
77.433	21.84	43470	PROB	21.84	n/a	n/a	n/a	-999	-1	[2, 6, 3]	11	catFR1	0	R1112M
99.273	0.014	54390	STOP	n/a	n/a	n/a	n/a	-999	-1	[-999, -999, -999]	n/a	catFR1	0	R1112M
99.287	0.686	54397	PRACTICE_DISTRACT_END	n/a	n/a	n/a	n/a	-999	-999	[0, 0, 0]	n/a	catFR1	0	R1112M
99.973	30.515	54740	PRACTICE_REC_START	n/a	n/a	n/a	n/a	-999	-999	[0, 0, 0]	n/a	catFR1	0	R1112M
130.488	52.031	69996	PRACTICE_REC_END	n/a	n/a	n/a	n/a	-999	-999	[0, 0, 0]	n/a	catFR1	0	R1112M
182.519	0.001	96010	COUNTDOWN_START	n/a	n/a	n/a	n/a	-999	1	[0, 0, 0]	n/a	catFR1	0	R1112M
182.52	10.427	96011	TRIAL	n/a	n/a	n/a	n/a	-999	1	[0, 0, 0]	n/a	catFR1	0	R1112M
192.947	0.009	101224	COUNTDOWN_END	n/a	n/a	n/a	n/a	-999	1	[0, 0, 0]	n/a	catFR1	0	R1112M
192.956	3.766	101229	ORIENT	n/a	n/a	n/a	n/a	-999	1	[0, 0, 0]	n/a	catFR1	0	R1112M
196.722	2.568	103111	WORD	n/a	wordpools/wordpool_categorized_EN.txt	TURTLE	OceanAnimals	1	1	[0, 0, 0]	n/a	catFR1	0	R1112M
199.29	2.383	104395	WORD	n/a	wordpools/wordpool_categorized_EN.txt	SQUID	OceanAnimals	2	1	[0, 0, 0]	n/a	catFR1	0	R1112M
201.673	2.401	105587	WORD	n/a	wordpools/wordpool_categorized_EN.txt	CHEETAH	Zoo	3	1	[0, 0, 0]	n/a	catFR1	0	R1112M
204.074	2.6	106787	WORD	n/a	wordpools/wordpool_categorized_EN.txt	PANDA	Zoo	4	1	[0, 0, 0]	n/a	catFR1	0	R1112M
206.674	2.485	108087	WORD	n/a	wordpools/wordpool_categorized_EN.txt	MOUSSE	Desserts	5	1	[0, 0, 0]	n/a	catFR1	0	R1112M
209.159	2.499	109330	WORD	n/a	wordpools/wordpool_categorized_EN.txt	BROWNIES	Desserts	6	1	[0, 0, 0]	n/a	catFR1	0	R1112M
211.658	2.602	110579	WORD	n/a	wordpools/wordpool_categorized_EN.txt	GORILLA	Zoo	7	1	[0, 0, 0]	n/a	catFR1	0	R1112M
214.26	2.533	111880	WORD	n/a	wordpools/wordpool_categorized_EN.txt	GIRAFFE	Zoo	8	1	[0, 0, 0]	n/a	catFR1	0	R1112M
216.793	2.584	113146	WORD	n/a	wordpools/wordpool_categorized_EN.txt	JELLYFISH	OceanAnimals	9	1	[0, 0, 0]	n/a	catFR1	0	R1112M
219.377	2.534	114438	WORD	n/a	wordpools/wordpool_categorized_EN.txt	LOBSTER	OceanAnimals	10	1	[0, 0, 0]	n/a	catFR1	0	R1112M
221.911	2.551	115705	WORD	n/a	wordpools/wordpool_categorized_EN.txt	PUDDING	Desserts	11	1	[0, 0, 0]	n/a	catFR1	0	R1112M
224.462	1.617	116981	WORD	n/a	wordpools/wordpool_categorized_EN.txt	FUDGE	Desserts	12	1	[0, 0, 0]	n/a	catFR1	0	R1112M
226.079	0.001	117789	DISTRACT_START	n/a	n/a	n/a	n/a	-999	1	[0, 0, 0]	n/a	catFR1	0	R1112M
226.08	0.015	117790	START	n/a	n/a	n/a	n/a	-999	1	[-999, -999, -999]	n/a	catFR1	0	R1112M
226.095	20.01	117797	PROB	20.01	n/a	n/a	n/a	-999	1	[2, 4, 3]	9	catFR1	0	R1112M
246.105	0.011	127802	STOP	n/a	n/a	n/a	n/a	-999	1	[-999, -999, -999]	n/a	catFR1	0	R1112M
246.116	1.122	127807	DISTRACT_END	n/a	n/a	n/a	n/a	-999	1	[0, 0, 0]	n/a	catFR1	0	R1112M
247.238	3.882	128368	REC_START	n/a	n/a	n/a	n/a	-999	1	[0, 0, 0]	n/a	catFR1	0	R1112M
251.12	1.956	130309	REC_WORD	1.956	n/a	GIRAFFE	Zoo	8	1	[0, 0, 0]	n/a	catFR1	0	R1112M
253.076	4.716	131287	REC_WORD	4.716	n/a	PANDA	Zoo	4	1	[0, 0, 0]	n/a	catFR1	0	R1112M
257.792	5.174	133645	REC_WORD	5.174	n/a	JELLYFISH	OceanAnimals	9	1	[0, 0, 0]	n/a	catFR1	0	R1112M
262.966	14.28	136232	REC_WORD	14.28	n/a	RHINO	n/a	-999	1	[0, 0, 0]	n/a	catFR1	0	R1112M
277.246	35.016	143371	REC_END	n/a	n/a	n/a	n/a	-999	1	[0, 0, 0]	n/a	catFR1	0	R1112M
312.262	0.0	160878	TRIAL	n/a	n/a	n/a	n/a	-999	2	[0, 0, 0]	n/a	catFR1	0	R1112M
312.262	10.428	160878	COUNTDOWN_START	n/a	n/a	n/a	n/a	-999	2	[0, 0, 0]	n/a	catFR1	0	R1112M
322.69	0.006	166092	COUNTDOWN_END	n/a	n/a	n/a	n/a	-999	2	[0, 0, 0]	n/a	catFR1	0	R1112M
322.696	3.669	166095	ORIENT	n/a	n/a	n/a	n/a	-999	2	[0, 0, 0]	n/a	catFR1	0	R1112M
326.365	2.484	167929	WORD	n/a	wordpools/wordpool_categorized_EN.txt	CROWBAR	Tools	1	2	[0, 0, 0]	n/a	catFR1	0	R1112M
328.849	2.433	169171	WORD	n/a	wordpools/wordpool_categorized_EN.txt	PLIERS	Tools	2	2	[0, 0, 0]	n/a	catFR1	0	R1112M
331.282	2.4	170388	WORD	n/a	wordpools/wordpool_categorized_EN.txt	DOVE	Birds	3	2	[0, 0, 0]	n/a	catFR1	0	R1112M
333.682	2.635	171588	WORD	n/a	wordpools/wordpool_categorized_EN.txt	CARDINAL	Birds	4	2	[0, 0, 0]	n/a	catFR1	0	R1112M
336.317	2.483	172905	WORD	n/a	wordpools/wordpool_categorized_EN.txt	PEELER	KitchenTools	5	2	[0, 0, 0]	n/a	catFR1	0	R1112M
338.8	2.601	174146	WORD	n/a	wordpools/wordpool_categorized_EN.txt	LADLE	KitchenTools	6	2	[0, 0, 0]	n/a	catFR1	0	R1112M
341.401	2.4	175447	WORD	n/a	wordpools/wordpool_categorized_EN.txt	SPARROW	Birds	7	2	[0, 0, 0]	n/a	catFR1	0	R1112M
343.801	2.584	176647	WORD	n/a	wordpools/wordpool_categorized_EN.txt	CROW	Birds	8	2	[0, 0, 0]	n/a	catFR1	0	R1112M
346.385	2.601	177939	WORD	n/a	wordpools/wordpool_categorized_EN.txt	SCREWDRIVER	Tools	9	2	[0, 0, 0]	n/a	catFR1	0	R1112M
348.986	2.467	179239	WORD	n/a	wordpools/wordpool_categorized_EN.txt	LEVEL	Tools	10	2	[0, 0, 0]	n/a	catFR1	0	R1112M
351.453	2.55	180473	WORD	n/a	wordpools/wordpool_categorized_EN.txt	SPOON	KitchenTools	11	2	[0, 0, 0]	n/a	catFR1	0	R1112M
354.003	1.616	181748	WORD	n/a	wordpools/wordpool_categorized_EN.txt	WHISK	KitchenTools	12	2	[0, 0, 0]	n/a	catFR1	0	R1112M
355.619	0.001	182555	DISTRACT_START	n/a	n/a	n/a	n/a	-999	2	[0, 0, 0]	n/a	catFR1	0	R1112M
355.62	0.016	182556	START	n/a	n/a	n/a	n/a	-999	2	[-999, -999, -999]	n/a	catFR1	0	R1112M
355.636	24.068	182564	PROB	24.068	n/a	n/a	n/a	-999	2	[9, 8, 9]	26	catFR1	0	R1112M
379.704	0.003	194597	STOP	n/a	n/a	n/a	n/a	-999	2	[-999, -999, -999]	n/a	catFR1	0	R1112M
379.707	1.102	194599	DISTRACT_END	n/a	n/a	n/a	n/a	-999	2	[0, 0, 0]	n/a	catFR1	0	R1112M
380.809	6.06	195150	REC_START	n/a	n/a	n/a	n/a	-999	2	[0, 0, 0]	n/a	catFR1	0	R1112M
386.869	11.889	198180	REC_WORD	11.889	n/a	PLIERS	Tools	2	2	[0, 0, 0]	n/a	catFR1	0	R1112M
398.758	12.067	204124	REC_WORD	12.067	n/a	CROWBAR	Tools	1	2	[0, 0, 0]	n/a	catFR1	0	R1112M
410.825	5.856	210157	REC_END	n/a	n/a	n/a	n/a	-999	2	[0, 0, 0]	n/a	catFR1	0	R1112M
416.681	0.001	213085	COUNTDOWN_START	n/a	n/a	n/a	n/a	-999	3	[0, 0, 0]	n/a	catFR1	0	R1112M
416.682	10.427	213085	TRIAL	n/a	n/a	n/a	n/a	-999	3	[0, 0, 0]	n/a	catFR1	0	R1112M
427.109	0.009	218298	COUNTDOWN_END	n/a	n/a	n/a	n/a	-999	3	[0, 0, 0]	n/a	catFR1	0	R1112M
427.118	3.483	218303	ORIENT	n/a	n/a	n/a	n/a	-999	3	[0, 0, 0]	n/a	catFR1	0	R1112M
430.601	2.501	220044	WORD	n/a	wordpools/wordpool_categorized_EN.txt	TABLET	Electronics	1	3	[0, 0, 0]	n/a	catFR1	0	R1112M
433.102	2.516	221295	WORD	n/a	wordpools/wordpool_categorized_EN.txt	SPEAKER	Electronics	2	3	[0, 0, 0]	n/a	catFR1	0	R1112M
435.618	2.485	222553	WORD	n/a	wordpools/wordpool_categorized_EN.txt	CELERY	Vegetables	3	3	[0, 0, 0]	n/a	catFR1	0	R1112M
438.103	2.55	223795	WORD	n/a	wordpools/wordpool_categorized_EN.txt	CAULIFLOWER	Vegetables	4	3	[0, 0, 0]	n/a	catFR1	0	R1112M
440.653	2.551	225070	WORD	n/a	wordpools/wordpool_categorized_EN.txt	DOLLHOUSE	Toys	5	3	[0, 0, 0]	n/a	catFR1	0	R1112M
443.204	2.433	226346	WORD	n/a	wordpools/wordpool_categorized_EN.txt	FOOTBALL	Toys	6	3	[0, 0, 0]	n/a	catFR1	0	R1112M
445.637	2.485	227562	WORD	n/a	wordpools/wordpool_categorized_EN.txt	PRINTER	Electronics	7	3	[0, 0, 0]	n/a	catFR1	0	R1112M
448.122	2.582	228804	WORD	n/a	wordpools/wordpool_categorized_EN.txt	CALCULATOR	Electronics	8	3	[0, 0, 0]	n/a	catFR1	0	R1112M
450.704	2.485	230095	WORD	n/a	wordpools/wordpool_categorized_EN.txt	PUZZLE	Toys	9	3	[0, 0, 0]	n/a	catFR1	0	R1112M
453.189	2.617	231338	WORD	n/a	wordpools/wordpool_categorized_EN.txt	SLINKY	Toys	10	3	[0, 0, 0]	n/a	catFR1	0	R1112M
455.806	2.551	232646	WORD	n/a	wordpools/wordpool_categorized_EN.txt	CABBAGE	Vegetables	11	3	[0, 0, 0]	n/a	catFR1	0	R1112M
458.357	1.617	233922	WORD	n/a	wordpools/wordpool_categorized_EN.txt	BROCCOLI	Vegetables	12	3	[0, 0, 0]	n/a	catFR1	0	R1112M
459.974	0.001	234730	DISTRACT_START	n/a	n/a	n/a	n/a	-999	3	[0, 0, 0]	n/a	catFR1	0	R1112M
459.975	0.016	234731	START	n/a	n/a	n/a	n/a	-999	3	[-999, -999, -999]	n/a	catFR1	0	R1112M
459.991	8.485	234739	PROB	8.485	n/a	n/a	n/a	-999	3	[1, 1, 7]	9	catFR1	0	R1112M
468.476	10.802	238981	PROB	10.802	n/a	n/a	n/a	-999	3	[1, 5, 4]	10	catFR1	0	R1112M
479.278	10.442	244382	PROB	10.442	n/a	n/a	n/a	-999	3	[2, 1, 9]	12	catFR1	0	R1112M
489.72	0.009	249602	STOP	n/a	n/a	n/a	n/a	-999	3	[-999, -999, -999]	n/a	catFR1	0	R1112M
489.729	1.118	249607	DISTRACT_END	n/a	n/a	n/a	n/a	-999	3	[0, 0, 0]	n/a	catFR1	0	R1112M
490.847	2.752	250166	REC_START	n/a	n/a	n/a	n/a	-999	3	[0, 0, 0]	n/a	catFR1	0	R1112M
493.599	0.656	251542	REC_WORD	0.656	n/a	BROCCOLI	Vegetables	12	3	[0, 0, 0]	n/a	catFR1	0	R1112M
494.255	14.012	251870	REC_WORD	14.012	n/a	CAULIFLOWER	Vegetables	4	3	[0, 0, 0]	n/a	catFR1	0	R1112M
508.267	5.502	258875	REC_WORD	5.502	n/a	PRINTER	Electronics	7	3	[0, 0, 0]	n/a	catFR1	0	R1112M
513.769	7.09	261626	REC_WORD_VV	7.09	n/a	<>	n/a	-999	3	[0, 0, 0]	n/a	catFR1	0	R1112M
520.859	6.278	265171	REC_END	n/a	n/a	n/a	n/a	-999	3	[0, 0, 0]	n/a	catFR1	0	R1112M
527.137	0.0	268310	TRIAL	n/a	n/a	n/a	n/a	-999	4	[0, 0, 0]	n/a	catFR1	0	R1112M
527.137	10.428	268310	COUNTDOWN_START	n/a	n/a	n/a	n/a	-999	4	[0, 0, 0]	n/a	catFR1	0	R1112M
537.565	0.006	273523	COUNTDOWN_END	n/a	n/a	n/a	n/a	-999	4	[0, 0, 0]	n/a	catFR1	0	R1112M
537.571	3.835	273526	ORIENT	n/a	n/a	n/a	n/a	-999	4	[0, 0, 0]	n/a	catFR1	0	R1112M
541.406	2.451	275444	WORD	n/a	wordpools/wordpool_categorized_EN.txt	CARROT	Vegetables	1	4	[0, 0, 0]	n/a	catFR1	0	R1112M
543.857	2.484	276669	WORD	n/a	wordpools/wordpool_categorized_EN.txt	CUCUMBER	Vegetables	2	4	[0, 0, 0]	n/a	catFR1	0	R1112M
546.341	2.583	277911	WORD	n/a	wordpools/wordpool_categorized_EN.txt	TOASTER	Appliances	3	4	[0, 0, 0]	n/a	catFR1	0	R1112M
548.924	2.468	279203	WORD	n/a	wordpools/wordpool_categorized_EN.txt	IRON	Appliances	4	4	[0, 0, 0]	n/a	catFR1	0	R1112M
551.392	2.633	280436	WORD	n/a	wordpools/wordpool_categorized_EN.txt	CHIMPANZEE	Zoo	5	4	[0, 0, 0]	n/a	catFR1	0	R1112M
554.025	2.6	281753	WORD	n/a	wordpools/wordpool_categorized_EN.txt	ORANGUTAN	Zoo	6	4	[0, 0, 0]	n/a	catFR1	0	R1112M
556.625	2.418	283053	WORD	n/a	wordpools/wordpool_categorized_EN.txt	POTATO	Vegetables	7	4	[0, 0, 0]	n/a	catFR1	0	R1112M
559.043	2.616	284262	WORD	n/a	wordpools/wordpool_categorized_EN.txt	ONION	Vegetables	8	4	[0, 0, 0]	n/a	catFR1	0	R1112M
561.659	2.552	285570	WORD	n/a	wordpools/wordpool_categorized_EN.txt	ELEPHANT	Zoo	9	4	[0, 0, 0]	n/a	catFR1	0	R1112M
564.211	2.483	286846	WORD	n/a	wordpools/wordpool_categorized_EN.txt	MONKEY	Zoo	10	4	[0, 0, 0]	n/a	catFR1	0	R1112M
566.694	2.401	288087	WORD	n/a	wordpools/wordpool_categorized_EN.txt	MIXER	Appliances	11	4	[0, 0, 0]	n/a	catFR1	0	R1112M
569.095	1.616	289287	WORD	n/a	wordpools/wordpool_categorized_EN.txt	VACUUM	Appliances	12	4	[0, 0, 0]	n/a	catFR1	0	R1112M
570.711	0.001	290095	DISTRACT_START	n/a	n/a	n/a	n/a	-999	4	[0, 0, 0]	n/a	catFR1	0	R1112M
570.712	0.016	290096	START	n/a	n/a	n/a	n/a	-999	4	[-999, -999, -999]	n/a	catFR1	0	R1112M
570.728	37.808	290104	PROB	37.808	n/a	n/a	n/a	-999	4	[7, 8, 9]	24	catFR1	0	R1112M
608.536	0.016	309007	STOP	n/a	n/a	n/a	n/a	-999	4	[-999, -999, -999]	n/a	catFR1	0	R1112M
608.552	1.218	309015	DISTRACT_END	n/a	n/a	n/a	n/a	-999	4	[0, 0, 0]	n/a	catFR1	0	R1112M
609.77	3.832	309624	REC_START	n/a	n/a	n/a	n/a	-999	4	[0, 0, 0]	n/a	catFR1	0	R1112M
613.602	1.019	311540	REC_WORD	1.019	n/a	ELEPHANT	Zoo	9	4	[0, 0, 0]	n/a	catFR1	0	R1112M
614.621	2.366	312049	REC_WORD	2.366	n/a	CHIMPANZEE	Zoo	5	4	[0, 0, 0]	n/a	catFR1	0	R1112M
616.987	7.602	313232	REC_WORD	7.602	n/a	MIXER	Appliances	11	4	[0, 0, 0]	n/a	catFR1	0	R1112M
624.589	12.48	317033	REC_WORD	12.48	n/a	VACUUM	Appliances	12	4	[0, 0, 0]	n/a	catFR1	0	R1112M
637.069	2.714	323273	REC_WORD	2.714	n/a	MIXER	Appliances	11	4	[0, 0, 0]	n/a	catFR1	0	R1112M
639.783	21.263	324629	REC_END	n/a	n/a	n/a	n/a	-999	4	[0, 0, 0]	n/a	catFR1	0	R1112M
661.046	0.0	335260	TRIAL	n/a	n/a	n/a	n/a	-999	5	[0, 0, 0]	n/a	catFR1	0	R1112M
661.046	10.428	335260	COUNTDOWN_START	n/a	n/a	n/a	n/a	-999	5	[0, 0, 0]	n/a	catFR1	0	R1112M
671.474	0.007	340474	COUNTDOWN_END	n/a	n/a	n/a	n/a	-999	5	[0, 0, 0]	n/a	catFR1	0	R1112M
671.481	3.701	340478	ORIENT	n/a	n/a	n/a	n/a	-999	5	[0, 0, 0]	n/a	catFR1	0	R1112M
675.182	2.617	342328	WORD	n/a	wordpools/wordpool_categorized_EN.txt	DESK	Furniture	1	5	[0, 0, 0]	n/a	catFR1	0	R1112M
677.799	2.584	343636	WORD	n/a	wordpools/wordpool_categorized_EN.txt	BOOKCASE	Furniture	2	5	[0, 0, 0]	n/a	catFR1	0	R1112M
680.383	2.534	344928	WORD	n/a	wordpools/wordpool_categorized_EN.txt	EVERGREEN	Trees	3	5	[0, 0, 0]	n/a	catFR1	0	R1112M
682.917	2.467	346195	WORD	n/a	wordpools/wordpool_categorized_EN.txt	PINE	Trees	4	5	[0, 0, 0]	n/a	catFR1	0	R1112M
685.384	2.434	347429	WORD	n/a	wordpools/wordpool_categorized_EN.txt	STREAM	Landscapes	5	5	[0, 0, 0]	n/a	catFR1	0	R1112M
687.818	2.417	348646	WORD	n/a	wordpools/wordpool_categorized_EN.txt	CREEK	Landscapes	6	5	[0, 0, 0]	n/a	catFR1	0	R1112M
690.235	2.5	349854	WORD	n/a	wordpools/wordpool_categorized_EN.txt	DRESSER	Furniture	7	5	[0, 0, 0]	n/a	catFR1	0	R1112M
692.735	2.484	351104	WORD	n/a	wordpools/wordpool_categorized_EN.txt	BED	Furniture	8	5	[0, 0, 0]	n/a	catFR1	0	R1112M
695.219	2.517	352346	WORD	n/a	wordpools/wordpool_categorized_EN.txt	ISLAND	Landscapes	9	5	[0, 0, 0]	n/a	catFR1	0	R1112M
697.736	2.584	353604	WORD	n/a	wordpools/wordpool_categorized_EN.txt	WOODS	Landscapes	10	5	[0, 0, 0]	n/a	catFR1	0	R1112M
700.32	2.45	354896	WORD	n/a	wordpools/wordpool_categorized_EN.txt	MAPLE	Trees	11	5	[0, 0, 0]	n/a	catFR1	0	R1112M
702.77	1.618	356121	WORD	n/a	wordpools/wordpool_categorized_EN.txt	WALNUT	Trees	12	5	[0, 0, 0]	n/a	catFR1	0	R1112M
704.388	0.001	356930	DISTRACT_START	n/a	n/a	n/a	n/a	-999	5	[0, 0, 0]	n/a	catFR1	0	R1112M
704.389	0.016	356931	START	n/a	n/a	n/a	n/a	-999	5	[-999, -999, -999]	n/a	catFR1	0	R1112M
704.405	25.884	356939	PROB	25.884	n/a	n/a	n/a	-999	5	[8, 9, 9]	26	catFR1	0	R1112M
730.289	0.004	369880	STOP	n/a	n/a	n/a	n/a	-999	5	[-999, -999, -999]	n/a	catFR1	0	R1112M
730.293	1.067	369882	DISTRACT_END	n/a	n/a	n/a	n/a	-999	5	[0, 0, 0]	n/a	catFR1	0	R1112M
731.36	3.339	370415	REC_START	n/a	n/a	n/a	n/a	-999	5	[0, 0, 0]	n/a	catFR1	0	R1112M
734.699	1.389	372085	REC_WORD	1.389	n/a	DESK	Furniture	1	5	[0, 0, 0]	n/a	catFR1	0	R1112M
736.088	24.583	372779	REC_WORD	24.583	n/a	BOOKCASE	Furniture	2	5	[0, 0, 0]	n/a	catFR1	0	R1112M
760.671	0.705	385070	REC_WORD_VV	0.705	n/a	<>	n/a	-999	5	[0, 0, 0]	n/a	catFR1	0	R1112M
761.376	6.356	385423	REC_END	n/a	n/a	n/a	n/a	-999	5	[0, 0, 0]	n/a	catFR1	0	R1112M
767.732	0.001	388600	COUNTDOWN_START	n/a	n/a	n/a	n/a	-999	6	[0, 0, 0]	n/a	catFR1	0	R1112M
767.733	10.427	388601	TRIAL	n/a	n/a	n/a	n/a	-999	6	[0, 0, 0]	n/a	catFR1	0	R1112M
778.16	0.009	393814	COUNTDOWN_END	n/a	n/a	n/a	n/a	-999	6	[0, 0, 0]	n/a	catFR1	0	R1112M
778.169	3.667	393819	ORIENT	n/a	n/a	n/a	n/a	-999	6	[0, 0, 0]	n/a	catFR1	0	R1112M
781.836	2.534	395652	WORD	n/a	wordpools/wordpool_categorized_EN.txt	SKIRT	Clothing	1	6	[0, 0, 0]	n/a	catFR1	0	R1112M
784.37	2.534	396919	WORD	n/a	wordpools/wordpool_categorized_EN.txt	SHORTS	Clothing	2	6	[0, 0, 0]	n/a	catFR1	0	R1112M
786.904	2.616	398186	WORD	n/a	wordpools/wordpool_categorized_EN.txt	OYSTER	OceanAnimals	3	6	[0, 0, 0]	n/a	catFR1	0	R1112M
789.52	2.468	399494	WORD	n/a	wordpools/wordpool_categorized_EN.txt	OCTOPUS	OceanAnimals	4	6	[0, 0, 0]	n/a	catFR1	0	R1112M
791.988	2.616	400728	WORD	n/a	wordpools/wordpool_categorized_EN.txt	BLOCKS	Toys	5	6	[0, 0, 0]	n/a	catFR1	0	R1112M
794.604	2.518	402036	WORD	n/a	wordpools/wordpool_categorized_EN.txt	BALL	Toys	6	6	[0, 0, 0]	n/a	catFR1	0	R1112M
797.122	2.617	403295	WORD	n/a	wordpools/wordpool_categorized_EN.txt	CRAB	OceanAnimals	7	6	[0, 0, 0]	n/a	catFR1	0	R1112M
799.739	2.501	404603	WORD	n/a	wordpools/wordpool_categorized_EN.txt	FISH	OceanAnimals	8	6	[0, 0, 0]	n/a	catFR1	0	R1112M
802.24	2.533	405853	WORD	n/a	wordpools/wordpool_categorized_EN.txt	JEANS	Clothing	9	6	[0, 0, 0]	n/a	catFR1	0	R1112M
804.773	2.551	407120	WORD	n/a	wordpools/wordpool_categorized_EN.txt	SOCKS	Clothing	10	6	[0, 0, 0]	n/a	catFR1	0	R1112M
807.324	2.634	408395	WORD	n/a	wordpools/wordpool_categorized_EN.txt	BASKETBALL	Toys	11	6	[0, 0, 0]	n/a	catFR1	0	R1112M
809.958	1.616	409712	WORD	n/a	wordpools/wordpool_categorized_EN.txt	BARBIE	Toys	12	6	[0, 0, 0]	n/a	catFR1	0	R1112M
811.574	0.001	410520	DISTRACT_START	n/a	n/a	n/a	n/a	-999	6	[0, 0, 0]	n/a	catFR1	0	R1112M
811.575	0.016	410521	START	n/a	n/a	n/a	n/a	-999	6	[-999, -999, -999]	n/a	catFR1	0	R1112M
811.591	22.466	410529	PROB	22.466	n/a	n/a	n/a	-999	6	[5, 7, 6]	19	catFR1	0	R1112M
834.057	0.006	421761	STOP	n/a	n/a	n/a	n/a	-999	6	[-999, -999, -999]	n/a	catFR1	0	R1112M
834.063	1.085	421764	DISTRACT_END	n/a	n/a	n/a	n/a	-999	6	[0, 0, 0]	n/a	catFR1	0	R1112M
835.148	2.431	422307	REC_START	n/a	n/a	n/a	n/a	-999	6	[0, 0, 0]	n/a	catFR1	0	R1112M
837.579	0.996	423522	REC_WORD	0.996	n/a	SKIRT	Clothing	1	6	[0, 0, 0]	n/a	catFR1	0	R1112M
838.575	9.492	424020	REC_WORD	9.492	n/a	SHORTS	Clothing	2	6	[0, 0, 0]	n/a	catFR1	0	R1112M
848.067	17.093	428766	REC_WORD	17.093	n/a	OYSTER	OceanAnimals	3	6	[0, 0, 0]	n/a	catFR1	0	R1112M
865.16	6.21	437312	REC_END	n/a	n/a	n/a	n/a	-999	6	[0, 0, 0]	n/a	catFR1	0	R1112M
871.37	0.0	440417	TRIAL	n/a	n/a	n/a	n/a	-999	7	[0, 0, 0]	n/a	catFR1	0	R1112M
871.37	10.428	440417	COUNTDOWN_START	n/a	n/a	n/a	n/a	-999	7	[0, 0, 0]	n/a	catFR1	0	R1112M
881.798	0.007	445630	COUNTDOWN_END	n/a	n/a	n/a	n/a	-999	7	[0, 0, 0]	n/a	catFR1	0	R1112M
881.805	3.584	445634	ORIENT	n/a	n/a	n/a	n/a	-999	7	[0, 0, 0]	n/a	catFR1	0	R1112M
885.389	2.468	447426	WORD	n/a	wordpools/wordpool_categorized_EN.txt	TULIP	Flowers	1	7	[0, 0, 0]	n/a	catFR1	0	R1112M
887.857	2.483	448660	WORD	n/a	wordpools/wordpool_categorized_EN.txt	LILAC	Flowers	2	7	[0, 0, 0]	n/a	catFR1	0	R1112M
890.34	2.601	449901	WORD	n/a	wordpools/wordpool_categorized_EN.txt	BATHROOM	Building	3	7	[0, 0, 0]	n/a	catFR1	0	R1112M
892.941	2.616	451201	WORD	n/a	wordpools/wordpool_categorized_EN.txt	CEILING	Building	4	7	[0, 0, 0]	n/a	catFR1	0	R1112M
895.557	2.385	452509	WORD	n/a	wordpools/wordpool_categorized_EN.txt	PEACH	Fruit	5	7	[0, 0, 0]	n/a	catFR1	0	R1112M
897.942	2.534	453702	WORD	n/a	wordpools/wordpool_categorized_EN.txt	GRAPE	Fruit	6	7	[0, 0, 0]	n/a	catFR1	0	R1112M
900.476	2.383	454969	WORD	n/a	wordpools/wordpool_categorized_EN.txt	DOOR	Building	7	7	[0, 0, 0]	n/a	catFR1	0	R1112M
902.859	2.568	456160	WORD	n/a	wordpools/wordpool_categorized_EN.txt	FOUNDATION	Building	8	7	[0, 0, 0]	n/a	catFR1	0	R1112M
905.427	2.534	457444	WORD	n/a	wordpools/wordpool_categorized_EN.txt	DAISY	Flowers	9	7	[0, 0, 0]	n/a	catFR1	0	R1112M
907.961	2.433	458711	WORD	n/a	wordpools/wordpool_categorized_EN.txt	SUNFLOWER	Flowers	10	7	[0, 0, 0]	n/a	catFR1	0	R1112M
910.394	2.617	459927	WORD	n/a	wordpools/wordpool_categorized_EN.txt	BLUEBERRY	Fruit	11	7	[0, 0, 0]	n/a	catFR1	0	R1112M
913.011	1.617	461236	WORD	n/a	wordpools/wordpool_categorized_EN.txt	PEAR	Fruit	12	7	[0, 0, 0]	n/a	catFR1	0	R1112M
914.628	0.001	462044	DISTRACT_START	n/a	n/a	n/a	n/a	-999	7	[0, 0, 0]	n/a	catFR1	0	R1112M
914.629	0.015	462045	START	n/a	n/a	n/a	n/a	-999	7	[-999, -999, -999]	n/a	catFR1	0	R1112M
914.644	14.604	462052	PROB	14.604	n/a	n/a	n/a	-999	7	[9, 6, 1]	16	catFR1	0	R1112M
929.248	11.553	469354	PROB	11.553	n/a	n/a	n/a	-999	7	[3, 5, 3]	11	catFR1	0	R1112M
940.801	0.016	475130	STOP	n/a	n/a	n/a	n/a	-999	7	[-999, -999, -999]	n/a	catFR1	0	R1112M
940.817	1.067	475138	DISTRACT_END	n/a	n/a	n/a	n/a	-999	7	[0, 0, 0]	n/a	catFR1	0	R1112M
941.884	4.993	475672	REC_START	n/a	n/a	n/a	n/a	-999	7	[0, 0, 0]	n/a	catFR1	0	R1112M
946.877	1.232	478168	REC_WORD	1.232	n/a	TULIP	Flowers	1	7	[0, 0, 0]	n/a	catFR1	0	R1112M
948.109	5.805	478784	REC_WORD	5.805	n/a	LILAC	Flowers	2	7	[0, 0, 0]	n/a	catFR1	0	R1112M
953.914	17.481	481686	REC_WORD	17.481	n/a	DOOR	Building	7	7	[0, 0, 0]	n/a	catFR1	0	R1112M
971.395	0.505	490426	REC_WORD_VV	0.505	n/a	<>	n/a	-999	7	[0, 0, 0]	n/a	catFR1	0	R1112M
971.9	4.39	490679	REC_END	n/a	n/a	n/a	n/a	-999	7	[0, 0, 0]	n/a	catFR1	0	R1112M
976.29	0.001	492874	COUNTDOWN_START	n/a	n/a	n/a	n/a	-999	8	[0, 0, 0]	n/a	catFR1	0	R1112M
976.291	10.427	492874	TRIAL	n/a	n/a	n/a	n/a	-999	8	[0, 0, 0]	n/a	catFR1	0	R1112M
986.718	0.007	498087	COUNTDOWN_END	n/a	n/a	n/a	n/a	-999	8	[0, 0, 0]	n/a	catFR1	0	R1112M
986.725	3.385	498091	ORIENT	n/a	n/a	n/a	n/a	-999	8	[0, 0, 0]	n/a	catFR1	0	R1112M
990.11	2.466	499783	WORD	n/a	wordpools/wordpool_categorized_EN.txt	MILK	Beverages	1	8	[0, 0, 0]	n/a	catFR1	0	R1112M
992.576	2.552	501016	WORD	n/a	wordpools/wordpool_categorized_EN.txt	TEA	Beverages	2	8	[0, 0, 0]	n/a	catFR1	0	R1112M
995.128	2.399	502292	WORD	n/a	wordpools/wordpool_categorized_EN.txt	RIVER	Landscapes	3	8	[0, 0, 0]	n/a	catFR1	0	R1112M
997.527	2.385	503491	WORD	n/a	wordpools/wordpool_categorized_EN.txt	HILLS	Landscapes	4	8	[0, 0, 0]	n/a	catFR1	0	R1112M
999.912	2.4	504684	WORD	n/a	wordpools/wordpool_categorized_EN.txt	LETTUCE	Vegetables	5	8	[0, 0, 0]	n/a	catFR1	0	R1112M
1002.312	2.466	505884	WORD	n/a	wordpools/wordpool_categorized_EN.txt	CORN	Vegetables	6	8	[0, 0, 0]	n/a	catFR1	0	R1112M
1004.778	2.435	507117	WORD	n/a	wordpools/wordpool_categorized_EN.txt	COFFEE	Beverages	7	8	[0, 0, 0]	n/a	catFR1	0	R1112M
1007.213	2.399	508334	WORD	n/a	wordpools/wordpool_categorized_EN.txt	SODA	Beverages	8	8	[0, 0, 0]	n/a	catFR1	0	R1112M
1009.612	2.369	509534	WORD	n/a	wordpools/wordpool_categorized_EN.txt	SPINACH	Vegetables	9	8	[0, 0, 0]	n/a	catFR1	0	R1112M
1011.981	2.483	510718	WORD	n/a	wordpools/wordpool_categorized_EN.txt	PEAS	Vegetables	10	8	[0, 0, 0]	n/a	catFR1	0	R1112M
1014.464	2.434	511959	WORD	n/a	wordpools/wordpool_categorized_EN.txt	OCEAN	Landscapes	11	8	[0, 0, 0]	n/a	catFR1	0	R1112M
1016.898	1.616	513176	WORD	n/a	wordpools/wordpool_categorized_EN.txt	VALLEY	Landscapes	12	8	[0, 0, 0]	n/a	catFR1	0	R1112M
1018.514	0.001	513984	DISTRACT_START	n/a	n/a	n/a	n/a	-999	8	[0, 0, 0]	n/a	catFR1	0	R1112M
1018.515	0.016	513985	START	n/a	n/a	n/a	n/a	-999	8	[-999, -999, -999]	n/a	catFR1	0	R1112M
1018.531	13.47	513993	PROB	13.47	n/a	n/a	n/a	-999	8	[5, 4, 7]	16	catFR1	0	R1112M
1032.001	13.336	520727	PROB	13.336	n/a	n/a	n/a	-999	8	[6, 9, 9]	24	catFR1	0	R1112M
1045.337	0.017	527395	STOP	n/a	n/a	n/a	n/a	-999	8	[-999, -999, -999]	n/a	catFR1	0	R1112M
1045.354	1.034	527404	DISTRACT_END	n/a	n/a	n/a	n/a	-999	8	[0, 0, 0]	n/a	catFR1	0	R1112M
1046.388	6.763	527921	REC_START	n/a	n/a	n/a	n/a	-999	8	[0, 0, 0]	n/a	catFR1	0	R1112M
1053.151	0.805	531302	REC_WORD	0.805	n/a	OCEAN	Landscapes	11	8	[0, 0, 0]	n/a	catFR1	0	R1112M
1053.956	10.876	531704	REC_WORD	10.876	n/a	CAULIFLOWER	n/a	-999	8	[0, 0, 0]	n/a	catFR1	0	R1112M
1064.832	11.568	537142	REC_WORD_VV	11.568	n/a	<>	n/a	-999	8	[0, 0, 0]	n/a	catFR1	0	R1112M
1076.4	8.628	542926	REC_END	n/a	n/a	n/a	n/a	-999	8	[0, 0, 0]	n/a	catFR1	0	R1112M
1085.028	0.0	547240	TRIAL	n/a	n/a	n/a	n/a	-999	9	[0, 0, 0]	n/a	catFR1	0	R1112M
1085.028	10.428	547240	COUNTDOWN_START	n/a	n/a	n/a	n/a	-999	9	[0, 0, 0]	n/a	catFR1	0	R1112M
1095.456	0.007	552453	COUNTDOWN_END	n/a	n/a	n/a	n/a	-999	9	[0, 0, 0]	n/a	catFR1	0	R1112M
1095.463	3.584	552457	ORIENT	n/a	n/a	n/a	n/a	-999	9	[0, 0, 0]	n/a	catFR1	0	R1112M
1099.047	2.5	554249	WORD	n/a	wordpools/wordpool_categorized_EN.txt	LIGHTNING	Weather	1	9	[0, 0, 0]	n/a	catFR1	0	R1112M
1101.547	2.434	555499	WORD	n/a	wordpools/wordpool_categorized_EN.txt	RAIN	Weather	2	9	[0, 0, 0]	n/a	catFR1	0	R1112M
1103.981	2.401	556715	WORD	n/a	wordpools/wordpool_categorized_EN.txt	SOFA	Furniture	3	9	[0, 0, 0]	n/a	catFR1	0	R1112M
1106.382	2.584	557916	WORD	n/a	wordpools/wordpool_categorized_EN.txt	TABLE	Furniture	4	9	[0, 0, 0]	n/a	catFR1	0	R1112M
1108.966	2.5	559208	WORD	n/a	wordpools/wordpool_categorized_EN.txt	BEE	Insects	5	9	[0, 0, 0]	n/a	catFR1	0	R1112M
1111.466	2.618	560458	WORD	n/a	wordpools/wordpool_categorized_EN.txt	MOTH	Insects	6	9	[0, 0, 0]	n/a	catFR1	0	R1112M
1114.084	2.449	561767	WORD	n/a	wordpools/wordpool_categorized_EN.txt	WIND	Weather	7	9	[0, 0, 0]	n/a	catFR1	0	R1112M
1116.533	2.385	562991	WORD	n/a	wordpools/wordpool_categorized_EN.txt	SNOW	Weather	8	9	[0, 0, 0]	n/a	catFR1	0	R1112M
1118.918	2.384	564184	WORD	n/a	wordpools/wordpool_categorized_EN.txt	ANT	Insects	9	9	[0, 0, 0]	n/a	catFR1	0	R1112M
1121.302	2.517	565375	WORD	n/a	wordpools/wordpool_categorized_EN.txt	ROACH	Insects	10	9	[0, 0, 0]	n/a	catFR1	0	R1112M
1123.819	2.4	566634	WORD	n/a	wordpools/wordpool_categorized_EN.txt	RECLINER	Furniture	11	9	[0, 0, 0]	n/a	catFR1	0	R1112M
1126.219	1.617	567834	WORD	n/a	wordpools/wordpool_categorized_EN.txt	COUCH	Furniture	12	9	[0, 0, 0]	n/a	catFR1	0	R1112M
1127.836	0.001	568642	DISTRACT_START	n/a	n/a	n/a	n/a	-999	9	[0, 0, 0]	n/a	catFR1	0	R1112M
1127.837	0.016	568643	START	n/a	n/a	n/a	n/a	-999	9	[-999, -999, -999]	n/a	catFR1	0	R1112M
1127.853	10.085	568651	PROB	10.085	n/a	n/a	n/a	-999	9	[2, 3, 5]	10	catFR1	0	R1112M
1137.938	15.943	573693	PROB	15.943	n/a	n/a	n/a	-999	9	[7, 8, 6]	21	catFR1	0	R1112M
1153.881	0.01	581664	STOP	n/a	n/a	n/a	n/a	-999	9	[-999, -999, -999]	n/a	catFR1	0	R1112M
1153.891	1.168	581669	DISTRACT_END	n/a	n/a	n/a	n/a	-999	9	[0, 0, 0]	n/a	catFR1	0	R1112M
1155.059	6.126	582253	REC_START	n/a	n/a	n/a	n/a	-999	9	[0, 0, 0]	n/a	catFR1	0	R1112M
1161.185	8.596	585316	REC_WORD	8.596	n/a	SOFA	Furniture	3	9	[0, 0, 0]	n/a	catFR1	0	R1112M
1169.781	0.427	589614	REC_WORD	0.427	n/a	RAIN	Weather	2	9	[0, 0, 0]	n/a	catFR1	0	R1112M
1170.208	2.495	589827	REC_WORD	2.495	n/a	LIGHTNING	Weather	1	9	[0, 0, 0]	n/a	catFR1	0	R1112M
1172.703	5.643	591075	REC_WORD	5.643	n/a	WIND	Weather	7	9	[0, 0, 0]	n/a	catFR1	0	R1112M
1178.346	6.725	593896	REC_WORD	6.725	n/a	BEE	Insects	5	9	[0, 0, 0]	n/a	catFR1	0	R1112M
1185.071	12.478	597258	REC_END	n/a	n/a	n/a	n/a	-999	9	[0, 0, 0]	n/a	catFR1	0	R1112M
1197.549	0.0	603497	TRIAL	n/a	n/a	n/a	n/a	-999	10	[0, 0, 0]	n/a	catFR1	0	R1112M
1197.549	10.428	603497	COUNTDOWN_START	n/a	n/a	n/a	n/a	-999	10	[0, 0, 0]	n/a	catFR1	0	R1112M
1207.977	0.008	608711	COUNTDOWN_END	n/a	n/a	n/a	n/a	-999	10	[0, 0, 0]	n/a	catFR1	0	R1112M
1207.985	3.834	608715	ORIENT	n/a	n/a	n/a	n/a	-999	10	[0, 0, 0]	n/a	catFR1	0	R1112M
1211.819	2.517	610631	WORD	n/a	wordpools/wordpool_categorized_EN.txt	FORK	KitchenTools	1	10	[0, 0, 0]	n/a	catFR1	0	R1112M
1214.336	2.383	611890	WORD	n/a	wordpools/wordpool_categorized_EN.txt	CORKSCREW	KitchenTools	2	10	[0, 0, 0]	n/a	catFR1	0	R1112M
1216.719	2.518	613081	WORD	n/a	wordpools/wordpool_categorized_EN.txt	CAR	Vehicles	3	10	[0, 0, 0]	n/a	catFR1	0	R1112M
1219.237	2.634	614340	WORD	n/a	wordpools/wordpool_categorized_EN.txt	VAN	Vehicles	4	10	[0, 0, 0]	n/a	catFR1	0	R1112M
1221.871	2.584	615657	WORD	n/a	wordpools/wordpool_categorized_EN.txt	LEG	BodyParts	5	10	[0, 0, 0]	n/a	catFR1	0	R1112M
1224.455	2.5	616949	WORD	n/a	wordpools/wordpool_categorized_EN.txt	FOOT	BodyParts	6	10	[0, 0, 0]	n/a	catFR1	0	R1112M
1226.955	2.617	618199	WORD	n/a	wordpools/wordpool_categorized_EN.txt	PLANE	Vehicles	7	10	[0, 0, 0]	n/a	catFR1	0	R1112M
1229.572	2.401	619507	WORD	n/a	wordpools/wordpool_categorized_EN.txt	BOAT	Vehicles	8	10	[0, 0, 0]	n/a	catFR1	0	R1112M
1231.973	2.501	620708	WORD	n/a	wordpools/wordpool_categorized_EN.txt	SPATULA	KitchenTools	9	10	[0, 0, 0]	n/a	catFR1	0	R1112M
1234.474	2.567	621958	WORD	n/a	wordpools/wordpool_categorized_EN.txt	GRATER	KitchenTools	10	10	[0, 0, 0]	n/a	catFR1	0	R1112M
1237.041	2.583	623242	WORD	n/a	wordpools/wordpool_categorized_EN.txt	KNEE	BodyParts	11	10	[0, 0, 0]	n/a	catFR1	0	R1112M
1239.624	1.618	624533	WORD	n/a	wordpools/wordpool_categorized_EN.txt	ARM	BodyParts	12	10	[0, 0, 0]	n/a	catFR1	0	R1112M
1241.242	0.001	625342	DISTRACT_START	n/a	n/a	n/a	n/a	-999	10	[0, 0, 0]	n/a	catFR1	0	R1112M
1241.243	0.015	625343	START	n/a	n/a	n/a	n/a	-999	10	[-999, -999, -999]	n/a	catFR1	0	R1112M
1241.258	18.353	625350	PROB	18.353	n/a	n/a	n/a	-999	10	[9, 8, 2]	19	catFR1	0	R1112M
1259.611	42.294	634526	PROB	42.294	n/a	n/a	n/a	-999	10	[4, 7, 3]	14	catFR1	0	R1112M
1301.905	0.015	655672	STOP	n/a	n/a	n/a	n/a	-999	10	[-999, -999, -999]	n/a	catFR1	0	R1112M
1301.92	1.151	655679	DISTRACT_END	n/a	n/a	n/a	n/a	-999	10	[0, 0, 0]	n/a	catFR1	0	R1112M
1303.071	6.33	656255	REC_START	n/a	n/a	n/a	n/a	-999	10	[0, 0, 0]	n/a	catFR1	0	R1112M
1309.401	4.352	659420	REC_WORD_VV	4.352	n/a	<>	n/a	-999	10	[0, 0, 0]	n/a	catFR1	0	R1112M
1313.753	19.328	661596	REC_WORD	19.328	n/a	CORKSCREW	KitchenTools	2	10	[0, 0, 0]	n/a	catFR1	0	R1112M
1333.081	9.93	671259	REC_END	n/a	n/a	n/a	n/a	-999	10	[0, 0, 0]	n/a	catFR1	0	R1112M
1343.011	0.001	676224	COUNTDOWN_START	n/a	n/a	n/a	n/a	-999	11	[0, 0, 0]	n/a	catFR1	0	R1112M
1343.012	10.427	676224	TRIAL	n/a	n/a	n/a	n/a	-999	11	[0, 0, 0]	n/a	catFR1	0	R1112M
1353.439	0.008	681437	COUNTDOWN_END	n/a	n/a	n/a	n/a	-999	11	[0, 0, 0]	n/a	catFR1	0	R1112M
1353.447	3.55	681441	ORIENT	n/a	n/a	n/a	n/a	-999	11	[0, 0, 0]	n/a	catFR1	0	R1112M
1356.997	2.467	683216	WORD	n/a	wordpools/wordpool_categorized_EN.txt	HALLWAY	Building	1	11	[0, 0, 0]	n/a	catFR1	0	R1112M
1359.464	2.468	684450	WORD	n/a	wordpools/wordpool_categorized_EN.txt	WINDOW	Building	2	11	[0, 0, 0]	n/a	catFR1	0	R1112M
1361.932	2.4	685684	WORD	n/a	wordpools/wordpool_categorized_EN.txt	MOSQUITO	Insects	3	11	[0, 0, 0]	n/a	catFR1	0	R1112M
1364.332	2.517	686884	WORD	n/a	wordpools/wordpool_categorized_EN.txt	FLY	Insects	4	11	[0, 0, 0]	n/a	catFR1	0	R1112M
1366.849	2.567	688142	WORD	n/a	wordpools/wordpool_categorized_EN.txt	HICKORY	Trees	5	11	[0, 0, 0]	n/a	catFR1	0	R1112M
1369.416	2.451	689426	WORD	n/a	wordpools/wordpool_categorized_EN.txt	ELM	Trees	6	11	[0, 0, 0]	n/a	catFR1	0	R1112M
1371.867	2.467	690651	WORD	n/a	wordpools/wordpool_categorized_EN.txt	LADYBUG	Insects	7	11	[0, 0, 0]	n/a	catFR1	0	R1112M
1374.334	2.584	691884	WORD	n/a	wordpools/wordpool_categorized_EN.txt	SPIDER	Insects	8	11	[0, 0, 0]	n/a	catFR1	0	R1112M
1376.918	2.45	693176	WORD	n/a	wordpools/wordpool_categorized_EN.txt	WALL	Building	9	11	[0, 0, 0]	n/a	catFR1	0	R1112M
1379.368	2.567	694401	WORD	n/a	wordpools/wordpool_categorized_EN.txt	STAIRS	Building	10	11	[0, 0, 0]	n/a	catFR1	0	R1112M
1381.935	2.518	695685	WORD	n/a	wordpools/wordpool_categorized_EN.txt	WILLOW	Trees	11	11	[0, 0, 0]	n/a	catFR1	0	R1112M
1384.453	1.617	696944	WORD	n/a	wordpools/wordpool_categorized_EN.txt	CYPRESS	Trees	12	11	[0, 0, 0]	n/a	catFR1	0	R1112M
1386.07	0.001	697752	DISTRACT_START	n/a	n/a	n/a	n/a	-999	11	[0, 0, 0]	n/a	catFR1	0	R1112M
1386.071	0.015	697753	START	n/a	n/a	n/a	n/a	-999	11	[-999, -999, -999]	n/a	catFR1	0	R1112M
1386.086	13.336	697760	PROB	13.336	n/a	n/a	n/a	-999	11	[1, 9, 7]	17	catFR1	0	R1112M
1399.422	7.443	704428	PROB	7.443	n/a	n/a	n/a	-999	11	[9, 1, 1]	11	catFR1	0	R1112M
1406.865	0.009	708149	STOP	n/a	n/a	n/a	n/a	-999	11	[-999, -999, -999]	n/a	catFR1	0	R1112M
1406.874	1.1	708153	DISTRACT_END	n/a	n/a	n/a	n/a	-999	11	[0, 0, 0]	n/a	catFR1	0	R1112M
1407.974	2.474	708703	REC_START	n/a	n/a	n/a	n/a	-999	11	[0, 0, 0]	n/a	catFR1	0	R1112M
1410.448	1.85	709940	REC_WORD	1.85	n/a	LADYBUG	Insects	7	11	[0, 0, 0]	n/a	catFR1	0	R1112M
1412.298	3.902	710865	REC_WORD	3.902	n/a	MOSQUITO	Insects	3	11	[0, 0, 0]	n/a	catFR1	0	R1112M
1416.2	2.495	712816	REC_WORD	2.495	n/a	HALLWAY	Building	1	11	[0, 0, 0]	n/a	catFR1	0	R1112M
1418.695	19.29	714064	REC_WORD	19.29	n/a	WALL	Building	9	11	[0, 0, 0]	n/a	catFR1	0	R1112M
1437.985	24.416	723708	REC_END	n/a	n/a	n/a	n/a	-999	11	[0, 0, 0]	n/a	catFR1	0	R1112M
1462.401	0.0	735915	TRIAL	n/a	n/a	n/a	n/a	-999	12	[0, 0, 0]	n/a	catFR1	0	R1112M
1462.401	10.428	735915	COUNTDOWN_START	n/a	n/a	n/a	n/a	-999	12	[0, 0, 0]	n/a	catFR1	0	R1112M
1472.829	0.007	741129	COUNTDOWN_END	n/a	n/a	n/a	n/a	-999	12	[0, 0, 0]	n/a	catFR1	0	R1112M
1472.836	3.618	741133	ORIENT	n/a	n/a	n/a	n/a	-999	12	[0, 0, 0]	n/a	catFR1	0	R1112M
1476.454	2.45	742942	WORD	n/a	wordpools/wordpool_categorized_EN.txt	SHELF	Furniture	1	12	[0, 0, 0]	n/a	catFR1	0	R1112M
1478.904	2.517	744166	WORD	n/a	wordpools/wordpool_categorized_EN.txt	CABINET	Furniture	2	12	[0, 0, 0]	n/a	catFR1	0	R1112M
1481.421	2.401	745425	WORD	n/a	wordpools/wordpool_categorized_EN.txt	MARKER	OfficeSupplies	3	12	[0, 0, 0]	n/a	catFR1	0	R1112M
1483.822	2.534	746625	WORD	n/a	wordpools/wordpool_categorized_EN.txt	GLUE	OfficeSupplies	4	12	[0, 0, 0]	n/a	catFR1	0	R1112M
1486.356	2.534	747892	WORD	n/a	wordpools/wordpool_categorized_EN.txt	LILY	Flowers	5	12	[0, 0, 0]	n/a	catFR1	0	R1112M
1488.89	2.567	749159	WORD	n/a	wordpools/wordpool_categorized_EN.txt	MARIGOLD	Flowers	6	12	[0, 0, 0]	n/a	catFR1	0	R1112M
1491.457	2.6	750443	WORD	n/a	wordpools/wordpool_categorized_EN.txt	RULER	OfficeSupplies	7	12	[0, 0, 0]	n/a	catFR1	0	R1112M
1494.057	2.483	751743	WORD	n/a	wordpools/wordpool_categorized_EN.txt	FOLDER	OfficeSupplies	8	12	[0, 0, 0]	n/a	catFR1	0	R1112M
1496.54	2.435	752984	WORD	n/a	wordpools/wordpool_categorized_EN.txt	CHAIR	Furniture	9	12	[0, 0, 0]	n/a	catFR1	0	R1112M
1498.975	2.583	754201	WORD	n/a	wordpools/wordpool_categorized_EN.txt	NIGHTSTAND	Furniture	10	12	[0, 0, 0]	n/a	catFR1	0	R1112M
1501.558	2.584	755493	WORD	n/a	wordpools/wordpool_categorized_EN.txt	PETUNIA	Flowers	11	12	[0, 0, 0]	n/a	catFR1	0	R1112M
1504.142	1.616	756785	WORD	n/a	wordpools/wordpool_categorized_EN.txt	ROSE	Flowers	12	12	[0, 0, 0]	n/a	catFR1	0	R1112M
1505.758	0.001	757593	DISTRACT_START	n/a	n/a	n/a	n/a	-999	12	[0, 0, 0]	n/a	catFR1	0	R1112M
1505.759	0.016	757593	START	n/a	n/a	n/a	n/a	-999	12	[-999, -999, -999]	n/a	catFR1	0	R1112M
1505.775	13.986	757601	PROB	13.986	n/a	n/a	n/a	-999	12	[1, 6, 5]	12	catFR1	0	R1112M
1519.761	13.991	764594	PROB	13.991	n/a	n/a	n/a	-999	12	[4, 2, 7]	13	catFR1	0	R1112M
1533.752	0.012	771589	STOP	n/a	n/a	n/a	n/a	-999	12	[-999, -999, -999]	n/a	catFR1	0	R1112M
1533.764	1.218	771595	DISTRACT_END	n/a	n/a	n/a	n/a	-999	12	[0, 0, 0]	n/a	catFR1	0	R1112M
1534.982	2.908	772204	REC_START	n/a	n/a	n/a	n/a	-999	12	[0, 0, 0]	n/a	catFR1	0	R1112M
1537.89	3.802	773658	REC_WORD_VV	3.802	n/a	<>	n/a	-999	12	[0, 0, 0]	n/a	catFR1	0	R1112M
1541.692	12.276	775559	REC_WORD	12.276	n/a	SHELF	Furniture	1	12	[0, 0, 0]	n/a	catFR1	0	R1112M
1553.968	11.03	781696	REC_WORD	11.03	n/a	BOOKCASE	n/a	-999	12	[0, 0, 0]	n/a	catFR1	0	R1112M
1564.998	515.505	787211	REC_END	n/a	n/a	n/a	n/a	-999	12	[0, 0, 0]	n/a	catFR1	0	R1112M
2080.503	0.0	1044949	TRIAL	n/a	n/a	n/a	n/a	-999	13	[0, 0, 0]	n/a	catFR1	0	R1112M
2080.503	10.428	1044949	COUNTDOWN_START	n/a	n/a	n/a	n/a	-999	13	[0, 0, 0]	n/a	catFR1	0	R1112M
2090.931	0.008	1050163	COUNTDOWN_END	n/a	n/a	n/a	n/a	-999	13	[0, 0, 0]	n/a	catFR1	0	R1112M
2090.939	3.566	1050167	ORIENT	n/a	n/a	n/a	n/a	-999	13	[0, 0, 0]	n/a	catFR1	0	R1112M
2094.505	2.535	1051950	WORD	n/a	wordpools/wordpool_categorized_EN.txt	NOSE	BodyParts	1	13	[0, 0, 0]	n/a	catFR1	0	R1112M
2097.04	2.417	1053217	WORD	n/a	wordpools/wordpool_categorized_EN.txt	EYE	BodyParts	2	13	[0, 0, 0]	n/a	catFR1	0	R1112M
2099.457	2.468	1054426	WORD	n/a	wordpools/wordpool_categorized_EN.txt	JACKET	Clothing	3	13	[0, 0, 0]	n/a	catFR1	0	R1112M
2101.925	2.467	1055659	WORD	n/a	wordpools/wordpool_categorized_EN.txt	UNDERWEAR	Clothing	4	13	[0, 0, 0]	n/a	catFR1	0	R1112M
2104.392	2.617	1056893	WORD	n/a	wordpools/wordpool_categorized_EN.txt	WRENCH	Tools	5	13	[0, 0, 0]	n/a	catFR1	0	R1112M
2107.009	2.417	1058201	WORD	n/a	wordpools/wordpool_categorized_EN.txt	HAMMER	Tools	6	13	[0, 0, 0]	n/a	catFR1	0	R1112M
2109.426	2.384	1059410	WORD	n/a	wordpools/wordpool_categorized_EN.txt	BLOUSE	Clothing	7	13	[0, 0, 0]	n/a	catFR1	0	R1112M
2111.81	2.384	1060602	WORD	n/a	wordpools/wordpool_categorized_EN.txt	SHOES	Clothing	8	13	[0, 0, 0]	n/a	catFR1	0	R1112M
2114.194	2.516	1061794	WORD	n/a	wordpools/wordpool_categorized_EN.txt	FINGERS	BodyParts	9	13	[0, 0, 0]	n/a	catFR1	0	R1112M
2116.71	2.535	1063052	WORD	n/a	wordpools/wordpool_categorized_EN.txt	EAR	BodyParts	10	13	[0, 0, 0]	n/a	catFR1	0	R1112M
2119.245	2.432	1064319	WORD	n/a	wordpools/wordpool_categorized_EN.txt	DRILL	Tools	11	13	[0, 0, 0]	n/a	catFR1	0	R1112M
2121.677	1.601	1065535	WORD	n/a	wordpools/wordpool_categorized_EN.txt	SHOVEL	Tools	12	13	[0, 0, 0]	n/a	catFR1	0	R1112M
2123.278	0.002	1066335	DISTRACT_START	n/a	n/a	n/a	n/a	-999	13	[0, 0, 0]	n/a	catFR1	0	R1112M
2123.28	0.015	1066336	START	n/a	n/a	n/a	n/a	-999	13	[-999, -999, -999]	n/a	catFR1	0	R1112M
2123.295	13.003	1066344	PROB	13.003	n/a	n/a	n/a	-999	13	[1, 8, 8]	17	catFR1	0	R1112M
2136.298	15.278	1072845	PROB	15.278	n/a	n/a	n/a	-999	13	[4, 8, 7]	19	catFR1	0	R1112M
2151.576	0.007	1080484	STOP	n/a	n/a	n/a	n/a	-999	13	[-999, -999, -999]	n/a	catFR1	0	R1112M
2151.583	1.101	1080487	DISTRACT_END	n/a	n/a	n/a	n/a	-999	13	[0, 0, 0]	n/a	catFR1	0	R1112M
2152.684	3.594	1081038	REC_START	n/a	n/a	n/a	n/a	-999	13	[0, 0, 0]	n/a	catFR1	0	R1112M
2156.278	1.605	1082834	REC_WORD	1.605	n/a	NOSE	BodyParts	1	13	[0, 0, 0]	n/a	catFR1	0	R1112M
2157.883	2.74	1083637	REC_WORD	2.74	n/a	EYE	BodyParts	2	13	[0, 0, 0]	n/a	catFR1	0	R1112M
2160.623	5.27	1085007	REC_WORD	5.27	n/a	WRENCH	Tools	5	13	[0, 0, 0]	n/a	catFR1	0	R1112M
2165.893	9.146	1087642	REC_WORD	9.146	n/a	HAMMER	Tools	6	13	[0, 0, 0]	n/a	catFR1	0	R1112M
2175.039	7.657	1092214	REC_WORD_VV	7.657	n/a	<>	n/a	-999	13	[0, 0, 0]	n/a	catFR1	0	R1112M
2182.696	7.496	1096043	REC_END	n/a	n/a	n/a	n/a	-999	13	[0, 0, 0]	n/a	catFR1	0	R1112M
2190.192	0.0	1099790	COUNTDOWN_START	n/a	n/a	n/a	n/a	-999	14	[0, 0, 0]	n/a	catFR1	0	R1112M
2190.192	10.428	1099790	TRIAL	n/a	n/a	n/a	n/a	-999	14	[0, 0, 0]	n/a	catFR1	0	R1112M
2200.62	0.006	1105004	COUNTDOWN_END	n/a	n/a	n/a	n/a	-999	14	[0, 0, 0]	n/a	catFR1	0	R1112M
2200.626	3.752	1105007	ORIENT	n/a	n/a	n/a	n/a	-999	14	[0, 0, 0]	n/a	catFR1	0	R1112M
2204.378	2.382	1106883	WORD	n/a	wordpools/wordpool_categorized_EN.txt	GOOSE	Birds	1	14	[0, 0, 0]	n/a	catFR1	0	R1112M
2206.76	2.585	1108074	WORD	n/a	wordpools/wordpool_categorized_EN.txt	PIGEON	Birds	2	14	[0, 0, 0]	n/a	catFR1	0	R1112M
2209.345	2.484	1109366	WORD	n/a	wordpools/wordpool_categorized_EN.txt	CHEESECAKE	Desserts	3	14	[0, 0, 0]	n/a	catFR1	0	R1112M
2211.829	2.384	1110608	WORD	n/a	wordpools/wordpool_categorized_EN.txt	CUPCAKE	Desserts	4	14	[0, 0, 0]	n/a	catFR1	0	R1112M
2214.213	2.584	1111800	WORD	n/a	wordpools/wordpool_categorized_EN.txt	TROMBONE	Instruments	5	14	[0, 0, 0]	n/a	catFR1	0	R1112M
2216.797	2.6	1113092	WORD	n/a	wordpools/wordpool_categorized_EN.txt	CELLO	Instruments	6	14	[0, 0, 0]	n/a	catFR1	0	R1112M
2219.397	2.584	1114392	WORD	n/a	wordpools/wordpool_categorized_EN.txt	HAWK	Birds	7	14	[0, 0, 0]	n/a	catFR1	0	R1112M
2221.981	2.6	1115684	WORD	n/a	wordpools/wordpool_categorized_EN.txt	DUCK	Birds	8	14	[0, 0, 0]	n/a	catFR1	0	R1112M
2224.581	2.601	1116984	WORD	n/a	wordpools/wordpool_categorized_EN.txt	GUITAR	Instruments	9	14	[0, 0, 0]	n/a	catFR1	0	R1112M
2227.182	2.433	1118284	WORD	n/a	wordpools/wordpool_categorized_EN.txt	VIOLIN	Instruments	10	14	[0, 0, 0]	n/a	catFR1	0	R1112M
2229.615	2.618	1119501	WORD	n/a	wordpools/wordpool_categorized_EN.txt	COOKIE	Desserts	11	14	[0, 0, 0]	n/a	catFR1	0	R1112M
2232.233	1.617	1120810	WORD	n/a	wordpools/wordpool_categorized_EN.txt	PIE	Desserts	12	14	[0, 0, 0]	n/a	catFR1	0	R1112M
2233.85	0.001	1121618	DISTRACT_START	n/a	n/a	n/a	n/a	-999	14	[0, 0, 0]	n/a	catFR1	0	R1112M
2233.851	0.016	1121619	START	n/a	n/a	n/a	n/a	-999	14	[-999, -999, -999]	n/a	catFR1	0	R1112M
2233.867	7.8	1121627	PROB	7.8	n/a	n/a	n/a	-999	14	[1, 3, 9]	13	catFR1	0	R1112M
2241.667	15.734	1125527	PROB	15.734	n/a	n/a	n/a	-999	14	[8, 1, 9]	18	catFR1	0	R1112M
2257.401	0.003	1133393	STOP	n/a	n/a	n/a	n/a	-999	14	[-999, -999, -999]	n/a	catFR1	0	R1112M
2257.404	1.117	1133395	DISTRACT_END	n/a	n/a	n/a	n/a	-999	14	[0, 0, 0]	n/a	catFR1	0	R1112M
2258.521	3.82	1133953	REC_START	n/a	n/a	n/a	n/a	-999	14	[0, 0, 0]	n/a	catFR1	0	R1112M
2262.341	0.881	1135863	REC_WORD	0.881	n/a	GOOSE	Birds	1	14	[0, 0, 0]	n/a	catFR1	0	R1112M
2263.222	2.482	1136303	REC_WORD	2.482	n/a	PIGEON	Birds	2	14	[0, 0, 0]	n/a	catFR1	0	R1112M
2265.704	2.036	1137544	REC_WORD	2.036	n/a	GUITAR	Instruments	9	14	[0, 0, 0]	n/a	catFR1	0	R1112M
2267.74	20.793	1138562	REC_WORD	20.793	n/a	VIOLIN	Instruments	10	14	[0, 0, 0]	n/a	catFR1	0	R1112M
2288.533	17.764	1148958	REC_END	n/a	n/a	n/a	n/a	-999	14	[0, 0, 0]	n/a	catFR1	0	R1112M
2306.297	0.0	1157840	TRIAL	n/a	n/a	n/a	n/a	-999	15	[0, 0, 0]	n/a	catFR1	0	R1112M
2306.297	10.428	1157840	COUNTDOWN_START	n/a	n/a	n/a	n/a	-999	15	[0, 0, 0]	n/a	catFR1	0	R1112M
2316.725	0.007	1163053	COUNTDOWN_END	n/a	n/a	n/a	n/a	-999	15	[0, 0, 0]	n/a	catFR1	0	R1112M
2316.732	3.8	1163057	ORIENT	n/a	n/a	n/a	n/a	-999	15	[0, 0, 0]	n/a	catFR1	0	R1112M
2320.532	2.435	1164957	WORD	n/a	wordpools/wordpool_categorized_EN.txt	BINDER	OfficeSupplies	1	15	[0, 0, 0]	n/a	catFR1	0	R1112M
2322.967	2.501	1166174	WORD	n/a	wordpools/wordpool_categorized_EN.txt	NOTEBOOK	OfficeSupplies	2	15	[0, 0, 0]	n/a	catFR1	0	R1112M
2325.468	2.55	1167425	WORD	n/a	wordpools/wordpool_categorized_EN.txt	KNIFE	KitchenTools	3	15	[0, 0, 0]	n/a	catFR1	0	R1112M
2328.018	2.417	1168700	WORD	n/a	wordpools/wordpool_categorized_EN.txt	TONGS	KitchenTools	4	15	[0, 0, 0]	n/a	catFR1	0	R1112M
2330.435	2.584	1169908	WORD	n/a	wordpools/wordpool_categorized_EN.txt	COBBLER	Desserts	5	15	[0, 0, 0]	n/a	catFR1	0	R1112M
2333.019	2.6	1171200	WORD	n/a	wordpools/wordpool_categorized_EN.txt	PASTRY	Desserts	6	15	[0, 0, 0]	n/a	catFR1	0	R1112M
2335.619	2.401	1172500	WORD	n/a	wordpools/wordpool_categorized_EN.txt	STAPLER	OfficeSupplies	7	15	[0, 0, 0]	n/a	catFR1	0	R1112M
2338.02	2.483	1173700	WORD	n/a	wordpools/wordpool_categorized_EN.txt	PENCIL	OfficeSupplies	8	15	[0, 0, 0]	n/a	catFR1	0	R1112M
2340.503	2.451	1174942	WORD	n/a	wordpools/wordpool_categorized_EN.txt	JELLO	Desserts	9	15	[0, 0, 0]	n/a	catFR1	0	R1112M
2342.954	2.518	1176167	WORD	n/a	wordpools/wordpool_categorized_EN.txt	CAKE	Desserts	10	15	[0, 0, 0]	n/a	catFR1	0	R1112M
2345.472	2.483	1177426	WORD	n/a	wordpools/wordpool_categorized_EN.txt	COLANDER	KitchenTools	11	15	[0, 0, 0]	n/a	catFR1	0	R1112M
2347.955	1.616	1178668	WORD	n/a	wordpools/wordpool_categorized_EN.txt	STRAINER	KitchenTools	12	15	[0, 0, 0]	n/a	catFR1	0	R1112M
2349.571	0.001	1179476	DISTRACT_START	n/a	n/a	n/a	n/a	-999	15	[0, 0, 0]	n/a	catFR1	0	R1112M
2349.572	0.016	1179476	START	n/a	n/a	n/a	n/a	-999	15	[-999, -999, -999]	n/a	catFR1	0	R1112M
2349.588	22.301	1179484	PROB	22.301	n/a	n/a	n/a	-999	15	[2, 7, 9]	18	catFR1	0	R1112M
2371.889	0.004	1190634	STOP	n/a	n/a	n/a	n/a	-999	15	[-999, -999, -999]	n/a	catFR1	0	R1112M
2371.893	1.218	1190636	DISTRACT_END	n/a	n/a	n/a	n/a	-999	15	[0, 0, 0]	n/a	catFR1	0	R1112M
2373.111	3.682	1191245	REC_START	n/a	n/a	n/a	n/a	-999	15	[0, 0, 0]	n/a	catFR1	0	R1112M
2376.793	12.758	1193086	REC_WORD	12.758	n/a	COBBLER	Desserts	5	15	[0, 0, 0]	n/a	catFR1	0	R1112M
2389.551	13.572	1199464	REC_WORD	13.572	n/a	STRAINER	KitchenTools	12	15	[0, 0, 0]	n/a	catFR1	0	R1112M
2403.123	4.744	1206250	REC_END	n/a	n/a	n/a	n/a	-999	15	[0, 0, 0]	n/a	catFR1	0	R1112M
2407.867	0.0	1208622	TRIAL	n/a	n/a	n/a	n/a	-999	16	[0, 0, 0]	n/a	catFR1	0	R1112M
2407.867	10.428	1208622	COUNTDOWN_START	n/a	n/a	n/a	n/a	-999	16	[0, 0, 0]	n/a	catFR1	0	R1112M
2418.295	0.007	1213836	COUNTDOWN_END	n/a	n/a	n/a	n/a	-999	16	[0, 0, 0]	n/a	catFR1	0	R1112M
2418.302	3.818	1213839	ORIENT	n/a	n/a	n/a	n/a	-999	16	[0, 0, 0]	n/a	catFR1	0	R1112M
2422.12	2.616	1215748	WORD	n/a	wordpools/wordpool_categorized_EN.txt	OVEN	Appliances	1	16	[0, 0, 0]	n/a	catFR1	0	R1112M
2424.736	2.368	1217056	WORD	n/a	wordpools/wordpool_categorized_EN.txt	REFRIGERATOR	Appliances	2	16	[0, 0, 0]	n/a	catFR1	0	R1112M
2427.104	2.399	1218240	WORD	n/a	wordpools/wordpool_categorized_EN.txt	PIANO	Instruments	3	16	[0, 0, 0]	n/a	catFR1	0	R1112M
2429.503	2.485	1219439	WORD	n/a	wordpools/wordpool_categorized_EN.txt	TRUMPET	Instruments	4	16	[0, 0, 0]	n/a	catFR1	0	R1112M
2431.988	2.583	1220682	WORD	n/a	wordpools/wordpool_categorized_EN.txt	ROOM	Building	5	16	[0, 0, 0]	n/a	catFR1	0	R1112M
2434.571	2.452	1221973	WORD	n/a	wordpools/wordpool_categorized_EN.txt	FLOOR	Building	6	16	[0, 0, 0]	n/a	catFR1	0	R1112M
2437.023	2.4	1223199	WORD	n/a	wordpools/wordpool_categorized_EN.txt	FLUTE	Instruments	7	16	[0, 0, 0]	n/a	catFR1	0	R1112M
2439.423	2.517	1224399	WORD	n/a	wordpools/wordpool_categorized_EN.txt	ORGAN	Instruments	8	16	[0, 0, 0]	n/a	catFR1	0	R1112M
2441.94	2.384	1225657	WORD	n/a	wordpools/wordpool_categorized_EN.txt	DRYER	Appliances	9	16	[0, 0, 0]	n/a	catFR1	0	R1112M
2444.324	2.484	1226849	WORD	n/a	wordpools/wordpool_categorized_EN.txt	FREEZER	Appliances	10	16	[0, 0, 0]	n/a	catFR1	0	R1112M
2446.808	2.4	1228091	WORD	n/a	wordpools/wordpool_categorized_EN.txt	ATTIC	Building	11	16	[0, 0, 0]	n/a	catFR1	0	R1112M
2449.208	1.617	1229291	WORD	n/a	wordpools/wordpool_categorized_EN.txt	ROOF	Building	12	16	[0, 0, 0]	n/a	catFR1	0	R1112M
2450.825	0.001	1230100	DISTRACT_START	n/a	n/a	n/a	n/a	-999	16	[0, 0, 0]	n/a	catFR1	0	R1112M
2450.826	0.016	1230100	START	n/a	n/a	n/a	n/a	-999	16	[-999, -999, -999]	n/a	catFR1	0	R1112M
2450.842	11.169	1230108	PROB	11.169	n/a	n/a	n/a	-999	16	[4, 6, 2]	12	catFR1	0	R1112M
2462.011	13.158	1235692	PROB	13.158	n/a	n/a	n/a	-999	16	[9, 2, 4]	15	catFR1	0	R1112M
2475.169	0.011	1242271	STOP	n/a	n/a	n/a	n/a	-999	16	[-999, -999, -999]	n/a	catFR1	0	R1112M
2475.18	1.134	1242277	DISTRACT_END	n/a	n/a	n/a	n/a	-999	16	[0, 0, 0]	n/a	catFR1	0	R1112M
2476.314	30.0	1242843	REC_START	n/a	n/a	n/a	n/a	-999	16	[0, 0, 0]	n/a	catFR1	0	R1112M
2506.314	0.011	1257843	REC_WORD_VV	0.011	n/a	<>	n/a	-999	16	[0, 0, 0]	n/a	catFR1	0	R1112M
2506.325	19.314	1257848	REC_END	n/a	n/a	n/a	n/a	-999	16	[0, 0, 0]	n/a	catFR1	0	R1112M
2525.639	0.0	1267505	COUNTDOWN_START	n/a	n/a	n/a	n/a	-999	17	[0, 0, 0]	n/a	catFR1	0	R1112M
2525.639	10.428	1267505	TRIAL	n/a	n/a	n/a	n/a	-999	17	[0, 0, 0]	n/a	catFR1	0	R1112M
2536.067	0.008	1272718	COUNTDOWN_END	n/a	n/a	n/a	n/a	-999	17	[0, 0, 0]	n/a	catFR1	0	R1112M
2536.075	3.984	1272722	ORIENT	n/a	n/a	n/a	n/a	-999	17	[0, 0, 0]	n/a	catFR1	0	R1112M
2540.059	2.384	1274714	WORD	n/a	wordpools/wordpool_categorized_EN.txt	CHICKEN	FarmAnimals	1	17	[0, 0, 0]	n/a	catFR1	0	R1112M
2542.443	2.567	1275906	WORD	n/a	wordpools/wordpool_categorized_EN.txt	BULL	FarmAnimals	2	17	[0, 0, 0]	n/a	catFR1	0	R1112M
2545.01	2.6	1277190	WORD	n/a	wordpools/wordpool_categorized_EN.txt	RATCHET	Tools	3	17	[0, 0, 0]	n/a	catFR1	0	R1112M
2547.61	2.635	1278489	WORD	n/a	wordpools/wordpool_categorized_EN.txt	AXE	Tools	4	17	[0, 0, 0]	n/a	catFR1	0	R1112M
2550.245	2.532	1279807	WORD	n/a	wordpools/wordpool_categorized_EN.txt	BANANA	Fruit	5	17	[0, 0, 0]	n/a	catFR1	0	R1112M
2552.777	2.469	1281073	WORD	n/a	wordpools/wordpool_categorized_EN.txt	STRAWBERRY	Fruit	6	17	[0, 0, 0]	n/a	catFR1	0	R1112M
2555.246	2.415	1282307	WORD	n/a	wordpools/wordpool_categorized_EN.txt	HEN	FarmAnimals	7	17	[0, 0, 0]	n/a	catFR1	0	R1112M
2557.661	2.535	1283515	WORD	n/a	wordpools/wordpool_categorized_EN.txt	CALF	FarmAnimals	8	17	[0, 0, 0]	n/a	catFR1	0	R1112M
2560.196	2.584	1284782	WORD	n/a	wordpools/wordpool_categorized_EN.txt	APPLE	Fruit	9	17	[0, 0, 0]	n/a	catFR1	0	R1112M
2562.78	2.484	1286074	WORD	n/a	wordpools/wordpool_categorized_EN.txt	PLUM	Fruit	10	17	[0, 0, 0]	n/a	catFR1	0	R1112M
2565.264	2.584	1287316	WORD	n/a	wordpools/wordpool_categorized_EN.txt	SANDER	Tools	11	17	[0, 0, 0]	n/a	catFR1	0	R1112M
2567.848	1.617	1288608	WORD	n/a	wordpools/wordpool_categorized_EN.txt	SAW	Tools	12	17	[0, 0, 0]	n/a	catFR1	0	R1112M
2569.465	0.001	1289416	DISTRACT_START	n/a	n/a	n/a	n/a	-999	17	[0, 0, 0]	n/a	catFR1	0	R1112M
2569.466	0.015	1289417	START	n/a	n/a	n/a	n/a	-999	17	[-999, -999, -999]	n/a	catFR1	0	R1112M
2569.481	18.253	1289424	PROB	18.253	n/a	n/a	n/a	-999	17	[6, 2, 4]	12	catFR1	0	R1112M
2587.734	34.491	1298550	PROB	34.491	n/a	n/a	n/a	-999	17	[4, 4, 5]	13	catFR1	0	R1112M
2622.225	0.017	1315795	STOP	n/a	n/a	n/a	n/a	-999	17	[-999, -999, -999]	n/a	catFR1	0	R1112M
2622.242	1.1	1315803	DISTRACT_END	n/a	n/a	n/a	n/a	-999	17	[0, 0, 0]	n/a	catFR1	0	R1112M
2623.342	30.011	1316353	REC_START	n/a	n/a	n/a	n/a	-999	17	[0, 0, 0]	n/a	catFR1	0	R1112M
2653.353	0.005	1331358	REC_WORD_VV	0.005	n/a	<>	n/a	-999	17	[0, 0, 0]	n/a	catFR1	0	R1112M
2653.358	7.741	1331361	REC_END	n/a	n/a	n/a	n/a	-999	17	[0, 0, 0]	n/a	catFR1	0	R1112M
2661.099	0.001	1335231	COUNTDOWN_START	n/a	n/a	n/a	n/a	-999	18	[0, 0, 0]	n/a	catFR1	0	R1112M
2661.1	10.427	1335231	TRIAL	n/a	n/a	n/a	n/a	-999	18	[0, 0, 0]	n/a	catFR1	0	R1112M
2671.527	0.007	1340444	COUNTDOWN_END	n/a	n/a	n/a	n/a	-999	18	[0, 0, 0]	n/a	catFR1	0	R1112M
2671.534	3.735	1340448	ORIENT	n/a	n/a	n/a	n/a	-999	18	[0, 0, 0]	n/a	catFR1	0	R1112M
2675.269	2.416	1342315	WORD	n/a	wordpools/wordpool_categorized_EN.txt	MOUNTAIN	Landscapes	1	18	[0, 0, 0]	n/a	catFR1	0	R1112M
2677.685	2.418	1343523	WORD	n/a	wordpools/wordpool_categorized_EN.txt	LAKE	Landscapes	2	18	[0, 0, 0]	n/a	catFR1	0	R1112M
2680.103	2.566	1344732	WORD	n/a	wordpools/wordpool_categorized_EN.txt	DRIZZLE	Weather	3	18	[0, 0, 0]	n/a	catFR1	0	R1112M
2682.669	2.535	1346015	WORD	n/a	wordpools/wordpool_categorized_EN.txt	HUMIDITY	Weather	4	18	[0, 0, 0]	n/a	catFR1	0	R1112M
2685.204	2.449	1347283	WORD	n/a	wordpools/wordpool_categorized_EN.txt	TELEVISION	Electronics	5	18	[0, 0, 0]	n/a	catFR1	0	R1112M
2687.653	2.369	1348507	WORD	n/a	wordpools/wordpool_categorized_EN.txt	STEREO	Electronics	6	18	[0, 0, 0]	n/a	catFR1	0	R1112M
2690.022	2.4	1349691	WORD	n/a	wordpools/wordpool_categorized_EN.txt	BEACH	Landscapes	7	18	[0, 0, 0]	n/a	catFR1	0	R1112M
2692.422	2.4	1350891	WORD	n/a	wordpools/wordpool_categorized_EN.txt	FOREST	Landscapes	8	18	[0, 0, 0]	n/a	catFR1	0	R1112M
2694.822	2.601	1352091	WORD	n/a	wordpools/wordpool_categorized_EN.txt	SCANNER	Electronics	9	18	[0, 0, 0]	n/a	catFR1	0	R1112M
2697.423	2.5	1353392	WORD	n/a	wordpools/wordpool_categorized_EN.txt	MICROWAVE	Electronics	10	18	[0, 0, 0]	n/a	catFR1	0	R1112M
2699.923	2.451	1354642	WORD	n/a	wordpools/wordpool_categorized_EN.txt	FOG	Weather	11	18	[0, 0, 0]	n/a	catFR1	0	R1112M
2702.374	1.617	1355867	WORD	n/a	wordpools/wordpool_categorized_EN.txt	HURRICANE	Weather	12	18	[0, 0, 0]	n/a	catFR1	0	R1112M
2703.991	0.001	1356676	DISTRACT_START	n/a	n/a	n/a	n/a	-999	18	[0, 0, 0]	n/a	catFR1	0	R1112M
2703.992	0.015	1356676	START	n/a	n/a	n/a	n/a	-999	18	[-999, -999, -999]	n/a	catFR1	0	R1112M
2704.007	62.346	1356684	PROB	62.346	n/a	n/a	n/a	-999	18	[3, 5, 7]	15	catFR1	0	R1112M
2766.353	0.017	1387855	STOP	n/a	n/a	n/a	n/a	-999	18	[-999, -999, -999]	n/a	catFR1	0	R1112M
2766.37	1.117	1387863	DISTRACT_END	n/a	n/a	n/a	n/a	-999	18	[0, 0, 0]	n/a	catFR1	0	R1112M
2767.487	0.158	1388422	REC_START	n/a	n/a	n/a	n/a	-999	18	[0, 0, 0]	n/a	catFR1	0	R1112M
2767.645	29.853	1388501	REC_WORD_VV	29.853	n/a	<>	n/a	-999	18	[0, 0, 0]	n/a	catFR1	0	R1112M
2797.498	6.578	1403426	REC_END	n/a	n/a	n/a	n/a	-999	18	[0, 0, 0]	n/a	catFR1	0	R1112M
2804.076	0.001	1406715	COUNTDOWN_START	n/a	n/a	n/a	n/a	-999	19	[0, 0, 0]	n/a	catFR1	0	R1112M
2804.077	0.0	1406716	TRIAL	n/a	n/a	n/a	n/a	-999	19	[0, 0, 0]	n/a	catFR1	0	R1112M
