onset	duration	sample	trial_type	response_time	stim_file	item_name	category	serialpos	list	test	answer	experiment	session	subject
0.0	164.8	75921	INSTRUCT_START	n/a	n/a	n/a	n/a	-999	-999	[0, 0, 0]	n/a	catFR1	0	R1472T
164.8	24.5	240711	INSTRUCT_END	n/a	n/a	n/a	n/a	-999	-999	[0, 0, 0]	n/a	catFR1	0	R1472T
189.3	10.349	265220	COUNTDOWN_START	n/a	n/a	n/a	n/a	-999	-999	[0, 0, 0]	n/a	catFR1	0	R1472T
199.649	0.0	275564	COUNTDOWN_END	n/a	n/a	n/a	n/a	-999	-999	[0, 0, 0]	n/a	catFR1	0	R1472T
199.649	2.201	275564	ENCODING_START	n/a	n/a	n/a	n/a	-999	-1	[0, 0, 0]	n/a	catFR1	0	R1472T
201.85	1.617	277759	WORD	n/a	n/a	HAND	BodyParts	1	-1	[0, 0, 0]	n/a	catFR1	0	R1472T
203.467	0.883	279373	WORD_OFF	n/a	n/a	HAND	BodyParts	1	-1	[0, 0, 0]	n/a	catFR1	0	R1472T
204.35	1.6	280259	WORD	n/a	n/a	KNEE	BodyParts	2	-1	[0, 0, 0]	n/a	catFR1	0	R1472T
205.95	0.783	281860	WORD_OFF	n/a	n/a	KNEE	BodyParts	2	-1	[0, 0, 0]	n/a	catFR1	0	R1472T
206.733	1.6	282640	WORD	n/a	n/a	GORILLA	Zoo	3	-1	[0, 0, 0]	n/a	catFR1	0	R1472T
208.333	0.9	284240	WORD_OFF	n/a	n/a	GORILLA	Zoo	3	-1	[0, 0, 0]	n/a	catFR1	0	R1472T
209.233	1.6	285140	WORD	n/a	n/a	CHIMPANZEE	Zoo	4	-1	[0, 0, 0]	n/a	catFR1	0	R1472T
210.833	0.783	286740	WORD_OFF	n/a	n/a	CHIMPANZEE	Zoo	4	-1	[0, 0, 0]	n/a	catFR1	0	R1472T
211.616	1.6	287521	WORD	n/a	n/a	COMPUTER	Electronics	5	-1	[0, 0, 0]	n/a	catFR1	0	R1472T
213.216	0.767	289121	WORD_OFF	n/a	n/a	COMPUTER	Electronics	5	-1	[0, 0, 0]	n/a	catFR1	0	R1472T
213.983	1.6	289888	WORD	n/a	n/a	SPEAKER	Electronics	6	-1	[0, 0, 0]	n/a	catFR1	0	R1472T
215.583	0.767	291489	WORD_OFF	n/a	n/a	SPEAKER	Electronics	6	-1	[0, 0, 0]	n/a	catFR1	0	R1472T
216.35	1.616	292256	WORD	n/a	n/a	MONKEY	Zoo	7	-1	[0, 0, 0]	n/a	catFR1	0	R1472T
217.966	0.851	293869	WORD_OFF	n/a	n/a	MONKEY	Zoo	7	-1	[0, 0, 0]	n/a	catFR1	0	R1472T
218.817	1.615	294729	WORD	n/a	n/a	LION	Zoo	8	-1	[0, 0, 0]	n/a	catFR1	0	R1472T
220.432	0.835	296343	WORD_OFF	n/a	n/a	LION	Zoo	8	-1	[0, 0, 0]	n/a	catFR1	0	R1472T
221.267	1.616	297176	WORD	n/a	n/a	EAR	BodyParts	9	-1	[0, 0, 0]	n/a	catFR1	0	R1472T
222.883	0.883	298790	WORD_OFF	n/a	n/a	EAR	BodyParts	9	-1	[0, 0, 0]	n/a	catFR1	0	R1472T
223.766	1.617	299676	WORD	n/a	n/a	NOSE	BodyParts	10	-1	[0, 0, 0]	n/a	catFR1	0	R1472T
225.383	0.867	301289	WORD_OFF	n/a	n/a	NOSE	BodyParts	10	-1	[0, 0, 0]	n/a	catFR1	0	R1472T
226.25	1.616	302162	WORD	n/a	n/a	TELEVISION	Electronics	11	-1	[0, 0, 0]	n/a	catFR1	0	R1472T
227.866	0.984	303776	WORD_OFF	n/a	n/a	TELEVISION	Electronics	11	-1	[0, 0, 0]	n/a	catFR1	0	R1472T
228.85	1.6	304755	WORD	n/a	n/a	STEREO	Electronics	12	-1	[0, 0, 0]	n/a	catFR1	0	R1472T
230.45	0.002	306355	WORD_OFF	n/a	n/a	STEREO	Electronics	12	-1	[0, 0, 0]	n/a	catFR1	0	R1472T
230.452	0.0	306355	ENCODING_END	n/a	n/a	n/a	n/a	-999	-1	[0, 0, 0]	n/a	catFR1	0	R1472T
230.451	0.001	306360	PROB	4.783	n/a	n/a	n/a	-999	-1	[1, 4, 8]	13.0	catFR1	0	R1472T
230.452	0.0	306361	START	n/a	n/a	n/a	n/a	-999	-1	[-999, -999, -999]	n/a	catFR1	0	R1472T
230.452	4.797	306369	DISTRACT_START	n/a	n/a	n/a	n/a	-999	-1	[0, 0, 0]	n/a	catFR1	0	R1472T
235.249	3.934	311158	PROB	3.916	n/a	n/a	n/a	-999	-1	[2, 3, 5]	10.0	catFR1	0	R1472T
239.183	2.62	315092	PROB	2.6	n/a	n/a	n/a	-999	-1	[2, 7, 3]	12.0	catFR1	0	R1472T
241.803	2.58	317711	PROB	2.566	n/a	n/a	n/a	-999	-1	[6, 4, 2]	12.0	catFR1	0	R1472T
244.383	3.55	320291	PROB	3.533	n/a	n/a	n/a	-999	-1	[4, 1, 1]	6.0	catFR1	0	R1472T
247.933	5.25	323841	PROB	5.233	n/a	n/a	n/a	-999	-1	[5, 8, 3]	16.0	catFR1	0	R1472T
253.183	0.0	329091	STOP	n/a	n/a	n/a	n/a	-999	-1	[-999, -999, -999]	n/a	catFR1	0	R1472T
253.183	2.283	329092	DISTRACT_END	n/a	n/a	n/a	n/a	-999	-1	[0, 0, 0]	n/a	catFR1	0	R1472T
255.466	0.762	331375	REC_START	n/a	n/a	n/a	n/a	-999	-1	[0, 0, 0]	n/a	catFR1	0	R1472T
256.228	1.002	332136	REC_WORD	0.762	n/a	CHIMPANZEE	Zoo	4	-1	[0, 0, 0]	n/a	catFR1	0	R1472T
257.23	0.266	333138	REC_WORD	1.764	n/a	CHIMPANZEE	Zoo	4	-1	[0, 0, 0]	n/a	catFR1	0	R1472T
257.496	0.658	333404	REC_WORD	2.03	n/a	MONKEY	Zoo	7	-1	[0, 0, 0]	n/a	catFR1	0	R1472T
258.154	1.43	334062	REC_WORD	2.688	n/a	GORILLA	Zoo	3	-1	[0, 0, 0]	n/a	catFR1	0	R1472T
259.584	0.831	335492	REC_WORD	4.118	n/a	COMPUTER	Electronics	5	-1	[0, 0, 0]	n/a	catFR1	0	R1472T
260.415	3.895	336323	REC_WORD	4.949	n/a	TELEVISION	Electronics	11	-1	[0, 0, 0]	n/a	catFR1	0	R1472T
264.31	8.299	340217	REC_WORD_VV	8.844	n/a	<>	n/a	-999	-1	[0, 0, 0]	n/a	catFR1	0	R1472T
272.609	1.474	348516	REC_WORD	17.143	n/a	EAR	BodyParts	9	-1	[0, 0, 0]	n/a	catFR1	0	R1472T
274.083	0.998	349990	REC_WORD	18.617	n/a	NOSE	BodyParts	10	-1	[0, 0, 0]	n/a	catFR1	0	R1472T
275.081	6.448	350988	REC_WORD	19.615	n/a	NOSE	BodyParts	10	-1	[0, 0, 0]	n/a	catFR1	0	R1472T
281.529	4.121	357435	REC_WORD	26.063	n/a	KNEE	BodyParts	2	-1	[0, 0, 0]	n/a	catFR1	0	R1472T
285.65	17.5	361550	REC_END	n/a	n/a	n/a	n/a	-999	-1	[0, 0, 0]	n/a	catFR1	0	R1472T
303.15	10.349	379062	COUNTDOWN_START	n/a	n/a	n/a	n/a	-999	1	[0, 0, 0]	n/a	catFR1	0	R1472T
313.499	0.0	389405	COUNTDOWN_END	n/a	n/a	n/a	n/a	-999	1	[0, 0, 0]	n/a	catFR1	0	R1472T
313.499	2.001	389405	ENCODING_START	n/a	n/a	n/a	n/a	-999	1	[0, 0, 0]	n/a	catFR1	0	R1472T
315.5	1.6	391403	WORD	n/a	wordpools/wordpool_categorized_EN.txt	SCOOTER	Vehicles	1	1	[0, 0, 0]	n/a	catFR1	0	R1472T
317.1	0.883	393003	WORD_OFF	n/a	n/a	SCOOTER	Vehicles	1	1	[0, 0, 0]	n/a	catFR1	0	R1472T
317.983	1.617	393889	WORD	n/a	wordpools/wordpool_categorized_EN.txt	CAR	Vehicles	2	1	[0, 0, 0]	n/a	catFR1	0	R1472T
319.6	0.966	395503	WORD_OFF	n/a	n/a	CAR	Vehicles	2	1	[0, 0, 0]	n/a	catFR1	0	R1472T
320.566	1.601	396469	WORD	n/a	wordpools/wordpool_categorized_EN.txt	TRUMPET	Instruments	3	1	[0, 0, 0]	n/a	catFR1	0	R1472T
322.167	0.865	398069	WORD_OFF	n/a	n/a	TRUMPET	Instruments	3	1	[0, 0, 0]	n/a	catFR1	0	R1472T
323.032	1.601	398942	WORD	n/a	wordpools/wordpool_categorized_EN.txt	BASS	Instruments	4	1	[0, 0, 0]	n/a	catFR1	0	R1472T
324.633	0.833	400542	WORD_OFF	n/a	n/a	BASS	Instruments	4	1	[0, 0, 0]	n/a	catFR1	0	R1472T
325.466	1.6	401376	WORD	n/a	wordpools/wordpool_categorized_EN.txt	PETUNIA	Flowers	5	1	[0, 0, 0]	n/a	catFR1	0	R1472T
327.066	1.0	402976	WORD_OFF	n/a	n/a	PETUNIA	Flowers	5	1	[0, 0, 0]	n/a	catFR1	0	R1472T
328.066	1.6	403968	WORD	n/a	wordpools/wordpool_categorized_EN.txt	TULIP	Flowers	6	1	[0, 0, 0]	n/a	catFR1	0	R1472T
329.666	0.917	405568	WORD_OFF	n/a	n/a	TULIP	Flowers	6	1	[0, 0, 0]	n/a	catFR1	0	R1472T
330.583	1.6	406481	WORD	n/a	wordpools/wordpool_categorized_EN.txt	JEEP	Vehicles	7	1	[0, 0, 0]	n/a	catFR1	0	R1472T
332.183	0.783	408082	WORD_OFF	n/a	n/a	JEEP	Vehicles	7	1	[0, 0, 0]	n/a	catFR1	0	R1472T
332.966	1.6	408875	WORD	n/a	wordpools/wordpool_categorized_EN.txt	BOAT	Vehicles	8	1	[0, 0, 0]	n/a	catFR1	0	R1472T
334.566	0.767	410476	WORD_OFF	n/a	n/a	BOAT	Vehicles	8	1	[0, 0, 0]	n/a	catFR1	0	R1472T
335.333	1.6	411243	WORD	n/a	wordpools/wordpool_categorized_EN.txt	LILY	Flowers	9	1	[0, 0, 0]	n/a	catFR1	0	R1472T
336.933	0.8	412843	WORD_OFF	n/a	n/a	LILY	Flowers	9	1	[0, 0, 0]	n/a	catFR1	0	R1472T
337.733	1.617	413637	WORD	n/a	wordpools/wordpool_categorized_EN.txt	CARNATION	Flowers	10	1	[0, 0, 0]	n/a	catFR1	0	R1472T
339.35	0.9	415250	WORD_OFF	n/a	n/a	CARNATION	Flowers	10	1	[0, 0, 0]	n/a	catFR1	0	R1472T
340.25	1.617	416150	WORD	n/a	wordpools/wordpool_categorized_EN.txt	CELLO	Instruments	11	1	[0, 0, 0]	n/a	catFR1	0	R1472T
341.867	0.799	417763	WORD_OFF	n/a	n/a	CELLO	Instruments	11	1	[0, 0, 0]	n/a	catFR1	0	R1472T
342.666	1.617	418570	WORD	n/a	wordpools/wordpool_categorized_EN.txt	GUITAR	Instruments	12	1	[0, 0, 0]	n/a	catFR1	0	R1472T
344.283	0.001	420184	WORD_OFF	n/a	n/a	GUITAR	Instruments	12	1	[0, 0, 0]	n/a	catFR1	0	R1472T
344.284	0.0	420184	ENCODING_END	n/a	n/a	n/a	n/a	-999	1	[0, 0, 0]	n/a	catFR1	0	R1472T
344.284	0.001	420187	PROB	6.466	n/a	n/a	n/a	-999	1	[6, 5, 7]	18.0	catFR1	0	R1472T
344.285	0.0	420188	START	n/a	n/a	n/a	n/a	-999	1	[-999, -999, -999]	n/a	catFR1	0	R1472T
344.285	6.482	420197	DISTRACT_START	n/a	n/a	n/a	n/a	-999	1	[0, 0, 0]	n/a	catFR1	0	R1472T
350.767	5.383	426670	PROB	5.366	n/a	n/a	n/a	-999	1	[4, 5, 6]	15.0	catFR1	0	R1472T
356.15	3.55	432053	PROB	3.532	n/a	n/a	n/a	-999	1	[3, 8, 5]	16.0	catFR1	0	R1472T
359.7	4.467	435602	PROB	4.45	n/a	n/a	n/a	-999	1	[1, 8, 3]	12.0	catFR1	0	R1472T
364.167	3.166	440069	PROB	3.149	n/a	n/a	n/a	-999	1	[8, 2, 3]	13.0	catFR1	0	R1472T
367.333	0.0	443235	STOP	n/a	n/a	n/a	n/a	-999	1	[-999, -999, -999]	n/a	catFR1	0	R1472T
367.333	2.133	443238	DISTRACT_END	n/a	n/a	n/a	n/a	-999	1	[0, 0, 0]	n/a	catFR1	0	R1472T
369.466	1.51	445362	REC_START	n/a	n/a	n/a	n/a	-999	1	[0, 0, 0]	n/a	catFR1	0	R1472T
370.976	0.901	446878	REC_WORD	1.51	n/a	CAR	Vehicles	2	1	[0, 0, 0]	n/a	catFR1	0	R1472T
371.877	0.686	447779	REC_WORD_VV	2.411	n/a	<>	n/a	-999	1	[0, 0, 0]	n/a	catFR1	0	R1472T
372.563	0.999	448465	REC_WORD	3.097	n/a	STEREO	Electronics	-999	1	[0, 0, 0]	n/a	catFR1	0	R1472T
373.562	1.874	449464	REC_WORD	4.096	n/a	STEREO	Electronics	-999	1	[0, 0, 0]	n/a	catFR1	0	R1472T
375.436	1.44	451338	REC_WORD_VV	5.97	n/a	<>	n/a	-999	1	[0, 0, 0]	n/a	catFR1	0	R1472T
376.876	4.621	452778	REC_WORD	7.41	n/a	BOAT	Vehicles	8	1	[0, 0, 0]	n/a	catFR1	0	R1472T
381.497	2.457	457398	REC_WORD	12.031	n/a	SPEAKER	Electronics	-999	1	[0, 0, 0]	n/a	catFR1	0	R1472T
383.954	4.84	459855	REC_WORD	14.488	n/a	SCOOTER	Vehicles	1	1	[0, 0, 0]	n/a	catFR1	0	R1472T
388.794	2.911	464695	REC_WORD	19.328	n/a	TELEVISION	Electronics	-999	1	[0, 0, 0]	n/a	catFR1	0	R1472T
391.705	7.95	467606	REC_WORD	22.239	n/a	COMPUTER	Electronics	-999	1	[0, 0, 0]	n/a	catFR1	0	R1472T
399.655	4.012	475551	REC_END	n/a	n/a	n/a	n/a	-999	1	[0, 0, 0]	n/a	catFR1	0	R1472T
403.667	10.35	479572	COUNTDOWN_START	n/a	n/a	n/a	n/a	-999	2	[0, 0, 0]	n/a	catFR1	0	R1472T
414.017	0.0	489915	COUNTDOWN_END	n/a	n/a	n/a	n/a	-999	2	[0, 0, 0]	n/a	catFR1	0	R1472T
414.017	2.266	489915	ENCODING_START	n/a	n/a	n/a	n/a	-999	2	[0, 0, 0]	n/a	catFR1	0	R1472T
416.283	1.6	492177	WORD	n/a	wordpools/wordpool_categorized_EN.txt	COBBLER	Desserts	1	2	[0, 0, 0]	n/a	catFR1	0	R1472T
417.883	0.8	493777	WORD_OFF	n/a	n/a	COBBLER	Desserts	1	2	[0, 0, 0]	n/a	catFR1	0	R1472T
418.683	1.617	494584	WORD	n/a	wordpools/wordpool_categorized_EN.txt	FUDGE	Desserts	2	2	[0, 0, 0]	n/a	catFR1	0	R1472T
420.3	0.783	496197	WORD_OFF	n/a	n/a	FUDGE	Desserts	2	2	[0, 0, 0]	n/a	catFR1	0	R1472T
421.083	1.617	496978	WORD	n/a	wordpools/wordpool_categorized_EN.txt	STOVE	Appliances	3	2	[0, 0, 0]	n/a	catFR1	0	R1472T
422.7	0.799	498605	WORD_OFF	n/a	n/a	STOVE	Appliances	3	2	[0, 0, 0]	n/a	catFR1	0	R1472T
423.499	1.601	499398	WORD	n/a	wordpools/wordpool_categorized_EN.txt	FREEZER	Appliances	4	2	[0, 0, 0]	n/a	catFR1	0	R1472T
425.1	0.816	500999	WORD_OFF	n/a	n/a	FREEZER	Appliances	4	2	[0, 0, 0]	n/a	catFR1	0	R1472T
425.916	1.6	501819	WORD	n/a	wordpools/wordpool_categorized_EN.txt	PLANE	Vehicles	5	2	[0, 0, 0]	n/a	catFR1	0	R1472T
427.516	0.934	503419	WORD_OFF	n/a	n/a	PLANE	Vehicles	5	2	[0, 0, 0]	n/a	catFR1	0	R1472T
428.45	1.599	504345	WORD	n/a	wordpools/wordpool_categorized_EN.txt	BUS	Vehicles	6	2	[0, 0, 0]	n/a	catFR1	0	R1472T
430.049	0.934	505946	WORD_OFF	n/a	n/a	BUS	Vehicles	6	2	[0, 0, 0]	n/a	catFR1	0	R1472T
430.983	1.617	506885	WORD	n/a	wordpools/wordpool_categorized_EN.txt	CUPCAKE	Desserts	7	2	[0, 0, 0]	n/a	catFR1	0	R1472T
432.6	0.85	508498	WORD_OFF	n/a	n/a	CUPCAKE	Desserts	7	2	[0, 0, 0]	n/a	catFR1	0	R1472T
433.45	1.617	509345	WORD	n/a	wordpools/wordpool_categorized_EN.txt	BROWNIES	Desserts	8	2	[0, 0, 0]	n/a	catFR1	0	R1472T
435.067	0.883	510958	WORD_OFF	n/a	n/a	BROWNIES	Desserts	8	2	[0, 0, 0]	n/a	catFR1	0	R1472T
435.95	1.616	511845	WORD	n/a	wordpools/wordpool_categorized_EN.txt	IRON	Appliances	9	2	[0, 0, 0]	n/a	catFR1	0	R1472T
437.566	0.901	513472	WORD_OFF	n/a	n/a	IRON	Appliances	9	2	[0, 0, 0]	n/a	catFR1	0	R1472T
438.467	1.616	514371	WORD	n/a	wordpools/wordpool_categorized_EN.txt	MIXER	Appliances	10	2	[0, 0, 0]	n/a	catFR1	0	R1472T
440.083	0.817	515985	WORD_OFF	n/a	n/a	MIXER	Appliances	10	2	[0, 0, 0]	n/a	catFR1	0	R1472T
440.9	1.616	516791	WORD	n/a	wordpools/wordpool_categorized_EN.txt	TRAIN	Vehicles	11	2	[0, 0, 0]	n/a	catFR1	0	R1472T
442.516	0.867	518418	WORD_OFF	n/a	n/a	TRAIN	Vehicles	11	2	[0, 0, 0]	n/a	catFR1	0	R1472T
443.383	1.6	519278	WORD	n/a	wordpools/wordpool_categorized_EN.txt	TRUCK	Vehicles	12	2	[0, 0, 0]	n/a	catFR1	0	R1472T
444.983	0.002	520878	WORD_OFF	n/a	n/a	TRUCK	Vehicles	12	2	[0, 0, 0]	n/a	catFR1	0	R1472T
444.985	0.0	520878	ENCODING_END	n/a	n/a	n/a	n/a	-999	2	[0, 0, 0]	n/a	catFR1	0	R1472T
444.985	0.0	520878	DISTRACT_START	n/a	n/a	n/a	n/a	-999	2	[0, 0, 0]	n/a	catFR1	0	R1472T
444.984	0.001	520882	PROB	4.316	n/a	n/a	n/a	-999	2	[3, 5, 4]	12.0	catFR1	0	R1472T
444.985	4.332	520883	START	n/a	n/a	n/a	n/a	-999	2	[-999, -999, -999]	n/a	catFR1	0	R1472T
449.317	2.434	525215	PROB	2.416	n/a	n/a	n/a	-999	2	[6, 4, 1]	11.0	catFR1	0	R1472T
451.751	2.982	527649	PROB	2.966	n/a	n/a	n/a	-999	2	[1, 5, 4]	10.0	catFR1	0	R1472T
454.733	4.6	530631	PROB	4.583	n/a	n/a	n/a	-999	2	[3, 1, 4]	8.0	catFR1	0	R1472T
459.333	3.816	535230	PROB	3.798	n/a	n/a	n/a	-999	2	[1, 5, 4]	10.0	catFR1	0	R1472T
463.149	2.401	539046	PROB	2.384	n/a	n/a	n/a	-999	2	[2, 2, 8]	12.0	catFR1	0	R1472T
465.55	0.0	541446	DISTRACT_END	n/a	n/a	n/a	n/a	-999	2	[0, 0, 0]	n/a	catFR1	0	R1472T
465.55	2.216	541447	STOP	n/a	n/a	n/a	n/a	-999	2	[-999, -999, -999]	n/a	catFR1	0	R1472T
467.766	1.296	543663	REC_START	n/a	n/a	n/a	n/a	-999	2	[0, 0, 0]	n/a	catFR1	0	R1472T
469.062	1.168	544959	REC_WORD	1.296	n/a	CAR	Vehicles	-999	2	[0, 0, 0]	n/a	catFR1	0	R1472T
470.23	0.984	546127	REC_WORD	2.464	n/a	TRAIN	Vehicles	11	2	[0, 0, 0]	n/a	catFR1	0	R1472T
471.214	2.944	547111	REC_WORD	3.448	n/a	BOAT	Vehicles	-999	2	[0, 0, 0]	n/a	catFR1	0	R1472T
474.158	7.693	550055	REC_WORD_VV	6.392	n/a	<>	n/a	-999	2	[0, 0, 0]	n/a	catFR1	0	R1472T
481.851	0.951	557747	REC_WORD_VV	14.085	n/a	<>	n/a	-999	2	[0, 0, 0]	n/a	catFR1	0	R1472T
482.802	4.591	558698	REC_WORD_VV	15.036	n/a	<>	n/a	-999	2	[0, 0, 0]	n/a	catFR1	0	R1472T
487.393	0.771	563289	REC_WORD_VV	19.627	n/a	<>	n/a	-999	2	[0, 0, 0]	n/a	catFR1	0	R1472T
488.164	1.386	564060	REC_WORD	20.398	n/a	STOVE	Appliances	3	2	[0, 0, 0]	n/a	catFR1	0	R1472T
489.55	0.955	565446	REC_WORD	21.784	n/a	BROWNIES	Desserts	8	2	[0, 0, 0]	n/a	catFR1	0	R1472T
490.505	0.998	566401	REC_WORD	22.739	n/a	PETUNIAS	n/a	-999	2	[0, 0, 0]	n/a	catFR1	0	R1472T
491.503	0.683	567399	REC_WORD	23.737	n/a	PETUNIAS	n/a	-999	2	[0, 0, 0]	n/a	catFR1	0	R1472T
492.186	1.0	568082	REC_WORD	24.42	n/a	CARNATIONS	n/a	-999	2	[0, 0, 0]	n/a	catFR1	0	R1472T
493.186	0.009	569082	REC_WORD	25.42	n/a	CARNATIONS	n/a	-999	2	[0, 0, 0]	n/a	catFR1	0	R1472T
493.195	1.948	569091	REC_WORD	25.429	n/a	LILY	Flowers	-999	2	[0, 0, 0]	n/a	catFR1	0	R1472T
495.143	0.803	571039	REC_WORD_VV	27.377	n/a	<>	n/a	-999	2	[0, 0, 0]	n/a	catFR1	0	R1472T
495.946	0.501	571842	REC_WORD_VV	28.18	n/a	<>	n/a	-999	2	[0, 0, 0]	n/a	catFR1	0	R1472T
496.447	1.144	572343	REC_WORD	28.681	n/a	CUPCAKES	n/a	-999	2	[0, 0, 0]	n/a	catFR1	0	R1472T
497.591	0.4	573487	REC_WORD_VV	29.825	n/a	<>	n/a	-999	2	[0, 0, 0]	n/a	catFR1	0	R1472T
497.991	3.092	573891	REC_END	n/a	n/a	n/a	n/a	-999	2	[0, 0, 0]	n/a	catFR1	0	R1472T
501.083	10.35	576986	COUNTDOWN_START	n/a	n/a	n/a	n/a	-999	3	[0, 0, 0]	n/a	catFR1	0	R1472T
511.433	0.0	587329	COUNTDOWN_END	n/a	n/a	n/a	n/a	-999	3	[0, 0, 0]	n/a	catFR1	0	R1472T
511.433	2.067	587329	ENCODING_START	n/a	n/a	n/a	n/a	-999	3	[0, 0, 0]	n/a	catFR1	0	R1472T
513.5	1.6	589393	WORD	n/a	wordpools/wordpool_categorized_EN.txt	BALL	Toys	1	3	[0, 0, 0]	n/a	catFR1	0	R1472T
515.1	0.899	590993	WORD_OFF	n/a	n/a	BALL	Toys	1	3	[0, 0, 0]	n/a	catFR1	0	R1472T
515.999	1.6	591892	WORD	n/a	wordpools/wordpool_categorized_EN.txt	DOLLHOUSE	Toys	2	3	[0, 0, 0]	n/a	catFR1	0	R1472T
517.599	0.984	593493	WORD_OFF	n/a	n/a	DOLLHOUSE	Toys	2	3	[0, 0, 0]	n/a	catFR1	0	R1472T
518.583	1.6	594472	WORD	n/a	wordpools/wordpool_categorized_EN.txt	SANDER	Tools	3	3	[0, 0, 0]	n/a	catFR1	0	R1472T
520.183	0.967	596072	WORD_OFF	n/a	n/a	SANDER	Tools	3	3	[0, 0, 0]	n/a	catFR1	0	R1472T
521.15	1.6	597038	WORD	n/a	wordpools/wordpool_categorized_EN.txt	SAW	Tools	4	3	[0, 0, 0]	n/a	catFR1	0	R1472T
522.75	0.933	598638	WORD_OFF	n/a	n/a	SAW	Tools	4	3	[0, 0, 0]	n/a	catFR1	0	R1472T
523.683	1.617	599577	WORD	n/a	wordpools/wordpool_categorized_EN.txt	BULL	FarmAnimals	5	3	[0, 0, 0]	n/a	catFR1	0	R1472T
525.3	0.816	601191	WORD_OFF	n/a	n/a	BULL	FarmAnimals	5	3	[0, 0, 0]	n/a	catFR1	0	R1472T
526.116	1.6	602011	WORD	n/a	wordpools/wordpool_categorized_EN.txt	SHEEP	FarmAnimals	6	3	[0, 0, 0]	n/a	catFR1	0	R1472T
527.716	0.984	603611	WORD_OFF	n/a	n/a	SHEEP	FarmAnimals	6	3	[0, 0, 0]	n/a	catFR1	0	R1472T
528.7	1.6	604590	WORD	n/a	wordpools/wordpool_categorized_EN.txt	PLIERS	Tools	7	3	[0, 0, 0]	n/a	catFR1	0	R1472T
530.3	1.0	606190	WORD_OFF	n/a	n/a	PLIERS	Tools	7	3	[0, 0, 0]	n/a	catFR1	0	R1472T
531.3	1.616	607196	WORD	n/a	wordpools/wordpool_categorized_EN.txt	SHOVEL	Tools	8	3	[0, 0, 0]	n/a	catFR1	0	R1472T
532.916	0.984	608809	WORD_OFF	n/a	n/a	SHOVEL	Tools	8	3	[0, 0, 0]	n/a	catFR1	0	R1472T
533.9	1.617	609788	WORD	n/a	wordpools/wordpool_categorized_EN.txt	LAMB	FarmAnimals	9	3	[0, 0, 0]	n/a	catFR1	0	R1472T
535.517	0.866	611415	WORD_OFF	n/a	n/a	LAMB	FarmAnimals	9	3	[0, 0, 0]	n/a	catFR1	0	R1472T
536.383	1.6	612275	WORD	n/a	wordpools/wordpool_categorized_EN.txt	ROOSTER	FarmAnimals	10	3	[0, 0, 0]	n/a	catFR1	0	R1472T
537.983	0.967	613875	WORD_OFF	n/a	n/a	ROOSTER	FarmAnimals	10	3	[0, 0, 0]	n/a	catFR1	0	R1472T
538.95	1.6	614841	WORD	n/a	wordpools/wordpool_categorized_EN.txt	BARBIE	Toys	11	3	[0, 0, 0]	n/a	catFR1	0	R1472T
540.55	0.85	616441	WORD_OFF	n/a	n/a	BARBIE	Toys	11	3	[0, 0, 0]	n/a	catFR1	0	R1472T
541.4	1.6	617288	WORD	n/a	wordpools/wordpool_categorized_EN.txt	FOOTBALL	Toys	12	3	[0, 0, 0]	n/a	catFR1	0	R1472T
543.0	0.001	618888	WORD_OFF	n/a	n/a	FOOTBALL	Toys	12	3	[0, 0, 0]	n/a	catFR1	0	R1472T
543.001	0.0	618888	ENCODING_END	n/a	n/a	n/a	n/a	-999	3	[0, 0, 0]	n/a	catFR1	0	R1472T
543.0	0.002	618893	PROB	4.732	n/a	n/a	n/a	-999	3	[2, 7, 1]	10.0	catFR1	0	R1472T
543.002	0.0	618895	START	n/a	n/a	n/a	n/a	-999	3	[-999, -999, -999]	n/a	catFR1	0	R1472T
543.002	4.749	618901	DISTRACT_START	n/a	n/a	n/a	n/a	-999	3	[0, 0, 0]	n/a	catFR1	0	R1472T
547.751	2.566	623644	PROB	2.549	n/a	n/a	n/a	-999	3	[5, 5, 1]	11.0	catFR1	0	R1472T
550.317	3.6	626210	PROB	3.583	n/a	n/a	n/a	-999	3	[8, 8, 4]	20.0	catFR1	0	R1472T
553.917	3.516	629810	PROB	3.499	n/a	n/a	n/a	-999	3	[7, 5, 1]	13.0	catFR1	0	R1472T
557.433	4.967	633325	PROB	4.95	n/a	n/a	n/a	-999	3	[6, 6, 8]	20.0	catFR1	0	R1472T
562.4	3.515	638292	PROB	3.498	n/a	n/a	n/a	-999	3	[6, 1, 3]	10.0	catFR1	0	R1472T
565.915	0.0	641807	STOP	n/a	n/a	n/a	n/a	-999	3	[-999, -999, -999]	n/a	catFR1	0	R1472T
565.915	2.151	641810	DISTRACT_END	n/a	n/a	n/a	n/a	-999	3	[0, 0, 0]	n/a	catFR1	0	R1472T
568.066	0.791	643960	REC_START	n/a	n/a	n/a	n/a	-999	3	[0, 0, 0]	n/a	catFR1	0	R1472T
568.857	1.0	644749	REC_WORD	0.791	n/a	SANDER	Tools	3	3	[0, 0, 0]	n/a	catFR1	0	R1472T
569.857	0.412	645749	REC_WORD	1.791	n/a	SANDER	Tools	3	3	[0, 0, 0]	n/a	catFR1	0	R1472T
570.269	0.997	646161	REC_WORD	2.203	n/a	PLIERS	Tools	7	3	[0, 0, 0]	n/a	catFR1	0	R1472T
571.266	1.211	647158	REC_WORD	3.2	n/a	PLIERS	Tools	7	3	[0, 0, 0]	n/a	catFR1	0	R1472T
572.477	1.958	648369	REC_WORD_VV	4.411	n/a	<>	n/a	-999	3	[0, 0, 0]	n/a	catFR1	0	R1472T
574.435	1.243	650327	REC_WORD	6.369	n/a	BARBIE	Toys	11	3	[0, 0, 0]	n/a	catFR1	0	R1472T
575.678	2.664	651570	REC_WORD	7.612	n/a	DOLLHOUSE	Toys	2	3	[0, 0, 0]	n/a	catFR1	0	R1472T
578.342	19.957	654233	REC_WORD_VV	10.276	n/a	<>	n/a	-999	3	[0, 0, 0]	n/a	catFR1	0	R1472T
598.299	2.551	674189	REC_END	n/a	n/a	n/a	n/a	-999	3	[0, 0, 0]	n/a	catFR1	0	R1472T
600.85	10.349	676741	COUNTDOWN_START	n/a	n/a	n/a	n/a	-999	4	[0, 0, 0]	n/a	catFR1	0	R1472T
611.199	0.0	687085	COUNTDOWN_END	n/a	n/a	n/a	n/a	-999	4	[0, 0, 0]	n/a	catFR1	0	R1472T
611.199	2.034	687085	ENCODING_START	n/a	n/a	n/a	n/a	-999	4	[0, 0, 0]	n/a	catFR1	0	R1472T
613.233	1.6	689121	WORD	n/a	wordpools/wordpool_categorized_EN.txt	BIKE	Vehicles	1	4	[0, 0, 0]	n/a	catFR1	0	R1472T
614.833	0.983	690722	WORD_OFF	n/a	n/a	BIKE	Vehicles	1	4	[0, 0, 0]	n/a	catFR1	0	R1472T
615.816	1.617	691701	WORD	n/a	wordpools/wordpool_categorized_EN.txt	MOPED	Vehicles	2	4	[0, 0, 0]	n/a	catFR1	0	R1472T
617.433	0.867	693328	WORD_OFF	n/a	n/a	MOPED	Vehicles	2	4	[0, 0, 0]	n/a	catFR1	0	R1472T
618.3	1.616	694187	WORD	n/a	wordpools/wordpool_categorized_EN.txt	CARDINAL	Birds	3	4	[0, 0, 0]	n/a	catFR1	0	R1472T
619.916	1.0	695801	WORD_OFF	n/a	n/a	CARDINAL	Birds	3	4	[0, 0, 0]	n/a	catFR1	0	R1472T
620.916	1.6	696806	WORD	n/a	wordpools/wordpool_categorized_EN.txt	DOVE	Birds	4	4	[0, 0, 0]	n/a	catFR1	0	R1472T
622.516	0.983	698407	WORD_OFF	n/a	n/a	DOVE	Birds	4	4	[0, 0, 0]	n/a	catFR1	0	R1472T
623.499	1.601	699385	WORD	n/a	wordpools/wordpool_categorized_EN.txt	SPATULA	KitchenTools	5	4	[0, 0, 0]	n/a	catFR1	0	R1472T
625.1	0.95	700986	WORD_OFF	n/a	n/a	SPATULA	KitchenTools	5	4	[0, 0, 0]	n/a	catFR1	0	R1472T
626.05	1.6	701938	WORD	n/a	wordpools/wordpool_categorized_EN.txt	GRATER	KitchenTools	6	4	[0, 0, 0]	n/a	catFR1	0	R1472T
627.65	0.917	703539	WORD_OFF	n/a	n/a	GRATER	KitchenTools	6	4	[0, 0, 0]	n/a	catFR1	0	R1472T
628.567	1.599	704451	WORD	n/a	wordpools/wordpool_categorized_EN.txt	PIGEON	Birds	7	4	[0, 0, 0]	n/a	catFR1	0	R1472T
630.166	0.767	706052	WORD_OFF	n/a	n/a	PIGEON	Birds	7	4	[0, 0, 0]	n/a	catFR1	0	R1472T
630.933	1.6	706819	WORD	n/a	wordpools/wordpool_categorized_EN.txt	ROBIN	Birds	8	4	[0, 0, 0]	n/a	catFR1	0	R1472T
632.533	0.982	708419	WORD_OFF	n/a	n/a	ROBIN	Birds	8	4	[0, 0, 0]	n/a	catFR1	0	R1472T
633.515	1.616	709398	WORD	n/a	wordpools/wordpool_categorized_EN.txt	MOTORCYCLE	Vehicles	9	4	[0, 0, 0]	n/a	catFR1	0	R1472T
635.131	0.819	711025	WORD_OFF	n/a	n/a	MOTORCYCLE	Vehicles	9	4	[0, 0, 0]	n/a	catFR1	0	R1472T
635.95	1.6	711845	WORD	n/a	wordpools/wordpool_categorized_EN.txt	VAN	Vehicles	10	4	[0, 0, 0]	n/a	catFR1	0	R1472T
637.55	0.949	713432	WORD_OFF	n/a	n/a	VAN	Vehicles	10	4	[0, 0, 0]	n/a	catFR1	0	R1472T
638.499	1.601	714384	WORD	n/a	wordpools/wordpool_categorized_EN.txt	PEELER	KitchenTools	11	4	[0, 0, 0]	n/a	catFR1	0	R1472T
640.1	0.966	715985	WORD_OFF	n/a	n/a	PEELER	KitchenTools	11	4	[0, 0, 0]	n/a	catFR1	0	R1472T
641.066	1.618	716950	WORD	n/a	wordpools/wordpool_categorized_EN.txt	KNIFE	KitchenTools	12	4	[0, 0, 0]	n/a	catFR1	0	R1472T
642.684	0.0	718572	START	n/a	n/a	n/a	n/a	-999	4	[-999, -999, -999]	n/a	catFR1	0	R1472T
642.684	0.0	718572	PROB	3.849	n/a	n/a	n/a	-999	4	[3, 1, 8]	12.0	catFR1	0	R1472T
642.683	0.001	718577	WORD_OFF	n/a	n/a	KNIFE	KitchenTools	12	4	[0, 0, 0]	n/a	catFR1	0	R1472T
642.684	0.0	718577	ENCODING_END	n/a	n/a	n/a	n/a	-999	4	[0, 0, 0]	n/a	catFR1	0	R1472T
642.684	3.866	718577	DISTRACT_START	n/a	n/a	n/a	n/a	-999	4	[0, 0, 0]	n/a	catFR1	0	R1472T
646.55	7.234	722438	PROB	7.216	n/a	n/a	n/a	-999	4	[2, 8, 8]	18.0	catFR1	0	R1472T
653.784	3.7	729672	PROB	3.682	n/a	n/a	n/a	-999	4	[3, 3, 7]	13.0	catFR1	0	R1472T
657.484	2.666	733371	PROB	2.649	n/a	n/a	n/a	-999	4	[3, 3, 2]	8.0	catFR1	0	R1472T
660.15	3.333	736037	PROB	3.316	n/a	n/a	n/a	-999	4	[3, 8, 7]	18.0	catFR1	0	R1472T
663.483	0.0	739370	DISTRACT_END	n/a	n/a	n/a	n/a	-999	4	[0, 0, 0]	n/a	catFR1	0	R1472T
663.483	2.117	739370	STOP	n/a	n/a	n/a	n/a	-999	4	[-999, -999, -999]	n/a	catFR1	0	R1472T
665.6	1.449	741481	REC_START	n/a	n/a	n/a	n/a	-999	4	[0, 0, 0]	n/a	catFR1	0	R1472T
667.049	0.886	742936	REC_WORD	1.449	n/a	BIKE	Vehicles	1	4	[0, 0, 0]	n/a	catFR1	0	R1472T
667.935	0.924	743822	REC_WORD	2.335	n/a	MOPED	Vehicles	2	4	[0, 0, 0]	n/a	catFR1	0	R1472T
668.859	0.996	744746	REC_WORD	3.259	n/a	MOTORCYCLE	Vehicles	9	4	[0, 0, 0]	n/a	catFR1	0	R1472T
669.855	0.868	745742	REC_WORD	4.255	n/a	MOTORCYCLE	Vehicles	9	4	[0, 0, 0]	n/a	catFR1	0	R1472T
670.723	1.165	746610	REC_WORD	5.123	n/a	ROOSTER	FarmAnimals	-999	4	[0, 0, 0]	n/a	catFR1	0	R1472T
671.888	0.467	747775	REC_WORD_VV	6.288	n/a	<>	n/a	-999	4	[0, 0, 0]	n/a	catFR1	0	R1472T
672.355	1.002	748242	REC_WORD_VV	6.755	n/a	<>	n/a	-999	4	[0, 0, 0]	n/a	catFR1	0	R1472T
673.357	3.665	749244	REC_WORD_VV	7.757	n/a	<>	n/a	-999	4	[0, 0, 0]	n/a	catFR1	0	R1472T
677.022	0.447	752908	REC_WORD_VV	11.422	n/a	<>	n/a	-999	4	[0, 0, 0]	n/a	catFR1	0	R1472T
677.469	0.996	753355	REC_WORD	11.869	n/a	SPATULA	KitchenTools	5	4	[0, 0, 0]	n/a	catFR1	0	R1472T
678.465	1.195	754351	REC_WORD	12.865	n/a	SPATULA	KitchenTools	5	4	[0, 0, 0]	n/a	catFR1	0	R1472T
679.66	9.674	755546	REC_WORD_VV	14.06	n/a	<>	n/a	-999	4	[0, 0, 0]	n/a	catFR1	0	R1472T
689.334	0.385	765220	REC_WORD_VV	23.734	n/a	<>	n/a	-999	4	[0, 0, 0]	n/a	catFR1	0	R1472T
689.719	1.824	765605	REC_WORD	24.119	n/a	GRATER	KitchenTools	6	4	[0, 0, 0]	n/a	catFR1	0	R1472T
691.543	2.119	767429	REC_WORD_VV	25.943	n/a	<>	n/a	-999	4	[0, 0, 0]	n/a	catFR1	0	R1472T
693.662	1.001	769548	REC_WORD	28.062	n/a	MIXER	Appliances	-999	4	[0, 0, 0]	n/a	catFR1	0	R1472T
694.663	0.802	770549	REC_WORD	29.063	n/a	MIXER	Appliances	-999	4	[0, 0, 0]	n/a	catFR1	0	R1472T
695.465	0.366	771351	REC_WORD_VV	29.865	n/a	<>	n/a	-999	4	[0, 0, 0]	n/a	catFR1	0	R1472T
695.831	2.385	771722	REC_END	n/a	n/a	n/a	n/a	-999	4	[0, 0, 0]	n/a	catFR1	0	R1472T
698.216	10.351	774103	COUNTDOWN_START	n/a	n/a	n/a	n/a	-999	5	[0, 0, 0]	n/a	catFR1	0	R1472T
708.567	0.0	784446	COUNTDOWN_END	n/a	n/a	n/a	n/a	-999	5	[0, 0, 0]	n/a	catFR1	0	R1472T
708.567	2.316	784459	ENCODING_START	n/a	n/a	n/a	n/a	-999	5	[0, 0, 0]	n/a	catFR1	0	R1472T
710.883	1.6	786774	WORD	n/a	wordpools/wordpool_categorized_EN.txt	SPRUCE	Trees	1	5	[0, 0, 0]	n/a	catFR1	0	R1472T
712.483	0.9	788361	WORD_OFF	n/a	n/a	SPRUCE	Trees	1	5	[0, 0, 0]	n/a	catFR1	0	R1472T
713.383	1.6	789274	WORD	n/a	wordpools/wordpool_categorized_EN.txt	MAPLE	Trees	2	5	[0, 0, 0]	n/a	catFR1	0	R1472T
714.983	0.85	790874	WORD_OFF	n/a	n/a	MAPLE	Trees	2	5	[0, 0, 0]	n/a	catFR1	0	R1472T
715.833	1.617	791721	WORD	n/a	wordpools/wordpool_categorized_EN.txt	NOTEBOOK	OfficeSupplies	3	5	[0, 0, 0]	n/a	catFR1	0	R1472T
717.45	0.766	793334	WORD_OFF	n/a	n/a	NOTEBOOK	OfficeSupplies	3	5	[0, 0, 0]	n/a	catFR1	0	R1472T
718.216	1.601	794101	WORD	n/a	wordpools/wordpool_categorized_EN.txt	PAPER	OfficeSupplies	4	5	[0, 0, 0]	n/a	catFR1	0	R1472T
719.817	0.949	795702	WORD_OFF	n/a	n/a	PAPER	OfficeSupplies	4	5	[0, 0, 0]	n/a	catFR1	0	R1472T
720.766	1.601	796654	WORD	n/a	wordpools/wordpool_categorized_EN.txt	TONGS	KitchenTools	5	5	[0, 0, 0]	n/a	catFR1	0	R1472T
722.367	0.982	798255	WORD_OFF	n/a	n/a	TONGS	KitchenTools	5	5	[0, 0, 0]	n/a	catFR1	0	R1472T
723.349	1.601	799233	WORD	n/a	wordpools/wordpool_categorized_EN.txt	COLANDER	KitchenTools	6	5	[0, 0, 0]	n/a	catFR1	0	R1472T
724.95	0.85	800834	WORD_OFF	n/a	n/a	COLANDER	KitchenTools	6	5	[0, 0, 0]	n/a	catFR1	0	R1472T
725.8	1.616	801680	WORD	n/a	wordpools/wordpool_categorized_EN.txt	STAPLER	OfficeSupplies	7	5	[0, 0, 0]	n/a	catFR1	0	R1472T
727.416	0.984	803294	WORD_OFF	n/a	n/a	STAPLER	OfficeSupplies	7	5	[0, 0, 0]	n/a	catFR1	0	R1472T
728.4	1.6	804286	WORD	n/a	wordpools/wordpool_categorized_EN.txt	PENCIL	OfficeSupplies	8	5	[0, 0, 0]	n/a	catFR1	0	R1472T
730.0	0.783	805886	WORD_OFF	n/a	n/a	PENCIL	OfficeSupplies	8	5	[0, 0, 0]	n/a	catFR1	0	R1472T
730.783	1.6	806667	WORD	n/a	wordpools/wordpool_categorized_EN.txt	HICKORY	Trees	9	5	[0, 0, 0]	n/a	catFR1	0	R1472T
732.383	0.85	808267	WORD_OFF	n/a	n/a	HICKORY	Trees	9	5	[0, 0, 0]	n/a	catFR1	0	R1472T
733.233	1.6	809114	WORD	n/a	wordpools/wordpool_categorized_EN.txt	EVERGREEN	Trees	10	5	[0, 0, 0]	n/a	catFR1	0	R1472T
734.833	0.917	810714	WORD_OFF	n/a	n/a	EVERGREEN	Trees	10	5	[0, 0, 0]	n/a	catFR1	0	R1472T
735.75	1.6	811627	WORD	n/a	wordpools/wordpool_categorized_EN.txt	WHISK	KitchenTools	11	5	[0, 0, 0]	n/a	catFR1	0	R1472T
737.35	0.85	813227	WORD_OFF	n/a	n/a	WHISK	KitchenTools	11	5	[0, 0, 0]	n/a	catFR1	0	R1472T
738.2	1.617	814087	WORD	n/a	wordpools/wordpool_categorized_EN.txt	FORK	KitchenTools	12	5	[0, 0, 0]	n/a	catFR1	0	R1472T
739.817	0.0	815700	PROB	7.366	n/a	n/a	n/a	-999	5	[6, 7, 4]	17.0	catFR1	0	R1472T
739.816	0.002	815701	WORD_OFF	n/a	n/a	FORK	KitchenTools	12	5	[0, 0, 0]	n/a	catFR1	0	R1472T
739.818	0.0	815701	ENCODING_END	n/a	n/a	n/a	n/a	-999	5	[0, 0, 0]	n/a	catFR1	0	R1472T
739.818	0.0	815701	DISTRACT_START	n/a	n/a	n/a	n/a	-999	5	[0, 0, 0]	n/a	catFR1	0	R1472T
739.818	7.383	815701	START	n/a	n/a	n/a	n/a	-999	5	[-999, -999, -999]	n/a	catFR1	0	R1472T
747.201	3.766	823084	PROB	3.749	n/a	n/a	n/a	-999	5	[3, 2, 5]	10.0	catFR1	0	R1472T
750.967	2.966	826850	PROB	2.95	n/a	n/a	n/a	-999	5	[1, 6, 8]	15.0	catFR1	0	R1472T
753.933	3.501	829816	PROB	3.483	n/a	n/a	n/a	-999	5	[4, 7, 7]	19.0	catFR1	0	R1472T
757.434	4.916	833316	PROB	4.899	n/a	n/a	n/a	-999	5	[7, 6, 7]	20.0	catFR1	0	R1472T
762.35	0.0	838226	DISTRACT_END	n/a	n/a	n/a	n/a	-999	5	[0, 0, 0]	n/a	catFR1	0	R1472T
762.35	2.248	838232	STOP	n/a	n/a	n/a	n/a	-999	5	[-999, -999, -999]	n/a	catFR1	0	R1472T
764.598	2.003	840482	REC_START	n/a	n/a	n/a	n/a	-999	5	[0, 0, 0]	n/a	catFR1	0	R1472T
766.601	0.363	842483	REC_WORD_VV	2.003	n/a	<>	n/a	-999	5	[0, 0, 0]	n/a	catFR1	0	R1472T
766.964	1.357	842846	REC_WORD	2.366	n/a	FORK	KitchenTools	12	5	[0, 0, 0]	n/a	catFR1	0	R1472T
768.321	4.245	844203	REC_WORD_VV	3.723	n/a	<>	n/a	-999	5	[0, 0, 0]	n/a	catFR1	0	R1472T
772.566	0.34	848448	REC_WORD_VV	7.968	n/a	<>	n/a	-999	5	[0, 0, 0]	n/a	catFR1	0	R1472T
772.906	0.862	848788	REC_WORD	8.308	n/a	EVERGREEN	Trees	10	5	[0, 0, 0]	n/a	catFR1	0	R1472T
773.768	1.413	849650	REC_WORD	9.17	n/a	SPRUCE	Trees	1	5	[0, 0, 0]	n/a	catFR1	0	R1472T
775.181	4.39	851062	REC_WORD_VV	10.583	n/a	<>	n/a	-999	5	[0, 0, 0]	n/a	catFR1	0	R1472T
779.571	13.922	855452	REC_WORD_VV	14.973	n/a	<>	n/a	-999	5	[0, 0, 0]	n/a	catFR1	0	R1472T
793.493	1.338	869374	REC_WORD_VV	28.895	n/a	<>	n/a	-999	5	[0, 0, 0]	n/a	catFR1	0	R1472T
794.831	2.883	870710	REC_END	n/a	n/a	n/a	n/a	-999	5	[0, 0, 0]	n/a	catFR1	0	R1472T
797.714	10.352	873594	COUNTDOWN_START	n/a	n/a	n/a	n/a	-999	6	[0, 0, 0]	n/a	catFR1	0	R1472T
808.066	0.0	883950	COUNTDOWN_END	n/a	n/a	n/a	n/a	-999	6	[0, 0, 0]	n/a	catFR1	0	R1472T
808.066	2.3	883950	ENCODING_START	n/a	n/a	n/a	n/a	-999	6	[0, 0, 0]	n/a	catFR1	0	R1472T
810.366	1.601	886252	WORD	n/a	wordpools/wordpool_categorized_EN.txt	CORKSCREW	KitchenTools	1	6	[0, 0, 0]	n/a	catFR1	0	R1472T
811.967	1.0	887852	WORD_OFF	n/a	n/a	CORKSCREW	KitchenTools	1	6	[0, 0, 0]	n/a	catFR1	0	R1472T
812.967	1.616	888844	WORD	n/a	wordpools/wordpool_categorized_EN.txt	SPOON	KitchenTools	2	6	[0, 0, 0]	n/a	catFR1	0	R1472T
814.583	0.917	890458	WORD_OFF	n/a	n/a	SPOON	KitchenTools	2	6	[0, 0, 0]	n/a	catFR1	0	R1472T
815.5	1.616	891384	WORD	n/a	wordpools/wordpool_categorized_EN.txt	SCREWDRIVER	Tools	3	6	[0, 0, 0]	n/a	catFR1	0	R1472T
817.116	1.0	892997	WORD_OFF	n/a	n/a	SCREWDRIVER	Tools	3	6	[0, 0, 0]	n/a	catFR1	0	R1472T
818.116	1.6	893989	WORD	n/a	wordpools/wordpool_categorized_EN.txt	HAMMER	Tools	4	6	[0, 0, 0]	n/a	catFR1	0	R1472T
819.716	0.883	895590	WORD_OFF	n/a	n/a	HAMMER	Tools	4	6	[0, 0, 0]	n/a	catFR1	0	R1472T
820.599	1.601	896476	WORD	n/a	wordpools/wordpool_categorized_EN.txt	DOLPHIN	OceanAnimals	5	6	[0, 0, 0]	n/a	catFR1	0	R1472T
822.2	0.833	898076	WORD_OFF	n/a	n/a	DOLPHIN	OceanAnimals	5	6	[0, 0, 0]	n/a	catFR1	0	R1472T
823.033	1.615	898909	WORD	n/a	wordpools/wordpool_categorized_EN.txt	SQUID	OceanAnimals	6	6	[0, 0, 0]	n/a	catFR1	0	R1472T
824.648	0.785	900523	WORD_OFF	n/a	n/a	SQUID	OceanAnimals	6	6	[0, 0, 0]	n/a	catFR1	0	R1472T
825.433	1.6	901317	WORD	n/a	wordpools/wordpool_categorized_EN.txt	STRAINER	KitchenTools	7	6	[0, 0, 0]	n/a	catFR1	0	R1472T
827.033	0.9	902917	WORD_OFF	n/a	n/a	STRAINER	KitchenTools	7	6	[0, 0, 0]	n/a	catFR1	0	R1472T
827.933	1.6	903817	WORD	n/a	wordpools/wordpool_categorized_EN.txt	LADLE	KitchenTools	8	6	[0, 0, 0]	n/a	catFR1	0	R1472T
829.533	0.767	905417	WORD_OFF	n/a	n/a	LADLE	KitchenTools	8	6	[0, 0, 0]	n/a	catFR1	0	R1472T
830.3	1.616	906184	WORD	n/a	wordpools/wordpool_categorized_EN.txt	CROWBAR	Tools	9	6	[0, 0, 0]	n/a	catFR1	0	R1472T
831.916	0.95	907798	WORD_OFF	n/a	n/a	CROWBAR	Tools	9	6	[0, 0, 0]	n/a	catFR1	0	R1472T
832.866	1.617	908750	WORD	n/a	wordpools/wordpool_categorized_EN.txt	AXE	Tools	10	6	[0, 0, 0]	n/a	catFR1	0	R1472T
834.483	0.783	910364	WORD_OFF	n/a	n/a	AXE	Tools	10	6	[0, 0, 0]	n/a	catFR1	0	R1472T
835.266	1.617	911144	WORD	n/a	wordpools/wordpool_categorized_EN.txt	TURTLE	OceanAnimals	11	6	[0, 0, 0]	n/a	catFR1	0	R1472T
836.883	1.0	912758	WORD_OFF	n/a	n/a	TURTLE	OceanAnimals	11	6	[0, 0, 0]	n/a	catFR1	0	R1472T
837.883	1.601	913763	WORD	n/a	wordpools/wordpool_categorized_EN.txt	SHRIMP	OceanAnimals	12	6	[0, 0, 0]	n/a	catFR1	0	R1472T
839.484	0.0	915362	PROB	7.732	n/a	n/a	n/a	-999	6	[3, 7, 3]	13.0	catFR1	0	R1472T
839.483	0.002	915363	WORD_OFF	n/a	n/a	SHRIMP	OceanAnimals	12	6	[0, 0, 0]	n/a	catFR1	0	R1472T
839.485	0.0	915363	ENCODING_END	n/a	n/a	n/a	n/a	-999	6	[0, 0, 0]	n/a	catFR1	0	R1472T
839.485	0.0	915363	DISTRACT_START	n/a	n/a	n/a	n/a	-999	6	[0, 0, 0]	n/a	catFR1	0	R1472T
839.485	7.749	915363	START	n/a	n/a	n/a	n/a	-999	6	[-999, -999, -999]	n/a	catFR1	0	R1472T
847.234	3.15	923112	PROB	3.133	n/a	n/a	n/a	-999	6	[1, 4, 1]	6.0	catFR1	0	R1472T
850.384	4.649	926262	PROB	4.633	n/a	n/a	n/a	-999	6	[7, 6, 3]	16.0	catFR1	0	R1472T
855.033	3.317	930910	PROB	3.299	n/a	n/a	n/a	-999	6	[1, 3, 4]	8.0	catFR1	0	R1472T
858.35	2.7	934227	PROB	2.683	n/a	n/a	n/a	-999	6	[7, 2, 8]	17.0	catFR1	0	R1472T
861.05	0.0	936923	DISTRACT_END	n/a	n/a	n/a	n/a	-999	6	[0, 0, 0]	n/a	catFR1	0	R1472T
861.05	2.066	936927	STOP	n/a	n/a	n/a	n/a	-999	6	[-999, -999, -999]	n/a	catFR1	0	R1472T
863.116	1.037	938994	REC_START	n/a	n/a	n/a	n/a	-999	6	[0, 0, 0]	n/a	catFR1	0	R1472T
864.153	0.954	940030	REC_WORD	1.037	n/a	CORKSCREW	KitchenTools	1	6	[0, 0, 0]	n/a	catFR1	0	R1472T
865.107	1.002	940984	REC_WORD	1.991	n/a	SCREWDRIVER	Tools	3	6	[0, 0, 0]	n/a	catFR1	0	R1472T
866.109	1.825	941986	REC_WORD	2.993	n/a	SCREWDRIVER	Tools	3	6	[0, 0, 0]	n/a	catFR1	0	R1472T
867.934	1.432	943811	REC_WORD	4.818	n/a	CROWBAR	Tools	9	6	[0, 0, 0]	n/a	catFR1	0	R1472T
869.366	1.155	945243	REC_WORD	6.25	n/a	AXE	Tools	10	6	[0, 0, 0]	n/a	catFR1	0	R1472T
870.521	2.428	946398	REC_WORD	7.405	n/a	HAMMER	Tools	4	6	[0, 0, 0]	n/a	catFR1	0	R1472T
872.949	3.439	948826	REC_WORD_VV	9.833	n/a	<>	n/a	-999	6	[0, 0, 0]	n/a	catFR1	0	R1472T
876.388	1.0	952264	REC_WORD	13.272	n/a	LADLE	KitchenTools	8	6	[0, 0, 0]	n/a	catFR1	0	R1472T
877.388	0.668	953264	REC_WORD	14.272	n/a	LADLE	KitchenTools	8	6	[0, 0, 0]	n/a	catFR1	0	R1472T
878.056	13.679	953932	REC_WORD_VV	14.94	n/a	<>	n/a	-999	6	[0, 0, 0]	n/a	catFR1	0	R1472T
891.735	1.0	967611	REC_WORD_VV	28.619	n/a	<>	n/a	-999	6	[0, 0, 0]	n/a	catFR1	0	R1472T
892.735	0.628	968611	REC_WORD_VV	29.619	n/a	<>	n/a	-999	6	[0, 0, 0]	n/a	catFR1	0	R1472T
893.363	1.919	969236	REC_END	n/a	n/a	n/a	n/a	-999	6	[0, 0, 0]	n/a	catFR1	0	R1472T
895.282	10.351	971153	COUNTDOWN_START	n/a	n/a	n/a	n/a	-999	7	[0, 0, 0]	n/a	catFR1	0	R1472T
905.633	0.0	981510	COUNTDOWN_END	n/a	n/a	n/a	n/a	-999	7	[0, 0, 0]	n/a	catFR1	0	R1472T
905.633	2.166	981510	ENCODING_START	n/a	n/a	n/a	n/a	-999	7	[0, 0, 0]	n/a	catFR1	0	R1472T
907.799	1.6	983679	WORD	n/a	wordpools/wordpool_categorized_EN.txt	JELLYFISH	OceanAnimals	1	7	[0, 0, 0]	n/a	catFR1	0	R1472T
909.399	0.901	985280	WORD_OFF	n/a	n/a	JELLYFISH	OceanAnimals	1	7	[0, 0, 0]	n/a	catFR1	0	R1472T
910.3	1.616	986179	WORD	n/a	wordpools/wordpool_categorized_EN.txt	WHALE	OceanAnimals	2	7	[0, 0, 0]	n/a	catFR1	0	R1472T
911.916	0.8	987793	WORD_OFF	n/a	n/a	WHALE	OceanAnimals	2	7	[0, 0, 0]	n/a	catFR1	0	R1472T
912.716	1.618	988586	WORD	n/a	wordpools/wordpool_categorized_EN.txt	ORGAN	Instruments	3	7	[0, 0, 0]	n/a	catFR1	0	R1472T
914.334	0.865	990213	WORD_OFF	n/a	n/a	ORGAN	Instruments	3	7	[0, 0, 0]	n/a	catFR1	0	R1472T
915.199	1.616	991073	WORD	n/a	wordpools/wordpool_categorized_EN.txt	TUBA	Instruments	4	7	[0, 0, 0]	n/a	catFR1	0	R1472T
916.815	0.785	992686	WORD_OFF	n/a	n/a	TUBA	Instruments	4	7	[0, 0, 0]	n/a	catFR1	0	R1472T
917.6	1.6	993480	WORD	n/a	wordpools/wordpool_categorized_EN.txt	BEE	Insects	5	7	[0, 0, 0]	n/a	catFR1	0	R1472T
919.2	0.8	995080	WORD_OFF	n/a	n/a	BEE	Insects	5	7	[0, 0, 0]	n/a	catFR1	0	R1472T
920.0	1.6	995874	WORD	n/a	wordpools/wordpool_categorized_EN.txt	FLY	Insects	6	7	[0, 0, 0]	n/a	catFR1	0	R1472T
921.6	0.9	997474	WORD_OFF	n/a	n/a	FLY	Insects	6	7	[0, 0, 0]	n/a	catFR1	0	R1472T
922.5	1.6	998374	WORD	n/a	wordpools/wordpool_categorized_EN.txt	DRUM	Instruments	7	7	[0, 0, 0]	n/a	catFR1	0	R1472T
924.1	0.983	999974	WORD_OFF	n/a	n/a	DRUM	Instruments	7	7	[0, 0, 0]	n/a	catFR1	0	R1472T
925.083	1.6	1000953	WORD	n/a	wordpools/wordpool_categorized_EN.txt	VIOLIN	Instruments	8	7	[0, 0, 0]	n/a	catFR1	0	R1472T
926.683	0.933	1002554	WORD_OFF	n/a	n/a	VIOLIN	Instruments	8	7	[0, 0, 0]	n/a	catFR1	0	R1472T
927.616	1.6	1003493	WORD	n/a	wordpools/wordpool_categorized_EN.txt	LOBSTER	OceanAnimals	9	7	[0, 0, 0]	n/a	catFR1	0	R1472T
929.216	0.767	1005093	WORD_OFF	n/a	n/a	LOBSTER	OceanAnimals	9	7	[0, 0, 0]	n/a	catFR1	0	R1472T
929.983	1.6	1005860	WORD	n/a	wordpools/wordpool_categorized_EN.txt	OCTOPUS	OceanAnimals	10	7	[0, 0, 0]	n/a	catFR1	0	R1472T
931.583	0.8	1007461	WORD_OFF	n/a	n/a	OCTOPUS	OceanAnimals	10	7	[0, 0, 0]	n/a	catFR1	0	R1472T
932.383	1.617	1008254	WORD	n/a	wordpools/wordpool_categorized_EN.txt	LADYBUG	Insects	11	7	[0, 0, 0]	n/a	catFR1	0	R1472T
934.0	0.95	1009868	WORD_OFF	n/a	n/a	LADYBUG	Insects	11	7	[0, 0, 0]	n/a	catFR1	0	R1472T
934.95	1.6	1010820	WORD	n/a	wordpools/wordpool_categorized_EN.txt	BEETLE	Insects	12	7	[0, 0, 0]	n/a	catFR1	0	R1472T
936.55	0.001	1012421	WORD_OFF	n/a	n/a	BEETLE	Insects	12	7	[0, 0, 0]	n/a	catFR1	0	R1472T
936.551	0.0	1012421	ENCODING_END	n/a	n/a	n/a	n/a	-999	7	[0, 0, 0]	n/a	catFR1	0	R1472T
936.551	0.0	1012421	DISTRACT_START	n/a	n/a	n/a	n/a	-999	7	[0, 0, 0]	n/a	catFR1	0	R1472T
936.551	0.0	1012424	START	n/a	n/a	n/a	n/a	-999	7	[-999, -999, -999]	n/a	catFR1	0	R1472T
936.551	3.816	1012424	PROB	3.799	n/a	n/a	n/a	-999	7	[1, 1, 6]	8.0	catFR1	0	R1472T
940.367	3.233	1016240	PROB	3.216	n/a	n/a	n/a	-999	7	[2, 3, 1]	6.0	catFR1	0	R1472T
943.6	4.1	1019473	PROB	4.082	n/a	n/a	n/a	-999	7	[8, 4, 5]	17.0	catFR1	0	R1472T
947.7	3.833	1023573	PROB	3.816	n/a	n/a	n/a	-999	7	[8, 6, 5]	19.0	catFR1	0	R1472T
951.533	3.55	1027406	PROB	3.533	n/a	n/a	n/a	-999	7	[3, 8, 6]	19.0	catFR1	0	R1472T
955.083	6.0	1030955	PROB	5.983	n/a	n/a	n/a	-999	7	[8, 4, 8]	20.0	catFR1	0	R1472T
961.083	0.0	1036955	STOP	n/a	n/a	n/a	n/a	-999	7	[-999, -999, -999]	n/a	catFR1	0	R1472T
961.083	2.134	1036956	DISTRACT_END	n/a	n/a	n/a	n/a	-999	7	[0, 0, 0]	n/a	catFR1	0	R1472T
963.217	2.42	1039094	REC_START	n/a	n/a	n/a	n/a	-999	7	[0, 0, 0]	n/a	catFR1	0	R1472T
965.637	1.0	1041509	REC_WORD_VV	2.42	n/a	<>	n/a	-999	7	[0, 0, 0]	n/a	catFR1	0	R1472T
966.637	1.0	1042509	REC_WORD_VV	3.42	n/a	<>	n/a	-999	7	[0, 0, 0]	n/a	catFR1	0	R1472T
967.637	3.187	1043509	REC_WORD_VV	4.42	n/a	<>	n/a	-999	7	[0, 0, 0]	n/a	catFR1	0	R1472T
970.824	0.999	1046696	REC_WORD	7.607	n/a	SQUID	OceanAnimals	-999	7	[0, 0, 0]	n/a	catFR1	0	R1472T
971.823	0.28	1047695	REC_WORD	8.606	n/a	SQUID	OceanAnimals	-999	7	[0, 0, 0]	n/a	catFR1	0	R1472T
972.103	1.0	1047975	REC_WORD	8.886	n/a	WHALE	OceanAnimals	2	7	[0, 0, 0]	n/a	catFR1	0	R1472T
973.103	0.309	1048974	REC_WORD	9.886	n/a	WHALE	OceanAnimals	2	7	[0, 0, 0]	n/a	catFR1	0	R1472T
973.412	1.0	1049283	REC_WORD	10.195	n/a	OCTOPUS	OceanAnimals	10	7	[0, 0, 0]	n/a	catFR1	0	R1472T
974.412	1.338	1050283	REC_WORD	11.195	n/a	OCTOPUS	OceanAnimals	10	7	[0, 0, 0]	n/a	catFR1	0	R1472T
975.75	0.999	1051621	REC_WORD_VV	12.533	n/a	<>	n/a	-999	7	[0, 0, 0]	n/a	catFR1	0	R1472T
976.749	0.51	1052620	REC_WORD_VV	13.532	n/a	<>	n/a	-999	7	[0, 0, 0]	n/a	catFR1	0	R1472T
977.259	2.617	1053130	REC_WORD	14.042	n/a	SHRIMP	OceanAnimals	-999	7	[0, 0, 0]	n/a	catFR1	0	R1472T
979.876	9.041	1055747	REC_WORD_VV	16.659	n/a	<>	n/a	-999	7	[0, 0, 0]	n/a	catFR1	0	R1472T
988.917	1.0	1064788	REC_WORD	25.7	n/a	MOTH	n/a	-999	7	[0, 0, 0]	n/a	catFR1	0	R1472T
989.917	0.617	1065788	REC_WORD	26.7	n/a	MOTH	n/a	-999	7	[0, 0, 0]	n/a	catFR1	0	R1472T
990.534	2.916	1066405	REC_WORD_VV	27.317	n/a	<>	n/a	-999	7	[0, 0, 0]	n/a	catFR1	0	R1472T
993.45	2.366	1069322	REC_END	n/a	n/a	n/a	n/a	-999	7	[0, 0, 0]	n/a	catFR1	0	R1472T
995.816	10.35	1071689	COUNTDOWN_START	n/a	n/a	n/a	n/a	-999	8	[0, 0, 0]	n/a	catFR1	0	R1472T
1006.166	0.0	1082032	COUNTDOWN_END	n/a	n/a	n/a	n/a	-999	8	[0, 0, 0]	n/a	catFR1	0	R1472T
1006.166	2.017	1082032	ENCODING_START	n/a	n/a	n/a	n/a	-999	8	[0, 0, 0]	n/a	catFR1	0	R1472T
1008.183	1.616	1084056	WORD	n/a	wordpools/wordpool_categorized_EN.txt	ISLAND	Landscapes	1	8	[0, 0, 0]	n/a	catFR1	0	R1472T
1009.799	0.984	1085670	WORD_OFF	n/a	n/a	ISLAND	Landscapes	1	8	[0, 0, 0]	n/a	catFR1	0	R1472T
1010.783	1.6	1086649	WORD	n/a	wordpools/wordpool_categorized_EN.txt	LAKE	Landscapes	2	8	[0, 0, 0]	n/a	catFR1	0	R1472T
1012.383	0.783	1088249	WORD_OFF	n/a	n/a	LAKE	Landscapes	2	8	[0, 0, 0]	n/a	catFR1	0	R1472T
1013.166	1.6	1089029	WORD	n/a	wordpools/wordpool_categorized_EN.txt	PEAR	Fruit	3	8	[0, 0, 0]	n/a	catFR1	0	R1472T
1014.766	0.834	1090630	WORD_OFF	n/a	n/a	PEAR	Fruit	3	8	[0, 0, 0]	n/a	catFR1	0	R1472T
1015.6	1.6	1091463	WORD	n/a	wordpools/wordpool_categorized_EN.txt	BANANA	Fruit	4	8	[0, 0, 0]	n/a	catFR1	0	R1472T
1017.2	0.883	1093064	WORD_OFF	n/a	n/a	BANANA	Fruit	4	8	[0, 0, 0]	n/a	catFR1	0	R1472T
1018.083	1.616	1093950	WORD	n/a	wordpools/wordpool_categorized_EN.txt	TAPE	OfficeSupplies	5	8	[0, 0, 0]	n/a	catFR1	0	R1472T
1019.699	0.884	1095563	WORD_OFF	n/a	n/a	TAPE	OfficeSupplies	5	8	[0, 0, 0]	n/a	catFR1	0	R1472T
1020.583	1.6	1096450	WORD	n/a	wordpools/wordpool_categorized_EN.txt	FOLDER	OfficeSupplies	6	8	[0, 0, 0]	n/a	catFR1	0	R1472T
1022.183	0.834	1098050	WORD_OFF	n/a	n/a	FOLDER	OfficeSupplies	6	8	[0, 0, 0]	n/a	catFR1	0	R1472T
1023.017	1.615	1098883	WORD	n/a	wordpools/wordpool_categorized_EN.txt	CREEK	Landscapes	7	8	[0, 0, 0]	n/a	catFR1	0	R1472T
1024.632	0.967	1100497	WORD_OFF	n/a	n/a	CREEK	Landscapes	7	8	[0, 0, 0]	n/a	catFR1	0	R1472T
1025.599	1.601	1101462	WORD	n/a	wordpools/wordpool_categorized_EN.txt	WOODS	Landscapes	8	8	[0, 0, 0]	n/a	catFR1	0	R1472T
1027.2	0.767	1103063	WORD_OFF	n/a	n/a	WOODS	Landscapes	8	8	[0, 0, 0]	n/a	catFR1	0	R1472T
1027.967	1.616	1103830	WORD	n/a	wordpools/wordpool_categorized_EN.txt	GLUE	OfficeSupplies	9	8	[0, 0, 0]	n/a	catFR1	0	R1472T
1029.583	0.883	1105457	WORD_OFF	n/a	n/a	GLUE	OfficeSupplies	9	8	[0, 0, 0]	n/a	catFR1	0	R1472T
1030.466	1.6	1106330	WORD	n/a	wordpools/wordpool_categorized_EN.txt	ERASER	OfficeSupplies	10	8	[0, 0, 0]	n/a	catFR1	0	R1472T
1032.066	0.783	1107930	WORD_OFF	n/a	n/a	ERASER	OfficeSupplies	10	8	[0, 0, 0]	n/a	catFR1	0	R1472T
1032.849	1.6	1108711	WORD	n/a	wordpools/wordpool_categorized_EN.txt	APPLE	Fruit	11	8	[0, 0, 0]	n/a	catFR1	0	R1472T
1034.449	0.951	1110324	WORD_OFF	n/a	n/a	APPLE	Fruit	11	8	[0, 0, 0]	n/a	catFR1	0	R1472T
1035.4	1.617	1111263	WORD	n/a	wordpools/wordpool_categorized_EN.txt	GRAPE	Fruit	12	8	[0, 0, 0]	n/a	catFR1	0	R1472T
1037.017	0.001	1112885	PROB	3.516	n/a	n/a	n/a	-999	8	[8, 7, 2]	17.0	catFR1	0	R1472T
1037.018	0.0	1112886	START	n/a	n/a	n/a	n/a	-999	8	[-999, -999, -999]	n/a	catFR1	0	R1472T
1037.017	0.001	1112890	WORD_OFF	n/a	n/a	GRAPE	Fruit	12	8	[0, 0, 0]	n/a	catFR1	0	R1472T
1037.018	0.0	1112890	ENCODING_END	n/a	n/a	n/a	n/a	-999	8	[0, 0, 0]	n/a	catFR1	0	R1472T
1037.018	3.533	1112890	DISTRACT_START	n/a	n/a	n/a	n/a	-999	8	[0, 0, 0]	n/a	catFR1	0	R1472T
1040.551	6.833	1116419	PROB	6.815	n/a	n/a	n/a	-999	8	[6, 5, 3]	14.0	catFR1	0	R1472T
1047.384	4.066	1123252	PROB	4.048	n/a	n/a	n/a	-999	8	[6, 5, 3]	14.0	catFR1	0	R1472T
1051.45	2.45	1127317	PROB	2.433	n/a	n/a	n/a	-999	8	[8, 5, 5]	18.0	catFR1	0	R1472T
1053.9	3.95	1129767	PROB	3.933	n/a	n/a	n/a	-999	8	[3, 5, 2]	10.0	catFR1	0	R1472T
1057.85	0.0	1133717	STOP	n/a	n/a	n/a	n/a	-999	8	[-999, -999, -999]	n/a	catFR1	0	R1472T
1057.85	2.316	1133722	DISTRACT_END	n/a	n/a	n/a	n/a	-999	8	[0, 0, 0]	n/a	catFR1	0	R1472T
1060.166	2.342	1136032	REC_START	n/a	n/a	n/a	n/a	-999	8	[0, 0, 0]	n/a	catFR1	0	R1472T
1062.508	0.493	1138375	REC_WORD_VV	2.342	n/a	<>	n/a	-999	8	[0, 0, 0]	n/a	catFR1	0	R1472T
1063.001	1.002	1138868	REC_WORD	2.835	n/a	LAKE	Landscapes	2	8	[0, 0, 0]	n/a	catFR1	0	R1472T
1064.003	0.391	1139870	REC_WORD	3.837	n/a	LAKE	Landscapes	2	8	[0, 0, 0]	n/a	catFR1	0	R1472T
1064.394	0.618	1140261	REC_WORD	4.228	n/a	OCEAN	n/a	-999	8	[0, 0, 0]	n/a	catFR1	0	R1472T
1065.012	1.852	1140879	REC_WORD	4.846	n/a	ISLAND	Landscapes	1	8	[0, 0, 0]	n/a	catFR1	0	R1472T
1066.864	9.319	1142731	REC_WORD_VV	6.698	n/a	<>	n/a	-999	8	[0, 0, 0]	n/a	catFR1	0	R1472T
1076.183	1.0	1152049	REC_WORD_VV	16.017	n/a	<>	n/a	-999	8	[0, 0, 0]	n/a	catFR1	0	R1472T
1077.183	0.401	1153049	REC_WORD_VV	17.017	n/a	<>	n/a	-999	8	[0, 0, 0]	n/a	catFR1	0	R1472T
1077.584	3.013	1153450	REC_WORD	17.418	n/a	TREE	n/a	-999	8	[0, 0, 0]	n/a	catFR1	0	R1472T
1080.597	1.003	1156463	REC_WORD_VV	20.431	n/a	<>	n/a	-999	8	[0, 0, 0]	n/a	catFR1	0	R1472T
1081.6	4.186	1157466	REC_WORD_VV	21.434	n/a	<>	n/a	-999	8	[0, 0, 0]	n/a	catFR1	0	R1472T
1085.786	1.0	1161652	REC_WORD	25.62	n/a	FOLDER	OfficeSupplies	6	8	[0, 0, 0]	n/a	catFR1	0	R1472T
1086.786	0.368	1162652	REC_WORD	26.62	n/a	FOLDER	OfficeSupplies	6	8	[0, 0, 0]	n/a	catFR1	0	R1472T
1087.154	0.775	1163020	REC_WORD_VV	26.988	n/a	<>	n/a	-999	8	[0, 0, 0]	n/a	catFR1	0	R1472T
1087.929	1.892	1163795	REC_WORD	27.763	n/a	STAPLER	OfficeSupplies	-999	8	[0, 0, 0]	n/a	catFR1	0	R1472T
1089.821	0.576	1165687	REC_WORD_VV	29.655	n/a	<>	n/a	-999	8	[0, 0, 0]	n/a	catFR1	0	R1472T
1090.397	5.053	1166260	REC_END	n/a	n/a	n/a	n/a	-999	8	[0, 0, 0]	n/a	catFR1	0	R1472T
1095.45	10.349	1171312	COUNTDOWN_START	n/a	n/a	n/a	n/a	-999	9	[0, 0, 0]	n/a	catFR1	0	R1472T
1105.799	0.0	1181669	COUNTDOWN_END	n/a	n/a	n/a	n/a	-999	9	[0, 0, 0]	n/a	catFR1	0	R1472T
1105.799	2.1	1181669	ENCODING_START	n/a	n/a	n/a	n/a	-999	9	[0, 0, 0]	n/a	catFR1	0	R1472T
1107.899	1.6	1183759	WORD	n/a	wordpools/wordpool_categorized_EN.txt	MARKER	OfficeSupplies	1	9	[0, 0, 0]	n/a	catFR1	0	R1472T
1109.499	0.883	1185359	WORD_OFF	n/a	n/a	MARKER	OfficeSupplies	1	9	[0, 0, 0]	n/a	catFR1	0	R1472T
1110.382	1.601	1186245	WORD	n/a	wordpools/wordpool_categorized_EN.txt	BINDER	OfficeSupplies	2	9	[0, 0, 0]	n/a	catFR1	0	R1472T
1111.983	0.95	1187846	WORD_OFF	n/a	n/a	BINDER	OfficeSupplies	2	9	[0, 0, 0]	n/a	catFR1	0	R1472T
1112.933	1.6	1188798	WORD	n/a	wordpools/wordpool_categorized_EN.txt	CHEETAH	Zoo	3	9	[0, 0, 0]	n/a	catFR1	0	R1472T
1114.533	0.966	1190398	WORD_OFF	n/a	n/a	CHEETAH	Zoo	3	9	[0, 0, 0]	n/a	catFR1	0	R1472T
1115.499	1.601	1191364	WORD	n/a	wordpools/wordpool_categorized_EN.txt	PANDA	Zoo	4	9	[0, 0, 0]	n/a	catFR1	0	R1472T
1117.1	0.767	1192964	WORD_OFF	n/a	n/a	PANDA	Zoo	4	9	[0, 0, 0]	n/a	catFR1	0	R1472T
1117.867	1.599	1193732	WORD	n/a	wordpools/wordpool_categorized_EN.txt	VALLEY	Landscapes	5	9	[0, 0, 0]	n/a	catFR1	0	R1472T
1119.466	0.933	1195332	WORD_OFF	n/a	n/a	VALLEY	Landscapes	5	9	[0, 0, 0]	n/a	catFR1	0	R1472T
1120.399	1.601	1196258	WORD	n/a	wordpools/wordpool_categorized_EN.txt	OCEAN	Landscapes	6	9	[0, 0, 0]	n/a	catFR1	0	R1472T
1122.0	0.867	1197858	WORD_OFF	n/a	n/a	OCEAN	Landscapes	6	9	[0, 0, 0]	n/a	catFR1	0	R1472T
1122.867	1.6	1198731	WORD	n/a	wordpools/wordpool_categorized_EN.txt	GIRAFFE	Zoo	7	9	[0, 0, 0]	n/a	catFR1	0	R1472T
1124.467	0.933	1200332	WORD_OFF	n/a	n/a	GIRAFFE	Zoo	7	9	[0, 0, 0]	n/a	catFR1	0	R1472T
1125.4	1.6	1201258	WORD	n/a	wordpools/wordpool_categorized_EN.txt	TIGER	Zoo	8	9	[0, 0, 0]	n/a	catFR1	0	R1472T
1127.0	0.933	1202858	WORD_OFF	n/a	n/a	TIGER	Zoo	8	9	[0, 0, 0]	n/a	catFR1	0	R1472T
1127.933	1.6	1203797	WORD	n/a	wordpools/wordpool_categorized_EN.txt	BEACH	Landscapes	9	9	[0, 0, 0]	n/a	catFR1	0	R1472T
1129.533	0.916	1205397	WORD_OFF	n/a	n/a	BEACH	Landscapes	9	9	[0, 0, 0]	n/a	catFR1	0	R1472T
1130.449	1.617	1206310	WORD	n/a	wordpools/wordpool_categorized_EN.txt	FOREST	Landscapes	10	9	[0, 0, 0]	n/a	catFR1	0	R1472T
1132.066	0.9	1207924	WORD_OFF	n/a	n/a	FOREST	Landscapes	10	9	[0, 0, 0]	n/a	catFR1	0	R1472T
1132.966	1.617	1208823	WORD	n/a	wordpools/wordpool_categorized_EN.txt	PEN	OfficeSupplies	11	9	[0, 0, 0]	n/a	catFR1	0	R1472T
1134.583	0.767	1210450	WORD_OFF	n/a	n/a	PEN	OfficeSupplies	11	9	[0, 0, 0]	n/a	catFR1	0	R1472T
1135.35	1.6	1211217	WORD	n/a	wordpools/wordpool_categorized_EN.txt	RULER	OfficeSupplies	12	9	[0, 0, 0]	n/a	catFR1	0	R1472T
1136.95	0.001	1212813	PROB	4.083	n/a	n/a	n/a	-999	9	[6, 4, 5]	15.0	catFR1	0	R1472T
1136.951	0.0	1212814	START	n/a	n/a	n/a	n/a	-999	9	[-999, -999, -999]	n/a	catFR1	0	R1472T
1136.95	0.001	1212818	WORD_OFF	n/a	n/a	RULER	OfficeSupplies	12	9	[0, 0, 0]	n/a	catFR1	0	R1472T
1136.951	0.0	1212818	ENCODING_END	n/a	n/a	n/a	n/a	-999	9	[0, 0, 0]	n/a	catFR1	0	R1472T
1136.951	4.098	1212818	DISTRACT_START	n/a	n/a	n/a	n/a	-999	9	[0, 0, 0]	n/a	catFR1	0	R1472T
1141.049	3.351	1216912	PROB	3.334	n/a	n/a	n/a	-999	9	[3, 2, 8]	13.0	catFR1	0	R1472T
1144.4	6.216	1220263	PROB	6.2	n/a	n/a	n/a	-999	9	[1, 6, 3]	10.0	catFR1	0	R1472T
1150.616	3.434	1226478	PROB	3.417	n/a	n/a	n/a	-999	9	[8, 1, 4]	15.0	catFR1	0	R1472T
1154.05	7.55	1229912	PROB	7.533	n/a	n/a	n/a	-999	9	[7, 7, 8]	21.0	catFR1	0	R1472T
1161.6	0.0	1237459	DISTRACT_END	n/a	n/a	n/a	n/a	-999	9	[0, 0, 0]	n/a	catFR1	0	R1472T
1161.6	2.016	1237462	STOP	n/a	n/a	n/a	n/a	-999	9	[-999, -999, -999]	n/a	catFR1	0	R1472T
1163.616	1.562	1239477	REC_START	n/a	n/a	n/a	n/a	-999	9	[0, 0, 0]	n/a	catFR1	0	R1472T
1165.178	1.003	1241040	REC_WORD_VV	1.562	n/a	<>	n/a	-999	9	[0, 0, 0]	n/a	catFR1	0	R1472T
1166.181	1.273	1242043	REC_WORD	2.565	n/a	OCEAN	Landscapes	6	9	[0, 0, 0]	n/a	catFR1	0	R1472T
1167.454	1.217	1243316	REC_WORD_VV	3.838	n/a	<>	n/a	-999	9	[0, 0, 0]	n/a	catFR1	0	R1472T
1168.671	0.96	1244533	REC_WORD	5.055	n/a	LAKE	Landscapes	-999	9	[0, 0, 0]	n/a	catFR1	0	R1472T
1169.631	1.0	1245493	REC_WORD	6.015	n/a	FOREST	Landscapes	10	9	[0, 0, 0]	n/a	catFR1	0	R1472T
1170.631	1.881	1246492	REC_WORD	7.015	n/a	FOREST	Landscapes	10	9	[0, 0, 0]	n/a	catFR1	0	R1472T
1172.512	5.983	1248373	REC_WORD_VV	8.896	n/a	<>	n/a	-999	9	[0, 0, 0]	n/a	catFR1	0	R1472T
1178.495	0.449	1254356	REC_WORD_VV	14.879	n/a	<>	n/a	-999	9	[0, 0, 0]	n/a	catFR1	0	R1472T
1178.944	0.468	1254805	REC_WORD	15.328	n/a	PEN	OfficeSupplies	11	9	[0, 0, 0]	n/a	catFR1	0	R1472T
1179.412	1.722	1255273	REC_WORD	15.796	n/a	FOLDER	OfficeSupplies	-999	9	[0, 0, 0]	n/a	catFR1	0	R1472T
1181.134	1.545	1256995	REC_WORD_VV	17.518	n/a	<>	n/a	-999	9	[0, 0, 0]	n/a	catFR1	0	R1472T
1182.679	1.212	1258540	REC_WORD	19.063	n/a	RULER	OfficeSupplies	12	9	[0, 0, 0]	n/a	catFR1	0	R1472T
1183.891	9.941	1259752	REC_WORD	20.275	n/a	PENCIL	OfficeSupplies	-999	9	[0, 0, 0]	n/a	catFR1	0	R1472T
1193.832	5.185	1269692	REC_END	n/a	n/a	n/a	n/a	-999	9	[0, 0, 0]	n/a	catFR1	0	R1472T
1199.017	10.35	1274877	COUNTDOWN_START	n/a	n/a	n/a	n/a	-999	10	[0, 0, 0]	n/a	catFR1	0	R1472T
1209.367	0.0	1285220	COUNTDOWN_END	n/a	n/a	n/a	n/a	-999	10	[0, 0, 0]	n/a	catFR1	0	R1472T
1209.367	1.966	1285234	ENCODING_START	n/a	n/a	n/a	n/a	-999	10	[0, 0, 0]	n/a	catFR1	0	R1472T
1211.333	1.616	1287191	WORD	n/a	wordpools/wordpool_categorized_EN.txt	DRESS	Clothing	1	10	[0, 0, 0]	n/a	catFR1	0	R1472T
1212.949	0.95	1288805	WORD_OFF	n/a	n/a	DRESS	Clothing	1	10	[0, 0, 0]	n/a	catFR1	0	R1472T
1213.899	1.617	1289757	WORD	n/a	wordpools/wordpool_categorized_EN.txt	JACKET	Clothing	2	10	[0, 0, 0]	n/a	catFR1	0	R1472T
1215.516	0.767	1291371	WORD_OFF	n/a	n/a	JACKET	Clothing	2	10	[0, 0, 0]	n/a	catFR1	0	R1472T
1216.283	1.6	1292138	WORD	n/a	wordpools/wordpool_categorized_EN.txt	SPIDER	Insects	3	10	[0, 0, 0]	n/a	catFR1	0	R1472T
1217.883	0.967	1293738	WORD_OFF	n/a	n/a	SPIDER	Insects	3	10	[0, 0, 0]	n/a	catFR1	0	R1472T
1218.85	1.6	1294704	WORD	n/a	wordpools/wordpool_categorized_EN.txt	MOSQUITO	Insects	4	10	[0, 0, 0]	n/a	catFR1	0	R1472T
1220.45	0.882	1296304	WORD_OFF	n/a	n/a	MOSQUITO	Insects	4	10	[0, 0, 0]	n/a	catFR1	0	R1472T
1221.332	1.601	1297190	WORD	n/a	wordpools/wordpool_categorized_EN.txt	ATTIC	Building	5	10	[0, 0, 0]	n/a	catFR1	0	R1472T
1222.933	0.95	1298791	WORD_OFF	n/a	n/a	ATTIC	Building	5	10	[0, 0, 0]	n/a	catFR1	0	R1472T
1223.883	1.601	1299743	WORD	n/a	wordpools/wordpool_categorized_EN.txt	ROOM	Building	6	10	[0, 0, 0]	n/a	catFR1	0	R1472T
1225.484	0.832	1301344	WORD_OFF	n/a	n/a	ROOM	Building	6	10	[0, 0, 0]	n/a	catFR1	0	R1472T
1226.316	1.601	1302177	WORD	n/a	wordpools/wordpool_categorized_EN.txt	SKIRT	Clothing	7	10	[0, 0, 0]	n/a	catFR1	0	R1472T
1227.917	0.916	1303777	WORD_OFF	n/a	n/a	SKIRT	Clothing	7	10	[0, 0, 0]	n/a	catFR1	0	R1472T
1228.833	1.6	1304690	WORD	n/a	wordpools/wordpool_categorized_EN.txt	BLOUSE	Clothing	8	10	[0, 0, 0]	n/a	catFR1	0	R1472T
1230.433	0.917	1306290	WORD_OFF	n/a	n/a	BLOUSE	Clothing	8	10	[0, 0, 0]	n/a	catFR1	0	R1472T
1231.35	1.617	1307203	WORD	n/a	wordpools/wordpool_categorized_EN.txt	GNAT	Insects	9	10	[0, 0, 0]	n/a	catFR1	0	R1472T
1232.967	0.799	1308830	WORD_OFF	n/a	n/a	GNAT	Insects	9	10	[0, 0, 0]	n/a	catFR1	0	R1472T
1233.766	1.6	1309624	WORD	n/a	wordpools/wordpool_categorized_EN.txt	CRICKET	Insects	10	10	[0, 0, 0]	n/a	catFR1	0	R1472T
1235.366	0.8	1311224	WORD_OFF	n/a	n/a	CRICKET	Insects	10	10	[0, 0, 0]	n/a	catFR1	0	R1472T
1236.166	1.601	1312018	WORD	n/a	wordpools/wordpool_categorized_EN.txt	WALL	Building	11	10	[0, 0, 0]	n/a	catFR1	0	R1472T
1237.767	0.983	1313618	WORD_OFF	n/a	n/a	WALL	Building	11	10	[0, 0, 0]	n/a	catFR1	0	R1472T
1238.75	1.617	1314610	WORD	n/a	wordpools/wordpool_categorized_EN.txt	FOUNDATION	Building	12	10	[0, 0, 0]	n/a	catFR1	0	R1472T
1240.367	0.001	1316225	PROB	6.383	n/a	n/a	n/a	-999	10	[2, 3, 2]	7.0	catFR1	0	R1472T
1240.368	0.0	1316226	START	n/a	n/a	n/a	n/a	-999	10	[-999, -999, -999]	n/a	catFR1	0	R1472T
1240.367	0.001	1316237	WORD_OFF	n/a	n/a	FOUNDATION	Building	12	10	[0, 0, 0]	n/a	catFR1	0	R1472T
1240.368	0.0	1316237	ENCODING_END	n/a	n/a	n/a	n/a	-999	10	[0, 0, 0]	n/a	catFR1	0	R1472T
1240.368	6.399	1316237	DISTRACT_START	n/a	n/a	n/a	n/a	-999	10	[0, 0, 0]	n/a	catFR1	0	R1472T
1246.767	2.682	1322625	PROB	2.666	n/a	n/a	n/a	-999	10	[1, 1, 4]	6.0	catFR1	0	R1472T
1249.449	4.102	1325306	PROB	4.084	n/a	n/a	n/a	-999	10	[2, 5, 6]	13.0	catFR1	0	R1472T
1253.551	4.666	1329408	PROB	4.649	n/a	n/a	n/a	-999	10	[4, 5, 8]	17.0	catFR1	0	R1472T
1258.217	4.183	1334074	PROB	4.166	n/a	n/a	n/a	-999	10	[4, 5, 8]	17.0	catFR1	0	R1472T
1262.4	0.0	1338257	STOP	n/a	n/a	n/a	n/a	-999	10	[-999, -999, -999]	n/a	catFR1	0	R1472T
1262.4	2.033	1338259	DISTRACT_END	n/a	n/a	n/a	n/a	-999	10	[0, 0, 0]	n/a	catFR1	0	R1472T
1264.433	1.352	1340291	REC_START	n/a	n/a	n/a	n/a	-999	10	[0, 0, 0]	n/a	catFR1	0	R1472T
1265.785	0.469	1341642	REC_WORD_VV	1.352	n/a	<>	n/a	-999	10	[0, 0, 0]	n/a	catFR1	0	R1472T
1266.254	1.002	1342111	REC_WORD	1.821	n/a	FOUNDATION	Building	12	10	[0, 0, 0]	n/a	catFR1	0	R1472T
1267.256	0.013	1343113	REC_WORD	2.823	n/a	FOUNDATION	Building	12	10	[0, 0, 0]	n/a	catFR1	0	R1472T
1267.269	0.631	1343126	REC_WORD	2.836	n/a	HOUSE	n/a	-999	10	[0, 0, 0]	n/a	catFR1	0	R1472T
1267.9	1.267	1343757	REC_WORD	3.467	n/a	WALL	Building	11	10	[0, 0, 0]	n/a	catFR1	0	R1472T
1269.167	1.542	1345023	REC_WORD	4.734	n/a	ATTIC	Building	5	10	[0, 0, 0]	n/a	catFR1	0	R1472T
1270.709	1.416	1346565	REC_WORD_VV	6.276	n/a	<>	n/a	-999	10	[0, 0, 0]	n/a	catFR1	0	R1472T
1272.125	0.802	1347981	REC_WORD	7.692	n/a	DRESS	Clothing	1	10	[0, 0, 0]	n/a	catFR1	0	R1472T
1272.927	2.117	1348783	REC_WORD	8.494	n/a	SKIRT	Clothing	7	10	[0, 0, 0]	n/a	catFR1	0	R1472T
1275.044	3.049	1350900	REC_WORD_VV	10.611	n/a	<>	n/a	-999	10	[0, 0, 0]	n/a	catFR1	0	R1472T
1278.093	2.355	1353949	REC_WORD	13.66	n/a	JACKET	Clothing	2	10	[0, 0, 0]	n/a	catFR1	0	R1472T
1280.448	7.663	1356304	REC_WORD_VV	16.015	n/a	<>	n/a	-999	10	[0, 0, 0]	n/a	catFR1	0	R1472T
1288.111	1.217	1363967	REC_WORD	23.678	n/a	CRICKET	Insects	10	10	[0, 0, 0]	n/a	catFR1	0	R1472T
1289.328	0.625	1365183	REC_WORD_VV	24.895	n/a	<>	n/a	-999	10	[0, 0, 0]	n/a	catFR1	0	R1472T
1289.953	1.374	1365808	REC_WORD	25.52	n/a	MOSQUITO	Insects	4	10	[0, 0, 0]	n/a	catFR1	0	R1472T
1291.327	3.335	1367182	REC_WORD	26.894	n/a	GNAT	Insects	9	10	[0, 0, 0]	n/a	catFR1	0	R1472T
1294.662	4.137	1370519	REC_END	n/a	n/a	n/a	n/a	-999	10	[0, 0, 0]	n/a	catFR1	0	R1472T
1298.799	10.35	1374659	COUNTDOWN_START	n/a	n/a	n/a	n/a	-999	11	[0, 0, 0]	n/a	catFR1	0	R1472T
1309.149	0.0	1385002	COUNTDOWN_END	n/a	n/a	n/a	n/a	-999	11	[0, 0, 0]	n/a	catFR1	0	R1472T
1309.149	2.033	1385002	ENCODING_START	n/a	n/a	n/a	n/a	-999	11	[0, 0, 0]	n/a	catFR1	0	R1472T
1311.182	1.601	1387039	WORD	n/a	wordpools/wordpool_categorized_EN.txt	CYPRESS	Trees	1	11	[0, 0, 0]	n/a	catFR1	0	R1472T
1312.783	0.982	1388640	WORD_OFF	n/a	n/a	CYPRESS	Trees	1	11	[0, 0, 0]	n/a	catFR1	0	R1472T
1313.765	1.601	1389618	WORD	n/a	wordpools/wordpool_categorized_EN.txt	OAK	Trees	2	11	[0, 0, 0]	n/a	catFR1	0	R1472T
1315.366	0.834	1391219	WORD_OFF	n/a	n/a	OAK	Trees	2	11	[0, 0, 0]	n/a	catFR1	0	R1472T
1316.2	1.599	1392052	WORD	n/a	wordpools/wordpool_categorized_EN.txt	ANT	Insects	3	11	[0, 0, 0]	n/a	catFR1	0	R1472T
1317.799	0.784	1393652	WORD_OFF	n/a	n/a	ANT	Insects	3	11	[0, 0, 0]	n/a	catFR1	0	R1472T
1318.583	1.6	1394433	WORD	n/a	wordpools/wordpool_categorized_EN.txt	MOTH	Insects	4	11	[0, 0, 0]	n/a	catFR1	0	R1472T
1320.183	0.866	1396033	WORD_OFF	n/a	n/a	MOTH	Insects	4	11	[0, 0, 0]	n/a	catFR1	0	R1472T
1321.049	1.601	1396906	WORD	n/a	wordpools/wordpool_categorized_EN.txt	CHICKEN	FarmAnimals	5	11	[0, 0, 0]	n/a	catFR1	0	R1472T
1322.65	0.783	1398507	WORD_OFF	n/a	n/a	CHICKEN	FarmAnimals	5	11	[0, 0, 0]	n/a	catFR1	0	R1472T
1323.433	1.617	1399287	WORD	n/a	wordpools/wordpool_categorized_EN.txt	HEN	FarmAnimals	6	11	[0, 0, 0]	n/a	catFR1	0	R1472T
1325.05	0.833	1400901	WORD_OFF	n/a	n/a	HEN	FarmAnimals	6	11	[0, 0, 0]	n/a	catFR1	0	R1472T
1325.883	1.6	1401734	WORD	n/a	wordpools/wordpool_categorized_EN.txt	CEDAR	Trees	7	11	[0, 0, 0]	n/a	catFR1	0	R1472T
1327.483	0.85	1403334	WORD_OFF	n/a	n/a	CEDAR	Trees	7	11	[0, 0, 0]	n/a	catFR1	0	R1472T
1328.333	1.617	1404181	WORD	n/a	wordpools/wordpool_categorized_EN.txt	WILLOW	Trees	8	11	[0, 0, 0]	n/a	catFR1	0	R1472T
1329.95	0.899	1405808	WORD_OFF	n/a	n/a	WILLOW	Trees	8	11	[0, 0, 0]	n/a	catFR1	0	R1472T
1330.849	1.601	1406707	WORD	n/a	wordpools/wordpool_categorized_EN.txt	COW	FarmAnimals	9	11	[0, 0, 0]	n/a	catFR1	0	R1472T
1332.45	0.983	1408308	WORD_OFF	n/a	n/a	COW	FarmAnimals	9	11	[0, 0, 0]	n/a	catFR1	0	R1472T
1333.433	1.616	1409286	WORD	n/a	wordpools/wordpool_categorized_EN.txt	HORSE	FarmAnimals	10	11	[0, 0, 0]	n/a	catFR1	0	R1472T
1335.049	0.967	1410900	WORD_OFF	n/a	n/a	HORSE	FarmAnimals	10	11	[0, 0, 0]	n/a	catFR1	0	R1472T
1336.016	1.601	1411866	WORD	n/a	wordpools/wordpool_categorized_EN.txt	ROACH	Insects	11	11	[0, 0, 0]	n/a	catFR1	0	R1472T
1337.617	0.783	1413466	WORD_OFF	n/a	n/a	ROACH	Insects	11	11	[0, 0, 0]	n/a	catFR1	0	R1472T
1338.4	1.6	1414246	WORD	n/a	wordpools/wordpool_categorized_EN.txt	BUTTERFLY	Insects	12	11	[0, 0, 0]	n/a	catFR1	0	R1472T
1340.0	0.0	1415847	WORD_OFF	n/a	n/a	BUTTERFLY	Insects	12	11	[0, 0, 0]	n/a	catFR1	0	R1472T
1340.0	0.001	1415853	PROB	2.282	n/a	n/a	n/a	-999	11	[7, 3, 1]	11.0	catFR1	0	R1472T
1340.001	0.0	1415854	START	n/a	n/a	n/a	n/a	-999	11	[-999, -999, -999]	n/a	catFR1	0	R1472T
1340.001	0.0	1415860	ENCODING_END	n/a	n/a	n/a	n/a	-999	11	[0, 0, 0]	n/a	catFR1	0	R1472T
1340.001	2.299	1415860	DISTRACT_START	n/a	n/a	n/a	n/a	-999	11	[0, 0, 0]	n/a	catFR1	0	R1472T
1342.3	3.7	1418153	PROB	3.683	n/a	n/a	n/a	-999	11	[1, 5, 4]	10.0	catFR1	0	R1472T
1346.0	2.266	1421853	PROB	2.249	n/a	n/a	n/a	-999	11	[3, 3, 3]	9.0	catFR1	0	R1472T
1348.266	5.467	1424118	PROB	5.45	n/a	n/a	n/a	-999	11	[3, 7, 4]	14.0	catFR1	0	R1472T
1353.733	3.085	1429585	PROB	3.067	n/a	n/a	n/a	-999	11	[3, 1, 3]	7.0	catFR1	0	R1472T
1356.818	4.398	1432670	PROB	4.383	n/a	n/a	n/a	-999	11	[5, 8, 4]	17.0	catFR1	0	R1472T
1361.216	0.0	1437062	DISTRACT_END	n/a	n/a	n/a	n/a	-999	11	[0, 0, 0]	n/a	catFR1	0	R1472T
1361.216	2.1	1437068	STOP	n/a	n/a	n/a	n/a	-999	11	[-999, -999, -999]	n/a	catFR1	0	R1472T
1363.316	0.961	1439173	REC_START	n/a	n/a	n/a	n/a	-999	11	[0, 0, 0]	n/a	catFR1	0	R1472T
1364.277	1.001	1440129	REC_WORD	0.961	n/a	CYPRESS	Trees	1	11	[0, 0, 0]	n/a	catFR1	0	R1472T
1365.278	0.135	1441130	REC_WORD	1.962	n/a	CYPRESS	Trees	1	11	[0, 0, 0]	n/a	catFR1	0	R1472T
1365.413	1.198	1441265	REC_WORD	2.097	n/a	OAK	Trees	2	11	[0, 0, 0]	n/a	catFR1	0	R1472T
1366.611	2.081	1442463	REC_WORD	3.295	n/a	WILLOW	Trees	8	11	[0, 0, 0]	n/a	catFR1	0	R1472T
1368.692	2.832	1444543	REC_WORD_VV	5.376	n/a	<>	n/a	-999	11	[0, 0, 0]	n/a	catFR1	0	R1472T
1371.524	2.211	1447375	REC_WORD	8.208	n/a	FOREST	Landscapes	-999	11	[0, 0, 0]	n/a	catFR1	0	R1472T
1373.735	0.49	1449586	REC_WORD_VV	10.419	n/a	<>	n/a	-999	11	[0, 0, 0]	n/a	catFR1	0	R1472T
1374.225	1.096	1450076	REC_WORD	10.909	n/a	COW	FarmAnimals	9	11	[0, 0, 0]	n/a	catFR1	0	R1472T
1375.321	1.404	1451172	REC_WORD	12.005	n/a	HEN	FarmAnimals	6	11	[0, 0, 0]	n/a	catFR1	0	R1472T
1376.725	2.825	1452576	REC_WORD	13.409	n/a	ANT	Insects	3	11	[0, 0, 0]	n/a	catFR1	0	R1472T
1379.55	10.207	1455401	REC_WORD_VV	16.234	n/a	<>	n/a	-999	11	[0, 0, 0]	n/a	catFR1	0	R1472T
1389.757	3.789	1465607	REC_WORD_VV	26.441	n/a	<>	n/a	-999	11	[0, 0, 0]	n/a	catFR1	0	R1472T
1393.546	2.486	1469402	REC_END	n/a	n/a	n/a	n/a	-999	11	[0, 0, 0]	n/a	catFR1	0	R1472T
1396.032	10.35	1471888	COUNTDOWN_START	n/a	n/a	n/a	n/a	-999	12	[0, 0, 0]	n/a	catFR1	0	R1472T
1406.382	0.001	1482231	COUNTDOWN_END	n/a	n/a	n/a	n/a	-999	12	[0, 0, 0]	n/a	catFR1	0	R1472T
1406.383	1.9	1482231	ENCODING_START	n/a	n/a	n/a	n/a	-999	12	[0, 0, 0]	n/a	catFR1	0	R1472T
1408.283	1.616	1484136	WORD	n/a	wordpools/wordpool_categorized_EN.txt	ROSE	Flowers	1	12	[0, 0, 0]	n/a	catFR1	0	R1472T
1409.899	0.817	1485750	WORD_OFF	n/a	n/a	ROSE	Flowers	1	12	[0, 0, 0]	n/a	catFR1	0	R1472T
1410.716	1.6	1486570	WORD	n/a	wordpools/wordpool_categorized_EN.txt	LILAC	Flowers	2	12	[0, 0, 0]	n/a	catFR1	0	R1472T
1412.316	0.816	1488170	WORD_OFF	n/a	n/a	LILAC	Flowers	2	12	[0, 0, 0]	n/a	catFR1	0	R1472T
1413.132	1.6	1488977	WORD	n/a	wordpools/wordpool_categorized_EN.txt	ORANGE	Fruit	3	12	[0, 0, 0]	n/a	catFR1	0	R1472T
1414.732	0.984	1490577	WORD_OFF	n/a	n/a	ORANGE	Fruit	3	12	[0, 0, 0]	n/a	catFR1	0	R1472T
1415.716	1.6	1491569	WORD	n/a	wordpools/wordpool_categorized_EN.txt	CHERRY	Fruit	4	12	[0, 0, 0]	n/a	catFR1	0	R1472T
1417.316	0.917	1493170	WORD_OFF	n/a	n/a	CHERRY	Fruit	4	12	[0, 0, 0]	n/a	catFR1	0	R1472T
1418.233	1.6	1494082	WORD	n/a	wordpools/wordpool_categorized_EN.txt	PUZZLE	Toys	5	12	[0, 0, 0]	n/a	catFR1	0	R1472T
1419.833	0.916	1495683	WORD_OFF	n/a	n/a	PUZZLE	Toys	5	12	[0, 0, 0]	n/a	catFR1	0	R1472T
1420.749	1.6	1496596	WORD	n/a	wordpools/wordpool_categorized_EN.txt	SLINKY	Toys	6	12	[0, 0, 0]	n/a	catFR1	0	R1472T
1422.349	0.884	1498196	WORD_OFF	n/a	n/a	SLINKY	Toys	6	12	[0, 0, 0]	n/a	catFR1	0	R1472T
1423.233	1.617	1499082	WORD	n/a	wordpools/wordpool_categorized_EN.txt	VIOLET	Flowers	7	12	[0, 0, 0]	n/a	catFR1	0	R1472T
1424.85	0.95	1500696	WORD_OFF	n/a	n/a	VIOLET	Flowers	7	12	[0, 0, 0]	n/a	catFR1	0	R1472T
1425.8	1.6	1501648	WORD	n/a	wordpools/wordpool_categorized_EN.txt	ORCHID	Flowers	8	12	[0, 0, 0]	n/a	catFR1	0	R1472T
1427.4	0.866	1503249	WORD_OFF	n/a	n/a	ORCHID	Flowers	8	12	[0, 0, 0]	n/a	catFR1	0	R1472T
1428.266	1.601	1504108	WORD	n/a	wordpools/wordpool_categorized_EN.txt	DOLL	Toys	9	12	[0, 0, 0]	n/a	catFR1	0	R1472T
1429.867	0.85	1505709	WORD_OFF	n/a	n/a	DOLL	Toys	9	12	[0, 0, 0]	n/a	catFR1	0	R1472T
1430.717	1.599	1506568	WORD	n/a	wordpools/wordpool_categorized_EN.txt	FRISBEE	Toys	10	12	[0, 0, 0]	n/a	catFR1	0	R1472T
1432.316	0.817	1508169	WORD_OFF	n/a	n/a	FRISBEE	Toys	10	12	[0, 0, 0]	n/a	catFR1	0	R1472T
1433.133	1.6	1508976	WORD	n/a	wordpools/wordpool_categorized_EN.txt	STRAWBERRY	Fruit	11	12	[0, 0, 0]	n/a	catFR1	0	R1472T
1434.733	0.767	1510589	WORD_OFF	n/a	n/a	STRAWBERRY	Fruit	11	12	[0, 0, 0]	n/a	catFR1	0	R1472T
1435.5	1.6	1511343	WORD	n/a	wordpools/wordpool_categorized_EN.txt	PLUM	Fruit	12	12	[0, 0, 0]	n/a	catFR1	0	R1472T
1437.1	0.001	1512944	WORD_OFF	n/a	n/a	PLUM	Fruit	12	12	[0, 0, 0]	n/a	catFR1	0	R1472T
1437.101	0.0	1512944	ENCODING_END	n/a	n/a	n/a	n/a	-999	12	[0, 0, 0]	n/a	catFR1	0	R1472T
1437.101	0.0	1512944	DISTRACT_START	n/a	n/a	n/a	n/a	-999	12	[0, 0, 0]	n/a	catFR1	0	R1472T
1437.1	0.001	1512948	PROB	2.616	n/a	n/a	n/a	-999	12	[4, 6, 1]	11.0	catFR1	0	R1472T
1437.101	2.632	1512949	START	n/a	n/a	n/a	n/a	-999	12	[-999, -999, -999]	n/a	catFR1	0	R1472T
1439.733	3.468	1515581	PROB	3.45	n/a	n/a	n/a	-999	12	[6, 7, 3]	16.0	catFR1	0	R1472T
1443.201	6.432	1519049	PROB	6.416	n/a	n/a	n/a	-999	12	[8, 5, 7]	20.0	catFR1	0	R1472T
1449.633	3.167	1525480	PROB	3.15	n/a	n/a	n/a	-999	12	[4, 1, 5]	10.0	catFR1	0	R1472T
1452.8	7.933	1528647	PROB	7.916	n/a	n/a	n/a	-999	12	[8, 5, 4]	17.0	catFR1	0	R1472T
1460.733	0.0	1536580	DISTRACT_END	n/a	n/a	n/a	n/a	-999	12	[0, 0, 0]	n/a	catFR1	0	R1472T
1460.733	2.133	1536580	STOP	n/a	n/a	n/a	n/a	-999	12	[-999, -999, -999]	n/a	catFR1	0	R1472T
1462.866	0.898	1538717	REC_START	n/a	n/a	n/a	n/a	-999	12	[0, 0, 0]	n/a	catFR1	0	R1472T
1463.764	1.064	1539611	REC_WORD	0.898	n/a	ROSE	Flowers	1	12	[0, 0, 0]	n/a	catFR1	0	R1472T
1464.828	1.105	1540675	REC_WORD	1.962	n/a	LILAC	Flowers	2	12	[0, 0, 0]	n/a	catFR1	0	R1472T
1465.933	1.506	1541780	REC_WORD	3.067	n/a	ORCHID	Flowers	8	12	[0, 0, 0]	n/a	catFR1	0	R1472T
1467.439	16.763	1543285	REC_WORD_VV	4.573	n/a	<>	n/a	-999	12	[0, 0, 0]	n/a	catFR1	0	R1472T
1484.202	0.999	1560048	REC_WORD_VV	21.336	n/a	<>	n/a	-999	12	[0, 0, 0]	n/a	catFR1	0	R1472T
1485.201	1.0	1561047	REC_WORD_VV	22.335	n/a	<>	n/a	-999	12	[0, 0, 0]	n/a	catFR1	0	R1472T
1486.201	6.881	1562047	REC_WORD_VV	23.335	n/a	<>	n/a	-999	12	[0, 0, 0]	n/a	catFR1	0	R1472T
1493.082	0.0	1568932	REC_END	n/a	n/a	n/a	n/a	-999	12	[0, 0, 0]	n/a	catFR1	0	R1472T
