onset	duration	sample	trial_type	response_time	stim_file	item_name	category	serialpos	list	test	answer	experiment	session	subject
0.0	10.447	167266	INSTRUCT_START	n/a	n/a	n/a	n/a	-999	-999	[0, 0, 0]	n/a	catFR1	6	R1495J
10.447	26.618	177720	INSTRUCT_END	n/a	n/a	n/a	n/a	-999	-999	[0, 0, 0]	n/a	catFR1	6	R1495J
37.065	10.35	204339	COUNTDOWN_START	n/a	n/a	n/a	n/a	-999	-999	[0, 0, 0]	n/a	catFR1	6	R1495J
47.415	0.0	214678	COUNTDOWN_END	n/a	n/a	n/a	n/a	-999	-999	[0, 0, 0]	n/a	catFR1	6	R1495J
47.415	2.234	214678	ENCODING_START	n/a	n/a	n/a	n/a	-999	-1	[0, 0, 0]	n/a	catFR1	6	R1495J
49.649	1.6	216917	WORD	n/a	n/a	BLOUSE	Clothing	1	-1	[0, 0, 0]	n/a	catFR1	6	R1495J
51.249	1.0	218519	WORD_OFF	n/a	n/a	BLOUSE	Clothing	1	-1	[0, 0, 0]	n/a	catFR1	6	R1495J
52.249	1.615	219511	WORD	n/a	n/a	UNDERWEAR	Clothing	2	-1	[0, 0, 0]	n/a	catFR1	6	R1495J
53.864	0.951	221126	WORD_OFF	n/a	n/a	UNDERWEAR	Clothing	2	-1	[0, 0, 0]	n/a	catFR1	6	R1495J
54.815	1.6	222080	WORD	n/a	n/a	LION	Zoo	3	-1	[0, 0, 0]	n/a	catFR1	6	R1495J
56.415	0.834	223683	WORD_OFF	n/a	n/a	LION	Zoo	3	-1	[0, 0, 0]	n/a	catFR1	6	R1495J
57.249	1.616	224509	WORD	n/a	n/a	MONKEY	Zoo	4	-1	[0, 0, 0]	n/a	catFR1	6	R1495J
58.865	0.867	226137	WORD_OFF	n/a	n/a	MONKEY	Zoo	4	-1	[0, 0, 0]	n/a	catFR1	6	R1495J
59.732	1.616	227002	WORD	n/a	n/a	PIE	Desserts	5	-1	[0, 0, 0]	n/a	catFR1	6	R1495J
61.348	0.983	228617	WORD_OFF	n/a	n/a	PIE	Desserts	5	-1	[0, 0, 0]	n/a	catFR1	6	R1495J
62.331	1.618	229596	WORD	n/a	n/a	PASTRY	Desserts	6	-1	[0, 0, 0]	n/a	catFR1	6	R1495J
63.949	0.865	231212	WORD_OFF	n/a	n/a	PASTRY	Desserts	6	-1	[0, 0, 0]	n/a	catFR1	6	R1495J
64.814	1.601	232076	WORD	n/a	n/a	SHORTS	Clothing	7	-1	[0, 0, 0]	n/a	catFR1	6	R1495J
66.415	0.867	233679	WORD_OFF	n/a	n/a	SHORTS	Clothing	7	-1	[0, 0, 0]	n/a	catFR1	6	R1495J
67.282	1.617	234544	WORD	n/a	n/a	SOCKS	Clothing	8	-1	[0, 0, 0]	n/a	catFR1	6	R1495J
68.899	0.982	236159	WORD_OFF	n/a	n/a	SOCKS	Clothing	8	-1	[0, 0, 0]	n/a	catFR1	6	R1495J
69.881	1.601	237151	WORD	n/a	n/a	CHIMPANZEE	Zoo	9	-1	[0, 0, 0]	n/a	catFR1	6	R1495J
71.482	0.966	238753	WORD_OFF	n/a	n/a	CHIMPANZEE	Zoo	9	-1	[0, 0, 0]	n/a	catFR1	6	R1495J
72.448	1.616	239720	WORD	n/a	n/a	GORILLA	Zoo	10	-1	[0, 0, 0]	n/a	catFR1	6	R1495J
74.064	0.985	241335	WORD_OFF	n/a	n/a	GORILLA	Zoo	10	-1	[0, 0, 0]	n/a	catFR1	6	R1495J
75.049	1.615	242314	WORD	n/a	n/a	JELLO	Desserts	11	-1	[0, 0, 0]	n/a	catFR1	6	R1495J
76.664	0.934	243930	WORD_OFF	n/a	n/a	JELLO	Desserts	11	-1	[0, 0, 0]	n/a	catFR1	6	R1495J
77.598	1.618	244858	WORD	n/a	n/a	CAKE	Desserts	12	-1	[0, 0, 0]	n/a	catFR1	6	R1495J
79.216	0.001	246480	PROB	0.001	n/a	n/a	n/a	-999	-1	[6, 6, 6]	18	catFR1	6	R1495J
79.217	0.0	246481	START	n/a	n/a	n/a	n/a	-999	-1	[-999, -999, -999]	n/a	catFR1	6	R1495J
79.215	0.002	246486	WORD_OFF	n/a	n/a	CAKE	Desserts	12	-1	[0, 0, 0]	n/a	catFR1	6	R1495J
79.217	0.0	246486	ENCODING_END	n/a	n/a	n/a	n/a	-999	-1	[0, 0, 0]	n/a	catFR1	6	R1495J
79.217	3.464	246486	DISTRACT_START	n/a	n/a	n/a	n/a	-999	-1	[0, 0, 0]	n/a	catFR1	6	R1495J
82.681	2.55	249944	PROB	2.55	n/a	n/a	n/a	-999	-1	[7, 3, 8]	18	catFR1	6	R1495J
85.231	2.499	252494	PROB	2.499	n/a	n/a	n/a	-999	-1	[6, 1, 3]	10	catFR1	6	R1495J
87.73	3.317	254993	PROB	3.317	n/a	n/a	n/a	-999	-1	[2, 6, 7]	15	catFR1	6	R1495J
91.047	5.034	258310	PROB	5.034	n/a	n/a	n/a	-999	-1	[4, 7, 4]	15	catFR1	6	R1495J
96.081	3.432	263344	PROB	3.432	n/a	n/a	n/a	-999	-1	[6, 3, 5]	14	catFR1	6	R1495J
99.513	0.0	266771	DISTRACT_END	n/a	n/a	n/a	n/a	-999	-1	[0, 0, 0]	n/a	catFR1	6	R1495J
99.513	2.2	266776	STOP	n/a	n/a	n/a	n/a	-999	-1	[-999, -999, -999]	n/a	catFR1	6	R1495J
101.713	0.464	268979	REC_START	n/a	n/a	n/a	n/a	-999	-1	[0, 0, 0]	n/a	catFR1	6	R1495J
102.177	0.407	269440	REC_WORD	0.407	n/a	BLOUSE	Clothing	1	-1	[0, 0, 0]	n/a	catFR1	6	R1495J
102.584	1.62	269847	REC_WORD	1.62	n/a	CHIMPANZEE	Zoo	9	-1	[0, 0, 0]	n/a	catFR1	6	R1495J
104.204	0.658	271467	REC_WORD	0.658	n/a	GORILLA	Zoo	10	-1	[0, 0, 0]	n/a	catFR1	6	R1495J
104.862	0.746	272125	REC_WORD	0.746	n/a	SOCKS	Clothing	8	-1	[0, 0, 0]	n/a	catFR1	6	R1495J
105.608	22.283	272871	REC_WORD	22.283	n/a	SHORTS	Clothing	7	-1	[0, 0, 0]	n/a	catFR1	6	R1495J
127.891	4.039	295153	REC_WORD	4.039	n/a	UNDERWEAR	Clothing	2	-1	[0, 0, 0]	n/a	catFR1	6	R1495J
131.93	14.185	299189	REC_END	n/a	n/a	n/a	n/a	-999	-1	[0, 0, 0]	n/a	catFR1	6	R1495J
146.115	10.35	313382	COUNTDOWN_START	n/a	n/a	n/a	n/a	-999	1	[0, 0, 0]	n/a	catFR1	6	R1495J
156.465	0.0	323722	COUNTDOWN_END	n/a	n/a	n/a	n/a	-999	1	[0, 0, 0]	n/a	catFR1	6	R1495J
156.465	2.017	323735	ENCODING_START	n/a	n/a	n/a	n/a	-999	1	[0, 0, 0]	n/a	catFR1	6	R1495J
158.482	1.6	325744	WORD	n/a	wordpools/wordpool_categorized_EN.txt	ROACH	Insects	1	1	[0, 0, 0]	n/a	catFR1	6	R1495J
160.082	0.833	327347	WORD_OFF	n/a	n/a	ROACH	Insects	1	1	[0, 0, 0]	n/a	catFR1	6	R1495J
160.915	1.599	328173	WORD	n/a	wordpools/wordpool_categorized_EN.txt	BEETLE	Insects	2	1	[0, 0, 0]	n/a	catFR1	6	R1495J
162.514	0.8	329776	WORD_OFF	n/a	n/a	BEETLE	Insects	2	1	[0, 0, 0]	n/a	catFR1	6	R1495J
163.314	1.617	330577	WORD	n/a	wordpools/wordpool_categorized_EN.txt	TOE	BodyParts	3	1	[0, 0, 0]	n/a	catFR1	6	R1495J
164.931	0.799	332192	WORD_OFF	n/a	n/a	TOE	BodyParts	3	1	[0, 0, 0]	n/a	catFR1	6	R1495J
165.73	1.601	332993	WORD	n/a	wordpools/wordpool_categorized_EN.txt	NOSE	BodyParts	4	1	[0, 0, 0]	n/a	catFR1	6	R1495J
167.331	0.983	334596	WORD_OFF	n/a	n/a	NOSE	BodyParts	4	1	[0, 0, 0]	n/a	catFR1	6	R1495J
168.314	1.6	335575	WORD	n/a	wordpools/wordpool_categorized_EN.txt	OYSTER	OceanAnimals	5	1	[0, 0, 0]	n/a	catFR1	6	R1495J
169.914	0.967	337178	WORD_OFF	n/a	n/a	OYSTER	OceanAnimals	5	1	[0, 0, 0]	n/a	catFR1	6	R1495J
170.881	1.617	338144	WORD	n/a	wordpools/wordpool_categorized_EN.txt	PLANKTON	OceanAnimals	6	1	[0, 0, 0]	n/a	catFR1	6	R1495J
172.498	0.8	339759	WORD_OFF	n/a	n/a	PLANKTON	OceanAnimals	6	1	[0, 0, 0]	n/a	catFR1	6	R1495J
173.298	1.617	340560	WORD	n/a	wordpools/wordpool_categorized_EN.txt	FLY	Insects	7	1	[0, 0, 0]	n/a	catFR1	6	R1495J
174.915	0.982	342176	WORD_OFF	n/a	n/a	FLY	Insects	7	1	[0, 0, 0]	n/a	catFR1	6	R1495J
175.897	1.6	343155	WORD	n/a	wordpools/wordpool_categorized_EN.txt	ANT	Insects	8	1	[0, 0, 0]	n/a	catFR1	6	R1495J
177.497	0.766	344757	WORD_OFF	n/a	n/a	ANT	Insects	8	1	[0, 0, 0]	n/a	catFR1	6	R1495J
178.263	1.602	345520	WORD	n/a	wordpools/wordpool_categorized_EN.txt	JELLYFISH	OceanAnimals	9	1	[0, 0, 0]	n/a	catFR1	6	R1495J
179.865	0.85	347123	WORD_OFF	n/a	n/a	JELLYFISH	OceanAnimals	9	1	[0, 0, 0]	n/a	catFR1	6	R1495J
180.715	1.6	347975	WORD	n/a	wordpools/wordpool_categorized_EN.txt	FISH	OceanAnimals	10	1	[0, 0, 0]	n/a	catFR1	6	R1495J
182.315	0.882	349578	WORD_OFF	n/a	n/a	FISH	OceanAnimals	10	1	[0, 0, 0]	n/a	catFR1	6	R1495J
183.197	1.618	350455	WORD	n/a	wordpools/wordpool_categorized_EN.txt	LEG	BodyParts	11	1	[0, 0, 0]	n/a	catFR1	6	R1495J
184.815	0.916	352070	WORD_OFF	n/a	n/a	LEG	BodyParts	11	1	[0, 0, 0]	n/a	catFR1	6	R1495J
185.731	1.601	352986	WORD	n/a	wordpools/wordpool_categorized_EN.txt	ELBOW	BodyParts	12	1	[0, 0, 0]	n/a	catFR1	6	R1495J
187.332	0.002	354588	WORD_OFF	n/a	n/a	ELBOW	BodyParts	12	1	[0, 0, 0]	n/a	catFR1	6	R1495J
187.334	0.0	354588	ENCODING_END	n/a	n/a	n/a	n/a	-999	1	[0, 0, 0]	n/a	catFR1	6	R1495J
187.333	0.001	354592	PROB	0.001	n/a	n/a	n/a	-999	1	[6, 8, 8]	22	catFR1	6	R1495J
187.334	0.0	354593	START	n/a	n/a	n/a	n/a	-999	1	[-999, -999, -999]	n/a	catFR1	6	R1495J
187.334	5.465	354601	DISTRACT_START	n/a	n/a	n/a	n/a	-999	1	[0, 0, 0]	n/a	catFR1	6	R1495J
192.799	2.817	360058	PROB	2.817	n/a	n/a	n/a	-999	1	[6, 1, 3]	10	catFR1	6	R1495J
195.616	2.3	362875	PROB	2.3	n/a	n/a	n/a	-999	1	[1, 1, 6]	8	catFR1	6	R1495J
197.916	3.333	365175	PROB	3.333	n/a	n/a	n/a	-999	1	[7, 5, 1]	13	catFR1	6	R1495J
201.249	3.517	368508	PROB	3.517	n/a	n/a	n/a	-999	1	[1, 5, 7]	13	catFR1	6	R1495J
204.766	4.2	372024	PROB	4.2	n/a	n/a	n/a	-999	1	[8, 6, 6]	20	catFR1	6	R1495J
208.966	0.0	376222	DISTRACT_END	n/a	n/a	n/a	n/a	-999	1	[0, 0, 0]	n/a	catFR1	6	R1495J
208.966	2.083	376224	STOP	n/a	n/a	n/a	n/a	-999	1	[-999, -999, -999]	n/a	catFR1	6	R1495J
211.049	0.435	378303	REC_START	n/a	n/a	n/a	n/a	-999	1	[0, 0, 0]	n/a	catFR1	6	R1495J
211.484	0.386	378742	REC_WORD	0.386	n/a	ANT	Insects	8	1	[0, 0, 0]	n/a	catFR1	6	R1495J
211.87	1.368	379128	REC_WORD	1.368	n/a	ROACH	Insects	1	1	[0, 0, 0]	n/a	catFR1	6	R1495J
213.238	0.879	380496	REC_WORD	0.879	n/a	JELLYFISH	OceanAnimals	9	1	[0, 0, 0]	n/a	catFR1	6	R1495J
214.117	5.652	381375	REC_WORD	5.652	n/a	FISH	OceanAnimals	10	1	[0, 0, 0]	n/a	catFR1	6	R1495J
219.769	0.546	387027	REC_WORD	0.546	n/a	ELBOW	BodyParts	12	1	[0, 0, 0]	n/a	catFR1	6	R1495J
220.315	20.929	387573	REC_WORD	20.929	n/a	LEG	BodyParts	11	1	[0, 0, 0]	n/a	catFR1	6	R1495J
241.244	2.072	408500	REC_END	n/a	n/a	n/a	n/a	-999	1	[0, 0, 0]	n/a	catFR1	6	R1495J
243.316	10.349	410573	COUNTDOWN_START	n/a	n/a	n/a	n/a	-999	2	[0, 0, 0]	n/a	catFR1	6	R1495J
253.665	0.0	420925	COUNTDOWN_END	n/a	n/a	n/a	n/a	-999	2	[0, 0, 0]	n/a	catFR1	6	R1495J
253.665	2.233	420925	ENCODING_START	n/a	n/a	n/a	n/a	-999	2	[0, 0, 0]	n/a	catFR1	6	R1495J
255.898	1.615	423151	WORD	n/a	wordpools/wordpool_categorized_EN.txt	PEELER	KitchenTools	1	2	[0, 0, 0]	n/a	catFR1	6	R1495J
257.513	0.936	424766	WORD_OFF	n/a	n/a	PEELER	KitchenTools	1	2	[0, 0, 0]	n/a	catFR1	6	R1495J
258.449	1.615	425707	WORD	n/a	wordpools/wordpool_categorized_EN.txt	GRATER	KitchenTools	2	2	[0, 0, 0]	n/a	catFR1	6	R1495J
260.064	0.767	427322	WORD_OFF	n/a	n/a	GRATER	KitchenTools	2	2	[0, 0, 0]	n/a	catFR1	6	R1495J
260.831	1.617	428085	WORD	n/a	wordpools/wordpool_categorized_EN.txt	MIXER	Appliances	3	2	[0, 0, 0]	n/a	catFR1	6	R1495J
262.448	0.901	429700	WORD_OFF	n/a	n/a	MIXER	Appliances	3	2	[0, 0, 0]	n/a	catFR1	6	R1495J
263.349	1.615	430603	WORD	n/a	wordpools/wordpool_categorized_EN.txt	STOVE	Appliances	4	2	[0, 0, 0]	n/a	catFR1	6	R1495J
264.964	0.985	432219	WORD_OFF	n/a	n/a	STOVE	Appliances	4	2	[0, 0, 0]	n/a	catFR1	6	R1495J
265.949	1.615	433211	WORD	n/a	wordpools/wordpool_categorized_EN.txt	STAPLER	OfficeSupplies	5	2	[0, 0, 0]	n/a	catFR1	6	R1495J
267.564	0.834	434826	WORD_OFF	n/a	n/a	STAPLER	OfficeSupplies	5	2	[0, 0, 0]	n/a	catFR1	6	R1495J
268.398	1.617	435652	WORD	n/a	wordpools/wordpool_categorized_EN.txt	PENCIL	OfficeSupplies	6	2	[0, 0, 0]	n/a	catFR1	6	R1495J
270.015	0.915	437268	WORD_OFF	n/a	n/a	PENCIL	OfficeSupplies	6	2	[0, 0, 0]	n/a	catFR1	6	R1495J
270.93	1.601	438183	WORD	n/a	wordpools/wordpool_categorized_EN.txt	FREEZER	Appliances	7	2	[0, 0, 0]	n/a	catFR1	6	R1495J
272.531	0.884	439786	WORD_OFF	n/a	n/a	FREEZER	Appliances	7	2	[0, 0, 0]	n/a	catFR1	6	R1495J
273.415	1.617	440676	WORD	n/a	wordpools/wordpool_categorized_EN.txt	REFRIGERATOR	Appliances	8	2	[0, 0, 0]	n/a	catFR1	6	R1495J
275.032	0.915	442291	WORD_OFF	n/a	n/a	REFRIGERATOR	Appliances	8	2	[0, 0, 0]	n/a	catFR1	6	R1495J
275.947	1.601	443207	WORD	n/a	wordpools/wordpool_categorized_EN.txt	PEN	OfficeSupplies	9	2	[0, 0, 0]	n/a	catFR1	6	R1495J
277.548	0.784	444809	WORD_OFF	n/a	n/a	PEN	OfficeSupplies	9	2	[0, 0, 0]	n/a	catFR1	6	R1495J
278.332	1.616	445585	WORD	n/a	wordpools/wordpool_categorized_EN.txt	NOTEBOOK	OfficeSupplies	10	2	[0, 0, 0]	n/a	catFR1	6	R1495J
279.948	0.999	447200	WORD_OFF	n/a	n/a	NOTEBOOK	OfficeSupplies	10	2	[0, 0, 0]	n/a	catFR1	6	R1495J
280.947	1.602	448205	WORD	n/a	wordpools/wordpool_categorized_EN.txt	WHISK	KitchenTools	11	2	[0, 0, 0]	n/a	catFR1	6	R1495J
282.549	0.982	449808	WORD_OFF	n/a	n/a	WHISK	KitchenTools	11	2	[0, 0, 0]	n/a	catFR1	6	R1495J
283.531	1.601	450787	WORD	n/a	wordpools/wordpool_categorized_EN.txt	COLANDER	KitchenTools	12	2	[0, 0, 0]	n/a	catFR1	6	R1495J
285.132	0.0	452387	PROB	0.0	n/a	n/a	n/a	-999	2	[2, 1, 5]	8	catFR1	6	R1495J
285.132	0.003	452389	WORD_OFF	n/a	n/a	COLANDER	KitchenTools	12	2	[0, 0, 0]	n/a	catFR1	6	R1495J
285.135	0.0	452389	ENCODING_END	n/a	n/a	n/a	n/a	-999	2	[0, 0, 0]	n/a	catFR1	6	R1495J
285.135	0.0	452389	DISTRACT_START	n/a	n/a	n/a	n/a	-999	2	[0, 0, 0]	n/a	catFR1	6	R1495J
285.135	2.846	452390	START	n/a	n/a	n/a	n/a	-999	2	[-999, -999, -999]	n/a	catFR1	6	R1495J
287.981	2.401	455236	PROB	2.401	n/a	n/a	n/a	-999	2	[6, 2, 4]	12	catFR1	6	R1495J
290.382	6.066	457637	PROB	6.066	n/a	n/a	n/a	-999	2	[2, 4, 7]	13	catFR1	6	R1495J
296.448	2.117	463703	PROB	2.117	n/a	n/a	n/a	-999	2	[8, 1, 2]	11	catFR1	6	R1495J
298.565	2.534	465820	PROB	2.534	n/a	n/a	n/a	-999	2	[5, 2, 3]	10	catFR1	6	R1495J
301.099	2.099	468353	PROB	2.099	n/a	n/a	n/a	-999	2	[1, 1, 8]	10	catFR1	6	R1495J
303.198	2.999	470452	PROB	2.999	n/a	n/a	n/a	-999	2	[4, 5, 4]	13	catFR1	6	R1495J
306.197	0.0	473450	DISTRACT_END	n/a	n/a	n/a	n/a	-999	2	[0, 0, 0]	n/a	catFR1	6	R1495J
306.197	2.283	473451	STOP	n/a	n/a	n/a	n/a	-999	2	[-999, -999, -999]	n/a	catFR1	6	R1495J
308.48	0.153	475735	REC_START	n/a	n/a	n/a	n/a	-999	2	[0, 0, 0]	n/a	catFR1	6	R1495J
308.633	0.712	475887	REC_WORD	0.712	n/a	MIXER	Appliances	3	2	[0, 0, 0]	n/a	catFR1	6	R1495J
309.345	0.857	476599	REC_WORD	0.857	n/a	PEELER	KitchenTools	1	2	[0, 0, 0]	n/a	catFR1	6	R1495J
310.202	3.36	477456	REC_WORD	3.36	n/a	GRATER	KitchenTools	2	2	[0, 0, 0]	n/a	catFR1	6	R1495J
313.562	2.251	480816	REC_WORD	2.251	n/a	REFRIGERATOR	Appliances	8	2	[0, 0, 0]	n/a	catFR1	6	R1495J
315.813	9.604	483067	REC_WORD	9.604	n/a	FREEZER	Appliances	7	2	[0, 0, 0]	n/a	catFR1	6	R1495J
325.417	13.283	492671	REC_WORD	13.283	n/a	WHISK	KitchenTools	11	2	[0, 0, 0]	n/a	catFR1	6	R1495J
338.7	1.431	505957	REC_END	n/a	n/a	n/a	n/a	-999	2	[0, 0, 0]	n/a	catFR1	6	R1495J
340.131	10.35	507382	COUNTDOWN_START	n/a	n/a	n/a	n/a	-999	3	[0, 0, 0]	n/a	catFR1	6	R1495J
350.481	0.0	517734	COUNTDOWN_END	n/a	n/a	n/a	n/a	-999	3	[0, 0, 0]	n/a	catFR1	6	R1495J
350.481	2.184	517734	ENCODING_START	n/a	n/a	n/a	n/a	-999	3	[0, 0, 0]	n/a	catFR1	6	R1495J
352.665	1.616	519922	WORD	n/a	wordpools/wordpool_categorized_EN.txt	CAR	Vehicles	1	3	[0, 0, 0]	n/a	catFR1	6	R1495J
354.281	0.817	521537	WORD_OFF	n/a	n/a	CAR	Vehicles	1	3	[0, 0, 0]	n/a	catFR1	6	R1495J
355.098	1.616	522351	WORD	n/a	wordpools/wordpool_categorized_EN.txt	JEEP	Vehicles	2	3	[0, 0, 0]	n/a	catFR1	6	R1495J
356.714	0.901	523966	WORD_OFF	n/a	n/a	JEEP	Vehicles	2	3	[0, 0, 0]	n/a	catFR1	6	R1495J
357.615	1.6	524869	WORD	n/a	wordpools/wordpool_categorized_EN.txt	SPINACH	Vegetables	3	3	[0, 0, 0]	n/a	catFR1	6	R1495J
359.215	0.983	526471	WORD_OFF	n/a	n/a	SPINACH	Vegetables	3	3	[0, 0, 0]	n/a	catFR1	6	R1495J
360.198	1.6	527451	WORD	n/a	wordpools/wordpool_categorized_EN.txt	PEAS	Vegetables	4	3	[0, 0, 0]	n/a	catFR1	6	R1495J
361.798	0.817	529053	WORD_OFF	n/a	n/a	PEAS	Vegetables	4	3	[0, 0, 0]	n/a	catFR1	6	R1495J
362.615	1.616	529867	WORD	n/a	wordpools/wordpool_categorized_EN.txt	SPATULA	KitchenTools	5	3	[0, 0, 0]	n/a	catFR1	6	R1495J
364.231	0.899	531482	WORD_OFF	n/a	n/a	SPATULA	KitchenTools	5	3	[0, 0, 0]	n/a	catFR1	6	R1495J
365.13	1.618	532385	WORD	n/a	wordpools/wordpool_categorized_EN.txt	STRAINER	KitchenTools	6	3	[0, 0, 0]	n/a	catFR1	6	R1495J
366.748	0.816	534000	WORD_OFF	n/a	n/a	STRAINER	KitchenTools	6	3	[0, 0, 0]	n/a	catFR1	6	R1495J
367.564	1.616	534814	WORD	n/a	wordpools/wordpool_categorized_EN.txt	BIKE	Vehicles	7	3	[0, 0, 0]	n/a	catFR1	6	R1495J
369.18	0.968	536429	WORD_OFF	n/a	n/a	BIKE	Vehicles	7	3	[0, 0, 0]	n/a	catFR1	6	R1495J
370.148	1.616	537396	WORD	n/a	wordpools/wordpool_categorized_EN.txt	VAN	Vehicles	8	3	[0, 0, 0]	n/a	catFR1	6	R1495J
371.764	0.916	539011	WORD_OFF	n/a	n/a	VAN	Vehicles	8	3	[0, 0, 0]	n/a	catFR1	6	R1495J
372.68	1.6	539927	WORD	n/a	wordpools/wordpool_categorized_EN.txt	CUCUMBER	Vegetables	9	3	[0, 0, 0]	n/a	catFR1	6	R1495J
374.28	0.867	541529	WORD_OFF	n/a	n/a	CUCUMBER	Vegetables	9	3	[0, 0, 0]	n/a	catFR1	6	R1495J
375.147	1.601	542394	WORD	n/a	wordpools/wordpool_categorized_EN.txt	CAULIFLOWER	Vegetables	10	3	[0, 0, 0]	n/a	catFR1	6	R1495J
376.748	0.951	543997	WORD_OFF	n/a	n/a	CAULIFLOWER	Vegetables	10	3	[0, 0, 0]	n/a	catFR1	6	R1495J
377.699	1.615	544950	WORD	n/a	wordpools/wordpool_categorized_EN.txt	SPOON	KitchenTools	11	3	[0, 0, 0]	n/a	catFR1	6	R1495J
379.314	0.868	546566	WORD_OFF	n/a	n/a	SPOON	KitchenTools	11	3	[0, 0, 0]	n/a	catFR1	6	R1495J
380.182	1.615	547430	WORD	n/a	wordpools/wordpool_categorized_EN.txt	LADLE	KitchenTools	12	3	[0, 0, 0]	n/a	catFR1	6	R1495J
381.797	0.002	549046	WORD_OFF	n/a	n/a	LADLE	KitchenTools	12	3	[0, 0, 0]	n/a	catFR1	6	R1495J
381.799	0.0	549046	ENCODING_END	n/a	n/a	n/a	n/a	-999	3	[0, 0, 0]	n/a	catFR1	6	R1495J
381.799	0.0	549050	PROB	0.0	n/a	n/a	n/a	-999	3	[4, 7, 2]	13	catFR1	6	R1495J
381.799	0.0	549050	START	n/a	n/a	n/a	n/a	-999	3	[-999, -999, -999]	n/a	catFR1	6	R1495J
381.799	4.283	549058	DISTRACT_START	n/a	n/a	n/a	n/a	-999	3	[0, 0, 0]	n/a	catFR1	6	R1495J
386.082	2.365	553333	PROB	2.365	n/a	n/a	n/a	-999	3	[6, 8, 2]	16	catFR1	6	R1495J
388.447	2.817	555698	PROB	2.817	n/a	n/a	n/a	-999	3	[4, 4, 1]	9	catFR1	6	R1495J
391.264	5.067	558515	PROB	5.067	n/a	n/a	n/a	-999	3	[1, 8, 7]	16	catFR1	6	R1495J
396.331	3.15	563582	PROB	3.15	n/a	n/a	n/a	-999	3	[3, 6, 6]	15	catFR1	6	R1495J
399.481	2.734	566731	PROB	2.734	n/a	n/a	n/a	-999	3	[2, 1, 6]	9	catFR1	6	R1495J
402.215	0.0	569465	STOP	n/a	n/a	n/a	n/a	-999	3	[-999, -999, -999]	n/a	catFR1	6	R1495J
402.215	2.399	569471	DISTRACT_END	n/a	n/a	n/a	n/a	-999	3	[0, 0, 0]	n/a	catFR1	6	R1495J
404.614	0.959	571870	REC_START	n/a	n/a	n/a	n/a	-999	3	[0, 0, 0]	n/a	catFR1	6	R1495J
405.573	0.656	572823	REC_WORD	0.656	n/a	VAN	Vehicles	8	3	[0, 0, 0]	n/a	catFR1	6	R1495J
406.229	4.198	573479	REC_WORD	4.198	n/a	JEEP	Vehicles	2	3	[0, 0, 0]	n/a	catFR1	6	R1495J
410.427	1.853	577677	REC_WORD	1.853	n/a	SPINACH	Vegetables	3	3	[0, 0, 0]	n/a	catFR1	6	R1495J
412.28	10.763	579530	REC_WORD	10.763	n/a	CAULIFLOWER	Vegetables	10	3	[0, 0, 0]	n/a	catFR1	6	R1495J
423.043	11.792	590293	REC_WORD	11.792	n/a	ANT	Insects	-999	3	[0, 0, 0]	n/a	catFR1	6	R1495J
434.835	1.63	602079	REC_END	n/a	n/a	n/a	n/a	-999	3	[0, 0, 0]	n/a	catFR1	6	R1495J
436.465	10.351	603720	COUNTDOWN_START	n/a	n/a	n/a	n/a	-999	4	[0, 0, 0]	n/a	catFR1	6	R1495J
446.816	0.0	614060	COUNTDOWN_END	n/a	n/a	n/a	n/a	-999	4	[0, 0, 0]	n/a	catFR1	6	R1495J
446.816	2.133	614072	ENCODING_START	n/a	n/a	n/a	n/a	-999	4	[0, 0, 0]	n/a	catFR1	6	R1495J
448.949	1.615	616196	WORD	n/a	wordpools/wordpool_categorized_EN.txt	ORCHID	Flowers	1	4	[0, 0, 0]	n/a	catFR1	6	R1495J
450.564	0.933	617812	WORD_OFF	n/a	n/a	ORCHID	Flowers	1	4	[0, 0, 0]	n/a	catFR1	6	R1495J
451.497	1.601	618740	WORD	n/a	wordpools/wordpool_categorized_EN.txt	TULIP	Flowers	2	4	[0, 0, 0]	n/a	catFR1	6	R1495J
453.098	0.95	620342	WORD_OFF	n/a	n/a	TULIP	Flowers	2	4	[0, 0, 0]	n/a	catFR1	6	R1495J
454.048	1.601	621309	WORD	n/a	wordpools/wordpool_categorized_EN.txt	FOLDER	OfficeSupplies	3	4	[0, 0, 0]	n/a	catFR1	6	R1495J
455.649	0.765	622899	WORD_OFF	n/a	n/a	FOLDER	OfficeSupplies	3	4	[0, 0, 0]	n/a	catFR1	6	R1495J
456.414	1.6	623662	WORD	n/a	wordpools/wordpool_categorized_EN.txt	BINDER	OfficeSupplies	4	4	[0, 0, 0]	n/a	catFR1	6	R1495J
458.014	0.917	625264	WORD_OFF	n/a	n/a	BINDER	OfficeSupplies	4	4	[0, 0, 0]	n/a	catFR1	6	R1495J
458.931	1.617	626180	WORD	n/a	wordpools/wordpool_categorized_EN.txt	BIRCH	Trees	5	4	[0, 0, 0]	n/a	catFR1	6	R1495J
460.548	0.967	627795	WORD_OFF	n/a	n/a	BIRCH	Trees	5	4	[0, 0, 0]	n/a	catFR1	6	R1495J
461.515	1.616	628762	WORD	n/a	wordpools/wordpool_categorized_EN.txt	CEDAR	Trees	6	4	[0, 0, 0]	n/a	catFR1	6	R1495J
463.131	0.917	630377	WORD_OFF	n/a	n/a	CEDAR	Trees	6	4	[0, 0, 0]	n/a	catFR1	6	R1495J
464.048	1.616	631293	WORD	n/a	wordpools/wordpool_categorized_EN.txt	VIOLET	Flowers	7	4	[0, 0, 0]	n/a	catFR1	6	R1495J
465.664	0.983	632908	WORD_OFF	n/a	n/a	VIOLET	Flowers	7	4	[0, 0, 0]	n/a	catFR1	6	R1495J
466.647	1.602	633900	WORD	n/a	wordpools/wordpool_categorized_EN.txt	DAISY	Flowers	8	4	[0, 0, 0]	n/a	catFR1	6	R1495J
468.249	0.949	635502	WORD_OFF	n/a	n/a	DAISY	Flowers	8	4	[0, 0, 0]	n/a	catFR1	6	R1495J
469.198	1.6	636443	WORD	n/a	wordpools/wordpool_categorized_EN.txt	EVERGREEN	Trees	9	4	[0, 0, 0]	n/a	catFR1	6	R1495J
470.798	0.949	638046	WORD_OFF	n/a	n/a	EVERGREEN	Trees	9	4	[0, 0, 0]	n/a	catFR1	6	R1495J
471.747	1.6	639000	WORD	n/a	wordpools/wordpool_categorized_EN.txt	CYPRESS	Trees	10	4	[0, 0, 0]	n/a	catFR1	6	R1495J
473.347	0.801	640589	WORD_OFF	n/a	n/a	CYPRESS	Trees	10	4	[0, 0, 0]	n/a	catFR1	6	R1495J
474.148	1.615	641391	WORD	n/a	wordpools/wordpool_categorized_EN.txt	TAPE	OfficeSupplies	11	4	[0, 0, 0]	n/a	catFR1	6	R1495J
475.763	0.951	643006	WORD_OFF	n/a	n/a	TAPE	OfficeSupplies	11	4	[0, 0, 0]	n/a	catFR1	6	R1495J
476.714	1.6	643960	WORD	n/a	wordpools/wordpool_categorized_EN.txt	MARKER	OfficeSupplies	12	4	[0, 0, 0]	n/a	catFR1	6	R1495J
478.314	0.001	645562	WORD_OFF	n/a	n/a	MARKER	OfficeSupplies	12	4	[0, 0, 0]	n/a	catFR1	6	R1495J
478.315	0.0	645562	ENCODING_END	n/a	n/a	n/a	n/a	-999	4	[0, 0, 0]	n/a	catFR1	6	R1495J
478.315	0.0	645562	DISTRACT_START	n/a	n/a	n/a	n/a	-999	4	[0, 0, 0]	n/a	catFR1	6	R1495J
478.315	0.0	645562	START	n/a	n/a	n/a	n/a	-999	4	[-999, -999, -999]	n/a	catFR1	6	R1495J
478.315	3.166	645562	PROB	3.166	n/a	n/a	n/a	-999	4	[6, 4, 2]	12	catFR1	6	R1495J
481.481	2.683	648728	PROB	2.683	n/a	n/a	n/a	-999	4	[1, 2, 3]	6	catFR1	6	R1495J
484.164	2.701	651411	PROB	2.701	n/a	n/a	n/a	-999	4	[3, 4, 7]	14	catFR1	6	R1495J
486.865	3.699	654112	PROB	3.699	n/a	n/a	n/a	-999	4	[5, 2, 7]	14	catFR1	6	R1495J
490.564	5.584	657811	PROB	5.584	n/a	n/a	n/a	-999	4	[8, 7, 6]	21	catFR1	6	R1495J
496.148	3.283	663394	PROB	3.283	n/a	n/a	n/a	-999	4	[8, 3, 2]	13	catFR1	6	R1495J
499.431	0.0	666674	DISTRACT_END	n/a	n/a	n/a	n/a	-999	4	[0, 0, 0]	n/a	catFR1	6	R1495J
499.431	2.15	666677	STOP	n/a	n/a	n/a	n/a	-999	4	[-999, -999, -999]	n/a	catFR1	6	R1495J
501.581	0.203	668831	REC_START	n/a	n/a	n/a	n/a	-999	4	[0, 0, 0]	n/a	catFR1	6	R1495J
501.784	1.321	669030	REC_WORD	1.321	n/a	ORCHID	Flowers	1	4	[0, 0, 0]	n/a	catFR1	6	R1495J
503.105	2.414	670351	REC_WORD	2.414	n/a	EVERGREEN	Trees	9	4	[0, 0, 0]	n/a	catFR1	6	R1495J
505.519	14.256	672765	REC_WORD	14.256	n/a	VIOLET	Flowers	7	4	[0, 0, 0]	n/a	catFR1	6	R1495J
519.775	2.879	687021	REC_WORD	2.879	n/a	TULIP	Flowers	2	4	[0, 0, 0]	n/a	catFR1	6	R1495J
522.654	9.151	689899	REC_WORD	9.151	n/a	DAISY	Flowers	8	4	[0, 0, 0]	n/a	catFR1	6	R1495J
531.805	1.527	699054	REC_END	n/a	n/a	n/a	n/a	-999	4	[0, 0, 0]	n/a	catFR1	6	R1495J
533.332	10.349	700580	COUNTDOWN_START	n/a	n/a	n/a	n/a	-999	5	[0, 0, 0]	n/a	catFR1	6	R1495J
543.681	0.0	710932	COUNTDOWN_END	n/a	n/a	n/a	n/a	-999	5	[0, 0, 0]	n/a	catFR1	6	R1495J
543.681	2.302	710932	ENCODING_START	n/a	n/a	n/a	n/a	-999	5	[0, 0, 0]	n/a	catFR1	6	R1495J
545.983	1.615	713234	WORD	n/a	wordpools/wordpool_categorized_EN.txt	OAK	Trees	1	5	[0, 0, 0]	n/a	catFR1	6	R1495J
547.598	0.816	714849	WORD_OFF	n/a	n/a	OAK	Trees	1	5	[0, 0, 0]	n/a	catFR1	6	R1495J
548.414	1.6	715663	WORD	n/a	wordpools/wordpool_categorized_EN.txt	MAPLE	Trees	2	5	[0, 0, 0]	n/a	catFR1	6	R1495J
550.014	0.818	717253	WORD_OFF	n/a	n/a	MAPLE	Trees	2	5	[0, 0, 0]	n/a	catFR1	6	R1495J
550.832	1.616	718080	WORD	n/a	wordpools/wordpool_categorized_EN.txt	TROMBONE	Instruments	3	5	[0, 0, 0]	n/a	catFR1	6	R1495J
552.448	0.867	719695	WORD_OFF	n/a	n/a	TROMBONE	Instruments	3	5	[0, 0, 0]	n/a	catFR1	6	R1495J
553.315	1.616	720560	WORD	n/a	wordpools/wordpool_categorized_EN.txt	ORGAN	Instruments	4	5	[0, 0, 0]	n/a	catFR1	6	R1495J
554.931	0.817	722175	WORD_OFF	n/a	n/a	ORGAN	Instruments	4	5	[0, 0, 0]	n/a	catFR1	6	R1495J
555.748	1.615	722989	WORD	n/a	wordpools/wordpool_categorized_EN.txt	BLUEBIRD	Birds	5	5	[0, 0, 0]	n/a	catFR1	6	R1495J
557.363	0.985	724604	WORD_OFF	n/a	n/a	BLUEBIRD	Birds	5	5	[0, 0, 0]	n/a	catFR1	6	R1495J
558.348	1.601	725596	WORD	n/a	wordpools/wordpool_categorized_EN.txt	CARDINAL	Birds	6	5	[0, 0, 0]	n/a	catFR1	6	R1495J
559.949	0.848	727198	WORD_OFF	n/a	n/a	CARDINAL	Birds	6	5	[0, 0, 0]	n/a	catFR1	6	R1495J
560.797	1.601	728038	WORD	n/a	wordpools/wordpool_categorized_EN.txt	TRUMPET	Instruments	7	5	[0, 0, 0]	n/a	catFR1	6	R1495J
562.398	0.916	729640	WORD_OFF	n/a	n/a	TRUMPET	Instruments	7	5	[0, 0, 0]	n/a	catFR1	6	R1495J
563.314	1.618	730556	WORD	n/a	wordpools/wordpool_categorized_EN.txt	TUBA	Instruments	8	5	[0, 0, 0]	n/a	catFR1	6	R1495J
564.932	0.833	732171	WORD_OFF	n/a	n/a	TUBA	Instruments	8	5	[0, 0, 0]	n/a	catFR1	6	R1495J
565.765	1.616	733011	WORD	n/a	wordpools/wordpool_categorized_EN.txt	HAWK	Birds	9	5	[0, 0, 0]	n/a	catFR1	6	R1495J
567.381	0.834	734626	WORD_OFF	n/a	n/a	HAWK	Birds	9	5	[0, 0, 0]	n/a	catFR1	6	R1495J
568.215	1.616	735465	WORD	n/a	wordpools/wordpool_categorized_EN.txt	GOOSE	Birds	10	5	[0, 0, 0]	n/a	catFR1	6	R1495J
569.831	0.901	737080	WORD_OFF	n/a	n/a	GOOSE	Birds	10	5	[0, 0, 0]	n/a	catFR1	6	R1495J
570.732	1.616	737971	WORD	n/a	wordpools/wordpool_categorized_EN.txt	SPRUCE	Trees	11	5	[0, 0, 0]	n/a	catFR1	6	R1495J
572.348	0.783	739598	WORD_OFF	n/a	n/a	SPRUCE	Trees	11	5	[0, 0, 0]	n/a	catFR1	6	R1495J
573.131	1.618	740374	WORD	n/a	wordpools/wordpool_categorized_EN.txt	ELM	Trees	12	5	[0, 0, 0]	n/a	catFR1	6	R1495J
574.749	0.0	741989	WORD_OFF	n/a	n/a	ELM	Trees	12	5	[0, 0, 0]	n/a	catFR1	6	R1495J
574.748	0.004	741991	PROB	0.004	n/a	n/a	n/a	-999	5	[8, 3, 8]	19	catFR1	6	R1495J
574.752	0.0	741995	START	n/a	n/a	n/a	n/a	-999	5	[-999, -999, -999]	n/a	catFR1	6	R1495J
574.752	0.0	742002	ENCODING_END	n/a	n/a	n/a	n/a	-999	5	[0, 0, 0]	n/a	catFR1	6	R1495J
574.752	4.978	742002	DISTRACT_START	n/a	n/a	n/a	n/a	-999	5	[0, 0, 0]	n/a	catFR1	6	R1495J
579.73	2.551	746973	PROB	2.551	n/a	n/a	n/a	-999	5	[4, 6, 5]	15	catFR1	6	R1495J
582.281	4.416	749524	PROB	4.416	n/a	n/a	n/a	-999	5	[5, 7, 8]	20	catFR1	6	R1495J
586.697	2.884	753940	PROB	2.884	n/a	n/a	n/a	-999	5	[4, 1, 3]	8	catFR1	6	R1495J
589.581	2.251	756824	PROB	2.251	n/a	n/a	n/a	-999	5	[4, 6, 1]	11	catFR1	6	R1495J
591.832	3.1	759075	PROB	3.1	n/a	n/a	n/a	-999	5	[6, 6, 5]	17	catFR1	6	R1495J
594.932	0.0	762173	DISTRACT_END	n/a	n/a	n/a	n/a	-999	5	[0, 0, 0]	n/a	catFR1	6	R1495J
594.932	2.399	762174	STOP	n/a	n/a	n/a	n/a	-999	5	[-999, -999, -999]	n/a	catFR1	6	R1495J
597.331	0.257	764572	REC_START	n/a	n/a	n/a	n/a	-999	5	[0, 0, 0]	n/a	catFR1	6	R1495J
597.588	7.834	764830	REC_WORD	7.834	n/a	OAK	Trees	1	5	[0, 0, 0]	n/a	catFR1	6	R1495J
605.422	22.126	772664	REC_WORD	22.126	n/a	SPRUCE	Trees	11	5	[0, 0, 0]	n/a	catFR1	6	R1495J
627.548	1.683	794794	REC_END	n/a	n/a	n/a	n/a	-999	5	[0, 0, 0]	n/a	catFR1	6	R1495J
629.231	10.349	796473	COUNTDOWN_START	n/a	n/a	n/a	n/a	-999	6	[0, 0, 0]	n/a	catFR1	6	R1495J
639.58	0.001	806826	COUNTDOWN_END	n/a	n/a	n/a	n/a	-999	6	[0, 0, 0]	n/a	catFR1	6	R1495J
639.581	2.2	806826	ENCODING_START	n/a	n/a	n/a	n/a	-999	6	[0, 0, 0]	n/a	catFR1	6	R1495J
641.781	1.6	809026	WORD	n/a	wordpools/wordpool_categorized_EN.txt	DRILL	Tools	1	6	[0, 0, 0]	n/a	catFR1	6	R1495J
643.381	0.783	810628	WORD_OFF	n/a	n/a	DRILL	Tools	1	6	[0, 0, 0]	n/a	catFR1	6	R1495J
644.164	1.601	811404	WORD	n/a	wordpools/wordpool_categorized_EN.txt	SHOVEL	Tools	2	6	[0, 0, 0]	n/a	catFR1	6	R1495J
645.765	0.884	813006	WORD_OFF	n/a	n/a	SHOVEL	Tools	2	6	[0, 0, 0]	n/a	catFR1	6	R1495J
646.649	1.616	813884	WORD	n/a	wordpools/wordpool_categorized_EN.txt	DAFFODIL	Flowers	3	6	[0, 0, 0]	n/a	catFR1	6	R1495J
648.265	0.783	815499	WORD_OFF	n/a	n/a	DAFFODIL	Flowers	3	6	[0, 0, 0]	n/a	catFR1	6	R1495J
649.048	1.6	816288	WORD	n/a	wordpools/wordpool_categorized_EN.txt	SUNFLOWER	Flowers	4	6	[0, 0, 0]	n/a	catFR1	6	R1495J
650.648	0.783	817890	WORD_OFF	n/a	n/a	SUNFLOWER	Flowers	4	6	[0, 0, 0]	n/a	catFR1	6	R1495J
651.431	1.617	818666	WORD	n/a	wordpools/wordpool_categorized_EN.txt	PANTS	Clothing	5	6	[0, 0, 0]	n/a	catFR1	6	R1495J
653.048	0.934	820294	WORD_OFF	n/a	n/a	PANTS	Clothing	5	6	[0, 0, 0]	n/a	catFR1	6	R1495J
653.982	1.615	821222	WORD	n/a	wordpools/wordpool_categorized_EN.txt	SKIRT	Clothing	6	6	[0, 0, 0]	n/a	catFR1	6	R1495J
655.597	0.917	822837	WORD_OFF	n/a	n/a	SKIRT	Clothing	6	6	[0, 0, 0]	n/a	catFR1	6	R1495J
656.514	1.617	823753	WORD	n/a	wordpools/wordpool_categorized_EN.txt	SCREWDRIVER	Tools	7	6	[0, 0, 0]	n/a	catFR1	6	R1495J
658.131	0.782	825368	WORD_OFF	n/a	n/a	SCREWDRIVER	Tools	7	6	[0, 0, 0]	n/a	catFR1	6	R1495J
658.913	1.601	826157	WORD	n/a	wordpools/wordpool_categorized_EN.txt	RATCHET	Tools	8	6	[0, 0, 0]	n/a	catFR1	6	R1495J
660.514	0.834	827759	WORD_OFF	n/a	n/a	RATCHET	Tools	8	6	[0, 0, 0]	n/a	catFR1	6	R1495J
661.348	1.616	828586	WORD	n/a	wordpools/wordpool_categorized_EN.txt	JACKET	Clothing	9	6	[0, 0, 0]	n/a	catFR1	6	R1495J
662.964	0.783	830201	WORD_OFF	n/a	n/a	JACKET	Clothing	9	6	[0, 0, 0]	n/a	catFR1	6	R1495J
663.747	1.601	830990	WORD	n/a	wordpools/wordpool_categorized_EN.txt	JEANS	Clothing	10	6	[0, 0, 0]	n/a	catFR1	6	R1495J
665.348	0.916	832592	WORD_OFF	n/a	n/a	JEANS	Clothing	10	6	[0, 0, 0]	n/a	catFR1	6	R1495J
666.264	1.616	833508	WORD	n/a	wordpools/wordpool_categorized_EN.txt	LILAC	Flowers	11	6	[0, 0, 0]	n/a	catFR1	6	R1495J
667.88	0.885	835123	WORD_OFF	n/a	n/a	LILAC	Flowers	11	6	[0, 0, 0]	n/a	catFR1	6	R1495J
668.765	1.616	836000	WORD	n/a	wordpools/wordpool_categorized_EN.txt	CARNATION	Flowers	12	6	[0, 0, 0]	n/a	catFR1	6	R1495J
670.381	0.001	837616	WORD_OFF	n/a	n/a	CARNATION	Flowers	12	6	[0, 0, 0]	n/a	catFR1	6	R1495J
670.382	0.002	837621	PROB	0.002	n/a	n/a	n/a	-999	6	[6, 2, 2]	10	catFR1	6	R1495J
670.384	0.0	837623	START	n/a	n/a	n/a	n/a	-999	6	[-999, -999, -999]	n/a	catFR1	6	R1495J
670.384	0.0	837628	ENCODING_END	n/a	n/a	n/a	n/a	-999	6	[0, 0, 0]	n/a	catFR1	6	R1495J
670.384	2.998	837628	DISTRACT_START	n/a	n/a	n/a	n/a	-999	6	[0, 0, 0]	n/a	catFR1	6	R1495J
673.382	4.765	840621	PROB	4.765	n/a	n/a	n/a	-999	6	[7, 6, 7]	20	catFR1	6	R1495J
678.147	3.167	845386	PROB	3.167	n/a	n/a	n/a	-999	6	[4, 6, 7]	17	catFR1	6	R1495J
681.314	2.967	848553	PROB	2.967	n/a	n/a	n/a	-999	6	[4, 6, 3]	13	catFR1	6	R1495J
684.281	2.767	851520	PROB	2.767	n/a	n/a	n/a	-999	6	[5, 3, 7]	15	catFR1	6	R1495J
687.048	3.548	854287	PROB	3.548	n/a	n/a	n/a	-999	6	[3, 8, 8]	19	catFR1	6	R1495J
690.596	0.0	857835	STOP	n/a	n/a	n/a	n/a	-999	6	[-999, -999, -999]	n/a	catFR1	6	R1495J
690.596	2.035	857837	DISTRACT_END	n/a	n/a	n/a	n/a	-999	6	[0, 0, 0]	n/a	catFR1	6	R1495J
692.631	0.243	859867	REC_START	n/a	n/a	n/a	n/a	-999	6	[0, 0, 0]	n/a	catFR1	6	R1495J
692.874	2.988	860112	REC_WORD	2.988	n/a	SCREWDRIVER	Tools	7	6	[0, 0, 0]	n/a	catFR1	6	R1495J
695.862	26.991	863100	REC_WORD	26.991	n/a	DRILL	Tools	1	6	[0, 0, 0]	n/a	catFR1	6	R1495J
722.853	3.912	890090	REC_END	n/a	n/a	n/a	n/a	-999	6	[0, 0, 0]	n/a	catFR1	6	R1495J
726.765	10.35	894007	COUNTDOWN_START	n/a	n/a	n/a	n/a	-999	7	[0, 0, 0]	n/a	catFR1	6	R1495J
737.115	0.001	904347	COUNTDOWN_END	n/a	n/a	n/a	n/a	-999	7	[0, 0, 0]	n/a	catFR1	6	R1495J
737.116	2.165	904359	ENCODING_START	n/a	n/a	n/a	n/a	-999	7	[0, 0, 0]	n/a	catFR1	6	R1495J
739.281	1.617	906521	WORD	n/a	wordpools/wordpool_categorized_EN.txt	COLA	Beverages	1	7	[0, 0, 0]	n/a	catFR1	6	R1495J
740.898	0.867	908137	WORD_OFF	n/a	n/a	COLA	Beverages	1	7	[0, 0, 0]	n/a	catFR1	6	R1495J
741.765	1.6	909001	WORD	n/a	wordpools/wordpool_categorized_EN.txt	LEMONADE	Beverages	2	7	[0, 0, 0]	n/a	catFR1	6	R1495J
743.365	0.883	910604	WORD_OFF	n/a	n/a	LEMONADE	Beverages	2	7	[0, 0, 0]	n/a	catFR1	6	R1495J
744.248	1.6	911481	WORD	n/a	wordpools/wordpool_categorized_EN.txt	COUCH	Furniture	3	7	[0, 0, 0]	n/a	catFR1	6	R1495J
745.848	0.766	913084	WORD_OFF	n/a	n/a	COUCH	Furniture	3	7	[0, 0, 0]	n/a	catFR1	6	R1495J
746.614	1.617	913847	WORD	n/a	wordpools/wordpool_categorized_EN.txt	SHELF	Furniture	4	7	[0, 0, 0]	n/a	catFR1	6	R1495J
748.231	0.934	915462	WORD_OFF	n/a	n/a	SHELF	Furniture	4	7	[0, 0, 0]	n/a	catFR1	6	R1495J
749.165	1.617	916403	WORD	n/a	wordpools/wordpool_categorized_EN.txt	CHERRY	Fruit	5	7	[0, 0, 0]	n/a	catFR1	6	R1495J
750.782	0.948	918018	WORD_OFF	n/a	n/a	CHERRY	Fruit	5	7	[0, 0, 0]	n/a	catFR1	6	R1495J
751.73	1.6	918972	WORD	n/a	wordpools/wordpool_categorized_EN.txt	PLUM	Fruit	6	7	[0, 0, 0]	n/a	catFR1	6	R1495J
753.33	0.801	920562	WORD_OFF	n/a	n/a	PLUM	Fruit	6	7	[0, 0, 0]	n/a	catFR1	6	R1495J
754.131	1.617	921363	WORD	n/a	wordpools/wordpool_categorized_EN.txt	TEA	Beverages	7	7	[0, 0, 0]	n/a	catFR1	6	R1495J
755.748	0.951	922991	WORD_OFF	n/a	n/a	TEA	Beverages	7	7	[0, 0, 0]	n/a	catFR1	6	R1495J
756.699	1.615	923932	WORD	n/a	wordpools/wordpool_categorized_EN.txt	WINE	Beverages	8	7	[0, 0, 0]	n/a	catFR1	6	R1495J
758.314	1.0	925547	WORD_OFF	n/a	n/a	WINE	Beverages	8	7	[0, 0, 0]	n/a	catFR1	6	R1495J
759.314	1.6	926552	WORD	n/a	wordpools/wordpool_categorized_EN.txt	CABINET	Furniture	9	7	[0, 0, 0]	n/a	catFR1	6	R1495J
760.914	0.984	928155	WORD_OFF	n/a	n/a	CABINET	Furniture	9	7	[0, 0, 0]	n/a	catFR1	6	R1495J
761.898	1.615	929134	WORD	n/a	wordpools/wordpool_categorized_EN.txt	CHAIR	Furniture	10	7	[0, 0, 0]	n/a	catFR1	6	R1495J
763.513	0.785	930749	WORD_OFF	n/a	n/a	CHAIR	Furniture	10	7	[0, 0, 0]	n/a	catFR1	6	R1495J
764.298	1.616	931538	WORD	n/a	wordpools/wordpool_categorized_EN.txt	APPLE	Fruit	11	7	[0, 0, 0]	n/a	catFR1	6	R1495J
765.914	0.933	933153	WORD_OFF	n/a	n/a	APPLE	Fruit	11	7	[0, 0, 0]	n/a	catFR1	6	R1495J
766.847	1.601	934081	WORD	n/a	wordpools/wordpool_categorized_EN.txt	BANANA	Fruit	12	7	[0, 0, 0]	n/a	catFR1	6	R1495J
768.448	0.0	935683	PROB	0.0	n/a	n/a	n/a	-999	7	[6, 2, 2]	10	catFR1	6	R1495J
768.447	0.002	935684	WORD_OFF	n/a	n/a	BANANA	Fruit	12	7	[0, 0, 0]	n/a	catFR1	6	R1495J
768.449	0.0	935684	ENCODING_END	n/a	n/a	n/a	n/a	-999	7	[0, 0, 0]	n/a	catFR1	6	R1495J
768.449	0.0	935684	DISTRACT_START	n/a	n/a	n/a	n/a	-999	7	[0, 0, 0]	n/a	catFR1	6	R1495J
768.449	3.315	935684	START	n/a	n/a	n/a	n/a	-999	7	[-999, -999, -999]	n/a	catFR1	6	R1495J
771.764	2.318	938999	PROB	2.318	n/a	n/a	n/a	-999	7	[5, 5, 7]	17	catFR1	6	R1495J
774.082	3.0	941317	PROB	3.0	n/a	n/a	n/a	-999	7	[4, 2, 2]	8	catFR1	6	R1495J
777.082	5.416	944317	PROB	5.416	n/a	n/a	n/a	-999	7	[8, 5, 1]	14	catFR1	6	R1495J
782.498	3.0	949733	PROB	3.0	n/a	n/a	n/a	-999	7	[6, 4, 6]	16	catFR1	6	R1495J
785.498	3.95	952733	PROB	3.95	n/a	n/a	n/a	-999	7	[7, 8, 5]	20	catFR1	6	R1495J
789.448	0.0	956681	DISTRACT_END	n/a	n/a	n/a	n/a	-999	7	[0, 0, 0]	n/a	catFR1	6	R1495J
789.448	2.166	956682	STOP	n/a	n/a	n/a	n/a	-999	7	[-999, -999, -999]	n/a	catFR1	6	R1495J
791.614	1.253	958851	REC_START	n/a	n/a	n/a	n/a	-999	7	[0, 0, 0]	n/a	catFR1	6	R1495J
792.867	12.832	960101	REC_WORD	12.832	n/a	DRILL	Tools	-999	7	[0, 0, 0]	n/a	catFR1	6	R1495J
805.699	0.422	972933	REC_WORD	0.422	n/a	APPLE	Fruit	11	7	[0, 0, 0]	n/a	catFR1	6	R1495J
806.121	6.443	973355	REC_WORD	6.443	n/a	BANANA	Fruit	12	7	[0, 0, 0]	n/a	catFR1	6	R1495J
812.564	9.266	979798	REC_WORD	9.266	n/a	LEMONADE	Beverages	2	7	[0, 0, 0]	n/a	catFR1	6	R1495J
821.83	1.602	989061	REC_END	n/a	n/a	n/a	n/a	-999	7	[0, 0, 0]	n/a	catFR1	6	R1495J
823.432	10.349	990663	COUNTDOWN_START	n/a	n/a	n/a	n/a	-999	8	[0, 0, 0]	n/a	catFR1	6	R1495J
833.781	0.0	1001016	COUNTDOWN_END	n/a	n/a	n/a	n/a	-999	8	[0, 0, 0]	n/a	catFR1	6	R1495J
833.781	2.117	1001016	ENCODING_START	n/a	n/a	n/a	n/a	-999	8	[0, 0, 0]	n/a	catFR1	6	R1495J
835.898	1.601	1003127	WORD	n/a	wordpools/wordpool_categorized_EN.txt	BEER	Beverages	1	8	[0, 0, 0]	n/a	catFR1	6	R1495J
837.499	0.998	1004729	WORD_OFF	n/a	n/a	BEER	Beverages	1	8	[0, 0, 0]	n/a	catFR1	6	R1495J
838.497	1.616	1005734	WORD	n/a	wordpools/wordpool_categorized_EN.txt	JUICE	Beverages	2	8	[0, 0, 0]	n/a	catFR1	6	R1495J
840.113	1.0	1007349	WORD_OFF	n/a	n/a	JUICE	Beverages	2	8	[0, 0, 0]	n/a	catFR1	6	R1495J
841.113	1.602	1008341	WORD	n/a	wordpools/wordpool_categorized_EN.txt	OCEAN	Landscapes	3	8	[0, 0, 0]	n/a	catFR1	6	R1495J
842.715	0.849	1009944	WORD_OFF	n/a	n/a	OCEAN	Landscapes	3	8	[0, 0, 0]	n/a	catFR1	6	R1495J
843.564	1.6	1010796	WORD	n/a	wordpools/wordpool_categorized_EN.txt	CREEK	Landscapes	4	8	[0, 0, 0]	n/a	catFR1	6	R1495J
845.164	0.784	1012398	WORD_OFF	n/a	n/a	CREEK	Landscapes	4	8	[0, 0, 0]	n/a	catFR1	6	R1495J
845.948	1.6	1013187	WORD	n/a	wordpools/wordpool_categorized_EN.txt	CELLO	Instruments	5	8	[0, 0, 0]	n/a	catFR1	6	R1495J
847.548	0.784	1014777	WORD_OFF	n/a	n/a	CELLO	Instruments	5	8	[0, 0, 0]	n/a	catFR1	6	R1495J
848.332	1.616	1015565	WORD	n/a	wordpools/wordpool_categorized_EN.txt	DRUM	Instruments	6	8	[0, 0, 0]	n/a	catFR1	6	R1495J
849.948	0.9	1017180	WORD_OFF	n/a	n/a	DRUM	Instruments	6	8	[0, 0, 0]	n/a	catFR1	6	R1495J
850.848	1.617	1018083	WORD	n/a	wordpools/wordpool_categorized_EN.txt	FOREST	Landscapes	7	8	[0, 0, 0]	n/a	catFR1	6	R1495J
852.465	1.0	1019698	WORD_OFF	n/a	n/a	FOREST	Landscapes	7	8	[0, 0, 0]	n/a	catFR1	6	R1495J
853.465	1.617	1020703	WORD	n/a	wordpools/wordpool_categorized_EN.txt	WOODS	Landscapes	8	8	[0, 0, 0]	n/a	catFR1	6	R1495J
855.082	0.781	1022318	WORD_OFF	n/a	n/a	WOODS	Landscapes	8	8	[0, 0, 0]	n/a	catFR1	6	R1495J
855.863	1.601	1023094	WORD	n/a	wordpools/wordpool_categorized_EN.txt	FLUTE	Instruments	9	8	[0, 0, 0]	n/a	catFR1	6	R1495J
857.464	0.834	1024696	WORD_OFF	n/a	n/a	FLUTE	Instruments	9	8	[0, 0, 0]	n/a	catFR1	6	R1495J
858.298	1.6	1025536	WORD	n/a	wordpools/wordpool_categorized_EN.txt	PIANO	Instruments	10	8	[0, 0, 0]	n/a	catFR1	6	R1495J
859.898	0.9	1027126	WORD_OFF	n/a	n/a	PIANO	Instruments	10	8	[0, 0, 0]	n/a	catFR1	6	R1495J
860.798	1.6	1028029	WORD	n/a	wordpools/wordpool_categorized_EN.txt	COFFEE	Beverages	11	8	[0, 0, 0]	n/a	catFR1	6	R1495J
862.398	0.983	1029631	WORD_OFF	n/a	n/a	COFFEE	Beverages	11	8	[0, 0, 0]	n/a	catFR1	6	R1495J
863.381	1.616	1030610	WORD	n/a	wordpools/wordpool_categorized_EN.txt	SODA	Beverages	12	8	[0, 0, 0]	n/a	catFR1	6	R1495J
864.997	0.003	1032226	WORD_OFF	n/a	n/a	SODA	Beverages	12	8	[0, 0, 0]	n/a	catFR1	6	R1495J
865.0	0.0	1032226	ENCODING_END	n/a	n/a	n/a	n/a	-999	8	[0, 0, 0]	n/a	catFR1	6	R1495J
864.999	0.001	1032230	PROB	0.001	n/a	n/a	n/a	-999	8	[3, 6, 5]	14	catFR1	6	R1495J
865.0	0.0	1032231	START	n/a	n/a	n/a	n/a	-999	8	[-999, -999, -999]	n/a	catFR1	6	R1495J
865.0	5.031	1032238	DISTRACT_START	n/a	n/a	n/a	n/a	-999	8	[0, 0, 0]	n/a	catFR1	6	R1495J
870.031	3.6	1037262	PROB	3.6	n/a	n/a	n/a	-999	8	[7, 4, 1]	12	catFR1	6	R1495J
873.631	3.783	1040862	PROB	3.783	n/a	n/a	n/a	-999	8	[3, 7, 8]	18	catFR1	6	R1495J
877.414	3.251	1044645	PROB	3.251	n/a	n/a	n/a	-999	8	[2, 8, 7]	17	catFR1	6	R1495J
880.665	2.054	1047896	PROB	2.054	n/a	n/a	n/a	-999	8	[4, 1, 4]	9	catFR1	6	R1495J
882.719	2.379	1049950	PROB	2.379	n/a	n/a	n/a	-999	8	[4, 1, 5]	10	catFR1	6	R1495J
885.098	0.0	1052329	STOP	n/a	n/a	n/a	n/a	-999	8	[-999, -999, -999]	n/a	catFR1	6	R1495J
885.098	2.284	1052333	DISTRACT_END	n/a	n/a	n/a	n/a	-999	8	[0, 0, 0]	n/a	catFR1	6	R1495J
887.382	0.213	1054617	REC_START	n/a	n/a	n/a	n/a	-999	8	[0, 0, 0]	n/a	catFR1	6	R1495J
887.595	0.662	1054826	REC_WORD	0.662	n/a	COLA	Beverages	-999	8	[0, 0, 0]	n/a	catFR1	6	R1495J
888.257	1.026	1055487	REC_WORD	1.026	n/a	SODA	Beverages	12	8	[0, 0, 0]	n/a	catFR1	6	R1495J
889.283	9.085	1056513	REC_WORD	9.085	n/a	BEER	Beverages	1	8	[0, 0, 0]	n/a	catFR1	6	R1495J
898.368	0.673	1065598	REC_WORD	0.673	n/a	CLARINET	n/a	-999	8	[0, 0, 0]	n/a	catFR1	6	R1495J
899.041	0.789	1066271	REC_WORD	0.789	n/a	FLUTE	Instruments	9	8	[0, 0, 0]	n/a	catFR1	6	R1495J
899.83	17.769	1067060	REC_WORD	17.769	n/a	PIANO	Instruments	10	8	[0, 0, 0]	n/a	catFR1	6	R1495J
917.599	1.499	1084827	REC_END	n/a	n/a	n/a	n/a	-999	8	[0, 0, 0]	n/a	catFR1	6	R1495J
919.098	10.351	1086328	COUNTDOWN_START	n/a	n/a	n/a	n/a	-999	9	[0, 0, 0]	n/a	catFR1	6	R1495J
929.449	0.0	1096680	COUNTDOWN_END	n/a	n/a	n/a	n/a	-999	9	[0, 0, 0]	n/a	catFR1	6	R1495J
929.449	2.099	1096680	ENCODING_START	n/a	n/a	n/a	n/a	-999	9	[0, 0, 0]	n/a	catFR1	6	R1495J
931.548	1.601	1098778	WORD	n/a	wordpools/wordpool_categorized_EN.txt	TELEVISION	Electronics	1	9	[0, 0, 0]	n/a	catFR1	6	R1495J
933.149	0.816	1100381	WORD_OFF	n/a	n/a	TELEVISION	Electronics	1	9	[0, 0, 0]	n/a	catFR1	6	R1495J
933.965	1.6	1101195	WORD	n/a	wordpools/wordpool_categorized_EN.txt	MICROWAVE	Electronics	2	9	[0, 0, 0]	n/a	catFR1	6	R1495J
935.565	0.999	1102797	WORD_OFF	n/a	n/a	MICROWAVE	Electronics	2	9	[0, 0, 0]	n/a	catFR1	6	R1495J
936.564	1.6	1103789	WORD	n/a	wordpools/wordpool_categorized_EN.txt	SHIRT	Clothing	3	9	[0, 0, 0]	n/a	catFR1	6	R1495J
938.164	0.934	1105392	WORD_OFF	n/a	n/a	SHIRT	Clothing	3	9	[0, 0, 0]	n/a	catFR1	6	R1495J
939.098	1.617	1106333	WORD	n/a	wordpools/wordpool_categorized_EN.txt	SHOES	Clothing	4	9	[0, 0, 0]	n/a	catFR1	6	R1495J
940.715	1.0	1107948	WORD_OFF	n/a	n/a	SHOES	Clothing	4	9	[0, 0, 0]	n/a	catFR1	6	R1495J
941.715	1.6	1108940	WORD	n/a	wordpools/wordpool_categorized_EN.txt	ERASER	OfficeSupplies	5	9	[0, 0, 0]	n/a	catFR1	6	R1495J
943.315	0.915	1110543	WORD_OFF	n/a	n/a	ERASER	OfficeSupplies	5	9	[0, 0, 0]	n/a	catFR1	6	R1495J
944.23	1.602	1111458	WORD	n/a	wordpools/wordpool_categorized_EN.txt	PAPER	OfficeSupplies	6	9	[0, 0, 0]	n/a	catFR1	6	R1495J
945.832	0.866	1113061	WORD_OFF	n/a	n/a	PAPER	OfficeSupplies	6	9	[0, 0, 0]	n/a	catFR1	6	R1495J
946.698	1.6	1113926	WORD	n/a	wordpools/wordpool_categorized_EN.txt	DRESS	Clothing	7	9	[0, 0, 0]	n/a	catFR1	6	R1495J
948.298	0.849	1115528	WORD_OFF	n/a	n/a	DRESS	Clothing	7	9	[0, 0, 0]	n/a	catFR1	6	R1495J
949.147	1.601	1116380	WORD	n/a	wordpools/wordpool_categorized_EN.txt	COAT	Clothing	8	9	[0, 0, 0]	n/a	catFR1	6	R1495J
950.748	0.867	1117983	WORD_OFF	n/a	n/a	COAT	Clothing	8	9	[0, 0, 0]	n/a	catFR1	6	R1495J
951.615	1.615	1118847	WORD	n/a	wordpools/wordpool_categorized_EN.txt	RULER	OfficeSupplies	9	9	[0, 0, 0]	n/a	catFR1	6	R1495J
953.23	0.802	1120463	WORD_OFF	n/a	n/a	RULER	OfficeSupplies	9	9	[0, 0, 0]	n/a	catFR1	6	R1495J
954.032	1.615	1121264	WORD	n/a	wordpools/wordpool_categorized_EN.txt	GLUE	OfficeSupplies	10	9	[0, 0, 0]	n/a	catFR1	6	R1495J
955.647	0.902	1122879	WORD_OFF	n/a	n/a	GLUE	OfficeSupplies	10	9	[0, 0, 0]	n/a	catFR1	6	R1495J
956.549	1.615	1123782	WORD	n/a	wordpools/wordpool_categorized_EN.txt	RADIO	Electronics	11	9	[0, 0, 0]	n/a	catFR1	6	R1495J
958.164	0.985	1125397	WORD_OFF	n/a	n/a	RADIO	Electronics	11	9	[0, 0, 0]	n/a	catFR1	6	R1495J
959.149	1.615	1126376	WORD	n/a	wordpools/wordpool_categorized_EN.txt	PHONE	Electronics	12	9	[0, 0, 0]	n/a	catFR1	6	R1495J
960.764	0.0	1127991	PROB	0.0	n/a	n/a	n/a	-999	9	[5, 6, 5]	16	catFR1	6	R1495J
960.763	0.004	1127992	WORD_OFF	n/a	n/a	PHONE	Electronics	12	9	[0, 0, 0]	n/a	catFR1	6	R1495J
960.767	0.0	1127992	ENCODING_END	n/a	n/a	n/a	n/a	-999	9	[0, 0, 0]	n/a	catFR1	6	R1495J
960.767	0.0	1127992	DISTRACT_START	n/a	n/a	n/a	n/a	-999	9	[0, 0, 0]	n/a	catFR1	6	R1495J
960.767	2.998	1127994	START	n/a	n/a	n/a	n/a	-999	9	[-999, -999, -999]	n/a	catFR1	6	R1495J
963.765	2.333	1130992	PROB	2.333	n/a	n/a	n/a	-999	9	[1, 3, 3]	7	catFR1	6	R1495J
966.098	2.433	1133325	PROB	2.433	n/a	n/a	n/a	-999	9	[2, 1, 2]	5	catFR1	6	R1495J
968.531	2.0	1135758	PROB	2.0	n/a	n/a	n/a	-999	9	[5, 5, 3]	13	catFR1	6	R1495J
970.531	4.0	1137758	PROB	4.0	n/a	n/a	n/a	-999	9	[6, 8, 5]	19	catFR1	6	R1495J
974.531	3.983	1141758	PROB	3.983	n/a	n/a	n/a	-999	9	[8, 1, 6]	15	catFR1	6	R1495J
978.514	2.534	1145741	PROB	2.534	n/a	n/a	n/a	-999	9	[4, 6, 5]	15	catFR1	6	R1495J
981.048	0.0	1148275	STOP	n/a	n/a	n/a	n/a	-999	9	[-999, -999, -999]	n/a	catFR1	6	R1495J
981.048	2.151	1148277	DISTRACT_END	n/a	n/a	n/a	n/a	-999	9	[0, 0, 0]	n/a	catFR1	6	R1495J
983.199	0.516	1150421	REC_START	n/a	n/a	n/a	n/a	-999	9	[0, 0, 0]	n/a	catFR1	6	R1495J
983.715	6.316	1150942	REC_WORD	6.316	n/a	PHONE	Electronics	12	9	[0, 0, 0]	n/a	catFR1	6	R1495J
990.031	2.521	1157257	REC_WORD	2.521	n/a	RAZOR	n/a	-999	9	[0, 0, 0]	n/a	catFR1	6	R1495J
992.552	20.873	1159778	REC_WORD	20.873	n/a	TELEVISION	Electronics	1	9	[0, 0, 0]	n/a	catFR1	6	R1495J
1013.425	2.157	1180657	REC_END	n/a	n/a	n/a	n/a	-999	9	[0, 0, 0]	n/a	catFR1	6	R1495J
1015.582	10.35	1182806	COUNTDOWN_START	n/a	n/a	n/a	n/a	-999	10	[0, 0, 0]	n/a	catFR1	6	R1495J
1025.932	0.0	1193158	COUNTDOWN_END	n/a	n/a	n/a	n/a	-999	10	[0, 0, 0]	n/a	catFR1	6	R1495J
1025.932	2.216	1193158	ENCODING_START	n/a	n/a	n/a	n/a	-999	10	[0, 0, 0]	n/a	catFR1	6	R1495J
1028.148	1.616	1195371	WORD	n/a	wordpools/wordpool_categorized_EN.txt	BOOKCASE	Furniture	1	10	[0, 0, 0]	n/a	catFR1	6	R1495J
1029.764	1.0	1196986	WORD_OFF	n/a	n/a	BOOKCASE	Furniture	1	10	[0, 0, 0]	n/a	catFR1	6	R1495J
1030.764	1.601	1197991	WORD	n/a	wordpools/wordpool_categorized_EN.txt	DRESSER	Furniture	2	10	[0, 0, 0]	n/a	catFR1	6	R1495J
1032.365	0.949	1199594	WORD_OFF	n/a	n/a	DRESSER	Furniture	2	10	[0, 0, 0]	n/a	catFR1	6	R1495J
1033.314	1.618	1200535	WORD	n/a	wordpools/wordpool_categorized_EN.txt	BANJO	Instruments	3	10	[0, 0, 0]	n/a	catFR1	6	R1495J
1034.932	0.899	1202163	WORD_OFF	n/a	n/a	BANJO	Instruments	3	10	[0, 0, 0]	n/a	catFR1	6	R1495J
1035.831	1.617	1203053	WORD	n/a	wordpools/wordpool_categorized_EN.txt	BASS	Instruments	4	10	[0, 0, 0]	n/a	catFR1	6	R1495J
1037.448	0.782	1204668	WORD_OFF	n/a	n/a	BASS	Instruments	4	10	[0, 0, 0]	n/a	catFR1	6	R1495J
1038.23	1.601	1205457	WORD	n/a	wordpools/wordpool_categorized_EN.txt	LOBSTER	OceanAnimals	5	10	[0, 0, 0]	n/a	catFR1	6	R1495J
1039.831	0.9	1207059	WORD_OFF	n/a	n/a	LOBSTER	OceanAnimals	5	10	[0, 0, 0]	n/a	catFR1	6	R1495J
1040.731	1.6	1207962	WORD	n/a	wordpools/wordpool_categorized_EN.txt	OCTOPUS	OceanAnimals	6	10	[0, 0, 0]	n/a	catFR1	6	R1495J
1042.331	0.85	1209552	WORD_OFF	n/a	n/a	OCTOPUS	OceanAnimals	6	10	[0, 0, 0]	n/a	catFR1	6	R1495J
1043.181	1.617	1210404	WORD	n/a	wordpools/wordpool_categorized_EN.txt	TABLE	Furniture	7	10	[0, 0, 0]	n/a	catFR1	6	R1495J
1044.798	1.0	1212019	WORD_OFF	n/a	n/a	TABLE	Furniture	7	10	[0, 0, 0]	n/a	catFR1	6	R1495J
1045.798	1.616	1213024	WORD	n/a	wordpools/wordpool_categorized_EN.txt	SOFA	Furniture	8	10	[0, 0, 0]	n/a	catFR1	6	R1495J
1047.414	1.001	1214639	WORD_OFF	n/a	n/a	SOFA	Furniture	8	10	[0, 0, 0]	n/a	catFR1	6	R1495J
1048.415	1.616	1215644	WORD	n/a	wordpools/wordpool_categorized_EN.txt	VIOLIN	Instruments	9	10	[0, 0, 0]	n/a	catFR1	6	R1495J
1050.031	0.833	1217259	WORD_OFF	n/a	n/a	VIOLIN	Instruments	9	10	[0, 0, 0]	n/a	catFR1	6	R1495J
1050.864	1.618	1218085	WORD	n/a	wordpools/wordpool_categorized_EN.txt	GUITAR	Instruments	10	10	[0, 0, 0]	n/a	catFR1	6	R1495J
1052.482	0.965	1219713	WORD_OFF	n/a	n/a	GUITAR	Instruments	10	10	[0, 0, 0]	n/a	catFR1	6	R1495J
1053.447	1.601	1220667	WORD	n/a	wordpools/wordpool_categorized_EN.txt	CRAB	OceanAnimals	11	10	[0, 0, 0]	n/a	catFR1	6	R1495J
1055.048	0.983	1222270	WORD_OFF	n/a	n/a	CRAB	OceanAnimals	11	10	[0, 0, 0]	n/a	catFR1	6	R1495J
1056.031	1.6	1223249	WORD	n/a	wordpools/wordpool_categorized_EN.txt	SQUID	OceanAnimals	12	10	[0, 0, 0]	n/a	catFR1	6	R1495J
1057.631	0.001	1224851	WORD_OFF	n/a	n/a	SQUID	OceanAnimals	12	10	[0, 0, 0]	n/a	catFR1	6	R1495J
1057.632	0.0	1224851	ENCODING_END	n/a	n/a	n/a	n/a	-999	10	[0, 0, 0]	n/a	catFR1	6	R1495J
1057.631	0.001	1224855	PROB	0.001	n/a	n/a	n/a	-999	10	[2, 1, 4]	7	catFR1	6	R1495J
1057.632	0.0	1224856	START	n/a	n/a	n/a	n/a	-999	10	[-999, -999, -999]	n/a	catFR1	6	R1495J
1057.632	2.533	1224864	DISTRACT_START	n/a	n/a	n/a	n/a	-999	10	[0, 0, 0]	n/a	catFR1	6	R1495J
1060.165	3.599	1227388	PROB	3.599	n/a	n/a	n/a	-999	10	[6, 4, 5]	15	catFR1	6	R1495J
1063.764	6.649	1230987	PROB	6.649	n/a	n/a	n/a	-999	10	[4, 3, 4]	11	catFR1	6	R1495J
1070.413	3.952	1237636	PROB	3.952	n/a	n/a	n/a	-999	10	[6, 7, 8]	21	catFR1	6	R1495J
1074.365	2.615	1241588	PROB	2.615	n/a	n/a	n/a	-999	10	[8, 8, 8]	24	catFR1	6	R1495J
1076.98	3.4	1244203	PROB	3.4	n/a	n/a	n/a	-999	10	[6, 3, 3]	12	catFR1	6	R1495J
1080.38	0.0	1247603	STOP	n/a	n/a	n/a	n/a	-999	10	[-999, -999, -999]	n/a	catFR1	6	R1495J
1080.38	2.251	1247604	DISTRACT_END	n/a	n/a	n/a	n/a	-999	10	[0, 0, 0]	n/a	catFR1	6	R1495J
1082.631	0.549	1249850	REC_START	n/a	n/a	n/a	n/a	-999	10	[0, 0, 0]	n/a	catFR1	6	R1495J
1083.18	4.355	1250403	REC_WORD	4.355	n/a	OCTOPUS	OceanAnimals	6	10	[0, 0, 0]	n/a	catFR1	6	R1495J
1087.535	0.55	1254757	REC_WORD	0.55	n/a	DRILL	Tools	-999	10	[0, 0, 0]	n/a	catFR1	6	R1495J
1088.085	2.603	1255307	REC_WORD	2.603	n/a	DRESSER	Furniture	2	10	[0, 0, 0]	n/a	catFR1	6	R1495J
1090.688	22.18	1257910	REC_WORD	22.18	n/a	NIGHTSTAND	n/a	-999	10	[0, 0, 0]	n/a	catFR1	6	R1495J
1112.868	2.03	1280085	REC_END	n/a	n/a	n/a	n/a	-999	10	[0, 0, 0]	n/a	catFR1	6	R1495J
1114.898	10.351	1282120	COUNTDOWN_START	n/a	n/a	n/a	n/a	-999	11	[0, 0, 0]	n/a	catFR1	6	R1495J
1125.249	0.0	1292473	COUNTDOWN_END	n/a	n/a	n/a	n/a	-999	11	[0, 0, 0]	n/a	catFR1	6	R1495J
1125.249	2.049	1292473	ENCODING_START	n/a	n/a	n/a	n/a	-999	11	[0, 0, 0]	n/a	catFR1	6	R1495J
1127.298	1.6	1294520	WORD	n/a	wordpools/wordpool_categorized_EN.txt	CALCULATOR	Electronics	1	11	[0, 0, 0]	n/a	catFR1	6	R1495J
1128.898	0.866	1296123	WORD_OFF	n/a	n/a	CALCULATOR	Electronics	1	11	[0, 0, 0]	n/a	catFR1	6	R1495J
1129.764	1.6	1296988	WORD	n/a	wordpools/wordpool_categorized_EN.txt	SPEAKER	Electronics	2	11	[0, 0, 0]	n/a	catFR1	6	R1495J
1131.364	0.835	1298590	WORD_OFF	n/a	n/a	SPEAKER	Electronics	2	11	[0, 0, 0]	n/a	catFR1	6	R1495J
1132.199	1.615	1299417	WORD	n/a	wordpools/wordpool_categorized_EN.txt	VELVET	Fabric	3	11	[0, 0, 0]	n/a	catFR1	6	R1495J
1133.814	0.834	1301032	WORD_OFF	n/a	n/a	VELVET	Fabric	3	11	[0, 0, 0]	n/a	catFR1	6	R1495J
1134.648	1.616	1301871	WORD	n/a	wordpools/wordpool_categorized_EN.txt	SILK	Fabric	4	11	[0, 0, 0]	n/a	catFR1	6	R1495J
1136.264	0.933	1303486	WORD_OFF	n/a	n/a	SILK	Fabric	4	11	[0, 0, 0]	n/a	catFR1	6	R1495J
1137.197	1.601	1304415	WORD	n/a	wordpools/wordpool_categorized_EN.txt	SEAGULL	Birds	5	11	[0, 0, 0]	n/a	catFR1	6	R1495J
1138.798	0.815	1306017	WORD_OFF	n/a	n/a	SEAGULL	Birds	5	11	[0, 0, 0]	n/a	catFR1	6	R1495J
1139.613	1.6	1306831	WORD	n/a	wordpools/wordpool_categorized_EN.txt	SPARROW	Birds	6	11	[0, 0, 0]	n/a	catFR1	6	R1495J
1141.213	0.818	1308434	WORD_OFF	n/a	n/a	SPARROW	Birds	6	11	[0, 0, 0]	n/a	catFR1	6	R1495J
1142.031	1.617	1309248	WORD	n/a	wordpools/wordpool_categorized_EN.txt	NYLON	Fabric	7	11	[0, 0, 0]	n/a	catFR1	6	R1495J
1143.648	0.8	1310863	WORD_OFF	n/a	n/a	NYLON	Fabric	7	11	[0, 0, 0]	n/a	catFR1	6	R1495J
1144.448	1.616	1311664	WORD	n/a	wordpools/wordpool_categorized_EN.txt	SPANDEX	Fabric	8	11	[0, 0, 0]	n/a	catFR1	6	R1495J
1146.064	0.784	1313279	WORD_OFF	n/a	n/a	SPANDEX	Fabric	8	11	[0, 0, 0]	n/a	catFR1	6	R1495J
1146.848	1.6	1314068	WORD	n/a	wordpools/wordpool_categorized_EN.txt	CROW	Birds	9	11	[0, 0, 0]	n/a	catFR1	6	R1495J
1148.448	0.866	1315670	WORD_OFF	n/a	n/a	CROW	Birds	9	11	[0, 0, 0]	n/a	catFR1	6	R1495J
1149.314	1.616	1316535	WORD	n/a	wordpools/wordpool_categorized_EN.txt	DOVE	Birds	10	11	[0, 0, 0]	n/a	catFR1	6	R1495J
1150.93	0.817	1318150	WORD_OFF	n/a	n/a	DOVE	Birds	10	11	[0, 0, 0]	n/a	catFR1	6	R1495J
1151.747	1.617	1318964	WORD	n/a	wordpools/wordpool_categorized_EN.txt	STEREO	Electronics	11	11	[0, 0, 0]	n/a	catFR1	6	R1495J
1153.364	0.917	1320579	WORD_OFF	n/a	n/a	STEREO	Electronics	11	11	[0, 0, 0]	n/a	catFR1	6	R1495J
1154.281	1.618	1321495	WORD	n/a	wordpools/wordpool_categorized_EN.txt	COMPUTER	Electronics	12	11	[0, 0, 0]	n/a	catFR1	6	R1495J
1155.899	0.001	1323118	PROB	0.001	n/a	n/a	n/a	-999	11	[1, 1, 3]	5	catFR1	6	R1495J
1155.9	0.0	1323119	START	n/a	n/a	n/a	n/a	-999	11	[-999, -999, -999]	n/a	catFR1	6	R1495J
1155.897	0.003	1323123	WORD_OFF	n/a	n/a	COMPUTER	Electronics	12	11	[0, 0, 0]	n/a	catFR1	6	R1495J
1155.9	0.0	1323123	ENCODING_END	n/a	n/a	n/a	n/a	-999	11	[0, 0, 0]	n/a	catFR1	6	R1495J
1155.9	2.848	1323123	DISTRACT_START	n/a	n/a	n/a	n/a	-999	11	[0, 0, 0]	n/a	catFR1	6	R1495J
1158.748	2.733	1325967	PROB	2.733	n/a	n/a	n/a	-999	11	[7, 5, 7]	19	catFR1	6	R1495J
1161.481	2.334	1328700	PROB	2.334	n/a	n/a	n/a	-999	11	[2, 1, 5]	8	catFR1	6	R1495J
1163.815	2.999	1331034	PROB	2.999	n/a	n/a	n/a	-999	11	[2, 5, 4]	11	catFR1	6	R1495J
1166.814	4.134	1334033	PROB	4.134	n/a	n/a	n/a	-999	11	[8, 3, 6]	17	catFR1	6	R1495J
1170.948	3.435	1338167	PROB	3.435	n/a	n/a	n/a	-999	11	[8, 8, 4]	20	catFR1	6	R1495J
1174.383	4.28	1341602	PROB	4.28	n/a	n/a	n/a	-999	11	[1, 7, 8]	16	catFR1	6	R1495J
1178.663	0.0	1345882	STOP	n/a	n/a	n/a	n/a	-999	11	[-999, -999, -999]	n/a	catFR1	6	R1495J
1178.663	2.318	1345888	DISTRACT_END	n/a	n/a	n/a	n/a	-999	11	[0, 0, 0]	n/a	catFR1	6	R1495J
1180.981	0.0	1348198	REC_START	n/a	n/a	n/a	n/a	-999	11	[0, 0, 0]	n/a	catFR1	6	R1495J
1180.981	0.837	1348200	REC_WORD	0.837	n/a	COMPUTER	Electronics	12	11	[0, 0, 0]	n/a	catFR1	6	R1495J
1181.818	4.668	1349036	REC_WORD	4.668	n/a	SPANDEX	Fabric	8	11	[0, 0, 0]	n/a	catFR1	6	R1495J
1186.486	24.729	1353704	REC_WORD	24.729	n/a	SEAGULL	Birds	5	11	[0, 0, 0]	n/a	catFR1	6	R1495J
1211.215	9.232	1378433	REC_END	n/a	n/a	n/a	n/a	-999	11	[0, 0, 0]	n/a	catFR1	6	R1495J
1220.447	10.35	1387666	COUNTDOWN_START	n/a	n/a	n/a	n/a	-999	12	[0, 0, 0]	n/a	catFR1	6	R1495J
1230.797	0.0	1398019	COUNTDOWN_END	n/a	n/a	n/a	n/a	-999	12	[0, 0, 0]	n/a	catFR1	6	R1495J
1230.797	1.984	1398019	ENCODING_START	n/a	n/a	n/a	n/a	-999	12	[0, 0, 0]	n/a	catFR1	6	R1495J
1232.781	1.601	1400003	WORD	n/a	wordpools/wordpool_categorized_EN.txt	CIDER	Beverages	1	12	[0, 0, 0]	n/a	catFR1	6	R1495J
1234.382	0.983	1401593	WORD_OFF	n/a	n/a	CIDER	Beverages	1	12	[0, 0, 0]	n/a	catFR1	6	R1495J
1235.365	1.6	1402585	WORD	n/a	wordpools/wordpool_categorized_EN.txt	MILK	Beverages	2	12	[0, 0, 0]	n/a	catFR1	6	R1495J
1236.965	0.782	1404187	WORD_OFF	n/a	n/a	MILK	Beverages	2	12	[0, 0, 0]	n/a	catFR1	6	R1495J
1237.747	1.6	1404963	WORD	n/a	wordpools/wordpool_categorized_EN.txt	PIGEON	Birds	3	12	[0, 0, 0]	n/a	catFR1	6	R1495J
1239.347	0.801	1406565	WORD_OFF	n/a	n/a	PIGEON	Birds	3	12	[0, 0, 0]	n/a	catFR1	6	R1495J
1240.148	1.6	1407367	WORD	n/a	wordpools/wordpool_categorized_EN.txt	DUCK	Birds	4	12	[0, 0, 0]	n/a	catFR1	6	R1495J
1241.748	0.932	1408969	WORD_OFF	n/a	n/a	DUCK	Birds	4	12	[0, 0, 0]	n/a	catFR1	6	R1495J
1242.68	1.602	1409897	WORD	n/a	wordpools/wordpool_categorized_EN.txt	MARIGOLD	Flowers	5	12	[0, 0, 0]	n/a	catFR1	6	R1495J
1244.282	0.767	1411500	WORD_OFF	n/a	n/a	MARIGOLD	Flowers	5	12	[0, 0, 0]	n/a	catFR1	6	R1495J
1245.049	1.615	1412263	WORD	n/a	wordpools/wordpool_categorized_EN.txt	ROSE	Flowers	6	12	[0, 0, 0]	n/a	catFR1	6	R1495J
1246.664	0.784	1413878	WORD_OFF	n/a	n/a	ROSE	Flowers	6	12	[0, 0, 0]	n/a	catFR1	6	R1495J
1247.448	1.6	1414667	WORD	n/a	wordpools/wordpool_categorized_EN.txt	FINCH	Birds	7	12	[0, 0, 0]	n/a	catFR1	6	R1495J
1249.048	1.0	1416269	WORD_OFF	n/a	n/a	FINCH	Birds	7	12	[0, 0, 0]	n/a	catFR1	6	R1495J
1250.048	1.599	1417261	WORD	n/a	wordpools/wordpool_categorized_EN.txt	ROBIN	Birds	8	12	[0, 0, 0]	n/a	catFR1	6	R1495J
1251.647	0.783	1418864	WORD_OFF	n/a	n/a	ROBIN	Birds	8	12	[0, 0, 0]	n/a	catFR1	6	R1495J
1252.43	1.601	1419652	WORD	n/a	wordpools/wordpool_categorized_EN.txt	RUM	Beverages	9	12	[0, 0, 0]	n/a	catFR1	6	R1495J
1254.031	0.934	1421242	WORD_OFF	n/a	n/a	RUM	Beverages	9	12	[0, 0, 0]	n/a	catFR1	6	R1495J
1254.965	1.616	1422183	WORD	n/a	wordpools/wordpool_categorized_EN.txt	WATER	Beverages	10	12	[0, 0, 0]	n/a	catFR1	6	R1495J
1256.581	0.932	1423798	WORD_OFF	n/a	n/a	WATER	Beverages	10	12	[0, 0, 0]	n/a	catFR1	6	R1495J
1257.513	1.601	1424727	WORD	n/a	wordpools/wordpool_categorized_EN.txt	LILY	Flowers	11	12	[0, 0, 0]	n/a	catFR1	6	R1495J
1259.114	0.916	1426329	WORD_OFF	n/a	n/a	LILY	Flowers	11	12	[0, 0, 0]	n/a	catFR1	6	R1495J
1260.03	1.601	1427245	WORD	n/a	wordpools/wordpool_categorized_EN.txt	PETUNIA	Flowers	12	12	[0, 0, 0]	n/a	catFR1	6	R1495J
1261.631	0.0	1428846	PROB	0.0	n/a	n/a	n/a	-999	12	[1, 4, 2]	7	catFR1	6	R1495J
1261.63	0.003	1428847	WORD_OFF	n/a	n/a	PETUNIA	Flowers	12	12	[0, 0, 0]	n/a	catFR1	6	R1495J
1261.633	0.0	1428847	ENCODING_END	n/a	n/a	n/a	n/a	-999	12	[0, 0, 0]	n/a	catFR1	6	R1495J
1261.633	0.0	1428847	DISTRACT_START	n/a	n/a	n/a	n/a	-999	12	[0, 0, 0]	n/a	catFR1	6	R1495J
1261.633	2.982	1428848	START	n/a	n/a	n/a	n/a	-999	12	[-999, -999, -999]	n/a	catFR1	6	R1495J
1264.615	2.816	1431830	PROB	2.816	n/a	n/a	n/a	-999	12	[1, 2, 8]	11	catFR1	6	R1495J
1267.431	2.351	1434646	PROB	2.351	n/a	n/a	n/a	-999	12	[4, 8, 2]	14	catFR1	6	R1495J
1269.782	5.332	1436997	PROB	5.332	n/a	n/a	n/a	-999	12	[3, 6, 7]	16	catFR1	6	R1495J
1275.114	2.516	1442329	PROB	2.516	n/a	n/a	n/a	-999	12	[8, 8, 1]	17	catFR1	6	R1495J
1277.63	2.55	1444845	PROB	2.55	n/a	n/a	n/a	-999	12	[2, 4, 1]	7	catFR1	6	R1495J
1280.18	2.284	1447394	PROB	2.284	n/a	n/a	n/a	-999	12	[2, 4, 2]	8	catFR1	6	R1495J
1282.464	0.0	1449678	STOP	n/a	n/a	n/a	n/a	-999	12	[-999, -999, -999]	n/a	catFR1	6	R1495J
1282.464	2.167	1449679	DISTRACT_END	n/a	n/a	n/a	n/a	-999	12	[0, 0, 0]	n/a	catFR1	6	R1495J
1284.631	0.251	1451849	REC_START	n/a	n/a	n/a	n/a	-999	12	[0, 0, 0]	n/a	catFR1	6	R1495J
1284.882	2.424	1452096	REC_WORD	2.424	n/a	PELICAN	n/a	-999	12	[0, 0, 0]	n/a	catFR1	6	R1495J
1287.306	27.543	1454520	REC_WORD	27.543	n/a	PIGEON	Birds	3	12	[0, 0, 0]	n/a	catFR1	6	R1495J
1314.849	0.0	1482059	REC_END	n/a	n/a	n/a	n/a	-999	12	[0, 0, 0]	n/a	catFR1	6	R1495J
