onset	duration	sample	trial_type	response_time	stim_file	item_name	category	serialpos	list	test	answer	experiment	session	subject
0.0	5.652	3472	INSTRUCT_START	n/a	n/a	n/a	n/a	-999	-999	[0, 0, 0]	n/a	catFR1	1	R1398J
5.652	50.946	9126	INSTRUCT_END	n/a	n/a	n/a	n/a	-999	-999	[0, 0, 0]	n/a	catFR1	1	R1398J
56.598	10.362	60065	COUNTDOWN_START	n/a	n/a	n/a	n/a	-999	-999	[0, 0, 0]	n/a	catFR1	1	R1398J
66.96	0.0	70431	COUNTDOWN_END	n/a	n/a	n/a	n/a	-999	-999	[0, 0, 0]	n/a	catFR1	1	R1398J
66.96	2.171	70431	ENCODING_START	n/a	n/a	n/a	n/a	-999	-1	[0, 0, 0]	n/a	catFR1	1	R1398J
69.131	1.6	72597	WORD	n/a	n/a	HEN	FarmAnimals	1	-1	[0, 0, 0]	n/a	catFR1	1	R1398J
70.731	0.901	74201	WORD_OFF	n/a	n/a	HEN	FarmAnimals	1	-1	[0, 0, 0]	n/a	catFR1	1	R1398J
71.632	1.617	75102	WORD	n/a	n/a	CHICKEN	FarmAnimals	2	-1	[0, 0, 0]	n/a	catFR1	1	R1398J
73.249	0.9	76714	WORD_OFF	n/a	n/a	CHICKEN	FarmAnimals	2	-1	[0, 0, 0]	n/a	catFR1	1	R1398J
74.149	1.616	77615	WORD	n/a	n/a	CARROT	Vegetables	3	-1	[0, 0, 0]	n/a	catFR1	1	R1398J
75.765	0.967	79235	WORD_OFF	n/a	n/a	CARROT	Vegetables	3	-1	[0, 0, 0]	n/a	catFR1	1	R1398J
76.732	1.616	80194	WORD	n/a	n/a	CUCUMBER	Vegetables	4	-1	[0, 0, 0]	n/a	catFR1	1	R1398J
78.348	0.917	81815	WORD_OFF	n/a	n/a	CUCUMBER	Vegetables	4	-1	[0, 0, 0]	n/a	catFR1	1	R1398J
79.265	1.617	82732	WORD	n/a	n/a	WHALE	OceanAnimals	5	-1	[0, 0, 0]	n/a	catFR1	1	R1398J
80.882	0.783	84344	WORD_OFF	n/a	n/a	WHALE	OceanAnimals	5	-1	[0, 0, 0]	n/a	catFR1	1	R1398J
81.665	1.617	85130	WORD	n/a	n/a	PLANKTON	OceanAnimals	6	-1	[0, 0, 0]	n/a	catFR1	1	R1398J
83.282	0.866	86750	WORD_OFF	n/a	n/a	PLANKTON	OceanAnimals	6	-1	[0, 0, 0]	n/a	catFR1	1	R1398J
84.148	1.601	87618	WORD	n/a	n/a	SPINACH	Vegetables	7	-1	[0, 0, 0]	n/a	catFR1	1	R1398J
85.749	0.967	89213	WORD_OFF	n/a	n/a	SPINACH	Vegetables	7	-1	[0, 0, 0]	n/a	catFR1	1	R1398J
86.716	1.615	90181	WORD	n/a	n/a	CAULIFLOWER	Vegetables	8	-1	[0, 0, 0]	n/a	catFR1	1	R1398J
88.331	0.85	91801	WORD_OFF	n/a	n/a	CAULIFLOWER	Vegetables	8	-1	[0, 0, 0]	n/a	catFR1	1	R1398J
89.181	1.601	92644	WORD	n/a	n/a	CRAB	OceanAnimals	9	-1	[0, 0, 0]	n/a	catFR1	1	R1398J
90.782	0.95	94248	WORD_OFF	n/a	n/a	CRAB	OceanAnimals	9	-1	[0, 0, 0]	n/a	catFR1	1	R1398J
91.732	1.616	95198	WORD	n/a	n/a	SHRIMP	OceanAnimals	10	-1	[0, 0, 0]	n/a	catFR1	1	R1398J
93.348	0.8	96810	WORD_OFF	n/a	n/a	SHRIMP	OceanAnimals	10	-1	[0, 0, 0]	n/a	catFR1	1	R1398J
94.148	1.617	97612	WORD	n/a	n/a	PIG	FarmAnimals	11	-1	[0, 0, 0]	n/a	catFR1	1	R1398J
95.765	0.899	99233	WORD_OFF	n/a	n/a	PIG	FarmAnimals	11	-1	[0, 0, 0]	n/a	catFR1	1	R1398J
96.664	1.601	100134	WORD	n/a	n/a	TURKEY	FarmAnimals	12	-1	[0, 0, 0]	n/a	catFR1	1	R1398J
98.265	0.002	101729	WORD_OFF	n/a	n/a	TURKEY	FarmAnimals	12	-1	[0, 0, 0]	n/a	catFR1	1	R1398J
98.267	0.0	101729	ENCODING_END	n/a	n/a	n/a	n/a	-999	-1	[0, 0, 0]	n/a	catFR1	1	R1398J
98.266	0.001	101731	PROB	0.001	n/a	n/a	n/a	-999	-1	[8, 2, 5]	15	catFR1	1	R1398J
98.267	0.0	101732	START	n/a	n/a	n/a	n/a	-999	-1	[-999, -999, -999]	n/a	catFR1	1	R1398J
98.267	3.849	101737	DISTRACT_START	n/a	n/a	n/a	n/a	-999	-1	[0, 0, 0]	n/a	catFR1	1	R1398J
102.116	5.316	105580	PROB	5.316	n/a	n/a	n/a	-999	-1	[6, 7, 2]	15	catFR1	1	R1398J
107.432	3.401	110896	PROB	3.401	n/a	n/a	n/a	-999	-1	[4, 5, 5]	14	catFR1	1	R1398J
110.833	3.548	114297	PROB	3.548	n/a	n/a	n/a	-999	-1	[6, 2, 3]	11	catFR1	1	R1398J
114.381	5.483	117845	PROB	5.483	n/a	n/a	n/a	-999	-1	[7, 8, 8]	23	catFR1	1	R1398J
119.864	0.0	123328	STOP	n/a	n/a	n/a	n/a	-999	-1	[-999, -999, -999]	n/a	catFR1	1	R1398J
119.864	1.167	123330	DISTRACT_END	n/a	n/a	n/a	n/a	-999	-1	[0, 0, 0]	n/a	catFR1	1	R1398J
121.031	0.74	124495	REC_START	n/a	n/a	n/a	n/a	-999	-1	[0, 0, 0]	n/a	catFR1	1	R1398J
121.771	0.438	125235	REC_WORD_VV	0.438	n/a	<>	n/a	-999	-1	[0, 0, 0]	n/a	catFR1	1	R1398J
122.209	0.493	125673	REC_WORD	0.493	n/a	HEN	FarmAnimals	1	-1	[0, 0, 0]	n/a	catFR1	1	R1398J
122.702	1.025	126166	REC_WORD	1.025	n/a	CHICKEN	FarmAnimals	2	-1	[0, 0, 0]	n/a	catFR1	1	R1398J
123.727	0.703	127191	REC_WORD	0.703	n/a	CARROT	Vegetables	3	-1	[0, 0, 0]	n/a	catFR1	1	R1398J
124.43	2.039	127894	REC_WORD	2.039	n/a	CAULIFLOWER	Vegetables	8	-1	[0, 0, 0]	n/a	catFR1	1	R1398J
126.469	2.327	129932	REC_WORD_VV	2.327	n/a	<>	n/a	-999	-1	[0, 0, 0]	n/a	catFR1	1	R1398J
128.796	1.057	132259	REC_WORD	1.057	n/a	PIG	FarmAnimals	11	-1	[0, 0, 0]	n/a	catFR1	1	R1398J
129.853	1.904	133316	REC_WORD_VV	1.904	n/a	<>	n/a	-999	-1	[0, 0, 0]	n/a	catFR1	1	R1398J
131.757	0.912	135220	REC_WORD	0.912	n/a	WHALE	OceanAnimals	5	-1	[0, 0, 0]	n/a	catFR1	1	R1398J
132.669	1.858	136132	REC_WORD	1.858	n/a	SQUID	n/a	-999	-1	[0, 0, 0]	n/a	catFR1	1	R1398J
134.527	0.652	137990	REC_WORD_VV	0.652	n/a	<>	n/a	-999	-1	[0, 0, 0]	n/a	catFR1	1	R1398J
135.179	2.011	138642	REC_WORD	2.011	n/a	PLANKTON	OceanAnimals	6	-1	[0, 0, 0]	n/a	catFR1	1	R1398J
137.19	8.926	140653	REC_WORD_VV	8.926	n/a	<>	n/a	-999	-1	[0, 0, 0]	n/a	catFR1	1	R1398J
146.116	3.173	149579	REC_WORD	3.173	n/a	HORSE	n/a	-999	-1	[0, 0, 0]	n/a	catFR1	1	R1398J
149.289	2.949	152751	REC_WORD_VV	2.949	n/a	<>	n/a	-999	-1	[0, 0, 0]	n/a	catFR1	1	R1398J
152.238	7.094	155702	REC_END	n/a	n/a	n/a	n/a	-999	-1	[0, 0, 0]	n/a	catFR1	1	R1398J
159.332	10.363	162795	COUNTDOWN_START	n/a	n/a	n/a	n/a	-999	1	[0, 0, 0]	n/a	catFR1	1	R1398J
169.695	0.0	173161	COUNTDOWN_END	n/a	n/a	n/a	n/a	-999	1	[0, 0, 0]	n/a	catFR1	1	R1398J
169.695	2.037	173161	ENCODING_START	n/a	n/a	n/a	n/a	-999	1	[0, 0, 0]	n/a	catFR1	1	R1398J
171.732	1.6	175195	WORD	n/a	wordpools/wordpool_categorized_EN.txt	FISH	OceanAnimals	1	1	[0, 0, 0]	n/a	catFR1	1	R1398J
173.332	0.933	176799	WORD_OFF	n/a	n/a	FISH	OceanAnimals	1	1	[0, 0, 0]	n/a	catFR1	1	R1398J
174.265	1.617	177725	WORD	n/a	wordpools/wordpool_categorized_EN.txt	LOBSTER	OceanAnimals	2	1	[0, 0, 0]	n/a	catFR1	1	R1398J
175.882	0.9	179345	WORD_OFF	n/a	n/a	LOBSTER	OceanAnimals	2	1	[0, 0, 0]	n/a	catFR1	1	R1398J
176.782	1.617	180246	WORD	n/a	wordpools/wordpool_categorized_EN.txt	ZEBRA	Zoo	3	1	[0, 0, 0]	n/a	catFR1	1	R1398J
178.399	0.932	181858	WORD_OFF	n/a	n/a	ZEBRA	Zoo	3	1	[0, 0, 0]	n/a	catFR1	1	R1398J
179.331	1.617	182792	WORD	n/a	wordpools/wordpool_categorized_EN.txt	GORILLA	Zoo	4	1	[0, 0, 0]	n/a	catFR1	1	R1398J
180.948	0.767	184412	WORD_OFF	n/a	n/a	GORILLA	Zoo	4	1	[0, 0, 0]	n/a	catFR1	1	R1398J
181.715	1.617	185181	WORD	n/a	wordpools/wordpool_categorized_EN.txt	JEANS	Clothing	5	1	[0, 0, 0]	n/a	catFR1	1	R1398J
183.332	0.866	186793	WORD_OFF	n/a	n/a	JEANS	Clothing	5	1	[0, 0, 0]	n/a	catFR1	1	R1398J
184.198	1.616	187661	WORD	n/a	wordpools/wordpool_categorized_EN.txt	SKIRT	Clothing	6	1	[0, 0, 0]	n/a	catFR1	1	R1398J
185.814	0.867	189273	WORD_OFF	n/a	n/a	SKIRT	Clothing	6	1	[0, 0, 0]	n/a	catFR1	1	R1398J
186.681	1.617	190141	WORD	n/a	wordpools/wordpool_categorized_EN.txt	TURTLE	OceanAnimals	7	1	[0, 0, 0]	n/a	catFR1	1	R1398J
188.298	0.917	191761	WORD_OFF	n/a	n/a	TURTLE	OceanAnimals	7	1	[0, 0, 0]	n/a	catFR1	1	R1398J
189.215	1.616	192679	WORD	n/a	wordpools/wordpool_categorized_EN.txt	OYSTER	OceanAnimals	8	1	[0, 0, 0]	n/a	catFR1	1	R1398J
190.831	0.901	194291	WORD_OFF	n/a	n/a	OYSTER	OceanAnimals	8	1	[0, 0, 0]	n/a	catFR1	1	R1398J
191.732	1.6	195192	WORD	n/a	wordpools/wordpool_categorized_EN.txt	BLOUSE	Clothing	9	1	[0, 0, 0]	n/a	catFR1	1	R1398J
193.332	0.983	196796	WORD_OFF	n/a	n/a	BLOUSE	Clothing	9	1	[0, 0, 0]	n/a	catFR1	1	R1398J
194.315	1.617	197779	WORD	n/a	wordpools/wordpool_categorized_EN.txt	PANTS	Clothing	10	1	[0, 0, 0]	n/a	catFR1	1	R1398J
195.932	0.983	199391	WORD_OFF	n/a	n/a	PANTS	Clothing	10	1	[0, 0, 0]	n/a	catFR1	1	R1398J
196.915	1.6	200375	WORD	n/a	wordpools/wordpool_categorized_EN.txt	BEAR	Zoo	11	1	[0, 0, 0]	n/a	catFR1	1	R1398J
198.515	0.983	201979	WORD_OFF	n/a	n/a	BEAR	Zoo	11	1	[0, 0, 0]	n/a	catFR1	1	R1398J
199.498	1.6	202963	WORD	n/a	wordpools/wordpool_categorized_EN.txt	TIGER	Zoo	12	1	[0, 0, 0]	n/a	catFR1	1	R1398J
201.098	0.001	204558	WORD_OFF	n/a	n/a	TIGER	Zoo	12	1	[0, 0, 0]	n/a	catFR1	1	R1398J
201.099	0.006	204559	PROB	0.006	n/a	n/a	n/a	-999	1	[4, 2, 4]	10	catFR1	1	R1398J
201.105	0.0	204565	START	n/a	n/a	n/a	n/a	-999	1	[-999, -999, -999]	n/a	catFR1	1	R1398J
201.105	0.0	204566	ENCODING_END	n/a	n/a	n/a	n/a	-999	1	[0, 0, 0]	n/a	catFR1	1	R1398J
201.105	3.961	204566	DISTRACT_START	n/a	n/a	n/a	n/a	-999	1	[0, 0, 0]	n/a	catFR1	1	R1398J
205.066	4.583	208526	PROB	4.583	n/a	n/a	n/a	-999	1	[8, 7, 4]	17	catFR1	1	R1398J
209.649	3.85	213109	PROB	3.85	n/a	n/a	n/a	-999	1	[6, 2, 3]	11	catFR1	1	R1398J
213.499	4.649	216959	PROB	4.649	n/a	n/a	n/a	-999	1	[4, 7, 7]	21	catFR1	1	R1398J
218.148	4.933	221608	PROB	4.933	n/a	n/a	n/a	-999	1	[6, 2, 7]	15	catFR1	1	R1398J
223.081	0.0	226539	DISTRACT_END	n/a	n/a	n/a	n/a	-999	1	[0, 0, 0]	n/a	catFR1	1	R1398J
223.081	1.201	226540	STOP	n/a	n/a	n/a	n/a	-999	1	[-999, -999, -999]	n/a	catFR1	1	R1398J
224.282	1.068	227746	REC_START	n/a	n/a	n/a	n/a	-999	1	[0, 0, 0]	n/a	catFR1	1	R1398J
225.35	1.1	228809	REC_WORD_VV	1.1	n/a	<>	n/a	-999	1	[0, 0, 0]	n/a	catFR1	1	R1398J
226.45	1.075	229909	REC_WORD_VV	1.075	n/a	<>	n/a	-999	1	[0, 0, 0]	n/a	catFR1	1	R1398J
227.525	1.454	230984	REC_WORD	1.454	n/a	FISH	OceanAnimals	1	1	[0, 0, 0]	n/a	catFR1	1	R1398J
228.979	1.977	232438	REC_WORD	1.977	n/a	BEAR	Zoo	11	1	[0, 0, 0]	n/a	catFR1	1	R1398J
230.956	0.454	234415	REC_WORD_VV	0.454	n/a	<>	n/a	-999	1	[0, 0, 0]	n/a	catFR1	1	R1398J
231.41	0.606	234869	REC_WORD	0.606	n/a	PANTS	Clothing	10	1	[0, 0, 0]	n/a	catFR1	1	R1398J
232.016	1.764	235475	REC_WORD	1.764	n/a	BLOUSE	Clothing	9	1	[0, 0, 0]	n/a	catFR1	1	R1398J
233.78	10.711	237239	REC_WORD_VV	10.711	n/a	<>	n/a	-999	1	[0, 0, 0]	n/a	catFR1	1	R1398J
244.491	3.581	247950	REC_WORD_VV	3.581	n/a	<>	n/a	-999	1	[0, 0, 0]	n/a	catFR1	1	R1398J
248.072	2.084	251530	REC_WORD	2.084	n/a	SQUID	n/a	-999	1	[0, 0, 0]	n/a	catFR1	1	R1398J
250.156	0.684	253614	REC_WORD	0.684	n/a	WHALE	OceanAnimals	-999	1	[0, 0, 0]	n/a	catFR1	1	R1398J
250.84	4.674	254298	REC_WORD_VV	4.674	n/a	<>	n/a	-999	1	[0, 0, 0]	n/a	catFR1	1	R1398J
255.514	2.085	258978	REC_END	n/a	n/a	n/a	n/a	-999	1	[0, 0, 0]	n/a	catFR1	1	R1398J
257.599	10.359	261061	COUNTDOWN_START	n/a	n/a	n/a	n/a	-999	1	[0, 0, 0]	n/a	catFR1	1	R1398J
267.958	0.0	271419	COUNTDOWN_END	n/a	n/a	n/a	n/a	-999	1	[0, 0, 0]	n/a	catFR1	1	R1398J
267.958	1.874	271419	ENCODING_START	n/a	n/a	n/a	n/a	-999	2	[0, 0, 0]	n/a	catFR1	1	R1398J
269.832	1.6	273287	WORD	n/a	wordpools/wordpool_categorized_EN.txt	CIDER	Beverages	1	2	[0, 0, 0]	n/a	catFR1	1	R1398J
271.432	0.799	274891	WORD_OFF	n/a	n/a	CIDER	Beverages	1	2	[0, 0, 0]	n/a	catFR1	1	R1398J
272.231	1.601	275693	WORD	n/a	wordpools/wordpool_categorized_EN.txt	WATER	Beverages	2	2	[0, 0, 0]	n/a	catFR1	1	R1398J
273.832	0.9	277288	WORD_OFF	n/a	n/a	WATER	Beverages	2	2	[0, 0, 0]	n/a	catFR1	1	R1398J
274.732	1.617	278189	WORD	n/a	wordpools/wordpool_categorized_EN.txt	WIND	Weather	3	2	[0, 0, 0]	n/a	catFR1	1	R1398J
276.349	0.966	279810	WORD_OFF	n/a	n/a	WIND	Weather	3	2	[0, 0, 0]	n/a	catFR1	1	R1398J
277.315	1.617	280777	WORD	n/a	wordpools/wordpool_categorized_EN.txt	SNOW	Weather	4	2	[0, 0, 0]	n/a	catFR1	1	R1398J
278.932	0.782	282389	WORD_OFF	n/a	n/a	SNOW	Weather	4	2	[0, 0, 0]	n/a	catFR1	1	R1398J
279.714	1.601	283174	WORD	n/a	wordpools/wordpool_categorized_EN.txt	HEADPHONES	Electronics	5	2	[0, 0, 0]	n/a	catFR1	1	R1398J
281.315	1.016	284770	WORD_OFF	n/a	n/a	HEADPHONES	Electronics	5	2	[0, 0, 0]	n/a	catFR1	1	R1398J
282.331	1.617	285786	WORD	n/a	wordpools/wordpool_categorized_EN.txt	MICROWAVE	Electronics	6	2	[0, 0, 0]	n/a	catFR1	1	R1398J
283.948	0.967	287407	WORD_OFF	n/a	n/a	MICROWAVE	Electronics	6	2	[0, 0, 0]	n/a	catFR1	1	R1398J
284.915	1.617	288374	WORD	n/a	wordpools/wordpool_categorized_EN.txt	MILK	Beverages	7	2	[0, 0, 0]	n/a	catFR1	1	R1398J
286.532	0.949	289994	WORD_OFF	n/a	n/a	MILK	Beverages	7	2	[0, 0, 0]	n/a	catFR1	1	R1398J
287.481	1.601	290936	WORD	n/a	wordpools/wordpool_categorized_EN.txt	BEER	Beverages	8	2	[0, 0, 0]	n/a	catFR1	1	R1398J
289.082	0.8	292540	WORD_OFF	n/a	n/a	BEER	Beverages	8	2	[0, 0, 0]	n/a	catFR1	1	R1398J
289.882	1.6	293342	WORD	n/a	wordpools/wordpool_categorized_EN.txt	HUMIDITY	Weather	9	2	[0, 0, 0]	n/a	catFR1	1	R1398J
291.482	0.85	294938	WORD_OFF	n/a	n/a	HUMIDITY	Weather	9	2	[0, 0, 0]	n/a	catFR1	1	R1398J
292.332	1.6	295789	WORD	n/a	wordpools/wordpool_categorized_EN.txt	THUNDER	Weather	10	2	[0, 0, 0]	n/a	catFR1	1	R1398J
293.932	0.766	297393	WORD_OFF	n/a	n/a	THUNDER	Weather	10	2	[0, 0, 0]	n/a	catFR1	1	R1398J
294.698	1.617	298153	WORD	n/a	wordpools/wordpool_categorized_EN.txt	SPEAKER	Electronics	11	2	[0, 0, 0]	n/a	catFR1	1	R1398J
296.315	1.0	299774	WORD_OFF	n/a	n/a	SPEAKER	Electronics	11	2	[0, 0, 0]	n/a	catFR1	1	R1398J
297.315	1.6	300774	WORD	n/a	wordpools/wordpool_categorized_EN.txt	COMPUTER	Electronics	12	2	[0, 0, 0]	n/a	catFR1	1	R1398J
298.915	0.001	302369	WORD_OFF	n/a	n/a	COMPUTER	Electronics	12	2	[0, 0, 0]	n/a	catFR1	1	R1398J
298.916	0.0	302372	START	n/a	n/a	n/a	n/a	-999	2	[-999, -999, -999]	n/a	catFR1	1	R1398J
298.916	0.0	302372	PROB	0.0	n/a	n/a	n/a	-999	2	[2, 6, 7]	15	catFR1	1	R1398J
298.916	0.0	302377	ENCODING_END	n/a	n/a	n/a	n/a	-999	2	[0, 0, 0]	n/a	catFR1	1	R1398J
298.916	4.05	302377	DISTRACT_START	n/a	n/a	n/a	n/a	-999	2	[0, 0, 0]	n/a	catFR1	1	R1398J
302.966	5.883	306422	PROB	5.883	n/a	n/a	n/a	-999	2	[7, 8, 8]	23	catFR1	1	R1398J
308.849	3.749	312305	PROB	3.749	n/a	n/a	n/a	-999	2	[7, 6, 4]	17	catFR1	1	R1398J
312.598	3.335	316054	PROB	3.335	n/a	n/a	n/a	-999	2	[2, 2, 3]	7	catFR1	1	R1398J
315.933	3.515	319389	PROB	3.515	n/a	n/a	n/a	-999	2	[4, 3, 3]	10	catFR1	1	R1398J
319.448	0.0	322903	STOP	n/a	n/a	n/a	n/a	-999	2	[-999, -999, -999]	n/a	catFR1	1	R1398J
319.448	1.05	322904	DISTRACT_END	n/a	n/a	n/a	n/a	-999	2	[0, 0, 0]	n/a	catFR1	1	R1398J
320.498	0.663	323953	REC_START	n/a	n/a	n/a	n/a	-999	2	[0, 0, 0]	n/a	catFR1	1	R1398J
321.161	2.547	324616	REC_WORD_VV	2.547	n/a	<>	n/a	-999	2	[0, 0, 0]	n/a	catFR1	1	R1398J
323.708	1.424	327163	REC_WORD	1.424	n/a	THUNDER	Weather	10	2	[0, 0, 0]	n/a	catFR1	1	R1398J
325.132	2.231	328587	REC_WORD	2.231	n/a	HUMIDITY	Weather	9	2	[0, 0, 0]	n/a	catFR1	1	R1398J
327.363	4.672	330818	REC_WORD_VV	4.672	n/a	<>	n/a	-999	2	[0, 0, 0]	n/a	catFR1	1	R1398J
332.035	1.856	335490	REC_WORD	1.856	n/a	WIND	Weather	3	2	[0, 0, 0]	n/a	catFR1	1	R1398J
333.891	7.73	337346	REC_WORD_VV	7.73	n/a	<>	n/a	-999	2	[0, 0, 0]	n/a	catFR1	1	R1398J
341.621	2.312	345076	REC_WORD_VV	2.312	n/a	<>	n/a	-999	2	[0, 0, 0]	n/a	catFR1	1	R1398J
343.933	1.711	347387	REC_WORD_VV	1.711	n/a	<>	n/a	-999	2	[0, 0, 0]	n/a	catFR1	1	R1398J
345.644	1.062	349098	REC_WORD	1.062	n/a	SHEEP	n/a	-999	2	[0, 0, 0]	n/a	catFR1	1	R1398J
346.706	5.011	350160	REC_WORD_VV	5.011	n/a	<>	n/a	-999	2	[0, 0, 0]	n/a	catFR1	1	R1398J
351.717	1.881	355168	REC_END	n/a	n/a	n/a	n/a	-999	2	[0, 0, 0]	n/a	catFR1	1	R1398J
353.598	10.361	357053	COUNTDOWN_START	n/a	n/a	n/a	n/a	-999	2	[0, 0, 0]	n/a	catFR1	1	R1398J
363.959	0.0	367411	COUNTDOWN_END	n/a	n/a	n/a	n/a	-999	2	[0, 0, 0]	n/a	catFR1	1	R1398J
363.959	2.056	367420	ENCODING_START	n/a	n/a	n/a	n/a	-999	3	[0, 0, 0]	n/a	catFR1	1	R1398J
366.015	1.617	369470	WORD	n/a	wordpools/wordpool_categorized_EN.txt	MOSQUITO	Insects	1	3	[0, 0, 0]	n/a	catFR1	1	R1398J
367.632	0.849	371090	WORD_OFF	n/a	n/a	MOSQUITO	Insects	1	3	[0, 0, 0]	n/a	catFR1	1	R1398J
368.481	1.601	371933	WORD	n/a	wordpools/wordpool_categorized_EN.txt	ANT	Insects	2	3	[0, 0, 0]	n/a	catFR1	1	R1398J
370.082	0.967	373537	WORD_OFF	n/a	n/a	ANT	Insects	2	3	[0, 0, 0]	n/a	catFR1	1	R1398J
371.049	1.615	374504	WORD	n/a	wordpools/wordpool_categorized_EN.txt	DAISY	Flowers	3	3	[0, 0, 0]	n/a	catFR1	1	R1398J
372.664	0.901	376116	WORD_OFF	n/a	n/a	DAISY	Flowers	3	3	[0, 0, 0]	n/a	catFR1	1	R1398J
373.565	1.616	377017	WORD	n/a	wordpools/wordpool_categorized_EN.txt	TULIP	Flowers	4	3	[0, 0, 0]	n/a	catFR1	1	R1398J
375.181	0.951	378637	WORD_OFF	n/a	n/a	TULIP	Flowers	4	3	[0, 0, 0]	n/a	catFR1	1	R1398J
376.132	1.616	379588	WORD	n/a	wordpools/wordpool_categorized_EN.txt	COUCH	Furniture	5	3	[0, 0, 0]	n/a	catFR1	1	R1398J
377.748	0.95	381200	WORD_OFF	n/a	n/a	COUCH	Furniture	5	3	[0, 0, 0]	n/a	catFR1	1	R1398J
378.698	1.601	382151	WORD	n/a	wordpools/wordpool_categorized_EN.txt	TABLE	Furniture	6	3	[0, 0, 0]	n/a	catFR1	1	R1398J
380.299	0.983	383755	WORD_OFF	n/a	n/a	TABLE	Furniture	6	3	[0, 0, 0]	n/a	catFR1	1	R1398J
381.282	1.6	384738	WORD	n/a	wordpools/wordpool_categorized_EN.txt	LILY	Flowers	7	3	[0, 0, 0]	n/a	catFR1	1	R1398J
382.882	0.816	386334	WORD_OFF	n/a	n/a	LILY	Flowers	7	3	[0, 0, 0]	n/a	catFR1	1	R1398J
383.698	1.6	387152	WORD	n/a	wordpools/wordpool_categorized_EN.txt	MARIGOLD	Flowers	8	3	[0, 0, 0]	n/a	catFR1	1	R1398J
385.298	0.867	388756	WORD_OFF	n/a	n/a	MARIGOLD	Flowers	8	3	[0, 0, 0]	n/a	catFR1	1	R1398J
386.165	1.616	389616	WORD	n/a	wordpools/wordpool_categorized_EN.txt	MOTH	Insects	9	3	[0, 0, 0]	n/a	catFR1	1	R1398J
387.781	0.901	391236	WORD_OFF	n/a	n/a	MOTH	Insects	9	3	[0, 0, 0]	n/a	catFR1	1	R1398J
388.682	1.617	392137	WORD	n/a	wordpools/wordpool_categorized_EN.txt	BEETLE	Insects	10	3	[0, 0, 0]	n/a	catFR1	1	R1398J
390.299	0.983	393749	WORD_OFF	n/a	n/a	BEETLE	Insects	10	3	[0, 0, 0]	n/a	catFR1	1	R1398J
391.282	1.616	394733	WORD	n/a	wordpools/wordpool_categorized_EN.txt	DESK	Furniture	11	3	[0, 0, 0]	n/a	catFR1	1	R1398J
392.898	0.934	396353	WORD_OFF	n/a	n/a	DESK	Furniture	11	3	[0, 0, 0]	n/a	catFR1	1	R1398J
393.832	1.617	397287	WORD	n/a	wordpools/wordpool_categorized_EN.txt	DRESSER	Furniture	12	3	[0, 0, 0]	n/a	catFR1	1	R1398J
395.449	0.0	398899	WORD_OFF	n/a	n/a	DRESSER	Furniture	12	3	[0, 0, 0]	n/a	catFR1	1	R1398J
395.449	0.001	398901	PROB	0.001	n/a	n/a	n/a	-999	3	[2, 3, 4]	9	catFR1	1	R1398J
395.45	0.0	398902	START	n/a	n/a	n/a	n/a	-999	3	[-999, -999, -999]	n/a	catFR1	1	R1398J
395.45	0.0	398907	ENCODING_END	n/a	n/a	n/a	n/a	-999	3	[0, 0, 0]	n/a	catFR1	1	R1398J
395.45	3.333	398907	DISTRACT_START	n/a	n/a	n/a	n/a	-999	3	[0, 0, 0]	n/a	catFR1	1	R1398J
398.783	4.482	402235	PROB	4.482	n/a	n/a	n/a	-999	3	[5, 5, 6]	16	catFR1	1	R1398J
403.265	3.599	406717	PROB	3.599	n/a	n/a	n/a	-999	3	[7, 4, 4]	15	catFR1	1	R1398J
406.864	4.618	410316	PROB	4.618	n/a	n/a	n/a	-999	3	[3, 8, 6]	17	catFR1	1	R1398J
411.482	3.017	414934	PROB	3.017	n/a	n/a	n/a	-999	3	[7, 6, 4]	17	catFR1	1	R1398J
414.499	2.849	417951	PROB	2.849	n/a	n/a	n/a	-999	3	[7, 1, 1]	9	catFR1	1	R1398J
417.348	0.0	420797	DISTRACT_END	n/a	n/a	n/a	n/a	-999	3	[0, 0, 0]	n/a	catFR1	1	R1398J
417.348	1.334	420799	STOP	n/a	n/a	n/a	n/a	-999	3	[-999, -999, -999]	n/a	catFR1	1	R1398J
418.682	0.348	422137	REC_START	n/a	n/a	n/a	n/a	-999	3	[0, 0, 0]	n/a	catFR1	1	R1398J
419.03	1.0	422481	REC_WORD	1.0	n/a	MOSQUITO	Insects	1	3	[0, 0, 0]	n/a	catFR1	1	R1398J
420.03	0.225	423481	REC_WORD_VV	0.225	n/a	<>	n/a	-999	3	[0, 0, 0]	n/a	catFR1	1	R1398J
420.255	1.032	423706	REC_WORD	1.032	n/a	ANT	Insects	2	3	[0, 0, 0]	n/a	catFR1	1	R1398J
421.287	1.904	424738	REC_WORD	1.904	n/a	BEETLE	Insects	10	3	[0, 0, 0]	n/a	catFR1	1	R1398J
423.191	1.943	426642	REC_WORD_VV	1.943	n/a	<>	n/a	-999	3	[0, 0, 0]	n/a	catFR1	1	R1398J
425.134	1.575	428585	REC_WORD	1.575	n/a	MARIGOLD	Flowers	8	3	[0, 0, 0]	n/a	catFR1	1	R1398J
426.709	0.55	430160	REC_WORD_VV	0.55	n/a	<>	n/a	-999	3	[0, 0, 0]	n/a	catFR1	1	R1398J
427.259	1.903	430710	REC_WORD	1.903	n/a	TULIP	Flowers	4	3	[0, 0, 0]	n/a	catFR1	1	R1398J
429.162	0.941	432613	REC_WORD_VV	0.941	n/a	<>	n/a	-999	3	[0, 0, 0]	n/a	catFR1	1	R1398J
430.103	1.481	433554	REC_WORD	1.481	n/a	FLOWER	n/a	-999	3	[0, 0, 0]	n/a	catFR1	1	R1398J
431.584	4.891	435035	REC_WORD_VV	4.891	n/a	<>	n/a	-999	3	[0, 0, 0]	n/a	catFR1	1	R1398J
436.475	1.889	439926	REC_WORD	1.889	n/a	DRESSER	Furniture	12	3	[0, 0, 0]	n/a	catFR1	1	R1398J
438.364	0.912	441815	REC_WORD_VV	0.912	n/a	<>	n/a	-999	3	[0, 0, 0]	n/a	catFR1	1	R1398J
439.276	3.585	442727	REC_WORD	3.585	n/a	MICROWAVE	Electronics	-999	3	[0, 0, 0]	n/a	catFR1	1	R1398J
442.861	7.054	446311	REC_WORD_VV	7.054	n/a	<>	n/a	-999	3	[0, 0, 0]	n/a	catFR1	1	R1398J
449.915	1.567	453368	REC_END	n/a	n/a	n/a	n/a	-999	3	[0, 0, 0]	n/a	catFR1	1	R1398J
451.482	10.364	454939	COUNTDOWN_START	n/a	n/a	n/a	n/a	-999	3	[0, 0, 0]	n/a	catFR1	1	R1398J
461.846	0.0	465297	COUNTDOWN_END	n/a	n/a	n/a	n/a	-999	3	[0, 0, 0]	n/a	catFR1	1	R1398J
461.846	1.969	465297	ENCODING_START	n/a	n/a	n/a	n/a	-999	4	[0, 0, 0]	n/a	catFR1	1	R1398J
463.815	1.617	467264	WORD	n/a	wordpools/wordpool_categorized_EN.txt	CORN	Vegetables	1	4	[0, 0, 0]	n/a	catFR1	1	R1398J
465.432	0.915	468885	WORD_OFF	n/a	n/a	CORN	Vegetables	1	4	[0, 0, 0]	n/a	catFR1	1	R1398J
466.347	1.601	469802	WORD	n/a	wordpools/wordpool_categorized_EN.txt	CELERY	Vegetables	2	4	[0, 0, 0]	n/a	catFR1	1	R1398J
467.948	0.901	471398	WORD_OFF	n/a	n/a	CELERY	Vegetables	2	4	[0, 0, 0]	n/a	catFR1	1	R1398J
468.849	1.615	472299	WORD	n/a	wordpools/wordpool_categorized_EN.txt	KNIFE	KitchenTools	3	4	[0, 0, 0]	n/a	catFR1	1	R1398J
470.464	0.951	473911	WORD_OFF	n/a	n/a	KNIFE	KitchenTools	3	4	[0, 0, 0]	n/a	catFR1	1	R1398J
471.415	1.6	474861	WORD	n/a	wordpools/wordpool_categorized_EN.txt	FORK	KitchenTools	4	4	[0, 0, 0]	n/a	catFR1	1	R1398J
473.015	0.85	476465	WORD_OFF	n/a	n/a	FORK	KitchenTools	4	4	[0, 0, 0]	n/a	catFR1	1	R1398J
473.865	1.6	477317	WORD	n/a	wordpools/wordpool_categorized_EN.txt	BINDER	OfficeSupplies	5	4	[0, 0, 0]	n/a	catFR1	1	R1398J
475.465	0.984	478912	WORD_OFF	n/a	n/a	BINDER	OfficeSupplies	5	4	[0, 0, 0]	n/a	catFR1	1	R1398J
476.449	1.615	479896	WORD	n/a	wordpools/wordpool_categorized_EN.txt	ERASER	OfficeSupplies	6	4	[0, 0, 0]	n/a	catFR1	1	R1398J
478.064	1.0	481516	WORD_OFF	n/a	n/a	ERASER	OfficeSupplies	6	4	[0, 0, 0]	n/a	catFR1	1	R1398J
479.064	1.6	482516	WORD	n/a	wordpools/wordpool_categorized_EN.txt	CABBAGE	Vegetables	7	4	[0, 0, 0]	n/a	catFR1	1	R1398J
480.664	0.985	484112	WORD_OFF	n/a	n/a	CABBAGE	Vegetables	7	4	[0, 0, 0]	n/a	catFR1	1	R1398J
481.649	1.616	485096	WORD	n/a	wordpools/wordpool_categorized_EN.txt	ONION	Vegetables	8	4	[0, 0, 0]	n/a	catFR1	1	R1398J
483.265	0.983	486716	WORD_OFF	n/a	n/a	ONION	Vegetables	8	4	[0, 0, 0]	n/a	catFR1	1	R1398J
484.248	1.617	487700	WORD	n/a	wordpools/wordpool_categorized_EN.txt	COLANDER	KitchenTools	9	4	[0, 0, 0]	n/a	catFR1	1	R1398J
485.865	0.783	489312	WORD_OFF	n/a	n/a	COLANDER	KitchenTools	9	4	[0, 0, 0]	n/a	catFR1	1	R1398J
486.648	1.6	490097	WORD	n/a	wordpools/wordpool_categorized_EN.txt	CORKSCREW	KitchenTools	10	4	[0, 0, 0]	n/a	catFR1	1	R1398J
488.248	1.001	491701	WORD_OFF	n/a	n/a	CORKSCREW	KitchenTools	10	4	[0, 0, 0]	n/a	catFR1	1	R1398J
489.249	1.615	492701	WORD	n/a	wordpools/wordpool_categorized_EN.txt	MARKER	OfficeSupplies	11	4	[0, 0, 0]	n/a	catFR1	1	R1398J
490.864	0.784	494313	WORD_OFF	n/a	n/a	MARKER	OfficeSupplies	11	4	[0, 0, 0]	n/a	catFR1	1	R1398J
491.648	1.618	495098	WORD	n/a	wordpools/wordpool_categorized_EN.txt	TAPE	OfficeSupplies	12	4	[0, 0, 0]	n/a	catFR1	1	R1398J
493.266	0.001	496714	PROB	0.001	n/a	n/a	n/a	-999	4	[1, 8, 4]	13	catFR1	1	R1398J
493.267	0.0	496715	START	n/a	n/a	n/a	n/a	-999	4	[-999, -999, -999]	n/a	catFR1	1	R1398J
493.265	0.002	496718	WORD_OFF	n/a	n/a	TAPE	OfficeSupplies	12	4	[0, 0, 0]	n/a	catFR1	1	R1398J
493.267	0.0	496718	ENCODING_END	n/a	n/a	n/a	n/a	-999	4	[0, 0, 0]	n/a	catFR1	1	R1398J
493.267	4.365	496718	DISTRACT_START	n/a	n/a	n/a	n/a	-999	4	[0, 0, 0]	n/a	catFR1	1	R1398J
497.632	4.367	501080	PROB	4.367	n/a	n/a	n/a	-999	4	[2, 1, 4]	7	catFR1	1	R1398J
501.999	2.6	505447	PROB	2.6	n/a	n/a	n/a	-999	4	[1, 3, 7]	11	catFR1	1	R1398J
504.599	2.967	508047	PROB	2.967	n/a	n/a	n/a	-999	4	[4, 3, 7]	14	catFR1	1	R1398J
507.566	3.933	511014	PROB	3.933	n/a	n/a	n/a	-999	4	[3, 1, 8]	12	catFR1	1	R1398J
511.499	3.133	514947	PROB	3.133	n/a	n/a	n/a	-999	4	[2, 5, 2]	9	catFR1	1	R1398J
514.632	0.0	518079	STOP	n/a	n/a	n/a	n/a	-999	4	[-999, -999, -999]	n/a	catFR1	1	R1398J
514.632	1.283	518080	DISTRACT_END	n/a	n/a	n/a	n/a	-999	4	[0, 0, 0]	n/a	catFR1	1	R1398J
515.915	0.698	519361	REC_START	n/a	n/a	n/a	n/a	-999	4	[0, 0, 0]	n/a	catFR1	1	R1398J
516.613	0.566	520060	REC_WORD_VV	0.566	n/a	<>	n/a	-999	4	[0, 0, 0]	n/a	catFR1	1	R1398J
517.179	2.038	520626	REC_WORD	2.038	n/a	CORKSCREW	KitchenTools	10	4	[0, 0, 0]	n/a	catFR1	1	R1398J
519.217	1.153	522664	REC_WORD_VV	1.153	n/a	<>	n/a	-999	4	[0, 0, 0]	n/a	catFR1	1	R1398J
520.37	1.631	523817	REC_WORD	1.631	n/a	COLANDER	KitchenTools	9	4	[0, 0, 0]	n/a	catFR1	1	R1398J
522.001	12.992	525448	REC_WORD_VV	12.992	n/a	<>	n/a	-999	4	[0, 0, 0]	n/a	catFR1	1	R1398J
534.993	2.259	538440	REC_WORD	2.259	n/a	DRESSER	Furniture	-999	4	[0, 0, 0]	n/a	catFR1	1	R1398J
537.252	7.577	540698	REC_WORD_VV	7.577	n/a	<>	n/a	-999	4	[0, 0, 0]	n/a	catFR1	1	R1398J
544.829	2.314	548275	REC_WORD	2.314	n/a	ANT	Insects	-999	4	[0, 0, 0]	n/a	catFR1	1	R1398J
547.143	2.089	550592	REC_END	n/a	n/a	n/a	n/a	-999	4	[0, 0, 0]	n/a	catFR1	1	R1398J
549.232	10.363	552684	COUNTDOWN_START	n/a	n/a	n/a	n/a	-999	4	[0, 0, 0]	n/a	catFR1	1	R1398J
559.595	0.0	563042	COUNTDOWN_END	n/a	n/a	n/a	n/a	-999	4	[0, 0, 0]	n/a	catFR1	1	R1398J
559.595	1.92	563042	ENCODING_START	n/a	n/a	n/a	n/a	-999	5	[0, 0, 0]	n/a	catFR1	1	R1398J
561.515	1.6	564960	WORD	n/a	wordpools/wordpool_categorized_EN.txt	PIANO	Instruments	1	5	[0, 0, 0]	n/a	catFR1	1	R1398J
563.115	0.867	566563	WORD_OFF	n/a	n/a	PIANO	Instruments	1	5	[0, 0, 0]	n/a	catFR1	1	R1398J
563.982	1.617	567431	WORD	n/a	wordpools/wordpool_categorized_EN.txt	TROMBONE	Instruments	2	5	[0, 0, 0]	n/a	catFR1	1	R1398J
565.599	0.8	569043	WORD_OFF	n/a	n/a	TROMBONE	Instruments	2	5	[0, 0, 0]	n/a	catFR1	1	R1398J
566.399	1.616	569845	WORD	n/a	wordpools/wordpool_categorized_EN.txt	OVEN	Appliances	3	5	[0, 0, 0]	n/a	catFR1	1	R1398J
568.015	0.867	571457	WORD_OFF	n/a	n/a	OVEN	Appliances	3	5	[0, 0, 0]	n/a	catFR1	1	R1398J
568.882	1.6	572325	WORD	n/a	wordpools/wordpool_categorized_EN.txt	REFRIGERATOR	Appliances	4	5	[0, 0, 0]	n/a	catFR1	1	R1398J
570.482	0.882	573929	WORD_OFF	n/a	n/a	REFRIGERATOR	Appliances	4	5	[0, 0, 0]	n/a	catFR1	1	R1398J
571.364	1.618	574814	WORD	n/a	wordpools/wordpool_categorized_EN.txt	JACKET	Clothing	5	5	[0, 0, 0]	n/a	catFR1	1	R1398J
572.982	0.833	576426	WORD_OFF	n/a	n/a	JACKET	Clothing	5	5	[0, 0, 0]	n/a	catFR1	1	R1398J
573.815	1.6	577261	WORD	n/a	wordpools/wordpool_categorized_EN.txt	SHIRT	Clothing	6	5	[0, 0, 0]	n/a	catFR1	1	R1398J
575.415	0.984	578864	WORD_OFF	n/a	n/a	SHIRT	Clothing	6	5	[0, 0, 0]	n/a	catFR1	1	R1398J
576.399	1.6	579848	WORD	n/a	wordpools/wordpool_categorized_EN.txt	BASS	Instruments	7	5	[0, 0, 0]	n/a	catFR1	1	R1398J
577.999	0.999	581443	WORD_OFF	n/a	n/a	BASS	Instruments	7	5	[0, 0, 0]	n/a	catFR1	1	R1398J
578.998	1.6	582444	WORD	n/a	wordpools/wordpool_categorized_EN.txt	BANJO	Instruments	8	5	[0, 0, 0]	n/a	catFR1	1	R1398J
580.598	0.966	584047	WORD_OFF	n/a	n/a	BANJO	Instruments	8	5	[0, 0, 0]	n/a	catFR1	1	R1398J
581.564	1.601	585006	WORD	n/a	wordpools/wordpool_categorized_EN.txt	IRON	Appliances	9	5	[0, 0, 0]	n/a	catFR1	1	R1398J
583.165	0.884	586610	WORD_OFF	n/a	n/a	IRON	Appliances	9	5	[0, 0, 0]	n/a	catFR1	1	R1398J
584.049	1.616	587495	WORD	n/a	wordpools/wordpool_categorized_EN.txt	DISHWASHER	Appliances	10	5	[0, 0, 0]	n/a	catFR1	1	R1398J
585.665	0.867	589107	WORD_OFF	n/a	n/a	DISHWASHER	Appliances	10	5	[0, 0, 0]	n/a	catFR1	1	R1398J
586.532	1.6	589975	WORD	n/a	wordpools/wordpool_categorized_EN.txt	SHORTS	Clothing	11	5	[0, 0, 0]	n/a	catFR1	1	R1398J
588.132	0.849	591578	WORD_OFF	n/a	n/a	SHORTS	Clothing	11	5	[0, 0, 0]	n/a	catFR1	1	R1398J
588.981	1.617	592430	WORD	n/a	wordpools/wordpool_categorized_EN.txt	SOCKS	Clothing	12	5	[0, 0, 0]	n/a	catFR1	1	R1398J
590.598	0.001	594042	WORD_OFF	n/a	n/a	SOCKS	Clothing	12	5	[0, 0, 0]	n/a	catFR1	1	R1398J
590.599	0.0	594042	ENCODING_END	n/a	n/a	n/a	n/a	-999	5	[0, 0, 0]	n/a	catFR1	1	R1398J
590.599	0.0	594043	PROB	0.0	n/a	n/a	n/a	-999	5	[2, 6, 7]	15	catFR1	1	R1398J
590.599	0.0	594043	START	n/a	n/a	n/a	n/a	-999	5	[-999, -999, -999]	n/a	catFR1	1	R1398J
590.599	5.066	594050	DISTRACT_START	n/a	n/a	n/a	n/a	-999	5	[0, 0, 0]	n/a	catFR1	1	R1398J
595.665	3.484	599109	PROB	3.484	n/a	n/a	n/a	-999	5	[5, 1, 2]	8	catFR1	1	R1398J
599.149	3.918	602593	PROB	3.918	n/a	n/a	n/a	-999	5	[2, 2, 7]	11	catFR1	1	R1398J
603.067	3.832	606511	PROB	3.832	n/a	n/a	n/a	-999	5	[8, 7, 2]	17	catFR1	1	R1398J
606.899	3.216	610343	PROB	3.216	n/a	n/a	n/a	-999	5	[5, 5, 7]	17	catFR1	1	R1398J
610.115	3.267	613558	PROB	3.267	n/a	n/a	n/a	-999	5	[5, 8, 4]	17	catFR1	1	R1398J
613.382	0.0	616825	DISTRACT_END	n/a	n/a	n/a	n/a	-999	5	[0, 0, 0]	n/a	catFR1	1	R1398J
613.382	1.15	616825	STOP	n/a	n/a	n/a	n/a	-999	5	[-999, -999, -999]	n/a	catFR1	1	R1398J
614.532	0.567	617974	REC_START	n/a	n/a	n/a	n/a	-999	5	[0, 0, 0]	n/a	catFR1	1	R1398J
615.099	0.444	618542	REC_WORD_VV	0.444	n/a	<>	n/a	-999	5	[0, 0, 0]	n/a	catFR1	1	R1398J
615.543	1.626	618986	REC_WORD	1.626	n/a	REFRIGERATOR	Appliances	4	5	[0, 0, 0]	n/a	catFR1	1	R1398J
617.169	0.75	620612	REC_WORD_VV	0.75	n/a	<>	n/a	-999	5	[0, 0, 0]	n/a	catFR1	1	R1398J
617.919	1.967	621362	REC_WORD	1.967	n/a	OVEN	Appliances	3	5	[0, 0, 0]	n/a	catFR1	1	R1398J
619.886	1.874	623329	REC_WORD	1.874	n/a	IRON	Appliances	9	5	[0, 0, 0]	n/a	catFR1	1	R1398J
621.76	9.178	625203	REC_WORD_VV	9.178	n/a	<>	n/a	-999	5	[0, 0, 0]	n/a	catFR1	1	R1398J
630.938	3.422	634381	REC_WORD	3.422	n/a	SHORTS	Clothing	11	5	[0, 0, 0]	n/a	catFR1	1	R1398J
634.36	1.885	637802	REC_WORD	1.885	n/a	PANTS	Clothing	-999	5	[0, 0, 0]	n/a	catFR1	1	R1398J
636.245	6.018	639687	REC_WORD_VV	6.018	n/a	<>	n/a	-999	5	[0, 0, 0]	n/a	catFR1	1	R1398J
642.263	2.023	645705	REC_WORD	2.023	n/a	DISHWASHER	Appliances	10	5	[0, 0, 0]	n/a	catFR1	1	R1398J
644.286	1.479	647728	REC_WORD_VV	1.479	n/a	<>	n/a	-999	5	[0, 0, 0]	n/a	catFR1	1	R1398J
645.765	1.983	649205	REC_END	n/a	n/a	n/a	n/a	-999	5	[0, 0, 0]	n/a	catFR1	1	R1398J
647.748	10.361	651189	COUNTDOWN_START	n/a	n/a	n/a	n/a	-999	5	[0, 0, 0]	n/a	catFR1	1	R1398J
658.109	0.001	661556	COUNTDOWN_END	n/a	n/a	n/a	n/a	-999	5	[0, 0, 0]	n/a	catFR1	1	R1398J
658.11	2.155	661556	ENCODING_START	n/a	n/a	n/a	n/a	-999	6	[0, 0, 0]	n/a	catFR1	1	R1398J
660.265	1.617	663705	WORD	n/a	wordpools/wordpool_categorized_EN.txt	ORANGUTAN	Zoo	1	6	[0, 0, 0]	n/a	catFR1	1	R1398J
661.882	0.933	665325	WORD_OFF	n/a	n/a	ORANGUTAN	Zoo	1	6	[0, 0, 0]	n/a	catFR1	1	R1398J
662.815	1.617	666259	WORD	n/a	wordpools/wordpool_categorized_EN.txt	CHEETAH	Zoo	2	6	[0, 0, 0]	n/a	catFR1	1	R1398J
664.432	0.867	667871	WORD_OFF	n/a	n/a	CHEETAH	Zoo	2	6	[0, 0, 0]	n/a	catFR1	1	R1398J
665.299	1.616	668739	WORD	n/a	wordpools/wordpool_categorized_EN.txt	HILLS	Landscapes	3	6	[0, 0, 0]	n/a	catFR1	1	R1398J
666.915	0.949	670360	WORD_OFF	n/a	n/a	HILLS	Landscapes	3	6	[0, 0, 0]	n/a	catFR1	1	R1398J
667.864	1.617	671310	WORD	n/a	wordpools/wordpool_categorized_EN.txt	ISLAND	Landscapes	4	6	[0, 0, 0]	n/a	catFR1	1	R1398J
669.481	0.8	672922	WORD_OFF	n/a	n/a	ISLAND	Landscapes	4	6	[0, 0, 0]	n/a	catFR1	1	R1398J
670.281	1.601	673724	WORD	n/a	wordpools/wordpool_categorized_EN.txt	LADLE	KitchenTools	5	6	[0, 0, 0]	n/a	catFR1	1	R1398J
671.882	0.999	675328	WORD_OFF	n/a	n/a	LADLE	KitchenTools	5	6	[0, 0, 0]	n/a	catFR1	1	R1398J
672.881	1.601	676320	WORD	n/a	wordpools/wordpool_categorized_EN.txt	SPOON	KitchenTools	6	6	[0, 0, 0]	n/a	catFR1	1	R1398J
674.482	0.933	677924	WORD_OFF	n/a	n/a	SPOON	KitchenTools	6	6	[0, 0, 0]	n/a	catFR1	1	R1398J
675.415	1.6	678858	WORD	n/a	wordpools/wordpool_categorized_EN.txt	FOREST	Landscapes	7	6	[0, 0, 0]	n/a	catFR1	1	R1398J
677.015	0.984	680453	WORD_OFF	n/a	n/a	FOREST	Landscapes	7	6	[0, 0, 0]	n/a	catFR1	1	R1398J
677.999	1.615	681437	WORD	n/a	wordpools/wordpool_categorized_EN.txt	BEACH	Landscapes	8	6	[0, 0, 0]	n/a	catFR1	1	R1398J
679.614	1.001	683057	WORD_OFF	n/a	n/a	BEACH	Landscapes	8	6	[0, 0, 0]	n/a	catFR1	1	R1398J
680.615	1.617	684058	WORD	n/a	wordpools/wordpool_categorized_EN.txt	TONGS	KitchenTools	9	6	[0, 0, 0]	n/a	catFR1	1	R1398J
682.232	0.85	685670	WORD_OFF	n/a	n/a	TONGS	KitchenTools	9	6	[0, 0, 0]	n/a	catFR1	1	R1398J
683.082	1.6	686521	WORD	n/a	wordpools/wordpool_categorized_EN.txt	STRAINER	KitchenTools	10	6	[0, 0, 0]	n/a	catFR1	1	R1398J
684.682	0.783	688125	WORD_OFF	n/a	n/a	STRAINER	KitchenTools	10	6	[0, 0, 0]	n/a	catFR1	1	R1398J
685.465	1.616	688910	WORD	n/a	wordpools/wordpool_categorized_EN.txt	MONKEY	Zoo	11	6	[0, 0, 0]	n/a	catFR1	1	R1398J
687.081	0.867	690522	WORD_OFF	n/a	n/a	MONKEY	Zoo	11	6	[0, 0, 0]	n/a	catFR1	1	R1398J
687.948	1.601	691390	WORD	n/a	wordpools/wordpool_categorized_EN.txt	CHIMPANZEE	Zoo	12	6	[0, 0, 0]	n/a	catFR1	1	R1398J
689.549	0.0	692986	WORD_OFF	n/a	n/a	CHIMPANZEE	Zoo	12	6	[0, 0, 0]	n/a	catFR1	1	R1398J
689.549	0.001	692989	PROB	0.001	n/a	n/a	n/a	-999	6	[6, 2, 3]	11	catFR1	1	R1398J
689.55	0.0	692990	START	n/a	n/a	n/a	n/a	-999	6	[-999, -999, -999]	n/a	catFR1	1	R1398J
689.55	0.0	692994	ENCODING_END	n/a	n/a	n/a	n/a	-999	6	[0, 0, 0]	n/a	catFR1	1	R1398J
689.55	4.799	692994	DISTRACT_START	n/a	n/a	n/a	n/a	-999	6	[0, 0, 0]	n/a	catFR1	1	R1398J
694.349	3.3	697789	PROB	3.3	n/a	n/a	n/a	-999	6	[8, 4, 3]	15	catFR1	1	R1398J
697.649	3.05	701089	PROB	3.05	n/a	n/a	n/a	-999	6	[6, 7, 3]	16	catFR1	1	R1398J
700.699	3.482	704139	PROB	3.482	n/a	n/a	n/a	-999	6	[6, 5, 1]	12	catFR1	1	R1398J
704.181	2.868	707621	PROB	2.868	n/a	n/a	n/a	-999	6	[3, 6, 3]	12	catFR1	1	R1398J
707.049	3.016	710488	PROB	3.016	n/a	n/a	n/a	-999	6	[6, 1, 1]	8	catFR1	1	R1398J
710.065	0.0	713503	DISTRACT_END	n/a	n/a	n/a	n/a	-999	6	[0, 0, 0]	n/a	catFR1	1	R1398J
710.065	1.05	713504	STOP	n/a	n/a	n/a	n/a	-999	6	[-999, -999, -999]	n/a	catFR1	1	R1398J
711.115	1.572	714553	REC_START	n/a	n/a	n/a	n/a	-999	6	[0, 0, 0]	n/a	catFR1	1	R1398J
712.687	0.789	716126	REC_WORD_VV	0.789	n/a	<>	n/a	-999	6	[0, 0, 0]	n/a	catFR1	1	R1398J
713.476	1.803	716915	REC_WORD	1.803	n/a	ORANGUTAN	Zoo	1	6	[0, 0, 0]	n/a	catFR1	1	R1398J
715.279	0.781	718718	REC_WORD_VV	0.781	n/a	<>	n/a	-999	6	[0, 0, 0]	n/a	catFR1	1	R1398J
716.06	2.065	719499	REC_WORD	2.065	n/a	ZEBRA	Zoo	-999	6	[0, 0, 0]	n/a	catFR1	1	R1398J
718.125	1.932	721564	REC_WORD	1.932	n/a	HILLS	Landscapes	3	6	[0, 0, 0]	n/a	catFR1	1	R1398J
720.057	1.684	723496	REC_WORD	1.684	n/a	ISLAND	Landscapes	4	6	[0, 0, 0]	n/a	catFR1	1	R1398J
721.741	2.17	725180	REC_WORD	2.17	n/a	SAND	n/a	-999	6	[0, 0, 0]	n/a	catFR1	1	R1398J
723.911	2.581	727350	REC_WORD_VV	2.581	n/a	<>	n/a	-999	6	[0, 0, 0]	n/a	catFR1	1	R1398J
726.492	1.808	729931	REC_WORD	1.808	n/a	BEACH	Landscapes	8	6	[0, 0, 0]	n/a	catFR1	1	R1398J
728.3	2.21	731739	REC_WORD_VV	2.21	n/a	<>	n/a	-999	6	[0, 0, 0]	n/a	catFR1	1	R1398J
730.51	0.885	733948	REC_WORD	0.885	n/a	CHIMPANZEE	Zoo	12	6	[0, 0, 0]	n/a	catFR1	1	R1398J
731.395	2.023	734833	REC_WORD	2.023	n/a	MONKEY	Zoo	11	6	[0, 0, 0]	n/a	catFR1	1	R1398J
733.418	7.367	736856	REC_WORD_VV	7.367	n/a	<>	n/a	-999	6	[0, 0, 0]	n/a	catFR1	1	R1398J
740.785	1.562	744223	REC_WORD	1.562	n/a	FOREST	Landscapes	7	6	[0, 0, 0]	n/a	catFR1	1	R1398J
742.347	2.402	745785	REC_END	n/a	n/a	n/a	n/a	-999	6	[0, 0, 0]	n/a	catFR1	1	R1398J
744.749	10.36	748190	COUNTDOWN_START	n/a	n/a	n/a	n/a	-999	6	[0, 0, 0]	n/a	catFR1	1	R1398J
755.109	0.0	758548	COUNTDOWN_END	n/a	n/a	n/a	n/a	-999	6	[0, 0, 0]	n/a	catFR1	1	R1398J
755.109	2.055	758548	ENCODING_START	n/a	n/a	n/a	n/a	-999	7	[0, 0, 0]	n/a	catFR1	1	R1398J
757.164	1.601	760599	WORD	n/a	wordpools/wordpool_categorized_EN.txt	VIOLIN	Instruments	1	7	[0, 0, 0]	n/a	catFR1	1	R1398J
758.765	0.767	762202	WORD_OFF	n/a	n/a	VIOLIN	Instruments	1	7	[0, 0, 0]	n/a	catFR1	1	R1398J
759.532	1.6	762971	WORD	n/a	wordpools/wordpool_categorized_EN.txt	CELLO	Instruments	2	7	[0, 0, 0]	n/a	catFR1	1	R1398J
761.132	0.782	764567	WORD_OFF	n/a	n/a	CELLO	Instruments	2	7	[0, 0, 0]	n/a	catFR1	1	R1398J
761.914	1.601	765352	WORD	n/a	wordpools/wordpool_categorized_EN.txt	COBBLER	Desserts	3	7	[0, 0, 0]	n/a	catFR1	1	R1398J
763.515	0.933	766956	WORD_OFF	n/a	n/a	COBBLER	Desserts	3	7	[0, 0, 0]	n/a	catFR1	1	R1398J
764.448	1.601	767882	WORD	n/a	wordpools/wordpool_categorized_EN.txt	FUDGE	Desserts	4	7	[0, 0, 0]	n/a	catFR1	1	R1398J
766.049	0.949	769485	WORD_OFF	n/a	n/a	FUDGE	Desserts	4	7	[0, 0, 0]	n/a	catFR1	1	R1398J
766.998	1.617	770436	WORD	n/a	wordpools/wordpool_categorized_EN.txt	SODA	Beverages	5	7	[0, 0, 0]	n/a	catFR1	1	R1398J
768.615	0.85	772056	WORD_OFF	n/a	n/a	SODA	Beverages	5	7	[0, 0, 0]	n/a	catFR1	1	R1398J
769.465	1.616	772899	WORD	n/a	wordpools/wordpool_categorized_EN.txt	LEMONADE	Beverages	6	7	[0, 0, 0]	n/a	catFR1	1	R1398J
771.081	0.851	774520	WORD_OFF	n/a	n/a	LEMONADE	Beverages	6	7	[0, 0, 0]	n/a	catFR1	1	R1398J
771.932	1.616	775371	WORD	n/a	wordpools/wordpool_categorized_EN.txt	JELLO	Desserts	7	7	[0, 0, 0]	n/a	catFR1	1	R1398J
773.548	0.767	776983	WORD_OFF	n/a	n/a	JELLO	Desserts	7	7	[0, 0, 0]	n/a	catFR1	1	R1398J
774.315	1.6	777752	WORD	n/a	wordpools/wordpool_categorized_EN.txt	PIE	Desserts	8	7	[0, 0, 0]	n/a	catFR1	1	R1398J
775.915	0.832	779356	WORD_OFF	n/a	n/a	PIE	Desserts	8	7	[0, 0, 0]	n/a	catFR1	1	R1398J
776.747	1.601	780182	WORD	n/a	wordpools/wordpool_categorized_EN.txt	DRUM	Instruments	9	7	[0, 0, 0]	n/a	catFR1	1	R1398J
778.348	0.983	781786	WORD_OFF	n/a	n/a	DRUM	Instruments	9	7	[0, 0, 0]	n/a	catFR1	1	R1398J
779.331	1.6	782770	WORD	n/a	wordpools/wordpool_categorized_EN.txt	ORGAN	Instruments	10	7	[0, 0, 0]	n/a	catFR1	1	R1398J
780.931	0.767	784365	WORD_OFF	n/a	n/a	ORGAN	Instruments	10	7	[0, 0, 0]	n/a	catFR1	1	R1398J
781.698	1.6	785134	WORD	n/a	wordpools/wordpool_categorized_EN.txt	RUM	Beverages	11	7	[0, 0, 0]	n/a	catFR1	1	R1398J
783.298	0.784	786738	WORD_OFF	n/a	n/a	RUM	Beverages	11	7	[0, 0, 0]	n/a	catFR1	1	R1398J
784.082	1.6	787523	WORD	n/a	wordpools/wordpool_categorized_EN.txt	COLA	Beverages	12	7	[0, 0, 0]	n/a	catFR1	1	R1398J
785.682	0.0	789118	PROB	0.0	n/a	n/a	n/a	-999	7	[6, 2, 4]	12	catFR1	1	R1398J
785.682	0.001	789119	WORD_OFF	n/a	n/a	COLA	Beverages	12	7	[0, 0, 0]	n/a	catFR1	1	R1398J
785.683	0.0	789119	ENCODING_END	n/a	n/a	n/a	n/a	-999	7	[0, 0, 0]	n/a	catFR1	1	R1398J
785.683	0.0	789119	DISTRACT_START	n/a	n/a	n/a	n/a	-999	7	[0, 0, 0]	n/a	catFR1	1	R1398J
785.683	3.916	789119	START	n/a	n/a	n/a	n/a	-999	7	[-999, -999, -999]	n/a	catFR1	1	R1398J
789.599	3.067	793035	PROB	3.067	n/a	n/a	n/a	-999	7	[3, 6, 2]	11	catFR1	1	R1398J
792.666	3.683	796102	PROB	3.683	n/a	n/a	n/a	-999	7	[8, 6, 6]	20	catFR1	1	R1398J
796.349	3.149	799785	PROB	3.149	n/a	n/a	n/a	-999	7	[8, 2, 2]	12	catFR1	1	R1398J
799.498	4.35	802934	PROB	4.35	n/a	n/a	n/a	-999	7	[3, 1, 6]	10	catFR1	1	R1398J
803.848	3.067	807283	PROB	3.067	n/a	n/a	n/a	-999	7	[6, 5, 2]	13	catFR1	1	R1398J
806.915	0.0	810347	DISTRACT_END	n/a	n/a	n/a	n/a	-999	7	[0, 0, 0]	n/a	catFR1	1	R1398J
806.915	1.2	810350	STOP	n/a	n/a	n/a	n/a	-999	7	[-999, -999, -999]	n/a	catFR1	1	R1398J
808.115	0.515	811554	REC_START	n/a	n/a	n/a	n/a	-999	7	[0, 0, 0]	n/a	catFR1	1	R1398J
808.63	0.371	812065	REC_WORD_VV	0.371	n/a	<>	n/a	-999	7	[0, 0, 0]	n/a	catFR1	1	R1398J
809.001	1.486	812436	REC_WORD	1.486	n/a	VIOLIN	Instruments	1	7	[0, 0, 0]	n/a	catFR1	1	R1398J
810.487	1.785	813922	REC_WORD_VV	1.785	n/a	<>	n/a	-999	7	[0, 0, 0]	n/a	catFR1	1	R1398J
812.272	1.0	815707	REC_WORD	1.0	n/a	TROMBONE	Instruments	-999	7	[0, 0, 0]	n/a	catFR1	1	R1398J
813.272	0.438	816707	REC_WORD_VV	0.438	n/a	<>	n/a	-999	7	[0, 0, 0]	n/a	catFR1	1	R1398J
813.71	1.388	817145	REC_WORD_VV	1.388	n/a	<>	n/a	-999	7	[0, 0, 0]	n/a	catFR1	1	R1398J
815.098	1.235	818533	REC_WORD	1.235	n/a	GUITAR	n/a	-999	7	[0, 0, 0]	n/a	catFR1	1	R1398J
816.333	1.871	819768	REC_WORD	1.871	n/a	DRUM	Instruments	9	7	[0, 0, 0]	n/a	catFR1	1	R1398J
818.204	5.011	821639	REC_WORD_VV	5.011	n/a	<>	n/a	-999	7	[0, 0, 0]	n/a	catFR1	1	R1398J
823.215	1.546	826650	REC_WORD_VV	1.546	n/a	<>	n/a	-999	7	[0, 0, 0]	n/a	catFR1	1	R1398J
824.761	1.284	828196	REC_WORD	1.284	n/a	CORKSCREW	KitchenTools	-999	7	[0, 0, 0]	n/a	catFR1	1	R1398J
826.045	4.28	829480	REC_WORD_VV	4.28	n/a	<>	n/a	-999	7	[0, 0, 0]	n/a	catFR1	1	R1398J
830.325	0.647	833759	REC_WORD_VV	0.647	n/a	<>	n/a	-999	7	[0, 0, 0]	n/a	catFR1	1	R1398J
830.972	1.706	834406	REC_WORD	1.706	n/a	DISHWASHER	Appliances	-999	7	[0, 0, 0]	n/a	catFR1	1	R1398J
832.678	1.952	836112	REC_WORD	1.952	n/a	REFRIGERATOR	Appliances	-999	7	[0, 0, 0]	n/a	catFR1	1	R1398J
834.63	4.694	838064	REC_WORD_VV	4.694	n/a	<>	n/a	-999	7	[0, 0, 0]	n/a	catFR1	1	R1398J
839.324	3.225	842761	REC_END	n/a	n/a	n/a	n/a	-999	7	[0, 0, 0]	n/a	catFR1	1	R1398J
842.549	10.363	845985	COUNTDOWN_START	n/a	n/a	n/a	n/a	-999	7	[0, 0, 0]	n/a	catFR1	1	R1398J
852.912	0.001	856351	COUNTDOWN_END	n/a	n/a	n/a	n/a	-999	7	[0, 0, 0]	n/a	catFR1	1	R1398J
852.913	2.336	856351	ENCODING_START	n/a	n/a	n/a	n/a	-999	8	[0, 0, 0]	n/a	catFR1	1	R1398J
855.249	1.616	858683	WORD	n/a	wordpools/wordpool_categorized_EN.txt	RADIO	Electronics	1	8	[0, 0, 0]	n/a	catFR1	1	R1398J
856.865	0.817	860303	WORD_OFF	n/a	n/a	RADIO	Electronics	1	8	[0, 0, 0]	n/a	catFR1	1	R1398J
857.682	1.6	861113	WORD	n/a	wordpools/wordpool_categorized_EN.txt	CALCULATOR	Electronics	2	8	[0, 0, 0]	n/a	catFR1	1	R1398J
859.282	0.8	862717	WORD_OFF	n/a	n/a	CALCULATOR	Electronics	2	8	[0, 0, 0]	n/a	catFR1	1	R1398J
860.082	1.616	863519	WORD	n/a	wordpools/wordpool_categorized_EN.txt	CARNATION	Flowers	3	8	[0, 0, 0]	n/a	catFR1	1	R1398J
861.698	0.816	865131	WORD_OFF	n/a	n/a	CARNATION	Flowers	3	8	[0, 0, 0]	n/a	catFR1	1	R1398J
862.514	1.617	865949	WORD	n/a	wordpools/wordpool_categorized_EN.txt	LILAC	Flowers	4	8	[0, 0, 0]	n/a	catFR1	1	R1398J
864.131	0.968	867561	WORD_OFF	n/a	n/a	LILAC	Flowers	4	8	[0, 0, 0]	n/a	catFR1	1	R1398J
865.099	1.6	868536	WORD	n/a	wordpools/wordpool_categorized_EN.txt	CAR	Vehicles	5	8	[0, 0, 0]	n/a	catFR1	1	R1398J
866.699	0.848	870132	WORD_OFF	n/a	n/a	CAR	Vehicles	5	8	[0, 0, 0]	n/a	catFR1	1	R1398J
867.547	1.602	870983	WORD	n/a	wordpools/wordpool_categorized_EN.txt	TRAIN	Vehicles	6	8	[0, 0, 0]	n/a	catFR1	1	R1398J
869.149	0.933	872579	WORD_OFF	n/a	n/a	TRAIN	Vehicles	6	8	[0, 0, 0]	n/a	catFR1	1	R1398J
870.082	1.616	873513	WORD	n/a	wordpools/wordpool_categorized_EN.txt	ORCHID	Flowers	7	8	[0, 0, 0]	n/a	catFR1	1	R1398J
871.698	0.767	875133	WORD_OFF	n/a	n/a	ORCHID	Flowers	7	8	[0, 0, 0]	n/a	catFR1	1	R1398J
872.465	1.6	875902	WORD	n/a	wordpools/wordpool_categorized_EN.txt	SUNFLOWER	Flowers	8	8	[0, 0, 0]	n/a	catFR1	1	R1398J
874.065	0.983	877497	WORD_OFF	n/a	n/a	SUNFLOWER	Flowers	8	8	[0, 0, 0]	n/a	catFR1	1	R1398J
875.048	1.6	878481	WORD	n/a	wordpools/wordpool_categorized_EN.txt	TELEVISION	Electronics	9	8	[0, 0, 0]	n/a	catFR1	1	R1398J
876.648	0.867	880085	WORD_OFF	n/a	n/a	TELEVISION	Electronics	9	8	[0, 0, 0]	n/a	catFR1	1	R1398J
877.515	1.617	880953	WORD	n/a	wordpools/wordpool_categorized_EN.txt	TABLET	Electronics	10	8	[0, 0, 0]	n/a	catFR1	1	R1398J
879.132	0.8	882565	WORD_OFF	n/a	n/a	TABLET	Electronics	10	8	[0, 0, 0]	n/a	catFR1	1	R1398J
879.932	1.6	883367	WORD	n/a	wordpools/wordpool_categorized_EN.txt	SCOOTER	Vehicles	11	8	[0, 0, 0]	n/a	catFR1	1	R1398J
881.532	0.966	884962	WORD_OFF	n/a	n/a	SCOOTER	Vehicles	11	8	[0, 0, 0]	n/a	catFR1	1	R1398J
882.498	1.601	885929	WORD	n/a	wordpools/wordpool_categorized_EN.txt	JEEP	Vehicles	12	8	[0, 0, 0]	n/a	catFR1	1	R1398J
884.099	0.001	887531	PROB	0.001	n/a	n/a	n/a	-999	8	[3, 2, 4]	9	catFR1	1	R1398J
884.1	0.0	887532	START	n/a	n/a	n/a	n/a	-999	8	[-999, -999, -999]	n/a	catFR1	1	R1398J
884.099	0.001	887533	WORD_OFF	n/a	n/a	JEEP	Vehicles	12	8	[0, 0, 0]	n/a	catFR1	1	R1398J
884.1	0.0	887533	ENCODING_END	n/a	n/a	n/a	n/a	-999	8	[0, 0, 0]	n/a	catFR1	1	R1398J
884.1	3.616	887533	DISTRACT_START	n/a	n/a	n/a	n/a	-999	8	[0, 0, 0]	n/a	catFR1	1	R1398J
887.716	2.849	891148	PROB	2.849	n/a	n/a	n/a	-999	8	[1, 2, 8]	11	catFR1	1	R1398J
890.565	3.451	893997	PROB	3.451	n/a	n/a	n/a	-999	8	[2, 6, 6]	14	catFR1	1	R1398J
894.016	2.982	897448	PROB	2.982	n/a	n/a	n/a	-999	8	[1, 8, 6]	15	catFR1	1	R1398J
896.998	2.885	900430	PROB	2.885	n/a	n/a	n/a	-999	8	[1, 1, 2]	4	catFR1	1	R1398J
899.883	4.865	903314	PROB	4.865	n/a	n/a	n/a	-999	8	[5, 3, 8]	16	catFR1	1	R1398J
904.748	0.0	908179	STOP	n/a	n/a	n/a	n/a	-999	8	[-999, -999, -999]	n/a	catFR1	1	R1398J
904.748	1.383	908183	DISTRACT_END	n/a	n/a	n/a	n/a	-999	8	[0, 0, 0]	n/a	catFR1	1	R1398J
906.131	0.323	909564	REC_START	n/a	n/a	n/a	n/a	-999	8	[0, 0, 0]	n/a	catFR1	1	R1398J
906.454	3.326	909885	REC_WORD_VV	3.326	n/a	<>	n/a	-999	8	[0, 0, 0]	n/a	catFR1	1	R1398J
909.78	4.413	913211	REC_WORD_VV	4.413	n/a	<>	n/a	-999	8	[0, 0, 0]	n/a	catFR1	1	R1398J
914.193	1.473	917624	REC_WORD_VV	1.473	n/a	<>	n/a	-999	8	[0, 0, 0]	n/a	catFR1	1	R1398J
915.666	4.492	919097	REC_WORD_VV	4.492	n/a	<>	n/a	-999	8	[0, 0, 0]	n/a	catFR1	1	R1398J
920.158	2.36	923589	REC_WORD_VV	2.36	n/a	<>	n/a	-999	8	[0, 0, 0]	n/a	catFR1	1	R1398J
922.518	1.601	925949	REC_WORD	1.601	n/a	MICROPHONE	n/a	-999	8	[0, 0, 0]	n/a	catFR1	1	R1398J
924.119	4.72	927549	REC_WORD_VV	4.72	n/a	<>	n/a	-999	8	[0, 0, 0]	n/a	catFR1	1	R1398J
928.839	0.787	932269	REC_WORD_VV	0.787	n/a	<>	n/a	-999	8	[0, 0, 0]	n/a	catFR1	1	R1398J
929.626	1.286	933056	REC_WORD	1.286	n/a	ORCHID	Flowers	7	8	[0, 0, 0]	n/a	catFR1	1	R1398J
930.912	3.497	934342	REC_WORD_VV	3.497	n/a	<>	n/a	-999	8	[0, 0, 0]	n/a	catFR1	1	R1398J
934.409	1.456	937839	REC_WORD	1.456	n/a	FLOWER	n/a	-999	8	[0, 0, 0]	n/a	catFR1	1	R1398J
935.865	1.488	939295	REC_WORD_VV	1.488	n/a	<>	n/a	-999	8	[0, 0, 0]	n/a	catFR1	1	R1398J
937.353	2.178	940787	REC_END	n/a	n/a	n/a	n/a	-999	8	[0, 0, 0]	n/a	catFR1	1	R1398J
939.531	10.365	942961	COUNTDOWN_START	n/a	n/a	n/a	n/a	-999	8	[0, 0, 0]	n/a	catFR1	1	R1398J
949.896	0.0	953328	COUNTDOWN_END	n/a	n/a	n/a	n/a	-999	8	[0, 0, 0]	n/a	catFR1	1	R1398J
949.896	1.986	953328	ENCODING_START	n/a	n/a	n/a	n/a	-999	9	[0, 0, 0]	n/a	catFR1	1	R1398J
951.882	1.616	955312	WORD	n/a	wordpools/wordpool_categorized_EN.txt	MIXER	Appliances	1	9	[0, 0, 0]	n/a	catFR1	1	R1398J
953.498	1.0	956932	WORD_OFF	n/a	n/a	MIXER	Appliances	1	9	[0, 0, 0]	n/a	catFR1	1	R1398J
954.498	1.6	957924	WORD	n/a	wordpools/wordpool_categorized_EN.txt	TOASTER	Appliances	2	9	[0, 0, 0]	n/a	catFR1	1	R1398J
956.098	0.8	959528	WORD_OFF	n/a	n/a	TOASTER	Appliances	2	9	[0, 0, 0]	n/a	catFR1	1	R1398J
956.898	1.6	960329	WORD	n/a	wordpools/wordpool_categorized_EN.txt	WINE	Beverages	3	9	[0, 0, 0]	n/a	catFR1	1	R1398J
958.498	0.851	961925	WORD_OFF	n/a	n/a	WINE	Beverages	3	9	[0, 0, 0]	n/a	catFR1	1	R1398J
959.349	1.6	962776	WORD	n/a	wordpools/wordpool_categorized_EN.txt	JUICE	Beverages	4	9	[0, 0, 0]	n/a	catFR1	1	R1398J
960.949	0.999	964380	WORD_OFF	n/a	n/a	JUICE	Beverages	4	9	[0, 0, 0]	n/a	catFR1	1	R1398J
961.948	1.617	965380	WORD	n/a	wordpools/wordpool_categorized_EN.txt	LAKE	Landscapes	5	9	[0, 0, 0]	n/a	catFR1	1	R1398J
963.565	0.95	966992	WORD_OFF	n/a	n/a	LAKE	Landscapes	5	9	[0, 0, 0]	n/a	catFR1	1	R1398J
964.515	1.6	967943	WORD	n/a	wordpools/wordpool_categorized_EN.txt	WOODS	Landscapes	6	9	[0, 0, 0]	n/a	catFR1	1	R1398J
966.115	0.984	969547	WORD_OFF	n/a	n/a	WOODS	Landscapes	6	9	[0, 0, 0]	n/a	catFR1	1	R1398J
967.099	1.599	970530	WORD	n/a	wordpools/wordpool_categorized_EN.txt	COFFEE	Beverages	7	9	[0, 0, 0]	n/a	catFR1	1	R1398J
968.698	0.8	972126	WORD_OFF	n/a	n/a	COFFEE	Beverages	7	9	[0, 0, 0]	n/a	catFR1	1	R1398J
969.498	1.601	972928	WORD	n/a	wordpools/wordpool_categorized_EN.txt	TEA	Beverages	8	9	[0, 0, 0]	n/a	catFR1	1	R1398J
971.099	0.932	974532	WORD_OFF	n/a	n/a	TEA	Beverages	8	9	[0, 0, 0]	n/a	catFR1	1	R1398J
972.031	1.601	975457	WORD	n/a	wordpools/wordpool_categorized_EN.txt	VALLEY	Landscapes	9	9	[0, 0, 0]	n/a	catFR1	1	R1398J
973.632	0.799	977061	WORD_OFF	n/a	n/a	VALLEY	Landscapes	9	9	[0, 0, 0]	n/a	catFR1	1	R1398J
974.431	1.6	977863	WORD	n/a	wordpools/wordpool_categorized_EN.txt	STREAM	Landscapes	10	9	[0, 0, 0]	n/a	catFR1	1	R1398J
976.031	0.834	979458	WORD_OFF	n/a	n/a	STREAM	Landscapes	10	9	[0, 0, 0]	n/a	catFR1	1	R1398J
976.865	1.6	980293	WORD	n/a	wordpools/wordpool_categorized_EN.txt	BLENDER	Appliances	11	9	[0, 0, 0]	n/a	catFR1	1	R1398J
978.465	0.9	981897	WORD_OFF	n/a	n/a	BLENDER	Appliances	11	9	[0, 0, 0]	n/a	catFR1	1	R1398J
979.365	1.617	982798	WORD	n/a	wordpools/wordpool_categorized_EN.txt	FREEZER	Appliances	12	9	[0, 0, 0]	n/a	catFR1	1	R1398J
980.982	0.002	984410	WORD_OFF	n/a	n/a	FREEZER	Appliances	12	9	[0, 0, 0]	n/a	catFR1	1	R1398J
980.984	0.0	984410	ENCODING_END	n/a	n/a	n/a	n/a	-999	9	[0, 0, 0]	n/a	catFR1	1	R1398J
980.983	0.001	984411	PROB	0.001	n/a	n/a	n/a	-999	9	[2, 3, 5]	10	catFR1	1	R1398J
980.984	0.0	984412	START	n/a	n/a	n/a	n/a	-999	9	[-999, -999, -999]	n/a	catFR1	1	R1398J
980.984	3.298	984418	DISTRACT_START	n/a	n/a	n/a	n/a	-999	9	[0, 0, 0]	n/a	catFR1	1	R1398J
984.282	4.984	987710	PROB	4.984	n/a	n/a	n/a	-999	9	[8, 7, 8]	23	catFR1	1	R1398J
989.266	3.2	992694	PROB	3.2	n/a	n/a	n/a	-999	9	[6, 2, 8]	16	catFR1	1	R1398J
992.466	3.684	995894	PROB	3.684	n/a	n/a	n/a	-999	9	[3, 7, 7]	17	catFR1	1	R1398J
996.15	2.866	999577	PROB	2.866	n/a	n/a	n/a	-999	9	[2, 8, 4]	14	catFR1	1	R1398J
999.016	3.499	1002443	PROB	3.499	n/a	n/a	n/a	-999	9	[7, 5, 7]	19	catFR1	1	R1398J
1002.515	0.0	1005942	STOP	n/a	n/a	n/a	n/a	-999	9	[-999, -999, -999]	n/a	catFR1	1	R1398J
1002.515	1.033	1005945	DISTRACT_END	n/a	n/a	n/a	n/a	-999	9	[0, 0, 0]	n/a	catFR1	1	R1398J
1003.548	0.592	1006978	REC_START	n/a	n/a	n/a	n/a	-999	9	[0, 0, 0]	n/a	catFR1	1	R1398J
1004.14	0.545	1007567	REC_WORD_VV	0.545	n/a	<>	n/a	-999	9	[0, 0, 0]	n/a	catFR1	1	R1398J
1004.685	1.677	1008112	REC_WORD	1.677	n/a	MIXER	Appliances	1	9	[0, 0, 0]	n/a	catFR1	1	R1398J
1006.362	2.005	1009789	REC_WORD	2.005	n/a	BLENDER	Appliances	11	9	[0, 0, 0]	n/a	catFR1	1	R1398J
1008.367	1.781	1011794	REC_WORD_VV	1.781	n/a	<>	n/a	-999	9	[0, 0, 0]	n/a	catFR1	1	R1398J
1010.148	2.141	1013575	REC_WORD	2.141	n/a	FREEZER	Appliances	12	9	[0, 0, 0]	n/a	catFR1	1	R1398J
1012.289	0.514	1015716	REC_WORD_VV	0.514	n/a	<>	n/a	-999	9	[0, 0, 0]	n/a	catFR1	1	R1398J
1012.803	2.349	1016230	REC_WORD	2.349	n/a	RUM	Beverages	-999	9	[0, 0, 0]	n/a	catFR1	1	R1398J
1015.152	0.85	1018579	REC_WORD	0.85	n/a	TEA	Beverages	8	9	[0, 0, 0]	n/a	catFR1	1	R1398J
1016.002	2.276	1019429	REC_WORD	2.276	n/a	COFFEE	Beverages	7	9	[0, 0, 0]	n/a	catFR1	1	R1398J
1018.278	10.57	1021705	REC_WORD_VV	10.57	n/a	<>	n/a	-999	9	[0, 0, 0]	n/a	catFR1	1	R1398J
1028.848	0.269	1032274	REC_WORD	0.269	n/a	BEACH	Landscapes	-999	9	[0, 0, 0]	n/a	catFR1	1	R1398J
1029.117	0.95	1032543	REC_WORD_VV	0.95	n/a	<>	n/a	-999	9	[0, 0, 0]	n/a	catFR1	1	R1398J
1030.067	2.047	1033493	REC_WORD_VV	2.047	n/a	<>	n/a	-999	9	[0, 0, 0]	n/a	catFR1	1	R1398J
1032.114	1.044	1035540	REC_WORD	1.044	n/a	BEACH	Landscapes	-999	9	[0, 0, 0]	n/a	catFR1	1	R1398J
1033.158	1.618	1036584	REC_WORD_VV	1.618	n/a	<>	n/a	-999	9	[0, 0, 0]	n/a	catFR1	1	R1398J
1034.776	2.139	1038201	REC_END	n/a	n/a	n/a	n/a	-999	9	[0, 0, 0]	n/a	catFR1	1	R1398J
1036.915	10.364	1040342	COUNTDOWN_START	n/a	n/a	n/a	n/a	-999	9	[0, 0, 0]	n/a	catFR1	1	R1398J
1047.279	0.0	1050709	COUNTDOWN_END	n/a	n/a	n/a	n/a	-999	9	[0, 0, 0]	n/a	catFR1	1	R1398J
1047.279	2.119	1050709	ENCODING_START	n/a	n/a	n/a	n/a	-999	10	[0, 0, 0]	n/a	catFR1	1	R1398J
1049.398	1.616	1052825	WORD	n/a	wordpools/wordpool_categorized_EN.txt	GNAT	Insects	1	10	[0, 0, 0]	n/a	catFR1	1	R1398J
1051.014	0.934	1054437	WORD_OFF	n/a	n/a	GNAT	Insects	1	10	[0, 0, 0]	n/a	catFR1	1	R1398J
1051.948	1.601	1055371	WORD	n/a	wordpools/wordpool_categorized_EN.txt	ROACH	Insects	2	10	[0, 0, 0]	n/a	catFR1	1	R1398J
1053.549	0.883	1056975	WORD_OFF	n/a	n/a	ROACH	Insects	2	10	[0, 0, 0]	n/a	catFR1	1	R1398J
1054.432	1.617	1057859	WORD	n/a	wordpools/wordpool_categorized_EN.txt	OCEAN	Landscapes	3	10	[0, 0, 0]	n/a	catFR1	1	R1398J
1056.049	0.95	1059471	WORD_OFF	n/a	n/a	OCEAN	Landscapes	3	10	[0, 0, 0]	n/a	catFR1	1	R1398J
1056.999	1.616	1060422	WORD	n/a	wordpools/wordpool_categorized_EN.txt	CREEK	Landscapes	4	10	[0, 0, 0]	n/a	catFR1	1	R1398J
1058.615	0.967	1062042	WORD_OFF	n/a	n/a	CREEK	Landscapes	4	10	[0, 0, 0]	n/a	catFR1	1	R1398J
1059.582	1.6	1063010	WORD	n/a	wordpools/wordpool_categorized_EN.txt	DENIM	Fabric	5	10	[0, 0, 0]	n/a	catFR1	1	R1398J
1061.182	0.883	1064605	WORD_OFF	n/a	n/a	DENIM	Fabric	5	10	[0, 0, 0]	n/a	catFR1	1	R1398J
1062.065	1.617	1065490	WORD	n/a	wordpools/wordpool_categorized_EN.txt	SATIN	Fabric	6	10	[0, 0, 0]	n/a	catFR1	1	R1398J
1063.682	0.85	1067110	WORD_OFF	n/a	n/a	SATIN	Fabric	6	10	[0, 0, 0]	n/a	catFR1	1	R1398J
1064.532	1.616	1067961	WORD	n/a	wordpools/wordpool_categorized_EN.txt	SPIDER	Insects	7	10	[0, 0, 0]	n/a	catFR1	1	R1398J
1066.148	0.85	1069573	WORD_OFF	n/a	n/a	SPIDER	Insects	7	10	[0, 0, 0]	n/a	catFR1	1	R1398J
1066.998	1.617	1070425	WORD	n/a	wordpools/wordpool_categorized_EN.txt	CRICKET	Insects	8	10	[0, 0, 0]	n/a	catFR1	1	R1398J
1068.615	1.0	1072037	WORD_OFF	n/a	n/a	CRICKET	Insects	8	10	[0, 0, 0]	n/a	catFR1	1	R1398J
1069.615	1.6	1073037	WORD	n/a	wordpools/wordpool_categorized_EN.txt	NYLON	Fabric	9	10	[0, 0, 0]	n/a	catFR1	1	R1398J
1071.215	0.866	1074641	WORD_OFF	n/a	n/a	NYLON	Fabric	9	10	[0, 0, 0]	n/a	catFR1	1	R1398J
1072.081	1.601	1075509	WORD	n/a	wordpools/wordpool_categorized_EN.txt	WOOL	Fabric	10	10	[0, 0, 0]	n/a	catFR1	1	R1398J
1073.682	0.782	1077104	WORD_OFF	n/a	n/a	WOOL	Fabric	10	10	[0, 0, 0]	n/a	catFR1	1	R1398J
1074.464	1.601	1077890	WORD	n/a	wordpools/wordpool_categorized_EN.txt	RIVER	Landscapes	11	10	[0, 0, 0]	n/a	catFR1	1	R1398J
1076.065	0.983	1079493	WORD_OFF	n/a	n/a	RIVER	Landscapes	11	10	[0, 0, 0]	n/a	catFR1	1	R1398J
1077.048	1.616	1080477	WORD	n/a	wordpools/wordpool_categorized_EN.txt	MOUNTAIN	Landscapes	12	10	[0, 0, 0]	n/a	catFR1	1	R1398J
1078.664	0.001	1082089	WORD_OFF	n/a	n/a	MOUNTAIN	Landscapes	12	10	[0, 0, 0]	n/a	catFR1	1	R1398J
1078.665	0.0	1082089	ENCODING_END	n/a	n/a	n/a	n/a	-999	10	[0, 0, 0]	n/a	catFR1	1	R1398J
1078.665	0.0	1082089	DISTRACT_START	n/a	n/a	n/a	n/a	-999	10	[0, 0, 0]	n/a	catFR1	1	R1398J
1078.665	0.0	1082089	PROB	0.0	n/a	n/a	n/a	-999	10	[1, 6, 6]	13	catFR1	1	R1398J
1078.665	3.5	1082089	START	n/a	n/a	n/a	n/a	-999	10	[-999, -999, -999]	n/a	catFR1	1	R1398J
1082.165	3.35	1085589	PROB	3.35	n/a	n/a	n/a	-999	10	[8, 8, 1]	17	catFR1	1	R1398J
1085.515	2.901	1088939	PROB	2.901	n/a	n/a	n/a	-999	10	[3, 7, 6]	16	catFR1	1	R1398J
1088.416	3.033	1091840	PROB	3.033	n/a	n/a	n/a	-999	10	[5, 2, 1]	8	catFR1	1	R1398J
1091.449	3.15	1094873	PROB	3.15	n/a	n/a	n/a	-999	10	[1, 8, 1]	10	catFR1	1	R1398J
1094.599	2.8	1098022	PROB	2.8	n/a	n/a	n/a	-999	10	[1, 1, 1]	3	catFR1	1	R1398J
1097.399	2.699	1100822	PROB	2.699	n/a	n/a	n/a	-999	10	[3, 5, 2]	10	catFR1	1	R1398J
1100.098	0.0	1103521	STOP	n/a	n/a	n/a	n/a	-999	10	[-999, -999, -999]	n/a	catFR1	1	R1398J
1100.098	1.134	1103525	DISTRACT_END	n/a	n/a	n/a	n/a	-999	10	[0, 0, 0]	n/a	catFR1	1	R1398J
1101.232	0.781	1104657	REC_START	n/a	n/a	n/a	n/a	-999	10	[0, 0, 0]	n/a	catFR1	1	R1398J
1102.013	4.981	1105436	REC_WORD_VV	4.981	n/a	<>	n/a	-999	10	[0, 0, 0]	n/a	catFR1	1	R1398J
1106.994	0.895	1110417	REC_WORD	0.895	n/a	RIVER	Landscapes	11	10	[0, 0, 0]	n/a	catFR1	1	R1398J
1107.889	1.269	1111312	REC_WORD	1.269	n/a	MOUNTAIN	Landscapes	12	10	[0, 0, 0]	n/a	catFR1	1	R1398J
1109.158	2.065	1112581	REC_WORD	2.065	n/a	STREAM	Landscapes	-999	10	[0, 0, 0]	n/a	catFR1	1	R1398J
1111.223	6.414	1114646	REC_WORD_VV	6.414	n/a	<>	n/a	-999	10	[0, 0, 0]	n/a	catFR1	1	R1398J
1117.637	2.736	1121059	REC_WORD	2.736	n/a	LAKE	Landscapes	-999	10	[0, 0, 0]	n/a	catFR1	1	R1398J
1120.373	2.35	1123795	REC_WORD_VV	2.35	n/a	<>	n/a	-999	10	[0, 0, 0]	n/a	catFR1	1	R1398J
1122.723	0.977	1126145	REC_WORD	0.977	n/a	WOODS	Landscapes	-999	10	[0, 0, 0]	n/a	catFR1	1	R1398J
1123.7	0.085	1127122	REC_WORD_VV	0.085	n/a	<>	n/a	-999	10	[0, 0, 0]	n/a	catFR1	1	R1398J
1123.785	1.837	1127207	REC_WORD	1.837	n/a	FOREST	Landscapes	-999	10	[0, 0, 0]	n/a	catFR1	1	R1398J
1125.622	1.358	1129044	REC_WORD_VV	1.358	n/a	<>	n/a	-999	10	[0, 0, 0]	n/a	catFR1	1	R1398J
1126.98	0.97	1130402	REC_WORD	0.97	n/a	SPIDER	Insects	7	10	[0, 0, 0]	n/a	catFR1	1	R1398J
1127.95	0.869	1131372	REC_WORD	0.869	n/a	GNAT	Insects	1	10	[0, 0, 0]	n/a	catFR1	1	R1398J
1128.819	1.543	1132241	REC_WORD	1.543	n/a	BEETLE	Insects	-999	10	[0, 0, 0]	n/a	catFR1	1	R1398J
1130.362	2.101	1133784	REC_WORD_VV	2.101	n/a	<>	n/a	-999	10	[0, 0, 0]	n/a	catFR1	1	R1398J
1132.463	2.318	1135889	REC_END	n/a	n/a	n/a	n/a	-999	10	[0, 0, 0]	n/a	catFR1	1	R1398J
1134.781	10.366	1138203	COUNTDOWN_START	n/a	n/a	n/a	n/a	-999	10	[0, 0, 0]	n/a	catFR1	1	R1398J
1145.147	0.0	1148570	COUNTDOWN_END	n/a	n/a	n/a	n/a	-999	10	[0, 0, 0]	n/a	catFR1	1	R1398J
1145.147	1.935	1148570	ENCODING_START	n/a	n/a	n/a	n/a	-999	11	[0, 0, 0]	n/a	catFR1	1	R1398J
1147.082	1.6	1150504	WORD	n/a	wordpools/wordpool_categorized_EN.txt	ARM	BodyParts	1	11	[0, 0, 0]	n/a	catFR1	1	R1398J
1148.682	0.9	1152108	WORD_OFF	n/a	n/a	ARM	BodyParts	1	11	[0, 0, 0]	n/a	catFR1	1	R1398J
1149.582	1.6	1153000	WORD	n/a	wordpools/wordpool_categorized_EN.txt	FINGERS	BodyParts	2	11	[0, 0, 0]	n/a	catFR1	1	R1398J
1151.182	0.882	1154604	WORD_OFF	n/a	n/a	FINGERS	BodyParts	2	11	[0, 0, 0]	n/a	catFR1	1	R1398J
1152.064	1.601	1155489	WORD	n/a	wordpools/wordpool_categorized_EN.txt	DAFFODIL	Flowers	3	11	[0, 0, 0]	n/a	catFR1	1	R1398J
1153.665	0.917	1157084	WORD_OFF	n/a	n/a	DAFFODIL	Flowers	3	11	[0, 0, 0]	n/a	catFR1	1	R1398J
1154.582	1.6	1158002	WORD	n/a	wordpools/wordpool_categorized_EN.txt	PETUNIA	Flowers	4	11	[0, 0, 0]	n/a	catFR1	1	R1398J
1156.182	0.766	1159606	WORD_OFF	n/a	n/a	PETUNIA	Flowers	4	11	[0, 0, 0]	n/a	catFR1	1	R1398J
1156.948	1.601	1160366	WORD	n/a	wordpools/wordpool_categorized_EN.txt	FOLDER	OfficeSupplies	5	11	[0, 0, 0]	n/a	catFR1	1	R1398J
1158.549	0.767	1161970	WORD_OFF	n/a	n/a	FOLDER	OfficeSupplies	5	11	[0, 0, 0]	n/a	catFR1	1	R1398J
1159.316	1.616	1162739	WORD	n/a	wordpools/wordpool_categorized_EN.txt	RULER	OfficeSupplies	6	11	[0, 0, 0]	n/a	catFR1	1	R1398J
1160.932	0.817	1164351	WORD_OFF	n/a	n/a	RULER	OfficeSupplies	6	11	[0, 0, 0]	n/a	catFR1	1	R1398J
1161.749	1.6	1165169	WORD	n/a	wordpools/wordpool_categorized_EN.txt	HAND	BodyParts	7	11	[0, 0, 0]	n/a	catFR1	1	R1398J
1163.349	0.833	1166773	WORD_OFF	n/a	n/a	HAND	BodyParts	7	11	[0, 0, 0]	n/a	catFR1	1	R1398J
1164.182	1.6	1167599	WORD	n/a	wordpools/wordpool_categorized_EN.txt	ELBOW	BodyParts	8	11	[0, 0, 0]	n/a	catFR1	1	R1398J
1165.782	1.0	1169203	WORD_OFF	n/a	n/a	ELBOW	BodyParts	8	11	[0, 0, 0]	n/a	catFR1	1	R1398J
1166.782	1.6	1170203	WORD	n/a	wordpools/wordpool_categorized_EN.txt	ROSE	Flowers	9	11	[0, 0, 0]	n/a	catFR1	1	R1398J
1168.382	0.85	1171807	WORD_OFF	n/a	n/a	ROSE	Flowers	9	11	[0, 0, 0]	n/a	catFR1	1	R1398J
1169.232	1.617	1172650	WORD	n/a	wordpools/wordpool_categorized_EN.txt	VIOLET	Flowers	10	11	[0, 0, 0]	n/a	catFR1	1	R1398J
1170.849	0.95	1174271	WORD_OFF	n/a	n/a	VIOLET	Flowers	10	11	[0, 0, 0]	n/a	catFR1	1	R1398J
1171.799	1.6	1175221	WORD	n/a	wordpools/wordpool_categorized_EN.txt	PENCIL	OfficeSupplies	11	11	[0, 0, 0]	n/a	catFR1	1	R1398J
1173.399	0.867	1176817	WORD_OFF	n/a	n/a	PENCIL	OfficeSupplies	11	11	[0, 0, 0]	n/a	catFR1	1	R1398J
1174.266	1.6	1177685	WORD	n/a	wordpools/wordpool_categorized_EN.txt	STAPLER	OfficeSupplies	12	11	[0, 0, 0]	n/a	catFR1	1	R1398J
1175.866	0.001	1179286	PROB	0.001	n/a	n/a	n/a	-999	11	[1, 1, 4]	6	catFR1	1	R1398J
1175.867	0.0	1179287	START	n/a	n/a	n/a	n/a	-999	11	[-999, -999, -999]	n/a	catFR1	1	R1398J
1175.866	0.001	1179288	WORD_OFF	n/a	n/a	STAPLER	OfficeSupplies	12	11	[0, 0, 0]	n/a	catFR1	1	R1398J
1175.867	0.0	1179288	ENCODING_END	n/a	n/a	n/a	n/a	-999	11	[0, 0, 0]	n/a	catFR1	1	R1398J
1175.867	3.082	1179288	DISTRACT_START	n/a	n/a	n/a	n/a	-999	11	[0, 0, 0]	n/a	catFR1	1	R1398J
1178.949	3.151	1182369	PROB	3.151	n/a	n/a	n/a	-999	11	[8, 4, 3]	15	catFR1	1	R1398J
1182.1	2.633	1185520	PROB	2.633	n/a	n/a	n/a	-999	11	[5, 7, 3]	15	catFR1	1	R1398J
1184.733	3.399	1188153	PROB	3.399	n/a	n/a	n/a	-999	11	[5, 7, 3]	15	catFR1	1	R1398J
1188.132	2.766	1191552	PROB	2.766	n/a	n/a	n/a	-999	11	[1, 2, 4]	7	catFR1	1	R1398J
1190.898	2.984	1194317	PROB	2.984	n/a	n/a	n/a	-999	11	[3, 1, 2]	6	catFR1	1	R1398J
1193.882	3.867	1197301	PROB	3.867	n/a	n/a	n/a	-999	11	[8, 8, 6]	22	catFR1	1	R1398J
1197.749	0.0	1201168	STOP	n/a	n/a	n/a	n/a	-999	11	[-999, -999, -999]	n/a	catFR1	1	R1398J
1197.749	1.266	1201170	DISTRACT_END	n/a	n/a	n/a	n/a	-999	11	[0, 0, 0]	n/a	catFR1	1	R1398J
1199.015	0.842	1202435	REC_START	n/a	n/a	n/a	n/a	-999	11	[0, 0, 0]	n/a	catFR1	1	R1398J
1199.857	0.998	1203276	REC_WORD_VV	0.998	n/a	<>	n/a	-999	11	[0, 0, 0]	n/a	catFR1	1	R1398J
1200.855	0.625	1204274	REC_WORD	0.625	n/a	ARM	BodyParts	1	11	[0, 0, 0]	n/a	catFR1	1	R1398J
1201.48	0.736	1204899	REC_WORD	0.736	n/a	ELBOW	BodyParts	8	11	[0, 0, 0]	n/a	catFR1	1	R1398J
1202.216	0.811	1205635	REC_WORD	0.811	n/a	FINGERS	BodyParts	2	11	[0, 0, 0]	n/a	catFR1	1	R1398J
1203.027	1.357	1206446	REC_WORD	1.357	n/a	HAND	BodyParts	7	11	[0, 0, 0]	n/a	catFR1	1	R1398J
1204.384	1.624	1207803	REC_WORD_VV	1.624	n/a	<>	n/a	-999	11	[0, 0, 0]	n/a	catFR1	1	R1398J
1206.008	1.04	1209427	REC_WORD	1.04	n/a	PETUNIA	Flowers	4	11	[0, 0, 0]	n/a	catFR1	1	R1398J
1207.048	0.755	1210467	REC_WORD	0.755	n/a	DAFFODIL	Flowers	3	11	[0, 0, 0]	n/a	catFR1	1	R1398J
1207.803	13.407	1211222	REC_WORD	13.407	n/a	VIOLET	Flowers	10	11	[0, 0, 0]	n/a	catFR1	1	R1398J
1221.21	6.277	1224628	REC_WORD	6.277	n/a	FREEZER	Appliances	-999	11	[0, 0, 0]	n/a	catFR1	1	R1398J
1227.487	2.746	1230905	REC_WORD_VV	2.746	n/a	<>	n/a	-999	11	[0, 0, 0]	n/a	catFR1	1	R1398J
1230.233	1.766	1233650	REC_END	n/a	n/a	n/a	n/a	-999	11	[0, 0, 0]	n/a	catFR1	1	R1398J
1231.999	10.36	1235419	COUNTDOWN_START	n/a	n/a	n/a	n/a	-999	11	[0, 0, 0]	n/a	catFR1	1	R1398J
1242.359	0.0	1245777	COUNTDOWN_END	n/a	n/a	n/a	n/a	-999	11	[0, 0, 0]	n/a	catFR1	1	R1398J
1242.359	2.34	1245777	ENCODING_START	n/a	n/a	n/a	n/a	-999	12	[0, 0, 0]	n/a	catFR1	1	R1398J
1244.699	1.616	1248117	WORD	n/a	wordpools/wordpool_categorized_EN.txt	LEG	BodyParts	1	12	[0, 0, 0]	n/a	catFR1	1	R1398J
1246.315	0.799	1249737	WORD_OFF	n/a	n/a	LEG	BodyParts	1	12	[0, 0, 0]	n/a	catFR1	1	R1398J
1247.114	1.6	1250531	WORD	n/a	wordpools/wordpool_categorized_EN.txt	EAR	BodyParts	2	12	[0, 0, 0]	n/a	catFR1	1	R1398J
1248.714	0.95	1252134	WORD_OFF	n/a	n/a	EAR	BodyParts	2	12	[0, 0, 0]	n/a	catFR1	1	R1398J
1249.664	1.601	1253085	WORD	n/a	wordpools/wordpool_categorized_EN.txt	NOTEBOOK	OfficeSupplies	3	12	[0, 0, 0]	n/a	catFR1	1	R1398J
1251.265	0.767	1254689	WORD_OFF	n/a	n/a	NOTEBOOK	OfficeSupplies	3	12	[0, 0, 0]	n/a	catFR1	1	R1398J
1252.032	1.6	1255449	WORD	n/a	wordpools/wordpool_categorized_EN.txt	GLUE	OfficeSupplies	4	12	[0, 0, 0]	n/a	catFR1	1	R1398J
1253.632	0.933	1257053	WORD_OFF	n/a	n/a	GLUE	OfficeSupplies	4	12	[0, 0, 0]	n/a	catFR1	1	R1398J
1254.565	1.6	1257979	WORD	n/a	wordpools/wordpool_categorized_EN.txt	PLUM	Fruit	5	12	[0, 0, 0]	n/a	catFR1	1	R1398J
1256.165	0.784	1259583	WORD_OFF	n/a	n/a	PLUM	Fruit	5	12	[0, 0, 0]	n/a	catFR1	1	R1398J
1256.949	1.616	1260368	WORD	n/a	wordpools/wordpool_categorized_EN.txt	GRAPE	Fruit	6	12	[0, 0, 0]	n/a	catFR1	1	R1398J
1258.565	1.0	1261980	WORD_OFF	n/a	n/a	GRAPE	Fruit	6	12	[0, 0, 0]	n/a	catFR1	1	R1398J
1259.565	1.6	1262988	WORD	n/a	wordpools/wordpool_categorized_EN.txt	PEN	OfficeSupplies	7	12	[0, 0, 0]	n/a	catFR1	1	R1398J
1261.165	0.967	1264584	WORD_OFF	n/a	n/a	PEN	OfficeSupplies	7	12	[0, 0, 0]	n/a	catFR1	1	R1398J
1262.132	1.6	1265551	WORD	n/a	wordpools/wordpool_categorized_EN.txt	PAPER	OfficeSupplies	8	12	[0, 0, 0]	n/a	catFR1	1	R1398J
1263.732	0.799	1267155	WORD_OFF	n/a	n/a	PAPER	OfficeSupplies	8	12	[0, 0, 0]	n/a	catFR1	1	R1398J
1264.531	1.601	1267948	WORD	n/a	wordpools/wordpool_categorized_EN.txt	APPLE	Fruit	9	12	[0, 0, 0]	n/a	catFR1	1	R1398J
1266.132	0.832	1269552	WORD_OFF	n/a	n/a	APPLE	Fruit	9	12	[0, 0, 0]	n/a	catFR1	1	R1398J
1266.964	1.601	1270379	WORD	n/a	wordpools/wordpool_categorized_EN.txt	PEAR	Fruit	10	12	[0, 0, 0]	n/a	catFR1	1	R1398J
1268.565	0.866	1271983	WORD_OFF	n/a	n/a	PEAR	Fruit	10	12	[0, 0, 0]	n/a	catFR1	1	R1398J
1269.431	1.601	1272851	WORD	n/a	wordpools/wordpool_categorized_EN.txt	KNEE	BodyParts	11	12	[0, 0, 0]	n/a	catFR1	1	R1398J
1271.032	0.85	1274446	WORD_OFF	n/a	n/a	KNEE	BodyParts	11	12	[0, 0, 0]	n/a	catFR1	1	R1398J
1271.882	1.617	1275297	WORD	n/a	wordpools/wordpool_categorized_EN.txt	HEAD	BodyParts	12	12	[0, 0, 0]	n/a	catFR1	1	R1398J
1273.499	0.001	1276915	PROB	0.001	n/a	n/a	n/a	-999	12	[1, 7, 8]	16	catFR1	1	R1398J
1273.5	0.0	1276916	START	n/a	n/a	n/a	n/a	-999	12	[-999, -999, -999]	n/a	catFR1	1	R1398J
1273.499	0.001	1276918	WORD_OFF	n/a	n/a	HEAD	BodyParts	12	12	[0, 0, 0]	n/a	catFR1	1	R1398J
1273.5	0.0	1276918	ENCODING_END	n/a	n/a	n/a	n/a	-999	12	[0, 0, 0]	n/a	catFR1	1	R1398J
1273.5	3.349	1276918	DISTRACT_START	n/a	n/a	n/a	n/a	-999	12	[0, 0, 0]	n/a	catFR1	1	R1398J
1276.849	2.532	1280265	PROB	2.532	n/a	n/a	n/a	-999	12	[1, 6, 8]	15	catFR1	1	R1398J
1279.381	3.852	1282797	PROB	3.852	n/a	n/a	n/a	-999	12	[7, 6, 6]	19	catFR1	1	R1398J
1283.233	2.783	1286649	PROB	2.783	n/a	n/a	n/a	-999	12	[1, 7, 1]	9	catFR1	1	R1398J
1286.016	2.783	1289431	PROB	2.783	n/a	n/a	n/a	-999	12	[6, 5, 2]	13	catFR1	1	R1398J
1288.799	2.633	1292214	PROB	2.633	n/a	n/a	n/a	-999	12	[3, 2, 2]	7	catFR1	1	R1398J
1291.432	2.75	1294847	PROB	2.75	n/a	n/a	n/a	-999	12	[2, 7, 6]	15	catFR1	1	R1398J
1294.182	0.0	1297597	STOP	n/a	n/a	n/a	n/a	-999	12	[-999, -999, -999]	n/a	catFR1	1	R1398J
1294.182	1.05	1297601	DISTRACT_END	n/a	n/a	n/a	n/a	-999	12	[0, 0, 0]	n/a	catFR1	1	R1398J
1295.232	0.189	1298651	REC_START	n/a	n/a	n/a	n/a	-999	12	[0, 0, 0]	n/a	catFR1	1	R1398J
1295.421	3.39	1298836	REC_WORD_VV	3.39	n/a	<>	n/a	-999	12	[0, 0, 0]	n/a	catFR1	1	R1398J
1298.811	0.556	1302226	REC_WORD	0.556	n/a	HEAD	BodyParts	12	12	[0, 0, 0]	n/a	catFR1	1	R1398J
1299.367	1.245	1302782	REC_WORD	1.245	n/a	LEG	BodyParts	1	12	[0, 0, 0]	n/a	catFR1	1	R1398J
1300.612	2.002	1304027	REC_WORD	2.002	n/a	EAR	BodyParts	2	12	[0, 0, 0]	n/a	catFR1	1	R1398J
1302.614	6.638	1306029	REC_WORD_VV	6.638	n/a	<>	n/a	-999	12	[0, 0, 0]	n/a	catFR1	1	R1398J
1309.252	0.754	1312667	REC_WORD_VV	0.754	n/a	<>	n/a	-999	12	[0, 0, 0]	n/a	catFR1	1	R1398J
1310.006	3.957	1313420	REC_WORD_VV	3.957	n/a	<>	n/a	-999	12	[0, 0, 0]	n/a	catFR1	1	R1398J
1313.963	2.408	1317377	REC_WORD	2.408	n/a	PENCIL	OfficeSupplies	-999	12	[0, 0, 0]	n/a	catFR1	1	R1398J
1316.371	2.886	1319785	REC_WORD	2.886	n/a	NOTEBOOK	OfficeSupplies	3	12	[0, 0, 0]	n/a	catFR1	1	R1398J
1319.257	1.235	1322671	REC_WORD	1.235	n/a	SHARPENER	n/a	-999	12	[0, 0, 0]	n/a	catFR1	1	R1398J
1320.492	5.963	1323906	REC_WORD_VV	5.963	n/a	<>	n/a	-999	12	[0, 0, 0]	n/a	catFR1	1	R1398J
1326.455	0.0	1329866	REC_END	n/a	n/a	n/a	n/a	-999	12	[0, 0, 0]	n/a	catFR1	1	R1398J
