onset	duration	sample	trial_type	response_time	stim_file	item_name	category	serialpos	list	test	answer	experiment	session	subject
0.0	20.93	1522	SESS_START	n/a	n/a	n/a	n/a	-999	-999	[0, 0, 0]	n/a	catFR1	1	R1157C
20.93	10.0	11986	COUNTDOWN_START	n/a	n/a	n/a	n/a	-999	-999	[0, 0, 0]	n/a	catFR1	1	R1157C
31.358	3.775	17199	COUNTDOWN_END	n/a	n/a	n/a	n/a	-999	-999	[0, 0, 0]	n/a	catFR1	1	R1157C
35.133	1.6	19086	PRACTICE_WORD	n/a	n/a	COTTON	n/a	-999	-999	[0, 0, 0]	n/a	catFR1	1	R1157C
37.7	1.6	20370	PRACTICE_WORD	n/a	n/a	CHEST	n/a	-999	-999	[0, 0, 0]	n/a	catFR1	1	R1157C
40.117	1.6	21578	PRACTICE_WORD	n/a	n/a	TONGUE	n/a	-999	-999	[0, 0, 0]	n/a	catFR1	1	R1157C
42.5	1.6	22770	PRACTICE_WORD	n/a	n/a	BEAM	n/a	-999	-999	[0, 0, 0]	n/a	catFR1	1	R1157C
45.035	1.6	24037	PRACTICE_WORD	n/a	n/a	IRON	n/a	-999	-999	[0, 0, 0]	n/a	catFR1	1	R1157C
47.619	1.6	25329	PRACTICE_WORD	n/a	n/a	CAMEL	n/a	-999	-999	[0, 0, 0]	n/a	catFR1	1	R1157C
50.236	1.6	26637	PRACTICE_WORD	n/a	n/a	ATTIC	n/a	-999	-999	[0, 0, 0]	n/a	catFR1	1	R1157C
52.753	1.6	27896	PRACTICE_WORD	n/a	n/a	RING	n/a	-999	-999	[0, 0, 0]	n/a	catFR1	1	R1157C
55.154	1.6	29096	PRACTICE_WORD	n/a	n/a	WATCH	n/a	-999	-999	[0, 0, 0]	n/a	catFR1	1	R1157C
57.57	1.6	30304	PRACTICE_WORD	n/a	n/a	RHINO	n/a	-999	-999	[0, 0, 0]	n/a	catFR1	1	R1157C
60.171	1.6	31604	PRACTICE_WORD	n/a	n/a	WAGON	n/a	-999	-999	[0, 0, 0]	n/a	catFR1	1	R1157C
62.722	1.6	32880	PRACTICE_WORD	n/a	n/a	FLOOD	n/a	-999	-999	[0, 0, 0]	n/a	catFR1	1	R1157C
64.338	0.001	33688	PRACTICE_DISTRACT_START	n/a	n/a	n/a	n/a	-999	-999	[0, 0, 0]	n/a	catFR1	1	R1157C
64.339	0.016	33688	START	n/a	n/a	n/a	n/a	-999	-1	[-999, -999, -999]	n/a	catFR1	1	R1157C
64.355	5.017	33696	PROB	4.997	n/a	n/a	n/a	-999	-1	[4, 2, 3]	9.0	catFR1	1	R1157C
69.372	4.535	36204	PROB	4.5	n/a	n/a	n/a	-999	-1	[7, 6, 6]	19.0	catFR1	1	R1157C
73.907	3.084	38472	PROB	3.061	n/a	n/a	n/a	-999	-1	[4, 1, 1]	6.0	catFR1	1	R1157C
76.991	3.483	40014	PROB	3.448	n/a	n/a	n/a	-999	-1	[8, 9, 4]	21.0	catFR1	1	R1157C
80.474	3.435	41755	PROB	3.414	n/a	n/a	n/a	-999	-1	[4, 4, 7]	15.0	catFR1	1	R1157C
83.909	3.602	43472	PROB	3.602	n/a	n/a	n/a	-999	-1	[6, 4, 8]	18.0	catFR1	1	R1157C
87.511	0.014	45273	STOP	n/a	n/a	n/a	n/a	-999	-1	[-999, -999, -999]	n/a	catFR1	1	R1157C
87.525	0.62	45280	PRACTICE_DISTRACT_END	n/a	n/a	n/a	n/a	-999	-999	[0, 0, 0]	n/a	catFR1	1	R1157C
88.145	30.515	45590	PRACTICE_REC_START	n/a	n/a	n/a	n/a	-999	-999	[0, 0, 0]	n/a	catFR1	1	R1157C
118.66	12.89	60846	PRACTICE_REC_END	n/a	n/a	n/a	n/a	-999	-999	[0, 0, 0]	n/a	catFR1	1	R1157C
131.55	10.0	67291	COUNTDOWN_START	n/a	n/a	n/a	n/a	-999	1	[0, 0, 0]	n/a	catFR1	1	R1157C
131.55	10.428	67291	TRIAL	n/a	n/a	n/a	n/a	-999	1	[0, 0, 0]	n/a	catFR1	1	R1157C
141.978	0.009	72504	COUNTDOWN_END	n/a	n/a	n/a	n/a	-999	1	[0, 0, 0]	n/a	catFR1	1	R1157C
141.987	1.6	72509	ORIENT	n/a	n/a	n/a	n/a	-999	1	[0, 0, 0]	n/a	catFR1	1	R1157C
145.637	1.6	74334	WORD	n/a	wordpools/wordpool_categorized_EN.txt	BALL	Toys	1	1	[0, 0, 0]	n/a	catFR1	1	R1157C
148.021	1.6	75525	WORD	n/a	wordpools/wordpool_categorized_EN.txt	BASEBALL	Toys	2	1	[0, 0, 0]	n/a	catFR1	1	R1157C
150.588	1.6	76809	WORD	n/a	wordpools/wordpool_categorized_EN.txt	SPRUCE	Trees	3	1	[0, 0, 0]	n/a	catFR1	1	R1157C
152.972	1.6	78001	WORD	n/a	wordpools/wordpool_categorized_EN.txt	CYPRESS	Trees	4	1	[0, 0, 0]	n/a	catFR1	1	R1157C
155.471	1.6	79250	WORD	n/a	wordpools/wordpool_categorized_EN.txt	FOOT	BodyParts	5	1	[0, 0, 0]	n/a	catFR1	1	R1157C
158.073	1.6	80551	WORD	n/a	wordpools/wordpool_categorized_EN.txt	LEG	BodyParts	6	1	[0, 0, 0]	n/a	catFR1	1	R1157C
160.623	1.6	81826	WORD	n/a	wordpools/wordpool_categorized_EN.txt	BLOCKS	Toys	7	1	[0, 0, 0]	n/a	catFR1	1	R1157C
163.007	1.6	83018	WORD	n/a	wordpools/wordpool_categorized_EN.txt	BARBIE	Toys	8	1	[0, 0, 0]	n/a	catFR1	1	R1157C
165.49	1.6	84259	WORD	n/a	wordpools/wordpool_categorized_EN.txt	EYE	BodyParts	9	1	[0, 0, 0]	n/a	catFR1	1	R1157C
167.908	1.6	85468	WORD	n/a	wordpools/wordpool_categorized_EN.txt	ELBOW	BodyParts	10	1	[0, 0, 0]	n/a	catFR1	1	R1157C
170.491	1.6	86759	WORD	n/a	wordpools/wordpool_categorized_EN.txt	PINE	Trees	11	1	[0, 0, 0]	n/a	catFR1	1	R1157C
173.076	1.6	88052	WORD	n/a	wordpools/wordpool_categorized_EN.txt	EVERGREEN	Trees	12	1	[0, 0, 0]	n/a	catFR1	1	R1157C
174.693	0.001	88860	DISTRACT_START	n/a	n/a	n/a	n/a	-999	1	[0, 0, 0]	n/a	catFR1	1	R1157C
174.694	0.015	88861	START	n/a	n/a	n/a	n/a	-999	1	[-999, -999, -999]	n/a	catFR1	1	R1157C
174.709	3.568	88868	PROB	3.539	n/a	n/a	n/a	-999	1	[4, 7, 5]	16.0	catFR1	1	R1157C
178.277	4.183	90652	PROB	4.154	n/a	n/a	n/a	-999	1	[8, 4, 6]	18.0	catFR1	1	R1157C
182.46	4.152	92743	PROB	4.116	n/a	n/a	n/a	-999	1	[6, 9, 3]	18.0	catFR1	1	R1157C
186.612	4.567	94819	PROB	4.532	n/a	n/a	n/a	-999	1	[7, 5, 8]	20.0	catFR1	1	R1157C
191.179	3.925	97103	PROB	3.925	n/a	n/a	n/a	-999	1	[8, 8, 2]	18.0	catFR1	1	R1157C
195.104	0.01	99065	STOP	n/a	n/a	n/a	n/a	-999	1	[-999, -999, -999]	n/a	catFR1	1	R1157C
195.114	1.037	99070	DISTRACT_END	n/a	n/a	n/a	n/a	-999	1	[0, 0, 0]	n/a	catFR1	1	R1157C
196.151	1.183	99588	REC_START	n/a	n/a	n/a	n/a	-999	1	[0, 0, 0]	n/a	catFR1	1	R1157C
197.334	0.69	100180	REC_WORD	1.183	n/a	BALL	Toys	1	1	[0, 0, 0]	n/a	catFR1	1	R1157C
198.024	1.937	100525	REC_WORD	1.873	n/a	BASEBALL	Toys	2	1	[0, 0, 0]	n/a	catFR1	1	R1157C
199.961	0.531	101493	REC_WORD	3.81	n/a	FOOT	BodyParts	5	1	[0, 0, 0]	n/a	catFR1	1	R1157C
200.492	25.667	101759	REC_WORD	4.341	n/a	ELBOW	BodyParts	10	1	[0, 0, 0]	n/a	catFR1	1	R1157C
226.159	1.894	114591	REC_END	n/a	n/a	n/a	n/a	-999	1	[0, 0, 0]	n/a	catFR1	1	R1157C
228.053	0.0	115538	TRIAL	n/a	n/a	n/a	n/a	-999	2	[0, 0, 0]	n/a	catFR1	1	R1157C
228.053	10.0	115538	COUNTDOWN_START	n/a	n/a	n/a	n/a	-999	2	[0, 0, 0]	n/a	catFR1	1	R1157C
238.481	0.006	120751	COUNTDOWN_END	n/a	n/a	n/a	n/a	-999	2	[0, 0, 0]	n/a	catFR1	1	R1157C
238.487	1.6	120754	ORIENT	n/a	n/a	n/a	n/a	-999	2	[0, 0, 0]	n/a	catFR1	1	R1157C
242.222	1.6	122622	WORD	n/a	wordpools/wordpool_categorized_EN.txt	ROOF	Building	1	2	[0, 0, 0]	n/a	catFR1	1	R1157C
244.756	1.6	123889	WORD	n/a	wordpools/wordpool_categorized_EN.txt	WINDOW	Building	2	2	[0, 0, 0]	n/a	catFR1	1	R1157C
247.356	1.6	125189	WORD	n/a	wordpools/wordpool_categorized_EN.txt	PIGEON	Birds	3	2	[0, 0, 0]	n/a	catFR1	1	R1157C
249.857	1.6	126439	WORD	n/a	wordpools/wordpool_categorized_EN.txt	DOVE	Birds	4	2	[0, 0, 0]	n/a	catFR1	1	R1157C
252.291	1.6	127656	WORD	n/a	wordpools/wordpool_categorized_EN.txt	SPATULA	KitchenTools	5	2	[0, 0, 0]	n/a	catFR1	1	R1157C
254.791	1.6	128906	WORD	n/a	wordpools/wordpool_categorized_EN.txt	WHISK	KitchenTools	6	2	[0, 0, 0]	n/a	catFR1	1	R1157C
257.191	1.6	130106	WORD	n/a	wordpools/wordpool_categorized_EN.txt	CEILING	Building	7	2	[0, 0, 0]	n/a	catFR1	1	R1157C
259.725	1.6	131373	WORD	n/a	wordpools/wordpool_categorized_EN.txt	ATTIC	Building	8	2	[0, 0, 0]	n/a	catFR1	1	R1157C
262.159	1.6	132589	WORD	n/a	wordpools/wordpool_categorized_EN.txt	LADLE	KitchenTools	9	2	[0, 0, 0]	n/a	catFR1	1	R1157C
264.542	1.6	133781	WORD	n/a	wordpools/wordpool_categorized_EN.txt	FORK	KitchenTools	10	2	[0, 0, 0]	n/a	catFR1	1	R1157C
267.077	1.6	135048	WORD	n/a	wordpools/wordpool_categorized_EN.txt	DUCK	Birds	11	2	[0, 0, 0]	n/a	catFR1	1	R1157C
269.627	1.6	136323	WORD	n/a	wordpools/wordpool_categorized_EN.txt	FINCH	Birds	12	2	[0, 0, 0]	n/a	catFR1	1	R1157C
271.244	0.001	137132	DISTRACT_START	n/a	n/a	n/a	n/a	-999	2	[0, 0, 0]	n/a	catFR1	1	R1157C
271.245	0.016	137132	START	n/a	n/a	n/a	n/a	-999	2	[-999, -999, -999]	n/a	catFR1	1	R1157C
271.261	3.249	137140	PROB	3.218	n/a	n/a	n/a	-999	2	[8, 2, 5]	15.0	catFR1	1	R1157C
274.51	2.934	138764	PROB	2.913	n/a	n/a	n/a	-999	2	[4, 1, 8]	13.0	catFR1	1	R1157C
277.444	2.485	140231	PROB	2.451	n/a	n/a	n/a	-999	2	[8, 2, 9]	19.0	catFR1	1	R1157C
279.929	8.818	141474	PROB	8.783	n/a	n/a	n/a	-999	2	[9, 5, 6]	20.0	catFR1	1	R1157C
288.747	2.501	145882	PROB	2.469	n/a	n/a	n/a	-999	2	[1, 5, 5]	11.0	catFR1	1	R1157C
291.248	2.568	147133	PROB	2.568	n/a	n/a	n/a	-999	2	[3, 7, 3]	13.0	catFR1	1	R1157C
293.816	0.016	148417	STOP	n/a	n/a	n/a	n/a	-999	2	[-999, -999, -999]	n/a	catFR1	1	R1157C
293.832	1.067	148425	DISTRACT_END	n/a	n/a	n/a	n/a	-999	2	[0, 0, 0]	n/a	catFR1	1	R1157C
294.899	0.912	148958	REC_START	n/a	n/a	n/a	n/a	-999	2	[0, 0, 0]	n/a	catFR1	1	R1157C
295.811	0.229	149414	REC_WORD	0.912	n/a	FORK	KitchenTools	10	2	[0, 0, 0]	n/a	catFR1	1	R1157C
296.04	1.832	149528	REC_WORD	1.141	n/a	SPATULA	KitchenTools	5	2	[0, 0, 0]	n/a	catFR1	1	R1157C
297.872	2.456	150444	REC_WORD	2.973	n/a	WHISK	KitchenTools	6	2	[0, 0, 0]	n/a	catFR1	1	R1157C
300.328	0.734	151672	REC_WORD	5.429	n/a	CEILING	Building	7	2	[0, 0, 0]	n/a	catFR1	1	R1157C
301.062	15.051	152039	REC_WORD	6.163	n/a	ROOF	Building	1	2	[0, 0, 0]	n/a	catFR1	1	R1157C
316.113	8.797	159564	REC_WORD	21.214	n/a	LADLE	KitchenTools	9	2	[0, 0, 0]	n/a	catFR1	1	R1157C
324.91	7.545	163962	REC_END	n/a	n/a	n/a	n/a	-999	2	[0, 0, 0]	n/a	catFR1	1	R1157C
332.455	10.0	167734	COUNTDOWN_START	n/a	n/a	n/a	n/a	-999	3	[0, 0, 0]	n/a	catFR1	1	R1157C
332.455	10.428	167734	TRIAL	n/a	n/a	n/a	n/a	-999	3	[0, 0, 0]	n/a	catFR1	1	R1157C
342.883	0.008	172948	COUNTDOWN_END	n/a	n/a	n/a	n/a	-999	3	[0, 0, 0]	n/a	catFR1	1	R1157C
342.891	1.6	172952	ORIENT	n/a	n/a	n/a	n/a	-999	3	[0, 0, 0]	n/a	catFR1	1	R1157C
346.658	1.6	174835	WORD	n/a	wordpools/wordpool_categorized_EN.txt	GRATER	KitchenTools	1	3	[0, 0, 0]	n/a	catFR1	1	R1157C
349.142	1.6	176077	WORD	n/a	wordpools/wordpool_categorized_EN.txt	CORKSCREW	KitchenTools	2	3	[0, 0, 0]	n/a	catFR1	1	R1157C
351.592	1.6	177302	WORD	n/a	wordpools/wordpool_categorized_EN.txt	BOOKCASE	Furniture	3	3	[0, 0, 0]	n/a	catFR1	1	R1157C
354.176	1.6	178594	WORD	n/a	wordpools/wordpool_categorized_EN.txt	SHELF	Furniture	4	3	[0, 0, 0]	n/a	catFR1	1	R1157C
356.693	1.6	179852	WORD	n/a	wordpools/wordpool_categorized_EN.txt	JEANS	Clothing	5	3	[0, 0, 0]	n/a	catFR1	1	R1157C
359.294	1.6	181153	WORD	n/a	wordpools/wordpool_categorized_EN.txt	JACKET	Clothing	6	3	[0, 0, 0]	n/a	catFR1	1	R1157C
361.761	1.6	182386	WORD	n/a	wordpools/wordpool_categorized_EN.txt	STRAINER	KitchenTools	7	3	[0, 0, 0]	n/a	catFR1	1	R1157C
364.178	1.6	183594	WORD	n/a	wordpools/wordpool_categorized_EN.txt	PEELER	KitchenTools	8	3	[0, 0, 0]	n/a	catFR1	1	R1157C
366.612	1.6	184811	WORD	n/a	wordpools/wordpool_categorized_EN.txt	SHIRT	Clothing	9	3	[0, 0, 0]	n/a	catFR1	1	R1157C
369.096	1.6	186053	WORD	n/a	wordpools/wordpool_categorized_EN.txt	UNDERWEAR	Clothing	10	3	[0, 0, 0]	n/a	catFR1	1	R1157C
371.529	1.6	187270	WORD	n/a	wordpools/wordpool_categorized_EN.txt	CABINET	Furniture	11	3	[0, 0, 0]	n/a	catFR1	1	R1157C
374.13	1.6	188570	WORD	n/a	wordpools/wordpool_categorized_EN.txt	COUCH	Furniture	12	3	[0, 0, 0]	n/a	catFR1	1	R1157C
375.747	0.001	189378	DISTRACT_START	n/a	n/a	n/a	n/a	-999	3	[0, 0, 0]	n/a	catFR1	1	R1157C
375.748	0.016	189379	START	n/a	n/a	n/a	n/a	-999	3	[-999, -999, -999]	n/a	catFR1	1	R1157C
375.764	4.1	189387	PROB	4.076	n/a	n/a	n/a	-999	3	[6, 5, 7]	18.0	catFR1	1	R1157C
379.864	6.185	191437	PROB	6.152	n/a	n/a	n/a	-999	3	[8, 6, 8]	22.0	catFR1	1	R1157C
386.049	3.333	194529	PROB	3.311	n/a	n/a	n/a	-999	3	[6, 9, 3]	18.0	catFR1	1	R1157C
389.382	4.685	196195	PROB	4.649	n/a	n/a	n/a	-999	3	[5, 9, 8]	22.0	catFR1	1	R1157C
394.067	3.149	198538	PROB	3.149	n/a	n/a	n/a	-999	3	[8, 1, 6]	15.0	catFR1	1	R1157C
397.216	0.018	200112	STOP	n/a	n/a	n/a	n/a	-999	3	[-999, -999, -999]	n/a	catFR1	1	R1157C
397.234	1.2	200121	DISTRACT_END	n/a	n/a	n/a	n/a	-999	3	[0, 0, 0]	n/a	catFR1	1	R1157C
398.434	0.807	200721	REC_START	n/a	n/a	n/a	n/a	-999	3	[0, 0, 0]	n/a	catFR1	1	R1157C
399.241	8.123	201124	REC_WORD	0.807	n/a	UNDERWEAR	Clothing	10	3	[0, 0, 0]	n/a	catFR1	1	R1157C
407.364	11.371	205186	REC_WORD	8.93	n/a	CABINET	Furniture	11	3	[0, 0, 0]	n/a	catFR1	1	R1157C
418.735	9.711	210871	REC_WORD	20.301	n/a	CORKSCREW	KitchenTools	2	3	[0, 0, 0]	n/a	catFR1	1	R1157C
428.446	1.794	215726	REC_END	n/a	n/a	n/a	n/a	-999	3	[0, 0, 0]	n/a	catFR1	1	R1157C
430.24	10.0	216622	COUNTDOWN_START	n/a	n/a	n/a	n/a	-999	4	[0, 0, 0]	n/a	catFR1	1	R1157C
430.241	10.427	216623	TRIAL	n/a	n/a	n/a	n/a	-999	4	[0, 0, 0]	n/a	catFR1	1	R1157C
440.668	0.008	221836	COUNTDOWN_END	n/a	n/a	n/a	n/a	-999	4	[0, 0, 0]	n/a	catFR1	1	R1157C
440.676	1.6	221840	ORIENT	n/a	n/a	n/a	n/a	-999	4	[0, 0, 0]	n/a	catFR1	1	R1157C
444.21	1.6	223607	WORD	n/a	wordpools/wordpool_categorized_EN.txt	CAKE	Desserts	1	4	[0, 0, 0]	n/a	catFR1	1	R1157C
446.677	1.6	224840	WORD	n/a	wordpools/wordpool_categorized_EN.txt	MOUSSE	Desserts	2	4	[0, 0, 0]	n/a	catFR1	1	R1157C
449.227	1.6	226115	WORD	n/a	wordpools/wordpool_categorized_EN.txt	JELLYFISH	OceanAnimals	3	4	[0, 0, 0]	n/a	catFR1	1	R1157C
451.744	1.6	227374	WORD	n/a	wordpools/wordpool_categorized_EN.txt	TURTLE	OceanAnimals	4	4	[0, 0, 0]	n/a	catFR1	1	R1157C
454.262	1.6	228632	WORD	n/a	wordpools/wordpool_categorized_EN.txt	JEEP	Vehicles	5	4	[0, 0, 0]	n/a	catFR1	1	R1157C
456.762	1.6	229882	WORD	n/a	wordpools/wordpool_categorized_EN.txt	MOPED	Vehicles	6	4	[0, 0, 0]	n/a	catFR1	1	R1157C
459.329	1.6	231166	WORD	n/a	wordpools/wordpool_categorized_EN.txt	PLANKTON	OceanAnimals	7	4	[0, 0, 0]	n/a	catFR1	1	R1157C
461.913	1.6	232458	WORD	n/a	wordpools/wordpool_categorized_EN.txt	OYSTER	OceanAnimals	8	4	[0, 0, 0]	n/a	catFR1	1	R1157C
464.396	1.6	233699	WORD	n/a	wordpools/wordpool_categorized_EN.txt	COBBLER	Desserts	9	4	[0, 0, 0]	n/a	catFR1	1	R1157C
466.897	1.6	234949	WORD	n/a	wordpools/wordpool_categorized_EN.txt	PUDDING	Desserts	10	4	[0, 0, 0]	n/a	catFR1	1	R1157C
469.281	1.6	236141	WORD	n/a	wordpools/wordpool_categorized_EN.txt	MOTORCYCLE	Vehicles	11	4	[0, 0, 0]	n/a	catFR1	1	R1157C
471.782	1.6	237392	WORD	n/a	wordpools/wordpool_categorized_EN.txt	PLANE	Vehicles	12	4	[0, 0, 0]	n/a	catFR1	1	R1157C
473.398	0.001	238200	DISTRACT_START	n/a	n/a	n/a	n/a	-999	4	[0, 0, 0]	n/a	catFR1	1	R1157C
473.399	0.015	238200	START	n/a	n/a	n/a	n/a	-999	4	[-999, -999, -999]	n/a	catFR1	1	R1157C
473.414	3.017	238208	PROB	2.993	n/a	n/a	n/a	-999	4	[9, 3, 8]	20.0	catFR1	1	R1157C
476.431	2.785	239716	PROB	2.753	n/a	n/a	n/a	-999	4	[5, 4, 1]	10.0	catFR1	1	R1157C
479.216	9.685	241108	PROB	9.656	n/a	n/a	n/a	-999	4	[9, 4, 6]	19.0	catFR1	1	R1157C
488.901	3.051	245950	PROB	3.027	n/a	n/a	n/a	-999	4	[8, 1, 8]	17.0	catFR1	1	R1157C
491.952	3.502	247476	PROB	3.502	n/a	n/a	n/a	-999	4	[8, 3, 7]	18.0	catFR1	1	R1157C
495.454	0.014	249227	STOP	n/a	n/a	n/a	n/a	-999	4	[-999, -999, -999]	n/a	catFR1	1	R1157C
495.468	1.152	249234	DISTRACT_END	n/a	n/a	n/a	n/a	-999	4	[0, 0, 0]	n/a	catFR1	1	R1157C
496.62	0.482	249810	REC_START	n/a	n/a	n/a	n/a	-999	4	[0, 0, 0]	n/a	catFR1	1	R1157C
497.102	2.05	250051	REC_WORD	0.482	n/a	CAKE	Desserts	1	4	[0, 0, 0]	n/a	catFR1	1	R1157C
499.152	0.644	251075	REC_WORD	2.532	n/a	PLANKTON	OceanAnimals	7	4	[0, 0, 0]	n/a	catFR1	1	R1157C
499.796	3.834	251397	REC_WORD	3.176	n/a	JELLYFISH	OceanAnimals	3	4	[0, 0, 0]	n/a	catFR1	1	R1157C
503.63	23.005	253314	REC_WORD	7.01	n/a	MOUSSE	Desserts	2	4	[0, 0, 0]	n/a	catFR1	1	R1157C
526.635	2.691	264816	REC_END	n/a	n/a	n/a	n/a	-999	4	[0, 0, 0]	n/a	catFR1	1	R1157C
529.326	0.0	266161	TRIAL	n/a	n/a	n/a	n/a	-999	5	[0, 0, 0]	n/a	catFR1	1	R1157C
529.326	10.0	266161	COUNTDOWN_START	n/a	n/a	n/a	n/a	-999	5	[0, 0, 0]	n/a	catFR1	1	R1157C
539.754	0.007	271375	COUNTDOWN_END	n/a	n/a	n/a	n/a	-999	5	[0, 0, 0]	n/a	catFR1	1	R1157C
539.761	1.6	271378	ORIENT	n/a	n/a	n/a	n/a	-999	5	[0, 0, 0]	n/a	catFR1	1	R1157C
543.411	1.6	273203	WORD	n/a	wordpools/wordpool_categorized_EN.txt	RIVER	Landscapes	1	5	[0, 0, 0]	n/a	catFR1	1	R1157C
545.978	1.6	274486	WORD	n/a	wordpools/wordpool_categorized_EN.txt	CREEK	Landscapes	2	5	[0, 0, 0]	n/a	catFR1	1	R1157C
548.395	1.6	275695	WORD	n/a	wordpools/wordpool_categorized_EN.txt	TUBA	Instruments	3	5	[0, 0, 0]	n/a	catFR1	1	R1157C
550.913	1.6	276954	WORD	n/a	wordpools/wordpool_categorized_EN.txt	DRUM	Instruments	4	5	[0, 0, 0]	n/a	catFR1	1	R1157C
553.479	1.6	278237	WORD	n/a	wordpools/wordpool_categorized_EN.txt	MOSQUITO	Insects	5	5	[0, 0, 0]	n/a	catFR1	1	R1157C
555.847	1.6	279420	WORD	n/a	wordpools/wordpool_categorized_EN.txt	BUTTERFLY	Insects	6	5	[0, 0, 0]	n/a	catFR1	1	R1157C
558.447	1.6	280720	WORD	n/a	wordpools/wordpool_categorized_EN.txt	VIOLIN	Instruments	7	5	[0, 0, 0]	n/a	catFR1	1	R1157C
560.998	1.6	281996	WORD	n/a	wordpools/wordpool_categorized_EN.txt	GUITAR	Instruments	8	5	[0, 0, 0]	n/a	catFR1	1	R1157C
563.531	1.6	283262	WORD	n/a	wordpools/wordpool_categorized_EN.txt	WOODS	Landscapes	9	5	[0, 0, 0]	n/a	catFR1	1	R1157C
566.116	1.6	284554	WORD	n/a	wordpools/wordpool_categorized_EN.txt	VALLEY	Landscapes	10	5	[0, 0, 0]	n/a	catFR1	1	R1157C
568.532	1.6	285762	WORD	n/a	wordpools/wordpool_categorized_EN.txt	MOTH	Insects	11	5	[0, 0, 0]	n/a	catFR1	1	R1157C
571.083	1.6	287038	WORD	n/a	wordpools/wordpool_categorized_EN.txt	CRICKET	Insects	12	5	[0, 0, 0]	n/a	catFR1	1	R1157C
572.7	0.001	287846	DISTRACT_START	n/a	n/a	n/a	n/a	-999	5	[0, 0, 0]	n/a	catFR1	1	R1157C
572.701	0.016	287847	START	n/a	n/a	n/a	n/a	-999	5	[-999, -999, -999]	n/a	catFR1	1	R1157C
572.717	5.885	287855	PROB	5.859	n/a	n/a	n/a	-999	5	[5, 1, 8]	14.0	catFR1	1	R1157C
578.602	2.433	290797	PROB	2.398	n/a	n/a	n/a	-999	5	[7, 7, 7]	21.0	catFR1	1	R1157C
581.035	6.902	292013	PROB	6.877	n/a	n/a	n/a	-999	5	[6, 1, 9]	16.0	catFR1	1	R1157C
587.937	4.633	295464	PROB	4.598	n/a	n/a	n/a	-999	5	[8, 9, 7]	24.0	catFR1	1	R1157C
592.57	2.71	297780	PROB	2.71	n/a	n/a	n/a	-999	5	[4, 8, 1]	13.0	catFR1	1	R1157C
595.28	0.008	299135	STOP	n/a	n/a	n/a	n/a	-999	5	[-999, -999, -999]	n/a	catFR1	1	R1157C
595.288	1.133	299139	DISTRACT_END	n/a	n/a	n/a	n/a	-999	5	[0, 0, 0]	n/a	catFR1	1	R1157C
596.421	2.547	299706	REC_START	n/a	n/a	n/a	n/a	-999	5	[0, 0, 0]	n/a	catFR1	1	R1157C
598.968	0.427	300979	REC_WORD	2.547	n/a	CREEK	Landscapes	2	5	[0, 0, 0]	n/a	catFR1	1	R1157C
599.395	2.186	301193	REC_WORD	2.974	n/a	RIVER	Landscapes	1	5	[0, 0, 0]	n/a	catFR1	1	R1157C
601.581	4.216	302285	REC_WORD	5.16	n/a	VIOLIN	Instruments	7	5	[0, 0, 0]	n/a	catFR1	1	R1157C
605.797	20.64	304393	REC_WORD	9.376	n/a	WOODS	Landscapes	9	5	[0, 0, 0]	n/a	catFR1	1	R1157C
626.437	2.207	314712	REC_END	n/a	n/a	n/a	n/a	-999	5	[0, 0, 0]	n/a	catFR1	1	R1157C
628.644	0.0	315816	TRIAL	n/a	n/a	n/a	n/a	-999	6	[0, 0, 0]	n/a	catFR1	1	R1157C
628.644	10.0	315816	COUNTDOWN_START	n/a	n/a	n/a	n/a	-999	6	[0, 0, 0]	n/a	catFR1	1	R1157C
639.072	0.008	321029	COUNTDOWN_END	n/a	n/a	n/a	n/a	-999	6	[0, 0, 0]	n/a	catFR1	1	R1157C
639.08	1.6	321033	ORIENT	n/a	n/a	n/a	n/a	-999	6	[0, 0, 0]	n/a	catFR1	1	R1157C
642.597	1.6	322792	WORD	n/a	wordpools/wordpool_categorized_EN.txt	CARNATION	Flowers	1	6	[0, 0, 0]	n/a	catFR1	1	R1157C
645.231	1.6	324108	WORD	n/a	wordpools/wordpool_categorized_EN.txt	MARIGOLD	Flowers	2	6	[0, 0, 0]	n/a	catFR1	1	R1157C
647.831	1.6	325408	WORD	n/a	wordpools/wordpool_categorized_EN.txt	SANDER	Tools	3	6	[0, 0, 0]	n/a	catFR1	1	R1157C
650.265	1.6	326625	WORD	n/a	wordpools/wordpool_categorized_EN.txt	RATCHET	Tools	4	6	[0, 0, 0]	n/a	catFR1	1	R1157C
652.882	1.6	327934	WORD	n/a	wordpools/wordpool_categorized_EN.txt	WIND	Weather	5	6	[0, 0, 0]	n/a	catFR1	1	R1157C
655.498	1.6	329242	WORD	n/a	wordpools/wordpool_categorized_EN.txt	TORNADO	Weather	6	6	[0, 0, 0]	n/a	catFR1	1	R1157C
657.966	1.6	330475	WORD	n/a	wordpools/wordpool_categorized_EN.txt	LEVEL	Tools	7	6	[0, 0, 0]	n/a	catFR1	1	R1157C
660.416	1.6	331700	WORD	n/a	wordpools/wordpool_categorized_EN.txt	DRILL	Tools	8	6	[0, 0, 0]	n/a	catFR1	1	R1157C
663.034	1.6	333009	WORD	n/a	wordpools/wordpool_categorized_EN.txt	TULIP	Flowers	9	6	[0, 0, 0]	n/a	catFR1	1	R1157C
665.417	1.6	334201	WORD	n/a	wordpools/wordpool_categorized_EN.txt	ORCHID	Flowers	10	6	[0, 0, 0]	n/a	catFR1	1	R1157C
667.902	1.6	335443	WORD	n/a	wordpools/wordpool_categorized_EN.txt	CLOUD	Weather	11	6	[0, 0, 0]	n/a	catFR1	1	R1157C
670.319	1.6	336651	WORD	n/a	wordpools/wordpool_categorized_EN.txt	SNOW	Weather	12	6	[0, 0, 0]	n/a	catFR1	1	R1157C
671.936	0.001	337460	DISTRACT_START	n/a	n/a	n/a	n/a	-999	6	[0, 0, 0]	n/a	catFR1	1	R1157C
671.937	0.015	337460	START	n/a	n/a	n/a	n/a	-999	6	[-999, -999, -999]	n/a	catFR1	1	R1157C
671.952	4.901	337468	PROB	4.88	n/a	n/a	n/a	-999	6	[1, 5, 9]	15.0	catFR1	1	R1157C
676.853	2.65	339918	PROB	2.626	n/a	n/a	n/a	-999	6	[2, 8, 2]	12.0	catFR1	1	R1157C
679.503	4.502	341243	PROB	4.481	n/a	n/a	n/a	-999	6	[2, 9, 6]	17.0	catFR1	1	R1157C
684.005	3.95	343494	PROB	3.915	n/a	n/a	n/a	-999	6	[8, 7, 5]	20.0	catFR1	1	R1157C
687.955	2.768	345469	PROB	2.733	n/a	n/a	n/a	-999	6	[8, 4, 9]	21.0	catFR1	1	R1157C
690.723	2.973	346852	PROB	2.973	n/a	n/a	n/a	-999	6	[1, 1, 9]	11.0	catFR1	1	R1157C
693.696	0.01	348339	STOP	n/a	n/a	n/a	n/a	-999	6	[-999, -999, -999]	n/a	catFR1	1	R1157C
693.706	1.168	348344	DISTRACT_END	n/a	n/a	n/a	n/a	-999	6	[0, 0, 0]	n/a	catFR1	1	R1157C
694.874	1.142	348928	REC_START	n/a	n/a	n/a	n/a	-999	6	[0, 0, 0]	n/a	catFR1	1	R1157C
696.016	0.462	349499	REC_WORD	1.142	n/a	CLOUD	Weather	11	6	[0, 0, 0]	n/a	catFR1	1	R1157C
696.478	0.519	349730	REC_WORD	1.604	n/a	TORNADO	Weather	6	6	[0, 0, 0]	n/a	catFR1	1	R1157C
696.997	7.566	349989	REC_WORD	2.123	n/a	SNOW	Weather	12	6	[0, 0, 0]	n/a	catFR1	1	R1157C
704.563	20.323	353772	REC_WORD	9.689	n/a	TULIP	Flowers	9	6	[0, 0, 0]	n/a	catFR1	1	R1157C
724.886	2.193	363932	REC_END	n/a	n/a	n/a	n/a	-999	6	[0, 0, 0]	n/a	catFR1	1	R1157C
727.079	10.0	365029	COUNTDOWN_START	n/a	n/a	n/a	n/a	-999	7	[0, 0, 0]	n/a	catFR1	1	R1157C
727.08	10.427	365029	TRIAL	n/a	n/a	n/a	n/a	-999	7	[0, 0, 0]	n/a	catFR1	1	R1157C
737.507	0.007	370242	COUNTDOWN_END	n/a	n/a	n/a	n/a	-999	7	[0, 0, 0]	n/a	catFR1	1	R1157C
737.514	1.6	370246	ORIENT	n/a	n/a	n/a	n/a	-999	7	[0, 0, 0]	n/a	catFR1	1	R1157C
741.165	1.6	372071	WORD	n/a	wordpools/wordpool_categorized_EN.txt	FLOOR	Building	1	7	[0, 0, 0]	n/a	catFR1	1	R1157C
743.616	1.6	373297	WORD	n/a	wordpools/wordpool_categorized_EN.txt	HALLWAY	Building	2	7	[0, 0, 0]	n/a	catFR1	1	R1157C
746.133	1.6	374555	WORD	n/a	wordpools/wordpool_categorized_EN.txt	WINE	Beverages	3	7	[0, 0, 0]	n/a	catFR1	1	R1157C
748.516	1.6	375746	WORD	n/a	wordpools/wordpool_categorized_EN.txt	TEA	Beverages	4	7	[0, 0, 0]	n/a	catFR1	1	R1157C
751.101	1.6	377039	WORD	n/a	wordpools/wordpool_categorized_EN.txt	CAULIFLOWER	Vegetables	5	7	[0, 0, 0]	n/a	catFR1	1	R1157C
753.618	1.6	378297	WORD	n/a	wordpools/wordpool_categorized_EN.txt	BROCCOLI	Vegetables	6	7	[0, 0, 0]	n/a	catFR1	1	R1157C
756.235	1.6	379606	WORD	n/a	wordpools/wordpool_categorized_EN.txt	LEMONADE	Beverages	7	7	[0, 0, 0]	n/a	catFR1	1	R1157C
758.669	1.6	380822	WORD	n/a	wordpools/wordpool_categorized_EN.txt	BEER	Beverages	8	7	[0, 0, 0]	n/a	catFR1	1	R1157C
761.169	1.6	382072	WORD	n/a	wordpools/wordpool_categorized_EN.txt	FOUNDATION	Building	9	7	[0, 0, 0]	n/a	catFR1	1	R1157C
763.62	1.6	383298	WORD	n/a	wordpools/wordpool_categorized_EN.txt	ROOM	Building	10	7	[0, 0, 0]	n/a	catFR1	1	R1157C
766.186	1.6	384581	WORD	n/a	wordpools/wordpool_categorized_EN.txt	POTATO	Vegetables	11	7	[0, 0, 0]	n/a	catFR1	1	R1157C
768.704	1.6	385840	WORD	n/a	wordpools/wordpool_categorized_EN.txt	CELERY	Vegetables	12	7	[0, 0, 0]	n/a	catFR1	1	R1157C
770.321	0.001	386648	DISTRACT_START	n/a	n/a	n/a	n/a	-999	7	[0, 0, 0]	n/a	catFR1	1	R1157C
770.322	0.015	386648	START	n/a	n/a	n/a	n/a	-999	7	[-999, -999, -999]	n/a	catFR1	1	R1157C
770.337	5.2	386656	PROB	5.174	n/a	n/a	n/a	-999	7	[3, 8, 7]	18.0	catFR1	1	R1157C
775.537	3.619	389256	PROB	3.599	n/a	n/a	n/a	-999	7	[5, 4, 9]	18.0	catFR1	1	R1157C
779.156	3.6	391065	PROB	3.572	n/a	n/a	n/a	-999	7	[7, 9, 7]	23.0	catFR1	1	R1157C
782.756	2.968	392865	PROB	2.932	n/a	n/a	n/a	-999	7	[3, 5, 8]	16.0	catFR1	1	R1157C
785.724	3.534	394349	PROB	3.508	n/a	n/a	n/a	-999	7	[2, 4, 7]	13.0	catFR1	1	R1157C
789.258	4.054	396116	PROB	4.054	n/a	n/a	n/a	-999	7	[8, 9, 3]	20.0	catFR1	1	R1157C
793.312	0.013	398142	STOP	n/a	n/a	n/a	n/a	-999	7	[-999, -999, -999]	n/a	catFR1	1	R1157C
793.325	1.217	398149	DISTRACT_END	n/a	n/a	n/a	n/a	-999	7	[0, 0, 0]	n/a	catFR1	1	R1157C
794.542	0.649	398757	REC_START	n/a	n/a	n/a	n/a	-999	7	[0, 0, 0]	n/a	catFR1	1	R1157C
795.191	0.641	399082	REC_WORD	0.649	n/a	WINE	Beverages	3	7	[0, 0, 0]	n/a	catFR1	1	R1157C
795.832	3.954	399402	REC_WORD	1.29	n/a	BEER	Beverages	8	7	[0, 0, 0]	n/a	catFR1	1	R1157C
799.786	0.733	401379	REC_WORD	5.244	n/a	BROCCOLI	Vegetables	6	7	[0, 0, 0]	n/a	catFR1	1	R1157C
800.519	4.326	401746	REC_WORD	5.977	n/a	CAULIFLOWER	Vegetables	5	7	[0, 0, 0]	n/a	catFR1	1	R1157C
804.845	0.587	403908	REC_WORD	10.303	n/a	POTATO	Vegetables	11	7	[0, 0, 0]	n/a	catFR1	1	R1157C
805.432	8.241	404202	REC_WORD	10.89	n/a	CELERY	Vegetables	12	7	[0, 0, 0]	n/a	catFR1	1	R1157C
813.673	10.88	408322	REC_WORD	19.131	n/a	TEA	Beverages	4	7	[0, 0, 0]	n/a	catFR1	1	R1157C
824.553	3.662	413762	REC_END	n/a	n/a	n/a	n/a	-999	7	[0, 0, 0]	n/a	catFR1	1	R1157C
828.215	0.0	415592	TRIAL	n/a	n/a	n/a	n/a	-999	8	[0, 0, 0]	n/a	catFR1	1	R1157C
828.215	10.0	415592	COUNTDOWN_START	n/a	n/a	n/a	n/a	-999	8	[0, 0, 0]	n/a	catFR1	1	R1157C
838.643	0.007	420806	COUNTDOWN_END	n/a	n/a	n/a	n/a	-999	8	[0, 0, 0]	n/a	catFR1	1	R1157C
838.65	1.6	420809	ORIENT	n/a	n/a	n/a	n/a	-999	8	[0, 0, 0]	n/a	catFR1	1	R1157C
842.417	1.6	422693	WORD	n/a	wordpools/wordpool_categorized_EN.txt	CIDER	Beverages	1	8	[0, 0, 0]	n/a	catFR1	1	R1157C
844.835	1.6	423902	WORD	n/a	wordpools/wordpool_categorized_EN.txt	RUM	Beverages	2	8	[0, 0, 0]	n/a	catFR1	1	R1157C
847.335	1.6	425152	WORD	n/a	wordpools/wordpool_categorized_EN.txt	CHICKEN	FarmAnimals	3	8	[0, 0, 0]	n/a	catFR1	1	R1157C
849.919	1.6	426443	WORD	n/a	wordpools/wordpool_categorized_EN.txt	COW	FarmAnimals	4	8	[0, 0, 0]	n/a	catFR1	1	R1157C
852.469	1.6	427718	WORD	n/a	wordpools/wordpool_categorized_EN.txt	SAW	Tools	5	8	[0, 0, 0]	n/a	catFR1	1	R1157C
855.07	1.6	429019	WORD	n/a	wordpools/wordpool_categorized_EN.txt	SCREWDRIVER	Tools	6	8	[0, 0, 0]	n/a	catFR1	1	R1157C
857.587	1.6	430277	WORD	n/a	wordpools/wordpool_categorized_EN.txt	HORSE	FarmAnimals	7	8	[0, 0, 0]	n/a	catFR1	1	R1157C
860.071	1.6	431519	WORD	n/a	wordpools/wordpool_categorized_EN.txt	LAMB	FarmAnimals	8	8	[0, 0, 0]	n/a	catFR1	1	R1157C
862.638	1.6	432802	WORD	n/a	wordpools/wordpool_categorized_EN.txt	COFFEE	Beverages	9	8	[0, 0, 0]	n/a	catFR1	1	R1157C
865.072	1.6	434019	WORD	n/a	wordpools/wordpool_categorized_EN.txt	JUICE	Beverages	10	8	[0, 0, 0]	n/a	catFR1	1	R1157C
867.689	1.6	435328	WORD	n/a	wordpools/wordpool_categorized_EN.txt	CROWBAR	Tools	11	8	[0, 0, 0]	n/a	catFR1	1	R1157C
870.206	1.6	436586	WORD	n/a	wordpools/wordpool_categorized_EN.txt	AXE	Tools	12	8	[0, 0, 0]	n/a	catFR1	1	R1157C
871.823	0.001	437394	DISTRACT_START	n/a	n/a	n/a	n/a	-999	8	[0, 0, 0]	n/a	catFR1	1	R1157C
871.824	0.016	437395	START	n/a	n/a	n/a	n/a	-999	8	[-999, -999, -999]	n/a	catFR1	1	R1157C
871.84	3.4	437403	PROB	3.368	n/a	n/a	n/a	-999	8	[5, 2, 6]	13.0	catFR1	1	R1157C
875.24	3.735	439103	PROB	3.704	n/a	n/a	n/a	-999	8	[5, 8, 1]	14.0	catFR1	1	R1157C
878.975	7.651	440970	PROB	7.625	n/a	n/a	n/a	-999	8	[7, 5, 9]	19.0	catFR1	1	R1157C
886.626	3.25	444795	PROB	3.23	n/a	n/a	n/a	-999	8	[7, 2, 3]	12.0	catFR1	1	R1157C
889.876	3.292	446420	PROB	3.292	n/a	n/a	n/a	-999	8	[3, 6, 8]	17.0	catFR1	1	R1157C
893.168	0.009	448066	STOP	n/a	n/a	n/a	n/a	-999	8	[-999, -999, -999]	n/a	catFR1	1	R1157C
893.177	1.217	448071	DISTRACT_END	n/a	n/a	n/a	n/a	-999	8	[0, 0, 0]	n/a	catFR1	1	R1157C
894.394	1.195	448679	REC_START	n/a	n/a	n/a	n/a	-999	8	[0, 0, 0]	n/a	catFR1	1	R1157C
895.589	0.481	449276	REC_WORD	1.195	n/a	CHICKEN	FarmAnimals	3	8	[0, 0, 0]	n/a	catFR1	1	R1157C
896.07	4.679	449517	REC_WORD	1.676	n/a	COW	FarmAnimals	4	8	[0, 0, 0]	n/a	catFR1	1	R1157C
900.749	19.171	451856	REC_WORD	6.355	n/a	CROWBAR	Tools	11	8	[0, 0, 0]	n/a	catFR1	1	R1157C
919.92	4.486	461441	REC_WORD	25.526	n/a	RUM	Beverages	2	8	[0, 0, 0]	n/a	catFR1	1	R1157C
924.406	2.711	463684	REC_END	n/a	n/a	n/a	n/a	-999	8	[0, 0, 0]	n/a	catFR1	1	R1157C
927.117	0.0	465039	TRIAL	n/a	n/a	n/a	n/a	-999	9	[0, 0, 0]	n/a	catFR1	1	R1157C
927.117	10.0	465039	COUNTDOWN_START	n/a	n/a	n/a	n/a	-999	9	[0, 0, 0]	n/a	catFR1	1	R1157C
937.545	0.006	470253	COUNTDOWN_END	n/a	n/a	n/a	n/a	-999	9	[0, 0, 0]	n/a	catFR1	1	R1157C
937.551	1.6	470256	ORIENT	n/a	n/a	n/a	n/a	-999	9	[0, 0, 0]	n/a	catFR1	1	R1157C
941.253	1.6	472106	WORD	n/a	wordpools/wordpool_categorized_EN.txt	BASS	Instruments	1	9	[0, 0, 0]	n/a	catFR1	1	R1157C
943.753	1.6	473356	WORD	n/a	wordpools/wordpool_categorized_EN.txt	PIANO	Instruments	2	9	[0, 0, 0]	n/a	catFR1	1	R1157C
946.17	1.6	474565	WORD	n/a	wordpools/wordpool_categorized_EN.txt	PEACH	Fruit	3	9	[0, 0, 0]	n/a	catFR1	1	R1157C
948.57	1.6	475765	WORD	n/a	wordpools/wordpool_categorized_EN.txt	LIME	Fruit	4	9	[0, 0, 0]	n/a	catFR1	1	R1157C
951.171	1.6	477065	WORD	n/a	wordpools/wordpool_categorized_EN.txt	BED	Furniture	5	9	[0, 0, 0]	n/a	catFR1	1	R1157C
953.588	1.6	478273	WORD	n/a	wordpools/wordpool_categorized_EN.txt	DESK	Furniture	6	9	[0, 0, 0]	n/a	catFR1	1	R1157C
956.006	1.6	479482	WORD	n/a	wordpools/wordpool_categorized_EN.txt	GRAPE	Fruit	7	9	[0, 0, 0]	n/a	catFR1	1	R1157C
958.472	1.6	480715	WORD	n/a	wordpools/wordpool_categorized_EN.txt	LEMON	Fruit	8	9	[0, 0, 0]	n/a	catFR1	1	R1157C
961.09	1.6	482024	WORD	n/a	wordpools/wordpool_categorized_EN.txt	CELLO	Instruments	9	9	[0, 0, 0]	n/a	catFR1	1	R1157C
963.473	1.6	483215	WORD	n/a	wordpools/wordpool_categorized_EN.txt	BANJO	Instruments	10	9	[0, 0, 0]	n/a	catFR1	1	R1157C
965.874	1.6	484416	WORD	n/a	wordpools/wordpool_categorized_EN.txt	SOFA	Furniture	11	9	[0, 0, 0]	n/a	catFR1	1	R1157C
968.474	1.6	485716	WORD	n/a	wordpools/wordpool_categorized_EN.txt	CHAIR	Furniture	12	9	[0, 0, 0]	n/a	catFR1	1	R1157C
970.092	0.001	486525	DISTRACT_START	n/a	n/a	n/a	n/a	-999	9	[0, 0, 0]	n/a	catFR1	1	R1157C
970.093	0.015	486525	START	n/a	n/a	n/a	n/a	-999	9	[-999, -999, -999]	n/a	catFR1	1	R1157C
970.108	3.934	486533	PROB	3.908	n/a	n/a	n/a	-999	9	[4, 2, 3]	9.0	catFR1	1	R1157C
974.042	2.934	488499	PROB	2.902	n/a	n/a	n/a	-999	9	[2, 1, 5]	8.0	catFR1	1	R1157C
976.976	3.167	489966	PROB	3.136	n/a	n/a	n/a	-999	9	[7, 8, 8]	23.0	catFR1	1	R1157C
980.143	2.784	491550	PROB	2.753	n/a	n/a	n/a	-999	9	[8, 8, 2]	12.0	catFR1	1	R1157C
982.927	4.633	492942	PROB	4.6	n/a	n/a	n/a	-999	9	[5, 5, 9]	19.0	catFR1	1	R1157C
987.56	4.504	495258	PROB	4.504	n/a	n/a	n/a	-999	9	[7, 5, 3]	15.0	catFR1	1	R1157C
992.064	0.015	497510	STOP	n/a	n/a	n/a	n/a	-999	9	[-999, -999, -999]	n/a	catFR1	1	R1157C
992.079	1.101	497517	DISTRACT_END	n/a	n/a	n/a	n/a	-999	9	[0, 0, 0]	n/a	catFR1	1	R1157C
993.18	1.116	498068	REC_START	n/a	n/a	n/a	n/a	-999	9	[0, 0, 0]	n/a	catFR1	1	R1157C
994.296	5.31	498626	REC_WORD	1.116	n/a	BANJO	Instruments	10	9	[0, 0, 0]	n/a	catFR1	1	R1157C
999.606	6.527	501280	REC_WORD	6.426	n/a	BASS	Instruments	1	9	[0, 0, 0]	n/a	catFR1	1	R1157C
1006.133	0.539	504544	REC_WORD	12.953	n/a	SOFA	Furniture	11	9	[0, 0, 0]	n/a	catFR1	1	R1157C
1006.672	15.242	504813	REC_WORD	13.492	n/a	CHAIR	Furniture	12	9	[0, 0, 0]	n/a	catFR1	1	R1157C
1021.914	1.278	512433	REC_WORD	28.734	n/a	LEMON	Fruit	8	9	[0, 0, 0]	n/a	catFR1	1	R1157C
1023.192	1.877	513072	REC_END	n/a	n/a	n/a	n/a	-999	9	[0, 0, 0]	n/a	catFR1	1	R1157C
1025.069	0.0	514011	TRIAL	n/a	n/a	n/a	n/a	-999	10	[0, 0, 0]	n/a	catFR1	1	R1157C
1025.069	10.0	514011	COUNTDOWN_START	n/a	n/a	n/a	n/a	-999	10	[0, 0, 0]	n/a	catFR1	1	R1157C
1035.497	0.006	519224	COUNTDOWN_END	n/a	n/a	n/a	n/a	-999	10	[0, 0, 0]	n/a	catFR1	1	R1157C
1035.503	1.6	519227	ORIENT	n/a	n/a	n/a	n/a	-999	10	[0, 0, 0]	n/a	catFR1	1	R1157C
1039.204	1.6	521078	WORD	n/a	wordpools/wordpool_categorized_EN.txt	ROACH	Insects	1	10	[0, 0, 0]	n/a	catFR1	1	R1157C
1041.605	1.6	522278	WORD	n/a	wordpools/wordpool_categorized_EN.txt	LADYBUG	Insects	2	10	[0, 0, 0]	n/a	catFR1	1	R1157C
1044.055	1.6	523503	WORD	n/a	wordpools/wordpool_categorized_EN.txt	LILAC	Flowers	3	10	[0, 0, 0]	n/a	catFR1	1	R1157C
1046.538	1.6	524744	WORD	n/a	wordpools/wordpool_categorized_EN.txt	DAISY	Flowers	4	10	[0, 0, 0]	n/a	catFR1	1	R1157C
1049.106	1.6	526028	WORD	n/a	wordpools/wordpool_categorized_EN.txt	BULL	FarmAnimals	5	10	[0, 0, 0]	n/a	catFR1	1	R1157C
1051.573	1.6	527262	WORD	n/a	wordpools/wordpool_categorized_EN.txt	PIG	FarmAnimals	6	10	[0, 0, 0]	n/a	catFR1	1	R1157C
1054.141	1.6	528545	WORD	n/a	wordpools/wordpool_categorized_EN.txt	PETUNIA	Flowers	7	10	[0, 0, 0]	n/a	catFR1	1	R1157C
1056.691	1.6	529820	WORD	n/a	wordpools/wordpool_categorized_EN.txt	LILY	Flowers	8	10	[0, 0, 0]	n/a	catFR1	1	R1157C
1059.308	1.6	531129	WORD	n/a	wordpools/wordpool_categorized_EN.txt	SPIDER	Insects	9	10	[0, 0, 0]	n/a	catFR1	1	R1157C
1061.825	1.6	532387	WORD	n/a	wordpools/wordpool_categorized_EN.txt	BEE	Insects	10	10	[0, 0, 0]	n/a	catFR1	1	R1157C
1064.276	1.6	533612	WORD	n/a	wordpools/wordpool_categorized_EN.txt	HEN	FarmAnimals	11	10	[0, 0, 0]	n/a	catFR1	1	R1157C
1066.71	1.6	534829	WORD	n/a	wordpools/wordpool_categorized_EN.txt	GOAT	FarmAnimals	12	10	[0, 0, 0]	n/a	catFR1	1	R1157C
1068.327	0.001	535638	DISTRACT_START	n/a	n/a	n/a	n/a	-999	10	[0, 0, 0]	n/a	catFR1	1	R1157C
1068.328	0.015	535638	START	n/a	n/a	n/a	n/a	-999	10	[-999, -999, -999]	n/a	catFR1	1	R1157C
1068.343	4.334	535646	PROB	4.305	n/a	n/a	n/a	-999	10	[5, 4, 7]	16.0	catFR1	1	R1157C
1072.677	2.901	537813	PROB	2.874	n/a	n/a	n/a	-999	10	[3, 8, 2]	13.0	catFR1	1	R1157C
1075.578	3.117	539263	PROB	3.094	n/a	n/a	n/a	-999	10	[7, 7, 2]	16.0	catFR1	1	R1157C
1078.695	3.368	540821	PROB	3.337	n/a	n/a	n/a	-999	10	[6, 7, 4]	17.0	catFR1	1	R1157C
1082.063	3.399	542505	PROB	3.368	n/a	n/a	n/a	-999	10	[1, 6, 2]	9.0	catFR1	1	R1157C
1085.462	2.835	544205	PROB	2.809	n/a	n/a	n/a	-999	10	[6, 1, 1]	8.0	catFR1	1	R1157C
1088.297	3.607	545622	PROB	3.607	n/a	n/a	n/a	-999	10	[4, 4, 3]	11.0	catFR1	1	R1157C
1091.904	0.01	547425	STOP	n/a	n/a	n/a	n/a	-999	10	[-999, -999, -999]	n/a	catFR1	1	R1157C
1091.914	1.168	547430	DISTRACT_END	n/a	n/a	n/a	n/a	-999	10	[0, 0, 0]	n/a	catFR1	1	R1157C
1093.082	0.893	548014	REC_START	n/a	n/a	n/a	n/a	-999	10	[0, 0, 0]	n/a	catFR1	1	R1157C
1093.975	0.742	548461	REC_WORD	0.893	n/a	MOSQUITO	n/a	-999	10	[0, 0, 0]	n/a	catFR1	1	R1157C
1094.717	4.365	548832	REC_WORD	1.635	n/a	BEE	Insects	10	10	[0, 0, 0]	n/a	catFR1	1	R1157C
1099.082	11.328	551014	REC_WORD	6.0	n/a	DAISY	Flowers	4	10	[0, 0, 0]	n/a	catFR1	1	R1157C
1110.41	4.163	556677	REC_WORD	17.328	n/a	ROACH	Insects	1	10	[0, 0, 0]	n/a	catFR1	1	R1157C
1114.573	1.36	558759	REC_WORD	21.491	n/a	HEN	FarmAnimals	11	10	[0, 0, 0]	n/a	catFR1	1	R1157C
1115.933	7.16	559439	REC_WORD	22.851	n/a	PIG	FarmAnimals	6	10	[0, 0, 0]	n/a	catFR1	1	R1157C
1123.093	1.561	563018	REC_END	n/a	n/a	n/a	n/a	-999	10	[0, 0, 0]	n/a	catFR1	1	R1157C
1124.654	0.0	563799	TRIAL	n/a	n/a	n/a	n/a	-999	11	[0, 0, 0]	n/a	catFR1	1	R1157C
1124.654	10.0	563799	COUNTDOWN_START	n/a	n/a	n/a	n/a	-999	11	[0, 0, 0]	n/a	catFR1	1	R1157C
1135.082	0.007	569012	COUNTDOWN_END	n/a	n/a	n/a	n/a	-999	11	[0, 0, 0]	n/a	catFR1	1	R1157C
1135.089	1.6	569016	ORIENT	n/a	n/a	n/a	n/a	-999	11	[0, 0, 0]	n/a	catFR1	1	R1157C
1138.773	1.6	570858	WORD	n/a	wordpools/wordpool_categorized_EN.txt	SUNFLOWER	Flowers	1	11	[0, 0, 0]	n/a	catFR1	1	R1157C
1141.29	1.6	572116	WORD	n/a	wordpools/wordpool_categorized_EN.txt	DAFFODIL	Flowers	2	11	[0, 0, 0]	n/a	catFR1	1	R1157C
1143.874	1.6	573408	WORD	n/a	wordpools/wordpool_categorized_EN.txt	COLANDER	KitchenTools	3	11	[0, 0, 0]	n/a	catFR1	1	R1157C
1146.324	1.6	574633	WORD	n/a	wordpools/wordpool_categorized_EN.txt	SPOON	KitchenTools	4	11	[0, 0, 0]	n/a	catFR1	1	R1157C
1148.742	1.6	575842	WORD	n/a	wordpools/wordpool_categorized_EN.txt	SHRIMP	OceanAnimals	5	11	[0, 0, 0]	n/a	catFR1	1	R1157C
1151.309	1.6	577125	WORD	n/a	wordpools/wordpool_categorized_EN.txt	CRAB	OceanAnimals	6	11	[0, 0, 0]	n/a	catFR1	1	R1157C
1153.726	1.6	578333	WORD	n/a	wordpools/wordpool_categorized_EN.txt	ROSE	Flowers	7	11	[0, 0, 0]	n/a	catFR1	1	R1157C
1156.226	1.6	579583	WORD	n/a	wordpools/wordpool_categorized_EN.txt	VIOLET	Flowers	8	11	[0, 0, 0]	n/a	catFR1	1	R1157C
1158.66	1.6	580800	WORD	n/a	wordpools/wordpool_categorized_EN.txt	OCTOPUS	OceanAnimals	9	11	[0, 0, 0]	n/a	catFR1	1	R1157C
1161.144	1.6	582042	WORD	n/a	wordpools/wordpool_categorized_EN.txt	FISH	OceanAnimals	10	11	[0, 0, 0]	n/a	catFR1	1	R1157C
1163.56	1.6	583250	WORD	n/a	wordpools/wordpool_categorized_EN.txt	TONGS	KitchenTools	11	11	[0, 0, 0]	n/a	catFR1	1	R1157C
1166.112	1.6	584526	WORD	n/a	wordpools/wordpool_categorized_EN.txt	KNIFE	KitchenTools	12	11	[0, 0, 0]	n/a	catFR1	1	R1157C
1167.728	0.001	585334	DISTRACT_START	n/a	n/a	n/a	n/a	-999	11	[0, 0, 0]	n/a	catFR1	1	R1157C
1167.729	0.016	585334	START	n/a	n/a	n/a	n/a	-999	11	[-999, -999, -999]	n/a	catFR1	1	R1157C
1167.745	3.518	585342	PROB	3.487	n/a	n/a	n/a	-999	11	[8, 7, 9]	24.0	catFR1	1	R1157C
1171.263	3.984	587101	PROB	3.96	n/a	n/a	n/a	-999	11	[9, 7, 6]	22.0	catFR1	1	R1157C
1175.247	2.733	589093	PROB	2.697	n/a	n/a	n/a	-999	11	[7, 3, 4]	14.0	catFR1	1	R1157C
1177.98	3.968	590459	PROB	3.932	n/a	n/a	n/a	-999	11	[3, 6, 5]	14.0	catFR1	1	R1157C
1181.948	2.634	592443	PROB	2.603	n/a	n/a	n/a	-999	11	[4, 1, 7]	12.0	catFR1	1	R1157C
1184.582	2.7	593760	PROB	2.673	n/a	n/a	n/a	-999	11	[7, 1, 5]	13.0	catFR1	1	R1157C
1187.282	2.99	595110	PROB	2.99	n/a	n/a	n/a	-999	11	[1, 7, 5]	13.0	catFR1	1	R1157C
1190.272	0.011	596605	STOP	n/a	n/a	n/a	n/a	-999	11	[-999, -999, -999]	n/a	catFR1	1	R1157C
1190.283	1.216	596610	DISTRACT_END	n/a	n/a	n/a	n/a	-999	11	[0, 0, 0]	n/a	catFR1	1	R1157C
1191.499	3.841	597218	REC_START	n/a	n/a	n/a	n/a	-999	11	[0, 0, 0]	n/a	catFR1	1	R1157C
1195.34	4.443	599139	REC_WORD	3.841	n/a	TONGS	KitchenTools	11	11	[0, 0, 0]	n/a	catFR1	1	R1157C
1199.783	1.691	601360	REC_WORD	8.284	n/a	OCTOPUS	OceanAnimals	9	11	[0, 0, 0]	n/a	catFR1	1	R1157C
1201.474	1.849	602205	REC_WORD	9.975	n/a	FISH	OceanAnimals	10	11	[0, 0, 0]	n/a	catFR1	1	R1157C
1203.323	1.688	603130	REC_WORD	11.824	n/a	CRAB	OceanAnimals	6	11	[0, 0, 0]	n/a	catFR1	1	R1157C
1205.011	12.707	603974	REC_WORD	13.512	n/a	SHRIMP	OceanAnimals	5	11	[0, 0, 0]	n/a	catFR1	1	R1157C
1217.718	3.796	610327	REC_WORD	26.219	n/a	COLANDER	KitchenTools	3	11	[0, 0, 0]	n/a	catFR1	1	R1157C
1221.514	1.575	612224	REC_END	n/a	n/a	n/a	n/a	-999	11	[0, 0, 0]	n/a	catFR1	1	R1157C
1223.089	0.0	613012	TRIAL	n/a	n/a	n/a	n/a	-999	12	[0, 0, 0]	n/a	catFR1	1	R1157C
1223.089	10.0	613012	COUNTDOWN_START	n/a	n/a	n/a	n/a	-999	12	[0, 0, 0]	n/a	catFR1	1	R1157C
1233.517	0.006	618225	COUNTDOWN_END	n/a	n/a	n/a	n/a	-999	12	[0, 0, 0]	n/a	catFR1	1	R1157C
1233.523	1.6	618228	ORIENT	n/a	n/a	n/a	n/a	-999	12	[0, 0, 0]	n/a	catFR1	1	R1157C
1237.158	1.6	620046	WORD	n/a	wordpools/wordpool_categorized_EN.txt	COLA	Beverages	1	12	[0, 0, 0]	n/a	catFR1	1	R1157C
1239.759	1.6	621346	WORD	n/a	wordpools/wordpool_categorized_EN.txt	MILK	Beverages	2	12	[0, 0, 0]	n/a	catFR1	1	R1157C
1242.276	1.6	622605	WORD	n/a	wordpools/wordpool_categorized_EN.txt	FOOTBALL	Toys	3	12	[0, 0, 0]	n/a	catFR1	1	R1157C
1244.676	1.6	623804	WORD	n/a	wordpools/wordpool_categorized_EN.txt	BASKETBALL	Toys	4	12	[0, 0, 0]	n/a	catFR1	1	R1157C
1247.193	1.6	625063	WORD	n/a	wordpools/wordpool_categorized_EN.txt	RECLINER	Furniture	5	12	[0, 0, 0]	n/a	catFR1	1	R1157C
1249.611	1.6	626272	WORD	n/a	wordpools/wordpool_categorized_EN.txt	NIGHTSTAND	Furniture	6	12	[0, 0, 0]	n/a	catFR1	1	R1157C
1252.111	1.6	627522	WORD	n/a	wordpools/wordpool_categorized_EN.txt	WATER	Beverages	7	12	[0, 0, 0]	n/a	catFR1	1	R1157C
1254.544	1.6	628738	WORD	n/a	wordpools/wordpool_categorized_EN.txt	SODA	Beverages	8	12	[0, 0, 0]	n/a	catFR1	1	R1157C
1256.945	1.6	629938	WORD	n/a	wordpools/wordpool_categorized_EN.txt	DRESSER	Furniture	9	12	[0, 0, 0]	n/a	catFR1	1	R1157C
1259.528	1.6	631230	WORD	n/a	wordpools/wordpool_categorized_EN.txt	TABLE	Furniture	10	12	[0, 0, 0]	n/a	catFR1	1	R1157C
1262.13	1.6	632531	WORD	n/a	wordpools/wordpool_categorized_EN.txt	MARBLES	Toys	11	12	[0, 0, 0]	n/a	catFR1	1	R1157C
1264.68	1.6	633806	WORD	n/a	wordpools/wordpool_categorized_EN.txt	DOLL	Toys	12	12	[0, 0, 0]	n/a	catFR1	1	R1157C
1266.297	0.001	634614	DISTRACT_START	n/a	n/a	n/a	n/a	-999	12	[0, 0, 0]	n/a	catFR1	1	R1157C
1266.298	0.016	634615	START	n/a	n/a	n/a	n/a	-999	12	[-999, -999, -999]	n/a	catFR1	1	R1157C
1266.314	5.317	634623	PROB	5.294	n/a	n/a	n/a	-999	12	[5, 1, 9]	15.0	catFR1	1	R1157C
1271.631	3.084	637281	PROB	3.049	n/a	n/a	n/a	-999	12	[2, 3, 5]	10.0	catFR1	1	R1157C
1274.715	2.867	638823	PROB	2.836	n/a	n/a	n/a	-999	12	[4, 3, 3]	10.0	catFR1	1	R1157C
1277.582	3.768	640256	PROB	3.738	n/a	n/a	n/a	-999	12	[2, 7, 8]	17.0	catFR1	1	R1157C
1281.35	5.618	642140	PROB	5.618	n/a	n/a	n/a	-999	12	[9, 5, 9]	23.0	catFR1	1	R1157C
1286.968	0.016	644949	STOP	n/a	n/a	n/a	n/a	-999	12	[-999, -999, -999]	n/a	catFR1	1	R1157C
1286.984	1.051	644957	DISTRACT_END	n/a	n/a	n/a	n/a	-999	12	[0, 0, 0]	n/a	catFR1	1	R1157C
1288.035	2.236	645482	REC_START	n/a	n/a	n/a	n/a	-999	12	[0, 0, 0]	n/a	catFR1	1	R1157C
1290.271	0.478	646600	REC_WORD	2.236	n/a	FOOTBALL	Toys	3	12	[0, 0, 0]	n/a	catFR1	1	R1157C
1290.749	2.367	646839	REC_WORD	2.714	n/a	BASKETBALL	Toys	4	12	[0, 0, 0]	n/a	catFR1	1	R1157C
1293.116	2.196	648022	REC_WORD	5.081	n/a	COLA	Beverages	1	12	[0, 0, 0]	n/a	catFR1	1	R1157C
1295.312	1.194	649120	REC_WORD	7.277	n/a	MILK	Beverages	2	12	[0, 0, 0]	n/a	catFR1	1	R1157C
1296.506	0.617	649717	REC_WORD	8.471	n/a	WATER	Beverages	7	12	[0, 0, 0]	n/a	catFR1	1	R1157C
1297.123	1.532	650026	REC_WORD	9.088	n/a	SODA	Beverages	8	12	[0, 0, 0]	n/a	catFR1	1	R1157C
1298.655	15.919	650792	REC_WORD	10.62	n/a	RECLINER	Furniture	5	12	[0, 0, 0]	n/a	catFR1	1	R1157C
1314.574	3.473	658750	REC_WORD	26.539	n/a	NIGHTSTAND	Furniture	6	12	[0, 0, 0]	n/a	catFR1	1	R1157C
1318.047	2.577	660487	REC_END	n/a	n/a	n/a	n/a	-999	12	[0, 0, 0]	n/a	catFR1	1	R1157C
1320.624	10.0	661775	COUNTDOWN_START	n/a	n/a	n/a	n/a	-999	13	[0, 0, 0]	n/a	catFR1	1	R1157C
1320.624	10.428	661775	TRIAL	n/a	n/a	n/a	n/a	-999	13	[0, 0, 0]	n/a	catFR1	1	R1157C
1331.052	0.007	666989	COUNTDOWN_END	n/a	n/a	n/a	n/a	-999	13	[0, 0, 0]	n/a	catFR1	1	R1157C
1331.059	1.6	666992	ORIENT	n/a	n/a	n/a	n/a	-999	13	[0, 0, 0]	n/a	catFR1	1	R1157C
1334.475	1.6	668700	WORD	n/a	wordpools/wordpool_categorized_EN.txt	ORGAN	Instruments	1	13	[0, 0, 0]	n/a	catFR1	1	R1157C
1337.027	1.6	669976	WORD	n/a	wordpools/wordpool_categorized_EN.txt	FLUTE	Instruments	2	13	[0, 0, 0]	n/a	catFR1	1	R1157C
1339.644	1.6	671284	WORD	n/a	wordpools/wordpool_categorized_EN.txt	TOE	BodyParts	3	13	[0, 0, 0]	n/a	catFR1	1	R1157C
1342.245	1.6	672585	WORD	n/a	wordpools/wordpool_categorized_EN.txt	KNEE	BodyParts	4	13	[0, 0, 0]	n/a	catFR1	1	R1157C
1344.695	1.6	673810	WORD	n/a	wordpools/wordpool_categorized_EN.txt	WASHER	Appliances	5	13	[0, 0, 0]	n/a	catFR1	1	R1157C
1347.145	1.6	675034	WORD	n/a	wordpools/wordpool_categorized_EN.txt	OVEN	Appliances	6	13	[0, 0, 0]	n/a	catFR1	1	R1157C
1349.696	1.6	676310	WORD	n/a	wordpools/wordpool_categorized_EN.txt	TRUMPET	Instruments	7	13	[0, 0, 0]	n/a	catFR1	1	R1157C
1352.313	1.6	677618	WORD	n/a	wordpools/wordpool_categorized_EN.txt	TROMBONE	Instruments	8	13	[0, 0, 0]	n/a	catFR1	1	R1157C
1354.93	1.6	678927	WORD	n/a	wordpools/wordpool_categorized_EN.txt	DISHWASHER	Appliances	9	13	[0, 0, 0]	n/a	catFR1	1	R1157C
1357.38	1.6	680151	WORD	n/a	wordpools/wordpool_categorized_EN.txt	MIXER	Appliances	10	13	[0, 0, 0]	n/a	catFR1	1	R1157C
1359.964	1.6	681443	WORD	n/a	wordpools/wordpool_categorized_EN.txt	NOSE	BodyParts	11	13	[0, 0, 0]	n/a	catFR1	1	R1157C
1362.381	1.6	682652	WORD	n/a	wordpools/wordpool_categorized_EN.txt	HAND	BodyParts	12	13	[0, 0, 0]	n/a	catFR1	1	R1157C
1363.999	0.001	683461	DISTRACT_START	n/a	n/a	n/a	n/a	-999	13	[0, 0, 0]	n/a	catFR1	1	R1157C
1364.0	0.015	683461	START	n/a	n/a	n/a	n/a	-999	13	[-999, -999, -999]	n/a	catFR1	1	R1157C
1364.015	4.068	683469	PROB	4.033	n/a	n/a	n/a	-999	13	[7, 5, 4]	16.0	catFR1	1	R1157C
1368.083	3.0	685503	PROB	2.965	n/a	n/a	n/a	-999	13	[8, 8, 4]	16.0	catFR1	1	R1157C
1371.083	6.467	687002	PROB	6.444	n/a	n/a	n/a	-999	13	[1, 3, 6]	10.0	catFR1	1	R1157C
1377.55	2.618	690236	PROB	2.594	n/a	n/a	n/a	-999	13	[1, 8, 1]	10.0	catFR1	1	R1157C
1380.168	3.551	691544	PROB	3.52	n/a	n/a	n/a	-999	13	[9, 3, 4]	16.0	catFR1	1	R1157C
1383.719	2.848	693320	PROB	2.848	n/a	n/a	n/a	-999	13	[8, 4, 8]	20.0	catFR1	1	R1157C
1386.567	0.019	694744	STOP	n/a	n/a	n/a	n/a	-999	13	[-999, -999, -999]	n/a	catFR1	1	R1157C
1386.586	1.084	694753	DISTRACT_END	n/a	n/a	n/a	n/a	-999	13	[0, 0, 0]	n/a	catFR1	1	R1157C
1387.67	0.87	695295	REC_START	n/a	n/a	n/a	n/a	-999	13	[0, 0, 0]	n/a	catFR1	1	R1157C
1388.54	2.805	695730	REC_WORD	0.87	n/a	DISHWASHER	Appliances	9	13	[0, 0, 0]	n/a	catFR1	1	R1157C
1391.345	1.009	697132	REC_WORD	3.675	n/a	TOE	BodyParts	3	13	[0, 0, 0]	n/a	catFR1	1	R1157C
1392.354	4.075	697637	REC_WORD	4.684	n/a	KNEE	BodyParts	4	13	[0, 0, 0]	n/a	catFR1	1	R1157C
1396.429	21.253	699674	REC_WORD	8.759	n/a	ELBOW	n/a	-999	13	[0, 0, 0]	n/a	catFR1	1	R1157C
1417.682	1.894	710300	REC_END	n/a	n/a	n/a	n/a	-999	13	[0, 0, 0]	n/a	catFR1	1	R1157C
1419.576	0.0	711247	TRIAL	n/a	n/a	n/a	n/a	-999	14	[0, 0, 0]	n/a	catFR1	1	R1157C
1419.576	10.0	711247	COUNTDOWN_START	n/a	n/a	n/a	n/a	-999	14	[0, 0, 0]	n/a	catFR1	1	R1157C
1430.004	0.007	716460	COUNTDOWN_END	n/a	n/a	n/a	n/a	-999	14	[0, 0, 0]	n/a	catFR1	1	R1157C
1430.011	1.6	716464	ORIENT	n/a	n/a	n/a	n/a	-999	14	[0, 0, 0]	n/a	catFR1	1	R1157C
1433.678	1.6	718297	WORD	n/a	wordpools/wordpool_categorized_EN.txt	CHEETAH	Zoo	1	14	[0, 0, 0]	n/a	catFR1	1	R1157C
1436.296	1.6	719606	WORD	n/a	wordpools/wordpool_categorized_EN.txt	MONKEY	Zoo	2	14	[0, 0, 0]	n/a	catFR1	1	R1157C
1438.879	1.6	720897	WORD	n/a	wordpools/wordpool_categorized_EN.txt	BEETLE	Insects	3	14	[0, 0, 0]	n/a	catFR1	1	R1157C
1441.395	1.6	722155	WORD	n/a	wordpools/wordpool_categorized_EN.txt	ANT	Insects	4	14	[0, 0, 0]	n/a	catFR1	1	R1157C
1443.78	1.6	723348	WORD	n/a	wordpools/wordpool_categorized_EN.txt	DOLPHIN	OceanAnimals	5	14	[0, 0, 0]	n/a	catFR1	1	R1157C
1446.396	1.6	724656	WORD	n/a	wordpools/wordpool_categorized_EN.txt	LOBSTER	OceanAnimals	6	14	[0, 0, 0]	n/a	catFR1	1	R1157C
1448.931	1.6	725923	WORD	n/a	wordpools/wordpool_categorized_EN.txt	FLY	Insects	7	14	[0, 0, 0]	n/a	catFR1	1	R1157C
1451.315	1.6	727115	WORD	n/a	wordpools/wordpool_categorized_EN.txt	GNAT	Insects	8	14	[0, 0, 0]	n/a	catFR1	1	R1157C
1453.749	1.6	728332	WORD	n/a	wordpools/wordpool_categorized_EN.txt	GIRAFFE	Zoo	9	14	[0, 0, 0]	n/a	catFR1	1	R1157C
1456.149	1.6	729532	WORD	n/a	wordpools/wordpool_categorized_EN.txt	TIGER	Zoo	10	14	[0, 0, 0]	n/a	catFR1	1	R1157C
1458.766	1.6	730840	WORD	n/a	wordpools/wordpool_categorized_EN.txt	WHALE	OceanAnimals	11	14	[0, 0, 0]	n/a	catFR1	1	R1157C
1461.167	1.6	732040	WORD	n/a	wordpools/wordpool_categorized_EN.txt	SQUID	OceanAnimals	12	14	[0, 0, 0]	n/a	catFR1	1	R1157C
1462.784	0.001	732849	DISTRACT_START	n/a	n/a	n/a	n/a	-999	14	[0, 0, 0]	n/a	catFR1	1	R1157C
1462.785	0.015	732849	START	n/a	n/a	n/a	n/a	-999	14	[-999, -999, -999]	n/a	catFR1	1	R1157C
1462.8	6.168	732857	PROB	6.136	n/a	n/a	n/a	-999	14	[8, 9, 9]	26.0	catFR1	1	R1157C
1468.968	2.768	735941	PROB	2.744	n/a	n/a	n/a	-999	14	[6, 2, 5]	13.0	catFR1	1	R1157C
1471.736	4.6	737324	PROB	4.576	n/a	n/a	n/a	-999	14	[4, 5, 9]	18.0	catFR1	1	R1157C
1476.336	2.951	739624	PROB	2.928	n/a	n/a	n/a	-999	14	[5, 3, 1]	9.0	catFR1	1	R1157C
1479.287	4.433	741100	PROB	4.433	n/a	n/a	n/a	-999	14	[7, 6, 9]	24.0	catFR1	1	R1157C
1483.72	0.018	743316	STOP	n/a	n/a	n/a	n/a	-999	14	[-999, -999, -999]	n/a	catFR1	1	R1157C
1483.738	1.184	743325	DISTRACT_END	n/a	n/a	n/a	n/a	-999	14	[0, 0, 0]	n/a	catFR1	1	R1157C
1484.922	2.644	743917	REC_START	n/a	n/a	n/a	n/a	-999	14	[0, 0, 0]	n/a	catFR1	1	R1157C
1487.566	0.665	745239	REC_WORD	2.644	n/a	DOLPHIN	OceanAnimals	5	14	[0, 0, 0]	n/a	catFR1	1	R1157C
1488.231	1.584	745571	REC_WORD	3.309	n/a	WHALE	OceanAnimals	11	14	[0, 0, 0]	n/a	catFR1	1	R1157C
1489.815	1.435	746363	REC_WORD	4.893	n/a	CHEETAH	Zoo	1	14	[0, 0, 0]	n/a	catFR1	1	R1157C
1491.25	1.822	747081	REC_WORD	6.328	n/a	TIGER	Zoo	10	14	[0, 0, 0]	n/a	catFR1	1	R1157C
1493.072	1.256	747991	REC_WORD	8.15	n/a	MONKEY	Zoo	2	14	[0, 0, 0]	n/a	catFR1	1	R1157C
1494.328	0.764	748619	REC_WORD	9.406	n/a	ANT	Insects	4	14	[0, 0, 0]	n/a	catFR1	1	R1157C
1495.092	9.689	749001	REC_WORD	10.17	n/a	GNAT	Insects	8	14	[0, 0, 0]	n/a	catFR1	1	R1157C
1504.781	5.2	753845	REC_WORD	19.859	n/a	FLY	Insects	7	14	[0, 0, 0]	n/a	catFR1	1	R1157C
1509.981	4.953	756445	REC_WORD	25.059	n/a	GIRAFFE	Zoo	9	14	[0, 0, 0]	n/a	catFR1	1	R1157C
1514.934	1.843	758922	REC_END	n/a	n/a	n/a	n/a	-999	14	[0, 0, 0]	n/a	catFR1	1	R1157C
1516.777	0.0	759843	TRIAL	n/a	n/a	n/a	n/a	-999	15	[0, 0, 0]	n/a	catFR1	1	R1157C
1516.777	10.0	759843	COUNTDOWN_START	n/a	n/a	n/a	n/a	-999	15	[0, 0, 0]	n/a	catFR1	1	R1157C
1527.205	0.008	765056	COUNTDOWN_END	n/a	n/a	n/a	n/a	-999	15	[0, 0, 0]	n/a	catFR1	1	R1157C
1527.213	1.6	765060	ORIENT	n/a	n/a	n/a	n/a	-999	15	[0, 0, 0]	n/a	catFR1	1	R1157C
1530.68	1.6	766794	WORD	n/a	wordpools/wordpool_categorized_EN.txt	FOG	Weather	1	15	[0, 0, 0]	n/a	catFR1	1	R1157C
1533.097	1.6	768002	WORD	n/a	wordpools/wordpool_categorized_EN.txt	THUNDERSTORM	Weather	2	15	[0, 0, 0]	n/a	catFR1	1	R1157C
1535.496	1.6	769202	WORD	n/a	wordpools/wordpool_categorized_EN.txt	RADIO	Electronics	3	15	[0, 0, 0]	n/a	catFR1	1	R1157C
1538.031	1.6	770469	WORD	n/a	wordpools/wordpool_categorized_EN.txt	MICROWAVE	Electronics	4	15	[0, 0, 0]	n/a	catFR1	1	R1157C
1540.481	1.6	771694	WORD	n/a	wordpools/wordpool_categorized_EN.txt	PLUM	Fruit	5	15	[0, 0, 0]	n/a	catFR1	1	R1157C
1542.882	1.6	772894	WORD	n/a	wordpools/wordpool_categorized_EN.txt	ORANGE	Fruit	6	15	[0, 0, 0]	n/a	catFR1	1	R1157C
1545.333	1.6	774120	WORD	n/a	wordpools/wordpool_categorized_EN.txt	TELEVISION	Electronics	7	15	[0, 0, 0]	n/a	catFR1	1	R1157C
1547.833	1.6	775370	WORD	n/a	wordpools/wordpool_categorized_EN.txt	STEREO	Electronics	8	15	[0, 0, 0]	n/a	catFR1	1	R1157C
1550.433	1.6	776669	WORD	n/a	wordpools/wordpool_categorized_EN.txt	THUNDER	Weather	9	15	[0, 0, 0]	n/a	catFR1	1	R1157C
1552.934	1.6	777920	WORD	n/a	wordpools/wordpool_categorized_EN.txt	HUMIDITY	Weather	10	15	[0, 0, 0]	n/a	catFR1	1	R1157C
1555.351	1.6	779128	WORD	n/a	wordpools/wordpool_categorized_EN.txt	BLUEBERRY	Fruit	11	15	[0, 0, 0]	n/a	catFR1	1	R1157C
1557.852	1.6	780379	WORD	n/a	wordpools/wordpool_categorized_EN.txt	APPLE	Fruit	12	15	[0, 0, 0]	n/a	catFR1	1	R1157C
1559.468	0.001	781187	DISTRACT_START	n/a	n/a	n/a	n/a	-999	15	[0, 0, 0]	n/a	catFR1	1	R1157C
1559.469	0.015	781187	START	n/a	n/a	n/a	n/a	-999	15	[-999, -999, -999]	n/a	catFR1	1	R1157C
1559.484	3.118	781195	PROB	3.083	n/a	n/a	n/a	-999	15	[3, 1, 4]	8.0	catFR1	1	R1157C
1562.602	6.301	782753	PROB	6.278	n/a	n/a	n/a	-999	15	[5, 9, 6]	20.0	catFR1	1	R1157C
1568.903	2.6	785904	PROB	2.568	n/a	n/a	n/a	-999	15	[1, 7, 3]	11.0	catFR1	1	R1157C
1571.503	2.917	787204	PROB	2.896	n/a	n/a	n/a	-999	15	[3, 8, 3]	14.0	catFR1	1	R1157C
1574.42	3.219	788662	PROB	3.188	n/a	n/a	n/a	-999	15	[8, 2, 8]	18.0	catFR1	1	R1157C
1577.639	3.345	790271	PROB	3.345	n/a	n/a	n/a	-999	15	[4, 8, 4]	16.0	catFR1	1	R1157C
1580.984	0.005	791944	STOP	n/a	n/a	n/a	n/a	-999	15	[-999, -999, -999]	n/a	catFR1	1	R1157C
1580.989	1.068	791946	DISTRACT_END	n/a	n/a	n/a	n/a	-999	15	[0, 0, 0]	n/a	catFR1	1	R1157C
1582.057	1.523	792480	REC_START	n/a	n/a	n/a	n/a	-999	15	[0, 0, 0]	n/a	catFR1	1	R1157C
1583.58	0.573	793241	REC_WORD	1.523	n/a	THUNDER	Weather	9	15	[0, 0, 0]	n/a	catFR1	1	R1157C
1584.153	0.722	793528	REC_WORD	2.096	n/a	THUNDERSTORM	Weather	2	15	[0, 0, 0]	n/a	catFR1	1	R1157C
1584.875	0.594	793889	REC_WORD	2.818	n/a	FOG	Weather	1	15	[0, 0, 0]	n/a	catFR1	1	R1157C
1585.469	6.36	794186	REC_WORD	3.412	n/a	HUMIDITY	Weather	10	15	[0, 0, 0]	n/a	catFR1	1	R1157C
1591.829	4.647	797366	REC_WORD	9.772	n/a	BLUEBERRY	Fruit	11	15	[0, 0, 0]	n/a	catFR1	1	R1157C
1596.476	12.096	799689	REC_WORD	14.419	n/a	PEACH	n/a	-999	15	[0, 0, 0]	n/a	catFR1	1	R1157C
1608.572	3.496	805736	REC_WORD	26.515	n/a	STEREO	Electronics	8	15	[0, 0, 0]	n/a	catFR1	1	R1157C
1612.068	1.677	807484	REC_END	n/a	n/a	n/a	n/a	-999	15	[0, 0, 0]	n/a	catFR1	1	R1157C
1613.745	10.0	808323	COUNTDOWN_START	n/a	n/a	n/a	n/a	-999	16	[0, 0, 0]	n/a	catFR1	1	R1157C
1613.746	10.427	808323	TRIAL	n/a	n/a	n/a	n/a	-999	16	[0, 0, 0]	n/a	catFR1	1	R1157C
1624.173	0.008	813536	COUNTDOWN_END	n/a	n/a	n/a	n/a	-999	16	[0, 0, 0]	n/a	catFR1	1	R1157C
1624.181	1.6	813540	ORIENT	n/a	n/a	n/a	n/a	-999	16	[0, 0, 0]	n/a	catFR1	1	R1157C
1627.931	1.6	815415	WORD	n/a	wordpools/wordpool_categorized_EN.txt	CUPCAKE	Desserts	1	16	[0, 0, 0]	n/a	catFR1	1	R1157C
1630.498	1.6	816698	WORD	n/a	wordpools/wordpool_categorized_EN.txt	COOKIE	Desserts	2	16	[0, 0, 0]	n/a	catFR1	1	R1157C
1633.116	1.6	818007	WORD	n/a	wordpools/wordpool_categorized_EN.txt	BEACH	Landscapes	3	16	[0, 0, 0]	n/a	catFR1	1	R1157C
1635.75	1.6	819324	WORD	n/a	wordpools/wordpool_categorized_EN.txt	OCEAN	Landscapes	4	16	[0, 0, 0]	n/a	catFR1	1	R1157C
1638.2	1.6	820549	WORD	n/a	wordpools/wordpool_categorized_EN.txt	SHEEP	FarmAnimals	5	16	[0, 0, 0]	n/a	catFR1	1	R1157C
1640.734	1.6	821816	WORD	n/a	wordpools/wordpool_categorized_EN.txt	TURKEY	FarmAnimals	6	16	[0, 0, 0]	n/a	catFR1	1	R1157C
1643.234	1.6	823066	WORD	n/a	wordpools/wordpool_categorized_EN.txt	BROWNIES	Desserts	7	16	[0, 0, 0]	n/a	catFR1	1	R1157C
1645.701	1.6	824299	WORD	n/a	wordpools/wordpool_categorized_EN.txt	PASTRY	Desserts	8	16	[0, 0, 0]	n/a	catFR1	1	R1157C
1648.185	1.6	825541	WORD	n/a	wordpools/wordpool_categorized_EN.txt	ROOSTER	FarmAnimals	9	16	[0, 0, 0]	n/a	catFR1	1	R1157C
1650.586	1.6	826742	WORD	n/a	wordpools/wordpool_categorized_EN.txt	CALF	FarmAnimals	10	16	[0, 0, 0]	n/a	catFR1	1	R1157C
1653.053	1.6	827975	WORD	n/a	wordpools/wordpool_categorized_EN.txt	STREAM	Landscapes	11	16	[0, 0, 0]	n/a	catFR1	1	R1157C
1655.552	1.6	829224	WORD	n/a	wordpools/wordpool_categorized_EN.txt	MOUNTAIN	Landscapes	12	16	[0, 0, 0]	n/a	catFR1	1	R1157C
1657.153	0.002	830025	DISTRACT_START	n/a	n/a	n/a	n/a	-999	16	[0, 0, 0]	n/a	catFR1	1	R1157C
1657.155	0.015	830026	START	n/a	n/a	n/a	n/a	-999	16	[-999, -999, -999]	n/a	catFR1	1	R1157C
1657.17	4.901	830033	PROB	4.87	n/a	n/a	n/a	-999	16	[9, 4, 9]	22.0	catFR1	1	R1157C
1662.071	2.267	832483	PROB	2.233	n/a	n/a	n/a	-999	16	[1, 9, 1]	11.0	catFR1	1	R1157C
1664.338	3.384	833617	PROB	3.35	n/a	n/a	n/a	-999	16	[1, 4, 5]	10.0	catFR1	1	R1157C
1667.722	3.084	835309	PROB	3.062	n/a	n/a	n/a	-999	16	[5, 5, 4]	14.0	catFR1	1	R1157C
1670.806	3.784	836851	PROB	3.753	n/a	n/a	n/a	-999	16	[8, 5, 9]	22.0	catFR1	1	R1157C
1674.59	3.674	838742	PROB	3.674	n/a	n/a	n/a	-999	16	[6, 6, 9]	24.0	catFR1	1	R1157C
1678.264	0.01	840579	STOP	n/a	n/a	n/a	n/a	-999	16	[-999, -999, -999]	n/a	catFR1	1	R1157C
1678.274	1.2	840584	DISTRACT_END	n/a	n/a	n/a	n/a	-999	16	[0, 0, 0]	n/a	catFR1	1	R1157C
1679.474	5.523	841184	REC_START	n/a	n/a	n/a	n/a	-999	16	[0, 0, 0]	n/a	catFR1	1	R1157C
1684.997	1.324	843945	REC_WORD	5.523	n/a	CUPCAKE	Desserts	1	16	[0, 0, 0]	n/a	catFR1	1	R1157C
1686.321	1.187	844607	REC_WORD	6.847	n/a	COOKIE	Desserts	2	16	[0, 0, 0]	n/a	catFR1	1	R1157C
1687.508	1.297	845201	REC_WORD	8.034	n/a	OCEAN	Landscapes	4	16	[0, 0, 0]	n/a	catFR1	1	R1157C
1688.805	8.123	845849	REC_WORD	9.331	n/a	BEACH	Landscapes	3	16	[0, 0, 0]	n/a	catFR1	1	R1157C
1696.928	12.557	849910	REC_WORD	17.454	n/a	MOUNTAIN	Landscapes	12	16	[0, 0, 0]	n/a	catFR1	1	R1157C
1709.485	1.961	856188	REC_END	n/a	n/a	n/a	n/a	-999	16	[0, 0, 0]	n/a	catFR1	1	R1157C
1711.446	0.0	857169	TRIAL	n/a	n/a	n/a	n/a	-999	17	[0, 0, 0]	n/a	catFR1	1	R1157C
1711.446	10.0	857169	COUNTDOWN_START	n/a	n/a	n/a	n/a	-999	17	[0, 0, 0]	n/a	catFR1	1	R1157C
1721.874	0.008	862382	COUNTDOWN_END	n/a	n/a	n/a	n/a	-999	17	[0, 0, 0]	n/a	catFR1	1	R1157C
1721.882	1.6	862386	ORIENT	n/a	n/a	n/a	n/a	-999	17	[0, 0, 0]	n/a	catFR1	1	R1157C
1725.816	1.6	864353	WORD	n/a	wordpools/wordpool_categorized_EN.txt	WILLOW	Trees	1	17	[0, 0, 0]	n/a	catFR1	1	R1157C
1728.267	1.6	865579	WORD	n/a	wordpools/wordpool_categorized_EN.txt	BIRCH	Trees	2	17	[0, 0, 0]	n/a	catFR1	1	R1157C
1730.751	1.6	866820	WORD	n/a	wordpools/wordpool_categorized_EN.txt	CHEESECAKE	Desserts	3	17	[0, 0, 0]	n/a	catFR1	1	R1157C
1733.268	1.6	868079	WORD	n/a	wordpools/wordpool_categorized_EN.txt	PIE	Desserts	4	17	[0, 0, 0]	n/a	catFR1	1	R1157C
1735.685	1.6	869287	WORD	n/a	wordpools/wordpool_categorized_EN.txt	CUCUMBER	Vegetables	5	17	[0, 0, 0]	n/a	catFR1	1	R1157C
1738.152	1.6	870521	WORD	n/a	wordpools/wordpool_categorized_EN.txt	CORN	Vegetables	6	17	[0, 0, 0]	n/a	catFR1	1	R1157C
1740.686	1.6	871788	WORD	n/a	wordpools/wordpool_categorized_EN.txt	MAPLE	Trees	7	17	[0, 0, 0]	n/a	catFR1	1	R1157C
1743.303	1.6	873096	WORD	n/a	wordpools/wordpool_categorized_EN.txt	ELM	Trees	8	17	[0, 0, 0]	n/a	catFR1	1	R1157C
1745.887	1.6	874388	WORD	n/a	wordpools/wordpool_categorized_EN.txt	PEAS	Vegetables	9	17	[0, 0, 0]	n/a	catFR1	1	R1157C
1748.287	1.6	875588	WORD	n/a	wordpools/wordpool_categorized_EN.txt	CARROT	Vegetables	10	17	[0, 0, 0]	n/a	catFR1	1	R1157C
1750.671	1.6	876780	WORD	n/a	wordpools/wordpool_categorized_EN.txt	FUDGE	Desserts	11	17	[0, 0, 0]	n/a	catFR1	1	R1157C
1753.172	1.6	878030	WORD	n/a	wordpools/wordpool_categorized_EN.txt	JELLO	Desserts	12	17	[0, 0, 0]	n/a	catFR1	1	R1157C
1754.788	0.001	878838	DISTRACT_START	n/a	n/a	n/a	n/a	-999	17	[0, 0, 0]	n/a	catFR1	1	R1157C
1754.789	0.016	878838	START	n/a	n/a	n/a	n/a	-999	17	[-999, -999, -999]	n/a	catFR1	1	R1157C
1754.805	3.084	878846	PROB	3.051	n/a	n/a	n/a	-999	17	[1, 5, 5]	11.0	catFR1	1	R1157C
1757.889	2.566	880388	PROB	2.534	n/a	n/a	n/a	-999	17	[6, 2, 2]	10.0	catFR1	1	R1157C
1760.455	2.485	881671	PROB	2.449	n/a	n/a	n/a	-999	17	[1, 3, 1]	5.0	catFR1	1	R1157C
1762.94	3.917	882914	PROB	3.892	n/a	n/a	n/a	-999	17	[7, 6, 2]	15.0	catFR1	1	R1157C
1766.857	2.418	884872	PROB	2.382	n/a	n/a	n/a	-999	17	[5, 3, 2]	10.0	catFR1	1	R1157C
1769.275	3.684	886081	PROB	3.661	n/a	n/a	n/a	-999	17	[6, 5, 5]	16.0	catFR1	1	R1157C
1772.959	3.985	887923	PROB	3.985	n/a	n/a	n/a	-999	17	[9, 2, 2]	13.0	catFR1	1	R1157C
1776.944	0.015	889915	STOP	n/a	n/a	n/a	n/a	-999	17	[-999, -999, -999]	n/a	catFR1	1	R1157C
1776.959	1.168	889922	DISTRACT_END	n/a	n/a	n/a	n/a	-999	17	[0, 0, 0]	n/a	catFR1	1	R1157C
1778.127	7.492	890506	REC_START	n/a	n/a	n/a	n/a	-999	17	[0, 0, 0]	n/a	catFR1	1	R1157C
1785.619	0.655	894252	REC_WORD	7.492	n/a	CUCUMBER	Vegetables	5	17	[0, 0, 0]	n/a	catFR1	1	R1157C
1786.274	10.264	894579	REC_WORD	8.147	n/a	CORN	Vegetables	6	17	[0, 0, 0]	n/a	catFR1	1	R1157C
1796.538	11.6	899711	REC_WORD	18.411	n/a	WILLOW	Trees	1	17	[0, 0, 0]	n/a	catFR1	1	R1157C
1808.138	2.228	905511	REC_END	n/a	n/a	n/a	n/a	-999	17	[0, 0, 0]	n/a	catFR1	1	R1157C
1810.366	0.0	906624	TRIAL	n/a	n/a	n/a	n/a	-999	18	[0, 0, 0]	n/a	catFR1	1	R1157C
1810.366	10.0	906624	COUNTDOWN_START	n/a	n/a	n/a	n/a	-999	18	[0, 0, 0]	n/a	catFR1	1	R1157C
1820.794	0.007	911838	COUNTDOWN_END	n/a	n/a	n/a	n/a	-999	18	[0, 0, 0]	n/a	catFR1	1	R1157C
1820.801	1.6	911841	ORIENT	n/a	n/a	n/a	n/a	-999	18	[0, 0, 0]	n/a	catFR1	1	R1157C
1824.651	1.6	913766	WORD	n/a	wordpools/wordpool_categorized_EN.txt	COMPUTER	Electronics	1	18	[0, 0, 0]	n/a	catFR1	1	R1157C
1827.085	1.6	914983	WORD	n/a	wordpools/wordpool_categorized_EN.txt	TABLET	Electronics	2	18	[0, 0, 0]	n/a	catFR1	1	R1157C
1829.586	1.6	916234	WORD	n/a	wordpools/wordpool_categorized_EN.txt	SPINACH	Vegetables	3	18	[0, 0, 0]	n/a	catFR1	1	R1157C
1832.086	1.6	917483	WORD	n/a	wordpools/wordpool_categorized_EN.txt	LETTUCE	Vegetables	4	18	[0, 0, 0]	n/a	catFR1	1	R1157C
1834.536	1.6	918708	WORD	n/a	wordpools/wordpool_categorized_EN.txt	FINGERS	BodyParts	5	18	[0, 0, 0]	n/a	catFR1	1	R1157C
1837.121	1.6	920001	WORD	n/a	wordpools/wordpool_categorized_EN.txt	HEAD	BodyParts	6	18	[0, 0, 0]	n/a	catFR1	1	R1157C
1839.721	1.6	921301	WORD	n/a	wordpools/wordpool_categorized_EN.txt	ONION	Vegetables	7	18	[0, 0, 0]	n/a	catFR1	1	R1157C
1842.238	1.6	922559	WORD	n/a	wordpools/wordpool_categorized_EN.txt	CABBAGE	Vegetables	8	18	[0, 0, 0]	n/a	catFR1	1	R1157C
1844.755	1.6	923817	WORD	n/a	wordpools/wordpool_categorized_EN.txt	PRINTER	Electronics	9	18	[0, 0, 0]	n/a	catFR1	1	R1157C
1847.306	1.6	925093	WORD	n/a	wordpools/wordpool_categorized_EN.txt	HEADPHONES	Electronics	10	18	[0, 0, 0]	n/a	catFR1	1	R1157C
1849.74	1.6	926310	WORD	n/a	wordpools/wordpool_categorized_EN.txt	EAR	BodyParts	11	18	[0, 0, 0]	n/a	catFR1	1	R1157C
1852.323	1.6	927601	WORD	n/a	wordpools/wordpool_categorized_EN.txt	ARM	BodyParts	12	18	[0, 0, 0]	n/a	catFR1	1	R1157C
1853.94	0.001	928410	DISTRACT_START	n/a	n/a	n/a	n/a	-999	18	[0, 0, 0]	n/a	catFR1	1	R1157C
1853.941	0.016	928410	START	n/a	n/a	n/a	n/a	-999	18	[-999, -999, -999]	n/a	catFR1	1	R1157C
1853.957	7.918	928418	PROB	7.883	n/a	n/a	n/a	-999	18	[9, 7, 6]	22.0	catFR1	1	R1157C
1861.875	2.734	932377	PROB	2.701	n/a	n/a	n/a	-999	18	[8, 7, 1]	16.0	catFR1	1	R1157C
1864.609	3.401	933744	PROB	3.367	n/a	n/a	n/a	-999	18	[6, 2, 7]	15.0	catFR1	1	R1157C
1868.01	3.234	935444	PROB	3.198	n/a	n/a	n/a	-999	18	[8, 7, 4]	19.0	catFR1	1	R1157C
1871.244	3.012	937061	PROB	3.012	n/a	n/a	n/a	-999	18	[6, 1, 1]	8.0	catFR1	1	R1157C
1874.256	0.005	938567	STOP	n/a	n/a	n/a	n/a	-999	18	[-999, -999, -999]	n/a	catFR1	1	R1157C
1874.261	1.15	938569	DISTRACT_END	n/a	n/a	n/a	n/a	-999	18	[0, 0, 0]	n/a	catFR1	1	R1157C
1875.411	0.346	939144	REC_START	n/a	n/a	n/a	n/a	-999	18	[0, 0, 0]	n/a	catFR1	1	R1157C
1875.757	0.449	939317	REC_WORD	0.346	n/a	COMPUTER	Electronics	1	18	[0, 0, 0]	n/a	catFR1	1	R1157C
1876.206	2.089	939542	REC_WORD	0.795	n/a	TABLET	Electronics	2	18	[0, 0, 0]	n/a	catFR1	1	R1157C
1878.295	6.432	940586	REC_WORD	2.884	n/a	ONION	Vegetables	7	18	[0, 0, 0]	n/a	catFR1	1	R1157C
1884.727	2.299	943802	REC_WORD	9.316	n/a	CABBAGE	Vegetables	8	18	[0, 0, 0]	n/a	catFR1	1	R1157C
1887.026	18.397	944951	REC_WORD	11.615	n/a	SPINACH	Vegetables	3	18	[0, 0, 0]	n/a	catFR1	1	R1157C
1905.423	1.894	954149	REC_END	n/a	n/a	n/a	n/a	-999	18	[0, 0, 0]	n/a	catFR1	1	R1157C
1907.317	0.0	955096	TRIAL	n/a	n/a	n/a	n/a	-999	19	[0, 0, 0]	n/a	catFR1	1	R1157C
1907.317	10.0	955096	COUNTDOWN_START	n/a	n/a	n/a	n/a	-999	19	[0, 0, 0]	n/a	catFR1	1	R1157C
1917.745	0.007	960309	COUNTDOWN_END	n/a	n/a	n/a	n/a	-999	19	[0, 0, 0]	n/a	catFR1	1	R1157C
1917.752	1.6	960313	ORIENT	n/a	n/a	n/a	n/a	-999	19	[0, 0, 0]	n/a	catFR1	1	R1157C
1921.535	1.6	962204	WORD	n/a	wordpools/wordpool_categorized_EN.txt	SHOES	Clothing	1	19	[0, 0, 0]	n/a	catFR1	1	R1157C
1923.954	1.6	963413	WORD	n/a	wordpools/wordpool_categorized_EN.txt	SKIRT	Clothing	2	19	[0, 0, 0]	n/a	catFR1	1	R1157C
1926.47	1.6	964671	WORD	n/a	wordpools/wordpool_categorized_EN.txt	VAN	Vehicles	3	19	[0, 0, 0]	n/a	catFR1	1	R1157C
1929.105	1.6	965989	WORD	n/a	wordpools/wordpool_categorized_EN.txt	TRUCK	Vehicles	4	19	[0, 0, 0]	n/a	catFR1	1	R1157C
1931.688	1.6	967280	WORD	n/a	wordpools/wordpool_categorized_EN.txt	PENCIL	OfficeSupplies	5	19	[0, 0, 0]	n/a	catFR1	1	R1157C
1934.322	1.6	968597	WORD	n/a	wordpools/wordpool_categorized_EN.txt	PEN	OfficeSupplies	6	19	[0, 0, 0]	n/a	catFR1	1	R1157C
1936.789	1.6	969830	WORD	n/a	wordpools/wordpool_categorized_EN.txt	SOCKS	Clothing	7	19	[0, 0, 0]	n/a	catFR1	1	R1157C
1939.323	1.6	971097	WORD	n/a	wordpools/wordpool_categorized_EN.txt	SHORTS	Clothing	8	19	[0, 0, 0]	n/a	catFR1	1	R1157C
1941.874	1.6	972373	WORD	n/a	wordpools/wordpool_categorized_EN.txt	GLUE	OfficeSupplies	9	19	[0, 0, 0]	n/a	catFR1	1	R1157C
1944.291	1.6	973581	WORD	n/a	wordpools/wordpool_categorized_EN.txt	PAPER	OfficeSupplies	10	19	[0, 0, 0]	n/a	catFR1	1	R1157C
1946.741	1.6	974806	WORD	n/a	wordpools/wordpool_categorized_EN.txt	SCOOTER	Vehicles	11	19	[0, 0, 0]	n/a	catFR1	1	R1157C
1949.275	1.6	976073	WORD	n/a	wordpools/wordpool_categorized_EN.txt	BUS	Vehicles	12	19	[0, 0, 0]	n/a	catFR1	1	R1157C
1950.892	0.001	976881	DISTRACT_START	n/a	n/a	n/a	n/a	-999	19	[0, 0, 0]	n/a	catFR1	1	R1157C
1950.893	0.016	976882	START	n/a	n/a	n/a	n/a	-999	19	[-999, -999, -999]	n/a	catFR1	1	R1157C
1950.909	3.384	976890	PROB	3.363	n/a	n/a	n/a	-999	19	[6, 8, 8]	22.0	catFR1	1	R1157C
1954.293	2.983	978582	PROB	2.955	n/a	n/a	n/a	-999	19	[4, 5, 9]	18.0	catFR1	1	R1157C
1957.276	2.768	980073	PROB	2.732	n/a	n/a	n/a	-999	19	[7, 5, 1]	13.0	catFR1	1	R1157C
1960.044	2.0	981457	PROB	1.972	n/a	n/a	n/a	-999	19	[1, 2, 1]	4.0	catFR1	1	R1157C
1962.044	2.349	982457	PROB	2.315	n/a	n/a	n/a	-999	19	[6, 4, 1]	11.0	catFR1	1	R1157C
1964.393	2.435	983631	PROB	2.407	n/a	n/a	n/a	-999	19	[5, 3, 4]	12.0	catFR1	1	R1157C
1966.828	3.801	984849	PROB	3.78	n/a	n/a	n/a	-999	19	[3, 5, 1]	9.0	catFR1	1	R1157C
1970.629	3.179	986749	PROB	3.179	n/a	n/a	n/a	-999	19	[2, 2, 8]	18.0	catFR1	1	R1157C
1973.808	0.005	988338	STOP	n/a	n/a	n/a	n/a	-999	19	[-999, -999, -999]	n/a	catFR1	1	R1157C
1973.813	1.201	988341	DISTRACT_END	n/a	n/a	n/a	n/a	-999	19	[0, 0, 0]	n/a	catFR1	1	R1157C
1975.014	30.0	988941	REC_START	n/a	n/a	n/a	n/a	-999	19	[0, 0, 0]	n/a	catFR1	1	R1157C
2005.014	0.011	1003940	REC_WORD_VV	30.0	n/a	<>	n/a	-999	19	[0, 0, 0]	n/a	catFR1	1	R1157C
2005.025	1.761	1003945	REC_END	n/a	n/a	n/a	n/a	-999	19	[0, 0, 0]	n/a	catFR1	1	R1157C
2006.786	0.0	1004826	TRIAL	n/a	n/a	n/a	n/a	-999	20	[0, 0, 0]	n/a	catFR1	1	R1157C
2006.786	10.0	1004826	COUNTDOWN_START	n/a	n/a	n/a	n/a	-999	20	[0, 0, 0]	n/a	catFR1	1	R1157C
2017.214	0.007	1010039	COUNTDOWN_END	n/a	n/a	n/a	n/a	-999	20	[0, 0, 0]	n/a	catFR1	1	R1157C
2017.221	1.6	1010043	ORIENT	n/a	n/a	n/a	n/a	-999	20	[0, 0, 0]	n/a	catFR1	1	R1157C
2020.938	1.6	1011901	WORD	n/a	wordpools/wordpool_categorized_EN.txt	WRENCH	Tools	1	20	[0, 0, 0]	n/a	catFR1	1	R1157C
2023.505	1.6	1013185	WORD	n/a	wordpools/wordpool_categorized_EN.txt	PLIERS	Tools	2	20	[0, 0, 0]	n/a	catFR1	1	R1157C
2026.106	1.6	1014485	WORD	n/a	wordpools/wordpool_categorized_EN.txt	BEAR	Zoo	3	20	[0, 0, 0]	n/a	catFR1	1	R1157C
2028.707	1.6	1015785	WORD	n/a	wordpools/wordpool_categorized_EN.txt	CHIMPANZEE	Zoo	4	20	[0, 0, 0]	n/a	catFR1	1	R1157C
2031.307	1.6	1017085	WORD	n/a	wordpools/wordpool_categorized_EN.txt	NOTEBOOK	OfficeSupplies	5	20	[0, 0, 0]	n/a	catFR1	1	R1157C
2033.774	1.6	1018319	WORD	n/a	wordpools/wordpool_categorized_EN.txt	ERASER	OfficeSupplies	6	20	[0, 0, 0]	n/a	catFR1	1	R1157C
2036.358	1.6	1019610	WORD	n/a	wordpools/wordpool_categorized_EN.txt	ELEPHANT	Zoo	7	20	[0, 0, 0]	n/a	catFR1	1	R1157C
2038.825	1.6	1020844	WORD	n/a	wordpools/wordpool_categorized_EN.txt	GORILLA	Zoo	8	20	[0, 0, 0]	n/a	catFR1	1	R1157C
2041.292	1.6	1022077	WORD	n/a	wordpools/wordpool_categorized_EN.txt	HAMMER	Tools	9	20	[0, 0, 0]	n/a	catFR1	1	R1157C
2043.693	1.6	1023278	WORD	n/a	wordpools/wordpool_categorized_EN.txt	SHOVEL	Tools	10	20	[0, 0, 0]	n/a	catFR1	1	R1157C
2046.276	1.6	1024569	WORD	n/a	wordpools/wordpool_categorized_EN.txt	MARKER	OfficeSupplies	11	20	[0, 0, 0]	n/a	catFR1	1	R1157C
2048.777	1.6	1025819	WORD	n/a	wordpools/wordpool_categorized_EN.txt	TAPE	OfficeSupplies	12	20	[0, 0, 0]	n/a	catFR1	1	R1157C
2050.393	0.001	1026627	DISTRACT_START	n/a	n/a	n/a	n/a	-999	20	[0, 0, 0]	n/a	catFR1	1	R1157C
2050.394	0.015	1026628	START	n/a	n/a	n/a	n/a	-999	20	[-999, -999, -999]	n/a	catFR1	1	R1157C
2050.409	5.068	1026635	PROB	5.038	n/a	n/a	n/a	-999	20	[4, 9, 4]	17.0	catFR1	1	R1157C
2055.477	2.418	1029169	PROB	2.395	n/a	n/a	n/a	-999	20	[1, 6, 2]	9.0	catFR1	1	R1157C
2057.895	3.784	1030378	PROB	3.761	n/a	n/a	n/a	-999	20	[9, 9, 8]	26.0	catFR1	1	R1157C
2061.679	2.401	1032270	PROB	2.369	n/a	n/a	n/a	-999	20	[3, 1, 5]	9.0	catFR1	1	R1157C
2064.08	2.7	1033470	PROB	2.672	n/a	n/a	n/a	-999	20	[4, 2, 5]	11.0	catFR1	1	R1157C
2066.78	3.501	1034820	PROB	3.468	n/a	n/a	n/a	-999	20	[7, 2, 9]	18.0	catFR1	1	R1157C
2070.281	3.583	1036570	PROB	3.583	n/a	n/a	n/a	-999	20	[6, 6, 6]	18.0	catFR1	1	R1157C
2073.864	0.018	1038362	STOP	n/a	n/a	n/a	n/a	-999	20	[-999, -999, -999]	n/a	catFR1	1	R1157C
2073.882	1.034	1038371	DISTRACT_END	n/a	n/a	n/a	n/a	-999	20	[0, 0, 0]	n/a	catFR1	1	R1157C
2074.916	1.143	1038888	REC_START	n/a	n/a	n/a	n/a	-999	20	[0, 0, 0]	n/a	catFR1	1	R1157C
2076.059	0.657	1039459	REC_WORD	1.143	n/a	BEAR	Zoo	3	20	[0, 0, 0]	n/a	catFR1	1	R1157C
2076.716	1.075	1039788	REC_WORD	1.8	n/a	CHIMPANZEE	Zoo	4	20	[0, 0, 0]	n/a	catFR1	1	R1157C
2077.791	2.385	1040325	REC_WORD	2.875	n/a	GORILLA	Zoo	8	20	[0, 0, 0]	n/a	catFR1	1	R1157C
2080.176	0.765	1041517	REC_WORD	5.26	n/a	ERASER	OfficeSupplies	6	20	[0, 0, 0]	n/a	catFR1	1	R1157C
2080.941	23.986	1041900	REC_WORD	6.025	n/a	NOTEBOOK	OfficeSupplies	5	20	[0, 0, 0]	n/a	catFR1	1	R1157C
2104.927	2.094	1053892	REC_END	n/a	n/a	n/a	n/a	-999	20	[0, 0, 0]	n/a	catFR1	1	R1157C
2107.021	0.0	1054939	TRIAL	n/a	n/a	n/a	n/a	-999	21	[0, 0, 0]	n/a	catFR1	1	R1157C
2107.021	10.0	1054939	COUNTDOWN_START	n/a	n/a	n/a	n/a	-999	21	[0, 0, 0]	n/a	catFR1	1	R1157C
2117.449	0.007	1060152	COUNTDOWN_END	n/a	n/a	n/a	n/a	-999	21	[0, 0, 0]	n/a	catFR1	1	R1157C
2117.456	1.6	1060156	ORIENT	n/a	n/a	n/a	n/a	-999	21	[0, 0, 0]	n/a	catFR1	1	R1157C
2121.257	1.6	1062056	WORD	n/a	wordpools/wordpool_categorized_EN.txt	PANDA	Zoo	1	21	[0, 0, 0]	n/a	catFR1	1	R1157C
2123.741	1.6	1063298	WORD	n/a	wordpools/wordpool_categorized_EN.txt	LION	Zoo	2	21	[0, 0, 0]	n/a	catFR1	1	R1157C
2126.325	1.6	1064590	WORD	n/a	wordpools/wordpool_categorized_EN.txt	HURRICANE	Weather	3	21	[0, 0, 0]	n/a	catFR1	1	R1157C
2128.942	1.6	1065898	WORD	n/a	wordpools/wordpool_categorized_EN.txt	DRIZZLE	Weather	4	21	[0, 0, 0]	n/a	catFR1	1	R1157C
2131.508	1.6	1067181	WORD	n/a	wordpools/wordpool_categorized_EN.txt	WALNUT	Trees	5	21	[0, 0, 0]	n/a	catFR1	1	R1157C
2133.926	1.6	1068390	WORD	n/a	wordpools/wordpool_categorized_EN.txt	CEDAR	Trees	6	21	[0, 0, 0]	n/a	catFR1	1	R1157C
2136.459	1.6	1069657	WORD	n/a	wordpools/wordpool_categorized_EN.txt	ZEBRA	Zoo	7	21	[0, 0, 0]	n/a	catFR1	1	R1157C
2138.844	1.6	1070849	WORD	n/a	wordpools/wordpool_categorized_EN.txt	ORANGUTAN	Zoo	8	21	[0, 0, 0]	n/a	catFR1	1	R1157C
2141.278	1.6	1072066	WORD	n/a	wordpools/wordpool_categorized_EN.txt	HICKORY	Trees	9	21	[0, 0, 0]	n/a	catFR1	1	R1157C
2143.678	1.6	1073266	WORD	n/a	wordpools/wordpool_categorized_EN.txt	OAK	Trees	10	21	[0, 0, 0]	n/a	catFR1	1	R1157C
2146.211	1.6	1074532	WORD	n/a	wordpools/wordpool_categorized_EN.txt	LIGHTNING	Weather	11	21	[0, 0, 0]	n/a	catFR1	1	R1157C
2148.679	1.6	1075766	WORD	n/a	wordpools/wordpool_categorized_EN.txt	RAIN	Weather	12	21	[0, 0, 0]	n/a	catFR1	1	R1157C
2150.296	0.001	1076574	DISTRACT_START	n/a	n/a	n/a	n/a	-999	21	[0, 0, 0]	n/a	catFR1	1	R1157C
2150.297	0.016	1076575	START	n/a	n/a	n/a	n/a	-999	21	[-999, -999, -999]	n/a	catFR1	1	R1157C
2150.313	4.584	1076583	PROB	4.551	n/a	n/a	n/a	-999	21	[7, 8, 3]	18.0	catFR1	1	R1157C
2154.897	3.267	1078875	PROB	3.231	n/a	n/a	n/a	-999	21	[8, 9, 3]	20.0	catFR1	1	R1157C
2158.164	3.001	1080508	PROB	2.964	n/a	n/a	n/a	-999	21	[4, 8, 4]	16.0	catFR1	1	R1157C
2161.165	2.984	1082008	PROB	2.955	n/a	n/a	n/a	-999	21	[7, 2, 9]	18.0	catFR1	1	R1157C
2164.149	3.249	1083500	PROB	3.219	n/a	n/a	n/a	-999	21	[1, 1, 4]	6.0	catFR1	1	R1157C
2167.398	5.97	1085125	PROB	5.97	n/a	n/a	n/a	-999	21	[9, 4, 6]	19.0	catFR1	1	R1157C
2173.368	0.015	1088109	STOP	n/a	n/a	n/a	n/a	-999	21	[-999, -999, -999]	n/a	catFR1	1	R1157C
2173.383	1.151	1088117	DISTRACT_END	n/a	n/a	n/a	n/a	-999	21	[0, 0, 0]	n/a	catFR1	1	R1157C
2174.534	0.572	1088692	REC_START	n/a	n/a	n/a	n/a	-999	21	[0, 0, 0]	n/a	catFR1	1	R1157C
2175.106	0.534	1088978	REC_WORD	0.572	n/a	DRIZZLE	Weather	4	21	[0, 0, 0]	n/a	catFR1	1	R1157C
2175.64	0.381	1089245	REC_WORD	1.106	n/a	RAIN	Weather	12	21	[0, 0, 0]	n/a	catFR1	1	R1157C
2176.021	1.112	1089436	REC_WORD	1.487	n/a	HURRICANE	Weather	3	21	[0, 0, 0]	n/a	catFR1	1	R1157C
2177.133	7.441	1089992	REC_WORD	2.599	n/a	LIGHTNING	Weather	11	21	[0, 0, 0]	n/a	catFR1	1	R1157C
2184.574	1.805	1093712	REC_WORD	10.04	n/a	PANDA	Zoo	1	21	[0, 0, 0]	n/a	catFR1	1	R1157C
2186.379	2.44	1094614	REC_WORD	11.845	n/a	LION	Zoo	2	21	[0, 0, 0]	n/a	catFR1	1	R1157C
2188.819	2.542	1095834	REC_WORD	14.285	n/a	ORANGUTAN	Zoo	8	21	[0, 0, 0]	n/a	catFR1	1	R1157C
2191.361	5.976	1097105	REC_WORD	16.827	n/a	HICKORY	Trees	9	21	[0, 0, 0]	n/a	catFR1	1	R1157C
2197.337	7.209	1100093	REC_WORD	22.803	n/a	WALNUT	Trees	5	21	[0, 0, 0]	n/a	catFR1	1	R1157C
2204.546	1.794	1103697	REC_END	n/a	n/a	n/a	n/a	-999	21	[0, 0, 0]	n/a	catFR1	1	R1157C
2206.34	0.0	1104594	TRIAL	n/a	n/a	n/a	n/a	-999	22	[0, 0, 0]	n/a	catFR1	1	R1157C
2206.34	10.0	1104594	COUNTDOWN_START	n/a	n/a	n/a	n/a	-999	22	[0, 0, 0]	n/a	catFR1	1	R1157C
2216.768	0.007	1109807	COUNTDOWN_END	n/a	n/a	n/a	n/a	-999	22	[0, 0, 0]	n/a	catFR1	1	R1157C
2216.775	1.6	1109811	ORIENT	n/a	n/a	n/a	n/a	-999	22	[0, 0, 0]	n/a	catFR1	1	R1157C
2220.659	1.6	1111753	WORD	n/a	wordpools/wordpool_categorized_EN.txt	BLUEBIRD	Birds	1	22	[0, 0, 0]	n/a	catFR1	1	R1157C
2223.176	1.6	1113011	WORD	n/a	wordpools/wordpool_categorized_EN.txt	SPARROW	Birds	2	22	[0, 0, 0]	n/a	catFR1	1	R1157C
2225.727	1.6	1114287	WORD	n/a	wordpools/wordpool_categorized_EN.txt	BINDER	OfficeSupplies	3	22	[0, 0, 0]	n/a	catFR1	1	R1157C
2228.277	1.6	1115561	WORD	n/a	wordpools/wordpool_categorized_EN.txt	STAPLER	OfficeSupplies	4	22	[0, 0, 0]	n/a	catFR1	1	R1157C
2230.694	1.6	1116770	WORD	n/a	wordpools/wordpool_categorized_EN.txt	FOREST	Landscapes	5	22	[0, 0, 0]	n/a	catFR1	1	R1157C
2233.128	1.6	1117987	WORD	n/a	wordpools/wordpool_categorized_EN.txt	LAKE	Landscapes	6	22	[0, 0, 0]	n/a	catFR1	1	R1157C
2235.544	1.6	1119195	WORD	n/a	wordpools/wordpool_categorized_EN.txt	RULER	OfficeSupplies	7	22	[0, 0, 0]	n/a	catFR1	1	R1157C
2237.912	1.6	1120379	WORD	n/a	wordpools/wordpool_categorized_EN.txt	FOLDER	OfficeSupplies	8	22	[0, 0, 0]	n/a	catFR1	1	R1157C
2240.479	1.6	1121662	WORD	n/a	wordpools/wordpool_categorized_EN.txt	CROW	Birds	9	22	[0, 0, 0]	n/a	catFR1	1	R1157C
2242.863	1.6	1122854	WORD	n/a	wordpools/wordpool_categorized_EN.txt	ROBIN	Birds	10	22	[0, 0, 0]	n/a	catFR1	1	R1157C
2245.247	1.6	1124046	WORD	n/a	wordpools/wordpool_categorized_EN.txt	HILLS	Landscapes	11	22	[0, 0, 0]	n/a	catFR1	1	R1157C
2247.781	1.6	1125313	WORD	n/a	wordpools/wordpool_categorized_EN.txt	ISLAND	Landscapes	12	22	[0, 0, 0]	n/a	catFR1	1	R1157C
2249.397	0.001	1126121	DISTRACT_START	n/a	n/a	n/a	n/a	-999	22	[0, 0, 0]	n/a	catFR1	1	R1157C
2249.398	0.016	1126121	START	n/a	n/a	n/a	n/a	-999	22	[-999, -999, -999]	n/a	catFR1	1	R1157C
2249.414	3.434	1126129	PROB	3.402	n/a	n/a	n/a	-999	22	[8, 2, 5]	15.0	catFR1	1	R1157C
2252.848	2.617	1127846	PROB	2.591	n/a	n/a	n/a	-999	22	[1, 7, 2]	11.0	catFR1	1	R1157C
2255.465	7.902	1129154	PROB	7.871	n/a	n/a	n/a	-999	22	[4, 7, 3]	14.0	catFR1	1	R1157C
2263.367	2.617	1133105	PROB	2.593	n/a	n/a	n/a	-999	22	[2, 7, 9]	18.0	catFR1	1	R1157C
2265.984	3.792	1134413	PROB	3.792	n/a	n/a	n/a	-999	22	[4, 4, 6]	14.0	catFR1	1	R1157C
2269.776	0.009	1136309	STOP	n/a	n/a	n/a	n/a	-999	22	[-999, -999, -999]	n/a	catFR1	1	R1157C
2269.785	1.184	1136314	DISTRACT_END	n/a	n/a	n/a	n/a	-999	22	[0, 0, 0]	n/a	catFR1	1	R1157C
2270.969	1.962	1136906	REC_START	n/a	n/a	n/a	n/a	-999	22	[0, 0, 0]	n/a	catFR1	1	R1157C
2272.931	0.514	1137886	REC_WORD	1.962	n/a	CROW	Birds	9	22	[0, 0, 0]	n/a	catFR1	1	R1157C
2273.445	9.113	1138143	REC_WORD	2.476	n/a	ROBIN	Birds	10	22	[0, 0, 0]	n/a	catFR1	1	R1157C
2282.558	4.755	1142700	REC_WORD	11.589	n/a	BINDER	OfficeSupplies	3	22	[0, 0, 0]	n/a	catFR1	1	R1157C
2287.313	13.671	1145077	REC_WORD	16.344	n/a	RULER	OfficeSupplies	7	22	[0, 0, 0]	n/a	catFR1	1	R1157C
2300.984	1.824	1151912	REC_END	n/a	n/a	n/a	n/a	-999	22	[0, 0, 0]	n/a	catFR1	1	R1157C
2302.808	0.0	1152824	TRIAL	n/a	n/a	n/a	n/a	-999	23	[0, 0, 0]	n/a	catFR1	1	R1157C
2302.808	10.0	1152824	COUNTDOWN_START	n/a	n/a	n/a	n/a	-999	23	[0, 0, 0]	n/a	catFR1	1	R1157C
2313.236	0.007	1158037	COUNTDOWN_END	n/a	n/a	n/a	n/a	-999	23	[0, 0, 0]	n/a	catFR1	1	R1157C
2313.243	1.6	1158041	ORIENT	n/a	n/a	n/a	n/a	-999	23	[0, 0, 0]	n/a	catFR1	1	R1157C
2316.86	1.6	1159849	WORD	n/a	wordpools/wordpool_categorized_EN.txt	SEAGULL	Birds	1	23	[0, 0, 0]	n/a	catFR1	1	R1157C
2319.477	1.6	1161157	WORD	n/a	wordpools/wordpool_categorized_EN.txt	HAWK	Birds	2	23	[0, 0, 0]	n/a	catFR1	1	R1157C
2321.945	1.6	1162391	WORD	n/a	wordpools/wordpool_categorized_EN.txt	VACUUM	Appliances	3	23	[0, 0, 0]	n/a	catFR1	1	R1157C
2324.345	1.6	1163591	WORD	n/a	wordpools/wordpool_categorized_EN.txt	STOVE	Appliances	4	23	[0, 0, 0]	n/a	catFR1	1	R1157C
2326.946	1.6	1164892	WORD	n/a	wordpools/wordpool_categorized_EN.txt	STRAWBERRY	Fruit	5	23	[0, 0, 0]	n/a	catFR1	1	R1157C
2329.529	1.6	1166183	WORD	n/a	wordpools/wordpool_categorized_EN.txt	PEAR	Fruit	6	23	[0, 0, 0]	n/a	catFR1	1	R1157C
2331.947	1.6	1167392	WORD	n/a	wordpools/wordpool_categorized_EN.txt	GOOSE	Birds	7	23	[0, 0, 0]	n/a	catFR1	1	R1157C
2334.546	1.6	1168691	WORD	n/a	wordpools/wordpool_categorized_EN.txt	CARDINAL	Birds	8	23	[0, 0, 0]	n/a	catFR1	1	R1157C
2337.081	1.6	1169959	WORD	n/a	wordpools/wordpool_categorized_EN.txt	BANANA	Fruit	9	23	[0, 0, 0]	n/a	catFR1	1	R1157C
2339.497	1.6	1171167	WORD	n/a	wordpools/wordpool_categorized_EN.txt	CHERRY	Fruit	10	23	[0, 0, 0]	n/a	catFR1	1	R1157C
2341.948	1.6	1172392	WORD	n/a	wordpools/wordpool_categorized_EN.txt	FREEZER	Appliances	11	23	[0, 0, 0]	n/a	catFR1	1	R1157C
2344.448	1.6	1173642	WORD	n/a	wordpools/wordpool_categorized_EN.txt	DRYER	Appliances	12	23	[0, 0, 0]	n/a	catFR1	1	R1157C
2346.049	0.001	1174442	DISTRACT_START	n/a	n/a	n/a	n/a	-999	23	[0, 0, 0]	n/a	catFR1	1	R1157C
2346.05	0.016	1174443	START	n/a	n/a	n/a	n/a	-999	23	[-999, -999, -999]	n/a	catFR1	1	R1157C
2346.066	2.984	1174451	PROB	2.95	n/a	n/a	n/a	-999	23	[4, 2, 1]	7.0	catFR1	1	R1157C
2349.05	3.499	1175943	PROB	3.469	n/a	n/a	n/a	-999	23	[4, 1, 5]	10.0	catFR1	1	R1157C
2352.549	4.336	1177692	PROB	4.315	n/a	n/a	n/a	-999	23	[8, 3, 6]	17.0	catFR1	1	R1157C
2356.885	3.184	1179860	PROB	3.163	n/a	n/a	n/a	-999	23	[8, 8, 7]	23.0	catFR1	1	R1157C
2360.069	4.767	1181452	PROB	4.747	n/a	n/a	n/a	-999	23	[9, 7, 2]	18.0	catFR1	1	R1157C
2364.836	2.828	1183835	PROB	2.828	n/a	n/a	n/a	-999	23	[6, 2, 7]	15.0	catFR1	1	R1157C
2367.664	0.006	1185249	STOP	n/a	n/a	n/a	n/a	-999	23	[-999, -999, -999]	n/a	catFR1	1	R1157C
2367.67	1.167	1185252	DISTRACT_END	n/a	n/a	n/a	n/a	-999	23	[0, 0, 0]	n/a	catFR1	1	R1157C
2368.837	0.737	1185835	REC_START	n/a	n/a	n/a	n/a	-999	23	[0, 0, 0]	n/a	catFR1	1	R1157C
2369.574	4.387	1186204	REC_WORD_VV	0.737	n/a	<>	n/a	-999	23	[0, 0, 0]	n/a	catFR1	1	R1157C
2373.961	5.571	1188397	REC_WORD	5.124	n/a	SEAGULL	Birds	1	23	[0, 0, 0]	n/a	catFR1	1	R1157C
2379.532	2.865	1191182	REC_WORD	10.695	n/a	CHERRY	Fruit	10	23	[0, 0, 0]	n/a	catFR1	1	R1157C
2382.397	11.023	1192615	REC_WORD	13.56	n/a	PEAR	Fruit	6	23	[0, 0, 0]	n/a	catFR1	1	R1157C
2393.42	5.431	1198126	REC_WORD	24.583	n/a	BLUEBIRD	n/a	-999	23	[0, 0, 0]	n/a	catFR1	1	R1157C
2398.851	1.742	1200841	REC_END	n/a	n/a	n/a	n/a	-999	23	[0, 0, 0]	n/a	catFR1	1	R1157C
2400.593	0.0	1201712	TRIAL	n/a	n/a	n/a	n/a	-999	24	[0, 0, 0]	n/a	catFR1	1	R1157C
2400.593	10.0	1201712	COUNTDOWN_START	n/a	n/a	n/a	n/a	-999	24	[0, 0, 0]	n/a	catFR1	1	R1157C
2411.021	0.007	1206925	COUNTDOWN_END	n/a	n/a	n/a	n/a	-999	24	[0, 0, 0]	n/a	catFR1	1	R1157C
2411.028	1.6	1206929	ORIENT	n/a	n/a	n/a	n/a	-999	24	[0, 0, 0]	n/a	catFR1	1	R1157C
2414.696	1.6	1208763	WORD	n/a	wordpools/wordpool_categorized_EN.txt	REFRIGERATOR	Appliances	1	24	[0, 0, 0]	n/a	catFR1	1	R1157C
2417.313	1.6	1210071	WORD	n/a	wordpools/wordpool_categorized_EN.txt	BLENDER	Appliances	2	24	[0, 0, 0]	n/a	catFR1	1	R1157C
2419.88	1.6	1211354	WORD	n/a	wordpools/wordpool_categorized_EN.txt	DRESS	Clothing	3	24	[0, 0, 0]	n/a	catFR1	1	R1157C
2422.413	1.6	1212621	WORD	n/a	wordpools/wordpool_categorized_EN.txt	PANTS	Clothing	4	24	[0, 0, 0]	n/a	catFR1	1	R1157C
2424.847	1.6	1213838	WORD	n/a	wordpools/wordpool_categorized_EN.txt	DOLLHOUSE	Toys	5	24	[0, 0, 0]	n/a	catFR1	1	R1157C
2427.298	1.6	1215063	WORD	n/a	wordpools/wordpool_categorized_EN.txt	PUZZLE	Toys	6	24	[0, 0, 0]	n/a	catFR1	1	R1157C
2429.882	1.6	1216355	WORD	n/a	wordpools/wordpool_categorized_EN.txt	IRON	Appliances	7	24	[0, 0, 0]	n/a	catFR1	1	R1157C
2432.365	1.6	1217596	WORD	n/a	wordpools/wordpool_categorized_EN.txt	TOASTER	Appliances	8	24	[0, 0, 0]	n/a	catFR1	1	R1157C
2434.949	1.6	1218888	WORD	n/a	wordpools/wordpool_categorized_EN.txt	SLINKY	Toys	9	24	[0, 0, 0]	n/a	catFR1	1	R1157C
2437.35	1.6	1220089	WORD	n/a	wordpools/wordpool_categorized_EN.txt	FRISBEE	Toys	10	24	[0, 0, 0]	n/a	catFR1	1	R1157C
2439.834	1.6	1221331	WORD	n/a	wordpools/wordpool_categorized_EN.txt	COAT	Clothing	11	24	[0, 0, 0]	n/a	catFR1	1	R1157C
2442.317	1.6	1222572	WORD	n/a	wordpools/wordpool_categorized_EN.txt	BLOUSE	Clothing	12	24	[0, 0, 0]	n/a	catFR1	1	R1157C
2443.934	0.001	1223380	DISTRACT_START	n/a	n/a	n/a	n/a	-999	24	[0, 0, 0]	n/a	catFR1	1	R1157C
2443.935	0.016	1223381	START	n/a	n/a	n/a	n/a	-999	24	[-999, -999, -999]	n/a	catFR1	1	R1157C
2443.951	6.45	1223389	PROB	6.424	n/a	n/a	n/a	-999	24	[2, 9, 2]	13.0	catFR1	1	R1157C
2450.401	4.051	1226614	PROB	4.022	n/a	n/a	n/a	-999	24	[2, 4, 7]	13.0	catFR1	1	R1157C
2454.452	2.501	1228639	PROB	2.476	n/a	n/a	n/a	-999	24	[5, 5, 5]	15.0	catFR1	1	R1157C
2456.953	5.301	1229889	PROB	5.279	n/a	n/a	n/a	-999	24	[7, 6, 9]	22.0	catFR1	1	R1157C
2462.254	3.594	1232540	PROB	3.594	n/a	n/a	n/a	-999	24	[4, 4, 5]	13.0	catFR1	1	R1157C
2465.848	0.007	1234336	STOP	n/a	n/a	n/a	n/a	-999	24	[-999, -999, -999]	n/a	catFR1	1	R1157C
2465.855	1.084	1234340	DISTRACT_END	n/a	n/a	n/a	n/a	-999	24	[0, 0, 0]	n/a	catFR1	1	R1157C
2466.939	0.84	1234882	REC_START	n/a	n/a	n/a	n/a	-999	24	[0, 0, 0]	n/a	catFR1	1	R1157C
2467.779	2.41	1235302	REC_WORD	0.84	n/a	TOASTER	Appliances	8	24	[0, 0, 0]	n/a	catFR1	1	R1157C
2470.189	26.765	1236507	REC_WORD	3.25	n/a	IRON	Appliances	7	24	[0, 0, 0]	n/a	catFR1	1	R1157C
2496.954	1.857	1249888	REC_END	n/a	n/a	n/a	n/a	-999	24	[0, 0, 0]	n/a	catFR1	1	R1157C
2498.811	0.0	1250816	TRIAL	n/a	n/a	n/a	n/a	-999	25	[0, 0, 0]	n/a	catFR1	1	R1157C
2498.811	10.0	1250816	COUNTDOWN_START	n/a	n/a	n/a	n/a	-999	25	[0, 0, 0]	n/a	catFR1	1	R1157C
2509.239	0.008	1256030	COUNTDOWN_END	n/a	n/a	n/a	n/a	-999	25	[0, 0, 0]	n/a	catFR1	1	R1157C
2509.247	1.6	1256034	ORIENT	n/a	n/a	n/a	n/a	-999	25	[0, 0, 0]	n/a	catFR1	1	R1157C
2512.897	1.6	1257859	WORD	n/a	wordpools/wordpool_categorized_EN.txt	SPEAKER	Electronics	1	25	[0, 0, 0]	n/a	catFR1	1	R1157C
2515.331	1.6	1259076	WORD	n/a	wordpools/wordpool_categorized_EN.txt	PHONE	Electronics	2	25	[0, 0, 0]	n/a	catFR1	1	R1157C
2517.831	1.6	1260326	WORD	n/a	wordpools/wordpool_categorized_EN.txt	WALL	Building	3	25	[0, 0, 0]	n/a	catFR1	1	R1157C
2520.299	1.6	1261560	WORD	n/a	wordpools/wordpool_categorized_EN.txt	STAIRS	Building	4	25	[0, 0, 0]	n/a	catFR1	1	R1157C
2522.916	1.6	1262868	WORD	n/a	wordpools/wordpool_categorized_EN.txt	CAR	Vehicles	5	25	[0, 0, 0]	n/a	catFR1	1	R1157C
2525.382	1.6	1264101	WORD	n/a	wordpools/wordpool_categorized_EN.txt	TRAIN	Vehicles	6	25	[0, 0, 0]	n/a	catFR1	1	R1157C
2527.883	1.6	1265351	WORD	n/a	wordpools/wordpool_categorized_EN.txt	SCANNER	Electronics	7	25	[0, 0, 0]	n/a	catFR1	1	R1157C
2530.45	1.6	1266635	WORD	n/a	wordpools/wordpool_categorized_EN.txt	CALCULATOR	Electronics	8	25	[0, 0, 0]	n/a	catFR1	1	R1157C
2532.951	1.6	1267885	WORD	n/a	wordpools/wordpool_categorized_EN.txt	BIKE	Vehicles	9	25	[0, 0, 0]	n/a	catFR1	1	R1157C
2535.567	1.6	1269193	WORD	n/a	wordpools/wordpool_categorized_EN.txt	BOAT	Vehicles	10	25	[0, 0, 0]	n/a	catFR1	1	R1157C
2537.985	1.6	1270402	WORD	n/a	wordpools/wordpool_categorized_EN.txt	DOOR	Building	11	25	[0, 0, 0]	n/a	catFR1	1	R1157C
2540.551	1.6	1271685	WORD	n/a	wordpools/wordpool_categorized_EN.txt	BATHROOM	Building	12	25	[0, 0, 0]	n/a	catFR1	1	R1157C
2542.152	0.001	1272485	DISTRACT_START	n/a	n/a	n/a	n/a	-999	25	[0, 0, 0]	n/a	catFR1	1	R1157C
2542.153	0.016	1272486	START	n/a	n/a	n/a	n/a	-999	25	[-999, -999, -999]	n/a	catFR1	1	R1157C
2542.169	5.985	1272494	PROB	5.951	n/a	n/a	n/a	-999	25	[3, 1, 6]	10.0	catFR1	1	R1157C
2548.154	4.034	1275486	PROB	4.006	n/a	n/a	n/a	-999	25	[4, 9, 8]	21.0	catFR1	1	R1157C
2552.188	3.684	1277503	PROB	3.652	n/a	n/a	n/a	-999	25	[4, 1, 9]	14.0	catFR1	1	R1157C
2555.872	8.607	1279344	PROB	8.607	n/a	n/a	n/a	-999	25	[7, 6, 3]	16.0	catFR1	1	R1157C
2564.479	0.01	1283648	STOP	n/a	n/a	n/a	n/a	-999	25	[-999, -999, -999]	n/a	catFR1	1	R1157C
2564.489	1.068	1283653	DISTRACT_END	n/a	n/a	n/a	n/a	-999	25	[0, 0, 0]	n/a	catFR1	1	R1157C
2565.557	0.784	1284187	REC_START	n/a	n/a	n/a	n/a	-999	25	[0, 0, 0]	n/a	catFR1	1	R1157C
2566.341	0.675	1284578	REC_WORD	0.784	n/a	SPEAKER	Electronics	1	25	[0, 0, 0]	n/a	catFR1	1	R1157C
2567.016	16.338	1284916	REC_WORD	1.459	n/a	PHONE	Electronics	2	25	[0, 0, 0]	n/a	catFR1	1	R1157C
2583.354	12.215	1293084	REC_WORD	17.797	n/a	CALCULATOR	Electronics	8	25	[0, 0, 0]	n/a	catFR1	1	R1157C
2595.569	25.682	1299191	REC_END	n/a	n/a	n/a	n/a	-999	25	[0, 0, 0]	n/a	catFR1	1	R1157C
2621.251	0.0	1312031	SESS_END	n/a	n/a	n/a	n/a	-999	25	[0, 0, 0]	n/a	catFR1	1	R1157C
