onset	duration	sample	trial_type	response_time	stim_file	item_name	category	serialpos	list	test	answer	experiment	session	subject
0.0	119.708	12013	INSTRUCT_START	n/a	n/a	n/a	n/a	-999	-999	[0, 0, 0]	n/a	catFR1	1	R1683A
119.708	29.669	131717	INSTRUCT_END	n/a	n/a	n/a	n/a	-999	-999	[0, 0, 0]	n/a	catFR1	1	R1683A
149.377	10.351	161390	COUNTDOWN_START	n/a	n/a	n/a	n/a	-999	-999	[0, 0, 0]	n/a	catFR1	1	R1683A
159.728	0.0	171735	COUNTDOWN_END	n/a	n/a	n/a	n/a	-999	-999	[0, 0, 0]	n/a	catFR1	1	R1683A
159.728	2.269	171735	ENCODING_START	n/a	n/a	n/a	n/a	-999	-1	[0, 0, 0]	n/a	catFR1	1	R1683A
161.997	1.598	174003	WORD	n/a	n/a	BEE	Insects	1	-1	[0, 0, 0]	n/a	catFR1	1	R1683A
163.595	0.955	175605	WORD_OFF	n/a	n/a	BEE	Insects	1	-1	[0, 0, 0]	n/a	catFR1	1	R1683A
164.55	1.6	176554	WORD	n/a	n/a	ROACH	Insects	2	-1	[0, 0, 0]	n/a	catFR1	1	R1683A
166.15	0.876	178156	WORD_OFF	n/a	n/a	ROACH	Insects	2	-1	[0, 0, 0]	n/a	catFR1	1	R1683A
167.026	1.609	179028	WORD	n/a	n/a	SPEAKER	Electronics	3	-1	[0, 0, 0]	n/a	catFR1	1	R1683A
168.635	0.875	180642	WORD_OFF	n/a	n/a	SPEAKER	Electronics	3	-1	[0, 0, 0]	n/a	catFR1	1	R1683A
169.51	1.607	181514	WORD	n/a	n/a	PHONE	Electronics	4	-1	[0, 0, 0]	n/a	catFR1	1	R1683A
171.117	0.951	183127	WORD_OFF	n/a	n/a	PHONE	Electronics	4	-1	[0, 0, 0]	n/a	catFR1	1	R1683A
172.068	1.609	184075	WORD	n/a	n/a	MILK	Beverages	5	-1	[0, 0, 0]	n/a	catFR1	1	R1683A
173.677	0.856	185689	WORD_OFF	n/a	n/a	MILK	Beverages	5	-1	[0, 0, 0]	n/a	catFR1	1	R1683A
174.533	1.602	186539	WORD	n/a	n/a	JUICE	Beverages	6	-1	[0, 0, 0]	n/a	catFR1	1	R1683A
176.135	0.965	188141	WORD_OFF	n/a	n/a	JUICE	Beverages	6	-1	[0, 0, 0]	n/a	catFR1	1	R1683A
177.1	1.602	189112	WORD	n/a	n/a	FLY	Insects	7	-1	[0, 0, 0]	n/a	catFR1	1	R1683A
178.702	0.89	190714	WORD_OFF	n/a	n/a	FLY	Insects	7	-1	[0, 0, 0]	n/a	catFR1	1	R1683A
179.592	1.601	191597	WORD	n/a	n/a	MOSQUITO	Insects	8	-1	[0, 0, 0]	n/a	catFR1	1	R1683A
181.193	0.899	193200	WORD_OFF	n/a	n/a	MOSQUITO	Insects	8	-1	[0, 0, 0]	n/a	catFR1	1	R1683A
182.092	1.6	194104	WORD	n/a	n/a	PRINTER	Electronics	9	-1	[0, 0, 0]	n/a	catFR1	1	R1683A
183.692	0.891	195696	WORD_OFF	n/a	n/a	PRINTER	Electronics	9	-1	[0, 0, 0]	n/a	catFR1	1	R1683A
184.583	1.602	196590	WORD	n/a	n/a	MICROWAVE	Electronics	10	-1	[0, 0, 0]	n/a	catFR1	1	R1683A
186.185	0.906	198192	WORD_OFF	n/a	n/a	MICROWAVE	Electronics	10	-1	[0, 0, 0]	n/a	catFR1	1	R1683A
187.091	1.602	199097	WORD	n/a	n/a	BEER	Beverages	11	-1	[0, 0, 0]	n/a	catFR1	1	R1683A
188.693	0.966	200700	WORD_OFF	n/a	n/a	BEER	Beverages	11	-1	[0, 0, 0]	n/a	catFR1	1	R1683A
189.659	1.608	201670	WORD	n/a	n/a	TEA	Beverages	12	-1	[0, 0, 0]	n/a	catFR1	1	R1683A
191.267	0.003	203272	WORD_OFF	n/a	n/a	TEA	Beverages	12	-1	[0, 0, 0]	n/a	catFR1	1	R1683A
191.27	0.0	203272	ENCODING_END	n/a	n/a	n/a	n/a	-999	-1	[0, 0, 0]	n/a	catFR1	1	R1683A
191.27	0.001	203279	START	n/a	n/a	n/a	n/a	-999	-1	[-999, -999, -999]	n/a	catFR1	1	R1683A
191.271	0.0	203280	PROB	0.0	n/a	n/a	n/a	-999	-1	[6, 5, 6]	17	catFR1	1	R1683A
191.27	6.69	203283	DISTRACT_START	n/a	n/a	n/a	n/a	-999	-1	[0, 0, 0]	n/a	catFR1	1	R1683A
197.96	7.598	209969	PROB	7.598	n/a	n/a	n/a	-999	-1	[7, 2, 4]	13	catFR1	1	R1683A
205.558	3.662	217566	PROB	3.662	n/a	n/a	n/a	-999	-1	[8, 2, 2]	12	catFR1	1	R1683A
209.22	8.922	221228	PROB	8.922	n/a	n/a	n/a	-999	-1	[6, 7, 2]	15	catFR1	1	R1683A
218.142	0.0	230143	DISTRACT_END	n/a	n/a	n/a	n/a	-999	-1	[0, 0, 0]	n/a	catFR1	1	R1683A
218.142	2.167	230150	STOP	n/a	n/a	n/a	n/a	-999	-1	[-999, -999, -999]	n/a	catFR1	1	R1683A
220.309	3.33	232313	REC_START	n/a	n/a	n/a	n/a	-999	-1	[0, 0, 0]	n/a	catFR1	1	R1683A
223.639	0.866	235647	REC_WORD	0.866	n/a	BEER	Beverages	11	-1	[0, 0, 0]	n/a	catFR1	1	R1683A
224.505	1.379	236513	REC_WORD_VV	1.379	n/a	<>	n/a	-999	-1	[0, 0, 0]	n/a	catFR1	1	R1683A
225.884	1.917	237892	REC_WORD	1.917	n/a	MOSQUITO	Insects	8	-1	[0, 0, 0]	n/a	catFR1	1	R1683A
227.801	2.535	239809	REC_WORD	2.535	n/a	BEE	Insects	1	-1	[0, 0, 0]	n/a	catFR1	1	R1683A
230.336	1.835	242344	REC_WORD	1.835	n/a	ROACH	Insects	2	-1	[0, 0, 0]	n/a	catFR1	1	R1683A
232.171	2.698	244179	REC_WORD	2.698	n/a	MILK	Beverages	5	-1	[0, 0, 0]	n/a	catFR1	1	R1683A
234.869	3.404	246877	REC_WORD	3.404	n/a	JUICE	Beverages	6	-1	[0, 0, 0]	n/a	catFR1	1	R1683A
238.273	1.0	250281	REC_WORD_VV	1.0	n/a	<>	n/a	-999	-1	[0, 0, 0]	n/a	catFR1	1	R1683A
239.273	1.919	251281	REC_WORD_VV	1.919	n/a	<>	n/a	-999	-1	[0, 0, 0]	n/a	catFR1	1	R1683A
241.192	1.0	253200	REC_WORD_VV	1.0	n/a	<>	n/a	-999	-1	[0, 0, 0]	n/a	catFR1	1	R1683A
242.192	8.264	254200	REC_WORD_VV	8.264	n/a	<>	n/a	-999	-1	[0, 0, 0]	n/a	catFR1	1	R1683A
250.456	21.146	262465	REC_END	n/a	n/a	n/a	n/a	-999	-1	[0, 0, 0]	n/a	catFR1	1	R1683A
271.602	10.34	283613	COUNTDOWN_START	n/a	n/a	n/a	n/a	-999	1	[0, 0, 0]	n/a	catFR1	1	R1683A
281.942	0.0	293947	COUNTDOWN_END	n/a	n/a	n/a	n/a	-999	1	[0, 0, 0]	n/a	catFR1	1	R1683A
281.942	2.033	293947	ENCODING_START	n/a	n/a	n/a	n/a	-999	1	[0, 0, 0]	n/a	catFR1	1	R1683A
283.975	1.601	295986	WORD	n/a	wordpools/wordpool_categorized_EN.txt	PANTS	Clothing	1	1	[0, 0, 0]	n/a	catFR1	1	R1683A
285.576	0.832	297588	WORD_OFF	n/a	n/a	PANTS	Clothing	1	1	[0, 0, 0]	n/a	catFR1	1	R1683A
286.408	1.601	298417	WORD	n/a	wordpools/wordpool_categorized_EN.txt	SHIRT	Clothing	2	1	[0, 0, 0]	n/a	catFR1	1	R1683A
288.009	0.801	300019	WORD_OFF	n/a	n/a	SHIRT	Clothing	2	1	[0, 0, 0]	n/a	catFR1	1	R1683A
288.81	1.608	300815	WORD	n/a	wordpools/wordpool_categorized_EN.txt	NYLON	Fabric	3	1	[0, 0, 0]	n/a	catFR1	1	R1683A
290.418	0.958	302428	WORD_OFF	n/a	n/a	NYLON	Fabric	3	1	[0, 0, 0]	n/a	catFR1	1	R1683A
291.376	1.6	303388	WORD	n/a	wordpools/wordpool_categorized_EN.txt	SPANDEX	Fabric	4	1	[0, 0, 0]	n/a	catFR1	1	R1683A
292.976	0.867	304979	WORD_OFF	n/a	n/a	SPANDEX	Fabric	4	1	[0, 0, 0]	n/a	catFR1	1	R1683A
293.843	1.609	305851	WORD	n/a	wordpools/wordpool_categorized_EN.txt	TOE	BodyParts	5	1	[0, 0, 0]	n/a	catFR1	1	R1683A
295.452	0.941	307454	WORD_OFF	n/a	n/a	TOE	BodyParts	5	1	[0, 0, 0]	n/a	catFR1	1	R1683A
296.393	1.609	308402	WORD	n/a	wordpools/wordpool_categorized_EN.txt	FINGERS	BodyParts	6	1	[0, 0, 0]	n/a	catFR1	1	R1683A
298.002	0.817	310005	WORD_OFF	n/a	n/a	FINGERS	BodyParts	6	1	[0, 0, 0]	n/a	catFR1	1	R1683A
298.819	1.606	310822	WORD	n/a	wordpools/wordpool_categorized_EN.txt	SHOES	Clothing	7	1	[0, 0, 0]	n/a	catFR1	1	R1683A
300.425	0.767	312436	WORD_OFF	n/a	n/a	SHOES	Clothing	7	1	[0, 0, 0]	n/a	catFR1	1	R1683A
301.192	1.6	313199	WORD	n/a	wordpools/wordpool_categorized_EN.txt	COAT	Clothing	8	1	[0, 0, 0]	n/a	catFR1	1	R1683A
302.792	0.893	314801	WORD_OFF	n/a	n/a	COAT	Clothing	8	1	[0, 0, 0]	n/a	catFR1	1	R1683A
303.685	1.607	315695	WORD	n/a	wordpools/wordpool_categorized_EN.txt	LEATHER	Fabric	9	1	[0, 0, 0]	n/a	catFR1	1	R1683A
305.292	0.768	317298	WORD_OFF	n/a	n/a	LEATHER	Fabric	9	1	[0, 0, 0]	n/a	catFR1	1	R1683A
306.06	1.606	318061	WORD	n/a	wordpools/wordpool_categorized_EN.txt	SATIN	Fabric	10	1	[0, 0, 0]	n/a	catFR1	1	R1683A
307.666	0.775	319674	WORD_OFF	n/a	n/a	SATIN	Fabric	10	1	[0, 0, 0]	n/a	catFR1	1	R1683A
308.441	1.601	320448	WORD	n/a	wordpools/wordpool_categorized_EN.txt	NOSE	BodyParts	11	1	[0, 0, 0]	n/a	catFR1	1	R1683A
310.042	0.893	322050	WORD_OFF	n/a	n/a	NOSE	BodyParts	11	1	[0, 0, 0]	n/a	catFR1	1	R1683A
310.935	1.6	322944	WORD	n/a	wordpools/wordpool_categorized_EN.txt	FOOT	BodyParts	12	1	[0, 0, 0]	n/a	catFR1	1	R1683A
312.535	0.0	324536	WORD_OFF	n/a	n/a	FOOT	BodyParts	12	1	[0, 0, 0]	n/a	catFR1	1	R1683A
312.535	0.003	324543	PROB	0.003	n/a	n/a	n/a	-999	1	[4, 7, 2]	13	catFR1	1	R1683A
312.538	0.0	324546	START	n/a	n/a	n/a	n/a	-999	1	[-999, -999, -999]	n/a	catFR1	1	R1683A
312.538	0.0	324547	ENCODING_END	n/a	n/a	n/a	n/a	-999	1	[0, 0, 0]	n/a	catFR1	1	R1683A
312.538	4.846	324547	DISTRACT_START	n/a	n/a	n/a	n/a	-999	1	[0, 0, 0]	n/a	catFR1	1	R1683A
317.384	4.667	329392	PROB	4.667	n/a	n/a	n/a	-999	1	[2, 6, 2]	10	catFR1	1	R1683A
322.051	4.251	334059	PROB	4.251	n/a	n/a	n/a	-999	1	[7, 8, 2]	17	catFR1	1	R1683A
326.302	4.957	338310	PROB	4.957	n/a	n/a	n/a	-999	1	[4, 3, 6]	13	catFR1	1	R1683A
331.259	4.2	343267	PROB	4.2	n/a	n/a	n/a	-999	1	[5, 7, 7]	19	catFR1	1	R1683A
335.459	0.0	347461	DISTRACT_END	n/a	n/a	n/a	n/a	-999	1	[0, 0, 0]	n/a	catFR1	1	R1683A
335.459	2.368	347467	STOP	n/a	n/a	n/a	n/a	-999	1	[-999, -999, -999]	n/a	catFR1	1	R1683A
337.827	1.222	349837	REC_START	n/a	n/a	n/a	n/a	-999	1	[0, 0, 0]	n/a	catFR1	1	R1683A
339.049	1.0	351057	REC_WORD	1.0	n/a	SPANDEX	Fabric	4	1	[0, 0, 0]	n/a	catFR1	1	R1683A
340.049	1.423	352057	REC_WORD_VV	1.423	n/a	<>	n/a	-999	1	[0, 0, 0]	n/a	catFR1	1	R1683A
341.472	3.232	353480	REC_WORD	3.232	n/a	NYLON	Fabric	3	1	[0, 0, 0]	n/a	catFR1	1	R1683A
344.704	1.319	356712	REC_WORD	1.319	n/a	PANTS	Clothing	1	1	[0, 0, 0]	n/a	catFR1	1	R1683A
346.023	3.46	358031	REC_WORD	3.46	n/a	SHORTS	n/a	-999	1	[0, 0, 0]	n/a	catFR1	1	R1683A
349.483	1.619	361491	REC_WORD	1.619	n/a	COAT	Clothing	8	1	[0, 0, 0]	n/a	catFR1	1	R1683A
351.102	1.72	363110	REC_WORD	1.72	n/a	SATIN	Fabric	10	1	[0, 0, 0]	n/a	catFR1	1	R1683A
352.822	4.474	364830	REC_WORD	4.474	n/a	LEATHER	Fabric	9	1	[0, 0, 0]	n/a	catFR1	1	R1683A
357.296	1.543	369304	REC_WORD	1.543	n/a	TOE	BodyParts	5	1	[0, 0, 0]	n/a	catFR1	1	R1683A
358.839	4.81	370847	REC_WORD	4.81	n/a	FINGERS	BodyParts	6	1	[0, 0, 0]	n/a	catFR1	1	R1683A
363.649	1.0	375657	REC_WORD_VV	1.0	n/a	<>	n/a	-999	1	[0, 0, 0]	n/a	catFR1	1	R1683A
364.649	1.0	376657	REC_WORD_VV	1.0	n/a	<>	n/a	-999	1	[0, 0, 0]	n/a	catFR1	1	R1683A
365.649	2.311	377657	REC_WORD_VV	2.311	n/a	<>	n/a	-999	1	[0, 0, 0]	n/a	catFR1	1	R1683A
367.96	10.234	379968	REC_END	n/a	n/a	n/a	n/a	-999	1	[0, 0, 0]	n/a	catFR1	1	R1683A
378.194	10.341	390204	COUNTDOWN_START	n/a	n/a	n/a	n/a	-999	2	[0, 0, 0]	n/a	catFR1	1	R1683A
388.535	0.0	400538	COUNTDOWN_END	n/a	n/a	n/a	n/a	-999	2	[0, 0, 0]	n/a	catFR1	1	R1683A
388.535	2.124	400538	ENCODING_START	n/a	n/a	n/a	n/a	-999	2	[0, 0, 0]	n/a	catFR1	1	R1683A
390.659	1.608	402664	WORD	n/a	wordpools/wordpool_categorized_EN.txt	LEG	BodyParts	1	2	[0, 0, 0]	n/a	catFR1	1	R1683A
392.267	0.783	404277	WORD_OFF	n/a	n/a	LEG	BodyParts	1	2	[0, 0, 0]	n/a	catFR1	1	R1683A
393.05	1.601	405051	WORD	n/a	wordpools/wordpool_categorized_EN.txt	ELBOW	BodyParts	2	2	[0, 0, 0]	n/a	catFR1	1	R1683A
394.651	0.899	406654	WORD_OFF	n/a	n/a	ELBOW	BodyParts	2	2	[0, 0, 0]	n/a	catFR1	1	R1683A
395.55	1.602	407559	WORD	n/a	wordpools/wordpool_categorized_EN.txt	LION	Zoo	3	2	[0, 0, 0]	n/a	catFR1	1	R1683A
397.152	0.773	409161	WORD_OFF	n/a	n/a	LION	Zoo	3	2	[0, 0, 0]	n/a	catFR1	1	R1683A
397.925	1.602	409935	WORD	n/a	wordpools/wordpool_categorized_EN.txt	BEAR	Zoo	4	2	[0, 0, 0]	n/a	catFR1	1	R1683A
399.527	0.848	411538	WORD_OFF	n/a	n/a	BEAR	Zoo	4	2	[0, 0, 0]	n/a	catFR1	1	R1683A
400.375	1.601	412377	WORD	n/a	wordpools/wordpool_categorized_EN.txt	CABBAGE	Vegetables	5	2	[0, 0, 0]	n/a	catFR1	1	R1683A
401.976	0.809	413979	WORD_OFF	n/a	n/a	CABBAGE	Vegetables	5	2	[0, 0, 0]	n/a	catFR1	1	R1683A
402.785	1.608	414797	WORD	n/a	wordpools/wordpool_categorized_EN.txt	PEAS	Vegetables	6	2	[0, 0, 0]	n/a	catFR1	1	R1683A
404.393	0.875	416399	WORD_OFF	n/a	n/a	PEAS	Vegetables	6	2	[0, 0, 0]	n/a	catFR1	1	R1683A
405.268	1.608	417272	WORD	n/a	wordpools/wordpool_categorized_EN.txt	EAR	BodyParts	7	2	[0, 0, 0]	n/a	catFR1	1	R1683A
406.876	0.901	418885	WORD_OFF	n/a	n/a	EAR	BodyParts	7	2	[0, 0, 0]	n/a	catFR1	1	R1683A
407.777	1.608	419779	WORD	n/a	wordpools/wordpool_categorized_EN.txt	HEAD	BodyParts	8	2	[0, 0, 0]	n/a	catFR1	1	R1683A
409.385	0.981	421392	WORD_OFF	n/a	n/a	HEAD	BodyParts	8	2	[0, 0, 0]	n/a	catFR1	1	R1683A
410.366	1.601	422373	WORD	n/a	wordpools/wordpool_categorized_EN.txt	ELEPHANT	Zoo	9	2	[0, 0, 0]	n/a	catFR1	1	R1683A
411.967	0.91	423976	WORD_OFF	n/a	n/a	ELEPHANT	Zoo	9	2	[0, 0, 0]	n/a	catFR1	1	R1683A
412.877	1.6	424891	WORD	n/a	wordpools/wordpool_categorized_EN.txt	PANDA	Zoo	10	2	[0, 0, 0]	n/a	catFR1	1	R1683A
414.477	0.948	426483	WORD_OFF	n/a	n/a	PANDA	Zoo	10	2	[0, 0, 0]	n/a	catFR1	1	R1683A
415.425	1.6	427431	WORD	n/a	wordpools/wordpool_categorized_EN.txt	CAULIFLOWER	Vegetables	11	2	[0, 0, 0]	n/a	catFR1	1	R1683A
417.025	0.985	429034	WORD_OFF	n/a	n/a	CAULIFLOWER	Vegetables	11	2	[0, 0, 0]	n/a	catFR1	1	R1683A
418.01	1.607	430015	WORD	n/a	wordpools/wordpool_categorized_EN.txt	SPINACH	Vegetables	12	2	[0, 0, 0]	n/a	catFR1	1	R1683A
419.617	0.001	431624	PROB	0.001	n/a	n/a	n/a	-999	2	[6, 3, 7]	16	catFR1	1	R1683A
419.618	0.003	431628	WORD_OFF	n/a	n/a	SPINACH	Vegetables	12	2	[0, 0, 0]	n/a	catFR1	1	R1683A
419.621	0.0	431628	ENCODING_END	n/a	n/a	n/a	n/a	-999	2	[0, 0, 0]	n/a	catFR1	1	R1683A
419.621	0.0	431628	DISTRACT_START	n/a	n/a	n/a	n/a	-999	2	[0, 0, 0]	n/a	catFR1	1	R1683A
419.621	4.113	431628	START	n/a	n/a	n/a	n/a	-999	2	[-999, -999, -999]	n/a	catFR1	1	R1683A
423.734	5.827	435741	PROB	5.827	n/a	n/a	n/a	-999	2	[1, 8, 6]	15	catFR1	1	R1683A
429.561	14.622	441568	PROB	14.622	n/a	n/a	n/a	-999	2	[6, 8, 5]	19	catFR1	1	R1683A
444.183	0.0	456188	DISTRACT_END	n/a	n/a	n/a	n/a	-999	2	[0, 0, 0]	n/a	catFR1	1	R1683A
444.183	2.227	456190	STOP	n/a	n/a	n/a	n/a	-999	2	[-999, -999, -999]	n/a	catFR1	1	R1683A
446.41	1.749	458412	REC_START	n/a	n/a	n/a	n/a	-999	2	[0, 0, 0]	n/a	catFR1	1	R1683A
448.159	2.174	460166	REC_WORD	2.174	n/a	CABBAGE	Vegetables	5	2	[0, 0, 0]	n/a	catFR1	1	R1683A
450.333	1.529	462340	REC_WORD	1.529	n/a	PANDA	Zoo	10	2	[0, 0, 0]	n/a	catFR1	1	R1683A
451.862	3.156	463869	REC_WORD	3.156	n/a	LION	Zoo	3	2	[0, 0, 0]	n/a	catFR1	1	R1683A
455.018	3.084	467025	REC_WORD	3.084	n/a	CAULIFLOWER	Vegetables	11	2	[0, 0, 0]	n/a	catFR1	1	R1683A
458.102	1.476	470109	REC_WORD	1.476	n/a	FINGERS	BodyParts	-999	2	[0, 0, 0]	n/a	catFR1	1	R1683A
459.578	3.119	471585	REC_WORD	3.119	n/a	EAR	BodyParts	7	2	[0, 0, 0]	n/a	catFR1	1	R1683A
462.697	3.684	474704	REC_WORD	3.684	n/a	FOOT	BodyParts	-999	2	[0, 0, 0]	n/a	catFR1	1	R1683A
466.381	1.0	478388	REC_WORD_VV	1.0	n/a	<>	n/a	-999	2	[0, 0, 0]	n/a	catFR1	1	R1683A
467.381	5.067	479388	REC_WORD_VV	5.067	n/a	<>	n/a	-999	2	[0, 0, 0]	n/a	catFR1	1	R1683A
472.448	4.101	484455	REC_WORD	4.101	n/a	TOE	BodyParts	-999	2	[0, 0, 0]	n/a	catFR1	1	R1683A
476.549	22.068	488554	REC_END	n/a	n/a	n/a	n/a	-999	2	[0, 0, 0]	n/a	catFR1	1	R1683A
498.617	10.342	510628	COUNTDOWN_START	n/a	n/a	n/a	n/a	-999	3	[0, 0, 0]	n/a	catFR1	1	R1683A
508.959	0.0	520963	COUNTDOWN_END	n/a	n/a	n/a	n/a	-999	3	[0, 0, 0]	n/a	catFR1	1	R1683A
508.959	2.183	520963	ENCODING_START	n/a	n/a	n/a	n/a	-999	3	[0, 0, 0]	n/a	catFR1	1	R1683A
511.142	1.601	523143	WORD	n/a	wordpools/wordpool_categorized_EN.txt	POTATO	Vegetables	1	3	[0, 0, 0]	n/a	catFR1	1	R1683A
512.743	0.959	524745	WORD_OFF	n/a	n/a	POTATO	Vegetables	1	3	[0, 0, 0]	n/a	catFR1	1	R1683A
513.702	1.609	525705	WORD	n/a	wordpools/wordpool_categorized_EN.txt	CUCUMBER	Vegetables	2	3	[0, 0, 0]	n/a	catFR1	1	R1683A
515.311	0.891	527318	WORD_OFF	n/a	n/a	CUCUMBER	Vegetables	2	3	[0, 0, 0]	n/a	catFR1	1	R1683A
516.202	1.607	528212	WORD	n/a	wordpools/wordpool_categorized_EN.txt	NOTEBOOK	OfficeSupplies	3	3	[0, 0, 0]	n/a	catFR1	1	R1683A
517.809	0.81	529814	WORD_OFF	n/a	n/a	NOTEBOOK	OfficeSupplies	3	3	[0, 0, 0]	n/a	catFR1	1	R1683A
518.619	1.606	530621	WORD	n/a	wordpools/wordpool_categorized_EN.txt	TAPE	OfficeSupplies	4	3	[0, 0, 0]	n/a	catFR1	1	R1683A
520.225	0.777	532234	WORD_OFF	n/a	n/a	TAPE	OfficeSupplies	4	3	[0, 0, 0]	n/a	catFR1	1	R1683A
521.002	1.606	533008	WORD	n/a	wordpools/wordpool_categorized_EN.txt	SODA	Beverages	5	3	[0, 0, 0]	n/a	catFR1	1	R1683A
522.608	0.777	534611	WORD_OFF	n/a	n/a	SODA	Beverages	5	3	[0, 0, 0]	n/a	catFR1	1	R1683A
523.385	1.607	535385	WORD	n/a	wordpools/wordpool_categorized_EN.txt	COFFEE	Beverages	6	3	[0, 0, 0]	n/a	catFR1	1	R1683A
524.992	0.933	536998	WORD_OFF	n/a	n/a	COFFEE	Beverages	6	3	[0, 0, 0]	n/a	catFR1	1	R1683A
525.925	1.6	537936	WORD	n/a	wordpools/wordpool_categorized_EN.txt	PEN	OfficeSupplies	7	3	[0, 0, 0]	n/a	catFR1	1	R1683A
527.525	0.875	539527	WORD_OFF	n/a	n/a	PEN	OfficeSupplies	7	3	[0, 0, 0]	n/a	catFR1	1	R1683A
528.4	1.601	540410	WORD	n/a	wordpools/wordpool_categorized_EN.txt	FOLDER	OfficeSupplies	8	3	[0, 0, 0]	n/a	catFR1	1	R1683A
530.001	0.818	542002	WORD_OFF	n/a	n/a	FOLDER	OfficeSupplies	8	3	[0, 0, 0]	n/a	catFR1	1	R1683A
530.819	1.606	542830	WORD	n/a	wordpools/wordpool_categorized_EN.txt	WINE	Beverages	9	3	[0, 0, 0]	n/a	catFR1	1	R1683A
532.425	0.795	544433	WORD_OFF	n/a	n/a	WINE	Beverages	9	3	[0, 0, 0]	n/a	catFR1	1	R1683A
533.22	1.607	545228	WORD	n/a	wordpools/wordpool_categorized_EN.txt	COLA	Beverages	10	3	[0, 0, 0]	n/a	catFR1	1	R1683A
534.827	0.974	546831	WORD_OFF	n/a	n/a	COLA	Beverages	10	3	[0, 0, 0]	n/a	catFR1	1	R1683A
535.801	1.609	547812	WORD	n/a	wordpools/wordpool_categorized_EN.txt	CARROT	Vegetables	11	3	[0, 0, 0]	n/a	catFR1	1	R1683A
537.41	0.991	549414	WORD_OFF	n/a	n/a	CARROT	Vegetables	11	3	[0, 0, 0]	n/a	catFR1	1	R1683A
538.401	1.6	550406	WORD	n/a	wordpools/wordpool_categorized_EN.txt	ONION	Vegetables	12	3	[0, 0, 0]	n/a	catFR1	1	R1683A
540.001	0.001	552008	PROB	0.001	n/a	n/a	n/a	-999	3	[8, 6, 1]	15	catFR1	1	R1683A
540.002	0.003	552009	WORD_OFF	n/a	n/a	ONION	Vegetables	12	3	[0, 0, 0]	n/a	catFR1	1	R1683A
540.005	0.0	552009	ENCODING_END	n/a	n/a	n/a	n/a	-999	3	[0, 0, 0]	n/a	catFR1	1	R1683A
540.005	0.0	552009	DISTRACT_START	n/a	n/a	n/a	n/a	-999	3	[0, 0, 0]	n/a	catFR1	1	R1683A
540.005	5.246	552012	START	n/a	n/a	n/a	n/a	-999	3	[-999, -999, -999]	n/a	catFR1	1	R1683A
545.251	2.818	557258	PROB	2.818	n/a	n/a	n/a	-999	3	[3, 7, 1]	11	catFR1	1	R1683A
548.069	2.649	560076	PROB	2.649	n/a	n/a	n/a	-999	3	[6, 4, 1]	11	catFR1	1	R1683A
550.718	3.149	562725	PROB	3.149	n/a	n/a	n/a	-999	3	[1, 7, 1]	9	catFR1	1	R1683A
553.867	4.801	565874	PROB	4.801	n/a	n/a	n/a	-999	3	[7, 1, 6]	14	catFR1	1	R1683A
558.668	14.507	570675	PROB	14.507	n/a	n/a	n/a	-999	3	[4, 7, 1]	12	catFR1	1	R1683A
573.175	0.0	585181	DISTRACT_END	n/a	n/a	n/a	n/a	-999	3	[0, 0, 0]	n/a	catFR1	1	R1683A
573.175	2.119	585182	STOP	n/a	n/a	n/a	n/a	-999	3	[-999, -999, -999]	n/a	catFR1	1	R1683A
575.294	0.74	587296	REC_START	n/a	n/a	n/a	n/a	-999	3	[0, 0, 0]	n/a	catFR1	1	R1683A
576.034	1.407	588041	REC_WORD	1.407	n/a	POTATO	Vegetables	1	3	[0, 0, 0]	n/a	catFR1	1	R1683A
577.441	1.0	589448	REC_WORD	1.0	n/a	CUCUMBER	Vegetables	2	3	[0, 0, 0]	n/a	catFR1	1	R1683A
578.441	1.173	590448	REC_WORD_VV	1.173	n/a	<>	n/a	-999	3	[0, 0, 0]	n/a	catFR1	1	R1683A
579.614	5.372	591621	REC_WORD	5.372	n/a	ONION	Vegetables	12	3	[0, 0, 0]	n/a	catFR1	1	R1683A
584.986	1.0	596993	REC_WORD_VV	1.0	n/a	<>	n/a	-999	3	[0, 0, 0]	n/a	catFR1	1	R1683A
585.986	0.655	597993	REC_WORD_VV	0.655	n/a	<>	n/a	-999	3	[0, 0, 0]	n/a	catFR1	1	R1683A
586.641	2.288	598648	REC_WORD	2.288	n/a	COLA	Beverages	10	3	[0, 0, 0]	n/a	catFR1	1	R1683A
588.929	7.161	600936	REC_WORD	7.161	n/a	WINE	Beverages	9	3	[0, 0, 0]	n/a	catFR1	1	R1683A
596.09	2.199	608097	REC_WORD_VV	2.199	n/a	<>	n/a	-999	3	[0, 0, 0]	n/a	catFR1	1	R1683A
598.289	1.598	610296	REC_WORD	1.598	n/a	NOTEBOOK	OfficeSupplies	3	3	[0, 0, 0]	n/a	catFR1	1	R1683A
599.887	5.549	611894	REC_WORD	5.549	n/a	PEN	OfficeSupplies	7	3	[0, 0, 0]	n/a	catFR1	1	R1683A
605.436	7.614	617437	REC_END	n/a	n/a	n/a	n/a	-999	3	[0, 0, 0]	n/a	catFR1	1	R1683A
613.05	10.342	625057	COUNTDOWN_START	n/a	n/a	n/a	n/a	-999	4	[0, 0, 0]	n/a	catFR1	1	R1683A
623.392	0.001	635402	COUNTDOWN_END	n/a	n/a	n/a	n/a	-999	4	[0, 0, 0]	n/a	catFR1	1	R1683A
623.393	1.892	635402	ENCODING_START	n/a	n/a	n/a	n/a	-999	4	[0, 0, 0]	n/a	catFR1	1	R1683A
625.285	1.608	637288	WORD	n/a	wordpools/wordpool_categorized_EN.txt	TRUMPET	Instruments	1	4	[0, 0, 0]	n/a	catFR1	1	R1683A
626.893	0.767	638902	WORD_OFF	n/a	n/a	TRUMPET	Instruments	1	4	[0, 0, 0]	n/a	catFR1	1	R1683A
627.66	1.608	639665	WORD	n/a	wordpools/wordpool_categorized_EN.txt	GUITAR	Instruments	2	4	[0, 0, 0]	n/a	catFR1	1	R1683A
629.268	0.767	641278	WORD_OFF	n/a	n/a	GUITAR	Instruments	2	4	[0, 0, 0]	n/a	catFR1	1	R1683A
630.035	1.6	642041	WORD	n/a	wordpools/wordpool_categorized_EN.txt	STAPLER	OfficeSupplies	3	4	[0, 0, 0]	n/a	catFR1	1	R1683A
631.635	0.9	643644	WORD_OFF	n/a	n/a	STAPLER	OfficeSupplies	3	4	[0, 0, 0]	n/a	catFR1	1	R1683A
632.535	1.608	644537	WORD	n/a	wordpools/wordpool_categorized_EN.txt	PAPER	OfficeSupplies	4	4	[0, 0, 0]	n/a	catFR1	1	R1683A
634.143	0.758	646151	WORD_OFF	n/a	n/a	PAPER	OfficeSupplies	4	4	[0, 0, 0]	n/a	catFR1	1	R1683A
634.901	1.6	646903	WORD	n/a	wordpools/wordpool_categorized_EN.txt	DRYER	Appliances	5	4	[0, 0, 0]	n/a	catFR1	1	R1683A
636.501	0.941	648505	WORD_OFF	n/a	n/a	DRYER	Appliances	5	4	[0, 0, 0]	n/a	catFR1	1	R1683A
637.442	1.608	649443	WORD	n/a	wordpools/wordpool_categorized_EN.txt	TOASTER	Appliances	6	4	[0, 0, 0]	n/a	catFR1	1	R1683A
639.05	0.868	651056	WORD_OFF	n/a	n/a	TOASTER	Appliances	6	4	[0, 0, 0]	n/a	catFR1	1	R1683A
639.918	1.6	651928	WORD	n/a	wordpools/wordpool_categorized_EN.txt	ERASER	OfficeSupplies	7	4	[0, 0, 0]	n/a	catFR1	1	R1683A
641.518	0.925	653520	WORD_OFF	n/a	n/a	ERASER	OfficeSupplies	7	4	[0, 0, 0]	n/a	catFR1	1	R1683A
642.443	1.6	654447	WORD	n/a	wordpools/wordpool_categorized_EN.txt	MARKER	OfficeSupplies	8	4	[0, 0, 0]	n/a	catFR1	1	R1683A
644.043	0.967	656049	WORD_OFF	n/a	n/a	MARKER	OfficeSupplies	8	4	[0, 0, 0]	n/a	catFR1	1	R1683A
645.01	1.608	657019	WORD	n/a	wordpools/wordpool_categorized_EN.txt	FLUTE	Instruments	9	4	[0, 0, 0]	n/a	catFR1	1	R1683A
646.618	0.832	658622	WORD_OFF	n/a	n/a	FLUTE	Instruments	9	4	[0, 0, 0]	n/a	catFR1	1	R1683A
647.45	1.6	659450	WORD	n/a	wordpools/wordpool_categorized_EN.txt	BASS	Instruments	10	4	[0, 0, 0]	n/a	catFR1	1	R1683A
649.05	0.942	661053	WORD_OFF	n/a	n/a	BASS	Instruments	10	4	[0, 0, 0]	n/a	catFR1	1	R1683A
649.992	1.601	662001	WORD	n/a	wordpools/wordpool_categorized_EN.txt	FREEZER	Appliances	11	4	[0, 0, 0]	n/a	catFR1	1	R1683A
651.593	0.89	663593	WORD_OFF	n/a	n/a	FREEZER	Appliances	11	4	[0, 0, 0]	n/a	catFR1	1	R1683A
652.483	1.61	664486	WORD	n/a	wordpools/wordpool_categorized_EN.txt	BLENDER	Appliances	12	4	[0, 0, 0]	n/a	catFR1	1	R1683A
654.093	0.005	666100	WORD_OFF	n/a	n/a	BLENDER	Appliances	12	4	[0, 0, 0]	n/a	catFR1	1	R1683A
654.098	0.0	666100	ENCODING_END	n/a	n/a	n/a	n/a	-999	4	[0, 0, 0]	n/a	catFR1	1	R1683A
654.098	0.0	666100	DISTRACT_START	n/a	n/a	n/a	n/a	-999	4	[0, 0, 0]	n/a	catFR1	1	R1683A
654.094	0.004	666100	PROB	0.004	n/a	n/a	n/a	-999	4	[7, 7, 3]	17	catFR1	1	R1683A
654.098	13.82	666104	START	n/a	n/a	n/a	n/a	-999	4	[-999, -999, -999]	n/a	catFR1	1	R1683A
667.918	3.909	679924	PROB	3.909	n/a	n/a	n/a	-999	4	[1, 5, 6]	12	catFR1	1	R1683A
671.827	7.974	683833	PROB	7.974	n/a	n/a	n/a	-999	4	[6, 8, 6]	20	catFR1	1	R1683A
679.801	0.0	691805	DISTRACT_END	n/a	n/a	n/a	n/a	-999	4	[0, 0, 0]	n/a	catFR1	1	R1683A
679.801	2.4	691807	STOP	n/a	n/a	n/a	n/a	-999	4	[-999, -999, -999]	n/a	catFR1	1	R1683A
682.201	1.133	694203	REC_START	n/a	n/a	n/a	n/a	-999	4	[0, 0, 0]	n/a	catFR1	1	R1683A
683.334	1.369	695340	REC_WORD	1.369	n/a	TRUMPET	Instruments	1	4	[0, 0, 0]	n/a	catFR1	1	R1683A
684.703	1.774	696709	REC_WORD	1.774	n/a	GUITAR	Instruments	2	4	[0, 0, 0]	n/a	catFR1	1	R1683A
686.477	3.815	698483	REC_WORD	3.815	n/a	FLUTE	Instruments	9	4	[0, 0, 0]	n/a	catFR1	1	R1683A
690.292	2.503	702298	REC_WORD	2.503	n/a	STAPLER	OfficeSupplies	3	4	[0, 0, 0]	n/a	catFR1	1	R1683A
692.795	1.69	704801	REC_WORD	1.69	n/a	PAPER	OfficeSupplies	4	4	[0, 0, 0]	n/a	catFR1	1	R1683A
694.485	9.181	706491	REC_WORD	9.181	n/a	ERASER	OfficeSupplies	7	4	[0, 0, 0]	n/a	catFR1	1	R1683A
703.666	1.0	715672	REC_WORD_VV	1.0	n/a	<>	n/a	-999	4	[0, 0, 0]	n/a	catFR1	1	R1683A
704.666	1.0	716672	REC_WORD_VV	1.0	n/a	<>	n/a	-999	4	[0, 0, 0]	n/a	catFR1	1	R1683A
705.666	1.0	717672	REC_WORD_VV	1.0	n/a	<>	n/a	-999	4	[0, 0, 0]	n/a	catFR1	1	R1683A
706.666	5.679	718672	REC_WORD_VV	5.679	n/a	<>	n/a	-999	4	[0, 0, 0]	n/a	catFR1	1	R1683A
712.345	9.363	724344	REC_END	n/a	n/a	n/a	n/a	-999	4	[0, 0, 0]	n/a	catFR1	1	R1683A
721.708	10.344	733708	COUNTDOWN_START	n/a	n/a	n/a	n/a	-999	5	[0, 0, 0]	n/a	catFR1	1	R1683A
732.052	0.0	744053	COUNTDOWN_END	n/a	n/a	n/a	n/a	-999	5	[0, 0, 0]	n/a	catFR1	1	R1683A
732.052	2.007	744053	ENCODING_START	n/a	n/a	n/a	n/a	-999	5	[0, 0, 0]	n/a	catFR1	1	R1683A
734.059	1.608	746059	WORD	n/a	wordpools/wordpool_categorized_EN.txt	LILY	Flowers	1	5	[0, 0, 0]	n/a	catFR1	1	R1683A
735.667	0.916	747673	WORD_OFF	n/a	n/a	LILY	Flowers	1	5	[0, 0, 0]	n/a	catFR1	1	R1683A
736.583	1.6	748588	WORD	n/a	wordpools/wordpool_categorized_EN.txt	DAISY	Flowers	2	5	[0, 0, 0]	n/a	catFR1	1	R1683A
738.183	1.001	750191	WORD_OFF	n/a	n/a	DAISY	Flowers	2	5	[0, 0, 0]	n/a	catFR1	1	R1683A
739.184	1.609	751194	WORD	n/a	wordpools/wordpool_categorized_EN.txt	KNEE	BodyParts	3	5	[0, 0, 0]	n/a	catFR1	1	R1683A
740.793	0.865	752796	WORD_OFF	n/a	n/a	KNEE	BodyParts	3	5	[0, 0, 0]	n/a	catFR1	1	R1683A
741.658	1.61	753668	WORD	n/a	wordpools/wordpool_categorized_EN.txt	HAND	BodyParts	4	5	[0, 0, 0]	n/a	catFR1	1	R1683A
743.268	0.815	755271	WORD_OFF	n/a	n/a	HAND	BodyParts	4	5	[0, 0, 0]	n/a	catFR1	1	R1683A
744.083	1.602	756088	WORD	n/a	wordpools/wordpool_categorized_EN.txt	PIGEON	Birds	5	5	[0, 0, 0]	n/a	catFR1	1	R1683A
745.685	0.858	757691	WORD_OFF	n/a	n/a	PIGEON	Birds	5	5	[0, 0, 0]	n/a	catFR1	1	R1683A
746.543	1.607	758552	WORD	n/a	wordpools/wordpool_categorized_EN.txt	SPARROW	Birds	6	5	[0, 0, 0]	n/a	catFR1	1	R1683A
748.15	0.892	760154	WORD_OFF	n/a	n/a	SPARROW	Birds	6	5	[0, 0, 0]	n/a	catFR1	1	R1683A
749.042	1.601	761048	WORD	n/a	wordpools/wordpool_categorized_EN.txt	DAFFODIL	Flowers	7	5	[0, 0, 0]	n/a	catFR1	1	R1683A
750.643	0.758	762651	WORD_OFF	n/a	n/a	DAFFODIL	Flowers	7	5	[0, 0, 0]	n/a	catFR1	1	R1683A
751.401	1.6	763403	WORD	n/a	wordpools/wordpool_categorized_EN.txt	VIOLET	Flowers	8	5	[0, 0, 0]	n/a	catFR1	1	R1683A
753.001	0.982	765005	WORD_OFF	n/a	n/a	VIOLET	Flowers	8	5	[0, 0, 0]	n/a	catFR1	1	R1683A
753.983	1.602	765986	WORD	n/a	wordpools/wordpool_categorized_EN.txt	FINCH	Birds	9	5	[0, 0, 0]	n/a	catFR1	1	R1683A
755.585	0.908	767589	WORD_OFF	n/a	n/a	FINCH	Birds	9	5	[0, 0, 0]	n/a	catFR1	1	R1683A
756.493	1.608	768494	WORD	n/a	wordpools/wordpool_categorized_EN.txt	BLUEBIRD	Birds	10	5	[0, 0, 0]	n/a	catFR1	1	R1683A
758.101	0.825	770107	WORD_OFF	n/a	n/a	BLUEBIRD	Birds	10	5	[0, 0, 0]	n/a	catFR1	1	R1683A
758.926	1.6	770936	WORD	n/a	wordpools/wordpool_categorized_EN.txt	EYE	BodyParts	11	5	[0, 0, 0]	n/a	catFR1	1	R1683A
760.526	0.934	772527	WORD_OFF	n/a	n/a	EYE	BodyParts	11	5	[0, 0, 0]	n/a	catFR1	1	R1683A
761.46	1.608	773465	WORD	n/a	wordpools/wordpool_categorized_EN.txt	ARM	BodyParts	12	5	[0, 0, 0]	n/a	catFR1	1	R1683A
763.068	0.0	775067	WORD_OFF	n/a	n/a	ARM	BodyParts	12	5	[0, 0, 0]	n/a	catFR1	1	R1683A
763.068	0.002	775074	PROB	0.002	n/a	n/a	n/a	-999	5	[2, 8, 8]	18	catFR1	1	R1683A
763.07	0.0	775076	START	n/a	n/a	n/a	n/a	-999	5	[-999, -999, -999]	n/a	catFR1	1	R1683A
763.07	0.0	775078	ENCODING_END	n/a	n/a	n/a	n/a	-999	5	[0, 0, 0]	n/a	catFR1	1	R1683A
763.07	4.264	775078	DISTRACT_START	n/a	n/a	n/a	n/a	-999	5	[0, 0, 0]	n/a	catFR1	1	R1683A
767.334	2.768	779340	PROB	2.768	n/a	n/a	n/a	-999	5	[1, 2, 8]	11	catFR1	1	R1683A
770.102	3.865	782108	PROB	3.865	n/a	n/a	n/a	-999	5	[2, 5, 1]	8	catFR1	1	R1683A
773.967	4.727	785973	PROB	4.727	n/a	n/a	n/a	-999	5	[3, 4, 8]	15	catFR1	1	R1683A
778.694	3.423	790700	PROB	3.423	n/a	n/a	n/a	-999	5	[6, 8, 2]	16	catFR1	1	R1683A
782.117	9.276	794123	PROB	9.276	n/a	n/a	n/a	-999	5	[5, 8, 7]	20	catFR1	1	R1683A
791.393	0.0	803399	DISTRACT_END	n/a	n/a	n/a	n/a	-999	5	[0, 0, 0]	n/a	catFR1	1	R1683A
791.393	2.34	803399	STOP	n/a	n/a	n/a	n/a	-999	5	[-999, -999, -999]	n/a	catFR1	1	R1683A
793.733	1.314	805743	REC_START	n/a	n/a	n/a	n/a	-999	5	[0, 0, 0]	n/a	catFR1	1	R1683A
795.047	1.972	807053	REC_WORD	1.972	n/a	FINCH	Birds	9	5	[0, 0, 0]	n/a	catFR1	1	R1683A
797.019	3.526	809025	REC_WORD	3.526	n/a	SPARROW	Birds	6	5	[0, 0, 0]	n/a	catFR1	1	R1683A
800.545	2.088	812551	REC_WORD	2.088	n/a	PIGEON	Birds	5	5	[0, 0, 0]	n/a	catFR1	1	R1683A
802.633	2.294	814639	REC_WORD	2.294	n/a	VIOLET	Flowers	8	5	[0, 0, 0]	n/a	catFR1	1	R1683A
804.927	1.575	816933	REC_WORD	1.575	n/a	LILY	Flowers	1	5	[0, 0, 0]	n/a	catFR1	1	R1683A
806.502	5.912	818508	REC_WORD	5.912	n/a	DAFFODIL	Flowers	7	5	[0, 0, 0]	n/a	catFR1	1	R1683A
812.414	1.0	824420	REC_WORD_VV	1.0	n/a	<>	n/a	-999	5	[0, 0, 0]	n/a	catFR1	1	R1683A
813.414	5.459	825420	REC_WORD_VV	5.459	n/a	<>	n/a	-999	5	[0, 0, 0]	n/a	catFR1	1	R1683A
818.873	1.716	830879	REC_WORD	1.716	n/a	EAR	BodyParts	-999	5	[0, 0, 0]	n/a	catFR1	1	R1683A
820.589	3.29	832595	REC_WORD	3.29	n/a	ARM	BodyParts	12	5	[0, 0, 0]	n/a	catFR1	1	R1683A
823.879	8.021	835884	REC_END	n/a	n/a	n/a	n/a	-999	5	[0, 0, 0]	n/a	catFR1	1	R1683A
831.9	10.344	843907	COUNTDOWN_START	n/a	n/a	n/a	n/a	-999	6	[0, 0, 0]	n/a	catFR1	1	R1683A
842.244	0.0	854253	COUNTDOWN_END	n/a	n/a	n/a	n/a	-999	6	[0, 0, 0]	n/a	catFR1	1	R1683A
842.244	1.999	854253	ENCODING_START	n/a	n/a	n/a	n/a	-999	6	[0, 0, 0]	n/a	catFR1	1	R1683A
844.243	1.608	856248	WORD	n/a	wordpools/wordpool_categorized_EN.txt	TULIP	Flowers	1	6	[0, 0, 0]	n/a	catFR1	1	R1683A
845.851	0.967	857850	WORD_OFF	n/a	n/a	TULIP	Flowers	1	6	[0, 0, 0]	n/a	catFR1	1	R1683A
846.818	1.608	858820	WORD	n/a	wordpools/wordpool_categorized_EN.txt	LILAC	Flowers	2	6	[0, 0, 0]	n/a	catFR1	1	R1683A
848.426	0.95	860434	WORD_OFF	n/a	n/a	LILAC	Flowers	2	6	[0, 0, 0]	n/a	catFR1	1	R1683A
849.376	1.609	861382	WORD	n/a	wordpools/wordpool_categorized_EN.txt	HICKORY	Trees	3	6	[0, 0, 0]	n/a	catFR1	1	R1683A
850.985	0.783	862984	WORD_OFF	n/a	n/a	HICKORY	Trees	3	6	[0, 0, 0]	n/a	catFR1	1	R1683A
851.768	1.607	863769	WORD	n/a	wordpools/wordpool_categorized_EN.txt	WALNUT	Trees	4	6	[0, 0, 0]	n/a	catFR1	1	R1683A
853.375	0.883	865383	WORD_OFF	n/a	n/a	WALNUT	Trees	4	6	[0, 0, 0]	n/a	catFR1	1	R1683A
854.258	1.6	866266	WORD	n/a	wordpools/wordpool_categorized_EN.txt	MOUNTAIN	Landscapes	5	6	[0, 0, 0]	n/a	catFR1	1	R1683A
855.858	0.91	867868	WORD_OFF	n/a	n/a	MOUNTAIN	Landscapes	5	6	[0, 0, 0]	n/a	catFR1	1	R1683A
856.768	1.6	868773	WORD	n/a	wordpools/wordpool_categorized_EN.txt	FOREST	Landscapes	6	6	[0, 0, 0]	n/a	catFR1	1	R1683A
858.368	0.974	870375	WORD_OFF	n/a	n/a	FOREST	Landscapes	6	6	[0, 0, 0]	n/a	catFR1	1	R1683A
859.342	1.601	871346	WORD	n/a	wordpools/wordpool_categorized_EN.txt	SPRUCE	Trees	7	6	[0, 0, 0]	n/a	catFR1	1	R1683A
860.943	0.815	872948	WORD_OFF	n/a	n/a	SPRUCE	Trees	7	6	[0, 0, 0]	n/a	catFR1	1	R1683A
861.758	1.602	873766	WORD	n/a	wordpools/wordpool_categorized_EN.txt	EVERGREEN	Trees	8	6	[0, 0, 0]	n/a	catFR1	1	R1683A
863.36	0.95	875368	WORD_OFF	n/a	n/a	EVERGREEN	Trees	8	6	[0, 0, 0]	n/a	catFR1	1	R1683A
864.31	1.607	876316	WORD	n/a	wordpools/wordpool_categorized_EN.txt	SUNFLOWER	Flowers	9	6	[0, 0, 0]	n/a	catFR1	1	R1683A
865.917	0.966	877919	WORD_OFF	n/a	n/a	SUNFLOWER	Flowers	9	6	[0, 0, 0]	n/a	catFR1	1	R1683A
866.883	1.602	878889	WORD	n/a	wordpools/wordpool_categorized_EN.txt	CARNATION	Flowers	10	6	[0, 0, 0]	n/a	catFR1	1	R1683A
868.485	0.841	880492	WORD_OFF	n/a	n/a	CARNATION	Flowers	10	6	[0, 0, 0]	n/a	catFR1	1	R1683A
869.326	1.607	881331	WORD	n/a	wordpools/wordpool_categorized_EN.txt	VALLEY	Landscapes	11	6	[0, 0, 0]	n/a	catFR1	1	R1683A
870.933	0.951	882933	WORD_OFF	n/a	n/a	VALLEY	Landscapes	11	6	[0, 0, 0]	n/a	catFR1	1	R1683A
871.884	1.607	883893	WORD	n/a	wordpools/wordpool_categorized_EN.txt	BEACH	Landscapes	12	6	[0, 0, 0]	n/a	catFR1	1	R1683A
873.491	0.003	885495	WORD_OFF	n/a	n/a	BEACH	Landscapes	12	6	[0, 0, 0]	n/a	catFR1	1	R1683A
873.494	0.0	885495	ENCODING_END	n/a	n/a	n/a	n/a	-999	6	[0, 0, 0]	n/a	catFR1	1	R1683A
873.494	0.0	885495	DISTRACT_START	n/a	n/a	n/a	n/a	-999	6	[0, 0, 0]	n/a	catFR1	1	R1683A
873.493	0.001	885498	PROB	0.001	n/a	n/a	n/a	-999	6	[5, 3, 7]	15	catFR1	1	R1683A
873.494	4.433	885499	START	n/a	n/a	n/a	n/a	-999	6	[-999, -999, -999]	n/a	catFR1	1	R1683A
877.927	15.333	889932	PROB	15.333	n/a	n/a	n/a	-999	6	[8, 7, 8]	21	catFR1	1	R1683A
893.26	4.507	905265	PROB	4.507	n/a	n/a	n/a	-999	6	[4, 4, 3]	11	catFR1	1	R1683A
897.767	0.0	909772	DISTRACT_END	n/a	n/a	n/a	n/a	-999	6	[0, 0, 0]	n/a	catFR1	1	R1683A
897.767	2.067	909772	STOP	n/a	n/a	n/a	n/a	-999	6	[-999, -999, -999]	n/a	catFR1	1	R1683A
899.834	1.428	911843	REC_START	n/a	n/a	n/a	n/a	-999	6	[0, 0, 0]	n/a	catFR1	1	R1683A
901.262	2.941	913267	REC_WORD	2.941	n/a	HICKORY	Trees	3	6	[0, 0, 0]	n/a	catFR1	1	R1683A
904.203	2.623	916208	REC_WORD	2.623	n/a	WALNUT	Trees	4	6	[0, 0, 0]	n/a	catFR1	1	R1683A
906.826	1.442	918831	REC_WORD	1.442	n/a	BEACH	Landscapes	12	6	[0, 0, 0]	n/a	catFR1	1	R1683A
908.268	1.751	920273	REC_WORD	1.751	n/a	MOUNTAIN	Landscapes	5	6	[0, 0, 0]	n/a	catFR1	1	R1683A
910.019	4.107	922024	REC_WORD	4.107	n/a	VALLEY	Landscapes	11	6	[0, 0, 0]	n/a	catFR1	1	R1683A
914.126	0.078	926131	REC_WORD_VV	0.078	n/a	<>	n/a	-999	6	[0, 0, 0]	n/a	catFR1	1	R1683A
914.204	1.0	926209	REC_WORD	1.0	n/a	LILY	Flowers	-999	6	[0, 0, 0]	n/a	catFR1	1	R1683A
915.204	1.228	927209	REC_WORD_VV	1.228	n/a	<>	n/a	-999	6	[0, 0, 0]	n/a	catFR1	1	R1683A
916.432	1.0	928437	REC_WORD_VV	1.0	n/a	<>	n/a	-999	6	[0, 0, 0]	n/a	catFR1	1	R1683A
917.432	3.112	929437	REC_WORD_VV	3.112	n/a	<>	n/a	-999	6	[0, 0, 0]	n/a	catFR1	1	R1683A
920.544	1.0	932549	REC_WORD	1.0	n/a	SPRUCE	Trees	7	6	[0, 0, 0]	n/a	catFR1	1	R1683A
921.544	1.0	933549	REC_WORD_VV	1.0	n/a	<>	n/a	-999	6	[0, 0, 0]	n/a	catFR1	1	R1683A
922.544	0.18	934549	REC_WORD_VV	0.18	n/a	<>	n/a	-999	6	[0, 0, 0]	n/a	catFR1	1	R1683A
922.724	1.0	934729	REC_WORD_VV	1.0	n/a	<>	n/a	-999	6	[0, 0, 0]	n/a	catFR1	1	R1683A
923.724	2.868	935729	REC_WORD_VV	2.868	n/a	<>	n/a	-999	6	[0, 0, 0]	n/a	catFR1	1	R1683A
926.592	3.382	938597	REC_WORD	3.382	n/a	EVERGREEN	Trees	8	6	[0, 0, 0]	n/a	catFR1	1	R1683A
929.974	3.318	941974	REC_END	n/a	n/a	n/a	n/a	-999	6	[0, 0, 0]	n/a	catFR1	1	R1683A
933.292	10.341	945299	COUNTDOWN_START	n/a	n/a	n/a	n/a	-999	7	[0, 0, 0]	n/a	catFR1	1	R1683A
943.633	0.001	955633	COUNTDOWN_END	n/a	n/a	n/a	n/a	-999	7	[0, 0, 0]	n/a	catFR1	1	R1683A
943.634	1.968	955644	ENCODING_START	n/a	n/a	n/a	n/a	-999	7	[0, 0, 0]	n/a	catFR1	1	R1683A
945.602	1.599	957606	WORD	n/a	wordpools/wordpool_categorized_EN.txt	TELEVISION	Electronics	1	7	[0, 0, 0]	n/a	catFR1	1	R1683A
947.201	0.933	959208	WORD_OFF	n/a	n/a	TELEVISION	Electronics	1	7	[0, 0, 0]	n/a	catFR1	1	R1683A
948.134	1.6	960135	WORD	n/a	wordpools/wordpool_categorized_EN.txt	RADIO	Electronics	2	7	[0, 0, 0]	n/a	catFR1	1	R1683A
949.734	0.959	961737	WORD_OFF	n/a	n/a	RADIO	Electronics	2	7	[0, 0, 0]	n/a	catFR1	1	R1683A
950.693	1.6	962697	WORD	n/a	wordpools/wordpool_categorized_EN.txt	APPLE	Fruit	3	7	[0, 0, 0]	n/a	catFR1	1	R1683A
952.293	0.808	964299	WORD_OFF	n/a	n/a	APPLE	Fruit	3	7	[0, 0, 0]	n/a	catFR1	1	R1683A
953.101	1.609	965106	WORD	n/a	wordpools/wordpool_categorized_EN.txt	PEACH	Fruit	4	7	[0, 0, 0]	n/a	catFR1	1	R1683A
954.71	0.94	966719	WORD_OFF	n/a	n/a	PEACH	Fruit	4	7	[0, 0, 0]	n/a	catFR1	1	R1683A
955.65	1.6	967657	WORD	n/a	wordpools/wordpool_categorized_EN.txt	UNDERWEAR	Clothing	5	7	[0, 0, 0]	n/a	catFR1	1	R1683A
957.25	0.768	969248	WORD_OFF	n/a	n/a	UNDERWEAR	Clothing	5	7	[0, 0, 0]	n/a	catFR1	1	R1683A
958.018	1.6	970022	WORD	n/a	wordpools/wordpool_categorized_EN.txt	BLOUSE	Clothing	6	7	[0, 0, 0]	n/a	catFR1	1	R1683A
959.618	0.899	971625	WORD_OFF	n/a	n/a	BLOUSE	Clothing	6	7	[0, 0, 0]	n/a	catFR1	1	R1683A
960.517	1.6	972519	WORD	n/a	wordpools/wordpool_categorized_EN.txt	SCANNER	Electronics	7	7	[0, 0, 0]	n/a	catFR1	1	R1683A
962.117	0.9	974121	WORD_OFF	n/a	n/a	SCANNER	Electronics	7	7	[0, 0, 0]	n/a	catFR1	1	R1683A
963.017	1.599	975015	WORD	n/a	wordpools/wordpool_categorized_EN.txt	HEADPHONES	Electronics	8	7	[0, 0, 0]	n/a	catFR1	1	R1683A
964.616	0.8	976617	WORD_OFF	n/a	n/a	HEADPHONES	Electronics	8	7	[0, 0, 0]	n/a	catFR1	1	R1683A
965.416	1.602	977424	WORD	n/a	wordpools/wordpool_categorized_EN.txt	SOCKS	Clothing	9	7	[0, 0, 0]	n/a	catFR1	1	R1683A
967.018	0.966	979026	WORD_OFF	n/a	n/a	SOCKS	Clothing	9	7	[0, 0, 0]	n/a	catFR1	1	R1683A
967.984	1.601	979986	WORD	n/a	wordpools/wordpool_categorized_EN.txt	JEANS	Clothing	10	7	[0, 0, 0]	n/a	catFR1	1	R1683A
969.585	0.898	981588	WORD_OFF	n/a	n/a	JEANS	Clothing	10	7	[0, 0, 0]	n/a	catFR1	1	R1683A
970.483	1.6	982482	WORD	n/a	wordpools/wordpool_categorized_EN.txt	LEMON	Fruit	11	7	[0, 0, 0]	n/a	catFR1	1	R1683A
972.083	0.85	984085	WORD_OFF	n/a	n/a	LEMON	Fruit	11	7	[0, 0, 0]	n/a	catFR1	1	R1683A
972.933	1.6	984935	WORD	n/a	wordpools/wordpool_categorized_EN.txt	LIME	Fruit	12	7	[0, 0, 0]	n/a	catFR1	1	R1683A
974.533	0.003	986537	WORD_OFF	n/a	n/a	LIME	Fruit	12	7	[0, 0, 0]	n/a	catFR1	1	R1683A
974.536	0.0	986537	ENCODING_END	n/a	n/a	n/a	n/a	-999	7	[0, 0, 0]	n/a	catFR1	1	R1683A
974.536	0.0	986537	DISTRACT_START	n/a	n/a	n/a	n/a	-999	7	[0, 0, 0]	n/a	catFR1	1	R1683A
974.534	0.002	986539	PROB	0.002	n/a	n/a	n/a	-999	7	[3, 2, 4]	9	catFR1	1	R1683A
974.536	8.849	986541	START	n/a	n/a	n/a	n/a	-999	7	[-999, -999, -999]	n/a	catFR1	1	R1683A
983.385	5.509	995390	PROB	5.509	n/a	n/a	n/a	-999	7	[2, 1, 2]	5	catFR1	1	R1683A
988.894	4.058	1000899	PROB	4.058	n/a	n/a	n/a	-999	7	[6, 3, 7]	16	catFR1	1	R1683A
992.952	4.223	1004957	PROB	4.223	n/a	n/a	n/a	-999	7	[8, 2, 8]	18	catFR1	1	R1683A
997.175	0.0	1009179	DISTRACT_END	n/a	n/a	n/a	n/a	-999	7	[0, 0, 0]	n/a	catFR1	1	R1683A
997.175	2.376	1009180	STOP	n/a	n/a	n/a	n/a	-999	7	[-999, -999, -999]	n/a	catFR1	1	R1683A
999.551	3.552	1011555	REC_START	n/a	n/a	n/a	n/a	-999	7	[0, 0, 0]	n/a	catFR1	1	R1683A
1003.103	1.0	1015108	REC_WORD	1.0	n/a	TELEVISION	Electronics	1	7	[0, 0, 0]	n/a	catFR1	1	R1683A
1004.103	0.747	1016108	REC_WORD_VV	0.747	n/a	<>	n/a	-999	7	[0, 0, 0]	n/a	catFR1	1	R1683A
1004.85	2.691	1016855	REC_WORD_VV	2.691	n/a	<>	n/a	-999	7	[0, 0, 0]	n/a	catFR1	1	R1683A
1007.541	1.033	1019546	REC_WORD	1.033	n/a	APPLE	Fruit	3	7	[0, 0, 0]	n/a	catFR1	1	R1683A
1008.574	2.167	1020579	REC_WORD_VV	2.167	n/a	<>	n/a	-999	7	[0, 0, 0]	n/a	catFR1	1	R1683A
1010.741	0.496	1022746	REC_WORD_VV	0.496	n/a	<>	n/a	-999	7	[0, 0, 0]	n/a	catFR1	1	R1683A
1011.237	1.444	1023242	REC_WORD	1.444	n/a	SCANNER	Electronics	7	7	[0, 0, 0]	n/a	catFR1	1	R1683A
1012.681	3.235	1024686	REC_WORD	3.235	n/a	PRINTER	Electronics	-999	7	[0, 0, 0]	n/a	catFR1	1	R1683A
1015.916	2.389	1027921	REC_WORD	2.389	n/a	JEANS	Clothing	10	7	[0, 0, 0]	n/a	catFR1	1	R1683A
1018.305	1.864	1030310	REC_WORD	1.864	n/a	UNDERWEAR	Clothing	5	7	[0, 0, 0]	n/a	catFR1	1	R1683A
1020.169	9.524	1032174	REC_WORD	9.524	n/a	SOCKS	Clothing	9	7	[0, 0, 0]	n/a	catFR1	1	R1683A
1029.693	5.14	1041697	REC_END	n/a	n/a	n/a	n/a	-999	7	[0, 0, 0]	n/a	catFR1	1	R1683A
1034.833	10.344	1046842	COUNTDOWN_START	n/a	n/a	n/a	n/a	-999	8	[0, 0, 0]	n/a	catFR1	1	R1683A
1045.177	0.0	1057187	COUNTDOWN_END	n/a	n/a	n/a	n/a	-999	8	[0, 0, 0]	n/a	catFR1	1	R1683A
1045.177	2.173	1057187	ENCODING_START	n/a	n/a	n/a	n/a	-999	8	[0, 0, 0]	n/a	catFR1	1	R1683A
1047.35	1.601	1059357	WORD	n/a	wordpools/wordpool_categorized_EN.txt	FLOOR	Building	1	8	[0, 0, 0]	n/a	catFR1	1	R1683A
1048.951	0.873	1060959	WORD_OFF	n/a	n/a	FLOOR	Building	1	8	[0, 0, 0]	n/a	catFR1	1	R1683A
1049.824	1.601	1061831	WORD	n/a	wordpools/wordpool_categorized_EN.txt	HALLWAY	Building	2	8	[0, 0, 0]	n/a	catFR1	1	R1683A
1051.425	0.777	1063423	WORD_OFF	n/a	n/a	HALLWAY	Building	2	8	[0, 0, 0]	n/a	catFR1	1	R1683A
1052.202	1.608	1064208	WORD	n/a	wordpools/wordpool_categorized_EN.txt	JELLYFISH	OceanAnimals	3	8	[0, 0, 0]	n/a	catFR1	1	R1683A
1053.81	0.975	1065810	WORD_OFF	n/a	n/a	JELLYFISH	OceanAnimals	3	8	[0, 0, 0]	n/a	catFR1	1	R1683A
1054.785	1.6	1066791	WORD	n/a	wordpools/wordpool_categorized_EN.txt	SQUID	OceanAnimals	4	8	[0, 0, 0]	n/a	catFR1	1	R1683A
1056.385	0.865	1068383	WORD_OFF	n/a	n/a	SQUID	OceanAnimals	4	8	[0, 0, 0]	n/a	catFR1	1	R1683A
1057.25	1.6	1069255	WORD	n/a	wordpools/wordpool_categorized_EN.txt	BOAT	Vehicles	5	8	[0, 0, 0]	n/a	catFR1	1	R1683A
1058.85	0.968	1070857	WORD_OFF	n/a	n/a	BOAT	Vehicles	5	8	[0, 0, 0]	n/a	catFR1	1	R1683A
1059.818	1.608	1071817	WORD	n/a	wordpools/wordpool_categorized_EN.txt	TRAIN	Vehicles	6	8	[0, 0, 0]	n/a	catFR1	1	R1683A
1061.426	0.783	1073430	WORD_OFF	n/a	n/a	TRAIN	Vehicles	6	8	[0, 0, 0]	n/a	catFR1	1	R1683A
1062.209	1.609	1074215	WORD	n/a	wordpools/wordpool_categorized_EN.txt	WALL	Building	7	8	[0, 0, 0]	n/a	catFR1	1	R1683A
1063.818	0.898	1075817	WORD_OFF	n/a	n/a	WALL	Building	7	8	[0, 0, 0]	n/a	catFR1	1	R1683A
1064.716	1.601	1076722	WORD	n/a	wordpools/wordpool_categorized_EN.txt	CEILING	Building	8	8	[0, 0, 0]	n/a	catFR1	1	R1683A
1066.317	0.984	1078314	WORD_OFF	n/a	n/a	CEILING	Building	8	8	[0, 0, 0]	n/a	catFR1	1	R1683A
1067.301	1.609	1079306	WORD	n/a	wordpools/wordpool_categorized_EN.txt	BIKE	Vehicles	9	8	[0, 0, 0]	n/a	catFR1	1	R1683A
1068.91	0.832	1080919	WORD_OFF	n/a	n/a	BIKE	Vehicles	9	8	[0, 0, 0]	n/a	catFR1	1	R1683A
1069.742	1.608	1081747	WORD	n/a	wordpools/wordpool_categorized_EN.txt	MOPED	Vehicles	10	8	[0, 0, 0]	n/a	catFR1	1	R1683A
1071.35	0.784	1083350	WORD_OFF	n/a	n/a	MOPED	Vehicles	10	8	[0, 0, 0]	n/a	catFR1	1	R1683A
1072.134	1.608	1084135	WORD	n/a	wordpools/wordpool_categorized_EN.txt	OYSTER	OceanAnimals	11	8	[0, 0, 0]	n/a	catFR1	1	R1683A
1073.742	0.859	1085748	WORD_OFF	n/a	n/a	OYSTER	OceanAnimals	11	8	[0, 0, 0]	n/a	catFR1	1	R1683A
1074.601	1.6	1086609	WORD	n/a	wordpools/wordpool_categorized_EN.txt	WHALE	OceanAnimals	12	8	[0, 0, 0]	n/a	catFR1	1	R1683A
1076.201	0.003	1088201	WORD_OFF	n/a	n/a	WHALE	OceanAnimals	12	8	[0, 0, 0]	n/a	catFR1	1	R1683A
1076.204	0.0	1088201	ENCODING_END	n/a	n/a	n/a	n/a	-999	8	[0, 0, 0]	n/a	catFR1	1	R1683A
1076.202	0.002	1088206	PROB	0.002	n/a	n/a	n/a	-999	8	[8, 4, 3]	15	catFR1	1	R1683A
1076.204	0.0	1088208	START	n/a	n/a	n/a	n/a	-999	8	[-999, -999, -999]	n/a	catFR1	1	R1683A
1076.204	6.281	1088212	DISTRACT_START	n/a	n/a	n/a	n/a	-999	8	[0, 0, 0]	n/a	catFR1	1	R1683A
1082.485	5.208	1094489	PROB	5.208	n/a	n/a	n/a	-999	8	[5, 1, 2]	8	catFR1	1	R1683A
1087.693	3.124	1099697	PROB	3.124	n/a	n/a	n/a	-999	8	[3, 6, 4]	13	catFR1	1	R1683A
1090.817	3.551	1102821	PROB	3.551	n/a	n/a	n/a	-999	8	[2, 2, 3]	7	catFR1	1	R1683A
1094.368	7.407	1106372	PROB	7.407	n/a	n/a	n/a	-999	8	[4, 7, 8]	19	catFR1	1	R1683A
1101.775	0.0	1113775	DISTRACT_END	n/a	n/a	n/a	n/a	-999	8	[0, 0, 0]	n/a	catFR1	1	R1683A
1101.775	2.251	1113779	STOP	n/a	n/a	n/a	n/a	-999	8	[-999, -999, -999]	n/a	catFR1	1	R1683A
1104.026	1.134	1116031	REC_START	n/a	n/a	n/a	n/a	-999	8	[0, 0, 0]	n/a	catFR1	1	R1683A
1105.16	1.392	1117164	REC_WORD	1.392	n/a	MOPED	Vehicles	10	8	[0, 0, 0]	n/a	catFR1	1	R1683A
1106.552	2.665	1118556	REC_WORD	2.665	n/a	OYSTER	OceanAnimals	11	8	[0, 0, 0]	n/a	catFR1	1	R1683A
1109.217	1.379	1121221	REC_WORD	1.379	n/a	JELLYFISH	OceanAnimals	3	8	[0, 0, 0]	n/a	catFR1	1	R1683A
1110.596	1.78	1122600	REC_WORD	1.78	n/a	SQUID	OceanAnimals	4	8	[0, 0, 0]	n/a	catFR1	1	R1683A
1112.376	1.331	1124380	REC_WORD	1.331	n/a	WALL	Building	7	8	[0, 0, 0]	n/a	catFR1	1	R1683A
1113.707	2.665	1125711	REC_WORD	2.665	n/a	HALLWAY	Building	2	8	[0, 0, 0]	n/a	catFR1	1	R1683A
1116.372	4.708	1128376	REC_WORD	4.708	n/a	OYSTER	OceanAnimals	11	8	[0, 0, 0]	n/a	catFR1	1	R1683A
1121.08	2.377	1133084	REC_WORD	2.377	n/a	MONSTER	n/a	-999	8	[0, 0, 0]	n/a	catFR1	1	R1683A
1123.457	1.0	1135461	REC_WORD_VV	1.0	n/a	<>	n/a	-999	8	[0, 0, 0]	n/a	catFR1	1	R1683A
1124.457	2.261	1136461	REC_WORD_VV	2.261	n/a	<>	n/a	-999	8	[0, 0, 0]	n/a	catFR1	1	R1683A
1126.718	1.556	1138722	REC_WORD_VV	1.556	n/a	<>	n/a	-999	8	[0, 0, 0]	n/a	catFR1	1	R1683A
1128.274	5.554	1140278	REC_WORD	5.554	n/a	CEILING	Building	8	8	[0, 0, 0]	n/a	catFR1	1	R1683A
1133.828	0.341	1145832	REC_WORD_VV	0.341	n/a	<>	n/a	-999	8	[0, 0, 0]	n/a	catFR1	1	R1683A
1134.169	6.93	1146173	REC_END	n/a	n/a	n/a	n/a	-999	8	[0, 0, 0]	n/a	catFR1	1	R1683A
1141.099	10.334	1153106	COUNTDOWN_START	n/a	n/a	n/a	n/a	-999	9	[0, 0, 0]	n/a	catFR1	1	R1683A
1151.433	0.0	1163440	COUNTDOWN_END	n/a	n/a	n/a	n/a	-999	9	[0, 0, 0]	n/a	catFR1	1	R1683A
1151.433	2.117	1163440	ENCODING_START	n/a	n/a	n/a	n/a	-999	9	[0, 0, 0]	n/a	catFR1	1	R1683A
1153.55	1.601	1165555	WORD	n/a	wordpools/wordpool_categorized_EN.txt	COMPUTER	Electronics	1	9	[0, 0, 0]	n/a	catFR1	1	R1683A
1155.151	0.775	1167158	WORD_OFF	n/a	n/a	COMPUTER	Electronics	1	9	[0, 0, 0]	n/a	catFR1	1	R1683A
1155.926	1.608	1167932	WORD	n/a	wordpools/wordpool_categorized_EN.txt	CALCULATOR	Electronics	2	9	[0, 0, 0]	n/a	catFR1	1	R1683A
1157.534	0.834	1169534	WORD_OFF	n/a	n/a	CALCULATOR	Electronics	2	9	[0, 0, 0]	n/a	catFR1	1	R1683A
1158.368	1.608	1170373	WORD	n/a	wordpools/wordpool_categorized_EN.txt	SHEEP	FarmAnimals	3	9	[0, 0, 0]	n/a	catFR1	1	R1683A
1159.976	0.767	1171976	WORD_OFF	n/a	n/a	SHEEP	FarmAnimals	3	9	[0, 0, 0]	n/a	catFR1	1	R1683A
1160.743	1.6	1172750	WORD	n/a	wordpools/wordpool_categorized_EN.txt	PIG	FarmAnimals	4	9	[0, 0, 0]	n/a	catFR1	1	R1683A
1162.343	0.774	1174341	WORD_OFF	n/a	n/a	PIG	FarmAnimals	4	9	[0, 0, 0]	n/a	catFR1	1	R1683A
1163.117	1.601	1175115	WORD	n/a	wordpools/wordpool_categorized_EN.txt	GNAT	Insects	5	9	[0, 0, 0]	n/a	catFR1	1	R1683A
1164.718	0.833	1176718	WORD_OFF	n/a	n/a	GNAT	Insects	5	9	[0, 0, 0]	n/a	catFR1	1	R1683A
1165.551	1.608	1177557	WORD	n/a	wordpools/wordpool_categorized_EN.txt	LADYBUG	Insects	6	9	[0, 0, 0]	n/a	catFR1	1	R1683A
1167.159	0.916	1179160	WORD_OFF	n/a	n/a	LADYBUG	Insects	6	9	[0, 0, 0]	n/a	catFR1	1	R1683A
1168.075	1.6	1180075	WORD	n/a	wordpools/wordpool_categorized_EN.txt	CHICKEN	FarmAnimals	7	9	[0, 0, 0]	n/a	catFR1	1	R1683A
1169.675	0.792	1181678	WORD_OFF	n/a	n/a	CHICKEN	FarmAnimals	7	9	[0, 0, 0]	n/a	catFR1	1	R1683A
1170.467	1.609	1182474	WORD	n/a	wordpools/wordpool_categorized_EN.txt	GOAT	FarmAnimals	8	9	[0, 0, 0]	n/a	catFR1	1	R1683A
1172.076	0.892	1184076	WORD_OFF	n/a	n/a	GOAT	FarmAnimals	8	9	[0, 0, 0]	n/a	catFR1	1	R1683A
1172.968	1.6	1184970	WORD	n/a	wordpools/wordpool_categorized_EN.txt	TABLET	Electronics	9	9	[0, 0, 0]	n/a	catFR1	1	R1683A
1174.568	0.966	1186572	WORD_OFF	n/a	n/a	TABLET	Electronics	9	9	[0, 0, 0]	n/a	catFR1	1	R1683A
1175.534	1.6	1187532	WORD	n/a	wordpools/wordpool_categorized_EN.txt	STEREO	Electronics	10	9	[0, 0, 0]	n/a	catFR1	1	R1683A
1177.134	0.842	1189134	WORD_OFF	n/a	n/a	STEREO	Electronics	10	9	[0, 0, 0]	n/a	catFR1	1	R1683A
1177.976	1.608	1189984	WORD	n/a	wordpools/wordpool_categorized_EN.txt	SPIDER	Insects	11	9	[0, 0, 0]	n/a	catFR1	1	R1683A
1179.584	0.95	1191587	WORD_OFF	n/a	n/a	SPIDER	Insects	11	9	[0, 0, 0]	n/a	catFR1	1	R1683A
1180.534	1.608	1192535	WORD	n/a	wordpools/wordpool_categorized_EN.txt	CRICKET	Insects	12	9	[0, 0, 0]	n/a	catFR1	1	R1683A
1182.142	0.001	1194146	PROB	0.001	n/a	n/a	n/a	-999	9	[4, 4, 3]	11	catFR1	1	R1683A
1182.143	0.002	1194149	WORD_OFF	n/a	n/a	CRICKET	Insects	12	9	[0, 0, 0]	n/a	catFR1	1	R1683A
1182.145	0.0	1194149	ENCODING_END	n/a	n/a	n/a	n/a	-999	9	[0, 0, 0]	n/a	catFR1	1	R1683A
1182.145	0.0	1194149	DISTRACT_START	n/a	n/a	n/a	n/a	-999	9	[0, 0, 0]	n/a	catFR1	1	R1683A
1182.145	6.372	1194149	START	n/a	n/a	n/a	n/a	-999	9	[-999, -999, -999]	n/a	catFR1	1	R1683A
1188.517	3.2	1200521	PROB	3.2	n/a	n/a	n/a	-999	9	[7, 1, 7]	15	catFR1	1	R1683A
1191.717	3.551	1203721	PROB	3.551	n/a	n/a	n/a	-999	9	[6, 4, 8]	18	catFR1	1	R1683A
1195.268	5.616	1207272	PROB	5.616	n/a	n/a	n/a	-999	9	[8, 8, 6]	24	catFR1	1	R1683A
1200.884	7.324	1212888	PROB	7.324	n/a	n/a	n/a	-999	9	[6, 1, 2]	9	catFR1	1	R1683A
1208.208	0.0	1220212	STOP	n/a	n/a	n/a	n/a	-999	9	[-999, -999, -999]	n/a	catFR1	1	R1683A
1208.208	2.159	1220213	DISTRACT_END	n/a	n/a	n/a	n/a	-999	9	[0, 0, 0]	n/a	catFR1	1	R1683A
1210.367	1.111	1222372	REC_START	n/a	n/a	n/a	n/a	-999	9	[0, 0, 0]	n/a	catFR1	1	R1683A
1211.478	1.79	1223482	REC_WORD	1.79	n/a	COMPUTER	Electronics	1	9	[0, 0, 0]	n/a	catFR1	1	R1683A
1213.268	3.89	1225272	REC_WORD	3.89	n/a	TABLET	Electronics	9	9	[0, 0, 0]	n/a	catFR1	1	R1683A
1217.158	1.0	1229162	REC_WORD_VV	1.0	n/a	<>	n/a	-999	9	[0, 0, 0]	n/a	catFR1	1	R1683A
1218.158	1.625	1230162	REC_WORD_VV	1.625	n/a	<>	n/a	-999	9	[0, 0, 0]	n/a	catFR1	1	R1683A
1219.783	4.224	1231787	REC_WORD	4.224	n/a	JELLYFISH	OceanAnimals	-999	9	[0, 0, 0]	n/a	catFR1	1	R1683A
1224.007	2.857	1236011	REC_WORD_VV	2.857	n/a	<>	n/a	-999	9	[0, 0, 0]	n/a	catFR1	1	R1683A
1226.864	3.178	1238868	REC_WORD	3.178	n/a	OYSTER	OceanAnimals	-999	9	[0, 0, 0]	n/a	catFR1	1	R1683A
1230.042	6.229	1242046	REC_WORD	6.229	n/a	BOAT	Vehicles	-999	9	[0, 0, 0]	n/a	catFR1	1	R1683A
1236.271	2.51	1248275	REC_WORD	2.51	n/a	GNAT	Insects	5	9	[0, 0, 0]	n/a	catFR1	1	R1683A
1238.781	1.721	1250785	REC_WORD	1.721	n/a	SPIDER	Insects	11	9	[0, 0, 0]	n/a	catFR1	1	R1683A
1240.502	6.301	1252502	REC_END	n/a	n/a	n/a	n/a	-999	9	[0, 0, 0]	n/a	catFR1	1	R1683A
1246.803	10.339	1258803	COUNTDOWN_START	n/a	n/a	n/a	n/a	-999	10	[0, 0, 0]	n/a	catFR1	1	R1683A
1257.142	0.0	1269148	COUNTDOWN_END	n/a	n/a	n/a	n/a	-999	10	[0, 0, 0]	n/a	catFR1	1	R1683A
1257.142	2.182	1269148	ENCODING_START	n/a	n/a	n/a	n/a	-999	10	[0, 0, 0]	n/a	catFR1	1	R1683A
1259.324	1.602	1271328	WORD	n/a	wordpools/wordpool_categorized_EN.txt	RUM	Beverages	1	10	[0, 0, 0]	n/a	catFR1	1	R1683A
1260.926	0.958	1272931	WORD_OFF	n/a	n/a	RUM	Beverages	1	10	[0, 0, 0]	n/a	catFR1	1	R1683A
1261.884	1.6	1273890	WORD	n/a	wordpools/wordpool_categorized_EN.txt	WATER	Beverages	2	10	[0, 0, 0]	n/a	catFR1	1	R1683A
1263.484	0.842	1275482	WORD_OFF	n/a	n/a	WATER	Beverages	2	10	[0, 0, 0]	n/a	catFR1	1	R1683A
1264.326	1.607	1276332	WORD	n/a	wordpools/wordpool_categorized_EN.txt	LOBSTER	OceanAnimals	3	10	[0, 0, 0]	n/a	catFR1	1	R1683A
1265.933	0.876	1277934	WORD_OFF	n/a	n/a	LOBSTER	OceanAnimals	3	10	[0, 0, 0]	n/a	catFR1	1	R1683A
1266.809	1.607	1278806	WORD	n/a	wordpools/wordpool_categorized_EN.txt	DOLPHIN	OceanAnimals	4	10	[0, 0, 0]	n/a	catFR1	1	R1683A
1268.416	0.884	1280420	WORD_OFF	n/a	n/a	DOLPHIN	OceanAnimals	4	10	[0, 0, 0]	n/a	catFR1	1	R1683A
1269.3	1.601	1281303	WORD	n/a	wordpools/wordpool_categorized_EN.txt	IRON	Appliances	5	10	[0, 0, 0]	n/a	catFR1	1	R1683A
1270.901	0.825	1282905	WORD_OFF	n/a	n/a	IRON	Appliances	5	10	[0, 0, 0]	n/a	catFR1	1	R1683A
1271.726	1.6	1283723	WORD	n/a	wordpools/wordpool_categorized_EN.txt	MIXER	Appliances	6	10	[0, 0, 0]	n/a	catFR1	1	R1683A
1273.326	0.958	1285325	WORD_OFF	n/a	n/a	MIXER	Appliances	6	10	[0, 0, 0]	n/a	catFR1	1	R1683A
1274.284	1.609	1286285	WORD	n/a	wordpools/wordpool_categorized_EN.txt	LEMONADE	Beverages	7	10	[0, 0, 0]	n/a	catFR1	1	R1683A
1275.893	0.781	1287898	WORD_OFF	n/a	n/a	LEMONADE	Beverages	7	10	[0, 0, 0]	n/a	catFR1	1	R1683A
1276.674	1.602	1288672	WORD	n/a	wordpools/wordpool_categorized_EN.txt	CIDER	Beverages	8	10	[0, 0, 0]	n/a	catFR1	1	R1683A
1278.276	0.8	1290274	WORD_OFF	n/a	n/a	CIDER	Beverages	8	10	[0, 0, 0]	n/a	catFR1	1	R1683A
1279.076	1.608	1291081	WORD	n/a	wordpools/wordpool_categorized_EN.txt	SHRIMP	OceanAnimals	9	10	[0, 0, 0]	n/a	catFR1	1	R1683A
1280.684	0.932	1292684	WORD_OFF	n/a	n/a	SHRIMP	OceanAnimals	9	10	[0, 0, 0]	n/a	catFR1	1	R1683A
1281.616	1.601	1293621	WORD	n/a	wordpools/wordpool_categorized_EN.txt	OCTOPUS	OceanAnimals	10	10	[0, 0, 0]	n/a	catFR1	1	R1683A
1283.217	0.824	1295224	WORD_OFF	n/a	n/a	OCTOPUS	OceanAnimals	10	10	[0, 0, 0]	n/a	catFR1	1	R1683A
1284.041	1.601	1296041	WORD	n/a	wordpools/wordpool_categorized_EN.txt	DISHWASHER	Appliances	11	10	[0, 0, 0]	n/a	catFR1	1	R1683A
1285.642	0.85	1297644	WORD_OFF	n/a	n/a	DISHWASHER	Appliances	11	10	[0, 0, 0]	n/a	catFR1	1	R1683A
1286.492	1.6	1298494	WORD	n/a	wordpools/wordpool_categorized_EN.txt	OVEN	Appliances	12	10	[0, 0, 0]	n/a	catFR1	1	R1683A
1288.092	0.0	1300095	PROB	0.0	n/a	n/a	n/a	-999	10	[6, 6, 6]	18	catFR1	1	R1683A
1288.092	0.003	1300096	WORD_OFF	n/a	n/a	OVEN	Appliances	12	10	[0, 0, 0]	n/a	catFR1	1	R1683A
1288.095	0.0	1300096	ENCODING_END	n/a	n/a	n/a	n/a	-999	10	[0, 0, 0]	n/a	catFR1	1	R1683A
1288.095	0.0	1300096	DISTRACT_START	n/a	n/a	n/a	n/a	-999	10	[0, 0, 0]	n/a	catFR1	1	R1683A
1288.095	4.955	1300098	START	n/a	n/a	n/a	n/a	-999	10	[-999, -999, -999]	n/a	catFR1	1	R1683A
1293.05	4.417	1305053	PROB	4.417	n/a	n/a	n/a	-999	10	[6, 3, 3]	12	catFR1	1	R1683A
1297.467	3.351	1309470	PROB	3.351	n/a	n/a	n/a	-999	10	[2, 8, 1]	11	catFR1	1	R1683A
1300.818	6.2	1312821	PROB	6.2	n/a	n/a	n/a	-999	10	[8, 6, 5]	19	catFR1	1	R1683A
1307.018	3.015	1319021	PROB	3.015	n/a	n/a	n/a	-999	10	[8, 4, 6]	18	catFR1	1	R1683A
1310.033	0.0	1322029	DISTRACT_END	n/a	n/a	n/a	n/a	-999	10	[0, 0, 0]	n/a	catFR1	1	R1683A
1310.033	2.043	1322036	STOP	n/a	n/a	n/a	n/a	-999	10	[-999, -999, -999]	n/a	catFR1	1	R1683A
1312.076	1.727	1324079	REC_START	n/a	n/a	n/a	n/a	-999	10	[0, 0, 0]	n/a	catFR1	1	R1683A
1313.803	1.556	1325806	REC_WORD	1.556	n/a	OCTOPUS	OceanAnimals	10	10	[0, 0, 0]	n/a	catFR1	1	R1683A
1315.359	3.533	1327362	REC_WORD	3.533	n/a	LOBSTER	OceanAnimals	3	10	[0, 0, 0]	n/a	catFR1	1	R1683A
1318.892	3.46	1330895	REC_WORD	3.46	n/a	CIDER	Beverages	8	10	[0, 0, 0]	n/a	catFR1	1	R1683A
1322.352	8.185	1334355	REC_WORD	8.185	n/a	DISHWASHER	Appliances	11	10	[0, 0, 0]	n/a	catFR1	1	R1683A
1330.537	5.605	1342540	REC_WORD_VV	5.605	n/a	<>	n/a	-999	10	[0, 0, 0]	n/a	catFR1	1	R1683A
1336.142	1.0	1348145	REC_WORD_VV	1.0	n/a	<>	n/a	-999	10	[0, 0, 0]	n/a	catFR1	1	R1683A
1337.142	5.079	1349145	REC_WORD_VV	5.079	n/a	<>	n/a	-999	10	[0, 0, 0]	n/a	catFR1	1	R1683A
1342.221	6.671	1354220	REC_END	n/a	n/a	n/a	n/a	-999	10	[0, 0, 0]	n/a	catFR1	1	R1683A
1348.892	10.335	1360892	COUNTDOWN_START	n/a	n/a	n/a	n/a	-999	11	[0, 0, 0]	n/a	catFR1	1	R1683A
1359.227	0.0	1371226	COUNTDOWN_END	n/a	n/a	n/a	n/a	-999	11	[0, 0, 0]	n/a	catFR1	1	R1683A
1359.227	2.231	1371226	ENCODING_START	n/a	n/a	n/a	n/a	-999	11	[0, 0, 0]	n/a	catFR1	1	R1683A
1361.458	1.601	1373461	WORD	n/a	wordpools/wordpool_categorized_EN.txt	SEAGULL	Birds	1	11	[0, 0, 0]	n/a	catFR1	1	R1683A
1363.059	1.0	1375063	WORD_OFF	n/a	n/a	SEAGULL	Birds	1	11	[0, 0, 0]	n/a	catFR1	1	R1683A
1364.059	1.6	1376066	WORD	n/a	wordpools/wordpool_categorized_EN.txt	DOVE	Birds	2	11	[0, 0, 0]	n/a	catFR1	1	R1683A
1365.659	0.824	1377658	WORD_OFF	n/a	n/a	DOVE	Birds	2	11	[0, 0, 0]	n/a	catFR1	1	R1683A
1366.483	1.601	1378486	WORD	n/a	wordpools/wordpool_categorized_EN.txt	MONKEY	Zoo	3	11	[0, 0, 0]	n/a	catFR1	1	R1683A
1368.084	0.849	1380089	WORD_OFF	n/a	n/a	MONKEY	Zoo	3	11	[0, 0, 0]	n/a	catFR1	1	R1683A
1368.933	1.6	1380939	WORD	n/a	wordpools/wordpool_categorized_EN.txt	CHEETAH	Zoo	4	11	[0, 0, 0]	n/a	catFR1	1	R1683A
1370.533	0.968	1382530	WORD_OFF	n/a	n/a	CHEETAH	Zoo	4	11	[0, 0, 0]	n/a	catFR1	1	R1683A
1371.501	1.608	1383501	WORD	n/a	wordpools/wordpool_categorized_EN.txt	TURTLE	OceanAnimals	5	11	[0, 0, 0]	n/a	catFR1	1	R1683A
1373.109	0.949	1385114	WORD_OFF	n/a	n/a	TURTLE	OceanAnimals	5	11	[0, 0, 0]	n/a	catFR1	1	R1683A
1374.058	1.6	1386062	WORD	n/a	wordpools/wordpool_categorized_EN.txt	FISH	OceanAnimals	6	11	[0, 0, 0]	n/a	catFR1	1	R1683A
1375.658	0.793	1387665	WORD_OFF	n/a	n/a	FISH	OceanAnimals	6	11	[0, 0, 0]	n/a	catFR1	1	R1683A
1376.451	1.6	1388450	WORD	n/a	wordpools/wordpool_categorized_EN.txt	HAWK	Birds	7	11	[0, 0, 0]	n/a	catFR1	1	R1683A
1378.051	0.758	1390052	WORD_OFF	n/a	n/a	HAWK	Birds	7	11	[0, 0, 0]	n/a	catFR1	1	R1683A
1378.809	1.608	1390815	WORD	n/a	wordpools/wordpool_categorized_EN.txt	CROW	Birds	8	11	[0, 0, 0]	n/a	catFR1	1	R1683A
1380.417	0.767	1392418	WORD_OFF	n/a	n/a	CROW	Birds	8	11	[0, 0, 0]	n/a	catFR1	1	R1683A
1381.184	1.6	1393181	WORD	n/a	wordpools/wordpool_categorized_EN.txt	GIRAFFE	Zoo	9	11	[0, 0, 0]	n/a	catFR1	1	R1683A
1382.784	0.959	1394783	WORD_OFF	n/a	n/a	GIRAFFE	Zoo	9	11	[0, 0, 0]	n/a	catFR1	1	R1683A
1383.743	1.599	1395742	WORD	n/a	wordpools/wordpool_categorized_EN.txt	ZEBRA	Zoo	10	11	[0, 0, 0]	n/a	catFR1	1	R1683A
1385.342	0.982	1397345	WORD_OFF	n/a	n/a	ZEBRA	Zoo	10	11	[0, 0, 0]	n/a	catFR1	1	R1683A
1386.324	1.602	1398326	WORD	n/a	wordpools/wordpool_categorized_EN.txt	PLANKTON	OceanAnimals	11	11	[0, 0, 0]	n/a	catFR1	1	R1683A
1387.926	0.85	1399929	WORD_OFF	n/a	n/a	PLANKTON	OceanAnimals	11	11	[0, 0, 0]	n/a	catFR1	1	R1683A
1388.776	1.6	1400779	WORD	n/a	wordpools/wordpool_categorized_EN.txt	CRAB	OceanAnimals	12	11	[0, 0, 0]	n/a	catFR1	1	R1683A
1390.376	0.0	1402379	PROB	0.0	n/a	n/a	n/a	-999	11	[2, 1, 6]	9	catFR1	1	R1683A
1390.376	0.004	1402381	WORD_OFF	n/a	n/a	CRAB	OceanAnimals	12	11	[0, 0, 0]	n/a	catFR1	1	R1683A
1390.38	0.0	1402381	ENCODING_END	n/a	n/a	n/a	n/a	-999	11	[0, 0, 0]	n/a	catFR1	1	R1683A
1390.38	0.0	1402381	DISTRACT_START	n/a	n/a	n/a	n/a	-999	11	[0, 0, 0]	n/a	catFR1	1	R1683A
1390.38	5.937	1402383	START	n/a	n/a	n/a	n/a	-999	11	[-999, -999, -999]	n/a	catFR1	1	R1683A
1396.317	6.774	1408320	PROB	6.774	n/a	n/a	n/a	-999	11	[4, 4, 8]	16	catFR1	1	R1683A
1403.091	2.918	1415094	PROB	2.918	n/a	n/a	n/a	-999	11	[1, 6, 2]	9	catFR1	1	R1683A
1406.009	2.834	1418012	PROB	2.834	n/a	n/a	n/a	-999	11	[4, 3, 7]	14	catFR1	1	R1683A
1408.843	4.041	1420846	PROB	4.041	n/a	n/a	n/a	-999	11	[3, 5, 7]	15	catFR1	1	R1683A
1412.884	0.0	1424881	DISTRACT_END	n/a	n/a	n/a	n/a	-999	11	[0, 0, 0]	n/a	catFR1	1	R1683A
1412.884	2.257	1424887	STOP	n/a	n/a	n/a	n/a	-999	11	[-999, -999, -999]	n/a	catFR1	1	R1683A
1415.141	0.902	1427138	REC_START	n/a	n/a	n/a	n/a	-999	11	[0, 0, 0]	n/a	catFR1	1	R1683A
1416.043	1.778	1428046	REC_WORD	1.778	n/a	GIRAFFE	Zoo	9	11	[0, 0, 0]	n/a	catFR1	1	R1683A
1417.821	2.581	1429824	REC_WORD	2.581	n/a	PLANKTON	OceanAnimals	11	11	[0, 0, 0]	n/a	catFR1	1	R1683A
1420.402	2.526	1432405	REC_WORD_VV	2.526	n/a	<>	n/a	-999	11	[0, 0, 0]	n/a	catFR1	1	R1683A
1422.928	1.918	1434931	REC_WORD	1.918	n/a	SEAGULL	Birds	1	11	[0, 0, 0]	n/a	catFR1	1	R1683A
1424.846	0.746	1436849	REC_WORD	0.746	n/a	SEAGULL	Birds	1	11	[0, 0, 0]	n/a	catFR1	1	R1683A
1425.592	2.201	1437595	REC_WORD	2.201	n/a	HAWK	Birds	7	11	[0, 0, 0]	n/a	catFR1	1	R1683A
1427.793	10.659	1439796	REC_WORD	10.659	n/a	SPARROW	Birds	-999	11	[0, 0, 0]	n/a	catFR1	1	R1683A
1438.452	1.609	1450455	REC_WORD	1.609	n/a	MONKEY	Zoo	3	11	[0, 0, 0]	n/a	catFR1	1	R1683A
1440.061	5.212	1452064	REC_WORD	5.212	n/a	CHEETAH	Zoo	4	11	[0, 0, 0]	n/a	catFR1	1	R1683A
1445.273	9.885	1457279	REC_END	n/a	n/a	n/a	n/a	-999	11	[0, 0, 0]	n/a	catFR1	1	R1683A
1455.158	10.343	1467156	COUNTDOWN_START	n/a	n/a	n/a	n/a	-999	12	[0, 0, 0]	n/a	catFR1	1	R1683A
1465.501	0.001	1477501	COUNTDOWN_END	n/a	n/a	n/a	n/a	-999	12	[0, 0, 0]	n/a	catFR1	1	R1683A
1465.502	1.922	1477501	ENCODING_START	n/a	n/a	n/a	n/a	-999	12	[0, 0, 0]	n/a	catFR1	1	R1683A
1467.424	1.6	1479430	WORD	n/a	wordpools/wordpool_categorized_EN.txt	MOTORCYCLE	Vehicles	1	12	[0, 0, 0]	n/a	catFR1	1	R1683A
1469.024	1.0	1481022	WORD_OFF	n/a	n/a	MOTORCYCLE	Vehicles	1	12	[0, 0, 0]	n/a	catFR1	1	R1683A
1470.024	1.6	1482025	WORD	n/a	wordpools/wordpool_categorized_EN.txt	BUS	Vehicles	2	12	[0, 0, 0]	n/a	catFR1	1	R1683A
1471.624	0.8	1483627	WORD_OFF	n/a	n/a	BUS	Vehicles	2	12	[0, 0, 0]	n/a	catFR1	1	R1683A
1472.424	1.6	1484423	WORD	n/a	wordpools/wordpool_categorized_EN.txt	CARDINAL	Birds	3	12	[0, 0, 0]	n/a	catFR1	1	R1683A
1474.024	0.834	1486025	WORD_OFF	n/a	n/a	CARDINAL	Birds	3	12	[0, 0, 0]	n/a	catFR1	1	R1683A
1474.858	1.6	1486854	WORD	n/a	wordpools/wordpool_categorized_EN.txt	DUCK	Birds	4	12	[0, 0, 0]	n/a	catFR1	1	R1683A
1476.458	0.951	1488456	WORD_OFF	n/a	n/a	DUCK	Birds	4	12	[0, 0, 0]	n/a	catFR1	1	R1683A
1477.409	1.609	1489416	WORD	n/a	wordpools/wordpool_categorized_EN.txt	BULL	FarmAnimals	5	12	[0, 0, 0]	n/a	catFR1	1	R1683A
1479.018	0.874	1491018	WORD_OFF	n/a	n/a	BULL	FarmAnimals	5	12	[0, 0, 0]	n/a	catFR1	1	R1683A
1479.892	1.609	1491890	WORD	n/a	wordpools/wordpool_categorized_EN.txt	TURKEY	FarmAnimals	6	12	[0, 0, 0]	n/a	catFR1	1	R1683A
1481.501	0.807	1493504	WORD_OFF	n/a	n/a	TURKEY	FarmAnimals	6	12	[0, 0, 0]	n/a	catFR1	1	R1683A
1482.308	1.6	1494310	WORD	n/a	wordpools/wordpool_categorized_EN.txt	ROBIN	Birds	7	12	[0, 0, 0]	n/a	catFR1	1	R1683A
1483.908	0.833	1495913	WORD_OFF	n/a	n/a	ROBIN	Birds	7	12	[0, 0, 0]	n/a	catFR1	1	R1683A
1484.741	1.601	1496741	WORD	n/a	wordpools/wordpool_categorized_EN.txt	GOOSE	Birds	8	12	[0, 0, 0]	n/a	catFR1	1	R1683A
1486.342	0.994	1498344	WORD_OFF	n/a	n/a	GOOSE	Birds	8	12	[0, 0, 0]	n/a	catFR1	1	R1683A
1487.336	1.607	1499336	WORD	n/a	wordpools/wordpool_categorized_EN.txt	CAR	Vehicles	9	12	[0, 0, 0]	n/a	catFR1	1	R1683A
1488.943	0.89	1500949	WORD_OFF	n/a	n/a	CAR	Vehicles	9	12	[0, 0, 0]	n/a	catFR1	1	R1683A
1489.833	1.6	1501832	WORD	n/a	wordpools/wordpool_categorized_EN.txt	SCOOTER	Vehicles	10	12	[0, 0, 0]	n/a	catFR1	1	R1683A
1491.433	0.902	1503434	WORD_OFF	n/a	n/a	SCOOTER	Vehicles	10	12	[0, 0, 0]	n/a	catFR1	1	R1683A
1492.335	1.608	1504339	WORD	n/a	wordpools/wordpool_categorized_EN.txt	HORSE	FarmAnimals	11	12	[0, 0, 0]	n/a	catFR1	1	R1683A
1493.943	0.891	1505942	WORD_OFF	n/a	n/a	HORSE	FarmAnimals	11	12	[0, 0, 0]	n/a	catFR1	1	R1683A
1494.834	1.601	1506836	WORD	n/a	wordpools/wordpool_categorized_EN.txt	ROOSTER	FarmAnimals	12	12	[0, 0, 0]	n/a	catFR1	1	R1683A
1496.435	0.0	1508437	PROB	0.0	n/a	n/a	n/a	-999	12	[1, 2, 3]	6	catFR1	1	R1683A
1496.435	0.003	1508438	WORD_OFF	n/a	n/a	ROOSTER	FarmAnimals	12	12	[0, 0, 0]	n/a	catFR1	1	R1683A
1496.438	0.0	1508438	ENCODING_END	n/a	n/a	n/a	n/a	-999	12	[0, 0, 0]	n/a	catFR1	1	R1683A
1496.438	0.0	1508438	DISTRACT_START	n/a	n/a	n/a	n/a	-999	12	[0, 0, 0]	n/a	catFR1	1	R1683A
1496.438	5.795	1508440	START	n/a	n/a	n/a	n/a	-999	12	[-999, -999, -999]	n/a	catFR1	1	R1683A
1502.233	4.809	1514235	PROB	4.809	n/a	n/a	n/a	-999	12	[2, 6, 3]	11	catFR1	1	R1683A
1507.042	2.893	1519044	PROB	2.893	n/a	n/a	n/a	-999	12	[1, 5, 4]	10	catFR1	1	R1683A
1509.935	3.032	1521937	PROB	3.032	n/a	n/a	n/a	-999	12	[7, 5, 5]	17	catFR1	1	R1683A
1512.967	7.725	1524969	PROB	7.725	n/a	n/a	n/a	-999	12	[5, 1, 7]	13	catFR1	1	R1683A
1520.692	0.0	1532693	DISTRACT_END	n/a	n/a	n/a	n/a	-999	12	[0, 0, 0]	n/a	catFR1	1	R1683A
1520.692	2.16	1532694	STOP	n/a	n/a	n/a	n/a	-999	12	[-999, -999, -999]	n/a	catFR1	1	R1683A
1522.852	1.431	1534851	REC_START	n/a	n/a	n/a	n/a	-999	12	[0, 0, 0]	n/a	catFR1	1	R1683A
1524.283	1.224	1536285	REC_WORD	1.224	n/a	CAR	Vehicles	9	12	[0, 0, 0]	n/a	catFR1	1	R1683A
1525.507	1.899	1537509	REC_WORD	1.899	n/a	MOTORCYCLE	Vehicles	1	12	[0, 0, 0]	n/a	catFR1	1	R1683A
1527.406	3.697	1539408	REC_WORD	3.697	n/a	BUS	Vehicles	2	12	[0, 0, 0]	n/a	catFR1	1	R1683A
1531.103	2.049	1543105	REC_WORD	2.049	n/a	ROOSTER	FarmAnimals	12	12	[0, 0, 0]	n/a	catFR1	1	R1683A
1533.152	2.331	1545154	REC_WORD	2.331	n/a	CROW	Birds	-999	12	[0, 0, 0]	n/a	catFR1	1	R1683A
1535.483	2.289	1547485	REC_WORD	2.289	n/a	SCOOTER	Vehicles	10	12	[0, 0, 0]	n/a	catFR1	1	R1683A
1537.772	7.863	1549774	REC_WORD	7.863	n/a	HORSE	FarmAnimals	11	12	[0, 0, 0]	n/a	catFR1	1	R1683A
1545.635	7.349	1557637	REC_WORD	7.349	n/a	SEAGULL	Birds	-999	12	[0, 0, 0]	n/a	catFR1	1	R1683A
1552.984	0.0	1564982	REC_END	n/a	n/a	n/a	n/a	-999	12	[0, 0, 0]	n/a	catFR1	1	R1683A
