onset	duration	sample	trial_type	response_time	stim_file	item_name	category	serialpos	list	test	answer	experiment	session	subject
0.0	3.833	120224	INSTRUCT_START	n/a	n/a	n/a	n/a	-999	-999	[0, 0, 0]	n/a	catFR1	6	R1377M
3.833	44.349	124055	INSTRUCT_END	n/a	n/a	n/a	n/a	-999	-999	[0, 0, 0]	n/a	catFR1	6	R1377M
48.182	10.351	168405	COUNTDOWN_START	n/a	n/a	n/a	n/a	-999	-999	[0, 0, 0]	n/a	catFR1	6	R1377M
58.533	0.001	178752	COUNTDOWN_END	n/a	n/a	n/a	n/a	-999	-999	[0, 0, 0]	n/a	catFR1	6	R1377M
58.534	2.132	178752	ENCODING_START	n/a	n/a	n/a	n/a	-999	-1	[0, 0, 0]	n/a	catFR1	6	R1377M
60.666	1.6	180888	WORD	n/a	n/a	FARMER	Professions	1	-1	[0, 0, 0]	n/a	catFR1	6	R1377M
62.266	0.966	182486	WORD_OFF	n/a	n/a	FARMER	Professions	1	-1	[0, 0, 0]	n/a	catFR1	6	R1377M
63.232	1.6	183450	WORD	n/a	n/a	TEACHER	Professions	2	-1	[0, 0, 0]	n/a	catFR1	6	R1377M
64.832	0.984	185049	WORD_OFF	n/a	n/a	TEACHER	Professions	2	-1	[0, 0, 0]	n/a	catFR1	6	R1377M
65.816	1.6	186027	WORD	n/a	n/a	DENIM	Materials	3	-1	[0, 0, 0]	n/a	catFR1	6	R1377M
67.416	0.833	187625	WORD_OFF	n/a	n/a	DENIM	Materials	3	-1	[0, 0, 0]	n/a	catFR1	6	R1377M
68.249	1.6	188466	WORD	n/a	n/a	WOOL	Materials	4	-1	[0, 0, 0]	n/a	catFR1	6	R1377M
69.849	0.966	190064	WORD_OFF	n/a	n/a	WOOL	Materials	4	-1	[0, 0, 0]	n/a	catFR1	6	R1377M
70.815	1.617	191028	WORD	n/a	n/a	SECOND	Times	5	-1	[0, 0, 0]	n/a	catFR1	6	R1377M
72.432	0.784	192654	WORD_OFF	n/a	n/a	SECOND	Times	5	-1	[0, 0, 0]	n/a	catFR1	6	R1377M
73.216	1.616	193426	WORD	n/a	n/a	HOUR	Times	6	-1	[0, 0, 0]	n/a	catFR1	6	R1377M
74.832	0.85	195051	WORD_OFF	n/a	n/a	HOUR	Times	6	-1	[0, 0, 0]	n/a	catFR1	6	R1377M
75.682	1.6	195892	WORD	n/a	n/a	SILK	Materials	7	-1	[0, 0, 0]	n/a	catFR1	6	R1377M
77.282	0.934	197504	WORD_OFF	n/a	n/a	SILK	Materials	7	-1	[0, 0, 0]	n/a	catFR1	6	R1377M
78.216	1.615	198427	WORD	n/a	n/a	LEATHER	Materials	8	-1	[0, 0, 0]	n/a	catFR1	6	R1377M
79.831	0.868	200053	WORD_OFF	n/a	n/a	LEATHER	Materials	8	-1	[0, 0, 0]	n/a	catFR1	6	R1377M
80.699	1.616	200907	WORD	n/a	n/a	DAY	Times	9	-1	[0, 0, 0]	n/a	catFR1	6	R1377M
82.315	0.767	202533	WORD_OFF	n/a	n/a	DAY	Times	9	-1	[0, 0, 0]	n/a	catFR1	6	R1377M
83.082	1.6	203304	WORD	n/a	n/a	MINUTE	Times	10	-1	[0, 0, 0]	n/a	catFR1	6	R1377M
84.682	0.934	204902	WORD_OFF	n/a	n/a	MINUTE	Times	10	-1	[0, 0, 0]	n/a	catFR1	6	R1377M
85.616	1.616	205826	WORD	n/a	n/a	PLUMBER	Professions	11	-1	[0, 0, 0]	n/a	catFR1	6	R1377M
87.232	0.816	207451	WORD_OFF	n/a	n/a	PLUMBER	Professions	11	-1	[0, 0, 0]	n/a	catFR1	6	R1377M
88.048	1.601	208264	WORD	n/a	n/a	FIREMAN	Professions	12	-1	[0, 0, 0]	n/a	catFR1	6	R1377M
89.649	0.002	209862	WORD_OFF	n/a	n/a	FIREMAN	Professions	12	-1	[0, 0, 0]	n/a	catFR1	6	R1377M
89.651	0.001	209862	ENCODING_END	n/a	n/a	n/a	n/a	-999	-1	[0, 0, 0]	n/a	catFR1	6	R1377M
89.652	0.0	209862	DISTRACT_START	n/a	n/a	n/a	n/a	-999	-1	[0, 0, 0]	n/a	catFR1	6	R1377M
89.65	0.002	209864	PROB	0.002	n/a	n/a	n/a	-999	-1	[1, 2, 8]	11	catFR1	6	R1377M
89.652	4.948	209866	START	n/a	n/a	n/a	n/a	-999	-1	[-999, -999, -999]	n/a	catFR1	6	R1377M
94.6	5.133	214813	PROB	5.133	n/a	n/a	n/a	-999	-1	[4, 8, 7]	19	catFR1	6	R1377M
99.733	5.017	219946	PROB	5.017	n/a	n/a	n/a	-999	-1	[6, 6, 1]	13	catFR1	6	R1377M
104.75	4.616	224963	PROB	4.616	n/a	n/a	n/a	-999	-1	[7, 1, 5]	13	catFR1	6	R1377M
109.366	5.799	229579	PROB	5.799	n/a	n/a	n/a	-999	-1	[8, 3, 1]	12	catFR1	6	R1377M
115.165	0.0	235377	STOP	n/a	n/a	n/a	n/a	-999	-1	[-999, -999, -999]	n/a	catFR1	6	R1377M
115.165	1.384	235379	DISTRACT_END	n/a	n/a	n/a	n/a	-999	-1	[0, 0, 0]	n/a	catFR1	6	R1377M
116.549	1.616	236757	REC_START	n/a	n/a	n/a	n/a	-999	-1	[0, 0, 0]	n/a	catFR1	6	R1377M
118.165	0.613	238377	REC_WORD	0.613	n/a	FARMER	Professions	1	-1	[0, 0, 0]	n/a	catFR1	6	R1377M
118.778	0.949	238990	REC_WORD	0.949	n/a	TEACHER	Professions	2	-1	[0, 0, 0]	n/a	catFR1	6	R1377M
119.727	0.765	239939	REC_WORD	0.765	n/a	DENIM	Materials	3	-1	[0, 0, 0]	n/a	catFR1	6	R1377M
120.492	1.542	240704	REC_WORD	1.542	n/a	WOOL	Materials	4	-1	[0, 0, 0]	n/a	catFR1	6	R1377M
122.034	1.399	242246	REC_WORD	1.399	n/a	LEATHER	Materials	8	-1	[0, 0, 0]	n/a	catFR1	6	R1377M
123.433	1.691	243645	REC_WORD	1.691	n/a	SECOND	Times	5	-1	[0, 0, 0]	n/a	catFR1	6	R1377M
125.124	21.696	245336	REC_WORD	21.696	n/a	HOUR	Times	6	-1	[0, 0, 0]	n/a	catFR1	6	R1377M
146.82	34.629	267026	REC_END	n/a	n/a	n/a	n/a	-999	-1	[0, 0, 0]	n/a	catFR1	6	R1377M
181.449	10.35	301664	COUNTDOWN_START	n/a	n/a	n/a	n/a	-999	1	[0, 0, 0]	n/a	catFR1	6	R1377M
191.799	0.001	312011	COUNTDOWN_END	n/a	n/a	n/a	n/a	-999	1	[0, 0, 0]	n/a	catFR1	6	R1377M
191.8	2.099	312011	ENCODING_START	n/a	n/a	n/a	n/a	-999	1	[0, 0, 0]	n/a	catFR1	6	R1377M
193.899	1.616	314105	WORD	n/a	wordpools/wordpool_categorized_EN.txt	WOODS	Landscapes	1	1	[0, 0, 0]	n/a	catFR1	6	R1377M
195.515	0.767	315731	WORD_OFF	n/a	n/a	WOODS	Landscapes	1	1	[0, 0, 0]	n/a	catFR1	6	R1377M
196.282	1.6	316489	WORD	n/a	wordpools/wordpool_categorized_EN.txt	CREEK	Landscapes	2	1	[0, 0, 0]	n/a	catFR1	6	R1377M
197.882	0.983	318087	WORD_OFF	n/a	n/a	CREEK	Landscapes	2	1	[0, 0, 0]	n/a	catFR1	6	R1377M
198.865	1.616	319079	WORD	n/a	wordpools/wordpool_categorized_EN.txt	SUNFLOWER	Flowers	3	1	[0, 0, 0]	n/a	catFR1	6	R1377M
200.481	1.001	320691	WORD_OFF	n/a	n/a	SUNFLOWER	Flowers	3	1	[0, 0, 0]	n/a	catFR1	6	R1377M
201.482	1.617	321697	WORD	n/a	wordpools/wordpool_categorized_EN.txt	VIOLET	Flowers	4	1	[0, 0, 0]	n/a	catFR1	6	R1377M
203.099	0.851	323309	WORD_OFF	n/a	n/a	VIOLET	Flowers	4	1	[0, 0, 0]	n/a	catFR1	6	R1377M
203.95	1.615	324163	WORD	n/a	wordpools/wordpool_categorized_EN.txt	CELLO	Instruments	5	1	[0, 0, 0]	n/a	catFR1	6	R1377M
205.565	0.884	325775	WORD_OFF	n/a	n/a	CELLO	Instruments	5	1	[0, 0, 0]	n/a	catFR1	6	R1377M
206.449	1.616	326657	WORD	n/a	wordpools/wordpool_categorized_EN.txt	BASS	Instruments	6	1	[0, 0, 0]	n/a	catFR1	6	R1377M
208.065	0.817	328269	WORD_OFF	n/a	n/a	BASS	Instruments	6	1	[0, 0, 0]	n/a	catFR1	6	R1377M
208.882	1.616	329095	WORD	n/a	wordpools/wordpool_categorized_EN.txt	ORCHID	Flowers	7	1	[0, 0, 0]	n/a	catFR1	6	R1377M
210.498	0.967	330707	WORD_OFF	n/a	n/a	ORCHID	Flowers	7	1	[0, 0, 0]	n/a	catFR1	6	R1377M
211.465	1.616	331672	WORD	n/a	wordpools/wordpool_categorized_EN.txt	LILAC	Flowers	8	1	[0, 0, 0]	n/a	catFR1	6	R1377M
213.081	0.951	333297	WORD_OFF	n/a	n/a	LILAC	Flowers	8	1	[0, 0, 0]	n/a	catFR1	6	R1377M
214.032	1.6	334234	WORD	n/a	wordpools/wordpool_categorized_EN.txt	FOREST	Landscapes	9	1	[0, 0, 0]	n/a	catFR1	6	R1377M
215.632	0.783	335846	WORD_OFF	n/a	n/a	FOREST	Landscapes	9	1	[0, 0, 0]	n/a	catFR1	6	R1377M
216.415	1.601	336618	WORD	n/a	wordpools/wordpool_categorized_EN.txt	LAKE	Landscapes	10	1	[0, 0, 0]	n/a	catFR1	6	R1377M
218.016	1.0	338230	WORD_OFF	n/a	n/a	LAKE	Landscapes	10	1	[0, 0, 0]	n/a	catFR1	6	R1377M
219.016	1.617	339222	WORD	n/a	wordpools/wordpool_categorized_EN.txt	TROMBONE	Instruments	11	1	[0, 0, 0]	n/a	catFR1	6	R1377M
220.633	0.95	340848	WORD_OFF	n/a	n/a	TROMBONE	Instruments	11	1	[0, 0, 0]	n/a	catFR1	6	R1377M
221.583	1.617	341798	WORD	n/a	wordpools/wordpool_categorized_EN.txt	BANJO	Instruments	12	1	[0, 0, 0]	n/a	catFR1	6	R1377M
223.2	0.001	343407	PROB	0.001	n/a	n/a	n/a	-999	1	[2, 4, 4]	10	catFR1	6	R1377M
223.201	0.0	343408	START	n/a	n/a	n/a	n/a	-999	1	[-999, -999, -999]	n/a	catFR1	6	R1377M
223.199	0.002	343410	WORD_OFF	n/a	n/a	BANJO	Instruments	12	1	[0, 0, 0]	n/a	catFR1	6	R1377M
223.201	0.0	343410	ENCODING_END	n/a	n/a	n/a	n/a	-999	1	[0, 0, 0]	n/a	catFR1	6	R1377M
223.201	6.182	343410	DISTRACT_START	n/a	n/a	n/a	n/a	-999	1	[0, 0, 0]	n/a	catFR1	6	R1377M
229.383	3.883	349590	PROB	3.883	n/a	n/a	n/a	-999	1	[4, 6, 4]	14	catFR1	6	R1377M
233.266	5.066	353473	PROB	5.066	n/a	n/a	n/a	-999	1	[6, 6, 1]	13	catFR1	6	R1377M
238.332	4.266	358539	PROB	4.266	n/a	n/a	n/a	-999	1	[1, 4, 3]	8	catFR1	6	R1377M
242.598	4.151	362804	PROB	4.151	n/a	n/a	n/a	-999	1	[5, 2, 8]	15	catFR1	6	R1377M
246.749	0.0	366955	STOP	n/a	n/a	n/a	n/a	-999	1	[-999, -999, -999]	n/a	catFR1	6	R1377M
246.749	1.15	366957	DISTRACT_END	n/a	n/a	n/a	n/a	-999	1	[0, 0, 0]	n/a	catFR1	6	R1377M
247.899	2.008	368100	REC_START	n/a	n/a	n/a	n/a	-999	1	[0, 0, 0]	n/a	catFR1	6	R1377M
249.907	0.545	370113	REC_WORD	0.545	n/a	WOODS	Landscapes	1	1	[0, 0, 0]	n/a	catFR1	6	R1377M
250.452	0.635	370658	REC_WORD	0.635	n/a	CREEK	Landscapes	2	1	[0, 0, 0]	n/a	catFR1	6	R1377M
251.087	1.632	371293	REC_WORD	1.632	n/a	CELLO	Instruments	5	1	[0, 0, 0]	n/a	catFR1	6	R1377M
252.719	1.009	372925	REC_WORD	1.009	n/a	LAKE	Landscapes	10	1	[0, 0, 0]	n/a	catFR1	6	R1377M
253.728	1.565	373934	REC_WORD	1.565	n/a	ORCHID	Flowers	7	1	[0, 0, 0]	n/a	catFR1	6	R1377M
255.293	16.531	375499	REC_WORD	16.531	n/a	TROMBONE	Instruments	11	1	[0, 0, 0]	n/a	catFR1	6	R1377M
271.824	0.747	392029	REC_WORD	0.747	n/a	BASS	Instruments	6	1	[0, 0, 0]	n/a	catFR1	6	R1377M
272.571	5.578	392776	REC_WORD_VV	5.578	n/a	<>	n/a	-999	1	[0, 0, 0]	n/a	catFR1	6	R1377M
278.149	7.484	398356	REC_END	n/a	n/a	n/a	n/a	-999	1	[0, 0, 0]	n/a	catFR1	6	R1377M
285.633	10.35	405837	COUNTDOWN_START	n/a	n/a	n/a	n/a	-999	2	[0, 0, 0]	n/a	catFR1	6	R1377M
295.983	0.0	416185	COUNTDOWN_END	n/a	n/a	n/a	n/a	-999	2	[0, 0, 0]	n/a	catFR1	6	R1377M
295.983	2.016	416185	ENCODING_START	n/a	n/a	n/a	n/a	-999	2	[0, 0, 0]	n/a	catFR1	6	R1377M
297.999	1.616	418210	WORD	n/a	wordpools/wordpool_categorized_EN.txt	MILK	Beverages	1	2	[0, 0, 0]	n/a	catFR1	6	R1377M
299.615	0.784	419822	WORD_OFF	n/a	n/a	MILK	Beverages	1	2	[0, 0, 0]	n/a	catFR1	6	R1377M
300.399	1.6	420607	WORD	n/a	wordpools/wordpool_categorized_EN.txt	SODA	Beverages	2	2	[0, 0, 0]	n/a	catFR1	6	R1377M
301.999	0.816	422205	WORD_OFF	n/a	n/a	SODA	Beverages	2	2	[0, 0, 0]	n/a	catFR1	6	R1377M
302.815	1.6	423018	WORD	n/a	wordpools/wordpool_categorized_EN.txt	CABINET	Furniture	3	2	[0, 0, 0]	n/a	catFR1	6	R1377M
304.415	0.95	424616	WORD_OFF	n/a	n/a	CABINET	Furniture	3	2	[0, 0, 0]	n/a	catFR1	6	R1377M
305.365	1.601	425567	WORD	n/a	wordpools/wordpool_categorized_EN.txt	RECLINER	Furniture	4	2	[0, 0, 0]	n/a	catFR1	6	R1377M
306.966	1.0	427165	WORD_OFF	n/a	n/a	RECLINER	Furniture	4	2	[0, 0, 0]	n/a	catFR1	6	R1377M
307.966	1.6	428171	WORD	n/a	wordpools/wordpool_categorized_EN.txt	STAIRS	Building	5	2	[0, 0, 0]	n/a	catFR1	6	R1377M
309.566	0.982	429769	WORD_OFF	n/a	n/a	STAIRS	Building	5	2	[0, 0, 0]	n/a	catFR1	6	R1377M
310.548	1.601	430748	WORD	n/a	wordpools/wordpool_categorized_EN.txt	BATHROOM	Building	6	2	[0, 0, 0]	n/a	catFR1	6	R1377M
312.149	0.783	432360	WORD_OFF	n/a	n/a	BATHROOM	Building	6	2	[0, 0, 0]	n/a	catFR1	6	R1377M
312.932	1.6	433131	WORD	n/a	wordpools/wordpool_categorized_EN.txt	WATER	Beverages	7	2	[0, 0, 0]	n/a	catFR1	6	R1377M
314.532	0.95	434729	WORD_OFF	n/a	n/a	WATER	Beverages	7	2	[0, 0, 0]	n/a	catFR1	6	R1377M
315.482	1.617	435680	WORD	n/a	wordpools/wordpool_categorized_EN.txt	BEER	Beverages	8	2	[0, 0, 0]	n/a	catFR1	6	R1377M
317.099	0.9	437306	WORD_OFF	n/a	n/a	BEER	Beverages	8	2	[0, 0, 0]	n/a	catFR1	6	R1377M
317.999	1.6	438201	WORD	n/a	wordpools/wordpool_categorized_EN.txt	HALLWAY	Building	9	2	[0, 0, 0]	n/a	catFR1	6	R1377M
319.599	1.0	439800	WORD_OFF	n/a	n/a	HALLWAY	Building	9	2	[0, 0, 0]	n/a	catFR1	6	R1377M
320.599	1.6	440805	WORD	n/a	wordpools/wordpool_categorized_EN.txt	FLOOR	Building	10	2	[0, 0, 0]	n/a	catFR1	6	R1377M
322.199	0.867	442404	WORD_OFF	n/a	n/a	FLOOR	Building	10	2	[0, 0, 0]	n/a	catFR1	6	R1377M
323.066	1.617	443272	WORD	n/a	wordpools/wordpool_categorized_EN.txt	TABLE	Furniture	11	2	[0, 0, 0]	n/a	catFR1	6	R1377M
324.683	0.866	444884	WORD_OFF	n/a	n/a	TABLE	Furniture	11	2	[0, 0, 0]	n/a	catFR1	6	R1377M
325.549	1.6	445752	WORD	n/a	wordpools/wordpool_categorized_EN.txt	DESK	Furniture	12	2	[0, 0, 0]	n/a	catFR1	6	R1377M
327.149	0.002	447350	WORD_OFF	n/a	n/a	DESK	Furniture	12	2	[0, 0, 0]	n/a	catFR1	6	R1377M
327.151	0.0	447350	ENCODING_END	n/a	n/a	n/a	n/a	-999	2	[0, 0, 0]	n/a	catFR1	6	R1377M
327.151	0.0	447350	DISTRACT_START	n/a	n/a	n/a	n/a	-999	2	[0, 0, 0]	n/a	catFR1	6	R1377M
327.151	0.0	447354	START	n/a	n/a	n/a	n/a	-999	2	[-999, -999, -999]	n/a	catFR1	6	R1377M
327.151	5.048	447354	PROB	5.048	n/a	n/a	n/a	-999	2	[7, 3, 2]	12	catFR1	6	R1377M
332.199	5.3	452401	PROB	5.3	n/a	n/a	n/a	-999	2	[1, 4, 7]	12	catFR1	6	R1377M
337.499	4.267	457701	PROB	4.267	n/a	n/a	n/a	-999	2	[7, 6, 7]	20	catFR1	6	R1377M
341.766	3.567	461968	PROB	3.567	n/a	n/a	n/a	-999	2	[1, 3, 6]	10	catFR1	6	R1377M
345.333	4.066	465535	PROB	4.066	n/a	n/a	n/a	-999	2	[6, 6, 5]	17	catFR1	6	R1377M
349.399	0.0	469600	STOP	n/a	n/a	n/a	n/a	-999	2	[-999, -999, -999]	n/a	catFR1	6	R1377M
349.399	1.317	469601	DISTRACT_END	n/a	n/a	n/a	n/a	-999	2	[0, 0, 0]	n/a	catFR1	6	R1377M
350.716	1.662	470924	REC_START	n/a	n/a	n/a	n/a	-999	2	[0, 0, 0]	n/a	catFR1	6	R1377M
352.378	0.334	472579	REC_WORD	0.334	n/a	MILK	Beverages	1	2	[0, 0, 0]	n/a	catFR1	6	R1377M
352.712	0.654	472913	REC_WORD	0.654	n/a	SODA	Beverages	2	2	[0, 0, 0]	n/a	catFR1	6	R1377M
353.366	0.672	473567	REC_WORD	0.672	n/a	CABINET	Furniture	3	2	[0, 0, 0]	n/a	catFR1	6	R1377M
354.038	0.816	474239	REC_WORD	0.816	n/a	RECLINER	Furniture	4	2	[0, 0, 0]	n/a	catFR1	6	R1377M
354.854	0.63	475055	REC_WORD	0.63	n/a	BEAR	n/a	-999	2	[0, 0, 0]	n/a	catFR1	6	R1377M
355.484	0.761	475685	REC_WORD	0.761	n/a	STAIRS	Building	5	2	[0, 0, 0]	n/a	catFR1	6	R1377M
356.245	24.732	476446	REC_WORD	24.732	n/a	HALLWAY	Building	9	2	[0, 0, 0]	n/a	catFR1	6	R1377M
380.977	6.605	501180	REC_END	n/a	n/a	n/a	n/a	-999	2	[0, 0, 0]	n/a	catFR1	6	R1377M
387.582	10.351	507779	COUNTDOWN_START	n/a	n/a	n/a	n/a	-999	3	[0, 0, 0]	n/a	catFR1	6	R1377M
397.933	0.0	518140	COUNTDOWN_END	n/a	n/a	n/a	n/a	-999	3	[0, 0, 0]	n/a	catFR1	6	R1377M
397.933	2.016	518140	ENCODING_START	n/a	n/a	n/a	n/a	-999	3	[0, 0, 0]	n/a	catFR1	6	R1377M
399.949	1.6	520152	WORD	n/a	wordpools/wordpool_categorized_EN.txt	CUPCAKE	Desserts	1	3	[0, 0, 0]	n/a	catFR1	6	R1377M
401.549	0.817	521750	WORD_OFF	n/a	n/a	CUPCAKE	Desserts	1	3	[0, 0, 0]	n/a	catFR1	6	R1377M
402.366	1.6	522563	WORD	n/a	wordpools/wordpool_categorized_EN.txt	PUDDING	Desserts	2	3	[0, 0, 0]	n/a	catFR1	6	R1377M
403.966	0.966	524161	WORD_OFF	n/a	n/a	PUDDING	Desserts	2	3	[0, 0, 0]	n/a	catFR1	6	R1377M
404.932	1.617	525139	WORD	n/a	wordpools/wordpool_categorized_EN.txt	RAIN	Weather	3	3	[0, 0, 0]	n/a	catFR1	6	R1377M
406.549	0.933	526751	WORD_OFF	n/a	n/a	RAIN	Weather	3	3	[0, 0, 0]	n/a	catFR1	6	R1377M
407.482	1.601	527688	WORD	n/a	wordpools/wordpool_categorized_EN.txt	DRIZZLE	Weather	4	3	[0, 0, 0]	n/a	catFR1	6	R1377M
409.083	0.916	529286	WORD_OFF	n/a	n/a	DRIZZLE	Weather	4	3	[0, 0, 0]	n/a	catFR1	6	R1377M
409.999	1.6	530196	WORD	n/a	wordpools/wordpool_categorized_EN.txt	WINDOW	Building	5	3	[0, 0, 0]	n/a	catFR1	6	R1377M
411.599	0.767	531794	WORD_OFF	n/a	n/a	WINDOW	Building	5	3	[0, 0, 0]	n/a	catFR1	6	R1377M
412.366	1.6	532565	WORD	n/a	wordpools/wordpool_categorized_EN.txt	ROOM	Building	6	3	[0, 0, 0]	n/a	catFR1	6	R1377M
413.966	0.883	534164	WORD_OFF	n/a	n/a	ROOM	Building	6	3	[0, 0, 0]	n/a	catFR1	6	R1377M
414.849	1.616	535045	WORD	n/a	wordpools/wordpool_categorized_EN.txt	BROWNIES	Desserts	7	3	[0, 0, 0]	n/a	catFR1	6	R1377M
416.465	0.851	536671	WORD_OFF	n/a	n/a	BROWNIES	Desserts	7	3	[0, 0, 0]	n/a	catFR1	6	R1377M
417.316	1.6	537512	WORD	n/a	wordpools/wordpool_categorized_EN.txt	CHEESECAKE	Desserts	8	3	[0, 0, 0]	n/a	catFR1	6	R1377M
418.916	0.766	539124	WORD_OFF	n/a	n/a	CHEESECAKE	Desserts	8	3	[0, 0, 0]	n/a	catFR1	6	R1377M
419.682	1.6	539881	WORD	n/a	wordpools/wordpool_categorized_EN.txt	WIND	Weather	9	3	[0, 0, 0]	n/a	catFR1	6	R1377M
421.282	0.817	541479	WORD_OFF	n/a	n/a	WIND	Weather	9	3	[0, 0, 0]	n/a	catFR1	6	R1377M
422.099	1.6	542292	WORD	n/a	wordpools/wordpool_categorized_EN.txt	THUNDER	Weather	10	3	[0, 0, 0]	n/a	catFR1	6	R1377M
423.699	0.817	543904	WORD_OFF	n/a	n/a	THUNDER	Weather	10	3	[0, 0, 0]	n/a	catFR1	6	R1377M
424.516	1.6	544717	WORD	n/a	wordpools/wordpool_categorized_EN.txt	ATTIC	Building	11	3	[0, 0, 0]	n/a	catFR1	6	R1377M
426.116	0.833	546315	WORD_OFF	n/a	n/a	ATTIC	Building	11	3	[0, 0, 0]	n/a	catFR1	6	R1377M
426.949	1.617	547142	WORD	n/a	wordpools/wordpool_categorized_EN.txt	ROOF	Building	12	3	[0, 0, 0]	n/a	catFR1	6	R1377M
428.566	0.001	548764	PROB	0.001	n/a	n/a	n/a	-999	3	[2, 4, 4]	10	catFR1	6	R1377M
428.567	0.0	548765	START	n/a	n/a	n/a	n/a	-999	3	[-999, -999, -999]	n/a	catFR1	6	R1377M
428.565	0.002	548768	WORD_OFF	n/a	n/a	ROOF	Building	12	3	[0, 0, 0]	n/a	catFR1	6	R1377M
428.567	0.0	548768	ENCODING_END	n/a	n/a	n/a	n/a	-999	3	[0, 0, 0]	n/a	catFR1	6	R1377M
428.567	6.433	548768	DISTRACT_START	n/a	n/a	n/a	n/a	-999	3	[0, 0, 0]	n/a	catFR1	6	R1377M
435.0	3.715	555197	PROB	3.715	n/a	n/a	n/a	-999	3	[6, 7, 7]	20	catFR1	6	R1377M
438.715	6.168	558912	PROB	6.168	n/a	n/a	n/a	-999	3	[4, 4, 8]	16	catFR1	6	R1377M
444.883	3.383	565080	PROB	3.383	n/a	n/a	n/a	-999	3	[8, 2, 1]	11	catFR1	6	R1377M
448.266	3.699	568463	PROB	3.699	n/a	n/a	n/a	-999	3	[1, 2, 4]	7	catFR1	6	R1377M
451.965	0.0	572162	STOP	n/a	n/a	n/a	n/a	-999	3	[-999, -999, -999]	n/a	catFR1	6	R1377M
451.965	1.233	572163	DISTRACT_END	n/a	n/a	n/a	n/a	-999	3	[0, 0, 0]	n/a	catFR1	6	R1377M
453.198	1.566	573403	REC_START	n/a	n/a	n/a	n/a	-999	3	[0, 0, 0]	n/a	catFR1	6	R1377M
454.764	0.77	574961	REC_WORD	0.77	n/a	CUPCAKE	Desserts	1	3	[0, 0, 0]	n/a	catFR1	6	R1377M
455.534	1.547	575731	REC_WORD	1.547	n/a	PUDDING	Desserts	2	3	[0, 0, 0]	n/a	catFR1	6	R1377M
457.081	0.953	577277	REC_WORD	0.953	n/a	RAIN	Weather	3	3	[0, 0, 0]	n/a	catFR1	6	R1377M
458.034	1.024	578230	REC_WORD	1.024	n/a	DRIZZLE	Weather	4	3	[0, 0, 0]	n/a	catFR1	6	R1377M
459.058	3.16	579254	REC_WORD	3.16	n/a	WINDOW	Building	5	3	[0, 0, 0]	n/a	catFR1	6	R1377M
462.218	2.745	582414	REC_WORD	2.745	n/a	ROOM	Building	6	3	[0, 0, 0]	n/a	catFR1	6	R1377M
464.963	4.197	585159	REC_WORD	4.197	n/a	ROOF	Building	12	3	[0, 0, 0]	n/a	catFR1	6	R1377M
469.16	14.285	589356	REC_WORD	14.285	n/a	ATTIC	Building	11	3	[0, 0, 0]	n/a	catFR1	6	R1377M
483.445	13.638	603645	REC_END	n/a	n/a	n/a	n/a	-999	3	[0, 0, 0]	n/a	catFR1	6	R1377M
497.083	10.35	617285	COUNTDOWN_START	n/a	n/a	n/a	n/a	-999	4	[0, 0, 0]	n/a	catFR1	6	R1377M
507.433	0.0	627632	COUNTDOWN_END	n/a	n/a	n/a	n/a	-999	4	[0, 0, 0]	n/a	catFR1	6	R1377M
507.433	1.982	627632	ENCODING_START	n/a	n/a	n/a	n/a	-999	4	[0, 0, 0]	n/a	catFR1	6	R1377M
509.415	1.601	629616	WORD	n/a	wordpools/wordpool_categorized_EN.txt	SHEEP	Farmanimals	1	4	[0, 0, 0]	n/a	catFR1	6	R1377M
511.016	0.883	631214	WORD_OFF	n/a	n/a	SHEEP	Farmanimals	1	4	[0, 0, 0]	n/a	catFR1	6	R1377M
511.899	1.617	632096	WORD	n/a	wordpools/wordpool_categorized_EN.txt	PIG	Farmanimals	2	4	[0, 0, 0]	n/a	catFR1	6	R1377M
513.516	0.783	633708	WORD_OFF	n/a	n/a	PIG	Farmanimals	2	4	[0, 0, 0]	n/a	catFR1	6	R1377M
514.299	1.617	634493	WORD	n/a	wordpools/wordpool_categorized_EN.txt	CYPRESS	Trees	3	4	[0, 0, 0]	n/a	catFR1	6	R1377M
515.916	0.866	636105	WORD_OFF	n/a	n/a	CYPRESS	Trees	3	4	[0, 0, 0]	n/a	catFR1	6	R1377M
516.782	1.617	636973	WORD	n/a	wordpools/wordpool_categorized_EN.txt	MAPLE	Trees	4	4	[0, 0, 0]	n/a	catFR1	6	R1377M
518.399	0.867	638599	WORD_OFF	n/a	n/a	MAPLE	Trees	4	4	[0, 0, 0]	n/a	catFR1	6	R1377M
519.266	1.6	639453	WORD	n/a	wordpools/wordpool_categorized_EN.txt	MOPED	Vehicles	5	4	[0, 0, 0]	n/a	catFR1	6	R1377M
520.866	0.933	641065	WORD_OFF	n/a	n/a	MOPED	Vehicles	5	4	[0, 0, 0]	n/a	catFR1	6	R1377M
521.799	1.616	641988	WORD	n/a	wordpools/wordpool_categorized_EN.txt	BUS	Vehicles	6	4	[0, 0, 0]	n/a	catFR1	6	R1377M
523.415	0.817	643614	WORD_OFF	n/a	n/a	BUS	Vehicles	6	4	[0, 0, 0]	n/a	catFR1	6	R1377M
524.232	1.617	644427	WORD	n/a	wordpools/wordpool_categorized_EN.txt	EVERGREEN	Trees	7	4	[0, 0, 0]	n/a	catFR1	6	R1377M
525.849	0.9	646039	WORD_OFF	n/a	n/a	EVERGREEN	Trees	7	4	[0, 0, 0]	n/a	catFR1	6	R1377M
526.749	1.616	646948	WORD	n/a	wordpools/wordpool_categorized_EN.txt	CEDAR	Trees	8	4	[0, 0, 0]	n/a	catFR1	6	R1377M
528.365	0.984	648560	WORD_OFF	n/a	n/a	CEDAR	Trees	8	4	[0, 0, 0]	n/a	catFR1	6	R1377M
529.349	1.6	649539	WORD	n/a	wordpools/wordpool_categorized_EN.txt	HEN	Farmanimals	9	4	[0, 0, 0]	n/a	catFR1	6	R1377M
530.949	0.933	651137	WORD_OFF	n/a	n/a	HEN	Farmanimals	9	4	[0, 0, 0]	n/a	catFR1	6	R1377M
531.882	1.617	652074	WORD	n/a	wordpools/wordpool_categorized_EN.txt	CHICKEN	Farmanimals	10	4	[0, 0, 0]	n/a	catFR1	6	R1377M
533.499	0.866	653699	WORD_OFF	n/a	n/a	CHICKEN	Farmanimals	10	4	[0, 0, 0]	n/a	catFR1	6	R1377M
534.365	1.617	654554	WORD	n/a	wordpools/wordpool_categorized_EN.txt	VAN	Vehicles	11	4	[0, 0, 0]	n/a	catFR1	6	R1377M
535.982	0.767	656179	WORD_OFF	n/a	n/a	VAN	Vehicles	11	4	[0, 0, 0]	n/a	catFR1	6	R1377M
536.749	1.616	656937	WORD	n/a	wordpools/wordpool_categorized_EN.txt	BOAT	Vehicles	12	4	[0, 0, 0]	n/a	catFR1	6	R1377M
538.365	0.002	658558	PROB	0.002	n/a	n/a	n/a	-999	4	[8, 8, 4]	20	catFR1	6	R1377M
538.367	0.0	658560	START	n/a	n/a	n/a	n/a	-999	4	[-999, -999, -999]	n/a	catFR1	6	R1377M
538.365	0.002	658563	WORD_OFF	n/a	n/a	BOAT	Vehicles	12	4	[0, 0, 0]	n/a	catFR1	6	R1377M
538.367	0.0	658563	ENCODING_END	n/a	n/a	n/a	n/a	-999	4	[0, 0, 0]	n/a	catFR1	6	R1377M
538.367	7.649	658563	DISTRACT_START	n/a	n/a	n/a	n/a	-999	4	[0, 0, 0]	n/a	catFR1	6	R1377M
546.016	5.167	666208	PROB	5.167	n/a	n/a	n/a	-999	4	[7, 6, 7]	20	catFR1	6	R1377M
551.183	5.517	671375	PROB	5.517	n/a	n/a	n/a	-999	4	[3, 1, 5]	9	catFR1	6	R1377M
556.7	4.799	676892	PROB	4.799	n/a	n/a	n/a	-999	4	[2, 3, 8]	13	catFR1	6	R1377M
561.499	0.0	681691	STOP	n/a	n/a	n/a	n/a	-999	4	[-999, -999, -999]	n/a	catFR1	6	R1377M
561.499	1.1	681696	DISTRACT_END	n/a	n/a	n/a	n/a	-999	4	[0, 0, 0]	n/a	catFR1	6	R1377M
562.599	1.855	682798	REC_START	n/a	n/a	n/a	n/a	-999	4	[0, 0, 0]	n/a	catFR1	6	R1377M
564.454	0.833	684645	REC_WORD	0.833	n/a	SHEEP	Farmanimals	1	4	[0, 0, 0]	n/a	catFR1	6	R1377M
565.287	0.569	685478	REC_WORD	0.569	n/a	PIG	Farmanimals	2	4	[0, 0, 0]	n/a	catFR1	6	R1377M
565.856	0.739	686047	REC_WORD	0.739	n/a	MOPED	Vehicles	5	4	[0, 0, 0]	n/a	catFR1	6	R1377M
566.595	0.716	686786	REC_WORD	0.716	n/a	MAPLE	Trees	4	4	[0, 0, 0]	n/a	catFR1	6	R1377M
567.311	2.491	687502	REC_WORD	2.491	n/a	CYPRESS	Trees	3	4	[0, 0, 0]	n/a	catFR1	6	R1377M
569.802	2.34	689993	REC_WORD	2.34	n/a	EVERGREEN	Trees	7	4	[0, 0, 0]	n/a	catFR1	6	R1377M
572.142	20.703	692333	REC_WORD	20.703	n/a	PIG	Farmanimals	2	4	[0, 0, 0]	n/a	catFR1	6	R1377M
592.845	6.571	713040	REC_END	n/a	n/a	n/a	n/a	-999	4	[0, 0, 0]	n/a	catFR1	6	R1377M
599.416	10.35	719612	COUNTDOWN_START	n/a	n/a	n/a	n/a	-999	5	[0, 0, 0]	n/a	catFR1	6	R1377M
609.766	0.0	729959	COUNTDOWN_END	n/a	n/a	n/a	n/a	-999	5	[0, 0, 0]	n/a	catFR1	6	R1377M
609.766	1.883	729959	ENCODING_START	n/a	n/a	n/a	n/a	-999	5	[0, 0, 0]	n/a	catFR1	6	R1377M
611.649	1.6	731833	WORD	n/a	wordpools/wordpool_categorized_EN.txt	SEAGULL	Birds	1	5	[0, 0, 0]	n/a	catFR1	6	R1377M
613.249	0.983	733445	WORD_OFF	n/a	n/a	SEAGULL	Birds	1	5	[0, 0, 0]	n/a	catFR1	6	R1377M
614.232	1.601	734423	WORD	n/a	wordpools/wordpool_categorized_EN.txt	DUCK	Birds	2	5	[0, 0, 0]	n/a	catFR1	6	R1377M
615.833	0.782	736022	WORD_OFF	n/a	n/a	DUCK	Birds	2	5	[0, 0, 0]	n/a	catFR1	6	R1377M
616.615	1.6	736807	WORD	n/a	wordpools/wordpool_categorized_EN.txt	TUBA	Instruments	3	5	[0, 0, 0]	n/a	catFR1	6	R1377M
618.215	0.783	738405	WORD_OFF	n/a	n/a	TUBA	Instruments	3	5	[0, 0, 0]	n/a	catFR1	6	R1377M
618.998	1.601	739190	WORD	n/a	wordpools/wordpool_categorized_EN.txt	ORGAN	Instruments	4	5	[0, 0, 0]	n/a	catFR1	6	R1377M
620.599	0.816	740789	WORD_OFF	n/a	n/a	ORGAN	Instruments	4	5	[0, 0, 0]	n/a	catFR1	6	R1377M
621.415	1.6	741602	WORD	n/a	wordpools/wordpool_categorized_EN.txt	PLANKTON	Oceananimals	5	5	[0, 0, 0]	n/a	catFR1	6	R1377M
623.015	0.883	743200	WORD_OFF	n/a	n/a	PLANKTON	Oceananimals	5	5	[0, 0, 0]	n/a	catFR1	6	R1377M
623.898	1.617	744082	WORD	n/a	wordpools/wordpool_categorized_EN.txt	LOBSTER	Oceananimals	6	5	[0, 0, 0]	n/a	catFR1	6	R1377M
625.515	1.0	745707	WORD_OFF	n/a	n/a	LOBSTER	Oceananimals	6	5	[0, 0, 0]	n/a	catFR1	6	R1377M
626.515	1.617	746699	WORD	n/a	wordpools/wordpool_categorized_EN.txt	VIOLIN	Instruments	7	5	[0, 0, 0]	n/a	catFR1	6	R1377M
628.132	0.8	748325	WORD_OFF	n/a	n/a	VIOLIN	Instruments	7	5	[0, 0, 0]	n/a	catFR1	6	R1377M
628.932	1.616	749124	WORD	n/a	wordpools/wordpool_categorized_EN.txt	TRUMPET	Instruments	8	5	[0, 0, 0]	n/a	catFR1	6	R1377M
630.548	0.951	750736	WORD_OFF	n/a	n/a	TRUMPET	Instruments	8	5	[0, 0, 0]	n/a	catFR1	6	R1377M
631.499	1.616	751687	WORD	n/a	wordpools/wordpool_categorized_EN.txt	JELLYFISH	Oceananimals	9	5	[0, 0, 0]	n/a	catFR1	6	R1377M
633.115	0.967	753299	WORD_OFF	n/a	n/a	JELLYFISH	Oceananimals	9	5	[0, 0, 0]	n/a	catFR1	6	R1377M
634.082	1.601	754277	WORD	n/a	wordpools/wordpool_categorized_EN.txt	DOLPHIN	Oceananimals	10	5	[0, 0, 0]	n/a	catFR1	6	R1377M
635.683	0.9	755875	WORD_OFF	n/a	n/a	DOLPHIN	Oceananimals	10	5	[0, 0, 0]	n/a	catFR1	6	R1377M
636.583	1.6	756771	WORD	n/a	wordpools/wordpool_categorized_EN.txt	HAWK	Birds	11	5	[0, 0, 0]	n/a	catFR1	6	R1377M
638.183	0.984	758369	WORD_OFF	n/a	n/a	HAWK	Birds	11	5	[0, 0, 0]	n/a	catFR1	6	R1377M
639.167	1.6	759361	WORD	n/a	wordpools/wordpool_categorized_EN.txt	PIGEON	Birds	12	5	[0, 0, 0]	n/a	catFR1	6	R1377M
640.767	0.001	760955	PROB	0.001	n/a	n/a	n/a	-999	5	[3, 8, 5]	16	catFR1	6	R1377M
640.768	0.0	760956	START	n/a	n/a	n/a	n/a	-999	5	[-999, -999, -999]	n/a	catFR1	6	R1377M
640.767	0.001	760959	WORD_OFF	n/a	n/a	PIGEON	Birds	12	5	[0, 0, 0]	n/a	catFR1	6	R1377M
640.768	0.0	760959	ENCODING_END	n/a	n/a	n/a	n/a	-999	5	[0, 0, 0]	n/a	catFR1	6	R1377M
640.768	8.299	760959	DISTRACT_START	n/a	n/a	n/a	n/a	-999	5	[0, 0, 0]	n/a	catFR1	6	R1377M
649.067	2.982	769254	PROB	2.982	n/a	n/a	n/a	-999	5	[3, 4, 1]	8	catFR1	6	R1377M
652.049	3.834	772236	PROB	3.834	n/a	n/a	n/a	-999	5	[5, 3, 2]	10	catFR1	6	R1377M
655.883	3.883	776070	PROB	3.883	n/a	n/a	n/a	-999	5	[6, 1, 1]	8	catFR1	6	R1377M
659.766	4.567	779953	PROB	4.567	n/a	n/a	n/a	-999	5	[2, 8, 6]	16	catFR1	6	R1377M
664.333	0.0	784519	DISTRACT_END	n/a	n/a	n/a	n/a	-999	5	[0, 0, 0]	n/a	catFR1	6	R1377M
664.333	1.266	784520	STOP	n/a	n/a	n/a	n/a	-999	5	[-999, -999, -999]	n/a	catFR1	6	R1377M
665.599	2.897	785787	REC_START	n/a	n/a	n/a	n/a	-999	5	[0, 0, 0]	n/a	catFR1	6	R1377M
668.496	0.82	788683	REC_WORD	0.82	n/a	TUBA	Instruments	3	5	[0, 0, 0]	n/a	catFR1	6	R1377M
669.316	0.898	789503	REC_WORD	0.898	n/a	ORGAN	Instruments	4	5	[0, 0, 0]	n/a	catFR1	6	R1377M
670.214	1.919	790400	REC_WORD	1.919	n/a	PLANKTON	Oceananimals	5	5	[0, 0, 0]	n/a	catFR1	6	R1377M
672.133	1.141	792319	REC_WORD	1.141	n/a	VIOLIN	Instruments	7	5	[0, 0, 0]	n/a	catFR1	6	R1377M
673.274	14.519	793460	REC_WORD	14.519	n/a	JELLYFISH	Oceananimals	9	5	[0, 0, 0]	n/a	catFR1	6	R1377M
687.793	0.729	807979	REC_WORD_VV	0.729	n/a	<>	n/a	-999	5	[0, 0, 0]	n/a	catFR1	6	R1377M
688.522	7.317	808708	REC_WORD	7.317	n/a	SQUID	n/a	-999	5	[0, 0, 0]	n/a	catFR1	6	R1377M
695.839	11.194	816029	REC_END	n/a	n/a	n/a	n/a	-999	5	[0, 0, 0]	n/a	catFR1	6	R1377M
707.033	10.349	827217	COUNTDOWN_START	n/a	n/a	n/a	n/a	-999	6	[0, 0, 0]	n/a	catFR1	6	R1377M
717.382	0.0	837564	COUNTDOWN_END	n/a	n/a	n/a	n/a	-999	6	[0, 0, 0]	n/a	catFR1	6	R1377M
717.382	2.2	837564	ENCODING_START	n/a	n/a	n/a	n/a	-999	6	[0, 0, 0]	n/a	catFR1	6	R1377M
719.582	1.6	839768	WORD	n/a	wordpools/wordpool_categorized_EN.txt	GUITAR	Instruments	1	6	[0, 0, 0]	n/a	catFR1	6	R1377M
721.182	0.767	841366	WORD_OFF	n/a	n/a	GUITAR	Instruments	1	6	[0, 0, 0]	n/a	catFR1	6	R1377M
721.949	1.6	842138	WORD	n/a	wordpools/wordpool_categorized_EN.txt	DRUM	Instruments	2	6	[0, 0, 0]	n/a	catFR1	6	R1377M
723.549	0.916	843736	WORD_OFF	n/a	n/a	DRUM	Instruments	2	6	[0, 0, 0]	n/a	catFR1	6	R1377M
724.465	1.601	844645	WORD	n/a	wordpools/wordpool_categorized_EN.txt	LETTUCE	Vegetables	3	6	[0, 0, 0]	n/a	catFR1	6	R1377M
726.066	0.966	846257	WORD_OFF	n/a	n/a	LETTUCE	Vegetables	3	6	[0, 0, 0]	n/a	catFR1	6	R1377M
727.032	1.6	847222	WORD	n/a	wordpools/wordpool_categorized_EN.txt	CARROT	Vegetables	4	6	[0, 0, 0]	n/a	catFR1	6	R1377M
728.632	0.967	848820	WORD_OFF	n/a	n/a	CARROT	Vegetables	4	6	[0, 0, 0]	n/a	catFR1	6	R1377M
729.599	1.6	849785	WORD	n/a	wordpools/wordpool_categorized_EN.txt	LIME	Fruit	5	6	[0, 0, 0]	n/a	catFR1	6	R1377M
731.199	0.95	851383	WORD_OFF	n/a	n/a	LIME	Fruit	5	6	[0, 0, 0]	n/a	catFR1	6	R1377M
732.149	1.6	852333	WORD	n/a	wordpools/wordpool_categorized_EN.txt	PEACH	Fruit	6	6	[0, 0, 0]	n/a	catFR1	6	R1377M
733.749	0.817	853932	WORD_OFF	n/a	n/a	PEACH	Fruit	6	6	[0, 0, 0]	n/a	catFR1	6	R1377M
734.566	1.6	854745	WORD	n/a	wordpools/wordpool_categorized_EN.txt	PIANO	Instruments	7	6	[0, 0, 0]	n/a	catFR1	6	R1377M
736.166	0.884	856357	WORD_OFF	n/a	n/a	PIANO	Instruments	7	6	[0, 0, 0]	n/a	catFR1	6	R1377M
737.05	1.599	857238	WORD	n/a	wordpools/wordpool_categorized_EN.txt	FLUTE	Instruments	8	6	[0, 0, 0]	n/a	catFR1	6	R1377M
738.649	0.833	858837	WORD_OFF	n/a	n/a	FLUTE	Instruments	8	6	[0, 0, 0]	n/a	catFR1	6	R1377M
739.482	1.617	859663	WORD	n/a	wordpools/wordpool_categorized_EN.txt	CORN	Vegetables	9	6	[0, 0, 0]	n/a	catFR1	6	R1377M
741.099	0.951	861289	WORD_OFF	n/a	n/a	CORN	Vegetables	9	6	[0, 0, 0]	n/a	catFR1	6	R1377M
742.05	1.599	862240	WORD	n/a	wordpools/wordpool_categorized_EN.txt	CUCUMBER	Vegetables	10	6	[0, 0, 0]	n/a	catFR1	6	R1377M
743.649	0.932	863838	WORD_OFF	n/a	n/a	CUCUMBER	Vegetables	10	6	[0, 0, 0]	n/a	catFR1	6	R1377M
744.581	1.601	864761	WORD	n/a	wordpools/wordpool_categorized_EN.txt	LEMON	Fruit	11	6	[0, 0, 0]	n/a	catFR1	6	R1377M
746.182	1.0	866359	WORD_OFF	n/a	n/a	LEMON	Fruit	11	6	[0, 0, 0]	n/a	catFR1	6	R1377M
747.182	1.601	867365	WORD	n/a	wordpools/wordpool_categorized_EN.txt	STRAWBERRY	Fruit	12	6	[0, 0, 0]	n/a	catFR1	6	R1377M
748.783	0.001	868963	WORD_OFF	n/a	n/a	STRAWBERRY	Fruit	12	6	[0, 0, 0]	n/a	catFR1	6	R1377M
748.784	0.0	868963	ENCODING_END	n/a	n/a	n/a	n/a	-999	6	[0, 0, 0]	n/a	catFR1	6	R1377M
748.783	0.001	868966	PROB	0.001	n/a	n/a	n/a	-999	6	[5, 3, 4]	12	catFR1	6	R1377M
748.784	0.0	868967	START	n/a	n/a	n/a	n/a	-999	6	[-999, -999, -999]	n/a	catFR1	6	R1377M
748.784	9.215	868977	DISTRACT_START	n/a	n/a	n/a	n/a	-999	6	[0, 0, 0]	n/a	catFR1	6	R1377M
757.999	4.169	878181	PROB	4.169	n/a	n/a	n/a	-999	6	[5, 5, 6]	16	catFR1	6	R1377M
762.168	3.898	882350	PROB	3.898	n/a	n/a	n/a	-999	6	[7, 1, 2]	10	catFR1	6	R1377M
766.066	4.666	886248	PROB	4.666	n/a	n/a	n/a	-999	6	[4, 6, 4]	14	catFR1	6	R1377M
770.732	0.0	890911	DISTRACT_END	n/a	n/a	n/a	n/a	-999	6	[0, 0, 0]	n/a	catFR1	6	R1377M
770.732	1.15	890914	STOP	n/a	n/a	n/a	n/a	-999	6	[-999, -999, -999]	n/a	catFR1	6	R1377M
771.882	1.854	892069	REC_START	n/a	n/a	n/a	n/a	-999	6	[0, 0, 0]	n/a	catFR1	6	R1377M
773.736	0.348	893918	REC_WORD	0.348	n/a	DRUM	Instruments	2	6	[0, 0, 0]	n/a	catFR1	6	R1377M
774.084	0.704	894266	REC_WORD	0.704	n/a	LETTUCE	Vegetables	3	6	[0, 0, 0]	n/a	catFR1	6	R1377M
774.788	0.705	894970	REC_WORD	0.705	n/a	CARROT	Vegetables	4	6	[0, 0, 0]	n/a	catFR1	6	R1377M
775.493	0.786	895675	REC_WORD	0.786	n/a	LIME	Fruit	5	6	[0, 0, 0]	n/a	catFR1	6	R1377M
776.279	1.075	896460	REC_WORD	1.075	n/a	PEACH	Fruit	6	6	[0, 0, 0]	n/a	catFR1	6	R1377M
777.354	1.035	897535	REC_WORD	1.035	n/a	PIANO	Instruments	7	6	[0, 0, 0]	n/a	catFR1	6	R1377M
778.389	0.561	898570	REC_WORD	0.561	n/a	CORN	Vegetables	9	6	[0, 0, 0]	n/a	catFR1	6	R1377M
778.95	23.177	899131	REC_WORD	23.177	n/a	CUCUMBER	Vegetables	10	6	[0, 0, 0]	n/a	catFR1	6	R1377M
802.127	7.172	922311	REC_END	n/a	n/a	n/a	n/a	-999	6	[0, 0, 0]	n/a	catFR1	6	R1377M
809.299	10.35	929475	COUNTDOWN_START	n/a	n/a	n/a	n/a	-999	7	[0, 0, 0]	n/a	catFR1	6	R1377M
819.649	0.0	939836	COUNTDOWN_END	n/a	n/a	n/a	n/a	-999	7	[0, 0, 0]	n/a	catFR1	6	R1377M
819.649	2.167	939836	ENCODING_START	n/a	n/a	n/a	n/a	-999	7	[0, 0, 0]	n/a	catFR1	6	R1377M
821.816	1.6	941999	WORD	n/a	wordpools/wordpool_categorized_EN.txt	WALL	Building	1	7	[0, 0, 0]	n/a	catFR1	6	R1377M
823.416	0.817	943597	WORD_OFF	n/a	n/a	WALL	Building	1	7	[0, 0, 0]	n/a	catFR1	6	R1377M
824.233	1.616	944410	WORD	n/a	wordpools/wordpool_categorized_EN.txt	CEILING	Building	2	7	[0, 0, 0]	n/a	catFR1	6	R1377M
825.849	0.85	946036	WORD_OFF	n/a	n/a	CEILING	Building	2	7	[0, 0, 0]	n/a	catFR1	6	R1377M
826.699	1.617	946876	WORD	n/a	wordpools/wordpool_categorized_EN.txt	ARM	Bodyparts	3	7	[0, 0, 0]	n/a	catFR1	6	R1377M
828.316	0.833	948502	WORD_OFF	n/a	n/a	ARM	Bodyparts	3	7	[0, 0, 0]	n/a	catFR1	6	R1377M
829.149	1.617	949329	WORD	n/a	wordpools/wordpool_categorized_EN.txt	ELBOW	Bodyparts	4	7	[0, 0, 0]	n/a	catFR1	6	R1377M
830.766	0.866	950941	WORD_OFF	n/a	n/a	ELBOW	Bodyparts	4	7	[0, 0, 0]	n/a	catFR1	6	R1377M
831.632	1.617	951809	WORD	n/a	wordpools/wordpool_categorized_EN.txt	CLOUD	Weather	5	7	[0, 0, 0]	n/a	catFR1	6	R1377M
833.249	0.95	953435	WORD_OFF	n/a	n/a	CLOUD	Weather	5	7	[0, 0, 0]	n/a	catFR1	6	R1377M
834.199	1.617	954385	WORD	n/a	wordpools/wordpool_categorized_EN.txt	HURRICANE	Weather	6	7	[0, 0, 0]	n/a	catFR1	6	R1377M
835.816	0.967	955997	WORD_OFF	n/a	n/a	HURRICANE	Weather	6	7	[0, 0, 0]	n/a	catFR1	6	R1377M
836.783	1.616	956962	WORD	n/a	wordpools/wordpool_categorized_EN.txt	FOUNDATION	Building	7	7	[0, 0, 0]	n/a	catFR1	6	R1377M
838.399	1.0	958574	WORD_OFF	n/a	n/a	FOUNDATION	Building	7	7	[0, 0, 0]	n/a	catFR1	6	R1377M
839.399	1.6	959580	WORD	n/a	wordpools/wordpool_categorized_EN.txt	DOOR	Building	8	7	[0, 0, 0]	n/a	catFR1	6	R1377M
840.999	0.917	961178	WORD_OFF	n/a	n/a	DOOR	Building	8	7	[0, 0, 0]	n/a	catFR1	6	R1377M
841.916	1.617	962101	WORD	n/a	wordpools/wordpool_categorized_EN.txt	THUNDERSTORM	Weather	9	7	[0, 0, 0]	n/a	catFR1	6	R1377M
843.533	0.8	963713	WORD_OFF	n/a	n/a	THUNDERSTORM	Weather	9	7	[0, 0, 0]	n/a	catFR1	6	R1377M
844.333	1.6	964512	WORD	n/a	wordpools/wordpool_categorized_EN.txt	HUMIDITY	Weather	10	7	[0, 0, 0]	n/a	catFR1	6	R1377M
845.933	0.866	966110	WORD_OFF	n/a	n/a	HUMIDITY	Weather	10	7	[0, 0, 0]	n/a	catFR1	6	R1377M
846.799	1.617	966978	WORD	n/a	wordpools/wordpool_categorized_EN.txt	NOSE	Bodyparts	11	7	[0, 0, 0]	n/a	catFR1	6	R1377M
848.416	0.766	968590	WORD_OFF	n/a	n/a	NOSE	Bodyparts	11	7	[0, 0, 0]	n/a	catFR1	6	R1377M
849.182	1.6	969362	WORD	n/a	wordpools/wordpool_categorized_EN.txt	FOOT	Bodyparts	12	7	[0, 0, 0]	n/a	catFR1	6	R1377M
850.782	0.002	970960	WORD_OFF	n/a	n/a	FOOT	Bodyparts	12	7	[0, 0, 0]	n/a	catFR1	6	R1377M
850.784	0.0	970960	ENCODING_END	n/a	n/a	n/a	n/a	-999	7	[0, 0, 0]	n/a	catFR1	6	R1377M
850.784	0.0	970960	DISTRACT_START	n/a	n/a	n/a	n/a	-999	7	[0, 0, 0]	n/a	catFR1	6	R1377M
850.783	0.001	970961	PROB	0.001	n/a	n/a	n/a	-999	7	[5, 5, 2]	12	catFR1	6	R1377M
850.784	5.549	970962	START	n/a	n/a	n/a	n/a	-999	7	[-999, -999, -999]	n/a	catFR1	6	R1377M
856.333	3.633	976511	PROB	3.633	n/a	n/a	n/a	-999	7	[7, 6, 7]	20	catFR1	6	R1377M
859.966	3.95	980144	PROB	3.95	n/a	n/a	n/a	-999	7	[7, 2, 8]	17	catFR1	6	R1377M
863.916	4.383	984093	PROB	4.383	n/a	n/a	n/a	-999	7	[1, 6, 3]	10	catFR1	6	R1377M
868.299	3.766	988476	PROB	3.766	n/a	n/a	n/a	-999	7	[1, 1, 6]	8	catFR1	6	R1377M
872.065	0.0	992242	STOP	n/a	n/a	n/a	n/a	-999	7	[-999, -999, -999]	n/a	catFR1	6	R1377M
872.065	1.15	992247	DISTRACT_END	n/a	n/a	n/a	n/a	-999	7	[0, 0, 0]	n/a	catFR1	6	R1377M
873.215	2.668	993390	REC_START	n/a	n/a	n/a	n/a	-999	7	[0, 0, 0]	n/a	catFR1	6	R1377M
875.883	0.343	996060	REC_WORD	0.343	n/a	WALL	Building	1	7	[0, 0, 0]	n/a	catFR1	6	R1377M
876.226	0.829	996403	REC_WORD	0.829	n/a	CEILING	Building	2	7	[0, 0, 0]	n/a	catFR1	6	R1377M
877.055	0.579	997232	REC_WORD	0.579	n/a	ARM	Bodyparts	3	7	[0, 0, 0]	n/a	catFR1	6	R1377M
877.634	0.624	997811	REC_WORD	0.624	n/a	ELBOW	Bodyparts	4	7	[0, 0, 0]	n/a	catFR1	6	R1377M
878.258	0.908	998435	REC_WORD	0.908	n/a	CLOUD	Weather	5	7	[0, 0, 0]	n/a	catFR1	6	R1377M
879.166	1.581	999343	REC_WORD	1.581	n/a	FOUNDATION	Building	7	7	[0, 0, 0]	n/a	catFR1	6	R1377M
880.747	8.655	1000924	REC_WORD	8.655	n/a	THUNDERSTORM	Weather	9	7	[0, 0, 0]	n/a	catFR1	6	R1377M
889.402	14.065	1009578	REC_WORD	14.065	n/a	HUMIDITY	Weather	10	7	[0, 0, 0]	n/a	catFR1	6	R1377M
903.467	18.882	1023646	REC_END	n/a	n/a	n/a	n/a	-999	7	[0, 0, 0]	n/a	catFR1	6	R1377M
922.349	10.351	1042522	COUNTDOWN_START	n/a	n/a	n/a	n/a	-999	8	[0, 0, 0]	n/a	catFR1	6	R1377M
932.7	0.0	1052869	COUNTDOWN_END	n/a	n/a	n/a	n/a	-999	8	[0, 0, 0]	n/a	catFR1	6	R1377M
932.7	2.149	1052883	ENCODING_START	n/a	n/a	n/a	n/a	-999	8	[0, 0, 0]	n/a	catFR1	6	R1377M
934.849	1.617	1055018	WORD	n/a	wordpools/wordpool_categorized_EN.txt	FISH	Oceananimals	1	8	[0, 0, 0]	n/a	catFR1	6	R1377M
936.466	0.983	1056644	WORD_OFF	n/a	n/a	FISH	Oceananimals	1	8	[0, 0, 0]	n/a	catFR1	6	R1377M
937.449	1.617	1057622	WORD	n/a	wordpools/wordpool_categorized_EN.txt	TURTLE	Oceananimals	2	8	[0, 0, 0]	n/a	catFR1	6	R1377M
939.066	0.783	1059234	WORD_OFF	n/a	n/a	TURTLE	Oceananimals	2	8	[0, 0, 0]	n/a	catFR1	6	R1377M
939.849	1.617	1060019	WORD	n/a	wordpools/wordpool_categorized_EN.txt	PEAR	Fruit	3	8	[0, 0, 0]	n/a	catFR1	6	R1377M
941.466	0.766	1061645	WORD_OFF	n/a	n/a	PEAR	Fruit	3	8	[0, 0, 0]	n/a	catFR1	6	R1377M
942.232	1.6	1062403	WORD	n/a	wordpools/wordpool_categorized_EN.txt	PLUM	Fruit	4	8	[0, 0, 0]	n/a	catFR1	6	R1377M
943.832	0.967	1064001	WORD_OFF	n/a	n/a	PLUM	Fruit	4	8	[0, 0, 0]	n/a	catFR1	6	R1377M
944.799	1.6	1064979	WORD	n/a	wordpools/wordpool_categorized_EN.txt	DRESS	Clothing	5	8	[0, 0, 0]	n/a	catFR1	6	R1377M
946.399	0.883	1066578	WORD_OFF	n/a	n/a	DRESS	Clothing	5	8	[0, 0, 0]	n/a	catFR1	6	R1377M
947.282	1.6	1067459	WORD	n/a	wordpools/wordpool_categorized_EN.txt	SHOES	Clothing	6	8	[0, 0, 0]	n/a	catFR1	6	R1377M
948.882	0.816	1069058	WORD_OFF	n/a	n/a	SHOES	Clothing	6	8	[0, 0, 0]	n/a	catFR1	6	R1377M
949.698	1.601	1069871	WORD	n/a	wordpools/wordpool_categorized_EN.txt	SHRIMP	Oceananimals	7	8	[0, 0, 0]	n/a	catFR1	6	R1377M
951.299	0.883	1071469	WORD_OFF	n/a	n/a	SHRIMP	Oceananimals	7	8	[0, 0, 0]	n/a	catFR1	6	R1377M
952.182	1.6	1072351	WORD	n/a	wordpools/wordpool_categorized_EN.txt	CRAB	Oceananimals	8	8	[0, 0, 0]	n/a	catFR1	6	R1377M
953.782	0.983	1073949	WORD_OFF	n/a	n/a	CRAB	Oceananimals	8	8	[0, 0, 0]	n/a	catFR1	6	R1377M
954.765	1.6	1074941	WORD	n/a	wordpools/wordpool_categorized_EN.txt	PANTS	Clothing	9	8	[0, 0, 0]	n/a	catFR1	6	R1377M
956.365	0.849	1076539	WORD_OFF	n/a	n/a	PANTS	Clothing	9	8	[0, 0, 0]	n/a	catFR1	6	R1377M
957.214	1.601	1077393	WORD	n/a	wordpools/wordpool_categorized_EN.txt	JEANS	Clothing	10	8	[0, 0, 0]	n/a	catFR1	6	R1377M
958.815	1.0	1078991	WORD_OFF	n/a	n/a	JEANS	Clothing	10	8	[0, 0, 0]	n/a	catFR1	6	R1377M
959.815	1.617	1079983	WORD	n/a	wordpools/wordpool_categorized_EN.txt	ORANGE	Fruit	11	8	[0, 0, 0]	n/a	catFR1	6	R1377M
961.432	0.916	1081609	WORD_OFF	n/a	n/a	ORANGE	Fruit	11	8	[0, 0, 0]	n/a	catFR1	6	R1377M
962.348	1.617	1082519	WORD	n/a	wordpools/wordpool_categorized_EN.txt	BLUEBERRY	Fruit	12	8	[0, 0, 0]	n/a	catFR1	6	R1377M
963.965	0.001	1084138	PROB	0.001	n/a	n/a	n/a	-999	8	[4, 5, 3]	12	catFR1	6	R1377M
963.966	0.0	1084139	START	n/a	n/a	n/a	n/a	-999	8	[-999, -999, -999]	n/a	catFR1	6	R1377M
963.965	0.001	1084144	WORD_OFF	n/a	n/a	BLUEBERRY	Fruit	12	8	[0, 0, 0]	n/a	catFR1	6	R1377M
963.966	0.0	1084144	ENCODING_END	n/a	n/a	n/a	n/a	-999	8	[0, 0, 0]	n/a	catFR1	6	R1377M
963.966	5.8	1084144	DISTRACT_START	n/a	n/a	n/a	n/a	-999	8	[0, 0, 0]	n/a	catFR1	6	R1377M
969.766	2.918	1089938	PROB	2.918	n/a	n/a	n/a	-999	8	[4, 2, 1]	7	catFR1	6	R1377M
972.684	3.549	1092856	PROB	3.549	n/a	n/a	n/a	-999	8	[1, 5, 4]	10	catFR1	6	R1377M
976.233	9.549	1096405	PROB	9.549	n/a	n/a	n/a	-999	8	[7, 8, 8]	23	catFR1	6	R1377M
985.782	0.0	1105954	STOP	n/a	n/a	n/a	n/a	-999	8	[-999, -999, -999]	n/a	catFR1	6	R1377M
985.782	1.134	1105955	DISTRACT_END	n/a	n/a	n/a	n/a	-999	8	[0, 0, 0]	n/a	catFR1	6	R1377M
986.916	2.179	1107084	REC_START	n/a	n/a	n/a	n/a	-999	8	[0, 0, 0]	n/a	catFR1	6	R1377M
989.095	0.729	1109267	REC_WORD	0.729	n/a	FISH	Oceananimals	1	8	[0, 0, 0]	n/a	catFR1	6	R1377M
989.824	0.894	1109995	REC_WORD	0.894	n/a	TURTLE	Oceananimals	2	8	[0, 0, 0]	n/a	catFR1	6	R1377M
990.718	0.538	1110889	REC_WORD	0.538	n/a	PEAR	Fruit	3	8	[0, 0, 0]	n/a	catFR1	6	R1377M
991.256	0.601	1111427	REC_WORD	0.601	n/a	PLUM	Fruit	4	8	[0, 0, 0]	n/a	catFR1	6	R1377M
991.857	0.405	1112028	REC_WORD	0.405	n/a	DRESS	Clothing	5	8	[0, 0, 0]	n/a	catFR1	6	R1377M
992.262	0.815	1112433	REC_WORD	0.815	n/a	SHOES	Clothing	6	8	[0, 0, 0]	n/a	catFR1	6	R1377M
993.077	0.646	1113248	REC_WORD	0.646	n/a	CRAB	Oceananimals	8	8	[0, 0, 0]	n/a	catFR1	6	R1377M
993.723	23.435	1113894	REC_WORD	23.435	n/a	PANTS	Clothing	9	8	[0, 0, 0]	n/a	catFR1	6	R1377M
1017.158	4.808	1137327	REC_END	n/a	n/a	n/a	n/a	-999	8	[0, 0, 0]	n/a	catFR1	6	R1377M
1021.966	10.35	1142135	COUNTDOWN_START	n/a	n/a	n/a	n/a	-999	9	[0, 0, 0]	n/a	catFR1	6	R1377M
1032.316	0.0	1152482	COUNTDOWN_END	n/a	n/a	n/a	n/a	-999	9	[0, 0, 0]	n/a	catFR1	6	R1377M
1032.316	2.166	1152482	ENCODING_START	n/a	n/a	n/a	n/a	-999	9	[0, 0, 0]	n/a	catFR1	6	R1377M
1034.482	1.6	1154645	WORD	n/a	wordpools/wordpool_categorized_EN.txt	OCTOPUS	Oceananimals	1	9	[0, 0, 0]	n/a	catFR1	6	R1377M
1036.082	0.783	1156257	WORD_OFF	n/a	n/a	OCTOPUS	Oceananimals	1	9	[0, 0, 0]	n/a	catFR1	6	R1377M
1036.865	1.6	1157042	WORD	n/a	wordpools/wordpool_categorized_EN.txt	WHALE	Oceananimals	2	9	[0, 0, 0]	n/a	catFR1	6	R1377M
1038.465	1.0	1158641	WORD_OFF	n/a	n/a	WHALE	Oceananimals	2	9	[0, 0, 0]	n/a	catFR1	6	R1377M
1039.465	1.6	1159633	WORD	n/a	wordpools/wordpool_categorized_EN.txt	BULL	Farmanimals	3	9	[0, 0, 0]	n/a	catFR1	6	R1377M
1041.065	0.783	1161231	WORD_OFF	n/a	n/a	BULL	Farmanimals	3	9	[0, 0, 0]	n/a	catFR1	6	R1377M
1041.848	1.6	1162016	WORD	n/a	wordpools/wordpool_categorized_EN.txt	COW	Farmanimals	4	9	[0, 0, 0]	n/a	catFR1	6	R1377M
1043.448	0.817	1163614	WORD_OFF	n/a	n/a	COW	Farmanimals	4	9	[0, 0, 0]	n/a	catFR1	6	R1377M
1044.265	1.6	1164441	WORD	n/a	wordpools/wordpool_categorized_EN.txt	FINCH	Birds	5	9	[0, 0, 0]	n/a	catFR1	6	R1377M
1045.865	0.767	1166039	WORD_OFF	n/a	n/a	FINCH	Birds	5	9	[0, 0, 0]	n/a	catFR1	6	R1377M
1046.632	1.599	1166797	WORD	n/a	wordpools/wordpool_categorized_EN.txt	BLUEBIRD	Birds	6	9	[0, 0, 0]	n/a	catFR1	6	R1377M
1048.231	1.001	1168395	WORD_OFF	n/a	n/a	BLUEBIRD	Birds	6	9	[0, 0, 0]	n/a	catFR1	6	R1377M
1049.232	1.617	1169401	WORD	n/a	wordpools/wordpool_categorized_EN.txt	SQUID	Oceananimals	7	9	[0, 0, 0]	n/a	catFR1	6	R1377M
1050.849	0.966	1171013	WORD_OFF	n/a	n/a	SQUID	Oceananimals	7	9	[0, 0, 0]	n/a	catFR1	6	R1377M
1051.815	1.6	1171991	WORD	n/a	wordpools/wordpool_categorized_EN.txt	OYSTER	Oceananimals	8	9	[0, 0, 0]	n/a	catFR1	6	R1377M
1053.415	0.934	1173590	WORD_OFF	n/a	n/a	OYSTER	Oceananimals	8	9	[0, 0, 0]	n/a	catFR1	6	R1377M
1054.349	1.601	1174513	WORD	n/a	wordpools/wordpool_categorized_EN.txt	HORSE	Farmanimals	9	9	[0, 0, 0]	n/a	catFR1	6	R1377M
1055.95	0.817	1176125	WORD_OFF	n/a	n/a	HORSE	Farmanimals	9	9	[0, 0, 0]	n/a	catFR1	6	R1377M
1056.767	1.6	1176938	WORD	n/a	wordpools/wordpool_categorized_EN.txt	GOAT	Farmanimals	10	9	[0, 0, 0]	n/a	catFR1	6	R1377M
1058.367	0.832	1178536	WORD_OFF	n/a	n/a	GOAT	Farmanimals	10	9	[0, 0, 0]	n/a	catFR1	6	R1377M
1059.199	1.6	1179362	WORD	n/a	wordpools/wordpool_categorized_EN.txt	ROBIN	Birds	11	9	[0, 0, 0]	n/a	catFR1	6	R1377M
1060.799	0.917	1180974	WORD_OFF	n/a	n/a	ROBIN	Birds	11	9	[0, 0, 0]	n/a	catFR1	6	R1377M
1061.716	1.599	1181884	WORD	n/a	wordpools/wordpool_categorized_EN.txt	DOVE	Birds	12	9	[0, 0, 0]	n/a	catFR1	6	R1377M
1063.315	0.002	1183482	WORD_OFF	n/a	n/a	DOVE	Birds	12	9	[0, 0, 0]	n/a	catFR1	6	R1377M
1063.317	0.0	1183482	ENCODING_END	n/a	n/a	n/a	n/a	-999	9	[0, 0, 0]	n/a	catFR1	6	R1377M
1063.317	0.0	1183482	DISTRACT_START	n/a	n/a	n/a	n/a	-999	9	[0, 0, 0]	n/a	catFR1	6	R1377M
1063.315	0.002	1183483	PROB	0.002	n/a	n/a	n/a	-999	9	[2, 3, 4]	9	catFR1	6	R1377M
1063.317	3.732	1183485	START	n/a	n/a	n/a	n/a	-999	9	[-999, -999, -999]	n/a	catFR1	6	R1377M
1067.049	4.267	1187217	PROB	4.267	n/a	n/a	n/a	-999	9	[5, 4, 8]	17	catFR1	6	R1377M
1071.316	3.867	1191484	PROB	3.867	n/a	n/a	n/a	-999	9	[2, 8, 7]	17	catFR1	6	R1377M
1075.183	3.433	1195351	PROB	3.433	n/a	n/a	n/a	-999	9	[4, 7, 3]	14	catFR1	6	R1377M
1078.616	6.115	1198783	PROB	6.115	n/a	n/a	n/a	-999	9	[8, 5, 7]	20	catFR1	6	R1377M
1084.731	0.0	1204898	STOP	n/a	n/a	n/a	n/a	-999	9	[-999, -999, -999]	n/a	catFR1	6	R1377M
1084.731	1.067	1204906	DISTRACT_END	n/a	n/a	n/a	n/a	-999	9	[0, 0, 0]	n/a	catFR1	6	R1377M
1085.798	1.68	1205967	REC_START	n/a	n/a	n/a	n/a	-999	9	[0, 0, 0]	n/a	catFR1	6	R1377M
1087.478	0.988	1207645	REC_WORD	0.988	n/a	OCTOPUS	Oceananimals	1	9	[0, 0, 0]	n/a	catFR1	6	R1377M
1088.466	0.79	1208633	REC_WORD	0.79	n/a	WHALE	Oceananimals	2	9	[0, 0, 0]	n/a	catFR1	6	R1377M
1089.256	1.025	1209423	REC_WORD	1.025	n/a	BULL	Farmanimals	3	9	[0, 0, 0]	n/a	catFR1	6	R1377M
1090.281	0.916	1210448	REC_WORD	0.916	n/a	WHALE	Oceananimals	2	9	[0, 0, 0]	n/a	catFR1	6	R1377M
1091.197	0.674	1211364	REC_WORD	0.674	n/a	COW	Farmanimals	4	9	[0, 0, 0]	n/a	catFR1	6	R1377M
1091.871	12.622	1212038	REC_WORD	12.622	n/a	SQUID	Oceananimals	7	9	[0, 0, 0]	n/a	catFR1	6	R1377M
1104.493	11.554	1224659	REC_WORD	11.554	n/a	ZEBRA	n/a	-999	9	[0, 0, 0]	n/a	catFR1	6	R1377M
1116.047	19.335	1236210	REC_END	n/a	n/a	n/a	n/a	-999	9	[0, 0, 0]	n/a	catFR1	6	R1377M
1135.382	10.351	1255554	COUNTDOWN_START	n/a	n/a	n/a	n/a	-999	10	[0, 0, 0]	n/a	catFR1	6	R1377M
1145.733	0.0	1265901	COUNTDOWN_END	n/a	n/a	n/a	n/a	-999	10	[0, 0, 0]	n/a	catFR1	6	R1377M
1145.733	1.916	1265901	ENCODING_START	n/a	n/a	n/a	n/a	-999	10	[0, 0, 0]	n/a	catFR1	6	R1377M
1147.649	1.616	1267816	WORD	n/a	wordpools/wordpool_categorized_EN.txt	LEG	Bodyparts	1	10	[0, 0, 0]	n/a	catFR1	6	R1377M
1149.265	0.951	1269428	WORD_OFF	n/a	n/a	LEG	Bodyparts	1	10	[0, 0, 0]	n/a	catFR1	6	R1377M
1150.216	1.616	1270378	WORD	n/a	wordpools/wordpool_categorized_EN.txt	KNEE	Bodyparts	2	10	[0, 0, 0]	n/a	catFR1	6	R1377M
1151.832	0.951	1272004	WORD_OFF	n/a	n/a	KNEE	Bodyparts	2	10	[0, 0, 0]	n/a	catFR1	6	R1377M
1152.783	1.599	1272941	WORD	n/a	wordpools/wordpool_categorized_EN.txt	SPINACH	Vegetables	3	10	[0, 0, 0]	n/a	catFR1	6	R1377M
1154.382	0.884	1274553	WORD_OFF	n/a	n/a	SPINACH	Vegetables	3	10	[0, 0, 0]	n/a	catFR1	6	R1377M
1155.266	1.6	1275435	WORD	n/a	wordpools/wordpool_categorized_EN.txt	PEAS	Vegetables	4	10	[0, 0, 0]	n/a	catFR1	6	R1377M
1156.866	0.983	1277033	WORD_OFF	n/a	n/a	PEAS	Vegetables	4	10	[0, 0, 0]	n/a	catFR1	6	R1377M
1157.849	1.6	1278011	WORD	n/a	wordpools/wordpool_categorized_EN.txt	UNDERWEAR	Clothing	5	10	[0, 0, 0]	n/a	catFR1	6	R1377M
1159.449	0.9	1279609	WORD_OFF	n/a	n/a	UNDERWEAR	Clothing	5	10	[0, 0, 0]	n/a	catFR1	6	R1377M
1160.349	1.617	1280519	WORD	n/a	wordpools/wordpool_categorized_EN.txt	COAT	Clothing	6	10	[0, 0, 0]	n/a	catFR1	6	R1377M
1161.966	0.968	1282131	WORD_OFF	n/a	n/a	COAT	Clothing	6	10	[0, 0, 0]	n/a	catFR1	6	R1377M
1162.934	1.599	1283095	WORD	n/a	wordpools/wordpool_categorized_EN.txt	CAULIFLOWER	Vegetables	7	10	[0, 0, 0]	n/a	catFR1	6	R1377M
1164.533	0.983	1284693	WORD_OFF	n/a	n/a	CAULIFLOWER	Vegetables	7	10	[0, 0, 0]	n/a	catFR1	6	R1377M
1165.516	1.6	1285685	WORD	n/a	wordpools/wordpool_categorized_EN.txt	POTATO	Vegetables	8	10	[0, 0, 0]	n/a	catFR1	6	R1377M
1167.116	0.833	1287284	WORD_OFF	n/a	n/a	POTATO	Vegetables	8	10	[0, 0, 0]	n/a	catFR1	6	R1377M
1167.949	1.617	1288110	WORD	n/a	wordpools/wordpool_categorized_EN.txt	SKIRT	Clothing	9	10	[0, 0, 0]	n/a	catFR1	6	R1377M
1169.566	0.783	1289736	WORD_OFF	n/a	n/a	SKIRT	Clothing	9	10	[0, 0, 0]	n/a	catFR1	6	R1377M
1170.349	1.6	1290508	WORD	n/a	wordpools/wordpool_categorized_EN.txt	SHIRT	Clothing	10	10	[0, 0, 0]	n/a	catFR1	6	R1377M
1171.949	0.833	1292120	WORD_OFF	n/a	n/a	SHIRT	Clothing	10	10	[0, 0, 0]	n/a	catFR1	6	R1377M
1172.782	1.6	1292946	WORD	n/a	wordpools/wordpool_categorized_EN.txt	HEAD	Bodyparts	11	10	[0, 0, 0]	n/a	catFR1	6	R1377M
1174.382	0.799	1294545	WORD_OFF	n/a	n/a	HEAD	Bodyparts	11	10	[0, 0, 0]	n/a	catFR1	6	R1377M
1175.181	1.601	1295344	WORD	n/a	wordpools/wordpool_categorized_EN.txt	FINGERS	Bodyparts	12	10	[0, 0, 0]	n/a	catFR1	6	R1377M
1176.782	0.001	1296942	WORD_OFF	n/a	n/a	FINGERS	Bodyparts	12	10	[0, 0, 0]	n/a	catFR1	6	R1377M
1176.783	0.0	1296942	ENCODING_END	n/a	n/a	n/a	n/a	-999	10	[0, 0, 0]	n/a	catFR1	6	R1377M
1176.783	0.0	1296942	DISTRACT_START	n/a	n/a	n/a	n/a	-999	10	[0, 0, 0]	n/a	catFR1	6	R1377M
1176.782	0.001	1296945	PROB	0.001	n/a	n/a	n/a	-999	10	[2, 7, 7]	16	catFR1	6	R1377M
1176.783	7.566	1296946	START	n/a	n/a	n/a	n/a	-999	10	[-999, -999, -999]	n/a	catFR1	6	R1377M
1184.349	4.3	1304511	PROB	4.3	n/a	n/a	n/a	-999	10	[3, 5, 2]	10	catFR1	6	R1377M
1188.649	5.884	1308811	PROB	5.884	n/a	n/a	n/a	-999	10	[4, 2, 8]	14	catFR1	6	R1377M
1194.533	5.216	1314695	PROB	5.216	n/a	n/a	n/a	-999	10	[6, 8, 6]	20	catFR1	6	R1377M
1199.749	0.0	1319909	DISTRACT_END	n/a	n/a	n/a	n/a	-999	10	[0, 0, 0]	n/a	catFR1	6	R1377M
1199.749	1.149	1319911	STOP	n/a	n/a	n/a	n/a	-999	10	[-999, -999, -999]	n/a	catFR1	6	R1377M
1200.898	1.103	1321067	REC_START	n/a	n/a	n/a	n/a	-999	10	[0, 0, 0]	n/a	catFR1	6	R1377M
1202.001	0.492	1322163	REC_WORD	0.492	n/a	LEG	Bodyparts	1	10	[0, 0, 0]	n/a	catFR1	6	R1377M
1202.493	0.434	1322655	REC_WORD	0.434	n/a	KNEE	Bodyparts	2	10	[0, 0, 0]	n/a	catFR1	6	R1377M
1202.927	0.913	1323089	REC_WORD	0.913	n/a	SPINACH	Vegetables	3	10	[0, 0, 0]	n/a	catFR1	6	R1377M
1203.84	0.62	1324001	REC_WORD	0.62	n/a	PEAS	Vegetables	4	10	[0, 0, 0]	n/a	catFR1	6	R1377M
1204.46	1.758	1324621	REC_WORD	1.758	n/a	CAULIFLOWER	Vegetables	7	10	[0, 0, 0]	n/a	catFR1	6	R1377M
1206.218	0.864	1326379	REC_WORD	0.864	n/a	POTATO	Vegetables	8	10	[0, 0, 0]	n/a	catFR1	6	R1377M
1207.082	24.064	1327243	REC_WORD	24.064	n/a	SKIRT	Clothing	9	10	[0, 0, 0]	n/a	catFR1	6	R1377M
1231.146	5.752	1351309	REC_END	n/a	n/a	n/a	n/a	-999	10	[0, 0, 0]	n/a	catFR1	6	R1377M
1236.898	10.352	1357068	COUNTDOWN_START	n/a	n/a	n/a	n/a	-999	11	[0, 0, 0]	n/a	catFR1	6	R1377M
1247.25	0.0	1367415	COUNTDOWN_END	n/a	n/a	n/a	n/a	-999	11	[0, 0, 0]	n/a	catFR1	6	R1377M
1247.25	2.165	1367415	ENCODING_START	n/a	n/a	n/a	n/a	-999	11	[0, 0, 0]	n/a	catFR1	6	R1377M
1249.415	1.6	1369578	WORD	n/a	wordpools/wordpool_categorized_EN.txt	MARIGOLD	Flowers	1	11	[0, 0, 0]	n/a	catFR1	6	R1377M
1251.015	0.901	1371177	WORD_OFF	n/a	n/a	MARIGOLD	Flowers	1	11	[0, 0, 0]	n/a	catFR1	6	R1377M
1251.916	1.617	1372072	WORD	n/a	wordpools/wordpool_categorized_EN.txt	CARNATION	Flowers	2	11	[0, 0, 0]	n/a	catFR1	6	R1377M
1253.533	0.883	1373698	WORD_OFF	n/a	n/a	CARNATION	Flowers	2	11	[0, 0, 0]	n/a	catFR1	6	R1377M
1254.416	1.615	1374580	WORD	n/a	wordpools/wordpool_categorized_EN.txt	TOE	Bodyparts	3	11	[0, 0, 0]	n/a	catFR1	6	R1377M
1256.031	0.967	1376192	WORD_OFF	n/a	n/a	TOE	Bodyparts	3	11	[0, 0, 0]	n/a	catFR1	6	R1377M
1256.998	1.601	1377156	WORD	n/a	wordpools/wordpool_categorized_EN.txt	EAR	Bodyparts	4	11	[0, 0, 0]	n/a	catFR1	6	R1377M
1258.599	0.816	1378754	WORD_OFF	n/a	n/a	EAR	Bodyparts	4	11	[0, 0, 0]	n/a	catFR1	6	R1377M
1259.415	1.601	1379581	WORD	n/a	wordpools/wordpool_categorized_EN.txt	ROACH	Insects	5	11	[0, 0, 0]	n/a	catFR1	6	R1377M
1261.016	0.95	1381179	WORD_OFF	n/a	n/a	ROACH	Insects	5	11	[0, 0, 0]	n/a	catFR1	6	R1377M
1261.966	1.616	1382130	WORD	n/a	wordpools/wordpool_categorized_EN.txt	SPIDER	Insects	6	11	[0, 0, 0]	n/a	catFR1	6	R1377M
1263.582	0.9	1383742	WORD_OFF	n/a	n/a	SPIDER	Insects	6	11	[0, 0, 0]	n/a	catFR1	6	R1377M
1264.482	1.617	1384637	WORD	n/a	wordpools/wordpool_categorized_EN.txt	PETUNIA	Flowers	7	11	[0, 0, 0]	n/a	catFR1	6	R1377M
1266.099	0.917	1386263	WORD_OFF	n/a	n/a	PETUNIA	Flowers	7	11	[0, 0, 0]	n/a	catFR1	6	R1377M
1267.016	1.616	1387172	WORD	n/a	wordpools/wordpool_categorized_EN.txt	DAFFODIL	Flowers	8	11	[0, 0, 0]	n/a	catFR1	6	R1377M
1268.632	0.884	1388798	WORD_OFF	n/a	n/a	DAFFODIL	Flowers	8	11	[0, 0, 0]	n/a	catFR1	6	R1377M
1269.516	1.616	1389680	WORD	n/a	wordpools/wordpool_categorized_EN.txt	BUTTERFLY	Insects	9	11	[0, 0, 0]	n/a	catFR1	6	R1377M
1271.132	0.967	1391292	WORD_OFF	n/a	n/a	BUTTERFLY	Insects	9	11	[0, 0, 0]	n/a	catFR1	6	R1377M
1272.099	1.6	1392256	WORD	n/a	wordpools/wordpool_categorized_EN.txt	BEE	Insects	10	11	[0, 0, 0]	n/a	catFR1	6	R1377M
1273.699	0.783	1393855	WORD_OFF	n/a	n/a	BEE	Insects	10	11	[0, 0, 0]	n/a	catFR1	6	R1377M
1274.482	1.6	1394640	WORD	n/a	wordpools/wordpool_categorized_EN.txt	EYE	Bodyparts	11	11	[0, 0, 0]	n/a	catFR1	6	R1377M
1276.082	0.933	1396238	WORD_OFF	n/a	n/a	EYE	Bodyparts	11	11	[0, 0, 0]	n/a	catFR1	6	R1377M
1277.015	1.601	1397175	WORD	n/a	wordpools/wordpool_categorized_EN.txt	HAND	Bodyparts	12	11	[0, 0, 0]	n/a	catFR1	6	R1377M
1278.616	0.002	1398773	WORD_OFF	n/a	n/a	HAND	Bodyparts	12	11	[0, 0, 0]	n/a	catFR1	6	R1377M
1278.618	0.0	1398773	ENCODING_END	n/a	n/a	n/a	n/a	-999	11	[0, 0, 0]	n/a	catFR1	6	R1377M
1278.618	0.0	1398773	DISTRACT_START	n/a	n/a	n/a	n/a	-999	11	[0, 0, 0]	n/a	catFR1	6	R1377M
1278.616	0.002	1398774	PROB	0.002	n/a	n/a	n/a	-999	11	[1, 6, 5]	12	catFR1	6	R1377M
1278.618	7.364	1398776	START	n/a	n/a	n/a	n/a	-999	11	[-999, -999, -999]	n/a	catFR1	6	R1377M
1285.982	3.267	1406140	PROB	3.267	n/a	n/a	n/a	-999	11	[4, 7, 3]	14	catFR1	6	R1377M
1289.249	2.85	1409406	PROB	2.85	n/a	n/a	n/a	-999	11	[1, 3, 3]	7	catFR1	6	R1377M
1292.099	3.95	1412256	PROB	3.95	n/a	n/a	n/a	-999	11	[3, 8, 2]	13	catFR1	6	R1377M
1296.049	3.866	1416206	PROB	3.866	n/a	n/a	n/a	-999	11	[6, 6, 2]	15	catFR1	6	R1377M
1299.915	0.0	1420072	STOP	n/a	n/a	n/a	n/a	-999	11	[-999, -999, -999]	n/a	catFR1	6	R1377M
1299.915	1.05	1420074	DISTRACT_END	n/a	n/a	n/a	n/a	-999	11	[0, 0, 0]	n/a	catFR1	6	R1377M
1300.965	2.333	1421121	REC_START	n/a	n/a	n/a	n/a	-999	11	[0, 0, 0]	n/a	catFR1	6	R1377M
1303.298	0.677	1423455	REC_WORD	0.677	n/a	MARIGOLD	Flowers	1	11	[0, 0, 0]	n/a	catFR1	6	R1377M
1303.975	1.241	1424132	REC_WORD	1.241	n/a	CARNATION	Flowers	2	11	[0, 0, 0]	n/a	catFR1	6	R1377M
1305.216	2.051	1425373	REC_WORD	2.051	n/a	DAFFODIL	Flowers	8	11	[0, 0, 0]	n/a	catFR1	6	R1377M
1307.267	2.342	1427424	REC_WORD	2.342	n/a	BUTTERFLY	Insects	9	11	[0, 0, 0]	n/a	catFR1	6	R1377M
1309.609	0.789	1429766	REC_WORD	0.789	n/a	EYE	Bodyparts	11	11	[0, 0, 0]	n/a	catFR1	6	R1377M
1310.398	3.956	1430554	REC_WORD	3.956	n/a	HAND	Bodyparts	12	11	[0, 0, 0]	n/a	catFR1	6	R1377M
1314.354	15.745	1434510	REC_WORD	15.745	n/a	ELBOW	Bodyparts	-999	11	[0, 0, 0]	n/a	catFR1	6	R1377M
1330.099	1.091	1450255	REC_WORD	1.091	n/a	KNEE	Bodyparts	-999	11	[0, 0, 0]	n/a	catFR1	6	R1377M
1331.19	28.792	1451349	REC_END	n/a	n/a	n/a	n/a	-999	11	[0, 0, 0]	n/a	catFR1	6	R1377M
1359.982	10.35	1480145	COUNTDOWN_START	n/a	n/a	n/a	n/a	-999	12	[0, 0, 0]	n/a	catFR1	6	R1377M
1370.332	0.001	1490492	COUNTDOWN_END	n/a	n/a	n/a	n/a	-999	12	[0, 0, 0]	n/a	catFR1	6	R1377M
1370.333	1.932	1490492	ENCODING_START	n/a	n/a	n/a	n/a	-999	12	[0, 0, 0]	n/a	catFR1	6	R1377M
1372.265	1.617	1492421	WORD	n/a	wordpools/wordpool_categorized_EN.txt	LILY	Flowers	1	12	[0, 0, 0]	n/a	catFR1	6	R1377M
1373.882	0.916	1494033	WORD_OFF	n/a	n/a	LILY	Flowers	1	12	[0, 0, 0]	n/a	catFR1	6	R1377M
1374.798	1.617	1494956	WORD	n/a	wordpools/wordpool_categorized_EN.txt	ROSE	Flowers	2	12	[0, 0, 0]	n/a	catFR1	6	R1377M
1376.415	0.833	1496568	WORD_OFF	n/a	n/a	ROSE	Flowers	2	12	[0, 0, 0]	n/a	catFR1	6	R1377M
1377.248	1.6	1497408	WORD	n/a	wordpools/wordpool_categorized_EN.txt	ELM	Trees	3	12	[0, 0, 0]	n/a	catFR1	6	R1377M
1378.848	0.767	1499007	WORD_OFF	n/a	n/a	ELM	Trees	3	12	[0, 0, 0]	n/a	catFR1	6	R1377M
1379.615	1.6	1499764	WORD	n/a	wordpools/wordpool_categorized_EN.txt	BIRCH	Trees	4	12	[0, 0, 0]	n/a	catFR1	6	R1377M
1381.215	0.966	1501376	WORD_OFF	n/a	n/a	BIRCH	Trees	4	12	[0, 0, 0]	n/a	catFR1	6	R1377M
1382.181	1.6	1502341	WORD	n/a	wordpools/wordpool_categorized_EN.txt	MOTH	Insects	5	12	[0, 0, 0]	n/a	catFR1	6	R1377M
1383.781	0.984	1503939	WORD_OFF	n/a	n/a	MOTH	Insects	5	12	[0, 0, 0]	n/a	catFR1	6	R1377M
1384.765	1.601	1504917	WORD	n/a	wordpools/wordpool_categorized_EN.txt	GNAT	Insects	6	12	[0, 0, 0]	n/a	catFR1	6	R1377M
1386.366	0.95	1506515	WORD_OFF	n/a	n/a	GNAT	Insects	6	12	[0, 0, 0]	n/a	catFR1	6	R1377M
1387.316	1.6	1507466	WORD	n/a	wordpools/wordpool_categorized_EN.txt	TULIP	Flowers	7	12	[0, 0, 0]	n/a	catFR1	6	R1377M
1388.916	0.783	1509064	WORD_OFF	n/a	n/a	TULIP	Flowers	7	12	[0, 0, 0]	n/a	catFR1	6	R1377M
1389.699	1.601	1509850	WORD	n/a	wordpools/wordpool_categorized_EN.txt	DAISY	Flowers	8	12	[0, 0, 0]	n/a	catFR1	6	R1377M
1391.3	0.866	1511448	WORD_OFF	n/a	n/a	DAISY	Flowers	8	12	[0, 0, 0]	n/a	catFR1	6	R1377M
1392.166	1.6	1512316	WORD	n/a	wordpools/wordpool_categorized_EN.txt	ANT	Insects	9	12	[0, 0, 0]	n/a	catFR1	6	R1377M
1393.766	0.965	1513914	WORD_OFF	n/a	n/a	ANT	Insects	9	12	[0, 0, 0]	n/a	catFR1	6	R1377M
1394.731	1.601	1514892	WORD	n/a	wordpools/wordpool_categorized_EN.txt	MOSQUITO	Insects	10	12	[0, 0, 0]	n/a	catFR1	6	R1377M
1396.332	0.95	1516491	WORD_OFF	n/a	n/a	MOSQUITO	Insects	10	12	[0, 0, 0]	n/a	catFR1	6	R1377M
1397.282	1.6	1517441	WORD	n/a	wordpools/wordpool_categorized_EN.txt	WALNUT	Trees	11	12	[0, 0, 0]	n/a	catFR1	6	R1377M
1398.882	1.0	1519039	WORD_OFF	n/a	n/a	WALNUT	Trees	11	12	[0, 0, 0]	n/a	catFR1	6	R1377M
1399.882	1.617	1520031	WORD	n/a	wordpools/wordpool_categorized_EN.txt	PINE	Trees	12	12	[0, 0, 0]	n/a	catFR1	6	R1377M
1401.499	0.002	1521651	PROB	0.002	n/a	n/a	n/a	-999	12	[2, 8, 2]	12	catFR1	6	R1377M
1401.501	0.0	1521653	START	n/a	n/a	n/a	n/a	-999	12	[-999, -999, -999]	n/a	catFR1	6	R1377M
1401.499	0.002	1521657	WORD_OFF	n/a	n/a	PINE	Trees	12	12	[0, 0, 0]	n/a	catFR1	6	R1377M
1401.501	0.0	1521657	ENCODING_END	n/a	n/a	n/a	n/a	-999	12	[0, 0, 0]	n/a	catFR1	6	R1377M
1401.501	4.949	1521657	DISTRACT_START	n/a	n/a	n/a	n/a	-999	12	[0, 0, 0]	n/a	catFR1	6	R1377M
1406.45	3.249	1526602	PROB	3.249	n/a	n/a	n/a	-999	12	[6, 7, 7]	20	catFR1	6	R1377M
1409.699	3.317	1529851	PROB	3.317	n/a	n/a	n/a	-999	12	[5, 3, 2]	10	catFR1	6	R1377M
1413.016	4.1	1533168	PROB	4.1	n/a	n/a	n/a	-999	12	[7, 6, 2]	15	catFR1	6	R1377M
1417.116	2.867	1537267	PROB	2.867	n/a	n/a	n/a	-999	12	[2, 7, 3]	12	catFR1	6	R1377M
1419.983	3.732	1540134	PROB	3.732	n/a	n/a	n/a	-999	12	[3, 4, 7]	14	catFR1	6	R1377M
1423.715	0.0	1543866	STOP	n/a	n/a	n/a	n/a	-999	12	[-999, -999, -999]	n/a	catFR1	6	R1377M
1423.715	1.084	1543867	DISTRACT_END	n/a	n/a	n/a	n/a	-999	12	[0, 0, 0]	n/a	catFR1	6	R1377M
1424.799	1.884	1544955	REC_START	n/a	n/a	n/a	n/a	-999	12	[0, 0, 0]	n/a	catFR1	6	R1377M
1426.683	0.475	1546834	REC_WORD	0.475	n/a	LILY	Flowers	1	12	[0, 0, 0]	n/a	catFR1	6	R1377M
1427.158	0.984	1547309	REC_WORD	0.984	n/a	ROSE	Flowers	2	12	[0, 0, 0]	n/a	catFR1	6	R1377M
1428.142	0.762	1548293	REC_WORD	0.762	n/a	BIRCH	Trees	4	12	[0, 0, 0]	n/a	catFR1	6	R1377M
1428.904	0.96	1549055	REC_WORD	0.96	n/a	MOTH	Insects	5	12	[0, 0, 0]	n/a	catFR1	6	R1377M
1429.864	3.14	1550015	REC_WORD	3.14	n/a	GNAT	Insects	6	12	[0, 0, 0]	n/a	catFR1	6	R1377M
1433.004	17.929	1553155	REC_WORD	17.929	n/a	ANT	Insects	9	12	[0, 0, 0]	n/a	catFR1	6	R1377M
1450.933	4.133	1571083	REC_WORD	4.133	n/a	MARIGOLD	Flowers	-999	12	[0, 0, 0]	n/a	catFR1	6	R1377M
1455.066	0.0	1575211	REC_END	n/a	n/a	n/a	n/a	-999	12	[0, 0, 0]	n/a	catFR1	6	R1377M
