onset	duration	sample	trial_type	response_time	stim_file	item_name	category	serialpos	list	test	answer	experiment	session	subject
0.0	0.0	6967	INSTRUCT_START	n/a	n/a	n/a	n/a	-999	-999	[0, 0, 0]	n/a	catFR1	0	R1274T
0.0	11.064	6967	INSTRUCT_END	n/a	n/a	n/a	n/a	-999	-999	[0, 0, 0]	n/a	catFR1	0	R1274T
11.064	0.0	18030	SESS_START	n/a	n/a	n/a	n/a	-999	-999	[0, 0, 0]	n/a	catFR1	0	R1274T
11.064	17.5	18030	MIC_TEST	n/a	n/a	n/a	n/a	-999	-999	[0, 0, 0]	n/a	catFR1	0	R1274T
28.564	20.379	35529	PRACTICE_TRIAL	n/a	n/a	n/a	n/a	-999	-1	[0, 0, 0]	n/a	catFR1	0	R1274T
48.943	10.428	55907	COUNTDOWN_START	n/a	n/a	n/a	n/a	-999	-1	[0, 0, 0]	n/a	catFR1	0	R1274T
59.371	0.008	66334	COUNTDOWN_END	n/a	n/a	n/a	n/a	-999	-1	[0, 0, 0]	n/a	catFR1	0	R1274T
59.379	1.615	66342	PRACTICE_ORIENT	n/a	n/a	n/a	n/a	-999	-1	[0, 0, 0]	n/a	catFR1	0	R1274T
60.994	2.118	67957	PRACTICE_ORIENT_OFF	n/a	n/a	n/a	n/a	-999	-1	[0, 0, 0]	n/a	catFR1	0	R1274T
63.112	1.617	70075	PRACTICE_WORD	n/a	n/a	BEAM	n/a	-1	-1	[0, 0, 0]	n/a	catFR1	0	R1274T
64.729	0.916	71692	PRACTICE_WORD_OFF	n/a	n/a	BEAM	n/a	-999	-1	[0, 0, 0]	n/a	catFR1	0	R1274T
65.645	1.618	72608	PRACTICE_WORD	n/a	n/a	CHEST	n/a	-1	-1	[0, 0, 0]	n/a	catFR1	0	R1274T
67.263	0.967	74226	PRACTICE_WORD_OFF	n/a	n/a	CHEST	n/a	-999	-1	[0, 0, 0]	n/a	catFR1	0	R1274T
68.23	1.616	75193	PRACTICE_WORD	n/a	n/a	WAGON	n/a	-1	-1	[0, 0, 0]	n/a	catFR1	0	R1274T
69.846	0.783	76809	PRACTICE_WORD_OFF	n/a	n/a	WAGON	n/a	-999	-1	[0, 0, 0]	n/a	catFR1	0	R1274T
70.629	1.619	77592	PRACTICE_WORD	n/a	n/a	WATCH	n/a	-1	-1	[0, 0, 0]	n/a	catFR1	0	R1274T
72.248	1.0	79211	PRACTICE_WORD_OFF	n/a	n/a	WATCH	n/a	-999	-1	[0, 0, 0]	n/a	catFR1	0	R1274T
73.248	1.616	80211	PRACTICE_WORD	n/a	n/a	COTTON	n/a	-1	-1	[0, 0, 0]	n/a	catFR1	0	R1274T
74.864	0.833	81827	PRACTICE_WORD_OFF	n/a	n/a	COTTON	n/a	-999	-1	[0, 0, 0]	n/a	catFR1	0	R1274T
75.697	1.618	82659	PRACTICE_WORD	n/a	n/a	FLOOD	n/a	-1	-1	[0, 0, 0]	n/a	catFR1	0	R1274T
77.315	0.783	84277	PRACTICE_WORD_OFF	n/a	n/a	FLOOD	n/a	-999	-1	[0, 0, 0]	n/a	catFR1	0	R1274T
78.098	1.617	85060	PRACTICE_WORD	n/a	n/a	RHINO	n/a	-1	-1	[0, 0, 0]	n/a	catFR1	0	R1274T
79.715	0.916	86677	PRACTICE_WORD_OFF	n/a	n/a	RHINO	n/a	-999	-1	[0, 0, 0]	n/a	catFR1	0	R1274T
80.631	1.618	87593	PRACTICE_WORD	n/a	n/a	TONGUE	n/a	-1	-1	[0, 0, 0]	n/a	catFR1	0	R1274T
82.249	0.799	89211	PRACTICE_WORD_OFF	n/a	n/a	TONGUE	n/a	-999	-1	[0, 0, 0]	n/a	catFR1	0	R1274T
83.048	1.617	90010	PRACTICE_WORD	n/a	n/a	CAMEL	n/a	-1	-1	[0, 0, 0]	n/a	catFR1	0	R1274T
84.665	0.934	91627	PRACTICE_WORD_OFF	n/a	n/a	CAMEL	n/a	-999	-1	[0, 0, 0]	n/a	catFR1	0	R1274T
85.599	1.618	92561	PRACTICE_WORD	n/a	n/a	RING	n/a	-1	-1	[0, 0, 0]	n/a	catFR1	0	R1274T
87.217	0.932	94179	PRACTICE_WORD_OFF	n/a	n/a	RING	n/a	-999	-1	[0, 0, 0]	n/a	catFR1	0	R1274T
88.149	1.617	95111	PRACTICE_WORD	n/a	n/a	IRON	n/a	-1	-1	[0, 0, 0]	n/a	catFR1	0	R1274T
89.766	0.767	96728	PRACTICE_WORD_OFF	n/a	n/a	IRON	n/a	-999	-1	[0, 0, 0]	n/a	catFR1	0	R1274T
90.533	1.617	97495	PRACTICE_WORD	n/a	n/a	ATTIC	n/a	-1	-1	[0, 0, 0]	n/a	catFR1	0	R1274T
92.15	0.0	99111	ENCODING_END	n/a	n/a	n/a	n/a	-999	-1	[0, 0, 0]	n/a	catFR1	0	R1274T
92.15	0.001	99111	PRACTICE_WORD_OFF	n/a	n/a	ATTIC	n/a	-999	-1	[0, 0, 0]	n/a	catFR1	0	R1274T
92.151	0.0	99112	DISTRACT_START	n/a	n/a	n/a	n/a	-999	-1	[0, 0, 0]	n/a	catFR1	0	R1274T
92.151	0.016	99112	START	n/a	n/a	n/a	n/a	-999	-1	[-999, -999, -999]	n/a	catFR1	0	R1274T
92.167	6.169	99128	PROB	6.146	n/a	n/a	n/a	-999	-1	[7, 2, 5]	6.0	catFR1	0	R1274T
98.336	9.484	105297	PROB	9.448	n/a	n/a	n/a	-999	-1	[4, 5, 8]	17.0	catFR1	0	R1274T
107.82	7.197	114781	PROB	7.197	n/a	n/a	n/a	-999	-1	[1, 6, 4]	10.0	catFR1	0	R1274T
115.017	0.021	121977	STOP	n/a	n/a	n/a	n/a	-999	-1	[-999, -999, -999]	n/a	catFR1	0	R1274T
115.038	0.566	121998	DISTRACT_END	n/a	n/a	n/a	n/a	-999	-1	[0, 0, 0]	n/a	catFR1	0	R1274T
115.604	0.521	122564	RETRIEVAL_ORIENT	n/a	n/a	n/a	n/a	-999	-1	[0, 0, 0]	n/a	catFR1	0	R1274T
116.125	30.01	123085	PRACTICE_REC_START	n/a	n/a	n/a	n/a	-999	-1	[0, 0, 0]	n/a	catFR1	0	R1274T
146.135	37.015	153093	PRACTICE_REC_END	n/a	n/a	n/a	n/a	-999	-1	[0, 0, 0]	n/a	catFR1	0	R1274T
183.15	0.5	190106	TRIAL	n/a	n/a	n/a	n/a	-999	1	[0, 0, 0]	n/a	catFR1	0	R1274T
183.65	10.428	190606	COUNTDOWN_START	n/a	n/a	n/a	n/a	-999	1	[0, 0, 0]	n/a	catFR1	0	R1274T
194.078	0.007	201033	COUNTDOWN_END	n/a	n/a	n/a	n/a	-999	1	[0, 0, 0]	n/a	catFR1	0	R1274T
194.085	1.617	201040	ORIENT	n/a	n/a	n/a	n/a	-999	1	[0, 0, 0]	n/a	catFR1	0	R1274T
195.702	1.884	202657	ORIENT_OFF	n/a	n/a	n/a	n/a	-999	1	[0, 0, 0]	n/a	catFR1	0	R1274T
197.586	1.617	204541	WORD	n/a	wordpools/wordpool_categorized_EN.txt	GIRAFFE	Zoo	1	1	[0, 0, 0]	n/a	catFR1	0	R1274T
199.203	0.8	206158	WORD_OFF	n/a	n/a	GIRAFFE	n/a	1	1	[0, 0, 0]	n/a	catFR1	0	R1274T
200.003	1.617	206958	WORD	n/a	wordpools/wordpool_categorized_EN.txt	TIGER	Zoo	2	1	[0, 0, 0]	n/a	catFR1	0	R1274T
201.62	0.784	208575	WORD_OFF	n/a	n/a	TIGER	n/a	2	1	[0, 0, 0]	n/a	catFR1	0	R1274T
202.404	1.616	209359	WORD	n/a	wordpools/wordpool_categorized_EN.txt	CELERY	Vegetables	3	1	[0, 0, 0]	n/a	catFR1	0	R1274T
204.02	0.884	210975	WORD_OFF	n/a	n/a	CELERY	n/a	3	1	[0, 0, 0]	n/a	catFR1	0	R1274T
204.904	1.601	211859	WORD	n/a	wordpools/wordpool_categorized_EN.txt	CABBAGE	Vegetables	4	1	[0, 0, 0]	n/a	catFR1	0	R1274T
206.505	0.984	213460	WORD_OFF	n/a	n/a	CABBAGE	n/a	4	1	[0, 0, 0]	n/a	catFR1	0	R1274T
207.489	1.616	214443	WORD	n/a	wordpools/wordpool_categorized_EN.txt	WASHER	Appliances	5	1	[0, 0, 0]	n/a	catFR1	0	R1274T
209.105	1.0	216059	WORD_OFF	n/a	n/a	WASHER	n/a	5	1	[0, 0, 0]	n/a	catFR1	0	R1274T
210.105	1.617	217059	WORD	n/a	wordpools/wordpool_categorized_EN.txt	BLENDER	Appliances	6	1	[0, 0, 0]	n/a	catFR1	0	R1274T
211.722	0.95	218676	WORD_OFF	n/a	n/a	BLENDER	n/a	6	1	[0, 0, 0]	n/a	catFR1	0	R1274T
212.672	1.618	219626	WORD	n/a	wordpools/wordpool_categorized_EN.txt	BROCCOLI	Vegetables	7	1	[0, 0, 0]	n/a	catFR1	0	R1274T
214.29	0.916	221244	WORD_OFF	n/a	n/a	BROCCOLI	n/a	7	1	[0, 0, 0]	n/a	catFR1	0	R1274T
215.206	1.617	222160	WORD	n/a	wordpools/wordpool_categorized_EN.txt	POTATO	Vegetables	8	1	[0, 0, 0]	n/a	catFR1	0	R1274T
216.823	0.85	223777	WORD_OFF	n/a	n/a	POTATO	n/a	8	1	[0, 0, 0]	n/a	catFR1	0	R1274T
217.673	1.618	224627	WORD	n/a	wordpools/wordpool_categorized_EN.txt	LION	Zoo	9	1	[0, 0, 0]	n/a	catFR1	0	R1274T
219.291	0.967	226245	WORD_OFF	n/a	n/a	LION	n/a	9	1	[0, 0, 0]	n/a	catFR1	0	R1274T
220.258	1.616	227212	WORD	n/a	wordpools/wordpool_categorized_EN.txt	ELEPHANT	Zoo	10	1	[0, 0, 0]	n/a	catFR1	0	R1274T
221.874	0.983	228828	WORD_OFF	n/a	n/a	ELEPHANT	n/a	10	1	[0, 0, 0]	n/a	catFR1	0	R1274T
222.857	1.601	229811	WORD	n/a	wordpools/wordpool_categorized_EN.txt	REFRIGERATOR	Appliances	11	1	[0, 0, 0]	n/a	catFR1	0	R1274T
224.458	0.767	231411	WORD_OFF	n/a	n/a	REFRIGERATOR	n/a	11	1	[0, 0, 0]	n/a	catFR1	0	R1274T
225.225	1.616	232178	WORD	n/a	wordpools/wordpool_categorized_EN.txt	IRON	Appliances	12	1	[0, 0, 0]	n/a	catFR1	0	R1274T
226.841	0.001	233794	WORD_OFF	n/a	n/a	IRON	n/a	12	1	[0, 0, 0]	n/a	catFR1	0	R1274T
226.842	0.139	233795	ENCODING_END	n/a	n/a	n/a	n/a	-999	1	[0, 0, 0]	n/a	catFR1	0	R1274T
226.981	0.0	233934	DISTRACT_START	n/a	n/a	n/a	n/a	-999	1	[0, 0, 0]	n/a	catFR1	0	R1274T
226.981	0.01	233934	START	n/a	n/a	n/a	n/a	-999	1	[-999, -999, -999]	n/a	catFR1	0	R1274T
226.991	5.901	233944	PROB	5.866	n/a	n/a	n/a	-999	1	[1, 2, 2]	5.0	catFR1	0	R1274T
232.892	4.718	239845	PROB	4.693	n/a	n/a	n/a	-999	1	[1, 4, 4]	9.0	catFR1	0	R1274T
237.61	12.759	244563	PROB	12.759	n/a	n/a	n/a	-999	1	[4, 2, 7]	6.0	catFR1	0	R1274T
250.369	0.011	257321	STOP	n/a	n/a	n/a	n/a	-999	1	[-999, -999, -999]	n/a	catFR1	0	R1274T
250.38	0.666	257332	DISTRACT_END	n/a	n/a	n/a	n/a	-999	1	[0, 0, 0]	n/a	catFR1	0	R1274T
251.046	0.517	257998	RETRIEVAL_ORIENT	n/a	n/a	n/a	n/a	-999	1	[0, 0, 0]	n/a	catFR1	0	R1274T
251.563	2.531	258515	REC_START	n/a	n/a	n/a	n/a	-999	1	[0, 0, 0]	n/a	catFR1	0	R1274T
254.094	0.708	261046	REC_WORD	2.531	n/a	BROCCOLI	Vegetables	7	1	[0, 0, 0]	n/a	catFR1	0	R1274T
254.802	26.772	261754	REC_WORD	3.239	n/a	POTATO	Vegetables	8	1	[0, 0, 0]	n/a	catFR1	0	R1274T
281.574	75.925	288524	REC_END	n/a	n/a	n/a	n/a	-999	1	[0, 0, 0]	n/a	catFR1	0	R1274T
357.499	0.5	364444	TRIAL	n/a	n/a	n/a	n/a	-999	2	[0, 0, 0]	n/a	catFR1	0	R1274T
357.999	10.428	364944	COUNTDOWN_START	n/a	n/a	n/a	n/a	-999	2	[0, 0, 0]	n/a	catFR1	0	R1274T
368.427	0.008	375372	COUNTDOWN_END	n/a	n/a	n/a	n/a	-999	2	[0, 0, 0]	n/a	catFR1	0	R1274T
368.435	1.615	375380	ORIENT	n/a	n/a	n/a	n/a	-999	2	[0, 0, 0]	n/a	catFR1	0	R1274T
370.05	2.185	376995	ORIENT_OFF	n/a	n/a	n/a	n/a	-999	2	[0, 0, 0]	n/a	catFR1	0	R1274T
372.235	1.616	379179	WORD	n/a	wordpools/wordpool_categorized_EN.txt	DOVE	Birds	1	2	[0, 0, 0]	n/a	catFR1	0	R1274T
373.851	0.934	380795	WORD_OFF	n/a	n/a	DOVE	n/a	1	2	[0, 0, 0]	n/a	catFR1	0	R1274T
374.785	1.618	381729	WORD	n/a	wordpools/wordpool_categorized_EN.txt	BLUEBIRD	Birds	2	2	[0, 0, 0]	n/a	catFR1	0	R1274T
376.403	0.867	383347	WORD_OFF	n/a	n/a	BLUEBIRD	n/a	2	2	[0, 0, 0]	n/a	catFR1	0	R1274T
377.27	1.616	384214	WORD	n/a	wordpools/wordpool_categorized_EN.txt	STAIRS	Building	3	2	[0, 0, 0]	n/a	catFR1	0	R1274T
378.886	1.0	385830	WORD_OFF	n/a	n/a	STAIRS	n/a	3	2	[0, 0, 0]	n/a	catFR1	0	R1274T
379.886	1.618	386830	WORD	n/a	wordpools/wordpool_categorized_EN.txt	DOOR	Building	4	2	[0, 0, 0]	n/a	catFR1	0	R1274T
381.504	0.85	388448	WORD_OFF	n/a	n/a	DOOR	n/a	4	2	[0, 0, 0]	n/a	catFR1	0	R1274T
382.354	1.616	389298	WORD	n/a	wordpools/wordpool_categorized_EN.txt	SHEEP	FarmAnimals	5	2	[0, 0, 0]	n/a	catFR1	0	R1274T
383.97	0.883	390914	WORD_OFF	n/a	n/a	SHEEP	n/a	5	2	[0, 0, 0]	n/a	catFR1	0	R1274T
384.853	1.618	391797	WORD	n/a	wordpools/wordpool_categorized_EN.txt	COW	FarmAnimals	6	2	[0, 0, 0]	n/a	catFR1	0	R1274T
386.471	0.884	393415	WORD_OFF	n/a	n/a	COW	n/a	6	2	[0, 0, 0]	n/a	catFR1	0	R1274T
387.355	1.616	394299	WORD	n/a	wordpools/wordpool_categorized_EN.txt	CARDINAL	Birds	7	2	[0, 0, 0]	n/a	catFR1	0	R1274T
388.971	0.9	395914	WORD_OFF	n/a	n/a	CARDINAL	n/a	7	2	[0, 0, 0]	n/a	catFR1	0	R1274T
389.871	1.618	396814	WORD	n/a	wordpools/wordpool_categorized_EN.txt	HAWK	Birds	8	2	[0, 0, 0]	n/a	catFR1	0	R1274T
391.489	0.8	398432	WORD_OFF	n/a	n/a	HAWK	n/a	8	2	[0, 0, 0]	n/a	catFR1	0	R1274T
392.289	1.616	399232	WORD	n/a	wordpools/wordpool_categorized_EN.txt	WINDOW	Building	9	2	[0, 0, 0]	n/a	catFR1	0	R1274T
393.905	0.9	400848	WORD_OFF	n/a	n/a	WINDOW	n/a	9	2	[0, 0, 0]	n/a	catFR1	0	R1274T
394.805	1.618	401748	WORD	n/a	wordpools/wordpool_categorized_EN.txt	BATHROOM	Building	10	2	[0, 0, 0]	n/a	catFR1	0	R1274T
396.423	0.984	403366	WORD_OFF	n/a	n/a	BATHROOM	n/a	10	2	[0, 0, 0]	n/a	catFR1	0	R1274T
397.407	1.616	404350	WORD	n/a	wordpools/wordpool_categorized_EN.txt	HEN	FarmAnimals	11	2	[0, 0, 0]	n/a	catFR1	0	R1274T
399.023	1.0	405966	WORD_OFF	n/a	n/a	HEN	n/a	11	2	[0, 0, 0]	n/a	catFR1	0	R1274T
400.023	1.617	406966	WORD	n/a	wordpools/wordpool_categorized_EN.txt	BULL	FarmAnimals	12	2	[0, 0, 0]	n/a	catFR1	0	R1274T
401.64	0.0	408583	ENCODING_END	n/a	n/a	n/a	n/a	-999	2	[0, 0, 0]	n/a	catFR1	0	R1274T
401.64	0.104	408583	WORD_OFF	n/a	n/a	BULL	n/a	12	2	[0, 0, 0]	n/a	catFR1	0	R1274T
401.744	0.001	408687	DISTRACT_START	n/a	n/a	n/a	n/a	-999	2	[0, 0, 0]	n/a	catFR1	0	R1274T
401.745	0.011	408688	START	n/a	n/a	n/a	n/a	-999	2	[-999, -999, -999]	n/a	catFR1	0	R1274T
401.756	8.603	408699	PROB	8.573	n/a	n/a	n/a	-999	2	[5, 9, 4]	18.0	catFR1	0	R1274T
410.359	5.633	417301	PROB	5.61	n/a	n/a	n/a	-999	2	[8, 3, 3]	14.0	catFR1	0	R1274T
415.992	6.177	422934	PROB	6.177	n/a	n/a	n/a	-999	2	[1, 4, 5]	10.0	catFR1	0	R1274T
422.169	0.008	429110	STOP	n/a	n/a	n/a	n/a	-999	2	[-999, -999, -999]	n/a	catFR1	0	R1274T
422.177	0.7	429118	DISTRACT_END	n/a	n/a	n/a	n/a	-999	2	[0, 0, 0]	n/a	catFR1	0	R1274T
422.877	0.518	429818	RETRIEVAL_ORIENT	n/a	n/a	n/a	n/a	-999	2	[0, 0, 0]	n/a	catFR1	0	R1274T
423.395	2.079	430336	REC_START	n/a	n/a	n/a	n/a	-999	2	[0, 0, 0]	n/a	catFR1	0	R1274T
425.474	0.994	432415	REC_WORD	2.079	n/a	DOVE	Birds	1	2	[0, 0, 0]	n/a	catFR1	0	R1274T
426.468	26.939	433409	REC_WORD	3.073	n/a	BLUEBIRD	Birds	2	2	[0, 0, 0]	n/a	catFR1	0	R1274T
453.407	30.281	460346	REC_END	n/a	n/a	n/a	n/a	-999	2	[0, 0, 0]	n/a	catFR1	0	R1274T
483.688	0.5	490626	TRIAL	n/a	n/a	n/a	n/a	-999	3	[0, 0, 0]	n/a	catFR1	0	R1274T
484.188	10.428	491126	COUNTDOWN_START	n/a	n/a	n/a	n/a	-999	3	[0, 0, 0]	n/a	catFR1	0	R1274T
494.616	0.007	501553	COUNTDOWN_END	n/a	n/a	n/a	n/a	-999	3	[0, 0, 0]	n/a	catFR1	0	R1274T
494.623	1.618	501560	ORIENT	n/a	n/a	n/a	n/a	-999	3	[0, 0, 0]	n/a	catFR1	0	R1274T
496.241	2.234	503178	ORIENT_OFF	n/a	n/a	n/a	n/a	-999	3	[0, 0, 0]	n/a	catFR1	0	R1274T
498.475	1.616	505412	WORD	n/a	wordpools/wordpool_categorized_EN.txt	TURTLE	OceanAnimals	1	3	[0, 0, 0]	n/a	catFR1	0	R1274T
500.091	0.917	507028	WORD_OFF	n/a	n/a	TURTLE	n/a	1	3	[0, 0, 0]	n/a	catFR1	0	R1274T
501.008	1.617	507945	WORD	n/a	wordpools/wordpool_categorized_EN.txt	LOBSTER	OceanAnimals	2	3	[0, 0, 0]	n/a	catFR1	0	R1274T
502.625	0.9	509561	WORD_OFF	n/a	n/a	LOBSTER	n/a	2	3	[0, 0, 0]	n/a	catFR1	0	R1274T
503.525	1.617	510461	WORD	n/a	wordpools/wordpool_categorized_EN.txt	HEADPHONES	Electronics	3	3	[0, 0, 0]	n/a	catFR1	0	R1274T
505.142	0.867	512078	WORD_OFF	n/a	n/a	HEADPHONES	n/a	3	3	[0, 0, 0]	n/a	catFR1	0	R1274T
506.009	1.617	512945	WORD	n/a	wordpools/wordpool_categorized_EN.txt	SPEAKER	Electronics	4	3	[0, 0, 0]	n/a	catFR1	0	R1274T
507.626	1.0	514562	WORD_OFF	n/a	n/a	SPEAKER	n/a	4	3	[0, 0, 0]	n/a	catFR1	0	R1274T
508.626	1.618	515562	WORD	n/a	wordpools/wordpool_categorized_EN.txt	LEMONADE	Beverages	5	3	[0, 0, 0]	n/a	catFR1	0	R1274T
510.244	0.966	517180	WORD_OFF	n/a	n/a	LEMONADE	n/a	5	3	[0, 0, 0]	n/a	catFR1	0	R1274T
511.21	1.617	518146	WORD	n/a	wordpools/wordpool_categorized_EN.txt	JUICE	Beverages	6	3	[0, 0, 0]	n/a	catFR1	0	R1274T
512.827	0.866	519763	WORD_OFF	n/a	n/a	JUICE	n/a	6	3	[0, 0, 0]	n/a	catFR1	0	R1274T
513.693	1.601	520629	WORD	n/a	wordpools/wordpool_categorized_EN.txt	OCTOPUS	OceanAnimals	7	3	[0, 0, 0]	n/a	catFR1	0	R1274T
515.294	0.816	522230	WORD_OFF	n/a	n/a	OCTOPUS	n/a	7	3	[0, 0, 0]	n/a	catFR1	0	R1274T
516.11	1.617	523046	WORD	n/a	wordpools/wordpool_categorized_EN.txt	CRAB	OceanAnimals	8	3	[0, 0, 0]	n/a	catFR1	0	R1274T
517.727	0.817	524663	WORD_OFF	n/a	n/a	CRAB	n/a	8	3	[0, 0, 0]	n/a	catFR1	0	R1274T
518.544	1.617	525480	WORD	n/a	wordpools/wordpool_categorized_EN.txt	STEREO	Electronics	9	3	[0, 0, 0]	n/a	catFR1	0	R1274T
520.161	0.85	527096	WORD_OFF	n/a	n/a	STEREO	n/a	9	3	[0, 0, 0]	n/a	catFR1	0	R1274T
521.011	1.617	527946	WORD	n/a	wordpools/wordpool_categorized_EN.txt	COMPUTER	Electronics	10	3	[0, 0, 0]	n/a	catFR1	0	R1274T
522.628	0.967	529563	WORD_OFF	n/a	n/a	COMPUTER	n/a	10	3	[0, 0, 0]	n/a	catFR1	0	R1274T
523.595	1.617	530530	WORD	n/a	wordpools/wordpool_categorized_EN.txt	COFFEE	Beverages	11	3	[0, 0, 0]	n/a	catFR1	0	R1274T
525.212	0.934	532147	WORD_OFF	n/a	n/a	COFFEE	n/a	11	3	[0, 0, 0]	n/a	catFR1	0	R1274T
526.146	1.617	533081	WORD	n/a	wordpools/wordpool_categorized_EN.txt	BEER	Beverages	12	3	[0, 0, 0]	n/a	catFR1	0	R1274T
527.763	0.0	534698	WORD_OFF	n/a	n/a	BEER	n/a	12	3	[0, 0, 0]	n/a	catFR1	0	R1274T
527.763	0.102	534698	ENCODING_END	n/a	n/a	n/a	n/a	-999	3	[0, 0, 0]	n/a	catFR1	0	R1274T
527.865	0.001	534800	DISTRACT_START	n/a	n/a	n/a	n/a	-999	3	[0, 0, 0]	n/a	catFR1	0	R1274T
527.866	0.013	534801	START	n/a	n/a	n/a	n/a	-999	3	[-999, -999, -999]	n/a	catFR1	0	R1274T
527.879	7.818	534814	PROB	7.785	n/a	n/a	n/a	-999	3	[8, 7, 1]	16.0	catFR1	0	R1274T
535.697	7.619	542631	PROB	7.592	n/a	n/a	n/a	-999	3	[1, 8, 8]	17.0	catFR1	0	R1274T
543.316	6.388	550250	PROB	6.388	n/a	n/a	n/a	-999	3	[4, 3, 5]	12.0	catFR1	0	R1274T
549.704	0.013	556638	STOP	n/a	n/a	n/a	n/a	-999	3	[-999, -999, -999]	n/a	catFR1	0	R1274T
549.717	0.601	556651	DISTRACT_END	n/a	n/a	n/a	n/a	-999	3	[0, 0, 0]	n/a	catFR1	0	R1274T
550.318	0.516	557252	RETRIEVAL_ORIENT	n/a	n/a	n/a	n/a	-999	3	[0, 0, 0]	n/a	catFR1	0	R1274T
550.834	2.06	557768	REC_START	n/a	n/a	n/a	n/a	-999	3	[0, 0, 0]	n/a	catFR1	0	R1274T
552.894	0.878	559827	REC_WORD	2.06	n/a	LOBSTER	OceanAnimals	2	3	[0, 0, 0]	n/a	catFR1	0	R1274T
553.772	1.867	560705	REC_WORD	2.938	n/a	CRAB	OceanAnimals	8	3	[0, 0, 0]	n/a	catFR1	0	R1274T
555.639	0.899	562572	REC_WORD	4.805	n/a	LEMONADE	Beverages	5	3	[0, 0, 0]	n/a	catFR1	0	R1274T
556.538	22.27	563471	REC_WORD	5.704	n/a	JUICE	Beverages	6	3	[0, 0, 0]	n/a	catFR1	0	R1274T
578.808	2.036	585740	REC_WORD_VV	27.974	n/a	<>	n/a	-999	3	[0, 0, 0]	n/a	catFR1	0	R1274T
580.844	8.847	587776	REC_END	n/a	n/a	n/a	n/a	-999	3	[0, 0, 0]	n/a	catFR1	0	R1274T
589.691	0.5	596622	TRIAL	n/a	n/a	n/a	n/a	-999	4	[0, 0, 0]	n/a	catFR1	0	R1274T
590.191	10.428	597122	COUNTDOWN_START	n/a	n/a	n/a	n/a	-999	4	[0, 0, 0]	n/a	catFR1	0	R1274T
600.619	0.007	607550	COUNTDOWN_END	n/a	n/a	n/a	n/a	-999	4	[0, 0, 0]	n/a	catFR1	0	R1274T
600.626	1.618	607557	ORIENT	n/a	n/a	n/a	n/a	-999	4	[0, 0, 0]	n/a	catFR1	0	R1274T
602.244	2.0	609174	ORIENT_OFF	n/a	n/a	n/a	n/a	-999	4	[0, 0, 0]	n/a	catFR1	0	R1274T
604.244	1.616	611174	WORD	n/a	wordpools/wordpool_categorized_EN.txt	CALF	FarmAnimals	1	4	[0, 0, 0]	n/a	catFR1	0	R1274T
605.86	0.884	612790	WORD_OFF	n/a	n/a	CALF	n/a	1	4	[0, 0, 0]	n/a	catFR1	0	R1274T
606.744	1.618	613674	WORD	n/a	wordpools/wordpool_categorized_EN.txt	PIG	FarmAnimals	2	4	[0, 0, 0]	n/a	catFR1	0	R1274T
608.362	0.799	615292	WORD_OFF	n/a	n/a	PIG	n/a	2	4	[0, 0, 0]	n/a	catFR1	0	R1274T
609.161	1.617	616091	WORD	n/a	wordpools/wordpool_categorized_EN.txt	STOVE	Appliances	3	4	[0, 0, 0]	n/a	catFR1	0	R1274T
610.778	0.933	617708	WORD_OFF	n/a	n/a	STOVE	n/a	3	4	[0, 0, 0]	n/a	catFR1	0	R1274T
611.711	1.618	618641	WORD	n/a	wordpools/wordpool_categorized_EN.txt	MIXER	Appliances	4	4	[0, 0, 0]	n/a	catFR1	0	R1274T
613.329	0.866	620259	WORD_OFF	n/a	n/a	MIXER	n/a	4	4	[0, 0, 0]	n/a	catFR1	0	R1274T
614.195	1.617	621125	WORD	n/a	wordpools/wordpool_categorized_EN.txt	GRAPE	Fruit	5	4	[0, 0, 0]	n/a	catFR1	0	R1274T
615.812	0.834	622742	WORD_OFF	n/a	n/a	GRAPE	n/a	5	4	[0, 0, 0]	n/a	catFR1	0	R1274T
616.646	1.617	623576	WORD	n/a	wordpools/wordpool_categorized_EN.txt	CHERRY	Fruit	6	4	[0, 0, 0]	n/a	catFR1	0	R1274T
618.263	0.866	625192	WORD_OFF	n/a	n/a	CHERRY	n/a	6	4	[0, 0, 0]	n/a	catFR1	0	R1274T
619.129	1.617	626058	WORD	n/a	wordpools/wordpool_categorized_EN.txt	OVEN	Appliances	7	4	[0, 0, 0]	n/a	catFR1	0	R1274T
620.746	0.834	627675	WORD_OFF	n/a	n/a	OVEN	n/a	7	4	[0, 0, 0]	n/a	catFR1	0	R1274T
621.58	1.617	628509	WORD	n/a	wordpools/wordpool_categorized_EN.txt	DRYER	Appliances	8	4	[0, 0, 0]	n/a	catFR1	0	R1274T
623.197	0.983	630126	WORD_OFF	n/a	n/a	DRYER	n/a	8	4	[0, 0, 0]	n/a	catFR1	0	R1274T
624.18	1.617	631109	WORD	n/a	wordpools/wordpool_categorized_EN.txt	GOAT	FarmAnimals	9	4	[0, 0, 0]	n/a	catFR1	0	R1274T
625.797	0.834	632726	WORD_OFF	n/a	n/a	GOAT	n/a	9	4	[0, 0, 0]	n/a	catFR1	0	R1274T
626.631	1.618	633560	WORD	n/a	wordpools/wordpool_categorized_EN.txt	HORSE	FarmAnimals	10	4	[0, 0, 0]	n/a	catFR1	0	R1274T
628.249	0.965	635178	WORD_OFF	n/a	n/a	HORSE	n/a	10	4	[0, 0, 0]	n/a	catFR1	0	R1274T
629.214	1.617	636143	WORD	n/a	wordpools/wordpool_categorized_EN.txt	ORANGE	Fruit	11	4	[0, 0, 0]	n/a	catFR1	0	R1274T
630.831	1.001	637760	WORD_OFF	n/a	n/a	ORANGE	n/a	11	4	[0, 0, 0]	n/a	catFR1	0	R1274T
631.832	1.618	638761	WORD	n/a	wordpools/wordpool_categorized_EN.txt	PEACH	Fruit	12	4	[0, 0, 0]	n/a	catFR1	0	R1274T
633.45	0.0	640379	ENCODING_END	n/a	n/a	n/a	n/a	-999	4	[0, 0, 0]	n/a	catFR1	0	R1274T
633.45	0.139	640379	WORD_OFF	n/a	n/a	PEACH	n/a	12	4	[0, 0, 0]	n/a	catFR1	0	R1274T
633.589	0.001	640518	DISTRACT_START	n/a	n/a	n/a	n/a	-999	4	[0, 0, 0]	n/a	catFR1	0	R1274T
633.59	0.009	640519	START	n/a	n/a	n/a	n/a	-999	4	[-999, -999, -999]	n/a	catFR1	0	R1274T
633.599	13.435	640528	PROB	13.41	n/a	n/a	n/a	-999	4	[6, 6, 6]	18.0	catFR1	0	R1274T
647.034	6.336	653962	PROB	6.311	n/a	n/a	n/a	-999	4	[9, 7, 7]	22.0	catFR1	0	R1274T
653.37	17.303	660297	PROB	17.303	n/a	n/a	n/a	-999	4	[6, 2, 6]	14.0	catFR1	0	R1274T
670.673	0.016	677599	STOP	n/a	n/a	n/a	n/a	-999	4	[-999, -999, -999]	n/a	catFR1	0	R1274T
670.689	0.567	677615	DISTRACT_END	n/a	n/a	n/a	n/a	-999	4	[0, 0, 0]	n/a	catFR1	0	R1274T
671.256	0.517	678182	RETRIEVAL_ORIENT	n/a	n/a	n/a	n/a	-999	4	[0, 0, 0]	n/a	catFR1	0	R1274T
671.773	1.464	678699	REC_START	n/a	n/a	n/a	n/a	-999	4	[0, 0, 0]	n/a	catFR1	0	R1274T
673.237	0.895	680163	REC_WORD	1.464	n/a	DRYER	Appliances	8	4	[0, 0, 0]	n/a	catFR1	0	R1274T
674.132	1.021	681058	REC_WORD	2.359	n/a	GOAT	FarmAnimals	9	4	[0, 0, 0]	n/a	catFR1	0	R1274T
675.153	26.63	682079	REC_WORD	3.38	n/a	OVEN	Appliances	7	4	[0, 0, 0]	n/a	catFR1	0	R1274T
701.783	18.881	708707	REC_END	n/a	n/a	n/a	n/a	-999	4	[0, 0, 0]	n/a	catFR1	0	R1274T
720.664	0.5	727587	TRIAL	n/a	n/a	n/a	n/a	-999	5	[0, 0, 0]	n/a	catFR1	0	R1274T
721.164	10.428	728087	COUNTDOWN_START	n/a	n/a	n/a	n/a	-999	5	[0, 0, 0]	n/a	catFR1	0	R1274T
731.592	0.008	738515	COUNTDOWN_END	n/a	n/a	n/a	n/a	-999	5	[0, 0, 0]	n/a	catFR1	0	R1274T
731.6	1.618	738523	ORIENT	n/a	n/a	n/a	n/a	-999	5	[0, 0, 0]	n/a	catFR1	0	R1274T
733.218	2.2	740140	ORIENT_OFF	n/a	n/a	n/a	n/a	-999	5	[0, 0, 0]	n/a	catFR1	0	R1274T
735.418	1.616	742340	WORD	n/a	wordpools/wordpool_categorized_EN.txt	TULIP	Flowers	1	5	[0, 0, 0]	n/a	catFR1	0	R1274T
737.034	0.933	743956	WORD_OFF	n/a	n/a	TULIP	n/a	1	5	[0, 0, 0]	n/a	catFR1	0	R1274T
737.967	1.618	744889	WORD	n/a	wordpools/wordpool_categorized_EN.txt	DAFFODIL	Flowers	2	5	[0, 0, 0]	n/a	catFR1	0	R1274T
739.585	0.901	746507	WORD_OFF	n/a	n/a	DAFFODIL	n/a	2	5	[0, 0, 0]	n/a	catFR1	0	R1274T
740.486	1.616	747408	WORD	n/a	wordpools/wordpool_categorized_EN.txt	ELM	Trees	3	5	[0, 0, 0]	n/a	catFR1	0	R1274T
742.102	1.0	749024	WORD_OFF	n/a	n/a	ELM	n/a	3	5	[0, 0, 0]	n/a	catFR1	0	R1274T
743.102	1.617	750024	WORD	n/a	wordpools/wordpool_categorized_EN.txt	EVERGREEN	Trees	4	5	[0, 0, 0]	n/a	catFR1	0	R1274T
744.719	0.833	751641	WORD_OFF	n/a	n/a	EVERGREEN	n/a	4	5	[0, 0, 0]	n/a	catFR1	0	R1274T
745.552	1.617	752474	WORD	n/a	wordpools/wordpool_categorized_EN.txt	ROOF	Building	5	5	[0, 0, 0]	n/a	catFR1	0	R1274T
747.169	0.934	754091	WORD_OFF	n/a	n/a	ROOF	n/a	5	5	[0, 0, 0]	n/a	catFR1	0	R1274T
748.103	1.617	755025	WORD	n/a	wordpools/wordpool_categorized_EN.txt	ROOM	Building	6	5	[0, 0, 0]	n/a	catFR1	0	R1274T
749.72	0.767	756641	WORD_OFF	n/a	n/a	ROOM	n/a	6	5	[0, 0, 0]	n/a	catFR1	0	R1274T
750.487	1.616	757408	WORD	n/a	wordpools/wordpool_categorized_EN.txt	LILY	Flowers	7	5	[0, 0, 0]	n/a	catFR1	0	R1274T
752.103	0.801	759024	WORD_OFF	n/a	n/a	LILY	n/a	7	5	[0, 0, 0]	n/a	catFR1	0	R1274T
752.904	1.618	759825	WORD	n/a	wordpools/wordpool_categorized_EN.txt	ROSE	Flowers	8	5	[0, 0, 0]	n/a	catFR1	0	R1274T
754.522	0.916	761443	WORD_OFF	n/a	n/a	ROSE	n/a	8	5	[0, 0, 0]	n/a	catFR1	0	R1274T
755.438	1.616	762359	WORD	n/a	wordpools/wordpool_categorized_EN.txt	BIRCH	Trees	9	5	[0, 0, 0]	n/a	catFR1	0	R1274T
757.054	0.901	763975	WORD_OFF	n/a	n/a	BIRCH	n/a	9	5	[0, 0, 0]	n/a	catFR1	0	R1274T
757.955	1.617	764876	WORD	n/a	wordpools/wordpool_categorized_EN.txt	CEDAR	Trees	10	5	[0, 0, 0]	n/a	catFR1	0	R1274T
759.572	0.817	766493	WORD_OFF	n/a	n/a	CEDAR	n/a	10	5	[0, 0, 0]	n/a	catFR1	0	R1274T
760.389	1.616	767310	WORD	n/a	wordpools/wordpool_categorized_EN.txt	WALL	Building	11	5	[0, 0, 0]	n/a	catFR1	0	R1274T
762.005	0.967	768926	WORD_OFF	n/a	n/a	WALL	n/a	11	5	[0, 0, 0]	n/a	catFR1	0	R1274T
762.972	1.617	769893	WORD	n/a	wordpools/wordpool_categorized_EN.txt	ATTIC	Building	12	5	[0, 0, 0]	n/a	catFR1	0	R1274T
764.589	0.0	771510	ENCODING_END	n/a	n/a	n/a	n/a	-999	5	[0, 0, 0]	n/a	catFR1	0	R1274T
764.589	0.102	771510	WORD_OFF	n/a	n/a	ATTIC	n/a	12	5	[0, 0, 0]	n/a	catFR1	0	R1274T
764.691	0.0	771612	DISTRACT_START	n/a	n/a	n/a	n/a	-999	5	[0, 0, 0]	n/a	catFR1	0	R1274T
764.691	0.015	771612	START	n/a	n/a	n/a	n/a	-999	5	[-999, -999, -999]	n/a	catFR1	0	R1274T
764.706	10.902	771627	PROB	10.871	n/a	n/a	n/a	-999	5	[6, 2, 8]	16.0	catFR1	0	R1274T
775.608	6.984	782528	PROB	6.951	n/a	n/a	n/a	-999	5	[7, 1, 8]	16.0	catFR1	0	R1274T
782.592	12.401	789511	PROB	12.401	n/a	n/a	n/a	-999	5	[8, 4, 9]	18.0	catFR1	0	R1274T
794.993	0.019	801912	STOP	n/a	n/a	n/a	n/a	-999	5	[-999, -999, -999]	n/a	catFR1	0	R1274T
795.012	0.699	801931	DISTRACT_END	n/a	n/a	n/a	n/a	-999	5	[0, 0, 0]	n/a	catFR1	0	R1274T
795.711	0.519	802630	RETRIEVAL_ORIENT	n/a	n/a	n/a	n/a	-999	5	[0, 0, 0]	n/a	catFR1	0	R1274T
796.23	2.095	803149	REC_START	n/a	n/a	n/a	n/a	-999	5	[0, 0, 0]	n/a	catFR1	0	R1274T
798.325	0.665	805243	REC_WORD	2.095	n/a	TULIP	Flowers	1	5	[0, 0, 0]	n/a	catFR1	0	R1274T
798.99	1.97	805908	REC_WORD	2.76	n/a	LILY	Flowers	7	5	[0, 0, 0]	n/a	catFR1	0	R1274T
800.96	0.794	807878	REC_WORD	4.73	n/a	IRIS	n/a	-999	5	[0, 0, 0]	n/a	catFR1	0	R1274T
801.754	0.701	808672	REC_WORD	5.524	n/a	ELM	Trees	3	5	[0, 0, 0]	n/a	catFR1	0	R1274T
802.455	1.852	809373	REC_WORD	6.225	n/a	EVERGREEN	Trees	4	5	[0, 0, 0]	n/a	catFR1	0	R1274T
804.307	0.792	811225	REC_WORD	8.077	n/a	CEDAR	Trees	10	5	[0, 0, 0]	n/a	catFR1	0	R1274T
805.099	1.005	812017	REC_WORD	8.869	n/a	MULCH	n/a	-999	5	[0, 0, 0]	n/a	catFR1	0	R1274T
806.104	11.364	813022	REC_WORD	9.874	n/a	BULK	n/a	-999	5	[0, 0, 0]	n/a	catFR1	0	R1274T
817.468	8.772	824385	REC_WORD	21.238	n/a	BIRCH	Trees	9	5	[0, 0, 0]	n/a	catFR1	0	R1274T
826.24	6.578	833157	REC_END	n/a	n/a	n/a	n/a	-999	5	[0, 0, 0]	n/a	catFR1	0	R1274T
832.818	0.5	839734	TRIAL	n/a	n/a	n/a	n/a	-999	6	[0, 0, 0]	n/a	catFR1	0	R1274T
833.318	10.428	840234	COUNTDOWN_START	n/a	n/a	n/a	n/a	-999	6	[0, 0, 0]	n/a	catFR1	0	R1274T
843.746	0.007	850662	COUNTDOWN_END	n/a	n/a	n/a	n/a	-999	6	[0, 0, 0]	n/a	catFR1	0	R1274T
843.753	1.602	850669	ORIENT	n/a	n/a	n/a	n/a	-999	6	[0, 0, 0]	n/a	catFR1	0	R1274T
845.355	2.15	852271	ORIENT_OFF	n/a	n/a	n/a	n/a	-999	6	[0, 0, 0]	n/a	catFR1	0	R1274T
847.505	1.616	854421	WORD	n/a	wordpools/wordpool_categorized_EN.txt	STREAM	Landscapes	1	6	[0, 0, 0]	n/a	catFR1	0	R1274T
849.121	0.783	856036	WORD_OFF	n/a	n/a	STREAM	n/a	1	6	[0, 0, 0]	n/a	catFR1	0	R1274T
849.904	1.618	856819	WORD	n/a	wordpools/wordpool_categorized_EN.txt	WOODS	Landscapes	2	6	[0, 0, 0]	n/a	catFR1	0	R1274T
851.522	0.917	858437	WORD_OFF	n/a	n/a	WOODS	n/a	2	6	[0, 0, 0]	n/a	catFR1	0	R1274T
852.439	1.616	859354	WORD	n/a	wordpools/wordpool_categorized_EN.txt	CELLO	Instruments	3	6	[0, 0, 0]	n/a	catFR1	0	R1274T
854.055	0.95	860970	WORD_OFF	n/a	n/a	CELLO	n/a	3	6	[0, 0, 0]	n/a	catFR1	0	R1274T
855.005	1.617	861920	WORD	n/a	wordpools/wordpool_categorized_EN.txt	VIOLIN	Instruments	4	6	[0, 0, 0]	n/a	catFR1	0	R1274T
856.622	0.835	863537	WORD_OFF	n/a	n/a	VIOLIN	n/a	4	6	[0, 0, 0]	n/a	catFR1	0	R1274T
857.457	1.616	864372	WORD	n/a	wordpools/wordpool_categorized_EN.txt	TOASTER	Appliances	5	6	[0, 0, 0]	n/a	catFR1	0	R1274T
859.073	0.783	865988	WORD_OFF	n/a	n/a	TOASTER	n/a	5	6	[0, 0, 0]	n/a	catFR1	0	R1274T
859.856	1.601	866771	WORD	n/a	wordpools/wordpool_categorized_EN.txt	DISHWASHER	Appliances	6	6	[0, 0, 0]	n/a	catFR1	0	R1274T
861.457	0.934	868372	WORD_OFF	n/a	n/a	DISHWASHER	n/a	6	6	[0, 0, 0]	n/a	catFR1	0	R1274T
862.391	1.616	869306	WORD	n/a	wordpools/wordpool_categorized_EN.txt	HILLS	Landscapes	7	6	[0, 0, 0]	n/a	catFR1	0	R1274T
864.007	0.984	870922	WORD_OFF	n/a	n/a	HILLS	n/a	7	6	[0, 0, 0]	n/a	catFR1	0	R1274T
864.991	1.616	871905	WORD	n/a	wordpools/wordpool_categorized_EN.txt	OCEAN	Landscapes	8	6	[0, 0, 0]	n/a	catFR1	0	R1274T
866.607	0.934	873521	WORD_OFF	n/a	n/a	OCEAN	n/a	8	6	[0, 0, 0]	n/a	catFR1	0	R1274T
867.541	1.617	874455	WORD	n/a	wordpools/wordpool_categorized_EN.txt	BASS	Instruments	9	6	[0, 0, 0]	n/a	catFR1	0	R1274T
869.158	0.967	876072	WORD_OFF	n/a	n/a	BASS	n/a	9	6	[0, 0, 0]	n/a	catFR1	0	R1274T
870.125	1.617	877039	WORD	n/a	wordpools/wordpool_categorized_EN.txt	TUBA	Instruments	10	6	[0, 0, 0]	n/a	catFR1	0	R1274T
871.742	0.95	878656	WORD_OFF	n/a	n/a	TUBA	n/a	10	6	[0, 0, 0]	n/a	catFR1	0	R1274T
872.692	1.618	879606	WORD	n/a	wordpools/wordpool_categorized_EN.txt	VACUUM	Appliances	11	6	[0, 0, 0]	n/a	catFR1	0	R1274T
874.31	0.899	881224	WORD_OFF	n/a	n/a	VACUUM	n/a	11	6	[0, 0, 0]	n/a	catFR1	0	R1274T
875.209	1.617	882123	WORD	n/a	wordpools/wordpool_categorized_EN.txt	FREEZER	Appliances	12	6	[0, 0, 0]	n/a	catFR1	0	R1274T
876.826	0.0	883740	ENCODING_END	n/a	n/a	n/a	n/a	-999	6	[0, 0, 0]	n/a	catFR1	0	R1274T
876.826	0.101	883740	WORD_OFF	n/a	n/a	FREEZER	n/a	12	6	[0, 0, 0]	n/a	catFR1	0	R1274T
876.927	0.001	883841	DISTRACT_START	n/a	n/a	n/a	n/a	-999	6	[0, 0, 0]	n/a	catFR1	0	R1274T
876.928	0.015	883842	START	n/a	n/a	n/a	n/a	-999	6	[-999, -999, -999]	n/a	catFR1	0	R1274T
876.943	6.502	883857	PROB	6.467	n/a	n/a	n/a	-999	6	[7, 1, 8]	16.0	catFR1	0	R1274T
883.445	12.035	890358	PROB	12.013	n/a	n/a	n/a	-999	6	[7, 1, 2]	10.0	catFR1	0	R1274T
895.48	6.737	902393	PROB	6.737	n/a	n/a	n/a	-999	6	[2, 4, 6]	12.0	catFR1	0	R1274T
902.217	0.015	909129	STOP	n/a	n/a	n/a	n/a	-999	6	[-999, -999, -999]	n/a	catFR1	0	R1274T
902.232	0.665	909144	DISTRACT_END	n/a	n/a	n/a	n/a	-999	6	[0, 0, 0]	n/a	catFR1	0	R1274T
902.897	0.519	909809	RETRIEVAL_ORIENT	n/a	n/a	n/a	n/a	-999	6	[0, 0, 0]	n/a	catFR1	0	R1274T
903.416	2.771	910328	REC_START	n/a	n/a	n/a	n/a	-999	6	[0, 0, 0]	n/a	catFR1	0	R1274T
906.187	1.238	913099	REC_WORD	2.771	n/a	WASHINGTON	n/a	-999	6	[0, 0, 0]	n/a	catFR1	0	R1274T
907.425	1.104	914337	REC_WORD	4.009	n/a	BASS	Instruments	9	6	[0, 0, 0]	n/a	catFR1	0	R1274T
908.529	2.253	915441	REC_WORD_VV	5.113	n/a	<>	n/a	-999	6	[0, 0, 0]	n/a	catFR1	0	R1274T
910.782	5.501	917694	REC_WORD	7.366	n/a	TUNA	n/a	-999	6	[0, 0, 0]	n/a	catFR1	0	R1274T
916.283	17.143	923194	REC_WORD	12.867	n/a	LEAK	n/a	-999	6	[0, 0, 0]	n/a	catFR1	0	R1274T
933.426	13.064	940336	REC_END	n/a	n/a	n/a	n/a	-999	6	[0, 0, 0]	n/a	catFR1	0	R1274T
946.49	0.5	953399	TRIAL	n/a	n/a	n/a	n/a	-999	7	[0, 0, 0]	n/a	catFR1	0	R1274T
946.99	10.428	953899	COUNTDOWN_START	n/a	n/a	n/a	n/a	-999	7	[0, 0, 0]	n/a	catFR1	0	R1274T
957.418	0.007	964327	COUNTDOWN_END	n/a	n/a	n/a	n/a	-999	7	[0, 0, 0]	n/a	catFR1	0	R1274T
957.425	1.616	964334	ORIENT	n/a	n/a	n/a	n/a	-999	7	[0, 0, 0]	n/a	catFR1	0	R1274T
959.041	2.351	965950	ORIENT_OFF	n/a	n/a	n/a	n/a	-999	7	[0, 0, 0]	n/a	catFR1	0	R1274T
961.392	1.616	968301	WORD	n/a	wordpools/wordpool_categorized_EN.txt	SPRUCE	Trees	1	7	[0, 0, 0]	n/a	catFR1	0	R1274T
963.008	0.817	969916	WORD_OFF	n/a	n/a	SPRUCE	n/a	1	7	[0, 0, 0]	n/a	catFR1	0	R1274T
963.825	1.618	970733	WORD	n/a	wordpools/wordpool_categorized_EN.txt	HICKORY	Trees	2	7	[0, 0, 0]	n/a	catFR1	0	R1274T
965.443	0.9	972351	WORD_OFF	n/a	n/a	HICKORY	n/a	2	7	[0, 0, 0]	n/a	catFR1	0	R1274T
966.343	1.616	973251	WORD	n/a	wordpools/wordpool_categorized_EN.txt	PEN	OfficeSupplies	3	7	[0, 0, 0]	n/a	catFR1	0	R1274T
967.959	0.85	974867	WORD_OFF	n/a	n/a	PEN	n/a	3	7	[0, 0, 0]	n/a	catFR1	0	R1274T
968.809	1.618	975717	WORD	n/a	wordpools/wordpool_categorized_EN.txt	PENCIL	OfficeSupplies	4	7	[0, 0, 0]	n/a	catFR1	0	R1274T
970.427	0.867	977335	WORD_OFF	n/a	n/a	PENCIL	n/a	4	7	[0, 0, 0]	n/a	catFR1	0	R1274T
971.294	1.616	978202	WORD	n/a	wordpools/wordpool_categorized_EN.txt	PANTS	Clothing	5	7	[0, 0, 0]	n/a	catFR1	0	R1274T
972.91	1.017	979818	WORD_OFF	n/a	n/a	PANTS	n/a	5	7	[0, 0, 0]	n/a	catFR1	0	R1274T
973.927	1.617	980835	WORD	n/a	wordpools/wordpool_categorized_EN.txt	BLOUSE	Clothing	6	7	[0, 0, 0]	n/a	catFR1	0	R1274T
975.544	0.983	982452	WORD_OFF	n/a	n/a	BLOUSE	n/a	6	7	[0, 0, 0]	n/a	catFR1	0	R1274T
976.527	1.618	983435	WORD	n/a	wordpools/wordpool_categorized_EN.txt	GLUE	OfficeSupplies	7	7	[0, 0, 0]	n/a	catFR1	0	R1274T
978.145	0.933	985053	WORD_OFF	n/a	n/a	GLUE	n/a	7	7	[0, 0, 0]	n/a	catFR1	0	R1274T
979.078	1.617	985985	WORD	n/a	wordpools/wordpool_categorized_EN.txt	FOLDER	OfficeSupplies	8	7	[0, 0, 0]	n/a	catFR1	0	R1274T
980.695	0.784	987602	WORD_OFF	n/a	n/a	FOLDER	n/a	8	7	[0, 0, 0]	n/a	catFR1	0	R1274T
981.479	1.616	988386	WORD	n/a	wordpools/wordpool_categorized_EN.txt	MAPLE	Trees	9	7	[0, 0, 0]	n/a	catFR1	0	R1274T
983.095	0.917	990002	WORD_OFF	n/a	n/a	MAPLE	n/a	9	7	[0, 0, 0]	n/a	catFR1	0	R1274T
984.012	1.617	990919	WORD	n/a	wordpools/wordpool_categorized_EN.txt	CYPRESS	Trees	10	7	[0, 0, 0]	n/a	catFR1	0	R1274T
985.629	0.967	992536	WORD_OFF	n/a	n/a	CYPRESS	n/a	10	7	[0, 0, 0]	n/a	catFR1	0	R1274T
986.596	1.617	993503	WORD	n/a	wordpools/wordpool_categorized_EN.txt	SOCKS	Clothing	11	7	[0, 0, 0]	n/a	catFR1	0	R1274T
988.213	0.833	995120	WORD_OFF	n/a	n/a	SOCKS	n/a	11	7	[0, 0, 0]	n/a	catFR1	0	R1274T
989.046	1.617	995953	WORD	n/a	wordpools/wordpool_categorized_EN.txt	SHORTS	Clothing	12	7	[0, 0, 0]	n/a	catFR1	0	R1274T
990.663	0.001	997570	WORD_OFF	n/a	n/a	SHORTS	n/a	12	7	[0, 0, 0]	n/a	catFR1	0	R1274T
990.664	0.134	997571	ENCODING_END	n/a	n/a	n/a	n/a	-999	7	[0, 0, 0]	n/a	catFR1	0	R1274T
990.798	0.0	997705	DISTRACT_START	n/a	n/a	n/a	n/a	-999	7	[0, 0, 0]	n/a	catFR1	0	R1274T
990.798	0.015	997705	START	n/a	n/a	n/a	n/a	-999	7	[-999, -999, -999]	n/a	catFR1	0	R1274T
990.813	33.148	997720	PROB	33.148	n/a	n/a	n/a	-999	7	[6, 9, 8]	23.0	catFR1	0	R1274T
1023.961	0.009	1030866	STOP	n/a	n/a	n/a	n/a	-999	7	[-999, -999, -999]	n/a	catFR1	0	R1274T
1023.97	0.683	1030875	DISTRACT_END	n/a	n/a	n/a	n/a	-999	7	[0, 0, 0]	n/a	catFR1	0	R1274T
1024.653	0.517	1031558	RETRIEVAL_ORIENT	n/a	n/a	n/a	n/a	-999	7	[0, 0, 0]	n/a	catFR1	0	R1274T
1025.17	2.411	1032075	REC_START	n/a	n/a	n/a	n/a	-999	7	[0, 0, 0]	n/a	catFR1	0	R1274T
1027.581	0.72	1034486	REC_WORD	2.411	n/a	PEN	OfficeSupplies	3	7	[0, 0, 0]	n/a	catFR1	0	R1274T
1028.301	0.731	1035206	REC_WORD	3.131	n/a	PENCIL	OfficeSupplies	4	7	[0, 0, 0]	n/a	catFR1	0	R1274T
1029.032	1.694	1035936	REC_WORD	3.862	n/a	POCKET	n/a	-999	7	[0, 0, 0]	n/a	catFR1	0	R1274T
1030.726	24.454	1037630	REC_WORD	5.556	n/a	PANTS	Clothing	5	7	[0, 0, 0]	n/a	catFR1	0	R1274T
1055.18	14.215	1062083	REC_END	n/a	n/a	n/a	n/a	-999	7	[0, 0, 0]	n/a	catFR1	0	R1274T
1069.395	0.5	1076297	TRIAL	n/a	n/a	n/a	n/a	-999	8	[0, 0, 0]	n/a	catFR1	0	R1274T
1069.895	10.428	1076797	COUNTDOWN_START	n/a	n/a	n/a	n/a	-999	8	[0, 0, 0]	n/a	catFR1	0	R1274T
1080.323	0.008	1087224	COUNTDOWN_END	n/a	n/a	n/a	n/a	-999	8	[0, 0, 0]	n/a	catFR1	0	R1274T
1080.331	1.616	1087232	ORIENT	n/a	n/a	n/a	n/a	-999	8	[0, 0, 0]	n/a	catFR1	0	R1274T
1081.947	1.867	1088848	ORIENT_OFF	n/a	n/a	n/a	n/a	-999	8	[0, 0, 0]	n/a	catFR1	0	R1274T
1083.814	1.618	1090715	WORD	n/a	wordpools/wordpool_categorized_EN.txt	SPATULA	KitchenTools	1	8	[0, 0, 0]	n/a	catFR1	0	R1274T
1085.432	0.85	1092333	WORD_OFF	n/a	n/a	SPATULA	n/a	1	8	[0, 0, 0]	n/a	catFR1	0	R1274T
1086.282	1.616	1093183	WORD	n/a	wordpools/wordpool_categorized_EN.txt	LADLE	KitchenTools	2	8	[0, 0, 0]	n/a	catFR1	0	R1274T
1087.898	1.0	1094799	WORD_OFF	n/a	n/a	LADLE	n/a	2	8	[0, 0, 0]	n/a	catFR1	0	R1274T
1088.898	1.618	1095799	WORD	n/a	wordpools/wordpool_categorized_EN.txt	BUTTERFLY	Insects	3	8	[0, 0, 0]	n/a	catFR1	0	R1274T
1090.516	0.95	1097417	WORD_OFF	n/a	n/a	BUTTERFLY	n/a	3	8	[0, 0, 0]	n/a	catFR1	0	R1274T
1091.466	1.616	1098367	WORD	n/a	wordpools/wordpool_categorized_EN.txt	MOTH	Insects	4	8	[0, 0, 0]	n/a	catFR1	0	R1274T
1093.082	0.917	1099983	WORD_OFF	n/a	n/a	MOTH	n/a	4	8	[0, 0, 0]	n/a	catFR1	0	R1274T
1093.999	1.617	1100900	WORD	n/a	wordpools/wordpool_categorized_EN.txt	THUNDERSTORM	Weather	5	8	[0, 0, 0]	n/a	catFR1	0	R1274T
1095.616	0.784	1102516	WORD_OFF	n/a	n/a	THUNDERSTORM	n/a	5	8	[0, 0, 0]	n/a	catFR1	0	R1274T
1096.4	1.616	1103300	WORD	n/a	wordpools/wordpool_categorized_EN.txt	LIGHTNING	Weather	6	8	[0, 0, 0]	n/a	catFR1	0	R1274T
1098.016	0.817	1104916	WORD_OFF	n/a	n/a	LIGHTNING	n/a	6	8	[0, 0, 0]	n/a	catFR1	0	R1274T
1098.833	1.618	1105733	WORD	n/a	wordpools/wordpool_categorized_EN.txt	ROACH	Insects	7	8	[0, 0, 0]	n/a	catFR1	0	R1274T
1100.451	0.85	1107351	WORD_OFF	n/a	n/a	ROACH	n/a	7	8	[0, 0, 0]	n/a	catFR1	0	R1274T
1101.301	1.616	1108201	WORD	n/a	wordpools/wordpool_categorized_EN.txt	GNAT	Insects	8	8	[0, 0, 0]	n/a	catFR1	0	R1274T
1102.917	0.884	1109817	WORD_OFF	n/a	n/a	GNAT	n/a	8	8	[0, 0, 0]	n/a	catFR1	0	R1274T
1103.801	1.618	1110701	WORD	n/a	wordpools/wordpool_categorized_EN.txt	COLANDER	KitchenTools	9	8	[0, 0, 0]	n/a	catFR1	0	R1274T
1105.419	0.95	1112319	WORD_OFF	n/a	n/a	COLANDER	n/a	9	8	[0, 0, 0]	n/a	catFR1	0	R1274T
1106.369	1.616	1113269	WORD	n/a	wordpools/wordpool_categorized_EN.txt	PEELER	KitchenTools	10	8	[0, 0, 0]	n/a	catFR1	0	R1274T
1107.985	0.85	1114885	WORD_OFF	n/a	n/a	PEELER	n/a	10	8	[0, 0, 0]	n/a	catFR1	0	R1274T
1108.835	1.618	1115735	WORD	n/a	wordpools/wordpool_categorized_EN.txt	THUNDER	Weather	11	8	[0, 0, 0]	n/a	catFR1	0	R1274T
1110.453	0.8	1117353	WORD_OFF	n/a	n/a	THUNDER	n/a	11	8	[0, 0, 0]	n/a	catFR1	0	R1274T
1111.253	1.616	1118152	WORD	n/a	wordpools/wordpool_categorized_EN.txt	DRIZZLE	Weather	12	8	[0, 0, 0]	n/a	catFR1	0	R1274T
1112.869	0.0	1119768	ENCODING_END	n/a	n/a	n/a	n/a	-999	8	[0, 0, 0]	n/a	catFR1	0	R1274T
1112.869	0.102	1119768	WORD_OFF	n/a	n/a	DRIZZLE	n/a	12	8	[0, 0, 0]	n/a	catFR1	0	R1274T
1112.971	0.0	1119870	DISTRACT_START	n/a	n/a	n/a	n/a	-999	8	[0, 0, 0]	n/a	catFR1	0	R1274T
1112.971	0.015	1119870	START	n/a	n/a	n/a	n/a	-999	8	[-999, -999, -999]	n/a	catFR1	0	R1274T
1112.986	5.017	1119885	PROB	4.982	n/a	n/a	n/a	-999	8	[4, 2, 2]	8.0	catFR1	0	R1274T
1118.003	8.052	1124902	PROB	8.022	n/a	n/a	n/a	-999	8	[3, 5, 8]	16.0	catFR1	0	R1274T
1126.055	8.283	1132954	PROB	8.283	n/a	n/a	n/a	-999	8	[6, 7, 9]	22.0	catFR1	0	R1274T
1134.338	0.019	1141236	STOP	n/a	n/a	n/a	n/a	-999	8	[-999, -999, -999]	n/a	catFR1	0	R1274T
1134.357	0.599	1141255	DISTRACT_END	n/a	n/a	n/a	n/a	-999	8	[0, 0, 0]	n/a	catFR1	0	R1274T
1134.956	0.519	1141854	RETRIEVAL_ORIENT	n/a	n/a	n/a	n/a	-999	8	[0, 0, 0]	n/a	catFR1	0	R1274T
1135.475	1.254	1142373	REC_START	n/a	n/a	n/a	n/a	-999	8	[0, 0, 0]	n/a	catFR1	0	R1274T
1136.729	0.645	1143627	REC_WORD	1.254	n/a	ROACH	Insects	7	8	[0, 0, 0]	n/a	catFR1	0	R1274T
1137.374	0.605	1144272	REC_WORD	1.899	n/a	GNAT	Insects	8	8	[0, 0, 0]	n/a	catFR1	0	R1274T
1137.979	0.733	1144877	REC_WORD	2.504	n/a	COLANDER	KitchenTools	9	8	[0, 0, 0]	n/a	catFR1	0	R1274T
1138.712	26.772	1145610	REC_WORD_VV	3.237	n/a	<>	n/a	-999	8	[0, 0, 0]	n/a	catFR1	0	R1274T
1165.484	6.88	1172380	REC_END	n/a	n/a	n/a	n/a	-999	8	[0, 0, 0]	n/a	catFR1	0	R1274T
1172.364	0.5	1179260	TRIAL	n/a	n/a	n/a	n/a	-999	9	[0, 0, 0]	n/a	catFR1	0	R1274T
1172.864	10.428	1179760	COUNTDOWN_START	n/a	n/a	n/a	n/a	-999	9	[0, 0, 0]	n/a	catFR1	0	R1274T
1183.292	0.007	1190187	COUNTDOWN_END	n/a	n/a	n/a	n/a	-999	9	[0, 0, 0]	n/a	catFR1	0	R1274T
1183.299	1.616	1190194	ORIENT	n/a	n/a	n/a	n/a	-999	9	[0, 0, 0]	n/a	catFR1	0	R1274T
1184.915	2.084	1191810	ORIENT_OFF	n/a	n/a	n/a	n/a	-999	9	[0, 0, 0]	n/a	catFR1	0	R1274T
1186.999	1.617	1193894	WORD	n/a	wordpools/wordpool_categorized_EN.txt	BLOCKS	Toys	1	9	[0, 0, 0]	n/a	catFR1	0	R1274T
1188.616	0.801	1195511	WORD_OFF	n/a	n/a	BLOCKS	n/a	1	9	[0, 0, 0]	n/a	catFR1	0	R1274T
1189.417	1.616	1196312	WORD	n/a	wordpools/wordpool_categorized_EN.txt	BASEBALL	Toys	2	9	[0, 0, 0]	n/a	catFR1	0	R1274T
1191.033	0.967	1197928	WORD_OFF	n/a	n/a	BASEBALL	n/a	2	9	[0, 0, 0]	n/a	catFR1	0	R1274T
1192.0	1.617	1198895	WORD	n/a	wordpools/wordpool_categorized_EN.txt	RUM	Beverages	3	9	[0, 0, 0]	n/a	catFR1	0	R1274T
1193.617	0.784	1200511	WORD_OFF	n/a	n/a	RUM	n/a	3	9	[0, 0, 0]	n/a	catFR1	0	R1274T
1194.401	1.616	1201295	WORD	n/a	wordpools/wordpool_categorized_EN.txt	TEA	Beverages	4	9	[0, 0, 0]	n/a	catFR1	0	R1274T
1196.017	0.917	1202911	WORD_OFF	n/a	n/a	TEA	n/a	4	9	[0, 0, 0]	n/a	catFR1	0	R1274T
1196.934	1.617	1203828	WORD	n/a	wordpools/wordpool_categorized_EN.txt	CORN	Vegetables	5	9	[0, 0, 0]	n/a	catFR1	0	R1274T
1198.551	0.918	1205445	WORD_OFF	n/a	n/a	CORN	n/a	5	9	[0, 0, 0]	n/a	catFR1	0	R1274T
1199.469	1.616	1206363	WORD	n/a	wordpools/wordpool_categorized_EN.txt	CUCUMBER	Vegetables	6	9	[0, 0, 0]	n/a	catFR1	0	R1274T
1201.085	0.883	1207979	WORD_OFF	n/a	n/a	CUCUMBER	n/a	6	9	[0, 0, 0]	n/a	catFR1	0	R1274T
1201.968	1.618	1208862	WORD	n/a	wordpools/wordpool_categorized_EN.txt	PUZZLE	Toys	7	9	[0, 0, 0]	n/a	catFR1	0	R1274T
1203.586	0.867	1210480	WORD_OFF	n/a	n/a	PUZZLE	n/a	7	9	[0, 0, 0]	n/a	catFR1	0	R1274T
1204.453	1.616	1211347	WORD	n/a	wordpools/wordpool_categorized_EN.txt	FOOTBALL	Toys	8	9	[0, 0, 0]	n/a	catFR1	0	R1274T
1206.069	0.967	1212963	WORD_OFF	n/a	n/a	FOOTBALL	n/a	8	9	[0, 0, 0]	n/a	catFR1	0	R1274T
1207.036	1.617	1213930	WORD	n/a	wordpools/wordpool_categorized_EN.txt	COLA	Beverages	9	9	[0, 0, 0]	n/a	catFR1	0	R1274T
1208.653	0.917	1215547	WORD_OFF	n/a	n/a	COLA	n/a	9	9	[0, 0, 0]	n/a	catFR1	0	R1274T
1209.57	1.617	1216463	WORD	n/a	wordpools/wordpool_categorized_EN.txt	WATER	Beverages	10	9	[0, 0, 0]	n/a	catFR1	0	R1274T
1211.187	0.983	1218080	WORD_OFF	n/a	n/a	WATER	n/a	10	9	[0, 0, 0]	n/a	catFR1	0	R1274T
1212.17	1.617	1219063	WORD	n/a	wordpools/wordpool_categorized_EN.txt	SPINACH	Vegetables	11	9	[0, 0, 0]	n/a	catFR1	0	R1274T
1213.787	0.867	1220680	WORD_OFF	n/a	n/a	SPINACH	n/a	11	9	[0, 0, 0]	n/a	catFR1	0	R1274T
1214.654	1.601	1221547	WORD	n/a	wordpools/wordpool_categorized_EN.txt	CAULIFLOWER	Vegetables	12	9	[0, 0, 0]	n/a	catFR1	0	R1274T
1216.255	0.0	1223148	ENCODING_END	n/a	n/a	n/a	n/a	-999	9	[0, 0, 0]	n/a	catFR1	0	R1274T
1216.255	0.108	1223148	WORD_OFF	n/a	n/a	CAULIFLOWER	n/a	12	9	[0, 0, 0]	n/a	catFR1	0	R1274T
1216.363	0.001	1223256	DISTRACT_START	n/a	n/a	n/a	n/a	-999	9	[0, 0, 0]	n/a	catFR1	0	R1274T
1216.364	0.025	1223257	START	n/a	n/a	n/a	n/a	-999	9	[-999, -999, -999]	n/a	catFR1	0	R1274T
1216.389	6.4	1223282	PROB	6.372	n/a	n/a	n/a	-999	9	[4, 6, 9]	19.0	catFR1	0	R1274T
1222.789	5.184	1229682	PROB	5.146	n/a	n/a	n/a	-999	9	[4, 1, 7]	12.0	catFR1	0	R1274T
1227.973	4.435	1234865	PROB	4.412	n/a	n/a	n/a	-999	9	[3, 6, 7]	16.0	catFR1	0	R1274T
1232.408	5.12	1239300	PROB	5.12	n/a	n/a	n/a	-999	9	[9, 4, 6]	19.0	catFR1	0	R1274T
1237.528	0.014	1244420	STOP	n/a	n/a	n/a	n/a	-999	9	[-999, -999, -999]	n/a	catFR1	0	R1274T
1237.542	0.55	1244434	DISTRACT_END	n/a	n/a	n/a	n/a	-999	9	[0, 0, 0]	n/a	catFR1	0	R1274T
1238.092	0.517	1244984	RETRIEVAL_ORIENT	n/a	n/a	n/a	n/a	-999	9	[0, 0, 0]	n/a	catFR1	0	R1274T
1238.609	1.76	1245501	REC_START	n/a	n/a	n/a	n/a	-999	9	[0, 0, 0]	n/a	catFR1	0	R1274T
1240.369	0.949	1247261	REC_WORD	1.76	n/a	FOOTBALL	Toys	8	9	[0, 0, 0]	n/a	catFR1	0	R1274T
1241.318	3.873	1248210	REC_WORD	2.709	n/a	BASEBALL	Toys	2	9	[0, 0, 0]	n/a	catFR1	0	R1274T
1245.191	1.883	1252082	REC_WORD_VV	6.582	n/a	<>	n/a	-999	9	[0, 0, 0]	n/a	catFR1	0	R1274T
1247.074	0.922	1253965	REC_WORD	8.465	n/a	COLA	Beverages	9	9	[0, 0, 0]	n/a	catFR1	0	R1274T
1247.996	10.165	1254887	REC_WORD	9.387	n/a	SODA	n/a	-999	9	[0, 0, 0]	n/a	catFR1	0	R1274T
1258.161	10.457	1265052	REC_WORD	19.552	n/a	GAME	n/a	-999	9	[0, 0, 0]	n/a	catFR1	0	R1274T
1268.618	9.882	1275508	REC_END	n/a	n/a	n/a	n/a	-999	9	[0, 0, 0]	n/a	catFR1	0	R1274T
1278.5	0.5	1285389	TRIAL	n/a	n/a	n/a	n/a	-999	10	[0, 0, 0]	n/a	catFR1	0	R1274T
1279.0	10.428	1285889	COUNTDOWN_START	n/a	n/a	n/a	n/a	-999	10	[0, 0, 0]	n/a	catFR1	0	R1274T
1289.428	0.007	1296317	COUNTDOWN_END	n/a	n/a	n/a	n/a	-999	10	[0, 0, 0]	n/a	catFR1	0	R1274T
1289.435	1.616	1296324	ORIENT	n/a	n/a	n/a	n/a	-999	10	[0, 0, 0]	n/a	catFR1	0	R1274T
1291.051	2.318	1297940	ORIENT_OFF	n/a	n/a	n/a	n/a	-999	10	[0, 0, 0]	n/a	catFR1	0	R1274T
1293.369	1.617	1300257	WORD	n/a	wordpools/wordpool_categorized_EN.txt	CLOUD	Weather	1	10	[0, 0, 0]	n/a	catFR1	0	R1274T
1294.986	0.95	1301874	WORD_OFF	n/a	n/a	CLOUD	n/a	1	10	[0, 0, 0]	n/a	catFR1	0	R1274T
1295.936	1.617	1302824	WORD	n/a	wordpools/wordpool_categorized_EN.txt	FOG	Weather	2	10	[0, 0, 0]	n/a	catFR1	0	R1274T
1297.553	0.817	1304441	WORD_OFF	n/a	n/a	FOG	n/a	2	10	[0, 0, 0]	n/a	catFR1	0	R1274T
1298.37	1.616	1305258	WORD	n/a	wordpools/wordpool_categorized_EN.txt	SUNFLOWER	Flowers	3	10	[0, 0, 0]	n/a	catFR1	0	R1274T
1299.986	0.9	1306874	WORD_OFF	n/a	n/a	SUNFLOWER	n/a	3	10	[0, 0, 0]	n/a	catFR1	0	R1274T
1300.886	1.618	1307774	WORD	n/a	wordpools/wordpool_categorized_EN.txt	CARNATION	Flowers	4	10	[0, 0, 0]	n/a	catFR1	0	R1274T
1302.504	0.967	1309392	WORD_OFF	n/a	n/a	CARNATION	n/a	4	10	[0, 0, 0]	n/a	catFR1	0	R1274T
1303.471	1.616	1310359	WORD	n/a	wordpools/wordpool_categorized_EN.txt	JELLYFISH	OceanAnimals	5	10	[0, 0, 0]	n/a	catFR1	0	R1274T
1305.087	0.934	1311975	WORD_OFF	n/a	n/a	JELLYFISH	n/a	5	10	[0, 0, 0]	n/a	catFR1	0	R1274T
1306.021	1.617	1312909	WORD	n/a	wordpools/wordpool_categorized_EN.txt	WHALE	OceanAnimals	6	10	[0, 0, 0]	n/a	catFR1	0	R1274T
1307.638	0.834	1314526	WORD_OFF	n/a	n/a	WHALE	n/a	6	10	[0, 0, 0]	n/a	catFR1	0	R1274T
1308.472	1.616	1315359	WORD	n/a	wordpools/wordpool_categorized_EN.txt	LILAC	Flowers	7	10	[0, 0, 0]	n/a	catFR1	0	R1274T
1310.088	0.967	1316975	WORD_OFF	n/a	n/a	LILAC	n/a	7	10	[0, 0, 0]	n/a	catFR1	0	R1274T
1311.055	1.617	1317942	WORD	n/a	wordpools/wordpool_categorized_EN.txt	VIOLET	Flowers	8	10	[0, 0, 0]	n/a	catFR1	0	R1274T
1312.672	0.967	1319559	WORD_OFF	n/a	n/a	VIOLET	n/a	8	10	[0, 0, 0]	n/a	catFR1	0	R1274T
1313.639	1.618	1320526	WORD	n/a	wordpools/wordpool_categorized_EN.txt	TORNADO	Weather	9	10	[0, 0, 0]	n/a	catFR1	0	R1274T
1315.257	0.799	1322144	WORD_OFF	n/a	n/a	TORNADO	n/a	9	10	[0, 0, 0]	n/a	catFR1	0	R1274T
1316.056	1.617	1322943	WORD	n/a	wordpools/wordpool_categorized_EN.txt	HUMIDITY	Weather	10	10	[0, 0, 0]	n/a	catFR1	0	R1274T
1317.673	0.768	1324560	WORD_OFF	n/a	n/a	HUMIDITY	n/a	10	10	[0, 0, 0]	n/a	catFR1	0	R1274T
1318.441	1.616	1325328	WORD	n/a	wordpools/wordpool_categorized_EN.txt	SHRIMP	OceanAnimals	11	10	[0, 0, 0]	n/a	catFR1	0	R1274T
1320.057	0.833	1326944	WORD_OFF	n/a	n/a	SHRIMP	n/a	11	10	[0, 0, 0]	n/a	catFR1	0	R1274T
1320.89	1.618	1327777	WORD	n/a	wordpools/wordpool_categorized_EN.txt	SQUID	OceanAnimals	12	10	[0, 0, 0]	n/a	catFR1	0	R1274T
1322.508	0.0	1329395	ENCODING_END	n/a	n/a	n/a	n/a	-999	10	[0, 0, 0]	n/a	catFR1	0	R1274T
1322.508	0.134	1329395	WORD_OFF	n/a	n/a	SQUID	n/a	12	10	[0, 0, 0]	n/a	catFR1	0	R1274T
1322.642	0.0	1329529	DISTRACT_START	n/a	n/a	n/a	n/a	-999	10	[0, 0, 0]	n/a	catFR1	0	R1274T
1322.642	0.015	1329529	START	n/a	n/a	n/a	n/a	-999	10	[-999, -999, -999]	n/a	catFR1	0	R1274T
1322.657	31.255	1329544	PROB	31.255	n/a	n/a	n/a	-999	10	[6, 8, 9]	23.0	catFR1	0	R1274T
1353.912	0.018	1360797	STOP	n/a	n/a	n/a	n/a	-999	10	[-999, -999, -999]	n/a	catFR1	0	R1274T
1353.93	0.517	1360815	DISTRACT_END	n/a	n/a	n/a	n/a	-999	10	[0, 0, 0]	n/a	catFR1	0	R1274T
1354.447	0.517	1361332	RETRIEVAL_ORIENT	n/a	n/a	n/a	n/a	-999	10	[0, 0, 0]	n/a	catFR1	0	R1274T
1354.964	1.785	1361849	REC_START	n/a	n/a	n/a	n/a	-999	10	[0, 0, 0]	n/a	catFR1	0	R1274T
1356.749	0.719	1363634	REC_WORD	1.785	n/a	SHRIMP	OceanAnimals	11	10	[0, 0, 0]	n/a	catFR1	0	R1274T
1357.468	27.507	1364352	REC_WORD	2.504	n/a	SCALLOPS	n/a	-999	10	[0, 0, 0]	n/a	catFR1	0	R1274T
1384.975	6.161	1391858	REC_END	n/a	n/a	n/a	n/a	-999	10	[0, 0, 0]	n/a	catFR1	0	R1274T
1391.136	0.5	1398018	TRIAL	n/a	n/a	n/a	n/a	-999	11	[0, 0, 0]	n/a	catFR1	0	R1274T
1391.636	10.428	1398518	COUNTDOWN_START	n/a	n/a	n/a	n/a	-999	11	[0, 0, 0]	n/a	catFR1	0	R1274T
1402.064	0.008	1408946	COUNTDOWN_END	n/a	n/a	n/a	n/a	-999	11	[0, 0, 0]	n/a	catFR1	0	R1274T
1402.072	1.617	1408954	ORIENT	n/a	n/a	n/a	n/a	-999	11	[0, 0, 0]	n/a	catFR1	0	R1274T
1403.689	2.233	1410571	ORIENT_OFF	n/a	n/a	n/a	n/a	-999	11	[0, 0, 0]	n/a	catFR1	0	R1274T
1405.922	1.617	1412804	WORD	n/a	wordpools/wordpool_categorized_EN.txt	PIANO	Instruments	1	11	[0, 0, 0]	n/a	catFR1	0	R1274T
1407.539	0.785	1414420	WORD_OFF	n/a	n/a	PIANO	n/a	1	11	[0, 0, 0]	n/a	catFR1	0	R1274T
1408.324	1.616	1415205	WORD	n/a	wordpools/wordpool_categorized_EN.txt	ORGAN	Instruments	2	11	[0, 0, 0]	n/a	catFR1	0	R1274T
1409.94	0.766	1416821	WORD_OFF	n/a	n/a	ORGAN	n/a	2	11	[0, 0, 0]	n/a	catFR1	0	R1274T
1410.706	1.602	1417587	WORD	n/a	wordpools/wordpool_categorized_EN.txt	BEAR	Zoo	3	11	[0, 0, 0]	n/a	catFR1	0	R1274T
1412.308	0.782	1419189	WORD_OFF	n/a	n/a	BEAR	n/a	3	11	[0, 0, 0]	n/a	catFR1	0	R1274T
1413.09	1.617	1419971	WORD	n/a	wordpools/wordpool_categorized_EN.txt	PANDA	Zoo	4	11	[0, 0, 0]	n/a	catFR1	0	R1274T
1414.707	0.801	1421588	WORD_OFF	n/a	n/a	PANDA	n/a	4	11	[0, 0, 0]	n/a	catFR1	0	R1274T
1415.508	1.616	1422389	WORD	n/a	wordpools/wordpool_categorized_EN.txt	LEMON	Fruit	5	11	[0, 0, 0]	n/a	catFR1	0	R1274T
1417.124	0.967	1424005	WORD_OFF	n/a	n/a	LEMON	n/a	5	11	[0, 0, 0]	n/a	catFR1	0	R1274T
1418.091	1.617	1424972	WORD	n/a	wordpools/wordpool_categorized_EN.txt	BANANA	Fruit	6	11	[0, 0, 0]	n/a	catFR1	0	R1274T
1419.708	0.967	1426589	WORD_OFF	n/a	n/a	BANANA	n/a	6	11	[0, 0, 0]	n/a	catFR1	0	R1274T
1420.675	1.618	1427556	WORD	n/a	wordpools/wordpool_categorized_EN.txt	DRUM	Instruments	7	11	[0, 0, 0]	n/a	catFR1	0	R1274T
1422.293	0.983	1429174	WORD_OFF	n/a	n/a	DRUM	n/a	7	11	[0, 0, 0]	n/a	catFR1	0	R1274T
1423.276	1.616	1430156	WORD	n/a	wordpools/wordpool_categorized_EN.txt	TRUMPET	Instruments	8	11	[0, 0, 0]	n/a	catFR1	0	R1274T
1424.892	0.984	1431772	WORD_OFF	n/a	n/a	TRUMPET	n/a	8	11	[0, 0, 0]	n/a	catFR1	0	R1274T
1425.876	1.601	1432756	WORD	n/a	wordpools/wordpool_categorized_EN.txt	ORANGUTAN	Zoo	9	11	[0, 0, 0]	n/a	catFR1	0	R1274T
1427.477	0.867	1434357	WORD_OFF	n/a	n/a	ORANGUTAN	n/a	9	11	[0, 0, 0]	n/a	catFR1	0	R1274T
1428.344	1.616	1435224	WORD	n/a	wordpools/wordpool_categorized_EN.txt	CHIMPANZEE	Zoo	10	11	[0, 0, 0]	n/a	catFR1	0	R1274T
1429.96	0.783	1436840	WORD_OFF	n/a	n/a	CHIMPANZEE	n/a	10	11	[0, 0, 0]	n/a	catFR1	0	R1274T
1430.743	1.601	1437623	WORD	n/a	wordpools/wordpool_categorized_EN.txt	APPLE	Fruit	11	11	[0, 0, 0]	n/a	catFR1	0	R1274T
1432.344	0.951	1439224	WORD_OFF	n/a	n/a	APPLE	n/a	11	11	[0, 0, 0]	n/a	catFR1	0	R1274T
1433.295	1.616	1440175	WORD	n/a	wordpools/wordpool_categorized_EN.txt	PLUM	Fruit	12	11	[0, 0, 0]	n/a	catFR1	0	R1274T
1434.911	0.0	1441791	WORD_OFF	n/a	n/a	PLUM	n/a	12	11	[0, 0, 0]	n/a	catFR1	0	R1274T
1434.911	0.101	1441791	ENCODING_END	n/a	n/a	n/a	n/a	-999	11	[0, 0, 0]	n/a	catFR1	0	R1274T
1435.012	0.0	1441892	DISTRACT_START	n/a	n/a	n/a	n/a	-999	11	[0, 0, 0]	n/a	catFR1	0	R1274T
1435.012	0.016	1441892	START	n/a	n/a	n/a	n/a	-999	11	[-999, -999, -999]	n/a	catFR1	0	R1274T
1435.028	7.101	1441908	PROB	7.077	n/a	n/a	n/a	-999	11	[7, 7, 5]	19.0	catFR1	0	R1274T
1442.129	6.918	1449008	PROB	6.88	n/a	n/a	n/a	-999	11	[2, 9, 4]	15.0	catFR1	0	R1274T
1449.047	12.234	1455926	PROB	12.234	n/a	n/a	n/a	-999	11	[5, 7, 3]	15.0	catFR1	0	R1274T
1461.281	0.019	1468159	STOP	n/a	n/a	n/a	n/a	-999	11	[-999, -999, -999]	n/a	catFR1	0	R1274T
1461.3	0.549	1468178	DISTRACT_END	n/a	n/a	n/a	n/a	-999	11	[0, 0, 0]	n/a	catFR1	0	R1274T
1461.849	0.502	1468727	RETRIEVAL_ORIENT	n/a	n/a	n/a	n/a	-999	11	[0, 0, 0]	n/a	catFR1	0	R1274T
1462.351	2.463	1469229	REC_START	n/a	n/a	n/a	n/a	-999	11	[0, 0, 0]	n/a	catFR1	0	R1274T
1464.814	0.92	1471692	REC_WORD	2.463	n/a	PIANO	Instruments	1	11	[0, 0, 0]	n/a	catFR1	0	R1274T
1465.734	1.601	1472612	REC_WORD	3.383	n/a	ORGAN	Instruments	2	11	[0, 0, 0]	n/a	catFR1	0	R1274T
1467.335	12.887	1474213	REC_WORD_VV	4.984	n/a	<>	n/a	-999	11	[0, 0, 0]	n/a	catFR1	0	R1274T
1480.222	1.078	1487099	REC_WORD	17.871	n/a	MONKEY	n/a	-999	11	[0, 0, 0]	n/a	catFR1	0	R1274T
1481.3	11.061	1488177	REC_WORD_VV	18.949	n/a	<>	n/a	-999	11	[0, 0, 0]	n/a	catFR1	0	R1274T
1492.361	15.747	1499237	REC_END	n/a	n/a	n/a	n/a	-999	11	[0, 0, 0]	n/a	catFR1	0	R1274T
1508.108	0.5	1514983	TRIAL	n/a	n/a	n/a	n/a	-999	12	[0, 0, 0]	n/a	catFR1	0	R1274T
1508.608	10.428	1515483	COUNTDOWN_START	n/a	n/a	n/a	n/a	-999	12	[0, 0, 0]	n/a	catFR1	0	R1274T
1519.036	0.007	1525911	COUNTDOWN_END	n/a	n/a	n/a	n/a	-999	12	[0, 0, 0]	n/a	catFR1	0	R1274T
1519.043	1.617	1525918	ORIENT	n/a	n/a	n/a	n/a	-999	12	[0, 0, 0]	n/a	catFR1	0	R1274T
1520.66	2.067	1527535	ORIENT_OFF	n/a	n/a	n/a	n/a	-999	12	[0, 0, 0]	n/a	catFR1	0	R1274T
1522.727	1.618	1529601	WORD	n/a	wordpools/wordpool_categorized_EN.txt	ONION	Vegetables	1	12	[0, 0, 0]	n/a	catFR1	0	R1274T
1524.345	0.782	1531219	WORD_OFF	n/a	n/a	ONION	n/a	1	12	[0, 0, 0]	n/a	catFR1	0	R1274T
1525.127	1.617	1532001	WORD	n/a	wordpools/wordpool_categorized_EN.txt	PEAS	Vegetables	2	12	[0, 0, 0]	n/a	catFR1	0	R1274T
1526.744	0.883	1533618	WORD_OFF	n/a	n/a	PEAS	n/a	2	12	[0, 0, 0]	n/a	catFR1	0	R1274T
1527.627	1.619	1534501	WORD	n/a	wordpools/wordpool_categorized_EN.txt	COAT	Clothing	3	12	[0, 0, 0]	n/a	catFR1	0	R1274T
1529.246	0.782	1536120	WORD_OFF	n/a	n/a	COAT	n/a	3	12	[0, 0, 0]	n/a	catFR1	0	R1274T
1530.028	1.617	1536902	WORD	n/a	wordpools/wordpool_categorized_EN.txt	DRESS	Clothing	4	12	[0, 0, 0]	n/a	catFR1	0	R1274T
1531.645	1.0	1538519	WORD_OFF	n/a	n/a	DRESS	n/a	4	12	[0, 0, 0]	n/a	catFR1	0	R1274T
1532.645	1.601	1539519	WORD	n/a	wordpools/wordpool_categorized_EN.txt	LIME	Fruit	5	12	[0, 0, 0]	n/a	catFR1	0	R1274T
1534.246	0.8	1541120	WORD_OFF	n/a	n/a	LIME	n/a	5	12	[0, 0, 0]	n/a	catFR1	0	R1274T
1535.046	1.617	1541920	WORD	n/a	wordpools/wordpool_categorized_EN.txt	STRAWBERRY	Fruit	6	12	[0, 0, 0]	n/a	catFR1	0	R1274T
1536.663	0.983	1543537	WORD_OFF	n/a	n/a	STRAWBERRY	n/a	6	12	[0, 0, 0]	n/a	catFR1	0	R1274T
1537.646	1.618	1544520	WORD	n/a	wordpools/wordpool_categorized_EN.txt	CARROT	Vegetables	7	12	[0, 0, 0]	n/a	catFR1	0	R1274T
1539.264	0.916	1546137	WORD_OFF	n/a	n/a	CARROT	n/a	7	12	[0, 0, 0]	n/a	catFR1	0	R1274T
1540.18	1.617	1547053	WORD	n/a	wordpools/wordpool_categorized_EN.txt	LETTUCE	Vegetables	8	12	[0, 0, 0]	n/a	catFR1	0	R1274T
1541.797	0.95	1548670	WORD_OFF	n/a	n/a	LETTUCE	n/a	8	12	[0, 0, 0]	n/a	catFR1	0	R1274T
1542.747	1.601	1549620	WORD	n/a	wordpools/wordpool_categorized_EN.txt	JACKET	Clothing	9	12	[0, 0, 0]	n/a	catFR1	0	R1274T
1544.348	0.766	1551221	WORD_OFF	n/a	n/a	JACKET	n/a	9	12	[0, 0, 0]	n/a	catFR1	0	R1274T
1545.114	1.617	1551987	WORD	n/a	wordpools/wordpool_categorized_EN.txt	SKIRT	Clothing	10	12	[0, 0, 0]	n/a	catFR1	0	R1274T
1546.731	0.967	1553604	WORD_OFF	n/a	n/a	SKIRT	n/a	10	12	[0, 0, 0]	n/a	catFR1	0	R1274T
1547.698	1.618	1554571	WORD	n/a	wordpools/wordpool_categorized_EN.txt	BLUEBERRY	Fruit	11	12	[0, 0, 0]	n/a	catFR1	0	R1274T
1549.316	0.883	1556189	WORD_OFF	n/a	n/a	BLUEBERRY	n/a	11	12	[0, 0, 0]	n/a	catFR1	0	R1274T
1550.199	1.617	1557072	WORD	n/a	wordpools/wordpool_categorized_EN.txt	PEAR	Fruit	12	12	[0, 0, 0]	n/a	catFR1	0	R1274T
1551.816	0.0	1558689	ENCODING_END	n/a	n/a	n/a	n/a	-999	12	[0, 0, 0]	n/a	catFR1	0	R1274T
1551.816	0.136	1558689	WORD_OFF	n/a	n/a	PEAR	n/a	12	12	[0, 0, 0]	n/a	catFR1	0	R1274T
1551.952	0.001	1558825	DISTRACT_START	n/a	n/a	n/a	n/a	-999	12	[0, 0, 0]	n/a	catFR1	0	R1274T
1551.953	0.013	1558826	START	n/a	n/a	n/a	n/a	-999	12	[-999, -999, -999]	n/a	catFR1	0	R1274T
1551.966	34.746	1558839	PROB	34.746	n/a	n/a	n/a	-999	12	[8, 7, 7]	25.0	catFR1	0	R1274T
1586.712	0.01	1593583	STOP	n/a	n/a	n/a	n/a	-999	12	[-999, -999, -999]	n/a	catFR1	0	R1274T
1586.722	0.701	1593593	DISTRACT_END	n/a	n/a	n/a	n/a	-999	12	[0, 0, 0]	n/a	catFR1	0	R1274T
1587.423	0.516	1594293	RETRIEVAL_ORIENT	n/a	n/a	n/a	n/a	-999	12	[0, 0, 0]	n/a	catFR1	0	R1274T
1587.939	8.993	1594809	REC_START	n/a	n/a	n/a	n/a	-999	12	[0, 0, 0]	n/a	catFR1	0	R1274T
1596.932	1.975	1603802	REC_WORD	8.993	n/a	PEANUTS	n/a	-999	12	[0, 0, 0]	n/a	catFR1	0	R1274T
1598.907	3.438	1605777	REC_WORD	10.968	n/a	PILLOW	n/a	-999	12	[0, 0, 0]	n/a	catFR1	0	R1274T
1602.345	2.389	1609215	REC_WORD	14.406	n/a	OYSTERS	n/a	-999	12	[0, 0, 0]	n/a	catFR1	0	R1274T
1604.734	13.217	1611603	REC_WORD	16.795	n/a	SHELLS	n/a	-999	12	[0, 0, 0]	n/a	catFR1	0	R1274T
1617.951	22.68	1624820	REC_END	n/a	n/a	n/a	n/a	-999	12	[0, 0, 0]	n/a	catFR1	0	R1274T
1640.631	0.5	1647498	TRIAL	n/a	n/a	n/a	n/a	-999	13	[0, 0, 0]	n/a	catFR1	0	R1274T
1641.131	10.428	1647998	COUNTDOWN_START	n/a	n/a	n/a	n/a	-999	13	[0, 0, 0]	n/a	catFR1	0	R1274T
1651.559	0.008	1658426	COUNTDOWN_END	n/a	n/a	n/a	n/a	-999	13	[0, 0, 0]	n/a	catFR1	0	R1274T
1651.567	1.617	1658434	ORIENT	n/a	n/a	n/a	n/a	-999	13	[0, 0, 0]	n/a	catFR1	0	R1274T
1653.184	1.867	1660050	ORIENT_OFF	n/a	n/a	n/a	n/a	-999	13	[0, 0, 0]	n/a	catFR1	0	R1274T
1655.051	1.617	1661917	WORD	n/a	wordpools/wordpool_categorized_EN.txt	CHEESECAKE	Desserts	1	13	[0, 0, 0]	n/a	catFR1	0	R1274T
1656.668	0.917	1663534	WORD_OFF	n/a	n/a	CHEESECAKE	n/a	1	13	[0, 0, 0]	n/a	catFR1	0	R1274T
1657.585	1.617	1664451	WORD	n/a	wordpools/wordpool_categorized_EN.txt	PIE	Desserts	2	13	[0, 0, 0]	n/a	catFR1	0	R1274T
1659.202	0.817	1666068	WORD_OFF	n/a	n/a	PIE	n/a	2	13	[0, 0, 0]	n/a	catFR1	0	R1274T
1660.019	1.617	1666885	WORD	n/a	wordpools/wordpool_categorized_EN.txt	FOREST	Landscapes	3	13	[0, 0, 0]	n/a	catFR1	0	R1274T
1661.636	0.9	1668502	WORD_OFF	n/a	n/a	FOREST	n/a	3	13	[0, 0, 0]	n/a	catFR1	0	R1274T
1662.536	1.617	1669402	WORD	n/a	wordpools/wordpool_categorized_EN.txt	VALLEY	Landscapes	4	13	[0, 0, 0]	n/a	catFR1	0	R1274T
1664.153	0.9	1671019	WORD_OFF	n/a	n/a	VALLEY	n/a	4	13	[0, 0, 0]	n/a	catFR1	0	R1274T
1665.053	1.617	1671919	WORD	n/a	wordpools/wordpool_categorized_EN.txt	LEVEL	Tools	5	13	[0, 0, 0]	n/a	catFR1	0	R1274T
1666.67	0.9	1673536	WORD_OFF	n/a	n/a	LEVEL	n/a	5	13	[0, 0, 0]	n/a	catFR1	0	R1274T
1667.57	1.617	1674436	WORD	n/a	wordpools/wordpool_categorized_EN.txt	PLIERS	Tools	6	13	[0, 0, 0]	n/a	catFR1	0	R1274T
1669.187	0.95	1676053	WORD_OFF	n/a	n/a	PLIERS	n/a	6	13	[0, 0, 0]	n/a	catFR1	0	R1274T
1670.137	1.617	1677002	WORD	n/a	wordpools/wordpool_categorized_EN.txt	JELLO	Desserts	7	13	[0, 0, 0]	n/a	catFR1	0	R1274T
1671.754	0.817	1678619	WORD_OFF	n/a	n/a	JELLO	n/a	7	13	[0, 0, 0]	n/a	catFR1	0	R1274T
1672.571	1.617	1679436	WORD	n/a	wordpools/wordpool_categorized_EN.txt	CAKE	Desserts	8	13	[0, 0, 0]	n/a	catFR1	0	R1274T
1674.188	0.867	1681053	WORD_OFF	n/a	n/a	CAKE	n/a	8	13	[0, 0, 0]	n/a	catFR1	0	R1274T
1675.055	1.617	1681920	WORD	n/a	wordpools/wordpool_categorized_EN.txt	CREEK	Landscapes	9	13	[0, 0, 0]	n/a	catFR1	0	R1274T
1676.672	0.817	1683537	WORD_OFF	n/a	n/a	CREEK	n/a	9	13	[0, 0, 0]	n/a	catFR1	0	R1274T
1677.489	1.616	1684354	WORD	n/a	wordpools/wordpool_categorized_EN.txt	LAKE	Landscapes	10	13	[0, 0, 0]	n/a	catFR1	0	R1274T
1679.105	0.784	1685970	WORD_OFF	n/a	n/a	LAKE	n/a	10	13	[0, 0, 0]	n/a	catFR1	0	R1274T
1679.889	1.618	1686754	WORD	n/a	wordpools/wordpool_categorized_EN.txt	AXE	Tools	11	13	[0, 0, 0]	n/a	catFR1	0	R1274T
1681.507	0.817	1688372	WORD_OFF	n/a	n/a	AXE	n/a	11	13	[0, 0, 0]	n/a	catFR1	0	R1274T
1682.324	1.616	1689189	WORD	n/a	wordpools/wordpool_categorized_EN.txt	HAMMER	Tools	12	13	[0, 0, 0]	n/a	catFR1	0	R1274T
1683.94	0.0	1690805	ENCODING_END	n/a	n/a	n/a	n/a	-999	13	[0, 0, 0]	n/a	catFR1	0	R1274T
1683.94	0.132	1690805	WORD_OFF	n/a	n/a	HAMMER	n/a	12	13	[0, 0, 0]	n/a	catFR1	0	R1274T
1684.072	0.0	1690937	DISTRACT_START	n/a	n/a	n/a	n/a	-999	13	[0, 0, 0]	n/a	catFR1	0	R1274T
1684.072	0.018	1690937	START	n/a	n/a	n/a	n/a	-999	13	[-999, -999, -999]	n/a	catFR1	0	R1274T
1684.09	7.784	1690955	PROB	7.75	n/a	n/a	n/a	-999	13	[5, 7, 7]	19.0	catFR1	0	R1274T
1691.874	6.051	1698738	PROB	6.022	n/a	n/a	n/a	-999	13	[5, 6, 1]	12.0	catFR1	0	R1274T
1697.925	5.252	1704789	PROB	5.22	n/a	n/a	n/a	-999	13	[4, 4, 7]	15.0	catFR1	0	R1274T
1703.177	6.799	1710040	PROB	6.799	n/a	n/a	n/a	-999	13	[7, 8, 9]	1.0	catFR1	0	R1274T
1709.976	0.019	1716839	STOP	n/a	n/a	n/a	n/a	-999	13	[-999, -999, -999]	n/a	catFR1	0	R1274T
1709.995	0.533	1716858	DISTRACT_END	n/a	n/a	n/a	n/a	-999	13	[0, 0, 0]	n/a	catFR1	0	R1274T
1710.528	0.517	1717391	RETRIEVAL_ORIENT	n/a	n/a	n/a	n/a	-999	13	[0, 0, 0]	n/a	catFR1	0	R1274T
1711.045	7.29	1717908	REC_START	n/a	n/a	n/a	n/a	-999	13	[0, 0, 0]	n/a	catFR1	0	R1274T
1718.335	0.574	1725198	REC_WORD	7.29	n/a	PEANUT	n/a	-999	13	[0, 0, 0]	n/a	catFR1	0	R1274T
1718.909	2.117	1725771	REC_WORD_VV	7.864	n/a	<>	n/a	-999	13	[0, 0, 0]	n/a	catFR1	0	R1274T
1721.026	2.43	1727888	REC_WORD_VV	9.981	n/a	<>	n/a	-999	13	[0, 0, 0]	n/a	catFR1	0	R1274T
1723.456	1.003	1730318	REC_WORD_VV	12.411	n/a	<>	n/a	-999	13	[0, 0, 0]	n/a	catFR1	0	R1274T
1724.459	1.0	1731321	REC_WORD_VV	13.414	n/a	<>	n/a	-999	13	[0, 0, 0]	n/a	catFR1	0	R1274T
1725.459	15.598	1732321	REC_WORD_VV	14.414	n/a	<>	n/a	-999	13	[0, 0, 0]	n/a	catFR1	0	R1274T
1741.057	8.412	1747918	REC_END	n/a	n/a	n/a	n/a	-999	13	[0, 0, 0]	n/a	catFR1	0	R1274T
1749.469	0.5	1756330	TRIAL	n/a	n/a	n/a	n/a	-999	14	[0, 0, 0]	n/a	catFR1	0	R1274T
1749.969	10.428	1756830	COUNTDOWN_START	n/a	n/a	n/a	n/a	-999	14	[0, 0, 0]	n/a	catFR1	0	R1274T
1760.397	0.008	1767257	COUNTDOWN_END	n/a	n/a	n/a	n/a	-999	14	[0, 0, 0]	n/a	catFR1	0	R1274T
1760.405	1.615	1767265	ORIENT	n/a	n/a	n/a	n/a	-999	14	[0, 0, 0]	n/a	catFR1	0	R1274T
1762.02	1.951	1768880	ORIENT_OFF	n/a	n/a	n/a	n/a	-999	14	[0, 0, 0]	n/a	catFR1	0	R1274T
1763.971	1.617	1770831	WORD	n/a	wordpools/wordpool_categorized_EN.txt	ERASER	OfficeSupplies	1	14	[0, 0, 0]	n/a	catFR1	0	R1274T
1765.588	0.801	1772448	WORD_OFF	n/a	n/a	ERASER	n/a	1	14	[0, 0, 0]	n/a	catFR1	0	R1274T
1766.389	1.616	1773249	WORD	n/a	wordpools/wordpool_categorized_EN.txt	PAPER	OfficeSupplies	2	14	[0, 0, 0]	n/a	catFR1	0	R1274T
1768.005	0.917	1774864	WORD_OFF	n/a	n/a	PAPER	n/a	2	14	[0, 0, 0]	n/a	catFR1	0	R1274T
1768.922	1.617	1775781	WORD	n/a	wordpools/wordpool_categorized_EN.txt	BANJO	Instruments	3	14	[0, 0, 0]	n/a	catFR1	0	R1274T
1770.539	0.784	1777398	WORD_OFF	n/a	n/a	BANJO	n/a	3	14	[0, 0, 0]	n/a	catFR1	0	R1274T
1771.323	1.616	1778182	WORD	n/a	wordpools/wordpool_categorized_EN.txt	TROMBONE	Instruments	4	14	[0, 0, 0]	n/a	catFR1	0	R1274T
1772.939	0.917	1779798	WORD_OFF	n/a	n/a	TROMBONE	n/a	4	14	[0, 0, 0]	n/a	catFR1	0	R1274T
1773.856	1.618	1780715	WORD	n/a	wordpools/wordpool_categorized_EN.txt	FOUNDATION	Building	5	14	[0, 0, 0]	n/a	catFR1	0	R1274T
1775.474	0.867	1782333	WORD_OFF	n/a	n/a	FOUNDATION	n/a	5	14	[0, 0, 0]	n/a	catFR1	0	R1274T
1776.341	1.616	1783200	WORD	n/a	wordpools/wordpool_categorized_EN.txt	HALLWAY	Building	6	14	[0, 0, 0]	n/a	catFR1	0	R1274T
1777.957	0.833	1784816	WORD_OFF	n/a	n/a	HALLWAY	n/a	6	14	[0, 0, 0]	n/a	catFR1	0	R1274T
1778.79	1.618	1785649	WORD	n/a	wordpools/wordpool_categorized_EN.txt	FLUTE	Instruments	7	14	[0, 0, 0]	n/a	catFR1	0	R1274T
1780.408	0.783	1787267	WORD_OFF	n/a	n/a	FLUTE	n/a	7	14	[0, 0, 0]	n/a	catFR1	0	R1274T
1781.191	1.617	1788050	WORD	n/a	wordpools/wordpool_categorized_EN.txt	GUITAR	Instruments	8	14	[0, 0, 0]	n/a	catFR1	0	R1274T
1782.808	0.8	1789667	WORD_OFF	n/a	n/a	GUITAR	n/a	8	14	[0, 0, 0]	n/a	catFR1	0	R1274T
1783.608	1.618	1790467	WORD	n/a	wordpools/wordpool_categorized_EN.txt	RULER	OfficeSupplies	9	14	[0, 0, 0]	n/a	catFR1	0	R1274T
1785.226	0.899	1792084	WORD_OFF	n/a	n/a	RULER	n/a	9	14	[0, 0, 0]	n/a	catFR1	0	R1274T
1786.125	1.617	1792983	WORD	n/a	wordpools/wordpool_categorized_EN.txt	BINDER	OfficeSupplies	10	14	[0, 0, 0]	n/a	catFR1	0	R1274T
1787.742	1.0	1794600	WORD_OFF	n/a	n/a	BINDER	n/a	10	14	[0, 0, 0]	n/a	catFR1	0	R1274T
1788.742	1.618	1795600	WORD	n/a	wordpools/wordpool_categorized_EN.txt	FLOOR	Building	11	14	[0, 0, 0]	n/a	catFR1	0	R1274T
1790.36	0.95	1797218	WORD_OFF	n/a	n/a	FLOOR	n/a	11	14	[0, 0, 0]	n/a	catFR1	0	R1274T
1791.31	1.616	1798168	WORD	n/a	wordpools/wordpool_categorized_EN.txt	CEILING	Building	12	14	[0, 0, 0]	n/a	catFR1	0	R1274T
1792.926	0.0	1799784	ENCODING_END	n/a	n/a	n/a	n/a	-999	14	[0, 0, 0]	n/a	catFR1	0	R1274T
1792.926	0.102	1799784	WORD_OFF	n/a	n/a	CEILING	n/a	12	14	[0, 0, 0]	n/a	catFR1	0	R1274T
1793.028	0.0	1799886	DISTRACT_START	n/a	n/a	n/a	n/a	-999	14	[0, 0, 0]	n/a	catFR1	0	R1274T
1793.028	0.015	1799886	START	n/a	n/a	n/a	n/a	-999	14	[-999, -999, -999]	n/a	catFR1	0	R1274T
1793.043	5.268	1799901	PROB	5.239	n/a	n/a	n/a	-999	14	[2, 6, 1]	9.0	catFR1	0	R1274T
1798.311	11.136	1805169	PROB	11.106	n/a	n/a	n/a	-999	14	[9, 2, 7]	18.0	catFR1	0	R1274T
1809.447	7.794	1816304	PROB	7.794	n/a	n/a	n/a	-999	14	[7, 1, 3]	11.0	catFR1	0	R1274T
1817.241	0.008	1824097	STOP	n/a	n/a	n/a	n/a	-999	14	[-999, -999, -999]	n/a	catFR1	0	R1274T
1817.249	0.598	1824105	DISTRACT_END	n/a	n/a	n/a	n/a	-999	14	[0, 0, 0]	n/a	catFR1	0	R1274T
1817.847	0.519	1824703	RETRIEVAL_ORIENT	n/a	n/a	n/a	n/a	-999	14	[0, 0, 0]	n/a	catFR1	0	R1274T
1818.366	1.687	1825222	REC_START	n/a	n/a	n/a	n/a	-999	14	[0, 0, 0]	n/a	catFR1	0	R1274T
1820.053	0.923	1826909	REC_WORD	1.687	n/a	ERASER	OfficeSupplies	1	14	[0, 0, 0]	n/a	catFR1	0	R1274T
1820.976	4.055	1827832	REC_WORD	2.61	n/a	PAPER	OfficeSupplies	2	14	[0, 0, 0]	n/a	catFR1	0	R1274T
1825.031	3.845	1831887	REC_WORD	6.665	n/a	NOTEBOOK	n/a	-999	14	[0, 0, 0]	n/a	catFR1	0	R1274T
1828.876	1.164	1835732	REC_WORD	10.51	n/a	PENCIL	n/a	-999	14	[0, 0, 0]	n/a	catFR1	0	R1274T
1830.04	0.9	1836896	REC_WORD_VV	11.674	n/a	<>	n/a	-999	14	[0, 0, 0]	n/a	catFR1	0	R1274T
1830.94	0.598	1837796	REC_WORD	12.574	n/a	PENCIL	n/a	-999	14	[0, 0, 0]	n/a	catFR1	0	R1274T
1831.538	16.838	1838394	REC_WORD	13.172	n/a	PAPER	OfficeSupplies	2	14	[0, 0, 0]	n/a	catFR1	0	R1274T
1848.376	24.298	1855231	REC_END	n/a	n/a	n/a	n/a	-999	14	[0, 0, 0]	n/a	catFR1	0	R1274T
1872.674	0.5	1879527	TRIAL	n/a	n/a	n/a	n/a	-999	15	[0, 0, 0]	n/a	catFR1	0	R1274T
1873.174	10.428	1880027	COUNTDOWN_START	n/a	n/a	n/a	n/a	-999	15	[0, 0, 0]	n/a	catFR1	0	R1274T
1883.602	0.007	1890454	COUNTDOWN_END	n/a	n/a	n/a	n/a	-999	15	[0, 0, 0]	n/a	catFR1	0	R1274T
1883.609	1.618	1890461	ORIENT	n/a	n/a	n/a	n/a	-999	15	[0, 0, 0]	n/a	catFR1	0	R1274T
1885.227	1.966	1892079	ORIENT_OFF	n/a	n/a	n/a	n/a	-999	15	[0, 0, 0]	n/a	catFR1	0	R1274T
1887.193	1.617	1894045	WORD	n/a	wordpools/wordpool_categorized_EN.txt	HURRICANE	Weather	1	15	[0, 0, 0]	n/a	catFR1	0	R1274T
1888.81	0.9	1895662	WORD_OFF	n/a	n/a	HURRICANE	n/a	1	15	[0, 0, 0]	n/a	catFR1	0	R1274T
1889.71	1.602	1896562	WORD	n/a	wordpools/wordpool_categorized_EN.txt	SNOW	Weather	2	15	[0, 0, 0]	n/a	catFR1	0	R1274T
1891.312	0.933	1898164	WORD_OFF	n/a	n/a	SNOW	n/a	2	15	[0, 0, 0]	n/a	catFR1	0	R1274T
1892.245	1.616	1899097	WORD	n/a	wordpools/wordpool_categorized_EN.txt	NOTEBOOK	OfficeSupplies	3	15	[0, 0, 0]	n/a	catFR1	0	R1274T
1893.861	0.967	1900713	WORD_OFF	n/a	n/a	NOTEBOOK	n/a	3	15	[0, 0, 0]	n/a	catFR1	0	R1274T
1894.828	1.601	1901680	WORD	n/a	wordpools/wordpool_categorized_EN.txt	MARKER	OfficeSupplies	4	15	[0, 0, 0]	n/a	catFR1	0	R1274T
1896.429	0.917	1903281	WORD_OFF	n/a	n/a	MARKER	n/a	4	15	[0, 0, 0]	n/a	catFR1	0	R1274T
1897.346	1.616	1904198	WORD	n/a	wordpools/wordpool_categorized_EN.txt	MILK	Beverages	5	15	[0, 0, 0]	n/a	catFR1	0	R1274T
1898.962	0.95	1905814	WORD_OFF	n/a	n/a	MILK	n/a	5	15	[0, 0, 0]	n/a	catFR1	0	R1274T
1899.912	1.617	1906763	WORD	n/a	wordpools/wordpool_categorized_EN.txt	CIDER	Beverages	6	15	[0, 0, 0]	n/a	catFR1	0	R1274T
1901.529	0.985	1908380	WORD_OFF	n/a	n/a	CIDER	n/a	6	15	[0, 0, 0]	n/a	catFR1	0	R1274T
1902.514	1.616	1909365	WORD	n/a	wordpools/wordpool_categorized_EN.txt	WIND	Weather	7	15	[0, 0, 0]	n/a	catFR1	0	R1274T
1904.13	0.85	1910981	WORD_OFF	n/a	n/a	WIND	n/a	7	15	[0, 0, 0]	n/a	catFR1	0	R1274T
1904.98	1.617	1911831	WORD	n/a	wordpools/wordpool_categorized_EN.txt	RAIN	Weather	8	15	[0, 0, 0]	n/a	catFR1	0	R1274T
1906.597	0.768	1913448	WORD_OFF	n/a	n/a	RAIN	n/a	8	15	[0, 0, 0]	n/a	catFR1	0	R1274T
1907.365	1.616	1914216	WORD	n/a	wordpools/wordpool_categorized_EN.txt	TAPE	OfficeSupplies	9	15	[0, 0, 0]	n/a	catFR1	0	R1274T
1908.981	0.783	1915832	WORD_OFF	n/a	n/a	TAPE	n/a	9	15	[0, 0, 0]	n/a	catFR1	0	R1274T
1909.764	1.618	1916615	WORD	n/a	wordpools/wordpool_categorized_EN.txt	STAPLER	OfficeSupplies	10	15	[0, 0, 0]	n/a	catFR1	0	R1274T
1911.382	0.95	1918233	WORD_OFF	n/a	n/a	STAPLER	n/a	10	15	[0, 0, 0]	n/a	catFR1	0	R1274T
1912.332	1.616	1919183	WORD	n/a	wordpools/wordpool_categorized_EN.txt	WINE	Beverages	11	15	[0, 0, 0]	n/a	catFR1	0	R1274T
1913.948	0.984	1920799	WORD_OFF	n/a	n/a	WINE	n/a	11	15	[0, 0, 0]	n/a	catFR1	0	R1274T
1914.932	1.617	1921783	WORD	n/a	wordpools/wordpool_categorized_EN.txt	SODA	Beverages	12	15	[0, 0, 0]	n/a	catFR1	0	R1274T
1916.549	0.0	1923399	WORD_OFF	n/a	n/a	SODA	n/a	12	15	[0, 0, 0]	n/a	catFR1	0	R1274T
1916.549	0.144	1923399	ENCODING_END	n/a	n/a	n/a	n/a	-999	15	[0, 0, 0]	n/a	catFR1	0	R1274T
1916.693	0.0	1923543	DISTRACT_START	n/a	n/a	n/a	n/a	-999	15	[0, 0, 0]	n/a	catFR1	0	R1274T
1916.693	0.022	1923543	START	n/a	n/a	n/a	n/a	-999	15	[-999, -999, -999]	n/a	catFR1	0	R1274T
1916.715	9.135	1923565	PROB	9.102	n/a	n/a	n/a	-999	15	[3, 4, 8]	15.0	catFR1	0	R1274T
1925.85	21.239	1932700	PROB	21.239	n/a	n/a	n/a	-999	15	[8, 9, 8]	25.0	catFR1	0	R1274T
1947.089	0.015	1953938	STOP	n/a	n/a	n/a	n/a	-999	15	[-999, -999, -999]	n/a	catFR1	0	R1274T
1947.104	0.634	1953953	DISTRACT_END	n/a	n/a	n/a	n/a	-999	15	[0, 0, 0]	n/a	catFR1	0	R1274T
1947.738	0.518	1954587	RETRIEVAL_ORIENT	n/a	n/a	n/a	n/a	-999	15	[0, 0, 0]	n/a	catFR1	0	R1274T
1948.256	2.328	1955105	REC_START	n/a	n/a	n/a	n/a	-999	15	[0, 0, 0]	n/a	catFR1	0	R1274T
1950.584	0.446	1957432	REC_WORD	2.328	n/a	WINE	Beverages	11	15	[0, 0, 0]	n/a	catFR1	0	R1274T
1951.03	0.202	1957878	REC_WORD_VV	2.774	n/a	<>	n/a	-999	15	[0, 0, 0]	n/a	catFR1	0	R1274T
1951.232	27.032	1958080	REC_WORD	2.976	n/a	CIDER	Beverages	6	15	[0, 0, 0]	n/a	catFR1	0	R1274T
1978.264	6.497	1985111	REC_END	n/a	n/a	n/a	n/a	-999	15	[0, 0, 0]	n/a	catFR1	0	R1274T
1984.761	0.5	1991607	TRIAL	n/a	n/a	n/a	n/a	-999	16	[0, 0, 0]	n/a	catFR1	0	R1274T
1985.261	10.428	1992107	COUNTDOWN_START	n/a	n/a	n/a	n/a	-999	16	[0, 0, 0]	n/a	catFR1	0	R1274T
1995.689	0.007	2002535	COUNTDOWN_END	n/a	n/a	n/a	n/a	-999	16	[0, 0, 0]	n/a	catFR1	0	R1274T
1995.696	1.618	2002542	ORIENT	n/a	n/a	n/a	n/a	-999	16	[0, 0, 0]	n/a	catFR1	0	R1274T
1997.314	2.001	2004160	ORIENT_OFF	n/a	n/a	n/a	n/a	-999	16	[0, 0, 0]	n/a	catFR1	0	R1274T
1999.315	1.616	2006160	WORD	n/a	wordpools/wordpool_categorized_EN.txt	ANT	Insects	1	16	[0, 0, 0]	n/a	catFR1	0	R1274T
2000.931	0.983	2007776	WORD_OFF	n/a	n/a	ANT	n/a	1	16	[0, 0, 0]	n/a	catFR1	0	R1274T
2001.914	1.602	2008759	WORD	n/a	wordpools/wordpool_categorized_EN.txt	CRICKET	Insects	2	16	[0, 0, 0]	n/a	catFR1	0	R1274T
2003.516	0.833	2010361	WORD_OFF	n/a	n/a	CRICKET	n/a	2	16	[0, 0, 0]	n/a	catFR1	0	R1274T
2004.349	1.616	2011194	WORD	n/a	wordpools/wordpool_categorized_EN.txt	SAW	Tools	3	16	[0, 0, 0]	n/a	catFR1	0	R1274T
2005.965	0.967	2012810	WORD_OFF	n/a	n/a	SAW	n/a	3	16	[0, 0, 0]	n/a	catFR1	0	R1274T
2006.932	1.617	2013777	WORD	n/a	wordpools/wordpool_categorized_EN.txt	SANDER	Tools	4	16	[0, 0, 0]	n/a	catFR1	0	R1274T
2008.549	0.768	2015394	WORD_OFF	n/a	n/a	SANDER	n/a	4	16	[0, 0, 0]	n/a	catFR1	0	R1274T
2009.317	1.616	2016162	WORD	n/a	wordpools/wordpool_categorized_EN.txt	SHOES	Clothing	5	16	[0, 0, 0]	n/a	catFR1	0	R1274T
2010.933	0.866	2017778	WORD_OFF	n/a	n/a	SHOES	n/a	5	16	[0, 0, 0]	n/a	catFR1	0	R1274T
2011.799	1.601	2018644	WORD	n/a	wordpools/wordpool_categorized_EN.txt	JEANS	Clothing	6	16	[0, 0, 0]	n/a	catFR1	0	R1274T
2013.4	0.917	2020245	WORD_OFF	n/a	n/a	JEANS	n/a	6	16	[0, 0, 0]	n/a	catFR1	0	R1274T
2014.317	1.616	2021161	WORD	n/a	wordpools/wordpool_categorized_EN.txt	SHOVEL	Tools	7	16	[0, 0, 0]	n/a	catFR1	0	R1274T
2015.933	0.801	2022777	WORD_OFF	n/a	n/a	SHOVEL	n/a	7	16	[0, 0, 0]	n/a	catFR1	0	R1274T
2016.734	1.618	2023578	WORD	n/a	wordpools/wordpool_categorized_EN.txt	WRENCH	Tools	8	16	[0, 0, 0]	n/a	catFR1	0	R1274T
2018.352	0.9	2025196	WORD_OFF	n/a	n/a	WRENCH	n/a	8	16	[0, 0, 0]	n/a	catFR1	0	R1274T
2019.252	1.616	2026096	WORD	n/a	wordpools/wordpool_categorized_EN.txt	BEETLE	Insects	9	16	[0, 0, 0]	n/a	catFR1	0	R1274T
2020.868	0.933	2027712	WORD_OFF	n/a	n/a	BEETLE	n/a	9	16	[0, 0, 0]	n/a	catFR1	0	R1274T
2021.801	1.618	2028645	WORD	n/a	wordpools/wordpool_categorized_EN.txt	LADYBUG	Insects	10	16	[0, 0, 0]	n/a	catFR1	0	R1274T
2023.419	0.783	2030263	WORD_OFF	n/a	n/a	LADYBUG	n/a	10	16	[0, 0, 0]	n/a	catFR1	0	R1274T
2024.202	1.617	2031046	WORD	n/a	wordpools/wordpool_categorized_EN.txt	SHIRT	Clothing	11	16	[0, 0, 0]	n/a	catFR1	0	R1274T
2025.819	0.883	2032663	WORD_OFF	n/a	n/a	SHIRT	n/a	11	16	[0, 0, 0]	n/a	catFR1	0	R1274T
2026.702	1.618	2033546	WORD	n/a	wordpools/wordpool_categorized_EN.txt	UNDERWEAR	Clothing	12	16	[0, 0, 0]	n/a	catFR1	0	R1274T
2028.32	0.0	2035164	ENCODING_END	n/a	n/a	n/a	n/a	-999	16	[0, 0, 0]	n/a	catFR1	0	R1274T
2028.32	0.105	2035164	WORD_OFF	n/a	n/a	UNDERWEAR	n/a	12	16	[0, 0, 0]	n/a	catFR1	0	R1274T
2028.425	0.0	2035269	DISTRACT_START	n/a	n/a	n/a	n/a	-999	16	[0, 0, 0]	n/a	catFR1	0	R1274T
2028.425	0.012	2035269	START	n/a	n/a	n/a	n/a	-999	16	[-999, -999, -999]	n/a	catFR1	0	R1274T
2028.437	8.25	2035281	PROB	8.211	n/a	n/a	n/a	-999	16	[4, 6, 7]	17.0	catFR1	0	R1274T
2036.687	20.41	2043530	PROB	20.41	n/a	n/a	n/a	-999	16	[6, 7, 8]	21.0	catFR1	0	R1274T
2057.097	0.011	2063939	STOP	n/a	n/a	n/a	n/a	-999	16	[-999, -999, -999]	n/a	catFR1	0	R1274T
2057.108	0.65	2063950	DISTRACT_END	n/a	n/a	n/a	n/a	-999	16	[0, 0, 0]	n/a	catFR1	0	R1274T
2057.758	0.519	2064600	RETRIEVAL_ORIENT	n/a	n/a	n/a	n/a	-999	16	[0, 0, 0]	n/a	catFR1	0	R1274T
2058.277	2.07	2065119	REC_START	n/a	n/a	n/a	n/a	-999	16	[0, 0, 0]	n/a	catFR1	0	R1274T
2060.347	1.593	2067189	REC_WORD	2.07	n/a	UNDERWEAR	Clothing	12	16	[0, 0, 0]	n/a	catFR1	0	R1274T
2061.94	0.979	2068782	REC_WORD	3.663	n/a	ANTS	n/a	-999	16	[0, 0, 0]	n/a	catFR1	0	R1274T
2062.919	25.367	2069761	REC_WORD	4.642	n/a	BEESWAX	n/a	-999	16	[0, 0, 0]	n/a	catFR1	0	R1274T
2088.286	6.996	2095126	REC_END	n/a	n/a	n/a	n/a	-999	16	[0, 0, 0]	n/a	catFR1	0	R1274T
2095.282	0.5	2102122	TRIAL	n/a	n/a	n/a	n/a	-999	17	[0, 0, 0]	n/a	catFR1	0	R1274T
2095.782	10.428	2102622	COUNTDOWN_START	n/a	n/a	n/a	n/a	-999	17	[0, 0, 0]	n/a	catFR1	0	R1274T
2106.21	0.008	2113049	COUNTDOWN_END	n/a	n/a	n/a	n/a	-999	17	[0, 0, 0]	n/a	catFR1	0	R1274T
2106.218	1.616	2113057	ORIENT	n/a	n/a	n/a	n/a	-999	17	[0, 0, 0]	n/a	catFR1	0	R1274T
2107.834	1.95	2114673	ORIENT_OFF	n/a	n/a	n/a	n/a	-999	17	[0, 0, 0]	n/a	catFR1	0	R1274T
2109.784	1.618	2116623	WORD	n/a	wordpools/wordpool_categorized_EN.txt	SPIDER	Insects	1	17	[0, 0, 0]	n/a	catFR1	0	R1274T
2111.402	0.983	2118241	WORD_OFF	n/a	n/a	SPIDER	n/a	1	17	[0, 0, 0]	n/a	catFR1	0	R1274T
2112.385	1.616	2119224	WORD	n/a	wordpools/wordpool_categorized_EN.txt	BEE	Insects	2	17	[0, 0, 0]	n/a	catFR1	0	R1274T
2114.001	0.767	2120839	WORD_OFF	n/a	n/a	BEE	n/a	2	17	[0, 0, 0]	n/a	catFR1	0	R1274T
2114.768	1.601	2121606	WORD	n/a	wordpools/wordpool_categorized_EN.txt	FISH	OceanAnimals	3	17	[0, 0, 0]	n/a	catFR1	0	R1274T
2116.369	0.8	2123207	WORD_OFF	n/a	n/a	FISH	n/a	3	17	[0, 0, 0]	n/a	catFR1	0	R1274T
2117.169	1.617	2124007	WORD	n/a	wordpools/wordpool_categorized_EN.txt	PLANKTON	OceanAnimals	4	17	[0, 0, 0]	n/a	catFR1	0	R1274T
2118.786	0.933	2125624	WORD_OFF	n/a	n/a	PLANKTON	n/a	4	17	[0, 0, 0]	n/a	catFR1	0	R1274T
2119.719	1.618	2126557	WORD	n/a	wordpools/wordpool_categorized_EN.txt	GORILLA	Zoo	5	17	[0, 0, 0]	n/a	catFR1	0	R1274T
2121.337	0.783	2128175	WORD_OFF	n/a	n/a	GORILLA	n/a	5	17	[0, 0, 0]	n/a	catFR1	0	R1274T
2122.12	1.617	2128958	WORD	n/a	wordpools/wordpool_categorized_EN.txt	MONKEY	Zoo	6	17	[0, 0, 0]	n/a	catFR1	0	R1274T
2123.737	0.966	2130575	WORD_OFF	n/a	n/a	MONKEY	n/a	6	17	[0, 0, 0]	n/a	catFR1	0	R1274T
2124.703	1.601	2131541	WORD	n/a	wordpools/wordpool_categorized_EN.txt	DOLPHIN	OceanAnimals	7	17	[0, 0, 0]	n/a	catFR1	0	R1274T
2126.304	0.8	2133142	WORD_OFF	n/a	n/a	DOLPHIN	n/a	7	17	[0, 0, 0]	n/a	catFR1	0	R1274T
2127.104	1.617	2133942	WORD	n/a	wordpools/wordpool_categorized_EN.txt	OYSTER	OceanAnimals	8	17	[0, 0, 0]	n/a	catFR1	0	R1274T
2128.721	0.933	2135559	WORD_OFF	n/a	n/a	OYSTER	n/a	8	17	[0, 0, 0]	n/a	catFR1	0	R1274T
2129.654	1.618	2136491	WORD	n/a	wordpools/wordpool_categorized_EN.txt	MOSQUITO	Insects	9	17	[0, 0, 0]	n/a	catFR1	0	R1274T
2131.272	0.95	2138109	WORD_OFF	n/a	n/a	MOSQUITO	n/a	9	17	[0, 0, 0]	n/a	catFR1	0	R1274T
2132.222	1.616	2139059	WORD	n/a	wordpools/wordpool_categorized_EN.txt	FLY	Insects	10	17	[0, 0, 0]	n/a	catFR1	0	R1274T
2133.838	0.867	2140675	WORD_OFF	n/a	n/a	FLY	n/a	10	17	[0, 0, 0]	n/a	catFR1	0	R1274T
2134.705	1.618	2141542	WORD	n/a	wordpools/wordpool_categorized_EN.txt	ZEBRA	Zoo	11	17	[0, 0, 0]	n/a	catFR1	0	R1274T
2136.323	0.917	2143160	WORD_OFF	n/a	n/a	ZEBRA	n/a	11	17	[0, 0, 0]	n/a	catFR1	0	R1274T
2137.24	1.616	2144077	WORD	n/a	wordpools/wordpool_categorized_EN.txt	CHEETAH	Zoo	12	17	[0, 0, 0]	n/a	catFR1	0	R1274T
2138.856	0.0	2145693	ENCODING_END	n/a	n/a	n/a	n/a	-999	17	[0, 0, 0]	n/a	catFR1	0	R1274T
2138.856	0.102	2145693	WORD_OFF	n/a	n/a	CHEETAH	n/a	12	17	[0, 0, 0]	n/a	catFR1	0	R1274T
2138.958	0.001	2145795	DISTRACT_START	n/a	n/a	n/a	n/a	-999	17	[0, 0, 0]	n/a	catFR1	0	R1274T
2138.959	0.014	2145796	START	n/a	n/a	n/a	n/a	-999	17	[-999, -999, -999]	n/a	catFR1	0	R1274T
2138.973	8.118	2145810	PROB	8.092	n/a	n/a	n/a	-999	17	[8, 3, 5]	16.0	catFR1	0	R1274T
2147.091	5.268	2153927	PROB	5.237	n/a	n/a	n/a	-999	17	[6, 6, 5]	17.0	catFR1	0	R1274T
2152.359	4.333	2159195	PROB	4.296	n/a	n/a	n/a	-999	17	[3, 2, 2]	7.0	catFR1	0	R1274T
2156.692	15.004	2163528	PROB	15.004	n/a	n/a	n/a	-999	17	[3, 4, 5]	13.0	catFR1	0	R1274T
2171.696	0.016	2178531	STOP	n/a	n/a	n/a	n/a	-999	17	[-999, -999, -999]	n/a	catFR1	0	R1274T
2171.712	0.534	2178547	DISTRACT_END	n/a	n/a	n/a	n/a	-999	17	[0, 0, 0]	n/a	catFR1	0	R1274T
2172.246	0.517	2179081	RETRIEVAL_ORIENT	n/a	n/a	n/a	n/a	-999	17	[0, 0, 0]	n/a	catFR1	0	R1274T
2172.763	1.658	2179598	REC_START	n/a	n/a	n/a	n/a	-999	17	[0, 0, 0]	n/a	catFR1	0	R1274T
2174.421	1.006	2181256	REC_WORD	1.658	n/a	GORILLA	Zoo	5	17	[0, 0, 0]	n/a	catFR1	0	R1274T
2175.427	1.583	2182262	REC_WORD	2.664	n/a	MONKEY	Zoo	6	17	[0, 0, 0]	n/a	catFR1	0	R1274T
2177.01	1.662	2183845	REC_WORD	4.247	n/a	ZEBRA	Zoo	11	17	[0, 0, 0]	n/a	catFR1	0	R1274T
2178.672	8.854	2185506	REC_WORD	5.909	n/a	CHEETAH	Zoo	12	17	[0, 0, 0]	n/a	catFR1	0	R1274T
2187.526	15.248	2194360	REC_WORD	14.763	n/a	ELEPHANT	n/a	-999	17	[0, 0, 0]	n/a	catFR1	0	R1274T
2202.774	9.229	2209607	REC_END	n/a	n/a	n/a	n/a	-999	17	[0, 0, 0]	n/a	catFR1	0	R1274T
2212.003	0.5	2218835	TRIAL	n/a	n/a	n/a	n/a	-999	18	[0, 0, 0]	n/a	catFR1	0	R1274T
2212.503	10.428	2219335	COUNTDOWN_START	n/a	n/a	n/a	n/a	-999	18	[0, 0, 0]	n/a	catFR1	0	R1274T
2222.931	0.007	2229763	COUNTDOWN_END	n/a	n/a	n/a	n/a	-999	18	[0, 0, 0]	n/a	catFR1	0	R1274T
2222.938	1.617	2229770	ORIENT	n/a	n/a	n/a	n/a	-999	18	[0, 0, 0]	n/a	catFR1	0	R1274T
2224.555	2.0	2231387	ORIENT_OFF	n/a	n/a	n/a	n/a	-999	18	[0, 0, 0]	n/a	catFR1	0	R1274T
2226.555	1.617	2233387	WORD	n/a	wordpools/wordpool_categorized_EN.txt	FRISBEE	Toys	1	18	[0, 0, 0]	n/a	catFR1	0	R1274T
2228.172	1.0	2235003	WORD_OFF	n/a	n/a	FRISBEE	n/a	1	18	[0, 0, 0]	n/a	catFR1	0	R1274T
2229.172	1.617	2236003	WORD	n/a	wordpools/wordpool_categorized_EN.txt	BASKETBALL	Toys	2	18	[0, 0, 0]	n/a	catFR1	0	R1274T
2230.789	0.901	2237620	WORD_OFF	n/a	n/a	BASKETBALL	n/a	2	18	[0, 0, 0]	n/a	catFR1	0	R1274T
2231.69	1.617	2238521	WORD	n/a	wordpools/wordpool_categorized_EN.txt	RADIO	Electronics	3	18	[0, 0, 0]	n/a	catFR1	0	R1274T
2233.307	0.816	2240138	WORD_OFF	n/a	n/a	RADIO	n/a	3	18	[0, 0, 0]	n/a	catFR1	0	R1274T
2234.123	1.617	2240954	WORD	n/a	wordpools/wordpool_categorized_EN.txt	SCANNER	Electronics	4	18	[0, 0, 0]	n/a	catFR1	0	R1274T
2235.74	0.8	2242571	WORD_OFF	n/a	n/a	SCANNER	n/a	4	18	[0, 0, 0]	n/a	catFR1	0	R1274T
2236.54	1.617	2243371	WORD	n/a	wordpools/wordpool_categorized_EN.txt	OAK	Trees	5	18	[0, 0, 0]	n/a	catFR1	0	R1274T
2238.157	0.9	2244988	WORD_OFF	n/a	n/a	OAK	n/a	5	18	[0, 0, 0]	n/a	catFR1	0	R1274T
2239.057	1.617	2245888	WORD	n/a	wordpools/wordpool_categorized_EN.txt	PINE	Trees	6	18	[0, 0, 0]	n/a	catFR1	0	R1274T
2240.674	0.951	2247505	WORD_OFF	n/a	n/a	PINE	n/a	6	18	[0, 0, 0]	n/a	catFR1	0	R1274T
2241.625	1.618	2248456	WORD	n/a	wordpools/wordpool_categorized_EN.txt	BALL	Toys	7	18	[0, 0, 0]	n/a	catFR1	0	R1274T
2243.243	0.965	2250074	WORD_OFF	n/a	n/a	BALL	n/a	7	18	[0, 0, 0]	n/a	catFR1	0	R1274T
2244.208	1.617	2251039	WORD	n/a	wordpools/wordpool_categorized_EN.txt	DOLLHOUSE	Toys	8	18	[0, 0, 0]	n/a	catFR1	0	R1274T
2245.825	0.85	2252655	WORD_OFF	n/a	n/a	DOLLHOUSE	n/a	8	18	[0, 0, 0]	n/a	catFR1	0	R1274T
2246.675	1.602	2253505	WORD	n/a	wordpools/wordpool_categorized_EN.txt	TABLET	Electronics	9	18	[0, 0, 0]	n/a	catFR1	0	R1274T
2248.277	0.967	2255107	WORD_OFF	n/a	n/a	TABLET	n/a	9	18	[0, 0, 0]	n/a	catFR1	0	R1274T
2249.244	1.616	2256074	WORD	n/a	wordpools/wordpool_categorized_EN.txt	PHONE	Electronics	10	18	[0, 0, 0]	n/a	catFR1	0	R1274T
2250.86	0.783	2257690	WORD_OFF	n/a	n/a	PHONE	n/a	10	18	[0, 0, 0]	n/a	catFR1	0	R1274T
2251.643	1.601	2258473	WORD	n/a	wordpools/wordpool_categorized_EN.txt	WALNUT	Trees	11	18	[0, 0, 0]	n/a	catFR1	0	R1274T
2253.244	0.933	2260074	WORD_OFF	n/a	n/a	WALNUT	n/a	11	18	[0, 0, 0]	n/a	catFR1	0	R1274T
2254.177	1.617	2261007	WORD	n/a	wordpools/wordpool_categorized_EN.txt	WILLOW	Trees	12	18	[0, 0, 0]	n/a	catFR1	0	R1274T
2255.794	0.0	2262624	ENCODING_END	n/a	n/a	n/a	n/a	-999	18	[0, 0, 0]	n/a	catFR1	0	R1274T
2255.794	0.133	2262624	WORD_OFF	n/a	n/a	WILLOW	n/a	12	18	[0, 0, 0]	n/a	catFR1	0	R1274T
2255.927	0.0	2262757	DISTRACT_START	n/a	n/a	n/a	n/a	-999	18	[0, 0, 0]	n/a	catFR1	0	R1274T
2255.927	0.017	2262757	START	n/a	n/a	n/a	n/a	-999	18	[-999, -999, -999]	n/a	catFR1	0	R1274T
2255.944	9.252	2262774	PROB	9.216	n/a	n/a	n/a	-999	18	[6, 1, 6]	13.0	catFR1	0	R1274T
2265.196	13.06	2272025	PROB	13.06	n/a	n/a	n/a	-999	18	[2, 5, 8]	15.0	catFR1	0	R1274T
2278.256	0.01	2285084	STOP	n/a	n/a	n/a	n/a	-999	18	[-999, -999, -999]	n/a	catFR1	0	R1274T
2278.266	0.615	2285094	DISTRACT_END	n/a	n/a	n/a	n/a	-999	18	[0, 0, 0]	n/a	catFR1	0	R1274T
2278.881	0.519	2285709	RETRIEVAL_ORIENT	n/a	n/a	n/a	n/a	-999	18	[0, 0, 0]	n/a	catFR1	0	R1274T
2279.4	2.286	2286228	REC_START	n/a	n/a	n/a	n/a	-999	18	[0, 0, 0]	n/a	catFR1	0	R1274T
2281.686	27.724	2288514	REC_WORD	2.286	n/a	TABLET	Electronics	9	18	[0, 0, 0]	n/a	catFR1	0	R1274T
2309.41	6.728	2316237	REC_END	n/a	n/a	n/a	n/a	-999	18	[0, 0, 0]	n/a	catFR1	0	R1274T
2316.138	0.5	2322964	TRIAL	n/a	n/a	n/a	n/a	-999	19	[0, 0, 0]	n/a	catFR1	0	R1274T
2316.638	10.428	2323464	COUNTDOWN_START	n/a	n/a	n/a	n/a	-999	19	[0, 0, 0]	n/a	catFR1	0	R1274T
2327.066	0.008	2333891	COUNTDOWN_END	n/a	n/a	n/a	n/a	-999	19	[0, 0, 0]	n/a	catFR1	0	R1274T
2327.074	1.617	2333899	ORIENT	n/a	n/a	n/a	n/a	-999	19	[0, 0, 0]	n/a	catFR1	0	R1274T
2328.691	1.983	2335516	ORIENT_OFF	n/a	n/a	n/a	n/a	-999	19	[0, 0, 0]	n/a	catFR1	0	R1274T
2330.674	1.618	2337499	WORD	n/a	wordpools/wordpool_categorized_EN.txt	TURKEY	FarmAnimals	1	19	[0, 0, 0]	n/a	catFR1	0	R1274T
2332.292	0.934	2339117	WORD_OFF	n/a	n/a	TURKEY	n/a	1	19	[0, 0, 0]	n/a	catFR1	0	R1274T
2333.226	1.616	2340051	WORD	n/a	wordpools/wordpool_categorized_EN.txt	ROOSTER	FarmAnimals	2	19	[0, 0, 0]	n/a	catFR1	0	R1274T
2334.842	0.783	2341667	WORD_OFF	n/a	n/a	ROOSTER	n/a	2	19	[0, 0, 0]	n/a	catFR1	0	R1274T
2335.625	1.618	2342450	WORD	n/a	wordpools/wordpool_categorized_EN.txt	LEG	BodyParts	3	19	[0, 0, 0]	n/a	catFR1	0	R1274T
2337.243	0.883	2344068	WORD_OFF	n/a	n/a	LEG	n/a	3	19	[0, 0, 0]	n/a	catFR1	0	R1274T
2338.126	1.617	2344951	WORD	n/a	wordpools/wordpool_categorized_EN.txt	ELBOW	BodyParts	4	19	[0, 0, 0]	n/a	catFR1	0	R1274T
2339.743	0.883	2346568	WORD_OFF	n/a	n/a	ELBOW	n/a	4	19	[0, 0, 0]	n/a	catFR1	0	R1274T
2340.626	1.618	2347451	WORD	n/a	wordpools/wordpool_categorized_EN.txt	DOLL	Toys	5	19	[0, 0, 0]	n/a	catFR1	0	R1274T
2342.244	0.866	2349069	WORD_OFF	n/a	n/a	DOLL	n/a	5	19	[0, 0, 0]	n/a	catFR1	0	R1274T
2343.11	1.617	2349934	WORD	n/a	wordpools/wordpool_categorized_EN.txt	SLINKY	Toys	6	19	[0, 0, 0]	n/a	catFR1	0	R1274T
2344.727	0.933	2351551	WORD_OFF	n/a	n/a	SLINKY	n/a	6	19	[0, 0, 0]	n/a	catFR1	0	R1274T
2345.66	1.618	2352484	WORD	n/a	wordpools/wordpool_categorized_EN.txt	NOSE	BodyParts	7	19	[0, 0, 0]	n/a	catFR1	0	R1274T
2347.278	0.833	2354102	WORD_OFF	n/a	n/a	NOSE	n/a	7	19	[0, 0, 0]	n/a	catFR1	0	R1274T
2348.111	1.617	2354935	WORD	n/a	wordpools/wordpool_categorized_EN.txt	FOOT	BodyParts	8	19	[0, 0, 0]	n/a	catFR1	0	R1274T
2349.728	0.967	2356552	WORD_OFF	n/a	n/a	FOOT	n/a	8	19	[0, 0, 0]	n/a	catFR1	0	R1274T
2350.695	1.617	2357519	WORD	n/a	wordpools/wordpool_categorized_EN.txt	CHICKEN	FarmAnimals	9	19	[0, 0, 0]	n/a	catFR1	0	R1274T
2352.312	0.783	2359136	WORD_OFF	n/a	n/a	CHICKEN	n/a	9	19	[0, 0, 0]	n/a	catFR1	0	R1274T
2353.095	1.617	2359919	WORD	n/a	wordpools/wordpool_categorized_EN.txt	LAMB	FarmAnimals	10	19	[0, 0, 0]	n/a	catFR1	0	R1274T
2354.712	0.9	2361536	WORD_OFF	n/a	n/a	LAMB	n/a	10	19	[0, 0, 0]	n/a	catFR1	0	R1274T
2355.612	1.618	2362436	WORD	n/a	wordpools/wordpool_categorized_EN.txt	MARBLES	Toys	11	19	[0, 0, 0]	n/a	catFR1	0	R1274T
2357.23	0.949	2364054	WORD_OFF	n/a	n/a	MARBLES	n/a	11	19	[0, 0, 0]	n/a	catFR1	0	R1274T
2358.179	1.617	2365003	WORD	n/a	wordpools/wordpool_categorized_EN.txt	BARBIE	Toys	12	19	[0, 0, 0]	n/a	catFR1	0	R1274T
2359.796	0.0	2366619	ENCODING_END	n/a	n/a	n/a	n/a	-999	19	[0, 0, 0]	n/a	catFR1	0	R1274T
2359.796	0.105	2366619	WORD_OFF	n/a	n/a	BARBIE	n/a	12	19	[0, 0, 0]	n/a	catFR1	0	R1274T
2359.901	0.0	2366724	DISTRACT_START	n/a	n/a	n/a	n/a	-999	19	[0, 0, 0]	n/a	catFR1	0	R1274T
2359.901	0.012	2366724	START	n/a	n/a	n/a	n/a	-999	19	[-999, -999, -999]	n/a	catFR1	0	R1274T
2359.913	7.768	2366736	PROB	7.736	n/a	n/a	n/a	-999	19	[3, 7, 5]	15.0	catFR1	0	R1274T
2367.681	4.117	2374504	PROB	4.087	n/a	n/a	n/a	-999	19	[2, 5, 2]	9.0	catFR1	0	R1274T
2371.798	4.519	2378621	PROB	4.492	n/a	n/a	n/a	-999	19	[1, 4, 2]	7.0	catFR1	0	R1274T
2376.317	7.947	2383139	PROB	7.947	n/a	n/a	n/a	-999	19	[2, 3, 9]	14.0	catFR1	0	R1274T
2384.264	0.021	2391086	STOP	n/a	n/a	n/a	n/a	-999	19	[-999, -999, -999]	n/a	catFR1	0	R1274T
2384.285	0.582	2391107	DISTRACT_END	n/a	n/a	n/a	n/a	-999	19	[0, 0, 0]	n/a	catFR1	0	R1274T
2384.867	0.519	2391689	RETRIEVAL_ORIENT	n/a	n/a	n/a	n/a	-999	19	[0, 0, 0]	n/a	catFR1	0	R1274T
2385.386	2.922	2392208	REC_START	n/a	n/a	n/a	n/a	-999	19	[0, 0, 0]	n/a	catFR1	0	R1274T
2388.308	27.088	2395130	REC_WORD	2.922	n/a	BASEBALL	n/a	-999	19	[0, 0, 0]	n/a	catFR1	0	R1274T
2415.396	11.646	2422216	REC_END	n/a	n/a	n/a	n/a	-999	19	[0, 0, 0]	n/a	catFR1	0	R1274T
2427.042	0.5	2433861	TRIAL	n/a	n/a	n/a	n/a	-999	20	[0, 0, 0]	n/a	catFR1	0	R1274T
2427.542	10.428	2434361	COUNTDOWN_START	n/a	n/a	n/a	n/a	-999	20	[0, 0, 0]	n/a	catFR1	0	R1274T
2437.97	0.007	2444789	COUNTDOWN_END	n/a	n/a	n/a	n/a	-999	20	[0, 0, 0]	n/a	catFR1	0	R1274T
2437.977	1.617	2444796	ORIENT	n/a	n/a	n/a	n/a	-999	20	[0, 0, 0]	n/a	catFR1	0	R1274T
2439.594	2.0	2446413	ORIENT_OFF	n/a	n/a	n/a	n/a	-999	20	[0, 0, 0]	n/a	catFR1	0	R1274T
2441.594	1.617	2448412	WORD	n/a	wordpools/wordpool_categorized_EN.txt	ROBIN	Birds	1	20	[0, 0, 0]	n/a	catFR1	0	R1274T
2443.211	1.018	2450029	WORD_OFF	n/a	n/a	ROBIN	n/a	1	20	[0, 0, 0]	n/a	catFR1	0	R1274T
2444.229	1.616	2451047	WORD	n/a	wordpools/wordpool_categorized_EN.txt	SPARROW	Birds	2	20	[0, 0, 0]	n/a	catFR1	0	R1274T
2445.845	0.834	2452663	WORD_OFF	n/a	n/a	SPARROW	n/a	2	20	[0, 0, 0]	n/a	catFR1	0	R1274T
2446.679	1.618	2453497	WORD	n/a	wordpools/wordpool_categorized_EN.txt	SCOOTER	Vehicles	3	20	[0, 0, 0]	n/a	catFR1	0	R1274T
2448.297	0.799	2455115	WORD_OFF	n/a	n/a	SCOOTER	n/a	3	20	[0, 0, 0]	n/a	catFR1	0	R1274T
2449.096	1.617	2455914	WORD	n/a	wordpools/wordpool_categorized_EN.txt	TRUCK	Vehicles	4	20	[0, 0, 0]	n/a	catFR1	0	R1274T
2450.713	0.9	2457531	WORD_OFF	n/a	n/a	TRUCK	n/a	4	20	[0, 0, 0]	n/a	catFR1	0	R1274T
2451.613	1.618	2458431	WORD	n/a	wordpools/wordpool_categorized_EN.txt	MOUNTAIN	Landscapes	5	20	[0, 0, 0]	n/a	catFR1	0	R1274T
2453.231	0.766	2460049	WORD_OFF	n/a	n/a	MOUNTAIN	n/a	5	20	[0, 0, 0]	n/a	catFR1	0	R1274T
2453.997	1.617	2460815	WORD	n/a	wordpools/wordpool_categorized_EN.txt	BEACH	Landscapes	6	20	[0, 0, 0]	n/a	catFR1	0	R1274T
2455.614	0.8	2462432	WORD_OFF	n/a	n/a	BEACH	n/a	6	20	[0, 0, 0]	n/a	catFR1	0	R1274T
2456.414	1.617	2463232	WORD	n/a	wordpools/wordpool_categorized_EN.txt	VAN	Vehicles	7	20	[0, 0, 0]	n/a	catFR1	0	R1274T
2458.031	0.867	2464848	WORD_OFF	n/a	n/a	VAN	n/a	7	20	[0, 0, 0]	n/a	catFR1	0	R1274T
2458.898	1.618	2465715	WORD	n/a	wordpools/wordpool_categorized_EN.txt	TRAIN	Vehicles	8	20	[0, 0, 0]	n/a	catFR1	0	R1274T
2460.516	0.983	2467333	WORD_OFF	n/a	n/a	TRAIN	n/a	8	20	[0, 0, 0]	n/a	catFR1	0	R1274T
2461.499	1.616	2468316	WORD	n/a	wordpools/wordpool_categorized_EN.txt	SEAGULL	Birds	9	20	[0, 0, 0]	n/a	catFR1	0	R1274T
2463.115	0.817	2469932	WORD_OFF	n/a	n/a	SEAGULL	n/a	9	20	[0, 0, 0]	n/a	catFR1	0	R1274T
2463.932	1.617	2470749	WORD	n/a	wordpools/wordpool_categorized_EN.txt	FINCH	Birds	10	20	[0, 0, 0]	n/a	catFR1	0	R1274T
2465.549	0.934	2472366	WORD_OFF	n/a	n/a	FINCH	n/a	10	20	[0, 0, 0]	n/a	catFR1	0	R1274T
2466.483	1.616	2473300	WORD	n/a	wordpools/wordpool_categorized_EN.txt	ISLAND	Landscapes	11	20	[0, 0, 0]	n/a	catFR1	0	R1274T
2468.099	0.867	2474916	WORD_OFF	n/a	n/a	ISLAND	n/a	11	20	[0, 0, 0]	n/a	catFR1	0	R1274T
2468.966	1.617	2475783	WORD	n/a	wordpools/wordpool_categorized_EN.txt	RIVER	Landscapes	12	20	[0, 0, 0]	n/a	catFR1	0	R1274T
2470.583	0.0	2477400	ENCODING_END	n/a	n/a	n/a	n/a	-999	20	[0, 0, 0]	n/a	catFR1	0	R1274T
2470.583	0.104	2477400	WORD_OFF	n/a	n/a	RIVER	n/a	12	20	[0, 0, 0]	n/a	catFR1	0	R1274T
2470.687	0.0	2477504	DISTRACT_START	n/a	n/a	n/a	n/a	-999	20	[0, 0, 0]	n/a	catFR1	0	R1274T
2470.687	0.013	2477504	START	n/a	n/a	n/a	n/a	-999	20	[-999, -999, -999]	n/a	catFR1	0	R1274T
2470.7	6.968	2477517	PROB	6.941	n/a	n/a	n/a	-999	20	[6, 2, 3]	11.0	catFR1	0	R1274T
2477.668	4.217	2484484	PROB	4.179	n/a	n/a	n/a	-999	20	[1, 4, 5]	10.0	catFR1	0	R1274T
2481.885	6.536	2488701	PROB	6.5	n/a	n/a	n/a	-999	20	[8, 5, 6]	19.0	catFR1	0	R1274T
2488.421	11.3	2495237	PROB	11.3	n/a	n/a	n/a	-999	20	[1, 6, 1]	8.0	catFR1	0	R1274T
2499.721	0.018	2506536	STOP	n/a	n/a	n/a	n/a	-999	20	[-999, -999, -999]	n/a	catFR1	0	R1274T
2499.739	0.534	2506554	DISTRACT_END	n/a	n/a	n/a	n/a	-999	20	[0, 0, 0]	n/a	catFR1	0	R1274T
2500.273	0.516	2507088	RETRIEVAL_ORIENT	n/a	n/a	n/a	n/a	-999	20	[0, 0, 0]	n/a	catFR1	0	R1274T
2500.789	1.248	2507604	REC_START	n/a	n/a	n/a	n/a	-999	20	[0, 0, 0]	n/a	catFR1	0	R1274T
2502.037	28.763	2508852	REC_WORD	1.248	n/a	ISLAND	Landscapes	11	20	[0, 0, 0]	n/a	catFR1	0	R1274T
2530.8	23.898	2537613	REC_END	n/a	n/a	n/a	n/a	-999	20	[0, 0, 0]	n/a	catFR1	0	R1274T
2554.698	0.5	2561510	TRIAL	n/a	n/a	n/a	n/a	-999	21	[0, 0, 0]	n/a	catFR1	0	R1274T
2555.198	10.428	2562010	COUNTDOWN_START	n/a	n/a	n/a	n/a	-999	21	[0, 0, 0]	n/a	catFR1	0	R1274T
2565.626	0.008	2572437	COUNTDOWN_END	n/a	n/a	n/a	n/a	-999	21	[0, 0, 0]	n/a	catFR1	0	R1274T
2565.634	1.601	2572445	ORIENT	n/a	n/a	n/a	n/a	-999	21	[0, 0, 0]	n/a	catFR1	0	R1274T
2567.235	2.2	2574046	ORIENT_OFF	n/a	n/a	n/a	n/a	-999	21	[0, 0, 0]	n/a	catFR1	0	R1274T
2569.435	1.616	2576246	WORD	n/a	wordpools/wordpool_categorized_EN.txt	COOKIE	Desserts	1	21	[0, 0, 0]	n/a	catFR1	0	R1274T
2571.051	0.817	2577862	WORD_OFF	n/a	n/a	COOKIE	n/a	1	21	[0, 0, 0]	n/a	catFR1	0	R1274T
2571.868	1.618	2578679	WORD	n/a	wordpools/wordpool_categorized_EN.txt	COBBLER	Desserts	2	21	[0, 0, 0]	n/a	catFR1	0	R1274T
2573.486	0.867	2580296	WORD_OFF	n/a	n/a	COBBLER	n/a	2	21	[0, 0, 0]	n/a	catFR1	0	R1274T
2574.353	1.616	2581163	WORD	n/a	wordpools/wordpool_categorized_EN.txt	DAISY	Flowers	3	21	[0, 0, 0]	n/a	catFR1	0	R1274T
2575.969	0.8	2582779	WORD_OFF	n/a	n/a	DAISY	n/a	3	21	[0, 0, 0]	n/a	catFR1	0	R1274T
2576.769	1.618	2583579	WORD	n/a	wordpools/wordpool_categorized_EN.txt	MARIGOLD	Flowers	4	21	[0, 0, 0]	n/a	catFR1	0	R1274T
2578.387	0.95	2585197	WORD_OFF	n/a	n/a	MARIGOLD	n/a	4	21	[0, 0, 0]	n/a	catFR1	0	R1274T
2579.337	1.616	2586147	WORD	n/a	wordpools/wordpool_categorized_EN.txt	STRAINER	KitchenTools	5	21	[0, 0, 0]	n/a	catFR1	0	R1274T
2580.953	0.8	2587763	WORD_OFF	n/a	n/a	STRAINER	n/a	5	21	[0, 0, 0]	n/a	catFR1	0	R1274T
2581.753	1.618	2588563	WORD	n/a	wordpools/wordpool_categorized_EN.txt	KNIFE	KitchenTools	6	21	[0, 0, 0]	n/a	catFR1	0	R1274T
2583.371	0.917	2590181	WORD_OFF	n/a	n/a	KNIFE	n/a	6	21	[0, 0, 0]	n/a	catFR1	0	R1274T
2584.288	1.616	2591098	WORD	n/a	wordpools/wordpool_categorized_EN.txt	PETUNIA	Flowers	7	21	[0, 0, 0]	n/a	catFR1	0	R1274T
2585.904	0.867	2592714	WORD_OFF	n/a	n/a	PETUNIA	n/a	7	21	[0, 0, 0]	n/a	catFR1	0	R1274T
2586.771	1.618	2593581	WORD	n/a	wordpools/wordpool_categorized_EN.txt	ORCHID	Flowers	8	21	[0, 0, 0]	n/a	catFR1	0	R1274T
2588.389	0.799	2595199	WORD_OFF	n/a	n/a	ORCHID	n/a	8	21	[0, 0, 0]	n/a	catFR1	0	R1274T
2589.188	1.617	2595998	WORD	n/a	wordpools/wordpool_categorized_EN.txt	BROWNIES	Desserts	9	21	[0, 0, 0]	n/a	catFR1	0	R1274T
2590.805	0.833	2597614	WORD_OFF	n/a	n/a	BROWNIES	n/a	9	21	[0, 0, 0]	n/a	catFR1	0	R1274T
2591.638	1.602	2598447	WORD	n/a	wordpools/wordpool_categorized_EN.txt	MOUSSE	Desserts	10	21	[0, 0, 0]	n/a	catFR1	0	R1274T
2593.24	0.882	2600049	WORD_OFF	n/a	n/a	MOUSSE	n/a	10	21	[0, 0, 0]	n/a	catFR1	0	R1274T
2594.122	1.617	2600931	WORD	n/a	wordpools/wordpool_categorized_EN.txt	FORK	KitchenTools	11	21	[0, 0, 0]	n/a	catFR1	0	R1274T
2595.739	0.784	2602548	WORD_OFF	n/a	n/a	FORK	n/a	11	21	[0, 0, 0]	n/a	catFR1	0	R1274T
2596.523	1.617	2603332	WORD	n/a	wordpools/wordpool_categorized_EN.txt	GRATER	KitchenTools	12	21	[0, 0, 0]	n/a	catFR1	0	R1274T
2598.14	0.0	2604949	ENCODING_END	n/a	n/a	n/a	n/a	-999	21	[0, 0, 0]	n/a	catFR1	0	R1274T
2598.14	0.134	2604949	WORD_OFF	n/a	n/a	GRATER	n/a	12	21	[0, 0, 0]	n/a	catFR1	0	R1274T
2598.274	0.0	2605083	DISTRACT_START	n/a	n/a	n/a	n/a	-999	21	[0, 0, 0]	n/a	catFR1	0	R1274T
2598.274	0.017	2605083	START	n/a	n/a	n/a	n/a	-999	21	[-999, -999, -999]	n/a	catFR1	0	R1274T
2598.291	17.685	2605100	PROB	17.661	n/a	n/a	n/a	-999	21	[6, 6, 8]	20.0	catFR1	0	R1274T
2615.976	4.977	2622784	PROB	4.977	n/a	n/a	n/a	-999	21	[3, 5, 1]	9.0	catFR1	0	R1274T
2620.953	0.008	2627761	STOP	n/a	n/a	n/a	n/a	-999	21	[-999, -999, -999]	n/a	catFR1	0	R1274T
2620.961	0.534	2627769	DISTRACT_END	n/a	n/a	n/a	n/a	-999	21	[0, 0, 0]	n/a	catFR1	0	R1274T
2621.495	0.517	2628303	RETRIEVAL_ORIENT	n/a	n/a	n/a	n/a	-999	21	[0, 0, 0]	n/a	catFR1	0	R1274T
2622.012	3.202	2628820	REC_START	n/a	n/a	n/a	n/a	-999	21	[0, 0, 0]	n/a	catFR1	0	R1274T
2625.214	1.88	2632021	REC_WORD	3.202	n/a	MARIGOLD	Flowers	4	21	[0, 0, 0]	n/a	catFR1	0	R1274T
2627.094	0.819	2633901	REC_WORD_VV	5.082	n/a	<>	n/a	-999	21	[0, 0, 0]	n/a	catFR1	0	R1274T
2627.913	7.284	2634720	REC_WORD	5.901	n/a	IRIS	n/a	-999	21	[0, 0, 0]	n/a	catFR1	0	R1274T
2635.197	4.313	2642004	REC_WORD	13.185	n/a	EVERGREEN	n/a	-999	21	[0, 0, 0]	n/a	catFR1	0	R1274T
2639.51	12.51	2646316	REC_WORD	17.498	n/a	TREES	n/a	-999	21	[0, 0, 0]	n/a	catFR1	0	R1274T
2652.02	7.631	2658826	REC_END	n/a	n/a	n/a	n/a	-999	21	[0, 0, 0]	n/a	catFR1	0	R1274T
2659.651	0.5	2666456	TRIAL	n/a	n/a	n/a	n/a	-999	22	[0, 0, 0]	n/a	catFR1	0	R1274T
2660.151	10.428	2666956	COUNTDOWN_START	n/a	n/a	n/a	n/a	-999	22	[0, 0, 0]	n/a	catFR1	0	R1274T
2670.579	0.007	2677384	COUNTDOWN_END	n/a	n/a	n/a	n/a	-999	22	[0, 0, 0]	n/a	catFR1	0	R1274T
2670.586	1.617	2677391	ORIENT	n/a	n/a	n/a	n/a	-999	22	[0, 0, 0]	n/a	catFR1	0	R1274T
2672.203	1.95	2679007	ORIENT_OFF	n/a	n/a	n/a	n/a	-999	22	[0, 0, 0]	n/a	catFR1	0	R1274T
2674.153	1.618	2680957	WORD	n/a	wordpools/wordpool_categorized_EN.txt	CROW	Birds	1	22	[0, 0, 0]	n/a	catFR1	0	R1274T
2675.771	0.95	2682575	WORD_OFF	n/a	n/a	CROW	n/a	1	22	[0, 0, 0]	n/a	catFR1	0	R1274T
2676.721	1.618	2683525	WORD	n/a	wordpools/wordpool_categorized_EN.txt	GOOSE	Birds	2	22	[0, 0, 0]	n/a	catFR1	0	R1274T
2678.339	0.9	2685143	WORD_OFF	n/a	n/a	GOOSE	n/a	2	22	[0, 0, 0]	n/a	catFR1	0	R1274T
2679.239	1.616	2686043	WORD	n/a	wordpools/wordpool_categorized_EN.txt	FUDGE	Desserts	3	22	[0, 0, 0]	n/a	catFR1	0	R1274T
2680.855	0.983	2687659	WORD_OFF	n/a	n/a	FUDGE	n/a	3	22	[0, 0, 0]	n/a	catFR1	0	R1274T
2681.838	1.601	2688642	WORD	n/a	wordpools/wordpool_categorized_EN.txt	PASTRY	Desserts	4	22	[0, 0, 0]	n/a	catFR1	0	R1274T
2683.439	0.951	2690243	WORD_OFF	n/a	n/a	PASTRY	n/a	4	22	[0, 0, 0]	n/a	catFR1	0	R1274T
2684.39	1.616	2691194	WORD	n/a	wordpools/wordpool_categorized_EN.txt	SHELF	Furniture	5	22	[0, 0, 0]	n/a	catFR1	0	R1274T
2686.006	0.916	2692810	WORD_OFF	n/a	n/a	SHELF	n/a	5	22	[0, 0, 0]	n/a	catFR1	0	R1274T
2686.922	1.618	2693726	WORD	n/a	wordpools/wordpool_categorized_EN.txt	COUCH	Furniture	6	22	[0, 0, 0]	n/a	catFR1	0	R1274T
2688.54	0.867	2695343	WORD_OFF	n/a	n/a	COUCH	n/a	6	22	[0, 0, 0]	n/a	catFR1	0	R1274T
2689.407	1.616	2696210	WORD	n/a	wordpools/wordpool_categorized_EN.txt	PUDDING	Desserts	7	22	[0, 0, 0]	n/a	catFR1	0	R1274T
2691.023	0.867	2697826	WORD_OFF	n/a	n/a	PUDDING	n/a	7	22	[0, 0, 0]	n/a	catFR1	0	R1274T
2691.89	1.618	2698693	WORD	n/a	wordpools/wordpool_categorized_EN.txt	CUPCAKE	Desserts	8	22	[0, 0, 0]	n/a	catFR1	0	R1274T
2693.508	1.0	2700311	WORD_OFF	n/a	n/a	CUPCAKE	n/a	8	22	[0, 0, 0]	n/a	catFR1	0	R1274T
2694.508	1.616	2701311	WORD	n/a	wordpools/wordpool_categorized_EN.txt	PIGEON	Birds	9	22	[0, 0, 0]	n/a	catFR1	0	R1274T
2696.124	0.984	2702927	WORD_OFF	n/a	n/a	PIGEON	n/a	9	22	[0, 0, 0]	n/a	catFR1	0	R1274T
2697.108	1.617	2703911	WORD	n/a	wordpools/wordpool_categorized_EN.txt	DUCK	Birds	10	22	[0, 0, 0]	n/a	catFR1	0	R1274T
2698.725	0.833	2705528	WORD_OFF	n/a	n/a	DUCK	n/a	10	22	[0, 0, 0]	n/a	catFR1	0	R1274T
2699.558	1.617	2706361	WORD	n/a	wordpools/wordpool_categorized_EN.txt	CHAIR	Furniture	11	22	[0, 0, 0]	n/a	catFR1	0	R1274T
2701.175	0.817	2707978	WORD_OFF	n/a	n/a	CHAIR	n/a	11	22	[0, 0, 0]	n/a	catFR1	0	R1274T
2701.992	1.617	2708795	WORD	n/a	wordpools/wordpool_categorized_EN.txt	BED	Furniture	12	22	[0, 0, 0]	n/a	catFR1	0	R1274T
2703.609	0.0	2710412	ENCODING_END	n/a	n/a	n/a	n/a	-999	22	[0, 0, 0]	n/a	catFR1	0	R1274T
2703.609	0.103	2710412	WORD_OFF	n/a	n/a	BED	n/a	12	22	[0, 0, 0]	n/a	catFR1	0	R1274T
2703.712	0.0	2710515	DISTRACT_START	n/a	n/a	n/a	n/a	-999	22	[0, 0, 0]	n/a	catFR1	0	R1274T
2703.712	0.014	2710515	START	n/a	n/a	n/a	n/a	-999	22	[-999, -999, -999]	n/a	catFR1	0	R1274T
2703.726	6.201	2710529	PROB	6.17	n/a	n/a	n/a	-999	22	[3, 1, 4]	8.0	catFR1	0	R1274T
2709.927	28.386	2716729	PROB	28.386	n/a	n/a	n/a	-999	22	[5, 9, 8]	22.0	catFR1	0	R1274T
2738.313	0.02	2745113	STOP	n/a	n/a	n/a	n/a	-999	22	[-999, -999, -999]	n/a	catFR1	0	R1274T
2738.333	0.532	2745133	DISTRACT_END	n/a	n/a	n/a	n/a	-999	22	[0, 0, 0]	n/a	catFR1	0	R1274T
2738.865	0.519	2745665	RETRIEVAL_ORIENT	n/a	n/a	n/a	n/a	-999	22	[0, 0, 0]	n/a	catFR1	0	R1274T
2739.384	4.788	2746184	REC_START	n/a	n/a	n/a	n/a	-999	22	[0, 0, 0]	n/a	catFR1	0	R1274T
2744.172	2.286	2750972	REC_WORD	4.788	n/a	BAKERY	n/a	-999	22	[0, 0, 0]	n/a	catFR1	0	R1274T
2746.458	5.54	2753258	REC_WORD	7.074	n/a	WINE	n/a	-999	22	[0, 0, 0]	n/a	catFR1	0	R1274T
2751.998	2.651	2758798	REC_WORD	12.614	n/a	PUDDING	Desserts	7	22	[0, 0, 0]	n/a	catFR1	0	R1274T
2754.649	1.32	2761448	REC_WORD	15.265	n/a	FUDGE	Desserts	3	22	[0, 0, 0]	n/a	catFR1	0	R1274T
2755.969	5.158	2762768	REC_WORD	16.585	n/a	BROWNIES	n/a	-999	22	[0, 0, 0]	n/a	catFR1	0	R1274T
2761.127	2.788	2767926	REC_WORD	21.743	n/a	BREAD	n/a	-999	22	[0, 0, 0]	n/a	catFR1	0	R1274T
2763.915	5.477	2770714	REC_WORD	24.531	n/a	SERVINGS	n/a	-999	22	[0, 0, 0]	n/a	catFR1	0	R1274T
2769.392	11.932	2776191	REC_END	n/a	n/a	n/a	n/a	-999	22	[0, 0, 0]	n/a	catFR1	0	R1274T
2781.324	0.5	2788122	TRIAL	n/a	n/a	n/a	n/a	-999	23	[0, 0, 0]	n/a	catFR1	0	R1274T
2781.824	10.428	2788622	COUNTDOWN_START	n/a	n/a	n/a	n/a	-999	23	[0, 0, 0]	n/a	catFR1	0	R1274T
2792.252	0.007	2799049	COUNTDOWN_END	n/a	n/a	n/a	n/a	-999	23	[0, 0, 0]	n/a	catFR1	0	R1274T
2792.259	1.616	2799056	ORIENT	n/a	n/a	n/a	n/a	-999	23	[0, 0, 0]	n/a	catFR1	0	R1274T
2793.875	2.117	2800672	ORIENT_OFF	n/a	n/a	n/a	n/a	-999	23	[0, 0, 0]	n/a	catFR1	0	R1274T
2795.992	1.617	2802789	WORD	n/a	wordpools/wordpool_categorized_EN.txt	SPOON	KitchenTools	1	23	[0, 0, 0]	n/a	catFR1	0	R1274T
2797.609	0.885	2804406	WORD_OFF	n/a	n/a	SPOON	n/a	1	23	[0, 0, 0]	n/a	catFR1	0	R1274T
2798.494	1.616	2805291	WORD	n/a	wordpools/wordpool_categorized_EN.txt	TONGS	KitchenTools	2	23	[0, 0, 0]	n/a	catFR1	0	R1274T
2800.11	0.85	2806907	WORD_OFF	n/a	n/a	TONGS	n/a	2	23	[0, 0, 0]	n/a	catFR1	0	R1274T
2800.96	1.617	2807757	WORD	n/a	wordpools/wordpool_categorized_EN.txt	SOFA	Furniture	3	23	[0, 0, 0]	n/a	catFR1	0	R1274T
2802.577	0.884	2809374	WORD_OFF	n/a	n/a	SOFA	n/a	3	23	[0, 0, 0]	n/a	catFR1	0	R1274T
2803.461	1.616	2810257	WORD	n/a	wordpools/wordpool_categorized_EN.txt	CABINET	Furniture	4	23	[0, 0, 0]	n/a	catFR1	0	R1274T
2805.077	0.784	2811873	WORD_OFF	n/a	n/a	CABINET	n/a	4	23	[0, 0, 0]	n/a	catFR1	0	R1274T
2805.861	1.618	2812657	WORD	n/a	wordpools/wordpool_categorized_EN.txt	BOAT	Vehicles	5	23	[0, 0, 0]	n/a	catFR1	0	R1274T
2807.479	0.967	2814275	WORD_OFF	n/a	n/a	BOAT	n/a	5	23	[0, 0, 0]	n/a	catFR1	0	R1274T
2808.446	1.616	2815242	WORD	n/a	wordpools/wordpool_categorized_EN.txt	MOTORCYCLE	Vehicles	6	23	[0, 0, 0]	n/a	catFR1	0	R1274T
2810.062	0.85	2816858	WORD_OFF	n/a	n/a	MOTORCYCLE	n/a	6	23	[0, 0, 0]	n/a	catFR1	0	R1274T
2810.912	1.617	2817708	WORD	n/a	wordpools/wordpool_categorized_EN.txt	WHISK	KitchenTools	7	23	[0, 0, 0]	n/a	catFR1	0	R1274T
2812.529	0.934	2819325	WORD_OFF	n/a	n/a	WHISK	n/a	7	23	[0, 0, 0]	n/a	catFR1	0	R1274T
2813.463	1.616	2820259	WORD	n/a	wordpools/wordpool_categorized_EN.txt	CORKSCREW	KitchenTools	8	23	[0, 0, 0]	n/a	catFR1	0	R1274T
2815.079	0.9	2821875	WORD_OFF	n/a	n/a	CORKSCREW	n/a	8	23	[0, 0, 0]	n/a	catFR1	0	R1274T
2815.979	1.617	2822775	WORD	n/a	wordpools/wordpool_categorized_EN.txt	DRESSER	Furniture	9	23	[0, 0, 0]	n/a	catFR1	0	R1274T
2817.596	0.951	2824392	WORD_OFF	n/a	n/a	DRESSER	n/a	9	23	[0, 0, 0]	n/a	catFR1	0	R1274T
2818.547	1.616	2825343	WORD	n/a	wordpools/wordpool_categorized_EN.txt	TABLE	Furniture	10	23	[0, 0, 0]	n/a	catFR1	0	R1274T
2820.163	0.817	2826958	WORD_OFF	n/a	n/a	TABLE	n/a	10	23	[0, 0, 0]	n/a	catFR1	0	R1274T
2820.98	1.617	2827775	WORD	n/a	wordpools/wordpool_categorized_EN.txt	BIKE	Vehicles	11	23	[0, 0, 0]	n/a	catFR1	0	R1274T
2822.597	0.901	2829392	WORD_OFF	n/a	n/a	BIKE	n/a	11	23	[0, 0, 0]	n/a	catFR1	0	R1274T
2823.498	1.616	2830293	WORD	n/a	wordpools/wordpool_categorized_EN.txt	CAR	Vehicles	12	23	[0, 0, 0]	n/a	catFR1	0	R1274T
2825.114	0.001	2831909	WORD_OFF	n/a	n/a	CAR	n/a	12	23	[0, 0, 0]	n/a	catFR1	0	R1274T
2825.115	0.102	2831910	ENCODING_END	n/a	n/a	n/a	n/a	-999	23	[0, 0, 0]	n/a	catFR1	0	R1274T
2825.217	0.0	2832012	DISTRACT_START	n/a	n/a	n/a	n/a	-999	23	[0, 0, 0]	n/a	catFR1	0	R1274T
2825.217	0.015	2832012	START	n/a	n/a	n/a	n/a	-999	23	[-999, -999, -999]	n/a	catFR1	0	R1274T
2825.232	4.4	2832027	PROB	4.368	n/a	n/a	n/a	-999	23	[2, 2, 2]	6.0	catFR1	0	R1274T
2829.632	7.118	2836427	PROB	7.08	n/a	n/a	n/a	-999	23	[7, 1, 4]	12.0	catFR1	0	R1274T
2836.75	15.515	2843544	PROB	15.515	n/a	n/a	n/a	-999	23	[7, 8, 2]	17.0	catFR1	0	R1274T
2852.265	0.005	2859059	STOP	n/a	n/a	n/a	n/a	-999	23	[-999, -999, -999]	n/a	catFR1	0	R1274T
