onset	duration	sample	trial_type	response_time	stim_file	item_name	category	serialpos	list	test	answer	experiment	session	subject
0.0	10.929	568473	INSTRUCT_START	n/a	n/a	n/a	n/a	-999	-999	[0, 0, 0]	n/a	catFR1	5	R1662S
10.929	25.639	579396	INSTRUCT_END	n/a	n/a	n/a	n/a	-999	-999	[0, 0, 0]	n/a	catFR1	5	R1662S
36.568	10.351	605038	COUNTDOWN_START	n/a	n/a	n/a	n/a	-999	-999	[0, 0, 0]	n/a	catFR1	5	R1662S
46.919	0.001	615397	COUNTDOWN_END	n/a	n/a	n/a	n/a	-999	-999	[0, 0, 0]	n/a	catFR1	5	R1662S
46.92	1.935	615397	ENCODING_START	n/a	n/a	n/a	n/a	-999	-1	[0, 0, 0]	n/a	catFR1	5	R1662S
48.855	1.597	617323	WORD	n/a	n/a	OCEAN	Landscapes	1	-1	[0, 0, 0]	n/a	catFR1	5	R1662S
50.452	0.766	618926	WORD_OFF	n/a	n/a	OCEAN	Landscapes	1	-1	[0, 0, 0]	n/a	catFR1	5	R1662S
51.218	1.6	619699	WORD	n/a	n/a	ISLAND	Landscapes	2	-1	[0, 0, 0]	n/a	catFR1	5	R1662S
52.818	0.852	621291	WORD_OFF	n/a	n/a	ISLAND	Landscapes	2	-1	[0, 0, 0]	n/a	catFR1	5	R1662S
53.67	1.606	622145	WORD	n/a	n/a	CHAIR	Furniture	3	-1	[0, 0, 0]	n/a	catFR1	5	R1662S
55.276	0.941	623748	WORD_OFF	n/a	n/a	CHAIR	Furniture	3	-1	[0, 0, 0]	n/a	catFR1	5	R1662S
56.217	1.601	624694	WORD	n/a	n/a	SOFA	Furniture	4	-1	[0, 0, 0]	n/a	catFR1	5	R1662S
57.818	0.984	626297	WORD_OFF	n/a	n/a	SOFA	Furniture	4	-1	[0, 0, 0]	n/a	catFR1	5	R1662S
58.802	1.608	627278	WORD	n/a	n/a	SOCKS	Clothing	5	-1	[0, 0, 0]	n/a	catFR1	5	R1662S
60.41	0.916	628881	WORD_OFF	n/a	n/a	SOCKS	Clothing	5	-1	[0, 0, 0]	n/a	catFR1	5	R1662S
61.326	1.601	629804	WORD	n/a	n/a	COAT	Clothing	6	-1	[0, 0, 0]	n/a	catFR1	5	R1662S
62.927	0.858	631396	WORD_OFF	n/a	n/a	COAT	Clothing	6	-1	[0, 0, 0]	n/a	catFR1	5	R1662S
63.785	1.609	632261	WORD	n/a	n/a	DESK	Furniture	7	-1	[0, 0, 0]	n/a	catFR1	5	R1662S
65.394	0.774	633864	WORD_OFF	n/a	n/a	DESK	Furniture	7	-1	[0, 0, 0]	n/a	catFR1	5	R1662S
66.168	1.6	634637	WORD	n/a	n/a	BED	Furniture	8	-1	[0, 0, 0]	n/a	catFR1	5	R1662S
67.768	0.925	636240	WORD_OFF	n/a	n/a	BED	Furniture	8	-1	[0, 0, 0]	n/a	catFR1	5	R1662S
68.693	1.609	637163	WORD	n/a	n/a	JACKET	Clothing	9	-1	[0, 0, 0]	n/a	catFR1	5	R1662S
70.302	0.857	638778	WORD_OFF	n/a	n/a	JACKET	Clothing	9	-1	[0, 0, 0]	n/a	catFR1	5	R1662S
71.159	1.608	639631	WORD	n/a	n/a	SHORTS	Clothing	10	-1	[0, 0, 0]	n/a	catFR1	5	R1662S
72.767	0.977	641235	WORD_OFF	n/a	n/a	SHORTS	Clothing	10	-1	[0, 0, 0]	n/a	catFR1	5	R1662S
73.744	1.609	642215	WORD	n/a	n/a	STREAM	Landscapes	11	-1	[0, 0, 0]	n/a	catFR1	5	R1662S
75.353	0.807	643830	WORD_OFF	n/a	n/a	STREAM	Landscapes	11	-1	[0, 0, 0]	n/a	catFR1	5	R1662S
76.16	1.6	644638	WORD	n/a	n/a	CREEK	Landscapes	12	-1	[0, 0, 0]	n/a	catFR1	5	R1662S
77.76	0.004	646229	WORD_OFF	n/a	n/a	CREEK	Landscapes	12	-1	[0, 0, 0]	n/a	catFR1	5	R1662S
77.764	0.001	646233	START	n/a	n/a	n/a	n/a	-999	-1	[-999, -999, -999]	n/a	catFR1	5	R1662S
77.765	0.0	646234	PROB	9.848	n/a	n/a	n/a	-999	-1	[4, 5, 2]	11.0	catFR1	5	R1662S
77.764	0.0	646241	ENCODING_END	n/a	n/a	n/a	n/a	-999	-1	[0, 0, 0]	n/a	catFR1	5	R1662S
77.764	9.862	646241	DISTRACT_START	n/a	n/a	n/a	n/a	-999	-1	[0, 0, 0]	n/a	catFR1	5	R1662S
87.626	3.642	656095	PROB	3.633	n/a	n/a	n/a	-999	-1	[3, 7, 2]	12.0	catFR1	5	R1662S
91.268	4.934	659737	PROB	4.924	n/a	n/a	n/a	-999	-1	[2, 8, 6]	16.0	catFR1	5	R1662S
96.202	3.453	664671	PROB	3.44	n/a	n/a	n/a	-999	-1	[8, 6, 4]	18.0	catFR1	5	R1662S
99.655	0.0	668123	DISTRACT_END	n/a	n/a	n/a	n/a	-999	-1	[0, 0, 0]	n/a	catFR1	5	R1662S
99.655	2.255	668124	STOP	n/a	n/a	n/a	n/a	-999	-1	[-999, -999, -999]	n/a	catFR1	5	R1662S
101.91	1.28	670383	REC_START	n/a	n/a	n/a	n/a	-999	-1	[0, 0, 0]	n/a	catFR1	5	R1662S
103.19	1.8	671659	REC_WORD_VV	1.28	n/a	<>	n/a	-999	-1	[0, 0, 0]	n/a	catFR1	5	R1662S
104.99	0.53	673459	REC_WORD	3.08	n/a	OCEAN	Landscapes	1	-1	[0, 0, 0]	n/a	catFR1	5	R1662S
105.52	0.65	673989	REC_WORD	3.61	n/a	ISLAND	Landscapes	2	-1	[0, 0, 0]	n/a	catFR1	5	R1662S
106.17	1.172	674639	REC_WORD	4.26	n/a	SOCKS	Clothing	5	-1	[0, 0, 0]	n/a	catFR1	5	R1662S
107.342	0.616	675811	REC_WORD	5.432	n/a	BOAT	n/a	-999	-1	[0, 0, 0]	n/a	catFR1	5	R1662S
107.958	0.697	676427	REC_WORD	6.048	n/a	JACKET	Clothing	9	-1	[0, 0, 0]	n/a	catFR1	5	R1662S
108.655	3.002	677124	REC_WORD	6.745	n/a	SHOES	n/a	-999	-1	[0, 0, 0]	n/a	catFR1	5	R1662S
111.657	4.306	680126	REC_WORD_VV	9.747	n/a	<>	n/a	-999	-1	[0, 0, 0]	n/a	catFR1	5	R1662S
115.963	1.0	684432	REC_WORD_VV	14.053	n/a	<>	n/a	-999	-1	[0, 0, 0]	n/a	catFR1	5	R1662S
116.963	1.0	685432	REC_WORD_VV	15.053	n/a	<>	n/a	-999	-1	[0, 0, 0]	n/a	catFR1	5	R1662S
117.963	1.0	686432	REC_WORD_VV	16.053	n/a	<>	n/a	-999	-1	[0, 0, 0]	n/a	catFR1	5	R1662S
118.963	1.0	687432	REC_WORD_VV	17.053	n/a	<>	n/a	-999	-1	[0, 0, 0]	n/a	catFR1	5	R1662S
119.963	2.655	688432	REC_WORD_VV	18.053	n/a	<>	n/a	-999	-1	[0, 0, 0]	n/a	catFR1	5	R1662S
122.618	9.446	691087	REC_WORD_VV	20.708	n/a	<>	n/a	-999	-1	[0, 0, 0]	n/a	catFR1	5	R1662S
132.064	12.786	700536	REC_END	n/a	n/a	n/a	n/a	-999	-1	[0, 0, 0]	n/a	catFR1	5	R1662S
144.85	10.345	713328	COUNTDOWN_START	n/a	n/a	n/a	n/a	-999	1	[0, 0, 0]	n/a	catFR1	5	R1662S
155.195	0.0	723674	COUNTDOWN_END	n/a	n/a	n/a	n/a	-999	1	[0, 0, 0]	n/a	catFR1	5	R1662S
155.195	2.13	723674	ENCODING_START	n/a	n/a	n/a	n/a	-999	1	[0, 0, 0]	n/a	catFR1	5	R1662S
157.325	1.601	725797	WORD	n/a	wordpools/wordpool_categorized_EN.txt	SCANNER	Electronics	1	1	[0, 0, 0]	n/a	catFR1	5	R1662S
158.926	0.984	727400	WORD_OFF	n/a	n/a	SCANNER	Electronics	1	1	[0, 0, 0]	n/a	catFR1	5	R1662S
159.91	1.599	728381	WORD	n/a	wordpools/wordpool_categorized_EN.txt	TELEVISION	Electronics	2	1	[0, 0, 0]	n/a	catFR1	5	R1662S
161.509	0.834	729984	WORD_OFF	n/a	n/a	TELEVISION	Electronics	2	1	[0, 0, 0]	n/a	catFR1	5	R1662S
162.343	1.608	730815	WORD	n/a	wordpools/wordpool_categorized_EN.txt	SNOW	Weather	3	1	[0, 0, 0]	n/a	catFR1	5	R1662S
163.951	0.933	732429	WORD_OFF	n/a	n/a	SNOW	Weather	3	1	[0, 0, 0]	n/a	catFR1	5	R1662S
164.884	1.618	733352	WORD	n/a	wordpools/wordpool_categorized_EN.txt	CLOUD	Weather	4	1	[0, 0, 0]	n/a	catFR1	5	R1662S
166.502	0.765	734979	WORD_OFF	n/a	n/a	CLOUD	Weather	4	1	[0, 0, 0]	n/a	catFR1	5	R1662S
167.267	1.601	735740	WORD	n/a	wordpools/wordpool_categorized_EN.txt	SPATULA	KitchenTools	5	1	[0, 0, 0]	n/a	catFR1	5	R1662S
168.868	0.966	737343	WORD_OFF	n/a	n/a	SPATULA	KitchenTools	5	1	[0, 0, 0]	n/a	catFR1	5	R1662S
169.834	1.6	738312	WORD	n/a	wordpools/wordpool_categorized_EN.txt	PEELER	KitchenTools	6	1	[0, 0, 0]	n/a	catFR1	5	R1662S
171.434	0.834	739904	WORD_OFF	n/a	n/a	PEELER	KitchenTools	6	1	[0, 0, 0]	n/a	catFR1	5	R1662S
172.268	1.599	740746	WORD	n/a	wordpools/wordpool_categorized_EN.txt	COMPUTER	Electronics	7	1	[0, 0, 0]	n/a	catFR1	5	R1662S
173.867	0.893	742338	WORD_OFF	n/a	n/a	COMPUTER	Electronics	7	1	[0, 0, 0]	n/a	catFR1	5	R1662S
174.76	1.6	743238	WORD	n/a	wordpools/wordpool_categorized_EN.txt	RADIO	Electronics	8	1	[0, 0, 0]	n/a	catFR1	5	R1662S
176.36	0.8	744829	WORD_OFF	n/a	n/a	RADIO	Electronics	8	1	[0, 0, 0]	n/a	catFR1	5	R1662S
177.16	1.608	745637	WORD	n/a	wordpools/wordpool_categorized_EN.txt	DRIZZLE	Weather	9	1	[0, 0, 0]	n/a	catFR1	5	R1662S
178.768	0.799	747240	WORD_OFF	n/a	n/a	DRIZZLE	Weather	9	1	[0, 0, 0]	n/a	catFR1	5	R1662S
179.567	1.609	748036	WORD	n/a	wordpools/wordpool_categorized_EN.txt	THUNDERSTORM	Weather	10	1	[0, 0, 0]	n/a	catFR1	5	R1662S
181.176	0.784	749651	WORD_OFF	n/a	n/a	THUNDERSTORM	Weather	10	1	[0, 0, 0]	n/a	catFR1	5	R1662S
181.96	1.607	750435	WORD	n/a	wordpools/wordpool_categorized_EN.txt	GRATER	KitchenTools	11	1	[0, 0, 0]	n/a	catFR1	5	R1662S
183.567	0.952	752039	WORD_OFF	n/a	n/a	GRATER	KitchenTools	11	1	[0, 0, 0]	n/a	catFR1	5	R1662S
184.519	1.606	752996	WORD	n/a	wordpools/wordpool_categorized_EN.txt	TONGS	KitchenTools	12	1	[0, 0, 0]	n/a	catFR1	5	R1662S
186.125	0.003	754594	PROB	5.908	n/a	n/a	n/a	-999	1	[2, 4, 5]	11.0	catFR1	5	R1662S
186.128	0.0	754597	START	n/a	n/a	n/a	n/a	-999	1	[-999, -999, -999]	n/a	catFR1	5	R1662S
186.125	0.003	754600	WORD_OFF	n/a	n/a	TONGS	KitchenTools	12	1	[0, 0, 0]	n/a	catFR1	5	R1662S
186.128	0.0	754600	ENCODING_END	n/a	n/a	n/a	n/a	-999	1	[0, 0, 0]	n/a	catFR1	5	R1662S
186.128	5.914	754600	DISTRACT_START	n/a	n/a	n/a	n/a	-999	1	[0, 0, 0]	n/a	catFR1	5	R1662S
192.042	2.758	760511	PROB	2.75	n/a	n/a	n/a	-999	1	[4, 2, 8]	14.0	catFR1	5	R1662S
194.8	5.434	763269	PROB	5.424	n/a	n/a	n/a	-999	1	[8, 8, 4]	20.0	catFR1	5	R1662S
200.234	2.975	768703	PROB	2.958	n/a	n/a	n/a	-999	1	[5, 7, 7]	19.0	catFR1	5	R1662S
203.209	5.55	771678	PROB	5.541	n/a	n/a	n/a	-999	1	[3, 5, 7]	15.0	catFR1	5	R1662S
208.759	0.0	777228	STOP	n/a	n/a	n/a	n/a	-999	1	[-999, -999, -999]	n/a	catFR1	5	R1662S
208.759	2.21	777231	DISTRACT_END	n/a	n/a	n/a	n/a	-999	1	[0, 0, 0]	n/a	catFR1	5	R1662S
210.969	0.425	779446	REC_START	n/a	n/a	n/a	n/a	-999	1	[0, 0, 0]	n/a	catFR1	5	R1662S
211.394	0.581	779863	REC_WORD	0.425	n/a	PEELER	KitchenTools	6	1	[0, 0, 0]	n/a	catFR1	5	R1662S
211.975	1.901	780444	REC_WORD	1.006	n/a	GRATER	KitchenTools	11	1	[0, 0, 0]	n/a	catFR1	5	R1662S
213.876	0.645	782345	REC_WORD_VV	2.907	n/a	<>	n/a	-999	1	[0, 0, 0]	n/a	catFR1	5	R1662S
214.521	1.818	782990	REC_WORD	3.552	n/a	SCANNER	Electronics	1	1	[0, 0, 0]	n/a	catFR1	5	R1662S
216.339	3.89	784808	REC_WORD	5.37	n/a	ISLAND	Landscapes	-999	1	[0, 0, 0]	n/a	catFR1	5	R1662S
220.229	1.331	788698	REC_WORD	9.26	n/a	TELEVISION	Electronics	2	1	[0, 0, 0]	n/a	catFR1	5	R1662S
221.56	6.185	790029	REC_WORD	10.591	n/a	RADIO	Electronics	8	1	[0, 0, 0]	n/a	catFR1	5	R1662S
227.745	3.041	796214	REC_WORD	16.776	n/a	THUNDERSTORM	Weather	10	1	[0, 0, 0]	n/a	catFR1	5	R1662S
230.786	1.98	799255	REC_WORD	19.817	n/a	TORNADO	n/a	-999	1	[0, 0, 0]	n/a	catFR1	5	R1662S
232.766	1.926	801235	REC_WORD_VV	21.797	n/a	<>	n/a	-999	1	[0, 0, 0]	n/a	catFR1	5	R1662S
234.692	6.418	803161	REC_WORD_VV	23.723	n/a	<>	n/a	-999	1	[0, 0, 0]	n/a	catFR1	5	R1662S
241.11	1.616	809586	REC_END	n/a	n/a	n/a	n/a	-999	1	[0, 0, 0]	n/a	catFR1	5	R1662S
242.726	10.341	811201	COUNTDOWN_START	n/a	n/a	n/a	n/a	-999	2	[0, 0, 0]	n/a	catFR1	5	R1662S
253.067	0.0	821536	COUNTDOWN_END	n/a	n/a	n/a	n/a	-999	2	[0, 0, 0]	n/a	catFR1	5	R1662S
253.067	2.051	821548	ENCODING_START	n/a	n/a	n/a	n/a	-999	2	[0, 0, 0]	n/a	catFR1	5	R1662S
255.118	1.6	823590	WORD	n/a	wordpools/wordpool_categorized_EN.txt	UNDERWEAR	Clothing	1	2	[0, 0, 0]	n/a	catFR1	5	R1662S
256.718	0.833	825193	WORD_OFF	n/a	n/a	UNDERWEAR	Clothing	1	2	[0, 0, 0]	n/a	catFR1	5	R1662S
257.551	1.601	826023	WORD	n/a	wordpools/wordpool_categorized_EN.txt	SKIRT	Clothing	2	2	[0, 0, 0]	n/a	catFR1	5	R1662S
259.152	0.889	827627	WORD_OFF	n/a	n/a	SKIRT	Clothing	2	2	[0, 0, 0]	n/a	catFR1	5	R1662S
260.041	1.602	828515	WORD	n/a	wordpools/wordpool_categorized_EN.txt	HAWK	Birds	3	2	[0, 0, 0]	n/a	catFR1	5	R1662S
261.643	0.975	830118	WORD_OFF	n/a	n/a	HAWK	Birds	3	2	[0, 0, 0]	n/a	catFR1	5	R1662S
262.618	1.6	831087	WORD	n/a	wordpools/wordpool_categorized_EN.txt	GOOSE	Birds	4	2	[0, 0, 0]	n/a	catFR1	5	R1662S
264.218	0.765	832691	WORD_OFF	n/a	n/a	GOOSE	Birds	4	2	[0, 0, 0]	n/a	catFR1	5	R1662S
264.983	1.6	833452	WORD	n/a	wordpools/wordpool_categorized_EN.txt	BULL	FarmAnimals	5	2	[0, 0, 0]	n/a	catFR1	5	R1662S
266.583	0.902	835055	WORD_OFF	n/a	n/a	BULL	FarmAnimals	5	2	[0, 0, 0]	n/a	catFR1	5	R1662S
267.485	1.607	835955	WORD	n/a	wordpools/wordpool_categorized_EN.txt	LAMB	FarmAnimals	6	2	[0, 0, 0]	n/a	catFR1	5	R1662S
269.092	0.784	837570	WORD_OFF	n/a	n/a	LAMB	FarmAnimals	6	2	[0, 0, 0]	n/a	catFR1	5	R1662S
269.876	1.609	838354	WORD	n/a	wordpools/wordpool_categorized_EN.txt	SHOES	Clothing	7	2	[0, 0, 0]	n/a	catFR1	5	R1662S
271.485	0.882	839958	WORD_OFF	n/a	n/a	SHOES	Clothing	7	2	[0, 0, 0]	n/a	catFR1	5	R1662S
272.367	1.601	840846	WORD	n/a	wordpools/wordpool_categorized_EN.txt	JEANS	Clothing	8	2	[0, 0, 0]	n/a	catFR1	5	R1662S
273.968	0.965	842438	WORD_OFF	n/a	n/a	JEANS	Clothing	8	2	[0, 0, 0]	n/a	catFR1	5	R1662S
274.933	1.618	843406	WORD	n/a	wordpools/wordpool_categorized_EN.txt	SPARROW	Birds	9	2	[0, 0, 0]	n/a	catFR1	5	R1662S
276.551	0.857	845021	WORD_OFF	n/a	n/a	SPARROW	Birds	9	2	[0, 0, 0]	n/a	catFR1	5	R1662S
277.408	1.609	845886	WORD	n/a	wordpools/wordpool_categorized_EN.txt	FINCH	Birds	10	2	[0, 0, 0]	n/a	catFR1	5	R1662S
279.017	0.851	847490	WORD_OFF	n/a	n/a	FINCH	Birds	10	2	[0, 0, 0]	n/a	catFR1	5	R1662S
279.868	1.6	848343	WORD	n/a	wordpools/wordpool_categorized_EN.txt	GOAT	FarmAnimals	11	2	[0, 0, 0]	n/a	catFR1	5	R1662S
281.468	0.84	849947	WORD_OFF	n/a	n/a	GOAT	FarmAnimals	11	2	[0, 0, 0]	n/a	catFR1	5	R1662S
282.308	1.601	850777	WORD	n/a	wordpools/wordpool_categorized_EN.txt	CHICKEN	FarmAnimals	12	2	[0, 0, 0]	n/a	catFR1	5	R1662S
283.909	0.001	852378	PROB	5.374	n/a	n/a	n/a	-999	2	[6, 7, 5]	18.0	catFR1	5	R1662S
283.91	0.003	852381	WORD_OFF	n/a	n/a	CHICKEN	FarmAnimals	12	2	[0, 0, 0]	n/a	catFR1	5	R1662S
283.913	0.0	852382	START	n/a	n/a	n/a	n/a	-999	2	[-999, -999, -999]	n/a	catFR1	5	R1662S
283.913	0.0	852392	ENCODING_END	n/a	n/a	n/a	n/a	-999	2	[0, 0, 0]	n/a	catFR1	5	R1662S
283.913	5.379	852392	DISTRACT_START	n/a	n/a	n/a	n/a	-999	2	[0, 0, 0]	n/a	catFR1	5	R1662S
289.292	3.809	857761	PROB	3.799	n/a	n/a	n/a	-999	2	[8, 7, 2]	17.0	catFR1	5	R1662S
293.101	3.225	861570	PROB	3.216	n/a	n/a	n/a	-999	2	[6, 4, 5]	15.0	catFR1	5	R1662S
296.326	5.783	864795	PROB	5.774	n/a	n/a	n/a	-999	2	[5, 2, 6]	13.0	catFR1	5	R1662S
302.109	1.909	870578	PROB	1.899	n/a	n/a	n/a	-999	2	[4, 1, 1]	6.0	catFR1	5	R1662S
304.018	0.0	872487	STOP	n/a	n/a	n/a	n/a	-999	2	[-999, -999, -999]	n/a	catFR1	5	R1662S
304.018	2.315	872497	DISTRACT_END	n/a	n/a	n/a	n/a	-999	2	[0, 0, 0]	n/a	catFR1	5	R1662S
306.333	0.144	874804	REC_START	n/a	n/a	n/a	n/a	-999	2	[0, 0, 0]	n/a	catFR1	5	R1662S
306.477	0.404	874946	REC_WORD	0.144	n/a	GOAT	FarmAnimals	11	2	[0, 0, 0]	n/a	catFR1	5	R1662S
306.881	0.514	875350	REC_WORD	0.548	n/a	LAMB	FarmAnimals	6	2	[0, 0, 0]	n/a	catFR1	5	R1662S
307.395	0.661	875864	REC_WORD	1.062	n/a	SPARROW	Birds	9	2	[0, 0, 0]	n/a	catFR1	5	R1662S
308.056	1.728	876525	REC_WORD	1.723	n/a	FINCH	Birds	10	2	[0, 0, 0]	n/a	catFR1	5	R1662S
309.784	0.782	878253	REC_WORD	3.451	n/a	SHOES	Clothing	7	2	[0, 0, 0]	n/a	catFR1	5	R1662S
310.566	2.621	879035	REC_WORD	4.233	n/a	JEANS	Clothing	8	2	[0, 0, 0]	n/a	catFR1	5	R1662S
313.187	2.773	881656	REC_WORD_VV	6.854	n/a	<>	n/a	-999	2	[0, 0, 0]	n/a	catFR1	5	R1662S
315.96	2.472	884429	REC_WORD	9.627	n/a	HAT	n/a	-999	2	[0, 0, 0]	n/a	catFR1	5	R1662S
318.432	8.15	886901	REC_WORD_VV	12.099	n/a	<>	n/a	-999	2	[0, 0, 0]	n/a	catFR1	5	R1662S
326.582	0.5	895051	REC_WORD_VV	20.249	n/a	<>	n/a	-999	2	[0, 0, 0]	n/a	catFR1	5	R1662S
327.082	2.346	895551	REC_WORD	20.749	n/a	GOAT	FarmAnimals	11	2	[0, 0, 0]	n/a	catFR1	5	R1662S
329.428	0.416	897897	REC_WORD_VV	23.095	n/a	<>	n/a	-999	2	[0, 0, 0]	n/a	catFR1	5	R1662S
329.844	1.376	898313	REC_WORD	23.511	n/a	LAMB	FarmAnimals	6	2	[0, 0, 0]	n/a	catFR1	5	R1662S
331.22	0.79	899689	REC_WORD_VV	24.887	n/a	<>	n/a	-999	2	[0, 0, 0]	n/a	catFR1	5	R1662S
332.01	0.494	900479	REC_WORD	25.677	n/a	SPARROW	Birds	9	2	[0, 0, 0]	n/a	catFR1	5	R1662S
332.504	1.843	900973	REC_WORD	26.171	n/a	FINCH	Birds	10	2	[0, 0, 0]	n/a	catFR1	5	R1662S
334.347	0.795	902816	REC_WORD	28.014	n/a	SHOES	Clothing	7	2	[0, 0, 0]	n/a	catFR1	5	R1662S
335.142	1.334	903611	REC_WORD	28.809	n/a	JEANS	Clothing	8	2	[0, 0, 0]	n/a	catFR1	5	R1662S
336.476	5.482	904945	REC_END	n/a	n/a	n/a	n/a	-999	2	[0, 0, 0]	n/a	catFR1	5	R1662S
341.958	10.344	910436	COUNTDOWN_START	n/a	n/a	n/a	n/a	-999	3	[0, 0, 0]	n/a	catFR1	5	R1662S
352.302	0.0	920771	COUNTDOWN_END	n/a	n/a	n/a	n/a	-999	3	[0, 0, 0]	n/a	catFR1	5	R1662S
352.302	1.965	920782	ENCODING_START	n/a	n/a	n/a	n/a	-999	3	[0, 0, 0]	n/a	catFR1	5	R1662S
354.267	1.61	922743	WORD	n/a	wordpools/wordpool_categorized_EN.txt	DISHWASHER	Appliances	1	3	[0, 0, 0]	n/a	catFR1	5	R1662S
355.877	0.982	924347	WORD_OFF	n/a	n/a	DISHWASHER	Appliances	1	3	[0, 0, 0]	n/a	catFR1	5	R1662S
356.859	1.609	925339	WORD	n/a	wordpools/wordpool_categorized_EN.txt	STOVE	Appliances	2	3	[0, 0, 0]	n/a	catFR1	5	R1662S
358.468	0.808	926942	WORD_OFF	n/a	n/a	STOVE	Appliances	2	3	[0, 0, 0]	n/a	catFR1	5	R1662S
359.276	1.609	927750	WORD	n/a	wordpools/wordpool_categorized_EN.txt	PLIERS	Tools	3	3	[0, 0, 0]	n/a	catFR1	5	R1662S
360.885	0.849	929364	WORD_OFF	n/a	n/a	PLIERS	Tools	3	3	[0, 0, 0]	n/a	catFR1	5	R1662S
361.734	1.611	930206	WORD	n/a	wordpools/wordpool_categorized_EN.txt	SANDER	Tools	4	3	[0, 0, 0]	n/a	catFR1	5	R1662S
363.345	0.782	931821	WORD_OFF	n/a	n/a	SANDER	Tools	4	3	[0, 0, 0]	n/a	catFR1	5	R1662S
364.127	1.607	932606	WORD	n/a	wordpools/wordpool_categorized_EN.txt	CRICKET	Insects	5	3	[0, 0, 0]	n/a	catFR1	5	R1662S
365.734	0.859	934209	WORD_OFF	n/a	n/a	CRICKET	Insects	5	3	[0, 0, 0]	n/a	catFR1	5	R1662S
366.593	1.608	935063	WORD	n/a	wordpools/wordpool_categorized_EN.txt	SPIDER	Insects	6	3	[0, 0, 0]	n/a	catFR1	5	R1662S
368.201	0.826	936678	WORD_OFF	n/a	n/a	SPIDER	Insects	6	3	[0, 0, 0]	n/a	catFR1	5	R1662S
369.027	1.599	937496	WORD	n/a	wordpools/wordpool_categorized_EN.txt	DRYER	Appliances	7	3	[0, 0, 0]	n/a	catFR1	5	R1662S
370.626	0.824	939100	WORD_OFF	n/a	n/a	DRYER	Appliances	7	3	[0, 0, 0]	n/a	catFR1	5	R1662S
371.45	1.609	939930	WORD	n/a	wordpools/wordpool_categorized_EN.txt	OVEN	Appliances	8	3	[0, 0, 0]	n/a	catFR1	5	R1662S
373.059	0.857	941534	WORD_OFF	n/a	n/a	OVEN	Appliances	8	3	[0, 0, 0]	n/a	catFR1	5	R1662S
373.916	1.601	942387	WORD	n/a	wordpools/wordpool_categorized_EN.txt	ROACH	Insects	9	3	[0, 0, 0]	n/a	catFR1	5	R1662S
375.517	0.833	943991	WORD_OFF	n/a	n/a	ROACH	Insects	9	3	[0, 0, 0]	n/a	catFR1	5	R1662S
376.35	1.608	944821	WORD	n/a	wordpools/wordpool_categorized_EN.txt	BEETLE	Insects	10	3	[0, 0, 0]	n/a	catFR1	5	R1662S
377.958	0.934	946436	WORD_OFF	n/a	n/a	BEETLE	Insects	10	3	[0, 0, 0]	n/a	catFR1	5	R1662S
378.892	1.609	947370	WORD	n/a	wordpools/wordpool_categorized_EN.txt	CROWBAR	Tools	11	3	[0, 0, 0]	n/a	catFR1	5	R1662S
380.501	0.916	948974	WORD_OFF	n/a	n/a	CROWBAR	Tools	11	3	[0, 0, 0]	n/a	catFR1	5	R1662S
381.417	1.6	949896	WORD	n/a	wordpools/wordpool_categorized_EN.txt	DRILL	Tools	12	3	[0, 0, 0]	n/a	catFR1	5	R1662S
383.017	0.0	951486	PROB	5.333	n/a	n/a	n/a	-999	3	[7, 5, 8]	20.0	catFR1	5	R1662S
383.017	0.004	951488	WORD_OFF	n/a	n/a	DRILL	Tools	12	3	[0, 0, 0]	n/a	catFR1	5	R1662S
383.021	0.0	951490	START	n/a	n/a	n/a	n/a	-999	3	[-999, -999, -999]	n/a	catFR1	5	R1662S
383.021	0.0	951500	ENCODING_END	n/a	n/a	n/a	n/a	-999	3	[0, 0, 0]	n/a	catFR1	5	R1662S
383.021	5.337	951500	DISTRACT_START	n/a	n/a	n/a	n/a	-999	3	[0, 0, 0]	n/a	catFR1	5	R1662S
388.358	3.326	956828	PROB	3.317	n/a	n/a	n/a	-999	3	[2, 5, 4]	11.0	catFR1	5	R1662S
391.684	3.492	960154	PROB	3.483	n/a	n/a	n/a	-999	3	[8, 1, 7]	16.0	catFR1	5	R1662S
395.176	2.259	963646	PROB	2.25	n/a	n/a	n/a	-999	3	[6, 6, 1]	13.0	catFR1	5	R1662S
397.435	2.298	965905	PROB	2.292	n/a	n/a	n/a	-999	3	[8, 4, 2]	14.0	catFR1	5	R1662S
399.733	2.534	968203	PROB	2.525	n/a	n/a	n/a	-999	3	[6, 1, 1]	8.0	catFR1	5	R1662S
402.267	20.899	970737	PROB	20.891	n/a	n/a	n/a	-999	3	[6, 8, 8]	22.0	catFR1	5	R1662S
423.166	0.0	991636	STOP	n/a	n/a	n/a	n/a	-999	3	[-999, -999, -999]	n/a	catFR1	5	R1662S
423.166	2.409	991641	DISTRACT_END	n/a	n/a	n/a	n/a	-999	3	[0, 0, 0]	n/a	catFR1	5	R1662S
425.575	0.847	994052	REC_START	n/a	n/a	n/a	n/a	-999	3	[0, 0, 0]	n/a	catFR1	5	R1662S
426.422	0.49	994892	REC_WORD	0.847	n/a	CRICKET	Insects	5	3	[0, 0, 0]	n/a	catFR1	5	R1662S
426.912	2.193	995382	REC_WORD	1.337	n/a	BEETLE	Insects	10	3	[0, 0, 0]	n/a	catFR1	5	R1662S
429.105	5.632	997575	REC_WORD	3.53	n/a	ROACH	Insects	9	3	[0, 0, 0]	n/a	catFR1	5	R1662S
434.737	1.938	1003207	REC_WORD	9.162	n/a	SPATULA	KitchenTools	-999	3	[0, 0, 0]	n/a	catFR1	5	R1662S
436.675	7.416	1005145	REC_WORD	11.1	n/a	HAMMER	n/a	-999	3	[0, 0, 0]	n/a	catFR1	5	R1662S
444.091	1.345	1012561	REC_WORD_VV	18.516	n/a	<>	n/a	-999	3	[0, 0, 0]	n/a	catFR1	5	R1662S
445.436	1.0	1013906	REC_WORD_VV	19.861	n/a	<>	n/a	-999	3	[0, 0, 0]	n/a	catFR1	5	R1662S
446.436	1.0	1014906	REC_WORD_VV	20.861	n/a	<>	n/a	-999	3	[0, 0, 0]	n/a	catFR1	5	R1662S
447.436	4.63	1015906	REC_WORD_VV	21.861	n/a	<>	n/a	-999	3	[0, 0, 0]	n/a	catFR1	5	R1662S
452.066	3.655	1020536	REC_WORD	26.491	n/a	DISHWASHER	Appliances	1	3	[0, 0, 0]	n/a	catFR1	5	R1662S
455.721	3.346	1024193	REC_END	n/a	n/a	n/a	n/a	-999	3	[0, 0, 0]	n/a	catFR1	5	R1662S
459.067	10.354	1027538	COUNTDOWN_START	n/a	n/a	n/a	n/a	-999	4	[0, 0, 0]	n/a	catFR1	5	R1662S
469.421	0.0	1037896	COUNTDOWN_END	n/a	n/a	n/a	n/a	-999	4	[0, 0, 0]	n/a	catFR1	5	R1662S
469.421	2.122	1037896	ENCODING_START	n/a	n/a	n/a	n/a	-999	4	[0, 0, 0]	n/a	catFR1	5	R1662S
471.543	1.608	1040018	WORD	n/a	wordpools/wordpool_categorized_EN.txt	CUPCAKE	Desserts	1	4	[0, 0, 0]	n/a	catFR1	5	R1662S
473.151	0.985	1041622	WORD_OFF	n/a	n/a	CUPCAKE	Desserts	1	4	[0, 0, 0]	n/a	catFR1	5	R1662S
474.136	1.6	1042614	WORD	n/a	wordpools/wordpool_categorized_EN.txt	CAKE	Desserts	2	4	[0, 0, 0]	n/a	catFR1	5	R1662S
475.736	0.917	1044206	WORD_OFF	n/a	n/a	CAKE	Desserts	2	4	[0, 0, 0]	n/a	catFR1	5	R1662S
476.653	1.608	1045128	WORD	n/a	wordpools/wordpool_categorized_EN.txt	PEAR	Fruit	3	4	[0, 0, 0]	n/a	catFR1	5	R1662S
478.261	0.881	1046732	WORD_OFF	n/a	n/a	PEAR	Fruit	3	4	[0, 0, 0]	n/a	catFR1	5	R1662S
479.142	1.6	1047620	WORD	n/a	wordpools/wordpool_categorized_EN.txt	APPLE	Fruit	4	4	[0, 0, 0]	n/a	catFR1	5	R1662S
480.742	0.791	1049212	WORD_OFF	n/a	n/a	APPLE	Fruit	4	4	[0, 0, 0]	n/a	catFR1	5	R1662S
481.533	1.601	1050008	WORD	n/a	wordpools/wordpool_categorized_EN.txt	LADLE	KitchenTools	5	4	[0, 0, 0]	n/a	catFR1	5	R1662S
483.134	0.784	1051611	WORD_OFF	n/a	n/a	LADLE	KitchenTools	5	4	[0, 0, 0]	n/a	catFR1	5	R1662S
483.918	1.599	1052395	WORD	n/a	wordpools/wordpool_categorized_EN.txt	COLANDER	KitchenTools	6	4	[0, 0, 0]	n/a	catFR1	5	R1662S
485.517	0.915	1053987	WORD_OFF	n/a	n/a	COLANDER	KitchenTools	6	4	[0, 0, 0]	n/a	catFR1	5	R1662S
486.432	1.601	1054910	WORD	n/a	wordpools/wordpool_categorized_EN.txt	COOKIE	Desserts	7	4	[0, 0, 0]	n/a	catFR1	5	R1662S
488.033	0.776	1056513	WORD_OFF	n/a	n/a	COOKIE	Desserts	7	4	[0, 0, 0]	n/a	catFR1	5	R1662S
488.809	1.6	1057286	WORD	n/a	wordpools/wordpool_categorized_EN.txt	COBBLER	Desserts	8	4	[0, 0, 0]	n/a	catFR1	5	R1662S
490.409	0.925	1058881	WORD_OFF	n/a	n/a	COBBLER	Desserts	8	4	[0, 0, 0]	n/a	catFR1	5	R1662S
491.334	1.608	1059812	WORD	n/a	wordpools/wordpool_categorized_EN.txt	SPOON	KitchenTools	9	4	[0, 0, 0]	n/a	catFR1	5	R1662S
492.942	0.842	1061416	WORD_OFF	n/a	n/a	SPOON	KitchenTools	9	4	[0, 0, 0]	n/a	catFR1	5	R1662S
493.784	1.6	1062258	WORD	n/a	wordpools/wordpool_categorized_EN.txt	WHISK	KitchenTools	10	4	[0, 0, 0]	n/a	catFR1	5	R1662S
495.384	0.949	1063861	WORD_OFF	n/a	n/a	WHISK	KitchenTools	10	4	[0, 0, 0]	n/a	catFR1	5	R1662S
496.333	1.6	1064807	WORD	n/a	wordpools/wordpool_categorized_EN.txt	LIME	Fruit	11	4	[0, 0, 0]	n/a	catFR1	5	R1662S
497.933	0.759	1066410	WORD_OFF	n/a	n/a	LIME	Fruit	11	4	[0, 0, 0]	n/a	catFR1	5	R1662S
498.692	1.599	1067167	WORD	n/a	wordpools/wordpool_categorized_EN.txt	BANANA	Fruit	12	4	[0, 0, 0]	n/a	catFR1	5	R1662S
500.291	0.002	1068763	WORD_OFF	n/a	n/a	BANANA	Fruit	12	4	[0, 0, 0]	n/a	catFR1	5	R1662S
500.293	0.005	1068763	PROB	2.633	n/a	n/a	n/a	-999	4	[2, 3, 3]	8.0	catFR1	5	R1662S
500.298	0.0	1068768	START	n/a	n/a	n/a	n/a	-999	4	[-999, -999, -999]	n/a	catFR1	5	R1662S
500.298	0.0	1068775	ENCODING_END	n/a	n/a	n/a	n/a	-999	4	[0, 0, 0]	n/a	catFR1	5	R1662S
500.298	2.636	1068775	DISTRACT_START	n/a	n/a	n/a	n/a	-999	4	[0, 0, 0]	n/a	catFR1	5	R1662S
502.934	2.958	1071404	PROB	2.95	n/a	n/a	n/a	-999	4	[3, 2, 1]	6.0	catFR1	5	R1662S
505.892	5.659	1074362	PROB	5.649	n/a	n/a	n/a	-999	4	[5, 4, 7]	16.0	catFR1	5	R1662S
511.551	4.224	1080021	PROB	4.216	n/a	n/a	n/a	-999	4	[6, 8, 4]	18.0	catFR1	5	R1662S
515.775	3.734	1084245	PROB	3.724	n/a	n/a	n/a	-999	4	[6, 7, 2]	15.0	catFR1	5	R1662S
519.509	2.266	1087979	PROB	2.251	n/a	n/a	n/a	-999	4	[8, 1, 2]	11.0	catFR1	5	R1662S
521.775	0.0	1090245	STOP	n/a	n/a	n/a	n/a	-999	4	[-999, -999, -999]	n/a	catFR1	5	R1662S
521.775	2.391	1090253	DISTRACT_END	n/a	n/a	n/a	n/a	-999	4	[0, 0, 0]	n/a	catFR1	5	R1662S
524.166	0.175	1092641	REC_START	n/a	n/a	n/a	n/a	-999	4	[0, 0, 0]	n/a	catFR1	5	R1662S
524.341	0.505	1092811	REC_WORD	0.175	n/a	CAKE	Desserts	2	4	[0, 0, 0]	n/a	catFR1	5	R1662S
524.846	1.092	1093316	REC_WORD	0.68	n/a	CUPCAKE	Desserts	1	4	[0, 0, 0]	n/a	catFR1	5	R1662S
525.938	2.041	1094408	REC_WORD	1.772	n/a	LIME	Fruit	11	4	[0, 0, 0]	n/a	catFR1	5	R1662S
527.979	6.69	1096449	REC_WORD	3.813	n/a	NOODLE	n/a	-999	4	[0, 0, 0]	n/a	catFR1	5	R1662S
534.669	3.185	1103139	REC_WORD_VV	10.503	n/a	<>	n/a	-999	4	[0, 0, 0]	n/a	catFR1	5	R1662S
537.854	5.22	1106324	REC_WORD	13.688	n/a	SPATULA	KitchenTools	-999	4	[0, 0, 0]	n/a	catFR1	5	R1662S
543.074	5.72	1111544	REC_WORD_VV	18.908	n/a	<>	n/a	-999	4	[0, 0, 0]	n/a	catFR1	5	R1662S
548.794	2.47	1117264	REC_WORD	24.628	n/a	PEAR	Fruit	3	4	[0, 0, 0]	n/a	catFR1	5	R1662S
551.264	3.04	1119734	REC_WORD	27.098	n/a	LIME	Fruit	11	4	[0, 0, 0]	n/a	catFR1	5	R1662S
554.304	4.073	1122781	REC_END	n/a	n/a	n/a	n/a	-999	4	[0, 0, 0]	n/a	catFR1	5	R1662S
558.377	10.34	1126853	COUNTDOWN_START	n/a	n/a	n/a	n/a	-999	5	[0, 0, 0]	n/a	catFR1	5	R1662S
568.717	0.0	1137188	COUNTDOWN_END	n/a	n/a	n/a	n/a	-999	5	[0, 0, 0]	n/a	catFR1	5	R1662S
568.717	1.966	1137188	ENCODING_START	n/a	n/a	n/a	n/a	-999	5	[0, 0, 0]	n/a	catFR1	5	R1662S
570.683	1.601	1139161	WORD	n/a	wordpools/wordpool_categorized_EN.txt	MILK	Beverages	1	5	[0, 0, 0]	n/a	catFR1	5	R1662S
572.284	0.967	1140764	WORD_OFF	n/a	n/a	MILK	Beverages	1	5	[0, 0, 0]	n/a	catFR1	5	R1662S
573.251	1.609	1141721	WORD	n/a	wordpools/wordpool_categorized_EN.txt	LEMONADE	Beverages	2	5	[0, 0, 0]	n/a	catFR1	5	R1662S
574.86	0.922	1143336	WORD_OFF	n/a	n/a	LEMONADE	Beverages	2	5	[0, 0, 0]	n/a	catFR1	5	R1662S
575.782	1.601	1144259	WORD	n/a	wordpools/wordpool_categorized_EN.txt	DOLL	Toys	3	5	[0, 0, 0]	n/a	catFR1	5	R1662S
577.383	1.001	1145862	WORD_OFF	n/a	n/a	DOLL	Toys	3	5	[0, 0, 0]	n/a	catFR1	5	R1662S
578.384	1.609	1146854	WORD	n/a	wordpools/wordpool_categorized_EN.txt	BASEBALL	Toys	4	5	[0, 0, 0]	n/a	catFR1	5	R1662S
579.993	0.856	1148469	WORD_OFF	n/a	n/a	BASEBALL	Toys	4	5	[0, 0, 0]	n/a	catFR1	5	R1662S
580.849	1.6	1149323	WORD	n/a	wordpools/wordpool_categorized_EN.txt	ROOF	Building	5	5	[0, 0, 0]	n/a	catFR1	5	R1662S
582.449	0.884	1150926	WORD_OFF	n/a	n/a	ROOF	Building	5	5	[0, 0, 0]	n/a	catFR1	5	R1662S
583.333	1.602	1151803	WORD	n/a	wordpools/wordpool_categorized_EN.txt	FOUNDATION	Building	6	5	[0, 0, 0]	n/a	catFR1	5	R1662S
584.935	0.916	1153406	WORD_OFF	n/a	n/a	FOUNDATION	Building	6	5	[0, 0, 0]	n/a	catFR1	5	R1662S
585.851	1.609	1154329	WORD	n/a	wordpools/wordpool_categorized_EN.txt	FRISBEE	Toys	7	5	[0, 0, 0]	n/a	catFR1	5	R1662S
587.46	0.917	1155932	WORD_OFF	n/a	n/a	FRISBEE	Toys	7	5	[0, 0, 0]	n/a	catFR1	5	R1662S
588.377	1.6	1156855	WORD	n/a	wordpools/wordpool_categorized_EN.txt	BLOCKS	Toys	8	5	[0, 0, 0]	n/a	catFR1	5	R1662S
589.977	0.856	1158447	WORD_OFF	n/a	n/a	BLOCKS	Toys	8	5	[0, 0, 0]	n/a	catFR1	5	R1662S
590.833	1.601	1159312	WORD	n/a	wordpools/wordpool_categorized_EN.txt	CIDER	Beverages	9	5	[0, 0, 0]	n/a	catFR1	5	R1662S
592.434	0.957	1160904	WORD_OFF	n/a	n/a	CIDER	Beverages	9	5	[0, 0, 0]	n/a	catFR1	5	R1662S
593.391	1.601	1161861	WORD	n/a	wordpools/wordpool_categorized_EN.txt	RUM	Beverages	10	5	[0, 0, 0]	n/a	catFR1	5	R1662S
594.992	0.768	1163465	WORD_OFF	n/a	n/a	RUM	Beverages	10	5	[0, 0, 0]	n/a	catFR1	5	R1662S
595.76	1.608	1164238	WORD	n/a	wordpools/wordpool_categorized_EN.txt	STAIRS	Building	11	5	[0, 0, 0]	n/a	catFR1	5	R1662S
597.368	0.999	1165841	WORD_OFF	n/a	n/a	STAIRS	Building	11	5	[0, 0, 0]	n/a	catFR1	5	R1662S
598.367	1.608	1166844	WORD	n/a	wordpools/wordpool_categorized_EN.txt	CEILING	Building	12	5	[0, 0, 0]	n/a	catFR1	5	R1662S
599.975	0.002	1168445	PROB	8.184	n/a	n/a	n/a	-999	5	[7, 6, 2]	15.0	catFR1	5	R1662S
599.977	0.0	1168447	START	n/a	n/a	n/a	n/a	-999	5	[-999, -999, -999]	n/a	catFR1	5	R1662S
599.974	0.003	1168448	WORD_OFF	n/a	n/a	CEILING	Building	12	5	[0, 0, 0]	n/a	catFR1	5	R1662S
599.977	0.0	1168448	ENCODING_END	n/a	n/a	n/a	n/a	-999	5	[0, 0, 0]	n/a	catFR1	5	R1662S
599.977	8.189	1168448	DISTRACT_START	n/a	n/a	n/a	n/a	-999	5	[0, 0, 0]	n/a	catFR1	5	R1662S
608.166	3.584	1176636	PROB	3.575	n/a	n/a	n/a	-999	5	[8, 3, 2]	13.0	catFR1	5	R1662S
611.75	3.566	1180220	PROB	3.558	n/a	n/a	n/a	-999	5	[8, 6, 6]	22.0	catFR1	5	R1662S
615.316	7.992	1183786	PROB	7.983	n/a	n/a	n/a	-999	5	[7, 4, 7]	18.0	catFR1	5	R1662S
623.308	0.0	1191778	STOP	n/a	n/a	n/a	n/a	-999	5	[-999, -999, -999]	n/a	catFR1	5	R1662S
623.308	2.233	1191783	DISTRACT_END	n/a	n/a	n/a	n/a	-999	5	[0, 0, 0]	n/a	catFR1	5	R1662S
625.541	4.47	1194009	REC_START	n/a	n/a	n/a	n/a	-999	5	[0, 0, 0]	n/a	catFR1	5	R1662S
630.011	0.71	1198481	REC_WORD	4.47	n/a	RUM	Beverages	10	5	[0, 0, 0]	n/a	catFR1	5	R1662S
630.721	6.922	1199191	REC_WORD	5.18	n/a	CIDER	Beverages	9	5	[0, 0, 0]	n/a	catFR1	5	R1662S
637.643	6.499	1206113	REC_WORD	12.102	n/a	APPLE	Fruit	-999	5	[0, 0, 0]	n/a	catFR1	5	R1662S
644.142	1.0	1212612	REC_WORD_VV	18.601	n/a	<>	n/a	-999	5	[0, 0, 0]	n/a	catFR1	5	R1662S
645.142	1.0	1213612	REC_WORD_VV	19.601	n/a	<>	n/a	-999	5	[0, 0, 0]	n/a	catFR1	5	R1662S
646.142	1.0	1214612	REC_WORD_VV	20.601	n/a	<>	n/a	-999	5	[0, 0, 0]	n/a	catFR1	5	R1662S
647.142	1.532	1215612	REC_WORD_VV	21.601	n/a	<>	n/a	-999	5	[0, 0, 0]	n/a	catFR1	5	R1662S
648.674	0.267	1217144	REC_WORD	23.133	n/a	RUM	Beverages	10	5	[0, 0, 0]	n/a	catFR1	5	R1662S
648.941	0.636	1217411	REC_WORD	23.4	n/a	CIDER	Beverages	9	5	[0, 0, 0]	n/a	catFR1	5	R1662S
649.577	4.299	1218047	REC_WORD	24.036	n/a	APPLE	Fruit	-999	5	[0, 0, 0]	n/a	catFR1	5	R1662S
653.876	1.0	1222346	REC_WORD_VV	28.335	n/a	<>	n/a	-999	5	[0, 0, 0]	n/a	catFR1	5	R1662S
654.876	0.799	1223346	REC_WORD_VV	29.335	n/a	<>	n/a	-999	5	[0, 0, 0]	n/a	catFR1	5	R1662S
655.675	1.792	1224150	REC_END	n/a	n/a	n/a	n/a	-999	5	[0, 0, 0]	n/a	catFR1	5	R1662S
657.467	10.341	1225938	COUNTDOWN_START	n/a	n/a	n/a	n/a	-999	6	[0, 0, 0]	n/a	catFR1	5	R1662S
667.808	0.0	1236284	COUNTDOWN_END	n/a	n/a	n/a	n/a	-999	6	[0, 0, 0]	n/a	catFR1	5	R1662S
667.808	1.95	1236284	ENCODING_START	n/a	n/a	n/a	n/a	-999	6	[0, 0, 0]	n/a	catFR1	5	R1662S
669.758	1.6	1238234	WORD	n/a	wordpools/wordpool_categorized_EN.txt	LAKE	Landscapes	1	6	[0, 0, 0]	n/a	catFR1	5	R1662S
671.358	0.875	1239837	WORD_OFF	n/a	n/a	LAKE	Landscapes	1	6	[0, 0, 0]	n/a	catFR1	5	R1662S
672.233	1.6	1240714	WORD	n/a	wordpools/wordpool_categorized_EN.txt	FOREST	Landscapes	2	6	[0, 0, 0]	n/a	catFR1	5	R1662S
673.833	0.975	1242306	WORD_OFF	n/a	n/a	FOREST	Landscapes	2	6	[0, 0, 0]	n/a	catFR1	5	R1662S
674.808	1.6	1243286	WORD	n/a	wordpools/wordpool_categorized_EN.txt	IRON	Appliances	3	6	[0, 0, 0]	n/a	catFR1	5	R1662S
676.408	0.841	1244878	WORD_OFF	n/a	n/a	IRON	Appliances	3	6	[0, 0, 0]	n/a	catFR1	5	R1662S
677.249	1.602	1245720	WORD	n/a	wordpools/wordpool_categorized_EN.txt	TOASTER	Appliances	4	6	[0, 0, 0]	n/a	catFR1	5	R1662S
678.851	0.766	1247323	WORD_OFF	n/a	n/a	TOASTER	Appliances	4	6	[0, 0, 0]	n/a	catFR1	5	R1662S
679.617	1.6	1248096	WORD	n/a	wordpools/wordpool_categorized_EN.txt	LEATHER	Fabric	5	6	[0, 0, 0]	n/a	catFR1	5	R1662S
681.217	0.958	1249699	WORD_OFF	n/a	n/a	LEATHER	Fabric	5	6	[0, 0, 0]	n/a	catFR1	5	R1662S
682.175	1.6	1250645	WORD	n/a	wordpools/wordpool_categorized_EN.txt	SPANDEX	Fabric	6	6	[0, 0, 0]	n/a	catFR1	5	R1662S
683.775	0.966	1252249	WORD_OFF	n/a	n/a	SPANDEX	Fabric	6	6	[0, 0, 0]	n/a	catFR1	5	R1662S
684.741	1.6	1253218	WORD	n/a	wordpools/wordpool_categorized_EN.txt	BEACH	Landscapes	7	6	[0, 0, 0]	n/a	catFR1	5	R1662S
686.341	0.81	1254821	WORD_OFF	n/a	n/a	BEACH	Landscapes	7	6	[0, 0, 0]	n/a	catFR1	5	R1662S
687.151	1.617	1255628	WORD	n/a	wordpools/wordpool_categorized_EN.txt	HILLS	Landscapes	8	6	[0, 0, 0]	n/a	catFR1	5	R1662S
688.768	0.907	1257243	WORD_OFF	n/a	n/a	HILLS	Landscapes	8	6	[0, 0, 0]	n/a	catFR1	5	R1662S
689.675	1.6	1258154	WORD	n/a	wordpools/wordpool_categorized_EN.txt	SATIN	Fabric	9	6	[0, 0, 0]	n/a	catFR1	5	R1662S
691.275	0.909	1259746	WORD_OFF	n/a	n/a	SATIN	Fabric	9	6	[0, 0, 0]	n/a	catFR1	5	R1662S
692.184	1.6	1260658	WORD	n/a	wordpools/wordpool_categorized_EN.txt	WOOL	Fabric	10	6	[0, 0, 0]	n/a	catFR1	5	R1662S
693.784	0.849	1262261	WORD_OFF	n/a	n/a	WOOL	Fabric	10	6	[0, 0, 0]	n/a	catFR1	5	R1662S
694.633	1.6	1263114	WORD	n/a	wordpools/wordpool_categorized_EN.txt	MIXER	Appliances	11	6	[0, 0, 0]	n/a	catFR1	5	R1662S
696.233	0.799	1264706	WORD_OFF	n/a	n/a	MIXER	Appliances	11	6	[0, 0, 0]	n/a	catFR1	5	R1662S
697.032	1.601	1265502	WORD	n/a	wordpools/wordpool_categorized_EN.txt	FREEZER	Appliances	12	6	[0, 0, 0]	n/a	catFR1	5	R1662S
698.633	0.002	1267103	PROB	4.041	n/a	n/a	n/a	-999	6	[5, 7, 4]	16.0	catFR1	5	R1662S
698.635	0.003	1267106	WORD_OFF	n/a	n/a	FREEZER	Appliances	12	6	[0, 0, 0]	n/a	catFR1	5	R1662S
698.638	0.0	1267108	START	n/a	n/a	n/a	n/a	-999	6	[-999, -999, -999]	n/a	catFR1	5	R1662S
698.638	0.0	1267117	ENCODING_END	n/a	n/a	n/a	n/a	-999	6	[0, 0, 0]	n/a	catFR1	5	R1662S
698.638	4.046	1267117	DISTRACT_START	n/a	n/a	n/a	n/a	-999	6	[0, 0, 0]	n/a	catFR1	5	R1662S
702.684	2.424	1271154	PROB	2.416	n/a	n/a	n/a	-999	6	[3, 8, 2]	13.0	catFR1	5	R1662S
705.108	3.145	1273578	PROB	3.133	n/a	n/a	n/a	-999	6	[4, 5, 1]	10.0	catFR1	5	R1662S
708.253	4.213	1276723	PROB	4.208	n/a	n/a	n/a	-999	6	[8, 6, 8]	22.0	catFR1	5	R1662S
712.466	3.042	1280936	PROB	3.033	n/a	n/a	n/a	-999	6	[5, 5, 6]	16.0	catFR1	5	R1662S
715.508	2.776	1283978	PROB	2.766	n/a	n/a	n/a	-999	6	[7, 2, 3]	12.0	catFR1	5	R1662S
718.284	2.291	1286754	PROB	2.283	n/a	n/a	n/a	-999	6	[1, 5, 3]	9.0	catFR1	5	R1662S
720.575	0.0	1289045	STOP	n/a	n/a	n/a	n/a	-999	6	[-999, -999, -999]	n/a	catFR1	5	R1662S
720.575	2.315	1289056	DISTRACT_END	n/a	n/a	n/a	n/a	-999	6	[0, 0, 0]	n/a	catFR1	5	R1662S
722.89	0.331	1291363	REC_START	n/a	n/a	n/a	n/a	-999	6	[0, 0, 0]	n/a	catFR1	5	R1662S
723.221	0.761	1291691	REC_WORD	0.331	n/a	LEATHER	Fabric	5	6	[0, 0, 0]	n/a	catFR1	5	R1662S
723.982	0.977	1292452	REC_WORD	1.092	n/a	MIXER	Appliances	11	6	[0, 0, 0]	n/a	catFR1	5	R1662S
724.959	0.699	1293429	REC_WORD	2.069	n/a	WOOL	Fabric	10	6	[0, 0, 0]	n/a	catFR1	5	R1662S
725.658	3.605	1294128	REC_WORD	2.768	n/a	SATIN	Fabric	9	6	[0, 0, 0]	n/a	catFR1	5	R1662S
729.263	7.286	1297733	REC_WORD_VV	6.373	n/a	<>	n/a	-999	6	[0, 0, 0]	n/a	catFR1	5	R1662S
736.549	1.318	1305019	REC_WORD	13.659	n/a	FOREST	Landscapes	2	6	[0, 0, 0]	n/a	catFR1	5	R1662S
737.867	1.635	1306337	REC_WORD	14.977	n/a	HILLS	Landscapes	8	6	[0, 0, 0]	n/a	catFR1	5	R1662S
739.502	3.673	1307972	REC_WORD	16.612	n/a	MOUNTAIN	n/a	-999	6	[0, 0, 0]	n/a	catFR1	5	R1662S
743.175	7.576	1311645	REC_WORD	20.285	n/a	LAKE	Landscapes	1	6	[0, 0, 0]	n/a	catFR1	5	R1662S
750.751	0.638	1319221	REC_WORD	27.861	n/a	OCEAN	Landscapes	-999	6	[0, 0, 0]	n/a	catFR1	5	R1662S
751.389	1.645	1319859	REC_WORD_VV	28.499	n/a	<>	n/a	-999	6	[0, 0, 0]	n/a	catFR1	5	R1662S
753.034	1.99	1321504	REC_END	n/a	n/a	n/a	n/a	-999	6	[0, 0, 0]	n/a	catFR1	5	R1662S
755.024	10.345	1323500	COUNTDOWN_START	n/a	n/a	n/a	n/a	-999	7	[0, 0, 0]	n/a	catFR1	5	R1662S
765.369	0.0	1333846	COUNTDOWN_END	n/a	n/a	n/a	n/a	-999	7	[0, 0, 0]	n/a	catFR1	5	R1662S
765.369	1.923	1333846	ENCODING_START	n/a	n/a	n/a	n/a	-999	7	[0, 0, 0]	n/a	catFR1	5	R1662S
767.292	1.609	1335773	WORD	n/a	wordpools/wordpool_categorized_EN.txt	GORILLA	Zoo	1	7	[0, 0, 0]	n/a	catFR1	5	R1662S
768.901	0.982	1337376	WORD_OFF	n/a	n/a	GORILLA	Zoo	1	7	[0, 0, 0]	n/a	catFR1	5	R1662S
769.883	1.609	1338356	WORD	n/a	wordpools/wordpool_categorized_EN.txt	TIGER	Zoo	2	7	[0, 0, 0]	n/a	catFR1	5	R1662S
771.492	0.966	1339971	WORD_OFF	n/a	n/a	TIGER	Zoo	2	7	[0, 0, 0]	n/a	catFR1	5	R1662S
772.458	1.601	1340929	WORD	n/a	wordpools/wordpool_categorized_EN.txt	FORK	KitchenTools	3	7	[0, 0, 0]	n/a	catFR1	5	R1662S
774.059	0.792	1342532	WORD_OFF	n/a	n/a	FORK	KitchenTools	3	7	[0, 0, 0]	n/a	catFR1	5	R1662S
774.851	1.602	1343328	WORD	n/a	wordpools/wordpool_categorized_EN.txt	KNIFE	KitchenTools	4	7	[0, 0, 0]	n/a	catFR1	5	R1662S
776.453	0.947	1344931	WORD_OFF	n/a	n/a	KNIFE	KitchenTools	4	7	[0, 0, 0]	n/a	catFR1	5	R1662S
777.4	1.6	1345877	WORD	n/a	wordpools/wordpool_categorized_EN.txt	SUEDE	Fabric	5	7	[0, 0, 0]	n/a	catFR1	5	R1662S
779.0	0.849	1347481	WORD_OFF	n/a	n/a	SUEDE	Fabric	5	7	[0, 0, 0]	n/a	catFR1	5	R1662S
779.849	1.601	1348323	WORD	n/a	wordpools/wordpool_categorized_EN.txt	DENIM	Fabric	6	7	[0, 0, 0]	n/a	catFR1	5	R1662S
781.45	0.757	1349926	WORD_OFF	n/a	n/a	DENIM	Fabric	6	7	[0, 0, 0]	n/a	catFR1	5	R1662S
782.207	1.6	1350676	WORD	n/a	wordpools/wordpool_categorized_EN.txt	GIRAFFE	Zoo	7	7	[0, 0, 0]	n/a	catFR1	5	R1662S
783.807	0.85	1352279	WORD_OFF	n/a	n/a	GIRAFFE	Zoo	7	7	[0, 0, 0]	n/a	catFR1	5	R1662S
784.657	1.601	1353133	WORD	n/a	wordpools/wordpool_categorized_EN.txt	ZEBRA	Zoo	8	7	[0, 0, 0]	n/a	catFR1	5	R1662S
786.258	0.866	1354736	WORD_OFF	n/a	n/a	ZEBRA	Zoo	8	7	[0, 0, 0]	n/a	catFR1	5	R1662S
787.124	1.601	1355601	WORD	n/a	wordpools/wordpool_categorized_EN.txt	STRAINER	KitchenTools	9	7	[0, 0, 0]	n/a	catFR1	5	R1662S
788.725	0.817	1357204	WORD_OFF	n/a	n/a	STRAINER	KitchenTools	9	7	[0, 0, 0]	n/a	catFR1	5	R1662S
789.542	1.607	1358013	WORD	n/a	wordpools/wordpool_categorized_EN.txt	CORKSCREW	KitchenTools	10	7	[0, 0, 0]	n/a	catFR1	5	R1662S
791.149	0.984	1359627	WORD_OFF	n/a	n/a	CORKSCREW	KitchenTools	10	7	[0, 0, 0]	n/a	catFR1	5	R1662S
792.133	1.601	1360607	WORD	n/a	wordpools/wordpool_categorized_EN.txt	SILK	Fabric	11	7	[0, 0, 0]	n/a	catFR1	5	R1662S
793.734	0.934	1362211	WORD_OFF	n/a	n/a	SILK	Fabric	11	7	[0, 0, 0]	n/a	catFR1	5	R1662S
794.668	1.6	1363145	WORD	n/a	wordpools/wordpool_categorized_EN.txt	NYLON	Fabric	12	7	[0, 0, 0]	n/a	catFR1	5	R1662S
796.268	0.0	1364737	WORD_OFF	n/a	n/a	NYLON	Fabric	12	7	[0, 0, 0]	n/a	catFR1	5	R1662S
796.268	0.002	1364738	PROB	5.123	n/a	n/a	n/a	-999	7	[4, 4, 5]	13.0	catFR1	5	R1662S
796.27	0.0	1364740	START	n/a	n/a	n/a	n/a	-999	7	[-999, -999, -999]	n/a	catFR1	5	R1662S
796.27	0.0	1364748	ENCODING_END	n/a	n/a	n/a	n/a	-999	7	[0, 0, 0]	n/a	catFR1	5	R1662S
796.27	5.131	1364748	DISTRACT_START	n/a	n/a	n/a	n/a	-999	7	[0, 0, 0]	n/a	catFR1	5	R1662S
801.401	3.357	1369871	PROB	3.349	n/a	n/a	n/a	-999	7	[5, 6, 8]	19.0	catFR1	5	R1662S
804.758	2.492	1373228	PROB	2.483	n/a	n/a	n/a	-999	7	[1, 1, 8]	10.0	catFR1	5	R1662S
807.25	3.434	1375720	PROB	3.424	n/a	n/a	n/a	-999	7	[1, 2, 7]	10.0	catFR1	5	R1662S
810.684	3.717	1379154	PROB	3.708	n/a	n/a	n/a	-999	7	[6, 5, 2]	13.0	catFR1	5	R1662S
814.401	12.124	1382871	PROB	12.115	n/a	n/a	n/a	-999	7	[4, 4, 7]	15.0	catFR1	5	R1662S
826.525	0.0	1394995	STOP	n/a	n/a	n/a	n/a	-999	7	[-999, -999, -999]	n/a	catFR1	5	R1662S
826.525	2.325	1395004	DISTRACT_END	n/a	n/a	n/a	n/a	-999	7	[0, 0, 0]	n/a	catFR1	5	R1662S
828.85	0.416	1397323	REC_START	n/a	n/a	n/a	n/a	-999	7	[0, 0, 0]	n/a	catFR1	5	R1662S
829.266	0.651	1397736	REC_WORD	0.416	n/a	LION	n/a	-999	7	[0, 0, 0]	n/a	catFR1	5	R1662S
829.917	1.34	1398387	REC_WORD	1.067	n/a	TIGER	Zoo	2	7	[0, 0, 0]	n/a	catFR1	5	R1662S
831.257	0.96	1399727	REC_WORD	2.407	n/a	FORK	KitchenTools	3	7	[0, 0, 0]	n/a	catFR1	5	R1662S
832.217	0.717	1400687	REC_WORD	3.367	n/a	KNIFE	KitchenTools	4	7	[0, 0, 0]	n/a	catFR1	5	R1662S
832.934	1.076	1401404	REC_WORD	4.084	n/a	SUEDE	Fabric	5	7	[0, 0, 0]	n/a	catFR1	5	R1662S
834.01	8.2	1402480	REC_WORD	5.16	n/a	DENIM	Fabric	6	7	[0, 0, 0]	n/a	catFR1	5	R1662S
842.21	1.664	1410680	REC_WORD	13.36	n/a	PANTS	n/a	-999	7	[0, 0, 0]	n/a	catFR1	5	R1662S
843.874	2.276	1412344	REC_WORD_VV	15.024	n/a	<>	n/a	-999	7	[0, 0, 0]	n/a	catFR1	5	R1662S
846.15	1.409	1414620	REC_WORD	17.3	n/a	ZEBRA	Zoo	8	7	[0, 0, 0]	n/a	catFR1	5	R1662S
847.559	5.454	1416029	REC_WORD	18.709	n/a	GORILLA	Zoo	1	7	[0, 0, 0]	n/a	catFR1	5	R1662S
853.013	4.761	1421483	REC_WORD_VV	24.163	n/a	<>	n/a	-999	7	[0, 0, 0]	n/a	catFR1	5	R1662S
857.774	0.86	1426244	REC_WORD_VV	28.924	n/a	<>	n/a	-999	7	[0, 0, 0]	n/a	catFR1	5	R1662S
858.634	0.359	1427104	REC_WORD	29.784	n/a	CORKSCREW	KitchenTools	10	7	[0, 0, 0]	n/a	catFR1	5	R1662S
858.993	4.114	1427463	REC_END	n/a	n/a	n/a	n/a	-999	7	[0, 0, 0]	n/a	catFR1	5	R1662S
863.107	10.342	1431581	COUNTDOWN_START	n/a	n/a	n/a	n/a	-999	8	[0, 0, 0]	n/a	catFR1	5	R1662S
873.449	0.0	1441928	COUNTDOWN_END	n/a	n/a	n/a	n/a	-999	8	[0, 0, 0]	n/a	catFR1	5	R1662S
873.449	2.308	1441928	ENCODING_START	n/a	n/a	n/a	n/a	-999	8	[0, 0, 0]	n/a	catFR1	5	R1662S
875.757	1.6	1444235	WORD	n/a	wordpools/wordpool_categorized_EN.txt	PUZZLE	Toys	1	8	[0, 0, 0]	n/a	catFR1	5	R1662S
877.357	0.96	1445827	WORD_OFF	n/a	n/a	PUZZLE	Toys	1	8	[0, 0, 0]	n/a	catFR1	5	R1662S
878.317	1.6	1446796	WORD	n/a	wordpools/wordpool_categorized_EN.txt	SLINKY	Toys	2	8	[0, 0, 0]	n/a	catFR1	5	R1662S
879.917	0.933	1448388	WORD_OFF	n/a	n/a	SLINKY	Toys	2	8	[0, 0, 0]	n/a	catFR1	5	R1662S
880.85	1.6	1449322	WORD	n/a	wordpools/wordpool_categorized_EN.txt	PHONE	Electronics	3	8	[0, 0, 0]	n/a	catFR1	5	R1662S
882.45	0.816	1450925	WORD_OFF	n/a	n/a	PHONE	Electronics	3	8	[0, 0, 0]	n/a	catFR1	5	R1662S
883.266	1.601	1451744	WORD	n/a	wordpools/wordpool_categorized_EN.txt	CALCULATOR	Electronics	4	8	[0, 0, 0]	n/a	catFR1	5	R1662S
884.867	0.974	1453336	WORD_OFF	n/a	n/a	CALCULATOR	Electronics	4	8	[0, 0, 0]	n/a	catFR1	5	R1662S
885.841	1.6	1454317	WORD	n/a	wordpools/wordpool_categorized_EN.txt	MAPLE	Trees	5	8	[0, 0, 0]	n/a	catFR1	5	R1662S
887.441	0.941	1455920	WORD_OFF	n/a	n/a	MAPLE	Trees	5	8	[0, 0, 0]	n/a	catFR1	5	R1662S
888.382	1.602	1456854	WORD	n/a	wordpools/wordpool_categorized_EN.txt	PINE	Trees	6	8	[0, 0, 0]	n/a	catFR1	5	R1662S
889.984	0.974	1458458	WORD_OFF	n/a	n/a	PINE	Trees	6	8	[0, 0, 0]	n/a	catFR1	5	R1662S
890.958	1.609	1459438	WORD	n/a	wordpools/wordpool_categorized_EN.txt	DOLLHOUSE	Toys	7	8	[0, 0, 0]	n/a	catFR1	5	R1662S
892.567	0.892	1461041	WORD_OFF	n/a	n/a	DOLLHOUSE	Toys	7	8	[0, 0, 0]	n/a	catFR1	5	R1662S
893.459	1.607	1461941	WORD	n/a	wordpools/wordpool_categorized_EN.txt	BARBIE	Toys	8	8	[0, 0, 0]	n/a	catFR1	5	R1662S
895.066	0.826	1463544	WORD_OFF	n/a	n/a	BARBIE	Toys	8	8	[0, 0, 0]	n/a	catFR1	5	R1662S
895.892	1.608	1464363	WORD	n/a	wordpools/wordpool_categorized_EN.txt	STEREO	Electronics	9	8	[0, 0, 0]	n/a	catFR1	5	R1662S
897.5	0.991	1465978	WORD_OFF	n/a	n/a	STEREO	Electronics	9	8	[0, 0, 0]	n/a	catFR1	5	R1662S
898.491	1.601	1466970	WORD	n/a	wordpools/wordpool_categorized_EN.txt	MICROWAVE	Electronics	10	8	[0, 0, 0]	n/a	catFR1	5	R1662S
900.092	0.891	1468574	WORD_OFF	n/a	n/a	MICROWAVE	Electronics	10	8	[0, 0, 0]	n/a	catFR1	5	R1662S
900.983	1.601	1469462	WORD	n/a	wordpools/wordpool_categorized_EN.txt	CYPRESS	Trees	11	8	[0, 0, 0]	n/a	catFR1	5	R1662S
902.584	0.758	1471065	WORD_OFF	n/a	n/a	CYPRESS	Trees	11	8	[0, 0, 0]	n/a	catFR1	5	R1662S
903.342	1.599	1471815	WORD	n/a	wordpools/wordpool_categorized_EN.txt	WALNUT	Trees	12	8	[0, 0, 0]	n/a	catFR1	5	R1662S
904.941	0.004	1473411	PROB	5.883	n/a	n/a	n/a	-999	8	[7, 4, 7]	18.0	catFR1	5	R1662S
904.945	0.0	1473415	START	n/a	n/a	n/a	n/a	-999	8	[-999, -999, -999]	n/a	catFR1	5	R1662S
904.942	0.002	1473418	WORD_OFF	n/a	n/a	WALNUT	Trees	12	8	[0, 0, 0]	n/a	catFR1	5	R1662S
904.944	0.001	1473418	ENCODING_END	n/a	n/a	n/a	n/a	-999	8	[0, 0, 0]	n/a	catFR1	5	R1662S
904.945	5.888	1473418	DISTRACT_START	n/a	n/a	n/a	n/a	-999	8	[0, 0, 0]	n/a	catFR1	5	R1662S
910.833	2.909	1479303	PROB	2.899	n/a	n/a	n/a	-999	8	[3, 4, 2]	9.0	catFR1	5	R1662S
913.742	2.383	1482212	PROB	2.374	n/a	n/a	n/a	-999	8	[3, 4, 6]	13.0	catFR1	5	R1662S
916.125	3.499	1484595	PROB	3.49	n/a	n/a	n/a	-999	8	[5, 1, 4]	10.0	catFR1	5	R1662S
919.624	3.218	1488094	PROB	3.208	n/a	n/a	n/a	-999	8	[8, 1, 3]	12.0	catFR1	5	R1662S
922.842	2.623	1491312	PROB	2.616	n/a	n/a	n/a	-999	8	[4, 2, 4]	8.0	catFR1	5	R1662S
925.465	0.0	1493935	STOP	n/a	n/a	n/a	n/a	-999	8	[-999, -999, -999]	n/a	catFR1	5	R1662S
925.465	2.092	1493939	DISTRACT_END	n/a	n/a	n/a	n/a	-999	8	[0, 0, 0]	n/a	catFR1	5	R1662S
927.557	2.681	1496038	REC_START	n/a	n/a	n/a	n/a	-999	8	[0, 0, 0]	n/a	catFR1	5	R1662S
930.238	0.863	1498708	REC_WORD	2.681	n/a	MAPLE	Trees	5	8	[0, 0, 0]	n/a	catFR1	5	R1662S
931.101	4.594	1499571	REC_WORD	3.544	n/a	PINE	Trees	6	8	[0, 0, 0]	n/a	catFR1	5	R1662S
935.695	3.562	1504165	REC_WORD	8.138	n/a	DOLLHOUSE	Toys	7	8	[0, 0, 0]	n/a	catFR1	5	R1662S
939.257	3.596	1507727	REC_WORD	11.7	n/a	CYPRESS	Trees	11	8	[0, 0, 0]	n/a	catFR1	5	R1662S
942.853	5.129	1511323	REC_WORD	15.296	n/a	CALCULATOR	Electronics	4	8	[0, 0, 0]	n/a	catFR1	5	R1662S
947.982	5.777	1516452	REC_WORD_VV	20.425	n/a	<>	n/a	-999	8	[0, 0, 0]	n/a	catFR1	5	R1662S
953.759	3.935	1522229	REC_WORD_VV	26.202	n/a	<>	n/a	-999	8	[0, 0, 0]	n/a	catFR1	5	R1662S
957.694	1.907	1526167	REC_END	n/a	n/a	n/a	n/a	-999	8	[0, 0, 0]	n/a	catFR1	5	R1662S
959.601	10.339	1528082	COUNTDOWN_START	n/a	n/a	n/a	n/a	-999	9	[0, 0, 0]	n/a	catFR1	5	R1662S
969.94	0.0	1538417	COUNTDOWN_END	n/a	n/a	n/a	n/a	-999	9	[0, 0, 0]	n/a	catFR1	5	R1662S
969.94	2.151	1538417	ENCODING_START	n/a	n/a	n/a	n/a	-999	9	[0, 0, 0]	n/a	catFR1	5	R1662S
972.091	1.608	1540563	WORD	n/a	wordpools/wordpool_categorized_EN.txt	BOOKCASE	Furniture	1	9	[0, 0, 0]	n/a	catFR1	5	R1662S
973.699	0.942	1542178	WORD_OFF	n/a	n/a	BOOKCASE	Furniture	1	9	[0, 0, 0]	n/a	catFR1	5	R1662S
974.641	1.6	1543112	WORD	n/a	wordpools/wordpool_categorized_EN.txt	CABINET	Furniture	2	9	[0, 0, 0]	n/a	catFR1	5	R1662S
976.241	0.941	1544715	WORD_OFF	n/a	n/a	CABINET	Furniture	2	9	[0, 0, 0]	n/a	catFR1	5	R1662S
977.182	1.602	1545661	WORD	n/a	wordpools/wordpool_categorized_EN.txt	ANT	Insects	3	9	[0, 0, 0]	n/a	catFR1	5	R1662S
978.784	0.798	1547265	WORD_OFF	n/a	n/a	ANT	Insects	3	9	[0, 0, 0]	n/a	catFR1	5	R1662S
979.582	1.601	1548060	WORD	n/a	wordpools/wordpool_categorized_EN.txt	MOTH	Insects	4	9	[0, 0, 0]	n/a	catFR1	5	R1662S
981.183	0.859	1549664	WORD_OFF	n/a	n/a	MOTH	Insects	4	9	[0, 0, 0]	n/a	catFR1	5	R1662S
982.042	1.608	1550517	WORD	n/a	wordpools/wordpool_categorized_EN.txt	WALL	Building	5	9	[0, 0, 0]	n/a	catFR1	5	R1662S
983.65	0.759	1552121	WORD_OFF	n/a	n/a	WALL	Building	5	9	[0, 0, 0]	n/a	catFR1	5	R1662S
984.409	1.607	1552882	WORD	n/a	wordpools/wordpool_categorized_EN.txt	ATTIC	Building	6	9	[0, 0, 0]	n/a	catFR1	5	R1662S
986.016	0.816	1554485	WORD_OFF	n/a	n/a	ATTIC	Building	6	9	[0, 0, 0]	n/a	catFR1	5	R1662S
986.832	1.601	1555304	WORD	n/a	wordpools/wordpool_categorized_EN.txt	NIGHTSTAND	Furniture	7	9	[0, 0, 0]	n/a	catFR1	5	R1662S
988.433	0.991	1556908	WORD_OFF	n/a	n/a	NIGHTSTAND	Furniture	7	9	[0, 0, 0]	n/a	catFR1	5	R1662S
989.424	1.608	1557900	WORD	n/a	wordpools/wordpool_categorized_EN.txt	COUCH	Furniture	8	9	[0, 0, 0]	n/a	catFR1	5	R1662S
991.032	0.833	1559503	WORD_OFF	n/a	n/a	COUCH	Furniture	8	9	[0, 0, 0]	n/a	catFR1	5	R1662S
991.865	1.601	1560345	WORD	n/a	wordpools/wordpool_categorized_EN.txt	BUTTERFLY	Insects	9	9	[0, 0, 0]	n/a	catFR1	5	R1662S
993.466	0.808	1561948	WORD_OFF	n/a	n/a	BUTTERFLY	Insects	9	9	[0, 0, 0]	n/a	catFR1	5	R1662S
994.274	1.6	1562744	WORD	n/a	wordpools/wordpool_categorized_EN.txt	BEE	Insects	10	9	[0, 0, 0]	n/a	catFR1	5	R1662S
995.874	0.968	1564348	WORD_OFF	n/a	n/a	BEE	Insects	10	9	[0, 0, 0]	n/a	catFR1	5	R1662S
996.842	1.601	1565317	WORD	n/a	wordpools/wordpool_categorized_EN.txt	HALLWAY	Building	11	9	[0, 0, 0]	n/a	catFR1	5	R1662S
998.443	0.948	1566920	WORD_OFF	n/a	n/a	HALLWAY	Building	11	9	[0, 0, 0]	n/a	catFR1	5	R1662S
999.391	1.609	1567866	WORD	n/a	wordpools/wordpool_categorized_EN.txt	ROOM	Building	12	9	[0, 0, 0]	n/a	catFR1	5	R1662S
1001.0	0.003	1569470	PROB	3.208	n/a	n/a	n/a	-999	9	[7, 6, 3]	16.0	catFR1	5	R1662S
1001.003	0.0	1569473	START	n/a	n/a	n/a	n/a	-999	9	[-999, -999, -999]	n/a	catFR1	5	R1662S
1001.0	0.003	1569481	WORD_OFF	n/a	n/a	ROOM	Building	12	9	[0, 0, 0]	n/a	catFR1	5	R1662S
1001.003	0.0	1569481	ENCODING_END	n/a	n/a	n/a	n/a	-999	9	[0, 0, 0]	n/a	catFR1	5	R1662S
1001.003	3.213	1569481	DISTRACT_START	n/a	n/a	n/a	n/a	-999	9	[0, 0, 0]	n/a	catFR1	5	R1662S
1004.216	1.95	1572686	PROB	1.942	n/a	n/a	n/a	-999	9	[1, 1, 4]	6.0	catFR1	5	R1662S
1006.166	3.909	1574637	PROB	3.9	n/a	n/a	n/a	-999	9	[6, 7, 2]	15.0	catFR1	5	R1662S
1010.075	2.241	1578546	PROB	2.233	n/a	n/a	n/a	-999	9	[1, 3, 1]	5.0	catFR1	5	R1662S
1012.316	3.334	1580787	PROB	3.324	n/a	n/a	n/a	-999	9	[6, 4, 4]	14.0	catFR1	5	R1662S
1015.65	4.458	1584121	PROB	4.449	n/a	n/a	n/a	-999	9	[8, 3, 6]	17.0	catFR1	5	R1662S
1020.108	3.966	1588579	PROB	3.958	n/a	n/a	n/a	-999	9	[2, 7, 5]	14.0	catFR1	5	R1662S
1024.074	0.0	1592545	STOP	n/a	n/a	n/a	n/a	-999	9	[-999, -999, -999]	n/a	catFR1	5	R1662S
1024.074	2.358	1592550	DISTRACT_END	n/a	n/a	n/a	n/a	-999	9	[0, 0, 0]	n/a	catFR1	5	R1662S
1026.432	1.826	1594904	REC_START	n/a	n/a	n/a	n/a	-999	9	[0, 0, 0]	n/a	catFR1	5	R1662S
1028.258	0.639	1596729	REC_WORD	1.826	n/a	NIGHTSTAND	Furniture	7	9	[0, 0, 0]	n/a	catFR1	5	R1662S
1028.897	0.728	1597368	REC_WORD	2.465	n/a	HALLWAY	Building	11	9	[0, 0, 0]	n/a	catFR1	5	R1662S
1029.625	3.279	1598096	REC_WORD	3.193	n/a	ROOM	Building	12	9	[0, 0, 0]	n/a	catFR1	5	R1662S
1032.904	2.547	1601375	REC_WORD	6.472	n/a	ANT	Insects	3	9	[0, 0, 0]	n/a	catFR1	5	R1662S
1035.451	4.317	1603922	REC_WORD	9.019	n/a	MOTH	Insects	4	9	[0, 0, 0]	n/a	catFR1	5	R1662S
1039.768	1.216	1608239	REC_WORD	13.336	n/a	BEETLE	Insects	-999	9	[0, 0, 0]	n/a	catFR1	5	R1662S
1040.984	1.41	1609455	REC_WORD_VV	14.552	n/a	<>	n/a	-999	9	[0, 0, 0]	n/a	catFR1	5	R1662S
1042.394	2.7	1610865	REC_WORD_VV	15.962	n/a	<>	n/a	-999	9	[0, 0, 0]	n/a	catFR1	5	R1662S
1045.094	6.109	1613565	REC_WORD	18.662	n/a	MICROWAVE	Electronics	-999	9	[0, 0, 0]	n/a	catFR1	5	R1662S
1051.203	5.375	1619674	REC_WORD_VV	24.771	n/a	<>	n/a	-999	9	[0, 0, 0]	n/a	catFR1	5	R1662S
1056.578	6.046	1625056	REC_END	n/a	n/a	n/a	n/a	-999	9	[0, 0, 0]	n/a	catFR1	5	R1662S
1062.624	10.343	1631100	COUNTDOWN_START	n/a	n/a	n/a	n/a	-999	10	[0, 0, 0]	n/a	catFR1	5	R1662S
1072.967	0.0	1641447	COUNTDOWN_END	n/a	n/a	n/a	n/a	-999	10	[0, 0, 0]	n/a	catFR1	5	R1662S
1072.967	2.166	1641447	ENCODING_START	n/a	n/a	n/a	n/a	-999	10	[0, 0, 0]	n/a	catFR1	5	R1662S
1075.133	1.608	1643604	WORD	n/a	wordpools/wordpool_categorized_EN.txt	LINEN	Fabric	1	10	[0, 0, 0]	n/a	catFR1	5	R1662S
1076.741	0.827	1645219	WORD_OFF	n/a	n/a	LINEN	Fabric	1	10	[0, 0, 0]	n/a	catFR1	5	R1662S
1077.568	1.606	1646049	WORD	n/a	wordpools/wordpool_categorized_EN.txt	VELVET	Fabric	2	10	[0, 0, 0]	n/a	catFR1	5	R1662S
1079.174	0.858	1647653	WORD_OFF	n/a	n/a	VELVET	Fabric	2	10	[0, 0, 0]	n/a	catFR1	5	R1662S
1080.032	1.61	1648506	WORD	n/a	wordpools/wordpool_categorized_EN.txt	BLENDER	Appliances	3	10	[0, 0, 0]	n/a	catFR1	5	R1662S
1081.642	0.899	1650121	WORD_OFF	n/a	n/a	BLENDER	Appliances	3	10	[0, 0, 0]	n/a	catFR1	5	R1662S
1082.541	1.609	1651009	WORD	n/a	wordpools/wordpool_categorized_EN.txt	REFRIGERATOR	Appliances	4	10	[0, 0, 0]	n/a	catFR1	5	R1662S
1084.15	0.975	1652624	WORD_OFF	n/a	n/a	REFRIGERATOR	Appliances	4	10	[0, 0, 0]	n/a	catFR1	5	R1662S
1085.125	1.608	1653605	WORD	n/a	wordpools/wordpool_categorized_EN.txt	SEAGULL	Birds	5	10	[0, 0, 0]	n/a	catFR1	5	R1662S
1086.733	0.966	1655208	WORD_OFF	n/a	n/a	SEAGULL	Birds	5	10	[0, 0, 0]	n/a	catFR1	5	R1662S
1087.699	1.602	1656177	WORD	n/a	wordpools/wordpool_categorized_EN.txt	ROBIN	Birds	6	10	[0, 0, 0]	n/a	catFR1	5	R1662S
1089.301	0.808	1657780	WORD_OFF	n/a	n/a	ROBIN	Birds	6	10	[0, 0, 0]	n/a	catFR1	5	R1662S
1090.109	1.607	1658588	WORD	n/a	wordpools/wordpool_categorized_EN.txt	WASHER	Appliances	7	10	[0, 0, 0]	n/a	catFR1	5	R1662S
1091.716	0.799	1660191	WORD_OFF	n/a	n/a	WASHER	Appliances	7	10	[0, 0, 0]	n/a	catFR1	5	R1662S
1092.515	1.602	1660987	WORD	n/a	wordpools/wordpool_categorized_EN.txt	VACUUM	Appliances	8	10	[0, 0, 0]	n/a	catFR1	5	R1662S
1094.117	0.981	1662590	WORD_OFF	n/a	n/a	VACUUM	Appliances	8	10	[0, 0, 0]	n/a	catFR1	5	R1662S
1095.098	1.602	1663571	WORD	n/a	wordpools/wordpool_categorized_EN.txt	CARDINAL	Birds	9	10	[0, 0, 0]	n/a	catFR1	5	R1662S
1096.7	0.859	1665174	WORD_OFF	n/a	n/a	CARDINAL	Birds	9	10	[0, 0, 0]	n/a	catFR1	5	R1662S
1097.559	1.607	1666039	WORD	n/a	wordpools/wordpool_categorized_EN.txt	PIGEON	Birds	10	10	[0, 0, 0]	n/a	catFR1	5	R1662S
1099.166	0.894	1667643	WORD_OFF	n/a	n/a	PIGEON	Birds	10	10	[0, 0, 0]	n/a	catFR1	5	R1662S
1100.06	1.605	1668531	WORD	n/a	wordpools/wordpool_categorized_EN.txt	COTTON	Fabric	11	10	[0, 0, 0]	n/a	catFR1	5	R1662S
1101.665	0.968	1670134	WORD_OFF	n/a	n/a	COTTON	Fabric	11	10	[0, 0, 0]	n/a	catFR1	5	R1662S
1102.633	1.6	1671103	WORD	n/a	wordpools/wordpool_categorized_EN.txt	FLEECE	Fabric	12	10	[0, 0, 0]	n/a	catFR1	5	R1662S
1104.233	0.0	1672704	PROB	2.883	n/a	n/a	n/a	-999	10	[8, 4, 2]	14.0	catFR1	5	R1662S
1104.233	0.004	1672706	WORD_OFF	n/a	n/a	FLEECE	Fabric	12	10	[0, 0, 0]	n/a	catFR1	5	R1662S
1104.237	0.0	1672706	ENCODING_END	n/a	n/a	n/a	n/a	-999	10	[0, 0, 0]	n/a	catFR1	5	R1662S
1104.237	0.0	1672708	START	n/a	n/a	n/a	n/a	-999	10	[-999, -999, -999]	n/a	catFR1	5	R1662S
1104.237	2.887	1672718	DISTRACT_START	n/a	n/a	n/a	n/a	-999	10	[0, 0, 0]	n/a	catFR1	5	R1662S
1107.124	2.692	1675595	PROB	2.683	n/a	n/a	n/a	-999	10	[6, 6, 4]	16.0	catFR1	5	R1662S
1109.816	3.717	1678287	PROB	3.707	n/a	n/a	n/a	-999	10	[8, 3, 4]	15.0	catFR1	5	R1662S
1113.533	3.233	1682004	PROB	3.224	n/a	n/a	n/a	-999	10	[1, 8, 7]	16.0	catFR1	5	R1662S
1116.766	5.891	1685237	PROB	5.882	n/a	n/a	n/a	-999	10	[5, 7, 8]	20.0	catFR1	5	R1662S
1122.657	4.583	1691128	PROB	4.574	n/a	n/a	n/a	-999	10	[6, 3, 2]	11.0	catFR1	5	R1662S
1127.24	0.0	1695711	STOP	n/a	n/a	n/a	n/a	-999	10	[-999, -999, -999]	n/a	catFR1	5	R1662S
1127.24	2.159	1695718	DISTRACT_END	n/a	n/a	n/a	n/a	-999	10	[0, 0, 0]	n/a	catFR1	5	R1662S
1129.399	0.561	1697875	REC_START	n/a	n/a	n/a	n/a	-999	10	[0, 0, 0]	n/a	catFR1	5	R1662S
1129.96	0.739	1698431	REC_WORD	0.561	n/a	SATIN	Fabric	-999	10	[0, 0, 0]	n/a	catFR1	5	R1662S
1130.699	0.884	1699170	REC_WORD	1.3	n/a	COTTON	Fabric	11	10	[0, 0, 0]	n/a	catFR1	5	R1662S
1131.583	1.022	1700054	REC_WORD	2.184	n/a	FLEECE	Fabric	12	10	[0, 0, 0]	n/a	catFR1	5	R1662S
1132.605	3.316	1701076	REC_WORD	3.206	n/a	WASHER	Appliances	7	10	[0, 0, 0]	n/a	catFR1	5	R1662S
1135.921	5.538	1704392	REC_WORD_VV	6.522	n/a	<>	n/a	-999	10	[0, 0, 0]	n/a	catFR1	5	R1662S
1141.459	13.789	1709930	REC_WORD	12.06	n/a	WOOL	Fabric	-999	10	[0, 0, 0]	n/a	catFR1	5	R1662S
1155.248	0.459	1723719	REC_WORD_VV	25.849	n/a	<>	n/a	-999	10	[0, 0, 0]	n/a	catFR1	5	R1662S
1155.707	0.758	1724178	REC_WORD	26.308	n/a	LINEN	Fabric	1	10	[0, 0, 0]	n/a	catFR1	5	R1662S
1156.465	1.135	1724936	REC_WORD_VV	27.066	n/a	<>	n/a	-999	10	[0, 0, 0]	n/a	catFR1	5	R1662S
1157.6	1.945	1726071	REC_WORD_VV	28.201	n/a	<>	n/a	-999	10	[0, 0, 0]	n/a	catFR1	5	R1662S
1159.545	2.003	1728016	REC_END	n/a	n/a	n/a	n/a	-999	10	[0, 0, 0]	n/a	catFR1	5	R1662S
1161.548	10.342	1730023	COUNTDOWN_START	n/a	n/a	n/a	n/a	-999	11	[0, 0, 0]	n/a	catFR1	5	R1662S
1171.89	0.0	1740358	COUNTDOWN_END	n/a	n/a	n/a	n/a	-999	11	[0, 0, 0]	n/a	catFR1	5	R1662S
1171.89	2.066	1740370	ENCODING_START	n/a	n/a	n/a	n/a	-999	11	[0, 0, 0]	n/a	catFR1	5	R1662S
1173.956	1.6	1742435	WORD	n/a	wordpools/wordpool_categorized_EN.txt	DRESSER	Furniture	1	11	[0, 0, 0]	n/a	catFR1	5	R1662S
1175.556	0.883	1744026	WORD_OFF	n/a	n/a	DRESSER	Furniture	1	11	[0, 0, 0]	n/a	catFR1	5	R1662S
1176.439	1.6	1744915	WORD	n/a	wordpools/wordpool_categorized_EN.txt	SHELF	Furniture	2	11	[0, 0, 0]	n/a	catFR1	5	R1662S
1178.039	0.96	1746518	WORD_OFF	n/a	n/a	SHELF	Furniture	2	11	[0, 0, 0]	n/a	catFR1	5	R1662S
1178.999	1.607	1747475	WORD	n/a	wordpools/wordpool_categorized_EN.txt	MOSQUITO	Insects	3	11	[0, 0, 0]	n/a	catFR1	5	R1662S
1180.606	0.933	1749079	WORD_OFF	n/a	n/a	MOSQUITO	Insects	3	11	[0, 0, 0]	n/a	catFR1	5	R1662S
1181.539	1.611	1750013	WORD	n/a	wordpools/wordpool_categorized_EN.txt	FLY	Insects	4	11	[0, 0, 0]	n/a	catFR1	5	R1662S
1183.15	0.933	1751628	WORD_OFF	n/a	n/a	FLY	Insects	4	11	[0, 0, 0]	n/a	catFR1	5	R1662S
1184.083	1.599	1752562	WORD	n/a	wordpools/wordpool_categorized_EN.txt	JEEP	Vehicles	5	11	[0, 0, 0]	n/a	catFR1	5	R1662S
1185.682	0.957	1754154	WORD_OFF	n/a	n/a	JEEP	Vehicles	5	11	[0, 0, 0]	n/a	catFR1	5	R1662S
1186.639	1.601	1755111	WORD	n/a	wordpools/wordpool_categorized_EN.txt	BUS	Vehicles	6	11	[0, 0, 0]	n/a	catFR1	5	R1662S
1188.24	0.959	1756715	WORD_OFF	n/a	n/a	BUS	Vehicles	6	11	[0, 0, 0]	n/a	catFR1	5	R1662S
1189.199	1.6	1757672	WORD	n/a	wordpools/wordpool_categorized_EN.txt	RECLINER	Furniture	7	11	[0, 0, 0]	n/a	catFR1	5	R1662S
1190.799	0.916	1759276	WORD_OFF	n/a	n/a	RECLINER	Furniture	7	11	[0, 0, 0]	n/a	catFR1	5	R1662S
1191.715	1.6	1760187	WORD	n/a	wordpools/wordpool_categorized_EN.txt	TABLE	Furniture	8	11	[0, 0, 0]	n/a	catFR1	5	R1662S
1193.315	0.809	1761790	WORD_OFF	n/a	n/a	TABLE	Furniture	8	11	[0, 0, 0]	n/a	catFR1	5	R1662S
1194.124	1.6	1762598	WORD	n/a	wordpools/wordpool_categorized_EN.txt	GNAT	Insects	9	11	[0, 0, 0]	n/a	catFR1	5	R1662S
1195.724	0.766	1764201	WORD_OFF	n/a	n/a	GNAT	Insects	9	11	[0, 0, 0]	n/a	catFR1	5	R1662S
1196.49	1.612	1764962	WORD	n/a	wordpools/wordpool_categorized_EN.txt	LADYBUG	Insects	10	11	[0, 0, 0]	n/a	catFR1	5	R1662S
1198.102	0.93	1766577	WORD_OFF	n/a	n/a	LADYBUG	Insects	10	11	[0, 0, 0]	n/a	catFR1	5	R1662S
1199.032	1.601	1767511	WORD	n/a	wordpools/wordpool_categorized_EN.txt	VAN	Vehicles	11	11	[0, 0, 0]	n/a	catFR1	5	R1662S
1200.633	0.923	1769115	WORD_OFF	n/a	n/a	VAN	Vehicles	11	11	[0, 0, 0]	n/a	catFR1	5	R1662S
1201.556	1.603	1770026	WORD	n/a	wordpools/wordpool_categorized_EN.txt	SCOOTER	Vehicles	12	11	[0, 0, 0]	n/a	catFR1	5	R1662S
1203.159	0.0	1771629	WORD_OFF	n/a	n/a	SCOOTER	Vehicles	12	11	[0, 0, 0]	n/a	catFR1	5	R1662S
1203.158	0.004	1771629	PROB	9.415	n/a	n/a	n/a	-999	11	[7, 8, 7]	22.0	catFR1	5	R1662S
1203.162	0.0	1771633	START	n/a	n/a	n/a	n/a	-999	11	[-999, -999, -999]	n/a	catFR1	5	R1662S
1203.162	0.0	1771641	ENCODING_END	n/a	n/a	n/a	n/a	-999	11	[0, 0, 0]	n/a	catFR1	5	R1662S
1203.162	9.42	1771641	DISTRACT_START	n/a	n/a	n/a	n/a	-999	11	[0, 0, 0]	n/a	catFR1	5	R1662S
1212.582	3.916	1781053	PROB	3.907	n/a	n/a	n/a	-999	11	[4, 5, 3]	12.0	catFR1	5	R1662S
1216.498	3.201	1784969	PROB	3.191	n/a	n/a	n/a	-999	11	[6, 6, 7]	19.0	catFR1	5	R1662S
1219.699	3.068	1788170	PROB	3.057	n/a	n/a	n/a	-999	11	[7, 1, 5]	13.0	catFR1	5	R1662S
1222.767	3.49	1791238	PROB	3.483	n/a	n/a	n/a	-999	11	[7, 6, 3]	16.0	catFR1	5	R1662S
1226.257	0.0	1794728	STOP	n/a	n/a	n/a	n/a	-999	11	[-999, -999, -999]	n/a	catFR1	5	R1662S
1226.257	2.074	1794734	DISTRACT_END	n/a	n/a	n/a	n/a	-999	11	[0, 0, 0]	n/a	catFR1	5	R1662S
1228.331	1.629	1796810	REC_START	n/a	n/a	n/a	n/a	-999	11	[0, 0, 0]	n/a	catFR1	5	R1662S
1229.96	1.892	1798431	REC_WORD_VV	1.629	n/a	<>	n/a	-999	11	[0, 0, 0]	n/a	catFR1	5	R1662S
1231.852	0.687	1800323	REC_WORD	3.521	n/a	SCOOTER	Vehicles	12	11	[0, 0, 0]	n/a	catFR1	5	R1662S
1232.539	0.958	1801010	REC_WORD	4.208	n/a	RECLINER	Furniture	7	11	[0, 0, 0]	n/a	catFR1	5	R1662S
1233.497	0.553	1801968	REC_WORD	5.166	n/a	GNAT	Insects	9	11	[0, 0, 0]	n/a	catFR1	5	R1662S
1234.05	3.166	1802521	REC_WORD	5.719	n/a	MOSQUITO	Insects	3	11	[0, 0, 0]	n/a	catFR1	5	R1662S
1237.216	7.516	1805687	REC_WORD	8.885	n/a	REFRIGERATOR	Appliances	-999	11	[0, 0, 0]	n/a	catFR1	5	R1662S
1244.732	2.5	1813203	REC_WORD_VV	16.401	n/a	<>	n/a	-999	11	[0, 0, 0]	n/a	catFR1	5	R1662S
1247.232	1.195	1815703	REC_WORD	18.901	n/a	VAN	Vehicles	11	11	[0, 0, 0]	n/a	catFR1	5	R1662S
1248.427	1.231	1816898	REC_WORD	20.096	n/a	JEEP	Vehicles	5	11	[0, 0, 0]	n/a	catFR1	5	R1662S
1249.658	7.906	1818129	REC_WORD	21.327	n/a	BUS	Vehicles	6	11	[0, 0, 0]	n/a	catFR1	5	R1662S
1257.564	0.915	1826035	REC_WORD_VV	29.233	n/a	<>	n/a	-999	11	[0, 0, 0]	n/a	catFR1	5	R1662S
1258.479	1.703	1826951	REC_END	n/a	n/a	n/a	n/a	-999	11	[0, 0, 0]	n/a	catFR1	5	R1662S
1260.182	10.341	1828658	COUNTDOWN_START	n/a	n/a	n/a	n/a	-999	12	[0, 0, 0]	n/a	catFR1	5	R1662S
1270.523	0.001	1838993	COUNTDOWN_END	n/a	n/a	n/a	n/a	-999	12	[0, 0, 0]	n/a	catFR1	5	R1662S
1270.524	1.865	1839005	ENCODING_START	n/a	n/a	n/a	n/a	-999	12	[0, 0, 0]	n/a	catFR1	5	R1662S
1272.389	1.6	1840862	WORD	n/a	wordpools/wordpool_categorized_EN.txt	BATHROOM	Building	1	12	[0, 0, 0]	n/a	catFR1	5	R1662S
1273.989	0.886	1842465	WORD_OFF	n/a	n/a	BATHROOM	Building	1	12	[0, 0, 0]	n/a	catFR1	5	R1662S
1274.875	1.607	1843353	WORD	n/a	wordpools/wordpool_categorized_EN.txt	FLOOR	Building	2	12	[0, 0, 0]	n/a	catFR1	5	R1662S
1276.482	0.776	1844957	WORD_OFF	n/a	n/a	FLOOR	Building	2	12	[0, 0, 0]	n/a	catFR1	5	R1662S
1277.258	1.599	1845729	WORD	n/a	wordpools/wordpool_categorized_EN.txt	SAW	Tools	3	12	[0, 0, 0]	n/a	catFR1	5	R1662S
1278.857	0.802	1847333	WORD_OFF	n/a	n/a	SAW	Tools	3	12	[0, 0, 0]	n/a	catFR1	5	R1662S
1279.659	1.6	1848129	WORD	n/a	wordpools/wordpool_categorized_EN.txt	SCREWDRIVER	Tools	4	12	[0, 0, 0]	n/a	catFR1	5	R1662S
1281.259	0.826	1849732	WORD_OFF	n/a	n/a	SCREWDRIVER	Tools	4	12	[0, 0, 0]	n/a	catFR1	5	R1662S
1282.085	1.606	1850563	WORD	n/a	wordpools/wordpool_categorized_EN.txt	WILLOW	Trees	5	12	[0, 0, 0]	n/a	catFR1	5	R1662S
1283.691	0.809	1852166	WORD_OFF	n/a	n/a	WILLOW	Trees	5	12	[0, 0, 0]	n/a	catFR1	5	R1662S
1284.5	1.606	1852973	WORD	n/a	wordpools/wordpool_categorized_EN.txt	ELM	Trees	6	12	[0, 0, 0]	n/a	catFR1	5	R1662S
1286.106	0.778	1854577	WORD_OFF	n/a	n/a	ELM	Trees	6	12	[0, 0, 0]	n/a	catFR1	5	R1662S
1286.884	1.607	1855361	WORD	n/a	wordpools/wordpool_categorized_EN.txt	DOOR	Building	7	12	[0, 0, 0]	n/a	catFR1	5	R1662S
1288.491	0.851	1856964	WORD_OFF	n/a	n/a	DOOR	Building	7	12	[0, 0, 0]	n/a	catFR1	5	R1662S
1289.342	1.606	1857818	WORD	n/a	wordpools/wordpool_categorized_EN.txt	WINDOW	Building	8	12	[0, 0, 0]	n/a	catFR1	5	R1662S
1290.948	0.935	1859421	WORD_OFF	n/a	n/a	WINDOW	Building	8	12	[0, 0, 0]	n/a	catFR1	5	R1662S
1291.883	1.601	1860356	WORD	n/a	wordpools/wordpool_categorized_EN.txt	WRENCH	Tools	9	12	[0, 0, 0]	n/a	catFR1	5	R1662S
1293.484	0.965	1861959	WORD_OFF	n/a	n/a	WRENCH	Tools	9	12	[0, 0, 0]	n/a	catFR1	5	R1662S
1294.449	1.601	1862928	WORD	n/a	wordpools/wordpool_categorized_EN.txt	HAMMER	Tools	10	12	[0, 0, 0]	n/a	catFR1	5	R1662S
1296.05	0.943	1864520	WORD_OFF	n/a	n/a	HAMMER	Tools	10	12	[0, 0, 0]	n/a	catFR1	5	R1662S
1296.993	1.598	1865466	WORD	n/a	wordpools/wordpool_categorized_EN.txt	HICKORY	Trees	11	12	[0, 0, 0]	n/a	catFR1	5	R1662S
1298.591	0.807	1867069	WORD_OFF	n/a	n/a	HICKORY	Trees	11	12	[0, 0, 0]	n/a	catFR1	5	R1662S
1299.398	1.6	1867876	WORD	n/a	wordpools/wordpool_categorized_EN.txt	CEDAR	Trees	12	12	[0, 0, 0]	n/a	catFR1	5	R1662S
1300.998	0.0	1869468	WORD_OFF	n/a	n/a	CEDAR	Trees	12	12	[0, 0, 0]	n/a	catFR1	5	R1662S
1300.998	0.002	1869469	PROB	2.625	n/a	n/a	n/a	-999	12	[1, 1, 3]	5.0	catFR1	5	R1662S
1301.0	0.0	1869471	START	n/a	n/a	n/a	n/a	-999	12	[-999, -999, -999]	n/a	catFR1	5	R1662S
1301.0	0.0	1869480	ENCODING_END	n/a	n/a	n/a	n/a	-999	12	[0, 0, 0]	n/a	catFR1	5	R1662S
1301.0	2.632	1869480	DISTRACT_START	n/a	n/a	n/a	n/a	-999	12	[0, 0, 0]	n/a	catFR1	5	R1662S
1303.632	6.468	1872103	PROB	6.458	n/a	n/a	n/a	-999	12	[4, 7, 2]	13.0	catFR1	5	R1662S
1310.1	4.392	1878571	PROB	4.382	n/a	n/a	n/a	-999	12	[6, 7, 2]	15.0	catFR1	5	R1662S
1314.492	5.574	1882963	PROB	5.566	n/a	n/a	n/a	-999	12	[7, 8, 5]	20.0	catFR1	5	R1662S
1320.066	3.14	1888537	PROB	3.133	n/a	n/a	n/a	-999	12	[5, 1, 4]	10.0	catFR1	5	R1662S
1323.206	0.0	1891677	STOP	n/a	n/a	n/a	n/a	-999	12	[-999, -999, -999]	n/a	catFR1	5	R1662S
1323.206	2.235	1891684	DISTRACT_END	n/a	n/a	n/a	n/a	-999	12	[0, 0, 0]	n/a	catFR1	5	R1662S
1325.441	1.085	1893911	REC_START	n/a	n/a	n/a	n/a	-999	12	[0, 0, 0]	n/a	catFR1	5	R1662S
1326.526	1.041	1894997	REC_WORD	1.085	n/a	BATHROOM	Building	1	12	[0, 0, 0]	n/a	catFR1	5	R1662S
1327.567	1.241	1896038	REC_WORD	2.126	n/a	FLOOR	Building	2	12	[0, 0, 0]	n/a	catFR1	5	R1662S
1328.808	1.64	1897279	REC_WORD	3.367	n/a	SAW	Tools	3	12	[0, 0, 0]	n/a	catFR1	5	R1662S
1330.448	2.81	1898919	REC_WORD	5.007	n/a	HAMMER	Tools	10	12	[0, 0, 0]	n/a	catFR1	5	R1662S
1333.258	0.755	1901729	REC_WORD	7.817	n/a	HICKORY	Trees	11	12	[0, 0, 0]	n/a	catFR1	5	R1662S
1334.013	6.386	1902484	REC_WORD	8.572	n/a	CEDAR	Trees	12	12	[0, 0, 0]	n/a	catFR1	5	R1662S
1340.399	8.7	1908870	REC_WORD_VV	14.958	n/a	<>	n/a	-999	12	[0, 0, 0]	n/a	catFR1	5	R1662S
1349.099	0.834	1917570	REC_WORD	23.658	n/a	KNIFE	KitchenTools	-999	12	[0, 0, 0]	n/a	catFR1	5	R1662S
1349.933	2.57	1918404	REC_WORD_VV	24.492	n/a	<>	n/a	-999	12	[0, 0, 0]	n/a	catFR1	5	R1662S
1352.503	1.0	1920974	REC_WORD_VV	27.062	n/a	<>	n/a	-999	12	[0, 0, 0]	n/a	catFR1	5	R1662S
1353.503	2.086	1921974	REC_WORD_VV	28.062	n/a	<>	n/a	-999	12	[0, 0, 0]	n/a	catFR1	5	R1662S
1355.589	0.0	1924063	REC_END	n/a	n/a	n/a	n/a	-999	12	[0, 0, 0]	n/a	catFR1	5	R1662S
