onset	duration	sample	trial_type	response_time	stim_file	item_name	category	serialpos	list	test	answer	experiment	session	subject
0.0	79.197	1940	INSTRUCT_START	n/a	n/a	n/a	n/a	-999	-999	[0, 0, 0]	n/a	catFR1	0	R1413D
79.197	28.672	81127	INSTRUCT_END	n/a	n/a	n/a	n/a	-999	-999	[0, 0, 0]	n/a	catFR1	0	R1413D
107.869	10.429	109806	COUNTDOWN_START	n/a	n/a	n/a	n/a	-999	-999	[0, 0, 0]	n/a	catFR1	0	R1413D
118.298	1.072	120210	COUNTDOWN_END	n/a	n/a	n/a	n/a	-999	-999	[0, 0, 0]	n/a	catFR1	0	R1413D
119.37	1.112	121278	ENCODING_START	n/a	n/a	n/a	n/a	-999	-1	[0, 0, 0]	n/a	catFR1	0	R1413D
120.482	1.605	122384	WORD	n/a	n/a	SECOND	n/a	1	-1	[0, 0, 0]	n/a	catFR1	0	R1413D
122.087	1.06	123987	WORD_OFF	n/a	n/a	SECOND	n/a	1	-1	[0, 0, 0]	n/a	catFR1	0	R1413D
123.147	1.625	125055	WORD	n/a	n/a	TEACHER	n/a	2	-1	[0, 0, 0]	n/a	catFR1	0	R1413D
124.772	1.023	126670	WORD_OFF	n/a	n/a	TEACHER	n/a	2	-1	[0, 0, 0]	n/a	catFR1	0	R1413D
125.795	1.626	127700	WORD	n/a	n/a	DAY	n/a	3	-1	[0, 0, 0]	n/a	catFR1	0	R1413D
127.421	0.982	129328	WORD_OFF	n/a	n/a	DAY	n/a	3	-1	[0, 0, 0]	n/a	catFR1	0	R1413D
128.403	1.619	130320	WORD	n/a	n/a	SILK	n/a	4	-1	[0, 0, 0]	n/a	catFR1	0	R1413D
130.022	0.953	131923	WORD_OFF	n/a	n/a	SILK	n/a	4	-1	[0, 0, 0]	n/a	catFR1	0	R1413D
130.975	1.631	132889	WORD	n/a	n/a	LEATHER	n/a	5	-1	[0, 0, 0]	n/a	catFR1	0	R1413D
132.606	1.063	134504	WORD_OFF	n/a	n/a	LEATHER	n/a	5	-1	[0, 0, 0]	n/a	catFR1	0	R1413D
133.669	1.621	135573	WORD	n/a	n/a	HOUR	n/a	6	-1	[0, 0, 0]	n/a	catFR1	0	R1413D
135.29	1.104	137188	WORD_OFF	n/a	n/a	HOUR	n/a	6	-1	[0, 0, 0]	n/a	catFR1	0	R1413D
136.394	1.63	138307	WORD	n/a	n/a	MINUTE	n/a	7	-1	[0, 0, 0]	n/a	catFR1	0	R1413D
138.024	0.897	139922	WORD_OFF	n/a	n/a	MINUTE	n/a	7	-1	[0, 0, 0]	n/a	catFR1	0	R1413D
138.921	1.637	140838	WORD	n/a	n/a	DENIM	n/a	8	-1	[0, 0, 0]	n/a	catFR1	0	R1413D
140.558	0.824	142453	WORD_OFF	n/a	n/a	DENIM	n/a	8	-1	[0, 0, 0]	n/a	catFR1	0	R1413D
141.382	1.609	143293	WORD	n/a	n/a	WOOL	n/a	9	-1	[0, 0, 0]	n/a	catFR1	0	R1413D
142.991	1.002	144895	WORD_OFF	n/a	n/a	WOOL	n/a	9	-1	[0, 0, 0]	n/a	catFR1	0	R1413D
143.993	1.632	145912	WORD	n/a	n/a	FARMER	n/a	10	-1	[0, 0, 0]	n/a	catFR1	0	R1413D
145.625	0.824	147528	WORD_OFF	n/a	n/a	FARMER	n/a	10	-1	[0, 0, 0]	n/a	catFR1	0	R1413D
146.449	1.627	148354	WORD	n/a	n/a	FIREMAN	n/a	11	-1	[0, 0, 0]	n/a	catFR1	0	R1413D
148.076	0.916	149982	WORD_OFF	n/a	n/a	FIREMAN	n/a	11	-1	[0, 0, 0]	n/a	catFR1	0	R1413D
148.992	1.634	150911	WORD	n/a	n/a	PLUMBER	n/a	12	-1	[0, 0, 0]	n/a	catFR1	0	R1413D
150.626	0.001	152538	WORD_OFF	n/a	n/a	PLUMBER	n/a	12	-1	[0, 0, 0]	n/a	catFR1	0	R1413D
150.627	0.0	152540	START	n/a	n/a	n/a	n/a	-999	-1	[-999, -999, -999]	n/a	catFR1	0	R1413D
150.627	0.0	152551	ENCODING_END	n/a	n/a	n/a	n/a	-999	-1	[0, 0, 0]	n/a	catFR1	0	R1413D
150.627	0.016	152551	DISTRACT_START	n/a	n/a	n/a	n/a	-999	-1	[0, 0, 0]	n/a	catFR1	0	R1413D
150.643	4.584	152556	PROB	4.556	n/a	n/a	n/a	-999	-1	[4, 6, 3]	13.0	catFR1	0	R1413D
155.227	3.25	157140	PROB	3.227	n/a	n/a	n/a	-999	-1	[6, 5, 4]	15.0	catFR1	0	R1413D
158.477	4.168	160389	PROB	4.143	n/a	n/a	n/a	-999	-1	[5, 2, 8]	15.0	catFR1	0	R1413D
162.645	2.501	164557	PROB	2.472	n/a	n/a	n/a	-999	-1	[4, 1, 3]	8.0	catFR1	0	R1413D
165.146	2.467	167058	PROB	2.435	n/a	n/a	n/a	-999	-1	[2, 2, 8]	12.0	catFR1	0	R1413D
167.613	2.533	169525	PROB	2.496	n/a	n/a	n/a	-999	-1	[7, 4, 7]	18.0	catFR1	0	R1413D
170.146	3.401	172058	PROB	3.387	n/a	n/a	n/a	-999	-1	[9, 7, 2]	18.0	catFR1	0	R1413D
173.547	0.0	175444	DISTRACT_END	n/a	n/a	n/a	n/a	-999	-1	[0, 0, 0]	n/a	catFR1	0	R1413D
173.533	2.198	175445	STOP	n/a	n/a	n/a	n/a	-999	-1	[-999, -999, -999]	n/a	catFR1	0	R1413D
175.731	5.523	177644	REC_START	n/a	n/a	n/a	n/a	-999	-1	[0, 0, 0]	n/a	catFR1	0	R1413D
181.254	24.487	183165	REC_WORD_VV	5.523	n/a	<>	n/a	-999	-1	[0, 0, 0]	n/a	catFR1	0	R1413D
205.741	56.973	208612	REC_END	n/a	n/a	n/a	n/a	-999	-1	[0, 0, 0]	n/a	catFR1	0	R1413D
262.714	10.429	264647	COUNTDOWN_START	n/a	n/a	n/a	n/a	-999	1	[0, 0, 0]	n/a	catFR1	0	R1413D
273.143	1.107	275038	COUNTDOWN_END	n/a	n/a	n/a	n/a	-999	1	[0, 0, 0]	n/a	catFR1	0	R1413D
274.25	1.108	276144	ENCODING_START	n/a	n/a	n/a	n/a	-999	1	[0, 0, 0]	n/a	catFR1	0	R1413D
275.358	1.625	277263	WORD	n/a	wordpools/wordpool_categorized_EN.txt	FLOOR	Building	1	1	[0, 0, 0]	n/a	catFR1	0	R1413D
276.983	1.01	278878	WORD_OFF	n/a	n/a	FLOOR	Building	1	1	[0, 0, 0]	n/a	catFR1	0	R1413D
277.993	1.624	279896	WORD	n/a	wordpools/wordpool_categorized_EN.txt	STAIRS	Building	2	1	[0, 0, 0]	n/a	catFR1	0	R1413D
279.617	0.893	281511	WORD_OFF	n/a	n/a	STAIRS	Building	2	1	[0, 0, 0]	n/a	catFR1	0	R1413D
280.51	1.624	282414	WORD	n/a	wordpools/wordpool_categorized_EN.txt	LAMB	FarmAnimals	3	1	[0, 0, 0]	n/a	catFR1	0	R1413D
282.134	0.784	284029	WORD_OFF	n/a	n/a	LAMB	FarmAnimals	3	1	[0, 0, 0]	n/a	catFR1	0	R1413D
282.918	1.633	284830	WORD	n/a	wordpools/wordpool_categorized_EN.txt	COW	FarmAnimals	4	1	[0, 0, 0]	n/a	catFR1	0	R1413D
284.551	0.941	286446	WORD_OFF	n/a	n/a	COW	FarmAnimals	4	1	[0, 0, 0]	n/a	catFR1	0	R1413D
285.492	1.609	287400	WORD	n/a	wordpools/wordpool_categorized_EN.txt	BLOCKS	Toys	5	1	[0, 0, 0]	n/a	catFR1	0	R1413D
287.101	1.044	288989	WORD_OFF	n/a	n/a	BLOCKS	Toys	5	1	[0, 0, 0]	n/a	catFR1	0	R1413D
288.145	1.624	290045	WORD	n/a	wordpools/wordpool_categorized_EN.txt	MARBLES	Toys	6	1	[0, 0, 0]	n/a	catFR1	0	R1413D
289.769	0.768	291660	WORD_OFF	n/a	n/a	MARBLES	Toys	6	1	[0, 0, 0]	n/a	catFR1	0	R1413D
290.537	1.632	292449	WORD	n/a	wordpools/wordpool_categorized_EN.txt	WALL	Building	7	1	[0, 0, 0]	n/a	catFR1	0	R1413D
292.169	0.886	294064	WORD_OFF	n/a	n/a	WALL	Building	7	1	[0, 0, 0]	n/a	catFR1	0	R1413D
293.055	1.631	294967	WORD	n/a	wordpools/wordpool_categorized_EN.txt	CEILING	Building	8	1	[0, 0, 0]	n/a	catFR1	0	R1413D
294.686	0.999	296582	WORD_OFF	n/a	n/a	CEILING	Building	8	1	[0, 0, 0]	n/a	catFR1	0	R1413D
295.685	1.635	297599	WORD	n/a	wordpools/wordpool_categorized_EN.txt	HEN	FarmAnimals	9	1	[0, 0, 0]	n/a	catFR1	0	R1413D
297.32	1.131	299214	WORD_OFF	n/a	n/a	HEN	FarmAnimals	9	1	[0, 0, 0]	n/a	catFR1	0	R1413D
298.451	1.619	300359	WORD	n/a	wordpools/wordpool_categorized_EN.txt	PIG	FarmAnimals	10	1	[0, 0, 0]	n/a	catFR1	0	R1413D
300.07	0.759	301962	WORD_OFF	n/a	n/a	PIG	FarmAnimals	10	1	[0, 0, 0]	n/a	catFR1	0	R1413D
300.829	1.624	302725	WORD	n/a	wordpools/wordpool_categorized_EN.txt	SLINKY	Toys	11	1	[0, 0, 0]	n/a	catFR1	0	R1413D
302.453	1.066	304352	WORD_OFF	n/a	n/a	SLINKY	Toys	11	1	[0, 0, 0]	n/a	catFR1	0	R1413D
303.519	1.636	305434	WORD	n/a	wordpools/wordpool_categorized_EN.txt	BASKETBALL	Toys	12	1	[0, 0, 0]	n/a	catFR1	0	R1413D
305.155	0.0	307061	WORD_OFF	n/a	n/a	BASKETBALL	Toys	12	1	[0, 0, 0]	n/a	catFR1	0	R1413D
305.155	0.0	307061	ENCODING_END	n/a	n/a	n/a	n/a	-999	1	[0, 0, 0]	n/a	catFR1	0	R1413D
305.155	0.001	307061	DISTRACT_START	n/a	n/a	n/a	n/a	-999	1	[0, 0, 0]	n/a	catFR1	0	R1413D
305.156	0.015	307061	START	n/a	n/a	n/a	n/a	-999	1	[-999, -999, -999]	n/a	catFR1	0	R1413D
305.171	2.868	307076	PROB	2.841	n/a	n/a	n/a	-999	1	[5, 1, 2]	7.0	catFR1	0	R1413D
308.039	3.5	309944	PROB	3.468	n/a	n/a	n/a	-999	1	[8, 2, 6]	16.0	catFR1	0	R1413D
311.539	3.584	313444	PROB	3.553	n/a	n/a	n/a	-999	1	[3, 3, 4]	10.0	catFR1	0	R1413D
315.123	3.25	317027	PROB	3.216	n/a	n/a	n/a	-999	1	[4, 8, 5]	17.0	catFR1	0	R1413D
318.373	3.502	320277	PROB	3.48	n/a	n/a	n/a	-999	1	[5, 3, 8]	16.0	catFR1	0	R1413D
321.875	2.833	323779	PROB	2.801	n/a	n/a	n/a	-999	1	[8, 1, 3]	12.0	catFR1	0	R1413D
324.708	3.048	326612	PROB	3.048	n/a	n/a	n/a	-999	1	[9, 1, 5]	15.0	catFR1	0	R1413D
327.756	0.02	329660	STOP	n/a	n/a	n/a	n/a	-999	1	[-999, -999, -999]	n/a	catFR1	0	R1413D
327.776	2.151	329674	DISTRACT_END	n/a	n/a	n/a	n/a	-999	1	[0, 0, 0]	n/a	catFR1	0	R1413D
329.927	0.0	331823	REC_START	n/a	n/a	n/a	n/a	-999	1	[0, 0, 0]	n/a	catFR1	0	R1413D
329.927	0.782	331831	REC_WORD	0.0	n/a	LUMBER	n/a	-999	1	[0, 0, 0]	n/a	catFR1	0	R1413D
330.709	0.89	332613	REC_WORD	0.782	n/a	STAIRS	Building	2	1	[0, 0, 0]	n/a	catFR1	0	R1413D
331.599	1.001	333503	REC_WORD	1.672	n/a	MARBLES	Toys	6	1	[0, 0, 0]	n/a	catFR1	0	R1413D
332.6	0.729	334504	REC_WORD	2.673	n/a	HEN	FarmAnimals	9	1	[0, 0, 0]	n/a	catFR1	0	R1413D
333.329	0.635	335233	REC_WORD	3.402	n/a	PIG	FarmAnimals	10	1	[0, 0, 0]	n/a	catFR1	0	R1413D
333.964	6.163	335868	REC_WORD	4.037	n/a	BASKETBALL	Toys	12	1	[0, 0, 0]	n/a	catFR1	0	R1413D
340.127	1.955	342030	REC_WORD	10.2	n/a	LUMBER	n/a	-999	1	[0, 0, 0]	n/a	catFR1	0	R1413D
342.082	1.0	343985	REC_WORD_VV	12.155	n/a	<>	n/a	-999	1	[0, 0, 0]	n/a	catFR1	0	R1413D
343.082	16.854	344985	REC_WORD_VV	13.155	n/a	<>	n/a	-999	1	[0, 0, 0]	n/a	catFR1	0	R1413D
359.936	2.396	361850	REC_END	n/a	n/a	n/a	n/a	-999	1	[0, 0, 0]	n/a	catFR1	0	R1413D
362.332	10.429	364254	COUNTDOWN_START	n/a	n/a	n/a	n/a	-999	2	[0, 0, 0]	n/a	catFR1	0	R1413D
372.761	1.207	374657	COUNTDOWN_END	n/a	n/a	n/a	n/a	-999	2	[0, 0, 0]	n/a	catFR1	0	R1413D
373.968	0.876	375853	ENCODING_START	n/a	n/a	n/a	n/a	-999	2	[0, 0, 0]	n/a	catFR1	0	R1413D
374.844	1.623	376743	WORD	n/a	wordpools/wordpool_categorized_EN.txt	SKIRT	Clothing	1	2	[0, 0, 0]	n/a	catFR1	0	R1413D
376.467	0.943	378358	WORD_OFF	n/a	n/a	SKIRT	Clothing	1	2	[0, 0, 0]	n/a	catFR1	0	R1413D
377.41	1.608	379312	WORD	n/a	wordpools/wordpool_categorized_EN.txt	COAT	Clothing	2	2	[0, 0, 0]	n/a	catFR1	0	R1413D
379.018	0.924	380902	WORD_OFF	n/a	n/a	COAT	Clothing	2	2	[0, 0, 0]	n/a	catFR1	0	R1413D
379.942	1.627	381843	WORD	n/a	wordpools/wordpool_categorized_EN.txt	NIGHTSTAND	Furniture	3	2	[0, 0, 0]	n/a	catFR1	0	R1413D
381.569	0.909	383458	WORD_OFF	n/a	n/a	NIGHTSTAND	Furniture	3	2	[0, 0, 0]	n/a	catFR1	0	R1413D
382.478	1.608	384374	WORD	n/a	wordpools/wordpool_categorized_EN.txt	COUCH	Furniture	4	2	[0, 0, 0]	n/a	catFR1	0	R1413D
384.086	0.793	385976	WORD_OFF	n/a	n/a	COUCH	Furniture	4	2	[0, 0, 0]	n/a	catFR1	0	R1413D
384.879	1.623	386777	WORD	n/a	wordpools/wordpool_categorized_EN.txt	SCREWDRIVER	Tools	5	2	[0, 0, 0]	n/a	catFR1	0	R1413D
386.502	0.958	388393	WORD_OFF	n/a	n/a	SCREWDRIVER	Tools	5	2	[0, 0, 0]	n/a	catFR1	0	R1413D
387.46	1.61	389359	WORD	n/a	wordpools/wordpool_categorized_EN.txt	WRENCH	Tools	6	2	[0, 0, 0]	n/a	catFR1	0	R1413D
389.07	0.877	390962	WORD_OFF	n/a	n/a	WRENCH	Tools	6	2	[0, 0, 0]	n/a	catFR1	0	R1413D
389.947	1.624	391839	WORD	n/a	wordpools/wordpool_categorized_EN.txt	SHORTS	Clothing	7	2	[0, 0, 0]	n/a	catFR1	0	R1413D
391.571	0.888	393454	WORD_OFF	n/a	n/a	SHORTS	Clothing	7	2	[0, 0, 0]	n/a	catFR1	0	R1413D
392.459	1.629	394357	WORD	n/a	wordpools/wordpool_categorized_EN.txt	JACKET	Clothing	8	2	[0, 0, 0]	n/a	catFR1	0	R1413D
394.088	0.967	395973	WORD_OFF	n/a	n/a	JACKET	Clothing	8	2	[0, 0, 0]	n/a	catFR1	0	R1413D
395.055	1.633	396965	WORD	n/a	wordpools/wordpool_categorized_EN.txt	PLIERS	Tools	9	2	[0, 0, 0]	n/a	catFR1	0	R1413D
396.688	1.128	398580	WORD_OFF	n/a	n/a	PLIERS	Tools	9	2	[0, 0, 0]	n/a	catFR1	0	R1413D
397.816	1.622	399712	WORD	n/a	wordpools/wordpool_categorized_EN.txt	CROWBAR	Tools	10	2	[0, 0, 0]	n/a	catFR1	0	R1413D
399.438	0.969	401327	WORD_OFF	n/a	n/a	CROWBAR	Tools	10	2	[0, 0, 0]	n/a	catFR1	0	R1413D
400.407	1.616	402306	WORD	n/a	wordpools/wordpool_categorized_EN.txt	RECLINER	Furniture	11	2	[0, 0, 0]	n/a	catFR1	0	R1413D
402.023	1.085	403909	WORD_OFF	n/a	n/a	RECLINER	Furniture	11	2	[0, 0, 0]	n/a	catFR1	0	R1413D
403.108	1.633	405015	WORD	n/a	wordpools/wordpool_categorized_EN.txt	CABINET	Furniture	12	2	[0, 0, 0]	n/a	catFR1	0	R1413D
404.741	0.0	406641	START	n/a	n/a	n/a	n/a	-999	2	[-999, -999, -999]	n/a	catFR1	0	R1413D
404.74	0.0	406643	WORD_OFF	n/a	n/a	CABINET	Furniture	12	2	[0, 0, 0]	n/a	catFR1	0	R1413D
404.74	0.001	406643	ENCODING_END	n/a	n/a	n/a	n/a	-999	2	[0, 0, 0]	n/a	catFR1	0	R1413D
404.741	0.015	406643	DISTRACT_START	n/a	n/a	n/a	n/a	-999	2	[0, 0, 0]	n/a	catFR1	0	R1413D
404.756	4.501	406656	PROB	4.478	n/a	n/a	n/a	-999	2	[7, 6, 3]	16.0	catFR1	0	R1413D
409.257	2.384	411157	PROB	2.352	n/a	n/a	n/a	-999	2	[9, 1, 5]	15.0	catFR1	0	R1413D
411.641	3.167	413541	PROB	3.137	n/a	n/a	n/a	-999	2	[6, 1, 1]	8.0	catFR1	0	R1413D
414.808	3.401	416707	PROB	3.378	n/a	n/a	n/a	-999	2	[3, 6, 9]	18.0	catFR1	0	R1413D
418.209	2.834	420108	PROB	2.8	n/a	n/a	n/a	-999	2	[2, 1, 3]	6.0	catFR1	0	R1413D
421.043	2.8	422942	PROB	2.767	n/a	n/a	n/a	-999	2	[1, 3, 6]	9.0	catFR1	0	R1413D
423.843	3.637	425742	PROB	3.637	n/a	n/a	n/a	-999	2	[4, 9, 1]	14.0	catFR1	0	R1413D
427.48	0.013	429379	STOP	n/a	n/a	n/a	n/a	-999	2	[-999, -999, -999]	n/a	catFR1	0	R1413D
427.493	2.185	429383	DISTRACT_END	n/a	n/a	n/a	n/a	-999	2	[0, 0, 0]	n/a	catFR1	0	R1413D
429.678	2.114	431570	REC_START	n/a	n/a	n/a	n/a	-999	2	[0, 0, 0]	n/a	catFR1	0	R1413D
431.792	1.0	433691	REC_WORD_VV	2.114	n/a	<>	n/a	-999	2	[0, 0, 0]	n/a	catFR1	0	R1413D
432.792	1.851	434691	REC_WORD_VV	3.114	n/a	<>	n/a	-999	2	[0, 0, 0]	n/a	catFR1	0	R1413D
434.643	1.329	436541	REC_WORD	4.965	n/a	COAT	Clothing	2	2	[0, 0, 0]	n/a	catFR1	0	R1413D
435.972	1.047	437870	REC_WORD	6.294	n/a	JACKET	Clothing	8	2	[0, 0, 0]	n/a	catFR1	0	R1413D
437.019	0.971	438917	REC_WORD	7.341	n/a	SKIRT	Clothing	1	2	[0, 0, 0]	n/a	catFR1	0	R1413D
437.99	1.61	439888	REC_WORD	8.312	n/a	SHORTS	Clothing	7	2	[0, 0, 0]	n/a	catFR1	0	R1413D
439.6	16.027	441498	REC_WORD	9.922	n/a	SCREWDRIVER	Tools	5	2	[0, 0, 0]	n/a	catFR1	0	R1413D
455.627	4.062	457524	REC_WORD	25.949	n/a	PLIERS	Tools	9	2	[0, 0, 0]	n/a	catFR1	0	R1413D
459.689	2.595	461597	REC_END	n/a	n/a	n/a	n/a	-999	2	[0, 0, 0]	n/a	catFR1	0	R1413D
462.284	10.429	464204	COUNTDOWN_START	n/a	n/a	n/a	n/a	-999	3	[0, 0, 0]	n/a	catFR1	0	R1413D
472.713	1.174	474608	COUNTDOWN_END	n/a	n/a	n/a	n/a	-999	3	[0, 0, 0]	n/a	catFR1	0	R1413D
473.887	1.123	475778	ENCODING_START	n/a	n/a	n/a	n/a	-999	3	[0, 0, 0]	n/a	catFR1	0	R1413D
475.01	1.627	476910	WORD	n/a	wordpools/wordpool_categorized_EN.txt	FINCH	Birds	1	3	[0, 0, 0]	n/a	catFR1	0	R1413D
476.637	0.907	478525	WORD_OFF	n/a	n/a	FINCH	Birds	1	3	[0, 0, 0]	n/a	catFR1	0	R1413D
477.544	1.626	479440	WORD	n/a	wordpools/wordpool_categorized_EN.txt	PIGEON	Birds	2	3	[0, 0, 0]	n/a	catFR1	0	R1413D
479.17	0.803	481056	WORD_OFF	n/a	n/a	PIGEON	Birds	2	3	[0, 0, 0]	n/a	catFR1	0	R1413D
479.973	1.631	481869	WORD	n/a	wordpools/wordpool_categorized_EN.txt	TURKEY	FarmAnimals	3	3	[0, 0, 0]	n/a	catFR1	0	R1413D
481.604	0.919	483485	WORD_OFF	n/a	n/a	TURKEY	FarmAnimals	3	3	[0, 0, 0]	n/a	catFR1	0	R1413D
482.523	1.632	484426	WORD	n/a	wordpools/wordpool_categorized_EN.txt	CHICKEN	FarmAnimals	4	3	[0, 0, 0]	n/a	catFR1	0	R1413D
484.155	1.013	486041	WORD_OFF	n/a	n/a	CHICKEN	FarmAnimals	4	3	[0, 0, 0]	n/a	catFR1	0	R1413D
485.168	1.62	487058	WORD	n/a	wordpools/wordpool_categorized_EN.txt	ELM	Trees	5	3	[0, 0, 0]	n/a	catFR1	0	R1413D
486.788	0.777	488674	WORD_OFF	n/a	n/a	ELM	Trees	5	3	[0, 0, 0]	n/a	catFR1	0	R1413D
487.565	1.624	489449	WORD	n/a	wordpools/wordpool_categorized_EN.txt	SPRUCE	Trees	6	3	[0, 0, 0]	n/a	catFR1	0	R1413D
489.189	0.941	491077	WORD_OFF	n/a	n/a	SPRUCE	Trees	6	3	[0, 0, 0]	n/a	catFR1	0	R1413D
490.13	1.626	492018	WORD	n/a	wordpools/wordpool_categorized_EN.txt	DOVE	Birds	7	3	[0, 0, 0]	n/a	catFR1	0	R1413D
491.756	1.03	493634	WORD_OFF	n/a	n/a	DOVE	Birds	7	3	[0, 0, 0]	n/a	catFR1	0	R1413D
492.786	1.62	494676	WORD	n/a	wordpools/wordpool_categorized_EN.txt	SEAGULL	Birds	8	3	[0, 0, 0]	n/a	catFR1	0	R1413D
494.406	0.851	496292	WORD_OFF	n/a	n/a	SEAGULL	Birds	8	3	[0, 0, 0]	n/a	catFR1	0	R1413D
495.257	1.633	497156	WORD	n/a	wordpools/wordpool_categorized_EN.txt	BULL	FarmAnimals	9	3	[0, 0, 0]	n/a	catFR1	0	R1413D
496.89	0.949	498772	WORD_OFF	n/a	n/a	BULL	FarmAnimals	9	3	[0, 0, 0]	n/a	catFR1	0	R1413D
497.839	1.634	499738	WORD	n/a	wordpools/wordpool_categorized_EN.txt	CALF	FarmAnimals	10	3	[0, 0, 0]	n/a	catFR1	0	R1413D
499.473	0.846	501353	WORD_OFF	n/a	n/a	CALF	FarmAnimals	10	3	[0, 0, 0]	n/a	catFR1	0	R1413D
500.319	1.622	502205	WORD	n/a	wordpools/wordpool_categorized_EN.txt	WALNUT	Trees	11	3	[0, 0, 0]	n/a	catFR1	0	R1413D
501.941	0.904	503821	WORD_OFF	n/a	n/a	WALNUT	Trees	11	3	[0, 0, 0]	n/a	catFR1	0	R1413D
502.845	1.63	504736	WORD	n/a	wordpools/wordpool_categorized_EN.txt	OAK	Trees	12	3	[0, 0, 0]	n/a	catFR1	0	R1413D
504.475	0.0	506370	START	n/a	n/a	n/a	n/a	-999	3	[-999, -999, -999]	n/a	catFR1	0	R1413D
504.474	0.0	506377	WORD_OFF	n/a	n/a	OAK	Trees	12	3	[0, 0, 0]	n/a	catFR1	0	R1413D
504.474	0.001	506377	ENCODING_END	n/a	n/a	n/a	n/a	-999	3	[0, 0, 0]	n/a	catFR1	0	R1413D
504.475	0.016	506377	DISTRACT_START	n/a	n/a	n/a	n/a	-999	3	[0, 0, 0]	n/a	catFR1	0	R1413D
504.491	2.818	506386	PROB	2.783	n/a	n/a	n/a	-999	3	[5, 4, 2]	11.0	catFR1	0	R1413D
507.309	1.783	509204	PROB	1.757	n/a	n/a	n/a	-999	3	[5, 5, 1]	11.0	catFR1	0	R1413D
509.092	4.768	510987	PROB	4.733	n/a	n/a	n/a	-999	3	[3, 5, 4]	12.0	catFR1	0	R1413D
513.86	2.701	515755	PROB	2.677	n/a	n/a	n/a	-999	3	[2, 4, 2]	8.0	catFR1	0	R1413D
516.561	4.217	518455	PROB	4.184	n/a	n/a	n/a	-999	3	[8, 7, 6]	21.0	catFR1	0	R1413D
520.778	2.25	522672	PROB	2.222	n/a	n/a	n/a	-999	3	[6, 4, 2]	12.0	catFR1	0	R1413D
523.028	5.081	524922	PROB	5.081	n/a	n/a	n/a	-999	3	[5, 8, 9]	22.0	catFR1	0	R1413D
528.109	0.02	530003	STOP	n/a	n/a	n/a	n/a	-999	3	[-999, -999, -999]	n/a	catFR1	0	R1413D
528.129	2.234	530007	DISTRACT_END	n/a	n/a	n/a	n/a	-999	3	[0, 0, 0]	n/a	catFR1	0	R1413D
530.363	0.642	532258	REC_START	n/a	n/a	n/a	n/a	-999	3	[0, 0, 0]	n/a	catFR1	0	R1413D
531.005	0.545	532899	REC_WORD	0.642	n/a	DOVE	Birds	7	3	[0, 0, 0]	n/a	catFR1	0	R1413D
531.55	1.289	533444	REC_WORD	1.187	n/a	SEAGULL	Birds	8	3	[0, 0, 0]	n/a	catFR1	0	R1413D
532.839	1.056	534733	REC_WORD	2.476	n/a	PIGEON	Birds	2	3	[0, 0, 0]	n/a	catFR1	0	R1413D
533.895	3.302	535789	REC_WORD	3.532	n/a	TURKEY	FarmAnimals	3	3	[0, 0, 0]	n/a	catFR1	0	R1413D
537.197	1.549	539090	REC_WORD	6.834	n/a	SPRUCE	Trees	6	3	[0, 0, 0]	n/a	catFR1	0	R1413D
538.746	21.627	540639	REC_WORD	8.383	n/a	ELM	Trees	5	3	[0, 0, 0]	n/a	catFR1	0	R1413D
560.373	2.163	562285	REC_END	n/a	n/a	n/a	n/a	-999	3	[0, 0, 0]	n/a	catFR1	0	R1413D
562.536	10.428	564447	COUNTDOWN_START	n/a	n/a	n/a	n/a	-999	4	[0, 0, 0]	n/a	catFR1	0	R1413D
572.964	1.258	574850	COUNTDOWN_END	n/a	n/a	n/a	n/a	-999	4	[0, 0, 0]	n/a	catFR1	0	R1413D
574.222	0.98	576109	ENCODING_START	n/a	n/a	n/a	n/a	-999	4	[0, 0, 0]	n/a	catFR1	0	R1413D
575.202	1.636	577101	WORD	n/a	wordpools/wordpool_categorized_EN.txt	CHEESECAKE	Desserts	1	4	[0, 0, 0]	n/a	catFR1	0	R1413D
576.838	1.056	578717	WORD_OFF	n/a	n/a	CHEESECAKE	Desserts	1	4	[0, 0, 0]	n/a	catFR1	0	R1413D
577.894	1.628	579785	WORD	n/a	wordpools/wordpool_categorized_EN.txt	PUDDING	Desserts	2	4	[0, 0, 0]	n/a	catFR1	0	R1413D
579.522	1.059	581400	WORD_OFF	n/a	n/a	PUDDING	Desserts	2	4	[0, 0, 0]	n/a	catFR1	0	R1413D
580.581	1.625	582468	WORD	n/a	wordpools/wordpool_categorized_EN.txt	GNAT	Insects	3	4	[0, 0, 0]	n/a	catFR1	0	R1413D
582.206	1.001	584084	WORD_OFF	n/a	n/a	GNAT	Insects	3	4	[0, 0, 0]	n/a	catFR1	0	R1413D
583.207	1.633	585101	WORD	n/a	wordpools/wordpool_categorized_EN.txt	SPIDER	Insects	4	4	[0, 0, 0]	n/a	catFR1	0	R1413D
584.84	1.133	586716	WORD_OFF	n/a	n/a	SPIDER	Insects	4	4	[0, 0, 0]	n/a	catFR1	0	R1413D
585.973	1.634	587874	WORD	n/a	wordpools/wordpool_categorized_EN.txt	GRATER	KitchenTools	5	4	[0, 0, 0]	n/a	catFR1	0	R1413D
587.607	0.797	589489	WORD_OFF	n/a	n/a	GRATER	KitchenTools	5	4	[0, 0, 0]	n/a	catFR1	0	R1413D
588.404	1.637	590303	WORD	n/a	wordpools/wordpool_categorized_EN.txt	PEELER	KitchenTools	6	4	[0, 0, 0]	n/a	catFR1	0	R1413D
590.041	1.037	591918	WORD_OFF	n/a	n/a	PEELER	KitchenTools	6	4	[0, 0, 0]	n/a	catFR1	0	R1413D
591.078	1.63	592973	WORD	n/a	wordpools/wordpool_categorized_EN.txt	BEE	Insects	7	4	[0, 0, 0]	n/a	catFR1	0	R1413D
592.708	1.118	594589	WORD_OFF	n/a	n/a	BEE	Insects	7	4	[0, 0, 0]	n/a	catFR1	0	R1413D
593.826	1.632	595720	WORD	n/a	wordpools/wordpool_categorized_EN.txt	BUTTERFLY	Insects	8	4	[0, 0, 0]	n/a	catFR1	0	R1413D
595.458	0.844	597336	WORD_OFF	n/a	n/a	BUTTERFLY	Insects	8	4	[0, 0, 0]	n/a	catFR1	0	R1413D
596.302	1.624	598188	WORD	n/a	wordpools/wordpool_categorized_EN.txt	STRAINER	KitchenTools	9	4	[0, 0, 0]	n/a	catFR1	0	R1413D
597.926	1.091	599803	WORD_OFF	n/a	n/a	STRAINER	KitchenTools	9	4	[0, 0, 0]	n/a	catFR1	0	R1413D
599.017	1.626	600909	WORD	n/a	wordpools/wordpool_categorized_EN.txt	WHISK	KitchenTools	10	4	[0, 0, 0]	n/a	catFR1	0	R1413D
600.643	1.085	602525	WORD_OFF	n/a	n/a	WHISK	KitchenTools	10	4	[0, 0, 0]	n/a	catFR1	0	R1413D
601.728	1.631	603618	WORD	n/a	wordpools/wordpool_categorized_EN.txt	COOKIE	Desserts	11	4	[0, 0, 0]	n/a	catFR1	0	R1413D
603.359	1.007	605233	WORD_OFF	n/a	n/a	COOKIE	Desserts	11	4	[0, 0, 0]	n/a	catFR1	0	R1413D
604.366	1.611	606251	WORD	n/a	wordpools/wordpool_categorized_EN.txt	BROWNIES	Desserts	12	4	[0, 0, 0]	n/a	catFR1	0	R1413D
605.977	0.0	607866	WORD_OFF	n/a	n/a	BROWNIES	Desserts	12	4	[0, 0, 0]	n/a	catFR1	0	R1413D
605.977	0.001	607866	ENCODING_END	n/a	n/a	n/a	n/a	-999	4	[0, 0, 0]	n/a	catFR1	0	R1413D
605.978	0.0	607868	START	n/a	n/a	n/a	n/a	-999	4	[-999, -999, -999]	n/a	catFR1	0	R1413D
605.978	0.016	607879	DISTRACT_START	n/a	n/a	n/a	n/a	-999	4	[0, 0, 0]	n/a	catFR1	0	R1413D
605.994	3.433	607884	PROB	3.396	n/a	n/a	n/a	-999	4	[2, 6, 2]	10.0	catFR1	0	R1413D
609.427	3.851	611317	PROB	3.814	n/a	n/a	n/a	-999	4	[7, 8, 6]	21.0	catFR1	0	R1413D
613.278	2.167	615168	PROB	2.138	n/a	n/a	n/a	-999	4	[3, 9, 1]	13.0	catFR1	0	R1413D
615.445	3.201	617334	PROB	3.164	n/a	n/a	n/a	-999	4	[5, 9, 3]	17.0	catFR1	0	R1413D
618.646	2.0	620535	PROB	1.963	n/a	n/a	n/a	-999	4	[6, 5, 1]	12.0	catFR1	0	R1413D
620.646	2.618	622535	PROB	2.587	n/a	n/a	n/a	-999	4	[3, 2, 3]	8.0	catFR1	0	R1413D
623.264	3.513	625153	PROB	3.513	n/a	n/a	n/a	-999	4	[6, 7, 5]	18.0	catFR1	0	R1413D
626.777	0.021	628666	STOP	n/a	n/a	n/a	n/a	-999	4	[-999, -999, -999]	n/a	catFR1	0	R1413D
626.798	2.284	628673	DISTRACT_END	n/a	n/a	n/a	n/a	-999	4	[0, 0, 0]	n/a	catFR1	0	R1413D
629.082	0.364	630962	REC_START	n/a	n/a	n/a	n/a	-999	4	[0, 0, 0]	n/a	catFR1	0	R1413D
629.446	1.095	631335	REC_WORD	0.364	n/a	CHEESECAKE	Desserts	1	4	[0, 0, 0]	n/a	catFR1	0	R1413D
630.541	1.91	632430	REC_WORD	1.459	n/a	PUDDING	Desserts	2	4	[0, 0, 0]	n/a	catFR1	0	R1413D
632.451	1.526	634340	REC_WORD	3.369	n/a	STRAINER	KitchenTools	9	4	[0, 0, 0]	n/a	catFR1	0	R1413D
633.977	2.936	635865	REC_WORD	4.895	n/a	PEELER	KitchenTools	6	4	[0, 0, 0]	n/a	catFR1	0	R1413D
636.913	1.005	638801	REC_WORD_VV	7.831	n/a	<>	n/a	-999	4	[0, 0, 0]	n/a	catFR1	0	R1413D
637.918	2.494	639806	REC_WORD_VV	8.836	n/a	<>	n/a	-999	4	[0, 0, 0]	n/a	catFR1	0	R1413D
640.412	1.075	642300	REC_WORD	11.33	n/a	COOKIE	Desserts	11	4	[0, 0, 0]	n/a	catFR1	0	R1413D
641.487	17.605	643375	REC_WORD	12.405	n/a	BROWNIES	Desserts	12	4	[0, 0, 0]	n/a	catFR1	0	R1413D
659.092	2.278	660989	REC_END	n/a	n/a	n/a	n/a	-999	4	[0, 0, 0]	n/a	catFR1	0	R1413D
661.37	10.428	663278	COUNTDOWN_START	n/a	n/a	n/a	n/a	-999	5	[0, 0, 0]	n/a	catFR1	0	R1413D
671.798	1.042	673681	COUNTDOWN_END	n/a	n/a	n/a	n/a	-999	5	[0, 0, 0]	n/a	catFR1	0	R1413D
672.84	0.844	674712	ENCODING_START	n/a	n/a	n/a	n/a	-999	5	[0, 0, 0]	n/a	catFR1	0	R1413D
673.684	1.623	675564	WORD	n/a	wordpools/wordpool_categorized_EN.txt	WASHER	Appliances	1	5	[0, 0, 0]	n/a	catFR1	0	R1413D
675.307	1.085	677179	WORD_OFF	n/a	n/a	WASHER	Appliances	1	5	[0, 0, 0]	n/a	catFR1	0	R1413D
676.392	1.632	678285	WORD	n/a	wordpools/wordpool_categorized_EN.txt	OVEN	Appliances	2	5	[0, 0, 0]	n/a	catFR1	0	R1413D
678.024	1.064	679900	WORD_OFF	n/a	n/a	OVEN	Appliances	2	5	[0, 0, 0]	n/a	catFR1	0	R1413D
679.088	1.636	680982	WORD	n/a	wordpools/wordpool_categorized_EN.txt	CROW	Birds	3	5	[0, 0, 0]	n/a	catFR1	0	R1413D
680.724	0.751	682597	WORD_OFF	n/a	n/a	CROW	Birds	3	5	[0, 0, 0]	n/a	catFR1	0	R1413D
681.475	1.633	683360	WORD	n/a	wordpools/wordpool_categorized_EN.txt	GOOSE	Birds	4	5	[0, 0, 0]	n/a	catFR1	0	R1413D
683.108	0.897	684988	WORD_OFF	n/a	n/a	GOOSE	Birds	4	5	[0, 0, 0]	n/a	catFR1	0	R1413D
684.005	1.637	685903	WORD	n/a	wordpools/wordpool_categorized_EN.txt	BATHROOM	Building	5	5	[0, 0, 0]	n/a	catFR1	0	R1413D
685.642	0.808	687519	WORD_OFF	n/a	n/a	BATHROOM	Building	5	5	[0, 0, 0]	n/a	catFR1	0	R1413D
686.45	1.609	688332	WORD	n/a	wordpools/wordpool_categorized_EN.txt	ROOF	Building	6	5	[0, 0, 0]	n/a	catFR1	0	R1413D
688.059	1.127	689935	WORD_OFF	n/a	n/a	ROOF	Building	6	5	[0, 0, 0]	n/a	catFR1	0	R1413D
689.186	1.623	691067	WORD	n/a	wordpools/wordpool_categorized_EN.txt	CARDINAL	Birds	7	5	[0, 0, 0]	n/a	catFR1	0	R1413D
690.809	0.797	692682	WORD_OFF	n/a	n/a	CARDINAL	Birds	7	5	[0, 0, 0]	n/a	catFR1	0	R1413D
691.606	1.621	693483	WORD	n/a	wordpools/wordpool_categorized_EN.txt	BLUEBIRD	Birds	8	5	[0, 0, 0]	n/a	catFR1	0	R1413D
693.227	0.929	695098	WORD_OFF	n/a	n/a	BLUEBIRD	Birds	8	5	[0, 0, 0]	n/a	catFR1	0	R1413D
694.156	1.621	696027	WORD	n/a	wordpools/wordpool_categorized_EN.txt	ROOM	Building	9	5	[0, 0, 0]	n/a	catFR1	0	R1413D
695.777	0.963	697655	WORD_OFF	n/a	n/a	ROOM	Building	9	5	[0, 0, 0]	n/a	catFR1	0	R1413D
696.74	1.637	698634	WORD	n/a	wordpools/wordpool_categorized_EN.txt	FOUNDATION	Building	10	5	[0, 0, 0]	n/a	catFR1	0	R1413D
698.377	0.889	700249	WORD_OFF	n/a	n/a	FOUNDATION	Building	10	5	[0, 0, 0]	n/a	catFR1	0	R1413D
699.266	1.629	701152	WORD	n/a	wordpools/wordpool_categorized_EN.txt	DISHWASHER	Appliances	11	5	[0, 0, 0]	n/a	catFR1	0	R1413D
700.895	0.894	702767	WORD_OFF	n/a	n/a	DISHWASHER	Appliances	11	5	[0, 0, 0]	n/a	catFR1	0	R1413D
701.789	1.623	703670	WORD	n/a	wordpools/wordpool_categorized_EN.txt	DRYER	Appliances	12	5	[0, 0, 0]	n/a	catFR1	0	R1413D
703.412	0.0	705297	START	n/a	n/a	n/a	n/a	-999	5	[-999, -999, -999]	n/a	catFR1	0	R1413D
703.411	0.0	705298	WORD_OFF	n/a	n/a	DRYER	Appliances	12	5	[0, 0, 0]	n/a	catFR1	0	R1413D
703.411	0.001	705298	ENCODING_END	n/a	n/a	n/a	n/a	-999	5	[0, 0, 0]	n/a	catFR1	0	R1413D
703.412	0.015	705298	DISTRACT_START	n/a	n/a	n/a	n/a	-999	5	[0, 0, 0]	n/a	catFR1	0	R1413D
703.427	3.752	705312	PROB	3.726	n/a	n/a	n/a	-999	5	[8, 7, 7]	22.0	catFR1	0	R1413D
707.179	4.768	709064	PROB	4.733	n/a	n/a	n/a	-999	5	[6, 7, 2]	15.0	catFR1	0	R1413D
711.947	2.25	713832	PROB	2.213	n/a	n/a	n/a	-999	5	[3, 4, 6]	13.0	catFR1	0	R1413D
714.197	2.484	716081	PROB	2.451	n/a	n/a	n/a	-999	5	[1, 6, 3]	10.0	catFR1	0	R1413D
716.681	2.666	718565	PROB	2.639	n/a	n/a	n/a	-999	5	[9, 4, 6]	19.0	catFR1	0	R1413D
719.347	4.252	721231	PROB	4.239	n/a	n/a	n/a	-999	5	[2, 5, 8]	15.0	catFR1	0	R1413D
723.599	0.0	725469	DISTRACT_END	n/a	n/a	n/a	n/a	-999	5	[0, 0, 0]	n/a	catFR1	0	R1413D
723.586	2.147	725470	STOP	n/a	n/a	n/a	n/a	-999	5	[-999, -999, -999]	n/a	catFR1	0	R1413D
725.733	0.594	727618	REC_START	n/a	n/a	n/a	n/a	-999	5	[0, 0, 0]	n/a	catFR1	0	R1413D
726.327	1.019	728211	REC_WORD	0.594	n/a	WASHER	Appliances	1	5	[0, 0, 0]	n/a	catFR1	0	R1413D
727.346	1.462	729230	REC_WORD	1.613	n/a	DISHWASHER	Appliances	11	5	[0, 0, 0]	n/a	catFR1	0	R1413D
728.808	3.052	730692	REC_WORD	3.075	n/a	BLUEBIRD	Birds	8	5	[0, 0, 0]	n/a	catFR1	0	R1413D
731.86	23.884	733744	REC_WORD	6.127	n/a	FOUNDATION	Building	10	5	[0, 0, 0]	n/a	catFR1	0	R1413D
755.744	2.228	757645	REC_END	n/a	n/a	n/a	n/a	-999	5	[0, 0, 0]	n/a	catFR1	0	R1413D
757.972	10.429	759871	COUNTDOWN_START	n/a	n/a	n/a	n/a	-999	6	[0, 0, 0]	n/a	catFR1	0	R1413D
768.401	1.19	770274	COUNTDOWN_END	n/a	n/a	n/a	n/a	-999	6	[0, 0, 0]	n/a	catFR1	0	R1413D
769.591	1.031	771457	ENCODING_START	n/a	n/a	n/a	n/a	-999	6	[0, 0, 0]	n/a	catFR1	0	R1413D
770.622	1.636	772513	WORD	n/a	wordpools/wordpool_categorized_EN.txt	FUDGE	Desserts	1	6	[0, 0, 0]	n/a	catFR1	0	R1413D
772.258	0.854	774128	WORD_OFF	n/a	n/a	FUDGE	Desserts	1	6	[0, 0, 0]	n/a	catFR1	0	R1413D
773.112	1.63	774993	WORD	n/a	wordpools/wordpool_categorized_EN.txt	PIE	Desserts	2	6	[0, 0, 0]	n/a	catFR1	0	R1413D
774.742	0.878	776608	WORD_OFF	n/a	n/a	PIE	Desserts	2	6	[0, 0, 0]	n/a	catFR1	0	R1413D
775.62	1.622	777498	WORD	n/a	wordpools/wordpool_categorized_EN.txt	HORSE	FarmAnimals	3	6	[0, 0, 0]	n/a	catFR1	0	R1413D
777.242	0.896	779113	WORD_OFF	n/a	n/a	HORSE	FarmAnimals	3	6	[0, 0, 0]	n/a	catFR1	0	R1413D
778.138	1.621	780016	WORD	n/a	wordpools/wordpool_categorized_EN.txt	ROOSTER	FarmAnimals	4	6	[0, 0, 0]	n/a	catFR1	0	R1413D
779.759	0.974	781631	WORD_OFF	n/a	n/a	ROOSTER	FarmAnimals	4	6	[0, 0, 0]	n/a	catFR1	0	R1413D
780.733	1.626	782611	WORD	n/a	wordpools/wordpool_categorized_EN.txt	BEACH	Landscapes	5	6	[0, 0, 0]	n/a	catFR1	0	R1413D
782.359	1.072	784226	WORD_OFF	n/a	n/a	BEACH	Landscapes	5	6	[0, 0, 0]	n/a	catFR1	0	R1413D
783.431	1.612	785307	WORD	n/a	wordpools/wordpool_categorized_EN.txt	VALLEY	Landscapes	6	6	[0, 0, 0]	n/a	catFR1	0	R1413D
785.043	0.801	786909	WORD_OFF	n/a	n/a	VALLEY	Landscapes	6	6	[0, 0, 0]	n/a	catFR1	0	R1413D
785.844	1.632	787723	WORD	n/a	wordpools/wordpool_categorized_EN.txt	SHEEP	FarmAnimals	7	6	[0, 0, 0]	n/a	catFR1	0	R1413D
787.476	0.858	789351	WORD_OFF	n/a	n/a	SHEEP	FarmAnimals	7	6	[0, 0, 0]	n/a	catFR1	0	R1413D
788.334	1.627	790216	WORD	n/a	wordpools/wordpool_categorized_EN.txt	GOAT	FarmAnimals	8	6	[0, 0, 0]	n/a	catFR1	0	R1413D
789.961	1.073	791831	WORD_OFF	n/a	n/a	GOAT	FarmAnimals	8	6	[0, 0, 0]	n/a	catFR1	0	R1413D
791.034	1.628	792912	WORD	n/a	wordpools/wordpool_categorized_EN.txt	LAKE	Landscapes	9	6	[0, 0, 0]	n/a	catFR1	0	R1413D
792.662	1.005	794527	WORD_OFF	n/a	n/a	LAKE	Landscapes	9	6	[0, 0, 0]	n/a	catFR1	0	R1413D
793.667	1.629	795545	WORD	n/a	wordpools/wordpool_categorized_EN.txt	STREAM	Landscapes	10	6	[0, 0, 0]	n/a	catFR1	0	R1413D
795.296	0.957	797160	WORD_OFF	n/a	n/a	STREAM	Landscapes	10	6	[0, 0, 0]	n/a	catFR1	0	R1413D
796.253	1.626	798126	WORD	n/a	wordpools/wordpool_categorized_EN.txt	CAKE	Desserts	11	6	[0, 0, 0]	n/a	catFR1	0	R1413D
797.879	0.783	799742	WORD_OFF	n/a	n/a	CAKE	Desserts	11	6	[0, 0, 0]	n/a	catFR1	0	R1413D
798.662	1.635	800543	WORD	n/a	wordpools/wordpool_categorized_EN.txt	COBBLER	Desserts	12	6	[0, 0, 0]	n/a	catFR1	0	R1413D
800.297	0.0	802177	START	n/a	n/a	n/a	n/a	-999	6	[-999, -999, -999]	n/a	catFR1	0	R1413D
800.296	0.001	802183	WORD_OFF	n/a	n/a	COBBLER	Desserts	12	6	[0, 0, 0]	n/a	catFR1	0	R1413D
800.297	0.0	802183	ENCODING_END	n/a	n/a	n/a	n/a	-999	6	[0, 0, 0]	n/a	catFR1	0	R1413D
800.297	0.016	802183	DISTRACT_START	n/a	n/a	n/a	n/a	-999	6	[0, 0, 0]	n/a	catFR1	0	R1413D
800.313	3.451	802193	PROB	3.416	n/a	n/a	n/a	-999	6	[9, 6, 9]	24.0	catFR1	0	R1413D
803.764	2.833	805644	PROB	2.797	n/a	n/a	n/a	-999	6	[5, 1, 2]	8.0	catFR1	0	R1413D
806.597	2.251	808477	PROB	2.22	n/a	n/a	n/a	-999	6	[5, 3, 1]	9.0	catFR1	0	R1413D
808.848	2.25	810728	PROB	2.218	n/a	n/a	n/a	-999	6	[1, 8, 5]	14.0	catFR1	0	R1413D
811.098	2.718	812978	PROB	2.695	n/a	n/a	n/a	-999	6	[5, 1, 3]	9.0	catFR1	0	R1413D
813.816	2.717	815695	PROB	2.688	n/a	n/a	n/a	-999	6	[2, 3, 1]	6.0	catFR1	0	R1413D
816.533	4.451	818412	PROB	4.444	n/a	n/a	n/a	-999	6	[6, 5, 5]	16.0	catFR1	0	R1413D
820.984	0.0	822850	DISTRACT_END	n/a	n/a	n/a	n/a	-999	6	[0, 0, 0]	n/a	catFR1	0	R1413D
820.977	2.406	822856	STOP	n/a	n/a	n/a	n/a	-999	6	[-999, -999, -999]	n/a	catFR1	0	R1413D
823.383	2.434	825267	REC_START	n/a	n/a	n/a	n/a	-999	6	[0, 0, 0]	n/a	catFR1	0	R1413D
825.817	3.03	827696	REC_WORD	2.434	n/a	STREAM	Landscapes	10	6	[0, 0, 0]	n/a	catFR1	0	R1413D
828.847	2.892	830726	REC_WORD_VV	5.464	n/a	<>	n/a	-999	6	[0, 0, 0]	n/a	catFR1	0	R1413D
831.739	0.889	833618	REC_WORD	8.356	n/a	HORSE	FarmAnimals	3	6	[0, 0, 0]	n/a	catFR1	0	R1413D
832.628	4.598	834507	REC_WORD	9.245	n/a	ROOSTER	FarmAnimals	4	6	[0, 0, 0]	n/a	catFR1	0	R1413D
837.226	2.253	839104	REC_WORD	13.843	n/a	COBBLER	Desserts	12	6	[0, 0, 0]	n/a	catFR1	0	R1413D
839.479	8.729	841357	REC_WORD	16.096	n/a	PIE	Desserts	2	6	[0, 0, 0]	n/a	catFR1	0	R1413D
848.208	0.616	850086	REC_WORD	24.825	n/a	LAKE	Landscapes	9	6	[0, 0, 0]	n/a	catFR1	0	R1413D
848.824	4.57	850702	REC_WORD	25.441	n/a	STREAM	Landscapes	10	6	[0, 0, 0]	n/a	catFR1	0	R1413D
853.394	2.28	855281	REC_END	n/a	n/a	n/a	n/a	-999	6	[0, 0, 0]	n/a	catFR1	0	R1413D
855.674	10.429	857570	COUNTDOWN_START	n/a	n/a	n/a	n/a	-999	7	[0, 0, 0]	n/a	catFR1	0	R1413D
866.103	1.173	867973	COUNTDOWN_END	n/a	n/a	n/a	n/a	-999	7	[0, 0, 0]	n/a	catFR1	0	R1413D
867.276	0.945	869143	ENCODING_START	n/a	n/a	n/a	n/a	-999	7	[0, 0, 0]	n/a	catFR1	0	R1413D
868.221	1.638	870110	WORD	n/a	wordpools/wordpool_categorized_EN.txt	MARIGOLD	Flowers	1	7	[0, 0, 0]	n/a	catFR1	0	R1413D
869.859	0.971	871725	WORD_OFF	n/a	n/a	MARIGOLD	Flowers	1	7	[0, 0, 0]	n/a	catFR1	0	R1413D
870.83	1.629	872704	WORD	n/a	wordpools/wordpool_categorized_EN.txt	SUNFLOWER	Flowers	2	7	[0, 0, 0]	n/a	catFR1	0	R1413D
872.459	0.89	874320	WORD_OFF	n/a	n/a	SUNFLOWER	Flowers	2	7	[0, 0, 0]	n/a	catFR1	0	R1413D
873.349	1.628	875223	WORD	n/a	wordpools/wordpool_categorized_EN.txt	SHELF	Furniture	3	7	[0, 0, 0]	n/a	catFR1	0	R1413D
874.977	1.001	876838	WORD_OFF	n/a	n/a	SHELF	Furniture	3	7	[0, 0, 0]	n/a	catFR1	0	R1413D
875.978	1.633	877855	WORD	n/a	wordpools/wordpool_categorized_EN.txt	SOFA	Furniture	4	7	[0, 0, 0]	n/a	catFR1	0	R1413D
877.611	0.862	879470	WORD_OFF	n/a	n/a	SOFA	Furniture	4	7	[0, 0, 0]	n/a	catFR1	0	R1413D
878.473	1.605	880335	WORD	n/a	wordpools/wordpool_categorized_EN.txt	HILLS	Landscapes	5	7	[0, 0, 0]	n/a	catFR1	0	R1413D
880.078	1.06	881938	WORD_OFF	n/a	n/a	HILLS	Landscapes	5	7	[0, 0, 0]	n/a	catFR1	0	R1413D
881.138	1.624	883006	WORD	n/a	wordpools/wordpool_categorized_EN.txt	FOREST	Landscapes	6	7	[0, 0, 0]	n/a	catFR1	0	R1413D
882.762	0.754	884621	WORD_OFF	n/a	n/a	FOREST	Landscapes	6	7	[0, 0, 0]	n/a	catFR1	0	R1413D
883.516	1.63	885397	WORD	n/a	wordpools/wordpool_categorized_EN.txt	BED	Furniture	7	7	[0, 0, 0]	n/a	catFR1	0	R1413D
885.146	1.13	887012	WORD_OFF	n/a	n/a	BED	Furniture	7	7	[0, 0, 0]	n/a	catFR1	0	R1413D
886.276	1.636	888157	WORD	n/a	wordpools/wordpool_categorized_EN.txt	DRESSER	Furniture	8	7	[0, 0, 0]	n/a	catFR1	0	R1413D
887.912	1.026	889772	WORD_OFF	n/a	n/a	DRESSER	Furniture	8	7	[0, 0, 0]	n/a	catFR1	0	R1413D
888.938	1.625	890815	WORD	n/a	wordpools/wordpool_categorized_EN.txt	OCEAN	Landscapes	9	7	[0, 0, 0]	n/a	catFR1	0	R1413D
890.563	0.977	892430	WORD_OFF	n/a	n/a	OCEAN	Landscapes	9	7	[0, 0, 0]	n/a	catFR1	0	R1413D
891.54	1.624	893409	WORD	n/a	wordpools/wordpool_categorized_EN.txt	MOUNTAIN	Landscapes	10	7	[0, 0, 0]	n/a	catFR1	0	R1413D
893.164	1.067	895024	WORD_OFF	n/a	n/a	MOUNTAIN	Landscapes	10	7	[0, 0, 0]	n/a	catFR1	0	R1413D
894.231	1.633	896105	WORD	n/a	wordpools/wordpool_categorized_EN.txt	DAISY	Flowers	11	7	[0, 0, 0]	n/a	catFR1	0	R1413D
895.864	0.807	897733	WORD_OFF	n/a	n/a	DAISY	Flowers	11	7	[0, 0, 0]	n/a	catFR1	0	R1413D
896.671	1.628	898547	WORD	n/a	wordpools/wordpool_categorized_EN.txt	TULIP	Flowers	12	7	[0, 0, 0]	n/a	catFR1	0	R1413D
898.299	0.0	900174	START	n/a	n/a	n/a	n/a	-999	7	[-999, -999, -999]	n/a	catFR1	0	R1413D
898.298	0.0	900175	WORD_OFF	n/a	n/a	TULIP	Flowers	12	7	[0, 0, 0]	n/a	catFR1	0	R1413D
898.298	0.001	900175	ENCODING_END	n/a	n/a	n/a	n/a	-999	7	[0, 0, 0]	n/a	catFR1	0	R1413D
898.299	0.015	900175	DISTRACT_START	n/a	n/a	n/a	n/a	-999	7	[0, 0, 0]	n/a	catFR1	0	R1413D
898.314	3.785	900189	PROB	3.761	n/a	n/a	n/a	-999	7	[3, 5, 9]	17.0	catFR1	0	R1413D
902.099	3.683	903974	PROB	3.655	n/a	n/a	n/a	-999	7	[5, 4, 4]	14.0	catFR1	0	R1413D
905.782	5.468	907657	PROB	5.443	n/a	n/a	n/a	-999	7	[5, 2, 6]	13.0	catFR1	0	R1413D
911.25	3.551	913125	PROB	3.519	n/a	n/a	n/a	-999	7	[8, 6, 3]	17.0	catFR1	0	R1413D
914.801	3.533	916675	PROB	3.521	n/a	n/a	n/a	-999	7	[3, 9, 6]	18.0	catFR1	0	R1413D
918.334	0.0	920193	DISTRACT_END	n/a	n/a	n/a	n/a	-999	7	[0, 0, 0]	n/a	catFR1	0	R1413D
918.322	2.28	920196	STOP	n/a	n/a	n/a	n/a	-999	7	[-999, -999, -999]	n/a	catFR1	0	R1413D
920.602	0.407	922482	REC_START	n/a	n/a	n/a	n/a	-999	7	[0, 0, 0]	n/a	catFR1	0	R1413D
921.009	0.667	922883	REC_WORD	0.407	n/a	HILLS	Landscapes	5	7	[0, 0, 0]	n/a	catFR1	0	R1413D
921.676	1.175	923550	REC_WORD	1.074	n/a	MOUNTAIN	Landscapes	10	7	[0, 0, 0]	n/a	catFR1	0	R1413D
922.851	1.584	924725	REC_WORD	2.249	n/a	TULIP	Flowers	12	7	[0, 0, 0]	n/a	catFR1	0	R1413D
924.435	3.703	926309	REC_WORD	3.833	n/a	SUNFLOWER	Flowers	2	7	[0, 0, 0]	n/a	catFR1	0	R1413D
928.138	22.475	930012	REC_WORD	7.536	n/a	DAISY	Flowers	11	7	[0, 0, 0]	n/a	catFR1	0	R1413D
950.613	1.945	952497	REC_END	n/a	n/a	n/a	n/a	-999	7	[0, 0, 0]	n/a	catFR1	0	R1413D
952.558	10.429	954455	COUNTDOWN_START	n/a	n/a	n/a	n/a	-999	8	[0, 0, 0]	n/a	catFR1	0	R1413D
962.987	1.157	964859	COUNTDOWN_END	n/a	n/a	n/a	n/a	-999	8	[0, 0, 0]	n/a	catFR1	0	R1413D
964.144	1.137	966003	ENCODING_START	n/a	n/a	n/a	n/a	-999	8	[0, 0, 0]	n/a	catFR1	0	R1413D
965.281	1.63	967148	WORD	n/a	wordpools/wordpool_categorized_EN.txt	COLA	Beverages	1	8	[0, 0, 0]	n/a	catFR1	0	R1413D
966.911	0.964	968776	WORD_OFF	n/a	n/a	COLA	Beverages	1	8	[0, 0, 0]	n/a	catFR1	0	R1413D
967.875	1.636	969755	WORD	n/a	wordpools/wordpool_categorized_EN.txt	BEER	Beverages	2	8	[0, 0, 0]	n/a	catFR1	0	R1413D
969.511	0.825	971370	WORD_OFF	n/a	n/a	BEER	Beverages	2	8	[0, 0, 0]	n/a	catFR1	0	R1413D
970.336	1.609	972202	WORD	n/a	wordpools/wordpool_categorized_EN.txt	PUZZLE	Toys	3	8	[0, 0, 0]	n/a	catFR1	0	R1413D
971.945	0.88	973799	WORD_OFF	n/a	n/a	PUZZLE	Toys	3	8	[0, 0, 0]	n/a	catFR1	0	R1413D
972.825	1.619	974690	WORD	n/a	wordpools/wordpool_categorized_EN.txt	BARBIE	Toys	4	8	[0, 0, 0]	n/a	catFR1	0	R1413D
974.444	0.866	976305	WORD_OFF	n/a	n/a	BARBIE	Toys	4	8	[0, 0, 0]	n/a	catFR1	0	R1413D
975.31	1.636	977182	WORD	n/a	wordpools/wordpool_categorized_EN.txt	MOPED	Vehicles	5	8	[0, 0, 0]	n/a	catFR1	0	R1413D
976.946	0.9	978810	WORD_OFF	n/a	n/a	MOPED	Vehicles	5	8	[0, 0, 0]	n/a	catFR1	0	R1413D
977.846	1.633	979726	WORD	n/a	wordpools/wordpool_categorized_EN.txt	PLANE	Vehicles	6	8	[0, 0, 0]	n/a	catFR1	0	R1413D
979.479	0.994	981341	WORD_OFF	n/a	n/a	PLANE	Vehicles	6	8	[0, 0, 0]	n/a	catFR1	0	R1413D
980.473	1.624	982333	WORD	n/a	wordpools/wordpool_categorized_EN.txt	CIDER	Beverages	7	8	[0, 0, 0]	n/a	catFR1	0	R1413D
982.097	0.95	983961	WORD_OFF	n/a	n/a	CIDER	Beverages	7	8	[0, 0, 0]	n/a	catFR1	0	R1413D
983.047	1.634	984928	WORD	n/a	wordpools/wordpool_categorized_EN.txt	JUICE	Beverages	8	8	[0, 0, 0]	n/a	catFR1	0	R1413D
984.681	0.903	986543	WORD_OFF	n/a	n/a	JUICE	Beverages	8	8	[0, 0, 0]	n/a	catFR1	0	R1413D
985.584	1.63	987458	WORD	n/a	wordpools/wordpool_categorized_EN.txt	BALL	Toys	9	8	[0, 0, 0]	n/a	catFR1	0	R1413D
987.214	0.978	989074	WORD_OFF	n/a	n/a	BALL	Toys	9	8	[0, 0, 0]	n/a	catFR1	0	R1413D
988.192	1.623	990053	WORD	n/a	wordpools/wordpool_categorized_EN.txt	DOLL	Toys	10	8	[0, 0, 0]	n/a	catFR1	0	R1413D
989.815	0.933	991668	WORD_OFF	n/a	n/a	DOLL	Toys	10	8	[0, 0, 0]	n/a	catFR1	0	R1413D
990.748	1.633	992622	WORD	n/a	wordpools/wordpool_categorized_EN.txt	BIKE	Vehicles	11	8	[0, 0, 0]	n/a	catFR1	0	R1413D
992.381	0.766	994237	WORD_OFF	n/a	n/a	BIKE	Vehicles	11	8	[0, 0, 0]	n/a	catFR1	0	R1413D
993.147	1.635	995026	WORD	n/a	wordpools/wordpool_categorized_EN.txt	VAN	Vehicles	12	8	[0, 0, 0]	n/a	catFR1	0	R1413D
994.782	0.001	996653	WORD_OFF	n/a	n/a	VAN	Vehicles	12	8	[0, 0, 0]	n/a	catFR1	0	R1413D
994.783	0.0	996653	ENCODING_END	n/a	n/a	n/a	n/a	-999	8	[0, 0, 0]	n/a	catFR1	0	R1413D
994.783	0.0	996653	START	n/a	n/a	n/a	n/a	-999	8	[-999, -999, -999]	n/a	catFR1	0	R1413D
994.783	0.016	996666	DISTRACT_START	n/a	n/a	n/a	n/a	-999	8	[0, 0, 0]	n/a	catFR1	0	R1413D
994.799	2.683	996669	PROB	2.657	n/a	n/a	n/a	-999	8	[1, 2, 3]	6.0	catFR1	0	R1413D
997.482	3.168	999352	PROB	3.135	n/a	n/a	n/a	-999	8	[9, 6, 4]	19.0	catFR1	0	R1413D
1000.65	2.984	1002520	PROB	2.959	n/a	n/a	n/a	-999	8	[8, 4, 2]	14.0	catFR1	0	R1413D
1003.634	2.284	1005504	PROB	2.246	n/a	n/a	n/a	-999	8	[5, 4, 5]	14.0	catFR1	0	R1413D
1005.918	3.15	1007788	PROB	3.115	n/a	n/a	n/a	-999	8	[1, 5, 4]	10.0	catFR1	0	R1413D
1009.068	2.634	1010938	PROB	2.605	n/a	n/a	n/a	-999	8	[7, 9, 1]	17.0	catFR1	0	R1413D
1011.702	2.567	1013572	PROB	2.531	n/a	n/a	n/a	-999	8	[3, 1, 3]	7.0	catFR1	0	R1413D
1014.269	2.15	1016138	PROB	2.139	n/a	n/a	n/a	-999	8	[1, 3, 9]	13.0	catFR1	0	R1413D
1016.419	0.0	1018274	DISTRACT_END	n/a	n/a	n/a	n/a	-999	8	[0, 0, 0]	n/a	catFR1	0	R1413D
1016.408	2.279	1018277	STOP	n/a	n/a	n/a	n/a	-999	8	[-999, -999, -999]	n/a	catFR1	0	R1413D
1018.687	2.362	1020550	REC_START	n/a	n/a	n/a	n/a	-999	8	[0, 0, 0]	n/a	catFR1	0	R1413D
1021.049	22.65	1022918	REC_WORD	2.362	n/a	VAN	Vehicles	12	8	[0, 0, 0]	n/a	catFR1	0	R1413D
1043.699	4.999	1045567	REC_WORD	25.012	n/a	BIKE	Vehicles	11	8	[0, 0, 0]	n/a	catFR1	0	R1413D
1048.698	2.162	1050578	REC_END	n/a	n/a	n/a	n/a	-999	8	[0, 0, 0]	n/a	catFR1	0	R1413D
1050.86	10.428	1052752	COUNTDOWN_START	n/a	n/a	n/a	n/a	-999	9	[0, 0, 0]	n/a	catFR1	0	R1413D
1061.288	1.241	1063143	COUNTDOWN_END	n/a	n/a	n/a	n/a	-999	9	[0, 0, 0]	n/a	catFR1	0	R1413D
1062.529	1.035	1064389	ENCODING_START	n/a	n/a	n/a	n/a	-999	9	[0, 0, 0]	n/a	catFR1	0	R1413D
1063.564	1.631	1065432	WORD	n/a	wordpools/wordpool_categorized_EN.txt	REFRIGERATOR	Appliances	1	9	[0, 0, 0]	n/a	catFR1	0	R1413D
1065.195	0.907	1067047	WORD_OFF	n/a	n/a	REFRIGERATOR	Appliances	1	9	[0, 0, 0]	n/a	catFR1	0	R1413D
1066.102	1.627	1067963	WORD	n/a	wordpools/wordpool_categorized_EN.txt	BLENDER	Appliances	2	9	[0, 0, 0]	n/a	catFR1	0	R1413D
1067.729	0.755	1069578	WORD_OFF	n/a	n/a	BLENDER	Appliances	2	9	[0, 0, 0]	n/a	catFR1	0	R1413D
1068.484	1.612	1070354	WORD	n/a	wordpools/wordpool_categorized_EN.txt	SPARROW	Birds	3	9	[0, 0, 0]	n/a	catFR1	0	R1413D
1070.096	1.144	1071956	WORD_OFF	n/a	n/a	SPARROW	Birds	3	9	[0, 0, 0]	n/a	catFR1	0	R1413D
1071.24	1.624	1073101	WORD	n/a	wordpools/wordpool_categorized_EN.txt	DUCK	Birds	4	9	[0, 0, 0]	n/a	catFR1	0	R1413D
1072.864	1.111	1074716	WORD_OFF	n/a	n/a	DUCK	Birds	4	9	[0, 0, 0]	n/a	catFR1	0	R1413D
1073.975	1.622	1075835	WORD	n/a	wordpools/wordpool_categorized_EN.txt	CUPCAKE	Desserts	5	9	[0, 0, 0]	n/a	catFR1	0	R1413D
1075.597	1.016	1077451	WORD_OFF	n/a	n/a	CUPCAKE	Desserts	5	9	[0, 0, 0]	n/a	catFR1	0	R1413D
1076.613	1.635	1078481	WORD	n/a	wordpools/wordpool_categorized_EN.txt	JELLO	Desserts	6	9	[0, 0, 0]	n/a	catFR1	0	R1413D
1078.248	1.088	1080096	WORD_OFF	n/a	n/a	JELLO	Desserts	6	9	[0, 0, 0]	n/a	catFR1	0	R1413D
1079.336	1.629	1081202	WORD	n/a	wordpools/wordpool_categorized_EN.txt	TOASTER	Appliances	7	9	[0, 0, 0]	n/a	catFR1	0	R1413D
1080.965	0.796	1082817	WORD_OFF	n/a	n/a	TOASTER	Appliances	7	9	[0, 0, 0]	n/a	catFR1	0	R1413D
1081.761	1.62	1083619	WORD	n/a	wordpools/wordpool_categorized_EN.txt	MIXER	Appliances	8	9	[0, 0, 0]	n/a	catFR1	0	R1413D
1083.381	1.115	1085234	WORD_OFF	n/a	n/a	MIXER	Appliances	8	9	[0, 0, 0]	n/a	catFR1	0	R1413D
1084.496	1.637	1086366	WORD	n/a	wordpools/wordpool_categorized_EN.txt	HAWK	Birds	9	9	[0, 0, 0]	n/a	catFR1	0	R1413D
1086.133	1.029	1087981	WORD_OFF	n/a	n/a	HAWK	Birds	9	9	[0, 0, 0]	n/a	catFR1	0	R1413D
1087.162	1.621	1089024	WORD	n/a	wordpools/wordpool_categorized_EN.txt	ROBIN	Birds	10	9	[0, 0, 0]	n/a	catFR1	0	R1413D
1088.783	0.901	1090639	WORD_OFF	n/a	n/a	ROBIN	Birds	10	9	[0, 0, 0]	n/a	catFR1	0	R1413D
1089.684	1.633	1091555	WORD	n/a	wordpools/wordpool_categorized_EN.txt	PASTRY	Desserts	11	9	[0, 0, 0]	n/a	catFR1	0	R1413D
1091.317	1.028	1093170	WORD_OFF	n/a	n/a	PASTRY	Desserts	11	9	[0, 0, 0]	n/a	catFR1	0	R1413D
1092.345	1.623	1094200	WORD	n/a	wordpools/wordpool_categorized_EN.txt	MOUSSE	Desserts	12	9	[0, 0, 0]	n/a	catFR1	0	R1413D
1093.968	0.0	1095833	START	n/a	n/a	n/a	n/a	-999	9	[-999, -999, -999]	n/a	catFR1	0	R1413D
1093.967	0.001	1095841	WORD_OFF	n/a	n/a	MOUSSE	Desserts	12	9	[0, 0, 0]	n/a	catFR1	0	R1413D
1093.968	0.0	1095841	ENCODING_END	n/a	n/a	n/a	n/a	-999	9	[0, 0, 0]	n/a	catFR1	0	R1413D
1093.968	0.016	1095841	DISTRACT_START	n/a	n/a	n/a	n/a	-999	9	[0, 0, 0]	n/a	catFR1	0	R1413D
1093.984	3.95	1095849	PROB	3.918	n/a	n/a	n/a	-999	9	[5, 3, 8]	16.0	catFR1	0	R1413D
1097.934	2.718	1099799	PROB	2.696	n/a	n/a	n/a	-999	9	[3, 2, 3]	8.0	catFR1	0	R1413D
1100.652	4.017	1102517	PROB	3.984	n/a	n/a	n/a	-999	9	[8, 5, 9]	22.0	catFR1	0	R1413D
1104.669	3.767	1106534	PROB	3.742	n/a	n/a	n/a	-999	9	[4, 2, 9]	15.0	catFR1	0	R1413D
1108.436	2.917	1110301	PROB	2.88	n/a	n/a	n/a	-999	9	[3, 6, 7]	16.0	catFR1	0	R1413D
1111.353	3.212	1113218	PROB	3.212	n/a	n/a	n/a	-999	9	[5, 2, 4]	11.0	catFR1	0	R1413D
1114.565	0.006	1116429	STOP	n/a	n/a	n/a	n/a	-999	9	[-999, -999, -999]	n/a	catFR1	0	R1413D
1114.571	2.168	1116431	DISTRACT_END	n/a	n/a	n/a	n/a	-999	9	[0, 0, 0]	n/a	catFR1	0	R1413D
1116.739	0.045	1118606	REC_START	n/a	n/a	n/a	n/a	-999	9	[0, 0, 0]	n/a	catFR1	0	R1413D
1116.784	1.0	1118648	REC_WORD	0.045	n/a	REFRIGERATOR	Appliances	1	9	[0, 0, 0]	n/a	catFR1	0	R1413D
1117.784	0.726	1119648	REC_WORD_VV	1.045	n/a	<>	n/a	-999	9	[0, 0, 0]	n/a	catFR1	0	R1413D
1118.51	12.576	1120374	REC_WORD	1.771	n/a	MIXER	Appliances	8	9	[0, 0, 0]	n/a	catFR1	0	R1413D
1131.086	1.055	1132950	REC_WORD	14.347	n/a	PASTRY	Desserts	11	9	[0, 0, 0]	n/a	catFR1	0	R1413D
1132.141	7.849	1134004	REC_WORD	15.402	n/a	MOUSSE	Desserts	12	9	[0, 0, 0]	n/a	catFR1	0	R1413D
1139.99	6.758	1141853	REC_WORD	23.251	n/a	SPARROW	Birds	3	9	[0, 0, 0]	n/a	catFR1	0	R1413D
1146.748	1.847	1148620	REC_END	n/a	n/a	n/a	n/a	-999	9	[0, 0, 0]	n/a	catFR1	0	R1413D
1148.595	10.429	1150477	COUNTDOWN_START	n/a	n/a	n/a	n/a	-999	10	[0, 0, 0]	n/a	catFR1	0	R1413D
1159.024	1.073	1160880	COUNTDOWN_END	n/a	n/a	n/a	n/a	-999	10	[0, 0, 0]	n/a	catFR1	0	R1413D
1160.097	0.755	1161948	ENCODING_START	n/a	n/a	n/a	n/a	-999	10	[0, 0, 0]	n/a	catFR1	0	R1413D
1160.852	1.627	1162712	WORD	n/a	wordpools/wordpool_categorized_EN.txt	STOVE	Appliances	1	10	[0, 0, 0]	n/a	catFR1	0	R1413D
1162.479	0.849	1164327	WORD_OFF	n/a	n/a	STOVE	Appliances	1	10	[0, 0, 0]	n/a	catFR1	0	R1413D
1163.328	1.636	1165192	WORD	n/a	wordpools/wordpool_categorized_EN.txt	IRON	Appliances	2	10	[0, 0, 0]	n/a	catFR1	0	R1413D
1164.964	0.771	1166819	WORD_OFF	n/a	n/a	IRON	Appliances	2	10	[0, 0, 0]	n/a	catFR1	0	R1413D
1165.735	1.628	1167595	WORD	n/a	wordpools/wordpool_categorized_EN.txt	ATTIC	Building	3	10	[0, 0, 0]	n/a	catFR1	0	R1413D
1167.363	1.041	1169210	WORD_OFF	n/a	n/a	ATTIC	Building	3	10	[0, 0, 0]	n/a	catFR1	0	R1413D
1168.404	1.611	1170266	WORD	n/a	wordpools/wordpool_categorized_EN.txt	HALLWAY	Building	4	10	[0, 0, 0]	n/a	catFR1	0	R1413D
1170.015	0.964	1171868	WORD_OFF	n/a	n/a	HALLWAY	Building	4	10	[0, 0, 0]	n/a	catFR1	0	R1413D
1170.979	1.636	1172848	WORD	n/a	wordpools/wordpool_categorized_EN.txt	RADIO	Electronics	5	10	[0, 0, 0]	n/a	catFR1	0	R1413D
1172.615	0.991	1174463	WORD_OFF	n/a	n/a	RADIO	Electronics	5	10	[0, 0, 0]	n/a	catFR1	0	R1413D
1173.606	1.626	1175468	WORD	n/a	wordpools/wordpool_categorized_EN.txt	TABLET	Electronics	6	10	[0, 0, 0]	n/a	catFR1	0	R1413D
1175.232	0.888	1177083	WORD_OFF	n/a	n/a	TABLET	Electronics	6	10	[0, 0, 0]	n/a	catFR1	0	R1413D
1176.12	1.63	1177986	WORD	n/a	wordpools/wordpool_categorized_EN.txt	FREEZER	Appliances	7	10	[0, 0, 0]	n/a	catFR1	0	R1413D
1177.75	1.1	1179601	WORD_OFF	n/a	n/a	FREEZER	Appliances	7	10	[0, 0, 0]	n/a	catFR1	0	R1413D
1178.85	1.633	1180720	WORD	n/a	wordpools/wordpool_categorized_EN.txt	VACUUM	Appliances	8	10	[0, 0, 0]	n/a	catFR1	0	R1413D
1180.483	0.792	1182335	WORD_OFF	n/a	n/a	VACUUM	Appliances	8	10	[0, 0, 0]	n/a	catFR1	0	R1413D
1181.275	1.626	1183137	WORD	n/a	wordpools/wordpool_categorized_EN.txt	WINDOW	Building	9	10	[0, 0, 0]	n/a	catFR1	0	R1413D
1182.901	1.0	1184752	WORD_OFF	n/a	n/a	WINDOW	Building	9	10	[0, 0, 0]	n/a	catFR1	0	R1413D
1183.901	1.633	1185769	WORD	n/a	wordpools/wordpool_categorized_EN.txt	DOOR	Building	10	10	[0, 0, 0]	n/a	catFR1	0	R1413D
1185.534	0.813	1187384	WORD_OFF	n/a	n/a	DOOR	Building	10	10	[0, 0, 0]	n/a	catFR1	0	R1413D
1186.347	1.621	1188198	WORD	n/a	wordpools/wordpool_categorized_EN.txt	STEREO	Electronics	11	10	[0, 0, 0]	n/a	catFR1	0	R1413D
1187.968	1.073	1189814	WORD_OFF	n/a	n/a	STEREO	Electronics	11	10	[0, 0, 0]	n/a	catFR1	0	R1413D
1189.041	1.628	1190895	WORD	n/a	wordpools/wordpool_categorized_EN.txt	SCANNER	Electronics	12	10	[0, 0, 0]	n/a	catFR1	0	R1413D
1190.669	0.0	1192530	START	n/a	n/a	n/a	n/a	-999	10	[-999, -999, -999]	n/a	catFR1	0	R1413D
1190.669	0.0	1192535	WORD_OFF	n/a	n/a	SCANNER	Electronics	12	10	[0, 0, 0]	n/a	catFR1	0	R1413D
1190.669	0.0	1192535	ENCODING_END	n/a	n/a	n/a	n/a	-999	10	[0, 0, 0]	n/a	catFR1	0	R1413D
1190.669	0.016	1192535	DISTRACT_START	n/a	n/a	n/a	n/a	-999	10	[0, 0, 0]	n/a	catFR1	0	R1413D
1190.685	5.435	1192546	PROB	5.406	n/a	n/a	n/a	-999	10	[8, 4, 7]	19.0	catFR1	0	R1413D
1196.12	2.2	1197980	PROB	2.163	n/a	n/a	n/a	-999	10	[3, 3, 1]	7.0	catFR1	0	R1413D
1198.32	3.166	1200180	PROB	3.13	n/a	n/a	n/a	-999	10	[9, 3, 5]	17.0	catFR1	0	R1413D
1201.486	5.236	1203346	PROB	5.213	n/a	n/a	n/a	-999	10	[8, 4, 9]	12.0	catFR1	0	R1413D
1206.722	3.9	1208582	PROB	3.872	n/a	n/a	n/a	-999	10	[4, 6, 4]	14.0	catFR1	0	R1413D
1210.622	2.652	1212482	PROB	2.652	n/a	n/a	n/a	-999	10	[7, 1, 9]	17.0	catFR1	0	R1413D
1213.274	0.016	1215133	STOP	n/a	n/a	n/a	n/a	-999	10	[-999, -999, -999]	n/a	catFR1	0	R1413D
1213.29	2.149	1215135	DISTRACT_END	n/a	n/a	n/a	n/a	-999	10	[0, 0, 0]	n/a	catFR1	0	R1413D
1215.439	0.723	1217297	REC_START	n/a	n/a	n/a	n/a	-999	10	[0, 0, 0]	n/a	catFR1	0	R1413D
1216.162	1.152	1218021	REC_WORD	0.723	n/a	STOVE	Appliances	1	10	[0, 0, 0]	n/a	catFR1	0	R1413D
1217.314	16.754	1219173	REC_WORD	1.875	n/a	IRON	Appliances	2	10	[0, 0, 0]	n/a	catFR1	0	R1413D
1234.068	2.9	1235926	REC_WORD	18.629	n/a	ATTIC	Building	3	10	[0, 0, 0]	n/a	catFR1	0	R1413D
1236.968	8.482	1238826	REC_WORD	21.529	n/a	HALLWAY	Building	4	10	[0, 0, 0]	n/a	catFR1	0	R1413D
1245.45	1.779	1247324	REC_END	n/a	n/a	n/a	n/a	-999	10	[0, 0, 0]	n/a	catFR1	0	R1413D
1247.229	10.429	1249105	COUNTDOWN_START	n/a	n/a	n/a	n/a	-999	11	[0, 0, 0]	n/a	catFR1	0	R1413D
1257.658	1.141	1259508	COUNTDOWN_END	n/a	n/a	n/a	n/a	-999	11	[0, 0, 0]	n/a	catFR1	0	R1413D
1258.799	0.869	1260640	ENCODING_START	n/a	n/a	n/a	n/a	-999	11	[0, 0, 0]	n/a	catFR1	0	R1413D
1259.668	1.63	1261530	WORD	n/a	wordpools/wordpool_categorized_EN.txt	SPEAKER	Electronics	1	11	[0, 0, 0]	n/a	catFR1	0	R1413D
1261.298	0.762	1263145	WORD_OFF	n/a	n/a	SPEAKER	Electronics	1	11	[0, 0, 0]	n/a	catFR1	0	R1413D
1262.06	1.622	1263908	WORD	n/a	wordpools/wordpool_categorized_EN.txt	PHONE	Electronics	2	11	[0, 0, 0]	n/a	catFR1	0	R1413D
1263.682	1.093	1265523	WORD_OFF	n/a	n/a	PHONE	Electronics	2	11	[0, 0, 0]	n/a	catFR1	0	R1413D
1264.775	1.623	1266630	WORD	n/a	wordpools/wordpool_categorized_EN.txt	LIME	Fruit	3	11	[0, 0, 0]	n/a	catFR1	0	R1413D
1266.398	1.062	1268245	WORD_OFF	n/a	n/a	LIME	Fruit	3	11	[0, 0, 0]	n/a	catFR1	0	R1413D
1267.46	1.606	1269313	WORD	n/a	wordpools/wordpool_categorized_EN.txt	LEMON	Fruit	4	11	[0, 0, 0]	n/a	catFR1	0	R1413D
1269.066	1.129	1270916	WORD_OFF	n/a	n/a	LEMON	Fruit	4	11	[0, 0, 0]	n/a	catFR1	0	R1413D
1270.195	1.622	1272048	WORD	n/a	wordpools/wordpool_categorized_EN.txt	RIVER	Landscapes	5	11	[0, 0, 0]	n/a	catFR1	0	R1413D
1271.817	0.837	1273663	WORD_OFF	n/a	n/a	RIVER	Landscapes	5	11	[0, 0, 0]	n/a	catFR1	0	R1413D
1272.654	1.63	1274515	WORD	n/a	wordpools/wordpool_categorized_EN.txt	WOODS	Landscapes	6	11	[0, 0, 0]	n/a	catFR1	0	R1413D
1274.284	1.144	1276130	WORD_OFF	n/a	n/a	WOODS	Landscapes	6	11	[0, 0, 0]	n/a	catFR1	0	R1413D
1275.428	1.607	1277275	WORD	n/a	wordpools/wordpool_categorized_EN.txt	TELEVISION	Electronics	7	11	[0, 0, 0]	n/a	catFR1	0	R1413D
1277.035	0.962	1278877	WORD_OFF	n/a	n/a	TELEVISION	Electronics	7	11	[0, 0, 0]	n/a	catFR1	0	R1413D
1277.997	1.621	1279844	WORD	n/a	wordpools/wordpool_categorized_EN.txt	MICROWAVE	Electronics	8	11	[0, 0, 0]	n/a	catFR1	0	R1413D
1279.618	1.056	1281459	WORD_OFF	n/a	n/a	MICROWAVE	Electronics	8	11	[0, 0, 0]	n/a	catFR1	0	R1413D
1280.674	1.628	1282527	WORD	n/a	wordpools/wordpool_categorized_EN.txt	PEACH	Fruit	9	11	[0, 0, 0]	n/a	catFR1	0	R1413D
1282.302	1.06	1284142	WORD_OFF	n/a	n/a	PEACH	Fruit	9	11	[0, 0, 0]	n/a	catFR1	0	R1413D
1283.362	1.624	1285211	WORD	n/a	wordpools/wordpool_categorized_EN.txt	PLUM	Fruit	10	11	[0, 0, 0]	n/a	catFR1	0	R1413D
1284.986	1.117	1286826	WORD_OFF	n/a	n/a	PLUM	Fruit	10	11	[0, 0, 0]	n/a	catFR1	0	R1413D
1286.103	1.634	1287958	WORD	n/a	wordpools/wordpool_categorized_EN.txt	CREEK	Landscapes	11	11	[0, 0, 0]	n/a	catFR1	0	R1413D
1287.737	1.018	1289586	WORD_OFF	n/a	n/a	CREEK	Landscapes	11	11	[0, 0, 0]	n/a	catFR1	0	R1413D
1288.755	1.632	1290616	WORD	n/a	wordpools/wordpool_categorized_EN.txt	ISLAND	Landscapes	12	11	[0, 0, 0]	n/a	catFR1	0	R1413D
1290.387	0.0	1292243	START	n/a	n/a	n/a	n/a	-999	11	[-999, -999, -999]	n/a	catFR1	0	R1413D
1290.386	0.0	1292244	WORD_OFF	n/a	n/a	ISLAND	Landscapes	12	11	[0, 0, 0]	n/a	catFR1	0	R1413D
1290.386	0.001	1292244	ENCODING_END	n/a	n/a	n/a	n/a	-999	11	[0, 0, 0]	n/a	catFR1	0	R1413D
1290.387	0.016	1292256	DISTRACT_START	n/a	n/a	n/a	n/a	-999	11	[0, 0, 0]	n/a	catFR1	0	R1413D
1290.403	3.268	1292259	PROB	3.243	n/a	n/a	n/a	-999	11	[9, 6, 2]	17.0	catFR1	0	R1413D
1293.671	3.234	1295526	PROB	3.198	n/a	n/a	n/a	-999	11	[3, 6, 9]	18.0	catFR1	0	R1413D
1296.905	2.2	1298760	PROB	2.172	n/a	n/a	n/a	-999	11	[1, 7, 7]	15.0	catFR1	0	R1413D
1299.105	3.434	1300960	PROB	3.402	n/a	n/a	n/a	-999	11	[1, 4, 7]	12.0	catFR1	0	R1413D
1302.539	2.551	1304394	PROB	2.514	n/a	n/a	n/a	-999	11	[3, 5, 8]	16.0	catFR1	0	R1413D
1305.09	2.884	1306945	PROB	2.851	n/a	n/a	n/a	-999	11	[4, 1, 3]	8.0	catFR1	0	R1413D
1307.974	2.983	1309829	PROB	2.975	n/a	n/a	n/a	-999	11	[3, 6, 6]	15.0	catFR1	0	R1413D
1310.957	0.0	1312796	DISTRACT_END	n/a	n/a	n/a	n/a	-999	11	[0, 0, 0]	n/a	catFR1	0	R1413D
1310.949	2.276	1312804	STOP	n/a	n/a	n/a	n/a	-999	11	[-999, -999, -999]	n/a	catFR1	0	R1413D
1313.225	0.707	1315085	REC_START	n/a	n/a	n/a	n/a	-999	11	[0, 0, 0]	n/a	catFR1	0	R1413D
1313.932	0.663	1315786	REC_WORD	0.707	n/a	LEMON	Fruit	4	11	[0, 0, 0]	n/a	catFR1	0	R1413D
1314.595	1.048	1316449	REC_WORD	1.37	n/a	LIME	Fruit	3	11	[0, 0, 0]	n/a	catFR1	0	R1413D
1315.643	3.071	1317497	REC_WORD	2.418	n/a	PLUM	Fruit	10	11	[0, 0, 0]	n/a	catFR1	0	R1413D
1318.714	9.237	1320568	REC_WORD	5.489	n/a	CREEK	Landscapes	11	11	[0, 0, 0]	n/a	catFR1	0	R1413D
1327.951	5.648	1329805	REC_WORD	14.726	n/a	STREAM	Landscapes	-999	11	[0, 0, 0]	n/a	catFR1	0	R1413D
1333.599	0.61	1335452	REC_WORD	20.374	n/a	PHONE	Electronics	2	11	[0, 0, 0]	n/a	catFR1	0	R1413D
1334.209	5.074	1336062	REC_WORD	20.984	n/a	SPEAKER	Electronics	1	11	[0, 0, 0]	n/a	catFR1	0	R1413D
1339.283	3.952	1341136	REC_WORD	26.058	n/a	MICROWAVE	Electronics	8	11	[0, 0, 0]	n/a	catFR1	0	R1413D
1343.235	1.679	1345100	REC_END	n/a	n/a	n/a	n/a	-999	11	[0, 0, 0]	n/a	catFR1	0	R1413D
1344.914	10.429	1346791	COUNTDOWN_START	n/a	n/a	n/a	n/a	-999	12	[0, 0, 0]	n/a	catFR1	0	R1413D
1355.343	1.139	1357194	COUNTDOWN_END	n/a	n/a	n/a	n/a	-999	12	[0, 0, 0]	n/a	catFR1	0	R1413D
1356.482	1.15	1358326	ENCODING_START	n/a	n/a	n/a	n/a	-999	12	[0, 0, 0]	n/a	catFR1	0	R1413D
1357.632	1.635	1359484	WORD	n/a	wordpools/wordpool_categorized_EN.txt	LILY	Flowers	1	12	[0, 0, 0]	n/a	catFR1	0	R1413D
1359.267	0.94	1361111	WORD_OFF	n/a	n/a	LILY	Flowers	1	12	[0, 0, 0]	n/a	catFR1	0	R1413D
1360.207	1.627	1362053	WORD	n/a	wordpools/wordpool_categorized_EN.txt	LILAC	Flowers	2	12	[0, 0, 0]	n/a	catFR1	0	R1413D
1361.834	1.12	1363668	WORD_OFF	n/a	n/a	LILAC	Flowers	2	12	[0, 0, 0]	n/a	catFR1	0	R1413D
1362.954	1.63	1364812	WORD	n/a	wordpools/wordpool_categorized_EN.txt	SPATULA	KitchenTools	3	12	[0, 0, 0]	n/a	catFR1	0	R1413D
1364.584	0.799	1366428	WORD_OFF	n/a	n/a	SPATULA	KitchenTools	3	12	[0, 0, 0]	n/a	catFR1	0	R1413D
1365.383	1.635	1367241	WORD	n/a	wordpools/wordpool_categorized_EN.txt	SPOON	KitchenTools	4	12	[0, 0, 0]	n/a	catFR1	0	R1413D
1367.018	1.129	1368857	WORD_OFF	n/a	n/a	SPOON	KitchenTools	4	12	[0, 0, 0]	n/a	catFR1	0	R1413D
1368.147	1.621	1369989	WORD	n/a	wordpools/wordpool_categorized_EN.txt	LETTUCE	Vegetables	5	12	[0, 0, 0]	n/a	catFR1	0	R1413D
1369.768	0.945	1371604	WORD_OFF	n/a	n/a	LETTUCE	Vegetables	5	12	[0, 0, 0]	n/a	catFR1	0	R1413D
1370.713	1.622	1372558	WORD	n/a	wordpools/wordpool_categorized_EN.txt	CUCUMBER	Vegetables	6	12	[0, 0, 0]	n/a	catFR1	0	R1413D
1372.335	1.106	1374173	WORD_OFF	n/a	n/a	CUCUMBER	Vegetables	6	12	[0, 0, 0]	n/a	catFR1	0	R1413D
1373.441	1.612	1375292	WORD	n/a	wordpools/wordpool_categorized_EN.txt	LADLE	KitchenTools	7	12	[0, 0, 0]	n/a	catFR1	0	R1413D
1375.053	0.988	1376894	WORD_OFF	n/a	n/a	LADLE	KitchenTools	7	12	[0, 0, 0]	n/a	catFR1	0	R1413D
1376.041	1.629	1377886	WORD	n/a	wordpools/wordpool_categorized_EN.txt	FORK	KitchenTools	8	12	[0, 0, 0]	n/a	catFR1	0	R1413D
1377.67	1.088	1379514	WORD_OFF	n/a	n/a	FORK	KitchenTools	8	12	[0, 0, 0]	n/a	catFR1	0	R1413D
1378.758	1.628	1380608	WORD	n/a	wordpools/wordpool_categorized_EN.txt	PETUNIA	Flowers	9	12	[0, 0, 0]	n/a	catFR1	0	R1413D
1380.386	0.83	1382223	WORD_OFF	n/a	n/a	PETUNIA	Flowers	9	12	[0, 0, 0]	n/a	catFR1	0	R1413D
1381.216	1.622	1383063	WORD	n/a	wordpools/wordpool_categorized_EN.txt	ROSE	Flowers	10	12	[0, 0, 0]	n/a	catFR1	0	R1413D
1382.838	1.05	1384678	WORD_OFF	n/a	n/a	ROSE	Flowers	10	12	[0, 0, 0]	n/a	catFR1	0	R1413D
1383.888	1.633	1385746	WORD	n/a	wordpools/wordpool_categorized_EN.txt	ONION	Vegetables	11	12	[0, 0, 0]	n/a	catFR1	0	R1413D
1385.521	1.042	1387361	WORD_OFF	n/a	n/a	ONION	Vegetables	11	12	[0, 0, 0]	n/a	catFR1	0	R1413D
1386.563	1.626	1388404	WORD	n/a	wordpools/wordpool_categorized_EN.txt	CARROT	Vegetables	12	12	[0, 0, 0]	n/a	catFR1	0	R1413D
1388.189	0.0	1390040	START	n/a	n/a	n/a	n/a	-999	12	[-999, -999, -999]	n/a	catFR1	0	R1413D
1388.188	0.001	1390045	WORD_OFF	n/a	n/a	CARROT	Vegetables	12	12	[0, 0, 0]	n/a	catFR1	0	R1413D
1388.189	0.0	1390045	ENCODING_END	n/a	n/a	n/a	n/a	-999	12	[0, 0, 0]	n/a	catFR1	0	R1413D
1388.189	0.016	1390045	DISTRACT_START	n/a	n/a	n/a	n/a	-999	12	[0, 0, 0]	n/a	catFR1	0	R1413D
1388.205	3.2	1390056	PROB	3.176	n/a	n/a	n/a	-999	12	[9, 4, 7]	20.0	catFR1	0	R1413D
1391.405	2.451	1393255	PROB	2.417	n/a	n/a	n/a	-999	12	[8, 3, 1]	12.0	catFR1	0	R1413D
1393.856	3.801	1395706	PROB	3.772	n/a	n/a	n/a	-999	12	[4, 5, 4]	13.0	catFR1	0	R1413D
1397.657	1.95	1399507	PROB	1.922	n/a	n/a	n/a	-999	12	[3, 9, 1]	13.0	catFR1	0	R1413D
1399.607	2.384	1401457	PROB	2.349	n/a	n/a	n/a	-999	12	[3, 9, 2]	14.0	catFR1	0	R1413D
1401.991	3.301	1403841	PROB	3.269	n/a	n/a	n/a	-999	12	[7, 7, 9]	23.0	catFR1	0	R1413D
1405.292	3.534	1407142	PROB	3.52	n/a	n/a	n/a	-999	12	[1, 5, 9]	15.0	catFR1	0	R1413D
1408.826	0.0	1410660	DISTRACT_END	n/a	n/a	n/a	n/a	-999	12	[0, 0, 0]	n/a	catFR1	0	R1413D
1408.812	2.364	1410662	STOP	n/a	n/a	n/a	n/a	-999	12	[-999, -999, -999]	n/a	catFR1	0	R1413D
1411.176	0.537	1413026	REC_START	n/a	n/a	n/a	n/a	-999	12	[0, 0, 0]	n/a	catFR1	0	R1413D
1411.713	0.949	1413562	REC_WORD	0.537	n/a	SPOON	KitchenTools	4	12	[0, 0, 0]	n/a	catFR1	0	R1413D
1412.662	2.273	1414511	REC_WORD	1.486	n/a	FORK	KitchenTools	8	12	[0, 0, 0]	n/a	catFR1	0	R1413D
1414.935	1.475	1416784	REC_WORD	3.759	n/a	LILY	Flowers	1	12	[0, 0, 0]	n/a	catFR1	0	R1413D
1416.41	19.977	1418259	REC_WORD	5.234	n/a	ROSE	Flowers	10	12	[0, 0, 0]	n/a	catFR1	0	R1413D
1436.387	1.0	1438235	REC_WORD	25.211	n/a	CUCUMBER	Vegetables	6	12	[0, 0, 0]	n/a	catFR1	0	R1413D
1437.387	3.8	1439235	REC_WORD	26.211	n/a	CARROT	Vegetables	12	12	[0, 0, 0]	n/a	catFR1	0	R1413D
1441.187	1.746	1443053	REC_END	n/a	n/a	n/a	n/a	-999	12	[0, 0, 0]	n/a	catFR1	0	R1413D
1442.933	10.428	1444808	COUNTDOWN_START	n/a	n/a	n/a	n/a	-999	13	[0, 0, 0]	n/a	catFR1	0	R1413D
1453.361	1.257	1455199	COUNTDOWN_END	n/a	n/a	n/a	n/a	-999	13	[0, 0, 0]	n/a	catFR1	0	R1413D
1454.618	1.034	1456458	ENCODING_START	n/a	n/a	n/a	n/a	-999	13	[0, 0, 0]	n/a	catFR1	0	R1413D
1455.652	1.633	1457501	WORD	n/a	wordpools/wordpool_categorized_EN.txt	ORCHID	Flowers	1	13	[0, 0, 0]	n/a	catFR1	0	R1413D
1457.285	1.104	1459116	WORD_OFF	n/a	n/a	ORCHID	Flowers	1	13	[0, 0, 0]	n/a	catFR1	0	R1413D
1458.389	1.613	1460235	WORD	n/a	wordpools/wordpool_categorized_EN.txt	DAFFODIL	Flowers	2	13	[0, 0, 0]	n/a	catFR1	0	R1413D
1460.002	1.145	1461837	WORD_OFF	n/a	n/a	DAFFODIL	Flowers	2	13	[0, 0, 0]	n/a	catFR1	0	R1413D
1461.147	1.622	1462982	WORD	n/a	wordpools/wordpool_categorized_EN.txt	HAMMER	Tools	3	13	[0, 0, 0]	n/a	catFR1	0	R1413D
1462.769	0.78	1464610	WORD_OFF	n/a	n/a	HAMMER	Tools	3	13	[0, 0, 0]	n/a	catFR1	0	R1413D
1463.549	1.637	1465398	WORD	n/a	wordpools/wordpool_categorized_EN.txt	RATCHET	Tools	4	13	[0, 0, 0]	n/a	catFR1	0	R1413D
1465.186	0.806	1467026	WORD_OFF	n/a	n/a	RATCHET	Tools	4	13	[0, 0, 0]	n/a	catFR1	0	R1413D
1465.992	1.628	1467840	WORD	n/a	wordpools/wordpool_categorized_EN.txt	SNOW	Weather	5	13	[0, 0, 0]	n/a	catFR1	0	R1413D
1467.62	0.899	1469456	WORD_OFF	n/a	n/a	SNOW	Weather	5	13	[0, 0, 0]	n/a	catFR1	0	R1413D
1468.519	1.635	1470371	WORD	n/a	wordpools/wordpool_categorized_EN.txt	TORNADO	Weather	6	13	[0, 0, 0]	n/a	catFR1	0	R1413D
1470.154	0.893	1471986	WORD_OFF	n/a	n/a	TORNADO	Weather	6	13	[0, 0, 0]	n/a	catFR1	0	R1413D
1471.047	1.624	1472889	WORD	n/a	wordpools/wordpool_categorized_EN.txt	VIOLET	Flowers	7	13	[0, 0, 0]	n/a	catFR1	0	R1413D
1472.671	1.041	1474505	WORD_OFF	n/a	n/a	VIOLET	Flowers	7	13	[0, 0, 0]	n/a	catFR1	0	R1413D
1473.712	1.625	1475560	WORD	n/a	wordpools/wordpool_categorized_EN.txt	CARNATION	Flowers	8	13	[0, 0, 0]	n/a	catFR1	0	R1413D
1475.337	1.032	1477175	WORD_OFF	n/a	n/a	CARNATION	Flowers	8	13	[0, 0, 0]	n/a	catFR1	0	R1413D
1476.369	1.619	1478218	WORD	n/a	wordpools/wordpool_categorized_EN.txt	THUNDER	Weather	9	13	[0, 0, 0]	n/a	catFR1	0	R1413D
1477.988	0.755	1479821	WORD_OFF	n/a	n/a	THUNDER	Weather	9	13	[0, 0, 0]	n/a	catFR1	0	R1413D
1478.743	1.628	1480584	WORD	n/a	wordpools/wordpool_categorized_EN.txt	RAIN	Weather	10	13	[0, 0, 0]	n/a	catFR1	0	R1413D
1480.371	0.863	1482212	WORD_OFF	n/a	n/a	RAIN	Weather	10	13	[0, 0, 0]	n/a	catFR1	0	R1413D
1481.234	1.622	1483076	WORD	n/a	wordpools/wordpool_categorized_EN.txt	SANDER	Tools	11	13	[0, 0, 0]	n/a	catFR1	0	R1413D
1482.856	1.039	1484692	WORD_OFF	n/a	n/a	SANDER	Tools	11	13	[0, 0, 0]	n/a	catFR1	0	R1413D
1483.895	1.629	1485734	WORD	n/a	wordpools/wordpool_categorized_EN.txt	DRILL	Tools	12	13	[0, 0, 0]	n/a	catFR1	0	R1413D
1485.524	0.0	1487370	START	n/a	n/a	n/a	n/a	-999	13	[-999, -999, -999]	n/a	catFR1	0	R1413D
1485.523	0.001	1487375	WORD_OFF	n/a	n/a	DRILL	Tools	12	13	[0, 0, 0]	n/a	catFR1	0	R1413D
1485.524	0.0	1487375	ENCODING_END	n/a	n/a	n/a	n/a	-999	13	[0, 0, 0]	n/a	catFR1	0	R1413D
1485.524	0.016	1487375	DISTRACT_START	n/a	n/a	n/a	n/a	-999	13	[0, 0, 0]	n/a	catFR1	0	R1413D
1485.54	3.167	1487386	PROB	3.131	n/a	n/a	n/a	-999	13	[5, 2, 1]	8.0	catFR1	0	R1413D
1488.707	4.683	1490553	PROB	4.655	n/a	n/a	n/a	-999	13	[8, 7, 9]	24.0	catFR1	0	R1413D
1493.39	3.319	1495235	PROB	3.293	n/a	n/a	n/a	-999	13	[4, 4, 3]	11.0	catFR1	0	R1413D
1496.709	2.417	1498554	PROB	2.39	n/a	n/a	n/a	-999	13	[8, 1, 3]	12.0	catFR1	0	R1413D
1499.126	2.634	1500971	PROB	2.605	n/a	n/a	n/a	-999	13	[8, 1, 4]	13.0	catFR1	0	R1413D
1501.76	3.3	1503605	PROB	3.275	n/a	n/a	n/a	-999	13	[2, 9, 9]	20.0	catFR1	0	R1413D
1505.06	2.413	1506905	PROB	2.413	n/a	n/a	n/a	-999	13	[5, 3, 7]	15.0	catFR1	0	R1413D
1507.473	0.02	1509318	STOP	n/a	n/a	n/a	n/a	-999	13	[-999, -999, -999]	n/a	catFR1	0	R1413D
1507.493	2.352	1509326	DISTRACT_END	n/a	n/a	n/a	n/a	-999	13	[0, 0, 0]	n/a	catFR1	0	R1413D
1509.845	0.646	1511692	REC_START	n/a	n/a	n/a	n/a	-999	13	[0, 0, 0]	n/a	catFR1	0	R1413D
1510.491	1.131	1512336	REC_WORD	0.646	n/a	HAMMER	Tools	3	13	[0, 0, 0]	n/a	catFR1	0	R1413D
1511.622	2.819	1513466	REC_WORD	1.777	n/a	RATCHET	Tools	4	13	[0, 0, 0]	n/a	catFR1	0	R1413D
1514.441	2.715	1516285	REC_WORD	4.596	n/a	DRILL	Tools	12	13	[0, 0, 0]	n/a	catFR1	0	R1413D
1517.156	7.67	1519000	REC_WORD	7.311	n/a	ORCHID	Flowers	1	13	[0, 0, 0]	n/a	catFR1	0	R1413D
1524.826	1.898	1526670	REC_WORD	14.981	n/a	TORNADO	Weather	6	13	[0, 0, 0]	n/a	catFR1	0	R1413D
1526.724	13.131	1528568	REC_WORD	16.879	n/a	SNOW	Weather	5	13	[0, 0, 0]	n/a	catFR1	0	R1413D
1539.855	3.013	1541706	REC_END	n/a	n/a	n/a	n/a	-999	13	[0, 0, 0]	n/a	catFR1	0	R1413D
1542.868	10.428	1544733	COUNTDOWN_START	n/a	n/a	n/a	n/a	-999	14	[0, 0, 0]	n/a	catFR1	0	R1413D
1553.296	1.039	1555136	COUNTDOWN_END	n/a	n/a	n/a	n/a	-999	14	[0, 0, 0]	n/a	catFR1	0	R1413D
1554.335	0.756	1556166	ENCODING_START	n/a	n/a	n/a	n/a	-999	14	[0, 0, 0]	n/a	catFR1	0	R1413D
1555.091	1.629	1556930	WORD	n/a	wordpools/wordpool_categorized_EN.txt	APPLE	Fruit	1	14	[0, 0, 0]	n/a	catFR1	0	R1413D
1556.72	0.767	1558545	WORD_OFF	n/a	n/a	APPLE	Fruit	1	14	[0, 0, 0]	n/a	catFR1	0	R1413D
1557.487	1.616	1559333	WORD	n/a	wordpools/wordpool_categorized_EN.txt	ORANGE	Fruit	2	14	[0, 0, 0]	n/a	catFR1	0	R1413D
1559.103	0.982	1560936	WORD_OFF	n/a	n/a	ORANGE	Fruit	2	14	[0, 0, 0]	n/a	catFR1	0	R1413D
1560.085	1.636	1561928	WORD	n/a	wordpools/wordpool_categorized_EN.txt	DESK	Furniture	3	14	[0, 0, 0]	n/a	catFR1	0	R1413D
1561.721	1.043	1563556	WORD_OFF	n/a	n/a	DESK	Furniture	3	14	[0, 0, 0]	n/a	catFR1	0	R1413D
1562.764	1.623	1564598	WORD	n/a	wordpools/wordpool_categorized_EN.txt	CHAIR	Furniture	4	14	[0, 0, 0]	n/a	catFR1	0	R1413D
1564.387	0.931	1566214	WORD_OFF	n/a	n/a	CHAIR	Furniture	4	14	[0, 0, 0]	n/a	catFR1	0	R1413D
1565.318	1.62	1567155	WORD	n/a	wordpools/wordpool_categorized_EN.txt	KNIFE	KitchenTools	5	14	[0, 0, 0]	n/a	catFR1	0	R1413D
1566.938	0.976	1568770	WORD_OFF	n/a	n/a	KNIFE	KitchenTools	5	14	[0, 0, 0]	n/a	catFR1	0	R1413D
1567.914	1.625	1569749	WORD	n/a	wordpools/wordpool_categorized_EN.txt	TONGS	KitchenTools	6	14	[0, 0, 0]	n/a	catFR1	0	R1413D
1569.539	1.098	1571364	WORD_OFF	n/a	n/a	TONGS	KitchenTools	6	14	[0, 0, 0]	n/a	catFR1	0	R1413D
1570.637	1.636	1572484	WORD	n/a	wordpools/wordpool_categorized_EN.txt	BOOKCASE	Furniture	7	14	[0, 0, 0]	n/a	catFR1	0	R1413D
1572.273	0.979	1574099	WORD_OFF	n/a	n/a	BOOKCASE	Furniture	7	14	[0, 0, 0]	n/a	catFR1	0	R1413D
1573.252	1.621	1575091	WORD	n/a	wordpools/wordpool_categorized_EN.txt	TABLE	Furniture	8	14	[0, 0, 0]	n/a	catFR1	0	R1413D
1574.873	0.957	1576706	WORD_OFF	n/a	n/a	TABLE	Furniture	8	14	[0, 0, 0]	n/a	catFR1	0	R1413D
1575.83	1.626	1577672	WORD	n/a	wordpools/wordpool_categorized_EN.txt	COLANDER	KitchenTools	9	14	[0, 0, 0]	n/a	catFR1	0	R1413D
1577.456	0.856	1579288	WORD_OFF	n/a	n/a	COLANDER	KitchenTools	9	14	[0, 0, 0]	n/a	catFR1	0	R1413D
1578.312	1.629	1580152	WORD	n/a	wordpools/wordpool_categorized_EN.txt	CORKSCREW	KitchenTools	10	14	[0, 0, 0]	n/a	catFR1	0	R1413D
1579.941	0.977	1581768	WORD_OFF	n/a	n/a	CORKSCREW	KitchenTools	10	14	[0, 0, 0]	n/a	catFR1	0	R1413D
1580.918	1.623	1582747	WORD	n/a	wordpools/wordpool_categorized_EN.txt	GRAPE	Fruit	11	14	[0, 0, 0]	n/a	catFR1	0	R1413D
1582.541	0.917	1584375	WORD_OFF	n/a	n/a	GRAPE	Fruit	11	14	[0, 0, 0]	n/a	catFR1	0	R1413D
1583.458	1.634	1585303	WORD	n/a	wordpools/wordpool_categorized_EN.txt	STRAWBERRY	Fruit	12	14	[0, 0, 0]	n/a	catFR1	0	R1413D
1585.092	0.0	1586931	WORD_OFF	n/a	n/a	STRAWBERRY	Fruit	12	14	[0, 0, 0]	n/a	catFR1	0	R1413D
1585.092	0.0	1586933	START	n/a	n/a	n/a	n/a	-999	14	[-999, -999, -999]	n/a	catFR1	0	R1413D
1585.092	0.0	1586944	ENCODING_END	n/a	n/a	n/a	n/a	-999	14	[0, 0, 0]	n/a	catFR1	0	R1413D
1585.092	0.016	1586944	DISTRACT_START	n/a	n/a	n/a	n/a	-999	14	[0, 0, 0]	n/a	catFR1	0	R1413D
1585.108	2.834	1586949	PROB	2.807	n/a	n/a	n/a	-999	14	[1, 2, 6]	9.0	catFR1	0	R1413D
1587.942	2.367	1589783	PROB	2.341	n/a	n/a	n/a	-999	14	[1, 3, 5]	9.0	catFR1	0	R1413D
1590.309	3.017	1592150	PROB	2.982	n/a	n/a	n/a	-999	14	[3, 9, 7]	19.0	catFR1	0	R1413D
1593.326	2.834	1595166	PROB	2.805	n/a	n/a	n/a	-999	14	[6, 5, 6]	17.0	catFR1	0	R1413D
1596.16	3.217	1598000	PROB	3.186	n/a	n/a	n/a	-999	14	[7, 3, 6]	16.0	catFR1	0	R1413D
1599.377	2.1	1601217	PROB	2.064	n/a	n/a	n/a	-999	14	[3, 3, 6]	12.0	catFR1	0	R1413D
1601.477	5.906	1603317	PROB	5.906	n/a	n/a	n/a	-999	14	[8, 6, 7]	21.0	catFR1	0	R1413D
1607.383	0.012	1609223	STOP	n/a	n/a	n/a	n/a	-999	14	[-999, -999, -999]	n/a	catFR1	0	R1413D
1607.395	2.352	1609226	DISTRACT_END	n/a	n/a	n/a	n/a	-999	14	[0, 0, 0]	n/a	catFR1	0	R1413D
1609.747	5.297	1611591	REC_START	n/a	n/a	n/a	n/a	-999	14	[0, 0, 0]	n/a	catFR1	0	R1413D
1615.044	0.745	1616883	REC_WORD	5.297	n/a	ORANGE	Fruit	2	14	[0, 0, 0]	n/a	catFR1	0	R1413D
1615.789	0.932	1617628	REC_WORD	6.042	n/a	APPLE	Fruit	1	14	[0, 0, 0]	n/a	catFR1	0	R1413D
1616.721	4.173	1618560	REC_WORD	6.974	n/a	GRAPE	Fruit	11	14	[0, 0, 0]	n/a	catFR1	0	R1413D
1620.894	18.863	1622733	REC_WORD	11.147	n/a	CALENDAR	n/a	-999	14	[0, 0, 0]	n/a	catFR1	0	R1413D
1639.757	1.829	1641606	REC_END	n/a	n/a	n/a	n/a	-999	14	[0, 0, 0]	n/a	catFR1	0	R1413D
1641.586	10.428	1643450	COUNTDOWN_START	n/a	n/a	n/a	n/a	-999	15	[0, 0, 0]	n/a	catFR1	0	R1413D
1652.014	1.057	1653840	COUNTDOWN_END	n/a	n/a	n/a	n/a	-999	15	[0, 0, 0]	n/a	catFR1	0	R1413D
1653.071	0.932	1654896	ENCODING_START	n/a	n/a	n/a	n/a	-999	15	[0, 0, 0]	n/a	catFR1	0	R1413D
1654.003	1.635	1655850	WORD	n/a	wordpools/wordpool_categorized_EN.txt	PAPER	OfficeSupplies	1	15	[0, 0, 0]	n/a	catFR1	0	R1413D
1655.638	0.848	1657465	WORD_OFF	n/a	n/a	PAPER	OfficeSupplies	1	15	[0, 0, 0]	n/a	catFR1	0	R1413D
1656.486	1.636	1658330	WORD	n/a	wordpools/wordpool_categorized_EN.txt	MARKER	OfficeSupplies	2	15	[0, 0, 0]	n/a	catFR1	0	R1413D
1658.122	0.901	1659945	WORD_OFF	n/a	n/a	MARKER	OfficeSupplies	2	15	[0, 0, 0]	n/a	catFR1	0	R1413D
1659.023	1.616	1660860	WORD	n/a	wordpools/wordpool_categorized_EN.txt	DOLLHOUSE	Toys	3	15	[0, 0, 0]	n/a	catFR1	0	R1413D
1660.639	1.11	1662463	WORD_OFF	n/a	n/a	DOLLHOUSE	Toys	3	15	[0, 0, 0]	n/a	catFR1	0	R1413D
1661.749	1.623	1663582	WORD	n/a	wordpools/wordpool_categorized_EN.txt	FRISBEE	Toys	4	15	[0, 0, 0]	n/a	catFR1	0	R1413D
1663.372	0.855	1665197	WORD_OFF	n/a	n/a	FRISBEE	Toys	4	15	[0, 0, 0]	n/a	catFR1	0	R1413D
1664.227	1.63	1666062	WORD	n/a	wordpools/wordpool_categorized_EN.txt	PEAS	Vegetables	5	15	[0, 0, 0]	n/a	catFR1	0	R1413D
1665.857	0.755	1667677	WORD_OFF	n/a	n/a	PEAS	Vegetables	5	15	[0, 0, 0]	n/a	catFR1	0	R1413D
1666.612	1.628	1668453	WORD	n/a	wordpools/wordpool_categorized_EN.txt	SPINACH	Vegetables	6	15	[0, 0, 0]	n/a	catFR1	0	R1413D
1668.24	1.114	1670068	WORD_OFF	n/a	n/a	SPINACH	Vegetables	6	15	[0, 0, 0]	n/a	catFR1	0	R1413D
1669.354	1.637	1671200	WORD	n/a	wordpools/wordpool_categorized_EN.txt	PEN	OfficeSupplies	7	15	[0, 0, 0]	n/a	catFR1	0	R1413D
1670.991	1.046	1672815	WORD_OFF	n/a	n/a	PEN	OfficeSupplies	7	15	[0, 0, 0]	n/a	catFR1	0	R1413D
1672.037	1.621	1673871	WORD	n/a	wordpools/wordpool_categorized_EN.txt	BINDER	OfficeSupplies	8	15	[0, 0, 0]	n/a	catFR1	0	R1413D
1673.658	0.847	1675486	WORD_OFF	n/a	n/a	BINDER	OfficeSupplies	8	15	[0, 0, 0]	n/a	catFR1	0	R1413D
1674.505	1.637	1676351	WORD	n/a	wordpools/wordpool_categorized_EN.txt	BROCCOLI	Vegetables	9	15	[0, 0, 0]	n/a	catFR1	0	R1413D
1676.142	1.125	1677966	WORD_OFF	n/a	n/a	BROCCOLI	Vegetables	9	15	[0, 0, 0]	n/a	catFR1	0	R1413D
1677.267	1.625	1679098	WORD	n/a	wordpools/wordpool_categorized_EN.txt	CABBAGE	Vegetables	10	15	[0, 0, 0]	n/a	catFR1	0	R1413D
1678.892	0.818	1680713	WORD_OFF	n/a	n/a	CABBAGE	Vegetables	10	15	[0, 0, 0]	n/a	catFR1	0	R1413D
1679.71	1.632	1681553	WORD	n/a	wordpools/wordpool_categorized_EN.txt	BASEBALL	Toys	11	15	[0, 0, 0]	n/a	catFR1	0	R1413D
1681.342	1.044	1683168	WORD_OFF	n/a	n/a	BASEBALL	Toys	11	15	[0, 0, 0]	n/a	catFR1	0	R1413D
1682.386	1.625	1684211	WORD	n/a	wordpools/wordpool_categorized_EN.txt	FOOTBALL	Toys	12	15	[0, 0, 0]	n/a	catFR1	0	R1413D
1684.011	0.0	1685847	START	n/a	n/a	n/a	n/a	-999	15	[-999, -999, -999]	n/a	catFR1	0	R1413D
1684.01	0.0	1685851	WORD_OFF	n/a	n/a	FOOTBALL	Toys	12	15	[0, 0, 0]	n/a	catFR1	0	R1413D
1684.01	0.001	1685851	ENCODING_END	n/a	n/a	n/a	n/a	-999	15	[0, 0, 0]	n/a	catFR1	0	R1413D
1684.011	0.016	1685851	DISTRACT_START	n/a	n/a	n/a	n/a	-999	15	[0, 0, 0]	n/a	catFR1	0	R1413D
1684.027	3.3	1685863	PROB	3.274	n/a	n/a	n/a	-999	15	[1, 3, 4]	8.0	catFR1	0	R1413D
1687.327	4.133	1689163	PROB	4.101	n/a	n/a	n/a	-999	15	[2, 6, 8]	16.0	catFR1	0	R1413D
1691.46	2.518	1693295	PROB	2.497	n/a	n/a	n/a	-999	15	[1, 5, 2]	8.0	catFR1	0	R1413D
1693.978	4.318	1695813	PROB	4.283	n/a	n/a	n/a	-999	15	[8, 8, 2]	20.0	catFR1	0	R1413D
1698.296	5.798	1700131	PROB	5.798	n/a	n/a	n/a	-999	15	[6, 7, 9]	22.0	catFR1	0	R1413D
1704.094	0.02	1705929	STOP	n/a	n/a	n/a	n/a	-999	15	[-999, -999, -999]	n/a	catFR1	0	R1413D
1704.114	2.233	1705933	DISTRACT_END	n/a	n/a	n/a	n/a	-999	15	[0, 0, 0]	n/a	catFR1	0	R1413D
1706.347	0.874	1708184	REC_START	n/a	n/a	n/a	n/a	-999	15	[0, 0, 0]	n/a	catFR1	0	R1413D
1707.221	1.0	1709056	REC_WORD	0.874	n/a	CABBAGE	Vegetables	10	15	[0, 0, 0]	n/a	catFR1	0	R1413D
1708.221	5.114	1710056	REC_WORD_VV	1.874	n/a	<>	n/a	-999	15	[0, 0, 0]	n/a	catFR1	0	R1413D
1713.335	1.855	1715169	REC_WORD	6.988	n/a	SPINACH	Vegetables	6	15	[0, 0, 0]	n/a	catFR1	0	R1413D
1715.19	21.166	1717024	REC_WORD	8.843	n/a	BLENDER	Appliances	-999	15	[0, 0, 0]	n/a	catFR1	0	R1413D
1736.356	1.997	1738211	REC_END	n/a	n/a	n/a	n/a	-999	15	[0, 0, 0]	n/a	catFR1	0	R1413D
1738.353	10.428	1740208	COUNTDOWN_START	n/a	n/a	n/a	n/a	-999	16	[0, 0, 0]	n/a	catFR1	0	R1413D
1748.781	1.225	1750611	COUNTDOWN_END	n/a	n/a	n/a	n/a	-999	16	[0, 0, 0]	n/a	catFR1	0	R1413D
1750.006	1.092	1751832	ENCODING_START	n/a	n/a	n/a	n/a	-999	16	[0, 0, 0]	n/a	catFR1	0	R1413D
1751.098	1.625	1752926	WORD	n/a	wordpools/wordpool_categorized_EN.txt	HEADPHONES	Electronics	1	16	[0, 0, 0]	n/a	catFR1	0	R1413D
1752.723	0.807	1754541	WORD_OFF	n/a	n/a	HEADPHONES	Electronics	1	16	[0, 0, 0]	n/a	catFR1	0	R1413D
1753.53	1.61	1755355	WORD	n/a	wordpools/wordpool_categorized_EN.txt	COMPUTER	Electronics	2	16	[0, 0, 0]	n/a	catFR1	0	R1413D
1755.14	1.127	1756957	WORD_OFF	n/a	n/a	COMPUTER	Electronics	2	16	[0, 0, 0]	n/a	catFR1	0	R1413D
1756.267	1.623	1758089	WORD	n/a	wordpools/wordpool_categorized_EN.txt	LEVEL	Tools	3	16	[0, 0, 0]	n/a	catFR1	0	R1413D
1757.89	1.026	1759704	WORD_OFF	n/a	n/a	LEVEL	Tools	3	16	[0, 0, 0]	n/a	catFR1	0	R1413D
1758.916	1.625	1760747	WORD	n/a	wordpools/wordpool_categorized_EN.txt	SHOVEL	Tools	4	16	[0, 0, 0]	n/a	catFR1	0	R1413D
1760.541	1.04	1762362	WORD_OFF	n/a	n/a	SHOVEL	Tools	4	16	[0, 0, 0]	n/a	catFR1	0	R1413D
1761.581	1.627	1763405	WORD	n/a	wordpools/wordpool_categorized_EN.txt	POTATO	Vegetables	5	16	[0, 0, 0]	n/a	catFR1	0	R1413D
1763.208	0.898	1765033	WORD_OFF	n/a	n/a	POTATO	Vegetables	5	16	[0, 0, 0]	n/a	catFR1	0	R1413D
1764.106	1.636	1765949	WORD	n/a	wordpools/wordpool_categorized_EN.txt	CORN	Vegetables	6	16	[0, 0, 0]	n/a	catFR1	0	R1413D
1765.742	1.072	1767564	WORD_OFF	n/a	n/a	CORN	Vegetables	6	16	[0, 0, 0]	n/a	catFR1	0	R1413D
1766.814	1.627	1768645	WORD	n/a	wordpools/wordpool_categorized_EN.txt	CALCULATOR	Electronics	7	16	[0, 0, 0]	n/a	catFR1	0	R1413D
1768.441	0.866	1770260	WORD_OFF	n/a	n/a	CALCULATOR	Electronics	7	16	[0, 0, 0]	n/a	catFR1	0	R1413D
1769.307	1.636	1771150	WORD	n/a	wordpools/wordpool_categorized_EN.txt	PRINTER	Electronics	8	16	[0, 0, 0]	n/a	catFR1	0	R1413D
1770.943	0.945	1772766	WORD_OFF	n/a	n/a	PRINTER	Electronics	8	16	[0, 0, 0]	n/a	catFR1	0	R1413D
1771.888	1.622	1773707	WORD	n/a	wordpools/wordpool_categorized_EN.txt	CELERY	Vegetables	9	16	[0, 0, 0]	n/a	catFR1	0	R1413D
1773.51	0.761	1775335	WORD_OFF	n/a	n/a	CELERY	Vegetables	9	16	[0, 0, 0]	n/a	catFR1	0	R1413D
1774.271	1.623	1776098	WORD	n/a	wordpools/wordpool_categorized_EN.txt	CAULIFLOWER	Vegetables	10	16	[0, 0, 0]	n/a	catFR1	0	R1413D
1775.894	1.003	1777713	WORD_OFF	n/a	n/a	CAULIFLOWER	Vegetables	10	16	[0, 0, 0]	n/a	catFR1	0	R1413D
1776.897	1.63	1778730	WORD	n/a	wordpools/wordpool_categorized_EN.txt	AXE	Tools	11	16	[0, 0, 0]	n/a	catFR1	0	R1413D
1778.527	1.046	1780346	WORD_OFF	n/a	n/a	AXE	Tools	11	16	[0, 0, 0]	n/a	catFR1	0	R1413D
1779.573	1.622	1781401	WORD	n/a	wordpools/wordpool_categorized_EN.txt	SAW	Tools	12	16	[0, 0, 0]	n/a	catFR1	0	R1413D
1781.195	0.0	1783026	START	n/a	n/a	n/a	n/a	-999	16	[-999, -999, -999]	n/a	catFR1	0	R1413D
1781.195	0.0	1783029	WORD_OFF	n/a	n/a	SAW	Tools	12	16	[0, 0, 0]	n/a	catFR1	0	R1413D
1781.195	0.0	1783029	ENCODING_END	n/a	n/a	n/a	n/a	-999	16	[0, 0, 0]	n/a	catFR1	0	R1413D
1781.195	0.016	1783029	DISTRACT_START	n/a	n/a	n/a	n/a	-999	16	[0, 0, 0]	n/a	catFR1	0	R1413D
1781.211	3.051	1783042	PROB	3.019	n/a	n/a	n/a	-999	16	[1, 5, 2]	8.0	catFR1	0	R1413D
1784.262	3.884	1786093	PROB	3.848	n/a	n/a	n/a	-999	16	[9, 5, 4]	18.0	catFR1	0	R1413D
1788.146	5.567	1789977	PROB	5.545	n/a	n/a	n/a	-999	16	[7, 9, 8]	24.0	catFR1	0	R1413D
1793.713	2.75	1795543	PROB	2.722	n/a	n/a	n/a	-999	16	[7, 3, 4]	14.0	catFR1	0	R1413D
1796.463	3.884	1798293	PROB	3.852	n/a	n/a	n/a	-999	16	[7, 4, 8]	19.0	catFR1	0	R1413D
1800.347	2.776	1802177	PROB	2.776	n/a	n/a	n/a	-999	16	[5, 3, 1]	9.0	catFR1	0	R1413D
1803.123	0.009	1804953	STOP	n/a	n/a	n/a	n/a	-999	16	[-999, -999, -999]	n/a	catFR1	0	R1413D
1803.132	2.217	1804955	DISTRACT_END	n/a	n/a	n/a	n/a	-999	16	[0, 0, 0]	n/a	catFR1	0	R1413D
1805.349	0.562	1807180	REC_START	n/a	n/a	n/a	n/a	-999	16	[0, 0, 0]	n/a	catFR1	0	R1413D
1805.911	1.028	1807741	REC_WORD	0.562	n/a	CAULIFLOWER	Vegetables	10	16	[0, 0, 0]	n/a	catFR1	0	R1413D
1806.939	3.905	1808769	REC_WORD	1.59	n/a	AXE	Tools	11	16	[0, 0, 0]	n/a	catFR1	0	R1413D
1810.844	0.724	1812673	REC_WORD	5.495	n/a	MARKER	OfficeSupplies	-999	16	[0, 0, 0]	n/a	catFR1	0	R1413D
1811.568	5.052	1813397	REC_WORD	6.219	n/a	PAPER	OfficeSupplies	-999	16	[0, 0, 0]	n/a	catFR1	0	R1413D
1816.62	1.959	1818449	REC_WORD	11.271	n/a	CALCULATOR	Electronics	7	16	[0, 0, 0]	n/a	catFR1	0	R1413D
1818.579	0.625	1820408	REC_WORD	13.23	n/a	HEADPHONES	Electronics	1	16	[0, 0, 0]	n/a	catFR1	0	R1413D
1819.204	8.679	1821033	REC_WORD	13.855	n/a	COMPUTER	Electronics	2	16	[0, 0, 0]	n/a	catFR1	0	R1413D
1827.883	7.476	1829712	REC_WORD	22.534	n/a	SPINACH	Vegetables	-999	16	[0, 0, 0]	n/a	catFR1	0	R1413D
1835.359	2.062	1837207	REC_END	n/a	n/a	n/a	n/a	-999	16	[0, 0, 0]	n/a	catFR1	0	R1413D
1837.421	10.429	1839268	COUNTDOWN_START	n/a	n/a	n/a	n/a	-999	17	[0, 0, 0]	n/a	catFR1	0	R1413D
1847.85	1.258	1849671	COUNTDOWN_END	n/a	n/a	n/a	n/a	-999	17	[0, 0, 0]	n/a	catFR1	0	R1413D
1849.108	0.893	1850930	ENCODING_START	n/a	n/a	n/a	n/a	-999	17	[0, 0, 0]	n/a	catFR1	0	R1413D
1850.001	1.623	1851820	WORD	n/a	wordpools/wordpool_categorized_EN.txt	SQUID	OceanAnimals	1	17	[0, 0, 0]	n/a	catFR1	0	R1413D
1851.624	1.111	1853436	WORD_OFF	n/a	n/a	SQUID	OceanAnimals	1	17	[0, 0, 0]	n/a	catFR1	0	R1413D
1852.735	1.622	1854555	WORD	n/a	wordpools/wordpool_categorized_EN.txt	FISH	OceanAnimals	2	17	[0, 0, 0]	n/a	catFR1	0	R1413D
1854.357	0.813	1856170	WORD_OFF	n/a	n/a	FISH	OceanAnimals	2	17	[0, 0, 0]	n/a	catFR1	0	R1413D
1855.17	1.622	1856984	WORD	n/a	wordpools/wordpool_categorized_EN.txt	TRUCK	Vehicles	3	17	[0, 0, 0]	n/a	catFR1	0	R1413D
1856.792	0.875	1858612	WORD_OFF	n/a	n/a	TRUCK	Vehicles	3	17	[0, 0, 0]	n/a	catFR1	0	R1413D
1857.667	1.625	1859489	WORD	n/a	wordpools/wordpool_categorized_EN.txt	CAR	Vehicles	4	17	[0, 0, 0]	n/a	catFR1	0	R1413D
1859.292	1.106	1861104	WORD_OFF	n/a	n/a	CAR	Vehicles	4	17	[0, 0, 0]	n/a	catFR1	0	R1413D
1860.398	1.612	1862224	WORD	n/a	wordpools/wordpool_categorized_EN.txt	TIGER	Zoo	5	17	[0, 0, 0]	n/a	catFR1	0	R1413D
1862.01	0.982	1863826	WORD_OFF	n/a	n/a	TIGER	Zoo	5	17	[0, 0, 0]	n/a	catFR1	0	R1413D
1862.992	1.635	1864818	WORD	n/a	wordpools/wordpool_categorized_EN.txt	ZEBRA	Zoo	6	17	[0, 0, 0]	n/a	catFR1	0	R1413D
1864.627	0.755	1866446	WORD_OFF	n/a	n/a	ZEBRA	Zoo	6	17	[0, 0, 0]	n/a	catFR1	0	R1413D
1865.382	1.612	1867209	WORD	n/a	wordpools/wordpool_categorized_EN.txt	SHRIMP	OceanAnimals	7	17	[0, 0, 0]	n/a	catFR1	0	R1413D
1866.994	0.923	1868811	WORD_OFF	n/a	n/a	SHRIMP	OceanAnimals	7	17	[0, 0, 0]	n/a	catFR1	0	R1413D
1867.917	1.627	1869740	WORD	n/a	wordpools/wordpool_categorized_EN.txt	OYSTER	OceanAnimals	8	17	[0, 0, 0]	n/a	catFR1	0	R1413D
1869.544	0.919	1871355	WORD_OFF	n/a	n/a	OYSTER	OceanAnimals	8	17	[0, 0, 0]	n/a	catFR1	0	R1413D
1870.463	1.615	1872296	WORD	n/a	wordpools/wordpool_categorized_EN.txt	LION	Zoo	9	17	[0, 0, 0]	n/a	catFR1	0	R1413D
1872.078	0.868	1873886	WORD_OFF	n/a	n/a	LION	Zoo	9	17	[0, 0, 0]	n/a	catFR1	0	R1413D
1872.946	1.633	1874776	WORD	n/a	wordpools/wordpool_categorized_EN.txt	CHIMPANZEE	Zoo	10	17	[0, 0, 0]	n/a	catFR1	0	R1413D
1874.579	1.149	1876391	WORD_OFF	n/a	n/a	CHIMPANZEE	Zoo	10	17	[0, 0, 0]	n/a	catFR1	0	R1413D
1875.728	1.633	1877561	WORD	n/a	wordpools/wordpool_categorized_EN.txt	BOAT	Vehicles	11	17	[0, 0, 0]	n/a	catFR1	0	R1413D
1877.361	1.089	1879177	WORD_OFF	n/a	n/a	BOAT	Vehicles	11	17	[0, 0, 0]	n/a	catFR1	0	R1413D
1878.45	1.63	1880270	WORD	n/a	wordpools/wordpool_categorized_EN.txt	TRAIN	Vehicles	12	17	[0, 0, 0]	n/a	catFR1	0	R1413D
1880.08	0.0	1881906	START	n/a	n/a	n/a	n/a	-999	17	[-999, -999, -999]	n/a	catFR1	0	R1413D
1880.08	0.0	1881911	WORD_OFF	n/a	n/a	TRAIN	Vehicles	12	17	[0, 0, 0]	n/a	catFR1	0	R1413D
1880.08	0.0	1881911	ENCODING_END	n/a	n/a	n/a	n/a	-999	17	[0, 0, 0]	n/a	catFR1	0	R1413D
1880.08	0.016	1881911	DISTRACT_START	n/a	n/a	n/a	n/a	-999	17	[0, 0, 0]	n/a	catFR1	0	R1413D
1880.096	3.818	1881922	PROB	3.788	n/a	n/a	n/a	-999	17	[5, 4, 2]	11.0	catFR1	0	R1413D
1883.914	6.167	1885740	PROB	6.145	n/a	n/a	n/a	-999	17	[8, 5, 1]	14.0	catFR1	0	R1413D
1890.081	2.467	1891906	PROB	2.441	n/a	n/a	n/a	-999	17	[1, 1, 8]	10.0	catFR1	0	R1413D
1892.548	2.268	1894373	PROB	2.246	n/a	n/a	n/a	-999	17	[6, 2, 1]	9.0	catFR1	0	R1413D
1894.816	2.817	1896641	PROB	2.786	n/a	n/a	n/a	-999	17	[8, 4, 8]	20.0	catFR1	0	R1413D
1897.633	3.434	1899458	PROB	3.425	n/a	n/a	n/a	-999	17	[5, 7, 6]	18.0	catFR1	0	R1413D
1901.067	0.0	1902883	DISTRACT_END	n/a	n/a	n/a	n/a	-999	17	[0, 0, 0]	n/a	catFR1	0	R1413D
1901.058	2.243	1902883	STOP	n/a	n/a	n/a	n/a	-999	17	[-999, -999, -999]	n/a	catFR1	0	R1413D
1903.301	0.466	1905121	REC_START	n/a	n/a	n/a	n/a	-999	17	[0, 0, 0]	n/a	catFR1	0	R1413D
1903.767	0.637	1905592	REC_WORD	0.466	n/a	TIGER	Zoo	5	17	[0, 0, 0]	n/a	catFR1	0	R1413D
1904.404	0.836	1906229	REC_WORD	1.103	n/a	LION	Zoo	9	17	[0, 0, 0]	n/a	catFR1	0	R1413D
1905.24	1.567	1907065	REC_WORD	1.939	n/a	CHIMPANZEE	Zoo	10	17	[0, 0, 0]	n/a	catFR1	0	R1413D
1906.807	0.94	1908632	REC_WORD	3.506	n/a	BOAT	Vehicles	11	17	[0, 0, 0]	n/a	catFR1	0	R1413D
1907.747	0.754	1909572	REC_WORD	4.446	n/a	TRAIN	Vehicles	12	17	[0, 0, 0]	n/a	catFR1	0	R1413D
1908.501	4.219	1910326	REC_WORD	5.2	n/a	CAR	Vehicles	4	17	[0, 0, 0]	n/a	catFR1	0	R1413D
1912.72	2.788	1914544	REC_WORD_VV	9.419	n/a	<>	n/a	-999	17	[0, 0, 0]	n/a	catFR1	0	R1413D
1915.508	0.989	1917332	REC_WORD	12.207	n/a	SQUID	OceanAnimals	1	17	[0, 0, 0]	n/a	catFR1	0	R1413D
1916.497	0.818	1918321	REC_WORD	13.196	n/a	OCTOPUS	n/a	-999	17	[0, 0, 0]	n/a	catFR1	0	R1413D
1917.315	15.996	1919139	REC_WORD	14.014	n/a	FISH	OceanAnimals	2	17	[0, 0, 0]	n/a	catFR1	0	R1413D
1933.311	1.729	1935148	REC_END	n/a	n/a	n/a	n/a	-999	17	[0, 0, 0]	n/a	catFR1	0	R1413D
1935.04	10.428	1936891	COUNTDOWN_START	n/a	n/a	n/a	n/a	-999	18	[0, 0, 0]	n/a	catFR1	0	R1413D
1945.468	1.074	1947281	COUNTDOWN_END	n/a	n/a	n/a	n/a	-999	18	[0, 0, 0]	n/a	catFR1	0	R1413D
1946.542	0.989	1948349	ENCODING_START	n/a	n/a	n/a	n/a	-999	18	[0, 0, 0]	n/a	catFR1	0	R1413D
1947.531	1.628	1949354	WORD	n/a	wordpools/wordpool_categorized_EN.txt	BLUEBERRY	Fruit	1	18	[0, 0, 0]	n/a	catFR1	0	R1413D
1949.159	0.85	1950969	WORD_OFF	n/a	n/a	BLUEBERRY	Fruit	1	18	[0, 0, 0]	n/a	catFR1	0	R1413D
1950.009	1.634	1951834	WORD	n/a	wordpools/wordpool_categorized_EN.txt	CHERRY	Fruit	2	18	[0, 0, 0]	n/a	catFR1	0	R1413D
1951.643	0.8	1953449	WORD_OFF	n/a	n/a	CHERRY	Fruit	2	18	[0, 0, 0]	n/a	catFR1	0	R1413D
1952.443	1.634	1954276	WORD	n/a	wordpools/wordpool_categorized_EN.txt	CELLO	Instruments	3	18	[0, 0, 0]	n/a	catFR1	0	R1413D
1954.077	0.867	1955891	WORD_OFF	n/a	n/a	CELLO	Instruments	3	18	[0, 0, 0]	n/a	catFR1	0	R1413D
1954.944	1.633	1956769	WORD	n/a	wordpools/wordpool_categorized_EN.txt	BASS	Instruments	4	18	[0, 0, 0]	n/a	catFR1	0	R1413D
1956.577	1.053	1958384	WORD_OFF	n/a	n/a	BASS	Instruments	4	18	[0, 0, 0]	n/a	catFR1	0	R1413D
1957.63	1.631	1959452	WORD	n/a	wordpools/wordpool_categorized_EN.txt	MOTORCYCLE	Vehicles	5	18	[0, 0, 0]	n/a	catFR1	0	R1413D
1959.261	0.873	1961067	WORD_OFF	n/a	n/a	MOTORCYCLE	Vehicles	5	18	[0, 0, 0]	n/a	catFR1	0	R1413D
1960.134	1.627	1961958	WORD	n/a	wordpools/wordpool_categorized_EN.txt	BUS	Vehicles	6	18	[0, 0, 0]	n/a	catFR1	0	R1413D
1961.761	1.054	1963573	WORD_OFF	n/a	n/a	BUS	Vehicles	6	18	[0, 0, 0]	n/a	catFR1	0	R1413D
1962.815	1.629	1964641	WORD	n/a	wordpools/wordpool_categorized_EN.txt	DRUM	Instruments	7	18	[0, 0, 0]	n/a	catFR1	0	R1413D
1964.444	1.144	1966256	WORD_OFF	n/a	n/a	DRUM	Instruments	7	18	[0, 0, 0]	n/a	catFR1	0	R1413D
1965.588	1.624	1967401	WORD	n/a	wordpools/wordpool_categorized_EN.txt	TROMBONE	Instruments	8	18	[0, 0, 0]	n/a	catFR1	0	R1413D
1967.212	1.059	1969016	WORD_OFF	n/a	n/a	TROMBONE	Instruments	8	18	[0, 0, 0]	n/a	catFR1	0	R1413D
1968.271	1.625	1970084	WORD	n/a	wordpools/wordpool_categorized_EN.txt	BANANA	Fruit	9	18	[0, 0, 0]	n/a	catFR1	0	R1413D
1969.896	0.762	1971700	WORD_OFF	n/a	n/a	BANANA	Fruit	9	18	[0, 0, 0]	n/a	catFR1	0	R1413D
1970.658	1.622	1972475	WORD	n/a	wordpools/wordpool_categorized_EN.txt	PEAR	Fruit	10	18	[0, 0, 0]	n/a	catFR1	0	R1413D
1972.28	1.006	1974091	WORD_OFF	n/a	n/a	PEAR	Fruit	10	18	[0, 0, 0]	n/a	catFR1	0	R1413D
1973.286	1.628	1975108	WORD	n/a	wordpools/wordpool_categorized_EN.txt	SCOOTER	Vehicles	11	18	[0, 0, 0]	n/a	catFR1	0	R1413D
1974.914	0.953	1976723	WORD_OFF	n/a	n/a	SCOOTER	Vehicles	11	18	[0, 0, 0]	n/a	catFR1	0	R1413D
1975.867	1.63	1977690	WORD	n/a	wordpools/wordpool_categorized_EN.txt	JEEP	Vehicles	12	18	[0, 0, 0]	n/a	catFR1	0	R1413D
1977.497	0.0	1979318	WORD_OFF	n/a	n/a	JEEP	Vehicles	12	18	[0, 0, 0]	n/a	catFR1	0	R1413D
1977.497	0.0	1979318	START	n/a	n/a	n/a	n/a	-999	18	[-999, -999, -999]	n/a	catFR1	0	R1413D
1977.497	0.0	1979330	ENCODING_END	n/a	n/a	n/a	n/a	-999	18	[0, 0, 0]	n/a	catFR1	0	R1413D
1977.497	0.017	1979330	DISTRACT_START	n/a	n/a	n/a	n/a	-999	18	[0, 0, 0]	n/a	catFR1	0	R1413D
1977.514	2.517	1979335	PROB	2.483	n/a	n/a	n/a	-999	18	[8, 8, 4]	20.0	catFR1	0	R1413D
1980.031	1.551	1981852	PROB	1.519	n/a	n/a	n/a	-999	18	[5, 2, 5]	12.0	catFR1	0	R1413D
1981.582	3.084	1983403	PROB	3.047	n/a	n/a	n/a	-999	18	[6, 5, 8]	19.0	catFR1	0	R1413D
1984.666	1.799	1986487	PROB	1.762	n/a	n/a	n/a	-999	18	[5, 5, 3]	13.0	catFR1	0	R1413D
1986.465	3.201	1988286	PROB	3.165	n/a	n/a	n/a	-999	18	[4, 5, 7]	16.0	catFR1	0	R1413D
1989.666	2.584	1991486	PROB	2.555	n/a	n/a	n/a	-999	18	[7, 7, 5]	19.0	catFR1	0	R1413D
1992.25	2.784	1994070	PROB	2.748	n/a	n/a	n/a	-999	18	[6, 5, 7]	18.0	catFR1	0	R1413D
1995.034	2.416	1996854	PROB	2.386	n/a	n/a	n/a	-999	18	[1, 4, 2]	7.0	catFR1	0	R1413D
1997.45	3.003	1999270	PROB	3.003	n/a	n/a	n/a	-999	18	[7, 4, 3]	14.0	catFR1	0	R1413D
2000.453	0.015	2002273	STOP	n/a	n/a	n/a	n/a	-999	18	[-999, -999, -999]	n/a	catFR1	0	R1413D
2000.468	2.218	2002274	DISTRACT_END	n/a	n/a	n/a	n/a	-999	18	[0, 0, 0]	n/a	catFR1	0	R1413D
2002.686	0.671	2004499	REC_START	n/a	n/a	n/a	n/a	-999	18	[0, 0, 0]	n/a	catFR1	0	R1413D
2003.357	1.068	2005177	REC_WORD	0.671	n/a	BLUEBERRY	Fruit	1	18	[0, 0, 0]	n/a	catFR1	0	R1413D
2004.425	1.017	2006245	REC_WORD	1.739	n/a	CHERRY	Fruit	2	18	[0, 0, 0]	n/a	catFR1	0	R1413D
2005.442	2.322	2007262	REC_WORD	2.756	n/a	SCOOTER	Vehicles	11	18	[0, 0, 0]	n/a	catFR1	0	R1413D
2007.764	24.931	2009584	REC_WORD	5.078	n/a	JEEP	Vehicles	12	18	[0, 0, 0]	n/a	catFR1	0	R1413D
2032.695	1.729	2034526	REC_END	n/a	n/a	n/a	n/a	-999	18	[0, 0, 0]	n/a	catFR1	0	R1413D
2034.424	10.428	2036269	COUNTDOWN_START	n/a	n/a	n/a	n/a	-999	19	[0, 0, 0]	n/a	catFR1	0	R1413D
2044.852	1.092	2046659	COUNTDOWN_END	n/a	n/a	n/a	n/a	-999	19	[0, 0, 0]	n/a	catFR1	0	R1413D
2045.944	0.752	2047753	ENCODING_START	n/a	n/a	n/a	n/a	-999	19	[0, 0, 0]	n/a	catFR1	0	R1413D
2046.696	1.631	2048516	WORD	n/a	wordpools/wordpool_categorized_EN.txt	PIANO	Instruments	1	19	[0, 0, 0]	n/a	catFR1	0	R1413D
2048.327	0.924	2050131	WORD_OFF	n/a	n/a	PIANO	Instruments	1	19	[0, 0, 0]	n/a	catFR1	0	R1413D
2049.251	1.627	2051072	WORD	n/a	wordpools/wordpool_categorized_EN.txt	TUBA	Instruments	2	19	[0, 0, 0]	n/a	catFR1	0	R1413D
2050.878	0.943	2052687	WORD_OFF	n/a	n/a	TUBA	Instruments	2	19	[0, 0, 0]	n/a	catFR1	0	R1413D
2051.821	1.623	2053629	WORD	n/a	wordpools/wordpool_categorized_EN.txt	FOLDER	OfficeSupplies	3	19	[0, 0, 0]	n/a	catFR1	0	R1413D
2053.444	0.979	2055256	WORD_OFF	n/a	n/a	FOLDER	OfficeSupplies	3	19	[0, 0, 0]	n/a	catFR1	0	R1413D
2054.423	1.605	2056236	WORD	n/a	wordpools/wordpool_categorized_EN.txt	PENCIL	OfficeSupplies	4	19	[0, 0, 0]	n/a	catFR1	0	R1413D
2056.028	1.02	2057838	WORD_OFF	n/a	n/a	PENCIL	OfficeSupplies	4	19	[0, 0, 0]	n/a	catFR1	0	R1413D
2057.048	1.631	2058868	WORD	n/a	wordpools/wordpool_categorized_EN.txt	EVERGREEN	Trees	5	19	[0, 0, 0]	n/a	catFR1	0	R1413D
2058.679	0.886	2060484	WORD_OFF	n/a	n/a	EVERGREEN	Trees	5	19	[0, 0, 0]	n/a	catFR1	0	R1413D
2059.565	1.631	2061386	WORD	n/a	wordpools/wordpool_categorized_EN.txt	BIRCH	Trees	6	19	[0, 0, 0]	n/a	catFR1	0	R1413D
2061.196	1.071	2063002	WORD_OFF	n/a	n/a	BIRCH	Trees	6	19	[0, 0, 0]	n/a	catFR1	0	R1413D
2062.267	1.63	2064083	WORD	n/a	wordpools/wordpool_categorized_EN.txt	GUITAR	Instruments	7	19	[0, 0, 0]	n/a	catFR1	0	R1413D
2063.897	0.987	2065698	WORD_OFF	n/a	n/a	GUITAR	Instruments	7	19	[0, 0, 0]	n/a	catFR1	0	R1413D
2064.884	1.63	2066703	WORD	n/a	wordpools/wordpool_categorized_EN.txt	BANJO	Instruments	8	19	[0, 0, 0]	n/a	catFR1	0	R1413D
2066.514	1.119	2068318	WORD_OFF	n/a	n/a	BANJO	Instruments	8	19	[0, 0, 0]	n/a	catFR1	0	R1413D
2067.633	1.632	2069450	WORD	n/a	wordpools/wordpool_categorized_EN.txt	RULER	OfficeSupplies	9	19	[0, 0, 0]	n/a	catFR1	0	R1413D
2069.265	0.957	2071065	WORD_OFF	n/a	n/a	RULER	OfficeSupplies	9	19	[0, 0, 0]	n/a	catFR1	0	R1413D
2070.222	1.626	2072031	WORD	n/a	wordpools/wordpool_categorized_EN.txt	STAPLER	OfficeSupplies	10	19	[0, 0, 0]	n/a	catFR1	0	R1413D
2071.848	0.984	2073659	WORD_OFF	n/a	n/a	STAPLER	OfficeSupplies	10	19	[0, 0, 0]	n/a	catFR1	0	R1413D
2072.832	1.633	2074651	WORD	n/a	wordpools/wordpool_categorized_EN.txt	CYPRESS	Trees	11	19	[0, 0, 0]	n/a	catFR1	0	R1413D
2074.465	0.894	2076266	WORD_OFF	n/a	n/a	CYPRESS	Trees	11	19	[0, 0, 0]	n/a	catFR1	0	R1413D
2075.359	1.624	2077169	WORD	n/a	wordpools/wordpool_categorized_EN.txt	WILLOW	Trees	12	19	[0, 0, 0]	n/a	catFR1	0	R1413D
2076.983	0.001	2078797	WORD_OFF	n/a	n/a	WILLOW	Trees	12	19	[0, 0, 0]	n/a	catFR1	0	R1413D
2076.984	0.0	2078800	START	n/a	n/a	n/a	n/a	-999	19	[-999, -999, -999]	n/a	catFR1	0	R1413D
2076.983	0.0	2078810	ENCODING_END	n/a	n/a	n/a	n/a	-999	19	[0, 0, 0]	n/a	catFR1	0	R1413D
2076.983	0.016	2078810	DISTRACT_START	n/a	n/a	n/a	n/a	-999	19	[0, 0, 0]	n/a	catFR1	0	R1413D
2076.999	3.834	2078815	PROB	3.802	n/a	n/a	n/a	-999	19	[2, 4, 7]	13.0	catFR1	0	R1413D
2080.833	3.984	2082649	PROB	3.956	n/a	n/a	n/a	-999	19	[9, 7, 8]	24.0	catFR1	0	R1413D
2084.817	2.65	2086633	PROB	2.619	n/a	n/a	n/a	-999	19	[7, 6, 7]	20.0	catFR1	0	R1413D
2087.467	2.884	2089283	PROB	2.849	n/a	n/a	n/a	-999	19	[3, 2, 4]	9.0	catFR1	0	R1413D
2090.351	3.318	2092166	PROB	3.294	n/a	n/a	n/a	-999	19	[6, 6, 4]	16.0	catFR1	0	R1413D
2093.669	2.25	2095484	PROB	2.216	n/a	n/a	n/a	-999	19	[4, 1, 9]	14.0	catFR1	0	R1413D
2095.919	4.685	2097734	PROB	4.674	n/a	n/a	n/a	-999	19	[5, 2, 9]	16.0	catFR1	0	R1413D
2100.604	0.0	2102402	DISTRACT_END	n/a	n/a	n/a	n/a	-999	19	[0, 0, 0]	n/a	catFR1	0	R1413D
2100.593	2.278	2102408	STOP	n/a	n/a	n/a	n/a	-999	19	[-999, -999, -999]	n/a	catFR1	0	R1413D
2102.871	0.686	2104691	REC_START	n/a	n/a	n/a	n/a	-999	19	[0, 0, 0]	n/a	catFR1	0	R1413D
2103.557	1.114	2105372	REC_WORD	0.686	n/a	CYPRESS	Trees	11	19	[0, 0, 0]	n/a	catFR1	0	R1413D
2104.671	0.69	2106486	REC_WORD	1.8	n/a	WILLOW	Trees	12	19	[0, 0, 0]	n/a	catFR1	0	R1413D
2105.361	4.645	2107176	REC_WORD	2.49	n/a	BIRCH	Trees	6	19	[0, 0, 0]	n/a	catFR1	0	R1413D
2110.006	1.966	2111820	REC_WORD	7.135	n/a	FOLDER	OfficeSupplies	3	19	[0, 0, 0]	n/a	catFR1	0	R1413D
2111.972	2.717	2113786	REC_WORD	9.101	n/a	STAPLER	OfficeSupplies	10	19	[0, 0, 0]	n/a	catFR1	0	R1413D
2114.689	18.192	2116503	REC_WORD	11.818	n/a	PENCIL	OfficeSupplies	4	19	[0, 0, 0]	n/a	catFR1	0	R1413D
2132.881	1.696	2134705	REC_END	n/a	n/a	n/a	n/a	-999	19	[0, 0, 0]	n/a	catFR1	0	R1413D
2134.577	10.429	2136410	COUNTDOWN_START	n/a	n/a	n/a	n/a	-999	20	[0, 0, 0]	n/a	catFR1	0	R1413D
2145.006	1.24	2146813	COUNTDOWN_END	n/a	n/a	n/a	n/a	-999	20	[0, 0, 0]	n/a	catFR1	0	R1413D
2146.246	1.032	2148047	ENCODING_START	n/a	n/a	n/a	n/a	-999	20	[0, 0, 0]	n/a	catFR1	0	R1413D
2147.278	1.635	2149102	WORD	n/a	wordpools/wordpool_categorized_EN.txt	DOLPHIN	OceanAnimals	1	20	[0, 0, 0]	n/a	catFR1	0	R1413D
2148.913	0.937	2150717	WORD_OFF	n/a	n/a	DOLPHIN	OceanAnimals	1	20	[0, 0, 0]	n/a	catFR1	0	R1413D
2149.85	1.629	2151658	WORD	n/a	wordpools/wordpool_categorized_EN.txt	OCTOPUS	OceanAnimals	2	20	[0, 0, 0]	n/a	catFR1	0	R1413D
2151.479	0.78	2153286	WORD_OFF	n/a	n/a	OCTOPUS	OceanAnimals	2	20	[0, 0, 0]	n/a	catFR1	0	R1413D
2152.259	1.621	2154062	WORD	n/a	wordpools/wordpool_categorized_EN.txt	TAPE	OfficeSupplies	3	20	[0, 0, 0]	n/a	catFR1	0	R1413D
2153.88	0.995	2155677	WORD_OFF	n/a	n/a	TAPE	OfficeSupplies	3	20	[0, 0, 0]	n/a	catFR1	0	R1413D
2154.875	1.621	2156682	WORD	n/a	wordpools/wordpool_categorized_EN.txt	NOTEBOOK	OfficeSupplies	4	20	[0, 0, 0]	n/a	catFR1	0	R1413D
2156.496	0.938	2158297	WORD_OFF	n/a	n/a	NOTEBOOK	OfficeSupplies	4	20	[0, 0, 0]	n/a	catFR1	0	R1413D
2157.434	1.63	2159251	WORD	n/a	wordpools/wordpool_categorized_EN.txt	HICKORY	Trees	5	20	[0, 0, 0]	n/a	catFR1	0	R1413D
2159.064	1.134	2160866	WORD_OFF	n/a	n/a	HICKORY	Trees	5	20	[0, 0, 0]	n/a	catFR1	0	R1413D
2160.198	1.634	2162011	WORD	n/a	wordpools/wordpool_categorized_EN.txt	PINE	Trees	6	20	[0, 0, 0]	n/a	catFR1	0	R1413D
2161.832	0.89	2163626	WORD_OFF	n/a	n/a	PINE	Trees	6	20	[0, 0, 0]	n/a	catFR1	0	R1413D
2162.722	1.626	2164529	WORD	n/a	wordpools/wordpool_categorized_EN.txt	WHALE	OceanAnimals	7	20	[0, 0, 0]	n/a	catFR1	0	R1413D
2164.348	0.89	2166144	WORD_OFF	n/a	n/a	WHALE	OceanAnimals	7	20	[0, 0, 0]	n/a	catFR1	0	R1413D
2165.238	1.628	2167047	WORD	n/a	wordpools/wordpool_categorized_EN.txt	CRAB	OceanAnimals	8	20	[0, 0, 0]	n/a	catFR1	0	R1413D
2166.866	0.927	2168662	WORD_OFF	n/a	n/a	CRAB	OceanAnimals	8	20	[0, 0, 0]	n/a	catFR1	0	R1413D
2167.793	1.622	2169603	WORD	n/a	wordpools/wordpool_categorized_EN.txt	CEDAR	Trees	9	20	[0, 0, 0]	n/a	catFR1	0	R1413D
2169.415	1.107	2171219	WORD_OFF	n/a	n/a	CEDAR	Trees	9	20	[0, 0, 0]	n/a	catFR1	0	R1413D
2170.522	1.628	2172338	WORD	n/a	wordpools/wordpool_categorized_EN.txt	MAPLE	Trees	10	20	[0, 0, 0]	n/a	catFR1	0	R1413D
2172.15	1.045	2173953	WORD_OFF	n/a	n/a	MAPLE	Trees	10	20	[0, 0, 0]	n/a	catFR1	0	R1413D
2173.195	1.622	2174996	WORD	n/a	wordpools/wordpool_categorized_EN.txt	GLUE	OfficeSupplies	11	20	[0, 0, 0]	n/a	catFR1	0	R1413D
2174.817	0.806	2176611	WORD_OFF	n/a	n/a	GLUE	OfficeSupplies	11	20	[0, 0, 0]	n/a	catFR1	0	R1413D
2175.623	1.629	2177438	WORD	n/a	wordpools/wordpool_categorized_EN.txt	ERASER	OfficeSupplies	12	20	[0, 0, 0]	n/a	catFR1	0	R1413D
2177.252	0.0	2179063	START	n/a	n/a	n/a	n/a	-999	20	[-999, -999, -999]	n/a	catFR1	0	R1413D
2177.251	0.001	2179066	WORD_OFF	n/a	n/a	ERASER	OfficeSupplies	12	20	[0, 0, 0]	n/a	catFR1	0	R1413D
2177.252	0.0	2179066	ENCODING_END	n/a	n/a	n/a	n/a	-999	20	[0, 0, 0]	n/a	catFR1	0	R1413D
2177.252	0.016	2179066	DISTRACT_START	n/a	n/a	n/a	n/a	-999	20	[0, 0, 0]	n/a	catFR1	0	R1413D
2177.268	3.917	2179079	PROB	3.882	n/a	n/a	n/a	-999	20	[5, 7, 8]	20.0	catFR1	0	R1413D
2181.185	2.751	2182996	PROB	2.717	n/a	n/a	n/a	-999	20	[5, 2, 1]	8.0	catFR1	0	R1413D
2183.936	3.0	2185747	PROB	2.974	n/a	n/a	n/a	-999	20	[6, 8, 4]	18.0	catFR1	0	R1413D
2186.936	3.084	2188747	PROB	3.046	n/a	n/a	n/a	-999	20	[3, 2, 3]	8.0	catFR1	0	R1413D
2190.02	2.734	2191830	PROB	2.706	n/a	n/a	n/a	-999	20	[2, 5, 2]	9.0	catFR1	0	R1413D
2192.754	3.834	2194564	PROB	3.812	n/a	n/a	n/a	-999	20	[7, 1, 8]	16.0	catFR1	0	R1413D
2196.588	3.017	2198398	PROB	3.01	n/a	n/a	n/a	-999	20	[1, 9, 9]	19.0	catFR1	0	R1413D
2199.605	0.0	2201398	DISTRACT_END	n/a	n/a	n/a	n/a	-999	20	[0, 0, 0]	n/a	catFR1	0	R1413D
2199.598	2.342	2201408	STOP	n/a	n/a	n/a	n/a	-999	20	[-999, -999, -999]	n/a	catFR1	0	R1413D
2201.94	0.174	2203751	REC_START	n/a	n/a	n/a	n/a	-999	20	[0, 0, 0]	n/a	catFR1	0	R1413D
2202.114	3.544	2203924	REC_WORD	0.174	n/a	WILLOW	Trees	-999	20	[0, 0, 0]	n/a	catFR1	0	R1413D
2205.658	3.089	2207468	REC_WORD	3.718	n/a	OCTOPUS	OceanAnimals	2	20	[0, 0, 0]	n/a	catFR1	0	R1413D
2208.747	5.348	2210556	REC_WORD	6.807	n/a	ERASER	OfficeSupplies	12	20	[0, 0, 0]	n/a	catFR1	0	R1413D
2214.095	1.0	2215904	REC_WORD	12.155	n/a	CYPRESS	Trees	-999	20	[0, 0, 0]	n/a	catFR1	0	R1413D
2215.095	16.854	2216904	REC_WORD_VV	13.155	n/a	<>	n/a	-999	20	[0, 0, 0]	n/a	catFR1	0	R1413D
2231.949	1.647	2233765	REC_END	n/a	n/a	n/a	n/a	-999	20	[0, 0, 0]	n/a	catFR1	0	R1413D
2233.596	10.428	2235431	COUNTDOWN_START	n/a	n/a	n/a	n/a	-999	21	[0, 0, 0]	n/a	catFR1	0	R1413D
2244.024	1.04	2245822	COUNTDOWN_END	n/a	n/a	n/a	n/a	-999	21	[0, 0, 0]	n/a	catFR1	0	R1413D
2245.064	0.907	2246865	ENCODING_START	n/a	n/a	n/a	n/a	-999	21	[0, 0, 0]	n/a	catFR1	0	R1413D
2245.971	1.627	2247781	WORD	n/a	wordpools/wordpool_categorized_EN.txt	TEA	Beverages	1	21	[0, 0, 0]	n/a	catFR1	0	R1413D
2247.598	1.01	2249396	WORD_OFF	n/a	n/a	TEA	Beverages	1	21	[0, 0, 0]	n/a	catFR1	0	R1413D
2248.608	1.623	2250413	WORD	n/a	wordpools/wordpool_categorized_EN.txt	MILK	Beverages	2	21	[0, 0, 0]	n/a	catFR1	0	R1413D
2250.231	1.04	2252028	WORD_OFF	n/a	n/a	MILK	Beverages	2	21	[0, 0, 0]	n/a	catFR1	0	R1413D
2251.271	1.611	2253071	WORD	n/a	wordpools/wordpool_categorized_EN.txt	TURTLE	OceanAnimals	3	21	[0, 0, 0]	n/a	catFR1	0	R1413D
2252.882	0.884	2254674	WORD_OFF	n/a	n/a	TURTLE	OceanAnimals	3	21	[0, 0, 0]	n/a	catFR1	0	R1413D
2253.766	1.632	2255577	WORD	n/a	wordpools/wordpool_categorized_EN.txt	JELLYFISH	OceanAnimals	4	21	[0, 0, 0]	n/a	catFR1	0	R1413D
2255.398	1.049	2257192	WORD_OFF	n/a	n/a	JELLYFISH	OceanAnimals	4	21	[0, 0, 0]	n/a	catFR1	0	R1413D
2256.447	1.636	2258260	WORD	n/a	wordpools/wordpool_categorized_EN.txt	HUMIDITY	Weather	5	21	[0, 0, 0]	n/a	catFR1	0	R1413D
2258.083	0.81	2259875	WORD_OFF	n/a	n/a	HUMIDITY	Weather	5	21	[0, 0, 0]	n/a	catFR1	0	R1413D
2258.893	1.624	2260689	WORD	n/a	wordpools/wordpool_categorized_EN.txt	THUNDERSTORM	Weather	6	21	[0, 0, 0]	n/a	catFR1	0	R1413D
2260.517	0.906	2262317	WORD_OFF	n/a	n/a	THUNDERSTORM	Weather	6	21	[0, 0, 0]	n/a	catFR1	0	R1413D
2261.423	1.611	2263233	WORD	n/a	wordpools/wordpool_categorized_EN.txt	LOBSTER	OceanAnimals	7	21	[0, 0, 0]	n/a	catFR1	0	R1413D
2263.034	1.1	2264835	WORD_OFF	n/a	n/a	LOBSTER	OceanAnimals	7	21	[0, 0, 0]	n/a	catFR1	0	R1413D
2264.134	1.633	2265942	WORD	n/a	wordpools/wordpool_categorized_EN.txt	PLANKTON	OceanAnimals	8	21	[0, 0, 0]	n/a	catFR1	0	R1413D
2265.767	0.764	2267557	WORD_OFF	n/a	n/a	PLANKTON	OceanAnimals	8	21	[0, 0, 0]	n/a	catFR1	0	R1413D
2266.531	1.637	2268346	WORD	n/a	wordpools/wordpool_categorized_EN.txt	DRIZZLE	Weather	9	21	[0, 0, 0]	n/a	catFR1	0	R1413D
2268.168	1.102	2269961	WORD_OFF	n/a	n/a	DRIZZLE	Weather	9	21	[0, 0, 0]	n/a	catFR1	0	R1413D
2269.27	1.632	2271080	WORD	n/a	wordpools/wordpool_categorized_EN.txt	WIND	Weather	10	21	[0, 0, 0]	n/a	catFR1	0	R1413D
2270.902	0.764	2272695	WORD_OFF	n/a	n/a	WIND	Weather	10	21	[0, 0, 0]	n/a	catFR1	0	R1413D
2271.666	1.636	2273484	WORD	n/a	wordpools/wordpool_categorized_EN.txt	WINE	Beverages	11	21	[0, 0, 0]	n/a	catFR1	0	R1413D
2273.302	0.922	2275099	WORD_OFF	n/a	n/a	WINE	Beverages	11	21	[0, 0, 0]	n/a	catFR1	0	R1413D
2274.224	1.63	2276027	WORD	n/a	wordpools/wordpool_categorized_EN.txt	COFFEE	Beverages	12	21	[0, 0, 0]	n/a	catFR1	0	R1413D
2275.854	0.0	2277660	START	n/a	n/a	n/a	n/a	-999	21	[-999, -999, -999]	n/a	catFR1	0	R1413D
2275.853	0.0	2277668	WORD_OFF	n/a	n/a	COFFEE	Beverages	12	21	[0, 0, 0]	n/a	catFR1	0	R1413D
2275.853	0.001	2277668	ENCODING_END	n/a	n/a	n/a	n/a	-999	21	[0, 0, 0]	n/a	catFR1	0	R1413D
2275.854	0.015	2277668	DISTRACT_START	n/a	n/a	n/a	n/a	-999	21	[0, 0, 0]	n/a	catFR1	0	R1413D
2275.869	2.701	2277675	PROB	2.673	n/a	n/a	n/a	-999	21	[5, 3, 2]	1.0	catFR1	0	R1413D
2278.57	3.017	2280376	PROB	2.988	n/a	n/a	n/a	-999	21	[4, 2, 3]	9.0	catFR1	0	R1413D
2281.587	6.151	2283393	PROB	6.13	n/a	n/a	n/a	-999	21	[6, 8, 9]	23.0	catFR1	0	R1413D
2287.738	3.65	2289544	PROB	3.627	n/a	n/a	n/a	-999	21	[8, 6, 9]	23.0	catFR1	0	R1413D
2291.388	3.067	2293193	PROB	3.034	n/a	n/a	n/a	-999	21	[3, 5, 1]	9.0	catFR1	0	R1413D
2294.455	3.899	2296260	PROB	3.899	n/a	n/a	n/a	-999	21	[6, 5, 2]	13.0	catFR1	0	R1413D
2298.354	0.019	2300159	STOP	n/a	n/a	n/a	n/a	-999	21	[-999, -999, -999]	n/a	catFR1	0	R1413D
2298.373	2.1	2300166	DISTRACT_END	n/a	n/a	n/a	n/a	-999	21	[0, 0, 0]	n/a	catFR1	0	R1413D
2300.473	1.567	2302277	REC_START	n/a	n/a	n/a	n/a	-999	21	[0, 0, 0]	n/a	catFR1	0	R1413D
2302.04	4.568	2303845	REC_WORD	1.567	n/a	WINE	Beverages	11	21	[0, 0, 0]	n/a	catFR1	0	R1413D
2306.608	5.104	2308413	REC_WORD	6.135	n/a	MILK	Beverages	2	21	[0, 0, 0]	n/a	catFR1	0	R1413D
2311.712	18.771	2313516	REC_WORD	11.239	n/a	JELLYFISH	OceanAnimals	4	21	[0, 0, 0]	n/a	catFR1	0	R1413D
2330.483	1.797	2332304	REC_END	n/a	n/a	n/a	n/a	-999	21	[0, 0, 0]	n/a	catFR1	0	R1413D
2332.28	10.428	2334110	COUNTDOWN_START	n/a	n/a	n/a	n/a	-999	22	[0, 0, 0]	n/a	catFR1	0	R1413D
2342.708	1.225	2344500	COUNTDOWN_END	n/a	n/a	n/a	n/a	-999	22	[0, 0, 0]	n/a	catFR1	0	R1413D
2343.933	0.75	2345721	ENCODING_START	n/a	n/a	n/a	n/a	-999	22	[0, 0, 0]	n/a	catFR1	0	R1413D
2344.683	1.633	2346484	WORD	n/a	wordpools/wordpool_categorized_EN.txt	FINGERS	BodyParts	1	22	[0, 0, 0]	n/a	catFR1	0	R1413D
2346.316	1.046	2348112	WORD_OFF	n/a	n/a	FINGERS	BodyParts	1	22	[0, 0, 0]	n/a	catFR1	0	R1413D
2347.362	1.604	2349155	WORD	n/a	wordpools/wordpool_categorized_EN.txt	ARM	BodyParts	2	22	[0, 0, 0]	n/a	catFR1	0	R1413D
2348.966	0.827	2350758	WORD_OFF	n/a	n/a	ARM	BodyParts	2	22	[0, 0, 0]	n/a	catFR1	0	R1413D
2349.793	1.623	2351584	WORD	n/a	wordpools/wordpool_categorized_EN.txt	FLUTE	Instruments	3	22	[0, 0, 0]	n/a	catFR1	0	R1413D
2351.416	1.143	2353212	WORD_OFF	n/a	n/a	FLUTE	Instruments	3	22	[0, 0, 0]	n/a	catFR1	0	R1413D
2352.559	1.625	2354357	WORD	n/a	wordpools/wordpool_categorized_EN.txt	ORGAN	Instruments	4	22	[0, 0, 0]	n/a	catFR1	0	R1413D
2354.184	0.939	2355972	WORD_OFF	n/a	n/a	ORGAN	Instruments	4	22	[0, 0, 0]	n/a	catFR1	0	R1413D
2355.123	1.628	2356926	WORD	n/a	wordpools/wordpool_categorized_EN.txt	HURRICANE	Weather	5	22	[0, 0, 0]	n/a	catFR1	0	R1413D
2356.751	0.81	2358541	WORD_OFF	n/a	n/a	HURRICANE	Weather	5	22	[0, 0, 0]	n/a	catFR1	0	R1413D
