onset	duration	sample	trial_type	response_time	stim_file	item_name	category	serialpos	list	test	answer	experiment	session	subject
0.0	0.0	5626	INSTRUCT_START	n/a	n/a	n/a	n/a	-999	-999	[0, 0, 0]	n/a	catFR1	0	R1186P
0.0	11.001	5626	INSTRUCT_END	n/a	n/a	n/a	n/a	-999	-999	[0, 0, 0]	n/a	catFR1	0	R1186P
11.001	0.0	16626	SESS_START	n/a	n/a	n/a	n/a	-999	-999	[0, 0, 0]	n/a	catFR1	0	R1186P
11.001	248.171	16626	MIC_TEST	n/a	n/a	n/a	n/a	-999	-999	[0, 0, 0]	n/a	catFR1	0	R1186P
259.172	5.244	264784	PRACTICE_TRIAL	n/a	n/a	n/a	n/a	-999	-1	[0, 0, 0]	n/a	catFR1	0	R1186P
264.416	10.428	270028	COUNTDOWN_START	n/a	n/a	n/a	n/a	-999	-1	[0, 0, 0]	n/a	catFR1	0	R1186P
274.844	0.008	280456	COUNTDOWN_END	n/a	n/a	n/a	n/a	-999	-1	[0, 0, 0]	n/a	catFR1	0	R1186P
274.852	1.617	280464	PRACTICE_ORIENT	n/a	n/a	n/a	n/a	-999	-1	[0, 0, 0]	n/a	catFR1	0	R1186P
276.469	2.217	282081	PRACTICE_ORIENT_OFF	n/a	n/a	n/a	n/a	-999	-1	[0, 0, 0]	n/a	catFR1	0	R1186P
278.686	1.617	284297	PRACTICE_WORD	n/a	n/a	IRON	n/a	-1	-1	[0, 0, 0]	n/a	catFR1	0	R1186P
280.303	0.817	285914	PRACTICE_WORD_OFF	n/a	n/a	IRON	n/a	-999	-1	[0, 0, 0]	n/a	catFR1	0	R1186P
281.12	1.617	286731	PRACTICE_WORD	n/a	n/a	BEAM	n/a	-1	-1	[0, 0, 0]	n/a	catFR1	0	R1186P
282.737	0.9	288348	PRACTICE_WORD_OFF	n/a	n/a	BEAM	n/a	-999	-1	[0, 0, 0]	n/a	catFR1	0	R1186P
283.637	1.617	289248	PRACTICE_WORD	n/a	n/a	COTTON	n/a	-1	-1	[0, 0, 0]	n/a	catFR1	0	R1186P
285.254	0.85	290865	PRACTICE_WORD_OFF	n/a	n/a	COTTON	n/a	-999	-1	[0, 0, 0]	n/a	catFR1	0	R1186P
286.104	1.617	291715	PRACTICE_WORD	n/a	n/a	RHINO	n/a	-1	-1	[0, 0, 0]	n/a	catFR1	0	R1186P
287.721	0.834	293332	PRACTICE_WORD_OFF	n/a	n/a	RHINO	n/a	-999	-1	[0, 0, 0]	n/a	catFR1	0	R1186P
288.555	1.616	294166	PRACTICE_WORD	n/a	n/a	RING	n/a	-1	-1	[0, 0, 0]	n/a	catFR1	0	R1186P
290.171	1.001	295782	PRACTICE_WORD_OFF	n/a	n/a	RING	n/a	-999	-1	[0, 0, 0]	n/a	catFR1	0	R1186P
291.172	1.616	296783	PRACTICE_WORD	n/a	n/a	FLOOD	n/a	-1	-1	[0, 0, 0]	n/a	catFR1	0	R1186P
292.788	0.983	298399	PRACTICE_WORD_OFF	n/a	n/a	FLOOD	n/a	-999	-1	[0, 0, 0]	n/a	catFR1	0	R1186P
293.771	1.618	299382	PRACTICE_WORD	n/a	n/a	CAMEL	n/a	-1	-1	[0, 0, 0]	n/a	catFR1	0	R1186P
295.389	0.834	301000	PRACTICE_WORD_OFF	n/a	n/a	CAMEL	n/a	-999	-1	[0, 0, 0]	n/a	catFR1	0	R1186P
296.223	1.617	301833	PRACTICE_WORD	n/a	n/a	WAGON	n/a	-1	-1	[0, 0, 0]	n/a	catFR1	0	R1186P
297.84	0.915	303450	PRACTICE_WORD_OFF	n/a	n/a	WAGON	n/a	-999	-1	[0, 0, 0]	n/a	catFR1	0	R1186P
298.755	1.618	304365	PRACTICE_WORD	n/a	n/a	ATTIC	n/a	-1	-1	[0, 0, 0]	n/a	catFR1	0	R1186P
300.373	0.784	305983	PRACTICE_WORD_OFF	n/a	n/a	ATTIC	n/a	-999	-1	[0, 0, 0]	n/a	catFR1	0	R1186P
301.157	1.616	306767	PRACTICE_WORD	n/a	n/a	CHEST	n/a	-1	-1	[0, 0, 0]	n/a	catFR1	0	R1186P
302.773	0.834	308383	PRACTICE_WORD_OFF	n/a	n/a	CHEST	n/a	-999	-1	[0, 0, 0]	n/a	catFR1	0	R1186P
303.607	1.617	309217	PRACTICE_WORD	n/a	n/a	TONGUE	n/a	-1	-1	[0, 0, 0]	n/a	catFR1	0	R1186P
305.224	0.984	310834	PRACTICE_WORD_OFF	n/a	n/a	TONGUE	n/a	-999	-1	[0, 0, 0]	n/a	catFR1	0	R1186P
306.208	1.617	311818	PRACTICE_WORD	n/a	n/a	WATCH	n/a	-1	-1	[0, 0, 0]	n/a	catFR1	0	R1186P
307.825	0.0	313435	PRACTICE_WORD_OFF	n/a	n/a	WATCH	n/a	-999	-1	[0, 0, 0]	n/a	catFR1	0	R1186P
307.825	0.0	313435	DISTRACT_START	n/a	n/a	n/a	n/a	-999	-1	[0, 0, 0]	n/a	catFR1	0	R1186P
307.825	0.0	313435	ENCODING_END	n/a	n/a	n/a	n/a	-999	-1	[0, 0, 0]	n/a	catFR1	0	R1186P
307.825	0.016	313435	START	n/a	n/a	n/a	n/a	-999	-1	[-999, -999, -999]	n/a	catFR1	0	R1186P
307.841	11.986	313451	PROB	11.958	n/a	n/a	n/a	-999	-1	[9, 2, 1]	12.0	catFR1	0	R1186P
319.827	27.685	325436	PROB	27.685	n/a	n/a	n/a	-999	-1	[9, 9, 7]	25.0	catFR1	0	R1186P
347.512	0.02	353120	STOP	n/a	n/a	n/a	n/a	-999	-1	[-999, -999, -999]	n/a	catFR1	0	R1186P
347.532	0.55	353140	DISTRACT_END	n/a	n/a	n/a	n/a	-999	-1	[0, 0, 0]	n/a	catFR1	0	R1186P
348.082	0.518	353690	RETRIEVAL_ORIENT	n/a	n/a	n/a	n/a	-999	-1	[0, 0, 0]	n/a	catFR1	0	R1186P
348.6	30.012	354208	PRACTICE_REC_START	n/a	n/a	n/a	n/a	-999	-1	[0, 0, 0]	n/a	catFR1	0	R1186P
378.612	29.265	384218	PRACTICE_REC_END	n/a	n/a	n/a	n/a	-999	-1	[0, 0, 0]	n/a	catFR1	0	R1186P
407.877	0.5	413482	TRIAL	n/a	n/a	n/a	n/a	-999	1	[0, 0, 0]	n/a	catFR1	0	R1186P
408.377	10.428	413982	COUNTDOWN_START	n/a	n/a	n/a	n/a	-999	1	[0, 0, 0]	n/a	catFR1	0	R1186P
418.805	0.007	424409	COUNTDOWN_END	n/a	n/a	n/a	n/a	-999	1	[0, 0, 0]	n/a	catFR1	0	R1186P
418.812	1.617	424416	ORIENT	n/a	n/a	n/a	n/a	-999	1	[0, 0, 0]	n/a	catFR1	0	R1186P
420.429	2.117	426033	ORIENT_OFF	n/a	n/a	n/a	n/a	-999	1	[0, 0, 0]	n/a	catFR1	0	R1186P
422.546	1.617	428150	WORD	n/a	wordpools/wordpool_categorized_EN.txt	BIRCH	Trees	1	1	[0, 0, 0]	n/a	catFR1	0	R1186P
424.163	0.967	429767	WORD_OFF	n/a	n/a	BIRCH	n/a	1	1	[0, 0, 0]	n/a	catFR1	0	R1186P
425.13	1.617	430734	WORD	n/a	wordpools/wordpool_categorized_EN.txt	SPRUCE	Trees	2	1	[0, 0, 0]	n/a	catFR1	0	R1186P
426.747	0.95	432351	WORD_OFF	n/a	n/a	SPRUCE	n/a	2	1	[0, 0, 0]	n/a	catFR1	0	R1186P
427.697	1.617	433301	WORD	n/a	wordpools/wordpool_categorized_EN.txt	COMPUTER	Electronics	3	1	[0, 0, 0]	n/a	catFR1	0	R1186P
429.314	0.784	434918	WORD_OFF	n/a	n/a	COMPUTER	n/a	3	1	[0, 0, 0]	n/a	catFR1	0	R1186P
430.098	1.617	435702	WORD	n/a	wordpools/wordpool_categorized_EN.txt	PHONE	Electronics	4	1	[0, 0, 0]	n/a	catFR1	0	R1186P
431.715	0.917	437319	WORD_OFF	n/a	n/a	PHONE	n/a	4	1	[0, 0, 0]	n/a	catFR1	0	R1186P
432.632	1.617	438236	WORD	n/a	wordpools/wordpool_categorized_EN.txt	FISH	OceanAnimals	5	1	[0, 0, 0]	n/a	catFR1	0	R1186P
434.249	0.833	439852	WORD_OFF	n/a	n/a	FISH	n/a	5	1	[0, 0, 0]	n/a	catFR1	0	R1186P
435.082	1.617	440685	WORD	n/a	wordpools/wordpool_categorized_EN.txt	DOLPHIN	OceanAnimals	6	1	[0, 0, 0]	n/a	catFR1	0	R1186P
436.699	0.984	442302	WORD_OFF	n/a	n/a	DOLPHIN	n/a	6	1	[0, 0, 0]	n/a	catFR1	0	R1186P
437.683	1.617	443286	WORD	n/a	wordpools/wordpool_categorized_EN.txt	STEREO	Electronics	7	1	[0, 0, 0]	n/a	catFR1	0	R1186P
439.3	0.766	444903	WORD_OFF	n/a	n/a	STEREO	n/a	7	1	[0, 0, 0]	n/a	catFR1	0	R1186P
440.066	1.617	445669	WORD	n/a	wordpools/wordpool_categorized_EN.txt	CALCULATOR	Electronics	8	1	[0, 0, 0]	n/a	catFR1	0	R1186P
441.683	1.001	447286	WORD_OFF	n/a	n/a	CALCULATOR	n/a	8	1	[0, 0, 0]	n/a	catFR1	0	R1186P
442.684	1.617	448287	WORD	n/a	wordpools/wordpool_categorized_EN.txt	WILLOW	Trees	9	1	[0, 0, 0]	n/a	catFR1	0	R1186P
444.301	0.866	449904	WORD_OFF	n/a	n/a	WILLOW	n/a	9	1	[0, 0, 0]	n/a	catFR1	0	R1186P
445.167	1.616	450770	WORD	n/a	wordpools/wordpool_categorized_EN.txt	PINE	Trees	10	1	[0, 0, 0]	n/a	catFR1	0	R1186P
446.783	0.885	452386	WORD_OFF	n/a	n/a	PINE	n/a	10	1	[0, 0, 0]	n/a	catFR1	0	R1186P
447.668	1.617	453271	WORD	n/a	wordpools/wordpool_categorized_EN.txt	TURTLE	OceanAnimals	11	1	[0, 0, 0]	n/a	catFR1	0	R1186P
449.285	1.0	454888	WORD_OFF	n/a	n/a	TURTLE	n/a	11	1	[0, 0, 0]	n/a	catFR1	0	R1186P
450.285	1.617	455888	WORD	n/a	wordpools/wordpool_categorized_EN.txt	WHALE	OceanAnimals	12	1	[0, 0, 0]	n/a	catFR1	0	R1186P
451.902	0.0	457505	ENCODING_END	n/a	n/a	n/a	n/a	-999	1	[0, 0, 0]	n/a	catFR1	0	R1186P
451.902	0.137	457505	WORD_OFF	n/a	n/a	WHALE	n/a	12	1	[0, 0, 0]	n/a	catFR1	0	R1186P
452.039	0.0	457642	DISTRACT_START	n/a	n/a	n/a	n/a	-999	1	[0, 0, 0]	n/a	catFR1	0	R1186P
452.039	0.013	457642	START	n/a	n/a	n/a	n/a	-999	1	[-999, -999, -999]	n/a	catFR1	0	R1186P
452.052	12.502	457655	PROB	12.476	n/a	n/a	n/a	-999	1	[3, 7, 1]	11.0	catFR1	0	R1186P
464.554	16.557	470156	PROB	16.557	n/a	n/a	n/a	-999	1	[7, 6, 7]	20.0	catFR1	0	R1186P
481.111	0.013	486712	STOP	n/a	n/a	n/a	n/a	-999	1	[-999, -999, -999]	n/a	catFR1	0	R1186P
481.124	0.633	486725	DISTRACT_END	n/a	n/a	n/a	n/a	-999	1	[0, 0, 0]	n/a	catFR1	0	R1186P
481.757	0.518	487358	RETRIEVAL_ORIENT	n/a	n/a	n/a	n/a	-999	1	[0, 0, 0]	n/a	catFR1	0	R1186P
482.275	20.294	487876	REC_START	n/a	n/a	n/a	n/a	-999	1	[0, 0, 0]	n/a	catFR1	0	R1186P
502.569	1.155	508169	REC_WORD	20.294	n/a	FISH	OceanAnimals	5	1	[0, 0, 0]	n/a	catFR1	0	R1186P
503.724	3.78	509324	REC_WORD_VV	21.449	n/a	<>	n/a	-999	1	[0, 0, 0]	n/a	catFR1	0	R1186P
507.504	1.535	513104	REC_WORD	25.229	n/a	BOAT	n/a	-999	1	[0, 0, 0]	n/a	catFR1	0	R1186P
509.039	3.245	514639	REC_WORD_VV	26.764	n/a	<>	n/a	-999	1	[0, 0, 0]	n/a	catFR1	0	R1186P
512.284	21.934	517883	REC_END	n/a	n/a	n/a	n/a	-999	1	[0, 0, 0]	n/a	catFR1	0	R1186P
534.218	0.5	539816	TRIAL	n/a	n/a	n/a	n/a	-999	2	[0, 0, 0]	n/a	catFR1	0	R1186P
534.718	10.428	540316	COUNTDOWN_START	n/a	n/a	n/a	n/a	-999	2	[0, 0, 0]	n/a	catFR1	0	R1186P
545.146	0.007	550744	COUNTDOWN_END	n/a	n/a	n/a	n/a	-999	2	[0, 0, 0]	n/a	catFR1	0	R1186P
545.153	1.616	550751	ORIENT	n/a	n/a	n/a	n/a	-999	2	[0, 0, 0]	n/a	catFR1	0	R1186P
546.769	1.918	552367	ORIENT_OFF	n/a	n/a	n/a	n/a	-999	2	[0, 0, 0]	n/a	catFR1	0	R1186P
548.687	1.617	554285	WORD	n/a	wordpools/wordpool_categorized_EN.txt	CHICKEN	FarmAnimals	1	2	[0, 0, 0]	n/a	catFR1	0	R1186P
550.304	0.933	555902	WORD_OFF	n/a	n/a	CHICKEN	n/a	1	2	[0, 0, 0]	n/a	catFR1	0	R1186P
551.237	1.617	556834	WORD	n/a	wordpools/wordpool_categorized_EN.txt	GOAT	FarmAnimals	2	2	[0, 0, 0]	n/a	catFR1	0	R1186P
552.854	0.9	558451	WORD_OFF	n/a	n/a	GOAT	n/a	2	2	[0, 0, 0]	n/a	catFR1	0	R1186P
553.754	1.601	559351	WORD	n/a	wordpools/wordpool_categorized_EN.txt	LADLE	KitchenTools	3	2	[0, 0, 0]	n/a	catFR1	0	R1186P
555.355	0.983	560952	WORD_OFF	n/a	n/a	LADLE	n/a	3	2	[0, 0, 0]	n/a	catFR1	0	R1186P
556.338	1.617	561935	WORD	n/a	wordpools/wordpool_categorized_EN.txt	TONGS	KitchenTools	4	2	[0, 0, 0]	n/a	catFR1	0	R1186P
557.955	0.767	563552	WORD_OFF	n/a	n/a	TONGS	n/a	4	2	[0, 0, 0]	n/a	catFR1	0	R1186P
558.722	1.617	564319	WORD	n/a	wordpools/wordpool_categorized_EN.txt	OYSTER	OceanAnimals	5	2	[0, 0, 0]	n/a	catFR1	0	R1186P
560.339	0.934	565936	WORD_OFF	n/a	n/a	OYSTER	n/a	5	2	[0, 0, 0]	n/a	catFR1	0	R1186P
561.273	1.617	566870	WORD	n/a	wordpools/wordpool_categorized_EN.txt	CRAB	OceanAnimals	6	2	[0, 0, 0]	n/a	catFR1	0	R1186P
562.89	0.966	568487	WORD_OFF	n/a	n/a	CRAB	n/a	6	2	[0, 0, 0]	n/a	catFR1	0	R1186P
563.856	1.617	569453	WORD	n/a	wordpools/wordpool_categorized_EN.txt	CORKSCREW	KitchenTools	7	2	[0, 0, 0]	n/a	catFR1	0	R1186P
565.473	0.984	571070	WORD_OFF	n/a	n/a	CORKSCREW	n/a	7	2	[0, 0, 0]	n/a	catFR1	0	R1186P
566.457	1.617	572054	WORD	n/a	wordpools/wordpool_categorized_EN.txt	KNIFE	KitchenTools	8	2	[0, 0, 0]	n/a	catFR1	0	R1186P
568.074	0.833	573671	WORD_OFF	n/a	n/a	KNIFE	n/a	8	2	[0, 0, 0]	n/a	catFR1	0	R1186P
568.907	1.617	574504	WORD	n/a	wordpools/wordpool_categorized_EN.txt	HORSE	FarmAnimals	9	2	[0, 0, 0]	n/a	catFR1	0	R1186P
570.524	0.934	576121	WORD_OFF	n/a	n/a	HORSE	n/a	9	2	[0, 0, 0]	n/a	catFR1	0	R1186P
571.458	1.617	577054	WORD	n/a	wordpools/wordpool_categorized_EN.txt	CALF	FarmAnimals	10	2	[0, 0, 0]	n/a	catFR1	0	R1186P
573.075	0.95	578671	WORD_OFF	n/a	n/a	CALF	n/a	10	2	[0, 0, 0]	n/a	catFR1	0	R1186P
574.025	1.617	579621	WORD	n/a	wordpools/wordpool_categorized_EN.txt	SQUID	OceanAnimals	11	2	[0, 0, 0]	n/a	catFR1	0	R1186P
575.642	1.017	581238	WORD_OFF	n/a	n/a	SQUID	n/a	11	2	[0, 0, 0]	n/a	catFR1	0	R1186P
576.659	1.617	582255	WORD	n/a	wordpools/wordpool_categorized_EN.txt	LOBSTER	OceanAnimals	12	2	[0, 0, 0]	n/a	catFR1	0	R1186P
578.276	0.0	583872	ENCODING_END	n/a	n/a	n/a	n/a	-999	2	[0, 0, 0]	n/a	catFR1	0	R1186P
578.276	0.105	583872	WORD_OFF	n/a	n/a	LOBSTER	n/a	12	2	[0, 0, 0]	n/a	catFR1	0	R1186P
578.381	0.0	583977	DISTRACT_START	n/a	n/a	n/a	n/a	-999	2	[0, 0, 0]	n/a	catFR1	0	R1186P
578.381	0.011	583977	START	n/a	n/a	n/a	n/a	-999	2	[-999, -999, -999]	n/a	catFR1	0	R1186P
578.392	17.17	583988	PROB	17.144	n/a	n/a	n/a	-999	2	[7, 3, 7]	17.0	catFR1	0	R1186P
595.562	7.422	601157	PROB	7.422	n/a	n/a	n/a	-999	2	[3, 2, 1]	6.0	catFR1	0	R1186P
602.984	0.013	608579	STOP	n/a	n/a	n/a	n/a	-999	2	[-999, -999, -999]	n/a	catFR1	0	R1186P
602.997	0.533	608592	DISTRACT_END	n/a	n/a	n/a	n/a	-999	2	[0, 0, 0]	n/a	catFR1	0	R1186P
603.53	0.518	609125	RETRIEVAL_ORIENT	n/a	n/a	n/a	n/a	-999	2	[0, 0, 0]	n/a	catFR1	0	R1186P
604.048	15.185	609643	REC_START	n/a	n/a	n/a	n/a	-999	2	[0, 0, 0]	n/a	catFR1	0	R1186P
619.233	12.458	624827	REC_WORD_VV	15.185	n/a	<>	n/a	-999	2	[0, 0, 0]	n/a	catFR1	0	R1186P
631.691	2.366	637284	REC_WORD	27.643	n/a	CRAB	OceanAnimals	6	2	[0, 0, 0]	n/a	catFR1	0	R1186P
634.057	14.182	639650	REC_END	n/a	n/a	n/a	n/a	-999	2	[0, 0, 0]	n/a	catFR1	0	R1186P
648.239	0.5	653832	TRIAL	n/a	n/a	n/a	n/a	-999	3	[0, 0, 0]	n/a	catFR1	0	R1186P
648.739	10.428	654332	COUNTDOWN_START	n/a	n/a	n/a	n/a	-999	3	[0, 0, 0]	n/a	catFR1	0	R1186P
659.167	0.007	664759	COUNTDOWN_END	n/a	n/a	n/a	n/a	-999	3	[0, 0, 0]	n/a	catFR1	0	R1186P
659.174	1.616	664766	ORIENT	n/a	n/a	n/a	n/a	-999	3	[0, 0, 0]	n/a	catFR1	0	R1186P
660.79	2.018	666382	ORIENT_OFF	n/a	n/a	n/a	n/a	-999	3	[0, 0, 0]	n/a	catFR1	0	R1186P
662.808	1.617	668400	WORD	n/a	wordpools/wordpool_categorized_EN.txt	FOG	Weather	1	3	[0, 0, 0]	n/a	catFR1	0	R1186P
664.425	0.834	670017	WORD_OFF	n/a	n/a	FOG	n/a	1	3	[0, 0, 0]	n/a	catFR1	0	R1186P
665.259	1.617	670851	WORD	n/a	wordpools/wordpool_categorized_EN.txt	HUMIDITY	Weather	2	3	[0, 0, 0]	n/a	catFR1	0	R1186P
666.876	0.783	672468	WORD_OFF	n/a	n/a	HUMIDITY	n/a	2	3	[0, 0, 0]	n/a	catFR1	0	R1186P
667.659	1.617	673251	WORD	n/a	wordpools/wordpool_categorized_EN.txt	GNAT	Insects	3	3	[0, 0, 0]	n/a	catFR1	0	R1186P
669.276	0.934	674867	WORD_OFF	n/a	n/a	GNAT	n/a	3	3	[0, 0, 0]	n/a	catFR1	0	R1186P
670.21	1.617	675801	WORD	n/a	wordpools/wordpool_categorized_EN.txt	CRICKET	Insects	4	3	[0, 0, 0]	n/a	catFR1	0	R1186P
671.827	0.965	677418	WORD_OFF	n/a	n/a	CRICKET	n/a	4	3	[0, 0, 0]	n/a	catFR1	0	R1186P
672.792	1.602	678383	WORD	n/a	wordpools/wordpool_categorized_EN.txt	SPEAKER	Electronics	5	3	[0, 0, 0]	n/a	catFR1	0	R1186P
674.394	0.817	679985	WORD_OFF	n/a	n/a	SPEAKER	n/a	5	3	[0, 0, 0]	n/a	catFR1	0	R1186P
675.211	1.617	680802	WORD	n/a	wordpools/wordpool_categorized_EN.txt	MICROWAVE	Electronics	6	3	[0, 0, 0]	n/a	catFR1	0	R1186P
676.828	0.866	682419	WORD_OFF	n/a	n/a	MICROWAVE	n/a	6	3	[0, 0, 0]	n/a	catFR1	0	R1186P
677.694	1.617	683285	WORD	n/a	wordpools/wordpool_categorized_EN.txt	LIGHTNING	Weather	7	3	[0, 0, 0]	n/a	catFR1	0	R1186P
679.311	0.984	684902	WORD_OFF	n/a	n/a	LIGHTNING	n/a	7	3	[0, 0, 0]	n/a	catFR1	0	R1186P
680.295	1.617	685886	WORD	n/a	wordpools/wordpool_categorized_EN.txt	THUNDERSTORM	Weather	8	3	[0, 0, 0]	n/a	catFR1	0	R1186P
681.912	0.783	687503	WORD_OFF	n/a	n/a	THUNDERSTORM	n/a	8	3	[0, 0, 0]	n/a	catFR1	0	R1186P
682.695	1.617	688286	WORD	n/a	wordpools/wordpool_categorized_EN.txt	BUTTERFLY	Insects	9	3	[0, 0, 0]	n/a	catFR1	0	R1186P
684.312	0.867	689903	WORD_OFF	n/a	n/a	BUTTERFLY	n/a	9	3	[0, 0, 0]	n/a	catFR1	0	R1186P
685.179	1.617	690770	WORD	n/a	wordpools/wordpool_categorized_EN.txt	BEETLE	Insects	10	3	[0, 0, 0]	n/a	catFR1	0	R1186P
686.796	0.966	692387	WORD_OFF	n/a	n/a	BEETLE	n/a	10	3	[0, 0, 0]	n/a	catFR1	0	R1186P
687.762	1.618	693353	WORD	n/a	wordpools/wordpool_categorized_EN.txt	RADIO	Electronics	11	3	[0, 0, 0]	n/a	catFR1	0	R1186P
689.38	1.017	694970	WORD_OFF	n/a	n/a	RADIO	n/a	11	3	[0, 0, 0]	n/a	catFR1	0	R1186P
690.397	1.617	695987	WORD	n/a	wordpools/wordpool_categorized_EN.txt	PRINTER	Electronics	12	3	[0, 0, 0]	n/a	catFR1	0	R1186P
692.014	0.0	697604	ENCODING_END	n/a	n/a	n/a	n/a	-999	3	[0, 0, 0]	n/a	catFR1	0	R1186P
692.014	0.105	697604	WORD_OFF	n/a	n/a	PRINTER	n/a	12	3	[0, 0, 0]	n/a	catFR1	0	R1186P
692.119	0.001	697709	DISTRACT_START	n/a	n/a	n/a	n/a	-999	3	[0, 0, 0]	n/a	catFR1	0	R1186P
692.12	0.011	697710	START	n/a	n/a	n/a	n/a	-999	3	[-999, -999, -999]	n/a	catFR1	0	R1186P
692.131	9.385	697721	PROB	9.349	n/a	n/a	n/a	-999	3	[1, 5, 4]	10.0	catFR1	0	R1186P
701.516	21.243	707106	PROB	21.243	n/a	n/a	n/a	-999	3	[3, 9, 7]	19.0	catFR1	0	R1186P
722.759	0.01	728348	STOP	n/a	n/a	n/a	n/a	-999	3	[-999, -999, -999]	n/a	catFR1	0	R1186P
722.769	0.551	728358	DISTRACT_END	n/a	n/a	n/a	n/a	-999	3	[0, 0, 0]	n/a	catFR1	0	R1186P
723.32	0.517	728909	RETRIEVAL_ORIENT	n/a	n/a	n/a	n/a	-999	3	[0, 0, 0]	n/a	catFR1	0	R1186P
723.837	3.052	729426	REC_START	n/a	n/a	n/a	n/a	-999	3	[0, 0, 0]	n/a	catFR1	0	R1186P
726.889	4.22	732478	REC_WORD_VV	3.052	n/a	<>	n/a	-999	3	[0, 0, 0]	n/a	catFR1	0	R1186P
731.109	7.944	736697	REC_WORD	7.272	n/a	CHICKEN	n/a	-999	3	[0, 0, 0]	n/a	catFR1	0	R1186P
739.053	0.881	744641	REC_WORD_VV	15.216	n/a	<>	n/a	-999	3	[0, 0, 0]	n/a	catFR1	0	R1186P
739.934	0.145	745522	REC_WORD_VV	16.097	n/a	<>	n/a	-999	3	[0, 0, 0]	n/a	catFR1	0	R1186P
740.079	2.976	745667	REC_WORD	16.242	n/a	CROWD	n/a	-999	3	[0, 0, 0]	n/a	catFR1	0	R1186P
743.055	10.794	748643	REC_WORD_VV	19.218	n/a	<>	n/a	-999	3	[0, 0, 0]	n/a	catFR1	0	R1186P
753.849	30.032	759436	REC_END	n/a	n/a	n/a	n/a	-999	3	[0, 0, 0]	n/a	catFR1	0	R1186P
783.881	0.5	789467	TRIAL	n/a	n/a	n/a	n/a	-999	4	[0, 0, 0]	n/a	catFR1	0	R1186P
784.381	10.428	789967	COUNTDOWN_START	n/a	n/a	n/a	n/a	-999	4	[0, 0, 0]	n/a	catFR1	0	R1186P
794.809	0.007	800394	COUNTDOWN_END	n/a	n/a	n/a	n/a	-999	4	[0, 0, 0]	n/a	catFR1	0	R1186P
794.816	1.618	800401	ORIENT	n/a	n/a	n/a	n/a	-999	4	[0, 0, 0]	n/a	catFR1	0	R1186P
796.434	2.017	802019	ORIENT_OFF	n/a	n/a	n/a	n/a	-999	4	[0, 0, 0]	n/a	catFR1	0	R1186P
798.451	1.616	804036	WORD	n/a	wordpools/wordpool_categorized_EN.txt	FORK	KitchenTools	1	4	[0, 0, 0]	n/a	catFR1	0	R1186P
800.067	0.784	805652	WORD_OFF	n/a	n/a	FORK	n/a	1	4	[0, 0, 0]	n/a	catFR1	0	R1186P
800.851	1.617	806436	WORD	n/a	wordpools/wordpool_categorized_EN.txt	SPOON	KitchenTools	2	4	[0, 0, 0]	n/a	catFR1	0	R1186P
802.468	0.917	808053	WORD_OFF	n/a	n/a	SPOON	n/a	2	4	[0, 0, 0]	n/a	catFR1	0	R1186P
803.385	1.617	808970	WORD	n/a	wordpools/wordpool_categorized_EN.txt	COBBLER	Desserts	3	4	[0, 0, 0]	n/a	catFR1	0	R1186P
805.002	1.0	810587	WORD_OFF	n/a	n/a	COBBLER	n/a	3	4	[0, 0, 0]	n/a	catFR1	0	R1186P
806.002	1.617	811587	WORD	n/a	wordpools/wordpool_categorized_EN.txt	CUPCAKE	Desserts	4	4	[0, 0, 0]	n/a	catFR1	0	R1186P
807.619	0.8	813203	WORD_OFF	n/a	n/a	CUPCAKE	n/a	4	4	[0, 0, 0]	n/a	catFR1	0	R1186P
808.419	1.617	814003	WORD	n/a	wordpools/wordpool_categorized_EN.txt	SHOVEL	Tools	5	4	[0, 0, 0]	n/a	catFR1	0	R1186P
810.036	0.867	815620	WORD_OFF	n/a	n/a	SHOVEL	n/a	5	4	[0, 0, 0]	n/a	catFR1	0	R1186P
810.903	1.617	816487	WORD	n/a	wordpools/wordpool_categorized_EN.txt	WRENCH	Tools	6	4	[0, 0, 0]	n/a	catFR1	0	R1186P
812.52	0.817	818104	WORD_OFF	n/a	n/a	WRENCH	n/a	6	4	[0, 0, 0]	n/a	catFR1	0	R1186P
813.337	1.617	818921	WORD	n/a	wordpools/wordpool_categorized_EN.txt	SPATULA	KitchenTools	7	4	[0, 0, 0]	n/a	catFR1	0	R1186P
814.954	0.85	820538	WORD_OFF	n/a	n/a	SPATULA	n/a	7	4	[0, 0, 0]	n/a	catFR1	0	R1186P
815.804	1.617	821388	WORD	n/a	wordpools/wordpool_categorized_EN.txt	STRAINER	KitchenTools	8	4	[0, 0, 0]	n/a	catFR1	0	R1186P
817.421	0.883	823005	WORD_OFF	n/a	n/a	STRAINER	n/a	8	4	[0, 0, 0]	n/a	catFR1	0	R1186P
818.304	1.617	823888	WORD	n/a	wordpools/wordpool_categorized_EN.txt	CHEESECAKE	Desserts	9	4	[0, 0, 0]	n/a	catFR1	0	R1186P
819.921	0.933	825505	WORD_OFF	n/a	n/a	CHEESECAKE	n/a	9	4	[0, 0, 0]	n/a	catFR1	0	R1186P
820.854	1.618	826438	WORD	n/a	wordpools/wordpool_categorized_EN.txt	BROWNIES	Desserts	10	4	[0, 0, 0]	n/a	catFR1	0	R1186P
822.472	0.866	828056	WORD_OFF	n/a	n/a	BROWNIES	n/a	10	4	[0, 0, 0]	n/a	catFR1	0	R1186P
823.338	1.617	828922	WORD	n/a	wordpools/wordpool_categorized_EN.txt	SCREWDRIVER	Tools	11	4	[0, 0, 0]	n/a	catFR1	0	R1186P
824.955	0.934	830539	WORD_OFF	n/a	n/a	SCREWDRIVER	n/a	11	4	[0, 0, 0]	n/a	catFR1	0	R1186P
825.889	1.617	831472	WORD	n/a	wordpools/wordpool_categorized_EN.txt	SAW	Tools	12	4	[0, 0, 0]	n/a	catFR1	0	R1186P
827.506	0.0	833089	ENCODING_END	n/a	n/a	n/a	n/a	-999	4	[0, 0, 0]	n/a	catFR1	0	R1186P
827.506	0.135	833089	WORD_OFF	n/a	n/a	SAW	n/a	12	4	[0, 0, 0]	n/a	catFR1	0	R1186P
827.641	0.0	833224	DISTRACT_START	n/a	n/a	n/a	n/a	-999	4	[0, 0, 0]	n/a	catFR1	0	R1186P
827.641	0.015	833224	START	n/a	n/a	n/a	n/a	-999	4	[-999, -999, -999]	n/a	catFR1	0	R1186P
827.656	15.886	833239	PROB	15.848	n/a	n/a	n/a	-999	4	[9, 7, 4]	20.0	catFR1	0	R1186P
843.542	14.658	849125	PROB	14.658	n/a	n/a	n/a	-999	4	[3, 4, 7]	14.0	catFR1	0	R1186P
858.2	0.012	863782	STOP	n/a	n/a	n/a	n/a	-999	4	[-999, -999, -999]	n/a	catFR1	0	R1186P
858.212	0.565	863794	DISTRACT_END	n/a	n/a	n/a	n/a	-999	4	[0, 0, 0]	n/a	catFR1	0	R1186P
858.777	0.519	864359	RETRIEVAL_ORIENT	n/a	n/a	n/a	n/a	-999	4	[0, 0, 0]	n/a	catFR1	0	R1186P
859.296	1.413	864878	REC_START	n/a	n/a	n/a	n/a	-999	4	[0, 0, 0]	n/a	catFR1	0	R1186P
860.709	2.729	866291	REC_WORD_VV	1.413	n/a	<>	n/a	-999	4	[0, 0, 0]	n/a	catFR1	0	R1186P
863.438	0.814	869020	REC_WORD_VV	4.142	n/a	<>	n/a	-999	4	[0, 0, 0]	n/a	catFR1	0	R1186P
864.252	1.978	869834	REC_WORD	4.956	n/a	CUPCAKE	Desserts	4	4	[0, 0, 0]	n/a	catFR1	0	R1186P
866.23	2.75	871811	REC_WORD	6.934	n/a	BROWNIES	Desserts	10	4	[0, 0, 0]	n/a	catFR1	0	R1186P
868.98	2.002	874561	REC_WORD_VV	9.684	n/a	<>	n/a	-999	4	[0, 0, 0]	n/a	catFR1	0	R1186P
870.982	1.0	876563	REC_WORD	11.686	n/a	SPOON	KitchenTools	2	4	[0, 0, 0]	n/a	catFR1	0	R1186P
871.982	1.877	877563	REC_WORD_VV	12.686	n/a	<>	n/a	-999	4	[0, 0, 0]	n/a	catFR1	0	R1186P
873.859	1.0	879440	REC_WORD_VV	14.563	n/a	<>	n/a	-999	4	[0, 0, 0]	n/a	catFR1	0	R1186P
874.859	6.932	880440	REC_WORD_VV	15.563	n/a	<>	n/a	-999	4	[0, 0, 0]	n/a	catFR1	0	R1186P
881.791	2.932	887372	REC_WORD_VV	22.495	n/a	<>	n/a	-999	4	[0, 0, 0]	n/a	catFR1	0	R1186P
884.723	4.583	890303	REC_WORD_VV	25.427	n/a	<>	n/a	-999	4	[0, 0, 0]	n/a	catFR1	0	R1186P
889.306	8.063	894886	REC_END	n/a	n/a	n/a	n/a	-999	4	[0, 0, 0]	n/a	catFR1	0	R1186P
897.369	0.5	902949	TRIAL	n/a	n/a	n/a	n/a	-999	5	[0, 0, 0]	n/a	catFR1	0	R1186P
897.869	10.428	903449	COUNTDOWN_START	n/a	n/a	n/a	n/a	-999	5	[0, 0, 0]	n/a	catFR1	0	R1186P
908.297	0.008	913876	COUNTDOWN_END	n/a	n/a	n/a	n/a	-999	5	[0, 0, 0]	n/a	catFR1	0	R1186P
908.305	1.616	913884	ORIENT	n/a	n/a	n/a	n/a	-999	5	[0, 0, 0]	n/a	catFR1	0	R1186P
909.921	2.134	915500	ORIENT_OFF	n/a	n/a	n/a	n/a	-999	5	[0, 0, 0]	n/a	catFR1	0	R1186P
912.055	1.617	917634	WORD	n/a	wordpools/wordpool_categorized_EN.txt	EYE	BodyParts	1	5	[0, 0, 0]	n/a	catFR1	0	R1186P
913.672	0.884	919251	WORD_OFF	n/a	n/a	EYE	n/a	1	5	[0, 0, 0]	n/a	catFR1	0	R1186P
914.556	1.617	920135	WORD	n/a	wordpools/wordpool_categorized_EN.txt	LEG	BodyParts	2	5	[0, 0, 0]	n/a	catFR1	0	R1186P
916.173	0.983	921752	WORD_OFF	n/a	n/a	LEG	n/a	2	5	[0, 0, 0]	n/a	catFR1	0	R1186P
917.156	1.616	922735	WORD	n/a	wordpools/wordpool_categorized_EN.txt	HAMMER	Tools	3	5	[0, 0, 0]	n/a	catFR1	0	R1186P
918.772	0.801	924351	WORD_OFF	n/a	n/a	HAMMER	n/a	3	5	[0, 0, 0]	n/a	catFR1	0	R1186P
919.573	1.617	925152	WORD	n/a	wordpools/wordpool_categorized_EN.txt	SANDER	Tools	4	5	[0, 0, 0]	n/a	catFR1	0	R1186P
921.19	0.967	926769	WORD_OFF	n/a	n/a	SANDER	n/a	4	5	[0, 0, 0]	n/a	catFR1	0	R1186P
922.157	1.616	927736	WORD	n/a	wordpools/wordpool_categorized_EN.txt	MONKEY	Zoo	5	5	[0, 0, 0]	n/a	catFR1	0	R1186P
923.773	1.0	929352	WORD_OFF	n/a	n/a	MONKEY	n/a	5	5	[0, 0, 0]	n/a	catFR1	0	R1186P
924.773	1.618	930351	WORD	n/a	wordpools/wordpool_categorized_EN.txt	CHIMPANZEE	Zoo	6	5	[0, 0, 0]	n/a	catFR1	0	R1186P
926.391	0.867	931969	WORD_OFF	n/a	n/a	CHIMPANZEE	n/a	6	5	[0, 0, 0]	n/a	catFR1	0	R1186P
927.258	1.617	932836	WORD	n/a	wordpools/wordpool_categorized_EN.txt	HAND	BodyParts	7	5	[0, 0, 0]	n/a	catFR1	0	R1186P
928.875	0.899	934453	WORD_OFF	n/a	n/a	HAND	n/a	7	5	[0, 0, 0]	n/a	catFR1	0	R1186P
929.774	1.618	935352	WORD	n/a	wordpools/wordpool_categorized_EN.txt	FOOT	BodyParts	8	5	[0, 0, 0]	n/a	catFR1	0	R1186P
931.392	0.934	936970	WORD_OFF	n/a	n/a	FOOT	n/a	8	5	[0, 0, 0]	n/a	catFR1	0	R1186P
932.326	1.617	937904	WORD	n/a	wordpools/wordpool_categorized_EN.txt	PLIERS	Tools	9	5	[0, 0, 0]	n/a	catFR1	0	R1186P
933.943	0.816	939521	WORD_OFF	n/a	n/a	PLIERS	n/a	9	5	[0, 0, 0]	n/a	catFR1	0	R1186P
934.759	1.617	940337	WORD	n/a	wordpools/wordpool_categorized_EN.txt	CROWBAR	Tools	10	5	[0, 0, 0]	n/a	catFR1	0	R1186P
936.376	0.884	941954	WORD_OFF	n/a	n/a	CROWBAR	n/a	10	5	[0, 0, 0]	n/a	catFR1	0	R1186P
937.26	1.617	942838	WORD	n/a	wordpools/wordpool_categorized_EN.txt	GORILLA	Zoo	11	5	[0, 0, 0]	n/a	catFR1	0	R1186P
938.877	0.933	944455	WORD_OFF	n/a	n/a	GORILLA	n/a	11	5	[0, 0, 0]	n/a	catFR1	0	R1186P
939.81	1.617	945388	WORD	n/a	wordpools/wordpool_categorized_EN.txt	PANDA	Zoo	12	5	[0, 0, 0]	n/a	catFR1	0	R1186P
941.427	0.001	947005	WORD_OFF	n/a	n/a	PANDA	n/a	12	5	[0, 0, 0]	n/a	catFR1	0	R1186P
941.428	0.103	947006	ENCODING_END	n/a	n/a	n/a	n/a	-999	5	[0, 0, 0]	n/a	catFR1	0	R1186P
941.531	0.0	947109	DISTRACT_START	n/a	n/a	n/a	n/a	-999	5	[0, 0, 0]	n/a	catFR1	0	R1186P
941.531	0.013	947109	START	n/a	n/a	n/a	n/a	-999	5	[-999, -999, -999]	n/a	catFR1	0	R1186P
941.544	8.118	947122	PROB	8.096	n/a	n/a	n/a	-999	5	[1, 4, 4]	9.0	catFR1	0	R1186P
949.662	16.266	955239	PROB	16.266	n/a	n/a	n/a	-999	5	[9, 6, 4]	16.0	catFR1	0	R1186P
965.928	0.021	971504	STOP	n/a	n/a	n/a	n/a	-999	5	[-999, -999, -999]	n/a	catFR1	0	R1186P
965.949	0.533	971525	DISTRACT_END	n/a	n/a	n/a	n/a	-999	5	[0, 0, 0]	n/a	catFR1	0	R1186P
966.482	0.517	972058	RETRIEVAL_ORIENT	n/a	n/a	n/a	n/a	-999	5	[0, 0, 0]	n/a	catFR1	0	R1186P
966.999	3.534	972575	REC_START	n/a	n/a	n/a	n/a	-999	5	[0, 0, 0]	n/a	catFR1	0	R1186P
970.533	6.118	976109	REC_WORD_VV	3.534	n/a	<>	n/a	-999	5	[0, 0, 0]	n/a	catFR1	0	R1186P
976.651	1.291	982227	REC_WORD_VV	9.652	n/a	<>	n/a	-999	5	[0, 0, 0]	n/a	catFR1	0	R1186P
977.942	1.0	983518	REC_WORD_VV	10.943	n/a	<>	n/a	-999	5	[0, 0, 0]	n/a	catFR1	0	R1186P
978.942	1.238	984518	REC_WORD_VV	11.943	n/a	<>	n/a	-999	5	[0, 0, 0]	n/a	catFR1	0	R1186P
980.18	4.625	985756	REC_WORD_VV	13.181	n/a	<>	n/a	-999	5	[0, 0, 0]	n/a	catFR1	0	R1186P
984.805	12.206	990380	REC_WORD_VV	17.806	n/a	<>	n/a	-999	5	[0, 0, 0]	n/a	catFR1	0	R1186P
997.011	18.064	1002586	REC_END	n/a	n/a	n/a	n/a	-999	5	[0, 0, 0]	n/a	catFR1	0	R1186P
1015.075	0.5	1020649	TRIAL	n/a	n/a	n/a	n/a	-999	6	[0, 0, 0]	n/a	catFR1	0	R1186P
1015.575	10.428	1021149	COUNTDOWN_START	n/a	n/a	n/a	n/a	-999	6	[0, 0, 0]	n/a	catFR1	0	R1186P
1026.003	0.007	1031576	COUNTDOWN_END	n/a	n/a	n/a	n/a	-999	6	[0, 0, 0]	n/a	catFR1	0	R1186P
1026.01	1.617	1031583	ORIENT	n/a	n/a	n/a	n/a	-999	6	[0, 0, 0]	n/a	catFR1	0	R1186P
1027.627	1.934	1033200	ORIENT_OFF	n/a	n/a	n/a	n/a	-999	6	[0, 0, 0]	n/a	catFR1	0	R1186P
1029.561	1.617	1035134	WORD	n/a	wordpools/wordpool_categorized_EN.txt	AXE	Tools	1	6	[0, 0, 0]	n/a	catFR1	0	R1186P
1031.178	0.85	1036751	WORD_OFF	n/a	n/a	AXE	n/a	1	6	[0, 0, 0]	n/a	catFR1	0	R1186P
1032.028	1.617	1037601	WORD	n/a	wordpools/wordpool_categorized_EN.txt	DRILL	Tools	2	6	[0, 0, 0]	n/a	catFR1	0	R1186P
1033.645	0.9	1039218	WORD_OFF	n/a	n/a	DRILL	n/a	2	6	[0, 0, 0]	n/a	catFR1	0	R1186P
1034.545	1.617	1040118	WORD	n/a	wordpools/wordpool_categorized_EN.txt	APPLE	Fruit	3	6	[0, 0, 0]	n/a	catFR1	0	R1186P
1036.162	0.833	1041735	WORD_OFF	n/a	n/a	APPLE	n/a	3	6	[0, 0, 0]	n/a	catFR1	0	R1186P
1036.995	1.617	1042568	WORD	n/a	wordpools/wordpool_categorized_EN.txt	ORANGE	Fruit	4	6	[0, 0, 0]	n/a	catFR1	0	R1186P
1038.612	0.784	1044185	WORD_OFF	n/a	n/a	ORANGE	n/a	4	6	[0, 0, 0]	n/a	catFR1	0	R1186P
1039.396	1.617	1044969	WORD	n/a	wordpools/wordpool_categorized_EN.txt	CELLO	Instruments	5	6	[0, 0, 0]	n/a	catFR1	0	R1186P
1041.013	0.817	1046586	WORD_OFF	n/a	n/a	CELLO	n/a	5	6	[0, 0, 0]	n/a	catFR1	0	R1186P
1041.83	1.617	1047402	WORD	n/a	wordpools/wordpool_categorized_EN.txt	DRUM	Instruments	6	6	[0, 0, 0]	n/a	catFR1	0	R1186P
1043.447	0.766	1049019	WORD_OFF	n/a	n/a	DRUM	n/a	6	6	[0, 0, 0]	n/a	catFR1	0	R1186P
1044.213	1.617	1049785	WORD	n/a	wordpools/wordpool_categorized_EN.txt	RATCHET	Tools	7	6	[0, 0, 0]	n/a	catFR1	0	R1186P
1045.83	0.817	1051402	WORD_OFF	n/a	n/a	RATCHET	n/a	7	6	[0, 0, 0]	n/a	catFR1	0	R1186P
1046.647	1.617	1052219	WORD	n/a	wordpools/wordpool_categorized_EN.txt	LEVEL	Tools	8	6	[0, 0, 0]	n/a	catFR1	0	R1186P
1048.264	0.867	1053836	WORD_OFF	n/a	n/a	LEVEL	n/a	8	6	[0, 0, 0]	n/a	catFR1	0	R1186P
1049.131	1.617	1054703	WORD	n/a	wordpools/wordpool_categorized_EN.txt	LIME	Fruit	9	6	[0, 0, 0]	n/a	catFR1	0	R1186P
1050.748	0.933	1056320	WORD_OFF	n/a	n/a	LIME	n/a	9	6	[0, 0, 0]	n/a	catFR1	0	R1186P
1051.681	1.617	1057253	WORD	n/a	wordpools/wordpool_categorized_EN.txt	GRAPE	Fruit	10	6	[0, 0, 0]	n/a	catFR1	0	R1186P
1053.298	1.017	1058870	WORD_OFF	n/a	n/a	GRAPE	n/a	10	6	[0, 0, 0]	n/a	catFR1	0	R1186P
1054.315	1.617	1059887	WORD	n/a	wordpools/wordpool_categorized_EN.txt	GUITAR	Instruments	11	6	[0, 0, 0]	n/a	catFR1	0	R1186P
1055.932	0.984	1061504	WORD_OFF	n/a	n/a	GUITAR	n/a	11	6	[0, 0, 0]	n/a	catFR1	0	R1186P
1056.916	1.617	1062488	WORD	n/a	wordpools/wordpool_categorized_EN.txt	TROMBONE	Instruments	12	6	[0, 0, 0]	n/a	catFR1	0	R1186P
1058.533	0.0	1064105	ENCODING_END	n/a	n/a	n/a	n/a	-999	6	[0, 0, 0]	n/a	catFR1	0	R1186P
1058.533	0.136	1064105	WORD_OFF	n/a	n/a	TROMBONE	n/a	12	6	[0, 0, 0]	n/a	catFR1	0	R1186P
1058.669	0.0	1064241	DISTRACT_START	n/a	n/a	n/a	n/a	-999	6	[0, 0, 0]	n/a	catFR1	0	R1186P
1058.669	0.014	1064241	START	n/a	n/a	n/a	n/a	-999	6	[-999, -999, -999]	n/a	catFR1	0	R1186P
1058.683	12.101	1064255	PROB	12.067	n/a	n/a	n/a	-999	6	[2, 4, 5]	11.0	catFR1	0	R1186P
1070.784	12.056	1076355	PROB	12.056	n/a	n/a	n/a	-999	6	[3, 4, 9]	16.0	catFR1	0	R1186P
1082.84	0.014	1088410	STOP	n/a	n/a	n/a	n/a	-999	6	[-999, -999, -999]	n/a	catFR1	0	R1186P
1082.854	0.617	1088424	DISTRACT_END	n/a	n/a	n/a	n/a	-999	6	[0, 0, 0]	n/a	catFR1	0	R1186P
1083.471	0.517	1089041	RETRIEVAL_ORIENT	n/a	n/a	n/a	n/a	-999	6	[0, 0, 0]	n/a	catFR1	0	R1186P
1083.988	2.447	1089558	REC_START	n/a	n/a	n/a	n/a	-999	6	[0, 0, 0]	n/a	catFR1	0	R1186P
1086.435	2.654	1092005	REC_WORD_VV	2.447	n/a	<>	n/a	-999	6	[0, 0, 0]	n/a	catFR1	0	R1186P
1089.089	1.524	1094659	REC_WORD	5.101	n/a	DRUM	Instruments	6	6	[0, 0, 0]	n/a	catFR1	0	R1186P
1090.613	2.839	1096183	REC_WORD	6.625	n/a	GUITAR	Instruments	11	6	[0, 0, 0]	n/a	catFR1	0	R1186P
1093.452	1.326	1099022	REC_WORD_VV	9.464	n/a	<>	n/a	-999	6	[0, 0, 0]	n/a	catFR1	0	R1186P
1094.778	7.941	1100348	REC_WORD	10.79	n/a	TROMBONE	Instruments	12	6	[0, 0, 0]	n/a	catFR1	0	R1186P
1102.719	1.0	1108288	REC_WORD_VV	18.731	n/a	<>	n/a	-999	6	[0, 0, 0]	n/a	catFR1	0	R1186P
1103.719	10.281	1109288	REC_WORD_VV	19.731	n/a	<>	n/a	-999	6	[0, 0, 0]	n/a	catFR1	0	R1186P
1114.0	9.812	1119569	REC_END	n/a	n/a	n/a	n/a	-999	6	[0, 0, 0]	n/a	catFR1	0	R1186P
1123.812	0.5	1129380	TRIAL	n/a	n/a	n/a	n/a	-999	7	[0, 0, 0]	n/a	catFR1	0	R1186P
1124.312	10.428	1129880	COUNTDOWN_START	n/a	n/a	n/a	n/a	-999	7	[0, 0, 0]	n/a	catFR1	0	R1186P
1134.74	0.007	1140308	COUNTDOWN_END	n/a	n/a	n/a	n/a	-999	7	[0, 0, 0]	n/a	catFR1	0	R1186P
1134.747	1.617	1140315	ORIENT	n/a	n/a	n/a	n/a	-999	7	[0, 0, 0]	n/a	catFR1	0	R1186P
1136.364	2.0	1141932	ORIENT_OFF	n/a	n/a	n/a	n/a	-999	7	[0, 0, 0]	n/a	catFR1	0	R1186P
1138.364	1.617	1143932	WORD	n/a	wordpools/wordpool_categorized_EN.txt	ROACH	Insects	1	7	[0, 0, 0]	n/a	catFR1	0	R1186P
1139.981	0.867	1145548	WORD_OFF	n/a	n/a	ROACH	n/a	1	7	[0, 0, 0]	n/a	catFR1	0	R1186P
1140.848	1.617	1146415	WORD	n/a	wordpools/wordpool_categorized_EN.txt	ANT	Insects	2	7	[0, 0, 0]	n/a	catFR1	0	R1186P
1142.465	0.784	1148032	WORD_OFF	n/a	n/a	ANT	n/a	2	7	[0, 0, 0]	n/a	catFR1	0	R1186P
1143.249	1.617	1148816	WORD	n/a	wordpools/wordpool_categorized_EN.txt	CUCUMBER	Vegetables	3	7	[0, 0, 0]	n/a	catFR1	0	R1186P
1144.866	0.983	1150433	WORD_OFF	n/a	n/a	CUCUMBER	n/a	3	7	[0, 0, 0]	n/a	catFR1	0	R1186P
1145.849	1.617	1151416	WORD	n/a	wordpools/wordpool_categorized_EN.txt	ONION	Vegetables	4	7	[0, 0, 0]	n/a	catFR1	0	R1186P
1147.466	0.767	1153033	WORD_OFF	n/a	n/a	ONION	n/a	4	7	[0, 0, 0]	n/a	catFR1	0	R1186P
1148.233	1.617	1153800	WORD	n/a	wordpools/wordpool_categorized_EN.txt	TUBA	Instruments	5	7	[0, 0, 0]	n/a	catFR1	0	R1186P
1149.85	0.833	1155417	WORD_OFF	n/a	n/a	TUBA	n/a	5	7	[0, 0, 0]	n/a	catFR1	0	R1186P
1150.683	1.617	1156250	WORD	n/a	wordpools/wordpool_categorized_EN.txt	ORGAN	Instruments	6	7	[0, 0, 0]	n/a	catFR1	0	R1186P
1152.3	0.817	1157867	WORD_OFF	n/a	n/a	ORGAN	n/a	6	7	[0, 0, 0]	n/a	catFR1	0	R1186P
1153.117	1.617	1158684	WORD	n/a	wordpools/wordpool_categorized_EN.txt	FLY	Insects	7	7	[0, 0, 0]	n/a	catFR1	0	R1186P
1154.734	0.834	1160301	WORD_OFF	n/a	n/a	FLY	n/a	7	7	[0, 0, 0]	n/a	catFR1	0	R1186P
1155.568	1.617	1161135	WORD	n/a	wordpools/wordpool_categorized_EN.txt	LADYBUG	Insects	8	7	[0, 0, 0]	n/a	catFR1	0	R1186P
1157.185	0.8	1162752	WORD_OFF	n/a	n/a	LADYBUG	n/a	8	7	[0, 0, 0]	n/a	catFR1	0	R1186P
1157.985	1.617	1163552	WORD	n/a	wordpools/wordpool_categorized_EN.txt	CELERY	Vegetables	9	7	[0, 0, 0]	n/a	catFR1	0	R1186P
1159.602	0.833	1165168	WORD_OFF	n/a	n/a	CELERY	n/a	9	7	[0, 0, 0]	n/a	catFR1	0	R1186P
1160.435	1.617	1166001	WORD	n/a	wordpools/wordpool_categorized_EN.txt	BROCCOLI	Vegetables	10	7	[0, 0, 0]	n/a	catFR1	0	R1186P
1162.052	0.834	1167618	WORD_OFF	n/a	n/a	BROCCOLI	n/a	10	7	[0, 0, 0]	n/a	catFR1	0	R1186P
1162.886	1.617	1168452	WORD	n/a	wordpools/wordpool_categorized_EN.txt	VIOLIN	Instruments	11	7	[0, 0, 0]	n/a	catFR1	0	R1186P
1164.503	0.8	1170069	WORD_OFF	n/a	n/a	VIOLIN	n/a	11	7	[0, 0, 0]	n/a	catFR1	0	R1186P
1165.303	1.617	1170869	WORD	n/a	wordpools/wordpool_categorized_EN.txt	FLUTE	Instruments	12	7	[0, 0, 0]	n/a	catFR1	0	R1186P
1166.92	0.0	1172486	ENCODING_END	n/a	n/a	n/a	n/a	-999	7	[0, 0, 0]	n/a	catFR1	0	R1186P
1166.92	0.133	1172486	WORD_OFF	n/a	n/a	FLUTE	n/a	12	7	[0, 0, 0]	n/a	catFR1	0	R1186P
1167.053	0.0	1172619	DISTRACT_START	n/a	n/a	n/a	n/a	-999	7	[0, 0, 0]	n/a	catFR1	0	R1186P
1167.053	0.017	1172619	START	n/a	n/a	n/a	n/a	-999	7	[-999, -999, -999]	n/a	catFR1	0	R1186P
1167.07	12.969	1172636	PROB	12.93	n/a	n/a	n/a	-999	7	[9, 3, 4]	16.0	catFR1	0	R1186P
1180.039	18.544	1185604	PROB	18.544	n/a	n/a	n/a	-999	7	[8, 2, 6]	16.0	catFR1	0	R1186P
1198.583	0.01	1204147	STOP	n/a	n/a	n/a	n/a	-999	7	[-999, -999, -999]	n/a	catFR1	0	R1186P
1198.593	0.599	1204157	DISTRACT_END	n/a	n/a	n/a	n/a	-999	7	[0, 0, 0]	n/a	catFR1	0	R1186P
1199.192	0.518	1204756	RETRIEVAL_ORIENT	n/a	n/a	n/a	n/a	-999	7	[0, 0, 0]	n/a	catFR1	0	R1186P
1199.71	2.639	1205274	REC_START	n/a	n/a	n/a	n/a	-999	7	[0, 0, 0]	n/a	catFR1	0	R1186P
1202.349	1.605	1207913	REC_WORD_VV	2.639	n/a	<>	n/a	-999	7	[0, 0, 0]	n/a	catFR1	0	R1186P
1203.954	2.146	1209518	REC_WORD	4.244	n/a	BROCCOLI	Vegetables	10	7	[0, 0, 0]	n/a	catFR1	0	R1186P
1206.1	7.879	1211664	REC_WORD_VV	6.39	n/a	<>	n/a	-999	7	[0, 0, 0]	n/a	catFR1	0	R1186P
1213.979	3.056	1219543	REC_WORD	14.269	n/a	MINE	n/a	-999	7	[0, 0, 0]	n/a	catFR1	0	R1186P
1217.035	6.955	1222599	REC_WORD_VV	17.325	n/a	<>	n/a	-999	7	[0, 0, 0]	n/a	catFR1	0	R1186P
1223.99	1.0	1229553	REC_WORD_VV	24.28	n/a	<>	n/a	-999	7	[0, 0, 0]	n/a	catFR1	0	R1186P
1224.99	1.0	1230553	REC_WORD_VV	25.28	n/a	<>	n/a	-999	7	[0, 0, 0]	n/a	catFR1	0	R1186P
1225.99	1.296	1231553	REC_WORD_VV	26.28	n/a	<>	n/a	-999	7	[0, 0, 0]	n/a	catFR1	0	R1186P
1227.286	1.0	1232849	REC_WORD_VV	27.576	n/a	<>	n/a	-999	7	[0, 0, 0]	n/a	catFR1	0	R1186P
1228.286	1.435	1233849	REC_WORD_VV	28.576	n/a	<>	n/a	-999	7	[0, 0, 0]	n/a	catFR1	0	R1186P
1229.721	15.33	1235284	REC_END	n/a	n/a	n/a	n/a	-999	7	[0, 0, 0]	n/a	catFR1	0	R1186P
1245.051	0.5	1250613	TRIAL	n/a	n/a	n/a	n/a	-999	8	[0, 0, 0]	n/a	catFR1	0	R1186P
1245.551	10.428	1251113	COUNTDOWN_START	n/a	n/a	n/a	n/a	-999	8	[0, 0, 0]	n/a	catFR1	0	R1186P
1255.979	0.007	1261541	COUNTDOWN_END	n/a	n/a	n/a	n/a	-999	8	[0, 0, 0]	n/a	catFR1	0	R1186P
1255.986	1.618	1261548	ORIENT	n/a	n/a	n/a	n/a	-999	8	[0, 0, 0]	n/a	catFR1	0	R1186P
1257.604	1.783	1263165	ORIENT_OFF	n/a	n/a	n/a	n/a	-999	8	[0, 0, 0]	n/a	catFR1	0	R1186P
1259.387	1.617	1264948	WORD	n/a	wordpools/wordpool_categorized_EN.txt	LAKE	Landscapes	1	8	[0, 0, 0]	n/a	catFR1	0	R1186P
1261.004	0.95	1266565	WORD_OFF	n/a	n/a	LAKE	n/a	1	8	[0, 0, 0]	n/a	catFR1	0	R1186P
1261.954	1.617	1267515	WORD	n/a	wordpools/wordpool_categorized_EN.txt	MOUNTAIN	Landscapes	2	8	[0, 0, 0]	n/a	catFR1	0	R1186P
1263.571	0.834	1269132	WORD_OFF	n/a	n/a	MOUNTAIN	n/a	2	8	[0, 0, 0]	n/a	catFR1	0	R1186P
1264.405	1.617	1269966	WORD	n/a	wordpools/wordpool_categorized_EN.txt	JELLYFISH	OceanAnimals	3	8	[0, 0, 0]	n/a	catFR1	0	R1186P
1266.022	0.85	1271583	WORD_OFF	n/a	n/a	JELLYFISH	n/a	3	8	[0, 0, 0]	n/a	catFR1	0	R1186P
1266.872	1.617	1272433	WORD	n/a	wordpools/wordpool_categorized_EN.txt	SHRIMP	OceanAnimals	4	8	[0, 0, 0]	n/a	catFR1	0	R1186P
1268.489	0.933	1274050	WORD_OFF	n/a	n/a	SHRIMP	n/a	4	8	[0, 0, 0]	n/a	catFR1	0	R1186P
1269.422	1.617	1274983	WORD	n/a	wordpools/wordpool_categorized_EN.txt	MOTH	Insects	5	8	[0, 0, 0]	n/a	catFR1	0	R1186P
1271.039	1.017	1276600	WORD_OFF	n/a	n/a	MOTH	n/a	5	8	[0, 0, 0]	n/a	catFR1	0	R1186P
1272.056	1.617	1277617	WORD	n/a	wordpools/wordpool_categorized_EN.txt	MOSQUITO	Insects	6	8	[0, 0, 0]	n/a	catFR1	0	R1186P
1273.673	0.917	1279234	WORD_OFF	n/a	n/a	MOSQUITO	n/a	6	8	[0, 0, 0]	n/a	catFR1	0	R1186P
1274.59	1.617	1280151	WORD	n/a	wordpools/wordpool_categorized_EN.txt	PLANKTON	OceanAnimals	7	8	[0, 0, 0]	n/a	catFR1	0	R1186P
1276.207	0.883	1281768	WORD_OFF	n/a	n/a	PLANKTON	n/a	7	8	[0, 0, 0]	n/a	catFR1	0	R1186P
1277.09	1.617	1282650	WORD	n/a	wordpools/wordpool_categorized_EN.txt	OCTOPUS	OceanAnimals	8	8	[0, 0, 0]	n/a	catFR1	0	R1186P
1278.707	0.867	1284267	WORD_OFF	n/a	n/a	OCTOPUS	n/a	8	8	[0, 0, 0]	n/a	catFR1	0	R1186P
1279.574	1.617	1285134	WORD	n/a	wordpools/wordpool_categorized_EN.txt	HILLS	Landscapes	9	8	[0, 0, 0]	n/a	catFR1	0	R1186P
1281.191	1.0	1286751	WORD_OFF	n/a	n/a	HILLS	n/a	9	8	[0, 0, 0]	n/a	catFR1	0	R1186P
1282.191	1.617	1287751	WORD	n/a	wordpools/wordpool_categorized_EN.txt	RIVER	Landscapes	10	8	[0, 0, 0]	n/a	catFR1	0	R1186P
1283.808	0.801	1289368	WORD_OFF	n/a	n/a	RIVER	n/a	10	8	[0, 0, 0]	n/a	catFR1	0	R1186P
1284.609	1.616	1290169	WORD	n/a	wordpools/wordpool_categorized_EN.txt	SPIDER	Insects	11	8	[0, 0, 0]	n/a	catFR1	0	R1186P
1286.225	0.884	1291785	WORD_OFF	n/a	n/a	SPIDER	n/a	11	8	[0, 0, 0]	n/a	catFR1	0	R1186P
1287.109	1.617	1292669	WORD	n/a	wordpools/wordpool_categorized_EN.txt	BEE	Insects	12	8	[0, 0, 0]	n/a	catFR1	0	R1186P
1288.726	0.0	1294286	ENCODING_END	n/a	n/a	n/a	n/a	-999	8	[0, 0, 0]	n/a	catFR1	0	R1186P
1288.726	0.106	1294286	WORD_OFF	n/a	n/a	BEE	n/a	12	8	[0, 0, 0]	n/a	catFR1	0	R1186P
1288.832	0.0	1294392	DISTRACT_START	n/a	n/a	n/a	n/a	-999	8	[0, 0, 0]	n/a	catFR1	0	R1186P
1288.832	0.011	1294392	START	n/a	n/a	n/a	n/a	-999	8	[-999, -999, -999]	n/a	catFR1	0	R1186P
1288.843	18.253	1294403	PROB	18.22	n/a	n/a	n/a	-999	8	[7, 4, 8]	19.0	catFR1	0	R1186P
1307.096	22.536	1312655	PROB	22.536	n/a	n/a	n/a	-999	8	[3, 7, 6]	16.0	catFR1	0	R1186P
1329.632	0.019	1335190	STOP	n/a	n/a	n/a	n/a	-999	8	[-999, -999, -999]	n/a	catFR1	0	R1186P
1329.651	0.516	1335209	DISTRACT_END	n/a	n/a	n/a	n/a	-999	8	[0, 0, 0]	n/a	catFR1	0	R1186P
1330.167	0.518	1335725	RETRIEVAL_ORIENT	n/a	n/a	n/a	n/a	-999	8	[0, 0, 0]	n/a	catFR1	0	R1186P
1330.685	2.45	1336243	REC_START	n/a	n/a	n/a	n/a	-999	8	[0, 0, 0]	n/a	catFR1	0	R1186P
1333.135	2.887	1338693	REC_WORD_VV	2.45	n/a	<>	n/a	-999	8	[0, 0, 0]	n/a	catFR1	0	R1186P
1336.022	0.325	1341579	REC_WORD	5.337	n/a	BEE	Insects	12	8	[0, 0, 0]	n/a	catFR1	0	R1186P
1336.347	2.903	1341904	REC_WORD	5.662	n/a	SPIDER	Insects	11	8	[0, 0, 0]	n/a	catFR1	0	R1186P
1339.25	4.235	1344807	REC_WORD_VV	8.565	n/a	<>	n/a	-999	8	[0, 0, 0]	n/a	catFR1	0	R1186P
1343.485	1.0	1349042	REC_WORD_VV	12.8	n/a	<>	n/a	-999	8	[0, 0, 0]	n/a	catFR1	0	R1186P
1344.485	4.843	1350042	REC_WORD_VV	13.8	n/a	<>	n/a	-999	8	[0, 0, 0]	n/a	catFR1	0	R1186P
1349.328	1.0	1354885	REC_WORD_VV	18.643	n/a	<>	n/a	-999	8	[0, 0, 0]	n/a	catFR1	0	R1186P
1350.328	2.392	1355885	REC_WORD_VV	19.643	n/a	<>	n/a	-999	8	[0, 0, 0]	n/a	catFR1	0	R1186P
1352.72	3.179	1358277	REC_WORD_VV	22.035	n/a	<>	n/a	-999	8	[0, 0, 0]	n/a	catFR1	0	R1186P
1355.899	4.796	1361455	REC_WORD_VV	25.214	n/a	<>	n/a	-999	8	[0, 0, 0]	n/a	catFR1	0	R1186P
1360.695	752.319	1366251	REC_END	n/a	n/a	n/a	n/a	-999	8	[0, 0, 0]	n/a	catFR1	0	R1186P
2113.014	0.0	2118532	TRIAL	n/a	n/a	n/a	n/a	-999	9	[0, 0, 0]	n/a	catFR1	0	R1186P
