onset	duration	sample	trial_type	response_time	stim_file	item_name	category	serialpos	list	test	answer	experiment	session	subject
0.0	33.127	325557	SESS_START	n/a	n/a	n/a	n/a	-999	-999	[0, 0, 0]	n/a	catFR1	0	R1045E
33.127	10.0	358682	COUNTDOWN_START	n/a	n/a	n/a	n/a	-999	-999	[0, 0, 0]	n/a	catFR1	0	R1045E
43.555	3.775	369109	COUNTDOWN_END	n/a	n/a	n/a	n/a	-999	-999	[0, 0, 0]	n/a	catFR1	0	R1045E
47.33	1.6	372884	PRACTICE_WORD	n/a	n/a	RING	n/a	-999	-999	[0, 0, 0]	n/a	catFR1	0	R1045E
49.947	1.6	375501	PRACTICE_WORD	n/a	n/a	WATCH	n/a	-999	-999	[0, 0, 0]	n/a	catFR1	0	R1045E
52.381	1.6	377935	PRACTICE_WORD	n/a	n/a	BEAM	n/a	-999	-999	[0, 0, 0]	n/a	catFR1	0	R1045E
54.815	1.6	380368	PRACTICE_WORD	n/a	n/a	WAGON	n/a	-999	-999	[0, 0, 0]	n/a	catFR1	0	R1045E
57.332	1.6	382885	PRACTICE_WORD	n/a	n/a	TONGUE	n/a	-999	-999	[0, 0, 0]	n/a	catFR1	0	R1045E
59.882	1.6	385435	PRACTICE_WORD	n/a	n/a	RHINO	n/a	-999	-999	[0, 0, 0]	n/a	catFR1	0	R1045E
62.499	1.6	388052	PRACTICE_WORD	n/a	n/a	IRON	n/a	-999	-999	[0, 0, 0]	n/a	catFR1	0	R1045E
64.95	1.6	390503	PRACTICE_WORD	n/a	n/a	FLOOD	n/a	-999	-999	[0, 0, 0]	n/a	catFR1	0	R1045E
67.4	1.6	392953	PRACTICE_WORD	n/a	n/a	CAMEL	n/a	-999	-999	[0, 0, 0]	n/a	catFR1	0	R1045E
69.8	1.6	395352	PRACTICE_WORD	n/a	n/a	CHEST	n/a	-999	-999	[0, 0, 0]	n/a	catFR1	0	R1045E
72.418	1.6	397970	PRACTICE_WORD	n/a	n/a	ATTIC	n/a	-999	-999	[0, 0, 0]	n/a	catFR1	0	R1045E
74.835	1.6	400387	PRACTICE_WORD	n/a	n/a	COTTON	n/a	-999	-999	[0, 0, 0]	n/a	catFR1	0	R1045E
76.452	0.0	402004	PRACTICE_DISTRACT_START	n/a	n/a	n/a	n/a	-999	-999	[0, 0, 0]	n/a	catFR1	0	R1045E
76.452	0.016	402004	START	n/a	n/a	n/a	n/a	-999	-1	[-999, -999, -999]	n/a	catFR1	0	R1045E
76.468	7.635	402020	PROB	7.607	n/a	n/a	n/a	-999	-1	[1, 3, 2]	6.0	catFR1	0	R1045E
84.103	6.134	409654	PROB	6.107	n/a	n/a	n/a	-999	-1	[8, 4, 8]	20.0	catFR1	0	R1045E
90.237	4.651	415788	PROB	4.629	n/a	n/a	n/a	-999	-1	[2, 3, 2]	7.0	catFR1	0	R1045E
94.888	6.322	420439	PROB	6.322	n/a	n/a	n/a	-999	-1	[3, 3, 9]	15.0	catFR1	0	R1045E
101.21	0.013	426760	STOP	n/a	n/a	n/a	n/a	-999	-1	[-999, -999, -999]	n/a	catFR1	0	R1045E
101.223	0.517	426773	PRACTICE_DISTRACT_END	n/a	n/a	n/a	n/a	-999	-999	[0, 0, 0]	n/a	catFR1	0	R1045E
101.74	30.516	427290	PRACTICE_REC_START	n/a	n/a	n/a	n/a	-999	-999	[0, 0, 0]	n/a	catFR1	0	R1045E
132.256	19.109	457804	PRACTICE_REC_END	n/a	n/a	n/a	n/a	-999	-999	[0, 0, 0]	n/a	catFR1	0	R1045E
151.365	0.0	476912	TRIAL	n/a	n/a	n/a	n/a	-999	1	[0, 0, 0]	n/a	catFR1	0	R1045E
151.365	10.0	476912	COUNTDOWN_START	n/a	n/a	n/a	n/a	-999	1	[0, 0, 0]	n/a	catFR1	0	R1045E
161.793	0.007	487339	COUNTDOWN_END	n/a	n/a	n/a	n/a	-999	1	[0, 0, 0]	n/a	catFR1	0	R1045E
161.8	1.6	487346	ORIENT	n/a	n/a	n/a	n/a	-999	1	[0, 0, 0]	n/a	catFR1	0	R1045E
165.616	1.6	491162	WORD	n/a	wordpools/wordpool_categorized_EN.txt	PAPER	OfficeSupplies	1	1	[0, 0, 0]	n/a	catFR1	0	R1045E
168.051	1.6	493597	WORD	n/a	wordpools/wordpool_categorized_EN.txt	BINDER	OfficeSupplies	2	1	[0, 0, 0]	n/a	catFR1	0	R1045E
170.451	1.6	495997	WORD	n/a	wordpools/wordpool_categorized_EN.txt	PEELER	KitchenTools	3	1	[0, 0, 0]	n/a	catFR1	0	R1045E
173.035	1.6	498580	WORD	n/a	wordpools/wordpool_categorized_EN.txt	SPOON	KitchenTools	4	1	[0, 0, 0]	n/a	catFR1	0	R1045E
175.651	1.6	501196	WORD	n/a	wordpools/wordpool_categorized_EN.txt	HAND	BodyParts	5	1	[0, 0, 0]	n/a	catFR1	0	R1045E
178.053	1.6	503598	WORD	n/a	wordpools/wordpool_categorized_EN.txt	ELBOW	BodyParts	6	1	[0, 0, 0]	n/a	catFR1	0	R1045E
180.503	1.6	506048	WORD	n/a	wordpools/wordpool_categorized_EN.txt	GLUE	OfficeSupplies	7	1	[0, 0, 0]	n/a	catFR1	0	R1045E
183.02	1.6	508565	WORD	n/a	wordpools/wordpool_categorized_EN.txt	STAPLER	OfficeSupplies	8	1	[0, 0, 0]	n/a	catFR1	0	R1045E
185.636	1.6	511181	WORD	n/a	wordpools/wordpool_categorized_EN.txt	FOOT	BodyParts	9	1	[0, 0, 0]	n/a	catFR1	0	R1045E
188.238	1.6	513782	WORD	n/a	wordpools/wordpool_categorized_EN.txt	NOSE	BodyParts	10	1	[0, 0, 0]	n/a	catFR1	0	R1045E
190.805	1.6	516349	WORD	n/a	wordpools/wordpool_categorized_EN.txt	KNIFE	KitchenTools	11	1	[0, 0, 0]	n/a	catFR1	0	R1045E
193.222	1.6	518766	WORD	n/a	wordpools/wordpool_categorized_EN.txt	STRAINER	KitchenTools	12	1	[0, 0, 0]	n/a	catFR1	0	R1045E
194.839	0.001	520383	DISTRACT_START	n/a	n/a	n/a	n/a	-999	1	[0, 0, 0]	n/a	catFR1	0	R1045E
194.84	0.016	520384	START	n/a	n/a	n/a	n/a	-999	1	[-999, -999, -999]	n/a	catFR1	0	R1045E
194.856	4.134	520400	PROB	4.111	n/a	n/a	n/a	-999	1	[3, 5, 3]	11.0	catFR1	0	R1045E
198.99	3.649	524534	PROB	3.624	n/a	n/a	n/a	-999	1	[4, 5, 1]	10.0	catFR1	0	R1045E
202.639	5.101	528183	PROB	5.071	n/a	n/a	n/a	-999	1	[2, 7, 7]	16.0	catFR1	0	R1045E
207.74	4.069	533283	PROB	4.034	n/a	n/a	n/a	-999	1	[6, 2, 8]	16.0	catFR1	0	R1045E
211.809	3.686	537352	PROB	3.686	n/a	n/a	n/a	-999	1	[5, 5, 3]	13.0	catFR1	0	R1045E
215.495	0.014	541038	STOP	n/a	n/a	n/a	n/a	-999	1	[-999, -999, -999]	n/a	catFR1	0	R1045E
215.509	1.206	541052	DISTRACT_END	n/a	n/a	n/a	n/a	-999	1	[0, 0, 0]	n/a	catFR1	0	R1045E
216.715	1.375	542258	REC_START	n/a	n/a	n/a	n/a	-999	1	[0, 0, 0]	n/a	catFR1	0	R1045E
218.09	6.53	543632	REC_WORD	1.375	n/a	ELBOW	BodyParts	6	1	[0, 0, 0]	n/a	catFR1	0	R1045E
224.62	4.31	550162	REC_WORD	7.905	n/a	STRAINER	KitchenTools	12	1	[0, 0, 0]	n/a	catFR1	0	R1045E
228.93	17.79	554472	REC_WORD	12.215	n/a	GLUE	OfficeSupplies	7	1	[0, 0, 0]	n/a	catFR1	0	R1045E
246.72	25.616	572261	REC_END	n/a	n/a	n/a	n/a	-999	1	[0, 0, 0]	n/a	catFR1	0	R1045E
272.336	0.0	597875	TRIAL	n/a	n/a	n/a	n/a	-999	2	[0, 0, 0]	n/a	catFR1	0	R1045E
272.336	10.0	597875	COUNTDOWN_START	n/a	n/a	n/a	n/a	-999	2	[0, 0, 0]	n/a	catFR1	0	R1045E
282.764	0.006	608302	COUNTDOWN_END	n/a	n/a	n/a	n/a	-999	2	[0, 0, 0]	n/a	catFR1	0	R1045E
282.77	1.6	608308	ORIENT	n/a	n/a	n/a	n/a	-999	2	[0, 0, 0]	n/a	catFR1	0	R1045E
286.422	1.6	611960	WORD	n/a	wordpools/wordpool_categorized_EN.txt	HILLS	Landscapes	1	2	[0, 0, 0]	n/a	catFR1	0	R1045E
288.805	1.6	614343	WORD	n/a	wordpools/wordpool_categorized_EN.txt	BEACH	Landscapes	2	2	[0, 0, 0]	n/a	catFR1	0	R1045E
291.422	1.6	616960	WORD	n/a	wordpools/wordpool_categorized_EN.txt	HUMIDITY	Weather	3	2	[0, 0, 0]	n/a	catFR1	0	R1045E
293.873	1.6	619410	WORD	n/a	wordpools/wordpool_categorized_EN.txt	RAIN	Weather	4	2	[0, 0, 0]	n/a	catFR1	0	R1045E
296.39	1.6	621927	WORD	n/a	wordpools/wordpool_categorized_EN.txt	MOUSSE	Desserts	5	2	[0, 0, 0]	n/a	catFR1	0	R1045E
298.824	1.6	624361	WORD	n/a	wordpools/wordpool_categorized_EN.txt	CAKE	Desserts	6	2	[0, 0, 0]	n/a	catFR1	0	R1045E
301.458	1.6	626995	WORD	n/a	wordpools/wordpool_categorized_EN.txt	STREAM	Landscapes	7	2	[0, 0, 0]	n/a	catFR1	0	R1045E
303.941	1.6	629478	WORD	n/a	wordpools/wordpool_categorized_EN.txt	ISLAND	Landscapes	8	2	[0, 0, 0]	n/a	catFR1	0	R1045E
306.525	1.6	632062	WORD	n/a	wordpools/wordpool_categorized_EN.txt	COOKIE	Desserts	9	2	[0, 0, 0]	n/a	catFR1	0	R1045E
308.909	1.6	634445	WORD	n/a	wordpools/wordpool_categorized_EN.txt	BROWNIES	Desserts	10	2	[0, 0, 0]	n/a	catFR1	0	R1045E
311.359	1.6	636895	WORD	n/a	wordpools/wordpool_categorized_EN.txt	FOG	Weather	11	2	[0, 0, 0]	n/a	catFR1	0	R1045E
313.793	1.6	639329	WORD	n/a	wordpools/wordpool_categorized_EN.txt	CLOUD	Weather	12	2	[0, 0, 0]	n/a	catFR1	0	R1045E
315.41	0.001	640946	DISTRACT_START	n/a	n/a	n/a	n/a	-999	2	[0, 0, 0]	n/a	catFR1	0	R1045E
315.411	0.016	640947	START	n/a	n/a	n/a	n/a	-999	2	[-999, -999, -999]	n/a	catFR1	0	R1045E
315.427	3.283	640963	PROB	3.259	n/a	n/a	n/a	-999	2	[1, 7, 1]	9.0	catFR1	0	R1045E
318.71	2.751	644246	PROB	2.721	n/a	n/a	n/a	-999	2	[3, 7, 1]	11.0	catFR1	0	R1045E
321.461	4.267	646997	PROB	4.233	n/a	n/a	n/a	-999	2	[6, 7, 4]	17.0	catFR1	0	R1045E
325.728	3.934	651263	PROB	3.902	n/a	n/a	n/a	-999	2	[2, 1, 5]	8.0	catFR1	0	R1045E
329.662	4.151	655197	PROB	4.12	n/a	n/a	n/a	-999	2	[6, 4, 9]	19.0	catFR1	0	R1045E
333.813	3.706	659348	PROB	3.706	n/a	n/a	n/a	-999	2	[9, 1, 6]	16.0	catFR1	0	R1045E
337.519	0.012	663053	STOP	n/a	n/a	n/a	n/a	-999	2	[-999, -999, -999]	n/a	catFR1	0	R1045E
337.531	1.199	663065	DISTRACT_END	n/a	n/a	n/a	n/a	-999	2	[0, 0, 0]	n/a	catFR1	0	R1045E
338.73	3.252	664264	REC_START	n/a	n/a	n/a	n/a	-999	2	[0, 0, 0]	n/a	catFR1	0	R1045E
341.982	0.688	667516	REC_WORD	3.252	n/a	MOUSSE	Desserts	5	2	[0, 0, 0]	n/a	catFR1	0	R1045E
342.67	1.708	668204	REC_WORD	3.94	n/a	CLOUD	Weather	12	2	[0, 0, 0]	n/a	catFR1	0	R1045E
344.378	14.359	669912	REC_WORD	5.648	n/a	FOG	Weather	11	2	[0, 0, 0]	n/a	catFR1	0	R1045E
358.737	2.051	684270	REC_WORD	20.007	n/a	HILLS	Landscapes	1	2	[0, 0, 0]	n/a	catFR1	0	R1045E
360.788	7.955	686321	REC_WORD	22.058	n/a	FLOOD	n/a	-999	2	[0, 0, 0]	n/a	catFR1	0	R1045E
368.743	2.294	694275	REC_END	n/a	n/a	n/a	n/a	-999	2	[0, 0, 0]	n/a	catFR1	0	R1045E
371.037	10.0	696569	COUNTDOWN_START	n/a	n/a	n/a	n/a	-999	3	[0, 0, 0]	n/a	catFR1	0	R1045E
371.037	10.428	696569	TRIAL	n/a	n/a	n/a	n/a	-999	3	[0, 0, 0]	n/a	catFR1	0	R1045E
381.465	0.007	706997	COUNTDOWN_END	n/a	n/a	n/a	n/a	-999	3	[0, 0, 0]	n/a	catFR1	0	R1045E
381.472	1.6	707004	ORIENT	n/a	n/a	n/a	n/a	-999	3	[0, 0, 0]	n/a	catFR1	0	R1045E
385.439	1.6	710970	WORD	n/a	wordpools/wordpool_categorized_EN.txt	MICROWAVE	Electronics	1	3	[0, 0, 0]	n/a	catFR1	0	R1045E
387.906	1.6	713437	WORD	n/a	wordpools/wordpool_categorized_EN.txt	TABLET	Electronics	2	3	[0, 0, 0]	n/a	catFR1	0	R1045E
390.507	1.6	716038	WORD	n/a	wordpools/wordpool_categorized_EN.txt	MOUNTAIN	Landscapes	3	3	[0, 0, 0]	n/a	catFR1	0	R1045E
393.007	1.6	718538	WORD	n/a	wordpools/wordpool_categorized_EN.txt	FOREST	Landscapes	4	3	[0, 0, 0]	n/a	catFR1	0	R1045E
395.441	1.6	720972	WORD	n/a	wordpools/wordpool_categorized_EN.txt	MOTORCYCLE	Vehicles	5	3	[0, 0, 0]	n/a	catFR1	0	R1045E
397.991	1.6	723521	WORD	n/a	wordpools/wordpool_categorized_EN.txt	BIKE	Vehicles	6	3	[0, 0, 0]	n/a	catFR1	0	R1045E
400.392	1.6	725922	WORD	n/a	wordpools/wordpool_categorized_EN.txt	OCEAN	Landscapes	7	3	[0, 0, 0]	n/a	catFR1	0	R1045E
402.926	1.6	728456	WORD	n/a	wordpools/wordpool_categorized_EN.txt	WOODS	Landscapes	8	3	[0, 0, 0]	n/a	catFR1	0	R1045E
405.309	1.6	730839	WORD	n/a	wordpools/wordpool_categorized_EN.txt	TELEVISION	Electronics	9	3	[0, 0, 0]	n/a	catFR1	0	R1045E
407.893	1.6	733423	WORD	n/a	wordpools/wordpool_categorized_EN.txt	COMPUTER	Electronics	10	3	[0, 0, 0]	n/a	catFR1	0	R1045E
410.343	1.6	735873	WORD	n/a	wordpools/wordpool_categorized_EN.txt	BUS	Vehicles	11	3	[0, 0, 0]	n/a	catFR1	0	R1045E
412.894	1.6	738423	WORD	n/a	wordpools/wordpool_categorized_EN.txt	BOAT	Vehicles	12	3	[0, 0, 0]	n/a	catFR1	0	R1045E
414.511	0.001	740040	DISTRACT_START	n/a	n/a	n/a	n/a	-999	3	[0, 0, 0]	n/a	catFR1	0	R1045E
414.512	0.016	740041	START	n/a	n/a	n/a	n/a	-999	3	[-999, -999, -999]	n/a	catFR1	0	R1045E
414.528	6.551	740057	PROB	6.518	n/a	n/a	n/a	-999	3	[3, 3, 5]	11.0	catFR1	0	R1045E
421.079	2.682	746608	PROB	2.662	n/a	n/a	n/a	-999	3	[1, 3, 7]	11.0	catFR1	0	R1045E
423.761	3.285	749290	PROB	3.254	n/a	n/a	n/a	-999	3	[7, 5, 5]	17.0	catFR1	0	R1045E
427.046	4.184	752574	PROB	4.152	n/a	n/a	n/a	-999	3	[9, 5, 2]	16.0	catFR1	0	R1045E
431.23	3.134	756758	PROB	3.112	n/a	n/a	n/a	-999	3	[6, 6, 2]	14.0	catFR1	0	R1045E
434.364	2.802	759892	PROB	2.802	n/a	n/a	n/a	-999	3	[4, 5, 5]	14.0	catFR1	0	R1045E
437.166	0.015	762694	STOP	n/a	n/a	n/a	n/a	-999	3	[-999, -999, -999]	n/a	catFR1	0	R1045E
437.181	1.101	762709	DISTRACT_END	n/a	n/a	n/a	n/a	-999	3	[0, 0, 0]	n/a	catFR1	0	R1045E
438.282	9.012	763810	REC_START	n/a	n/a	n/a	n/a	-999	3	[0, 0, 0]	n/a	catFR1	0	R1045E
447.294	4.361	772821	REC_WORD	9.012	n/a	MICROWAVE	Electronics	1	3	[0, 0, 0]	n/a	catFR1	0	R1045E
451.655	2.923	777182	REC_WORD	13.373	n/a	WOODS	Landscapes	8	3	[0, 0, 0]	n/a	catFR1	0	R1045E
454.578	13.718	780105	REC_WORD	16.296	n/a	STRAIN	n/a	-999	3	[0, 0, 0]	n/a	catFR1	0	R1045E
468.296	2.725	793822	REC_END	n/a	n/a	n/a	n/a	-999	3	[0, 0, 0]	n/a	catFR1	0	R1045E
471.021	0.0	796547	TRIAL	n/a	n/a	n/a	n/a	-999	4	[0, 0, 0]	n/a	catFR1	0	R1045E
471.021	10.0	796547	COUNTDOWN_START	n/a	n/a	n/a	n/a	-999	4	[0, 0, 0]	n/a	catFR1	0	R1045E
481.449	0.007	806974	COUNTDOWN_END	n/a	n/a	n/a	n/a	-999	4	[0, 0, 0]	n/a	catFR1	0	R1045E
481.456	1.6	806981	ORIENT	n/a	n/a	n/a	n/a	-999	4	[0, 0, 0]	n/a	catFR1	0	R1045E
485.44	1.6	810965	WORD	n/a	wordpools/wordpool_categorized_EN.txt	APPLE	Fruit	1	4	[0, 0, 0]	n/a	catFR1	0	R1045E
487.907	1.6	813431	WORD	n/a	wordpools/wordpool_categorized_EN.txt	ORANGE	Fruit	2	4	[0, 0, 0]	n/a	catFR1	0	R1045E
490.441	1.6	815965	WORD	n/a	wordpools/wordpool_categorized_EN.txt	PIG	FarmAnimals	3	4	[0, 0, 0]	n/a	catFR1	0	R1045E
492.974	1.6	818498	WORD	n/a	wordpools/wordpool_categorized_EN.txt	SHEEP	FarmAnimals	4	4	[0, 0, 0]	n/a	catFR1	0	R1045E
495.475	1.6	820999	WORD	n/a	wordpools/wordpool_categorized_EN.txt	HEADPHONES	Electronics	5	4	[0, 0, 0]	n/a	catFR1	0	R1045E
498.092	1.6	823616	WORD	n/a	wordpools/wordpool_categorized_EN.txt	SCANNER	Electronics	6	4	[0, 0, 0]	n/a	catFR1	0	R1045E
500.658	1.6	826182	WORD	n/a	wordpools/wordpool_categorized_EN.txt	BULL	FarmAnimals	7	4	[0, 0, 0]	n/a	catFR1	0	R1045E
503.226	1.6	828749	WORD	n/a	wordpools/wordpool_categorized_EN.txt	TURKEY	FarmAnimals	8	4	[0, 0, 0]	n/a	catFR1	0	R1045E
505.659	1.6	831182	WORD	n/a	wordpools/wordpool_categorized_EN.txt	PEAR	Fruit	9	4	[0, 0, 0]	n/a	catFR1	0	R1045E
508.094	1.6	833617	WORD	n/a	wordpools/wordpool_categorized_EN.txt	LIME	Fruit	10	4	[0, 0, 0]	n/a	catFR1	0	R1045E
510.478	1.6	836001	WORD	n/a	wordpools/wordpool_categorized_EN.txt	CALCULATOR	Electronics	11	4	[0, 0, 0]	n/a	catFR1	0	R1045E
512.995	1.6	838518	WORD	n/a	wordpools/wordpool_categorized_EN.txt	SPEAKER	Electronics	12	4	[0, 0, 0]	n/a	catFR1	0	R1045E
514.611	0.0	840134	DISTRACT_START	n/a	n/a	n/a	n/a	-999	4	[0, 0, 0]	n/a	catFR1	0	R1045E
514.611	0.016	840134	START	n/a	n/a	n/a	n/a	-999	4	[-999, -999, -999]	n/a	catFR1	0	R1045E
514.627	4.151	840150	PROB	4.123	n/a	n/a	n/a	-999	4	[5, 5, 5]	15.0	catFR1	0	R1045E
518.778	4.385	844300	PROB	4.365	n/a	n/a	n/a	-999	4	[9, 2, 9]	20.0	catFR1	0	R1045E
523.163	3.651	848685	PROB	3.628	n/a	n/a	n/a	-999	4	[4, 4, 7]	15.0	catFR1	0	R1045E
526.814	3.933	852336	PROB	3.912	n/a	n/a	n/a	-999	4	[8, 8, 7]	23.0	catFR1	0	R1045E
530.747	2.068	856268	PROB	2.044	n/a	n/a	n/a	-999	4	[2, 9, 1]	12.0	catFR1	0	R1045E
532.815	2.624	858336	PROB	2.624	n/a	n/a	n/a	-999	4	[2, 8, 9]	19.0	catFR1	0	R1045E
535.439	0.01	860960	STOP	n/a	n/a	n/a	n/a	-999	4	[-999, -999, -999]	n/a	catFR1	0	R1045E
535.449	1.183	860970	DISTRACT_END	n/a	n/a	n/a	n/a	-999	4	[0, 0, 0]	n/a	catFR1	0	R1045E
536.632	1.353	862153	REC_START	n/a	n/a	n/a	n/a	-999	4	[0, 0, 0]	n/a	catFR1	0	R1045E
537.985	0.739	863506	REC_WORD	1.353	n/a	APPLE	Fruit	1	4	[0, 0, 0]	n/a	catFR1	0	R1045E
538.724	2.478	864245	REC_WORD	2.092	n/a	ORANGE	Fruit	2	4	[0, 0, 0]	n/a	catFR1	0	R1045E
541.202	3.597	866723	REC_WORD	4.57	n/a	PIG	FarmAnimals	3	4	[0, 0, 0]	n/a	catFR1	0	R1045E
544.799	1.981	870320	REC_WORD	8.167	n/a	SHEEP	FarmAnimals	4	4	[0, 0, 0]	n/a	catFR1	0	R1045E
546.78	2.563	872300	REC_WORD	10.148	n/a	PEAR	Fruit	9	4	[0, 0, 0]	n/a	catFR1	0	R1045E
549.343	3.925	874863	REC_WORD	12.711	n/a	HEADPHONES	Electronics	5	4	[0, 0, 0]	n/a	catFR1	0	R1045E
553.268	13.375	878788	REC_WORD	16.636	n/a	BULL	FarmAnimals	7	4	[0, 0, 0]	n/a	catFR1	0	R1045E
566.643	2.645	892162	REC_END	n/a	n/a	n/a	n/a	-999	4	[0, 0, 0]	n/a	catFR1	0	R1045E
569.288	0.0	894807	TRIAL	n/a	n/a	n/a	n/a	-999	5	[0, 0, 0]	n/a	catFR1	0	R1045E
569.288	10.0	894807	COUNTDOWN_START	n/a	n/a	n/a	n/a	-999	5	[0, 0, 0]	n/a	catFR1	0	R1045E
579.716	0.006	905234	COUNTDOWN_END	n/a	n/a	n/a	n/a	-999	5	[0, 0, 0]	n/a	catFR1	0	R1045E
579.722	1.6	905240	ORIENT	n/a	n/a	n/a	n/a	-999	5	[0, 0, 0]	n/a	catFR1	0	R1045E
583.19	1.6	908708	WORD	n/a	wordpools/wordpool_categorized_EN.txt	SHOVEL	Tools	1	5	[0, 0, 0]	n/a	catFR1	0	R1045E
585.773	1.6	911291	WORD	n/a	wordpools/wordpool_categorized_EN.txt	DRILL	Tools	2	5	[0, 0, 0]	n/a	catFR1	0	R1045E
588.375	1.6	913893	WORD	n/a	wordpools/wordpool_categorized_EN.txt	WASHER	Appliances	3	5	[0, 0, 0]	n/a	catFR1	0	R1045E
590.875	1.6	916392	WORD	n/a	wordpools/wordpool_categorized_EN.txt	VACUUM	Appliances	4	5	[0, 0, 0]	n/a	catFR1	0	R1045E
593.426	1.6	918943	WORD	n/a	wordpools/wordpool_categorized_EN.txt	BLUEBERRY	Fruit	5	5	[0, 0, 0]	n/a	catFR1	0	R1045E
595.843	1.6	921360	WORD	n/a	wordpools/wordpool_categorized_EN.txt	GRAPE	Fruit	6	5	[0, 0, 0]	n/a	catFR1	0	R1045E
598.36	1.6	923877	WORD	n/a	wordpools/wordpool_categorized_EN.txt	BLENDER	Appliances	7	5	[0, 0, 0]	n/a	catFR1	0	R1045E
600.844	1.6	926361	WORD	n/a	wordpools/wordpool_categorized_EN.txt	DRYER	Appliances	8	5	[0, 0, 0]	n/a	catFR1	0	R1045E
603.361	1.6	928878	WORD	n/a	wordpools/wordpool_categorized_EN.txt	CROWBAR	Tools	9	5	[0, 0, 0]	n/a	catFR1	0	R1045E
605.811	1.6	931327	WORD	n/a	wordpools/wordpool_categorized_EN.txt	HAMMER	Tools	10	5	[0, 0, 0]	n/a	catFR1	0	R1045E
608.295	1.6	933811	WORD	n/a	wordpools/wordpool_categorized_EN.txt	STRAWBERRY	Fruit	11	5	[0, 0, 0]	n/a	catFR1	0	R1045E
610.678	1.6	936194	WORD	n/a	wordpools/wordpool_categorized_EN.txt	LEMON	Fruit	12	5	[0, 0, 0]	n/a	catFR1	0	R1045E
612.296	0.0	937812	DISTRACT_START	n/a	n/a	n/a	n/a	-999	5	[0, 0, 0]	n/a	catFR1	0	R1045E
612.296	0.016	937812	START	n/a	n/a	n/a	n/a	-999	5	[-999, -999, -999]	n/a	catFR1	0	R1045E
612.312	7.118	937828	PROB	7.087	n/a	n/a	n/a	-999	5	[9, 5, 8]	22.0	catFR1	0	R1045E
619.43	4.701	944946	PROB	4.665	n/a	n/a	n/a	-999	5	[4, 2, 9]	15.0	catFR1	0	R1045E
624.131	3.35	949646	PROB	3.316	n/a	n/a	n/a	-999	5	[1, 3, 4]	8.0	catFR1	0	R1045E
627.481	1.967	952996	PROB	1.942	n/a	n/a	n/a	-999	5	[1, 6, 4]	11.0	catFR1	0	R1045E
629.448	4.812	954963	PROB	4.812	n/a	n/a	n/a	-999	5	[5, 2, 9]	17.0	catFR1	0	R1045E
634.26	0.006	959775	STOP	n/a	n/a	n/a	n/a	-999	5	[-999, -999, -999]	n/a	catFR1	0	R1045E
634.266	1.134	959781	DISTRACT_END	n/a	n/a	n/a	n/a	-999	5	[0, 0, 0]	n/a	catFR1	0	R1045E
635.4	5.494	960914	REC_START	n/a	n/a	n/a	n/a	-999	5	[0, 0, 0]	n/a	catFR1	0	R1045E
640.894	0.688	966408	REC_WORD	5.494	n/a	DRILL	Tools	2	5	[0, 0, 0]	n/a	catFR1	0	R1045E
641.582	2.955	967096	REC_WORD	6.182	n/a	HAMMER	Tools	10	5	[0, 0, 0]	n/a	catFR1	0	R1045E
644.537	18.77	970051	REC_WORD	9.137	n/a	VACUUM	Appliances	4	5	[0, 0, 0]	n/a	catFR1	0	R1045E
663.307	2.102	988820	REC_WORD	27.907	n/a	DRYER	Appliances	8	5	[0, 0, 0]	n/a	catFR1	0	R1045E
665.409	2.48	990921	REC_END	n/a	n/a	n/a	n/a	-999	5	[0, 0, 0]	n/a	catFR1	0	R1045E
667.889	0.0	993401	TRIAL	n/a	n/a	n/a	n/a	-999	6	[0, 0, 0]	n/a	catFR1	0	R1045E
667.889	10.0	993401	COUNTDOWN_START	n/a	n/a	n/a	n/a	-999	6	[0, 0, 0]	n/a	catFR1	0	R1045E
678.317	0.007	1003829	COUNTDOWN_END	n/a	n/a	n/a	n/a	-999	6	[0, 0, 0]	n/a	catFR1	0	R1045E
678.324	1.6	1003836	ORIENT	n/a	n/a	n/a	n/a	-999	6	[0, 0, 0]	n/a	catFR1	0	R1045E
681.908	1.6	1007419	WORD	n/a	wordpools/wordpool_categorized_EN.txt	LION	Zoo	1	6	[0, 0, 0]	n/a	catFR1	0	R1045E
684.441	1.6	1009952	WORD	n/a	wordpools/wordpool_categorized_EN.txt	ELEPHANT	Zoo	2	6	[0, 0, 0]	n/a	catFR1	0	R1045E
686.875	1.6	1012386	WORD	n/a	wordpools/wordpool_categorized_EN.txt	WALL	Building	3	6	[0, 0, 0]	n/a	catFR1	0	R1045E
689.259	1.6	1014770	WORD	n/a	wordpools/wordpool_categorized_EN.txt	FOUNDATION	Building	4	6	[0, 0, 0]	n/a	catFR1	0	R1045E
691.876	1.6	1017387	WORD	n/a	wordpools/wordpool_categorized_EN.txt	MIXER	Appliances	5	6	[0, 0, 0]	n/a	catFR1	0	R1045E
694.31	1.6	1019821	WORD	n/a	wordpools/wordpool_categorized_EN.txt	REFRIGERATOR	Appliances	6	6	[0, 0, 0]	n/a	catFR1	0	R1045E
696.776	1.6	1022286	WORD	n/a	wordpools/wordpool_categorized_EN.txt	ATTIC	Building	7	6	[0, 0, 0]	n/a	catFR1	0	R1045E
699.294	1.6	1024804	WORD	n/a	wordpools/wordpool_categorized_EN.txt	DOOR	Building	8	6	[0, 0, 0]	n/a	catFR1	0	R1045E
701.811	1.6	1027321	WORD	n/a	wordpools/wordpool_categorized_EN.txt	PANDA	Zoo	9	6	[0, 0, 0]	n/a	catFR1	0	R1045E
704.278	1.6	1029788	WORD	n/a	wordpools/wordpool_categorized_EN.txt	MONKEY	Zoo	10	6	[0, 0, 0]	n/a	catFR1	0	R1045E
706.895	1.6	1032405	WORD	n/a	wordpools/wordpool_categorized_EN.txt	DISHWASHER	Appliances	11	6	[0, 0, 0]	n/a	catFR1	0	R1045E
709.479	1.6	1034989	WORD	n/a	wordpools/wordpool_categorized_EN.txt	STOVE	Appliances	12	6	[0, 0, 0]	n/a	catFR1	0	R1045E
711.096	0.001	1036605	DISTRACT_START	n/a	n/a	n/a	n/a	-999	6	[0, 0, 0]	n/a	catFR1	0	R1045E
711.097	0.016	1036606	START	n/a	n/a	n/a	n/a	-999	6	[-999, -999, -999]	n/a	catFR1	0	R1045E
711.113	3.633	1036622	PROB	3.6	n/a	n/a	n/a	-999	6	[7, 5, 2]	14.0	catFR1	0	R1045E
714.746	3.318	1040255	PROB	3.296	n/a	n/a	n/a	-999	6	[5, 6, 9]	20.0	catFR1	0	R1045E
718.064	3.084	1043573	PROB	3.058	n/a	n/a	n/a	-999	6	[3, 4, 4]	11.0	catFR1	0	R1045E
721.148	2.884	1046657	PROB	2.854	n/a	n/a	n/a	-999	6	[4, 4, 2]	10.0	catFR1	0	R1045E
724.032	2.934	1049541	PROB	2.899	n/a	n/a	n/a	-999	6	[3, 7, 7]	17.0	catFR1	0	R1045E
726.966	3.984	1052474	PROB	3.948	n/a	n/a	n/a	-999	6	[7, 6, 2]	15.0	catFR1	0	R1045E
730.95	4.436	1056458	PROB	4.436	n/a	n/a	n/a	-999	6	[4, 8, 5]	17.0	catFR1	0	R1045E
735.386	0.014	1060894	STOP	n/a	n/a	n/a	n/a	-999	6	[-999, -999, -999]	n/a	catFR1	0	R1045E
735.4	1.101	1060908	DISTRACT_END	n/a	n/a	n/a	n/a	-999	6	[0, 0, 0]	n/a	catFR1	0	R1045E
736.501	1.539	1062009	REC_START	n/a	n/a	n/a	n/a	-999	6	[0, 0, 0]	n/a	catFR1	0	R1045E
738.04	0.666	1063548	REC_WORD	1.539	n/a	ELEPHANT	Zoo	2	6	[0, 0, 0]	n/a	catFR1	0	R1045E
738.706	2.901	1064214	REC_WORD	2.205	n/a	LION	Zoo	1	6	[0, 0, 0]	n/a	catFR1	0	R1045E
741.607	0.677	1067114	REC_WORD	5.106	n/a	ATTIC	Building	7	6	[0, 0, 0]	n/a	catFR1	0	R1045E
742.284	13.302	1067791	REC_WORD	5.783	n/a	FOUNDATION	Building	4	6	[0, 0, 0]	n/a	catFR1	0	R1045E
755.586	3.075	1081092	REC_WORD	19.085	n/a	MICROWAVE	n/a	-999	6	[0, 0, 0]	n/a	catFR1	0	R1045E
758.661	7.854	1084167	REC_WORD	22.16	n/a	REFRIGERATOR	Appliances	6	6	[0, 0, 0]	n/a	catFR1	0	R1045E
766.515	1.524	1092021	REC_END	n/a	n/a	n/a	n/a	-999	6	[0, 0, 0]	n/a	catFR1	0	R1045E
768.039	10.0	1093545	COUNTDOWN_START	n/a	n/a	n/a	n/a	-999	7	[0, 0, 0]	n/a	catFR1	0	R1045E
768.04	10.427	1093546	TRIAL	n/a	n/a	n/a	n/a	-999	7	[0, 0, 0]	n/a	catFR1	0	R1045E
778.467	0.008	1103972	COUNTDOWN_END	n/a	n/a	n/a	n/a	-999	7	[0, 0, 0]	n/a	catFR1	0	R1045E
778.475	1.6	1103980	ORIENT	n/a	n/a	n/a	n/a	-999	7	[0, 0, 0]	n/a	catFR1	0	R1045E
782.358	1.6	1107863	WORD	n/a	wordpools/wordpool_categorized_EN.txt	TULIP	Flowers	1	7	[0, 0, 0]	n/a	catFR1	0	R1045E
784.926	1.6	1110430	WORD	n/a	wordpools/wordpool_categorized_EN.txt	MARIGOLD	Flowers	2	7	[0, 0, 0]	n/a	catFR1	0	R1045E
787.359	1.6	1112863	WORD	n/a	wordpools/wordpool_categorized_EN.txt	CARDINAL	Birds	3	7	[0, 0, 0]	n/a	catFR1	0	R1045E
789.759	1.6	1115263	WORD	n/a	wordpools/wordpool_categorized_EN.txt	ROBIN	Birds	4	7	[0, 0, 0]	n/a	catFR1	0	R1045E
792.294	1.6	1117798	WORD	n/a	wordpools/wordpool_categorized_EN.txt	THUNDER	Weather	5	7	[0, 0, 0]	n/a	catFR1	0	R1045E
794.71	1.6	1120214	WORD	n/a	wordpools/wordpool_categorized_EN.txt	THUNDERSTORM	Weather	6	7	[0, 0, 0]	n/a	catFR1	0	R1045E
797.328	1.6	1122832	WORD	n/a	wordpools/wordpool_categorized_EN.txt	DOVE	Birds	7	7	[0, 0, 0]	n/a	catFR1	0	R1045E
799.812	1.6	1125315	WORD	n/a	wordpools/wordpool_categorized_EN.txt	SEAGULL	Birds	8	7	[0, 0, 0]	n/a	catFR1	0	R1045E
802.295	1.6	1127798	WORD	n/a	wordpools/wordpool_categorized_EN.txt	PETUNIA	Flowers	9	7	[0, 0, 0]	n/a	catFR1	0	R1045E
804.728	1.6	1130231	WORD	n/a	wordpools/wordpool_categorized_EN.txt	ORCHID	Flowers	10	7	[0, 0, 0]	n/a	catFR1	0	R1045E
807.296	1.6	1132799	WORD	n/a	wordpools/wordpool_categorized_EN.txt	TORNADO	Weather	11	7	[0, 0, 0]	n/a	catFR1	0	R1045E
809.863	1.6	1135366	WORD	n/a	wordpools/wordpool_categorized_EN.txt	LIGHTNING	Weather	12	7	[0, 0, 0]	n/a	catFR1	0	R1045E
811.48	0.001	1136983	DISTRACT_START	n/a	n/a	n/a	n/a	-999	7	[0, 0, 0]	n/a	catFR1	0	R1045E
811.481	0.016	1136984	START	n/a	n/a	n/a	n/a	-999	7	[-999, -999, -999]	n/a	catFR1	0	R1045E
811.497	2.951	1137000	PROB	2.926	n/a	n/a	n/a	-999	7	[3, 1, 7]	11.0	catFR1	0	R1045E
814.448	4.384	1139950	PROB	4.351	n/a	n/a	n/a	-999	7	[5, 2, 9]	16.0	catFR1	0	R1045E
818.832	3.766	1144334	PROB	3.734	n/a	n/a	n/a	-999	7	[3, 3, 4]	10.0	catFR1	0	R1045E
822.598	3.252	1148100	PROB	3.225	n/a	n/a	n/a	-999	7	[3, 2, 1]	6.0	catFR1	0	R1045E
825.85	2.699	1151352	PROB	2.677	n/a	n/a	n/a	-999	7	[3, 6, 5]	14.0	catFR1	0	R1045E
828.549	3.45	1154051	PROB	3.45	n/a	n/a	n/a	-999	7	[9, 6, 4]	19.0	catFR1	0	R1045E
831.999	0.018	1157500	STOP	n/a	n/a	n/a	n/a	-999	7	[-999, -999, -999]	n/a	catFR1	0	R1045E
832.017	1.151	1157518	DISTRACT_END	n/a	n/a	n/a	n/a	-999	7	[0, 0, 0]	n/a	catFR1	0	R1045E
833.168	0.973	1158669	REC_START	n/a	n/a	n/a	n/a	-999	7	[0, 0, 0]	n/a	catFR1	0	R1045E
834.141	0.628	1159642	REC_WORD	0.973	n/a	TULIP	Flowers	1	7	[0, 0, 0]	n/a	catFR1	0	R1045E
834.769	1.758	1160270	REC_WORD	1.601	n/a	MARIGOLD	Flowers	2	7	[0, 0, 0]	n/a	catFR1	0	R1045E
836.527	5.437	1162028	REC_WORD	3.359	n/a	PETUNIA	Flowers	9	7	[0, 0, 0]	n/a	catFR1	0	R1045E
841.964	0.783	1167465	REC_WORD	8.796	n/a	THUNDER	Weather	5	7	[0, 0, 0]	n/a	catFR1	0	R1045E
842.747	9.275	1168248	REC_WORD	9.579	n/a	THUNDERSTORM	Weather	6	7	[0, 0, 0]	n/a	catFR1	0	R1045E
852.022	11.156	1177522	REC_WORD	18.854	n/a	FOUNTAIN	n/a	-999	7	[0, 0, 0]	n/a	catFR1	0	R1045E
863.178	2.678	1188677	REC_END	n/a	n/a	n/a	n/a	-999	7	[0, 0, 0]	n/a	catFR1	0	R1045E
865.856	10.0	1191355	COUNTDOWN_START	n/a	n/a	n/a	n/a	-999	8	[0, 0, 0]	n/a	catFR1	0	R1045E
865.857	10.427	1191356	TRIAL	n/a	n/a	n/a	n/a	-999	8	[0, 0, 0]	n/a	catFR1	0	R1045E
876.284	0.008	1201782	COUNTDOWN_END	n/a	n/a	n/a	n/a	-999	8	[0, 0, 0]	n/a	catFR1	0	R1045E
876.292	1.6	1201790	ORIENT	n/a	n/a	n/a	n/a	-999	8	[0, 0, 0]	n/a	catFR1	0	R1045E
879.892	1.6	1205390	WORD	n/a	wordpools/wordpool_categorized_EN.txt	HEAD	BodyParts	1	8	[0, 0, 0]	n/a	catFR1	0	R1045E
882.343	1.6	1207841	WORD	n/a	wordpools/wordpool_categorized_EN.txt	EAR	BodyParts	2	8	[0, 0, 0]	n/a	catFR1	0	R1045E
884.927	1.6	1210425	WORD	n/a	wordpools/wordpool_categorized_EN.txt	CHERRY	Fruit	3	8	[0, 0, 0]	n/a	catFR1	0	R1045E
887.344	1.6	1212842	WORD	n/a	wordpools/wordpool_categorized_EN.txt	PEACH	Fruit	4	8	[0, 0, 0]	n/a	catFR1	0	R1045E
889.827	1.6	1215324	WORD	n/a	wordpools/wordpool_categorized_EN.txt	HAWK	Birds	5	8	[0, 0, 0]	n/a	catFR1	0	R1045E
892.295	1.6	1217792	WORD	n/a	wordpools/wordpool_categorized_EN.txt	CROW	Birds	6	8	[0, 0, 0]	n/a	catFR1	0	R1045E
894.711	1.6	1220208	WORD	n/a	wordpools/wordpool_categorized_EN.txt	FINGERS	BodyParts	7	8	[0, 0, 0]	n/a	catFR1	0	R1045E
897.145	1.6	1222642	WORD	n/a	wordpools/wordpool_categorized_EN.txt	TOE	BodyParts	8	8	[0, 0, 0]	n/a	catFR1	0	R1045E
899.762	1.6	1225259	WORD	n/a	wordpools/wordpool_categorized_EN.txt	PIGEON	Birds	9	8	[0, 0, 0]	n/a	catFR1	0	R1045E
902.33	1.6	1227827	WORD	n/a	wordpools/wordpool_categorized_EN.txt	BLUEBIRD	Birds	10	8	[0, 0, 0]	n/a	catFR1	0	R1045E
904.746	1.6	1230242	WORD	n/a	wordpools/wordpool_categorized_EN.txt	PLUM	Fruit	11	8	[0, 0, 0]	n/a	catFR1	0	R1045E
907.314	1.6	1232810	WORD	n/a	wordpools/wordpool_categorized_EN.txt	BANANA	Fruit	12	8	[0, 0, 0]	n/a	catFR1	0	R1045E
908.931	0.001	1234427	DISTRACT_START	n/a	n/a	n/a	n/a	-999	8	[0, 0, 0]	n/a	catFR1	0	R1045E
908.932	0.015	1234428	START	n/a	n/a	n/a	n/a	-999	8	[-999, -999, -999]	n/a	catFR1	0	R1045E
908.947	3.184	1234443	PROB	3.152	n/a	n/a	n/a	-999	8	[5, 2, 8]	15.0	catFR1	0	R1045E
912.131	3.384	1237627	PROB	3.352	n/a	n/a	n/a	-999	8	[1, 4, 3]	8.0	catFR1	0	R1045E
915.515	3.701	1241011	PROB	3.68	n/a	n/a	n/a	-999	8	[4, 5, 6]	15.0	catFR1	0	R1045E
919.216	2.784	1244711	PROB	2.756	n/a	n/a	n/a	-999	8	[7, 5, 5]	17.0	catFR1	0	R1045E
922.0	3.134	1247495	PROB	3.099	n/a	n/a	n/a	-999	8	[2, 6, 8]	16.0	catFR1	0	R1045E
925.134	3.267	1250629	PROB	3.237	n/a	n/a	n/a	-999	8	[8, 9, 6]	23.0	catFR1	0	R1045E
928.401	4.25	1253896	PROB	4.25	n/a	n/a	n/a	-999	8	[4, 9, 5]	18.0	catFR1	0	R1045E
932.651	0.016	1258146	STOP	n/a	n/a	n/a	n/a	-999	8	[-999, -999, -999]	n/a	catFR1	0	R1045E
932.667	1.219	1258162	DISTRACT_END	n/a	n/a	n/a	n/a	-999	8	[0, 0, 0]	n/a	catFR1	0	R1045E
933.886	1.445	1259380	REC_START	n/a	n/a	n/a	n/a	-999	8	[0, 0, 0]	n/a	catFR1	0	R1045E
935.331	0.566	1260825	REC_WORD	1.445	n/a	HEAD	BodyParts	1	8	[0, 0, 0]	n/a	catFR1	0	R1045E
935.897	0.944	1261391	REC_WORD	2.011	n/a	TOE	BodyParts	8	8	[0, 0, 0]	n/a	catFR1	0	R1045E
936.841	2.368	1262335	REC_WORD	2.955	n/a	BLUEBIRD	Birds	10	8	[0, 0, 0]	n/a	catFR1	0	R1045E
939.209	0.603	1264703	REC_WORD	5.323	n/a	CHERRY	Fruit	3	8	[0, 0, 0]	n/a	catFR1	0	R1045E
939.812	2.463	1265306	REC_WORD	5.926	n/a	PEACH	Fruit	4	8	[0, 0, 0]	n/a	catFR1	0	R1045E
942.275	0.705	1267769	REC_WORD	8.389	n/a	FINGERS	BodyParts	7	8	[0, 0, 0]	n/a	catFR1	0	R1045E
942.98	20.915	1268474	REC_WORD	9.094	n/a	TOE	BodyParts	8	8	[0, 0, 0]	n/a	catFR1	0	R1045E
963.895	1.711	1289387	REC_END	n/a	n/a	n/a	n/a	-999	8	[0, 0, 0]	n/a	catFR1	0	R1045E
965.606	10.0	1291098	COUNTDOWN_START	n/a	n/a	n/a	n/a	-999	9	[0, 0, 0]	n/a	catFR1	0	R1045E
965.607	10.427	1291099	TRIAL	n/a	n/a	n/a	n/a	-999	9	[0, 0, 0]	n/a	catFR1	0	R1045E
976.034	0.009	1301526	COUNTDOWN_END	n/a	n/a	n/a	n/a	-999	9	[0, 0, 0]	n/a	catFR1	0	R1045E
976.043	1.6	1301535	ORIENT	n/a	n/a	n/a	n/a	-999	9	[0, 0, 0]	n/a	catFR1	0	R1045E
979.609	1.6	1305100	WORD	n/a	wordpools/wordpool_categorized_EN.txt	PLANKTON	OceanAnimals	1	9	[0, 0, 0]	n/a	catFR1	0	R1045E
982.027	1.6	1307518	WORD	n/a	wordpools/wordpool_categorized_EN.txt	OCTOPUS	OceanAnimals	2	9	[0, 0, 0]	n/a	catFR1	0	R1045E
984.543	1.6	1310034	WORD	n/a	wordpools/wordpool_categorized_EN.txt	CHIMPANZEE	Zoo	3	9	[0, 0, 0]	n/a	catFR1	0	R1045E
987.078	1.6	1312569	WORD	n/a	wordpools/wordpool_categorized_EN.txt	CHEETAH	Zoo	4	9	[0, 0, 0]	n/a	catFR1	0	R1045E
989.627	1.6	1315118	WORD	n/a	wordpools/wordpool_categorized_EN.txt	SHELF	Furniture	5	9	[0, 0, 0]	n/a	catFR1	0	R1045E
991.995	1.6	1317486	WORD	n/a	wordpools/wordpool_categorized_EN.txt	NIGHTSTAND	Furniture	6	9	[0, 0, 0]	n/a	catFR1	0	R1045E
994.412	1.6	1319902	WORD	n/a	wordpools/wordpool_categorized_EN.txt	ZEBRA	Zoo	7	9	[0, 0, 0]	n/a	catFR1	0	R1045E
996.796	1.6	1322286	WORD	n/a	wordpools/wordpool_categorized_EN.txt	TIGER	Zoo	8	9	[0, 0, 0]	n/a	catFR1	0	R1045E
999.297	1.6	1324787	WORD	n/a	wordpools/wordpool_categorized_EN.txt	WHALE	OceanAnimals	9	9	[0, 0, 0]	n/a	catFR1	0	R1045E
1001.897	1.6	1327387	WORD	n/a	wordpools/wordpool_categorized_EN.txt	FISH	OceanAnimals	10	9	[0, 0, 0]	n/a	catFR1	0	R1045E
1004.464	1.6	1329954	WORD	n/a	wordpools/wordpool_categorized_EN.txt	SOFA	Furniture	11	9	[0, 0, 0]	n/a	catFR1	0	R1045E
1006.981	1.6	1332471	WORD	n/a	wordpools/wordpool_categorized_EN.txt	BOOKCASE	Furniture	12	9	[0, 0, 0]	n/a	catFR1	0	R1045E
1008.597	0.001	1334086	DISTRACT_START	n/a	n/a	n/a	n/a	-999	9	[0, 0, 0]	n/a	catFR1	0	R1045E
1008.598	0.016	1334087	START	n/a	n/a	n/a	n/a	-999	9	[-999, -999, -999]	n/a	catFR1	0	R1045E
1008.614	3.235	1334103	PROB	3.203	n/a	n/a	n/a	-999	9	[7, 3, 6]	16.0	catFR1	0	R1045E
1011.849	5.484	1337338	PROB	5.461	n/a	n/a	n/a	-999	9	[2, 1, 5]	8.0	catFR1	0	R1045E
1017.333	3.067	1342822	PROB	3.041	n/a	n/a	n/a	-999	9	[3, 5, 7]	15.0	catFR1	0	R1045E
1020.4	2.917	1345889	PROB	2.885	n/a	n/a	n/a	-999	9	[9, 1, 9]	19.0	catFR1	0	R1045E
1023.317	3.084	1348805	PROB	3.064	n/a	n/a	n/a	-999	9	[5, 7, 9]	21.0	catFR1	0	R1045E
1026.401	3.284	1351889	PROB	3.284	n/a	n/a	n/a	-999	9	[1, 2, 6]	9.0	catFR1	0	R1045E
1029.685	0.016	1355173	STOP	n/a	n/a	n/a	n/a	-999	9	[-999, -999, -999]	n/a	catFR1	0	R1045E
1029.701	1.067	1355189	DISTRACT_END	n/a	n/a	n/a	n/a	-999	9	[0, 0, 0]	n/a	catFR1	0	R1045E
1030.768	1.311	1356256	REC_START	n/a	n/a	n/a	n/a	-999	9	[0, 0, 0]	n/a	catFR1	0	R1045E
1032.079	1.173	1357567	REC_WORD	1.311	n/a	PLANKTON	OceanAnimals	1	9	[0, 0, 0]	n/a	catFR1	0	R1045E
1033.252	2.137	1358740	REC_WORD	2.484	n/a	CHIMPANZEE	Zoo	3	9	[0, 0, 0]	n/a	catFR1	0	R1045E
1035.389	1.533	1360877	REC_WORD	4.621	n/a	WHALE	OceanAnimals	9	9	[0, 0, 0]	n/a	catFR1	0	R1045E
1036.922	2.644	1362410	REC_WORD	6.154	n/a	OCTOPUS	OceanAnimals	2	9	[0, 0, 0]	n/a	catFR1	0	R1045E
1039.566	4.892	1365053	REC_WORD	8.798	n/a	CHEETAH	Zoo	4	9	[0, 0, 0]	n/a	catFR1	0	R1045E
1044.458	8.093	1369945	REC_WORD	13.69	n/a	CHIMPANZEE	Zoo	3	9	[0, 0, 0]	n/a	catFR1	0	R1045E
1052.551	8.231	1378038	REC_WORD	21.783	n/a	PLUM	n/a	-999	9	[0, 0, 0]	n/a	catFR1	0	R1045E
1060.782	1.459	1386268	REC_END	n/a	n/a	n/a	n/a	-999	9	[0, 0, 0]	n/a	catFR1	0	R1045E
1062.241	0.0	1387727	TRIAL	n/a	n/a	n/a	n/a	-999	10	[0, 0, 0]	n/a	catFR1	0	R1045E
1062.241	10.0	1387727	COUNTDOWN_START	n/a	n/a	n/a	n/a	-999	10	[0, 0, 0]	n/a	catFR1	0	R1045E
1072.669	0.006	1398154	COUNTDOWN_END	n/a	n/a	n/a	n/a	-999	10	[0, 0, 0]	n/a	catFR1	0	R1045E
1072.675	1.6	1398160	ORIENT	n/a	n/a	n/a	n/a	-999	10	[0, 0, 0]	n/a	catFR1	0	R1045E
1076.193	1.6	1401678	WORD	n/a	wordpools/wordpool_categorized_EN.txt	SPINACH	Vegetables	1	10	[0, 0, 0]	n/a	catFR1	0	R1045E
1078.794	1.6	1404279	WORD	n/a	wordpools/wordpool_categorized_EN.txt	CELERY	Vegetables	2	10	[0, 0, 0]	n/a	catFR1	0	R1045E
1081.228	1.6	1406713	WORD	n/a	wordpools/wordpool_categorized_EN.txt	ARM	BodyParts	3	10	[0, 0, 0]	n/a	catFR1	0	R1045E
1083.744	1.6	1409228	WORD	n/a	wordpools/wordpool_categorized_EN.txt	LEG	BodyParts	4	10	[0, 0, 0]	n/a	catFR1	0	R1045E
1086.345	1.6	1411829	WORD	n/a	wordpools/wordpool_categorized_EN.txt	DRESS	Clothing	5	10	[0, 0, 0]	n/a	catFR1	0	R1045E
1088.812	1.6	1414296	WORD	n/a	wordpools/wordpool_categorized_EN.txt	BLOUSE	Clothing	6	10	[0, 0, 0]	n/a	catFR1	0	R1045E
1091.379	1.6	1416863	WORD	n/a	wordpools/wordpool_categorized_EN.txt	KNEE	BodyParts	7	10	[0, 0, 0]	n/a	catFR1	0	R1045E
1093.963	1.6	1419447	WORD	n/a	wordpools/wordpool_categorized_EN.txt	EYE	BodyParts	8	10	[0, 0, 0]	n/a	catFR1	0	R1045E
1096.579	1.6	1422063	WORD	n/a	wordpools/wordpool_categorized_EN.txt	CUCUMBER	Vegetables	9	10	[0, 0, 0]	n/a	catFR1	0	R1045E
1099.081	1.6	1424564	WORD	n/a	wordpools/wordpool_categorized_EN.txt	PEAS	Vegetables	10	10	[0, 0, 0]	n/a	catFR1	0	R1045E
1101.564	1.6	1427047	WORD	n/a	wordpools/wordpool_categorized_EN.txt	SHIRT	Clothing	11	10	[0, 0, 0]	n/a	catFR1	0	R1045E
1104.148	1.6	1429631	WORD	n/a	wordpools/wordpool_categorized_EN.txt	SOCKS	Clothing	12	10	[0, 0, 0]	n/a	catFR1	0	R1045E
1105.764	0.001	1431247	DISTRACT_START	n/a	n/a	n/a	n/a	-999	10	[0, 0, 0]	n/a	catFR1	0	R1045E
1105.765	0.016	1431248	START	n/a	n/a	n/a	n/a	-999	10	[-999, -999, -999]	n/a	catFR1	0	R1045E
1105.781	3.834	1431264	PROB	3.808	n/a	n/a	n/a	-999	10	[4, 6, 8]	18.0	catFR1	0	R1045E
1109.615	3.934	1435098	PROB	3.911	n/a	n/a	n/a	-999	10	[6, 2, 9]	17.0	catFR1	0	R1045E
1113.549	5.485	1439031	PROB	5.462	n/a	n/a	n/a	-999	10	[9, 6, 9]	26.0	catFR1	0	R1045E
1119.034	4.284	1444516	PROB	4.248	n/a	n/a	n/a	-999	10	[7, 4, 8]	19.0	catFR1	0	R1045E
1123.318	2.693	1448800	PROB	2.693	n/a	n/a	n/a	-999	10	[1, 1, 6]	8.0	catFR1	0	R1045E
1126.011	0.008	1451493	STOP	n/a	n/a	n/a	n/a	-999	10	[-999, -999, -999]	n/a	catFR1	0	R1045E
1126.019	1.184	1451501	DISTRACT_END	n/a	n/a	n/a	n/a	-999	10	[0, 0, 0]	n/a	catFR1	0	R1045E
1127.203	2.715	1452685	REC_START	n/a	n/a	n/a	n/a	-999	10	[0, 0, 0]	n/a	catFR1	0	R1045E
1129.918	1.878	1455399	REC_WORD	2.715	n/a	DRESS	Clothing	5	10	[0, 0, 0]	n/a	catFR1	0	R1045E
1131.796	0.829	1457277	REC_WORD	4.593	n/a	SHIRT	Clothing	11	10	[0, 0, 0]	n/a	catFR1	0	R1045E
1132.625	21.813	1458106	REC_WORD	5.422	n/a	KNEE	BodyParts	7	10	[0, 0, 0]	n/a	catFR1	0	R1045E
1154.438	2.774	1479918	REC_WORD	27.235	n/a	CELERY	Vegetables	2	10	[0, 0, 0]	n/a	catFR1	0	R1045E
1157.212	2.913	1482691	REC_END	n/a	n/a	n/a	n/a	-999	10	[0, 0, 0]	n/a	catFR1	0	R1045E
1160.125	0.0	1485604	TRIAL	n/a	n/a	n/a	n/a	-999	11	[0, 0, 0]	n/a	catFR1	0	R1045E
1160.125	10.0	1485604	COUNTDOWN_START	n/a	n/a	n/a	n/a	-999	11	[0, 0, 0]	n/a	catFR1	0	R1045E
1170.553	0.006	1496032	COUNTDOWN_END	n/a	n/a	n/a	n/a	-999	11	[0, 0, 0]	n/a	catFR1	0	R1045E
1170.559	1.6	1496038	ORIENT	n/a	n/a	n/a	n/a	-999	11	[0, 0, 0]	n/a	catFR1	0	R1045E
1174.227	1.6	1499705	WORD	n/a	wordpools/wordpool_categorized_EN.txt	SHORTS	Clothing	1	11	[0, 0, 0]	n/a	catFR1	0	R1045E
1176.727	1.6	1502205	WORD	n/a	wordpools/wordpool_categorized_EN.txt	PANTS	Clothing	2	11	[0, 0, 0]	n/a	catFR1	0	R1045E
1179.211	1.6	1504689	WORD	n/a	wordpools/wordpool_categorized_EN.txt	CAR	Vehicles	3	11	[0, 0, 0]	n/a	catFR1	0	R1045E
1181.594	1.6	1507072	WORD	n/a	wordpools/wordpool_categorized_EN.txt	TRAIN	Vehicles	4	11	[0, 0, 0]	n/a	catFR1	0	R1045E
1183.962	1.6	1509440	WORD	n/a	wordpools/wordpool_categorized_EN.txt	BEE	Insects	5	11	[0, 0, 0]	n/a	catFR1	0	R1045E
1186.463	1.6	1511941	WORD	n/a	wordpools/wordpool_categorized_EN.txt	LADYBUG	Insects	6	11	[0, 0, 0]	n/a	catFR1	0	R1045E
1188.963	1.6	1514440	WORD	n/a	wordpools/wordpool_categorized_EN.txt	TRUCK	Vehicles	7	11	[0, 0, 0]	n/a	catFR1	0	R1045E
1191.514	1.6	1516991	WORD	n/a	wordpools/wordpool_categorized_EN.txt	PLANE	Vehicles	8	11	[0, 0, 0]	n/a	catFR1	0	R1045E
1194.014	1.6	1519491	WORD	n/a	wordpools/wordpool_categorized_EN.txt	JACKET	Clothing	9	11	[0, 0, 0]	n/a	catFR1	0	R1045E
1196.63	1.6	1522107	WORD	n/a	wordpools/wordpool_categorized_EN.txt	SHOES	Clothing	10	11	[0, 0, 0]	n/a	catFR1	0	R1045E
1199.015	1.6	1524492	WORD	n/a	wordpools/wordpool_categorized_EN.txt	MOSQUITO	Insects	11	11	[0, 0, 0]	n/a	catFR1	0	R1045E
1201.564	1.6	1527041	WORD	n/a	wordpools/wordpool_categorized_EN.txt	FLY	Insects	12	11	[0, 0, 0]	n/a	catFR1	0	R1045E
1203.165	0.001	1528641	DISTRACT_START	n/a	n/a	n/a	n/a	-999	11	[0, 0, 0]	n/a	catFR1	0	R1045E
1203.166	0.016	1528642	START	n/a	n/a	n/a	n/a	-999	11	[-999, -999, -999]	n/a	catFR1	0	R1045E
1203.182	3.218	1528658	PROB	3.196	n/a	n/a	n/a	-999	11	[3, 3, 2]	8.0	catFR1	0	R1045E
1206.4	4.299	1531876	PROB	4.274	n/a	n/a	n/a	-999	11	[5, 1, 7]	13.0	catFR1	0	R1045E
1210.699	2.768	1536175	PROB	2.744	n/a	n/a	n/a	-999	11	[7, 9, 1]	17.0	catFR1	0	R1045E
1213.467	3.668	1538943	PROB	3.648	n/a	n/a	n/a	-999	11	[7, 8, 4]	19.0	catFR1	0	R1045E
1217.135	2.684	1542610	PROB	2.659	n/a	n/a	n/a	-999	11	[8, 1, 1]	10.0	catFR1	0	R1045E
1219.819	4.149	1545294	PROB	4.149	n/a	n/a	n/a	-999	11	[1, 2, 6]	9.0	catFR1	0	R1045E
1223.968	0.018	1549443	STOP	n/a	n/a	n/a	n/a	-999	11	[-999, -999, -999]	n/a	catFR1	0	R1045E
1223.986	1.034	1549461	DISTRACT_END	n/a	n/a	n/a	n/a	-999	11	[0, 0, 0]	n/a	catFR1	0	R1045E
1225.02	3.357	1550495	REC_START	n/a	n/a	n/a	n/a	-999	11	[0, 0, 0]	n/a	catFR1	0	R1045E
1228.377	1.924	1553852	REC_WORD	3.357	n/a	MOSQUITO	Insects	11	11	[0, 0, 0]	n/a	catFR1	0	R1045E
1230.301	0.541	1555776	REC_WORD	5.281	n/a	SHIRT	n/a	-999	11	[0, 0, 0]	n/a	catFR1	0	R1045E
1230.842	13.757	1556317	REC_WORD	5.822	n/a	PANTS	Clothing	2	11	[0, 0, 0]	n/a	catFR1	0	R1045E
1244.599	10.431	1570073	REC_WORD	19.579	n/a	FLY	Insects	12	11	[0, 0, 0]	n/a	catFR1	0	R1045E
1255.03	107.18	1580503	REC_END	n/a	n/a	n/a	n/a	-999	11	[0, 0, 0]	n/a	catFR1	0	R1045E
1362.21	0.0	1687676	TRIAL	n/a	n/a	n/a	n/a	-999	12	[0, 0, 0]	n/a	catFR1	0	R1045E
1362.21	10.0	1687676	COUNTDOWN_START	n/a	n/a	n/a	n/a	-999	12	[0, 0, 0]	n/a	catFR1	0	R1045E
1372.638	0.006	1698103	COUNTDOWN_END	n/a	n/a	n/a	n/a	-999	12	[0, 0, 0]	n/a	catFR1	0	R1045E
1372.644	1.6	1698109	ORIENT	n/a	n/a	n/a	n/a	-999	12	[0, 0, 0]	n/a	catFR1	0	R1045E
1376.229	1.6	1701694	WORD	n/a	wordpools/wordpool_categorized_EN.txt	OYSTER	OceanAnimals	1	12	[0, 0, 0]	n/a	catFR1	0	R1045E
1378.796	1.6	1704261	WORD	n/a	wordpools/wordpool_categorized_EN.txt	JELLYFISH	OceanAnimals	2	12	[0, 0, 0]	n/a	catFR1	0	R1045E
1381.18	1.6	1706644	WORD	n/a	wordpools/wordpool_categorized_EN.txt	ERASER	OfficeSupplies	3	12	[0, 0, 0]	n/a	catFR1	0	R1045E
1383.646	1.6	1709110	WORD	n/a	wordpools/wordpool_categorized_EN.txt	NOTEBOOK	OfficeSupplies	4	12	[0, 0, 0]	n/a	catFR1	0	R1045E
1386.231	1.6	1711695	WORD	n/a	wordpools/wordpool_categorized_EN.txt	SPIDER	Insects	5	12	[0, 0, 0]	n/a	catFR1	0	R1045E
1388.731	1.6	1714195	WORD	n/a	wordpools/wordpool_categorized_EN.txt	CRICKET	Insects	6	12	[0, 0, 0]	n/a	catFR1	0	R1045E
1391.265	1.6	1716729	WORD	n/a	wordpools/wordpool_categorized_EN.txt	DOLPHIN	OceanAnimals	7	12	[0, 0, 0]	n/a	catFR1	0	R1045E
1393.748	1.6	1719212	WORD	n/a	wordpools/wordpool_categorized_EN.txt	SQUID	OceanAnimals	8	12	[0, 0, 0]	n/a	catFR1	0	R1045E
1396.283	1.6	1721746	WORD	n/a	wordpools/wordpool_categorized_EN.txt	BUTTERFLY	Insects	9	12	[0, 0, 0]	n/a	catFR1	0	R1045E
1398.782	1.6	1724245	WORD	n/a	wordpools/wordpool_categorized_EN.txt	ROACH	Insects	10	12	[0, 0, 0]	n/a	catFR1	0	R1045E
1401.15	1.6	1726613	WORD	n/a	wordpools/wordpool_categorized_EN.txt	PENCIL	OfficeSupplies	11	12	[0, 0, 0]	n/a	catFR1	0	R1045E
1403.6	1.6	1729063	WORD	n/a	wordpools/wordpool_categorized_EN.txt	TAPE	OfficeSupplies	12	12	[0, 0, 0]	n/a	catFR1	0	R1045E
1405.218	0.001	1730681	DISTRACT_START	n/a	n/a	n/a	n/a	-999	12	[0, 0, 0]	n/a	catFR1	0	R1045E
1405.219	0.015	1730682	START	n/a	n/a	n/a	n/a	-999	12	[-999, -999, -999]	n/a	catFR1	0	R1045E
1405.234	3.483	1730697	PROB	3.453	n/a	n/a	n/a	-999	12	[1, 2, 3]	6.0	catFR1	0	R1045E
1408.717	2.335	1734180	PROB	2.307	n/a	n/a	n/a	-999	12	[7, 1, 3]	11.0	catFR1	0	R1045E
1411.052	2.5	1736514	PROB	2.476	n/a	n/a	n/a	-999	12	[2, 5, 8]	15.0	catFR1	0	R1045E
1413.552	5.217	1739014	PROB	5.187	n/a	n/a	n/a	-999	12	[9, 5, 7]	22.0	catFR1	0	R1045E
1418.769	2.652	1744231	PROB	2.626	n/a	n/a	n/a	-999	12	[9, 1, 9]	19.0	catFR1	0	R1045E
1421.421	2.7	1746883	PROB	2.678	n/a	n/a	n/a	-999	12	[4, 3, 2]	9.0	catFR1	0	R1045E
1424.121	2.986	1749583	PROB	2.986	n/a	n/a	n/a	-999	12	[5, 6, 9]	20.0	catFR1	0	R1045E
1427.107	0.015	1752568	STOP	n/a	n/a	n/a	n/a	-999	12	[-999, -999, -999]	n/a	catFR1	0	R1045E
1427.122	1.033	1752583	DISTRACT_END	n/a	n/a	n/a	n/a	-999	12	[0, 0, 0]	n/a	catFR1	0	R1045E
1428.155	1.855	1753616	REC_START	n/a	n/a	n/a	n/a	-999	12	[0, 0, 0]	n/a	catFR1	0	R1045E
1430.01	0.909	1755471	REC_WORD	1.855	n/a	TUNAFISH	n/a	-999	12	[0, 0, 0]	n/a	catFR1	0	R1045E
1430.919	3.013	1756380	REC_WORD	2.764	n/a	SQUID	OceanAnimals	8	12	[0, 0, 0]	n/a	catFR1	0	R1045E
1433.932	1.833	1759393	REC_WORD	5.777	n/a	NOTEBOOK	OfficeSupplies	4	12	[0, 0, 0]	n/a	catFR1	0	R1045E
1435.765	22.403	1761226	REC_WORD	7.61	n/a	PEN	n/a	-999	12	[0, 0, 0]	n/a	catFR1	0	R1045E
1458.168	2.043	1783627	REC_END	n/a	n/a	n/a	n/a	-999	12	[0, 0, 0]	n/a	catFR1	0	R1045E
1460.211	0.0	1785670	TRIAL	n/a	n/a	n/a	n/a	-999	13	[0, 0, 0]	n/a	catFR1	0	R1045E
1460.211	10.0	1785670	COUNTDOWN_START	n/a	n/a	n/a	n/a	-999	13	[0, 0, 0]	n/a	catFR1	0	R1045E
1470.639	0.006	1796097	COUNTDOWN_END	n/a	n/a	n/a	n/a	-999	13	[0, 0, 0]	n/a	catFR1	0	R1045E
1470.645	1.6	1796103	ORIENT	n/a	n/a	n/a	n/a	-999	13	[0, 0, 0]	n/a	catFR1	0	R1045E
1474.33	1.6	1799788	WORD	n/a	wordpools/wordpool_categorized_EN.txt	LAMB	FarmAnimals	1	13	[0, 0, 0]	n/a	catFR1	0	R1045E
1476.729	1.6	1802187	WORD	n/a	wordpools/wordpool_categorized_EN.txt	ROOSTER	FarmAnimals	2	13	[0, 0, 0]	n/a	catFR1	0	R1045E
1479.147	1.6	1804605	WORD	n/a	wordpools/wordpool_categorized_EN.txt	SAW	Tools	3	13	[0, 0, 0]	n/a	catFR1	0	R1045E
1481.68	1.6	1807138	WORD	n/a	wordpools/wordpool_categorized_EN.txt	SCREWDRIVER	Tools	4	13	[0, 0, 0]	n/a	catFR1	0	R1045E
1484.282	1.6	1809740	WORD	n/a	wordpools/wordpool_categorized_EN.txt	FORK	KitchenTools	5	13	[0, 0, 0]	n/a	catFR1	0	R1045E
1486.748	1.6	1812205	WORD	n/a	wordpools/wordpool_categorized_EN.txt	CORKSCREW	KitchenTools	6	13	[0, 0, 0]	n/a	catFR1	0	R1045E
1489.249	1.6	1814706	WORD	n/a	wordpools/wordpool_categorized_EN.txt	SANDER	Tools	7	13	[0, 0, 0]	n/a	catFR1	0	R1045E
1491.682	1.6	1817139	WORD	n/a	wordpools/wordpool_categorized_EN.txt	RATCHET	Tools	8	13	[0, 0, 0]	n/a	catFR1	0	R1045E
1494.2	1.6	1819657	WORD	n/a	wordpools/wordpool_categorized_EN.txt	CHICKEN	FarmAnimals	9	13	[0, 0, 0]	n/a	catFR1	0	R1045E
1496.599	1.6	1822056	WORD	n/a	wordpools/wordpool_categorized_EN.txt	GOAT	FarmAnimals	10	13	[0, 0, 0]	n/a	catFR1	0	R1045E
1499.051	1.6	1824508	WORD	n/a	wordpools/wordpool_categorized_EN.txt	LADLE	KitchenTools	11	13	[0, 0, 0]	n/a	catFR1	0	R1045E
1501.65	1.6	1827106	WORD	n/a	wordpools/wordpool_categorized_EN.txt	SPATULA	KitchenTools	12	13	[0, 0, 0]	n/a	catFR1	0	R1045E
1503.251	0.001	1828707	DISTRACT_START	n/a	n/a	n/a	n/a	-999	13	[0, 0, 0]	n/a	catFR1	0	R1045E
1503.252	0.016	1828708	START	n/a	n/a	n/a	n/a	-999	13	[-999, -999, -999]	n/a	catFR1	0	R1045E
1503.268	5.868	1828724	PROB	5.84	n/a	n/a	n/a	-999	13	[6, 3, 5]	14.0	catFR1	0	R1045E
1509.136	2.734	1834592	PROB	2.7	n/a	n/a	n/a	-999	13	[2, 3, 2]	7.0	catFR1	0	R1045E
1511.87	3.317	1837326	PROB	3.294	n/a	n/a	n/a	-999	13	[9, 9, 2]	20.0	catFR1	0	R1045E
1515.187	2.95	1840642	PROB	2.929	n/a	n/a	n/a	-999	13	[1, 5, 4]	10.0	catFR1	0	R1045E
1518.137	2.533	1843592	PROB	2.498	n/a	n/a	n/a	-999	13	[7, 1, 9]	17.0	catFR1	0	R1045E
1520.67	2.368	1846125	PROB	2.334	n/a	n/a	n/a	-999	13	[2, 1, 9]	12.0	catFR1	0	R1045E
1523.038	2.342	1848493	PROB	2.342	n/a	n/a	n/a	-999	13	[1, 2, 2]	5.0	catFR1	0	R1045E
1525.38	0.009	1850835	STOP	n/a	n/a	n/a	n/a	-999	13	[-999, -999, -999]	n/a	catFR1	0	R1045E
1525.389	1.2	1850844	DISTRACT_END	n/a	n/a	n/a	n/a	-999	13	[0, 0, 0]	n/a	catFR1	0	R1045E
1526.589	3.238	1852044	REC_START	n/a	n/a	n/a	n/a	-999	13	[0, 0, 0]	n/a	catFR1	0	R1045E
1529.827	0.968	1855281	REC_WORD	3.238	n/a	SPATULA	KitchenTools	12	13	[0, 0, 0]	n/a	catFR1	0	R1045E
1530.795	4.891	1856249	REC_WORD	4.206	n/a	LAMB	FarmAnimals	1	13	[0, 0, 0]	n/a	catFR1	0	R1045E
1535.686	15.055	1861140	REC_WORD	9.097	n/a	SCREWDRIVER	Tools	4	13	[0, 0, 0]	n/a	catFR1	0	R1045E
1550.741	5.857	1876194	REC_WORD	24.152	n/a	CORKSCREW	KitchenTools	6	13	[0, 0, 0]	n/a	catFR1	0	R1045E
1556.598	1.43	1882051	REC_END	n/a	n/a	n/a	n/a	-999	13	[0, 0, 0]	n/a	catFR1	0	R1045E
1558.028	10.0	1883481	COUNTDOWN_START	n/a	n/a	n/a	n/a	-999	14	[0, 0, 0]	n/a	catFR1	0	R1045E
1558.028	10.428	1883481	TRIAL	n/a	n/a	n/a	n/a	-999	14	[0, 0, 0]	n/a	catFR1	0	R1045E
1568.456	0.007	1893908	COUNTDOWN_END	n/a	n/a	n/a	n/a	-999	14	[0, 0, 0]	n/a	catFR1	0	R1045E
1568.463	1.6	1893915	ORIENT	n/a	n/a	n/a	n/a	-999	14	[0, 0, 0]	n/a	catFR1	0	R1045E
1572.114	1.6	1897566	WORD	n/a	wordpools/wordpool_categorized_EN.txt	CHEESECAKE	Desserts	1	14	[0, 0, 0]	n/a	catFR1	0	R1045E
1574.514	1.6	1899966	WORD	n/a	wordpools/wordpool_categorized_EN.txt	CUPCAKE	Desserts	2	14	[0, 0, 0]	n/a	catFR1	0	R1045E
1577.048	1.6	1902499	WORD	n/a	wordpools/wordpool_categorized_EN.txt	RECLINER	Furniture	3	14	[0, 0, 0]	n/a	catFR1	0	R1045E
1579.597	1.6	1905048	WORD	n/a	wordpools/wordpool_categorized_EN.txt	TABLE	Furniture	4	14	[0, 0, 0]	n/a	catFR1	0	R1045E
1582.049	1.6	1907500	WORD	n/a	wordpools/wordpool_categorized_EN.txt	TROMBONE	Instruments	5	14	[0, 0, 0]	n/a	catFR1	0	R1045E
1584.466	1.6	1909917	WORD	n/a	wordpools/wordpool_categorized_EN.txt	CELLO	Instruments	6	14	[0, 0, 0]	n/a	catFR1	0	R1045E
1586.95	1.6	1912401	WORD	n/a	wordpools/wordpool_categorized_EN.txt	FUDGE	Desserts	7	14	[0, 0, 0]	n/a	catFR1	0	R1045E
1589.35	1.6	1914801	WORD	n/a	wordpools/wordpool_categorized_EN.txt	COBBLER	Desserts	8	14	[0, 0, 0]	n/a	catFR1	0	R1045E
1591.9	1.6	1917350	WORD	n/a	wordpools/wordpool_categorized_EN.txt	GUITAR	Instruments	9	14	[0, 0, 0]	n/a	catFR1	0	R1045E
1594.368	1.6	1919818	WORD	n/a	wordpools/wordpool_categorized_EN.txt	FLUTE	Instruments	10	14	[0, 0, 0]	n/a	catFR1	0	R1045E
1596.767	1.6	1922217	WORD	n/a	wordpools/wordpool_categorized_EN.txt	DESK	Furniture	11	14	[0, 0, 0]	n/a	catFR1	0	R1045E
1599.185	1.6	1924635	WORD	n/a	wordpools/wordpool_categorized_EN.txt	DRESSER	Furniture	12	14	[0, 0, 0]	n/a	catFR1	0	R1045E
1600.802	0.001	1926252	DISTRACT_START	n/a	n/a	n/a	n/a	-999	14	[0, 0, 0]	n/a	catFR1	0	R1045E
1600.803	0.016	1926253	START	n/a	n/a	n/a	n/a	-999	14	[-999, -999, -999]	n/a	catFR1	0	R1045E
1600.819	3.184	1926269	PROB	3.16	n/a	n/a	n/a	-999	14	[1, 1, 9]	11.0	catFR1	0	R1045E
1604.003	3.067	1929453	PROB	3.032	n/a	n/a	n/a	-999	14	[2, 8, 8]	18.0	catFR1	0	R1045E
1607.07	3.616	1932519	PROB	3.58	n/a	n/a	n/a	-999	14	[4, 3, 3]	10.0	catFR1	0	R1045E
1610.686	2.518	1936135	PROB	2.485	n/a	n/a	n/a	-999	14	[4, 7, 1]	12.0	catFR1	0	R1045E
1613.204	4.034	1938653	PROB	3.998	n/a	n/a	n/a	-999	14	[2, 4, 2]	8.0	catFR1	0	R1045E
1617.238	3.724	1942687	PROB	3.724	n/a	n/a	n/a	-999	14	[7, 8, 3]	18.0	catFR1	0	R1045E
1620.962	0.01	1946410	STOP	n/a	n/a	n/a	n/a	-999	14	[-999, -999, -999]	n/a	catFR1	0	R1045E
1620.972	1.218	1946420	DISTRACT_END	n/a	n/a	n/a	n/a	-999	14	[0, 0, 0]	n/a	catFR1	0	R1045E
1622.19	1.526	1947638	REC_START	n/a	n/a	n/a	n/a	-999	14	[0, 0, 0]	n/a	catFR1	0	R1045E
1623.716	6.825	1949164	REC_WORD	1.526	n/a	CHEESECAKE	Desserts	1	14	[0, 0, 0]	n/a	catFR1	0	R1045E
1630.541	6.494	1955989	REC_WORD	8.351	n/a	SPATULA	n/a	-999	14	[0, 0, 0]	n/a	catFR1	0	R1045E
1637.035	15.164	1962482	REC_WORD	14.845	n/a	COBBLER	Desserts	8	14	[0, 0, 0]	n/a	catFR1	0	R1045E
1652.199	1.345	1977645	REC_END	n/a	n/a	n/a	n/a	-999	14	[0, 0, 0]	n/a	catFR1	0	R1045E
1653.544	0.0	1978990	TRIAL	n/a	n/a	n/a	n/a	-999	15	[0, 0, 0]	n/a	catFR1	0	R1045E
1653.544	10.0	1978990	COUNTDOWN_START	n/a	n/a	n/a	n/a	-999	15	[0, 0, 0]	n/a	catFR1	0	R1045E
1663.972	0.008	1989418	COUNTDOWN_END	n/a	n/a	n/a	n/a	-999	15	[0, 0, 0]	n/a	catFR1	0	R1045E
1663.98	1.6	1989426	ORIENT	n/a	n/a	n/a	n/a	-999	15	[0, 0, 0]	n/a	catFR1	0	R1045E
1667.88	1.6	1993325	WORD	n/a	wordpools/wordpool_categorized_EN.txt	CIDER	Beverages	1	15	[0, 0, 0]	n/a	catFR1	0	R1045E
1670.298	1.6	1995743	WORD	n/a	wordpools/wordpool_categorized_EN.txt	COFFEE	Beverages	2	15	[0, 0, 0]	n/a	catFR1	0	R1045E
1672.73	1.6	1998175	WORD	n/a	wordpools/wordpool_categorized_EN.txt	PASTRY	Desserts	3	15	[0, 0, 0]	n/a	catFR1	0	R1045E
1675.215	1.6	2000660	WORD	n/a	wordpools/wordpool_categorized_EN.txt	PIE	Desserts	4	15	[0, 0, 0]	n/a	catFR1	0	R1045E
1677.648	1.6	2003093	WORD	n/a	wordpools/wordpool_categorized_EN.txt	CEILING	Building	5	15	[0, 0, 0]	n/a	catFR1	0	R1045E
1680.083	1.6	2005527	WORD	n/a	wordpools/wordpool_categorized_EN.txt	ROOF	Building	6	15	[0, 0, 0]	n/a	catFR1	0	R1045E
1682.582	1.6	2008026	WORD	n/a	wordpools/wordpool_categorized_EN.txt	BEER	Beverages	7	15	[0, 0, 0]	n/a	catFR1	0	R1045E
1685.184	1.6	2010628	WORD	n/a	wordpools/wordpool_categorized_EN.txt	LEMONADE	Beverages	8	15	[0, 0, 0]	n/a	catFR1	0	R1045E
1687.75	1.6	2013194	WORD	n/a	wordpools/wordpool_categorized_EN.txt	BATHROOM	Building	9	15	[0, 0, 0]	n/a	catFR1	0	R1045E
1690.334	1.6	2015778	WORD	n/a	wordpools/wordpool_categorized_EN.txt	WINDOW	Building	10	15	[0, 0, 0]	n/a	catFR1	0	R1045E
1692.918	1.6	2018362	WORD	n/a	wordpools/wordpool_categorized_EN.txt	JELLO	Desserts	11	15	[0, 0, 0]	n/a	catFR1	0	R1045E
1695.402	1.6	2020845	WORD	n/a	wordpools/wordpool_categorized_EN.txt	PUDDING	Desserts	12	15	[0, 0, 0]	n/a	catFR1	0	R1045E
1697.019	0.001	2022462	DISTRACT_START	n/a	n/a	n/a	n/a	-999	15	[0, 0, 0]	n/a	catFR1	0	R1045E
1697.02	0.016	2022463	START	n/a	n/a	n/a	n/a	-999	15	[-999, -999, -999]	n/a	catFR1	0	R1045E
1697.036	3.017	2022479	PROB	2.982	n/a	n/a	n/a	-999	15	[5, 1, 6]	12.0	catFR1	0	R1045E
1700.053	2.133	2025496	PROB	2.109	n/a	n/a	n/a	-999	15	[5, 8, 2]	15.0	catFR1	0	R1045E
1702.186	2.517	2027629	PROB	2.495	n/a	n/a	n/a	-999	15	[5, 1, 9]	15.0	catFR1	0	R1045E
1704.703	2.468	2030146	PROB	2.443	n/a	n/a	n/a	-999	15	[3, 2, 7]	12.0	catFR1	0	R1045E
1707.171	2.867	2032614	PROB	2.831	n/a	n/a	n/a	-999	15	[4, 6, 7]	17.0	catFR1	0	R1045E
1710.038	2.9	2035480	PROB	2.868	n/a	n/a	n/a	-999	15	[9, 8, 1]	18.0	catFR1	0	R1045E
1712.938	2.367	2038380	PROB	2.344	n/a	n/a	n/a	-999	15	[2, 4, 6]	12.0	catFR1	0	R1045E
1715.305	3.849	2040747	PROB	3.849	n/a	n/a	n/a	-999	15	[2, 3, 5]	10.0	catFR1	0	R1045E
1719.154	0.019	2044596	STOP	n/a	n/a	n/a	n/a	-999	15	[-999, -999, -999]	n/a	catFR1	0	R1045E
1719.173	1.034	2044615	DISTRACT_END	n/a	n/a	n/a	n/a	-999	15	[0, 0, 0]	n/a	catFR1	0	R1045E
1720.207	1.101	2045649	REC_START	n/a	n/a	n/a	n/a	-999	15	[0, 0, 0]	n/a	catFR1	0	R1045E
1721.308	2.423	2046750	REC_WORD	1.101	n/a	COFFEE	Beverages	2	15	[0, 0, 0]	n/a	catFR1	0	R1045E
1723.731	12.659	2049172	REC_WORD	3.524	n/a	BEER	Beverages	7	15	[0, 0, 0]	n/a	catFR1	0	R1045E
1736.39	13.826	2061831	REC_WORD	16.183	n/a	YOGURT	n/a	-999	15	[0, 0, 0]	n/a	catFR1	0	R1045E
1750.216	2.729	2075656	REC_END	n/a	n/a	n/a	n/a	-999	15	[0, 0, 0]	n/a	catFR1	0	R1045E
1752.945	10.0	2078385	COUNTDOWN_START	n/a	n/a	n/a	n/a	-999	16	[0, 0, 0]	n/a	catFR1	0	R1045E
1752.946	10.427	2078386	TRIAL	n/a	n/a	n/a	n/a	-999	16	[0, 0, 0]	n/a	catFR1	0	R1045E
1763.373	0.008	2088812	COUNTDOWN_END	n/a	n/a	n/a	n/a	-999	16	[0, 0, 0]	n/a	catFR1	0	R1045E
1763.381	1.6	2088820	ORIENT	n/a	n/a	n/a	n/a	-999	16	[0, 0, 0]	n/a	catFR1	0	R1045E
1767.098	1.6	2092537	WORD	n/a	wordpools/wordpool_categorized_EN.txt	ORANGUTAN	Zoo	1	16	[0, 0, 0]	n/a	catFR1	0	R1045E
1769.614	1.6	2095052	WORD	n/a	wordpools/wordpool_categorized_EN.txt	BEAR	Zoo	2	16	[0, 0, 0]	n/a	catFR1	0	R1045E
1772.182	1.6	2097620	WORD	n/a	wordpools/wordpool_categorized_EN.txt	LILY	Flowers	3	16	[0, 0, 0]	n/a	catFR1	0	R1045E
1774.765	1.6	2100203	WORD	n/a	wordpools/wordpool_categorized_EN.txt	CARNATION	Flowers	4	16	[0, 0, 0]	n/a	catFR1	0	R1045E
1777.133	1.6	2102571	WORD	n/a	wordpools/wordpool_categorized_EN.txt	COLANDER	KitchenTools	5	16	[0, 0, 0]	n/a	catFR1	0	R1045E
1779.649	1.6	2105087	WORD	n/a	wordpools/wordpool_categorized_EN.txt	GRATER	KitchenTools	6	16	[0, 0, 0]	n/a	catFR1	0	R1045E
1782.167	1.6	2107605	WORD	n/a	wordpools/wordpool_categorized_EN.txt	GORILLA	Zoo	7	16	[0, 0, 0]	n/a	catFR1	0	R1045E
1784.7	1.6	2110137	WORD	n/a	wordpools/wordpool_categorized_EN.txt	GIRAFFE	Zoo	8	16	[0, 0, 0]	n/a	catFR1	0	R1045E
1787.101	1.6	2112538	WORD	n/a	wordpools/wordpool_categorized_EN.txt	WHISK	KitchenTools	9	16	[0, 0, 0]	n/a	catFR1	0	R1045E
1789.618	1.6	2115055	WORD	n/a	wordpools/wordpool_categorized_EN.txt	TONGS	KitchenTools	10	16	[0, 0, 0]	n/a	catFR1	0	R1045E
1792.036	1.6	2117473	WORD	n/a	wordpools/wordpool_categorized_EN.txt	ROSE	Flowers	11	16	[0, 0, 0]	n/a	catFR1	0	R1045E
1794.652	1.6	2120089	WORD	n/a	wordpools/wordpool_categorized_EN.txt	LILAC	Flowers	12	16	[0, 0, 0]	n/a	catFR1	0	R1045E
1796.27	0.0	2121707	DISTRACT_START	n/a	n/a	n/a	n/a	-999	16	[0, 0, 0]	n/a	catFR1	0	R1045E
1796.27	0.016	2121707	START	n/a	n/a	n/a	n/a	-999	16	[-999, -999, -999]	n/a	catFR1	0	R1045E
1796.286	3.251	2121723	PROB	3.224	n/a	n/a	n/a	-999	16	[1, 4, 1]	6.0	catFR1	0	R1045E
1799.537	2.95	2124973	PROB	2.924	n/a	n/a	n/a	-999	16	[5, 9, 2]	16.0	catFR1	0	R1045E
1802.487	2.768	2127923	PROB	2.743	n/a	n/a	n/a	-999	16	[7, 3, 8]	18.0	catFR1	0	R1045E
1805.255	2.583	2130691	PROB	2.559	n/a	n/a	n/a	-999	16	[3, 6, 5]	14.0	catFR1	0	R1045E
1807.838	1.467	2133274	PROB	1.44	n/a	n/a	n/a	-999	16	[1, 1, 1]	3.0	catFR1	0	R1045E
1809.305	2.801	2134741	PROB	2.764	n/a	n/a	n/a	-999	16	[2, 1, 2]	5.0	catFR1	0	R1045E
1812.106	3.9	2137542	PROB	3.875	n/a	n/a	n/a	-999	16	[8, 1, 6]	15.0	catFR1	0	R1045E
1816.006	2.423	2141441	PROB	2.423	n/a	n/a	n/a	-999	16	[7, 1, 5]	13.0	catFR1	0	R1045E
1818.429	0.011	2143864	STOP	n/a	n/a	n/a	n/a	-999	16	[-999, -999, -999]	n/a	catFR1	0	R1045E
1818.44	1.084	2143875	DISTRACT_END	n/a	n/a	n/a	n/a	-999	16	[0, 0, 0]	n/a	catFR1	0	R1045E
1819.524	3.892	2144959	REC_START	n/a	n/a	n/a	n/a	-999	16	[0, 0, 0]	n/a	catFR1	0	R1045E
1823.416	6.491	2148851	REC_WORD	3.892	n/a	WHISK	KitchenTools	9	16	[0, 0, 0]	n/a	catFR1	0	R1045E
1829.907	3.733	2155341	REC_WORD	10.383	n/a	TONGS	KitchenTools	10	16	[0, 0, 0]	n/a	catFR1	0	R1045E
1833.64	3.31	2159074	REC_WORD	14.116	n/a	GORILLA	Zoo	7	16	[0, 0, 0]	n/a	catFR1	0	R1045E
1836.95	2.716	2162384	REC_WORD	17.426	n/a	BEAR	Zoo	2	16	[0, 0, 0]	n/a	catFR1	0	R1045E
1839.666	4.046	2165100	REC_WORD	20.142	n/a	ORANGUTAN	Zoo	1	16	[0, 0, 0]	n/a	catFR1	0	R1045E
1843.712	5.822	2169145	REC_WORD	24.188	n/a	LILAC	Flowers	12	16	[0, 0, 0]	n/a	catFR1	0	R1045E
1849.534	2.244	2174967	REC_END	n/a	n/a	n/a	n/a	-999	16	[0, 0, 0]	n/a	catFR1	0	R1045E
1851.778	0.0	2177211	TRIAL	n/a	n/a	n/a	n/a	-999	17	[0, 0, 0]	n/a	catFR1	0	R1045E
1851.778	10.0	2177211	COUNTDOWN_START	n/a	n/a	n/a	n/a	-999	17	[0, 0, 0]	n/a	catFR1	0	R1045E
1862.206	0.009	2187638	COUNTDOWN_END	n/a	n/a	n/a	n/a	-999	17	[0, 0, 0]	n/a	catFR1	0	R1045E
1862.215	1.6	2187647	ORIENT	n/a	n/a	n/a	n/a	-999	17	[0, 0, 0]	n/a	catFR1	0	R1045E
1865.882	1.6	2191314	WORD	n/a	wordpools/wordpool_categorized_EN.txt	WATER	Beverages	1	17	[0, 0, 0]	n/a	catFR1	0	R1045E
1868.482	1.6	2193914	WORD	n/a	wordpools/wordpool_categorized_EN.txt	RUM	Beverages	2	17	[0, 0, 0]	n/a	catFR1	0	R1045E
1871.083	1.6	2196515	WORD	n/a	wordpools/wordpool_categorized_EN.txt	SKIRT	Clothing	3	17	[0, 0, 0]	n/a	catFR1	0	R1045E
1873.632	1.6	2199063	WORD	n/a	wordpools/wordpool_categorized_EN.txt	COAT	Clothing	4	17	[0, 0, 0]	n/a	catFR1	0	R1045E
1876.217	1.6	2201648	WORD	n/a	wordpools/wordpool_categorized_EN.txt	LEVEL	Tools	5	17	[0, 0, 0]	n/a	catFR1	0	R1045E
1878.834	1.6	2204265	WORD	n/a	wordpools/wordpool_categorized_EN.txt	PLIERS	Tools	6	17	[0, 0, 0]	n/a	catFR1	0	R1045E
1881.318	1.6	2206749	WORD	n/a	wordpools/wordpool_categorized_EN.txt	UNDERWEAR	Clothing	7	17	[0, 0, 0]	n/a	catFR1	0	R1045E
1883.802	1.6	2209233	WORD	n/a	wordpools/wordpool_categorized_EN.txt	JEANS	Clothing	8	17	[0, 0, 0]	n/a	catFR1	0	R1045E
1886.269	1.6	2211700	WORD	n/a	wordpools/wordpool_categorized_EN.txt	MILK	Beverages	9	17	[0, 0, 0]	n/a	catFR1	0	R1045E
1888.652	1.6	2214082	WORD	n/a	wordpools/wordpool_categorized_EN.txt	SODA	Beverages	10	17	[0, 0, 0]	n/a	catFR1	0	R1045E
1891.153	1.6	2216583	WORD	n/a	wordpools/wordpool_categorized_EN.txt	AXE	Tools	11	17	[0, 0, 0]	n/a	catFR1	0	R1045E
1893.652	1.6	2219082	WORD	n/a	wordpools/wordpool_categorized_EN.txt	WRENCH	Tools	12	17	[0, 0, 0]	n/a	catFR1	0	R1045E
1895.253	0.002	2220683	DISTRACT_START	n/a	n/a	n/a	n/a	-999	17	[0, 0, 0]	n/a	catFR1	0	R1045E
1895.255	0.015	2220685	START	n/a	n/a	n/a	n/a	-999	17	[-999, -999, -999]	n/a	catFR1	0	R1045E
1895.27	3.634	2220700	PROB	3.601	n/a	n/a	n/a	-999	17	[1, 4, 4]	9.0	catFR1	0	R1045E
1898.904	4.501	2224334	PROB	4.471	n/a	n/a	n/a	-999	17	[8, 8, 1]	17.0	catFR1	0	R1045E
1903.405	3.3	2228834	PROB	3.273	n/a	n/a	n/a	-999	17	[2, 6, 1]	9.0	catFR1	0	R1045E
1906.705	3.585	2232134	PROB	3.558	n/a	n/a	n/a	-999	17	[1, 8, 5]	14.0	catFR1	0	R1045E
1910.29	3.667	2235719	PROB	3.646	n/a	n/a	n/a	-999	17	[6, 8, 5]	19.0	catFR1	0	R1045E
1913.957	3.506	2239386	PROB	3.506	n/a	n/a	n/a	-999	17	[1, 4, 1]	6.0	catFR1	0	R1045E
1917.463	0.011	2242892	STOP	n/a	n/a	n/a	n/a	-999	17	[-999, -999, -999]	n/a	catFR1	0	R1045E
1917.474	1.1	2242903	DISTRACT_END	n/a	n/a	n/a	n/a	-999	17	[0, 0, 0]	n/a	catFR1	0	R1045E
1918.574	29.839	2244002	REC_START	n/a	n/a	n/a	n/a	-999	17	[0, 0, 0]	n/a	catFR1	0	R1045E
1948.413	0.171	2273839	REC_WORD	29.839	n/a	PLIERS	Tools	6	17	[0, 0, 0]	n/a	catFR1	0	R1045E
1948.584	3.78	2274010	REC_END	n/a	n/a	n/a	n/a	-999	17	[0, 0, 0]	n/a	catFR1	0	R1045E
1952.364	0.0	2277790	TRIAL	n/a	n/a	n/a	n/a	-999	18	[0, 0, 0]	n/a	catFR1	0	R1045E
1952.364	10.0	2277790	COUNTDOWN_START	n/a	n/a	n/a	n/a	-999	18	[0, 0, 0]	n/a	catFR1	0	R1045E
1962.792	0.007	2288217	COUNTDOWN_END	n/a	n/a	n/a	n/a	-999	18	[0, 0, 0]	n/a	catFR1	0	R1045E
1962.799	1.6	2288224	ORIENT	n/a	n/a	n/a	n/a	-999	18	[0, 0, 0]	n/a	catFR1	0	R1045E
1966.416	1.6	2291841	WORD	n/a	wordpools/wordpool_categorized_EN.txt	HICKORY	Trees	1	18	[0, 0, 0]	n/a	catFR1	0	R1045E
1968.983	1.6	2294408	WORD	n/a	wordpools/wordpool_categorized_EN.txt	WILLOW	Trees	2	18	[0, 0, 0]	n/a	catFR1	0	R1045E
1971.434	1.6	2296859	WORD	n/a	wordpools/wordpool_categorized_EN.txt	BARBIE	Toys	3	18	[0, 0, 0]	n/a	catFR1	0	R1045E
1974.018	1.6	2299443	WORD	n/a	wordpools/wordpool_categorized_EN.txt	BLOCKS	Toys	4	18	[0, 0, 0]	n/a	catFR1	0	R1045E
1976.567	1.6	2301992	WORD	n/a	wordpools/wordpool_categorized_EN.txt	HEN	FarmAnimals	5	18	[0, 0, 0]	n/a	catFR1	0	R1045E
1979.102	1.6	2304526	WORD	n/a	wordpools/wordpool_categorized_EN.txt	CALF	FarmAnimals	6	18	[0, 0, 0]	n/a	catFR1	0	R1045E
1981.701	1.6	2307125	WORD	n/a	wordpools/wordpool_categorized_EN.txt	DOLLHOUSE	Toys	7	18	[0, 0, 0]	n/a	catFR1	0	R1045E
1984.119	1.6	2309543	WORD	n/a	wordpools/wordpool_categorized_EN.txt	BALL	Toys	8	18	[0, 0, 0]	n/a	catFR1	0	R1045E
1986.536	1.6	2311960	WORD	n/a	wordpools/wordpool_categorized_EN.txt	CYPRESS	Trees	9	18	[0, 0, 0]	n/a	catFR1	0	R1045E
1988.987	1.6	2314411	WORD	n/a	wordpools/wordpool_categorized_EN.txt	BIRCH	Trees	10	18	[0, 0, 0]	n/a	catFR1	0	R1045E
1991.421	1.6	2316845	WORD	n/a	wordpools/wordpool_categorized_EN.txt	COW	FarmAnimals	11	18	[0, 0, 0]	n/a	catFR1	0	R1045E
1993.887	1.6	2319310	WORD	n/a	wordpools/wordpool_categorized_EN.txt	HORSE	FarmAnimals	12	18	[0, 0, 0]	n/a	catFR1	0	R1045E
1995.488	0.001	2320911	DISTRACT_START	n/a	n/a	n/a	n/a	-999	18	[0, 0, 0]	n/a	catFR1	0	R1045E
1995.489	0.016	2320912	START	n/a	n/a	n/a	n/a	-999	18	[-999, -999, -999]	n/a	catFR1	0	R1045E
1995.505	3.984	2320928	PROB	3.951	n/a	n/a	n/a	-999	18	[4, 9, 6]	19.0	catFR1	0	R1045E
1999.489	3.317	2324912	PROB	3.286	n/a	n/a	n/a	-999	18	[1, 7, 8]	16.0	catFR1	0	R1045E
2002.806	3.067	2328229	PROB	3.034	n/a	n/a	n/a	-999	18	[7, 5, 8]	20.0	catFR1	0	R1045E
2005.873	3.184	2331296	PROB	3.151	n/a	n/a	n/a	-999	18	[2, 7, 1]	10.0	catFR1	0	R1045E
2009.057	2.45	2334479	PROB	2.415	n/a	n/a	n/a	-999	18	[7, 3, 2]	12.0	catFR1	0	R1045E
2011.507	6.655	2336929	PROB	6.655	n/a	n/a	n/a	-999	18	[6, 7, 5]	18.0	catFR1	0	R1045E
2018.162	0.013	2343584	STOP	n/a	n/a	n/a	n/a	-999	18	[-999, -999, -999]	n/a	catFR1	0	R1045E
2018.175	1.051	2343597	DISTRACT_END	n/a	n/a	n/a	n/a	-999	18	[0, 0, 0]	n/a	catFR1	0	R1045E
2019.226	0.619	2344648	REC_START	n/a	n/a	n/a	n/a	-999	18	[0, 0, 0]	n/a	catFR1	0	R1045E
2019.845	1.695	2345267	REC_WORD	0.619	n/a	BIRCH	Trees	10	18	[0, 0, 0]	n/a	catFR1	0	R1045E
2021.54	5.507	2346962	REC_WORD	2.314	n/a	HICKORY	Trees	1	18	[0, 0, 0]	n/a	catFR1	0	R1045E
2027.047	22.188	2352468	REC_WORD	7.821	n/a	DOLLHOUSE	Toys	7	18	[0, 0, 0]	n/a	catFR1	0	R1045E
2049.235	1.729	2374655	REC_END	n/a	n/a	n/a	n/a	-999	18	[0, 0, 0]	n/a	catFR1	0	R1045E
2050.964	0.0	2376384	TRIAL	n/a	n/a	n/a	n/a	-999	19	[0, 0, 0]	n/a	catFR1	0	R1045E
2050.964	10.0	2376384	COUNTDOWN_START	n/a	n/a	n/a	n/a	-999	19	[0, 0, 0]	n/a	catFR1	0	R1045E
2061.392	0.007	2386811	COUNTDOWN_END	n/a	n/a	n/a	n/a	-999	19	[0, 0, 0]	n/a	catFR1	0	R1045E
2061.399	1.6	2386818	ORIENT	n/a	n/a	n/a	n/a	-999	19	[0, 0, 0]	n/a	catFR1	0	R1045E
2064.95	1.6	2390369	WORD	n/a	wordpools/wordpool_categorized_EN.txt	MARBLES	Toys	1	19	[0, 0, 0]	n/a	catFR1	0	R1045E
2067.417	1.6	2392835	WORD	n/a	wordpools/wordpool_categorized_EN.txt	PUZZLE	Toys	2	19	[0, 0, 0]	n/a	catFR1	0	R1045E
2069.868	1.6	2395286	WORD	n/a	wordpools/wordpool_categorized_EN.txt	ONION	Vegetables	3	19	[0, 0, 0]	n/a	catFR1	0	R1045E
2072.268	1.6	2397686	WORD	n/a	wordpools/wordpool_categorized_EN.txt	CABBAGE	Vegetables	4	19	[0, 0, 0]	n/a	catFR1	0	R1045E
2074.684	1.6	2400102	WORD	n/a	wordpools/wordpool_categorized_EN.txt	VIOLET	Flowers	5	19	[0, 0, 0]	n/a	catFR1	0	R1045E
2077.202	1.6	2402620	WORD	n/a	wordpools/wordpool_categorized_EN.txt	DAFFODIL	Flowers	6	19	[0, 0, 0]	n/a	catFR1	0	R1045E
2079.785	1.6	2405203	WORD	n/a	wordpools/wordpool_categorized_EN.txt	BROCCOLI	Vegetables	7	19	[0, 0, 0]	n/a	catFR1	0	R1045E
2082.153	1.6	2407570	WORD	n/a	wordpools/wordpool_categorized_EN.txt	CAULIFLOWER	Vegetables	8	19	[0, 0, 0]	n/a	catFR1	0	R1045E
2084.669	1.6	2410086	WORD	n/a	wordpools/wordpool_categorized_EN.txt	BASKETBALL	Toys	9	19	[0, 0, 0]	n/a	catFR1	0	R1045E
2087.087	1.6	2412504	WORD	n/a	wordpools/wordpool_categorized_EN.txt	FRISBEE	Toys	10	19	[0, 0, 0]	n/a	catFR1	0	R1045E
2089.521	1.6	2414938	WORD	n/a	wordpools/wordpool_categorized_EN.txt	SUNFLOWER	Flowers	11	19	[0, 0, 0]	n/a	catFR1	0	R1045E
2092.055	1.6	2417472	WORD	n/a	wordpools/wordpool_categorized_EN.txt	DAISY	Flowers	12	19	[0, 0, 0]	n/a	catFR1	0	R1045E
2093.671	0.001	2419088	DISTRACT_START	n/a	n/a	n/a	n/a	-999	19	[0, 0, 0]	n/a	catFR1	0	R1045E
2093.672	0.016	2419089	START	n/a	n/a	n/a	n/a	-999	19	[-999, -999, -999]	n/a	catFR1	0	R1045E
2093.688	3.101	2419105	PROB	3.078	n/a	n/a	n/a	-999	19	[3, 3, 2]	8.0	catFR1	0	R1045E
2096.789	2.45	2422205	PROB	2.417	n/a	n/a	n/a	-999	19	[2, 5, 4]	11.0	catFR1	0	R1045E
2099.239	3.118	2424655	PROB	3.088	n/a	n/a	n/a	-999	19	[9, 2, 7]	18.0	catFR1	0	R1045E
2102.357	3.7	2427773	PROB	3.665	n/a	n/a	n/a	-999	19	[1, 3, 9]	13.0	catFR1	0	R1045E
2106.057	3.5	2431473	PROB	3.477	n/a	n/a	n/a	-999	19	[8, 9, 6]	23.0	catFR1	0	R1045E
2109.557	3.017	2434973	PROB	2.985	n/a	n/a	n/a	-999	19	[5, 9, 2]	16.0	catFR1	0	R1045E
2112.574	3.119	2437989	PROB	3.119	n/a	n/a	n/a	-999	19	[4, 2, 3]	9.0	catFR1	0	R1045E
2115.693	0.015	2441108	STOP	n/a	n/a	n/a	n/a	-999	19	[-999, -999, -999]	n/a	catFR1	0	R1045E
2115.708	1.185	2441123	DISTRACT_END	n/a	n/a	n/a	n/a	-999	19	[0, 0, 0]	n/a	catFR1	0	R1045E
2116.893	0.903	2442308	REC_START	n/a	n/a	n/a	n/a	-999	19	[0, 0, 0]	n/a	catFR1	0	R1045E
2117.796	2.515	2443211	REC_WORD	0.903	n/a	FRISBEE	Toys	10	19	[0, 0, 0]	n/a	catFR1	0	R1045E
2120.311	3.684	2445726	REC_WORD	3.418	n/a	BASKETBALL	Toys	9	19	[0, 0, 0]	n/a	catFR1	0	R1045E
2123.995	0.527	2449410	REC_WORD	7.102	n/a	PUZZLE	Toys	2	19	[0, 0, 0]	n/a	catFR1	0	R1045E
2124.522	22.381	2449937	REC_WORD	7.629	n/a	MARBLES	Toys	1	19	[0, 0, 0]	n/a	catFR1	0	R1045E
2146.903	1.512	2472316	REC_END	n/a	n/a	n/a	n/a	-999	19	[0, 0, 0]	n/a	catFR1	0	R1045E
2148.415	0.0	2473828	TRIAL	n/a	n/a	n/a	n/a	-999	20	[0, 0, 0]	n/a	catFR1	0	R1045E
2148.415	10.0	2473828	COUNTDOWN_START	n/a	n/a	n/a	n/a	-999	20	[0, 0, 0]	n/a	catFR1	0	R1045E
2158.843	0.007	2484255	COUNTDOWN_END	n/a	n/a	n/a	n/a	-999	20	[0, 0, 0]	n/a	catFR1	0	R1045E
2158.85	1.6	2484262	ORIENT	n/a	n/a	n/a	n/a	-999	20	[0, 0, 0]	n/a	catFR1	0	R1045E
2162.484	1.6	2487896	WORD	n/a	wordpools/wordpool_categorized_EN.txt	HALLWAY	Building	1	20	[0, 0, 0]	n/a	catFR1	0	R1045E
2164.984	1.6	2490396	WORD	n/a	wordpools/wordpool_categorized_EN.txt	FLOOR	Building	2	20	[0, 0, 0]	n/a	catFR1	0	R1045E
2167.451	1.6	2492863	WORD	n/a	wordpools/wordpool_categorized_EN.txt	EVERGREEN	Trees	3	20	[0, 0, 0]	n/a	catFR1	0	R1045E
2169.885	1.6	2495297	WORD	n/a	wordpools/wordpool_categorized_EN.txt	MAPLE	Trees	4	20	[0, 0, 0]	n/a	catFR1	0	R1045E
2172.386	1.6	2497797	WORD	n/a	wordpools/wordpool_categorized_EN.txt	VAN	Vehicles	5	20	[0, 0, 0]	n/a	catFR1	0	R1045E
2174.886	1.6	2500297	WORD	n/a	wordpools/wordpool_categorized_EN.txt	SCOOTER	Vehicles	6	20	[0, 0, 0]	n/a	catFR1	0	R1045E
2177.42	1.6	2502831	WORD	n/a	wordpools/wordpool_categorized_EN.txt	STAIRS	Building	7	20	[0, 0, 0]	n/a	catFR1	0	R1045E
2179.97	1.6	2505381	WORD	n/a	wordpools/wordpool_categorized_EN.txt	ROOM	Building	8	20	[0, 0, 0]	n/a	catFR1	0	R1045E
2182.404	1.6	2507815	WORD	n/a	wordpools/wordpool_categorized_EN.txt	MOPED	Vehicles	9	20	[0, 0, 0]	n/a	catFR1	0	R1045E
2185.004	1.6	2510415	WORD	n/a	wordpools/wordpool_categorized_EN.txt	JEEP	Vehicles	10	20	[0, 0, 0]	n/a	catFR1	0	R1045E
2187.455	1.6	2512865	WORD	n/a	wordpools/wordpool_categorized_EN.txt	CEDAR	Trees	11	20	[0, 0, 0]	n/a	catFR1	0	R1045E
2189.972	1.6	2515382	WORD	n/a	wordpools/wordpool_categorized_EN.txt	SPRUCE	Trees	12	20	[0, 0, 0]	n/a	catFR1	0	R1045E
2191.588	0.001	2516998	DISTRACT_START	n/a	n/a	n/a	n/a	-999	20	[0, 0, 0]	n/a	catFR1	0	R1045E
2191.589	0.016	2516999	START	n/a	n/a	n/a	n/a	-999	20	[-999, -999, -999]	n/a	catFR1	0	R1045E
2191.605	2.983	2517015	PROB	2.962	n/a	n/a	n/a	-999	20	[2, 3, 3]	8.0	catFR1	0	R1045E
2194.588	2.952	2519998	PROB	2.924	n/a	n/a	n/a	-999	20	[1, 9, 9]	19.0	catFR1	0	R1045E
2197.54	3.967	2522950	PROB	3.94	n/a	n/a	n/a	-999	20	[6, 2, 9]	17.0	catFR1	0	R1045E
2201.507	2.734	2526916	PROB	2.7	n/a	n/a	n/a	-999	20	[3, 2, 3]	8.0	catFR1	0	R1045E
2204.241	3.568	2529650	PROB	3.542	n/a	n/a	n/a	-999	20	[8, 5, 8]	21.0	catFR1	0	R1045E
2207.809	3.117	2533218	PROB	3.095	n/a	n/a	n/a	-999	20	[4, 7, 1]	12.0	catFR1	0	R1045E
2210.926	6.39	2536335	PROB	6.39	n/a	n/a	n/a	-999	20	[8, 8, 9]	25.0	catFR1	0	R1045E
2217.316	0.028	2542724	STOP	n/a	n/a	n/a	n/a	-999	20	[-999, -999, -999]	n/a	catFR1	0	R1045E
2217.344	1.184	2542752	DISTRACT_END	n/a	n/a	n/a	n/a	-999	20	[0, 0, 0]	n/a	catFR1	0	R1045E
2218.528	2.201	2543936	REC_START	n/a	n/a	n/a	n/a	-999	20	[0, 0, 0]	n/a	catFR1	0	R1045E
2220.729	1.189	2546137	REC_WORD	2.201	n/a	EVERGREEN	Trees	3	20	[0, 0, 0]	n/a	catFR1	0	R1045E
2221.918	2.58	2547326	REC_WORD	3.39	n/a	ROOM	Building	8	20	[0, 0, 0]	n/a	catFR1	0	R1045E
2224.498	2.284	2549906	REC_WORD	5.97	n/a	STAIRS	Building	7	20	[0, 0, 0]	n/a	catFR1	0	R1045E
2226.782	2.131	2552190	REC_WORD	8.254	n/a	SPRUCE	Trees	12	20	[0, 0, 0]	n/a	catFR1	0	R1045E
2228.913	2.352	2554321	REC_WORD	10.385	n/a	BIRCH	n/a	-999	20	[0, 0, 0]	n/a	catFR1	0	R1045E
2231.265	17.272	2556672	REC_WORD	12.737	n/a	MOPED	Vehicles	9	20	[0, 0, 0]	n/a	catFR1	0	R1045E
2248.537	2.396	2573943	REC_END	n/a	n/a	n/a	n/a	-999	20	[0, 0, 0]	n/a	catFR1	0	R1045E
2250.933	0.0	2576339	TRIAL	n/a	n/a	n/a	n/a	-999	21	[0, 0, 0]	n/a	catFR1	0	R1045E
2250.933	10.0	2576339	COUNTDOWN_START	n/a	n/a	n/a	n/a	-999	21	[0, 0, 0]	n/a	catFR1	0	R1045E
2261.361	0.007	2586766	COUNTDOWN_END	n/a	n/a	n/a	n/a	-999	21	[0, 0, 0]	n/a	catFR1	0	R1045E
2261.368	1.6	2586773	ORIENT	n/a	n/a	n/a	n/a	-999	21	[0, 0, 0]	n/a	catFR1	0	R1045E
2265.202	1.6	2590607	WORD	n/a	wordpools/wordpool_categorized_EN.txt	OAK	Trees	1	21	[0, 0, 0]	n/a	catFR1	0	R1045E
2267.802	1.6	2593207	WORD	n/a	wordpools/wordpool_categorized_EN.txt	WALNUT	Trees	2	21	[0, 0, 0]	n/a	catFR1	0	R1045E
2270.303	1.6	2595708	WORD	n/a	wordpools/wordpool_categorized_EN.txt	PHONE	Electronics	3	21	[0, 0, 0]	n/a	catFR1	0	R1045E
2272.769	1.6	2598174	WORD	n/a	wordpools/wordpool_categorized_EN.txt	STEREO	Electronics	4	21	[0, 0, 0]	n/a	catFR1	0	R1045E
2275.237	1.6	2600642	WORD	n/a	wordpools/wordpool_categorized_EN.txt	CHAIR	Furniture	5	21	[0, 0, 0]	n/a	catFR1	0	R1045E
2277.854	1.6	2603258	WORD	n/a	wordpools/wordpool_categorized_EN.txt	COUCH	Furniture	6	21	[0, 0, 0]	n/a	catFR1	0	R1045E
2280.255	1.6	2605659	WORD	n/a	wordpools/wordpool_categorized_EN.txt	ELM	Trees	7	21	[0, 0, 0]	n/a	catFR1	0	R1045E
2282.687	1.6	2608091	WORD	n/a	wordpools/wordpool_categorized_EN.txt	PINE	Trees	8	21	[0, 0, 0]	n/a	catFR1	0	R1045E
2285.255	1.6	2610659	WORD	n/a	wordpools/wordpool_categorized_EN.txt	BED	Furniture	9	21	[0, 0, 0]	n/a	catFR1	0	R1045E
2287.722	1.6	2613126	WORD	n/a	wordpools/wordpool_categorized_EN.txt	CABINET	Furniture	10	21	[0, 0, 0]	n/a	catFR1	0	R1045E
2290.34	1.6	2615743	WORD	n/a	wordpools/wordpool_categorized_EN.txt	PRINTER	Electronics	11	21	[0, 0, 0]	n/a	catFR1	0	R1045E
2292.722	1.6	2618125	WORD	n/a	wordpools/wordpool_categorized_EN.txt	RADIO	Electronics	12	21	[0, 0, 0]	n/a	catFR1	0	R1045E
2294.323	0.001	2619726	DISTRACT_START	n/a	n/a	n/a	n/a	-999	21	[0, 0, 0]	n/a	catFR1	0	R1045E
2294.324	0.016	2619727	START	n/a	n/a	n/a	n/a	-999	21	[-999, -999, -999]	n/a	catFR1	0	R1045E
2294.34	2.634	2619743	PROB	2.612	n/a	n/a	n/a	-999	21	[9, 1, 1]	11.0	catFR1	0	R1045E
2296.974	3.583	2622377	PROB	3.555	n/a	n/a	n/a	-999	21	[9, 7, 9]	25.0	catFR1	0	R1045E
2300.557	2.351	2625960	PROB	2.324	n/a	n/a	n/a	-999	21	[2, 2, 8]	12.0	catFR1	0	R1045E
2302.908	3.667	2628311	PROB	3.644	n/a	n/a	n/a	-999	21	[2, 7, 7]	16.0	catFR1	0	R1045E
2306.575	2.885	2631977	PROB	2.858	n/a	n/a	n/a	-999	21	[1, 7, 9]	17.0	catFR1	0	R1045E
2309.46	3.817	2634862	PROB	3.781	n/a	n/a	n/a	-999	21	[4, 9, 6]	19.0	catFR1	0	R1045E
2313.277	2.747	2638679	PROB	2.747	n/a	n/a	n/a	-999	21	[3, 7, 3]	13.0	catFR1	0	R1045E
2316.024	0.003	2641426	STOP	n/a	n/a	n/a	n/a	-999	21	[-999, -999, -999]	n/a	catFR1	0	R1045E
2316.027	1.068	2641429	DISTRACT_END	n/a	n/a	n/a	n/a	-999	21	[0, 0, 0]	n/a	catFR1	0	R1045E
2317.095	1.446	2642497	REC_START	n/a	n/a	n/a	n/a	-999	21	[0, 0, 0]	n/a	catFR1	0	R1045E
2318.541	6.453	2643943	REC_WORD	1.446	n/a	BED	Furniture	9	21	[0, 0, 0]	n/a	catFR1	0	R1045E
2324.994	6.64	2650395	REC_WORD	7.899	n/a	CHAIR	Furniture	5	21	[0, 0, 0]	n/a	catFR1	0	R1045E
2331.634	8.556	2657035	REC_WORD	14.539	n/a	SPRUCE	n/a	-999	21	[0, 0, 0]	n/a	catFR1	0	R1045E
2340.19	6.914	2665590	REC_WORD	23.095	n/a	SPOON	n/a	-999	21	[0, 0, 0]	n/a	catFR1	0	R1045E
2347.104	1.946	2672504	REC_END	n/a	n/a	n/a	n/a	-999	21	[0, 0, 0]	n/a	catFR1	0	R1045E
2349.05	0.0	2674450	TRIAL	n/a	n/a	n/a	n/a	-999	22	[0, 0, 0]	n/a	catFR1	0	R1045E
2349.05	10.0	2674450	COUNTDOWN_START	n/a	n/a	n/a	n/a	-999	22	[0, 0, 0]	n/a	catFR1	0	R1045E
2359.478	0.024	2684877	COUNTDOWN_END	n/a	n/a	n/a	n/a	-999	22	[0, 0, 0]	n/a	catFR1	0	R1045E
2359.502	1.6	2684901	ORIENT	n/a	n/a	n/a	n/a	-999	22	[0, 0, 0]	n/a	catFR1	0	R1045E
2363.386	1.6	2688785	WORD	n/a	wordpools/wordpool_categorized_EN.txt	FREEZER	Appliances	1	22	[0, 0, 0]	n/a	catFR1	0	R1045E
2365.953	1.6	2691351	WORD	n/a	wordpools/wordpool_categorized_EN.txt	TOASTER	Appliances	2	22	[0, 0, 0]	n/a	catFR1	0	R1045E
2368.569	1.6	2693967	WORD	n/a	wordpools/wordpool_categorized_EN.txt	GNAT	Insects	3	22	[0, 0, 0]	n/a	catFR1	0	R1045E
2371.021	1.6	2696419	WORD	n/a	wordpools/wordpool_categorized_EN.txt	ANT	Insects	4	22	[0, 0, 0]	n/a	catFR1	0	R1045E
2373.57	1.6	2698968	WORD	n/a	wordpools/wordpool_categorized_EN.txt	POTATO	Vegetables	5	22	[0, 0, 0]	n/a	catFR1	0	R1045E
2376.105	1.6	2701503	WORD	n/a	wordpools/wordpool_categorized_EN.txt	CORN	Vegetables	6	22	[0, 0, 0]	n/a	catFR1	0	R1045E
2378.522	1.6	2703920	WORD	n/a	wordpools/wordpool_categorized_EN.txt	MOTH	Insects	7	22	[0, 0, 0]	n/a	catFR1	0	R1045E
2381.139	1.6	2706536	WORD	n/a	wordpools/wordpool_categorized_EN.txt	BEETLE	Insects	8	22	[0, 0, 0]	n/a	catFR1	0	R1045E
2383.672	1.6	2709069	WORD	n/a	wordpools/wordpool_categorized_EN.txt	IRON	Appliances	9	22	[0, 0, 0]	n/a	catFR1	0	R1045E
2386.273	1.6	2711670	WORD	n/a	wordpools/wordpool_categorized_EN.txt	OVEN	Appliances	10	22	[0, 0, 0]	n/a	catFR1	0	R1045E
2388.79	1.6	2714187	WORD	n/a	wordpools/wordpool_categorized_EN.txt	LETTUCE	Vegetables	11	22	[0, 0, 0]	n/a	catFR1	0	R1045E
2391.207	1.6	2716604	WORD	n/a	wordpools/wordpool_categorized_EN.txt	CARROT	Vegetables	12	22	[0, 0, 0]	n/a	catFR1	0	R1045E
2392.824	0.001	2718221	DISTRACT_START	n/a	n/a	n/a	n/a	-999	22	[0, 0, 0]	n/a	catFR1	0	R1045E
2392.825	0.016	2718222	START	n/a	n/a	n/a	n/a	-999	22	[-999, -999, -999]	n/a	catFR1	0	R1045E
2392.841	3.551	2718238	PROB	3.526	n/a	n/a	n/a	-999	22	[8, 4, 3]	15.0	catFR1	0	R1045E
2396.392	2.733	2721788	PROB	2.702	n/a	n/a	n/a	-999	22	[6, 2, 4]	12.0	catFR1	0	R1045E
2399.125	2.65	2724521	PROB	2.624	n/a	n/a	n/a	-999	22	[5, 5, 9]	19.0	catFR1	0	R1045E
2401.775	3.301	2727171	PROB	3.279	n/a	n/a	n/a	-999	22	[4, 4, 7]	15.0	catFR1	0	R1045E
2405.076	3.401	2730472	PROB	3.379	n/a	n/a	n/a	-999	22	[5, 4, 9]	18.0	catFR1	0	R1045E
2408.477	3.917	2733873	PROB	3.889	n/a	n/a	n/a	-999	22	[4, 7, 4]	15.0	catFR1	0	R1045E
2412.394	3.084	2737789	PROB	3.084	n/a	n/a	n/a	-999	22	[4, 9, 4]	17.0	catFR1	0	R1045E
2415.478	0.017	2740873	STOP	n/a	n/a	n/a	n/a	-999	22	[-999, -999, -999]	n/a	catFR1	0	R1045E
2415.495	1.1	2740890	DISTRACT_END	n/a	n/a	n/a	n/a	-999	22	[0, 0, 0]	n/a	catFR1	0	R1045E
2416.595	1.43	2741990	REC_START	n/a	n/a	n/a	n/a	-999	22	[0, 0, 0]	n/a	catFR1	0	R1045E
2418.025	0.856	2743420	REC_WORD	1.43	n/a	GNAT	Insects	3	22	[0, 0, 0]	n/a	catFR1	0	R1045E
2418.881	1.219	2744276	REC_WORD	2.286	n/a	POTATO	Vegetables	5	22	[0, 0, 0]	n/a	catFR1	0	R1045E
2420.1	12.284	2745495	REC_WORD	3.505	n/a	CORN	Vegetables	6	22	[0, 0, 0]	n/a	catFR1	0	R1045E
2432.384	13.706	2757778	REC_WORD	15.789	n/a	FLY	n/a	-999	22	[0, 0, 0]	n/a	catFR1	0	R1045E
2446.09	0.515	2771483	REC_WORD	29.495	n/a	IRON	Appliances	9	22	[0, 0, 0]	n/a	catFR1	0	R1045E
2446.605	2.929	2771998	REC_END	n/a	n/a	n/a	n/a	-999	22	[0, 0, 0]	n/a	catFR1	0	R1045E
2449.534	0.0	2774927	TRIAL	n/a	n/a	n/a	n/a	-999	23	[0, 0, 0]	n/a	catFR1	0	R1045E
2449.534	10.0	2774927	COUNTDOWN_START	n/a	n/a	n/a	n/a	-999	23	[0, 0, 0]	n/a	catFR1	0	R1045E
2459.962	0.007	2785354	COUNTDOWN_END	n/a	n/a	n/a	n/a	-999	23	[0, 0, 0]	n/a	catFR1	0	R1045E
2459.969	1.6	2785361	ORIENT	n/a	n/a	n/a	n/a	-999	23	[0, 0, 0]	n/a	catFR1	0	R1045E
2463.619	1.6	2789011	WORD	n/a	wordpools/wordpool_categorized_EN.txt	GOOSE	Birds	1	23	[0, 0, 0]	n/a	catFR1	0	R1045E
2466.204	1.6	2791596	WORD	n/a	wordpools/wordpool_categorized_EN.txt	FINCH	Birds	2	23	[0, 0, 0]	n/a	catFR1	0	R1045E
2468.77	1.6	2794162	WORD	n/a	wordpools/wordpool_categorized_EN.txt	BASS	Instruments	3	23	[0, 0, 0]	n/a	catFR1	0	R1045E
2471.305	1.6	2796696	WORD	n/a	wordpools/wordpool_categorized_EN.txt	VIOLIN	Instruments	4	23	[0, 0, 0]	n/a	catFR1	0	R1045E
2473.704	1.6	2799095	WORD	n/a	wordpools/wordpool_categorized_EN.txt	LAKE	Landscapes	5	23	[0, 0, 0]	n/a	catFR1	0	R1045E
2476.255	1.6	2801646	WORD	n/a	wordpools/wordpool_categorized_EN.txt	CREEK	Landscapes	6	23	[0, 0, 0]	n/a	catFR1	0	R1045E
2478.873	1.6	2804264	WORD	n/a	wordpools/wordpool_categorized_EN.txt	SPARROW	Birds	7	23	[0, 0, 0]	n/a	catFR1	0	R1045E
2481.273	1.6	2806664	WORD	n/a	wordpools/wordpool_categorized_EN.txt	DUCK	Birds	8	23	[0, 0, 0]	n/a	catFR1	0	R1045E
2483.706	1.6	2809097	WORD	n/a	wordpools/wordpool_categorized_EN.txt	VALLEY	Landscapes	9	23	[0, 0, 0]	n/a	catFR1	0	R1045E
2486.257	1.6	2811647	WORD	n/a	wordpools/wordpool_categorized_EN.txt	RIVER	Landscapes	10	23	[0, 0, 0]	n/a	catFR1	0	R1045E
2488.757	1.6	2814147	WORD	n/a	wordpools/wordpool_categorized_EN.txt	TRUMPET	Instruments	11	23	[0, 0, 0]	n/a	catFR1	0	R1045E
2491.242	1.6	2816632	WORD	n/a	wordpools/wordpool_categorized_EN.txt	TUBA	Instruments	12	23	[0, 0, 0]	n/a	catFR1	0	R1045E
2492.859	0.0	2818249	DISTRACT_START	n/a	n/a	n/a	n/a	-999	23	[0, 0, 0]	n/a	catFR1	0	R1045E
2492.859	0.016	2818249	START	n/a	n/a	n/a	n/a	-999	23	[-999, -999, -999]	n/a	catFR1	0	R1045E
2492.875	2.9	2818265	PROB	2.874	n/a	n/a	n/a	-999	23	[1, 9, 2]	12.0	catFR1	0	R1045E
2495.775	2.817	2821165	PROB	2.79	n/a	n/a	n/a	-999	23	[4, 8, 3]	15.0	catFR1	0	R1045E
2498.592	4.117	2823982	PROB	4.085	n/a	n/a	n/a	-999	23	[4, 6, 9]	19.0	catFR1	0	R1045E
2502.709	3.934	2828098	PROB	3.904	n/a	n/a	n/a	-999	23	[8, 9, 3]	20.0	catFR1	0	R1045E
2506.643	5.886	2832032	PROB	5.859	n/a	n/a	n/a	-999	23	[9, 8, 3]	20.0	catFR1	0	R1045E
2512.529	4.747	2837918	PROB	4.747	n/a	n/a	n/a	-999	23	[5, 1, 7]	13.0	catFR1	0	R1045E
2517.276	0.02	2842664	STOP	n/a	n/a	n/a	n/a	-999	23	[-999, -999, -999]	n/a	catFR1	0	R1045E
2517.296	1.068	2842684	DISTRACT_END	n/a	n/a	n/a	n/a	-999	23	[0, 0, 0]	n/a	catFR1	0	R1045E
2518.364	1.872	2843752	REC_START	n/a	n/a	n/a	n/a	-999	23	[0, 0, 0]	n/a	catFR1	0	R1045E
2520.236	0.927	2845624	REC_WORD	1.872	n/a	VALLEY	Landscapes	9	23	[0, 0, 0]	n/a	catFR1	0	R1045E
2521.163	12.253	2846551	REC_WORD	2.799	n/a	RIVER	Landscapes	10	23	[0, 0, 0]	n/a	catFR1	0	R1045E
2533.416	1.02	2858803	REC_WORD	15.052	n/a	BASS	Instruments	3	23	[0, 0, 0]	n/a	catFR1	0	R1045E
2534.436	1.892	2859823	REC_WORD	16.072	n/a	TUBA	Instruments	12	23	[0, 0, 0]	n/a	catFR1	0	R1045E
2536.328	6.59	2861715	REC_WORD	17.964	n/a	TRUMPET	Instruments	11	23	[0, 0, 0]	n/a	catFR1	0	R1045E
2542.918	5.454	2868305	REC_WORD	24.554	n/a	LAKE	Landscapes	5	23	[0, 0, 0]	n/a	catFR1	0	R1045E
2548.372	6.514	2873758	REC_END	n/a	n/a	n/a	n/a	-999	23	[0, 0, 0]	n/a	catFR1	0	R1045E
2554.886	0.0	2880272	TRIAL	n/a	n/a	n/a	n/a	-999	24	[0, 0, 0]	n/a	catFR1	0	R1045E
2554.886	10.0	2880272	COUNTDOWN_START	n/a	n/a	n/a	n/a	-999	24	[0, 0, 0]	n/a	catFR1	0	R1045E
2565.314	0.007	2890699	COUNTDOWN_END	n/a	n/a	n/a	n/a	-999	24	[0, 0, 0]	n/a	catFR1	0	R1045E
2565.321	1.6	2890706	ORIENT	n/a	n/a	n/a	n/a	-999	24	[0, 0, 0]	n/a	catFR1	0	R1045E
2568.822	1.6	2894207	WORD	n/a	wordpools/wordpool_categorized_EN.txt	PIANO	Instruments	1	24	[0, 0, 0]	n/a	catFR1	0	R1045E
2571.322	1.6	2896707	WORD	n/a	wordpools/wordpool_categorized_EN.txt	ORGAN	Instruments	2	24	[0, 0, 0]	n/a	catFR1	0	R1045E
2573.906	1.6	2899290	WORD	n/a	wordpools/wordpool_categorized_EN.txt	TEA	Beverages	3	24	[0, 0, 0]	n/a	catFR1	0	R1045E
2576.306	1.6	2901690	WORD	n/a	wordpools/wordpool_categorized_EN.txt	JUICE	Beverages	4	24	[0, 0, 0]	n/a	catFR1	0	R1045E
2578.924	1.6	2904308	WORD	n/a	wordpools/wordpool_categorized_EN.txt	RULER	OfficeSupplies	5	24	[0, 0, 0]	n/a	catFR1	0	R1045E
2581.307	1.6	2906691	WORD	n/a	wordpools/wordpool_categorized_EN.txt	FOLDER	OfficeSupplies	6	24	[0, 0, 0]	n/a	catFR1	0	R1045E
2583.891	1.6	2909275	WORD	n/a	wordpools/wordpool_categorized_EN.txt	DRUM	Instruments	7	24	[0, 0, 0]	n/a	catFR1	0	R1045E
2586.292	1.6	2911676	WORD	n/a	wordpools/wordpool_categorized_EN.txt	BANJO	Instruments	8	24	[0, 0, 0]	n/a	catFR1	0	R1045E
2588.909	1.6	2914292	WORD	n/a	wordpools/wordpool_categorized_EN.txt	PEN	OfficeSupplies	9	24	[0, 0, 0]	n/a	catFR1	0	R1045E
2591.309	1.6	2916692	WORD	n/a	wordpools/wordpool_categorized_EN.txt	MARKER	OfficeSupplies	10	24	[0, 0, 0]	n/a	catFR1	0	R1045E
2593.793	1.6	2919176	WORD	n/a	wordpools/wordpool_categorized_EN.txt	COLA	Beverages	11	24	[0, 0, 0]	n/a	catFR1	0	R1045E
2596.41	1.6	2921793	WORD	n/a	wordpools/wordpool_categorized_EN.txt	WINE	Beverages	12	24	[0, 0, 0]	n/a	catFR1	0	R1045E
2598.027	0.001	2923410	DISTRACT_START	n/a	n/a	n/a	n/a	-999	24	[0, 0, 0]	n/a	catFR1	0	R1045E
2598.028	0.016	2923411	START	n/a	n/a	n/a	n/a	-999	24	[-999, -999, -999]	n/a	catFR1	0	R1045E
2598.044	3.334	2923427	PROB	3.311	n/a	n/a	n/a	-999	24	[4, 1, 1]	6.0	catFR1	0	R1045E
2601.378	2.933	2926761	PROB	2.897	n/a	n/a	n/a	-999	24	[4, 4, 7]	15.0	catFR1	0	R1045E
2604.311	3.084	2929693	PROB	3.06	n/a	n/a	n/a	-999	24	[5, 1, 1]	7.0	catFR1	0	R1045E
2607.395	3.183	2932777	PROB	3.151	n/a	n/a	n/a	-999	24	[2, 2, 4]	8.0	catFR1	0	R1045E
2610.578	2.368	2935960	PROB	2.337	n/a	n/a	n/a	-999	24	[3, 1, 9]	13.0	catFR1	0	R1045E
2612.946	2.451	2938328	PROB	2.417	n/a	n/a	n/a	-999	24	[3, 2, 8]	13.0	catFR1	0	R1045E
2615.397	2.484	2940779	PROB	2.462	n/a	n/a	n/a	-999	24	[6, 4, 8]	18.0	catFR1	0	R1045E
2617.881	3.355	2943263	PROB	3.355	n/a	n/a	n/a	-999	24	[3, 8, 3]	14.0	catFR1	0	R1045E
2621.236	0.012	2946617	STOP	n/a	n/a	n/a	n/a	-999	24	[-999, -999, -999]	n/a	catFR1	0	R1045E
2621.248	1.15	2946629	DISTRACT_END	n/a	n/a	n/a	n/a	-999	24	[0, 0, 0]	n/a	catFR1	0	R1045E
2622.398	1.471	2947779	REC_START	n/a	n/a	n/a	n/a	-999	24	[0, 0, 0]	n/a	catFR1	0	R1045E
2623.869	7.729	2949250	REC_WORD	1.471	n/a	RULER	OfficeSupplies	5	24	[0, 0, 0]	n/a	catFR1	0	R1045E
2631.598	12.08	2956979	REC_WORD	9.2	n/a	PEN	OfficeSupplies	9	24	[0, 0, 0]	n/a	catFR1	0	R1045E
2643.678	8.734	2969058	REC_WORD	21.28	n/a	COLA	Beverages	11	24	[0, 0, 0]	n/a	catFR1	0	R1045E
2652.412	2.375	2977791	REC_END	n/a	n/a	n/a	n/a	-999	24	[0, 0, 0]	n/a	catFR1	0	R1045E
2654.787	0.0	2980166	TRIAL	n/a	n/a	n/a	n/a	-999	25	[0, 0, 0]	n/a	catFR1	0	R1045E
2654.787	10.0	2980166	COUNTDOWN_START	n/a	n/a	n/a	n/a	-999	25	[0, 0, 0]	n/a	catFR1	0	R1045E
2665.215	0.007	2990593	COUNTDOWN_END	n/a	n/a	n/a	n/a	-999	25	[0, 0, 0]	n/a	catFR1	0	R1045E
2665.222	1.6	2990600	ORIENT	n/a	n/a	n/a	n/a	-999	25	[0, 0, 0]	n/a	catFR1	0	R1045E
2668.772	1.6	2994150	WORD	n/a	wordpools/wordpool_categorized_EN.txt	SLINKY	Toys	1	25	[0, 0, 0]	n/a	catFR1	0	R1045E
2671.273	1.6	2996651	WORD	n/a	wordpools/wordpool_categorized_EN.txt	BASEBALL	Toys	2	25	[0, 0, 0]	n/a	catFR1	0	R1045E
2673.807	1.6	2999185	WORD	n/a	wordpools/wordpool_categorized_EN.txt	CRAB	OceanAnimals	3	25	[0, 0, 0]	n/a	catFR1	0	R1045E
2676.207	1.6	3001585	WORD	n/a	wordpools/wordpool_categorized_EN.txt	LOBSTER	OceanAnimals	4	25	[0, 0, 0]	n/a	catFR1	0	R1045E
2678.723	1.6	3004100	WORD	n/a	wordpools/wordpool_categorized_EN.txt	SNOW	Weather	5	25	[0, 0, 0]	n/a	catFR1	0	R1045E
2681.108	1.6	3006485	WORD	n/a	wordpools/wordpool_categorized_EN.txt	DRIZZLE	Weather	6	25	[0, 0, 0]	n/a	catFR1	0	R1045E
2683.574	1.6	3008951	WORD	n/a	wordpools/wordpool_categorized_EN.txt	FOOTBALL	Toys	7	25	[0, 0, 0]	n/a	catFR1	0	R1045E
2686.026	1.6	3011403	WORD	n/a	wordpools/wordpool_categorized_EN.txt	DOLL	Toys	8	25	[0, 0, 0]	n/a	catFR1	0	R1045E
2688.575	1.6	3013952	WORD	n/a	wordpools/wordpool_categorized_EN.txt	HURRICANE	Weather	9	25	[0, 0, 0]	n/a	catFR1	0	R1045E
2690.943	1.6	3016320	WORD	n/a	wordpools/wordpool_categorized_EN.txt	WIND	Weather	10	25	[0, 0, 0]	n/a	catFR1	0	R1045E
2693.527	1.6	3018903	WORD	n/a	wordpools/wordpool_categorized_EN.txt	SHRIMP	OceanAnimals	11	25	[0, 0, 0]	n/a	catFR1	0	R1045E
2695.944	1.6	3021320	WORD	n/a	wordpools/wordpool_categorized_EN.txt	TURTLE	OceanAnimals	12	25	[0, 0, 0]	n/a	catFR1	0	R1045E
2697.56	0.001	3022936	DISTRACT_START	n/a	n/a	n/a	n/a	-999	25	[0, 0, 0]	n/a	catFR1	0	R1045E
2697.561	0.016	3022937	START	n/a	n/a	n/a	n/a	-999	25	[-999, -999, -999]	n/a	catFR1	0	R1045E
2697.577	4.518	3022953	PROB	4.499	n/a	n/a	n/a	-999	25	[8, 7, 3]	18.0	catFR1	0	R1045E
2702.095	2.817	3027471	PROB	2.797	n/a	n/a	n/a	-999	25	[8, 8, 2]	18.0	catFR1	0	R1045E
2704.912	2.717	3030288	PROB	2.691	n/a	n/a	n/a	-999	25	[3, 7, 5]	15.0	catFR1	0	R1045E
2707.629	2.684	3033005	PROB	2.663	n/a	n/a	n/a	-999	25	[2, 2, 7]	11.0	catFR1	0	R1045E
2710.313	3.784	3035688	PROB	3.755	n/a	n/a	n/a	-999	25	[8, 9, 7]	24.0	catFR1	0	R1045E
2714.097	2.768	3039472	PROB	2.739	n/a	n/a	n/a	-999	25	[9, 9, 5]	23.0	catFR1	0	R1045E
2716.865	6.428	3042240	PROB	6.428	n/a	n/a	n/a	-999	25	[6, 8, 9]	23.0	catFR1	0	R1045E
2723.293	0.006	3048667	STOP	n/a	n/a	n/a	n/a	-999	25	[-999, -999, -999]	n/a	catFR1	0	R1045E
2723.299	1.101	3048673	DISTRACT_END	n/a	n/a	n/a	n/a	-999	25	[0, 0, 0]	n/a	catFR1	0	R1045E
2724.4	0.898	3049774	REC_START	n/a	n/a	n/a	n/a	-999	25	[0, 0, 0]	n/a	catFR1	0	R1045E
2725.298	1.889	3050672	REC_WORD	0.898	n/a	FOOTBALL	Toys	7	25	[0, 0, 0]	n/a	catFR1	0	R1045E
2727.187	27.222	3052561	REC_WORD	2.787	n/a	BASEBALL	Toys	2	25	[0, 0, 0]	n/a	catFR1	0	R1045E
2754.409	38.452	3079781	REC_END	n/a	n/a	n/a	n/a	-999	25	[0, 0, 0]	n/a	catFR1	0	R1045E
2792.861	0.0	3118231	SESS_END	n/a	n/a	n/a	n/a	-999	25	[0, 0, 0]	n/a	catFR1	0	R1045E
