onset	duration	sample	trial_type	response_time	stim_file	item_name	category	serialpos	list	test	answer	experiment	session	subject
0.0	161.699	157677	INSTRUCT_START	n/a	n/a	n/a	n/a	-999	-999	[0, 0, 0]	n/a	catFR1	3	R1397D
161.699	55.1	319363	INSTRUCT_END	n/a	n/a	n/a	n/a	-999	-999	[0, 0, 0]	n/a	catFR1	3	R1397D
216.799	10.35	374459	COUNTDOWN_START	n/a	n/a	n/a	n/a	-999	-999	[0, 0, 0]	n/a	catFR1	3	R1397D
227.149	0.0	384814	COUNTDOWN_END	n/a	n/a	n/a	n/a	-999	-999	[0, 0, 0]	n/a	catFR1	3	R1397D
227.149	2.017	384814	ENCODING_START	n/a	n/a	n/a	n/a	-999	-1	[0, 0, 0]	n/a	catFR1	3	R1397D
229.166	1.616	386829	WORD	n/a	n/a	BEACH	Landscapes	1	-1	[0, 0, 0]	n/a	catFR1	3	R1397D
230.782	1.0	388448	WORD_OFF	n/a	n/a	BEACH	Landscapes	1	-1	[0, 0, 0]	n/a	catFR1	3	R1397D
231.782	1.6	389440	WORD	n/a	n/a	LAKE	Landscapes	2	-1	[0, 0, 0]	n/a	catFR1	3	R1397D
233.382	0.95	391040	WORD_OFF	n/a	n/a	LAKE	Landscapes	2	-1	[0, 0, 0]	n/a	catFR1	3	R1397D
234.332	1.617	391991	WORD	n/a	n/a	MOPED	Vehicles	3	-1	[0, 0, 0]	n/a	catFR1	3	R1397D
235.949	0.767	393611	WORD_OFF	n/a	n/a	MOPED	Vehicles	3	-1	[0, 0, 0]	n/a	catFR1	3	R1397D
236.716	1.616	394380	WORD	n/a	n/a	TRAIN	Vehicles	4	-1	[0, 0, 0]	n/a	catFR1	3	R1397D
238.332	0.95	395989	WORD_OFF	n/a	n/a	TRAIN	Vehicles	4	-1	[0, 0, 0]	n/a	catFR1	3	R1397D
239.282	1.616	396941	WORD	n/a	n/a	UNDERWEAR	Clothing	5	-1	[0, 0, 0]	n/a	catFR1	3	R1397D
240.898	0.768	398561	WORD_OFF	n/a	n/a	UNDERWEAR	Clothing	5	-1	[0, 0, 0]	n/a	catFR1	3	R1397D
241.666	1.616	399330	WORD	n/a	n/a	SHIRT	Clothing	6	-1	[0, 0, 0]	n/a	catFR1	3	R1397D
243.282	0.917	400939	WORD_OFF	n/a	n/a	SHIRT	Clothing	6	-1	[0, 0, 0]	n/a	catFR1	3	R1397D
244.199	1.6	401860	WORD	n/a	n/a	HILLS	Landscapes	7	-1	[0, 0, 0]	n/a	catFR1	3	R1397D
245.799	0.85	403460	WORD_OFF	n/a	n/a	HILLS	Landscapes	7	-1	[0, 0, 0]	n/a	catFR1	3	R1397D
246.649	1.6	404310	WORD	n/a	n/a	ISLAND	Landscapes	8	-1	[0, 0, 0]	n/a	catFR1	3	R1397D
248.249	0.883	405909	WORD_OFF	n/a	n/a	ISLAND	Landscapes	8	-1	[0, 0, 0]	n/a	catFR1	3	R1397D
249.132	1.617	406790	WORD	n/a	n/a	JEEP	Vehicles	9	-1	[0, 0, 0]	n/a	catFR1	3	R1397D
250.749	0.916	408410	WORD_OFF	n/a	n/a	JEEP	Vehicles	9	-1	[0, 0, 0]	n/a	catFR1	3	R1397D
251.665	1.601	409331	WORD	n/a	n/a	BUS	Vehicles	10	-1	[0, 0, 0]	n/a	catFR1	3	R1397D
253.266	0.999	410930	WORD_OFF	n/a	n/a	BUS	Vehicles	10	-1	[0, 0, 0]	n/a	catFR1	3	R1397D
254.265	1.6	411922	WORD	n/a	n/a	BLOUSE	Clothing	11	-1	[0, 0, 0]	n/a	catFR1	3	R1397D
255.865	0.817	413522	WORD_OFF	n/a	n/a	BLOUSE	Clothing	11	-1	[0, 0, 0]	n/a	catFR1	3	R1397D
256.682	1.617	414341	WORD	n/a	n/a	SHOES	Clothing	12	-1	[0, 0, 0]	n/a	catFR1	3	R1397D
258.299	0.002	415961	WORD_OFF	n/a	n/a	SHOES	Clothing	12	-1	[0, 0, 0]	n/a	catFR1	3	R1397D
258.301	0.0	415961	ENCODING_END	n/a	n/a	n/a	n/a	-999	-1	[0, 0, 0]	n/a	catFR1	3	R1397D
258.301	0.0	415961	DISTRACT_START	n/a	n/a	n/a	n/a	-999	-1	[0, 0, 0]	n/a	catFR1	3	R1397D
258.301	0.0	415961	START	n/a	n/a	n/a	n/a	-999	-1	[-999, -999, -999]	n/a	catFR1	3	R1397D
258.301	4.165	415961	PROB	4.149	n/a	n/a	n/a	-999	-1	[3, 2, 8]	13.0	catFR1	3	R1397D
262.466	6.5	420126	PROB	6.483	n/a	n/a	n/a	-999	-1	[7, 6, 5]	18.0	catFR1	3	R1397D
268.966	5.484	426625	PROB	5.466	n/a	n/a	n/a	-999	-1	[2, 7, 4]	13.0	catFR1	3	R1397D
274.45	5.415	432109	PROB	5.399	n/a	n/a	n/a	-999	-1	[4, 2, 6]	12.0	catFR1	3	R1397D
279.865	0.0	437522	DISTRACT_END	n/a	n/a	n/a	n/a	-999	-1	[0, 0, 0]	n/a	catFR1	3	R1397D
279.865	2.25	437524	STOP	n/a	n/a	n/a	n/a	-999	-1	[-999, -999, -999]	n/a	catFR1	3	R1397D
282.115	1.464	439777	REC_START	n/a	n/a	n/a	n/a	-999	-1	[0, 0, 0]	n/a	catFR1	3	R1397D
283.579	1.11	441238	REC_WORD	1.464	n/a	BEACH	Landscapes	1	-1	[0, 0, 0]	n/a	catFR1	3	R1397D
284.689	1.05	442348	REC_WORD	2.574	n/a	BUS	Vehicles	10	-1	[0, 0, 0]	n/a	catFR1	3	R1397D
285.739	1.207	443397	REC_WORD	3.624	n/a	MOPED	Vehicles	3	-1	[0, 0, 0]	n/a	catFR1	3	R1397D
286.946	1.221	444604	REC_WORD	4.831	n/a	LAKE	Landscapes	2	-1	[0, 0, 0]	n/a	catFR1	3	R1397D
288.167	1.248	445825	REC_WORD	6.052	n/a	BLOUSE	Clothing	11	-1	[0, 0, 0]	n/a	catFR1	3	R1397D
289.415	4.645	447073	REC_WORD	7.3	n/a	SHOES	Clothing	12	-1	[0, 0, 0]	n/a	catFR1	3	R1397D
294.06	18.328	451718	REC_WORD	11.945	n/a	SKIRT	n/a	-999	-1	[0, 0, 0]	n/a	catFR1	3	R1397D
312.388	8.994	470045	REC_END	n/a	n/a	n/a	n/a	-999	-1	[0, 0, 0]	n/a	catFR1	3	R1397D
321.382	10.351	479044	COUNTDOWN_START	n/a	n/a	n/a	n/a	-999	1	[0, 0, 0]	n/a	catFR1	3	R1397D
331.733	0.0	489389	COUNTDOWN_END	n/a	n/a	n/a	n/a	-999	1	[0, 0, 0]	n/a	catFR1	3	R1397D
331.733	2.099	489389	ENCODING_START	n/a	n/a	n/a	n/a	-999	1	[0, 0, 0]	n/a	catFR1	3	R1397D
333.832	1.616	491485	WORD	n/a	wordpools/wordpool_categorized_EN.txt	CARDINAL	Birds	1	1	[0, 0, 0]	n/a	catFR1	3	R1397D
335.448	1.001	493104	WORD_OFF	n/a	n/a	CARDINAL	Birds	1	1	[0, 0, 0]	n/a	catFR1	3	R1397D
336.449	1.6	494106	WORD	n/a	wordpools/wordpool_categorized_EN.txt	SEAGULL	Birds	2	1	[0, 0, 0]	n/a	catFR1	3	R1397D
338.049	0.95	495706	WORD_OFF	n/a	n/a	SEAGULL	Birds	2	1	[0, 0, 0]	n/a	catFR1	3	R1397D
338.999	1.617	496657	WORD	n/a	wordpools/wordpool_categorized_EN.txt	CELLO	Instruments	3	1	[0, 0, 0]	n/a	catFR1	3	R1397D
340.616	0.8	498277	WORD_OFF	n/a	n/a	CELLO	Instruments	3	1	[0, 0, 0]	n/a	catFR1	3	R1397D
341.416	1.6	499076	WORD	n/a	wordpools/wordpool_categorized_EN.txt	VIOLIN	Instruments	4	1	[0, 0, 0]	n/a	catFR1	3	R1397D
343.016	0.883	500676	WORD_OFF	n/a	n/a	VIOLIN	Instruments	4	1	[0, 0, 0]	n/a	catFR1	3	R1397D
343.899	1.6	501556	WORD	n/a	wordpools/wordpool_categorized_EN.txt	CORKSCREW	KitchenTools	5	1	[0, 0, 0]	n/a	catFR1	3	R1397D
345.499	0.783	503156	WORD_OFF	n/a	n/a	CORKSCREW	KitchenTools	5	1	[0, 0, 0]	n/a	catFR1	3	R1397D
346.282	1.6	503935	WORD	n/a	wordpools/wordpool_categorized_EN.txt	COLANDER	KitchenTools	6	1	[0, 0, 0]	n/a	catFR1	3	R1397D
347.882	1.0	505535	WORD_OFF	n/a	n/a	COLANDER	KitchenTools	6	1	[0, 0, 0]	n/a	catFR1	3	R1397D
348.882	1.6	506537	WORD	n/a	wordpools/wordpool_categorized_EN.txt	BASS	Instruments	7	1	[0, 0, 0]	n/a	catFR1	3	R1397D
350.482	0.784	508136	WORD_OFF	n/a	n/a	BASS	Instruments	7	1	[0, 0, 0]	n/a	catFR1	3	R1397D
351.266	1.615	508926	WORD	n/a	wordpools/wordpool_categorized_EN.txt	GUITAR	Instruments	8	1	[0, 0, 0]	n/a	catFR1	3	R1397D
352.881	0.885	510535	WORD_OFF	n/a	n/a	GUITAR	Instruments	8	1	[0, 0, 0]	n/a	catFR1	3	R1397D
353.766	1.616	511426	WORD	n/a	wordpools/wordpool_categorized_EN.txt	PIGEON	Birds	9	1	[0, 0, 0]	n/a	catFR1	3	R1397D
355.382	1.0	513035	WORD_OFF	n/a	n/a	PIGEON	Birds	9	1	[0, 0, 0]	n/a	catFR1	3	R1397D
356.382	1.6	514037	WORD	n/a	wordpools/wordpool_categorized_EN.txt	ROBIN	Birds	10	1	[0, 0, 0]	n/a	catFR1	3	R1397D
357.982	0.767	515637	WORD_OFF	n/a	n/a	ROBIN	Birds	10	1	[0, 0, 0]	n/a	catFR1	3	R1397D
358.749	1.6	516406	WORD	n/a	wordpools/wordpool_categorized_EN.txt	SPATULA	KitchenTools	11	1	[0, 0, 0]	n/a	catFR1	3	R1397D
360.349	0.95	518005	WORD_OFF	n/a	n/a	SPATULA	KitchenTools	11	1	[0, 0, 0]	n/a	catFR1	3	R1397D
361.299	1.617	518957	WORD	n/a	wordpools/wordpool_categorized_EN.txt	WHISK	KitchenTools	12	1	[0, 0, 0]	n/a	catFR1	3	R1397D
362.916	0.0	520566	WORD_OFF	n/a	n/a	WHISK	KitchenTools	12	1	[0, 0, 0]	n/a	catFR1	3	R1397D
362.916	0.001	520570	PROB	5.033	n/a	n/a	n/a	-999	1	[7, 4, 5]	16.0	catFR1	3	R1397D
362.917	0.0	520571	START	n/a	n/a	n/a	n/a	-999	1	[-999, -999, -999]	n/a	catFR1	3	R1397D
362.917	0.0	520576	ENCODING_END	n/a	n/a	n/a	n/a	-999	1	[0, 0, 0]	n/a	catFR1	3	R1397D
362.917	5.049	520576	DISTRACT_START	n/a	n/a	n/a	n/a	-999	1	[0, 0, 0]	n/a	catFR1	3	R1397D
367.966	4.217	525620	PROB	4.199	n/a	n/a	n/a	-999	1	[4, 5, 6]	15.0	catFR1	3	R1397D
372.183	6.316	529837	PROB	6.299	n/a	n/a	n/a	-999	1	[3, 7, 8]	18.0	catFR1	3	R1397D
378.499	3.117	536153	PROB	3.099	n/a	n/a	n/a	-999	1	[2, 7, 2]	11.0	catFR1	3	R1397D
381.616	3.416	539269	PROB	3.399	n/a	n/a	n/a	-999	1	[3, 8, 4]	15.0	catFR1	3	R1397D
385.032	0.0	542684	DISTRACT_END	n/a	n/a	n/a	n/a	-999	1	[0, 0, 0]	n/a	catFR1	3	R1397D
385.032	2.016	542685	STOP	n/a	n/a	n/a	n/a	-999	1	[-999, -999, -999]	n/a	catFR1	3	R1397D
387.048	2.041	544706	REC_START	n/a	n/a	n/a	n/a	-999	1	[0, 0, 0]	n/a	catFR1	3	R1397D
389.089	0.945	546742	REC_WORD	2.041	n/a	PIGEON	Birds	9	1	[0, 0, 0]	n/a	catFR1	3	R1397D
390.034	0.896	547687	REC_WORD	2.986	n/a	ROBIN	Birds	10	1	[0, 0, 0]	n/a	catFR1	3	R1397D
390.93	1.167	548583	REC_WORD	3.882	n/a	SPATULA	KitchenTools	11	1	[0, 0, 0]	n/a	catFR1	3	R1397D
392.097	4.322	549750	REC_WORD	5.049	n/a	WHISK	KitchenTools	12	1	[0, 0, 0]	n/a	catFR1	3	R1397D
396.419	11.045	554072	REC_WORD	9.371	n/a	CELLO	Instruments	3	1	[0, 0, 0]	n/a	catFR1	3	R1397D
407.464	9.803	565116	REC_WORD	20.416	n/a	SEAGULL	Birds	2	1	[0, 0, 0]	n/a	catFR1	3	R1397D
417.267	1.865	574924	REC_END	n/a	n/a	n/a	n/a	-999	1	[0, 0, 0]	n/a	catFR1	3	R1397D
419.132	10.351	576786	COUNTDOWN_START	n/a	n/a	n/a	n/a	-999	2	[0, 0, 0]	n/a	catFR1	3	R1397D
429.483	0.001	587132	COUNTDOWN_END	n/a	n/a	n/a	n/a	-999	2	[0, 0, 0]	n/a	catFR1	3	R1397D
429.484	2.064	587142	ENCODING_START	n/a	n/a	n/a	n/a	-999	2	[0, 0, 0]	n/a	catFR1	3	R1397D
431.548	1.617	589197	WORD	n/a	wordpools/wordpool_categorized_EN.txt	CIDER	Beverages	1	2	[0, 0, 0]	n/a	catFR1	3	R1397D
433.165	0.817	590816	WORD_OFF	n/a	n/a	CIDER	Beverages	1	2	[0, 0, 0]	n/a	catFR1	3	R1397D
433.982	1.6	591636	WORD	n/a	wordpools/wordpool_categorized_EN.txt	COFFEE	Beverages	2	2	[0, 0, 0]	n/a	catFR1	3	R1397D
435.582	0.867	593235	WORD_OFF	n/a	n/a	COFFEE	Beverages	2	2	[0, 0, 0]	n/a	catFR1	3	R1397D
436.449	1.6	594096	WORD	n/a	wordpools/wordpool_categorized_EN.txt	BOAT	Vehicles	3	2	[0, 0, 0]	n/a	catFR1	3	R1397D
438.049	0.849	595705	WORD_OFF	n/a	n/a	BOAT	Vehicles	3	2	[0, 0, 0]	n/a	catFR1	3	R1397D
438.898	1.601	596545	WORD	n/a	wordpools/wordpool_categorized_EN.txt	VAN	Vehicles	4	2	[0, 0, 0]	n/a	catFR1	3	R1397D
440.499	0.9	598155	WORD_OFF	n/a	n/a	VAN	Vehicles	4	2	[0, 0, 0]	n/a	catFR1	3	R1397D
441.399	1.6	599046	WORD	n/a	wordpools/wordpool_categorized_EN.txt	TRUMPET	Instruments	5	2	[0, 0, 0]	n/a	catFR1	3	R1397D
442.999	0.866	600645	WORD_OFF	n/a	n/a	TRUMPET	Instruments	5	2	[0, 0, 0]	n/a	catFR1	3	R1397D
443.865	1.601	601516	WORD	n/a	wordpools/wordpool_categorized_EN.txt	FLUTE	Instruments	6	2	[0, 0, 0]	n/a	catFR1	3	R1397D
445.466	0.899	603115	WORD_OFF	n/a	n/a	FLUTE	Instruments	6	2	[0, 0, 0]	n/a	catFR1	3	R1397D
446.365	1.601	604016	WORD	n/a	wordpools/wordpool_categorized_EN.txt	SCOOTER	Vehicles	7	2	[0, 0, 0]	n/a	catFR1	3	R1397D
447.966	0.766	605615	WORD_OFF	n/a	n/a	SCOOTER	Vehicles	7	2	[0, 0, 0]	n/a	catFR1	3	R1397D
448.732	1.6	606384	WORD	n/a	wordpools/wordpool_categorized_EN.txt	MOTORCYCLE	Vehicles	8	2	[0, 0, 0]	n/a	catFR1	3	R1397D
450.332	0.917	607984	WORD_OFF	n/a	n/a	MOTORCYCLE	Vehicles	8	2	[0, 0, 0]	n/a	catFR1	3	R1397D
451.249	1.616	608895	WORD	n/a	wordpools/wordpool_categorized_EN.txt	LEMONADE	Beverages	9	2	[0, 0, 0]	n/a	catFR1	3	R1397D
452.865	0.884	610514	WORD_OFF	n/a	n/a	LEMONADE	Beverages	9	2	[0, 0, 0]	n/a	catFR1	3	R1397D
453.749	1.6	611395	WORD	n/a	wordpools/wordpool_categorized_EN.txt	BEER	Beverages	10	2	[0, 0, 0]	n/a	catFR1	3	R1397D
455.349	0.816	613004	WORD_OFF	n/a	n/a	BEER	Beverages	10	2	[0, 0, 0]	n/a	catFR1	3	R1397D
456.165	1.617	613814	WORD	n/a	wordpools/wordpool_categorized_EN.txt	PIANO	Instruments	11	2	[0, 0, 0]	n/a	catFR1	3	R1397D
457.782	0.8	615434	WORD_OFF	n/a	n/a	PIANO	Instruments	11	2	[0, 0, 0]	n/a	catFR1	3	R1397D
458.582	1.601	616234	WORD	n/a	wordpools/wordpool_categorized_EN.txt	DRUM	Instruments	12	2	[0, 0, 0]	n/a	catFR1	3	R1397D
460.183	0.0	617832	PROB	5.366	n/a	n/a	n/a	-999	2	[5, 8, 4]	17.0	catFR1	3	R1397D
460.182	0.002	617833	WORD_OFF	n/a	n/a	DRUM	Instruments	12	2	[0, 0, 0]	n/a	catFR1	3	R1397D
460.184	0.0	617833	ENCODING_END	n/a	n/a	n/a	n/a	-999	2	[0, 0, 0]	n/a	catFR1	3	R1397D
460.184	0.0	617833	DISTRACT_START	n/a	n/a	n/a	n/a	-999	2	[0, 0, 0]	n/a	catFR1	3	R1397D
460.184	5.382	617833	START	n/a	n/a	n/a	n/a	-999	2	[-999, -999, -999]	n/a	catFR1	3	R1397D
465.566	4.916	623215	PROB	4.899	n/a	n/a	n/a	-999	2	[1, 5, 6]	12.0	catFR1	3	R1397D
470.482	2.666	628131	PROB	2.65	n/a	n/a	n/a	-999	2	[1, 7, 2]	10.0	catFR1	3	R1397D
473.148	3.617	630797	PROB	3.6	n/a	n/a	n/a	-999	2	[3, 6, 2]	11.0	catFR1	3	R1397D
476.765	7.433	634414	PROB	7.416	n/a	n/a	n/a	-999	2	[6, 3, 5]	14.0	catFR1	3	R1397D
484.198	0.0	641843	DISTRACT_END	n/a	n/a	n/a	n/a	-999	2	[0, 0, 0]	n/a	catFR1	3	R1397D
484.198	2.384	641846	STOP	n/a	n/a	n/a	n/a	-999	2	[-999, -999, -999]	n/a	catFR1	3	R1397D
486.582	2.765	644230	REC_START	n/a	n/a	n/a	n/a	-999	2	[0, 0, 0]	n/a	catFR1	3	R1397D
489.347	0.779	646995	REC_WORD_VV	2.765	n/a	<>	n/a	-999	2	[0, 0, 0]	n/a	catFR1	3	R1397D
490.126	1.603	647774	REC_WORD	3.544	n/a	MOTORCYCLE	Vehicles	8	2	[0, 0, 0]	n/a	catFR1	3	R1397D
491.729	0.659	649377	REC_WORD	5.147	n/a	SCOOTER	Vehicles	7	2	[0, 0, 0]	n/a	catFR1	3	R1397D
492.388	0.661	650036	REC_WORD	5.806	n/a	VAN	Vehicles	4	2	[0, 0, 0]	n/a	catFR1	3	R1397D
493.049	4.301	650697	REC_WORD	6.467	n/a	BOAT	Vehicles	3	2	[0, 0, 0]	n/a	catFR1	3	R1397D
497.35	19.456	654998	REC_WORD	10.768	n/a	BEER	Beverages	10	2	[0, 0, 0]	n/a	catFR1	3	R1397D
516.806	19.043	674458	REC_END	n/a	n/a	n/a	n/a	-999	2	[0, 0, 0]	n/a	catFR1	3	R1397D
535.849	10.35	693498	COUNTDOWN_START	n/a	n/a	n/a	n/a	-999	3	[0, 0, 0]	n/a	catFR1	3	R1397D
546.199	0.0	703843	COUNTDOWN_END	n/a	n/a	n/a	n/a	-999	3	[0, 0, 0]	n/a	catFR1	3	R1397D
546.199	2.183	703843	ENCODING_START	n/a	n/a	n/a	n/a	-999	3	[0, 0, 0]	n/a	catFR1	3	R1397D
548.382	1.617	706030	WORD	n/a	wordpools/wordpool_categorized_EN.txt	MILK	Beverages	1	3	[0, 0, 0]	n/a	catFR1	3	R1397D
549.999	0.883	707639	WORD_OFF	n/a	n/a	MILK	Beverages	1	3	[0, 0, 0]	n/a	catFR1	3	R1397D
550.882	1.616	708530	WORD	n/a	wordpools/wordpool_categorized_EN.txt	JUICE	Beverages	2	3	[0, 0, 0]	n/a	catFR1	3	R1397D
552.498	0.85	710139	WORD_OFF	n/a	n/a	JUICE	Beverages	2	3	[0, 0, 0]	n/a	catFR1	3	R1397D
553.348	1.6	710990	WORD	n/a	wordpools/wordpool_categorized_EN.txt	TABLE	Furniture	3	3	[0, 0, 0]	n/a	catFR1	3	R1397D
554.948	0.8	712592	WORD_OFF	n/a	n/a	TABLE	Furniture	3	3	[0, 0, 0]	n/a	catFR1	3	R1397D
555.748	1.617	713389	WORD	n/a	wordpools/wordpool_categorized_EN.txt	DESK	Furniture	4	3	[0, 0, 0]	n/a	catFR1	3	R1397D
557.365	0.766	715008	WORD_OFF	n/a	n/a	DESK	Furniture	4	3	[0, 0, 0]	n/a	catFR1	3	R1397D
558.131	1.601	715778	WORD	n/a	wordpools/wordpool_categorized_EN.txt	CHEESECAKE	Desserts	5	3	[0, 0, 0]	n/a	catFR1	3	R1397D
559.732	0.932	717377	WORD_OFF	n/a	n/a	CHEESECAKE	Desserts	5	3	[0, 0, 0]	n/a	catFR1	3	R1397D
560.664	1.601	718308	WORD	n/a	wordpools/wordpool_categorized_EN.txt	PIE	Desserts	6	3	[0, 0, 0]	n/a	catFR1	3	R1397D
562.265	0.833	719908	WORD_OFF	n/a	n/a	PIE	Desserts	6	3	[0, 0, 0]	n/a	catFR1	3	R1397D
563.098	1.617	720748	WORD	n/a	wordpools/wordpool_categorized_EN.txt	CABINET	Furniture	7	3	[0, 0, 0]	n/a	catFR1	3	R1397D
564.715	0.8	722357	WORD_OFF	n/a	n/a	CABINET	Furniture	7	3	[0, 0, 0]	n/a	catFR1	3	R1397D
565.515	1.616	723157	WORD	n/a	wordpools/wordpool_categorized_EN.txt	SOFA	Furniture	8	3	[0, 0, 0]	n/a	catFR1	3	R1397D
567.131	0.95	724776	WORD_OFF	n/a	n/a	SOFA	Furniture	8	3	[0, 0, 0]	n/a	catFR1	3	R1397D
568.081	1.617	725728	WORD	n/a	wordpools/wordpool_categorized_EN.txt	TEA	Beverages	9	3	[0, 0, 0]	n/a	catFR1	3	R1397D
569.698	0.767	727348	WORD_OFF	n/a	n/a	TEA	Beverages	9	3	[0, 0, 0]	n/a	catFR1	3	R1397D
570.465	1.6	728107	WORD	n/a	wordpools/wordpool_categorized_EN.txt	SODA	Beverages	10	3	[0, 0, 0]	n/a	catFR1	3	R1397D
572.065	0.966	729706	WORD_OFF	n/a	n/a	SODA	Beverages	10	3	[0, 0, 0]	n/a	catFR1	3	R1397D
573.031	1.601	730678	WORD	n/a	wordpools/wordpool_categorized_EN.txt	CAKE	Desserts	11	3	[0, 0, 0]	n/a	catFR1	3	R1397D
574.632	0.766	732277	WORD_OFF	n/a	n/a	CAKE	Desserts	11	3	[0, 0, 0]	n/a	catFR1	3	R1397D
575.398	1.601	733047	WORD	n/a	wordpools/wordpool_categorized_EN.txt	PUDDING	Desserts	12	3	[0, 0, 0]	n/a	catFR1	3	R1397D
576.999	0.002	734642	PROB	5.151	n/a	n/a	n/a	-999	3	[1, 8, 6]	15.0	catFR1	3	R1397D
577.001	0.0	734644	START	n/a	n/a	n/a	n/a	-999	3	[-999, -999, -999]	n/a	catFR1	3	R1397D
576.999	0.002	734646	WORD_OFF	n/a	n/a	PUDDING	Desserts	12	3	[0, 0, 0]	n/a	catFR1	3	R1397D
577.001	0.0	734646	ENCODING_END	n/a	n/a	n/a	n/a	-999	3	[0, 0, 0]	n/a	catFR1	3	R1397D
577.001	5.166	734646	DISTRACT_START	n/a	n/a	n/a	n/a	-999	3	[0, 0, 0]	n/a	catFR1	3	R1397D
582.167	3.865	739810	PROB	3.848	n/a	n/a	n/a	-999	3	[1, 7, 5]	13.0	catFR1	3	R1397D
586.032	3.316	743675	PROB	3.3	n/a	n/a	n/a	-999	3	[3, 4, 1]	8.0	catFR1	3	R1397D
589.348	4.052	746991	PROB	4.034	n/a	n/a	n/a	-999	3	[1, 1, 7]	9.0	catFR1	3	R1397D
593.4	2.383	751043	PROB	2.366	n/a	n/a	n/a	-999	3	[1, 2, 2]	5.0	catFR1	3	R1397D
595.783	5.449	753425	PROB	5.433	n/a	n/a	n/a	-999	3	[2, 5, 7]	14.0	catFR1	3	R1397D
601.232	0.0	758874	STOP	n/a	n/a	n/a	n/a	-999	3	[-999, -999, -999]	n/a	catFR1	3	R1397D
601.232	2.067	758879	DISTRACT_END	n/a	n/a	n/a	n/a	-999	3	[0, 0, 0]	n/a	catFR1	3	R1397D
603.299	3.397	760942	REC_START	n/a	n/a	n/a	n/a	-999	3	[0, 0, 0]	n/a	catFR1	3	R1397D
606.696	0.788	764338	REC_WORD	3.397	n/a	MILK	Beverages	1	3	[0, 0, 0]	n/a	catFR1	3	R1397D
607.484	1.183	765126	REC_WORD	4.185	n/a	SODA	Beverages	10	3	[0, 0, 0]	n/a	catFR1	3	R1397D
608.667	1.466	766309	REC_WORD	5.368	n/a	PUDDING	Desserts	12	3	[0, 0, 0]	n/a	catFR1	3	R1397D
610.133	1.192	767775	REC_WORD	6.834	n/a	TIE	n/a	-999	3	[0, 0, 0]	n/a	catFR1	3	R1397D
611.325	5.338	768967	REC_WORD	8.026	n/a	CHEESECAKE	Desserts	5	3	[0, 0, 0]	n/a	catFR1	3	R1397D
616.663	2.661	774304	REC_WORD	13.364	n/a	DESK	Furniture	4	3	[0, 0, 0]	n/a	catFR1	3	R1397D
619.324	2.251	776965	REC_WORD	16.025	n/a	TABLE	Furniture	3	3	[0, 0, 0]	n/a	catFR1	3	R1397D
621.575	2.443	779216	REC_WORD	18.276	n/a	CHAIR	n/a	-999	3	[0, 0, 0]	n/a	catFR1	3	R1397D
624.018	9.503	781659	REC_WORD	20.719	n/a	CABINET	Furniture	7	3	[0, 0, 0]	n/a	catFR1	3	R1397D
633.521	1.378	791159	REC_END	n/a	n/a	n/a	n/a	-999	3	[0, 0, 0]	n/a	catFR1	3	R1397D
634.899	10.35	792546	COUNTDOWN_START	n/a	n/a	n/a	n/a	-999	4	[0, 0, 0]	n/a	catFR1	3	R1397D
645.249	0.001	802891	COUNTDOWN_END	n/a	n/a	n/a	n/a	-999	4	[0, 0, 0]	n/a	catFR1	3	R1397D
645.25	2.148	802891	ENCODING_START	n/a	n/a	n/a	n/a	-999	4	[0, 0, 0]	n/a	catFR1	3	R1397D
647.398	1.618	805037	WORD	n/a	wordpools/wordpool_categorized_EN.txt	WINE	Beverages	1	4	[0, 0, 0]	n/a	catFR1	3	R1397D
649.016	0.9	806657	WORD_OFF	n/a	n/a	WINE	Beverages	1	4	[0, 0, 0]	n/a	catFR1	3	R1397D
649.916	1.6	807558	WORD	n/a	wordpools/wordpool_categorized_EN.txt	RUM	Beverages	2	4	[0, 0, 0]	n/a	catFR1	3	R1397D
651.516	0.833	809157	WORD_OFF	n/a	n/a	RUM	Beverages	2	4	[0, 0, 0]	n/a	catFR1	3	R1397D
652.349	1.6	809987	WORD	n/a	wordpools/wordpool_categorized_EN.txt	IRON	Appliances	3	4	[0, 0, 0]	n/a	catFR1	3	R1397D
653.949	0.883	811587	WORD_OFF	n/a	n/a	IRON	Appliances	3	4	[0, 0, 0]	n/a	catFR1	3	R1397D
654.832	1.6	812477	WORD	n/a	wordpools/wordpool_categorized_EN.txt	VACUUM	Appliances	4	4	[0, 0, 0]	n/a	catFR1	3	R1397D
656.432	0.834	814077	WORD_OFF	n/a	n/a	VACUUM	Appliances	4	4	[0, 0, 0]	n/a	catFR1	3	R1397D
657.266	1.617	814907	WORD	n/a	wordpools/wordpool_categorized_EN.txt	MAPLE	Trees	5	4	[0, 0, 0]	n/a	catFR1	3	R1397D
658.883	0.816	816526	WORD_OFF	n/a	n/a	MAPLE	Trees	5	4	[0, 0, 0]	n/a	catFR1	3	R1397D
659.699	1.6	817336	WORD	n/a	wordpools/wordpool_categorized_EN.txt	PINE	Trees	6	4	[0, 0, 0]	n/a	catFR1	3	R1397D
661.299	0.933	818935	WORD_OFF	n/a	n/a	PINE	Trees	6	4	[0, 0, 0]	n/a	catFR1	3	R1397D
662.232	1.601	819867	WORD	n/a	wordpools/wordpool_categorized_EN.txt	WATER	Beverages	7	4	[0, 0, 0]	n/a	catFR1	3	R1397D
663.833	0.832	821476	WORD_OFF	n/a	n/a	WATER	Beverages	7	4	[0, 0, 0]	n/a	catFR1	3	R1397D
664.665	1.6	822306	WORD	n/a	wordpools/wordpool_categorized_EN.txt	COLA	Beverages	8	4	[0, 0, 0]	n/a	catFR1	3	R1397D
666.265	0.984	823906	WORD_OFF	n/a	n/a	COLA	Beverages	8	4	[0, 0, 0]	n/a	catFR1	3	R1397D
667.249	1.616	824887	WORD	n/a	wordpools/wordpool_categorized_EN.txt	DISHWASHER	Appliances	9	4	[0, 0, 0]	n/a	catFR1	3	R1397D
668.865	0.767	826507	WORD_OFF	n/a	n/a	DISHWASHER	Appliances	9	4	[0, 0, 0]	n/a	catFR1	3	R1397D
669.632	1.6	827276	WORD	n/a	wordpools/wordpool_categorized_EN.txt	REFRIGERATOR	Appliances	10	4	[0, 0, 0]	n/a	catFR1	3	R1397D
671.232	0.867	828876	WORD_OFF	n/a	n/a	REFRIGERATOR	Appliances	10	4	[0, 0, 0]	n/a	catFR1	3	R1397D
672.099	1.6	829736	WORD	n/a	wordpools/wordpool_categorized_EN.txt	WILLOW	Trees	11	4	[0, 0, 0]	n/a	catFR1	3	R1397D
673.699	0.883	831335	WORD_OFF	n/a	n/a	WILLOW	Trees	11	4	[0, 0, 0]	n/a	catFR1	3	R1397D
674.582	1.601	832216	WORD	n/a	wordpools/wordpool_categorized_EN.txt	CYPRESS	Trees	12	4	[0, 0, 0]	n/a	catFR1	3	R1397D
676.183	0.001	833821	PROB	4.332	n/a	n/a	n/a	-999	4	[3, 1, 3]	7.0	catFR1	3	R1397D
676.184	0.0	833822	START	n/a	n/a	n/a	n/a	-999	4	[-999, -999, -999]	n/a	catFR1	3	R1397D
676.182	0.002	833826	WORD_OFF	n/a	n/a	CYPRESS	Trees	12	4	[0, 0, 0]	n/a	catFR1	3	R1397D
676.184	0.0	833826	ENCODING_END	n/a	n/a	n/a	n/a	-999	4	[0, 0, 0]	n/a	catFR1	3	R1397D
676.184	4.349	833826	DISTRACT_START	n/a	n/a	n/a	n/a	-999	4	[0, 0, 0]	n/a	catFR1	3	R1397D
680.533	3.15	838171	PROB	3.133	n/a	n/a	n/a	-999	4	[2, 7, 1]	10.0	catFR1	3	R1397D
683.683	4.483	841321	PROB	4.466	n/a	n/a	n/a	-999	4	[3, 7, 4]	14.0	catFR1	3	R1397D
688.166	5.834	845804	PROB	5.815	n/a	n/a	n/a	-999	4	[8, 6, 3]	17.0	catFR1	3	R1397D
694.0	6.182	851637	PROB	6.166	n/a	n/a	n/a	-999	4	[4, 4, 5]	13.0	catFR1	3	R1397D
700.182	0.0	857816	DISTRACT_END	n/a	n/a	n/a	n/a	-999	4	[0, 0, 0]	n/a	catFR1	3	R1397D
700.182	2.4	857819	STOP	n/a	n/a	n/a	n/a	-999	4	[-999, -999, -999]	n/a	catFR1	3	R1397D
702.582	3.149	860223	REC_START	n/a	n/a	n/a	n/a	-999	4	[0, 0, 0]	n/a	catFR1	3	R1397D
705.731	1.138	863368	REC_WORD	3.149	n/a	CYPRESS	Trees	12	4	[0, 0, 0]	n/a	catFR1	3	R1397D
706.869	8.43	864506	REC_WORD	4.287	n/a	MAPLE	Trees	5	4	[0, 0, 0]	n/a	catFR1	3	R1397D
715.299	9.063	872935	REC_WORD	12.717	n/a	WILLOW	Trees	11	4	[0, 0, 0]	n/a	catFR1	3	R1397D
724.362	3.077	881998	REC_WORD_VV	21.78	n/a	<>	n/a	-999	4	[0, 0, 0]	n/a	catFR1	3	R1397D
727.439	5.392	885075	REC_WORD	24.857	n/a	IRON	Appliances	3	4	[0, 0, 0]	n/a	catFR1	3	R1397D
732.831	1.701	890471	REC_END	n/a	n/a	n/a	n/a	-999	4	[0, 0, 0]	n/a	catFR1	3	R1397D
734.532	10.349	892171	COUNTDOWN_START	n/a	n/a	n/a	n/a	-999	5	[0, 0, 0]	n/a	catFR1	3	R1397D
744.881	0.0	902516	COUNTDOWN_END	n/a	n/a	n/a	n/a	-999	5	[0, 0, 0]	n/a	catFR1	3	R1397D
744.881	1.984	902516	ENCODING_START	n/a	n/a	n/a	n/a	-999	5	[0, 0, 0]	n/a	catFR1	3	R1397D
746.865	1.6	904500	WORD	n/a	wordpools/wordpool_categorized_EN.txt	BALL	Toys	1	5	[0, 0, 0]	n/a	catFR1	3	R1397D
748.465	0.9	906100	WORD_OFF	n/a	n/a	BALL	Toys	1	5	[0, 0, 0]	n/a	catFR1	3	R1397D
749.365	1.6	907001	WORD	n/a	wordpools/wordpool_categorized_EN.txt	DOLL	Toys	2	5	[0, 0, 0]	n/a	catFR1	3	R1397D
750.965	0.95	908600	WORD_OFF	n/a	n/a	DOLL	Toys	2	5	[0, 0, 0]	n/a	catFR1	3	R1397D
751.915	1.6	909552	WORD	n/a	wordpools/wordpool_categorized_EN.txt	SCANNER	Electronics	3	5	[0, 0, 0]	n/a	catFR1	3	R1397D
753.515	0.816	911151	WORD_OFF	n/a	n/a	SCANNER	Electronics	3	5	[0, 0, 0]	n/a	catFR1	3	R1397D
754.331	1.601	911971	WORD	n/a	wordpools/wordpool_categorized_EN.txt	CALCULATOR	Electronics	4	5	[0, 0, 0]	n/a	catFR1	3	R1397D
755.932	0.867	913570	WORD_OFF	n/a	n/a	CALCULATOR	Electronics	4	5	[0, 0, 0]	n/a	catFR1	3	R1397D
756.799	1.6	914431	WORD	n/a	wordpools/wordpool_categorized_EN.txt	LOBSTER	OceanAnimals	5	5	[0, 0, 0]	n/a	catFR1	3	R1397D
758.399	0.867	916030	WORD_OFF	n/a	n/a	LOBSTER	OceanAnimals	5	5	[0, 0, 0]	n/a	catFR1	3	R1397D
759.266	1.6	916900	WORD	n/a	wordpools/wordpool_categorized_EN.txt	WHALE	OceanAnimals	6	5	[0, 0, 0]	n/a	catFR1	3	R1397D
760.866	0.984	918500	WORD_OFF	n/a	n/a	WHALE	OceanAnimals	6	5	[0, 0, 0]	n/a	catFR1	3	R1397D
761.85	1.616	919482	WORD	n/a	wordpools/wordpool_categorized_EN.txt	HEADPHONES	Electronics	7	5	[0, 0, 0]	n/a	catFR1	3	R1397D
763.466	0.9	921101	WORD_OFF	n/a	n/a	HEADPHONES	Electronics	7	5	[0, 0, 0]	n/a	catFR1	3	R1397D
764.366	1.6	922002	WORD	n/a	wordpools/wordpool_categorized_EN.txt	STEREO	Electronics	8	5	[0, 0, 0]	n/a	catFR1	3	R1397D
765.966	0.833	923602	WORD_OFF	n/a	n/a	STEREO	Electronics	8	5	[0, 0, 0]	n/a	catFR1	3	R1397D
766.799	1.6	924432	WORD	n/a	wordpools/wordpool_categorized_EN.txt	DOLPHIN	OceanAnimals	9	5	[0, 0, 0]	n/a	catFR1	3	R1397D
768.399	0.867	926031	WORD_OFF	n/a	n/a	DOLPHIN	OceanAnimals	9	5	[0, 0, 0]	n/a	catFR1	3	R1397D
769.266	1.6	926901	WORD	n/a	wordpools/wordpool_categorized_EN.txt	OYSTER	OceanAnimals	10	5	[0, 0, 0]	n/a	catFR1	3	R1397D
770.866	0.866	928501	WORD_OFF	n/a	n/a	OYSTER	OceanAnimals	10	5	[0, 0, 0]	n/a	catFR1	3	R1397D
771.732	1.6	929371	WORD	n/a	wordpools/wordpool_categorized_EN.txt	BASEBALL	Toys	11	5	[0, 0, 0]	n/a	catFR1	3	R1397D
773.332	0.817	930971	WORD_OFF	n/a	n/a	BASEBALL	Toys	11	5	[0, 0, 0]	n/a	catFR1	3	R1397D
774.149	1.6	931780	WORD	n/a	wordpools/wordpool_categorized_EN.txt	FOOTBALL	Toys	12	5	[0, 0, 0]	n/a	catFR1	3	R1397D
775.749	0.0	933380	WORD_OFF	n/a	n/a	FOOTBALL	Toys	12	5	[0, 0, 0]	n/a	catFR1	3	R1397D
775.749	0.002	933382	PROB	4.533	n/a	n/a	n/a	-999	5	[5, 5, 3]	13.0	catFR1	3	R1397D
775.751	0.0	933384	START	n/a	n/a	n/a	n/a	-999	5	[-999, -999, -999]	n/a	catFR1	3	R1397D
775.751	0.0	933390	ENCODING_END	n/a	n/a	n/a	n/a	-999	5	[0, 0, 0]	n/a	catFR1	3	R1397D
775.751	4.548	933390	DISTRACT_START	n/a	n/a	n/a	n/a	-999	5	[0, 0, 0]	n/a	catFR1	3	R1397D
780.299	4.5	937932	PROB	4.483	n/a	n/a	n/a	-999	5	[4, 6, 3]	13.0	catFR1	3	R1397D
784.799	3.916	942432	PROB	3.9	n/a	n/a	n/a	-999	5	[5, 1, 4]	10.0	catFR1	3	R1397D
788.715	3.284	946347	PROB	3.267	n/a	n/a	n/a	-999	5	[1, 7, 3]	11.0	catFR1	3	R1397D
791.999	2.599	949631	PROB	2.583	n/a	n/a	n/a	-999	5	[1, 8, 1]	10.0	catFR1	3	R1397D
794.598	3.003	952230	PROB	2.984	n/a	n/a	n/a	-999	5	[4, 2, 3]	9.0	catFR1	3	R1397D
797.601	0.0	955233	STOP	n/a	n/a	n/a	n/a	-999	5	[-999, -999, -999]	n/a	catFR1	3	R1397D
797.601	2.348	955234	DISTRACT_END	n/a	n/a	n/a	n/a	-999	5	[0, 0, 0]	n/a	catFR1	3	R1397D
799.949	4.989	957580	REC_START	n/a	n/a	n/a	n/a	-999	5	[0, 0, 0]	n/a	catFR1	3	R1397D
804.938	0.78	962570	REC_WORD	4.989	n/a	DOLL	Toys	2	5	[0, 0, 0]	n/a	catFR1	3	R1397D
805.718	1.274	963350	REC_WORD	5.769	n/a	SCANNER	Electronics	3	5	[0, 0, 0]	n/a	catFR1	3	R1397D
806.992	3.154	964624	REC_WORD	7.043	n/a	LOBSTER	OceanAnimals	5	5	[0, 0, 0]	n/a	catFR1	3	R1397D
810.146	20.048	967777	REC_WORD	10.197	n/a	STEREO	Electronics	8	5	[0, 0, 0]	n/a	catFR1	3	R1397D
830.194	329.871	987828	REC_END	n/a	n/a	n/a	n/a	-999	5	[0, 0, 0]	n/a	catFR1	3	R1397D
1160.065	10.351	1317678	COUNTDOWN_START	n/a	n/a	n/a	n/a	-999	6	[0, 0, 0]	n/a	catFR1	3	R1397D
1170.416	0.0	1328034	COUNTDOWN_END	n/a	n/a	n/a	n/a	-999	6	[0, 0, 0]	n/a	catFR1	3	R1397D
1170.416	2.233	1328034	ENCODING_START	n/a	n/a	n/a	n/a	-999	6	[0, 0, 0]	n/a	catFR1	3	R1397D
1172.649	1.6	1330260	WORD	n/a	wordpools/wordpool_categorized_EN.txt	ELBOW	BodyParts	1	6	[0, 0, 0]	n/a	catFR1	3	R1397D
1174.249	0.766	1331860	WORD_OFF	n/a	n/a	ELBOW	BodyParts	1	6	[0, 0, 0]	n/a	catFR1	3	R1397D
1175.015	1.6	1332629	WORD	n/a	wordpools/wordpool_categorized_EN.txt	FINGERS	BodyParts	2	6	[0, 0, 0]	n/a	catFR1	3	R1397D
1176.615	1.0	1334228	WORD_OFF	n/a	n/a	FINGERS	BodyParts	2	6	[0, 0, 0]	n/a	catFR1	3	R1397D
1177.615	1.6	1335231	WORD	n/a	wordpools/wordpool_categorized_EN.txt	CUPCAKE	Desserts	3	6	[0, 0, 0]	n/a	catFR1	3	R1397D
1179.215	0.767	1336830	WORD_OFF	n/a	n/a	CUPCAKE	Desserts	3	6	[0, 0, 0]	n/a	catFR1	3	R1397D
1179.982	1.617	1337599	WORD	n/a	wordpools/wordpool_categorized_EN.txt	COBBLER	Desserts	4	6	[0, 0, 0]	n/a	catFR1	3	R1397D
1181.599	0.85	1339209	WORD_OFF	n/a	n/a	COBBLER	Desserts	4	6	[0, 0, 0]	n/a	catFR1	3	R1397D
1182.449	1.6	1340059	WORD	n/a	wordpools/wordpool_categorized_EN.txt	SPARROW	Birds	5	6	[0, 0, 0]	n/a	catFR1	3	R1397D
1184.049	0.883	1341658	WORD_OFF	n/a	n/a	SPARROW	Birds	5	6	[0, 0, 0]	n/a	catFR1	3	R1397D
1184.932	1.6	1342549	WORD	n/a	wordpools/wordpool_categorized_EN.txt	DUCK	Birds	6	6	[0, 0, 0]	n/a	catFR1	3	R1397D
1186.532	0.766	1344148	WORD_OFF	n/a	n/a	DUCK	Birds	6	6	[0, 0, 0]	n/a	catFR1	3	R1397D
1187.298	1.6	1344908	WORD	n/a	wordpools/wordpool_categorized_EN.txt	JELLO	Desserts	7	6	[0, 0, 0]	n/a	catFR1	3	R1397D
1188.898	0.8	1346507	WORD_OFF	n/a	n/a	JELLO	Desserts	7	6	[0, 0, 0]	n/a	catFR1	3	R1397D
1189.698	1.617	1347307	WORD	n/a	wordpools/wordpool_categorized_EN.txt	FUDGE	Desserts	8	6	[0, 0, 0]	n/a	catFR1	3	R1397D
1191.315	0.983	1348926	WORD_OFF	n/a	n/a	FUDGE	Desserts	8	6	[0, 0, 0]	n/a	catFR1	3	R1397D
1192.298	1.6	1349908	WORD	n/a	wordpools/wordpool_categorized_EN.txt	DOVE	Birds	9	6	[0, 0, 0]	n/a	catFR1	3	R1397D
1193.898	1.0	1351508	WORD_OFF	n/a	n/a	DOVE	Birds	9	6	[0, 0, 0]	n/a	catFR1	3	R1397D
1194.898	1.6	1352520	WORD	n/a	wordpools/wordpool_categorized_EN.txt	GOOSE	Birds	10	6	[0, 0, 0]	n/a	catFR1	3	R1397D
1196.498	0.85	1354109	WORD_OFF	n/a	n/a	GOOSE	Birds	10	6	[0, 0, 0]	n/a	catFR1	3	R1397D
1197.348	1.6	1354959	WORD	n/a	wordpools/wordpool_categorized_EN.txt	NOSE	BodyParts	11	6	[0, 0, 0]	n/a	catFR1	3	R1397D
1198.948	0.917	1356559	WORD_OFF	n/a	n/a	NOSE	BodyParts	11	6	[0, 0, 0]	n/a	catFR1	3	R1397D
1199.865	1.616	1357480	WORD	n/a	wordpools/wordpool_categorized_EN.txt	HAND	BodyParts	12	6	[0, 0, 0]	n/a	catFR1	3	R1397D
1201.481	0.001	1359089	WORD_OFF	n/a	n/a	HAND	BodyParts	12	6	[0, 0, 0]	n/a	catFR1	3	R1397D
1201.482	0.001	1359093	PROB	5.484	n/a	n/a	n/a	-999	6	[5, 1, 3]	9.0	catFR1	3	R1397D
1201.483	0.0	1359094	START	n/a	n/a	n/a	n/a	-999	6	[-999, -999, -999]	n/a	catFR1	3	R1397D
1201.483	0.0	1359099	ENCODING_END	n/a	n/a	n/a	n/a	-999	6	[0, 0, 0]	n/a	catFR1	3	R1397D
1201.483	5.5	1359099	DISTRACT_START	n/a	n/a	n/a	n/a	-999	6	[0, 0, 0]	n/a	catFR1	3	R1397D
1206.983	5.783	1364594	PROB	5.766	n/a	n/a	n/a	-999	6	[6, 7, 6]	19.0	catFR1	3	R1397D
1212.766	6.517	1370376	PROB	6.5	n/a	n/a	n/a	-999	6	[5, 7, 3]	15.0	catFR1	3	R1397D
1219.283	3.199	1376893	PROB	3.183	n/a	n/a	n/a	-999	6	[3, 7, 2]	12.0	catFR1	3	R1397D
1222.482	0.0	1380092	STOP	n/a	n/a	n/a	n/a	-999	6	[-999, -999, -999]	n/a	catFR1	3	R1397D
1222.482	2.384	1380093	DISTRACT_END	n/a	n/a	n/a	n/a	-999	6	[0, 0, 0]	n/a	catFR1	3	R1397D
1224.866	1.656	1382480	REC_START	n/a	n/a	n/a	n/a	-999	6	[0, 0, 0]	n/a	catFR1	3	R1397D
1226.522	0.912	1384132	REC_WORD	1.656	n/a	NOSE	BodyParts	11	6	[0, 0, 0]	n/a	catFR1	3	R1397D
1227.434	0.987	1385044	REC_WORD	2.568	n/a	FINGERS	BodyParts	2	6	[0, 0, 0]	n/a	catFR1	3	R1397D
1228.421	1.59	1386031	REC_WORD	3.555	n/a	CUPCAKE	Desserts	3	6	[0, 0, 0]	n/a	catFR1	3	R1397D
1230.011	1.249	1387621	REC_WORD	5.145	n/a	SPARROW	Birds	5	6	[0, 0, 0]	n/a	catFR1	3	R1397D
1231.26	23.81	1388870	REC_WORD	6.394	n/a	DOVE	Birds	9	6	[0, 0, 0]	n/a	catFR1	3	R1397D
1255.07	1.096	1412677	REC_END	n/a	n/a	n/a	n/a	-999	6	[0, 0, 0]	n/a	catFR1	3	R1397D
1256.166	10.351	1413771	COUNTDOWN_START	n/a	n/a	n/a	n/a	-999	7	[0, 0, 0]	n/a	catFR1	3	R1397D
1266.517	0.0	1424126	COUNTDOWN_END	n/a	n/a	n/a	n/a	-999	7	[0, 0, 0]	n/a	catFR1	3	R1397D
1266.517	2.148	1424126	ENCODING_START	n/a	n/a	n/a	n/a	-999	7	[0, 0, 0]	n/a	catFR1	3	R1397D
1268.665	1.6	1426272	WORD	n/a	wordpools/wordpool_categorized_EN.txt	EYE	BodyParts	1	7	[0, 0, 0]	n/a	catFR1	3	R1397D
1270.265	0.983	1427871	WORD_OFF	n/a	n/a	EYE	BodyParts	1	7	[0, 0, 0]	n/a	catFR1	3	R1397D
1271.248	1.601	1428853	WORD	n/a	wordpools/wordpool_categorized_EN.txt	HEAD	BodyParts	2	7	[0, 0, 0]	n/a	catFR1	3	R1397D
1272.849	0.866	1430452	WORD_OFF	n/a	n/a	HEAD	BodyParts	2	7	[0, 0, 0]	n/a	catFR1	3	R1397D
1273.715	1.6	1431323	WORD	n/a	wordpools/wordpool_categorized_EN.txt	LADLE	KitchenTools	3	7	[0, 0, 0]	n/a	catFR1	3	R1397D
1275.315	0.967	1432922	WORD_OFF	n/a	n/a	LADLE	KitchenTools	3	7	[0, 0, 0]	n/a	catFR1	3	R1397D
1276.282	1.6	1433894	WORD	n/a	wordpools/wordpool_categorized_EN.txt	KNIFE	KitchenTools	4	7	[0, 0, 0]	n/a	catFR1	3	R1397D
1277.882	0.933	1435493	WORD_OFF	n/a	n/a	KNIFE	KitchenTools	4	7	[0, 0, 0]	n/a	catFR1	3	R1397D
1278.815	1.616	1436425	WORD	n/a	wordpools/wordpool_categorized_EN.txt	SPEAKER	Electronics	5	7	[0, 0, 0]	n/a	catFR1	3	R1397D
1280.431	0.984	1438044	WORD_OFF	n/a	n/a	SPEAKER	Electronics	5	7	[0, 0, 0]	n/a	catFR1	3	R1397D
1281.415	1.6	1439026	WORD	n/a	wordpools/wordpool_categorized_EN.txt	PHONE	Electronics	6	7	[0, 0, 0]	n/a	catFR1	3	R1397D
1283.015	0.8	1440626	WORD_OFF	n/a	n/a	PHONE	Electronics	6	7	[0, 0, 0]	n/a	catFR1	3	R1397D
1283.815	1.6	1441425	WORD	n/a	wordpools/wordpool_categorized_EN.txt	ARM	BodyParts	7	7	[0, 0, 0]	n/a	catFR1	3	R1397D
1285.415	0.783	1443024	WORD_OFF	n/a	n/a	ARM	BodyParts	7	7	[0, 0, 0]	n/a	catFR1	3	R1397D
1286.198	1.617	1443804	WORD	n/a	wordpools/wordpool_categorized_EN.txt	FOOT	BodyParts	8	7	[0, 0, 0]	n/a	catFR1	3	R1397D
1287.815	0.95	1445424	WORD_OFF	n/a	n/a	FOOT	BodyParts	8	7	[0, 0, 0]	n/a	catFR1	3	R1397D
1288.765	1.6	1446375	WORD	n/a	wordpools/wordpool_categorized_EN.txt	PEELER	KitchenTools	9	7	[0, 0, 0]	n/a	catFR1	3	R1397D
1290.365	0.8	1447974	WORD_OFF	n/a	n/a	PEELER	KitchenTools	9	7	[0, 0, 0]	n/a	catFR1	3	R1397D
1291.165	1.616	1448774	WORD	n/a	wordpools/wordpool_categorized_EN.txt	FORK	KitchenTools	10	7	[0, 0, 0]	n/a	catFR1	3	R1397D
1292.781	0.968	1450384	WORD_OFF	n/a	n/a	FORK	KitchenTools	10	7	[0, 0, 0]	n/a	catFR1	3	R1397D
1293.749	1.616	1451355	WORD	n/a	wordpools/wordpool_categorized_EN.txt	TABLET	Electronics	11	7	[0, 0, 0]	n/a	catFR1	3	R1397D
1295.365	0.916	1452975	WORD_OFF	n/a	n/a	TABLET	Electronics	11	7	[0, 0, 0]	n/a	catFR1	3	R1397D
1296.281	1.601	1453886	WORD	n/a	wordpools/wordpool_categorized_EN.txt	RADIO	Electronics	12	7	[0, 0, 0]	n/a	catFR1	3	R1397D
1297.882	0.001	1455485	WORD_OFF	n/a	n/a	RADIO	Electronics	12	7	[0, 0, 0]	n/a	catFR1	3	R1397D
1297.883	0.001	1455489	PROB	4.583	n/a	n/a	n/a	-999	7	[3, 4, 4]	11.0	catFR1	3	R1397D
1297.884	0.0	1455490	START	n/a	n/a	n/a	n/a	-999	7	[-999, -999, -999]	n/a	catFR1	3	R1397D
1297.884	0.0	1455495	ENCODING_END	n/a	n/a	n/a	n/a	-999	7	[0, 0, 0]	n/a	catFR1	3	R1397D
1297.884	4.599	1455495	DISTRACT_START	n/a	n/a	n/a	n/a	-999	7	[0, 0, 0]	n/a	catFR1	3	R1397D
1302.483	2.434	1460089	PROB	2.415	n/a	n/a	n/a	-999	7	[7, 1, 1]	9.0	catFR1	3	R1397D
1304.917	2.599	1462523	PROB	2.583	n/a	n/a	n/a	-999	7	[1, 3, 7]	11.0	catFR1	3	R1397D
1307.516	3.016	1465122	PROB	2.999	n/a	n/a	n/a	-999	7	[2, 4, 4]	10.0	catFR1	3	R1397D
1310.532	3.317	1468137	PROB	3.3	n/a	n/a	n/a	-999	7	[6, 4, 3]	13.0	catFR1	3	R1397D
1313.849	5.85	1471454	PROB	5.833	n/a	n/a	n/a	-999	7	[6, 2, 4]	12.0	catFR1	3	R1397D
1319.699	0.0	1477304	STOP	n/a	n/a	n/a	n/a	-999	7	[-999, -999, -999]	n/a	catFR1	3	R1397D
1319.699	2.383	1477309	DISTRACT_END	n/a	n/a	n/a	n/a	-999	7	[0, 0, 0]	n/a	catFR1	3	R1397D
1322.082	6.931	1479686	REC_START	n/a	n/a	n/a	n/a	-999	7	[0, 0, 0]	n/a	catFR1	3	R1397D
1329.013	23.068	1486618	REC_WORD_VV	6.931	n/a	<>	n/a	-999	7	[0, 0, 0]	n/a	catFR1	3	R1397D
1352.081	0.226	1509684	REC_WORD_VV	29.999	n/a	<>	n/a	-999	7	[0, 0, 0]	n/a	catFR1	3	R1397D
1352.307	2.559	1509914	REC_END	n/a	n/a	n/a	n/a	-999	7	[0, 0, 0]	n/a	catFR1	3	R1397D
1354.866	10.35	1512475	COUNTDOWN_START	n/a	n/a	n/a	n/a	-999	8	[0, 0, 0]	n/a	catFR1	3	R1397D
1365.216	0.0	1522820	COUNTDOWN_END	n/a	n/a	n/a	n/a	-999	8	[0, 0, 0]	n/a	catFR1	3	R1397D
1365.216	2.199	1522820	ENCODING_START	n/a	n/a	n/a	n/a	-999	8	[0, 0, 0]	n/a	catFR1	3	R1397D
1367.415	1.6	1525016	WORD	n/a	wordpools/wordpool_categorized_EN.txt	DOOR	Building	1	8	[0, 0, 0]	n/a	catFR1	3	R1397D
1369.015	0.816	1526616	WORD_OFF	n/a	n/a	DOOR	Building	1	8	[0, 0, 0]	n/a	catFR1	3	R1397D
1369.831	1.601	1527436	WORD	n/a	wordpools/wordpool_categorized_EN.txt	CEILING	Building	2	8	[0, 0, 0]	n/a	catFR1	3	R1397D
1371.432	0.8	1529035	WORD_OFF	n/a	n/a	CEILING	Building	2	8	[0, 0, 0]	n/a	catFR1	3	R1397D
1372.232	1.6	1529835	WORD	n/a	wordpools/wordpool_categorized_EN.txt	TORNADO	Weather	3	8	[0, 0, 0]	n/a	catFR1	3	R1397D
1373.832	0.966	1531434	WORD_OFF	n/a	n/a	TORNADO	Weather	3	8	[0, 0, 0]	n/a	catFR1	3	R1397D
1374.798	1.6	1532406	WORD	n/a	wordpools/wordpool_categorized_EN.txt	LIGHTNING	Weather	4	8	[0, 0, 0]	n/a	catFR1	3	R1397D
1376.398	0.95	1534005	WORD_OFF	n/a	n/a	LIGHTNING	Weather	4	8	[0, 0, 0]	n/a	catFR1	3	R1397D
1377.348	1.617	1534946	WORD	n/a	wordpools/wordpool_categorized_EN.txt	CELERY	Vegetables	5	8	[0, 0, 0]	n/a	catFR1	3	R1397D
1378.965	0.9	1536566	WORD_OFF	n/a	n/a	CELERY	Vegetables	5	8	[0, 0, 0]	n/a	catFR1	3	R1397D
1379.865	1.6	1537467	WORD	n/a	wordpools/wordpool_categorized_EN.txt	CARROT	Vegetables	6	8	[0, 0, 0]	n/a	catFR1	3	R1397D
1381.465	1.0	1539066	WORD_OFF	n/a	n/a	CARROT	Vegetables	6	8	[0, 0, 0]	n/a	catFR1	3	R1397D
1382.465	1.6	1540068	WORD	n/a	wordpools/wordpool_categorized_EN.txt	BATHROOM	Building	7	8	[0, 0, 0]	n/a	catFR1	3	R1397D
1384.065	0.833	1541668	WORD_OFF	n/a	n/a	BATHROOM	Building	7	8	[0, 0, 0]	n/a	catFR1	3	R1397D
1384.898	1.601	1542498	WORD	n/a	wordpools/wordpool_categorized_EN.txt	HALLWAY	Building	8	8	[0, 0, 0]	n/a	catFR1	3	R1397D
1386.499	0.917	1544097	WORD_OFF	n/a	n/a	HALLWAY	Building	8	8	[0, 0, 0]	n/a	catFR1	3	R1397D
1387.416	1.6	1545018	WORD	n/a	wordpools/wordpool_categorized_EN.txt	THUNDER	Weather	9	8	[0, 0, 0]	n/a	catFR1	3	R1397D
1389.016	0.833	1546618	WORD_OFF	n/a	n/a	THUNDER	Weather	9	8	[0, 0, 0]	n/a	catFR1	3	R1397D
1389.849	1.601	1547448	WORD	n/a	wordpools/wordpool_categorized_EN.txt	WIND	Weather	10	8	[0, 0, 0]	n/a	catFR1	3	R1397D
1391.45	0.966	1549048	WORD_OFF	n/a	n/a	WIND	Weather	10	8	[0, 0, 0]	n/a	catFR1	3	R1397D
1392.416	1.616	1550019	WORD	n/a	wordpools/wordpool_categorized_EN.txt	SPINACH	Vegetables	11	8	[0, 0, 0]	n/a	catFR1	3	R1397D
1394.032	0.917	1551638	WORD_OFF	n/a	n/a	SPINACH	Vegetables	11	8	[0, 0, 0]	n/a	catFR1	3	R1397D
1394.949	1.617	1552549	WORD	n/a	wordpools/wordpool_categorized_EN.txt	CORN	Vegetables	12	8	[0, 0, 0]	n/a	catFR1	3	R1397D
1396.566	0.001	1554167	PROB	7.283	n/a	n/a	n/a	-999	8	[8, 4, 5]	17.0	catFR1	3	R1397D
1396.567	0.0	1554168	START	n/a	n/a	n/a	n/a	-999	8	[-999, -999, -999]	n/a	catFR1	3	R1397D
1396.566	0.001	1554169	WORD_OFF	n/a	n/a	CORN	Vegetables	12	8	[0, 0, 0]	n/a	catFR1	3	R1397D
1396.567	0.0	1554169	ENCODING_END	n/a	n/a	n/a	n/a	-999	8	[0, 0, 0]	n/a	catFR1	3	R1397D
1396.567	7.299	1554169	DISTRACT_START	n/a	n/a	n/a	n/a	-999	8	[0, 0, 0]	n/a	catFR1	3	R1397D
1403.866	3.25	1561467	PROB	3.233	n/a	n/a	n/a	-999	8	[2, 4, 5]	11.0	catFR1	3	R1397D
1407.116	4.233	1564716	PROB	4.216	n/a	n/a	n/a	-999	8	[4, 6, 4]	14.0	catFR1	3	R1397D
1411.349	3.6	1568949	PROB	3.583	n/a	n/a	n/a	-999	8	[8, 8, 4]	20.0	catFR1	3	R1397D
1414.949	4.517	1572549	PROB	4.5	n/a	n/a	n/a	-999	8	[5, 7, 4]	14.0	catFR1	3	R1397D
1419.466	0.0	1577066	DISTRACT_END	n/a	n/a	n/a	n/a	-999	8	[0, 0, 0]	n/a	catFR1	3	R1397D
1419.466	2.2	1577066	STOP	n/a	n/a	n/a	n/a	-999	8	[-999, -999, -999]	n/a	catFR1	3	R1397D
1421.666	1.782	1579270	REC_START	n/a	n/a	n/a	n/a	-999	8	[0, 0, 0]	n/a	catFR1	3	R1397D
1423.448	0.815	1581048	REC_WORD	1.782	n/a	WIND	Weather	10	8	[0, 0, 0]	n/a	catFR1	3	R1397D
1424.263	1.116	1581863	REC_WORD	2.597	n/a	SPINACH	Vegetables	11	8	[0, 0, 0]	n/a	catFR1	3	R1397D
1425.379	1.344	1582979	REC_WORD	3.713	n/a	CORN	Vegetables	12	8	[0, 0, 0]	n/a	catFR1	3	R1397D
1426.723	2.083	1584322	REC_WORD	5.057	n/a	TOMATO	n/a	-999	8	[0, 0, 0]	n/a	catFR1	3	R1397D
1428.806	23.09	1586405	REC_WORD	7.14	n/a	TORNADO	Weather	3	8	[0, 0, 0]	n/a	catFR1	3	R1397D
1451.896	2.769	1609498	REC_END	n/a	n/a	n/a	n/a	-999	8	[0, 0, 0]	n/a	catFR1	3	R1397D
1454.665	10.35	1612262	COUNTDOWN_START	n/a	n/a	n/a	n/a	-999	9	[0, 0, 0]	n/a	catFR1	3	R1397D
1465.015	0.001	1622617	COUNTDOWN_END	n/a	n/a	n/a	n/a	-999	9	[0, 0, 0]	n/a	catFR1	3	R1397D
1465.016	2.165	1622617	ENCODING_START	n/a	n/a	n/a	n/a	-999	9	[0, 0, 0]	n/a	catFR1	3	R1397D
1467.181	1.6	1624783	WORD	n/a	wordpools/wordpool_categorized_EN.txt	TURTLE	OceanAnimals	1	9	[0, 0, 0]	n/a	catFR1	3	R1397D
1468.781	0.784	1626382	WORD_OFF	n/a	n/a	TURTLE	OceanAnimals	1	9	[0, 0, 0]	n/a	catFR1	3	R1397D
1469.565	1.616	1627162	WORD	n/a	wordpools/wordpool_categorized_EN.txt	PLANKTON	OceanAnimals	2	9	[0, 0, 0]	n/a	catFR1	3	R1397D
1471.181	0.85	1628781	WORD_OFF	n/a	n/a	PLANKTON	OceanAnimals	2	9	[0, 0, 0]	n/a	catFR1	3	R1397D
1472.031	1.6	1629632	WORD	n/a	wordpools/wordpool_categorized_EN.txt	LEG	BodyParts	3	9	[0, 0, 0]	n/a	catFR1	3	R1397D
1473.631	0.901	1631231	WORD_OFF	n/a	n/a	LEG	BodyParts	3	9	[0, 0, 0]	n/a	catFR1	3	R1397D
1474.532	1.6	1632132	WORD	n/a	wordpools/wordpool_categorized_EN.txt	KNEE	BodyParts	4	9	[0, 0, 0]	n/a	catFR1	3	R1397D
1476.132	0.867	1633731	WORD_OFF	n/a	n/a	KNEE	BodyParts	4	9	[0, 0, 0]	n/a	catFR1	3	R1397D
1476.999	1.616	1634592	WORD	n/a	wordpools/wordpool_categorized_EN.txt	LEATHER	Fabric	5	9	[0, 0, 0]	n/a	catFR1	3	R1397D
1478.615	0.917	1636211	WORD_OFF	n/a	n/a	LEATHER	Fabric	5	9	[0, 0, 0]	n/a	catFR1	3	R1397D
1479.532	1.601	1637132	WORD	n/a	wordpools/wordpool_categorized_EN.txt	COTTON	Fabric	6	9	[0, 0, 0]	n/a	catFR1	3	R1397D
1481.133	0.8	1638732	WORD_OFF	n/a	n/a	COTTON	Fabric	6	9	[0, 0, 0]	n/a	catFR1	3	R1397D
1481.933	1.615	1639531	WORD	n/a	wordpools/wordpool_categorized_EN.txt	SHRIMP	OceanAnimals	7	9	[0, 0, 0]	n/a	catFR1	3	R1397D
1483.548	1.001	1641141	WORD_OFF	n/a	n/a	SHRIMP	OceanAnimals	7	9	[0, 0, 0]	n/a	catFR1	3	R1397D
1484.549	1.6	1642153	WORD	n/a	wordpools/wordpool_categorized_EN.txt	OCTOPUS	OceanAnimals	8	9	[0, 0, 0]	n/a	catFR1	3	R1397D
1486.149	0.783	1643742	WORD_OFF	n/a	n/a	OCTOPUS	OceanAnimals	8	9	[0, 0, 0]	n/a	catFR1	3	R1397D
1486.932	1.617	1644532	WORD	n/a	wordpools/wordpool_categorized_EN.txt	WOOL	Fabric	9	9	[0, 0, 0]	n/a	catFR1	3	R1397D
1488.549	0.883	1646141	WORD_OFF	n/a	n/a	WOOL	Fabric	9	9	[0, 0, 0]	n/a	catFR1	3	R1397D
1489.432	1.616	1647032	WORD	n/a	wordpools/wordpool_categorized_EN.txt	SILK	Fabric	10	9	[0, 0, 0]	n/a	catFR1	3	R1397D
1491.048	0.783	1648642	WORD_OFF	n/a	n/a	SILK	Fabric	10	9	[0, 0, 0]	n/a	catFR1	3	R1397D
1491.831	1.601	1649431	WORD	n/a	wordpools/wordpool_categorized_EN.txt	EAR	BodyParts	11	9	[0, 0, 0]	n/a	catFR1	3	R1397D
1493.432	0.834	1651031	WORD_OFF	n/a	n/a	EAR	BodyParts	11	9	[0, 0, 0]	n/a	catFR1	3	R1397D
1494.266	1.6	1651861	WORD	n/a	wordpools/wordpool_categorized_EN.txt	TOE	BodyParts	12	9	[0, 0, 0]	n/a	catFR1	3	R1397D
1495.866	0.001	1653460	WORD_OFF	n/a	n/a	TOE	BodyParts	12	9	[0, 0, 0]	n/a	catFR1	3	R1397D
1495.867	0.0	1653460	ENCODING_END	n/a	n/a	n/a	n/a	-999	9	[0, 0, 0]	n/a	catFR1	3	R1397D
1495.866	0.001	1653462	PROB	8.183	n/a	n/a	n/a	-999	9	[7, 1, 8]	16.0	catFR1	3	R1397D
1495.867	0.0	1653463	START	n/a	n/a	n/a	n/a	-999	9	[-999, -999, -999]	n/a	catFR1	3	R1397D
1495.867	8.199	1653470	DISTRACT_START	n/a	n/a	n/a	n/a	-999	9	[0, 0, 0]	n/a	catFR1	3	R1397D
1504.066	3.101	1661661	PROB	3.083	n/a	n/a	n/a	-999	9	[3, 2, 4]	9.0	catFR1	3	R1397D
1507.167	6.4	1664762	PROB	6.382	n/a	n/a	n/a	-999	9	[5, 7, 8]	20.0	catFR1	3	R1397D
1513.567	4.415	1671162	PROB	4.399	n/a	n/a	n/a	-999	9	[8, 5, 5]	18.0	catFR1	3	R1397D
1517.982	0.0	1675577	STOP	n/a	n/a	n/a	n/a	-999	9	[-999, -999, -999]	n/a	catFR1	3	R1397D
1517.982	2.084	1675578	DISTRACT_END	n/a	n/a	n/a	n/a	-999	9	[0, 0, 0]	n/a	catFR1	3	R1397D
1520.066	2.625	1677661	REC_START	n/a	n/a	n/a	n/a	-999	9	[0, 0, 0]	n/a	catFR1	3	R1397D
1522.691	1.0	1680286	REC_WORD	2.625	n/a	OCTOPUS	OceanAnimals	8	9	[0, 0, 0]	n/a	catFR1	3	R1397D
1523.691	0.902	1681285	REC_WORD_VV	3.625	n/a	<>	n/a	-999	9	[0, 0, 0]	n/a	catFR1	3	R1397D
1524.593	1.031	1682187	REC_WORD	4.527	n/a	WHIRL	n/a	-999	9	[0, 0, 0]	n/a	catFR1	3	R1397D
1525.624	1.423	1683218	REC_WORD	5.558	n/a	SILK	Fabric	10	9	[0, 0, 0]	n/a	catFR1	3	R1397D
1527.047	1.097	1684641	REC_WORD	6.981	n/a	EAR	BodyParts	11	9	[0, 0, 0]	n/a	catFR1	3	R1397D
1528.144	14.913	1685738	REC_WORD	8.078	n/a	TOE	BodyParts	12	9	[0, 0, 0]	n/a	catFR1	3	R1397D
1543.057	7.235	1700650	REC_WORD	22.991	n/a	PLANKTON	OceanAnimals	2	9	[0, 0, 0]	n/a	catFR1	3	R1397D
1550.292	1.308	1707888	REC_END	n/a	n/a	n/a	n/a	-999	9	[0, 0, 0]	n/a	catFR1	3	R1397D
1551.6	10.349	1709194	COUNTDOWN_START	n/a	n/a	n/a	n/a	-999	10	[0, 0, 0]	n/a	catFR1	3	R1397D
1561.949	0.0	1719539	COUNTDOWN_END	n/a	n/a	n/a	n/a	-999	10	[0, 0, 0]	n/a	catFR1	3	R1397D
1561.949	2.232	1719539	ENCODING_START	n/a	n/a	n/a	n/a	-999	10	[0, 0, 0]	n/a	catFR1	3	R1397D
1564.181	1.601	1721776	WORD	n/a	wordpools/wordpool_categorized_EN.txt	WRENCH	Tools	1	10	[0, 0, 0]	n/a	catFR1	3	R1397D
1565.782	0.933	1723376	WORD_OFF	n/a	n/a	WRENCH	Tools	1	10	[0, 0, 0]	n/a	catFR1	3	R1397D
1566.715	1.6	1724307	WORD	n/a	wordpools/wordpool_categorized_EN.txt	AXE	Tools	2	10	[0, 0, 0]	n/a	catFR1	3	R1397D
1568.315	1.0	1725906	WORD_OFF	n/a	n/a	AXE	Tools	2	10	[0, 0, 0]	n/a	catFR1	3	R1397D
1569.315	1.601	1726908	WORD	n/a	wordpools/wordpool_categorized_EN.txt	CRAB	OceanAnimals	3	10	[0, 0, 0]	n/a	catFR1	3	R1397D
1570.916	0.882	1728508	WORD_OFF	n/a	n/a	CRAB	OceanAnimals	3	10	[0, 0, 0]	n/a	catFR1	3	R1397D
1571.798	1.601	1729388	WORD	n/a	wordpools/wordpool_categorized_EN.txt	SQUID	OceanAnimals	4	10	[0, 0, 0]	n/a	catFR1	3	R1397D
1573.399	1.0	1730988	WORD_OFF	n/a	n/a	SQUID	OceanAnimals	4	10	[0, 0, 0]	n/a	catFR1	3	R1397D
1574.399	1.6	1731990	WORD	n/a	wordpools/wordpool_categorized_EN.txt	CABBAGE	Vegetables	5	10	[0, 0, 0]	n/a	catFR1	3	R1397D
1575.999	0.8	1733589	WORD_OFF	n/a	n/a	CABBAGE	Vegetables	5	10	[0, 0, 0]	n/a	catFR1	3	R1397D
1576.799	1.6	1734389	WORD	n/a	wordpools/wordpool_categorized_EN.txt	ONION	Vegetables	6	10	[0, 0, 0]	n/a	catFR1	3	R1397D
1578.399	0.767	1735988	WORD_OFF	n/a	n/a	ONION	Vegetables	6	10	[0, 0, 0]	n/a	catFR1	3	R1397D
1579.166	1.616	1736758	WORD	n/a	wordpools/wordpool_categorized_EN.txt	FISH	OceanAnimals	7	10	[0, 0, 0]	n/a	catFR1	3	R1397D
1580.782	0.834	1738377	WORD_OFF	n/a	n/a	FISH	OceanAnimals	7	10	[0, 0, 0]	n/a	catFR1	3	R1397D
1581.616	1.6	1739207	WORD	n/a	wordpools/wordpool_categorized_EN.txt	JELLYFISH	OceanAnimals	8	10	[0, 0, 0]	n/a	catFR1	3	R1397D
1583.216	0.9	1740807	WORD_OFF	n/a	n/a	JELLYFISH	OceanAnimals	8	10	[0, 0, 0]	n/a	catFR1	3	R1397D
1584.116	1.6	1741707	WORD	n/a	wordpools/wordpool_categorized_EN.txt	SANDER	Tools	9	10	[0, 0, 0]	n/a	catFR1	3	R1397D
1585.716	0.982	1743307	WORD_OFF	n/a	n/a	SANDER	Tools	9	10	[0, 0, 0]	n/a	catFR1	3	R1397D
1586.698	1.601	1744289	WORD	n/a	wordpools/wordpool_categorized_EN.txt	DRILL	Tools	10	10	[0, 0, 0]	n/a	catFR1	3	R1397D
1588.299	1.0	1745888	WORD_OFF	n/a	n/a	DRILL	Tools	10	10	[0, 0, 0]	n/a	catFR1	3	R1397D
1589.299	1.617	1746890	WORD	n/a	wordpools/wordpool_categorized_EN.txt	CUCUMBER	Vegetables	11	10	[0, 0, 0]	n/a	catFR1	3	R1397D
1590.916	0.866	1748510	WORD_OFF	n/a	n/a	CUCUMBER	Vegetables	11	10	[0, 0, 0]	n/a	catFR1	3	R1397D
1591.782	1.6	1749370	WORD	n/a	wordpools/wordpool_categorized_EN.txt	PEAS	Vegetables	12	10	[0, 0, 0]	n/a	catFR1	3	R1397D
1593.382	0.0	1750969	WORD_OFF	n/a	n/a	PEAS	Vegetables	12	10	[0, 0, 0]	n/a	catFR1	3	R1397D
1593.382	0.002	1750973	PROB	3.7	n/a	n/a	n/a	-999	10	[5, 4, 2]	11.0	catFR1	3	R1397D
1593.384	0.0	1750975	START	n/a	n/a	n/a	n/a	-999	10	[-999, -999, -999]	n/a	catFR1	3	R1397D
1593.384	0.0	1750980	ENCODING_END	n/a	n/a	n/a	n/a	-999	10	[0, 0, 0]	n/a	catFR1	3	R1397D
1593.384	3.714	1750980	DISTRACT_START	n/a	n/a	n/a	n/a	-999	10	[0, 0, 0]	n/a	catFR1	3	R1397D
1597.098	4.351	1754689	PROB	4.334	n/a	n/a	n/a	-999	10	[5, 7, 1]	13.0	catFR1	3	R1397D
1601.449	3.201	1759039	PROB	3.183	n/a	n/a	n/a	-999	10	[3, 5, 1]	9.0	catFR1	3	R1397D
1604.65	2.733	1762240	PROB	2.715	n/a	n/a	n/a	-999	10	[2, 3, 8]	13.0	catFR1	3	R1397D
1607.383	5.95	1764973	PROB	5.933	n/a	n/a	n/a	-999	10	[5, 7, 6]	18.0	catFR1	3	R1397D
1613.333	2.949	1770923	PROB	2.933	n/a	n/a	n/a	-999	10	[1, 2, 7]	10.0	catFR1	3	R1397D
1616.282	0.0	1773872	STOP	n/a	n/a	n/a	n/a	-999	10	[-999, -999, -999]	n/a	catFR1	3	R1397D
1616.282	2.083	1773877	DISTRACT_END	n/a	n/a	n/a	n/a	-999	10	[0, 0, 0]	n/a	catFR1	3	R1397D
1618.365	2.25	1775960	REC_START	n/a	n/a	n/a	n/a	-999	10	[0, 0, 0]	n/a	catFR1	3	R1397D
1620.615	1.159	1778204	REC_WORD	2.25	n/a	CUCUMBER	Vegetables	11	10	[0, 0, 0]	n/a	catFR1	3	R1397D
1621.774	1.088	1779363	REC_WORD	3.409	n/a	PEAS	Vegetables	12	10	[0, 0, 0]	n/a	catFR1	3	R1397D
1622.862	0.974	1780451	REC_WORD	4.497	n/a	AXE	Tools	2	10	[0, 0, 0]	n/a	catFR1	3	R1397D
1623.836	24.752	1781425	REC_WORD	5.471	n/a	SANDER	Tools	9	10	[0, 0, 0]	n/a	catFR1	3	R1397D
1648.588	1.794	1806177	REC_END	n/a	n/a	n/a	n/a	-999	10	[0, 0, 0]	n/a	catFR1	3	R1397D
1650.382	10.351	1807969	COUNTDOWN_START	n/a	n/a	n/a	n/a	-999	11	[0, 0, 0]	n/a	catFR1	3	R1397D
1660.733	0.0	1818324	COUNTDOWN_END	n/a	n/a	n/a	n/a	-999	11	[0, 0, 0]	n/a	catFR1	3	R1397D
1660.733	1.949	1818324	ENCODING_START	n/a	n/a	n/a	n/a	-999	11	[0, 0, 0]	n/a	catFR1	3	R1397D
1662.682	1.6	1820268	WORD	n/a	wordpools/wordpool_categorized_EN.txt	ATTIC	Building	1	11	[0, 0, 0]	n/a	catFR1	3	R1397D
1664.282	0.916	1821867	WORD_OFF	n/a	n/a	ATTIC	Building	1	11	[0, 0, 0]	n/a	catFR1	3	R1397D
1665.198	1.602	1822788	WORD	n/a	wordpools/wordpool_categorized_EN.txt	WINDOW	Building	2	11	[0, 0, 0]	n/a	catFR1	3	R1397D
1666.8	0.816	1824388	WORD_OFF	n/a	n/a	WINDOW	Building	2	11	[0, 0, 0]	n/a	catFR1	3	R1397D
1667.616	1.616	1825207	WORD	n/a	wordpools/wordpool_categorized_EN.txt	SPANDEX	Fabric	3	11	[0, 0, 0]	n/a	catFR1	3	R1397D
1669.232	0.767	1826817	WORD_OFF	n/a	n/a	SPANDEX	Fabric	3	11	[0, 0, 0]	n/a	catFR1	3	R1397D
1669.999	1.617	1827586	WORD	n/a	wordpools/wordpool_categorized_EN.txt	NYLON	Fabric	4	11	[0, 0, 0]	n/a	catFR1	3	R1397D
1671.616	0.95	1829206	WORD_OFF	n/a	n/a	NYLON	Fabric	4	11	[0, 0, 0]	n/a	catFR1	3	R1397D
1672.566	1.615	1830157	WORD	n/a	wordpools/wordpool_categorized_EN.txt	TELEVISION	Electronics	5	11	[0, 0, 0]	n/a	catFR1	3	R1397D
1674.181	0.984	1831767	WORD_OFF	n/a	n/a	TELEVISION	Electronics	5	11	[0, 0, 0]	n/a	catFR1	3	R1397D
1675.165	1.601	1832749	WORD	n/a	wordpools/wordpool_categorized_EN.txt	MICROWAVE	Electronics	6	11	[0, 0, 0]	n/a	catFR1	3	R1397D
1676.766	0.865	1834348	WORD_OFF	n/a	n/a	MICROWAVE	Electronics	6	11	[0, 0, 0]	n/a	catFR1	3	R1397D
1677.631	1.601	1835219	WORD	n/a	wordpools/wordpool_categorized_EN.txt	STAIRS	Building	7	11	[0, 0, 0]	n/a	catFR1	3	R1397D
1679.232	0.984	1836818	WORD_OFF	n/a	n/a	STAIRS	Building	7	11	[0, 0, 0]	n/a	catFR1	3	R1397D
1680.216	1.6	1837800	WORD	n/a	wordpools/wordpool_categorized_EN.txt	FLOOR	Building	8	11	[0, 0, 0]	n/a	catFR1	3	R1397D
1681.816	0.8	1839399	WORD_OFF	n/a	n/a	FLOOR	Building	8	11	[0, 0, 0]	n/a	catFR1	3	R1397D
1682.616	1.616	1840199	WORD	n/a	wordpools/wordpool_categorized_EN.txt	SATIN	Fabric	9	11	[0, 0, 0]	n/a	catFR1	3	R1397D
1684.232	0.984	1841818	WORD_OFF	n/a	n/a	SATIN	Fabric	9	11	[0, 0, 0]	n/a	catFR1	3	R1397D
1685.216	1.616	1842800	WORD	n/a	wordpools/wordpool_categorized_EN.txt	FLEECE	Fabric	10	11	[0, 0, 0]	n/a	catFR1	3	R1397D
1686.832	0.934	1844420	WORD_OFF	n/a	n/a	FLEECE	Fabric	10	11	[0, 0, 0]	n/a	catFR1	3	R1397D
1687.766	1.6	1845351	WORD	n/a	wordpools/wordpool_categorized_EN.txt	COMPUTER	Electronics	11	11	[0, 0, 0]	n/a	catFR1	3	R1397D
1689.366	0.799	1846950	WORD_OFF	n/a	n/a	COMPUTER	Electronics	11	11	[0, 0, 0]	n/a	catFR1	3	R1397D
1690.165	1.601	1847750	WORD	n/a	wordpools/wordpool_categorized_EN.txt	PRINTER	Electronics	12	11	[0, 0, 0]	n/a	catFR1	3	R1397D
1691.766	0.001	1849349	WORD_OFF	n/a	n/a	PRINTER	Electronics	12	11	[0, 0, 0]	n/a	catFR1	3	R1397D
1691.767	0.0	1849349	ENCODING_END	n/a	n/a	n/a	n/a	-999	11	[0, 0, 0]	n/a	catFR1	3	R1397D
1691.766	0.001	1849352	PROB	6.566	n/a	n/a	n/a	-999	11	[8, 3, 8]	19.0	catFR1	3	R1397D
1691.767	0.0	1849353	START	n/a	n/a	n/a	n/a	-999	11	[-999, -999, -999]	n/a	catFR1	3	R1397D
1691.767	6.582	1849360	DISTRACT_START	n/a	n/a	n/a	n/a	-999	11	[0, 0, 0]	n/a	catFR1	3	R1397D
1698.349	4.767	1855934	PROB	4.749	n/a	n/a	n/a	-999	11	[6, 3, 7]	16.0	catFR1	3	R1397D
1703.116	3.3	1860701	PROB	3.283	n/a	n/a	n/a	-999	11	[3, 8, 2]	13.0	catFR1	3	R1397D
1706.416	2.766	1864001	PROB	2.75	n/a	n/a	n/a	-999	11	[4, 1, 6]	11.0	catFR1	3	R1397D
1709.182	3.466	1866767	PROB	3.45	n/a	n/a	n/a	-999	11	[4, 7, 7]	18.0	catFR1	3	R1397D
1712.648	0.0	1870232	DISTRACT_END	n/a	n/a	n/a	n/a	-999	11	[0, 0, 0]	n/a	catFR1	3	R1397D
1712.648	2.334	1870233	STOP	n/a	n/a	n/a	n/a	-999	11	[-999, -999, -999]	n/a	catFR1	3	R1397D
1714.982	2.474	1872568	REC_START	n/a	n/a	n/a	n/a	-999	11	[0, 0, 0]	n/a	catFR1	3	R1397D
1717.456	0.884	1875040	REC_WORD	2.474	n/a	STAIRS	Building	7	11	[0, 0, 0]	n/a	catFR1	3	R1397D
1718.34	0.917	1875924	REC_WORD	3.358	n/a	COMPUTER	Electronics	11	11	[0, 0, 0]	n/a	catFR1	3	R1397D
1719.257	1.104	1876841	REC_WORD	4.275	n/a	FLEECE	Fabric	10	11	[0, 0, 0]	n/a	catFR1	3	R1397D
1720.361	17.772	1877945	REC_WORD	5.379	n/a	PRINTER	Electronics	12	11	[0, 0, 0]	n/a	catFR1	3	R1397D
1738.133	7.081	1895716	REC_WORD	23.151	n/a	FLEECE	Fabric	10	11	[0, 0, 0]	n/a	catFR1	3	R1397D
1745.214	1.651	1902796	REC_END	n/a	n/a	n/a	n/a	-999	11	[0, 0, 0]	n/a	catFR1	3	R1397D
1746.865	10.351	1904446	COUNTDOWN_START	n/a	n/a	n/a	n/a	-999	12	[0, 0, 0]	n/a	catFR1	3	R1397D
1757.216	0.0	1914801	COUNTDOWN_END	n/a	n/a	n/a	n/a	-999	12	[0, 0, 0]	n/a	catFR1	3	R1397D
1757.216	2.216	1914801	ENCODING_START	n/a	n/a	n/a	n/a	-999	12	[0, 0, 0]	n/a	catFR1	3	R1397D
1759.432	1.617	1917018	WORD	n/a	wordpools/wordpool_categorized_EN.txt	CLOUD	Weather	1	12	[0, 0, 0]	n/a	catFR1	3	R1397D
1761.049	0.9	1918627	WORD_OFF	n/a	n/a	CLOUD	Weather	1	12	[0, 0, 0]	n/a	catFR1	3	R1397D
1761.949	1.6	1919528	WORD	n/a	wordpools/wordpool_categorized_EN.txt	DRIZZLE	Weather	2	12	[0, 0, 0]	n/a	catFR1	3	R1397D
1763.549	0.917	1921128	WORD_OFF	n/a	n/a	DRIZZLE	Weather	2	12	[0, 0, 0]	n/a	catFR1	3	R1397D
1764.466	1.616	1922049	WORD	n/a	wordpools/wordpool_categorized_EN.txt	DENIM	Fabric	3	12	[0, 0, 0]	n/a	catFR1	3	R1397D
1766.082	0.9	1923668	WORD_OFF	n/a	n/a	DENIM	Fabric	3	12	[0, 0, 0]	n/a	catFR1	3	R1397D
1766.982	1.617	1924569	WORD	n/a	wordpools/wordpool_categorized_EN.txt	VELVET	Fabric	4	12	[0, 0, 0]	n/a	catFR1	3	R1397D
1768.599	1.0	1926179	WORD_OFF	n/a	n/a	VELVET	Fabric	4	12	[0, 0, 0]	n/a	catFR1	3	R1397D
1769.599	1.6	1927181	WORD	n/a	wordpools/wordpool_categorized_EN.txt	ROOM	Building	5	12	[0, 0, 0]	n/a	catFR1	3	R1397D
1771.199	0.983	1928780	WORD_OFF	n/a	n/a	ROOM	Building	5	12	[0, 0, 0]	n/a	catFR1	3	R1397D
1772.182	1.6	1929762	WORD	n/a	wordpools/wordpool_categorized_EN.txt	FOUNDATION	Building	6	12	[0, 0, 0]	n/a	catFR1	3	R1397D
1773.782	0.833	1931361	WORD_OFF	n/a	n/a	FOUNDATION	Building	6	12	[0, 0, 0]	n/a	catFR1	3	R1397D
1774.615	1.601	1932202	WORD	n/a	wordpools/wordpool_categorized_EN.txt	LINEN	Fabric	7	12	[0, 0, 0]	n/a	catFR1	3	R1397D
1776.216	0.916	1933801	WORD_OFF	n/a	n/a	LINEN	Fabric	7	12	[0, 0, 0]	n/a	catFR1	3	R1397D
1777.132	1.6	1934712	WORD	n/a	wordpools/wordpool_categorized_EN.txt	SUEDE	Fabric	8	12	[0, 0, 0]	n/a	catFR1	3	R1397D
1778.732	0.767	1936311	WORD_OFF	n/a	n/a	SUEDE	Fabric	8	12	[0, 0, 0]	n/a	catFR1	3	R1397D
1779.499	1.6	1937081	WORD	n/a	wordpools/wordpool_categorized_EN.txt	RAIN	Weather	9	12	[0, 0, 0]	n/a	catFR1	3	R1397D
1781.099	0.8	1938680	WORD_OFF	n/a	n/a	RAIN	Weather	9	12	[0, 0, 0]	n/a	catFR1	3	R1397D
1781.899	1.6	1939480	WORD	n/a	wordpools/wordpool_categorized_EN.txt	THUNDERSTORM	Weather	10	12	[0, 0, 0]	n/a	catFR1	3	R1397D
1783.499	0.916	1941079	WORD_OFF	n/a	n/a	THUNDERSTORM	Weather	10	12	[0, 0, 0]	n/a	catFR1	3	R1397D
1784.415	1.601	1942000	WORD	n/a	wordpools/wordpool_categorized_EN.txt	WALL	Building	11	12	[0, 0, 0]	n/a	catFR1	3	R1397D
1786.016	0.95	1943600	WORD_OFF	n/a	n/a	WALL	Building	11	12	[0, 0, 0]	n/a	catFR1	3	R1397D
1786.966	1.616	1944551	WORD	n/a	wordpools/wordpool_categorized_EN.txt	ROOF	Building	12	12	[0, 0, 0]	n/a	catFR1	3	R1397D
1788.582	0.001	1946160	WORD_OFF	n/a	n/a	ROOF	Building	12	12	[0, 0, 0]	n/a	catFR1	3	R1397D
1788.583	0.001	1946164	PROB	3.266	n/a	n/a	n/a	-999	12	[1, 4, 1]	6.0	catFR1	3	R1397D
1788.584	0.0	1946165	START	n/a	n/a	n/a	n/a	-999	12	[-999, -999, -999]	n/a	catFR1	3	R1397D
1788.584	0.0	1946171	ENCODING_END	n/a	n/a	n/a	n/a	-999	12	[0, 0, 0]	n/a	catFR1	3	R1397D
1788.584	3.282	1946171	DISTRACT_START	n/a	n/a	n/a	n/a	-999	12	[0, 0, 0]	n/a	catFR1	3	R1397D
1791.866	2.584	1949447	PROB	2.566	n/a	n/a	n/a	-999	12	[2, 1, 5]	8.0	catFR1	3	R1397D
1794.45	4.116	1952030	PROB	4.099	n/a	n/a	n/a	-999	12	[6, 2, 3]	11.0	catFR1	3	R1397D
1798.566	3.383	1956146	PROB	3.366	n/a	n/a	n/a	-999	12	[8, 4, 1]	13.0	catFR1	3	R1397D
1801.949	5.983	1959529	PROB	5.966	n/a	n/a	n/a	-999	12	[7, 4, 8]	19.0	catFR1	3	R1397D
1807.932	4.516	1965512	PROB	4.5	n/a	n/a	n/a	-999	12	[5, 7, 2]	14.0	catFR1	3	R1397D
1812.448	0.0	1970028	STOP	n/a	n/a	n/a	n/a	-999	12	[-999, -999, -999]	n/a	catFR1	3	R1397D
1812.448	2.267	1970029	DISTRACT_END	n/a	n/a	n/a	n/a	-999	12	[0, 0, 0]	n/a	catFR1	3	R1397D
1814.715	2.868	1972295	REC_START	n/a	n/a	n/a	n/a	-999	12	[0, 0, 0]	n/a	catFR1	3	R1397D
1817.583	0.85	1975162	REC_WORD_VV	2.868	n/a	<>	n/a	-999	12	[0, 0, 0]	n/a	catFR1	3	R1397D
1818.433	0.912	1976012	REC_WORD	3.718	n/a	RAIN	Weather	9	12	[0, 0, 0]	n/a	catFR1	3	R1397D
1819.345	10.591	1976924	REC_WORD	4.63	n/a	THUNDERSTORM	Weather	10	12	[0, 0, 0]	n/a	catFR1	3	R1397D
1829.936	14.991	1987515	REC_WORD	15.221	n/a	RAIN	Weather	9	12	[0, 0, 0]	n/a	catFR1	3	R1397D
1844.927	0.0	2002502	REC_END	n/a	n/a	n/a	n/a	-999	12	[0, 0, 0]	n/a	catFR1	3	R1397D
