onset	duration	sample	trial_type	response_time	stim_file	item_name	category	serialpos	list	test	answer	experiment	session	subject
0.0	27.709	9207	SESS_START	n/a	n/a	n/a	n/a	-999	-999	[0, 0, 0]	n/a	catFR1	0	R1192C
27.709	10.0	23060	COUNTDOWN_START	n/a	n/a	n/a	n/a	-999	-999	[0, 0, 0]	n/a	catFR1	0	R1192C
38.137	3.758	28274	COUNTDOWN_END	n/a	n/a	n/a	n/a	-999	-999	[0, 0, 0]	n/a	catFR1	0	R1192C
41.895	1.6	30153	PRACTICE_WORD	n/a	n/a	ATTIC	n/a	-999	-999	[0, 0, 0]	n/a	catFR1	0	R1192C
44.413	1.6	31412	PRACTICE_WORD	n/a	n/a	CAMEL	n/a	-999	-999	[0, 0, 0]	n/a	catFR1	0	R1192C
46.913	1.6	32662	PRACTICE_WORD	n/a	n/a	FLOOD	n/a	-999	-999	[0, 0, 0]	n/a	catFR1	0	R1192C
49.447	1.6	33928	PRACTICE_WORD	n/a	n/a	RING	n/a	-999	-999	[0, 0, 0]	n/a	catFR1	0	R1192C
52.014	1.6	35212	PRACTICE_WORD	n/a	n/a	RHINO	n/a	-999	-999	[0, 0, 0]	n/a	catFR1	0	R1192C
54.548	1.6	36479	PRACTICE_WORD	n/a	n/a	WAGON	n/a	-999	-999	[0, 0, 0]	n/a	catFR1	0	R1192C
56.965	1.6	37687	PRACTICE_WORD	n/a	n/a	IRON	n/a	-999	-999	[0, 0, 0]	n/a	catFR1	0	R1192C
59.382	1.6	38896	PRACTICE_WORD	n/a	n/a	BEAM	n/a	-999	-999	[0, 0, 0]	n/a	catFR1	0	R1192C
61.816	1.6	40113	PRACTICE_WORD	n/a	n/a	CHEST	n/a	-999	-999	[0, 0, 0]	n/a	catFR1	0	R1192C
64.417	1.6	41413	PRACTICE_WORD	n/a	n/a	COTTON	n/a	-999	-999	[0, 0, 0]	n/a	catFR1	0	R1192C
66.984	1.6	42696	PRACTICE_WORD	n/a	n/a	WATCH	n/a	-999	-999	[0, 0, 0]	n/a	catFR1	0	R1192C
69.534	1.6	43971	PRACTICE_WORD	n/a	n/a	TONGUE	n/a	-999	-999	[0, 0, 0]	n/a	catFR1	0	R1192C
71.151	0.0	44780	PRACTICE_DISTRACT_START	n/a	n/a	n/a	n/a	-999	-999	[0, 0, 0]	n/a	catFR1	0	R1192C
71.151	0.017	44780	START	n/a	n/a	n/a	n/a	-999	-1	[-999, -999, -999]	n/a	catFR1	0	R1192C
71.168	17.986	44788	PROB	17.955	n/a	n/a	n/a	-999	-1	[6, 5, 9]	20.0	catFR1	0	R1192C
89.154	8.874	53781	PROB	8.874	n/a	n/a	n/a	-999	-1	[8, 5, 2]	15.0	catFR1	0	R1192C
98.028	0.012	58217	STOP	n/a	n/a	n/a	n/a	-999	-1	[-999, -999, -999]	n/a	catFR1	0	R1192C
98.04	0.602	58223	PRACTICE_DISTRACT_END	n/a	n/a	n/a	n/a	-999	-999	[0, 0, 0]	n/a	catFR1	0	R1192C
98.642	30.514	58524	PRACTICE_REC_START	n/a	n/a	n/a	n/a	-999	-999	[0, 0, 0]	n/a	catFR1	0	R1192C
129.156	49.215	73780	PRACTICE_REC_END	n/a	n/a	n/a	n/a	-999	-999	[0, 0, 0]	n/a	catFR1	0	R1192C
178.371	10.0	98386	COUNTDOWN_START	n/a	n/a	n/a	n/a	-999	1	[0, 0, 0]	n/a	catFR1	0	R1192C
178.372	10.427	98386	TRIAL	n/a	n/a	n/a	n/a	-999	1	[0, 0, 0]	n/a	catFR1	0	R1192C
188.799	0.008	103599	COUNTDOWN_END	n/a	n/a	n/a	n/a	-999	1	[0, 0, 0]	n/a	catFR1	0	R1192C
188.807	1.6	103603	ORIENT	n/a	n/a	n/a	n/a	-999	1	[0, 0, 0]	n/a	catFR1	0	R1192C
192.707	1.6	105553	WORD	n/a	wordpools/wordpool_categorized_EN.txt	COFFEE	Beverages	1	1	[0, 0, 0]	n/a	catFR1	0	R1192C
195.19	1.6	106795	WORD	n/a	wordpools/wordpool_categorized_EN.txt	RUM	Beverages	2	1	[0, 0, 0]	n/a	catFR1	0	R1192C
197.692	1.6	108046	WORD	n/a	wordpools/wordpool_categorized_EN.txt	RATCHET	Tools	3	1	[0, 0, 0]	n/a	catFR1	0	R1192C
200.158	1.6	109279	WORD	n/a	wordpools/wordpool_categorized_EN.txt	SAW	Tools	4	1	[0, 0, 0]	n/a	catFR1	0	R1192C
202.776	1.6	110587	WORD	n/a	wordpools/wordpool_categorized_EN.txt	HAND	BodyParts	5	1	[0, 0, 0]	n/a	catFR1	0	R1192C
205.343	1.6	111871	WORD	n/a	wordpools/wordpool_categorized_EN.txt	NOSE	BodyParts	6	1	[0, 0, 0]	n/a	catFR1	0	R1192C
207.877	1.6	113138	WORD	n/a	wordpools/wordpool_categorized_EN.txt	JUICE	Beverages	7	1	[0, 0, 0]	n/a	catFR1	0	R1192C
210.311	1.6	114355	WORD	n/a	wordpools/wordpool_categorized_EN.txt	BEER	Beverages	8	1	[0, 0, 0]	n/a	catFR1	0	R1192C
212.761	1.6	115580	WORD	n/a	wordpools/wordpool_categorized_EN.txt	FINGERS	BodyParts	9	1	[0, 0, 0]	n/a	catFR1	0	R1192C
215.345	1.6	116872	WORD	n/a	wordpools/wordpool_categorized_EN.txt	KNEE	BodyParts	10	1	[0, 0, 0]	n/a	catFR1	0	R1192C
217.945	1.6	118171	WORD	n/a	wordpools/wordpool_categorized_EN.txt	SHOVEL	Tools	11	1	[0, 0, 0]	n/a	catFR1	0	R1192C
220.496	1.6	119447	WORD	n/a	wordpools/wordpool_categorized_EN.txt	AXE	Tools	12	1	[0, 0, 0]	n/a	catFR1	0	R1192C
222.113	0.001	120255	DISTRACT_START	n/a	n/a	n/a	n/a	-999	1	[0, 0, 0]	n/a	catFR1	0	R1192C
222.114	0.016	120256	START	n/a	n/a	n/a	n/a	-999	1	[-999, -999, -999]	n/a	catFR1	0	R1192C
222.13	9.468	120264	PROB	9.442	n/a	n/a	n/a	-999	1	[3, 2, 8]	13.0	catFR1	0	R1192C
231.598	7.051	124997	PROB	7.022	n/a	n/a	n/a	-999	1	[4, 6, 6]	16.0	catFR1	0	R1192C
238.649	7.251	128523	PROB	7.251	n/a	n/a	n/a	-999	1	[1, 3, 1]	5.0	catFR1	0	R1192C
245.9	0.017	132148	STOP	n/a	n/a	n/a	n/a	-999	1	[-999, -999, -999]	n/a	catFR1	0	R1192C
245.917	1.155	132156	DISTRACT_END	n/a	n/a	n/a	n/a	-999	1	[0, 0, 0]	n/a	catFR1	0	R1192C
247.072	3.181	132734	REC_START	n/a	n/a	n/a	n/a	-999	1	[0, 0, 0]	n/a	catFR1	0	R1192C
250.253	0.594	134324	REC_WORD	3.181	n/a	COFFEE	Beverages	1	1	[0, 0, 0]	n/a	catFR1	0	R1192C
250.847	0.443	134621	REC_WORD	3.775	n/a	RUM	Beverages	2	1	[0, 0, 0]	n/a	catFR1	0	R1192C
251.29	1.29	134843	REC_WORD	4.218	n/a	HAND	BodyParts	5	1	[0, 0, 0]	n/a	catFR1	0	R1192C
252.58	1.534	135488	REC_WORD	5.508	n/a	SHOVEL	Tools	11	1	[0, 0, 0]	n/a	catFR1	0	R1192C
254.114	2.906	136255	REC_WORD	7.042	n/a	FINGERS	BodyParts	9	1	[0, 0, 0]	n/a	catFR1	0	R1192C
257.02	8.341	137708	REC_WORD	9.948	n/a	JUICE	Beverages	7	1	[0, 0, 0]	n/a	catFR1	0	R1192C
265.361	11.72	141878	REC_WORD_VV	18.289	n/a	<>	n/a	-999	1	[0, 0, 0]	n/a	catFR1	0	R1192C
277.081	14.395	147737	REC_END	n/a	n/a	n/a	n/a	-999	1	[0, 0, 0]	n/a	catFR1	0	R1192C
291.476	0.0	154934	TRIAL	n/a	n/a	n/a	n/a	-999	2	[0, 0, 0]	n/a	catFR1	0	R1192C
291.476	10.0	154934	COUNTDOWN_START	n/a	n/a	n/a	n/a	-999	2	[0, 0, 0]	n/a	catFR1	0	R1192C
301.904	0.007	160148	COUNTDOWN_END	n/a	n/a	n/a	n/a	-999	2	[0, 0, 0]	n/a	catFR1	0	R1192C
301.911	1.6	160151	ORIENT	n/a	n/a	n/a	n/a	-999	2	[0, 0, 0]	n/a	catFR1	0	R1192C
305.445	1.6	161918	WORD	n/a	wordpools/wordpool_categorized_EN.txt	SPINACH	Vegetables	1	2	[0, 0, 0]	n/a	catFR1	0	R1192C
307.962	1.6	163177	WORD	n/a	wordpools/wordpool_categorized_EN.txt	CELERY	Vegetables	2	2	[0, 0, 0]	n/a	catFR1	0	R1192C
310.579	1.6	164485	WORD	n/a	wordpools/wordpool_categorized_EN.txt	CORKSCREW	KitchenTools	3	2	[0, 0, 0]	n/a	catFR1	0	R1192C
313.03	1.6	165710	WORD	n/a	wordpools/wordpool_categorized_EN.txt	COLANDER	KitchenTools	4	2	[0, 0, 0]	n/a	catFR1	0	R1192C
315.664	1.6	167027	WORD	n/a	wordpools/wordpool_categorized_EN.txt	BANANA	Fruit	5	2	[0, 0, 0]	n/a	catFR1	0	R1192C
318.164	1.6	168277	WORD	n/a	wordpools/wordpool_categorized_EN.txt	ORANGE	Fruit	6	2	[0, 0, 0]	n/a	catFR1	0	R1192C
320.598	1.6	169494	WORD	n/a	wordpools/wordpool_categorized_EN.txt	KNIFE	KitchenTools	7	2	[0, 0, 0]	n/a	catFR1	0	R1192C
323.148	1.6	170769	WORD	n/a	wordpools/wordpool_categorized_EN.txt	STRAINER	KitchenTools	8	2	[0, 0, 0]	n/a	catFR1	0	R1192C
325.549	1.6	171970	WORD	n/a	wordpools/wordpool_categorized_EN.txt	CUCUMBER	Vegetables	9	2	[0, 0, 0]	n/a	catFR1	0	R1192C
328.133	1.6	173261	WORD	n/a	wordpools/wordpool_categorized_EN.txt	BROCCOLI	Vegetables	10	2	[0, 0, 0]	n/a	catFR1	0	R1192C
330.633	1.6	174511	WORD	n/a	wordpools/wordpool_categorized_EN.txt	STRAWBERRY	Fruit	11	2	[0, 0, 0]	n/a	catFR1	0	R1192C
333.017	1.6	175703	WORD	n/a	wordpools/wordpool_categorized_EN.txt	CHERRY	Fruit	12	2	[0, 0, 0]	n/a	catFR1	0	R1192C
334.634	0.001	176512	DISTRACT_START	n/a	n/a	n/a	n/a	-999	2	[0, 0, 0]	n/a	catFR1	0	R1192C
334.635	0.016	176512	START	n/a	n/a	n/a	n/a	-999	2	[-999, -999, -999]	n/a	catFR1	0	R1192C
334.651	9.201	176520	PROB	9.177	n/a	n/a	n/a	-999	2	[2, 1, 6]	9.0	catFR1	0	R1192C
343.852	5.535	181120	PROB	5.504	n/a	n/a	n/a	-999	2	[5, 1, 4]	10.0	catFR1	0	R1192C
349.387	4.866	183888	PROB	4.84	n/a	n/a	n/a	-999	2	[2, 2, 5]	9.0	catFR1	0	R1192C
354.253	5.919	186321	PROB	5.919	n/a	n/a	n/a	-999	2	[7, 7, 7]	21.0	catFR1	0	R1192C
360.172	0.017	189280	STOP	n/a	n/a	n/a	n/a	-999	2	[-999, -999, -999]	n/a	catFR1	0	R1192C
360.189	1.151	189288	DISTRACT_END	n/a	n/a	n/a	n/a	-999	2	[0, 0, 0]	n/a	catFR1	0	R1192C
361.34	3.148	189864	REC_START	n/a	n/a	n/a	n/a	-999	2	[0, 0, 0]	n/a	catFR1	0	R1192C
364.488	1.937	191438	REC_WORD	3.148	n/a	CHERRY	Fruit	12	2	[0, 0, 0]	n/a	catFR1	0	R1192C
366.425	0.751	192406	REC_WORD	5.085	n/a	BROCCOLI	Vegetables	10	2	[0, 0, 0]	n/a	catFR1	0	R1192C
367.176	3.893	192782	REC_WORD	5.836	n/a	SPINACH	Vegetables	1	2	[0, 0, 0]	n/a	catFR1	0	R1192C
371.069	1.0	194728	REC_WORD_VV	9.729	n/a	<>	n/a	-999	2	[0, 0, 0]	n/a	catFR1	0	R1192C
372.069	0.209	195228	REC_WORD_VV	10.729	n/a	<>	n/a	-999	2	[0, 0, 0]	n/a	catFR1	0	R1192C
372.278	6.786	195332	REC_WORD	10.938	n/a	BANANA	Fruit	5	2	[0, 0, 0]	n/a	catFR1	0	R1192C
379.064	1.0	198725	REC_WORD_VV	17.724	n/a	<>	n/a	-999	2	[0, 0, 0]	n/a	catFR1	0	R1192C
380.064	11.287	199225	REC_WORD_VV	18.724	n/a	<>	n/a	-999	2	[0, 0, 0]	n/a	catFR1	0	R1192C
391.351	24.465	204868	REC_END	n/a	n/a	n/a	n/a	-999	2	[0, 0, 0]	n/a	catFR1	0	R1192C
415.816	0.0	217100	TRIAL	n/a	n/a	n/a	n/a	-999	3	[0, 0, 0]	n/a	catFR1	0	R1192C
415.816	10.0	217100	COUNTDOWN_START	n/a	n/a	n/a	n/a	-999	3	[0, 0, 0]	n/a	catFR1	0	R1192C
426.244	0.006	222313	COUNTDOWN_END	n/a	n/a	n/a	n/a	-999	3	[0, 0, 0]	n/a	catFR1	0	R1192C
426.25	1.6	222316	ORIENT	n/a	n/a	n/a	n/a	-999	3	[0, 0, 0]	n/a	catFR1	0	R1192C
429.869	1.6	224126	WORD	n/a	wordpools/wordpool_categorized_EN.txt	REFRIGERATOR	Appliances	1	3	[0, 0, 0]	n/a	catFR1	0	R1192C
432.452	1.6	225417	WORD	n/a	wordpools/wordpool_categorized_EN.txt	OVEN	Appliances	2	3	[0, 0, 0]	n/a	catFR1	0	R1192C
434.853	1.6	226618	WORD	n/a	wordpools/wordpool_categorized_EN.txt	FOOTBALL	Toys	3	3	[0, 0, 0]	n/a	catFR1	0	R1192C
437.303	1.6	227843	WORD	n/a	wordpools/wordpool_categorized_EN.txt	PUZZLE	Toys	4	3	[0, 0, 0]	n/a	catFR1	0	R1192C
439.854	1.6	229118	WORD	n/a	wordpools/wordpool_categorized_EN.txt	PLIERS	Tools	5	3	[0, 0, 0]	n/a	catFR1	0	R1192C
442.27	1.6	230326	WORD	n/a	wordpools/wordpool_categorized_EN.txt	LEVEL	Tools	6	3	[0, 0, 0]	n/a	catFR1	0	R1192C
444.705	1.6	231543	WORD	n/a	wordpools/wordpool_categorized_EN.txt	BASEBALL	Toys	7	3	[0, 0, 0]	n/a	catFR1	0	R1192C
447.271	1.6	232826	WORD	n/a	wordpools/wordpool_categorized_EN.txt	BALL	Toys	8	3	[0, 0, 0]	n/a	catFR1	0	R1192C
449.856	1.6	234119	WORD	n/a	wordpools/wordpool_categorized_EN.txt	FREEZER	Appliances	9	3	[0, 0, 0]	n/a	catFR1	0	R1192C
452.473	1.6	235427	WORD	n/a	wordpools/wordpool_categorized_EN.txt	DRYER	Appliances	10	3	[0, 0, 0]	n/a	catFR1	0	R1192C
455.04	1.6	236710	WORD	n/a	wordpools/wordpool_categorized_EN.txt	SCREWDRIVER	Tools	11	3	[0, 0, 0]	n/a	catFR1	0	R1192C
457.557	1.6	237969	WORD	n/a	wordpools/wordpool_categorized_EN.txt	CROWBAR	Tools	12	3	[0, 0, 0]	n/a	catFR1	0	R1192C
459.174	0.001	238777	DISTRACT_START	n/a	n/a	n/a	n/a	-999	3	[0, 0, 0]	n/a	catFR1	0	R1192C
459.175	0.015	238778	START	n/a	n/a	n/a	n/a	-999	3	[-999, -999, -999]	n/a	catFR1	0	R1192C
459.19	9.769	238785	PROB	9.734	n/a	n/a	n/a	-999	3	[5, 9, 6]	20.0	catFR1	0	R1192C
468.959	7.668	243669	PROB	7.645	n/a	n/a	n/a	-999	3	[2, 5, 1]	8.0	catFR1	0	R1192C
476.627	5.681	247503	PROB	5.681	n/a	n/a	n/a	-999	3	[9, 9, 1]	19.0	catFR1	0	R1192C
482.308	0.003	250343	STOP	n/a	n/a	n/a	n/a	-999	3	[-999, -999, -999]	n/a	catFR1	0	R1192C
482.311	1.035	250345	DISTRACT_END	n/a	n/a	n/a	n/a	-999	3	[0, 0, 0]	n/a	catFR1	0	R1192C
483.346	2.104	250862	REC_START	n/a	n/a	n/a	n/a	-999	3	[0, 0, 0]	n/a	catFR1	0	R1192C
485.45	0.572	251914	REC_WORD	2.104	n/a	BASEBALL	Toys	7	3	[0, 0, 0]	n/a	catFR1	0	R1192C
486.022	0.594	252200	REC_WORD	2.676	n/a	FOOTBALL	Toys	3	3	[0, 0, 0]	n/a	catFR1	0	R1192C
486.616	1.144	252497	REC_WORD	3.27	n/a	REFRIGERATOR	Appliances	1	3	[0, 0, 0]	n/a	catFR1	0	R1192C
487.76	1.0	253069	REC_WORD	4.414	n/a	FREEZER	Appliances	9	3	[0, 0, 0]	n/a	catFR1	0	R1192C
488.76	3.55	253569	REC_WORD_VV	5.414	n/a	<>	n/a	-999	3	[0, 0, 0]	n/a	catFR1	0	R1192C
492.31	1.0	255344	REC_WORD_VV	8.964	n/a	<>	n/a	-999	3	[0, 0, 0]	n/a	catFR1	0	R1192C
493.31	0.819	255844	REC_WORD_VV	9.964	n/a	<>	n/a	-999	3	[0, 0, 0]	n/a	catFR1	0	R1192C
494.129	19.228	256253	REC_WORD	10.783	n/a	BALL	Toys	8	3	[0, 0, 0]	n/a	catFR1	0	R1192C
513.357	8.479	265867	REC_END	n/a	n/a	n/a	n/a	-999	3	[0, 0, 0]	n/a	catFR1	0	R1192C
521.836	0.0	270106	TRIAL	n/a	n/a	n/a	n/a	-999	4	[0, 0, 0]	n/a	catFR1	0	R1192C
521.836	10.0	270106	COUNTDOWN_START	n/a	n/a	n/a	n/a	-999	4	[0, 0, 0]	n/a	catFR1	0	R1192C
532.264	0.006	275320	COUNTDOWN_END	n/a	n/a	n/a	n/a	-999	4	[0, 0, 0]	n/a	catFR1	0	R1192C
532.27	1.6	275323	ORIENT	n/a	n/a	n/a	n/a	-999	4	[0, 0, 0]	n/a	catFR1	0	R1192C
535.905	1.6	277140	WORD	n/a	wordpools/wordpool_categorized_EN.txt	GLUE	OfficeSupplies	1	4	[0, 0, 0]	n/a	catFR1	0	R1192C
538.472	1.6	278423	WORD	n/a	wordpools/wordpool_categorized_EN.txt	PEN	OfficeSupplies	2	4	[0, 0, 0]	n/a	catFR1	0	R1192C
540.906	1.6	279640	WORD	n/a	wordpools/wordpool_categorized_EN.txt	PEAS	Vegetables	3	4	[0, 0, 0]	n/a	catFR1	0	R1192C
543.457	1.6	280916	WORD	n/a	wordpools/wordpool_categorized_EN.txt	CAULIFLOWER	Vegetables	4	4	[0, 0, 0]	n/a	catFR1	0	R1192C
546.057	1.6	282216	WORD	n/a	wordpools/wordpool_categorized_EN.txt	CARNATION	Flowers	5	4	[0, 0, 0]	n/a	catFR1	0	R1192C
548.474	1.6	283424	WORD	n/a	wordpools/wordpool_categorized_EN.txt	SUNFLOWER	Flowers	6	4	[0, 0, 0]	n/a	catFR1	0	R1192C
550.875	1.6	284624	WORD	n/a	wordpools/wordpool_categorized_EN.txt	TAPE	OfficeSupplies	7	4	[0, 0, 0]	n/a	catFR1	0	R1192C
553.425	1.6	285899	WORD	n/a	wordpools/wordpool_categorized_EN.txt	PAPER	OfficeSupplies	8	4	[0, 0, 0]	n/a	catFR1	0	R1192C
555.976	1.6	287175	WORD	n/a	wordpools/wordpool_categorized_EN.txt	LILAC	Flowers	9	4	[0, 0, 0]	n/a	catFR1	0	R1192C
558.559	1.6	288466	WORD	n/a	wordpools/wordpool_categorized_EN.txt	MARIGOLD	Flowers	10	4	[0, 0, 0]	n/a	catFR1	0	R1192C
561.06	1.6	289717	WORD	n/a	wordpools/wordpool_categorized_EN.txt	LETTUCE	Vegetables	11	4	[0, 0, 0]	n/a	catFR1	0	R1192C
563.444	1.6	290908	WORD	n/a	wordpools/wordpool_categorized_EN.txt	POTATO	Vegetables	12	4	[0, 0, 0]	n/a	catFR1	0	R1192C
565.061	0.001	291717	DISTRACT_START	n/a	n/a	n/a	n/a	-999	4	[0, 0, 0]	n/a	catFR1	0	R1192C
565.062	0.015	291717	START	n/a	n/a	n/a	n/a	-999	4	[-999, -999, -999]	n/a	catFR1	0	R1192C
565.077	8.369	291725	PROB	8.335	n/a	n/a	n/a	-999	4	[5, 4, 6]	15.0	catFR1	0	R1192C
573.446	12.038	295909	PROB	12.038	n/a	n/a	n/a	-999	4	[8, 3, 5]	16.0	catFR1	0	R1192C
585.484	0.014	301928	STOP	n/a	n/a	n/a	n/a	-999	4	[-999, -999, -999]	n/a	catFR1	0	R1192C
585.498	1.134	301935	DISTRACT_END	n/a	n/a	n/a	n/a	-999	4	[0, 0, 0]	n/a	catFR1	0	R1192C
586.632	6.578	302502	REC_START	n/a	n/a	n/a	n/a	-999	4	[0, 0, 0]	n/a	catFR1	0	R1192C
593.21	1.0	305790	REC_WORD_VV	6.578	n/a	<>	n/a	-999	4	[0, 0, 0]	n/a	catFR1	0	R1192C
594.21	4.429	306290	REC_WORD_VV	7.578	n/a	<>	n/a	-999	4	[0, 0, 0]	n/a	catFR1	0	R1192C
598.639	1.0	308505	REC_WORD	12.007	n/a	CAULIFLOWER	Vegetables	4	4	[0, 0, 0]	n/a	catFR1	0	R1192C
599.639	3.565	309005	REC_WORD_VV	13.007	n/a	<>	n/a	-999	4	[0, 0, 0]	n/a	catFR1	0	R1192C
603.204	7.882	310787	REC_WORD	16.572	n/a	PAPER	OfficeSupplies	8	4	[0, 0, 0]	n/a	catFR1	0	R1192C
611.086	1.0	314728	REC_WORD	24.454	n/a	SCREWDRIVER	n/a	-999	4	[0, 0, 0]	n/a	catFR1	0	R1192C
612.086	4.558	315228	REC_WORD_VV	25.454	n/a	<>	n/a	-999	4	[0, 0, 0]	n/a	catFR1	0	R1192C
616.644	12.578	317507	REC_END	n/a	n/a	n/a	n/a	-999	4	[0, 0, 0]	n/a	catFR1	0	R1192C
629.222	0.0	323795	TRIAL	n/a	n/a	n/a	n/a	-999	5	[0, 0, 0]	n/a	catFR1	0	R1192C
629.222	10.0	323795	COUNTDOWN_START	n/a	n/a	n/a	n/a	-999	5	[0, 0, 0]	n/a	catFR1	0	R1192C
639.65	0.008	329009	COUNTDOWN_END	n/a	n/a	n/a	n/a	-999	5	[0, 0, 0]	n/a	catFR1	0	R1192C
639.658	1.6	329013	ORIENT	n/a	n/a	n/a	n/a	-999	5	[0, 0, 0]	n/a	catFR1	0	R1192C
643.425	1.6	330896	WORD	n/a	wordpools/wordpool_categorized_EN.txt	CREEK	Landscapes	1	5	[0, 0, 0]	n/a	catFR1	0	R1192C
645.959	1.6	332163	WORD	n/a	wordpools/wordpool_categorized_EN.txt	MOUNTAIN	Landscapes	2	5	[0, 0, 0]	n/a	catFR1	0	R1192C
648.41	1.6	333388	WORD	n/a	wordpools/wordpool_categorized_EN.txt	DAFFODIL	Flowers	3	5	[0, 0, 0]	n/a	catFR1	0	R1192C
650.81	1.6	334588	WORD	n/a	wordpools/wordpool_categorized_EN.txt	ROSE	Flowers	4	5	[0, 0, 0]	n/a	catFR1	0	R1192C
653.243	1.6	335805	WORD	n/a	wordpools/wordpool_categorized_EN.txt	THUNDERSTORM	Weather	5	5	[0, 0, 0]	n/a	catFR1	0	R1192C
655.861	1.6	337114	WORD	n/a	wordpools/wordpool_categorized_EN.txt	THUNDER	Weather	6	5	[0, 0, 0]	n/a	catFR1	0	R1192C
658.411	1.6	338389	WORD	n/a	wordpools/wordpool_categorized_EN.txt	BEACH	Landscapes	7	5	[0, 0, 0]	n/a	catFR1	0	R1192C
660.862	1.6	339614	WORD	n/a	wordpools/wordpool_categorized_EN.txt	FOREST	Landscapes	8	5	[0, 0, 0]	n/a	catFR1	0	R1192C
663.379	1.6	340872	WORD	n/a	wordpools/wordpool_categorized_EN.txt	CLOUD	Weather	9	5	[0, 0, 0]	n/a	catFR1	0	R1192C
665.929	1.6	342147	WORD	n/a	wordpools/wordpool_categorized_EN.txt	HUMIDITY	Weather	10	5	[0, 0, 0]	n/a	catFR1	0	R1192C
668.397	1.6	343381	WORD	n/a	wordpools/wordpool_categorized_EN.txt	LILY	Flowers	11	5	[0, 0, 0]	n/a	catFR1	0	R1192C
670.964	1.6	344665	WORD	n/a	wordpools/wordpool_categorized_EN.txt	TULIP	Flowers	12	5	[0, 0, 0]	n/a	catFR1	0	R1192C
672.581	0.001	345473	DISTRACT_START	n/a	n/a	n/a	n/a	-999	5	[0, 0, 0]	n/a	catFR1	0	R1192C
672.582	0.015	345474	START	n/a	n/a	n/a	n/a	-999	5	[-999, -999, -999]	n/a	catFR1	0	R1192C
672.597	71.127	345481	PROB	71.127	n/a	n/a	n/a	-999	5	[7, 5, 9]	21.0	catFR1	0	R1192C
743.724	0.003	381042	STOP	n/a	n/a	n/a	n/a	-999	5	[-999, -999, -999]	n/a	catFR1	0	R1192C
743.727	1.068	381043	DISTRACT_END	n/a	n/a	n/a	n/a	-999	5	[0, 0, 0]	n/a	catFR1	0	R1192C
744.795	6.226	381577	REC_START	n/a	n/a	n/a	n/a	-999	5	[0, 0, 0]	n/a	catFR1	0	R1192C
751.021	1.0	384690	REC_WORD_VV	6.226	n/a	<>	n/a	-999	5	[0, 0, 0]	n/a	catFR1	0	R1192C
752.021	5.34	385190	REC_WORD_VV	7.226	n/a	<>	n/a	-999	5	[0, 0, 0]	n/a	catFR1	0	R1192C
757.361	1.0	387860	REC_WORD	12.566	n/a	ROSE	Flowers	4	5	[0, 0, 0]	n/a	catFR1	0	R1192C
758.361	1.79	388360	REC_WORD_VV	13.566	n/a	<>	n/a	-999	5	[0, 0, 0]	n/a	catFR1	0	R1192C
760.151	1.0	389255	REC_WORD	15.356	n/a	THUNDERSTORM	Weather	5	5	[0, 0, 0]	n/a	catFR1	0	R1192C
761.151	1.76	389755	REC_WORD_VV	16.356	n/a	<>	n/a	-999	5	[0, 0, 0]	n/a	catFR1	0	R1192C
762.911	2.65	390635	REC_WORD	18.116	n/a	THUNDER	Weather	6	5	[0, 0, 0]	n/a	catFR1	0	R1192C
765.561	5.156	391960	REC_WORD	20.766	n/a	LILY	Flowers	11	5	[0, 0, 0]	n/a	catFR1	0	R1192C
770.717	4.089	394538	REC_WORD	25.922	n/a	DAFFODIL	Flowers	3	5	[0, 0, 0]	n/a	catFR1	0	R1192C
774.806	10.779	396582	REC_END	n/a	n/a	n/a	n/a	-999	5	[0, 0, 0]	n/a	catFR1	0	R1192C
785.585	10.0	401971	COUNTDOWN_START	n/a	n/a	n/a	n/a	-999	6	[0, 0, 0]	n/a	catFR1	0	R1192C
785.586	10.427	401971	TRIAL	n/a	n/a	n/a	n/a	-999	6	[0, 0, 0]	n/a	catFR1	0	R1192C
796.013	0.008	407185	COUNTDOWN_END	n/a	n/a	n/a	n/a	-999	6	[0, 0, 0]	n/a	catFR1	0	R1192C
796.021	1.6	407189	ORIENT	n/a	n/a	n/a	n/a	-999	6	[0, 0, 0]	n/a	catFR1	0	R1192C
799.704	1.6	409030	WORD	n/a	wordpools/wordpool_categorized_EN.txt	LEMONADE	Beverages	1	6	[0, 0, 0]	n/a	catFR1	0	R1192C
802.105	1.6	410230	WORD	n/a	wordpools/wordpool_categorized_EN.txt	SODA	Beverages	2	6	[0, 0, 0]	n/a	catFR1	0	R1192C
804.722	1.6	411539	WORD	n/a	wordpools/wordpool_categorized_EN.txt	DUCK	Birds	3	6	[0, 0, 0]	n/a	catFR1	0	R1192C
807.255	1.6	412805	WORD	n/a	wordpools/wordpool_categorized_EN.txt	SPARROW	Birds	4	6	[0, 0, 0]	n/a	catFR1	0	R1192C
809.84	1.6	414098	WORD	n/a	wordpools/wordpool_categorized_EN.txt	HURRICANE	Weather	5	6	[0, 0, 0]	n/a	catFR1	0	R1192C
812.457	1.6	415406	WORD	n/a	wordpools/wordpool_categorized_EN.txt	FOG	Weather	6	6	[0, 0, 0]	n/a	catFR1	0	R1192C
814.991	1.6	416673	WORD	n/a	wordpools/wordpool_categorized_EN.txt	BLUEBIRD	Birds	7	6	[0, 0, 0]	n/a	catFR1	0	R1192C
817.575	1.6	417965	WORD	n/a	wordpools/wordpool_categorized_EN.txt	GOOSE	Birds	8	6	[0, 0, 0]	n/a	catFR1	0	R1192C
820.058	1.6	419206	WORD	n/a	wordpools/wordpool_categorized_EN.txt	TEA	Beverages	9	6	[0, 0, 0]	n/a	catFR1	0	R1192C
822.592	1.6	420473	WORD	n/a	wordpools/wordpool_categorized_EN.txt	MILK	Beverages	10	6	[0, 0, 0]	n/a	catFR1	0	R1192C
825.192	1.6	421773	WORD	n/a	wordpools/wordpool_categorized_EN.txt	RAIN	Weather	11	6	[0, 0, 0]	n/a	catFR1	0	R1192C
827.66	1.6	423007	WORD	n/a	wordpools/wordpool_categorized_EN.txt	TORNADO	Weather	12	6	[0, 0, 0]	n/a	catFR1	0	R1192C
829.276	0.001	423815	DISTRACT_START	n/a	n/a	n/a	n/a	-999	6	[0, 0, 0]	n/a	catFR1	0	R1192C
829.277	0.016	423815	START	n/a	n/a	n/a	n/a	-999	6	[-999, -999, -999]	n/a	catFR1	0	R1192C
829.293	6.285	423823	PROB	6.263	n/a	n/a	n/a	-999	6	[6, 2, 2]	10.0	catFR1	0	R1192C
835.578	5.484	426966	PROB	5.45	n/a	n/a	n/a	-999	6	[8, 2, 2]	12.0	catFR1	0	R1192C
841.062	5.752	429707	PROB	5.718	n/a	n/a	n/a	-999	6	[9, 2, 8]	19.0	catFR1	0	R1192C
846.814	6.158	432583	PROB	6.158	n/a	n/a	n/a	-999	6	[2, 4, 5]	11.0	catFR1	0	R1192C
852.972	0.009	435662	STOP	n/a	n/a	n/a	n/a	-999	6	[-999, -999, -999]	n/a	catFR1	0	R1192C
852.981	1.151	435667	DISTRACT_END	n/a	n/a	n/a	n/a	-999	6	[0, 0, 0]	n/a	catFR1	0	R1192C
854.132	6.03	436242	REC_START	n/a	n/a	n/a	n/a	-999	6	[0, 0, 0]	n/a	catFR1	0	R1192C
860.162	1.0	439257	REC_WORD	6.03	n/a	FOG	Weather	6	6	[0, 0, 0]	n/a	catFR1	0	R1192C
861.162	2.586	439757	REC_WORD_VV	7.03	n/a	<>	n/a	-999	6	[0, 0, 0]	n/a	catFR1	0	R1192C
863.748	1.008	441050	REC_WORD	9.616	n/a	LEMONADE	Beverages	1	6	[0, 0, 0]	n/a	catFR1	0	R1192C
864.756	12.252	441554	REC_WORD	10.624	n/a	SODA	Beverages	2	6	[0, 0, 0]	n/a	catFR1	0	R1192C
877.008	7.139	447679	REC_WORD	22.876	n/a	HURRICANE	Weather	5	6	[0, 0, 0]	n/a	catFR1	0	R1192C
884.147	15.026	451248	REC_END	n/a	n/a	n/a	n/a	-999	6	[0, 0, 0]	n/a	catFR1	0	R1192C
899.173	0.0	458761	TRIAL	n/a	n/a	n/a	n/a	-999	7	[0, 0, 0]	n/a	catFR1	0	R1192C
899.173	10.0	458761	COUNTDOWN_START	n/a	n/a	n/a	n/a	-999	7	[0, 0, 0]	n/a	catFR1	0	R1192C
909.601	0.008	463975	COUNTDOWN_END	n/a	n/a	n/a	n/a	-999	7	[0, 0, 0]	n/a	catFR1	0	R1192C
909.609	1.6	463979	ORIENT	n/a	n/a	n/a	n/a	-999	7	[0, 0, 0]	n/a	catFR1	0	R1192C
913.225	1.6	465786	WORD	n/a	wordpools/wordpool_categorized_EN.txt	MIXER	Appliances	1	7	[0, 0, 0]	n/a	catFR1	0	R1192C
915.66	1.6	467004	WORD	n/a	wordpools/wordpool_categorized_EN.txt	STOVE	Appliances	2	7	[0, 0, 0]	n/a	catFR1	0	R1192C
918.11	1.6	468229	WORD	n/a	wordpools/wordpool_categorized_EN.txt	TRUCK	Vehicles	3	7	[0, 0, 0]	n/a	catFR1	0	R1192C
920.727	1.6	469537	WORD	n/a	wordpools/wordpool_categorized_EN.txt	TRAIN	Vehicles	4	7	[0, 0, 0]	n/a	catFR1	0	R1192C
923.277	1.6	470812	WORD	n/a	wordpools/wordpool_categorized_EN.txt	PASTRY	Desserts	5	7	[0, 0, 0]	n/a	catFR1	0	R1192C
925.862	1.6	472104	WORD	n/a	wordpools/wordpool_categorized_EN.txt	JELLO	Desserts	6	7	[0, 0, 0]	n/a	catFR1	0	R1192C
928.295	1.6	473321	WORD	n/a	wordpools/wordpool_categorized_EN.txt	DISHWASHER	Appliances	7	7	[0, 0, 0]	n/a	catFR1	0	R1192C
930.829	1.6	474588	WORD	n/a	wordpools/wordpool_categorized_EN.txt	VACUUM	Appliances	8	7	[0, 0, 0]	n/a	catFR1	0	R1192C
933.313	1.6	475830	WORD	n/a	wordpools/wordpool_categorized_EN.txt	PIE	Desserts	9	7	[0, 0, 0]	n/a	catFR1	0	R1192C
935.83	1.6	477088	WORD	n/a	wordpools/wordpool_categorized_EN.txt	CAKE	Desserts	10	7	[0, 0, 0]	n/a	catFR1	0	R1192C
938.447	1.6	478396	WORD	n/a	wordpools/wordpool_categorized_EN.txt	VAN	Vehicles	11	7	[0, 0, 0]	n/a	catFR1	0	R1192C
940.881	1.6	479613	WORD	n/a	wordpools/wordpool_categorized_EN.txt	BIKE	Vehicles	12	7	[0, 0, 0]	n/a	catFR1	0	R1192C
942.498	0.001	480422	DISTRACT_START	n/a	n/a	n/a	n/a	-999	7	[0, 0, 0]	n/a	catFR1	0	R1192C
942.499	0.016	480422	START	n/a	n/a	n/a	n/a	-999	7	[-999, -999, -999]	n/a	catFR1	0	R1192C
942.515	6.234	480430	PROB	6.201	n/a	n/a	n/a	-999	7	[4, 4, 4]	12.0	catFR1	0	R1192C
948.749	8.885	483547	PROB	8.846	n/a	n/a	n/a	-999	7	[2, 2, 9]	13.0	catFR1	0	R1192C
957.634	7.162	487989	PROB	7.162	n/a	n/a	n/a	-999	7	[3, 4, 9]	12.0	catFR1	0	R1192C
964.796	0.006	491570	STOP	n/a	n/a	n/a	n/a	-999	7	[-999, -999, -999]	n/a	catFR1	0	R1192C
964.802	1.184	491573	DISTRACT_END	n/a	n/a	n/a	n/a	-999	7	[0, 0, 0]	n/a	catFR1	0	R1192C
965.986	3.878	492165	REC_START	n/a	n/a	n/a	n/a	-999	7	[0, 0, 0]	n/a	catFR1	0	R1192C
969.864	0.938	494104	REC_WORD	3.878	n/a	CAKE	Desserts	10	7	[0, 0, 0]	n/a	catFR1	0	R1192C
970.802	1.554	494573	REC_WORD	4.816	n/a	MIXER	Appliances	1	7	[0, 0, 0]	n/a	catFR1	0	R1192C
972.356	1.0	495350	REC_WORD	6.37	n/a	STOVE	Appliances	2	7	[0, 0, 0]	n/a	catFR1	0	R1192C
973.356	5.203	495850	REC_WORD_VV	7.37	n/a	<>	n/a	-999	7	[0, 0, 0]	n/a	catFR1	0	R1192C
978.559	17.443	498451	REC_WORD	12.573	n/a	TRUCK	Vehicles	3	7	[0, 0, 0]	n/a	catFR1	0	R1192C
996.002	13.442	507172	REC_END	n/a	n/a	n/a	n/a	-999	7	[0, 0, 0]	n/a	catFR1	0	R1192C
1009.444	0.0	513892	TRIAL	n/a	n/a	n/a	n/a	-999	8	[0, 0, 0]	n/a	catFR1	0	R1192C
1009.444	10.0	513892	COUNTDOWN_START	n/a	n/a	n/a	n/a	-999	8	[0, 0, 0]	n/a	catFR1	0	R1192C
1019.872	0.007	519106	COUNTDOWN_END	n/a	n/a	n/a	n/a	-999	8	[0, 0, 0]	n/a	catFR1	0	R1192C
1019.879	1.6	519110	ORIENT	n/a	n/a	n/a	n/a	-999	8	[0, 0, 0]	n/a	catFR1	0	R1192C
1023.797	1.6	521068	WORD	n/a	wordpools/wordpool_categorized_EN.txt	SHORTS	Clothing	1	8	[0, 0, 0]	n/a	catFR1	0	R1192C
1026.213	1.6	522276	WORD	n/a	wordpools/wordpool_categorized_EN.txt	BLOUSE	Clothing	2	8	[0, 0, 0]	n/a	catFR1	0	R1192C
1028.748	1.6	523544	WORD	n/a	wordpools/wordpool_categorized_EN.txt	BLUEBERRY	Fruit	3	8	[0, 0, 0]	n/a	catFR1	0	R1192C
1031.181	1.6	524760	WORD	n/a	wordpools/wordpool_categorized_EN.txt	GRAPE	Fruit	4	8	[0, 0, 0]	n/a	catFR1	0	R1192C
1033.649	1.6	525994	WORD	n/a	wordpools/wordpool_categorized_EN.txt	PENCIL	OfficeSupplies	5	8	[0, 0, 0]	n/a	catFR1	0	R1192C
1036.116	1.6	527227	WORD	n/a	wordpools/wordpool_categorized_EN.txt	BINDER	OfficeSupplies	6	8	[0, 0, 0]	n/a	catFR1	0	R1192C
1038.533	1.6	528436	WORD	n/a	wordpools/wordpool_categorized_EN.txt	SOCKS	Clothing	7	8	[0, 0, 0]	n/a	catFR1	0	R1192C
1041.017	1.6	529678	WORD	n/a	wordpools/wordpool_categorized_EN.txt	DRESS	Clothing	8	8	[0, 0, 0]	n/a	catFR1	0	R1192C
1043.55	1.6	530944	WORD	n/a	wordpools/wordpool_categorized_EN.txt	RULER	OfficeSupplies	9	8	[0, 0, 0]	n/a	catFR1	0	R1192C
1046.068	1.6	532203	WORD	n/a	wordpools/wordpool_categorized_EN.txt	NOTEBOOK	OfficeSupplies	10	8	[0, 0, 0]	n/a	catFR1	0	R1192C
1048.651	1.6	533495	WORD	n/a	wordpools/wordpool_categorized_EN.txt	LIME	Fruit	11	8	[0, 0, 0]	n/a	catFR1	0	R1192C
1051.085	1.6	534711	WORD	n/a	wordpools/wordpool_categorized_EN.txt	LEMON	Fruit	12	8	[0, 0, 0]	n/a	catFR1	0	R1192C
1052.702	0.002	535520	DISTRACT_START	n/a	n/a	n/a	n/a	-999	8	[0, 0, 0]	n/a	catFR1	0	R1192C
1052.704	0.015	535521	START	n/a	n/a	n/a	n/a	-999	8	[-999, -999, -999]	n/a	catFR1	0	R1192C
1052.719	8.601	535528	PROB	8.581	n/a	n/a	n/a	-999	8	[3, 5, 3]	11.0	catFR1	0	R1192C
1061.32	11.708	539829	PROB	11.708	n/a	n/a	n/a	-999	8	[9, 5, 5]	19.0	catFR1	0	R1192C
1073.028	0.011	545682	STOP	n/a	n/a	n/a	n/a	-999	8	[-999, -999, -999]	n/a	catFR1	0	R1192C
1073.039	1.051	545688	DISTRACT_END	n/a	n/a	n/a	n/a	-999	8	[0, 0, 0]	n/a	catFR1	0	R1192C
1074.09	2.774	546213	REC_START	n/a	n/a	n/a	n/a	-999	8	[0, 0, 0]	n/a	catFR1	0	R1192C
1076.864	1.0	547600	REC_WORD	2.774	n/a	SHORTS	Clothing	1	8	[0, 0, 0]	n/a	catFR1	0	R1192C
1077.864	0.861	548100	REC_WORD_VV	3.774	n/a	<>	n/a	-999	8	[0, 0, 0]	n/a	catFR1	0	R1192C
1078.725	1.5	548530	REC_WORD	4.635	n/a	BLOUSE	Clothing	2	8	[0, 0, 0]	n/a	catFR1	0	R1192C
1080.225	5.122	549280	REC_WORD	6.135	n/a	DRESS	Clothing	8	8	[0, 0, 0]	n/a	catFR1	0	R1192C
1085.347	6.048	551841	REC_WORD	11.257	n/a	BLUEBERRY	Fruit	3	8	[0, 0, 0]	n/a	catFR1	0	R1192C
1091.395	12.711	554865	REC_WORD	17.305	n/a	LEMON	Fruit	12	8	[0, 0, 0]	n/a	catFR1	0	R1192C
1104.106	7.341	561220	REC_END	n/a	n/a	n/a	n/a	-999	8	[0, 0, 0]	n/a	catFR1	0	R1192C
1111.447	0.0	564890	TRIAL	n/a	n/a	n/a	n/a	-999	9	[0, 0, 0]	n/a	catFR1	0	R1192C
1111.447	10.0	564890	COUNTDOWN_START	n/a	n/a	n/a	n/a	-999	9	[0, 0, 0]	n/a	catFR1	0	R1192C
1121.875	0.007	570104	COUNTDOWN_END	n/a	n/a	n/a	n/a	-999	9	[0, 0, 0]	n/a	catFR1	0	R1192C
1121.882	1.6	570107	ORIENT	n/a	n/a	n/a	n/a	-999	9	[0, 0, 0]	n/a	catFR1	0	R1192C
1125.499	1.6	571916	WORD	n/a	wordpools/wordpool_categorized_EN.txt	ONION	Vegetables	1	9	[0, 0, 0]	n/a	catFR1	0	R1192C
1127.933	1.6	573133	WORD	n/a	wordpools/wordpool_categorized_EN.txt	CARROT	Vegetables	2	9	[0, 0, 0]	n/a	catFR1	0	R1192C
1130.433	1.6	574383	WORD	n/a	wordpools/wordpool_categorized_EN.txt	WATER	Beverages	3	9	[0, 0, 0]	n/a	catFR1	0	R1192C
1132.867	1.6	575599	WORD	n/a	wordpools/wordpool_categorized_EN.txt	WINE	Beverages	4	9	[0, 0, 0]	n/a	catFR1	0	R1192C
1135.484	1.6	576908	WORD	n/a	wordpools/wordpool_categorized_EN.txt	PANTS	Clothing	5	9	[0, 0, 0]	n/a	catFR1	0	R1192C
1137.985	1.6	578158	WORD	n/a	wordpools/wordpool_categorized_EN.txt	SKIRT	Clothing	6	9	[0, 0, 0]	n/a	catFR1	0	R1192C
1140.552	1.6	579442	WORD	n/a	wordpools/wordpool_categorized_EN.txt	CABBAGE	Vegetables	7	9	[0, 0, 0]	n/a	catFR1	0	R1192C
1143.053	1.6	580692	WORD	n/a	wordpools/wordpool_categorized_EN.txt	CORN	Vegetables	8	9	[0, 0, 0]	n/a	catFR1	0	R1192C
1145.586	1.6	581959	WORD	n/a	wordpools/wordpool_categorized_EN.txt	UNDERWEAR	Clothing	9	9	[0, 0, 0]	n/a	catFR1	0	R1192C
1148.003	1.6	583167	WORD	n/a	wordpools/wordpool_categorized_EN.txt	COAT	Clothing	10	9	[0, 0, 0]	n/a	catFR1	0	R1192C
1150.47	1.6	584400	WORD	n/a	wordpools/wordpool_categorized_EN.txt	COLA	Beverages	11	9	[0, 0, 0]	n/a	catFR1	0	R1192C
1153.004	1.6	585667	WORD	n/a	wordpools/wordpool_categorized_EN.txt	CIDER	Beverages	12	9	[0, 0, 0]	n/a	catFR1	0	R1192C
1154.621	0.001	586476	DISTRACT_START	n/a	n/a	n/a	n/a	-999	9	[0, 0, 0]	n/a	catFR1	0	R1192C
1154.622	0.016	586476	START	n/a	n/a	n/a	n/a	-999	9	[-999, -999, -999]	n/a	catFR1	0	R1192C
1154.638	11.052	586484	PROB	11.022	n/a	n/a	n/a	-999	9	[5, 9, 6]	20.0	catFR1	0	R1192C
1165.69	13.938	592010	PROB	13.938	n/a	n/a	n/a	-999	9	[5, 1, 7]	13.0	catFR1	0	R1192C
1179.628	0.015	598978	STOP	n/a	n/a	n/a	n/a	-999	9	[-999, -999, -999]	n/a	catFR1	0	R1192C
1179.643	1.184	598986	DISTRACT_END	n/a	n/a	n/a	n/a	-999	9	[0, 0, 0]	n/a	catFR1	0	R1192C
1180.827	4.827	599578	REC_START	n/a	n/a	n/a	n/a	-999	9	[0, 0, 0]	n/a	catFR1	0	R1192C
1185.654	1.0	601991	REC_WORD	4.827	n/a	ONION	Vegetables	1	9	[0, 0, 0]	n/a	catFR1	0	R1192C
1186.654	2.316	602491	REC_WORD_VV	5.827	n/a	<>	n/a	-999	9	[0, 0, 0]	n/a	catFR1	0	R1192C
1188.97	1.0	603649	REC_WORD	8.143	n/a	CABBAGE	Vegetables	7	9	[0, 0, 0]	n/a	catFR1	0	R1192C
1189.97	4.801	604149	REC_WORD_VV	9.143	n/a	<>	n/a	-999	9	[0, 0, 0]	n/a	catFR1	0	R1192C
1194.771	16.067	606549	REC_WORD	13.944	n/a	UNDERWEAR	Clothing	9	9	[0, 0, 0]	n/a	catFR1	0	R1192C
1210.838	10.946	614582	REC_END	n/a	n/a	n/a	n/a	-999	9	[0, 0, 0]	n/a	catFR1	0	R1192C
1221.784	0.0	620055	TRIAL	n/a	n/a	n/a	n/a	-999	10	[0, 0, 0]	n/a	catFR1	0	R1192C
1221.784	10.0	620055	COUNTDOWN_START	n/a	n/a	n/a	n/a	-999	10	[0, 0, 0]	n/a	catFR1	0	R1192C
1232.212	0.006	625268	COUNTDOWN_END	n/a	n/a	n/a	n/a	-999	10	[0, 0, 0]	n/a	catFR1	0	R1192C
1232.218	1.6	625271	ORIENT	n/a	n/a	n/a	n/a	-999	10	[0, 0, 0]	n/a	catFR1	0	R1192C
1235.82	1.6	627072	WORD	n/a	wordpools/wordpool_categorized_EN.txt	SQUID	OceanAnimals	1	10	[0, 0, 0]	n/a	catFR1	0	R1192C
1238.42	1.6	628372	WORD	n/a	wordpools/wordpool_categorized_EN.txt	PLANKTON	OceanAnimals	2	10	[0, 0, 0]	n/a	catFR1	0	R1192C
1241.037	1.6	629681	WORD	n/a	wordpools/wordpool_categorized_EN.txt	LIGHTNING	Weather	3	10	[0, 0, 0]	n/a	catFR1	0	R1192C
1243.521	1.6	630923	WORD	n/a	wordpools/wordpool_categorized_EN.txt	WIND	Weather	4	10	[0, 0, 0]	n/a	catFR1	0	R1192C
1246.088	1.6	632206	WORD	n/a	wordpools/wordpool_categorized_EN.txt	TURKEY	FarmAnimals	5	10	[0, 0, 0]	n/a	catFR1	0	R1192C
1248.606	1.6	633465	WORD	n/a	wordpools/wordpool_categorized_EN.txt	GOAT	FarmAnimals	6	10	[0, 0, 0]	n/a	catFR1	0	R1192C
1251.173	1.6	634748	WORD	n/a	wordpools/wordpool_categorized_EN.txt	LOBSTER	OceanAnimals	7	10	[0, 0, 0]	n/a	catFR1	0	R1192C
1253.64	1.6	635982	WORD	n/a	wordpools/wordpool_categorized_EN.txt	JELLYFISH	OceanAnimals	8	10	[0, 0, 0]	n/a	catFR1	0	R1192C
1256.256	1.6	637290	WORD	n/a	wordpools/wordpool_categorized_EN.txt	BULL	FarmAnimals	9	10	[0, 0, 0]	n/a	catFR1	0	R1192C
1258.758	1.6	638540	WORD	n/a	wordpools/wordpool_categorized_EN.txt	COW	FarmAnimals	10	10	[0, 0, 0]	n/a	catFR1	0	R1192C
1261.308	1.6	639815	WORD	n/a	wordpools/wordpool_categorized_EN.txt	SNOW	Weather	11	10	[0, 0, 0]	n/a	catFR1	0	R1192C
1263.708	1.6	641015	WORD	n/a	wordpools/wordpool_categorized_EN.txt	DRIZZLE	Weather	12	10	[0, 0, 0]	n/a	catFR1	0	R1192C
1265.325	0.001	641824	DISTRACT_START	n/a	n/a	n/a	n/a	-999	10	[0, 0, 0]	n/a	catFR1	0	R1192C
1265.326	0.016	641824	START	n/a	n/a	n/a	n/a	-999	10	[-999, -999, -999]	n/a	catFR1	0	R1192C
1265.342	16.97	641832	PROB	16.933	n/a	n/a	n/a	-999	10	[9, 8, 2]	19.0	catFR1	0	R1192C
1282.312	5.988	650317	PROB	5.988	n/a	n/a	n/a	-999	10	[1, 7, 6]	14.0	catFR1	0	R1192C
1288.3	0.013	653310	STOP	n/a	n/a	n/a	n/a	-999	10	[-999, -999, -999]	n/a	catFR1	0	R1192C
1288.313	1.184	653317	DISTRACT_END	n/a	n/a	n/a	n/a	-999	10	[0, 0, 0]	n/a	catFR1	0	R1192C
1289.497	4.359	653909	REC_START	n/a	n/a	n/a	n/a	-999	10	[0, 0, 0]	n/a	catFR1	0	R1192C
1293.856	1.0	656088	REC_WORD	4.359	n/a	SQUID	OceanAnimals	1	10	[0, 0, 0]	n/a	catFR1	0	R1192C
1294.856	1.395	656588	REC_WORD_VV	5.359	n/a	<>	n/a	-999	10	[0, 0, 0]	n/a	catFR1	0	R1192C
1296.251	7.219	657286	REC_WORD	6.754	n/a	PLANKTON	OceanAnimals	2	10	[0, 0, 0]	n/a	catFR1	0	R1192C
1303.47	1.0	660895	REC_WORD	13.973	n/a	JELLYFISH	OceanAnimals	8	10	[0, 0, 0]	n/a	catFR1	0	R1192C
1304.47	15.041	661395	REC_WORD_VV	14.973	n/a	<>	n/a	-999	10	[0, 0, 0]	n/a	catFR1	0	R1192C
1319.511	18.545	668915	REC_END	n/a	n/a	n/a	n/a	-999	10	[0, 0, 0]	n/a	catFR1	0	R1192C
1338.056	10.0	678187	COUNTDOWN_START	n/a	n/a	n/a	n/a	-999	11	[0, 0, 0]	n/a	catFR1	0	R1192C
1338.056	10.428	678187	TRIAL	n/a	n/a	n/a	n/a	-999	11	[0, 0, 0]	n/a	catFR1	0	R1192C
1348.484	0.007	683400	COUNTDOWN_END	n/a	n/a	n/a	n/a	-999	11	[0, 0, 0]	n/a	catFR1	0	R1192C
1348.491	1.6	683404	ORIENT	n/a	n/a	n/a	n/a	-999	11	[0, 0, 0]	n/a	catFR1	0	R1192C
1352.207	1.6	685262	WORD	n/a	wordpools/wordpool_categorized_EN.txt	FOUNDATION	Building	1	11	[0, 0, 0]	n/a	catFR1	0	R1192C
1354.576	1.6	686446	WORD	n/a	wordpools/wordpool_categorized_EN.txt	ROOM	Building	2	11	[0, 0, 0]	n/a	catFR1	0	R1192C
1356.959	1.6	687637	WORD	n/a	wordpools/wordpool_categorized_EN.txt	FOLDER	OfficeSupplies	3	11	[0, 0, 0]	n/a	catFR1	0	R1192C
1359.376	1.6	688846	WORD	n/a	wordpools/wordpool_categorized_EN.txt	STAPLER	OfficeSupplies	4	11	[0, 0, 0]	n/a	catFR1	0	R1192C
1361.777	1.6	690046	WORD	n/a	wordpools/wordpool_categorized_EN.txt	OYSTER	OceanAnimals	5	11	[0, 0, 0]	n/a	catFR1	0	R1192C
1364.243	1.6	691279	WORD	n/a	wordpools/wordpool_categorized_EN.txt	OCTOPUS	OceanAnimals	6	11	[0, 0, 0]	n/a	catFR1	0	R1192C
1366.795	1.6	692555	WORD	n/a	wordpools/wordpool_categorized_EN.txt	FLOOR	Building	7	11	[0, 0, 0]	n/a	catFR1	0	R1192C
1369.178	1.6	693746	WORD	n/a	wordpools/wordpool_categorized_EN.txt	ATTIC	Building	8	11	[0, 0, 0]	n/a	catFR1	0	R1192C
1371.712	1.6	695013	WORD	n/a	wordpools/wordpool_categorized_EN.txt	TURTLE	OceanAnimals	9	11	[0, 0, 0]	n/a	catFR1	0	R1192C
1374.146	1.6	696230	WORD	n/a	wordpools/wordpool_categorized_EN.txt	SHRIMP	OceanAnimals	10	11	[0, 0, 0]	n/a	catFR1	0	R1192C
1376.596	1.6	697455	WORD	n/a	wordpools/wordpool_categorized_EN.txt	MARKER	OfficeSupplies	11	11	[0, 0, 0]	n/a	catFR1	0	R1192C
1379.063	1.6	698689	WORD	n/a	wordpools/wordpool_categorized_EN.txt	ERASER	OfficeSupplies	12	11	[0, 0, 0]	n/a	catFR1	0	R1192C
1380.68	0.002	699497	DISTRACT_START	n/a	n/a	n/a	n/a	-999	11	[0, 0, 0]	n/a	catFR1	0	R1192C
1380.682	0.015	699498	START	n/a	n/a	n/a	n/a	-999	11	[-999, -999, -999]	n/a	catFR1	0	R1192C
1380.697	21.107	699506	PROB	21.107	n/a	n/a	n/a	-999	11	[4, 7, 5]	16.0	catFR1	0	R1192C
1401.804	0.014	710058	STOP	n/a	n/a	n/a	n/a	-999	11	[-999, -999, -999]	n/a	catFR1	0	R1192C
1401.818	1.034	710065	DISTRACT_END	n/a	n/a	n/a	n/a	-999	11	[0, 0, 0]	n/a	catFR1	0	R1192C
1402.852	3.679	710582	REC_START	n/a	n/a	n/a	n/a	-999	11	[0, 0, 0]	n/a	catFR1	0	R1192C
1406.531	0.56	712422	REC_WORD	3.679	n/a	SHRIMP	OceanAnimals	10	11	[0, 0, 0]	n/a	catFR1	0	R1192C
1407.091	6.793	712702	REC_WORD	4.239	n/a	FOUNDATION	Building	1	11	[0, 0, 0]	n/a	catFR1	0	R1192C
1413.884	3.954	716098	REC_WORD	11.032	n/a	FLOOR	Building	7	11	[0, 0, 0]	n/a	catFR1	0	R1192C
1417.838	6.756	718075	REC_WORD	14.986	n/a	OYSTER	OceanAnimals	5	11	[0, 0, 0]	n/a	catFR1	0	R1192C
1424.594	8.269	721452	REC_WORD	21.742	n/a	ROOM	Building	2	11	[0, 0, 0]	n/a	catFR1	0	R1192C
1432.863	9.962	725587	REC_END	n/a	n/a	n/a	n/a	-999	11	[0, 0, 0]	n/a	catFR1	0	R1192C
1442.825	10.0	730567	COUNTDOWN_START	n/a	n/a	n/a	n/a	-999	12	[0, 0, 0]	n/a	catFR1	0	R1192C
1442.826	10.427	730568	TRIAL	n/a	n/a	n/a	n/a	-999	12	[0, 0, 0]	n/a	catFR1	0	R1192C
1453.253	0.007	735781	COUNTDOWN_END	n/a	n/a	n/a	n/a	-999	12	[0, 0, 0]	n/a	catFR1	0	R1192C
1453.26	1.6	735784	ORIENT	n/a	n/a	n/a	n/a	-999	12	[0, 0, 0]	n/a	catFR1	0	R1192C
1457.078	1.6	737693	WORD	n/a	wordpools/wordpool_categorized_EN.txt	MOPED	Vehicles	1	12	[0, 0, 0]	n/a	catFR1	0	R1192C
1459.645	1.6	738977	WORD	n/a	wordpools/wordpool_categorized_EN.txt	JEEP	Vehicles	2	12	[0, 0, 0]	n/a	catFR1	0	R1192C
1462.162	1.6	740235	WORD	n/a	wordpools/wordpool_categorized_EN.txt	ELM	Trees	3	12	[0, 0, 0]	n/a	catFR1	0	R1192C
1464.729	1.6	741519	WORD	n/a	wordpools/wordpool_categorized_EN.txt	WALNUT	Trees	4	12	[0, 0, 0]	n/a	catFR1	0	R1192C
1467.113	1.6	742710	WORD	n/a	wordpools/wordpool_categorized_EN.txt	ROOSTER	FarmAnimals	5	12	[0, 0, 0]	n/a	catFR1	0	R1192C
1469.564	1.6	743936	WORD	n/a	wordpools/wordpool_categorized_EN.txt	CHICKEN	FarmAnimals	6	12	[0, 0, 0]	n/a	catFR1	0	R1192C
1472.064	1.6	745186	WORD	n/a	wordpools/wordpool_categorized_EN.txt	HICKORY	Trees	7	12	[0, 0, 0]	n/a	catFR1	0	R1192C
1474.481	1.6	746394	WORD	n/a	wordpools/wordpool_categorized_EN.txt	BIRCH	Trees	8	12	[0, 0, 0]	n/a	catFR1	0	R1192C
1476.915	1.6	747611	WORD	n/a	wordpools/wordpool_categorized_EN.txt	PLANE	Vehicles	9	12	[0, 0, 0]	n/a	catFR1	0	R1192C
1479.499	1.6	748903	WORD	n/a	wordpools/wordpool_categorized_EN.txt	BOAT	Vehicles	10	12	[0, 0, 0]	n/a	catFR1	0	R1192C
1482.083	1.6	750195	WORD	n/a	wordpools/wordpool_categorized_EN.txt	SHEEP	FarmAnimals	11	12	[0, 0, 0]	n/a	catFR1	0	R1192C
1484.55	1.6	751428	WORD	n/a	wordpools/wordpool_categorized_EN.txt	LAMB	FarmAnimals	12	12	[0, 0, 0]	n/a	catFR1	0	R1192C
1486.167	0.001	752237	DISTRACT_START	n/a	n/a	n/a	n/a	-999	12	[0, 0, 0]	n/a	catFR1	0	R1192C
1486.168	0.016	752237	START	n/a	n/a	n/a	n/a	-999	12	[-999, -999, -999]	n/a	catFR1	0	R1192C
1486.184	6.818	752245	PROB	6.788	n/a	n/a	n/a	-999	12	[1, 4, 1]	6.0	catFR1	0	R1192C
1493.002	5.117	755654	PROB	5.082	n/a	n/a	n/a	-999	12	[5, 1, 2]	8.0	catFR1	0	R1192C
1498.119	13.021	758212	PROB	13.021	n/a	n/a	n/a	-999	12	[1, 5, 7]	13.0	catFR1	0	R1192C
1511.14	0.015	764722	STOP	n/a	n/a	n/a	n/a	-999	12	[-999, -999, -999]	n/a	catFR1	0	R1192C
1511.155	1.1	764730	DISTRACT_END	n/a	n/a	n/a	n/a	-999	12	[0, 0, 0]	n/a	catFR1	0	R1192C
1512.255	6.433	765280	REC_START	n/a	n/a	n/a	n/a	-999	12	[0, 0, 0]	n/a	catFR1	0	R1192C
1518.688	0.291	768496	REC_WORD_VV	6.433	n/a	<>	n/a	-999	12	[0, 0, 0]	n/a	catFR1	0	R1192C
1518.979	7.746	768642	REC_WORD	6.724	n/a	JEEP	Vehicles	2	12	[0, 0, 0]	n/a	catFR1	0	R1192C
1526.725	11.714	772514	REC_WORD	14.47	n/a	HICKORY	Trees	7	12	[0, 0, 0]	n/a	catFR1	0	R1192C
1538.439	1.0	778371	REC_WORD_VV	26.184	n/a	<>	n/a	-999	12	[0, 0, 0]	n/a	catFR1	0	R1192C
1539.439	1.0	778871	REC_WORD_VV	27.184	n/a	<>	n/a	-999	12	[0, 0, 0]	n/a	catFR1	0	R1192C
1540.439	1.0	779371	REC_WORD_VV	28.184	n/a	<>	n/a	-999	12	[0, 0, 0]	n/a	catFR1	0	R1192C
1541.439	0.827	779871	REC_WORD_VV	29.184	n/a	<>	n/a	-999	12	[0, 0, 0]	n/a	catFR1	0	R1192C
1542.266	88.178	780284	REC_END	n/a	n/a	n/a	n/a	-999	12	[0, 0, 0]	n/a	catFR1	0	R1192C
1630.444	0.0	824370	TRIAL	n/a	n/a	n/a	n/a	-999	13	[0, 0, 0]	n/a	catFR1	0	R1192C
1630.444	10.0	824370	COUNTDOWN_START	n/a	n/a	n/a	n/a	-999	13	[0, 0, 0]	n/a	catFR1	0	R1192C
1640.872	0.007	829584	COUNTDOWN_END	n/a	n/a	n/a	n/a	-999	13	[0, 0, 0]	n/a	catFR1	0	R1192C
1640.879	1.6	829587	ORIENT	n/a	n/a	n/a	n/a	-999	13	[0, 0, 0]	n/a	catFR1	0	R1192C
1644.547	1.6	831421	WORD	n/a	wordpools/wordpool_categorized_EN.txt	COUCH	Furniture	1	13	[0, 0, 0]	n/a	catFR1	0	R1192C
1646.93	1.6	832612	WORD	n/a	wordpools/wordpool_categorized_EN.txt	SOFA	Furniture	2	13	[0, 0, 0]	n/a	catFR1	0	R1192C
1649.447	1.6	833871	WORD	n/a	wordpools/wordpool_categorized_EN.txt	JEANS	Clothing	3	13	[0, 0, 0]	n/a	catFR1	0	R1192C
1651.831	1.6	835063	WORD	n/a	wordpools/wordpool_categorized_EN.txt	JACKET	Clothing	4	13	[0, 0, 0]	n/a	catFR1	0	R1192C
1654.264	1.6	836279	WORD	n/a	wordpools/wordpool_categorized_EN.txt	ORCHID	Flowers	5	13	[0, 0, 0]	n/a	catFR1	0	R1192C
1656.782	1.6	837538	WORD	n/a	wordpools/wordpool_categorized_EN.txt	PETUNIA	Flowers	6	13	[0, 0, 0]	n/a	catFR1	0	R1192C
1659.232	1.6	838763	WORD	n/a	wordpools/wordpool_categorized_EN.txt	SHIRT	Clothing	7	13	[0, 0, 0]	n/a	catFR1	0	R1192C
1661.817	1.6	840055	WORD	n/a	wordpools/wordpool_categorized_EN.txt	SHOES	Clothing	8	13	[0, 0, 0]	n/a	catFR1	0	R1192C
1664.216	1.6	841255	WORD	n/a	wordpools/wordpool_categorized_EN.txt	SHELF	Furniture	9	13	[0, 0, 0]	n/a	catFR1	0	R1192C
1666.801	1.6	842547	WORD	n/a	wordpools/wordpool_categorized_EN.txt	TABLE	Furniture	10	13	[0, 0, 0]	n/a	catFR1	0	R1192C
1669.2	1.6	843747	WORD	n/a	wordpools/wordpool_categorized_EN.txt	VIOLET	Flowers	11	13	[0, 0, 0]	n/a	catFR1	0	R1192C
1671.802	1.6	845048	WORD	n/a	wordpools/wordpool_categorized_EN.txt	DAISY	Flowers	12	13	[0, 0, 0]	n/a	catFR1	0	R1192C
1673.419	0.001	845856	DISTRACT_START	n/a	n/a	n/a	n/a	-999	13	[0, 0, 0]	n/a	catFR1	0	R1192C
1673.42	0.015	845857	START	n/a	n/a	n/a	n/a	-999	13	[-999, -999, -999]	n/a	catFR1	0	R1192C
1673.435	16.237	845864	PROB	16.201	n/a	n/a	n/a	-999	13	[3, 8, 1]	12.0	catFR1	0	R1192C
1689.672	31.856	853982	PROB	31.844	n/a	n/a	n/a	-999	13	[9, 8, 4]	21.0	catFR1	0	R1192C
1721.528	1.201	869909	DISTRACT_END	n/a	n/a	n/a	n/a	-999	13	[0, 0, 0]	n/a	catFR1	0	R1192C
1722.729	3.953	870509	REC_START	n/a	n/a	n/a	n/a	-999	13	[0, 0, 0]	n/a	catFR1	0	R1192C
1726.682	1.334	872486	REC_WORD	3.953	n/a	SOFA	Furniture	2	13	[0, 0, 0]	n/a	catFR1	0	R1192C
1728.016	0.894	873153	REC_WORD	5.287	n/a	COUCH	Furniture	1	13	[0, 0, 0]	n/a	catFR1	0	R1192C
1728.91	1.0	873600	REC_WORD	6.181	n/a	JEANS	Clothing	3	13	[0, 0, 0]	n/a	catFR1	0	R1192C
1729.91	3.47	874099	REC_WORD_VV	7.181	n/a	<>	n/a	-999	13	[0, 0, 0]	n/a	catFR1	0	R1192C
1733.38	1.128	875834	REC_WORD_VV	10.651	n/a	<>	n/a	-999	13	[0, 0, 0]	n/a	catFR1	0	R1192C
1734.508	5.363	876398	REC_WORD	11.779	n/a	JACKET	Clothing	4	13	[0, 0, 0]	n/a	catFR1	0	R1192C
1739.871	2.158	879080	REC_WORD_VV	17.142	n/a	<>	n/a	-999	13	[0, 0, 0]	n/a	catFR1	0	R1192C
1742.029	10.712	880159	REC_WORD	19.3	n/a	ORCHARD	n/a	-999	13	[0, 0, 0]	n/a	catFR1	0	R1192C
1752.741	73.472	885514	REC_END	n/a	n/a	n/a	n/a	-999	13	[0, 0, 0]	n/a	catFR1	0	R1192C
1826.213	82625.551	922248	TRIAL	n/a	n/a	n/a	n/a	-999	14	[0, 0, 0]	n/a	catFR1	0	R1192C
84451.764	0.0	-1	SESSION_SKIPPED	n/a	n/a	n/a	n/a	-999	14	[0, 0, 0]	n/a	catFR1	0	R1192C
