onset	duration	sample	trial_type	response_time	stim_file	item_name	category	serialpos	list	test	answer	experiment	session	subject
0.0	3.681	12494	INSTRUCT_START	n/a	n/a	n/a	n/a	-999	-999	[0, 0, 0]	n/a	catFR1	2	R1444D
3.681	21.231	16185	INSTRUCT_END	n/a	n/a	n/a	n/a	-999	-999	[0, 0, 0]	n/a	catFR1	2	R1444D
24.912	10.351	37407	COUNTDOWN_START	n/a	n/a	n/a	n/a	-999	-999	[0, 0, 0]	n/a	catFR1	2	R1444D
35.263	0.0	47754	COUNTDOWN_END	n/a	n/a	n/a	n/a	-999	-999	[0, 0, 0]	n/a	catFR1	2	R1444D
35.263	2.267	47754	ENCODING_START	n/a	n/a	n/a	n/a	-999	-1	[0, 0, 0]	n/a	catFR1	2	R1444D
37.53	1.6	50014	WORD	n/a	n/a	SHIRT	Clothing	1	-1	[0, 0, 0]	n/a	catFR1	2	R1444D
39.13	0.883	51621	WORD_OFF	n/a	n/a	SHIRT	Clothing	1	-1	[0, 0, 0]	n/a	catFR1	2	R1444D
40.013	1.6	52500	WORD	n/a	n/a	COAT	Clothing	2	-1	[0, 0, 0]	n/a	catFR1	2	R1444D
41.613	0.867	54107	WORD_OFF	n/a	n/a	COAT	Clothing	2	-1	[0, 0, 0]	n/a	catFR1	2	R1444D
42.48	1.616	54974	WORD	n/a	n/a	SHRIMP	OceanAnimals	3	-1	[0, 0, 0]	n/a	catFR1	2	R1444D
44.096	0.767	56581	WORD_OFF	n/a	n/a	SHRIMP	OceanAnimals	3	-1	[0, 0, 0]	n/a	catFR1	2	R1444D
44.863	1.616	57347	WORD	n/a	n/a	TURTLE	OceanAnimals	4	-1	[0, 0, 0]	n/a	catFR1	2	R1444D
46.479	0.801	58967	WORD_OFF	n/a	n/a	TURTLE	OceanAnimals	4	-1	[0, 0, 0]	n/a	catFR1	2	R1444D
47.28	1.6	59771	WORD	n/a	n/a	LETTUCE	Vegetables	5	-1	[0, 0, 0]	n/a	catFR1	2	R1444D
48.88	0.916	61365	WORD_OFF	n/a	n/a	LETTUCE	Vegetables	5	-1	[0, 0, 0]	n/a	catFR1	2	R1444D
49.796	1.617	62282	WORD	n/a	n/a	CORN	Vegetables	6	-1	[0, 0, 0]	n/a	catFR1	2	R1444D
51.413	0.866	63902	WORD_OFF	n/a	n/a	CORN	Vegetables	6	-1	[0, 0, 0]	n/a	catFR1	2	R1444D
52.279	1.618	64768	WORD	n/a	n/a	SHORTS	Clothing	7	-1	[0, 0, 0]	n/a	catFR1	2	R1444D
53.897	0.915	66388	WORD_OFF	n/a	n/a	SHORTS	Clothing	7	-1	[0, 0, 0]	n/a	catFR1	2	R1444D
54.812	1.601	67305	WORD	n/a	n/a	SHOES	Clothing	8	-1	[0, 0, 0]	n/a	catFR1	2	R1444D
56.413	0.9	68900	WORD_OFF	n/a	n/a	SHOES	Clothing	8	-1	[0, 0, 0]	n/a	catFR1	2	R1444D
57.313	1.6	69804	WORD	n/a	n/a	PEAS	Vegetables	9	-1	[0, 0, 0]	n/a	catFR1	2	R1444D
58.913	0.917	71398	WORD_OFF	n/a	n/a	PEAS	Vegetables	9	-1	[0, 0, 0]	n/a	catFR1	2	R1444D
59.83	1.6	72315	WORD	n/a	n/a	CELERY	Vegetables	10	-1	[0, 0, 0]	n/a	catFR1	2	R1444D
61.43	0.883	73922	WORD_OFF	n/a	n/a	CELERY	Vegetables	10	-1	[0, 0, 0]	n/a	catFR1	2	R1444D
62.313	1.6	74801	WORD	n/a	n/a	SQUID	OceanAnimals	11	-1	[0, 0, 0]	n/a	catFR1	2	R1444D
63.913	0.867	76396	WORD_OFF	n/a	n/a	SQUID	OceanAnimals	11	-1	[0, 0, 0]	n/a	catFR1	2	R1444D
64.78	1.616	77262	WORD	n/a	n/a	LOBSTER	OceanAnimals	12	-1	[0, 0, 0]	n/a	catFR1	2	R1444D
66.396	0.002	78882	WORD_OFF	n/a	n/a	LOBSTER	OceanAnimals	12	-1	[0, 0, 0]	n/a	catFR1	2	R1444D
66.398	0.0	78882	ENCODING_END	n/a	n/a	n/a	n/a	-999	-1	[0, 0, 0]	n/a	catFR1	2	R1444D
66.398	0.0	78889	START	n/a	n/a	n/a	n/a	-999	-1	[-999, -999, -999]	n/a	catFR1	2	R1444D
66.398	0.0	78889	PROB	0.0	n/a	n/a	n/a	-999	-1	[5, 4, 6]	15	catFR1	2	R1444D
66.398	10.365	78895	DISTRACT_START	n/a	n/a	n/a	n/a	-999	-1	[0, 0, 0]	n/a	catFR1	2	R1444D
76.763	3.118	89253	PROB	3.118	n/a	n/a	n/a	-999	-1	[4, 6, 1]	11	catFR1	2	R1444D
79.881	9.332	92371	PROB	9.332	n/a	n/a	n/a	-999	-1	[8, 2, 7]	17	catFR1	2	R1444D
89.213	0.0	101698	DISTRACT_END	n/a	n/a	n/a	n/a	-999	-1	[0, 0, 0]	n/a	catFR1	2	R1444D
89.213	1.167	101702	STOP	n/a	n/a	n/a	n/a	-999	-1	[-999, -999, -999]	n/a	catFR1	2	R1444D
90.38	1.865	102866	REC_START	n/a	n/a	n/a	n/a	-999	-1	[0, 0, 0]	n/a	catFR1	2	R1444D
92.245	0.799	104734	REC_WORD_VV	0.799	n/a	<>	n/a	-999	-1	[0, 0, 0]	n/a	catFR1	2	R1444D
93.044	2.201	105533	REC_WORD	2.201	n/a	SHRIMP	OceanAnimals	3	-1	[0, 0, 0]	n/a	catFR1	2	R1444D
95.245	0.555	107734	REC_WORD	0.555	n/a	SHRIMP	OceanAnimals	3	-1	[0, 0, 0]	n/a	catFR1	2	R1444D
95.8	1.0	108289	REC_WORD_VV	1.0	n/a	<>	n/a	-999	-1	[0, 0, 0]	n/a	catFR1	2	R1444D
96.8	0.618	109289	REC_WORD_VV	0.618	n/a	<>	n/a	-999	-1	[0, 0, 0]	n/a	catFR1	2	R1444D
97.418	0.439	109907	REC_WORD	0.439	n/a	COAT	Clothing	2	-1	[0, 0, 0]	n/a	catFR1	2	R1444D
97.857	1.484	110346	REC_WORD	1.484	n/a	LOBSTER	OceanAnimals	12	-1	[0, 0, 0]	n/a	catFR1	2	R1444D
99.341	1.507	111830	REC_WORD_VV	1.507	n/a	<>	n/a	-999	-1	[0, 0, 0]	n/a	catFR1	2	R1444D
100.848	0.613	113337	REC_WORD_VV	0.613	n/a	<>	n/a	-999	-1	[0, 0, 0]	n/a	catFR1	2	R1444D
101.461	1.134	113950	REC_WORD	1.134	n/a	PEAS	Vegetables	9	-1	[0, 0, 0]	n/a	catFR1	2	R1444D
102.595	2.722	115084	REC_WORD_VV	2.722	n/a	<>	n/a	-999	-1	[0, 0, 0]	n/a	catFR1	2	R1444D
105.317	1.188	117806	REC_WORD_VV	1.188	n/a	<>	n/a	-999	-1	[0, 0, 0]	n/a	catFR1	2	R1444D
106.505	2.761	118994	REC_WORD	2.761	n/a	TURTLE	OceanAnimals	4	-1	[0, 0, 0]	n/a	catFR1	2	R1444D
109.266	1.18	121754	REC_WORD	1.18	n/a	TURTLE	OceanAnimals	4	-1	[0, 0, 0]	n/a	catFR1	2	R1444D
110.446	4.437	122934	REC_WORD_VV	4.437	n/a	<>	n/a	-999	-1	[0, 0, 0]	n/a	catFR1	2	R1444D
114.883	1.597	127371	REC_WORD	1.597	n/a	TURTLE	OceanAnimals	4	-1	[0, 0, 0]	n/a	catFR1	2	R1444D
116.48	2.601	128968	REC_WORD	2.601	n/a	SHOES	Clothing	8	-1	[0, 0, 0]	n/a	catFR1	2	R1444D
119.081	2.516	131569	REC_WORD_VV	2.516	n/a	<>	n/a	-999	-1	[0, 0, 0]	n/a	catFR1	2	R1444D
121.597	14.332	134083	REC_END	n/a	n/a	n/a	n/a	-999	-1	[0, 0, 0]	n/a	catFR1	2	R1444D
135.929	10.35	148410	COUNTDOWN_START	n/a	n/a	n/a	n/a	-999	1	[0, 0, 0]	n/a	catFR1	2	R1444D
146.279	0.0	158757	COUNTDOWN_END	n/a	n/a	n/a	n/a	-999	1	[0, 0, 0]	n/a	catFR1	2	R1444D
146.279	2.051	158770	ENCODING_START	n/a	n/a	n/a	n/a	-999	1	[0, 0, 0]	n/a	catFR1	2	R1444D
148.33	1.616	160816	WORD	n/a	wordpools/wordpool_categorized_EN.txt	GNAT	Insects	1	1	[0, 0, 0]	n/a	catFR1	2	R1444D
149.946	0.818	162424	WORD_OFF	n/a	n/a	GNAT	Insects	1	1	[0, 0, 0]	n/a	catFR1	2	R1444D
150.764	1.616	163252	WORD	n/a	wordpools/wordpool_categorized_EN.txt	BUTTERFLY	Insects	2	1	[0, 0, 0]	n/a	catFR1	2	R1444D
152.38	0.934	164860	WORD_OFF	n/a	n/a	BUTTERFLY	Insects	2	1	[0, 0, 0]	n/a	catFR1	2	R1444D
153.314	1.616	165802	WORD	n/a	wordpools/wordpool_categorized_EN.txt	BEER	Beverages	3	1	[0, 0, 0]	n/a	catFR1	2	R1444D
154.93	0.767	167409	WORD_OFF	n/a	n/a	BEER	Beverages	3	1	[0, 0, 0]	n/a	catFR1	2	R1444D
155.697	1.616	168175	WORD	n/a	wordpools/wordpool_categorized_EN.txt	TEA	Beverages	4	1	[0, 0, 0]	n/a	catFR1	2	R1444D
157.313	0.834	169795	WORD_OFF	n/a	n/a	TEA	Beverages	4	1	[0, 0, 0]	n/a	catFR1	2	R1444D
158.147	1.616	170623	WORD	n/a	wordpools/wordpool_categorized_EN.txt	BALL	Toys	5	1	[0, 0, 0]	n/a	catFR1	2	R1444D
159.763	0.8	172243	WORD_OFF	n/a	n/a	BALL	Toys	5	1	[0, 0, 0]	n/a	catFR1	2	R1444D
160.563	1.616	173047	WORD	n/a	wordpools/wordpool_categorized_EN.txt	PUZZLE	Toys	6	1	[0, 0, 0]	n/a	catFR1	2	R1444D
162.179	0.95	174667	WORD_OFF	n/a	n/a	PUZZLE	Toys	6	1	[0, 0, 0]	n/a	catFR1	2	R1444D
163.129	1.6	175609	WORD	n/a	wordpools/wordpool_categorized_EN.txt	COLA	Beverages	7	1	[0, 0, 0]	n/a	catFR1	2	R1444D
164.729	0.983	177216	WORD_OFF	n/a	n/a	COLA	Beverages	7	1	[0, 0, 0]	n/a	catFR1	2	R1444D
165.712	1.6	178195	WORD	n/a	wordpools/wordpool_categorized_EN.txt	LEMONADE	Beverages	8	1	[0, 0, 0]	n/a	catFR1	2	R1444D
167.312	0.95	179790	WORD_OFF	n/a	n/a	LEMONADE	Beverages	8	1	[0, 0, 0]	n/a	catFR1	2	R1444D
168.262	1.601	180744	WORD	n/a	wordpools/wordpool_categorized_EN.txt	BASEBALL	Toys	9	1	[0, 0, 0]	n/a	catFR1	2	R1444D
169.863	0.8	182339	WORD_OFF	n/a	n/a	BASEBALL	Toys	9	1	[0, 0, 0]	n/a	catFR1	2	R1444D
170.663	1.617	183143	WORD	n/a	wordpools/wordpool_categorized_EN.txt	MARBLES	Toys	10	1	[0, 0, 0]	n/a	catFR1	2	R1444D
172.28	0.967	184762	WORD_OFF	n/a	n/a	MARBLES	Toys	10	1	[0, 0, 0]	n/a	catFR1	2	R1444D
173.247	1.616	185729	WORD	n/a	wordpools/wordpool_categorized_EN.txt	ROACH	Insects	11	1	[0, 0, 0]	n/a	catFR1	2	R1444D
174.863	0.9	187349	WORD_OFF	n/a	n/a	ROACH	Insects	11	1	[0, 0, 0]	n/a	catFR1	2	R1444D
175.763	1.6	188241	WORD	n/a	wordpools/wordpool_categorized_EN.txt	MOTH	Insects	12	1	[0, 0, 0]	n/a	catFR1	2	R1444D
177.363	0.002	189848	WORD_OFF	n/a	n/a	MOTH	Insects	12	1	[0, 0, 0]	n/a	catFR1	2	R1444D
177.365	0.0	189848	ENCODING_END	n/a	n/a	n/a	n/a	-999	1	[0, 0, 0]	n/a	catFR1	2	R1444D
177.365	0.0	189848	DISTRACT_START	n/a	n/a	n/a	n/a	-999	1	[0, 0, 0]	n/a	catFR1	2	R1444D
177.365	0.001	189850	START	n/a	n/a	n/a	n/a	-999	1	[-999, -999, -999]	n/a	catFR1	2	R1444D
177.366	10.498	189851	PROB	10.498	n/a	n/a	n/a	-999	1	[4, 5, 7]	16	catFR1	2	R1444D
187.864	4.733	200348	PROB	4.733	n/a	n/a	n/a	-999	1	[8, 8, 1]	17	catFR1	2	R1444D
192.597	14.467	205081	PROB	14.467	n/a	n/a	n/a	-999	1	[7, 2, 3]	12	catFR1	2	R1444D
207.064	0.0	219545	DISTRACT_END	n/a	n/a	n/a	n/a	-999	1	[0, 0, 0]	n/a	catFR1	2	R1444D
207.064	1.049	219547	STOP	n/a	n/a	n/a	n/a	-999	1	[-999, -999, -999]	n/a	catFR1	2	R1444D
208.113	2.232	220588	REC_START	n/a	n/a	n/a	n/a	-999	1	[0, 0, 0]	n/a	catFR1	2	R1444D
210.345	1.0	222828	REC_WORD_VV	1.0	n/a	<>	n/a	-999	1	[0, 0, 0]	n/a	catFR1	2	R1444D
211.345	1.0	223828	REC_WORD_VV	1.0	n/a	<>	n/a	-999	1	[0, 0, 0]	n/a	catFR1	2	R1444D
212.345	1.261	224828	REC_WORD_VV	1.261	n/a	<>	n/a	-999	1	[0, 0, 0]	n/a	catFR1	2	R1444D
213.606	0.866	226089	REC_WORD	0.866	n/a	SUGAR	n/a	-999	1	[0, 0, 0]	n/a	catFR1	2	R1444D
214.472	0.568	226955	REC_WORD	0.568	n/a	FLY	n/a	-999	1	[0, 0, 0]	n/a	catFR1	2	R1444D
215.04	2.556	227523	REC_WORD_VV	2.556	n/a	<>	n/a	-999	1	[0, 0, 0]	n/a	catFR1	2	R1444D
217.596	0.674	230079	REC_WORD_VV	0.674	n/a	<>	n/a	-999	1	[0, 0, 0]	n/a	catFR1	2	R1444D
218.27	0.82	230753	REC_WORD	0.82	n/a	BUTTERFLY	Insects	2	1	[0, 0, 0]	n/a	catFR1	2	R1444D
219.09	1.552	231573	REC_WORD	1.552	n/a	MOTH	Insects	12	1	[0, 0, 0]	n/a	catFR1	2	R1444D
220.642	3.467	233124	REC_WORD_VV	3.467	n/a	<>	n/a	-999	1	[0, 0, 0]	n/a	catFR1	2	R1444D
224.109	0.232	236591	REC_WORD_VV	0.232	n/a	<>	n/a	-999	1	[0, 0, 0]	n/a	catFR1	2	R1444D
224.341	2.147	236823	REC_WORD	2.147	n/a	MARBLES	Toys	10	1	[0, 0, 0]	n/a	catFR1	2	R1444D
226.488	1.795	238970	REC_WORD_VV	1.795	n/a	<>	n/a	-999	1	[0, 0, 0]	n/a	catFR1	2	R1444D
228.283	11.017	240765	REC_WORD	11.017	n/a	MARBLES	Toys	10	1	[0, 0, 0]	n/a	catFR1	2	R1444D
239.3	45.846	251779	REC_END	n/a	n/a	n/a	n/a	-999	1	[0, 0, 0]	n/a	catFR1	2	R1444D
285.146	10.35	297624	COUNTDOWN_START	n/a	n/a	n/a	n/a	-999	1	[0, 0, 0]	n/a	catFR1	2	R1444D
295.496	0.0	307971	COUNTDOWN_END	n/a	n/a	n/a	n/a	-999	1	[0, 0, 0]	n/a	catFR1	2	R1444D
295.496	2.25	307971	ENCODING_START	n/a	n/a	n/a	n/a	-999	2	[0, 0, 0]	n/a	catFR1	2	R1444D
297.746	1.615	310219	WORD	n/a	wordpools/wordpool_categorized_EN.txt	ROSE	Flowers	1	2	[0, 0, 0]	n/a	catFR1	2	R1444D
299.361	0.819	311839	WORD_OFF	n/a	n/a	ROSE	Flowers	1	2	[0, 0, 0]	n/a	catFR1	2	R1444D
300.18	1.6	312655	WORD	n/a	wordpools/wordpool_categorized_EN.txt	PETUNIA	Flowers	2	2	[0, 0, 0]	n/a	catFR1	2	R1444D
301.78	0.966	314250	WORD_OFF	n/a	n/a	PETUNIA	Flowers	2	2	[0, 0, 0]	n/a	catFR1	2	R1444D
302.746	1.601	315217	WORD	n/a	wordpools/wordpool_categorized_EN.txt	CALF	FarmAnimals	3	2	[0, 0, 0]	n/a	catFR1	2	R1444D
304.347	0.8	316824	WORD_OFF	n/a	n/a	CALF	FarmAnimals	3	2	[0, 0, 0]	n/a	catFR1	2	R1444D
305.147	1.616	317615	WORD	n/a	wordpools/wordpool_categorized_EN.txt	HEN	FarmAnimals	4	2	[0, 0, 0]	n/a	catFR1	2	R1444D
306.763	0.967	319235	WORD_OFF	n/a	n/a	HEN	FarmAnimals	4	2	[0, 0, 0]	n/a	catFR1	2	R1444D
307.73	1.617	320202	WORD	n/a	wordpools/wordpool_categorized_EN.txt	MONKEY	Zoo	5	2	[0, 0, 0]	n/a	catFR1	2	R1444D
309.347	0.8	321822	WORD_OFF	n/a	n/a	MONKEY	Zoo	5	2	[0, 0, 0]	n/a	catFR1	2	R1444D
310.147	1.6	322625	WORD	n/a	wordpools/wordpool_categorized_EN.txt	TIGER	Zoo	6	2	[0, 0, 0]	n/a	catFR1	2	R1444D
311.747	0.767	324220	WORD_OFF	n/a	n/a	TIGER	Zoo	6	2	[0, 0, 0]	n/a	catFR1	2	R1444D
312.514	1.616	324986	WORD	n/a	wordpools/wordpool_categorized_EN.txt	TURKEY	FarmAnimals	7	2	[0, 0, 0]	n/a	catFR1	2	R1444D
314.13	0.833	326606	WORD_OFF	n/a	n/a	TURKEY	FarmAnimals	7	2	[0, 0, 0]	n/a	catFR1	2	R1444D
314.963	1.617	327435	WORD	n/a	wordpools/wordpool_categorized_EN.txt	GOAT	FarmAnimals	8	2	[0, 0, 0]	n/a	catFR1	2	R1444D
316.58	0.767	329054	WORD_OFF	n/a	n/a	GOAT	FarmAnimals	8	2	[0, 0, 0]	n/a	catFR1	2	R1444D
317.347	1.617	329820	WORD	n/a	wordpools/wordpool_categorized_EN.txt	ZEBRA	Zoo	9	2	[0, 0, 0]	n/a	catFR1	2	R1444D
318.964	0.83	331440	WORD_OFF	n/a	n/a	ZEBRA	Zoo	9	2	[0, 0, 0]	n/a	catFR1	2	R1444D
319.794	1.603	332269	WORD	n/a	wordpools/wordpool_categorized_EN.txt	PANDA	Zoo	10	2	[0, 0, 0]	n/a	catFR1	2	R1444D
321.397	0.982	333876	WORD_OFF	n/a	n/a	PANDA	Zoo	10	2	[0, 0, 0]	n/a	catFR1	2	R1444D
322.379	1.601	334856	WORD	n/a	wordpools/wordpool_categorized_EN.txt	CARNATION	Flowers	11	2	[0, 0, 0]	n/a	catFR1	2	R1444D
323.98	0.833	336450	WORD_OFF	n/a	n/a	CARNATION	Flowers	11	2	[0, 0, 0]	n/a	catFR1	2	R1444D
324.813	1.617	337292	WORD	n/a	wordpools/wordpool_categorized_EN.txt	DAISY	Flowers	12	2	[0, 0, 0]	n/a	catFR1	2	R1444D
326.43	0.002	338899	WORD_OFF	n/a	n/a	DAISY	Flowers	12	2	[0, 0, 0]	n/a	catFR1	2	R1444D
326.432	0.0	338899	ENCODING_END	n/a	n/a	n/a	n/a	-999	2	[0, 0, 0]	n/a	catFR1	2	R1444D
326.431	0.001	338908	PROB	0.001	n/a	n/a	n/a	-999	2	[8, 3, 4]	15	catFR1	2	R1444D
326.432	0.0	338909	START	n/a	n/a	n/a	n/a	-999	2	[-999, -999, -999]	n/a	catFR1	2	R1444D
326.432	9.282	338912	DISTRACT_START	n/a	n/a	n/a	n/a	-999	2	[0, 0, 0]	n/a	catFR1	2	R1444D
335.714	4.732	348190	PROB	4.732	n/a	n/a	n/a	-999	2	[6, 7, 1]	14	catFR1	2	R1444D
340.446	9.383	352922	PROB	9.383	n/a	n/a	n/a	-999	2	[3, 4, 7]	14	catFR1	2	R1444D
349.829	0.0	362305	DISTRACT_END	n/a	n/a	n/a	n/a	-999	2	[0, 0, 0]	n/a	catFR1	2	R1444D
349.829	1.15	362305	STOP	n/a	n/a	n/a	n/a	-999	2	[-999, -999, -999]	n/a	catFR1	2	R1444D
350.979	1.416	363448	REC_START	n/a	n/a	n/a	n/a	-999	2	[0, 0, 0]	n/a	catFR1	2	R1444D
352.395	1.132	364870	REC_WORD_VV	1.132	n/a	<>	n/a	-999	2	[0, 0, 0]	n/a	catFR1	2	R1444D
353.527	2.277	366002	REC_WORD	2.277	n/a	CARNATION	Flowers	11	2	[0, 0, 0]	n/a	catFR1	2	R1444D
355.804	2.685	368279	REC_WORD_VV	2.685	n/a	<>	n/a	-999	2	[0, 0, 0]	n/a	catFR1	2	R1444D
358.489	0.956	370964	REC_WORD	0.956	n/a	CARNATION	Flowers	11	2	[0, 0, 0]	n/a	catFR1	2	R1444D
359.445	0.54	371920	REC_WORD_VV	0.54	n/a	<>	n/a	-999	2	[0, 0, 0]	n/a	catFR1	2	R1444D
359.985	0.867	372460	REC_WORD	0.867	n/a	WINE	n/a	-999	2	[0, 0, 0]	n/a	catFR1	2	R1444D
360.852	1.565	373327	REC_WORD	1.565	n/a	TURKEY	FarmAnimals	7	2	[0, 0, 0]	n/a	catFR1	2	R1444D
362.417	2.864	374892	REC_WORD_VV	2.864	n/a	<>	n/a	-999	2	[0, 0, 0]	n/a	catFR1	2	R1444D
365.281	0.221	377756	REC_WORD_VV	0.221	n/a	<>	n/a	-999	2	[0, 0, 0]	n/a	catFR1	2	R1444D
365.502	0.659	377977	REC_WORD	0.659	n/a	ZEBRA	Zoo	9	2	[0, 0, 0]	n/a	catFR1	2	R1444D
366.161	1.674	378636	REC_WORD	1.674	n/a	FISH	n/a	-999	2	[0, 0, 0]	n/a	catFR1	2	R1444D
367.835	3.841	380310	REC_WORD_VV	3.841	n/a	<>	n/a	-999	2	[0, 0, 0]	n/a	catFR1	2	R1444D
371.676	0.932	384150	REC_WORD	0.932	n/a	ZEBRA	Zoo	9	2	[0, 0, 0]	n/a	catFR1	2	R1444D
372.608	1.216	385082	REC_WORD	1.216	n/a	FISH	n/a	-999	2	[0, 0, 0]	n/a	catFR1	2	R1444D
373.824	1.807	386298	REC_WORD	1.807	n/a	TURTLE	OceanAnimals	-999	2	[0, 0, 0]	n/a	catFR1	2	R1444D
375.631	3.917	388105	REC_WORD_VV	3.917	n/a	<>	n/a	-999	2	[0, 0, 0]	n/a	catFR1	2	R1444D
379.548	2.612	392022	REC_WORD_VV	2.612	n/a	<>	n/a	-999	2	[0, 0, 0]	n/a	catFR1	2	R1444D
382.16	7.137	394627	REC_END	n/a	n/a	n/a	n/a	-999	2	[0, 0, 0]	n/a	catFR1	2	R1444D
389.297	10.349	401772	COUNTDOWN_START	n/a	n/a	n/a	n/a	-999	2	[0, 0, 0]	n/a	catFR1	2	R1444D
399.646	0.0	412119	COUNTDOWN_END	n/a	n/a	n/a	n/a	-999	2	[0, 0, 0]	n/a	catFR1	2	R1444D
399.646	2.083	412119	ENCODING_START	n/a	n/a	n/a	n/a	-999	3	[0, 0, 0]	n/a	catFR1	2	R1444D
401.729	1.617	414203	WORD	n/a	wordpools/wordpool_categorized_EN.txt	WHISK	KitchenTools	1	3	[0, 0, 0]	n/a	catFR1	2	R1444D
403.346	0.9	415810	WORD_OFF	n/a	n/a	WHISK	KitchenTools	1	3	[0, 0, 0]	n/a	catFR1	2	R1444D
404.246	1.6	416715	WORD	n/a	wordpools/wordpool_categorized_EN.txt	KNIFE	KitchenTools	2	3	[0, 0, 0]	n/a	catFR1	2	R1444D
405.846	0.867	418309	WORD_OFF	n/a	n/a	KNIFE	KitchenTools	2	3	[0, 0, 0]	n/a	catFR1	2	R1444D
406.713	1.6	419176	WORD	n/a	wordpools/wordpool_categorized_EN.txt	OAK	Trees	3	3	[0, 0, 0]	n/a	catFR1	2	R1444D
408.313	0.95	420783	WORD_OFF	n/a	n/a	OAK	Trees	3	3	[0, 0, 0]	n/a	catFR1	2	R1444D
409.263	1.6	421737	WORD	n/a	wordpools/wordpool_categorized_EN.txt	SPRUCE	Trees	4	3	[0, 0, 0]	n/a	catFR1	2	R1444D
410.863	0.95	423332	WORD_OFF	n/a	n/a	SPRUCE	Trees	4	3	[0, 0, 0]	n/a	catFR1	2	R1444D
411.813	1.6	424286	WORD	n/a	wordpools/wordpool_categorized_EN.txt	SATIN	Fabric	5	3	[0, 0, 0]	n/a	catFR1	2	R1444D
413.413	0.95	425881	WORD_OFF	n/a	n/a	SATIN	Fabric	5	3	[0, 0, 0]	n/a	catFR1	2	R1444D
414.363	1.617	426835	WORD	n/a	wordpools/wordpool_categorized_EN.txt	FLEECE	Fabric	6	3	[0, 0, 0]	n/a	catFR1	2	R1444D
415.98	0.933	428443	WORD_OFF	n/a	n/a	FLEECE	Fabric	6	3	[0, 0, 0]	n/a	catFR1	2	R1444D
416.913	1.617	429384	WORD	n/a	wordpools/wordpool_categorized_EN.txt	ELM	Trees	7	3	[0, 0, 0]	n/a	catFR1	2	R1444D
418.53	0.867	431004	WORD_OFF	n/a	n/a	ELM	Trees	7	3	[0, 0, 0]	n/a	catFR1	2	R1444D
419.397	1.6	431871	WORD	n/a	wordpools/wordpool_categorized_EN.txt	CEDAR	Trees	8	3	[0, 0, 0]	n/a	catFR1	2	R1444D
420.997	0.832	433465	WORD_OFF	n/a	n/a	CEDAR	Trees	8	3	[0, 0, 0]	n/a	catFR1	2	R1444D
421.829	1.601	434294	WORD	n/a	wordpools/wordpool_categorized_EN.txt	TONGS	KitchenTools	9	3	[0, 0, 0]	n/a	catFR1	2	R1444D
423.43	0.817	435902	WORD_OFF	n/a	n/a	TONGS	KitchenTools	9	3	[0, 0, 0]	n/a	catFR1	2	R1444D
424.247	1.6	436718	WORD	n/a	wordpools/wordpool_categorized_EN.txt	CORKSCREW	KitchenTools	10	3	[0, 0, 0]	n/a	catFR1	2	R1444D
425.847	0.783	438312	WORD_OFF	n/a	n/a	CORKSCREW	KitchenTools	10	3	[0, 0, 0]	n/a	catFR1	2	R1444D
426.63	1.6	439104	WORD	n/a	wordpools/wordpool_categorized_EN.txt	LEATHER	Fabric	11	3	[0, 0, 0]	n/a	catFR1	2	R1444D
428.23	0.917	440698	WORD_OFF	n/a	n/a	LEATHER	Fabric	11	3	[0, 0, 0]	n/a	catFR1	2	R1444D
429.147	1.616	441615	WORD	n/a	wordpools/wordpool_categorized_EN.txt	VELVET	Fabric	12	3	[0, 0, 0]	n/a	catFR1	2	R1444D
430.763	0.0	443234	PROB	0.0	n/a	n/a	n/a	-999	3	[2, 6, 7]	15	catFR1	2	R1444D
430.763	0.002	443235	WORD_OFF	n/a	n/a	VELVET	Fabric	12	3	[0, 0, 0]	n/a	catFR1	2	R1444D
430.765	0.0	443235	ENCODING_END	n/a	n/a	n/a	n/a	-999	3	[0, 0, 0]	n/a	catFR1	2	R1444D
430.765	0.0	443235	DISTRACT_START	n/a	n/a	n/a	n/a	-999	3	[0, 0, 0]	n/a	catFR1	2	R1444D
430.765	26.015	443236	START	n/a	n/a	n/a	n/a	-999	3	[-999, -999, -999]	n/a	catFR1	2	R1444D
456.78	0.0	469240	DISTRACT_END	n/a	n/a	n/a	n/a	-999	3	[0, 0, 0]	n/a	catFR1	2	R1444D
456.78	1.366	469250	STOP	n/a	n/a	n/a	n/a	-999	3	[-999, -999, -999]	n/a	catFR1	2	R1444D
458.146	1.157	470609	REC_START	n/a	n/a	n/a	n/a	-999	3	[0, 0, 0]	n/a	catFR1	2	R1444D
459.303	0.827	471773	REC_WORD	0.827	n/a	CORKSCREW	KitchenTools	10	3	[0, 0, 0]	n/a	catFR1	2	R1444D
460.13	1.0	472600	REC_WORD_VV	1.0	n/a	<>	n/a	-999	3	[0, 0, 0]	n/a	catFR1	2	R1444D
461.13	1.0	473600	REC_WORD_VV	1.0	n/a	<>	n/a	-999	3	[0, 0, 0]	n/a	catFR1	2	R1444D
462.13	1.596	474600	REC_WORD_VV	1.596	n/a	<>	n/a	-999	3	[0, 0, 0]	n/a	catFR1	2	R1444D
463.726	1.397	476196	REC_WORD	1.397	n/a	CORKSCREW	KitchenTools	10	3	[0, 0, 0]	n/a	catFR1	2	R1444D
465.123	1.438	477592	REC_WORD	1.438	n/a	GLASS	n/a	-999	3	[0, 0, 0]	n/a	catFR1	2	R1444D
466.561	2.601	479030	REC_WORD_VV	2.601	n/a	<>	n/a	-999	3	[0, 0, 0]	n/a	catFR1	2	R1444D
469.162	1.343	481631	REC_WORD_VV	1.343	n/a	<>	n/a	-999	3	[0, 0, 0]	n/a	catFR1	2	R1444D
470.505	2.458	482974	REC_WORD	2.458	n/a	ZEBRA	Zoo	-999	3	[0, 0, 0]	n/a	catFR1	2	R1444D
472.963	1.978	485432	REC_WORD_VV	1.978	n/a	<>	n/a	-999	3	[0, 0, 0]	n/a	catFR1	2	R1444D
474.941	2.258	487410	REC_WORD	2.258	n/a	TURTLE	OceanAnimals	-999	3	[0, 0, 0]	n/a	catFR1	2	R1444D
477.199	4.904	489668	REC_WORD_VV	4.904	n/a	<>	n/a	-999	3	[0, 0, 0]	n/a	catFR1	2	R1444D
482.103	2.35	494572	REC_WORD	2.35	n/a	KNIFE	KitchenTools	2	3	[0, 0, 0]	n/a	catFR1	2	R1444D
484.453	4.877	496921	REC_WORD_VV	4.877	n/a	<>	n/a	-999	3	[0, 0, 0]	n/a	catFR1	2	R1444D
489.33	3.766	501800	REC_END	n/a	n/a	n/a	n/a	-999	3	[0, 0, 0]	n/a	catFR1	2	R1444D
493.096	10.35	505568	COUNTDOWN_START	n/a	n/a	n/a	n/a	-999	3	[0, 0, 0]	n/a	catFR1	2	R1444D
503.446	0.0	515914	COUNTDOWN_END	n/a	n/a	n/a	n/a	-999	3	[0, 0, 0]	n/a	catFR1	2	R1444D
503.446	2.167	515914	ENCODING_START	n/a	n/a	n/a	n/a	-999	4	[0, 0, 0]	n/a	catFR1	2	R1444D
505.613	1.617	518074	WORD	n/a	wordpools/wordpool_categorized_EN.txt	BLENDER	Appliances	1	4	[0, 0, 0]	n/a	catFR1	2	R1444D
507.23	0.866	519694	WORD_OFF	n/a	n/a	BLENDER	Appliances	1	4	[0, 0, 0]	n/a	catFR1	2	R1444D
508.096	1.617	520561	WORD	n/a	wordpools/wordpool_categorized_EN.txt	DRYER	Appliances	2	4	[0, 0, 0]	n/a	catFR1	2	R1444D
509.713	0.834	522180	WORD_OFF	n/a	n/a	DRYER	Appliances	2	4	[0, 0, 0]	n/a	catFR1	2	R1444D
510.547	1.616	523009	WORD	n/a	wordpools/wordpool_categorized_EN.txt	JACKET	Clothing	3	4	[0, 0, 0]	n/a	catFR1	2	R1444D
512.163	0.867	524629	WORD_OFF	n/a	n/a	JACKET	Clothing	3	4	[0, 0, 0]	n/a	catFR1	2	R1444D
513.03	1.617	525495	WORD	n/a	wordpools/wordpool_categorized_EN.txt	UNDERWEAR	Clothing	4	4	[0, 0, 0]	n/a	catFR1	2	R1444D
514.647	0.799	527115	WORD_OFF	n/a	n/a	UNDERWEAR	Clothing	4	4	[0, 0, 0]	n/a	catFR1	2	R1444D
515.446	1.601	527906	WORD	n/a	wordpools/wordpool_categorized_EN.txt	TABLE	Furniture	5	4	[0, 0, 0]	n/a	catFR1	2	R1444D
517.047	1.0	529514	WORD_OFF	n/a	n/a	TABLE	Furniture	5	4	[0, 0, 0]	n/a	catFR1	2	R1444D
518.047	1.615	530506	WORD	n/a	wordpools/wordpool_categorized_EN.txt	SHELF	Furniture	6	4	[0, 0, 0]	n/a	catFR1	2	R1444D
519.662	0.968	532125	WORD_OFF	n/a	n/a	SHELF	Furniture	6	4	[0, 0, 0]	n/a	catFR1	2	R1444D
520.63	1.617	533092	WORD	n/a	wordpools/wordpool_categorized_EN.txt	DRESS	Clothing	7	4	[0, 0, 0]	n/a	catFR1	2	R1444D
522.247	0.966	534712	WORD_OFF	n/a	n/a	DRESS	Clothing	7	4	[0, 0, 0]	n/a	catFR1	2	R1444D
523.213	1.6	535679	WORD	n/a	wordpools/wordpool_categorized_EN.txt	PANTS	Clothing	8	4	[0, 0, 0]	n/a	catFR1	2	R1444D
524.813	0.85	537274	WORD_OFF	n/a	n/a	PANTS	Clothing	8	4	[0, 0, 0]	n/a	catFR1	2	R1444D
525.663	1.6	538128	WORD	n/a	wordpools/wordpool_categorized_EN.txt	STOVE	Appliances	9	4	[0, 0, 0]	n/a	catFR1	2	R1444D
527.263	1.0	539722	WORD_OFF	n/a	n/a	STOVE	Appliances	9	4	[0, 0, 0]	n/a	catFR1	2	R1444D
528.263	1.6	540727	WORD	n/a	wordpools/wordpool_categorized_EN.txt	VACUUM	Appliances	10	4	[0, 0, 0]	n/a	catFR1	2	R1444D
529.863	0.833	542322	WORD_OFF	n/a	n/a	VACUUM	Appliances	10	4	[0, 0, 0]	n/a	catFR1	2	R1444D
530.696	1.618	543163	WORD	n/a	wordpools/wordpool_categorized_EN.txt	DESK	Furniture	11	4	[0, 0, 0]	n/a	catFR1	2	R1444D
532.314	0.883	544770	WORD_OFF	n/a	n/a	DESK	Furniture	11	4	[0, 0, 0]	n/a	catFR1	2	R1444D
533.197	1.617	545662	WORD	n/a	wordpools/wordpool_categorized_EN.txt	CHAIR	Furniture	12	4	[0, 0, 0]	n/a	catFR1	2	R1444D
534.814	0.001	547280	PROB	0.001	n/a	n/a	n/a	-999	4	[5, 6, 7]	18	catFR1	2	R1444D
534.815	0.0	547281	START	n/a	n/a	n/a	n/a	-999	4	[-999, -999, -999]	n/a	catFR1	2	R1444D
534.813	0.002	547282	WORD_OFF	n/a	n/a	CHAIR	Furniture	12	4	[0, 0, 0]	n/a	catFR1	2	R1444D
534.815	0.0	547282	ENCODING_END	n/a	n/a	n/a	n/a	-999	4	[0, 0, 0]	n/a	catFR1	2	R1444D
534.815	17.349	547282	DISTRACT_START	n/a	n/a	n/a	n/a	-999	4	[0, 0, 0]	n/a	catFR1	2	R1444D
552.164	6.183	564629	PROB	6.183	n/a	n/a	n/a	-999	4	[8, 8, 5]	21	catFR1	2	R1444D
558.347	0.0	570811	STOP	n/a	n/a	n/a	n/a	-999	4	[-999, -999, -999]	n/a	catFR1	2	R1444D
558.347	1.233	570813	DISTRACT_END	n/a	n/a	n/a	n/a	-999	4	[0, 0, 0]	n/a	catFR1	2	R1444D
559.58	1.272	572044	REC_START	n/a	n/a	n/a	n/a	-999	4	[0, 0, 0]	n/a	catFR1	2	R1444D
560.852	0.552	573316	REC_WORD	0.552	n/a	CHAIR	Furniture	12	4	[0, 0, 0]	n/a	catFR1	2	R1444D
561.404	1.356	573868	REC_WORD	1.356	n/a	SOFA	n/a	-999	4	[0, 0, 0]	n/a	catFR1	2	R1444D
562.76	1.566	575224	REC_WORD	1.566	n/a	SHELF	Furniture	6	4	[0, 0, 0]	n/a	catFR1	2	R1444D
564.326	2.2	576790	REC_WORD	2.2	n/a	STOVE	Appliances	9	4	[0, 0, 0]	n/a	catFR1	2	R1444D
566.526	2.293	578990	REC_WORD_VV	2.293	n/a	<>	n/a	-999	4	[0, 0, 0]	n/a	catFR1	2	R1444D
568.819	11.319	581283	REC_WORD_VV	11.319	n/a	<>	n/a	-999	4	[0, 0, 0]	n/a	catFR1	2	R1444D
580.138	1.343	592601	REC_WORD_VV	1.343	n/a	<>	n/a	-999	4	[0, 0, 0]	n/a	catFR1	2	R1444D
581.481	2.738	593944	REC_WORD	2.738	n/a	WATER	n/a	-999	4	[0, 0, 0]	n/a	catFR1	2	R1444D
584.219	6.573	596682	REC_WORD_VV	6.573	n/a	<>	n/a	-999	4	[0, 0, 0]	n/a	catFR1	2	R1444D
590.792	6.921	603248	REC_END	n/a	n/a	n/a	n/a	-999	4	[0, 0, 0]	n/a	catFR1	2	R1444D
597.713	10.35	610179	COUNTDOWN_START	n/a	n/a	n/a	n/a	-999	4	[0, 0, 0]	n/a	catFR1	2	R1444D
608.063	0.0	620526	COUNTDOWN_END	n/a	n/a	n/a	n/a	-999	4	[0, 0, 0]	n/a	catFR1	2	R1444D
608.063	2.0	620526	ENCODING_START	n/a	n/a	n/a	n/a	-999	5	[0, 0, 0]	n/a	catFR1	2	R1444D
610.063	1.6	622523	WORD	n/a	wordpools/wordpool_categorized_EN.txt	HUMIDITY	Weather	1	5	[0, 0, 0]	n/a	catFR1	2	R1444D
611.663	0.833	624118	WORD_OFF	n/a	n/a	HUMIDITY	Weather	1	5	[0, 0, 0]	n/a	catFR1	2	R1444D
612.496	1.617	624959	WORD	n/a	wordpools/wordpool_categorized_EN.txt	RAIN	Weather	2	5	[0, 0, 0]	n/a	catFR1	2	R1444D
614.113	0.951	626566	WORD_OFF	n/a	n/a	RAIN	Weather	2	5	[0, 0, 0]	n/a	catFR1	2	R1444D
615.064	1.599	627521	WORD	n/a	wordpools/wordpool_categorized_EN.txt	HAND	BodyParts	3	5	[0, 0, 0]	n/a	catFR1	2	R1444D
616.663	0.934	629115	WORD_OFF	n/a	n/a	HAND	BodyParts	3	5	[0, 0, 0]	n/a	catFR1	2	R1444D
617.597	1.6	630057	WORD	n/a	wordpools/wordpool_categorized_EN.txt	TOE	BodyParts	4	5	[0, 0, 0]	n/a	catFR1	2	R1444D
619.197	0.9	631652	WORD_OFF	n/a	n/a	TOE	BodyParts	4	5	[0, 0, 0]	n/a	catFR1	2	R1444D
620.097	1.615	632556	WORD	n/a	wordpools/wordpool_categorized_EN.txt	BLUEBERRY	Fruit	5	5	[0, 0, 0]	n/a	catFR1	2	R1444D
621.712	0.785	634176	WORD_OFF	n/a	n/a	BLUEBERRY	Fruit	5	5	[0, 0, 0]	n/a	catFR1	2	R1444D
622.497	1.6	634954	WORD	n/a	wordpools/wordpool_categorized_EN.txt	LEMON	Fruit	6	5	[0, 0, 0]	n/a	catFR1	2	R1444D
624.097	0.849	636549	WORD_OFF	n/a	n/a	LEMON	Fruit	6	5	[0, 0, 0]	n/a	catFR1	2	R1444D
624.946	1.6	637403	WORD	n/a	wordpools/wordpool_categorized_EN.txt	THUNDER	Weather	7	5	[0, 0, 0]	n/a	catFR1	2	R1444D
626.546	0.984	639010	WORD_OFF	n/a	n/a	THUNDER	Weather	7	5	[0, 0, 0]	n/a	catFR1	2	R1444D
627.53	1.6	639990	WORD	n/a	wordpools/wordpool_categorized_EN.txt	WIND	Weather	8	5	[0, 0, 0]	n/a	catFR1	2	R1444D
629.13	0.9	641584	WORD_OFF	n/a	n/a	WIND	Weather	8	5	[0, 0, 0]	n/a	catFR1	2	R1444D
630.03	1.617	642489	WORD	n/a	wordpools/wordpool_categorized_EN.txt	HEAD	BodyParts	9	5	[0, 0, 0]	n/a	catFR1	2	R1444D
631.647	1.0	644108	WORD_OFF	n/a	n/a	HEAD	BodyParts	9	5	[0, 0, 0]	n/a	catFR1	2	R1444D
632.647	1.616	645100	WORD	n/a	wordpools/wordpool_categorized_EN.txt	FINGERS	BodyParts	10	5	[0, 0, 0]	n/a	catFR1	2	R1444D
634.263	0.867	646720	WORD_OFF	n/a	n/a	FINGERS	BodyParts	10	5	[0, 0, 0]	n/a	catFR1	2	R1444D
635.13	1.6	647587	WORD	n/a	wordpools/wordpool_categorized_EN.txt	LIME	Fruit	11	5	[0, 0, 0]	n/a	catFR1	2	R1444D
636.73	0.85	649181	WORD_OFF	n/a	n/a	LIME	Fruit	11	5	[0, 0, 0]	n/a	catFR1	2	R1444D
637.58	1.617	650035	WORD	n/a	wordpools/wordpool_categorized_EN.txt	GRAPE	Fruit	12	5	[0, 0, 0]	n/a	catFR1	2	R1444D
639.197	0.001	651655	WORD_OFF	n/a	n/a	GRAPE	Fruit	12	5	[0, 0, 0]	n/a	catFR1	2	R1444D
639.198	0.0	651655	ENCODING_END	n/a	n/a	n/a	n/a	-999	5	[0, 0, 0]	n/a	catFR1	2	R1444D
639.198	0.0	651655	DISTRACT_START	n/a	n/a	n/a	n/a	-999	5	[0, 0, 0]	n/a	catFR1	2	R1444D
639.197	0.001	651657	PROB	0.001	n/a	n/a	n/a	-999	5	[8, 7, 8]	23	catFR1	2	R1444D
639.198	33.182	651658	START	n/a	n/a	n/a	n/a	-999	5	[-999, -999, -999]	n/a	catFR1	2	R1444D
672.38	0.0	684831	DISTRACT_END	n/a	n/a	n/a	n/a	-999	5	[0, 0, 0]	n/a	catFR1	2	R1444D
672.38	1.216	684838	STOP	n/a	n/a	n/a	n/a	-999	5	[-999, -999, -999]	n/a	catFR1	2	R1444D
673.596	0.665	686049	REC_START	n/a	n/a	n/a	n/a	-999	5	[0, 0, 0]	n/a	catFR1	2	R1444D
674.261	1.0	686719	REC_WORD_VV	1.0	n/a	<>	n/a	-999	5	[0, 0, 0]	n/a	catFR1	2	R1444D
675.261	1.0	687719	REC_WORD_VV	1.0	n/a	<>	n/a	-999	5	[0, 0, 0]	n/a	catFR1	2	R1444D
676.261	1.0	688719	REC_WORD_VV	1.0	n/a	<>	n/a	-999	5	[0, 0, 0]	n/a	catFR1	2	R1444D
677.261	1.0	689719	REC_WORD_VV	1.0	n/a	<>	n/a	-999	5	[0, 0, 0]	n/a	catFR1	2	R1444D
678.261	2.788	690719	REC_WORD_VV	2.788	n/a	<>	n/a	-999	5	[0, 0, 0]	n/a	catFR1	2	R1444D
681.049	0.839	693507	REC_WORD	0.839	n/a	THUNDER	Weather	7	5	[0, 0, 0]	n/a	catFR1	2	R1444D
681.888	0.396	694346	REC_WORD	0.396	n/a	THUNDER	Weather	7	5	[0, 0, 0]	n/a	catFR1	2	R1444D
682.284	2.183	694742	REC_WORD	2.183	n/a	BALL	Toys	-999	5	[0, 0, 0]	n/a	catFR1	2	R1444D
684.467	1.563	696925	REC_WORD_VV	1.563	n/a	<>	n/a	-999	5	[0, 0, 0]	n/a	catFR1	2	R1444D
686.03	0.721	698488	REC_WORD	0.721	n/a	WEATHER	n/a	-999	5	[0, 0, 0]	n/a	catFR1	2	R1444D
686.751	1.122	699209	REC_WORD_VV	1.122	n/a	<>	n/a	-999	5	[0, 0, 0]	n/a	catFR1	2	R1444D
687.873	2.248	700331	REC_WORD	2.248	n/a	BALL	Toys	-999	5	[0, 0, 0]	n/a	catFR1	2	R1444D
690.121	2.149	702578	REC_WORD	2.149	n/a	LIGHTNING	n/a	-999	5	[0, 0, 0]	n/a	catFR1	2	R1444D
692.27	3.513	704727	REC_WORD_VV	3.513	n/a	<>	n/a	-999	5	[0, 0, 0]	n/a	catFR1	2	R1444D
695.783	1.364	708240	REC_WORD_VV	1.364	n/a	<>	n/a	-999	5	[0, 0, 0]	n/a	catFR1	2	R1444D
697.147	2.443	709604	REC_WORD	2.443	n/a	CHAIR	Furniture	-999	5	[0, 0, 0]	n/a	catFR1	2	R1444D
699.59	3.121	712047	REC_WORD	3.121	n/a	BED	n/a	-999	5	[0, 0, 0]	n/a	catFR1	2	R1444D
702.711	2.067	715168	REC_WORD_VV	2.067	n/a	<>	n/a	-999	5	[0, 0, 0]	n/a	catFR1	2	R1444D
704.778	9.202	717228	REC_END	n/a	n/a	n/a	n/a	-999	5	[0, 0, 0]	n/a	catFR1	2	R1444D
713.98	10.35	726432	COUNTDOWN_START	n/a	n/a	n/a	n/a	-999	5	[0, 0, 0]	n/a	catFR1	2	R1444D
724.33	0.0	736779	COUNTDOWN_END	n/a	n/a	n/a	n/a	-999	5	[0, 0, 0]	n/a	catFR1	2	R1444D
724.33	2.183	736791	ENCODING_START	n/a	n/a	n/a	n/a	-999	6	[0, 0, 0]	n/a	catFR1	2	R1444D
726.513	1.616	738964	WORD	n/a	wordpools/wordpool_categorized_EN.txt	NOSE	BodyParts	1	6	[0, 0, 0]	n/a	catFR1	2	R1444D
728.129	1.001	740583	WORD_OFF	n/a	n/a	NOSE	BodyParts	1	6	[0, 0, 0]	n/a	catFR1	2	R1444D
729.13	1.618	741588	WORD	n/a	wordpools/wordpool_categorized_EN.txt	KNEE	BodyParts	2	6	[0, 0, 0]	n/a	catFR1	2	R1444D
730.748	0.965	743195	WORD_OFF	n/a	n/a	KNEE	BodyParts	2	6	[0, 0, 0]	n/a	catFR1	2	R1444D
731.713	1.6	744162	WORD	n/a	wordpools/wordpool_categorized_EN.txt	LIGHTNING	Weather	3	6	[0, 0, 0]	n/a	catFR1	2	R1444D
733.313	0.951	745769	WORD_OFF	n/a	n/a	LIGHTNING	Weather	3	6	[0, 0, 0]	n/a	catFR1	2	R1444D
734.264	1.616	746711	WORD	n/a	wordpools/wordpool_categorized_EN.txt	HURRICANE	Weather	4	6	[0, 0, 0]	n/a	catFR1	2	R1444D
735.88	0.883	748331	WORD_OFF	n/a	n/a	HURRICANE	Weather	4	6	[0, 0, 0]	n/a	catFR1	2	R1444D
736.763	1.6	749210	WORD	n/a	wordpools/wordpool_categorized_EN.txt	JELLO	Desserts	5	6	[0, 0, 0]	n/a	catFR1	2	R1444D
738.363	0.834	750817	WORD_OFF	n/a	n/a	JELLO	Desserts	5	6	[0, 0, 0]	n/a	catFR1	2	R1444D
739.197	1.6	751646	WORD	n/a	wordpools/wordpool_categorized_EN.txt	BROWNIES	Desserts	6	6	[0, 0, 0]	n/a	catFR1	2	R1444D
740.797	0.8	753253	WORD_OFF	n/a	n/a	BROWNIES	Desserts	6	6	[0, 0, 0]	n/a	catFR1	2	R1444D
741.597	1.616	754044	WORD	n/a	wordpools/wordpool_categorized_EN.txt	ELBOW	BodyParts	7	6	[0, 0, 0]	n/a	catFR1	2	R1444D
743.213	1.0	755664	WORD_OFF	n/a	n/a	ELBOW	BodyParts	7	6	[0, 0, 0]	n/a	catFR1	2	R1444D
744.213	1.6	756669	WORD	n/a	wordpools/wordpool_categorized_EN.txt	LEG	BodyParts	8	6	[0, 0, 0]	n/a	catFR1	2	R1444D
745.813	0.834	758264	WORD_OFF	n/a	n/a	LEG	BodyParts	8	6	[0, 0, 0]	n/a	catFR1	2	R1444D
746.647	1.616	759092	WORD	n/a	wordpools/wordpool_categorized_EN.txt	CHEESECAKE	Desserts	9	6	[0, 0, 0]	n/a	catFR1	2	R1444D
748.263	0.867	760712	WORD_OFF	n/a	n/a	CHEESECAKE	Desserts	9	6	[0, 0, 0]	n/a	catFR1	2	R1444D
749.13	1.618	761579	WORD	n/a	wordpools/wordpool_categorized_EN.txt	COBBLER	Desserts	10	6	[0, 0, 0]	n/a	catFR1	2	R1444D
750.748	1.0	763198	WORD_OFF	n/a	n/a	COBBLER	Desserts	10	6	[0, 0, 0]	n/a	catFR1	2	R1444D
751.748	1.615	764203	WORD	n/a	wordpools/wordpool_categorized_EN.txt	FOG	Weather	11	6	[0, 0, 0]	n/a	catFR1	2	R1444D
753.363	0.834	765810	WORD_OFF	n/a	n/a	FOG	Weather	11	6	[0, 0, 0]	n/a	catFR1	2	R1444D
754.197	1.6	766652	WORD	n/a	wordpools/wordpool_categorized_EN.txt	TORNADO	Weather	12	6	[0, 0, 0]	n/a	catFR1	2	R1444D
755.797	0.001	768246	WORD_OFF	n/a	n/a	TORNADO	Weather	12	6	[0, 0, 0]	n/a	catFR1	2	R1444D
755.798	0.0	768246	ENCODING_END	n/a	n/a	n/a	n/a	-999	6	[0, 0, 0]	n/a	catFR1	2	R1444D
755.798	0.0	768246	DISTRACT_START	n/a	n/a	n/a	n/a	-999	6	[0, 0, 0]	n/a	catFR1	2	R1444D
755.797	0.001	768251	PROB	0.001	n/a	n/a	n/a	-999	6	[8, 5, 3]	16	catFR1	2	R1444D
755.798	14.25	768252	START	n/a	n/a	n/a	n/a	-999	6	[-999, -999, -999]	n/a	catFR1	2	R1444D
770.048	5.765	782501	PROB	5.765	n/a	n/a	n/a	-999	6	[3, 5, 2]	10	catFR1	2	R1444D
775.813	0.0	788262	DISTRACT_END	n/a	n/a	n/a	n/a	-999	6	[0, 0, 0]	n/a	catFR1	2	R1444D
775.813	1.3	788266	STOP	n/a	n/a	n/a	n/a	-999	6	[-999, -999, -999]	n/a	catFR1	2	R1444D
777.113	0.054	789568	REC_START	n/a	n/a	n/a	n/a	-999	6	[0, 0, 0]	n/a	catFR1	2	R1444D
777.167	1.0	789620	REC_WORD_VV	1.0	n/a	<>	n/a	-999	6	[0, 0, 0]	n/a	catFR1	2	R1444D
778.167	1.0	790620	REC_WORD_VV	1.0	n/a	<>	n/a	-999	6	[0, 0, 0]	n/a	catFR1	2	R1444D
779.167	1.0	791620	REC_WORD_VV	1.0	n/a	<>	n/a	-999	6	[0, 0, 0]	n/a	catFR1	2	R1444D
780.167	1.435	792620	REC_WORD_VV	1.435	n/a	<>	n/a	-999	6	[0, 0, 0]	n/a	catFR1	2	R1444D
781.602	1.061	794055	REC_WORD	1.061	n/a	KNEE	BodyParts	2	6	[0, 0, 0]	n/a	catFR1	2	R1444D
782.663	0.275	795115	REC_WORD_VV	0.275	n/a	<>	n/a	-999	6	[0, 0, 0]	n/a	catFR1	2	R1444D
782.938	2.482	795390	REC_WORD	2.482	n/a	KNEE	BodyParts	2	6	[0, 0, 0]	n/a	catFR1	2	R1444D
785.42	1.0	797872	REC_WORD_VV	1.0	n/a	<>	n/a	-999	6	[0, 0, 0]	n/a	catFR1	2	R1444D
786.42	1.0	798872	REC_WORD_VV	1.0	n/a	<>	n/a	-999	6	[0, 0, 0]	n/a	catFR1	2	R1444D
787.42	2.597	799872	REC_WORD_VV	2.597	n/a	<>	n/a	-999	6	[0, 0, 0]	n/a	catFR1	2	R1444D
790.017	1.51	802469	REC_WORD_VV	1.51	n/a	<>	n/a	-999	6	[0, 0, 0]	n/a	catFR1	2	R1444D
791.527	3.138	803979	REC_WORD	3.138	n/a	TRAIN	n/a	-999	6	[0, 0, 0]	n/a	catFR1	2	R1444D
794.665	6.033	807117	REC_WORD_VV	6.033	n/a	<>	n/a	-999	6	[0, 0, 0]	n/a	catFR1	2	R1444D
800.698	1.04	813150	REC_WORD_VV	1.04	n/a	<>	n/a	-999	6	[0, 0, 0]	n/a	catFR1	2	R1444D
801.738	0.217	814189	REC_WORD	0.217	n/a	KNEE	BodyParts	2	6	[0, 0, 0]	n/a	catFR1	2	R1444D
801.955	0.634	814406	REC_WORD	0.634	n/a	WINE	n/a	-999	6	[0, 0, 0]	n/a	catFR1	2	R1444D
802.589	1.219	815040	REC_WORD	1.219	n/a	ELBOW	BodyParts	7	6	[0, 0, 0]	n/a	catFR1	2	R1444D
803.808	1.19	816259	REC_WORD_VV	1.19	n/a	<>	n/a	-999	6	[0, 0, 0]	n/a	catFR1	2	R1444D
804.998	1.672	817449	REC_WORD	1.672	n/a	KNIFE	KitchenTools	-999	6	[0, 0, 0]	n/a	catFR1	2	R1444D
806.67	1.619	819121	REC_WORD_VV	1.619	n/a	<>	n/a	-999	6	[0, 0, 0]	n/a	catFR1	2	R1444D
808.289	6.074	820734	REC_END	n/a	n/a	n/a	n/a	-999	6	[0, 0, 0]	n/a	catFR1	2	R1444D
814.363	10.35	826812	COUNTDOWN_START	n/a	n/a	n/a	n/a	-999	6	[0, 0, 0]	n/a	catFR1	2	R1444D
824.713	0.0	837159	COUNTDOWN_END	n/a	n/a	n/a	n/a	-999	6	[0, 0, 0]	n/a	catFR1	2	R1444D
824.713	2.284	837159	ENCODING_START	n/a	n/a	n/a	n/a	-999	7	[0, 0, 0]	n/a	catFR1	2	R1444D
826.997	1.616	839444	WORD	n/a	wordpools/wordpool_categorized_EN.txt	ERASER	OfficeSupplies	1	7	[0, 0, 0]	n/a	catFR1	2	R1444D
828.613	1.0	841064	WORD_OFF	n/a	n/a	ERASER	OfficeSupplies	1	7	[0, 0, 0]	n/a	catFR1	2	R1444D
829.613	1.6	842056	WORD	n/a	wordpools/wordpool_categorized_EN.txt	PEN	OfficeSupplies	2	7	[0, 0, 0]	n/a	catFR1	2	R1444D
831.213	1.001	843663	WORD_OFF	n/a	n/a	PEN	OfficeSupplies	2	7	[0, 0, 0]	n/a	catFR1	2	R1444D
832.214	1.616	844655	WORD	n/a	wordpools/wordpool_categorized_EN.txt	GORILLA	Zoo	3	7	[0, 0, 0]	n/a	catFR1	2	R1444D
833.83	0.95	846275	WORD_OFF	n/a	n/a	GORILLA	Zoo	3	7	[0, 0, 0]	n/a	catFR1	2	R1444D
834.78	1.617	847230	WORD	n/a	wordpools/wordpool_categorized_EN.txt	BEAR	Zoo	4	7	[0, 0, 0]	n/a	catFR1	2	R1444D
836.397	0.816	848849	WORD_OFF	n/a	n/a	BEAR	Zoo	4	7	[0, 0, 0]	n/a	catFR1	2	R1444D
837.213	1.6	849653	WORD	n/a	wordpools/wordpool_categorized_EN.txt	BLOCKS	Toys	5	7	[0, 0, 0]	n/a	catFR1	2	R1444D
838.813	0.934	851260	WORD_OFF	n/a	n/a	BLOCKS	Toys	5	7	[0, 0, 0]	n/a	catFR1	2	R1444D
839.747	1.616	852190	WORD	n/a	wordpools/wordpool_categorized_EN.txt	DOLLHOUSE	Toys	6	7	[0, 0, 0]	n/a	catFR1	2	R1444D
841.363	0.9	853809	WORD_OFF	n/a	n/a	DOLLHOUSE	Toys	6	7	[0, 0, 0]	n/a	catFR1	2	R1444D
842.263	1.6	854714	WORD	n/a	wordpools/wordpool_categorized_EN.txt	LION	Zoo	7	7	[0, 0, 0]	n/a	catFR1	2	R1444D
843.863	0.934	856308	WORD_OFF	n/a	n/a	LION	Zoo	7	7	[0, 0, 0]	n/a	catFR1	2	R1444D
844.797	1.6	857237	WORD	n/a	wordpools/wordpool_categorized_EN.txt	CHIMPANZEE	Zoo	8	7	[0, 0, 0]	n/a	catFR1	2	R1444D
846.397	1.0	858845	WORD_OFF	n/a	n/a	CHIMPANZEE	Zoo	8	7	[0, 0, 0]	n/a	catFR1	2	R1444D
847.397	1.616	859837	WORD	n/a	wordpools/wordpool_categorized_EN.txt	SLINKY	Toys	9	7	[0, 0, 0]	n/a	catFR1	2	R1444D
849.013	0.884	861457	WORD_OFF	n/a	n/a	SLINKY	Toys	9	7	[0, 0, 0]	n/a	catFR1	2	R1444D
849.897	1.616	862348	WORD	n/a	wordpools/wordpool_categorized_EN.txt	FRISBEE	Toys	10	7	[0, 0, 0]	n/a	catFR1	2	R1444D
851.513	0.934	863955	WORD_OFF	n/a	n/a	FRISBEE	Toys	10	7	[0, 0, 0]	n/a	catFR1	2	R1444D
852.447	1.616	864897	WORD	n/a	wordpools/wordpool_categorized_EN.txt	GLUE	OfficeSupplies	11	7	[0, 0, 0]	n/a	catFR1	2	R1444D
854.063	0.949	866505	WORD_OFF	n/a	n/a	GLUE	OfficeSupplies	11	7	[0, 0, 0]	n/a	catFR1	2	R1444D
855.012	1.601	867459	WORD	n/a	wordpools/wordpool_categorized_EN.txt	PAPER	OfficeSupplies	12	7	[0, 0, 0]	n/a	catFR1	2	R1444D
856.613	0.001	869054	WORD_OFF	n/a	n/a	PAPER	OfficeSupplies	12	7	[0, 0, 0]	n/a	catFR1	2	R1444D
856.614	0.001	869063	PROB	0.001	n/a	n/a	n/a	-999	7	[3, 3, 2]	8	catFR1	2	R1444D
856.615	0.0	869064	START	n/a	n/a	n/a	n/a	-999	7	[-999, -999, -999]	n/a	catFR1	2	R1444D
856.615	0.0	869066	ENCODING_END	n/a	n/a	n/a	n/a	-999	7	[0, 0, 0]	n/a	catFR1	2	R1444D
856.615	11.882	869066	DISTRACT_START	n/a	n/a	n/a	n/a	-999	7	[0, 0, 0]	n/a	catFR1	2	R1444D
868.497	3.617	880945	PROB	3.617	n/a	n/a	n/a	-999	7	[2, 2, 1]	5	catFR1	2	R1444D
872.114	6.432	884562	PROB	6.432	n/a	n/a	n/a	-999	7	[5, 8, 4]	17	catFR1	2	R1444D
878.546	0.0	890991	DISTRACT_END	n/a	n/a	n/a	n/a	-999	7	[0, 0, 0]	n/a	catFR1	2	R1444D
878.546	1.15	890993	STOP	n/a	n/a	n/a	n/a	-999	7	[-999, -999, -999]	n/a	catFR1	2	R1444D
879.696	0.0	892143	REC_WORD_VV	0.0	n/a	<>	n/a	-999	7	[0, 0, 0]	n/a	catFR1	2	R1444D
879.696	0.57	892146	REC_START	n/a	n/a	n/a	n/a	-999	7	[0, 0, 0]	n/a	catFR1	2	R1444D
880.266	1.379	892713	REC_WORD	1.379	n/a	PAPER	OfficeSupplies	12	7	[0, 0, 0]	n/a	catFR1	2	R1444D
881.645	1.0	894092	REC_WORD_VV	1.0	n/a	<>	n/a	-999	7	[0, 0, 0]	n/a	catFR1	2	R1444D
882.645	0.871	895092	REC_WORD_VV	0.871	n/a	<>	n/a	-999	7	[0, 0, 0]	n/a	catFR1	2	R1444D
883.516	1.828	895963	REC_WORD	1.828	n/a	CHIMPANZEE	Zoo	8	7	[0, 0, 0]	n/a	catFR1	2	R1444D
885.344	3.004	897791	REC_WORD_VV	3.004	n/a	<>	n/a	-999	7	[0, 0, 0]	n/a	catFR1	2	R1444D
888.348	1.133	900795	REC_WORD_VV	1.133	n/a	<>	n/a	-999	7	[0, 0, 0]	n/a	catFR1	2	R1444D
889.481	1.901	901928	REC_WORD	1.901	n/a	SHOES	Clothing	-999	7	[0, 0, 0]	n/a	catFR1	2	R1444D
891.382	1.0	903829	REC_WORD_VV	1.0	n/a	<>	n/a	-999	7	[0, 0, 0]	n/a	catFR1	2	R1444D
892.382	1.357	904829	REC_WORD_VV	1.357	n/a	<>	n/a	-999	7	[0, 0, 0]	n/a	catFR1	2	R1444D
893.739	0.484	906186	REC_WORD	0.484	n/a	SHOES	Clothing	-999	7	[0, 0, 0]	n/a	catFR1	2	R1444D
894.223	1.59	906670	REC_WORD	1.59	n/a	KNIFE	KitchenTools	-999	7	[0, 0, 0]	n/a	catFR1	2	R1444D
895.813	3.892	908259	REC_WORD_VV	3.892	n/a	<>	n/a	-999	7	[0, 0, 0]	n/a	catFR1	2	R1444D
899.705	3.284	912151	REC_WORD	3.284	n/a	GLUE	OfficeSupplies	11	7	[0, 0, 0]	n/a	catFR1	2	R1444D
902.989	4.07	915435	REC_WORD_VV	4.07	n/a	<>	n/a	-999	7	[0, 0, 0]	n/a	catFR1	2	R1444D
907.059	3.809	919505	REC_WORD_VV	3.809	n/a	<>	n/a	-999	7	[0, 0, 0]	n/a	catFR1	2	R1444D
910.868	18.529	923312	REC_END	n/a	n/a	n/a	n/a	-999	7	[0, 0, 0]	n/a	catFR1	2	R1444D
929.397	10.349	941834	COUNTDOWN_START	n/a	n/a	n/a	n/a	-999	7	[0, 0, 0]	n/a	catFR1	2	R1444D
939.746	0.0	952193	COUNTDOWN_END	n/a	n/a	n/a	n/a	-999	7	[0, 0, 0]	n/a	catFR1	2	R1444D
939.746	1.984	952193	ENCODING_START	n/a	n/a	n/a	n/a	-999	8	[0, 0, 0]	n/a	catFR1	2	R1444D
941.73	1.6	954165	WORD	n/a	wordpools/wordpool_categorized_EN.txt	APPLE	Fruit	1	8	[0, 0, 0]	n/a	catFR1	2	R1444D
943.33	0.783	955772	WORD_OFF	n/a	n/a	APPLE	Fruit	1	8	[0, 0, 0]	n/a	catFR1	2	R1444D
944.113	1.6	956550	WORD	n/a	wordpools/wordpool_categorized_EN.txt	BANANA	Fruit	2	8	[0, 0, 0]	n/a	catFR1	2	R1444D
945.713	0.934	958158	WORD_OFF	n/a	n/a	BANANA	Fruit	2	8	[0, 0, 0]	n/a	catFR1	2	R1444D
946.647	1.6	959087	WORD	n/a	wordpools/wordpool_categorized_EN.txt	CAULIFLOWER	Vegetables	3	8	[0, 0, 0]	n/a	catFR1	2	R1444D
948.247	0.95	960682	WORD_OFF	n/a	n/a	CAULIFLOWER	Vegetables	3	8	[0, 0, 0]	n/a	catFR1	2	R1444D
949.197	1.616	961636	WORD	n/a	wordpools/wordpool_categorized_EN.txt	CABBAGE	Vegetables	4	8	[0, 0, 0]	n/a	catFR1	2	R1444D
950.813	0.9	963256	WORD_OFF	n/a	n/a	CABBAGE	Vegetables	4	8	[0, 0, 0]	n/a	catFR1	2	R1444D
951.713	1.601	964147	WORD	n/a	wordpools/wordpool_categorized_EN.txt	FUDGE	Desserts	5	8	[0, 0, 0]	n/a	catFR1	2	R1444D
953.314	0.899	965755	WORD_OFF	n/a	n/a	FUDGE	Desserts	5	8	[0, 0, 0]	n/a	catFR1	2	R1444D
954.213	1.6	966659	WORD	n/a	wordpools/wordpool_categorized_EN.txt	PASTRY	Desserts	6	8	[0, 0, 0]	n/a	catFR1	2	R1444D
955.813	0.817	968253	WORD_OFF	n/a	n/a	PASTRY	Desserts	6	8	[0, 0, 0]	n/a	catFR1	2	R1444D
956.63	1.616	969070	WORD	n/a	wordpools/wordpool_categorized_EN.txt	CARROT	Vegetables	7	8	[0, 0, 0]	n/a	catFR1	2	R1444D
958.246	0.916	970690	WORD_OFF	n/a	n/a	CARROT	Vegetables	7	8	[0, 0, 0]	n/a	catFR1	2	R1444D
959.162	1.601	971606	WORD	n/a	wordpools/wordpool_categorized_EN.txt	ONION	Vegetables	8	8	[0, 0, 0]	n/a	catFR1	2	R1444D
960.763	0.916	973201	WORD_OFF	n/a	n/a	ONION	Vegetables	8	8	[0, 0, 0]	n/a	catFR1	2	R1444D
961.679	1.601	974118	WORD	n/a	wordpools/wordpool_categorized_EN.txt	ORANGE	Fruit	9	8	[0, 0, 0]	n/a	catFR1	2	R1444D
963.28	0.966	975725	WORD_OFF	n/a	n/a	ORANGE	Fruit	9	8	[0, 0, 0]	n/a	catFR1	2	R1444D
964.246	1.617	976679	WORD	n/a	wordpools/wordpool_categorized_EN.txt	STRAWBERRY	Fruit	10	8	[0, 0, 0]	n/a	catFR1	2	R1444D
965.863	0.766	978299	WORD_OFF	n/a	n/a	STRAWBERRY	Fruit	10	8	[0, 0, 0]	n/a	catFR1	2	R1444D
966.629	1.601	979065	WORD	n/a	wordpools/wordpool_categorized_EN.txt	MOUSSE	Desserts	11	8	[0, 0, 0]	n/a	catFR1	2	R1444D
968.23	0.9	980672	WORD_OFF	n/a	n/a	MOUSSE	Desserts	11	8	[0, 0, 0]	n/a	catFR1	2	R1444D
969.13	1.616	981564	WORD	n/a	wordpools/wordpool_categorized_EN.txt	CUPCAKE	Desserts	12	8	[0, 0, 0]	n/a	catFR1	2	R1444D
970.746	0.001	983184	WORD_OFF	n/a	n/a	CUPCAKE	Desserts	12	8	[0, 0, 0]	n/a	catFR1	2	R1444D
970.747	0.0	983184	ENCODING_END	n/a	n/a	n/a	n/a	-999	8	[0, 0, 0]	n/a	catFR1	2	R1444D
970.747	0.0	983184	DISTRACT_START	n/a	n/a	n/a	n/a	-999	8	[0, 0, 0]	n/a	catFR1	2	R1444D
970.746	0.001	983188	PROB	0.001	n/a	n/a	n/a	-999	8	[7, 7, 1]	15	catFR1	2	R1444D
970.747	7.617	983189	START	n/a	n/a	n/a	n/a	-999	8	[-999, -999, -999]	n/a	catFR1	2	R1444D
978.364	4.366	990806	PROB	4.366	n/a	n/a	n/a	-999	8	[4, 4, 1]	9	catFR1	2	R1444D
982.73	6.951	995172	PROB	6.951	n/a	n/a	n/a	-999	8	[3, 2, 4]	9	catFR1	2	R1444D
989.681	8.581	1002122	PROB	8.581	n/a	n/a	n/a	-999	8	[6, 8, 1]	15	catFR1	2	R1444D
998.262	0.0	1010696	DISTRACT_END	n/a	n/a	n/a	n/a	-999	8	[0, 0, 0]	n/a	catFR1	2	R1444D
998.262	1.401	1010703	STOP	n/a	n/a	n/a	n/a	-999	8	[-999, -999, -999]	n/a	catFR1	2	R1444D
999.663	3.356	1012102	REC_START	n/a	n/a	n/a	n/a	-999	8	[0, 0, 0]	n/a	catFR1	2	R1444D
1003.019	1.562	1015460	REC_WORD_VV	1.562	n/a	<>	n/a	-999	8	[0, 0, 0]	n/a	catFR1	2	R1444D
1004.581	1.565	1017022	REC_WORD	1.565	n/a	APPLE	Fruit	1	8	[0, 0, 0]	n/a	catFR1	2	R1444D
1006.146	0.468	1018587	REC_WORD	0.468	n/a	CAKE	n/a	-999	8	[0, 0, 0]	n/a	catFR1	2	R1444D
1006.614	1.0	1019055	REC_WORD_VV	1.0	n/a	<>	n/a	-999	8	[0, 0, 0]	n/a	catFR1	2	R1444D
1007.614	0.797	1020054	REC_WORD_VV	0.797	n/a	<>	n/a	-999	8	[0, 0, 0]	n/a	catFR1	2	R1444D
1008.411	1.327	1020851	REC_WORD	1.327	n/a	CHEESECAKE	Desserts	-999	8	[0, 0, 0]	n/a	catFR1	2	R1444D
1009.738	0.583	1022178	REC_WORD_VV	0.583	n/a	<>	n/a	-999	8	[0, 0, 0]	n/a	catFR1	2	R1444D
1010.321	1.579	1022761	REC_WORD	1.579	n/a	MOUSSE	Desserts	11	8	[0, 0, 0]	n/a	catFR1	2	R1444D
1011.9	2.36	1024340	REC_WORD_VV	2.36	n/a	<>	n/a	-999	8	[0, 0, 0]	n/a	catFR1	2	R1444D
1014.26	2.283	1026700	REC_WORD	2.283	n/a	MOUSSE	Desserts	11	8	[0, 0, 0]	n/a	catFR1	2	R1444D
1016.543	5.288	1028983	REC_WORD_VV	5.288	n/a	<>	n/a	-999	8	[0, 0, 0]	n/a	catFR1	2	R1444D
1021.831	1.762	1034271	REC_WORD	1.762	n/a	MOUSSE	Desserts	11	8	[0, 0, 0]	n/a	catFR1	2	R1444D
1023.593	0.31	1036033	REC_WORD	0.31	n/a	APPLE	Fruit	1	8	[0, 0, 0]	n/a	catFR1	2	R1444D
1023.903	0.405	1036343	REC_WORD	0.405	n/a	CAKE	n/a	-999	8	[0, 0, 0]	n/a	catFR1	2	R1444D
1024.308	1.425	1036748	REC_WORD_VV	1.425	n/a	<>	n/a	-999	8	[0, 0, 0]	n/a	catFR1	2	R1444D
1025.733	3.649	1038173	REC_WORD_VV	3.649	n/a	<>	n/a	-999	8	[0, 0, 0]	n/a	catFR1	2	R1444D
1029.382	1.462	1041821	REC_WORD	1.462	n/a	APPLE	Fruit	1	8	[0, 0, 0]	n/a	catFR1	2	R1444D
1030.844	12.686	1043281	REC_END	n/a	n/a	n/a	n/a	-999	8	[0, 0, 0]	n/a	catFR1	2	R1444D
1043.53	10.349	1055964	COUNTDOWN_START	n/a	n/a	n/a	n/a	-999	8	[0, 0, 0]	n/a	catFR1	2	R1444D
1053.879	0.0	1066311	COUNTDOWN_END	n/a	n/a	n/a	n/a	-999	8	[0, 0, 0]	n/a	catFR1	2	R1444D
1053.879	2.201	1066311	ENCODING_START	n/a	n/a	n/a	n/a	-999	9	[0, 0, 0]	n/a	catFR1	2	R1444D
1056.08	1.6	1068521	WORD	n/a	wordpools/wordpool_categorized_EN.txt	CROWBAR	Tools	1	9	[0, 0, 0]	n/a	catFR1	2	R1444D
1057.68	0.983	1070116	WORD_OFF	n/a	n/a	CROWBAR	Tools	1	9	[0, 0, 0]	n/a	catFR1	2	R1444D
1058.663	1.617	1071095	WORD	n/a	wordpools/wordpool_categorized_EN.txt	HAMMER	Tools	2	9	[0, 0, 0]	n/a	catFR1	2	R1444D
1060.28	0.817	1072715	WORD_OFF	n/a	n/a	HAMMER	Tools	2	9	[0, 0, 0]	n/a	catFR1	2	R1444D
1061.097	1.6	1073531	WORD	n/a	wordpools/wordpool_categorized_EN.txt	CALCULATOR	Electronics	3	9	[0, 0, 0]	n/a	catFR1	2	R1444D
1062.697	0.765	1075126	WORD_OFF	n/a	n/a	CALCULATOR	Electronics	3	9	[0, 0, 0]	n/a	catFR1	2	R1444D
1063.462	1.617	1075892	WORD	n/a	wordpools/wordpool_categorized_EN.txt	TABLET	Electronics	4	9	[0, 0, 0]	n/a	catFR1	2	R1444D
1065.079	0.95	1077512	WORD_OFF	n/a	n/a	TABLET	Electronics	4	9	[0, 0, 0]	n/a	catFR1	2	R1444D
1066.029	1.6	1078466	WORD	n/a	wordpools/wordpool_categorized_EN.txt	NOTEBOOK	OfficeSupplies	5	9	[0, 0, 0]	n/a	catFR1	2	R1444D
1067.629	1.001	1080061	WORD_OFF	n/a	n/a	NOTEBOOK	OfficeSupplies	5	9	[0, 0, 0]	n/a	catFR1	2	R1444D
1068.63	1.6	1081065	WORD	n/a	wordpools/wordpool_categorized_EN.txt	MARKER	OfficeSupplies	6	9	[0, 0, 0]	n/a	catFR1	2	R1444D
1070.23	0.966	1082660	WORD_OFF	n/a	n/a	MARKER	OfficeSupplies	6	9	[0, 0, 0]	n/a	catFR1	2	R1444D
1071.196	1.601	1083627	WORD	n/a	wordpools/wordpool_categorized_EN.txt	SANDER	Tools	7	9	[0, 0, 0]	n/a	catFR1	2	R1444D
1072.797	0.95	1085234	WORD_OFF	n/a	n/a	SANDER	Tools	7	9	[0, 0, 0]	n/a	catFR1	2	R1444D
1073.747	1.6	1086176	WORD	n/a	wordpools/wordpool_categorized_EN.txt	RATCHET	Tools	8	9	[0, 0, 0]	n/a	catFR1	2	R1444D
1075.347	0.783	1087783	WORD_OFF	n/a	n/a	RATCHET	Tools	8	9	[0, 0, 0]	n/a	catFR1	2	R1444D
1076.13	1.617	1088562	WORD	n/a	wordpools/wordpool_categorized_EN.txt	MICROWAVE	Electronics	9	9	[0, 0, 0]	n/a	catFR1	2	R1444D
1077.747	0.864	1090181	WORD_OFF	n/a	n/a	MICROWAVE	Electronics	9	9	[0, 0, 0]	n/a	catFR1	2	R1444D
1078.611	1.602	1091048	WORD	n/a	wordpools/wordpool_categorized_EN.txt	SCANNER	Electronics	10	9	[0, 0, 0]	n/a	catFR1	2	R1444D
1080.213	0.883	1092643	WORD_OFF	n/a	n/a	SCANNER	Electronics	10	9	[0, 0, 0]	n/a	catFR1	2	R1444D
1081.096	1.617	1093534	WORD	n/a	wordpools/wordpool_categorized_EN.txt	PENCIL	OfficeSupplies	11	9	[0, 0, 0]	n/a	catFR1	2	R1444D
1082.713	0.884	1095141	WORD_OFF	n/a	n/a	PENCIL	OfficeSupplies	11	9	[0, 0, 0]	n/a	catFR1	2	R1444D
1083.597	1.6	1096033	WORD	n/a	wordpools/wordpool_categorized_EN.txt	TAPE	OfficeSupplies	12	9	[0, 0, 0]	n/a	catFR1	2	R1444D
1085.197	0.001	1097628	WORD_OFF	n/a	n/a	TAPE	OfficeSupplies	12	9	[0, 0, 0]	n/a	catFR1	2	R1444D
1085.198	0.0	1097628	ENCODING_END	n/a	n/a	n/a	n/a	-999	9	[0, 0, 0]	n/a	catFR1	2	R1444D
1085.198	0.0	1097628	DISTRACT_START	n/a	n/a	n/a	n/a	-999	9	[0, 0, 0]	n/a	catFR1	2	R1444D
1085.197	0.001	1097633	PROB	0.001	n/a	n/a	n/a	-999	9	[2, 5, 7]	14	catFR1	2	R1444D
1085.198	9.767	1097634	START	n/a	n/a	n/a	n/a	-999	9	[-999, -999, -999]	n/a	catFR1	2	R1444D
1094.965	15.315	1107401	PROB	15.315	n/a	n/a	n/a	-999	9	[8, 7, 6]	20	catFR1	2	R1444D
1110.28	0.0	1122715	STOP	n/a	n/a	n/a	n/a	-999	9	[-999, -999, -999]	n/a	catFR1	2	R1444D
1110.28	1.383	1122717	DISTRACT_END	n/a	n/a	n/a	n/a	-999	9	[0, 0, 0]	n/a	catFR1	2	R1444D
1111.663	0.691	1124098	REC_START	n/a	n/a	n/a	n/a	-999	9	[0, 0, 0]	n/a	catFR1	2	R1444D
1112.354	0.615	1124789	REC_WORD	0.615	n/a	RATCHET	Tools	8	9	[0, 0, 0]	n/a	catFR1	2	R1444D
1112.969	0.986	1125404	REC_WORD_VV	0.986	n/a	<>	n/a	-999	9	[0, 0, 0]	n/a	catFR1	2	R1444D
1113.955	0.805	1126390	REC_WORD	0.805	n/a	CROWBAR	Tools	1	9	[0, 0, 0]	n/a	catFR1	2	R1444D
1114.76	0.684	1127195	REC_WORD_VV	0.684	n/a	<>	n/a	-999	9	[0, 0, 0]	n/a	catFR1	2	R1444D
1115.444	1.265	1127879	REC_WORD	1.265	n/a	MALLET	n/a	-999	9	[0, 0, 0]	n/a	catFR1	2	R1444D
1116.709	1.936	1129144	REC_WORD_VV	1.936	n/a	<>	n/a	-999	9	[0, 0, 0]	n/a	catFR1	2	R1444D
1118.645	1.872	1131080	REC_WORD	1.872	n/a	TABLE	Furniture	-999	9	[0, 0, 0]	n/a	catFR1	2	R1444D
1120.517	3.958	1132951	REC_WORD_VV	3.958	n/a	<>	n/a	-999	9	[0, 0, 0]	n/a	catFR1	2	R1444D
1124.475	3.505	1136909	REC_WORD_VV	3.505	n/a	<>	n/a	-999	9	[0, 0, 0]	n/a	catFR1	2	R1444D
1127.98	1.094	1140414	REC_WORD_VV	1.094	n/a	<>	n/a	-999	9	[0, 0, 0]	n/a	catFR1	2	R1444D
1129.074	2.147	1141508	REC_WORD	2.147	n/a	MOUSSE	Desserts	-999	9	[0, 0, 0]	n/a	catFR1	2	R1444D
1131.221	2.402	1143655	REC_WORD_VV	2.402	n/a	<>	n/a	-999	9	[0, 0, 0]	n/a	catFR1	2	R1444D
1133.623	3.565	1146057	REC_WORD	3.565	n/a	MOUSSE	Desserts	-999	9	[0, 0, 0]	n/a	catFR1	2	R1444D
1137.188	5.661	1149622	REC_WORD_VV	5.661	n/a	<>	n/a	-999	9	[0, 0, 0]	n/a	catFR1	2	R1444D
1142.849	6.331	1155277	REC_END	n/a	n/a	n/a	n/a	-999	9	[0, 0, 0]	n/a	catFR1	2	R1444D
1149.18	10.35	1161605	COUNTDOWN_START	n/a	n/a	n/a	n/a	-999	9	[0, 0, 0]	n/a	catFR1	2	R1444D
1159.53	0.0	1171965	COUNTDOWN_END	n/a	n/a	n/a	n/a	-999	9	[0, 0, 0]	n/a	catFR1	2	R1444D
1159.53	1.95	1171965	ENCODING_START	n/a	n/a	n/a	n/a	-999	10	[0, 0, 0]	n/a	catFR1	2	R1444D
1161.48	1.617	1173911	WORD	n/a	wordpools/wordpool_categorized_EN.txt	BLOUSE	Clothing	1	10	[0, 0, 0]	n/a	catFR1	2	R1444D
1163.097	0.866	1175531	WORD_OFF	n/a	n/a	BLOUSE	Clothing	1	10	[0, 0, 0]	n/a	catFR1	2	R1444D
1163.963	1.617	1176398	WORD	n/a	wordpools/wordpool_categorized_EN.txt	SKIRT	Clothing	2	10	[0, 0, 0]	n/a	catFR1	2	R1444D
1165.58	0.849	1178005	WORD_OFF	n/a	n/a	SKIRT	Clothing	2	10	[0, 0, 0]	n/a	catFR1	2	R1444D
1166.429	1.601	1178859	WORD	n/a	wordpools/wordpool_categorized_EN.txt	SPATULA	KitchenTools	3	10	[0, 0, 0]	n/a	catFR1	2	R1444D
1168.03	0.8	1180453	WORD_OFF	n/a	n/a	SPATULA	KitchenTools	3	10	[0, 0, 0]	n/a	catFR1	2	R1444D
1168.83	1.616	1181257	WORD	n/a	wordpools/wordpool_categorized_EN.txt	COLANDER	KitchenTools	4	10	[0, 0, 0]	n/a	catFR1	2	R1444D
1170.446	0.784	1182877	WORD_OFF	n/a	n/a	COLANDER	KitchenTools	4	10	[0, 0, 0]	n/a	catFR1	2	R1444D
1171.23	1.6	1183655	WORD	n/a	wordpools/wordpool_categorized_EN.txt	SHOVEL	Tools	5	10	[0, 0, 0]	n/a	catFR1	2	R1444D
1172.83	0.949	1185263	WORD_OFF	n/a	n/a	SHOVEL	Tools	5	10	[0, 0, 0]	n/a	catFR1	2	R1444D
1173.779	1.601	1186205	WORD	n/a	wordpools/wordpool_categorized_EN.txt	PLIERS	Tools	6	10	[0, 0, 0]	n/a	catFR1	2	R1444D
1175.38	0.933	1187812	WORD_OFF	n/a	n/a	PLIERS	Tools	6	10	[0, 0, 0]	n/a	catFR1	2	R1444D
1176.313	1.6	1188741	WORD	n/a	wordpools/wordpool_categorized_EN.txt	JEANS	Clothing	7	10	[0, 0, 0]	n/a	catFR1	2	R1444D
1177.913	0.85	1190336	WORD_OFF	n/a	n/a	JEANS	Clothing	7	10	[0, 0, 0]	n/a	catFR1	2	R1444D
1178.763	1.6	1191190	WORD	n/a	wordpools/wordpool_categorized_EN.txt	SOCKS	Clothing	8	10	[0, 0, 0]	n/a	catFR1	2	R1444D
1180.363	1.0	1192797	WORD_OFF	n/a	n/a	SOCKS	Clothing	8	10	[0, 0, 0]	n/a	catFR1	2	R1444D
1181.363	1.617	1193789	WORD	n/a	wordpools/wordpool_categorized_EN.txt	LEVEL	Tools	9	10	[0, 0, 0]	n/a	catFR1	2	R1444D
1182.98	0.767	1195409	WORD_OFF	n/a	n/a	LEVEL	Tools	9	10	[0, 0, 0]	n/a	catFR1	2	R1444D
1183.747	1.6	1196175	WORD	n/a	wordpools/wordpool_categorized_EN.txt	SCREWDRIVER	Tools	10	10	[0, 0, 0]	n/a	catFR1	2	R1444D
1185.347	0.95	1197769	WORD_OFF	n/a	n/a	SCREWDRIVER	Tools	10	10	[0, 0, 0]	n/a	catFR1	2	R1444D
1186.297	1.616	1198724	WORD	n/a	wordpools/wordpool_categorized_EN.txt	FORK	KitchenTools	11	10	[0, 0, 0]	n/a	catFR1	2	R1444D
1187.913	0.801	1200344	WORD_OFF	n/a	n/a	FORK	KitchenTools	11	10	[0, 0, 0]	n/a	catFR1	2	R1444D
1188.714	1.615	1201147	WORD	n/a	wordpools/wordpool_categorized_EN.txt	PEELER	KitchenTools	12	10	[0, 0, 0]	n/a	catFR1	2	R1444D
1190.329	0.002	1202755	WORD_OFF	n/a	n/a	PEELER	KitchenTools	12	10	[0, 0, 0]	n/a	catFR1	2	R1444D
1190.331	0.0	1202755	ENCODING_END	n/a	n/a	n/a	n/a	-999	10	[0, 0, 0]	n/a	catFR1	2	R1444D
1190.33	0.001	1202761	PROB	0.001	n/a	n/a	n/a	-999	10	[4, 2, 1]	7	catFR1	2	R1444D
1190.331	0.0	1202762	START	n/a	n/a	n/a	n/a	-999	10	[-999, -999, -999]	n/a	catFR1	2	R1444D
1190.331	8.015	1202767	DISTRACT_START	n/a	n/a	n/a	n/a	-999	10	[0, 0, 0]	n/a	catFR1	2	R1444D
1198.346	5.284	1210776	PROB	5.284	n/a	n/a	n/a	-999	10	[5, 1, 3]	9	catFR1	2	R1444D
1203.63	7.066	1216060	PROB	7.066	n/a	n/a	n/a	-999	10	[7, 8, 3]	18	catFR1	2	R1444D
1210.696	0.0	1223122	DISTRACT_END	n/a	n/a	n/a	n/a	-999	10	[0, 0, 0]	n/a	catFR1	2	R1444D
1210.696	1.017	1223126	STOP	n/a	n/a	n/a	n/a	-999	10	[-999, -999, -999]	n/a	catFR1	2	R1444D
1211.713	0.0	1224139	REC_START	n/a	n/a	n/a	n/a	-999	10	[0, 0, 0]	n/a	catFR1	2	R1444D
1211.713	1.119	1224143	REC_WORD	1.119	n/a	SCREWDRIVER	Tools	10	10	[0, 0, 0]	n/a	catFR1	2	R1444D
1212.832	0.701	1225262	REC_WORD_VV	0.701	n/a	<>	n/a	-999	10	[0, 0, 0]	n/a	catFR1	2	R1444D
1213.533	2.013	1225963	REC_WORD	2.013	n/a	CORK	n/a	-999	10	[0, 0, 0]	n/a	catFR1	2	R1444D
1215.546	1.86	1227975	REC_WORD_VV	1.86	n/a	<>	n/a	-999	10	[0, 0, 0]	n/a	catFR1	2	R1444D
1217.406	0.432	1229835	REC_WORD	0.432	n/a	CORK	n/a	-999	10	[0, 0, 0]	n/a	catFR1	2	R1444D
1217.838	1.509	1230267	REC_WORD_VV	1.509	n/a	<>	n/a	-999	10	[0, 0, 0]	n/a	catFR1	2	R1444D
1219.347	1.906	1231776	REC_WORD	1.906	n/a	CORK	n/a	-999	10	[0, 0, 0]	n/a	catFR1	2	R1444D
1221.253	1.656	1233682	REC_WORD_VV	1.656	n/a	<>	n/a	-999	10	[0, 0, 0]	n/a	catFR1	2	R1444D
1222.909	1.689	1235338	REC_WORD	1.689	n/a	SKIRT	Clothing	2	10	[0, 0, 0]	n/a	catFR1	2	R1444D
1224.598	2.588	1237027	REC_WORD_VV	2.588	n/a	<>	n/a	-999	10	[0, 0, 0]	n/a	catFR1	2	R1444D
1227.186	2.368	1239615	REC_WORD	2.368	n/a	SKIRT	Clothing	2	10	[0, 0, 0]	n/a	catFR1	2	R1444D
1229.554	3.223	1241983	REC_WORD	3.223	n/a	ELBOW	BodyParts	-999	10	[0, 0, 0]	n/a	catFR1	2	R1444D
1232.777	7.051	1245205	REC_WORD_VV	7.051	n/a	<>	n/a	-999	10	[0, 0, 0]	n/a	catFR1	2	R1444D
1239.828	3.088	1252256	REC_WORD_VV	3.088	n/a	<>	n/a	-999	10	[0, 0, 0]	n/a	catFR1	2	R1444D
1242.916	4.831	1255343	REC_END	n/a	n/a	n/a	n/a	-999	10	[0, 0, 0]	n/a	catFR1	2	R1444D
1247.747	10.35	1260178	COUNTDOWN_START	n/a	n/a	n/a	n/a	-999	10	[0, 0, 0]	n/a	catFR1	2	R1444D
1258.097	0.0	1270524	COUNTDOWN_END	n/a	n/a	n/a	n/a	-999	10	[0, 0, 0]	n/a	catFR1	2	R1444D
1258.097	2.033	1270524	ENCODING_START	n/a	n/a	n/a	n/a	-999	11	[0, 0, 0]	n/a	catFR1	2	R1444D
1260.13	1.616	1272559	WORD	n/a	wordpools/wordpool_categorized_EN.txt	WRENCH	Tools	1	11	[0, 0, 0]	n/a	catFR1	2	R1444D
1261.746	0.884	1274166	WORD_OFF	n/a	n/a	WRENCH	Tools	1	11	[0, 0, 0]	n/a	catFR1	2	R1444D
1262.63	1.6	1275057	WORD	n/a	wordpools/wordpool_categorized_EN.txt	DRILL	Tools	2	11	[0, 0, 0]	n/a	catFR1	2	R1444D
1264.23	0.967	1276652	WORD_OFF	n/a	n/a	DRILL	Tools	2	11	[0, 0, 0]	n/a	catFR1	2	R1444D
1265.197	1.6	1277619	WORD	n/a	wordpools/wordpool_categorized_EN.txt	CRAB	OceanAnimals	3	11	[0, 0, 0]	n/a	catFR1	2	R1444D
1266.797	0.866	1279226	WORD_OFF	n/a	n/a	CRAB	OceanAnimals	3	11	[0, 0, 0]	n/a	catFR1	2	R1444D
1267.663	1.6	1280080	WORD	n/a	wordpools/wordpool_categorized_EN.txt	OCTOPUS	OceanAnimals	4	11	[0, 0, 0]	n/a	catFR1	2	R1444D
1269.263	0.949	1281688	WORD_OFF	n/a	n/a	OCTOPUS	OceanAnimals	4	11	[0, 0, 0]	n/a	catFR1	2	R1444D
1270.212	1.617	1282629	WORD	n/a	wordpools/wordpool_categorized_EN.txt	ROBIN	Birds	5	11	[0, 0, 0]	n/a	catFR1	2	R1444D
1271.829	0.784	1284249	WORD_OFF	n/a	n/a	ROBIN	Birds	5	11	[0, 0, 0]	n/a	catFR1	2	R1444D
1272.613	1.6	1285040	WORD	n/a	wordpools/wordpool_categorized_EN.txt	SEAGULL	Birds	6	11	[0, 0, 0]	n/a	catFR1	2	R1444D
1274.213	0.883	1286635	WORD_OFF	n/a	n/a	SEAGULL	Birds	6	11	[0, 0, 0]	n/a	catFR1	2	R1444D
1275.096	1.6	1287514	WORD	n/a	wordpools/wordpool_categorized_EN.txt	WHALE	OceanAnimals	7	11	[0, 0, 0]	n/a	catFR1	2	R1444D
1276.696	0.884	1289121	WORD_OFF	n/a	n/a	WHALE	OceanAnimals	7	11	[0, 0, 0]	n/a	catFR1	2	R1444D
1277.58	1.6	1290000	WORD	n/a	wordpools/wordpool_categorized_EN.txt	JELLYFISH	OceanAnimals	8	11	[0, 0, 0]	n/a	catFR1	2	R1444D
1279.18	0.9	1291608	WORD_OFF	n/a	n/a	JELLYFISH	OceanAnimals	8	11	[0, 0, 0]	n/a	catFR1	2	R1444D
1280.08	1.6	1292499	WORD	n/a	wordpools/wordpool_categorized_EN.txt	SAW	Tools	9	11	[0, 0, 0]	n/a	catFR1	2	R1444D
1281.68	0.817	1294106	WORD_OFF	n/a	n/a	SAW	Tools	9	11	[0, 0, 0]	n/a	catFR1	2	R1444D
1282.497	1.6	1294923	WORD	n/a	wordpools/wordpool_categorized_EN.txt	AXE	Tools	10	11	[0, 0, 0]	n/a	catFR1	2	R1444D
1284.097	0.867	1296517	WORD_OFF	n/a	n/a	AXE	Tools	10	11	[0, 0, 0]	n/a	catFR1	2	R1444D
1284.964	1.616	1297384	WORD	n/a	wordpools/wordpool_categorized_EN.txt	GOOSE	Birds	11	11	[0, 0, 0]	n/a	catFR1	2	R1444D
1286.58	0.983	1299004	WORD_OFF	n/a	n/a	GOOSE	Birds	11	11	[0, 0, 0]	n/a	catFR1	2	R1444D
1287.563	1.616	1299983	WORD	n/a	wordpools/wordpool_categorized_EN.txt	DUCK	Birds	12	11	[0, 0, 0]	n/a	catFR1	2	R1444D
1289.179	0.001	1301603	WORD_OFF	n/a	n/a	DUCK	Birds	12	11	[0, 0, 0]	n/a	catFR1	2	R1444D
1289.18	0.0	1301603	ENCODING_END	n/a	n/a	n/a	n/a	-999	11	[0, 0, 0]	n/a	catFR1	2	R1444D
1289.18	0.0	1301603	DISTRACT_START	n/a	n/a	n/a	n/a	-999	11	[0, 0, 0]	n/a	catFR1	2	R1444D
1289.179	0.001	1301604	PROB	0.001	n/a	n/a	n/a	-999	11	[4, 5, 7]	16	catFR1	2	R1444D
1289.18	12.017	1301605	START	n/a	n/a	n/a	n/a	-999	11	[-999, -999, -999]	n/a	catFR1	2	R1444D
1301.197	6.783	1313622	PROB	6.783	n/a	n/a	n/a	-999	11	[4, 4, 8]	16	catFR1	2	R1444D
1307.98	8.767	1320404	PROB	8.767	n/a	n/a	n/a	-999	11	[5, 6, 8]	19	catFR1	2	R1444D
1316.747	0.0	1329165	DISTRACT_END	n/a	n/a	n/a	n/a	-999	11	[0, 0, 0]	n/a	catFR1	2	R1444D
1316.747	1.233	1329171	STOP	n/a	n/a	n/a	n/a	-999	11	[-999, -999, -999]	n/a	catFR1	2	R1444D
1317.98	1.254	1330396	REC_START	n/a	n/a	n/a	n/a	-999	11	[0, 0, 0]	n/a	catFR1	2	R1444D
1319.234	1.05	1331658	REC_WORD_VV	1.05	n/a	<>	n/a	-999	11	[0, 0, 0]	n/a	catFR1	2	R1444D
1320.284	0.547	1332708	REC_WORD	0.547	n/a	AXE	Tools	10	11	[0, 0, 0]	n/a	catFR1	2	R1444D
1320.831	0.626	1333255	REC_WORD	0.626	n/a	SWORD	n/a	-999	11	[0, 0, 0]	n/a	catFR1	2	R1444D
1321.457	1.004	1333881	REC_WORD_VV	1.004	n/a	<>	n/a	-999	11	[0, 0, 0]	n/a	catFR1	2	R1444D
1322.461	1.421	1334885	REC_WORD	1.421	n/a	GOOSE	Birds	11	11	[0, 0, 0]	n/a	catFR1	2	R1444D
1323.882	2.798	1336306	REC_WORD_VV	2.798	n/a	<>	n/a	-999	11	[0, 0, 0]	n/a	catFR1	2	R1444D
1326.68	2.789	1339103	REC_WORD_VV	2.789	n/a	<>	n/a	-999	11	[0, 0, 0]	n/a	catFR1	2	R1444D
1329.469	2.105	1341892	REC_WORD	2.105	n/a	SWORD	n/a	-999	11	[0, 0, 0]	n/a	catFR1	2	R1444D
1331.574	14.205	1343997	REC_WORD	14.205	n/a	GOOSE	Birds	11	11	[0, 0, 0]	n/a	catFR1	2	R1444D
1345.779	1.0	1358201	REC_WORD_VV	1.0	n/a	<>	n/a	-999	11	[0, 0, 0]	n/a	catFR1	2	R1444D
1346.779	2.401	1359201	REC_WORD_VV	2.401	n/a	<>	n/a	-999	11	[0, 0, 0]	n/a	catFR1	2	R1444D
1349.18	3.133	1361600	REC_END	n/a	n/a	n/a	n/a	-999	11	[0, 0, 0]	n/a	catFR1	2	R1444D
1352.313	10.35	1364739	COUNTDOWN_START	n/a	n/a	n/a	n/a	-999	11	[0, 0, 0]	n/a	catFR1	2	R1444D
1362.663	0.001	1375086	COUNTDOWN_END	n/a	n/a	n/a	n/a	-999	11	[0, 0, 0]	n/a	catFR1	2	R1444D
1362.664	2.066	1375086	ENCODING_START	n/a	n/a	n/a	n/a	-999	12	[0, 0, 0]	n/a	catFR1	2	R1444D
1364.73	1.616	1377146	WORD	n/a	wordpools/wordpool_categorized_EN.txt	DOLPHIN	OceanAnimals	1	12	[0, 0, 0]	n/a	catFR1	2	R1444D
1366.346	0.933	1378765	WORD_OFF	n/a	n/a	DOLPHIN	OceanAnimals	1	12	[0, 0, 0]	n/a	catFR1	2	R1444D
1367.279	1.601	1379695	WORD	n/a	wordpools/wordpool_categorized_EN.txt	PLANKTON	OceanAnimals	2	12	[0, 0, 0]	n/a	catFR1	2	R1444D
1368.88	0.9	1381302	WORD_OFF	n/a	n/a	PLANKTON	OceanAnimals	2	12	[0, 0, 0]	n/a	catFR1	2	R1444D
1369.78	1.6	1382193	WORD	n/a	wordpools/wordpool_categorized_EN.txt	RADIO	Electronics	3	12	[0, 0, 0]	n/a	catFR1	2	R1444D
1371.38	0.816	1383801	WORD_OFF	n/a	n/a	RADIO	Electronics	3	12	[0, 0, 0]	n/a	catFR1	2	R1444D
1372.196	1.601	1384617	WORD	n/a	wordpools/wordpool_categorized_EN.txt	PHONE	Electronics	4	12	[0, 0, 0]	n/a	catFR1	2	R1444D
1373.797	0.999	1386212	WORD_OFF	n/a	n/a	PHONE	Electronics	4	12	[0, 0, 0]	n/a	catFR1	2	R1444D
1374.796	1.6	1387216	WORD	n/a	wordpools/wordpool_categorized_EN.txt	SPINACH	Vegetables	5	12	[0, 0, 0]	n/a	catFR1	2	R1444D
1376.396	1.0	1388811	WORD_OFF	n/a	n/a	SPINACH	Vegetables	5	12	[0, 0, 0]	n/a	catFR1	2	R1444D
1377.396	1.617	1389815	WORD	n/a	wordpools/wordpool_categorized_EN.txt	CUCUMBER	Vegetables	6	12	[0, 0, 0]	n/a	catFR1	2	R1444D
1379.013	0.917	1391435	WORD_OFF	n/a	n/a	CUCUMBER	Vegetables	6	12	[0, 0, 0]	n/a	catFR1	2	R1444D
1379.93	1.616	1392352	WORD	n/a	wordpools/wordpool_categorized_EN.txt	OYSTER	OceanAnimals	7	12	[0, 0, 0]	n/a	catFR1	2	R1444D
1381.546	0.95	1393959	WORD_OFF	n/a	n/a	OYSTER	OceanAnimals	7	12	[0, 0, 0]	n/a	catFR1	2	R1444D
1382.496	1.601	1394914	WORD	n/a	wordpools/wordpool_categorized_EN.txt	FISH	OceanAnimals	8	12	[0, 0, 0]	n/a	catFR1	2	R1444D
1384.097	0.966	1396508	WORD_OFF	n/a	n/a	FISH	OceanAnimals	8	12	[0, 0, 0]	n/a	catFR1	2	R1444D
1385.063	1.601	1397475	WORD	n/a	wordpools/wordpool_categorized_EN.txt	SPEAKER	Electronics	9	12	[0, 0, 0]	n/a	catFR1	2	R1444D
1386.664	0.783	1399082	WORD_OFF	n/a	n/a	SPEAKER	Electronics	9	12	[0, 0, 0]	n/a	catFR1	2	R1444D
1387.447	1.6	1399861	WORD	n/a	wordpools/wordpool_categorized_EN.txt	HEADPHONES	Electronics	10	12	[0, 0, 0]	n/a	catFR1	2	R1444D
1389.047	0.866	1401468	WORD_OFF	n/a	n/a	HEADPHONES	Electronics	10	12	[0, 0, 0]	n/a	catFR1	2	R1444D
1389.913	1.6	1402335	WORD	n/a	wordpools/wordpool_categorized_EN.txt	POTATO	Vegetables	11	12	[0, 0, 0]	n/a	catFR1	2	R1444D
1391.513	1.0	1403929	WORD_OFF	n/a	n/a	POTATO	Vegetables	11	12	[0, 0, 0]	n/a	catFR1	2	R1444D
1392.513	1.616	1404934	WORD	n/a	wordpools/wordpool_categorized_EN.txt	BROCCOLI	Vegetables	12	12	[0, 0, 0]	n/a	catFR1	2	R1444D
1394.129	0.001	1406541	WORD_OFF	n/a	n/a	BROCCOLI	Vegetables	12	12	[0, 0, 0]	n/a	catFR1	2	R1444D
1394.13	0.001	1406550	PROB	0.001	n/a	n/a	n/a	-999	12	[1, 3, 8]	12	catFR1	2	R1444D
1394.131	0.0	1406551	START	n/a	n/a	n/a	n/a	-999	12	[-999, -999, -999]	n/a	catFR1	2	R1444D
1394.131	0.0	1406554	ENCODING_END	n/a	n/a	n/a	n/a	-999	12	[0, 0, 0]	n/a	catFR1	2	R1444D
1394.131	7.983	1406554	DISTRACT_START	n/a	n/a	n/a	n/a	-999	12	[0, 0, 0]	n/a	catFR1	2	R1444D
1402.114	7.083	1414533	PROB	7.083	n/a	n/a	n/a	-999	12	[3, 6, 4]	13	catFR1	2	R1444D
1409.197	8.118	1421616	PROB	8.118	n/a	n/a	n/a	-999	12	[5, 1, 6]	11	catFR1	2	R1444D
1417.315	0.0	1429734	DISTRACT_END	n/a	n/a	n/a	n/a	-999	12	[0, 0, 0]	n/a	catFR1	2	R1444D
1417.315	1.132	1429734	STOP	n/a	n/a	n/a	n/a	-999	12	[-999, -999, -999]	n/a	catFR1	2	R1444D
1418.447	1.263	1430864	REC_START	n/a	n/a	n/a	n/a	-999	12	[0, 0, 0]	n/a	catFR1	2	R1444D
1419.71	0.925	1432129	REC_WORD_VV	0.925	n/a	<>	n/a	-999	12	[0, 0, 0]	n/a	catFR1	2	R1444D
1420.635	2.32	1433053	REC_WORD	2.32	n/a	PLANKTON	OceanAnimals	2	12	[0, 0, 0]	n/a	catFR1	2	R1444D
1422.955	0.485	1435373	REC_WORD_VV	0.485	n/a	<>	n/a	-999	12	[0, 0, 0]	n/a	catFR1	2	R1444D
1423.44	3.867	1435858	REC_WORD	3.867	n/a	OCTOPUS	OceanAnimals	-999	12	[0, 0, 0]	n/a	catFR1	2	R1444D
1427.307	1.688	1439725	REC_WORD_VV	1.688	n/a	<>	n/a	-999	12	[0, 0, 0]	n/a	catFR1	2	R1444D
1428.995	0.488	1441413	REC_WORD	0.488	n/a	PLANKTON	OceanAnimals	2	12	[0, 0, 0]	n/a	catFR1	2	R1444D
1429.483	1.766	1441901	REC_WORD	1.766	n/a	OCTOPUS	OceanAnimals	-999	12	[0, 0, 0]	n/a	catFR1	2	R1444D
1431.249	8.598	1443667	REC_WORD_VV	8.598	n/a	<>	n/a	-999	12	[0, 0, 0]	n/a	catFR1	2	R1444D
1439.847	3.825	1452264	REC_WORD_VV	3.825	n/a	<>	n/a	-999	12	[0, 0, 0]	n/a	catFR1	2	R1444D
1443.672	1.0	1456089	REC_WORD	1.0	n/a	JELLYFISH	OceanAnimals	-999	12	[0, 0, 0]	n/a	catFR1	2	R1444D
1444.672	1.0	1457089	REC_WORD_VV	1.0	n/a	<>	n/a	-999	12	[0, 0, 0]	n/a	catFR1	2	R1444D
1445.672	0.755	1458089	REC_WORD_VV	0.755	n/a	<>	n/a	-999	12	[0, 0, 0]	n/a	catFR1	2	R1444D
1446.427	3.2	1458844	REC_WORD_VV	3.2	n/a	<>	n/a	-999	12	[0, 0, 0]	n/a	catFR1	2	R1444D
1449.627	0.0	1462043	REC_END	n/a	n/a	n/a	n/a	-999	12	[0, 0, 0]	n/a	catFR1	2	R1444D
