onset	duration	sample	trial_type	response_time	stim_file	item_name	category	serialpos	list	test	answer	experiment	session	subject
0.0	0.0	142661	INSTRUCT_START	n/a	n/a	n/a	n/a	-999	-999	[0, 0, 0]	n/a	catFR1	0	R1169P
0.0	10.998	142661	INSTRUCT_END	n/a	n/a	n/a	n/a	-999	-999	[0, 0, 0]	n/a	catFR1	0	R1169P
10.998	0.0	153658	SESS_START	n/a	n/a	n/a	n/a	-999	-999	[0, 0, 0]	n/a	catFR1	0	R1169P
10.998	10.0	153658	MIC_TEST	n/a	n/a	n/a	n/a	-999	-999	[0, 0, 0]	n/a	catFR1	0	R1169P
20.998	4.473	163658	PRACTICE_TRIAL	n/a	n/a	n/a	n/a	-999	-1	[0, 0, 0]	n/a	catFR1	0	R1169P
25.471	10.428	168130	COUNTDOWN_START	n/a	n/a	n/a	n/a	-999	-1	[0, 0, 0]	n/a	catFR1	0	R1169P
35.899	0.008	178558	COUNTDOWN_END	n/a	n/a	n/a	n/a	-999	-1	[0, 0, 0]	n/a	catFR1	0	R1169P
35.907	1.617	178566	PRACTICE_ORIENT	n/a	n/a	n/a	n/a	-999	-1	[0, 0, 0]	n/a	catFR1	0	R1169P
37.524	2.034	180183	PRACTICE_ORIENT_OFF	n/a	n/a	n/a	n/a	-999	-1	[0, 0, 0]	n/a	catFR1	0	R1169P
39.558	1.616	182217	PRACTICE_WORD	n/a	n/a	CAMEL	n/a	-1	-1	[0, 0, 0]	n/a	catFR1	0	R1169P
41.174	1.016	183833	PRACTICE_WORD_OFF	n/a	n/a	CAMEL	n/a	-999	-1	[0, 0, 0]	n/a	catFR1	0	R1169P
42.19	1.618	184849	PRACTICE_WORD	n/a	n/a	TONGUE	n/a	-1	-1	[0, 0, 0]	n/a	catFR1	0	R1169P
43.808	0.884	186466	PRACTICE_WORD_OFF	n/a	n/a	TONGUE	n/a	-999	-1	[0, 0, 0]	n/a	catFR1	0	R1169P
44.692	1.617	187350	PRACTICE_WORD	n/a	n/a	RING	n/a	-1	-1	[0, 0, 0]	n/a	catFR1	0	R1169P
46.309	0.983	188967	PRACTICE_WORD_OFF	n/a	n/a	RING	n/a	-999	-1	[0, 0, 0]	n/a	catFR1	0	R1169P
47.292	1.617	189950	PRACTICE_WORD	n/a	n/a	WAGON	n/a	-1	-1	[0, 0, 0]	n/a	catFR1	0	R1169P
48.909	0.8	191567	PRACTICE_WORD_OFF	n/a	n/a	WAGON	n/a	-999	-1	[0, 0, 0]	n/a	catFR1	0	R1169P
49.709	1.617	192367	PRACTICE_WORD	n/a	n/a	ATTIC	n/a	-1	-1	[0, 0, 0]	n/a	catFR1	0	R1169P
51.326	0.951	193984	PRACTICE_WORD_OFF	n/a	n/a	ATTIC	n/a	-999	-1	[0, 0, 0]	n/a	catFR1	0	R1169P
52.277	1.617	194935	PRACTICE_WORD	n/a	n/a	IRON	n/a	-1	-1	[0, 0, 0]	n/a	catFR1	0	R1169P
53.894	0.85	196552	PRACTICE_WORD_OFF	n/a	n/a	IRON	n/a	-999	-1	[0, 0, 0]	n/a	catFR1	0	R1169P
54.744	1.617	197402	PRACTICE_WORD	n/a	n/a	RHINO	n/a	-1	-1	[0, 0, 0]	n/a	catFR1	0	R1169P
56.361	0.983	199019	PRACTICE_WORD_OFF	n/a	n/a	RHINO	n/a	-999	-1	[0, 0, 0]	n/a	catFR1	0	R1169P
57.344	1.617	200002	PRACTICE_WORD	n/a	n/a	WATCH	n/a	-1	-1	[0, 0, 0]	n/a	catFR1	0	R1169P
58.961	0.834	201619	PRACTICE_WORD_OFF	n/a	n/a	WATCH	n/a	-999	-1	[0, 0, 0]	n/a	catFR1	0	R1169P
59.795	1.616	202453	PRACTICE_WORD	n/a	n/a	COTTON	n/a	-1	-1	[0, 0, 0]	n/a	catFR1	0	R1169P
61.411	0.901	204069	PRACTICE_WORD_OFF	n/a	n/a	COTTON	n/a	-999	-1	[0, 0, 0]	n/a	catFR1	0	R1169P
62.312	1.617	204969	PRACTICE_WORD	n/a	n/a	CHEST	n/a	-1	-1	[0, 0, 0]	n/a	catFR1	0	R1169P
63.929	0.883	206586	PRACTICE_WORD_OFF	n/a	n/a	CHEST	n/a	-999	-1	[0, 0, 0]	n/a	catFR1	0	R1169P
64.812	1.617	207469	PRACTICE_WORD	n/a	n/a	BEAM	n/a	-1	-1	[0, 0, 0]	n/a	catFR1	0	R1169P
66.429	0.834	209086	PRACTICE_WORD_OFF	n/a	n/a	BEAM	n/a	-999	-1	[0, 0, 0]	n/a	catFR1	0	R1169P
67.263	1.617	209920	PRACTICE_WORD	n/a	n/a	FLOOD	n/a	-1	-1	[0, 0, 0]	n/a	catFR1	0	R1169P
68.88	0.0	211537	ENCODING_END	n/a	n/a	n/a	n/a	-999	-1	[0, 0, 0]	n/a	catFR1	0	R1169P
68.88	0.0	211537	PRACTICE_WORD_OFF	n/a	n/a	FLOOD	n/a	-999	-1	[0, 0, 0]	n/a	catFR1	0	R1169P
68.88	0.0	211537	DISTRACT_START	n/a	n/a	n/a	n/a	-999	-1	[0, 0, 0]	n/a	catFR1	0	R1169P
68.88	0.016	211537	START	n/a	n/a	n/a	n/a	-999	-1	[-999, -999, -999]	n/a	catFR1	0	R1169P
68.896	11.369	211553	PROB	11.341	n/a	n/a	n/a	-999	-1	[4, 5, 8]	17.0	catFR1	0	R1169P
80.265	16.858	222922	PROB	16.858	n/a	n/a	n/a	-999	-1	[6, 5, 7]	18.0	catFR1	0	R1169P
97.123	0.011	239779	STOP	n/a	n/a	n/a	n/a	-999	-1	[-999, -999, -999]	n/a	catFR1	0	R1169P
97.134	0.635	239790	DISTRACT_END	n/a	n/a	n/a	n/a	-999	-1	[0, 0, 0]	n/a	catFR1	0	R1169P
97.769	0.517	240425	RETRIEVAL_ORIENT	n/a	n/a	n/a	n/a	-999	-1	[0, 0, 0]	n/a	catFR1	0	R1169P
98.286	30.014	240942	PRACTICE_REC_START	n/a	n/a	n/a	n/a	-999	-1	[0, 0, 0]	n/a	catFR1	0	R1169P
128.3	16.594	270954	PRACTICE_REC_END	n/a	n/a	n/a	n/a	-999	-1	[0, 0, 0]	n/a	catFR1	0	R1169P
144.894	0.5	287547	TRIAL	n/a	n/a	n/a	n/a	-999	1	[0, 0, 0]	n/a	catFR1	0	R1169P
145.394	10.428	288047	COUNTDOWN_START	n/a	n/a	n/a	n/a	-999	1	[0, 0, 0]	n/a	catFR1	0	R1169P
155.822	0.007	298475	COUNTDOWN_END	n/a	n/a	n/a	n/a	-999	1	[0, 0, 0]	n/a	catFR1	0	R1169P
155.829	1.617	298482	ORIENT	n/a	n/a	n/a	n/a	-999	1	[0, 0, 0]	n/a	catFR1	0	R1169P
157.446	2.284	300099	ORIENT_OFF	n/a	n/a	n/a	n/a	-999	1	[0, 0, 0]	n/a	catFR1	0	R1169P
159.73	1.617	302383	WORD	n/a	wordpools/wordpool_categorized_EN.txt	LEVEL	Tools	1	1	[0, 0, 0]	n/a	catFR1	0	R1169P
161.347	0.799	303999	WORD_OFF	n/a	n/a	LEVEL	n/a	1	1	[0, 0, 0]	n/a	catFR1	0	R1169P
162.146	1.618	304798	WORD	n/a	wordpools/wordpool_categorized_EN.txt	DRILL	Tools	2	1	[0, 0, 0]	n/a	catFR1	0	R1169P
163.764	0.767	306416	WORD_OFF	n/a	n/a	DRILL	n/a	2	1	[0, 0, 0]	n/a	catFR1	0	R1169P
164.531	1.616	307183	WORD	n/a	wordpools/wordpool_categorized_EN.txt	CUCUMBER	Vegetables	3	1	[0, 0, 0]	n/a	catFR1	0	R1169P
166.147	0.934	308799	WORD_OFF	n/a	n/a	CUCUMBER	n/a	3	1	[0, 0, 0]	n/a	catFR1	0	R1169P
167.081	1.618	309733	WORD	n/a	wordpools/wordpool_categorized_EN.txt	CELERY	Vegetables	4	1	[0, 0, 0]	n/a	catFR1	0	R1169P
168.699	1.016	311351	WORD_OFF	n/a	n/a	CELERY	n/a	4	1	[0, 0, 0]	n/a	catFR1	0	R1169P
169.715	1.617	312367	WORD	n/a	wordpools/wordpool_categorized_EN.txt	COUCH	Furniture	5	1	[0, 0, 0]	n/a	catFR1	0	R1169P
171.332	0.917	313984	WORD_OFF	n/a	n/a	COUCH	n/a	5	1	[0, 0, 0]	n/a	catFR1	0	R1169P
172.249	1.617	314901	WORD	n/a	wordpools/wordpool_categorized_EN.txt	TABLE	Furniture	6	1	[0, 0, 0]	n/a	catFR1	0	R1169P
173.866	0.767	316518	WORD_OFF	n/a	n/a	TABLE	n/a	6	1	[0, 0, 0]	n/a	catFR1	0	R1169P
174.633	1.617	317285	WORD	n/a	wordpools/wordpool_categorized_EN.txt	POTATO	Vegetables	7	1	[0, 0, 0]	n/a	catFR1	0	R1169P
176.25	0.984	318902	WORD_OFF	n/a	n/a	POTATO	n/a	7	1	[0, 0, 0]	n/a	catFR1	0	R1169P
177.234	1.616	319886	WORD	n/a	wordpools/wordpool_categorized_EN.txt	CABBAGE	Vegetables	8	1	[0, 0, 0]	n/a	catFR1	0	R1169P
178.85	0.934	321502	WORD_OFF	n/a	n/a	CABBAGE	n/a	8	1	[0, 0, 0]	n/a	catFR1	0	R1169P
179.784	1.617	322436	WORD	n/a	wordpools/wordpool_categorized_EN.txt	SHOVEL	Tools	9	1	[0, 0, 0]	n/a	catFR1	0	R1169P
181.401	0.816	324052	WORD_OFF	n/a	n/a	SHOVEL	n/a	9	1	[0, 0, 0]	n/a	catFR1	0	R1169P
182.217	1.618	324868	WORD	n/a	wordpools/wordpool_categorized_EN.txt	SANDER	Tools	10	1	[0, 0, 0]	n/a	catFR1	0	R1169P
183.835	0.983	326486	WORD_OFF	n/a	n/a	SANDER	n/a	10	1	[0, 0, 0]	n/a	catFR1	0	R1169P
184.818	1.617	327469	WORD	n/a	wordpools/wordpool_categorized_EN.txt	SHELF	Furniture	11	1	[0, 0, 0]	n/a	catFR1	0	R1169P
186.435	0.9	329086	WORD_OFF	n/a	n/a	SHELF	n/a	11	1	[0, 0, 0]	n/a	catFR1	0	R1169P
187.335	1.617	329986	WORD	n/a	wordpools/wordpool_categorized_EN.txt	SOFA	Furniture	12	1	[0, 0, 0]	n/a	catFR1	0	R1169P
188.952	0.001	331603	WORD_OFF	n/a	n/a	SOFA	n/a	12	1	[0, 0, 0]	n/a	catFR1	0	R1169P
188.953	0.137	331604	ENCODING_END	n/a	n/a	n/a	n/a	-999	1	[0, 0, 0]	n/a	catFR1	0	R1169P
189.09	0.0	331741	DISTRACT_START	n/a	n/a	n/a	n/a	-999	1	[0, 0, 0]	n/a	catFR1	0	R1169P
189.09	0.011	331741	START	n/a	n/a	n/a	n/a	-999	1	[-999, -999, -999]	n/a	catFR1	0	R1169P
189.101	22.584	331752	PROB	22.584	n/a	n/a	n/a	-999	1	[6, 4, 5]	15.0	catFR1	0	R1169P
211.685	0.022	354335	STOP	n/a	n/a	n/a	n/a	-999	1	[-999, -999, -999]	n/a	catFR1	0	R1169P
211.707	0.616	354357	DISTRACT_END	n/a	n/a	n/a	n/a	-999	1	[0, 0, 0]	n/a	catFR1	0	R1169P
212.323	0.518	354973	RETRIEVAL_ORIENT	n/a	n/a	n/a	n/a	-999	1	[0, 0, 0]	n/a	catFR1	0	R1169P
212.841	6.125	355491	REC_START	n/a	n/a	n/a	n/a	-999	1	[0, 0, 0]	n/a	catFR1	0	R1169P
218.966	0.614	361616	REC_WORD	6.125	n/a	CABBAGE	Vegetables	8	1	[0, 0, 0]	n/a	catFR1	0	R1169P
219.58	11.017	362230	REC_WORD	6.739	n/a	SHOVEL	Tools	9	1	[0, 0, 0]	n/a	catFR1	0	R1169P
230.597	1.001	373246	REC_WORD_VV	17.756	n/a	<>	n/a	-999	1	[0, 0, 0]	n/a	catFR1	0	R1169P
231.598	0.523	374247	REC_WORD	18.757	n/a	CABBAGE	Vegetables	8	1	[0, 0, 0]	n/a	catFR1	0	R1169P
232.121	3.608	374770	REC_WORD	19.28	n/a	SHOVEL	Tools	9	1	[0, 0, 0]	n/a	catFR1	0	R1169P
235.729	0.67	378378	REC_WORD_VV	22.888	n/a	<>	n/a	-999	1	[0, 0, 0]	n/a	catFR1	0	R1169P
236.399	0.61	379048	REC_WORD_VV	23.558	n/a	<>	n/a	-999	1	[0, 0, 0]	n/a	catFR1	0	R1169P
237.009	1.0	379658	REC_WORD_VV	24.168	n/a	<>	n/a	-999	1	[0, 0, 0]	n/a	catFR1	0	R1169P
238.009	1.836	380658	REC_WORD_VV	25.168	n/a	<>	n/a	-999	1	[0, 0, 0]	n/a	catFR1	0	R1169P
239.845	0.21	382493	REC_WORD_VV	27.004	n/a	<>	n/a	-999	1	[0, 0, 0]	n/a	catFR1	0	R1169P
240.055	2.797	382703	REC_WORD	27.214	n/a	COTTON	n/a	-999	1	[0, 0, 0]	n/a	catFR1	0	R1169P
242.852	5.862	385500	REC_END	n/a	n/a	n/a	n/a	-999	1	[0, 0, 0]	n/a	catFR1	0	R1169P
248.714	0.5	391362	TRIAL	n/a	n/a	n/a	n/a	-999	2	[0, 0, 0]	n/a	catFR1	0	R1169P
249.214	10.428	391862	COUNTDOWN_START	n/a	n/a	n/a	n/a	-999	2	[0, 0, 0]	n/a	catFR1	0	R1169P
259.642	0.007	402289	COUNTDOWN_END	n/a	n/a	n/a	n/a	-999	2	[0, 0, 0]	n/a	catFR1	0	R1169P
259.649	1.617	402296	ORIENT	n/a	n/a	n/a	n/a	-999	2	[0, 0, 0]	n/a	catFR1	0	R1169P
261.266	2.217	403913	ORIENT_OFF	n/a	n/a	n/a	n/a	-999	2	[0, 0, 0]	n/a	catFR1	0	R1169P
263.483	1.616	406130	WORD	n/a	wordpools/wordpool_categorized_EN.txt	LIGHTNING	Weather	1	2	[0, 0, 0]	n/a	catFR1	0	R1169P
265.099	0.967	407746	WORD_OFF	n/a	n/a	LIGHTNING	n/a	1	2	[0, 0, 0]	n/a	catFR1	0	R1169P
266.066	1.601	408713	WORD	n/a	wordpools/wordpool_categorized_EN.txt	HURRICANE	Weather	2	2	[0, 0, 0]	n/a	catFR1	0	R1169P
267.667	0.967	410314	WORD_OFF	n/a	n/a	HURRICANE	n/a	2	2	[0, 0, 0]	n/a	catFR1	0	R1169P
268.634	1.617	411281	WORD	n/a	wordpools/wordpool_categorized_EN.txt	JELLYFISH	OceanAnimals	3	2	[0, 0, 0]	n/a	catFR1	0	R1169P
270.251	0.966	412898	WORD_OFF	n/a	n/a	JELLYFISH	n/a	3	2	[0, 0, 0]	n/a	catFR1	0	R1169P
271.217	1.618	413864	WORD	n/a	wordpools/wordpool_categorized_EN.txt	OYSTER	OceanAnimals	4	2	[0, 0, 0]	n/a	catFR1	0	R1169P
272.835	0.9	415482	WORD_OFF	n/a	n/a	OYSTER	n/a	4	2	[0, 0, 0]	n/a	catFR1	0	R1169P
273.735	1.617	416382	WORD	n/a	wordpools/wordpool_categorized_EN.txt	COBBLER	Desserts	5	2	[0, 0, 0]	n/a	catFR1	0	R1169P
275.352	0.984	417999	WORD_OFF	n/a	n/a	COBBLER	n/a	5	2	[0, 0, 0]	n/a	catFR1	0	R1169P
276.336	1.616	418983	WORD	n/a	wordpools/wordpool_categorized_EN.txt	COOKIE	Desserts	6	2	[0, 0, 0]	n/a	catFR1	0	R1169P
277.952	0.851	420599	WORD_OFF	n/a	n/a	COOKIE	n/a	6	2	[0, 0, 0]	n/a	catFR1	0	R1169P
278.803	1.617	421450	WORD	n/a	wordpools/wordpool_categorized_EN.txt	LOBSTER	OceanAnimals	7	2	[0, 0, 0]	n/a	catFR1	0	R1169P
280.42	0.765	423066	WORD_OFF	n/a	n/a	LOBSTER	n/a	7	2	[0, 0, 0]	n/a	catFR1	0	R1169P
281.185	1.618	423831	WORD	n/a	wordpools/wordpool_categorized_EN.txt	PLANKTON	OceanAnimals	8	2	[0, 0, 0]	n/a	catFR1	0	R1169P
282.803	0.85	425449	WORD_OFF	n/a	n/a	PLANKTON	n/a	8	2	[0, 0, 0]	n/a	catFR1	0	R1169P
283.653	1.618	426299	WORD	n/a	wordpools/wordpool_categorized_EN.txt	TORNADO	Weather	9	2	[0, 0, 0]	n/a	catFR1	0	R1169P
285.271	0.832	427917	WORD_OFF	n/a	n/a	TORNADO	n/a	9	2	[0, 0, 0]	n/a	catFR1	0	R1169P
286.103	1.601	428749	WORD	n/a	wordpools/wordpool_categorized_EN.txt	RAIN	Weather	10	2	[0, 0, 0]	n/a	catFR1	0	R1169P
287.704	0.967	430350	WORD_OFF	n/a	n/a	RAIN	n/a	10	2	[0, 0, 0]	n/a	catFR1	0	R1169P
288.671	1.617	431317	WORD	n/a	wordpools/wordpool_categorized_EN.txt	CUPCAKE	Desserts	11	2	[0, 0, 0]	n/a	catFR1	0	R1169P
290.288	0.866	432934	WORD_OFF	n/a	n/a	CUPCAKE	n/a	11	2	[0, 0, 0]	n/a	catFR1	0	R1169P
291.154	1.618	433800	WORD	n/a	wordpools/wordpool_categorized_EN.txt	MOUSSE	Desserts	12	2	[0, 0, 0]	n/a	catFR1	0	R1169P
292.772	0.0	435418	WORD_OFF	n/a	n/a	MOUSSE	n/a	12	2	[0, 0, 0]	n/a	catFR1	0	R1169P
292.772	0.101	435418	ENCODING_END	n/a	n/a	n/a	n/a	-999	2	[0, 0, 0]	n/a	catFR1	0	R1169P
292.873	0.001	435519	DISTRACT_START	n/a	n/a	n/a	n/a	-999	2	[0, 0, 0]	n/a	catFR1	0	R1169P
292.874	0.015	435520	START	n/a	n/a	n/a	n/a	-999	2	[-999, -999, -999]	n/a	catFR1	0	R1169P
292.889	19.186	435535	PROB	19.162	n/a	n/a	n/a	-999	2	[8, 9, 6]	23.0	catFR1	0	R1169P
312.075	5.616	454720	PROB	5.616	n/a	n/a	n/a	-999	2	[5, 5, 7]	17.0	catFR1	0	R1169P
317.691	0.019	460336	STOP	n/a	n/a	n/a	n/a	-999	2	[-999, -999, -999]	n/a	catFR1	0	R1169P
317.71	0.617	460355	DISTRACT_END	n/a	n/a	n/a	n/a	-999	2	[0, 0, 0]	n/a	catFR1	0	R1169P
318.327	0.517	460972	RETRIEVAL_ORIENT	n/a	n/a	n/a	n/a	-999	2	[0, 0, 0]	n/a	catFR1	0	R1169P
318.844	1.416	461488	REC_START	n/a	n/a	n/a	n/a	-999	2	[0, 0, 0]	n/a	catFR1	0	R1169P
320.26	1.0	462904	REC_WORD_VV	1.416	n/a	<>	n/a	-999	2	[0, 0, 0]	n/a	catFR1	0	R1169P
321.26	1.0	463904	REC_WORD_VV	2.416	n/a	<>	n/a	-999	2	[0, 0, 0]	n/a	catFR1	0	R1169P
322.26	1.0	464904	REC_WORD_VV	3.416	n/a	<>	n/a	-999	2	[0, 0, 0]	n/a	catFR1	0	R1169P
323.26	1.0	465904	REC_WORD_VV	4.416	n/a	<>	n/a	-999	2	[0, 0, 0]	n/a	catFR1	0	R1169P
324.26	1.0	466904	REC_WORD_VV	5.416	n/a	<>	n/a	-999	2	[0, 0, 0]	n/a	catFR1	0	R1169P
325.26	1.562	467904	REC_WORD_VV	6.416	n/a	<>	n/a	-999	2	[0, 0, 0]	n/a	catFR1	0	R1169P
326.822	2.207	469466	REC_WORD	7.978	n/a	MOUSSE	Desserts	12	2	[0, 0, 0]	n/a	catFR1	0	R1169P
329.029	0.845	471673	REC_WORD	10.185	n/a	MOUSSE	Desserts	12	2	[0, 0, 0]	n/a	catFR1	0	R1169P
329.874	0.741	472518	REC_WORD	11.03	n/a	PLANKTON	OceanAnimals	8	2	[0, 0, 0]	n/a	catFR1	0	R1169P
330.615	3.721	473259	REC_WORD	11.771	n/a	LIGHTNING	Weather	1	2	[0, 0, 0]	n/a	catFR1	0	R1169P
334.336	1.0	476980	REC_WORD	15.492	n/a	JELLYFISH	OceanAnimals	3	2	[0, 0, 0]	n/a	catFR1	0	R1169P
335.336	3.553	477980	REC_WORD_VV	16.492	n/a	<>	n/a	-999	2	[0, 0, 0]	n/a	catFR1	0	R1169P
338.889	1.0	481532	REC_WORD_VV	20.045	n/a	<>	n/a	-999	2	[0, 0, 0]	n/a	catFR1	0	R1169P
339.889	0.952	482532	REC_WORD_VV	21.045	n/a	<>	n/a	-999	2	[0, 0, 0]	n/a	catFR1	0	R1169P
340.841	0.804	483484	REC_WORD_VV	21.997	n/a	<>	n/a	-999	2	[0, 0, 0]	n/a	catFR1	0	R1169P
341.645	1.0	484288	REC_WORD	22.801	n/a	JELLYFISH	OceanAnimals	3	2	[0, 0, 0]	n/a	catFR1	0	R1169P
342.645	1.717	485288	REC_WORD_VV	23.801	n/a	<>	n/a	-999	2	[0, 0, 0]	n/a	catFR1	0	R1169P
344.362	0.511	487005	REC_WORD	25.518	n/a	PLANKTON	OceanAnimals	8	2	[0, 0, 0]	n/a	catFR1	0	R1169P
344.873	1.0	487516	REC_WORD_VV	26.029	n/a	<>	n/a	-999	2	[0, 0, 0]	n/a	catFR1	0	R1169P
345.873	0.485	488516	REC_WORD_VV	27.029	n/a	<>	n/a	-999	2	[0, 0, 0]	n/a	catFR1	0	R1169P
346.358	2.061	489001	REC_WORD_VV	27.514	n/a	<>	n/a	-999	2	[0, 0, 0]	n/a	catFR1	0	R1169P
348.419	0.438	491062	REC_WORD	29.575	n/a	WEATHER	n/a	-999	2	[0, 0, 0]	n/a	catFR1	0	R1169P
348.857	5.91	491500	REC_END	n/a	n/a	n/a	n/a	-999	2	[0, 0, 0]	n/a	catFR1	0	R1169P
354.767	0.5	497410	TRIAL	n/a	n/a	n/a	n/a	-999	3	[0, 0, 0]	n/a	catFR1	0	R1169P
355.267	10.428	497910	COUNTDOWN_START	n/a	n/a	n/a	n/a	-999	3	[0, 0, 0]	n/a	catFR1	0	R1169P
365.695	0.007	508337	COUNTDOWN_END	n/a	n/a	n/a	n/a	-999	3	[0, 0, 0]	n/a	catFR1	0	R1169P
365.702	1.617	508344	ORIENT	n/a	n/a	n/a	n/a	-999	3	[0, 0, 0]	n/a	catFR1	0	R1169P
367.319	2.117	509961	ORIENT_OFF	n/a	n/a	n/a	n/a	-999	3	[0, 0, 0]	n/a	catFR1	0	R1169P
369.436	1.616	512078	WORD	n/a	wordpools/wordpool_categorized_EN.txt	VAN	Vehicles	1	3	[0, 0, 0]	n/a	catFR1	0	R1169P
371.052	0.768	513694	WORD_OFF	n/a	n/a	VAN	n/a	1	3	[0, 0, 0]	n/a	catFR1	0	R1169P
371.82	1.617	514462	WORD	n/a	wordpools/wordpool_categorized_EN.txt	TRAIN	Vehicles	2	3	[0, 0, 0]	n/a	catFR1	0	R1169P
373.437	0.834	516079	WORD_OFF	n/a	n/a	TRAIN	n/a	2	3	[0, 0, 0]	n/a	catFR1	0	R1169P
374.271	1.616	516913	WORD	n/a	wordpools/wordpool_categorized_EN.txt	BROCCOLI	Vegetables	3	3	[0, 0, 0]	n/a	catFR1	0	R1169P
375.887	0.851	518529	WORD_OFF	n/a	n/a	BROCCOLI	n/a	3	3	[0, 0, 0]	n/a	catFR1	0	R1169P
376.738	1.617	519380	WORD	n/a	wordpools/wordpool_categorized_EN.txt	ONION	Vegetables	4	3	[0, 0, 0]	n/a	catFR1	0	R1169P
378.355	0.832	520996	WORD_OFF	n/a	n/a	ONION	n/a	4	3	[0, 0, 0]	n/a	catFR1	0	R1169P
379.187	1.618	521828	WORD	n/a	wordpools/wordpool_categorized_EN.txt	CHEETAH	Zoo	5	3	[0, 0, 0]	n/a	catFR1	0	R1169P
380.805	0.867	523446	WORD_OFF	n/a	n/a	CHEETAH	n/a	5	3	[0, 0, 0]	n/a	catFR1	0	R1169P
381.672	1.617	524313	WORD	n/a	wordpools/wordpool_categorized_EN.txt	PANDA	Zoo	6	3	[0, 0, 0]	n/a	catFR1	0	R1169P
383.289	0.766	525930	WORD_OFF	n/a	n/a	PANDA	n/a	6	3	[0, 0, 0]	n/a	catFR1	0	R1169P
384.055	1.618	526696	WORD	n/a	wordpools/wordpool_categorized_EN.txt	PEAS	Vegetables	7	3	[0, 0, 0]	n/a	catFR1	0	R1169P
385.673	0.867	528314	WORD_OFF	n/a	n/a	PEAS	n/a	7	3	[0, 0, 0]	n/a	catFR1	0	R1169P
386.54	1.616	529181	WORD	n/a	wordpools/wordpool_categorized_EN.txt	CARROT	Vegetables	8	3	[0, 0, 0]	n/a	catFR1	0	R1169P
388.156	0.966	530797	WORD_OFF	n/a	n/a	CARROT	n/a	8	3	[0, 0, 0]	n/a	catFR1	0	R1169P
389.122	1.618	531763	WORD	n/a	wordpools/wordpool_categorized_EN.txt	JEEP	Vehicles	9	3	[0, 0, 0]	n/a	catFR1	0	R1169P
390.74	0.834	533381	WORD_OFF	n/a	n/a	JEEP	n/a	9	3	[0, 0, 0]	n/a	catFR1	0	R1169P
391.574	1.616	534215	WORD	n/a	wordpools/wordpool_categorized_EN.txt	PLANE	Vehicles	10	3	[0, 0, 0]	n/a	catFR1	0	R1169P
393.19	0.983	535831	WORD_OFF	n/a	n/a	PLANE	n/a	10	3	[0, 0, 0]	n/a	catFR1	0	R1169P
394.173	1.601	536814	WORD	n/a	wordpools/wordpool_categorized_EN.txt	ELEPHANT	Zoo	11	3	[0, 0, 0]	n/a	catFR1	0	R1169P
395.774	1.001	538415	WORD_OFF	n/a	n/a	ELEPHANT	n/a	11	3	[0, 0, 0]	n/a	catFR1	0	R1169P
396.775	1.617	539416	WORD	n/a	wordpools/wordpool_categorized_EN.txt	ORANGUTAN	Zoo	12	3	[0, 0, 0]	n/a	catFR1	0	R1169P
398.392	0.0	541032	ENCODING_END	n/a	n/a	n/a	n/a	-999	3	[0, 0, 0]	n/a	catFR1	0	R1169P
398.392	0.1	541032	WORD_OFF	n/a	n/a	ORANGUTAN	n/a	12	3	[0, 0, 0]	n/a	catFR1	0	R1169P
398.492	0.0	541132	DISTRACT_START	n/a	n/a	n/a	n/a	-999	3	[0, 0, 0]	n/a	catFR1	0	R1169P
398.492	0.016	541132	START	n/a	n/a	n/a	n/a	-999	3	[-999, -999, -999]	n/a	catFR1	0	R1169P
398.508	5.717	541148	PROB	5.678	n/a	n/a	n/a	-999	3	[5, 5, 6]	16.0	catFR1	0	R1169P
404.225	7.719	546865	PROB	7.692	n/a	n/a	n/a	-999	3	[4, 4, 4]	12.0	catFR1	0	R1169P
411.944	6.234	554584	PROB	6.211	n/a	n/a	n/a	-999	3	[4, 3, 6]	13.0	catFR1	0	R1169P
418.178	30.962	560817	PROB	30.962	n/a	n/a	n/a	-999	3	[9, 4, 3]	16.0	catFR1	0	R1169P
449.14	0.011	591778	STOP	n/a	n/a	n/a	n/a	-999	3	[-999, -999, -999]	n/a	catFR1	0	R1169P
449.151	0.534	591789	DISTRACT_END	n/a	n/a	n/a	n/a	-999	3	[0, 0, 0]	n/a	catFR1	0	R1169P
449.685	0.516	592323	RETRIEVAL_ORIENT	n/a	n/a	n/a	n/a	-999	3	[0, 0, 0]	n/a	catFR1	0	R1169P
450.201	2.769	592839	REC_START	n/a	n/a	n/a	n/a	-999	3	[0, 0, 0]	n/a	catFR1	0	R1169P
452.97	0.682	595608	REC_WORD_VV	2.769	n/a	<>	n/a	-999	3	[0, 0, 0]	n/a	catFR1	0	R1169P
453.652	2.393	596290	REC_WORD_VV	3.451	n/a	<>	n/a	-999	3	[0, 0, 0]	n/a	catFR1	0	R1169P
456.045	3.447	598683	REC_WORD	5.844	n/a	CHEETAH	Zoo	5	3	[0, 0, 0]	n/a	catFR1	0	R1169P
459.492	1.0	602129	REC_WORD	9.291	n/a	ORANGUTAN	Zoo	12	3	[0, 0, 0]	n/a	catFR1	0	R1169P
460.492	5.21	603129	REC_WORD_VV	10.291	n/a	<>	n/a	-999	3	[0, 0, 0]	n/a	catFR1	0	R1169P
465.702	5.33	608339	REC_WORD	15.501	n/a	PANDA	Zoo	6	3	[0, 0, 0]	n/a	catFR1	0	R1169P
471.032	0.67	613669	REC_WORD	20.831	n/a	VAN	Vehicles	1	3	[0, 0, 0]	n/a	catFR1	0	R1169P
471.702	3.073	614339	REC_WORD	21.501	n/a	JEEP	Vehicles	9	3	[0, 0, 0]	n/a	catFR1	0	R1169P
474.775	3.81	617412	REC_WORD	24.574	n/a	PLANE	Vehicles	10	3	[0, 0, 0]	n/a	catFR1	0	R1169P
478.585	0.744	621221	REC_WORD	28.384	n/a	SAFARI	n/a	-999	3	[0, 0, 0]	n/a	catFR1	0	R1169P
479.329	0.883	621965	REC_WORD	29.128	n/a	PERIOD	n/a	-999	3	[0, 0, 0]	n/a	catFR1	0	R1169P
480.212	7.363	622848	REC_END	n/a	n/a	n/a	n/a	-999	3	[0, 0, 0]	n/a	catFR1	0	R1169P
487.575	0.5	630211	TRIAL	n/a	n/a	n/a	n/a	-999	4	[0, 0, 0]	n/a	catFR1	0	R1169P
488.075	10.428	630711	COUNTDOWN_START	n/a	n/a	n/a	n/a	-999	4	[0, 0, 0]	n/a	catFR1	0	R1169P
498.503	0.008	641138	COUNTDOWN_END	n/a	n/a	n/a	n/a	-999	4	[0, 0, 0]	n/a	catFR1	0	R1169P
498.511	1.615	641146	ORIENT	n/a	n/a	n/a	n/a	-999	4	[0, 0, 0]	n/a	catFR1	0	R1169P
500.126	2.302	642761	ORIENT_OFF	n/a	n/a	n/a	n/a	-999	4	[0, 0, 0]	n/a	catFR1	0	R1169P
502.428	1.616	645063	WORD	n/a	wordpools/wordpool_categorized_EN.txt	NOSE	BodyParts	1	4	[0, 0, 0]	n/a	catFR1	0	R1169P
504.044	0.818	646679	WORD_OFF	n/a	n/a	NOSE	n/a	1	4	[0, 0, 0]	n/a	catFR1	0	R1169P
504.862	1.617	647497	WORD	n/a	wordpools/wordpool_categorized_EN.txt	LEG	BodyParts	2	4	[0, 0, 0]	n/a	catFR1	0	R1169P
506.479	0.95	649114	WORD_OFF	n/a	n/a	LEG	n/a	2	4	[0, 0, 0]	n/a	catFR1	0	R1169P
507.429	1.616	650064	WORD	n/a	wordpools/wordpool_categorized_EN.txt	CAR	Vehicles	3	4	[0, 0, 0]	n/a	catFR1	0	R1169P
509.045	0.884	651680	WORD_OFF	n/a	n/a	CAR	n/a	3	4	[0, 0, 0]	n/a	catFR1	0	R1169P
509.929	1.617	652564	WORD	n/a	wordpools/wordpool_categorized_EN.txt	SCOOTER	Vehicles	4	4	[0, 0, 0]	n/a	catFR1	0	R1169P
511.546	0.801	654181	WORD_OFF	n/a	n/a	SCOOTER	n/a	4	4	[0, 0, 0]	n/a	catFR1	0	R1169P
512.347	1.616	654982	WORD	n/a	wordpools/wordpool_categorized_EN.txt	ISLAND	Landscapes	5	4	[0, 0, 0]	n/a	catFR1	0	R1169P
513.963	0.934	656598	WORD_OFF	n/a	n/a	ISLAND	n/a	5	4	[0, 0, 0]	n/a	catFR1	0	R1169P
514.897	1.617	657532	WORD	n/a	wordpools/wordpool_categorized_EN.txt	STREAM	Landscapes	6	4	[0, 0, 0]	n/a	catFR1	0	R1169P
516.514	0.917	659148	WORD_OFF	n/a	n/a	STREAM	n/a	6	4	[0, 0, 0]	n/a	catFR1	0	R1169P
517.431	1.616	660065	WORD	n/a	wordpools/wordpool_categorized_EN.txt	BOAT	Vehicles	7	4	[0, 0, 0]	n/a	catFR1	0	R1169P
519.047	0.784	661681	WORD_OFF	n/a	n/a	BOAT	n/a	7	4	[0, 0, 0]	n/a	catFR1	0	R1169P
519.831	1.617	662465	WORD	n/a	wordpools/wordpool_categorized_EN.txt	BIKE	Vehicles	8	4	[0, 0, 0]	n/a	catFR1	0	R1169P
521.448	0.8	664082	WORD_OFF	n/a	n/a	BIKE	n/a	8	4	[0, 0, 0]	n/a	catFR1	0	R1169P
522.248	1.617	664882	WORD	n/a	wordpools/wordpool_categorized_EN.txt	HAND	BodyParts	9	4	[0, 0, 0]	n/a	catFR1	0	R1169P
523.865	0.934	666499	WORD_OFF	n/a	n/a	HAND	n/a	9	4	[0, 0, 0]	n/a	catFR1	0	R1169P
524.799	1.617	667433	WORD	n/a	wordpools/wordpool_categorized_EN.txt	ELBOW	BodyParts	10	4	[0, 0, 0]	n/a	catFR1	0	R1169P
526.416	1.0	669050	WORD_OFF	n/a	n/a	ELBOW	n/a	10	4	[0, 0, 0]	n/a	catFR1	0	R1169P
527.416	1.617	670050	WORD	n/a	wordpools/wordpool_categorized_EN.txt	BEACH	Landscapes	11	4	[0, 0, 0]	n/a	catFR1	0	R1169P
529.033	0.917	671667	WORD_OFF	n/a	n/a	BEACH	n/a	11	4	[0, 0, 0]	n/a	catFR1	0	R1169P
529.95	1.617	672584	WORD	n/a	wordpools/wordpool_categorized_EN.txt	HILLS	Landscapes	12	4	[0, 0, 0]	n/a	catFR1	0	R1169P
531.567	0.0	674201	WORD_OFF	n/a	n/a	HILLS	n/a	12	4	[0, 0, 0]	n/a	catFR1	0	R1169P
531.567	0.136	674201	ENCODING_END	n/a	n/a	n/a	n/a	-999	4	[0, 0, 0]	n/a	catFR1	0	R1169P
531.703	0.0	674337	DISTRACT_START	n/a	n/a	n/a	n/a	-999	4	[0, 0, 0]	n/a	catFR1	0	R1169P
531.703	0.014	674337	START	n/a	n/a	n/a	n/a	-999	4	[-999, -999, -999]	n/a	catFR1	0	R1169P
531.717	28.574	674351	PROB	28.574	n/a	n/a	n/a	-999	4	[7, 8, 7]	22.0	catFR1	0	R1169P
560.291	0.015	702923	STOP	n/a	n/a	n/a	n/a	-999	4	[-999, -999, -999]	n/a	catFR1	0	R1169P
560.306	0.7	702938	DISTRACT_END	n/a	n/a	n/a	n/a	-999	4	[0, 0, 0]	n/a	catFR1	0	R1169P
561.006	0.517	703638	RETRIEVAL_ORIENT	n/a	n/a	n/a	n/a	-999	4	[0, 0, 0]	n/a	catFR1	0	R1169P
561.523	2.615	704155	REC_START	n/a	n/a	n/a	n/a	-999	4	[0, 0, 0]	n/a	catFR1	0	R1169P
564.138	0.506	706770	REC_WORD_VV	2.615	n/a	<>	n/a	-999	4	[0, 0, 0]	n/a	catFR1	0	R1169P
564.644	0.668	707276	REC_WORD	3.121	n/a	ELBOW	BodyParts	10	4	[0, 0, 0]	n/a	catFR1	0	R1169P
565.312	0.615	707944	REC_WORD	3.789	n/a	LEG	BodyParts	2	4	[0, 0, 0]	n/a	catFR1	0	R1169P
565.927	1.966	708559	REC_WORD	4.404	n/a	NECK	n/a	-999	4	[0, 0, 0]	n/a	catFR1	0	R1169P
567.893	1.0	710525	REC_WORD_VV	6.37	n/a	<>	n/a	-999	4	[0, 0, 0]	n/a	catFR1	0	R1169P
568.893	2.974	711525	REC_WORD_VV	7.37	n/a	<>	n/a	-999	4	[0, 0, 0]	n/a	catFR1	0	R1169P
571.867	1.376	714499	REC_WORD_VV	10.344	n/a	<>	n/a	-999	4	[0, 0, 0]	n/a	catFR1	0	R1169P
573.243	0.543	715875	REC_WORD	11.72	n/a	ELBOW	BodyParts	10	4	[0, 0, 0]	n/a	catFR1	0	R1169P
573.786	0.548	716418	REC_WORD	12.263	n/a	LEG	BodyParts	2	4	[0, 0, 0]	n/a	catFR1	0	R1169P
574.334	4.625	716966	REC_WORD	12.811	n/a	NECK	n/a	-999	4	[0, 0, 0]	n/a	catFR1	0	R1169P
578.959	2.103	721590	REC_WORD	17.436	n/a	STREAM	Landscapes	6	4	[0, 0, 0]	n/a	catFR1	0	R1169P
581.062	1.0	723693	REC_WORD_VV	19.539	n/a	<>	n/a	-999	4	[0, 0, 0]	n/a	catFR1	0	R1169P
582.062	1.0	724693	REC_WORD_VV	20.539	n/a	<>	n/a	-999	4	[0, 0, 0]	n/a	catFR1	0	R1169P
583.062	1.0	725693	REC_WORD_VV	21.539	n/a	<>	n/a	-999	4	[0, 0, 0]	n/a	catFR1	0	R1169P
584.062	4.283	726693	REC_WORD_VV	22.539	n/a	<>	n/a	-999	4	[0, 0, 0]	n/a	catFR1	0	R1169P
588.345	3.188	730976	REC_WORD	26.822	n/a	NOSE	BodyParts	1	4	[0, 0, 0]	n/a	catFR1	0	R1169P
591.533	5.496	734164	REC_END	n/a	n/a	n/a	n/a	-999	4	[0, 0, 0]	n/a	catFR1	0	R1169P
597.029	0.5	739659	TRIAL	n/a	n/a	n/a	n/a	-999	5	[0, 0, 0]	n/a	catFR1	0	R1169P
597.529	10.428	740159	COUNTDOWN_START	n/a	n/a	n/a	n/a	-999	5	[0, 0, 0]	n/a	catFR1	0	R1169P
607.957	0.008	750587	COUNTDOWN_END	n/a	n/a	n/a	n/a	-999	5	[0, 0, 0]	n/a	catFR1	0	R1169P
607.965	1.616	750595	ORIENT	n/a	n/a	n/a	n/a	-999	5	[0, 0, 0]	n/a	catFR1	0	R1169P
609.581	1.884	752211	ORIENT_OFF	n/a	n/a	n/a	n/a	-999	5	[0, 0, 0]	n/a	catFR1	0	R1169P
611.465	1.616	754095	WORD	n/a	wordpools/wordpool_categorized_EN.txt	STAPLER	OfficeSupplies	1	5	[0, 0, 0]	n/a	catFR1	0	R1169P
613.081	0.984	755711	WORD_OFF	n/a	n/a	STAPLER	n/a	1	5	[0, 0, 0]	n/a	catFR1	0	R1169P
614.065	1.618	756695	WORD	n/a	wordpools/wordpool_categorized_EN.txt	PAPER	OfficeSupplies	2	5	[0, 0, 0]	n/a	catFR1	0	R1169P
615.683	0.85	758312	WORD_OFF	n/a	n/a	PAPER	n/a	2	5	[0, 0, 0]	n/a	catFR1	0	R1169P
616.533	1.615	759162	WORD	n/a	wordpools/wordpool_categorized_EN.txt	LETTUCE	Vegetables	3	5	[0, 0, 0]	n/a	catFR1	0	R1169P
618.148	0.785	760777	WORD_OFF	n/a	n/a	LETTUCE	n/a	3	5	[0, 0, 0]	n/a	catFR1	0	R1169P
618.933	1.617	761562	WORD	n/a	wordpools/wordpool_categorized_EN.txt	SPINACH	Vegetables	4	5	[0, 0, 0]	n/a	catFR1	0	R1169P
620.55	0.834	763179	WORD_OFF	n/a	n/a	SPINACH	n/a	4	5	[0, 0, 0]	n/a	catFR1	0	R1169P
621.384	1.617	764013	WORD	n/a	wordpools/wordpool_categorized_EN.txt	FOG	Weather	5	5	[0, 0, 0]	n/a	catFR1	0	R1169P
623.001	0.883	765630	WORD_OFF	n/a	n/a	FOG	n/a	5	5	[0, 0, 0]	n/a	catFR1	0	R1169P
623.884	1.617	766513	WORD	n/a	wordpools/wordpool_categorized_EN.txt	DRIZZLE	Weather	6	5	[0, 0, 0]	n/a	catFR1	0	R1169P
625.501	0.884	768130	WORD_OFF	n/a	n/a	DRIZZLE	n/a	6	5	[0, 0, 0]	n/a	catFR1	0	R1169P
626.385	1.617	769014	WORD	n/a	wordpools/wordpool_categorized_EN.txt	FOLDER	OfficeSupplies	7	5	[0, 0, 0]	n/a	catFR1	0	R1169P
628.002	0.916	770631	WORD_OFF	n/a	n/a	FOLDER	n/a	7	5	[0, 0, 0]	n/a	catFR1	0	R1169P
628.918	1.617	771547	WORD	n/a	wordpools/wordpool_categorized_EN.txt	BINDER	OfficeSupplies	8	5	[0, 0, 0]	n/a	catFR1	0	R1169P
630.535	0.817	773164	WORD_OFF	n/a	n/a	BINDER	n/a	8	5	[0, 0, 0]	n/a	catFR1	0	R1169P
631.352	1.617	773981	WORD	n/a	wordpools/wordpool_categorized_EN.txt	CORN	Vegetables	9	5	[0, 0, 0]	n/a	catFR1	0	R1169P
632.969	0.9	775598	WORD_OFF	n/a	n/a	CORN	n/a	9	5	[0, 0, 0]	n/a	catFR1	0	R1169P
633.869	1.617	776498	WORD	n/a	wordpools/wordpool_categorized_EN.txt	CAULIFLOWER	Vegetables	10	5	[0, 0, 0]	n/a	catFR1	0	R1169P
635.486	0.834	778114	WORD_OFF	n/a	n/a	CAULIFLOWER	n/a	10	5	[0, 0, 0]	n/a	catFR1	0	R1169P
636.32	1.617	778948	WORD	n/a	wordpools/wordpool_categorized_EN.txt	HUMIDITY	Weather	11	5	[0, 0, 0]	n/a	catFR1	0	R1169P
637.937	0.85	780565	WORD_OFF	n/a	n/a	HUMIDITY	n/a	11	5	[0, 0, 0]	n/a	catFR1	0	R1169P
638.787	1.617	781415	WORD	n/a	wordpools/wordpool_categorized_EN.txt	THUNDERSTORM	Weather	12	5	[0, 0, 0]	n/a	catFR1	0	R1169P
640.404	0.0	783032	ENCODING_END	n/a	n/a	n/a	n/a	-999	5	[0, 0, 0]	n/a	catFR1	0	R1169P
640.404	0.103	783032	WORD_OFF	n/a	n/a	THUNDERSTORM	n/a	12	5	[0, 0, 0]	n/a	catFR1	0	R1169P
640.507	0.0	783135	DISTRACT_START	n/a	n/a	n/a	n/a	-999	5	[0, 0, 0]	n/a	catFR1	0	R1169P
640.507	0.014	783135	START	n/a	n/a	n/a	n/a	-999	5	[-999, -999, -999]	n/a	catFR1	0	R1169P
640.521	13.336	783149	PROB	13.299	n/a	n/a	n/a	-999	5	[3, 9, 2]	14.0	catFR1	0	R1169P
653.857	5.216	796484	PROB	5.193	n/a	n/a	n/a	-999	5	[3, 2, 8]	13.0	catFR1	0	R1169P
659.073	5.836	801700	PROB	5.836	n/a	n/a	n/a	-999	5	[3, 9, 1]	13.0	catFR1	0	R1169P
664.909	0.016	807536	STOP	n/a	n/a	n/a	n/a	-999	5	[-999, -999, -999]	n/a	catFR1	0	R1169P
664.925	0.6	807552	DISTRACT_END	n/a	n/a	n/a	n/a	-999	5	[0, 0, 0]	n/a	catFR1	0	R1169P
665.525	0.517	808152	RETRIEVAL_ORIENT	n/a	n/a	n/a	n/a	-999	5	[0, 0, 0]	n/a	catFR1	0	R1169P
666.042	1.809	808669	REC_START	n/a	n/a	n/a	n/a	-999	5	[0, 0, 0]	n/a	catFR1	0	R1169P
667.851	0.776	810478	REC_WORD_VV	1.809	n/a	<>	n/a	-999	5	[0, 0, 0]	n/a	catFR1	0	R1169P
668.627	1.0	811254	REC_WORD	2.585	n/a	CALENDAR	n/a	-999	5	[0, 0, 0]	n/a	catFR1	0	R1169P
669.627	1.092	812254	REC_WORD_VV	3.585	n/a	<>	n/a	-999	5	[0, 0, 0]	n/a	catFR1	0	R1169P
670.719	0.823	813346	REC_WORD	4.677	n/a	STAPLER	OfficeSupplies	1	5	[0, 0, 0]	n/a	catFR1	0	R1169P
671.542	4.63	814169	REC_WORD	5.5	n/a	FOLDER	OfficeSupplies	7	5	[0, 0, 0]	n/a	catFR1	0	R1169P
676.172	0.721	818798	REC_WORD_VV	10.13	n/a	<>	n/a	-999	5	[0, 0, 0]	n/a	catFR1	0	R1169P
676.893	1.0	819519	REC_WORD	10.851	n/a	CAULIFLOWER	Vegetables	10	5	[0, 0, 0]	n/a	catFR1	0	R1169P
677.893	1.331	820519	REC_WORD_VV	11.851	n/a	<>	n/a	-999	5	[0, 0, 0]	n/a	catFR1	0	R1169P
679.224	1.0	821850	REC_WORD	13.182	n/a	CABBAGE	n/a	-999	5	[0, 0, 0]	n/a	catFR1	0	R1169P
680.224	4.703	822850	REC_WORD_VV	14.182	n/a	<>	n/a	-999	5	[0, 0, 0]	n/a	catFR1	0	R1169P
684.927	0.424	827553	REC_WORD_VV	18.885	n/a	<>	n/a	-999	5	[0, 0, 0]	n/a	catFR1	0	R1169P
685.351	0.299	827977	REC_WORD	19.309	n/a	FOLDER	OfficeSupplies	7	5	[0, 0, 0]	n/a	catFR1	0	R1169P
685.65	1.0	828276	REC_WORD_VV	19.608	n/a	<>	n/a	-999	5	[0, 0, 0]	n/a	catFR1	0	R1169P
686.65	1.018	829276	REC_WORD_VV	20.608	n/a	<>	n/a	-999	5	[0, 0, 0]	n/a	catFR1	0	R1169P
687.668	6.231	830294	REC_WORD_VV	21.626	n/a	<>	n/a	-999	5	[0, 0, 0]	n/a	catFR1	0	R1169P
693.899	1.0	836524	REC_WORD_VV	27.857	n/a	<>	n/a	-999	5	[0, 0, 0]	n/a	catFR1	0	R1169P
694.899	1.0	837524	REC_WORD_VV	28.857	n/a	<>	n/a	-999	5	[0, 0, 0]	n/a	catFR1	0	R1169P
695.899	0.155	838524	REC_WORD_VV	29.857	n/a	<>	n/a	-999	5	[0, 0, 0]	n/a	catFR1	0	R1169P
696.054	7.262	838679	REC_END	n/a	n/a	n/a	n/a	-999	5	[0, 0, 0]	n/a	catFR1	0	R1169P
703.316	0.5	845941	TRIAL	n/a	n/a	n/a	n/a	-999	6	[0, 0, 0]	n/a	catFR1	0	R1169P
703.816	10.428	846441	COUNTDOWN_START	n/a	n/a	n/a	n/a	-999	6	[0, 0, 0]	n/a	catFR1	0	R1169P
714.244	0.007	856868	COUNTDOWN_END	n/a	n/a	n/a	n/a	-999	6	[0, 0, 0]	n/a	catFR1	0	R1169P
714.251	1.617	856875	ORIENT	n/a	n/a	n/a	n/a	-999	6	[0, 0, 0]	n/a	catFR1	0	R1169P
715.868	1.934	858492	ORIENT_OFF	n/a	n/a	n/a	n/a	-999	6	[0, 0, 0]	n/a	catFR1	0	R1169P
717.802	1.617	860426	WORD	n/a	wordpools/wordpool_categorized_EN.txt	BASKETBALL	Toys	1	6	[0, 0, 0]	n/a	catFR1	0	R1169P
719.419	0.833	862043	WORD_OFF	n/a	n/a	BASKETBALL	n/a	1	6	[0, 0, 0]	n/a	catFR1	0	R1169P
720.252	1.617	862876	WORD	n/a	wordpools/wordpool_categorized_EN.txt	FOOTBALL	Toys	2	6	[0, 0, 0]	n/a	catFR1	0	R1169P
721.869	0.834	864493	WORD_OFF	n/a	n/a	FOOTBALL	n/a	2	6	[0, 0, 0]	n/a	catFR1	0	R1169P
722.703	1.617	865327	WORD	n/a	wordpools/wordpool_categorized_EN.txt	SPOON	KitchenTools	3	6	[0, 0, 0]	n/a	catFR1	0	R1169P
724.32	0.816	866944	WORD_OFF	n/a	n/a	SPOON	n/a	3	6	[0, 0, 0]	n/a	catFR1	0	R1169P
725.136	1.617	867760	WORD	n/a	wordpools/wordpool_categorized_EN.txt	FORK	KitchenTools	4	6	[0, 0, 0]	n/a	catFR1	0	R1169P
726.753	0.884	869377	WORD_OFF	n/a	n/a	FORK	n/a	4	6	[0, 0, 0]	n/a	catFR1	0	R1169P
727.637	1.617	870261	WORD	n/a	wordpools/wordpool_categorized_EN.txt	WALNUT	Trees	5	6	[0, 0, 0]	n/a	catFR1	0	R1169P
729.254	0.799	871878	WORD_OFF	n/a	n/a	WALNUT	n/a	5	6	[0, 0, 0]	n/a	catFR1	0	R1169P
730.053	1.601	872677	WORD	n/a	wordpools/wordpool_categorized_EN.txt	CEDAR	Trees	6	6	[0, 0, 0]	n/a	catFR1	0	R1169P
731.654	0.967	874278	WORD_OFF	n/a	n/a	CEDAR	n/a	6	6	[0, 0, 0]	n/a	catFR1	0	R1169P
732.621	1.617	875245	WORD	n/a	wordpools/wordpool_categorized_EN.txt	WHISK	KitchenTools	7	6	[0, 0, 0]	n/a	catFR1	0	R1169P
734.238	0.784	876861	WORD_OFF	n/a	n/a	WHISK	n/a	7	6	[0, 0, 0]	n/a	catFR1	0	R1169P
735.022	1.617	877645	WORD	n/a	wordpools/wordpool_categorized_EN.txt	STRAINER	KitchenTools	8	6	[0, 0, 0]	n/a	catFR1	0	R1169P
736.639	0.9	879262	WORD_OFF	n/a	n/a	STRAINER	n/a	8	6	[0, 0, 0]	n/a	catFR1	0	R1169P
737.539	1.616	880162	WORD	n/a	wordpools/wordpool_categorized_EN.txt	BLOCKS	Toys	9	6	[0, 0, 0]	n/a	catFR1	0	R1169P
739.155	0.784	881778	WORD_OFF	n/a	n/a	BLOCKS	n/a	9	6	[0, 0, 0]	n/a	catFR1	0	R1169P
739.939	1.617	882562	WORD	n/a	wordpools/wordpool_categorized_EN.txt	SLINKY	Toys	10	6	[0, 0, 0]	n/a	catFR1	0	R1169P
741.556	0.8	884179	WORD_OFF	n/a	n/a	SLINKY	n/a	10	6	[0, 0, 0]	n/a	catFR1	0	R1169P
742.356	1.617	884979	WORD	n/a	wordpools/wordpool_categorized_EN.txt	ELM	Trees	11	6	[0, 0, 0]	n/a	catFR1	0	R1169P
743.973	0.784	886596	WORD_OFF	n/a	n/a	ELM	n/a	11	6	[0, 0, 0]	n/a	catFR1	0	R1169P
744.757	1.617	887380	WORD	n/a	wordpools/wordpool_categorized_EN.txt	WILLOW	Trees	12	6	[0, 0, 0]	n/a	catFR1	0	R1169P
746.374	0.0	888997	ENCODING_END	n/a	n/a	n/a	n/a	-999	6	[0, 0, 0]	n/a	catFR1	0	R1169P
746.374	0.102	888997	WORD_OFF	n/a	n/a	WILLOW	n/a	12	6	[0, 0, 0]	n/a	catFR1	0	R1169P
746.476	0.0	889099	DISTRACT_START	n/a	n/a	n/a	n/a	-999	6	[0, 0, 0]	n/a	catFR1	0	R1169P
746.476	0.015	889099	START	n/a	n/a	n/a	n/a	-999	6	[-999, -999, -999]	n/a	catFR1	0	R1169P
746.491	8.55	889114	PROB	8.529	n/a	n/a	n/a	-999	6	[5, 4, 4]	13.0	catFR1	0	R1169P
755.041	7.803	897663	PROB	7.78	n/a	n/a	n/a	-999	6	[9, 9, 2]	20.0	catFR1	0	R1169P
762.844	7.513	905466	PROB	7.513	n/a	n/a	n/a	-999	6	[1, 9, 3]	13.0	catFR1	0	R1169P
770.357	0.022	912979	STOP	n/a	n/a	n/a	n/a	-999	6	[-999, -999, -999]	n/a	catFR1	0	R1169P
770.379	0.682	913001	DISTRACT_END	n/a	n/a	n/a	n/a	-999	6	[0, 0, 0]	n/a	catFR1	0	R1169P
771.061	0.518	913683	RETRIEVAL_ORIENT	n/a	n/a	n/a	n/a	-999	6	[0, 0, 0]	n/a	catFR1	0	R1169P
771.579	2.028	914201	REC_START	n/a	n/a	n/a	n/a	-999	6	[0, 0, 0]	n/a	catFR1	0	R1169P
773.607	1.132	916228	REC_WORD_VV	2.028	n/a	<>	n/a	-999	6	[0, 0, 0]	n/a	catFR1	0	R1169P
774.739	0.787	917360	REC_WORD	3.16	n/a	ELM	Trees	11	6	[0, 0, 0]	n/a	catFR1	0	R1169P
775.526	11.497	918147	REC_WORD	3.947	n/a	WILLOW	Trees	12	6	[0, 0, 0]	n/a	catFR1	0	R1169P
787.023	1.0	929644	REC_WORD_VV	15.444	n/a	<>	n/a	-999	6	[0, 0, 0]	n/a	catFR1	0	R1169P
788.023	2.47	930644	REC_WORD_VV	16.444	n/a	<>	n/a	-999	6	[0, 0, 0]	n/a	catFR1	0	R1169P
790.493	1.614	933114	REC_WORD_VV	18.914	n/a	<>	n/a	-999	6	[0, 0, 0]	n/a	catFR1	0	R1169P
792.107	1.818	934727	REC_WORD_VV	20.528	n/a	<>	n/a	-999	6	[0, 0, 0]	n/a	catFR1	0	R1169P
793.925	1.0	936545	REC_WORD_VV	22.346	n/a	<>	n/a	-999	6	[0, 0, 0]	n/a	catFR1	0	R1169P
794.925	1.0	937545	REC_WORD_VV	23.346	n/a	<>	n/a	-999	6	[0, 0, 0]	n/a	catFR1	0	R1169P
795.925	3.541	938545	REC_WORD_VV	24.346	n/a	<>	n/a	-999	6	[0, 0, 0]	n/a	catFR1	0	R1169P
799.466	1.0	942086	REC_WORD_VV	27.887	n/a	<>	n/a	-999	6	[0, 0, 0]	n/a	catFR1	0	R1169P
800.466	1.0	943086	REC_WORD_VV	28.887	n/a	<>	n/a	-999	6	[0, 0, 0]	n/a	catFR1	0	R1169P
801.466	0.125	944086	REC_WORD_VV	29.887	n/a	<>	n/a	-999	6	[0, 0, 0]	n/a	catFR1	0	R1169P
801.591	15.663	944211	REC_END	n/a	n/a	n/a	n/a	-999	6	[0, 0, 0]	n/a	catFR1	0	R1169P
817.254	0.5	959873	TRIAL	n/a	n/a	n/a	n/a	-999	7	[0, 0, 0]	n/a	catFR1	0	R1169P
817.754	10.428	960373	COUNTDOWN_START	n/a	n/a	n/a	n/a	-999	7	[0, 0, 0]	n/a	catFR1	0	R1169P
828.182	0.006	970801	COUNTDOWN_END	n/a	n/a	n/a	n/a	-999	7	[0, 0, 0]	n/a	catFR1	0	R1169P
828.188	1.601	970807	ORIENT	n/a	n/a	n/a	n/a	-999	7	[0, 0, 0]	n/a	catFR1	0	R1169P
829.789	2.001	972408	ORIENT_OFF	n/a	n/a	n/a	n/a	-999	7	[0, 0, 0]	n/a	catFR1	0	R1169P
831.79	1.617	974408	WORD	n/a	wordpools/wordpool_categorized_EN.txt	HEAD	BodyParts	1	7	[0, 0, 0]	n/a	catFR1	0	R1169P
833.407	0.867	976025	WORD_OFF	n/a	n/a	HEAD	n/a	1	7	[0, 0, 0]	n/a	catFR1	0	R1169P
834.274	1.617	976892	WORD	n/a	wordpools/wordpool_categorized_EN.txt	ARM	BodyParts	2	7	[0, 0, 0]	n/a	catFR1	0	R1169P
835.891	1.0	978509	WORD_OFF	n/a	n/a	ARM	n/a	2	7	[0, 0, 0]	n/a	catFR1	0	R1169P
836.891	1.617	979509	WORD	n/a	wordpools/wordpool_categorized_EN.txt	PIG	FarmAnimals	3	7	[0, 0, 0]	n/a	catFR1	0	R1169P
838.508	1.0	981126	WORD_OFF	n/a	n/a	PIG	n/a	3	7	[0, 0, 0]	n/a	catFR1	0	R1169P
839.508	1.616	982126	WORD	n/a	wordpools/wordpool_categorized_EN.txt	SHEEP	FarmAnimals	4	7	[0, 0, 0]	n/a	catFR1	0	R1169P
841.124	1.0	983742	WORD_OFF	n/a	n/a	SHEEP	n/a	4	7	[0, 0, 0]	n/a	catFR1	0	R1169P
842.124	1.618	984742	WORD	n/a	wordpools/wordpool_categorized_EN.txt	SPRUCE	Trees	5	7	[0, 0, 0]	n/a	catFR1	0	R1169P
843.742	0.8	986360	WORD_OFF	n/a	n/a	SPRUCE	n/a	5	7	[0, 0, 0]	n/a	catFR1	0	R1169P
844.542	1.616	987160	WORD	n/a	wordpools/wordpool_categorized_EN.txt	OAK	Trees	6	7	[0, 0, 0]	n/a	catFR1	0	R1169P
846.158	0.785	988776	WORD_OFF	n/a	n/a	OAK	n/a	6	7	[0, 0, 0]	n/a	catFR1	0	R1169P
846.943	1.617	989561	WORD	n/a	wordpools/wordpool_categorized_EN.txt	FOOT	BodyParts	7	7	[0, 0, 0]	n/a	catFR1	0	R1169P
848.56	0.9	991178	WORD_OFF	n/a	n/a	FOOT	n/a	7	7	[0, 0, 0]	n/a	catFR1	0	R1169P
849.46	1.616	992078	WORD	n/a	wordpools/wordpool_categorized_EN.txt	EAR	BodyParts	8	7	[0, 0, 0]	n/a	catFR1	0	R1169P
851.076	0.784	993693	WORD_OFF	n/a	n/a	EAR	n/a	8	7	[0, 0, 0]	n/a	catFR1	0	R1169P
851.86	1.617	994477	WORD	n/a	wordpools/wordpool_categorized_EN.txt	HEN	FarmAnimals	9	7	[0, 0, 0]	n/a	catFR1	0	R1169P
853.477	1.001	996094	WORD_OFF	n/a	n/a	HEN	n/a	9	7	[0, 0, 0]	n/a	catFR1	0	R1169P
854.478	1.616	997095	WORD	n/a	wordpools/wordpool_categorized_EN.txt	CHICKEN	FarmAnimals	10	7	[0, 0, 0]	n/a	catFR1	0	R1169P
856.094	0.934	998711	WORD_OFF	n/a	n/a	CHICKEN	n/a	10	7	[0, 0, 0]	n/a	catFR1	0	R1169P
857.028	1.617	999645	WORD	n/a	wordpools/wordpool_categorized_EN.txt	CYPRESS	Trees	11	7	[0, 0, 0]	n/a	catFR1	0	R1169P
858.645	0.95	1001262	WORD_OFF	n/a	n/a	CYPRESS	n/a	11	7	[0, 0, 0]	n/a	catFR1	0	R1169P
859.595	1.616	1002212	WORD	n/a	wordpools/wordpool_categorized_EN.txt	PINE	Trees	12	7	[0, 0, 0]	n/a	catFR1	0	R1169P
861.211	0.0	1003828	ENCODING_END	n/a	n/a	n/a	n/a	-999	7	[0, 0, 0]	n/a	catFR1	0	R1169P
861.211	0.132	1003828	WORD_OFF	n/a	n/a	PINE	n/a	12	7	[0, 0, 0]	n/a	catFR1	0	R1169P
861.343	0.0	1003960	DISTRACT_START	n/a	n/a	n/a	n/a	-999	7	[0, 0, 0]	n/a	catFR1	0	R1169P
861.343	0.019	1003960	START	n/a	n/a	n/a	n/a	-999	7	[-999, -999, -999]	n/a	catFR1	0	R1169P
861.362	7.734	1003979	PROB	7.698	n/a	n/a	n/a	-999	7	[4, 1, 5]	10.0	catFR1	0	R1169P
869.096	4.001	1011713	PROB	3.971	n/a	n/a	n/a	-999	7	[4, 6, 3]	14.0	catFR1	0	R1169P
873.097	8.186	1015713	PROB	8.156	n/a	n/a	n/a	-999	7	[3, 5, 9]	17.0	catFR1	0	R1169P
881.283	4.801	1023899	PROB	4.801	n/a	n/a	n/a	-999	7	[3, 4, 3]	10.0	catFR1	0	R1169P
886.084	0.015	1028700	STOP	n/a	n/a	n/a	n/a	-999	7	[-999, -999, -999]	n/a	catFR1	0	R1169P
886.099	0.601	1028715	DISTRACT_END	n/a	n/a	n/a	n/a	-999	7	[0, 0, 0]	n/a	catFR1	0	R1169P
886.7	0.517	1029316	RETRIEVAL_ORIENT	n/a	n/a	n/a	n/a	-999	7	[0, 0, 0]	n/a	catFR1	0	R1169P
887.217	2.906	1029833	REC_START	n/a	n/a	n/a	n/a	-999	7	[0, 0, 0]	n/a	catFR1	0	R1169P
890.123	1.0	1032739	REC_WORD	2.906	n/a	CYPRESS	Trees	11	7	[0, 0, 0]	n/a	catFR1	0	R1169P
891.123	3.975	1033738	REC_WORD_VV	3.906	n/a	<>	n/a	-999	7	[0, 0, 0]	n/a	catFR1	0	R1169P
895.098	1.955	1037713	REC_WORD_VV	7.881	n/a	<>	n/a	-999	7	[0, 0, 0]	n/a	catFR1	0	R1169P
897.053	1.0	1039668	REC_WORD_VV	9.836	n/a	<>	n/a	-999	7	[0, 0, 0]	n/a	catFR1	0	R1169P
898.053	2.509	1040668	REC_WORD_VV	10.836	n/a	<>	n/a	-999	7	[0, 0, 0]	n/a	catFR1	0	R1169P
900.562	1.812	1043177	REC_WORD_VV	13.345	n/a	<>	n/a	-999	7	[0, 0, 0]	n/a	catFR1	0	R1169P
902.374	1.0	1044989	REC_WORD_VV	15.157	n/a	<>	n/a	-999	7	[0, 0, 0]	n/a	catFR1	0	R1169P
903.374	1.0	1045989	REC_WORD_VV	16.157	n/a	<>	n/a	-999	7	[0, 0, 0]	n/a	catFR1	0	R1169P
904.374	0.386	1046989	REC_WORD_VV	17.157	n/a	<>	n/a	-999	7	[0, 0, 0]	n/a	catFR1	0	R1169P
904.76	2.194	1047375	REC_WORD	17.543	n/a	LEG	n/a	-999	7	[0, 0, 0]	n/a	catFR1	0	R1169P
906.954	0.23	1049569	REC_WORD_VV	19.737	n/a	<>	n/a	-999	7	[0, 0, 0]	n/a	catFR1	0	R1169P
907.184	1.187	1049799	REC_WORD	19.967	n/a	PIG	FarmAnimals	3	7	[0, 0, 0]	n/a	catFR1	0	R1169P
908.371	1.032	1050986	REC_WORD	21.154	n/a	PIG	FarmAnimals	3	7	[0, 0, 0]	n/a	catFR1	0	R1169P
909.403	1.0	1052018	REC_WORD_VV	22.186	n/a	<>	n/a	-999	7	[0, 0, 0]	n/a	catFR1	0	R1169P
910.403	0.982	1053017	REC_WORD_VV	23.186	n/a	<>	n/a	-999	7	[0, 0, 0]	n/a	catFR1	0	R1169P
911.385	0.328	1053999	REC_WORD	24.168	n/a	PIG	FarmAnimals	3	7	[0, 0, 0]	n/a	catFR1	0	R1169P
911.713	1.279	1054327	REC_WORD	24.496	n/a	HEN	FarmAnimals	9	7	[0, 0, 0]	n/a	catFR1	0	R1169P
912.992	4.237	1055606	REC_WORD_VV	25.775	n/a	<>	n/a	-999	7	[0, 0, 0]	n/a	catFR1	0	R1169P
917.229	12.546	1059843	REC_END	n/a	n/a	n/a	n/a	-999	7	[0, 0, 0]	n/a	catFR1	0	R1169P
929.775	0.5	1072389	TRIAL	n/a	n/a	n/a	n/a	-999	8	[0, 0, 0]	n/a	catFR1	0	R1169P
930.275	10.428	1072888	COUNTDOWN_START	n/a	n/a	n/a	n/a	-999	8	[0, 0, 0]	n/a	catFR1	0	R1169P
940.703	0.007	1083316	COUNTDOWN_END	n/a	n/a	n/a	n/a	-999	8	[0, 0, 0]	n/a	catFR1	0	R1169P
940.71	1.617	1083323	ORIENT	n/a	n/a	n/a	n/a	-999	8	[0, 0, 0]	n/a	catFR1	0	R1169P
942.327	2.168	1084940	ORIENT_OFF	n/a	n/a	n/a	n/a	-999	8	[0, 0, 0]	n/a	catFR1	0	R1169P
944.495	1.615	1087108	WORD	n/a	wordpools/wordpool_categorized_EN.txt	VIOLIN	Instruments	1	8	[0, 0, 0]	n/a	catFR1	0	R1169P
946.11	0.967	1088723	WORD_OFF	n/a	n/a	VIOLIN	n/a	1	8	[0, 0, 0]	n/a	catFR1	0	R1169P
947.077	1.601	1089690	WORD	n/a	wordpools/wordpool_categorized_EN.txt	PIANO	Instruments	2	8	[0, 0, 0]	n/a	catFR1	0	R1169P
948.678	0.951	1091291	WORD_OFF	n/a	n/a	PIANO	n/a	2	8	[0, 0, 0]	n/a	catFR1	0	R1169P
949.629	1.617	1092241	WORD	n/a	wordpools/wordpool_categorized_EN.txt	THUNDER	Weather	3	8	[0, 0, 0]	n/a	catFR1	0	R1169P
951.246	0.816	1093858	WORD_OFF	n/a	n/a	THUNDER	n/a	3	8	[0, 0, 0]	n/a	catFR1	0	R1169P
952.062	1.618	1094674	WORD	n/a	wordpools/wordpool_categorized_EN.txt	SNOW	Weather	4	8	[0, 0, 0]	n/a	catFR1	0	R1169P
953.68	0.833	1096292	WORD_OFF	n/a	n/a	SNOW	n/a	4	8	[0, 0, 0]	n/a	catFR1	0	R1169P
954.513	1.616	1097125	WORD	n/a	wordpools/wordpool_categorized_EN.txt	BALL	Toys	5	8	[0, 0, 0]	n/a	catFR1	0	R1169P
956.129	0.917	1098741	WORD_OFF	n/a	n/a	BALL	n/a	5	8	[0, 0, 0]	n/a	catFR1	0	R1169P
957.046	1.618	1099658	WORD	n/a	wordpools/wordpool_categorized_EN.txt	DOLLHOUSE	Toys	6	8	[0, 0, 0]	n/a	catFR1	0	R1169P
958.664	0.9	1101276	WORD_OFF	n/a	n/a	DOLLHOUSE	n/a	6	8	[0, 0, 0]	n/a	catFR1	0	R1169P
959.564	1.616	1102176	WORD	n/a	wordpools/wordpool_categorized_EN.txt	WIND	Weather	7	8	[0, 0, 0]	n/a	catFR1	0	R1169P
961.18	0.867	1103792	WORD_OFF	n/a	n/a	WIND	n/a	7	8	[0, 0, 0]	n/a	catFR1	0	R1169P
962.047	1.618	1104659	WORD	n/a	wordpools/wordpool_categorized_EN.txt	CLOUD	Weather	8	8	[0, 0, 0]	n/a	catFR1	0	R1169P
963.665	1.017	1106277	WORD_OFF	n/a	n/a	CLOUD	n/a	8	8	[0, 0, 0]	n/a	catFR1	0	R1169P
964.682	1.617	1107294	WORD	n/a	wordpools/wordpool_categorized_EN.txt	BANJO	Instruments	9	8	[0, 0, 0]	n/a	catFR1	0	R1169P
966.299	0.899	1108911	WORD_OFF	n/a	n/a	BANJO	n/a	9	8	[0, 0, 0]	n/a	catFR1	0	R1169P
967.198	1.618	1109810	WORD	n/a	wordpools/wordpool_categorized_EN.txt	TRUMPET	Instruments	10	8	[0, 0, 0]	n/a	catFR1	0	R1169P
968.816	0.8	1111428	WORD_OFF	n/a	n/a	TRUMPET	n/a	10	8	[0, 0, 0]	n/a	catFR1	0	R1169P
969.616	1.616	1112227	WORD	n/a	wordpools/wordpool_categorized_EN.txt	DOLL	Toys	11	8	[0, 0, 0]	n/a	catFR1	0	R1169P
971.232	0.768	1113843	WORD_OFF	n/a	n/a	DOLL	n/a	11	8	[0, 0, 0]	n/a	catFR1	0	R1169P
972.0	1.617	1114611	WORD	n/a	wordpools/wordpool_categorized_EN.txt	FRISBEE	Toys	12	8	[0, 0, 0]	n/a	catFR1	0	R1169P
973.617	0.0	1116228	ENCODING_END	n/a	n/a	n/a	n/a	-999	8	[0, 0, 0]	n/a	catFR1	0	R1169P
973.617	0.101	1116228	WORD_OFF	n/a	n/a	FRISBEE	n/a	12	8	[0, 0, 0]	n/a	catFR1	0	R1169P
973.718	0.0	1116329	DISTRACT_START	n/a	n/a	n/a	n/a	-999	8	[0, 0, 0]	n/a	catFR1	0	R1169P
973.718	0.015	1116329	START	n/a	n/a	n/a	n/a	-999	8	[-999, -999, -999]	n/a	catFR1	0	R1169P
973.733	9.969	1116344	PROB	9.934	n/a	n/a	n/a	-999	8	[3, 2, 5]	10.0	catFR1	0	R1169P
983.702	8.752	1126313	PROB	8.725	n/a	n/a	n/a	-999	8	[8, 9, 8]	17.0	catFR1	0	R1169P
992.454	7.063	1135064	PROB	7.063	n/a	n/a	n/a	-999	8	[4, 1, 5]	10.0	catFR1	0	R1169P
999.517	0.021	1142127	STOP	n/a	n/a	n/a	n/a	-999	8	[-999, -999, -999]	n/a	catFR1	0	R1169P
999.538	0.682	1142148	DISTRACT_END	n/a	n/a	n/a	n/a	-999	8	[0, 0, 0]	n/a	catFR1	0	R1169P
1000.22	0.519	1142830	RETRIEVAL_ORIENT	n/a	n/a	n/a	n/a	-999	8	[0, 0, 0]	n/a	catFR1	0	R1169P
1000.739	6.463	1143349	REC_START	n/a	n/a	n/a	n/a	-999	8	[0, 0, 0]	n/a	catFR1	0	R1169P
1007.202	1.09	1149812	REC_WORD_VV	6.463	n/a	<>	n/a	-999	8	[0, 0, 0]	n/a	catFR1	0	R1169P
1008.292	1.0	1150902	REC_WORD_VV	7.553	n/a	<>	n/a	-999	8	[0, 0, 0]	n/a	catFR1	0	R1169P
1009.292	2.169	1151901	REC_WORD_VV	8.553	n/a	<>	n/a	-999	8	[0, 0, 0]	n/a	catFR1	0	R1169P
1011.461	1.0	1154070	REC_WORD	10.722	n/a	DOLLHOUSE	Toys	6	8	[0, 0, 0]	n/a	catFR1	0	R1169P
1012.461	0.75	1155070	REC_WORD_VV	11.722	n/a	<>	n/a	-999	8	[0, 0, 0]	n/a	catFR1	0	R1169P
1013.211	1.0	1155820	REC_WORD	12.472	n/a	FRISBEE	Toys	12	8	[0, 0, 0]	n/a	catFR1	0	R1169P
1014.211	4.347	1156820	REC_WORD_VV	13.472	n/a	<>	n/a	-999	8	[0, 0, 0]	n/a	catFR1	0	R1169P
1018.558	0.481	1161167	REC_WORD	17.819	n/a	INSTRUMENTS	n/a	-999	8	[0, 0, 0]	n/a	catFR1	0	R1169P
1019.039	0.488	1161648	REC_WORD_VV	18.3	n/a	<>	n/a	-999	8	[0, 0, 0]	n/a	catFR1	0	R1169P
1019.527	2.3	1162136	REC_WORD	18.788	n/a	VIOLIN	Instruments	1	8	[0, 0, 0]	n/a	catFR1	0	R1169P
1021.827	4.538	1164436	REC_WORD	21.088	n/a	PIANO	Instruments	2	8	[0, 0, 0]	n/a	catFR1	0	R1169P
1026.365	0.304	1168974	REC_WORD_VV	25.626	n/a	<>	n/a	-999	8	[0, 0, 0]	n/a	catFR1	0	R1169P
1026.669	0.486	1169278	REC_WORD	25.93	n/a	FRISBEE	Toys	12	8	[0, 0, 0]	n/a	catFR1	0	R1169P
1027.155	2.652	1169764	REC_WORD_VV	26.416	n/a	<>	n/a	-999	8	[0, 0, 0]	n/a	catFR1	0	R1169P
1029.807	0.291	1172415	REC_WORD_VV	29.068	n/a	<>	n/a	-999	8	[0, 0, 0]	n/a	catFR1	0	R1169P
1030.098	0.504	1172706	REC_WORD	29.359	n/a	FRISBEE	Toys	12	8	[0, 0, 0]	n/a	catFR1	0	R1169P
1030.602	0.148	1173210	REC_WORD_VV	29.863	n/a	<>	n/a	-999	8	[0, 0, 0]	n/a	catFR1	0	R1169P
1030.75	12.063	1173358	REC_END	n/a	n/a	n/a	n/a	-999	8	[0, 0, 0]	n/a	catFR1	0	R1169P
1042.813	0.5	1185421	TRIAL	n/a	n/a	n/a	n/a	-999	9	[0, 0, 0]	n/a	catFR1	0	R1169P
1043.313	10.428	1185921	COUNTDOWN_START	n/a	n/a	n/a	n/a	-999	9	[0, 0, 0]	n/a	catFR1	0	R1169P
1053.741	0.007	1196348	COUNTDOWN_END	n/a	n/a	n/a	n/a	-999	9	[0, 0, 0]	n/a	catFR1	0	R1169P
1053.748	1.617	1196355	ORIENT	n/a	n/a	n/a	n/a	-999	9	[0, 0, 0]	n/a	catFR1	0	R1169P
1055.365	1.984	1197972	ORIENT_OFF	n/a	n/a	n/a	n/a	-999	9	[0, 0, 0]	n/a	catFR1	0	R1169P
1057.349	1.617	1199956	WORD	n/a	wordpools/wordpool_categorized_EN.txt	FLUTE	Instruments	1	9	[0, 0, 0]	n/a	catFR1	0	R1169P
1058.966	0.9	1201573	WORD_OFF	n/a	n/a	FLUTE	n/a	1	9	[0, 0, 0]	n/a	catFR1	0	R1169P
1059.866	1.617	1202473	WORD	n/a	wordpools/wordpool_categorized_EN.txt	TROMBONE	Instruments	2	9	[0, 0, 0]	n/a	catFR1	0	R1169P
1061.483	0.9	1204090	WORD_OFF	n/a	n/a	TROMBONE	n/a	2	9	[0, 0, 0]	n/a	catFR1	0	R1169P
1062.383	1.617	1204990	WORD	n/a	wordpools/wordpool_categorized_EN.txt	WRENCH	Tools	3	9	[0, 0, 0]	n/a	catFR1	0	R1169P
1064.0	0.85	1206607	WORD_OFF	n/a	n/a	WRENCH	n/a	3	9	[0, 0, 0]	n/a	catFR1	0	R1169P
1064.85	1.617	1207457	WORD	n/a	wordpools/wordpool_categorized_EN.txt	AXE	Tools	4	9	[0, 0, 0]	n/a	catFR1	0	R1169P
1066.467	0.951	1209074	WORD_OFF	n/a	n/a	AXE	n/a	4	9	[0, 0, 0]	n/a	catFR1	0	R1169P
1067.418	1.617	1210025	WORD	n/a	wordpools/wordpool_categorized_EN.txt	EYE	BodyParts	5	9	[0, 0, 0]	n/a	catFR1	0	R1169P
1069.035	0.95	1211641	WORD_OFF	n/a	n/a	EYE	n/a	5	9	[0, 0, 0]	n/a	catFR1	0	R1169P
1069.985	1.617	1212591	WORD	n/a	wordpools/wordpool_categorized_EN.txt	TOE	BodyParts	6	9	[0, 0, 0]	n/a	catFR1	0	R1169P
1071.602	1.0	1214208	WORD_OFF	n/a	n/a	TOE	n/a	6	9	[0, 0, 0]	n/a	catFR1	0	R1169P
1072.602	1.616	1215208	WORD	n/a	wordpools/wordpool_categorized_EN.txt	CELLO	Instruments	7	9	[0, 0, 0]	n/a	catFR1	0	R1169P
1074.218	0.933	1216824	WORD_OFF	n/a	n/a	CELLO	n/a	7	9	[0, 0, 0]	n/a	catFR1	0	R1169P
1075.151	1.618	1217757	WORD	n/a	wordpools/wordpool_categorized_EN.txt	TUBA	Instruments	8	9	[0, 0, 0]	n/a	catFR1	0	R1169P
1076.769	0.984	1219375	WORD_OFF	n/a	n/a	TUBA	n/a	8	9	[0, 0, 0]	n/a	catFR1	0	R1169P
1077.753	1.617	1220359	WORD	n/a	wordpools/wordpool_categorized_EN.txt	SAW	Tools	9	9	[0, 0, 0]	n/a	catFR1	0	R1169P
1079.37	0.782	1221976	WORD_OFF	n/a	n/a	SAW	n/a	9	9	[0, 0, 0]	n/a	catFR1	0	R1169P
1080.152	1.618	1222758	WORD	n/a	wordpools/wordpool_categorized_EN.txt	CROWBAR	Tools	10	9	[0, 0, 0]	n/a	catFR1	0	R1169P
1081.77	0.9	1224376	WORD_OFF	n/a	n/a	CROWBAR	n/a	10	9	[0, 0, 0]	n/a	catFR1	0	R1169P
1082.67	1.617	1225276	WORD	n/a	wordpools/wordpool_categorized_EN.txt	FINGERS	BodyParts	11	9	[0, 0, 0]	n/a	catFR1	0	R1169P
1084.287	0.967	1226893	WORD_OFF	n/a	n/a	FINGERS	n/a	11	9	[0, 0, 0]	n/a	catFR1	0	R1169P
1085.254	1.617	1227860	WORD	n/a	wordpools/wordpool_categorized_EN.txt	KNEE	BodyParts	12	9	[0, 0, 0]	n/a	catFR1	0	R1169P
1086.871	0.0	1229477	ENCODING_END	n/a	n/a	n/a	n/a	-999	9	[0, 0, 0]	n/a	catFR1	0	R1169P
1086.871	0.138	1229477	WORD_OFF	n/a	n/a	KNEE	n/a	12	9	[0, 0, 0]	n/a	catFR1	0	R1169P
1087.009	0.0	1229615	DISTRACT_START	n/a	n/a	n/a	n/a	-999	9	[0, 0, 0]	n/a	catFR1	0	R1169P
1087.009	0.012	1229615	START	n/a	n/a	n/a	n/a	-999	9	[-999, -999, -999]	n/a	catFR1	0	R1169P
1087.021	5.351	1229627	PROB	5.328	n/a	n/a	n/a	-999	9	[5, 6, 4]	15.0	catFR1	0	R1169P
1092.372	6.552	1234977	PROB	6.527	n/a	n/a	n/a	-999	9	[7, 2, 2]	11.0	catFR1	0	R1169P
1098.924	4.75	1241529	PROB	4.728	n/a	n/a	n/a	-999	9	[4, 7, 6]	17.0	catFR1	0	R1169P
1103.674	12.025	1246279	PROB	12.025	n/a	n/a	n/a	-999	9	[8, 1, 9]	18.0	catFR1	0	R1169P
1115.699	0.011	1258303	STOP	n/a	n/a	n/a	n/a	-999	9	[-999, -999, -999]	n/a	catFR1	0	R1169P
1115.71	0.683	1258314	DISTRACT_END	n/a	n/a	n/a	n/a	-999	9	[0, 0, 0]	n/a	catFR1	0	R1169P
1116.393	0.518	1258997	RETRIEVAL_ORIENT	n/a	n/a	n/a	n/a	-999	9	[0, 0, 0]	n/a	catFR1	0	R1169P
1116.911	1.42	1259515	REC_START	n/a	n/a	n/a	n/a	-999	9	[0, 0, 0]	n/a	catFR1	0	R1169P
1118.331	3.456	1260935	REC_WORD_VV	1.42	n/a	<>	n/a	-999	9	[0, 0, 0]	n/a	catFR1	0	R1169P
1121.787	0.775	1264391	REC_WORD_VV	4.876	n/a	<>	n/a	-999	9	[0, 0, 0]	n/a	catFR1	0	R1169P
1122.562	1.0	1265166	REC_WORD	5.651	n/a	TROMBONE	Instruments	2	9	[0, 0, 0]	n/a	catFR1	0	R1169P
1123.562	2.799	1266166	REC_WORD_VV	6.651	n/a	<>	n/a	-999	9	[0, 0, 0]	n/a	catFR1	0	R1169P
1126.361	0.748	1268965	REC_WORD_VV	9.45	n/a	<>	n/a	-999	9	[0, 0, 0]	n/a	catFR1	0	R1169P
1127.109	0.811	1269712	REC_WORD	10.198	n/a	FLUTE	Instruments	1	9	[0, 0, 0]	n/a	catFR1	0	R1169P
1127.92	1.0	1270523	REC_WORD_VV	11.009	n/a	<>	n/a	-999	9	[0, 0, 0]	n/a	catFR1	0	R1169P
1128.92	1.0	1271523	REC_WORD_VV	12.009	n/a	<>	n/a	-999	9	[0, 0, 0]	n/a	catFR1	0	R1169P
1129.92	2.84	1272523	REC_WORD_VV	13.009	n/a	<>	n/a	-999	9	[0, 0, 0]	n/a	catFR1	0	R1169P
1132.76	0.734	1275363	REC_WORD_VV	15.849	n/a	<>	n/a	-999	9	[0, 0, 0]	n/a	catFR1	0	R1169P
1133.494	0.313	1276097	REC_WORD	16.583	n/a	FLUTE	Instruments	1	9	[0, 0, 0]	n/a	catFR1	0	R1169P
1133.807	1.006	1276410	REC_WORD_VV	16.896	n/a	<>	n/a	-999	9	[0, 0, 0]	n/a	catFR1	0	R1169P
1134.813	1.695	1277416	REC_WORD_VV	17.902	n/a	<>	n/a	-999	9	[0, 0, 0]	n/a	catFR1	0	R1169P
1136.508	1.008	1279111	REC_WORD	19.597	n/a	INSTRUMENTS	n/a	-999	9	[0, 0, 0]	n/a	catFR1	0	R1169P
1137.516	0.314	1280119	REC_WORD_VV	20.605	n/a	<>	n/a	-999	9	[0, 0, 0]	n/a	catFR1	0	R1169P
1137.83	1.505	1280433	REC_WORD	20.919	n/a	TOOL	n/a	-999	9	[0, 0, 0]	n/a	catFR1	0	R1169P
1139.335	0.1	1281938	REC_WORD_VV	22.424	n/a	<>	n/a	-999	9	[0, 0, 0]	n/a	catFR1	0	R1169P
1139.435	5.389	1282038	REC_WORD	22.524	n/a	WRENCH	Tools	3	9	[0, 0, 0]	n/a	catFR1	0	R1169P
1144.824	1.0	1287427	REC_WORD_VV	27.913	n/a	<>	n/a	-999	9	[0, 0, 0]	n/a	catFR1	0	R1169P
1145.824	1.099	1288427	REC_WORD_VV	28.913	n/a	<>	n/a	-999	9	[0, 0, 0]	n/a	catFR1	0	R1169P
1146.923	14.679	1289525	REC_END	n/a	n/a	n/a	n/a	-999	9	[0, 0, 0]	n/a	catFR1	0	R1169P
1161.602	0.5	1304204	TRIAL	n/a	n/a	n/a	n/a	-999	10	[0, 0, 0]	n/a	catFR1	0	R1169P
1162.102	10.428	1304704	COUNTDOWN_START	n/a	n/a	n/a	n/a	-999	10	[0, 0, 0]	n/a	catFR1	0	R1169P
1172.53	0.007	1315131	COUNTDOWN_END	n/a	n/a	n/a	n/a	-999	10	[0, 0, 0]	n/a	catFR1	0	R1169P
1172.537	1.616	1315138	ORIENT	n/a	n/a	n/a	n/a	-999	10	[0, 0, 0]	n/a	catFR1	0	R1169P
1174.153	1.884	1316754	ORIENT_OFF	n/a	n/a	n/a	n/a	-999	10	[0, 0, 0]	n/a	catFR1	0	R1169P
1176.037	1.601	1318638	WORD	n/a	wordpools/wordpool_categorized_EN.txt	LEMONADE	Beverages	1	10	[0, 0, 0]	n/a	catFR1	0	R1169P
1177.638	0.8	1320239	WORD_OFF	n/a	n/a	LEMONADE	n/a	1	10	[0, 0, 0]	n/a	catFR1	0	R1169P
1178.438	1.616	1321039	WORD	n/a	wordpools/wordpool_categorized_EN.txt	COLA	Beverages	2	10	[0, 0, 0]	n/a	catFR1	0	R1169P
1180.054	0.968	1322655	WORD_OFF	n/a	n/a	COLA	n/a	2	10	[0, 0, 0]	n/a	catFR1	0	R1169P
1181.022	1.617	1323623	WORD	n/a	wordpools/wordpool_categorized_EN.txt	PUDDING	Desserts	3	10	[0, 0, 0]	n/a	catFR1	0	R1169P
1182.639	0.867	1325240	WORD_OFF	n/a	n/a	PUDDING	n/a	3	10	[0, 0, 0]	n/a	catFR1	0	R1169P
1183.506	1.616	1326107	WORD	n/a	wordpools/wordpool_categorized_EN.txt	PIE	Desserts	4	10	[0, 0, 0]	n/a	catFR1	0	R1169P
1185.122	0.851	1327723	WORD_OFF	n/a	n/a	PIE	n/a	4	10	[0, 0, 0]	n/a	catFR1	0	R1169P
1185.973	1.617	1328574	WORD	n/a	wordpools/wordpool_categorized_EN.txt	APPLE	Fruit	5	10	[0, 0, 0]	n/a	catFR1	0	R1169P
1187.59	0.784	1330190	WORD_OFF	n/a	n/a	APPLE	n/a	5	10	[0, 0, 0]	n/a	catFR1	0	R1169P
1188.374	1.617	1330974	WORD	n/a	wordpools/wordpool_categorized_EN.txt	PLUM	Fruit	6	10	[0, 0, 0]	n/a	catFR1	0	R1169P
1189.991	0.933	1332591	WORD_OFF	n/a	n/a	PLUM	n/a	6	10	[0, 0, 0]	n/a	catFR1	0	R1169P
1190.924	1.617	1333524	WORD	n/a	wordpools/wordpool_categorized_EN.txt	MILK	Beverages	7	10	[0, 0, 0]	n/a	catFR1	0	R1169P
1192.541	0.834	1335141	WORD_OFF	n/a	n/a	MILK	n/a	7	10	[0, 0, 0]	n/a	catFR1	0	R1169P
1193.375	1.617	1335975	WORD	n/a	wordpools/wordpool_categorized_EN.txt	BEER	Beverages	8	10	[0, 0, 0]	n/a	catFR1	0	R1169P
1194.992	1.016	1337592	WORD_OFF	n/a	n/a	BEER	n/a	8	10	[0, 0, 0]	n/a	catFR1	0	R1169P
1196.008	1.617	1338608	WORD	n/a	wordpools/wordpool_categorized_EN.txt	PASTRY	Desserts	9	10	[0, 0, 0]	n/a	catFR1	0	R1169P
1197.625	0.784	1340225	WORD_OFF	n/a	n/a	PASTRY	n/a	9	10	[0, 0, 0]	n/a	catFR1	0	R1169P
1198.409	1.617	1341009	WORD	n/a	wordpools/wordpool_categorized_EN.txt	BROWNIES	Desserts	10	10	[0, 0, 0]	n/a	catFR1	0	R1169P
1200.026	0.867	1342626	WORD_OFF	n/a	n/a	BROWNIES	n/a	10	10	[0, 0, 0]	n/a	catFR1	0	R1169P
1200.893	1.617	1343493	WORD	n/a	wordpools/wordpool_categorized_EN.txt	GRAPE	Fruit	11	10	[0, 0, 0]	n/a	catFR1	0	R1169P
1202.51	0.883	1345110	WORD_OFF	n/a	n/a	GRAPE	n/a	11	10	[0, 0, 0]	n/a	catFR1	0	R1169P
1203.393	1.617	1345993	WORD	n/a	wordpools/wordpool_categorized_EN.txt	ORANGE	Fruit	12	10	[0, 0, 0]	n/a	catFR1	0	R1169P
1205.01	0.0	1347610	ENCODING_END	n/a	n/a	n/a	n/a	-999	10	[0, 0, 0]	n/a	catFR1	0	R1169P
1205.01	0.125	1347610	WORD_OFF	n/a	n/a	ORANGE	n/a	12	10	[0, 0, 0]	n/a	catFR1	0	R1169P
1205.135	0.0	1347735	DISTRACT_START	n/a	n/a	n/a	n/a	-999	10	[0, 0, 0]	n/a	catFR1	0	R1169P
1205.135	0.007	1347735	START	n/a	n/a	n/a	n/a	-999	10	[-999, -999, -999]	n/a	catFR1	0	R1169P
1205.142	4.419	1347742	PROB	4.381	n/a	n/a	n/a	-999	10	[4, 3, 3]	10.0	catFR1	0	R1169P
1209.561	5.784	1352160	PROB	5.746	n/a	n/a	n/a	-999	10	[4, 4, 2]	10.0	catFR1	0	R1169P
1215.345	30.442	1357944	PROB	30.442	n/a	n/a	n/a	-999	10	[7, 9, 6]	22.0	catFR1	0	R1169P
1245.787	0.014	1388384	STOP	n/a	n/a	n/a	n/a	-999	10	[-999, -999, -999]	n/a	catFR1	0	R1169P
1245.801	0.6	1388398	DISTRACT_END	n/a	n/a	n/a	n/a	-999	10	[0, 0, 0]	n/a	catFR1	0	R1169P
1246.401	0.518	1388998	RETRIEVAL_ORIENT	n/a	n/a	n/a	n/a	-999	10	[0, 0, 0]	n/a	catFR1	0	R1169P
1246.919	0.0	1389516	REC_START	n/a	n/a	n/a	n/a	-999	10	[0, 0, 0]	n/a	catFR1	0	R1169P
1246.919	1.369	1389516	REC_WORD_VV	0.0	n/a	<>	n/a	-999	10	[0, 0, 0]	n/a	catFR1	0	R1169P
1248.288	1.459	1390885	REC_WORD_VV	1.369	n/a	<>	n/a	-999	10	[0, 0, 0]	n/a	catFR1	0	R1169P
1249.747	1.0	1392344	REC_WORD_VV	2.828	n/a	<>	n/a	-999	10	[0, 0, 0]	n/a	catFR1	0	R1169P
1250.747	0.267	1393344	REC_WORD_VV	3.828	n/a	<>	n/a	-999	10	[0, 0, 0]	n/a	catFR1	0	R1169P
1251.014	0.792	1393611	REC_WORD	4.095	n/a	LEMONADE	Beverages	1	10	[0, 0, 0]	n/a	catFR1	0	R1169P
1251.806	1.292	1394403	REC_WORD	4.887	n/a	MILK	Beverages	7	10	[0, 0, 0]	n/a	catFR1	0	R1169P
1253.098	6.036	1395695	REC_WORD	6.179	n/a	BEER	Beverages	8	10	[0, 0, 0]	n/a	catFR1	0	R1169P
1259.134	0.255	1401731	REC_WORD_VV	12.215	n/a	<>	n/a	-999	10	[0, 0, 0]	n/a	catFR1	0	R1169P
1259.389	1.072	1401986	REC_WORD	12.47	n/a	LEMONADE	Beverages	1	10	[0, 0, 0]	n/a	catFR1	0	R1169P
1260.461	0.92	1403058	REC_WORD	13.542	n/a	BEER	Beverages	8	10	[0, 0, 0]	n/a	catFR1	0	R1169P
1261.381	2.857	1403978	REC_WORD	14.462	n/a	MILK	Beverages	7	10	[0, 0, 0]	n/a	catFR1	0	R1169P
1264.238	0.642	1406835	REC_WORD_VV	17.319	n/a	<>	n/a	-999	10	[0, 0, 0]	n/a	catFR1	0	R1169P
1264.88	0.409	1407477	REC_WORD	17.961	n/a	COFFEE	n/a	-999	10	[0, 0, 0]	n/a	catFR1	0	R1169P
1265.289	0.219	1407885	REC_WORD_VV	18.37	n/a	<>	n/a	-999	10	[0, 0, 0]	n/a	catFR1	0	R1169P
1265.508	0.353	1408104	REC_WORD	18.589	n/a	ICE TEA	n/a	-999	10	[0, 0, 0]	n/a	catFR1	0	R1169P
1265.861	3.643	1408457	REC_WORD_VV	18.942	n/a	<>	n/a	-999	10	[0, 0, 0]	n/a	catFR1	0	R1169P
1269.504	1.0	1412100	REC_WORD_VV	22.585	n/a	<>	n/a	-999	10	[0, 0, 0]	n/a	catFR1	0	R1169P
1270.504	2.249	1413100	REC_WORD_VV	23.585	n/a	<>	n/a	-999	10	[0, 0, 0]	n/a	catFR1	0	R1169P
1272.753	0.387	1415349	REC_WORD_VV	25.834	n/a	<>	n/a	-999	10	[0, 0, 0]	n/a	catFR1	0	R1169P
1273.14	0.41	1415736	REC_WORD	26.221	n/a	APPLE	Fruit	5	10	[0, 0, 0]	n/a	catFR1	0	R1169P
1273.55	3.379	1416146	REC_WORD	26.631	n/a	JUICE	n/a	-999	10	[0, 0, 0]	n/a	catFR1	0	R1169P
1276.929	5.979	1419525	REC_END	n/a	n/a	n/a	n/a	-999	10	[0, 0, 0]	n/a	catFR1	0	R1169P
1282.908	0.5	1425504	TRIAL	n/a	n/a	n/a	n/a	-999	11	[0, 0, 0]	n/a	catFR1	0	R1169P
1283.408	10.428	1426004	COUNTDOWN_START	n/a	n/a	n/a	n/a	-999	11	[0, 0, 0]	n/a	catFR1	0	R1169P
1293.836	0.008	1436431	COUNTDOWN_END	n/a	n/a	n/a	n/a	-999	11	[0, 0, 0]	n/a	catFR1	0	R1169P
1293.844	1.616	1436439	ORIENT	n/a	n/a	n/a	n/a	-999	11	[0, 0, 0]	n/a	catFR1	0	R1169P
1295.46	1.918	1438055	ORIENT_OFF	n/a	n/a	n/a	n/a	-999	11	[0, 0, 0]	n/a	catFR1	0	R1169P
1297.378	1.616	1439973	WORD	n/a	wordpools/wordpool_categorized_EN.txt	PEAR	Fruit	1	11	[0, 0, 0]	n/a	catFR1	0	R1169P
1298.994	0.917	1441589	WORD_OFF	n/a	n/a	PEAR	n/a	1	11	[0, 0, 0]	n/a	catFR1	0	R1169P
1299.911	1.617	1442506	WORD	n/a	wordpools/wordpool_categorized_EN.txt	LEMON	Fruit	2	11	[0, 0, 0]	n/a	catFR1	0	R1169P
1301.528	0.9	1444123	WORD_OFF	n/a	n/a	LEMON	n/a	2	11	[0, 0, 0]	n/a	catFR1	0	R1169P
1302.428	1.617	1445023	WORD	n/a	wordpools/wordpool_categorized_EN.txt	WHALE	OceanAnimals	3	11	[0, 0, 0]	n/a	catFR1	0	R1169P
1304.045	0.834	1446640	WORD_OFF	n/a	n/a	WHALE	n/a	3	11	[0, 0, 0]	n/a	catFR1	0	R1169P
1304.879	1.617	1447473	WORD	n/a	wordpools/wordpool_categorized_EN.txt	DOLPHIN	OceanAnimals	4	11	[0, 0, 0]	n/a	catFR1	0	R1169P
1306.496	0.933	1449090	WORD_OFF	n/a	n/a	DOLPHIN	n/a	4	11	[0, 0, 0]	n/a	catFR1	0	R1169P
1307.429	1.616	1450023	WORD	n/a	wordpools/wordpool_categorized_EN.txt	CALF	FarmAnimals	5	11	[0, 0, 0]	n/a	catFR1	0	R1169P
1309.045	0.902	1451639	WORD_OFF	n/a	n/a	CALF	n/a	5	11	[0, 0, 0]	n/a	catFR1	0	R1169P
1309.947	1.617	1452541	WORD	n/a	wordpools/wordpool_categorized_EN.txt	BULL	FarmAnimals	6	11	[0, 0, 0]	n/a	catFR1	0	R1169P
1311.564	0.816	1454158	WORD_OFF	n/a	n/a	BULL	n/a	6	11	[0, 0, 0]	n/a	catFR1	0	R1169P
1312.38	1.617	1454974	WORD	n/a	wordpools/wordpool_categorized_EN.txt	TURTLE	OceanAnimals	7	11	[0, 0, 0]	n/a	catFR1	0	R1169P
1313.997	0.834	1456591	WORD_OFF	n/a	n/a	TURTLE	n/a	7	11	[0, 0, 0]	n/a	catFR1	0	R1169P
1314.831	1.617	1457425	WORD	n/a	wordpools/wordpool_categorized_EN.txt	SQUID	OceanAnimals	8	11	[0, 0, 0]	n/a	catFR1	0	R1169P
1316.448	1.0	1459042	WORD_OFF	n/a	n/a	SQUID	n/a	8	11	[0, 0, 0]	n/a	catFR1	0	R1169P
1317.448	1.616	1460042	WORD	n/a	wordpools/wordpool_categorized_EN.txt	STRAWBERRY	Fruit	9	11	[0, 0, 0]	n/a	catFR1	0	R1169P
1319.064	0.901	1461658	WORD_OFF	n/a	n/a	STRAWBERRY	n/a	9	11	[0, 0, 0]	n/a	catFR1	0	R1169P
1319.965	1.617	1462559	WORD	n/a	wordpools/wordpool_categorized_EN.txt	PEACH	Fruit	10	11	[0, 0, 0]	n/a	catFR1	0	R1169P
1321.582	0.934	1464176	WORD_OFF	n/a	n/a	PEACH	n/a	10	11	[0, 0, 0]	n/a	catFR1	0	R1169P
1322.516	1.616	1465110	WORD	n/a	wordpools/wordpool_categorized_EN.txt	TURKEY	FarmAnimals	11	11	[0, 0, 0]	n/a	catFR1	0	R1169P
1324.132	0.867	1466726	WORD_OFF	n/a	n/a	TURKEY	n/a	11	11	[0, 0, 0]	n/a	catFR1	0	R1169P
1324.999	1.617	1467592	WORD	n/a	wordpools/wordpool_categorized_EN.txt	LAMB	FarmAnimals	12	11	[0, 0, 0]	n/a	catFR1	0	R1169P
1326.616	0.001	1469209	WORD_OFF	n/a	n/a	LAMB	n/a	12	11	[0, 0, 0]	n/a	catFR1	0	R1169P
1326.617	0.103	1469210	ENCODING_END	n/a	n/a	n/a	n/a	-999	11	[0, 0, 0]	n/a	catFR1	0	R1169P
1326.72	0.0	1469313	DISTRACT_START	n/a	n/a	n/a	n/a	-999	11	[0, 0, 0]	n/a	catFR1	0	R1169P
1326.72	0.013	1469313	START	n/a	n/a	n/a	n/a	-999	11	[-999, -999, -999]	n/a	catFR1	0	R1169P
1326.733	12.719	1469326	PROB	12.688	n/a	n/a	n/a	-999	11	[6, 5, 5]	16.0	catFR1	0	R1169P
1339.452	3.517	1482045	PROB	3.48	n/a	n/a	n/a	-999	11	[2, 8, 7]	17.0	catFR1	0	R1169P
1342.969	15.499	1485562	PROB	15.499	n/a	n/a	n/a	-999	11	[7, 5, 3]	15.0	catFR1	0	R1169P
1358.468	0.021	1501060	STOP	n/a	n/a	n/a	n/a	-999	11	[-999, -999, -999]	n/a	catFR1	0	R1169P
1358.489	0.566	1501081	DISTRACT_END	n/a	n/a	n/a	n/a	-999	11	[0, 0, 0]	n/a	catFR1	0	R1169P
1359.055	0.518	1501647	RETRIEVAL_ORIENT	n/a	n/a	n/a	n/a	-999	11	[0, 0, 0]	n/a	catFR1	0	R1169P
1359.573	4.233	1502165	REC_START	n/a	n/a	n/a	n/a	-999	11	[0, 0, 0]	n/a	catFR1	0	R1169P
1363.806	3.472	1506397	REC_WORD	4.233	n/a	TURKEY	FarmAnimals	11	11	[0, 0, 0]	n/a	catFR1	0	R1169P
1367.278	1.878	1509869	REC_WORD	7.705	n/a	DOLPHIN	OceanAnimals	4	11	[0, 0, 0]	n/a	catFR1	0	R1169P
1369.156	6.884	1511747	REC_WORD	9.583	n/a	SQUID	OceanAnimals	8	11	[0, 0, 0]	n/a	catFR1	0	R1169P
1376.04	1.0	1518631	REC_WORD_VV	16.467	n/a	<>	n/a	-999	11	[0, 0, 0]	n/a	catFR1	0	R1169P
1377.04	0.721	1519631	REC_WORD_VV	17.467	n/a	<>	n/a	-999	11	[0, 0, 0]	n/a	catFR1	0	R1169P
1377.761	0.215	1520352	REC_WORD_VV	18.188	n/a	<>	n/a	-999	11	[0, 0, 0]	n/a	catFR1	0	R1169P
1377.976	0.781	1520567	REC_WORD	18.403	n/a	SQUID	OceanAnimals	8	11	[0, 0, 0]	n/a	catFR1	0	R1169P
1378.757	0.655	1521348	REC_WORD	19.184	n/a	DOLPHIN	OceanAnimals	4	11	[0, 0, 0]	n/a	catFR1	0	R1169P
1379.412	1.0	1522003	REC_WORD_VV	19.839	n/a	<>	n/a	-999	11	[0, 0, 0]	n/a	catFR1	0	R1169P
1380.412	1.124	1523003	REC_WORD_VV	20.839	n/a	<>	n/a	-999	11	[0, 0, 0]	n/a	catFR1	0	R1169P
1381.536	2.808	1524127	REC_WORD_VV	21.963	n/a	<>	n/a	-999	11	[0, 0, 0]	n/a	catFR1	0	R1169P
1384.344	2.095	1526934	REC_WORD	24.771	n/a	DOLPHIN	OceanAnimals	4	11	[0, 0, 0]	n/a	catFR1	0	R1169P
1386.439	0.733	1529029	REC_WORD	26.866	n/a	SQUID	OceanAnimals	8	11	[0, 0, 0]	n/a	catFR1	0	R1169P
1387.172	1.0	1529762	REC_WORD_VV	27.599	n/a	<>	n/a	-999	11	[0, 0, 0]	n/a	catFR1	0	R1169P
1388.172	0.047	1530762	REC_WORD_VV	28.599	n/a	<>	n/a	-999	11	[0, 0, 0]	n/a	catFR1	0	R1169P
1388.219	1.0	1530809	REC_WORD	28.646	n/a	JELLYFISH	n/a	-999	11	[0, 0, 0]	n/a	catFR1	0	R1169P
1389.219	0.367	1531809	REC_WORD_VV	29.646	n/a	<>	n/a	-999	11	[0, 0, 0]	n/a	catFR1	0	R1169P
1389.586	11.577	1532176	REC_END	n/a	n/a	n/a	n/a	-999	11	[0, 0, 0]	n/a	catFR1	0	R1169P
1401.163	0.5	1543753	TRIAL	n/a	n/a	n/a	n/a	-999	12	[0, 0, 0]	n/a	catFR1	0	R1169P
1401.663	10.428	1544253	COUNTDOWN_START	n/a	n/a	n/a	n/a	-999	12	[0, 0, 0]	n/a	catFR1	0	R1169P
1412.091	0.007	1554680	COUNTDOWN_END	n/a	n/a	n/a	n/a	-999	12	[0, 0, 0]	n/a	catFR1	0	R1169P
1412.098	1.618	1554687	ORIENT	n/a	n/a	n/a	n/a	-999	12	[0, 0, 0]	n/a	catFR1	0	R1169P
1413.716	2.117	1556305	ORIENT_OFF	n/a	n/a	n/a	n/a	-999	12	[0, 0, 0]	n/a	catFR1	0	R1169P
1415.833	1.617	1558422	WORD	n/a	wordpools/wordpool_categorized_EN.txt	BED	Furniture	1	12	[0, 0, 0]	n/a	catFR1	0	R1169P
1417.45	1.0	1560039	WORD_OFF	n/a	n/a	BED	n/a	1	12	[0, 0, 0]	n/a	catFR1	0	R1169P
1418.45	1.616	1561039	WORD	n/a	wordpools/wordpool_categorized_EN.txt	DRESSER	Furniture	2	12	[0, 0, 0]	n/a	catFR1	0	R1169P
1420.066	0.835	1562655	WORD_OFF	n/a	n/a	DRESSER	n/a	2	12	[0, 0, 0]	n/a	catFR1	0	R1169P
1420.901	1.617	1563490	WORD	n/a	wordpools/wordpool_categorized_EN.txt	LADYBUG	Insects	3	12	[0, 0, 0]	n/a	catFR1	0	R1169P
1422.518	0.95	1565107	WORD_OFF	n/a	n/a	LADYBUG	n/a	3	12	[0, 0, 0]	n/a	catFR1	0	R1169P
1423.468	1.616	1566056	WORD	n/a	wordpools/wordpool_categorized_EN.txt	ANT	Insects	4	12	[0, 0, 0]	n/a	catFR1	0	R1169P
1425.084	1.017	1567672	WORD_OFF	n/a	n/a	ANT	n/a	4	12	[0, 0, 0]	n/a	catFR1	0	R1169P
1426.101	1.618	1568689	WORD	n/a	wordpools/wordpool_categorized_EN.txt	BEAR	Zoo	5	12	[0, 0, 0]	n/a	catFR1	0	R1169P
1427.719	0.817	1570307	WORD_OFF	n/a	n/a	BEAR	n/a	5	12	[0, 0, 0]	n/a	catFR1	0	R1169P
1428.536	1.616	1571124	WORD	n/a	wordpools/wordpool_categorized_EN.txt	CHIMPANZEE	Zoo	6	12	[0, 0, 0]	n/a	catFR1	0	R1169P
1430.152	0.95	1572740	WORD_OFF	n/a	n/a	CHIMPANZEE	n/a	6	12	[0, 0, 0]	n/a	catFR1	0	R1169P
1431.102	1.618	1573690	WORD	n/a	wordpools/wordpool_categorized_EN.txt	BOOKCASE	Furniture	7	12	[0, 0, 0]	n/a	catFR1	0	R1169P
1432.72	0.983	1575308	WORD_OFF	n/a	n/a	BOOKCASE	n/a	7	12	[0, 0, 0]	n/a	catFR1	0	R1169P
1433.703	1.617	1576291	WORD	n/a	wordpools/wordpool_categorized_EN.txt	CHAIR	Furniture	8	12	[0, 0, 0]	n/a	catFR1	0	R1169P
1435.32	0.866	1577908	WORD_OFF	n/a	n/a	CHAIR	n/a	8	12	[0, 0, 0]	n/a	catFR1	0	R1169P
1436.186	1.601	1578774	WORD	n/a	wordpools/wordpool_categorized_EN.txt	ROACH	Insects	9	12	[0, 0, 0]	n/a	catFR1	0	R1169P
1437.787	0.934	1580375	WORD_OFF	n/a	n/a	ROACH	n/a	9	12	[0, 0, 0]	n/a	catFR1	0	R1169P
1438.721	1.617	1581309	WORD	n/a	wordpools/wordpool_categorized_EN.txt	GNAT	Insects	10	12	[0, 0, 0]	n/a	catFR1	0	R1169P
1440.338	0.782	1582926	WORD_OFF	n/a	n/a	GNAT	n/a	10	12	[0, 0, 0]	n/a	catFR1	0	R1169P
1441.12	1.601	1583708	WORD	n/a	wordpools/wordpool_categorized_EN.txt	LION	Zoo	11	12	[0, 0, 0]	n/a	catFR1	0	R1169P
1442.721	0.967	1585308	WORD_OFF	n/a	n/a	LION	n/a	11	12	[0, 0, 0]	n/a	catFR1	0	R1169P
1443.688	1.617	1586275	WORD	n/a	wordpools/wordpool_categorized_EN.txt	TIGER	Zoo	12	12	[0, 0, 0]	n/a	catFR1	0	R1169P
1445.305	0.001	1587892	WORD_OFF	n/a	n/a	TIGER	n/a	12	12	[0, 0, 0]	n/a	catFR1	0	R1169P
1445.306	0.14	1587893	ENCODING_END	n/a	n/a	n/a	n/a	-999	12	[0, 0, 0]	n/a	catFR1	0	R1169P
1445.446	0.001	1588033	DISTRACT_START	n/a	n/a	n/a	n/a	-999	12	[0, 0, 0]	n/a	catFR1	0	R1169P
1445.447	0.008	1588034	START	n/a	n/a	n/a	n/a	-999	12	[-999, -999, -999]	n/a	catFR1	0	R1169P
1445.455	9.469	1588042	PROB	9.438	n/a	n/a	n/a	-999	12	[5, 9, 6]	20.0	catFR1	0	R1169P
1454.924	6.518	1597511	PROB	6.487	n/a	n/a	n/a	-999	12	[5, 4, 3]	12.0	catFR1	0	R1169P
1461.442	7.129	1604029	PROB	7.129	n/a	n/a	n/a	-999	12	[3, 2, 2]	11.0	catFR1	0	R1169P
1468.571	0.022	1611157	STOP	n/a	n/a	n/a	n/a	-999	12	[-999, -999, -999]	n/a	catFR1	0	R1169P
1468.593	0.633	1611179	DISTRACT_END	n/a	n/a	n/a	n/a	-999	12	[0, 0, 0]	n/a	catFR1	0	R1169P
1469.226	0.518	1611812	RETRIEVAL_ORIENT	n/a	n/a	n/a	n/a	-999	12	[0, 0, 0]	n/a	catFR1	0	R1169P
1469.744	1.118	1612330	REC_START	n/a	n/a	n/a	n/a	-999	12	[0, 0, 0]	n/a	catFR1	0	R1169P
1470.862	2.092	1613448	REC_WORD_VV	1.118	n/a	<>	n/a	-999	12	[0, 0, 0]	n/a	catFR1	0	R1169P
1472.954	0.811	1615540	REC_WORD_VV	3.21	n/a	<>	n/a	-999	12	[0, 0, 0]	n/a	catFR1	0	R1169P
1473.765	0.648	1616351	REC_WORD	4.021	n/a	BOOKCASE	Furniture	7	12	[0, 0, 0]	n/a	catFR1	0	R1169P
1474.413	0.389	1616999	REC_WORD_VV	4.669	n/a	<>	n/a	-999	12	[0, 0, 0]	n/a	catFR1	0	R1169P
1474.802	3.125	1617388	REC_WORD	5.058	n/a	DRESSER	Furniture	2	12	[0, 0, 0]	n/a	catFR1	0	R1169P
1477.927	0.915	1620513	REC_WORD	8.183	n/a	BED	Furniture	1	12	[0, 0, 0]	n/a	catFR1	0	R1169P
1478.842	1.0	1621428	REC_WORD	9.098	n/a	LADYBUG	Insects	3	12	[0, 0, 0]	n/a	catFR1	0	R1169P
1479.842	4.36	1622428	REC_WORD_VV	10.098	n/a	<>	n/a	-999	12	[0, 0, 0]	n/a	catFR1	0	R1169P
1484.202	1.0	1626787	REC_WORD_VV	14.458	n/a	<>	n/a	-999	12	[0, 0, 0]	n/a	catFR1	0	R1169P
1485.202	1.0	1627787	REC_WORD_VV	15.458	n/a	<>	n/a	-999	12	[0, 0, 0]	n/a	catFR1	0	R1169P
1486.202	0.404	1628787	REC_WORD_VV	16.458	n/a	<>	n/a	-999	12	[0, 0, 0]	n/a	catFR1	0	R1169P
1486.606	0.598	1629191	REC_WORD	16.862	n/a	GNAT	Insects	10	12	[0, 0, 0]	n/a	catFR1	0	R1169P
1487.204	1.0	1629789	REC_WORD_VV	17.46	n/a	<>	n/a	-999	12	[0, 0, 0]	n/a	catFR1	0	R1169P
1488.204	1.0	1630789	REC_WORD_VV	18.46	n/a	<>	n/a	-999	12	[0, 0, 0]	n/a	catFR1	0	R1169P
1489.204	1.0	1631789	REC_WORD_VV	19.46	n/a	<>	n/a	-999	12	[0, 0, 0]	n/a	catFR1	0	R1169P
1490.204	1.0	1632789	REC_WORD_VV	20.46	n/a	<>	n/a	-999	12	[0, 0, 0]	n/a	catFR1	0	R1169P
1491.204	1.0	1633789	REC_WORD_VV	21.46	n/a	<>	n/a	-999	12	[0, 0, 0]	n/a	catFR1	0	R1169P
1492.204	1.107	1634789	REC_WORD_VV	22.46	n/a	<>	n/a	-999	12	[0, 0, 0]	n/a	catFR1	0	R1169P
1493.311	1.025	1635896	REC_WORD	23.567	n/a	GNAT	Insects	10	12	[0, 0, 0]	n/a	catFR1	0	R1169P
1494.336	1.593	1636921	REC_WORD	24.592	n/a	GNAT	Insects	10	12	[0, 0, 0]	n/a	catFR1	0	R1169P
1495.929	1.0	1638514	REC_WORD	26.185	n/a	LADYBUG	Insects	3	12	[0, 0, 0]	n/a	catFR1	0	R1169P
1496.929	2.41	1639514	REC_WORD_VV	27.185	n/a	<>	n/a	-999	12	[0, 0, 0]	n/a	catFR1	0	R1169P
1499.339	0.415	1641924	REC_WORD_VV	29.595	n/a	<>	n/a	-999	12	[0, 0, 0]	n/a	catFR1	0	R1169P
1499.754	35.718	1642339	REC_END	n/a	n/a	n/a	n/a	-999	12	[0, 0, 0]	n/a	catFR1	0	R1169P
1535.472	0.5	1678055	TRIAL	n/a	n/a	n/a	n/a	-999	13	[0, 0, 0]	n/a	catFR1	0	R1169P
1535.972	10.428	1678555	COUNTDOWN_START	n/a	n/a	n/a	n/a	-999	13	[0, 0, 0]	n/a	catFR1	0	R1169P
1546.4	0.008	1688982	COUNTDOWN_END	n/a	n/a	n/a	n/a	-999	13	[0, 0, 0]	n/a	catFR1	0	R1169P
1546.408	1.617	1688990	ORIENT	n/a	n/a	n/a	n/a	-999	13	[0, 0, 0]	n/a	catFR1	0	R1169P
1548.025	1.85	1690607	ORIENT_OFF	n/a	n/a	n/a	n/a	-999	13	[0, 0, 0]	n/a	catFR1	0	R1169P
1549.875	1.617	1692457	WORD	n/a	wordpools/wordpool_categorized_EN.txt	CHERRY	Fruit	1	13	[0, 0, 0]	n/a	catFR1	0	R1169P
1551.492	1.0	1694074	WORD_OFF	n/a	n/a	CHERRY	n/a	1	13	[0, 0, 0]	n/a	catFR1	0	R1169P
1552.492	1.616	1695074	WORD	n/a	wordpools/wordpool_categorized_EN.txt	LIME	Fruit	2	13	[0, 0, 0]	n/a	catFR1	0	R1169P
1554.108	0.801	1696690	WORD_OFF	n/a	n/a	LIME	n/a	2	13	[0, 0, 0]	n/a	catFR1	0	R1169P
1554.909	1.617	1697491	WORD	n/a	wordpools/wordpool_categorized_EN.txt	ZEBRA	Zoo	3	13	[0, 0, 0]	n/a	catFR1	0	R1169P
1556.526	1.001	1699108	WORD_OFF	n/a	n/a	ZEBRA	n/a	3	13	[0, 0, 0]	n/a	catFR1	0	R1169P
1557.527	1.615	1700109	WORD	n/a	wordpools/wordpool_categorized_EN.txt	MONKEY	Zoo	4	13	[0, 0, 0]	n/a	catFR1	0	R1169P
1559.142	0.835	1701724	WORD_OFF	n/a	n/a	MONKEY	n/a	4	13	[0, 0, 0]	n/a	catFR1	0	R1169P
1559.977	1.617	1702559	WORD	n/a	wordpools/wordpool_categorized_EN.txt	FOREST	Landscapes	5	13	[0, 0, 0]	n/a	catFR1	0	R1169P
1561.594	0.783	1704175	WORD_OFF	n/a	n/a	FOREST	n/a	5	13	[0, 0, 0]	n/a	catFR1	0	R1169P
1562.377	1.617	1704958	WORD	n/a	wordpools/wordpool_categorized_EN.txt	OCEAN	Landscapes	6	13	[0, 0, 0]	n/a	catFR1	0	R1169P
1563.994	0.984	1706575	WORD_OFF	n/a	n/a	OCEAN	n/a	6	13	[0, 0, 0]	n/a	catFR1	0	R1169P
1564.978	1.617	1707559	WORD	n/a	wordpools/wordpool_categorized_EN.txt	BANANA	Fruit	7	13	[0, 0, 0]	n/a	catFR1	0	R1169P
1566.595	0.85	1709176	WORD_OFF	n/a	n/a	BANANA	n/a	7	13	[0, 0, 0]	n/a	catFR1	0	R1169P
1567.445	1.616	1710026	WORD	n/a	wordpools/wordpool_categorized_EN.txt	BLUEBERRY	Fruit	8	13	[0, 0, 0]	n/a	catFR1	0	R1169P
1569.061	0.984	1711642	WORD_OFF	n/a	n/a	BLUEBERRY	n/a	8	13	[0, 0, 0]	n/a	catFR1	0	R1169P
1570.045	1.618	1712626	WORD	n/a	wordpools/wordpool_categorized_EN.txt	GIRAFFE	Zoo	9	13	[0, 0, 0]	n/a	catFR1	0	R1169P
1571.663	0.849	1714244	WORD_OFF	n/a	n/a	GIRAFFE	n/a	9	13	[0, 0, 0]	n/a	catFR1	0	R1169P
1572.512	1.617	1715093	WORD	n/a	wordpools/wordpool_categorized_EN.txt	GORILLA	Zoo	10	13	[0, 0, 0]	n/a	catFR1	0	R1169P
1574.129	0.967	1716710	WORD_OFF	n/a	n/a	GORILLA	n/a	10	13	[0, 0, 0]	n/a	catFR1	0	R1169P
1575.096	1.618	1717677	WORD	n/a	wordpools/wordpool_categorized_EN.txt	CREEK	Landscapes	11	13	[0, 0, 0]	n/a	catFR1	0	R1169P
1576.714	0.8	1719295	WORD_OFF	n/a	n/a	CREEK	n/a	11	13	[0, 0, 0]	n/a	catFR1	0	R1169P
1577.514	1.616	1720095	WORD	n/a	wordpools/wordpool_categorized_EN.txt	LAKE	Landscapes	12	13	[0, 0, 0]	n/a	catFR1	0	R1169P
1579.13	0.0	1721711	ENCODING_END	n/a	n/a	n/a	n/a	-999	13	[0, 0, 0]	n/a	catFR1	0	R1169P
1579.13	0.1	1721711	WORD_OFF	n/a	n/a	LAKE	n/a	12	13	[0, 0, 0]	n/a	catFR1	0	R1169P
1579.23	0.001	1721811	DISTRACT_START	n/a	n/a	n/a	n/a	-999	13	[0, 0, 0]	n/a	catFR1	0	R1169P
1579.231	0.016	1721812	START	n/a	n/a	n/a	n/a	-999	13	[-999, -999, -999]	n/a	catFR1	0	R1169P
1579.247	33.221	1721828	PROB	33.221	n/a	n/a	n/a	-999	13	[6, 4, 7]	17.0	catFR1	0	R1169P
1612.468	0.019	1755047	STOP	n/a	n/a	n/a	n/a	-999	13	[-999, -999, -999]	n/a	catFR1	0	R1169P
1612.487	0.699	1755066	DISTRACT_END	n/a	n/a	n/a	n/a	-999	13	[0, 0, 0]	n/a	catFR1	0	R1169P
1613.186	0.502	1755765	RETRIEVAL_ORIENT	n/a	n/a	n/a	n/a	-999	13	[0, 0, 0]	n/a	catFR1	0	R1169P
1613.688	3.454	1756267	REC_START	n/a	n/a	n/a	n/a	-999	13	[0, 0, 0]	n/a	catFR1	0	R1169P
1617.142	0.425	1759721	REC_WORD_VV	3.454	n/a	<>	n/a	-999	13	[0, 0, 0]	n/a	catFR1	0	R1169P
1617.567	1.315	1760146	REC_WORD	3.879	n/a	CHERRY	Fruit	1	13	[0, 0, 0]	n/a	catFR1	0	R1169P
1618.882	1.013	1761461	REC_WORD	5.194	n/a	LIME	Fruit	2	13	[0, 0, 0]	n/a	catFR1	0	R1169P
1619.895	1.0	1762474	REC_WORD	6.207	n/a	BLUEBERRY	Fruit	8	13	[0, 0, 0]	n/a	catFR1	0	R1169P
1620.895	2.545	1763473	REC_WORD_VV	7.207	n/a	<>	n/a	-999	13	[0, 0, 0]	n/a	catFR1	0	R1169P
1623.44	0.777	1766018	REC_WORD	9.752	n/a	CREEK	Landscapes	11	13	[0, 0, 0]	n/a	catFR1	0	R1169P
1624.217	0.843	1766795	REC_WORD	10.529	n/a	LAKE	Landscapes	12	13	[0, 0, 0]	n/a	catFR1	0	R1169P
1625.06	1.191	1767638	REC_WORD	11.372	n/a	GORILLA	Zoo	10	13	[0, 0, 0]	n/a	catFR1	0	R1169P
1626.251	0.683	1768829	REC_WORD_VV	12.563	n/a	<>	n/a	-999	13	[0, 0, 0]	n/a	catFR1	0	R1169P
1626.934	1.36	1769512	REC_WORD	13.246	n/a	GORILLA	Zoo	10	13	[0, 0, 0]	n/a	catFR1	0	R1169P
1628.294	4.204	1770872	REC_WORD	14.606	n/a	GORILLA	Zoo	10	13	[0, 0, 0]	n/a	catFR1	0	R1169P
1632.498	1.0	1775076	REC_WORD_VV	18.81	n/a	<>	n/a	-999	13	[0, 0, 0]	n/a	catFR1	0	R1169P
1633.498	0.457	1776076	REC_WORD_VV	19.81	n/a	<>	n/a	-999	13	[0, 0, 0]	n/a	catFR1	0	R1169P
1633.955	0.691	1776533	REC_WORD_VV	20.267	n/a	<>	n/a	-999	13	[0, 0, 0]	n/a	catFR1	0	R1169P
1634.646	3.85	1777224	REC_WORD	20.958	n/a	GORILLA	Zoo	10	13	[0, 0, 0]	n/a	catFR1	0	R1169P
1638.496	0.801	1781074	REC_WORD	24.808	n/a	ELEPHANT	n/a	-999	13	[0, 0, 0]	n/a	catFR1	0	R1169P
1639.297	4.401	1781875	REC_WORD_VV	25.609	n/a	<>	n/a	-999	13	[0, 0, 0]	n/a	catFR1	0	R1169P
1643.698	6.796	1786275	REC_END	n/a	n/a	n/a	n/a	-999	13	[0, 0, 0]	n/a	catFR1	0	R1169P
1650.494	0.5	1793071	TRIAL	n/a	n/a	n/a	n/a	-999	14	[0, 0, 0]	n/a	catFR1	0	R1169P
1650.994	10.428	1793571	COUNTDOWN_START	n/a	n/a	n/a	n/a	-999	14	[0, 0, 0]	n/a	catFR1	0	R1169P
1661.422	0.007	1803998	COUNTDOWN_END	n/a	n/a	n/a	n/a	-999	14	[0, 0, 0]	n/a	catFR1	0	R1169P
1661.429	1.616	1804005	ORIENT	n/a	n/a	n/a	n/a	-999	14	[0, 0, 0]	n/a	catFR1	0	R1169P
1663.045	1.952	1805621	ORIENT_OFF	n/a	n/a	n/a	n/a	-999	14	[0, 0, 0]	n/a	catFR1	0	R1169P
1664.997	1.617	1807573	WORD	n/a	wordpools/wordpool_categorized_EN.txt	DRYER	Appliances	1	14	[0, 0, 0]	n/a	catFR1	0	R1169P
1666.614	0.833	1809190	WORD_OFF	n/a	n/a	DRYER	n/a	1	14	[0, 0, 0]	n/a	catFR1	0	R1169P
1667.447	1.616	1810023	WORD	n/a	wordpools/wordpool_categorized_EN.txt	REFRIGERATOR	Appliances	2	14	[0, 0, 0]	n/a	catFR1	0	R1169P
1669.063	0.935	1811639	WORD_OFF	n/a	n/a	REFRIGERATOR	n/a	2	14	[0, 0, 0]	n/a	catFR1	0	R1169P
1669.998	1.617	1812574	WORD	n/a	wordpools/wordpool_categorized_EN.txt	BUS	Vehicles	3	14	[0, 0, 0]	n/a	catFR1	0	R1169P
1671.615	0.783	1814191	WORD_OFF	n/a	n/a	BUS	n/a	3	14	[0, 0, 0]	n/a	catFR1	0	R1169P
1672.398	1.617	1814974	WORD	n/a	wordpools/wordpool_categorized_EN.txt	MOPED	Vehicles	4	14	[0, 0, 0]	n/a	catFR1	0	R1169P
1674.015	0.967	1816591	WORD_OFF	n/a	n/a	MOPED	n/a	4	14	[0, 0, 0]	n/a	catFR1	0	R1169P
1674.982	1.617	1817558	WORD	n/a	wordpools/wordpool_categorized_EN.txt	HICKORY	Trees	5	14	[0, 0, 0]	n/a	catFR1	0	R1169P
1676.599	0.833	1819175	WORD_OFF	n/a	n/a	HICKORY	n/a	5	14	[0, 0, 0]	n/a	catFR1	0	R1169P
1677.432	1.616	1820008	WORD	n/a	wordpools/wordpool_categorized_EN.txt	MAPLE	Trees	6	14	[0, 0, 0]	n/a	catFR1	0	R1169P
1679.048	0.902	1821624	WORD_OFF	n/a	n/a	MAPLE	n/a	6	14	[0, 0, 0]	n/a	catFR1	0	R1169P
1679.95	1.617	1822525	WORD	n/a	wordpools/wordpool_categorized_EN.txt	TRUCK	Vehicles	7	14	[0, 0, 0]	n/a	catFR1	0	R1169P
1681.567	1.0	1824142	WORD_OFF	n/a	n/a	TRUCK	n/a	7	14	[0, 0, 0]	n/a	catFR1	0	R1169P
1682.567	1.616	1825142	WORD	n/a	wordpools/wordpool_categorized_EN.txt	MOTORCYCLE	Vehicles	8	14	[0, 0, 0]	n/a	catFR1	0	R1169P
1684.183	0.883	1826758	WORD_OFF	n/a	n/a	MOTORCYCLE	n/a	8	14	[0, 0, 0]	n/a	catFR1	0	R1169P
1685.066	1.618	1827641	WORD	n/a	wordpools/wordpool_categorized_EN.txt	STOVE	Appliances	9	14	[0, 0, 0]	n/a	catFR1	0	R1169P
1686.684	0.8	1829259	WORD_OFF	n/a	n/a	STOVE	n/a	9	14	[0, 0, 0]	n/a	catFR1	0	R1169P
1687.484	1.616	1830059	WORD	n/a	wordpools/wordpool_categorized_EN.txt	FREEZER	Appliances	10	14	[0, 0, 0]	n/a	catFR1	0	R1169P
1689.1	0.901	1831675	WORD_OFF	n/a	n/a	FREEZER	n/a	10	14	[0, 0, 0]	n/a	catFR1	0	R1169P
1690.001	1.617	1832576	WORD	n/a	wordpools/wordpool_categorized_EN.txt	BIRCH	Trees	11	14	[0, 0, 0]	n/a	catFR1	0	R1169P
1691.618	0.8	1834193	WORD_OFF	n/a	n/a	BIRCH	n/a	11	14	[0, 0, 0]	n/a	catFR1	0	R1169P
1692.418	1.618	1834993	WORD	n/a	wordpools/wordpool_categorized_EN.txt	EVERGREEN	Trees	12	14	[0, 0, 0]	n/a	catFR1	0	R1169P
1694.036	0.0	1836611	ENCODING_END	n/a	n/a	n/a	n/a	-999	14	[0, 0, 0]	n/a	catFR1	0	R1169P
1694.036	0.101	1836611	WORD_OFF	n/a	n/a	EVERGREEN	n/a	12	14	[0, 0, 0]	n/a	catFR1	0	R1169P
1694.137	0.001	1836712	DISTRACT_START	n/a	n/a	n/a	n/a	-999	14	[0, 0, 0]	n/a	catFR1	0	R1169P
1694.138	0.013	1836713	START	n/a	n/a	n/a	n/a	-999	14	[-999, -999, -999]	n/a	catFR1	0	R1169P
1694.151	11.403	1836726	PROB	11.38	n/a	n/a	n/a	-999	14	[9, 6, 8]	23.0	catFR1	0	R1169P
1705.554	13.931	1848128	PROB	13.931	n/a	n/a	n/a	-999	14	[7, 9, 7]	23.0	catFR1	0	R1169P
1719.485	0.022	1862058	STOP	n/a	n/a	n/a	n/a	-999	14	[-999, -999, -999]	n/a	catFR1	0	R1169P
1719.507	0.566	1862080	DISTRACT_END	n/a	n/a	n/a	n/a	-999	14	[0, 0, 0]	n/a	catFR1	0	R1169P
1720.073	0.518	1862646	RETRIEVAL_ORIENT	n/a	n/a	n/a	n/a	-999	14	[0, 0, 0]	n/a	catFR1	0	R1169P
1720.591	3.429	1863164	REC_START	n/a	n/a	n/a	n/a	-999	14	[0, 0, 0]	n/a	catFR1	0	R1169P
1724.02	1.869	1866593	REC_WORD_VV	3.429	n/a	<>	n/a	-999	14	[0, 0, 0]	n/a	catFR1	0	R1169P
1725.889	1.0	1868462	REC_WORD	5.298	n/a	DRYER	Appliances	1	14	[0, 0, 0]	n/a	catFR1	0	R1169P
1726.889	0.358	1869462	REC_WORD_VV	6.298	n/a	<>	n/a	-999	14	[0, 0, 0]	n/a	catFR1	0	R1169P
1727.247	1.051	1869820	REC_WORD_VV	6.656	n/a	<>	n/a	-999	14	[0, 0, 0]	n/a	catFR1	0	R1169P
1728.298	2.901	1870871	REC_WORD	7.707	n/a	DRYER	Appliances	1	14	[0, 0, 0]	n/a	catFR1	0	R1169P
1731.199	1.02	1873772	REC_WORD	10.608	n/a	REFRIGERATOR	Appliances	2	14	[0, 0, 0]	n/a	catFR1	0	R1169P
1732.219	0.165	1874792	REC_WORD_VV	11.628	n/a	<>	n/a	-999	14	[0, 0, 0]	n/a	catFR1	0	R1169P
1732.384	7.196	1874957	REC_WORD	11.793	n/a	WASHER	n/a	-999	14	[0, 0, 0]	n/a	catFR1	0	R1169P
1739.58	1.113	1882152	REC_WORD_VV	18.989	n/a	<>	n/a	-999	14	[0, 0, 0]	n/a	catFR1	0	R1169P
1740.693	2.155	1883265	REC_WORD	20.102	n/a	BIRCH	Trees	11	14	[0, 0, 0]	n/a	catFR1	0	R1169P
1742.848	0.383	1885420	REC_WORD	22.257	n/a	ELM	n/a	-999	14	[0, 0, 0]	n/a	catFR1	0	R1169P
1743.231	0.518	1885803	REC_WORD	22.64	n/a	WOOD	n/a	-999	14	[0, 0, 0]	n/a	catFR1	0	R1169P
1743.749	0.9	1886321	REC_WORD_VV	23.158	n/a	<>	n/a	-999	14	[0, 0, 0]	n/a	catFR1	0	R1169P
1744.649	1.0	1887221	REC_WORD_VV	24.058	n/a	<>	n/a	-999	14	[0, 0, 0]	n/a	catFR1	0	R1169P
1745.649	0.91	1888221	REC_WORD_VV	25.058	n/a	<>	n/a	-999	14	[0, 0, 0]	n/a	catFR1	0	R1169P
1746.559	0.26	1889131	REC_WORD	25.968	n/a	ELM	n/a	-999	14	[0, 0, 0]	n/a	catFR1	0	R1169P
1746.819	3.786	1889391	REC_WORD	26.228	n/a	WOOD	n/a	-999	14	[0, 0, 0]	n/a	catFR1	0	R1169P
1750.605	6.909	1893177	REC_END	n/a	n/a	n/a	n/a	-999	14	[0, 0, 0]	n/a	catFR1	0	R1169P
1757.514	0.5	1900086	TRIAL	n/a	n/a	n/a	n/a	-999	15	[0, 0, 0]	n/a	catFR1	0	R1169P
1758.014	10.428	1900585	COUNTDOWN_START	n/a	n/a	n/a	n/a	-999	15	[0, 0, 0]	n/a	catFR1	0	R1169P
1768.442	0.008	1911013	COUNTDOWN_END	n/a	n/a	n/a	n/a	-999	15	[0, 0, 0]	n/a	catFR1	0	R1169P
1768.45	1.616	1911021	ORIENT	n/a	n/a	n/a	n/a	-999	15	[0, 0, 0]	n/a	catFR1	0	R1169P
1770.066	2.15	1912637	ORIENT_OFF	n/a	n/a	n/a	n/a	-999	15	[0, 0, 0]	n/a	catFR1	0	R1169P
1772.216	1.618	1914787	WORD	n/a	wordpools/wordpool_categorized_EN.txt	HAMMER	Tools	1	15	[0, 0, 0]	n/a	catFR1	0	R1169P
1773.834	0.933	1916405	WORD_OFF	n/a	n/a	HAMMER	n/a	1	15	[0, 0, 0]	n/a	catFR1	0	R1169P
1774.767	1.617	1917338	WORD	n/a	wordpools/wordpool_categorized_EN.txt	PLIERS	Tools	2	15	[0, 0, 0]	n/a	catFR1	0	R1169P
1776.384	1.001	1918955	WORD_OFF	n/a	n/a	PLIERS	n/a	2	15	[0, 0, 0]	n/a	catFR1	0	R1169P
1777.385	1.616	1919956	WORD	n/a	wordpools/wordpool_categorized_EN.txt	KNIFE	KitchenTools	3	15	[0, 0, 0]	n/a	catFR1	0	R1169P
1779.001	0.784	1921571	WORD_OFF	n/a	n/a	KNIFE	n/a	3	15	[0, 0, 0]	n/a	catFR1	0	R1169P
1779.785	1.617	1922355	WORD	n/a	wordpools/wordpool_categorized_EN.txt	COLANDER	KitchenTools	4	15	[0, 0, 0]	n/a	catFR1	0	R1169P
1781.402	0.933	1923972	WORD_OFF	n/a	n/a	COLANDER	n/a	4	15	[0, 0, 0]	n/a	catFR1	0	R1169P
1782.335	1.617	1924905	WORD	n/a	wordpools/wordpool_categorized_EN.txt	HEADPHONES	Electronics	5	15	[0, 0, 0]	n/a	catFR1	0	R1169P
1783.952	0.817	1926522	WORD_OFF	n/a	n/a	HEADPHONES	n/a	5	15	[0, 0, 0]	n/a	catFR1	0	R1169P
1784.769	1.617	1927339	WORD	n/a	wordpools/wordpool_categorized_EN.txt	TELEVISION	Electronics	6	15	[0, 0, 0]	n/a	catFR1	0	R1169P
1786.386	0.967	1928956	WORD_OFF	n/a	n/a	TELEVISION	n/a	6	15	[0, 0, 0]	n/a	catFR1	0	R1169P
1787.353	1.617	1929923	WORD	n/a	wordpools/wordpool_categorized_EN.txt	SCREWDRIVER	Tools	7	15	[0, 0, 0]	n/a	catFR1	0	R1169P
1788.97	0.883	1931540	WORD_OFF	n/a	n/a	SCREWDRIVER	n/a	7	15	[0, 0, 0]	n/a	catFR1	0	R1169P
1789.853	1.618	1932423	WORD	n/a	wordpools/wordpool_categorized_EN.txt	RATCHET	Tools	8	15	[0, 0, 0]	n/a	catFR1	0	R1169P
1791.471	0.816	1934041	WORD_OFF	n/a	n/a	RATCHET	n/a	8	15	[0, 0, 0]	n/a	catFR1	0	R1169P
1792.287	1.617	1934857	WORD	n/a	wordpools/wordpool_categorized_EN.txt	LADLE	KitchenTools	9	15	[0, 0, 0]	n/a	catFR1	0	R1169P
1793.904	0.867	1936474	WORD_OFF	n/a	n/a	LADLE	n/a	9	15	[0, 0, 0]	n/a	catFR1	0	R1169P
1794.771	1.617	1937341	WORD	n/a	wordpools/wordpool_categorized_EN.txt	PEELER	KitchenTools	10	15	[0, 0, 0]	n/a	catFR1	0	R1169P
1796.388	0.85	1938958	WORD_OFF	n/a	n/a	PEELER	n/a	10	15	[0, 0, 0]	n/a	catFR1	0	R1169P
1797.238	1.617	1939808	WORD	n/a	wordpools/wordpool_categorized_EN.txt	PRINTER	Electronics	11	15	[0, 0, 0]	n/a	catFR1	0	R1169P
1798.855	0.867	1941424	WORD_OFF	n/a	n/a	PRINTER	n/a	11	15	[0, 0, 0]	n/a	catFR1	0	R1169P
1799.722	1.617	1942291	WORD	n/a	wordpools/wordpool_categorized_EN.txt	CALCULATOR	Electronics	12	15	[0, 0, 0]	n/a	catFR1	0	R1169P
1801.339	0.0	1943908	ENCODING_END	n/a	n/a	n/a	n/a	-999	15	[0, 0, 0]	n/a	catFR1	0	R1169P
1801.339	0.135	1943908	WORD_OFF	n/a	n/a	CALCULATOR	n/a	12	15	[0, 0, 0]	n/a	catFR1	0	R1169P
1801.474	0.0	1944043	DISTRACT_START	n/a	n/a	n/a	n/a	-999	15	[0, 0, 0]	n/a	catFR1	0	R1169P
1801.474	0.015	1944043	START	n/a	n/a	n/a	n/a	-999	15	[-999, -999, -999]	n/a	catFR1	0	R1169P
1801.489	7.218	1944058	PROB	7.195	n/a	n/a	n/a	-999	15	[2, 5, 1]	8.0	catFR1	0	R1169P
1808.707	6.601	1951276	PROB	6.57	n/a	n/a	n/a	-999	15	[2, 8, 1]	11.0	catFR1	0	R1169P
1815.308	11.551	1957877	PROB	11.551	n/a	n/a	n/a	-999	15	[3, 1, 6]	10.0	catFR1	0	R1169P
1826.859	0.018	1969427	STOP	n/a	n/a	n/a	n/a	-999	15	[-999, -999, -999]	n/a	catFR1	0	R1169P
1826.877	0.634	1969445	DISTRACT_END	n/a	n/a	n/a	n/a	-999	15	[0, 0, 0]	n/a	catFR1	0	R1169P
1827.511	0.517	1970079	RETRIEVAL_ORIENT	n/a	n/a	n/a	n/a	-999	15	[0, 0, 0]	n/a	catFR1	0	R1169P
1828.028	2.118	1970596	REC_START	n/a	n/a	n/a	n/a	-999	15	[0, 0, 0]	n/a	catFR1	0	R1169P
1830.146	3.289	1972714	REC_WORD	2.118	n/a	PEELER	KitchenTools	10	15	[0, 0, 0]	n/a	catFR1	0	R1169P
1833.435	1.034	1976003	REC_WORD	5.407	n/a	PLIERS	Tools	2	15	[0, 0, 0]	n/a	catFR1	0	R1169P
1834.469	1.86	1977037	REC_WORD	6.441	n/a	HAMMER	Tools	1	15	[0, 0, 0]	n/a	catFR1	0	R1169P
1836.329	1.0	1978897	REC_WORD_VV	8.301	n/a	<>	n/a	-999	15	[0, 0, 0]	n/a	catFR1	0	R1169P
1837.329	0.479	1979896	REC_WORD_VV	9.301	n/a	<>	n/a	-999	15	[0, 0, 0]	n/a	catFR1	0	R1169P
1837.808	3.053	1980375	REC_WORD	9.78	n/a	PEELER	KitchenTools	10	15	[0, 0, 0]	n/a	catFR1	0	R1169P
1840.861	1.0	1983428	REC_WORD_VV	12.833	n/a	<>	n/a	-999	15	[0, 0, 0]	n/a	catFR1	0	R1169P
1841.861	1.0	1984428	REC_WORD_VV	13.833	n/a	<>	n/a	-999	15	[0, 0, 0]	n/a	catFR1	0	R1169P
1842.861	1.307	1985428	REC_WORD_VV	14.833	n/a	<>	n/a	-999	15	[0, 0, 0]	n/a	catFR1	0	R1169P
1844.168	1.372	1986735	REC_WORD_VV	16.14	n/a	<>	n/a	-999	15	[0, 0, 0]	n/a	catFR1	0	R1169P
1845.54	0.15	1988107	REC_WORD_VV	17.512	n/a	<>	n/a	-999	15	[0, 0, 0]	n/a	catFR1	0	R1169P
1845.69	1.178	1988257	REC_WORD	17.662	n/a	DRAINER	n/a	-999	15	[0, 0, 0]	n/a	catFR1	0	R1169P
1846.868	0.15	1989435	REC_WORD_VV	18.84	n/a	<>	n/a	-999	15	[0, 0, 0]	n/a	catFR1	0	R1169P
1847.018	4.158	1989585	REC_WORD	18.99	n/a	LADLE	KitchenTools	9	15	[0, 0, 0]	n/a	catFR1	0	R1169P
1851.176	1.0	1993743	REC_WORD_VV	23.148	n/a	<>	n/a	-999	15	[0, 0, 0]	n/a	catFR1	0	R1169P
1852.176	4.22	1994743	REC_WORD_VV	24.148	n/a	<>	n/a	-999	15	[0, 0, 0]	n/a	catFR1	0	R1169P
1856.396	0.406	1998963	REC_WORD_VV	28.368	n/a	<>	n/a	-999	15	[0, 0, 0]	n/a	catFR1	0	R1169P
1856.802	0.42	1999368	REC_WORD	28.774	n/a	PEELER	KitchenTools	10	15	[0, 0, 0]	n/a	catFR1	0	R1169P
1857.222	0.815	1999788	REC_WORD_VV	29.194	n/a	<>	n/a	-999	15	[0, 0, 0]	n/a	catFR1	0	R1169P
1858.037	5.247	2000603	REC_END	n/a	n/a	n/a	n/a	-999	15	[0, 0, 0]	n/a	catFR1	0	R1169P
1863.284	0.5	2005850	TRIAL	n/a	n/a	n/a	n/a	-999	16	[0, 0, 0]	n/a	catFR1	0	R1169P
1863.784	10.428	2006350	COUNTDOWN_START	n/a	n/a	n/a	n/a	-999	16	[0, 0, 0]	n/a	catFR1	0	R1169P
1874.212	0.006	2016778	COUNTDOWN_END	n/a	n/a	n/a	n/a	-999	16	[0, 0, 0]	n/a	catFR1	0	R1169P
1874.218	1.618	2016784	ORIENT	n/a	n/a	n/a	n/a	-999	16	[0, 0, 0]	n/a	catFR1	0	R1169P
1875.836	2.2	2018402	ORIENT_OFF	n/a	n/a	n/a	n/a	-999	16	[0, 0, 0]	n/a	catFR1	0	R1169P
1878.036	1.618	2020601	WORD	n/a	wordpools/wordpool_categorized_EN.txt	HORSE	FarmAnimals	1	16	[0, 0, 0]	n/a	catFR1	0	R1169P
1879.654	1.0	2022219	WORD_OFF	n/a	n/a	HORSE	n/a	1	16	[0, 0, 0]	n/a	catFR1	0	R1169P
1880.654	1.617	2023219	WORD	n/a	wordpools/wordpool_categorized_EN.txt	COW	FarmAnimals	2	16	[0, 0, 0]	n/a	catFR1	0	R1169P
1882.271	0.832	2024836	WORD_OFF	n/a	n/a	COW	n/a	2	16	[0, 0, 0]	n/a	catFR1	0	R1169P
1883.103	1.601	2025668	WORD	n/a	wordpools/wordpool_categorized_EN.txt	WINDOW	Building	3	16	[0, 0, 0]	n/a	catFR1	0	R1169P
1884.704	0.851	2027269	WORD_OFF	n/a	n/a	WINDOW	n/a	3	16	[0, 0, 0]	n/a	catFR1	0	R1169P
1885.555	1.616	2028120	WORD	n/a	wordpools/wordpool_categorized_EN.txt	ROOF	Building	4	16	[0, 0, 0]	n/a	catFR1	0	R1169P
1887.171	0.933	2029736	WORD_OFF	n/a	n/a	ROOF	n/a	4	16	[0, 0, 0]	n/a	catFR1	0	R1169P
1888.104	1.601	2030669	WORD	n/a	wordpools/wordpool_categorized_EN.txt	TONGS	KitchenTools	5	16	[0, 0, 0]	n/a	catFR1	0	R1169P
1889.705	1.001	2032270	WORD_OFF	n/a	n/a	TONGS	n/a	5	16	[0, 0, 0]	n/a	catFR1	0	R1169P
1890.706	1.617	2033271	WORD	n/a	wordpools/wordpool_categorized_EN.txt	CORKSCREW	KitchenTools	6	16	[0, 0, 0]	n/a	catFR1	0	R1169P
1892.323	0.983	2034888	WORD_OFF	n/a	n/a	CORKSCREW	n/a	6	16	[0, 0, 0]	n/a	catFR1	0	R1169P
1893.306	1.617	2035871	WORD	n/a	wordpools/wordpool_categorized_EN.txt	FLOOR	Building	7	16	[0, 0, 0]	n/a	catFR1	0	R1169P
1894.923	0.934	2037488	WORD_OFF	n/a	n/a	FLOOR	n/a	7	16	[0, 0, 0]	n/a	catFR1	0	R1169P
1895.857	1.617	2038422	WORD	n/a	wordpools/wordpool_categorized_EN.txt	BATHROOM	Building	8	16	[0, 0, 0]	n/a	catFR1	0	R1169P
1897.474	0.766	2040038	WORD_OFF	n/a	n/a	BATHROOM	n/a	8	16	[0, 0, 0]	n/a	catFR1	0	R1169P
1898.24	1.618	2040804	WORD	n/a	wordpools/wordpool_categorized_EN.txt	ROOSTER	FarmAnimals	9	16	[0, 0, 0]	n/a	catFR1	0	R1169P
1899.858	1.0	2042422	WORD_OFF	n/a	n/a	ROOSTER	n/a	9	16	[0, 0, 0]	n/a	catFR1	0	R1169P
1900.858	1.617	2043422	WORD	n/a	wordpools/wordpool_categorized_EN.txt	GOAT	FarmAnimals	10	16	[0, 0, 0]	n/a	catFR1	0	R1169P
1902.475	0.883	2045039	WORD_OFF	n/a	n/a	GOAT	n/a	10	16	[0, 0, 0]	n/a	catFR1	0	R1169P
1903.358	1.617	2045922	WORD	n/a	wordpools/wordpool_categorized_EN.txt	SPATULA	KitchenTools	11	16	[0, 0, 0]	n/a	catFR1	0	R1169P
1904.975	0.817	2047539	WORD_OFF	n/a	n/a	SPATULA	n/a	11	16	[0, 0, 0]	n/a	catFR1	0	R1169P
1905.792	1.617	2048356	WORD	n/a	wordpools/wordpool_categorized_EN.txt	GRATER	KitchenTools	12	16	[0, 0, 0]	n/a	catFR1	0	R1169P
1907.409	0.0	2049973	ENCODING_END	n/a	n/a	n/a	n/a	-999	16	[0, 0, 0]	n/a	catFR1	0	R1169P
1907.409	0.101	2049973	WORD_OFF	n/a	n/a	GRATER	n/a	12	16	[0, 0, 0]	n/a	catFR1	0	R1169P
1907.51	0.001	2050074	DISTRACT_START	n/a	n/a	n/a	n/a	-999	16	[0, 0, 0]	n/a	catFR1	0	R1169P
1907.511	0.015	2050075	START	n/a	n/a	n/a	n/a	-999	16	[-999, -999, -999]	n/a	catFR1	0	R1169P
1907.526	6.583	2050090	PROB	6.558	n/a	n/a	n/a	-999	16	[5, 1, 4]	10.0	catFR1	0	R1169P
1914.109	6.903	2056673	PROB	6.878	n/a	n/a	n/a	-999	16	[5, 9, 2]	16.0	catFR1	0	R1169P
1921.012	19.158	2063575	PROB	19.158	n/a	n/a	n/a	-999	16	[3, 5, 9]	17.0	catFR1	0	R1169P
1940.17	0.011	2082732	STOP	n/a	n/a	n/a	n/a	-999	16	[-999, -999, -999]	n/a	catFR1	0	R1169P
1940.181	0.584	2082743	DISTRACT_END	n/a	n/a	n/a	n/a	-999	16	[0, 0, 0]	n/a	catFR1	0	R1169P
1940.765	0.518	2083327	RETRIEVAL_ORIENT	n/a	n/a	n/a	n/a	-999	16	[0, 0, 0]	n/a	catFR1	0	R1169P
1941.283	3.598	2083845	REC_START	n/a	n/a	n/a	n/a	-999	16	[0, 0, 0]	n/a	catFR1	0	R1169P
1944.881	0.866	2087443	REC_WORD_VV	3.598	n/a	<>	n/a	-999	16	[0, 0, 0]	n/a	catFR1	0	R1169P
1945.747	2.143	2088309	REC_WORD	4.464	n/a	HORSE	FarmAnimals	1	16	[0, 0, 0]	n/a	catFR1	0	R1169P
1947.89	0.142	2090452	REC_WORD_VV	6.607	n/a	<>	n/a	-999	16	[0, 0, 0]	n/a	catFR1	0	R1169P
1948.032	5.198	2090594	REC_WORD	6.749	n/a	COW	FarmAnimals	2	16	[0, 0, 0]	n/a	catFR1	0	R1169P
1953.23	1.0	2095792	REC_WORD_VV	11.947	n/a	<>	n/a	-999	16	[0, 0, 0]	n/a	catFR1	0	R1169P
1954.23	2.281	2096792	REC_WORD_VV	12.947	n/a	<>	n/a	-999	16	[0, 0, 0]	n/a	catFR1	0	R1169P
1956.511	0.21	2099072	REC_WORD_VV	15.228	n/a	<>	n/a	-999	16	[0, 0, 0]	n/a	catFR1	0	R1169P
1956.721	0.691	2099282	REC_WORD	15.438	n/a	BATHROOM	Building	8	16	[0, 0, 0]	n/a	catFR1	0	R1169P
1957.412	3.031	2099973	REC_WORD	16.129	n/a	FLOOR	Building	7	16	[0, 0, 0]	n/a	catFR1	0	R1169P
1960.443	1.0	2103004	REC_WORD_VV	19.16	n/a	<>	n/a	-999	16	[0, 0, 0]	n/a	catFR1	0	R1169P
1961.443	2.086	2104004	REC_WORD_VV	20.16	n/a	<>	n/a	-999	16	[0, 0, 0]	n/a	catFR1	0	R1169P
1963.529	3.65	2106090	REC_WORD_VV	22.246	n/a	<>	n/a	-999	16	[0, 0, 0]	n/a	catFR1	0	R1169P
1967.179	1.0	2109740	REC_WORD_VV	25.896	n/a	<>	n/a	-999	16	[0, 0, 0]	n/a	catFR1	0	R1169P
1968.179	1.192	2110740	REC_WORD_VV	26.896	n/a	<>	n/a	-999	16	[0, 0, 0]	n/a	catFR1	0	R1169P
1969.371	1.667	2111932	REC_WORD_VV	28.088	n/a	<>	n/a	-999	16	[0, 0, 0]	n/a	catFR1	0	R1169P
1971.038	0.256	2113599	REC_WORD_VV	29.755	n/a	<>	n/a	-999	16	[0, 0, 0]	n/a	catFR1	0	R1169P
1971.294	16.247	2113855	REC_END	n/a	n/a	n/a	n/a	-999	16	[0, 0, 0]	n/a	catFR1	0	R1169P
1987.541	0.5	2130101	TRIAL	n/a	n/a	n/a	n/a	-999	17	[0, 0, 0]	n/a	catFR1	0	R1169P
1988.041	10.428	2130601	COUNTDOWN_START	n/a	n/a	n/a	n/a	-999	17	[0, 0, 0]	n/a	catFR1	0	R1169P
1998.469	0.007	2141028	COUNTDOWN_END	n/a	n/a	n/a	n/a	-999	17	[0, 0, 0]	n/a	catFR1	0	R1169P
1998.476	1.616	2141035	ORIENT	n/a	n/a	n/a	n/a	-999	17	[0, 0, 0]	n/a	catFR1	0	R1169P
2000.092	2.201	2142651	ORIENT_OFF	n/a	n/a	n/a	n/a	-999	17	[0, 0, 0]	n/a	catFR1	0	R1169P
2002.293	1.618	2144852	WORD	n/a	wordpools/wordpool_categorized_EN.txt	PUZZLE	Toys	1	17	[0, 0, 0]	n/a	catFR1	0	R1169P
2003.911	0.883	2146470	WORD_OFF	n/a	n/a	PUZZLE	n/a	1	17	[0, 0, 0]	n/a	catFR1	0	R1169P
2004.794	1.617	2147353	WORD	n/a	wordpools/wordpool_categorized_EN.txt	MARBLES	Toys	2	17	[0, 0, 0]	n/a	catFR1	0	R1169P
2006.411	0.967	2148970	WORD_OFF	n/a	n/a	MARBLES	n/a	2	17	[0, 0, 0]	n/a	catFR1	0	R1169P
2007.378	1.617	2149937	WORD	n/a	wordpools/wordpool_categorized_EN.txt	CROW	Birds	3	17	[0, 0, 0]	n/a	catFR1	0	R1169P
2008.995	0.95	2151554	WORD_OFF	n/a	n/a	CROW	n/a	3	17	[0, 0, 0]	n/a	catFR1	0	R1169P
2009.945	1.617	2152504	WORD	n/a	wordpools/wordpool_categorized_EN.txt	PIGEON	Birds	4	17	[0, 0, 0]	n/a	catFR1	0	R1169P
2011.562	0.917	2154121	WORD_OFF	n/a	n/a	PIGEON	n/a	4	17	[0, 0, 0]	n/a	catFR1	0	R1169P
2012.479	1.616	2155038	WORD	n/a	wordpools/wordpool_categorized_EN.txt	WATER	Beverages	5	17	[0, 0, 0]	n/a	catFR1	0	R1169P
2014.095	0.784	2156654	WORD_OFF	n/a	n/a	WATER	n/a	5	17	[0, 0, 0]	n/a	catFR1	0	R1169P
2014.879	1.617	2157437	WORD	n/a	wordpools/wordpool_categorized_EN.txt	SODA	Beverages	6	17	[0, 0, 0]	n/a	catFR1	0	R1169P
2016.496	0.884	2159054	WORD_OFF	n/a	n/a	SODA	n/a	6	17	[0, 0, 0]	n/a	catFR1	0	R1169P
2017.38	1.617	2159938	WORD	n/a	wordpools/wordpool_categorized_EN.txt	BASEBALL	Toys	7	17	[0, 0, 0]	n/a	catFR1	0	R1169P
2018.997	0.866	2161555	WORD_OFF	n/a	n/a	BASEBALL	n/a	7	17	[0, 0, 0]	n/a	catFR1	0	R1169P
2019.863	1.617	2162421	WORD	n/a	wordpools/wordpool_categorized_EN.txt	BARBIE	Toys	8	17	[0, 0, 0]	n/a	catFR1	0	R1169P
2021.48	0.851	2164038	WORD_OFF	n/a	n/a	BARBIE	n/a	8	17	[0, 0, 0]	n/a	catFR1	0	R1169P
2022.331	1.617	2164889	WORD	n/a	wordpools/wordpool_categorized_EN.txt	BLUEBIRD	Birds	9	17	[0, 0, 0]	n/a	catFR1	0	R1169P
2023.948	0.95	2166506	WORD_OFF	n/a	n/a	BLUEBIRD	n/a	9	17	[0, 0, 0]	n/a	catFR1	0	R1169P
2024.898	1.617	2167456	WORD	n/a	wordpools/wordpool_categorized_EN.txt	ROBIN	Birds	10	17	[0, 0, 0]	n/a	catFR1	0	R1169P
2026.515	0.983	2169073	WORD_OFF	n/a	n/a	ROBIN	n/a	10	17	[0, 0, 0]	n/a	catFR1	0	R1169P
2027.498	1.616	2170056	WORD	n/a	wordpools/wordpool_categorized_EN.txt	JUICE	Beverages	11	17	[0, 0, 0]	n/a	catFR1	0	R1169P
2029.114	0.851	2171672	WORD_OFF	n/a	n/a	JUICE	n/a	11	17	[0, 0, 0]	n/a	catFR1	0	R1169P
2029.965	1.617	2172523	WORD	n/a	wordpools/wordpool_categorized_EN.txt	RUM	Beverages	12	17	[0, 0, 0]	n/a	catFR1	0	R1169P
2031.582	0.001	2174140	WORD_OFF	n/a	n/a	RUM	n/a	12	17	[0, 0, 0]	n/a	catFR1	0	R1169P
2031.583	0.099	2174141	ENCODING_END	n/a	n/a	n/a	n/a	-999	17	[0, 0, 0]	n/a	catFR1	0	R1169P
2031.682	0.001	2174240	DISTRACT_START	n/a	n/a	n/a	n/a	-999	17	[0, 0, 0]	n/a	catFR1	0	R1169P
2031.683	0.016	2174241	START	n/a	n/a	n/a	n/a	-999	17	[-999, -999, -999]	n/a	catFR1	0	R1169P
2031.699	6.018	2174257	PROB	5.992	n/a	n/a	n/a	-999	17	[4, 2, 2]	8.0	catFR1	0	R1169P
2037.717	8.835	2180274	PROB	8.798	n/a	n/a	n/a	-999	17	[6, 9, 3]	18.0	catFR1	0	R1169P
2046.552	15.514	2189109	PROB	15.514	n/a	n/a	n/a	-999	17	[7, 4, 7]	18.0	catFR1	0	R1169P
2062.066	0.021	2204622	STOP	n/a	n/a	n/a	n/a	-999	17	[-999, -999, -999]	n/a	catFR1	0	R1169P
2062.087	0.635	2204643	DISTRACT_END	n/a	n/a	n/a	n/a	-999	17	[0, 0, 0]	n/a	catFR1	0	R1169P
2062.722	0.517	2205278	RETRIEVAL_ORIENT	n/a	n/a	n/a	n/a	-999	17	[0, 0, 0]	n/a	catFR1	0	R1169P
2063.239	2.351	2205795	REC_START	n/a	n/a	n/a	n/a	-999	17	[0, 0, 0]	n/a	catFR1	0	R1169P
2065.59	3.146	2208146	REC_WORD	2.351	n/a	BARBIE	Toys	8	17	[0, 0, 0]	n/a	catFR1	0	R1169P
2068.736	0.92	2211292	REC_WORD_VV	5.497	n/a	<>	n/a	-999	17	[0, 0, 0]	n/a	catFR1	0	R1169P
2069.656	0.663	2212212	REC_WORD	6.417	n/a	MARBLES	Toys	2	17	[0, 0, 0]	n/a	catFR1	0	R1169P
2070.319	1.472	2212875	REC_WORD	7.08	n/a	PUZZLE	Toys	1	17	[0, 0, 0]	n/a	catFR1	0	R1169P
2071.791	0.635	2214347	REC_WORD_VV	8.552	n/a	<>	n/a	-999	17	[0, 0, 0]	n/a	catFR1	0	R1169P
2072.426	3.56	2214982	REC_WORD	9.187	n/a	BARBIE	Toys	8	17	[0, 0, 0]	n/a	catFR1	0	R1169P
2075.986	1.0	2218541	REC_WORD_VV	12.747	n/a	<>	n/a	-999	17	[0, 0, 0]	n/a	catFR1	0	R1169P
2076.986	1.0	2219541	REC_WORD_VV	13.747	n/a	<>	n/a	-999	17	[0, 0, 0]	n/a	catFR1	0	R1169P
2077.986	2.471	2220541	REC_WORD_VV	14.747	n/a	<>	n/a	-999	17	[0, 0, 0]	n/a	catFR1	0	R1169P
2080.457	4.936	2223012	REC_WORD	17.218	n/a	BARBIE	Toys	8	17	[0, 0, 0]	n/a	catFR1	0	R1169P
2085.393	0.386	2227948	REC_WORD_VV	22.154	n/a	<>	n/a	-999	17	[0, 0, 0]	n/a	catFR1	0	R1169P
2085.779	0.616	2228334	REC_WORD	22.54	n/a	BIRD	n/a	-999	17	[0, 0, 0]	n/a	catFR1	0	R1169P
2086.395	1.0	2228950	REC_WORD_VV	23.156	n/a	<>	n/a	-999	17	[0, 0, 0]	n/a	catFR1	0	R1169P
2087.395	2.498	2229950	REC_WORD_VV	24.156	n/a	<>	n/a	-999	17	[0, 0, 0]	n/a	catFR1	0	R1169P
2089.893	1.0	2232448	REC_WORD_VV	26.654	n/a	<>	n/a	-999	17	[0, 0, 0]	n/a	catFR1	0	R1169P
2090.893	1.0	2233448	REC_WORD_VV	27.654	n/a	<>	n/a	-999	17	[0, 0, 0]	n/a	catFR1	0	R1169P
2091.893	1.357	2234448	REC_WORD_VV	28.654	n/a	<>	n/a	-999	17	[0, 0, 0]	n/a	catFR1	0	R1169P
2093.25	6.379	2235804	REC_END	n/a	n/a	n/a	n/a	-999	17	[0, 0, 0]	n/a	catFR1	0	R1169P
2099.629	0.5	2242183	TRIAL	n/a	n/a	n/a	n/a	-999	18	[0, 0, 0]	n/a	catFR1	0	R1169P
2100.129	10.428	2242683	COUNTDOWN_START	n/a	n/a	n/a	n/a	-999	18	[0, 0, 0]	n/a	catFR1	0	R1169P
2110.557	0.007	2253111	COUNTDOWN_END	n/a	n/a	n/a	n/a	-999	18	[0, 0, 0]	n/a	catFR1	0	R1169P
2110.564	1.616	2253118	ORIENT	n/a	n/a	n/a	n/a	-999	18	[0, 0, 0]	n/a	catFR1	0	R1169P
2112.18	2.151	2254734	ORIENT_OFF	n/a	n/a	n/a	n/a	-999	18	[0, 0, 0]	n/a	catFR1	0	R1169P
2114.331	1.617	2256884	WORD	n/a	wordpools/wordpool_categorized_EN.txt	DOVE	Birds	1	18	[0, 0, 0]	n/a	catFR1	0	R1169P
2115.948	0.867	2258501	WORD_OFF	n/a	n/a	DOVE	n/a	1	18	[0, 0, 0]	n/a	catFR1	0	R1169P
2116.815	1.617	2259368	WORD	n/a	wordpools/wordpool_categorized_EN.txt	SPARROW	Birds	2	18	[0, 0, 0]	n/a	catFR1	0	R1169P
2118.432	0.766	2260985	WORD_OFF	n/a	n/a	SPARROW	n/a	2	18	[0, 0, 0]	n/a	catFR1	0	R1169P
2119.198	1.618	2261751	WORD	n/a	wordpools/wordpool_categorized_EN.txt	DESK	Furniture	3	18	[0, 0, 0]	n/a	catFR1	0	R1169P
2120.816	0.95	2263369	WORD_OFF	n/a	n/a	DESK	n/a	3	18	[0, 0, 0]	n/a	catFR1	0	R1169P
2121.766	1.617	2264319	WORD	n/a	wordpools/wordpool_categorized_EN.txt	NIGHTSTAND	Furniture	4	18	[0, 0, 0]	n/a	catFR1	0	R1169P
2123.383	0.816	2265936	WORD_OFF	n/a	n/a	NIGHTSTAND	n/a	4	18	[0, 0, 0]	n/a	catFR1	0	R1169P
2124.199	1.618	2266752	WORD	n/a	wordpools/wordpool_categorized_EN.txt	CAKE	Desserts	5	18	[0, 0, 0]	n/a	catFR1	0	R1169P
2125.817	0.933	2268370	WORD_OFF	n/a	n/a	CAKE	n/a	5	18	[0, 0, 0]	n/a	catFR1	0	R1169P
2126.75	1.617	2269303	WORD	n/a	wordpools/wordpool_categorized_EN.txt	JELLO	Desserts	6	18	[0, 0, 0]	n/a	catFR1	0	R1169P
2128.367	0.934	2270920	WORD_OFF	n/a	n/a	JELLO	n/a	6	18	[0, 0, 0]	n/a	catFR1	0	R1169P
2129.301	1.617	2271854	WORD	n/a	wordpools/wordpool_categorized_EN.txt	HAWK	Birds	7	18	[0, 0, 0]	n/a	catFR1	0	R1169P
2130.918	0.983	2273471	WORD_OFF	n/a	n/a	HAWK	n/a	7	18	[0, 0, 0]	n/a	catFR1	0	R1169P
2131.901	1.617	2274454	WORD	n/a	wordpools/wordpool_categorized_EN.txt	DUCK	Birds	8	18	[0, 0, 0]	n/a	catFR1	0	R1169P
2133.518	0.784	2276070	WORD_OFF	n/a	n/a	DUCK	n/a	8	18	[0, 0, 0]	n/a	catFR1	0	R1169P
2134.302	1.617	2276854	WORD	n/a	wordpools/wordpool_categorized_EN.txt	CABINET	Furniture	9	18	[0, 0, 0]	n/a	catFR1	0	R1169P
2135.919	0.8	2278471	WORD_OFF	n/a	n/a	CABINET	n/a	9	18	[0, 0, 0]	n/a	catFR1	0	R1169P
2136.719	1.617	2279271	WORD	n/a	wordpools/wordpool_categorized_EN.txt	RECLINER	Furniture	10	18	[0, 0, 0]	n/a	catFR1	0	R1169P
2138.336	1.0	2280888	WORD_OFF	n/a	n/a	RECLINER	n/a	10	18	[0, 0, 0]	n/a	catFR1	0	R1169P
2139.336	1.617	2281888	WORD	n/a	wordpools/wordpool_categorized_EN.txt	FUDGE	Desserts	11	18	[0, 0, 0]	n/a	catFR1	0	R1169P
2140.953	0.9	2283505	WORD_OFF	n/a	n/a	FUDGE	n/a	11	18	[0, 0, 0]	n/a	catFR1	0	R1169P
2141.853	1.617	2284405	WORD	n/a	wordpools/wordpool_categorized_EN.txt	CHEESECAKE	Desserts	12	18	[0, 0, 0]	n/a	catFR1	0	R1169P
2143.47	0.0	2286022	ENCODING_END	n/a	n/a	n/a	n/a	-999	18	[0, 0, 0]	n/a	catFR1	0	R1169P
2143.47	0.138	2286022	WORD_OFF	n/a	n/a	CHEESECAKE	n/a	12	18	[0, 0, 0]	n/a	catFR1	0	R1169P
2143.608	0.0	2286160	DISTRACT_START	n/a	n/a	n/a	n/a	-999	18	[0, 0, 0]	n/a	catFR1	0	R1169P
2143.608	0.012	2286160	START	n/a	n/a	n/a	n/a	-999	18	[-999, -999, -999]	n/a	catFR1	0	R1169P
2143.62	12.886	2286172	PROB	12.863	n/a	n/a	n/a	-999	18	[7, 4, 2]	16.0	catFR1	0	R1169P
2156.506	9.632	2299057	PROB	9.632	n/a	n/a	n/a	-999	18	[7, 3, 7]	18.0	catFR1	0	R1169P
2166.138	0.019	2308689	STOP	n/a	n/a	n/a	n/a	-999	18	[-999, -999, -999]	n/a	catFR1	0	R1169P
2166.157	0.567	2308708	DISTRACT_END	n/a	n/a	n/a	n/a	-999	18	[0, 0, 0]	n/a	catFR1	0	R1169P
2166.724	0.518	2309275	RETRIEVAL_ORIENT	n/a	n/a	n/a	n/a	-999	18	[0, 0, 0]	n/a	catFR1	0	R1169P
2167.242	1.156	2309793	REC_START	n/a	n/a	n/a	n/a	-999	18	[0, 0, 0]	n/a	catFR1	0	R1169P
2168.398	0.568	2310949	REC_WORD_VV	1.156	n/a	<>	n/a	-999	18	[0, 0, 0]	n/a	catFR1	0	R1169P
2168.966	7.128	2311517	REC_WORD	1.724	n/a	DOVE	Birds	1	18	[0, 0, 0]	n/a	catFR1	0	R1169P
2176.094	0.567	2318644	REC_WORD_VV	8.852	n/a	<>	n/a	-999	18	[0, 0, 0]	n/a	catFR1	0	R1169P
2176.661	1.0	2319211	REC_WORD	9.419	n/a	DOVE	Birds	1	18	[0, 0, 0]	n/a	catFR1	0	R1169P
2177.661	9.167	2320211	REC_WORD_VV	10.419	n/a	<>	n/a	-999	18	[0, 0, 0]	n/a	catFR1	0	R1169P
2186.828	0.652	2329378	REC_WORD_VV	19.586	n/a	<>	n/a	-999	18	[0, 0, 0]	n/a	catFR1	0	R1169P
2187.48	0.784	2330030	REC_WORD	20.238	n/a	CRANBERRY	n/a	-999	18	[0, 0, 0]	n/a	catFR1	0	R1169P
2188.264	0.919	2330814	REC_WORD_VV	21.022	n/a	<>	n/a	-999	18	[0, 0, 0]	n/a	catFR1	0	R1169P
2189.183	4.034	2331733	REC_WORD	21.941	n/a	BIRD	n/a	-999	18	[0, 0, 0]	n/a	catFR1	0	R1169P
2193.217	1.0	2335766	REC_WORD_VV	25.975	n/a	<>	n/a	-999	18	[0, 0, 0]	n/a	catFR1	0	R1169P
2194.217	1.81	2336766	REC_WORD_VV	26.975	n/a	<>	n/a	-999	18	[0, 0, 0]	n/a	catFR1	0	R1169P
2196.027	0.851	2338576	REC_WORD_VV	28.785	n/a	<>	n/a	-999	18	[0, 0, 0]	n/a	catFR1	0	R1169P
2196.878	0.375	2339427	REC_WORD	29.636	n/a	BUREAU	n/a	-999	18	[0, 0, 0]	n/a	catFR1	0	R1169P
