onset	duration	sample	trial_type	response_time	stim_file	item_name	category	serialpos	list	test	answer	experiment	session	subject
0.0	164.866	1091052	INSTRUCT_START	n/a	n/a	n/a	n/a	-999	-999	[0, 0, 0]	n/a	catFR1	0	R1527J
164.866	53.468	1255908	INSTRUCT_END	n/a	n/a	n/a	n/a	-999	-999	[0, 0, 0]	n/a	catFR1	0	R1527J
218.334	10.348	1309374	COUNTDOWN_START	n/a	n/a	n/a	n/a	-999	-999	[0, 0, 0]	n/a	catFR1	0	R1527J
228.682	0.0	1319719	COUNTDOWN_END	n/a	n/a	n/a	n/a	-999	-999	[0, 0, 0]	n/a	catFR1	0	R1527J
228.682	2.187	1319726	ENCODING_START	n/a	n/a	n/a	n/a	-999	-1	[0, 0, 0]	n/a	catFR1	0	R1527J
230.869	1.615	1321912	WORD	n/a	n/a	OAK	Trees	1	-1	[0, 0, 0]	n/a	catFR1	0	R1527J
232.484	0.8	1323520	WORD_OFF	n/a	n/a	OAK	Trees	1	-1	[0, 0, 0]	n/a	catFR1	0	R1527J
233.284	1.6	1324328	WORD	n/a	n/a	EVERGREEN	Trees	2	-1	[0, 0, 0]	n/a	catFR1	0	R1527J
234.884	0.816	1325926	WORD_OFF	n/a	n/a	EVERGREEN	Trees	2	-1	[0, 0, 0]	n/a	catFR1	0	R1527J
235.7	1.617	1326744	WORD	n/a	n/a	DRILL	Tools	3	-1	[0, 0, 0]	n/a	catFR1	0	R1527J
237.317	1.0	1328360	WORD_OFF	n/a	n/a	DRILL	Tools	3	-1	[0, 0, 0]	n/a	catFR1	0	R1527J
238.317	1.6	1329352	WORD	n/a	n/a	RATCHET	Tools	4	-1	[0, 0, 0]	n/a	catFR1	0	R1527J
239.917	0.8	1330960	WORD_OFF	n/a	n/a	RATCHET	Tools	4	-1	[0, 0, 0]	n/a	catFR1	0	R1527J
240.717	1.6	1331759	WORD	n/a	n/a	SUNFLOWER	Flowers	5	-1	[0, 0, 0]	n/a	catFR1	0	R1527J
242.317	0.933	1333357	WORD_OFF	n/a	n/a	SUNFLOWER	Flowers	5	-1	[0, 0, 0]	n/a	catFR1	0	R1527J
243.25	1.6	1334294	WORD	n/a	n/a	ROSE	Flowers	6	-1	[0, 0, 0]	n/a	catFR1	0	R1527J
244.85	0.9	1335892	WORD_OFF	n/a	n/a	ROSE	Flowers	6	-1	[0, 0, 0]	n/a	catFR1	0	R1527J
245.75	1.6	1336792	WORD	n/a	n/a	SPRUCE	Trees	7	-1	[0, 0, 0]	n/a	catFR1	0	R1527J
247.35	0.867	1338390	WORD_OFF	n/a	n/a	SPRUCE	Trees	7	-1	[0, 0, 0]	n/a	catFR1	0	R1527J
248.217	1.6	1339254	WORD	n/a	n/a	BIRCH	Trees	8	-1	[0, 0, 0]	n/a	catFR1	0	R1527J
249.817	0.999	1340852	WORD_OFF	n/a	n/a	BIRCH	Trees	8	-1	[0, 0, 0]	n/a	catFR1	0	R1527J
250.816	1.6	1341853	WORD	n/a	n/a	VIOLET	Flowers	9	-1	[0, 0, 0]	n/a	catFR1	0	R1527J
252.416	0.866	1343451	WORD_OFF	n/a	n/a	VIOLET	Flowers	9	-1	[0, 0, 0]	n/a	catFR1	0	R1527J
253.282	1.601	1344324	WORD	n/a	n/a	PETUNIA	Flowers	10	-1	[0, 0, 0]	n/a	catFR1	0	R1527J
254.883	0.884	1345922	WORD_OFF	n/a	n/a	PETUNIA	Flowers	10	-1	[0, 0, 0]	n/a	catFR1	0	R1527J
255.767	1.616	1346804	WORD	n/a	n/a	HAMMER	Tools	11	-1	[0, 0, 0]	n/a	catFR1	0	R1527J
257.383	0.932	1348421	WORD_OFF	n/a	n/a	HAMMER	Tools	11	-1	[0, 0, 0]	n/a	catFR1	0	R1527J
258.315	1.602	1349348	WORD	n/a	n/a	CROWBAR	Tools	12	-1	[0, 0, 0]	n/a	catFR1	0	R1527J
259.917	0.001	1350953	PROB	5.549	n/a	n/a	n/a	-999	-1	[7, 8, 2]	17.0	catFR1	0	R1527J
259.918	0.0	1350954	START	n/a	n/a	n/a	n/a	-999	-1	[-999, -999, -999]	n/a	catFR1	0	R1527J
259.916	0.002	1350956	WORD_OFF	n/a	n/a	CROWBAR	Tools	12	-1	[0, 0, 0]	n/a	catFR1	0	R1527J
259.918	0.0	1350956	ENCODING_END	n/a	n/a	n/a	n/a	-999	-1	[0, 0, 0]	n/a	catFR1	0	R1527J
259.918	5.565	1350956	DISTRACT_START	n/a	n/a	n/a	n/a	-999	-1	[0, 0, 0]	n/a	catFR1	0	R1527J
265.483	5.866	1356519	PROB	5.848	n/a	n/a	n/a	-999	-1	[3, 3, 4]	10.0	catFR1	0	R1527J
271.349	3.267	1362385	PROB	3.249	n/a	n/a	n/a	-999	-1	[2, 8, 1]	11.0	catFR1	0	R1527J
274.616	6.082	1365651	PROB	6.065	n/a	n/a	n/a	-999	-1	[4, 7, 2]	13.0	catFR1	0	R1527J
280.698	0.0	1371733	DISTRACT_END	n/a	n/a	n/a	n/a	-999	-1	[0, 0, 0]	n/a	catFR1	0	R1527J
280.698	1.535	1371733	STOP	n/a	n/a	n/a	n/a	-999	-1	[-999, -999, -999]	n/a	catFR1	0	R1527J
282.233	2.352	1373267	REC_START	n/a	n/a	n/a	n/a	-999	-1	[0, 0, 0]	n/a	catFR1	0	R1527J
284.585	1.291	1375620	REC_WORD	2.352	n/a	VIOLET	Flowers	9	-1	[0, 0, 0]	n/a	catFR1	0	R1527J
285.876	1.98	1376911	REC_WORD	3.643	n/a	SPRUCE	Trees	7	-1	[0, 0, 0]	n/a	catFR1	0	R1527J
287.856	1.824	1378891	REC_WORD	5.623	n/a	EVERGREEN	Trees	2	-1	[0, 0, 0]	n/a	catFR1	0	R1527J
289.68	1.471	1380715	REC_WORD	7.447	n/a	DRILL	Tools	3	-1	[0, 0, 0]	n/a	catFR1	0	R1527J
291.151	1.726	1382186	REC_WORD	8.918	n/a	RATCHET	Tools	4	-1	[0, 0, 0]	n/a	catFR1	0	R1527J
292.877	1.0	1383911	REC_WORD	10.644	n/a	SUNFLOWER	Flowers	5	-1	[0, 0, 0]	n/a	catFR1	0	R1527J
293.877	1.511	1384911	REC_WORD_VV	11.644	n/a	<>	n/a	-999	-1	[0, 0, 0]	n/a	catFR1	0	R1527J
295.388	9.962	1386422	REC_WORD	13.155	n/a	OAK	Trees	1	-1	[0, 0, 0]	n/a	catFR1	0	R1527J
305.35	1.871	1396384	REC_WORD_VV	23.117	n/a	<>	n/a	-999	-1	[0, 0, 0]	n/a	catFR1	0	R1527J
307.221	0.57	1398255	REC_WORD	24.988	n/a	PETUNIA	Flowers	10	-1	[0, 0, 0]	n/a	catFR1	0	R1527J
307.791	4.634	1398825	REC_WORD_VV	25.558	n/a	<>	n/a	-999	-1	[0, 0, 0]	n/a	catFR1	0	R1527J
312.425	12.542	1403458	REC_END	n/a	n/a	n/a	n/a	-999	-1	[0, 0, 0]	n/a	catFR1	0	R1527J
324.967	10.349	1416005	COUNTDOWN_START	n/a	n/a	n/a	n/a	-999	1	[0, 0, 0]	n/a	catFR1	0	R1527J
335.316	0.0	1426348	COUNTDOWN_END	n/a	n/a	n/a	n/a	-999	1	[0, 0, 0]	n/a	catFR1	0	R1527J
335.316	1.917	1426357	ENCODING_START	n/a	n/a	n/a	n/a	-999	1	[0, 0, 0]	n/a	catFR1	0	R1527J
337.233	1.601	1428267	WORD	n/a	wordpools/wordpool_categorized_EN.txt	MICROWAVE	Electronics	1	1	[0, 0, 0]	n/a	catFR1	0	R1527J
338.834	0.882	1429866	WORD_OFF	n/a	n/a	MICROWAVE	Electronics	1	1	[0, 0, 0]	n/a	catFR1	0	R1527J
339.716	1.601	1430747	WORD	n/a	wordpools/wordpool_categorized_EN.txt	STEREO	Electronics	2	1	[0, 0, 0]	n/a	catFR1	0	R1527J
341.317	0.866	1432355	WORD_OFF	n/a	n/a	STEREO	Electronics	2	1	[0, 0, 0]	n/a	catFR1	0	R1527J
342.183	1.601	1433218	WORD	n/a	wordpools/wordpool_categorized_EN.txt	NOTEBOOK	OfficeSupplies	3	1	[0, 0, 0]	n/a	catFR1	0	R1527J
343.784	0.966	1434816	WORD_OFF	n/a	n/a	NOTEBOOK	OfficeSupplies	3	1	[0, 0, 0]	n/a	catFR1	0	R1527J
344.75	1.616	1435781	WORD	n/a	wordpools/wordpool_categorized_EN.txt	TAPE	OfficeSupplies	4	1	[0, 0, 0]	n/a	catFR1	0	R1527J
346.366	0.767	1437397	WORD_OFF	n/a	n/a	TAPE	OfficeSupplies	4	1	[0, 0, 0]	n/a	catFR1	0	R1527J
347.133	1.599	1438169	WORD	n/a	wordpools/wordpool_categorized_EN.txt	ELM	Trees	5	1	[0, 0, 0]	n/a	catFR1	0	R1527J
348.732	0.967	1439767	WORD_OFF	n/a	n/a	ELM	Trees	5	1	[0, 0, 0]	n/a	catFR1	0	R1527J
349.699	1.601	1440732	WORD	n/a	wordpools/wordpool_categorized_EN.txt	WALNUT	Trees	6	1	[0, 0, 0]	n/a	catFR1	0	R1527J
351.3	0.948	1442330	WORD_OFF	n/a	n/a	WALNUT	Trees	6	1	[0, 0, 0]	n/a	catFR1	0	R1527J
352.248	1.6	1443285	WORD	n/a	wordpools/wordpool_categorized_EN.txt	SPEAKER	Electronics	7	1	[0, 0, 0]	n/a	catFR1	0	R1527J
353.848	0.984	1444883	WORD_OFF	n/a	n/a	SPEAKER	Electronics	7	1	[0, 0, 0]	n/a	catFR1	0	R1527J
354.832	1.6	1445866	WORD	n/a	wordpools/wordpool_categorized_EN.txt	TABLET	Electronics	8	1	[0, 0, 0]	n/a	catFR1	0	R1527J
356.432	0.917	1447464	WORD_OFF	n/a	n/a	TABLET	Electronics	8	1	[0, 0, 0]	n/a	catFR1	0	R1527J
357.349	1.601	1448383	WORD	n/a	wordpools/wordpool_categorized_EN.txt	CEDAR	Trees	9	1	[0, 0, 0]	n/a	catFR1	0	R1527J
358.95	0.816	1449981	WORD_OFF	n/a	n/a	CEDAR	Trees	9	1	[0, 0, 0]	n/a	catFR1	0	R1527J
359.766	1.617	1450799	WORD	n/a	wordpools/wordpool_categorized_EN.txt	CYPRESS	Trees	10	1	[0, 0, 0]	n/a	catFR1	0	R1527J
361.383	0.882	1452415	WORD_OFF	n/a	n/a	CYPRESS	Trees	10	1	[0, 0, 0]	n/a	catFR1	0	R1527J
362.265	1.601	1453297	WORD	n/a	wordpools/wordpool_categorized_EN.txt	MARKER	OfficeSupplies	11	1	[0, 0, 0]	n/a	catFR1	0	R1527J
363.866	0.867	1454895	WORD_OFF	n/a	n/a	MARKER	OfficeSupplies	11	1	[0, 0, 0]	n/a	catFR1	0	R1527J
364.733	1.616	1455768	WORD	n/a	wordpools/wordpool_categorized_EN.txt	GLUE	OfficeSupplies	12	1	[0, 0, 0]	n/a	catFR1	0	R1527J
366.349	0.002	1457380	PROB	4.967	n/a	n/a	n/a	-999	1	[8, 5, 4]	17.0	catFR1	0	R1527J
366.351	0.0	1457382	START	n/a	n/a	n/a	n/a	-999	1	[-999, -999, -999]	n/a	catFR1	0	R1527J
366.349	0.002	1457384	WORD_OFF	n/a	n/a	GLUE	OfficeSupplies	12	1	[0, 0, 0]	n/a	catFR1	0	R1527J
366.351	0.0	1457384	ENCODING_END	n/a	n/a	n/a	n/a	-999	1	[0, 0, 0]	n/a	catFR1	0	R1527J
366.351	4.982	1457384	DISTRACT_START	n/a	n/a	n/a	n/a	-999	1	[0, 0, 0]	n/a	catFR1	0	R1527J
371.333	3.634	1462363	PROB	3.616	n/a	n/a	n/a	-999	1	[2, 2, 7]	11.0	catFR1	0	R1527J
374.967	5.582	1465997	PROB	5.566	n/a	n/a	n/a	-999	1	[4, 3, 8]	15.0	catFR1	0	R1527J
380.549	3.25	1471579	PROB	3.232	n/a	n/a	n/a	-999	1	[6, 4, 8]	18.0	catFR1	0	R1527J
383.799	3.033	1474829	PROB	3.016	n/a	n/a	n/a	-999	1	[1, 3, 5]	9.0	catFR1	0	R1527J
386.832	0.0	1477861	STOP	n/a	n/a	n/a	n/a	-999	1	[-999, -999, -999]	n/a	catFR1	0	R1527J
386.832	1.551	1477867	DISTRACT_END	n/a	n/a	n/a	n/a	-999	1	[0, 0, 0]	n/a	catFR1	0	R1527J
388.383	1.195	1479420	REC_START	n/a	n/a	n/a	n/a	-999	1	[0, 0, 0]	n/a	catFR1	0	R1527J
389.578	2.61	1480607	REC_WORD	1.195	n/a	MICROWAVE	Electronics	1	1	[0, 0, 0]	n/a	catFR1	0	R1527J
392.188	2.351	1483217	REC_WORD	3.805	n/a	TAPE	OfficeSupplies	4	1	[0, 0, 0]	n/a	catFR1	0	R1527J
394.539	1.477	1485568	REC_WORD	6.156	n/a	ELM	Trees	5	1	[0, 0, 0]	n/a	catFR1	0	R1527J
396.016	2.87	1487045	REC_WORD	7.633	n/a	STEREO	Electronics	2	1	[0, 0, 0]	n/a	catFR1	0	R1527J
398.886	1.361	1489915	REC_WORD_VV	10.503	n/a	<>	n/a	-999	1	[0, 0, 0]	n/a	catFR1	0	R1527J
400.247	2.856	1491276	REC_WORD	11.864	n/a	CEDAR	Trees	9	1	[0, 0, 0]	n/a	catFR1	0	R1527J
403.103	5.04	1494132	REC_WORD	14.72	n/a	SPEAKER	Electronics	7	1	[0, 0, 0]	n/a	catFR1	0	R1527J
408.143	7.545	1499171	REC_WORD_VV	19.76	n/a	<>	n/a	-999	1	[0, 0, 0]	n/a	catFR1	0	R1527J
415.688	1.516	1506716	REC_WORD_VV	27.305	n/a	<>	n/a	-999	1	[0, 0, 0]	n/a	catFR1	0	R1527J
417.204	1.368	1508232	REC_WORD	28.821	n/a	GLUE	OfficeSupplies	12	1	[0, 0, 0]	n/a	catFR1	0	R1527J
418.572	7.762	1509602	REC_END	n/a	n/a	n/a	n/a	-999	1	[0, 0, 0]	n/a	catFR1	0	R1527J
426.334	10.349	1517364	COUNTDOWN_START	n/a	n/a	n/a	n/a	-999	2	[0, 0, 0]	n/a	catFR1	0	R1527J
436.683	0.0	1527715	COUNTDOWN_END	n/a	n/a	n/a	n/a	-999	2	[0, 0, 0]	n/a	catFR1	0	R1527J
436.683	2.049	1527715	ENCODING_START	n/a	n/a	n/a	n/a	-999	2	[0, 0, 0]	n/a	catFR1	0	R1527J
438.732	1.601	1529764	WORD	n/a	wordpools/wordpool_categorized_EN.txt	BUS	Vehicles	1	2	[0, 0, 0]	n/a	catFR1	0	R1527J
440.333	0.767	1531362	WORD_OFF	n/a	n/a	BUS	Vehicles	1	2	[0, 0, 0]	n/a	catFR1	0	R1527J
441.1	1.615	1532133	WORD	n/a	wordpools/wordpool_categorized_EN.txt	PLANE	Vehicles	2	2	[0, 0, 0]	n/a	catFR1	0	R1527J
442.715	0.968	1533741	WORD_OFF	n/a	n/a	PLANE	Vehicles	2	2	[0, 0, 0]	n/a	catFR1	0	R1527J
443.683	1.616	1534714	WORD	n/a	wordpools/wordpool_categorized_EN.txt	BATHROOM	Building	3	2	[0, 0, 0]	n/a	catFR1	0	R1527J
445.299	0.984	1536331	WORD_OFF	n/a	n/a	BATHROOM	Building	3	2	[0, 0, 0]	n/a	catFR1	0	R1527J
446.283	1.6	1537314	WORD	n/a	wordpools/wordpool_categorized_EN.txt	FOUNDATION	Building	4	2	[0, 0, 0]	n/a	catFR1	0	R1527J
447.883	0.9	1538912	WORD_OFF	n/a	n/a	FOUNDATION	Building	4	2	[0, 0, 0]	n/a	catFR1	0	R1527J
448.783	1.616	1539812	WORD	n/a	wordpools/wordpool_categorized_EN.txt	CALF	FarmAnimals	5	2	[0, 0, 0]	n/a	catFR1	0	R1527J
450.399	0.817	1541429	WORD_OFF	n/a	n/a	CALF	FarmAnimals	5	2	[0, 0, 0]	n/a	catFR1	0	R1527J
451.216	1.616	1542246	WORD	n/a	wordpools/wordpool_categorized_EN.txt	HEN	FarmAnimals	6	2	[0, 0, 0]	n/a	catFR1	0	R1527J
452.832	0.817	1543863	WORD_OFF	n/a	n/a	HEN	FarmAnimals	6	2	[0, 0, 0]	n/a	catFR1	0	R1527J
453.649	1.616	1544680	WORD	n/a	wordpools/wordpool_categorized_EN.txt	MOTORCYCLE	Vehicles	7	2	[0, 0, 0]	n/a	catFR1	0	R1527J
455.265	0.767	1546288	WORD_OFF	n/a	n/a	MOTORCYCLE	Vehicles	7	2	[0, 0, 0]	n/a	catFR1	0	R1527J
456.032	1.617	1547059	WORD	n/a	wordpools/wordpool_categorized_EN.txt	SCOOTER	Vehicles	8	2	[0, 0, 0]	n/a	catFR1	0	R1527J
457.649	0.967	1548676	WORD_OFF	n/a	n/a	SCOOTER	Vehicles	8	2	[0, 0, 0]	n/a	catFR1	0	R1527J
458.616	1.6	1549640	WORD	n/a	wordpools/wordpool_categorized_EN.txt	ATTIC	Building	9	2	[0, 0, 0]	n/a	catFR1	0	R1527J
460.216	0.966	1551240	WORD_OFF	n/a	n/a	ATTIC	Building	9	2	[0, 0, 0]	n/a	catFR1	0	R1527J
461.182	1.601	1552212	WORD	n/a	wordpools/wordpool_categorized_EN.txt	HALLWAY	Building	10	2	[0, 0, 0]	n/a	catFR1	0	R1527J
462.783	0.766	1553810	WORD_OFF	n/a	n/a	HALLWAY	Building	10	2	[0, 0, 0]	n/a	catFR1	0	R1527J
463.549	1.617	1554573	WORD	n/a	wordpools/wordpool_categorized_EN.txt	HORSE	FarmAnimals	11	2	[0, 0, 0]	n/a	catFR1	0	R1527J
465.166	0.933	1556189	WORD_OFF	n/a	n/a	HORSE	FarmAnimals	11	2	[0, 0, 0]	n/a	catFR1	0	R1527J
466.099	1.617	1557126	WORD	n/a	wordpools/wordpool_categorized_EN.txt	SHEEP	FarmAnimals	12	2	[0, 0, 0]	n/a	catFR1	0	R1527J
467.716	0.001	1558741	PROB	3.45	n/a	n/a	n/a	-999	2	[3, 2, 1]	6.0	catFR1	0	R1527J
467.717	0.0	1558742	START	n/a	n/a	n/a	n/a	-999	2	[-999, -999, -999]	n/a	catFR1	0	R1527J
467.716	0.001	1558743	WORD_OFF	n/a	n/a	SHEEP	FarmAnimals	12	2	[0, 0, 0]	n/a	catFR1	0	R1527J
467.717	0.0	1558743	ENCODING_END	n/a	n/a	n/a	n/a	-999	2	[0, 0, 0]	n/a	catFR1	0	R1527J
467.717	3.466	1558743	DISTRACT_START	n/a	n/a	n/a	n/a	-999	2	[0, 0, 0]	n/a	catFR1	0	R1527J
471.183	2.667	1562208	PROB	2.649	n/a	n/a	n/a	-999	2	[1, 8, 2]	11.0	catFR1	0	R1527J
473.85	4.149	1564875	PROB	4.133	n/a	n/a	n/a	-999	2	[4, 2, 8]	14.0	catFR1	0	R1527J
477.999	3.85	1569024	PROB	3.834	n/a	n/a	n/a	-999	2	[2, 3, 5]	10.0	catFR1	0	R1527J
481.849	3.168	1572873	PROB	3.151	n/a	n/a	n/a	-999	2	[5, 3, 5]	13.0	catFR1	0	R1527J
485.017	6.498	1576041	PROB	6.483	n/a	n/a	n/a	-999	2	[3, 6, 6]	15.0	catFR1	0	R1527J
491.515	0.0	1582539	STOP	n/a	n/a	n/a	n/a	-999	2	[-999, -999, -999]	n/a	catFR1	0	R1527J
491.515	1.717	1582542	DISTRACT_END	n/a	n/a	n/a	n/a	-999	2	[0, 0, 0]	n/a	catFR1	0	R1527J
493.232	1.701	1584259	REC_START	n/a	n/a	n/a	n/a	-999	2	[0, 0, 0]	n/a	catFR1	0	R1527J
494.933	1.247	1585957	REC_WORD	1.701	n/a	CALF	FarmAnimals	5	2	[0, 0, 0]	n/a	catFR1	0	R1527J
496.18	1.458	1587204	REC_WORD	2.948	n/a	HORSE	FarmAnimals	11	2	[0, 0, 0]	n/a	catFR1	0	R1527J
497.638	1.696	1588662	REC_WORD	4.406	n/a	SHEEP	FarmAnimals	12	2	[0, 0, 0]	n/a	catFR1	0	R1527J
499.334	3.315	1590357	REC_WORD	6.102	n/a	FOUNDATION	Building	4	2	[0, 0, 0]	n/a	catFR1	0	R1527J
502.649	5.032	1593672	REC_WORD	9.417	n/a	PLANE	Vehicles	2	2	[0, 0, 0]	n/a	catFR1	0	R1527J
507.681	4.829	1598704	REC_WORD_VV	14.449	n/a	<>	n/a	-999	2	[0, 0, 0]	n/a	catFR1	0	R1527J
512.51	6.268	1603533	REC_WORD	19.278	n/a	BUS	Vehicles	1	2	[0, 0, 0]	n/a	catFR1	0	R1527J
518.778	1.919	1609800	REC_WORD_VV	25.546	n/a	<>	n/a	-999	2	[0, 0, 0]	n/a	catFR1	0	R1527J
520.697	2.705	1611719	REC_WORD	27.465	n/a	ATTIC	Building	9	2	[0, 0, 0]	n/a	catFR1	0	R1527J
523.402	1.897	1614423	REC_END	n/a	n/a	n/a	n/a	-999	2	[0, 0, 0]	n/a	catFR1	0	R1527J
525.299	10.351	1616325	COUNTDOWN_START	n/a	n/a	n/a	n/a	-999	3	[0, 0, 0]	n/a	catFR1	0	R1527J
535.65	0.0	1626676	COUNTDOWN_END	n/a	n/a	n/a	n/a	-999	3	[0, 0, 0]	n/a	catFR1	0	R1527J
535.65	2.266	1626676	ENCODING_START	n/a	n/a	n/a	n/a	-999	3	[0, 0, 0]	n/a	catFR1	0	R1527J
537.916	1.6	1628936	WORD	n/a	wordpools/wordpool_categorized_EN.txt	COLA	Beverages	1	3	[0, 0, 0]	n/a	catFR1	0	R1527J
539.516	0.867	1630543	WORD_OFF	n/a	n/a	COLA	Beverages	1	3	[0, 0, 0]	n/a	catFR1	0	R1527J
540.383	1.617	1631407	WORD	n/a	wordpools/wordpool_categorized_EN.txt	SODA	Beverages	2	3	[0, 0, 0]	n/a	catFR1	0	R1527J
542.0	0.766	1633023	WORD_OFF	n/a	n/a	SODA	Beverages	2	3	[0, 0, 0]	n/a	catFR1	0	R1527J
542.766	1.6	1633786	WORD	n/a	wordpools/wordpool_categorized_EN.txt	SKIRT	Clothing	3	3	[0, 0, 0]	n/a	catFR1	0	R1527J
544.366	0.817	1635393	WORD_OFF	n/a	n/a	SKIRT	Clothing	3	3	[0, 0, 0]	n/a	catFR1	0	R1527J
545.183	1.617	1636201	WORD	n/a	wordpools/wordpool_categorized_EN.txt	COAT	Clothing	4	3	[0, 0, 0]	n/a	catFR1	0	R1527J
546.8	0.9	1637827	WORD_OFF	n/a	n/a	COAT	Clothing	4	3	[0, 0, 0]	n/a	catFR1	0	R1527J
547.7	1.615	1638727	WORD	n/a	wordpools/wordpool_categorized_EN.txt	FLEECE	Fabric	5	3	[0, 0, 0]	n/a	catFR1	0	R1527J
549.315	0.969	1640335	WORD_OFF	n/a	n/a	FLEECE	Fabric	5	3	[0, 0, 0]	n/a	catFR1	0	R1527J
550.284	1.616	1641308	WORD	n/a	wordpools/wordpool_categorized_EN.txt	VELVET	Fabric	6	3	[0, 0, 0]	n/a	catFR1	0	R1527J
551.9	0.966	1642925	WORD_OFF	n/a	n/a	VELVET	Fabric	6	3	[0, 0, 0]	n/a	catFR1	0	R1527J
552.866	1.617	1643889	WORD	n/a	wordpools/wordpool_categorized_EN.txt	SHOES	Clothing	7	3	[0, 0, 0]	n/a	catFR1	0	R1527J
554.483	0.833	1645506	WORD_OFF	n/a	n/a	SHOES	Clothing	7	3	[0, 0, 0]	n/a	catFR1	0	R1527J
555.316	1.6	1646342	WORD	n/a	wordpools/wordpool_categorized_EN.txt	SHIRT	Clothing	8	3	[0, 0, 0]	n/a	catFR1	0	R1527J
556.916	0.766	1647940	WORD_OFF	n/a	n/a	SHIRT	Clothing	8	3	[0, 0, 0]	n/a	catFR1	0	R1527J
557.682	1.601	1648703	WORD	n/a	wordpools/wordpool_categorized_EN.txt	TEA	Beverages	9	3	[0, 0, 0]	n/a	catFR1	0	R1527J
559.283	0.948	1650301	WORD_OFF	n/a	n/a	TEA	Beverages	9	3	[0, 0, 0]	n/a	catFR1	0	R1527J
560.231	1.6	1651256	WORD	n/a	wordpools/wordpool_categorized_EN.txt	LEMONADE	Beverages	10	3	[0, 0, 0]	n/a	catFR1	0	R1527J
561.831	0.986	1652854	WORD_OFF	n/a	n/a	LEMONADE	Beverages	10	3	[0, 0, 0]	n/a	catFR1	0	R1527J
562.817	1.616	1653837	WORD	n/a	wordpools/wordpool_categorized_EN.txt	DENIM	Fabric	11	3	[0, 0, 0]	n/a	catFR1	0	R1527J
564.433	1.0	1655454	WORD_OFF	n/a	n/a	DENIM	Fabric	11	3	[0, 0, 0]	n/a	catFR1	0	R1527J
565.433	1.6	1656455	WORD	n/a	wordpools/wordpool_categorized_EN.txt	SUEDE	Fabric	12	3	[0, 0, 0]	n/a	catFR1	0	R1527J
567.033	0.001	1658053	WORD_OFF	n/a	n/a	SUEDE	Fabric	12	3	[0, 0, 0]	n/a	catFR1	0	R1527J
567.034	0.0	1658053	ENCODING_END	n/a	n/a	n/a	n/a	-999	3	[0, 0, 0]	n/a	catFR1	0	R1527J
567.034	0.0	1658053	DISTRACT_START	n/a	n/a	n/a	n/a	-999	3	[0, 0, 0]	n/a	catFR1	0	R1527J
567.033	0.001	1658053	PROB	3.9	n/a	n/a	n/a	-999	3	[3, 6, 2]	11.0	catFR1	0	R1527J
567.034	3.916	1658054	START	n/a	n/a	n/a	n/a	-999	3	[-999, -999, -999]	n/a	catFR1	0	R1527J
570.95	3.783	1661970	PROB	3.766	n/a	n/a	n/a	-999	3	[8, 3, 8]	19.0	catFR1	0	R1527J
574.733	3.434	1665752	PROB	3.417	n/a	n/a	n/a	-999	3	[1, 7, 2]	10.0	catFR1	0	R1527J
578.167	2.866	1669186	PROB	2.849	n/a	n/a	n/a	-999	3	[6, 2, 2]	10.0	catFR1	0	R1527J
581.033	6.217	1672052	PROB	6.2	n/a	n/a	n/a	-999	3	[4, 4, 7]	15.0	catFR1	0	R1527J
587.25	0.0	1678269	STOP	n/a	n/a	n/a	n/a	-999	3	[-999, -999, -999]	n/a	catFR1	0	R1527J
587.25	1.599	1678270	DISTRACT_END	n/a	n/a	n/a	n/a	-999	3	[0, 0, 0]	n/a	catFR1	0	R1527J
588.849	1.225	1679868	REC_START	n/a	n/a	n/a	n/a	-999	3	[0, 0, 0]	n/a	catFR1	0	R1527J
590.074	0.921	1681093	REC_WORD	1.225	n/a	COLA	Beverages	1	3	[0, 0, 0]	n/a	catFR1	0	R1527J
590.995	1.347	1682014	REC_WORD	2.146	n/a	SODA	Beverages	2	3	[0, 0, 0]	n/a	catFR1	0	R1527J
592.342	1.729	1683360	REC_WORD	3.493	n/a	SKIRT	Clothing	3	3	[0, 0, 0]	n/a	catFR1	0	R1527J
594.071	4.316	1685089	REC_WORD	5.222	n/a	FLEECE	Fabric	5	3	[0, 0, 0]	n/a	catFR1	0	R1527J
598.387	0.799	1689405	REC_WORD_VV	9.538	n/a	<>	n/a	-999	3	[0, 0, 0]	n/a	catFR1	0	R1527J
599.186	2.959	1690204	REC_WORD	10.337	n/a	DENIM	Fabric	11	3	[0, 0, 0]	n/a	catFR1	0	R1527J
602.145	3.565	1693163	REC_WORD	13.296	n/a	SUEDE	Fabric	12	3	[0, 0, 0]	n/a	catFR1	0	R1527J
605.71	3.457	1696728	REC_WORD_VV	16.861	n/a	<>	n/a	-999	3	[0, 0, 0]	n/a	catFR1	0	R1527J
609.167	0.544	1700185	REC_WORD	20.318	n/a	COLA	Beverages	1	3	[0, 0, 0]	n/a	catFR1	0	R1527J
609.711	0.627	1700729	REC_WORD	20.862	n/a	SODA	Beverages	2	3	[0, 0, 0]	n/a	catFR1	0	R1527J
610.338	1.724	1701356	REC_WORD	21.489	n/a	SKIRT	Clothing	3	3	[0, 0, 0]	n/a	catFR1	0	R1527J
612.062	0.697	1703079	REC_WORD	23.213	n/a	DENIM	Fabric	11	3	[0, 0, 0]	n/a	catFR1	0	R1527J
612.759	2.824	1703776	REC_WORD	23.91	n/a	JACKET	n/a	-999	3	[0, 0, 0]	n/a	catFR1	0	R1527J
615.583	3.478	1706600	REC_WORD_VV	26.734	n/a	<>	n/a	-999	3	[0, 0, 0]	n/a	catFR1	0	R1527J
619.061	1.707	1710078	REC_END	n/a	n/a	n/a	n/a	-999	3	[0, 0, 0]	n/a	catFR1	0	R1527J
620.768	10.348	1711786	COUNTDOWN_START	n/a	n/a	n/a	n/a	-999	4	[0, 0, 0]	n/a	catFR1	0	R1527J
631.116	0.0	1722138	COUNTDOWN_END	n/a	n/a	n/a	n/a	-999	4	[0, 0, 0]	n/a	catFR1	0	R1527J
631.116	1.934	1722138	ENCODING_START	n/a	n/a	n/a	n/a	-999	4	[0, 0, 0]	n/a	catFR1	0	R1527J
633.05	1.617	1724067	WORD	n/a	wordpools/wordpool_categorized_EN.txt	IRON	Appliances	1	4	[0, 0, 0]	n/a	catFR1	0	R1527J
634.667	0.949	1725684	WORD_OFF	n/a	n/a	IRON	Appliances	1	4	[0, 0, 0]	n/a	catFR1	0	R1527J
635.616	1.617	1726630	WORD	n/a	wordpools/wordpool_categorized_EN.txt	VACUUM	Appliances	2	4	[0, 0, 0]	n/a	catFR1	0	R1527J
637.233	0.915	1728255	WORD_OFF	n/a	n/a	VACUUM	Appliances	2	4	[0, 0, 0]	n/a	catFR1	0	R1527J
638.148	1.602	1729165	WORD	n/a	wordpools/wordpool_categorized_EN.txt	UNDERWEAR	Clothing	3	4	[0, 0, 0]	n/a	catFR1	0	R1527J
639.75	0.967	1730772	WORD_OFF	n/a	n/a	UNDERWEAR	Clothing	3	4	[0, 0, 0]	n/a	catFR1	0	R1527J
640.717	1.616	1731737	WORD	n/a	wordpools/wordpool_categorized_EN.txt	PANTS	Clothing	4	4	[0, 0, 0]	n/a	catFR1	0	R1527J
642.333	0.766	1733353	WORD_OFF	n/a	n/a	PANTS	Clothing	4	4	[0, 0, 0]	n/a	catFR1	0	R1527J
643.099	1.601	1734116	WORD	n/a	wordpools/wordpool_categorized_EN.txt	DOVE	Birds	5	4	[0, 0, 0]	n/a	catFR1	0	R1527J
644.7	0.783	1735714	WORD_OFF	n/a	n/a	DOVE	Birds	5	4	[0, 0, 0]	n/a	catFR1	0	R1527J
645.483	1.615	1736504	WORD	n/a	wordpools/wordpool_categorized_EN.txt	DUCK	Birds	6	4	[0, 0, 0]	n/a	catFR1	0	R1527J
647.098	0.851	1738120	WORD_OFF	n/a	n/a	DUCK	Birds	6	4	[0, 0, 0]	n/a	catFR1	0	R1527J
647.949	1.6	1738965	WORD	n/a	wordpools/wordpool_categorized_EN.txt	JACKET	Clothing	7	4	[0, 0, 0]	n/a	catFR1	0	R1527J
649.549	0.767	1740573	WORD_OFF	n/a	n/a	JACKET	Clothing	7	4	[0, 0, 0]	n/a	catFR1	0	R1527J
650.316	1.601	1741335	WORD	n/a	wordpools/wordpool_categorized_EN.txt	SHORTS	Clothing	8	4	[0, 0, 0]	n/a	catFR1	0	R1527J
651.917	0.948	1742942	WORD_OFF	n/a	n/a	SHORTS	Clothing	8	4	[0, 0, 0]	n/a	catFR1	0	R1527J
652.865	1.601	1743879	WORD	n/a	wordpools/wordpool_categorized_EN.txt	TOASTER	Appliances	9	4	[0, 0, 0]	n/a	catFR1	0	R1527J
654.466	0.899	1745487	WORD_OFF	n/a	n/a	TOASTER	Appliances	9	4	[0, 0, 0]	n/a	catFR1	0	R1527J
655.365	1.601	1746378	WORD	n/a	wordpools/wordpool_categorized_EN.txt	DRYER	Appliances	10	4	[0, 0, 0]	n/a	catFR1	0	R1527J
656.966	0.883	1747985	WORD_OFF	n/a	n/a	DRYER	Appliances	10	4	[0, 0, 0]	n/a	catFR1	0	R1527J
657.849	1.616	1748867	WORD	n/a	wordpools/wordpool_categorized_EN.txt	FINCH	Birds	11	4	[0, 0, 0]	n/a	catFR1	0	R1527J
659.465	1.002	1750483	WORD_OFF	n/a	n/a	FINCH	Birds	11	4	[0, 0, 0]	n/a	catFR1	0	R1527J
660.467	1.616	1751485	WORD	n/a	wordpools/wordpool_categorized_EN.txt	ROBIN	Birds	12	4	[0, 0, 0]	n/a	catFR1	0	R1527J
662.083	0.001	1753098	PROB	2.833	n/a	n/a	n/a	-999	4	[1, 4, 4]	9.0	catFR1	0	R1527J
662.084	0.0	1753099	START	n/a	n/a	n/a	n/a	-999	4	[-999, -999, -999]	n/a	catFR1	0	R1527J
662.083	0.001	1753101	WORD_OFF	n/a	n/a	ROBIN	Birds	12	4	[0, 0, 0]	n/a	catFR1	0	R1527J
662.084	0.0	1753101	ENCODING_END	n/a	n/a	n/a	n/a	-999	4	[0, 0, 0]	n/a	catFR1	0	R1527J
662.084	2.848	1753101	DISTRACT_START	n/a	n/a	n/a	n/a	-999	4	[0, 0, 0]	n/a	catFR1	0	R1527J
664.932	5.65	1755947	PROB	5.634	n/a	n/a	n/a	-999	4	[2, 5, 5]	12.0	catFR1	0	R1527J
670.582	2.567	1761596	PROB	2.549	n/a	n/a	n/a	-999	4	[1, 7, 3]	11.0	catFR1	0	R1527J
673.149	4.533	1764163	PROB	4.516	n/a	n/a	n/a	-999	4	[8, 4, 8]	20.0	catFR1	0	R1527J
677.682	3.901	1768696	PROB	3.883	n/a	n/a	n/a	-999	4	[4, 6, 7]	17.0	catFR1	0	R1527J
681.583	3.798	1772597	PROB	3.783	n/a	n/a	n/a	-999	4	[3, 4, 1]	8.0	catFR1	0	R1527J
685.381	0.0	1776395	DISTRACT_END	n/a	n/a	n/a	n/a	-999	4	[0, 0, 0]	n/a	catFR1	0	R1527J
685.381	1.735	1776395	STOP	n/a	n/a	n/a	n/a	-999	4	[-999, -999, -999]	n/a	catFR1	0	R1527J
687.116	1.635	1778131	REC_START	n/a	n/a	n/a	n/a	-999	4	[0, 0, 0]	n/a	catFR1	0	R1527J
688.751	1.859	1779764	REC_WORD_VV	1.635	n/a	<>	n/a	-999	4	[0, 0, 0]	n/a	catFR1	0	R1527J
690.61	3.131	1781623	REC_WORD_VV	3.494	n/a	<>	n/a	-999	4	[0, 0, 0]	n/a	catFR1	0	R1527J
693.741	1.274	1784754	REC_WORD_VV	6.625	n/a	<>	n/a	-999	4	[0, 0, 0]	n/a	catFR1	0	R1527J
695.015	5.798	1786028	REC_WORD	7.899	n/a	IRON	Appliances	1	4	[0, 0, 0]	n/a	catFR1	0	R1527J
700.813	3.576	1791826	REC_WORD	13.697	n/a	IRON	Appliances	1	4	[0, 0, 0]	n/a	catFR1	0	R1527J
704.389	7.337	1795402	REC_WORD_VV	17.273	n/a	<>	n/a	-999	4	[0, 0, 0]	n/a	catFR1	0	R1527J
711.726	5.59	1802738	REC_WORD_VV	24.61	n/a	<>	n/a	-999	4	[0, 0, 0]	n/a	catFR1	0	R1527J
717.316	2.051	1808332	REC_END	n/a	n/a	n/a	n/a	-999	4	[0, 0, 0]	n/a	catFR1	0	R1527J
719.367	10.349	1810380	COUNTDOWN_START	n/a	n/a	n/a	n/a	-999	5	[0, 0, 0]	n/a	catFR1	0	R1527J
729.716	0.0	1820732	COUNTDOWN_END	n/a	n/a	n/a	n/a	-999	5	[0, 0, 0]	n/a	catFR1	0	R1527J
729.716	2.066	1820732	ENCODING_START	n/a	n/a	n/a	n/a	-999	5	[0, 0, 0]	n/a	catFR1	0	R1527J
731.782	1.601	1822798	WORD	n/a	wordpools/wordpool_categorized_EN.txt	LIGHTNING	Weather	1	5	[0, 0, 0]	n/a	catFR1	0	R1527J
733.383	0.899	1824397	WORD_OFF	n/a	n/a	LIGHTNING	Weather	1	5	[0, 0, 0]	n/a	catFR1	0	R1527J
734.282	1.601	1825297	WORD	n/a	wordpools/wordpool_categorized_EN.txt	DRIZZLE	Weather	2	5	[0, 0, 0]	n/a	catFR1	0	R1527J
735.883	0.8	1826895	WORD_OFF	n/a	n/a	DRIZZLE	Weather	2	5	[0, 0, 0]	n/a	catFR1	0	R1527J
736.683	1.616	1827694	WORD	n/a	wordpools/wordpool_categorized_EN.txt	BROWNIES	Desserts	3	5	[0, 0, 0]	n/a	catFR1	0	R1527J
738.299	1.017	1829311	WORD_OFF	n/a	n/a	BROWNIES	Desserts	3	5	[0, 0, 0]	n/a	catFR1	0	R1527J
739.316	1.601	1830330	WORD	n/a	wordpools/wordpool_categorized_EN.txt	MOUSSE	Desserts	4	5	[0, 0, 0]	n/a	catFR1	0	R1527J
740.917	0.799	1831928	WORD_OFF	n/a	n/a	MOUSSE	Desserts	4	5	[0, 0, 0]	n/a	catFR1	0	R1527J
741.716	1.599	1832728	WORD	n/a	wordpools/wordpool_categorized_EN.txt	TRAIN	Vehicles	5	5	[0, 0, 0]	n/a	catFR1	0	R1527J
743.315	0.851	1834326	WORD_OFF	n/a	n/a	TRAIN	Vehicles	5	5	[0, 0, 0]	n/a	catFR1	0	R1527J
744.166	1.617	1835180	WORD	n/a	wordpools/wordpool_categorized_EN.txt	CAR	Vehicles	6	5	[0, 0, 0]	n/a	catFR1	0	R1527J
745.783	0.866	1836797	WORD_OFF	n/a	n/a	CAR	Vehicles	6	5	[0, 0, 0]	n/a	catFR1	0	R1527J
746.649	1.617	1837660	WORD	n/a	wordpools/wordpool_categorized_EN.txt	PIE	Desserts	7	5	[0, 0, 0]	n/a	catFR1	0	R1527J
748.266	0.916	1839277	WORD_OFF	n/a	n/a	PIE	Desserts	7	5	[0, 0, 0]	n/a	catFR1	0	R1527J
749.182	1.601	1840195	WORD	n/a	wordpools/wordpool_categorized_EN.txt	JELLO	Desserts	8	5	[0, 0, 0]	n/a	catFR1	0	R1527J
750.783	0.867	1841793	WORD_OFF	n/a	n/a	JELLO	Desserts	8	5	[0, 0, 0]	n/a	catFR1	0	R1527J
751.65	1.616	1842666	WORD	n/a	wordpools/wordpool_categorized_EN.txt	MOPED	Vehicles	9	5	[0, 0, 0]	n/a	catFR1	0	R1527J
753.266	0.933	1844273	WORD_OFF	n/a	n/a	MOPED	Vehicles	9	5	[0, 0, 0]	n/a	catFR1	0	R1527J
754.199	1.6	1845210	WORD	n/a	wordpools/wordpool_categorized_EN.txt	BOAT	Vehicles	10	5	[0, 0, 0]	n/a	catFR1	0	R1527J
755.799	0.901	1846808	WORD_OFF	n/a	n/a	BOAT	Vehicles	10	5	[0, 0, 0]	n/a	catFR1	0	R1527J
756.7	1.615	1847709	WORD	n/a	wordpools/wordpool_categorized_EN.txt	SNOW	Weather	11	5	[0, 0, 0]	n/a	catFR1	0	R1527J
758.315	0.866	1849325	WORD_OFF	n/a	n/a	SNOW	Weather	11	5	[0, 0, 0]	n/a	catFR1	0	R1527J
759.181	1.603	1850189	WORD	n/a	wordpools/wordpool_categorized_EN.txt	HUMIDITY	Weather	12	5	[0, 0, 0]	n/a	catFR1	0	R1527J
760.784	0.0	1851794	START	n/a	n/a	n/a	n/a	-999	5	[-999, -999, -999]	n/a	catFR1	0	R1527J
760.784	0.0	1851794	PROB	4.899	n/a	n/a	n/a	-999	5	[2, 2, 8]	12.0	catFR1	0	R1527J
760.783	0.001	1851796	WORD_OFF	n/a	n/a	HUMIDITY	Weather	12	5	[0, 0, 0]	n/a	catFR1	0	R1527J
760.784	0.0	1851796	ENCODING_END	n/a	n/a	n/a	n/a	-999	5	[0, 0, 0]	n/a	catFR1	0	R1527J
760.784	4.916	1851796	DISTRACT_START	n/a	n/a	n/a	n/a	-999	5	[0, 0, 0]	n/a	catFR1	0	R1527J
765.7	4.182	1856709	PROB	4.165	n/a	n/a	n/a	-999	5	[8, 3, 7]	18.0	catFR1	0	R1527J
769.882	3.134	1860891	PROB	3.117	n/a	n/a	n/a	-999	5	[3, 7, 3]	13.0	catFR1	0	R1527J
773.016	3.283	1864025	PROB	3.267	n/a	n/a	n/a	-999	5	[2, 8, 8]	18.0	catFR1	0	R1527J
776.299	4.5	1867308	PROB	4.483	n/a	n/a	n/a	-999	5	[6, 2, 7]	15.0	catFR1	0	R1527J
780.799	0.0	1871807	STOP	n/a	n/a	n/a	n/a	-999	5	[-999, -999, -999]	n/a	catFR1	0	R1527J
780.799	1.75	1871811	DISTRACT_END	n/a	n/a	n/a	n/a	-999	5	[0, 0, 0]	n/a	catFR1	0	R1527J
782.549	1.016	1873556	REC_START	n/a	n/a	n/a	n/a	-999	5	[0, 0, 0]	n/a	catFR1	0	R1527J
783.565	1.071	1874573	REC_WORD	1.016	n/a	LIGHTNING	Weather	1	5	[0, 0, 0]	n/a	catFR1	0	R1527J
784.636	1.185	1875644	REC_WORD	2.087	n/a	DRIZZLE	Weather	2	5	[0, 0, 0]	n/a	catFR1	0	R1527J
785.821	1.481	1876829	REC_WORD	3.272	n/a	HUMIDITY	Weather	12	5	[0, 0, 0]	n/a	catFR1	0	R1527J
787.302	2.375	1878310	REC_WORD	4.753	n/a	MOPED	Vehicles	9	5	[0, 0, 0]	n/a	catFR1	0	R1527J
789.677	1.379	1880685	REC_WORD	7.128	n/a	CAR	Vehicles	6	5	[0, 0, 0]	n/a	catFR1	0	R1527J
791.056	0.678	1882064	REC_WORD_VV	8.507	n/a	<>	n/a	-999	5	[0, 0, 0]	n/a	catFR1	0	R1527J
791.734	2.009	1882742	REC_WORD	9.185	n/a	TRAIN	Vehicles	5	5	[0, 0, 0]	n/a	catFR1	0	R1527J
793.743	0.384	1884751	REC_WORD_VV	11.194	n/a	<>	n/a	-999	5	[0, 0, 0]	n/a	catFR1	0	R1527J
794.127	2.203	1885135	REC_WORD	11.578	n/a	MOUSSE	Desserts	4	5	[0, 0, 0]	n/a	catFR1	0	R1527J
796.33	4.078	1887338	REC_WORD_VV	13.781	n/a	<>	n/a	-999	5	[0, 0, 0]	n/a	catFR1	0	R1527J
800.408	1.13	1891415	REC_WORD_VV	17.859	n/a	<>	n/a	-999	5	[0, 0, 0]	n/a	catFR1	0	R1527J
801.538	0.484	1892545	REC_WORD	18.989	n/a	CAKE	n/a	-999	5	[0, 0, 0]	n/a	catFR1	0	R1527J
802.022	1.424	1893029	REC_WORD_VV	19.473	n/a	<>	n/a	-999	5	[0, 0, 0]	n/a	catFR1	0	R1527J
803.446	9.313	1894453	REC_WORD_VV	20.897	n/a	<>	n/a	-999	5	[0, 0, 0]	n/a	catFR1	0	R1527J
812.759	1.608	1903766	REC_END	n/a	n/a	n/a	n/a	-999	5	[0, 0, 0]	n/a	catFR1	0	R1527J
814.367	10.349	1905373	COUNTDOWN_START	n/a	n/a	n/a	n/a	-999	6	[0, 0, 0]	n/a	catFR1	0	R1527J
824.716	0.0	1915725	COUNTDOWN_END	n/a	n/a	n/a	n/a	-999	6	[0, 0, 0]	n/a	catFR1	0	R1527J
824.716	2.383	1915725	ENCODING_START	n/a	n/a	n/a	n/a	-999	6	[0, 0, 0]	n/a	catFR1	0	R1527J
827.099	1.601	1918104	WORD	n/a	wordpools/wordpool_categorized_EN.txt	BASKETBALL	Toys	1	6	[0, 0, 0]	n/a	catFR1	0	R1527J
828.7	0.983	1919711	WORD_OFF	n/a	n/a	BASKETBALL	Toys	1	6	[0, 0, 0]	n/a	catFR1	0	R1527J
829.683	1.599	1920694	WORD	n/a	wordpools/wordpool_categorized_EN.txt	BLOCKS	Toys	2	6	[0, 0, 0]	n/a	catFR1	0	R1527J
831.282	0.784	1922292	WORD_OFF	n/a	n/a	BLOCKS	Toys	2	6	[0, 0, 0]	n/a	catFR1	0	R1527J
832.066	1.616	1923073	WORD	n/a	wordpools/wordpool_categorized_EN.txt	KNEE	BodyParts	3	6	[0, 0, 0]	n/a	catFR1	0	R1527J
833.682	0.801	1924690	WORD_OFF	n/a	n/a	KNEE	BodyParts	3	6	[0, 0, 0]	n/a	catFR1	0	R1527J
834.483	1.616	1925489	WORD	n/a	wordpools/wordpool_categorized_EN.txt	ELBOW	BodyParts	4	6	[0, 0, 0]	n/a	catFR1	0	R1527J
836.099	0.967	1927105	WORD_OFF	n/a	n/a	ELBOW	BodyParts	4	6	[0, 0, 0]	n/a	catFR1	0	R1527J
837.066	1.601	1928070	WORD	n/a	wordpools/wordpool_categorized_EN.txt	WILLOW	Trees	5	6	[0, 0, 0]	n/a	catFR1	0	R1527J
838.667	0.766	1929677	WORD_OFF	n/a	n/a	WILLOW	Trees	5	6	[0, 0, 0]	n/a	catFR1	0	R1527J
839.433	1.616	1930440	WORD	n/a	wordpools/wordpool_categorized_EN.txt	HICKORY	Trees	6	6	[0, 0, 0]	n/a	catFR1	0	R1527J
841.049	0.949	1932056	WORD_OFF	n/a	n/a	HICKORY	Trees	6	6	[0, 0, 0]	n/a	catFR1	0	R1527J
841.998	1.619	1933002	WORD	n/a	wordpools/wordpool_categorized_EN.txt	EYE	BodyParts	7	6	[0, 0, 0]	n/a	catFR1	0	R1527J
843.617	0.849	1934628	WORD_OFF	n/a	n/a	EYE	BodyParts	7	6	[0, 0, 0]	n/a	catFR1	0	R1527J
844.466	1.617	1935473	WORD	n/a	wordpools/wordpool_categorized_EN.txt	HAND	BodyParts	8	6	[0, 0, 0]	n/a	catFR1	0	R1527J
846.083	1.0	1937090	WORD_OFF	n/a	n/a	HAND	BodyParts	8	6	[0, 0, 0]	n/a	catFR1	0	R1527J
847.083	1.616	1938091	WORD	n/a	wordpools/wordpool_categorized_EN.txt	MAPLE	Trees	9	6	[0, 0, 0]	n/a	catFR1	0	R1527J
848.699	0.817	1939707	WORD_OFF	n/a	n/a	MAPLE	Trees	9	6	[0, 0, 0]	n/a	catFR1	0	R1527J
849.516	1.617	1940525	WORD	n/a	wordpools/wordpool_categorized_EN.txt	PINE	Trees	10	6	[0, 0, 0]	n/a	catFR1	0	R1527J
851.133	0.766	1942141	WORD_OFF	n/a	n/a	PINE	Trees	10	6	[0, 0, 0]	n/a	catFR1	0	R1527J
851.899	1.6	1942904	WORD	n/a	wordpools/wordpool_categorized_EN.txt	FOOTBALL	Toys	11	6	[0, 0, 0]	n/a	catFR1	0	R1527J
853.499	0.885	1944502	WORD_OFF	n/a	n/a	FOOTBALL	Toys	11	6	[0, 0, 0]	n/a	catFR1	0	R1527J
854.384	1.616	1945393	WORD	n/a	wordpools/wordpool_categorized_EN.txt	MARBLES	Toys	12	6	[0, 0, 0]	n/a	catFR1	0	R1527J
856.0	0.0	1947004	START	n/a	n/a	n/a	n/a	-999	6	[-999, -999, -999]	n/a	catFR1	0	R1527J
856.0	0.0	1947004	PROB	13.683	n/a	n/a	n/a	-999	6	[5, 6, 7]	18.0	catFR1	0	R1527J
855.999	0.001	1947010	WORD_OFF	n/a	n/a	MARBLES	Toys	12	6	[0, 0, 0]	n/a	catFR1	0	R1527J
856.0	0.0	1947010	ENCODING_END	n/a	n/a	n/a	n/a	-999	6	[0, 0, 0]	n/a	catFR1	0	R1527J
856.0	13.699	1947010	DISTRACT_START	n/a	n/a	n/a	n/a	-999	6	[0, 0, 0]	n/a	catFR1	0	R1527J
869.699	4.835	1960703	PROB	4.816	n/a	n/a	n/a	-999	6	[6, 1, 5]	12.0	catFR1	0	R1527J
874.534	3.666	1965537	PROB	3.649	n/a	n/a	n/a	-999	6	[3, 6, 2]	11.0	catFR1	0	R1527J
878.2	0.0	1969201	DISTRACT_END	n/a	n/a	n/a	n/a	-999	6	[0, 0, 0]	n/a	catFR1	0	R1527J
878.2	1.716	1969203	STOP	n/a	n/a	n/a	n/a	-999	6	[-999, -999, -999]	n/a	catFR1	0	R1527J
879.916	1.176	1970919	REC_START	n/a	n/a	n/a	n/a	-999	6	[0, 0, 0]	n/a	catFR1	0	R1527J
881.092	0.663	1972095	REC_WORD_VV	1.176	n/a	<>	n/a	-999	6	[0, 0, 0]	n/a	catFR1	0	R1527J
881.755	1.43	1972758	REC_WORD	1.839	n/a	BASKETBALL	Toys	1	6	[0, 0, 0]	n/a	catFR1	0	R1527J
883.185	1.613	1974188	REC_WORD	3.269	n/a	KNEE	BodyParts	3	6	[0, 0, 0]	n/a	catFR1	0	R1527J
884.798	1.686	1975801	REC_WORD	4.882	n/a	BLOCKS	Toys	2	6	[0, 0, 0]	n/a	catFR1	0	R1527J
886.484	2.04	1977487	REC_WORD	6.568	n/a	MAPLE	Trees	9	6	[0, 0, 0]	n/a	catFR1	0	R1527J
888.524	4.294	1979527	REC_WORD_VV	8.608	n/a	<>	n/a	-999	6	[0, 0, 0]	n/a	catFR1	0	R1527J
892.818	5.0	1983820	REC_WORD	12.902	n/a	HAND	BodyParts	8	6	[0, 0, 0]	n/a	catFR1	0	R1527J
897.818	12.31	1988820	REC_WORD_VV	17.902	n/a	<>	n/a	-999	6	[0, 0, 0]	n/a	catFR1	0	R1527J
910.128	1.722	2001129	REC_END	n/a	n/a	n/a	n/a	-999	6	[0, 0, 0]	n/a	catFR1	0	R1527J
911.85	10.349	2002855	COUNTDOWN_START	n/a	n/a	n/a	n/a	-999	7	[0, 0, 0]	n/a	catFR1	0	R1527J
922.199	0.0	2013198	COUNTDOWN_END	n/a	n/a	n/a	n/a	-999	7	[0, 0, 0]	n/a	catFR1	0	R1527J
922.199	1.885	2013207	ENCODING_START	n/a	n/a	n/a	n/a	-999	7	[0, 0, 0]	n/a	catFR1	0	R1527J
924.084	1.616	2015090	WORD	n/a	wordpools/wordpool_categorized_EN.txt	DESK	Furniture	1	7	[0, 0, 0]	n/a	catFR1	0	R1527J
925.7	0.766	2016707	WORD_OFF	n/a	n/a	DESK	Furniture	1	7	[0, 0, 0]	n/a	catFR1	0	R1527J
926.466	1.617	2017469	WORD	n/a	wordpools/wordpool_categorized_EN.txt	SHELF	Furniture	2	7	[0, 0, 0]	n/a	catFR1	0	R1527J
928.083	0.934	2019086	WORD_OFF	n/a	n/a	SHELF	Furniture	2	7	[0, 0, 0]	n/a	catFR1	0	R1527J
929.017	1.616	2020023	WORD	n/a	wordpools/wordpool_categorized_EN.txt	BASEBALL	Toys	3	7	[0, 0, 0]	n/a	catFR1	0	R1527J
930.633	0.8	2021639	WORD_OFF	n/a	n/a	BASEBALL	Toys	3	7	[0, 0, 0]	n/a	catFR1	0	R1527J
931.433	1.6	2022438	WORD	n/a	wordpools/wordpool_categorized_EN.txt	PUZZLE	Toys	4	7	[0, 0, 0]	n/a	catFR1	0	R1527J
933.033	0.816	2024037	WORD_OFF	n/a	n/a	PUZZLE	Toys	4	7	[0, 0, 0]	n/a	catFR1	0	R1527J
933.849	1.617	2024854	WORD	n/a	wordpools/wordpool_categorized_EN.txt	PASTRY	Desserts	5	7	[0, 0, 0]	n/a	catFR1	0	R1527J
935.466	0.816	2026471	WORD_OFF	n/a	n/a	PASTRY	Desserts	5	7	[0, 0, 0]	n/a	catFR1	0	R1527J
936.282	1.602	2027288	WORD	n/a	wordpools/wordpool_categorized_EN.txt	CAKE	Desserts	6	7	[0, 0, 0]	n/a	catFR1	0	R1527J
937.884	0.865	2028886	WORD_OFF	n/a	n/a	CAKE	Desserts	6	7	[0, 0, 0]	n/a	catFR1	0	R1527J
938.749	1.601	2029750	WORD	n/a	wordpools/wordpool_categorized_EN.txt	FRISBEE	Toys	7	7	[0, 0, 0]	n/a	catFR1	0	R1527J
940.35	0.865	2031348	WORD_OFF	n/a	n/a	FRISBEE	Toys	7	7	[0, 0, 0]	n/a	catFR1	0	R1527J
941.215	1.6	2032221	WORD	n/a	wordpools/wordpool_categorized_EN.txt	SLINKY	Toys	8	7	[0, 0, 0]	n/a	catFR1	0	R1527J
942.815	0.918	2033819	WORD_OFF	n/a	n/a	SLINKY	Toys	8	7	[0, 0, 0]	n/a	catFR1	0	R1527J
943.733	1.616	2034737	WORD	n/a	wordpools/wordpool_categorized_EN.txt	CHEESECAKE	Desserts	9	7	[0, 0, 0]	n/a	catFR1	0	R1527J
945.349	0.917	2036354	WORD_OFF	n/a	n/a	CHEESECAKE	Desserts	9	7	[0, 0, 0]	n/a	catFR1	0	R1527J
946.266	1.616	2037263	WORD	n/a	wordpools/wordpool_categorized_EN.txt	FUDGE	Desserts	10	7	[0, 0, 0]	n/a	catFR1	0	R1527J
947.882	1.001	2038889	WORD_OFF	n/a	n/a	FUDGE	Desserts	10	7	[0, 0, 0]	n/a	catFR1	0	R1527J
948.883	1.616	2039881	WORD	n/a	wordpools/wordpool_categorized_EN.txt	CABINET	Furniture	11	7	[0, 0, 0]	n/a	catFR1	0	R1527J
950.499	0.933	2041498	WORD_OFF	n/a	n/a	CABINET	Furniture	11	7	[0, 0, 0]	n/a	catFR1	0	R1527J
951.432	1.601	2042434	WORD	n/a	wordpools/wordpool_categorized_EN.txt	SOFA	Furniture	12	7	[0, 0, 0]	n/a	catFR1	0	R1527J
953.033	0.0	2044032	PROB	4.132	n/a	n/a	n/a	-999	7	[7, 3, 7]	17.0	catFR1	0	R1527J
953.032	0.002	2044033	WORD_OFF	n/a	n/a	SOFA	Furniture	12	7	[0, 0, 0]	n/a	catFR1	0	R1527J
953.034	0.0	2044033	ENCODING_END	n/a	n/a	n/a	n/a	-999	7	[0, 0, 0]	n/a	catFR1	0	R1527J
953.034	0.0	2044033	START	n/a	n/a	n/a	n/a	-999	7	[-999, -999, -999]	n/a	catFR1	0	R1527J
953.034	4.149	2044042	DISTRACT_START	n/a	n/a	n/a	n/a	-999	7	[0, 0, 0]	n/a	catFR1	0	R1527J
957.183	3.383	2048182	PROB	3.366	n/a	n/a	n/a	-999	7	[3, 8, 1]	12.0	catFR1	0	R1527J
960.566	3.317	2051565	PROB	3.3	n/a	n/a	n/a	-999	7	[8, 8, 8]	24.0	catFR1	0	R1527J
963.883	2.616	2054882	PROB	2.599	n/a	n/a	n/a	-999	7	[3, 1, 5]	9.0	catFR1	0	R1527J
966.499	2.6	2057498	PROB	2.584	n/a	n/a	n/a	-999	7	[6, 4, 8]	18.0	catFR1	0	R1527J
969.099	3.035	2060097	PROB	3.016	n/a	n/a	n/a	-999	7	[3, 4, 2]	9.0	catFR1	0	R1527J
972.134	2.049	2063132	PROB	2.033	n/a	n/a	n/a	-999	7	[5, 1, 5]	11.0	catFR1	0	R1527J
974.183	0.0	2065181	STOP	n/a	n/a	n/a	n/a	-999	7	[-999, -999, -999]	n/a	catFR1	0	R1527J
974.183	1.599	2065186	DISTRACT_END	n/a	n/a	n/a	n/a	-999	7	[0, 0, 0]	n/a	catFR1	0	R1527J
975.782	0.606	2066784	REC_START	n/a	n/a	n/a	n/a	-999	7	[0, 0, 0]	n/a	catFR1	0	R1527J
976.388	0.507	2067386	REC_WORD_VV	0.606	n/a	<>	n/a	-999	7	[0, 0, 0]	n/a	catFR1	0	R1527J
976.895	1.465	2067893	REC_WORD	1.113	n/a	BASEBALL	Toys	3	7	[0, 0, 0]	n/a	catFR1	0	R1527J
978.36	1.129	2069358	REC_WORD	2.578	n/a	CAKE	Desserts	6	7	[0, 0, 0]	n/a	catFR1	0	R1527J
979.489	1.698	2070487	REC_WORD	3.707	n/a	CHEESECAKE	Desserts	9	7	[0, 0, 0]	n/a	catFR1	0	R1527J
981.187	1.372	2072185	REC_WORD	5.405	n/a	FUDGE	Desserts	10	7	[0, 0, 0]	n/a	catFR1	0	R1527J
982.559	1.582	2073557	REC_WORD	6.777	n/a	FRISBEE	Toys	7	7	[0, 0, 0]	n/a	catFR1	0	R1527J
984.141	1.437	2075139	REC_WORD	8.359	n/a	DESK	Furniture	1	7	[0, 0, 0]	n/a	catFR1	0	R1527J
985.578	2.232	2076576	REC_WORD	9.796	n/a	SHELF	Furniture	2	7	[0, 0, 0]	n/a	catFR1	0	R1527J
987.81	18.193	2078807	REC_WORD_VV	12.028	n/a	<>	n/a	-999	7	[0, 0, 0]	n/a	catFR1	0	R1527J
1006.003	1.547	2097004	REC_END	n/a	n/a	n/a	n/a	-999	7	[0, 0, 0]	n/a	catFR1	0	R1527J
1007.55	10.349	2098547	COUNTDOWN_START	n/a	n/a	n/a	n/a	-999	8	[0, 0, 0]	n/a	catFR1	0	R1527J
1017.899	0.001	2108898	COUNTDOWN_END	n/a	n/a	n/a	n/a	-999	8	[0, 0, 0]	n/a	catFR1	0	R1527J
1017.9	2.35	2108898	ENCODING_START	n/a	n/a	n/a	n/a	-999	8	[0, 0, 0]	n/a	catFR1	0	R1527J
1020.25	1.6	2111250	WORD	n/a	wordpools/wordpool_categorized_EN.txt	WHALE	OceanAnimals	1	8	[0, 0, 0]	n/a	catFR1	0	R1527J
1021.85	0.766	2112848	WORD_OFF	n/a	n/a	WHALE	OceanAnimals	1	8	[0, 0, 0]	n/a	catFR1	0	R1527J
1022.616	1.601	2113610	WORD	n/a	wordpools/wordpool_categorized_EN.txt	SQUID	OceanAnimals	2	8	[0, 0, 0]	n/a	catFR1	0	R1527J
1024.217	0.916	2115218	WORD_OFF	n/a	n/a	SQUID	OceanAnimals	2	8	[0, 0, 0]	n/a	catFR1	0	R1527J
1025.133	1.6	2116127	WORD	n/a	wordpools/wordpool_categorized_EN.txt	BANJO	Instruments	3	8	[0, 0, 0]	n/a	catFR1	0	R1527J
1026.733	0.816	2117735	WORD_OFF	n/a	n/a	BANJO	Instruments	3	8	[0, 0, 0]	n/a	catFR1	0	R1527J
1027.549	1.617	2118543	WORD	n/a	wordpools/wordpool_categorized_EN.txt	FLUTE	Instruments	4	8	[0, 0, 0]	n/a	catFR1	0	R1527J
1029.166	0.967	2120159	WORD_OFF	n/a	n/a	FLUTE	Instruments	4	8	[0, 0, 0]	n/a	catFR1	0	R1527J
1030.133	1.616	2121133	WORD	n/a	wordpools/wordpool_categorized_EN.txt	HAWK	Birds	5	8	[0, 0, 0]	n/a	catFR1	0	R1527J
1031.749	0.868	2122750	WORD_OFF	n/a	n/a	HAWK	Birds	5	8	[0, 0, 0]	n/a	catFR1	0	R1527J
1032.617	1.615	2123613	WORD	n/a	wordpools/wordpool_categorized_EN.txt	SPARROW	Birds	6	8	[0, 0, 0]	n/a	catFR1	0	R1527J
1034.232	0.785	2125230	WORD_OFF	n/a	n/a	SPARROW	Birds	6	8	[0, 0, 0]	n/a	catFR1	0	R1527J
1035.017	1.617	2126010	WORD	n/a	wordpools/wordpool_categorized_EN.txt	DOLPHIN	OceanAnimals	7	8	[0, 0, 0]	n/a	catFR1	0	R1527J
1036.634	0.948	2127627	WORD_OFF	n/a	n/a	DOLPHIN	OceanAnimals	7	8	[0, 0, 0]	n/a	catFR1	0	R1527J
1037.582	1.6	2128582	WORD	n/a	wordpools/wordpool_categorized_EN.txt	PLANKTON	OceanAnimals	8	8	[0, 0, 0]	n/a	catFR1	0	R1527J
1039.182	0.817	2130180	WORD_OFF	n/a	n/a	PLANKTON	OceanAnimals	8	8	[0, 0, 0]	n/a	catFR1	0	R1527J
1039.999	1.601	2130998	WORD	n/a	wordpools/wordpool_categorized_EN.txt	TUBA	Instruments	9	8	[0, 0, 0]	n/a	catFR1	0	R1527J
1041.6	0.85	2132596	WORD_OFF	n/a	n/a	TUBA	Instruments	9	8	[0, 0, 0]	n/a	catFR1	0	R1527J
1042.45	1.615	2133450	WORD	n/a	wordpools/wordpool_categorized_EN.txt	TRUMPET	Instruments	10	8	[0, 0, 0]	n/a	catFR1	0	R1527J
1044.065	0.768	2135058	WORD_OFF	n/a	n/a	TRUMPET	Instruments	10	8	[0, 0, 0]	n/a	catFR1	0	R1527J
1044.833	1.617	2135829	WORD	n/a	wordpools/wordpool_categorized_EN.txt	BLUEBIRD	Birds	11	8	[0, 0, 0]	n/a	catFR1	0	R1527J
1046.45	0.849	2137446	WORD_OFF	n/a	n/a	BLUEBIRD	Birds	11	8	[0, 0, 0]	n/a	catFR1	0	R1527J
1047.299	1.616	2138291	WORD	n/a	wordpools/wordpool_categorized_EN.txt	GOOSE	Birds	12	8	[0, 0, 0]	n/a	catFR1	0	R1527J
1048.915	0.001	2139908	WORD_OFF	n/a	n/a	GOOSE	Birds	12	8	[0, 0, 0]	n/a	catFR1	0	R1527J
1048.916	0.0	2139910	START	n/a	n/a	n/a	n/a	-999	8	[-999, -999, -999]	n/a	catFR1	0	R1527J
1048.916	0.0	2139910	PROB	3.817	n/a	n/a	n/a	-999	8	[4, 8, 6]	18.0	catFR1	0	R1527J
1048.916	0.0	2139917	ENCODING_END	n/a	n/a	n/a	n/a	-999	8	[0, 0, 0]	n/a	catFR1	0	R1527J
1048.916	3.833	2139917	DISTRACT_START	n/a	n/a	n/a	n/a	-999	8	[0, 0, 0]	n/a	catFR1	0	R1527J
1052.749	3.75	2143743	PROB	3.733	n/a	n/a	n/a	-999	8	[2, 7, 6]	15.0	catFR1	0	R1527J
1056.499	5.501	2147493	PROB	5.483	n/a	n/a	n/a	-999	8	[8, 1, 7]	16.0	catFR1	0	R1527J
1062.0	3.067	2152993	PROB	3.05	n/a	n/a	n/a	-999	8	[5, 6, 4]	15.0	catFR1	0	R1527J
1065.067	5.232	2156060	PROB	5.216	n/a	n/a	n/a	-999	8	[7, 8, 1]	16.0	catFR1	0	R1527J
1070.299	0.0	2161291	DISTRACT_END	n/a	n/a	n/a	n/a	-999	8	[0, 0, 0]	n/a	catFR1	0	R1527J
1070.299	1.917	2161292	STOP	n/a	n/a	n/a	n/a	-999	8	[-999, -999, -999]	n/a	catFR1	0	R1527J
1072.216	0.652	2163210	REC_START	n/a	n/a	n/a	n/a	-999	8	[0, 0, 0]	n/a	catFR1	0	R1527J
1072.868	0.607	2163861	REC_WORD_VV	0.652	n/a	<>	n/a	-999	8	[0, 0, 0]	n/a	catFR1	0	R1527J
1073.475	1.053	2164468	REC_WORD	1.259	n/a	WHALE	OceanAnimals	1	8	[0, 0, 0]	n/a	catFR1	0	R1527J
1074.528	1.523	2165521	REC_WORD	2.312	n/a	SQUID	OceanAnimals	2	8	[0, 0, 0]	n/a	catFR1	0	R1527J
1076.051	1.408	2167044	REC_WORD	3.835	n/a	PLANKTON	OceanAnimals	8	8	[0, 0, 0]	n/a	catFR1	0	R1527J
1077.459	1.776	2168452	REC_WORD	5.243	n/a	HAWK	Birds	5	8	[0, 0, 0]	n/a	catFR1	0	R1527J
1079.235	1.45	2170228	REC_WORD	7.019	n/a	TUBA	Instruments	9	8	[0, 0, 0]	n/a	catFR1	0	R1527J
1080.685	0.459	2171677	REC_WORD_VV	8.469	n/a	<>	n/a	-999	8	[0, 0, 0]	n/a	catFR1	0	R1527J
1081.144	2.362	2172136	REC_WORD	8.928	n/a	BLUEBIRD	Birds	11	8	[0, 0, 0]	n/a	catFR1	0	R1527J
1083.506	1.322	2174498	REC_WORD_VV	11.29	n/a	<>	n/a	-999	8	[0, 0, 0]	n/a	catFR1	0	R1527J
1084.828	4.626	2175820	REC_WORD	12.612	n/a	TRUMPET	Instruments	10	8	[0, 0, 0]	n/a	catFR1	0	R1527J
1089.454	12.986	2180446	REC_WORD_VV	17.238	n/a	<>	n/a	-999	8	[0, 0, 0]	n/a	catFR1	0	R1527J
1102.44	1.594	2193430	REC_END	n/a	n/a	n/a	n/a	-999	8	[0, 0, 0]	n/a	catFR1	0	R1527J
1104.034	10.35	2195028	COUNTDOWN_START	n/a	n/a	n/a	n/a	-999	9	[0, 0, 0]	n/a	catFR1	0	R1527J
1114.384	0.0	2205380	COUNTDOWN_END	n/a	n/a	n/a	n/a	-999	9	[0, 0, 0]	n/a	catFR1	0	R1527J
1114.384	2.349	2205380	ENCODING_START	n/a	n/a	n/a	n/a	-999	9	[0, 0, 0]	n/a	catFR1	0	R1527J
1116.733	1.601	2207722	WORD	n/a	wordpools/wordpool_categorized_EN.txt	BALL	Toys	1	9	[0, 0, 0]	n/a	catFR1	0	R1527J
1118.334	0.965	2209329	WORD_OFF	n/a	n/a	BALL	Toys	1	9	[0, 0, 0]	n/a	catFR1	0	R1527J
1119.299	1.617	2210294	WORD	n/a	wordpools/wordpool_categorized_EN.txt	DOLL	Toys	2	9	[0, 0, 0]	n/a	catFR1	0	R1527J
1120.916	0.834	2211910	WORD_OFF	n/a	n/a	DOLL	Toys	2	9	[0, 0, 0]	n/a	catFR1	0	R1527J
1121.75	1.616	2212746	WORD	n/a	wordpools/wordpool_categorized_EN.txt	MOUNTAIN	Landscapes	3	9	[0, 0, 0]	n/a	catFR1	0	R1527J
1123.366	0.934	2214363	WORD_OFF	n/a	n/a	MOUNTAIN	Landscapes	3	9	[0, 0, 0]	n/a	catFR1	0	R1527J
1124.3	1.616	2215290	WORD	n/a	wordpools/wordpool_categorized_EN.txt	FOREST	Landscapes	4	9	[0, 0, 0]	n/a	catFR1	0	R1527J
1125.916	0.766	2216907	WORD_OFF	n/a	n/a	FOREST	Landscapes	4	9	[0, 0, 0]	n/a	catFR1	0	R1527J
1126.682	1.601	2217669	WORD	n/a	wordpools/wordpool_categorized_EN.txt	ORANGE	Fruit	5	9	[0, 0, 0]	n/a	catFR1	0	R1527J
1128.283	0.95	2219277	WORD_OFF	n/a	n/a	ORANGE	Fruit	5	9	[0, 0, 0]	n/a	catFR1	0	R1527J
1129.233	1.6	2220223	WORD	n/a	wordpools/wordpool_categorized_EN.txt	PEAR	Fruit	6	9	[0, 0, 0]	n/a	catFR1	0	R1527J
1130.833	0.999	2221821	WORD_OFF	n/a	n/a	PEAR	Fruit	6	9	[0, 0, 0]	n/a	catFR1	0	R1527J
1131.832	1.6	2222822	WORD	n/a	wordpools/wordpool_categorized_EN.txt	BARBIE	Toys	7	9	[0, 0, 0]	n/a	catFR1	0	R1527J
1133.432	0.901	2224420	WORD_OFF	n/a	n/a	BARBIE	Toys	7	9	[0, 0, 0]	n/a	catFR1	0	R1527J
1134.333	1.617	2225330	WORD	n/a	wordpools/wordpool_categorized_EN.txt	DOLLHOUSE	Toys	8	9	[0, 0, 0]	n/a	catFR1	0	R1527J
1135.95	0.948	2226946	WORD_OFF	n/a	n/a	DOLLHOUSE	Toys	8	9	[0, 0, 0]	n/a	catFR1	0	R1527J
1136.898	1.601	2227892	WORD	n/a	wordpools/wordpool_categorized_EN.txt	PEACH	Fruit	9	9	[0, 0, 0]	n/a	catFR1	0	R1527J
1138.499	0.817	2229491	WORD_OFF	n/a	n/a	PEACH	Fruit	9	9	[0, 0, 0]	n/a	catFR1	0	R1527J
1139.316	1.6	2230308	WORD	n/a	wordpools/wordpool_categorized_EN.txt	CHERRY	Fruit	10	9	[0, 0, 0]	n/a	catFR1	0	R1527J
1140.916	0.934	2231906	WORD_OFF	n/a	n/a	CHERRY	Fruit	10	9	[0, 0, 0]	n/a	catFR1	0	R1527J
1141.85	1.615	2232843	WORD	n/a	wordpools/wordpool_categorized_EN.txt	WOODS	Landscapes	11	9	[0, 0, 0]	n/a	catFR1	0	R1527J
1143.465	0.818	2234460	WORD_OFF	n/a	n/a	WOODS	Landscapes	11	9	[0, 0, 0]	n/a	catFR1	0	R1527J
1144.283	1.6	2235277	WORD	n/a	wordpools/wordpool_categorized_EN.txt	BEACH	Landscapes	12	9	[0, 0, 0]	n/a	catFR1	0	R1527J
1145.883	0.002	2236872	PROB	3.132	n/a	n/a	n/a	-999	9	[7, 7, 2]	16.0	catFR1	0	R1527J
1145.885	0.0	2236874	START	n/a	n/a	n/a	n/a	-999	9	[-999, -999, -999]	n/a	catFR1	0	R1527J
1145.883	0.002	2236875	WORD_OFF	n/a	n/a	BEACH	Landscapes	12	9	[0, 0, 0]	n/a	catFR1	0	R1527J
1145.885	0.0	2236875	ENCODING_END	n/a	n/a	n/a	n/a	-999	9	[0, 0, 0]	n/a	catFR1	0	R1527J
1145.885	3.147	2236875	DISTRACT_START	n/a	n/a	n/a	n/a	-999	9	[0, 0, 0]	n/a	catFR1	0	R1527J
1149.032	3.351	2240021	PROB	3.333	n/a	n/a	n/a	-999	9	[1, 8, 3]	12.0	catFR1	0	R1527J
1152.383	4.266	2243372	PROB	4.25	n/a	n/a	n/a	-999	9	[2, 5, 3]	10.0	catFR1	0	R1527J
1156.649	3.933	2247637	PROB	3.916	n/a	n/a	n/a	-999	9	[7, 6, 4]	17.0	catFR1	0	R1527J
1160.582	9.834	2251570	PROB	9.817	n/a	n/a	n/a	-999	9	[5, 7, 6]	19.0	catFR1	0	R1527J
1170.416	0.0	2261404	STOP	n/a	n/a	n/a	n/a	-999	9	[-999, -999, -999]	n/a	catFR1	0	R1527J
1170.416	1.502	2261409	DISTRACT_END	n/a	n/a	n/a	n/a	-999	9	[0, 0, 0]	n/a	catFR1	0	R1527J
1171.918	0.439	2262906	REC_START	n/a	n/a	n/a	n/a	-999	9	[0, 0, 0]	n/a	catFR1	0	R1527J
1172.357	0.95	2263345	REC_WORD_VV	0.439	n/a	<>	n/a	-999	9	[0, 0, 0]	n/a	catFR1	0	R1527J
1173.307	0.338	2264295	REC_WORD	1.389	n/a	BARBIE	Toys	7	9	[0, 0, 0]	n/a	catFR1	0	R1527J
1173.645	1.636	2264633	REC_WORD	1.727	n/a	DOLL	Toys	2	9	[0, 0, 0]	n/a	catFR1	0	R1527J
1175.281	2.345	2266268	REC_WORD	3.363	n/a	DOLL	Toys	2	9	[0, 0, 0]	n/a	catFR1	0	R1527J
1177.626	0.415	2268613	REC_WORD_VV	5.708	n/a	<>	n/a	-999	9	[0, 0, 0]	n/a	catFR1	0	R1527J
1178.041	1.085	2269028	REC_WORD	6.123	n/a	MOUNTAIN	Landscapes	3	9	[0, 0, 0]	n/a	catFR1	0	R1527J
1179.126	1.414	2270113	REC_WORD	7.208	n/a	FOREST	Landscapes	4	9	[0, 0, 0]	n/a	catFR1	0	R1527J
1180.54	1.756	2271527	REC_WORD	8.622	n/a	BALL	Toys	1	9	[0, 0, 0]	n/a	catFR1	0	R1527J
1182.296	2.213	2273283	REC_WORD	10.378	n/a	ORANGE	Fruit	5	9	[0, 0, 0]	n/a	catFR1	0	R1527J
1184.509	2.403	2275496	REC_WORD	12.591	n/a	CHERRY	Fruit	10	9	[0, 0, 0]	n/a	catFR1	0	R1527J
1186.912	15.23	2277899	REC_WORD_VV	14.994	n/a	<>	n/a	-999	9	[0, 0, 0]	n/a	catFR1	0	R1527J
1202.142	1.575	2293126	REC_END	n/a	n/a	n/a	n/a	-999	9	[0, 0, 0]	n/a	catFR1	0	R1527J
1203.717	10.35	2294705	COUNTDOWN_START	n/a	n/a	n/a	n/a	-999	10	[0, 0, 0]	n/a	catFR1	0	R1527J
1214.067	0.0	2305057	COUNTDOWN_END	n/a	n/a	n/a	n/a	-999	10	[0, 0, 0]	n/a	catFR1	0	R1527J
1214.067	2.116	2305057	ENCODING_START	n/a	n/a	n/a	n/a	-999	10	[0, 0, 0]	n/a	catFR1	0	R1527J
1216.183	1.616	2307170	WORD	n/a	wordpools/wordpool_categorized_EN.txt	WRENCH	Tools	1	10	[0, 0, 0]	n/a	catFR1	0	R1527J
1217.799	0.835	2308786	WORD_OFF	n/a	n/a	WRENCH	Tools	1	10	[0, 0, 0]	n/a	catFR1	0	R1527J
1218.634	1.615	2309622	WORD	n/a	wordpools/wordpool_categorized_EN.txt	SHOVEL	Tools	2	10	[0, 0, 0]	n/a	catFR1	0	R1527J
1220.249	0.984	2311239	WORD_OFF	n/a	n/a	SHOVEL	Tools	2	10	[0, 0, 0]	n/a	catFR1	0	R1527J
1221.233	1.616	2312222	WORD	n/a	wordpools/wordpool_categorized_EN.txt	PLUM	Fruit	3	10	[0, 0, 0]	n/a	catFR1	0	R1527J
1222.849	0.867	2313838	WORD_OFF	n/a	n/a	PLUM	Fruit	3	10	[0, 0, 0]	n/a	catFR1	0	R1527J
1223.716	1.617	2314702	WORD	n/a	wordpools/wordpool_categorized_EN.txt	APPLE	Fruit	4	10	[0, 0, 0]	n/a	catFR1	0	R1527J
1225.333	0.833	2316318	WORD_OFF	n/a	n/a	APPLE	Fruit	4	10	[0, 0, 0]	n/a	catFR1	0	R1527J
1226.166	1.601	2317154	WORD	n/a	wordpools/wordpool_categorized_EN.txt	SCANNER	Electronics	5	10	[0, 0, 0]	n/a	catFR1	0	R1527J
1227.767	0.766	2318752	WORD_OFF	n/a	n/a	SCANNER	Electronics	5	10	[0, 0, 0]	n/a	catFR1	0	R1527J
1228.533	1.617	2319524	WORD	n/a	wordpools/wordpool_categorized_EN.txt	RADIO	Electronics	6	10	[0, 0, 0]	n/a	catFR1	0	R1527J
1230.15	0.968	2321140	WORD_OFF	n/a	n/a	RADIO	Electronics	6	10	[0, 0, 0]	n/a	catFR1	0	R1527J
1231.118	1.615	2322105	WORD	n/a	wordpools/wordpool_categorized_EN.txt	SCREWDRIVER	Tools	7	10	[0, 0, 0]	n/a	catFR1	0	R1527J
1232.733	0.901	2323721	WORD_OFF	n/a	n/a	SCREWDRIVER	Tools	7	10	[0, 0, 0]	n/a	catFR1	0	R1527J
1233.634	1.615	2324622	WORD	n/a	wordpools/wordpool_categorized_EN.txt	AXE	Tools	8	10	[0, 0, 0]	n/a	catFR1	0	R1527J
1235.249	0.967	2326238	WORD_OFF	n/a	n/a	AXE	Tools	8	10	[0, 0, 0]	n/a	catFR1	0	R1527J
1236.216	1.617	2327203	WORD	n/a	wordpools/wordpool_categorized_EN.txt	TELEVISION	Electronics	9	10	[0, 0, 0]	n/a	catFR1	0	R1527J
1237.833	0.949	2328819	WORD_OFF	n/a	n/a	TELEVISION	Electronics	9	10	[0, 0, 0]	n/a	catFR1	0	R1527J
1238.782	1.601	2329765	WORD	n/a	wordpools/wordpool_categorized_EN.txt	CALCULATOR	Electronics	10	10	[0, 0, 0]	n/a	catFR1	0	R1527J
1240.383	0.999	2331373	WORD_OFF	n/a	n/a	CALCULATOR	Electronics	10	10	[0, 0, 0]	n/a	catFR1	0	R1527J
1241.382	1.6	2332365	WORD	n/a	wordpools/wordpool_categorized_EN.txt	LEMON	Fruit	11	10	[0, 0, 0]	n/a	catFR1	0	R1527J
1242.982	0.767	2333972	WORD_OFF	n/a	n/a	LEMON	Fruit	11	10	[0, 0, 0]	n/a	catFR1	0	R1527J
1243.749	1.617	2334734	WORD	n/a	wordpools/wordpool_categorized_EN.txt	BLUEBERRY	Fruit	12	10	[0, 0, 0]	n/a	catFR1	0	R1527J
1245.366	0.002	2336351	WORD_OFF	n/a	n/a	BLUEBERRY	Fruit	12	10	[0, 0, 0]	n/a	catFR1	0	R1527J
1245.368	0.0	2336351	ENCODING_END	n/a	n/a	n/a	n/a	-999	10	[0, 0, 0]	n/a	catFR1	0	R1527J
1245.367	0.001	2336351	PROB	5.683	n/a	n/a	n/a	-999	10	[8, 7, 7]	22.0	catFR1	0	R1527J
1245.368	0.0	2336352	START	n/a	n/a	n/a	n/a	-999	10	[-999, -999, -999]	n/a	catFR1	0	R1527J
1245.368	5.697	2336360	DISTRACT_START	n/a	n/a	n/a	n/a	-999	10	[0, 0, 0]	n/a	catFR1	0	R1527J
1251.065	7.184	2342048	PROB	7.167	n/a	n/a	n/a	-999	10	[4, 7, 1]	11.0	catFR1	0	R1527J
1258.249	3.001	2349232	PROB	2.983	n/a	n/a	n/a	-999	10	[8, 2, 1]	11.0	catFR1	0	R1527J
1261.25	2.967	2352233	PROB	2.949	n/a	n/a	n/a	-999	10	[1, 3, 1]	5.0	catFR1	0	R1527J
1264.217	2.982	2355200	PROB	2.966	n/a	n/a	n/a	-999	10	[6, 4, 4]	14.0	catFR1	0	R1527J
1267.199	0.0	2358182	STOP	n/a	n/a	n/a	n/a	-999	10	[-999, -999, -999]	n/a	catFR1	0	R1527J
1267.199	1.85	2358184	DISTRACT_END	n/a	n/a	n/a	n/a	-999	10	[0, 0, 0]	n/a	catFR1	0	R1527J
1269.049	1.346	2360030	REC_START	n/a	n/a	n/a	n/a	-999	10	[0, 0, 0]	n/a	catFR1	0	R1527J
1270.395	0.703	2361377	REC_WORD_VV	1.346	n/a	<>	n/a	-999	10	[0, 0, 0]	n/a	catFR1	0	R1527J
1271.098	1.0	2362080	REC_WORD	2.049	n/a	SCREWDRIVER	Tools	7	10	[0, 0, 0]	n/a	catFR1	0	R1527J
1272.098	1.407	2363080	REC_WORD_VV	3.049	n/a	<>	n/a	-999	10	[0, 0, 0]	n/a	catFR1	0	R1527J
1273.505	2.951	2364487	REC_WORD_VV	4.456	n/a	<>	n/a	-999	10	[0, 0, 0]	n/a	catFR1	0	R1527J
1276.456	2.604	2367438	REC_WORD	7.407	n/a	RADIO	Electronics	6	10	[0, 0, 0]	n/a	catFR1	0	R1527J
1279.06	2.155	2370042	REC_WORD_VV	10.011	n/a	<>	n/a	-999	10	[0, 0, 0]	n/a	catFR1	0	R1527J
1281.215	2.644	2372197	REC_WORD	12.166	n/a	RATCHET	Tools	-999	10	[0, 0, 0]	n/a	catFR1	0	R1527J
1283.859	1.0	2374841	REC_WORD_VV	14.81	n/a	<>	n/a	-999	10	[0, 0, 0]	n/a	catFR1	0	R1527J
1284.859	2.258	2375841	REC_WORD_VV	15.81	n/a	<>	n/a	-999	10	[0, 0, 0]	n/a	catFR1	0	R1527J
1287.117	1.441	2378098	REC_WORD	18.068	n/a	BLUEBERRY	Fruit	12	10	[0, 0, 0]	n/a	catFR1	0	R1527J
1288.558	0.477	2379539	REC_WORD_VV	19.509	n/a	<>	n/a	-999	10	[0, 0, 0]	n/a	catFR1	0	R1527J
1289.035	1.362	2380016	REC_WORD	19.986	n/a	LEMON	Fruit	11	10	[0, 0, 0]	n/a	catFR1	0	R1527J
1290.397	3.336	2381378	REC_WORD_VV	21.348	n/a	<>	n/a	-999	10	[0, 0, 0]	n/a	catFR1	0	R1527J
1293.733	4.416	2384714	REC_WORD	24.684	n/a	SCANNER	Electronics	5	10	[0, 0, 0]	n/a	catFR1	0	R1527J
1298.149	1.127	2389130	REC_WORD_VV	29.1	n/a	<>	n/a	-999	10	[0, 0, 0]	n/a	catFR1	0	R1527J
1299.276	1.741	2390259	REC_END	n/a	n/a	n/a	n/a	-999	10	[0, 0, 0]	n/a	catFR1	0	R1527J
1301.017	10.349	2392004	COUNTDOWN_START	n/a	n/a	n/a	n/a	-999	11	[0, 0, 0]	n/a	catFR1	0	R1527J
1311.366	0.0	2402346	COUNTDOWN_END	n/a	n/a	n/a	n/a	-999	11	[0, 0, 0]	n/a	catFR1	0	R1527J
1311.366	2.232	2402346	ENCODING_START	n/a	n/a	n/a	n/a	-999	11	[0, 0, 0]	n/a	catFR1	0	R1527J
1313.598	1.602	2404578	WORD	n/a	wordpools/wordpool_categorized_EN.txt	FOG	Weather	1	11	[0, 0, 0]	n/a	catFR1	0	R1527J
1315.2	0.815	2406186	WORD_OFF	n/a	n/a	FOG	Weather	1	11	[0, 0, 0]	n/a	catFR1	0	R1527J
1316.015	1.601	2406994	WORD	n/a	wordpools/wordpool_categorized_EN.txt	TORNADO	Weather	2	11	[0, 0, 0]	n/a	catFR1	0	R1527J
1317.616	0.768	2408602	WORD_OFF	n/a	n/a	TORNADO	Weather	2	11	[0, 0, 0]	n/a	catFR1	0	R1527J
1318.384	1.615	2409364	WORD	n/a	wordpools/wordpool_categorized_EN.txt	STRAWBERRY	Fruit	3	11	[0, 0, 0]	n/a	catFR1	0	R1527J
1319.999	0.884	2410981	WORD_OFF	n/a	n/a	STRAWBERRY	Fruit	3	11	[0, 0, 0]	n/a	catFR1	0	R1527J
1320.883	1.617	2411862	WORD	n/a	wordpools/wordpool_categorized_EN.txt	GRAPE	Fruit	4	11	[0, 0, 0]	n/a	catFR1	0	R1527J
1322.5	0.818	2413479	WORD_OFF	n/a	n/a	GRAPE	Fruit	4	11	[0, 0, 0]	n/a	catFR1	0	R1527J
1323.318	1.614	2414296	WORD	n/a	wordpools/wordpool_categorized_EN.txt	LAKE	Landscapes	5	11	[0, 0, 0]	n/a	catFR1	0	R1527J
1324.932	0.934	2415913	WORD_OFF	n/a	n/a	LAKE	Landscapes	5	11	[0, 0, 0]	n/a	catFR1	0	R1527J
1325.866	1.6	2416850	WORD	n/a	wordpools/wordpool_categorized_EN.txt	VALLEY	Landscapes	6	11	[0, 0, 0]	n/a	catFR1	0	R1527J
1327.466	0.932	2418448	WORD_OFF	n/a	n/a	VALLEY	Landscapes	6	11	[0, 0, 0]	n/a	catFR1	0	R1527J
1328.398	1.601	2419376	WORD	n/a	wordpools/wordpool_categorized_EN.txt	THUNDER	Weather	7	11	[0, 0, 0]	n/a	catFR1	0	R1527J
1329.999	1.001	2420983	WORD_OFF	n/a	n/a	THUNDER	Weather	7	11	[0, 0, 0]	n/a	catFR1	0	R1527J
1331.0	1.615	2421984	WORD	n/a	wordpools/wordpool_categorized_EN.txt	CLOUD	Weather	8	11	[0, 0, 0]	n/a	catFR1	0	R1527J
1332.615	0.851	2423592	WORD_OFF	n/a	n/a	CLOUD	Weather	8	11	[0, 0, 0]	n/a	catFR1	0	R1527J
1333.466	1.6	2424446	WORD	n/a	wordpools/wordpool_categorized_EN.txt	LIME	Fruit	9	11	[0, 0, 0]	n/a	catFR1	0	R1527J
1335.066	0.918	2426044	WORD_OFF	n/a	n/a	LIME	Fruit	9	11	[0, 0, 0]	n/a	catFR1	0	R1527J
1335.984	1.599	2426963	WORD	n/a	wordpools/wordpool_categorized_EN.txt	BANANA	Fruit	10	11	[0, 0, 0]	n/a	catFR1	0	R1527J
1337.583	0.883	2428561	WORD_OFF	n/a	n/a	BANANA	Fruit	10	11	[0, 0, 0]	n/a	catFR1	0	R1527J
1338.466	1.616	2429443	WORD	n/a	wordpools/wordpool_categorized_EN.txt	STREAM	Landscapes	11	11	[0, 0, 0]	n/a	catFR1	0	R1527J
1340.082	0.817	2431059	WORD_OFF	n/a	n/a	STREAM	Landscapes	11	11	[0, 0, 0]	n/a	catFR1	0	R1527J
1340.899	1.601	2431877	WORD	n/a	wordpools/wordpool_categorized_EN.txt	OCEAN	Landscapes	12	11	[0, 0, 0]	n/a	catFR1	0	R1527J
1342.5	0.001	2433479	PROB	3.433	n/a	n/a	n/a	-999	11	[5, 8, 2]	15.0	catFR1	0	R1527J
1342.501	0.0	2433480	START	n/a	n/a	n/a	n/a	-999	11	[-999, -999, -999]	n/a	catFR1	0	R1527J
1342.499	0.001	2433484	WORD_OFF	n/a	n/a	OCEAN	Landscapes	12	11	[0, 0, 0]	n/a	catFR1	0	R1527J
1342.5	0.001	2433484	ENCODING_END	n/a	n/a	n/a	n/a	-999	11	[0, 0, 0]	n/a	catFR1	0	R1527J
1342.501	3.449	2433484	DISTRACT_START	n/a	n/a	n/a	n/a	-999	11	[0, 0, 0]	n/a	catFR1	0	R1527J
1345.95	6.084	2436928	PROB	6.066	n/a	n/a	n/a	-999	11	[6, 7, 4]	17.0	catFR1	0	R1527J
1352.034	4.466	2443012	PROB	4.449	n/a	n/a	n/a	-999	11	[6, 7, 1]	14.0	catFR1	0	R1527J
1356.5	4.016	2447478	PROB	3.999	n/a	n/a	n/a	-999	11	[2, 5, 4]	11.0	catFR1	0	R1527J
1360.516	2.567	2451494	PROB	2.549	n/a	n/a	n/a	-999	11	[2, 2, 2]	5.0	catFR1	0	R1527J
1363.083	0.0	2454059	DISTRACT_END	n/a	n/a	n/a	n/a	-999	11	[0, 0, 0]	n/a	catFR1	0	R1527J
1363.083	1.734	2454060	STOP	n/a	n/a	n/a	n/a	-999	11	[-999, -999, -999]	n/a	catFR1	0	R1527J
1364.817	0.548	2455795	REC_START	n/a	n/a	n/a	n/a	-999	11	[0, 0, 0]	n/a	catFR1	0	R1527J
1365.365	0.424	2456342	REC_WORD_VV	0.548	n/a	<>	n/a	-999	11	[0, 0, 0]	n/a	catFR1	0	R1527J
1365.789	1.374	2456766	REC_WORD	0.972	n/a	FOG	Weather	1	11	[0, 0, 0]	n/a	catFR1	0	R1527J
1367.163	2.277	2458140	REC_WORD	2.346	n/a	TORNADO	Weather	2	11	[0, 0, 0]	n/a	catFR1	0	R1527J
1369.44	2.221	2460417	REC_WORD	4.623	n/a	LIME	Fruit	9	11	[0, 0, 0]	n/a	catFR1	0	R1527J
1371.661	1.0	2462638	REC_WORD	6.844	n/a	RASPBERRY	n/a	-999	11	[0, 0, 0]	n/a	catFR1	0	R1527J
1372.661	1.244	2463638	REC_WORD_VV	7.844	n/a	<>	n/a	-999	11	[0, 0, 0]	n/a	catFR1	0	R1527J
1373.905	1.418	2464882	REC_WORD_VV	9.088	n/a	<>	n/a	-999	11	[0, 0, 0]	n/a	catFR1	0	R1527J
1375.323	2.072	2466300	REC_WORD	10.506	n/a	VALLEY	Landscapes	6	11	[0, 0, 0]	n/a	catFR1	0	R1527J
1377.395	0.282	2468372	REC_WORD	12.578	n/a	FOG	Weather	1	11	[0, 0, 0]	n/a	catFR1	0	R1527J
1377.677	0.459	2468654	REC_WORD	12.86	n/a	TORNADO	Weather	2	11	[0, 0, 0]	n/a	catFR1	0	R1527J
1378.136	1.065	2469113	REC_WORD	13.319	n/a	VALLEY	Landscapes	6	11	[0, 0, 0]	n/a	catFR1	0	R1527J
1379.201	12.524	2470178	REC_WORD_VV	14.384	n/a	<>	n/a	-999	11	[0, 0, 0]	n/a	catFR1	0	R1527J
1391.725	0.624	2482701	REC_WORD	26.908	n/a	FOG	Weather	1	11	[0, 0, 0]	n/a	catFR1	0	R1527J
1392.349	1.596	2483325	REC_WORD	27.532	n/a	TORNADO	Weather	2	11	[0, 0, 0]	n/a	catFR1	0	R1527J
1393.945	1.101	2484921	REC_WORD_VV	29.128	n/a	<>	n/a	-999	11	[0, 0, 0]	n/a	catFR1	0	R1527J
1395.046	1.754	2486023	REC_END	n/a	n/a	n/a	n/a	-999	11	[0, 0, 0]	n/a	catFR1	0	R1527J
1396.8	10.35	2487778	COUNTDOWN_START	n/a	n/a	n/a	n/a	-999	12	[0, 0, 0]	n/a	catFR1	0	R1527J
1407.15	0.0	2498130	COUNTDOWN_END	n/a	n/a	n/a	n/a	-999	12	[0, 0, 0]	n/a	catFR1	0	R1527J
1407.15	2.35	2498130	ENCODING_START	n/a	n/a	n/a	n/a	-999	12	[0, 0, 0]	n/a	catFR1	0	R1527J
1409.5	1.617	2500481	WORD	n/a	wordpools/wordpool_categorized_EN.txt	BASS	Instruments	1	12	[0, 0, 0]	n/a	catFR1	0	R1527J
1411.117	0.815	2502098	WORD_OFF	n/a	n/a	BASS	Instruments	1	12	[0, 0, 0]	n/a	catFR1	0	R1527J
1411.932	1.601	2502906	WORD	n/a	wordpools/wordpool_categorized_EN.txt	GUITAR	Instruments	2	12	[0, 0, 0]	n/a	catFR1	0	R1527J
1413.533	0.849	2504513	WORD_OFF	n/a	n/a	GUITAR	Instruments	2	12	[0, 0, 0]	n/a	catFR1	0	R1527J
1414.382	1.601	2505358	WORD	n/a	wordpools/wordpool_categorized_EN.txt	RIVER	Landscapes	3	12	[0, 0, 0]	n/a	catFR1	0	R1527J
1415.983	0.9	2506957	WORD_OFF	n/a	n/a	RIVER	Landscapes	3	12	[0, 0, 0]	n/a	catFR1	0	R1527J
1416.883	1.617	2507857	WORD	n/a	wordpools/wordpool_categorized_EN.txt	CREEK	Landscapes	4	12	[0, 0, 0]	n/a	catFR1	0	R1527J
1418.5	0.798	2509473	WORD_OFF	n/a	n/a	CREEK	Landscapes	4	12	[0, 0, 0]	n/a	catFR1	0	R1527J
1419.298	1.601	2510272	WORD	n/a	wordpools/wordpool_categorized_EN.txt	BEER	Beverages	5	12	[0, 0, 0]	n/a	catFR1	0	R1527J
1420.899	0.817	2511880	WORD_OFF	n/a	n/a	BEER	Beverages	5	12	[0, 0, 0]	n/a	catFR1	0	R1527J
1421.716	1.601	2512688	WORD	n/a	wordpools/wordpool_categorized_EN.txt	WINE	Beverages	6	12	[0, 0, 0]	n/a	catFR1	0	R1527J
1423.317	0.814	2514295	WORD_OFF	n/a	n/a	WINE	Beverages	6	12	[0, 0, 0]	n/a	catFR1	0	R1527J
1424.131	1.602	2515104	WORD	n/a	wordpools/wordpool_categorized_EN.txt	ISLAND	Landscapes	7	12	[0, 0, 0]	n/a	catFR1	0	R1527J
1425.733	0.882	2516711	WORD_OFF	n/a	n/a	ISLAND	Landscapes	7	12	[0, 0, 0]	n/a	catFR1	0	R1527J
1426.615	1.617	2517593	WORD	n/a	wordpools/wordpool_categorized_EN.txt	HILLS	Landscapes	8	12	[0, 0, 0]	n/a	catFR1	0	R1527J
1428.232	0.883	2519210	WORD_OFF	n/a	n/a	HILLS	Landscapes	8	12	[0, 0, 0]	n/a	catFR1	0	R1527J
1429.115	1.6	2520091	WORD	n/a	wordpools/wordpool_categorized_EN.txt	DRUM	Instruments	9	12	[0, 0, 0]	n/a	catFR1	0	R1527J
1430.715	0.801	2521690	WORD_OFF	n/a	n/a	DRUM	Instruments	9	12	[0, 0, 0]	n/a	catFR1	0	R1527J
1431.516	1.6	2522489	WORD	n/a	wordpools/wordpool_categorized_EN.txt	PIANO	Instruments	10	12	[0, 0, 0]	n/a	catFR1	0	R1527J
1433.116	0.934	2524096	WORD_OFF	n/a	n/a	PIANO	Instruments	10	12	[0, 0, 0]	n/a	catFR1	0	R1527J
1434.05	1.615	2525024	WORD	n/a	wordpools/wordpool_categorized_EN.txt	CIDER	Beverages	11	12	[0, 0, 0]	n/a	catFR1	0	R1527J
1435.665	0.952	2526640	WORD_OFF	n/a	n/a	CIDER	Beverages	11	12	[0, 0, 0]	n/a	catFR1	0	R1527J
1436.617	1.616	2527596	WORD	n/a	wordpools/wordpool_categorized_EN.txt	JUICE	Beverages	12	12	[0, 0, 0]	n/a	catFR1	0	R1527J
1438.233	0.001	2529206	PROB	4.716	n/a	n/a	n/a	-999	12	[4, 8, 8]	20.0	catFR1	0	R1527J
1438.234	0.0	2529207	START	n/a	n/a	n/a	n/a	-999	12	[-999, -999, -999]	n/a	catFR1	0	R1527J
1438.232	0.002	2529212	WORD_OFF	n/a	n/a	JUICE	Beverages	12	12	[0, 0, 0]	n/a	catFR1	0	R1527J
1438.234	0.0	2529212	ENCODING_END	n/a	n/a	n/a	n/a	-999	12	[0, 0, 0]	n/a	catFR1	0	R1527J
1438.234	4.732	2529212	DISTRACT_START	n/a	n/a	n/a	n/a	-999	12	[0, 0, 0]	n/a	catFR1	0	R1527J
1442.966	4.566	2533939	PROB	4.55	n/a	n/a	n/a	-999	12	[7, 8, 7]	22.0	catFR1	0	R1527J
1447.532	4.768	2538505	PROB	4.75	n/a	n/a	n/a	-999	12	[4, 7, 1]	12.0	catFR1	0	R1527J
1452.3	3.716	2543273	PROB	3.698	n/a	n/a	n/a	-999	12	[3, 2, 3]	8.0	catFR1	0	R1527J
1456.016	4.099	2546988	PROB	4.083	n/a	n/a	n/a	-999	12	[4, 6, 1]	11.0	catFR1	0	R1527J
1460.115	0.0	2551087	STOP	n/a	n/a	n/a	n/a	-999	12	[-999, -999, -999]	n/a	catFR1	0	R1527J
1460.115	1.617	2551091	DISTRACT_END	n/a	n/a	n/a	n/a	-999	12	[0, 0, 0]	n/a	catFR1	0	R1527J
1461.732	1.361	2552708	REC_START	n/a	n/a	n/a	n/a	-999	12	[0, 0, 0]	n/a	catFR1	0	R1527J
1463.093	0.685	2554065	REC_WORD	1.361	n/a	BASS	Instruments	1	12	[0, 0, 0]	n/a	catFR1	0	R1527J
1463.778	1.227	2554750	REC_WORD	2.046	n/a	GUITAR	Instruments	2	12	[0, 0, 0]	n/a	catFR1	0	R1527J
1465.005	1.221	2555977	REC_WORD_VV	3.273	n/a	<>	n/a	-999	12	[0, 0, 0]	n/a	catFR1	0	R1527J
1466.226	1.269	2557198	REC_WORD	4.494	n/a	RIVER	Landscapes	3	12	[0, 0, 0]	n/a	catFR1	0	R1527J
1467.495	1.786	2558467	REC_WORD	5.763	n/a	CREEK	Landscapes	4	12	[0, 0, 0]	n/a	catFR1	0	R1527J
1469.281	1.359	2560253	REC_WORD	7.549	n/a	BEER	Beverages	5	12	[0, 0, 0]	n/a	catFR1	0	R1527J
1470.64	1.828	2561612	REC_WORD	8.908	n/a	WINE	Beverages	6	12	[0, 0, 0]	n/a	catFR1	0	R1527J
1472.468	1.833	2563440	REC_WORD	10.736	n/a	CIDER	Beverages	11	12	[0, 0, 0]	n/a	catFR1	0	R1527J
1474.301	1.473	2565273	REC_WORD	12.569	n/a	JUICE	Beverages	12	12	[0, 0, 0]	n/a	catFR1	0	R1527J
1475.774	1.811	2566745	REC_WORD_VV	14.042	n/a	<>	n/a	-999	12	[0, 0, 0]	n/a	catFR1	0	R1527J
1477.585	2.192	2568556	REC_WORD	15.853	n/a	VALLEY	Landscapes	-999	12	[0, 0, 0]	n/a	catFR1	0	R1527J
1479.777	2.355	2570748	REC_WORD_VV	18.045	n/a	<>	n/a	-999	12	[0, 0, 0]	n/a	catFR1	0	R1527J
1482.132	2.897	2573103	REC_WORD	20.4	n/a	DRUM	Instruments	9	12	[0, 0, 0]	n/a	catFR1	0	R1527J
1485.029	6.926	2576000	REC_WORD_VV	23.297	n/a	<>	n/a	-999	12	[0, 0, 0]	n/a	catFR1	0	R1527J
1491.955	0.0	2582927	REC_END	n/a	n/a	n/a	n/a	-999	12	[0, 0, 0]	n/a	catFR1	0	R1527J
