onset	duration	sample	trial_type	response_time	stim_file	item_name	category	serialpos	list	test	answer	experiment	session	subject
0.0	23.233	3952	SESS_START	n/a	n/a	n/a	n/a	-999	-999	[0, 0, 0]	n/a	catFR1	0	R1114C
23.233	10.428	15568	COUNTDOWN_START	n/a	n/a	n/a	n/a	-999	-999	[0, 0, 0]	n/a	catFR1	0	R1114C
33.661	3.507	20781	COUNTDOWN_END	n/a	n/a	n/a	n/a	-999	-999	[0, 0, 0]	n/a	catFR1	0	R1114C
37.168	2.568	22535	PRACTICE_WORD	n/a	n/a	TONGUE	n/a	-999	-999	[0, 0, 0]	n/a	catFR1	0	R1114C
39.736	2.5	23819	PRACTICE_WORD	n/a	n/a	CHEST	n/a	-999	-999	[0, 0, 0]	n/a	catFR1	0	R1114C
42.236	2.568	25069	PRACTICE_WORD	n/a	n/a	ATTIC	n/a	-999	-999	[0, 0, 0]	n/a	catFR1	0	R1114C
44.804	2.45	26353	PRACTICE_WORD	n/a	n/a	IRON	n/a	-999	-999	[0, 0, 0]	n/a	catFR1	0	R1114C
47.254	2.618	27578	PRACTICE_WORD	n/a	n/a	CAMEL	n/a	-999	-999	[0, 0, 0]	n/a	catFR1	0	R1114C
49.872	2.433	28886	PRACTICE_WORD	n/a	n/a	BEAM	n/a	-999	-999	[0, 0, 0]	n/a	catFR1	0	R1114C
52.305	2.485	30103	PRACTICE_WORD	n/a	n/a	COTTON	n/a	-999	-999	[0, 0, 0]	n/a	catFR1	0	R1114C
54.79	2.399	31345	PRACTICE_WORD	n/a	n/a	RING	n/a	-999	-999	[0, 0, 0]	n/a	catFR1	0	R1114C
57.189	2.434	32545	PRACTICE_WORD	n/a	n/a	FLOOD	n/a	-999	-999	[0, 0, 0]	n/a	catFR1	0	R1114C
59.623	2.4	33762	PRACTICE_WORD	n/a	n/a	RHINO	n/a	-999	-999	[0, 0, 0]	n/a	catFR1	0	R1114C
62.023	2.417	34961	PRACTICE_WORD	n/a	n/a	WATCH	n/a	-999	-999	[0, 0, 0]	n/a	catFR1	0	R1114C
64.44	1.617	36170	PRACTICE_WORD	n/a	n/a	WAGON	n/a	-999	-999	[0, 0, 0]	n/a	catFR1	0	R1114C
66.057	0.001	36978	PRACTICE_DISTRACT_START	n/a	n/a	n/a	n/a	-999	-999	[0, 0, 0]	n/a	catFR1	0	R1114C
66.058	0.016	36979	START	n/a	n/a	n/a	n/a	-999	-1	[-999, -999, -999]	n/a	catFR1	0	R1114C
66.074	7.251	36987	PROB	7.251	n/a	n/a	n/a	-999	-1	[9, 9, 9]	26	catFR1	0	R1114C
73.325	5.285	40612	PROB	5.285	n/a	n/a	n/a	-999	-1	[7, 5, 4]	16	catFR1	0	R1114C
78.61	4.834	43254	PROB	4.834	n/a	n/a	n/a	-999	-1	[1, 4, 8]	13	catFR1	0	R1114C
83.444	5.185	45671	PROB	5.185	n/a	n/a	n/a	-999	-1	[2, 5, 2]	9	catFR1	0	R1114C
88.629	0.016	48264	STOP	n/a	n/a	n/a	n/a	-999	-1	[-999, -999, -999]	n/a	catFR1	0	R1114C
88.645	0.535	48272	PRACTICE_DISTRACT_END	n/a	n/a	n/a	n/a	-999	-999	[0, 0, 0]	n/a	catFR1	0	R1114C
89.18	30.515	48539	PRACTICE_REC_START	n/a	n/a	n/a	n/a	-999	-999	[0, 0, 0]	n/a	catFR1	0	R1114C
119.695	9.458	63795	PRACTICE_REC_END	n/a	n/a	n/a	n/a	-999	-999	[0, 0, 0]	n/a	catFR1	0	R1114C
129.153	0.0	68524	COUNTDOWN_START	n/a	n/a	n/a	n/a	-999	1	[0, 0, 0]	n/a	catFR1	0	R1114C
129.153	10.428	68524	TRIAL	n/a	n/a	n/a	n/a	-999	1	[0, 0, 0]	n/a	catFR1	0	R1114C
139.581	0.007	73738	COUNTDOWN_END	n/a	n/a	n/a	n/a	-999	1	[0, 0, 0]	n/a	catFR1	0	R1114C
139.588	3.801	73741	ORIENT	n/a	n/a	n/a	n/a	-999	1	[0, 0, 0]	n/a	catFR1	0	R1114C
143.389	2.551	75642	WORD	n/a	wordpools/wordpool_categorized_EN.txt	PLUM	Fruit	1	1	[0, 0, 0]	n/a	catFR1	0	R1114C
145.94	2.383	76917	WORD	n/a	wordpools/wordpool_categorized_EN.txt	BLUEBERRY	Fruit	2	1	[0, 0, 0]	n/a	catFR1	0	R1114C
148.323	2.384	78108	WORD	n/a	wordpools/wordpool_categorized_EN.txt	CROW	Birds	3	1	[0, 0, 0]	n/a	catFR1	0	R1114C
150.707	2.483	79300	WORD	n/a	wordpools/wordpool_categorized_EN.txt	BLUEBIRD	Birds	4	1	[0, 0, 0]	n/a	catFR1	0	R1114C
153.19	2.434	80542	WORD	n/a	wordpools/wordpool_categorized_EN.txt	SHOES	Clothing	5	1	[0, 0, 0]	n/a	catFR1	0	R1114C
155.624	2.384	81759	WORD	n/a	wordpools/wordpool_categorized_EN.txt	COAT	Clothing	6	1	[0, 0, 0]	n/a	catFR1	0	R1114C
158.008	2.601	82951	WORD	n/a	wordpools/wordpool_categorized_EN.txt	HAWK	Birds	7	1	[0, 0, 0]	n/a	catFR1	0	R1114C
160.609	2.617	84251	WORD	n/a	wordpools/wordpool_categorized_EN.txt	DUCK	Birds	8	1	[0, 0, 0]	n/a	catFR1	0	R1114C
163.226	2.45	85559	WORD	n/a	wordpools/wordpool_categorized_EN.txt	CHERRY	Fruit	9	1	[0, 0, 0]	n/a	catFR1	0	R1114C
165.676	2.467	86784	WORD	n/a	wordpools/wordpool_categorized_EN.txt	STRAWBERRY	Fruit	10	1	[0, 0, 0]	n/a	catFR1	0	R1114C
168.143	2.401	88018	WORD	n/a	wordpools/wordpool_categorized_EN.txt	SKIRT	Clothing	11	1	[0, 0, 0]	n/a	catFR1	0	R1114C
170.544	1.617	89218	WORD	n/a	wordpools/wordpool_categorized_EN.txt	UNDERWEAR	Clothing	12	1	[0, 0, 0]	n/a	catFR1	0	R1114C
172.161	0.001	90027	DISTRACT_START	n/a	n/a	n/a	n/a	-999	1	[0, 0, 0]	n/a	catFR1	0	R1114C
172.162	0.015	90027	START	n/a	n/a	n/a	n/a	-999	1	[-999, -999, -999]	n/a	catFR1	0	R1114C
172.177	4.001	90035	PROB	4.001	n/a	n/a	n/a	-999	1	[4, 2, 9]	15	catFR1	0	R1114C
176.178	3.834	92035	PROB	3.834	n/a	n/a	n/a	-999	1	[4, 2, 8]	14	catFR1	0	R1114C
180.012	2.868	93952	PROB	2.868	n/a	n/a	n/a	-999	1	[7, 3, 2]	12	catFR1	0	R1114C
182.88	2.934	95386	PROB	2.934	n/a	n/a	n/a	-999	1	[1, 8, 8]	17	catFR1	0	R1114C
185.814	4.283	96853	PROB	4.283	n/a	n/a	n/a	-999	1	[8, 8, 5]	21	catFR1	0	R1114C
190.097	3.733	98994	PROB	3.733	n/a	n/a	n/a	-999	1	[6, 2, 1]	9	catFR1	0	R1114C
193.83	0.019	100860	STOP	n/a	n/a	n/a	n/a	-999	1	[-999, -999, -999]	n/a	catFR1	0	R1114C
193.849	1.167	100870	DISTRACT_END	n/a	n/a	n/a	n/a	-999	1	[0, 0, 0]	n/a	catFR1	0	R1114C
195.016	3.761	101453	REC_START	n/a	n/a	n/a	n/a	-999	1	[0, 0, 0]	n/a	catFR1	0	R1114C
198.777	1.216	103334	REC_WORD	1.216	n/a	PLUM	Fruit	1	1	[0, 0, 0]	n/a	catFR1	0	R1114C
199.993	1.209	103942	REC_WORD	1.209	n/a	BLUEBERRY	Fruit	2	1	[0, 0, 0]	n/a	catFR1	0	R1114C
201.202	3.064	104546	REC_WORD	3.064	n/a	STRAWBERRY	Fruit	10	1	[0, 0, 0]	n/a	catFR1	0	R1114C
204.266	9.046	106078	REC_WORD	9.046	n/a	DUCK	Birds	8	1	[0, 0, 0]	n/a	catFR1	0	R1114C
213.312	8.909	110601	REC_WORD	8.909	n/a	CHERRY	Fruit	9	1	[0, 0, 0]	n/a	catFR1	0	R1114C
222.221	0.949	115055	REC_WORD	0.949	n/a	UNDERWEAR	Clothing	12	1	[0, 0, 0]	n/a	catFR1	0	R1114C
223.17	1.858	115529	REC_WORD	1.858	n/a	SHOES	Clothing	5	1	[0, 0, 0]	n/a	catFR1	0	R1114C
225.028	6.277	116458	REC_END	n/a	n/a	n/a	n/a	-999	1	[0, 0, 0]	n/a	catFR1	0	R1114C
231.305	0.0	119597	TRIAL	n/a	n/a	n/a	n/a	-999	2	[0, 0, 0]	n/a	catFR1	0	R1114C
231.305	10.428	119597	COUNTDOWN_START	n/a	n/a	n/a	n/a	-999	2	[0, 0, 0]	n/a	catFR1	0	R1114C
241.733	0.007	124810	COUNTDOWN_END	n/a	n/a	n/a	n/a	-999	2	[0, 0, 0]	n/a	catFR1	0	R1114C
241.74	3.618	124814	ORIENT	n/a	n/a	n/a	n/a	-999	2	[0, 0, 0]	n/a	catFR1	0	R1114C
245.358	2.551	126623	WORD	n/a	wordpools/wordpool_categorized_EN.txt	SAW	Tools	1	2	[0, 0, 0]	n/a	catFR1	0	R1114C
247.909	2.4	127898	WORD	n/a	wordpools/wordpool_categorized_EN.txt	RATCHET	Tools	2	2	[0, 0, 0]	n/a	catFR1	0	R1114C
250.309	2.45	129098	WORD	n/a	wordpools/wordpool_categorized_EN.txt	CUCUMBER	Vegetables	3	2	[0, 0, 0]	n/a	catFR1	0	R1114C
252.759	2.434	130323	WORD	n/a	wordpools/wordpool_categorized_EN.txt	CORN	Vegetables	4	2	[0, 0, 0]	n/a	catFR1	0	R1114C
255.193	2.4	131540	WORD	n/a	wordpools/wordpool_categorized_EN.txt	WINDOW	Building	5	2	[0, 0, 0]	n/a	catFR1	0	R1114C
257.593	2.385	132740	WORD	n/a	wordpools/wordpool_categorized_EN.txt	FOUNDATION	Building	6	2	[0, 0, 0]	n/a	catFR1	0	R1114C
259.978	2.6	133932	WORD	n/a	wordpools/wordpool_categorized_EN.txt	SCREWDRIVER	Tools	7	2	[0, 0, 0]	n/a	catFR1	0	R1114C
262.578	2.45	135232	WORD	n/a	wordpools/wordpool_categorized_EN.txt	SANDER	Tools	8	2	[0, 0, 0]	n/a	catFR1	0	R1114C
265.028	2.501	136457	WORD	n/a	wordpools/wordpool_categorized_EN.txt	FLOOR	Building	9	2	[0, 0, 0]	n/a	catFR1	0	R1114C
267.529	2.533	137707	WORD	n/a	wordpools/wordpool_categorized_EN.txt	WALL	Building	10	2	[0, 0, 0]	n/a	catFR1	0	R1114C
270.062	2.384	138974	WORD	n/a	wordpools/wordpool_categorized_EN.txt	CARROT	Vegetables	11	2	[0, 0, 0]	n/a	catFR1	0	R1114C
272.446	1.617	140166	WORD	n/a	wordpools/wordpool_categorized_EN.txt	ONION	Vegetables	12	2	[0, 0, 0]	n/a	catFR1	0	R1114C
274.063	0.001	140974	DISTRACT_START	n/a	n/a	n/a	n/a	-999	2	[0, 0, 0]	n/a	catFR1	0	R1114C
274.064	0.016	140975	START	n/a	n/a	n/a	n/a	-999	2	[-999, -999, -999]	n/a	catFR1	0	R1114C
274.08	6.484	140983	PROB	6.484	n/a	n/a	n/a	-999	2	[8, 4, 6]	18	catFR1	0	R1114C
280.564	5.035	144224	PROB	5.035	n/a	n/a	n/a	-999	2	[6, 7, 9]	22	catFR1	0	R1114C
285.599	3.9	146742	PROB	3.9	n/a	n/a	n/a	-999	2	[8, 9, 4]	21	catFR1	0	R1114C
289.499	4.452	148692	PROB	4.452	n/a	n/a	n/a	-999	2	[6, 5, 3]	14	catFR1	0	R1114C
293.951	2.991	150917	PROB	2.991	n/a	n/a	n/a	-999	2	[3, 4, 4]	11	catFR1	0	R1114C
296.942	0.01	152413	STOP	n/a	n/a	n/a	n/a	-999	2	[-999, -999, -999]	n/a	catFR1	0	R1114C
296.952	1.166	152418	DISTRACT_END	n/a	n/a	n/a	n/a	-999	2	[0, 0, 0]	n/a	catFR1	0	R1114C
298.118	1.086	153001	REC_START	n/a	n/a	n/a	n/a	-999	2	[0, 0, 0]	n/a	catFR1	0	R1114C
299.204	1.98	153544	REC_WORD	1.98	n/a	SAW	Tools	1	2	[0, 0, 0]	n/a	catFR1	0	R1114C
301.184	1.887	154534	REC_WORD	1.887	n/a	RATCHET	Tools	2	2	[0, 0, 0]	n/a	catFR1	0	R1114C
303.071	3.491	155477	REC_WORD	3.491	n/a	CUCUMBER	Vegetables	3	2	[0, 0, 0]	n/a	catFR1	0	R1114C
306.562	1.691	157222	REC_WORD	1.691	n/a	WALL	Building	10	2	[0, 0, 0]	n/a	catFR1	0	R1114C
308.253	16.864	158068	REC_WORD	16.864	n/a	FLOOR	Building	9	2	[0, 0, 0]	n/a	catFR1	0	R1114C
325.117	3.017	166499	REC_WORD	3.017	n/a	SCREWDRIVER	Tools	7	2	[0, 0, 0]	n/a	catFR1	0	R1114C
328.134	2.223	168008	REC_END	n/a	n/a	n/a	n/a	-999	2	[0, 0, 0]	n/a	catFR1	0	R1114C
330.357	0.0	169119	TRIAL	n/a	n/a	n/a	n/a	-999	3	[0, 0, 0]	n/a	catFR1	0	R1114C
330.357	10.428	169119	COUNTDOWN_START	n/a	n/a	n/a	n/a	-999	3	[0, 0, 0]	n/a	catFR1	0	R1114C
340.785	0.008	174333	COUNTDOWN_END	n/a	n/a	n/a	n/a	-999	3	[0, 0, 0]	n/a	catFR1	0	R1114C
340.793	3.816	174337	ORIENT	n/a	n/a	n/a	n/a	-999	3	[0, 0, 0]	n/a	catFR1	0	R1114C
344.609	2.434	176245	WORD	n/a	wordpools/wordpool_categorized_EN.txt	DAISY	Flowers	1	3	[0, 0, 0]	n/a	catFR1	0	R1114C
347.043	2.468	177462	WORD	n/a	wordpools/wordpool_categorized_EN.txt	VIOLET	Flowers	2	3	[0, 0, 0]	n/a	catFR1	0	R1114C
349.511	2.484	178695	WORD	n/a	wordpools/wordpool_categorized_EN.txt	WOODS	Landscapes	3	3	[0, 0, 0]	n/a	catFR1	0	R1114C
351.995	2.466	179937	WORD	n/a	wordpools/wordpool_categorized_EN.txt	CREEK	Landscapes	4	3	[0, 0, 0]	n/a	catFR1	0	R1114C
354.461	2.502	181170	WORD	n/a	wordpools/wordpool_categorized_EN.txt	SHORTS	Clothing	5	3	[0, 0, 0]	n/a	catFR1	0	R1114C
356.963	2.599	182421	WORD	n/a	wordpools/wordpool_categorized_EN.txt	SOCKS	Clothing	6	3	[0, 0, 0]	n/a	catFR1	0	R1114C
359.562	2.601	183721	WORD	n/a	wordpools/wordpool_categorized_EN.txt	ROSE	Flowers	7	3	[0, 0, 0]	n/a	catFR1	0	R1114C
362.163	2.6	185021	WORD	n/a	wordpools/wordpool_categorized_EN.txt	LILAC	Flowers	8	3	[0, 0, 0]	n/a	catFR1	0	R1114C
364.763	2.434	186321	WORD	n/a	wordpools/wordpool_categorized_EN.txt	JACKET	Clothing	9	3	[0, 0, 0]	n/a	catFR1	0	R1114C
367.197	2.484	187538	WORD	n/a	wordpools/wordpool_categorized_EN.txt	JEANS	Clothing	10	3	[0, 0, 0]	n/a	catFR1	0	R1114C
369.681	2.467	188780	WORD	n/a	wordpools/wordpool_categorized_EN.txt	FOREST	Landscapes	11	3	[0, 0, 0]	n/a	catFR1	0	R1114C
372.148	1.617	190013	WORD	n/a	wordpools/wordpool_categorized_EN.txt	STREAM	Landscapes	12	3	[0, 0, 0]	n/a	catFR1	0	R1114C
373.765	0.001	190822	DISTRACT_START	n/a	n/a	n/a	n/a	-999	3	[0, 0, 0]	n/a	catFR1	0	R1114C
373.766	0.016	190822	START	n/a	n/a	n/a	n/a	-999	3	[-999, -999, -999]	n/a	catFR1	0	R1114C
373.782	3.734	190830	PROB	3.734	n/a	n/a	n/a	-999	3	[7, 1, 2]	10	catFR1	0	R1114C
377.516	6.968	192697	PROB	6.968	n/a	n/a	n/a	-999	3	[8, 9, 9]	26	catFR1	0	R1114C
384.484	5.118	196181	PROB	5.118	n/a	n/a	n/a	-999	3	[5, 7, 7]	19	catFR1	0	R1114C
389.602	5.244	198740	PROB	5.244	n/a	n/a	n/a	-999	3	[7, 5, 7]	19	catFR1	0	R1114C
394.846	0.007	201361	STOP	n/a	n/a	n/a	n/a	-999	3	[-999, -999, -999]	n/a	catFR1	0	R1114C
394.853	1.118	201365	DISTRACT_END	n/a	n/a	n/a	n/a	-999	3	[0, 0, 0]	n/a	catFR1	0	R1114C
395.971	2.949	201924	REC_START	n/a	n/a	n/a	n/a	-999	3	[0, 0, 0]	n/a	catFR1	0	R1114C
398.92	1.708	203398	REC_WORD	1.708	n/a	DAISY	Flowers	1	3	[0, 0, 0]	n/a	catFR1	0	R1114C
400.628	3.931	204252	REC_WORD	3.931	n/a	LILAC	Flowers	8	3	[0, 0, 0]	n/a	catFR1	0	R1114C
404.559	1.642	206218	REC_WORD	1.642	n/a	VIOLET	Flowers	2	3	[0, 0, 0]	n/a	catFR1	0	R1114C
406.201	1.873	207038	REC_WORD	1.873	n/a	STREAM	Landscapes	12	3	[0, 0, 0]	n/a	catFR1	0	R1114C
408.074	2.588	207975	REC_WORD	2.588	n/a	WOODS	Landscapes	3	3	[0, 0, 0]	n/a	catFR1	0	R1114C
410.662	4.438	209269	REC_WORD	4.438	n/a	JACKET	Clothing	9	3	[0, 0, 0]	n/a	catFR1	0	R1114C
415.1	10.882	211488	REC_WORD	10.882	n/a	JEANS	Clothing	10	3	[0, 0, 0]	n/a	catFR1	0	R1114C
425.982	2.66	216928	REC_END	n/a	n/a	n/a	n/a	-999	3	[0, 0, 0]	n/a	catFR1	0	R1114C
428.642	0.0	218258	TRIAL	n/a	n/a	n/a	n/a	-999	4	[0, 0, 0]	n/a	catFR1	0	R1114C
428.642	10.428	218258	COUNTDOWN_START	n/a	n/a	n/a	n/a	-999	4	[0, 0, 0]	n/a	catFR1	0	R1114C
439.07	0.007	223472	COUNTDOWN_END	n/a	n/a	n/a	n/a	-999	4	[0, 0, 0]	n/a	catFR1	0	R1114C
439.077	3.468	223475	ORIENT	n/a	n/a	n/a	n/a	-999	4	[0, 0, 0]	n/a	catFR1	0	R1114C
442.545	2.434	225209	WORD	n/a	wordpools/wordpool_categorized_EN.txt	OCEAN	Landscapes	1	4	[0, 0, 0]	n/a	catFR1	0	R1114C
444.979	2.55	226426	WORD	n/a	wordpools/wordpool_categorized_EN.txt	ISLAND	Landscapes	2	4	[0, 0, 0]	n/a	catFR1	0	R1114C
447.529	2.501	227701	WORD	n/a	wordpools/wordpool_categorized_EN.txt	RULER	OfficeSupplies	3	4	[0, 0, 0]	n/a	catFR1	0	R1114C
450.03	2.483	228951	WORD	n/a	wordpools/wordpool_categorized_EN.txt	TAPE	OfficeSupplies	4	4	[0, 0, 0]	n/a	catFR1	0	R1114C
452.513	2.402	230193	WORD	n/a	wordpools/wordpool_categorized_EN.txt	CRAB	OceanAnimals	5	4	[0, 0, 0]	n/a	catFR1	0	R1114C
454.915	2.483	231394	WORD	n/a	wordpools/wordpool_categorized_EN.txt	OCTOPUS	OceanAnimals	6	4	[0, 0, 0]	n/a	catFR1	0	R1114C
457.398	2.434	232635	WORD	n/a	wordpools/wordpool_categorized_EN.txt	PAPER	OfficeSupplies	7	4	[0, 0, 0]	n/a	catFR1	0	R1114C
459.832	2.416	233852	WORD	n/a	wordpools/wordpool_categorized_EN.txt	GLUE	OfficeSupplies	8	4	[0, 0, 0]	n/a	catFR1	0	R1114C
462.248	2.384	235060	WORD	n/a	wordpools/wordpool_categorized_EN.txt	BEACH	Landscapes	9	4	[0, 0, 0]	n/a	catFR1	0	R1114C
464.632	2.551	236252	WORD	n/a	wordpools/wordpool_categorized_EN.txt	LAKE	Landscapes	10	4	[0, 0, 0]	n/a	catFR1	0	R1114C
467.183	2.534	237527	WORD	n/a	wordpools/wordpool_categorized_EN.txt	JELLYFISH	OceanAnimals	11	4	[0, 0, 0]	n/a	catFR1	0	R1114C
469.717	1.616	238794	WORD	n/a	wordpools/wordpool_categorized_EN.txt	PLANKTON	OceanAnimals	12	4	[0, 0, 0]	n/a	catFR1	0	R1114C
471.333	0.002	239602	DISTRACT_START	n/a	n/a	n/a	n/a	-999	4	[0, 0, 0]	n/a	catFR1	0	R1114C
471.335	0.015	239603	START	n/a	n/a	n/a	n/a	-999	4	[-999, -999, -999]	n/a	catFR1	0	R1114C
471.35	3.635	239611	PROB	3.635	n/a	n/a	n/a	-999	4	[7, 5, 2]	14	catFR1	0	R1114C
474.985	3.1	241428	PROB	3.1	n/a	n/a	n/a	-999	4	[5, 2, 2]	9	catFR1	0	R1114C
478.085	4.567	242978	PROB	4.567	n/a	n/a	n/a	-999	4	[2, 4, 7]	13	catFR1	0	R1114C
482.652	5.068	245261	PROB	5.068	n/a	n/a	n/a	-999	4	[7, 6, 5]	18	catFR1	0	R1114C
487.72	3.741	247795	PROB	3.741	n/a	n/a	n/a	-999	4	[7, 9, 2]	18	catFR1	0	R1114C
491.461	0.01	249666	STOP	n/a	n/a	n/a	n/a	-999	4	[-999, -999, -999]	n/a	catFR1	0	R1114C
491.471	1.117	249671	DISTRACT_END	n/a	n/a	n/a	n/a	-999	4	[0, 0, 0]	n/a	catFR1	0	R1114C
492.588	1.855	250229	REC_START	n/a	n/a	n/a	n/a	-999	4	[0, 0, 0]	n/a	catFR1	0	R1114C
494.443	2.131	251156	REC_WORD	2.131	n/a	OCEAN	Landscapes	1	4	[0, 0, 0]	n/a	catFR1	0	R1114C
496.574	1.419	252222	REC_WORD	1.419	n/a	RULER	OfficeSupplies	3	4	[0, 0, 0]	n/a	catFR1	0	R1114C
497.993	1.9	252931	REC_WORD	1.9	n/a	ISLAND	Landscapes	2	4	[0, 0, 0]	n/a	catFR1	0	R1114C
499.893	1.844	253881	REC_WORD	1.844	n/a	TAPE	OfficeSupplies	4	4	[0, 0, 0]	n/a	catFR1	0	R1114C
501.737	1.36	254803	REC_WORD	1.36	n/a	OCTOPUS	OceanAnimals	6	4	[0, 0, 0]	n/a	catFR1	0	R1114C
503.097	1.39	255483	REC_WORD	1.39	n/a	PLANKTON	OceanAnimals	12	4	[0, 0, 0]	n/a	catFR1	0	R1114C
504.487	1.841	256178	REC_WORD	1.841	n/a	JELLYFISH	OceanAnimals	11	4	[0, 0, 0]	n/a	catFR1	0	R1114C
506.328	13.804	257098	REC_WORD	13.804	n/a	BEACH	Landscapes	9	4	[0, 0, 0]	n/a	catFR1	0	R1114C
520.132	2.468	264000	REC_WORD	2.468	n/a	PLANKTON	OceanAnimals	12	4	[0, 0, 0]	n/a	catFR1	0	R1114C
522.6	2.211	265234	REC_END	n/a	n/a	n/a	n/a	-999	4	[0, 0, 0]	n/a	catFR1	0	R1114C
524.811	0.001	266339	COUNTDOWN_START	n/a	n/a	n/a	n/a	-999	5	[0, 0, 0]	n/a	catFR1	0	R1114C
524.812	10.427	266340	TRIAL	n/a	n/a	n/a	n/a	-999	5	[0, 0, 0]	n/a	catFR1	0	R1114C
535.239	0.006	271553	COUNTDOWN_END	n/a	n/a	n/a	n/a	-999	5	[0, 0, 0]	n/a	catFR1	0	R1114C
535.245	3.752	271556	ORIENT	n/a	n/a	n/a	n/a	-999	5	[0, 0, 0]	n/a	catFR1	0	R1114C
538.997	2.433	273432	WORD	n/a	wordpools/wordpool_categorized_EN.txt	HEAD	BodyParts	1	5	[0, 0, 0]	n/a	catFR1	0	R1114C
541.43	2.468	274648	WORD	n/a	wordpools/wordpool_categorized_EN.txt	ELBOW	BodyParts	2	5	[0, 0, 0]	n/a	catFR1	0	R1114C
543.898	2.4	275882	WORD	n/a	wordpools/wordpool_categorized_EN.txt	CROWBAR	Tools	3	5	[0, 0, 0]	n/a	catFR1	0	R1114C
546.298	2.551	277082	WORD	n/a	wordpools/wordpool_categorized_EN.txt	PLIERS	Tools	4	5	[0, 0, 0]	n/a	catFR1	0	R1114C
548.849	2.4	278358	WORD	n/a	wordpools/wordpool_categorized_EN.txt	MOSQUITO	Insects	5	5	[0, 0, 0]	n/a	catFR1	0	R1114C
551.249	2.533	279557	WORD	n/a	wordpools/wordpool_categorized_EN.txt	FLY	Insects	6	5	[0, 0, 0]	n/a	catFR1	0	R1114C
553.782	2.384	280824	WORD	n/a	wordpools/wordpool_categorized_EN.txt	FOOT	BodyParts	7	5	[0, 0, 0]	n/a	catFR1	0	R1114C
556.166	2.501	282016	WORD	n/a	wordpools/wordpool_categorized_EN.txt	EYE	BodyParts	8	5	[0, 0, 0]	n/a	catFR1	0	R1114C
558.667	2.567	283266	WORD	n/a	wordpools/wordpool_categorized_EN.txt	BUTTERFLY	Insects	9	5	[0, 0, 0]	n/a	catFR1	0	R1114C
561.234	2.568	284550	WORD	n/a	wordpools/wordpool_categorized_EN.txt	BEETLE	Insects	10	5	[0, 0, 0]	n/a	catFR1	0	R1114C
563.802	2.399	285833	WORD	n/a	wordpools/wordpool_categorized_EN.txt	SHOVEL	Tools	11	5	[0, 0, 0]	n/a	catFR1	0	R1114C
566.201	1.601	287033	WORD	n/a	wordpools/wordpool_categorized_EN.txt	WRENCH	Tools	12	5	[0, 0, 0]	n/a	catFR1	0	R1114C
567.802	0.001	287833	DISTRACT_START	n/a	n/a	n/a	n/a	-999	5	[0, 0, 0]	n/a	catFR1	0	R1114C
567.803	0.016	287834	START	n/a	n/a	n/a	n/a	-999	5	[-999, -999, -999]	n/a	catFR1	0	R1114C
567.819	3.567	287842	PROB	3.567	n/a	n/a	n/a	-999	5	[3, 4, 2]	9	catFR1	0	R1114C
571.386	3.717	289625	PROB	3.717	n/a	n/a	n/a	-999	5	[2, 3, 3]	8	catFR1	0	R1114C
575.103	2.835	291484	PROB	2.835	n/a	n/a	n/a	-999	5	[1, 9, 1]	11	catFR1	0	R1114C
577.938	3.433	292901	PROB	3.433	n/a	n/a	n/a	-999	5	[4, 7, 3]	14	catFR1	0	R1114C
581.371	2.684	294617	PROB	2.684	n/a	n/a	n/a	-999	5	[2, 4, 3]	9	catFR1	0	R1114C
584.055	3.567	295959	PROB	3.567	n/a	n/a	n/a	-999	5	[4, 7, 7]	18	catFR1	0	R1114C
587.622	10.102	297743	PROB	10.102	n/a	n/a	n/a	-999	5	[8, 8, 9]	25	catFR1	0	R1114C
597.724	0.017	302793	STOP	n/a	n/a	n/a	n/a	-999	5	[-999, -999, -999]	n/a	catFR1	0	R1114C
597.741	1.151	302802	DISTRACT_END	n/a	n/a	n/a	n/a	-999	5	[0, 0, 0]	n/a	catFR1	0	R1114C
598.892	18.857	303377	REC_START	n/a	n/a	n/a	n/a	-999	5	[0, 0, 0]	n/a	catFR1	0	R1114C
617.749	1.661	312805	REC_WORD	1.661	n/a	WRENCH	Tools	12	5	[0, 0, 0]	n/a	catFR1	0	R1114C
619.41	2.508	313636	REC_WORD	2.508	n/a	BEETLE	Insects	10	5	[0, 0, 0]	n/a	catFR1	0	R1114C
621.918	6.99	314889	REC_WORD	6.99	n/a	BUTTERFLY	Insects	9	5	[0, 0, 0]	n/a	catFR1	0	R1114C
628.908	2.222	318384	REC_END	n/a	n/a	n/a	n/a	-999	5	[0, 0, 0]	n/a	catFR1	0	R1114C
631.13	0.0	319495	TRIAL	n/a	n/a	n/a	n/a	-999	6	[0, 0, 0]	n/a	catFR1	0	R1114C
631.13	10.428	319495	COUNTDOWN_START	n/a	n/a	n/a	n/a	-999	6	[0, 0, 0]	n/a	catFR1	0	R1114C
641.558	0.007	324709	COUNTDOWN_END	n/a	n/a	n/a	n/a	-999	6	[0, 0, 0]	n/a	catFR1	0	R1114C
641.565	3.568	324712	ORIENT	n/a	n/a	n/a	n/a	-999	6	[0, 0, 0]	n/a	catFR1	0	R1114C
645.133	2.45	326496	WORD	n/a	wordpools/wordpool_categorized_EN.txt	NOSE	BodyParts	1	6	[0, 0, 0]	n/a	catFR1	0	R1114C
647.583	2.385	327721	WORD	n/a	wordpools/wordpool_categorized_EN.txt	EAR	BodyParts	2	6	[0, 0, 0]	n/a	catFR1	0	R1114C
649.968	2.55	328913	WORD	n/a	wordpools/wordpool_categorized_EN.txt	MARBLES	Toys	3	6	[0, 0, 0]	n/a	catFR1	0	R1114C
652.518	2.483	330188	WORD	n/a	wordpools/wordpool_categorized_EN.txt	DOLL	Toys	4	6	[0, 0, 0]	n/a	catFR1	0	R1114C
655.001	2.467	331430	WORD	n/a	wordpools/wordpool_categorized_EN.txt	STAIRS	Building	5	6	[0, 0, 0]	n/a	catFR1	0	R1114C
657.468	2.617	332663	WORD	n/a	wordpools/wordpool_categorized_EN.txt	ROOF	Building	6	6	[0, 0, 0]	n/a	catFR1	0	R1114C
660.085	2.568	333972	WORD	n/a	wordpools/wordpool_categorized_EN.txt	BASEBALL	Toys	7	6	[0, 0, 0]	n/a	catFR1	0	R1114C
662.653	2.467	335256	WORD	n/a	wordpools/wordpool_categorized_EN.txt	BARBIE	Toys	8	6	[0, 0, 0]	n/a	catFR1	0	R1114C
665.12	2.417	336489	WORD	n/a	wordpools/wordpool_categorized_EN.txt	LEG	BodyParts	9	6	[0, 0, 0]	n/a	catFR1	0	R1114C
667.537	2.534	337697	WORD	n/a	wordpools/wordpool_categorized_EN.txt	ARM	BodyParts	10	6	[0, 0, 0]	n/a	catFR1	0	R1114C
670.071	2.417	338964	WORD	n/a	wordpools/wordpool_categorized_EN.txt	BATHROOM	Building	11	6	[0, 0, 0]	n/a	catFR1	0	R1114C
672.488	1.617	340173	WORD	n/a	wordpools/wordpool_categorized_EN.txt	ATTIC	Building	12	6	[0, 0, 0]	n/a	catFR1	0	R1114C
674.105	0.001	340981	DISTRACT_START	n/a	n/a	n/a	n/a	-999	6	[0, 0, 0]	n/a	catFR1	0	R1114C
674.106	0.016	340982	START	n/a	n/a	n/a	n/a	-999	6	[-999, -999, -999]	n/a	catFR1	0	R1114C
674.122	6.067	340990	PROB	6.067	n/a	n/a	n/a	-999	6	[8, 3, 5]	16	catFR1	0	R1114C
680.189	5.351	344023	PROB	5.351	n/a	n/a	n/a	-999	6	[9, 2, 6]	17	catFR1	0	R1114C
685.54	3.984	346698	PROB	3.984	n/a	n/a	n/a	-999	6	[3, 7, 8]	18	catFR1	0	R1114C
689.524	8.705	348690	PROB	8.705	n/a	n/a	n/a	-999	6	[7, 8, 9]	24	catFR1	0	R1114C
698.229	0.014	353042	STOP	n/a	n/a	n/a	n/a	-999	6	[-999, -999, -999]	n/a	catFR1	0	R1114C
698.243	1.084	353049	DISTRACT_END	n/a	n/a	n/a	n/a	-999	6	[0, 0, 0]	n/a	catFR1	0	R1114C
699.327	2.006	353591	REC_START	n/a	n/a	n/a	n/a	-999	6	[0, 0, 0]	n/a	catFR1	0	R1114C
701.333	1.002	354594	REC_WORD	1.002	n/a	NOSE	BodyParts	1	6	[0, 0, 0]	n/a	catFR1	0	R1114C
702.335	2.692	355095	REC_WORD	2.692	n/a	EAR	BodyParts	2	6	[0, 0, 0]	n/a	catFR1	0	R1114C
705.027	1.386	356441	REC_WORD	1.386	n/a	BARBIE	Toys	8	6	[0, 0, 0]	n/a	catFR1	0	R1114C
706.413	5.476	357134	REC_WORD	5.476	n/a	DOLL	Toys	4	6	[0, 0, 0]	n/a	catFR1	0	R1114C
711.889	17.449	359872	REC_WORD	17.449	n/a	ELBOW	n/a	-999	6	[0, 0, 0]	n/a	catFR1	0	R1114C
729.338	2.244	368596	REC_END	n/a	n/a	n/a	n/a	-999	6	[0, 0, 0]	n/a	catFR1	0	R1114C
731.582	0.001	369718	COUNTDOWN_START	n/a	n/a	n/a	n/a	-999	7	[0, 0, 0]	n/a	catFR1	0	R1114C
731.583	10.427	369718	TRIAL	n/a	n/a	n/a	n/a	-999	7	[0, 0, 0]	n/a	catFR1	0	R1114C
742.01	0.008	374931	COUNTDOWN_END	n/a	n/a	n/a	n/a	-999	7	[0, 0, 0]	n/a	catFR1	0	R1114C
742.018	3.785	374935	ORIENT	n/a	n/a	n/a	n/a	-999	7	[0, 0, 0]	n/a	catFR1	0	R1114C
745.803	2.399	376828	WORD	n/a	wordpools/wordpool_categorized_EN.txt	BROCCOLI	Vegetables	1	7	[0, 0, 0]	n/a	catFR1	0	R1114C
748.202	2.417	378027	WORD	n/a	wordpools/wordpool_categorized_EN.txt	SPINACH	Vegetables	2	7	[0, 0, 0]	n/a	catFR1	0	R1114C
750.619	2.634	379235	WORD	n/a	wordpools/wordpool_categorized_EN.txt	LAMB	FarmAnimals	3	7	[0, 0, 0]	n/a	catFR1	0	R1114C
753.253	2.367	380552	WORD	n/a	wordpools/wordpool_categorized_EN.txt	HORSE	FarmAnimals	4	7	[0, 0, 0]	n/a	catFR1	0	R1114C
755.62	2.384	381736	WORD	n/a	wordpools/wordpool_categorized_EN.txt	EVERGREEN	Trees	5	7	[0, 0, 0]	n/a	catFR1	0	R1114C
758.004	2.434	382928	WORD	n/a	wordpools/wordpool_categorized_EN.txt	OAK	Trees	6	7	[0, 0, 0]	n/a	catFR1	0	R1114C
760.438	2.501	384145	WORD	n/a	wordpools/wordpool_categorized_EN.txt	LETTUCE	Vegetables	7	7	[0, 0, 0]	n/a	catFR1	0	R1114C
762.939	2.416	385395	WORD	n/a	wordpools/wordpool_categorized_EN.txt	CELERY	Vegetables	8	7	[0, 0, 0]	n/a	catFR1	0	R1114C
765.355	2.535	386603	WORD	n/a	wordpools/wordpool_categorized_EN.txt	WILLOW	Trees	9	7	[0, 0, 0]	n/a	catFR1	0	R1114C
767.89	2.416	387870	WORD	n/a	wordpools/wordpool_categorized_EN.txt	ELM	Trees	10	7	[0, 0, 0]	n/a	catFR1	0	R1114C
770.306	2.502	389078	WORD	n/a	wordpools/wordpool_categorized_EN.txt	GOAT	FarmAnimals	11	7	[0, 0, 0]	n/a	catFR1	0	R1114C
772.808	1.616	390329	WORD	n/a	wordpools/wordpool_categorized_EN.txt	CALF	FarmAnimals	12	7	[0, 0, 0]	n/a	catFR1	0	R1114C
774.424	0.001	391137	DISTRACT_START	n/a	n/a	n/a	n/a	-999	7	[0, 0, 0]	n/a	catFR1	0	R1114C
774.425	0.015	391138	START	n/a	n/a	n/a	n/a	-999	7	[-999, -999, -999]	n/a	catFR1	0	R1114C
774.44	7.935	391145	PROB	7.935	n/a	n/a	n/a	-999	7	[8, 7, 6]	21	catFR1	0	R1114C
782.375	4.234	395112	PROB	4.234	n/a	n/a	n/a	-999	7	[3, 8, 7]	18	catFR1	0	R1114C
786.609	4.501	397229	PROB	4.501	n/a	n/a	n/a	-999	7	[9, 5, 3]	17	catFR1	0	R1114C
791.11	2.351	399480	PROB	2.351	n/a	n/a	n/a	-999	7	[5, 5, 2]	12	catFR1	0	R1114C
793.461	3.473	400655	PROB	3.473	n/a	n/a	n/a	-999	7	[5, 3, 7]	15	catFR1	0	R1114C
796.934	0.012	402391	STOP	n/a	n/a	n/a	n/a	-999	7	[-999, -999, -999]	n/a	catFR1	0	R1114C
796.946	1.2	402397	DISTRACT_END	n/a	n/a	n/a	n/a	-999	7	[0, 0, 0]	n/a	catFR1	0	R1114C
798.146	3.239	402997	REC_START	n/a	n/a	n/a	n/a	-999	7	[0, 0, 0]	n/a	catFR1	0	R1114C
801.385	1.124	404617	REC_WORD	1.124	n/a	BROCCOLI	Vegetables	1	7	[0, 0, 0]	n/a	catFR1	0	R1114C
802.509	1.708	405179	REC_WORD	1.708	n/a	SPINACH	Vegetables	2	7	[0, 0, 0]	n/a	catFR1	0	R1114C
804.217	2.703	406033	REC_WORD	2.703	n/a	LAMB	FarmAnimals	3	7	[0, 0, 0]	n/a	catFR1	0	R1114C
806.92	1.817	407384	REC_WORD	1.817	n/a	HORSE	FarmAnimals	4	7	[0, 0, 0]	n/a	catFR1	0	R1114C
808.737	2.055	408292	REC_WORD	2.055	n/a	GOAT	FarmAnimals	11	7	[0, 0, 0]	n/a	catFR1	0	R1114C
810.792	3.768	409320	REC_WORD	3.768	n/a	EVERGREEN	Trees	5	7	[0, 0, 0]	n/a	catFR1	0	R1114C
814.56	2.459	411204	REC_WORD	2.459	n/a	CALF	FarmAnimals	12	7	[0, 0, 0]	n/a	catFR1	0	R1114C
817.019	11.139	412433	REC_WORD	11.139	n/a	WILLOW	Trees	9	7	[0, 0, 0]	n/a	catFR1	0	R1114C
828.158	3.093	418002	REC_END	n/a	n/a	n/a	n/a	-999	7	[0, 0, 0]	n/a	catFR1	0	R1114C
831.251	0.0	419549	COUNTDOWN_START	n/a	n/a	n/a	n/a	-999	8	[0, 0, 0]	n/a	catFR1	0	R1114C
831.251	10.428	419549	TRIAL	n/a	n/a	n/a	n/a	-999	8	[0, 0, 0]	n/a	catFR1	0	R1114C
841.679	0.007	424762	COUNTDOWN_END	n/a	n/a	n/a	n/a	-999	8	[0, 0, 0]	n/a	catFR1	0	R1114C
841.686	4.001	424766	ORIENT	n/a	n/a	n/a	n/a	-999	8	[0, 0, 0]	n/a	catFR1	0	R1114C
845.687	2.551	426766	WORD	n/a	wordpools/wordpool_categorized_EN.txt	RUM	Beverages	1	8	[0, 0, 0]	n/a	catFR1	0	R1114C
848.238	2.618	428042	WORD	n/a	wordpools/wordpool_categorized_EN.txt	LEMONADE	Beverages	2	8	[0, 0, 0]	n/a	catFR1	0	R1114C
850.856	2.583	429350	WORD	n/a	wordpools/wordpool_categorized_EN.txt	FOG	Weather	3	8	[0, 0, 0]	n/a	catFR1	0	R1114C
853.439	2.534	430642	WORD	n/a	wordpools/wordpool_categorized_EN.txt	SNOW	Weather	4	8	[0, 0, 0]	n/a	catFR1	0	R1114C
855.973	2.6	431909	WORD	n/a	wordpools/wordpool_categorized_EN.txt	ZEBRA	Zoo	5	8	[0, 0, 0]	n/a	catFR1	0	R1114C
858.573	2.434	433209	WORD	n/a	wordpools/wordpool_categorized_EN.txt	CHEETAH	Zoo	6	8	[0, 0, 0]	n/a	catFR1	0	R1114C
861.007	2.567	434426	WORD	n/a	wordpools/wordpool_categorized_EN.txt	WINE	Beverages	7	8	[0, 0, 0]	n/a	catFR1	0	R1114C
863.574	2.517	435709	WORD	n/a	wordpools/wordpool_categorized_EN.txt	COFFEE	Beverages	8	8	[0, 0, 0]	n/a	catFR1	0	R1114C
866.091	2.4	436967	WORD	n/a	wordpools/wordpool_categorized_EN.txt	CHIMPANZEE	Zoo	9	8	[0, 0, 0]	n/a	catFR1	0	R1114C
868.491	2.385	438167	WORD	n/a	wordpools/wordpool_categorized_EN.txt	MONKEY	Zoo	10	8	[0, 0, 0]	n/a	catFR1	0	R1114C
870.876	2.416	439360	WORD	n/a	wordpools/wordpool_categorized_EN.txt	THUNDER	Weather	11	8	[0, 0, 0]	n/a	catFR1	0	R1114C
873.292	1.601	440568	WORD	n/a	wordpools/wordpool_categorized_EN.txt	HURRICANE	Weather	12	8	[0, 0, 0]	n/a	catFR1	0	R1114C
874.893	0.001	441368	DISTRACT_START	n/a	n/a	n/a	n/a	-999	8	[0, 0, 0]	n/a	catFR1	0	R1114C
874.894	0.016	441369	START	n/a	n/a	n/a	n/a	-999	8	[-999, -999, -999]	n/a	catFR1	0	R1114C
874.91	8.251	441377	PROB	8.251	n/a	n/a	n/a	-999	8	[7, 9, 3]	19	catFR1	0	R1114C
883.161	6.268	445502	PROB	6.268	n/a	n/a	n/a	-999	8	[4, 5, 6]	15	catFR1	0	R1114C
889.429	3.3	448636	PROB	3.3	n/a	n/a	n/a	-999	8	[7, 3, 4]	14	catFR1	0	R1114C
892.729	3.667	450286	PROB	3.667	n/a	n/a	n/a	-999	8	[6, 2, 4]	12	catFR1	0	R1114C
896.396	0.017	452119	STOP	n/a	n/a	n/a	n/a	-999	8	[-999, -999, -999]	n/a	catFR1	0	R1114C
896.413	1.151	452127	DISTRACT_END	n/a	n/a	n/a	n/a	-999	8	[0, 0, 0]	n/a	catFR1	0	R1114C
897.564	2.152	452703	REC_START	n/a	n/a	n/a	n/a	-999	8	[0, 0, 0]	n/a	catFR1	0	R1114C
899.716	4.545	453779	REC_WORD	4.545	n/a	RUM	Beverages	1	8	[0, 0, 0]	n/a	catFR1	0	R1114C
904.261	4.002	456051	REC_WORD	4.002	n/a	WINE	Beverages	7	8	[0, 0, 0]	n/a	catFR1	0	R1114C
908.263	2.117	458052	REC_WORD	2.117	n/a	ZEBRA	Zoo	5	8	[0, 0, 0]	n/a	catFR1	0	R1114C
910.38	2.59	459110	REC_WORD	2.59	n/a	CHEETAH	Zoo	6	8	[0, 0, 0]	n/a	catFR1	0	R1114C
912.97	3.494	460405	REC_WORD	3.494	n/a	CHIMPANZEE	Zoo	9	8	[0, 0, 0]	n/a	catFR1	0	R1114C
916.464	1.777	462152	REC_WORD	1.777	n/a	FOG	Weather	3	8	[0, 0, 0]	n/a	catFR1	0	R1114C
918.241	9.334	463041	REC_WORD	9.334	n/a	THUNDER	Weather	11	8	[0, 0, 0]	n/a	catFR1	0	R1114C
927.575	2.978	467707	REC_END	n/a	n/a	n/a	n/a	-999	8	[0, 0, 0]	n/a	catFR1	0	R1114C
930.553	0.0	469196	TRIAL	n/a	n/a	n/a	n/a	-999	9	[0, 0, 0]	n/a	catFR1	0	R1114C
930.553	10.428	469196	COUNTDOWN_START	n/a	n/a	n/a	n/a	-999	9	[0, 0, 0]	n/a	catFR1	0	R1114C
940.981	0.008	474410	COUNTDOWN_END	n/a	n/a	n/a	n/a	-999	9	[0, 0, 0]	n/a	catFR1	0	R1114C
940.989	3.918	474414	ORIENT	n/a	n/a	n/a	n/a	-999	9	[0, 0, 0]	n/a	catFR1	0	R1114C
944.907	2.416	476373	WORD	n/a	wordpools/wordpool_categorized_EN.txt	SOFA	Furniture	1	9	[0, 0, 0]	n/a	catFR1	0	R1114C
947.323	2.568	477581	WORD	n/a	wordpools/wordpool_categorized_EN.txt	DRESSER	Furniture	2	9	[0, 0, 0]	n/a	catFR1	0	R1114C
949.891	2.449	478865	WORD	n/a	wordpools/wordpool_categorized_EN.txt	HICKORY	Trees	3	9	[0, 0, 0]	n/a	catFR1	0	R1114C
952.34	2.434	480089	WORD	n/a	wordpools/wordpool_categorized_EN.txt	CYPRESS	Trees	4	9	[0, 0, 0]	n/a	catFR1	0	R1114C
954.774	2.384	481306	WORD	n/a	wordpools/wordpool_categorized_EN.txt	TULIP	Flowers	5	9	[0, 0, 0]	n/a	catFR1	0	R1114C
957.158	2.517	482498	WORD	n/a	wordpools/wordpool_categorized_EN.txt	CARNATION	Flowers	6	9	[0, 0, 0]	n/a	catFR1	0	R1114C
959.675	2.534	483756	WORD	n/a	wordpools/wordpool_categorized_EN.txt	DESK	Furniture	7	9	[0, 0, 0]	n/a	catFR1	0	R1114C
962.209	2.417	485023	WORD	n/a	wordpools/wordpool_categorized_EN.txt	COUCH	Furniture	8	9	[0, 0, 0]	n/a	catFR1	0	R1114C
964.626	2.501	486232	WORD	n/a	wordpools/wordpool_categorized_EN.txt	LILY	Flowers	9	9	[0, 0, 0]	n/a	catFR1	0	R1114C
967.127	2.45	487482	WORD	n/a	wordpools/wordpool_categorized_EN.txt	MARIGOLD	Flowers	10	9	[0, 0, 0]	n/a	catFR1	0	R1114C
969.577	2.534	488707	WORD	n/a	wordpools/wordpool_categorized_EN.txt	PINE	Trees	11	9	[0, 0, 0]	n/a	catFR1	0	R1114C
972.111	1.617	489974	WORD	n/a	wordpools/wordpool_categorized_EN.txt	WALNUT	Trees	12	9	[0, 0, 0]	n/a	catFR1	0	R1114C
973.728	0.001	490782	DISTRACT_START	n/a	n/a	n/a	n/a	-999	9	[0, 0, 0]	n/a	catFR1	0	R1114C
973.729	0.016	490783	START	n/a	n/a	n/a	n/a	-999	9	[-999, -999, -999]	n/a	catFR1	0	R1114C
973.745	4.334	490791	PROB	4.334	n/a	n/a	n/a	-999	9	[1, 9, 4]	14	catFR1	0	R1114C
978.079	2.7	492958	PROB	2.7	n/a	n/a	n/a	-999	9	[2, 1, 3]	6	catFR1	0	R1114C
980.779	4.169	494307	PROB	4.169	n/a	n/a	n/a	-999	9	[9, 7, 4]	20	catFR1	0	R1114C
984.948	5.75	496392	PROB	5.75	n/a	n/a	n/a	-999	9	[6, 4, 6]	16	catFR1	0	R1114C
990.698	3.835	499267	PROB	3.835	n/a	n/a	n/a	-999	9	[7, 9, 2]	18	catFR1	0	R1114C
994.533	0.015	501184	STOP	n/a	n/a	n/a	n/a	-999	9	[-999, -999, -999]	n/a	catFR1	0	R1114C
994.548	1.035	501191	DISTRACT_END	n/a	n/a	n/a	n/a	-999	9	[0, 0, 0]	n/a	catFR1	0	R1114C
995.583	3.641	501709	REC_START	n/a	n/a	n/a	n/a	-999	9	[0, 0, 0]	n/a	catFR1	0	R1114C
999.224	2.289	503529	REC_WORD	2.289	n/a	LILAC	n/a	-999	9	[0, 0, 0]	n/a	catFR1	0	R1114C
1001.513	8.218	504674	REC_WORD	8.218	n/a	MARIGOLD	Flowers	10	9	[0, 0, 0]	n/a	catFR1	0	R1114C
1009.731	2.231	508782	REC_WORD	2.231	n/a	SOFA	Furniture	1	9	[0, 0, 0]	n/a	catFR1	0	R1114C
1011.962	10.062	509898	REC_WORD	10.062	n/a	COUCH	Furniture	8	9	[0, 0, 0]	n/a	catFR1	0	R1114C
1022.024	3.57	514929	REC_WORD	3.57	n/a	WARDROBE	n/a	-999	9	[0, 0, 0]	n/a	catFR1	0	R1114C
1025.594	3.044	516713	REC_END	n/a	n/a	n/a	n/a	-999	9	[0, 0, 0]	n/a	catFR1	0	R1114C
1028.638	0.0	518235	COUNTDOWN_START	n/a	n/a	n/a	n/a	-999	10	[0, 0, 0]	n/a	catFR1	0	R1114C
1028.638	10.428	518235	TRIAL	n/a	n/a	n/a	n/a	-999	10	[0, 0, 0]	n/a	catFR1	0	R1114C
1039.066	0.007	523449	COUNTDOWN_END	n/a	n/a	n/a	n/a	-999	10	[0, 0, 0]	n/a	catFR1	0	R1114C
1039.073	3.551	523452	ORIENT	n/a	n/a	n/a	n/a	-999	10	[0, 0, 0]	n/a	catFR1	0	R1114C
1042.624	2.434	525228	WORD	n/a	wordpools/wordpool_categorized_EN.txt	NOTEBOOK	OfficeSupplies	1	10	[0, 0, 0]	n/a	catFR1	0	R1114C
1045.058	2.45	526445	WORD	n/a	wordpools/wordpool_categorized_EN.txt	PEN	OfficeSupplies	2	10	[0, 0, 0]	n/a	catFR1	0	R1114C
1047.508	2.551	527670	WORD	n/a	wordpools/wordpool_categorized_EN.txt	GNAT	Insects	3	10	[0, 0, 0]	n/a	catFR1	0	R1114C
1050.059	2.384	528945	WORD	n/a	wordpools/wordpool_categorized_EN.txt	BEE	Insects	4	10	[0, 0, 0]	n/a	catFR1	0	R1114C
1052.443	2.384	530137	WORD	n/a	wordpools/wordpool_categorized_EN.txt	SPARROW	Birds	5	10	[0, 0, 0]	n/a	catFR1	0	R1114C
1054.827	2.4	531329	WORD	n/a	wordpools/wordpool_categorized_EN.txt	SEAGULL	Birds	6	10	[0, 0, 0]	n/a	catFR1	0	R1114C
1057.227	2.601	532529	WORD	n/a	wordpools/wordpool_categorized_EN.txt	MARKER	OfficeSupplies	7	10	[0, 0, 0]	n/a	catFR1	0	R1114C
1059.828	2.483	533829	WORD	n/a	wordpools/wordpool_categorized_EN.txt	STAPLER	OfficeSupplies	8	10	[0, 0, 0]	n/a	catFR1	0	R1114C
1062.311	2.485	535071	WORD	n/a	wordpools/wordpool_categorized_EN.txt	GOOSE	Birds	9	10	[0, 0, 0]	n/a	catFR1	0	R1114C
1064.796	2.633	536313	WORD	n/a	wordpools/wordpool_categorized_EN.txt	DOVE	Birds	10	10	[0, 0, 0]	n/a	catFR1	0	R1114C
1067.429	2.435	537629	WORD	n/a	wordpools/wordpool_categorized_EN.txt	MOTH	Insects	11	10	[0, 0, 0]	n/a	catFR1	0	R1114C
1069.864	1.615	538847	WORD	n/a	wordpools/wordpool_categorized_EN.txt	ROACH	Insects	12	10	[0, 0, 0]	n/a	catFR1	0	R1114C
1071.479	0.001	539654	DISTRACT_START	n/a	n/a	n/a	n/a	-999	10	[0, 0, 0]	n/a	catFR1	0	R1114C
1071.48	0.016	539655	START	n/a	n/a	n/a	n/a	-999	10	[-999, -999, -999]	n/a	catFR1	0	R1114C
1071.496	4.319	539663	PROB	4.319	n/a	n/a	n/a	-999	10	[3, 9, 2]	14	catFR1	0	R1114C
1075.815	3.933	541822	PROB	3.933	n/a	n/a	n/a	-999	10	[3, 5, 7]	15	catFR1	0	R1114C
1079.748	6.401	543788	PROB	6.401	n/a	n/a	n/a	-999	10	[5, 7, 3]	15	catFR1	0	R1114C
1086.149	6.032	546989	PROB	6.032	n/a	n/a	n/a	-999	10	[6, 3, 4]	13	catFR1	0	R1114C
1092.181	0.019	550005	STOP	n/a	n/a	n/a	n/a	-999	10	[-999, -999, -999]	n/a	catFR1	0	R1114C
1092.2	1.19	550014	DISTRACT_END	n/a	n/a	n/a	n/a	-999	10	[0, 0, 0]	n/a	catFR1	0	R1114C
1093.39	13.528	550609	REC_START	n/a	n/a	n/a	n/a	-999	10	[0, 0, 0]	n/a	catFR1	0	R1114C
1106.918	1.097	557373	REC_WORD	1.097	n/a	SEAGULL	Birds	6	10	[0, 0, 0]	n/a	catFR1	0	R1114C
1108.015	1.0	557921	REC_WORD	1.0	n/a	SPARROW	Birds	5	10	[0, 0, 0]	n/a	catFR1	0	R1114C
1109.015	4.752	558421	REC_WORD_VV	4.752	n/a	<>	n/a	-999	10	[0, 0, 0]	n/a	catFR1	0	R1114C
1113.767	1.438	560797	REC_WORD	1.438	n/a	NOTEBOOK	OfficeSupplies	1	10	[0, 0, 0]	n/a	catFR1	0	R1114C
1115.205	3.675	561516	REC_WORD	3.675	n/a	PEN	OfficeSupplies	2	10	[0, 0, 0]	n/a	catFR1	0	R1114C
1118.88	4.516	563353	REC_WORD	4.516	n/a	WALNUT	n/a	-999	10	[0, 0, 0]	n/a	catFR1	0	R1114C
1123.396	3.861	565611	REC_END	n/a	n/a	n/a	n/a	-999	10	[0, 0, 0]	n/a	catFR1	0	R1114C
1127.257	0.0	567541	TRIAL	n/a	n/a	n/a	n/a	-999	11	[0, 0, 0]	n/a	catFR1	0	R1114C
1127.257	10.428	567541	COUNTDOWN_START	n/a	n/a	n/a	n/a	-999	11	[0, 0, 0]	n/a	catFR1	0	R1114C
1137.685	0.007	572755	COUNTDOWN_END	n/a	n/a	n/a	n/a	-999	11	[0, 0, 0]	n/a	catFR1	0	R1114C
1137.692	3.767	572758	ORIENT	n/a	n/a	n/a	n/a	-999	11	[0, 0, 0]	n/a	catFR1	0	R1114C
1141.459	2.601	574642	WORD	n/a	wordpools/wordpool_categorized_EN.txt	MOPED	Vehicles	1	11	[0, 0, 0]	n/a	catFR1	0	R1114C
1144.06	2.567	575942	WORD	n/a	wordpools/wordpool_categorized_EN.txt	PLANE	Vehicles	2	11	[0, 0, 0]	n/a	catFR1	0	R1114C
1146.627	2.5	577226	WORD	n/a	wordpools/wordpool_categorized_EN.txt	HAND	BodyParts	3	11	[0, 0, 0]	n/a	catFR1	0	R1114C
1149.127	2.551	578476	WORD	n/a	wordpools/wordpool_categorized_EN.txt	FINGERS	BodyParts	4	11	[0, 0, 0]	n/a	catFR1	0	R1114C
1151.678	2.467	579751	WORD	n/a	wordpools/wordpool_categorized_EN.txt	BED	Furniture	5	11	[0, 0, 0]	n/a	catFR1	0	R1114C
1154.145	2.551	580984	WORD	n/a	wordpools/wordpool_categorized_EN.txt	CHAIR	Furniture	6	11	[0, 0, 0]	n/a	catFR1	0	R1114C
1156.696	2.483	582260	WORD	n/a	wordpools/wordpool_categorized_EN.txt	BUS	Vehicles	7	11	[0, 0, 0]	n/a	catFR1	0	R1114C
1159.179	2.384	583501	WORD	n/a	wordpools/wordpool_categorized_EN.txt	VAN	Vehicles	8	11	[0, 0, 0]	n/a	catFR1	0	R1114C
1161.563	2.5	584693	WORD	n/a	wordpools/wordpool_categorized_EN.txt	NIGHTSTAND	Furniture	9	11	[0, 0, 0]	n/a	catFR1	0	R1114C
1164.063	2.451	585943	WORD	n/a	wordpools/wordpool_categorized_EN.txt	TABLE	Furniture	10	11	[0, 0, 0]	n/a	catFR1	0	R1114C
1166.514	2.452	587168	WORD	n/a	wordpools/wordpool_categorized_EN.txt	KNEE	BodyParts	11	11	[0, 0, 0]	n/a	catFR1	0	R1114C
1168.966	1.615	588394	WORD	n/a	wordpools/wordpool_categorized_EN.txt	TOE	BodyParts	12	11	[0, 0, 0]	n/a	catFR1	0	R1114C
1170.581	0.002	589202	DISTRACT_START	n/a	n/a	n/a	n/a	-999	11	[0, 0, 0]	n/a	catFR1	0	R1114C
1170.583	0.015	589203	START	n/a	n/a	n/a	n/a	-999	11	[-999, -999, -999]	n/a	catFR1	0	R1114C
1170.598	7.518	589210	PROB	7.518	n/a	n/a	n/a	-999	11	[6, 2, 8]	16	catFR1	0	R1114C
1178.116	7.085	592969	PROB	7.085	n/a	n/a	n/a	-999	11	[6, 9, 3]	18	catFR1	0	R1114C
1185.201	7.988	596511	PROB	7.988	n/a	n/a	n/a	-999	11	[4, 5, 8]	17	catFR1	0	R1114C
1193.189	0.013	600505	STOP	n/a	n/a	n/a	n/a	-999	11	[-999, -999, -999]	n/a	catFR1	0	R1114C
1193.202	1.102	600512	DISTRACT_END	n/a	n/a	n/a	n/a	-999	11	[0, 0, 0]	n/a	catFR1	0	R1114C
1194.304	4.189	601063	REC_START	n/a	n/a	n/a	n/a	-999	11	[0, 0, 0]	n/a	catFR1	0	R1114C
1198.493	2.277	603157	REC_WORD	2.277	n/a	NIGHTSTAND	Furniture	9	11	[0, 0, 0]	n/a	catFR1	0	R1114C
1200.77	3.037	604295	REC_WORD	3.037	n/a	CHAIR	Furniture	6	11	[0, 0, 0]	n/a	catFR1	0	R1114C
1203.807	3.22	605814	REC_WORD	3.22	n/a	BED	Furniture	5	11	[0, 0, 0]	n/a	catFR1	0	R1114C
1207.027	3.307	607424	REC_WORD	3.307	n/a	BUS	Vehicles	7	11	[0, 0, 0]	n/a	catFR1	0	R1114C
1210.334	13.982	609077	REC_WORD	13.982	n/a	VAN	Vehicles	8	11	[0, 0, 0]	n/a	catFR1	0	R1114C
1224.316	2.143	616067	REC_END	n/a	n/a	n/a	n/a	-999	11	[0, 0, 0]	n/a	catFR1	0	R1114C
1226.459	0.0	617139	TRIAL	n/a	n/a	n/a	n/a	-999	12	[0, 0, 0]	n/a	catFR1	0	R1114C
1226.459	10.428	617139	COUNTDOWN_START	n/a	n/a	n/a	n/a	-999	12	[0, 0, 0]	n/a	catFR1	0	R1114C
1236.887	0.008	622353	COUNTDOWN_END	n/a	n/a	n/a	n/a	-999	12	[0, 0, 0]	n/a	catFR1	0	R1114C
1236.895	3.616	622357	ORIENT	n/a	n/a	n/a	n/a	-999	12	[0, 0, 0]	n/a	catFR1	0	R1114C
1240.511	2.501	624164	WORD	n/a	wordpools/wordpool_categorized_EN.txt	FOLDER	OfficeSupplies	1	12	[0, 0, 0]	n/a	catFR1	0	R1114C
1243.012	2.417	625415	WORD	n/a	wordpools/wordpool_categorized_EN.txt	ERASER	OfficeSupplies	2	12	[0, 0, 0]	n/a	catFR1	0	R1114C
1245.429	2.451	626623	WORD	n/a	wordpools/wordpool_categorized_EN.txt	SUNFLOWER	Flowers	3	12	[0, 0, 0]	n/a	catFR1	0	R1114C
1247.88	2.566	627849	WORD	n/a	wordpools/wordpool_categorized_EN.txt	ORCHID	Flowers	4	12	[0, 0, 0]	n/a	catFR1	0	R1114C
1250.446	2.435	629132	WORD	n/a	wordpools/wordpool_categorized_EN.txt	BALL	Toys	5	12	[0, 0, 0]	n/a	catFR1	0	R1114C
1252.881	2.466	630349	WORD	n/a	wordpools/wordpool_categorized_EN.txt	BASKETBALL	Toys	6	12	[0, 0, 0]	n/a	catFR1	0	R1114C
1255.347	2.384	631582	WORD	n/a	wordpools/wordpool_categorized_EN.txt	DAFFODIL	Flowers	7	12	[0, 0, 0]	n/a	catFR1	0	R1114C
1257.731	2.417	632774	WORD	n/a	wordpools/wordpool_categorized_EN.txt	PETUNIA	Flowers	8	12	[0, 0, 0]	n/a	catFR1	0	R1114C
1260.148	2.567	633982	WORD	n/a	wordpools/wordpool_categorized_EN.txt	BINDER	OfficeSupplies	9	12	[0, 0, 0]	n/a	catFR1	0	R1114C
1262.715	2.551	635266	WORD	n/a	wordpools/wordpool_categorized_EN.txt	PENCIL	OfficeSupplies	10	12	[0, 0, 0]	n/a	catFR1	0	R1114C
1265.266	2.417	636541	WORD	n/a	wordpools/wordpool_categorized_EN.txt	BLOCKS	Toys	11	12	[0, 0, 0]	n/a	catFR1	0	R1114C
1267.683	1.617	637749	WORD	n/a	wordpools/wordpool_categorized_EN.txt	PUZZLE	Toys	12	12	[0, 0, 0]	n/a	catFR1	0	R1114C
1269.3	0.001	638558	DISTRACT_START	n/a	n/a	n/a	n/a	-999	12	[0, 0, 0]	n/a	catFR1	0	R1114C
1269.301	0.016	638558	START	n/a	n/a	n/a	n/a	-999	12	[-999, -999, -999]	n/a	catFR1	0	R1114C
1269.317	9.351	638566	PROB	9.351	n/a	n/a	n/a	-999	12	[9, 7, 5]	21	catFR1	0	R1114C
1278.668	3.601	643242	PROB	3.601	n/a	n/a	n/a	-999	12	[3, 4, 3]	10	catFR1	0	R1114C
1282.269	4.984	645042	PROB	4.984	n/a	n/a	n/a	-999	12	[5, 4, 6]	15	catFR1	0	R1114C
1287.253	2.633	647534	PROB	2.633	n/a	n/a	n/a	-999	12	[6, 6, 1]	13	catFR1	0	R1114C
1289.886	0.019	648850	STOP	n/a	n/a	n/a	n/a	-999	12	[-999, -999, -999]	n/a	catFR1	0	R1114C
1289.905	1.183	648860	DISTRACT_END	n/a	n/a	n/a	n/a	-999	12	[0, 0, 0]	n/a	catFR1	0	R1114C
1291.088	2.32	649451	REC_START	n/a	n/a	n/a	n/a	-999	12	[0, 0, 0]	n/a	catFR1	0	R1114C
1293.408	1.0	650611	REC_WORD	1.0	n/a	SUNFLOWER	Flowers	3	12	[0, 0, 0]	n/a	catFR1	0	R1114C
1294.408	1.123	651111	REC_WORD_VV	1.123	n/a	<>	n/a	-999	12	[0, 0, 0]	n/a	catFR1	0	R1114C
1295.531	2.115	651672	REC_WORD	2.115	n/a	DAFFODIL	Flowers	7	12	[0, 0, 0]	n/a	catFR1	0	R1114C
1297.646	2.051	652730	REC_WORD	2.051	n/a	PETUNIA	Flowers	8	12	[0, 0, 0]	n/a	catFR1	0	R1114C
1299.697	1.634	653755	REC_WORD	1.634	n/a	FOLDER	OfficeSupplies	1	12	[0, 0, 0]	n/a	catFR1	0	R1114C
1301.331	1.468	654572	REC_WORD	1.468	n/a	BINDER	OfficeSupplies	9	12	[0, 0, 0]	n/a	catFR1	0	R1114C
1302.799	18.3	655306	REC_WORD	18.3	n/a	ERASER	OfficeSupplies	2	12	[0, 0, 0]	n/a	catFR1	0	R1114C
1321.099	2.411	664456	REC_END	n/a	n/a	n/a	n/a	-999	12	[0, 0, 0]	n/a	catFR1	0	R1114C
1323.51	0.0	665661	TRIAL	n/a	n/a	n/a	n/a	-999	13	[0, 0, 0]	n/a	catFR1	0	R1114C
1323.51	10.428	665661	COUNTDOWN_START	n/a	n/a	n/a	n/a	-999	13	[0, 0, 0]	n/a	catFR1	0	R1114C
1333.938	0.008	670875	COUNTDOWN_END	n/a	n/a	n/a	n/a	-999	13	[0, 0, 0]	n/a	catFR1	0	R1114C
1333.946	3.7	670879	ORIENT	n/a	n/a	n/a	n/a	-999	13	[0, 0, 0]	n/a	catFR1	0	R1114C
1337.646	2.451	672729	WORD	n/a	wordpools/wordpool_categorized_EN.txt	BANJO	Instruments	1	13	[0, 0, 0]	n/a	catFR1	0	R1114C
1340.097	2.583	673954	WORD	n/a	wordpools/wordpool_categorized_EN.txt	VIOLIN	Instruments	2	13	[0, 0, 0]	n/a	catFR1	0	R1114C
1342.68	2.418	675245	WORD	n/a	wordpools/wordpool_categorized_EN.txt	FUDGE	Desserts	3	13	[0, 0, 0]	n/a	catFR1	0	R1114C
1345.098	2.483	676454	WORD	n/a	wordpools/wordpool_categorized_EN.txt	PASTRY	Desserts	4	13	[0, 0, 0]	n/a	catFR1	0	R1114C
1347.581	2.418	677696	WORD	n/a	wordpools/wordpool_categorized_EN.txt	LIME	Fruit	5	13	[0, 0, 0]	n/a	catFR1	0	R1114C
1349.999	2.55	678905	WORD	n/a	wordpools/wordpool_categorized_EN.txt	BANANA	Fruit	6	13	[0, 0, 0]	n/a	catFR1	0	R1114C
1352.549	2.617	680179	WORD	n/a	wordpools/wordpool_categorized_EN.txt	COBBLER	Desserts	7	13	[0, 0, 0]	n/a	catFR1	0	R1114C
1355.166	2.384	681488	WORD	n/a	wordpools/wordpool_categorized_EN.txt	CUPCAKE	Desserts	8	13	[0, 0, 0]	n/a	catFR1	0	R1114C
1357.55	2.401	682680	WORD	n/a	wordpools/wordpool_categorized_EN.txt	GUITAR	Instruments	9	13	[0, 0, 0]	n/a	catFR1	0	R1114C
1359.951	2.45	683880	WORD	n/a	wordpools/wordpool_categorized_EN.txt	BASS	Instruments	10	13	[0, 0, 0]	n/a	catFR1	0	R1114C
1362.401	2.6	685105	WORD	n/a	wordpools/wordpool_categorized_EN.txt	APPLE	Fruit	11	13	[0, 0, 0]	n/a	catFR1	0	R1114C
1365.001	1.617	686405	WORD	n/a	wordpools/wordpool_categorized_EN.txt	PEACH	Fruit	12	13	[0, 0, 0]	n/a	catFR1	0	R1114C
1366.618	0.001	687213	DISTRACT_START	n/a	n/a	n/a	n/a	-999	13	[0, 0, 0]	n/a	catFR1	0	R1114C
1366.619	0.016	687214	START	n/a	n/a	n/a	n/a	-999	13	[-999, -999, -999]	n/a	catFR1	0	R1114C
1366.635	4.285	687222	PROB	4.285	n/a	n/a	n/a	-999	13	[7, 3, 4]	14	catFR1	0	R1114C
1370.92	2.884	689364	PROB	2.884	n/a	n/a	n/a	-999	13	[1, 4, 3]	8	catFR1	0	R1114C
1373.804	5.9	690806	PROB	5.9	n/a	n/a	n/a	-999	13	[4, 8, 1]	13	catFR1	0	R1114C
1379.704	4.051	693756	PROB	4.051	n/a	n/a	n/a	-999	13	[6, 4, 6]	16	catFR1	0	R1114C
1383.755	3.474	695781	PROB	3.474	n/a	n/a	n/a	-999	13	[2, 9, 9]	20	catFR1	0	R1114C
1387.229	0.01	697518	STOP	n/a	n/a	n/a	n/a	-999	13	[-999, -999, -999]	n/a	catFR1	0	R1114C
1387.239	1.201	697523	DISTRACT_END	n/a	n/a	n/a	n/a	-999	13	[0, 0, 0]	n/a	catFR1	0	R1114C
1388.44	3.162	698124	REC_START	n/a	n/a	n/a	n/a	-999	13	[0, 0, 0]	n/a	catFR1	0	R1114C
1391.602	1.565	699705	REC_WORD	1.565	n/a	BANJO	Instruments	1	13	[0, 0, 0]	n/a	catFR1	0	R1114C
1393.167	1.894	700487	REC_WORD	1.894	n/a	DRUM	n/a	-999	13	[0, 0, 0]	n/a	catFR1	0	R1114C
1395.061	7.83	701434	REC_WORD	7.83	n/a	APPLE	Fruit	11	13	[0, 0, 0]	n/a	catFR1	0	R1114C
1402.891	15.569	705349	REC_WORD	15.569	n/a	GUITAR	Instruments	9	13	[0, 0, 0]	n/a	catFR1	0	R1114C
1418.46	166.933	713133	REC_END	n/a	n/a	n/a	n/a	-999	13	[0, 0, 0]	n/a	catFR1	0	R1114C
1585.393	0.0	796593	TRIAL	n/a	n/a	n/a	n/a	-999	14	[0, 0, 0]	n/a	catFR1	0	R1114C
1585.393	10.428	796593	COUNTDOWN_START	n/a	n/a	n/a	n/a	-999	14	[0, 0, 0]	n/a	catFR1	0	R1114C
1595.821	0.008	801807	COUNTDOWN_END	n/a	n/a	n/a	n/a	-999	14	[0, 0, 0]	n/a	catFR1	0	R1114C
1595.829	3.766	801811	ORIENT	n/a	n/a	n/a	n/a	-999	14	[0, 0, 0]	n/a	catFR1	0	R1114C
1599.595	2.568	803694	WORD	n/a	wordpools/wordpool_categorized_EN.txt	CAR	Vehicles	1	14	[0, 0, 0]	n/a	catFR1	0	R1114C
1602.163	2.5	804978	WORD	n/a	wordpools/wordpool_categorized_EN.txt	MOTORCYCLE	Vehicles	2	14	[0, 0, 0]	n/a	catFR1	0	R1114C
1604.663	2.517	806228	WORD	n/a	wordpools/wordpool_categorized_EN.txt	BLOUSE	Clothing	3	14	[0, 0, 0]	n/a	catFR1	0	R1114C
1607.18	2.417	807486	WORD	n/a	wordpools/wordpool_categorized_EN.txt	SHIRT	Clothing	4	14	[0, 0, 0]	n/a	catFR1	0	R1114C
1609.597	2.617	808695	WORD	n/a	wordpools/wordpool_categorized_EN.txt	SPEAKER	Electronics	5	14	[0, 0, 0]	n/a	catFR1	0	R1114C
1612.214	2.568	810003	WORD	n/a	wordpools/wordpool_categorized_EN.txt	COMPUTER	Electronics	6	14	[0, 0, 0]	n/a	catFR1	0	R1114C
1614.782	2.5	811287	WORD	n/a	wordpools/wordpool_categorized_EN.txt	DRESS	Clothing	7	14	[0, 0, 0]	n/a	catFR1	0	R1114C
1617.282	2.5	812537	WORD	n/a	wordpools/wordpool_categorized_EN.txt	PANTS	Clothing	8	14	[0, 0, 0]	n/a	catFR1	0	R1114C
1619.782	2.534	813787	WORD	n/a	wordpools/wordpool_categorized_EN.txt	BOAT	Vehicles	9	14	[0, 0, 0]	n/a	catFR1	0	R1114C
1622.316	2.518	815054	WORD	n/a	wordpools/wordpool_categorized_EN.txt	SCOOTER	Vehicles	10	14	[0, 0, 0]	n/a	catFR1	0	R1114C
1624.834	2.55	816312	WORD	n/a	wordpools/wordpool_categorized_EN.txt	PRINTER	Electronics	11	14	[0, 0, 0]	n/a	catFR1	0	R1114C
1627.384	1.601	817587	WORD	n/a	wordpools/wordpool_categorized_EN.txt	SCANNER	Electronics	12	14	[0, 0, 0]	n/a	catFR1	0	R1114C
1628.985	0.001	818388	DISTRACT_START	n/a	n/a	n/a	n/a	-999	14	[0, 0, 0]	n/a	catFR1	0	R1114C
1628.986	0.015	818388	START	n/a	n/a	n/a	n/a	-999	14	[-999, -999, -999]	n/a	catFR1	0	R1114C
1629.001	3.952	818396	PROB	3.952	n/a	n/a	n/a	-999	14	[7, 3, 7]	15	catFR1	0	R1114C
1632.953	4.416	820372	PROB	4.416	n/a	n/a	n/a	-999	14	[6, 2, 6]	14	catFR1	0	R1114C
1637.369	4.585	822580	PROB	4.585	n/a	n/a	n/a	-999	14	[5, 9, 2]	16	catFR1	0	R1114C
1641.954	2.5	824872	PROB	2.5	n/a	n/a	n/a	-999	14	[2, 1, 3]	6	catFR1	0	R1114C
1644.454	3.284	826122	PROB	3.284	n/a	n/a	n/a	-999	14	[2, 9, 6]	17	catFR1	0	R1114C
1647.738	4.291	827764	PROB	4.291	n/a	n/a	n/a	-999	14	[3, 7, 2]	12	catFR1	0	R1114C
1652.029	0.01	829909	STOP	n/a	n/a	n/a	n/a	-999	14	[-999, -999, -999]	n/a	catFR1	0	R1114C
1652.039	1.1	829914	DISTRACT_END	n/a	n/a	n/a	n/a	-999	14	[0, 0, 0]	n/a	catFR1	0	R1114C
1653.139	3.116	830464	REC_START	n/a	n/a	n/a	n/a	-999	14	[0, 0, 0]	n/a	catFR1	0	R1114C
1656.255	1.849	832022	REC_WORD	1.849	n/a	CAR	Vehicles	1	14	[0, 0, 0]	n/a	catFR1	0	R1114C
1658.104	4.139	832946	REC_WORD	4.139	n/a	MOTORCYCLE	Vehicles	2	14	[0, 0, 0]	n/a	catFR1	0	R1114C
1662.243	0.906	835016	REC_WORD	0.906	n/a	BOAT	Vehicles	9	14	[0, 0, 0]	n/a	catFR1	0	R1114C
1663.149	7.68	835469	REC_WORD	7.68	n/a	SCOOTER	Vehicles	10	14	[0, 0, 0]	n/a	catFR1	0	R1114C
1670.829	3.395	839308	REC_WORD	3.395	n/a	BLOUSE	Clothing	3	14	[0, 0, 0]	n/a	catFR1	0	R1114C
1674.224	1.388	841006	REC_WORD	1.388	n/a	SHIRT	Clothing	4	14	[0, 0, 0]	n/a	catFR1	0	R1114C
1675.612	0.872	841700	REC_WORD	0.872	n/a	DRESS	Clothing	7	14	[0, 0, 0]	n/a	catFR1	0	R1114C
1676.484	6.67	842136	REC_WORD	6.67	n/a	PANTS	Clothing	8	14	[0, 0, 0]	n/a	catFR1	0	R1114C
1683.154	1.991	845470	REC_END	n/a	n/a	n/a	n/a	-999	14	[0, 0, 0]	n/a	catFR1	0	R1114C
1685.145	0.0	846466	TRIAL	n/a	n/a	n/a	n/a	-999	15	[0, 0, 0]	n/a	catFR1	0	R1114C
1685.145	10.428	846466	COUNTDOWN_START	n/a	n/a	n/a	n/a	-999	15	[0, 0, 0]	n/a	catFR1	0	R1114C
1695.573	0.007	851680	COUNTDOWN_END	n/a	n/a	n/a	n/a	-999	15	[0, 0, 0]	n/a	catFR1	0	R1114C
1695.58	3.617	851683	ORIENT	n/a	n/a	n/a	n/a	-999	15	[0, 0, 0]	n/a	catFR1	0	R1114C
1699.197	2.551	853491	WORD	n/a	wordpools/wordpool_categorized_EN.txt	CHEESECAKE	Desserts	1	15	[0, 0, 0]	n/a	catFR1	0	R1114C
1701.748	2.4	854767	WORD	n/a	wordpools/wordpool_categorized_EN.txt	MOUSSE	Desserts	2	15	[0, 0, 0]	n/a	catFR1	0	R1114C
1704.148	2.401	855967	WORD	n/a	wordpools/wordpool_categorized_EN.txt	FORK	KitchenTools	3	15	[0, 0, 0]	n/a	catFR1	0	R1114C
1706.549	2.617	857167	WORD	n/a	wordpools/wordpool_categorized_EN.txt	WHISK	KitchenTools	4	15	[0, 0, 0]	n/a	catFR1	0	R1114C
1709.166	2.434	858476	WORD	n/a	wordpools/wordpool_categorized_EN.txt	PIG	FarmAnimals	5	15	[0, 0, 0]	n/a	catFR1	0	R1114C
1711.6	2.517	859692	WORD	n/a	wordpools/wordpool_categorized_EN.txt	BULL	FarmAnimals	6	15	[0, 0, 0]	n/a	catFR1	0	R1114C
1714.117	2.534	860951	WORD	n/a	wordpools/wordpool_categorized_EN.txt	STRAINER	KitchenTools	7	15	[0, 0, 0]	n/a	catFR1	0	R1114C
1716.651	2.567	862218	WORD	n/a	wordpools/wordpool_categorized_EN.txt	SPOON	KitchenTools	8	15	[0, 0, 0]	n/a	catFR1	0	R1114C
1719.218	2.4	863501	WORD	n/a	wordpools/wordpool_categorized_EN.txt	CAKE	Desserts	9	15	[0, 0, 0]	n/a	catFR1	0	R1114C
1721.618	2.567	864701	WORD	n/a	wordpools/wordpool_categorized_EN.txt	JELLO	Desserts	10	15	[0, 0, 0]	n/a	catFR1	0	R1114C
1724.185	2.518	865985	WORD	n/a	wordpools/wordpool_categorized_EN.txt	TURKEY	FarmAnimals	11	15	[0, 0, 0]	n/a	catFR1	0	R1114C
1726.703	1.617	867243	WORD	n/a	wordpools/wordpool_categorized_EN.txt	COW	FarmAnimals	12	15	[0, 0, 0]	n/a	catFR1	0	R1114C
1728.32	0.001	868052	DISTRACT_START	n/a	n/a	n/a	n/a	-999	15	[0, 0, 0]	n/a	catFR1	0	R1114C
1728.321	0.015	868052	START	n/a	n/a	n/a	n/a	-999	15	[-999, -999, -999]	n/a	catFR1	0	R1114C
1728.336	6.636	868060	PROB	6.636	n/a	n/a	n/a	-999	15	[8, 9, 5]	22	catFR1	0	R1114C
1734.972	2.649	871378	PROB	2.649	n/a	n/a	n/a	-999	15	[6, 2, 6]	14	catFR1	0	R1114C
1737.621	2.884	872702	PROB	2.884	n/a	n/a	n/a	-999	15	[2, 3, 3]	8	catFR1	0	R1114C
1740.505	3.369	874144	PROB	3.369	n/a	n/a	n/a	-999	15	[1, 3, 5]	9	catFR1	0	R1114C
1743.874	4.883	875828	PROB	4.883	n/a	n/a	n/a	-999	15	[9, 7, 5]	21	catFR1	0	R1114C
1748.757	0.016	878270	STOP	n/a	n/a	n/a	n/a	-999	15	[-999, -999, -999]	n/a	catFR1	0	R1114C
1748.773	1.103	878278	DISTRACT_END	n/a	n/a	n/a	n/a	-999	15	[0, 0, 0]	n/a	catFR1	0	R1114C
1749.876	5.585	878829	REC_START	n/a	n/a	n/a	n/a	-999	15	[0, 0, 0]	n/a	catFR1	0	R1114C
1755.461	1.265	881621	REC_WORD	1.265	n/a	CHEESECAKE	Desserts	1	15	[0, 0, 0]	n/a	catFR1	0	R1114C
1756.726	1.691	882254	REC_WORD	1.691	n/a	MOUSSE	Desserts	2	15	[0, 0, 0]	n/a	catFR1	0	R1114C
1758.417	1.489	883099	REC_WORD	1.489	n/a	FORK	KitchenTools	3	15	[0, 0, 0]	n/a	catFR1	0	R1114C
1759.906	1.315	883844	REC_WORD	1.315	n/a	WHISK	KitchenTools	4	15	[0, 0, 0]	n/a	catFR1	0	R1114C
1761.221	1.572	884501	REC_WORD	1.572	n/a	TURKEY	FarmAnimals	11	15	[0, 0, 0]	n/a	catFR1	0	R1114C
1762.793	13.344	885287	REC_WORD	13.344	n/a	COW	FarmAnimals	12	15	[0, 0, 0]	n/a	catFR1	0	R1114C
1776.137	3.75	891959	REC_WORD	3.75	n/a	FUDGE	n/a	-999	15	[0, 0, 0]	n/a	catFR1	0	R1114C
1779.887	1.977	893834	REC_END	n/a	n/a	n/a	n/a	-999	15	[0, 0, 0]	n/a	catFR1	0	R1114C
1781.864	0.0	894822	COUNTDOWN_START	n/a	n/a	n/a	n/a	-999	16	[0, 0, 0]	n/a	catFR1	0	R1114C
1781.864	10.428	894822	TRIAL	n/a	n/a	n/a	n/a	-999	16	[0, 0, 0]	n/a	catFR1	0	R1114C
1792.292	0.006	900036	COUNTDOWN_END	n/a	n/a	n/a	n/a	-999	16	[0, 0, 0]	n/a	catFR1	0	R1114C
1792.298	3.569	900039	ORIENT	n/a	n/a	n/a	n/a	-999	16	[0, 0, 0]	n/a	catFR1	0	R1114C
1795.867	2.449	901823	WORD	n/a	wordpools/wordpool_categorized_EN.txt	HILLS	Landscapes	1	16	[0, 0, 0]	n/a	catFR1	0	R1114C
1798.316	2.434	903047	WORD	n/a	wordpools/wordpool_categorized_EN.txt	RIVER	Landscapes	2	16	[0, 0, 0]	n/a	catFR1	0	R1114C
1800.75	2.5	904264	WORD	n/a	wordpools/wordpool_categorized_EN.txt	ROOM	Building	3	16	[0, 0, 0]	n/a	catFR1	0	R1114C
1803.25	2.484	905514	WORD	n/a	wordpools/wordpool_categorized_EN.txt	HALLWAY	Building	4	16	[0, 0, 0]	n/a	catFR1	0	R1114C
1805.734	2.567	906756	WORD	n/a	wordpools/wordpool_categorized_EN.txt	MILK	Beverages	5	16	[0, 0, 0]	n/a	catFR1	0	R1114C
1808.301	2.467	908040	WORD	n/a	wordpools/wordpool_categorized_EN.txt	BEER	Beverages	6	16	[0, 0, 0]	n/a	catFR1	0	R1114C
1810.768	2.501	909273	WORD	n/a	wordpools/wordpool_categorized_EN.txt	VALLEY	Landscapes	7	16	[0, 0, 0]	n/a	catFR1	0	R1114C
1813.269	2.585	910523	WORD	n/a	wordpools/wordpool_categorized_EN.txt	MOUNTAIN	Landscapes	8	16	[0, 0, 0]	n/a	catFR1	0	R1114C
1815.854	2.416	911816	WORD	n/a	wordpools/wordpool_categorized_EN.txt	COLA	Beverages	9	16	[0, 0, 0]	n/a	catFR1	0	R1114C
1818.27	2.5	913024	WORD	n/a	wordpools/wordpool_categorized_EN.txt	CIDER	Beverages	10	16	[0, 0, 0]	n/a	catFR1	0	R1114C
1820.77	2.601	914274	WORD	n/a	wordpools/wordpool_categorized_EN.txt	CEILING	Building	11	16	[0, 0, 0]	n/a	catFR1	0	R1114C
1823.371	1.618	915574	WORD	n/a	wordpools/wordpool_categorized_EN.txt	DOOR	Building	12	16	[0, 0, 0]	n/a	catFR1	0	R1114C
1824.989	0.001	916383	DISTRACT_START	n/a	n/a	n/a	n/a	-999	16	[0, 0, 0]	n/a	catFR1	0	R1114C
1824.99	0.014	916384	START	n/a	n/a	n/a	n/a	-999	16	[-999, -999, -999]	n/a	catFR1	0	R1114C
1825.004	6.518	916391	PROB	6.518	n/a	n/a	n/a	-999	16	[8, 4, 2]	14	catFR1	0	R1114C
1831.522	7.802	919649	PROB	7.802	n/a	n/a	n/a	-999	16	[5, 6, 5]	16	catFR1	0	R1114C
1839.324	2.535	923550	PROB	2.535	n/a	n/a	n/a	-999	16	[1, 4, 5]	10	catFR1	0	R1114C
1841.859	3.033	924817	PROB	3.033	n/a	n/a	n/a	-999	16	[3, 4, 4]	11	catFR1	0	R1114C
1844.892	3.161	926334	PROB	3.161	n/a	n/a	n/a	-999	16	[6, 1, 1]	8	catFR1	0	R1114C
1848.053	0.006	927914	STOP	n/a	n/a	n/a	n/a	-999	16	[-999, -999, -999]	n/a	catFR1	0	R1114C
1848.059	1.051	927917	DISTRACT_END	n/a	n/a	n/a	n/a	-999	16	[0, 0, 0]	n/a	catFR1	0	R1114C
1849.11	30.0	928443	REC_START	n/a	n/a	n/a	n/a	-999	16	[0, 0, 0]	n/a	catFR1	0	R1114C
1879.11	0.011	943442	REC_WORD_VV	0.011	n/a	<>	n/a	-999	16	[0, 0, 0]	n/a	catFR1	0	R1114C
1879.121	2.127	943447	REC_END	n/a	n/a	n/a	n/a	-999	16	[0, 0, 0]	n/a	catFR1	0	R1114C
1881.248	0.0	944511	COUNTDOWN_START	n/a	n/a	n/a	n/a	-999	17	[0, 0, 0]	n/a	catFR1	0	R1114C
1881.248	10.428	944511	TRIAL	n/a	n/a	n/a	n/a	-999	17	[0, 0, 0]	n/a	catFR1	0	R1114C
1891.676	0.008	949724	COUNTDOWN_END	n/a	n/a	n/a	n/a	-999	17	[0, 0, 0]	n/a	catFR1	0	R1114C
1891.684	3.85	949728	ORIENT	n/a	n/a	n/a	n/a	-999	17	[0, 0, 0]	n/a	catFR1	0	R1114C
1895.534	2.601	951653	WORD	n/a	wordpools/wordpool_categorized_EN.txt	LION	Zoo	1	17	[0, 0, 0]	n/a	catFR1	0	R1114C
1898.135	2.6	952953	WORD	n/a	wordpools/wordpool_categorized_EN.txt	BEAR	Zoo	2	17	[0, 0, 0]	n/a	catFR1	0	R1114C
1900.735	2.467	954253	WORD	n/a	wordpools/wordpool_categorized_EN.txt	MICROWAVE	Electronics	3	17	[0, 0, 0]	n/a	catFR1	0	R1114C
1903.202	2.434	955487	WORD	n/a	wordpools/wordpool_categorized_EN.txt	TELEVISION	Electronics	4	17	[0, 0, 0]	n/a	catFR1	0	R1114C
1905.636	2.467	956704	WORD	n/a	wordpools/wordpool_categorized_EN.txt	ROOSTER	FarmAnimals	5	17	[0, 0, 0]	n/a	catFR1	0	R1114C
1908.103	2.601	957937	WORD	n/a	wordpools/wordpool_categorized_EN.txt	CHICKEN	FarmAnimals	6	17	[0, 0, 0]	n/a	catFR1	0	R1114C
1910.704	2.5	959238	WORD	n/a	wordpools/wordpool_categorized_EN.txt	TIGER	Zoo	7	17	[0, 0, 0]	n/a	catFR1	0	R1114C
1913.204	2.534	960487	WORD	n/a	wordpools/wordpool_categorized_EN.txt	GIRAFFE	Zoo	8	17	[0, 0, 0]	n/a	catFR1	0	R1114C
1915.738	2.434	961754	WORD	n/a	wordpools/wordpool_categorized_EN.txt	HEN	FarmAnimals	9	17	[0, 0, 0]	n/a	catFR1	0	R1114C
1918.172	2.517	962971	WORD	n/a	wordpools/wordpool_categorized_EN.txt	SHEEP	FarmAnimals	10	17	[0, 0, 0]	n/a	catFR1	0	R1114C
1920.689	2.617	964230	WORD	n/a	wordpools/wordpool_categorized_EN.txt	HEADPHONES	Electronics	11	17	[0, 0, 0]	n/a	catFR1	0	R1114C
1923.306	1.601	965538	WORD	n/a	wordpools/wordpool_categorized_EN.txt	PHONE	Electronics	12	17	[0, 0, 0]	n/a	catFR1	0	R1114C
1924.907	0.001	966339	DISTRACT_START	n/a	n/a	n/a	n/a	-999	17	[0, 0, 0]	n/a	catFR1	0	R1114C
1924.908	0.016	966339	START	n/a	n/a	n/a	n/a	-999	17	[-999, -999, -999]	n/a	catFR1	0	R1114C
1924.924	6.935	966347	PROB	6.935	n/a	n/a	n/a	-999	17	[9, 6, 7]	22	catFR1	0	R1114C
1931.859	3.183	969814	PROB	3.183	n/a	n/a	n/a	-999	17	[4, 6, 2]	12	catFR1	0	R1114C
1935.042	4.667	971406	PROB	4.667	n/a	n/a	n/a	-999	17	[4, 8, 6]	18	catFR1	0	R1114C
1939.709	5.344	973739	PROB	5.344	n/a	n/a	n/a	-999	17	[8, 7, 7]	22	catFR1	0	R1114C
1945.053	0.007	976411	STOP	n/a	n/a	n/a	n/a	-999	17	[-999, -999, -999]	n/a	catFR1	0	R1114C
1945.06	1.035	976414	DISTRACT_END	n/a	n/a	n/a	n/a	-999	17	[0, 0, 0]	n/a	catFR1	0	R1114C
1946.095	1.582	976932	REC_START	n/a	n/a	n/a	n/a	-999	17	[0, 0, 0]	n/a	catFR1	0	R1114C
1947.677	2.562	977723	REC_WORD	2.562	n/a	ROOSTER	FarmAnimals	5	17	[0, 0, 0]	n/a	catFR1	0	R1114C
1950.239	25.867	979004	REC_WORD	25.867	n/a	CHICKEN	FarmAnimals	6	17	[0, 0, 0]	n/a	catFR1	0	R1114C
1976.106	2.194	991936	REC_END	n/a	n/a	n/a	n/a	-999	17	[0, 0, 0]	n/a	catFR1	0	R1114C
1978.3	0.0	993033	TRIAL	n/a	n/a	n/a	n/a	-999	18	[0, 0, 0]	n/a	catFR1	0	R1114C
1978.3	10.428	993033	COUNTDOWN_START	n/a	n/a	n/a	n/a	-999	18	[0, 0, 0]	n/a	catFR1	0	R1114C
1988.728	0.007	998247	COUNTDOWN_END	n/a	n/a	n/a	n/a	-999	18	[0, 0, 0]	n/a	catFR1	0	R1114C
1988.735	3.668	998250	ORIENT	n/a	n/a	n/a	n/a	-999	18	[0, 0, 0]	n/a	catFR1	0	R1114C
1992.403	2.418	1000084	WORD	n/a	wordpools/wordpool_categorized_EN.txt	SPATULA	KitchenTools	1	18	[0, 0, 0]	n/a	catFR1	0	R1114C
1994.821	2.482	1001293	WORD	n/a	wordpools/wordpool_categorized_EN.txt	CORKSCREW	KitchenTools	2	18	[0, 0, 0]	n/a	catFR1	0	R1114C
1997.303	2.468	1002534	WORD	n/a	wordpools/wordpool_categorized_EN.txt	BOOKCASE	Furniture	3	18	[0, 0, 0]	n/a	catFR1	0	R1114C
1999.771	2.383	1003768	WORD	n/a	wordpools/wordpool_categorized_EN.txt	CABINET	Furniture	4	18	[0, 0, 0]	n/a	catFR1	0	R1114C
2002.154	2.484	1004959	WORD	n/a	wordpools/wordpool_categorized_EN.txt	TORNADO	Weather	5	18	[0, 0, 0]	n/a	catFR1	0	R1114C
2004.638	2.551	1006201	WORD	n/a	wordpools/wordpool_categorized_EN.txt	CLOUD	Weather	6	18	[0, 0, 0]	n/a	catFR1	0	R1114C
2007.189	2.483	1007477	WORD	n/a	wordpools/wordpool_categorized_EN.txt	RECLINER	Furniture	7	18	[0, 0, 0]	n/a	catFR1	0	R1114C
2009.672	2.468	1008718	WORD	n/a	wordpools/wordpool_categorized_EN.txt	SHELF	Furniture	8	18	[0, 0, 0]	n/a	catFR1	0	R1114C
2012.14	2.55	1009952	WORD	n/a	wordpools/wordpool_categorized_EN.txt	TONGS	KitchenTools	9	18	[0, 0, 0]	n/a	catFR1	0	R1114C
2014.69	2.401	1011227	WORD	n/a	wordpools/wordpool_categorized_EN.txt	KNIFE	KitchenTools	10	18	[0, 0, 0]	n/a	catFR1	0	R1114C
2017.091	2.467	1012427	WORD	n/a	wordpools/wordpool_categorized_EN.txt	LIGHTNING	Weather	11	18	[0, 0, 0]	n/a	catFR1	0	R1114C
2019.558	1.617	1013661	WORD	n/a	wordpools/wordpool_categorized_EN.txt	DRIZZLE	Weather	12	18	[0, 0, 0]	n/a	catFR1	0	R1114C
2021.175	0.001	1014469	DISTRACT_START	n/a	n/a	n/a	n/a	-999	18	[0, 0, 0]	n/a	catFR1	0	R1114C
2021.176	0.015	1014470	START	n/a	n/a	n/a	n/a	-999	18	[-999, -999, -999]	n/a	catFR1	0	R1114C
2021.191	7.669	1014477	PROB	7.669	n/a	n/a	n/a	-999	18	[6, 1, 3]	10	catFR1	0	R1114C
2028.86	7.284	1018311	PROB	7.284	n/a	n/a	n/a	-999	18	[5, 9, 5]	19	catFR1	0	R1114C
2036.144	3.117	1021953	PROB	3.117	n/a	n/a	n/a	-999	18	[2, 3, 9]	14	catFR1	0	R1114C
2039.261	2.92	1023512	PROB	2.92	n/a	n/a	n/a	-999	18	[7, 1, 7]	15	catFR1	0	R1114C
2042.181	0.014	1024971	STOP	n/a	n/a	n/a	n/a	-999	18	[-999, -999, -999]	n/a	catFR1	0	R1114C
2042.195	1.084	1024978	DISTRACT_END	n/a	n/a	n/a	n/a	-999	18	[0, 0, 0]	n/a	catFR1	0	R1114C
2043.279	1.807	1025520	REC_START	n/a	n/a	n/a	n/a	-999	18	[0, 0, 0]	n/a	catFR1	0	R1114C
2045.086	1.0	1026424	REC_WORD	1.0	n/a	SPATULA	KitchenTools	1	18	[0, 0, 0]	n/a	catFR1	0	R1114C
2046.086	1.95	1026924	REC_WORD_VV	1.95	n/a	<>	n/a	-999	18	[0, 0, 0]	n/a	catFR1	0	R1114C
2048.036	1.627	1027899	REC_WORD	1.627	n/a	TORNADO	Weather	5	18	[0, 0, 0]	n/a	catFR1	0	R1114C
2049.663	3.982	1028712	REC_WORD	3.982	n/a	DRIZZLE	Weather	12	18	[0, 0, 0]	n/a	catFR1	0	R1114C
2053.645	1.846	1030703	REC_WORD	1.846	n/a	THUNDER	n/a	-999	18	[0, 0, 0]	n/a	catFR1	0	R1114C
2055.491	13.328	1031626	REC_WORD	13.328	n/a	LIGHTNING	Weather	11	18	[0, 0, 0]	n/a	catFR1	0	R1114C
2068.819	4.475	1038289	REC_WORD	4.475	n/a	BOOKCASE	Furniture	3	18	[0, 0, 0]	n/a	catFR1	0	R1114C
2073.294	4.091	1040527	REC_END	n/a	n/a	n/a	n/a	-999	18	[0, 0, 0]	n/a	catFR1	0	R1114C
2077.385	0.0	1042572	TRIAL	n/a	n/a	n/a	n/a	-999	19	[0, 0, 0]	n/a	catFR1	0	R1114C
2077.385	10.428	1042572	COUNTDOWN_START	n/a	n/a	n/a	n/a	-999	19	[0, 0, 0]	n/a	catFR1	0	R1114C
2087.813	0.008	1047786	COUNTDOWN_END	n/a	n/a	n/a	n/a	-999	19	[0, 0, 0]	n/a	catFR1	0	R1114C
2087.821	3.6	1047790	ORIENT	n/a	n/a	n/a	n/a	-999	19	[0, 0, 0]	n/a	catFR1	0	R1114C
2091.421	2.552	1049590	WORD	n/a	wordpools/wordpool_categorized_EN.txt	RADIO	Electronics	1	19	[0, 0, 0]	n/a	catFR1	0	R1114C
2093.973	2.382	1050866	WORD	n/a	wordpools/wordpool_categorized_EN.txt	TABLET	Electronics	2	19	[0, 0, 0]	n/a	catFR1	0	R1114C
2096.355	2.384	1052057	WORD	n/a	wordpools/wordpool_categorized_EN.txt	TURTLE	OceanAnimals	3	19	[0, 0, 0]	n/a	catFR1	0	R1114C
2098.739	2.584	1053248	WORD	n/a	wordpools/wordpool_categorized_EN.txt	SQUID	OceanAnimals	4	19	[0, 0, 0]	n/a	catFR1	0	R1114C
2101.323	2.384	1054540	WORD	n/a	wordpools/wordpool_categorized_EN.txt	SPIDER	Insects	5	19	[0, 0, 0]	n/a	catFR1	0	R1114C
2103.707	2.5	1055732	WORD	n/a	wordpools/wordpool_categorized_EN.txt	ANT	Insects	6	19	[0, 0, 0]	n/a	catFR1	0	R1114C
2106.207	2.484	1056982	WORD	n/a	wordpools/wordpool_categorized_EN.txt	LOBSTER	OceanAnimals	7	19	[0, 0, 0]	n/a	catFR1	0	R1114C
2108.691	2.5	1058224	WORD	n/a	wordpools/wordpool_categorized_EN.txt	DOLPHIN	OceanAnimals	8	19	[0, 0, 0]	n/a	catFR1	0	R1114C
2111.191	2.418	1059474	WORD	n/a	wordpools/wordpool_categorized_EN.txt	STEREO	Electronics	9	19	[0, 0, 0]	n/a	catFR1	0	R1114C
2113.609	2.483	1060683	WORD	n/a	wordpools/wordpool_categorized_EN.txt	CALCULATOR	Electronics	10	19	[0, 0, 0]	n/a	catFR1	0	R1114C
2116.092	2.401	1061924	WORD	n/a	wordpools/wordpool_categorized_EN.txt	CRICKET	Insects	11	19	[0, 0, 0]	n/a	catFR1	0	R1114C
2118.493	1.617	1063125	WORD	n/a	wordpools/wordpool_categorized_EN.txt	LADYBUG	Insects	12	19	[0, 0, 0]	n/a	catFR1	0	R1114C
2120.11	0.001	1063933	DISTRACT_START	n/a	n/a	n/a	n/a	-999	19	[0, 0, 0]	n/a	catFR1	0	R1114C
2120.111	0.015	1063934	START	n/a	n/a	n/a	n/a	-999	19	[-999, -999, -999]	n/a	catFR1	0	R1114C
2120.126	4.501	1063941	PROB	4.501	n/a	n/a	n/a	-999	19	[3, 6, 8]	17	catFR1	0	R1114C
2124.627	2.684	1066192	PROB	2.684	n/a	n/a	n/a	-999	19	[1, 9, 9]	19	catFR1	0	R1114C
2127.311	4.502	1067533	PROB	4.502	n/a	n/a	n/a	-999	19	[4, 9, 5]	18	catFR1	0	R1114C
2131.813	3.666	1069784	PROB	3.666	n/a	n/a	n/a	-999	19	[4, 1, 7]	12	catFR1	0	R1114C
2135.479	2.968	1071617	PROB	2.968	n/a	n/a	n/a	-999	19	[5, 3, 2]	10	catFR1	0	R1114C
2138.447	2.286	1073101	PROB	2.286	n/a	n/a	n/a	-999	19	[1, 1, 1]	3	catFR1	0	R1114C
2140.733	0.014	1074244	STOP	n/a	n/a	n/a	n/a	-999	19	[-999, -999, -999]	n/a	catFR1	0	R1114C
2140.747	1.185	1074251	DISTRACT_END	n/a	n/a	n/a	n/a	-999	19	[0, 0, 0]	n/a	catFR1	0	R1114C
2141.932	3.514	1074843	REC_START	n/a	n/a	n/a	n/a	-999	19	[0, 0, 0]	n/a	catFR1	0	R1114C
2145.446	1.597	1076600	REC_WORD	1.597	n/a	ANT	Insects	6	19	[0, 0, 0]	n/a	catFR1	0	R1114C
2147.043	1.486	1077399	REC_WORD	1.486	n/a	CRICKET	Insects	11	19	[0, 0, 0]	n/a	catFR1	0	R1114C
2148.529	23.418	1078142	REC_WORD	23.418	n/a	SPIDER	Insects	5	19	[0, 0, 0]	n/a	catFR1	0	R1114C
2171.947	3.173	1089850	REC_END	n/a	n/a	n/a	n/a	-999	19	[0, 0, 0]	n/a	catFR1	0	R1114C
2175.12	0.0	1091436	COUNTDOWN_START	n/a	n/a	n/a	n/a	-999	20	[0, 0, 0]	n/a	catFR1	0	R1114C
2175.12	10.428	1091436	TRIAL	n/a	n/a	n/a	n/a	-999	20	[0, 0, 0]	n/a	catFR1	0	R1114C
2185.548	0.008	1096650	COUNTDOWN_END	n/a	n/a	n/a	n/a	-999	20	[0, 0, 0]	n/a	catFR1	0	R1114C
2185.556	3.7	1096654	ORIENT	n/a	n/a	n/a	n/a	-999	20	[0, 0, 0]	n/a	catFR1	0	R1114C
2189.256	2.401	1098504	WORD	n/a	wordpools/wordpool_categorized_EN.txt	COLANDER	KitchenTools	1	20	[0, 0, 0]	n/a	catFR1	0	R1114C
2191.657	2.45	1099704	WORD	n/a	wordpools/wordpool_categorized_EN.txt	PEELER	KitchenTools	2	20	[0, 0, 0]	n/a	catFR1	0	R1114C
2194.107	2.517	1100929	WORD	n/a	wordpools/wordpool_categorized_EN.txt	TUBA	Instruments	3	20	[0, 0, 0]	n/a	catFR1	0	R1114C
2196.624	2.384	1102188	WORD	n/a	wordpools/wordpool_categorized_EN.txt	TRUMPET	Instruments	4	20	[0, 0, 0]	n/a	catFR1	0	R1114C
2199.008	2.401	1103379	WORD	n/a	wordpools/wordpool_categorized_EN.txt	FISH	OceanAnimals	5	20	[0, 0, 0]	n/a	catFR1	0	R1114C
2201.409	2.384	1104580	WORD	n/a	wordpools/wordpool_categorized_EN.txt	OYSTER	OceanAnimals	6	20	[0, 0, 0]	n/a	catFR1	0	R1114C
2203.793	2.4	1105772	WORD	n/a	wordpools/wordpool_categorized_EN.txt	GRATER	KitchenTools	7	20	[0, 0, 0]	n/a	catFR1	0	R1114C
2206.193	2.417	1106972	WORD	n/a	wordpools/wordpool_categorized_EN.txt	LADLE	KitchenTools	8	20	[0, 0, 0]	n/a	catFR1	0	R1114C
2208.61	2.45	1108180	WORD	n/a	wordpools/wordpool_categorized_EN.txt	SHRIMP	OceanAnimals	9	20	[0, 0, 0]	n/a	catFR1	0	R1114C
2211.06	2.601	1109405	WORD	n/a	wordpools/wordpool_categorized_EN.txt	WHALE	OceanAnimals	10	20	[0, 0, 0]	n/a	catFR1	0	R1114C
2213.661	2.617	1110705	WORD	n/a	wordpools/wordpool_categorized_EN.txt	TROMBONE	Instruments	11	20	[0, 0, 0]	n/a	catFR1	0	R1114C
2216.278	1.618	1112014	WORD	n/a	wordpools/wordpool_categorized_EN.txt	FLUTE	Instruments	12	20	[0, 0, 0]	n/a	catFR1	0	R1114C
2217.896	0.001	1112823	DISTRACT_START	n/a	n/a	n/a	n/a	-999	20	[0, 0, 0]	n/a	catFR1	0	R1114C
2217.897	0.016	1112823	START	n/a	n/a	n/a	n/a	-999	20	[-999, -999, -999]	n/a	catFR1	0	R1114C
2217.913	4.383	1112831	PROB	4.383	n/a	n/a	n/a	-999	20	[3, 9, 7]	19	catFR1	0	R1114C
2222.296	6.901	1115023	PROB	6.901	n/a	n/a	n/a	-999	20	[8, 9, 8]	25	catFR1	0	R1114C
2229.197	4.468	1118473	PROB	4.468	n/a	n/a	n/a	-999	20	[7, 1, 3]	11	catFR1	0	R1114C
2233.665	5.628	1120707	PROB	5.628	n/a	n/a	n/a	-999	20	[2, 2, 4]	8	catFR1	0	R1114C
2239.293	0.006	1123521	STOP	n/a	n/a	n/a	n/a	-999	20	[-999, -999, -999]	n/a	catFR1	0	R1114C
2239.299	1.201	1123524	DISTRACT_END	n/a	n/a	n/a	n/a	-999	20	[0, 0, 0]	n/a	catFR1	0	R1114C
2240.5	1.953	1124124	REC_START	n/a	n/a	n/a	n/a	-999	20	[0, 0, 0]	n/a	catFR1	0	R1114C
2242.453	2.94	1125100	REC_WORD	2.94	n/a	COLANDER	KitchenTools	1	20	[0, 0, 0]	n/a	catFR1	0	R1114C
2245.393	1.489	1126570	REC_WORD	1.489	n/a	SHRIMP	OceanAnimals	9	20	[0, 0, 0]	n/a	catFR1	0	R1114C
2246.882	17.495	1127315	REC_WORD	17.495	n/a	FISH	OceanAnimals	5	20	[0, 0, 0]	n/a	catFR1	0	R1114C
2264.377	4.043	1136062	REC_WORD	4.043	n/a	SPEAKER	n/a	-999	20	[0, 0, 0]	n/a	catFR1	0	R1114C
2268.42	2.092	1138083	REC_WORD	2.092	n/a	TUBA	Instruments	3	20	[0, 0, 0]	n/a	catFR1	0	R1114C
2270.512	2.076	1139129	REC_END	n/a	n/a	n/a	n/a	-999	20	[0, 0, 0]	n/a	catFR1	0	R1114C
2272.588	0.001	1140167	COUNTDOWN_START	n/a	n/a	n/a	n/a	-999	21	[0, 0, 0]	n/a	catFR1	0	R1114C
2272.589	10.427	1140167	TRIAL	n/a	n/a	n/a	n/a	-999	21	[0, 0, 0]	n/a	catFR1	0	R1114C
2283.016	0.008	1145381	COUNTDOWN_END	n/a	n/a	n/a	n/a	-999	21	[0, 0, 0]	n/a	catFR1	0	R1114C
2283.024	3.517	1145385	ORIENT	n/a	n/a	n/a	n/a	-999	21	[0, 0, 0]	n/a	catFR1	0	R1114C
2286.541	2.501	1147143	WORD	n/a	wordpools/wordpool_categorized_EN.txt	DOLLHOUSE	Toys	1	21	[0, 0, 0]	n/a	catFR1	0	R1114C
2289.042	2.383	1148393	WORD	n/a	wordpools/wordpool_categorized_EN.txt	FOOTBALL	Toys	2	21	[0, 0, 0]	n/a	catFR1	0	R1114C
2291.425	2.435	1149585	WORD	n/a	wordpools/wordpool_categorized_EN.txt	JEEP	Vehicles	3	21	[0, 0, 0]	n/a	catFR1	0	R1114C
2293.86	2.416	1150802	WORD	n/a	wordpools/wordpool_categorized_EN.txt	TRAIN	Vehicles	4	21	[0, 0, 0]	n/a	catFR1	0	R1114C
2296.276	2.569	1152010	WORD	n/a	wordpools/wordpool_categorized_EN.txt	CARDINAL	Birds	5	21	[0, 0, 0]	n/a	catFR1	0	R1114C
2298.845	2.499	1153294	WORD	n/a	wordpools/wordpool_categorized_EN.txt	ROBIN	Birds	6	21	[0, 0, 0]	n/a	catFR1	0	R1114C
2301.344	2.384	1154544	WORD	n/a	wordpools/wordpool_categorized_EN.txt	BIKE	Vehicles	7	21	[0, 0, 0]	n/a	catFR1	0	R1114C
2303.728	2.567	1155736	WORD	n/a	wordpools/wordpool_categorized_EN.txt	TRUCK	Vehicles	8	21	[0, 0, 0]	n/a	catFR1	0	R1114C
2306.295	2.501	1157019	WORD	n/a	wordpools/wordpool_categorized_EN.txt	FRISBEE	Toys	9	21	[0, 0, 0]	n/a	catFR1	0	R1114C
2308.796	2.416	1158270	WORD	n/a	wordpools/wordpool_categorized_EN.txt	SLINKY	Toys	10	21	[0, 0, 0]	n/a	catFR1	0	R1114C
2311.212	2.401	1159478	WORD	n/a	wordpools/wordpool_categorized_EN.txt	PIGEON	Birds	11	21	[0, 0, 0]	n/a	catFR1	0	R1114C
2313.613	1.617	1160678	WORD	n/a	wordpools/wordpool_categorized_EN.txt	FINCH	Birds	12	21	[0, 0, 0]	n/a	catFR1	0	R1114C
2315.23	0.001	1161486	DISTRACT_START	n/a	n/a	n/a	n/a	-999	21	[0, 0, 0]	n/a	catFR1	0	R1114C
2315.231	0.016	1161487	START	n/a	n/a	n/a	n/a	-999	21	[-999, -999, -999]	n/a	catFR1	0	R1114C
2315.247	6.501	1161495	PROB	6.501	n/a	n/a	n/a	-999	21	[3, 3, 7]	13	catFR1	0	R1114C
2321.748	2.6	1164745	PROB	2.6	n/a	n/a	n/a	-999	21	[3, 3, 1]	7	catFR1	0	R1114C
2324.348	4.001	1166045	PROB	4.001	n/a	n/a	n/a	-999	21	[2, 5, 3]	10	catFR1	0	R1114C
2328.349	3.684	1168045	PROB	3.684	n/a	n/a	n/a	-999	21	[9, 8, 1]	18	catFR1	0	R1114C
2332.033	6.42	1169887	PROB	6.42	n/a	n/a	n/a	-999	21	[6, 6, 8]	20	catFR1	0	R1114C
2338.453	0.015	1173097	STOP	n/a	n/a	n/a	n/a	-999	21	[-999, -999, -999]	n/a	catFR1	0	R1114C
2338.468	1.217	1173105	DISTRACT_END	n/a	n/a	n/a	n/a	-999	21	[0, 0, 0]	n/a	catFR1	0	R1114C
2339.685	1.391	1173713	REC_START	n/a	n/a	n/a	n/a	-999	21	[0, 0, 0]	n/a	catFR1	0	R1114C
2341.076	1.512	1174409	REC_WORD	1.512	n/a	DOLLHOUSE	Toys	1	21	[0, 0, 0]	n/a	catFR1	0	R1114C
2342.588	2.174	1175164	REC_WORD	2.174	n/a	JEEP	Vehicles	3	21	[0, 0, 0]	n/a	catFR1	0	R1114C
2344.762	12.557	1176251	REC_WORD	12.557	n/a	BIKE	Vehicles	7	21	[0, 0, 0]	n/a	catFR1	0	R1114C
2357.319	3.701	1182529	REC_WORD	3.701	n/a	TRAIN	Vehicles	4	21	[0, 0, 0]	n/a	catFR1	0	R1114C
2361.02	2.71	1184380	REC_WORD	2.71	n/a	BASEBALL	n/a	-999	21	[0, 0, 0]	n/a	catFR1	0	R1114C
2363.73	1.154	1185735	REC_WORD	1.154	n/a	ROBIN	Birds	6	21	[0, 0, 0]	n/a	catFR1	0	R1114C
2364.884	4.813	1186312	REC_WORD	4.813	n/a	CARDINAL	Birds	5	21	[0, 0, 0]	n/a	catFR1	0	R1114C
2369.697	3.195	1188718	REC_END	n/a	n/a	n/a	n/a	-999	21	[0, 0, 0]	n/a	catFR1	0	R1114C
2372.892	0.0	1190315	COUNTDOWN_START	n/a	n/a	n/a	n/a	-999	22	[0, 0, 0]	n/a	catFR1	0	R1114C
2372.892	10.428	1190315	TRIAL	n/a	n/a	n/a	n/a	-999	22	[0, 0, 0]	n/a	catFR1	0	R1114C
2383.32	0.006	1195529	COUNTDOWN_END	n/a	n/a	n/a	n/a	-999	22	[0, 0, 0]	n/a	catFR1	0	R1114C
2383.326	3.867	1195532	ORIENT	n/a	n/a	n/a	n/a	-999	22	[0, 0, 0]	n/a	catFR1	0	R1114C
2387.193	2.434	1197465	WORD	n/a	wordpools/wordpool_categorized_EN.txt	POTATO	Vegetables	1	22	[0, 0, 0]	n/a	catFR1	0	R1114C
2389.627	2.451	1198682	WORD	n/a	wordpools/wordpool_categorized_EN.txt	CAULIFLOWER	Vegetables	2	22	[0, 0, 0]	n/a	catFR1	0	R1114C
2392.078	2.483	1199908	WORD	n/a	wordpools/wordpool_categorized_EN.txt	SODA	Beverages	3	22	[0, 0, 0]	n/a	catFR1	0	R1114C
2394.561	2.618	1201149	WORD	n/a	wordpools/wordpool_categorized_EN.txt	JUICE	Beverages	4	22	[0, 0, 0]	n/a	catFR1	0	R1114C
2397.179	2.567	1202458	WORD	n/a	wordpools/wordpool_categorized_EN.txt	CELLO	Instruments	5	22	[0, 0, 0]	n/a	catFR1	0	R1114C
2399.746	2.484	1203741	WORD	n/a	wordpools/wordpool_categorized_EN.txt	ORGAN	Instruments	6	22	[0, 0, 0]	n/a	catFR1	0	R1114C
2402.23	2.517	1204983	WORD	n/a	wordpools/wordpool_categorized_EN.txt	TEA	Beverages	7	22	[0, 0, 0]	n/a	catFR1	0	R1114C
2404.747	2.45	1206242	WORD	n/a	wordpools/wordpool_categorized_EN.txt	WATER	Beverages	8	22	[0, 0, 0]	n/a	catFR1	0	R1114C
2407.197	2.584	1207467	WORD	n/a	wordpools/wordpool_categorized_EN.txt	PEAS	Vegetables	9	22	[0, 0, 0]	n/a	catFR1	0	R1114C
2409.781	2.434	1208759	WORD	n/a	wordpools/wordpool_categorized_EN.txt	CABBAGE	Vegetables	10	22	[0, 0, 0]	n/a	catFR1	0	R1114C
2412.215	2.517	1209976	WORD	n/a	wordpools/wordpool_categorized_EN.txt	PIANO	Instruments	11	22	[0, 0, 0]	n/a	catFR1	0	R1114C
2414.732	1.617	1211234	WORD	n/a	wordpools/wordpool_categorized_EN.txt	DRUM	Instruments	12	22	[0, 0, 0]	n/a	catFR1	0	R1114C
2416.349	0.001	1212042	DISTRACT_START	n/a	n/a	n/a	n/a	-999	22	[0, 0, 0]	n/a	catFR1	0	R1114C
2416.35	0.015	1212043	START	n/a	n/a	n/a	n/a	-999	22	[-999, -999, -999]	n/a	catFR1	0	R1114C
2416.365	7.769	1212050	PROB	7.769	n/a	n/a	n/a	-999	22	[7, 9, 2]	18	catFR1	0	R1114C
2424.134	6.234	1215935	PROB	6.234	n/a	n/a	n/a	-999	22	[8, 2, 7]	17	catFR1	0	R1114C
2430.368	3.519	1219051	PROB	3.519	n/a	n/a	n/a	-999	22	[3, 7, 1]	11	catFR1	0	R1114C
2433.887	3.406	1220811	PROB	3.406	n/a	n/a	n/a	-999	22	[1, 6, 8]	15	catFR1	0	R1114C
2437.293	0.01	1222514	STOP	n/a	n/a	n/a	n/a	-999	22	[-999, -999, -999]	n/a	catFR1	0	R1114C
2437.303	1.184	1222519	DISTRACT_END	n/a	n/a	n/a	n/a	-999	22	[0, 0, 0]	n/a	catFR1	0	R1114C
2438.487	2.059	1223111	REC_START	n/a	n/a	n/a	n/a	-999	22	[0, 0, 0]	n/a	catFR1	0	R1114C
2440.546	1.78	1224140	REC_WORD	1.78	n/a	POTATO	Vegetables	1	22	[0, 0, 0]	n/a	catFR1	0	R1114C
2442.326	2.453	1225030	REC_WORD	2.453	n/a	CAULIFLOWER	Vegetables	2	22	[0, 0, 0]	n/a	catFR1	0	R1114C
2444.779	1.256	1226256	REC_WORD	1.256	n/a	JUICE	Beverages	4	22	[0, 0, 0]	n/a	catFR1	0	R1114C
2446.035	1.645	1226884	REC_WORD	1.645	n/a	SODA	Beverages	3	22	[0, 0, 0]	n/a	catFR1	0	R1114C
2447.68	7.657	1227707	REC_WORD	7.657	n/a	TEA	Beverages	7	22	[0, 0, 0]	n/a	catFR1	0	R1114C
2455.337	1.496	1231535	REC_WORD	1.496	n/a	PIANO	Instruments	11	22	[0, 0, 0]	n/a	catFR1	0	R1114C
2456.833	5.666	1232283	REC_WORD	5.666	n/a	DRUM	Instruments	12	22	[0, 0, 0]	n/a	catFR1	0	R1114C
2462.499	5.999	1235116	REC_WORD	5.999	n/a	PEAS	Vegetables	9	22	[0, 0, 0]	n/a	catFR1	0	R1114C
2468.498	2.128	1238115	REC_END	n/a	n/a	n/a	n/a	-999	22	[0, 0, 0]	n/a	catFR1	0	R1114C
2470.626	0.0	1239179	TRIAL	n/a	n/a	n/a	n/a	-999	23	[0, 0, 0]	n/a	catFR1	0	R1114C
2470.626	10.428	1239179	COUNTDOWN_START	n/a	n/a	n/a	n/a	-999	23	[0, 0, 0]	n/a	catFR1	0	R1114C
2481.054	0.007	1244393	COUNTDOWN_END	n/a	n/a	n/a	n/a	-999	23	[0, 0, 0]	n/a	catFR1	0	R1114C
2481.061	3.701	1244396	ORIENT	n/a	n/a	n/a	n/a	-999	23	[0, 0, 0]	n/a	catFR1	0	R1114C
2484.762	2.517	1246246	WORD	n/a	wordpools/wordpool_categorized_EN.txt	WIND	Weather	1	23	[0, 0, 0]	n/a	catFR1	0	R1114C
2487.279	2.551	1247505	WORD	n/a	wordpools/wordpool_categorized_EN.txt	HUMIDITY	Weather	2	23	[0, 0, 0]	n/a	catFR1	0	R1114C
2489.83	2.483	1248780	WORD	n/a	wordpools/wordpool_categorized_EN.txt	OVEN	Appliances	3	23	[0, 0, 0]	n/a	catFR1	0	R1114C
2492.313	2.535	1250022	WORD	n/a	wordpools/wordpool_categorized_EN.txt	DISHWASHER	Appliances	4	23	[0, 0, 0]	n/a	catFR1	0	R1114C
2494.848	2.616	1251289	WORD	n/a	wordpools/wordpool_categorized_EN.txt	MAPLE	Trees	5	23	[0, 0, 0]	n/a	catFR1	0	R1114C
2497.464	2.617	1252597	WORD	n/a	wordpools/wordpool_categorized_EN.txt	BIRCH	Trees	6	23	[0, 0, 0]	n/a	catFR1	0	R1114C
2500.081	2.517	1253905	WORD	n/a	wordpools/wordpool_categorized_EN.txt	TOASTER	Appliances	7	23	[0, 0, 0]	n/a	catFR1	0	R1114C
2502.598	2.618	1255164	WORD	n/a	wordpools/wordpool_categorized_EN.txt	STOVE	Appliances	8	23	[0, 0, 0]	n/a	catFR1	0	R1114C
2505.216	2.5	1256473	WORD	n/a	wordpools/wordpool_categorized_EN.txt	THUNDERSTORM	Weather	9	23	[0, 0, 0]	n/a	catFR1	0	R1114C
2507.716	2.534	1257723	WORD	n/a	wordpools/wordpool_categorized_EN.txt	RAIN	Weather	10	23	[0, 0, 0]	n/a	catFR1	0	R1114C
2510.25	2.517	1258990	WORD	n/a	wordpools/wordpool_categorized_EN.txt	SPRUCE	Trees	11	23	[0, 0, 0]	n/a	catFR1	0	R1114C
2512.767	1.617	1260248	WORD	n/a	wordpools/wordpool_categorized_EN.txt	CEDAR	Trees	12	23	[0, 0, 0]	n/a	catFR1	0	R1114C
2514.384	0.001	1261056	DISTRACT_START	n/a	n/a	n/a	n/a	-999	23	[0, 0, 0]	n/a	catFR1	0	R1114C
2514.385	0.016	1261057	START	n/a	n/a	n/a	n/a	-999	23	[-999, -999, -999]	n/a	catFR1	0	R1114C
2514.401	8.818	1261065	PROB	8.818	n/a	n/a	n/a	-999	23	[9, 5, 8]	22	catFR1	0	R1114C
2523.219	5.284	1265474	PROB	5.284	n/a	n/a	n/a	-999	23	[6, 1, 4]	11	catFR1	0	R1114C
2528.503	3.184	1268115	PROB	3.184	n/a	n/a	n/a	-999	23	[1, 8, 1]	10	catFR1	0	R1114C
2531.687	10.103	1269707	PROB	10.103	n/a	n/a	n/a	-999	23	[7, 5, 6]	18	catFR1	0	R1114C
2541.79	0.017	1274759	STOP	n/a	n/a	n/a	n/a	-999	23	[-999, -999, -999]	n/a	catFR1	0	R1114C
2541.807	1.101	1274767	DISTRACT_END	n/a	n/a	n/a	n/a	-999	23	[0, 0, 0]	n/a	catFR1	0	R1114C
2542.908	4.071	1275317	REC_START	n/a	n/a	n/a	n/a	-999	23	[0, 0, 0]	n/a	catFR1	0	R1114C
2546.979	2.939	1277353	REC_WORD	2.939	n/a	WIND	Weather	1	23	[0, 0, 0]	n/a	catFR1	0	R1114C
2549.918	7.687	1278822	REC_WORD	7.687	n/a	OVEN	Appliances	3	23	[0, 0, 0]	n/a	catFR1	0	R1114C
2557.605	1.118	1282665	REC_WORD	1.118	n/a	CEDAR	Trees	12	23	[0, 0, 0]	n/a	catFR1	0	R1114C
2558.723	5.932	1283224	REC_WORD	5.932	n/a	SPRUCE	Trees	11	23	[0, 0, 0]	n/a	catFR1	0	R1114C
2564.655	8.263	1286190	REC_WORD	8.263	n/a	PINE	n/a	-999	23	[0, 0, 0]	n/a	catFR1	0	R1114C
2572.918	2.344	1290321	REC_END	n/a	n/a	n/a	n/a	-999	23	[0, 0, 0]	n/a	catFR1	0	R1114C
2575.262	0.0	1291493	TRIAL	n/a	n/a	n/a	n/a	-999	24	[0, 0, 0]	n/a	catFR1	0	R1114C
2575.262	10.428	1291493	COUNTDOWN_START	n/a	n/a	n/a	n/a	-999	24	[0, 0, 0]	n/a	catFR1	0	R1114C
2585.69	0.007	1296707	COUNTDOWN_END	n/a	n/a	n/a	n/a	-999	24	[0, 0, 0]	n/a	catFR1	0	R1114C
2585.697	3.451	1296710	ORIENT	n/a	n/a	n/a	n/a	-999	24	[0, 0, 0]	n/a	catFR1	0	R1114C
2589.148	2.584	1298436	WORD	n/a	wordpools/wordpool_categorized_EN.txt	PUDDING	Desserts	1	24	[0, 0, 0]	n/a	catFR1	0	R1114C
2591.732	2.534	1299728	WORD	n/a	wordpools/wordpool_categorized_EN.txt	PIE	Desserts	2	24	[0, 0, 0]	n/a	catFR1	0	R1114C
2594.266	2.517	1300995	WORD	n/a	wordpools/wordpool_categorized_EN.txt	ELEPHANT	Zoo	3	24	[0, 0, 0]	n/a	catFR1	0	R1114C
2596.783	2.45	1302253	WORD	n/a	wordpools/wordpool_categorized_EN.txt	PANDA	Zoo	4	24	[0, 0, 0]	n/a	catFR1	0	R1114C
2599.233	2.585	1303478	WORD	n/a	wordpools/wordpool_categorized_EN.txt	DRYER	Appliances	5	24	[0, 0, 0]	n/a	catFR1	0	R1114C
2601.818	2.433	1304770	WORD	n/a	wordpools/wordpool_categorized_EN.txt	MIXER	Appliances	6	24	[0, 0, 0]	n/a	catFR1	0	R1114C
2604.251	2.568	1305987	WORD	n/a	wordpools/wordpool_categorized_EN.txt	BROWNIES	Desserts	7	24	[0, 0, 0]	n/a	catFR1	0	R1114C
2606.819	2.549	1307271	WORD	n/a	wordpools/wordpool_categorized_EN.txt	COOKIE	Desserts	8	24	[0, 0, 0]	n/a	catFR1	0	R1114C
2609.368	2.535	1308545	WORD	n/a	wordpools/wordpool_categorized_EN.txt	FREEZER	Appliances	9	24	[0, 0, 0]	n/a	catFR1	0	R1114C
2611.903	2.617	1309813	WORD	n/a	wordpools/wordpool_categorized_EN.txt	BLENDER	Appliances	10	24	[0, 0, 0]	n/a	catFR1	0	R1114C
2614.52	2.384	1311121	WORD	n/a	wordpools/wordpool_categorized_EN.txt	GORILLA	Zoo	11	24	[0, 0, 0]	n/a	catFR1	0	R1114C
2616.904	1.616	1312313	WORD	n/a	wordpools/wordpool_categorized_EN.txt	ORANGUTAN	Zoo	12	24	[0, 0, 0]	n/a	catFR1	0	R1114C
2618.52	0.001	1313121	DISTRACT_START	n/a	n/a	n/a	n/a	-999	24	[0, 0, 0]	n/a	catFR1	0	R1114C
2618.521	0.016	1313121	START	n/a	n/a	n/a	n/a	-999	24	[-999, -999, -999]	n/a	catFR1	0	R1114C
2618.537	5.452	1313129	PROB	5.452	n/a	n/a	n/a	-999	24	[4, 9, 9]	22	catFR1	0	R1114C
2623.989	3.233	1315855	PROB	3.233	n/a	n/a	n/a	-999	24	[3, 7, 8]	18	catFR1	0	R1114C
2627.222	3.967	1317472	PROB	3.967	n/a	n/a	n/a	-999	24	[7, 8, 4]	19	catFR1	0	R1114C
2631.189	3.735	1319455	PROB	3.735	n/a	n/a	n/a	-999	24	[5, 7, 1]	13	catFR1	0	R1114C
2634.924	2.55	1321322	PROB	2.55	n/a	n/a	n/a	-999	24	[1, 9, 1]	11	catFR1	0	R1114C
2637.474	3.243	1322597	PROB	3.243	n/a	n/a	n/a	-999	24	[1, 9, 2]	12	catFR1	0	R1114C
2640.717	0.007	1324219	STOP	n/a	n/a	n/a	n/a	-999	24	[-999, -999, -999]	n/a	catFR1	0	R1114C
2640.724	1.169	1324222	DISTRACT_END	n/a	n/a	n/a	n/a	-999	24	[0, 0, 0]	n/a	catFR1	0	R1114C
2641.893	1.237	1324807	REC_START	n/a	n/a	n/a	n/a	-999	24	[0, 0, 0]	n/a	catFR1	0	R1114C
2643.13	0.983	1325425	REC_WORD	0.983	n/a	PUDDING	Desserts	1	24	[0, 0, 0]	n/a	catFR1	0	R1114C
2644.113	4.739	1325916	REC_WORD	4.739	n/a	PIE	Desserts	2	24	[0, 0, 0]	n/a	catFR1	0	R1114C
2648.852	2.59	1328286	REC_WORD	2.59	n/a	BROWNIES	Desserts	7	24	[0, 0, 0]	n/a	catFR1	0	R1114C
2651.442	2.058	1329581	REC_WORD	2.058	n/a	COOKIE	Desserts	8	24	[0, 0, 0]	n/a	catFR1	0	R1114C
2653.5	1.495	1330610	REC_WORD	1.495	n/a	ELEPHANT	Zoo	3	24	[0, 0, 0]	n/a	catFR1	0	R1114C
2654.995	16.908	1331357	REC_WORD	16.908	n/a	ORANGUTAN	Zoo	12	24	[0, 0, 0]	n/a	catFR1	0	R1114C
2671.903	2.244	1339810	REC_END	n/a	n/a	n/a	n/a	-999	24	[0, 0, 0]	n/a	catFR1	0	R1114C
2674.147	0.0	1340932	TRIAL	n/a	n/a	n/a	n/a	-999	25	[0, 0, 0]	n/a	catFR1	0	R1114C
2674.147	10.428	1340932	COUNTDOWN_START	n/a	n/a	n/a	n/a	-999	25	[0, 0, 0]	n/a	catFR1	0	R1114C
2684.575	0.008	1346146	COUNTDOWN_END	n/a	n/a	n/a	n/a	-999	25	[0, 0, 0]	n/a	catFR1	0	R1114C
2684.583	3.684	1346150	ORIENT	n/a	n/a	n/a	n/a	-999	25	[0, 0, 0]	n/a	catFR1	0	R1114C
2688.267	2.4	1347992	WORD	n/a	wordpools/wordpool_categorized_EN.txt	WASHER	Appliances	1	25	[0, 0, 0]	n/a	catFR1	0	R1114C
2690.667	2.484	1349192	WORD	n/a	wordpools/wordpool_categorized_EN.txt	IRON	Appliances	2	25	[0, 0, 0]	n/a	catFR1	0	R1114C
2693.151	2.384	1350434	WORD	n/a	wordpools/wordpool_categorized_EN.txt	GRAPE	Fruit	3	25	[0, 0, 0]	n/a	catFR1	0	R1114C
2695.535	2.401	1351626	WORD	n/a	wordpools/wordpool_categorized_EN.txt	PEAR	Fruit	4	25	[0, 0, 0]	n/a	catFR1	0	R1114C
2697.936	2.4	1352826	WORD	n/a	wordpools/wordpool_categorized_EN.txt	AXE	Tools	5	25	[0, 0, 0]	n/a	catFR1	0	R1114C
2700.336	2.451	1354026	WORD	n/a	wordpools/wordpool_categorized_EN.txt	DRILL	Tools	6	25	[0, 0, 0]	n/a	catFR1	0	R1114C
2702.787	2.6	1355251	WORD	n/a	wordpools/wordpool_categorized_EN.txt	REFRIGERATOR	Appliances	7	25	[0, 0, 0]	n/a	catFR1	0	R1114C
2705.387	2.451	1356551	WORD	n/a	wordpools/wordpool_categorized_EN.txt	VACUUM	Appliances	8	25	[0, 0, 0]	n/a	catFR1	0	R1114C
2707.838	2.566	1357777	WORD	n/a	wordpools/wordpool_categorized_EN.txt	LEVEL	Tools	9	25	[0, 0, 0]	n/a	catFR1	0	R1114C
2710.404	2.518	1359060	WORD	n/a	wordpools/wordpool_categorized_EN.txt	HAMMER	Tools	10	25	[0, 0, 0]	n/a	catFR1	0	R1114C
2712.922	2.466	1360319	WORD	n/a	wordpools/wordpool_categorized_EN.txt	ORANGE	Fruit	11	25	[0, 0, 0]	n/a	catFR1	0	R1114C
2715.388	1.601	1361551	WORD	n/a	wordpools/wordpool_categorized_EN.txt	LEMON	Fruit	12	25	[0, 0, 0]	n/a	catFR1	0	R1114C
2716.989	0.001	1362352	DISTRACT_START	n/a	n/a	n/a	n/a	-999	25	[0, 0, 0]	n/a	catFR1	0	R1114C
2716.99	0.015	1362352	START	n/a	n/a	n/a	n/a	-999	25	[-999, -999, -999]	n/a	catFR1	0	R1114C
2717.005	8.335	1362360	PROB	8.335	n/a	n/a	n/a	-999	25	[2, 3, 9]	14	catFR1	0	R1114C
2725.34	5.469	1366527	PROB	5.469	n/a	n/a	n/a	-999	25	[5, 4, 7]	16	catFR1	0	R1114C
2730.809	6.564	1369261	PROB	6.564	n/a	n/a	n/a	-999	25	[7, 2, 6]	15	catFR1	0	R1114C
2737.373	0.02	1372543	STOP	n/a	n/a	n/a	n/a	-999	25	[-999, -999, -999]	n/a	catFR1	0	R1114C
2737.393	1.151	1372553	DISTRACT_END	n/a	n/a	n/a	n/a	-999	25	[0, 0, 0]	n/a	catFR1	0	R1114C
2738.544	1.504	1373129	REC_START	n/a	n/a	n/a	n/a	-999	25	[0, 0, 0]	n/a	catFR1	0	R1114C
2740.048	1.812	1373881	REC_WORD	1.812	n/a	WASHER	Appliances	1	25	[0, 0, 0]	n/a	catFR1	0	R1114C
2741.86	3.726	1374787	REC_WORD	3.726	n/a	IRON	Appliances	2	25	[0, 0, 0]	n/a	catFR1	0	R1114C
2745.586	1.662	1376649	REC_WORD	1.662	n/a	AXE	Tools	5	25	[0, 0, 0]	n/a	catFR1	0	R1114C
2747.248	21.308	1377480	REC_WORD	21.308	n/a	PEAR	Fruit	4	25	[0, 0, 0]	n/a	catFR1	0	R1114C
2768.556	19.53	1388134	REC_END	n/a	n/a	n/a	n/a	-999	25	[0, 0, 0]	n/a	catFR1	0	R1114C
2788.086	0.0	1397898	SESS_END	n/a	n/a	n/a	n/a	-999	25	[0, 0, 0]	n/a	catFR1	0	R1114C
