onset	duration	sample	trial_type	response_time	stim_file	item_name	category	serialpos	list	test	answer	experiment	session	subject
0.0	0.0	55067	INSTRUCT_START	n/a	n/a	n/a	n/a	-999	-999	[0, 0, 0]	n/a	catFR1	0	R1227T
0.0	10.785	55067	INSTRUCT_END	n/a	n/a	n/a	n/a	-999	-999	[0, 0, 0]	n/a	catFR1	0	R1227T
10.785	0.0	65852	SESS_START	n/a	n/a	n/a	n/a	-999	-999	[0, 0, 0]	n/a	catFR1	0	R1227T
10.785	61.646	65852	MIC_TEST	n/a	n/a	n/a	n/a	-999	-999	[0, 0, 0]	n/a	catFR1	0	R1227T
72.431	2.698	127494	PRACTICE_TRIAL	n/a	n/a	n/a	n/a	-999	-1	[0, 0, 0]	n/a	catFR1	0	R1227T
75.129	10.428	130192	COUNTDOWN_START	n/a	n/a	n/a	n/a	-999	-1	[0, 0, 0]	n/a	catFR1	0	R1227T
85.557	0.007	140619	COUNTDOWN_END	n/a	n/a	n/a	n/a	-999	-1	[0, 0, 0]	n/a	catFR1	0	R1227T
85.564	1.618	140626	PRACTICE_ORIENT	n/a	n/a	n/a	n/a	-999	-1	[0, 0, 0]	n/a	catFR1	0	R1227T
87.182	2.333	142244	PRACTICE_ORIENT_OFF	n/a	n/a	n/a	n/a	-999	-1	[0, 0, 0]	n/a	catFR1	0	R1227T
89.515	1.618	144577	PRACTICE_WORD	n/a	n/a	IRON	n/a	-1	-1	[0, 0, 0]	n/a	catFR1	0	R1227T
91.133	0.85	146195	PRACTICE_WORD_OFF	n/a	n/a	IRON	n/a	-999	-1	[0, 0, 0]	n/a	catFR1	0	R1227T
91.983	1.616	147045	PRACTICE_WORD	n/a	n/a	RHINO	n/a	-1	-1	[0, 0, 0]	n/a	catFR1	0	R1227T
93.599	0.984	148660	PRACTICE_WORD_OFF	n/a	n/a	RHINO	n/a	-999	-1	[0, 0, 0]	n/a	catFR1	0	R1227T
94.583	1.617	149644	PRACTICE_WORD	n/a	n/a	TONGUE	n/a	-1	-1	[0, 0, 0]	n/a	catFR1	0	R1227T
96.2	0.817	151261	PRACTICE_WORD_OFF	n/a	n/a	TONGUE	n/a	-999	-1	[0, 0, 0]	n/a	catFR1	0	R1227T
97.017	1.616	152078	PRACTICE_WORD	n/a	n/a	ATTIC	n/a	-1	-1	[0, 0, 0]	n/a	catFR1	0	R1227T
98.633	0.834	153694	PRACTICE_WORD_OFF	n/a	n/a	ATTIC	n/a	-999	-1	[0, 0, 0]	n/a	catFR1	0	R1227T
99.467	1.618	154528	PRACTICE_WORD	n/a	n/a	CHEST	n/a	-1	-1	[0, 0, 0]	n/a	catFR1	0	R1227T
101.085	0.917	156146	PRACTICE_WORD_OFF	n/a	n/a	CHEST	n/a	-999	-1	[0, 0, 0]	n/a	catFR1	0	R1227T
102.002	1.615	157063	PRACTICE_WORD	n/a	n/a	COTTON	n/a	-1	-1	[0, 0, 0]	n/a	catFR1	0	R1227T
103.617	0.917	158678	PRACTICE_WORD_OFF	n/a	n/a	COTTON	n/a	-999	-1	[0, 0, 0]	n/a	catFR1	0	R1227T
104.534	1.618	159595	PRACTICE_WORD	n/a	n/a	BEAM	n/a	-1	-1	[0, 0, 0]	n/a	catFR1	0	R1227T
106.152	0.8	161213	PRACTICE_WORD_OFF	n/a	n/a	BEAM	n/a	-999	-1	[0, 0, 0]	n/a	catFR1	0	R1227T
106.952	1.616	162013	PRACTICE_WORD	n/a	n/a	CAMEL	n/a	-1	-1	[0, 0, 0]	n/a	catFR1	0	R1227T
108.568	0.851	163629	PRACTICE_WORD_OFF	n/a	n/a	CAMEL	n/a	-999	-1	[0, 0, 0]	n/a	catFR1	0	R1227T
109.419	1.617	164480	PRACTICE_WORD	n/a	n/a	WAGON	n/a	-1	-1	[0, 0, 0]	n/a	catFR1	0	R1227T
111.036	0.783	166096	PRACTICE_WORD_OFF	n/a	n/a	WAGON	n/a	-999	-1	[0, 0, 0]	n/a	catFR1	0	R1227T
111.819	1.618	166879	PRACTICE_WORD	n/a	n/a	FLOOD	n/a	-1	-1	[0, 0, 0]	n/a	catFR1	0	R1227T
113.437	0.967	168497	PRACTICE_WORD_OFF	n/a	n/a	FLOOD	n/a	-999	-1	[0, 0, 0]	n/a	catFR1	0	R1227T
114.404	1.617	169464	PRACTICE_WORD	n/a	n/a	RING	n/a	-1	-1	[0, 0, 0]	n/a	catFR1	0	R1227T
116.021	0.916	171081	PRACTICE_WORD_OFF	n/a	n/a	RING	n/a	-999	-1	[0, 0, 0]	n/a	catFR1	0	R1227T
116.937	1.616	171997	PRACTICE_WORD	n/a	n/a	WATCH	n/a	-1	-1	[0, 0, 0]	n/a	catFR1	0	R1227T
118.553	0.001	173613	PRACTICE_WORD_OFF	n/a	n/a	WATCH	n/a	-999	-1	[0, 0, 0]	n/a	catFR1	0	R1227T
118.554	0.0	173614	ENCODING_END	n/a	n/a	n/a	n/a	-999	-1	[0, 0, 0]	n/a	catFR1	0	R1227T
118.554	0.0	173614	DISTRACT_START	n/a	n/a	n/a	n/a	-999	-1	[0, 0, 0]	n/a	catFR1	0	R1227T
118.554	0.016	173614	START	n/a	n/a	n/a	n/a	-999	-1	[-999, -999, -999]	n/a	catFR1	0	R1227T
118.57	18.954	173630	PROB	18.927	n/a	n/a	n/a	-999	-1	[7, 9, 7]	23.0	catFR1	0	R1227T
137.524	13.751	192583	PROB	13.751	n/a	n/a	n/a	-999	-1	[9, 5, 8]	22.0	catFR1	0	R1227T
151.275	0.019	206333	STOP	n/a	n/a	n/a	n/a	-999	-1	[-999, -999, -999]	n/a	catFR1	0	R1227T
151.294	0.65	206352	DISTRACT_END	n/a	n/a	n/a	n/a	-999	-1	[0, 0, 0]	n/a	catFR1	0	R1227T
151.944	0.52	207002	RETRIEVAL_ORIENT	n/a	n/a	n/a	n/a	-999	-1	[0, 0, 0]	n/a	catFR1	0	R1227T
152.464	30.011	207522	PRACTICE_REC_START	n/a	n/a	n/a	n/a	-999	-1	[0, 0, 0]	n/a	catFR1	0	R1227T
182.475	87.123	237531	PRACTICE_REC_END	n/a	n/a	n/a	n/a	-999	-1	[0, 0, 0]	n/a	catFR1	0	R1227T
269.598	0.5	324649	TRIAL	n/a	n/a	n/a	n/a	-999	1	[0, 0, 0]	n/a	catFR1	0	R1227T
270.098	10.428	325149	COUNTDOWN_START	n/a	n/a	n/a	n/a	-999	1	[0, 0, 0]	n/a	catFR1	0	R1227T
280.526	0.007	335576	COUNTDOWN_END	n/a	n/a	n/a	n/a	-999	1	[0, 0, 0]	n/a	catFR1	0	R1227T
280.533	1.601	335583	ORIENT	n/a	n/a	n/a	n/a	-999	1	[0, 0, 0]	n/a	catFR1	0	R1227T
282.134	2.0	337184	ORIENT_OFF	n/a	n/a	n/a	n/a	-999	1	[0, 0, 0]	n/a	catFR1	0	R1227T
284.134	1.616	339184	WORD	n/a	wordpools/wordpool_categorized_EN.txt	SCREWDRIVER	Tools	1	1	[0, 0, 0]	n/a	catFR1	0	R1227T
285.75	0.917	340800	WORD_OFF	n/a	n/a	SCREWDRIVER	n/a	1	1	[0, 0, 0]	n/a	catFR1	0	R1227T
286.667	1.618	341717	WORD	n/a	wordpools/wordpool_categorized_EN.txt	WRENCH	Tools	2	1	[0, 0, 0]	n/a	catFR1	0	R1227T
288.285	0.834	343335	WORD_OFF	n/a	n/a	WRENCH	n/a	2	1	[0, 0, 0]	n/a	catFR1	0	R1227T
289.119	1.616	344169	WORD	n/a	wordpools/wordpool_categorized_EN.txt	MAPLE	Trees	3	1	[0, 0, 0]	n/a	catFR1	0	R1227T
290.735	0.883	345784	WORD_OFF	n/a	n/a	MAPLE	n/a	3	1	[0, 0, 0]	n/a	catFR1	0	R1227T
291.618	1.618	346667	WORD	n/a	wordpools/wordpool_categorized_EN.txt	WILLOW	Trees	4	1	[0, 0, 0]	n/a	catFR1	0	R1227T
293.236	0.917	348285	WORD_OFF	n/a	n/a	WILLOW	n/a	4	1	[0, 0, 0]	n/a	catFR1	0	R1227T
294.153	1.616	349202	WORD	n/a	wordpools/wordpool_categorized_EN.txt	HAWK	Birds	5	1	[0, 0, 0]	n/a	catFR1	0	R1227T
295.769	0.817	350818	WORD_OFF	n/a	n/a	HAWK	n/a	5	1	[0, 0, 0]	n/a	catFR1	0	R1227T
296.586	1.601	351635	WORD	n/a	wordpools/wordpool_categorized_EN.txt	DOVE	Birds	6	1	[0, 0, 0]	n/a	catFR1	0	R1227T
298.187	0.884	353236	WORD_OFF	n/a	n/a	DOVE	n/a	6	1	[0, 0, 0]	n/a	catFR1	0	R1227T
299.071	1.616	354120	WORD	n/a	wordpools/wordpool_categorized_EN.txt	LEVEL	Tools	7	1	[0, 0, 0]	n/a	catFR1	0	R1227T
300.687	0.933	355736	WORD_OFF	n/a	n/a	LEVEL	n/a	7	1	[0, 0, 0]	n/a	catFR1	0	R1227T
301.62	1.618	356669	WORD	n/a	wordpools/wordpool_categorized_EN.txt	CROWBAR	Tools	8	1	[0, 0, 0]	n/a	catFR1	0	R1227T
303.238	0.883	358287	WORD_OFF	n/a	n/a	CROWBAR	n/a	8	1	[0, 0, 0]	n/a	catFR1	0	R1227T
304.121	1.616	359170	WORD	n/a	wordpools/wordpool_categorized_EN.txt	CEDAR	Trees	9	1	[0, 0, 0]	n/a	catFR1	0	R1227T
305.737	0.784	360786	WORD_OFF	n/a	n/a	CEDAR	n/a	9	1	[0, 0, 0]	n/a	catFR1	0	R1227T
306.521	1.618	361569	WORD	n/a	wordpools/wordpool_categorized_EN.txt	HICKORY	Trees	10	1	[0, 0, 0]	n/a	catFR1	0	R1227T
308.139	0.883	363187	WORD_OFF	n/a	n/a	HICKORY	n/a	10	1	[0, 0, 0]	n/a	catFR1	0	R1227T
309.022	1.616	364070	WORD	n/a	wordpools/wordpool_categorized_EN.txt	SEAGULL	Birds	11	1	[0, 0, 0]	n/a	catFR1	0	R1227T
310.638	0.785	365686	WORD_OFF	n/a	n/a	SEAGULL	n/a	11	1	[0, 0, 0]	n/a	catFR1	0	R1227T
311.423	1.617	366471	WORD	n/a	wordpools/wordpool_categorized_EN.txt	FINCH	Birds	12	1	[0, 0, 0]	n/a	catFR1	0	R1227T
313.04	0.0	368088	WORD_OFF	n/a	n/a	FINCH	n/a	12	1	[0, 0, 0]	n/a	catFR1	0	R1227T
313.04	0.135	368088	ENCODING_END	n/a	n/a	n/a	n/a	-999	1	[0, 0, 0]	n/a	catFR1	0	R1227T
313.175	0.001	368223	DISTRACT_START	n/a	n/a	n/a	n/a	-999	1	[0, 0, 0]	n/a	catFR1	0	R1227T
313.176	0.014	368224	START	n/a	n/a	n/a	n/a	-999	1	[-999, -999, -999]	n/a	catFR1	0	R1227T
313.19	11.118	368238	PROB	11.084	n/a	n/a	n/a	-999	1	[5, 8, 3]	16.0	catFR1	0	R1227T
324.308	7.301	379355	PROB	7.277	n/a	n/a	n/a	-999	1	[3, 9, 2]	15.0	catFR1	0	R1227T
331.609	5.562	386656	PROB	5.562	n/a	n/a	n/a	-999	1	[2, 9, 2]	13.0	catFR1	0	R1227T
337.171	0.006	392218	STOP	n/a	n/a	n/a	n/a	-999	1	[-999, -999, -999]	n/a	catFR1	0	R1227T
337.177	0.6	392224	DISTRACT_END	n/a	n/a	n/a	n/a	-999	1	[0, 0, 0]	n/a	catFR1	0	R1227T
337.777	0.518	392824	RETRIEVAL_ORIENT	n/a	n/a	n/a	n/a	-999	1	[0, 0, 0]	n/a	catFR1	0	R1227T
338.295	2.089	393342	REC_START	n/a	n/a	n/a	n/a	-999	1	[0, 0, 0]	n/a	catFR1	0	R1227T
340.384	1.197	395430	REC_WORD	2.089	n/a	SCREWDRIVER	Tools	1	1	[0, 0, 0]	n/a	catFR1	0	R1227T
341.581	1.154	396627	REC_WORD	3.286	n/a	WRENCH	Tools	2	1	[0, 0, 0]	n/a	catFR1	0	R1227T
342.735	10.741	397781	REC_WORD	4.44	n/a	MAPLE	Trees	3	1	[0, 0, 0]	n/a	catFR1	0	R1227T
353.476	12.723	408522	REC_WORD	15.181	n/a	FRENCH	n/a	-999	1	[0, 0, 0]	n/a	catFR1	0	R1227T
366.199	2.108	421244	REC_WORD_VV	27.904	n/a	<>	n/a	-999	1	[0, 0, 0]	n/a	catFR1	0	R1227T
368.307	15.096	423352	REC_END	n/a	n/a	n/a	n/a	-999	1	[0, 0, 0]	n/a	catFR1	0	R1227T
383.403	0.5	438447	TRIAL	n/a	n/a	n/a	n/a	-999	2	[0, 0, 0]	n/a	catFR1	0	R1227T
383.903	10.428	438947	COUNTDOWN_START	n/a	n/a	n/a	n/a	-999	2	[0, 0, 0]	n/a	catFR1	0	R1227T
394.331	0.007	449374	COUNTDOWN_END	n/a	n/a	n/a	n/a	-999	2	[0, 0, 0]	n/a	catFR1	0	R1227T
394.338	1.617	449381	ORIENT	n/a	n/a	n/a	n/a	-999	2	[0, 0, 0]	n/a	catFR1	0	R1227T
395.955	2.25	450998	ORIENT_OFF	n/a	n/a	n/a	n/a	-999	2	[0, 0, 0]	n/a	catFR1	0	R1227T
398.205	1.616	453248	WORD	n/a	wordpools/wordpool_categorized_EN.txt	SHEEP	FarmAnimals	1	2	[0, 0, 0]	n/a	catFR1	0	R1227T
399.821	0.984	454864	WORD_OFF	n/a	n/a	SHEEP	n/a	1	2	[0, 0, 0]	n/a	catFR1	0	R1227T
400.805	1.618	455848	WORD	n/a	wordpools/wordpool_categorized_EN.txt	ROOSTER	FarmAnimals	2	2	[0, 0, 0]	n/a	catFR1	0	R1227T
402.423	0.867	457466	WORD_OFF	n/a	n/a	ROOSTER	n/a	2	2	[0, 0, 0]	n/a	catFR1	0	R1227T
403.29	1.616	458333	WORD	n/a	wordpools/wordpool_categorized_EN.txt	BALL	Toys	3	2	[0, 0, 0]	n/a	catFR1	0	R1227T
404.906	1.017	459948	WORD_OFF	n/a	n/a	BALL	n/a	3	2	[0, 0, 0]	n/a	catFR1	0	R1227T
405.923	1.616	460965	WORD	n/a	wordpools/wordpool_categorized_EN.txt	DOLLHOUSE	Toys	4	2	[0, 0, 0]	n/a	catFR1	0	R1227T
407.539	0.967	462581	WORD_OFF	n/a	n/a	DOLLHOUSE	n/a	4	2	[0, 0, 0]	n/a	catFR1	0	R1227T
408.506	1.618	463548	WORD	n/a	wordpools/wordpool_categorized_EN.txt	DRUM	Instruments	5	2	[0, 0, 0]	n/a	catFR1	0	R1227T
410.124	0.8	465166	WORD_OFF	n/a	n/a	DRUM	n/a	5	2	[0, 0, 0]	n/a	catFR1	0	R1227T
410.924	1.616	465966	WORD	n/a	wordpools/wordpool_categorized_EN.txt	BANJO	Instruments	6	2	[0, 0, 0]	n/a	catFR1	0	R1227T
412.54	0.868	467582	WORD_OFF	n/a	n/a	BANJO	n/a	6	2	[0, 0, 0]	n/a	catFR1	0	R1227T
413.408	1.617	468450	WORD	n/a	wordpools/wordpool_categorized_EN.txt	BARBIE	Toys	7	2	[0, 0, 0]	n/a	catFR1	0	R1227T
415.025	0.983	470067	WORD_OFF	n/a	n/a	BARBIE	n/a	7	2	[0, 0, 0]	n/a	catFR1	0	R1227T
416.008	1.616	471050	WORD	n/a	wordpools/wordpool_categorized_EN.txt	FOOTBALL	Toys	8	2	[0, 0, 0]	n/a	catFR1	0	R1227T
417.624	0.95	472666	WORD_OFF	n/a	n/a	FOOTBALL	n/a	8	2	[0, 0, 0]	n/a	catFR1	0	R1227T
418.574	1.602	473616	WORD	n/a	wordpools/wordpool_categorized_EN.txt	HORSE	FarmAnimals	9	2	[0, 0, 0]	n/a	catFR1	0	R1227T
420.176	0.8	475218	WORD_OFF	n/a	n/a	HORSE	n/a	9	2	[0, 0, 0]	n/a	catFR1	0	R1227T
420.976	1.616	476017	WORD	n/a	wordpools/wordpool_categorized_EN.txt	LAMB	FarmAnimals	10	2	[0, 0, 0]	n/a	catFR1	0	R1227T
422.592	0.883	477633	WORD_OFF	n/a	n/a	LAMB	n/a	10	2	[0, 0, 0]	n/a	catFR1	0	R1227T
423.475	1.602	478516	WORD	n/a	wordpools/wordpool_categorized_EN.txt	TUBA	Instruments	11	2	[0, 0, 0]	n/a	catFR1	0	R1227T
425.077	0.867	480118	WORD_OFF	n/a	n/a	TUBA	n/a	11	2	[0, 0, 0]	n/a	catFR1	0	R1227T
425.944	1.616	480985	WORD	n/a	wordpools/wordpool_categorized_EN.txt	GUITAR	Instruments	12	2	[0, 0, 0]	n/a	catFR1	0	R1227T
427.56	0.0	482601	ENCODING_END	n/a	n/a	n/a	n/a	-999	2	[0, 0, 0]	n/a	catFR1	0	R1227T
427.56	0.106	482601	WORD_OFF	n/a	n/a	GUITAR	n/a	12	2	[0, 0, 0]	n/a	catFR1	0	R1227T
427.666	0.0	482707	DISTRACT_START	n/a	n/a	n/a	n/a	-999	2	[0, 0, 0]	n/a	catFR1	0	R1227T
427.666	0.01	482707	START	n/a	n/a	n/a	n/a	-999	2	[-999, -999, -999]	n/a	catFR1	0	R1227T
427.676	4.402	482717	PROB	4.367	n/a	n/a	n/a	-999	2	[7, 5, 8]	57.0	catFR1	0	R1227T
432.078	2.117	487119	PROB	2.093	n/a	n/a	n/a	-999	2	[7, 9, 6]	23.0	catFR1	0	R1227T
434.195	1.433	489236	PROB	1.407	n/a	n/a	n/a	-999	2	[8, 7, 4]	2.0	catFR1	0	R1227T
435.628	0.983	490669	PROB	0.957	n/a	n/a	n/a	-999	2	[7, 5, 9]	3.0	catFR1	0	R1227T
436.611	1.418	491652	PROB	1.391	n/a	n/a	n/a	-999	2	[2, 1, 8]	23.0	catFR1	0	R1227T
438.029	6.818	493069	PROB	6.78	n/a	n/a	n/a	-999	2	[5, 9, 3]	17.0	catFR1	0	R1227T
444.847	7.443	499887	PROB	7.443	n/a	n/a	n/a	-999	2	[1, 5, 8]	15.0	catFR1	0	R1227T
452.29	0.009	507330	STOP	n/a	n/a	n/a	n/a	-999	2	[-999, -999, -999]	n/a	catFR1	0	R1227T
452.299	0.683	507339	DISTRACT_END	n/a	n/a	n/a	n/a	-999	2	[0, 0, 0]	n/a	catFR1	0	R1227T
452.982	0.516	508022	RETRIEVAL_ORIENT	n/a	n/a	n/a	n/a	-999	2	[0, 0, 0]	n/a	catFR1	0	R1227T
453.498	2.952	508537	REC_START	n/a	n/a	n/a	n/a	-999	2	[0, 0, 0]	n/a	catFR1	0	R1227T
456.45	4.512	511489	REC_WORD	2.952	n/a	WRENCH	n/a	-999	2	[0, 0, 0]	n/a	catFR1	0	R1227T
460.962	1.962	516001	REC_WORD	7.464	n/a	FOOTBALL	Toys	8	2	[0, 0, 0]	n/a	catFR1	0	R1227T
462.924	1.136	517963	REC_WORD	9.426	n/a	WRENCH	n/a	-999	2	[0, 0, 0]	n/a	catFR1	0	R1227T
464.06	6.483	519099	REC_WORD	10.562	n/a	SCREWDRIVER	n/a	-999	2	[0, 0, 0]	n/a	catFR1	0	R1227T
470.543	2.392	525581	REC_WORD	17.045	n/a	SPA	n/a	-999	2	[0, 0, 0]	n/a	catFR1	0	R1227T
472.935	10.577	527973	REC_WORD	19.437	n/a	BANJO	Instruments	6	2	[0, 0, 0]	n/a	catFR1	0	R1227T
483.512	42.466	538550	REC_END	n/a	n/a	n/a	n/a	-999	2	[0, 0, 0]	n/a	catFR1	0	R1227T
525.978	0.5	581013	TRIAL	n/a	n/a	n/a	n/a	-999	3	[0, 0, 0]	n/a	catFR1	0	R1227T
526.478	10.428	581513	COUNTDOWN_START	n/a	n/a	n/a	n/a	-999	3	[0, 0, 0]	n/a	catFR1	0	R1227T
536.906	0.008	591940	COUNTDOWN_END	n/a	n/a	n/a	n/a	-999	3	[0, 0, 0]	n/a	catFR1	0	R1227T
536.914	1.616	591948	ORIENT	n/a	n/a	n/a	n/a	-999	3	[0, 0, 0]	n/a	catFR1	0	R1227T
538.53	2.05	593564	ORIENT_OFF	n/a	n/a	n/a	n/a	-999	3	[0, 0, 0]	n/a	catFR1	0	R1227T
540.58	1.618	595614	WORD	n/a	wordpools/wordpool_categorized_EN.txt	PEAR	Fruit	1	3	[0, 0, 0]	n/a	catFR1	0	R1227T
542.198	0.867	597232	WORD_OFF	n/a	n/a	PEAR	n/a	1	3	[0, 0, 0]	n/a	catFR1	0	R1227T
543.065	1.616	598099	WORD	n/a	wordpools/wordpool_categorized_EN.txt	LEMON	Fruit	2	3	[0, 0, 0]	n/a	catFR1	0	R1227T
544.681	0.85	599715	WORD_OFF	n/a	n/a	LEMON	n/a	2	3	[0, 0, 0]	n/a	catFR1	0	R1227T
545.531	1.618	600565	WORD	n/a	wordpools/wordpool_categorized_EN.txt	SLINKY	Toys	3	3	[0, 0, 0]	n/a	catFR1	0	R1227T
547.149	0.967	602183	WORD_OFF	n/a	n/a	SLINKY	n/a	3	3	[0, 0, 0]	n/a	catFR1	0	R1227T
548.116	1.616	603150	WORD	n/a	wordpools/wordpool_categorized_EN.txt	FRISBEE	Toys	4	3	[0, 0, 0]	n/a	catFR1	0	R1227T
549.732	0.833	604766	WORD_OFF	n/a	n/a	FRISBEE	n/a	4	3	[0, 0, 0]	n/a	catFR1	0	R1227T
550.565	1.618	605599	WORD	n/a	wordpools/wordpool_categorized_EN.txt	BATHROOM	Building	5	3	[0, 0, 0]	n/a	catFR1	0	R1227T
552.183	0.867	607216	WORD_OFF	n/a	n/a	BATHROOM	n/a	5	3	[0, 0, 0]	n/a	catFR1	0	R1227T
553.05	1.616	608083	WORD	n/a	wordpools/wordpool_categorized_EN.txt	FLOOR	Building	6	3	[0, 0, 0]	n/a	catFR1	0	R1227T
554.666	0.967	609699	WORD_OFF	n/a	n/a	FLOOR	n/a	6	3	[0, 0, 0]	n/a	catFR1	0	R1227T
555.633	1.618	610666	WORD	n/a	wordpools/wordpool_categorized_EN.txt	CHERRY	Fruit	7	3	[0, 0, 0]	n/a	catFR1	0	R1227T
557.251	0.9	612284	WORD_OFF	n/a	n/a	CHERRY	n/a	7	3	[0, 0, 0]	n/a	catFR1	0	R1227T
558.151	1.616	613184	WORD	n/a	wordpools/wordpool_categorized_EN.txt	GRAPE	Fruit	8	3	[0, 0, 0]	n/a	catFR1	0	R1227T
559.767	0.983	614800	WORD_OFF	n/a	n/a	GRAPE	n/a	8	3	[0, 0, 0]	n/a	catFR1	0	R1227T
560.75	1.618	615783	WORD	n/a	wordpools/wordpool_categorized_EN.txt	MARBLES	Toys	9	3	[0, 0, 0]	n/a	catFR1	0	R1227T
562.368	0.951	617401	WORD_OFF	n/a	n/a	MARBLES	n/a	9	3	[0, 0, 0]	n/a	catFR1	0	R1227T
563.319	1.616	618352	WORD	n/a	wordpools/wordpool_categorized_EN.txt	BLOCKS	Toys	10	3	[0, 0, 0]	n/a	catFR1	0	R1227T
564.935	0.833	619968	WORD_OFF	n/a	n/a	BLOCKS	n/a	10	3	[0, 0, 0]	n/a	catFR1	0	R1227T
565.768	1.618	620801	WORD	n/a	wordpools/wordpool_categorized_EN.txt	STAIRS	Building	11	3	[0, 0, 0]	n/a	catFR1	0	R1227T
567.386	0.983	622419	WORD_OFF	n/a	n/a	STAIRS	n/a	11	3	[0, 0, 0]	n/a	catFR1	0	R1227T
568.369	1.617	623401	WORD	n/a	wordpools/wordpool_categorized_EN.txt	ROOM	Building	12	3	[0, 0, 0]	n/a	catFR1	0	R1227T
569.986	0.001	625018	WORD_OFF	n/a	n/a	ROOM	n/a	12	3	[0, 0, 0]	n/a	catFR1	0	R1227T
569.987	0.108	625019	ENCODING_END	n/a	n/a	n/a	n/a	-999	3	[0, 0, 0]	n/a	catFR1	0	R1227T
570.095	0.0	625127	DISTRACT_START	n/a	n/a	n/a	n/a	-999	3	[0, 0, 0]	n/a	catFR1	0	R1227T
570.095	0.008	625127	START	n/a	n/a	n/a	n/a	-999	3	[-999, -999, -999]	n/a	catFR1	0	R1227T
570.103	6.534	625135	PROB	6.499	n/a	n/a	n/a	-999	3	[7, 3, 5]	9.0	catFR1	0	R1227T
576.637	3.867	631669	PROB	3.836	n/a	n/a	n/a	-999	3	[9, 8, 2]	9.0	catFR1	0	R1227T
580.504	4.117	635536	PROB	4.089	n/a	n/a	n/a	-999	3	[4, 3, 3]	8.0	catFR1	0	R1227T
584.621	3.868	639652	PROB	3.844	n/a	n/a	n/a	-999	3	[9, 3, 3]	6.0	catFR1	0	R1227T
588.489	2.976	643520	PROB	2.976	n/a	n/a	n/a	-999	3	[9, 4, 5]	4.0	catFR1	0	R1227T
591.465	0.008	646496	STOP	n/a	n/a	n/a	n/a	-999	3	[-999, -999, -999]	n/a	catFR1	0	R1227T
591.473	0.534	646504	DISTRACT_END	n/a	n/a	n/a	n/a	-999	3	[0, 0, 0]	n/a	catFR1	0	R1227T
592.007	0.517	647038	RETRIEVAL_ORIENT	n/a	n/a	n/a	n/a	-999	3	[0, 0, 0]	n/a	catFR1	0	R1227T
592.524	2.424	647555	REC_START	n/a	n/a	n/a	n/a	-999	3	[0, 0, 0]	n/a	catFR1	0	R1227T
594.948	1.183	649979	REC_WORD	2.424	n/a	BATHROOM	Building	5	3	[0, 0, 0]	n/a	catFR1	0	R1227T
596.131	1.263	651162	REC_WORD	3.607	n/a	FLOOR	Building	6	3	[0, 0, 0]	n/a	catFR1	0	R1227T
597.394	1.672	652425	REC_WORD	4.87	n/a	GRAPE	Fruit	8	3	[0, 0, 0]	n/a	catFR1	0	R1227T
599.066	2.374	654097	REC_WORD	6.542	n/a	PEAR	Fruit	1	3	[0, 0, 0]	n/a	catFR1	0	R1227T
601.44	21.095	656470	REC_WORD	8.916	n/a	BATHROOM	Building	5	3	[0, 0, 0]	n/a	catFR1	0	R1227T
622.535	31.949	677564	REC_END	n/a	n/a	n/a	n/a	-999	3	[0, 0, 0]	n/a	catFR1	0	R1227T
654.484	0.5	709511	TRIAL	n/a	n/a	n/a	n/a	-999	4	[0, 0, 0]	n/a	catFR1	0	R1227T
654.984	10.428	710011	COUNTDOWN_START	n/a	n/a	n/a	n/a	-999	4	[0, 0, 0]	n/a	catFR1	0	R1227T
665.412	0.008	720439	COUNTDOWN_END	n/a	n/a	n/a	n/a	-999	4	[0, 0, 0]	n/a	catFR1	0	R1227T
665.42	1.617	720447	ORIENT	n/a	n/a	n/a	n/a	-999	4	[0, 0, 0]	n/a	catFR1	0	R1227T
667.037	2.067	722063	ORIENT_OFF	n/a	n/a	n/a	n/a	-999	4	[0, 0, 0]	n/a	catFR1	0	R1227T
669.104	1.616	724130	WORD	n/a	wordpools/wordpool_categorized_EN.txt	IRON	Appliances	1	4	[0, 0, 0]	n/a	catFR1	0	R1227T
670.72	0.934	725746	WORD_OFF	n/a	n/a	IRON	n/a	1	4	[0, 0, 0]	n/a	catFR1	0	R1227T
671.654	1.618	726680	WORD	n/a	wordpools/wordpool_categorized_EN.txt	BLENDER	Appliances	2	4	[0, 0, 0]	n/a	catFR1	0	R1227T
673.272	0.933	728298	WORD_OFF	n/a	n/a	BLENDER	n/a	2	4	[0, 0, 0]	n/a	catFR1	0	R1227T
674.205	1.616	729231	WORD	n/a	wordpools/wordpool_categorized_EN.txt	DOLL	Toys	3	4	[0, 0, 0]	n/a	catFR1	0	R1227T
675.821	0.817	730847	WORD_OFF	n/a	n/a	DOLL	n/a	3	4	[0, 0, 0]	n/a	catFR1	0	R1227T
676.638	1.618	731664	WORD	n/a	wordpools/wordpool_categorized_EN.txt	BASEBALL	Toys	4	4	[0, 0, 0]	n/a	catFR1	0	R1227T
678.256	0.784	733282	WORD_OFF	n/a	n/a	BASEBALL	n/a	4	4	[0, 0, 0]	n/a	catFR1	0	R1227T
679.04	1.616	734066	WORD	n/a	wordpools/wordpool_categorized_EN.txt	PANTS	Clothing	5	4	[0, 0, 0]	n/a	catFR1	0	R1227T
680.656	0.966	735682	WORD_OFF	n/a	n/a	PANTS	n/a	5	4	[0, 0, 0]	n/a	catFR1	0	R1227T
681.622	1.602	736648	WORD	n/a	wordpools/wordpool_categorized_EN.txt	SHOES	Clothing	6	4	[0, 0, 0]	n/a	catFR1	0	R1227T
683.224	0.883	738249	WORD_OFF	n/a	n/a	SHOES	n/a	6	4	[0, 0, 0]	n/a	catFR1	0	R1227T
684.107	1.616	739132	WORD	n/a	wordpools/wordpool_categorized_EN.txt	MIXER	Appliances	7	4	[0, 0, 0]	n/a	catFR1	0	R1227T
685.723	0.934	740748	WORD_OFF	n/a	n/a	MIXER	n/a	7	4	[0, 0, 0]	n/a	catFR1	0	R1227T
686.657	1.618	741682	WORD	n/a	wordpools/wordpool_categorized_EN.txt	VACUUM	Appliances	8	4	[0, 0, 0]	n/a	catFR1	0	R1227T
688.275	0.8	743300	WORD_OFF	n/a	n/a	VACUUM	n/a	8	4	[0, 0, 0]	n/a	catFR1	0	R1227T
689.075	1.616	744100	WORD	n/a	wordpools/wordpool_categorized_EN.txt	PUZZLE	Toys	9	4	[0, 0, 0]	n/a	catFR1	0	R1227T
690.691	0.767	745716	WORD_OFF	n/a	n/a	PUZZLE	n/a	9	4	[0, 0, 0]	n/a	catFR1	0	R1227T
691.458	1.617	746483	WORD	n/a	wordpools/wordpool_categorized_EN.txt	BASKETBALL	Toys	10	4	[0, 0, 0]	n/a	catFR1	0	R1227T
693.075	0.817	748100	WORD_OFF	n/a	n/a	BASKETBALL	n/a	10	4	[0, 0, 0]	n/a	catFR1	0	R1227T
693.892	1.616	748917	WORD	n/a	wordpools/wordpool_categorized_EN.txt	UNDERWEAR	Clothing	11	4	[0, 0, 0]	n/a	catFR1	0	R1227T
695.508	0.851	750533	WORD_OFF	n/a	n/a	UNDERWEAR	n/a	11	4	[0, 0, 0]	n/a	catFR1	0	R1227T
696.359	1.617	751384	WORD	n/a	wordpools/wordpool_categorized_EN.txt	JACKET	Clothing	12	4	[0, 0, 0]	n/a	catFR1	0	R1227T
697.976	0.001	753001	WORD_OFF	n/a	n/a	JACKET	n/a	12	4	[0, 0, 0]	n/a	catFR1	0	R1227T
697.977	0.134	753002	ENCODING_END	n/a	n/a	n/a	n/a	-999	4	[0, 0, 0]	n/a	catFR1	0	R1227T
698.111	0.0	753136	DISTRACT_START	n/a	n/a	n/a	n/a	-999	4	[0, 0, 0]	n/a	catFR1	0	R1227T
698.111	0.015	753136	START	n/a	n/a	n/a	n/a	-999	4	[-999, -999, -999]	n/a	catFR1	0	R1227T
698.126	5.085	753151	PROB	5.059	n/a	n/a	n/a	-999	4	[6, 5, 9]	4.0	catFR1	0	R1227T
703.211	1.0	758235	PROB	0.967	n/a	n/a	n/a	-999	4	[7, 5, 6]	4.0	catFR1	0	R1227T
704.211	1.05	759235	PROB	1.014	n/a	n/a	n/a	-999	4	[9, 8, 8]	3.0	catFR1	0	R1227T
705.261	1.266	760285	PROB	1.235	n/a	n/a	n/a	-999	4	[1, 7, 8]	2.0	catFR1	0	R1227T
706.527	0.933	761551	PROB	0.907	n/a	n/a	n/a	-999	4	[3, 1, 8]	3.0	catFR1	0	R1227T
707.46	1.334	762484	PROB	1.309	n/a	n/a	n/a	-999	4	[4, 8, 4]	4.0	catFR1	0	R1227T
708.794	1.618	763818	PROB	1.592	n/a	n/a	n/a	-999	4	[7, 4, 6]	4.0	catFR1	0	R1227T
710.412	5.701	765436	PROB	5.663	n/a	n/a	n/a	-999	4	[3, 7, 2]	12.0	catFR1	0	R1227T
716.113	6.136	771136	PROB	6.136	n/a	n/a	n/a	-999	4	[3, 1, 7]	11.0	catFR1	0	R1227T
722.249	0.015	777272	STOP	n/a	n/a	n/a	n/a	-999	4	[-999, -999, -999]	n/a	catFR1	0	R1227T
722.264	0.566	777287	DISTRACT_END	n/a	n/a	n/a	n/a	-999	4	[0, 0, 0]	n/a	catFR1	0	R1227T
722.83	0.518	777853	RETRIEVAL_ORIENT	n/a	n/a	n/a	n/a	-999	4	[0, 0, 0]	n/a	catFR1	0	R1227T
723.348	1.801	778371	REC_START	n/a	n/a	n/a	n/a	-999	4	[0, 0, 0]	n/a	catFR1	0	R1227T
725.149	1.622	780172	REC_WORD	1.801	n/a	SCREWDRIVER	n/a	-999	4	[0, 0, 0]	n/a	catFR1	0	R1227T
726.771	1.542	781794	REC_WORD	3.423	n/a	BASKETBALL	Toys	10	4	[0, 0, 0]	n/a	catFR1	0	R1227T
728.313	3.13	783336	REC_WORD	4.965	n/a	PEAR	n/a	-999	4	[0, 0, 0]	n/a	catFR1	0	R1227T
731.443	2.798	786465	REC_WORD	8.095	n/a	FOOTBALL	n/a	-999	4	[0, 0, 0]	n/a	catFR1	0	R1227T
734.241	2.002	789263	REC_WORD	10.893	n/a	PANTS	Clothing	5	4	[0, 0, 0]	n/a	catFR1	0	R1227T
736.243	17.116	791265	REC_WORD	12.895	n/a	DOLLHOUSE	n/a	-999	4	[0, 0, 0]	n/a	catFR1	0	R1227T
753.359	6.361	808380	REC_END	n/a	n/a	n/a	n/a	-999	4	[0, 0, 0]	n/a	catFR1	0	R1227T
759.72	0.5	814741	TRIAL	n/a	n/a	n/a	n/a	-999	5	[0, 0, 0]	n/a	catFR1	0	R1227T
760.22	10.428	815241	COUNTDOWN_START	n/a	n/a	n/a	n/a	-999	5	[0, 0, 0]	n/a	catFR1	0	R1227T
770.648	0.007	825668	COUNTDOWN_END	n/a	n/a	n/a	n/a	-999	5	[0, 0, 0]	n/a	catFR1	0	R1227T
770.655	1.602	825675	ORIENT	n/a	n/a	n/a	n/a	-999	5	[0, 0, 0]	n/a	catFR1	0	R1227T
772.257	2.183	827277	ORIENT_OFF	n/a	n/a	n/a	n/a	-999	5	[0, 0, 0]	n/a	catFR1	0	R1227T
774.44	1.617	829460	WORD	n/a	wordpools/wordpool_categorized_EN.txt	TOASTER	Appliances	1	5	[0, 0, 0]	n/a	catFR1	0	R1227T
776.057	0.817	831077	WORD_OFF	n/a	n/a	TOASTER	n/a	1	5	[0, 0, 0]	n/a	catFR1	0	R1227T
776.874	1.616	831894	WORD	n/a	wordpools/wordpool_categorized_EN.txt	FREEZER	Appliances	2	5	[0, 0, 0]	n/a	catFR1	0	R1227T
778.49	0.901	833510	WORD_OFF	n/a	n/a	FREEZER	n/a	2	5	[0, 0, 0]	n/a	catFR1	0	R1227T
779.391	1.617	834411	WORD	n/a	wordpools/wordpool_categorized_EN.txt	ROACH	Insects	3	5	[0, 0, 0]	n/a	catFR1	0	R1227T
781.008	0.867	836027	WORD_OFF	n/a	n/a	ROACH	n/a	3	5	[0, 0, 0]	n/a	catFR1	0	R1227T
781.875	1.616	836894	WORD	n/a	wordpools/wordpool_categorized_EN.txt	FLY	Insects	4	5	[0, 0, 0]	n/a	catFR1	0	R1227T
783.491	0.801	838510	WORD_OFF	n/a	n/a	FLY	n/a	4	5	[0, 0, 0]	n/a	catFR1	0	R1227T
784.292	1.617	839311	WORD	n/a	wordpools/wordpool_categorized_EN.txt	STAPLER	OfficeSupplies	5	5	[0, 0, 0]	n/a	catFR1	0	R1227T
785.909	0.816	840928	WORD_OFF	n/a	n/a	STAPLER	n/a	5	5	[0, 0, 0]	n/a	catFR1	0	R1227T
786.725	1.618	841744	WORD	n/a	wordpools/wordpool_categorized_EN.txt	PENCIL	OfficeSupplies	6	5	[0, 0, 0]	n/a	catFR1	0	R1227T
788.343	0.883	843362	WORD_OFF	n/a	n/a	PENCIL	n/a	6	5	[0, 0, 0]	n/a	catFR1	0	R1227T
789.226	1.616	844245	WORD	n/a	wordpools/wordpool_categorized_EN.txt	MOTH	Insects	7	5	[0, 0, 0]	n/a	catFR1	0	R1227T
790.842	0.8	845861	WORD_OFF	n/a	n/a	MOTH	n/a	7	5	[0, 0, 0]	n/a	catFR1	0	R1227T
791.642	1.618	846661	WORD	n/a	wordpools/wordpool_categorized_EN.txt	MOSQUITO	Insects	8	5	[0, 0, 0]	n/a	catFR1	0	R1227T
793.26	0.917	848279	WORD_OFF	n/a	n/a	MOSQUITO	n/a	8	5	[0, 0, 0]	n/a	catFR1	0	R1227T
794.177	1.616	849196	WORD	n/a	wordpools/wordpool_categorized_EN.txt	DISHWASHER	Appliances	9	5	[0, 0, 0]	n/a	catFR1	0	R1227T
795.793	0.85	850812	WORD_OFF	n/a	n/a	DISHWASHER	n/a	9	5	[0, 0, 0]	n/a	catFR1	0	R1227T
796.643	1.601	851661	WORD	n/a	wordpools/wordpool_categorized_EN.txt	WASHER	Appliances	10	5	[0, 0, 0]	n/a	catFR1	0	R1227T
798.244	0.901	853262	WORD_OFF	n/a	n/a	WASHER	n/a	10	5	[0, 0, 0]	n/a	catFR1	0	R1227T
799.145	1.616	854163	WORD	n/a	wordpools/wordpool_categorized_EN.txt	ERASER	OfficeSupplies	11	5	[0, 0, 0]	n/a	catFR1	0	R1227T
800.761	0.933	855779	WORD_OFF	n/a	n/a	ERASER	n/a	11	5	[0, 0, 0]	n/a	catFR1	0	R1227T
801.694	1.618	856712	WORD	n/a	wordpools/wordpool_categorized_EN.txt	PEN	OfficeSupplies	12	5	[0, 0, 0]	n/a	catFR1	0	R1227T
803.312	0.001	858330	WORD_OFF	n/a	n/a	PEN	n/a	12	5	[0, 0, 0]	n/a	catFR1	0	R1227T
803.313	0.107	858331	ENCODING_END	n/a	n/a	n/a	n/a	-999	5	[0, 0, 0]	n/a	catFR1	0	R1227T
803.42	0.001	858438	DISTRACT_START	n/a	n/a	n/a	n/a	-999	5	[0, 0, 0]	n/a	catFR1	0	R1227T
803.421	0.008	858439	START	n/a	n/a	n/a	n/a	-999	5	[-999, -999, -999]	n/a	catFR1	0	R1227T
803.429	11.802	858447	PROB	11.773	n/a	n/a	n/a	-999	5	[6, 7, 5]	17.0	catFR1	0	R1227T
815.231	5.184	870248	PROB	5.155	n/a	n/a	n/a	-999	5	[9, 9, 5]	23.0	catFR1	0	R1227T
820.415	3.571	875432	PROB	3.571	n/a	n/a	n/a	-999	5	[8, 2, 2]	9.0	catFR1	0	R1227T
823.986	0.014	879003	STOP	n/a	n/a	n/a	n/a	-999	5	[-999, -999, -999]	n/a	catFR1	0	R1227T
824.0	0.615	879017	DISTRACT_END	n/a	n/a	n/a	n/a	-999	5	[0, 0, 0]	n/a	catFR1	0	R1227T
824.615	0.518	879632	RETRIEVAL_ORIENT	n/a	n/a	n/a	n/a	-999	5	[0, 0, 0]	n/a	catFR1	0	R1227T
825.133	3.509	880150	REC_START	n/a	n/a	n/a	n/a	-999	5	[0, 0, 0]	n/a	catFR1	0	R1227T
828.642	2.345	883659	REC_WORD	3.509	n/a	MOSQUITO	Insects	8	5	[0, 0, 0]	n/a	catFR1	0	R1227T
830.987	1.599	886003	REC_WORD	5.854	n/a	WRENCH	n/a	-999	5	[0, 0, 0]	n/a	catFR1	0	R1227T
832.586	1.849	887602	REC_WORD	7.453	n/a	PEAR	n/a	-999	5	[0, 0, 0]	n/a	catFR1	0	R1227T
834.435	2.141	889451	REC_WORD	9.302	n/a	TOASTER	Appliances	1	5	[0, 0, 0]	n/a	catFR1	0	R1227T
836.576	5.828	891592	REC_WORD_VV	11.443	n/a	<>	n/a	-999	5	[0, 0, 0]	n/a	catFR1	0	R1227T
842.404	5.135	897420	REC_WORD	17.271	n/a	BATHROOM	n/a	-999	5	[0, 0, 0]	n/a	catFR1	0	R1227T
847.539	1.794	902554	REC_WORD	22.406	n/a	DOLLHOUSE	n/a	-999	5	[0, 0, 0]	n/a	catFR1	0	R1227T
849.333	2.347	904348	REC_WORD	24.2	n/a	JACKET	n/a	-999	5	[0, 0, 0]	n/a	catFR1	0	R1227T
851.68	3.465	906695	REC_WORD	26.547	n/a	TOASTER	Appliances	1	5	[0, 0, 0]	n/a	catFR1	0	R1227T
855.145	6.61	910160	REC_END	n/a	n/a	n/a	n/a	-999	5	[0, 0, 0]	n/a	catFR1	0	R1227T
861.755	0.5	916770	TRIAL	n/a	n/a	n/a	n/a	-999	6	[0, 0, 0]	n/a	catFR1	0	R1227T
862.255	10.428	917269	COUNTDOWN_START	n/a	n/a	n/a	n/a	-999	6	[0, 0, 0]	n/a	catFR1	0	R1227T
872.683	0.008	927697	COUNTDOWN_END	n/a	n/a	n/a	n/a	-999	6	[0, 0, 0]	n/a	catFR1	0	R1227T
872.691	1.618	927705	ORIENT	n/a	n/a	n/a	n/a	-999	6	[0, 0, 0]	n/a	catFR1	0	R1227T
874.309	1.933	929323	ORIENT_OFF	n/a	n/a	n/a	n/a	-999	6	[0, 0, 0]	n/a	catFR1	0	R1227T
876.242	1.617	931256	WORD	n/a	wordpools/wordpool_categorized_EN.txt	CIDER	Beverages	1	6	[0, 0, 0]	n/a	catFR1	0	R1227T
877.859	0.933	932873	WORD_OFF	n/a	n/a	CIDER	n/a	1	6	[0, 0, 0]	n/a	catFR1	0	R1227T
878.792	1.618	933805	WORD	n/a	wordpools/wordpool_categorized_EN.txt	WINE	Beverages	2	6	[0, 0, 0]	n/a	catFR1	0	R1227T
880.41	0.967	935423	WORD_OFF	n/a	n/a	WINE	n/a	2	6	[0, 0, 0]	n/a	catFR1	0	R1227T
881.377	1.616	936390	WORD	n/a	wordpools/wordpool_categorized_EN.txt	MOUNTAIN	Landscapes	3	6	[0, 0, 0]	n/a	catFR1	0	R1227T
882.993	0.884	938006	WORD_OFF	n/a	n/a	MOUNTAIN	n/a	3	6	[0, 0, 0]	n/a	catFR1	0	R1227T
883.877	1.616	938890	WORD	n/a	wordpools/wordpool_categorized_EN.txt	ISLAND	Landscapes	4	6	[0, 0, 0]	n/a	catFR1	0	R1227T
885.493	0.868	940506	WORD_OFF	n/a	n/a	ISLAND	n/a	4	6	[0, 0, 0]	n/a	catFR1	0	R1227T
886.361	1.617	941374	WORD	n/a	wordpools/wordpool_categorized_EN.txt	TAPE	OfficeSupplies	5	6	[0, 0, 0]	n/a	catFR1	0	R1227T
887.978	0.9	942991	WORD_OFF	n/a	n/a	TAPE	n/a	5	6	[0, 0, 0]	n/a	catFR1	0	R1227T
888.878	1.616	943891	WORD	n/a	wordpools/wordpool_categorized_EN.txt	NOTEBOOK	OfficeSupplies	6	6	[0, 0, 0]	n/a	catFR1	0	R1227T
890.494	0.951	945507	WORD_OFF	n/a	n/a	NOTEBOOK	n/a	6	6	[0, 0, 0]	n/a	catFR1	0	R1227T
891.445	1.617	946458	WORD	n/a	wordpools/wordpool_categorized_EN.txt	VALLEY	Landscapes	7	6	[0, 0, 0]	n/a	catFR1	0	R1227T
893.062	0.765	948075	WORD_OFF	n/a	n/a	VALLEY	n/a	7	6	[0, 0, 0]	n/a	catFR1	0	R1227T
893.827	1.619	948840	WORD	n/a	wordpools/wordpool_categorized_EN.txt	HILLS	Landscapes	8	6	[0, 0, 0]	n/a	catFR1	0	R1227T
895.446	0.833	950458	WORD_OFF	n/a	n/a	HILLS	n/a	8	6	[0, 0, 0]	n/a	catFR1	0	R1227T
896.279	1.617	951291	WORD	n/a	wordpools/wordpool_categorized_EN.txt	JUICE	Beverages	9	6	[0, 0, 0]	n/a	catFR1	0	R1227T
897.896	0.849	952908	WORD_OFF	n/a	n/a	JUICE	n/a	9	6	[0, 0, 0]	n/a	catFR1	0	R1227T
898.745	1.618	953757	WORD	n/a	wordpools/wordpool_categorized_EN.txt	MILK	Beverages	10	6	[0, 0, 0]	n/a	catFR1	0	R1227T
900.363	0.85	955375	WORD_OFF	n/a	n/a	MILK	n/a	10	6	[0, 0, 0]	n/a	catFR1	0	R1227T
901.213	1.616	956225	WORD	n/a	wordpools/wordpool_categorized_EN.txt	MARKER	OfficeSupplies	11	6	[0, 0, 0]	n/a	catFR1	0	R1227T
902.829	0.867	957841	WORD_OFF	n/a	n/a	MARKER	n/a	11	6	[0, 0, 0]	n/a	catFR1	0	R1227T
903.696	1.601	958708	WORD	n/a	wordpools/wordpool_categorized_EN.txt	PAPER	OfficeSupplies	12	6	[0, 0, 0]	n/a	catFR1	0	R1227T
905.297	0.0	960309	ENCODING_END	n/a	n/a	n/a	n/a	-999	6	[0, 0, 0]	n/a	catFR1	0	R1227T
905.297	0.104	960309	WORD_OFF	n/a	n/a	PAPER	n/a	12	6	[0, 0, 0]	n/a	catFR1	0	R1227T
905.401	0.0	960413	DISTRACT_START	n/a	n/a	n/a	n/a	-999	6	[0, 0, 0]	n/a	catFR1	0	R1227T
905.401	0.013	960413	START	n/a	n/a	n/a	n/a	-999	6	[-999, -999, -999]	n/a	catFR1	0	R1227T
905.414	5.768	960426	PROB	5.74	n/a	n/a	n/a	-999	6	[2, 8, 3]	13.0	catFR1	0	R1227T
911.182	2.084	966193	PROB	2.045	n/a	n/a	n/a	-999	6	[6, 7, 5]	4.0	catFR1	0	R1227T
913.266	1.817	968277	PROB	1.792	n/a	n/a	n/a	-999	6	[9, 6, 9]	5.0	catFR1	0	R1227T
915.083	1.449	970094	PROB	1.414	n/a	n/a	n/a	-999	6	[5, 7, 1]	3.0	catFR1	0	R1227T
916.532	1.384	971543	PROB	1.358	n/a	n/a	n/a	-999	6	[1, 2, 9]	4.0	catFR1	0	R1227T
917.916	1.683	972927	PROB	1.66	n/a	n/a	n/a	-999	6	[6, 8, 4]	5.0	catFR1	0	R1227T
919.599	1.501	974610	PROB	1.475	n/a	n/a	n/a	-999	6	[2, 1, 9]	6.0	catFR1	0	R1227T
921.1	1.101	976111	PROB	1.063	n/a	n/a	n/a	-999	6	[9, 6, 5]	5.0	catFR1	0	R1227T
922.201	1.183	977212	PROB	1.146	n/a	n/a	n/a	-999	6	[9, 2, 2]	5.0	catFR1	0	R1227T
923.384	1.017	978395	PROB	0.978	n/a	n/a	n/a	-999	6	[3, 3, 2]	4.0	catFR1	0	R1227T
924.401	1.441	979412	PROB	1.441	n/a	n/a	n/a	-999	6	[6, 6, 1]	3.0	catFR1	0	R1227T
925.842	0.009	980853	STOP	n/a	n/a	n/a	n/a	-999	6	[-999, -999, -999]	n/a	catFR1	0	R1227T
925.851	0.632	980862	DISTRACT_END	n/a	n/a	n/a	n/a	-999	6	[0, 0, 0]	n/a	catFR1	0	R1227T
926.483	0.519	981494	RETRIEVAL_ORIENT	n/a	n/a	n/a	n/a	-999	6	[0, 0, 0]	n/a	catFR1	0	R1227T
927.002	1.588	982013	REC_START	n/a	n/a	n/a	n/a	-999	6	[0, 0, 0]	n/a	catFR1	0	R1227T
928.59	0.922	983600	REC_WORD	1.588	n/a	CIDER	Beverages	1	6	[0, 0, 0]	n/a	catFR1	0	R1227T
929.512	1.627	984522	REC_WORD	2.51	n/a	VALLEY	Landscapes	7	6	[0, 0, 0]	n/a	catFR1	0	R1227T
931.139	3.472	986149	REC_WORD	4.137	n/a	HILLS	Landscapes	8	6	[0, 0, 0]	n/a	catFR1	0	R1227T
934.611	22.401	989621	REC_WORD	7.609	n/a	BATHROOM	n/a	-999	6	[0, 0, 0]	n/a	catFR1	0	R1227T
957.012	11.479	1012021	REC_END	n/a	n/a	n/a	n/a	-999	6	[0, 0, 0]	n/a	catFR1	0	R1227T
968.491	0.5	1023499	TRIAL	n/a	n/a	n/a	n/a	-999	7	[0, 0, 0]	n/a	catFR1	0	R1227T
968.991	10.428	1023999	COUNTDOWN_START	n/a	n/a	n/a	n/a	-999	7	[0, 0, 0]	n/a	catFR1	0	R1227T
979.419	0.009	1034426	COUNTDOWN_END	n/a	n/a	n/a	n/a	-999	7	[0, 0, 0]	n/a	catFR1	0	R1227T
979.428	1.617	1034435	ORIENT	n/a	n/a	n/a	n/a	-999	7	[0, 0, 0]	n/a	catFR1	0	R1227T
981.045	2.067	1036052	ORIENT_OFF	n/a	n/a	n/a	n/a	-999	7	[0, 0, 0]	n/a	catFR1	0	R1227T
983.112	1.616	1038119	WORD	n/a	wordpools/wordpool_categorized_EN.txt	REFRIGERATOR	Appliances	1	7	[0, 0, 0]	n/a	catFR1	0	R1227T
984.728	0.9	1039735	WORD_OFF	n/a	n/a	REFRIGERATOR	n/a	1	7	[0, 0, 0]	n/a	catFR1	0	R1227T
985.628	1.618	1040635	WORD	n/a	wordpools/wordpool_categorized_EN.txt	OVEN	Appliances	2	7	[0, 0, 0]	n/a	catFR1	0	R1227T
987.246	0.967	1042253	WORD_OFF	n/a	n/a	OVEN	n/a	2	7	[0, 0, 0]	n/a	catFR1	0	R1227T
988.213	1.615	1043220	WORD	n/a	wordpools/wordpool_categorized_EN.txt	CARNATION	Flowers	3	7	[0, 0, 0]	n/a	catFR1	0	R1227T
989.828	0.801	1044835	WORD_OFF	n/a	n/a	CARNATION	n/a	3	7	[0, 0, 0]	n/a	catFR1	0	R1227T
990.629	1.601	1045636	WORD	n/a	wordpools/wordpool_categorized_EN.txt	DAISY	Flowers	4	7	[0, 0, 0]	n/a	catFR1	0	R1227T
992.23	0.85	1047237	WORD_OFF	n/a	n/a	DAISY	n/a	4	7	[0, 0, 0]	n/a	catFR1	0	R1227T
993.08	1.616	1048086	WORD	n/a	wordpools/wordpool_categorized_EN.txt	LADLE	KitchenTools	5	7	[0, 0, 0]	n/a	catFR1	0	R1227T
994.696	0.85	1049702	WORD_OFF	n/a	n/a	LADLE	n/a	5	7	[0, 0, 0]	n/a	catFR1	0	R1227T
995.546	1.618	1050552	WORD	n/a	wordpools/wordpool_categorized_EN.txt	PEELER	KitchenTools	6	7	[0, 0, 0]	n/a	catFR1	0	R1227T
997.164	0.767	1052170	WORD_OFF	n/a	n/a	PEELER	n/a	6	7	[0, 0, 0]	n/a	catFR1	0	R1227T
997.931	1.616	1052937	WORD	n/a	wordpools/wordpool_categorized_EN.txt	DAFFODIL	Flowers	7	7	[0, 0, 0]	n/a	catFR1	0	R1227T
999.547	0.834	1054553	WORD_OFF	n/a	n/a	DAFFODIL	n/a	7	7	[0, 0, 0]	n/a	catFR1	0	R1227T
1000.381	1.617	1055387	WORD	n/a	wordpools/wordpool_categorized_EN.txt	ORCHID	Flowers	8	7	[0, 0, 0]	n/a	catFR1	0	R1227T
1001.998	0.867	1057004	WORD_OFF	n/a	n/a	ORCHID	n/a	8	7	[0, 0, 0]	n/a	catFR1	0	R1227T
1002.865	1.616	1057871	WORD	n/a	wordpools/wordpool_categorized_EN.txt	DRYER	Appliances	9	7	[0, 0, 0]	n/a	catFR1	0	R1227T
1004.481	0.918	1059487	WORD_OFF	n/a	n/a	DRYER	n/a	9	7	[0, 0, 0]	n/a	catFR1	0	R1227T
1005.399	1.617	1060405	WORD	n/a	wordpools/wordpool_categorized_EN.txt	STOVE	Appliances	10	7	[0, 0, 0]	n/a	catFR1	0	R1227T
1007.016	0.883	1062022	WORD_OFF	n/a	n/a	STOVE	n/a	10	7	[0, 0, 0]	n/a	catFR1	0	R1227T
1007.899	1.616	1062905	WORD	n/a	wordpools/wordpool_categorized_EN.txt	FORK	KitchenTools	11	7	[0, 0, 0]	n/a	catFR1	0	R1227T
1009.515	0.868	1064520	WORD_OFF	n/a	n/a	FORK	n/a	11	7	[0, 0, 0]	n/a	catFR1	0	R1227T
1010.383	1.617	1065388	WORD	n/a	wordpools/wordpool_categorized_EN.txt	SPOON	KitchenTools	12	7	[0, 0, 0]	n/a	catFR1	0	R1227T
1012.0	0.0	1067005	ENCODING_END	n/a	n/a	n/a	n/a	-999	7	[0, 0, 0]	n/a	catFR1	0	R1227T
1012.0	0.133	1067005	WORD_OFF	n/a	n/a	SPOON	n/a	12	7	[0, 0, 0]	n/a	catFR1	0	R1227T
1012.133	0.0	1067138	DISTRACT_START	n/a	n/a	n/a	n/a	-999	7	[0, 0, 0]	n/a	catFR1	0	R1227T
1012.133	0.017	1067138	START	n/a	n/a	n/a	n/a	-999	7	[-999, -999, -999]	n/a	catFR1	0	R1227T
1012.15	3.851	1067155	PROB	3.828	n/a	n/a	n/a	-999	7	[1, 2, 1]	3.0	catFR1	0	R1227T
1016.001	1.033	1071006	PROB	1.001	n/a	n/a	n/a	-999	7	[4, 5, 8]	3.0	catFR1	0	R1227T
1017.034	1.45	1072039	PROB	1.416	n/a	n/a	n/a	-999	7	[7, 9, 2]	2.0	catFR1	0	R1227T
1018.484	1.0	1073489	PROB	0.974	n/a	n/a	n/a	-999	7	[7, 4, 1]	3.0	catFR1	0	R1227T
1019.484	0.951	1074489	PROB	0.927	n/a	n/a	n/a	-999	7	[9, 6, 4]	2.0	catFR1	0	R1227T
1020.435	1.0	1075440	PROB	0.967	n/a	n/a	n/a	-999	7	[2, 3, 5]	3.0	catFR1	0	R1227T
1021.435	1.684	1076440	PROB	1.648	n/a	n/a	n/a	-999	7	[3, 8, 1]	43.0	catFR1	0	R1227T
1023.119	1.183	1078124	PROB	1.156	n/a	n/a	n/a	-999	7	[1, 7, 6]	23.0	catFR1	0	R1227T
1024.302	1.701	1079307	PROB	1.677	n/a	n/a	n/a	-999	7	[6, 5, 5]	43.0	catFR1	0	R1227T
1026.003	1.867	1081007	PROB	1.839	n/a	n/a	n/a	-999	7	[1, 7, 1]	2.0	catFR1	0	R1227T
1027.87	4.443	1082874	PROB	4.443	n/a	n/a	n/a	-999	7	[1, 7, 7]	15.0	catFR1	0	R1227T
1032.313	0.008	1087317	STOP	n/a	n/a	n/a	n/a	-999	7	[-999, -999, -999]	n/a	catFR1	0	R1227T
1032.321	0.666	1087325	DISTRACT_END	n/a	n/a	n/a	n/a	-999	7	[0, 0, 0]	n/a	catFR1	0	R1227T
1032.987	0.517	1087991	RETRIEVAL_ORIENT	n/a	n/a	n/a	n/a	-999	7	[0, 0, 0]	n/a	catFR1	0	R1227T
1033.504	1.446	1088508	REC_START	n/a	n/a	n/a	n/a	-999	7	[0, 0, 0]	n/a	catFR1	0	R1227T
1034.95	1.51	1089954	REC_WORD	1.446	n/a	REFRIGERATOR	Appliances	1	7	[0, 0, 0]	n/a	catFR1	0	R1227T
1036.46	2.977	1091464	REC_WORD	2.956	n/a	DOVE	n/a	-999	7	[0, 0, 0]	n/a	catFR1	0	R1227T
1039.437	9.933	1094441	REC_WORD	5.933	n/a	FORK	KitchenTools	11	7	[0, 0, 0]	n/a	catFR1	0	R1227T
1049.37	6.433	1104373	REC_WORD	15.866	n/a	BLUE	n/a	-999	7	[0, 0, 0]	n/a	catFR1	0	R1227T
1055.803	1.503	1110806	REC_WORD	22.299	n/a	SPOON	KitchenTools	12	7	[0, 0, 0]	n/a	catFR1	0	R1227T
1057.306	6.208	1112309	REC_WORD	23.802	n/a	SPORK	n/a	-999	7	[0, 0, 0]	n/a	catFR1	0	R1227T
1063.514	6.229	1118516	REC_END	n/a	n/a	n/a	n/a	-999	7	[0, 0, 0]	n/a	catFR1	0	R1227T
1069.743	0.5	1124745	TRIAL	n/a	n/a	n/a	n/a	-999	8	[0, 0, 0]	n/a	catFR1	0	R1227T
1070.243	10.428	1125245	COUNTDOWN_START	n/a	n/a	n/a	n/a	-999	8	[0, 0, 0]	n/a	catFR1	0	R1227T
1080.671	0.007	1135672	COUNTDOWN_END	n/a	n/a	n/a	n/a	-999	8	[0, 0, 0]	n/a	catFR1	0	R1227T
1080.678	1.602	1135679	ORIENT	n/a	n/a	n/a	n/a	-999	8	[0, 0, 0]	n/a	catFR1	0	R1227T
1082.28	2.05	1137281	ORIENT_OFF	n/a	n/a	n/a	n/a	-999	8	[0, 0, 0]	n/a	catFR1	0	R1227T
1084.33	1.617	1139331	WORD	n/a	wordpools/wordpool_categorized_EN.txt	SCOOTER	Vehicles	1	8	[0, 0, 0]	n/a	catFR1	0	R1227T
1085.947	0.783	1140948	WORD_OFF	n/a	n/a	SCOOTER	n/a	1	8	[0, 0, 0]	n/a	catFR1	0	R1227T
1086.73	1.617	1141731	WORD	n/a	wordpools/wordpool_categorized_EN.txt	BUS	Vehicles	2	8	[0, 0, 0]	n/a	catFR1	0	R1227T
1088.347	0.817	1143348	WORD_OFF	n/a	n/a	BUS	n/a	2	8	[0, 0, 0]	n/a	catFR1	0	R1227T
1089.164	1.616	1144165	WORD	n/a	wordpools/wordpool_categorized_EN.txt	OCEAN	Landscapes	3	8	[0, 0, 0]	n/a	catFR1	0	R1227T
1090.78	0.9	1145780	WORD_OFF	n/a	n/a	OCEAN	n/a	3	8	[0, 0, 0]	n/a	catFR1	0	R1227T
1091.68	1.618	1146680	WORD	n/a	wordpools/wordpool_categorized_EN.txt	CREEK	Landscapes	4	8	[0, 0, 0]	n/a	catFR1	0	R1227T
1093.298	0.817	1148298	WORD_OFF	n/a	n/a	CREEK	n/a	4	8	[0, 0, 0]	n/a	catFR1	0	R1227T
1094.115	1.616	1149115	WORD	n/a	wordpools/wordpool_categorized_EN.txt	AXE	Tools	5	8	[0, 0, 0]	n/a	catFR1	0	R1227T
1095.731	1.0	1150731	WORD_OFF	n/a	n/a	AXE	n/a	5	8	[0, 0, 0]	n/a	catFR1	0	R1227T
1096.731	1.618	1151731	WORD	n/a	wordpools/wordpool_categorized_EN.txt	RATCHET	Tools	6	8	[0, 0, 0]	n/a	catFR1	0	R1227T
1098.349	0.9	1153349	WORD_OFF	n/a	n/a	RATCHET	n/a	6	8	[0, 0, 0]	n/a	catFR1	0	R1227T
1099.249	1.617	1154249	WORD	n/a	wordpools/wordpool_categorized_EN.txt	RIVER	Landscapes	7	8	[0, 0, 0]	n/a	catFR1	0	R1227T
1100.866	0.85	1155866	WORD_OFF	n/a	n/a	RIVER	n/a	7	8	[0, 0, 0]	n/a	catFR1	0	R1227T
1101.716	1.618	1156716	WORD	n/a	wordpools/wordpool_categorized_EN.txt	WOODS	Landscapes	8	8	[0, 0, 0]	n/a	catFR1	0	R1227T
1103.334	0.9	1158334	WORD_OFF	n/a	n/a	WOODS	n/a	8	8	[0, 0, 0]	n/a	catFR1	0	R1227T
1104.234	1.617	1159234	WORD	n/a	wordpools/wordpool_categorized_EN.txt	TRUCK	Vehicles	9	8	[0, 0, 0]	n/a	catFR1	0	R1227T
1105.851	0.815	1160851	WORD_OFF	n/a	n/a	TRUCK	n/a	9	8	[0, 0, 0]	n/a	catFR1	0	R1227T
1106.666	1.618	1161666	WORD	n/a	wordpools/wordpool_categorized_EN.txt	MOPED	Vehicles	10	8	[0, 0, 0]	n/a	catFR1	0	R1227T
1108.284	0.768	1163283	WORD_OFF	n/a	n/a	MOPED	n/a	10	8	[0, 0, 0]	n/a	catFR1	0	R1227T
1109.052	1.615	1164051	WORD	n/a	wordpools/wordpool_categorized_EN.txt	SHOVEL	Tools	11	8	[0, 0, 0]	n/a	catFR1	0	R1227T
1110.667	0.768	1165666	WORD_OFF	n/a	n/a	SHOVEL	n/a	11	8	[0, 0, 0]	n/a	catFR1	0	R1227T
1111.435	1.617	1166434	WORD	n/a	wordpools/wordpool_categorized_EN.txt	SAW	Tools	12	8	[0, 0, 0]	n/a	catFR1	0	R1227T
1113.052	0.0	1168051	ENCODING_END	n/a	n/a	n/a	n/a	-999	8	[0, 0, 0]	n/a	catFR1	0	R1227T
1113.052	0.106	1168051	WORD_OFF	n/a	n/a	SAW	n/a	12	8	[0, 0, 0]	n/a	catFR1	0	R1227T
1113.158	0.0	1168157	DISTRACT_START	n/a	n/a	n/a	n/a	-999	8	[0, 0, 0]	n/a	catFR1	0	R1227T
1113.158	0.011	1168157	START	n/a	n/a	n/a	n/a	-999	8	[-999, -999, -999]	n/a	catFR1	0	R1227T
1113.169	12.018	1168168	PROB	11.994	n/a	n/a	n/a	-999	8	[2, 1, 9]	13.0	catFR1	0	R1227T
1125.187	3.785	1180185	PROB	3.758	n/a	n/a	n/a	-999	8	[4, 7, 2]	1.0	catFR1	0	R1227T
1128.972	3.733	1183970	PROB	3.7	n/a	n/a	n/a	-999	8	[4, 8, 8]	34.0	catFR1	0	R1227T
1132.705	4.458	1187703	PROB	4.458	n/a	n/a	n/a	-999	8	[1, 5, 4]	10.0	catFR1	0	R1227T
1137.163	0.01	1192161	STOP	n/a	n/a	n/a	n/a	-999	8	[-999, -999, -999]	n/a	catFR1	0	R1227T
1137.173	0.649	1192171	DISTRACT_END	n/a	n/a	n/a	n/a	-999	8	[0, 0, 0]	n/a	catFR1	0	R1227T
1137.822	0.502	1192820	RETRIEVAL_ORIENT	n/a	n/a	n/a	n/a	-999	8	[0, 0, 0]	n/a	catFR1	0	R1227T
1138.324	1.457	1193322	REC_START	n/a	n/a	n/a	n/a	-999	8	[0, 0, 0]	n/a	catFR1	0	R1227T
1139.781	3.139	1194778	REC_WORD	1.457	n/a	SPOON	n/a	-999	8	[0, 0, 0]	n/a	catFR1	0	R1227T
1142.92	1.783	1197917	REC_WORD	4.596	n/a	RATCHET	Tools	6	8	[0, 0, 0]	n/a	catFR1	0	R1227T
1144.703	2.721	1199700	REC_WORD_VV	6.379	n/a	<>	n/a	-999	8	[0, 0, 0]	n/a	catFR1	0	R1227T
1147.424	20.912	1202421	REC_WORD	9.1	n/a	SPORK	n/a	-999	8	[0, 0, 0]	n/a	catFR1	0	R1227T
1168.336	7.293	1223332	REC_END	n/a	n/a	n/a	n/a	-999	8	[0, 0, 0]	n/a	catFR1	0	R1227T
1175.629	0.5	1230624	TRIAL	n/a	n/a	n/a	n/a	-999	9	[0, 0, 0]	n/a	catFR1	0	R1227T
1176.129	10.428	1231124	COUNTDOWN_START	n/a	n/a	n/a	n/a	-999	9	[0, 0, 0]	n/a	catFR1	0	R1227T
1186.557	0.007	1241552	COUNTDOWN_END	n/a	n/a	n/a	n/a	-999	9	[0, 0, 0]	n/a	catFR1	0	R1227T
1186.564	1.602	1241559	ORIENT	n/a	n/a	n/a	n/a	-999	9	[0, 0, 0]	n/a	catFR1	0	R1227T
1188.166	2.25	1243161	ORIENT_OFF	n/a	n/a	n/a	n/a	-999	9	[0, 0, 0]	n/a	catFR1	0	R1227T
1190.416	1.617	1245410	WORD	n/a	wordpools/wordpool_categorized_EN.txt	RAIN	Weather	1	9	[0, 0, 0]	n/a	catFR1	0	R1227T
1192.033	0.867	1247027	WORD_OFF	n/a	n/a	RAIN	n/a	1	9	[0, 0, 0]	n/a	catFR1	0	R1227T
1192.9	1.616	1247894	WORD	n/a	wordpools/wordpool_categorized_EN.txt	LIGHTNING	Weather	2	9	[0, 0, 0]	n/a	catFR1	0	R1227T
1194.516	0.967	1249510	WORD_OFF	n/a	n/a	LIGHTNING	n/a	2	9	[0, 0, 0]	n/a	catFR1	0	R1227T
1195.483	1.618	1250477	WORD	n/a	wordpools/wordpool_categorized_EN.txt	ONION	Vegetables	3	9	[0, 0, 0]	n/a	catFR1	0	R1227T
1197.101	0.8	1252095	WORD_OFF	n/a	n/a	ONION	n/a	3	9	[0, 0, 0]	n/a	catFR1	0	R1227T
1197.901	1.616	1252895	WORD	n/a	wordpools/wordpool_categorized_EN.txt	CORN	Vegetables	4	9	[0, 0, 0]	n/a	catFR1	0	R1227T
1199.517	0.933	1254511	WORD_OFF	n/a	n/a	CORN	n/a	4	9	[0, 0, 0]	n/a	catFR1	0	R1227T
1200.45	1.618	1255444	WORD	n/a	wordpools/wordpool_categorized_EN.txt	APPLE	Fruit	5	9	[0, 0, 0]	n/a	catFR1	0	R1227T
1202.068	0.817	1257062	WORD_OFF	n/a	n/a	APPLE	n/a	5	9	[0, 0, 0]	n/a	catFR1	0	R1227T
1202.885	1.616	1257879	WORD	n/a	wordpools/wordpool_categorized_EN.txt	PEACH	Fruit	6	9	[0, 0, 0]	n/a	catFR1	0	R1227T
1204.501	1.0	1259495	WORD_OFF	n/a	n/a	PEACH	n/a	6	9	[0, 0, 0]	n/a	catFR1	0	R1227T
1205.501	1.601	1260494	WORD	n/a	wordpools/wordpool_categorized_EN.txt	CELERY	Vegetables	7	9	[0, 0, 0]	n/a	catFR1	0	R1227T
1207.102	0.817	1262095	WORD_OFF	n/a	n/a	CELERY	n/a	7	9	[0, 0, 0]	n/a	catFR1	0	R1227T
1207.919	1.616	1262912	WORD	n/a	wordpools/wordpool_categorized_EN.txt	CABBAGE	Vegetables	8	9	[0, 0, 0]	n/a	catFR1	0	R1227T
1209.535	0.868	1264528	WORD_OFF	n/a	n/a	CABBAGE	n/a	8	9	[0, 0, 0]	n/a	catFR1	0	R1227T
1210.403	1.617	1265396	WORD	n/a	wordpools/wordpool_categorized_EN.txt	THUNDER	Weather	9	9	[0, 0, 0]	n/a	catFR1	0	R1227T
1212.02	0.867	1267013	WORD_OFF	n/a	n/a	THUNDER	n/a	9	9	[0, 0, 0]	n/a	catFR1	0	R1227T
1212.887	1.616	1267880	WORD	n/a	wordpools/wordpool_categorized_EN.txt	TORNADO	Weather	10	9	[0, 0, 0]	n/a	catFR1	0	R1227T
1214.503	0.983	1269496	WORD_OFF	n/a	n/a	TORNADO	n/a	10	9	[0, 0, 0]	n/a	catFR1	0	R1227T
1215.486	1.618	1270479	WORD	n/a	wordpools/wordpool_categorized_EN.txt	BLUEBERRY	Fruit	11	9	[0, 0, 0]	n/a	catFR1	0	R1227T
1217.104	0.95	1272097	WORD_OFF	n/a	n/a	BLUEBERRY	n/a	11	9	[0, 0, 0]	n/a	catFR1	0	R1227T
1218.054	1.616	1273047	WORD	n/a	wordpools/wordpool_categorized_EN.txt	BANANA	Fruit	12	9	[0, 0, 0]	n/a	catFR1	0	R1227T
1219.67	0.001	1274663	WORD_OFF	n/a	n/a	BANANA	n/a	12	9	[0, 0, 0]	n/a	catFR1	0	R1227T
1219.671	0.143	1274664	ENCODING_END	n/a	n/a	n/a	n/a	-999	9	[0, 0, 0]	n/a	catFR1	0	R1227T
1219.814	0.0	1274807	DISTRACT_START	n/a	n/a	n/a	n/a	-999	9	[0, 0, 0]	n/a	catFR1	0	R1227T
1219.814	0.023	1274807	START	n/a	n/a	n/a	n/a	-999	9	[-999, -999, -999]	n/a	catFR1	0	R1227T
1219.837	3.552	1274830	PROB	3.526	n/a	n/a	n/a	-999	9	[7, 2, 1]	3.0	catFR1	0	R1227T
1223.389	1.349	1278381	PROB	1.316	n/a	n/a	n/a	-999	9	[6, 3, 6]	4.0	catFR1	0	R1227T
1224.738	0.967	1279730	PROB	0.935	n/a	n/a	n/a	-999	9	[6, 1, 2]	4.0	catFR1	0	R1227T
1225.705	1.067	1280697	PROB	1.031	n/a	n/a	n/a	-999	9	[9, 9, 3]	5.0	catFR1	0	R1227T
1226.772	0.883	1281764	PROB	0.861	n/a	n/a	n/a	-999	9	[4, 1, 3]	5.0	catFR1	0	R1227T
1227.655	0.751	1282647	PROB	0.716	n/a	n/a	n/a	-999	9	[1, 4, 6]	4.0	catFR1	0	R1227T
1228.406	0.767	1283398	PROB	0.732	n/a	n/a	n/a	-999	9	[2, 8, 8]	3.0	catFR1	0	R1227T
1229.173	1.067	1284165	PROB	1.028	n/a	n/a	n/a	-999	9	[4, 1, 4]	3.0	catFR1	0	R1227T
1230.24	4.717	1285232	PROB	4.682	n/a	n/a	n/a	-999	9	[6, 4, 3]	13.0	catFR1	0	R1227T
1234.957	7.422	1289949	PROB	7.422	n/a	n/a	n/a	-999	9	[8, 6, 4]	18.0	catFR1	0	R1227T
1242.379	0.013	1297370	STOP	n/a	n/a	n/a	n/a	-999	9	[-999, -999, -999]	n/a	catFR1	0	R1227T
1242.392	0.55	1297383	DISTRACT_END	n/a	n/a	n/a	n/a	-999	9	[0, 0, 0]	n/a	catFR1	0	R1227T
1242.942	0.517	1297933	RETRIEVAL_ORIENT	n/a	n/a	n/a	n/a	-999	9	[0, 0, 0]	n/a	catFR1	0	R1227T
1243.459	1.629	1298450	REC_START	n/a	n/a	n/a	n/a	-999	9	[0, 0, 0]	n/a	catFR1	0	R1227T
1245.088	1.497	1300079	REC_WORD	1.629	n/a	REFRIGERATOR	n/a	-999	9	[0, 0, 0]	n/a	catFR1	0	R1227T
1246.585	1.26	1301576	REC_WORD	3.126	n/a	SPORTS	n/a	-999	9	[0, 0, 0]	n/a	catFR1	0	R1227T
1247.845	2.721	1302836	REC_WORD	4.386	n/a	DRINK	n/a	-999	9	[0, 0, 0]	n/a	catFR1	0	R1227T
1250.566	2.456	1305557	REC_WORD	7.107	n/a	CELERY	Vegetables	7	9	[0, 0, 0]	n/a	catFR1	0	R1227T
1253.022	7.154	1308013	REC_WORD	9.563	n/a	BANANA	Fruit	12	9	[0, 0, 0]	n/a	catFR1	0	R1227T
1260.176	13.294	1315166	REC_WORD	16.717	n/a	FRUITS	n/a	-999	9	[0, 0, 0]	n/a	catFR1	0	R1227T
1273.47	6.729	1328459	REC_END	n/a	n/a	n/a	n/a	-999	9	[0, 0, 0]	n/a	catFR1	0	R1227T
1280.199	0.5	1335188	TRIAL	n/a	n/a	n/a	n/a	-999	10	[0, 0, 0]	n/a	catFR1	0	R1227T
1280.699	10.428	1335688	COUNTDOWN_START	n/a	n/a	n/a	n/a	-999	10	[0, 0, 0]	n/a	catFR1	0	R1227T
1291.127	0.007	1346115	COUNTDOWN_END	n/a	n/a	n/a	n/a	-999	10	[0, 0, 0]	n/a	catFR1	0	R1227T
1291.134	1.616	1346122	ORIENT	n/a	n/a	n/a	n/a	-999	10	[0, 0, 0]	n/a	catFR1	0	R1227T
1292.75	2.202	1347738	ORIENT_OFF	n/a	n/a	n/a	n/a	-999	10	[0, 0, 0]	n/a	catFR1	0	R1227T
1294.952	1.616	1349940	WORD	n/a	wordpools/wordpool_categorized_EN.txt	DESK	Furniture	1	10	[0, 0, 0]	n/a	catFR1	0	R1227T
1296.568	0.851	1351556	WORD_OFF	n/a	n/a	DESK	n/a	1	10	[0, 0, 0]	n/a	catFR1	0	R1227T
1297.419	1.617	1352407	WORD	n/a	wordpools/wordpool_categorized_EN.txt	TABLE	Furniture	2	10	[0, 0, 0]	n/a	catFR1	0	R1227T
1299.036	0.933	1354024	WORD_OFF	n/a	n/a	TABLE	n/a	2	10	[0, 0, 0]	n/a	catFR1	0	R1227T
1299.969	1.616	1354957	WORD	n/a	wordpools/wordpool_categorized_EN.txt	SPATULA	KitchenTools	3	10	[0, 0, 0]	n/a	catFR1	0	R1227T
1301.585	0.785	1356573	WORD_OFF	n/a	n/a	SPATULA	n/a	3	10	[0, 0, 0]	n/a	catFR1	0	R1227T
1302.37	1.617	1357358	WORD	n/a	wordpools/wordpool_categorized_EN.txt	WHISK	KitchenTools	4	10	[0, 0, 0]	n/a	catFR1	0	R1227T
1303.987	1.0	1358974	WORD_OFF	n/a	n/a	WHISK	n/a	4	10	[0, 0, 0]	n/a	catFR1	0	R1227T
1304.987	1.616	1359974	WORD	n/a	wordpools/wordpool_categorized_EN.txt	ANT	Insects	5	10	[0, 0, 0]	n/a	catFR1	0	R1227T
1306.603	0.867	1361590	WORD_OFF	n/a	n/a	ANT	n/a	5	10	[0, 0, 0]	n/a	catFR1	0	R1227T
1307.47	1.618	1362457	WORD	n/a	wordpools/wordpool_categorized_EN.txt	SPIDER	Insects	6	10	[0, 0, 0]	n/a	catFR1	0	R1227T
1309.088	0.816	1364075	WORD_OFF	n/a	n/a	SPIDER	n/a	6	10	[0, 0, 0]	n/a	catFR1	0	R1227T
1309.904	1.616	1364891	WORD	n/a	wordpools/wordpool_categorized_EN.txt	NIGHTSTAND	Furniture	7	10	[0, 0, 0]	n/a	catFR1	0	R1227T
1311.52	0.768	1366507	WORD_OFF	n/a	n/a	NIGHTSTAND	n/a	7	10	[0, 0, 0]	n/a	catFR1	0	R1227T
1312.288	1.617	1367275	WORD	n/a	wordpools/wordpool_categorized_EN.txt	SOFA	Furniture	8	10	[0, 0, 0]	n/a	catFR1	0	R1227T
1313.905	0.899	1368892	WORD_OFF	n/a	n/a	SOFA	n/a	8	10	[0, 0, 0]	n/a	catFR1	0	R1227T
1314.804	1.618	1369791	WORD	n/a	wordpools/wordpool_categorized_EN.txt	TONGS	KitchenTools	9	10	[0, 0, 0]	n/a	catFR1	0	R1227T
1316.422	0.951	1371409	WORD_OFF	n/a	n/a	TONGS	n/a	9	10	[0, 0, 0]	n/a	catFR1	0	R1227T
1317.373	1.617	1372360	WORD	n/a	wordpools/wordpool_categorized_EN.txt	KNIFE	KitchenTools	10	10	[0, 0, 0]	n/a	catFR1	0	R1227T
1318.99	0.983	1373977	WORD_OFF	n/a	n/a	KNIFE	n/a	10	10	[0, 0, 0]	n/a	catFR1	0	R1227T
1319.973	1.616	1374959	WORD	n/a	wordpools/wordpool_categorized_EN.txt	CRICKET	Insects	11	10	[0, 0, 0]	n/a	catFR1	0	R1227T
1321.589	0.851	1376575	WORD_OFF	n/a	n/a	CRICKET	n/a	11	10	[0, 0, 0]	n/a	catFR1	0	R1227T
1322.44	1.617	1377426	WORD	n/a	wordpools/wordpool_categorized_EN.txt	LADYBUG	Insects	12	10	[0, 0, 0]	n/a	catFR1	0	R1227T
1324.057	0.0	1379043	ENCODING_END	n/a	n/a	n/a	n/a	-999	10	[0, 0, 0]	n/a	catFR1	0	R1227T
1324.057	0.136	1379043	WORD_OFF	n/a	n/a	LADYBUG	n/a	12	10	[0, 0, 0]	n/a	catFR1	0	R1227T
1324.193	0.0	1379179	DISTRACT_START	n/a	n/a	n/a	n/a	-999	10	[0, 0, 0]	n/a	catFR1	0	R1227T
1324.193	0.014	1379179	START	n/a	n/a	n/a	n/a	-999	10	[-999, -999, -999]	n/a	catFR1	0	R1227T
1324.207	7.085	1379193	PROB	7.051	n/a	n/a	n/a	-999	10	[1, 4, 8]	10.0	catFR1	0	R1227T
1331.292	2.533	1386278	PROB	2.51	n/a	n/a	n/a	-999	10	[6, 8, 4]	5.0	catFR1	0	R1227T
1333.825	0.9	1388811	PROB	0.864	n/a	n/a	n/a	-999	10	[2, 7, 3]	6.0	catFR1	0	R1227T
1334.725	1.033	1389711	PROB	0.997	n/a	n/a	n/a	-999	10	[1, 7, 8]	7.0	catFR1	0	R1227T
1335.758	5.119	1390744	PROB	5.084	n/a	n/a	n/a	-999	10	[3, 1, 4]	8.0	catFR1	0	R1227T
1340.877	4.676	1395862	PROB	4.676	n/a	n/a	n/a	-999	10	[1, 6, 7]	14.0	catFR1	0	R1227T
1345.553	0.007	1400538	STOP	n/a	n/a	n/a	n/a	-999	10	[-999, -999, -999]	n/a	catFR1	0	R1227T
1345.56	0.651	1400545	DISTRACT_END	n/a	n/a	n/a	n/a	-999	10	[0, 0, 0]	n/a	catFR1	0	R1227T
1346.211	0.516	1401196	RETRIEVAL_ORIENT	n/a	n/a	n/a	n/a	-999	10	[0, 0, 0]	n/a	catFR1	0	R1227T
1346.727	1.453	1401712	REC_START	n/a	n/a	n/a	n/a	-999	10	[0, 0, 0]	n/a	catFR1	0	R1227T
1348.18	1.39	1403165	REC_WORD	1.453	n/a	DESK	Furniture	1	10	[0, 0, 0]	n/a	catFR1	0	R1227T
1349.57	1.659	1404555	REC_WORD	2.843	n/a	TABLE	Furniture	2	10	[0, 0, 0]	n/a	catFR1	0	R1227T
1351.229	1.337	1406214	REC_WORD	4.502	n/a	IRON	n/a	-999	10	[0, 0, 0]	n/a	catFR1	0	R1227T
1352.566	24.175	1407550	REC_WORD	5.839	n/a	ANT	Insects	5	10	[0, 0, 0]	n/a	catFR1	0	R1227T
1376.741	0.0	1431724	REC_END	n/a	n/a	n/a	n/a	-999	10	[0, 0, 0]	n/a	catFR1	0	R1227T
