onset	duration	sample	trial_type	response_time	stim_file	item_name	category	serialpos	list	test	answer	experiment	session	subject
0.0	2.615	11089	INSTRUCT_START	n/a	n/a	n/a	n/a	-999	-999	[0, 0, 0]	n/a	catFR1	4	R1469D
2.615	28.716	13699	INSTRUCT_END	n/a	n/a	n/a	n/a	-999	-999	[0, 0, 0]	n/a	catFR1	4	R1469D
31.331	10.349	42419	COUNTDOWN_START	n/a	n/a	n/a	n/a	-999	-999	[0, 0, 0]	n/a	catFR1	4	R1469D
41.68	0.0	52764	COUNTDOWN_END	n/a	n/a	n/a	n/a	-999	-999	[0, 0, 0]	n/a	catFR1	4	R1469D
41.68	2.1	52764	ENCODING_START	n/a	n/a	n/a	n/a	-999	-1	[0, 0, 0]	n/a	catFR1	4	R1469D
43.78	1.601	54867	WORD	n/a	n/a	PLANE	Vehicles	1	-1	[0, 0, 0]	n/a	catFR1	4	R1469D
45.381	0.866	56461	WORD_OFF	n/a	n/a	PLANE	Vehicles	1	-1	[0, 0, 0]	n/a	catFR1	4	R1469D
46.247	1.601	57335	WORD	n/a	n/a	CAR	Vehicles	2	-1	[0, 0, 0]	n/a	catFR1	4	R1469D
47.848	0.899	58929	WORD_OFF	n/a	n/a	CAR	Vehicles	2	-1	[0, 0, 0]	n/a	catFR1	4	R1469D
48.747	1.6	59837	WORD	n/a	n/a	DRYER	Appliances	3	-1	[0, 0, 0]	n/a	catFR1	4	R1469D
50.347	0.9	61433	WORD_OFF	n/a	n/a	DRYER	Appliances	3	-1	[0, 0, 0]	n/a	catFR1	4	R1469D
51.247	1.617	62330	WORD	n/a	n/a	REFRIGERATOR	Appliances	4	-1	[0, 0, 0]	n/a	catFR1	4	R1469D
52.864	0.866	63948	WORD_OFF	n/a	n/a	REFRIGERATOR	Appliances	4	-1	[0, 0, 0]	n/a	catFR1	4	R1469D
53.73	1.6	64810	WORD	n/a	n/a	PANTS	Clothing	5	-1	[0, 0, 0]	n/a	catFR1	4	R1469D
55.33	0.916	66416	WORD_OFF	n/a	n/a	PANTS	Clothing	5	-1	[0, 0, 0]	n/a	catFR1	4	R1469D
56.246	1.601	67326	WORD	n/a	n/a	SKIRT	Clothing	6	-1	[0, 0, 0]	n/a	catFR1	4	R1469D
57.847	0.95	68932	WORD_OFF	n/a	n/a	SKIRT	Clothing	6	-1	[0, 0, 0]	n/a	catFR1	4	R1469D
58.797	1.6	69876	WORD	n/a	n/a	IRON	Appliances	7	-1	[0, 0, 0]	n/a	catFR1	4	R1469D
60.397	0.85	71483	WORD_OFF	n/a	n/a	IRON	Appliances	7	-1	[0, 0, 0]	n/a	catFR1	4	R1469D
61.247	1.6	72333	WORD	n/a	n/a	VACUUM	Appliances	8	-1	[0, 0, 0]	n/a	catFR1	4	R1469D
62.847	0.9	73927	WORD_OFF	n/a	n/a	VACUUM	Appliances	8	-1	[0, 0, 0]	n/a	catFR1	4	R1469D
63.747	1.6	74836	WORD	n/a	n/a	BIKE	Vehicles	9	-1	[0, 0, 0]	n/a	catFR1	4	R1469D
65.347	0.95	76431	WORD_OFF	n/a	n/a	BIKE	Vehicles	9	-1	[0, 0, 0]	n/a	catFR1	4	R1469D
66.297	1.601	77375	WORD	n/a	n/a	VAN	Vehicles	10	-1	[0, 0, 0]	n/a	catFR1	4	R1469D
67.898	0.799	78982	WORD_OFF	n/a	n/a	VAN	Vehicles	10	-1	[0, 0, 0]	n/a	catFR1	4	R1469D
68.697	1.6	79785	WORD	n/a	n/a	JACKET	Clothing	11	-1	[0, 0, 0]	n/a	catFR1	4	R1469D
70.297	0.851	81379	WORD_OFF	n/a	n/a	JACKET	Clothing	11	-1	[0, 0, 0]	n/a	catFR1	4	R1469D
71.148	1.616	82229	WORD	n/a	n/a	DRESS	Clothing	12	-1	[0, 0, 0]	n/a	catFR1	4	R1469D
72.764	0.002	83847	WORD_OFF	n/a	n/a	DRESS	Clothing	12	-1	[0, 0, 0]	n/a	catFR1	4	R1469D
72.766	0.0	83847	ENCODING_END	n/a	n/a	n/a	n/a	-999	-1	[0, 0, 0]	n/a	catFR1	4	R1469D
72.766	0.0	83847	DISTRACT_START	n/a	n/a	n/a	n/a	-999	-1	[0, 0, 0]	n/a	catFR1	4	R1469D
72.766	0.0	83851	START	n/a	n/a	n/a	n/a	-999	-1	[-999, -999, -999]	n/a	catFR1	4	R1469D
72.766	3.865	83851	PROB	3.865	n/a	n/a	n/a	-999	-1	[8, 5, 5]	18	catFR1	4	R1469D
76.631	4.584	87716	PROB	4.584	n/a	n/a	n/a	-999	-1	[4, 4, 5]	13	catFR1	4	R1469D
81.215	2.999	92300	PROB	2.999	n/a	n/a	n/a	-999	-1	[6, 4, 5]	15	catFR1	4	R1469D
84.214	3.4	95299	PROB	3.4	n/a	n/a	n/a	-999	-1	[8, 8, 5]	21	catFR1	4	R1469D
87.614	2.65	98698	PROB	2.65	n/a	n/a	n/a	-999	-1	[1, 3, 8]	11	catFR1	4	R1469D
90.264	3.217	101348	PROB	3.217	n/a	n/a	n/a	-999	-1	[5, 6, 4]	15	catFR1	4	R1469D
93.481	0.0	104561	DISTRACT_END	n/a	n/a	n/a	n/a	-999	-1	[0, 0, 0]	n/a	catFR1	4	R1469D
93.481	2.017	104565	STOP	n/a	n/a	n/a	n/a	-999	-1	[-999, -999, -999]	n/a	catFR1	4	R1469D
95.498	1.583	106577	REC_START	n/a	n/a	n/a	n/a	-999	-1	[0, 0, 0]	n/a	catFR1	4	R1469D
97.081	1.645	108165	REC_WORD	1.645	n/a	PLANE	Vehicles	1	-1	[0, 0, 0]	n/a	catFR1	4	R1469D
98.726	0.674	109810	REC_WORD	0.674	n/a	VAN	Vehicles	10	-1	[0, 0, 0]	n/a	catFR1	4	R1469D
99.4	1.699	110484	REC_WORD	1.699	n/a	CAR	Vehicles	2	-1	[0, 0, 0]	n/a	catFR1	4	R1469D
101.099	2.788	112183	REC_WORD	2.788	n/a	BIKE	Vehicles	9	-1	[0, 0, 0]	n/a	catFR1	4	R1469D
103.887	1.988	114971	REC_WORD	1.988	n/a	REFRIGERATOR	Appliances	4	-1	[0, 0, 0]	n/a	catFR1	4	R1469D
105.875	1.695	116959	REC_WORD	1.695	n/a	DRYER	Appliances	3	-1	[0, 0, 0]	n/a	catFR1	4	R1469D
107.57	1.988	118653	REC_WORD	1.988	n/a	IRON	Appliances	7	-1	[0, 0, 0]	n/a	catFR1	4	R1469D
109.558	1.065	120641	REC_WORD	1.065	n/a	SHIRT	n/a	-999	-1	[0, 0, 0]	n/a	catFR1	4	R1469D
110.623	1.856	121706	REC_WORD	1.856	n/a	DRESS	Clothing	12	-1	[0, 0, 0]	n/a	catFR1	4	R1469D
112.479	0.817	123562	REC_WORD	0.817	n/a	BLOUSE	n/a	-999	-1	[0, 0, 0]	n/a	catFR1	4	R1469D
113.296	1.302	124379	REC_WORD	1.302	n/a	JEANS	n/a	-999	-1	[0, 0, 0]	n/a	catFR1	4	R1469D
114.598	2.667	125681	REC_WORD	2.667	n/a	PANTS	Clothing	5	-1	[0, 0, 0]	n/a	catFR1	4	R1469D
117.265	8.432	128348	REC_WORD_VV	8.432	n/a	<>	n/a	-999	-1	[0, 0, 0]	n/a	catFR1	4	R1469D
125.697	12.951	136777	REC_END	n/a	n/a	n/a	n/a	-999	-1	[0, 0, 0]	n/a	catFR1	4	R1469D
138.648	10.35	149732	COUNTDOWN_START	n/a	n/a	n/a	n/a	-999	1	[0, 0, 0]	n/a	catFR1	4	R1469D
148.998	0.0	160078	COUNTDOWN_END	n/a	n/a	n/a	n/a	-999	1	[0, 0, 0]	n/a	catFR1	4	R1469D
148.998	1.933	160078	ENCODING_START	n/a	n/a	n/a	n/a	-999	1	[0, 0, 0]	n/a	catFR1	4	R1469D
150.931	1.616	162014	WORD	n/a	wordpools/wordpool_categorized_EN.txt	LOBSTER	OceanAnimals	1	1	[0, 0, 0]	n/a	catFR1	4	R1469D
152.547	0.817	163620	WORD_OFF	n/a	n/a	LOBSTER	OceanAnimals	1	1	[0, 0, 0]	n/a	catFR1	4	R1469D
153.364	1.6	164447	WORD	n/a	wordpools/wordpool_categorized_EN.txt	JELLYFISH	OceanAnimals	2	1	[0, 0, 0]	n/a	catFR1	4	R1469D
154.964	0.767	166041	WORD_OFF	n/a	n/a	JELLYFISH	OceanAnimals	2	1	[0, 0, 0]	n/a	catFR1	4	R1469D
155.731	1.6	166809	WORD	n/a	wordpools/wordpool_categorized_EN.txt	COW	FarmAnimals	3	1	[0, 0, 0]	n/a	catFR1	4	R1469D
157.331	1.0	168415	WORD_OFF	n/a	n/a	COW	FarmAnimals	3	1	[0, 0, 0]	n/a	catFR1	4	R1469D
158.331	1.614	169407	WORD	n/a	wordpools/wordpool_categorized_EN.txt	SHEEP	FarmAnimals	4	1	[0, 0, 0]	n/a	catFR1	4	R1469D
159.945	0.885	171025	WORD_OFF	n/a	n/a	SHEEP	FarmAnimals	4	1	[0, 0, 0]	n/a	catFR1	4	R1469D
160.83	1.618	171911	WORD	n/a	wordpools/wordpool_categorized_EN.txt	TORNADO	Weather	5	1	[0, 0, 0]	n/a	catFR1	4	R1469D
162.448	0.764	173529	WORD_OFF	n/a	n/a	TORNADO	Weather	5	1	[0, 0, 0]	n/a	catFR1	4	R1469D
163.212	1.6	174284	WORD	n/a	wordpools/wordpool_categorized_EN.txt	DRIZZLE	Weather	6	1	[0, 0, 0]	n/a	catFR1	4	R1469D
164.812	0.866	175890	WORD_OFF	n/a	n/a	DRIZZLE	Weather	6	1	[0, 0, 0]	n/a	catFR1	4	R1469D
165.678	1.602	176753	WORD	n/a	wordpools/wordpool_categorized_EN.txt	LAMB	FarmAnimals	7	1	[0, 0, 0]	n/a	catFR1	4	R1469D
167.28	0.816	178359	WORD_OFF	n/a	n/a	LAMB	FarmAnimals	7	1	[0, 0, 0]	n/a	catFR1	4	R1469D
168.096	1.601	179174	WORD	n/a	wordpools/wordpool_categorized_EN.txt	GOAT	FarmAnimals	8	1	[0, 0, 0]	n/a	catFR1	4	R1469D
169.697	0.917	180780	WORD_OFF	n/a	n/a	GOAT	FarmAnimals	8	1	[0, 0, 0]	n/a	catFR1	4	R1469D
170.614	1.617	181689	WORD	n/a	wordpools/wordpool_categorized_EN.txt	FISH	OceanAnimals	9	1	[0, 0, 0]	n/a	catFR1	4	R1469D
172.231	0.8	183307	WORD_OFF	n/a	n/a	FISH	OceanAnimals	9	1	[0, 0, 0]	n/a	catFR1	4	R1469D
173.031	1.615	184110	WORD	n/a	wordpools/wordpool_categorized_EN.txt	TURTLE	OceanAnimals	10	1	[0, 0, 0]	n/a	catFR1	4	R1469D
174.646	0.851	185728	WORD_OFF	n/a	n/a	TURTLE	OceanAnimals	10	1	[0, 0, 0]	n/a	catFR1	4	R1469D
175.497	1.615	186578	WORD	n/a	wordpools/wordpool_categorized_EN.txt	HURRICANE	Weather	11	1	[0, 0, 0]	n/a	catFR1	4	R1469D
177.112	0.966	188184	WORD_OFF	n/a	n/a	HURRICANE	Weather	11	1	[0, 0, 0]	n/a	catFR1	4	R1469D
178.078	1.617	189153	WORD	n/a	wordpools/wordpool_categorized_EN.txt	RAIN	Weather	12	1	[0, 0, 0]	n/a	catFR1	4	R1469D
179.695	0.001	190770	WORD_OFF	n/a	n/a	RAIN	Weather	12	1	[0, 0, 0]	n/a	catFR1	4	R1469D
179.696	0.0	190770	ENCODING_END	n/a	n/a	n/a	n/a	-999	1	[0, 0, 0]	n/a	catFR1	4	R1469D
179.696	0.0	190776	START	n/a	n/a	n/a	n/a	-999	1	[-999, -999, -999]	n/a	catFR1	4	R1469D
179.696	0.0	190776	PROB	0.0	n/a	n/a	n/a	-999	1	[3, 4, 2]	9	catFR1	4	R1469D
179.696	3.219	190782	DISTRACT_START	n/a	n/a	n/a	n/a	-999	1	[0, 0, 0]	n/a	catFR1	4	R1469D
182.915	2.05	193994	PROB	2.05	n/a	n/a	n/a	-999	1	[2, 1, 1]	4	catFR1	4	R1469D
184.965	2.666	196044	PROB	2.666	n/a	n/a	n/a	-999	1	[7, 8, 2]	17	catFR1	4	R1469D
187.631	5.216	198710	PROB	5.216	n/a	n/a	n/a	-999	1	[6, 8, 7]	21	catFR1	4	R1469D
192.847	2.684	203926	PROB	2.684	n/a	n/a	n/a	-999	1	[8, 1, 2]	11	catFR1	4	R1469D
195.531	3.298	206610	PROB	3.298	n/a	n/a	n/a	-999	1	[8, 5, 3]	16	catFR1	4	R1469D
198.829	3.202	209908	PROB	3.202	n/a	n/a	n/a	-999	1	[4, 8, 3]	15	catFR1	4	R1469D
202.031	0.0	213102	DISTRACT_END	n/a	n/a	n/a	n/a	-999	1	[0, 0, 0]	n/a	catFR1	4	R1469D
202.031	2.033	213109	STOP	n/a	n/a	n/a	n/a	-999	1	[-999, -999, -999]	n/a	catFR1	4	R1469D
204.064	1.493	215141	REC_START	n/a	n/a	n/a	n/a	-999	1	[0, 0, 0]	n/a	catFR1	4	R1469D
205.557	1.0	216635	REC_WORD_VV	1.0	n/a	<>	n/a	-999	1	[0, 0, 0]	n/a	catFR1	4	R1469D
206.557	1.0	217635	REC_WORD_VV	1.0	n/a	<>	n/a	-999	1	[0, 0, 0]	n/a	catFR1	4	R1469D
207.557	0.137	218635	REC_WORD_VV	0.137	n/a	<>	n/a	-999	1	[0, 0, 0]	n/a	catFR1	4	R1469D
207.694	0.542	218772	REC_WORD	0.542	n/a	GOAT	FarmAnimals	8	1	[0, 0, 0]	n/a	catFR1	4	R1469D
208.236	1.742	219314	REC_WORD	1.742	n/a	SHEEP	FarmAnimals	4	1	[0, 0, 0]	n/a	catFR1	4	R1469D
209.978	1.474	221056	REC_WORD	1.474	n/a	CHICKEN	n/a	-999	1	[0, 0, 0]	n/a	catFR1	4	R1469D
211.452	1.148	222530	REC_WORD	1.148	n/a	COW	FarmAnimals	3	1	[0, 0, 0]	n/a	catFR1	4	R1469D
212.6	0.879	223678	REC_WORD	0.879	n/a	JELLYFISH	OceanAnimals	2	1	[0, 0, 0]	n/a	catFR1	4	R1469D
213.479	2.485	224557	REC_WORD	2.485	n/a	OCTOPUS	n/a	-999	1	[0, 0, 0]	n/a	catFR1	4	R1469D
215.964	0.504	227042	REC_WORD_VV	0.504	n/a	<>	n/a	-999	1	[0, 0, 0]	n/a	catFR1	4	R1469D
216.468	1.149	227546	REC_WORD	1.149	n/a	DRIZZLE	Weather	6	1	[0, 0, 0]	n/a	catFR1	4	R1469D
217.617	2.139	228695	REC_WORD	2.139	n/a	TORNADO	Weather	5	1	[0, 0, 0]	n/a	catFR1	4	R1469D
219.756	1.805	230833	REC_WORD	1.805	n/a	DOWNPOUR	n/a	-999	1	[0, 0, 0]	n/a	catFR1	4	R1469D
221.561	6.523	232638	REC_WORD	6.523	n/a	RAIN	Weather	12	1	[0, 0, 0]	n/a	catFR1	4	R1469D
228.084	6.173	239161	REC_WORD	6.173	n/a	LOBSTER	OceanAnimals	1	1	[0, 0, 0]	n/a	catFR1	4	R1469D
234.257	7.074	245330	REC_END	n/a	n/a	n/a	n/a	-999	1	[0, 0, 0]	n/a	catFR1	4	R1469D
241.331	10.35	252404	COUNTDOWN_START	n/a	n/a	n/a	n/a	-999	1	[0, 0, 0]	n/a	catFR1	4	R1469D
251.681	0.0	262749	COUNTDOWN_END	n/a	n/a	n/a	n/a	-999	1	[0, 0, 0]	n/a	catFR1	4	R1469D
251.681	2.032	262761	ENCODING_START	n/a	n/a	n/a	n/a	-999	2	[0, 0, 0]	n/a	catFR1	4	R1469D
253.713	1.601	264792	WORD	n/a	wordpools/wordpool_categorized_EN.txt	PUZZLE	Toys	1	2	[0, 0, 0]	n/a	catFR1	4	R1469D
255.314	0.917	266387	WORD_OFF	n/a	n/a	PUZZLE	Toys	1	2	[0, 0, 0]	n/a	catFR1	4	R1469D
256.231	1.616	267308	WORD	n/a	wordpools/wordpool_categorized_EN.txt	FOOTBALL	Toys	2	2	[0, 0, 0]	n/a	catFR1	4	R1469D
257.847	0.966	268926	WORD_OFF	n/a	n/a	FOOTBALL	Toys	2	2	[0, 0, 0]	n/a	catFR1	4	R1469D
258.813	1.6	269882	WORD	n/a	wordpools/wordpool_categorized_EN.txt	PIANO	Instruments	3	2	[0, 0, 0]	n/a	catFR1	4	R1469D
260.413	0.834	271488	WORD_OFF	n/a	n/a	PIANO	Instruments	3	2	[0, 0, 0]	n/a	catFR1	4	R1469D
261.247	1.617	272315	WORD	n/a	wordpools/wordpool_categorized_EN.txt	FLUTE	Instruments	4	2	[0, 0, 0]	n/a	catFR1	4	R1469D
262.864	0.867	273933	WORD_OFF	n/a	n/a	FLUTE	Instruments	4	2	[0, 0, 0]	n/a	catFR1	4	R1469D
263.731	1.617	274807	WORD	n/a	wordpools/wordpool_categorized_EN.txt	WILLOW	Trees	5	2	[0, 0, 0]	n/a	catFR1	4	R1469D
265.348	0.849	276425	WORD_OFF	n/a	n/a	WILLOW	Trees	5	2	[0, 0, 0]	n/a	catFR1	4	R1469D
266.197	1.6	277275	WORD	n/a	wordpools/wordpool_categorized_EN.txt	MAPLE	Trees	6	2	[0, 0, 0]	n/a	catFR1	4	R1469D
267.797	0.767	278869	WORD_OFF	n/a	n/a	MAPLE	Trees	6	2	[0, 0, 0]	n/a	catFR1	4	R1469D
268.564	1.616	279637	WORD	n/a	wordpools/wordpool_categorized_EN.txt	BALL	Toys	7	2	[0, 0, 0]	n/a	catFR1	4	R1469D
270.18	0.967	281255	WORD_OFF	n/a	n/a	BALL	Toys	7	2	[0, 0, 0]	n/a	catFR1	4	R1469D
271.147	1.6	282223	WORD	n/a	wordpools/wordpool_categorized_EN.txt	BLOCKS	Toys	8	2	[0, 0, 0]	n/a	catFR1	4	R1469D
272.747	0.85	283818	WORD_OFF	n/a	n/a	BLOCKS	Toys	8	2	[0, 0, 0]	n/a	catFR1	4	R1469D
273.597	1.601	284668	WORD	n/a	wordpools/wordpool_categorized_EN.txt	PINE	Trees	9	2	[0, 0, 0]	n/a	catFR1	4	R1469D
275.198	1.0	286274	WORD_OFF	n/a	n/a	PINE	Trees	9	2	[0, 0, 0]	n/a	catFR1	4	R1469D
276.198	1.616	287266	WORD	n/a	wordpools/wordpool_categorized_EN.txt	CEDAR	Trees	10	2	[0, 0, 0]	n/a	catFR1	4	R1469D
277.814	0.834	288884	WORD_OFF	n/a	n/a	CEDAR	Trees	10	2	[0, 0, 0]	n/a	catFR1	4	R1469D
278.648	1.616	289722	WORD	n/a	wordpools/wordpool_categorized_EN.txt	GUITAR	Instruments	11	2	[0, 0, 0]	n/a	catFR1	4	R1469D
280.264	0.883	291340	WORD_OFF	n/a	n/a	GUITAR	Instruments	11	2	[0, 0, 0]	n/a	catFR1	4	R1469D
281.147	1.617	292214	WORD	n/a	wordpools/wordpool_categorized_EN.txt	CELLO	Instruments	12	2	[0, 0, 0]	n/a	catFR1	4	R1469D
282.764	0.002	293832	WORD_OFF	n/a	n/a	CELLO	Instruments	12	2	[0, 0, 0]	n/a	catFR1	4	R1469D
282.766	0.0	293832	ENCODING_END	n/a	n/a	n/a	n/a	-999	2	[0, 0, 0]	n/a	catFR1	4	R1469D
282.764	0.002	293838	PROB	0.002	n/a	n/a	n/a	-999	2	[6, 1, 1]	8	catFR1	4	R1469D
282.766	0.0	293840	START	n/a	n/a	n/a	n/a	-999	2	[-999, -999, -999]	n/a	catFR1	4	R1469D
282.766	2.698	293844	DISTRACT_START	n/a	n/a	n/a	n/a	-999	2	[0, 0, 0]	n/a	catFR1	4	R1469D
285.464	2.768	296538	PROB	2.768	n/a	n/a	n/a	-999	2	[3, 6, 3]	12	catFR1	4	R1469D
288.232	2.966	299306	PROB	2.966	n/a	n/a	n/a	-999	2	[5, 8, 1]	14	catFR1	4	R1469D
291.198	2.717	302272	PROB	2.717	n/a	n/a	n/a	-999	2	[8, 2, 3]	13	catFR1	4	R1469D
293.915	2.482	304988	PROB	2.482	n/a	n/a	n/a	-999	2	[3, 6, 4]	13	catFR1	4	R1469D
296.397	2.4	307470	PROB	2.4	n/a	n/a	n/a	-999	2	[4, 4, 6]	14	catFR1	4	R1469D
298.797	3.767	309870	PROB	3.767	n/a	n/a	n/a	-999	2	[4, 1, 6]	9	catFR1	4	R1469D
302.564	2.567	313637	PROB	2.567	n/a	n/a	n/a	-999	2	[5, 5, 7]	17	catFR1	4	R1469D
305.131	0.0	316199	DISTRACT_END	n/a	n/a	n/a	n/a	-999	2	[0, 0, 0]	n/a	catFR1	4	R1469D
305.131	2.016	316204	STOP	n/a	n/a	n/a	n/a	-999	2	[-999, -999, -999]	n/a	catFR1	4	R1469D
307.147	2.929	318215	REC_START	n/a	n/a	n/a	n/a	-999	2	[0, 0, 0]	n/a	catFR1	4	R1469D
310.076	1.059	321149	REC_WORD_VV	1.059	n/a	<>	n/a	-999	2	[0, 0, 0]	n/a	catFR1	4	R1469D
311.135	0.648	322208	REC_WORD	0.648	n/a	PIANO	Instruments	3	2	[0, 0, 0]	n/a	catFR1	4	R1469D
311.783	3.296	322856	REC_WORD	3.296	n/a	CELLO	Instruments	12	2	[0, 0, 0]	n/a	catFR1	4	R1469D
315.079	5.317	326151	REC_WORD	5.317	n/a	WILLOW	Trees	5	2	[0, 0, 0]	n/a	catFR1	4	R1469D
320.396	2.857	331468	REC_WORD_VV	2.857	n/a	<>	n/a	-999	2	[0, 0, 0]	n/a	catFR1	4	R1469D
323.253	0.566	334325	REC_WORD	0.566	n/a	BALL	Toys	7	2	[0, 0, 0]	n/a	catFR1	4	R1469D
323.819	0.733	334891	REC_WORD	0.733	n/a	FOOTBALL	Toys	2	2	[0, 0, 0]	n/a	catFR1	4	R1469D
324.552	0.649	335624	REC_WORD	0.649	n/a	PUZZLE	Toys	1	2	[0, 0, 0]	n/a	catFR1	4	R1469D
325.201	2.589	336273	REC_WORD	2.589	n/a	BLOCKS	Toys	8	2	[0, 0, 0]	n/a	catFR1	4	R1469D
327.79	1.0	338862	REC_WORD_VV	1.0	n/a	<>	n/a	-999	2	[0, 0, 0]	n/a	catFR1	4	R1469D
328.79	4.381	339862	REC_WORD_VV	4.381	n/a	<>	n/a	-999	2	[0, 0, 0]	n/a	catFR1	4	R1469D
333.171	0.646	344242	REC_WORD_VV	0.646	n/a	<>	n/a	-999	2	[0, 0, 0]	n/a	catFR1	4	R1469D
333.817	1.0	344888	REC_WORD	1.0	n/a	PIANO	Instruments	3	2	[0, 0, 0]	n/a	catFR1	4	R1469D
334.817	1.0	345888	REC_WORD_VV	1.0	n/a	<>	n/a	-999	2	[0, 0, 0]	n/a	catFR1	4	R1469D
335.817	1.532	346888	REC_WORD_VV	1.532	n/a	<>	n/a	-999	2	[0, 0, 0]	n/a	catFR1	4	R1469D
337.349	7.431	348416	REC_END	n/a	n/a	n/a	n/a	-999	2	[0, 0, 0]	n/a	catFR1	4	R1469D
344.78	10.35	355856	COUNTDOWN_START	n/a	n/a	n/a	n/a	-999	2	[0, 0, 0]	n/a	catFR1	4	R1469D
355.13	0.0	366201	COUNTDOWN_END	n/a	n/a	n/a	n/a	-999	2	[0, 0, 0]	n/a	catFR1	4	R1469D
355.13	2.234	366201	ENCODING_START	n/a	n/a	n/a	n/a	-999	3	[0, 0, 0]	n/a	catFR1	4	R1469D
357.364	1.617	368433	WORD	n/a	wordpools/wordpool_categorized_EN.txt	SCANNER	Electronics	1	3	[0, 0, 0]	n/a	catFR1	4	R1469D
358.981	0.916	370051	WORD_OFF	n/a	n/a	SCANNER	Electronics	1	3	[0, 0, 0]	n/a	catFR1	4	R1469D
359.897	1.6	370960	WORD	n/a	wordpools/wordpool_categorized_EN.txt	HEADPHONES	Electronics	2	3	[0, 0, 0]	n/a	catFR1	4	R1469D
361.497	0.898	372566	WORD_OFF	n/a	n/a	HEADPHONES	Electronics	2	3	[0, 0, 0]	n/a	catFR1	4	R1469D
362.395	1.602	373464	WORD	n/a	wordpools/wordpool_categorized_EN.txt	OAK	Trees	3	3	[0, 0, 0]	n/a	catFR1	4	R1469D
363.997	0.966	375070	WORD_OFF	n/a	n/a	OAK	Trees	3	3	[0, 0, 0]	n/a	catFR1	4	R1469D
364.963	1.6	376026	WORD	n/a	wordpools/wordpool_categorized_EN.txt	BIRCH	Trees	4	3	[0, 0, 0]	n/a	catFR1	4	R1469D
366.563	1.0	377632	WORD_OFF	n/a	n/a	BIRCH	Trees	4	3	[0, 0, 0]	n/a	catFR1	4	R1469D
367.563	1.618	378636	WORD	n/a	wordpools/wordpool_categorized_EN.txt	ELEPHANT	Zoo	5	3	[0, 0, 0]	n/a	catFR1	4	R1469D
369.181	0.832	380243	WORD_OFF	n/a	n/a	ELEPHANT	Zoo	5	3	[0, 0, 0]	n/a	catFR1	4	R1469D
370.013	1.601	381081	WORD	n/a	wordpools/wordpool_categorized_EN.txt	CHEETAH	Zoo	6	3	[0, 0, 0]	n/a	catFR1	4	R1469D
371.614	0.783	382675	WORD_OFF	n/a	n/a	CHEETAH	Zoo	6	3	[0, 0, 0]	n/a	catFR1	4	R1469D
372.397	1.617	383466	WORD	n/a	wordpools/wordpool_categorized_EN.txt	TABLET	Electronics	7	3	[0, 0, 0]	n/a	catFR1	4	R1469D
374.014	0.966	385084	WORD_OFF	n/a	n/a	TABLET	Electronics	7	3	[0, 0, 0]	n/a	catFR1	4	R1469D
374.98	1.617	386041	WORD	n/a	wordpools/wordpool_categorized_EN.txt	MICROWAVE	Electronics	8	3	[0, 0, 0]	n/a	catFR1	4	R1469D
376.597	0.833	387659	WORD_OFF	n/a	n/a	MICROWAVE	Electronics	8	3	[0, 0, 0]	n/a	catFR1	4	R1469D
377.43	1.6	388497	WORD	n/a	wordpools/wordpool_categorized_EN.txt	HICKORY	Trees	9	3	[0, 0, 0]	n/a	catFR1	4	R1469D
379.03	0.85	390091	WORD_OFF	n/a	n/a	HICKORY	Trees	9	3	[0, 0, 0]	n/a	catFR1	4	R1469D
379.88	1.617	390942	WORD	n/a	wordpools/wordpool_categorized_EN.txt	SPRUCE	Trees	10	3	[0, 0, 0]	n/a	catFR1	4	R1469D
381.497	0.95	392560	WORD_OFF	n/a	n/a	SPRUCE	Trees	10	3	[0, 0, 0]	n/a	catFR1	4	R1469D
382.447	1.6	393516	WORD	n/a	wordpools/wordpool_categorized_EN.txt	GIRAFFE	Zoo	11	3	[0, 0, 0]	n/a	catFR1	4	R1469D
384.047	0.783	395110	WORD_OFF	n/a	n/a	GIRAFFE	Zoo	11	3	[0, 0, 0]	n/a	catFR1	4	R1469D
384.83	1.6	395902	WORD	n/a	wordpools/wordpool_categorized_EN.txt	TIGER	Zoo	12	3	[0, 0, 0]	n/a	catFR1	4	R1469D
386.43	0.001	397496	WORD_OFF	n/a	n/a	TIGER	Zoo	12	3	[0, 0, 0]	n/a	catFR1	4	R1469D
386.431	0.0	397496	ENCODING_END	n/a	n/a	n/a	n/a	-999	3	[0, 0, 0]	n/a	catFR1	4	R1469D
386.431	0.0	397496	DISTRACT_START	n/a	n/a	n/a	n/a	-999	3	[0, 0, 0]	n/a	catFR1	4	R1469D
386.43	0.001	397498	PROB	0.001	n/a	n/a	n/a	-999	3	[7, 4, 3]	14	catFR1	4	R1469D
386.431	3.551	397499	START	n/a	n/a	n/a	n/a	-999	3	[-999, -999, -999]	n/a	catFR1	4	R1469D
389.982	3.432	401050	PROB	3.432	n/a	n/a	n/a	-999	3	[2, 8, 8]	18	catFR1	4	R1469D
393.414	2.7	404482	PROB	2.7	n/a	n/a	n/a	-999	3	[7, 5, 6]	18	catFR1	4	R1469D
396.114	2.867	407182	PROB	2.867	n/a	n/a	n/a	-999	3	[5, 2, 3]	10	catFR1	4	R1469D
398.981	4.151	410049	PROB	4.151	n/a	n/a	n/a	-999	3	[7, 8, 1]	16	catFR1	4	R1469D
403.132	3.632	414200	PROB	3.632	n/a	n/a	n/a	-999	3	[5, 1, 4]	10	catFR1	4	R1469D
406.764	0.0	417831	STOP	n/a	n/a	n/a	n/a	-999	3	[-999, -999, -999]	n/a	catFR1	4	R1469D
406.764	2.3	417832	DISTRACT_END	n/a	n/a	n/a	n/a	-999	3	[0, 0, 0]	n/a	catFR1	4	R1469D
409.064	0.669	420131	REC_START	n/a	n/a	n/a	n/a	-999	3	[0, 0, 0]	n/a	catFR1	4	R1469D
409.733	1.0	420800	REC_WORD_VV	1.0	n/a	<>	n/a	-999	3	[0, 0, 0]	n/a	catFR1	4	R1469D
410.733	1.292	421800	REC_WORD_VV	1.292	n/a	<>	n/a	-999	3	[0, 0, 0]	n/a	catFR1	4	R1469D
412.025	1.227	423092	REC_WORD	1.227	n/a	HEADPHONES	Electronics	2	3	[0, 0, 0]	n/a	catFR1	4	R1469D
413.252	0.72	424319	REC_WORD	0.72	n/a	TABLET	Electronics	7	3	[0, 0, 0]	n/a	catFR1	4	R1469D
413.972	0.931	425039	REC_WORD	0.931	n/a	MICROWAVE	Electronics	8	3	[0, 0, 0]	n/a	catFR1	4	R1469D
414.903	1.213	425970	REC_WORD	1.213	n/a	CHEETAH	Zoo	6	3	[0, 0, 0]	n/a	catFR1	4	R1469D
416.116	3.281	427183	REC_WORD_VV	3.281	n/a	<>	n/a	-999	3	[0, 0, 0]	n/a	catFR1	4	R1469D
419.397	0.999	430464	REC_WORD	0.999	n/a	TIGER	Zoo	12	3	[0, 0, 0]	n/a	catFR1	4	R1469D
420.396	1.979	431463	REC_WORD	1.979	n/a	ELEPHANT	Zoo	5	3	[0, 0, 0]	n/a	catFR1	4	R1469D
422.375	5.011	433442	REC_WORD_VV	5.011	n/a	<>	n/a	-999	3	[0, 0, 0]	n/a	catFR1	4	R1469D
427.386	3.79	438452	REC_WORD	3.79	n/a	OAK	Trees	3	3	[0, 0, 0]	n/a	catFR1	4	R1469D
431.176	0.672	442242	REC_WORD	0.672	n/a	MAPLE	Trees	-999	3	[0, 0, 0]	n/a	catFR1	4	R1469D
431.848	7.435	442914	REC_WORD	7.435	n/a	SPRUCE	Trees	10	3	[0, 0, 0]	n/a	catFR1	4	R1469D
439.283	11.647	450344	REC_END	n/a	n/a	n/a	n/a	-999	3	[0, 0, 0]	n/a	catFR1	4	R1469D
450.93	10.35	462000	COUNTDOWN_START	n/a	n/a	n/a	n/a	-999	3	[0, 0, 0]	n/a	catFR1	4	R1469D
461.28	0.0	472345	COUNTDOWN_END	n/a	n/a	n/a	n/a	-999	3	[0, 0, 0]	n/a	catFR1	4	R1469D
461.28	2.351	472345	ENCODING_START	n/a	n/a	n/a	n/a	-999	4	[0, 0, 0]	n/a	catFR1	4	R1469D
463.631	1.601	474695	WORD	n/a	wordpools/wordpool_categorized_EN.txt	PHONE	Electronics	1	4	[0, 0, 0]	n/a	catFR1	4	R1469D
465.232	0.899	476289	WORD_OFF	n/a	n/a	PHONE	Electronics	1	4	[0, 0, 0]	n/a	catFR1	4	R1469D
466.131	1.615	477198	WORD	n/a	wordpools/wordpool_categorized_EN.txt	CALCULATOR	Electronics	2	4	[0, 0, 0]	n/a	catFR1	4	R1469D
467.746	0.784	478805	WORD_OFF	n/a	n/a	CALCULATOR	Electronics	2	4	[0, 0, 0]	n/a	catFR1	4	R1469D
468.53	1.617	479596	WORD	n/a	wordpools/wordpool_categorized_EN.txt	WINDOW	Building	3	4	[0, 0, 0]	n/a	catFR1	4	R1469D
470.147	0.95	481214	WORD_OFF	n/a	n/a	WINDOW	Building	3	4	[0, 0, 0]	n/a	catFR1	4	R1469D
471.097	1.601	482158	WORD	n/a	wordpools/wordpool_categorized_EN.txt	STAIRS	Building	4	4	[0, 0, 0]	n/a	catFR1	4	R1469D
472.698	0.916	483764	WORD_OFF	n/a	n/a	STAIRS	Building	4	4	[0, 0, 0]	n/a	catFR1	4	R1469D
473.614	1.6	484674	WORD	n/a	wordpools/wordpool_categorized_EN.txt	FREEZER	Appliances	5	4	[0, 0, 0]	n/a	catFR1	4	R1469D
475.214	0.783	486280	WORD_OFF	n/a	n/a	FREEZER	Appliances	5	4	[0, 0, 0]	n/a	catFR1	4	R1469D
475.997	1.617	487059	WORD	n/a	wordpools/wordpool_categorized_EN.txt	WASHER	Appliances	6	4	[0, 0, 0]	n/a	catFR1	4	R1469D
477.614	0.883	488677	WORD_OFF	n/a	n/a	WASHER	Appliances	6	4	[0, 0, 0]	n/a	catFR1	4	R1469D
478.497	1.6	489563	WORD	n/a	wordpools/wordpool_categorized_EN.txt	DOOR	Building	7	4	[0, 0, 0]	n/a	catFR1	4	R1469D
480.097	0.867	491157	WORD_OFF	n/a	n/a	DOOR	Building	7	4	[0, 0, 0]	n/a	catFR1	4	R1469D
480.964	1.617	492031	WORD	n/a	wordpools/wordpool_categorized_EN.txt	ATTIC	Building	8	4	[0, 0, 0]	n/a	catFR1	4	R1469D
482.581	0.766	493637	WORD_OFF	n/a	n/a	ATTIC	Building	8	4	[0, 0, 0]	n/a	catFR1	4	R1469D
483.347	1.617	494405	WORD	n/a	wordpools/wordpool_categorized_EN.txt	TELEVISION	Electronics	9	4	[0, 0, 0]	n/a	catFR1	4	R1469D
484.964	0.933	496023	WORD_OFF	n/a	n/a	TELEVISION	Electronics	9	4	[0, 0, 0]	n/a	catFR1	4	R1469D
485.897	1.616	496956	WORD	n/a	wordpools/wordpool_categorized_EN.txt	SPEAKER	Electronics	10	4	[0, 0, 0]	n/a	catFR1	4	R1469D
487.513	0.801	498574	WORD_OFF	n/a	n/a	SPEAKER	Electronics	10	4	[0, 0, 0]	n/a	catFR1	4	R1469D
488.314	1.617	499377	WORD	n/a	wordpools/wordpool_categorized_EN.txt	STOVE	Appliances	11	4	[0, 0, 0]	n/a	catFR1	4	R1469D
489.931	0.866	500995	WORD_OFF	n/a	n/a	STOVE	Appliances	11	4	[0, 0, 0]	n/a	catFR1	4	R1469D
490.797	1.617	501857	WORD	n/a	wordpools/wordpool_categorized_EN.txt	BLENDER	Appliances	12	4	[0, 0, 0]	n/a	catFR1	4	R1469D
492.414	0.001	503475	WORD_OFF	n/a	n/a	BLENDER	Appliances	12	4	[0, 0, 0]	n/a	catFR1	4	R1469D
492.415	0.0	503475	ENCODING_END	n/a	n/a	n/a	n/a	-999	4	[0, 0, 0]	n/a	catFR1	4	R1469D
492.415	0.0	503475	DISTRACT_START	n/a	n/a	n/a	n/a	-999	4	[0, 0, 0]	n/a	catFR1	4	R1469D
492.415	0.0	503478	START	n/a	n/a	n/a	n/a	-999	4	[-999, -999, -999]	n/a	catFR1	4	R1469D
492.415	4.449	503478	PROB	4.449	n/a	n/a	n/a	-999	4	[5, 3, 8]	16	catFR1	4	R1469D
496.864	2.333	507927	PROB	2.333	n/a	n/a	n/a	-999	4	[1, 4, 6]	11	catFR1	4	R1469D
499.197	2.618	510259	PROB	2.618	n/a	n/a	n/a	-999	4	[8, 5, 6]	19	catFR1	4	R1469D
501.815	2.283	512877	PROB	2.283	n/a	n/a	n/a	-999	4	[7, 3, 3]	13	catFR1	4	R1469D
504.098	2.366	515160	PROB	2.366	n/a	n/a	n/a	-999	4	[4, 3, 7]	14	catFR1	4	R1469D
506.464	2.167	517526	PROB	2.167	n/a	n/a	n/a	-999	4	[1, 6, 1]	8	catFR1	4	R1469D
508.631	4.602	519693	PROB	4.602	n/a	n/a	n/a	-999	4	[5, 2, 8]	16	catFR1	4	R1469D
513.233	0.0	524295	DISTRACT_END	n/a	n/a	n/a	n/a	-999	4	[0, 0, 0]	n/a	catFR1	4	R1469D
513.233	2.115	524295	STOP	n/a	n/a	n/a	n/a	-999	4	[-999, -999, -999]	n/a	catFR1	4	R1469D
515.348	1.495	526405	REC_START	n/a	n/a	n/a	n/a	-999	4	[0, 0, 0]	n/a	catFR1	4	R1469D
516.843	0.966	527905	REC_WORD	0.966	n/a	PHONE	Electronics	1	4	[0, 0, 0]	n/a	catFR1	4	R1469D
517.809	1.0	528871	REC_WORD	1.0	n/a	CALCULATOR	Electronics	2	4	[0, 0, 0]	n/a	catFR1	4	R1469D
518.809	1.501	529870	REC_WORD_VV	1.501	n/a	<>	n/a	-999	4	[0, 0, 0]	n/a	catFR1	4	R1469D
520.31	2.671	531371	REC_WORD_VV	2.671	n/a	<>	n/a	-999	4	[0, 0, 0]	n/a	catFR1	4	R1469D
522.981	1.331	534042	REC_WORD	1.331	n/a	STAIRS	Building	4	4	[0, 0, 0]	n/a	catFR1	4	R1469D
524.312	0.89	535373	REC_WORD	0.89	n/a	FLOOR	n/a	-999	4	[0, 0, 0]	n/a	catFR1	4	R1469D
525.202	2.504	536263	REC_WORD	2.504	n/a	ATTIC	Building	8	4	[0, 0, 0]	n/a	catFR1	4	R1469D
527.706	0.736	538767	REC_WORD	0.736	n/a	WASHER	Appliances	6	4	[0, 0, 0]	n/a	catFR1	4	R1469D
528.442	2.726	539503	REC_WORD	2.726	n/a	STOVE	Appliances	11	4	[0, 0, 0]	n/a	catFR1	4	R1469D
531.168	7.276	542229	REC_WORD_VV	7.276	n/a	<>	n/a	-999	4	[0, 0, 0]	n/a	catFR1	4	R1469D
538.444	7.116	549504	REC_WORD_VV	7.116	n/a	<>	n/a	-999	4	[0, 0, 0]	n/a	catFR1	4	R1469D
545.56	13.321	556617	REC_END	n/a	n/a	n/a	n/a	-999	4	[0, 0, 0]	n/a	catFR1	4	R1469D
558.881	10.35	569939	COUNTDOWN_START	n/a	n/a	n/a	n/a	-999	4	[0, 0, 0]	n/a	catFR1	4	R1469D
569.231	0.0	580284	COUNTDOWN_END	n/a	n/a	n/a	n/a	-999	4	[0, 0, 0]	n/a	catFR1	4	R1469D
569.231	1.817	580284	ENCODING_START	n/a	n/a	n/a	n/a	-999	5	[0, 0, 0]	n/a	catFR1	4	R1469D
571.048	1.616	582102	WORD	n/a	wordpools/wordpool_categorized_EN.txt	PANDA	Zoo	1	5	[0, 0, 0]	n/a	catFR1	4	R1469D
572.664	0.782	583720	WORD_OFF	n/a	n/a	PANDA	Zoo	1	5	[0, 0, 0]	n/a	catFR1	4	R1469D
573.446	1.601	584500	WORD	n/a	wordpools/wordpool_categorized_EN.txt	ZEBRA	Zoo	2	5	[0, 0, 0]	n/a	catFR1	4	R1469D
575.047	0.767	586106	WORD_OFF	n/a	n/a	ZEBRA	Zoo	2	5	[0, 0, 0]	n/a	catFR1	4	R1469D
575.814	1.617	586873	WORD	n/a	wordpools/wordpool_categorized_EN.txt	BASS	Instruments	3	5	[0, 0, 0]	n/a	catFR1	4	R1469D
577.431	0.767	588491	WORD_OFF	n/a	n/a	BASS	Instruments	3	5	[0, 0, 0]	n/a	catFR1	4	R1469D
578.198	1.616	589259	WORD	n/a	wordpools/wordpool_categorized_EN.txt	TUBA	Instruments	4	5	[0, 0, 0]	n/a	catFR1	4	R1469D
579.814	0.883	590865	WORD_OFF	n/a	n/a	TUBA	Instruments	4	5	[0, 0, 0]	n/a	catFR1	4	R1469D
580.697	1.616	591751	WORD	n/a	wordpools/wordpool_categorized_EN.txt	OYSTER	OceanAnimals	5	5	[0, 0, 0]	n/a	catFR1	4	R1469D
582.313	0.883	593369	WORD_OFF	n/a	n/a	OYSTER	OceanAnimals	5	5	[0, 0, 0]	n/a	catFR1	4	R1469D
583.196	1.602	594254	WORD	n/a	wordpools/wordpool_categorized_EN.txt	SQUID	OceanAnimals	6	5	[0, 0, 0]	n/a	catFR1	4	R1469D
584.798	0.783	595849	WORD_OFF	n/a	n/a	SQUID	OceanAnimals	6	5	[0, 0, 0]	n/a	catFR1	4	R1469D
585.581	1.615	596640	WORD	n/a	wordpools/wordpool_categorized_EN.txt	VIOLIN	Instruments	7	5	[0, 0, 0]	n/a	catFR1	4	R1469D
587.196	0.802	598246	WORD_OFF	n/a	n/a	VIOLIN	Instruments	7	5	[0, 0, 0]	n/a	catFR1	4	R1469D
587.998	1.616	599049	WORD	n/a	wordpools/wordpool_categorized_EN.txt	BANJO	Instruments	8	5	[0, 0, 0]	n/a	catFR1	4	R1469D
589.614	0.949	600667	WORD_OFF	n/a	n/a	BANJO	Instruments	8	5	[0, 0, 0]	n/a	catFR1	4	R1469D
590.563	1.601	601623	WORD	n/a	wordpools/wordpool_categorized_EN.txt	GORILLA	Zoo	9	5	[0, 0, 0]	n/a	catFR1	4	R1469D
592.164	0.817	603218	WORD_OFF	n/a	n/a	GORILLA	Zoo	9	5	[0, 0, 0]	n/a	catFR1	4	R1469D
592.981	1.615	604033	WORD	n/a	wordpools/wordpool_categorized_EN.txt	CHIMPANZEE	Zoo	10	5	[0, 0, 0]	n/a	catFR1	4	R1469D
594.596	0.901	605650	WORD_OFF	n/a	n/a	CHIMPANZEE	Zoo	10	5	[0, 0, 0]	n/a	catFR1	4	R1469D
595.497	1.6	606548	WORD	n/a	wordpools/wordpool_categorized_EN.txt	WHALE	OceanAnimals	11	5	[0, 0, 0]	n/a	catFR1	4	R1469D
597.097	0.95	608154	WORD_OFF	n/a	n/a	WHALE	OceanAnimals	11	5	[0, 0, 0]	n/a	catFR1	4	R1469D
598.047	1.6	609099	WORD	n/a	wordpools/wordpool_categorized_EN.txt	PLANKTON	OceanAnimals	12	5	[0, 0, 0]	n/a	catFR1	4	R1469D
599.647	0.0	610704	PROB	0.0	n/a	n/a	n/a	-999	5	[5, 4, 7]	16	catFR1	4	R1469D
599.647	0.002	610705	WORD_OFF	n/a	n/a	PLANKTON	OceanAnimals	12	5	[0, 0, 0]	n/a	catFR1	4	R1469D
599.649	0.0	610705	ENCODING_END	n/a	n/a	n/a	n/a	-999	5	[0, 0, 0]	n/a	catFR1	4	R1469D
599.649	0.0	610705	DISTRACT_START	n/a	n/a	n/a	n/a	-999	5	[0, 0, 0]	n/a	catFR1	4	R1469D
599.649	3.882	610706	START	n/a	n/a	n/a	n/a	-999	5	[-999, -999, -999]	n/a	catFR1	4	R1469D
603.531	4.417	614588	PROB	4.417	n/a	n/a	n/a	-999	5	[4, 4, 2]	10	catFR1	4	R1469D
607.948	5.382	619005	PROB	5.382	n/a	n/a	n/a	-999	5	[2, 7, 4]	13	catFR1	4	R1469D
613.33	3.917	624386	PROB	3.917	n/a	n/a	n/a	-999	5	[4, 7, 4]	15	catFR1	4	R1469D
617.247	2.7	628303	PROB	2.7	n/a	n/a	n/a	-999	5	[4, 1, 4]	9	catFR1	4	R1469D
619.947	0.0	631003	STOP	n/a	n/a	n/a	n/a	-999	5	[-999, -999, -999]	n/a	catFR1	4	R1469D
619.947	2.35	631006	DISTRACT_END	n/a	n/a	n/a	n/a	-999	5	[0, 0, 0]	n/a	catFR1	4	R1469D
622.297	1.92	633352	REC_START	n/a	n/a	n/a	n/a	-999	5	[0, 0, 0]	n/a	catFR1	4	R1469D
624.217	0.69	635273	REC_WORD_VV	0.69	n/a	<>	n/a	-999	5	[0, 0, 0]	n/a	catFR1	4	R1469D
624.907	0.85	635963	REC_WORD	0.85	n/a	PANDA	Zoo	1	5	[0, 0, 0]	n/a	catFR1	4	R1469D
625.757	7.012	636813	REC_WORD	7.012	n/a	ZEBRA	Zoo	2	5	[0, 0, 0]	n/a	catFR1	4	R1469D
632.769	1.623	643824	REC_WORD	1.623	n/a	PLANKTON	OceanAnimals	12	5	[0, 0, 0]	n/a	catFR1	4	R1469D
634.392	0.797	645447	REC_WORD	0.797	n/a	BASS	Instruments	3	5	[0, 0, 0]	n/a	catFR1	4	R1469D
635.189	1.612	646244	REC_WORD	1.612	n/a	TUBA	Instruments	4	5	[0, 0, 0]	n/a	catFR1	4	R1469D
636.801	4.798	647856	REC_WORD	4.798	n/a	VIOLIN	Instruments	7	5	[0, 0, 0]	n/a	catFR1	4	R1469D
641.599	6.925	652654	REC_WORD	6.925	n/a	OYSTER	OceanAnimals	5	5	[0, 0, 0]	n/a	catFR1	4	R1469D
648.524	3.964	659579	REC_WORD	3.964	n/a	CHIMPANZEE	Zoo	10	5	[0, 0, 0]	n/a	catFR1	4	R1469D
652.488	14.693	663541	REC_END	n/a	n/a	n/a	n/a	-999	5	[0, 0, 0]	n/a	catFR1	4	R1469D
667.181	10.349	678232	COUNTDOWN_START	n/a	n/a	n/a	n/a	-999	5	[0, 0, 0]	n/a	catFR1	4	R1469D
677.53	0.0	688577	COUNTDOWN_END	n/a	n/a	n/a	n/a	-999	5	[0, 0, 0]	n/a	catFR1	4	R1469D
677.53	1.917	688577	ENCODING_START	n/a	n/a	n/a	n/a	-999	6	[0, 0, 0]	n/a	catFR1	4	R1469D
679.447	1.601	690502	WORD	n/a	wordpools/wordpool_categorized_EN.txt	BED	Furniture	1	6	[0, 0, 0]	n/a	catFR1	4	R1469D
681.048	0.815	692096	WORD_OFF	n/a	n/a	BED	Furniture	1	6	[0, 0, 0]	n/a	catFR1	4	R1469D
681.863	1.601	692911	WORD	n/a	wordpools/wordpool_categorized_EN.txt	CABINET	Furniture	2	6	[0, 0, 0]	n/a	catFR1	4	R1469D
683.464	0.849	694517	WORD_OFF	n/a	n/a	CABINET	Furniture	2	6	[0, 0, 0]	n/a	catFR1	4	R1469D
684.313	1.601	695367	WORD	n/a	wordpools/wordpool_categorized_EN.txt	VIOLET	Flowers	3	6	[0, 0, 0]	n/a	catFR1	4	R1469D
685.914	0.866	696962	WORD_OFF	n/a	n/a	VIOLET	Flowers	3	6	[0, 0, 0]	n/a	catFR1	4	R1469D
686.78	1.601	697836	WORD	n/a	wordpools/wordpool_categorized_EN.txt	ROSE	Flowers	4	6	[0, 0, 0]	n/a	catFR1	4	R1469D
688.381	0.916	699430	WORD_OFF	n/a	n/a	ROSE	Flowers	4	6	[0, 0, 0]	n/a	catFR1	4	R1469D
689.297	1.6	700351	WORD	n/a	wordpools/wordpool_categorized_EN.txt	PUDDING	Desserts	5	6	[0, 0, 0]	n/a	catFR1	4	R1469D
690.897	0.917	701945	WORD_OFF	n/a	n/a	PUDDING	Desserts	5	6	[0, 0, 0]	n/a	catFR1	4	R1469D
691.814	1.617	702866	WORD	n/a	wordpools/wordpool_categorized_EN.txt	CUPCAKE	Desserts	6	6	[0, 0, 0]	n/a	catFR1	4	R1469D
693.431	0.9	704484	WORD_OFF	n/a	n/a	CUPCAKE	Desserts	6	6	[0, 0, 0]	n/a	catFR1	4	R1469D
694.331	1.616	705382	WORD	n/a	wordpools/wordpool_categorized_EN.txt	SHELF	Furniture	7	6	[0, 0, 0]	n/a	catFR1	4	R1469D
695.947	0.816	707000	WORD_OFF	n/a	n/a	SHELF	Furniture	7	6	[0, 0, 0]	n/a	catFR1	4	R1469D
696.763	1.601	707815	WORD	n/a	wordpools/wordpool_categorized_EN.txt	CHAIR	Furniture	8	6	[0, 0, 0]	n/a	catFR1	4	R1469D
698.364	0.899	709409	WORD_OFF	n/a	n/a	CHAIR	Furniture	8	6	[0, 0, 0]	n/a	catFR1	4	R1469D
699.263	1.601	710318	WORD	n/a	wordpools/wordpool_categorized_EN.txt	MARIGOLD	Flowers	9	6	[0, 0, 0]	n/a	catFR1	4	R1469D
700.864	0.833	711913	WORD_OFF	n/a	n/a	MARIGOLD	Flowers	9	6	[0, 0, 0]	n/a	catFR1	4	R1469D
701.697	1.6	712751	WORD	n/a	wordpools/wordpool_categorized_EN.txt	DAFFODIL	Flowers	10	6	[0, 0, 0]	n/a	catFR1	4	R1469D
703.297	0.965	714345	WORD_OFF	n/a	n/a	DAFFODIL	Flowers	10	6	[0, 0, 0]	n/a	catFR1	4	R1469D
704.262	1.602	715314	WORD	n/a	wordpools/wordpool_categorized_EN.txt	COOKIE	Desserts	11	6	[0, 0, 0]	n/a	catFR1	4	R1469D
705.864	0.783	716908	WORD_OFF	n/a	n/a	COOKIE	Desserts	11	6	[0, 0, 0]	n/a	catFR1	4	R1469D
706.647	1.601	717699	WORD	n/a	wordpools/wordpool_categorized_EN.txt	BROWNIES	Desserts	12	6	[0, 0, 0]	n/a	catFR1	4	R1469D
708.248	0.001	719293	WORD_OFF	n/a	n/a	BROWNIES	Desserts	12	6	[0, 0, 0]	n/a	catFR1	4	R1469D
708.249	0.0	719293	ENCODING_END	n/a	n/a	n/a	n/a	-999	6	[0, 0, 0]	n/a	catFR1	4	R1469D
708.248	0.001	719299	PROB	0.001	n/a	n/a	n/a	-999	6	[8, 4, 5]	17	catFR1	4	R1469D
708.249	0.0	719300	START	n/a	n/a	n/a	n/a	-999	6	[-999, -999, -999]	n/a	catFR1	4	R1469D
708.249	4.566	719305	DISTRACT_START	n/a	n/a	n/a	n/a	-999	6	[0, 0, 0]	n/a	catFR1	4	R1469D
712.815	2.949	723866	PROB	2.949	n/a	n/a	n/a	-999	6	[7, 1, 8]	16	catFR1	4	R1469D
715.764	2.434	726815	PROB	2.434	n/a	n/a	n/a	-999	6	[1, 3, 1]	5	catFR1	4	R1469D
718.198	3.132	729249	PROB	3.132	n/a	n/a	n/a	-999	6	[4, 1, 5]	10	catFR1	4	R1469D
721.33	2.501	732381	PROB	2.501	n/a	n/a	n/a	-999	6	[7, 4, 6]	17	catFR1	4	R1469D
723.831	2.734	734881	PROB	2.734	n/a	n/a	n/a	-999	6	[1, 7, 8]	16	catFR1	4	R1469D
726.565	3.216	737615	PROB	3.216	n/a	n/a	n/a	-999	6	[3, 5, 6]	14	catFR1	4	R1469D
729.781	0.0	740831	STOP	n/a	n/a	n/a	n/a	-999	6	[-999, -999, -999]	n/a	catFR1	4	R1469D
729.781	2.182	740834	DISTRACT_END	n/a	n/a	n/a	n/a	-999	6	[0, 0, 0]	n/a	catFR1	4	R1469D
731.963	1.962	743015	REC_START	n/a	n/a	n/a	n/a	-999	6	[0, 0, 0]	n/a	catFR1	4	R1469D
733.925	1.0	744975	REC_WORD_VV	1.0	n/a	<>	n/a	-999	6	[0, 0, 0]	n/a	catFR1	4	R1469D
734.925	1.0	745975	REC_WORD_VV	1.0	n/a	<>	n/a	-999	6	[0, 0, 0]	n/a	catFR1	4	R1469D
735.925	0.312	746975	REC_WORD_VV	0.312	n/a	<>	n/a	-999	6	[0, 0, 0]	n/a	catFR1	4	R1469D
736.237	0.709	747287	REC_WORD	0.709	n/a	VIOLET	Flowers	3	6	[0, 0, 0]	n/a	catFR1	4	R1469D
736.946	2.692	747996	REC_WORD	2.692	n/a	ROSE	Flowers	4	6	[0, 0, 0]	n/a	catFR1	4	R1469D
739.638	22.51	750688	REC_WORD	22.51	n/a	DAFFODIL	Flowers	10	6	[0, 0, 0]	n/a	catFR1	4	R1469D
762.148	6.9	773192	REC_END	n/a	n/a	n/a	n/a	-999	6	[0, 0, 0]	n/a	catFR1	4	R1469D
769.048	10.349	780089	COUNTDOWN_START	n/a	n/a	n/a	n/a	-999	6	[0, 0, 0]	n/a	catFR1	4	R1469D
779.397	0.0	790446	COUNTDOWN_END	n/a	n/a	n/a	n/a	-999	6	[0, 0, 0]	n/a	catFR1	4	R1469D
779.397	2.067	790446	ENCODING_START	n/a	n/a	n/a	n/a	-999	7	[0, 0, 0]	n/a	catFR1	4	R1469D
781.464	1.6	792512	WORD	n/a	wordpools/wordpool_categorized_EN.txt	COBBLER	Desserts	1	7	[0, 0, 0]	n/a	catFR1	4	R1469D
783.064	0.934	794107	WORD_OFF	n/a	n/a	COBBLER	Desserts	1	7	[0, 0, 0]	n/a	catFR1	4	R1469D
783.998	1.616	795040	WORD	n/a	wordpools/wordpool_categorized_EN.txt	PASTRY	Desserts	2	7	[0, 0, 0]	n/a	catFR1	4	R1469D
785.614	0.883	796658	WORD_OFF	n/a	n/a	PASTRY	Desserts	2	7	[0, 0, 0]	n/a	catFR1	4	R1469D
786.497	1.6	797543	WORD	n/a	wordpools/wordpool_categorized_EN.txt	STEREO	Electronics	3	7	[0, 0, 0]	n/a	catFR1	4	R1469D
788.097	0.983	799138	WORD_OFF	n/a	n/a	STEREO	Electronics	3	7	[0, 0, 0]	n/a	catFR1	4	R1469D
789.08	1.601	800130	WORD	n/a	wordpools/wordpool_categorized_EN.txt	PRINTER	Electronics	4	7	[0, 0, 0]	n/a	catFR1	4	R1469D
790.681	0.916	801724	WORD_OFF	n/a	n/a	PRINTER	Electronics	4	7	[0, 0, 0]	n/a	catFR1	4	R1469D
791.597	1.617	802645	WORD	n/a	wordpools/wordpool_categorized_EN.txt	CARNATION	Flowers	5	7	[0, 0, 0]	n/a	catFR1	4	R1469D
793.214	0.983	804263	WORD_OFF	n/a	n/a	CARNATION	Flowers	5	7	[0, 0, 0]	n/a	catFR1	4	R1469D
794.197	1.6	805243	WORD	n/a	wordpools/wordpool_categorized_EN.txt	PETUNIA	Flowers	6	7	[0, 0, 0]	n/a	catFR1	4	R1469D
795.797	0.817	806837	WORD_OFF	n/a	n/a	PETUNIA	Flowers	6	7	[0, 0, 0]	n/a	catFR1	4	R1469D
796.614	1.6	807664	WORD	n/a	wordpools/wordpool_categorized_EN.txt	COMPUTER	Electronics	7	7	[0, 0, 0]	n/a	catFR1	4	R1469D
798.214	0.881	809258	WORD_OFF	n/a	n/a	COMPUTER	Electronics	7	7	[0, 0, 0]	n/a	catFR1	4	R1469D
799.095	1.602	810144	WORD	n/a	wordpools/wordpool_categorized_EN.txt	RADIO	Electronics	8	7	[0, 0, 0]	n/a	catFR1	4	R1469D
800.697	0.917	811738	WORD_OFF	n/a	n/a	RADIO	Electronics	8	7	[0, 0, 0]	n/a	catFR1	4	R1469D
801.614	1.617	812659	WORD	n/a	wordpools/wordpool_categorized_EN.txt	MOUSSE	Desserts	9	7	[0, 0, 0]	n/a	catFR1	4	R1469D
803.231	0.966	814277	WORD_OFF	n/a	n/a	MOUSSE	Desserts	9	7	[0, 0, 0]	n/a	catFR1	4	R1469D
804.197	1.616	815246	WORD	n/a	wordpools/wordpool_categorized_EN.txt	FUDGE	Desserts	10	7	[0, 0, 0]	n/a	catFR1	4	R1469D
805.813	0.95	816852	WORD_OFF	n/a	n/a	FUDGE	Desserts	10	7	[0, 0, 0]	n/a	catFR1	4	R1469D
806.763	1.601	817808	WORD	n/a	wordpools/wordpool_categorized_EN.txt	TULIP	Flowers	11	7	[0, 0, 0]	n/a	catFR1	4	R1469D
808.364	0.784	819403	WORD_OFF	n/a	n/a	TULIP	Flowers	11	7	[0, 0, 0]	n/a	catFR1	4	R1469D
809.148	1.616	820194	WORD	n/a	wordpools/wordpool_categorized_EN.txt	LILAC	Flowers	12	7	[0, 0, 0]	n/a	catFR1	4	R1469D
810.764	0.001	821810	PROB	0.001	n/a	n/a	n/a	-999	7	[4, 1, 2]	7	catFR1	4	R1469D
810.765	0.0	821811	START	n/a	n/a	n/a	n/a	-999	7	[-999, -999, -999]	n/a	catFR1	4	R1469D
810.764	0.001	821812	WORD_OFF	n/a	n/a	LILAC	Flowers	12	7	[0, 0, 0]	n/a	catFR1	4	R1469D
810.765	0.0	821812	ENCODING_END	n/a	n/a	n/a	n/a	-999	7	[0, 0, 0]	n/a	catFR1	4	R1469D
810.765	3.917	821812	DISTRACT_START	n/a	n/a	n/a	n/a	-999	7	[0, 0, 0]	n/a	catFR1	4	R1469D
814.682	3.816	825728	PROB	3.816	n/a	n/a	n/a	-999	7	[5, 7, 7]	19	catFR1	4	R1469D
818.498	2.6	829543	PROB	2.6	n/a	n/a	n/a	-999	7	[1, 4, 2]	7	catFR1	4	R1469D
821.098	2.383	832143	PROB	2.383	n/a	n/a	n/a	-999	7	[4, 5, 2]	11	catFR1	4	R1469D
823.481	2.15	834526	PROB	2.15	n/a	n/a	n/a	-999	7	[1, 7, 1]	9	catFR1	4	R1469D
825.631	3.334	836676	PROB	3.334	n/a	n/a	n/a	-999	7	[6, 2, 3]	11	catFR1	4	R1469D
828.965	2.232	840010	PROB	2.232	n/a	n/a	n/a	-999	7	[1, 1, 3]	5	catFR1	4	R1469D
831.197	0.0	842242	DISTRACT_END	n/a	n/a	n/a	n/a	-999	7	[0, 0, 0]	n/a	catFR1	4	R1469D
831.197	2.4	842242	STOP	n/a	n/a	n/a	n/a	-999	7	[-999, -999, -999]	n/a	catFR1	4	R1469D
833.597	4.524	844636	REC_START	n/a	n/a	n/a	n/a	-999	7	[0, 0, 0]	n/a	catFR1	4	R1469D
838.121	1.54	849165	REC_WORD	1.54	n/a	FUDGE	Desserts	10	7	[0, 0, 0]	n/a	catFR1	4	R1469D
839.661	2.172	850705	REC_WORD	2.172	n/a	COBBLER	Desserts	1	7	[0, 0, 0]	n/a	catFR1	4	R1469D
841.833	2.161	852877	REC_WORD	2.161	n/a	LILAC	Flowers	12	7	[0, 0, 0]	n/a	catFR1	4	R1469D
843.994	1.566	855038	REC_WORD_VV	1.566	n/a	<>	n/a	-999	7	[0, 0, 0]	n/a	catFR1	4	R1469D
845.56	0.825	856604	REC_WORD	0.825	n/a	TULIP	Flowers	11	7	[0, 0, 0]	n/a	catFR1	4	R1469D
846.385	0.909	857429	REC_WORD	0.909	n/a	DAFFODIL	Flowers	-999	7	[0, 0, 0]	n/a	catFR1	4	R1469D
847.294	2.483	858338	REC_WORD	2.483	n/a	ROSE	Flowers	-999	7	[0, 0, 0]	n/a	catFR1	4	R1469D
849.777	2.681	860821	REC_WORD_VV	2.681	n/a	<>	n/a	-999	7	[0, 0, 0]	n/a	catFR1	4	R1469D
852.458	1.0	863502	REC_WORD	1.0	n/a	LILY	n/a	-999	7	[0, 0, 0]	n/a	catFR1	4	R1469D
853.458	2.304	864502	REC_WORD_VV	2.304	n/a	<>	n/a	-999	7	[0, 0, 0]	n/a	catFR1	4	R1469D
855.762	3.198	866805	REC_WORD	3.198	n/a	PUDDING	Desserts	-999	7	[0, 0, 0]	n/a	catFR1	4	R1469D
858.96	2.679	870003	REC_WORD_VV	2.679	n/a	<>	n/a	-999	7	[0, 0, 0]	n/a	catFR1	4	R1469D
861.639	2.168	872682	REC_WORD	2.168	n/a	COMPUTER	Electronics	7	7	[0, 0, 0]	n/a	catFR1	4	R1469D
863.807	5.974	874848	REC_END	n/a	n/a	n/a	n/a	-999	7	[0, 0, 0]	n/a	catFR1	4	R1469D
869.781	10.35	880824	COUNTDOWN_START	n/a	n/a	n/a	n/a	-999	7	[0, 0, 0]	n/a	catFR1	4	R1469D
880.131	0.0	891169	COUNTDOWN_END	n/a	n/a	n/a	n/a	-999	7	[0, 0, 0]	n/a	catFR1	4	R1469D
880.131	2.366	891169	ENCODING_START	n/a	n/a	n/a	n/a	-999	8	[0, 0, 0]	n/a	catFR1	4	R1469D
882.497	1.6	893543	WORD	n/a	wordpools/wordpool_categorized_EN.txt	COLANDER	KitchenTools	1	8	[0, 0, 0]	n/a	catFR1	4	R1469D
884.097	0.867	895137	WORD_OFF	n/a	n/a	COLANDER	KitchenTools	1	8	[0, 0, 0]	n/a	catFR1	4	R1469D
884.964	1.6	895999	WORD	n/a	wordpools/wordpool_categorized_EN.txt	SPOON	KitchenTools	2	8	[0, 0, 0]	n/a	catFR1	4	R1469D
886.564	0.95	897605	WORD_OFF	n/a	n/a	SPOON	KitchenTools	2	8	[0, 0, 0]	n/a	catFR1	4	R1469D
887.514	1.6	898550	WORD	n/a	wordpools/wordpool_categorized_EN.txt	SANDER	Tools	3	8	[0, 0, 0]	n/a	catFR1	4	R1469D
889.114	0.9	900156	WORD_OFF	n/a	n/a	SANDER	Tools	3	8	[0, 0, 0]	n/a	catFR1	4	R1469D
890.014	1.617	901054	WORD	n/a	wordpools/wordpool_categorized_EN.txt	WRENCH	Tools	4	8	[0, 0, 0]	n/a	catFR1	4	R1469D
891.631	1.0	902672	WORD_OFF	n/a	n/a	WRENCH	Tools	4	8	[0, 0, 0]	n/a	catFR1	4	R1469D
892.631	1.6	903675	WORD	n/a	wordpools/wordpool_categorized_EN.txt	PIE	Desserts	5	8	[0, 0, 0]	n/a	catFR1	4	R1469D
894.231	0.767	905270	WORD_OFF	n/a	n/a	PIE	Desserts	5	8	[0, 0, 0]	n/a	catFR1	4	R1469D
894.998	1.599	906037	WORD	n/a	wordpools/wordpool_categorized_EN.txt	CHEESECAKE	Desserts	6	8	[0, 0, 0]	n/a	catFR1	4	R1469D
896.597	0.784	907632	WORD_OFF	n/a	n/a	CHEESECAKE	Desserts	6	8	[0, 0, 0]	n/a	catFR1	4	R1469D
897.381	1.6	908423	WORD	n/a	wordpools/wordpool_categorized_EN.txt	GRATER	KitchenTools	7	8	[0, 0, 0]	n/a	catFR1	4	R1469D
898.981	0.933	910017	WORD_OFF	n/a	n/a	GRATER	KitchenTools	7	8	[0, 0, 0]	n/a	catFR1	4	R1469D
899.914	1.617	910950	WORD	n/a	wordpools/wordpool_categorized_EN.txt	TONGS	KitchenTools	8	8	[0, 0, 0]	n/a	catFR1	4	R1469D
901.531	0.833	912568	WORD_OFF	n/a	n/a	TONGS	KitchenTools	8	8	[0, 0, 0]	n/a	catFR1	4	R1469D
902.364	1.6	913406	WORD	n/a	wordpools/wordpool_categorized_EN.txt	DRILL	Tools	9	8	[0, 0, 0]	n/a	catFR1	4	R1469D
903.964	0.817	915001	WORD_OFF	n/a	n/a	DRILL	Tools	9	8	[0, 0, 0]	n/a	catFR1	4	R1469D
904.781	1.615	915816	WORD	n/a	wordpools/wordpool_categorized_EN.txt	SAW	Tools	10	8	[0, 0, 0]	n/a	catFR1	4	R1469D
906.396	0.834	917433	WORD_OFF	n/a	n/a	SAW	Tools	10	8	[0, 0, 0]	n/a	catFR1	4	R1469D
907.23	1.6	918272	WORD	n/a	wordpools/wordpool_categorized_EN.txt	CAKE	Desserts	11	8	[0, 0, 0]	n/a	catFR1	4	R1469D
908.83	0.817	919866	WORD_OFF	n/a	n/a	CAKE	Desserts	11	8	[0, 0, 0]	n/a	catFR1	4	R1469D
909.647	1.617	920681	WORD	n/a	wordpools/wordpool_categorized_EN.txt	JELLO	Desserts	12	8	[0, 0, 0]	n/a	catFR1	4	R1469D
911.264	0.002	922299	WORD_OFF	n/a	n/a	JELLO	Desserts	12	8	[0, 0, 0]	n/a	catFR1	4	R1469D
911.266	0.0	922299	ENCODING_END	n/a	n/a	n/a	n/a	-999	8	[0, 0, 0]	n/a	catFR1	4	R1469D
911.265	0.001	922305	PROB	0.001	n/a	n/a	n/a	-999	8	[3, 3, 4]	10	catFR1	4	R1469D
911.266	0.0	922306	START	n/a	n/a	n/a	n/a	-999	8	[-999, -999, -999]	n/a	catFR1	4	R1469D
911.266	3.549	922311	DISTRACT_START	n/a	n/a	n/a	n/a	-999	8	[0, 0, 0]	n/a	catFR1	4	R1469D
914.815	2.316	925855	PROB	2.316	n/a	n/a	n/a	-999	8	[5, 5, 6]	16	catFR1	4	R1469D
917.131	2.833	928171	PROB	2.833	n/a	n/a	n/a	-999	8	[4, 8, 1]	13	catFR1	4	R1469D
919.964	2.967	931004	PROB	2.967	n/a	n/a	n/a	-999	8	[7, 7, 1]	15	catFR1	4	R1469D
922.931	2.333	933971	PROB	2.333	n/a	n/a	n/a	-999	8	[5, 4, 2]	11	catFR1	4	R1469D
925.264	3.217	936304	PROB	3.217	n/a	n/a	n/a	-999	8	[2, 2, 5]	9	catFR1	4	R1469D
928.481	2.933	939520	PROB	2.933	n/a	n/a	n/a	-999	8	[8, 4, 1]	13	catFR1	4	R1469D
931.414	0.0	942446	DISTRACT_END	n/a	n/a	n/a	n/a	-999	8	[0, 0, 0]	n/a	catFR1	4	R1469D
931.414	2.033	942453	STOP	n/a	n/a	n/a	n/a	-999	8	[-999, -999, -999]	n/a	catFR1	4	R1469D
933.447	0.793	944485	REC_START	n/a	n/a	n/a	n/a	-999	8	[0, 0, 0]	n/a	catFR1	4	R1469D
934.24	1.0	945279	REC_WORD_VV	1.0	n/a	<>	n/a	-999	8	[0, 0, 0]	n/a	catFR1	4	R1469D
935.24	1.41	946279	REC_WORD_VV	1.41	n/a	<>	n/a	-999	8	[0, 0, 0]	n/a	catFR1	4	R1469D
936.65	0.826	947689	REC_WORD	0.826	n/a	COLANDER	KitchenTools	1	8	[0, 0, 0]	n/a	catFR1	4	R1469D
937.476	2.728	948515	REC_WORD	2.728	n/a	SPOON	KitchenTools	2	8	[0, 0, 0]	n/a	catFR1	4	R1469D
940.204	1.285	951243	REC_WORD	1.285	n/a	SANDER	Tools	3	8	[0, 0, 0]	n/a	catFR1	4	R1469D
941.489	11.535	952528	REC_WORD	11.535	n/a	SCREWDRIVER	n/a	-999	8	[0, 0, 0]	n/a	catFR1	4	R1469D
953.024	4.435	964062	REC_WORD	4.435	n/a	GRATER	KitchenTools	7	8	[0, 0, 0]	n/a	catFR1	4	R1469D
957.459	1.116	968497	REC_WORD	1.116	n/a	AXE	n/a	-999	8	[0, 0, 0]	n/a	catFR1	4	R1469D
958.575	5.07	969613	REC_WORD	5.07	n/a	WRENCH	Tools	4	8	[0, 0, 0]	n/a	catFR1	4	R1469D
963.645	3.118	974686	REC_END	n/a	n/a	n/a	n/a	-999	8	[0, 0, 0]	n/a	catFR1	4	R1469D
966.763	10.35	977804	COUNTDOWN_START	n/a	n/a	n/a	n/a	-999	8	[0, 0, 0]	n/a	catFR1	4	R1469D
977.113	0.0	988149	COUNTDOWN_END	n/a	n/a	n/a	n/a	-999	8	[0, 0, 0]	n/a	catFR1	4	R1469D
977.113	2.218	988149	ENCODING_START	n/a	n/a	n/a	n/a	-999	9	[0, 0, 0]	n/a	catFR1	4	R1469D
979.331	1.617	990369	WORD	n/a	wordpools/wordpool_categorized_EN.txt	FOLDER	OfficeSupplies	1	9	[0, 0, 0]	n/a	catFR1	4	R1469D
980.948	0.799	991987	WORD_OFF	n/a	n/a	FOLDER	OfficeSupplies	1	9	[0, 0, 0]	n/a	catFR1	4	R1469D
981.747	1.6	992778	WORD	n/a	wordpools/wordpool_categorized_EN.txt	GLUE	OfficeSupplies	2	9	[0, 0, 0]	n/a	catFR1	4	R1469D
983.347	0.766	994384	WORD_OFF	n/a	n/a	GLUE	OfficeSupplies	2	9	[0, 0, 0]	n/a	catFR1	4	R1469D
984.113	1.6	995152	WORD	n/a	wordpools/wordpool_categorized_EN.txt	SPIDER	Insects	3	9	[0, 0, 0]	n/a	catFR1	4	R1469D
985.713	0.935	996746	WORD_OFF	n/a	n/a	SPIDER	Insects	3	9	[0, 0, 0]	n/a	catFR1	4	R1469D
986.648	1.616	997679	WORD	n/a	wordpools/wordpool_categorized_EN.txt	BEETLE	Insects	4	9	[0, 0, 0]	n/a	catFR1	4	R1469D
988.264	1.0	999297	WORD_OFF	n/a	n/a	BEETLE	Insects	4	9	[0, 0, 0]	n/a	catFR1	4	R1469D
989.264	1.6	1000301	WORD	n/a	wordpools/wordpool_categorized_EN.txt	WHISK	KitchenTools	5	9	[0, 0, 0]	n/a	catFR1	4	R1469D
990.864	0.916	1001895	WORD_OFF	n/a	n/a	WHISK	KitchenTools	5	9	[0, 0, 0]	n/a	catFR1	4	R1469D
991.78	1.601	1002816	WORD	n/a	wordpools/wordpool_categorized_EN.txt	PEELER	KitchenTools	6	9	[0, 0, 0]	n/a	catFR1	4	R1469D
993.381	0.933	1004411	WORD_OFF	n/a	n/a	PEELER	KitchenTools	6	9	[0, 0, 0]	n/a	catFR1	4	R1469D
994.314	1.6	1005344	WORD	n/a	wordpools/wordpool_categorized_EN.txt	STAPLER	OfficeSupplies	7	9	[0, 0, 0]	n/a	catFR1	4	R1469D
995.914	0.917	1006950	WORD_OFF	n/a	n/a	STAPLER	OfficeSupplies	7	9	[0, 0, 0]	n/a	catFR1	4	R1469D
996.831	1.6	1007859	WORD	n/a	wordpools/wordpool_categorized_EN.txt	TAPE	OfficeSupplies	8	9	[0, 0, 0]	n/a	catFR1	4	R1469D
998.431	0.866	1009465	WORD_OFF	n/a	n/a	TAPE	OfficeSupplies	8	9	[0, 0, 0]	n/a	catFR1	4	R1469D
999.297	1.601	1010327	WORD	n/a	wordpools/wordpool_categorized_EN.txt	GNAT	Insects	9	9	[0, 0, 0]	n/a	catFR1	4	R1469D
1000.898	0.883	1011933	WORD_OFF	n/a	n/a	GNAT	Insects	9	9	[0, 0, 0]	n/a	catFR1	4	R1469D
1001.781	1.616	1012819	WORD	n/a	wordpools/wordpool_categorized_EN.txt	FLY	Insects	10	9	[0, 0, 0]	n/a	catFR1	4	R1469D
1003.397	0.967	1014425	WORD_OFF	n/a	n/a	FLY	Insects	10	9	[0, 0, 0]	n/a	catFR1	4	R1469D
1004.364	1.617	1015393	WORD	n/a	wordpools/wordpool_categorized_EN.txt	KNIFE	KitchenTools	11	9	[0, 0, 0]	n/a	catFR1	4	R1469D
1005.981	0.95	1017011	WORD_OFF	n/a	n/a	KNIFE	KitchenTools	11	9	[0, 0, 0]	n/a	catFR1	4	R1469D
1006.931	1.617	1017968	WORD	n/a	wordpools/wordpool_categorized_EN.txt	FORK	KitchenTools	12	9	[0, 0, 0]	n/a	catFR1	4	R1469D
1008.548	0.001	1019583	PROB	0.001	n/a	n/a	n/a	-999	9	[1, 8, 2]	11	catFR1	4	R1469D
1008.549	0.0	1019584	START	n/a	n/a	n/a	n/a	-999	9	[-999, -999, -999]	n/a	catFR1	4	R1469D
1008.547	0.002	1019586	WORD_OFF	n/a	n/a	FORK	KitchenTools	12	9	[0, 0, 0]	n/a	catFR1	4	R1469D
1008.549	0.0	1019586	ENCODING_END	n/a	n/a	n/a	n/a	-999	9	[0, 0, 0]	n/a	catFR1	4	R1469D
1008.549	3.632	1019586	DISTRACT_START	n/a	n/a	n/a	n/a	-999	9	[0, 0, 0]	n/a	catFR1	4	R1469D
1012.181	3.333	1023216	PROB	3.333	n/a	n/a	n/a	-999	9	[7, 1, 4]	12	catFR1	4	R1469D
1015.514	2.65	1026549	PROB	2.65	n/a	n/a	n/a	-999	9	[6, 3, 3]	12	catFR1	4	R1469D
1018.164	4.101	1029199	PROB	4.101	n/a	n/a	n/a	-999	9	[6, 4, 2]	12	catFR1	4	R1469D
1022.265	2.7	1033299	PROB	2.7	n/a	n/a	n/a	-999	9	[3, 3, 2]	8	catFR1	4	R1469D
1024.965	2.333	1035999	PROB	2.333	n/a	n/a	n/a	-999	9	[5, 1, 1]	7	catFR1	4	R1469D
1027.298	3.249	1038332	PROB	3.249	n/a	n/a	n/a	-999	9	[5, 4, 2]	11	catFR1	4	R1469D
1030.547	0.0	1041575	DISTRACT_END	n/a	n/a	n/a	n/a	-999	9	[0, 0, 0]	n/a	catFR1	4	R1469D
1030.547	2.334	1041581	STOP	n/a	n/a	n/a	n/a	-999	9	[-999, -999, -999]	n/a	catFR1	4	R1469D
1032.881	1.5	1043910	REC_START	n/a	n/a	n/a	n/a	-999	9	[0, 0, 0]	n/a	catFR1	4	R1469D
1034.381	1.28	1045415	REC_WORD_VV	1.28	n/a	<>	n/a	-999	9	[0, 0, 0]	n/a	catFR1	4	R1469D
1035.661	1.091	1046695	REC_WORD	1.091	n/a	FOLDER	OfficeSupplies	1	9	[0, 0, 0]	n/a	catFR1	4	R1469D
1036.752	0.879	1047786	REC_WORD	0.879	n/a	GLUE	OfficeSupplies	2	9	[0, 0, 0]	n/a	catFR1	4	R1469D
1037.631	5.744	1048665	REC_WORD	5.744	n/a	STAPLER	OfficeSupplies	7	9	[0, 0, 0]	n/a	catFR1	4	R1469D
1043.375	8.645	1054408	REC_WORD	8.645	n/a	GNAT	Insects	9	9	[0, 0, 0]	n/a	catFR1	4	R1469D
1052.02	9.778	1063053	REC_WORD_VV	9.778	n/a	<>	n/a	-999	9	[0, 0, 0]	n/a	catFR1	4	R1469D
1061.798	1.323	1072830	REC_WORD_VV	1.323	n/a	<>	n/a	-999	9	[0, 0, 0]	n/a	catFR1	4	R1469D
1063.121	9.31	1074146	REC_END	n/a	n/a	n/a	n/a	-999	9	[0, 0, 0]	n/a	catFR1	4	R1469D
1072.431	10.349	1083463	COUNTDOWN_START	n/a	n/a	n/a	n/a	-999	9	[0, 0, 0]	n/a	catFR1	4	R1469D
1082.78	0.0	1093809	COUNTDOWN_END	n/a	n/a	n/a	n/a	-999	9	[0, 0, 0]	n/a	catFR1	4	R1469D
1082.78	2.317	1093809	ENCODING_START	n/a	n/a	n/a	n/a	-999	10	[0, 0, 0]	n/a	catFR1	4	R1469D
1085.097	1.6	1096123	WORD	n/a	wordpools/wordpool_categorized_EN.txt	SUNFLOWER	Flowers	1	10	[0, 0, 0]	n/a	catFR1	4	R1469D
1086.697	0.817	1097729	WORD_OFF	n/a	n/a	SUNFLOWER	Flowers	1	10	[0, 0, 0]	n/a	catFR1	4	R1469D
1087.514	1.616	1098544	WORD	n/a	wordpools/wordpool_categorized_EN.txt	ORCHID	Flowers	2	10	[0, 0, 0]	n/a	catFR1	4	R1469D
1089.13	0.9	1100162	WORD_OFF	n/a	n/a	ORCHID	Flowers	2	10	[0, 0, 0]	n/a	catFR1	4	R1469D
1090.03	1.6	1101060	WORD	n/a	wordpools/wordpool_categorized_EN.txt	SPATULA	KitchenTools	3	10	[0, 0, 0]	n/a	catFR1	4	R1469D
1091.63	0.883	1102654	WORD_OFF	n/a	n/a	SPATULA	KitchenTools	3	10	[0, 0, 0]	n/a	catFR1	4	R1469D
1092.513	1.601	1103540	WORD	n/a	wordpools/wordpool_categorized_EN.txt	STRAINER	KitchenTools	4	10	[0, 0, 0]	n/a	catFR1	4	R1469D
1094.114	0.849	1105146	WORD_OFF	n/a	n/a	STRAINER	KitchenTools	4	10	[0, 0, 0]	n/a	catFR1	4	R1469D
1094.963	1.601	1105996	WORD	n/a	wordpools/wordpool_categorized_EN.txt	SILK	Fabric	5	10	[0, 0, 0]	n/a	catFR1	4	R1469D
1096.564	0.783	1107590	WORD_OFF	n/a	n/a	SILK	Fabric	5	10	[0, 0, 0]	n/a	catFR1	4	R1469D
1097.347	1.6	1108382	WORD	n/a	wordpools/wordpool_categorized_EN.txt	COTTON	Fabric	6	10	[0, 0, 0]	n/a	catFR1	4	R1469D
1098.947	0.934	1109976	WORD_OFF	n/a	n/a	COTTON	Fabric	6	10	[0, 0, 0]	n/a	catFR1	4	R1469D
1099.881	1.6	1110909	WORD	n/a	wordpools/wordpool_categorized_EN.txt	LADLE	KitchenTools	7	10	[0, 0, 0]	n/a	catFR1	4	R1469D
1101.481	0.883	1112503	WORD_OFF	n/a	n/a	LADLE	KitchenTools	7	10	[0, 0, 0]	n/a	catFR1	4	R1469D
1102.364	1.6	1113389	WORD	n/a	wordpools/wordpool_categorized_EN.txt	CORKSCREW	KitchenTools	8	10	[0, 0, 0]	n/a	catFR1	4	R1469D
1103.964	0.8	1114995	WORD_OFF	n/a	n/a	CORKSCREW	KitchenTools	8	10	[0, 0, 0]	n/a	catFR1	4	R1469D
1104.764	1.617	1115786	WORD	n/a	wordpools/wordpool_categorized_EN.txt	SATIN	Fabric	9	10	[0, 0, 0]	n/a	catFR1	4	R1469D
1106.381	0.833	1117404	WORD_OFF	n/a	n/a	SATIN	Fabric	9	10	[0, 0, 0]	n/a	catFR1	4	R1469D
1107.214	1.6	1118242	WORD	n/a	wordpools/wordpool_categorized_EN.txt	SUEDE	Fabric	10	10	[0, 0, 0]	n/a	catFR1	4	R1469D
1108.814	0.983	1119837	WORD_OFF	n/a	n/a	SUEDE	Fabric	10	10	[0, 0, 0]	n/a	catFR1	4	R1469D
1109.797	1.6	1120829	WORD	n/a	wordpools/wordpool_categorized_EN.txt	DAISY	Flowers	11	10	[0, 0, 0]	n/a	catFR1	4	R1469D
1111.397	0.884	1122423	WORD_OFF	n/a	n/a	DAISY	Flowers	11	10	[0, 0, 0]	n/a	catFR1	4	R1469D
1112.281	1.6	1123309	WORD	n/a	wordpools/wordpool_categorized_EN.txt	LILY	Flowers	12	10	[0, 0, 0]	n/a	catFR1	4	R1469D
1113.881	0.0	1124903	WORD_OFF	n/a	n/a	LILY	Flowers	12	10	[0, 0, 0]	n/a	catFR1	4	R1469D
1113.881	0.001	1124911	PROB	0.001	n/a	n/a	n/a	-999	10	[5, 1, 3]	9	catFR1	4	R1469D
1113.882	0.0	1124912	START	n/a	n/a	n/a	n/a	-999	10	[-999, -999, -999]	n/a	catFR1	4	R1469D
1113.882	0.0	1124915	ENCODING_END	n/a	n/a	n/a	n/a	-999	10	[0, 0, 0]	n/a	catFR1	4	R1469D
1113.882	3.6	1124915	DISTRACT_START	n/a	n/a	n/a	n/a	-999	10	[0, 0, 0]	n/a	catFR1	4	R1469D
1117.482	3.516	1128511	PROB	3.516	n/a	n/a	n/a	-999	10	[4, 8, 5]	19	catFR1	4	R1469D
1120.998	6.85	1132027	PROB	6.85	n/a	n/a	n/a	-999	10	[7, 1, 4]	12	catFR1	4	R1469D
1127.848	2.75	1138877	PROB	2.75	n/a	n/a	n/a	-999	10	[2, 4, 1]	7	catFR1	4	R1469D
1130.598	2.333	1141627	PROB	2.333	n/a	n/a	n/a	-999	10	[8, 1, 2]	11	catFR1	4	R1469D
1132.931	4.0	1143960	PROB	4.0	n/a	n/a	n/a	-999	10	[8, 3, 1]	12	catFR1	4	R1469D
1136.931	0.0	1147955	DISTRACT_END	n/a	n/a	n/a	n/a	-999	10	[0, 0, 0]	n/a	catFR1	4	R1469D
1136.931	2.3	1147959	STOP	n/a	n/a	n/a	n/a	-999	10	[-999, -999, -999]	n/a	catFR1	4	R1469D
1139.231	0.214	1150254	REC_START	n/a	n/a	n/a	n/a	-999	10	[0, 0, 0]	n/a	catFR1	4	R1469D
1139.445	1.547	1150473	REC_WORD_VV	1.547	n/a	<>	n/a	-999	10	[0, 0, 0]	n/a	catFR1	4	R1469D
1140.992	0.731	1152020	REC_WORD	0.731	n/a	SILK	Fabric	5	10	[0, 0, 0]	n/a	catFR1	4	R1469D
1141.723	0.652	1152751	REC_WORD	0.652	n/a	COTTON	Fabric	6	10	[0, 0, 0]	n/a	catFR1	4	R1469D
1142.375	3.626	1153403	REC_WORD	3.626	n/a	SUEDE	Fabric	10	10	[0, 0, 0]	n/a	catFR1	4	R1469D
1146.001	1.279	1157029	REC_WORD	1.279	n/a	ORCHID	Flowers	2	10	[0, 0, 0]	n/a	catFR1	4	R1469D
1147.28	7.455	1158308	REC_WORD	7.455	n/a	LILY	Flowers	12	10	[0, 0, 0]	n/a	catFR1	4	R1469D
1154.735	1.0	1165762	REC_WORD	1.0	n/a	PETUNIA	Flowers	-999	10	[0, 0, 0]	n/a	catFR1	4	R1469D
1155.735	1.0	1166762	REC_WORD_VV	1.0	n/a	<>	n/a	-999	10	[0, 0, 0]	n/a	catFR1	4	R1469D
1156.735	2.745	1167762	REC_WORD_VV	2.745	n/a	<>	n/a	-999	10	[0, 0, 0]	n/a	catFR1	4	R1469D
1159.48	1.991	1170507	REC_WORD	1.991	n/a	CORKSCREW	KitchenTools	8	10	[0, 0, 0]	n/a	catFR1	4	R1469D
1161.471	1.762	1172498	REC_WORD	1.762	n/a	LADLE	KitchenTools	7	10	[0, 0, 0]	n/a	catFR1	4	R1469D
1163.233	6.226	1174260	REC_WORD	6.226	n/a	SPATULA	KitchenTools	3	10	[0, 0, 0]	n/a	catFR1	4	R1469D
1169.459	3.555	1180479	REC_END	n/a	n/a	n/a	n/a	-999	10	[0, 0, 0]	n/a	catFR1	4	R1469D
1173.014	10.349	1184045	COUNTDOWN_START	n/a	n/a	n/a	n/a	-999	10	[0, 0, 0]	n/a	catFR1	4	R1469D
1183.363	0.0	1194390	COUNTDOWN_END	n/a	n/a	n/a	n/a	-999	10	[0, 0, 0]	n/a	catFR1	4	R1469D
1183.363	2.101	1194390	ENCODING_START	n/a	n/a	n/a	n/a	-999	11	[0, 0, 0]	n/a	catFR1	4	R1469D
1185.464	1.617	1196492	WORD	n/a	wordpools/wordpool_categorized_EN.txt	LEG	BodyParts	1	11	[0, 0, 0]	n/a	catFR1	4	R1469D
1187.081	0.767	1198098	WORD_OFF	n/a	n/a	LEG	BodyParts	1	11	[0, 0, 0]	n/a	catFR1	4	R1469D
1187.848	1.599	1198866	WORD	n/a	wordpools/wordpool_categorized_EN.txt	EYE	BodyParts	2	11	[0, 0, 0]	n/a	catFR1	4	R1469D
1189.447	0.817	1200472	WORD_OFF	n/a	n/a	EYE	BodyParts	2	11	[0, 0, 0]	n/a	catFR1	4	R1469D
1190.264	1.6	1201287	WORD	n/a	wordpools/wordpool_categorized_EN.txt	PEN	OfficeSupplies	3	11	[0, 0, 0]	n/a	catFR1	4	R1469D
1191.864	0.816	1202881	WORD_OFF	n/a	n/a	PEN	OfficeSupplies	3	11	[0, 0, 0]	n/a	catFR1	4	R1469D
1192.68	1.601	1203708	WORD	n/a	wordpools/wordpool_categorized_EN.txt	ERASER	OfficeSupplies	4	11	[0, 0, 0]	n/a	catFR1	4	R1469D
1194.281	0.8	1205302	WORD_OFF	n/a	n/a	ERASER	OfficeSupplies	4	11	[0, 0, 0]	n/a	catFR1	4	R1469D
1195.081	1.616	1206105	WORD	n/a	wordpools/wordpool_categorized_EN.txt	VELVET	Fabric	5	11	[0, 0, 0]	n/a	catFR1	4	R1469D
1196.697	0.884	1207723	WORD_OFF	n/a	n/a	VELVET	Fabric	5	11	[0, 0, 0]	n/a	catFR1	4	R1469D
1197.581	1.616	1208597	WORD	n/a	wordpools/wordpool_categorized_EN.txt	NYLON	Fabric	6	11	[0, 0, 0]	n/a	catFR1	4	R1469D
1199.197	0.766	1210215	WORD_OFF	n/a	n/a	NYLON	Fabric	6	11	[0, 0, 0]	n/a	catFR1	4	R1469D
1199.963	1.601	1210983	WORD	n/a	wordpools/wordpool_categorized_EN.txt	TOE	BodyParts	7	11	[0, 0, 0]	n/a	catFR1	4	R1469D
1201.564	0.983	1212589	WORD_OFF	n/a	n/a	TOE	BodyParts	7	11	[0, 0, 0]	n/a	catFR1	4	R1469D
1202.547	1.617	1213569	WORD	n/a	wordpools/wordpool_categorized_EN.txt	NOSE	BodyParts	8	11	[0, 0, 0]	n/a	catFR1	4	R1469D
1204.164	0.833	1215187	WORD_OFF	n/a	n/a	NOSE	BodyParts	8	11	[0, 0, 0]	n/a	catFR1	4	R1469D
1204.997	1.617	1216025	WORD	n/a	wordpools/wordpool_categorized_EN.txt	WOOL	Fabric	9	11	[0, 0, 0]	n/a	catFR1	4	R1469D
1206.614	0.764	1217631	WORD_OFF	n/a	n/a	WOOL	Fabric	9	11	[0, 0, 0]	n/a	catFR1	4	R1469D
1207.378	1.602	1218399	WORD	n/a	wordpools/wordpool_categorized_EN.txt	FLEECE	Fabric	10	11	[0, 0, 0]	n/a	catFR1	4	R1469D
1208.98	0.783	1220005	WORD_OFF	n/a	n/a	FLEECE	Fabric	10	11	[0, 0, 0]	n/a	catFR1	4	R1469D
1209.763	1.6	1220784	WORD	n/a	wordpools/wordpool_categorized_EN.txt	BINDER	OfficeSupplies	11	11	[0, 0, 0]	n/a	catFR1	4	R1469D
1211.363	0.934	1222391	WORD_OFF	n/a	n/a	BINDER	OfficeSupplies	11	11	[0, 0, 0]	n/a	catFR1	4	R1469D
1212.297	1.617	1223324	WORD	n/a	wordpools/wordpool_categorized_EN.txt	PAPER	OfficeSupplies	12	11	[0, 0, 0]	n/a	catFR1	4	R1469D
1213.914	0.0	1224930	WORD_OFF	n/a	n/a	PAPER	OfficeSupplies	12	11	[0, 0, 0]	n/a	catFR1	4	R1469D
1213.914	0.001	1224938	PROB	0.001	n/a	n/a	n/a	-999	11	[6, 6, 3]	15	catFR1	4	R1469D
1213.915	0.0	1224939	START	n/a	n/a	n/a	n/a	-999	11	[-999, -999, -999]	n/a	catFR1	4	R1469D
1213.915	0.0	1224941	ENCODING_END	n/a	n/a	n/a	n/a	-999	11	[0, 0, 0]	n/a	catFR1	4	R1469D
1213.915	3.732	1224941	DISTRACT_START	n/a	n/a	n/a	n/a	-999	11	[0, 0, 0]	n/a	catFR1	4	R1469D
1217.647	6.101	1228671	PROB	6.101	n/a	n/a	n/a	-999	11	[6, 4, 4]	14	catFR1	4	R1469D
1223.748	5.549	1234772	PROB	5.549	n/a	n/a	n/a	-999	11	[6, 8, 7]	2	catFR1	4	R1469D
1229.297	3.317	1240320	PROB	3.317	n/a	n/a	n/a	-999	11	[3, 1, 7]	11	catFR1	4	R1469D
1232.614	4.117	1243637	PROB	4.117	n/a	n/a	n/a	-999	11	[7, 8, 6]	21	catFR1	4	R1469D
1236.731	0.0	1247754	STOP	n/a	n/a	n/a	n/a	-999	11	[-999, -999, -999]	n/a	catFR1	4	R1469D
1236.731	2.116	1247757	DISTRACT_END	n/a	n/a	n/a	n/a	-999	11	[0, 0, 0]	n/a	catFR1	4	R1469D
1238.847	1.86	1249868	REC_START	n/a	n/a	n/a	n/a	-999	11	[0, 0, 0]	n/a	catFR1	4	R1469D
1240.707	0.687	1251730	REC_WORD	0.687	n/a	ARM	n/a	-999	11	[0, 0, 0]	n/a	catFR1	4	R1469D
1241.394	0.557	1252417	REC_WORD	0.557	n/a	LEG	BodyParts	1	11	[0, 0, 0]	n/a	catFR1	4	R1469D
1241.951	1.294	1252974	REC_WORD	1.294	n/a	NOSE	BodyParts	8	11	[0, 0, 0]	n/a	catFR1	4	R1469D
1243.245	2.445	1254268	REC_WORD	2.445	n/a	FACE	n/a	-999	11	[0, 0, 0]	n/a	catFR1	4	R1469D
1245.69	2.376	1256713	REC_WORD	2.376	n/a	EYE	BodyParts	2	11	[0, 0, 0]	n/a	catFR1	4	R1469D
1248.066	1.0	1259088	REC_WORD_VV	1.0	n/a	<>	n/a	-999	11	[0, 0, 0]	n/a	catFR1	4	R1469D
1249.066	1.0	1260088	REC_WORD_VV	1.0	n/a	<>	n/a	-999	11	[0, 0, 0]	n/a	catFR1	4	R1469D
1250.066	1.0	1261088	REC_WORD_VV	1.0	n/a	<>	n/a	-999	11	[0, 0, 0]	n/a	catFR1	4	R1469D
1251.066	1.0	1262088	REC_WORD_VV	1.0	n/a	<>	n/a	-999	11	[0, 0, 0]	n/a	catFR1	4	R1469D
1252.066	1.0	1263088	REC_WORD_VV	1.0	n/a	<>	n/a	-999	11	[0, 0, 0]	n/a	catFR1	4	R1469D
1253.066	1.0	1264088	REC_WORD_VV	1.0	n/a	<>	n/a	-999	11	[0, 0, 0]	n/a	catFR1	4	R1469D
1254.066	1.0	1265088	REC_WORD_VV	1.0	n/a	<>	n/a	-999	11	[0, 0, 0]	n/a	catFR1	4	R1469D
1255.066	1.0	1266088	REC_WORD_VV	1.0	n/a	<>	n/a	-999	11	[0, 0, 0]	n/a	catFR1	4	R1469D
1256.066	1.0	1267088	REC_WORD_VV	1.0	n/a	<>	n/a	-999	11	[0, 0, 0]	n/a	catFR1	4	R1469D
1257.066	1.005	1268088	REC_WORD_VV	1.005	n/a	<>	n/a	-999	11	[0, 0, 0]	n/a	catFR1	4	R1469D
1258.071	1.0	1269093	REC_WORD_VV	1.0	n/a	<>	n/a	-999	11	[0, 0, 0]	n/a	catFR1	4	R1469D
1259.071	1.0	1270093	REC_WORD_VV	1.0	n/a	<>	n/a	-999	11	[0, 0, 0]	n/a	catFR1	4	R1469D
1260.071	1.0	1271093	REC_WORD_VV	1.0	n/a	<>	n/a	-999	11	[0, 0, 0]	n/a	catFR1	4	R1469D
1261.071	1.0	1272093	REC_WORD_VV	1.0	n/a	<>	n/a	-999	11	[0, 0, 0]	n/a	catFR1	4	R1469D
1262.071	6.968	1273093	REC_WORD_VV	6.968	n/a	<>	n/a	-999	11	[0, 0, 0]	n/a	catFR1	4	R1469D
1269.039	50.442	1280056	REC_END	n/a	n/a	n/a	n/a	-999	11	[0, 0, 0]	n/a	catFR1	4	R1469D
1319.481	0.0	1330495	COUNTDOWN_START	n/a	n/a	n/a	n/a	-999	11	[0, 0, 0]	n/a	catFR1	4	R1469D
