onset	duration	sample	trial_type	response_time	stim_file	item_name	category	serialpos	list	test	answer	experiment	session	subject
0.0	0.0	-1	START	n/a	n/a	n/a	n/a	-999	-1	[-999, -999, -999]	n/a	catFR1	1	R1616S
0.0	7.967	-1	PROB	7.95	n/a	n/a	n/a	-999	-1	[3, 8, 2]	13.0	catFR1	1	R1616S
7.967	4.318	-1	PROB	4.299	n/a	n/a	n/a	-999	-1	[2, 8, 8]	18.0	catFR1	1	R1616S
12.285	4.715	-1	PROB	4.698	n/a	n/a	n/a	-999	-1	[3, 1, 8]	14.0	catFR1	1	R1616S
17.0	8.932	-1	PROB	8.916	n/a	n/a	n/a	-999	-1	[5, 6, 8]	10.0	catFR1	1	R1616S
25.932	89.318	-1	STOP	n/a	n/a	n/a	n/a	-999	-1	[-999, -999, -999]	n/a	catFR1	1	R1616S
115.25	0.001	-1	PROB	4.733	n/a	n/a	n/a	-999	1	[6, 4, 5]	15.0	catFR1	1	R1616S
115.251	4.749	-1	START	n/a	n/a	n/a	n/a	-999	1	[-999, -999, -999]	n/a	catFR1	1	R1616S
120.0	4.217	-1	PROB	4.199	n/a	n/a	n/a	-999	1	[2, 3, 1]	6.0	catFR1	1	R1616S
124.217	4.566	-1	PROB	4.549	n/a	n/a	n/a	-999	1	[5, 2, 3]	10.0	catFR1	1	R1616S
128.783	3.484	-1	PROB	3.466	n/a	n/a	n/a	-999	1	[4, 3, 2]	9.0	catFR1	1	R1616S
132.267	6.332	-1	PROB	6.316	n/a	n/a	n/a	-999	1	[8, 5, 8]	21.0	catFR1	1	R1616S
138.599	628.358	-1	STOP	n/a	n/a	n/a	n/a	-999	1	[-999, -999, -999]	n/a	catFR1	1	R1616S
766.957	10.0	166460	COUNTDOWN_START	n/a	n/a	n/a	n/a	-999	-999	[0, 0, 0]	n/a	catFR1	1	R1616S
777.321	0.0	176827	COUNTDOWN_END	n/a	n/a	n/a	n/a	-999	-999	[0, 0, 0]	n/a	catFR1	1	R1616S
777.321	2.166	176827	ENCODING_START	n/a	n/a	n/a	n/a	-999	-1	[0, 0, 0]	n/a	catFR1	1	R1616S
779.487	1.6	178993	WORD	n/a	n/a	WINE	Beverages	1	-1	[0, 0, 0]	n/a	catFR1	1	R1616S
781.087	0.884	180585	WORD_OFF	n/a	n/a	WINE	Beverages	1	-1	[0, 0, 0]	n/a	catFR1	1	R1616S
781.971	1.6	181479	WORD	n/a	n/a	BEER	Beverages	2	-1	[0, 0, 0]	n/a	catFR1	1	R1616S
783.587	0.817	183086	WORD_OFF	n/a	n/a	BEER	Beverages	2	-1	[0, 0, 0]	n/a	catFR1	1	R1616S
784.404	1.6	183911	WORD	n/a	n/a	ONION	Vegetables	3	-1	[0, 0, 0]	n/a	catFR1	1	R1616S
786.004	0.8	185503	WORD_OFF	n/a	n/a	ONION	Vegetables	3	-1	[0, 0, 0]	n/a	catFR1	1	R1616S
786.804	1.6	186314	WORD	n/a	n/a	CELERY	Vegetables	4	-1	[0, 0, 0]	n/a	catFR1	1	R1616S
788.421	1.0	187920	WORD_OFF	n/a	n/a	CELERY	Vegetables	4	-1	[0, 0, 0]	n/a	catFR1	1	R1616S
789.421	1.6	188926	WORD	n/a	n/a	BANANA	Fruit	5	-1	[0, 0, 0]	n/a	catFR1	1	R1616S
791.02	0.817	190519	WORD_OFF	n/a	n/a	BANANA	Fruit	5	-1	[0, 0, 0]	n/a	catFR1	1	R1616S
791.837	1.6	191344	WORD	n/a	n/a	LEMON	Fruit	6	-1	[0, 0, 0]	n/a	catFR1	1	R1616S
793.453	0.834	192950	WORD_OFF	n/a	n/a	LEMON	Fruit	6	-1	[0, 0, 0]	n/a	catFR1	1	R1616S
794.287	1.6	193789	WORD	n/a	n/a	POTATO	Vegetables	7	-1	[0, 0, 0]	n/a	catFR1	1	R1616S
795.903	0.916	195409	WORD_OFF	n/a	n/a	POTATO	Vegetables	7	-1	[0, 0, 0]	n/a	catFR1	1	R1616S
796.819	1.6	196318	WORD	n/a	n/a	CABBAGE	Vegetables	8	-1	[0, 0, 0]	n/a	catFR1	1	R1616S
798.42	0.966	197924	WORD_OFF	n/a	n/a	CABBAGE	Vegetables	8	-1	[0, 0, 0]	n/a	catFR1	1	R1616S
799.386	1.6	198888	WORD	n/a	n/a	LIME	Fruit	9	-1	[0, 0, 0]	n/a	catFR1	1	R1616S
800.987	0.865	200495	WORD_OFF	n/a	n/a	LIME	Fruit	9	-1	[0, 0, 0]	n/a	catFR1	1	R1616S
801.852	1.6	201361	WORD	n/a	n/a	ORANGE	Fruit	10	-1	[0, 0, 0]	n/a	catFR1	1	R1616S
803.454	0.816	202954	WORD_OFF	n/a	n/a	ORANGE	Fruit	10	-1	[0, 0, 0]	n/a	catFR1	1	R1616S
804.27	1.6	203778	WORD	n/a	n/a	TEA	Beverages	11	-1	[0, 0, 0]	n/a	catFR1	1	R1616S
805.871	0.916	205371	WORD_OFF	n/a	n/a	TEA	Beverages	11	-1	[0, 0, 0]	n/a	catFR1	1	R1616S
806.787	1.6	206293	WORD	n/a	n/a	COLA	Beverages	12	-1	[0, 0, 0]	n/a	catFR1	1	R1616S
808.387	0.002	207886	WORD_OFF	n/a	n/a	COLA	Beverages	12	-1	[0, 0, 0]	n/a	catFR1	1	R1616S
808.389	0.0	207886	ENCODING_END	n/a	n/a	n/a	n/a	-999	-1	[0, 0, 0]	n/a	catFR1	1	R1616S
808.389	0.001	207895	START	n/a	n/a	n/a	n/a	-999	2	[-999, -999, -999]	n/a	catFR1	1	R1616S
808.39	0.0	207896	PROB	6.282	n/a	n/a	n/a	-999	2	[1, 6, 3]	10.0	catFR1	1	R1616S
808.389	6.298	207900	DISTRACT_START	n/a	n/a	n/a	n/a	-999	-1	[0, 0, 0]	n/a	catFR1	1	R1616S
814.687	6.901	214192	PROB	6.884	n/a	n/a	n/a	-999	2	[6, 5, 7]	18.0	catFR1	1	R1616S
821.588	4.35	221093	PROB	4.333	n/a	n/a	n/a	-999	2	[3, 5, 7]	15.0	catFR1	1	R1616S
825.938	5.066	225443	PROB	5.05	n/a	n/a	n/a	-999	2	[7, 8, 1]	16.0	catFR1	1	R1616S
831.004	0.0	230507	DISTRACT_END	n/a	n/a	n/a	n/a	-999	-1	[0, 0, 0]	n/a	catFR1	1	R1616S
831.004	2.332	230509	STOP	n/a	n/a	n/a	n/a	-999	2	[-999, -999, -999]	n/a	catFR1	1	R1616S
833.336	0.0	232834	REC_START	n/a	n/a	n/a	n/a	-999	-1	[0, 0, 0]	n/a	catFR1	1	R1616S
833.336	2.182	232841	REC_WORD_VV	0.0	n/a	<>	n/a	-999	-1	[0, 0, 0]	n/a	catFR1	1	R1616S
835.518	1.357	235022	REC_WORD_VV	2.182	n/a	<>	n/a	-999	-1	[0, 0, 0]	n/a	catFR1	1	R1616S
836.875	1.264	236379	REC_WORD_VV	3.539	n/a	<>	n/a	-999	-1	[0, 0, 0]	n/a	catFR1	1	R1616S
838.139	0.644	237643	REC_WORD	4.803	n/a	JELLO	n/a	-999	-1	[0, 0, 0]	n/a	catFR1	1	R1616S
838.783	0.721	238287	REC_WORD	5.447	n/a	COBBLER	n/a	-999	-1	[0, 0, 0]	n/a	catFR1	1	R1616S
839.504	0.649	239008	REC_WORD	6.168	n/a	WOODS	n/a	-999	-1	[0, 0, 0]	n/a	catFR1	1	R1616S
840.153	1.777	239657	REC_WORD	6.817	n/a	WILLOW	n/a	-999	-1	[0, 0, 0]	n/a	catFR1	1	R1616S
841.93	1.438	241434	REC_WORD_VV	8.594	n/a	<>	n/a	-999	-1	[0, 0, 0]	n/a	catFR1	1	R1616S
843.368	1.14	242872	REC_WORD_VV	10.032	n/a	<>	n/a	-999	-1	[0, 0, 0]	n/a	catFR1	1	R1616S
844.508	1.672	244012	REC_WORD	11.172	n/a	BIRCH	n/a	-999	-1	[0, 0, 0]	n/a	catFR1	1	R1616S
846.18	2.137	245684	REC_WORD	12.844	n/a	BRANCH	n/a	-999	-1	[0, 0, 0]	n/a	catFR1	1	R1616S
848.317	2.644	247821	REC_WORD	14.981	n/a	MOUSE	n/a	-999	-1	[0, 0, 0]	n/a	catFR1	1	R1616S
850.961	1.715	250465	REC_WORD_VV	17.625	n/a	<>	n/a	-999	-1	[0, 0, 0]	n/a	catFR1	1	R1616S
852.676	0.809	252180	REC_WORD_VV	19.34	n/a	<>	n/a	-999	-1	[0, 0, 0]	n/a	catFR1	1	R1616S
853.485	0.558	252989	REC_WORD_VV	20.149	n/a	<>	n/a	-999	-1	[0, 0, 0]	n/a	catFR1	1	R1616S
854.043	0.439	253547	REC_WORD_VV	20.707	n/a	<>	n/a	-999	-1	[0, 0, 0]	n/a	catFR1	1	R1616S
854.482	2.652	253986	REC_WORD_VV	21.146	n/a	<>	n/a	-999	-1	[0, 0, 0]	n/a	catFR1	1	R1616S
857.134	0.9	256637	REC_WORD_VV	23.798	n/a	<>	n/a	-999	-1	[0, 0, 0]	n/a	catFR1	1	R1616S
858.034	4.575	257537	REC_WORD_VV	24.698	n/a	<>	n/a	-999	-1	[0, 0, 0]	n/a	catFR1	1	R1616S
862.609	0.219	262112	REC_WORD_VV	29.273	n/a	<>	n/a	-999	-1	[0, 0, 0]	n/a	catFR1	1	R1616S
862.828	0.721	262331	REC_WORD	29.492	n/a	CUPCAKE	n/a	-999	-1	[0, 0, 0]	n/a	catFR1	1	R1616S
863.549	2.072	263047	REC_END	n/a	n/a	n/a	n/a	-999	-1	[0, 0, 0]	n/a	catFR1	1	R1616S
865.621	10.0	265129	COUNTDOWN_START	n/a	n/a	n/a	n/a	-999	-1	[0, 0, 0]	n/a	catFR1	1	R1616S
875.97	0.0	275468	COUNTDOWN_END	n/a	n/a	n/a	n/a	-999	-1	[0, 0, 0]	n/a	catFR1	1	R1616S
875.97	2.101	275468	ENCODING_START	n/a	n/a	n/a	n/a	-999	3	[0, 0, 0]	n/a	catFR1	1	R1616S
878.071	1.6	277564	WORD	n/a	wordpools/wordpool_categorized_EN.txt	DRESS	Clothing	1	3	[0, 0, 0]	n/a	catFR1	1	R1616S
879.687	0.767	279184	WORD_OFF	n/a	n/a	DRESS	Clothing	1	3	[0, 0, 0]	n/a	catFR1	1	R1616S
880.454	1.6	279953	WORD	n/a	wordpools/wordpool_categorized_EN.txt	SHOES	Clothing	2	3	[0, 0, 0]	n/a	catFR1	1	R1616S
882.071	0.799	281574	WORD_OFF	n/a	n/a	SHOES	Clothing	2	3	[0, 0, 0]	n/a	catFR1	1	R1616S
882.87	1.6	282370	WORD	n/a	wordpools/wordpool_categorized_EN.txt	FOUNDATION	Building	3	3	[0, 0, 0]	n/a	catFR1	1	R1616S
884.471	0.815	283977	WORD_OFF	n/a	n/a	FOUNDATION	Building	3	3	[0, 0, 0]	n/a	catFR1	1	R1616S
885.286	1.6	284787	WORD	n/a	wordpools/wordpool_categorized_EN.txt	WALL	Building	4	3	[0, 0, 0]	n/a	catFR1	1	R1616S
886.903	0.815	286408	WORD_OFF	n/a	n/a	WALL	Building	4	3	[0, 0, 0]	n/a	catFR1	1	R1616S
887.718	1.6	287218	WORD	n/a	wordpools/wordpool_categorized_EN.txt	LETTUCE	Vegetables	5	3	[0, 0, 0]	n/a	catFR1	1	R1616S
889.32	0.784	288825	WORD_OFF	n/a	n/a	LETTUCE	Vegetables	5	3	[0, 0, 0]	n/a	catFR1	1	R1616S
890.104	1.6	289607	WORD	n/a	wordpools/wordpool_categorized_EN.txt	CAULIFLOWER	Vegetables	6	3	[0, 0, 0]	n/a	catFR1	1	R1616S
891.704	0.9	291200	WORD_OFF	n/a	n/a	CAULIFLOWER	Vegetables	6	3	[0, 0, 0]	n/a	catFR1	1	R1616S
892.604	1.6	292108	WORD	n/a	wordpools/wordpool_categorized_EN.txt	JACKET	Clothing	7	3	[0, 0, 0]	n/a	catFR1	1	R1616S
894.204	0.816	293701	WORD_OFF	n/a	n/a	JACKET	Clothing	7	3	[0, 0, 0]	n/a	catFR1	1	R1616S
895.02	1.6	294525	WORD	n/a	wordpools/wordpool_categorized_EN.txt	COAT	Clothing	8	3	[0, 0, 0]	n/a	catFR1	1	R1616S
896.621	0.916	296118	WORD_OFF	n/a	n/a	COAT	Clothing	8	3	[0, 0, 0]	n/a	catFR1	1	R1616S
897.537	1.6	297040	WORD	n/a	wordpools/wordpool_categorized_EN.txt	HALLWAY	Building	9	3	[0, 0, 0]	n/a	catFR1	1	R1616S
899.137	0.85	298633	WORD_OFF	n/a	n/a	HALLWAY	Building	9	3	[0, 0, 0]	n/a	catFR1	1	R1616S
899.987	1.6	299485	WORD	n/a	wordpools/wordpool_categorized_EN.txt	CEILING	Building	10	3	[0, 0, 0]	n/a	catFR1	1	R1616S
901.587	0.8	301092	WORD_OFF	n/a	n/a	CEILING	Building	10	3	[0, 0, 0]	n/a	catFR1	1	R1616S
902.387	1.6	301889	WORD	n/a	wordpools/wordpool_categorized_EN.txt	CARROT	Vegetables	11	3	[0, 0, 0]	n/a	catFR1	1	R1616S
904.003	0.983	303495	WORD_OFF	n/a	n/a	CARROT	Vegetables	11	3	[0, 0, 0]	n/a	catFR1	1	R1616S
904.986	1.6	304487	WORD	n/a	wordpools/wordpool_categorized_EN.txt	PEAS	Vegetables	12	3	[0, 0, 0]	n/a	catFR1	1	R1616S
906.587	0.0	306080	WORD_OFF	n/a	n/a	PEAS	Vegetables	12	3	[0, 0, 0]	n/a	catFR1	1	R1616S
906.587	0.004	306088	PROB	6.631	n/a	n/a	n/a	-999	3	[8, 7, 4]	19.0	catFR1	1	R1616S
906.591	0.0	306092	START	n/a	n/a	n/a	n/a	-999	3	[-999, -999, -999]	n/a	catFR1	1	R1616S
906.591	0.0	306094	ENCODING_END	n/a	n/a	n/a	n/a	-999	3	[0, 0, 0]	n/a	catFR1	1	R1616S
906.591	6.645	306094	DISTRACT_START	n/a	n/a	n/a	n/a	-999	3	[0, 0, 0]	n/a	catFR1	1	R1616S
913.236	3.868	312737	PROB	3.85	n/a	n/a	n/a	-999	3	[6, 2, 3]	11.0	catFR1	1	R1616S
917.104	4.6	316604	PROB	4.582	n/a	n/a	n/a	-999	3	[8, 1, 8]	17.0	catFR1	1	R1616S
921.704	4.948	321204	PROB	4.932	n/a	n/a	n/a	-999	3	[5, 3, 6]	14.0	catFR1	1	R1616S
926.652	0.0	326144	DISTRACT_END	n/a	n/a	n/a	n/a	-999	3	[0, 0, 0]	n/a	catFR1	1	R1616S
926.652	2.118	326152	STOP	n/a	n/a	n/a	n/a	-999	3	[-999, -999, -999]	n/a	catFR1	1	R1616S
928.77	1.821	328261	REC_START	n/a	n/a	n/a	n/a	-999	3	[0, 0, 0]	n/a	catFR1	1	R1616S
930.591	1.783	330091	REC_WORD_VV	1.821	n/a	<>	n/a	-999	3	[0, 0, 0]	n/a	catFR1	1	R1616S
932.374	1.049	331874	REC_WORD	3.604	n/a	FOUNDATION	Building	3	3	[0, 0, 0]	n/a	catFR1	1	R1616S
933.423	1.053	332923	REC_WORD	4.653	n/a	WALL	Building	4	3	[0, 0, 0]	n/a	catFR1	1	R1616S
934.476	0.858	333976	REC_WORD	5.706	n/a	DRESS	Clothing	1	3	[0, 0, 0]	n/a	catFR1	1	R1616S
935.334	1.641	334834	REC_WORD	6.564	n/a	SHOES	Clothing	2	3	[0, 0, 0]	n/a	catFR1	1	R1616S
936.975	0.781	336475	REC_WORD_VV	8.205	n/a	<>	n/a	-999	3	[0, 0, 0]	n/a	catFR1	1	R1616S
937.756	1.901	337256	REC_WORD	8.986	n/a	FLEECE	n/a	-999	3	[0, 0, 0]	n/a	catFR1	1	R1616S
939.657	6.42	339156	REC_WORD	10.887	n/a	COAT	Clothing	8	3	[0, 0, 0]	n/a	catFR1	1	R1616S
946.077	3.319	345576	REC_WORD	17.307	n/a	WINE	Beverages	-999	3	[0, 0, 0]	n/a	catFR1	1	R1616S
949.396	1.179	348895	REC_WORD	20.626	n/a	CEILING	Building	10	3	[0, 0, 0]	n/a	catFR1	1	R1616S
950.575	4.952	350074	REC_WORD	21.805	n/a	CARROT	Vegetables	11	3	[0, 0, 0]	n/a	catFR1	1	R1616S
955.527	1.704	355026	REC_WORD_VV	26.757	n/a	<>	n/a	-999	3	[0, 0, 0]	n/a	catFR1	1	R1616S
957.231	1.751	356730	REC_WORD_VV	28.461	n/a	<>	n/a	-999	3	[0, 0, 0]	n/a	catFR1	1	R1616S
958.982	2.288	358474	REC_END	n/a	n/a	n/a	n/a	-999	3	[0, 0, 0]	n/a	catFR1	1	R1616S
961.27	10.0	360766	COUNTDOWN_START	n/a	n/a	n/a	n/a	-999	3	[0, 0, 0]	n/a	catFR1	1	R1616S
971.621	0.0	371119	COUNTDOWN_END	n/a	n/a	n/a	n/a	-999	3	[0, 0, 0]	n/a	catFR1	1	R1616S
971.621	2.082	371119	ENCODING_START	n/a	n/a	n/a	n/a	-999	4	[0, 0, 0]	n/a	catFR1	1	R1616S
973.703	1.6	373201	WORD	n/a	wordpools/wordpool_categorized_EN.txt	TAPE	OfficeSupplies	1	4	[0, 0, 0]	n/a	catFR1	1	R1616S
975.32	0.783	374821	WORD_OFF	n/a	n/a	TAPE	OfficeSupplies	1	4	[0, 0, 0]	n/a	catFR1	1	R1616S
976.103	1.6	375604	WORD	n/a	wordpools/wordpool_categorized_EN.txt	STAPLER	OfficeSupplies	2	4	[0, 0, 0]	n/a	catFR1	1	R1616S
977.703	1.001	377197	WORD_OFF	n/a	n/a	STAPLER	OfficeSupplies	2	4	[0, 0, 0]	n/a	catFR1	1	R1616S
978.704	1.6	378203	WORD	n/a	wordpools/wordpool_categorized_EN.txt	BASS	Instruments	3	4	[0, 0, 0]	n/a	catFR1	1	R1616S
980.304	0.817	379795	WORD_OFF	n/a	n/a	BASS	Instruments	3	4	[0, 0, 0]	n/a	catFR1	1	R1616S
981.121	1.6	380620	WORD	n/a	wordpools/wordpool_categorized_EN.txt	BANJO	Instruments	4	4	[0, 0, 0]	n/a	catFR1	1	R1616S
982.737	0.967	382227	WORD_OFF	n/a	n/a	BANJO	Instruments	4	4	[0, 0, 0]	n/a	catFR1	1	R1616S
983.704	1.6	383205	WORD	n/a	wordpools/wordpool_categorized_EN.txt	BROCCOLI	Vegetables	5	4	[0, 0, 0]	n/a	catFR1	1	R1616S
985.304	0.933	384797	WORD_OFF	n/a	n/a	BROCCOLI	Vegetables	5	4	[0, 0, 0]	n/a	catFR1	1	R1616S
986.237	1.6	385733	WORD	n/a	wordpools/wordpool_categorized_EN.txt	SPINACH	Vegetables	6	4	[0, 0, 0]	n/a	catFR1	1	R1616S
987.853	0.918	387354	WORD_OFF	n/a	n/a	SPINACH	Vegetables	6	4	[0, 0, 0]	n/a	catFR1	1	R1616S
988.771	1.6	388262	WORD	n/a	wordpools/wordpool_categorized_EN.txt	PAPER	OfficeSupplies	7	4	[0, 0, 0]	n/a	catFR1	1	R1616S
990.386	0.95	389883	WORD_OFF	n/a	n/a	PAPER	OfficeSupplies	7	4	[0, 0, 0]	n/a	catFR1	1	R1616S
991.336	1.6	390833	WORD	n/a	wordpools/wordpool_categorized_EN.txt	RULER	OfficeSupplies	8	4	[0, 0, 0]	n/a	catFR1	1	R1616S
992.937	0.916	392426	WORD_OFF	n/a	n/a	RULER	OfficeSupplies	8	4	[0, 0, 0]	n/a	catFR1	1	R1616S
993.853	1.6	393348	WORD	n/a	wordpools/wordpool_categorized_EN.txt	TROMBONE	Instruments	9	4	[0, 0, 0]	n/a	catFR1	1	R1616S
995.469	1.002	394969	WORD_OFF	n/a	n/a	TROMBONE	Instruments	9	4	[0, 0, 0]	n/a	catFR1	1	R1616S
996.471	1.6	395961	WORD	n/a	wordpools/wordpool_categorized_EN.txt	VIOLIN	Instruments	10	4	[0, 0, 0]	n/a	catFR1	1	R1616S
998.085	0.769	397582	WORD_OFF	n/a	n/a	VIOLIN	Instruments	10	4	[0, 0, 0]	n/a	catFR1	1	R1616S
998.854	1.6	398350	WORD	n/a	wordpools/wordpool_categorized_EN.txt	CUCUMBER	Vegetables	11	4	[0, 0, 0]	n/a	catFR1	1	R1616S
1000.471	0.849	399971	WORD_OFF	n/a	n/a	CUCUMBER	Vegetables	11	4	[0, 0, 0]	n/a	catFR1	1	R1616S
1001.32	1.6	400809	WORD	n/a	wordpools/wordpool_categorized_EN.txt	CORN	Vegetables	12	4	[0, 0, 0]	n/a	catFR1	1	R1616S
1002.921	0.001	402417	PROB	3.766	n/a	n/a	n/a	-999	4	[5, 5, 7]	17.0	catFR1	1	R1616S
1002.922	0.0	402418	START	n/a	n/a	n/a	n/a	-999	4	[-999, -999, -999]	n/a	catFR1	1	R1616S
1002.921	0.001	402430	WORD_OFF	n/a	n/a	CORN	Vegetables	12	4	[0, 0, 0]	n/a	catFR1	1	R1616S
1002.922	0.0	402430	ENCODING_END	n/a	n/a	n/a	n/a	-999	4	[0, 0, 0]	n/a	catFR1	1	R1616S
1002.922	3.783	402430	DISTRACT_START	n/a	n/a	n/a	n/a	-999	4	[0, 0, 0]	n/a	catFR1	1	R1616S
1006.705	4.5	406201	PROB	4.483	n/a	n/a	n/a	-999	4	[1, 8, 7]	16.0	catFR1	1	R1616S
1011.205	3.385	410701	PROB	3.366	n/a	n/a	n/a	-999	4	[2, 3, 5]	10.0	catFR1	1	R1616S
1014.59	5.181	414086	PROB	5.166	n/a	n/a	n/a	-999	4	[3, 6, 7]	16.0	catFR1	1	R1616S
1019.771	2.583	419267	PROB	2.565	n/a	n/a	n/a	-999	4	[8, 2, 1]	11.0	catFR1	1	R1616S
1022.354	4.666	421849	PROB	4.65	n/a	n/a	n/a	-999	4	[8, 3, 5]	16.0	catFR1	1	R1616S
1027.02	0.0	426515	STOP	n/a	n/a	n/a	n/a	-999	4	[-999, -999, -999]	n/a	catFR1	1	R1616S
1027.02	2.317	426517	DISTRACT_END	n/a	n/a	n/a	n/a	-999	4	[0, 0, 0]	n/a	catFR1	1	R1616S
1029.337	1.932	428831	REC_START	n/a	n/a	n/a	n/a	-999	4	[0, 0, 0]	n/a	catFR1	1	R1616S
1031.269	1.659	430764	REC_WORD_VV	1.932	n/a	<>	n/a	-999	4	[0, 0, 0]	n/a	catFR1	1	R1616S
1032.928	3.514	432423	REC_WORD	3.591	n/a	BROCCOLI	Vegetables	5	4	[0, 0, 0]	n/a	catFR1	1	R1616S
1036.442	4.124	435937	REC_WORD	7.105	n/a	CORN	Vegetables	12	4	[0, 0, 0]	n/a	catFR1	1	R1616S
1040.566	2.059	440061	REC_WORD	11.229	n/a	BASS	Instruments	3	4	[0, 0, 0]	n/a	catFR1	1	R1616S
1042.625	2.46	442120	REC_WORD_VV	13.288	n/a	<>	n/a	-999	4	[0, 0, 0]	n/a	catFR1	1	R1616S
1045.085	2.313	444579	REC_WORD_VV	15.748	n/a	<>	n/a	-999	4	[0, 0, 0]	n/a	catFR1	1	R1616S
1047.398	1.496	446892	REC_WORD_VV	18.061	n/a	<>	n/a	-999	4	[0, 0, 0]	n/a	catFR1	1	R1616S
1048.894	1.469	448388	REC_WORD_VV	19.557	n/a	<>	n/a	-999	4	[0, 0, 0]	n/a	catFR1	1	R1616S
1050.363	2.674	449857	REC_WORD_VV	21.026	n/a	<>	n/a	-999	4	[0, 0, 0]	n/a	catFR1	1	R1616S
1053.037	0.967	452531	REC_WORD_VV	23.7	n/a	<>	n/a	-999	4	[0, 0, 0]	n/a	catFR1	1	R1616S
1054.004	3.558	453498	REC_WORD	24.667	n/a	VIOLIN	Instruments	10	4	[0, 0, 0]	n/a	catFR1	1	R1616S
1057.562	2.001	457056	REC_WORD_VV	28.225	n/a	<>	n/a	-999	4	[0, 0, 0]	n/a	catFR1	1	R1616S
1059.563	6.257	459058	REC_END	n/a	n/a	n/a	n/a	-999	4	[0, 0, 0]	n/a	catFR1	1	R1616S
1065.82	10.0	465317	COUNTDOWN_START	n/a	n/a	n/a	n/a	-999	4	[0, 0, 0]	n/a	catFR1	1	R1616S
1076.17	0.0	475656	COUNTDOWN_END	n/a	n/a	n/a	n/a	-999	4	[0, 0, 0]	n/a	catFR1	1	R1616S
1076.17	2.049	475656	ENCODING_START	n/a	n/a	n/a	n/a	-999	5	[0, 0, 0]	n/a	catFR1	1	R1616S
1078.219	1.6	477710	WORD	n/a	wordpools/wordpool_categorized_EN.txt	DRILL	Tools	1	5	[0, 0, 0]	n/a	catFR1	1	R1616S
1079.82	0.967	479303	WORD_OFF	n/a	n/a	DRILL	Tools	1	5	[0, 0, 0]	n/a	catFR1	1	R1616S
1080.787	1.6	480281	WORD	n/a	wordpools/wordpool_categorized_EN.txt	SANDER	Tools	2	5	[0, 0, 0]	n/a	catFR1	1	R1616S
1082.387	0.983	481874	WORD_OFF	n/a	n/a	SANDER	Tools	2	5	[0, 0, 0]	n/a	catFR1	1	R1616S
1083.37	1.6	482866	WORD	n/a	wordpools/wordpool_categorized_EN.txt	MARIGOLD	Flowers	3	5	[0, 0, 0]	n/a	catFR1	1	R1616S
1084.972	0.965	484458	WORD_OFF	n/a	n/a	MARIGOLD	Flowers	3	5	[0, 0, 0]	n/a	catFR1	1	R1616S
1085.937	1.6	485422	WORD	n/a	wordpools/wordpool_categorized_EN.txt	ROSE	Flowers	4	5	[0, 0, 0]	n/a	catFR1	1	R1616S
1087.554	0.767	487043	WORD_OFF	n/a	n/a	ROSE	Flowers	4	5	[0, 0, 0]	n/a	catFR1	1	R1616S
1088.321	1.6	487812	WORD	n/a	wordpools/wordpool_categorized_EN.txt	BOAT	Vehicles	5	5	[0, 0, 0]	n/a	catFR1	1	R1616S
1089.937	0.817	489432	WORD_OFF	n/a	n/a	BOAT	Vehicles	5	5	[0, 0, 0]	n/a	catFR1	1	R1616S
1090.754	1.6	490243	WORD	n/a	wordpools/wordpool_categorized_EN.txt	TRAIN	Vehicles	6	5	[0, 0, 0]	n/a	catFR1	1	R1616S
1092.354	0.817	491849	WORD_OFF	n/a	n/a	TRAIN	Vehicles	6	5	[0, 0, 0]	n/a	catFR1	1	R1616S
1093.171	1.6	492660	WORD	n/a	wordpools/wordpool_categorized_EN.txt	WRENCH	Tools	7	5	[0, 0, 0]	n/a	catFR1	1	R1616S
1094.77	0.917	494253	WORD_OFF	n/a	n/a	WRENCH	Tools	7	5	[0, 0, 0]	n/a	catFR1	1	R1616S
1095.687	1.6	495175	WORD	n/a	wordpools/wordpool_categorized_EN.txt	SHOVEL	Tools	8	5	[0, 0, 0]	n/a	catFR1	1	R1616S
1097.287	0.85	496781	WORD_OFF	n/a	n/a	SHOVEL	Tools	8	5	[0, 0, 0]	n/a	catFR1	1	R1616S
1098.137	1.6	497620	WORD	n/a	wordpools/wordpool_categorized_EN.txt	CARNATION	Flowers	9	5	[0, 0, 0]	n/a	catFR1	1	R1616S
1099.754	0.783	499241	WORD_OFF	n/a	n/a	CARNATION	Flowers	9	5	[0, 0, 0]	n/a	catFR1	1	R1616S
1100.537	1.6	500023	WORD	n/a	wordpools/wordpool_categorized_EN.txt	LILY	Flowers	10	5	[0, 0, 0]	n/a	catFR1	1	R1616S
1102.137	0.933	501630	WORD_OFF	n/a	n/a	LILY	Flowers	10	5	[0, 0, 0]	n/a	catFR1	1	R1616S
1103.07	1.6	502552	WORD	n/a	wordpools/wordpool_categorized_EN.txt	JEEP	Vehicles	11	5	[0, 0, 0]	n/a	catFR1	1	R1616S
1104.671	0.95	504159	WORD_OFF	n/a	n/a	JEEP	Vehicles	11	5	[0, 0, 0]	n/a	catFR1	1	R1616S
1105.621	1.6	505109	WORD	n/a	wordpools/wordpool_categorized_EN.txt	BUS	Vehicles	12	5	[0, 0, 0]	n/a	catFR1	1	R1616S
1107.221	0.001	506712	PROB	3.499	n/a	n/a	n/a	-999	5	[1, 2, 2]	5.0	catFR1	1	R1616S
1107.222	0.0	506713	START	n/a	n/a	n/a	n/a	-999	5	[-999, -999, -999]	n/a	catFR1	1	R1616S
1107.221	0.001	506715	WORD_OFF	n/a	n/a	BUS	Vehicles	12	5	[0, 0, 0]	n/a	catFR1	1	R1616S
1107.222	0.0	506715	ENCODING_END	n/a	n/a	n/a	n/a	-999	5	[0, 0, 0]	n/a	catFR1	1	R1616S
1107.222	3.515	506715	DISTRACT_START	n/a	n/a	n/a	n/a	-999	5	[0, 0, 0]	n/a	catFR1	1	R1616S
1110.737	5.933	510228	PROB	5.915	n/a	n/a	n/a	-999	5	[4, 7, 5]	16.0	catFR1	1	R1616S
1116.67	4.734	516161	PROB	4.717	n/a	n/a	n/a	-999	5	[1, 7, 4]	12.0	catFR1	1	R1616S
1121.404	4.934	520895	PROB	4.916	n/a	n/a	n/a	-999	5	[8, 6, 3]	17.0	catFR1	1	R1616S
1126.338	4.532	525828	PROB	4.516	n/a	n/a	n/a	-999	5	[5, 6, 1]	12.0	catFR1	1	R1616S
1130.87	0.0	530356	DISTRACT_END	n/a	n/a	n/a	n/a	-999	5	[0, 0, 0]	n/a	catFR1	1	R1616S
1130.87	2.101	530360	STOP	n/a	n/a	n/a	n/a	-999	5	[-999, -999, -999]	n/a	catFR1	1	R1616S
1132.971	1.315	532460	REC_START	n/a	n/a	n/a	n/a	-999	5	[0, 0, 0]	n/a	catFR1	1	R1616S
1134.286	0.861	533776	REC_WORD	1.315	n/a	DRILL	Tools	1	5	[0, 0, 0]	n/a	catFR1	1	R1616S
1135.147	0.822	534637	REC_WORD	2.176	n/a	SANDER	Tools	2	5	[0, 0, 0]	n/a	catFR1	1	R1616S
1135.969	1.278	535459	REC_WORD	2.998	n/a	MARIGOLD	Flowers	3	5	[0, 0, 0]	n/a	catFR1	1	R1616S
1137.247	1.997	536737	REC_WORD	4.276	n/a	LILY	Flowers	10	5	[0, 0, 0]	n/a	catFR1	1	R1616S
1139.244	2.3	538734	REC_WORD_VV	6.273	n/a	<>	n/a	-999	5	[0, 0, 0]	n/a	catFR1	1	R1616S
1141.544	0.933	541034	REC_WORD	8.573	n/a	BOAT	Vehicles	5	5	[0, 0, 0]	n/a	catFR1	1	R1616S
1142.477	2.334	541967	REC_WORD	9.506	n/a	JEEP	Vehicles	11	5	[0, 0, 0]	n/a	catFR1	1	R1616S
1144.811	6.856	544301	REC_WORD_VV	11.84	n/a	<>	n/a	-999	5	[0, 0, 0]	n/a	catFR1	1	R1616S
1151.667	10.628	551156	REC_WORD	18.696	n/a	CARNATION	Flowers	9	5	[0, 0, 0]	n/a	catFR1	1	R1616S
1162.295	0.85	561784	REC_WORD_VV	29.324	n/a	<>	n/a	-999	5	[0, 0, 0]	n/a	catFR1	1	R1616S
1163.145	2.576	562631	REC_END	n/a	n/a	n/a	n/a	-999	5	[0, 0, 0]	n/a	catFR1	1	R1616S
1165.721	10.0	565201	COUNTDOWN_START	n/a	n/a	n/a	n/a	-999	5	[0, 0, 0]	n/a	catFR1	1	R1616S
1176.071	0.0	575555	COUNTDOWN_END	n/a	n/a	n/a	n/a	-999	5	[0, 0, 0]	n/a	catFR1	1	R1616S
1176.071	2.266	575555	ENCODING_START	n/a	n/a	n/a	n/a	-999	6	[0, 0, 0]	n/a	catFR1	1	R1616S
1178.337	1.6	577818	WORD	n/a	wordpools/wordpool_categorized_EN.txt	SHIRT	Clothing	1	6	[0, 0, 0]	n/a	catFR1	1	R1616S
1179.937	0.917	579425	WORD_OFF	n/a	n/a	SHIRT	Clothing	1	6	[0, 0, 0]	n/a	catFR1	1	R1616S
1180.854	1.6	580333	WORD	n/a	wordpools/wordpool_categorized_EN.txt	UNDERWEAR	Clothing	2	6	[0, 0, 0]	n/a	catFR1	1	R1616S
1182.454	0.933	581940	WORD_OFF	n/a	n/a	UNDERWEAR	Clothing	2	6	[0, 0, 0]	n/a	catFR1	1	R1616S
1183.387	1.6	582876	WORD	n/a	wordpools/wordpool_categorized_EN.txt	HAWK	Birds	3	6	[0, 0, 0]	n/a	catFR1	1	R1616S
1185.002	0.985	584483	WORD_OFF	n/a	n/a	HAWK	Birds	3	6	[0, 0, 0]	n/a	catFR1	1	R1616S
1185.987	1.6	585475	WORD	n/a	wordpools/wordpool_categorized_EN.txt	DUCK	Birds	4	6	[0, 0, 0]	n/a	catFR1	1	R1616S
1187.587	0.933	587067	WORD_OFF	n/a	n/a	DUCK	Birds	4	6	[0, 0, 0]	n/a	catFR1	1	R1616S
1188.52	1.6	588004	WORD	n/a	wordpools/wordpool_categorized_EN.txt	COUCH	Furniture	5	6	[0, 0, 0]	n/a	catFR1	1	R1616S
1190.137	0.817	589624	WORD_OFF	n/a	n/a	COUCH	Furniture	5	6	[0, 0, 0]	n/a	catFR1	1	R1616S
1190.954	1.6	590435	WORD	n/a	wordpools/wordpool_categorized_EN.txt	NIGHTSTAND	Furniture	6	6	[0, 0, 0]	n/a	catFR1	1	R1616S
1192.554	0.95	592041	WORD_OFF	n/a	n/a	NIGHTSTAND	Furniture	6	6	[0, 0, 0]	n/a	catFR1	1	R1616S
1193.504	1.6	592991	WORD	n/a	wordpools/wordpool_categorized_EN.txt	CROW	Birds	7	6	[0, 0, 0]	n/a	catFR1	1	R1616S
1195.121	0.883	594612	WORD_OFF	n/a	n/a	CROW	Birds	7	6	[0, 0, 0]	n/a	catFR1	1	R1616S
1196.004	1.6	595492	WORD	n/a	wordpools/wordpool_categorized_EN.txt	BLUEBIRD	Birds	8	6	[0, 0, 0]	n/a	catFR1	1	R1616S
1197.62	0.851	597099	WORD_OFF	n/a	n/a	BLUEBIRD	Birds	8	6	[0, 0, 0]	n/a	catFR1	1	R1616S
1198.471	1.6	597951	WORD	n/a	wordpools/wordpool_categorized_EN.txt	DESK	Furniture	9	6	[0, 0, 0]	n/a	catFR1	1	R1616S
1200.087	0.901	599572	WORD_OFF	n/a	n/a	DESK	Furniture	9	6	[0, 0, 0]	n/a	catFR1	1	R1616S
1200.988	1.6	600466	WORD	n/a	wordpools/wordpool_categorized_EN.txt	BOOKCASE	Furniture	10	6	[0, 0, 0]	n/a	catFR1	1	R1616S
1202.604	0.799	602087	WORD_OFF	n/a	n/a	BOOKCASE	Furniture	10	6	[0, 0, 0]	n/a	catFR1	1	R1616S
1203.403	1.6	602883	WORD	n/a	wordpools/wordpool_categorized_EN.txt	SHORTS	Clothing	11	6	[0, 0, 0]	n/a	catFR1	1	R1616S
1205.004	0.917	604490	WORD_OFF	n/a	n/a	SHORTS	Clothing	11	6	[0, 0, 0]	n/a	catFR1	1	R1616S
1205.921	1.6	605398	WORD	n/a	wordpools/wordpool_categorized_EN.txt	BLOUSE	Clothing	12	6	[0, 0, 0]	n/a	catFR1	1	R1616S
1207.537	0.001	607019	WORD_OFF	n/a	n/a	BLOUSE	Clothing	12	6	[0, 0, 0]	n/a	catFR1	1	R1616S
1207.538	0.001	607019	ENCODING_END	n/a	n/a	n/a	n/a	-999	6	[0, 0, 0]	n/a	catFR1	1	R1616S
1207.539	0.0	607019	DISTRACT_START	n/a	n/a	n/a	n/a	-999	6	[0, 0, 0]	n/a	catFR1	1	R1616S
1207.537	0.002	607024	PROB	3.1	n/a	n/a	n/a	-999	6	[1, 1, 3]	5.0	catFR1	1	R1616S
1207.539	3.116	607026	START	n/a	n/a	n/a	n/a	-999	6	[-999, -999, -999]	n/a	catFR1	1	R1616S
1210.655	3.699	610141	PROB	3.682	n/a	n/a	n/a	-999	6	[2, 1, 7]	10.0	catFR1	1	R1616S
1214.354	2.851	613840	PROB	2.832	n/a	n/a	n/a	-999	6	[5, 5, 3]	13.0	catFR1	1	R1616S
1217.205	4.85	616691	PROB	4.832	n/a	n/a	n/a	-999	6	[6, 7, 4]	17.0	catFR1	1	R1616S
1222.055	9.216	621541	PROB	9.198	n/a	n/a	n/a	-999	6	[8, 6, 7]	21.0	catFR1	1	R1616S
1231.271	0.0	630756	STOP	n/a	n/a	n/a	n/a	-999	6	[-999, -999, -999]	n/a	catFR1	1	R1616S
1231.271	2.066	630757	DISTRACT_END	n/a	n/a	n/a	n/a	-999	6	[0, 0, 0]	n/a	catFR1	1	R1616S
1233.337	2.035	632819	REC_START	n/a	n/a	n/a	n/a	-999	6	[0, 0, 0]	n/a	catFR1	1	R1616S
1235.372	7.824	634857	REC_WORD_VV	2.035	n/a	<>	n/a	-999	6	[0, 0, 0]	n/a	catFR1	1	R1616S
1243.196	6.612	642681	REC_WORD_VV	9.859	n/a	<>	n/a	-999	6	[0, 0, 0]	n/a	catFR1	1	R1616S
1249.808	0.565	649293	REC_WORD_VV	16.471	n/a	<>	n/a	-999	6	[0, 0, 0]	n/a	catFR1	1	R1616S
1250.373	0.329	649858	REC_WORD	17.036	n/a	DRILL	Tools	-999	6	[0, 0, 0]	n/a	catFR1	1	R1616S
1250.702	1.625	650187	REC_WORD	17.365	n/a	MARIGOLD	Flowers	-999	6	[0, 0, 0]	n/a	catFR1	1	R1616S
1252.327	1.567	651811	REC_WORD_VV	18.99	n/a	<>	n/a	-999	6	[0, 0, 0]	n/a	catFR1	1	R1616S
1253.894	1.141	653378	REC_WORD	20.557	n/a	UNDERWEAR	Clothing	2	6	[0, 0, 0]	n/a	catFR1	1	R1616S
1255.035	1.21	654519	REC_WORD	21.698	n/a	SHIRT	Clothing	1	6	[0, 0, 0]	n/a	catFR1	1	R1616S
1256.245	1.12	655729	REC_WORD	22.908	n/a	SHOES	Clothing	-999	6	[0, 0, 0]	n/a	catFR1	1	R1616S
1257.365	2.633	656849	REC_WORD	24.028	n/a	PANTS	n/a	-999	6	[0, 0, 0]	n/a	catFR1	1	R1616S
1259.998	3.541	659482	REC_WORD_VV	26.661	n/a	<>	n/a	-999	6	[0, 0, 0]	n/a	catFR1	1	R1616S
1263.539	5.915	663018	REC_END	n/a	n/a	n/a	n/a	-999	6	[0, 0, 0]	n/a	catFR1	1	R1616S
1269.454	10.0	668942	COUNTDOWN_START	n/a	n/a	n/a	n/a	-999	6	[0, 0, 0]	n/a	catFR1	1	R1616S
1279.803	0.0	679281	COUNTDOWN_END	n/a	n/a	n/a	n/a	-999	6	[0, 0, 0]	n/a	catFR1	1	R1616S
1279.803	2.101	679281	ENCODING_START	n/a	n/a	n/a	n/a	-999	7	[0, 0, 0]	n/a	catFR1	1	R1616S
1281.904	1.6	681391	WORD	n/a	wordpools/wordpool_categorized_EN.txt	BIRCH	Trees	1	7	[0, 0, 0]	n/a	catFR1	1	R1616S
1283.521	0.8	682998	WORD_OFF	n/a	n/a	BIRCH	Trees	1	7	[0, 0, 0]	n/a	catFR1	1	R1616S
1284.321	1.6	683794	WORD	n/a	wordpools/wordpool_categorized_EN.txt	HICKORY	Trees	2	7	[0, 0, 0]	n/a	catFR1	1	R1616S
1285.921	0.982	685401	WORD_OFF	n/a	n/a	HICKORY	Trees	2	7	[0, 0, 0]	n/a	catFR1	1	R1616S
1286.903	1.6	686379	WORD	n/a	wordpools/wordpool_categorized_EN.txt	PIGEON	Birds	3	7	[0, 0, 0]	n/a	catFR1	1	R1616S
1288.504	0.95	687986	WORD_OFF	n/a	n/a	PIGEON	Birds	3	7	[0, 0, 0]	n/a	catFR1	1	R1616S
1289.454	1.6	688936	WORD	n/a	wordpools/wordpool_categorized_EN.txt	GOOSE	Birds	4	7	[0, 0, 0]	n/a	catFR1	1	R1616S
1291.054	1.0	690529	WORD_OFF	n/a	n/a	GOOSE	Birds	4	7	[0, 0, 0]	n/a	catFR1	1	R1616S
1292.054	1.6	691535	WORD	n/a	wordpools/wordpool_categorized_EN.txt	DAFFODIL	Flowers	5	7	[0, 0, 0]	n/a	catFR1	1	R1616S
1293.654	0.998	693127	WORD_OFF	n/a	n/a	DAFFODIL	Flowers	5	7	[0, 0, 0]	n/a	catFR1	1	R1616S
1294.652	1.6	694133	WORD	n/a	wordpools/wordpool_categorized_EN.txt	LILAC	Flowers	6	7	[0, 0, 0]	n/a	catFR1	1	R1616S
1296.254	0.983	695740	WORD_OFF	n/a	n/a	LILAC	Flowers	6	7	[0, 0, 0]	n/a	catFR1	1	R1616S
1297.237	1.6	696718	WORD	n/a	wordpools/wordpool_categorized_EN.txt	WILLOW	Trees	7	7	[0, 0, 0]	n/a	catFR1	1	R1616S
1298.853	0.818	698339	WORD_OFF	n/a	n/a	WILLOW	Trees	7	7	[0, 0, 0]	n/a	catFR1	1	R1616S
1299.671	1.6	699149	WORD	n/a	wordpools/wordpool_categorized_EN.txt	EVERGREEN	Trees	8	7	[0, 0, 0]	n/a	catFR1	1	R1616S
1301.286	0.868	700770	WORD_OFF	n/a	n/a	EVERGREEN	Trees	8	7	[0, 0, 0]	n/a	catFR1	1	R1616S
1302.154	1.6	701636	WORD	n/a	wordpools/wordpool_categorized_EN.txt	SUNFLOWER	Flowers	9	7	[0, 0, 0]	n/a	catFR1	1	R1616S
1303.77	0.784	703243	WORD_OFF	n/a	n/a	SUNFLOWER	Flowers	9	7	[0, 0, 0]	n/a	catFR1	1	R1616S
1304.554	1.6	704039	WORD	n/a	wordpools/wordpool_categorized_EN.txt	ORCHID	Flowers	10	7	[0, 0, 0]	n/a	catFR1	1	R1616S
1306.154	0.883	705632	WORD_OFF	n/a	n/a	ORCHID	Flowers	10	7	[0, 0, 0]	n/a	catFR1	1	R1616S
1307.037	1.6	706512	WORD	n/a	wordpools/wordpool_categorized_EN.txt	SPARROW	Birds	11	7	[0, 0, 0]	n/a	catFR1	1	R1616S
1308.637	0.834	708119	WORD_OFF	n/a	n/a	SPARROW	Birds	11	7	[0, 0, 0]	n/a	catFR1	1	R1616S
1309.471	1.6	708944	WORD	n/a	wordpools/wordpool_categorized_EN.txt	SEAGULL	Birds	12	7	[0, 0, 0]	n/a	catFR1	1	R1616S
1311.087	0.002	710564	WORD_OFF	n/a	n/a	SEAGULL	Birds	12	7	[0, 0, 0]	n/a	catFR1	1	R1616S
1311.089	0.0	710564	ENCODING_END	n/a	n/a	n/a	n/a	-999	7	[0, 0, 0]	n/a	catFR1	1	R1616S
1311.089	0.0	710564	DISTRACT_START	n/a	n/a	n/a	n/a	-999	7	[0, 0, 0]	n/a	catFR1	1	R1616S
1311.088	0.001	710570	PROB	4.583	n/a	n/a	n/a	-999	7	[3, 6, 4]	13.0	catFR1	1	R1616S
1311.089	4.598	710571	START	n/a	n/a	n/a	n/a	-999	7	[-999, -999, -999]	n/a	catFR1	1	R1616S
1315.687	3.951	715168	PROB	3.933	n/a	n/a	n/a	-999	7	[1, 4, 2]	7.0	catFR1	1	R1616S
1319.638	3.099	719119	PROB	3.082	n/a	n/a	n/a	-999	7	[3, 3, 3]	9.0	catFR1	1	R1616S
1322.737	3.801	722218	PROB	3.783	n/a	n/a	n/a	-999	7	[6, 2, 3]	11.0	catFR1	1	R1616S
1326.538	3.782	726019	PROB	3.766	n/a	n/a	n/a	-999	7	[8, 4, 2]	14.0	catFR1	1	R1616S
1330.32	3.45	729801	PROB	3.434	n/a	n/a	n/a	-999	7	[2, 8, 4]	14.0	catFR1	1	R1616S
1333.77	0.0	733251	STOP	n/a	n/a	n/a	n/a	-999	7	[-999, -999, -999]	n/a	catFR1	1	R1616S
1333.77	2.367	733254	DISTRACT_END	n/a	n/a	n/a	n/a	-999	7	[0, 0, 0]	n/a	catFR1	1	R1616S
1336.137	1.417	735610	REC_START	n/a	n/a	n/a	n/a	-999	7	[0, 0, 0]	n/a	catFR1	1	R1616S
1337.554	1.076	737034	REC_WORD	1.417	n/a	WILLOW	Trees	7	7	[0, 0, 0]	n/a	catFR1	1	R1616S
1338.63	1.299	738110	REC_WORD	2.493	n/a	BIRCH	Trees	1	7	[0, 0, 0]	n/a	catFR1	1	R1616S
1339.929	2.131	739409	REC_WORD	3.792	n/a	ORCHID	Flowers	10	7	[0, 0, 0]	n/a	catFR1	1	R1616S
1342.06	2.273	741540	REC_WORD	5.923	n/a	LILAC	Flowers	6	7	[0, 0, 0]	n/a	catFR1	1	R1616S
1344.333	3.382	743813	REC_WORD_VV	8.196	n/a	<>	n/a	-999	7	[0, 0, 0]	n/a	catFR1	1	R1616S
1347.715	2.007	747195	REC_WORD_VV	11.578	n/a	<>	n/a	-999	7	[0, 0, 0]	n/a	catFR1	1	R1616S
1349.722	3.932	749202	REC_WORD_VV	13.585	n/a	<>	n/a	-999	7	[0, 0, 0]	n/a	catFR1	1	R1616S
1353.654	1.139	753134	REC_WORD_VV	17.517	n/a	<>	n/a	-999	7	[0, 0, 0]	n/a	catFR1	1	R1616S
1354.793	2.244	754273	REC_WORD	18.656	n/a	GOOSE	Birds	4	7	[0, 0, 0]	n/a	catFR1	1	R1616S
1357.037	3.404	756516	REC_WORD_VV	20.9	n/a	<>	n/a	-999	7	[0, 0, 0]	n/a	catFR1	1	R1616S
1360.441	0.847	759920	REC_WORD	24.304	n/a	SPARROW	Birds	11	7	[0, 0, 0]	n/a	catFR1	1	R1616S
1361.288	5.053	760767	REC_WORD_VV	25.151	n/a	<>	n/a	-999	7	[0, 0, 0]	n/a	catFR1	1	R1616S
1366.341	3.929	765823	REC_END	n/a	n/a	n/a	n/a	-999	7	[0, 0, 0]	n/a	catFR1	1	R1616S
1370.27	10.0	769749	COUNTDOWN_START	n/a	n/a	n/a	n/a	-999	7	[0, 0, 0]	n/a	catFR1	1	R1616S
1380.62	0.0	780102	COUNTDOWN_END	n/a	n/a	n/a	n/a	-999	7	[0, 0, 0]	n/a	catFR1	1	R1616S
1380.62	2.017	780102	ENCODING_START	n/a	n/a	n/a	n/a	-999	8	[0, 0, 0]	n/a	catFR1	1	R1616S
1382.637	1.6	782114	WORD	n/a	wordpools/wordpool_categorized_EN.txt	NOTEBOOK	OfficeSupplies	1	8	[0, 0, 0]	n/a	catFR1	1	R1616S
1384.237	0.866	783707	WORD_OFF	n/a	n/a	NOTEBOOK	OfficeSupplies	1	8	[0, 0, 0]	n/a	catFR1	1	R1616S
1385.103	1.6	784573	WORD	n/a	wordpools/wordpool_categorized_EN.txt	ERASER	OfficeSupplies	2	8	[0, 0, 0]	n/a	catFR1	1	R1616S
1386.704	0.917	786180	WORD_OFF	n/a	n/a	ERASER	OfficeSupplies	2	8	[0, 0, 0]	n/a	catFR1	1	R1616S
1387.621	1.6	787102	WORD	n/a	wordpools/wordpool_categorized_EN.txt	SAW	Tools	3	8	[0, 0, 0]	n/a	catFR1	1	R1616S
1389.237	0.934	788709	WORD_OFF	n/a	n/a	SAW	Tools	3	8	[0, 0, 0]	n/a	catFR1	1	R1616S
1390.171	1.6	789645	WORD	n/a	wordpools/wordpool_categorized_EN.txt	PLIERS	Tools	4	8	[0, 0, 0]	n/a	catFR1	1	R1616S
1391.771	0.783	791252	WORD_OFF	n/a	n/a	PLIERS	Tools	4	8	[0, 0, 0]	n/a	catFR1	1	R1616S
1392.554	1.6	792034	WORD	n/a	wordpools/wordpool_categorized_EN.txt	DRYER	Appliances	5	8	[0, 0, 0]	n/a	catFR1	1	R1616S
1394.154	0.783	793627	WORD_OFF	n/a	n/a	DRYER	Appliances	5	8	[0, 0, 0]	n/a	catFR1	1	R1616S
1394.937	1.6	794409	WORD	n/a	wordpools/wordpool_categorized_EN.txt	DISHWASHER	Appliances	6	8	[0, 0, 0]	n/a	catFR1	1	R1616S
1396.537	0.984	796016	WORD_OFF	n/a	n/a	DISHWASHER	Appliances	6	8	[0, 0, 0]	n/a	catFR1	1	R1616S
1397.521	1.6	796994	WORD	n/a	wordpools/wordpool_categorized_EN.txt	LEVEL	Tools	7	8	[0, 0, 0]	n/a	catFR1	1	R1616S
1399.137	0.884	798615	WORD_OFF	n/a	n/a	LEVEL	Tools	7	8	[0, 0, 0]	n/a	catFR1	1	R1616S
1400.021	1.6	799495	WORD	n/a	wordpools/wordpool_categorized_EN.txt	RATCHET	Tools	8	8	[0, 0, 0]	n/a	catFR1	1	R1616S
1401.637	0.85	801116	WORD_OFF	n/a	n/a	RATCHET	Tools	8	8	[0, 0, 0]	n/a	catFR1	1	R1616S
1402.487	1.6	801968	WORD	n/a	wordpools/wordpool_categorized_EN.txt	FOLDER	OfficeSupplies	9	8	[0, 0, 0]	n/a	catFR1	1	R1616S
1404.087	0.917	803561	WORD_OFF	n/a	n/a	FOLDER	OfficeSupplies	9	8	[0, 0, 0]	n/a	catFR1	1	R1616S
1405.004	1.6	804483	WORD	n/a	wordpools/wordpool_categorized_EN.txt	GLUE	OfficeSupplies	10	8	[0, 0, 0]	n/a	catFR1	1	R1616S
1406.62	0.967	806090	WORD_OFF	n/a	n/a	GLUE	OfficeSupplies	10	8	[0, 0, 0]	n/a	catFR1	1	R1616S
1407.587	1.6	807054	WORD	n/a	wordpools/wordpool_categorized_EN.txt	VACUUM	Appliances	11	8	[0, 0, 0]	n/a	catFR1	1	R1616S
1409.188	0.932	808660	WORD_OFF	n/a	n/a	VACUUM	Appliances	11	8	[0, 0, 0]	n/a	catFR1	1	R1616S
1410.12	1.6	809597	WORD	n/a	wordpools/wordpool_categorized_EN.txt	FREEZER	Appliances	12	8	[0, 0, 0]	n/a	catFR1	1	R1616S
1411.736	0.002	811213	PROB	3.9	n/a	n/a	n/a	-999	8	[1, 7, 3]	11.0	catFR1	1	R1616S
1411.738	0.0	811215	START	n/a	n/a	n/a	n/a	-999	8	[-999, -999, -999]	n/a	catFR1	1	R1616S
1411.736	0.002	811217	WORD_OFF	n/a	n/a	FREEZER	Appliances	12	8	[0, 0, 0]	n/a	catFR1	1	R1616S
1411.738	0.0	811217	ENCODING_END	n/a	n/a	n/a	n/a	-999	8	[0, 0, 0]	n/a	catFR1	1	R1616S
1411.738	3.916	811217	DISTRACT_START	n/a	n/a	n/a	n/a	-999	8	[0, 0, 0]	n/a	catFR1	1	R1616S
1415.654	4.584	815131	PROB	4.567	n/a	n/a	n/a	-999	8	[5, 5, 5]	15.0	catFR1	1	R1616S
1420.238	5.183	819714	PROB	5.166	n/a	n/a	n/a	-999	8	[5, 6, 2]	13.0	catFR1	1	R1616S
1425.421	5.767	824897	PROB	5.75	n/a	n/a	n/a	-999	8	[3, 3, 6]	12.0	catFR1	1	R1616S
1431.188	4.666	830664	PROB	4.649	n/a	n/a	n/a	-999	8	[5, 2, 5]	12.0	catFR1	1	R1616S
1435.854	0.0	835330	STOP	n/a	n/a	n/a	n/a	-999	8	[-999, -999, -999]	n/a	catFR1	1	R1616S
1435.854	2.231	835333	DISTRACT_END	n/a	n/a	n/a	n/a	-999	8	[0, 0, 0]	n/a	catFR1	1	R1616S
1438.085	5.299	837562	REC_START	n/a	n/a	n/a	n/a	-999	8	[0, 0, 0]	n/a	catFR1	1	R1616S
1443.384	6.13	842859	REC_WORD_VV	5.299	n/a	<>	n/a	-999	8	[0, 0, 0]	n/a	catFR1	1	R1616S
1449.514	3.735	848989	REC_WORD_VV	11.429	n/a	<>	n/a	-999	8	[0, 0, 0]	n/a	catFR1	1	R1616S
1453.249	6.672	852724	REC_WORD_VV	15.164	n/a	<>	n/a	-999	8	[0, 0, 0]	n/a	catFR1	1	R1616S
1459.921	4.104	859396	REC_WORD_VV	21.836	n/a	<>	n/a	-999	8	[0, 0, 0]	n/a	catFR1	1	R1616S
1464.025	4.255	863499	REC_WORD_VV	25.94	n/a	<>	n/a	-999	8	[0, 0, 0]	n/a	catFR1	1	R1616S
1468.28	6.574	867747	REC_END	n/a	n/a	n/a	n/a	-999	8	[0, 0, 0]	n/a	catFR1	1	R1616S
1474.854	10.0	874328	COUNTDOWN_START	n/a	n/a	n/a	n/a	-999	8	[0, 0, 0]	n/a	catFR1	1	R1616S
1485.203	0.0	884667	COUNTDOWN_END	n/a	n/a	n/a	n/a	-999	8	[0, 0, 0]	n/a	catFR1	1	R1616S
1485.203	2.167	884681	ENCODING_START	n/a	n/a	n/a	n/a	-999	9	[0, 0, 0]	n/a	catFR1	1	R1616S
1487.37	1.6	886847	WORD	n/a	wordpools/wordpool_categorized_EN.txt	MOUSSE	Desserts	1	9	[0, 0, 0]	n/a	catFR1	1	R1616S
1488.971	0.833	888440	WORD_OFF	n/a	n/a	MOUSSE	Desserts	1	9	[0, 0, 0]	n/a	catFR1	1	R1616S
1489.804	1.6	889278	WORD	n/a	wordpools/wordpool_categorized_EN.txt	CUPCAKE	Desserts	2	9	[0, 0, 0]	n/a	catFR1	1	R1616S
1491.404	0.833	890871	WORD_OFF	n/a	n/a	CUPCAKE	Desserts	2	9	[0, 0, 0]	n/a	catFR1	1	R1616S
1492.237	1.6	891709	WORD	n/a	wordpools/wordpool_categorized_EN.txt	GOAT	FarmAnimals	3	9	[0, 0, 0]	n/a	catFR1	1	R1616S
1493.838	0.899	893302	WORD_OFF	n/a	n/a	GOAT	FarmAnimals	3	9	[0, 0, 0]	n/a	catFR1	1	R1616S
1494.737	1.6	894210	WORD	n/a	wordpools/wordpool_categorized_EN.txt	BULL	FarmAnimals	4	9	[0, 0, 0]	n/a	catFR1	1	R1616S
1496.337	0.999	895803	WORD_OFF	n/a	n/a	BULL	FarmAnimals	4	9	[0, 0, 0]	n/a	catFR1	1	R1616S
1497.336	1.6	896809	WORD	n/a	wordpools/wordpool_categorized_EN.txt	LADYBUG	Insects	5	9	[0, 0, 0]	n/a	catFR1	1	R1616S
1498.937	0.934	898401	WORD_OFF	n/a	n/a	LADYBUG	Insects	5	9	[0, 0, 0]	n/a	catFR1	1	R1616S
1499.871	1.6	899338	WORD	n/a	wordpools/wordpool_categorized_EN.txt	MOTH	Insects	6	9	[0, 0, 0]	n/a	catFR1	1	R1616S
1501.487	1.0	900958	WORD_OFF	n/a	n/a	MOTH	Insects	6	9	[0, 0, 0]	n/a	catFR1	1	R1616S
1502.487	1.6	901950	WORD	n/a	wordpools/wordpool_categorized_EN.txt	PIG	FarmAnimals	7	9	[0, 0, 0]	n/a	catFR1	1	R1616S
1504.087	0.95	903557	WORD_OFF	n/a	n/a	PIG	FarmAnimals	7	9	[0, 0, 0]	n/a	catFR1	1	R1616S
1505.037	1.6	904507	WORD	n/a	wordpools/wordpool_categorized_EN.txt	CHICKEN	FarmAnimals	8	9	[0, 0, 0]	n/a	catFR1	1	R1616S
1506.637	1.0	906114	WORD_OFF	n/a	n/a	CHICKEN	FarmAnimals	8	9	[0, 0, 0]	n/a	catFR1	1	R1616S
1507.637	1.6	907106	WORD	n/a	wordpools/wordpool_categorized_EN.txt	CRICKET	Insects	9	9	[0, 0, 0]	n/a	catFR1	1	R1616S
1509.254	0.867	908727	WORD_OFF	n/a	n/a	CRICKET	Insects	9	9	[0, 0, 0]	n/a	catFR1	1	R1616S
1510.121	1.6	909593	WORD	n/a	wordpools/wordpool_categorized_EN.txt	BEETLE	Insects	10	9	[0, 0, 0]	n/a	catFR1	1	R1616S
1511.721	0.816	911186	WORD_OFF	n/a	n/a	BEETLE	Insects	10	9	[0, 0, 0]	n/a	catFR1	1	R1616S
1512.537	1.6	912010	WORD	n/a	wordpools/wordpool_categorized_EN.txt	JELLO	Desserts	11	9	[0, 0, 0]	n/a	catFR1	1	R1616S
1514.154	0.9	913617	WORD_OFF	n/a	n/a	JELLO	Desserts	11	9	[0, 0, 0]	n/a	catFR1	1	R1616S
1515.054	1.6	914525	WORD	n/a	wordpools/wordpool_categorized_EN.txt	COBBLER	Desserts	12	9	[0, 0, 0]	n/a	catFR1	1	R1616S
1516.671	0.001	916143	PROB	2.799	n/a	n/a	n/a	-999	9	[8, 2, 2]	12.0	catFR1	1	R1616S
1516.672	0.0	916144	START	n/a	n/a	n/a	n/a	-999	9	[-999, -999, -999]	n/a	catFR1	1	R1616S
1516.67	0.002	916146	WORD_OFF	n/a	n/a	COBBLER	Desserts	12	9	[0, 0, 0]	n/a	catFR1	1	R1616S
1516.672	0.0	916146	ENCODING_END	n/a	n/a	n/a	n/a	-999	9	[0, 0, 0]	n/a	catFR1	1	R1616S
1516.672	2.815	916146	DISTRACT_START	n/a	n/a	n/a	n/a	-999	9	[0, 0, 0]	n/a	catFR1	1	R1616S
1519.487	2.518	918959	PROB	2.5	n/a	n/a	n/a	-999	9	[2, 2, 1]	5.0	catFR1	1	R1616S
1522.005	6.382	921477	PROB	6.366	n/a	n/a	n/a	-999	9	[2, 8, 3]	13.0	catFR1	1	R1616S
1528.387	5.134	927858	PROB	5.116	n/a	n/a	n/a	-999	9	[2, 8, 8]	18.0	catFR1	1	R1616S
1533.521	4.533	932992	PROB	4.515	n/a	n/a	n/a	-999	9	[3, 5, 7]	15.0	catFR1	1	R1616S
1538.054	0.0	937522	DISTRACT_END	n/a	n/a	n/a	n/a	-999	9	[0, 0, 0]	n/a	catFR1	1	R1616S
1538.054	2.15	937525	STOP	n/a	n/a	n/a	n/a	-999	9	[-999, -999, -999]	n/a	catFR1	1	R1616S
1540.204	1.293	939668	REC_START	n/a	n/a	n/a	n/a	-999	9	[0, 0, 0]	n/a	catFR1	1	R1616S
1541.497	2.402	940968	REC_WORD	1.293	n/a	PURSE	n/a	-999	9	[0, 0, 0]	n/a	catFR1	1	R1616S
1543.899	0.454	943370	REC_WORD	3.695	n/a	BIRD	n/a	-999	9	[0, 0, 0]	n/a	catFR1	1	R1616S
1544.353	0.572	943824	REC_WORD	4.149	n/a	MOUSE	n/a	-999	9	[0, 0, 0]	n/a	catFR1	1	R1616S
1544.925	0.682	944395	REC_WORD	4.721	n/a	ORCHID	Flowers	-999	9	[0, 0, 0]	n/a	catFR1	1	R1616S
1545.607	2.928	945077	REC_WORD_VV	5.403	n/a	<>	n/a	-999	9	[0, 0, 0]	n/a	catFR1	1	R1616S
1548.535	4.055	948005	REC_WORD	8.331	n/a	SPARROW	Birds	-999	9	[0, 0, 0]	n/a	catFR1	1	R1616S
1552.59	2.582	952060	REC_WORD_VV	12.386	n/a	<>	n/a	-999	9	[0, 0, 0]	n/a	catFR1	1	R1616S
1555.172	2.886	954642	REC_WORD_VV	14.968	n/a	<>	n/a	-999	9	[0, 0, 0]	n/a	catFR1	1	R1616S
1558.058	1.953	957528	REC_WORD_VV	17.854	n/a	<>	n/a	-999	9	[0, 0, 0]	n/a	catFR1	1	R1616S
1560.011	4.399	959481	REC_WORD_VV	19.807	n/a	<>	n/a	-999	9	[0, 0, 0]	n/a	catFR1	1	R1616S
1564.41	6.02	963880	REC_WORD_VV	24.206	n/a	<>	n/a	-999	9	[0, 0, 0]	n/a	catFR1	1	R1616S
1570.43	8.657	969895	REC_END	n/a	n/a	n/a	n/a	-999	9	[0, 0, 0]	n/a	catFR1	1	R1616S
1579.087	10.0	978558	COUNTDOWN_START	n/a	n/a	n/a	n/a	-999	9	[0, 0, 0]	n/a	catFR1	1	R1616S
1589.436	0.0	988897	COUNTDOWN_END	n/a	n/a	n/a	n/a	-999	9	[0, 0, 0]	n/a	catFR1	1	R1616S
1589.436	2.017	988911	ENCODING_START	n/a	n/a	n/a	n/a	-999	10	[0, 0, 0]	n/a	catFR1	1	R1616S
1591.453	1.6	990923	WORD	n/a	wordpools/wordpool_categorized_EN.txt	SHEEP	FarmAnimals	1	10	[0, 0, 0]	n/a	catFR1	1	R1616S
1593.054	0.849	992516	WORD_OFF	n/a	n/a	SHEEP	FarmAnimals	1	10	[0, 0, 0]	n/a	catFR1	1	R1616S
1593.903	1.6	993368	WORD	n/a	wordpools/wordpool_categorized_EN.txt	LAMB	FarmAnimals	2	10	[0, 0, 0]	n/a	catFR1	1	R1616S
1595.504	0.983	994975	WORD_OFF	n/a	n/a	LAMB	FarmAnimals	2	10	[0, 0, 0]	n/a	catFR1	1	R1616S
1596.487	1.6	995953	WORD	n/a	wordpools/wordpool_categorized_EN.txt	FLY	Insects	3	10	[0, 0, 0]	n/a	catFR1	1	R1616S
1598.104	0.933	997573	WORD_OFF	n/a	n/a	FLY	Insects	3	10	[0, 0, 0]	n/a	catFR1	1	R1616S
1599.037	1.6	998509	WORD	n/a	wordpools/wordpool_categorized_EN.txt	BUTTERFLY	Insects	4	10	[0, 0, 0]	n/a	catFR1	1	R1616S
1600.637	0.984	1000102	WORD_OFF	n/a	n/a	BUTTERFLY	Insects	4	10	[0, 0, 0]	n/a	catFR1	1	R1616S
1601.621	1.6	1001080	WORD	n/a	wordpools/wordpool_categorized_EN.txt	TONGS	KitchenTools	5	10	[0, 0, 0]	n/a	catFR1	1	R1616S
1603.236	1.0	1002701	WORD_OFF	n/a	n/a	TONGS	KitchenTools	5	10	[0, 0, 0]	n/a	catFR1	1	R1616S
1604.236	1.6	1003707	WORD	n/a	wordpools/wordpool_categorized_EN.txt	CORKSCREW	KitchenTools	6	10	[0, 0, 0]	n/a	catFR1	1	R1616S
1605.836	0.951	1005300	WORD_OFF	n/a	n/a	CORKSCREW	KitchenTools	6	10	[0, 0, 0]	n/a	catFR1	1	R1616S
1606.787	1.6	1006250	WORD	n/a	wordpools/wordpool_categorized_EN.txt	ROACH	Insects	7	10	[0, 0, 0]	n/a	catFR1	1	R1616S
1608.387	0.8	1007857	WORD_OFF	n/a	n/a	ROACH	Insects	7	10	[0, 0, 0]	n/a	catFR1	1	R1616S
1609.187	1.6	1008653	WORD	n/a	wordpools/wordpool_categorized_EN.txt	MOSQUITO	Insects	8	10	[0, 0, 0]	n/a	catFR1	1	R1616S
1610.787	0.8	1010246	WORD_OFF	n/a	n/a	MOSQUITO	Insects	8	10	[0, 0, 0]	n/a	catFR1	1	R1616S
1611.587	1.6	1011056	WORD	n/a	wordpools/wordpool_categorized_EN.txt	HEN	FarmAnimals	9	10	[0, 0, 0]	n/a	catFR1	1	R1616S
1613.204	0.9	1012663	WORD_OFF	n/a	n/a	HEN	FarmAnimals	9	10	[0, 0, 0]	n/a	catFR1	1	R1616S
1614.104	1.6	1013571	WORD	n/a	wordpools/wordpool_categorized_EN.txt	HORSE	FarmAnimals	10	10	[0, 0, 0]	n/a	catFR1	1	R1616S
1615.72	0.883	1015178	WORD_OFF	n/a	n/a	HORSE	FarmAnimals	10	10	[0, 0, 0]	n/a	catFR1	1	R1616S
1616.603	1.6	1016072	WORD	n/a	wordpools/wordpool_categorized_EN.txt	KNIFE	KitchenTools	11	10	[0, 0, 0]	n/a	catFR1	1	R1616S
1618.204	0.916	1017665	WORD_OFF	n/a	n/a	KNIFE	KitchenTools	11	10	[0, 0, 0]	n/a	catFR1	1	R1616S
1619.12	1.6	1018587	WORD	n/a	wordpools/wordpool_categorized_EN.txt	SPOON	KitchenTools	12	10	[0, 0, 0]	n/a	catFR1	1	R1616S
1620.721	0.001	1020180	WORD_OFF	n/a	n/a	SPOON	KitchenTools	12	10	[0, 0, 0]	n/a	catFR1	1	R1616S
1620.722	0.0	1020180	ENCODING_END	n/a	n/a	n/a	n/a	-999	10	[0, 0, 0]	n/a	catFR1	1	R1616S
1620.722	0.0	1020189	START	n/a	n/a	n/a	n/a	-999	10	[-999, -999, -999]	n/a	catFR1	1	R1616S
1620.722	0.0	1020189	PROB	4.798	n/a	n/a	n/a	-999	10	[5, 1, 7]	13.0	catFR1	1	R1616S
1620.722	4.816	1020194	DISTRACT_START	n/a	n/a	n/a	n/a	-999	10	[0, 0, 0]	n/a	catFR1	1	R1616S
1625.538	6.151	1025005	PROB	6.133	n/a	n/a	n/a	-999	10	[4, 7, 7]	18.0	catFR1	1	R1616S
1631.689	8.015	1031155	PROB	8.0	n/a	n/a	n/a	-999	10	[7, 8, 6]	21.0	catFR1	1	R1616S
1639.704	4.4	1039170	PROB	4.383	n/a	n/a	n/a	-999	10	[3, 2, 3]	8.0	catFR1	1	R1616S
1644.104	0.0	1043569	DISTRACT_END	n/a	n/a	n/a	n/a	-999	10	[0, 0, 0]	n/a	catFR1	1	R1616S
1644.104	2.115	1043570	STOP	n/a	n/a	n/a	n/a	-999	10	[-999, -999, -999]	n/a	catFR1	1	R1616S
1646.219	1.506	1045686	REC_START	n/a	n/a	n/a	n/a	-999	10	[0, 0, 0]	n/a	catFR1	1	R1616S
1647.725	4.118	1047191	REC_WORD_VV	1.506	n/a	<>	n/a	-999	10	[0, 0, 0]	n/a	catFR1	1	R1616S
1651.843	2.388	1051308	REC_WORD_VV	5.624	n/a	<>	n/a	-999	10	[0, 0, 0]	n/a	catFR1	1	R1616S
1654.231	0.711	1053696	REC_WORD	8.012	n/a	KNIFE	KitchenTools	11	10	[0, 0, 0]	n/a	catFR1	1	R1616S
1654.942	3.24	1054407	REC_WORD	8.723	n/a	SCREW	n/a	-999	10	[0, 0, 0]	n/a	catFR1	1	R1616S
1658.182	3.514	1057647	REC_WORD_VV	11.963	n/a	<>	n/a	-999	10	[0, 0, 0]	n/a	catFR1	1	R1616S
1661.696	2.5	1061161	REC_WORD_VV	15.477	n/a	<>	n/a	-999	10	[0, 0, 0]	n/a	catFR1	1	R1616S
1664.196	2.619	1063661	REC_WORD_VV	17.977	n/a	<>	n/a	-999	10	[0, 0, 0]	n/a	catFR1	1	R1616S
1666.815	3.32	1066280	REC_WORD_VV	20.596	n/a	<>	n/a	-999	10	[0, 0, 0]	n/a	catFR1	1	R1616S
1670.135	3.788	1069600	REC_WORD_VV	23.916	n/a	<>	n/a	-999	10	[0, 0, 0]	n/a	catFR1	1	R1616S
1673.923	2.507	1073387	REC_WORD_VV	27.704	n/a	<>	n/a	-999	10	[0, 0, 0]	n/a	catFR1	1	R1616S
1676.43	7.557	1075885	REC_END	n/a	n/a	n/a	n/a	-999	10	[0, 0, 0]	n/a	catFR1	1	R1616S
1683.987	10.0	1083444	COUNTDOWN_START	n/a	n/a	n/a	n/a	-999	10	[0, 0, 0]	n/a	catFR1	1	R1616S
1694.338	0.0	1093797	COUNTDOWN_END	n/a	n/a	n/a	n/a	-999	10	[0, 0, 0]	n/a	catFR1	1	R1616S
1694.338	2.099	1093797	ENCODING_START	n/a	n/a	n/a	n/a	-999	11	[0, 0, 0]	n/a	catFR1	1	R1616S
1696.437	1.6	1095893	WORD	n/a	wordpools/wordpool_categorized_EN.txt	SPATULA	KitchenTools	1	11	[0, 0, 0]	n/a	catFR1	1	R1616S
1698.053	0.784	1097514	WORD_OFF	n/a	n/a	SPATULA	KitchenTools	1	11	[0, 0, 0]	n/a	catFR1	1	R1616S
1698.837	1.6	1098296	WORD	n/a	wordpools/wordpool_categorized_EN.txt	COLANDER	KitchenTools	2	11	[0, 0, 0]	n/a	catFR1	1	R1616S
1700.454	0.85	1099917	WORD_OFF	n/a	n/a	COLANDER	KitchenTools	2	11	[0, 0, 0]	n/a	catFR1	1	R1616S
1701.304	1.6	1100769	WORD	n/a	wordpools/wordpool_categorized_EN.txt	RUM	Beverages	3	11	[0, 0, 0]	n/a	catFR1	1	R1616S
1702.904	0.917	1102362	WORD_OFF	n/a	n/a	RUM	Beverages	3	11	[0, 0, 0]	n/a	catFR1	1	R1616S
1703.821	1.6	1103284	WORD	n/a	wordpools/wordpool_categorized_EN.txt	COFFEE	Beverages	4	11	[0, 0, 0]	n/a	catFR1	1	R1616S
1705.437	0.767	1104891	WORD_OFF	n/a	n/a	COFFEE	Beverages	4	11	[0, 0, 0]	n/a	catFR1	1	R1616S
1706.204	1.6	1105659	WORD	n/a	wordpools/wordpool_categorized_EN.txt	ROBIN	Birds	5	11	[0, 0, 0]	n/a	catFR1	1	R1616S
1707.804	0.95	1107266	WORD_OFF	n/a	n/a	ROBIN	Birds	5	11	[0, 0, 0]	n/a	catFR1	1	R1616S
1708.754	1.6	1108216	WORD	n/a	wordpools/wordpool_categorized_EN.txt	DOVE	Birds	6	11	[0, 0, 0]	n/a	catFR1	1	R1616S
1710.371	0.983	1109837	WORD_OFF	n/a	n/a	DOVE	Birds	6	11	[0, 0, 0]	n/a	catFR1	1	R1616S
1711.354	1.6	1110815	WORD	n/a	wordpools/wordpool_categorized_EN.txt	LADLE	KitchenTools	7	11	[0, 0, 0]	n/a	catFR1	1	R1616S
1712.971	0.833	1112436	WORD_OFF	n/a	n/a	LADLE	KitchenTools	7	11	[0, 0, 0]	n/a	catFR1	1	R1616S
1713.804	1.6	1113260	WORD	n/a	wordpools/wordpool_categorized_EN.txt	FORK	KitchenTools	8	11	[0, 0, 0]	n/a	catFR1	1	R1616S
1715.42	0.866	1114881	WORD_OFF	n/a	n/a	FORK	KitchenTools	8	11	[0, 0, 0]	n/a	catFR1	1	R1616S
1716.286	1.6	1115747	WORD	n/a	wordpools/wordpool_categorized_EN.txt	JUICE	Beverages	9	11	[0, 0, 0]	n/a	catFR1	1	R1616S
1717.887	0.8	1117354	WORD_OFF	n/a	n/a	JUICE	Beverages	9	11	[0, 0, 0]	n/a	catFR1	1	R1616S
1718.687	1.6	1118150	WORD	n/a	wordpools/wordpool_categorized_EN.txt	MILK	Beverages	10	11	[0, 0, 0]	n/a	catFR1	1	R1616S
1720.287	0.884	1119743	WORD_OFF	n/a	n/a	MILK	Beverages	10	11	[0, 0, 0]	n/a	catFR1	1	R1616S
1721.171	1.6	1120637	WORD	n/a	wordpools/wordpool_categorized_EN.txt	FINCH	Birds	11	11	[0, 0, 0]	n/a	catFR1	1	R1616S
1722.771	0.816	1122230	WORD_OFF	n/a	n/a	FINCH	Birds	11	11	[0, 0, 0]	n/a	catFR1	1	R1616S
1723.587	1.6	1123040	WORD	n/a	wordpools/wordpool_categorized_EN.txt	CARDINAL	Birds	12	11	[0, 0, 0]	n/a	catFR1	1	R1616S
1725.187	0.002	1124647	WORD_OFF	n/a	n/a	CARDINAL	Birds	12	11	[0, 0, 0]	n/a	catFR1	1	R1616S
1725.189	0.0	1124647	ENCODING_END	n/a	n/a	n/a	n/a	-999	11	[0, 0, 0]	n/a	catFR1	1	R1616S
1725.189	0.0	1124647	DISTRACT_START	n/a	n/a	n/a	n/a	-999	11	[0, 0, 0]	n/a	catFR1	1	R1616S
1725.187	0.002	1124649	PROB	4.85	n/a	n/a	n/a	-999	11	[3, 4, 6]	13.0	catFR1	1	R1616S
1725.189	4.866	1124651	START	n/a	n/a	n/a	n/a	-999	11	[-999, -999, -999]	n/a	catFR1	1	R1616S
1730.055	6.666	1129517	PROB	6.649	n/a	n/a	n/a	-999	11	[7, 7, 5]	19.0	catFR1	1	R1616S
1736.721	5.266	1136182	PROB	5.25	n/a	n/a	n/a	-999	11	[2, 3, 1]	6.0	catFR1	1	R1616S
1741.987	2.301	1141448	PROB	2.283	n/a	n/a	n/a	-999	11	[2, 5, 1]	6.0	catFR1	1	R1616S
1744.288	7.883	1143749	PROB	7.866	n/a	n/a	n/a	-999	11	[8, 6, 2]	16.0	catFR1	1	R1616S
1752.171	0.0	1151627	DISTRACT_END	n/a	n/a	n/a	n/a	-999	11	[0, 0, 0]	n/a	catFR1	1	R1616S
1752.171	2.199	1151632	STOP	n/a	n/a	n/a	n/a	-999	11	[-999, -999, -999]	n/a	catFR1	1	R1616S
1754.37	1.52	1153828	REC_START	n/a	n/a	n/a	n/a	-999	11	[0, 0, 0]	n/a	catFR1	1	R1616S
1755.89	1.677	1155350	REC_WORD_VV	1.52	n/a	<>	n/a	-999	11	[0, 0, 0]	n/a	catFR1	1	R1616S
1757.567	0.848	1157027	REC_WORD	3.197	n/a	FORK	KitchenTools	8	11	[0, 0, 0]	n/a	catFR1	1	R1616S
1758.415	0.752	1157875	REC_WORD	4.045	n/a	KNIFE	KitchenTools	-999	11	[0, 0, 0]	n/a	catFR1	1	R1616S
1759.167	0.701	1158627	REC_WORD	4.797	n/a	SPOON	KitchenTools	-999	11	[0, 0, 0]	n/a	catFR1	1	R1616S
1759.868	1.044	1159328	REC_WORD	5.498	n/a	LADLE	KitchenTools	7	11	[0, 0, 0]	n/a	catFR1	1	R1616S
1760.912	4.551	1160372	REC_WORD	6.542	n/a	COLANDER	KitchenTools	2	11	[0, 0, 0]	n/a	catFR1	1	R1616S
1765.463	2.814	1164923	REC_WORD_VV	11.093	n/a	<>	n/a	-999	11	[0, 0, 0]	n/a	catFR1	1	R1616S
1768.277	2.569	1167737	REC_WORD_VV	13.907	n/a	<>	n/a	-999	11	[0, 0, 0]	n/a	catFR1	1	R1616S
1770.846	1.724	1170306	REC_WORD_VV	16.476	n/a	<>	n/a	-999	11	[0, 0, 0]	n/a	catFR1	1	R1616S
1772.57	1.426	1172030	REC_WORD_VV	18.2	n/a	<>	n/a	-999	11	[0, 0, 0]	n/a	catFR1	1	R1616S
1773.996	6.659	1173456	REC_WORD_VV	19.626	n/a	<>	n/a	-999	11	[0, 0, 0]	n/a	catFR1	1	R1616S
1780.655	0.454	1180114	REC_WORD_VV	26.285	n/a	<>	n/a	-999	11	[0, 0, 0]	n/a	catFR1	1	R1616S
1781.109	2.902	1180568	REC_WORD	26.739	n/a	FORK	KitchenTools	8	11	[0, 0, 0]	n/a	catFR1	1	R1616S
1784.011	0.572	1183470	REC_WORD_VV	29.641	n/a	<>	n/a	-999	11	[0, 0, 0]	n/a	catFR1	1	R1616S
1784.583	3.403	1184041	REC_END	n/a	n/a	n/a	n/a	-999	11	[0, 0, 0]	n/a	catFR1	1	R1616S
1787.986	10.0	1187450	COUNTDOWN_START	n/a	n/a	n/a	n/a	-999	11	[0, 0, 0]	n/a	catFR1	1	R1616S
1798.335	0.0	1197790	COUNTDOWN_END	n/a	n/a	n/a	n/a	-999	11	[0, 0, 0]	n/a	catFR1	1	R1616S
1798.335	2.336	1197790	ENCODING_START	n/a	n/a	n/a	n/a	-999	12	[0, 0, 0]	n/a	catFR1	1	R1616S
1800.671	1.6	1200123	WORD	n/a	wordpools/wordpool_categorized_EN.txt	TURKEY	FarmAnimals	1	12	[0, 0, 0]	n/a	catFR1	1	R1616S
1802.287	0.817	1201744	WORD_OFF	n/a	n/a	TURKEY	FarmAnimals	1	12	[0, 0, 0]	n/a	catFR1	1	R1616S
1803.104	1.6	1202554	WORD	n/a	wordpools/wordpool_categorized_EN.txt	COW	FarmAnimals	2	12	[0, 0, 0]	n/a	catFR1	1	R1616S
1804.721	0.866	1204175	WORD_OFF	n/a	n/a	COW	FarmAnimals	2	12	[0, 0, 0]	n/a	catFR1	1	R1616S
1805.587	1.6	1205041	WORD	n/a	wordpools/wordpool_categorized_EN.txt	GRATER	KitchenTools	3	12	[0, 0, 0]	n/a	catFR1	1	R1616S
1807.188	0.866	1206648	WORD_OFF	n/a	n/a	GRATER	KitchenTools	3	12	[0, 0, 0]	n/a	catFR1	1	R1616S
1808.054	1.6	1207514	WORD	n/a	wordpools/wordpool_categorized_EN.txt	WHISK	KitchenTools	4	12	[0, 0, 0]	n/a	catFR1	1	R1616S
1809.671	0.766	1209121	WORD_OFF	n/a	n/a	WHISK	KitchenTools	4	12	[0, 0, 0]	n/a	catFR1	1	R1616S
1810.437	1.6	1209889	WORD	n/a	wordpools/wordpool_categorized_EN.txt	PEN	OfficeSupplies	5	12	[0, 0, 0]	n/a	catFR1	1	R1616S
1812.054	0.883	1211510	WORD_OFF	n/a	n/a	PEN	OfficeSupplies	5	12	[0, 0, 0]	n/a	catFR1	1	R1616S
1812.937	1.6	1212390	WORD	n/a	wordpools/wordpool_categorized_EN.txt	PENCIL	OfficeSupplies	6	12	[0, 0, 0]	n/a	catFR1	1	R1616S
1814.554	0.817	1214011	WORD_OFF	n/a	n/a	PENCIL	OfficeSupplies	6	12	[0, 0, 0]	n/a	catFR1	1	R1616S
1815.371	1.6	1214821	WORD	n/a	wordpools/wordpool_categorized_EN.txt	PEELER	KitchenTools	7	12	[0, 0, 0]	n/a	catFR1	1	R1616S
1816.987	0.984	1216442	WORD_OFF	n/a	n/a	PEELER	KitchenTools	7	12	[0, 0, 0]	n/a	catFR1	1	R1616S
1817.971	1.6	1217420	WORD	n/a	wordpools/wordpool_categorized_EN.txt	STRAINER	KitchenTools	8	12	[0, 0, 0]	n/a	catFR1	1	R1616S
1819.587	0.834	1219041	WORD_OFF	n/a	n/a	STRAINER	KitchenTools	8	12	[0, 0, 0]	n/a	catFR1	1	R1616S
1820.421	1.6	1219879	WORD	n/a	wordpools/wordpool_categorized_EN.txt	BINDER	OfficeSupplies	9	12	[0, 0, 0]	n/a	catFR1	1	R1616S
1822.02	0.901	1221472	WORD_OFF	n/a	n/a	BINDER	OfficeSupplies	9	12	[0, 0, 0]	n/a	catFR1	1	R1616S
1822.921	1.6	1222380	WORD	n/a	wordpools/wordpool_categorized_EN.txt	MARKER	OfficeSupplies	10	12	[0, 0, 0]	n/a	catFR1	1	R1616S
1824.536	0.867	1223987	WORD_OFF	n/a	n/a	MARKER	OfficeSupplies	10	12	[0, 0, 0]	n/a	catFR1	1	R1616S
1825.403	1.6	1224853	WORD	n/a	wordpools/wordpool_categorized_EN.txt	CALF	FarmAnimals	11	12	[0, 0, 0]	n/a	catFR1	1	R1616S
1827.004	0.833	1226460	WORD_OFF	n/a	n/a	CALF	FarmAnimals	11	12	[0, 0, 0]	n/a	catFR1	1	R1616S
1827.837	1.6	1227284	WORD	n/a	wordpools/wordpool_categorized_EN.txt	ROOSTER	FarmAnimals	12	12	[0, 0, 0]	n/a	catFR1	1	R1616S
1829.437	0.002	1228891	WORD_OFF	n/a	n/a	ROOSTER	FarmAnimals	12	12	[0, 0, 0]	n/a	catFR1	1	R1616S
1829.439	0.0	1228891	ENCODING_END	n/a	n/a	n/a	n/a	-999	12	[0, 0, 0]	n/a	catFR1	1	R1616S
1829.439	0.0	1228891	DISTRACT_START	n/a	n/a	n/a	n/a	-999	12	[0, 0, 0]	n/a	catFR1	1	R1616S
1829.438	0.001	1228895	PROB	4.099	n/a	n/a	n/a	-999	12	[5, 5, 8]	18.0	catFR1	1	R1616S
1829.439	4.116	1228896	START	n/a	n/a	n/a	n/a	-999	12	[-999, -999, -999]	n/a	catFR1	1	R1616S
1833.555	2.883	1233012	PROB	2.866	n/a	n/a	n/a	-999	12	[1, 2, 8]	11.0	catFR1	1	R1616S
1836.438	3.15	1235894	PROB	3.133	n/a	n/a	n/a	-999	12	[3, 2, 7]	12.0	catFR1	1	R1616S
1839.588	2.967	1239044	PROB	2.949	n/a	n/a	n/a	-999	12	[3, 7, 2]	12.0	catFR1	1	R1616S
1842.555	6.866	1242011	PROB	6.849	n/a	n/a	n/a	-999	12	[8, 8, 6]	22.0	catFR1	1	R1616S
1849.421	6.066	1248877	PROB	6.05	n/a	n/a	n/a	-999	12	[8, 6, 4]	18.0	catFR1	1	R1616S
1855.487	0.0	1254934	DISTRACT_END	n/a	n/a	n/a	n/a	-999	12	[0, 0, 0]	n/a	catFR1	1	R1616S
1855.487	2.116	1254943	STOP	n/a	n/a	n/a	n/a	-999	12	[-999, -999, -999]	n/a	catFR1	1	R1616S
1857.603	0.972	1257052	REC_START	n/a	n/a	n/a	n/a	-999	12	[0, 0, 0]	n/a	catFR1	1	R1616S
1858.575	1.688	1258030	REC_WORD_VV	0.972	n/a	<>	n/a	-999	12	[0, 0, 0]	n/a	catFR1	1	R1616S
1860.263	0.815	1259718	REC_WORD	2.66	n/a	WHISK	KitchenTools	4	12	[0, 0, 0]	n/a	catFR1	1	R1616S
1861.078	3.902	1260533	REC_WORD	3.475	n/a	COLANDER	KitchenTools	-999	12	[0, 0, 0]	n/a	catFR1	1	R1616S
1864.98	1.039	1264435	REC_WORD	7.377	n/a	ROOSTER	FarmAnimals	12	12	[0, 0, 0]	n/a	catFR1	1	R1616S
1866.019	0.961	1265474	REC_WORD	8.416	n/a	COW	FarmAnimals	2	12	[0, 0, 0]	n/a	catFR1	1	R1616S
1866.98	4.491	1266435	REC_WORD	9.377	n/a	CALF	FarmAnimals	11	12	[0, 0, 0]	n/a	catFR1	1	R1616S
1871.471	8.685	1270926	REC_WORD_VV	13.868	n/a	<>	n/a	-999	12	[0, 0, 0]	n/a	catFR1	1	R1616S
1880.156	0.807	1279610	REC_WORD	22.553	n/a	SPOON	KitchenTools	-999	12	[0, 0, 0]	n/a	catFR1	1	R1616S
1880.963	1.002	1280417	REC_WORD	23.36	n/a	FORK	KitchenTools	-999	12	[0, 0, 0]	n/a	catFR1	1	R1616S
1881.965	1.317	1281419	REC_WORD	24.362	n/a	KNIFE	KitchenTools	-999	12	[0, 0, 0]	n/a	catFR1	1	R1616S
1883.282	4.555	1282736	REC_WORD_VV	25.679	n/a	<>	n/a	-999	12	[0, 0, 0]	n/a	catFR1	1	R1616S
1887.837	0.0	1287293	REC_END	n/a	n/a	n/a	n/a	-999	12	[0, 0, 0]	n/a	catFR1	1	R1616S
