onset	duration	sample	trial_type	response_time	stim_file	item_name	category	serialpos	list	test	answer	experiment	session	subject
0.0	0.0	88798	INSTRUCT_START	n/a	n/a	n/a	n/a	-999	-999	[0, 0, 0]	n/a	catFR1	0	R1279P
0.0	11.267	88798	INSTRUCT_END	n/a	n/a	n/a	n/a	-999	-999	[0, 0, 0]	n/a	catFR1	0	R1279P
11.267	0.0	100064	SESS_START	n/a	n/a	n/a	n/a	-999	-999	[0, 0, 0]	n/a	catFR1	0	R1279P
11.267	10.002	100064	MIC_TEST	n/a	n/a	n/a	n/a	-999	-999	[0, 0, 0]	n/a	catFR1	0	R1279P
21.269	1.52	110066	PRACTICE_TRIAL	n/a	n/a	n/a	n/a	-999	-1	[0, 0, 0]	n/a	catFR1	0	R1279P
22.789	10.0	111586	COUNTDOWN_START	n/a	n/a	n/a	n/a	-999	-1	[0, 0, 0]	n/a	catFR1	0	R1279P
33.217	0.007	122013	COUNTDOWN_END	n/a	n/a	n/a	n/a	-999	-1	[0, 0, 0]	n/a	catFR1	0	R1279P
33.224	1.6	122020	PRACTICE_ORIENT	n/a	n/a	n/a	n/a	-999	-1	[0, 0, 0]	n/a	catFR1	0	R1279P
34.841	2.133	123637	PRACTICE_ORIENT_OFF	n/a	n/a	n/a	n/a	-999	-1	[0, 0, 0]	n/a	catFR1	0	R1279P
36.974	1.6	125770	PRACTICE_WORD	n/a	n/a	BEAM	n/a	-1	-1	[0, 0, 0]	n/a	catFR1	0	R1279P
38.592	0.767	127388	PRACTICE_WORD_OFF	n/a	n/a	BEAM	n/a	-999	-1	[0, 0, 0]	n/a	catFR1	0	R1279P
39.359	1.6	128155	PRACTICE_WORD	n/a	n/a	WATCH	n/a	-1	-1	[0, 0, 0]	n/a	catFR1	0	R1279P
40.975	0.768	129771	PRACTICE_WORD_OFF	n/a	n/a	WATCH	n/a	-999	-1	[0, 0, 0]	n/a	catFR1	0	R1279P
41.743	1.6	130539	PRACTICE_WORD	n/a	n/a	RING	n/a	-1	-1	[0, 0, 0]	n/a	catFR1	0	R1279P
43.359	0.967	132155	PRACTICE_WORD_OFF	n/a	n/a	RING	n/a	-999	-1	[0, 0, 0]	n/a	catFR1	0	R1279P
44.326	1.6	133122	PRACTICE_WORD	n/a	n/a	FLOOD	n/a	-1	-1	[0, 0, 0]	n/a	catFR1	0	R1279P
45.942	0.835	134738	PRACTICE_WORD_OFF	n/a	n/a	FLOOD	n/a	-999	-1	[0, 0, 0]	n/a	catFR1	0	R1279P
46.777	1.6	135573	PRACTICE_WORD	n/a	n/a	WAGON	n/a	-1	-1	[0, 0, 0]	n/a	catFR1	0	R1279P
48.394	0.799	137189	PRACTICE_WORD_OFF	n/a	n/a	WAGON	n/a	-999	-1	[0, 0, 0]	n/a	catFR1	0	R1279P
49.193	1.6	137988	PRACTICE_WORD	n/a	n/a	CHEST	n/a	-1	-1	[0, 0, 0]	n/a	catFR1	0	R1279P
50.811	0.983	139606	PRACTICE_WORD_OFF	n/a	n/a	CHEST	n/a	-999	-1	[0, 0, 0]	n/a	catFR1	0	R1279P
51.794	1.6	140589	PRACTICE_WORD	n/a	n/a	TONGUE	n/a	-1	-1	[0, 0, 0]	n/a	catFR1	0	R1279P
53.411	0.783	142206	PRACTICE_WORD_OFF	n/a	n/a	TONGUE	n/a	-999	-1	[0, 0, 0]	n/a	catFR1	0	R1279P
54.194	1.6	142989	PRACTICE_WORD	n/a	n/a	RHINO	n/a	-1	-1	[0, 0, 0]	n/a	catFR1	0	R1279P
55.812	0.866	144607	PRACTICE_WORD_OFF	n/a	n/a	RHINO	n/a	-999	-1	[0, 0, 0]	n/a	catFR1	0	R1279P
56.678	1.6	145473	PRACTICE_WORD	n/a	n/a	ATTIC	n/a	-1	-1	[0, 0, 0]	n/a	catFR1	0	R1279P
58.296	0.782	147091	PRACTICE_WORD_OFF	n/a	n/a	ATTIC	n/a	-999	-1	[0, 0, 0]	n/a	catFR1	0	R1279P
59.078	1.6	147873	PRACTICE_WORD	n/a	n/a	CAMEL	n/a	-1	-1	[0, 0, 0]	n/a	catFR1	0	R1279P
60.696	0.9	149491	PRACTICE_WORD_OFF	n/a	n/a	CAMEL	n/a	-999	-1	[0, 0, 0]	n/a	catFR1	0	R1279P
61.596	1.6	150391	PRACTICE_WORD	n/a	n/a	IRON	n/a	-1	-1	[0, 0, 0]	n/a	catFR1	0	R1279P
63.213	0.899	152008	PRACTICE_WORD_OFF	n/a	n/a	IRON	n/a	-999	-1	[0, 0, 0]	n/a	catFR1	0	R1279P
64.112	1.6	152907	PRACTICE_WORD	n/a	n/a	COTTON	n/a	-1	-1	[0, 0, 0]	n/a	catFR1	0	R1279P
65.73	0.001	154525	PRACTICE_WORD_OFF	n/a	n/a	COTTON	n/a	-999	-1	[0, 0, 0]	n/a	catFR1	0	R1279P
65.731	0.0	154526	ENCODING_END	n/a	n/a	n/a	n/a	-999	-1	[0, 0, 0]	n/a	catFR1	0	R1279P
65.731	0.0	154526	DISTRACT_START	n/a	n/a	n/a	n/a	-999	-1	[0, 0, 0]	n/a	catFR1	0	R1279P
65.731	0.016	154526	START	n/a	n/a	n/a	n/a	-999	-1	[-999, -999, -999]	n/a	catFR1	0	R1279P
65.747	5.801	154542	PROB	5.762	n/a	n/a	n/a	-999	-1	[2, 2, 7]	11.0	catFR1	0	R1279P
71.548	5.701	160342	PROB	5.665	n/a	n/a	n/a	-999	-1	[5, 6, 5]	17.0	catFR1	0	R1279P
77.249	7.252	166043	PROB	7.229	n/a	n/a	n/a	-999	-1	[9, 5, 5]	19.0	catFR1	0	R1279P
84.501	7.305	173295	PROB	7.305	n/a	n/a	n/a	-999	-1	[7, 6, 5]	18.0	catFR1	0	R1279P
91.806	0.013	180599	STOP	n/a	n/a	n/a	n/a	-999	-1	[-999, -999, -999]	n/a	catFR1	0	R1279P
91.819	0.516	180612	DISTRACT_END	n/a	n/a	n/a	n/a	-999	-1	[0, 0, 0]	n/a	catFR1	0	R1279P
92.335	0.518	181128	RETRIEVAL_ORIENT	n/a	n/a	n/a	n/a	-999	-1	[0, 0, 0]	n/a	catFR1	0	R1279P
92.853	30.011	181646	PRACTICE_REC_START	n/a	n/a	n/a	n/a	-999	-1	[0, 0, 0]	n/a	catFR1	0	R1279P
122.864	32.132	211656	PRACTICE_REC_END	n/a	n/a	n/a	n/a	-999	-1	[0, 0, 0]	n/a	catFR1	0	R1279P
154.996	0.5	243786	TRIAL	n/a	n/a	n/a	n/a	-999	1	[0, 0, 0]	n/a	catFR1	0	R1279P
155.496	10.0	244286	COUNTDOWN_START	n/a	n/a	n/a	n/a	-999	1	[0, 0, 0]	n/a	catFR1	0	R1279P
165.924	0.007	254713	COUNTDOWN_END	n/a	n/a	n/a	n/a	-999	1	[0, 0, 0]	n/a	catFR1	0	R1279P
165.931	1.6	254720	ORIENT	n/a	n/a	n/a	n/a	-999	1	[0, 0, 0]	n/a	catFR1	0	R1279P
167.533	2.15	256322	ORIENT_OFF	n/a	n/a	n/a	n/a	-999	1	[0, 0, 0]	n/a	catFR1	0	R1279P
169.683	1.6	258472	WORD	n/a	wordpools/wordpool_categorized_EN.txt	GRATER	KitchenTools	1	1	[0, 0, 0]	n/a	catFR1	0	R1279P
171.3	0.984	260089	WORD_OFF	n/a	n/a	GRATER	n/a	1	1	[0, 0, 0]	n/a	catFR1	0	R1279P
172.284	1.6	261073	WORD	n/a	wordpools/wordpool_categorized_EN.txt	COLANDER	KitchenTools	2	1	[0, 0, 0]	n/a	catFR1	0	R1279P
173.9	0.951	262689	WORD_OFF	n/a	n/a	COLANDER	n/a	2	1	[0, 0, 0]	n/a	catFR1	0	R1279P
174.851	1.6	263640	WORD	n/a	wordpools/wordpool_categorized_EN.txt	WALNUT	Trees	3	1	[0, 0, 0]	n/a	catFR1	0	R1279P
176.468	0.9	265257	WORD_OFF	n/a	n/a	WALNUT	n/a	3	1	[0, 0, 0]	n/a	catFR1	0	R1279P
177.368	1.6	266157	WORD	n/a	wordpools/wordpool_categorized_EN.txt	PINE	Trees	4	1	[0, 0, 0]	n/a	catFR1	0	R1279P
178.984	0.933	267773	WORD_OFF	n/a	n/a	PINE	n/a	4	1	[0, 0, 0]	n/a	catFR1	0	R1279P
179.917	1.6	268706	WORD	n/a	wordpools/wordpool_categorized_EN.txt	ONION	Vegetables	5	1	[0, 0, 0]	n/a	catFR1	0	R1279P
181.535	0.967	270324	WORD_OFF	n/a	n/a	ONION	n/a	5	1	[0, 0, 0]	n/a	catFR1	0	R1279P
182.502	1.6	271290	WORD	n/a	wordpools/wordpool_categorized_EN.txt	CAULIFLOWER	Vegetables	6	1	[0, 0, 0]	n/a	catFR1	0	R1279P
184.118	0.967	272906	WORD_OFF	n/a	n/a	CAULIFLOWER	n/a	6	1	[0, 0, 0]	n/a	catFR1	0	R1279P
185.085	1.6	273873	WORD	n/a	wordpools/wordpool_categorized_EN.txt	CORKSCREW	KitchenTools	7	1	[0, 0, 0]	n/a	catFR1	0	R1279P
186.686	0.867	275474	WORD_OFF	n/a	n/a	CORKSCREW	n/a	7	1	[0, 0, 0]	n/a	catFR1	0	R1279P
187.553	1.6	276341	WORD	n/a	wordpools/wordpool_categorized_EN.txt	LADLE	KitchenTools	8	1	[0, 0, 0]	n/a	catFR1	0	R1279P
189.169	0.784	277957	WORD_OFF	n/a	n/a	LADLE	n/a	8	1	[0, 0, 0]	n/a	catFR1	0	R1279P
189.953	1.6	278741	WORD	n/a	wordpools/wordpool_categorized_EN.txt	SPRUCE	Trees	9	1	[0, 0, 0]	n/a	catFR1	0	R1279P
191.571	0.816	280359	WORD_OFF	n/a	n/a	SPRUCE	n/a	9	1	[0, 0, 0]	n/a	catFR1	0	R1279P
192.387	1.6	281175	WORD	n/a	wordpools/wordpool_categorized_EN.txt	MAPLE	Trees	10	1	[0, 0, 0]	n/a	catFR1	0	R1279P
194.003	0.934	282791	WORD_OFF	n/a	n/a	MAPLE	n/a	10	1	[0, 0, 0]	n/a	catFR1	0	R1279P
194.937	1.6	283725	WORD	n/a	wordpools/wordpool_categorized_EN.txt	SPINACH	Vegetables	11	1	[0, 0, 0]	n/a	catFR1	0	R1279P
196.555	0.783	285343	WORD_OFF	n/a	n/a	SPINACH	n/a	11	1	[0, 0, 0]	n/a	catFR1	0	R1279P
197.338	1.6	286126	WORD	n/a	wordpools/wordpool_categorized_EN.txt	CELERY	Vegetables	12	1	[0, 0, 0]	n/a	catFR1	0	R1279P
198.954	0.001	287742	WORD_OFF	n/a	n/a	CELERY	n/a	12	1	[0, 0, 0]	n/a	catFR1	0	R1279P
198.955	0.142	287743	ENCODING_END	n/a	n/a	n/a	n/a	-999	1	[0, 0, 0]	n/a	catFR1	0	R1279P
199.097	0.0	287885	DISTRACT_START	n/a	n/a	n/a	n/a	-999	1	[0, 0, 0]	n/a	catFR1	0	R1279P
199.097	0.007	287885	START	n/a	n/a	n/a	n/a	-999	1	[-999, -999, -999]	n/a	catFR1	0	R1279P
199.104	6.419	287892	PROB	6.381	n/a	n/a	n/a	-999	1	[5, 7, 9]	21.0	catFR1	0	R1279P
205.523	4.65	294310	PROB	4.618	n/a	n/a	n/a	-999	1	[3, 2, 7]	12.0	catFR1	0	R1279P
210.173	6.336	298960	PROB	6.306	n/a	n/a	n/a	-999	1	[7, 2, 6]	15.0	catFR1	0	R1279P
216.509	5.28	305296	PROB	5.28	n/a	n/a	n/a	-999	1	[3, 3, 2]	8.0	catFR1	0	R1279P
221.789	0.021	310575	STOP	n/a	n/a	n/a	n/a	-999	1	[-999, -999, -999]	n/a	catFR1	0	R1279P
221.81	0.683	310596	DISTRACT_END	n/a	n/a	n/a	n/a	-999	1	[0, 0, 0]	n/a	catFR1	0	R1279P
222.493	0.517	311279	RETRIEVAL_ORIENT	n/a	n/a	n/a	n/a	-999	1	[0, 0, 0]	n/a	catFR1	0	R1279P
223.01	6.326	311796	REC_START	n/a	n/a	n/a	n/a	-999	1	[0, 0, 0]	n/a	catFR1	0	R1279P
229.336	2.275	318122	REC_WORD	6.326	n/a	GRATER	KitchenTools	1	1	[0, 0, 0]	n/a	catFR1	0	R1279P
231.611	2.08	320397	REC_WORD	8.601	n/a	ONION	Vegetables	5	1	[0, 0, 0]	n/a	catFR1	0	R1279P
233.691	9.305	322477	REC_WORD	10.681	n/a	COLANDER	KitchenTools	2	1	[0, 0, 0]	n/a	catFR1	0	R1279P
242.996	1.0	331781	REC_WORD_VV	19.986	n/a	<>	n/a	-999	1	[0, 0, 0]	n/a	catFR1	0	R1279P
243.996	2.295	332781	REC_WORD_VV	20.986	n/a	<>	n/a	-999	1	[0, 0, 0]	n/a	catFR1	0	R1279P
246.291	1.0	335076	REC_WORD_VV	23.281	n/a	<>	n/a	-999	1	[0, 0, 0]	n/a	catFR1	0	R1279P
247.291	2.405	336076	REC_WORD_VV	24.281	n/a	<>	n/a	-999	1	[0, 0, 0]	n/a	catFR1	0	R1279P
249.696	3.325	338481	REC_WORD_VV	26.686	n/a	<>	n/a	-999	1	[0, 0, 0]	n/a	catFR1	0	R1279P
253.021	14.264	341806	REC_END	n/a	n/a	n/a	n/a	-999	1	[0, 0, 0]	n/a	catFR1	0	R1279P
267.285	0.5	356069	TRIAL	n/a	n/a	n/a	n/a	-999	2	[0, 0, 0]	n/a	catFR1	0	R1279P
267.785	10.0	356569	COUNTDOWN_START	n/a	n/a	n/a	n/a	-999	2	[0, 0, 0]	n/a	catFR1	0	R1279P
278.213	0.007	366996	COUNTDOWN_END	n/a	n/a	n/a	n/a	-999	2	[0, 0, 0]	n/a	catFR1	0	R1279P
278.22	1.6	367003	ORIENT	n/a	n/a	n/a	n/a	-999	2	[0, 0, 0]	n/a	catFR1	0	R1279P
279.837	2.283	368620	ORIENT_OFF	n/a	n/a	n/a	n/a	-999	2	[0, 0, 0]	n/a	catFR1	0	R1279P
282.12	1.6	370903	WORD	n/a	wordpools/wordpool_categorized_EN.txt	SHOES	Clothing	1	2	[0, 0, 0]	n/a	catFR1	0	R1279P
283.738	0.817	372521	WORD_OFF	n/a	n/a	SHOES	n/a	1	2	[0, 0, 0]	n/a	catFR1	0	R1279P
284.555	1.6	373338	WORD	n/a	wordpools/wordpool_categorized_EN.txt	SHORTS	Clothing	2	2	[0, 0, 0]	n/a	catFR1	0	R1279P
286.171	0.8	374954	WORD_OFF	n/a	n/a	SHORTS	n/a	2	2	[0, 0, 0]	n/a	catFR1	0	R1279P
286.971	1.6	375754	WORD	n/a	wordpools/wordpool_categorized_EN.txt	MIXER	Appliances	3	2	[0, 0, 0]	n/a	catFR1	0	R1279P
288.589	0.933	377372	WORD_OFF	n/a	n/a	MIXER	n/a	3	2	[0, 0, 0]	n/a	catFR1	0	R1279P
289.522	1.6	378305	WORD	n/a	wordpools/wordpool_categorized_EN.txt	BLENDER	Appliances	4	2	[0, 0, 0]	n/a	catFR1	0	R1279P
291.138	0.967	379921	WORD_OFF	n/a	n/a	BLENDER	n/a	4	2	[0, 0, 0]	n/a	catFR1	0	R1279P
292.105	1.6	380888	WORD	n/a	wordpools/wordpool_categorized_EN.txt	BASKETBALL	Toys	5	2	[0, 0, 0]	n/a	catFR1	0	R1279P
293.723	1.0	382506	WORD_OFF	n/a	n/a	BASKETBALL	n/a	5	2	[0, 0, 0]	n/a	catFR1	0	R1279P
294.723	1.6	383506	WORD	n/a	wordpools/wordpool_categorized_EN.txt	BLOCKS	Toys	6	2	[0, 0, 0]	n/a	catFR1	0	R1279P
296.34	0.85	385123	WORD_OFF	n/a	n/a	BLOCKS	n/a	6	2	[0, 0, 0]	n/a	catFR1	0	R1279P
297.19	1.6	385972	WORD	n/a	wordpools/wordpool_categorized_EN.txt	JEANS	Clothing	7	2	[0, 0, 0]	n/a	catFR1	0	R1279P
298.808	0.966	387590	WORD_OFF	n/a	n/a	JEANS	n/a	7	2	[0, 0, 0]	n/a	catFR1	0	R1279P
299.774	1.6	388556	WORD	n/a	wordpools/wordpool_categorized_EN.txt	JACKET	Clothing	8	2	[0, 0, 0]	n/a	catFR1	0	R1279P
301.391	1.001	390173	WORD_OFF	n/a	n/a	JACKET	n/a	8	2	[0, 0, 0]	n/a	catFR1	0	R1279P
302.392	1.6	391174	WORD	n/a	wordpools/wordpool_categorized_EN.txt	DRYER	Appliances	9	2	[0, 0, 0]	n/a	catFR1	0	R1279P
304.007	0.901	392789	WORD_OFF	n/a	n/a	DRYER	n/a	9	2	[0, 0, 0]	n/a	catFR1	0	R1279P
304.908	1.6	393690	WORD	n/a	wordpools/wordpool_categorized_EN.txt	DISHWASHER	Appliances	10	2	[0, 0, 0]	n/a	catFR1	0	R1279P
306.526	0.783	395308	WORD_OFF	n/a	n/a	DISHWASHER	n/a	10	2	[0, 0, 0]	n/a	catFR1	0	R1279P
307.309	1.6	396091	WORD	n/a	wordpools/wordpool_categorized_EN.txt	DOLLHOUSE	Toys	11	2	[0, 0, 0]	n/a	catFR1	0	R1279P
308.925	0.885	397707	WORD_OFF	n/a	n/a	DOLLHOUSE	n/a	11	2	[0, 0, 0]	n/a	catFR1	0	R1279P
309.81	1.6	398592	WORD	n/a	wordpools/wordpool_categorized_EN.txt	MARBLES	Toys	12	2	[0, 0, 0]	n/a	catFR1	0	R1279P
311.426	0.001	400208	WORD_OFF	n/a	n/a	MARBLES	n/a	12	2	[0, 0, 0]	n/a	catFR1	0	R1279P
311.427	0.109	400209	ENCODING_END	n/a	n/a	n/a	n/a	-999	2	[0, 0, 0]	n/a	catFR1	0	R1279P
311.536	0.0	400318	DISTRACT_START	n/a	n/a	n/a	n/a	-999	2	[0, 0, 0]	n/a	catFR1	0	R1279P
311.536	0.024	400318	START	n/a	n/a	n/a	n/a	-999	2	[-999, -999, -999]	n/a	catFR1	0	R1279P
311.56	4.734	400342	PROB	4.701	n/a	n/a	n/a	-999	2	[3, 2, 4]	9.0	catFR1	0	R1279P
316.294	5.318	405075	PROB	5.288	n/a	n/a	n/a	-999	2	[9, 1, 2]	12.0	catFR1	0	R1279P
321.612	6.184	410393	PROB	6.153	n/a	n/a	n/a	-999	2	[9, 5, 6]	20.0	catFR1	0	R1279P
327.796	5.642	416577	PROB	5.642	n/a	n/a	n/a	-999	2	[4, 7, 3]	14.0	catFR1	0	R1279P
333.438	0.01	422219	STOP	n/a	n/a	n/a	n/a	-999	2	[-999, -999, -999]	n/a	catFR1	0	R1279P
333.448	0.532	422229	DISTRACT_END	n/a	n/a	n/a	n/a	-999	2	[0, 0, 0]	n/a	catFR1	0	R1279P
333.98	0.519	422761	RETRIEVAL_ORIENT	n/a	n/a	n/a	n/a	-999	2	[0, 0, 0]	n/a	catFR1	0	R1279P
334.499	1.824	423280	REC_START	n/a	n/a	n/a	n/a	-999	2	[0, 0, 0]	n/a	catFR1	0	R1279P
336.323	0.99	425103	REC_WORD	1.824	n/a	SHOES	Clothing	1	2	[0, 0, 0]	n/a	catFR1	0	R1279P
337.313	27.195	426093	REC_WORD	2.814	n/a	SHORTS	Clothing	2	2	[0, 0, 0]	n/a	catFR1	0	R1279P
364.508	6.395	453287	REC_END	n/a	n/a	n/a	n/a	-999	2	[0, 0, 0]	n/a	catFR1	0	R1279P
370.903	0.5	459682	TRIAL	n/a	n/a	n/a	n/a	-999	3	[0, 0, 0]	n/a	catFR1	0	R1279P
371.403	10.0	460182	COUNTDOWN_START	n/a	n/a	n/a	n/a	-999	3	[0, 0, 0]	n/a	catFR1	0	R1279P
381.831	0.009	470609	COUNTDOWN_END	n/a	n/a	n/a	n/a	-999	3	[0, 0, 0]	n/a	catFR1	0	R1279P
381.84	1.6	470618	ORIENT	n/a	n/a	n/a	n/a	-999	3	[0, 0, 0]	n/a	catFR1	0	R1279P
383.457	2.1	472235	ORIENT_OFF	n/a	n/a	n/a	n/a	-999	3	[0, 0, 0]	n/a	catFR1	0	R1279P
385.557	1.6	474335	WORD	n/a	wordpools/wordpool_categorized_EN.txt	PEAS	Vegetables	1	3	[0, 0, 0]	n/a	catFR1	0	R1279P
387.173	0.9	475951	WORD_OFF	n/a	n/a	PEAS	n/a	1	3	[0, 0, 0]	n/a	catFR1	0	R1279P
388.073	1.6	476851	WORD	n/a	wordpools/wordpool_categorized_EN.txt	LETTUCE	Vegetables	2	3	[0, 0, 0]	n/a	catFR1	0	R1279P
389.691	0.984	478469	WORD_OFF	n/a	n/a	LETTUCE	n/a	2	3	[0, 0, 0]	n/a	catFR1	0	R1279P
390.675	1.6	479453	WORD	n/a	wordpools/wordpool_categorized_EN.txt	SOCKS	Clothing	3	3	[0, 0, 0]	n/a	catFR1	0	R1279P
392.292	0.899	481069	WORD_OFF	n/a	n/a	SOCKS	n/a	3	3	[0, 0, 0]	n/a	catFR1	0	R1279P
393.191	1.6	481968	WORD	n/a	wordpools/wordpool_categorized_EN.txt	SKIRT	Clothing	4	3	[0, 0, 0]	n/a	catFR1	0	R1279P
394.809	0.883	483586	WORD_OFF	n/a	n/a	SKIRT	n/a	4	3	[0, 0, 0]	n/a	catFR1	0	R1279P
395.692	1.6	484469	WORD	n/a	wordpools/wordpool_categorized_EN.txt	COW	FarmAnimals	5	3	[0, 0, 0]	n/a	catFR1	0	R1279P
397.309	1.0	486086	WORD_OFF	n/a	n/a	COW	n/a	5	3	[0, 0, 0]	n/a	catFR1	0	R1279P
398.309	1.6	487086	WORD	n/a	wordpools/wordpool_categorized_EN.txt	PIG	FarmAnimals	6	3	[0, 0, 0]	n/a	catFR1	0	R1279P
399.926	0.917	488703	WORD_OFF	n/a	n/a	PIG	n/a	6	3	[0, 0, 0]	n/a	catFR1	0	R1279P
400.843	1.6	489620	WORD	n/a	wordpools/wordpool_categorized_EN.txt	BROCCOLI	Vegetables	7	3	[0, 0, 0]	n/a	catFR1	0	R1279P
402.46	0.917	491237	WORD_OFF	n/a	n/a	BROCCOLI	n/a	7	3	[0, 0, 0]	n/a	catFR1	0	R1279P
403.377	1.6	492154	WORD	n/a	wordpools/wordpool_categorized_EN.txt	CORN	Vegetables	8	3	[0, 0, 0]	n/a	catFR1	0	R1279P
404.993	0.917	493770	WORD_OFF	n/a	n/a	CORN	n/a	8	3	[0, 0, 0]	n/a	catFR1	0	R1279P
405.91	1.6	494687	WORD	n/a	wordpools/wordpool_categorized_EN.txt	SHIRT	Clothing	9	3	[0, 0, 0]	n/a	catFR1	0	R1279P
407.511	1.0	496288	WORD_OFF	n/a	n/a	SHIRT	n/a	9	3	[0, 0, 0]	n/a	catFR1	0	R1279P
408.511	1.6	497288	WORD	n/a	wordpools/wordpool_categorized_EN.txt	BLOUSE	Clothing	10	3	[0, 0, 0]	n/a	catFR1	0	R1279P
410.127	0.917	498904	WORD_OFF	n/a	n/a	BLOUSE	n/a	10	3	[0, 0, 0]	n/a	catFR1	0	R1279P
411.044	1.6	499820	WORD	n/a	wordpools/wordpool_categorized_EN.txt	CHICKEN	FarmAnimals	11	3	[0, 0, 0]	n/a	catFR1	0	R1279P
412.645	0.867	501421	WORD_OFF	n/a	n/a	CHICKEN	n/a	11	3	[0, 0, 0]	n/a	catFR1	0	R1279P
413.512	1.6	502288	WORD	n/a	wordpools/wordpool_categorized_EN.txt	SHEEP	FarmAnimals	12	3	[0, 0, 0]	n/a	catFR1	0	R1279P
415.128	0.001	503904	WORD_OFF	n/a	n/a	SHEEP	n/a	12	3	[0, 0, 0]	n/a	catFR1	0	R1279P
415.129	0.107	503905	ENCODING_END	n/a	n/a	n/a	n/a	-999	3	[0, 0, 0]	n/a	catFR1	0	R1279P
415.236	0.0	504012	DISTRACT_START	n/a	n/a	n/a	n/a	-999	3	[0, 0, 0]	n/a	catFR1	0	R1279P
415.236	0.01	504012	START	n/a	n/a	n/a	n/a	-999	3	[-999, -999, -999]	n/a	catFR1	0	R1279P
415.246	6.285	504022	PROB	6.255	n/a	n/a	n/a	-999	3	[1, 2, 1]	4.0	catFR1	0	R1279P
421.531	5.366	510307	PROB	5.339	n/a	n/a	n/a	-999	3	[7, 2, 1]	10.0	catFR1	0	R1279P
426.897	4.452	515673	PROB	4.42	n/a	n/a	n/a	-999	3	[4, 4, 6]	14.0	catFR1	0	R1279P
431.349	5.552	520124	PROB	5.552	n/a	n/a	n/a	-999	3	[5, 3, 2]	10.0	catFR1	0	R1279P
436.901	0.015	525676	STOP	n/a	n/a	n/a	n/a	-999	3	[-999, -999, -999]	n/a	catFR1	0	R1279P
436.916	0.551	525691	DISTRACT_END	n/a	n/a	n/a	n/a	-999	3	[0, 0, 0]	n/a	catFR1	0	R1279P
437.467	0.516	526242	RETRIEVAL_ORIENT	n/a	n/a	n/a	n/a	-999	3	[0, 0, 0]	n/a	catFR1	0	R1279P
437.983	2.309	526758	REC_START	n/a	n/a	n/a	n/a	-999	3	[0, 0, 0]	n/a	catFR1	0	R1279P
440.292	1.605	529067	REC_WORD	2.309	n/a	PEAS	Vegetables	1	3	[0, 0, 0]	n/a	catFR1	0	R1279P
441.897	2.151	530672	REC_WORD	3.914	n/a	BROCCOLI	Vegetables	7	3	[0, 0, 0]	n/a	catFR1	0	R1279P
444.048	2.36	532823	REC_WORD	6.065	n/a	CORN	Vegetables	8	3	[0, 0, 0]	n/a	catFR1	0	R1279P
446.408	21.589	535183	REC_WORD	8.425	n/a	LETTUCE	Vegetables	2	3	[0, 0, 0]	n/a	catFR1	0	R1279P
467.997	5.526	556771	REC_END	n/a	n/a	n/a	n/a	-999	3	[0, 0, 0]	n/a	catFR1	0	R1279P
473.523	0.5	562296	TRIAL	n/a	n/a	n/a	n/a	-999	4	[0, 0, 0]	n/a	catFR1	0	R1279P
474.023	10.0	562796	COUNTDOWN_START	n/a	n/a	n/a	n/a	-999	4	[0, 0, 0]	n/a	catFR1	0	R1279P
484.451	0.008	573224	COUNTDOWN_END	n/a	n/a	n/a	n/a	-999	4	[0, 0, 0]	n/a	catFR1	0	R1279P
484.459	1.6	573232	ORIENT	n/a	n/a	n/a	n/a	-999	4	[0, 0, 0]	n/a	catFR1	0	R1279P
486.075	2.268	574848	ORIENT_OFF	n/a	n/a	n/a	n/a	-999	4	[0, 0, 0]	n/a	catFR1	0	R1279P
488.343	1.6	577115	WORD	n/a	wordpools/wordpool_categorized_EN.txt	SHOVEL	Tools	1	4	[0, 0, 0]	n/a	catFR1	0	R1279P
489.959	0.868	578731	WORD_OFF	n/a	n/a	SHOVEL	n/a	1	4	[0, 0, 0]	n/a	catFR1	0	R1279P
490.827	1.6	579599	WORD	n/a	wordpools/wordpool_categorized_EN.txt	LEVEL	Tools	2	4	[0, 0, 0]	n/a	catFR1	0	R1279P
492.444	0.833	581216	WORD_OFF	n/a	n/a	LEVEL	n/a	2	4	[0, 0, 0]	n/a	catFR1	0	R1279P
493.277	1.6	582049	WORD	n/a	wordpools/wordpool_categorized_EN.txt	VAN	Vehicles	3	4	[0, 0, 0]	n/a	catFR1	0	R1279P
494.893	0.885	583665	WORD_OFF	n/a	n/a	VAN	n/a	3	4	[0, 0, 0]	n/a	catFR1	0	R1279P
495.778	1.6	584550	WORD	n/a	wordpools/wordpool_categorized_EN.txt	PLANE	Vehicles	4	4	[0, 0, 0]	n/a	catFR1	0	R1279P
497.395	0.833	586167	WORD_OFF	n/a	n/a	PLANE	n/a	4	4	[0, 0, 0]	n/a	catFR1	0	R1279P
498.228	1.6	587000	WORD	n/a	wordpools/wordpool_categorized_EN.txt	BED	Furniture	5	4	[0, 0, 0]	n/a	catFR1	0	R1279P
499.845	0.984	588617	WORD_OFF	n/a	n/a	BED	n/a	5	4	[0, 0, 0]	n/a	catFR1	0	R1279P
500.829	1.6	589601	WORD	n/a	wordpools/wordpool_categorized_EN.txt	DRESSER	Furniture	6	4	[0, 0, 0]	n/a	catFR1	0	R1279P
502.446	0.85	591218	WORD_OFF	n/a	n/a	DRESSER	n/a	6	4	[0, 0, 0]	n/a	catFR1	0	R1279P
503.296	1.6	592068	WORD	n/a	wordpools/wordpool_categorized_EN.txt	DRILL	Tools	7	4	[0, 0, 0]	n/a	catFR1	0	R1279P
504.912	0.801	593684	WORD_OFF	n/a	n/a	DRILL	n/a	7	4	[0, 0, 0]	n/a	catFR1	0	R1279P
505.713	1.6	594485	WORD	n/a	wordpools/wordpool_categorized_EN.txt	HAMMER	Tools	8	4	[0, 0, 0]	n/a	catFR1	0	R1279P
507.33	0.984	596101	WORD_OFF	n/a	n/a	HAMMER	n/a	8	4	[0, 0, 0]	n/a	catFR1	0	R1279P
508.314	1.6	597085	WORD	n/a	wordpools/wordpool_categorized_EN.txt	CAR	Vehicles	9	4	[0, 0, 0]	n/a	catFR1	0	R1279P
509.93	0.983	598701	WORD_OFF	n/a	n/a	CAR	n/a	9	4	[0, 0, 0]	n/a	catFR1	0	R1279P
510.913	1.6	599684	WORD	n/a	wordpools/wordpool_categorized_EN.txt	TRUCK	Vehicles	10	4	[0, 0, 0]	n/a	catFR1	0	R1279P
512.531	0.834	601302	WORD_OFF	n/a	n/a	TRUCK	n/a	10	4	[0, 0, 0]	n/a	catFR1	0	R1279P
513.365	1.6	602136	WORD	n/a	wordpools/wordpool_categorized_EN.txt	BOOKCASE	Furniture	11	4	[0, 0, 0]	n/a	catFR1	0	R1279P
514.98	0.917	603751	WORD_OFF	n/a	n/a	BOOKCASE	n/a	11	4	[0, 0, 0]	n/a	catFR1	0	R1279P
515.897	1.6	604668	WORD	n/a	wordpools/wordpool_categorized_EN.txt	CHAIR	Furniture	12	4	[0, 0, 0]	n/a	catFR1	0	R1279P
517.515	0.001	606286	WORD_OFF	n/a	n/a	CHAIR	n/a	12	4	[0, 0, 0]	n/a	catFR1	0	R1279P
517.516	0.135	606287	ENCODING_END	n/a	n/a	n/a	n/a	-999	4	[0, 0, 0]	n/a	catFR1	0	R1279P
517.651	0.0	606422	DISTRACT_START	n/a	n/a	n/a	n/a	-999	4	[0, 0, 0]	n/a	catFR1	0	R1279P
517.651	0.014	606422	START	n/a	n/a	n/a	n/a	-999	4	[-999, -999, -999]	n/a	catFR1	0	R1279P
517.665	5.35	606436	PROB	5.316	n/a	n/a	n/a	-999	4	[5, 5, 6]	16.0	catFR1	0	R1279P
523.015	7.519	611786	PROB	7.495	n/a	n/a	n/a	-999	4	[5, 5, 6]	16.0	catFR1	0	R1279P
530.534	8.455	619304	PROB	8.455	n/a	n/a	n/a	-999	4	[8, 3, 6]	17.0	catFR1	0	R1279P
538.989	0.013	627759	STOP	n/a	n/a	n/a	n/a	-999	4	[-999, -999, -999]	n/a	catFR1	0	R1279P
539.002	0.701	627772	DISTRACT_END	n/a	n/a	n/a	n/a	-999	4	[0, 0, 0]	n/a	catFR1	0	R1279P
539.703	0.517	628473	RETRIEVAL_ORIENT	n/a	n/a	n/a	n/a	-999	4	[0, 0, 0]	n/a	catFR1	0	R1279P
540.22	2.49	628990	REC_START	n/a	n/a	n/a	n/a	-999	4	[0, 0, 0]	n/a	catFR1	0	R1279P
542.71	1.804	631480	REC_WORD	2.49	n/a	SHOVEL	Tools	1	4	[0, 0, 0]	n/a	catFR1	0	R1279P
544.514	5.28	633284	REC_WORD	4.294	n/a	LEVEL	Tools	2	4	[0, 0, 0]	n/a	catFR1	0	R1279P
549.794	20.439	638563	REC_WORD	9.574	n/a	GREEN	n/a	-999	4	[0, 0, 0]	n/a	catFR1	0	R1279P
570.233	9.877	659001	REC_END	n/a	n/a	n/a	n/a	-999	4	[0, 0, 0]	n/a	catFR1	0	R1279P
580.11	0.5	668878	TRIAL	n/a	n/a	n/a	n/a	-999	5	[0, 0, 0]	n/a	catFR1	0	R1279P
580.61	10.0	669378	COUNTDOWN_START	n/a	n/a	n/a	n/a	-999	5	[0, 0, 0]	n/a	catFR1	0	R1279P
591.038	0.007	679805	COUNTDOWN_END	n/a	n/a	n/a	n/a	-999	5	[0, 0, 0]	n/a	catFR1	0	R1279P
591.045	1.6	679812	ORIENT	n/a	n/a	n/a	n/a	-999	5	[0, 0, 0]	n/a	catFR1	0	R1279P
592.663	1.933	681430	ORIENT_OFF	n/a	n/a	n/a	n/a	-999	5	[0, 0, 0]	n/a	catFR1	0	R1279P
594.596	1.6	683363	WORD	n/a	wordpools/wordpool_categorized_EN.txt	PEACH	Fruit	1	5	[0, 0, 0]	n/a	catFR1	0	R1279P
596.213	0.816	684980	WORD_OFF	n/a	n/a	PEACH	n/a	1	5	[0, 0, 0]	n/a	catFR1	0	R1279P
597.029	1.6	685796	WORD	n/a	wordpools/wordpool_categorized_EN.txt	ORANGE	Fruit	2	5	[0, 0, 0]	n/a	catFR1	0	R1279P
598.647	0.917	687414	WORD_OFF	n/a	n/a	ORANGE	n/a	2	5	[0, 0, 0]	n/a	catFR1	0	R1279P
599.564	1.6	688331	WORD	n/a	wordpools/wordpool_categorized_EN.txt	PASTRY	Desserts	3	5	[0, 0, 0]	n/a	catFR1	0	R1279P
601.18	0.884	689947	WORD_OFF	n/a	n/a	PASTRY	n/a	3	5	[0, 0, 0]	n/a	catFR1	0	R1279P
602.064	1.6	690830	WORD	n/a	wordpools/wordpool_categorized_EN.txt	CAKE	Desserts	4	5	[0, 0, 0]	n/a	catFR1	0	R1279P
603.681	0.834	692447	WORD_OFF	n/a	n/a	CAKE	n/a	4	5	[0, 0, 0]	n/a	catFR1	0	R1279P
604.515	1.6	693281	WORD	n/a	wordpools/wordpool_categorized_EN.txt	CUCUMBER	Vegetables	5	5	[0, 0, 0]	n/a	catFR1	0	R1279P
606.131	0.95	694897	WORD_OFF	n/a	n/a	CUCUMBER	n/a	5	5	[0, 0, 0]	n/a	catFR1	0	R1279P
607.081	1.6	695847	WORD	n/a	wordpools/wordpool_categorized_EN.txt	CABBAGE	Vegetables	6	5	[0, 0, 0]	n/a	catFR1	0	R1279P
608.699	0.9	697465	WORD_OFF	n/a	n/a	CABBAGE	n/a	6	5	[0, 0, 0]	n/a	catFR1	0	R1279P
609.599	1.6	698365	WORD	n/a	wordpools/wordpool_categorized_EN.txt	CUPCAKE	Desserts	7	5	[0, 0, 0]	n/a	catFR1	0	R1279P
611.216	0.899	699982	WORD_OFF	n/a	n/a	CUPCAKE	n/a	7	5	[0, 0, 0]	n/a	catFR1	0	R1279P
612.115	1.6	700881	WORD	n/a	wordpools/wordpool_categorized_EN.txt	JELLO	Desserts	8	5	[0, 0, 0]	n/a	catFR1	0	R1279P
613.733	0.834	702499	WORD_OFF	n/a	n/a	JELLO	n/a	8	5	[0, 0, 0]	n/a	catFR1	0	R1279P
614.567	1.6	703333	WORD	n/a	wordpools/wordpool_categorized_EN.txt	PEAR	Fruit	9	5	[0, 0, 0]	n/a	catFR1	0	R1279P
616.183	0.817	704949	WORD_OFF	n/a	n/a	PEAR	n/a	9	5	[0, 0, 0]	n/a	catFR1	0	R1279P
617.0	1.6	705766	WORD	n/a	wordpools/wordpool_categorized_EN.txt	APPLE	Fruit	10	5	[0, 0, 0]	n/a	catFR1	0	R1279P
618.618	0.983	707384	WORD_OFF	n/a	n/a	APPLE	n/a	10	5	[0, 0, 0]	n/a	catFR1	0	R1279P
619.601	1.6	708367	WORD	n/a	wordpools/wordpool_categorized_EN.txt	CARROT	Vegetables	11	5	[0, 0, 0]	n/a	catFR1	0	R1279P
621.218	0.816	709983	WORD_OFF	n/a	n/a	CARROT	n/a	11	5	[0, 0, 0]	n/a	catFR1	0	R1279P
622.034	1.6	710799	WORD	n/a	wordpools/wordpool_categorized_EN.txt	POTATO	Vegetables	12	5	[0, 0, 0]	n/a	catFR1	0	R1279P
623.652	0.0	712417	ENCODING_END	n/a	n/a	n/a	n/a	-999	5	[0, 0, 0]	n/a	catFR1	0	R1279P
623.652	0.105	712417	WORD_OFF	n/a	n/a	POTATO	n/a	12	5	[0, 0, 0]	n/a	catFR1	0	R1279P
623.757	0.0	712522	DISTRACT_START	n/a	n/a	n/a	n/a	-999	5	[0, 0, 0]	n/a	catFR1	0	R1279P
623.757	0.012	712522	START	n/a	n/a	n/a	n/a	-999	5	[-999, -999, -999]	n/a	catFR1	0	R1279P
623.769	5.084	712534	PROB	5.045	n/a	n/a	n/a	-999	5	[1, 5, 6]	12.0	catFR1	0	R1279P
628.853	6.317	717618	PROB	6.28	n/a	n/a	n/a	-999	5	[5, 9, 7]	21.0	catFR1	0	R1279P
635.17	6.169	723935	PROB	6.139	n/a	n/a	n/a	-999	5	[9, 2, 4]	15.0	catFR1	0	R1279P
641.339	8.339	730103	PROB	8.339	n/a	n/a	n/a	-999	5	[7, 1, 9]	17.0	catFR1	0	R1279P
649.678	0.012	738442	STOP	n/a	n/a	n/a	n/a	-999	5	[-999, -999, -999]	n/a	catFR1	0	R1279P
649.69	0.6	738454	DISTRACT_END	n/a	n/a	n/a	n/a	-999	5	[0, 0, 0]	n/a	catFR1	0	R1279P
650.29	0.518	739054	RETRIEVAL_ORIENT	n/a	n/a	n/a	n/a	-999	5	[0, 0, 0]	n/a	catFR1	0	R1279P
650.808	1.604	739572	REC_START	n/a	n/a	n/a	n/a	-999	5	[0, 0, 0]	n/a	catFR1	0	R1279P
652.412	1.45	741176	REC_WORD	1.604	n/a	PEACH	Fruit	1	5	[0, 0, 0]	n/a	catFR1	0	R1279P
653.862	2.13	742626	REC_WORD	3.054	n/a	CUCUMBER	Vegetables	5	5	[0, 0, 0]	n/a	catFR1	0	R1279P
655.992	24.826	744756	REC_WORD	5.184	n/a	ORANGE	Fruit	2	5	[0, 0, 0]	n/a	catFR1	0	R1279P
680.818	7.963	769580	REC_END	n/a	n/a	n/a	n/a	-999	5	[0, 0, 0]	n/a	catFR1	0	R1279P
688.781	0.5	777543	TRIAL	n/a	n/a	n/a	n/a	-999	6	[0, 0, 0]	n/a	catFR1	0	R1279P
689.281	10.0	778043	COUNTDOWN_START	n/a	n/a	n/a	n/a	-999	6	[0, 0, 0]	n/a	catFR1	0	R1279P
699.709	0.007	788470	COUNTDOWN_END	n/a	n/a	n/a	n/a	-999	6	[0, 0, 0]	n/a	catFR1	0	R1279P
699.716	1.6	788477	ORIENT	n/a	n/a	n/a	n/a	-999	6	[0, 0, 0]	n/a	catFR1	0	R1279P
701.333	2.117	790094	ORIENT_OFF	n/a	n/a	n/a	n/a	-999	6	[0, 0, 0]	n/a	catFR1	0	R1279P
703.45	1.6	792211	WORD	n/a	wordpools/wordpool_categorized_EN.txt	BUS	Vehicles	1	6	[0, 0, 0]	n/a	catFR1	0	R1279P
705.066	0.867	793827	WORD_OFF	n/a	n/a	BUS	n/a	1	6	[0, 0, 0]	n/a	catFR1	0	R1279P
705.933	1.6	794694	WORD	n/a	wordpools/wordpool_categorized_EN.txt	MOPED	Vehicles	2	6	[0, 0, 0]	n/a	catFR1	0	R1279P
707.551	0.784	796312	WORD_OFF	n/a	n/a	MOPED	n/a	2	6	[0, 0, 0]	n/a	catFR1	0	R1279P
708.335	1.6	797096	WORD	n/a	wordpools/wordpool_categorized_EN.txt	MOTH	Insects	3	6	[0, 0, 0]	n/a	catFR1	0	R1279P
709.951	0.901	798712	WORD_OFF	n/a	n/a	MOTH	n/a	3	6	[0, 0, 0]	n/a	catFR1	0	R1279P
710.852	1.6	799613	WORD	n/a	wordpools/wordpool_categorized_EN.txt	MOSQUITO	Insects	4	6	[0, 0, 0]	n/a	catFR1	0	R1279P
712.469	0.766	801230	WORD_OFF	n/a	n/a	MOSQUITO	n/a	4	6	[0, 0, 0]	n/a	catFR1	0	R1279P
713.235	1.6	801996	WORD	n/a	wordpools/wordpool_categorized_EN.txt	GRAPE	Fruit	5	6	[0, 0, 0]	n/a	catFR1	0	R1279P
714.852	0.917	803613	WORD_OFF	n/a	n/a	GRAPE	n/a	5	6	[0, 0, 0]	n/a	catFR1	0	R1279P
715.769	1.6	804530	WORD	n/a	wordpools/wordpool_categorized_EN.txt	BANANA	Fruit	6	6	[0, 0, 0]	n/a	catFR1	0	R1279P
717.386	0.799	806146	WORD_OFF	n/a	n/a	BANANA	n/a	6	6	[0, 0, 0]	n/a	catFR1	0	R1279P
718.185	1.6	806945	WORD	n/a	wordpools/wordpool_categorized_EN.txt	GNAT	Insects	7	6	[0, 0, 0]	n/a	catFR1	0	R1279P
719.787	0.817	808547	WORD_OFF	n/a	n/a	GNAT	n/a	7	6	[0, 0, 0]	n/a	catFR1	0	R1279P
720.604	1.6	809364	WORD	n/a	wordpools/wordpool_categorized_EN.txt	ROACH	Insects	8	6	[0, 0, 0]	n/a	catFR1	0	R1279P
722.22	0.984	810980	WORD_OFF	n/a	n/a	ROACH	n/a	8	6	[0, 0, 0]	n/a	catFR1	0	R1279P
723.204	1.6	811964	WORD	n/a	wordpools/wordpool_categorized_EN.txt	SCOOTER	Vehicles	9	6	[0, 0, 0]	n/a	catFR1	0	R1279P
724.821	0.817	813581	WORD_OFF	n/a	n/a	SCOOTER	n/a	9	6	[0, 0, 0]	n/a	catFR1	0	R1279P
725.638	1.6	814398	WORD	n/a	wordpools/wordpool_categorized_EN.txt	BIKE	Vehicles	10	6	[0, 0, 0]	n/a	catFR1	0	R1279P
727.255	0.983	816015	WORD_OFF	n/a	n/a	BIKE	n/a	10	6	[0, 0, 0]	n/a	catFR1	0	R1279P
728.238	1.6	816998	WORD	n/a	wordpools/wordpool_categorized_EN.txt	BLUEBERRY	Fruit	11	6	[0, 0, 0]	n/a	catFR1	0	R1279P
729.839	0.833	818599	WORD_OFF	n/a	n/a	BLUEBERRY	n/a	11	6	[0, 0, 0]	n/a	catFR1	0	R1279P
730.672	1.6	819432	WORD	n/a	wordpools/wordpool_categorized_EN.txt	LIME	Fruit	12	6	[0, 0, 0]	n/a	catFR1	0	R1279P
732.289	0.0	821049	WORD_OFF	n/a	n/a	LIME	n/a	12	6	[0, 0, 0]	n/a	catFR1	0	R1279P
732.289	0.105	821049	ENCODING_END	n/a	n/a	n/a	n/a	-999	6	[0, 0, 0]	n/a	catFR1	0	R1279P
732.394	0.0	821154	DISTRACT_START	n/a	n/a	n/a	n/a	-999	6	[0, 0, 0]	n/a	catFR1	0	R1279P
732.394	0.012	821154	START	n/a	n/a	n/a	n/a	-999	6	[-999, -999, -999]	n/a	catFR1	0	R1279P
732.406	8.135	821166	PROB	8.111	n/a	n/a	n/a	-999	6	[9, 8, 3]	20.0	catFR1	0	R1279P
740.541	5.917	829300	PROB	5.888	n/a	n/a	n/a	-999	6	[5, 3, 6]	14.0	catFR1	0	R1279P
746.458	5.517	835217	PROB	5.492	n/a	n/a	n/a	-999	6	[8, 4, 2]	14.0	catFR1	0	R1279P
751.975	6.255	840734	PROB	6.255	n/a	n/a	n/a	-999	6	[5, 7, 2]	14.0	catFR1	0	R1279P
758.23	0.014	846988	STOP	n/a	n/a	n/a	n/a	-999	6	[-999, -999, -999]	n/a	catFR1	0	R1279P
758.244	0.583	847002	DISTRACT_END	n/a	n/a	n/a	n/a	-999	6	[0, 0, 0]	n/a	catFR1	0	R1279P
758.827	0.518	847585	RETRIEVAL_ORIENT	n/a	n/a	n/a	n/a	-999	6	[0, 0, 0]	n/a	catFR1	0	R1279P
759.345	2.98	848103	REC_START	n/a	n/a	n/a	n/a	-999	6	[0, 0, 0]	n/a	catFR1	0	R1279P
762.325	1.925	851083	REC_WORD	2.98	n/a	BUS	Vehicles	1	6	[0, 0, 0]	n/a	catFR1	0	R1279P
764.25	2.49	853008	REC_WORD	4.905	n/a	MOSQUITO	Insects	4	6	[0, 0, 0]	n/a	catFR1	0	R1279P
766.74	22.617	855498	REC_WORD	7.395	n/a	BANANA	Fruit	6	6	[0, 0, 0]	n/a	catFR1	0	R1279P
789.357	5.676	878114	REC_END	n/a	n/a	n/a	n/a	-999	6	[0, 0, 0]	n/a	catFR1	0	R1279P
795.033	0.5	883789	TRIAL	n/a	n/a	n/a	n/a	-999	7	[0, 0, 0]	n/a	catFR1	0	R1279P
795.533	10.0	884289	COUNTDOWN_START	n/a	n/a	n/a	n/a	-999	7	[0, 0, 0]	n/a	catFR1	0	R1279P
805.961	0.008	894717	COUNTDOWN_END	n/a	n/a	n/a	n/a	-999	7	[0, 0, 0]	n/a	catFR1	0	R1279P
805.969	1.6	894725	ORIENT	n/a	n/a	n/a	n/a	-999	7	[0, 0, 0]	n/a	catFR1	0	R1279P
807.587	2.0	896343	ORIENT_OFF	n/a	n/a	n/a	n/a	-999	7	[0, 0, 0]	n/a	catFR1	0	R1279P
809.587	1.6	898343	WORD	n/a	wordpools/wordpool_categorized_EN.txt	RUM	Beverages	1	7	[0, 0, 0]	n/a	catFR1	0	R1279P
811.204	0.949	899960	WORD_OFF	n/a	n/a	RUM	n/a	1	7	[0, 0, 0]	n/a	catFR1	0	R1279P
812.153	1.6	900908	WORD	n/a	wordpools/wordpool_categorized_EN.txt	SODA	Beverages	2	7	[0, 0, 0]	n/a	catFR1	0	R1279P
813.754	0.951	902509	WORD_OFF	n/a	n/a	SODA	n/a	2	7	[0, 0, 0]	n/a	catFR1	0	R1279P
814.705	1.6	903460	WORD	n/a	wordpools/wordpool_categorized_EN.txt	TULIP	Flowers	3	7	[0, 0, 0]	n/a	catFR1	0	R1279P
816.322	0.765	905077	WORD_OFF	n/a	n/a	TULIP	n/a	3	7	[0, 0, 0]	n/a	catFR1	0	R1279P
817.087	1.6	905842	WORD	n/a	wordpools/wordpool_categorized_EN.txt	LILY	Flowers	4	7	[0, 0, 0]	n/a	catFR1	0	R1279P
818.705	0.784	907460	WORD_OFF	n/a	n/a	LILY	n/a	4	7	[0, 0, 0]	n/a	catFR1	0	R1279P
819.489	1.6	908244	WORD	n/a	wordpools/wordpool_categorized_EN.txt	SPIDER	Insects	5	7	[0, 0, 0]	n/a	catFR1	0	R1279P
821.105	0.883	909860	WORD_OFF	n/a	n/a	SPIDER	n/a	5	7	[0, 0, 0]	n/a	catFR1	0	R1279P
821.988	1.6	910743	WORD	n/a	wordpools/wordpool_categorized_EN.txt	LADYBUG	Insects	6	7	[0, 0, 0]	n/a	catFR1	0	R1279P
823.589	0.801	912344	WORD_OFF	n/a	n/a	LADYBUG	n/a	6	7	[0, 0, 0]	n/a	catFR1	0	R1279P
824.39	1.6	913145	WORD	n/a	wordpools/wordpool_categorized_EN.txt	JUICE	Beverages	7	7	[0, 0, 0]	n/a	catFR1	0	R1279P
826.006	0.801	914761	WORD_OFF	n/a	n/a	JUICE	n/a	7	7	[0, 0, 0]	n/a	catFR1	0	R1279P
826.807	1.6	915562	WORD	n/a	wordpools/wordpool_categorized_EN.txt	MILK	Beverages	8	7	[0, 0, 0]	n/a	catFR1	0	R1279P
828.424	0.917	917179	WORD_OFF	n/a	n/a	MILK	n/a	8	7	[0, 0, 0]	n/a	catFR1	0	R1279P
829.341	1.6	918096	WORD	n/a	wordpools/wordpool_categorized_EN.txt	DAISY	Flowers	9	7	[0, 0, 0]	n/a	catFR1	0	R1279P
830.957	0.966	919712	WORD_OFF	n/a	n/a	DAISY	n/a	9	7	[0, 0, 0]	n/a	catFR1	0	R1279P
831.923	1.6	920677	WORD	n/a	wordpools/wordpool_categorized_EN.txt	LILAC	Flowers	10	7	[0, 0, 0]	n/a	catFR1	0	R1279P
833.525	0.983	922279	WORD_OFF	n/a	n/a	LILAC	n/a	10	7	[0, 0, 0]	n/a	catFR1	0	R1279P
834.508	1.6	923262	WORD	n/a	wordpools/wordpool_categorized_EN.txt	CRICKET	Insects	11	7	[0, 0, 0]	n/a	catFR1	0	R1279P
836.124	1.017	924878	WORD_OFF	n/a	n/a	CRICKET	n/a	11	7	[0, 0, 0]	n/a	catFR1	0	R1279P
837.141	1.6	925895	WORD	n/a	wordpools/wordpool_categorized_EN.txt	ANT	Insects	12	7	[0, 0, 0]	n/a	catFR1	0	R1279P
838.759	0.0	927513	ENCODING_END	n/a	n/a	n/a	n/a	-999	7	[0, 0, 0]	n/a	catFR1	0	R1279P
838.759	0.138	927513	WORD_OFF	n/a	n/a	ANT	n/a	12	7	[0, 0, 0]	n/a	catFR1	0	R1279P
838.897	0.0	927651	DISTRACT_START	n/a	n/a	n/a	n/a	-999	7	[0, 0, 0]	n/a	catFR1	0	R1279P
838.897	0.011	927651	START	n/a	n/a	n/a	n/a	-999	7	[-999, -999, -999]	n/a	catFR1	0	R1279P
838.908	6.686	927662	PROB	6.658	n/a	n/a	n/a	-999	7	[9, 2, 5]	16.0	catFR1	0	R1279P
845.594	4.967	934348	PROB	4.932	n/a	n/a	n/a	-999	7	[1, 8, 8]	17.0	catFR1	0	R1279P
850.561	6.617	939314	PROB	6.579	n/a	n/a	n/a	-999	7	[7, 1, 6]	16.0	catFR1	0	R1279P
857.178	4.907	945931	PROB	4.907	n/a	n/a	n/a	-999	7	[8, 2, 3]	13.0	catFR1	0	R1279P
862.085	0.011	950838	STOP	n/a	n/a	n/a	n/a	-999	7	[-999, -999, -999]	n/a	catFR1	0	R1279P
862.096	0.651	950849	DISTRACT_END	n/a	n/a	n/a	n/a	-999	7	[0, 0, 0]	n/a	catFR1	0	R1279P
862.747	0.517	951500	RETRIEVAL_ORIENT	n/a	n/a	n/a	n/a	-999	7	[0, 0, 0]	n/a	catFR1	0	R1279P
863.264	3.55	952017	REC_START	n/a	n/a	n/a	n/a	-999	7	[0, 0, 0]	n/a	catFR1	0	R1279P
866.814	2.085	955567	REC_WORD	3.55	n/a	MOSQUITO	n/a	-999	7	[0, 0, 0]	n/a	catFR1	0	R1279P
868.899	4.485	957652	REC_WORD	5.635	n/a	ANT	Insects	12	7	[0, 0, 0]	n/a	catFR1	0	R1279P
873.384	19.894	962136	REC_WORD	10.12	n/a	BISCUIT	n/a	-999	7	[0, 0, 0]	n/a	catFR1	0	R1279P
893.278	5.326	982029	REC_END	n/a	n/a	n/a	n/a	-999	7	[0, 0, 0]	n/a	catFR1	0	R1279P
898.604	0.5	987355	TRIAL	n/a	n/a	n/a	n/a	-999	8	[0, 0, 0]	n/a	catFR1	0	R1279P
899.104	10.0	987855	COUNTDOWN_START	n/a	n/a	n/a	n/a	-999	8	[0, 0, 0]	n/a	catFR1	0	R1279P
909.532	0.007	998282	COUNTDOWN_END	n/a	n/a	n/a	n/a	-999	8	[0, 0, 0]	n/a	catFR1	0	R1279P
909.539	1.6	998289	ORIENT	n/a	n/a	n/a	n/a	-999	8	[0, 0, 0]	n/a	catFR1	0	R1279P
911.155	2.034	999905	ORIENT_OFF	n/a	n/a	n/a	n/a	-999	8	[0, 0, 0]	n/a	catFR1	0	R1279P
913.189	1.6	1001939	WORD	n/a	wordpools/wordpool_categorized_EN.txt	RULER	OfficeSupplies	1	8	[0, 0, 0]	n/a	catFR1	0	R1279P
914.807	0.85	1003557	WORD_OFF	n/a	n/a	RULER	n/a	1	8	[0, 0, 0]	n/a	catFR1	0	R1279P
915.657	1.6	1004407	WORD	n/a	wordpools/wordpool_categorized_EN.txt	STAPLER	OfficeSupplies	2	8	[0, 0, 0]	n/a	catFR1	0	R1279P
917.274	0.882	1006024	WORD_OFF	n/a	n/a	STAPLER	n/a	2	8	[0, 0, 0]	n/a	catFR1	0	R1279P
918.156	1.6	1006906	WORD	n/a	wordpools/wordpool_categorized_EN.txt	NIGHTSTAND	Furniture	3	8	[0, 0, 0]	n/a	catFR1	0	R1279P
919.774	0.784	1008524	WORD_OFF	n/a	n/a	NIGHTSTAND	n/a	3	8	[0, 0, 0]	n/a	catFR1	0	R1279P
920.558	1.6	1009308	WORD	n/a	wordpools/wordpool_categorized_EN.txt	CABINET	Furniture	4	8	[0, 0, 0]	n/a	catFR1	0	R1279P
922.174	0.917	1010924	WORD_OFF	n/a	n/a	CABINET	n/a	4	8	[0, 0, 0]	n/a	catFR1	0	R1279P
923.091	1.6	1011841	WORD	n/a	wordpools/wordpool_categorized_EN.txt	TONGS	KitchenTools	5	8	[0, 0, 0]	n/a	catFR1	0	R1279P
924.709	0.783	1013459	WORD_OFF	n/a	n/a	TONGS	n/a	5	8	[0, 0, 0]	n/a	catFR1	0	R1279P
925.492	1.6	1014242	WORD	n/a	wordpools/wordpool_categorized_EN.txt	FORK	KitchenTools	6	8	[0, 0, 0]	n/a	catFR1	0	R1279P
927.108	1.0	1015857	WORD_OFF	n/a	n/a	FORK	n/a	6	8	[0, 0, 0]	n/a	catFR1	0	R1279P
928.108	1.6	1016857	WORD	n/a	wordpools/wordpool_categorized_EN.txt	FOLDER	OfficeSupplies	7	8	[0, 0, 0]	n/a	catFR1	0	R1279P
929.709	0.934	1018458	WORD_OFF	n/a	n/a	FOLDER	n/a	7	8	[0, 0, 0]	n/a	catFR1	0	R1279P
930.643	1.6	1019392	WORD	n/a	wordpools/wordpool_categorized_EN.txt	MARKER	OfficeSupplies	8	8	[0, 0, 0]	n/a	catFR1	0	R1279P
932.26	1.0	1021009	WORD_OFF	n/a	n/a	MARKER	n/a	8	8	[0, 0, 0]	n/a	catFR1	0	R1279P
933.26	1.6	1022009	WORD	n/a	wordpools/wordpool_categorized_EN.txt	RECLINER	Furniture	9	8	[0, 0, 0]	n/a	catFR1	0	R1279P
934.877	0.8	1023626	WORD_OFF	n/a	n/a	RECLINER	n/a	9	8	[0, 0, 0]	n/a	catFR1	0	R1279P
935.677	1.6	1024426	WORD	n/a	wordpools/wordpool_categorized_EN.txt	TABLE	Furniture	10	8	[0, 0, 0]	n/a	catFR1	0	R1279P
937.294	0.984	1026043	WORD_OFF	n/a	n/a	TABLE	n/a	10	8	[0, 0, 0]	n/a	catFR1	0	R1279P
938.278	1.6	1027027	WORD	n/a	wordpools/wordpool_categorized_EN.txt	KNIFE	KitchenTools	11	8	[0, 0, 0]	n/a	catFR1	0	R1279P
939.894	0.834	1028643	WORD_OFF	n/a	n/a	KNIFE	n/a	11	8	[0, 0, 0]	n/a	catFR1	0	R1279P
940.728	1.6	1029477	WORD	n/a	wordpools/wordpool_categorized_EN.txt	SPATULA	KitchenTools	12	8	[0, 0, 0]	n/a	catFR1	0	R1279P
942.345	0.0	1031094	ENCODING_END	n/a	n/a	n/a	n/a	-999	8	[0, 0, 0]	n/a	catFR1	0	R1279P
942.345	0.106	1031094	WORD_OFF	n/a	n/a	SPATULA	n/a	12	8	[0, 0, 0]	n/a	catFR1	0	R1279P
942.451	0.0	1031200	DISTRACT_START	n/a	n/a	n/a	n/a	-999	8	[0, 0, 0]	n/a	catFR1	0	R1279P
942.451	0.011	1031200	START	n/a	n/a	n/a	n/a	-999	8	[-999, -999, -999]	n/a	catFR1	0	R1279P
942.462	5.151	1031211	PROB	5.12	n/a	n/a	n/a	-999	8	[8, 3, 3]	14.0	catFR1	0	R1279P
947.613	10.351	1036361	PROB	10.327	n/a	n/a	n/a	-999	8	[9, 6, 7]	23.0	catFR1	0	R1279P
957.964	4.834	1046712	PROB	4.834	n/a	n/a	n/a	-999	8	[8, 8, 1]	17.0	catFR1	0	R1279P
962.798	0.018	1051546	STOP	n/a	n/a	n/a	n/a	-999	8	[-999, -999, -999]	n/a	catFR1	0	R1279P
962.816	0.683	1051564	DISTRACT_END	n/a	n/a	n/a	n/a	-999	8	[0, 0, 0]	n/a	catFR1	0	R1279P
963.499	0.517	1052247	RETRIEVAL_ORIENT	n/a	n/a	n/a	n/a	-999	8	[0, 0, 0]	n/a	catFR1	0	R1279P
964.016	1.975	1052764	REC_START	n/a	n/a	n/a	n/a	-999	8	[0, 0, 0]	n/a	catFR1	0	R1279P
965.991	1.744	1054738	REC_WORD	1.975	n/a	RULER	OfficeSupplies	1	8	[0, 0, 0]	n/a	catFR1	0	R1279P
967.735	26.292	1056482	REC_WORD	3.719	n/a	STAPLER	OfficeSupplies	2	8	[0, 0, 0]	n/a	catFR1	0	R1279P
994.027	5.679	1082773	REC_END	n/a	n/a	n/a	n/a	-999	8	[0, 0, 0]	n/a	catFR1	0	R1279P
999.706	0.5	1088452	TRIAL	n/a	n/a	n/a	n/a	-999	9	[0, 0, 0]	n/a	catFR1	0	R1279P
1000.206	10.0	1088952	COUNTDOWN_START	n/a	n/a	n/a	n/a	-999	9	[0, 0, 0]	n/a	catFR1	0	R1279P
1010.634	0.007	1099379	COUNTDOWN_END	n/a	n/a	n/a	n/a	-999	9	[0, 0, 0]	n/a	catFR1	0	R1279P
1010.641	1.6	1099386	ORIENT	n/a	n/a	n/a	n/a	-999	9	[0, 0, 0]	n/a	catFR1	0	R1279P
1012.258	2.184	1101003	ORIENT_OFF	n/a	n/a	n/a	n/a	-999	9	[0, 0, 0]	n/a	catFR1	0	R1279P
1014.442	1.6	1103187	WORD	n/a	wordpools/wordpool_categorized_EN.txt	FLY	Insects	1	9	[0, 0, 0]	n/a	catFR1	0	R1279P
1016.058	0.95	1104803	WORD_OFF	n/a	n/a	FLY	n/a	1	9	[0, 0, 0]	n/a	catFR1	0	R1279P
1017.008	1.6	1105753	WORD	n/a	wordpools/wordpool_categorized_EN.txt	BEE	Insects	2	9	[0, 0, 0]	n/a	catFR1	0	R1279P
1018.609	0.951	1107354	WORD_OFF	n/a	n/a	BEE	n/a	2	9	[0, 0, 0]	n/a	catFR1	0	R1279P
1019.56	1.6	1108305	WORD	n/a	wordpools/wordpool_categorized_EN.txt	PANDA	Zoo	3	9	[0, 0, 0]	n/a	catFR1	0	R1279P
1021.176	0.933	1109921	WORD_OFF	n/a	n/a	PANDA	n/a	3	9	[0, 0, 0]	n/a	catFR1	0	R1279P
1022.109	1.6	1110853	WORD	n/a	wordpools/wordpool_categorized_EN.txt	LION	Zoo	4	9	[0, 0, 0]	n/a	catFR1	0	R1279P
1023.727	0.934	1112471	WORD_OFF	n/a	n/a	LION	n/a	4	9	[0, 0, 0]	n/a	catFR1	0	R1279P
1024.661	1.6	1113405	WORD	n/a	wordpools/wordpool_categorized_EN.txt	FRISBEE	Toys	5	9	[0, 0, 0]	n/a	catFR1	0	R1279P
1026.278	0.967	1115022	WORD_OFF	n/a	n/a	FRISBEE	n/a	5	9	[0, 0, 0]	n/a	catFR1	0	R1279P
1027.245	1.6	1115989	WORD	n/a	wordpools/wordpool_categorized_EN.txt	SLINKY	Toys	6	9	[0, 0, 0]	n/a	catFR1	0	R1279P
1028.862	0.866	1117606	WORD_OFF	n/a	n/a	SLINKY	n/a	6	9	[0, 0, 0]	n/a	catFR1	0	R1279P
1029.728	1.6	1118472	WORD	n/a	wordpools/wordpool_categorized_EN.txt	BEETLE	Insects	7	9	[0, 0, 0]	n/a	catFR1	0	R1279P
1031.345	0.783	1120089	WORD_OFF	n/a	n/a	BEETLE	n/a	7	9	[0, 0, 0]	n/a	catFR1	0	R1279P
1032.128	1.6	1120872	WORD	n/a	wordpools/wordpool_categorized_EN.txt	BUTTERFLY	Insects	8	9	[0, 0, 0]	n/a	catFR1	0	R1279P
1033.746	0.917	1122490	WORD_OFF	n/a	n/a	BUTTERFLY	n/a	8	9	[0, 0, 0]	n/a	catFR1	0	R1279P
1034.663	1.6	1123407	WORD	n/a	wordpools/wordpool_categorized_EN.txt	MONKEY	Zoo	9	9	[0, 0, 0]	n/a	catFR1	0	R1279P
1036.28	0.765	1125024	WORD_OFF	n/a	n/a	MONKEY	n/a	9	9	[0, 0, 0]	n/a	catFR1	0	R1279P
1037.045	1.6	1125789	WORD	n/a	wordpools/wordpool_categorized_EN.txt	CHEETAH	Zoo	10	9	[0, 0, 0]	n/a	catFR1	0	R1279P
1038.646	0.918	1127390	WORD_OFF	n/a	n/a	CHEETAH	n/a	10	9	[0, 0, 0]	n/a	catFR1	0	R1279P
1039.564	1.6	1128308	WORD	n/a	wordpools/wordpool_categorized_EN.txt	PUZZLE	Toys	11	9	[0, 0, 0]	n/a	catFR1	0	R1279P
1041.18	0.95	1129923	WORD_OFF	n/a	n/a	PUZZLE	n/a	11	9	[0, 0, 0]	n/a	catFR1	0	R1279P
1042.13	1.6	1130873	WORD	n/a	wordpools/wordpool_categorized_EN.txt	BALL	Toys	12	9	[0, 0, 0]	n/a	catFR1	0	R1279P
1043.748	0.0	1132491	ENCODING_END	n/a	n/a	n/a	n/a	-999	9	[0, 0, 0]	n/a	catFR1	0	R1279P
1043.748	0.139	1132491	WORD_OFF	n/a	n/a	BALL	n/a	12	9	[0, 0, 0]	n/a	catFR1	0	R1279P
1043.887	0.0	1132630	DISTRACT_START	n/a	n/a	n/a	n/a	-999	9	[0, 0, 0]	n/a	catFR1	0	R1279P
1043.887	0.01	1132630	START	n/a	n/a	n/a	n/a	-999	9	[-999, -999, -999]	n/a	catFR1	0	R1279P
1043.897	8.168	1132640	PROB	8.14	n/a	n/a	n/a	-999	9	[5, 1, 9]	15.0	catFR1	0	R1279P
1052.065	4.535	1140808	PROB	4.502	n/a	n/a	n/a	-999	9	[7, 3, 4]	14.0	catFR1	0	R1279P
1056.6	6.317	1145343	PROB	6.284	n/a	n/a	n/a	-999	9	[5, 3, 4]	12.0	catFR1	0	R1279P
1062.917	8.16	1151659	PROB	8.16	n/a	n/a	n/a	-999	9	[8, 6, 7]	21.0	catFR1	0	R1279P
1071.077	0.009	1159819	STOP	n/a	n/a	n/a	n/a	-999	9	[-999, -999, -999]	n/a	catFR1	0	R1279P
1071.086	0.55	1159828	DISTRACT_END	n/a	n/a	n/a	n/a	-999	9	[0, 0, 0]	n/a	catFR1	0	R1279P
1071.636	0.517	1160378	RETRIEVAL_ORIENT	n/a	n/a	n/a	n/a	-999	9	[0, 0, 0]	n/a	catFR1	0	R1279P
1072.153	1.968	1160895	REC_START	n/a	n/a	n/a	n/a	-999	9	[0, 0, 0]	n/a	catFR1	0	R1279P
1074.121	2.0	1162863	REC_WORD	1.968	n/a	FLY	Insects	1	9	[0, 0, 0]	n/a	catFR1	0	R1279P
1076.121	2.41	1164863	REC_WORD	3.968	n/a	BANANA	n/a	-999	9	[0, 0, 0]	n/a	catFR1	0	R1279P
1078.531	23.633	1167273	REC_WORD	6.378	n/a	BEE	Insects	2	9	[0, 0, 0]	n/a	catFR1	0	R1279P
1102.164	5.296	1190904	REC_END	n/a	n/a	n/a	n/a	-999	9	[0, 0, 0]	n/a	catFR1	0	R1279P
1107.46	0.5	1196200	TRIAL	n/a	n/a	n/a	n/a	-999	10	[0, 0, 0]	n/a	catFR1	0	R1279P
1107.96	10.0	1196700	COUNTDOWN_START	n/a	n/a	n/a	n/a	-999	10	[0, 0, 0]	n/a	catFR1	0	R1279P
1118.388	0.007	1207127	COUNTDOWN_END	n/a	n/a	n/a	n/a	-999	10	[0, 0, 0]	n/a	catFR1	0	R1279P
1118.395	1.6	1207134	ORIENT	n/a	n/a	n/a	n/a	-999	10	[0, 0, 0]	n/a	catFR1	0	R1279P
1120.011	2.167	1208750	ORIENT_OFF	n/a	n/a	n/a	n/a	-999	10	[0, 0, 0]	n/a	catFR1	0	R1279P
1122.178	1.6	1210917	WORD	n/a	wordpools/wordpool_categorized_EN.txt	LEG	BodyParts	1	10	[0, 0, 0]	n/a	catFR1	0	R1279P
1123.796	0.834	1212535	WORD_OFF	n/a	n/a	LEG	n/a	1	10	[0, 0, 0]	n/a	catFR1	0	R1279P
1124.63	1.6	1213369	WORD	n/a	wordpools/wordpool_categorized_EN.txt	ELBOW	BodyParts	2	10	[0, 0, 0]	n/a	catFR1	0	R1279P
1126.247	0.932	1214986	WORD_OFF	n/a	n/a	ELBOW	n/a	2	10	[0, 0, 0]	n/a	catFR1	0	R1279P
1127.179	1.6	1215918	WORD	n/a	wordpools/wordpool_categorized_EN.txt	CEILING	Building	3	10	[0, 0, 0]	n/a	catFR1	0	R1279P
1128.797	1.0	1217536	WORD_OFF	n/a	n/a	CEILING	n/a	3	10	[0, 0, 0]	n/a	catFR1	0	R1279P
1129.797	1.6	1218536	WORD	n/a	wordpools/wordpool_categorized_EN.txt	WALL	Building	4	10	[0, 0, 0]	n/a	catFR1	0	R1279P
1131.414	0.95	1220153	WORD_OFF	n/a	n/a	WALL	n/a	4	10	[0, 0, 0]	n/a	catFR1	0	R1279P
1132.364	1.6	1221103	WORD	n/a	wordpools/wordpool_categorized_EN.txt	PANTS	Clothing	5	10	[0, 0, 0]	n/a	catFR1	0	R1279P
1133.98	1.001	1222719	WORD_OFF	n/a	n/a	PANTS	n/a	5	10	[0, 0, 0]	n/a	catFR1	0	R1279P
1134.981	1.6	1223720	WORD	n/a	wordpools/wordpool_categorized_EN.txt	COAT	Clothing	6	10	[0, 0, 0]	n/a	catFR1	0	R1279P
1136.598	0.834	1225336	WORD_OFF	n/a	n/a	COAT	n/a	6	10	[0, 0, 0]	n/a	catFR1	0	R1279P
1137.432	1.6	1226170	WORD	n/a	wordpools/wordpool_categorized_EN.txt	FINGERS	BodyParts	7	10	[0, 0, 0]	n/a	catFR1	0	R1279P
1139.048	0.833	1227786	WORD_OFF	n/a	n/a	FINGERS	n/a	7	10	[0, 0, 0]	n/a	catFR1	0	R1279P
1139.881	1.6	1228619	WORD	n/a	wordpools/wordpool_categorized_EN.txt	TOE	BodyParts	8	10	[0, 0, 0]	n/a	catFR1	0	R1279P
1141.483	0.85	1230221	WORD_OFF	n/a	n/a	TOE	n/a	8	10	[0, 0, 0]	n/a	catFR1	0	R1279P
1142.333	1.6	1231071	WORD	n/a	wordpools/wordpool_categorized_EN.txt	STAIRS	Building	9	10	[0, 0, 0]	n/a	catFR1	0	R1279P
1143.949	0.918	1232687	WORD_OFF	n/a	n/a	STAIRS	n/a	9	10	[0, 0, 0]	n/a	catFR1	0	R1279P
1144.867	1.6	1233605	WORD	n/a	wordpools/wordpool_categorized_EN.txt	FLOOR	Building	10	10	[0, 0, 0]	n/a	catFR1	0	R1279P
1146.484	0.8	1235222	WORD_OFF	n/a	n/a	FLOOR	n/a	10	10	[0, 0, 0]	n/a	catFR1	0	R1279P
1147.284	1.6	1236022	WORD	n/a	wordpools/wordpool_categorized_EN.txt	UNDERWEAR	Clothing	11	10	[0, 0, 0]	n/a	catFR1	0	R1279P
1148.9	0.818	1237638	WORD_OFF	n/a	n/a	UNDERWEAR	n/a	11	10	[0, 0, 0]	n/a	catFR1	0	R1279P
1149.718	1.6	1238456	WORD	n/a	wordpools/wordpool_categorized_EN.txt	DRESS	Clothing	12	10	[0, 0, 0]	n/a	catFR1	0	R1279P
1151.334	0.001	1240072	WORD_OFF	n/a	n/a	DRESS	n/a	12	10	[0, 0, 0]	n/a	catFR1	0	R1279P
1151.335	0.136	1240073	ENCODING_END	n/a	n/a	n/a	n/a	-999	10	[0, 0, 0]	n/a	catFR1	0	R1279P
1151.471	0.0	1240209	DISTRACT_START	n/a	n/a	n/a	n/a	-999	10	[0, 0, 0]	n/a	catFR1	0	R1279P
1151.471	0.014	1240209	START	n/a	n/a	n/a	n/a	-999	10	[-999, -999, -999]	n/a	catFR1	0	R1279P
1151.485	9.018	1240223	PROB	8.985	n/a	n/a	n/a	-999	10	[6, 5, 7]	18.0	catFR1	0	R1279P
1160.503	7.118	1249240	PROB	7.087	n/a	n/a	n/a	-999	10	[8, 9, 7]	24.0	catFR1	0	R1279P
1167.621	4.664	1256358	PROB	4.664	n/a	n/a	n/a	-999	10	[9, 2, 2]	13.0	catFR1	0	R1279P
1172.285	0.02	1261022	STOP	n/a	n/a	n/a	n/a	-999	10	[-999, -999, -999]	n/a	catFR1	0	R1279P
1172.305	0.666	1261042	DISTRACT_END	n/a	n/a	n/a	n/a	-999	10	[0, 0, 0]	n/a	catFR1	0	R1279P
1172.971	0.518	1261708	RETRIEVAL_ORIENT	n/a	n/a	n/a	n/a	-999	10	[0, 0, 0]	n/a	catFR1	0	R1279P
1173.489	3.955	1262226	REC_START	n/a	n/a	n/a	n/a	-999	10	[0, 0, 0]	n/a	catFR1	0	R1279P
1177.444	2.1	1266180	REC_WORD	3.955	n/a	ELBOW	BodyParts	2	10	[0, 0, 0]	n/a	catFR1	0	R1279P
1179.544	23.958	1268280	REC_WORD	6.055	n/a	LEG	BodyParts	1	10	[0, 0, 0]	n/a	catFR1	0	R1279P
1203.502	5.543	1292237	REC_END	n/a	n/a	n/a	n/a	-999	10	[0, 0, 0]	n/a	catFR1	0	R1279P
1209.045	0.5	1297780	TRIAL	n/a	n/a	n/a	n/a	-999	11	[0, 0, 0]	n/a	catFR1	0	R1279P
1209.545	10.0	1298280	COUNTDOWN_START	n/a	n/a	n/a	n/a	-999	11	[0, 0, 0]	n/a	catFR1	0	R1279P
1219.973	0.007	1308707	COUNTDOWN_END	n/a	n/a	n/a	n/a	-999	11	[0, 0, 0]	n/a	catFR1	0	R1279P
1219.98	1.6	1308714	ORIENT	n/a	n/a	n/a	n/a	-999	11	[0, 0, 0]	n/a	catFR1	0	R1279P
1221.598	2.084	1310332	ORIENT_OFF	n/a	n/a	n/a	n/a	-999	11	[0, 0, 0]	n/a	catFR1	0	R1279P
1223.682	1.6	1312416	WORD	n/a	wordpools/wordpool_categorized_EN.txt	WASHER	Appliances	1	11	[0, 0, 0]	n/a	catFR1	0	R1279P
1225.299	0.832	1314033	WORD_OFF	n/a	n/a	WASHER	n/a	1	11	[0, 0, 0]	n/a	catFR1	0	R1279P
1226.131	1.6	1314865	WORD	n/a	wordpools/wordpool_categorized_EN.txt	FREEZER	Appliances	2	11	[0, 0, 0]	n/a	catFR1	0	R1279P
1227.732	0.784	1316466	WORD_OFF	n/a	n/a	FREEZER	n/a	2	11	[0, 0, 0]	n/a	catFR1	0	R1279P
1228.516	1.6	1317250	WORD	n/a	wordpools/wordpool_categorized_EN.txt	ROSE	Flowers	3	11	[0, 0, 0]	n/a	catFR1	0	R1279P
1230.132	0.9	1318866	WORD_OFF	n/a	n/a	ROSE	n/a	3	11	[0, 0, 0]	n/a	catFR1	0	R1279P
1231.032	1.6	1319766	WORD	n/a	wordpools/wordpool_categorized_EN.txt	DAFFODIL	Flowers	4	11	[0, 0, 0]	n/a	catFR1	0	R1279P
1232.65	1.017	1321383	WORD_OFF	n/a	n/a	DAFFODIL	n/a	4	11	[0, 0, 0]	n/a	catFR1	0	R1279P
1233.667	1.6	1322400	WORD	n/a	wordpools/wordpool_categorized_EN.txt	BEACH	Landscapes	5	11	[0, 0, 0]	n/a	catFR1	0	R1279P
1235.284	0.782	1324017	WORD_OFF	n/a	n/a	BEACH	n/a	5	11	[0, 0, 0]	n/a	catFR1	0	R1279P
1236.066	1.6	1324799	WORD	n/a	wordpools/wordpool_categorized_EN.txt	FOREST	Landscapes	6	11	[0, 0, 0]	n/a	catFR1	0	R1279P
1237.684	0.917	1326417	WORD_OFF	n/a	n/a	FOREST	n/a	6	11	[0, 0, 0]	n/a	catFR1	0	R1279P
1238.601	1.6	1327334	WORD	n/a	wordpools/wordpool_categorized_EN.txt	SUNFLOWER	Flowers	7	11	[0, 0, 0]	n/a	catFR1	0	R1279P
1240.218	0.883	1328951	WORD_OFF	n/a	n/a	SUNFLOWER	n/a	7	11	[0, 0, 0]	n/a	catFR1	0	R1279P
1241.101	1.6	1329834	WORD	n/a	wordpools/wordpool_categorized_EN.txt	PETUNIA	Flowers	8	11	[0, 0, 0]	n/a	catFR1	0	R1279P
1242.719	0.783	1331452	WORD_OFF	n/a	n/a	PETUNIA	n/a	8	11	[0, 0, 0]	n/a	catFR1	0	R1279P
1243.502	1.6	1332235	WORD	n/a	wordpools/wordpool_categorized_EN.txt	OVEN	Appliances	9	11	[0, 0, 0]	n/a	catFR1	0	R1279P
1245.118	0.8	1333851	WORD_OFF	n/a	n/a	OVEN	n/a	9	11	[0, 0, 0]	n/a	catFR1	0	R1279P
1245.918	1.6	1334651	WORD	n/a	wordpools/wordpool_categorized_EN.txt	REFRIGERATOR	Appliances	10	11	[0, 0, 0]	n/a	catFR1	0	R1279P
1247.519	0.901	1336252	WORD_OFF	n/a	n/a	REFRIGERATOR	n/a	10	11	[0, 0, 0]	n/a	catFR1	0	R1279P
1248.42	1.6	1337153	WORD	n/a	wordpools/wordpool_categorized_EN.txt	WOODS	Landscapes	11	11	[0, 0, 0]	n/a	catFR1	0	R1279P
1250.036	0.817	1338769	WORD_OFF	n/a	n/a	WOODS	n/a	11	11	[0, 0, 0]	n/a	catFR1	0	R1279P
1250.853	1.6	1339586	WORD	n/a	wordpools/wordpool_categorized_EN.txt	RIVER	Landscapes	12	11	[0, 0, 0]	n/a	catFR1	0	R1279P
1252.47	0.0	1341202	ENCODING_END	n/a	n/a	n/a	n/a	-999	11	[0, 0, 0]	n/a	catFR1	0	R1279P
1252.47	0.107	1341202	WORD_OFF	n/a	n/a	RIVER	n/a	12	11	[0, 0, 0]	n/a	catFR1	0	R1279P
1252.577	0.0	1341309	DISTRACT_START	n/a	n/a	n/a	n/a	-999	11	[0, 0, 0]	n/a	catFR1	0	R1279P
1252.577	0.01	1341309	START	n/a	n/a	n/a	n/a	-999	11	[-999, -999, -999]	n/a	catFR1	0	R1279P
1252.587	9.268	1341319	PROB	9.235	n/a	n/a	n/a	-999	11	[6, 3, 7]	16.0	catFR1	0	R1279P
1261.855	7.067	1350587	PROB	7.03	n/a	n/a	n/a	-999	11	[4, 1, 7]	12.0	catFR1	0	R1279P
1268.922	8.347	1357654	PROB	8.347	n/a	n/a	n/a	-999	11	[5, 2, 8]	15.0	catFR1	0	R1279P
1277.269	0.006	1366000	STOP	n/a	n/a	n/a	n/a	-999	11	[-999, -999, -999]	n/a	catFR1	0	R1279P
1277.275	0.6	1366006	DISTRACT_END	n/a	n/a	n/a	n/a	-999	11	[0, 0, 0]	n/a	catFR1	0	R1279P
1277.875	0.518	1366606	RETRIEVAL_ORIENT	n/a	n/a	n/a	n/a	-999	11	[0, 0, 0]	n/a	catFR1	0	R1279P
1278.393	1.75	1367124	REC_START	n/a	n/a	n/a	n/a	-999	11	[0, 0, 0]	n/a	catFR1	0	R1279P
1280.143	1.634	1368874	REC_WORD	1.75	n/a	WASHER	Appliances	1	11	[0, 0, 0]	n/a	catFR1	0	R1279P
1281.777	3.39	1370508	REC_WORD	3.384	n/a	FREEZER	Appliances	2	11	[0, 0, 0]	n/a	catFR1	0	R1279P
1285.167	23.239	1373898	REC_WORD	6.774	n/a	ONION	n/a	-999	11	[0, 0, 0]	n/a	catFR1	0	R1279P
1308.406	5.926	1397135	REC_END	n/a	n/a	n/a	n/a	-999	11	[0, 0, 0]	n/a	catFR1	0	R1279P
1314.332	0.5	1403061	TRIAL	n/a	n/a	n/a	n/a	-999	12	[0, 0, 0]	n/a	catFR1	0	R1279P
1314.832	10.0	1403561	COUNTDOWN_START	n/a	n/a	n/a	n/a	-999	12	[0, 0, 0]	n/a	catFR1	0	R1279P
1325.26	0.007	1413989	COUNTDOWN_END	n/a	n/a	n/a	n/a	-999	12	[0, 0, 0]	n/a	catFR1	0	R1279P
1325.267	1.6	1413996	ORIENT	n/a	n/a	n/a	n/a	-999	12	[0, 0, 0]	n/a	catFR1	0	R1279P
1326.883	2.084	1415612	ORIENT_OFF	n/a	n/a	n/a	n/a	-999	12	[0, 0, 0]	n/a	catFR1	0	R1279P
1328.967	1.6	1417695	WORD	n/a	wordpools/wordpool_categorized_EN.txt	CLOUD	Weather	1	12	[0, 0, 0]	n/a	catFR1	0	R1279P
1330.585	0.9	1419313	WORD_OFF	n/a	n/a	CLOUD	n/a	1	12	[0, 0, 0]	n/a	catFR1	0	R1279P
1331.485	1.6	1420213	WORD	n/a	wordpools/wordpool_categorized_EN.txt	THUNDERSTORM	Weather	2	12	[0, 0, 0]	n/a	catFR1	0	R1279P
1333.101	0.95	1421829	WORD_OFF	n/a	n/a	THUNDERSTORM	n/a	2	12	[0, 0, 0]	n/a	catFR1	0	R1279P
1334.051	1.6	1422779	WORD	n/a	wordpools/wordpool_categorized_EN.txt	TURKEY	FarmAnimals	3	12	[0, 0, 0]	n/a	catFR1	0	R1279P
1335.669	0.8	1424397	WORD_OFF	n/a	n/a	TURKEY	n/a	3	12	[0, 0, 0]	n/a	catFR1	0	R1279P
1336.469	1.6	1425197	WORD	n/a	wordpools/wordpool_categorized_EN.txt	GOAT	FarmAnimals	4	12	[0, 0, 0]	n/a	catFR1	0	R1279P
1338.085	0.984	1426813	WORD_OFF	n/a	n/a	GOAT	n/a	4	12	[0, 0, 0]	n/a	catFR1	0	R1279P
1339.069	1.6	1427797	WORD	n/a	wordpools/wordpool_categorized_EN.txt	RATCHET	Tools	5	12	[0, 0, 0]	n/a	catFR1	0	R1279P
1340.687	0.917	1429415	WORD_OFF	n/a	n/a	RATCHET	n/a	5	12	[0, 0, 0]	n/a	catFR1	0	R1279P
1341.604	1.6	1430332	WORD	n/a	wordpools/wordpool_categorized_EN.txt	SCREWDRIVER	Tools	6	12	[0, 0, 0]	n/a	catFR1	0	R1279P
1343.221	0.832	1431949	WORD_OFF	n/a	n/a	SCREWDRIVER	n/a	6	12	[0, 0, 0]	n/a	catFR1	0	R1279P
1344.053	1.6	1432781	WORD	n/a	wordpools/wordpool_categorized_EN.txt	LAMB	FarmAnimals	7	12	[0, 0, 0]	n/a	catFR1	0	R1279P
1345.671	0.8	1434399	WORD_OFF	n/a	n/a	LAMB	n/a	7	12	[0, 0, 0]	n/a	catFR1	0	R1279P
1346.471	1.6	1435198	WORD	n/a	wordpools/wordpool_categorized_EN.txt	HORSE	FarmAnimals	8	12	[0, 0, 0]	n/a	catFR1	0	R1279P
1348.087	0.785	1436814	WORD_OFF	n/a	n/a	HORSE	n/a	8	12	[0, 0, 0]	n/a	catFR1	0	R1279P
1348.872	1.6	1437599	WORD	n/a	wordpools/wordpool_categorized_EN.txt	DRIZZLE	Weather	9	12	[0, 0, 0]	n/a	catFR1	0	R1279P
1350.489	0.8	1439216	WORD_OFF	n/a	n/a	DRIZZLE	n/a	9	12	[0, 0, 0]	n/a	catFR1	0	R1279P
1351.289	1.6	1440016	WORD	n/a	wordpools/wordpool_categorized_EN.txt	RAIN	Weather	10	12	[0, 0, 0]	n/a	catFR1	0	R1279P
1352.905	1.017	1441632	WORD_OFF	n/a	n/a	RAIN	n/a	10	12	[0, 0, 0]	n/a	catFR1	0	R1279P
1353.922	1.6	1442649	WORD	n/a	wordpools/wordpool_categorized_EN.txt	SANDER	Tools	11	12	[0, 0, 0]	n/a	catFR1	0	R1279P
1355.54	1.017	1444267	WORD_OFF	n/a	n/a	SANDER	n/a	11	12	[0, 0, 0]	n/a	catFR1	0	R1279P
1356.557	1.6	1445284	WORD	n/a	wordpools/wordpool_categorized_EN.txt	AXE	Tools	12	12	[0, 0, 0]	n/a	catFR1	0	R1279P
1358.173	0.0	1446900	ENCODING_END	n/a	n/a	n/a	n/a	-999	12	[0, 0, 0]	n/a	catFR1	0	R1279P
1358.173	0.144	1446900	WORD_OFF	n/a	n/a	AXE	n/a	12	12	[0, 0, 0]	n/a	catFR1	0	R1279P
1358.317	0.0	1447044	DISTRACT_START	n/a	n/a	n/a	n/a	-999	12	[0, 0, 0]	n/a	catFR1	0	R1279P
1358.317	0.023	1447044	START	n/a	n/a	n/a	n/a	-999	12	[-999, -999, -999]	n/a	catFR1	0	R1279P
1358.34	4.55	1447067	PROB	4.521	n/a	n/a	n/a	-999	12	[1, 5, 5]	11.0	catFR1	0	R1279P
1362.89	4.184	1451617	PROB	4.147	n/a	n/a	n/a	-999	12	[3, 4, 4]	11.0	catFR1	0	R1279P
1367.074	4.652	1455800	PROB	4.627	n/a	n/a	n/a	-999	12	[2, 6, 3]	11.0	catFR1	0	R1279P
1371.726	7.817	1460452	PROB	7.817	n/a	n/a	n/a	-999	12	[3, 6, 3]	15.0	catFR1	0	R1279P
1379.543	0.018	1468269	STOP	n/a	n/a	n/a	n/a	-999	12	[-999, -999, -999]	n/a	catFR1	0	R1279P
1379.561	0.616	1468287	DISTRACT_END	n/a	n/a	n/a	n/a	-999	12	[0, 0, 0]	n/a	catFR1	0	R1279P
1380.177	0.518	1468903	RETRIEVAL_ORIENT	n/a	n/a	n/a	n/a	-999	12	[0, 0, 0]	n/a	catFR1	0	R1279P
1380.695	1.234	1469421	REC_START	n/a	n/a	n/a	n/a	-999	12	[0, 0, 0]	n/a	catFR1	0	R1279P
1381.929	2.695	1470655	REC_WORD	1.234	n/a	CLOUD	Weather	1	12	[0, 0, 0]	n/a	catFR1	0	R1279P
1384.624	1.715	1473350	REC_WORD	3.929	n/a	DRIZZLE	Weather	9	12	[0, 0, 0]	n/a	catFR1	0	R1279P
1386.339	24.37	1475064	REC_WORD	5.644	n/a	RAINBOW	n/a	-999	12	[0, 0, 0]	n/a	catFR1	0	R1279P
1410.709	5.341	1499433	REC_END	n/a	n/a	n/a	n/a	-999	12	[0, 0, 0]	n/a	catFR1	0	R1279P
1416.05	0.5	1504774	TRIAL	n/a	n/a	n/a	n/a	-999	13	[0, 0, 0]	n/a	catFR1	0	R1279P
1416.55	10.0	1505274	COUNTDOWN_START	n/a	n/a	n/a	n/a	-999	13	[0, 0, 0]	n/a	catFR1	0	R1279P
1426.978	0.008	1515701	COUNTDOWN_END	n/a	n/a	n/a	n/a	-999	13	[0, 0, 0]	n/a	catFR1	0	R1279P
1426.986	1.6	1515709	ORIENT	n/a	n/a	n/a	n/a	-999	13	[0, 0, 0]	n/a	catFR1	0	R1279P
1428.603	2.001	1517326	ORIENT_OFF	n/a	n/a	n/a	n/a	-999	13	[0, 0, 0]	n/a	catFR1	0	R1279P
1430.604	1.6	1519327	WORD	n/a	wordpools/wordpool_categorized_EN.txt	EAR	BodyParts	1	13	[0, 0, 0]	n/a	catFR1	0	R1279P
1432.221	0.949	1520944	WORD_OFF	n/a	n/a	EAR	n/a	1	13	[0, 0, 0]	n/a	catFR1	0	R1279P
1433.17	1.6	1521893	WORD	n/a	wordpools/wordpool_categorized_EN.txt	EYE	BodyParts	2	13	[0, 0, 0]	n/a	catFR1	0	R1279P
1434.788	1.0	1523511	WORD_OFF	n/a	n/a	EYE	n/a	2	13	[0, 0, 0]	n/a	catFR1	0	R1279P
1435.788	1.6	1524511	WORD	n/a	wordpools/wordpool_categorized_EN.txt	BEAR	Zoo	3	13	[0, 0, 0]	n/a	catFR1	0	R1279P
1437.405	0.867	1526128	WORD_OFF	n/a	n/a	BEAR	n/a	3	13	[0, 0, 0]	n/a	catFR1	0	R1279P
1438.272	1.6	1526995	WORD	n/a	wordpools/wordpool_categorized_EN.txt	ORANGUTAN	Zoo	4	13	[0, 0, 0]	n/a	catFR1	0	R1279P
1439.888	0.918	1528611	WORD_OFF	n/a	n/a	ORANGUTAN	n/a	4	13	[0, 0, 0]	n/a	catFR1	0	R1279P
1440.806	1.6	1529529	WORD	n/a	wordpools/wordpool_categorized_EN.txt	PIGEON	Birds	5	13	[0, 0, 0]	n/a	catFR1	0	R1279P
1442.423	0.833	1531145	WORD_OFF	n/a	n/a	PIGEON	n/a	5	13	[0, 0, 0]	n/a	catFR1	0	R1279P
1443.256	1.6	1531978	WORD	n/a	wordpools/wordpool_categorized_EN.txt	ROBIN	Birds	6	13	[0, 0, 0]	n/a	catFR1	0	R1279P
1444.873	0.934	1533595	WORD_OFF	n/a	n/a	ROBIN	n/a	6	13	[0, 0, 0]	n/a	catFR1	0	R1279P
1445.807	1.6	1534529	WORD	n/a	wordpools/wordpool_categorized_EN.txt	TIGER	Zoo	7	13	[0, 0, 0]	n/a	catFR1	0	R1279P
1447.424	0.917	1536146	WORD_OFF	n/a	n/a	TIGER	n/a	7	13	[0, 0, 0]	n/a	catFR1	0	R1279P
1448.341	1.6	1537063	WORD	n/a	wordpools/wordpool_categorized_EN.txt	ELEPHANT	Zoo	8	13	[0, 0, 0]	n/a	catFR1	0	R1279P
1449.956	0.918	1538678	WORD_OFF	n/a	n/a	ELEPHANT	n/a	8	13	[0, 0, 0]	n/a	catFR1	0	R1279P
1450.874	1.6	1539596	WORD	n/a	wordpools/wordpool_categorized_EN.txt	HEAD	BodyParts	9	13	[0, 0, 0]	n/a	catFR1	0	R1279P
1452.491	0.8	1541213	WORD_OFF	n/a	n/a	HEAD	n/a	9	13	[0, 0, 0]	n/a	catFR1	0	R1279P
1453.291	1.6	1542013	WORD	n/a	wordpools/wordpool_categorized_EN.txt	KNEE	BodyParts	10	13	[0, 0, 0]	n/a	catFR1	0	R1279P
1454.907	0.901	1543629	WORD_OFF	n/a	n/a	KNEE	n/a	10	13	[0, 0, 0]	n/a	catFR1	0	R1279P
1455.808	1.6	1544530	WORD	n/a	wordpools/wordpool_categorized_EN.txt	FINCH	Birds	11	13	[0, 0, 0]	n/a	catFR1	0	R1279P
1457.426	0.783	1546148	WORD_OFF	n/a	n/a	FINCH	n/a	11	13	[0, 0, 0]	n/a	catFR1	0	R1279P
1458.209	1.6	1546931	WORD	n/a	wordpools/wordpool_categorized_EN.txt	DOVE	Birds	12	13	[0, 0, 0]	n/a	catFR1	0	R1279P
1459.826	0.0	1548548	WORD_OFF	n/a	n/a	DOVE	n/a	12	13	[0, 0, 0]	n/a	catFR1	0	R1279P
1459.826	0.105	1548548	ENCODING_END	n/a	n/a	n/a	n/a	-999	13	[0, 0, 0]	n/a	catFR1	0	R1279P
1459.931	0.0	1548653	DISTRACT_START	n/a	n/a	n/a	n/a	-999	13	[0, 0, 0]	n/a	catFR1	0	R1279P
1459.931	0.011	1548653	START	n/a	n/a	n/a	n/a	-999	13	[-999, -999, -999]	n/a	catFR1	0	R1279P
1459.942	6.702	1548664	PROB	6.68	n/a	n/a	n/a	-999	13	[3, 7, 2]	12.0	catFR1	0	R1279P
1466.644	8.718	1555365	PROB	8.691	n/a	n/a	n/a	-999	13	[4, 1, 8]	13.0	catFR1	0	R1279P
1475.362	8.123	1564083	PROB	8.123	n/a	n/a	n/a	-999	13	[9, 3, 6]	18.0	catFR1	0	R1279P
1483.485	0.013	1572205	STOP	n/a	n/a	n/a	n/a	-999	13	[-999, -999, -999]	n/a	catFR1	0	R1279P
1483.498	0.648	1572218	DISTRACT_END	n/a	n/a	n/a	n/a	-999	13	[0, 0, 0]	n/a	catFR1	0	R1279P
1484.146	0.519	1572866	RETRIEVAL_ORIENT	n/a	n/a	n/a	n/a	-999	13	[0, 0, 0]	n/a	catFR1	0	R1279P
1484.665	1.104	1573385	REC_START	n/a	n/a	n/a	n/a	-999	13	[0, 0, 0]	n/a	catFR1	0	R1279P
1485.769	1.725	1574489	REC_WORD	1.104	n/a	EAR	BodyParts	1	13	[0, 0, 0]	n/a	catFR1	0	R1279P
1487.494	3.805	1576214	REC_WORD	2.829	n/a	TIGER	Zoo	7	13	[0, 0, 0]	n/a	catFR1	0	R1279P
1491.299	23.376	1580019	REC_WORD	6.634	n/a	NICE	n/a	-999	13	[0, 0, 0]	n/a	catFR1	0	R1279P
1514.675	5.495	1603394	REC_END	n/a	n/a	n/a	n/a	-999	13	[0, 0, 0]	n/a	catFR1	0	R1279P
1520.17	0.5	1608888	TRIAL	n/a	n/a	n/a	n/a	-999	14	[0, 0, 0]	n/a	catFR1	0	R1279P
1520.67	10.0	1609388	COUNTDOWN_START	n/a	n/a	n/a	n/a	-999	14	[0, 0, 0]	n/a	catFR1	0	R1279P
1531.098	0.007	1619816	COUNTDOWN_END	n/a	n/a	n/a	n/a	-999	14	[0, 0, 0]	n/a	catFR1	0	R1279P
1531.105	1.6	1619823	ORIENT	n/a	n/a	n/a	n/a	-999	14	[0, 0, 0]	n/a	catFR1	0	R1279P
1532.706	2.151	1621424	ORIENT_OFF	n/a	n/a	n/a	n/a	-999	14	[0, 0, 0]	n/a	catFR1	0	R1279P
1534.857	1.6	1623575	WORD	n/a	wordpools/wordpool_categorized_EN.txt	OAK	Trees	1	14	[0, 0, 0]	n/a	catFR1	0	R1279P
1536.474	0.933	1625192	WORD_OFF	n/a	n/a	OAK	n/a	1	14	[0, 0, 0]	n/a	catFR1	0	R1279P
1537.407	1.6	1626124	WORD	n/a	wordpools/wordpool_categorized_EN.txt	BIRCH	Trees	2	14	[0, 0, 0]	n/a	catFR1	0	R1279P
1539.023	1.0	1627740	WORD_OFF	n/a	n/a	BIRCH	n/a	2	14	[0, 0, 0]	n/a	catFR1	0	R1279P
1540.023	1.6	1628740	WORD	n/a	wordpools/wordpool_categorized_EN.txt	CHIMPANZEE	Zoo	3	14	[0, 0, 0]	n/a	catFR1	0	R1279P
1541.625	0.867	1630342	WORD_OFF	n/a	n/a	CHIMPANZEE	n/a	3	14	[0, 0, 0]	n/a	catFR1	0	R1279P
1542.492	1.6	1631209	WORD	n/a	wordpools/wordpool_categorized_EN.txt	GIRAFFE	Zoo	4	14	[0, 0, 0]	n/a	catFR1	0	R1279P
1544.108	0.966	1632825	WORD_OFF	n/a	n/a	GIRAFFE	n/a	4	14	[0, 0, 0]	n/a	catFR1	0	R1279P
1545.074	1.6	1633791	WORD	n/a	wordpools/wordpool_categorized_EN.txt	BOAT	Vehicles	5	14	[0, 0, 0]	n/a	catFR1	0	R1279P
1546.692	0.784	1635409	WORD_OFF	n/a	n/a	BOAT	n/a	5	14	[0, 0, 0]	n/a	catFR1	0	R1279P
1547.476	1.6	1636193	WORD	n/a	wordpools/wordpool_categorized_EN.txt	TRAIN	Vehicles	6	14	[0, 0, 0]	n/a	catFR1	0	R1279P
1549.092	0.784	1637809	WORD_OFF	n/a	n/a	TRAIN	n/a	6	14	[0, 0, 0]	n/a	catFR1	0	R1279P
1549.876	1.6	1638593	WORD	n/a	wordpools/wordpool_categorized_EN.txt	ELM	Trees	7	14	[0, 0, 0]	n/a	catFR1	0	R1279P
1551.493	0.967	1640210	WORD_OFF	n/a	n/a	ELM	n/a	7	14	[0, 0, 0]	n/a	catFR1	0	R1279P
1552.46	1.6	1641177	WORD	n/a	wordpools/wordpool_categorized_EN.txt	HICKORY	Trees	8	14	[0, 0, 0]	n/a	catFR1	0	R1279P
1554.076	0.801	1642793	WORD_OFF	n/a	n/a	HICKORY	n/a	8	14	[0, 0, 0]	n/a	catFR1	0	R1279P
1554.877	1.6	1643594	WORD	n/a	wordpools/wordpool_categorized_EN.txt	GORILLA	Zoo	9	14	[0, 0, 0]	n/a	catFR1	0	R1279P
1556.494	0.767	1645210	WORD_OFF	n/a	n/a	GORILLA	n/a	9	14	[0, 0, 0]	n/a	catFR1	0	R1279P
1557.261	1.6	1645977	WORD	n/a	wordpools/wordpool_categorized_EN.txt	ZEBRA	Zoo	10	14	[0, 0, 0]	n/a	catFR1	0	R1279P
1558.878	0.934	1647594	WORD_OFF	n/a	n/a	ZEBRA	n/a	10	14	[0, 0, 0]	n/a	catFR1	0	R1279P
1559.812	1.6	1648528	WORD	n/a	wordpools/wordpool_categorized_EN.txt	JEEP	Vehicles	11	14	[0, 0, 0]	n/a	catFR1	0	R1279P
1561.428	0.784	1650144	WORD_OFF	n/a	n/a	JEEP	n/a	11	14	[0, 0, 0]	n/a	catFR1	0	R1279P
1562.212	1.6	1650928	WORD	n/a	wordpools/wordpool_categorized_EN.txt	MOTORCYCLE	Vehicles	12	14	[0, 0, 0]	n/a	catFR1	0	R1279P
1563.829	0.0	1652545	ENCODING_END	n/a	n/a	n/a	n/a	-999	14	[0, 0, 0]	n/a	catFR1	0	R1279P
1563.829	0.104	1652545	WORD_OFF	n/a	n/a	MOTORCYCLE	n/a	12	14	[0, 0, 0]	n/a	catFR1	0	R1279P
1563.933	0.0	1652649	DISTRACT_START	n/a	n/a	n/a	n/a	-999	14	[0, 0, 0]	n/a	catFR1	0	R1279P
1563.933	0.012	1652649	START	n/a	n/a	n/a	n/a	-999	14	[-999, -999, -999]	n/a	catFR1	0	R1279P
1563.945	5.984	1652661	PROB	5.955	n/a	n/a	n/a	-999	14	[3, 1, 9]	13.0	catFR1	0	R1279P
1569.929	7.669	1658645	PROB	7.636	n/a	n/a	n/a	-999	14	[9, 8, 6]	23.0	catFR1	0	R1279P
1577.598	7.382	1666313	PROB	7.382	n/a	n/a	n/a	-999	14	[3, 5, 2]	10.0	catFR1	0	R1279P
1584.98	0.019	1673695	STOP	n/a	n/a	n/a	n/a	-999	14	[-999, -999, -999]	n/a	catFR1	0	R1279P
1584.999	0.551	1673714	DISTRACT_END	n/a	n/a	n/a	n/a	-999	14	[0, 0, 0]	n/a	catFR1	0	R1279P
1585.55	0.516	1674265	RETRIEVAL_ORIENT	n/a	n/a	n/a	n/a	-999	14	[0, 0, 0]	n/a	catFR1	0	R1279P
1586.066	2.039	1674781	REC_START	n/a	n/a	n/a	n/a	-999	14	[0, 0, 0]	n/a	catFR1	0	R1279P
1588.105	2.17	1676820	REC_WORD	2.039	n/a	GIRAFFE	Zoo	4	14	[0, 0, 0]	n/a	catFR1	0	R1279P
1590.275	25.803	1678990	REC_WORD	4.209	n/a	ELBOW	n/a	-999	14	[0, 0, 0]	n/a	catFR1	0	R1279P
1616.078	5.362	1704791	REC_END	n/a	n/a	n/a	n/a	-999	14	[0, 0, 0]	n/a	catFR1	0	R1279P
1621.44	0.5	1710153	TRIAL	n/a	n/a	n/a	n/a	-999	15	[0, 0, 0]	n/a	catFR1	0	R1279P
1621.94	10.0	1710653	COUNTDOWN_START	n/a	n/a	n/a	n/a	-999	15	[0, 0, 0]	n/a	catFR1	0	R1279P
1632.368	0.007	1721081	COUNTDOWN_END	n/a	n/a	n/a	n/a	-999	15	[0, 0, 0]	n/a	catFR1	0	R1279P
1632.375	1.6	1721088	ORIENT	n/a	n/a	n/a	n/a	-999	15	[0, 0, 0]	n/a	catFR1	0	R1279P
1633.991	1.9	1722703	ORIENT_OFF	n/a	n/a	n/a	n/a	-999	15	[0, 0, 0]	n/a	catFR1	0	R1279P
1635.891	1.6	1724603	WORD	n/a	wordpools/wordpool_categorized_EN.txt	BARBIE	Toys	1	15	[0, 0, 0]	n/a	catFR1	0	R1279P
1637.509	0.951	1726221	WORD_OFF	n/a	n/a	BARBIE	n/a	1	15	[0, 0, 0]	n/a	catFR1	0	R1279P
1638.46	1.6	1727172	WORD	n/a	wordpools/wordpool_categorized_EN.txt	DOLL	Toys	2	15	[0, 0, 0]	n/a	catFR1	0	R1279P
1640.076	1.0	1728788	WORD_OFF	n/a	n/a	DOLL	n/a	2	15	[0, 0, 0]	n/a	catFR1	0	R1279P
1641.076	1.6	1729788	WORD	n/a	wordpools/wordpool_categorized_EN.txt	PLIERS	Tools	3	15	[0, 0, 0]	n/a	catFR1	0	R1279P
1642.694	0.95	1731406	WORD_OFF	n/a	n/a	PLIERS	n/a	3	15	[0, 0, 0]	n/a	catFR1	0	R1279P
1643.644	1.6	1732356	WORD	n/a	wordpools/wordpool_categorized_EN.txt	SAW	Tools	4	15	[0, 0, 0]	n/a	catFR1	0	R1279P
1645.261	0.932	1733973	WORD_OFF	n/a	n/a	SAW	n/a	4	15	[0, 0, 0]	n/a	catFR1	0	R1279P
1646.193	1.6	1734905	WORD	n/a	wordpools/wordpool_categorized_EN.txt	WILLOW	Trees	5	15	[0, 0, 0]	n/a	catFR1	0	R1279P
1647.795	1.0	1736507	WORD_OFF	n/a	n/a	WILLOW	n/a	5	15	[0, 0, 0]	n/a	catFR1	0	R1279P
1648.795	1.6	1737507	WORD	n/a	wordpools/wordpool_categorized_EN.txt	CEDAR	Trees	6	15	[0, 0, 0]	n/a	catFR1	0	R1279P
1650.412	0.766	1739124	WORD_OFF	n/a	n/a	CEDAR	n/a	6	15	[0, 0, 0]	n/a	catFR1	0	R1279P
1651.178	1.6	1739890	WORD	n/a	wordpools/wordpool_categorized_EN.txt	BASEBALL	Toys	7	15	[0, 0, 0]	n/a	catFR1	0	R1279P
1652.796	0.85	1741507	WORD_OFF	n/a	n/a	BASEBALL	n/a	7	15	[0, 0, 0]	n/a	catFR1	0	R1279P
1653.646	1.6	1742357	WORD	n/a	wordpools/wordpool_categorized_EN.txt	FOOTBALL	Toys	8	15	[0, 0, 0]	n/a	catFR1	0	R1279P
1655.263	0.849	1743974	WORD_OFF	n/a	n/a	FOOTBALL	n/a	8	15	[0, 0, 0]	n/a	catFR1	0	R1279P
1656.112	1.6	1744823	WORD	n/a	wordpools/wordpool_categorized_EN.txt	CROWBAR	Tools	9	15	[0, 0, 0]	n/a	catFR1	0	R1279P
1657.73	0.95	1746441	WORD_OFF	n/a	n/a	CROWBAR	n/a	9	15	[0, 0, 0]	n/a	catFR1	0	R1279P
1658.68	1.6	1747391	WORD	n/a	wordpools/wordpool_categorized_EN.txt	WRENCH	Tools	10	15	[0, 0, 0]	n/a	catFR1	0	R1279P
1660.297	0.833	1749008	WORD_OFF	n/a	n/a	WRENCH	n/a	10	15	[0, 0, 0]	n/a	catFR1	0	R1279P
1661.13	1.6	1749841	WORD	n/a	wordpools/wordpool_categorized_EN.txt	CYPRESS	Trees	11	15	[0, 0, 0]	n/a	catFR1	0	R1279P
1662.748	0.8	1751459	WORD_OFF	n/a	n/a	CYPRESS	n/a	11	15	[0, 0, 0]	n/a	catFR1	0	R1279P
1663.548	1.6	1752259	WORD	n/a	wordpools/wordpool_categorized_EN.txt	EVERGREEN	Trees	12	15	[0, 0, 0]	n/a	catFR1	0	R1279P
1665.164	0.0	1753875	ENCODING_END	n/a	n/a	n/a	n/a	-999	15	[0, 0, 0]	n/a	catFR1	0	R1279P
1665.164	0.138	1753875	WORD_OFF	n/a	n/a	EVERGREEN	n/a	12	15	[0, 0, 0]	n/a	catFR1	0	R1279P
1665.302	0.0	1754013	DISTRACT_START	n/a	n/a	n/a	n/a	-999	15	[0, 0, 0]	n/a	catFR1	0	R1279P
1665.302	0.013	1754013	START	n/a	n/a	n/a	n/a	-999	15	[-999, -999, -999]	n/a	catFR1	0	R1279P
1665.315	8.817	1754026	PROB	8.795	n/a	n/a	n/a	-999	15	[9, 4, 8]	21.0	catFR1	0	R1279P
1674.132	4.685	1762842	PROB	4.649	n/a	n/a	n/a	-999	15	[2, 5, 4]	11.0	catFR1	0	R1279P
1678.817	5.501	1767527	PROB	5.476	n/a	n/a	n/a	-999	15	[1, 1, 9]	11.0	catFR1	0	R1279P
1684.318	7.543	1773028	PROB	7.543	n/a	n/a	n/a	-999	15	[6, 5, 6]	17.0	catFR1	0	R1279P
1691.861	0.009	1780570	STOP	n/a	n/a	n/a	n/a	-999	15	[-999, -999, -999]	n/a	catFR1	0	R1279P
1691.87	0.633	1780579	DISTRACT_END	n/a	n/a	n/a	n/a	-999	15	[0, 0, 0]	n/a	catFR1	0	R1279P
1692.503	0.517	1781212	RETRIEVAL_ORIENT	n/a	n/a	n/a	n/a	-999	15	[0, 0, 0]	n/a	catFR1	0	R1279P
1693.02	1.179	1781729	REC_START	n/a	n/a	n/a	n/a	-999	15	[0, 0, 0]	n/a	catFR1	0	R1279P
1694.199	1.71	1782908	REC_WORD	1.179	n/a	BARBIE	Toys	1	15	[0, 0, 0]	n/a	catFR1	0	R1279P
1695.909	1.69	1784618	REC_WORD	2.889	n/a	FOOTBALL	Toys	8	15	[0, 0, 0]	n/a	catFR1	0	R1279P
1697.599	25.433	1786308	REC_WORD	4.579	n/a	POOL	n/a	-999	15	[0, 0, 0]	n/a	catFR1	0	R1279P
1723.032	5.311	1811740	REC_END	n/a	n/a	n/a	n/a	-999	15	[0, 0, 0]	n/a	catFR1	0	R1279P
1728.343	0.5	1817050	TRIAL	n/a	n/a	n/a	n/a	-999	16	[0, 0, 0]	n/a	catFR1	0	R1279P
1728.843	10.0	1817550	COUNTDOWN_START	n/a	n/a	n/a	n/a	-999	16	[0, 0, 0]	n/a	catFR1	0	R1279P
1739.271	0.008	1827978	COUNTDOWN_END	n/a	n/a	n/a	n/a	-999	16	[0, 0, 0]	n/a	catFR1	0	R1279P
1739.279	1.6	1827986	ORIENT	n/a	n/a	n/a	n/a	-999	16	[0, 0, 0]	n/a	catFR1	0	R1279P
1740.895	2.05	1829602	ORIENT_OFF	n/a	n/a	n/a	n/a	-999	16	[0, 0, 0]	n/a	catFR1	0	R1279P
1742.945	1.6	1831652	WORD	n/a	wordpools/wordpool_categorized_EN.txt	LAKE	Landscapes	1	16	[0, 0, 0]	n/a	catFR1	0	R1279P
1744.546	0.984	1833253	WORD_OFF	n/a	n/a	LAKE	n/a	1	16	[0, 0, 0]	n/a	catFR1	0	R1279P
1745.53	1.6	1834237	WORD	n/a	wordpools/wordpool_categorized_EN.txt	VALLEY	Landscapes	2	16	[0, 0, 0]	n/a	catFR1	0	R1279P
1747.146	0.783	1835853	WORD_OFF	n/a	n/a	VALLEY	n/a	2	16	[0, 0, 0]	n/a	catFR1	0	R1279P
1747.929	1.6	1836635	WORD	n/a	wordpools/wordpool_categorized_EN.txt	CARDINAL	Birds	3	16	[0, 0, 0]	n/a	catFR1	0	R1279P
1749.547	0.784	1838253	WORD_OFF	n/a	n/a	CARDINAL	n/a	3	16	[0, 0, 0]	n/a	catFR1	0	R1279P
1750.331	1.6	1839037	WORD	n/a	wordpools/wordpool_categorized_EN.txt	BLUEBIRD	Birds	4	16	[0, 0, 0]	n/a	catFR1	0	R1279P
1751.947	0.933	1840653	WORD_OFF	n/a	n/a	BLUEBIRD	n/a	4	16	[0, 0, 0]	n/a	catFR1	0	R1279P
1752.88	1.6	1841586	WORD	n/a	wordpools/wordpool_categorized_EN.txt	SPOON	KitchenTools	5	16	[0, 0, 0]	n/a	catFR1	0	R1279P
1754.482	0.783	1843188	WORD_OFF	n/a	n/a	SPOON	n/a	5	16	[0, 0, 0]	n/a	catFR1	0	R1279P
1755.265	1.6	1843971	WORD	n/a	wordpools/wordpool_categorized_EN.txt	WHISK	KitchenTools	6	16	[0, 0, 0]	n/a	catFR1	0	R1279P
1756.881	0.968	1845587	WORD_OFF	n/a	n/a	WHISK	n/a	6	16	[0, 0, 0]	n/a	catFR1	0	R1279P
1757.849	1.6	1846555	WORD	n/a	wordpools/wordpool_categorized_EN.txt	DUCK	Birds	7	16	[0, 0, 0]	n/a	catFR1	0	R1279P
1759.466	0.8	1848172	WORD_OFF	n/a	n/a	DUCK	n/a	7	16	[0, 0, 0]	n/a	catFR1	0	R1279P
1760.266	1.6	1848972	WORD	n/a	wordpools/wordpool_categorized_EN.txt	CROW	Birds	8	16	[0, 0, 0]	n/a	catFR1	0	R1279P
1761.882	0.901	1850588	WORD_OFF	n/a	n/a	CROW	n/a	8	16	[0, 0, 0]	n/a	catFR1	0	R1279P
1762.783	1.6	1851489	WORD	n/a	wordpools/wordpool_categorized_EN.txt	STREAM	Landscapes	9	16	[0, 0, 0]	n/a	catFR1	0	R1279P
1764.4	0.883	1853106	WORD_OFF	n/a	n/a	STREAM	n/a	9	16	[0, 0, 0]	n/a	catFR1	0	R1279P
1765.283	1.6	1853989	WORD	n/a	wordpools/wordpool_categorized_EN.txt	MOUNTAIN	Landscapes	10	16	[0, 0, 0]	n/a	catFR1	0	R1279P
1766.899	0.785	1855604	WORD_OFF	n/a	n/a	MOUNTAIN	n/a	10	16	[0, 0, 0]	n/a	catFR1	0	R1279P
1767.684	1.6	1856389	WORD	n/a	wordpools/wordpool_categorized_EN.txt	STRAINER	KitchenTools	11	16	[0, 0, 0]	n/a	catFR1	0	R1279P
1769.301	0.849	1858006	WORD_OFF	n/a	n/a	STRAINER	n/a	11	16	[0, 0, 0]	n/a	catFR1	0	R1279P
1770.15	1.6	1858855	WORD	n/a	wordpools/wordpool_categorized_EN.txt	PEELER	KitchenTools	12	16	[0, 0, 0]	n/a	catFR1	0	R1279P
1771.768	0.0	1860473	ENCODING_END	n/a	n/a	n/a	n/a	-999	16	[0, 0, 0]	n/a	catFR1	0	R1279P
1771.768	0.105	1860473	WORD_OFF	n/a	n/a	PEELER	n/a	12	16	[0, 0, 0]	n/a	catFR1	0	R1279P
1771.873	0.0	1860578	DISTRACT_START	n/a	n/a	n/a	n/a	-999	16	[0, 0, 0]	n/a	catFR1	0	R1279P
1771.873	0.011	1860578	START	n/a	n/a	n/a	n/a	-999	16	[-999, -999, -999]	n/a	catFR1	0	R1279P
1771.884	5.902	1860589	PROB	5.866	n/a	n/a	n/a	-999	16	[6, 3, 2]	11.0	catFR1	0	R1279P
1777.786	6.935	1866491	PROB	6.899	n/a	n/a	n/a	-999	16	[3, 7, 4]	14.0	catFR1	0	R1279P
1784.721	5.884	1873426	PROB	5.86	n/a	n/a	n/a	-999	16	[5, 1, 8]	14.0	catFR1	0	R1279P
1790.605	6.641	1879309	PROB	6.641	n/a	n/a	n/a	-999	16	[9, 2, 5]	16.0	catFR1	0	R1279P
1797.246	0.011	1885950	STOP	n/a	n/a	n/a	n/a	-999	16	[-999, -999, -999]	n/a	catFR1	0	R1279P
1797.257	0.516	1885961	DISTRACT_END	n/a	n/a	n/a	n/a	-999	16	[0, 0, 0]	n/a	catFR1	0	R1279P
1797.773	0.517	1886477	RETRIEVAL_ORIENT	n/a	n/a	n/a	n/a	-999	16	[0, 0, 0]	n/a	catFR1	0	R1279P
1798.29	1.37	1886994	REC_START	n/a	n/a	n/a	n/a	-999	16	[0, 0, 0]	n/a	catFR1	0	R1279P
1799.66	1.5	1888364	REC_WORD	1.37	n/a	BARBER	n/a	-999	16	[0, 0, 0]	n/a	catFR1	0	R1279P
1801.16	0.891	1889864	REC_WORD	2.87	n/a	LAKE	Landscapes	1	16	[0, 0, 0]	n/a	catFR1	0	R1279P
1802.051	26.251	1890755	REC_WORD	3.761	n/a	BARBER	n/a	-999	16	[0, 0, 0]	n/a	catFR1	0	R1279P
1828.302	5.194	1917004	REC_END	n/a	n/a	n/a	n/a	-999	16	[0, 0, 0]	n/a	catFR1	0	R1279P
1833.496	0.5	1922198	TRIAL	n/a	n/a	n/a	n/a	-999	17	[0, 0, 0]	n/a	catFR1	0	R1279P
1833.996	10.0	1922698	COUNTDOWN_START	n/a	n/a	n/a	n/a	-999	17	[0, 0, 0]	n/a	catFR1	0	R1279P
1844.424	0.008	1933125	COUNTDOWN_END	n/a	n/a	n/a	n/a	-999	17	[0, 0, 0]	n/a	catFR1	0	R1279P
1844.432	1.6	1933133	ORIENT	n/a	n/a	n/a	n/a	-999	17	[0, 0, 0]	n/a	catFR1	0	R1279P
1846.048	2.251	1934749	ORIENT_OFF	n/a	n/a	n/a	n/a	-999	17	[0, 0, 0]	n/a	catFR1	0	R1279P
1848.299	1.6	1937000	WORD	n/a	wordpools/wordpool_categorized_EN.txt	PIE	Desserts	1	17	[0, 0, 0]	n/a	catFR1	0	R1279P
1849.915	0.818	1938616	WORD_OFF	n/a	n/a	PIE	n/a	1	17	[0, 0, 0]	n/a	catFR1	0	R1279P
1850.733	1.6	1939434	WORD	n/a	wordpools/wordpool_categorized_EN.txt	BROWNIES	Desserts	2	17	[0, 0, 0]	n/a	catFR1	0	R1279P
1852.35	0.95	1941051	WORD_OFF	n/a	n/a	BROWNIES	n/a	2	17	[0, 0, 0]	n/a	catFR1	0	R1279P
1853.3	1.6	1942001	WORD	n/a	wordpools/wordpool_categorized_EN.txt	SCANNER	Electronics	3	17	[0, 0, 0]	n/a	catFR1	0	R1279P
1854.916	0.768	1943617	WORD_OFF	n/a	n/a	SCANNER	n/a	3	17	[0, 0, 0]	n/a	catFR1	0	R1279P
1855.684	1.6	1944385	WORD	n/a	wordpools/wordpool_categorized_EN.txt	CALCULATOR	Electronics	4	17	[0, 0, 0]	n/a	catFR1	0	R1279P
1857.301	0.983	1946002	WORD_OFF	n/a	n/a	CALCULATOR	n/a	4	17	[0, 0, 0]	n/a	catFR1	0	R1279P
1858.284	1.6	1946985	WORD	n/a	wordpools/wordpool_categorized_EN.txt	DESK	Furniture	5	17	[0, 0, 0]	n/a	catFR1	0	R1279P
1859.9	0.851	1948601	WORD_OFF	n/a	n/a	DESK	n/a	5	17	[0, 0, 0]	n/a	catFR1	0	R1279P
1860.751	1.6	1949452	WORD	n/a	wordpools/wordpool_categorized_EN.txt	SOFA	Furniture	6	17	[0, 0, 0]	n/a	catFR1	0	R1279P
1862.368	0.816	1951068	WORD_OFF	n/a	n/a	SOFA	n/a	6	17	[0, 0, 0]	n/a	catFR1	0	R1279P
1863.184	1.6	1951884	WORD	n/a	wordpools/wordpool_categorized_EN.txt	TABLET	Electronics	7	17	[0, 0, 0]	n/a	catFR1	0	R1279P
1864.785	0.884	1953485	WORD_OFF	n/a	n/a	TABLET	n/a	7	17	[0, 0, 0]	n/a	catFR1	0	R1279P
1865.669	1.6	1954369	WORD	n/a	wordpools/wordpool_categorized_EN.txt	RADIO	Electronics	8	17	[0, 0, 0]	n/a	catFR1	0	R1279P
1867.286	0.849	1955986	WORD_OFF	n/a	n/a	RADIO	n/a	8	17	[0, 0, 0]	n/a	catFR1	0	R1279P
1868.135	1.6	1956835	WORD	n/a	wordpools/wordpool_categorized_EN.txt	MOUSSE	Desserts	9	17	[0, 0, 0]	n/a	catFR1	0	R1279P
1869.753	0.917	1958453	WORD_OFF	n/a	n/a	MOUSSE	n/a	9	17	[0, 0, 0]	n/a	catFR1	0	R1279P
1870.67	1.6	1959370	WORD	n/a	wordpools/wordpool_categorized_EN.txt	CHEESECAKE	Desserts	10	17	[0, 0, 0]	n/a	catFR1	0	R1279P
1872.287	0.984	1960987	WORD_OFF	n/a	n/a	CHEESECAKE	n/a	10	17	[0, 0, 0]	n/a	catFR1	0	R1279P
1873.271	1.6	1961971	WORD	n/a	wordpools/wordpool_categorized_EN.txt	SHELF	Furniture	11	17	[0, 0, 0]	n/a	catFR1	0	R1279P
1874.887	1.016	1963587	WORD_OFF	n/a	n/a	SHELF	n/a	11	17	[0, 0, 0]	n/a	catFR1	0	R1279P
1875.903	1.6	1964603	WORD	n/a	wordpools/wordpool_categorized_EN.txt	COUCH	Furniture	12	17	[0, 0, 0]	n/a	catFR1	0	R1279P
1877.505	0.0	1966205	ENCODING_END	n/a	n/a	n/a	n/a	-999	17	[0, 0, 0]	n/a	catFR1	0	R1279P
1877.505	0.109	1966205	WORD_OFF	n/a	n/a	COUCH	n/a	12	17	[0, 0, 0]	n/a	catFR1	0	R1279P
1877.614	0.0	1966314	DISTRACT_START	n/a	n/a	n/a	n/a	-999	17	[0, 0, 0]	n/a	catFR1	0	R1279P
1877.614	0.007	1966314	START	n/a	n/a	n/a	n/a	-999	17	[-999, -999, -999]	n/a	catFR1	0	R1279P
1877.621	9.636	1966321	PROB	9.601	n/a	n/a	n/a	-999	17	[6, 4, 9]	19.0	catFR1	0	R1279P
1887.257	4.666	1975956	PROB	4.635	n/a	n/a	n/a	-999	17	[1, 9, 8]	18.0	catFR1	0	R1279P
1891.923	5.469	1980622	PROB	5.443	n/a	n/a	n/a	-999	17	[7, 4, 2]	13.0	catFR1	0	R1279P
1897.392	5.846	1986091	PROB	5.846	n/a	n/a	n/a	-999	17	[3, 7, 8]	18.0	catFR1	0	R1279P
1903.238	0.022	1991936	STOP	n/a	n/a	n/a	n/a	-999	17	[-999, -999, -999]	n/a	catFR1	0	R1279P
1903.26	0.616	1991958	DISTRACT_END	n/a	n/a	n/a	n/a	-999	17	[0, 0, 0]	n/a	catFR1	0	R1279P
1903.876	0.518	1992574	RETRIEVAL_ORIENT	n/a	n/a	n/a	n/a	-999	17	[0, 0, 0]	n/a	catFR1	0	R1279P
1904.394	1.204	1993092	REC_START	n/a	n/a	n/a	n/a	-999	17	[0, 0, 0]	n/a	catFR1	0	R1279P
1905.598	2.57	1994296	REC_WORD	1.204	n/a	PIE	Desserts	1	17	[0, 0, 0]	n/a	catFR1	0	R1279P
1908.168	2.255	1996866	REC_WORD	3.774	n/a	BROWNIES	Desserts	2	17	[0, 0, 0]	n/a	catFR1	0	R1279P
1910.423	23.982	1999121	REC_WORD	6.029	n/a	DISPEL	n/a	-999	17	[0, 0, 0]	n/a	catFR1	0	R1279P
1934.405	5.294	2023102	REC_END	n/a	n/a	n/a	n/a	-999	17	[0, 0, 0]	n/a	catFR1	0	R1279P
1939.699	0.5	2028395	TRIAL	n/a	n/a	n/a	n/a	-999	18	[0, 0, 0]	n/a	catFR1	0	R1279P
1940.199	10.0	2028895	COUNTDOWN_START	n/a	n/a	n/a	n/a	-999	18	[0, 0, 0]	n/a	catFR1	0	R1279P
1950.627	0.008	2039323	COUNTDOWN_END	n/a	n/a	n/a	n/a	-999	18	[0, 0, 0]	n/a	catFR1	0	R1279P
1950.635	1.6	2039331	ORIENT	n/a	n/a	n/a	n/a	-999	18	[0, 0, 0]	n/a	catFR1	0	R1279P
1952.252	1.816	2040948	ORIENT_OFF	n/a	n/a	n/a	n/a	-999	18	[0, 0, 0]	n/a	catFR1	0	R1279P
1954.068	1.6	2042764	WORD	n/a	wordpools/wordpool_categorized_EN.txt	HILLS	Landscapes	1	18	[0, 0, 0]	n/a	catFR1	0	R1279P
1955.686	0.983	2044382	WORD_OFF	n/a	n/a	HILLS	n/a	1	18	[0, 0, 0]	n/a	catFR1	0	R1279P
1956.669	1.6	2045365	WORD	n/a	wordpools/wordpool_categorized_EN.txt	CREEK	Landscapes	2	18	[0, 0, 0]	n/a	catFR1	0	R1279P
1958.27	0.899	2046965	WORD_OFF	n/a	n/a	CREEK	n/a	2	18	[0, 0, 0]	n/a	catFR1	0	R1279P
1959.169	1.6	2047864	WORD	n/a	wordpools/wordpool_categorized_EN.txt	ROOSTER	FarmAnimals	3	18	[0, 0, 0]	n/a	catFR1	0	R1279P
1960.77	0.817	2049465	WORD_OFF	n/a	n/a	ROOSTER	n/a	3	18	[0, 0, 0]	n/a	catFR1	0	R1279P
1961.587	1.6	2050282	WORD	n/a	wordpools/wordpool_categorized_EN.txt	HEN	FarmAnimals	4	18	[0, 0, 0]	n/a	catFR1	0	R1279P
1963.204	0.933	2051899	WORD_OFF	n/a	n/a	HEN	n/a	4	18	[0, 0, 0]	n/a	catFR1	0	R1279P
1964.137	1.6	2052832	WORD	n/a	wordpools/wordpool_categorized_EN.txt	TRUMPET	Instruments	5	18	[0, 0, 0]	n/a	catFR1	0	R1279P
1965.755	0.95	2054450	WORD_OFF	n/a	n/a	TRUMPET	n/a	5	18	[0, 0, 0]	n/a	catFR1	0	R1279P
1966.705	1.6	2055400	WORD	n/a	wordpools/wordpool_categorized_EN.txt	BANJO	Instruments	6	18	[0, 0, 0]	n/a	catFR1	0	R1279P
1968.322	0.917	2057017	WORD_OFF	n/a	n/a	BANJO	n/a	6	18	[0, 0, 0]	n/a	catFR1	0	R1279P
1969.239	1.6	2057934	WORD	n/a	wordpools/wordpool_categorized_EN.txt	OCEAN	Landscapes	7	18	[0, 0, 0]	n/a	catFR1	0	R1279P
1970.856	0.883	2059551	WORD_OFF	n/a	n/a	OCEAN	n/a	7	18	[0, 0, 0]	n/a	catFR1	0	R1279P
1971.739	1.6	2060434	WORD	n/a	wordpools/wordpool_categorized_EN.txt	ISLAND	Landscapes	8	18	[0, 0, 0]	n/a	catFR1	0	R1279P
1973.356	0.867	2062051	WORD_OFF	n/a	n/a	ISLAND	n/a	8	18	[0, 0, 0]	n/a	catFR1	0	R1279P
1974.223	1.6	2062918	WORD	n/a	wordpools/wordpool_categorized_EN.txt	CALF	FarmAnimals	9	18	[0, 0, 0]	n/a	catFR1	0	R1279P
1975.84	0.983	2064535	WORD_OFF	n/a	n/a	CALF	n/a	9	18	[0, 0, 0]	n/a	catFR1	0	R1279P
1976.823	1.6	2065517	WORD	n/a	wordpools/wordpool_categorized_EN.txt	BULL	FarmAnimals	10	18	[0, 0, 0]	n/a	catFR1	0	R1279P
1978.44	1.001	2067134	WORD_OFF	n/a	n/a	BULL	n/a	10	18	[0, 0, 0]	n/a	catFR1	0	R1279P
1979.441	1.6	2068135	WORD	n/a	wordpools/wordpool_categorized_EN.txt	GUITAR	Instruments	11	18	[0, 0, 0]	n/a	catFR1	0	R1279P
1981.057	0.95	2069751	WORD_OFF	n/a	n/a	GUITAR	n/a	11	18	[0, 0, 0]	n/a	catFR1	0	R1279P
1982.007	1.6	2070701	WORD	n/a	wordpools/wordpool_categorized_EN.txt	TUBA	Instruments	12	18	[0, 0, 0]	n/a	catFR1	0	R1279P
1983.625	0.0	2072319	ENCODING_END	n/a	n/a	n/a	n/a	-999	18	[0, 0, 0]	n/a	catFR1	0	R1279P
1983.625	0.142	2072319	WORD_OFF	n/a	n/a	TUBA	n/a	12	18	[0, 0, 0]	n/a	catFR1	0	R1279P
1983.767	0.0	2072461	DISTRACT_START	n/a	n/a	n/a	n/a	-999	18	[0, 0, 0]	n/a	catFR1	0	R1279P
1983.767	0.024	2072461	START	n/a	n/a	n/a	n/a	-999	18	[-999, -999, -999]	n/a	catFR1	0	R1279P
1983.791	4.918	2072485	PROB	4.887	n/a	n/a	n/a	-999	18	[4, 4, 5]	13.0	catFR1	0	R1279P
1988.709	6.168	2077403	PROB	6.145	n/a	n/a	n/a	-999	18	[7, 7, 9]	23.0	catFR1	0	R1279P
1994.877	6.117	2083571	PROB	6.08	n/a	n/a	n/a	-999	18	[4, 7, 3]	14.0	catFR1	0	R1279P
2000.994	6.339	2089687	PROB	6.339	n/a	n/a	n/a	-999	18	[5, 3, 7]	15.0	catFR1	0	R1279P
2007.333	0.013	2096026	STOP	n/a	n/a	n/a	n/a	-999	18	[-999, -999, -999]	n/a	catFR1	0	R1279P
2007.346	0.582	2096039	DISTRACT_END	n/a	n/a	n/a	n/a	-999	18	[0, 0, 0]	n/a	catFR1	0	R1279P
2007.928	0.519	2096621	RETRIEVAL_ORIENT	n/a	n/a	n/a	n/a	-999	18	[0, 0, 0]	n/a	catFR1	0	R1279P
2008.447	2.124	2097140	REC_START	n/a	n/a	n/a	n/a	-999	18	[0, 0, 0]	n/a	catFR1	0	R1279P
2010.571	3.095	2099264	REC_WORD	2.124	n/a	ONION	n/a	-999	18	[0, 0, 0]	n/a	catFR1	0	R1279P
2013.666	24.792	2102359	REC_WORD	5.219	n/a	CREEK	Landscapes	2	18	[0, 0, 0]	n/a	catFR1	0	R1279P
2038.458	5.028	2127149	REC_END	n/a	n/a	n/a	n/a	-999	18	[0, 0, 0]	n/a	catFR1	0	R1279P
2043.486	0.5	2132177	TRIAL	n/a	n/a	n/a	n/a	-999	19	[0, 0, 0]	n/a	catFR1	0	R1279P
2043.986	10.0	2132677	COUNTDOWN_START	n/a	n/a	n/a	n/a	-999	19	[0, 0, 0]	n/a	catFR1	0	R1279P
2054.414	0.007	2143104	COUNTDOWN_END	n/a	n/a	n/a	n/a	-999	19	[0, 0, 0]	n/a	catFR1	0	R1279P
2054.421	1.6	2143111	ORIENT	n/a	n/a	n/a	n/a	-999	19	[0, 0, 0]	n/a	catFR1	0	R1279P
2056.037	1.884	2144727	ORIENT_OFF	n/a	n/a	n/a	n/a	-999	19	[0, 0, 0]	n/a	catFR1	0	R1279P
2057.921	1.6	2146611	WORD	n/a	wordpools/wordpool_categorized_EN.txt	ROOF	Building	1	19	[0, 0, 0]	n/a	catFR1	0	R1279P
2059.539	0.95	2148229	WORD_OFF	n/a	n/a	ROOF	n/a	1	19	[0, 0, 0]	n/a	catFR1	0	R1279P
2060.489	1.6	2149179	WORD	n/a	wordpools/wordpool_categorized_EN.txt	WINDOW	Building	2	19	[0, 0, 0]	n/a	catFR1	0	R1279P
2062.105	0.95	2150795	WORD_OFF	n/a	n/a	WINDOW	n/a	2	19	[0, 0, 0]	n/a	catFR1	0	R1279P
2063.055	1.6	2151745	WORD	n/a	wordpools/wordpool_categorized_EN.txt	BEER	Beverages	3	19	[0, 0, 0]	n/a	catFR1	0	R1279P
2064.673	0.917	2153363	WORD_OFF	n/a	n/a	BEER	n/a	3	19	[0, 0, 0]	n/a	catFR1	0	R1279P
2065.59	1.6	2154280	WORD	n/a	wordpools/wordpool_categorized_EN.txt	TEA	Beverages	4	19	[0, 0, 0]	n/a	catFR1	0	R1279P
2067.207	0.783	2155897	WORD_OFF	n/a	n/a	TEA	n/a	4	19	[0, 0, 0]	n/a	catFR1	0	R1279P
2067.99	1.6	2156680	WORD	n/a	wordpools/wordpool_categorized_EN.txt	COOKIE	Desserts	5	19	[0, 0, 0]	n/a	catFR1	0	R1279P
2069.608	0.783	2158298	WORD_OFF	n/a	n/a	COOKIE	n/a	5	19	[0, 0, 0]	n/a	catFR1	0	R1279P
2070.391	1.6	2159081	WORD	n/a	wordpools/wordpool_categorized_EN.txt	COBBLER	Desserts	6	19	[0, 0, 0]	n/a	catFR1	0	R1279P
2072.007	1.017	2160696	WORD_OFF	n/a	n/a	COBBLER	n/a	6	19	[0, 0, 0]	n/a	catFR1	0	R1279P
2073.024	1.6	2161713	WORD	n/a	wordpools/wordpool_categorized_EN.txt	CIDER	Beverages	7	19	[0, 0, 0]	n/a	catFR1	0	R1279P
2074.642	0.933	2163331	WORD_OFF	n/a	n/a	CIDER	n/a	7	19	[0, 0, 0]	n/a	catFR1	0	R1279P
2075.575	1.6	2164264	WORD	n/a	wordpools/wordpool_categorized_EN.txt	WATER	Beverages	8	19	[0, 0, 0]	n/a	catFR1	0	R1279P
2077.191	0.784	2165880	WORD_OFF	n/a	n/a	WATER	n/a	8	19	[0, 0, 0]	n/a	catFR1	0	R1279P
2077.975	1.6	2166664	WORD	n/a	wordpools/wordpool_categorized_EN.txt	DOOR	Building	9	19	[0, 0, 0]	n/a	catFR1	0	R1279P
2079.593	0.867	2168282	WORD_OFF	n/a	n/a	DOOR	n/a	9	19	[0, 0, 0]	n/a	catFR1	0	R1279P
2080.46	1.6	2169149	WORD	n/a	wordpools/wordpool_categorized_EN.txt	BATHROOM	Building	10	19	[0, 0, 0]	n/a	catFR1	0	R1279P
2082.076	0.966	2170765	WORD_OFF	n/a	n/a	BATHROOM	n/a	10	19	[0, 0, 0]	n/a	catFR1	0	R1279P
2083.042	1.6	2171731	WORD	n/a	wordpools/wordpool_categorized_EN.txt	PUDDING	Desserts	11	19	[0, 0, 0]	n/a	catFR1	0	R1279P
2084.66	0.95	2173349	WORD_OFF	n/a	n/a	PUDDING	n/a	11	19	[0, 0, 0]	n/a	catFR1	0	R1279P
2085.61	1.6	2174299	WORD	n/a	wordpools/wordpool_categorized_EN.txt	FUDGE	Desserts	12	19	[0, 0, 0]	n/a	catFR1	0	R1279P
2087.228	0.0	2175917	ENCODING_END	n/a	n/a	n/a	n/a	-999	19	[0, 0, 0]	n/a	catFR1	0	R1279P
2087.228	0.106	2175917	WORD_OFF	n/a	n/a	FUDGE	n/a	12	19	[0, 0, 0]	n/a	catFR1	0	R1279P
2087.334	0.0	2176023	DISTRACT_START	n/a	n/a	n/a	n/a	-999	19	[0, 0, 0]	n/a	catFR1	0	R1279P
2087.334	0.01	2176023	START	n/a	n/a	n/a	n/a	-999	19	[-999, -999, -999]	n/a	catFR1	0	R1279P
2087.344	7.001	2176033	PROB	6.974	n/a	n/a	n/a	-999	19	[1, 2, 8]	13.0	catFR1	0	R1279P
2094.345	5.352	2183033	PROB	5.325	n/a	n/a	n/a	-999	19	[1, 2, 2]	5.0	catFR1	0	R1279P
2099.697	5.634	2188385	PROB	5.597	n/a	n/a	n/a	-999	19	[2, 4, 8]	14.0	catFR1	0	R1279P
2105.331	5.85	2194019	PROB	5.85	n/a	n/a	n/a	-999	19	[4, 8, 8]	20.0	catFR1	0	R1279P
2111.181	0.017	2199868	STOP	n/a	n/a	n/a	n/a	-999	19	[-999, -999, -999]	n/a	catFR1	0	R1279P
2111.198	0.601	2199885	DISTRACT_END	n/a	n/a	n/a	n/a	-999	19	[0, 0, 0]	n/a	catFR1	0	R1279P
2111.799	0.517	2200486	RETRIEVAL_ORIENT	n/a	n/a	n/a	n/a	-999	19	[0, 0, 0]	n/a	catFR1	0	R1279P
2112.316	1.15	2201003	REC_START	n/a	n/a	n/a	n/a	-999	19	[0, 0, 0]	n/a	catFR1	0	R1279P
2113.466	1.55	2202153	REC_WORD	1.15	n/a	ROOF	Building	1	19	[0, 0, 0]	n/a	catFR1	0	R1279P
2115.016	2.079	2203703	REC_WORD	2.7	n/a	TEA	Beverages	4	19	[0, 0, 0]	n/a	catFR1	0	R1279P
2117.095	3.421	2205782	REC_WORD	4.779	n/a	ONION	n/a	-999	19	[0, 0, 0]	n/a	catFR1	0	R1279P
2120.516	21.814	2209203	REC_WORD	8.2	n/a	COFFEE	n/a	-999	19	[0, 0, 0]	n/a	catFR1	0	R1279P
2142.33	5.176	2231016	REC_END	n/a	n/a	n/a	n/a	-999	19	[0, 0, 0]	n/a	catFR1	0	R1279P
2147.506	0.5	2236192	TRIAL	n/a	n/a	n/a	n/a	-999	20	[0, 0, 0]	n/a	catFR1	0	R1279P
2148.006	10.0	2236692	COUNTDOWN_START	n/a	n/a	n/a	n/a	-999	20	[0, 0, 0]	n/a	catFR1	0	R1279P
2158.434	0.007	2247119	COUNTDOWN_END	n/a	n/a	n/a	n/a	-999	20	[0, 0, 0]	n/a	catFR1	0	R1279P
2158.441	1.6	2247126	ORIENT	n/a	n/a	n/a	n/a	-999	20	[0, 0, 0]	n/a	catFR1	0	R1279P
2160.057	2.151	2248742	ORIENT_OFF	n/a	n/a	n/a	n/a	-999	20	[0, 0, 0]	n/a	catFR1	0	R1279P
2162.208	1.6	2250893	WORD	n/a	wordpools/wordpool_categorized_EN.txt	TROMBONE	Instruments	1	20	[0, 0, 0]	n/a	catFR1	0	R1279P
2163.825	0.817	2252510	WORD_OFF	n/a	n/a	TROMBONE	n/a	1	20	[0, 0, 0]	n/a	catFR1	0	R1279P
2164.642	1.6	2253327	WORD	n/a	wordpools/wordpool_categorized_EN.txt	DRUM	Instruments	2	20	[0, 0, 0]	n/a	catFR1	0	R1279P
2166.259	0.832	2254944	WORD_OFF	n/a	n/a	DRUM	n/a	2	20	[0, 0, 0]	n/a	catFR1	0	R1279P
2167.091	1.6	2255776	WORD	n/a	wordpools/wordpool_categorized_EN.txt	THUNDER	Weather	3	20	[0, 0, 0]	n/a	catFR1	0	R1279P
2168.71	0.866	2257394	WORD_OFF	n/a	n/a	THUNDER	n/a	3	20	[0, 0, 0]	n/a	catFR1	0	R1279P
2169.576	1.6	2258260	WORD	n/a	wordpools/wordpool_categorized_EN.txt	HURRICANE	Weather	4	20	[0, 0, 0]	n/a	catFR1	0	R1279P
2171.192	0.967	2259876	WORD_OFF	n/a	n/a	HURRICANE	n/a	4	20	[0, 0, 0]	n/a	catFR1	0	R1279P
2172.159	1.6	2260843	WORD	n/a	wordpools/wordpool_categorized_EN.txt	PENCIL	OfficeSupplies	5	20	[0, 0, 0]	n/a	catFR1	0	R1279P
2173.777	0.867	2262461	WORD_OFF	n/a	n/a	PENCIL	n/a	5	20	[0, 0, 0]	n/a	catFR1	0	R1279P
2174.644	1.6	2263328	WORD	n/a	wordpools/wordpool_categorized_EN.txt	GLUE	OfficeSupplies	6	20	[0, 0, 0]	n/a	catFR1	0	R1279P
2176.261	0.866	2264945	WORD_OFF	n/a	n/a	GLUE	n/a	6	20	[0, 0, 0]	n/a	catFR1	0	R1279P
2177.127	1.6	2265811	WORD	n/a	wordpools/wordpool_categorized_EN.txt	HUMIDITY	Weather	7	20	[0, 0, 0]	n/a	catFR1	0	R1279P
2178.745	0.817	2267429	WORD_OFF	n/a	n/a	HUMIDITY	n/a	7	20	[0, 0, 0]	n/a	catFR1	0	R1279P
2179.562	1.6	2268246	WORD	n/a	wordpools/wordpool_categorized_EN.txt	FOG	Weather	8	20	[0, 0, 0]	n/a	catFR1	0	R1279P
2181.178	0.883	2269862	WORD_OFF	n/a	n/a	FOG	n/a	8	20	[0, 0, 0]	n/a	catFR1	0	R1279P
2182.061	1.6	2270745	WORD	n/a	wordpools/wordpool_categorized_EN.txt	PIANO	Instruments	9	20	[0, 0, 0]	n/a	catFR1	0	R1279P
2183.662	0.951	2272346	WORD_OFF	n/a	n/a	PIANO	n/a	9	20	[0, 0, 0]	n/a	catFR1	0	R1279P
2184.613	1.6	2273297	WORD	n/a	wordpools/wordpool_categorized_EN.txt	FLUTE	Instruments	10	20	[0, 0, 0]	n/a	catFR1	0	R1279P
2186.23	0.882	2274914	WORD_OFF	n/a	n/a	FLUTE	n/a	10	20	[0, 0, 0]	n/a	catFR1	0	R1279P
2187.112	1.6	2275795	WORD	n/a	wordpools/wordpool_categorized_EN.txt	BINDER	OfficeSupplies	11	20	[0, 0, 0]	n/a	catFR1	0	R1279P
2188.73	0.917	2277413	WORD_OFF	n/a	n/a	BINDER	n/a	11	20	[0, 0, 0]	n/a	catFR1	0	R1279P
2189.647	1.6	2278330	WORD	n/a	wordpools/wordpool_categorized_EN.txt	NOTEBOOK	OfficeSupplies	12	20	[0, 0, 0]	n/a	catFR1	0	R1279P
2191.264	0.0	2279947	ENCODING_END	n/a	n/a	n/a	n/a	-999	20	[0, 0, 0]	n/a	catFR1	0	R1279P
2191.264	0.106	2279947	WORD_OFF	n/a	n/a	NOTEBOOK	n/a	12	20	[0, 0, 0]	n/a	catFR1	0	R1279P
2191.37	0.001	2280053	DISTRACT_START	n/a	n/a	n/a	n/a	-999	20	[0, 0, 0]	n/a	catFR1	0	R1279P
2191.371	0.009	2280054	START	n/a	n/a	n/a	n/a	-999	20	[-999, -999, -999]	n/a	catFR1	0	R1279P
2191.38	6.318	2280063	PROB	6.282	n/a	n/a	n/a	-999	20	[1, 5, 8]	14.0	catFR1	0	R1279P
2197.698	6.201	2286381	PROB	6.164	n/a	n/a	n/a	-999	20	[6, 3, 9]	17.0	catFR1	0	R1279P
2203.899	5.402	2292582	PROB	5.37	n/a	n/a	n/a	-999	20	[3, 9, 4]	16.0	catFR1	0	R1279P
2209.301	7.888	2297983	PROB	7.888	n/a	n/a	n/a	-999	20	[8, 7, 5]	20.0	catFR1	0	R1279P
2217.189	0.013	2305871	STOP	n/a	n/a	n/a	n/a	-999	20	[-999, -999, -999]	n/a	catFR1	0	R1279P
2217.202	0.682	2305884	DISTRACT_END	n/a	n/a	n/a	n/a	-999	20	[0, 0, 0]	n/a	catFR1	0	R1279P
2217.884	0.519	2306566	RETRIEVAL_ORIENT	n/a	n/a	n/a	n/a	-999	20	[0, 0, 0]	n/a	catFR1	0	R1279P
2218.403	2.97	2307085	REC_START	n/a	n/a	n/a	n/a	-999	20	[0, 0, 0]	n/a	catFR1	0	R1279P
2221.373	2.33	2310055	REC_WORD	2.97	n/a	DRUM	Instruments	2	20	[0, 0, 0]	n/a	catFR1	0	R1279P
2223.703	6.585	2312385	REC_WORD	5.3	n/a	TROMBONE	Instruments	1	20	[0, 0, 0]	n/a	catFR1	0	R1279P
2230.288	18.127	2318969	REC_WORD	11.885	n/a	ONION	n/a	-999	20	[0, 0, 0]	n/a	catFR1	0	R1279P
2248.415	8.411	2337095	REC_END	n/a	n/a	n/a	n/a	-999	20	[0, 0, 0]	n/a	catFR1	0	R1279P
2256.826	0.5	2345506	TRIAL	n/a	n/a	n/a	n/a	-999	21	[0, 0, 0]	n/a	catFR1	0	R1279P
2257.326	10.0	2346006	COUNTDOWN_START	n/a	n/a	n/a	n/a	-999	21	[0, 0, 0]	n/a	catFR1	0	R1279P
2267.754	0.008	2356433	COUNTDOWN_END	n/a	n/a	n/a	n/a	-999	21	[0, 0, 0]	n/a	catFR1	0	R1279P
2267.762	1.6	2356441	ORIENT	n/a	n/a	n/a	n/a	-999	21	[0, 0, 0]	n/a	catFR1	0	R1279P
2269.378	2.268	2358057	ORIENT_OFF	n/a	n/a	n/a	n/a	-999	21	[0, 0, 0]	n/a	catFR1	0	R1279P
2271.646	1.6	2360325	WORD	n/a	wordpools/wordpool_categorized_EN.txt	PLUM	Fruit	1	21	[0, 0, 0]	n/a	catFR1	0	R1279P
2273.263	0.849	2361942	WORD_OFF	n/a	n/a	PLUM	n/a	1	21	[0, 0, 0]	n/a	catFR1	0	R1279P
2274.112	1.6	2362791	WORD	n/a	wordpools/wordpool_categorized_EN.txt	CHERRY	Fruit	2	21	[0, 0, 0]	n/a	catFR1	0	R1279P
2275.73	0.85	2364409	WORD_OFF	n/a	n/a	CHERRY	n/a	2	21	[0, 0, 0]	n/a	catFR1	0	R1279P
2276.58	1.6	2365259	WORD	n/a	wordpools/wordpool_categorized_EN.txt	LEMONADE	Beverages	3	21	[0, 0, 0]	n/a	catFR1	0	R1279P
2278.196	0.883	2366875	WORD_OFF	n/a	n/a	LEMONADE	n/a	3	21	[0, 0, 0]	n/a	catFR1	0	R1279P
2279.079	1.6	2367758	WORD	n/a	wordpools/wordpool_categorized_EN.txt	COLA	Beverages	4	21	[0, 0, 0]	n/a	catFR1	0	R1279P
2280.697	0.951	2369376	WORD_OFF	n/a	n/a	COLA	n/a	4	21	[0, 0, 0]	n/a	catFR1	0	R1279P
2281.648	1.6	2370327	WORD	n/a	wordpools/wordpool_categorized_EN.txt	ORGAN	Instruments	5	21	[0, 0, 0]	n/a	catFR1	0	R1279P
2283.264	0.967	2371942	WORD_OFF	n/a	n/a	ORGAN	n/a	5	21	[0, 0, 0]	n/a	catFR1	0	R1279P
2284.231	1.6	2372909	WORD	n/a	wordpools/wordpool_categorized_EN.txt	CELLO	Instruments	6	21	[0, 0, 0]	n/a	catFR1	0	R1279P
2285.848	1.0	2374526	WORD_OFF	n/a	n/a	CELLO	n/a	6	21	[0, 0, 0]	n/a	catFR1	0	R1279P
2286.848	1.6	2375526	WORD	n/a	wordpools/wordpool_categorized_EN.txt	COFFEE	Beverages	7	21	[0, 0, 0]	n/a	catFR1	0	R1279P
2288.465	0.801	2377143	WORD_OFF	n/a	n/a	COFFEE	n/a	7	21	[0, 0, 0]	n/a	catFR1	0	R1279P
2289.266	1.6	2377944	WORD	n/a	wordpools/wordpool_categorized_EN.txt	WINE	Beverages	8	21	[0, 0, 0]	n/a	catFR1	0	R1279P
2290.882	0.967	2379560	WORD_OFF	n/a	n/a	WINE	n/a	8	21	[0, 0, 0]	n/a	catFR1	0	R1279P
2291.849	1.6	2380527	WORD	n/a	wordpools/wordpool_categorized_EN.txt	STRAWBERRY	Fruit	9	21	[0, 0, 0]	n/a	catFR1	0	R1279P
2293.466	1.001	2382144	WORD_OFF	n/a	n/a	STRAWBERRY	n/a	9	21	[0, 0, 0]	n/a	catFR1	0	R1279P
2294.467	1.6	2383145	WORD	n/a	wordpools/wordpool_categorized_EN.txt	LEMON	Fruit	10	21	[0, 0, 0]	n/a	catFR1	0	R1279P
2296.083	0.9	2384761	WORD_OFF	n/a	n/a	LEMON	n/a	10	21	[0, 0, 0]	n/a	catFR1	0	R1279P
2296.983	1.6	2385661	WORD	n/a	wordpools/wordpool_categorized_EN.txt	VIOLIN	Instruments	11	21	[0, 0, 0]	n/a	catFR1	0	R1279P
2298.601	1.017	2387279	WORD_OFF	n/a	n/a	VIOLIN	n/a	11	21	[0, 0, 0]	n/a	catFR1	0	R1279P
2299.618	1.6	2388296	WORD	n/a	wordpools/wordpool_categorized_EN.txt	BASS	Instruments	12	21	[0, 0, 0]	n/a	catFR1	0	R1279P
2301.235	0.0	2389912	ENCODING_END	n/a	n/a	n/a	n/a	-999	21	[0, 0, 0]	n/a	catFR1	0	R1279P
2301.235	0.139	2389912	WORD_OFF	n/a	n/a	BASS	n/a	12	21	[0, 0, 0]	n/a	catFR1	0	R1279P
2301.374	0.0	2390051	DISTRACT_START	n/a	n/a	n/a	n/a	-999	21	[0, 0, 0]	n/a	catFR1	0	R1279P
2301.374	0.011	2390051	START	n/a	n/a	n/a	n/a	-999	21	[-999, -999, -999]	n/a	catFR1	0	R1279P
2301.385	4.583	2390062	PROB	4.547	n/a	n/a	n/a	-999	21	[4, 1, 3]	8.0	catFR1	0	R1279P
2305.968	8.118	2394645	PROB	8.084	n/a	n/a	n/a	-999	21	[4, 6, 7]	17.0	catFR1	0	R1279P
2314.086	5.235	2402763	PROB	5.209	n/a	n/a	n/a	-999	21	[8, 3, 5]	16.0	catFR1	0	R1279P
2319.321	3.956	2407998	PROB	3.956	n/a	n/a	n/a	-999	21	[1, 3, 5]	9.0	catFR1	0	R1279P
2323.277	0.012	2411953	STOP	n/a	n/a	n/a	n/a	-999	21	[-999, -999, -999]	n/a	catFR1	0	R1279P
2323.289	0.615	2411965	DISTRACT_END	n/a	n/a	n/a	n/a	-999	21	[0, 0, 0]	n/a	catFR1	0	R1279P
2323.904	0.519	2412580	RETRIEVAL_ORIENT	n/a	n/a	n/a	n/a	-999	21	[0, 0, 0]	n/a	catFR1	0	R1279P
2324.423	1.114	2413099	REC_START	n/a	n/a	n/a	n/a	-999	21	[0, 0, 0]	n/a	catFR1	0	R1279P
2325.537	1.045	2414213	REC_WORD_VV	1.114	n/a	<>	n/a	-999	21	[0, 0, 0]	n/a	catFR1	0	R1279P
2326.582	1.795	2415258	REC_WORD	2.159	n/a	CHERRY	Fruit	2	21	[0, 0, 0]	n/a	catFR1	0	R1279P
2328.377	26.059	2417053	REC_WORD	3.954	n/a	PLUM	Fruit	1	21	[0, 0, 0]	n/a	catFR1	0	R1279P
2354.436	4.826	2443111	REC_END	n/a	n/a	n/a	n/a	-999	21	[0, 0, 0]	n/a	catFR1	0	R1279P
2359.262	0.5	2447936	TRIAL	n/a	n/a	n/a	n/a	-999	22	[0, 0, 0]	n/a	catFR1	0	R1279P
2359.762	10.0	2448436	COUNTDOWN_START	n/a	n/a	n/a	n/a	-999	22	[0, 0, 0]	n/a	catFR1	0	R1279P
2370.19	0.007	2458864	COUNTDOWN_END	n/a	n/a	n/a	n/a	-999	22	[0, 0, 0]	n/a	catFR1	0	R1279P
2370.197	1.6	2458871	ORIENT	n/a	n/a	n/a	n/a	-999	22	[0, 0, 0]	n/a	catFR1	0	R1279P
2371.814	1.934	2460488	ORIENT_OFF	n/a	n/a	n/a	n/a	-999	22	[0, 0, 0]	n/a	catFR1	0	R1279P
2373.748	1.6	2462422	WORD	n/a	wordpools/wordpool_categorized_EN.txt	ERASER	OfficeSupplies	1	22	[0, 0, 0]	n/a	catFR1	0	R1279P
2375.365	0.833	2464039	WORD_OFF	n/a	n/a	ERASER	n/a	1	22	[0, 0, 0]	n/a	catFR1	0	R1279P
2376.198	1.6	2464872	WORD	n/a	wordpools/wordpool_categorized_EN.txt	TAPE	OfficeSupplies	2	22	[0, 0, 0]	n/a	catFR1	0	R1279P
2377.816	0.8	2466489	WORD_OFF	n/a	n/a	TAPE	n/a	2	22	[0, 0, 0]	n/a	catFR1	0	R1279P
2378.616	1.6	2467289	WORD	n/a	wordpools/wordpool_categorized_EN.txt	STOVE	Appliances	3	22	[0, 0, 0]	n/a	catFR1	0	R1279P
2380.233	0.915	2468906	WORD_OFF	n/a	n/a	STOVE	n/a	3	22	[0, 0, 0]	n/a	catFR1	0	R1279P
2381.148	1.6	2469821	WORD	n/a	wordpools/wordpool_categorized_EN.txt	IRON	Appliances	4	22	[0, 0, 0]	n/a	catFR1	0	R1279P
2382.75	0.85	2471423	WORD_OFF	n/a	n/a	IRON	n/a	4	22	[0, 0, 0]	n/a	catFR1	0	R1279P
2383.6	1.6	2472273	WORD	n/a	wordpools/wordpool_categorized_EN.txt	CRAB	OceanAnimals	5	22	[0, 0, 0]	n/a	catFR1	0	R1279P
2385.217	0.982	2473890	WORD_OFF	n/a	n/a	CRAB	n/a	5	22	[0, 0, 0]	n/a	catFR1	0	R1279P
2386.199	1.6	2474872	WORD	n/a	wordpools/wordpool_categorized_EN.txt	WHALE	OceanAnimals	6	22	[0, 0, 0]	n/a	catFR1	0	R1279P
2387.818	0.816	2476491	WORD_OFF	n/a	n/a	WHALE	n/a	6	22	[0, 0, 0]	n/a	catFR1	0	R1279P
2388.634	1.6	2477307	WORD	n/a	wordpools/wordpool_categorized_EN.txt	VACUUM	Appliances	7	22	[0, 0, 0]	n/a	catFR1	0	R1279P
2390.251	0.899	2478924	WORD_OFF	n/a	n/a	VACUUM	n/a	7	22	[0, 0, 0]	n/a	catFR1	0	R1279P
2391.15	1.6	2479823	WORD	n/a	wordpools/wordpool_categorized_EN.txt	TOASTER	Appliances	8	22	[0, 0, 0]	n/a	catFR1	0	R1279P
2392.768	0.851	2481441	WORD_OFF	n/a	n/a	TOASTER	n/a	8	22	[0, 0, 0]	n/a	catFR1	0	R1279P
2393.619	1.6	2482292	WORD	n/a	wordpools/wordpool_categorized_EN.txt	PAPER	OfficeSupplies	9	22	[0, 0, 0]	n/a	catFR1	0	R1279P
2395.236	0.849	2483909	WORD_OFF	n/a	n/a	PAPER	n/a	9	22	[0, 0, 0]	n/a	catFR1	0	R1279P
2396.085	1.6	2484758	WORD	n/a	wordpools/wordpool_categorized_EN.txt	PEN	OfficeSupplies	10	22	[0, 0, 0]	n/a	catFR1	0	R1279P
2397.703	0.95	2486375	WORD_OFF	n/a	n/a	PEN	n/a	10	22	[0, 0, 0]	n/a	catFR1	0	R1279P
2398.653	1.6	2487325	WORD	n/a	wordpools/wordpool_categorized_EN.txt	OYSTER	OceanAnimals	11	22	[0, 0, 0]	n/a	catFR1	0	R1279P
2400.27	0.866	2488942	WORD_OFF	n/a	n/a	OYSTER	n/a	11	22	[0, 0, 0]	n/a	catFR1	0	R1279P
2401.136	1.6	2489808	WORD	n/a	wordpools/wordpool_categorized_EN.txt	LOBSTER	OceanAnimals	12	22	[0, 0, 0]	n/a	catFR1	0	R1279P
2402.754	0.0	2491426	ENCODING_END	n/a	n/a	n/a	n/a	-999	22	[0, 0, 0]	n/a	catFR1	0	R1279P
2402.754	0.105	2491426	WORD_OFF	n/a	n/a	LOBSTER	n/a	12	22	[0, 0, 0]	n/a	catFR1	0	R1279P
2402.859	0.0	2491531	DISTRACT_START	n/a	n/a	n/a	n/a	-999	22	[0, 0, 0]	n/a	catFR1	0	R1279P
2402.859	0.011	2491531	START	n/a	n/a	n/a	n/a	-999	22	[-999, -999, -999]	n/a	catFR1	0	R1279P
2402.87	4.985	2491542	PROB	4.952	n/a	n/a	n/a	-999	22	[1, 3, 9]	13.0	catFR1	0	R1279P
2407.855	5.099	2496527	PROB	5.061	n/a	n/a	n/a	-999	22	[8, 4, 2]	14.0	catFR1	0	R1279P
2412.954	4.269	2501626	PROB	4.243	n/a	n/a	n/a	-999	22	[6, 1, 9]	16.0	catFR1	0	R1279P
2417.223	4.883	2505894	PROB	4.854	n/a	n/a	n/a	-999	22	[9, 1, 3]	13.0	catFR1	0	R1279P
2422.106	5.978	2510777	PROB	5.978	n/a	n/a	n/a	-999	22	[3, 8, 4]	15.0	catFR1	0	R1279P
2428.084	0.007	2516755	STOP	n/a	n/a	n/a	n/a	-999	22	[-999, -999, -999]	n/a	catFR1	0	R1279P
2428.091	0.568	2516762	DISTRACT_END	n/a	n/a	n/a	n/a	-999	22	[0, 0, 0]	n/a	catFR1	0	R1279P
2428.659	0.516	2517330	RETRIEVAL_ORIENT	n/a	n/a	n/a	n/a	-999	22	[0, 0, 0]	n/a	catFR1	0	R1279P
2429.175	1.364	2517846	REC_START	n/a	n/a	n/a	n/a	-999	22	[0, 0, 0]	n/a	catFR1	0	R1279P
2430.539	2.015	2519210	REC_WORD	1.364	n/a	ERASER	OfficeSupplies	1	22	[0, 0, 0]	n/a	catFR1	0	R1279P
2432.554	2.916	2521225	REC_WORD	3.379	n/a	OVEN	n/a	-999	22	[0, 0, 0]	n/a	catFR1	0	R1279P
2435.47	23.717	2524140	REC_WORD	6.295	n/a	STOVE	Appliances	3	22	[0, 0, 0]	n/a	catFR1	0	R1279P
2459.187	4.927	2547856	REC_END	n/a	n/a	n/a	n/a	-999	22	[0, 0, 0]	n/a	catFR1	0	R1279P
2464.114	0.5	2552783	TRIAL	n/a	n/a	n/a	n/a	-999	23	[0, 0, 0]	n/a	catFR1	0	R1279P
2464.614	10.0	2553283	COUNTDOWN_START	n/a	n/a	n/a	n/a	-999	23	[0, 0, 0]	n/a	catFR1	0	R1279P
2475.042	0.008	2563710	COUNTDOWN_END	n/a	n/a	n/a	n/a	-999	23	[0, 0, 0]	n/a	catFR1	0	R1279P
2475.05	1.6	2563718	ORIENT	n/a	n/a	n/a	n/a	-999	23	[0, 0, 0]	n/a	catFR1	0	R1279P
2476.667	2.118	2565335	ORIENT_OFF	n/a	n/a	n/a	n/a	-999	23	[0, 0, 0]	n/a	catFR1	0	R1279P
2478.785	1.6	2567453	WORD	n/a	wordpools/wordpool_categorized_EN.txt	SPARROW	Birds	1	23	[0, 0, 0]	n/a	catFR1	0	R1279P
2480.402	0.866	2569070	WORD_OFF	n/a	n/a	SPARROW	n/a	1	23	[0, 0, 0]	n/a	catFR1	0	R1279P
2481.268	1.6	2569936	WORD	n/a	wordpools/wordpool_categorized_EN.txt	GOOSE	Birds	2	23	[0, 0, 0]	n/a	catFR1	0	R1279P
2482.884	0.985	2571552	WORD_OFF	n/a	n/a	GOOSE	n/a	2	23	[0, 0, 0]	n/a	catFR1	0	R1279P
2483.869	1.6	2572537	WORD	n/a	wordpools/wordpool_categorized_EN.txt	PLANKTON	OceanAnimals	3	23	[0, 0, 0]	n/a	catFR1	0	R1279P
2485.486	0.917	2574154	WORD_OFF	n/a	n/a	PLANKTON	n/a	3	23	[0, 0, 0]	n/a	catFR1	0	R1279P
2486.403	1.6	2575071	WORD	n/a	wordpools/wordpool_categorized_EN.txt	SHRIMP	OceanAnimals	4	23	[0, 0, 0]	n/a	catFR1	0	R1279P
2488.019	0.818	2576687	WORD_OFF	n/a	n/a	SHRIMP	n/a	4	23	[0, 0, 0]	n/a	catFR1	0	R1279P
2488.837	1.6	2577505	WORD	n/a	wordpools/wordpool_categorized_EN.txt	PHONE	Electronics	5	23	[0, 0, 0]	n/a	catFR1	0	R1279P
2490.453	0.784	2579121	WORD_OFF	n/a	n/a	PHONE	n/a	5	23	[0, 0, 0]	n/a	catFR1	0	R1279P
2491.237	1.6	2579905	WORD	n/a	wordpools/wordpool_categorized_EN.txt	MICROWAVE	Electronics	6	23	[0, 0, 0]	n/a	catFR1	0	R1279P
2492.854	0.933	2581521	WORD_OFF	n/a	n/a	MICROWAVE	n/a	6	23	[0, 0, 0]	n/a	catFR1	0	R1279P
2493.787	1.6	2582454	WORD	n/a	wordpools/wordpool_categorized_EN.txt	SEAGULL	Birds	7	23	[0, 0, 0]	n/a	catFR1	0	R1279P
2495.404	0.851	2584071	WORD_OFF	n/a	n/a	SEAGULL	n/a	7	23	[0, 0, 0]	n/a	catFR1	0	R1279P
2496.255	1.6	2584922	WORD	n/a	wordpools/wordpool_categorized_EN.txt	HAWK	Birds	8	23	[0, 0, 0]	n/a	catFR1	0	R1279P
2497.872	0.8	2586539	WORD_OFF	n/a	n/a	HAWK	n/a	8	23	[0, 0, 0]	n/a	catFR1	0	R1279P
2498.672	1.6	2587339	WORD	n/a	wordpools/wordpool_categorized_EN.txt	JELLYFISH	OceanAnimals	9	23	[0, 0, 0]	n/a	catFR1	0	R1279P
2500.289	0.766	2588956	WORD_OFF	n/a	n/a	JELLYFISH	n/a	9	23	[0, 0, 0]	n/a	catFR1	0	R1279P
2501.055	1.6	2589722	WORD	n/a	wordpools/wordpool_categorized_EN.txt	SQUID	OceanAnimals	10	23	[0, 0, 0]	n/a	catFR1	0	R1279P
2502.672	0.867	2591339	WORD_OFF	n/a	n/a	SQUID	n/a	10	23	[0, 0, 0]	n/a	catFR1	0	R1279P
2503.539	1.6	2592206	WORD	n/a	wordpools/wordpool_categorized_EN.txt	STEREO	Electronics	11	23	[0, 0, 0]	n/a	catFR1	0	R1279P
2505.155	0.9	2593822	WORD_OFF	n/a	n/a	STEREO	n/a	11	23	[0, 0, 0]	n/a	catFR1	0	R1279P
2506.055	1.6	2594722	WORD	n/a	wordpools/wordpool_categorized_EN.txt	SPEAKER	Electronics	12	23	[0, 0, 0]	n/a	catFR1	0	R1279P
2507.673	0.001	2596340	WORD_OFF	n/a	n/a	SPEAKER	n/a	12	23	[0, 0, 0]	n/a	catFR1	0	R1279P
2507.674	0.106	2596341	ENCODING_END	n/a	n/a	n/a	n/a	-999	23	[0, 0, 0]	n/a	catFR1	0	R1279P
2507.78	0.0	2596447	DISTRACT_START	n/a	n/a	n/a	n/a	-999	23	[0, 0, 0]	n/a	catFR1	0	R1279P
2507.78	0.01	2596447	START	n/a	n/a	n/a	n/a	-999	23	[-999, -999, -999]	n/a	catFR1	0	R1279P
2507.79	13.019	2596457	PROB	12.993	n/a	n/a	n/a	-999	23	[9, 7, 7]	12.0	catFR1	0	R1279P
2520.809	5.751	2609475	PROB	5.716	n/a	n/a	n/a	-999	23	[8, 6, 1]	15.0	catFR1	0	R1279P
2526.56	9.661	2615226	PROB	9.661	n/a	n/a	n/a	-999	23	[8, 9, 6]	23.0	catFR1	0	R1279P
2536.221	0.008	2624886	STOP	n/a	n/a	n/a	n/a	-999	23	[-999, -999, -999]	n/a	catFR1	0	R1279P
2536.229	0.633	2624894	DISTRACT_END	n/a	n/a	n/a	n/a	-999	23	[0, 0, 0]	n/a	catFR1	0	R1279P
2536.862	0.518	2625527	RETRIEVAL_ORIENT	n/a	n/a	n/a	n/a	-999	23	[0, 0, 0]	n/a	catFR1	0	R1279P
2537.38	1.214	2626045	REC_START	n/a	n/a	n/a	n/a	-999	23	[0, 0, 0]	n/a	catFR1	0	R1279P
2538.594	2.296	2627259	REC_WORD	1.214	n/a	MICROWAVE	Electronics	6	23	[0, 0, 0]	n/a	catFR1	0	R1279P
2540.89	3.79	2629555	REC_WORD	3.51	n/a	SPARROW	Birds	1	23	[0, 0, 0]	n/a	catFR1	0	R1279P
2544.68	22.712	2633345	REC_WORD	7.3	n/a	ONION	n/a	-999	23	[0, 0, 0]	n/a	catFR1	0	R1279P
2567.392	4.96	2656056	REC_END	n/a	n/a	n/a	n/a	-999	23	[0, 0, 0]	n/a	catFR1	0	R1279P
2572.352	0.5	2661015	TRIAL	n/a	n/a	n/a	n/a	-999	24	[0, 0, 0]	n/a	catFR1	0	R1279P
2572.852	10.0	2661515	COUNTDOWN_START	n/a	n/a	n/a	n/a	-999	24	[0, 0, 0]	n/a	catFR1	0	R1279P
