onset	duration	sample	trial_type	response_time	stim_file	item_name	category	serialpos	list	test	answer	experiment	session	subject
0.0	35.101	-1	SESS_START	n/a	n/a	n/a	n/a	-999	-999	[0, 0, 0]	n/a	catFR1	1	R1141T
35.101	10.428	4363	COUNTDOWN_START	n/a	n/a	n/a	n/a	-999	-999	[0, 0, 0]	n/a	catFR1	1	R1141T
45.529	3.558	14790	COUNTDOWN_END	n/a	n/a	n/a	n/a	-999	-999	[0, 0, 0]	n/a	catFR1	1	R1141T
49.087	2.416	18348	PRACTICE_WORD	n/a	n/a	RING	n/a	-999	-999	[0, 0, 0]	n/a	catFR1	1	R1141T
51.503	2.368	20764	PRACTICE_WORD	n/a	n/a	CAMEL	n/a	-999	-999	[0, 0, 0]	n/a	catFR1	1	R1141T
53.871	2.6	23132	PRACTICE_WORD	n/a	n/a	ATTIC	n/a	-999	-999	[0, 0, 0]	n/a	catFR1	1	R1141T
56.471	2.568	25732	PRACTICE_WORD	n/a	n/a	TONGUE	n/a	-999	-999	[0, 0, 0]	n/a	catFR1	1	R1141T
59.039	2.4	28299	PRACTICE_WORD	n/a	n/a	WATCH	n/a	-999	-999	[0, 0, 0]	n/a	catFR1	1	R1141T
61.439	2.518	30699	PRACTICE_WORD	n/a	n/a	FLOOD	n/a	-999	-999	[0, 0, 0]	n/a	catFR1	1	R1141T
63.957	2.432	33217	PRACTICE_WORD	n/a	n/a	RHINO	n/a	-999	-999	[0, 0, 0]	n/a	catFR1	1	R1141T
66.389	2.485	35649	PRACTICE_WORD	n/a	n/a	CHEST	n/a	-999	-999	[0, 0, 0]	n/a	catFR1	1	R1141T
68.874	2.616	38134	PRACTICE_WORD	n/a	n/a	IRON	n/a	-999	-999	[0, 0, 0]	n/a	catFR1	1	R1141T
71.49	2.602	40750	PRACTICE_WORD	n/a	n/a	BEAM	n/a	-999	-999	[0, 0, 0]	n/a	catFR1	1	R1141T
74.092	2.499	43352	PRACTICE_WORD	n/a	n/a	COTTON	n/a	-999	-999	[0, 0, 0]	n/a	catFR1	1	R1141T
76.591	1.601	45851	PRACTICE_WORD	n/a	n/a	WAGON	n/a	-999	-999	[0, 0, 0]	n/a	catFR1	1	R1141T
78.192	0.001	47452	PRACTICE_DISTRACT_START	n/a	n/a	n/a	n/a	-999	-999	[0, 0, 0]	n/a	catFR1	1	R1141T
78.193	0.016	47453	START	n/a	n/a	n/a	n/a	-999	-1	[-999, -999, -999]	n/a	catFR1	1	R1141T
78.209	4.951	47469	PROB	4.951	n/a	n/a	n/a	-999	-1	[8, 1, 5]	14	catFR1	1	R1141T
83.16	5.6	52419	PROB	5.6	n/a	n/a	n/a	-999	-1	[1, 5, 2]	8	catFR1	1	R1141T
88.76	4.751	58019	PROB	4.751	n/a	n/a	n/a	-999	-1	[7, 6, 1]	14	catFR1	1	R1141T
93.511	2.851	62770	PROB	2.851	n/a	n/a	n/a	-999	-1	[4, 6, 8]	18	catFR1	1	R1141T
96.362	2.121	65621	PROB	2.121	n/a	n/a	n/a	-999	-1	[1, 2, 1]	4	catFR1	1	R1141T
98.483	0.012	67742	STOP	n/a	n/a	n/a	n/a	-999	-1	[-999, -999, -999]	n/a	catFR1	1	R1141T
98.495	0.554	67754	PRACTICE_DISTRACT_END	n/a	n/a	n/a	n/a	-999	-999	[0, 0, 0]	n/a	catFR1	1	R1141T
99.049	30.513	68308	PRACTICE_REC_START	n/a	n/a	n/a	n/a	-999	-999	[0, 0, 0]	n/a	catFR1	1	R1141T
129.562	15.309	98819	PRACTICE_REC_END	n/a	n/a	n/a	n/a	-999	-999	[0, 0, 0]	n/a	catFR1	1	R1141T
144.871	0.0	114127	COUNTDOWN_START	n/a	n/a	n/a	n/a	-999	1	[0, 0, 0]	n/a	catFR1	1	R1141T
144.871	10.428	114127	TRIAL	n/a	n/a	n/a	n/a	-999	1	[0, 0, 0]	n/a	catFR1	1	R1141T
155.299	0.008	124555	COUNTDOWN_END	n/a	n/a	n/a	n/a	-999	1	[0, 0, 0]	n/a	catFR1	1	R1141T
155.307	3.967	124563	ORIENT	n/a	n/a	n/a	n/a	-999	1	[0, 0, 0]	n/a	catFR1	1	R1141T
159.274	2.483	128530	WORD	n/a	wordpools/wordpool_categorized_EN.txt	TUBA	Instruments	1	1	[0, 0, 0]	n/a	catFR1	1	R1141T
161.757	2.401	131012	WORD	n/a	wordpools/wordpool_categorized_EN.txt	CELLO	Instruments	2	1	[0, 0, 0]	n/a	catFR1	1	R1141T
164.158	2.466	133413	WORD	n/a	wordpools/wordpool_categorized_EN.txt	TABLE	Furniture	3	1	[0, 0, 0]	n/a	catFR1	1	R1141T
166.624	2.485	135879	WORD	n/a	wordpools/wordpool_categorized_EN.txt	DRESSER	Furniture	4	1	[0, 0, 0]	n/a	catFR1	1	R1141T
169.109	2.399	138364	WORD	n/a	wordpools/wordpool_categorized_EN.txt	BULL	FarmAnimals	5	1	[0, 0, 0]	n/a	catFR1	1	R1141T
171.508	2.519	140763	WORD	n/a	wordpools/wordpool_categorized_EN.txt	GOAT	FarmAnimals	6	1	[0, 0, 0]	n/a	catFR1	1	R1141T
174.027	2.482	143282	WORD	n/a	wordpools/wordpool_categorized_EN.txt	BASS	Instruments	7	1	[0, 0, 0]	n/a	catFR1	1	R1141T
176.509	2.419	145764	WORD	n/a	wordpools/wordpool_categorized_EN.txt	FLUTE	Instruments	8	1	[0, 0, 0]	n/a	catFR1	1	R1141T
178.928	2.566	148183	WORD	n/a	wordpools/wordpool_categorized_EN.txt	LAMB	FarmAnimals	9	1	[0, 0, 0]	n/a	catFR1	1	R1141T
181.494	2.384	150748	WORD	n/a	wordpools/wordpool_categorized_EN.txt	HEN	FarmAnimals	10	1	[0, 0, 0]	n/a	catFR1	1	R1141T
183.878	2.583	153132	WORD	n/a	wordpools/wordpool_categorized_EN.txt	SOFA	Furniture	11	1	[0, 0, 0]	n/a	catFR1	1	R1141T
186.461	1.618	155715	WORD	n/a	wordpools/wordpool_categorized_EN.txt	BOOKCASE	Furniture	12	1	[0, 0, 0]	n/a	catFR1	1	R1141T
188.079	0.001	157333	DISTRACT_START	n/a	n/a	n/a	n/a	-999	1	[0, 0, 0]	n/a	catFR1	1	R1141T
188.08	0.016	157334	START	n/a	n/a	n/a	n/a	-999	1	[-999, -999, -999]	n/a	catFR1	1	R1141T
188.096	4.583	157350	PROB	4.583	n/a	n/a	n/a	-999	1	[9, 6, 6]	23	catFR1	1	R1141T
192.679	2.451	161933	PROB	2.451	n/a	n/a	n/a	-999	1	[2, 6, 4]	12	catFR1	1	R1141T
195.13	1.633	164384	PROB	1.633	n/a	n/a	n/a	-999	1	[3, 1, 1]	5	catFR1	1	R1141T
196.763	2.435	166017	PROB	2.435	n/a	n/a	n/a	-999	1	[2, 1, 7]	10	catFR1	1	R1141T
199.198	3.867	168452	PROB	3.867	n/a	n/a	n/a	-999	1	[8, 9, 2]	19	catFR1	1	R1141T
203.065	2.5	172318	PROB	2.5	n/a	n/a	n/a	-999	1	[6, 4, 7]	17	catFR1	1	R1141T
205.565	2.418	174818	PROB	2.418	n/a	n/a	n/a	-999	1	[3, 9, 1]	13	catFR1	1	R1141T
207.983	2.196	177236	PROB	2.196	n/a	n/a	n/a	-999	1	[3, 7, 5]	15	catFR1	1	R1141T
210.179	0.004	179432	STOP	n/a	n/a	n/a	n/a	-999	1	[-999, -999, -999]	n/a	catFR1	1	R1141T
210.183	1.155	179436	DISTRACT_END	n/a	n/a	n/a	n/a	-999	1	[0, 0, 0]	n/a	catFR1	1	R1141T
211.338	1.252	180591	REC_START	n/a	n/a	n/a	n/a	-999	1	[0, 0, 0]	n/a	catFR1	1	R1141T
212.59	1.859	181843	REC_WORD	1.859	n/a	HEN	FarmAnimals	10	1	[0, 0, 0]	n/a	catFR1	1	R1141T
214.449	1.628	183702	REC_WORD	1.628	n/a	BULL	FarmAnimals	5	1	[0, 0, 0]	n/a	catFR1	1	R1141T
216.077	1.316	185330	REC_WORD	1.316	n/a	BASS	Instruments	7	1	[0, 0, 0]	n/a	catFR1	1	R1141T
217.393	21.091	186646	REC_WORD	21.091	n/a	CELLO	Instruments	2	1	[0, 0, 0]	n/a	catFR1	1	R1141T
238.484	2.86	207736	REC_WORD	2.86	n/a	WAGON	n/a	-999	1	[0, 0, 0]	n/a	catFR1	1	R1141T
241.344	1.895	210596	REC_END	n/a	n/a	n/a	n/a	-999	1	[0, 0, 0]	n/a	catFR1	1	R1141T
243.239	0.0	212490	TRIAL	n/a	n/a	n/a	n/a	-999	2	[0, 0, 0]	n/a	catFR1	1	R1141T
243.239	10.428	212490	COUNTDOWN_START	n/a	n/a	n/a	n/a	-999	2	[0, 0, 0]	n/a	catFR1	1	R1141T
253.667	0.006	222918	COUNTDOWN_END	n/a	n/a	n/a	n/a	-999	2	[0, 0, 0]	n/a	catFR1	1	R1141T
253.673	3.784	222924	ORIENT	n/a	n/a	n/a	n/a	-999	2	[0, 0, 0]	n/a	catFR1	1	R1141T
257.457	2.402	226708	WORD	n/a	wordpools/wordpool_categorized_EN.txt	SCANNER	Electronics	1	2	[0, 0, 0]	n/a	catFR1	1	R1141T
259.859	2.45	229110	WORD	n/a	wordpools/wordpool_categorized_EN.txt	HEADPHONES	Electronics	2	2	[0, 0, 0]	n/a	catFR1	1	R1141T
262.309	2.584	231560	WORD	n/a	wordpools/wordpool_categorized_EN.txt	DAISY	Flowers	3	2	[0, 0, 0]	n/a	catFR1	1	R1141T
264.893	2.466	234143	WORD	n/a	wordpools/wordpool_categorized_EN.txt	ROSE	Flowers	4	2	[0, 0, 0]	n/a	catFR1	1	R1141T
267.359	2.585	236609	WORD	n/a	wordpools/wordpool_categorized_EN.txt	FOG	Weather	5	2	[0, 0, 0]	n/a	catFR1	1	R1141T
269.944	2.416	239194	WORD	n/a	wordpools/wordpool_categorized_EN.txt	THUNDER	Weather	6	2	[0, 0, 0]	n/a	catFR1	1	R1141T
272.36	2.535	241610	WORD	n/a	wordpools/wordpool_categorized_EN.txt	RADIO	Electronics	7	2	[0, 0, 0]	n/a	catFR1	1	R1141T
274.895	2.616	244145	WORD	n/a	wordpools/wordpool_categorized_EN.txt	TABLET	Electronics	8	2	[0, 0, 0]	n/a	catFR1	1	R1141T
277.511	2.602	246761	WORD	n/a	wordpools/wordpool_categorized_EN.txt	SNOW	Weather	9	2	[0, 0, 0]	n/a	catFR1	1	R1141T
280.113	2.499	249363	WORD	n/a	wordpools/wordpool_categorized_EN.txt	HUMIDITY	Weather	10	2	[0, 0, 0]	n/a	catFR1	1	R1141T
282.612	2.601	251862	WORD	n/a	wordpools/wordpool_categorized_EN.txt	VIOLET	Flowers	11	2	[0, 0, 0]	n/a	catFR1	1	R1141T
285.213	1.617	254462	WORD	n/a	wordpools/wordpool_categorized_EN.txt	CARNATION	Flowers	12	2	[0, 0, 0]	n/a	catFR1	1	R1141T
286.83	0.001	256079	DISTRACT_START	n/a	n/a	n/a	n/a	-999	2	[0, 0, 0]	n/a	catFR1	1	R1141T
286.831	0.016	256080	START	n/a	n/a	n/a	n/a	-999	2	[-999, -999, -999]	n/a	catFR1	1	R1141T
286.847	3.334	256096	PROB	3.334	n/a	n/a	n/a	-999	2	[4, 4, 9]	17	catFR1	1	R1141T
290.181	2.199	259430	PROB	2.199	n/a	n/a	n/a	-999	2	[2, 7, 2]	10	catFR1	1	R1141T
292.38	1.967	261629	PROB	1.967	n/a	n/a	n/a	-999	2	[3, 4, 1]	8	catFR1	1	R1141T
294.347	2.919	263596	PROB	2.919	n/a	n/a	n/a	-999	2	[8, 1, 5]	14	catFR1	1	R1141T
297.266	2.099	266515	PROB	2.099	n/a	n/a	n/a	-999	2	[6, 5, 4]	15	catFR1	1	R1141T
299.365	3.051	268614	PROB	3.051	n/a	n/a	n/a	-999	2	[4, 8, 8]	20	catFR1	1	R1141T
302.416	2.35	271665	PROB	2.35	n/a	n/a	n/a	-999	2	[9, 2, 3]	14	catFR1	1	R1141T
304.766	3.318	274014	PROB	3.318	n/a	n/a	n/a	-999	2	[4, 3, 4]	11	catFR1	1	R1141T
308.084	0.017	277332	STOP	n/a	n/a	n/a	n/a	-999	2	[-999, -999, -999]	n/a	catFR1	1	R1141T
308.101	1.084	277349	DISTRACT_END	n/a	n/a	n/a	n/a	-999	2	[0, 0, 0]	n/a	catFR1	1	R1141T
309.185	1.355	278433	REC_START	n/a	n/a	n/a	n/a	-999	2	[0, 0, 0]	n/a	catFR1	1	R1141T
310.54	4.449	279788	REC_WORD	4.449	n/a	ROSE	Flowers	4	2	[0, 0, 0]	n/a	catFR1	1	R1141T
314.989	3.634	284237	REC_WORD	3.634	n/a	DAISY	Flowers	3	2	[0, 0, 0]	n/a	catFR1	1	R1141T
318.623	7.772	287871	REC_WORD	7.772	n/a	LILY	n/a	-999	2	[0, 0, 0]	n/a	catFR1	1	R1141T
326.395	12.802	295642	REC_WORD	12.802	n/a	BOX	n/a	-999	2	[0, 0, 0]	n/a	catFR1	1	R1141T
339.197	1.977	308444	REC_END	n/a	n/a	n/a	n/a	-999	2	[0, 0, 0]	n/a	catFR1	1	R1141T
341.174	0.0	310421	COUNTDOWN_START	n/a	n/a	n/a	n/a	-999	3	[0, 0, 0]	n/a	catFR1	1	R1141T
341.174	10.428	310421	TRIAL	n/a	n/a	n/a	n/a	-999	3	[0, 0, 0]	n/a	catFR1	1	R1141T
351.602	0.006	320848	COUNTDOWN_END	n/a	n/a	n/a	n/a	-999	3	[0, 0, 0]	n/a	catFR1	1	R1141T
351.608	3.9	320854	ORIENT	n/a	n/a	n/a	n/a	-999	3	[0, 0, 0]	n/a	catFR1	1	R1141T
355.508	2.602	324754	WORD	n/a	wordpools/wordpool_categorized_EN.txt	SUNFLOWER	Flowers	1	3	[0, 0, 0]	n/a	catFR1	1	R1141T
358.11	2.483	327356	WORD	n/a	wordpools/wordpool_categorized_EN.txt	MARIGOLD	Flowers	2	3	[0, 0, 0]	n/a	catFR1	1	R1141T
360.593	2.585	329839	WORD	n/a	wordpools/wordpool_categorized_EN.txt	TURTLE	OceanAnimals	3	3	[0, 0, 0]	n/a	catFR1	1	R1141T
363.178	2.499	332424	WORD	n/a	wordpools/wordpool_categorized_EN.txt	FISH	OceanAnimals	4	3	[0, 0, 0]	n/a	catFR1	1	R1141T
365.677	2.535	334922	WORD	n/a	wordpools/wordpool_categorized_EN.txt	FOOTBALL	Toys	5	3	[0, 0, 0]	n/a	catFR1	1	R1141T
368.212	2.483	337457	WORD	n/a	wordpools/wordpool_categorized_EN.txt	FRISBEE	Toys	6	3	[0, 0, 0]	n/a	catFR1	1	R1141T
370.695	2.618	339940	WORD	n/a	wordpools/wordpool_categorized_EN.txt	TULIP	Flowers	7	3	[0, 0, 0]	n/a	catFR1	1	R1141T
373.313	2.433	342558	WORD	n/a	wordpools/wordpool_categorized_EN.txt	PETUNIA	Flowers	8	3	[0, 0, 0]	n/a	catFR1	1	R1141T
375.746	2.568	344991	WORD	n/a	wordpools/wordpool_categorized_EN.txt	SLINKY	Toys	9	3	[0, 0, 0]	n/a	catFR1	1	R1141T
378.314	2.466	347559	WORD	n/a	wordpools/wordpool_categorized_EN.txt	BASEBALL	Toys	10	3	[0, 0, 0]	n/a	catFR1	1	R1141T
380.78	2.55	350025	WORD	n/a	wordpools/wordpool_categorized_EN.txt	LOBSTER	OceanAnimals	11	3	[0, 0, 0]	n/a	catFR1	1	R1141T
383.33	1.618	352575	WORD	n/a	wordpools/wordpool_categorized_EN.txt	DOLPHIN	OceanAnimals	12	3	[0, 0, 0]	n/a	catFR1	1	R1141T
384.948	0.001	354193	DISTRACT_START	n/a	n/a	n/a	n/a	-999	3	[0, 0, 0]	n/a	catFR1	1	R1141T
384.949	0.016	354194	START	n/a	n/a	n/a	n/a	-999	3	[-999, -999, -999]	n/a	catFR1	1	R1141T
384.965	3.516	354210	PROB	3.516	n/a	n/a	n/a	-999	3	[8, 8, 5]	21	catFR1	1	R1141T
388.481	2.934	357725	PROB	2.934	n/a	n/a	n/a	-999	3	[7, 6, 9]	22	catFR1	1	R1141T
391.415	3.452	360659	PROB	3.452	n/a	n/a	n/a	-999	3	[8, 8, 2]	18	catFR1	1	R1141T
394.867	1.716	364111	PROB	1.716	n/a	n/a	n/a	-999	3	[3, 7, 2]	12	catFR1	1	R1141T
396.583	3.084	365827	PROB	3.084	n/a	n/a	n/a	-999	3	[3, 3, 2]	8	catFR1	1	R1141T
399.667	3.083	368911	PROB	3.083	n/a	n/a	n/a	-999	3	[8, 4, 3]	15	catFR1	1	R1141T
402.75	1.967	371994	PROB	1.967	n/a	n/a	n/a	-999	3	[7, 2, 3]	12	catFR1	1	R1141T
404.717	3.262	373961	PROB	3.262	n/a	n/a	n/a	-999	3	[9, 5, 2]	16	catFR1	1	R1141T
407.979	0.007	377222	STOP	n/a	n/a	n/a	n/a	-999	3	[-999, -999, -999]	n/a	catFR1	1	R1141T
407.986	1.117	377229	DISTRACT_END	n/a	n/a	n/a	n/a	-999	3	[0, 0, 0]	n/a	catFR1	1	R1141T
409.103	2.037	378346	REC_START	n/a	n/a	n/a	n/a	-999	3	[0, 0, 0]	n/a	catFR1	1	R1141T
411.14	3.015	380383	REC_WORD	3.015	n/a	SUNFLOWER	Flowers	1	3	[0, 0, 0]	n/a	catFR1	1	R1141T
414.155	9.629	383398	REC_WORD	9.629	n/a	LILY	n/a	-999	3	[0, 0, 0]	n/a	catFR1	1	R1141T
423.784	1.906	393027	REC_WORD	1.906	n/a	FRISBEE	Toys	6	3	[0, 0, 0]	n/a	catFR1	1	R1141T
425.69	13.428	394933	REC_WORD	13.428	n/a	TURTLE	OceanAnimals	3	3	[0, 0, 0]	n/a	catFR1	1	R1141T
439.118	1.974	408360	REC_END	n/a	n/a	n/a	n/a	-999	3	[0, 0, 0]	n/a	catFR1	1	R1141T
441.092	0.0	410334	TRIAL	n/a	n/a	n/a	n/a	-999	4	[0, 0, 0]	n/a	catFR1	1	R1141T
441.092	10.428	410334	COUNTDOWN_START	n/a	n/a	n/a	n/a	-999	4	[0, 0, 0]	n/a	catFR1	1	R1141T
451.52	0.006	420761	COUNTDOWN_END	n/a	n/a	n/a	n/a	-999	4	[0, 0, 0]	n/a	catFR1	1	R1141T
451.526	3.735	420767	ORIENT	n/a	n/a	n/a	n/a	-999	4	[0, 0, 0]	n/a	catFR1	1	R1141T
455.261	2.534	424502	WORD	n/a	wordpools/wordpool_categorized_EN.txt	CALCULATOR	Electronics	1	4	[0, 0, 0]	n/a	catFR1	1	R1141T
457.795	2.5	427036	WORD	n/a	wordpools/wordpool_categorized_EN.txt	MICROWAVE	Electronics	2	4	[0, 0, 0]	n/a	catFR1	1	R1141T
460.295	2.584	429536	WORD	n/a	wordpools/wordpool_categorized_EN.txt	BIRCH	Trees	3	4	[0, 0, 0]	n/a	catFR1	1	R1141T
462.879	2.566	432120	WORD	n/a	wordpools/wordpool_categorized_EN.txt	PINE	Trees	4	4	[0, 0, 0]	n/a	catFR1	1	R1141T
465.445	2.435	434686	WORD	n/a	wordpools/wordpool_categorized_EN.txt	BEETLE	Insects	5	4	[0, 0, 0]	n/a	catFR1	1	R1141T
467.88	2.417	437120	WORD	n/a	wordpools/wordpool_categorized_EN.txt	CRICKET	Insects	6	4	[0, 0, 0]	n/a	catFR1	1	R1141T
470.297	2.584	439537	WORD	n/a	wordpools/wordpool_categorized_EN.txt	WALNUT	Trees	7	4	[0, 0, 0]	n/a	catFR1	1	R1141T
472.881	2.434	442121	WORD	n/a	wordpools/wordpool_categorized_EN.txt	CEDAR	Trees	8	4	[0, 0, 0]	n/a	catFR1	1	R1141T
475.315	2.517	444555	WORD	n/a	wordpools/wordpool_categorized_EN.txt	STEREO	Electronics	9	4	[0, 0, 0]	n/a	catFR1	1	R1141T
477.832	2.467	447072	WORD	n/a	wordpools/wordpool_categorized_EN.txt	PHONE	Electronics	10	4	[0, 0, 0]	n/a	catFR1	1	R1141T
480.299	2.466	449539	WORD	n/a	wordpools/wordpool_categorized_EN.txt	SPIDER	Insects	11	4	[0, 0, 0]	n/a	catFR1	1	R1141T
482.765	1.617	452005	WORD	n/a	wordpools/wordpool_categorized_EN.txt	ANT	Insects	12	4	[0, 0, 0]	n/a	catFR1	1	R1141T
484.382	0.001	453622	DISTRACT_START	n/a	n/a	n/a	n/a	-999	4	[0, 0, 0]	n/a	catFR1	1	R1141T
484.383	0.016	453623	START	n/a	n/a	n/a	n/a	-999	4	[-999, -999, -999]	n/a	catFR1	1	R1141T
484.399	3.901	453639	PROB	3.901	n/a	n/a	n/a	-999	4	[8, 3, 4]	15	catFR1	1	R1141T
488.3	2.834	457539	PROB	2.834	n/a	n/a	n/a	-999	4	[6, 2, 6]	14	catFR1	1	R1141T
491.134	3.617	460373	PROB	3.617	n/a	n/a	n/a	-999	4	[4, 1, 2]	7	catFR1	1	R1141T
494.751	2.583	463990	PROB	2.583	n/a	n/a	n/a	-999	4	[8, 9, 4]	21	catFR1	1	R1141T
497.334	2.785	466573	PROB	2.785	n/a	n/a	n/a	-999	4	[9, 1, 5]	13	catFR1	1	R1141T
500.119	3.117	469358	PROB	3.117	n/a	n/a	n/a	-999	4	[3, 5, 9]	17	catFR1	1	R1141T
503.236	2.64	472475	PROB	2.64	n/a	n/a	n/a	-999	4	[7, 8, 2]	17	catFR1	1	R1141T
505.876	0.011	475115	STOP	n/a	n/a	n/a	n/a	-999	4	[-999, -999, -999]	n/a	catFR1	1	R1141T
505.887	1.117	475126	DISTRACT_END	n/a	n/a	n/a	n/a	-999	4	[0, 0, 0]	n/a	catFR1	1	R1141T
507.004	2.914	476243	REC_START	n/a	n/a	n/a	n/a	-999	4	[0, 0, 0]	n/a	catFR1	1	R1141T
509.918	1.427	479156	REC_WORD	1.427	n/a	PINE	Trees	4	4	[0, 0, 0]	n/a	catFR1	1	R1141T
511.345	1.458	480583	REC_WORD	1.458	n/a	CEDAR	Trees	8	4	[0, 0, 0]	n/a	catFR1	1	R1141T
512.803	8.862	482041	REC_WORD	8.862	n/a	STEREO	Electronics	9	4	[0, 0, 0]	n/a	catFR1	1	R1141T
521.665	15.35	490903	REC_WORD	15.35	n/a	PHONE	Electronics	10	4	[0, 0, 0]	n/a	catFR1	1	R1141T
537.015	1.878	506252	REC_END	n/a	n/a	n/a	n/a	-999	4	[0, 0, 0]	n/a	catFR1	1	R1141T
538.893	0.0	508130	TRIAL	n/a	n/a	n/a	n/a	-999	5	[0, 0, 0]	n/a	catFR1	1	R1141T
538.893	10.428	508130	COUNTDOWN_START	n/a	n/a	n/a	n/a	-999	5	[0, 0, 0]	n/a	catFR1	1	R1141T
549.321	0.006	518557	COUNTDOWN_END	n/a	n/a	n/a	n/a	-999	5	[0, 0, 0]	n/a	catFR1	1	R1141T
549.327	3.685	518563	ORIENT	n/a	n/a	n/a	n/a	-999	5	[0, 0, 0]	n/a	catFR1	1	R1141T
553.012	2.516	522248	WORD	n/a	wordpools/wordpool_categorized_EN.txt	HAMMER	Tools	1	5	[0, 0, 0]	n/a	catFR1	1	R1141T
555.528	2.468	524764	WORD	n/a	wordpools/wordpool_categorized_EN.txt	AXE	Tools	2	5	[0, 0, 0]	n/a	catFR1	1	R1141T
557.996	2.4	527232	WORD	n/a	wordpools/wordpool_categorized_EN.txt	BEAR	Zoo	3	5	[0, 0, 0]	n/a	catFR1	1	R1141T
560.396	2.501	529632	WORD	n/a	wordpools/wordpool_categorized_EN.txt	ZEBRA	Zoo	4	5	[0, 0, 0]	n/a	catFR1	1	R1141T
562.897	2.533	532133	WORD	n/a	wordpools/wordpool_categorized_EN.txt	DAFFODIL	Flowers	5	5	[0, 0, 0]	n/a	catFR1	1	R1141T
565.43	2.385	534666	WORD	n/a	wordpools/wordpool_categorized_EN.txt	LILY	Flowers	6	5	[0, 0, 0]	n/a	catFR1	1	R1141T
567.815	2.616	537051	WORD	n/a	wordpools/wordpool_categorized_EN.txt	SHOVEL	Tools	7	5	[0, 0, 0]	n/a	catFR1	1	R1141T
570.431	2.485	539666	WORD	n/a	wordpools/wordpool_categorized_EN.txt	WRENCH	Tools	8	5	[0, 0, 0]	n/a	catFR1	1	R1141T
572.916	2.482	542151	WORD	n/a	wordpools/wordpool_categorized_EN.txt	LILAC	Flowers	9	5	[0, 0, 0]	n/a	catFR1	1	R1141T
575.398	2.368	544633	WORD	n/a	wordpools/wordpool_categorized_EN.txt	ORCHID	Flowers	10	5	[0, 0, 0]	n/a	catFR1	1	R1141T
577.766	2.484	547001	WORD	n/a	wordpools/wordpool_categorized_EN.txt	GIRAFFE	Zoo	11	5	[0, 0, 0]	n/a	catFR1	1	R1141T
580.25	1.617	549485	WORD	n/a	wordpools/wordpool_categorized_EN.txt	MONKEY	Zoo	12	5	[0, 0, 0]	n/a	catFR1	1	R1141T
581.867	0.001	551102	DISTRACT_START	n/a	n/a	n/a	n/a	-999	5	[0, 0, 0]	n/a	catFR1	1	R1141T
581.868	0.016	551103	START	n/a	n/a	n/a	n/a	-999	5	[-999, -999, -999]	n/a	catFR1	1	R1141T
581.884	2.849	551119	PROB	2.849	n/a	n/a	n/a	-999	5	[4, 4, 1]	9	catFR1	1	R1141T
584.733	2.784	553968	PROB	2.784	n/a	n/a	n/a	-999	5	[7, 5, 8]	20	catFR1	1	R1141T
587.517	2.418	556752	PROB	2.418	n/a	n/a	n/a	-999	5	[4, 7, 6]	17	catFR1	1	R1141T
589.935	1.716	559169	PROB	1.716	n/a	n/a	n/a	-999	5	[1, 9, 1]	11	catFR1	1	R1141T
591.651	2.335	560885	PROB	2.335	n/a	n/a	n/a	-999	5	[9, 4, 3]	16	catFR1	1	R1141T
593.986	3.001	563220	PROB	3.001	n/a	n/a	n/a	-999	5	[4, 3, 8]	15	catFR1	1	R1141T
596.987	2.0	566221	PROB	2.0	n/a	n/a	n/a	-999	5	[1, 7, 4]	12	catFR1	1	R1141T
598.987	1.917	568221	PROB	1.917	n/a	n/a	n/a	-999	5	[3, 1, 8]	1	catFR1	1	R1141T
600.904	3.011	570138	PROB	3.011	n/a	n/a	n/a	-999	5	[3, 2, 7]	12	catFR1	1	R1141T
603.915	0.006	573149	STOP	n/a	n/a	n/a	n/a	-999	5	[-999, -999, -999]	n/a	catFR1	1	R1141T
603.921	1.068	573155	DISTRACT_END	n/a	n/a	n/a	n/a	-999	5	[0, 0, 0]	n/a	catFR1	1	R1141T
604.989	1.368	574223	REC_START	n/a	n/a	n/a	n/a	-999	5	[0, 0, 0]	n/a	catFR1	1	R1141T
606.357	1.503	575591	REC_WORD	1.503	n/a	HAMMER	Tools	1	5	[0, 0, 0]	n/a	catFR1	1	R1141T
607.86	1.52	577094	REC_WORD	1.52	n/a	AXE	Tools	2	5	[0, 0, 0]	n/a	catFR1	1	R1141T
609.38	1.55	578614	REC_WORD	1.55	n/a	BEAR	Zoo	3	5	[0, 0, 0]	n/a	catFR1	1	R1141T
610.93	1.579	580163	REC_WORD	1.579	n/a	ORCHID	Flowers	10	5	[0, 0, 0]	n/a	catFR1	1	R1141T
612.509	5.718	581742	REC_WORD	5.718	n/a	LILY	Flowers	6	5	[0, 0, 0]	n/a	catFR1	1	R1141T
618.227	10.507	587460	REC_WORD	10.507	n/a	SHOVEL	Tools	7	5	[0, 0, 0]	n/a	catFR1	1	R1141T
628.734	0.896	597967	REC_WORD	0.896	n/a	GIRAFFE	Zoo	11	5	[0, 0, 0]	n/a	catFR1	1	R1141T
629.63	5.37	598863	REC_WORD	5.37	n/a	MONKEY	Zoo	12	5	[0, 0, 0]	n/a	catFR1	1	R1141T
635.0	1.51	604232	REC_END	n/a	n/a	n/a	n/a	-999	5	[0, 0, 0]	n/a	catFR1	1	R1141T
636.51	0.0	605742	TRIAL	n/a	n/a	n/a	n/a	-999	6	[0, 0, 0]	n/a	catFR1	1	R1141T
636.51	10.428	605742	COUNTDOWN_START	n/a	n/a	n/a	n/a	-999	6	[0, 0, 0]	n/a	catFR1	1	R1141T
646.938	0.008	616170	COUNTDOWN_END	n/a	n/a	n/a	n/a	-999	6	[0, 0, 0]	n/a	catFR1	1	R1141T
646.946	3.917	616178	ORIENT	n/a	n/a	n/a	n/a	-999	6	[0, 0, 0]	n/a	catFR1	1	R1141T
650.863	2.616	620094	WORD	n/a	wordpools/wordpool_categorized_EN.txt	HICKORY	Trees	1	6	[0, 0, 0]	n/a	catFR1	1	R1141T
653.479	2.585	622710	WORD	n/a	wordpools/wordpool_categorized_EN.txt	MAPLE	Trees	2	6	[0, 0, 0]	n/a	catFR1	1	R1141T
656.064	2.416	625295	WORD	n/a	wordpools/wordpool_categorized_EN.txt	CHICKEN	FarmAnimals	3	6	[0, 0, 0]	n/a	catFR1	1	R1141T
658.48	2.568	627711	WORD	n/a	wordpools/wordpool_categorized_EN.txt	ROOSTER	FarmAnimals	4	6	[0, 0, 0]	n/a	catFR1	1	R1141T
661.048	2.433	630279	WORD	n/a	wordpools/wordpool_categorized_EN.txt	WIND	Weather	5	6	[0, 0, 0]	n/a	catFR1	1	R1141T
663.481	2.518	632712	WORD	n/a	wordpools/wordpool_categorized_EN.txt	DRIZZLE	Weather	6	6	[0, 0, 0]	n/a	catFR1	1	R1141T
665.999	2.483	635230	WORD	n/a	wordpools/wordpool_categorized_EN.txt	PIG	FarmAnimals	7	6	[0, 0, 0]	n/a	catFR1	1	R1141T
668.482	2.452	637713	WORD	n/a	wordpools/wordpool_categorized_EN.txt	TURKEY	FarmAnimals	8	6	[0, 0, 0]	n/a	catFR1	1	R1141T
670.934	2.499	640164	WORD	n/a	wordpools/wordpool_categorized_EN.txt	OAK	Trees	9	6	[0, 0, 0]	n/a	catFR1	1	R1141T
673.433	2.535	642663	WORD	n/a	wordpools/wordpool_categorized_EN.txt	WILLOW	Trees	10	6	[0, 0, 0]	n/a	catFR1	1	R1141T
675.968	2.483	645198	WORD	n/a	wordpools/wordpool_categorized_EN.txt	HURRICANE	Weather	11	6	[0, 0, 0]	n/a	catFR1	1	R1141T
678.451	1.601	647681	WORD	n/a	wordpools/wordpool_categorized_EN.txt	THUNDERSTORM	Weather	12	6	[0, 0, 0]	n/a	catFR1	1	R1141T
680.052	0.001	649282	DISTRACT_START	n/a	n/a	n/a	n/a	-999	6	[0, 0, 0]	n/a	catFR1	1	R1141T
680.053	0.015	649283	START	n/a	n/a	n/a	n/a	-999	6	[-999, -999, -999]	n/a	catFR1	1	R1141T
680.068	3.584	649298	PROB	3.584	n/a	n/a	n/a	-999	6	[7, 7, 1]	15	catFR1	1	R1141T
683.652	2.234	652882	PROB	2.234	n/a	n/a	n/a	-999	6	[1, 3, 9]	13	catFR1	1	R1141T
685.886	2.917	655116	PROB	2.917	n/a	n/a	n/a	-999	6	[3, 6, 8]	17	catFR1	1	R1141T
688.803	1.966	658033	PROB	1.966	n/a	n/a	n/a	-999	6	[1, 6, 6]	13	catFR1	1	R1141T
690.769	2.485	659999	PROB	2.485	n/a	n/a	n/a	-999	6	[7, 5, 3]	15	catFR1	1	R1141T
693.254	2.751	662483	PROB	2.751	n/a	n/a	n/a	-999	6	[9, 1, 5]	15	catFR1	1	R1141T
696.005	1.867	665234	PROB	1.867	n/a	n/a	n/a	-999	6	[7, 4, 2]	13	catFR1	1	R1141T
697.872	2.451	667101	PROB	2.451	n/a	n/a	n/a	-999	6	[6, 8, 5]	19	catFR1	1	R1141T
700.323	0.015	669552	STOP	n/a	n/a	n/a	n/a	-999	6	[-999, -999, -999]	n/a	catFR1	1	R1141T
700.338	1.167	669567	DISTRACT_END	n/a	n/a	n/a	n/a	-999	6	[0, 0, 0]	n/a	catFR1	1	R1141T
701.505	1.522	670734	REC_START	n/a	n/a	n/a	n/a	-999	6	[0, 0, 0]	n/a	catFR1	1	R1141T
703.027	1.46	672256	REC_WORD	1.46	n/a	HICKORY	Trees	1	6	[0, 0, 0]	n/a	catFR1	1	R1141T
704.487	1.315	673716	REC_WORD	1.315	n/a	MAPLE	Trees	2	6	[0, 0, 0]	n/a	catFR1	1	R1141T
705.802	25.718	675031	REC_WORD	25.718	n/a	OAK	Trees	9	6	[0, 0, 0]	n/a	catFR1	1	R1141T
731.52	1.974	700748	REC_END	n/a	n/a	n/a	n/a	-999	6	[0, 0, 0]	n/a	catFR1	1	R1141T
733.494	0.0	702721	TRIAL	n/a	n/a	n/a	n/a	-999	7	[0, 0, 0]	n/a	catFR1	1	R1141T
733.494	10.428	702721	COUNTDOWN_START	n/a	n/a	n/a	n/a	-999	7	[0, 0, 0]	n/a	catFR1	1	R1141T
743.922	0.008	713149	COUNTDOWN_END	n/a	n/a	n/a	n/a	-999	7	[0, 0, 0]	n/a	catFR1	1	R1141T
743.93	3.85	713157	ORIENT	n/a	n/a	n/a	n/a	-999	7	[0, 0, 0]	n/a	catFR1	1	R1141T
747.78	2.485	717007	WORD	n/a	wordpools/wordpool_categorized_EN.txt	ELBOW	BodyParts	1	7	[0, 0, 0]	n/a	catFR1	1	R1141T
750.265	2.432	719492	WORD	n/a	wordpools/wordpool_categorized_EN.txt	EAR	BodyParts	2	7	[0, 0, 0]	n/a	catFR1	1	R1141T
752.697	2.552	721923	WORD	n/a	wordpools/wordpool_categorized_EN.txt	ROOF	Building	3	7	[0, 0, 0]	n/a	catFR1	1	R1141T
755.249	2.433	724475	WORD	n/a	wordpools/wordpool_categorized_EN.txt	WINDOW	Building	4	7	[0, 0, 0]	n/a	catFR1	1	R1141T
757.682	2.384	726908	WORD	n/a	wordpools/wordpool_categorized_EN.txt	JELLYFISH	OceanAnimals	5	7	[0, 0, 0]	n/a	catFR1	1	R1141T
760.066	2.45	729292	WORD	n/a	wordpools/wordpool_categorized_EN.txt	PLANKTON	OceanAnimals	6	7	[0, 0, 0]	n/a	catFR1	1	R1141T
762.516	2.501	731742	WORD	n/a	wordpools/wordpool_categorized_EN.txt	NOSE	BodyParts	7	7	[0, 0, 0]	n/a	catFR1	1	R1141T
765.017	2.45	734243	WORD	n/a	wordpools/wordpool_categorized_EN.txt	EYE	BodyParts	8	7	[0, 0, 0]	n/a	catFR1	1	R1141T
767.467	2.601	736693	WORD	n/a	wordpools/wordpool_categorized_EN.txt	OYSTER	OceanAnimals	9	7	[0, 0, 0]	n/a	catFR1	1	R1141T
770.068	2.55	739294	WORD	n/a	wordpools/wordpool_categorized_EN.txt	SHRIMP	OceanAnimals	10	7	[0, 0, 0]	n/a	catFR1	1	R1141T
772.618	2.501	741844	WORD	n/a	wordpools/wordpool_categorized_EN.txt	HALLWAY	Building	11	7	[0, 0, 0]	n/a	catFR1	1	R1141T
775.119	1.616	744344	WORD	n/a	wordpools/wordpool_categorized_EN.txt	ROOM	Building	12	7	[0, 0, 0]	n/a	catFR1	1	R1141T
776.735	0.001	745960	DISTRACT_START	n/a	n/a	n/a	n/a	-999	7	[0, 0, 0]	n/a	catFR1	1	R1141T
776.736	0.016	745961	START	n/a	n/a	n/a	n/a	-999	7	[-999, -999, -999]	n/a	catFR1	1	R1141T
776.752	2.984	745977	PROB	2.984	n/a	n/a	n/a	-999	7	[3, 7, 8]	18	catFR1	1	R1141T
779.736	2.733	748961	PROB	2.733	n/a	n/a	n/a	-999	7	[9, 7, 1]	17	catFR1	1	R1141T
782.469	2.419	751694	PROB	2.419	n/a	n/a	n/a	-999	7	[2, 4, 7]	13	catFR1	1	R1141T
784.888	3.217	754113	PROB	3.217	n/a	n/a	n/a	-999	7	[4, 8, 7]	23	catFR1	1	R1141T
788.105	3.433	757330	PROB	3.433	n/a	n/a	n/a	-999	7	[7, 7, 2]	16	catFR1	1	R1141T
791.538	2.884	760763	PROB	2.884	n/a	n/a	n/a	-999	7	[7, 4, 3]	14	catFR1	1	R1141T
794.422	2.348	763646	PROB	2.348	n/a	n/a	n/a	-999	7	[3, 9, 3]	15	catFR1	1	R1141T
796.77	0.019	765994	STOP	n/a	n/a	n/a	n/a	-999	7	[-999, -999, -999]	n/a	catFR1	1	R1141T
796.789	1.185	766013	DISTRACT_END	n/a	n/a	n/a	n/a	-999	7	[0, 0, 0]	n/a	catFR1	1	R1141T
797.974	1.636	767198	REC_START	n/a	n/a	n/a	n/a	-999	7	[0, 0, 0]	n/a	catFR1	1	R1141T
799.61	1.48	768834	REC_WORD	1.48	n/a	ELBOW	BodyParts	1	7	[0, 0, 0]	n/a	catFR1	1	R1141T
801.09	1.561	770314	REC_WORD	1.561	n/a	NOSE	BodyParts	7	7	[0, 0, 0]	n/a	catFR1	1	R1141T
802.651	13.631	771875	REC_WORD	13.631	n/a	ROOF	Building	3	7	[0, 0, 0]	n/a	catFR1	1	R1141T
816.282	11.704	785505	REC_WORD	11.704	n/a	MOUTH	n/a	-999	7	[0, 0, 0]	n/a	catFR1	1	R1141T
827.986	3.01	797209	REC_END	n/a	n/a	n/a	n/a	-999	7	[0, 0, 0]	n/a	catFR1	1	R1141T
830.996	0.0	800219	COUNTDOWN_START	n/a	n/a	n/a	n/a	-999	8	[0, 0, 0]	n/a	catFR1	1	R1141T
830.996	10.428	800219	TRIAL	n/a	n/a	n/a	n/a	-999	8	[0, 0, 0]	n/a	catFR1	1	R1141T
841.424	0.006	810646	COUNTDOWN_END	n/a	n/a	n/a	n/a	-999	8	[0, 0, 0]	n/a	catFR1	1	R1141T
841.43	3.785	810652	ORIENT	n/a	n/a	n/a	n/a	-999	8	[0, 0, 0]	n/a	catFR1	1	R1141T
845.215	2.584	814437	WORD	n/a	wordpools/wordpool_categorized_EN.txt	LION	Zoo	1	8	[0, 0, 0]	n/a	catFR1	1	R1141T
847.799	2.501	817021	WORD	n/a	wordpools/wordpool_categorized_EN.txt	PANDA	Zoo	2	8	[0, 0, 0]	n/a	catFR1	1	R1141T
850.3	2.533	819522	WORD	n/a	wordpools/wordpool_categorized_EN.txt	SPOON	KitchenTools	3	8	[0, 0, 0]	n/a	catFR1	1	R1141T
852.833	2.6	822055	WORD	n/a	wordpools/wordpool_categorized_EN.txt	SPATULA	KitchenTools	4	8	[0, 0, 0]	n/a	catFR1	1	R1141T
855.433	2.401	824654	WORD	n/a	wordpools/wordpool_categorized_EN.txt	TOASTER	Appliances	5	8	[0, 0, 0]	n/a	catFR1	1	R1141T
857.834	2.451	827055	WORD	n/a	wordpools/wordpool_categorized_EN.txt	DRYER	Appliances	6	8	[0, 0, 0]	n/a	catFR1	1	R1141T
860.285	2.533	829506	WORD	n/a	wordpools/wordpool_categorized_EN.txt	PEELER	KitchenTools	7	8	[0, 0, 0]	n/a	catFR1	1	R1141T
862.818	2.533	832039	WORD	n/a	wordpools/wordpool_categorized_EN.txt	GRATER	KitchenTools	8	8	[0, 0, 0]	n/a	catFR1	1	R1141T
865.351	2.518	834572	WORD	n/a	wordpools/wordpool_categorized_EN.txt	ELEPHANT	Zoo	9	8	[0, 0, 0]	n/a	catFR1	1	R1141T
867.869	2.55	837090	WORD	n/a	wordpools/wordpool_categorized_EN.txt	TIGER	Zoo	10	8	[0, 0, 0]	n/a	catFR1	1	R1141T
870.419	2.435	839640	WORD	n/a	wordpools/wordpool_categorized_EN.txt	OVEN	Appliances	11	8	[0, 0, 0]	n/a	catFR1	1	R1141T
872.854	1.616	842075	WORD	n/a	wordpools/wordpool_categorized_EN.txt	MIXER	Appliances	12	8	[0, 0, 0]	n/a	catFR1	1	R1141T
874.47	0.001	843691	DISTRACT_START	n/a	n/a	n/a	n/a	-999	8	[0, 0, 0]	n/a	catFR1	1	R1141T
874.471	0.015	843692	START	n/a	n/a	n/a	n/a	-999	8	[-999, -999, -999]	n/a	catFR1	1	R1141T
874.486	3.552	843707	PROB	3.552	n/a	n/a	n/a	-999	8	[8, 8, 4]	20	catFR1	1	R1141T
878.038	3.884	847258	PROB	3.884	n/a	n/a	n/a	-999	8	[9, 8, 8]	25	catFR1	1	R1141T
881.922	2.934	851142	PROB	2.934	n/a	n/a	n/a	-999	8	[9, 8, 2]	19	catFR1	1	R1141T
884.856	4.251	854076	PROB	4.251	n/a	n/a	n/a	-999	8	[8, 1, 6]	15	catFR1	1	R1141T
889.107	2.683	858327	PROB	2.683	n/a	n/a	n/a	-999	8	[4, 7, 5]	16	catFR1	1	R1141T
891.79	3.253	861010	PROB	3.253	n/a	n/a	n/a	-999	8	[7, 8, 1]	16	catFR1	1	R1141T
895.043	0.015	864262	STOP	n/a	n/a	n/a	n/a	-999	8	[-999, -999, -999]	n/a	catFR1	1	R1141T
895.058	1.033	864277	DISTRACT_END	n/a	n/a	n/a	n/a	-999	8	[0, 0, 0]	n/a	catFR1	1	R1141T
896.091	1.262	865310	REC_START	n/a	n/a	n/a	n/a	-999	8	[0, 0, 0]	n/a	catFR1	1	R1141T
897.353	1.509	866572	REC_WORD	1.509	n/a	LION	Zoo	1	8	[0, 0, 0]	n/a	catFR1	1	R1141T
898.862	5.08	868081	REC_WORD	5.08	n/a	PANDA	Zoo	2	8	[0, 0, 0]	n/a	catFR1	1	R1141T
903.942	1.177	873161	REC_WORD	1.177	n/a	PEELER	KitchenTools	7	8	[0, 0, 0]	n/a	catFR1	1	R1141T
905.119	2.47	874338	REC_WORD	2.47	n/a	GRATER	KitchenTools	8	8	[0, 0, 0]	n/a	catFR1	1	R1141T
907.589	12.61	876808	REC_WORD	12.61	n/a	SPATULA	KitchenTools	4	8	[0, 0, 0]	n/a	catFR1	1	R1141T
920.199	5.907	889417	REC_WORD	5.907	n/a	ELEPHANT	Zoo	9	8	[0, 0, 0]	n/a	catFR1	1	R1141T
926.106	1.758	895324	REC_END	n/a	n/a	n/a	n/a	-999	8	[0, 0, 0]	n/a	catFR1	1	R1141T
927.864	0.0	897082	TRIAL	n/a	n/a	n/a	n/a	-999	9	[0, 0, 0]	n/a	catFR1	1	R1141T
927.864	10.428	897082	COUNTDOWN_START	n/a	n/a	n/a	n/a	-999	9	[0, 0, 0]	n/a	catFR1	1	R1141T
938.292	0.007	907509	COUNTDOWN_END	n/a	n/a	n/a	n/a	-999	9	[0, 0, 0]	n/a	catFR1	1	R1141T
938.299	3.817	907516	ORIENT	n/a	n/a	n/a	n/a	-999	9	[0, 0, 0]	n/a	catFR1	1	R1141T
942.116	2.416	911333	WORD	n/a	wordpools/wordpool_categorized_EN.txt	SEAGULL	Birds	1	9	[0, 0, 0]	n/a	catFR1	1	R1141T
944.532	2.468	913749	WORD	n/a	wordpools/wordpool_categorized_EN.txt	BLUEBIRD	Birds	2	9	[0, 0, 0]	n/a	catFR1	1	R1141T
947.0	2.416	916217	WORD	n/a	wordpools/wordpool_categorized_EN.txt	MOUSSE	Desserts	3	9	[0, 0, 0]	n/a	catFR1	1	R1141T
949.416	2.519	918633	WORD	n/a	wordpools/wordpool_categorized_EN.txt	CAKE	Desserts	4	9	[0, 0, 0]	n/a	catFR1	1	R1141T
951.935	2.499	921152	WORD	n/a	wordpools/wordpool_categorized_EN.txt	SHEEP	FarmAnimals	5	9	[0, 0, 0]	n/a	catFR1	1	R1141T
954.434	2.535	923651	WORD	n/a	wordpools/wordpool_categorized_EN.txt	COW	FarmAnimals	6	9	[0, 0, 0]	n/a	catFR1	1	R1141T
956.969	2.583	926185	WORD	n/a	wordpools/wordpool_categorized_EN.txt	COOKIE	Desserts	7	9	[0, 0, 0]	n/a	catFR1	1	R1141T
959.552	2.568	928768	WORD	n/a	wordpools/wordpool_categorized_EN.txt	COBBLER	Desserts	8	9	[0, 0, 0]	n/a	catFR1	1	R1141T
962.12	2.599	931336	WORD	n/a	wordpools/wordpool_categorized_EN.txt	SPARROW	Birds	9	9	[0, 0, 0]	n/a	catFR1	1	R1141T
964.719	2.502	933935	WORD	n/a	wordpools/wordpool_categorized_EN.txt	ROBIN	Birds	10	9	[0, 0, 0]	n/a	catFR1	1	R1141T
967.221	2.584	936437	WORD	n/a	wordpools/wordpool_categorized_EN.txt	HORSE	FarmAnimals	11	9	[0, 0, 0]	n/a	catFR1	1	R1141T
969.805	1.616	939021	WORD	n/a	wordpools/wordpool_categorized_EN.txt	CALF	FarmAnimals	12	9	[0, 0, 0]	n/a	catFR1	1	R1141T
971.421	0.001	940637	DISTRACT_START	n/a	n/a	n/a	n/a	-999	9	[0, 0, 0]	n/a	catFR1	1	R1141T
971.422	0.015	940638	START	n/a	n/a	n/a	n/a	-999	9	[-999, -999, -999]	n/a	catFR1	1	R1141T
971.437	3.067	940653	PROB	3.067	n/a	n/a	n/a	-999	9	[1, 1, 5]	7	catFR1	1	R1141T
974.504	8.819	943720	PROB	8.819	n/a	n/a	n/a	-999	9	[9, 7, 5]	21	catFR1	1	R1141T
983.323	5.184	952538	PROB	5.184	n/a	n/a	n/a	-999	9	[3, 3, 5]	11	catFR1	1	R1141T
988.507	2.535	957722	PROB	2.535	n/a	n/a	n/a	-999	9	[4, 8, 6]	18	catFR1	1	R1141T
991.042	2.793	960257	PROB	2.793	n/a	n/a	n/a	-999	9	[9, 5, 3]	17	catFR1	1	R1141T
993.835	0.007	963050	STOP	n/a	n/a	n/a	n/a	-999	9	[-999, -999, -999]	n/a	catFR1	1	R1141T
993.842	1.151	963057	DISTRACT_END	n/a	n/a	n/a	n/a	-999	9	[0, 0, 0]	n/a	catFR1	1	R1141T
994.993	1.554	964208	REC_START	n/a	n/a	n/a	n/a	-999	9	[0, 0, 0]	n/a	catFR1	1	R1141T
996.547	1.676	965762	REC_WORD	1.676	n/a	MOUSSE	Desserts	3	9	[0, 0, 0]	n/a	catFR1	1	R1141T
998.223	11.754	967437	REC_WORD	11.754	n/a	CAKE	Desserts	4	9	[0, 0, 0]	n/a	catFR1	1	R1141T
1009.977	15.028	979191	REC_WORD	15.028	n/a	SEAGULL	Birds	1	9	[0, 0, 0]	n/a	catFR1	1	R1141T
1025.005	1.592	994218	REC_END	n/a	n/a	n/a	n/a	-999	9	[0, 0, 0]	n/a	catFR1	1	R1141T
1026.597	0.0	995810	TRIAL	n/a	n/a	n/a	n/a	-999	10	[0, 0, 0]	n/a	catFR1	1	R1141T
1026.597	10.428	995810	COUNTDOWN_START	n/a	n/a	n/a	n/a	-999	10	[0, 0, 0]	n/a	catFR1	1	R1141T
1037.025	0.008	1006238	COUNTDOWN_END	n/a	n/a	n/a	n/a	-999	10	[0, 0, 0]	n/a	catFR1	1	R1141T
1037.033	3.851	1006246	ORIENT	n/a	n/a	n/a	n/a	-999	10	[0, 0, 0]	n/a	catFR1	1	R1141T
1040.884	2.55	1010096	WORD	n/a	wordpools/wordpool_categorized_EN.txt	FOOT	BodyParts	1	10	[0, 0, 0]	n/a	catFR1	1	R1141T
1043.434	2.384	1012646	WORD	n/a	wordpools/wordpool_categorized_EN.txt	LEG	BodyParts	2	10	[0, 0, 0]	n/a	catFR1	1	R1141T
1045.818	2.55	1015030	WORD	n/a	wordpools/wordpool_categorized_EN.txt	CAR	Vehicles	3	10	[0, 0, 0]	n/a	catFR1	1	R1141T
1048.368	2.618	1017580	WORD	n/a	wordpools/wordpool_categorized_EN.txt	JEEP	Vehicles	4	10	[0, 0, 0]	n/a	catFR1	1	R1141T
1050.986	2.533	1020198	WORD	n/a	wordpools/wordpool_categorized_EN.txt	CHIMPANZEE	Zoo	5	10	[0, 0, 0]	n/a	catFR1	1	R1141T
1053.519	2.418	1022731	WORD	n/a	wordpools/wordpool_categorized_EN.txt	GORILLA	Zoo	6	10	[0, 0, 0]	n/a	catFR1	1	R1141T
1055.937	2.383	1025149	WORD	n/a	wordpools/wordpool_categorized_EN.txt	VAN	Vehicles	7	10	[0, 0, 0]	n/a	catFR1	1	R1141T
1058.32	2.4	1027531	WORD	n/a	wordpools/wordpool_categorized_EN.txt	TRUCK	Vehicles	8	10	[0, 0, 0]	n/a	catFR1	1	R1141T
1060.72	2.518	1029931	WORD	n/a	wordpools/wordpool_categorized_EN.txt	KNEE	BodyParts	9	10	[0, 0, 0]	n/a	catFR1	1	R1141T
1063.238	2.601	1032449	WORD	n/a	wordpools/wordpool_categorized_EN.txt	HAND	BodyParts	10	10	[0, 0, 0]	n/a	catFR1	1	R1141T
1065.839	2.383	1035050	WORD	n/a	wordpools/wordpool_categorized_EN.txt	ORANGUTAN	Zoo	11	10	[0, 0, 0]	n/a	catFR1	1	R1141T
1068.222	1.617	1037433	WORD	n/a	wordpools/wordpool_categorized_EN.txt	CHEETAH	Zoo	12	10	[0, 0, 0]	n/a	catFR1	1	R1141T
1069.839	0.001	1039050	DISTRACT_START	n/a	n/a	n/a	n/a	-999	10	[0, 0, 0]	n/a	catFR1	1	R1141T
1069.84	0.016	1039051	START	n/a	n/a	n/a	n/a	-999	10	[-999, -999, -999]	n/a	catFR1	1	R1141T
1069.856	4.034	1039067	PROB	4.034	n/a	n/a	n/a	-999	10	[6, 7, 7]	20	catFR1	1	R1141T
1073.89	2.783	1043101	PROB	2.783	n/a	n/a	n/a	-999	10	[1, 5, 9]	15	catFR1	1	R1141T
1076.673	2.767	1045884	PROB	2.767	n/a	n/a	n/a	-999	10	[7, 9, 2]	18	catFR1	1	R1141T
1079.44	2.368	1048650	PROB	2.368	n/a	n/a	n/a	-999	10	[1, 9, 3]	13	catFR1	1	R1141T
1081.808	2.317	1051018	PROB	2.317	n/a	n/a	n/a	-999	10	[8, 5, 8]	21	catFR1	1	R1141T
1084.125	2.316	1053335	PROB	2.316	n/a	n/a	n/a	-999	10	[7, 7, 8]	22	catFR1	1	R1141T
1086.441	2.234	1055651	PROB	2.234	n/a	n/a	n/a	-999	10	[3, 4, 6]	13	catFR1	1	R1141T
1088.675	3.545	1057885	PROB	3.545	n/a	n/a	n/a	-999	10	[4, 2, 1]	7	catFR1	1	R1141T
1092.22	0.007	1061430	STOP	n/a	n/a	n/a	n/a	-999	10	[-999, -999, -999]	n/a	catFR1	1	R1141T
1092.227	1.2	1061437	DISTRACT_END	n/a	n/a	n/a	n/a	-999	10	[0, 0, 0]	n/a	catFR1	1	R1141T
1093.427	1.531	1062637	REC_START	n/a	n/a	n/a	n/a	-999	10	[0, 0, 0]	n/a	catFR1	1	R1141T
1094.958	2.969	1064168	REC_WORD	2.969	n/a	CHEETAH	Zoo	12	10	[0, 0, 0]	n/a	catFR1	1	R1141T
1097.927	3.371	1067137	REC_WORD	3.371	n/a	CHIMPANZEE	Zoo	5	10	[0, 0, 0]	n/a	catFR1	1	R1141T
1101.298	2.145	1070507	REC_WORD	2.145	n/a	GORILLA	Zoo	6	10	[0, 0, 0]	n/a	catFR1	1	R1141T
1103.443	2.012	1072652	REC_WORD	2.012	n/a	FOOT	BodyParts	1	10	[0, 0, 0]	n/a	catFR1	1	R1141T
1105.455	1.934	1074664	REC_WORD	1.934	n/a	HAND	BodyParts	10	10	[0, 0, 0]	n/a	catFR1	1	R1141T
1107.389	1.935	1076598	REC_WORD	1.935	n/a	LEG	BodyParts	2	10	[0, 0, 0]	n/a	catFR1	1	R1141T
1109.324	14.115	1078533	REC_WORD	14.115	n/a	KNEE	BodyParts	9	10	[0, 0, 0]	n/a	catFR1	1	R1141T
1123.439	1.743	1092647	REC_END	n/a	n/a	n/a	n/a	-999	10	[0, 0, 0]	n/a	catFR1	1	R1141T
1125.182	0.001	1094390	COUNTDOWN_START	n/a	n/a	n/a	n/a	-999	11	[0, 0, 0]	n/a	catFR1	1	R1141T
1125.183	10.427	1094391	TRIAL	n/a	n/a	n/a	n/a	-999	11	[0, 0, 0]	n/a	catFR1	1	R1141T
1135.61	0.007	1104818	COUNTDOWN_END	n/a	n/a	n/a	n/a	-999	11	[0, 0, 0]	n/a	catFR1	1	R1141T
1135.617	3.668	1104825	ORIENT	n/a	n/a	n/a	n/a	-999	11	[0, 0, 0]	n/a	catFR1	1	R1141T
1139.285	2.518	1108493	WORD	n/a	wordpools/wordpool_categorized_EN.txt	OCTOPUS	OceanAnimals	1	11	[0, 0, 0]	n/a	catFR1	1	R1141T
1141.803	2.5	1111010	WORD	n/a	wordpools/wordpool_categorized_EN.txt	WHALE	OceanAnimals	2	11	[0, 0, 0]	n/a	catFR1	1	R1141T
1144.303	2.416	1113510	WORD	n/a	wordpools/wordpool_categorized_EN.txt	LAKE	Landscapes	3	11	[0, 0, 0]	n/a	catFR1	1	R1141T
1146.719	2.485	1115926	WORD	n/a	wordpools/wordpool_categorized_EN.txt	MOUNTAIN	Landscapes	4	11	[0, 0, 0]	n/a	catFR1	1	R1141T
1149.204	2.416	1118411	WORD	n/a	wordpools/wordpool_categorized_EN.txt	TRUMPET	Instruments	5	11	[0, 0, 0]	n/a	catFR1	1	R1141T
1151.62	2.535	1120827	WORD	n/a	wordpools/wordpool_categorized_EN.txt	TROMBONE	Instruments	6	11	[0, 0, 0]	n/a	catFR1	1	R1141T
1154.155	2.499	1123362	WORD	n/a	wordpools/wordpool_categorized_EN.txt	CRAB	OceanAnimals	7	11	[0, 0, 0]	n/a	catFR1	1	R1141T
1156.654	2.402	1125861	WORD	n/a	wordpools/wordpool_categorized_EN.txt	SQUID	OceanAnimals	8	11	[0, 0, 0]	n/a	catFR1	1	R1141T
1159.056	2.549	1128263	WORD	n/a	wordpools/wordpool_categorized_EN.txt	PIANO	Instruments	9	11	[0, 0, 0]	n/a	catFR1	1	R1141T
1161.605	2.402	1130811	WORD	n/a	wordpools/wordpool_categorized_EN.txt	VIOLIN	Instruments	10	11	[0, 0, 0]	n/a	catFR1	1	R1141T
1164.007	2.599	1133213	WORD	n/a	wordpools/wordpool_categorized_EN.txt	CREEK	Landscapes	11	11	[0, 0, 0]	n/a	catFR1	1	R1141T
1166.606	1.601	1135812	WORD	n/a	wordpools/wordpool_categorized_EN.txt	BEACH	Landscapes	12	11	[0, 0, 0]	n/a	catFR1	1	R1141T
1168.207	0.001	1137413	DISTRACT_START	n/a	n/a	n/a	n/a	-999	11	[0, 0, 0]	n/a	catFR1	1	R1141T
1168.208	0.016	1137414	START	n/a	n/a	n/a	n/a	-999	11	[-999, -999, -999]	n/a	catFR1	1	R1141T
1168.224	2.834	1137430	PROB	2.834	n/a	n/a	n/a	-999	11	[9, 1, 1]	11	catFR1	1	R1141T
1171.058	3.666	1140264	PROB	3.666	n/a	n/a	n/a	-999	11	[9, 7, 5]	21	catFR1	1	R1141T
1174.724	1.934	1143930	PROB	1.934	n/a	n/a	n/a	-999	11	[8, 6, 7]	21	catFR1	1	R1141T
1176.658	2.351	1145864	PROB	2.351	n/a	n/a	n/a	-999	11	[7, 8, 1]	16	catFR1	1	R1141T
1179.009	2.55	1148215	PROB	2.55	n/a	n/a	n/a	-999	11	[6, 7, 9]	22	catFR1	1	R1141T
1181.559	2.0	1150764	PROB	2.0	n/a	n/a	n/a	-999	11	[1, 7, 1]	9	catFR1	1	R1141T
1183.559	2.368	1152764	PROB	2.368	n/a	n/a	n/a	-999	11	[8, 1, 3]	12	catFR1	1	R1141T
1185.927	1.449	1155132	PROB	1.449	n/a	n/a	n/a	-999	11	[5, 5, 1]	11	catFR1	1	R1141T
1187.376	1.971	1156581	PROB	1.971	n/a	n/a	n/a	-999	11	[4, 5, 6]	15	catFR1	1	R1141T
1189.347	0.013	1158552	STOP	n/a	n/a	n/a	n/a	-999	11	[-999, -999, -999]	n/a	catFR1	1	R1141T
1189.36	1.201	1158565	DISTRACT_END	n/a	n/a	n/a	n/a	-999	11	[0, 0, 0]	n/a	catFR1	1	R1141T
1190.561	1.605	1159766	REC_START	n/a	n/a	n/a	n/a	-999	11	[0, 0, 0]	n/a	catFR1	1	R1141T
1192.166	1.597	1161371	REC_WORD	1.597	n/a	CREEK	Landscapes	11	11	[0, 0, 0]	n/a	catFR1	1	R1141T
1193.763	1.247	1162968	REC_WORD	1.247	n/a	LAKE	Landscapes	3	11	[0, 0, 0]	n/a	catFR1	1	R1141T
1195.01	0.991	1164215	REC_WORD	0.991	n/a	BEACH	Landscapes	12	11	[0, 0, 0]	n/a	catFR1	1	R1141T
1196.001	1.781	1165206	REC_WORD	1.781	n/a	SQUID	OceanAnimals	8	11	[0, 0, 0]	n/a	catFR1	1	R1141T
1197.782	3.777	1166987	REC_WORD	3.777	n/a	OCTOPUS	OceanAnimals	1	11	[0, 0, 0]	n/a	catFR1	1	R1141T
1201.559	1.7	1170763	REC_WORD	1.7	n/a	TRUMPET	Instruments	5	11	[0, 0, 0]	n/a	catFR1	1	R1141T
1203.259	6.2	1172463	REC_WORD	6.2	n/a	TROMBONE	Instruments	6	11	[0, 0, 0]	n/a	catFR1	1	R1141T
1209.459	11.112	1178663	REC_WORD	11.112	n/a	VIOLIN	Instruments	10	11	[0, 0, 0]	n/a	catFR1	1	R1141T
1220.571	1.912	1189775	REC_END	n/a	n/a	n/a	n/a	-999	11	[0, 0, 0]	n/a	catFR1	1	R1141T
1222.483	0.0	1191686	TRIAL	n/a	n/a	n/a	n/a	-999	12	[0, 0, 0]	n/a	catFR1	1	R1141T
1222.483	10.428	1191686	COUNTDOWN_START	n/a	n/a	n/a	n/a	-999	12	[0, 0, 0]	n/a	catFR1	1	R1141T
1232.911	0.008	1202114	COUNTDOWN_END	n/a	n/a	n/a	n/a	-999	12	[0, 0, 0]	n/a	catFR1	1	R1141T
1232.919	3.816	1202122	ORIENT	n/a	n/a	n/a	n/a	-999	12	[0, 0, 0]	n/a	catFR1	1	R1141T
1236.735	2.435	1205938	WORD	n/a	wordpools/wordpool_categorized_EN.txt	PIGEON	Birds	1	12	[0, 0, 0]	n/a	catFR1	1	R1141T
1239.17	2.516	1208373	WORD	n/a	wordpools/wordpool_categorized_EN.txt	CROW	Birds	2	12	[0, 0, 0]	n/a	catFR1	1	R1141T
1241.686	2.385	1210889	WORD	n/a	wordpools/wordpool_categorized_EN.txt	BLOUSE	Clothing	3	12	[0, 0, 0]	n/a	catFR1	1	R1141T
1244.071	2.383	1213273	WORD	n/a	wordpools/wordpool_categorized_EN.txt	SHORTS	Clothing	4	12	[0, 0, 0]	n/a	catFR1	1	R1141T
1246.454	2.385	1215656	WORD	n/a	wordpools/wordpool_categorized_EN.txt	RATCHET	Tools	5	12	[0, 0, 0]	n/a	catFR1	1	R1141T
1248.839	2.467	1218041	WORD	n/a	wordpools/wordpool_categorized_EN.txt	SAW	Tools	6	12	[0, 0, 0]	n/a	catFR1	1	R1141T
1251.306	2.55	1220508	WORD	n/a	wordpools/wordpool_categorized_EN.txt	GOOSE	Birds	7	12	[0, 0, 0]	n/a	catFR1	1	R1141T
1253.856	2.466	1223058	WORD	n/a	wordpools/wordpool_categorized_EN.txt	FINCH	Birds	8	12	[0, 0, 0]	n/a	catFR1	1	R1141T
1256.322	2.535	1225524	WORD	n/a	wordpools/wordpool_categorized_EN.txt	SCREWDRIVER	Tools	9	12	[0, 0, 0]	n/a	catFR1	1	R1141T
1258.857	2.483	1228059	WORD	n/a	wordpools/wordpool_categorized_EN.txt	DRILL	Tools	10	12	[0, 0, 0]	n/a	catFR1	1	R1141T
1261.34	2.468	1230542	WORD	n/a	wordpools/wordpool_categorized_EN.txt	SHOES	Clothing	11	12	[0, 0, 0]	n/a	catFR1	1	R1141T
1263.808	1.616	1233009	WORD	n/a	wordpools/wordpool_categorized_EN.txt	SOCKS	Clothing	12	12	[0, 0, 0]	n/a	catFR1	1	R1141T
1265.424	0.001	1234625	DISTRACT_START	n/a	n/a	n/a	n/a	-999	12	[0, 0, 0]	n/a	catFR1	1	R1141T
1265.425	0.016	1234626	START	n/a	n/a	n/a	n/a	-999	12	[-999, -999, -999]	n/a	catFR1	1	R1141T
1265.441	4.317	1234642	PROB	4.317	n/a	n/a	n/a	-999	12	[5, 5, 6]	16	catFR1	1	R1141T
1269.758	3.502	1238959	PROB	3.502	n/a	n/a	n/a	-999	12	[7, 6, 4]	17	catFR1	1	R1141T
1273.26	6.333	1242461	PROB	6.333	n/a	n/a	n/a	-999	12	[4, 2, 3]	9	catFR1	1	R1141T
1279.593	2.335	1248794	PROB	2.335	n/a	n/a	n/a	-999	12	[4, 3, 1]	8	catFR1	1	R1141T
1281.928	3.4	1251129	PROB	3.4	n/a	n/a	n/a	-999	12	[7, 6, 5]	18	catFR1	1	R1141T
1285.328	1.572	1254528	PROB	1.572	n/a	n/a	n/a	-999	12	[2, 8, 2]	12	catFR1	1	R1141T
1286.9	0.012	1256100	STOP	n/a	n/a	n/a	n/a	-999	12	[-999, -999, -999]	n/a	catFR1	1	R1141T
1286.912	1.168	1256112	DISTRACT_END	n/a	n/a	n/a	n/a	-999	12	[0, 0, 0]	n/a	catFR1	1	R1141T
1288.08	1.46	1257280	REC_START	n/a	n/a	n/a	n/a	-999	12	[0, 0, 0]	n/a	catFR1	1	R1141T
1289.54	1.064	1258740	REC_WORD	1.064	n/a	PIGEON	Birds	1	12	[0, 0, 0]	n/a	catFR1	1	R1141T
1290.604	1.355	1259804	REC_WORD	1.355	n/a	CROW	Birds	2	12	[0, 0, 0]	n/a	catFR1	1	R1141T
1291.959	1.387	1261159	REC_WORD	1.387	n/a	BLOUSE	Clothing	3	12	[0, 0, 0]	n/a	catFR1	1	R1141T
1293.346	1.945	1262546	REC_WORD	1.945	n/a	SHOES	Clothing	11	12	[0, 0, 0]	n/a	catFR1	1	R1141T
1295.291	22.801	1264491	REC_WORD	22.801	n/a	SCREWDRIVER	Tools	9	12	[0, 0, 0]	n/a	catFR1	1	R1141T
1318.092	2.01	1287291	REC_END	n/a	n/a	n/a	n/a	-999	12	[0, 0, 0]	n/a	catFR1	1	R1141T
1320.102	0.0	1289301	TRIAL	n/a	n/a	n/a	n/a	-999	13	[0, 0, 0]	n/a	catFR1	1	R1141T
1320.102	10.428	1289301	COUNTDOWN_START	n/a	n/a	n/a	n/a	-999	13	[0, 0, 0]	n/a	catFR1	1	R1141T
1330.53	0.006	1299728	COUNTDOWN_END	n/a	n/a	n/a	n/a	-999	13	[0, 0, 0]	n/a	catFR1	1	R1141T
1330.536	3.585	1299734	ORIENT	n/a	n/a	n/a	n/a	-999	13	[0, 0, 0]	n/a	catFR1	1	R1141T
1334.121	2.416	1303319	WORD	n/a	wordpools/wordpool_categorized_EN.txt	FOREST	Landscapes	1	13	[0, 0, 0]	n/a	catFR1	1	R1141T
1336.537	2.518	1305735	WORD	n/a	wordpools/wordpool_categorized_EN.txt	RIVER	Landscapes	2	13	[0, 0, 0]	n/a	catFR1	1	R1141T
1339.055	2.433	1308253	WORD	n/a	wordpools/wordpool_categorized_EN.txt	RAIN	Weather	3	13	[0, 0, 0]	n/a	catFR1	1	R1141T
1341.488	2.451	1310686	WORD	n/a	wordpools/wordpool_categorized_EN.txt	CLOUD	Weather	4	13	[0, 0, 0]	n/a	catFR1	1	R1141T
1343.939	2.55	1313136	WORD	n/a	wordpools/wordpool_categorized_EN.txt	CEILING	Building	5	13	[0, 0, 0]	n/a	catFR1	1	R1141T
1346.489	2.551	1315686	WORD	n/a	wordpools/wordpool_categorized_EN.txt	ATTIC	Building	6	13	[0, 0, 0]	n/a	catFR1	1	R1141T
1349.04	2.416	1318237	WORD	n/a	wordpools/wordpool_categorized_EN.txt	OCEAN	Landscapes	7	13	[0, 0, 0]	n/a	catFR1	1	R1141T
1351.456	2.502	1320653	WORD	n/a	wordpools/wordpool_categorized_EN.txt	VALLEY	Landscapes	8	13	[0, 0, 0]	n/a	catFR1	1	R1141T
1353.958	2.616	1323155	WORD	n/a	wordpools/wordpool_categorized_EN.txt	FLOOR	Building	9	13	[0, 0, 0]	n/a	catFR1	1	R1141T
1356.574	2.568	1325771	WORD	n/a	wordpools/wordpool_categorized_EN.txt	WALL	Building	10	13	[0, 0, 0]	n/a	catFR1	1	R1141T
1359.142	2.6	1328339	WORD	n/a	wordpools/wordpool_categorized_EN.txt	TORNADO	Weather	11	13	[0, 0, 0]	n/a	catFR1	1	R1141T
1361.742	1.617	1330939	WORD	n/a	wordpools/wordpool_categorized_EN.txt	LIGHTNING	Weather	12	13	[0, 0, 0]	n/a	catFR1	1	R1141T
1363.359	0.001	1332556	DISTRACT_START	n/a	n/a	n/a	n/a	-999	13	[0, 0, 0]	n/a	catFR1	1	R1141T
1363.36	0.015	1332557	START	n/a	n/a	n/a	n/a	-999	13	[-999, -999, -999]	n/a	catFR1	1	R1141T
1363.375	5.985	1332572	PROB	5.985	n/a	n/a	n/a	-999	13	[9, 7, 9]	25	catFR1	1	R1141T
1369.36	3.701	1338556	PROB	3.701	n/a	n/a	n/a	-999	13	[9, 3, 1]	13	catFR1	1	R1141T
1373.061	2.433	1342257	PROB	2.433	n/a	n/a	n/a	-999	13	[4, 4, 6]	14	catFR1	1	R1141T
1375.494	3.267	1344690	PROB	3.267	n/a	n/a	n/a	-999	13	[6, 5, 3]	14	catFR1	1	R1141T
1378.761	6.299	1347957	PROB	6.299	n/a	n/a	n/a	-999	13	[9, 7, 4]	20	catFR1	1	R1141T
1385.06	0.003	1354255	STOP	n/a	n/a	n/a	n/a	-999	13	[-999, -999, -999]	n/a	catFR1	1	R1141T
1385.063	1.102	1354258	DISTRACT_END	n/a	n/a	n/a	n/a	-999	13	[0, 0, 0]	n/a	catFR1	1	R1141T
1386.165	2.924	1355360	REC_START	n/a	n/a	n/a	n/a	-999	13	[0, 0, 0]	n/a	catFR1	1	R1141T
1389.089	2.539	1358284	REC_WORD	2.539	n/a	VALLEY	Landscapes	8	13	[0, 0, 0]	n/a	catFR1	1	R1141T
1391.628	2.557	1360823	REC_WORD	2.557	n/a	RIVER	Landscapes	2	13	[0, 0, 0]	n/a	catFR1	1	R1141T
1394.185	2.618	1363380	REC_WORD	2.618	n/a	OCEAN	Landscapes	7	13	[0, 0, 0]	n/a	catFR1	1	R1141T
1396.803	1.134	1365998	REC_WORD	1.134	n/a	CEILING	Building	5	13	[0, 0, 0]	n/a	catFR1	1	R1141T
1397.937	1.762	1367132	REC_WORD	1.762	n/a	FLOOR	Building	9	13	[0, 0, 0]	n/a	catFR1	1	R1141T
1399.699	2.608	1368894	REC_WORD	2.608	n/a	WALL	Building	10	13	[0, 0, 0]	n/a	catFR1	1	R1141T
1402.307	6.976	1371502	REC_WORD	6.976	n/a	ATTIC	Building	6	13	[0, 0, 0]	n/a	catFR1	1	R1141T
1409.283	5.56	1378477	REC_WORD	5.56	n/a	PEAK	n/a	-999	13	[0, 0, 0]	n/a	catFR1	1	R1141T
1414.843	1.333	1384037	REC_WORD	1.333	n/a	CLOUD	Weather	4	13	[0, 0, 0]	n/a	catFR1	1	R1141T
1416.176	4.193	1385370	REC_END	n/a	n/a	n/a	n/a	-999	13	[0, 0, 0]	n/a	catFR1	1	R1141T
1420.369	0.0	1389563	TRIAL	n/a	n/a	n/a	n/a	-999	14	[0, 0, 0]	n/a	catFR1	1	R1141T
1420.369	10.428	1389563	COUNTDOWN_START	n/a	n/a	n/a	n/a	-999	14	[0, 0, 0]	n/a	catFR1	1	R1141T
1430.797	0.008	1399990	COUNTDOWN_END	n/a	n/a	n/a	n/a	-999	14	[0, 0, 0]	n/a	catFR1	1	R1141T
1430.805	3.616	1399998	ORIENT	n/a	n/a	n/a	n/a	-999	14	[0, 0, 0]	n/a	catFR1	1	R1141T
1434.421	2.385	1403614	WORD	n/a	wordpools/wordpool_categorized_EN.txt	CABINET	Furniture	1	14	[0, 0, 0]	n/a	catFR1	1	R1141T
1436.806	2.583	1405999	WORD	n/a	wordpools/wordpool_categorized_EN.txt	BED	Furniture	2	14	[0, 0, 0]	n/a	catFR1	1	R1141T
1439.389	2.602	1408582	WORD	n/a	wordpools/wordpool_categorized_EN.txt	TOE	BodyParts	3	14	[0, 0, 0]	n/a	catFR1	1	R1141T
1441.991	2.516	1411184	WORD	n/a	wordpools/wordpool_categorized_EN.txt	ARM	BodyParts	4	14	[0, 0, 0]	n/a	catFR1	1	R1141T
1444.507	2.468	1413700	WORD	n/a	wordpools/wordpool_categorized_EN.txt	CUCUMBER	Vegetables	5	14	[0, 0, 0]	n/a	catFR1	1	R1141T
1446.975	2.449	1416167	WORD	n/a	wordpools/wordpool_categorized_EN.txt	CAULIFLOWER	Vegetables	6	14	[0, 0, 0]	n/a	catFR1	1	R1141T
1449.424	2.468	1418616	WORD	n/a	wordpools/wordpool_categorized_EN.txt	HEAD	BodyParts	7	14	[0, 0, 0]	n/a	catFR1	1	R1141T
1451.892	2.6	1421084	WORD	n/a	wordpools/wordpool_categorized_EN.txt	FINGERS	BodyParts	8	14	[0, 0, 0]	n/a	catFR1	1	R1141T
1454.492	2.601	1423684	WORD	n/a	wordpools/wordpool_categorized_EN.txt	CHAIR	Furniture	9	14	[0, 0, 0]	n/a	catFR1	1	R1141T
1457.093	2.433	1426285	WORD	n/a	wordpools/wordpool_categorized_EN.txt	DESK	Furniture	10	14	[0, 0, 0]	n/a	catFR1	1	R1141T
1459.526	2.602	1428718	WORD	n/a	wordpools/wordpool_categorized_EN.txt	ONION	Vegetables	11	14	[0, 0, 0]	n/a	catFR1	1	R1141T
1462.128	1.616	1431320	WORD	n/a	wordpools/wordpool_categorized_EN.txt	CARROT	Vegetables	12	14	[0, 0, 0]	n/a	catFR1	1	R1141T
1463.744	0.001	1432936	DISTRACT_START	n/a	n/a	n/a	n/a	-999	14	[0, 0, 0]	n/a	catFR1	1	R1141T
1463.745	0.015	1432937	START	n/a	n/a	n/a	n/a	-999	14	[-999, -999, -999]	n/a	catFR1	1	R1141T
1463.76	3.352	1432952	PROB	3.352	n/a	n/a	n/a	-999	14	[4, 4, 7]	18	catFR1	1	R1141T
1467.112	3.9	1436303	PROB	3.9	n/a	n/a	n/a	-999	14	[6, 8, 8]	22	catFR1	1	R1141T
1471.012	2.683	1440203	PROB	2.683	n/a	n/a	n/a	-999	14	[5, 6, 2]	13	catFR1	1	R1141T
1473.695	2.701	1442886	PROB	2.701	n/a	n/a	n/a	-999	14	[1, 9, 6]	16	catFR1	1	R1141T
1476.396	2.034	1445587	PROB	2.034	n/a	n/a	n/a	-999	14	[1, 3, 5]	9	catFR1	1	R1141T
1478.43	3.15	1447621	PROB	3.15	n/a	n/a	n/a	-999	14	[3, 9, 8]	20	catFR1	1	R1141T
1481.58	2.99	1450771	PROB	2.99	n/a	n/a	n/a	-999	14	[4, 2, 7]	13	catFR1	1	R1141T
1484.57	0.011	1453761	STOP	n/a	n/a	n/a	n/a	-999	14	[-999, -999, -999]	n/a	catFR1	1	R1141T
1484.581	1.034	1453772	DISTRACT_END	n/a	n/a	n/a	n/a	-999	14	[0, 0, 0]	n/a	catFR1	1	R1141T
1485.615	2.591	1454806	REC_START	n/a	n/a	n/a	n/a	-999	14	[0, 0, 0]	n/a	catFR1	1	R1141T
1488.206	1.724	1457396	REC_WORD	1.724	n/a	CUCUMBER	Vegetables	5	14	[0, 0, 0]	n/a	catFR1	1	R1141T
1489.93	1.54	1459120	REC_WORD	1.54	n/a	ONION	Vegetables	11	14	[0, 0, 0]	n/a	catFR1	1	R1141T
1491.47	1.765	1460660	REC_WORD	1.765	n/a	CHAIR	Furniture	9	14	[0, 0, 0]	n/a	catFR1	1	R1141T
1493.235	3.547	1462425	REC_WORD	3.547	n/a	DESK	Furniture	10	14	[0, 0, 0]	n/a	catFR1	1	R1141T
1496.782	18.844	1465972	REC_WORD	18.844	n/a	CABINET	Furniture	1	14	[0, 0, 0]	n/a	catFR1	1	R1141T
1515.626	1.727	1484815	REC_END	n/a	n/a	n/a	n/a	-999	14	[0, 0, 0]	n/a	catFR1	1	R1141T
1517.353	0.001	1486542	COUNTDOWN_START	n/a	n/a	n/a	n/a	-999	15	[0, 0, 0]	n/a	catFR1	1	R1141T
1517.354	10.427	1486543	TRIAL	n/a	n/a	n/a	n/a	-999	15	[0, 0, 0]	n/a	catFR1	1	R1141T
1527.781	0.007	1496969	COUNTDOWN_END	n/a	n/a	n/a	n/a	-999	15	[0, 0, 0]	n/a	catFR1	1	R1141T
1527.788	3.568	1496976	ORIENT	n/a	n/a	n/a	n/a	-999	15	[0, 0, 0]	n/a	catFR1	1	R1141T
1531.356	2.601	1500544	WORD	n/a	wordpools/wordpool_categorized_EN.txt	POTATO	Vegetables	1	15	[0, 0, 0]	n/a	catFR1	1	R1141T
1533.957	2.416	1503145	WORD	n/a	wordpools/wordpool_categorized_EN.txt	CABBAGE	Vegetables	2	15	[0, 0, 0]	n/a	catFR1	1	R1141T
1536.373	2.401	1505561	WORD	n/a	wordpools/wordpool_categorized_EN.txt	COMPUTER	Electronics	3	15	[0, 0, 0]	n/a	catFR1	1	R1141T
1538.774	2.535	1507962	WORD	n/a	wordpools/wordpool_categorized_EN.txt	PRINTER	Electronics	4	15	[0, 0, 0]	n/a	catFR1	1	R1141T
1541.309	2.567	1510497	WORD	n/a	wordpools/wordpool_categorized_EN.txt	STRAINER	KitchenTools	5	15	[0, 0, 0]	n/a	catFR1	1	R1141T
1543.876	2.433	1513064	WORD	n/a	wordpools/wordpool_categorized_EN.txt	FORK	KitchenTools	6	15	[0, 0, 0]	n/a	catFR1	1	R1141T
1546.309	2.584	1515497	WORD	n/a	wordpools/wordpool_categorized_EN.txt	TELEVISION	Electronics	7	15	[0, 0, 0]	n/a	catFR1	1	R1141T
1548.893	2.516	1518080	WORD	n/a	wordpools/wordpool_categorized_EN.txt	SPEAKER	Electronics	8	15	[0, 0, 0]	n/a	catFR1	1	R1141T
1551.409	2.535	1520596	WORD	n/a	wordpools/wordpool_categorized_EN.txt	SPINACH	Vegetables	9	15	[0, 0, 0]	n/a	catFR1	1	R1141T
1553.944	2.466	1523131	WORD	n/a	wordpools/wordpool_categorized_EN.txt	BROCCOLI	Vegetables	10	15	[0, 0, 0]	n/a	catFR1	1	R1141T
1556.41	2.602	1525597	WORD	n/a	wordpools/wordpool_categorized_EN.txt	CORKSCREW	KitchenTools	11	15	[0, 0, 0]	n/a	catFR1	1	R1141T
1559.012	1.616	1528199	WORD	n/a	wordpools/wordpool_categorized_EN.txt	WHISK	KitchenTools	12	15	[0, 0, 0]	n/a	catFR1	1	R1141T
1560.628	0.001	1529815	DISTRACT_START	n/a	n/a	n/a	n/a	-999	15	[0, 0, 0]	n/a	catFR1	1	R1141T
1560.629	0.015	1529816	START	n/a	n/a	n/a	n/a	-999	15	[-999, -999, -999]	n/a	catFR1	1	R1141T
1560.644	2.718	1529831	PROB	2.718	n/a	n/a	n/a	-999	15	[4, 6, 1]	11	catFR1	1	R1141T
1563.362	3.4	1532549	PROB	3.4	n/a	n/a	n/a	-999	15	[4, 9, 9]	22	catFR1	1	R1141T
1566.762	3.934	1535949	PROB	3.934	n/a	n/a	n/a	-999	15	[7, 9, 3]	19	catFR1	1	R1141T
1570.696	2.118	1539882	PROB	2.118	n/a	n/a	n/a	-999	15	[1, 1, 7]	9	catFR1	1	R1141T
1572.814	2.95	1542000	PROB	2.95	n/a	n/a	n/a	-999	15	[2, 3, 8]	13	catFR1	1	R1141T
1575.764	4.218	1544950	PROB	4.218	n/a	n/a	n/a	-999	15	[8, 7, 5]	20	catFR1	1	R1141T
1579.982	4.548	1549168	PROB	4.548	n/a	n/a	n/a	-999	15	[1, 9, 6]	16	catFR1	1	R1141T
1584.53	0.019	1553716	STOP	n/a	n/a	n/a	n/a	-999	15	[-999, -999, -999]	n/a	catFR1	1	R1141T
1584.549	1.051	1553735	DISTRACT_END	n/a	n/a	n/a	n/a	-999	15	[0, 0, 0]	n/a	catFR1	1	R1141T
1585.6	1.739	1554786	REC_START	n/a	n/a	n/a	n/a	-999	15	[0, 0, 0]	n/a	catFR1	1	R1141T
1587.339	1.526	1556525	REC_WORD	1.526	n/a	CORKSCREW	KitchenTools	11	15	[0, 0, 0]	n/a	catFR1	1	R1141T
1588.865	2.101	1558050	REC_WORD	2.101	n/a	TELEVISION	Electronics	7	15	[0, 0, 0]	n/a	catFR1	1	R1141T
1590.966	3.302	1560151	REC_WORD	3.302	n/a	CABBAGE	Vegetables	2	15	[0, 0, 0]	n/a	catFR1	1	R1141T
1594.268	13.325	1563453	REC_WORD	13.325	n/a	FORK	KitchenTools	6	15	[0, 0, 0]	n/a	catFR1	1	R1141T
1607.593	8.018	1576778	REC_WORD	8.018	n/a	STRAINER	KitchenTools	5	15	[0, 0, 0]	n/a	catFR1	1	R1141T
1615.611	2.094	1584795	REC_END	n/a	n/a	n/a	n/a	-999	15	[0, 0, 0]	n/a	catFR1	1	R1141T
1617.705	0.0	1586889	TRIAL	n/a	n/a	n/a	n/a	-999	16	[0, 0, 0]	n/a	catFR1	1	R1141T
1617.705	10.428	1586889	COUNTDOWN_START	n/a	n/a	n/a	n/a	-999	16	[0, 0, 0]	n/a	catFR1	1	R1141T
1628.133	0.008	1597317	COUNTDOWN_END	n/a	n/a	n/a	n/a	-999	16	[0, 0, 0]	n/a	catFR1	1	R1141T
1628.141	3.851	1597325	ORIENT	n/a	n/a	n/a	n/a	-999	16	[0, 0, 0]	n/a	catFR1	1	R1141T
1631.992	2.533	1601175	WORD	n/a	wordpools/wordpool_categorized_EN.txt	BEER	Beverages	1	16	[0, 0, 0]	n/a	catFR1	1	R1141T
1634.525	2.568	1603708	WORD	n/a	wordpools/wordpool_categorized_EN.txt	WATER	Beverages	2	16	[0, 0, 0]	n/a	catFR1	1	R1141T
1637.093	2.432	1606276	WORD	n/a	wordpools/wordpool_categorized_EN.txt	CROWBAR	Tools	3	16	[0, 0, 0]	n/a	catFR1	1	R1141T
1639.525	2.552	1608708	WORD	n/a	wordpools/wordpool_categorized_EN.txt	PLIERS	Tools	4	16	[0, 0, 0]	n/a	catFR1	1	R1141T
1642.077	2.599	1611260	WORD	n/a	wordpools/wordpool_categorized_EN.txt	DOOR	Building	5	16	[0, 0, 0]	n/a	catFR1	1	R1141T
1644.676	2.585	1613859	WORD	n/a	wordpools/wordpool_categorized_EN.txt	BATHROOM	Building	6	16	[0, 0, 0]	n/a	catFR1	1	R1141T
1647.261	2.483	1616444	WORD	n/a	wordpools/wordpool_categorized_EN.txt	LEVEL	Tools	7	16	[0, 0, 0]	n/a	catFR1	1	R1141T
1649.744	2.485	1618926	WORD	n/a	wordpools/wordpool_categorized_EN.txt	SANDER	Tools	8	16	[0, 0, 0]	n/a	catFR1	1	R1141T
1652.229	2.433	1621411	WORD	n/a	wordpools/wordpool_categorized_EN.txt	TEA	Beverages	9	16	[0, 0, 0]	n/a	catFR1	1	R1141T
1654.662	2.601	1623844	WORD	n/a	wordpools/wordpool_categorized_EN.txt	LEMONADE	Beverages	10	16	[0, 0, 0]	n/a	catFR1	1	R1141T
1657.263	2.399	1626445	WORD	n/a	wordpools/wordpool_categorized_EN.txt	STAIRS	Building	11	16	[0, 0, 0]	n/a	catFR1	1	R1141T
1659.662	1.601	1628844	WORD	n/a	wordpools/wordpool_categorized_EN.txt	FOUNDATION	Building	12	16	[0, 0, 0]	n/a	catFR1	1	R1141T
1661.263	0.001	1630445	DISTRACT_START	n/a	n/a	n/a	n/a	-999	16	[0, 0, 0]	n/a	catFR1	1	R1141T
1661.264	0.016	1630446	START	n/a	n/a	n/a	n/a	-999	16	[-999, -999, -999]	n/a	catFR1	1	R1141T
1661.28	3.751	1630462	PROB	3.751	n/a	n/a	n/a	-999	16	[1, 7, 8]	16	catFR1	1	R1141T
1665.031	3.901	1634213	PROB	3.901	n/a	n/a	n/a	-999	16	[2, 4, 9]	15	catFR1	1	R1141T
1668.932	3.0	1638114	PROB	3.0	n/a	n/a	n/a	-999	16	[5, 3, 6]	14	catFR1	1	R1141T
1671.932	3.65	1641113	PROB	3.65	n/a	n/a	n/a	-999	16	[9, 4, 2]	15	catFR1	1	R1141T
1675.582	2.218	1644763	PROB	2.218	n/a	n/a	n/a	-999	16	[1, 3, 2]	6	catFR1	1	R1141T
1677.8	4.627	1646981	PROB	4.627	n/a	n/a	n/a	-999	16	[5, 3, 9]	17	catFR1	1	R1141T
1682.427	0.006	1651608	STOP	n/a	n/a	n/a	n/a	-999	16	[-999, -999, -999]	n/a	catFR1	1	R1141T
1682.433	1.201	1651614	DISTRACT_END	n/a	n/a	n/a	n/a	-999	16	[0, 0, 0]	n/a	catFR1	1	R1141T
1683.634	1.599	1652815	REC_START	n/a	n/a	n/a	n/a	-999	16	[0, 0, 0]	n/a	catFR1	1	R1141T
1685.233	1.2	1654414	REC_WORD	1.2	n/a	BEER	Beverages	1	16	[0, 0, 0]	n/a	catFR1	1	R1141T
1686.433	2.386	1655614	REC_WORD	2.386	n/a	WATER	Beverages	2	16	[0, 0, 0]	n/a	catFR1	1	R1141T
1688.819	2.968	1658000	REC_WORD	2.968	n/a	TEA	Beverages	9	16	[0, 0, 0]	n/a	catFR1	1	R1141T
1691.787	1.869	1660967	REC_WORD	1.869	n/a	BATHROOM	Building	6	16	[0, 0, 0]	n/a	catFR1	1	R1141T
1693.656	2.096	1662836	REC_WORD	2.096	n/a	DOOR	Building	5	16	[0, 0, 0]	n/a	catFR1	1	R1141T
1695.752	3.358	1664932	REC_WORD	3.358	n/a	WALL	n/a	-999	16	[0, 0, 0]	n/a	catFR1	1	R1141T
1699.11	14.537	1668290	REC_WORD	14.537	n/a	LEMONADE	Beverages	10	16	[0, 0, 0]	n/a	catFR1	1	R1141T
1713.647	1.327	1682826	REC_END	n/a	n/a	n/a	n/a	-999	16	[0, 0, 0]	n/a	catFR1	1	R1141T
1714.974	0.0	1684153	COUNTDOWN_START	n/a	n/a	n/a	n/a	-999	17	[0, 0, 0]	n/a	catFR1	1	R1141T
1714.974	10.428	1684153	TRIAL	n/a	n/a	n/a	n/a	-999	17	[0, 0, 0]	n/a	catFR1	1	R1141T
1725.402	0.006	1694581	COUNTDOWN_END	n/a	n/a	n/a	n/a	-999	17	[0, 0, 0]	n/a	catFR1	1	R1141T
1725.408	3.735	1694587	ORIENT	n/a	n/a	n/a	n/a	-999	17	[0, 0, 0]	n/a	catFR1	1	R1141T
1729.143	2.583	1698322	WORD	n/a	wordpools/wordpool_categorized_EN.txt	RUM	Beverages	1	17	[0, 0, 0]	n/a	catFR1	1	R1141T
1731.726	2.418	1700904	WORD	n/a	wordpools/wordpool_categorized_EN.txt	JUICE	Beverages	2	17	[0, 0, 0]	n/a	catFR1	1	R1141T
1734.144	2.499	1703322	WORD	n/a	wordpools/wordpool_categorized_EN.txt	LADYBUG	Insects	3	17	[0, 0, 0]	n/a	catFR1	1	R1141T
1736.643	2.402	1705821	WORD	n/a	wordpools/wordpool_categorized_EN.txt	MOSQUITO	Insects	4	17	[0, 0, 0]	n/a	catFR1	1	R1141T
1739.045	2.549	1708223	WORD	n/a	wordpools/wordpool_categorized_EN.txt	COLANDER	KitchenTools	5	17	[0, 0, 0]	n/a	catFR1	1	R1141T
1741.594	2.552	1710772	WORD	n/a	wordpools/wordpool_categorized_EN.txt	KNIFE	KitchenTools	6	17	[0, 0, 0]	n/a	catFR1	1	R1141T
1744.146	2.399	1713324	WORD	n/a	wordpools/wordpool_categorized_EN.txt	COLA	Beverages	7	17	[0, 0, 0]	n/a	catFR1	1	R1141T
1746.545	2.501	1715723	WORD	n/a	wordpools/wordpool_categorized_EN.txt	COFFEE	Beverages	8	17	[0, 0, 0]	n/a	catFR1	1	R1141T
1749.046	2.55	1718224	WORD	n/a	wordpools/wordpool_categorized_EN.txt	TONGS	KitchenTools	9	17	[0, 0, 0]	n/a	catFR1	1	R1141T
1751.596	2.435	1720774	WORD	n/a	wordpools/wordpool_categorized_EN.txt	LADLE	KitchenTools	10	17	[0, 0, 0]	n/a	catFR1	1	R1141T
1754.031	2.449	1723208	WORD	n/a	wordpools/wordpool_categorized_EN.txt	FLY	Insects	11	17	[0, 0, 0]	n/a	catFR1	1	R1141T
1756.48	1.601	1725657	WORD	n/a	wordpools/wordpool_categorized_EN.txt	ROACH	Insects	12	17	[0, 0, 0]	n/a	catFR1	1	R1141T
1758.081	0.001	1727258	DISTRACT_START	n/a	n/a	n/a	n/a	-999	17	[0, 0, 0]	n/a	catFR1	1	R1141T
1758.082	0.016	1727259	START	n/a	n/a	n/a	n/a	-999	17	[-999, -999, -999]	n/a	catFR1	1	R1141T
1758.098	3.5	1727275	PROB	3.5	n/a	n/a	n/a	-999	17	[9, 6, 5]	20	catFR1	1	R1141T
1761.598	3.251	1730775	PROB	3.251	n/a	n/a	n/a	-999	17	[1, 4, 2]	7	catFR1	1	R1141T
1764.849	2.968	1734026	PROB	2.968	n/a	n/a	n/a	-999	17	[9, 1, 2]	12	catFR1	1	R1141T
1767.817	2.0	1736994	PROB	2.0	n/a	n/a	n/a	-999	17	[1, 2, 9]	12	catFR1	1	R1141T
1769.817	2.966	1738994	PROB	2.966	n/a	n/a	n/a	-999	17	[9, 5, 5]	19	catFR1	1	R1141T
1772.783	2.185	1741959	PROB	2.185	n/a	n/a	n/a	-999	17	[7, 4, 2]	13	catFR1	1	R1141T
1774.968	2.516	1744144	PROB	2.516	n/a	n/a	n/a	-999	17	[1, 3, 2]	6	catFR1	1	R1141T
1777.484	2.711	1746660	PROB	2.711	n/a	n/a	n/a	-999	17	[6, 5, 9]	20	catFR1	1	R1141T
1780.195	0.007	1749371	STOP	n/a	n/a	n/a	n/a	-999	17	[-999, -999, -999]	n/a	catFR1	1	R1141T
1780.202	1.101	1749378	DISTRACT_END	n/a	n/a	n/a	n/a	-999	17	[0, 0, 0]	n/a	catFR1	1	R1141T
1781.303	2.458	1750479	REC_START	n/a	n/a	n/a	n/a	-999	17	[0, 0, 0]	n/a	catFR1	1	R1141T
1783.761	1.335	1752937	REC_WORD	1.335	n/a	MOSQUITO	Insects	4	17	[0, 0, 0]	n/a	catFR1	1	R1141T
1785.096	3.424	1754272	REC_WORD	3.424	n/a	LADYBUG	Insects	3	17	[0, 0, 0]	n/a	catFR1	1	R1141T
1788.52	13.538	1757696	REC_WORD	13.538	n/a	LADLE	KitchenTools	10	17	[0, 0, 0]	n/a	catFR1	1	R1141T
1802.058	9.257	1771233	REC_WORD	9.257	n/a	RUM	Beverages	1	17	[0, 0, 0]	n/a	catFR1	1	R1141T
1811.315	3.326	1780490	REC_END	n/a	n/a	n/a	n/a	-999	17	[0, 0, 0]	n/a	catFR1	1	R1141T
1814.641	0.0	1783815	TRIAL	n/a	n/a	n/a	n/a	-999	18	[0, 0, 0]	n/a	catFR1	1	R1141T
1814.641	10.428	1783815	COUNTDOWN_START	n/a	n/a	n/a	n/a	-999	18	[0, 0, 0]	n/a	catFR1	1	R1141T
1825.069	0.008	1794243	COUNTDOWN_END	n/a	n/a	n/a	n/a	-999	18	[0, 0, 0]	n/a	catFR1	1	R1141T
1825.077	3.516	1794251	ORIENT	n/a	n/a	n/a	n/a	-999	18	[0, 0, 0]	n/a	catFR1	1	R1141T
1828.593	2.552	1797767	WORD	n/a	wordpools/wordpool_categorized_EN.txt	STRAWBERRY	Fruit	1	18	[0, 0, 0]	n/a	catFR1	1	R1141T
1831.145	2.433	1800319	WORD	n/a	wordpools/wordpool_categorized_EN.txt	GRAPE	Fruit	2	18	[0, 0, 0]	n/a	catFR1	1	R1141T
1833.578	2.551	1802751	WORD	n/a	wordpools/wordpool_categorized_EN.txt	WASHER	Appliances	3	18	[0, 0, 0]	n/a	catFR1	1	R1141T
1836.129	2.399	1805302	WORD	n/a	wordpools/wordpool_categorized_EN.txt	REFRIGERATOR	Appliances	4	18	[0, 0, 0]	n/a	catFR1	1	R1141T
1838.528	2.418	1807701	WORD	n/a	wordpools/wordpool_categorized_EN.txt	JEANS	Clothing	5	18	[0, 0, 0]	n/a	catFR1	1	R1141T
1840.946	2.383	1810119	WORD	n/a	wordpools/wordpool_categorized_EN.txt	UNDERWEAR	Clothing	6	18	[0, 0, 0]	n/a	catFR1	1	R1141T
1843.329	2.485	1812502	WORD	n/a	wordpools/wordpool_categorized_EN.txt	DISHWASHER	Appliances	7	18	[0, 0, 0]	n/a	catFR1	1	R1141T
1845.814	2.616	1814987	WORD	n/a	wordpools/wordpool_categorized_EN.txt	VACUUM	Appliances	8	18	[0, 0, 0]	n/a	catFR1	1	R1141T
1848.43	2.518	1817603	WORD	n/a	wordpools/wordpool_categorized_EN.txt	ORANGE	Fruit	9	18	[0, 0, 0]	n/a	catFR1	1	R1141T
1850.948	2.5	1820121	WORD	n/a	wordpools/wordpool_categorized_EN.txt	PEAR	Fruit	10	18	[0, 0, 0]	n/a	catFR1	1	R1141T
1853.448	2.468	1822621	WORD	n/a	wordpools/wordpool_categorized_EN.txt	COAT	Clothing	11	18	[0, 0, 0]	n/a	catFR1	1	R1141T
1855.916	1.616	1825088	WORD	n/a	wordpools/wordpool_categorized_EN.txt	SKIRT	Clothing	12	18	[0, 0, 0]	n/a	catFR1	1	R1141T
1857.532	0.001	1826704	DISTRACT_START	n/a	n/a	n/a	n/a	-999	18	[0, 0, 0]	n/a	catFR1	1	R1141T
1857.533	0.016	1826705	START	n/a	n/a	n/a	n/a	-999	18	[-999, -999, -999]	n/a	catFR1	1	R1141T
1857.549	2.701	1826721	PROB	2.701	n/a	n/a	n/a	-999	18	[2, 2, 1]	5	catFR1	1	R1141T
1860.25	3.133	1829422	PROB	3.133	n/a	n/a	n/a	-999	18	[2, 3, 2]	7	catFR1	1	R1141T
1863.383	5.401	1832555	PROB	5.401	n/a	n/a	n/a	-999	18	[5, 2, 9]	16	catFR1	1	R1141T
1868.784	2.518	1837956	PROB	2.518	n/a	n/a	n/a	-999	18	[6, 5, 9]	20	catFR1	1	R1141T
1871.302	5.4	1840474	PROB	5.4	n/a	n/a	n/a	-999	18	[4, 2, 3]	9	catFR1	1	R1141T
1876.702	2.293	1845873	PROB	2.293	n/a	n/a	n/a	-999	18	[6, 5, 9]	20	catFR1	1	R1141T
1878.995	0.008	1848166	STOP	n/a	n/a	n/a	n/a	-999	18	[-999, -999, -999]	n/a	catFR1	1	R1141T
1879.003	1.051	1848174	DISTRACT_END	n/a	n/a	n/a	n/a	-999	18	[0, 0, 0]	n/a	catFR1	1	R1141T
1880.054	1.33	1849225	REC_START	n/a	n/a	n/a	n/a	-999	18	[0, 0, 0]	n/a	catFR1	1	R1141T
1881.384	2.009	1850555	REC_WORD	2.009	n/a	STRAWBERRY	Fruit	1	18	[0, 0, 0]	n/a	catFR1	1	R1141T
1883.393	1.944	1852564	REC_WORD	1.944	n/a	GRAPE	Fruit	2	18	[0, 0, 0]	n/a	catFR1	1	R1141T
1885.337	1.866	1854508	REC_WORD	1.866	n/a	WASHER	Appliances	3	18	[0, 0, 0]	n/a	catFR1	1	R1141T
1887.203	6.995	1856374	REC_WORD	6.995	n/a	ORANGE	Fruit	9	18	[0, 0, 0]	n/a	catFR1	1	R1141T
1894.198	15.869	1863369	REC_WORD	15.869	n/a	REFRIGERATOR	Appliances	4	18	[0, 0, 0]	n/a	catFR1	1	R1141T
1910.067	2.442	1879237	REC_END	n/a	n/a	n/a	n/a	-999	18	[0, 0, 0]	n/a	catFR1	1	R1141T
1912.509	0.0	1881679	TRIAL	n/a	n/a	n/a	n/a	-999	19	[0, 0, 0]	n/a	catFR1	1	R1141T
1912.509	10.428	1881679	COUNTDOWN_START	n/a	n/a	n/a	n/a	-999	19	[0, 0, 0]	n/a	catFR1	1	R1141T
1922.937	0.008	1892106	COUNTDOWN_END	n/a	n/a	n/a	n/a	-999	19	[0, 0, 0]	n/a	catFR1	1	R1141T
1922.945	3.416	1892114	ORIENT	n/a	n/a	n/a	n/a	-999	19	[0, 0, 0]	n/a	catFR1	1	R1141T
1926.361	2.568	1895530	WORD	n/a	wordpools/wordpool_categorized_EN.txt	FUDGE	Desserts	1	19	[0, 0, 0]	n/a	catFR1	1	R1141T
1928.929	2.583	1898098	WORD	n/a	wordpools/wordpool_categorized_EN.txt	PUDDING	Desserts	2	19	[0, 0, 0]	n/a	catFR1	1	R1141T
1931.512	2.535	1900681	WORD	n/a	wordpools/wordpool_categorized_EN.txt	SODA	Beverages	3	19	[0, 0, 0]	n/a	catFR1	1	R1141T
1934.047	2.449	1903216	WORD	n/a	wordpools/wordpool_categorized_EN.txt	CIDER	Beverages	4	19	[0, 0, 0]	n/a	catFR1	1	R1141T
1936.496	2.402	1905664	WORD	n/a	wordpools/wordpool_categorized_EN.txt	PLANE	Vehicles	5	19	[0, 0, 0]	n/a	catFR1	1	R1141T
1938.898	2.417	1908066	WORD	n/a	wordpools/wordpool_categorized_EN.txt	BUS	Vehicles	6	19	[0, 0, 0]	n/a	catFR1	1	R1141T
1941.315	2.466	1910483	WORD	n/a	wordpools/wordpool_categorized_EN.txt	MILK	Beverages	7	19	[0, 0, 0]	n/a	catFR1	1	R1141T
1943.781	2.435	1912949	WORD	n/a	wordpools/wordpool_categorized_EN.txt	WINE	Beverages	8	19	[0, 0, 0]	n/a	catFR1	1	R1141T
1946.216	2.416	1915384	WORD	n/a	wordpools/wordpool_categorized_EN.txt	CUPCAKE	Desserts	9	19	[0, 0, 0]	n/a	catFR1	1	R1141T
1948.632	2.568	1917800	WORD	n/a	wordpools/wordpool_categorized_EN.txt	PASTRY	Desserts	10	19	[0, 0, 0]	n/a	catFR1	1	R1141T
1951.2	2.566	1920368	WORD	n/a	wordpools/wordpool_categorized_EN.txt	MOPED	Vehicles	11	19	[0, 0, 0]	n/a	catFR1	1	R1141T
1953.766	1.617	1922934	WORD	n/a	wordpools/wordpool_categorized_EN.txt	MOTORCYCLE	Vehicles	12	19	[0, 0, 0]	n/a	catFR1	1	R1141T
1955.383	0.001	1924551	DISTRACT_START	n/a	n/a	n/a	n/a	-999	19	[0, 0, 0]	n/a	catFR1	1	R1141T
1955.384	0.016	1924552	START	n/a	n/a	n/a	n/a	-999	19	[-999, -999, -999]	n/a	catFR1	1	R1141T
1955.4	3.835	1924568	PROB	3.835	n/a	n/a	n/a	-999	19	[2, 9, 6]	17	catFR1	1	R1141T
1959.235	3.65	1928402	PROB	3.65	n/a	n/a	n/a	-999	19	[5, 2, 2]	9	catFR1	1	R1141T
1962.885	3.418	1932052	PROB	3.418	n/a	n/a	n/a	-999	19	[1, 1, 6]	8	catFR1	1	R1141T
1966.303	2.533	1935470	PROB	2.533	n/a	n/a	n/a	-999	19	[5, 1, 2]	8	catFR1	1	R1141T
1968.836	2.251	1938003	PROB	2.251	n/a	n/a	n/a	-999	19	[3, 7, 8]	18	catFR1	1	R1141T
1971.087	3.901	1940254	PROB	3.901	n/a	n/a	n/a	-999	19	[9, 4, 9]	22	catFR1	1	R1141T
1974.988	1.582	1944155	PROB	1.582	n/a	n/a	n/a	-999	19	[1, 1, 1]	3	catFR1	1	R1141T
1976.57	0.017	1945736	STOP	n/a	n/a	n/a	n/a	-999	19	[-999, -999, -999]	n/a	catFR1	1	R1141T
1976.587	1.201	1945753	DISTRACT_END	n/a	n/a	n/a	n/a	-999	19	[0, 0, 0]	n/a	catFR1	1	R1141T
1977.788	1.326	1946954	REC_START	n/a	n/a	n/a	n/a	-999	19	[0, 0, 0]	n/a	catFR1	1	R1141T
1979.114	1.379	1948280	REC_WORD	1.379	n/a	FUDGE	Desserts	1	19	[0, 0, 0]	n/a	catFR1	1	R1141T
1980.493	1.826	1949659	REC_WORD	1.826	n/a	PUDDING	Desserts	2	19	[0, 0, 0]	n/a	catFR1	1	R1141T
1982.319	2.066	1951485	REC_WORD	2.066	n/a	MOTORCYCLE	Vehicles	12	19	[0, 0, 0]	n/a	catFR1	1	R1141T
1984.385	15.842	1953551	REC_WORD	15.842	n/a	CUPCAKE	Desserts	9	19	[0, 0, 0]	n/a	catFR1	1	R1141T
2000.227	7.573	1969392	REC_WORD	7.573	n/a	MILK	Beverages	7	19	[0, 0, 0]	n/a	catFR1	1	R1141T
2007.8	2.344	1976965	REC_END	n/a	n/a	n/a	n/a	-999	19	[0, 0, 0]	n/a	catFR1	1	R1141T
2010.144	0.0	1979309	TRIAL	n/a	n/a	n/a	n/a	-999	20	[0, 0, 0]	n/a	catFR1	1	R1141T
2010.144	10.428	1979309	COUNTDOWN_START	n/a	n/a	n/a	n/a	-999	20	[0, 0, 0]	n/a	catFR1	1	R1141T
2020.572	0.006	1989736	COUNTDOWN_END	n/a	n/a	n/a	n/a	-999	20	[0, 0, 0]	n/a	catFR1	1	R1141T
2020.578	3.851	1989742	ORIENT	n/a	n/a	n/a	n/a	-999	20	[0, 0, 0]	n/a	catFR1	1	R1141T
2024.429	2.518	1993593	WORD	n/a	wordpools/wordpool_categorized_EN.txt	BANANA	Fruit	1	20	[0, 0, 0]	n/a	catFR1	1	R1141T
2026.947	2.399	1996111	WORD	n/a	wordpools/wordpool_categorized_EN.txt	BLUEBERRY	Fruit	2	20	[0, 0, 0]	n/a	catFR1	1	R1141T
2029.346	2.469	1998510	WORD	n/a	wordpools/wordpool_categorized_EN.txt	GUITAR	Instruments	3	20	[0, 0, 0]	n/a	catFR1	1	R1141T
2031.815	2.433	2000979	WORD	n/a	wordpools/wordpool_categorized_EN.txt	DRUM	Instruments	4	20	[0, 0, 0]	n/a	catFR1	1	R1141T
2034.248	2.4	2003412	WORD	n/a	wordpools/wordpool_categorized_EN.txt	BOAT	Vehicles	5	20	[0, 0, 0]	n/a	catFR1	1	R1141T
2036.648	2.485	2005812	WORD	n/a	wordpools/wordpool_categorized_EN.txt	TRAIN	Vehicles	6	20	[0, 0, 0]	n/a	catFR1	1	R1141T
2039.133	2.532	2008296	WORD	n/a	wordpools/wordpool_categorized_EN.txt	LIME	Fruit	7	20	[0, 0, 0]	n/a	catFR1	1	R1141T
2041.665	2.568	2010828	WORD	n/a	wordpools/wordpool_categorized_EN.txt	APPLE	Fruit	8	20	[0, 0, 0]	n/a	catFR1	1	R1141T
2044.233	2.568	2013396	WORD	n/a	wordpools/wordpool_categorized_EN.txt	BIKE	Vehicles	9	20	[0, 0, 0]	n/a	catFR1	1	R1141T
2046.801	2.582	2015964	WORD	n/a	wordpools/wordpool_categorized_EN.txt	SCOOTER	Vehicles	10	20	[0, 0, 0]	n/a	catFR1	1	R1141T
2049.383	2.419	2018546	WORD	n/a	wordpools/wordpool_categorized_EN.txt	ORGAN	Instruments	11	20	[0, 0, 0]	n/a	catFR1	1	R1141T
2051.802	1.616	2020965	WORD	n/a	wordpools/wordpool_categorized_EN.txt	BANJO	Instruments	12	20	[0, 0, 0]	n/a	catFR1	1	R1141T
2053.418	0.001	2022581	DISTRACT_START	n/a	n/a	n/a	n/a	-999	20	[0, 0, 0]	n/a	catFR1	1	R1141T
2053.419	0.015	2022582	START	n/a	n/a	n/a	n/a	-999	20	[-999, -999, -999]	n/a	catFR1	1	R1141T
2053.434	3.568	2022597	PROB	3.568	n/a	n/a	n/a	-999	20	[2, 5, 7]	14	catFR1	1	R1141T
2057.002	2.4	2026165	PROB	2.4	n/a	n/a	n/a	-999	20	[7, 4, 7]	18	catFR1	1	R1141T
2059.402	5.068	2028564	PROB	5.068	n/a	n/a	n/a	-999	20	[7, 9, 7]	23	catFR1	1	R1141T
2064.47	3.401	2033632	PROB	3.401	n/a	n/a	n/a	-999	20	[8, 8, 6]	22	catFR1	1	R1141T
2067.871	3.117	2037033	PROB	3.117	n/a	n/a	n/a	-999	20	[7, 1, 5]	14	catFR1	1	R1141T
2070.988	2.975	2040150	PROB	2.975	n/a	n/a	n/a	-999	20	[3, 6, 6]	15	catFR1	1	R1141T
2073.963	0.009	2043125	STOP	n/a	n/a	n/a	n/a	-999	20	[-999, -999, -999]	n/a	catFR1	1	R1141T
2073.972	1.118	2043134	DISTRACT_END	n/a	n/a	n/a	n/a	-999	20	[0, 0, 0]	n/a	catFR1	1	R1141T
2075.09	3.915	2044252	REC_START	n/a	n/a	n/a	n/a	-999	20	[0, 0, 0]	n/a	catFR1	1	R1141T
2079.005	1.436	2048166	REC_WORD	1.436	n/a	BIKE	Vehicles	9	20	[0, 0, 0]	n/a	catFR1	1	R1141T
2080.441	3.31	2049602	REC_WORD	3.31	n/a	SCOOTER	Vehicles	10	20	[0, 0, 0]	n/a	catFR1	1	R1141T
2083.751	11.745	2052912	REC_WORD	11.745	n/a	BANANA	Fruit	1	20	[0, 0, 0]	n/a	catFR1	1	R1141T
2095.496	6.454	2064657	REC_WORD	6.454	n/a	PLANE	n/a	-999	20	[0, 0, 0]	n/a	catFR1	1	R1141T
2101.95	3.151	2071110	REC_WORD	3.151	n/a	LIME	Fruit	7	20	[0, 0, 0]	n/a	catFR1	1	R1141T
2105.101	1.944	2074261	REC_END	n/a	n/a	n/a	n/a	-999	20	[0, 0, 0]	n/a	catFR1	1	R1141T
2107.045	0.0	2076205	TRIAL	n/a	n/a	n/a	n/a	-999	21	[0, 0, 0]	n/a	catFR1	1	R1141T
2107.045	10.428	2076205	COUNTDOWN_START	n/a	n/a	n/a	n/a	-999	21	[0, 0, 0]	n/a	catFR1	1	R1141T
2117.473	0.006	2086633	COUNTDOWN_END	n/a	n/a	n/a	n/a	-999	21	[0, 0, 0]	n/a	catFR1	1	R1141T
2117.479	3.735	2086639	ORIENT	n/a	n/a	n/a	n/a	-999	21	[0, 0, 0]	n/a	catFR1	1	R1141T
2121.214	2.416	2090373	WORD	n/a	wordpools/wordpool_categorized_EN.txt	ERASER	OfficeSupplies	1	21	[0, 0, 0]	n/a	catFR1	1	R1141T
2123.63	2.518	2092789	WORD	n/a	wordpools/wordpool_categorized_EN.txt	MARKER	OfficeSupplies	2	21	[0, 0, 0]	n/a	catFR1	1	R1141T
2126.148	2.483	2095307	WORD	n/a	wordpools/wordpool_categorized_EN.txt	DOVE	Birds	3	21	[0, 0, 0]	n/a	catFR1	1	R1141T
2128.631	2.602	2097790	WORD	n/a	wordpools/wordpool_categorized_EN.txt	CARDINAL	Birds	4	21	[0, 0, 0]	n/a	catFR1	1	R1141T
2131.233	2.449	2100392	WORD	n/a	wordpools/wordpool_categorized_EN.txt	DOLL	Toys	5	21	[0, 0, 0]	n/a	catFR1	1	R1141T
2133.682	2.585	2102841	WORD	n/a	wordpools/wordpool_categorized_EN.txt	BARBIE	Toys	6	21	[0, 0, 0]	n/a	catFR1	1	R1141T
2136.267	2.483	2105426	WORD	n/a	wordpools/wordpool_categorized_EN.txt	HAWK	Birds	7	21	[0, 0, 0]	n/a	catFR1	1	R1141T
2138.75	2.501	2107909	WORD	n/a	wordpools/wordpool_categorized_EN.txt	DUCK	Birds	8	21	[0, 0, 0]	n/a	catFR1	1	R1141T
2141.251	2.533	2110409	WORD	n/a	wordpools/wordpool_categorized_EN.txt	PEN	OfficeSupplies	9	21	[0, 0, 0]	n/a	catFR1	1	R1141T
2143.784	2.385	2112942	WORD	n/a	wordpools/wordpool_categorized_EN.txt	PAPER	OfficeSupplies	10	21	[0, 0, 0]	n/a	catFR1	1	R1141T
2146.169	2.532	2115327	WORD	n/a	wordpools/wordpool_categorized_EN.txt	DOLLHOUSE	Toys	11	21	[0, 0, 0]	n/a	catFR1	1	R1141T
2148.701	1.602	2117859	WORD	n/a	wordpools/wordpool_categorized_EN.txt	BLOCKS	Toys	12	21	[0, 0, 0]	n/a	catFR1	1	R1141T
2150.303	0.001	2119461	DISTRACT_START	n/a	n/a	n/a	n/a	-999	21	[0, 0, 0]	n/a	catFR1	1	R1141T
2150.304	0.016	2119462	START	n/a	n/a	n/a	n/a	-999	21	[-999, -999, -999]	n/a	catFR1	1	R1141T
2150.32	4.967	2119478	PROB	4.967	n/a	n/a	n/a	-999	21	[9, 4, 3]	16	catFR1	1	R1141T
2155.287	1.901	2124445	PROB	1.901	n/a	n/a	n/a	-999	21	[2, 2, 5]	9	catFR1	1	R1141T
2157.188	4.767	2126346	PROB	4.767	n/a	n/a	n/a	-999	21	[7, 9, 9]	25	catFR1	1	R1141T
2161.955	3.051	2131112	PROB	3.051	n/a	n/a	n/a	-999	21	[8, 2, 6]	16	catFR1	1	R1141T
2165.006	3.934	2134163	PROB	3.934	n/a	n/a	n/a	-999	21	[8, 2, 6]	16	catFR1	1	R1141T
2168.94	2.256	2138097	PROB	2.256	n/a	n/a	n/a	-999	21	[5, 2, 2]	9	catFR1	1	R1141T
2171.196	0.011	2140353	STOP	n/a	n/a	n/a	n/a	-999	21	[-999, -999, -999]	n/a	catFR1	1	R1141T
2171.207	1.084	2140364	DISTRACT_END	n/a	n/a	n/a	n/a	-999	21	[0, 0, 0]	n/a	catFR1	1	R1141T
2172.291	1.102	2141448	REC_START	n/a	n/a	n/a	n/a	-999	21	[0, 0, 0]	n/a	catFR1	1	R1141T
2173.393	1.36	2142550	REC_WORD	1.36	n/a	ERASER	OfficeSupplies	1	21	[0, 0, 0]	n/a	catFR1	1	R1141T
2174.753	1.662	2143910	REC_WORD	1.662	n/a	MARKER	OfficeSupplies	2	21	[0, 0, 0]	n/a	catFR1	1	R1141T
2176.415	1.643	2145572	REC_WORD	1.643	n/a	PAPER	OfficeSupplies	10	21	[0, 0, 0]	n/a	catFR1	1	R1141T
2178.058	1.372	2147215	REC_WORD	1.372	n/a	DOLL	Toys	5	21	[0, 0, 0]	n/a	catFR1	1	R1141T
2179.43	3.108	2148587	REC_WORD	3.108	n/a	DOLLHOUSE	Toys	11	21	[0, 0, 0]	n/a	catFR1	1	R1141T
2182.538	3.732	2151694	REC_WORD	3.732	n/a	BLOCKS	Toys	12	21	[0, 0, 0]	n/a	catFR1	1	R1141T
2186.27	1.194	2155426	REC_WORD	1.194	n/a	DOVE	Birds	3	21	[0, 0, 0]	n/a	catFR1	1	R1141T
2187.464	4.526	2156620	REC_WORD	4.526	n/a	CARDINAL	Birds	4	21	[0, 0, 0]	n/a	catFR1	1	R1141T
2191.99	10.312	2161146	REC_WORD	10.312	n/a	HAWK	Birds	7	21	[0, 0, 0]	n/a	catFR1	1	R1141T
2202.302	1.927	2171457	REC_END	n/a	n/a	n/a	n/a	-999	21	[0, 0, 0]	n/a	catFR1	1	R1141T
2204.229	0.001	2173384	COUNTDOWN_START	n/a	n/a	n/a	n/a	-999	22	[0, 0, 0]	n/a	catFR1	1	R1141T
2204.23	10.427	2173385	TRIAL	n/a	n/a	n/a	n/a	-999	22	[0, 0, 0]	n/a	catFR1	1	R1141T
2214.657	0.007	2183812	COUNTDOWN_END	n/a	n/a	n/a	n/a	-999	22	[0, 0, 0]	n/a	catFR1	1	R1141T
2214.664	3.651	2183819	ORIENT	n/a	n/a	n/a	n/a	-999	22	[0, 0, 0]	n/a	catFR1	1	R1141T
2218.315	2.45	2187470	WORD	n/a	wordpools/wordpool_categorized_EN.txt	RECLINER	Furniture	1	22	[0, 0, 0]	n/a	catFR1	1	R1141T
2220.765	2.551	2189920	WORD	n/a	wordpools/wordpool_categorized_EN.txt	NIGHTSTAND	Furniture	2	22	[0, 0, 0]	n/a	catFR1	1	R1141T
2223.316	2.484	2192470	WORD	n/a	wordpools/wordpool_categorized_EN.txt	PEACH	Fruit	3	22	[0, 0, 0]	n/a	catFR1	1	R1141T
2225.8	2.583	2194954	WORD	n/a	wordpools/wordpool_categorized_EN.txt	CHERRY	Fruit	4	22	[0, 0, 0]	n/a	catFR1	1	R1141T
2228.383	2.601	2197537	WORD	n/a	wordpools/wordpool_categorized_EN.txt	BEE	Insects	5	22	[0, 0, 0]	n/a	catFR1	1	R1141T
2230.984	2.533	2200138	WORD	n/a	wordpools/wordpool_categorized_EN.txt	GNAT	Insects	6	22	[0, 0, 0]	n/a	catFR1	1	R1141T
2233.517	2.402	2202671	WORD	n/a	wordpools/wordpool_categorized_EN.txt	COUCH	Furniture	7	22	[0, 0, 0]	n/a	catFR1	1	R1141T
2235.919	2.4	2205073	WORD	n/a	wordpools/wordpool_categorized_EN.txt	SHELF	Furniture	8	22	[0, 0, 0]	n/a	catFR1	1	R1141T
2238.319	2.634	2207473	WORD	n/a	wordpools/wordpool_categorized_EN.txt	MOTH	Insects	9	22	[0, 0, 0]	n/a	catFR1	1	R1141T
2240.953	2.583	2210107	WORD	n/a	wordpools/wordpool_categorized_EN.txt	BUTTERFLY	Insects	10	22	[0, 0, 0]	n/a	catFR1	1	R1141T
2243.536	2.501	2212689	WORD	n/a	wordpools/wordpool_categorized_EN.txt	LEMON	Fruit	11	22	[0, 0, 0]	n/a	catFR1	1	R1141T
2246.037	1.616	2215190	WORD	n/a	wordpools/wordpool_categorized_EN.txt	PLUM	Fruit	12	22	[0, 0, 0]	n/a	catFR1	1	R1141T
2247.653	0.001	2216806	DISTRACT_START	n/a	n/a	n/a	n/a	-999	22	[0, 0, 0]	n/a	catFR1	1	R1141T
2247.654	0.016	2216807	START	n/a	n/a	n/a	n/a	-999	22	[-999, -999, -999]	n/a	catFR1	1	R1141T
2247.67	2.75	2216823	PROB	2.75	n/a	n/a	n/a	-999	22	[4, 5, 1]	10	catFR1	1	R1141T
2250.42	2.502	2219573	PROB	2.502	n/a	n/a	n/a	-999	22	[7, 6, 8]	21	catFR1	1	R1141T
2252.922	2.233	2222075	PROB	2.233	n/a	n/a	n/a	-999	22	[8, 5, 5]	18	catFR1	1	R1141T
2255.155	1.667	2224308	PROB	1.667	n/a	n/a	n/a	-999	22	[4, 6, 2]	12	catFR1	1	R1141T
2256.822	1.499	2225975	PROB	1.499	n/a	n/a	n/a	-999	22	[3, 7, 1]	11	catFR1	1	R1141T
2258.321	3.669	2227474	PROB	3.669	n/a	n/a	n/a	-999	22	[7, 9, 3]	19	catFR1	1	R1141T
2261.99	2.184	2231142	PROB	2.184	n/a	n/a	n/a	-999	22	[3, 1, 3]	5	catFR1	1	R1141T
2264.174	4.484	2233326	PROB	4.484	n/a	n/a	n/a	-999	22	[6, 3, 5]	14	catFR1	1	R1141T
2268.658	0.015	2237810	STOP	n/a	n/a	n/a	n/a	-999	22	[-999, -999, -999]	n/a	catFR1	1	R1141T
2268.673	1.169	2237825	DISTRACT_END	n/a	n/a	n/a	n/a	-999	22	[0, 0, 0]	n/a	catFR1	1	R1141T
2269.842	1.441	2238994	REC_START	n/a	n/a	n/a	n/a	-999	22	[0, 0, 0]	n/a	catFR1	1	R1141T
2271.283	1.803	2240435	REC_WORD	1.803	n/a	RECLINER	Furniture	1	22	[0, 0, 0]	n/a	catFR1	1	R1141T
2273.086	2.805	2242238	REC_WORD	2.805	n/a	PEACH	Fruit	3	22	[0, 0, 0]	n/a	catFR1	1	R1141T
2275.891	2.492	2245043	REC_WORD	2.492	n/a	CHAIR	n/a	-999	22	[0, 0, 0]	n/a	catFR1	1	R1141T
2278.383	10.548	2247535	REC_WORD	10.548	n/a	BEE	Insects	5	22	[0, 0, 0]	n/a	catFR1	1	R1141T
2288.931	10.922	2258082	REC_WORD	10.922	n/a	CHERRY	Fruit	4	22	[0, 0, 0]	n/a	catFR1	1	R1141T
2299.853	2.178	2269004	REC_END	n/a	n/a	n/a	n/a	-999	22	[0, 0, 0]	n/a	catFR1	1	R1141T
2302.031	0.0	2271182	COUNTDOWN_START	n/a	n/a	n/a	n/a	-999	23	[0, 0, 0]	n/a	catFR1	1	R1141T
2302.031	10.428	2271182	TRIAL	n/a	n/a	n/a	n/a	-999	23	[0, 0, 0]	n/a	catFR1	1	R1141T
2312.459	0.006	2281609	COUNTDOWN_END	n/a	n/a	n/a	n/a	-999	23	[0, 0, 0]	n/a	catFR1	1	R1141T
2312.465	3.735	2281615	ORIENT	n/a	n/a	n/a	n/a	-999	23	[0, 0, 0]	n/a	catFR1	1	R1141T
2316.2	2.533	2285350	WORD	n/a	wordpools/wordpool_categorized_EN.txt	JACKET	Clothing	1	23	[0, 0, 0]	n/a	catFR1	1	R1141T
2318.733	2.401	2287883	WORD	n/a	wordpools/wordpool_categorized_EN.txt	SHIRT	Clothing	2	23	[0, 0, 0]	n/a	catFR1	1	R1141T
2321.134	2.416	2290284	WORD	n/a	wordpools/wordpool_categorized_EN.txt	BALL	Toys	3	23	[0, 0, 0]	n/a	catFR1	1	R1141T
2323.55	2.418	2292699	WORD	n/a	wordpools/wordpool_categorized_EN.txt	MARBLES	Toys	4	23	[0, 0, 0]	n/a	catFR1	1	R1141T
2325.968	2.483	2295117	WORD	n/a	wordpools/wordpool_categorized_EN.txt	PIE	Desserts	5	23	[0, 0, 0]	n/a	catFR1	1	R1141T
2328.451	2.501	2297600	WORD	n/a	wordpools/wordpool_categorized_EN.txt	BROWNIES	Desserts	6	23	[0, 0, 0]	n/a	catFR1	1	R1141T
2330.952	2.467	2300101	WORD	n/a	wordpools/wordpool_categorized_EN.txt	PUZZLE	Toys	7	23	[0, 0, 0]	n/a	catFR1	1	R1141T
2333.419	2.518	2302568	WORD	n/a	wordpools/wordpool_categorized_EN.txt	BASKETBALL	Toys	8	23	[0, 0, 0]	n/a	catFR1	1	R1141T
2335.937	2.499	2305086	WORD	n/a	wordpools/wordpool_categorized_EN.txt	PANTS	Clothing	9	23	[0, 0, 0]	n/a	catFR1	1	R1141T
2338.436	2.452	2307585	WORD	n/a	wordpools/wordpool_categorized_EN.txt	DRESS	Clothing	10	23	[0, 0, 0]	n/a	catFR1	1	R1141T
2340.888	2.4	2310037	WORD	n/a	wordpools/wordpool_categorized_EN.txt	CHEESECAKE	Desserts	11	23	[0, 0, 0]	n/a	catFR1	1	R1141T
2343.288	1.617	2312436	WORD	n/a	wordpools/wordpool_categorized_EN.txt	JELLO	Desserts	12	23	[0, 0, 0]	n/a	catFR1	1	R1141T
2344.905	0.001	2314053	DISTRACT_START	n/a	n/a	n/a	n/a	-999	23	[0, 0, 0]	n/a	catFR1	1	R1141T
2344.906	0.016	2314054	START	n/a	n/a	n/a	n/a	-999	23	[-999, -999, -999]	n/a	catFR1	1	R1141T
2344.922	2.95	2314070	PROB	2.95	n/a	n/a	n/a	-999	23	[1, 3, 5]	9	catFR1	1	R1141T
2347.872	2.7	2317020	PROB	2.7	n/a	n/a	n/a	-999	23	[4, 5, 2]	11	catFR1	1	R1141T
2350.572	3.134	2319720	PROB	3.134	n/a	n/a	n/a	-999	23	[9, 7, 8]	24	catFR1	1	R1141T
2353.706	2.234	2322854	PROB	2.234	n/a	n/a	n/a	-999	23	[2, 8, 9]	19	catFR1	1	R1141T
2355.94	3.301	2325088	PROB	3.301	n/a	n/a	n/a	-999	23	[8, 9, 2]	19	catFR1	1	R1141T
2359.241	3.551	2328389	PROB	3.551	n/a	n/a	n/a	-999	23	[8, 6, 5]	19	catFR1	1	R1141T
2362.792	2.0	2331940	PROB	2.0	n/a	n/a	n/a	-999	23	[4, 2, 1]	7	catFR1	1	R1141T
2364.792	2.89	2333939	PROB	2.89	n/a	n/a	n/a	-999	23	[9, 1, 4]	14	catFR1	1	R1141T
2367.682	0.009	2336829	STOP	n/a	n/a	n/a	n/a	-999	23	[-999, -999, -999]	n/a	catFR1	1	R1141T
2367.691	1.186	2336838	DISTRACT_END	n/a	n/a	n/a	n/a	-999	23	[0, 0, 0]	n/a	catFR1	1	R1141T
2368.877	2.299	2338024	REC_START	n/a	n/a	n/a	n/a	-999	23	[0, 0, 0]	n/a	catFR1	1	R1141T
2371.176	4.437	2340323	REC_WORD	4.437	n/a	JACKET	Clothing	1	23	[0, 0, 0]	n/a	catFR1	1	R1141T
2375.613	2.938	2344760	REC_WORD	2.938	n/a	SKIRT	n/a	-999	23	[0, 0, 0]	n/a	catFR1	1	R1141T
2378.551	2.124	2347698	REC_WORD	2.124	n/a	BROWNIES	Desserts	6	23	[0, 0, 0]	n/a	catFR1	1	R1141T
2380.675	2.199	2349822	REC_WORD	2.199	n/a	JELLO	Desserts	12	23	[0, 0, 0]	n/a	catFR1	1	R1141T
2382.874	16.014	2352021	REC_WORD	16.014	n/a	CHEESECAKE	Desserts	11	23	[0, 0, 0]	n/a	catFR1	1	R1141T
2398.888	2.427	2368034	REC_END	n/a	n/a	n/a	n/a	-999	23	[0, 0, 0]	n/a	catFR1	1	R1141T
2401.315	0.0	2370461	TRIAL	n/a	n/a	n/a	n/a	-999	24	[0, 0, 0]	n/a	catFR1	1	R1141T
2401.315	10.428	2370461	COUNTDOWN_START	n/a	n/a	n/a	n/a	-999	24	[0, 0, 0]	n/a	catFR1	1	R1141T
2411.743	0.006	2380888	COUNTDOWN_END	n/a	n/a	n/a	n/a	-999	24	[0, 0, 0]	n/a	catFR1	1	R1141T
2411.749	3.901	2380894	ORIENT	n/a	n/a	n/a	n/a	-999	24	[0, 0, 0]	n/a	catFR1	1	R1141T
2415.65	2.552	2384795	WORD	n/a	wordpools/wordpool_categorized_EN.txt	EVERGREEN	Trees	1	24	[0, 0, 0]	n/a	catFR1	1	R1141T
2418.202	2.617	2387347	WORD	n/a	wordpools/wordpool_categorized_EN.txt	SPRUCE	Trees	2	24	[0, 0, 0]	n/a	catFR1	1	R1141T
2420.819	2.384	2389964	WORD	n/a	wordpools/wordpool_categorized_EN.txt	FOLDER	OfficeSupplies	3	24	[0, 0, 0]	n/a	catFR1	1	R1141T
2423.203	2.549	2392348	WORD	n/a	wordpools/wordpool_categorized_EN.txt	NOTEBOOK	OfficeSupplies	4	24	[0, 0, 0]	n/a	catFR1	1	R1141T
2425.752	2.385	2394896	WORD	n/a	wordpools/wordpool_categorized_EN.txt	FREEZER	Appliances	5	24	[0, 0, 0]	n/a	catFR1	1	R1141T
2428.137	2.383	2397281	WORD	n/a	wordpools/wordpool_categorized_EN.txt	IRON	Appliances	6	24	[0, 0, 0]	n/a	catFR1	1	R1141T
2430.52	2.384	2399664	WORD	n/a	wordpools/wordpool_categorized_EN.txt	CYPRESS	Trees	7	24	[0, 0, 0]	n/a	catFR1	1	R1141T
2432.904	2.583	2402048	WORD	n/a	wordpools/wordpool_categorized_EN.txt	ELM	Trees	8	24	[0, 0, 0]	n/a	catFR1	1	R1141T
2435.487	2.585	2404631	WORD	n/a	wordpools/wordpool_categorized_EN.txt	BLENDER	Appliances	9	24	[0, 0, 0]	n/a	catFR1	1	R1141T
2438.072	2.433	2407216	WORD	n/a	wordpools/wordpool_categorized_EN.txt	STOVE	Appliances	10	24	[0, 0, 0]	n/a	catFR1	1	R1141T
2440.505	2.484	2409649	WORD	n/a	wordpools/wordpool_categorized_EN.txt	BINDER	OfficeSupplies	11	24	[0, 0, 0]	n/a	catFR1	1	R1141T
2442.989	1.616	2412133	WORD	n/a	wordpools/wordpool_categorized_EN.txt	STAPLER	OfficeSupplies	12	24	[0, 0, 0]	n/a	catFR1	1	R1141T
2444.605	0.001	2413749	DISTRACT_START	n/a	n/a	n/a	n/a	-999	24	[0, 0, 0]	n/a	catFR1	1	R1141T
2444.606	0.016	2413750	START	n/a	n/a	n/a	n/a	-999	24	[-999, -999, -999]	n/a	catFR1	1	R1141T
2444.622	3.335	2413766	PROB	3.335	n/a	n/a	n/a	-999	24	[1, 9, 6]	16	catFR1	1	R1141T
2447.957	2.967	2417100	PROB	2.967	n/a	n/a	n/a	-999	24	[4, 7, 9]	20	catFR1	1	R1141T
2450.924	4.834	2420067	PROB	4.834	n/a	n/a	n/a	-999	24	[8, 5, 8]	21	catFR1	1	R1141T
2455.758	5.085	2424901	PROB	5.085	n/a	n/a	n/a	-999	24	[5, 9, 6]	20	catFR1	1	R1141T
2460.843	2.25	2429986	PROB	2.25	n/a	n/a	n/a	-999	24	[2, 6, 4]	12	catFR1	1	R1141T
2463.093	1.879	2432236	PROB	1.879	n/a	n/a	n/a	-999	24	[6, 6, 2]	14	catFR1	1	R1141T
2464.972	0.005	2434115	STOP	n/a	n/a	n/a	n/a	-999	24	[-999, -999, -999]	n/a	catFR1	1	R1141T
2464.977	1.051	2434120	DISTRACT_END	n/a	n/a	n/a	n/a	-999	24	[0, 0, 0]	n/a	catFR1	1	R1141T
2466.028	1.369	2435170	REC_START	n/a	n/a	n/a	n/a	-999	24	[0, 0, 0]	n/a	catFR1	1	R1141T
2467.397	11.847	2436539	REC_WORD	11.847	n/a	SPRUCE	Trees	2	24	[0, 0, 0]	n/a	catFR1	1	R1141T
2479.244	16.795	2448386	REC_WORD	16.795	n/a	CEDAR	n/a	-999	24	[0, 0, 0]	n/a	catFR1	1	R1141T
2496.039	2.326	2465180	REC_END	n/a	n/a	n/a	n/a	-999	24	[0, 0, 0]	n/a	catFR1	1	R1141T
2498.365	0.0	2467506	TRIAL	n/a	n/a	n/a	n/a	-999	25	[0, 0, 0]	n/a	catFR1	1	R1141T
2498.365	10.428	2467506	COUNTDOWN_START	n/a	n/a	n/a	n/a	-999	25	[0, 0, 0]	n/a	catFR1	1	R1141T
2508.793	0.008	2477933	COUNTDOWN_END	n/a	n/a	n/a	n/a	-999	25	[0, 0, 0]	n/a	catFR1	1	R1141T
2508.801	3.8	2477941	ORIENT	n/a	n/a	n/a	n/a	-999	25	[0, 0, 0]	n/a	catFR1	1	R1141T
2512.601	2.435	2481741	WORD	n/a	wordpools/wordpool_categorized_EN.txt	STREAM	Landscapes	1	25	[0, 0, 0]	n/a	catFR1	1	R1141T
2515.036	2.566	2484176	WORD	n/a	wordpools/wordpool_categorized_EN.txt	HILLS	Landscapes	2	25	[0, 0, 0]	n/a	catFR1	1	R1141T
2517.602	2.468	2486742	WORD	n/a	wordpools/wordpool_categorized_EN.txt	PEAS	Vegetables	3	25	[0, 0, 0]	n/a	catFR1	1	R1141T
2520.07	2.5	2489210	WORD	n/a	wordpools/wordpool_categorized_EN.txt	CORN	Vegetables	4	25	[0, 0, 0]	n/a	catFR1	1	R1141T
2522.57	2.451	2491710	WORD	n/a	wordpools/wordpool_categorized_EN.txt	RULER	OfficeSupplies	5	25	[0, 0, 0]	n/a	catFR1	1	R1141T
2525.021	2.55	2494161	WORD	n/a	wordpools/wordpool_categorized_EN.txt	PENCIL	OfficeSupplies	6	25	[0, 0, 0]	n/a	catFR1	1	R1141T
2527.571	2.501	2496710	WORD	n/a	wordpools/wordpool_categorized_EN.txt	CELERY	Vegetables	7	25	[0, 0, 0]	n/a	catFR1	1	R1141T
2530.072	2.566	2499211	WORD	n/a	wordpools/wordpool_categorized_EN.txt	LETTUCE	Vegetables	8	25	[0, 0, 0]	n/a	catFR1	1	R1141T
2532.638	2.485	2501777	WORD	n/a	wordpools/wordpool_categorized_EN.txt	ISLAND	Landscapes	9	25	[0, 0, 0]	n/a	catFR1	1	R1141T
2535.123	2.483	2504262	WORD	n/a	wordpools/wordpool_categorized_EN.txt	WOODS	Landscapes	10	25	[0, 0, 0]	n/a	catFR1	1	R1141T
2537.606	2.468	2506745	WORD	n/a	wordpools/wordpool_categorized_EN.txt	GLUE	OfficeSupplies	11	25	[0, 0, 0]	n/a	catFR1	1	R1141T
2540.074	1.616	2509213	WORD	n/a	wordpools/wordpool_categorized_EN.txt	TAPE	OfficeSupplies	12	25	[0, 0, 0]	n/a	catFR1	1	R1141T
2541.69	0.001	2510829	DISTRACT_START	n/a	n/a	n/a	n/a	-999	25	[0, 0, 0]	n/a	catFR1	1	R1141T
2541.691	0.016	2510830	START	n/a	n/a	n/a	n/a	-999	25	[-999, -999, -999]	n/a	catFR1	1	R1141T
2541.707	2.65	2510846	PROB	2.65	n/a	n/a	n/a	-999	25	[2, 8, 1]	11	catFR1	1	R1141T
2544.357	2.017	2513496	PROB	2.017	n/a	n/a	n/a	-999	25	[2, 4, 5]	11	catFR1	1	R1141T
2546.374	2.084	2515513	PROB	2.084	n/a	n/a	n/a	-999	25	[3, 7, 9]	19	catFR1	1	R1141T
2548.458	2.601	2517596	PROB	2.601	n/a	n/a	n/a	-999	25	[4, 9, 1]	15	catFR1	1	R1141T
2551.059	4.051	2520197	PROB	4.051	n/a	n/a	n/a	-999	25	[8, 1, 3]	12	catFR1	1	R1141T
2555.11	2.05	2524248	PROB	2.05	n/a	n/a	n/a	-999	25	[7, 7, 1]	15	catFR1	1	R1141T
2557.16	2.483	2526298	PROB	2.483	n/a	n/a	n/a	-999	25	[9, 8, 4]	21	catFR1	1	R1141T
2559.643	2.273	2528781	PROB	2.273	n/a	n/a	n/a	-999	25	[6, 3, 4]	13	catFR1	1	R1141T
2561.916	0.012	2531054	STOP	n/a	n/a	n/a	n/a	-999	25	[-999, -999, -999]	n/a	catFR1	1	R1141T
2561.928	1.084	2531066	DISTRACT_END	n/a	n/a	n/a	n/a	-999	25	[0, 0, 0]	n/a	catFR1	1	R1141T
2563.012	1.064	2532150	REC_START	n/a	n/a	n/a	n/a	-999	25	[0, 0, 0]	n/a	catFR1	1	R1141T
2564.076	1.756	2533214	REC_WORD	1.756	n/a	STREAM	Landscapes	1	25	[0, 0, 0]	n/a	catFR1	1	R1141T
2565.832	1.818	2534970	REC_WORD	1.818	n/a	HILLS	Landscapes	2	25	[0, 0, 0]	n/a	catFR1	1	R1141T
2567.65	3.358	2536787	REC_WORD	3.358	n/a	GLUE	OfficeSupplies	11	25	[0, 0, 0]	n/a	catFR1	1	R1141T
2571.008	6.082	2540145	REC_WORD	6.082	n/a	STAPLER	n/a	-999	25	[0, 0, 0]	n/a	catFR1	1	R1141T
2577.09	15.933	2546227	REC_WORD	15.933	n/a	RULER	OfficeSupplies	5	25	[0, 0, 0]	n/a	catFR1	1	R1141T
2593.023	24.381	2562159	REC_END	n/a	n/a	n/a	n/a	-999	25	[0, 0, 0]	n/a	catFR1	1	R1141T
2617.404	0.0	2586539	SESS_END	n/a	n/a	n/a	n/a	-999	25	[0, 0, 0]	n/a	catFR1	1	R1141T
