onset	duration	sample	trial_type	response_time	stim_file	item_name	category	serialpos	list	test	answer	experiment	session	subject
0.0	244.255	1383	INSTRUCT_START	n/a	n/a	n/a	n/a	-999	-999	[0, 0, 0]	n/a	catFR1	1	R1321M
244.255	5.335	245627	INSTRUCT_END	n/a	n/a	n/a	n/a	-999	-999	[0, 0, 0]	n/a	catFR1	1	R1321M
249.59	13.887	250962	MIC TEST_START	n/a	n/a	n/a	n/a	-999	-999	[0, 0, 0]	n/a	catFR1	1	R1321M
263.477	0.013	264848	MIC TEST_END	n/a	n/a	n/a	n/a	-999	-999	[0, 0, 0]	n/a	catFR1	1	R1321M
263.49	0.0	264861	TRIAL_START	n/a	n/a	n/a	n/a	-999	-1	[0, 0, 0]	n/a	catFR1	1	R1321M
263.49	0.0	264861	TRIAL	n/a	n/a	n/a	n/a	-999	-1	[0, 0, 0]	n/a	catFR1	1	R1321M
263.49	3.153	264861	WAITING_START	n/a	n/a	n/a	n/a	-999	-1	[0, 0, 0]	n/a	catFR1	1	R1321M
266.643	0.0	268014	WAITING_END	n/a	n/a	n/a	n/a	-999	-1	[0, 0, 0]	n/a	catFR1	1	R1321M
266.643	10.0	268014	COUNTDOWN_START	n/a	n/a	n/a	n/a	-999	-1	[0, 0, 0]	n/a	catFR1	1	R1321M
277.072	0.001	278443	COUNTDOWN_END	n/a	n/a	n/a	n/a	-999	-1	[0, 0, 0]	n/a	catFR1	1	R1321M
277.073	1.222	278444	ORIENT_START	n/a	n/a	n/a	n/a	-999	-1	[0, 0, 0]	n/a	catFR1	1	R1321M
278.295	0.0	279666	ORIENT_END	n/a	n/a	n/a	n/a	-999	-1	[0, 0, 0]	n/a	catFR1	1	R1321M
278.295	0.942	279666	ENCODING_START	n/a	n/a	n/a	n/a	-999	-1	[0, 0, 0]	n/a	catFR1	1	R1321M
279.237	1.6	280608	WORD	n/a	n/a	DENIM	n/a	1	-1	[0, 0, 0]	n/a	catFR1	1	R1321M
280.863	1.012	282234	WORD_OFF	n/a	n/a	DENIM	n/a	1	-1	[0, 0, 0]	n/a	catFR1	1	R1321M
281.875	1.6	283246	WORD	n/a	n/a	FIREMAN	n/a	2	-1	[0, 0, 0]	n/a	catFR1	1	R1321M
283.513	0.808	284883	WORD_OFF	n/a	n/a	FIREMAN	n/a	2	-1	[0, 0, 0]	n/a	catFR1	1	R1321M
284.321	1.6	285691	WORD	n/a	n/a	WOOL	n/a	3	-1	[0, 0, 0]	n/a	catFR1	1	R1321M
285.947	0.846	287317	WORD_OFF	n/a	n/a	WOOL	n/a	3	-1	[0, 0, 0]	n/a	catFR1	1	R1321M
286.793	1.6	288163	WORD	n/a	n/a	LEATHER	n/a	4	-1	[0, 0, 0]	n/a	catFR1	1	R1321M
288.43	0.941	289800	WORD_OFF	n/a	n/a	LEATHER	n/a	4	-1	[0, 0, 0]	n/a	catFR1	1	R1321M
289.371	1.6	290741	WORD	n/a	n/a	SILK	n/a	5	-1	[0, 0, 0]	n/a	catFR1	1	R1321M
290.982	0.969	292352	WORD_OFF	n/a	n/a	SILK	n/a	5	-1	[0, 0, 0]	n/a	catFR1	1	R1321M
291.951	1.6	293321	WORD	n/a	n/a	HOUR	n/a	6	-1	[0, 0, 0]	n/a	catFR1	1	R1321M
293.581	1.031	294951	WORD_OFF	n/a	n/a	HOUR	n/a	6	-1	[0, 0, 0]	n/a	catFR1	1	R1321M
294.612	1.6	295982	WORD	n/a	n/a	FARMER	n/a	7	-1	[0, 0, 0]	n/a	catFR1	1	R1321M
296.233	0.882	297603	WORD_OFF	n/a	n/a	FARMER	n/a	7	-1	[0, 0, 0]	n/a	catFR1	1	R1321M
297.115	1.6	298485	WORD	n/a	n/a	PLUMBER	n/a	8	-1	[0, 0, 0]	n/a	catFR1	1	R1321M
298.749	1.057	300119	WORD_OFF	n/a	n/a	PLUMBER	n/a	8	-1	[0, 0, 0]	n/a	catFR1	1	R1321M
299.806	1.6	301176	WORD	n/a	n/a	SECOND	n/a	9	-1	[0, 0, 0]	n/a	catFR1	1	R1321M
301.433	0.802	302803	WORD_OFF	n/a	n/a	SECOND	n/a	9	-1	[0, 0, 0]	n/a	catFR1	1	R1321M
302.235	1.6	303605	WORD	n/a	n/a	MINUTE	n/a	10	-1	[0, 0, 0]	n/a	catFR1	1	R1321M
303.867	1.014	305237	WORD_OFF	n/a	n/a	MINUTE	n/a	10	-1	[0, 0, 0]	n/a	catFR1	1	R1321M
304.881	1.6	306250	WORD	n/a	n/a	DAY	n/a	11	-1	[0, 0, 0]	n/a	catFR1	1	R1321M
306.5	0.884	307869	WORD_OFF	n/a	n/a	DAY	n/a	11	-1	[0, 0, 0]	n/a	catFR1	1	R1321M
307.384	1.6	308753	WORD	n/a	n/a	TEACHER	n/a	12	-1	[0, 0, 0]	n/a	catFR1	1	R1321M
309.002	0.0	310371	WORD_OFF	n/a	n/a	TEACHER	n/a	12	-1	[0, 0, 0]	n/a	catFR1	1	R1321M
309.002	0.0	310371	ENCODING_END	n/a	n/a	n/a	n/a	-999	-1	[0, 0, 0]	n/a	catFR1	1	R1321M
309.002	0.001	310371	DISTRACT_START	n/a	n/a	n/a	n/a	-999	-1	[0, 0, 0]	n/a	catFR1	1	R1321M
309.003	0.015	310372	START	n/a	n/a	n/a	n/a	-999	-1	[-999, -999, -999]	n/a	catFR1	1	R1321M
309.018	3.801	310387	PROB	3.765	n/a	n/a	n/a	-999	-1	[3, 1, 3]	7.0	catFR1	1	R1321M
312.819	3.7	314188	PROB	3.675	n/a	n/a	n/a	-999	-1	[3, 1, 2]	6.0	catFR1	1	R1321M
316.519	5.285	317888	PROB	5.256	n/a	n/a	n/a	-999	-1	[8, 1, 6]	15.0	catFR1	1	R1321M
321.804	6.384	323173	PROB	6.354	n/a	n/a	n/a	-999	-1	[7, 6, 2]	15.0	catFR1	1	R1321M
328.188	4.202	329556	PROB	4.202	n/a	n/a	n/a	-999	-1	[6, 8, 1]	15.0	catFR1	1	R1321M
332.39	0.015	333758	STOP	n/a	n/a	n/a	n/a	-999	-1	[-999, -999, -999]	n/a	catFR1	1	R1321M
332.405	0.674	333773	DISTRACT_END	n/a	n/a	n/a	n/a	-999	-1	[0, 0, 0]	n/a	catFR1	1	R1321M
333.079	1.6	334447	RETRIEVAL_ORIENT_START	n/a	n/a	n/a	n/a	-999	-1	[0, 0, 0]	n/a	catFR1	1	R1321M
334.672	0.001	336040	RETRIEVAL_ORIENT_END	n/a	n/a	n/a	n/a	-999	-1	[0, 0, 0]	n/a	catFR1	1	R1321M
334.673	1.778	336041	REC_START	n/a	n/a	n/a	n/a	-999	-1	[0, 0, 0]	n/a	catFR1	1	R1321M
336.451	0.782	337819	REC_WORD	1.778	n/a	FARMER	n/a	7	-1	[0, 0, 0]	n/a	catFR1	1	R1321M
337.233	1.524	338601	REC_WORD	2.56	n/a	FIREMAN	n/a	2	-1	[0, 0, 0]	n/a	catFR1	1	R1321M
338.757	2.846	340125	REC_WORD	4.084	n/a	TEACHER	n/a	12	-1	[0, 0, 0]	n/a	catFR1	1	R1321M
341.603	0.941	342971	REC_WORD	6.93	n/a	DENIME	n/a	-999	-1	[0, 0, 0]	n/a	catFR1	1	R1321M
342.544	1.44	343912	REC_WORD	7.871	n/a	WOOL	n/a	3	-1	[0, 0, 0]	n/a	catFR1	1	R1321M
343.984	9.668	345352	REC_WORD	9.311	n/a	SILK	n/a	5	-1	[0, 0, 0]	n/a	catFR1	1	R1321M
353.652	11.031	355019	REC_WORD	18.979	n/a	FARMER	n/a	7	-1	[0, 0, 0]	n/a	catFR1	1	R1321M
364.683	0.0	366050	REC_END	n/a	n/a	n/a	n/a	-999	-1	[0, 0, 0]	n/a	catFR1	1	R1321M
364.683	15.266	366050	PRACTICE_POST_INSTRUCT_START	n/a	n/a	n/a	n/a	-999	-1	[0, 0, 0]	n/a	catFR1	1	R1321M
379.949	0.001	381315	PRACTICE_POST_INSTRUCT_END	n/a	n/a	n/a	n/a	-999	-1	[0, 0, 0]	n/a	catFR1	1	R1321M
379.95	0.023	381316	TRIAL_END	n/a	n/a	n/a	n/a	-999	-1	[0, 0, 0]	n/a	catFR1	1	R1321M
379.973	0.0	381339	TRIAL_START	n/a	n/a	n/a	n/a	-999	1	[0, 0, 0]	n/a	catFR1	1	R1321M
379.973	0.0	381339	TRIAL	n/a	n/a	n/a	n/a	-999	1	[0, 0, 0]	n/a	catFR1	1	R1321M
379.973	2.525	381339	WAITING_START	n/a	n/a	n/a	n/a	-999	1	[0, 0, 0]	n/a	catFR1	1	R1321M
382.498	0.001	383864	WAITING_END	n/a	n/a	n/a	n/a	-999	1	[0, 0, 0]	n/a	catFR1	1	R1321M
382.499	10.0	383865	COUNTDOWN_START	n/a	n/a	n/a	n/a	-999	1	[0, 0, 0]	n/a	catFR1	1	R1321M
392.929	0.0	394294	ORIENT_START	n/a	n/a	n/a	n/a	-999	1	[0, 0, 0]	n/a	catFR1	1	R1321M
392.929	1.039	394294	COUNTDOWN_END	n/a	n/a	n/a	n/a	-999	1	[0, 0, 0]	n/a	catFR1	1	R1321M
393.968	0.001	395333	ORIENT_END	n/a	n/a	n/a	n/a	-999	1	[0, 0, 0]	n/a	catFR1	1	R1321M
393.969	0.877	395334	ENCODING_START	n/a	n/a	n/a	n/a	-999	1	[0, 0, 0]	n/a	catFR1	1	R1321M
394.846	1.6	396211	WORD	n/a	wordpools/wordpool_categorized_EN.txt	LILY	Flowers	1	1	[0, 0, 0]	n/a	catFR1	1	R1321M
396.468	0.976	397833	WORD_OFF	n/a	n/a	LILY	Flowers	1	1	[0, 0, 0]	n/a	catFR1	1	R1321M
397.444	1.6	398809	WORD	n/a	wordpools/wordpool_categorized_EN.txt	CARNATION	Flowers	2	1	[0, 0, 0]	n/a	catFR1	1	R1321M
399.052	0.952	400417	WORD_OFF	n/a	n/a	CARNATION	Flowers	2	1	[0, 0, 0]	n/a	catFR1	1	R1321M
400.004	1.6	401369	WORD	n/a	wordpools/wordpool_categorized_EN.txt	ORANGE	Fruit	3	1	[0, 0, 0]	n/a	catFR1	1	R1321M
401.635	1.091	403000	WORD_OFF	n/a	n/a	ORANGE	Fruit	3	1	[0, 0, 0]	n/a	catFR1	1	R1321M
402.726	1.6	404091	WORD	n/a	wordpools/wordpool_categorized_EN.txt	BANANA	Fruit	4	1	[0, 0, 0]	n/a	catFR1	1	R1321M
404.352	1.027	405717	WORD_OFF	n/a	n/a	BANANA	Fruit	4	1	[0, 0, 0]	n/a	catFR1	1	R1321M
405.379	1.6	406744	WORD	n/a	wordpools/wordpool_categorized_EN.txt	TIGER	Zoo	5	1	[0, 0, 0]	n/a	catFR1	1	R1321M
407.004	1.08	408369	WORD_OFF	n/a	n/a	TIGER	Zoo	5	1	[0, 0, 0]	n/a	catFR1	1	R1321M
408.084	1.6	409449	WORD	n/a	wordpools/wordpool_categorized_EN.txt	CHIMPANZEE	Zoo	6	1	[0, 0, 0]	n/a	catFR1	1	R1321M
409.72	0.992	411085	WORD_OFF	n/a	n/a	CHIMPANZEE	Zoo	6	1	[0, 0, 0]	n/a	catFR1	1	R1321M
410.712	1.6	412077	WORD	n/a	wordpools/wordpool_categorized_EN.txt	BLUEBERRY	Fruit	7	1	[0, 0, 0]	n/a	catFR1	1	R1321M
412.337	0.806	413702	WORD_OFF	n/a	n/a	BLUEBERRY	Fruit	7	1	[0, 0, 0]	n/a	catFR1	1	R1321M
413.143	1.6	414507	WORD	n/a	wordpools/wordpool_categorized_EN.txt	GRAPE	Fruit	8	1	[0, 0, 0]	n/a	catFR1	1	R1321M
414.772	1.042	416136	WORD_OFF	n/a	n/a	GRAPE	Fruit	8	1	[0, 0, 0]	n/a	catFR1	1	R1321M
415.814	1.6	417178	WORD	n/a	wordpools/wordpool_categorized_EN.txt	DAISY	Flowers	9	1	[0, 0, 0]	n/a	catFR1	1	R1321M
417.438	1.113	418802	WORD_OFF	n/a	n/a	DAISY	Flowers	9	1	[0, 0, 0]	n/a	catFR1	1	R1321M
418.551	1.6	419915	WORD	n/a	wordpools/wordpool_categorized_EN.txt	MARIGOLD	Flowers	10	1	[0, 0, 0]	n/a	catFR1	1	R1321M
420.19	0.87	421554	WORD_OFF	n/a	n/a	MARIGOLD	Flowers	10	1	[0, 0, 0]	n/a	catFR1	1	R1321M
421.06	1.6	422424	WORD	n/a	wordpools/wordpool_categorized_EN.txt	ELEPHANT	Zoo	11	1	[0, 0, 0]	n/a	catFR1	1	R1321M
422.689	1.138	424053	WORD_OFF	n/a	n/a	ELEPHANT	Zoo	11	1	[0, 0, 0]	n/a	catFR1	1	R1321M
423.827	1.6	425191	WORD	n/a	wordpools/wordpool_categorized_EN.txt	CHEETAH	Zoo	12	1	[0, 0, 0]	n/a	catFR1	1	R1321M
425.457	0.0	426821	WORD_OFF	n/a	n/a	CHEETAH	Zoo	12	1	[0, 0, 0]	n/a	catFR1	1	R1321M
425.457	0.001	426821	ENCODING_END	n/a	n/a	n/a	n/a	-999	1	[0, 0, 0]	n/a	catFR1	1	R1321M
425.458	0.0	426822	DISTRACT_START	n/a	n/a	n/a	n/a	-999	1	[0, 0, 0]	n/a	catFR1	1	R1321M
425.458	0.015	426822	START	n/a	n/a	n/a	n/a	-999	1	[-999, -999, -999]	n/a	catFR1	1	R1321M
425.473	3.318	426837	PROB	3.295	n/a	n/a	n/a	-999	1	[4, 1, 1]	6.0	catFR1	1	R1321M
428.791	4.767	430155	PROB	4.729	n/a	n/a	n/a	-999	1	[5, 3, 7]	15.0	catFR1	1	R1321M
433.558	3.652	434922	PROB	3.619	n/a	n/a	n/a	-999	1	[7, 8, 5]	20.0	catFR1	1	R1321M
437.21	6.216	438573	PROB	6.193	n/a	n/a	n/a	-999	1	[4, 8, 5]	17.0	catFR1	1	R1321M
443.426	4.418	444789	PROB	4.418	n/a	n/a	n/a	-999	1	[1, 6, 8]	15.0	catFR1	1	R1321M
447.844	0.018	449207	STOP	n/a	n/a	n/a	n/a	-999	1	[-999, -999, -999]	n/a	catFR1	1	R1321M
447.862	0.636	449225	DISTRACT_END	n/a	n/a	n/a	n/a	-999	1	[0, 0, 0]	n/a	catFR1	1	R1321M
448.498	1.6	449861	RETRIEVAL_ORIENT_START	n/a	n/a	n/a	n/a	-999	1	[0, 0, 0]	n/a	catFR1	1	R1321M
450.162	0.001	451525	RETRIEVAL_ORIENT_END	n/a	n/a	n/a	n/a	-999	1	[0, 0, 0]	n/a	catFR1	1	R1321M
450.163	0.682	451526	REC_START	n/a	n/a	n/a	n/a	-999	1	[0, 0, 0]	n/a	catFR1	1	R1321M
450.845	0.819	452208	REC_WORD	0.682	n/a	TIGER	Zoo	5	1	[0, 0, 0]	n/a	catFR1	1	R1321M
451.664	1.09	453027	REC_WORD	1.501	n/a	CHIMPANZEE	Zoo	6	1	[0, 0, 0]	n/a	catFR1	1	R1321M
452.754	0.85	454117	REC_WORD	2.591	n/a	CHEETAH	Zoo	12	1	[0, 0, 0]	n/a	catFR1	1	R1321M
453.604	2.303	454967	REC_WORD	3.441	n/a	ELEPHANT	Zoo	11	1	[0, 0, 0]	n/a	catFR1	1	R1321M
455.907	2.646	457270	REC_WORD	5.744	n/a	LILY	Flowers	1	1	[0, 0, 0]	n/a	catFR1	1	R1321M
458.553	1.046	459915	REC_WORD	8.39	n/a	ORANGE	Fruit	3	1	[0, 0, 0]	n/a	catFR1	1	R1321M
459.599	7.62	460961	REC_WORD	9.436	n/a	BLUEBERRY	Fruit	7	1	[0, 0, 0]	n/a	catFR1	1	R1321M
467.219	11.393	468581	REC_WORD	17.056	n/a	MARIGOLD	Flowers	10	1	[0, 0, 0]	n/a	catFR1	1	R1321M
478.612	1.562	479973	REC_WORD	28.449	n/a	CARNATION	Flowers	2	1	[0, 0, 0]	n/a	catFR1	1	R1321M
480.174	0.0	481535	REC_END	n/a	n/a	n/a	n/a	-999	1	[0, 0, 0]	n/a	catFR1	1	R1321M
480.174	0.021	481535	TRIAL_END	n/a	n/a	n/a	n/a	-999	1	[0, 0, 0]	n/a	catFR1	1	R1321M
480.195	0.0	481556	TRIAL_START	n/a	n/a	n/a	n/a	-999	2	[0, 0, 0]	n/a	catFR1	1	R1321M
480.195	0.001	481556	TRIAL	n/a	n/a	n/a	n/a	-999	2	[0, 0, 0]	n/a	catFR1	1	R1321M
480.196	9.007	481557	WAITING_START	n/a	n/a	n/a	n/a	-999	2	[0, 0, 0]	n/a	catFR1	1	R1321M
489.203	0.001	490564	WAITING_END	n/a	n/a	n/a	n/a	-999	2	[0, 0, 0]	n/a	catFR1	1	R1321M
489.204	10.0	490565	COUNTDOWN_START	n/a	n/a	n/a	n/a	-999	2	[0, 0, 0]	n/a	catFR1	1	R1321M
499.633	0.001	500994	COUNTDOWN_END	n/a	n/a	n/a	n/a	-999	2	[0, 0, 0]	n/a	catFR1	1	R1321M
499.634	1.037	500995	ORIENT_START	n/a	n/a	n/a	n/a	-999	2	[0, 0, 0]	n/a	catFR1	1	R1321M
500.671	0.0	502031	ORIENT_END	n/a	n/a	n/a	n/a	-999	2	[0, 0, 0]	n/a	catFR1	1	R1321M
500.671	1.076	502031	ENCODING_START	n/a	n/a	n/a	n/a	-999	2	[0, 0, 0]	n/a	catFR1	1	R1321M
501.747	1.6	503107	WORD	n/a	wordpools/wordpool_categorized_EN.txt	ELBOW	BodyParts	1	2	[0, 0, 0]	n/a	catFR1	1	R1321M
503.372	0.864	504732	WORD_OFF	n/a	n/a	ELBOW	BodyParts	1	2	[0, 0, 0]	n/a	catFR1	1	R1321M
504.236	1.6	505596	WORD	n/a	wordpools/wordpool_categorized_EN.txt	KNEE	BodyParts	2	2	[0, 0, 0]	n/a	catFR1	1	R1321M
505.856	0.917	507216	WORD_OFF	n/a	n/a	KNEE	BodyParts	2	2	[0, 0, 0]	n/a	catFR1	1	R1321M
506.773	1.6	508133	WORD	n/a	wordpools/wordpool_categorized_EN.txt	COBBLER	Desserts	3	2	[0, 0, 0]	n/a	catFR1	1	R1321M
508.406	0.979	509766	WORD_OFF	n/a	n/a	COBBLER	Desserts	3	2	[0, 0, 0]	n/a	catFR1	1	R1321M
509.385	1.6	510745	WORD	n/a	wordpools/wordpool_categorized_EN.txt	PUDDING	Desserts	4	2	[0, 0, 0]	n/a	catFR1	1	R1321M
511.024	0.812	512384	WORD_OFF	n/a	n/a	PUDDING	Desserts	4	2	[0, 0, 0]	n/a	catFR1	1	R1321M
511.836	1.6	513196	WORD	n/a	wordpools/wordpool_categorized_EN.txt	MOPED	Vehicles	5	2	[0, 0, 0]	n/a	catFR1	1	R1321M
513.457	0.775	514817	WORD_OFF	n/a	n/a	MOPED	Vehicles	5	2	[0, 0, 0]	n/a	catFR1	1	R1321M
514.232	1.6	515592	WORD	n/a	wordpools/wordpool_categorized_EN.txt	CAR	Vehicles	6	2	[0, 0, 0]	n/a	catFR1	1	R1321M
515.858	0.769	517218	WORD_OFF	n/a	n/a	CAR	Vehicles	6	2	[0, 0, 0]	n/a	catFR1	1	R1321M
516.627	1.6	517987	WORD	n/a	wordpools/wordpool_categorized_EN.txt	BROWNIES	Desserts	7	2	[0, 0, 0]	n/a	catFR1	1	R1321M
518.258	0.919	519618	WORD_OFF	n/a	n/a	BROWNIES	Desserts	7	2	[0, 0, 0]	n/a	catFR1	1	R1321M
519.177	1.6	520537	WORD	n/a	wordpools/wordpool_categorized_EN.txt	CHEESECAKE	Desserts	8	2	[0, 0, 0]	n/a	catFR1	1	R1321M
520.809	1.054	522169	WORD_OFF	n/a	n/a	CHEESECAKE	Desserts	8	2	[0, 0, 0]	n/a	catFR1	1	R1321M
521.863	1.6	523222	WORD	n/a	wordpools/wordpool_categorized_EN.txt	PLANE	Vehicles	9	2	[0, 0, 0]	n/a	catFR1	1	R1321M
523.492	1.044	524851	WORD_OFF	n/a	n/a	PLANE	Vehicles	9	2	[0, 0, 0]	n/a	catFR1	1	R1321M
524.536	1.6	525895	WORD	n/a	wordpools/wordpool_categorized_EN.txt	BOAT	Vehicles	10	2	[0, 0, 0]	n/a	catFR1	1	R1321M
526.143	1.066	527502	WORD_OFF	n/a	n/a	BOAT	Vehicles	10	2	[0, 0, 0]	n/a	catFR1	1	R1321M
527.209	1.6	528568	WORD	n/a	wordpools/wordpool_categorized_EN.txt	FOOT	BodyParts	11	2	[0, 0, 0]	n/a	catFR1	1	R1321M
528.844	0.817	530203	WORD_OFF	n/a	n/a	FOOT	BodyParts	11	2	[0, 0, 0]	n/a	catFR1	1	R1321M
529.661	1.6	531020	WORD	n/a	wordpools/wordpool_categorized_EN.txt	TOE	BodyParts	12	2	[0, 0, 0]	n/a	catFR1	1	R1321M
531.294	0.0	532653	WORD_OFF	n/a	n/a	TOE	BodyParts	12	2	[0, 0, 0]	n/a	catFR1	1	R1321M
531.294	0.0	532653	ENCODING_END	n/a	n/a	n/a	n/a	-999	2	[0, 0, 0]	n/a	catFR1	1	R1321M
531.294	0.0	532653	DISTRACT_START	n/a	n/a	n/a	n/a	-999	2	[0, 0, 0]	n/a	catFR1	1	R1321M
531.294	0.016	532653	START	n/a	n/a	n/a	n/a	-999	2	[-999, -999, -999]	n/a	catFR1	1	R1321M
531.31	3.284	532669	PROB	3.254	n/a	n/a	n/a	-999	2	[2, 1, 1]	4.0	catFR1	1	R1321M
534.594	3.784	535953	PROB	3.746	n/a	n/a	n/a	-999	2	[8, 2, 5]	15.0	catFR1	1	R1321M
538.378	4.619	539737	PROB	4.587	n/a	n/a	n/a	-999	2	[3, 1, 9]	13.0	catFR1	1	R1321M
542.997	5.034	544356	PROB	5.005	n/a	n/a	n/a	-999	2	[3, 4, 5]	12.0	catFR1	1	R1321M
548.031	3.433	549389	PROB	3.433	n/a	n/a	n/a	-999	2	[6, 4, 8]	18.0	catFR1	1	R1321M
551.464	0.017	552822	STOP	n/a	n/a	n/a	n/a	-999	2	[-999, -999, -999]	n/a	catFR1	1	R1321M
551.481	0.542	552839	DISTRACT_END	n/a	n/a	n/a	n/a	-999	2	[0, 0, 0]	n/a	catFR1	1	R1321M
552.023	1.6	553381	RETRIEVAL_ORIENT_START	n/a	n/a	n/a	n/a	-999	2	[0, 0, 0]	n/a	catFR1	1	R1321M
553.648	0.0	555006	RETRIEVAL_ORIENT_END	n/a	n/a	n/a	n/a	-999	2	[0, 0, 0]	n/a	catFR1	1	R1321M
553.648	0.58	555006	REC_START	n/a	n/a	n/a	n/a	-999	2	[0, 0, 0]	n/a	catFR1	1	R1321M
554.228	0.755	555586	REC_WORD	0.58	n/a	TOE	BodyParts	12	2	[0, 0, 0]	n/a	catFR1	1	R1321M
554.983	2.022	556341	REC_WORD	1.335	n/a	FOOT	BodyParts	11	2	[0, 0, 0]	n/a	catFR1	1	R1321M
557.005	3.057	558363	REC_WORD	3.357	n/a	KNEE	BodyParts	2	2	[0, 0, 0]	n/a	catFR1	1	R1321M
560.062	0.543	561420	REC_WORD	6.414	n/a	LEG	n/a	-999	2	[0, 0, 0]	n/a	catFR1	1	R1321M
560.605	3.836	561963	REC_WORD	6.957	n/a	MOPED	Vehicles	5	2	[0, 0, 0]	n/a	catFR1	1	R1321M
564.441	0.691	565799	REC_WORD	10.793	n/a	CAR	Vehicles	6	2	[0, 0, 0]	n/a	catFR1	1	R1321M
565.132	18.528	566490	REC_WORD	11.484	n/a	PLANE	Vehicles	9	2	[0, 0, 0]	n/a	catFR1	1	R1321M
583.66	0.0	585017	REC_END	n/a	n/a	n/a	n/a	-999	2	[0, 0, 0]	n/a	catFR1	1	R1321M
583.66	0.025	585017	TRIAL_END	n/a	n/a	n/a	n/a	-999	2	[0, 0, 0]	n/a	catFR1	1	R1321M
583.685	0.0	585042	TRIAL_START	n/a	n/a	n/a	n/a	-999	3	[0, 0, 0]	n/a	catFR1	1	R1321M
583.685	0.0	585042	TRIAL	n/a	n/a	n/a	n/a	-999	3	[0, 0, 0]	n/a	catFR1	1	R1321M
583.685	6.72	585042	WAITING_START	n/a	n/a	n/a	n/a	-999	3	[0, 0, 0]	n/a	catFR1	1	R1321M
590.405	0.0	591761	WAITING_END	n/a	n/a	n/a	n/a	-999	3	[0, 0, 0]	n/a	catFR1	1	R1321M
590.405	10.0	591761	COUNTDOWN_START	n/a	n/a	n/a	n/a	-999	3	[0, 0, 0]	n/a	catFR1	1	R1321M
600.834	0.001	602190	COUNTDOWN_END	n/a	n/a	n/a	n/a	-999	3	[0, 0, 0]	n/a	catFR1	1	R1321M
600.835	1.173	602191	ORIENT_START	n/a	n/a	n/a	n/a	-999	3	[0, 0, 0]	n/a	catFR1	1	R1321M
602.008	0.001	603364	ORIENT_END	n/a	n/a	n/a	n/a	-999	3	[0, 0, 0]	n/a	catFR1	1	R1321M
602.009	0.891	603365	ENCODING_START	n/a	n/a	n/a	n/a	-999	3	[0, 0, 0]	n/a	catFR1	1	R1321M
602.9	1.6	604256	WORD	n/a	wordpools/wordpool_categorized_EN.txt	LEG	BodyParts	1	3	[0, 0, 0]	n/a	catFR1	1	R1321M
604.524	0.924	605880	WORD_OFF	n/a	n/a	LEG	BodyParts	1	3	[0, 0, 0]	n/a	catFR1	1	R1321M
605.448	1.6	606804	WORD	n/a	wordpools/wordpool_categorized_EN.txt	HAND	BodyParts	2	3	[0, 0, 0]	n/a	catFR1	1	R1321M
607.076	1.006	608432	WORD_OFF	n/a	n/a	HAND	BodyParts	2	3	[0, 0, 0]	n/a	catFR1	1	R1321M
608.082	1.6	609438	WORD	n/a	wordpools/wordpool_categorized_EN.txt	ATTIC	Building	3	3	[0, 0, 0]	n/a	catFR1	1	R1321M
609.709	0.886	611064	WORD_OFF	n/a	n/a	ATTIC	Building	3	3	[0, 0, 0]	n/a	catFR1	1	R1321M
610.595	1.6	611950	WORD	n/a	wordpools/wordpool_categorized_EN.txt	HALLWAY	Building	4	3	[0, 0, 0]	n/a	catFR1	1	R1321M
612.227	0.884	613582	WORD_OFF	n/a	n/a	HALLWAY	Building	4	3	[0, 0, 0]	n/a	catFR1	1	R1321M
613.111	1.6	614466	WORD	n/a	wordpools/wordpool_categorized_EN.txt	PEAR	Fruit	5	3	[0, 0, 0]	n/a	catFR1	1	R1321M
614.743	0.815	616098	WORD_OFF	n/a	n/a	PEAR	Fruit	5	3	[0, 0, 0]	n/a	catFR1	1	R1321M
615.558	1.6	616913	WORD	n/a	wordpools/wordpool_categorized_EN.txt	CHERRY	Fruit	6	3	[0, 0, 0]	n/a	catFR1	1	R1321M
617.194	0.83	618549	WORD_OFF	n/a	n/a	CHERRY	Fruit	6	3	[0, 0, 0]	n/a	catFR1	1	R1321M
618.024	1.6	619379	WORD	n/a	wordpools/wordpool_categorized_EN.txt	NOSE	BodyParts	7	3	[0, 0, 0]	n/a	catFR1	1	R1321M
619.661	1.056	621016	WORD_OFF	n/a	n/a	NOSE	BodyParts	7	3	[0, 0, 0]	n/a	catFR1	1	R1321M
620.717	1.6	622072	WORD	n/a	wordpools/wordpool_categorized_EN.txt	EYE	BodyParts	8	3	[0, 0, 0]	n/a	catFR1	1	R1321M
622.344	0.965	623699	WORD_OFF	n/a	n/a	EYE	BodyParts	8	3	[0, 0, 0]	n/a	catFR1	1	R1321M
623.309	1.6	624664	WORD	n/a	wordpools/wordpool_categorized_EN.txt	WINDOW	Building	9	3	[0, 0, 0]	n/a	catFR1	1	R1321M
624.946	0.8	626301	WORD_OFF	n/a	n/a	WINDOW	Building	9	3	[0, 0, 0]	n/a	catFR1	1	R1321M
625.746	1.6	627101	WORD	n/a	wordpools/wordpool_categorized_EN.txt	BATHROOM	Building	10	3	[0, 0, 0]	n/a	catFR1	1	R1321M
627.379	1.021	628734	WORD_OFF	n/a	n/a	BATHROOM	Building	10	3	[0, 0, 0]	n/a	catFR1	1	R1321M
628.4	1.6	629755	WORD	n/a	wordpools/wordpool_categorized_EN.txt	PEACH	Fruit	11	3	[0, 0, 0]	n/a	catFR1	1	R1321M
630.014	0.809	631369	WORD_OFF	n/a	n/a	PEACH	Fruit	11	3	[0, 0, 0]	n/a	catFR1	1	R1321M
630.823	1.6	632177	WORD	n/a	wordpools/wordpool_categorized_EN.txt	PLUM	Fruit	12	3	[0, 0, 0]	n/a	catFR1	1	R1321M
632.446	0.001	633800	WORD_OFF	n/a	n/a	PLUM	Fruit	12	3	[0, 0, 0]	n/a	catFR1	1	R1321M
632.447	0.0	633801	ENCODING_END	n/a	n/a	n/a	n/a	-999	3	[0, 0, 0]	n/a	catFR1	1	R1321M
632.447	0.0	633801	DISTRACT_START	n/a	n/a	n/a	n/a	-999	3	[0, 0, 0]	n/a	catFR1	1	R1321M
632.447	0.016	633801	START	n/a	n/a	n/a	n/a	-999	3	[-999, -999, -999]	n/a	catFR1	1	R1321M
632.463	5.419	633817	PROB	5.393	n/a	n/a	n/a	-999	3	[3, 9, 8]	20.0	catFR1	1	R1321M
637.882	3.566	639236	PROB	3.532	n/a	n/a	n/a	-999	3	[4, 6, 4]	14.0	catFR1	1	R1321M
641.448	2.585	642802	PROB	2.552	n/a	n/a	n/a	-999	3	[1, 1, 2]	4.0	catFR1	1	R1321M
644.033	5.467	645387	PROB	5.432	n/a	n/a	n/a	-999	3	[9, 8, 9]	26.0	catFR1	1	R1321M
649.5	3.734	650854	PROB	3.734	n/a	n/a	n/a	-999	3	[8, 8, 1]	17.0	catFR1	1	R1321M
653.234	0.017	654587	STOP	n/a	n/a	n/a	n/a	-999	3	[-999, -999, -999]	n/a	catFR1	1	R1321M
653.251	0.605	654604	DISTRACT_END	n/a	n/a	n/a	n/a	-999	3	[0, 0, 0]	n/a	catFR1	1	R1321M
653.856	1.6	655209	RETRIEVAL_ORIENT_START	n/a	n/a	n/a	n/a	-999	3	[0, 0, 0]	n/a	catFR1	1	R1321M
655.418	0.0	656771	REC_START	n/a	n/a	n/a	n/a	-999	3	[0, 0, 0]	n/a	catFR1	1	R1321M
655.418	0.457	656771	RETRIEVAL_ORIENT_END	n/a	n/a	n/a	n/a	-999	3	[0, 0, 0]	n/a	catFR1	1	R1321M
655.875	0.786	657228	REC_WORD	0.457	n/a	PEACH	Fruit	11	3	[0, 0, 0]	n/a	catFR1	1	R1321M
656.661	2.055	658014	REC_WORD	1.243	n/a	PEAR	Fruit	5	3	[0, 0, 0]	n/a	catFR1	1	R1321M
658.716	0.944	660069	REC_WORD	3.298	n/a	LEG	BodyParts	1	3	[0, 0, 0]	n/a	catFR1	1	R1321M
659.66	2.282	661013	REC_WORD	4.242	n/a	HAND	BodyParts	2	3	[0, 0, 0]	n/a	catFR1	1	R1321M
661.942	0.934	663295	REC_WORD	6.524	n/a	HALLWAY	Building	4	3	[0, 0, 0]	n/a	catFR1	1	R1321M
662.876	0.806	664229	REC_WORD	7.458	n/a	BATHROOM	Building	10	3	[0, 0, 0]	n/a	catFR1	1	R1321M
663.682	0.788	665035	REC_WORD	8.264	n/a	ATTIC	Building	3	3	[0, 0, 0]	n/a	catFR1	1	R1321M
664.47	7.392	665823	REC_WORD	9.052	n/a	WINDOW	Building	9	3	[0, 0, 0]	n/a	catFR1	1	R1321M
671.862	13.566	673215	REC_WORD	16.444	n/a	GRAPE	Fruit	-999	3	[0, 0, 0]	n/a	catFR1	1	R1321M
685.428	0.001	686780	REC_END	n/a	n/a	n/a	n/a	-999	3	[0, 0, 0]	n/a	catFR1	1	R1321M
685.429	0.023	686781	TRIAL_END	n/a	n/a	n/a	n/a	-999	3	[0, 0, 0]	n/a	catFR1	1	R1321M
685.452	0.0	686804	TRIAL_START	n/a	n/a	n/a	n/a	-999	4	[0, 0, 0]	n/a	catFR1	1	R1321M
685.452	0.0	686804	TRIAL	n/a	n/a	n/a	n/a	-999	4	[0, 0, 0]	n/a	catFR1	1	R1321M
685.452	16.124	686804	WAITING_START	n/a	n/a	n/a	n/a	-999	4	[0, 0, 0]	n/a	catFR1	1	R1321M
701.576	0.001	702927	WAITING_END	n/a	n/a	n/a	n/a	-999	4	[0, 0, 0]	n/a	catFR1	1	R1321M
701.577	10.0	702928	COUNTDOWN_START	n/a	n/a	n/a	n/a	-999	4	[0, 0, 0]	n/a	catFR1	1	R1321M
712.005	0.0	713356	COUNTDOWN_END	n/a	n/a	n/a	n/a	-999	4	[0, 0, 0]	n/a	catFR1	1	R1321M
712.005	1.025	713356	ORIENT_START	n/a	n/a	n/a	n/a	-999	4	[0, 0, 0]	n/a	catFR1	1	R1321M
713.03	0.0	714381	ENCODING_START	n/a	n/a	n/a	n/a	-999	4	[0, 0, 0]	n/a	catFR1	1	R1321M
713.03	0.916	714381	ORIENT_END	n/a	n/a	n/a	n/a	-999	4	[0, 0, 0]	n/a	catFR1	1	R1321M
713.946	1.6	715297	WORD	n/a	wordpools/wordpool_categorized_EN.txt	HAWK	Birds	1	4	[0, 0, 0]	n/a	catFR1	1	R1321M
715.579	1.138	716930	WORD_OFF	n/a	n/a	HAWK	Birds	1	4	[0, 0, 0]	n/a	catFR1	1	R1321M
716.717	1.6	718068	WORD	n/a	wordpools/wordpool_categorized_EN.txt	CROW	Birds	2	4	[0, 0, 0]	n/a	catFR1	1	R1321M
718.346	0.949	719696	WORD_OFF	n/a	n/a	CROW	Birds	2	4	[0, 0, 0]	n/a	catFR1	1	R1321M
719.295	1.6	720645	WORD	n/a	wordpools/wordpool_categorized_EN.txt	TURKEY	FarmAnimals	3	4	[0, 0, 0]	n/a	catFR1	1	R1321M
720.931	1.027	722281	WORD_OFF	n/a	n/a	TURKEY	FarmAnimals	3	4	[0, 0, 0]	n/a	catFR1	1	R1321M
721.958	1.6	723308	WORD	n/a	wordpools/wordpool_categorized_EN.txt	PIG	FarmAnimals	4	4	[0, 0, 0]	n/a	catFR1	1	R1321M
723.581	0.953	724931	WORD_OFF	n/a	n/a	PIG	FarmAnimals	4	4	[0, 0, 0]	n/a	catFR1	1	R1321M
724.534	1.6	725884	WORD	n/a	wordpools/wordpool_categorized_EN.txt	LIME	Fruit	5	4	[0, 0, 0]	n/a	catFR1	1	R1321M
726.165	1.008	727515	WORD_OFF	n/a	n/a	LIME	Fruit	5	4	[0, 0, 0]	n/a	catFR1	1	R1321M
727.173	1.6	728523	WORD	n/a	wordpools/wordpool_categorized_EN.txt	LEMON	Fruit	6	4	[0, 0, 0]	n/a	catFR1	1	R1321M
728.799	1.138	730149	WORD_OFF	n/a	n/a	LEMON	Fruit	6	4	[0, 0, 0]	n/a	catFR1	1	R1321M
729.937	1.6	731287	WORD	n/a	wordpools/wordpool_categorized_EN.txt	CALF	FarmAnimals	7	4	[0, 0, 0]	n/a	catFR1	1	R1321M
731.566	0.798	732916	WORD_OFF	n/a	n/a	CALF	FarmAnimals	7	4	[0, 0, 0]	n/a	catFR1	1	R1321M
732.364	1.6	733714	WORD	n/a	wordpools/wordpool_categorized_EN.txt	GOAT	FarmAnimals	8	4	[0, 0, 0]	n/a	catFR1	1	R1321M
734.0	0.861	735350	WORD_OFF	n/a	n/a	GOAT	FarmAnimals	8	4	[0, 0, 0]	n/a	catFR1	1	R1321M
734.861	1.6	736211	WORD	n/a	wordpools/wordpool_categorized_EN.txt	DUCK	Birds	9	4	[0, 0, 0]	n/a	catFR1	1	R1321M
736.483	1.067	737833	WORD_OFF	n/a	n/a	DUCK	Birds	9	4	[0, 0, 0]	n/a	catFR1	1	R1321M
737.55	1.6	738900	WORD	n/a	wordpools/wordpool_categorized_EN.txt	CARDINAL	Birds	10	4	[0, 0, 0]	n/a	catFR1	1	R1321M
739.185	0.844	740535	WORD_OFF	n/a	n/a	CARDINAL	Birds	10	4	[0, 0, 0]	n/a	catFR1	1	R1321M
740.029	1.6	741378	WORD	n/a	wordpools/wordpool_categorized_EN.txt	STRAWBERRY	Fruit	11	4	[0, 0, 0]	n/a	catFR1	1	R1321M
741.668	1.128	743017	WORD_OFF	n/a	n/a	STRAWBERRY	Fruit	11	4	[0, 0, 0]	n/a	catFR1	1	R1321M
742.796	1.6	744145	WORD	n/a	wordpools/wordpool_categorized_EN.txt	APPLE	Fruit	12	4	[0, 0, 0]	n/a	catFR1	1	R1321M
744.418	0.0	745767	WORD_OFF	n/a	n/a	APPLE	Fruit	12	4	[0, 0, 0]	n/a	catFR1	1	R1321M
744.418	0.001	745767	ENCODING_END	n/a	n/a	n/a	n/a	-999	4	[0, 0, 0]	n/a	catFR1	1	R1321M
744.419	0.0	745768	DISTRACT_START	n/a	n/a	n/a	n/a	-999	4	[0, 0, 0]	n/a	catFR1	1	R1321M
744.419	0.015	745768	START	n/a	n/a	n/a	n/a	-999	4	[-999, -999, -999]	n/a	catFR1	1	R1321M
744.434	5.301	745783	PROB	5.272	n/a	n/a	n/a	-999	4	[2, 7, 4]	13.0	catFR1	1	R1321M
749.735	4.336	751084	PROB	4.301	n/a	n/a	n/a	-999	4	[9, 2, 2]	13.0	catFR1	1	R1321M
754.071	4.449	755420	PROB	4.42	n/a	n/a	n/a	-999	4	[7, 2, 8]	17.0	catFR1	1	R1321M
758.52	3.385	759869	PROB	3.355	n/a	n/a	n/a	-999	4	[6, 5, 4]	15.0	catFR1	1	R1321M
761.905	4.019	763253	PROB	4.019	n/a	n/a	n/a	-999	4	[8, 8, 4]	20.0	catFR1	1	R1321M
765.924	0.016	767272	STOP	n/a	n/a	n/a	n/a	-999	4	[-999, -999, -999]	n/a	catFR1	1	R1321M
765.94	0.695	767288	DISTRACT_END	n/a	n/a	n/a	n/a	-999	4	[0, 0, 0]	n/a	catFR1	1	R1321M
766.635	1.6	767983	RETRIEVAL_ORIENT_START	n/a	n/a	n/a	n/a	-999	4	[0, 0, 0]	n/a	catFR1	1	R1321M
768.174	0.0	769522	REC_START	n/a	n/a	n/a	n/a	-999	4	[0, 0, 0]	n/a	catFR1	1	R1321M
768.174	2.999	769522	RETRIEVAL_ORIENT_END	n/a	n/a	n/a	n/a	-999	4	[0, 0, 0]	n/a	catFR1	1	R1321M
771.173	1.686	772521	REC_WORD	2.999	n/a	STRAWBERRY	Fruit	11	4	[0, 0, 0]	n/a	catFR1	1	R1321M
772.859	0.823	774207	REC_WORD	4.685	n/a	LIME	Fruit	5	4	[0, 0, 0]	n/a	catFR1	1	R1321M
773.682	4.386	775030	REC_WORD	5.508	n/a	LEMON	Fruit	6	4	[0, 0, 0]	n/a	catFR1	1	R1321M
778.068	1.478	779416	REC_WORD	9.894	n/a	CALF	FarmAnimals	7	4	[0, 0, 0]	n/a	catFR1	1	R1321M
779.546	3.631	780894	REC_WORD	11.372	n/a	GOAT	FarmAnimals	8	4	[0, 0, 0]	n/a	catFR1	1	R1321M
783.177	8.061	784524	REC_WORD	15.003	n/a	PIG	FarmAnimals	4	4	[0, 0, 0]	n/a	catFR1	1	R1321M
791.238	6.947	792585	REC_WORD	23.064	n/a	COW	n/a	-999	4	[0, 0, 0]	n/a	catFR1	1	R1321M
798.185	0.0	799532	TRIAL_END	n/a	n/a	n/a	n/a	-999	4	[0, 0, 0]	n/a	catFR1	1	R1321M
798.185	0.024	799532	REC_END	n/a	n/a	n/a	n/a	-999	4	[0, 0, 0]	n/a	catFR1	1	R1321M
798.209	0.001	799556	TRIAL_START	n/a	n/a	n/a	n/a	-999	5	[0, 0, 0]	n/a	catFR1	1	R1321M
798.21	0.0	799557	TRIAL	n/a	n/a	n/a	n/a	-999	5	[0, 0, 0]	n/a	catFR1	1	R1321M
798.21	9.821	799557	WAITING_START	n/a	n/a	n/a	n/a	-999	5	[0, 0, 0]	n/a	catFR1	1	R1321M
808.031	0.001	809377	WAITING_END	n/a	n/a	n/a	n/a	-999	5	[0, 0, 0]	n/a	catFR1	1	R1321M
808.032	10.0	809378	COUNTDOWN_START	n/a	n/a	n/a	n/a	-999	5	[0, 0, 0]	n/a	catFR1	1	R1321M
818.461	0.0	819807	COUNTDOWN_END	n/a	n/a	n/a	n/a	-999	5	[0, 0, 0]	n/a	catFR1	1	R1321M
818.461	1.238	819807	ORIENT_START	n/a	n/a	n/a	n/a	-999	5	[0, 0, 0]	n/a	catFR1	1	R1321M
819.699	0.001	821045	ORIENT_END	n/a	n/a	n/a	n/a	-999	5	[0, 0, 0]	n/a	catFR1	1	R1321M
819.7	0.985	821046	ENCODING_START	n/a	n/a	n/a	n/a	-999	5	[0, 0, 0]	n/a	catFR1	1	R1321M
820.685	1.6	822031	WORD	n/a	wordpools/wordpool_categorized_EN.txt	FREEZER	Appliances	1	5	[0, 0, 0]	n/a	catFR1	1	R1321M
822.316	1.034	823662	WORD_OFF	n/a	n/a	FREEZER	Appliances	1	5	[0, 0, 0]	n/a	catFR1	1	R1321M
823.35	1.6	824696	WORD	n/a	wordpools/wordpool_categorized_EN.txt	DRYER	Appliances	2	5	[0, 0, 0]	n/a	catFR1	1	R1321M
824.984	0.933	826330	WORD_OFF	n/a	n/a	DRYER	Appliances	2	5	[0, 0, 0]	n/a	catFR1	1	R1321M
825.917	1.6	827263	WORD	n/a	wordpools/wordpool_categorized_EN.txt	GUITAR	Instruments	3	5	[0, 0, 0]	n/a	catFR1	1	R1321M
827.551	1.046	828896	WORD_OFF	n/a	n/a	GUITAR	Instruments	3	5	[0, 0, 0]	n/a	catFR1	1	R1321M
828.597	1.6	829942	WORD	n/a	wordpools/wordpool_categorized_EN.txt	TUBA	Instruments	4	5	[0, 0, 0]	n/a	catFR1	1	R1321M
830.219	0.863	831564	WORD_OFF	n/a	n/a	TUBA	Instruments	4	5	[0, 0, 0]	n/a	catFR1	1	R1321M
831.082	1.6	832427	WORD	n/a	wordpools/wordpool_categorized_EN.txt	DOLL	Toys	5	5	[0, 0, 0]	n/a	catFR1	1	R1321M
832.718	1.108	834063	WORD_OFF	n/a	n/a	DOLL	Toys	5	5	[0, 0, 0]	n/a	catFR1	1	R1321M
833.826	1.6	835171	WORD	n/a	wordpools/wordpool_categorized_EN.txt	PUZZLE	Toys	6	5	[0, 0, 0]	n/a	catFR1	1	R1321M
835.452	0.803	836797	WORD_OFF	n/a	n/a	PUZZLE	Toys	6	5	[0, 0, 0]	n/a	catFR1	1	R1321M
836.255	1.6	837600	WORD	n/a	wordpools/wordpool_categorized_EN.txt	REFRIGERATOR	Appliances	7	5	[0, 0, 0]	n/a	catFR1	1	R1321M
837.87	0.957	839215	WORD_OFF	n/a	n/a	REFRIGERATOR	Appliances	7	5	[0, 0, 0]	n/a	catFR1	1	R1321M
838.827	1.6	840172	WORD	n/a	wordpools/wordpool_categorized_EN.txt	DISHWASHER	Appliances	8	5	[0, 0, 0]	n/a	catFR1	1	R1321M
840.453	1.069	841798	WORD_OFF	n/a	n/a	DISHWASHER	Appliances	8	5	[0, 0, 0]	n/a	catFR1	1	R1321M
841.522	1.6	842867	WORD	n/a	wordpools/wordpool_categorized_EN.txt	TRUMPET	Instruments	9	5	[0, 0, 0]	n/a	catFR1	1	R1321M
843.155	0.87	844500	WORD_OFF	n/a	n/a	TRUMPET	Instruments	9	5	[0, 0, 0]	n/a	catFR1	1	R1321M
844.025	1.6	845370	WORD	n/a	wordpools/wordpool_categorized_EN.txt	BANJO	Instruments	10	5	[0, 0, 0]	n/a	catFR1	1	R1321M
845.654	1.099	846999	WORD_OFF	n/a	n/a	BANJO	Instruments	10	5	[0, 0, 0]	n/a	catFR1	1	R1321M
846.753	1.6	848098	WORD	n/a	wordpools/wordpool_categorized_EN.txt	BASEBALL	Toys	11	5	[0, 0, 0]	n/a	catFR1	1	R1321M
848.388	0.758	849732	WORD_OFF	n/a	n/a	BASEBALL	Toys	11	5	[0, 0, 0]	n/a	catFR1	1	R1321M
849.146	1.6	850490	WORD	n/a	wordpools/wordpool_categorized_EN.txt	BLOCKS	Toys	12	5	[0, 0, 0]	n/a	catFR1	1	R1321M
850.773	0.0	852117	WORD_OFF	n/a	n/a	BLOCKS	Toys	12	5	[0, 0, 0]	n/a	catFR1	1	R1321M
850.773	0.001	852117	ENCODING_END	n/a	n/a	n/a	n/a	-999	5	[0, 0, 0]	n/a	catFR1	1	R1321M
850.774	0.0	852118	DISTRACT_START	n/a	n/a	n/a	n/a	-999	5	[0, 0, 0]	n/a	catFR1	1	R1321M
850.774	0.015	852118	START	n/a	n/a	n/a	n/a	-999	5	[-999, -999, -999]	n/a	catFR1	1	R1321M
850.789	6.651	852133	PROB	6.614	n/a	n/a	n/a	-999	5	[6, 2, 3]	13.0	catFR1	1	R1321M
857.44	4.618	858784	PROB	4.59	n/a	n/a	n/a	-999	5	[2, 5, 4]	11.0	catFR1	1	R1321M
862.058	4.801	863402	PROB	4.763	n/a	n/a	n/a	-999	5	[7, 6, 6]	19.0	catFR1	1	R1321M
866.859	3.816	868203	PROB	3.786	n/a	n/a	n/a	-999	5	[5, 2, 3]	10.0	catFR1	1	R1321M
870.675	4.539	872018	PROB	4.539	n/a	n/a	n/a	-999	5	[1, 8, 9]	18.0	catFR1	1	R1321M
875.214	0.014	876557	STOP	n/a	n/a	n/a	n/a	-999	5	[-999, -999, -999]	n/a	catFR1	1	R1321M
875.228	0.53	876571	DISTRACT_END	n/a	n/a	n/a	n/a	-999	5	[0, 0, 0]	n/a	catFR1	1	R1321M
875.758	1.6	877101	RETRIEVAL_ORIENT_START	n/a	n/a	n/a	n/a	-999	5	[0, 0, 0]	n/a	catFR1	1	R1321M
877.477	0.0	878820	RETRIEVAL_ORIENT_END	n/a	n/a	n/a	n/a	-999	5	[0, 0, 0]	n/a	catFR1	1	R1321M
877.477	1.436	878820	REC_START	n/a	n/a	n/a	n/a	-999	5	[0, 0, 0]	n/a	catFR1	1	R1321M
878.913	0.77	880256	REC_WORD	1.436	n/a	GUITAR	Instruments	3	5	[0, 0, 0]	n/a	catFR1	1	R1321M
879.683	0.503	881026	REC_WORD	2.206	n/a	TUBA	Instruments	4	5	[0, 0, 0]	n/a	catFR1	1	R1321M
880.186	0.687	881529	REC_WORD	2.709	n/a	TRUMPET	Instruments	9	5	[0, 0, 0]	n/a	catFR1	1	R1321M
880.873	2.392	882216	REC_WORD	3.396	n/a	BANJO	Instruments	10	5	[0, 0, 0]	n/a	catFR1	1	R1321M
883.265	0.909	884608	REC_WORD	5.788	n/a	DOLL	Toys	5	5	[0, 0, 0]	n/a	catFR1	1	R1321M
884.174	11.611	885517	REC_WORD	6.697	n/a	BASEBALL	Toys	11	5	[0, 0, 0]	n/a	catFR1	1	R1321M
895.785	0.785	897127	REC_WORD	18.308	n/a	FREEZER	Appliances	1	5	[0, 0, 0]	n/a	catFR1	1	R1321M
896.57	1.939	897912	REC_WORD	19.093	n/a	REFRIGERATOR	Appliances	7	5	[0, 0, 0]	n/a	catFR1	1	R1321M
898.509	4.966	899851	REC_WORD	21.032	n/a	DISHWASHER	Appliances	8	5	[0, 0, 0]	n/a	catFR1	1	R1321M
903.475	4.014	904817	REC_WORD	25.998	n/a	DRYER	Appliances	2	5	[0, 0, 0]	n/a	catFR1	1	R1321M
907.489	0.0	908831	TRIAL_END	n/a	n/a	n/a	n/a	-999	5	[0, 0, 0]	n/a	catFR1	1	R1321M
907.489	0.024	908831	REC_END	n/a	n/a	n/a	n/a	-999	5	[0, 0, 0]	n/a	catFR1	1	R1321M
907.513	0.001	908855	TRIAL_START	n/a	n/a	n/a	n/a	-999	6	[0, 0, 0]	n/a	catFR1	1	R1321M
907.514	0.0	908856	TRIAL	n/a	n/a	n/a	n/a	-999	6	[0, 0, 0]	n/a	catFR1	1	R1321M
907.514	11.938	908856	WAITING_START	n/a	n/a	n/a	n/a	-999	6	[0, 0, 0]	n/a	catFR1	1	R1321M
919.452	0.0	920793	WAITING_END	n/a	n/a	n/a	n/a	-999	6	[0, 0, 0]	n/a	catFR1	1	R1321M
919.452	10.0	920793	COUNTDOWN_START	n/a	n/a	n/a	n/a	-999	6	[0, 0, 0]	n/a	catFR1	1	R1321M
929.881	0.0	931222	COUNTDOWN_END	n/a	n/a	n/a	n/a	-999	6	[0, 0, 0]	n/a	catFR1	1	R1321M
929.881	1.224	931222	ORIENT_START	n/a	n/a	n/a	n/a	-999	6	[0, 0, 0]	n/a	catFR1	1	R1321M
931.105	0.0	932446	ENCODING_START	n/a	n/a	n/a	n/a	-999	6	[0, 0, 0]	n/a	catFR1	1	R1321M
931.105	0.983	932446	ORIENT_END	n/a	n/a	n/a	n/a	-999	6	[0, 0, 0]	n/a	catFR1	1	R1321M
932.088	1.6	933429	WORD	n/a	wordpools/wordpool_categorized_EN.txt	SPEAKER	Electronics	1	6	[0, 0, 0]	n/a	catFR1	1	R1321M
933.721	0.965	935062	WORD_OFF	n/a	n/a	SPEAKER	Electronics	1	6	[0, 0, 0]	n/a	catFR1	1	R1321M
934.686	1.6	936027	WORD	n/a	wordpools/wordpool_categorized_EN.txt	COMPUTER	Electronics	2	6	[0, 0, 0]	n/a	catFR1	1	R1321M
936.322	0.821	937662	WORD_OFF	n/a	n/a	COMPUTER	Electronics	2	6	[0, 0, 0]	n/a	catFR1	1	R1321M
937.143	1.6	938483	WORD	n/a	wordpools/wordpool_categorized_EN.txt	TORNADO	Weather	3	6	[0, 0, 0]	n/a	catFR1	1	R1321M
938.773	0.991	940113	WORD_OFF	n/a	n/a	TORNADO	Weather	3	6	[0, 0, 0]	n/a	catFR1	1	R1321M
939.764	1.6	941104	WORD	n/a	wordpools/wordpool_categorized_EN.txt	SNOW	Weather	4	6	[0, 0, 0]	n/a	catFR1	1	R1321M
941.389	0.851	942729	WORD_OFF	n/a	n/a	SNOW	Weather	4	6	[0, 0, 0]	n/a	catFR1	1	R1321M
942.24	1.6	943580	WORD	n/a	wordpools/wordpool_categorized_EN.txt	PANDA	Zoo	5	6	[0, 0, 0]	n/a	catFR1	1	R1321M
943.874	1.102	945214	WORD_OFF	n/a	n/a	PANDA	Zoo	5	6	[0, 0, 0]	n/a	catFR1	1	R1321M
944.976	1.6	946316	WORD	n/a	wordpools/wordpool_categorized_EN.txt	GORILLA	Zoo	6	6	[0, 0, 0]	n/a	catFR1	1	R1321M
946.607	0.809	947947	WORD_OFF	n/a	n/a	GORILLA	Zoo	6	6	[0, 0, 0]	n/a	catFR1	1	R1321M
947.416	1.6	948756	WORD	n/a	wordpools/wordpool_categorized_EN.txt	PRINTER	Electronics	7	6	[0, 0, 0]	n/a	catFR1	1	R1321M
949.042	0.863	950382	WORD_OFF	n/a	n/a	PRINTER	Electronics	7	6	[0, 0, 0]	n/a	catFR1	1	R1321M
949.905	1.6	951245	WORD	n/a	wordpools/wordpool_categorized_EN.txt	TELEVISION	Electronics	8	6	[0, 0, 0]	n/a	catFR1	1	R1321M
951.541	0.886	952881	WORD_OFF	n/a	n/a	TELEVISION	Electronics	8	6	[0, 0, 0]	n/a	catFR1	1	R1321M
952.427	1.6	953767	WORD	n/a	wordpools/wordpool_categorized_EN.txt	HUMIDITY	Weather	9	6	[0, 0, 0]	n/a	catFR1	1	R1321M
954.043	0.939	955383	WORD_OFF	n/a	n/a	HUMIDITY	Weather	9	6	[0, 0, 0]	n/a	catFR1	1	R1321M
954.982	1.6	956322	WORD	n/a	wordpools/wordpool_categorized_EN.txt	FOG	Weather	10	6	[0, 0, 0]	n/a	catFR1	1	R1321M
956.609	0.777	957949	WORD_OFF	n/a	n/a	FOG	Weather	10	6	[0, 0, 0]	n/a	catFR1	1	R1321M
957.386	1.6	958725	WORD	n/a	wordpools/wordpool_categorized_EN.txt	GIRAFFE	Zoo	11	6	[0, 0, 0]	n/a	catFR1	1	R1321M
959.01	0.827	960349	WORD_OFF	n/a	n/a	GIRAFFE	Zoo	11	6	[0, 0, 0]	n/a	catFR1	1	R1321M
959.837	1.6	961176	WORD	n/a	wordpools/wordpool_categorized_EN.txt	ZEBRA	Zoo	12	6	[0, 0, 0]	n/a	catFR1	1	R1321M
961.46	0.0	962799	WORD_OFF	n/a	n/a	ZEBRA	Zoo	12	6	[0, 0, 0]	n/a	catFR1	1	R1321M
961.46	0.0	962799	ENCODING_END	n/a	n/a	n/a	n/a	-999	6	[0, 0, 0]	n/a	catFR1	1	R1321M
961.46	0.001	962799	DISTRACT_START	n/a	n/a	n/a	n/a	-999	6	[0, 0, 0]	n/a	catFR1	1	R1321M
961.461	0.015	962800	START	n/a	n/a	n/a	n/a	-999	6	[-999, -999, -999]	n/a	catFR1	1	R1321M
961.476	4.068	962815	PROB	4.039	n/a	n/a	n/a	-999	6	[9, 2, 8]	19.0	catFR1	1	R1321M
965.544	4.134	966883	PROB	4.106	n/a	n/a	n/a	-999	6	[5, 9, 3]	17.0	catFR1	1	R1321M
969.678	3.767	971017	PROB	3.733	n/a	n/a	n/a	-999	6	[8, 3, 5]	16.0	catFR1	1	R1321M
973.445	4.469	974784	PROB	4.431	n/a	n/a	n/a	-999	6	[7, 4, 6]	17.0	catFR1	1	R1321M
977.914	3.545	979253	PROB	3.545	n/a	n/a	n/a	-999	6	[1, 6, 4]	11.0	catFR1	1	R1321M
981.459	0.021	982797	STOP	n/a	n/a	n/a	n/a	-999	6	[-999, -999, -999]	n/a	catFR1	1	R1321M
981.48	0.631	982818	DISTRACT_END	n/a	n/a	n/a	n/a	-999	6	[0, 0, 0]	n/a	catFR1	1	R1321M
982.111	1.6	983449	RETRIEVAL_ORIENT_START	n/a	n/a	n/a	n/a	-999	6	[0, 0, 0]	n/a	catFR1	1	R1321M
983.782	0.0	985120	REC_START	n/a	n/a	n/a	n/a	-999	6	[0, 0, 0]	n/a	catFR1	1	R1321M
983.782	0.429	985120	RETRIEVAL_ORIENT_END	n/a	n/a	n/a	n/a	-999	6	[0, 0, 0]	n/a	catFR1	1	R1321M
984.211	0.756	985549	REC_WORD	0.429	n/a	PANDA	Zoo	5	6	[0, 0, 0]	n/a	catFR1	1	R1321M
984.967	0.973	986305	REC_WORD	1.185	n/a	CHIMPANZEE	Zoo	-999	6	[0, 0, 0]	n/a	catFR1	1	R1321M
985.94	1.297	987278	REC_WORD	2.158	n/a	GORILLA	Zoo	6	6	[0, 0, 0]	n/a	catFR1	1	R1321M
987.237	4.221	988575	REC_WORD	3.455	n/a	GIRAFFE	Zoo	11	6	[0, 0, 0]	n/a	catFR1	1	R1321M
991.458	0.724	992796	REC_WORD	7.676	n/a	COMPUTER	Electronics	2	6	[0, 0, 0]	n/a	catFR1	1	R1321M
992.182	1.653	993520	REC_WORD	8.4	n/a	PRINTER	Electronics	7	6	[0, 0, 0]	n/a	catFR1	1	R1321M
993.835	6.183	995173	REC_WORD	10.053	n/a	TELEVISION	Electronics	8	6	[0, 0, 0]	n/a	catFR1	1	R1321M
1000.018	13.776	1001356	REC_WORD	16.236	n/a	SPEAKER	Electronics	1	6	[0, 0, 0]	n/a	catFR1	1	R1321M
1013.794	0.0	1015131	TRIAL_END	n/a	n/a	n/a	n/a	-999	6	[0, 0, 0]	n/a	catFR1	1	R1321M
1013.794	0.023	1015131	REC_END	n/a	n/a	n/a	n/a	-999	6	[0, 0, 0]	n/a	catFR1	1	R1321M
1013.817	0.001	1015154	TRIAL_START	n/a	n/a	n/a	n/a	-999	7	[0, 0, 0]	n/a	catFR1	1	R1321M
1013.818	0.0	1015155	TRIAL	n/a	n/a	n/a	n/a	-999	7	[0, 0, 0]	n/a	catFR1	1	R1321M
1013.818	9.121	1015155	WAITING_START	n/a	n/a	n/a	n/a	-999	7	[0, 0, 0]	n/a	catFR1	1	R1321M
1022.939	0.001	1024275	WAITING_END	n/a	n/a	n/a	n/a	-999	7	[0, 0, 0]	n/a	catFR1	1	R1321M
1022.94	10.0	1024276	COUNTDOWN_START	n/a	n/a	n/a	n/a	-999	7	[0, 0, 0]	n/a	catFR1	1	R1321M
1033.369	0.0	1034705	COUNTDOWN_END	n/a	n/a	n/a	n/a	-999	7	[0, 0, 0]	n/a	catFR1	1	R1321M
1033.369	1.155	1034705	ORIENT_START	n/a	n/a	n/a	n/a	-999	7	[0, 0, 0]	n/a	catFR1	1	R1321M
1034.524	0.0	1035860	ORIENT_END	n/a	n/a	n/a	n/a	-999	7	[0, 0, 0]	n/a	catFR1	1	R1321M
1034.524	1.06	1035860	ENCODING_START	n/a	n/a	n/a	n/a	-999	7	[0, 0, 0]	n/a	catFR1	1	R1321M
1035.584	1.6	1036920	WORD	n/a	wordpools/wordpool_categorized_EN.txt	SCREWDRIVER	Tools	1	7	[0, 0, 0]	n/a	catFR1	1	R1321M
1037.209	1.135	1038545	WORD_OFF	n/a	n/a	SCREWDRIVER	Tools	1	7	[0, 0, 0]	n/a	catFR1	1	R1321M
1038.344	1.6	1039680	WORD	n/a	wordpools/wordpool_categorized_EN.txt	LEVEL	Tools	2	7	[0, 0, 0]	n/a	catFR1	1	R1321M
1039.976	0.841	1041312	WORD_OFF	n/a	n/a	LEVEL	Tools	2	7	[0, 0, 0]	n/a	catFR1	1	R1321M
1040.817	1.6	1042153	WORD	n/a	wordpools/wordpool_categorized_EN.txt	BROCCOLI	Vegetables	3	7	[0, 0, 0]	n/a	catFR1	1	R1321M
1042.442	0.935	1043778	WORD_OFF	n/a	n/a	BROCCOLI	Vegetables	3	7	[0, 0, 0]	n/a	catFR1	1	R1321M
1043.377	1.6	1044713	WORD	n/a	wordpools/wordpool_categorized_EN.txt	CABBAGE	Vegetables	4	7	[0, 0, 0]	n/a	catFR1	1	R1321M
1044.993	0.992	1046328	WORD_OFF	n/a	n/a	CABBAGE	Vegetables	4	7	[0, 0, 0]	n/a	catFR1	1	R1321M
1045.985	1.6	1047320	WORD	n/a	wordpools/wordpool_categorized_EN.txt	DRIZZLE	Weather	5	7	[0, 0, 0]	n/a	catFR1	1	R1321M
1047.61	0.862	1048945	WORD_OFF	n/a	n/a	DRIZZLE	Weather	5	7	[0, 0, 0]	n/a	catFR1	1	R1321M
1048.472	1.6	1049807	WORD	n/a	wordpools/wordpool_categorized_EN.txt	THUNDERSTORM	Weather	6	7	[0, 0, 0]	n/a	catFR1	1	R1321M
1050.094	1.078	1051429	WORD_OFF	n/a	n/a	THUNDERSTORM	Weather	6	7	[0, 0, 0]	n/a	catFR1	1	R1321M
1051.172	1.6	1052507	WORD	n/a	wordpools/wordpool_categorized_EN.txt	LETTUCE	Vegetables	7	7	[0, 0, 0]	n/a	catFR1	1	R1321M
1052.795	1.009	1054130	WORD_OFF	n/a	n/a	LETTUCE	Vegetables	7	7	[0, 0, 0]	n/a	catFR1	1	R1321M
1053.804	1.6	1055139	WORD	n/a	wordpools/wordpool_categorized_EN.txt	CUCUMBER	Vegetables	8	7	[0, 0, 0]	n/a	catFR1	1	R1321M
1055.428	0.947	1056763	WORD_OFF	n/a	n/a	CUCUMBER	Vegetables	8	7	[0, 0, 0]	n/a	catFR1	1	R1321M
1056.375	1.6	1057710	WORD	n/a	wordpools/wordpool_categorized_EN.txt	HURRICANE	Weather	9	7	[0, 0, 0]	n/a	catFR1	1	R1321M
1058.013	0.972	1059348	WORD_OFF	n/a	n/a	HURRICANE	Weather	9	7	[0, 0, 0]	n/a	catFR1	1	R1321M
1058.985	1.6	1060320	WORD	n/a	wordpools/wordpool_categorized_EN.txt	RAIN	Weather	10	7	[0, 0, 0]	n/a	catFR1	1	R1321M
1060.612	1.149	1061947	WORD_OFF	n/a	n/a	RAIN	Weather	10	7	[0, 0, 0]	n/a	catFR1	1	R1321M
1061.761	1.6	1063096	WORD	n/a	wordpools/wordpool_categorized_EN.txt	AXE	Tools	11	7	[0, 0, 0]	n/a	catFR1	1	R1321M
1063.396	1.039	1064731	WORD_OFF	n/a	n/a	AXE	Tools	11	7	[0, 0, 0]	n/a	catFR1	1	R1321M
1064.435	1.6	1065770	WORD	n/a	wordpools/wordpool_categorized_EN.txt	RATCHET	Tools	12	7	[0, 0, 0]	n/a	catFR1	1	R1321M
1066.064	0.001	1067398	WORD_OFF	n/a	n/a	RATCHET	Tools	12	7	[0, 0, 0]	n/a	catFR1	1	R1321M
1066.065	0.0	1067399	ENCODING_END	n/a	n/a	n/a	n/a	-999	7	[0, 0, 0]	n/a	catFR1	1	R1321M
1066.065	0.0	1067399	DISTRACT_START	n/a	n/a	n/a	n/a	-999	7	[0, 0, 0]	n/a	catFR1	1	R1321M
1066.065	0.016	1067399	START	n/a	n/a	n/a	n/a	-999	7	[-999, -999, -999]	n/a	catFR1	1	R1321M
1066.081	5.267	1067415	PROB	5.232	n/a	n/a	n/a	-999	7	[8, 8, 2]	18.0	catFR1	1	R1321M
1071.348	2.701	1072682	PROB	2.662	n/a	n/a	n/a	-999	7	[1, 5, 5]	11.0	catFR1	1	R1321M
1074.049	3.533	1075383	PROB	3.496	n/a	n/a	n/a	-999	7	[5, 5, 6]	16.0	catFR1	1	R1321M
1077.582	4.868	1078916	PROB	4.835	n/a	n/a	n/a	-999	7	[8, 5, 1]	14.0	catFR1	1	R1321M
1082.45	3.351	1083784	PROB	3.328	n/a	n/a	n/a	-999	7	[3, 7, 7]	17.0	catFR1	1	R1321M
1085.801	6.904	1087135	PROB	6.904	n/a	n/a	n/a	-999	7	[4, 9, 3]	16.0	catFR1	1	R1321M
1092.705	0.014	1094038	STOP	n/a	n/a	n/a	n/a	-999	7	[-999, -999, -999]	n/a	catFR1	1	R1321M
1092.719	0.651	1094052	DISTRACT_END	n/a	n/a	n/a	n/a	-999	7	[0, 0, 0]	n/a	catFR1	1	R1321M
1093.37	1.6	1094703	RETRIEVAL_ORIENT_START	n/a	n/a	n/a	n/a	-999	7	[0, 0, 0]	n/a	catFR1	1	R1321M
1094.937	0.0	1096270	RETRIEVAL_ORIENT_END	n/a	n/a	n/a	n/a	-999	7	[0, 0, 0]	n/a	catFR1	1	R1321M
1094.937	2.999	1096270	REC_START	n/a	n/a	n/a	n/a	-999	7	[0, 0, 0]	n/a	catFR1	1	R1321M
1097.936	0.685	1099269	REC_WORD	2.999	n/a	DRIZZLE	Weather	5	7	[0, 0, 0]	n/a	catFR1	1	R1321M
1098.621	0.642	1099954	REC_WORD	3.684	n/a	RAIN	Weather	10	7	[0, 0, 0]	n/a	catFR1	1	R1321M
1099.263	2.016	1100596	REC_WORD	4.326	n/a	THUNDERSTORM	Weather	6	7	[0, 0, 0]	n/a	catFR1	1	R1321M
1101.279	3.191	1102612	REC_WORD	6.342	n/a	HURRICANE	Weather	9	7	[0, 0, 0]	n/a	catFR1	1	R1321M
1104.47	0.859	1105803	REC_WORD	9.533	n/a	LETTUCE	Vegetables	7	7	[0, 0, 0]	n/a	catFR1	1	R1321M
1105.329	0.782	1106662	REC_WORD	10.392	n/a	CUCUMBER	Vegetables	8	7	[0, 0, 0]	n/a	catFR1	1	R1321M
1106.111	1.972	1107444	REC_WORD	11.174	n/a	BROCCOLI	Vegetables	3	7	[0, 0, 0]	n/a	catFR1	1	R1321M
1108.083	1.49	1109416	REC_WORD	13.146	n/a	SCREWDRIVER	Tools	1	7	[0, 0, 0]	n/a	catFR1	1	R1321M
1109.573	2.886	1110905	REC_WORD	14.636	n/a	LEVEL	Tools	2	7	[0, 0, 0]	n/a	catFR1	1	R1321M
1112.459	3.097	1113791	REC_WORD	17.522	n/a	AXE	Tools	11	7	[0, 0, 0]	n/a	catFR1	1	R1321M
1115.556	9.391	1116888	REC_WORD	20.619	n/a	CABBAGE	Vegetables	4	7	[0, 0, 0]	n/a	catFR1	1	R1321M
1124.947	0.0	1126279	REC_END	n/a	n/a	n/a	n/a	-999	7	[0, 0, 0]	n/a	catFR1	1	R1321M
1124.947	0.027	1126279	TRIAL_END	n/a	n/a	n/a	n/a	-999	7	[0, 0, 0]	n/a	catFR1	1	R1321M
1124.974	0.0	1126306	TRIAL_START	n/a	n/a	n/a	n/a	-999	8	[0, 0, 0]	n/a	catFR1	1	R1321M
1124.974	0.0	1126306	TRIAL	n/a	n/a	n/a	n/a	-999	8	[0, 0, 0]	n/a	catFR1	1	R1321M
1124.974	10.12	1126306	WAITING_START	n/a	n/a	n/a	n/a	-999	8	[0, 0, 0]	n/a	catFR1	1	R1321M
1135.094	0.001	1136425	WAITING_END	n/a	n/a	n/a	n/a	-999	8	[0, 0, 0]	n/a	catFR1	1	R1321M
1135.095	10.0	1136426	COUNTDOWN_START	n/a	n/a	n/a	n/a	-999	8	[0, 0, 0]	n/a	catFR1	1	R1321M
1145.523	0.001	1146854	COUNTDOWN_END	n/a	n/a	n/a	n/a	-999	8	[0, 0, 0]	n/a	catFR1	1	R1321M
1145.524	1.088	1146855	ORIENT_START	n/a	n/a	n/a	n/a	-999	8	[0, 0, 0]	n/a	catFR1	1	R1321M
1146.612	0.001	1147943	ORIENT_END	n/a	n/a	n/a	n/a	-999	8	[0, 0, 0]	n/a	catFR1	1	R1321M
1146.613	0.755	1147944	ENCODING_START	n/a	n/a	n/a	n/a	-999	8	[0, 0, 0]	n/a	catFR1	1	R1321M
1147.368	1.6	1148699	WORD	n/a	wordpools/wordpool_categorized_EN.txt	CIDER	Beverages	1	8	[0, 0, 0]	n/a	catFR1	1	R1321M
1148.997	1.112	1150328	WORD_OFF	n/a	n/a	CIDER	Beverages	1	8	[0, 0, 0]	n/a	catFR1	1	R1321M
1150.109	1.6	1151440	WORD	n/a	wordpools/wordpool_categorized_EN.txt	COLA	Beverages	2	8	[0, 0, 0]	n/a	catFR1	1	R1321M
1151.73	0.819	1153061	WORD_OFF	n/a	n/a	COLA	Beverages	2	8	[0, 0, 0]	n/a	catFR1	1	R1321M
1152.549	1.6	1153880	WORD	n/a	wordpools/wordpool_categorized_EN.txt	CUPCAKE	Desserts	3	8	[0, 0, 0]	n/a	catFR1	1	R1321M
1154.181	0.938	1155511	WORD_OFF	n/a	n/a	CUPCAKE	Desserts	3	8	[0, 0, 0]	n/a	catFR1	1	R1321M
1155.119	1.6	1156449	WORD	n/a	wordpools/wordpool_categorized_EN.txt	MOUSSE	Desserts	4	8	[0, 0, 0]	n/a	catFR1	1	R1321M
1156.748	0.947	1158078	WORD_OFF	n/a	n/a	MOUSSE	Desserts	4	8	[0, 0, 0]	n/a	catFR1	1	R1321M
1157.695	1.6	1159025	WORD	n/a	wordpools/wordpool_categorized_EN.txt	LION	Zoo	5	8	[0, 0, 0]	n/a	catFR1	1	R1321M
1159.331	1.078	1160661	WORD_OFF	n/a	n/a	LION	Zoo	5	8	[0, 0, 0]	n/a	catFR1	1	R1321M
1160.409	1.6	1161739	WORD	n/a	wordpools/wordpool_categorized_EN.txt	MONKEY	Zoo	6	8	[0, 0, 0]	n/a	catFR1	1	R1321M
1162.033	0.929	1163363	WORD_OFF	n/a	n/a	MONKEY	Zoo	6	8	[0, 0, 0]	n/a	catFR1	1	R1321M
1162.962	1.6	1164292	WORD	n/a	wordpools/wordpool_categorized_EN.txt	TEA	Beverages	7	8	[0, 0, 0]	n/a	catFR1	1	R1321M
1164.582	1.086	1165912	WORD_OFF	n/a	n/a	TEA	Beverages	7	8	[0, 0, 0]	n/a	catFR1	1	R1321M
1165.668	1.6	1166998	WORD	n/a	wordpools/wordpool_categorized_EN.txt	RUM	Beverages	8	8	[0, 0, 0]	n/a	catFR1	1	R1321M
1167.3	0.777	1168630	WORD_OFF	n/a	n/a	RUM	Beverages	8	8	[0, 0, 0]	n/a	catFR1	1	R1321M
1168.077	1.6	1169407	WORD	n/a	wordpools/wordpool_categorized_EN.txt	ORANGUTAN	Zoo	9	8	[0, 0, 0]	n/a	catFR1	1	R1321M
1169.7	0.923	1171030	WORD_OFF	n/a	n/a	ORANGUTAN	Zoo	9	8	[0, 0, 0]	n/a	catFR1	1	R1321M
1170.623	1.6	1171953	WORD	n/a	wordpools/wordpool_categorized_EN.txt	BEAR	Zoo	10	8	[0, 0, 0]	n/a	catFR1	1	R1321M
1172.252	0.749	1173582	WORD_OFF	n/a	n/a	BEAR	Zoo	10	8	[0, 0, 0]	n/a	catFR1	1	R1321M
1173.001	1.6	1174331	WORD	n/a	wordpools/wordpool_categorized_EN.txt	COOKIE	Desserts	11	8	[0, 0, 0]	n/a	catFR1	1	R1321M
1174.634	0.813	1175963	WORD_OFF	n/a	n/a	COOKIE	Desserts	11	8	[0, 0, 0]	n/a	catFR1	1	R1321M
1175.447	1.6	1176776	WORD	n/a	wordpools/wordpool_categorized_EN.txt	FUDGE	Desserts	12	8	[0, 0, 0]	n/a	catFR1	1	R1321M
1177.086	0.0	1178415	WORD_OFF	n/a	n/a	FUDGE	Desserts	12	8	[0, 0, 0]	n/a	catFR1	1	R1321M
1177.086	0.0	1178415	ENCODING_END	n/a	n/a	n/a	n/a	-999	8	[0, 0, 0]	n/a	catFR1	1	R1321M
1177.086	0.001	1178415	DISTRACT_START	n/a	n/a	n/a	n/a	-999	8	[0, 0, 0]	n/a	catFR1	1	R1321M
1177.087	0.015	1178416	START	n/a	n/a	n/a	n/a	-999	8	[-999, -999, -999]	n/a	catFR1	1	R1321M
1177.102	4.084	1178431	PROB	4.055	n/a	n/a	n/a	-999	8	[5, 9, 6]	20.0	catFR1	1	R1321M
1181.186	4.083	1182515	PROB	4.059	n/a	n/a	n/a	-999	8	[5, 2, 9]	16.0	catFR1	1	R1321M
1185.269	4.001	1186598	PROB	3.976	n/a	n/a	n/a	-999	8	[1, 9, 7]	17.0	catFR1	1	R1321M
1189.27	6.051	1190599	PROB	6.014	n/a	n/a	n/a	-999	8	[9, 5, 4]	18.0	catFR1	1	R1321M
1195.321	5.392	1196650	PROB	5.392	n/a	n/a	n/a	-999	8	[3, 6, 6]	15.0	catFR1	1	R1321M
1200.713	0.01	1202041	STOP	n/a	n/a	n/a	n/a	-999	8	[-999, -999, -999]	n/a	catFR1	1	R1321M
1200.723	0.678	1202051	DISTRACT_END	n/a	n/a	n/a	n/a	-999	8	[0, 0, 0]	n/a	catFR1	1	R1321M
1201.401	1.6	1202729	RETRIEVAL_ORIENT_START	n/a	n/a	n/a	n/a	-999	8	[0, 0, 0]	n/a	catFR1	1	R1321M
1202.941	0.0	1204269	REC_START	n/a	n/a	n/a	n/a	-999	8	[0, 0, 0]	n/a	catFR1	1	R1321M
1202.941	2.561	1204269	RETRIEVAL_ORIENT_END	n/a	n/a	n/a	n/a	-999	8	[0, 0, 0]	n/a	catFR1	1	R1321M
1205.502	2.045	1206830	REC_WORD	2.561	n/a	CUPCAKE	Desserts	3	8	[0, 0, 0]	n/a	catFR1	1	R1321M
1207.547	2.473	1208875	REC_WORD_VV	4.606	n/a	<>	n/a	-999	8	[0, 0, 0]	n/a	catFR1	1	R1321M
1210.02	0.786	1211348	REC_WORD_VV	7.079	n/a	<>	n/a	-999	8	[0, 0, 0]	n/a	catFR1	1	R1321M
1210.806	0.826	1212134	REC_WORD	7.865	n/a	CIDER	Beverages	1	8	[0, 0, 0]	n/a	catFR1	1	R1321M
1211.632	1.206	1212960	REC_WORD	8.691	n/a	SODA	n/a	-999	8	[0, 0, 0]	n/a	catFR1	1	R1321M
1212.838	1.261	1214166	REC_WORD	9.897	n/a	TEA	Beverages	7	8	[0, 0, 0]	n/a	catFR1	1	R1321M
1214.099	5.395	1215427	REC_WORD	11.158	n/a	RUM	Beverages	8	8	[0, 0, 0]	n/a	catFR1	1	R1321M
1219.494	7.07	1220821	REC_WORD	16.553	n/a	COOKIE	Desserts	11	8	[0, 0, 0]	n/a	catFR1	1	R1321M
1226.564	6.388	1227891	REC_WORD	23.623	n/a	ORANGUTAN	Zoo	9	8	[0, 0, 0]	n/a	catFR1	1	R1321M
1232.952	0.0	1234279	TRIAL_END	n/a	n/a	n/a	n/a	-999	8	[0, 0, 0]	n/a	catFR1	1	R1321M
1232.952	0.021	1234279	REC_END	n/a	n/a	n/a	n/a	-999	8	[0, 0, 0]	n/a	catFR1	1	R1321M
1232.973	0.001	1234300	TRIAL_START	n/a	n/a	n/a	n/a	-999	9	[0, 0, 0]	n/a	catFR1	1	R1321M
1232.974	0.0	1234301	TRIAL	n/a	n/a	n/a	n/a	-999	9	[0, 0, 0]	n/a	catFR1	1	R1321M
1232.974	7.656	1234301	WAITING_START	n/a	n/a	n/a	n/a	-999	9	[0, 0, 0]	n/a	catFR1	1	R1321M
1240.63	0.001	1241956	WAITING_END	n/a	n/a	n/a	n/a	-999	9	[0, 0, 0]	n/a	catFR1	1	R1321M
1240.631	10.0	1241957	COUNTDOWN_START	n/a	n/a	n/a	n/a	-999	9	[0, 0, 0]	n/a	catFR1	1	R1321M
1251.06	0.0	1252386	COUNTDOWN_END	n/a	n/a	n/a	n/a	-999	9	[0, 0, 0]	n/a	catFR1	1	R1321M
1251.06	1.024	1252386	ORIENT_START	n/a	n/a	n/a	n/a	-999	9	[0, 0, 0]	n/a	catFR1	1	R1321M
1252.084	0.0	1253410	ENCODING_START	n/a	n/a	n/a	n/a	-999	9	[0, 0, 0]	n/a	catFR1	1	R1321M
1252.084	0.952	1253410	ORIENT_END	n/a	n/a	n/a	n/a	-999	9	[0, 0, 0]	n/a	catFR1	1	R1321M
1253.036	1.6	1254362	WORD	n/a	wordpools/wordpool_categorized_EN.txt	SHIRT	Clothing	1	9	[0, 0, 0]	n/a	catFR1	1	R1321M
1254.666	0.997	1255992	WORD_OFF	n/a	n/a	SHIRT	Clothing	1	9	[0, 0, 0]	n/a	catFR1	1	R1321M
1255.663	1.6	1256989	WORD	n/a	wordpools/wordpool_categorized_EN.txt	SHOES	Clothing	2	9	[0, 0, 0]	n/a	catFR1	1	R1321M
1257.3	1.022	1258626	WORD_OFF	n/a	n/a	SHOES	Clothing	2	9	[0, 0, 0]	n/a	catFR1	1	R1321M
1258.322	1.6	1259648	WORD	n/a	wordpools/wordpool_categorized_EN.txt	CAULIFLOWER	Vegetables	3	9	[0, 0, 0]	n/a	catFR1	1	R1321M
1259.952	0.975	1261278	WORD_OFF	n/a	n/a	CAULIFLOWER	Vegetables	3	9	[0, 0, 0]	n/a	catFR1	1	R1321M
1260.927	1.6	1262253	WORD	n/a	wordpools/wordpool_categorized_EN.txt	SPINACH	Vegetables	4	9	[0, 0, 0]	n/a	catFR1	1	R1321M
1262.551	1.012	1263876	WORD_OFF	n/a	n/a	SPINACH	Vegetables	4	9	[0, 0, 0]	n/a	catFR1	1	R1321M
1263.563	1.6	1264888	WORD	n/a	wordpools/wordpool_categorized_EN.txt	BUS	Vehicles	5	9	[0, 0, 0]	n/a	catFR1	1	R1321M
1265.186	0.754	1266511	WORD_OFF	n/a	n/a	BUS	Vehicles	5	9	[0, 0, 0]	n/a	catFR1	1	R1321M
1265.94	1.6	1267265	WORD	n/a	wordpools/wordpool_categorized_EN.txt	JEEP	Vehicles	6	9	[0, 0, 0]	n/a	catFR1	1	R1321M
1267.569	1.102	1268894	WORD_OFF	n/a	n/a	JEEP	Vehicles	6	9	[0, 0, 0]	n/a	catFR1	1	R1321M
1268.671	1.6	1269996	WORD	n/a	wordpools/wordpool_categorized_EN.txt	PEAS	Vegetables	7	9	[0, 0, 0]	n/a	catFR1	1	R1321M
1270.303	1.092	1271628	WORD_OFF	n/a	n/a	PEAS	Vegetables	7	9	[0, 0, 0]	n/a	catFR1	1	R1321M
1271.395	1.6	1272720	WORD	n/a	wordpools/wordpool_categorized_EN.txt	ONION	Vegetables	8	9	[0, 0, 0]	n/a	catFR1	1	R1321M
1273.021	1.077	1274346	WORD_OFF	n/a	n/a	ONION	Vegetables	8	9	[0, 0, 0]	n/a	catFR1	1	R1321M
1274.098	1.6	1275423	WORD	n/a	wordpools/wordpool_categorized_EN.txt	MOTORCYCLE	Vehicles	9	9	[0, 0, 0]	n/a	catFR1	1	R1321M
1275.737	0.768	1277062	WORD_OFF	n/a	n/a	MOTORCYCLE	Vehicles	9	9	[0, 0, 0]	n/a	catFR1	1	R1321M
1276.505	1.6	1277830	WORD	n/a	wordpools/wordpool_categorized_EN.txt	SCOOTER	Vehicles	10	9	[0, 0, 0]	n/a	catFR1	1	R1321M
1278.123	1.075	1279448	WORD_OFF	n/a	n/a	SCOOTER	Vehicles	10	9	[0, 0, 0]	n/a	catFR1	1	R1321M
1279.198	1.6	1280523	WORD	n/a	wordpools/wordpool_categorized_EN.txt	COAT	Clothing	11	9	[0, 0, 0]	n/a	catFR1	1	R1321M
1280.822	0.777	1282147	WORD_OFF	n/a	n/a	COAT	Clothing	11	9	[0, 0, 0]	n/a	catFR1	1	R1321M
1281.599	1.6	1282924	WORD	n/a	wordpools/wordpool_categorized_EN.txt	DRESS	Clothing	12	9	[0, 0, 0]	n/a	catFR1	1	R1321M
1283.223	0.0	1284548	WORD_OFF	n/a	n/a	DRESS	Clothing	12	9	[0, 0, 0]	n/a	catFR1	1	R1321M
1283.223	0.001	1284548	ENCODING_END	n/a	n/a	n/a	n/a	-999	9	[0, 0, 0]	n/a	catFR1	1	R1321M
1283.224	0.0	1284549	DISTRACT_START	n/a	n/a	n/a	n/a	-999	9	[0, 0, 0]	n/a	catFR1	1	R1321M
1283.224	0.015	1284549	START	n/a	n/a	n/a	n/a	-999	9	[-999, -999, -999]	n/a	catFR1	1	R1321M
1283.239	3.834	1284564	PROB	3.807	n/a	n/a	n/a	-999	9	[9, 6, 5]	20.0	catFR1	1	R1321M
1287.073	3.55	1288397	PROB	3.515	n/a	n/a	n/a	-999	9	[3, 2, 8]	13.0	catFR1	1	R1321M
1290.623	3.335	1291947	PROB	3.303	n/a	n/a	n/a	-999	9	[7, 8, 5]	20.0	catFR1	1	R1321M
1293.958	5.3	1295282	PROB	5.268	n/a	n/a	n/a	-999	9	[3, 9, 2]	14.0	catFR1	1	R1321M
1299.258	4.721	1300582	PROB	4.721	n/a	n/a	n/a	-999	9	[4, 9, 6]	19.0	catFR1	1	R1321M
1303.979	0.015	1305303	STOP	n/a	n/a	n/a	n/a	-999	9	[-999, -999, -999]	n/a	catFR1	1	R1321M
1303.994	0.669	1305318	DISTRACT_END	n/a	n/a	n/a	n/a	-999	9	[0, 0, 0]	n/a	catFR1	1	R1321M
1304.663	1.6	1305987	RETRIEVAL_ORIENT_START	n/a	n/a	n/a	n/a	-999	9	[0, 0, 0]	n/a	catFR1	1	R1321M
1306.343	0.0	1307666	REC_START	n/a	n/a	n/a	n/a	-999	9	[0, 0, 0]	n/a	catFR1	1	R1321M
1306.343	0.233	1307666	RETRIEVAL_ORIENT_END	n/a	n/a	n/a	n/a	-999	9	[0, 0, 0]	n/a	catFR1	1	R1321M
1306.576	0.748	1307899	REC_WORD	0.233	n/a	SHIRT	Clothing	1	9	[0, 0, 0]	n/a	catFR1	1	R1321M
1307.324	1.134	1308647	REC_WORD	0.981	n/a	SHOES	Clothing	2	9	[0, 0, 0]	n/a	catFR1	1	R1321M
1308.458	0.834	1309781	REC_WORD	2.115	n/a	DRESS	Clothing	12	9	[0, 0, 0]	n/a	catFR1	1	R1321M
1309.292	4.096	1310615	REC_WORD	2.949	n/a	COAT	Clothing	11	9	[0, 0, 0]	n/a	catFR1	1	R1321M
1313.388	1.304	1314711	REC_WORD	7.045	n/a	BUS	Vehicles	5	9	[0, 0, 0]	n/a	catFR1	1	R1321M
1314.692	0.714	1316015	REC_WORD	8.349	n/a	SCOOTER	Vehicles	10	9	[0, 0, 0]	n/a	catFR1	1	R1321M
1315.406	1.691	1316729	REC_WORD	9.063	n/a	MOTORCYCLE	Vehicles	9	9	[0, 0, 0]	n/a	catFR1	1	R1321M
1317.097	9.918	1318420	REC_WORD	10.754	n/a	JEEP	Vehicles	6	9	[0, 0, 0]	n/a	catFR1	1	R1321M
1327.015	2.968	1328337	REC_WORD	20.672	n/a	CAULIFLOWER	Vegetables	3	9	[0, 0, 0]	n/a	catFR1	1	R1321M
1329.983	3.517	1331305	REC_WORD	23.64	n/a	SPINACH	Vegetables	4	9	[0, 0, 0]	n/a	catFR1	1	R1321M
1333.5	2.856	1334822	REC_WORD	27.157	n/a	ONION	Vegetables	8	9	[0, 0, 0]	n/a	catFR1	1	R1321M
1336.356	0.0	1337678	REC_END	n/a	n/a	n/a	n/a	-999	9	[0, 0, 0]	n/a	catFR1	1	R1321M
1336.356	0.025	1337678	TRIAL_END	n/a	n/a	n/a	n/a	-999	9	[0, 0, 0]	n/a	catFR1	1	R1321M
1336.381	0.0	1337703	TRIAL_START	n/a	n/a	n/a	n/a	-999	10	[0, 0, 0]	n/a	catFR1	1	R1321M
1336.381	0.001	1337703	TRIAL	n/a	n/a	n/a	n/a	-999	10	[0, 0, 0]	n/a	catFR1	1	R1321M
1336.382	5.351	1337704	WAITING_START	n/a	n/a	n/a	n/a	-999	10	[0, 0, 0]	n/a	catFR1	1	R1321M
1341.733	0.001	1343055	WAITING_END	n/a	n/a	n/a	n/a	-999	10	[0, 0, 0]	n/a	catFR1	1	R1321M
1341.734	10.0	1343056	COUNTDOWN_START	n/a	n/a	n/a	n/a	-999	10	[0, 0, 0]	n/a	catFR1	1	R1321M
1352.163	0.0	1353484	ORIENT_START	n/a	n/a	n/a	n/a	-999	10	[0, 0, 0]	n/a	catFR1	1	R1321M
1352.163	1.222	1353484	COUNTDOWN_END	n/a	n/a	n/a	n/a	-999	10	[0, 0, 0]	n/a	catFR1	1	R1321M
1353.385	0.001	1354706	ORIENT_END	n/a	n/a	n/a	n/a	-999	10	[0, 0, 0]	n/a	catFR1	1	R1321M
1353.386	1.006	1354707	ENCODING_START	n/a	n/a	n/a	n/a	-999	10	[0, 0, 0]	n/a	catFR1	1	R1321M
1354.392	1.6	1355713	WORD	n/a	wordpools/wordpool_categorized_EN.txt	IRON	Appliances	1	10	[0, 0, 0]	n/a	catFR1	1	R1321M
1356.02	1.098	1357341	WORD_OFF	n/a	n/a	IRON	Appliances	1	10	[0, 0, 0]	n/a	catFR1	1	R1321M
1357.118	1.6	1358439	WORD	n/a	wordpools/wordpool_categorized_EN.txt	TOASTER	Appliances	2	10	[0, 0, 0]	n/a	catFR1	1	R1321M
1358.753	0.866	1360074	WORD_OFF	n/a	n/a	TOASTER	Appliances	2	10	[0, 0, 0]	n/a	catFR1	1	R1321M
1359.619	1.6	1360940	WORD	n/a	wordpools/wordpool_categorized_EN.txt	DOVE	Birds	3	10	[0, 0, 0]	n/a	catFR1	1	R1321M
1361.254	0.882	1362575	WORD_OFF	n/a	n/a	DOVE	Birds	3	10	[0, 0, 0]	n/a	catFR1	1	R1321M
1362.136	1.6	1363457	WORD	n/a	wordpools/wordpool_categorized_EN.txt	ROBIN	Birds	4	10	[0, 0, 0]	n/a	catFR1	1	R1321M
1363.772	0.921	1365093	WORD_OFF	n/a	n/a	ROBIN	Birds	4	10	[0, 0, 0]	n/a	catFR1	1	R1321M
1364.693	1.6	1366014	WORD	n/a	wordpools/wordpool_categorized_EN.txt	WALL	Building	5	10	[0, 0, 0]	n/a	catFR1	1	R1321M
1366.321	0.778	1367642	WORD_OFF	n/a	n/a	WALL	Building	5	10	[0, 0, 0]	n/a	catFR1	1	R1321M
1367.099	1.6	1368420	WORD	n/a	wordpools/wordpool_categorized_EN.txt	ROOF	Building	6	10	[0, 0, 0]	n/a	catFR1	1	R1321M
1368.722	0.823	1370043	WORD_OFF	n/a	n/a	ROOF	Building	6	10	[0, 0, 0]	n/a	catFR1	1	R1321M
1369.545	1.6	1370866	WORD	n/a	wordpools/wordpool_categorized_EN.txt	STOVE	Appliances	7	10	[0, 0, 0]	n/a	catFR1	1	R1321M
1371.173	1.128	1372493	WORD_OFF	n/a	n/a	STOVE	Appliances	7	10	[0, 0, 0]	n/a	catFR1	1	R1321M
1372.301	1.6	1373621	WORD	n/a	wordpools/wordpool_categorized_EN.txt	WASHER	Appliances	8	10	[0, 0, 0]	n/a	catFR1	1	R1321M
1373.923	0.953	1375243	WORD_OFF	n/a	n/a	WASHER	Appliances	8	10	[0, 0, 0]	n/a	catFR1	1	R1321M
1374.876	1.6	1376196	WORD	n/a	wordpools/wordpool_categorized_EN.txt	GOOSE	Birds	9	10	[0, 0, 0]	n/a	catFR1	1	R1321M
1376.507	0.873	1377827	WORD_OFF	n/a	n/a	GOOSE	Birds	9	10	[0, 0, 0]	n/a	catFR1	1	R1321M
1377.38	1.6	1378700	WORD	n/a	wordpools/wordpool_categorized_EN.txt	PIGEON	Birds	10	10	[0, 0, 0]	n/a	catFR1	1	R1321M
1379.008	1.11	1380328	WORD_OFF	n/a	n/a	PIGEON	Birds	10	10	[0, 0, 0]	n/a	catFR1	1	R1321M
1380.118	1.6	1381438	WORD	n/a	wordpools/wordpool_categorized_EN.txt	ROOM	Building	11	10	[0, 0, 0]	n/a	catFR1	1	R1321M
1381.741	1.097	1383061	WORD_OFF	n/a	n/a	ROOM	Building	11	10	[0, 0, 0]	n/a	catFR1	1	R1321M
1382.838	1.6	1384158	WORD	n/a	wordpools/wordpool_categorized_EN.txt	FOUNDATION	Building	12	10	[0, 0, 0]	n/a	catFR1	1	R1321M
1384.475	0.0	1385795	WORD_OFF	n/a	n/a	FOUNDATION	Building	12	10	[0, 0, 0]	n/a	catFR1	1	R1321M
1384.475	0.0	1385795	ENCODING_END	n/a	n/a	n/a	n/a	-999	10	[0, 0, 0]	n/a	catFR1	1	R1321M
1384.475	0.001	1385795	DISTRACT_START	n/a	n/a	n/a	n/a	-999	10	[0, 0, 0]	n/a	catFR1	1	R1321M
1384.476	0.015	1385796	START	n/a	n/a	n/a	n/a	-999	10	[-999, -999, -999]	n/a	catFR1	1	R1321M
1384.491	5.636	1385811	PROB	5.6	n/a	n/a	n/a	-999	10	[6, 6, 8]	20.0	catFR1	1	R1321M
1390.127	4.15	1391447	PROB	4.115	n/a	n/a	n/a	-999	10	[9, 9, 8]	26.0	catFR1	1	R1321M
1394.277	5.034	1395596	PROB	4.997	n/a	n/a	n/a	-999	10	[2, 7, 5]	14.0	catFR1	1	R1321M
1399.311	4.668	1400630	PROB	4.643	n/a	n/a	n/a	-999	10	[4, 3, 5]	12.0	catFR1	1	R1321M
1403.979	2.943	1405298	PROB	2.943	n/a	n/a	n/a	-999	10	[5, 1, 5]	11.0	catFR1	1	R1321M
1406.922	0.008	1408241	STOP	n/a	n/a	n/a	n/a	-999	10	[-999, -999, -999]	n/a	catFR1	1	R1321M
1406.93	0.585	1408249	DISTRACT_END	n/a	n/a	n/a	n/a	-999	10	[0, 0, 0]	n/a	catFR1	1	R1321M
1407.515	1.6	1408834	RETRIEVAL_ORIENT_START	n/a	n/a	n/a	n/a	-999	10	[0, 0, 0]	n/a	catFR1	1	R1321M
1409.181	0.0	1410500	RETRIEVAL_ORIENT_END	n/a	n/a	n/a	n/a	-999	10	[0, 0, 0]	n/a	catFR1	1	R1321M
1409.181	1.279	1410500	REC_START	n/a	n/a	n/a	n/a	-999	10	[0, 0, 0]	n/a	catFR1	1	R1321M
1410.46	0.965	1411779	REC_WORD	1.279	n/a	WALL	Building	5	10	[0, 0, 0]	n/a	catFR1	1	R1321M
1411.425	0.862	1412744	REC_WORD	2.244	n/a	ROOF	Building	6	10	[0, 0, 0]	n/a	catFR1	1	R1321M
1412.287	6.956	1413606	REC_WORD	3.106	n/a	ROOM	Building	11	10	[0, 0, 0]	n/a	catFR1	1	R1321M
1419.243	0.672	1420561	REC_WORD	10.062	n/a	WASHER	Appliances	8	10	[0, 0, 0]	n/a	catFR1	1	R1321M
1419.915	2.236	1421233	REC_WORD	10.734	n/a	STOVE	Appliances	7	10	[0, 0, 0]	n/a	catFR1	1	R1321M
1422.151	1.221	1423469	REC_WORD	12.97	n/a	TOASTER	Appliances	2	10	[0, 0, 0]	n/a	catFR1	1	R1321M
1423.372	15.82	1424690	REC_WORD	14.191	n/a	IRON	Appliances	1	10	[0, 0, 0]	n/a	catFR1	1	R1321M
1439.192	0.0	1440509	REC_END	n/a	n/a	n/a	n/a	-999	10	[0, 0, 0]	n/a	catFR1	1	R1321M
1439.192	0.022	1440509	TRIAL_END	n/a	n/a	n/a	n/a	-999	10	[0, 0, 0]	n/a	catFR1	1	R1321M
1439.214	0.0	1440531	TRIAL_START	n/a	n/a	n/a	n/a	-999	11	[0, 0, 0]	n/a	catFR1	1	R1321M
1439.214	0.0	1440531	TRIAL	n/a	n/a	n/a	n/a	-999	11	[0, 0, 0]	n/a	catFR1	1	R1321M
1439.214	4.289	1440531	WAITING_START	n/a	n/a	n/a	n/a	-999	11	[0, 0, 0]	n/a	catFR1	1	R1321M
1443.503	0.0	1444820	WAITING_END	n/a	n/a	n/a	n/a	-999	11	[0, 0, 0]	n/a	catFR1	1	R1321M
1443.503	10.0	1444820	COUNTDOWN_START	n/a	n/a	n/a	n/a	-999	11	[0, 0, 0]	n/a	catFR1	1	R1321M
1453.931	0.001	1455248	COUNTDOWN_END	n/a	n/a	n/a	n/a	-999	11	[0, 0, 0]	n/a	catFR1	1	R1321M
1453.932	1.157	1455249	ORIENT_START	n/a	n/a	n/a	n/a	-999	11	[0, 0, 0]	n/a	catFR1	1	R1321M
1455.089	0.001	1456406	ORIENT_END	n/a	n/a	n/a	n/a	-999	11	[0, 0, 0]	n/a	catFR1	1	R1321M
1455.09	0.918	1456407	ENCODING_START	n/a	n/a	n/a	n/a	-999	11	[0, 0, 0]	n/a	catFR1	1	R1321M
1456.008	1.6	1457325	WORD	n/a	wordpools/wordpool_categorized_EN.txt	VACUUM	Appliances	1	11	[0, 0, 0]	n/a	catFR1	1	R1321M
1457.639	0.915	1458955	WORD_OFF	n/a	n/a	VACUUM	Appliances	1	11	[0, 0, 0]	n/a	catFR1	1	R1321M
1458.554	1.6	1459870	WORD	n/a	wordpools/wordpool_categorized_EN.txt	BLENDER	Appliances	2	11	[0, 0, 0]	n/a	catFR1	1	R1321M
1460.174	1.077	1461490	WORD_OFF	n/a	n/a	BLENDER	Appliances	2	11	[0, 0, 0]	n/a	catFR1	1	R1321M
1461.251	1.6	1462567	WORD	n/a	wordpools/wordpool_categorized_EN.txt	DOOR	Building	3	11	[0, 0, 0]	n/a	catFR1	1	R1321M
1462.857	0.944	1464173	WORD_OFF	n/a	n/a	DOOR	Building	3	11	[0, 0, 0]	n/a	catFR1	1	R1321M
1463.801	1.6	1465117	WORD	n/a	wordpools/wordpool_categorized_EN.txt	CEILING	Building	4	11	[0, 0, 0]	n/a	catFR1	1	R1321M
1465.424	0.99	1466740	WORD_OFF	n/a	n/a	CEILING	Building	4	11	[0, 0, 0]	n/a	catFR1	1	R1321M
1466.414	1.6	1467730	WORD	n/a	wordpools/wordpool_categorized_EN.txt	COUCH	Furniture	5	11	[0, 0, 0]	n/a	catFR1	1	R1321M
1468.042	1.131	1469358	WORD_OFF	n/a	n/a	COUCH	Furniture	5	11	[0, 0, 0]	n/a	catFR1	1	R1321M
1469.173	1.6	1470489	WORD	n/a	wordpools/wordpool_categorized_EN.txt	TABLE	Furniture	6	11	[0, 0, 0]	n/a	catFR1	1	R1321M
1470.809	0.907	1472125	WORD_OFF	n/a	n/a	TABLE	Furniture	6	11	[0, 0, 0]	n/a	catFR1	1	R1321M
1471.716	1.6	1473032	WORD	n/a	wordpools/wordpool_categorized_EN.txt	OVEN	Appliances	7	11	[0, 0, 0]	n/a	catFR1	1	R1321M
1473.342	0.869	1474658	WORD_OFF	n/a	n/a	OVEN	Appliances	7	11	[0, 0, 0]	n/a	catFR1	1	R1321M
1474.211	1.6	1475527	WORD	n/a	wordpools/wordpool_categorized_EN.txt	MIXER	Appliances	8	11	[0, 0, 0]	n/a	catFR1	1	R1321M
1475.843	0.795	1477159	WORD_OFF	n/a	n/a	MIXER	Appliances	8	11	[0, 0, 0]	n/a	catFR1	1	R1321M
1476.638	1.6	1477954	WORD	n/a	wordpools/wordpool_categorized_EN.txt	FLOOR	Building	9	11	[0, 0, 0]	n/a	catFR1	1	R1321M
1478.276	1.044	1479592	WORD_OFF	n/a	n/a	FLOOR	Building	9	11	[0, 0, 0]	n/a	catFR1	1	R1321M
1479.32	1.6	1480635	WORD	n/a	wordpools/wordpool_categorized_EN.txt	STAIRS	Building	10	11	[0, 0, 0]	n/a	catFR1	1	R1321M
1480.944	1.135	1482259	WORD_OFF	n/a	n/a	STAIRS	Building	10	11	[0, 0, 0]	n/a	catFR1	1	R1321M
1482.079	1.6	1483394	WORD	n/a	wordpools/wordpool_categorized_EN.txt	SOFA	Furniture	11	11	[0, 0, 0]	n/a	catFR1	1	R1321M
1483.711	0.76	1485026	WORD_OFF	n/a	n/a	SOFA	Furniture	11	11	[0, 0, 0]	n/a	catFR1	1	R1321M
1484.471	1.6	1485786	WORD	n/a	wordpools/wordpool_categorized_EN.txt	DRESSER	Furniture	12	11	[0, 0, 0]	n/a	catFR1	1	R1321M
1486.079	0.0	1487394	WORD_OFF	n/a	n/a	DRESSER	Furniture	12	11	[0, 0, 0]	n/a	catFR1	1	R1321M
1486.079	0.0	1487394	ENCODING_END	n/a	n/a	n/a	n/a	-999	11	[0, 0, 0]	n/a	catFR1	1	R1321M
1486.079	0.001	1487394	DISTRACT_START	n/a	n/a	n/a	n/a	-999	11	[0, 0, 0]	n/a	catFR1	1	R1321M
1486.08	0.015	1487395	START	n/a	n/a	n/a	n/a	-999	11	[-999, -999, -999]	n/a	catFR1	1	R1321M
1486.095	5.384	1487410	PROB	5.351	n/a	n/a	n/a	-999	11	[3, 5, 6]	14.0	catFR1	1	R1321M
1491.479	5.934	1492794	PROB	5.909	n/a	n/a	n/a	-999	11	[9, 7, 9]	25.0	catFR1	1	R1321M
1497.413	4.017	1498728	PROB	3.991	n/a	n/a	n/a	-999	11	[1, 4, 5]	10.0	catFR1	1	R1321M
1501.43	4.552	1502744	PROB	4.527	n/a	n/a	n/a	-999	11	[5, 4, 4]	13.0	catFR1	1	R1321M
1505.982	3.983	1507296	PROB	3.983	n/a	n/a	n/a	-999	11	[2, 7, 8]	17.0	catFR1	1	R1321M
1509.965	0.018	1511279	STOP	n/a	n/a	n/a	n/a	-999	11	[-999, -999, -999]	n/a	catFR1	1	R1321M
1509.983	0.523	1511297	DISTRACT_END	n/a	n/a	n/a	n/a	-999	11	[0, 0, 0]	n/a	catFR1	1	R1321M
1510.506	1.6	1511820	RETRIEVAL_ORIENT_START	n/a	n/a	n/a	n/a	-999	11	[0, 0, 0]	n/a	catFR1	1	R1321M
1512.2	0.001	1513514	RETRIEVAL_ORIENT_END	n/a	n/a	n/a	n/a	-999	11	[0, 0, 0]	n/a	catFR1	1	R1321M
1512.201	2.165	1513515	REC_START	n/a	n/a	n/a	n/a	-999	11	[0, 0, 0]	n/a	catFR1	1	R1321M
1514.366	1.0	1515680	REC_WORD	2.165	n/a	VACUUM	Appliances	1	11	[0, 0, 0]	n/a	catFR1	1	R1321M
1515.366	2.68	1516680	REC_WORD	3.165	n/a	BLENDER	Appliances	2	11	[0, 0, 0]	n/a	catFR1	1	R1321M
1518.046	2.534	1519360	REC_WORD	5.845	n/a	DOOR	Building	3	11	[0, 0, 0]	n/a	catFR1	1	R1321M
1520.58	3.218	1521894	REC_WORD	8.379	n/a	COUCH	Furniture	5	11	[0, 0, 0]	n/a	catFR1	1	R1321M
1523.798	1.427	1525111	REC_WORD	11.597	n/a	CEILING	Building	4	11	[0, 0, 0]	n/a	catFR1	1	R1321M
1525.225	2.036	1526538	REC_WORD	13.024	n/a	SOFA	Furniture	11	11	[0, 0, 0]	n/a	catFR1	1	R1321M
1527.261	1.772	1528574	REC_WORD	15.06	n/a	OVEN	Appliances	7	11	[0, 0, 0]	n/a	catFR1	1	R1321M
1529.033	13.18	1530346	REC_WORD	16.832	n/a	MIXER	Appliances	8	11	[0, 0, 0]	n/a	catFR1	1	R1321M
1542.213	0.0	1543526	TRIAL_END	n/a	n/a	n/a	n/a	-999	11	[0, 0, 0]	n/a	catFR1	1	R1321M
1542.213	0.022	1543526	REC_END	n/a	n/a	n/a	n/a	-999	11	[0, 0, 0]	n/a	catFR1	1	R1321M
1542.235	0.0	1543548	TRIAL_START	n/a	n/a	n/a	n/a	-999	12	[0, 0, 0]	n/a	catFR1	1	R1321M
1542.235	0.0	1543548	TRIAL	n/a	n/a	n/a	n/a	-999	12	[0, 0, 0]	n/a	catFR1	1	R1321M
1542.235	4.321	1543548	WAITING_START	n/a	n/a	n/a	n/a	-999	12	[0, 0, 0]	n/a	catFR1	1	R1321M
1546.556	0.0	1547868	WAITING_END	n/a	n/a	n/a	n/a	-999	12	[0, 0, 0]	n/a	catFR1	1	R1321M
1546.556	10.0	1547868	COUNTDOWN_START	n/a	n/a	n/a	n/a	-999	12	[0, 0, 0]	n/a	catFR1	1	R1321M
1556.986	0.0	1558298	COUNTDOWN_END	n/a	n/a	n/a	n/a	-999	12	[0, 0, 0]	n/a	catFR1	1	R1321M
1556.986	1.223	1558298	ORIENT_START	n/a	n/a	n/a	n/a	-999	12	[0, 0, 0]	n/a	catFR1	1	R1321M
1558.209	0.001	1559521	ORIENT_END	n/a	n/a	n/a	n/a	-999	12	[0, 0, 0]	n/a	catFR1	1	R1321M
1558.21	0.906	1559522	ENCODING_START	n/a	n/a	n/a	n/a	-999	12	[0, 0, 0]	n/a	catFR1	1	R1321M
1559.116	1.6	1560428	WORD	n/a	wordpools/wordpool_categorized_EN.txt	TULIP	Flowers	1	12	[0, 0, 0]	n/a	catFR1	1	R1321M
1560.742	0.976	1562054	WORD_OFF	n/a	n/a	TULIP	Flowers	1	12	[0, 0, 0]	n/a	catFR1	1	R1321M
1561.718	1.6	1563030	WORD	n/a	wordpools/wordpool_categorized_EN.txt	VIOLET	Flowers	2	12	[0, 0, 0]	n/a	catFR1	1	R1321M
1563.343	1.098	1564655	WORD_OFF	n/a	n/a	VIOLET	Flowers	2	12	[0, 0, 0]	n/a	catFR1	1	R1321M
1564.441	1.6	1565753	WORD	n/a	wordpools/wordpool_categorized_EN.txt	OCEAN	Landscapes	3	12	[0, 0, 0]	n/a	catFR1	1	R1321M
1566.061	0.967	1567373	WORD_OFF	n/a	n/a	OCEAN	Landscapes	3	12	[0, 0, 0]	n/a	catFR1	1	R1321M
1567.028	1.6	1568339	WORD	n/a	wordpools/wordpool_categorized_EN.txt	STREAM	Landscapes	4	12	[0, 0, 0]	n/a	catFR1	1	R1321M
1568.66	1.014	1569971	WORD_OFF	n/a	n/a	STREAM	Landscapes	4	12	[0, 0, 0]	n/a	catFR1	1	R1321M
1569.674	1.6	1570985	WORD	n/a	wordpools/wordpool_categorized_EN.txt	SLINKY	Toys	5	12	[0, 0, 0]	n/a	catFR1	1	R1321M
1571.311	0.898	1572622	WORD_OFF	n/a	n/a	SLINKY	Toys	5	12	[0, 0, 0]	n/a	catFR1	1	R1321M
1572.209	1.6	1573520	WORD	n/a	wordpools/wordpool_categorized_EN.txt	BALL	Toys	6	12	[0, 0, 0]	n/a	catFR1	1	R1321M
1573.846	1.073	1575157	WORD_OFF	n/a	n/a	BALL	Toys	6	12	[0, 0, 0]	n/a	catFR1	1	R1321M
1574.919	1.6	1576230	WORD	n/a	wordpools/wordpool_categorized_EN.txt	FOREST	Landscapes	7	12	[0, 0, 0]	n/a	catFR1	1	R1321M
1576.545	1.049	1577856	WORD_OFF	n/a	n/a	FOREST	Landscapes	7	12	[0, 0, 0]	n/a	catFR1	1	R1321M
1577.594	1.6	1578905	WORD	n/a	wordpools/wordpool_categorized_EN.txt	MOUNTAIN	Landscapes	8	12	[0, 0, 0]	n/a	catFR1	1	R1321M
1579.23	0.98	1580541	WORD_OFF	n/a	n/a	MOUNTAIN	Landscapes	8	12	[0, 0, 0]	n/a	catFR1	1	R1321M
1580.21	1.6	1581521	WORD	n/a	wordpools/wordpool_categorized_EN.txt	PETUNIA	Flowers	9	12	[0, 0, 0]	n/a	catFR1	1	R1321M
1581.847	0.872	1583158	WORD_OFF	n/a	n/a	PETUNIA	Flowers	9	12	[0, 0, 0]	n/a	catFR1	1	R1321M
1582.719	1.6	1584030	WORD	n/a	wordpools/wordpool_categorized_EN.txt	SUNFLOWER	Flowers	10	12	[0, 0, 0]	n/a	catFR1	1	R1321M
1584.347	0.941	1585658	WORD_OFF	n/a	n/a	SUNFLOWER	Flowers	10	12	[0, 0, 0]	n/a	catFR1	1	R1321M
1585.288	1.6	1586599	WORD	n/a	wordpools/wordpool_categorized_EN.txt	BARBIE	Toys	11	12	[0, 0, 0]	n/a	catFR1	1	R1321M
1586.898	1.055	1588209	WORD_OFF	n/a	n/a	BARBIE	Toys	11	12	[0, 0, 0]	n/a	catFR1	1	R1321M
1587.953	1.6	1589263	WORD	n/a	wordpools/wordpool_categorized_EN.txt	MARBLES	Toys	12	12	[0, 0, 0]	n/a	catFR1	1	R1321M
1589.581	0.0	1590891	WORD_OFF	n/a	n/a	MARBLES	Toys	12	12	[0, 0, 0]	n/a	catFR1	1	R1321M
1589.581	0.001	1590891	ENCODING_END	n/a	n/a	n/a	n/a	-999	12	[0, 0, 0]	n/a	catFR1	1	R1321M
1589.582	0.0	1590892	DISTRACT_START	n/a	n/a	n/a	n/a	-999	12	[0, 0, 0]	n/a	catFR1	1	R1321M
1589.582	0.016	1590892	START	n/a	n/a	n/a	n/a	-999	12	[-999, -999, -999]	n/a	catFR1	1	R1321M
1589.598	4.134	1590908	PROB	4.102	n/a	n/a	n/a	-999	12	[7, 8, 2]	17.0	catFR1	1	R1321M
1593.732	3.734	1595042	PROB	3.704	n/a	n/a	n/a	-999	12	[1, 7, 7]	15.0	catFR1	1	R1321M
1597.466	3.601	1598776	PROB	3.563	n/a	n/a	n/a	-999	12	[9, 6, 2]	17.0	catFR1	1	R1321M
1601.067	4.3	1602377	PROB	4.265	n/a	n/a	n/a	-999	12	[9, 7, 8]	24.0	catFR1	1	R1321M
1605.367	3.984	1606677	PROB	3.949	n/a	n/a	n/a	-999	12	[7, 4, 2]	13.0	catFR1	1	R1321M
1609.351	4.31	1610661	PROB	4.31	n/a	n/a	n/a	-999	12	[3, 2, 4]	9.0	catFR1	1	R1321M
1613.661	0.008	1614970	STOP	n/a	n/a	n/a	n/a	-999	12	[-999, -999, -999]	n/a	catFR1	1	R1321M
1613.669	0.623	1614978	DISTRACT_END	n/a	n/a	n/a	n/a	-999	12	[0, 0, 0]	n/a	catFR1	1	R1321M
1614.292	1.6	1615601	RETRIEVAL_ORIENT_START	n/a	n/a	n/a	n/a	-999	12	[0, 0, 0]	n/a	catFR1	1	R1321M
1615.887	0.0	1617196	REC_START	n/a	n/a	n/a	n/a	-999	12	[0, 0, 0]	n/a	catFR1	1	R1321M
1615.887	2.287	1617196	RETRIEVAL_ORIENT_END	n/a	n/a	n/a	n/a	-999	12	[0, 0, 0]	n/a	catFR1	1	R1321M
1618.174	0.823	1619483	REC_WORD	2.287	n/a	BARBIE	Toys	11	12	[0, 0, 0]	n/a	catFR1	1	R1321M
1618.997	20.474	1620306	REC_WORD	3.11	n/a	MARBLES	Toys	12	12	[0, 0, 0]	n/a	catFR1	1	R1321M
1639.471	0.765	1640779	REC_WORD	23.584	n/a	OCEAN	Landscapes	3	12	[0, 0, 0]	n/a	catFR1	1	R1321M
1640.236	1.572	1641544	REC_WORD	24.349	n/a	CREEK	n/a	-999	12	[0, 0, 0]	n/a	catFR1	1	R1321M
1641.808	4.09	1643116	REC_WORD	25.921	n/a	FOREST	Landscapes	7	12	[0, 0, 0]	n/a	catFR1	1	R1321M
1645.898	0.0	1647206	REC_END	n/a	n/a	n/a	n/a	-999	12	[0, 0, 0]	n/a	catFR1	1	R1321M
1645.898	0.026	1647206	TRIAL_END	n/a	n/a	n/a	n/a	-999	12	[0, 0, 0]	n/a	catFR1	1	R1321M
1645.924	0.0	1647232	TRIAL	n/a	n/a	n/a	n/a	-999	13	[0, 0, 0]	n/a	catFR1	1	R1321M
1645.924	0.0	1647232	WAITING_START	n/a	n/a	n/a	n/a	-999	13	[0, 0, 0]	n/a	catFR1	1	R1321M
1645.924	20.472	1647232	TRIAL_START	n/a	n/a	n/a	n/a	-999	13	[0, 0, 0]	n/a	catFR1	1	R1321M
1666.396	0.0	1667703	WAITING_END	n/a	n/a	n/a	n/a	-999	13	[0, 0, 0]	n/a	catFR1	1	R1321M
1666.396	10.0	1667703	COUNTDOWN_START	n/a	n/a	n/a	n/a	-999	13	[0, 0, 0]	n/a	catFR1	1	R1321M
1676.826	0.0	1678132	COUNTDOWN_END	n/a	n/a	n/a	n/a	-999	13	[0, 0, 0]	n/a	catFR1	1	R1321M
1676.826	1.09	1678132	ORIENT_START	n/a	n/a	n/a	n/a	-999	13	[0, 0, 0]	n/a	catFR1	1	R1321M
1677.916	0.0	1679222	ORIENT_END	n/a	n/a	n/a	n/a	-999	13	[0, 0, 0]	n/a	catFR1	1	R1321M
1677.916	1.014	1679222	ENCODING_START	n/a	n/a	n/a	n/a	-999	13	[0, 0, 0]	n/a	catFR1	1	R1321M
1678.93	1.6	1680236	WORD	n/a	wordpools/wordpool_categorized_EN.txt	SOCKS	Clothing	1	13	[0, 0, 0]	n/a	catFR1	1	R1321M
1680.565	0.768	1681871	WORD_OFF	n/a	n/a	SOCKS	Clothing	1	13	[0, 0, 0]	n/a	catFR1	1	R1321M
1681.333	1.6	1682639	WORD	n/a	wordpools/wordpool_categorized_EN.txt	BLOUSE	Clothing	2	13	[0, 0, 0]	n/a	catFR1	1	R1321M
1682.967	0.804	1684273	WORD_OFF	n/a	n/a	BLOUSE	Clothing	2	13	[0, 0, 0]	n/a	catFR1	1	R1321M
1683.771	1.6	1685077	WORD	n/a	wordpools/wordpool_categorized_EN.txt	ROOSTER	FarmAnimals	3	13	[0, 0, 0]	n/a	catFR1	1	R1321M
1685.4	0.985	1686706	WORD_OFF	n/a	n/a	ROOSTER	FarmAnimals	3	13	[0, 0, 0]	n/a	catFR1	1	R1321M
1686.385	1.6	1687691	WORD	n/a	wordpools/wordpool_categorized_EN.txt	HEN	FarmAnimals	4	13	[0, 0, 0]	n/a	catFR1	1	R1321M
1688.018	0.753	1689324	WORD_OFF	n/a	n/a	HEN	FarmAnimals	4	13	[0, 0, 0]	n/a	catFR1	1	R1321M
1688.771	1.6	1690077	WORD	n/a	wordpools/wordpool_categorized_EN.txt	PENCIL	OfficeSupplies	5	13	[0, 0, 0]	n/a	catFR1	1	R1321M
1690.401	0.794	1691707	WORD_OFF	n/a	n/a	PENCIL	OfficeSupplies	5	13	[0, 0, 0]	n/a	catFR1	1	R1321M
1691.195	1.6	1692501	WORD	n/a	wordpools/wordpool_categorized_EN.txt	PEN	OfficeSupplies	6	13	[0, 0, 0]	n/a	catFR1	1	R1321M
1692.819	1.012	1694125	WORD_OFF	n/a	n/a	PEN	OfficeSupplies	6	13	[0, 0, 0]	n/a	catFR1	1	R1321M
1693.831	1.6	1695137	WORD	n/a	wordpools/wordpool_categorized_EN.txt	CHICKEN	FarmAnimals	7	13	[0, 0, 0]	n/a	catFR1	1	R1321M
1695.468	0.752	1696774	WORD_OFF	n/a	n/a	CHICKEN	FarmAnimals	7	13	[0, 0, 0]	n/a	catFR1	1	R1321M
1696.22	1.6	1697526	WORD	n/a	wordpools/wordpool_categorized_EN.txt	LAMB	FarmAnimals	8	13	[0, 0, 0]	n/a	catFR1	1	R1321M
1697.853	0.979	1699158	WORD_OFF	n/a	n/a	LAMB	FarmAnimals	8	13	[0, 0, 0]	n/a	catFR1	1	R1321M
1698.832	1.6	1700137	WORD	n/a	wordpools/wordpool_categorized_EN.txt	PANTS	Clothing	9	13	[0, 0, 0]	n/a	catFR1	1	R1321M
1700.453	0.906	1701758	WORD_OFF	n/a	n/a	PANTS	Clothing	9	13	[0, 0, 0]	n/a	catFR1	1	R1321M
1701.359	1.6	1702664	WORD	n/a	wordpools/wordpool_categorized_EN.txt	JACKET	Clothing	10	13	[0, 0, 0]	n/a	catFR1	1	R1321M
1702.97	0.884	1704275	WORD_OFF	n/a	n/a	JACKET	Clothing	10	13	[0, 0, 0]	n/a	catFR1	1	R1321M
1703.854	1.6	1705159	WORD	n/a	wordpools/wordpool_categorized_EN.txt	GLUE	OfficeSupplies	11	13	[0, 0, 0]	n/a	catFR1	1	R1321M
1705.487	1.145	1706792	WORD_OFF	n/a	n/a	GLUE	OfficeSupplies	11	13	[0, 0, 0]	n/a	catFR1	1	R1321M
1706.632	1.6	1707937	WORD	n/a	wordpools/wordpool_categorized_EN.txt	BINDER	OfficeSupplies	12	13	[0, 0, 0]	n/a	catFR1	1	R1321M
1708.254	0.001	1709559	WORD_OFF	n/a	n/a	BINDER	OfficeSupplies	12	13	[0, 0, 0]	n/a	catFR1	1	R1321M
1708.255	0.0	1709560	ENCODING_END	n/a	n/a	n/a	n/a	-999	13	[0, 0, 0]	n/a	catFR1	1	R1321M
1708.255	0.0	1709560	DISTRACT_START	n/a	n/a	n/a	n/a	-999	13	[0, 0, 0]	n/a	catFR1	1	R1321M
1708.255	0.016	1709560	START	n/a	n/a	n/a	n/a	-999	13	[-999, -999, -999]	n/a	catFR1	1	R1321M
1708.271	3.535	1709576	PROB	3.509	n/a	n/a	n/a	-999	13	[1, 5, 5]	11.0	catFR1	1	R1321M
1711.806	4.533	1713111	PROB	4.508	n/a	n/a	n/a	-999	13	[6, 8, 4]	18.0	catFR1	1	R1321M
1716.339	4.468	1717644	PROB	4.44	n/a	n/a	n/a	-999	13	[4, 7, 5]	16.0	catFR1	1	R1321M
1720.807	4.467	1722111	PROB	4.436	n/a	n/a	n/a	-999	13	[4, 3, 9]	16.0	catFR1	1	R1321M
1725.274	5.841	1726578	PROB	5.841	n/a	n/a	n/a	-999	13	[3, 8, 5]	16.0	catFR1	1	R1321M
1731.115	0.011	1732419	STOP	n/a	n/a	n/a	n/a	-999	13	[-999, -999, -999]	n/a	catFR1	1	R1321M
1731.126	0.557	1732430	DISTRACT_END	n/a	n/a	n/a	n/a	-999	13	[0, 0, 0]	n/a	catFR1	1	R1321M
1731.683	1.6	1732987	RETRIEVAL_ORIENT_START	n/a	n/a	n/a	n/a	-999	13	[0, 0, 0]	n/a	catFR1	1	R1321M
1733.326	0.0	1734630	RETRIEVAL_ORIENT_END	n/a	n/a	n/a	n/a	-999	13	[0, 0, 0]	n/a	catFR1	1	R1321M
1733.326	0.738	1734630	REC_START	n/a	n/a	n/a	n/a	-999	13	[0, 0, 0]	n/a	catFR1	1	R1321M
1734.064	1.048	1735368	REC_WORD	0.738	n/a	SOCKS	Clothing	1	13	[0, 0, 0]	n/a	catFR1	1	R1321M
1735.112	0.892	1736416	REC_WORD	1.786	n/a	BLOUSE	Clothing	2	13	[0, 0, 0]	n/a	catFR1	1	R1321M
1736.004	0.705	1737308	REC_WORD	2.678	n/a	PANTS	Clothing	9	13	[0, 0, 0]	n/a	catFR1	1	R1321M
1736.709	7.049	1738013	REC_WORD	3.383	n/a	JACKET	Clothing	10	13	[0, 0, 0]	n/a	catFR1	1	R1321M
1743.758	0.412	1745061	REC_WORD	10.432	n/a	PEN	OfficeSupplies	6	13	[0, 0, 0]	n/a	catFR1	1	R1321M
1744.17	1.317	1745473	REC_WORD	10.844	n/a	PENCIL	OfficeSupplies	5	13	[0, 0, 0]	n/a	catFR1	1	R1321M
1745.487	1.416	1746790	REC_WORD	12.161	n/a	GLUE	OfficeSupplies	11	13	[0, 0, 0]	n/a	catFR1	1	R1321M
1746.903	16.434	1748206	REC_WORD	13.577	n/a	BINDER	OfficeSupplies	12	13	[0, 0, 0]	n/a	catFR1	1	R1321M
1763.337	0.001	1764639	REC_END	n/a	n/a	n/a	n/a	-999	13	[0, 0, 0]	n/a	catFR1	1	R1321M
1763.338	0.024	1764640	TRIAL_END	n/a	n/a	n/a	n/a	-999	13	[0, 0, 0]	n/a	catFR1	1	R1321M
1763.362	0.001	1764664	TRIAL_START	n/a	n/a	n/a	n/a	-999	14	[0, 0, 0]	n/a	catFR1	1	R1321M
1763.363	0.0	1764665	TRIAL	n/a	n/a	n/a	n/a	-999	14	[0, 0, 0]	n/a	catFR1	1	R1321M
1763.363	11.021	1764665	WAITING_START	n/a	n/a	n/a	n/a	-999	14	[0, 0, 0]	n/a	catFR1	1	R1321M
1774.384	10.0	1775686	COUNTDOWN_START	n/a	n/a	n/a	n/a	-999	14	[0, 0, 0]	n/a	catFR1	1	R1321M
1774.384	10.429	1775686	WAITING_END	n/a	n/a	n/a	n/a	-999	14	[0, 0, 0]	n/a	catFR1	1	R1321M
1784.813	0.0	1786114	COUNTDOWN_END	n/a	n/a	n/a	n/a	-999	14	[0, 0, 0]	n/a	catFR1	1	R1321M
1784.813	1.14	1786114	ORIENT_START	n/a	n/a	n/a	n/a	-999	14	[0, 0, 0]	n/a	catFR1	1	R1321M
1785.953	0.001	1787254	ORIENT_END	n/a	n/a	n/a	n/a	-999	14	[0, 0, 0]	n/a	catFR1	1	R1321M
1785.954	0.781	1787255	ENCODING_START	n/a	n/a	n/a	n/a	-999	14	[0, 0, 0]	n/a	catFR1	1	R1321M
1786.735	1.6	1788036	WORD	n/a	wordpools/wordpool_categorized_EN.txt	WINE	Beverages	1	14	[0, 0, 0]	n/a	catFR1	1	R1321M
1788.37	1.011	1789671	WORD_OFF	n/a	n/a	WINE	Beverages	1	14	[0, 0, 0]	n/a	catFR1	1	R1321M
1789.381	1.6	1790682	WORD	n/a	wordpools/wordpool_categorized_EN.txt	MILK	Beverages	2	14	[0, 0, 0]	n/a	catFR1	1	R1321M
1791.004	0.893	1792305	WORD_OFF	n/a	n/a	MILK	Beverages	2	14	[0, 0, 0]	n/a	catFR1	1	R1321M
1791.897	1.6	1793198	WORD	n/a	wordpools/wordpool_categorized_EN.txt	PASTRY	Desserts	3	14	[0, 0, 0]	n/a	catFR1	1	R1321M
1793.521	1.141	1794822	WORD_OFF	n/a	n/a	PASTRY	Desserts	3	14	[0, 0, 0]	n/a	catFR1	1	R1321M
1794.662	1.6	1795963	WORD	n/a	wordpools/wordpool_categorized_EN.txt	JELLO	Desserts	4	14	[0, 0, 0]	n/a	catFR1	1	R1321M
1796.288	1.083	1797589	WORD_OFF	n/a	n/a	JELLO	Desserts	4	14	[0, 0, 0]	n/a	catFR1	1	R1321M
1797.371	1.6	1798672	WORD	n/a	wordpools/wordpool_categorized_EN.txt	CORN	Vegetables	5	14	[0, 0, 0]	n/a	catFR1	1	R1321M
1799.006	1.029	1800307	WORD_OFF	n/a	n/a	CORN	Vegetables	5	14	[0, 0, 0]	n/a	catFR1	1	R1321M
1800.035	1.6	1801336	WORD	n/a	wordpools/wordpool_categorized_EN.txt	POTATO	Vegetables	6	14	[0, 0, 0]	n/a	catFR1	1	R1321M
1801.656	1.093	1802957	WORD_OFF	n/a	n/a	POTATO	Vegetables	6	14	[0, 0, 0]	n/a	catFR1	1	R1321M
1802.749	1.6	1804050	WORD	n/a	wordpools/wordpool_categorized_EN.txt	PIE	Desserts	7	14	[0, 0, 0]	n/a	catFR1	1	R1321M
1804.373	0.827	1805674	WORD_OFF	n/a	n/a	PIE	Desserts	7	14	[0, 0, 0]	n/a	catFR1	1	R1321M
1805.2	1.6	1806501	WORD	n/a	wordpools/wordpool_categorized_EN.txt	CAKE	Desserts	8	14	[0, 0, 0]	n/a	catFR1	1	R1321M
1806.824	1.07	1808124	WORD_OFF	n/a	n/a	CAKE	Desserts	8	14	[0, 0, 0]	n/a	catFR1	1	R1321M
1807.894	1.6	1809194	WORD	n/a	wordpools/wordpool_categorized_EN.txt	CELERY	Vegetables	9	14	[0, 0, 0]	n/a	catFR1	1	R1321M
1809.524	1.072	1810824	WORD_OFF	n/a	n/a	CELERY	Vegetables	9	14	[0, 0, 0]	n/a	catFR1	1	R1321M
1810.596	1.6	1811896	WORD	n/a	wordpools/wordpool_categorized_EN.txt	CARROT	Vegetables	10	14	[0, 0, 0]	n/a	catFR1	1	R1321M
1812.208	0.949	1813508	WORD_OFF	n/a	n/a	CARROT	Vegetables	10	14	[0, 0, 0]	n/a	catFR1	1	R1321M
1813.157	1.6	1814457	WORD	n/a	wordpools/wordpool_categorized_EN.txt	LEMONADE	Beverages	11	14	[0, 0, 0]	n/a	catFR1	1	R1321M
1814.792	0.841	1816092	WORD_OFF	n/a	n/a	LEMONADE	Beverages	11	14	[0, 0, 0]	n/a	catFR1	1	R1321M
1815.633	1.6	1816933	WORD	n/a	wordpools/wordpool_categorized_EN.txt	WATER	Beverages	12	14	[0, 0, 0]	n/a	catFR1	1	R1321M
1817.259	0.0	1818559	DISTRACT_START	n/a	n/a	n/a	n/a	-999	14	[0, 0, 0]	n/a	catFR1	1	R1321M
1817.259	0.0	1818559	ENCODING_END	n/a	n/a	n/a	n/a	-999	14	[0, 0, 0]	n/a	catFR1	1	R1321M
1817.259	0.001	1818559	WORD_OFF	n/a	n/a	WATER	Beverages	12	14	[0, 0, 0]	n/a	catFR1	1	R1321M
1817.26	0.015	1818560	START	n/a	n/a	n/a	n/a	-999	14	[-999, -999, -999]	n/a	catFR1	1	R1321M
1817.275	5.134	1818575	PROB	5.106	n/a	n/a	n/a	-999	14	[3, 7, 5]	15.0	catFR1	1	R1321M
1822.409	4.935	1823709	PROB	4.908	n/a	n/a	n/a	-999	14	[7, 6, 5]	18.0	catFR1	1	R1321M
1827.344	3.668	1828643	PROB	3.638	n/a	n/a	n/a	-999	14	[8, 6, 1]	15.0	catFR1	1	R1321M
1831.012	3.483	1832311	PROB	3.449	n/a	n/a	n/a	-999	14	[9, 5, 1]	15.0	catFR1	1	R1321M
1834.495	4.062	1835794	PROB	4.062	n/a	n/a	n/a	-999	14	[3, 4, 8]	15.0	catFR1	1	R1321M
1838.557	0.022	1839856	STOP	n/a	n/a	n/a	n/a	-999	14	[-999, -999, -999]	n/a	catFR1	1	R1321M
1838.579	0.661	1839878	DISTRACT_END	n/a	n/a	n/a	n/a	-999	14	[0, 0, 0]	n/a	catFR1	1	R1321M
1839.24	1.6	1840539	RETRIEVAL_ORIENT_START	n/a	n/a	n/a	n/a	-999	14	[0, 0, 0]	n/a	catFR1	1	R1321M
1840.914	0.0	1842213	RETRIEVAL_ORIENT_END	n/a	n/a	n/a	n/a	-999	14	[0, 0, 0]	n/a	catFR1	1	R1321M
1840.914	1.867	1842213	REC_START	n/a	n/a	n/a	n/a	-999	14	[0, 0, 0]	n/a	catFR1	1	R1321M
1842.781	1.028	1844080	REC_WORD	1.867	n/a	LEMONADE	Beverages	11	14	[0, 0, 0]	n/a	catFR1	1	R1321M
1843.809	0.656	1845108	REC_WORD	2.895	n/a	CELERY	Vegetables	9	14	[0, 0, 0]	n/a	catFR1	1	R1321M
1844.465	2.193	1845764	REC_WORD	3.551	n/a	CARROT	Vegetables	10	14	[0, 0, 0]	n/a	catFR1	1	R1321M
1846.658	7.042	1847957	REC_WORD	5.744	n/a	CARROT	Vegetables	10	14	[0, 0, 0]	n/a	catFR1	1	R1321M
1853.7	0.761	1854998	REC_WORD	12.786	n/a	WINE	Beverages	1	14	[0, 0, 0]	n/a	catFR1	1	R1321M
1854.461	2.028	1855759	REC_WORD	13.547	n/a	MILK	Beverages	2	14	[0, 0, 0]	n/a	catFR1	1	R1321M
1856.489	14.438	1857787	REC_WORD	15.575	n/a	TEA	Beverages	-999	14	[0, 0, 0]	n/a	catFR1	1	R1321M
1870.927	0.001	1872224	REC_END	n/a	n/a	n/a	n/a	-999	14	[0, 0, 0]	n/a	catFR1	1	R1321M
1870.928	0.022	1872225	TRIAL_END	n/a	n/a	n/a	n/a	-999	14	[0, 0, 0]	n/a	catFR1	1	R1321M
1870.95	0.0	1872247	TRIAL_START	n/a	n/a	n/a	n/a	-999	15	[0, 0, 0]	n/a	catFR1	1	R1321M
1870.95	0.0	1872247	TRIAL	n/a	n/a	n/a	n/a	-999	15	[0, 0, 0]	n/a	catFR1	1	R1321M
1870.95	11.172	1872247	WAITING_START	n/a	n/a	n/a	n/a	-999	15	[0, 0, 0]	n/a	catFR1	1	R1321M
1882.122	0.0	1883419	WAITING_END	n/a	n/a	n/a	n/a	-999	15	[0, 0, 0]	n/a	catFR1	1	R1321M
1882.122	10.0	1883419	COUNTDOWN_START	n/a	n/a	n/a	n/a	-999	15	[0, 0, 0]	n/a	catFR1	1	R1321M
1892.552	0.0	1893848	ORIENT_START	n/a	n/a	n/a	n/a	-999	15	[0, 0, 0]	n/a	catFR1	1	R1321M
1892.552	1.239	1893848	COUNTDOWN_END	n/a	n/a	n/a	n/a	-999	15	[0, 0, 0]	n/a	catFR1	1	R1321M
1893.791	0.0	1895087	ORIENT_END	n/a	n/a	n/a	n/a	-999	15	[0, 0, 0]	n/a	catFR1	1	R1321M
1893.791	0.902	1895087	ENCODING_START	n/a	n/a	n/a	n/a	-999	15	[0, 0, 0]	n/a	catFR1	1	R1321M
1894.693	1.6	1895989	WORD	n/a	wordpools/wordpool_categorized_EN.txt	UNDERWEAR	Clothing	1	15	[0, 0, 0]	n/a	catFR1	1	R1321M
1896.324	1.058	1897620	WORD_OFF	n/a	n/a	UNDERWEAR	Clothing	1	15	[0, 0, 0]	n/a	catFR1	1	R1321M
1897.382	1.6	1898678	WORD	n/a	wordpools/wordpool_categorized_EN.txt	SKIRT	Clothing	2	15	[0, 0, 0]	n/a	catFR1	1	R1321M
1898.992	1.085	1900288	WORD_OFF	n/a	n/a	SKIRT	Clothing	2	15	[0, 0, 0]	n/a	catFR1	1	R1321M
1900.077	1.6	1901373	WORD	n/a	wordpools/wordpool_categorized_EN.txt	BEETLE	Insects	3	15	[0, 0, 0]	n/a	catFR1	1	R1321M
1901.708	0.942	1903004	WORD_OFF	n/a	n/a	BEETLE	Insects	3	15	[0, 0, 0]	n/a	catFR1	1	R1321M
1902.65	1.6	1903946	WORD	n/a	wordpools/wordpool_categorized_EN.txt	BUTTERFLY	Insects	4	15	[0, 0, 0]	n/a	catFR1	1	R1321M
1904.275	1.061	1905571	WORD_OFF	n/a	n/a	BUTTERFLY	Insects	4	15	[0, 0, 0]	n/a	catFR1	1	R1321M
1905.336	1.6	1906632	WORD	n/a	wordpools/wordpool_categorized_EN.txt	WOODS	Landscapes	5	15	[0, 0, 0]	n/a	catFR1	1	R1321M
1906.96	0.985	1908256	WORD_OFF	n/a	n/a	WOODS	Landscapes	5	15	[0, 0, 0]	n/a	catFR1	1	R1321M
1907.945	1.6	1909241	WORD	n/a	wordpools/wordpool_categorized_EN.txt	BEACH	Landscapes	6	15	[0, 0, 0]	n/a	catFR1	1	R1321M
1909.576	0.828	1910872	WORD_OFF	n/a	n/a	BEACH	Landscapes	6	15	[0, 0, 0]	n/a	catFR1	1	R1321M
1910.404	1.6	1911700	WORD	n/a	wordpools/wordpool_categorized_EN.txt	SHORTS	Clothing	7	15	[0, 0, 0]	n/a	catFR1	1	R1321M
1912.028	1.043	1913324	WORD_OFF	n/a	n/a	SHORTS	Clothing	7	15	[0, 0, 0]	n/a	catFR1	1	R1321M
1913.071	1.6	1914367	WORD	n/a	wordpools/wordpool_categorized_EN.txt	JEANS	Clothing	8	15	[0, 0, 0]	n/a	catFR1	1	R1321M
1914.694	1.02	1915989	WORD_OFF	n/a	n/a	JEANS	Clothing	8	15	[0, 0, 0]	n/a	catFR1	1	R1321M
1915.714	1.6	1917009	WORD	n/a	wordpools/wordpool_categorized_EN.txt	GNAT	Insects	9	15	[0, 0, 0]	n/a	catFR1	1	R1321M
1917.344	0.966	1918639	WORD_OFF	n/a	n/a	GNAT	Insects	9	15	[0, 0, 0]	n/a	catFR1	1	R1321M
1918.31	1.6	1919605	WORD	n/a	wordpools/wordpool_categorized_EN.txt	MOSQUITO	Insects	10	15	[0, 0, 0]	n/a	catFR1	1	R1321M
1919.946	0.968	1921241	WORD_OFF	n/a	n/a	MOSQUITO	Insects	10	15	[0, 0, 0]	n/a	catFR1	1	R1321M
1920.914	1.6	1922209	WORD	n/a	wordpools/wordpool_categorized_EN.txt	LAKE	Landscapes	11	15	[0, 0, 0]	n/a	catFR1	1	R1321M
1922.546	1.06	1923841	WORD_OFF	n/a	n/a	LAKE	Landscapes	11	15	[0, 0, 0]	n/a	catFR1	1	R1321M
1923.606	1.6	1924901	WORD	n/a	wordpools/wordpool_categorized_EN.txt	VALLEY	Landscapes	12	15	[0, 0, 0]	n/a	catFR1	1	R1321M
1925.213	0.001	1926508	WORD_OFF	n/a	n/a	VALLEY	Landscapes	12	15	[0, 0, 0]	n/a	catFR1	1	R1321M
1925.214	0.0	1926509	ENCODING_END	n/a	n/a	n/a	n/a	-999	15	[0, 0, 0]	n/a	catFR1	1	R1321M
1925.214	0.0	1926509	DISTRACT_START	n/a	n/a	n/a	n/a	-999	15	[0, 0, 0]	n/a	catFR1	1	R1321M
1925.214	0.016	1926509	START	n/a	n/a	n/a	n/a	-999	15	[-999, -999, -999]	n/a	catFR1	1	R1321M
1925.23	3.701	1926525	PROB	3.676	n/a	n/a	n/a	-999	15	[1, 9, 1]	11.0	catFR1	1	R1321M
1928.931	6.7	1930226	PROB	6.672	n/a	n/a	n/a	-999	15	[9, 7, 2]	18.0	catFR1	1	R1321M
1935.631	4.302	1936926	PROB	4.269	n/a	n/a	n/a	-999	15	[9, 1, 1]	11.0	catFR1	1	R1321M
1939.933	5.201	1941227	PROB	5.17	n/a	n/a	n/a	-999	15	[2, 3, 9]	14.0	catFR1	1	R1321M
1945.134	5.352	1946428	PROB	5.352	n/a	n/a	n/a	-999	15	[1, 4, 7]	12.0	catFR1	1	R1321M
1950.486	0.015	1951780	STOP	n/a	n/a	n/a	n/a	-999	15	[-999, -999, -999]	n/a	catFR1	1	R1321M
1950.501	0.64	1951795	DISTRACT_END	n/a	n/a	n/a	n/a	-999	15	[0, 0, 0]	n/a	catFR1	1	R1321M
1951.141	1.6	1952435	RETRIEVAL_ORIENT_START	n/a	n/a	n/a	n/a	-999	15	[0, 0, 0]	n/a	catFR1	1	R1321M
1952.685	0.0	1953979	RETRIEVAL_ORIENT_END	n/a	n/a	n/a	n/a	-999	15	[0, 0, 0]	n/a	catFR1	1	R1321M
1952.685	2.112	1953979	REC_START	n/a	n/a	n/a	n/a	-999	15	[0, 0, 0]	n/a	catFR1	1	R1321M
1954.797	1.085	1956091	REC_WORD	2.112	n/a	SKIRT	Clothing	2	15	[0, 0, 0]	n/a	catFR1	1	R1321M
1955.882	1.489	1957176	REC_WORD	3.197	n/a	JEANS	Clothing	8	15	[0, 0, 0]	n/a	catFR1	1	R1321M
1957.371	1.317	1958665	REC_WORD	4.686	n/a	BUTTERFLY	Insects	4	15	[0, 0, 0]	n/a	catFR1	1	R1321M
1958.688	1.473	1959981	REC_WORD	6.003	n/a	MOSQUITO	Insects	10	15	[0, 0, 0]	n/a	catFR1	1	R1321M
1960.161	3.444	1961454	REC_WORD	7.476	n/a	GNAT	Insects	9	15	[0, 0, 0]	n/a	catFR1	1	R1321M
1963.605	1.297	1964898	REC_WORD	10.92	n/a	BEACH	Landscapes	6	15	[0, 0, 0]	n/a	catFR1	1	R1321M
1964.902	6.916	1966195	REC_WORD	12.217	n/a	WOODS	Landscapes	5	15	[0, 0, 0]	n/a	catFR1	1	R1321M
1971.818	10.878	1973111	REC_WORD	19.133	n/a	FOREST	Landscapes	-999	15	[0, 0, 0]	n/a	catFR1	1	R1321M
1982.696	0.0	1983988	REC_END	n/a	n/a	n/a	n/a	-999	15	[0, 0, 0]	n/a	catFR1	1	R1321M
1982.696	0.025	1983988	TRIAL_END	n/a	n/a	n/a	n/a	-999	15	[0, 0, 0]	n/a	catFR1	1	R1321M
1982.721	0.0	1984013	TRIAL_START	n/a	n/a	n/a	n/a	-999	16	[0, 0, 0]	n/a	catFR1	1	R1321M
1982.721	0.0	1984013	TRIAL	n/a	n/a	n/a	n/a	-999	16	[0, 0, 0]	n/a	catFR1	1	R1321M
1982.721	4.305	1984013	WAITING_START	n/a	n/a	n/a	n/a	-999	16	[0, 0, 0]	n/a	catFR1	1	R1321M
1987.026	0.0	1988318	WAITING_END	n/a	n/a	n/a	n/a	-999	16	[0, 0, 0]	n/a	catFR1	1	R1321M
1987.026	10.0	1988318	COUNTDOWN_START	n/a	n/a	n/a	n/a	-999	16	[0, 0, 0]	n/a	catFR1	1	R1321M
1997.454	0.0	1998746	ORIENT_START	n/a	n/a	n/a	n/a	-999	16	[0, 0, 0]	n/a	catFR1	1	R1321M
1997.454	1.223	1998746	COUNTDOWN_END	n/a	n/a	n/a	n/a	-999	16	[0, 0, 0]	n/a	catFR1	1	R1321M
1998.677	0.0	1999969	ORIENT_END	n/a	n/a	n/a	n/a	-999	16	[0, 0, 0]	n/a	catFR1	1	R1321M
1998.677	0.892	1999969	ENCODING_START	n/a	n/a	n/a	n/a	-999	16	[0, 0, 0]	n/a	catFR1	1	R1321M
1999.569	1.6	2000861	WORD	n/a	wordpools/wordpool_categorized_EN.txt	BEE	Insects	1	16	[0, 0, 0]	n/a	catFR1	1	R1321M
2001.195	1.083	2002487	WORD_OFF	n/a	n/a	BEE	Insects	1	16	[0, 0, 0]	n/a	catFR1	1	R1321M
2002.278	1.6	2003569	WORD	n/a	wordpools/wordpool_categorized_EN.txt	MOTH	Insects	2	16	[0, 0, 0]	n/a	catFR1	1	R1321M
2003.912	1.11	2005203	WORD_OFF	n/a	n/a	MOTH	Insects	2	16	[0, 0, 0]	n/a	catFR1	1	R1321M
2005.022	1.6	2006313	WORD	n/a	wordpools/wordpool_categorized_EN.txt	RULER	OfficeSupplies	3	16	[0, 0, 0]	n/a	catFR1	1	R1321M
2006.645	0.826	2007936	WORD_OFF	n/a	n/a	RULER	OfficeSupplies	3	16	[0, 0, 0]	n/a	catFR1	1	R1321M
2007.471	1.6	2008762	WORD	n/a	wordpools/wordpool_categorized_EN.txt	MARKER	OfficeSupplies	4	16	[0, 0, 0]	n/a	catFR1	1	R1321M
2009.08	1.136	2010371	WORD_OFF	n/a	n/a	MARKER	OfficeSupplies	4	16	[0, 0, 0]	n/a	catFR1	1	R1321M
2010.216	1.6	2011507	WORD	n/a	wordpools/wordpool_categorized_EN.txt	TRAIN	Vehicles	5	16	[0, 0, 0]	n/a	catFR1	1	R1321M
2011.847	0.997	2013138	WORD_OFF	n/a	n/a	TRAIN	Vehicles	5	16	[0, 0, 0]	n/a	catFR1	1	R1321M
2012.844	1.6	2014135	WORD	n/a	wordpools/wordpool_categorized_EN.txt	BIKE	Vehicles	6	16	[0, 0, 0]	n/a	catFR1	1	R1321M
2014.48	0.848	2015771	WORD_OFF	n/a	n/a	BIKE	Vehicles	6	16	[0, 0, 0]	n/a	catFR1	1	R1321M
2015.328	1.6	2016619	WORD	n/a	wordpools/wordpool_categorized_EN.txt	CRICKET	Insects	7	16	[0, 0, 0]	n/a	catFR1	1	R1321M
2016.965	0.935	2018256	WORD_OFF	n/a	n/a	CRICKET	Insects	7	16	[0, 0, 0]	n/a	catFR1	1	R1321M
2017.9	1.6	2019191	WORD	n/a	wordpools/wordpool_categorized_EN.txt	LADYBUG	Insects	8	16	[0, 0, 0]	n/a	catFR1	1	R1321M
2019.531	0.798	2020822	WORD_OFF	n/a	n/a	LADYBUG	Insects	8	16	[0, 0, 0]	n/a	catFR1	1	R1321M
2020.329	1.6	2021620	WORD	n/a	wordpools/wordpool_categorized_EN.txt	NOTEBOOK	OfficeSupplies	9	16	[0, 0, 0]	n/a	catFR1	1	R1321M
2021.966	1.119	2023257	WORD_OFF	n/a	n/a	NOTEBOOK	OfficeSupplies	9	16	[0, 0, 0]	n/a	catFR1	1	R1321M
2023.085	1.6	2024375	WORD	n/a	wordpools/wordpool_categorized_EN.txt	ERASER	OfficeSupplies	10	16	[0, 0, 0]	n/a	catFR1	1	R1321M
2024.715	0.952	2026005	WORD_OFF	n/a	n/a	ERASER	OfficeSupplies	10	16	[0, 0, 0]	n/a	catFR1	1	R1321M
2025.667	1.6	2026957	WORD	n/a	wordpools/wordpool_categorized_EN.txt	TRUCK	Vehicles	11	16	[0, 0, 0]	n/a	catFR1	1	R1321M
2027.299	1.038	2028589	WORD_OFF	n/a	n/a	TRUCK	Vehicles	11	16	[0, 0, 0]	n/a	catFR1	1	R1321M
2028.337	1.6	2029627	WORD	n/a	wordpools/wordpool_categorized_EN.txt	VAN	Vehicles	12	16	[0, 0, 0]	n/a	catFR1	1	R1321M
2029.95	0.001	2031240	WORD_OFF	n/a	n/a	VAN	Vehicles	12	16	[0, 0, 0]	n/a	catFR1	1	R1321M
2029.951	0.0	2031241	ENCODING_END	n/a	n/a	n/a	n/a	-999	16	[0, 0, 0]	n/a	catFR1	1	R1321M
2029.951	0.0	2031241	DISTRACT_START	n/a	n/a	n/a	n/a	-999	16	[0, 0, 0]	n/a	catFR1	1	R1321M
2029.951	0.016	2031241	START	n/a	n/a	n/a	n/a	-999	16	[-999, -999, -999]	n/a	catFR1	1	R1321M
2029.967	3.801	2031257	PROB	3.763	n/a	n/a	n/a	-999	16	[9, 9, 3]	21.0	catFR1	1	R1321M
2033.768	4.084	2035058	PROB	4.05	n/a	n/a	n/a	-999	16	[2, 6, 8]	16.0	catFR1	1	R1321M
2037.852	5.034	2039142	PROB	5.009	n/a	n/a	n/a	-999	16	[7, 4, 8]	19.0	catFR1	1	R1321M
2042.886	3.45	2044176	PROB	3.414	n/a	n/a	n/a	-999	16	[5, 8, 5]	18.0	catFR1	1	R1321M
2046.336	4.236	2047625	PROB	4.236	n/a	n/a	n/a	-999	16	[2, 9, 5]	16.0	catFR1	1	R1321M
2050.572	0.015	2051861	STOP	n/a	n/a	n/a	n/a	-999	16	[-999, -999, -999]	n/a	catFR1	1	R1321M
2050.587	0.609	2051876	DISTRACT_END	n/a	n/a	n/a	n/a	-999	16	[0, 0, 0]	n/a	catFR1	1	R1321M
2051.196	1.6	2052485	RETRIEVAL_ORIENT_START	n/a	n/a	n/a	n/a	-999	16	[0, 0, 0]	n/a	catFR1	1	R1321M
2052.754	0.0	2054043	RETRIEVAL_ORIENT_END	n/a	n/a	n/a	n/a	-999	16	[0, 0, 0]	n/a	catFR1	1	R1321M
2052.754	1.093	2054043	REC_START	n/a	n/a	n/a	n/a	-999	16	[0, 0, 0]	n/a	catFR1	1	R1321M
2053.847	1.679	2055136	REC_WORD	1.093	n/a	NOTEBOOK	OfficeSupplies	9	16	[0, 0, 0]	n/a	catFR1	1	R1321M
2055.526	0.673	2056815	REC_WORD	2.772	n/a	BEE	Insects	1	16	[0, 0, 0]	n/a	catFR1	1	R1321M
2056.199	0.596	2057488	REC_WORD	3.445	n/a	CRICKET	Insects	7	16	[0, 0, 0]	n/a	catFR1	1	R1321M
2056.795	3.03	2058084	REC_WORD	4.041	n/a	LADYBUG	Insects	8	16	[0, 0, 0]	n/a	catFR1	1	R1321M
2059.825	2.637	2061114	REC_WORD	7.071	n/a	BIKE	Vehicles	6	16	[0, 0, 0]	n/a	catFR1	1	R1321M
2062.462	2.911	2063751	REC_WORD	9.708	n/a	TRAIN	Vehicles	5	16	[0, 0, 0]	n/a	catFR1	1	R1321M
2065.373	3.196	2066662	REC_WORD	12.619	n/a	ERASER	OfficeSupplies	10	16	[0, 0, 0]	n/a	catFR1	1	R1321M
2068.569	14.198	2069857	REC_WORD	15.815	n/a	RULER	OfficeSupplies	3	16	[0, 0, 0]	n/a	catFR1	1	R1321M
2082.767	0.0	2084055	REC_END	n/a	n/a	n/a	n/a	-999	16	[0, 0, 0]	n/a	catFR1	1	R1321M
2082.767	0.023	2084055	TRIAL_END	n/a	n/a	n/a	n/a	-999	16	[0, 0, 0]	n/a	catFR1	1	R1321M
2082.79	0.0	2084078	TRIAL_START	n/a	n/a	n/a	n/a	-999	17	[0, 0, 0]	n/a	catFR1	1	R1321M
2082.79	0.001	2084078	TRIAL	n/a	n/a	n/a	n/a	-999	17	[0, 0, 0]	n/a	catFR1	1	R1321M
2082.791	4.237	2084079	WAITING_START	n/a	n/a	n/a	n/a	-999	17	[0, 0, 0]	n/a	catFR1	1	R1321M
2087.028	0.001	2088316	WAITING_END	n/a	n/a	n/a	n/a	-999	17	[0, 0, 0]	n/a	catFR1	1	R1321M
2087.029	10.0	2088317	COUNTDOWN_START	n/a	n/a	n/a	n/a	-999	17	[0, 0, 0]	n/a	catFR1	1	R1321M
2097.458	0.0	2098745	ORIENT_START	n/a	n/a	n/a	n/a	-999	17	[0, 0, 0]	n/a	catFR1	1	R1321M
2097.458	1.222	2098745	COUNTDOWN_END	n/a	n/a	n/a	n/a	-999	17	[0, 0, 0]	n/a	catFR1	1	R1321M
2098.68	0.0	2099967	ORIENT_END	n/a	n/a	n/a	n/a	-999	17	[0, 0, 0]	n/a	catFR1	1	R1321M
2098.68	0.93	2099967	ENCODING_START	n/a	n/a	n/a	n/a	-999	17	[0, 0, 0]	n/a	catFR1	1	R1321M
2099.61	1.6	2100897	WORD	n/a	wordpools/wordpool_categorized_EN.txt	SHEEP	FarmAnimals	1	17	[0, 0, 0]	n/a	catFR1	1	R1321M
2101.231	1.007	2102518	WORD_OFF	n/a	n/a	SHEEP	FarmAnimals	1	17	[0, 0, 0]	n/a	catFR1	1	R1321M
2102.238	1.6	2103525	WORD	n/a	wordpools/wordpool_categorized_EN.txt	COW	FarmAnimals	2	17	[0, 0, 0]	n/a	catFR1	1	R1321M
2103.865	0.833	2105152	WORD_OFF	n/a	n/a	COW	FarmAnimals	2	17	[0, 0, 0]	n/a	catFR1	1	R1321M
2104.698	1.6	2105985	WORD	n/a	wordpools/wordpool_categorized_EN.txt	SPATULA	KitchenTools	3	17	[0, 0, 0]	n/a	catFR1	1	R1321M
2106.331	0.79	2107618	WORD_OFF	n/a	n/a	SPATULA	KitchenTools	3	17	[0, 0, 0]	n/a	catFR1	1	R1321M
2107.121	1.6	2108408	WORD	n/a	wordpools/wordpool_categorized_EN.txt	STRAINER	KitchenTools	4	17	[0, 0, 0]	n/a	catFR1	1	R1321M
2108.748	0.773	2110035	WORD_OFF	n/a	n/a	STRAINER	KitchenTools	4	17	[0, 0, 0]	n/a	catFR1	1	R1321M
2109.521	1.6	2110808	WORD	n/a	wordpools/wordpool_categorized_EN.txt	FOLDER	OfficeSupplies	5	17	[0, 0, 0]	n/a	catFR1	1	R1321M
2111.133	0.998	2112419	WORD_OFF	n/a	n/a	FOLDER	OfficeSupplies	5	17	[0, 0, 0]	n/a	catFR1	1	R1321M
2112.131	1.6	2113417	WORD	n/a	wordpools/wordpool_categorized_EN.txt	TAPE	OfficeSupplies	6	17	[0, 0, 0]	n/a	catFR1	1	R1321M
2113.767	0.913	2115053	WORD_OFF	n/a	n/a	TAPE	OfficeSupplies	6	17	[0, 0, 0]	n/a	catFR1	1	R1321M
2114.68	1.6	2115966	WORD	n/a	wordpools/wordpool_categorized_EN.txt	WHISK	KitchenTools	7	17	[0, 0, 0]	n/a	catFR1	1	R1321M
2116.316	0.954	2117602	WORD_OFF	n/a	n/a	WHISK	KitchenTools	7	17	[0, 0, 0]	n/a	catFR1	1	R1321M
2117.27	1.6	2118556	WORD	n/a	wordpools/wordpool_categorized_EN.txt	FORK	KitchenTools	8	17	[0, 0, 0]	n/a	catFR1	1	R1321M
2118.884	0.79	2120170	WORD_OFF	n/a	n/a	FORK	KitchenTools	8	17	[0, 0, 0]	n/a	catFR1	1	R1321M
2119.674	1.6	2120960	WORD	n/a	wordpools/wordpool_categorized_EN.txt	STAPLER	OfficeSupplies	9	17	[0, 0, 0]	n/a	catFR1	1	R1321M
2121.301	1.046	2122587	WORD_OFF	n/a	n/a	STAPLER	OfficeSupplies	9	17	[0, 0, 0]	n/a	catFR1	1	R1321M
2122.347	1.6	2123633	WORD	n/a	wordpools/wordpool_categorized_EN.txt	PAPER	OfficeSupplies	10	17	[0, 0, 0]	n/a	catFR1	1	R1321M
2123.985	0.785	2125271	WORD_OFF	n/a	n/a	PAPER	OfficeSupplies	10	17	[0, 0, 0]	n/a	catFR1	1	R1321M
2124.77	1.6	2126056	WORD	n/a	wordpools/wordpool_categorized_EN.txt	HORSE	FarmAnimals	11	17	[0, 0, 0]	n/a	catFR1	1	R1321M
2126.402	1.069	2127688	WORD_OFF	n/a	n/a	HORSE	FarmAnimals	11	17	[0, 0, 0]	n/a	catFR1	1	R1321M
2127.471	1.6	2128757	WORD	n/a	wordpools/wordpool_categorized_EN.txt	BULL	FarmAnimals	12	17	[0, 0, 0]	n/a	catFR1	1	R1321M
2129.086	0.001	2130372	WORD_OFF	n/a	n/a	BULL	FarmAnimals	12	17	[0, 0, 0]	n/a	catFR1	1	R1321M
2129.087	0.0	2130373	ENCODING_END	n/a	n/a	n/a	n/a	-999	17	[0, 0, 0]	n/a	catFR1	1	R1321M
2129.087	0.0	2130373	DISTRACT_START	n/a	n/a	n/a	n/a	-999	17	[0, 0, 0]	n/a	catFR1	1	R1321M
2129.087	0.016	2130373	START	n/a	n/a	n/a	n/a	-999	17	[-999, -999, -999]	n/a	catFR1	1	R1321M
2129.103	4.134	2130389	PROB	4.1	n/a	n/a	n/a	-999	17	[9, 7, 3]	19.0	catFR1	1	R1321M
2133.237	4.333	2134522	PROB	4.304	n/a	n/a	n/a	-999	17	[2, 1, 5]	8.0	catFR1	1	R1321M
2137.57	4.469	2138855	PROB	4.444	n/a	n/a	n/a	-999	17	[9, 7, 8]	24.0	catFR1	1	R1321M
2142.039	5.084	2143324	PROB	5.053	n/a	n/a	n/a	-999	17	[2, 5, 1]	8.0	catFR1	1	R1321M
2147.123	4.56	2148408	PROB	4.56	n/a	n/a	n/a	-999	17	[7, 7, 6]	20.0	catFR1	1	R1321M
2151.683	0.007	2152968	STOP	n/a	n/a	n/a	n/a	-999	17	[-999, -999, -999]	n/a	catFR1	1	R1321M
2151.69	0.604	2152975	DISTRACT_END	n/a	n/a	n/a	n/a	-999	17	[0, 0, 0]	n/a	catFR1	1	R1321M
2152.294	1.6	2153579	RETRIEVAL_ORIENT_START	n/a	n/a	n/a	n/a	-999	17	[0, 0, 0]	n/a	catFR1	1	R1321M
2153.858	0.0	2155142	RETRIEVAL_ORIENT_END	n/a	n/a	n/a	n/a	-999	17	[0, 0, 0]	n/a	catFR1	1	R1321M
2153.858	1.704	2155142	REC_START	n/a	n/a	n/a	n/a	-999	17	[0, 0, 0]	n/a	catFR1	1	R1321M
2155.562	0.832	2156846	REC_WORD	1.704	n/a	SHEEP	FarmAnimals	1	17	[0, 0, 0]	n/a	catFR1	1	R1321M
2156.394	1.105	2157678	REC_WORD	2.536	n/a	COW	FarmAnimals	2	17	[0, 0, 0]	n/a	catFR1	1	R1321M
2157.499	2.328	2158783	REC_WORD	3.641	n/a	BULL	FarmAnimals	12	17	[0, 0, 0]	n/a	catFR1	1	R1321M
2159.827	1.33	2161111	REC_WORD	5.969	n/a	HORSE	FarmAnimals	11	17	[0, 0, 0]	n/a	catFR1	1	R1321M
2161.157	1.539	2162441	REC_WORD	7.299	n/a	SPATULA	KitchenTools	3	17	[0, 0, 0]	n/a	catFR1	1	R1321M
2162.696	2.014	2163980	REC_WORD	8.838	n/a	WHISK	KitchenTools	7	17	[0, 0, 0]	n/a	catFR1	1	R1321M
2164.71	5.743	2165994	REC_WORD	10.852	n/a	FORK	KitchenTools	8	17	[0, 0, 0]	n/a	catFR1	1	R1321M
2170.453	4.453	2171737	REC_WORD	16.595	n/a	TAPE	OfficeSupplies	6	17	[0, 0, 0]	n/a	catFR1	1	R1321M
2174.906	8.964	2176190	REC_WORD	21.048	n/a	PAPER	OfficeSupplies	10	17	[0, 0, 0]	n/a	catFR1	1	R1321M
2183.87	0.0	2185153	REC_END	n/a	n/a	n/a	n/a	-999	17	[0, 0, 0]	n/a	catFR1	1	R1321M
2183.87	0.022	2185153	TRIAL_END	n/a	n/a	n/a	n/a	-999	17	[0, 0, 0]	n/a	catFR1	1	R1321M
2183.892	0.0	2185175	TRIAL_START	n/a	n/a	n/a	n/a	-999	18	[0, 0, 0]	n/a	catFR1	1	R1321M
2183.892	0.0	2185175	TRIAL	n/a	n/a	n/a	n/a	-999	18	[0, 0, 0]	n/a	catFR1	1	R1321M
2183.892	4.189	2185175	WAITING_START	n/a	n/a	n/a	n/a	-999	18	[0, 0, 0]	n/a	catFR1	1	R1321M
2188.081	0.001	2189364	WAITING_END	n/a	n/a	n/a	n/a	-999	18	[0, 0, 0]	n/a	catFR1	1	R1321M
2188.082	10.0	2189365	COUNTDOWN_START	n/a	n/a	n/a	n/a	-999	18	[0, 0, 0]	n/a	catFR1	1	R1321M
2198.51	0.001	2199792	COUNTDOWN_END	n/a	n/a	n/a	n/a	-999	18	[0, 0, 0]	n/a	catFR1	1	R1321M
2198.511	1.188	2199793	ORIENT_START	n/a	n/a	n/a	n/a	-999	18	[0, 0, 0]	n/a	catFR1	1	R1321M
2199.699	0.001	2200981	ORIENT_END	n/a	n/a	n/a	n/a	-999	18	[0, 0, 0]	n/a	catFR1	1	R1321M
2199.7	1.065	2200982	ENCODING_START	n/a	n/a	n/a	n/a	-999	18	[0, 0, 0]	n/a	catFR1	1	R1321M
2200.765	1.6	2202047	WORD	n/a	wordpools/wordpool_categorized_EN.txt	TONGS	KitchenTools	1	18	[0, 0, 0]	n/a	catFR1	1	R1321M
2202.4	1.124	2203682	WORD_OFF	n/a	n/a	TONGS	KitchenTools	1	18	[0, 0, 0]	n/a	catFR1	1	R1321M
2203.524	1.6	2204806	WORD	n/a	wordpools/wordpool_categorized_EN.txt	GRATER	KitchenTools	2	18	[0, 0, 0]	n/a	catFR1	1	R1321M
2205.134	1.031	2206416	WORD_OFF	n/a	n/a	GRATER	KitchenTools	2	18	[0, 0, 0]	n/a	catFR1	1	R1321M
2206.165	1.6	2207447	WORD	n/a	wordpools/wordpool_categorized_EN.txt	ISLAND	Landscapes	3	18	[0, 0, 0]	n/a	catFR1	1	R1321M
2207.802	1.097	2209084	WORD_OFF	n/a	n/a	ISLAND	Landscapes	3	18	[0, 0, 0]	n/a	catFR1	1	R1321M
2208.899	1.6	2210181	WORD	n/a	wordpools/wordpool_categorized_EN.txt	CREEK	Landscapes	4	18	[0, 0, 0]	n/a	catFR1	1	R1321M
2210.535	1.091	2211817	WORD_OFF	n/a	n/a	CREEK	Landscapes	4	18	[0, 0, 0]	n/a	catFR1	1	R1321M
2211.626	1.6	2212908	WORD	n/a	wordpools/wordpool_categorized_EN.txt	WIND	Weather	5	18	[0, 0, 0]	n/a	catFR1	1	R1321M
2213.236	1.064	2214518	WORD_OFF	n/a	n/a	WIND	Weather	5	18	[0, 0, 0]	n/a	catFR1	1	R1321M
2214.3	1.6	2215582	WORD	n/a	wordpools/wordpool_categorized_EN.txt	THUNDER	Weather	6	18	[0, 0, 0]	n/a	catFR1	1	R1321M
2215.92	0.982	2217202	WORD_OFF	n/a	n/a	THUNDER	Weather	6	18	[0, 0, 0]	n/a	catFR1	1	R1321M
2216.902	1.6	2218184	WORD	n/a	wordpools/wordpool_categorized_EN.txt	LADLE	KitchenTools	7	18	[0, 0, 0]	n/a	catFR1	1	R1321M
2218.536	1.038	2219818	WORD_OFF	n/a	n/a	LADLE	KitchenTools	7	18	[0, 0, 0]	n/a	catFR1	1	R1321M
2219.574	1.6	2220855	WORD	n/a	wordpools/wordpool_categorized_EN.txt	CORKSCREW	KitchenTools	8	18	[0, 0, 0]	n/a	catFR1	1	R1321M
2221.187	0.938	2222468	WORD_OFF	n/a	n/a	CORKSCREW	KitchenTools	8	18	[0, 0, 0]	n/a	catFR1	1	R1321M
2222.125	1.6	2223406	WORD	n/a	wordpools/wordpool_categorized_EN.txt	HILLS	Landscapes	9	18	[0, 0, 0]	n/a	catFR1	1	R1321M
2223.754	1.039	2225035	WORD_OFF	n/a	n/a	HILLS	Landscapes	9	18	[0, 0, 0]	n/a	catFR1	1	R1321M
2224.793	1.6	2226074	WORD	n/a	wordpools/wordpool_categorized_EN.txt	RIVER	Landscapes	10	18	[0, 0, 0]	n/a	catFR1	1	R1321M
2226.421	1.12	2227702	WORD_OFF	n/a	n/a	RIVER	Landscapes	10	18	[0, 0, 0]	n/a	catFR1	1	R1321M
2227.541	1.6	2228822	WORD	n/a	wordpools/wordpool_categorized_EN.txt	CLOUD	Weather	11	18	[0, 0, 0]	n/a	catFR1	1	R1321M
2229.172	0.84	2230453	WORD_OFF	n/a	n/a	CLOUD	Weather	11	18	[0, 0, 0]	n/a	catFR1	1	R1321M
2230.012	1.6	2231293	WORD	n/a	wordpools/wordpool_categorized_EN.txt	LIGHTNING	Weather	12	18	[0, 0, 0]	n/a	catFR1	1	R1321M
2231.639	0.0	2232920	WORD_OFF	n/a	n/a	LIGHTNING	Weather	12	18	[0, 0, 0]	n/a	catFR1	1	R1321M
2231.639	0.0	2232920	ENCODING_END	n/a	n/a	n/a	n/a	-999	18	[0, 0, 0]	n/a	catFR1	1	R1321M
2231.639	0.001	2232920	DISTRACT_START	n/a	n/a	n/a	n/a	-999	18	[0, 0, 0]	n/a	catFR1	1	R1321M
