onset	duration	sample	trial_type	response_time	stim_file	item_name	category	serialpos	list	test	answer	experiment	session	subject
0.0	30.637	4990	INSTRUCT_START	n/a	n/a	n/a	n/a	-999	-999	[0, 0, 0]	n/a	catFR1	2	R1489E
30.637	45.52	35620	INSTRUCT_END	n/a	n/a	n/a	n/a	-999	-999	[0, 0, 0]	n/a	catFR1	2	R1489E
76.157	10.0	81141	COUNTDOWN_START	n/a	n/a	n/a	n/a	-999	-999	[0, 0, 0]	n/a	catFR1	2	R1489E
86.509	0.0	91486	COUNTDOWN_END	n/a	n/a	n/a	n/a	-999	-999	[0, 0, 0]	n/a	catFR1	2	R1489E
86.509	2.184	91496	ENCODING_START	n/a	n/a	n/a	n/a	-999	-1	[0, 0, 0]	n/a	catFR1	2	R1489E
88.693	1.6	93673	WORD	n/a	n/a	BINDER	OfficeSupplies	1	-1	[0, 0, 0]	n/a	catFR1	2	R1489E
90.292	0.984	95272	WORD_OFF	n/a	n/a	BINDER	OfficeSupplies	1	-1	[0, 0, 0]	n/a	catFR1	2	R1489E
91.276	1.6	96254	WORD	n/a	n/a	ERASER	OfficeSupplies	2	-1	[0, 0, 0]	n/a	catFR1	2	R1489E
92.876	0.883	97853	WORD_OFF	n/a	n/a	ERASER	OfficeSupplies	2	-1	[0, 0, 0]	n/a	catFR1	2	R1489E
93.759	1.6	98734	WORD	n/a	n/a	CALF	FarmAnimals	3	-1	[0, 0, 0]	n/a	catFR1	2	R1489E
95.375	0.801	100353	WORD_OFF	n/a	n/a	CALF	FarmAnimals	3	-1	[0, 0, 0]	n/a	catFR1	2	R1489E
96.176	1.6	101153	WORD	n/a	n/a	CHICKEN	FarmAnimals	4	-1	[0, 0, 0]	n/a	catFR1	2	R1489E
97.793	0.849	102773	WORD_OFF	n/a	n/a	CHICKEN	FarmAnimals	4	-1	[0, 0, 0]	n/a	catFR1	2	R1489E
98.642	1.6	103623	WORD	n/a	n/a	BASS	Instruments	5	-1	[0, 0, 0]	n/a	catFR1	2	R1489E
100.243	0.833	105222	WORD_OFF	n/a	n/a	BASS	Instruments	5	-1	[0, 0, 0]	n/a	catFR1	2	R1489E
101.076	1.6	106052	WORD	n/a	n/a	PIANO	Instruments	6	-1	[0, 0, 0]	n/a	catFR1	2	R1489E
102.676	0.8	107652	WORD_OFF	n/a	n/a	PIANO	Instruments	6	-1	[0, 0, 0]	n/a	catFR1	2	R1489E
103.476	1.6	108451	WORD	n/a	n/a	STAPLER	OfficeSupplies	7	-1	[0, 0, 0]	n/a	catFR1	2	R1489E
105.093	0.917	110071	WORD_OFF	n/a	n/a	STAPLER	OfficeSupplies	7	-1	[0, 0, 0]	n/a	catFR1	2	R1489E
106.01	1.6	110992	WORD	n/a	n/a	TAPE	OfficeSupplies	8	-1	[0, 0, 0]	n/a	catFR1	2	R1489E
107.61	0.9	112591	WORD_OFF	n/a	n/a	TAPE	OfficeSupplies	8	-1	[0, 0, 0]	n/a	catFR1	2	R1489E
108.51	1.6	113492	WORD	n/a	n/a	PIG	FarmAnimals	9	-1	[0, 0, 0]	n/a	catFR1	2	R1489E
110.11	0.934	115092	WORD_OFF	n/a	n/a	PIG	FarmAnimals	9	-1	[0, 0, 0]	n/a	catFR1	2	R1489E
111.044	1.6	116023	WORD	n/a	n/a	TURKEY	FarmAnimals	10	-1	[0, 0, 0]	n/a	catFR1	2	R1489E
112.66	0.767	117632	WORD_OFF	n/a	n/a	TURKEY	FarmAnimals	10	-1	[0, 0, 0]	n/a	catFR1	2	R1489E
113.427	1.6	118402	WORD	n/a	n/a	TROMBONE	Instruments	11	-1	[0, 0, 0]	n/a	catFR1	2	R1489E
115.027	0.95	120001	WORD_OFF	n/a	n/a	TROMBONE	Instruments	11	-1	[0, 0, 0]	n/a	catFR1	2	R1489E
115.977	1.6	120953	WORD	n/a	n/a	TRUMPET	Instruments	12	-1	[0, 0, 0]	n/a	catFR1	2	R1489E
117.577	0.001	122552	WORD_OFF	n/a	n/a	TRUMPET	Instruments	12	-1	[0, 0, 0]	n/a	catFR1	2	R1489E
117.578	0.0	122552	ENCODING_END	n/a	n/a	n/a	n/a	-999	-1	[0, 0, 0]	n/a	catFR1	2	R1489E
117.578	0.0	122552	DISTRACT_START	n/a	n/a	n/a	n/a	-999	-1	[0, 0, 0]	n/a	catFR1	2	R1489E
117.578	0.0	122558	START	n/a	n/a	n/a	n/a	-999	-1	[-999, -999, -999]	n/a	catFR1	2	R1489E
117.578	4.6	122558	PROB	4.584	n/a	n/a	n/a	-999	-1	[6, 8, 6]	20.0	catFR1	2	R1489E
122.178	3.749	127157	PROB	3.732	n/a	n/a	n/a	-999	-1	[2, 3, 4]	9.0	catFR1	2	R1489E
125.927	3.519	130906	PROB	3.5	n/a	n/a	n/a	-999	-1	[2, 5, 6]	13.0	catFR1	2	R1489E
129.446	3.582	134425	PROB	3.566	n/a	n/a	n/a	-999	-1	[4, 7, 3]	14.0	catFR1	2	R1489E
133.028	3.468	138006	PROB	3.449	n/a	n/a	n/a	-999	-1	[2, 3, 8]	13.0	catFR1	2	R1489E
136.496	3.099	141474	PROB	3.083	n/a	n/a	n/a	-999	-1	[8, 3, 2]	13.0	catFR1	2	R1489E
139.595	0.0	144568	DISTRACT_END	n/a	n/a	n/a	n/a	-999	-1	[0, 0, 0]	n/a	catFR1	2	R1489E
139.595	2.267	144573	STOP	n/a	n/a	n/a	n/a	-999	-1	[-999, -999, -999]	n/a	catFR1	2	R1489E
141.862	2.1	146834	REC_START	n/a	n/a	n/a	n/a	-999	-1	[0, 0, 0]	n/a	catFR1	2	R1489E
143.962	0.95	148939	REC_WORD	2.1	n/a	ERASER	OfficeSupplies	2	-1	[0, 0, 0]	n/a	catFR1	2	R1489E
144.912	1.564	149889	REC_WORD	3.05	n/a	STAPLER	OfficeSupplies	7	-1	[0, 0, 0]	n/a	catFR1	2	R1489E
146.476	0.997	151453	REC_WORD	4.614	n/a	BINDER	OfficeSupplies	1	-1	[0, 0, 0]	n/a	catFR1	2	R1489E
147.473	1.161	152450	REC_WORD	5.611	n/a	PENCIL	n/a	-999	-1	[0, 0, 0]	n/a	catFR1	2	R1489E
148.634	1.041	153611	REC_WORD	6.772	n/a	PIG	FarmAnimals	9	-1	[0, 0, 0]	n/a	catFR1	2	R1489E
149.675	1.755	154652	REC_WORD	7.813	n/a	CHICKEN	FarmAnimals	4	-1	[0, 0, 0]	n/a	catFR1	2	R1489E
151.43	8.538	156407	REC_WORD	9.568	n/a	CALF	FarmAnimals	3	-1	[0, 0, 0]	n/a	catFR1	2	R1489E
159.968	0.297	164944	REC_WORD	18.106	n/a	CALF	FarmAnimals	3	-1	[0, 0, 0]	n/a	catFR1	2	R1489E
160.265	11.829	165241	REC_WORD	18.403	n/a	CORN	n/a	-999	-1	[0, 0, 0]	n/a	catFR1	2	R1489E
172.094	12.754	177061	REC_END	n/a	n/a	n/a	n/a	-999	-1	[0, 0, 0]	n/a	catFR1	2	R1489E
184.848	10.0	189816	COUNTDOWN_START	n/a	n/a	n/a	n/a	-999	1	[0, 0, 0]	n/a	catFR1	2	R1489E
195.198	0.0	200171	COUNTDOWN_END	n/a	n/a	n/a	n/a	-999	1	[0, 0, 0]	n/a	catFR1	2	R1489E
195.198	2.134	200171	ENCODING_START	n/a	n/a	n/a	n/a	-999	1	[0, 0, 0]	n/a	catFR1	2	R1489E
197.332	1.6	202297	WORD	n/a	wordpools/wordpool_categorized_EN.txt	SPINACH	Vegetables	1	1	[0, 0, 0]	n/a	catFR1	2	R1489E
198.933	1.0	203896	WORD_OFF	n/a	n/a	SPINACH	Vegetables	1	1	[0, 0, 0]	n/a	catFR1	2	R1489E
199.933	1.6	204898	WORD	n/a	wordpools/wordpool_categorized_EN.txt	PEAS	Vegetables	2	1	[0, 0, 0]	n/a	catFR1	2	R1489E
201.533	0.766	206497	WORD_OFF	n/a	n/a	PEAS	Vegetables	2	1	[0, 0, 0]	n/a	catFR1	2	R1489E
202.299	1.6	207267	WORD	n/a	wordpools/wordpool_categorized_EN.txt	SOCKS	Clothing	3	1	[0, 0, 0]	n/a	catFR1	2	R1489E
203.916	1.0	208886	WORD_OFF	n/a	n/a	SOCKS	Clothing	3	1	[0, 0, 0]	n/a	catFR1	2	R1489E
204.916	1.6	209888	WORD	n/a	wordpools/wordpool_categorized_EN.txt	JACKET	Clothing	4	1	[0, 0, 0]	n/a	catFR1	2	R1489E
206.516	0.984	211488	WORD_OFF	n/a	n/a	JACKET	Clothing	4	1	[0, 0, 0]	n/a	catFR1	2	R1489E
207.5	1.6	212470	WORD	n/a	wordpools/wordpool_categorized_EN.txt	CHEESECAKE	Desserts	5	1	[0, 0, 0]	n/a	catFR1	2	R1489E
209.116	0.833	214079	WORD_OFF	n/a	n/a	CHEESECAKE	Desserts	5	1	[0, 0, 0]	n/a	catFR1	2	R1489E
209.949	1.6	214919	WORD	n/a	wordpools/wordpool_categorized_EN.txt	COOKIE	Desserts	6	1	[0, 0, 0]	n/a	catFR1	2	R1489E
211.55	0.799	216519	WORD_OFF	n/a	n/a	COOKIE	Desserts	6	1	[0, 0, 0]	n/a	catFR1	2	R1489E
212.349	1.6	217318	WORD	n/a	wordpools/wordpool_categorized_EN.txt	JEANS	Clothing	7	1	[0, 0, 0]	n/a	catFR1	2	R1489E
213.95	0.866	218918	WORD_OFF	n/a	n/a	JEANS	Clothing	7	1	[0, 0, 0]	n/a	catFR1	2	R1489E
214.816	1.6	219778	WORD	n/a	wordpools/wordpool_categorized_EN.txt	SHIRT	Clothing	8	1	[0, 0, 0]	n/a	catFR1	2	R1489E
216.417	1.0	221387	WORD_OFF	n/a	n/a	SHIRT	Clothing	8	1	[0, 0, 0]	n/a	catFR1	2	R1489E
217.417	1.6	222379	WORD	n/a	wordpools/wordpool_categorized_EN.txt	COBBLER	Desserts	9	1	[0, 0, 0]	n/a	catFR1	2	R1489E
219.034	0.949	223999	WORD_OFF	n/a	n/a	COBBLER	Desserts	9	1	[0, 0, 0]	n/a	catFR1	2	R1489E
219.983	1.6	224951	WORD	n/a	wordpools/wordpool_categorized_EN.txt	MOUSSE	Desserts	10	1	[0, 0, 0]	n/a	catFR1	2	R1489E
221.583	0.984	226550	WORD_OFF	n/a	n/a	MOUSSE	Desserts	10	1	[0, 0, 0]	n/a	catFR1	2	R1489E
222.567	1.6	227532	WORD	n/a	wordpools/wordpool_categorized_EN.txt	CABBAGE	Vegetables	11	1	[0, 0, 0]	n/a	catFR1	2	R1489E
224.167	0.95	229131	WORD_OFF	n/a	n/a	CABBAGE	Vegetables	11	1	[0, 0, 0]	n/a	catFR1	2	R1489E
225.117	1.6	230083	WORD	n/a	wordpools/wordpool_categorized_EN.txt	ONION	Vegetables	12	1	[0, 0, 0]	n/a	catFR1	2	R1489E
226.717	0.002	231682	WORD_OFF	n/a	n/a	ONION	Vegetables	12	1	[0, 0, 0]	n/a	catFR1	2	R1489E
226.719	0.0	231682	ENCODING_END	n/a	n/a	n/a	n/a	-999	1	[0, 0, 0]	n/a	catFR1	2	R1489E
226.719	0.0	231682	DISTRACT_START	n/a	n/a	n/a	n/a	-999	1	[0, 0, 0]	n/a	catFR1	2	R1489E
226.719	0.002	231688	START	n/a	n/a	n/a	n/a	-999	1	[-999, -999, -999]	n/a	catFR1	2	R1489E
226.721	3.73	231690	PROB	3.716	n/a	n/a	n/a	-999	1	[1, 3, 3]	7.0	catFR1	2	R1489E
230.451	4.134	235420	PROB	4.116	n/a	n/a	n/a	-999	1	[8, 7, 1]	16.0	catFR1	2	R1489E
234.585	3.25	239553	PROB	3.233	n/a	n/a	n/a	-999	1	[7, 8, 2]	17.0	catFR1	2	R1489E
237.835	3.384	242803	PROB	3.366	n/a	n/a	n/a	-999	1	[7, 5, 2]	14.0	catFR1	2	R1489E
241.219	4.184	246187	PROB	4.166	n/a	n/a	n/a	-999	1	[4, 4, 4]	12.0	catFR1	2	R1489E
245.403	3.432	250370	PROB	3.416	n/a	n/a	n/a	-999	1	[6, 7, 7]	20.0	catFR1	2	R1489E
248.835	0.0	253800	DISTRACT_END	n/a	n/a	n/a	n/a	-999	1	[0, 0, 0]	n/a	catFR1	2	R1489E
248.835	2.366	253802	STOP	n/a	n/a	n/a	n/a	-999	1	[-999, -999, -999]	n/a	catFR1	2	R1489E
251.201	1.658	256166	REC_START	n/a	n/a	n/a	n/a	-999	1	[0, 0, 0]	n/a	catFR1	2	R1489E
252.859	0.919	257825	REC_WORD	1.658	n/a	JEANS	Clothing	7	1	[0, 0, 0]	n/a	catFR1	2	R1489E
253.778	1.338	258744	REC_WORD	2.577	n/a	SOCKS	Clothing	3	1	[0, 0, 0]	n/a	catFR1	2	R1489E
255.116	3.173	260082	REC_WORD	3.915	n/a	JACKET	Clothing	4	1	[0, 0, 0]	n/a	catFR1	2	R1489E
258.289	1.646	263255	REC_WORD	7.088	n/a	PEAS	Vegetables	2	1	[0, 0, 0]	n/a	catFR1	2	R1489E
259.935	3.654	264901	REC_WORD	8.734	n/a	CABBAGE	Vegetables	11	1	[0, 0, 0]	n/a	catFR1	2	R1489E
263.589	4.046	268554	REC_WORD	12.388	n/a	BROCCOLI	n/a	-999	1	[0, 0, 0]	n/a	catFR1	2	R1489E
267.635	1.0	272600	REC_WORD_VV	16.434	n/a	<>	n/a	-999	1	[0, 0, 0]	n/a	catFR1	2	R1489E
268.635	2.57	273600	REC_WORD_VV	17.434	n/a	<>	n/a	-999	1	[0, 0, 0]	n/a	catFR1	2	R1489E
271.205	0.842	276170	REC_WORD	20.004	n/a	MOUSSE	Desserts	10	1	[0, 0, 0]	n/a	catFR1	2	R1489E
272.047	1.209	277012	REC_WORD	20.846	n/a	ICE CREAM	n/a	-999	1	[0, 0, 0]	n/a	catFR1	2	R1489E
273.256	2.186	278220	REC_WORD	22.055	n/a	CAKE	n/a	-999	1	[0, 0, 0]	n/a	catFR1	2	R1489E
275.442	5.968	280406	REC_WORD	24.241	n/a	PUDDING	n/a	-999	1	[0, 0, 0]	n/a	catFR1	2	R1489E
281.41	4.411	286374	REC_END	n/a	n/a	n/a	n/a	-999	1	[0, 0, 0]	n/a	catFR1	2	R1489E
285.821	10.0	290787	COUNTDOWN_START	n/a	n/a	n/a	n/a	-999	2	[0, 0, 0]	n/a	catFR1	2	R1489E
296.171	0.001	301132	COUNTDOWN_END	n/a	n/a	n/a	n/a	-999	2	[0, 0, 0]	n/a	catFR1	2	R1489E
296.172	2.066	301132	ENCODING_START	n/a	n/a	n/a	n/a	-999	2	[0, 0, 0]	n/a	catFR1	2	R1489E
298.238	1.6	303197	WORD	n/a	wordpools/wordpool_categorized_EN.txt	SHEEP	FarmAnimals	1	2	[0, 0, 0]	n/a	catFR1	2	R1489E
299.839	0.799	304796	WORD_OFF	n/a	n/a	SHEEP	FarmAnimals	1	2	[0, 0, 0]	n/a	catFR1	2	R1489E
300.638	1.6	305596	WORD	n/a	wordpools/wordpool_categorized_EN.txt	COW	FarmAnimals	2	2	[0, 0, 0]	n/a	catFR1	2	R1489E
302.255	0.884	307216	WORD_OFF	n/a	n/a	COW	FarmAnimals	2	2	[0, 0, 0]	n/a	catFR1	2	R1489E
303.139	1.6	308096	WORD	n/a	wordpools/wordpool_categorized_EN.txt	TURTLE	OceanAnimals	3	2	[0, 0, 0]	n/a	catFR1	2	R1489E
304.739	0.999	309696	WORD_OFF	n/a	n/a	TURTLE	OceanAnimals	3	2	[0, 0, 0]	n/a	catFR1	2	R1489E
305.738	1.6	310698	WORD	n/a	wordpools/wordpool_categorized_EN.txt	LOBSTER	OceanAnimals	4	2	[0, 0, 0]	n/a	catFR1	2	R1489E
307.339	0.816	312297	WORD_OFF	n/a	n/a	LOBSTER	OceanAnimals	4	2	[0, 0, 0]	n/a	catFR1	2	R1489E
308.155	1.6	313117	WORD	n/a	wordpools/wordpool_categorized_EN.txt	BOAT	Vehicles	5	2	[0, 0, 0]	n/a	catFR1	2	R1489E
309.773	0.966	314726	WORD_OFF	n/a	n/a	BOAT	Vehicles	5	2	[0, 0, 0]	n/a	catFR1	2	R1489E
310.739	1.6	315698	WORD	n/a	wordpools/wordpool_categorized_EN.txt	TRUCK	Vehicles	6	2	[0, 0, 0]	n/a	catFR1	2	R1489E
312.339	0.801	317298	WORD_OFF	n/a	n/a	TRUCK	Vehicles	6	2	[0, 0, 0]	n/a	catFR1	2	R1489E
313.14	1.6	318097	WORD	n/a	wordpools/wordpool_categorized_EN.txt	PLANKTON	OceanAnimals	7	2	[0, 0, 0]	n/a	catFR1	2	R1489E
314.74	0.816	319697	WORD_OFF	n/a	n/a	PLANKTON	OceanAnimals	7	2	[0, 0, 0]	n/a	catFR1	2	R1489E
315.556	1.6	320517	WORD	n/a	wordpools/wordpool_categorized_EN.txt	SQUID	OceanAnimals	8	2	[0, 0, 0]	n/a	catFR1	2	R1489E
317.157	0.799	322116	WORD_OFF	n/a	n/a	SQUID	OceanAnimals	8	2	[0, 0, 0]	n/a	catFR1	2	R1489E
317.956	1.6	322916	WORD	n/a	wordpools/wordpool_categorized_EN.txt	VAN	Vehicles	9	2	[0, 0, 0]	n/a	catFR1	2	R1489E
319.557	0.8	324515	WORD_OFF	n/a	n/a	VAN	Vehicles	9	2	[0, 0, 0]	n/a	catFR1	2	R1489E
320.357	1.6	325315	WORD	n/a	wordpools/wordpool_categorized_EN.txt	MOPED	Vehicles	10	2	[0, 0, 0]	n/a	catFR1	2	R1489E
321.973	0.85	326934	WORD_OFF	n/a	n/a	MOPED	Vehicles	10	2	[0, 0, 0]	n/a	catFR1	2	R1489E
322.823	1.6	327784	WORD	n/a	wordpools/wordpool_categorized_EN.txt	ROOSTER	FarmAnimals	11	2	[0, 0, 0]	n/a	catFR1	2	R1489E
324.439	0.767	329394	WORD_OFF	n/a	n/a	ROOSTER	FarmAnimals	11	2	[0, 0, 0]	n/a	catFR1	2	R1489E
325.206	1.6	330163	WORD	n/a	wordpools/wordpool_categorized_EN.txt	LAMB	FarmAnimals	12	2	[0, 0, 0]	n/a	catFR1	2	R1489E
326.823	0.0	331782	PROB	3.684	n/a	n/a	n/a	-999	2	[1, 3, 4]	8.0	catFR1	2	R1489E
326.823	0.001	331783	WORD_OFF	n/a	n/a	LAMB	FarmAnimals	12	2	[0, 0, 0]	n/a	catFR1	2	R1489E
326.824	0.0	331783	ENCODING_END	n/a	n/a	n/a	n/a	-999	2	[0, 0, 0]	n/a	catFR1	2	R1489E
326.824	0.0	331783	DISTRACT_START	n/a	n/a	n/a	n/a	-999	2	[0, 0, 0]	n/a	catFR1	2	R1489E
326.824	3.7	331783	START	n/a	n/a	n/a	n/a	-999	2	[-999, -999, -999]	n/a	catFR1	2	R1489E
330.524	3.434	335483	PROB	3.417	n/a	n/a	n/a	-999	2	[6, 2, 2]	10.0	catFR1	2	R1489E
333.958	3.35	338916	PROB	3.333	n/a	n/a	n/a	-999	2	[1, 2, 7]	10.0	catFR1	2	R1489E
337.308	2.201	342266	PROB	2.183	n/a	n/a	n/a	-999	2	[3, 2, 1]	6.0	catFR1	2	R1489E
339.509	3.483	344467	PROB	3.466	n/a	n/a	n/a	-999	2	[4, 4, 5]	13.0	catFR1	2	R1489E
342.992	8.55	347949	PROB	8.533	n/a	n/a	n/a	-999	2	[8, 8, 1]	17.0	catFR1	2	R1489E
351.542	0.0	356492	DISTRACT_END	n/a	n/a	n/a	n/a	-999	2	[0, 0, 0]	n/a	catFR1	2	R1489E
351.542	2.332	356499	STOP	n/a	n/a	n/a	n/a	-999	2	[-999, -999, -999]	n/a	catFR1	2	R1489E
353.874	1.368	358828	REC_START	n/a	n/a	n/a	n/a	-999	2	[0, 0, 0]	n/a	catFR1	2	R1489E
355.242	0.889	360198	REC_WORD	1.368	n/a	FISH	n/a	-999	2	[0, 0, 0]	n/a	catFR1	2	R1489E
356.131	1.025	361087	REC_WORD	2.257	n/a	LOBSTER	OceanAnimals	4	2	[0, 0, 0]	n/a	catFR1	2	R1489E
357.156	0.948	362112	REC_WORD	3.282	n/a	PLANKTON	OceanAnimals	7	2	[0, 0, 0]	n/a	catFR1	2	R1489E
358.104	1.749	363060	REC_WORD	4.23	n/a	SQUID	OceanAnimals	8	2	[0, 0, 0]	n/a	catFR1	2	R1489E
359.853	0.674	364809	REC_WORD	5.979	n/a	BOAT	Vehicles	5	2	[0, 0, 0]	n/a	catFR1	2	R1489E
360.527	1.338	365483	REC_WORD	6.653	n/a	MOPED	Vehicles	10	2	[0, 0, 0]	n/a	catFR1	2	R1489E
361.865	1.982	366821	REC_WORD	7.991	n/a	VAN	Vehicles	9	2	[0, 0, 0]	n/a	catFR1	2	R1489E
363.847	4.213	368802	REC_WORD	9.973	n/a	BUS	n/a	-999	2	[0, 0, 0]	n/a	catFR1	2	R1489E
368.06	1.65	373015	REC_WORD_VV	14.186	n/a	<>	n/a	-999	2	[0, 0, 0]	n/a	catFR1	2	R1489E
369.71	4.296	374665	REC_WORD_VV	15.836	n/a	<>	n/a	-999	2	[0, 0, 0]	n/a	catFR1	2	R1489E
374.006	5.324	378960	REC_WORD	20.132	n/a	CALF	FarmAnimals	-999	2	[0, 0, 0]	n/a	catFR1	2	R1489E
379.33	4.747	384284	REC_WORD	25.456	n/a	CHICKEN	FarmAnimals	-999	2	[0, 0, 0]	n/a	catFR1	2	R1489E
384.077	15.885	389025	REC_END	n/a	n/a	n/a	n/a	-999	2	[0, 0, 0]	n/a	catFR1	2	R1489E
399.962	10.0	404917	COUNTDOWN_START	n/a	n/a	n/a	n/a	-999	3	[0, 0, 0]	n/a	catFR1	2	R1489E
410.311	0.0	415263	COUNTDOWN_END	n/a	n/a	n/a	n/a	-999	3	[0, 0, 0]	n/a	catFR1	2	R1489E
410.311	2.301	415263	ENCODING_START	n/a	n/a	n/a	n/a	-999	3	[0, 0, 0]	n/a	catFR1	2	R1489E
412.612	1.6	417560	WORD	n/a	wordpools/wordpool_categorized_EN.txt	THUNDERSTORM	Weather	1	3	[0, 0, 0]	n/a	catFR1	2	R1489E
414.228	0.851	419180	WORD_OFF	n/a	n/a	THUNDERSTORM	Weather	1	3	[0, 0, 0]	n/a	catFR1	2	R1489E
415.079	1.6	420030	WORD	n/a	wordpools/wordpool_categorized_EN.txt	THUNDER	Weather	2	3	[0, 0, 0]	n/a	catFR1	2	R1489E
416.695	0.801	421640	WORD_OFF	n/a	n/a	THUNDER	Weather	2	3	[0, 0, 0]	n/a	catFR1	2	R1489E
417.496	1.6	422439	WORD	n/a	wordpools/wordpool_categorized_EN.txt	ROOF	Building	3	3	[0, 0, 0]	n/a	catFR1	2	R1489E
419.096	0.817	424039	WORD_OFF	n/a	n/a	ROOF	Building	3	3	[0, 0, 0]	n/a	catFR1	2	R1489E
419.913	1.6	424859	WORD	n/a	wordpools/wordpool_categorized_EN.txt	HALLWAY	Building	4	3	[0, 0, 0]	n/a	catFR1	2	R1489E
421.513	0.836	426458	WORD_OFF	n/a	n/a	HALLWAY	Building	4	3	[0, 0, 0]	n/a	catFR1	2	R1489E
422.349	1.6	427298	WORD	n/a	wordpools/wordpool_categorized_EN.txt	RUM	Beverages	5	3	[0, 0, 0]	n/a	catFR1	2	R1489E
423.946	0.884	428898	WORD_OFF	n/a	n/a	RUM	Beverages	5	3	[0, 0, 0]	n/a	catFR1	2	R1489E
424.83	1.6	429778	WORD	n/a	wordpools/wordpool_categorized_EN.txt	WINE	Beverages	6	3	[0, 0, 0]	n/a	catFR1	2	R1489E
426.43	0.933	431378	WORD_OFF	n/a	n/a	WINE	Beverages	6	3	[0, 0, 0]	n/a	catFR1	2	R1489E
427.363	1.6	432309	WORD	n/a	wordpools/wordpool_categorized_EN.txt	FOG	Weather	7	3	[0, 0, 0]	n/a	catFR1	2	R1489E
428.98	0.798	433928	WORD_OFF	n/a	n/a	FOG	Weather	7	3	[0, 0, 0]	n/a	catFR1	2	R1489E
429.778	1.6	434728	WORD	n/a	wordpools/wordpool_categorized_EN.txt	RAIN	Weather	8	3	[0, 0, 0]	n/a	catFR1	2	R1489E
431.379	1.0	436327	WORD_OFF	n/a	n/a	RAIN	Weather	8	3	[0, 0, 0]	n/a	catFR1	2	R1489E
432.379	1.6	437330	WORD	n/a	wordpools/wordpool_categorized_EN.txt	LEMONADE	Beverages	9	3	[0, 0, 0]	n/a	catFR1	2	R1489E
433.98	0.767	438929	WORD_OFF	n/a	n/a	LEMONADE	Beverages	9	3	[0, 0, 0]	n/a	catFR1	2	R1489E
434.747	1.6	439688	WORD	n/a	wordpools/wordpool_categorized_EN.txt	COLA	Beverages	10	3	[0, 0, 0]	n/a	catFR1	2	R1489E
436.363	0.816	441308	WORD_OFF	n/a	n/a	COLA	Beverages	10	3	[0, 0, 0]	n/a	catFR1	2	R1489E
437.179	1.6	442128	WORD	n/a	wordpools/wordpool_categorized_EN.txt	CEILING	Building	11	3	[0, 0, 0]	n/a	catFR1	2	R1489E
438.78	0.817	443727	WORD_OFF	n/a	n/a	CEILING	Building	11	3	[0, 0, 0]	n/a	catFR1	2	R1489E
439.597	1.6	444537	WORD	n/a	wordpools/wordpool_categorized_EN.txt	BATHROOM	Building	12	3	[0, 0, 0]	n/a	catFR1	2	R1489E
441.198	0.001	446146	WORD_OFF	n/a	n/a	BATHROOM	Building	12	3	[0, 0, 0]	n/a	catFR1	2	R1489E
441.199	0.0	446146	ENCODING_END	n/a	n/a	n/a	n/a	-999	3	[0, 0, 0]	n/a	catFR1	2	R1489E
441.199	0.0	446146	DISTRACT_START	n/a	n/a	n/a	n/a	-999	3	[0, 0, 0]	n/a	catFR1	2	R1489E
441.198	0.001	446146	PROB	4.132	n/a	n/a	n/a	-999	3	[7, 3, 2]	12.0	catFR1	2	R1489E
441.199	4.148	446147	START	n/a	n/a	n/a	n/a	-999	3	[-999, -999, -999]	n/a	catFR1	2	R1489E
445.347	3.551	450294	PROB	3.534	n/a	n/a	n/a	-999	3	[8, 2, 6]	16.0	catFR1	2	R1489E
448.898	3.102	453845	PROB	3.083	n/a	n/a	n/a	-999	3	[8, 6, 3]	17.0	catFR1	2	R1489E
452.0	3.449	456947	PROB	3.434	n/a	n/a	n/a	-999	3	[7, 8, 1]	16.0	catFR1	2	R1489E
455.449	2.767	460395	PROB	2.749	n/a	n/a	n/a	-999	3	[3, 3, 7]	13.0	catFR1	2	R1489E
458.216	2.817	463162	PROB	2.8	n/a	n/a	n/a	-999	3	[1, 2, 7]	10.0	catFR1	2	R1489E
461.033	2.982	465979	PROB	2.966	n/a	n/a	n/a	-999	3	[3, 2, 8]	13.0	catFR1	2	R1489E
464.015	0.0	468960	STOP	n/a	n/a	n/a	n/a	-999	3	[-999, -999, -999]	n/a	catFR1	2	R1489E
464.015	2.367	468962	DISTRACT_END	n/a	n/a	n/a	n/a	-999	3	[0, 0, 0]	n/a	catFR1	2	R1489E
466.382	2.386	471329	REC_START	n/a	n/a	n/a	n/a	-999	3	[0, 0, 0]	n/a	catFR1	2	R1489E
468.768	0.72	473713	REC_WORD	2.386	n/a	THUNDER	Weather	2	3	[0, 0, 0]	n/a	catFR1	2	R1489E
469.488	1.387	474433	REC_WORD	3.106	n/a	THUNDERSTORM	Weather	1	3	[0, 0, 0]	n/a	catFR1	2	R1489E
470.875	1.149	475820	REC_WORD	4.493	n/a	FOG	Weather	7	3	[0, 0, 0]	n/a	catFR1	2	R1489E
472.024	1.74	476969	REC_WORD	5.642	n/a	RAIN	Weather	8	3	[0, 0, 0]	n/a	catFR1	2	R1489E
473.764	2.811	478709	REC_WORD	7.382	n/a	ROOF	Building	3	3	[0, 0, 0]	n/a	catFR1	2	R1489E
476.575	2.725	481519	REC_WORD	10.193	n/a	BASEMENT	n/a	-999	3	[0, 0, 0]	n/a	catFR1	2	R1489E
479.3	0.903	484244	REC_WORD	12.918	n/a	FLOOR	n/a	-999	3	[0, 0, 0]	n/a	catFR1	2	R1489E
480.203	2.555	485147	REC_WORD	13.821	n/a	STAIRS	n/a	-999	3	[0, 0, 0]	n/a	catFR1	2	R1489E
482.758	1.783	487702	REC_WORD	16.376	n/a	WINE	Beverages	6	3	[0, 0, 0]	n/a	catFR1	2	R1489E
484.541	1.26	489484	REC_WORD	18.159	n/a	BEER	n/a	-999	3	[0, 0, 0]	n/a	catFR1	2	R1489E
485.801	3.338	490744	REC_WORD	19.419	n/a	LEMONADE	Beverages	9	3	[0, 0, 0]	n/a	catFR1	2	R1489E
489.139	6.481	494082	REC_WORD	22.757	n/a	RUM	Beverages	5	3	[0, 0, 0]	n/a	catFR1	2	R1489E
495.62	0.964	500562	REC_WORD	29.238	n/a	HURRICANE	n/a	-999	3	[0, 0, 0]	n/a	catFR1	2	R1489E
496.584	5.884	501526	REC_END	n/a	n/a	n/a	n/a	-999	3	[0, 0, 0]	n/a	catFR1	2	R1489E
502.468	10.0	507407	COUNTDOWN_START	n/a	n/a	n/a	n/a	-999	4	[0, 0, 0]	n/a	catFR1	2	R1489E
512.818	0.0	517752	COUNTDOWN_END	n/a	n/a	n/a	n/a	-999	4	[0, 0, 0]	n/a	catFR1	2	R1489E
512.818	2.017	517752	ENCODING_START	n/a	n/a	n/a	n/a	-999	4	[0, 0, 0]	n/a	catFR1	2	R1489E
514.835	1.6	519767	WORD	n/a	wordpools/wordpool_categorized_EN.txt	HEADPHONES	Electronics	1	4	[0, 0, 0]	n/a	catFR1	2	R1489E
516.435	0.967	521376	WORD_OFF	n/a	n/a	HEADPHONES	Electronics	1	4	[0, 0, 0]	n/a	catFR1	2	R1489E
517.402	1.6	522338	WORD	n/a	wordpools/wordpool_categorized_EN.txt	SCANNER	Electronics	2	4	[0, 0, 0]	n/a	catFR1	2	R1489E
519.003	0.766	523937	WORD_OFF	n/a	n/a	SCANNER	Electronics	2	4	[0, 0, 0]	n/a	catFR1	2	R1489E
519.769	1.6	524706	WORD	n/a	wordpools/wordpool_categorized_EN.txt	ORANGUTAN	Zoo	3	4	[0, 0, 0]	n/a	catFR1	2	R1489E
521.386	1.0	526326	WORD_OFF	n/a	n/a	ORANGUTAN	Zoo	3	4	[0, 0, 0]	n/a	catFR1	2	R1489E
522.386	1.6	527318	WORD	n/a	wordpools/wordpool_categorized_EN.txt	CHEETAH	Zoo	4	4	[0, 0, 0]	n/a	catFR1	2	R1489E
523.986	0.884	528917	WORD_OFF	n/a	n/a	CHEETAH	Zoo	4	4	[0, 0, 0]	n/a	catFR1	2	R1489E
524.87	1.6	529808	WORD	n/a	wordpools/wordpool_categorized_EN.txt	FORK	KitchenTools	5	4	[0, 0, 0]	n/a	catFR1	2	R1489E
526.47	0.949	531408	WORD_OFF	n/a	n/a	FORK	KitchenTools	5	4	[0, 0, 0]	n/a	catFR1	2	R1489E
527.419	1.6	532359	WORD	n/a	wordpools/wordpool_categorized_EN.txt	PEELER	KitchenTools	6	4	[0, 0, 0]	n/a	catFR1	2	R1489E
529.036	0.934	533968	WORD_OFF	n/a	n/a	PEELER	KitchenTools	6	4	[0, 0, 0]	n/a	catFR1	2	R1489E
529.97	1.6	534910	WORD	n/a	wordpools/wordpool_categorized_EN.txt	ZEBRA	Zoo	7	4	[0, 0, 0]	n/a	catFR1	2	R1489E
531.57	0.866	536509	WORD_OFF	n/a	n/a	ZEBRA	Zoo	7	4	[0, 0, 0]	n/a	catFR1	2	R1489E
532.436	1.6	537370	WORD	n/a	wordpools/wordpool_categorized_EN.txt	LION	Zoo	8	4	[0, 0, 0]	n/a	catFR1	2	R1489E
534.037	0.899	538969	WORD_OFF	n/a	n/a	LION	Zoo	8	4	[0, 0, 0]	n/a	catFR1	2	R1489E
534.936	1.6	539870	WORD	n/a	wordpools/wordpool_categorized_EN.txt	COLANDER	KitchenTools	9	4	[0, 0, 0]	n/a	catFR1	2	R1489E
536.536	0.933	541469	WORD_OFF	n/a	n/a	COLANDER	KitchenTools	9	4	[0, 0, 0]	n/a	catFR1	2	R1489E
537.469	1.6	542400	WORD	n/a	wordpools/wordpool_categorized_EN.txt	SPOON	KitchenTools	10	4	[0, 0, 0]	n/a	catFR1	2	R1489E
539.07	0.883	544000	WORD_OFF	n/a	n/a	SPOON	KitchenTools	10	4	[0, 0, 0]	n/a	catFR1	2	R1489E
539.953	1.6	544891	WORD	n/a	wordpools/wordpool_categorized_EN.txt	STEREO	Electronics	11	4	[0, 0, 0]	n/a	catFR1	2	R1489E
541.553	0.883	546490	WORD_OFF	n/a	n/a	STEREO	Electronics	11	4	[0, 0, 0]	n/a	catFR1	2	R1489E
542.436	1.6	547371	WORD	n/a	wordpools/wordpool_categorized_EN.txt	TABLET	Electronics	12	4	[0, 0, 0]	n/a	catFR1	2	R1489E
544.037	0.0	548970	WORD_OFF	n/a	n/a	TABLET	Electronics	12	4	[0, 0, 0]	n/a	catFR1	2	R1489E
544.037	0.005	548974	PROB	2.967	n/a	n/a	n/a	-999	4	[6, 2, 1]	9.0	catFR1	2	R1489E
544.042	0.0	548979	START	n/a	n/a	n/a	n/a	-999	4	[-999, -999, -999]	n/a	catFR1	2	R1489E
544.042	0.0	548980	ENCODING_END	n/a	n/a	n/a	n/a	-999	4	[0, 0, 0]	n/a	catFR1	2	R1489E
544.042	2.98	548980	DISTRACT_START	n/a	n/a	n/a	n/a	-999	4	[0, 0, 0]	n/a	catFR1	2	R1489E
547.022	2.683	551959	PROB	2.666	n/a	n/a	n/a	-999	4	[2, 4, 3]	9.0	catFR1	2	R1489E
549.705	3.067	554642	PROB	3.049	n/a	n/a	n/a	-999	4	[6, 5, 5]	16.0	catFR1	2	R1489E
552.772	3.6	557709	PROB	3.582	n/a	n/a	n/a	-999	4	[4, 3, 7]	14.0	catFR1	2	R1489E
556.372	3.817	561308	PROB	3.8	n/a	n/a	n/a	-999	4	[3, 3, 4]	10.0	catFR1	2	R1489E
560.189	2.667	565125	PROB	2.65	n/a	n/a	n/a	-999	4	[1, 8, 2]	11.0	catFR1	2	R1489E
562.856	2.532	567792	PROB	2.516	n/a	n/a	n/a	-999	4	[3, 3, 1]	7.0	catFR1	2	R1489E
565.388	0.0	570318	DISTRACT_END	n/a	n/a	n/a	n/a	-999	4	[0, 0, 0]	n/a	catFR1	2	R1489E
565.388	2.301	570323	STOP	n/a	n/a	n/a	n/a	-999	4	[-999, -999, -999]	n/a	catFR1	2	R1489E
567.689	1.781	572624	REC_START	n/a	n/a	n/a	n/a	-999	4	[0, 0, 0]	n/a	catFR1	2	R1489E
569.47	0.978	574405	REC_WORD	1.781	n/a	CHEETAH	Zoo	4	4	[0, 0, 0]	n/a	catFR1	2	R1489E
570.448	1.0	575383	REC_WORD	2.759	n/a	LION	Zoo	8	4	[0, 0, 0]	n/a	catFR1	2	R1489E
571.448	1.88	576383	REC_WORD_VV	3.759	n/a	<>	n/a	-999	4	[0, 0, 0]	n/a	catFR1	2	R1489E
573.328	1.366	578263	REC_WORD	5.639	n/a	GIRAFFE	n/a	-999	4	[0, 0, 0]	n/a	catFR1	2	R1489E
574.694	0.855	579628	REC_WORD	7.005	n/a	HEADPHONES	Electronics	1	4	[0, 0, 0]	n/a	catFR1	2	R1489E
575.549	1.227	580483	REC_WORD	7.86	n/a	STEREO	Electronics	11	4	[0, 0, 0]	n/a	catFR1	2	R1489E
576.776	4.574	581710	REC_WORD	9.087	n/a	SCANNER	Electronics	2	4	[0, 0, 0]	n/a	catFR1	2	R1489E
581.35	4.057	586284	REC_WORD	13.661	n/a	ORANGUTAN	Zoo	3	4	[0, 0, 0]	n/a	catFR1	2	R1489E
585.407	1.108	590340	REC_WORD	17.718	n/a	SPOON	KitchenTools	10	4	[0, 0, 0]	n/a	catFR1	2	R1489E
586.515	1.833	591448	REC_WORD	18.826	n/a	COLANDER	KitchenTools	9	4	[0, 0, 0]	n/a	catFR1	2	R1489E
588.348	6.098	593281	REC_WORD	20.659	n/a	PEELER	KitchenTools	6	4	[0, 0, 0]	n/a	catFR1	2	R1489E
594.446	3.477	599379	REC_WORD	26.757	n/a	PAN	n/a	-999	4	[0, 0, 0]	n/a	catFR1	2	R1489E
597.923	3.751	602852	REC_END	n/a	n/a	n/a	n/a	-999	4	[0, 0, 0]	n/a	catFR1	2	R1489E
601.674	10.0	606607	COUNTDOWN_START	n/a	n/a	n/a	n/a	-999	5	[0, 0, 0]	n/a	catFR1	2	R1489E
612.024	0.0	616952	COUNTDOWN_END	n/a	n/a	n/a	n/a	-999	5	[0, 0, 0]	n/a	catFR1	2	R1489E
612.024	2.07	616952	ENCODING_START	n/a	n/a	n/a	n/a	-999	5	[0, 0, 0]	n/a	catFR1	2	R1489E
614.094	1.6	619017	WORD	n/a	wordpools/wordpool_categorized_EN.txt	FOOTBALL	Toys	1	5	[0, 0, 0]	n/a	catFR1	2	R1489E
615.708	1.0	620637	WORD_OFF	n/a	n/a	FOOTBALL	Toys	1	5	[0, 0, 0]	n/a	catFR1	2	R1489E
616.708	1.6	621639	WORD	n/a	wordpools/wordpool_categorized_EN.txt	FRISBEE	Toys	2	5	[0, 0, 0]	n/a	catFR1	2	R1489E
618.309	0.95	623238	WORD_OFF	n/a	n/a	FRISBEE	Toys	2	5	[0, 0, 0]	n/a	catFR1	2	R1489E
619.259	1.6	624190	WORD	n/a	wordpools/wordpool_categorized_EN.txt	MOSQUITO	Insects	3	5	[0, 0, 0]	n/a	catFR1	2	R1489E
620.859	0.817	625789	WORD_OFF	n/a	n/a	MOSQUITO	Insects	3	5	[0, 0, 0]	n/a	catFR1	2	R1489E
621.676	1.6	626599	WORD	n/a	wordpools/wordpool_categorized_EN.txt	FLY	Insects	4	5	[0, 0, 0]	n/a	catFR1	2	R1489E
623.291	0.985	628219	WORD_OFF	n/a	n/a	FLY	Insects	4	5	[0, 0, 0]	n/a	catFR1	2	R1489E
624.276	1.6	629200	WORD	n/a	wordpools/wordpool_categorized_EN.txt	MONKEY	Zoo	5	5	[0, 0, 0]	n/a	catFR1	2	R1489E
625.891	0.968	630820	WORD_OFF	n/a	n/a	MONKEY	Zoo	5	5	[0, 0, 0]	n/a	catFR1	2	R1489E
626.859	1.6	631782	WORD	n/a	wordpools/wordpool_categorized_EN.txt	ELEPHANT	Zoo	6	5	[0, 0, 0]	n/a	catFR1	2	R1489E
628.476	0.782	633401	WORD_OFF	n/a	n/a	ELEPHANT	Zoo	6	5	[0, 0, 0]	n/a	catFR1	2	R1489E
629.258	1.6	634181	WORD	n/a	wordpools/wordpool_categorized_EN.txt	GNAT	Insects	7	5	[0, 0, 0]	n/a	catFR1	2	R1489E
630.859	0.966	635780	WORD_OFF	n/a	n/a	GNAT	Insects	7	5	[0, 0, 0]	n/a	catFR1	2	R1489E
631.825	1.6	636752	WORD	n/a	wordpools/wordpool_categorized_EN.txt	BUTTERFLY	Insects	8	5	[0, 0, 0]	n/a	catFR1	2	R1489E
633.442	0.917	638371	WORD_OFF	n/a	n/a	BUTTERFLY	Insects	8	5	[0, 0, 0]	n/a	catFR1	2	R1489E
634.359	1.6	639282	WORD	n/a	wordpools/wordpool_categorized_EN.txt	GORILLA	Zoo	9	5	[0, 0, 0]	n/a	catFR1	2	R1489E
635.96	1.0	640882	WORD_OFF	n/a	n/a	GORILLA	Zoo	9	5	[0, 0, 0]	n/a	catFR1	2	R1489E
636.96	1.6	641884	WORD	n/a	wordpools/wordpool_categorized_EN.txt	PANDA	Zoo	10	5	[0, 0, 0]	n/a	catFR1	2	R1489E
638.577	0.966	643503	WORD_OFF	n/a	n/a	PANDA	Zoo	10	5	[0, 0, 0]	n/a	catFR1	2	R1489E
639.543	1.6	644465	WORD	n/a	wordpools/wordpool_categorized_EN.txt	SLINKY	Toys	11	5	[0, 0, 0]	n/a	catFR1	2	R1489E
641.143	0.85	646064	WORD_OFF	n/a	n/a	SLINKY	Toys	11	5	[0, 0, 0]	n/a	catFR1	2	R1489E
641.993	1.6	646915	WORD	n/a	wordpools/wordpool_categorized_EN.txt	BARBIE	Toys	12	5	[0, 0, 0]	n/a	catFR1	2	R1489E
643.609	0.002	648534	WORD_OFF	n/a	n/a	BARBIE	Toys	12	5	[0, 0, 0]	n/a	catFR1	2	R1489E
643.611	0.0	648534	ENCODING_END	n/a	n/a	n/a	n/a	-999	5	[0, 0, 0]	n/a	catFR1	2	R1489E
643.611	0.0	648534	DISTRACT_START	n/a	n/a	n/a	n/a	-999	5	[0, 0, 0]	n/a	catFR1	2	R1489E
643.61	0.001	648538	PROB	2.617	n/a	n/a	n/a	-999	5	[2, 3, 4]	9.0	catFR1	2	R1489E
643.611	2.634	648539	START	n/a	n/a	n/a	n/a	-999	5	[-999, -999, -999]	n/a	catFR1	2	R1489E
646.245	3.333	651172	PROB	3.316	n/a	n/a	n/a	-999	5	[4, 1, 2]	7.0	catFR1	2	R1489E
649.578	4.501	654505	PROB	4.483	n/a	n/a	n/a	-999	5	[8, 4, 7]	19.0	catFR1	2	R1489E
654.079	2.716	659006	PROB	2.698	n/a	n/a	n/a	-999	5	[7, 3, 2]	12.0	catFR1	2	R1489E
656.795	3.734	661721	PROB	3.717	n/a	n/a	n/a	-999	5	[7, 5, 2]	14.0	catFR1	2	R1489E
660.529	3.883	665455	PROB	3.866	n/a	n/a	n/a	-999	5	[3, 2, 4]	9.0	catFR1	2	R1489E
664.412	0.0	669336	DISTRACT_END	n/a	n/a	n/a	n/a	-999	5	[0, 0, 0]	n/a	catFR1	2	R1489E
664.412	2.016	669337	STOP	n/a	n/a	n/a	n/a	-999	5	[-999, -999, -999]	n/a	catFR1	2	R1489E
666.428	0.878	671348	REC_START	n/a	n/a	n/a	n/a	-999	5	[0, 0, 0]	n/a	catFR1	2	R1489E
667.306	0.772	672231	REC_WORD	0.878	n/a	BARBIE	Toys	12	5	[0, 0, 0]	n/a	catFR1	2	R1489E
668.078	0.912	673003	REC_WORD	1.65	n/a	FRISBEE	Toys	2	5	[0, 0, 0]	n/a	catFR1	2	R1489E
668.99	0.919	673915	REC_WORD	2.562	n/a	FOOTBALL	Toys	1	5	[0, 0, 0]	n/a	catFR1	2	R1489E
669.909	0.95	674834	REC_WORD	3.481	n/a	SLINKY	Toys	11	5	[0, 0, 0]	n/a	catFR1	2	R1489E
670.859	2.783	675784	REC_WORD	4.431	n/a	ORANGUTAN	Zoo	-999	5	[0, 0, 0]	n/a	catFR1	2	R1489E
673.642	1.023	678567	REC_WORD	7.214	n/a	GORILLA	Zoo	9	5	[0, 0, 0]	n/a	catFR1	2	R1489E
674.665	8.867	679590	REC_WORD	8.237	n/a	MONKEY	Zoo	5	5	[0, 0, 0]	n/a	catFR1	2	R1489E
683.532	0.738	688456	REC_WORD_VV	17.104	n/a	<>	n/a	-999	5	[0, 0, 0]	n/a	catFR1	2	R1489E
684.27	0.899	689194	REC_WORD	17.842	n/a	MOSQUITO	Insects	3	5	[0, 0, 0]	n/a	catFR1	2	R1489E
685.169	0.98	690093	REC_WORD	18.741	n/a	GNAT	Insects	7	5	[0, 0, 0]	n/a	catFR1	2	R1489E
686.149	2.972	691072	REC_WORD	19.721	n/a	BUTTERFLY	Insects	8	5	[0, 0, 0]	n/a	catFR1	2	R1489E
689.121	7.555	694044	REC_WORD	22.693	n/a	FLY	Insects	4	5	[0, 0, 0]	n/a	catFR1	2	R1489E
696.676	2.738	701596	REC_END	n/a	n/a	n/a	n/a	-999	5	[0, 0, 0]	n/a	catFR1	2	R1489E
699.414	10.0	704329	COUNTDOWN_START	n/a	n/a	n/a	n/a	-999	6	[0, 0, 0]	n/a	catFR1	2	R1489E
709.764	0.0	714684	COUNTDOWN_END	n/a	n/a	n/a	n/a	-999	6	[0, 0, 0]	n/a	catFR1	2	R1489E
709.764	2.084	714684	ENCODING_START	n/a	n/a	n/a	n/a	-999	6	[0, 0, 0]	n/a	catFR1	2	R1489E
711.848	1.6	716770	WORD	n/a	wordpools/wordpool_categorized_EN.txt	WHALE	OceanAnimals	1	6	[0, 0, 0]	n/a	catFR1	2	R1489E
713.448	1.0	718369	WORD_OFF	n/a	n/a	WHALE	OceanAnimals	1	6	[0, 0, 0]	n/a	catFR1	2	R1489E
714.448	1.6	719361	WORD	n/a	wordpools/wordpool_categorized_EN.txt	OCTOPUS	OceanAnimals	2	6	[0, 0, 0]	n/a	catFR1	2	R1489E
716.065	0.966	720981	WORD_OFF	n/a	n/a	OCTOPUS	OceanAnimals	2	6	[0, 0, 0]	n/a	catFR1	2	R1489E
717.031	1.6	721952	WORD	n/a	wordpools/wordpool_categorized_EN.txt	LEATHER	Fabric	3	6	[0, 0, 0]	n/a	catFR1	2	R1489E
718.631	0.984	723552	WORD_OFF	n/a	n/a	LEATHER	Fabric	3	6	[0, 0, 0]	n/a	catFR1	2	R1489E
719.615	1.6	724534	WORD	n/a	wordpools/wordpool_categorized_EN.txt	LINEN	Fabric	4	6	[0, 0, 0]	n/a	catFR1	2	R1489E
721.215	0.767	726133	WORD_OFF	n/a	n/a	LINEN	Fabric	4	6	[0, 0, 0]	n/a	catFR1	2	R1489E
721.982	1.6	726902	WORD	n/a	wordpools/wordpool_categorized_EN.txt	EVERGREEN	Trees	5	6	[0, 0, 0]	n/a	catFR1	2	R1489E
723.599	0.782	728512	WORD_OFF	n/a	n/a	EVERGREEN	Trees	5	6	[0, 0, 0]	n/a	catFR1	2	R1489E
724.381	1.6	729301	WORD	n/a	wordpools/wordpool_categorized_EN.txt	PINE	Trees	6	6	[0, 0, 0]	n/a	catFR1	2	R1489E
725.981	0.984	730901	WORD_OFF	n/a	n/a	PINE	Trees	6	6	[0, 0, 0]	n/a	catFR1	2	R1489E
726.965	1.6	731882	WORD	n/a	wordpools/wordpool_categorized_EN.txt	FISH	OceanAnimals	7	6	[0, 0, 0]	n/a	catFR1	2	R1489E
728.582	0.966	733502	WORD_OFF	n/a	n/a	FISH	OceanAnimals	7	6	[0, 0, 0]	n/a	catFR1	2	R1489E
729.548	1.6	734464	WORD	n/a	wordpools/wordpool_categorized_EN.txt	SHRIMP	OceanAnimals	8	6	[0, 0, 0]	n/a	catFR1	2	R1489E
731.151	0.798	736063	WORD_OFF	n/a	n/a	SHRIMP	OceanAnimals	8	6	[0, 0, 0]	n/a	catFR1	2	R1489E
731.949	1.6	736863	WORD	n/a	wordpools/wordpool_categorized_EN.txt	SUEDE	Fabric	9	6	[0, 0, 0]	n/a	catFR1	2	R1489E
733.566	0.816	738482	WORD_OFF	n/a	n/a	SUEDE	Fabric	9	6	[0, 0, 0]	n/a	catFR1	2	R1489E
734.382	1.6	739302	WORD	n/a	wordpools/wordpool_categorized_EN.txt	SPANDEX	Fabric	10	6	[0, 0, 0]	n/a	catFR1	2	R1489E
735.999	0.951	740922	WORD_OFF	n/a	n/a	SPANDEX	Fabric	10	6	[0, 0, 0]	n/a	catFR1	2	R1489E
736.95	1.6	741863	WORD	n/a	wordpools/wordpool_categorized_EN.txt	CEDAR	Trees	11	6	[0, 0, 0]	n/a	catFR1	2	R1489E
738.549	0.951	743463	WORD_OFF	n/a	n/a	CEDAR	Trees	11	6	[0, 0, 0]	n/a	catFR1	2	R1489E
739.5	1.6	744414	WORD	n/a	wordpools/wordpool_categorized_EN.txt	OAK	Trees	12	6	[0, 0, 0]	n/a	catFR1	2	R1489E
741.1	0.001	746013	WORD_OFF	n/a	n/a	OAK	Trees	12	6	[0, 0, 0]	n/a	catFR1	2	R1489E
741.101	0.0	746013	ENCODING_END	n/a	n/a	n/a	n/a	-999	6	[0, 0, 0]	n/a	catFR1	2	R1489E
741.1	0.001	746018	PROB	4.016	n/a	n/a	n/a	-999	6	[5, 5, 6]	16.0	catFR1	2	R1489E
741.101	0.0	746019	START	n/a	n/a	n/a	n/a	-999	6	[-999, -999, -999]	n/a	catFR1	2	R1489E
741.101	4.032	746024	DISTRACT_START	n/a	n/a	n/a	n/a	-999	6	[0, 0, 0]	n/a	catFR1	2	R1489E
745.133	3.118	750050	PROB	3.099	n/a	n/a	n/a	-999	6	[1, 6, 4]	11.0	catFR1	2	R1489E
748.251	3.233	753168	PROB	3.216	n/a	n/a	n/a	-999	6	[8, 7, 2]	17.0	catFR1	2	R1489E
751.484	2.733	756401	PROB	2.716	n/a	n/a	n/a	-999	6	[2, 1, 4]	7.0	catFR1	2	R1489E
754.217	3.335	759134	PROB	3.316	n/a	n/a	n/a	-999	6	[6, 5, 5]	16.0	catFR1	2	R1489E
757.552	2.882	762468	PROB	2.866	n/a	n/a	n/a	-999	6	[1, 3, 6]	10.0	catFR1	2	R1489E
760.434	2.567	765350	PROB	2.549	n/a	n/a	n/a	-999	6	[6, 1, 3]	10.0	catFR1	2	R1489E
763.001	0.0	767917	STOP	n/a	n/a	n/a	n/a	-999	6	[-999, -999, -999]	n/a	catFR1	2	R1489E
763.001	2.284	767918	DISTRACT_END	n/a	n/a	n/a	n/a	-999	6	[0, 0, 0]	n/a	catFR1	2	R1489E
765.285	2.288	770194	REC_START	n/a	n/a	n/a	n/a	-999	6	[0, 0, 0]	n/a	catFR1	2	R1489E
767.573	1.881	772488	REC_WORD_VV	2.288	n/a	<>	n/a	-999	6	[0, 0, 0]	n/a	catFR1	2	R1489E
769.454	2.089	774369	REC_WORD	4.169	n/a	EVERGREEN	Trees	5	6	[0, 0, 0]	n/a	catFR1	2	R1489E
771.543	1.398	776458	REC_WORD	6.258	n/a	OAK	Trees	12	6	[0, 0, 0]	n/a	catFR1	2	R1489E
772.941	4.759	777856	REC_WORD	7.656	n/a	CEDAR	Trees	11	6	[0, 0, 0]	n/a	catFR1	2	R1489E
777.7	3.269	782614	REC_WORD	12.415	n/a	OCTOPUS	OceanAnimals	2	6	[0, 0, 0]	n/a	catFR1	2	R1489E
780.969	6.485	785883	REC_WORD	15.684	n/a	FISH	OceanAnimals	7	6	[0, 0, 0]	n/a	catFR1	2	R1489E
787.454	4.823	792367	REC_WORD	22.169	n/a	GORILLA	Zoo	-999	6	[0, 0, 0]	n/a	catFR1	2	R1489E
792.277	1.373	797190	REC_WORD	26.992	n/a	SUEDE	Fabric	9	6	[0, 0, 0]	n/a	catFR1	2	R1489E
793.65	1.863	798563	REC_WORD	28.365	n/a	SATIN	n/a	-999	6	[0, 0, 0]	n/a	catFR1	2	R1489E
795.513	6.073	800422	REC_END	n/a	n/a	n/a	n/a	-999	6	[0, 0, 0]	n/a	catFR1	2	R1489E
801.586	10.0	806495	COUNTDOWN_START	n/a	n/a	n/a	n/a	-999	7	[0, 0, 0]	n/a	catFR1	2	R1489E
811.938	0.0	816850	COUNTDOWN_END	n/a	n/a	n/a	n/a	-999	7	[0, 0, 0]	n/a	catFR1	2	R1489E
811.938	2.149	816850	ENCODING_START	n/a	n/a	n/a	n/a	-999	7	[0, 0, 0]	n/a	catFR1	2	R1489E
814.087	1.6	818996	WORD	n/a	wordpools/wordpool_categorized_EN.txt	SPEAKER	Electronics	1	7	[0, 0, 0]	n/a	catFR1	2	R1489E
815.704	0.798	820606	WORD_OFF	n/a	n/a	SPEAKER	Electronics	1	7	[0, 0, 0]	n/a	catFR1	2	R1489E
816.502	1.6	821405	WORD	n/a	wordpools/wordpool_categorized_EN.txt	RADIO	Electronics	2	7	[0, 0, 0]	n/a	catFR1	2	R1489E
818.103	0.935	823005	WORD_OFF	n/a	n/a	RADIO	Electronics	2	7	[0, 0, 0]	n/a	catFR1	2	R1489E
819.038	1.6	823946	WORD	n/a	wordpools/wordpool_categorized_EN.txt	JELLYFISH	OceanAnimals	3	7	[0, 0, 0]	n/a	catFR1	2	R1489E
820.654	0.9	825556	WORD_OFF	n/a	n/a	JELLYFISH	OceanAnimals	3	7	[0, 0, 0]	n/a	catFR1	2	R1489E
821.554	1.6	826456	WORD	n/a	wordpools/wordpool_categorized_EN.txt	OYSTER	OceanAnimals	4	7	[0, 0, 0]	n/a	catFR1	2	R1489E
823.154	0.767	828066	WORD_OFF	n/a	n/a	OYSTER	OceanAnimals	4	7	[0, 0, 0]	n/a	catFR1	2	R1489E
823.921	1.6	828825	WORD	n/a	wordpools/wordpool_categorized_EN.txt	PUZZLE	Toys	5	7	[0, 0, 0]	n/a	catFR1	2	R1489E
825.538	0.966	830445	WORD_OFF	n/a	n/a	PUZZLE	Toys	5	7	[0, 0, 0]	n/a	catFR1	2	R1489E
826.504	1.6	831406	WORD	n/a	wordpools/wordpool_categorized_EN.txt	BASKETBALL	Toys	6	7	[0, 0, 0]	n/a	catFR1	2	R1489E
828.104	0.933	833006	WORD_OFF	n/a	n/a	BASKETBALL	Toys	6	7	[0, 0, 0]	n/a	catFR1	2	R1489E
829.037	1.6	833947	WORD	n/a	wordpools/wordpool_categorized_EN.txt	TELEVISION	Electronics	7	7	[0, 0, 0]	n/a	catFR1	2	R1489E
830.653	0.901	835557	WORD_OFF	n/a	n/a	TELEVISION	Electronics	7	7	[0, 0, 0]	n/a	catFR1	2	R1489E
831.554	1.6	836457	WORD	n/a	wordpools/wordpool_categorized_EN.txt	PHONE	Electronics	8	7	[0, 0, 0]	n/a	catFR1	2	R1489E
833.155	0.832	838067	WORD_OFF	n/a	n/a	PHONE	Electronics	8	7	[0, 0, 0]	n/a	catFR1	2	R1489E
833.987	1.6	838897	WORD	n/a	wordpools/wordpool_categorized_EN.txt	BALL	Toys	9	7	[0, 0, 0]	n/a	catFR1	2	R1489E
835.588	0.918	840496	WORD_OFF	n/a	n/a	BALL	Toys	9	7	[0, 0, 0]	n/a	catFR1	2	R1489E
836.506	1.6	841407	WORD	n/a	wordpools/wordpool_categorized_EN.txt	DOLL	Toys	10	7	[0, 0, 0]	n/a	catFR1	2	R1489E
838.106	0.982	843007	WORD_OFF	n/a	n/a	DOLL	Toys	10	7	[0, 0, 0]	n/a	catFR1	2	R1489E
839.088	1.6	843988	WORD	n/a	wordpools/wordpool_categorized_EN.txt	CRAB	OceanAnimals	11	7	[0, 0, 0]	n/a	catFR1	2	R1489E
840.704	0.933	845608	WORD_OFF	n/a	n/a	CRAB	OceanAnimals	11	7	[0, 0, 0]	n/a	catFR1	2	R1489E
841.637	1.6	846539	WORD	n/a	wordpools/wordpool_categorized_EN.txt	DOLPHIN	OceanAnimals	12	7	[0, 0, 0]	n/a	catFR1	2	R1489E
843.237	0.001	848139	WORD_OFF	n/a	n/a	DOLPHIN	OceanAnimals	12	7	[0, 0, 0]	n/a	catFR1	2	R1489E
843.238	0.0	848139	ENCODING_END	n/a	n/a	n/a	n/a	-999	7	[0, 0, 0]	n/a	catFR1	2	R1489E
843.238	0.001	848146	PROB	4.451	n/a	n/a	n/a	-999	7	[4, 8, 6]	18.0	catFR1	2	R1489E
843.239	0.0	848147	START	n/a	n/a	n/a	n/a	-999	7	[-999, -999, -999]	n/a	catFR1	2	R1489E
843.239	4.467	848149	DISTRACT_START	n/a	n/a	n/a	n/a	-999	7	[0, 0, 0]	n/a	catFR1	2	R1489E
847.706	2.883	852613	PROB	2.865	n/a	n/a	n/a	-999	7	[3, 8, 3]	14.0	catFR1	2	R1489E
850.589	2.785	855496	PROB	2.768	n/a	n/a	n/a	-999	7	[6, 8, 3]	17.0	catFR1	2	R1489E
853.374	2.548	858281	PROB	2.532	n/a	n/a	n/a	-999	7	[6, 6, 1]	13.0	catFR1	2	R1489E
855.922	3.152	860828	PROB	3.135	n/a	n/a	n/a	-999	7	[4, 7, 8]	19.0	catFR1	2	R1489E
859.074	3.05	863980	PROB	3.032	n/a	n/a	n/a	-999	7	[8, 3, 8]	19.0	catFR1	2	R1489E
862.124	2.533	867030	PROB	2.517	n/a	n/a	n/a	-999	7	[1, 5, 4]	10.0	catFR1	2	R1489E
864.657	0.0	869558	DISTRACT_END	n/a	n/a	n/a	n/a	-999	7	[0, 0, 0]	n/a	catFR1	2	R1489E
864.657	2.333	869563	STOP	n/a	n/a	n/a	n/a	-999	7	[-999, -999, -999]	n/a	catFR1	2	R1489E
866.99	0.601	871894	REC_START	n/a	n/a	n/a	n/a	-999	7	[0, 0, 0]	n/a	catFR1	2	R1489E
867.591	2.847	872496	REC_WORD_VV	0.601	n/a	<>	n/a	-999	7	[0, 0, 0]	n/a	catFR1	2	R1489E
870.438	0.937	875343	REC_WORD	3.448	n/a	CRAB	OceanAnimals	11	7	[0, 0, 0]	n/a	catFR1	2	R1489E
871.375	0.906	876280	REC_WORD	4.385	n/a	OYSTER	OceanAnimals	4	7	[0, 0, 0]	n/a	catFR1	2	R1489E
872.281	1.056	877186	REC_WORD	5.291	n/a	JELLYFISH	OceanAnimals	3	7	[0, 0, 0]	n/a	catFR1	2	R1489E
873.337	2.74	878242	REC_WORD	6.347	n/a	DOLPHIN	OceanAnimals	12	7	[0, 0, 0]	n/a	catFR1	2	R1489E
876.077	1.172	880982	REC_WORD	9.087	n/a	BASKETBALL	Toys	6	7	[0, 0, 0]	n/a	catFR1	2	R1489E
877.249	2.495	882153	REC_WORD	10.259	n/a	BALL	Toys	9	7	[0, 0, 0]	n/a	catFR1	2	R1489E
879.744	1.183	884648	REC_WORD	12.754	n/a	DOLL	Toys	10	7	[0, 0, 0]	n/a	catFR1	2	R1489E
880.927	11.52	885831	REC_WORD	13.937	n/a	PUZZLE	Toys	5	7	[0, 0, 0]	n/a	catFR1	2	R1489E
892.447	4.776	897350	REC_WORD_VV	25.457	n/a	<>	n/a	-999	7	[0, 0, 0]	n/a	catFR1	2	R1489E
897.223	3.254	902122	REC_END	n/a	n/a	n/a	n/a	-999	7	[0, 0, 0]	n/a	catFR1	2	R1489E
900.477	10.0	905381	COUNTDOWN_START	n/a	n/a	n/a	n/a	-999	8	[0, 0, 0]	n/a	catFR1	2	R1489E
910.826	0.0	915726	COUNTDOWN_END	n/a	n/a	n/a	n/a	-999	8	[0, 0, 0]	n/a	catFR1	2	R1489E
910.826	2.284	915726	ENCODING_START	n/a	n/a	n/a	n/a	-999	8	[0, 0, 0]	n/a	catFR1	2	R1489E
913.11	1.6	918004	WORD	n/a	wordpools/wordpool_categorized_EN.txt	BEE	Insects	1	8	[0, 0, 0]	n/a	catFR1	2	R1489E
914.727	0.95	919623	WORD_OFF	n/a	n/a	BEE	Insects	1	8	[0, 0, 0]	n/a	catFR1	2	R1489E
915.677	1.6	920575	WORD	n/a	wordpools/wordpool_categorized_EN.txt	ANT	Insects	2	8	[0, 0, 0]	n/a	catFR1	2	R1489E
917.294	0.9	922194	WORD_OFF	n/a	n/a	ANT	Insects	2	8	[0, 0, 0]	n/a	catFR1	2	R1489E
918.194	1.6	923095	WORD	n/a	wordpools/wordpool_categorized_EN.txt	TONGS	KitchenTools	3	8	[0, 0, 0]	n/a	catFR1	2	R1489E
919.794	0.884	924695	WORD_OFF	n/a	n/a	TONGS	KitchenTools	3	8	[0, 0, 0]	n/a	catFR1	2	R1489E
920.678	1.6	925575	WORD	n/a	wordpools/wordpool_categorized_EN.txt	SPATULA	KitchenTools	4	8	[0, 0, 0]	n/a	catFR1	2	R1489E
922.278	1.0	927175	WORD_OFF	n/a	n/a	SPATULA	KitchenTools	4	8	[0, 0, 0]	n/a	catFR1	2	R1489E
923.278	1.6	928177	WORD	n/a	wordpools/wordpool_categorized_EN.txt	FLEECE	Fabric	5	8	[0, 0, 0]	n/a	catFR1	2	R1489E
924.878	0.8	929776	WORD_OFF	n/a	n/a	FLEECE	Fabric	5	8	[0, 0, 0]	n/a	catFR1	2	R1489E
925.678	1.6	930576	WORD	n/a	wordpools/wordpool_categorized_EN.txt	COTTON	Fabric	6	8	[0, 0, 0]	n/a	catFR1	2	R1489E
927.278	0.884	932175	WORD_OFF	n/a	n/a	COTTON	Fabric	6	8	[0, 0, 0]	n/a	catFR1	2	R1489E
928.162	1.6	933056	WORD	n/a	wordpools/wordpool_categorized_EN.txt	SPIDER	Insects	7	8	[0, 0, 0]	n/a	catFR1	2	R1489E
929.762	0.9	934655	WORD_OFF	n/a	n/a	SPIDER	Insects	7	8	[0, 0, 0]	n/a	catFR1	2	R1489E
930.662	1.6	935556	WORD	n/a	wordpools/wordpool_categorized_EN.txt	CRICKET	Insects	8	8	[0, 0, 0]	n/a	catFR1	2	R1489E
932.277	0.852	937176	WORD_OFF	n/a	n/a	CRICKET	Insects	8	8	[0, 0, 0]	n/a	catFR1	2	R1489E
933.129	1.6	938026	WORD	n/a	wordpools/wordpool_categorized_EN.txt	SILK	Fabric	9	8	[0, 0, 0]	n/a	catFR1	2	R1489E
934.745	0.783	939646	WORD_OFF	n/a	n/a	SILK	Fabric	9	8	[0, 0, 0]	n/a	catFR1	2	R1489E
935.528	1.6	940425	WORD	n/a	wordpools/wordpool_categorized_EN.txt	SATIN	Fabric	10	8	[0, 0, 0]	n/a	catFR1	2	R1489E
937.145	0.834	942045	WORD_OFF	n/a	n/a	SATIN	Fabric	10	8	[0, 0, 0]	n/a	catFR1	2	R1489E
937.979	1.6	942875	WORD	n/a	wordpools/wordpool_categorized_EN.txt	WHISK	KitchenTools	11	8	[0, 0, 0]	n/a	catFR1	2	R1489E
939.579	1.0	944474	WORD_OFF	n/a	n/a	WHISK	KitchenTools	11	8	[0, 0, 0]	n/a	catFR1	2	R1489E
940.579	1.6	945476	WORD	n/a	wordpools/wordpool_categorized_EN.txt	LADLE	KitchenTools	12	8	[0, 0, 0]	n/a	catFR1	2	R1489E
942.179	0.001	947075	WORD_OFF	n/a	n/a	LADLE	KitchenTools	12	8	[0, 0, 0]	n/a	catFR1	2	R1489E
942.18	0.0	947075	ENCODING_END	n/a	n/a	n/a	n/a	-999	8	[0, 0, 0]	n/a	catFR1	2	R1489E
942.18	0.0	947075	DISTRACT_START	n/a	n/a	n/a	n/a	-999	8	[0, 0, 0]	n/a	catFR1	2	R1489E
942.18	0.0	947078	PROB	4.166	n/a	n/a	n/a	-999	8	[6, 7, 5]	18.0	catFR1	2	R1489E
942.18	4.183	947078	START	n/a	n/a	n/a	n/a	-999	8	[-999, -999, -999]	n/a	catFR1	2	R1489E
946.363	3.833	951260	PROB	3.816	n/a	n/a	n/a	-999	8	[3, 8, 5]	16.0	catFR1	2	R1489E
950.196	2.7	955093	PROB	2.683	n/a	n/a	n/a	-999	8	[4, 2, 8]	14.0	catFR1	2	R1489E
952.896	2.684	957793	PROB	2.667	n/a	n/a	n/a	-999	8	[1, 7, 7]	15.0	catFR1	2	R1489E
955.58	2.816	960477	PROB	2.8	n/a	n/a	n/a	-999	8	[3, 8, 3]	14.0	catFR1	2	R1489E
958.396	2.75	963292	PROB	2.734	n/a	n/a	n/a	-999	8	[7, 5, 2]	14.0	catFR1	2	R1489E
961.146	2.717	966042	PROB	2.701	n/a	n/a	n/a	-999	8	[5, 4, 7]	16.0	catFR1	2	R1489E
963.863	0.0	968758	DISTRACT_END	n/a	n/a	n/a	n/a	-999	8	[0, 0, 0]	n/a	catFR1	2	R1489E
963.863	2.3	968759	STOP	n/a	n/a	n/a	n/a	-999	8	[-999, -999, -999]	n/a	catFR1	2	R1489E
966.163	1.615	971053	REC_START	n/a	n/a	n/a	n/a	-999	8	[0, 0, 0]	n/a	catFR1	2	R1489E
967.778	1.031	972673	REC_WORD	1.615	n/a	LADLE	KitchenTools	12	8	[0, 0, 0]	n/a	catFR1	2	R1489E
968.809	2.779	973704	REC_WORD	2.646	n/a	SPATULA	KitchenTools	4	8	[0, 0, 0]	n/a	catFR1	2	R1489E
971.588	1.066	976483	REC_WORD	5.425	n/a	WHISK	KitchenTools	11	8	[0, 0, 0]	n/a	catFR1	2	R1489E
972.654	1.04	977549	REC_WORD	6.491	n/a	SILK	Fabric	9	8	[0, 0, 0]	n/a	catFR1	2	R1489E
973.694	1.267	978589	REC_WORD	7.531	n/a	SATIN	Fabric	10	8	[0, 0, 0]	n/a	catFR1	2	R1489E
974.961	4.558	979856	REC_WORD	8.798	n/a	WOOL	n/a	-999	8	[0, 0, 0]	n/a	catFR1	2	R1489E
979.519	0.753	984413	REC_WORD	13.356	n/a	BEE	Insects	1	8	[0, 0, 0]	n/a	catFR1	2	R1489E
980.272	3.521	985166	REC_WORD	14.109	n/a	SPIDER	Insects	7	8	[0, 0, 0]	n/a	catFR1	2	R1489E
983.793	6.042	988687	REC_WORD	17.63	n/a	ANT	Insects	2	8	[0, 0, 0]	n/a	catFR1	2	R1489E
989.835	4.622	994728	REC_WORD	23.672	n/a	FLY	Insects	-999	8	[0, 0, 0]	n/a	catFR1	2	R1489E
994.457	1.0	999350	REC_WORD_VV	28.294	n/a	<>	n/a	-999	8	[0, 0, 0]	n/a	catFR1	2	R1489E
995.457	0.94	1000350	REC_WORD_VV	29.294	n/a	<>	n/a	-999	8	[0, 0, 0]	n/a	catFR1	2	R1489E
996.397	3.219	1001291	REC_END	n/a	n/a	n/a	n/a	-999	8	[0, 0, 0]	n/a	catFR1	2	R1489E
999.616	10.0	1004510	COUNTDOWN_START	n/a	n/a	n/a	n/a	-999	9	[0, 0, 0]	n/a	catFR1	2	R1489E
1009.983	0.0	1014876	COUNTDOWN_END	n/a	n/a	n/a	n/a	-999	9	[0, 0, 0]	n/a	catFR1	2	R1489E
1009.983	2.05	1014876	ENCODING_START	n/a	n/a	n/a	n/a	-999	9	[0, 0, 0]	n/a	catFR1	2	R1489E
1012.033	1.6	1016920	WORD	n/a	wordpools/wordpool_categorized_EN.txt	WATER	Beverages	1	9	[0, 0, 0]	n/a	catFR1	2	R1489E
1013.649	0.818	1018540	WORD_OFF	n/a	n/a	WATER	Beverages	1	9	[0, 0, 0]	n/a	catFR1	2	R1489E
1014.467	1.6	1019350	WORD	n/a	wordpools/wordpool_categorized_EN.txt	MILK	Beverages	2	9	[0, 0, 0]	n/a	catFR1	2	R1489E
1016.084	0.933	1020969	WORD_OFF	n/a	n/a	MILK	Beverages	2	9	[0, 0, 0]	n/a	catFR1	2	R1489E
1017.017	1.6	1021901	WORD	n/a	wordpools/wordpool_categorized_EN.txt	LIGHTNING	Weather	3	9	[0, 0, 0]	n/a	catFR1	2	R1489E
1018.617	0.769	1023500	WORD_OFF	n/a	n/a	LIGHTNING	Weather	3	9	[0, 0, 0]	n/a	catFR1	2	R1489E
1019.386	1.6	1024269	WORD	n/a	wordpools/wordpool_categorized_EN.txt	HUMIDITY	Weather	4	9	[0, 0, 0]	n/a	catFR1	2	R1489E
1021.001	0.966	1025889	WORD_OFF	n/a	n/a	HUMIDITY	Weather	4	9	[0, 0, 0]	n/a	catFR1	2	R1489E
1021.967	1.6	1026850	WORD	n/a	wordpools/wordpool_categorized_EN.txt	STOVE	Appliances	5	9	[0, 0, 0]	n/a	catFR1	2	R1489E
1023.567	0.801	1028450	WORD_OFF	n/a	n/a	STOVE	Appliances	5	9	[0, 0, 0]	n/a	catFR1	2	R1489E
1024.368	1.6	1029249	WORD	n/a	wordpools/wordpool_categorized_EN.txt	VACUUM	Appliances	6	9	[0, 0, 0]	n/a	catFR1	2	R1489E
1025.967	0.867	1030859	WORD_OFF	n/a	n/a	VACUUM	Appliances	6	9	[0, 0, 0]	n/a	catFR1	2	R1489E
1026.834	1.6	1031719	WORD	n/a	wordpools/wordpool_categorized_EN.txt	CIDER	Beverages	7	9	[0, 0, 0]	n/a	catFR1	2	R1489E
1028.434	0.816	1033319	WORD_OFF	n/a	n/a	CIDER	Beverages	7	9	[0, 0, 0]	n/a	catFR1	2	R1489E
1029.25	1.6	1034139	WORD	n/a	wordpools/wordpool_categorized_EN.txt	SODA	Beverages	8	9	[0, 0, 0]	n/a	catFR1	2	R1489E
1030.851	0.934	1035738	WORD_OFF	n/a	n/a	SODA	Beverages	8	9	[0, 0, 0]	n/a	catFR1	2	R1489E
1031.785	1.6	1036669	WORD	n/a	wordpools/wordpool_categorized_EN.txt	DRIZZLE	Weather	9	9	[0, 0, 0]	n/a	catFR1	2	R1489E
1033.385	0.9	1038269	WORD_OFF	n/a	n/a	DRIZZLE	Weather	9	9	[0, 0, 0]	n/a	catFR1	2	R1489E
1034.285	1.6	1039169	WORD	n/a	wordpools/wordpool_categorized_EN.txt	WIND	Weather	10	9	[0, 0, 0]	n/a	catFR1	2	R1489E
1035.885	0.967	1040769	WORD_OFF	n/a	n/a	WIND	Weather	10	9	[0, 0, 0]	n/a	catFR1	2	R1489E
1036.852	1.6	1041741	WORD	n/a	wordpools/wordpool_categorized_EN.txt	DISHWASHER	Appliances	11	9	[0, 0, 0]	n/a	catFR1	2	R1489E
1038.452	0.899	1043340	WORD_OFF	n/a	n/a	DISHWASHER	Appliances	11	9	[0, 0, 0]	n/a	catFR1	2	R1489E
1039.351	1.6	1044241	WORD	n/a	wordpools/wordpool_categorized_EN.txt	REFRIGERATOR	Appliances	12	9	[0, 0, 0]	n/a	catFR1	2	R1489E
1040.969	0.0	1045850	WORD_OFF	n/a	n/a	REFRIGERATOR	Appliances	12	9	[0, 0, 0]	n/a	catFR1	2	R1489E
1040.969	0.001	1045857	PROB	3.833	n/a	n/a	n/a	-999	9	[7, 2, 3]	12.0	catFR1	2	R1489E
1040.97	0.0	1045858	START	n/a	n/a	n/a	n/a	-999	9	[-999, -999, -999]	n/a	catFR1	2	R1489E
1040.97	0.0	1045860	ENCODING_END	n/a	n/a	n/a	n/a	-999	9	[0, 0, 0]	n/a	catFR1	2	R1489E
1040.97	3.849	1045860	DISTRACT_START	n/a	n/a	n/a	n/a	-999	9	[0, 0, 0]	n/a	catFR1	2	R1489E
1044.819	2.469	1049707	PROB	2.449	n/a	n/a	n/a	-999	9	[7, 7, 2]	16.0	catFR1	2	R1489E
1047.288	3.73	1052175	PROB	3.717	n/a	n/a	n/a	-999	9	[1, 5, 1]	7.0	catFR1	2	R1489E
1051.018	2.619	1055905	PROB	2.601	n/a	n/a	n/a	-999	9	[8, 3, 2]	13.0	catFR1	2	R1489E
1053.637	2.283	1058524	PROB	2.266	n/a	n/a	n/a	-999	9	[3, 1, 3]	7.0	catFR1	2	R1489E
1055.92	3.233	1060807	PROB	3.216	n/a	n/a	n/a	-999	9	[3, 8, 6]	17.0	catFR1	2	R1489E
1059.153	2.666	1064039	PROB	2.65	n/a	n/a	n/a	-999	9	[3, 3, 7]	13.0	catFR1	2	R1489E
1061.819	0.0	1066702	DISTRACT_END	n/a	n/a	n/a	n/a	-999	9	[0, 0, 0]	n/a	catFR1	2	R1489E
1061.819	2.117	1066705	STOP	n/a	n/a	n/a	n/a	-999	9	[-999, -999, -999]	n/a	catFR1	2	R1489E
1063.936	0.902	1068816	REC_START	n/a	n/a	n/a	n/a	-999	9	[0, 0, 0]	n/a	catFR1	2	R1489E
1064.838	0.832	1069724	REC_WORD	0.902	n/a	MILK	Beverages	2	9	[0, 0, 0]	n/a	catFR1	2	R1489E
1065.67	0.854	1070556	REC_WORD	1.734	n/a	WATER	Beverages	1	9	[0, 0, 0]	n/a	catFR1	2	R1489E
1066.524	0.954	1071410	REC_WORD	2.588	n/a	CIDER	Beverages	7	9	[0, 0, 0]	n/a	catFR1	2	R1489E
1067.478	2.251	1072364	REC_WORD	3.542	n/a	SODA	Beverages	8	9	[0, 0, 0]	n/a	catFR1	2	R1489E
1069.729	4.29	1074614	REC_WORD_VV	5.793	n/a	<>	n/a	-999	9	[0, 0, 0]	n/a	catFR1	2	R1489E
1074.019	1.024	1078904	REC_WORD	10.083	n/a	REFRIGERATOR	Appliances	12	9	[0, 0, 0]	n/a	catFR1	2	R1489E
1075.043	1.0	1079928	REC_WORD	11.107	n/a	STOVE	Appliances	5	9	[0, 0, 0]	n/a	catFR1	2	R1489E
1076.043	0.3	1080928	REC_WORD_VV	12.107	n/a	<>	n/a	-999	9	[0, 0, 0]	n/a	catFR1	2	R1489E
1076.343	1.433	1081228	REC_WORD	12.407	n/a	OVEN	n/a	-999	9	[0, 0, 0]	n/a	catFR1	2	R1489E
1077.776	3.747	1082660	REC_WORD	13.84	n/a	DISHWASHER	Appliances	11	9	[0, 0, 0]	n/a	catFR1	2	R1489E
1081.523	1.051	1086407	REC_WORD	17.587	n/a	FOG	Weather	-999	9	[0, 0, 0]	n/a	catFR1	2	R1489E
1082.574	2.735	1087458	REC_WORD	18.638	n/a	LIGHTNING	Weather	3	9	[0, 0, 0]	n/a	catFR1	2	R1489E
1085.309	2.253	1090193	REC_WORD	21.373	n/a	HUMIDITY	Weather	4	9	[0, 0, 0]	n/a	catFR1	2	R1489E
1087.562	2.469	1092446	REC_WORD	23.626	n/a	CLOUD	n/a	-999	9	[0, 0, 0]	n/a	catFR1	2	R1489E
1090.031	4.184	1094914	REC_WORD	26.095	n/a	RAIN	Weather	-999	9	[0, 0, 0]	n/a	catFR1	2	R1489E
1094.215	4.89	1099094	REC_END	n/a	n/a	n/a	n/a	-999	9	[0, 0, 0]	n/a	catFR1	2	R1489E
1099.105	10.0	1103983	COUNTDOWN_START	n/a	n/a	n/a	n/a	-999	10	[0, 0, 0]	n/a	catFR1	2	R1489E
1109.456	0.0	1114339	COUNTDOWN_END	n/a	n/a	n/a	n/a	-999	10	[0, 0, 0]	n/a	catFR1	2	R1489E
1109.456	1.917	1114339	ENCODING_START	n/a	n/a	n/a	n/a	-999	10	[0, 0, 0]	n/a	catFR1	2	R1489E
1111.373	1.6	1116252	WORD	n/a	wordpools/wordpool_categorized_EN.txt	PENCIL	OfficeSupplies	1	10	[0, 0, 0]	n/a	catFR1	2	R1489E
1112.99	0.8	1117871	WORD_OFF	n/a	n/a	PENCIL	OfficeSupplies	1	10	[0, 0, 0]	n/a	catFR1	2	R1489E
1113.79	1.6	1118671	WORD	n/a	wordpools/wordpool_categorized_EN.txt	FOLDER	OfficeSupplies	2	10	[0, 0, 0]	n/a	catFR1	2	R1489E
1115.39	0.952	1120270	WORD_OFF	n/a	n/a	FOLDER	OfficeSupplies	2	10	[0, 0, 0]	n/a	catFR1	2	R1489E
1116.342	1.6	1121222	WORD	n/a	wordpools/wordpool_categorized_EN.txt	FREEZER	Appliances	3	10	[0, 0, 0]	n/a	catFR1	2	R1489E
1117.94	0.884	1122821	WORD_OFF	n/a	n/a	FREEZER	Appliances	3	10	[0, 0, 0]	n/a	catFR1	2	R1489E
1118.824	1.6	1123702	WORD	n/a	wordpools/wordpool_categorized_EN.txt	IRON	Appliances	4	10	[0, 0, 0]	n/a	catFR1	2	R1489E
1120.423	0.934	1125301	WORD_OFF	n/a	n/a	IRON	Appliances	4	10	[0, 0, 0]	n/a	catFR1	2	R1489E
1121.357	1.6	1126233	WORD	n/a	wordpools/wordpool_categorized_EN.txt	CABINET	Furniture	5	10	[0, 0, 0]	n/a	catFR1	2	R1489E
1122.957	0.933	1127832	WORD_OFF	n/a	n/a	CABINET	Furniture	5	10	[0, 0, 0]	n/a	catFR1	2	R1489E
1123.89	1.6	1128763	WORD	n/a	wordpools/wordpool_categorized_EN.txt	NIGHTSTAND	Furniture	6	10	[0, 0, 0]	n/a	catFR1	2	R1489E
1125.491	0.816	1130363	WORD_OFF	n/a	n/a	NIGHTSTAND	Furniture	6	10	[0, 0, 0]	n/a	catFR1	2	R1489E
1126.307	1.6	1131182	WORD	n/a	wordpools/wordpool_categorized_EN.txt	RULER	OfficeSupplies	7	10	[0, 0, 0]	n/a	catFR1	2	R1489E
1127.907	0.817	1132782	WORD_OFF	n/a	n/a	RULER	OfficeSupplies	7	10	[0, 0, 0]	n/a	catFR1	2	R1489E
1128.724	1.6	1133602	WORD	n/a	wordpools/wordpool_categorized_EN.txt	PAPER	OfficeSupplies	8	10	[0, 0, 0]	n/a	catFR1	2	R1489E
1130.324	0.95	1135201	WORD_OFF	n/a	n/a	PAPER	OfficeSupplies	8	10	[0, 0, 0]	n/a	catFR1	2	R1489E
1131.274	1.6	1136153	WORD	n/a	wordpools/wordpool_categorized_EN.txt	MIXER	Appliances	9	10	[0, 0, 0]	n/a	catFR1	2	R1489E
1132.875	0.899	1137752	WORD_OFF	n/a	n/a	MIXER	Appliances	9	10	[0, 0, 0]	n/a	catFR1	2	R1489E
1133.774	1.6	1138653	WORD	n/a	wordpools/wordpool_categorized_EN.txt	BLENDER	Appliances	10	10	[0, 0, 0]	n/a	catFR1	2	R1489E
1135.375	0.983	1140252	WORD_OFF	n/a	n/a	BLENDER	Appliances	10	10	[0, 0, 0]	n/a	catFR1	2	R1489E
1136.358	1.6	1141234	WORD	n/a	wordpools/wordpool_categorized_EN.txt	BOOKCASE	Furniture	11	10	[0, 0, 0]	n/a	catFR1	2	R1489E
1137.958	0.983	1142833	WORD_OFF	n/a	n/a	BOOKCASE	Furniture	11	10	[0, 0, 0]	n/a	catFR1	2	R1489E
1138.941	1.6	1143815	WORD	n/a	wordpools/wordpool_categorized_EN.txt	RECLINER	Furniture	12	10	[0, 0, 0]	n/a	catFR1	2	R1489E
1140.542	0.001	1145415	WORD_OFF	n/a	n/a	RECLINER	Furniture	12	10	[0, 0, 0]	n/a	catFR1	2	R1489E
1140.543	0.0	1145415	ENCODING_END	n/a	n/a	n/a	n/a	-999	10	[0, 0, 0]	n/a	catFR1	2	R1489E
1140.543	0.0	1145415	DISTRACT_START	n/a	n/a	n/a	n/a	-999	10	[0, 0, 0]	n/a	catFR1	2	R1489E
1140.541	0.002	1145419	PROB	4.717	n/a	n/a	n/a	-999	10	[3, 8, 5]	16.0	catFR1	2	R1489E
1140.543	4.733	1145421	START	n/a	n/a	n/a	n/a	-999	10	[-999, -999, -999]	n/a	catFR1	2	R1489E
1145.276	2.5	1150154	PROB	2.483	n/a	n/a	n/a	-999	10	[1, 2, 1]	4.0	catFR1	2	R1489E
1147.776	2.432	1152653	PROB	2.415	n/a	n/a	n/a	-999	10	[4, 2, 3]	9.0	catFR1	2	R1489E
1150.208	2.601	1155085	PROB	2.584	n/a	n/a	n/a	-999	10	[5, 3, 3]	11.0	catFR1	2	R1489E
1152.809	2.283	1157686	PROB	2.267	n/a	n/a	n/a	-999	10	[1, 1, 5]	7.0	catFR1	2	R1489E
1155.092	3.017	1159969	PROB	3.001	n/a	n/a	n/a	-999	10	[4, 6, 6]	14.0	catFR1	2	R1489E
1158.109	3.517	1162985	PROB	3.5	n/a	n/a	n/a	-999	10	[6, 3, 1]	10.0	catFR1	2	R1489E
1161.626	0.0	1166500	DISTRACT_END	n/a	n/a	n/a	n/a	-999	10	[0, 0, 0]	n/a	catFR1	2	R1489E
1161.626	2.2	1166502	STOP	n/a	n/a	n/a	n/a	-999	10	[-999, -999, -999]	n/a	catFR1	2	R1489E
1163.826	1.029	1168694	REC_START	n/a	n/a	n/a	n/a	-999	10	[0, 0, 0]	n/a	catFR1	2	R1489E
1164.855	1.289	1169731	REC_WORD	1.029	n/a	NIGHTSTAND	Furniture	6	10	[0, 0, 0]	n/a	catFR1	2	R1489E
1166.144	0.93	1171020	REC_WORD	2.318	n/a	BOOKCASE	Furniture	11	10	[0, 0, 0]	n/a	catFR1	2	R1489E
1167.074	5.052	1171950	REC_WORD	3.248	n/a	RECLINER	Furniture	12	10	[0, 0, 0]	n/a	catFR1	2	R1489E
1172.126	2.246	1177001	REC_WORD	8.3	n/a	FREEZER	Appliances	3	10	[0, 0, 0]	n/a	catFR1	2	R1489E
1174.372	1.139	1179247	REC_WORD	10.546	n/a	MIXER	Appliances	9	10	[0, 0, 0]	n/a	catFR1	2	R1489E
1175.511	14.531	1180386	REC_WORD	11.685	n/a	BLENDER	Appliances	10	10	[0, 0, 0]	n/a	catFR1	2	R1489E
1190.042	4.057	1194915	REC_WORD	26.216	n/a	TOASTER	n/a	-999	10	[0, 0, 0]	n/a	catFR1	2	R1489E
1194.099	8.463	1198972	REC_END	n/a	n/a	n/a	n/a	-999	10	[0, 0, 0]	n/a	catFR1	2	R1489E
1202.562	10.0	1207435	COUNTDOWN_START	n/a	n/a	n/a	n/a	-999	11	[0, 0, 0]	n/a	catFR1	2	R1489E
1212.912	0.0	1217780	COUNTDOWN_END	n/a	n/a	n/a	n/a	-999	11	[0, 0, 0]	n/a	catFR1	2	R1489E
1212.912	2.051	1217780	ENCODING_START	n/a	n/a	n/a	n/a	-999	11	[0, 0, 0]	n/a	catFR1	2	R1489E
1214.963	1.6	1219835	WORD	n/a	wordpools/wordpool_categorized_EN.txt	GRATER	KitchenTools	1	11	[0, 0, 0]	n/a	catFR1	2	R1489E
1216.563	0.916	1221434	WORD_OFF	n/a	n/a	GRATER	KitchenTools	1	11	[0, 0, 0]	n/a	catFR1	2	R1489E
1217.479	1.6	1222345	WORD	n/a	wordpools/wordpool_categorized_EN.txt	KNIFE	KitchenTools	2	11	[0, 0, 0]	n/a	catFR1	2	R1489E
1219.08	0.9	1223944	WORD_OFF	n/a	n/a	KNIFE	KitchenTools	2	11	[0, 0, 0]	n/a	catFR1	2	R1489E
1219.98	1.6	1224845	WORD	n/a	wordpools/wordpool_categorized_EN.txt	GLUE	OfficeSupplies	3	11	[0, 0, 0]	n/a	catFR1	2	R1489E
1221.596	0.834	1226465	WORD_OFF	n/a	n/a	GLUE	OfficeSupplies	3	11	[0, 0, 0]	n/a	catFR1	2	R1489E
1222.43	1.6	1227295	WORD	n/a	wordpools/wordpool_categorized_EN.txt	MARKER	OfficeSupplies	4	11	[0, 0, 0]	n/a	catFR1	2	R1489E
1224.046	0.883	1228915	WORD_OFF	n/a	n/a	MARKER	OfficeSupplies	4	11	[0, 0, 0]	n/a	catFR1	2	R1489E
1224.929	1.6	1229795	WORD	n/a	wordpools/wordpool_categorized_EN.txt	MOTH	Insects	5	11	[0, 0, 0]	n/a	catFR1	2	R1489E
1226.545	0.985	1231415	WORD_OFF	n/a	n/a	MOTH	Insects	5	11	[0, 0, 0]	n/a	catFR1	2	R1489E
1227.53	1.6	1232397	WORD	n/a	wordpools/wordpool_categorized_EN.txt	ROACH	Insects	6	11	[0, 0, 0]	n/a	catFR1	2	R1489E
1229.147	0.767	1234016	WORD_OFF	n/a	n/a	ROACH	Insects	6	11	[0, 0, 0]	n/a	catFR1	2	R1489E
1229.914	1.6	1234776	WORD	n/a	wordpools/wordpool_categorized_EN.txt	PEN	OfficeSupplies	7	11	[0, 0, 0]	n/a	catFR1	2	R1489E
1231.53	0.884	1236395	WORD_OFF	n/a	n/a	PEN	OfficeSupplies	7	11	[0, 0, 0]	n/a	catFR1	2	R1489E
1232.414	1.6	1237276	WORD	n/a	wordpools/wordpool_categorized_EN.txt	NOTEBOOK	OfficeSupplies	8	11	[0, 0, 0]	n/a	catFR1	2	R1489E
1234.031	0.833	1238895	WORD_OFF	n/a	n/a	NOTEBOOK	OfficeSupplies	8	11	[0, 0, 0]	n/a	catFR1	2	R1489E
1234.864	1.6	1239725	WORD	n/a	wordpools/wordpool_categorized_EN.txt	BEETLE	Insects	9	11	[0, 0, 0]	n/a	catFR1	2	R1489E
1236.464	0.784	1241335	WORD_OFF	n/a	n/a	BEETLE	Insects	9	11	[0, 0, 0]	n/a	catFR1	2	R1489E
1237.248	1.6	1242114	WORD	n/a	wordpools/wordpool_categorized_EN.txt	LADYBUG	Insects	10	11	[0, 0, 0]	n/a	catFR1	2	R1489E
1238.864	0.95	1243734	WORD_OFF	n/a	n/a	LADYBUG	Insects	10	11	[0, 0, 0]	n/a	catFR1	2	R1489E
1239.814	1.6	1244685	WORD	n/a	wordpools/wordpool_categorized_EN.txt	STRAINER	KitchenTools	11	11	[0, 0, 0]	n/a	catFR1	2	R1489E
1241.431	0.886	1246295	WORD_OFF	n/a	n/a	STRAINER	KitchenTools	11	11	[0, 0, 0]	n/a	catFR1	2	R1489E
1242.317	1.6	1247186	WORD	n/a	wordpools/wordpool_categorized_EN.txt	CORKSCREW	KitchenTools	12	11	[0, 0, 0]	n/a	catFR1	2	R1489E
1243.914	0.001	1248775	WORD_OFF	n/a	n/a	CORKSCREW	KitchenTools	12	11	[0, 0, 0]	n/a	catFR1	2	R1489E
1243.915	0.001	1248783	PROB	4.8	n/a	n/a	n/a	-999	11	[2, 6, 1]	9.0	catFR1	2	R1489E
1243.916	0.0	1248784	START	n/a	n/a	n/a	n/a	-999	11	[-999, -999, -999]	n/a	catFR1	2	R1489E
1243.916	0.0	1248785	ENCODING_END	n/a	n/a	n/a	n/a	-999	11	[0, 0, 0]	n/a	catFR1	2	R1489E
1243.916	4.816	1248785	DISTRACT_START	n/a	n/a	n/a	n/a	-999	11	[0, 0, 0]	n/a	catFR1	2	R1489E
1248.732	3.349	1253599	PROB	3.332	n/a	n/a	n/a	-999	11	[2, 1, 5]	8.0	catFR1	2	R1489E
1252.081	3.202	1256948	PROB	3.184	n/a	n/a	n/a	-999	11	[5, 8, 7]	20.0	catFR1	2	R1489E
1255.283	2.399	1260150	PROB	2.383	n/a	n/a	n/a	-999	11	[2, 2, 1]	5.0	catFR1	2	R1489E
1257.682	3.183	1262549	PROB	3.167	n/a	n/a	n/a	-999	11	[1, 8, 1]	10.0	catFR1	2	R1489E
1260.865	3.483	1265731	PROB	3.466	n/a	n/a	n/a	-999	11	[5, 8, 8]	21.0	catFR1	2	R1489E
1264.348	0.0	1269212	DISTRACT_END	n/a	n/a	n/a	n/a	-999	11	[0, 0, 0]	n/a	catFR1	2	R1489E
1264.348	2.2	1269214	STOP	n/a	n/a	n/a	n/a	-999	11	[-999, -999, -999]	n/a	catFR1	2	R1489E
1266.548	1.242	1271406	REC_START	n/a	n/a	n/a	n/a	-999	11	[0, 0, 0]	n/a	catFR1	2	R1489E
1267.79	1.008	1272656	REC_WORD	1.242	n/a	BEETLE	Insects	9	11	[0, 0, 0]	n/a	catFR1	2	R1489E
1268.798	1.199	1273664	REC_WORD	2.25	n/a	ROACH	Insects	6	11	[0, 0, 0]	n/a	catFR1	2	R1489E
1269.997	1.093	1274862	REC_WORD	3.449	n/a	BUG	n/a	-999	11	[0, 0, 0]	n/a	catFR1	2	R1489E
1271.09	0.917	1275955	REC_WORD	4.542	n/a	LADLE	KitchenTools	-999	11	[0, 0, 0]	n/a	catFR1	2	R1489E
1272.007	1.067	1276872	REC_WORD	5.459	n/a	SPOON	KitchenTools	-999	11	[0, 0, 0]	n/a	catFR1	2	R1489E
1273.074	1.244	1277939	REC_WORD	6.526	n/a	FOLDER	OfficeSupplies	-999	11	[0, 0, 0]	n/a	catFR1	2	R1489E
1274.318	1.368	1279183	REC_WORD	7.77	n/a	PEN	OfficeSupplies	7	11	[0, 0, 0]	n/a	catFR1	2	R1489E
1275.686	0.995	1280551	REC_WORD	9.138	n/a	PENCIL	OfficeSupplies	-999	11	[0, 0, 0]	n/a	catFR1	2	R1489E
1276.681	7.834	1281546	REC_WORD	10.133	n/a	GLUE	OfficeSupplies	3	11	[0, 0, 0]	n/a	catFR1	2	R1489E
1284.515	1.182	1289379	REC_WORD	17.967	n/a	FREEZER	Appliances	-999	11	[0, 0, 0]	n/a	catFR1	2	R1489E
1285.697	1.0	1290561	REC_WORD_VV	19.149	n/a	<>	n/a	-999	11	[0, 0, 0]	n/a	catFR1	2	R1489E
1286.697	1.0	1291561	REC_WORD_VV	20.149	n/a	<>	n/a	-999	11	[0, 0, 0]	n/a	catFR1	2	R1489E
1287.697	9.122	1292561	REC_WORD_VV	21.149	n/a	<>	n/a	-999	11	[0, 0, 0]	n/a	catFR1	2	R1489E
1296.819	3.666	1301675	REC_END	n/a	n/a	n/a	n/a	-999	11	[0, 0, 0]	n/a	catFR1	2	R1489E
1300.485	10.0	1305349	COUNTDOWN_START	n/a	n/a	n/a	n/a	-999	12	[0, 0, 0]	n/a	catFR1	2	R1489E
1310.834	0.0	1315694	COUNTDOWN_END	n/a	n/a	n/a	n/a	-999	12	[0, 0, 0]	n/a	catFR1	2	R1489E
1310.834	2.202	1315694	ENCODING_START	n/a	n/a	n/a	n/a	-999	12	[0, 0, 0]	n/a	catFR1	2	R1489E
1313.036	1.6	1317891	WORD	n/a	wordpools/wordpool_categorized_EN.txt	MICROWAVE	Electronics	1	12	[0, 0, 0]	n/a	catFR1	2	R1489E
1314.636	0.867	1319490	WORD_OFF	n/a	n/a	MICROWAVE	Electronics	1	12	[0, 0, 0]	n/a	catFR1	2	R1489E
1315.503	1.6	1320361	WORD	n/a	wordpools/wordpool_categorized_EN.txt	PRINTER	Electronics	2	12	[0, 0, 0]	n/a	catFR1	2	R1489E
1317.103	0.949	1321960	WORD_OFF	n/a	n/a	PRINTER	Electronics	2	12	[0, 0, 0]	n/a	catFR1	2	R1489E
1318.052	1.6	1322912	WORD	n/a	wordpools/wordpool_categorized_EN.txt	HICKORY	Trees	3	12	[0, 0, 0]	n/a	catFR1	2	R1489E
1319.653	0.967	1324511	WORD_OFF	n/a	n/a	HICKORY	Trees	3	12	[0, 0, 0]	n/a	catFR1	2	R1489E
1320.62	1.6	1325473	WORD	n/a	wordpools/wordpool_categorized_EN.txt	BIRCH	Trees	4	12	[0, 0, 0]	n/a	catFR1	2	R1489E
1322.22	0.766	1327082	WORD_OFF	n/a	n/a	BIRCH	Trees	4	12	[0, 0, 0]	n/a	catFR1	2	R1489E
1322.986	1.6	1327841	WORD	n/a	wordpools/wordpool_categorized_EN.txt	CARDINAL	Birds	5	12	[0, 0, 0]	n/a	catFR1	2	R1489E
1324.603	0.933	1329461	WORD_OFF	n/a	n/a	CARDINAL	Birds	5	12	[0, 0, 0]	n/a	catFR1	2	R1489E
1325.536	1.6	1330392	WORD	n/a	wordpools/wordpool_categorized_EN.txt	SEAGULL	Birds	6	12	[0, 0, 0]	n/a	catFR1	2	R1489E
1327.137	0.883	1331991	WORD_OFF	n/a	n/a	SEAGULL	Birds	6	12	[0, 0, 0]	n/a	catFR1	2	R1489E
1328.02	1.6	1332872	WORD	n/a	wordpools/wordpool_categorized_EN.txt	CALCULATOR	Electronics	7	12	[0, 0, 0]	n/a	catFR1	2	R1489E
1329.636	0.916	1334492	WORD_OFF	n/a	n/a	CALCULATOR	Electronics	7	12	[0, 0, 0]	n/a	catFR1	2	R1489E
1330.552	1.6	1335413	WORD	n/a	wordpools/wordpool_categorized_EN.txt	COMPUTER	Electronics	8	12	[0, 0, 0]	n/a	catFR1	2	R1489E
1332.154	0.816	1337012	WORD_OFF	n/a	n/a	COMPUTER	Electronics	8	12	[0, 0, 0]	n/a	catFR1	2	R1489E
1332.97	1.6	1337822	WORD	n/a	wordpools/wordpool_categorized_EN.txt	SPARROW	Birds	9	12	[0, 0, 0]	n/a	catFR1	2	R1489E
1334.586	0.984	1339442	WORD_OFF	n/a	n/a	SPARROW	Birds	9	12	[0, 0, 0]	n/a	catFR1	2	R1489E
1335.57	1.6	1340423	WORD	n/a	wordpools/wordpool_categorized_EN.txt	FINCH	Birds	10	12	[0, 0, 0]	n/a	catFR1	2	R1489E
1337.17	0.984	1342023	WORD_OFF	n/a	n/a	FINCH	Birds	10	12	[0, 0, 0]	n/a	catFR1	2	R1489E
1338.154	1.6	1343005	WORD	n/a	wordpools/wordpool_categorized_EN.txt	ELM	Trees	11	12	[0, 0, 0]	n/a	catFR1	2	R1489E
1339.754	0.967	1344614	WORD_OFF	n/a	n/a	ELM	Trees	11	12	[0, 0, 0]	n/a	catFR1	2	R1489E
1340.721	1.6	1345576	WORD	n/a	wordpools/wordpool_categorized_EN.txt	WALNUT	Trees	12	12	[0, 0, 0]	n/a	catFR1	2	R1489E
1342.32	0.001	1347175	WORD_OFF	n/a	n/a	WALNUT	Trees	12	12	[0, 0, 0]	n/a	catFR1	2	R1489E
1342.321	0.0	1347175	ENCODING_END	n/a	n/a	n/a	n/a	-999	12	[0, 0, 0]	n/a	catFR1	2	R1489E
1342.321	0.0	1347175	DISTRACT_START	n/a	n/a	n/a	n/a	-999	12	[0, 0, 0]	n/a	catFR1	2	R1489E
1342.321	0.0	1347179	START	n/a	n/a	n/a	n/a	-999	12	[-999, -999, -999]	n/a	catFR1	2	R1489E
1342.321	3.434	1347179	PROB	3.417	n/a	n/a	n/a	-999	12	[3, 7, 2]	12.0	catFR1	2	R1489E
1345.755	3.9	1350613	PROB	3.883	n/a	n/a	n/a	-999	12	[4, 3, 8]	15.0	catFR1	2	R1489E
1349.655	3.55	1354512	PROB	3.533	n/a	n/a	n/a	-999	12	[8, 6, 4]	18.0	catFR1	2	R1489E
1353.205	2.9	1358062	PROB	2.883	n/a	n/a	n/a	-999	12	[5, 7, 5]	17.0	catFR1	2	R1489E
1356.105	3.668	1360962	PROB	3.65	n/a	n/a	n/a	-999	12	[2, 8, 1]	11.0	catFR1	2	R1489E
1359.773	3.182	1364629	PROB	3.166	n/a	n/a	n/a	-999	12	[3, 1, 6]	10.0	catFR1	2	R1489E
1362.955	0.0	1367805	DISTRACT_END	n/a	n/a	n/a	n/a	-999	12	[0, 0, 0]	n/a	catFR1	2	R1489E
1362.955	2.033	1367811	STOP	n/a	n/a	n/a	n/a	-999	12	[-999, -999, -999]	n/a	catFR1	2	R1489E
1364.988	1.006	1369837	REC_START	n/a	n/a	n/a	n/a	-999	12	[0, 0, 0]	n/a	catFR1	2	R1489E
1365.994	0.949	1370850	REC_WORD	1.006	n/a	CARDINAL	Birds	5	12	[0, 0, 0]	n/a	catFR1	2	R1489E
1366.943	1.191	1371799	REC_WORD	1.955	n/a	SEAGULL	Birds	6	12	[0, 0, 0]	n/a	catFR1	2	R1489E
1368.134	3.991	1372990	REC_WORD	3.146	n/a	FINCH	Birds	10	12	[0, 0, 0]	n/a	catFR1	2	R1489E
1372.125	4.911	1376980	REC_WORD	7.137	n/a	WALNUT	Trees	12	12	[0, 0, 0]	n/a	catFR1	2	R1489E
1377.036	13.539	1381891	REC_WORD	12.048	n/a	CEDAR	Trees	-999	12	[0, 0, 0]	n/a	catFR1	2	R1489E
1390.575	4.681	1395428	REC_WORD_VV	25.587	n/a	<>	n/a	-999	12	[0, 0, 0]	n/a	catFR1	2	R1489E
1395.256	0.0	1400105	REC_END	n/a	n/a	n/a	n/a	-999	12	[0, 0, 0]	n/a	catFR1	2	R1489E
