onset	duration	sample	trial_type	response_time	stim_file	item_name	category	serialpos	list	test	answer	experiment	session	subject
0.0	240.94	1458	INSTRUCT_START	n/a	n/a	n/a	n/a	-999	-999	[0, 0, 0]	n/a	catFR1	1	R1343J
240.94	4.017	242388	INSTRUCT_END	n/a	n/a	n/a	n/a	-999	-999	[0, 0, 0]	n/a	catFR1	1	R1343J
244.957	10.976	246404	MIC TEST_START	n/a	n/a	n/a	n/a	-999	-999	[0, 0, 0]	n/a	catFR1	1	R1343J
255.933	0.012	257380	MIC TEST_END	n/a	n/a	n/a	n/a	-999	-999	[0, 0, 0]	n/a	catFR1	1	R1343J
255.945	0.0	257392	TRIAL_START	n/a	n/a	n/a	n/a	-999	-1	[0, 0, 0]	n/a	catFR1	1	R1343J
255.945	0.0	257392	TRIAL	n/a	n/a	n/a	n/a	-999	-1	[0, 0, 0]	n/a	catFR1	1	R1343J
255.945	1.215	257392	WAITING_START	n/a	n/a	n/a	n/a	-999	-1	[0, 0, 0]	n/a	catFR1	1	R1343J
257.16	10.0	258607	COUNTDOWN_START	n/a	n/a	n/a	n/a	-999	-1	[0, 0, 0]	n/a	catFR1	1	R1343J
257.16	10.428	258607	WAITING_END	n/a	n/a	n/a	n/a	-999	-1	[0, 0, 0]	n/a	catFR1	1	R1343J
267.588	0.001	269034	COUNTDOWN_END	n/a	n/a	n/a	n/a	-999	-1	[0, 0, 0]	n/a	catFR1	1	R1343J
267.589	1.105	269035	ORIENT_START	n/a	n/a	n/a	n/a	-999	-1	[0, 0, 0]	n/a	catFR1	1	R1343J
268.694	0.001	270140	ORIENT_END	n/a	n/a	n/a	n/a	-999	-1	[0, 0, 0]	n/a	catFR1	1	R1343J
268.695	0.924	270141	ENCODING_START	n/a	n/a	n/a	n/a	-999	-1	[0, 0, 0]	n/a	catFR1	1	R1343J
269.619	1.6	271065	WORD	n/a	n/a	SECOND	n/a	1	-1	[0, 0, 0]	n/a	catFR1	1	R1343J
271.245	0.784	272691	WORD_OFF	n/a	n/a	SECOND	n/a	1	-1	[0, 0, 0]	n/a	catFR1	1	R1343J
272.029	1.6	273475	WORD	n/a	n/a	FARMER	n/a	2	-1	[0, 0, 0]	n/a	catFR1	1	R1343J
273.662	1.033	275108	WORD_OFF	n/a	n/a	FARMER	n/a	2	-1	[0, 0, 0]	n/a	catFR1	1	R1343J
274.695	1.6	276141	WORD	n/a	n/a	FIREMAN	n/a	3	-1	[0, 0, 0]	n/a	catFR1	1	R1343J
276.329	0.956	277775	WORD_OFF	n/a	n/a	FIREMAN	n/a	3	-1	[0, 0, 0]	n/a	catFR1	1	R1343J
277.285	1.6	278731	WORD	n/a	n/a	DENIM	n/a	4	-1	[0, 0, 0]	n/a	catFR1	1	R1343J
278.913	0.945	280359	WORD_OFF	n/a	n/a	DENIM	n/a	4	-1	[0, 0, 0]	n/a	catFR1	1	R1343J
279.858	1.6	281304	WORD	n/a	n/a	MINUTE	n/a	5	-1	[0, 0, 0]	n/a	catFR1	1	R1343J
281.497	0.756	282943	WORD_OFF	n/a	n/a	MINUTE	n/a	5	-1	[0, 0, 0]	n/a	catFR1	1	R1343J
282.253	1.6	283699	WORD	n/a	n/a	DAY	n/a	6	-1	[0, 0, 0]	n/a	catFR1	1	R1343J
283.88	0.905	285326	WORD_OFF	n/a	n/a	DAY	n/a	6	-1	[0, 0, 0]	n/a	catFR1	1	R1343J
284.785	1.6	286231	WORD	n/a	n/a	SILK	n/a	7	-1	[0, 0, 0]	n/a	catFR1	1	R1343J
286.414	0.944	287860	WORD_OFF	n/a	n/a	SILK	n/a	7	-1	[0, 0, 0]	n/a	catFR1	1	R1343J
287.358	1.6	288804	WORD	n/a	n/a	TEACHER	n/a	8	-1	[0, 0, 0]	n/a	catFR1	1	R1343J
288.981	0.969	290426	WORD_OFF	n/a	n/a	TEACHER	n/a	8	-1	[0, 0, 0]	n/a	catFR1	1	R1343J
289.95	1.6	291395	WORD	n/a	n/a	WOOL	n/a	9	-1	[0, 0, 0]	n/a	catFR1	1	R1343J
291.582	0.997	293027	WORD_OFF	n/a	n/a	WOOL	n/a	9	-1	[0, 0, 0]	n/a	catFR1	1	R1343J
292.579	1.6	294024	WORD	n/a	n/a	LEATHER	n/a	10	-1	[0, 0, 0]	n/a	catFR1	1	R1343J
294.215	0.871	295660	WORD_OFF	n/a	n/a	LEATHER	n/a	10	-1	[0, 0, 0]	n/a	catFR1	1	R1343J
295.086	1.6	296531	WORD	n/a	n/a	PLUMBER	n/a	11	-1	[0, 0, 0]	n/a	catFR1	1	R1343J
296.715	1.037	298160	WORD_OFF	n/a	n/a	PLUMBER	n/a	11	-1	[0, 0, 0]	n/a	catFR1	1	R1343J
297.752	1.6	299197	WORD	n/a	n/a	HOUR	n/a	12	-1	[0, 0, 0]	n/a	catFR1	1	R1343J
299.383	0.001	300828	WORD_OFF	n/a	n/a	HOUR	n/a	12	-1	[0, 0, 0]	n/a	catFR1	1	R1343J
299.384	0.0	300829	DISTRACT_START	n/a	n/a	n/a	n/a	-999	-1	[0, 0, 0]	n/a	catFR1	1	R1343J
299.384	0.0	300829	ENCODING_END	n/a	n/a	n/a	n/a	-999	-1	[0, 0, 0]	n/a	catFR1	1	R1343J
299.384	0.015	300829	START	n/a	n/a	n/a	n/a	-999	-1	[-999, -999, -999]	n/a	catFR1	1	R1343J
299.399	7.252	300844	PROB	7.213	n/a	n/a	n/a	-999	-1	[7, 3, 9]	19.0	catFR1	1	R1343J
306.651	6.617	308096	PROB	6.584	n/a	n/a	n/a	-999	-1	[2, 9, 2]	13.0	catFR1	1	R1343J
313.268	6.731	314712	PROB	6.731	n/a	n/a	n/a	-999	-1	[4, 7, 9]	20.0	catFR1	1	R1343J
319.999	0.021	321443	STOP	n/a	n/a	n/a	n/a	-999	-1	[-999, -999, -999]	n/a	catFR1	1	R1343J
320.02	0.57	321464	DISTRACT_END	n/a	n/a	n/a	n/a	-999	-1	[0, 0, 0]	n/a	catFR1	1	R1343J
320.59	1.6	322034	RETRIEVAL_ORIENT_START	n/a	n/a	n/a	n/a	-999	-1	[0, 0, 0]	n/a	catFR1	1	R1343J
322.187	0.0	323631	RETRIEVAL_ORIENT_END	n/a	n/a	n/a	n/a	-999	-1	[0, 0, 0]	n/a	catFR1	1	R1343J
322.187	1.209	323631	REC_START	n/a	n/a	n/a	n/a	-999	-1	[0, 0, 0]	n/a	catFR1	1	R1343J
323.396	0.405	324840	REC_WORD	1.209	n/a	SILK	n/a	7	-1	[0, 0, 0]	n/a	catFR1	1	R1343J
323.801	0.624	325245	REC_WORD	1.614	n/a	MINUTE	n/a	5	-1	[0, 0, 0]	n/a	catFR1	1	R1343J
324.425	0.715	325869	REC_WORD	2.238	n/a	FIRE	n/a	-999	-1	[0, 0, 0]	n/a	catFR1	1	R1343J
325.14	1.715	326584	REC_WORD	2.953	n/a	FARM	n/a	-999	-1	[0, 0, 0]	n/a	catFR1	1	R1343J
326.855	1.422	328299	REC_WORD	4.668	n/a	FIREMAN	n/a	3	-1	[0, 0, 0]	n/a	catFR1	1	R1343J
328.277	3.051	329721	REC_WORD	6.09	n/a	DENIM	n/a	4	-1	[0, 0, 0]	n/a	catFR1	1	R1343J
331.328	20.871	332772	REC_WORD	9.141	n/a	COKE	n/a	-999	-1	[0, 0, 0]	n/a	catFR1	1	R1343J
352.199	0.0	353642	REC_END	n/a	n/a	n/a	n/a	-999	-1	[0, 0, 0]	n/a	catFR1	1	R1343J
352.199	11.895	353642	PRACTICE_POST_INSTRUCT_START	n/a	n/a	n/a	n/a	-999	-1	[0, 0, 0]	n/a	catFR1	1	R1343J
364.094	0.001	365536	PRACTICE_POST_INSTRUCT_END	n/a	n/a	n/a	n/a	-999	-1	[0, 0, 0]	n/a	catFR1	1	R1343J
364.095	0.022	365537	TRIAL_END	n/a	n/a	n/a	n/a	-999	-1	[0, 0, 0]	n/a	catFR1	1	R1343J
364.117	0.001	365559	TRIAL_START	n/a	n/a	n/a	n/a	-999	1	[0, 0, 0]	n/a	catFR1	1	R1343J
364.118	0.0	365560	TRIAL	n/a	n/a	n/a	n/a	-999	1	[0, 0, 0]	n/a	catFR1	1	R1343J
364.118	1.493	365560	WAITING_START	n/a	n/a	n/a	n/a	-999	1	[0, 0, 0]	n/a	catFR1	1	R1343J
365.611	10.0	367053	COUNTDOWN_START	n/a	n/a	n/a	n/a	-999	1	[0, 0, 0]	n/a	catFR1	1	R1343J
365.611	10.429	367053	WAITING_END	n/a	n/a	n/a	n/a	-999	1	[0, 0, 0]	n/a	catFR1	1	R1343J
376.04	0.0	377482	COUNTDOWN_END	n/a	n/a	n/a	n/a	-999	1	[0, 0, 0]	n/a	catFR1	1	R1343J
376.04	1.239	377482	ORIENT_START	n/a	n/a	n/a	n/a	-999	1	[0, 0, 0]	n/a	catFR1	1	R1343J
377.279	0.001	378721	ORIENT_END	n/a	n/a	n/a	n/a	-999	1	[0, 0, 0]	n/a	catFR1	1	R1343J
377.28	1.105	378722	ENCODING_START	n/a	n/a	n/a	n/a	-999	1	[0, 0, 0]	n/a	catFR1	1	R1343J
378.385	1.6	379827	WORD	n/a	wordpools/wordpool_categorized_EN.txt	ROBIN	Birds	1	1	[0, 0, 0]	n/a	catFR1	1	R1343J
380.013	0.806	381455	WORD_OFF	n/a	n/a	ROBIN	Birds	1	1	[0, 0, 0]	n/a	catFR1	1	R1343J
380.819	1.6	382261	WORD	n/a	wordpools/wordpool_categorized_EN.txt	FINCH	Birds	2	1	[0, 0, 0]	n/a	catFR1	1	R1343J
382.447	0.996	383888	WORD_OFF	n/a	n/a	FINCH	Birds	2	1	[0, 0, 0]	n/a	catFR1	1	R1343J
383.443	1.6	384884	WORD	n/a	wordpools/wordpool_categorized_EN.txt	CRAB	OceanAnimals	3	1	[0, 0, 0]	n/a	catFR1	1	R1343J
385.064	0.791	386505	WORD_OFF	n/a	n/a	CRAB	OceanAnimals	3	1	[0, 0, 0]	n/a	catFR1	1	R1343J
385.855	1.6	387296	WORD	n/a	wordpools/wordpool_categorized_EN.txt	PLANKTON	OceanAnimals	4	1	[0, 0, 0]	n/a	catFR1	1	R1343J
387.481	0.976	388922	WORD_OFF	n/a	n/a	PLANKTON	OceanAnimals	4	1	[0, 0, 0]	n/a	catFR1	1	R1343J
388.457	1.6	389898	WORD	n/a	wordpools/wordpool_categorized_EN.txt	BINDER	OfficeSupplies	5	1	[0, 0, 0]	n/a	catFR1	1	R1343J
390.082	1.113	391523	WORD_OFF	n/a	n/a	BINDER	OfficeSupplies	5	1	[0, 0, 0]	n/a	catFR1	1	R1343J
391.195	1.6	392636	WORD	n/a	wordpools/wordpool_categorized_EN.txt	ERASER	OfficeSupplies	6	1	[0, 0, 0]	n/a	catFR1	1	R1343J
392.831	1.012	394272	WORD_OFF	n/a	n/a	ERASER	OfficeSupplies	6	1	[0, 0, 0]	n/a	catFR1	1	R1343J
393.843	1.6	395284	WORD	n/a	wordpools/wordpool_categorized_EN.txt	TURTLE	OceanAnimals	7	1	[0, 0, 0]	n/a	catFR1	1	R1343J
395.466	0.987	396907	WORD_OFF	n/a	n/a	TURTLE	OceanAnimals	7	1	[0, 0, 0]	n/a	catFR1	1	R1343J
396.453	1.6	397894	WORD	n/a	wordpools/wordpool_categorized_EN.txt	SHRIMP	OceanAnimals	8	1	[0, 0, 0]	n/a	catFR1	1	R1343J
398.083	0.986	399524	WORD_OFF	n/a	n/a	SHRIMP	OceanAnimals	8	1	[0, 0, 0]	n/a	catFR1	1	R1343J
399.069	1.6	400510	WORD	n/a	wordpools/wordpool_categorized_EN.txt	PEN	OfficeSupplies	9	1	[0, 0, 0]	n/a	catFR1	1	R1343J
400.7	0.962	402141	WORD_OFF	n/a	n/a	PEN	OfficeSupplies	9	1	[0, 0, 0]	n/a	catFR1	1	R1343J
401.662	1.6	403103	WORD	n/a	wordpools/wordpool_categorized_EN.txt	TAPE	OfficeSupplies	10	1	[0, 0, 0]	n/a	catFR1	1	R1343J
403.284	0.911	404725	WORD_OFF	n/a	n/a	TAPE	OfficeSupplies	10	1	[0, 0, 0]	n/a	catFR1	1	R1343J
404.195	1.6	405636	WORD	n/a	wordpools/wordpool_categorized_EN.txt	DOVE	Birds	11	1	[0, 0, 0]	n/a	catFR1	1	R1343J
405.817	0.963	407257	WORD_OFF	n/a	n/a	DOVE	Birds	11	1	[0, 0, 0]	n/a	catFR1	1	R1343J
406.78	1.6	408220	WORD	n/a	wordpools/wordpool_categorized_EN.txt	PIGEON	Birds	12	1	[0, 0, 0]	n/a	catFR1	1	R1343J
408.418	0.0	409858	ENCODING_END	n/a	n/a	n/a	n/a	-999	1	[0, 0, 0]	n/a	catFR1	1	R1343J
408.418	0.001	409858	WORD_OFF	n/a	n/a	PIGEON	Birds	12	1	[0, 0, 0]	n/a	catFR1	1	R1343J
408.419	0.0	409859	DISTRACT_START	n/a	n/a	n/a	n/a	-999	1	[0, 0, 0]	n/a	catFR1	1	R1343J
408.419	0.015	409859	START	n/a	n/a	n/a	n/a	-999	1	[-999, -999, -999]	n/a	catFR1	1	R1343J
408.434	15.385	409874	PROB	15.352	n/a	n/a	n/a	-999	1	[5, 8, 9]	23.0	catFR1	1	R1343J
423.819	11.885	425259	PROB	11.885	n/a	n/a	n/a	-999	1	[9, 5, 7]	21.0	catFR1	1	R1343J
435.704	0.018	437143	STOP	n/a	n/a	n/a	n/a	-999	1	[-999, -999, -999]	n/a	catFR1	1	R1343J
435.722	0.57	437161	DISTRACT_END	n/a	n/a	n/a	n/a	-999	1	[0, 0, 0]	n/a	catFR1	1	R1343J
436.292	1.6	437731	RETRIEVAL_ORIENT_START	n/a	n/a	n/a	n/a	-999	1	[0, 0, 0]	n/a	catFR1	1	R1343J
437.84	0.0	439279	RETRIEVAL_ORIENT_END	n/a	n/a	n/a	n/a	-999	1	[0, 0, 0]	n/a	catFR1	1	R1343J
437.84	1.716	439279	REC_START	n/a	n/a	n/a	n/a	-999	1	[0, 0, 0]	n/a	catFR1	1	R1343J
439.556	0.925	440995	REC_WORD	1.716	n/a	ROBIN	Birds	1	1	[0, 0, 0]	n/a	catFR1	1	R1343J
440.481	1.068	441920	REC_WORD	2.641	n/a	PIGEON	Birds	12	1	[0, 0, 0]	n/a	catFR1	1	R1343J
441.549	1.065	442988	REC_WORD	3.709	n/a	PLANKTON	OceanAnimals	4	1	[0, 0, 0]	n/a	catFR1	1	R1343J
442.614	2.615	444053	REC_WORD	4.774	n/a	FIREMAN	n/a	-999	1	[0, 0, 0]	n/a	catFR1	1	R1343J
445.229	11.685	446668	REC_WORD	7.389	n/a	QUITE	n/a	-999	1	[0, 0, 0]	n/a	catFR1	1	R1343J
456.914	2.011	458352	REC_WORD	19.074	n/a	WATER	n/a	-999	1	[0, 0, 0]	n/a	catFR1	1	R1343J
458.925	2.88	460363	REC_WORD	21.085	n/a	OYSTER	n/a	-999	1	[0, 0, 0]	n/a	catFR1	1	R1343J
461.805	6.045	463243	REC_WORD	23.965	n/a	RIVER	n/a	-999	1	[0, 0, 0]	n/a	catFR1	1	R1343J
467.85	0.001	469288	REC_END	n/a	n/a	n/a	n/a	-999	1	[0, 0, 0]	n/a	catFR1	1	R1343J
467.851	0.02	469289	TRIAL_END	n/a	n/a	n/a	n/a	-999	1	[0, 0, 0]	n/a	catFR1	1	R1343J
467.871	0.0	469309	TRIAL_START	n/a	n/a	n/a	n/a	-999	2	[0, 0, 0]	n/a	catFR1	1	R1343J
467.871	0.0	469309	TRIAL	n/a	n/a	n/a	n/a	-999	2	[0, 0, 0]	n/a	catFR1	1	R1343J
467.871	4.575	469309	WAITING_START	n/a	n/a	n/a	n/a	-999	2	[0, 0, 0]	n/a	catFR1	1	R1343J
472.446	10.0	473884	COUNTDOWN_START	n/a	n/a	n/a	n/a	-999	2	[0, 0, 0]	n/a	catFR1	1	R1343J
472.446	10.429	473884	WAITING_END	n/a	n/a	n/a	n/a	-999	2	[0, 0, 0]	n/a	catFR1	1	R1343J
482.875	0.0	484312	COUNTDOWN_END	n/a	n/a	n/a	n/a	-999	2	[0, 0, 0]	n/a	catFR1	1	R1343J
482.875	1.073	484312	ORIENT_START	n/a	n/a	n/a	n/a	-999	2	[0, 0, 0]	n/a	catFR1	1	R1343J
483.948	0.0	485385	ORIENT_END	n/a	n/a	n/a	n/a	-999	2	[0, 0, 0]	n/a	catFR1	1	R1343J
483.948	0.996	485385	ENCODING_START	n/a	n/a	n/a	n/a	-999	2	[0, 0, 0]	n/a	catFR1	1	R1343J
484.944	1.6	486381	WORD	n/a	wordpools/wordpool_categorized_EN.txt	KNEE	BodyParts	1	2	[0, 0, 0]	n/a	catFR1	1	R1343J
486.581	1.091	488018	WORD_OFF	n/a	n/a	KNEE	BodyParts	1	2	[0, 0, 0]	n/a	catFR1	1	R1343J
487.672	1.6	489109	WORD	n/a	wordpools/wordpool_categorized_EN.txt	FINGERS	BodyParts	2	2	[0, 0, 0]	n/a	catFR1	1	R1343J
489.298	0.802	490735	WORD_OFF	n/a	n/a	FINGERS	BodyParts	2	2	[0, 0, 0]	n/a	catFR1	1	R1343J
490.1	1.6	491537	WORD	n/a	wordpools/wordpool_categorized_EN.txt	BIRCH	Trees	3	2	[0, 0, 0]	n/a	catFR1	1	R1343J
491.731	0.755	493168	WORD_OFF	n/a	n/a	BIRCH	Trees	3	2	[0, 0, 0]	n/a	catFR1	1	R1343J
492.486	1.6	493923	WORD	n/a	wordpools/wordpool_categorized_EN.txt	CYPRESS	Trees	4	2	[0, 0, 0]	n/a	catFR1	1	R1343J
494.116	0.928	495553	WORD_OFF	n/a	n/a	CYPRESS	Trees	4	2	[0, 0, 0]	n/a	catFR1	1	R1343J
495.044	1.6	496481	WORD	n/a	wordpools/wordpool_categorized_EN.txt	THUNDER	Weather	5	2	[0, 0, 0]	n/a	catFR1	1	R1343J
496.666	0.956	498103	WORD_OFF	n/a	n/a	THUNDER	Weather	5	2	[0, 0, 0]	n/a	catFR1	1	R1343J
497.622	1.6	499058	WORD	n/a	wordpools/wordpool_categorized_EN.txt	SNOW	Weather	6	2	[0, 0, 0]	n/a	catFR1	1	R1343J
499.25	0.8	500686	WORD_OFF	n/a	n/a	SNOW	Weather	6	2	[0, 0, 0]	n/a	catFR1	1	R1343J
500.05	1.6	501486	WORD	n/a	wordpools/wordpool_categorized_EN.txt	ELM	Trees	7	2	[0, 0, 0]	n/a	catFR1	1	R1343J
501.684	1.046	503120	WORD_OFF	n/a	n/a	ELM	Trees	7	2	[0, 0, 0]	n/a	catFR1	1	R1343J
502.73	1.6	504166	WORD	n/a	wordpools/wordpool_categorized_EN.txt	WALNUT	Trees	8	2	[0, 0, 0]	n/a	catFR1	1	R1343J
504.351	0.796	505787	WORD_OFF	n/a	n/a	WALNUT	Trees	8	2	[0, 0, 0]	n/a	catFR1	1	R1343J
505.147	1.6	506583	WORD	n/a	wordpools/wordpool_categorized_EN.txt	ARM	BodyParts	9	2	[0, 0, 0]	n/a	catFR1	1	R1343J
506.783	0.917	508219	WORD_OFF	n/a	n/a	ARM	BodyParts	9	2	[0, 0, 0]	n/a	catFR1	1	R1343J
507.7	1.6	509136	WORD	n/a	wordpools/wordpool_categorized_EN.txt	HAND	BodyParts	10	2	[0, 0, 0]	n/a	catFR1	1	R1343J
509.318	0.853	510754	WORD_OFF	n/a	n/a	HAND	BodyParts	10	2	[0, 0, 0]	n/a	catFR1	1	R1343J
510.171	1.6	511607	WORD	n/a	wordpools/wordpool_categorized_EN.txt	WIND	Weather	11	2	[0, 0, 0]	n/a	catFR1	1	R1343J
511.801	1.07	513237	WORD_OFF	n/a	n/a	WIND	Weather	11	2	[0, 0, 0]	n/a	catFR1	1	R1343J
512.871	1.6	514307	WORD	n/a	wordpools/wordpool_categorized_EN.txt	TORNADO	Weather	12	2	[0, 0, 0]	n/a	catFR1	1	R1343J
514.503	0.0	515939	DISTRACT_START	n/a	n/a	n/a	n/a	-999	2	[0, 0, 0]	n/a	catFR1	1	R1343J
514.503	0.0	515939	WORD_OFF	n/a	n/a	TORNADO	Weather	12	2	[0, 0, 0]	n/a	catFR1	1	R1343J
514.503	0.0	515939	ENCODING_END	n/a	n/a	n/a	n/a	-999	2	[0, 0, 0]	n/a	catFR1	1	R1343J
514.503	0.016	515939	START	n/a	n/a	n/a	n/a	-999	2	[-999, -999, -999]	n/a	catFR1	1	R1343J
514.519	11.818	515955	PROB	11.792	n/a	n/a	n/a	-999	2	[8, 4, 9]	22.0	catFR1	1	R1343J
526.337	11.985	527772	PROB	11.985	n/a	n/a	n/a	-999	2	[9, 5, 3]	15.0	catFR1	1	R1343J
538.322	0.018	539757	STOP	n/a	n/a	n/a	n/a	-999	2	[-999, -999, -999]	n/a	catFR1	1	R1343J
538.34	0.503	539775	DISTRACT_END	n/a	n/a	n/a	n/a	-999	2	[0, 0, 0]	n/a	catFR1	1	R1343J
538.843	1.6	540278	RETRIEVAL_ORIENT_START	n/a	n/a	n/a	n/a	-999	2	[0, 0, 0]	n/a	catFR1	1	R1343J
540.507	0.0	541942	RETRIEVAL_ORIENT_END	n/a	n/a	n/a	n/a	-999	2	[0, 0, 0]	n/a	catFR1	1	R1343J
540.507	0.601	541942	REC_START	n/a	n/a	n/a	n/a	-999	2	[0, 0, 0]	n/a	catFR1	1	R1343J
541.108	0.892	542543	REC_WORD	0.601	n/a	KNEE	BodyParts	1	2	[0, 0, 0]	n/a	catFR1	1	R1343J
542.0	1.196	543435	REC_WORD	1.493	n/a	FINGERS	BodyParts	2	2	[0, 0, 0]	n/a	catFR1	1	R1343J
543.196	0.885	544630	REC_WORD	2.689	n/a	BIRCH	Trees	3	2	[0, 0, 0]	n/a	catFR1	1	R1343J
544.081	1.664	545515	REC_WORD	3.574	n/a	CYPRESS	Trees	4	2	[0, 0, 0]	n/a	catFR1	1	R1343J
545.745	5.115	547179	REC_WORD	5.238	n/a	BINDER	OfficeSupplies	-999	2	[0, 0, 0]	n/a	catFR1	1	R1343J
550.86	5.457	552294	REC_WORD	10.353	n/a	HAWK	n/a	-999	2	[0, 0, 0]	n/a	catFR1	1	R1343J
556.317	6.49	557751	REC_WORD	15.81	n/a	TREE	n/a	-999	2	[0, 0, 0]	n/a	catFR1	1	R1343J
562.807	7.714	564241	REC_WORD	22.3	n/a	SHIRT	n/a	-999	2	[0, 0, 0]	n/a	catFR1	1	R1343J
570.521	0.0	571954	REC_END	n/a	n/a	n/a	n/a	-999	2	[0, 0, 0]	n/a	catFR1	1	R1343J
570.521	0.02	571954	TRIAL_END	n/a	n/a	n/a	n/a	-999	2	[0, 0, 0]	n/a	catFR1	1	R1343J
570.541	0.0	571974	TRIAL	n/a	n/a	n/a	n/a	-999	3	[0, 0, 0]	n/a	catFR1	1	R1343J
570.541	0.0	571974	TRIAL_START	n/a	n/a	n/a	n/a	-999	3	[0, 0, 0]	n/a	catFR1	1	R1343J
570.541	4.839	571974	WAITING_START	n/a	n/a	n/a	n/a	-999	3	[0, 0, 0]	n/a	catFR1	1	R1343J
575.38	10.0	576813	COUNTDOWN_START	n/a	n/a	n/a	n/a	-999	3	[0, 0, 0]	n/a	catFR1	1	R1343J
575.38	10.428	576813	WAITING_END	n/a	n/a	n/a	n/a	-999	3	[0, 0, 0]	n/a	catFR1	1	R1343J
585.808	0.001	587241	COUNTDOWN_END	n/a	n/a	n/a	n/a	-999	3	[0, 0, 0]	n/a	catFR1	1	R1343J
585.809	1.106	587242	ORIENT_START	n/a	n/a	n/a	n/a	-999	3	[0, 0, 0]	n/a	catFR1	1	R1343J
586.915	0.0	588348	ORIENT_END	n/a	n/a	n/a	n/a	-999	3	[0, 0, 0]	n/a	catFR1	1	R1343J
586.915	0.895	588348	ENCODING_START	n/a	n/a	n/a	n/a	-999	3	[0, 0, 0]	n/a	catFR1	1	R1343J
587.81	1.6	589243	WORD	n/a	wordpools/wordpool_categorized_EN.txt	BLUEBIRD	Birds	1	3	[0, 0, 0]	n/a	catFR1	1	R1343J
589.449	1.015	590881	WORD_OFF	n/a	n/a	BLUEBIRD	Birds	1	3	[0, 0, 0]	n/a	catFR1	1	R1343J
590.464	1.6	591896	WORD	n/a	wordpools/wordpool_categorized_EN.txt	GOOSE	Birds	2	3	[0, 0, 0]	n/a	catFR1	1	R1343J
592.099	1.037	593531	WORD_OFF	n/a	n/a	GOOSE	Birds	2	3	[0, 0, 0]	n/a	catFR1	1	R1343J
593.136	1.6	594568	WORD	n/a	wordpools/wordpool_categorized_EN.txt	STAPLER	OfficeSupplies	3	3	[0, 0, 0]	n/a	catFR1	1	R1343J
594.765	0.917	596197	WORD_OFF	n/a	n/a	STAPLER	OfficeSupplies	3	3	[0, 0, 0]	n/a	catFR1	1	R1343J
595.682	1.6	597114	WORD	n/a	wordpools/wordpool_categorized_EN.txt	PAPER	OfficeSupplies	4	3	[0, 0, 0]	n/a	catFR1	1	R1343J
597.317	1.002	598749	WORD_OFF	n/a	n/a	PAPER	OfficeSupplies	4	3	[0, 0, 0]	n/a	catFR1	1	R1343J
598.319	1.6	599751	WORD	n/a	wordpools/wordpool_categorized_EN.txt	TRUCK	Vehicles	5	3	[0, 0, 0]	n/a	catFR1	1	R1343J
599.95	0.99	601382	WORD_OFF	n/a	n/a	TRUCK	Vehicles	5	3	[0, 0, 0]	n/a	catFR1	1	R1343J
600.94	1.6	602372	WORD	n/a	wordpools/wordpool_categorized_EN.txt	SCOOTER	Vehicles	6	3	[0, 0, 0]	n/a	catFR1	1	R1343J
602.567	0.806	603999	WORD_OFF	n/a	n/a	SCOOTER	Vehicles	6	3	[0, 0, 0]	n/a	catFR1	1	R1343J
603.373	1.6	604805	WORD	n/a	wordpools/wordpool_categorized_EN.txt	FOLDER	OfficeSupplies	7	3	[0, 0, 0]	n/a	catFR1	1	R1343J
605.001	1.085	606433	WORD_OFF	n/a	n/a	FOLDER	OfficeSupplies	7	3	[0, 0, 0]	n/a	catFR1	1	R1343J
606.086	1.6	607518	WORD	n/a	wordpools/wordpool_categorized_EN.txt	RULER	OfficeSupplies	8	3	[0, 0, 0]	n/a	catFR1	1	R1343J
607.718	1.045	609150	WORD_OFF	n/a	n/a	RULER	OfficeSupplies	8	3	[0, 0, 0]	n/a	catFR1	1	R1343J
608.763	1.6	610195	WORD	n/a	wordpools/wordpool_categorized_EN.txt	CARDINAL	Birds	9	3	[0, 0, 0]	n/a	catFR1	1	R1343J
610.402	1.133	611834	WORD_OFF	n/a	n/a	CARDINAL	Birds	9	3	[0, 0, 0]	n/a	catFR1	1	R1343J
611.535	1.6	612967	WORD	n/a	wordpools/wordpool_categorized_EN.txt	CROW	Birds	10	3	[0, 0, 0]	n/a	catFR1	1	R1343J
613.169	1.02	614600	WORD_OFF	n/a	n/a	CROW	Birds	10	3	[0, 0, 0]	n/a	catFR1	1	R1343J
614.189	1.6	615620	WORD	n/a	wordpools/wordpool_categorized_EN.txt	BOAT	Vehicles	11	3	[0, 0, 0]	n/a	catFR1	1	R1343J
615.819	0.949	617250	WORD_OFF	n/a	n/a	BOAT	Vehicles	11	3	[0, 0, 0]	n/a	catFR1	1	R1343J
616.768	1.6	618199	WORD	n/a	wordpools/wordpool_categorized_EN.txt	MOPED	Vehicles	12	3	[0, 0, 0]	n/a	catFR1	1	R1343J
618.403	0.001	619834	WORD_OFF	n/a	n/a	MOPED	Vehicles	12	3	[0, 0, 0]	n/a	catFR1	1	R1343J
618.404	0.0	619835	DISTRACT_START	n/a	n/a	n/a	n/a	-999	3	[0, 0, 0]	n/a	catFR1	1	R1343J
618.404	0.001	619835	ENCODING_END	n/a	n/a	n/a	n/a	-999	3	[0, 0, 0]	n/a	catFR1	1	R1343J
618.405	0.015	619836	START	n/a	n/a	n/a	n/a	-999	3	[-999, -999, -999]	n/a	catFR1	1	R1343J
618.42	9.384	619851	PROB	9.352	n/a	n/a	n/a	-999	3	[5, 3, 9]	17.0	catFR1	1	R1343J
627.804	8.886	629235	PROB	8.855	n/a	n/a	n/a	-999	3	[6, 6, 6]	18.0	catFR1	1	R1343J
636.69	3.001	638120	PROB	3.001	n/a	n/a	n/a	-999	3	[4, 4, 1]	9.0	catFR1	1	R1343J
639.691	0.016	641121	STOP	n/a	n/a	n/a	n/a	-999	3	[-999, -999, -999]	n/a	catFR1	1	R1343J
639.707	0.608	641137	DISTRACT_END	n/a	n/a	n/a	n/a	-999	3	[0, 0, 0]	n/a	catFR1	1	R1343J
640.315	1.6	641745	RETRIEVAL_ORIENT_START	n/a	n/a	n/a	n/a	-999	3	[0, 0, 0]	n/a	catFR1	1	R1343J
641.941	0.0	643371	RETRIEVAL_ORIENT_END	n/a	n/a	n/a	n/a	-999	3	[0, 0, 0]	n/a	catFR1	1	R1343J
641.941	1.645	643371	REC_START	n/a	n/a	n/a	n/a	-999	3	[0, 0, 0]	n/a	catFR1	1	R1343J
643.586	1.545	645016	REC_WORD	1.645	n/a	BLUEBIRD	Birds	1	3	[0, 0, 0]	n/a	catFR1	1	R1343J
645.131	1.152	646561	REC_WORD	3.19	n/a	GOOSE	Birds	2	3	[0, 0, 0]	n/a	catFR1	1	R1343J
646.283	3.393	647713	REC_WORD	4.342	n/a	STAPLER	OfficeSupplies	3	3	[0, 0, 0]	n/a	catFR1	1	R1343J
649.676	2.49	651106	REC_WORD	7.735	n/a	BIKE	n/a	-999	3	[0, 0, 0]	n/a	catFR1	1	R1343J
652.166	3.025	653596	REC_WORD	10.225	n/a	TRUCK	Vehicles	5	3	[0, 0, 0]	n/a	catFR1	1	R1343J
655.191	5.109	656621	REC_WORD	13.25	n/a	OTTER	n/a	-999	3	[0, 0, 0]	n/a	catFR1	1	R1343J
660.3	5.575	661729	REC_WORD	18.359	n/a	BIRD	n/a	-999	3	[0, 0, 0]	n/a	catFR1	1	R1343J
665.875	6.079	667304	REC_WORD	23.934	n/a	PENCIL	n/a	-999	3	[0, 0, 0]	n/a	catFR1	1	R1343J
671.954	0.0	673383	REC_END	n/a	n/a	n/a	n/a	-999	3	[0, 0, 0]	n/a	catFR1	1	R1343J
671.954	0.022	673383	TRIAL_END	n/a	n/a	n/a	n/a	-999	3	[0, 0, 0]	n/a	catFR1	1	R1343J
671.976	0.001	673405	TRIAL_START	n/a	n/a	n/a	n/a	-999	4	[0, 0, 0]	n/a	catFR1	1	R1343J
671.977	0.0	673406	TRIAL	n/a	n/a	n/a	n/a	-999	4	[0, 0, 0]	n/a	catFR1	1	R1343J
671.977	1.919	673406	WAITING_START	n/a	n/a	n/a	n/a	-999	4	[0, 0, 0]	n/a	catFR1	1	R1343J
673.896	0.001	675325	WAITING_END	n/a	n/a	n/a	n/a	-999	4	[0, 0, 0]	n/a	catFR1	1	R1343J
673.897	10.0	675326	COUNTDOWN_START	n/a	n/a	n/a	n/a	-999	4	[0, 0, 0]	n/a	catFR1	1	R1343J
684.326	0.0	685754	COUNTDOWN_END	n/a	n/a	n/a	n/a	-999	4	[0, 0, 0]	n/a	catFR1	1	R1343J
684.326	1.122	685754	ORIENT_START	n/a	n/a	n/a	n/a	-999	4	[0, 0, 0]	n/a	catFR1	1	R1343J
685.448	0.001	686876	ORIENT_END	n/a	n/a	n/a	n/a	-999	4	[0, 0, 0]	n/a	catFR1	1	R1343J
685.449	1.091	686877	ENCODING_START	n/a	n/a	n/a	n/a	-999	4	[0, 0, 0]	n/a	catFR1	1	R1343J
686.54	1.6	687968	WORD	n/a	wordpools/wordpool_categorized_EN.txt	ROSE	Flowers	1	4	[0, 0, 0]	n/a	catFR1	1	R1343J
688.165	1.016	689593	WORD_OFF	n/a	n/a	ROSE	Flowers	1	4	[0, 0, 0]	n/a	catFR1	1	R1343J
689.181	1.6	690609	WORD	n/a	wordpools/wordpool_categorized_EN.txt	SUNFLOWER	Flowers	2	4	[0, 0, 0]	n/a	catFR1	1	R1343J
690.815	0.969	692243	WORD_OFF	n/a	n/a	SUNFLOWER	Flowers	2	4	[0, 0, 0]	n/a	catFR1	1	R1343J
691.784	1.6	693212	WORD	n/a	wordpools/wordpool_categorized_EN.txt	COUCH	Furniture	3	4	[0, 0, 0]	n/a	catFR1	1	R1343J
693.416	1.034	694844	WORD_OFF	n/a	n/a	COUCH	Furniture	3	4	[0, 0, 0]	n/a	catFR1	1	R1343J
694.45	1.6	695878	WORD	n/a	wordpools/wordpool_categorized_EN.txt	CHAIR	Furniture	4	4	[0, 0, 0]	n/a	catFR1	1	R1343J
696.083	0.848	697511	WORD_OFF	n/a	n/a	CHAIR	Furniture	4	4	[0, 0, 0]	n/a	catFR1	1	R1343J
696.931	1.6	698359	WORD	n/a	wordpools/wordpool_categorized_EN.txt	MARBLES	Toys	5	4	[0, 0, 0]	n/a	catFR1	1	R1343J
698.567	0.801	699995	WORD_OFF	n/a	n/a	MARBLES	Toys	5	4	[0, 0, 0]	n/a	catFR1	1	R1343J
699.368	1.6	700796	WORD	n/a	wordpools/wordpool_categorized_EN.txt	DOLL	Toys	6	4	[0, 0, 0]	n/a	catFR1	1	R1343J
701.001	1.093	702429	WORD_OFF	n/a	n/a	DOLL	Toys	6	4	[0, 0, 0]	n/a	catFR1	1	R1343J
702.094	1.6	703522	WORD	n/a	wordpools/wordpool_categorized_EN.txt	ORCHID	Flowers	7	4	[0, 0, 0]	n/a	catFR1	1	R1343J
703.717	0.993	705145	WORD_OFF	n/a	n/a	ORCHID	Flowers	7	4	[0, 0, 0]	n/a	catFR1	1	R1343J
704.71	1.6	706138	WORD	n/a	wordpools/wordpool_categorized_EN.txt	MARIGOLD	Flowers	8	4	[0, 0, 0]	n/a	catFR1	1	R1343J
706.335	1.093	707762	WORD_OFF	n/a	n/a	MARIGOLD	Flowers	8	4	[0, 0, 0]	n/a	catFR1	1	R1343J
707.428	1.6	708855	WORD	n/a	wordpools/wordpool_categorized_EN.txt	BED	Furniture	9	4	[0, 0, 0]	n/a	catFR1	1	R1343J
709.052	0.893	710479	WORD_OFF	n/a	n/a	BED	Furniture	9	4	[0, 0, 0]	n/a	catFR1	1	R1343J
709.945	1.6	711372	WORD	n/a	wordpools/wordpool_categorized_EN.txt	CABINET	Furniture	10	4	[0, 0, 0]	n/a	catFR1	1	R1343J
711.569	0.996	712996	WORD_OFF	n/a	n/a	CABINET	Furniture	10	4	[0, 0, 0]	n/a	catFR1	1	R1343J
712.565	1.6	713992	WORD	n/a	wordpools/wordpool_categorized_EN.txt	BLOCKS	Toys	11	4	[0, 0, 0]	n/a	catFR1	1	R1343J
714.186	1.002	715613	WORD_OFF	n/a	n/a	BLOCKS	Toys	11	4	[0, 0, 0]	n/a	catFR1	1	R1343J
715.188	1.6	716615	WORD	n/a	wordpools/wordpool_categorized_EN.txt	SLINKY	Toys	12	4	[0, 0, 0]	n/a	catFR1	1	R1343J
716.819	0.001	718246	WORD_OFF	n/a	n/a	SLINKY	Toys	12	4	[0, 0, 0]	n/a	catFR1	1	R1343J
716.82	0.0	718247	DISTRACT_START	n/a	n/a	n/a	n/a	-999	4	[0, 0, 0]	n/a	catFR1	1	R1343J
716.82	0.0	718247	ENCODING_END	n/a	n/a	n/a	n/a	-999	4	[0, 0, 0]	n/a	catFR1	1	R1343J
716.82	0.017	718247	START	n/a	n/a	n/a	n/a	-999	4	[-999, -999, -999]	n/a	catFR1	1	R1343J
716.837	8.284	718264	PROB	8.248	n/a	n/a	n/a	-999	4	[8, 2, 4]	14.0	catFR1	1	R1343J
725.121	4.418	726548	PROB	4.387	n/a	n/a	n/a	-999	4	[3, 1, 7]	11.0	catFR1	1	R1343J
729.539	6.767	730965	PROB	6.734	n/a	n/a	n/a	-999	4	[9, 5, 3]	17.0	catFR1	1	R1343J
736.306	5.993	737732	PROB	5.993	n/a	n/a	n/a	-999	4	[2, 9, 4]	15.0	catFR1	1	R1343J
742.299	0.009	743725	STOP	n/a	n/a	n/a	n/a	-999	4	[-999, -999, -999]	n/a	catFR1	1	R1343J
742.308	0.587	743734	DISTRACT_END	n/a	n/a	n/a	n/a	-999	4	[0, 0, 0]	n/a	catFR1	1	R1343J
742.895	1.6	744321	RETRIEVAL_ORIENT_START	n/a	n/a	n/a	n/a	-999	4	[0, 0, 0]	n/a	catFR1	1	R1343J
744.525	0.0	745951	RETRIEVAL_ORIENT_END	n/a	n/a	n/a	n/a	-999	4	[0, 0, 0]	n/a	catFR1	1	R1343J
744.525	0.235	745951	REC_START	n/a	n/a	n/a	n/a	-999	4	[0, 0, 0]	n/a	catFR1	1	R1343J
744.76	0.811	746186	REC_WORD	0.235	n/a	ROSE	Flowers	1	4	[0, 0, 0]	n/a	catFR1	1	R1343J
745.571	2.054	746997	REC_WORD	1.046	n/a	SUNFLOWER	Flowers	2	4	[0, 0, 0]	n/a	catFR1	1	R1343J
747.625	1.146	749051	REC_WORD	3.1	n/a	COUCH	Furniture	3	4	[0, 0, 0]	n/a	catFR1	1	R1343J
748.771	1.48	750197	REC_WORD	4.246	n/a	CHAIR	Furniture	4	4	[0, 0, 0]	n/a	catFR1	1	R1343J
750.251	3.29	751677	REC_WORD	5.726	n/a	MARBLES	Toys	5	4	[0, 0, 0]	n/a	catFR1	1	R1343J
753.541	9.43	754966	REC_WORD	9.016	n/a	TRUCK	Vehicles	-999	4	[0, 0, 0]	n/a	catFR1	1	R1343J
762.971	5.136	764396	REC_WORD	18.446	n/a	GOAT	n/a	-999	4	[0, 0, 0]	n/a	catFR1	1	R1343J
768.107	3.925	769532	REC_WORD	23.582	n/a	FLOWER	n/a	-999	4	[0, 0, 0]	n/a	catFR1	1	R1343J
772.032	2.507	773457	REC_WORD	27.507	n/a	MILK	n/a	-999	4	[0, 0, 0]	n/a	catFR1	1	R1343J
774.539	0.0	775963	REC_END	n/a	n/a	n/a	n/a	-999	4	[0, 0, 0]	n/a	catFR1	1	R1343J
774.539	0.023	775963	TRIAL_END	n/a	n/a	n/a	n/a	-999	4	[0, 0, 0]	n/a	catFR1	1	R1343J
774.562	0.0	775986	TRIAL_START	n/a	n/a	n/a	n/a	-999	5	[0, 0, 0]	n/a	catFR1	1	R1343J
774.562	0.0	775986	TRIAL	n/a	n/a	n/a	n/a	-999	5	[0, 0, 0]	n/a	catFR1	1	R1343J
774.562	3.669	775986	WAITING_START	n/a	n/a	n/a	n/a	-999	5	[0, 0, 0]	n/a	catFR1	1	R1343J
778.231	10.0	779655	COUNTDOWN_START	n/a	n/a	n/a	n/a	-999	5	[0, 0, 0]	n/a	catFR1	1	R1343J
778.231	10.429	779655	WAITING_END	n/a	n/a	n/a	n/a	-999	5	[0, 0, 0]	n/a	catFR1	1	R1343J
788.66	0.0	790084	COUNTDOWN_END	n/a	n/a	n/a	n/a	-999	5	[0, 0, 0]	n/a	catFR1	1	R1343J
788.66	1.039	790084	ORIENT_START	n/a	n/a	n/a	n/a	-999	5	[0, 0, 0]	n/a	catFR1	1	R1343J
789.699	0.0	791123	ORIENT_END	n/a	n/a	n/a	n/a	-999	5	[0, 0, 0]	n/a	catFR1	1	R1343J
789.699	1.032	791123	ENCODING_START	n/a	n/a	n/a	n/a	-999	5	[0, 0, 0]	n/a	catFR1	1	R1343J
790.731	1.6	792155	WORD	n/a	wordpools/wordpool_categorized_EN.txt	DRYER	Appliances	1	5	[0, 0, 0]	n/a	catFR1	1	R1343J
792.366	0.909	793790	WORD_OFF	n/a	n/a	DRYER	Appliances	1	5	[0, 0, 0]	n/a	catFR1	1	R1343J
793.275	1.6	794699	WORD	n/a	wordpools/wordpool_categorized_EN.txt	WASHER	Appliances	2	5	[0, 0, 0]	n/a	catFR1	1	R1343J
794.9	0.895	796324	WORD_OFF	n/a	n/a	WASHER	Appliances	2	5	[0, 0, 0]	n/a	catFR1	1	R1343J
795.795	1.6	797219	WORD	n/a	wordpools/wordpool_categorized_EN.txt	TEA	Beverages	3	5	[0, 0, 0]	n/a	catFR1	1	R1343J
797.417	0.967	798841	WORD_OFF	n/a	n/a	TEA	Beverages	3	5	[0, 0, 0]	n/a	catFR1	1	R1343J
798.384	1.6	799807	WORD	n/a	wordpools/wordpool_categorized_EN.txt	CIDER	Beverages	4	5	[0, 0, 0]	n/a	catFR1	1	R1343J
800.017	1.012	801440	WORD_OFF	n/a	n/a	CIDER	Beverages	4	5	[0, 0, 0]	n/a	catFR1	1	R1343J
801.029	1.6	802452	WORD	n/a	wordpools/wordpool_categorized_EN.txt	SHELF	Furniture	5	5	[0, 0, 0]	n/a	catFR1	1	R1343J
802.651	0.799	804074	WORD_OFF	n/a	n/a	SHELF	Furniture	5	5	[0, 0, 0]	n/a	catFR1	1	R1343J
803.45	1.6	804873	WORD	n/a	wordpools/wordpool_categorized_EN.txt	DESK	Furniture	6	5	[0, 0, 0]	n/a	catFR1	1	R1343J
805.085	1.071	806508	WORD_OFF	n/a	n/a	DESK	Furniture	6	5	[0, 0, 0]	n/a	catFR1	1	R1343J
806.156	1.6	807579	WORD	n/a	wordpools/wordpool_categorized_EN.txt	WATER	Beverages	7	5	[0, 0, 0]	n/a	catFR1	1	R1343J
807.785	1.067	809208	WORD_OFF	n/a	n/a	WATER	Beverages	7	5	[0, 0, 0]	n/a	catFR1	1	R1343J
808.852	1.6	810275	WORD	n/a	wordpools/wordpool_categorized_EN.txt	SODA	Beverages	8	5	[0, 0, 0]	n/a	catFR1	1	R1343J
810.486	0.996	811909	WORD_OFF	n/a	n/a	SODA	Beverages	8	5	[0, 0, 0]	n/a	catFR1	1	R1343J
811.482	1.6	812905	WORD	n/a	wordpools/wordpool_categorized_EN.txt	MIXER	Appliances	9	5	[0, 0, 0]	n/a	catFR1	1	R1343J
813.103	0.931	814526	WORD_OFF	n/a	n/a	MIXER	Appliances	9	5	[0, 0, 0]	n/a	catFR1	1	R1343J
814.034	1.6	815457	WORD	n/a	wordpools/wordpool_categorized_EN.txt	IRON	Appliances	10	5	[0, 0, 0]	n/a	catFR1	1	R1343J
815.67	1.048	817093	WORD_OFF	n/a	n/a	IRON	Appliances	10	5	[0, 0, 0]	n/a	catFR1	1	R1343J
816.718	1.6	818141	WORD	n/a	wordpools/wordpool_categorized_EN.txt	TABLE	Furniture	11	5	[0, 0, 0]	n/a	catFR1	1	R1343J
818.354	0.786	819777	WORD_OFF	n/a	n/a	TABLE	Furniture	11	5	[0, 0, 0]	n/a	catFR1	1	R1343J
819.14	1.6	820563	WORD	n/a	wordpools/wordpool_categorized_EN.txt	BOOKCASE	Furniture	12	5	[0, 0, 0]	n/a	catFR1	1	R1343J
820.77	0.0	822192	WORD_OFF	n/a	n/a	BOOKCASE	Furniture	12	5	[0, 0, 0]	n/a	catFR1	1	R1343J
820.77	0.0	822192	ENCODING_END	n/a	n/a	n/a	n/a	-999	5	[0, 0, 0]	n/a	catFR1	1	R1343J
820.77	0.0	822192	DISTRACT_START	n/a	n/a	n/a	n/a	-999	5	[0, 0, 0]	n/a	catFR1	1	R1343J
820.77	0.016	822192	START	n/a	n/a	n/a	n/a	-999	5	[-999, -999, -999]	n/a	catFR1	1	R1343J
820.786	5.552	822208	PROB	5.523	n/a	n/a	n/a	-999	5	[8, 7, 1]	16.0	catFR1	1	R1343J
826.338	4.634	827760	PROB	4.61	n/a	n/a	n/a	-999	5	[3, 9, 3]	15.0	catFR1	1	R1343J
830.972	7.218	832394	PROB	7.19	n/a	n/a	n/a	-999	5	[2, 8, 9]	19.0	catFR1	1	R1343J
838.19	6.093	839612	PROB	6.093	n/a	n/a	n/a	-999	5	[8, 3, 7]	18.0	catFR1	1	R1343J
844.283	0.009	845704	STOP	n/a	n/a	n/a	n/a	-999	5	[-999, -999, -999]	n/a	catFR1	1	R1343J
844.292	0.571	845713	DISTRACT_END	n/a	n/a	n/a	n/a	-999	5	[0, 0, 0]	n/a	catFR1	1	R1343J
844.863	1.6	846284	RETRIEVAL_ORIENT_START	n/a	n/a	n/a	n/a	-999	5	[0, 0, 0]	n/a	catFR1	1	R1343J
846.442	0.0	847863	RETRIEVAL_ORIENT_END	n/a	n/a	n/a	n/a	-999	5	[0, 0, 0]	n/a	catFR1	1	R1343J
846.442	0.604	847863	REC_START	n/a	n/a	n/a	n/a	-999	5	[0, 0, 0]	n/a	catFR1	1	R1343J
847.046	1.136	848467	REC_WORD	0.604	n/a	WASHER	Appliances	2	5	[0, 0, 0]	n/a	catFR1	1	R1343J
848.182	1.36	849603	REC_WORD	1.74	n/a	DRYER	Appliances	1	5	[0, 0, 0]	n/a	catFR1	1	R1343J
849.542	1.465	850963	REC_WORD	3.1	n/a	TEA	Beverages	3	5	[0, 0, 0]	n/a	catFR1	1	R1343J
851.007	2.609	852428	REC_WORD	4.565	n/a	CIDER	Beverages	4	5	[0, 0, 0]	n/a	catFR1	1	R1343J
853.616	2.686	855037	REC_WORD	7.174	n/a	TEST	n/a	-999	5	[0, 0, 0]	n/a	catFR1	1	R1343J
856.302	2.905	857723	REC_WORD	9.86	n/a	GLASS	n/a	-999	5	[0, 0, 0]	n/a	catFR1	1	R1343J
859.207	6.645	860628	REC_WORD	12.765	n/a	CUP	n/a	-999	5	[0, 0, 0]	n/a	catFR1	1	R1343J
865.852	5.79	867273	REC_WORD	19.41	n/a	WATER	Beverages	7	5	[0, 0, 0]	n/a	catFR1	1	R1343J
871.642	4.813	873062	REC_WORD	25.2	n/a	TEAGLASS	n/a	-999	5	[0, 0, 0]	n/a	catFR1	1	R1343J
876.455	0.001	877875	REC_END	n/a	n/a	n/a	n/a	-999	5	[0, 0, 0]	n/a	catFR1	1	R1343J
876.456	0.02	877876	TRIAL_END	n/a	n/a	n/a	n/a	-999	5	[0, 0, 0]	n/a	catFR1	1	R1343J
876.476	0.0	877896	WAITING_START	n/a	n/a	n/a	n/a	-999	6	[0, 0, 0]	n/a	catFR1	1	R1343J
876.476	0.0	877896	TRIAL_START	n/a	n/a	n/a	n/a	-999	6	[0, 0, 0]	n/a	catFR1	1	R1343J
876.476	3.855	877896	TRIAL	n/a	n/a	n/a	n/a	-999	6	[0, 0, 0]	n/a	catFR1	1	R1343J
880.331	0.001	881751	WAITING_END	n/a	n/a	n/a	n/a	-999	6	[0, 0, 0]	n/a	catFR1	1	R1343J
880.332	10.0	881752	COUNTDOWN_START	n/a	n/a	n/a	n/a	-999	6	[0, 0, 0]	n/a	catFR1	1	R1343J
890.76	0.001	892179	COUNTDOWN_END	n/a	n/a	n/a	n/a	-999	6	[0, 0, 0]	n/a	catFR1	1	R1343J
890.761	1.105	892180	ORIENT_START	n/a	n/a	n/a	n/a	-999	6	[0, 0, 0]	n/a	catFR1	1	R1343J
891.866	0.001	893285	ORIENT_END	n/a	n/a	n/a	n/a	-999	6	[0, 0, 0]	n/a	catFR1	1	R1343J
891.867	1.025	893286	ENCODING_START	n/a	n/a	n/a	n/a	-999	6	[0, 0, 0]	n/a	catFR1	1	R1343J
892.892	1.6	894311	WORD	n/a	wordpools/wordpool_categorized_EN.txt	PRINTER	Electronics	1	6	[0, 0, 0]	n/a	catFR1	1	R1343J
894.517	1.059	895936	WORD_OFF	n/a	n/a	PRINTER	Electronics	1	6	[0, 0, 0]	n/a	catFR1	1	R1343J
895.576	1.6	896995	WORD	n/a	wordpools/wordpool_categorized_EN.txt	TELEVISION	Electronics	2	6	[0, 0, 0]	n/a	catFR1	1	R1343J
897.201	1.147	898620	WORD_OFF	n/a	n/a	TELEVISION	Electronics	2	6	[0, 0, 0]	n/a	catFR1	1	R1343J
898.348	1.6	899767	WORD	n/a	wordpools/wordpool_categorized_EN.txt	GLUE	OfficeSupplies	3	6	[0, 0, 0]	n/a	catFR1	1	R1343J
899.984	1.058	901403	WORD_OFF	n/a	n/a	GLUE	OfficeSupplies	3	6	[0, 0, 0]	n/a	catFR1	1	R1343J
901.042	1.6	902461	WORD	n/a	wordpools/wordpool_categorized_EN.txt	MARKER	OfficeSupplies	4	6	[0, 0, 0]	n/a	catFR1	1	R1343J
902.668	0.875	904087	WORD_OFF	n/a	n/a	MARKER	OfficeSupplies	4	6	[0, 0, 0]	n/a	catFR1	1	R1343J
903.543	1.6	904962	WORD	n/a	wordpools/wordpool_categorized_EN.txt	WILLOW	Trees	5	6	[0, 0, 0]	n/a	catFR1	1	R1343J
905.169	0.904	906588	WORD_OFF	n/a	n/a	WILLOW	Trees	5	6	[0, 0, 0]	n/a	catFR1	1	R1343J
906.073	1.6	907492	WORD	n/a	wordpools/wordpool_categorized_EN.txt	CEDAR	Trees	6	6	[0, 0, 0]	n/a	catFR1	1	R1343J
907.702	0.904	909121	WORD_OFF	n/a	n/a	CEDAR	Trees	6	6	[0, 0, 0]	n/a	catFR1	1	R1343J
908.606	1.6	910025	WORD	n/a	wordpools/wordpool_categorized_EN.txt	STEREO	Electronics	7	6	[0, 0, 0]	n/a	catFR1	1	R1343J
910.236	1.082	911655	WORD_OFF	n/a	n/a	STEREO	Electronics	7	6	[0, 0, 0]	n/a	catFR1	1	R1343J
911.318	1.6	912737	WORD	n/a	wordpools/wordpool_categorized_EN.txt	SCANNER	Electronics	8	6	[0, 0, 0]	n/a	catFR1	1	R1343J
912.953	0.817	914372	WORD_OFF	n/a	n/a	SCANNER	Electronics	8	6	[0, 0, 0]	n/a	catFR1	1	R1343J
913.77	1.6	915188	WORD	n/a	wordpools/wordpool_categorized_EN.txt	SPRUCE	Trees	9	6	[0, 0, 0]	n/a	catFR1	1	R1343J
915.387	0.805	916805	WORD_OFF	n/a	n/a	SPRUCE	Trees	9	6	[0, 0, 0]	n/a	catFR1	1	R1343J
916.192	1.6	917610	WORD	n/a	wordpools/wordpool_categorized_EN.txt	PINE	Trees	10	6	[0, 0, 0]	n/a	catFR1	1	R1343J
917.82	1.085	919238	WORD_OFF	n/a	n/a	PINE	Trees	10	6	[0, 0, 0]	n/a	catFR1	1	R1343J
918.905	1.6	920323	WORD	n/a	wordpools/wordpool_categorized_EN.txt	NOTEBOOK	OfficeSupplies	11	6	[0, 0, 0]	n/a	catFR1	1	R1343J
920.538	0.92	921956	WORD_OFF	n/a	n/a	NOTEBOOK	OfficeSupplies	11	6	[0, 0, 0]	n/a	catFR1	1	R1343J
921.458	1.6	922876	WORD	n/a	wordpools/wordpool_categorized_EN.txt	PENCIL	OfficeSupplies	12	6	[0, 0, 0]	n/a	catFR1	1	R1343J
923.088	0.001	924506	WORD_OFF	n/a	n/a	PENCIL	OfficeSupplies	12	6	[0, 0, 0]	n/a	catFR1	1	R1343J
923.089	0.0	924507	ENCODING_END	n/a	n/a	n/a	n/a	-999	6	[0, 0, 0]	n/a	catFR1	1	R1343J
923.089	0.0	924507	DISTRACT_START	n/a	n/a	n/a	n/a	-999	6	[0, 0, 0]	n/a	catFR1	1	R1343J
923.089	0.016	924507	START	n/a	n/a	n/a	n/a	-999	6	[-999, -999, -999]	n/a	catFR1	1	R1343J
923.105	4.5	924523	PROB	4.475	n/a	n/a	n/a	-999	6	[5, 1, 2]	8.0	catFR1	1	R1343J
927.605	5.134	929023	PROB	5.109	n/a	n/a	n/a	-999	6	[8, 6, 4]	18.0	catFR1	1	R1343J
932.739	5.152	934157	PROB	5.116	n/a	n/a	n/a	-999	6	[8, 8, 7]	23.0	catFR1	1	R1343J
937.891	5.467	939308	PROB	5.467	n/a	n/a	n/a	-999	6	[8, 2, 3]	13.0	catFR1	1	R1343J
943.358	0.017	944775	STOP	n/a	n/a	n/a	n/a	-999	6	[-999, -999, -999]	n/a	catFR1	1	R1343J
943.375	0.669	944792	DISTRACT_END	n/a	n/a	n/a	n/a	-999	6	[0, 0, 0]	n/a	catFR1	1	R1343J
944.044	1.6	945461	RETRIEVAL_ORIENT_START	n/a	n/a	n/a	n/a	-999	6	[0, 0, 0]	n/a	catFR1	1	R1343J
945.659	0.0	947076	RETRIEVAL_ORIENT_END	n/a	n/a	n/a	n/a	-999	6	[0, 0, 0]	n/a	catFR1	1	R1343J
945.659	0.785	947076	REC_START	n/a	n/a	n/a	n/a	-999	6	[0, 0, 0]	n/a	catFR1	1	R1343J
946.444	1.395	947861	REC_WORD	0.785	n/a	PRINTER	Electronics	1	6	[0, 0, 0]	n/a	catFR1	1	R1343J
947.839	7.815	949256	REC_WORD	2.18	n/a	TELEVISION	Electronics	2	6	[0, 0, 0]	n/a	catFR1	1	R1343J
955.654	2.67	957071	REC_WORD_VV	9.995	n/a	<>	n/a	-999	6	[0, 0, 0]	n/a	catFR1	1	R1343J
958.324	3.845	959741	REC_WORD	12.665	n/a	GLUE	OfficeSupplies	3	6	[0, 0, 0]	n/a	catFR1	1	R1343J
962.169	7.365	963585	REC_WORD	16.51	n/a	STEREO	Electronics	7	6	[0, 0, 0]	n/a	catFR1	1	R1343J
969.534	6.137	970950	REC_WORD	23.875	n/a	CD	n/a	-999	6	[0, 0, 0]	n/a	catFR1	1	R1343J
975.671	0.0	977087	REC_END	n/a	n/a	n/a	n/a	-999	6	[0, 0, 0]	n/a	catFR1	1	R1343J
975.671	0.022	977087	TRIAL_END	n/a	n/a	n/a	n/a	-999	6	[0, 0, 0]	n/a	catFR1	1	R1343J
975.693	0.0	977109	TRIAL_START	n/a	n/a	n/a	n/a	-999	7	[0, 0, 0]	n/a	catFR1	1	R1343J
975.693	0.001	977109	TRIAL	n/a	n/a	n/a	n/a	-999	7	[0, 0, 0]	n/a	catFR1	1	R1343J
975.694	2.804	977110	WAITING_START	n/a	n/a	n/a	n/a	-999	7	[0, 0, 0]	n/a	catFR1	1	R1343J
978.498	10.0	979914	COUNTDOWN_START	n/a	n/a	n/a	n/a	-999	7	[0, 0, 0]	n/a	catFR1	1	R1343J
978.498	10.429	979914	WAITING_END	n/a	n/a	n/a	n/a	-999	7	[0, 0, 0]	n/a	catFR1	1	R1343J
988.927	0.0	990342	COUNTDOWN_END	n/a	n/a	n/a	n/a	-999	7	[0, 0, 0]	n/a	catFR1	1	R1343J
988.927	1.022	990342	ORIENT_START	n/a	n/a	n/a	n/a	-999	7	[0, 0, 0]	n/a	catFR1	1	R1343J
989.949	0.001	991364	ORIENT_END	n/a	n/a	n/a	n/a	-999	7	[0, 0, 0]	n/a	catFR1	1	R1343J
989.95	1.064	991365	ENCODING_START	n/a	n/a	n/a	n/a	-999	7	[0, 0, 0]	n/a	catFR1	1	R1343J
991.014	1.6	992429	WORD	n/a	wordpools/wordpool_categorized_EN.txt	TOASTER	Appliances	1	7	[0, 0, 0]	n/a	catFR1	1	R1343J
992.65	0.993	994065	WORD_OFF	n/a	n/a	TOASTER	Appliances	1	7	[0, 0, 0]	n/a	catFR1	1	R1343J
993.643	1.6	995058	WORD	n/a	wordpools/wordpool_categorized_EN.txt	BLENDER	Appliances	2	7	[0, 0, 0]	n/a	catFR1	1	R1343J
995.267	0.854	996682	WORD_OFF	n/a	n/a	BLENDER	Appliances	2	7	[0, 0, 0]	n/a	catFR1	1	R1343J
996.121	1.6	997536	WORD	n/a	wordpools/wordpool_categorized_EN.txt	SOFA	Furniture	3	7	[0, 0, 0]	n/a	catFR1	1	R1343J
997.75	0.933	999165	WORD_OFF	n/a	n/a	SOFA	Furniture	3	7	[0, 0, 0]	n/a	catFR1	1	R1343J
998.683	1.6	1000098	WORD	n/a	wordpools/wordpool_categorized_EN.txt	DRESSER	Furniture	4	7	[0, 0, 0]	n/a	catFR1	1	R1343J
1000.318	1.003	1001733	WORD_OFF	n/a	n/a	DRESSER	Furniture	4	7	[0, 0, 0]	n/a	catFR1	1	R1343J
1001.321	1.6	1002736	WORD	n/a	wordpools/wordpool_categorized_EN.txt	WHISK	KitchenTools	5	7	[0, 0, 0]	n/a	catFR1	1	R1343J
1002.935	0.977	1004350	WORD_OFF	n/a	n/a	WHISK	KitchenTools	5	7	[0, 0, 0]	n/a	catFR1	1	R1343J
1003.912	1.6	1005327	WORD	n/a	wordpools/wordpool_categorized_EN.txt	STRAINER	KitchenTools	6	7	[0, 0, 0]	n/a	catFR1	1	R1343J
1005.535	1.092	1006950	WORD_OFF	n/a	n/a	STRAINER	KitchenTools	6	7	[0, 0, 0]	n/a	catFR1	1	R1343J
1006.627	1.6	1008041	WORD	n/a	wordpools/wordpool_categorized_EN.txt	VACUUM	Appliances	7	7	[0, 0, 0]	n/a	catFR1	1	R1343J
1008.253	1.087	1009667	WORD_OFF	n/a	n/a	VACUUM	Appliances	7	7	[0, 0, 0]	n/a	catFR1	1	R1343J
1009.34	1.6	1010754	WORD	n/a	wordpools/wordpool_categorized_EN.txt	REFRIGERATOR	Appliances	8	7	[0, 0, 0]	n/a	catFR1	1	R1343J
1010.97	0.833	1012384	WORD_OFF	n/a	n/a	REFRIGERATOR	Appliances	8	7	[0, 0, 0]	n/a	catFR1	1	R1343J
1011.803	1.6	1013217	WORD	n/a	wordpools/wordpool_categorized_EN.txt	RECLINER	Furniture	9	7	[0, 0, 0]	n/a	catFR1	1	R1343J
1013.437	0.991	1014851	WORD_OFF	n/a	n/a	RECLINER	Furniture	9	7	[0, 0, 0]	n/a	catFR1	1	R1343J
1014.428	1.6	1015842	WORD	n/a	wordpools/wordpool_categorized_EN.txt	NIGHTSTAND	Furniture	10	7	[0, 0, 0]	n/a	catFR1	1	R1343J
1016.054	0.798	1017468	WORD_OFF	n/a	n/a	NIGHTSTAND	Furniture	10	7	[0, 0, 0]	n/a	catFR1	1	R1343J
1016.852	1.6	1018266	WORD	n/a	wordpools/wordpool_categorized_EN.txt	SPATULA	KitchenTools	11	7	[0, 0, 0]	n/a	catFR1	1	R1343J
1018.488	0.895	1019902	WORD_OFF	n/a	n/a	SPATULA	KitchenTools	11	7	[0, 0, 0]	n/a	catFR1	1	R1343J
1019.383	1.6	1020797	WORD	n/a	wordpools/wordpool_categorized_EN.txt	PEELER	KitchenTools	12	7	[0, 0, 0]	n/a	catFR1	1	R1343J
1021.005	0.0	1022419	DISTRACT_START	n/a	n/a	n/a	n/a	-999	7	[0, 0, 0]	n/a	catFR1	1	R1343J
1021.005	0.0	1022419	WORD_OFF	n/a	n/a	PEELER	KitchenTools	12	7	[0, 0, 0]	n/a	catFR1	1	R1343J
1021.005	0.0	1022419	ENCODING_END	n/a	n/a	n/a	n/a	-999	7	[0, 0, 0]	n/a	catFR1	1	R1343J
1021.005	0.016	1022419	START	n/a	n/a	n/a	n/a	-999	7	[-999, -999, -999]	n/a	catFR1	1	R1343J
1021.021	7.518	1022435	PROB	7.489	n/a	n/a	n/a	-999	7	[9, 4, 8]	21.0	catFR1	1	R1343J
1028.539	4.584	1029953	PROB	4.548	n/a	n/a	n/a	-999	7	[4, 4, 8]	16.0	catFR1	1	R1343J
1033.123	6.218	1034536	PROB	6.193	n/a	n/a	n/a	-999	7	[6, 5, 9]	20.0	catFR1	1	R1343J
1039.341	4.797	1040754	PROB	4.797	n/a	n/a	n/a	-999	7	[2, 4, 1]	7.0	catFR1	1	R1343J
1044.138	0.02	1045551	STOP	n/a	n/a	n/a	n/a	-999	7	[-999, -999, -999]	n/a	catFR1	1	R1343J
1044.158	0.581	1045571	DISTRACT_END	n/a	n/a	n/a	n/a	-999	7	[0, 0, 0]	n/a	catFR1	1	R1343J
1044.739	1.6	1046152	RETRIEVAL_ORIENT_START	n/a	n/a	n/a	n/a	-999	7	[0, 0, 0]	n/a	catFR1	1	R1343J
1046.276	0.0	1047689	RETRIEVAL_ORIENT_END	n/a	n/a	n/a	n/a	-999	7	[0, 0, 0]	n/a	catFR1	1	R1343J
1046.276	0.725	1047689	REC_START	n/a	n/a	n/a	n/a	-999	7	[0, 0, 0]	n/a	catFR1	1	R1343J
1047.001	1.205	1048414	REC_WORD	0.725	n/a	TOASTER	Appliances	1	7	[0, 0, 0]	n/a	catFR1	1	R1343J
1048.206	2.749	1049619	REC_WORD	1.93	n/a	BLENDER	Appliances	2	7	[0, 0, 0]	n/a	catFR1	1	R1343J
1050.955	1.533	1052368	REC_WORD	4.679	n/a	COUCH	Furniture	-999	7	[0, 0, 0]	n/a	catFR1	1	R1343J
1052.488	2.07	1053900	REC_WORD	6.212	n/a	SOFA	Furniture	3	7	[0, 0, 0]	n/a	catFR1	1	R1343J
1054.558	4.422	1055970	REC_WORD	8.282	n/a	BED	Furniture	-999	7	[0, 0, 0]	n/a	catFR1	1	R1343J
1058.98	4.235	1060392	REC_WORD	12.704	n/a	CHAIR	Furniture	-999	7	[0, 0, 0]	n/a	catFR1	1	R1343J
1063.215	4.92	1064627	REC_WORD	16.939	n/a	DRESSER	Furniture	4	7	[0, 0, 0]	n/a	catFR1	1	R1343J
1068.135	8.153	1069547	REC_WORD	21.859	n/a	MATRESS	n/a	-999	7	[0, 0, 0]	n/a	catFR1	1	R1343J
1076.288	0.001	1077699	REC_END	n/a	n/a	n/a	n/a	-999	7	[0, 0, 0]	n/a	catFR1	1	R1343J
1076.289	0.053	1077700	TRIAL_END	n/a	n/a	n/a	n/a	-999	7	[0, 0, 0]	n/a	catFR1	1	R1343J
1076.342	0.0	1077753	TRIAL_START	n/a	n/a	n/a	n/a	-999	8	[0, 0, 0]	n/a	catFR1	1	R1343J
1076.342	0.001	1077753	TRIAL	n/a	n/a	n/a	n/a	-999	8	[0, 0, 0]	n/a	catFR1	1	R1343J
1076.343	2.022	1077754	WAITING_START	n/a	n/a	n/a	n/a	-999	8	[0, 0, 0]	n/a	catFR1	1	R1343J
1078.365	10.0	1079776	COUNTDOWN_START	n/a	n/a	n/a	n/a	-999	8	[0, 0, 0]	n/a	catFR1	1	R1343J
1078.365	10.429	1079776	WAITING_END	n/a	n/a	n/a	n/a	-999	8	[0, 0, 0]	n/a	catFR1	1	R1343J
1088.794	0.0	1090205	COUNTDOWN_END	n/a	n/a	n/a	n/a	-999	8	[0, 0, 0]	n/a	catFR1	1	R1343J
1088.794	1.206	1090205	ORIENT_START	n/a	n/a	n/a	n/a	-999	8	[0, 0, 0]	n/a	catFR1	1	R1343J
1090.0	0.0	1091411	ORIENT_END	n/a	n/a	n/a	n/a	-999	8	[0, 0, 0]	n/a	catFR1	1	R1343J
1090.0	0.979	1091411	ENCODING_START	n/a	n/a	n/a	n/a	-999	8	[0, 0, 0]	n/a	catFR1	1	R1343J
1090.979	1.6	1092390	WORD	n/a	wordpools/wordpool_categorized_EN.txt	SPARROW	Birds	1	8	[0, 0, 0]	n/a	catFR1	1	R1343J
1092.617	0.793	1094028	WORD_OFF	n/a	n/a	SPARROW	Birds	1	8	[0, 0, 0]	n/a	catFR1	1	R1343J
1093.41	1.6	1094821	WORD	n/a	wordpools/wordpool_categorized_EN.txt	SEAGULL	Birds	2	8	[0, 0, 0]	n/a	catFR1	1	R1343J
1095.034	0.97	1096445	WORD_OFF	n/a	n/a	SEAGULL	Birds	2	8	[0, 0, 0]	n/a	catFR1	1	R1343J
1096.004	1.6	1097415	WORD	n/a	wordpools/wordpool_categorized_EN.txt	BANANA	Fruit	3	8	[0, 0, 0]	n/a	catFR1	1	R1343J
1097.635	0.818	1099046	WORD_OFF	n/a	n/a	BANANA	Fruit	3	8	[0, 0, 0]	n/a	catFR1	1	R1343J
1098.453	1.6	1099863	WORD	n/a	wordpools/wordpool_categorized_EN.txt	STRAWBERRY	Fruit	4	8	[0, 0, 0]	n/a	catFR1	1	R1343J
1100.085	1.087	1101495	WORD_OFF	n/a	n/a	STRAWBERRY	Fruit	4	8	[0, 0, 0]	n/a	catFR1	1	R1343J
1101.172	1.6	1102582	WORD	n/a	wordpools/wordpool_categorized_EN.txt	RAIN	Weather	5	8	[0, 0, 0]	n/a	catFR1	1	R1343J
1102.801	0.802	1104211	WORD_OFF	n/a	n/a	RAIN	Weather	5	8	[0, 0, 0]	n/a	catFR1	1	R1343J
1103.603	1.6	1105013	WORD	n/a	wordpools/wordpool_categorized_EN.txt	THUNDERSTORM	Weather	6	8	[0, 0, 0]	n/a	catFR1	1	R1343J
1105.236	1.088	1106646	WORD_OFF	n/a	n/a	THUNDERSTORM	Weather	6	8	[0, 0, 0]	n/a	catFR1	1	R1343J
1106.324	1.6	1107734	WORD	n/a	wordpools/wordpool_categorized_EN.txt	DUCK	Birds	7	8	[0, 0, 0]	n/a	catFR1	1	R1343J
1107.953	1.077	1109363	WORD_OFF	n/a	n/a	DUCK	Birds	7	8	[0, 0, 0]	n/a	catFR1	1	R1343J
1109.03	1.6	1110440	WORD	n/a	wordpools/wordpool_categorized_EN.txt	HAWK	Birds	8	8	[0, 0, 0]	n/a	catFR1	1	R1343J
1110.653	0.778	1112063	WORD_OFF	n/a	n/a	HAWK	Birds	8	8	[0, 0, 0]	n/a	catFR1	1	R1343J
1111.431	1.6	1112841	WORD	n/a	wordpools/wordpool_categorized_EN.txt	HUMIDITY	Weather	9	8	[0, 0, 0]	n/a	catFR1	1	R1343J
1113.054	1.147	1114464	WORD_OFF	n/a	n/a	HUMIDITY	Weather	9	8	[0, 0, 0]	n/a	catFR1	1	R1343J
1114.201	1.6	1115611	WORD	n/a	wordpools/wordpool_categorized_EN.txt	LIGHTNING	Weather	10	8	[0, 0, 0]	n/a	catFR1	1	R1343J
1115.837	0.997	1117247	WORD_OFF	n/a	n/a	LIGHTNING	Weather	10	8	[0, 0, 0]	n/a	catFR1	1	R1343J
1116.834	1.6	1118244	WORD	n/a	wordpools/wordpool_categorized_EN.txt	GRAPE	Fruit	11	8	[0, 0, 0]	n/a	catFR1	1	R1343J
1118.471	0.857	1119881	WORD_OFF	n/a	n/a	GRAPE	Fruit	11	8	[0, 0, 0]	n/a	catFR1	1	R1343J
1119.328	1.6	1120738	WORD	n/a	wordpools/wordpool_categorized_EN.txt	PEAR	Fruit	12	8	[0, 0, 0]	n/a	catFR1	1	R1343J
1120.955	0.0	1122365	DISTRACT_START	n/a	n/a	n/a	n/a	-999	8	[0, 0, 0]	n/a	catFR1	1	R1343J
1120.955	0.0	1122365	ENCODING_END	n/a	n/a	n/a	n/a	-999	8	[0, 0, 0]	n/a	catFR1	1	R1343J
1120.955	0.001	1122365	WORD_OFF	n/a	n/a	PEAR	Fruit	12	8	[0, 0, 0]	n/a	catFR1	1	R1343J
1120.956	0.015	1122366	START	n/a	n/a	n/a	n/a	-999	8	[-999, -999, -999]	n/a	catFR1	1	R1343J
1120.971	5.351	1122381	PROB	5.316	n/a	n/a	n/a	-999	8	[2, 1, 7]	10.0	catFR1	1	R1343J
1126.322	5.284	1127731	PROB	5.248	n/a	n/a	n/a	-999	8	[9, 4, 1]	14.0	catFR1	1	R1343J
1131.606	9.151	1133015	PROB	9.116	n/a	n/a	n/a	-999	8	[8, 9, 7]	24.0	catFR1	1	R1343J
1140.757	4.214	1142166	PROB	4.214	n/a	n/a	n/a	-999	8	[9, 2, 9]	20.0	catFR1	1	R1343J
1144.971	0.021	1146379	STOP	n/a	n/a	n/a	n/a	-999	8	[-999, -999, -999]	n/a	catFR1	1	R1343J
1144.992	0.663	1146400	DISTRACT_END	n/a	n/a	n/a	n/a	-999	8	[0, 0, 0]	n/a	catFR1	1	R1343J
1145.655	1.6	1147063	RETRIEVAL_ORIENT_START	n/a	n/a	n/a	n/a	-999	8	[0, 0, 0]	n/a	catFR1	1	R1343J
1147.343	0.0	1148751	RETRIEVAL_ORIENT_END	n/a	n/a	n/a	n/a	-999	8	[0, 0, 0]	n/a	catFR1	1	R1343J
1147.343	1.449	1148751	REC_START	n/a	n/a	n/a	n/a	-999	8	[0, 0, 0]	n/a	catFR1	1	R1343J
1148.792	3.315	1150200	REC_WORD	1.449	n/a	BANANA	Fruit	3	8	[0, 0, 0]	n/a	catFR1	1	R1343J
1152.107	4.945	1153515	REC_WORD	4.764	n/a	SOFA	Furniture	-999	8	[0, 0, 0]	n/a	catFR1	1	R1343J
1157.052	3.945	1158460	REC_WORD	9.709	n/a	TRUCK	Vehicles	-999	8	[0, 0, 0]	n/a	catFR1	1	R1343J
1160.997	2.96	1162405	REC_WORD	13.654	n/a	WATER	Beverages	-999	8	[0, 0, 0]	n/a	catFR1	1	R1343J
1163.957	5.66	1165365	REC_WORD	16.614	n/a	LIGHTNING	Weather	10	8	[0, 0, 0]	n/a	catFR1	1	R1343J
1169.617	7.737	1171024	REC_WORD	22.274	n/a	COFFEE	n/a	-999	8	[0, 0, 0]	n/a	catFR1	1	R1343J
1177.354	0.0	1178761	REC_END	n/a	n/a	n/a	n/a	-999	8	[0, 0, 0]	n/a	catFR1	1	R1343J
1177.354	0.02	1178761	TRIAL_END	n/a	n/a	n/a	n/a	-999	8	[0, 0, 0]	n/a	catFR1	1	R1343J
1177.374	0.0	1178781	TRIAL_START	n/a	n/a	n/a	n/a	-999	9	[0, 0, 0]	n/a	catFR1	1	R1343J
1177.374	0.001	1178781	TRIAL	n/a	n/a	n/a	n/a	-999	9	[0, 0, 0]	n/a	catFR1	1	R1343J
1177.375	3.023	1178782	WAITING_START	n/a	n/a	n/a	n/a	-999	9	[0, 0, 0]	n/a	catFR1	1	R1343J
1180.398	0.001	1181805	WAITING_END	n/a	n/a	n/a	n/a	-999	9	[0, 0, 0]	n/a	catFR1	1	R1343J
1180.399	10.0	1181806	COUNTDOWN_START	n/a	n/a	n/a	n/a	-999	9	[0, 0, 0]	n/a	catFR1	1	R1343J
1190.827	0.001	1192233	COUNTDOWN_END	n/a	n/a	n/a	n/a	-999	9	[0, 0, 0]	n/a	catFR1	1	R1343J
1190.828	1.189	1192234	ORIENT_START	n/a	n/a	n/a	n/a	-999	9	[0, 0, 0]	n/a	catFR1	1	R1343J
1192.017	0.0	1193423	ORIENT_END	n/a	n/a	n/a	n/a	-999	9	[0, 0, 0]	n/a	catFR1	1	R1343J
1192.017	0.873	1193423	ENCODING_START	n/a	n/a	n/a	n/a	-999	9	[0, 0, 0]	n/a	catFR1	1	R1343J
1192.89	1.6	1194296	WORD	n/a	wordpools/wordpool_categorized_EN.txt	MILK	Beverages	1	9	[0, 0, 0]	n/a	catFR1	1	R1343J
1194.517	0.927	1195923	WORD_OFF	n/a	n/a	MILK	Beverages	1	9	[0, 0, 0]	n/a	catFR1	1	R1343J
1195.444	1.6	1196850	WORD	n/a	wordpools/wordpool_categorized_EN.txt	COFFEE	Beverages	2	9	[0, 0, 0]	n/a	catFR1	1	R1343J
1197.068	1.142	1198474	WORD_OFF	n/a	n/a	COFFEE	Beverages	2	9	[0, 0, 0]	n/a	catFR1	1	R1343J
1198.21	1.6	1199616	WORD	n/a	wordpools/wordpool_categorized_EN.txt	BEE	Insects	3	9	[0, 0, 0]	n/a	catFR1	1	R1343J
1199.835	0.777	1201241	WORD_OFF	n/a	n/a	BEE	Insects	3	9	[0, 0, 0]	n/a	catFR1	1	R1343J
1200.612	1.6	1202018	WORD	n/a	wordpools/wordpool_categorized_EN.txt	BEETLE	Insects	4	9	[0, 0, 0]	n/a	catFR1	1	R1343J
1202.235	0.992	1203641	WORD_OFF	n/a	n/a	BEETLE	Insects	4	9	[0, 0, 0]	n/a	catFR1	1	R1343J
1203.227	1.6	1204633	WORD	n/a	wordpools/wordpool_categorized_EN.txt	DRIZZLE	Weather	5	9	[0, 0, 0]	n/a	catFR1	1	R1343J
1204.852	1.056	1206258	WORD_OFF	n/a	n/a	DRIZZLE	Weather	5	9	[0, 0, 0]	n/a	catFR1	1	R1343J
1205.908	1.6	1207314	WORD	n/a	wordpools/wordpool_categorized_EN.txt	FOG	Weather	6	9	[0, 0, 0]	n/a	catFR1	1	R1343J
1207.536	0.926	1208942	WORD_OFF	n/a	n/a	FOG	Weather	6	9	[0, 0, 0]	n/a	catFR1	1	R1343J
1208.462	1.6	1209868	WORD	n/a	wordpools/wordpool_categorized_EN.txt	FLY	Insects	7	9	[0, 0, 0]	n/a	catFR1	1	R1343J
1210.087	0.973	1211493	WORD_OFF	n/a	n/a	FLY	Insects	7	9	[0, 0, 0]	n/a	catFR1	1	R1343J
1211.06	1.6	1212466	WORD	n/a	wordpools/wordpool_categorized_EN.txt	MOTH	Insects	8	9	[0, 0, 0]	n/a	catFR1	1	R1343J
1212.687	1.006	1214093	WORD_OFF	n/a	n/a	MOTH	Insects	8	9	[0, 0, 0]	n/a	catFR1	1	R1343J
1213.693	1.6	1215099	WORD	n/a	wordpools/wordpool_categorized_EN.txt	HURRICANE	Weather	9	9	[0, 0, 0]	n/a	catFR1	1	R1343J
1215.321	1.096	1216726	WORD_OFF	n/a	n/a	HURRICANE	Weather	9	9	[0, 0, 0]	n/a	catFR1	1	R1343J
1216.417	1.6	1217822	WORD	n/a	wordpools/wordpool_categorized_EN.txt	CLOUD	Weather	10	9	[0, 0, 0]	n/a	catFR1	1	R1343J
1218.055	0.915	1219460	WORD_OFF	n/a	n/a	CLOUD	Weather	10	9	[0, 0, 0]	n/a	catFR1	1	R1343J
1218.97	1.6	1220375	WORD	n/a	wordpools/wordpool_categorized_EN.txt	LEMONADE	Beverages	11	9	[0, 0, 0]	n/a	catFR1	1	R1343J
1220.605	1.141	1222010	WORD_OFF	n/a	n/a	LEMONADE	Beverages	11	9	[0, 0, 0]	n/a	catFR1	1	R1343J
1221.746	1.6	1223151	WORD	n/a	wordpools/wordpool_categorized_EN.txt	BEER	Beverages	12	9	[0, 0, 0]	n/a	catFR1	1	R1343J
1223.372	0.001	1224777	WORD_OFF	n/a	n/a	BEER	Beverages	12	9	[0, 0, 0]	n/a	catFR1	1	R1343J
1223.373	0.0	1224778	ENCODING_END	n/a	n/a	n/a	n/a	-999	9	[0, 0, 0]	n/a	catFR1	1	R1343J
1223.373	0.0	1224778	DISTRACT_START	n/a	n/a	n/a	n/a	-999	9	[0, 0, 0]	n/a	catFR1	1	R1343J
1223.373	0.016	1224778	START	n/a	n/a	n/a	n/a	-999	9	[-999, -999, -999]	n/a	catFR1	1	R1343J
1223.389	6.051	1224794	PROB	6.025	n/a	n/a	n/a	-999	9	[4, 5, 4]	18.0	catFR1	1	R1343J
1229.44	3.417	1230845	PROB	3.381	n/a	n/a	n/a	-999	9	[9, 1, 2]	12.0	catFR1	1	R1343J
1232.857	6.883	1234262	PROB	6.853	n/a	n/a	n/a	-999	9	[7, 9, 5]	21.0	catFR1	1	R1343J
1239.74	7.458	1241144	PROB	7.458	n/a	n/a	n/a	-999	9	[7, 8, 5]	20.0	catFR1	1	R1343J
1247.198	0.012	1248602	STOP	n/a	n/a	n/a	n/a	-999	9	[-999, -999, -999]	n/a	catFR1	1	R1343J
1247.21	0.528	1248614	DISTRACT_END	n/a	n/a	n/a	n/a	-999	9	[0, 0, 0]	n/a	catFR1	1	R1343J
1247.738	1.6	1249142	RETRIEVAL_ORIENT_START	n/a	n/a	n/a	n/a	-999	9	[0, 0, 0]	n/a	catFR1	1	R1343J
1249.276	0.001	1250680	RETRIEVAL_ORIENT_END	n/a	n/a	n/a	n/a	-999	9	[0, 0, 0]	n/a	catFR1	1	R1343J
1249.277	2.37	1250681	REC_START	n/a	n/a	n/a	n/a	-999	9	[0, 0, 0]	n/a	catFR1	1	R1343J
1251.647	1.545	1253051	REC_WORD	2.37	n/a	MILK	Beverages	1	9	[0, 0, 0]	n/a	catFR1	1	R1343J
1253.192	4.334	1254596	REC_WORD	3.915	n/a	COFFEE	Beverages	2	9	[0, 0, 0]	n/a	catFR1	1	R1343J
1257.526	3.243	1258930	REC_WORD	8.249	n/a	BED	Furniture	-999	9	[0, 0, 0]	n/a	catFR1	1	R1343J
1260.769	2.005	1262172	REC_WORD	11.492	n/a	EAR	n/a	-999	9	[0, 0, 0]	n/a	catFR1	1	R1343J
1262.774	4.832	1264177	REC_WORD	13.497	n/a	DINER	n/a	-999	9	[0, 0, 0]	n/a	catFR1	1	R1343J
1267.606	6.67	1269009	REC_WORD	18.329	n/a	FOOD	n/a	-999	9	[0, 0, 0]	n/a	catFR1	1	R1343J
1274.276	4.28	1275679	REC_WORD_VV	24.999	n/a	<>	n/a	-999	9	[0, 0, 0]	n/a	catFR1	1	R1343J
1278.556	0.734	1279959	REC_WORD	29.279	n/a	DONUTS	n/a	-999	9	[0, 0, 0]	n/a	catFR1	1	R1343J
1279.29	0.0	1280693	REC_END	n/a	n/a	n/a	n/a	-999	9	[0, 0, 0]	n/a	catFR1	1	R1343J
1279.29	0.023	1280693	TRIAL_END	n/a	n/a	n/a	n/a	-999	9	[0, 0, 0]	n/a	catFR1	1	R1343J
1279.313	0.0	1280716	TRIAL_START	n/a	n/a	n/a	n/a	-999	10	[0, 0, 0]	n/a	catFR1	1	R1343J
1279.313	0.001	1280716	TRIAL	n/a	n/a	n/a	n/a	-999	10	[0, 0, 0]	n/a	catFR1	1	R1343J
1279.314	3.085	1280717	WAITING_START	n/a	n/a	n/a	n/a	-999	10	[0, 0, 0]	n/a	catFR1	1	R1343J
1282.399	0.0	1283802	WAITING_END	n/a	n/a	n/a	n/a	-999	10	[0, 0, 0]	n/a	catFR1	1	R1343J
1282.399	10.0	1283802	COUNTDOWN_START	n/a	n/a	n/a	n/a	-999	10	[0, 0, 0]	n/a	catFR1	1	R1343J
1292.828	0.0	1294230	ORIENT_START	n/a	n/a	n/a	n/a	-999	10	[0, 0, 0]	n/a	catFR1	1	R1343J
1292.828	1.123	1294230	COUNTDOWN_END	n/a	n/a	n/a	n/a	-999	10	[0, 0, 0]	n/a	catFR1	1	R1343J
1293.951	0.0	1295353	ORIENT_END	n/a	n/a	n/a	n/a	-999	10	[0, 0, 0]	n/a	catFR1	1	R1343J
1293.951	0.986	1295353	ENCODING_START	n/a	n/a	n/a	n/a	-999	10	[0, 0, 0]	n/a	catFR1	1	R1343J
1294.937	1.6	1296339	WORD	n/a	wordpools/wordpool_categorized_EN.txt	TURKEY	FarmAnimals	1	10	[0, 0, 0]	n/a	catFR1	1	R1343J
1296.568	0.948	1297970	WORD_OFF	n/a	n/a	TURKEY	FarmAnimals	1	10	[0, 0, 0]	n/a	catFR1	1	R1343J
1297.516	1.6	1298918	WORD	n/a	wordpools/wordpool_categorized_EN.txt	GOAT	FarmAnimals	2	10	[0, 0, 0]	n/a	catFR1	1	R1343J
1299.152	0.807	1300554	WORD_OFF	n/a	n/a	GOAT	FarmAnimals	2	10	[0, 0, 0]	n/a	catFR1	1	R1343J
1299.959	1.6	1301361	WORD	n/a	wordpools/wordpool_categorized_EN.txt	VIOLIN	Instruments	3	10	[0, 0, 0]	n/a	catFR1	1	R1343J
1301.585	1.128	1302987	WORD_OFF	n/a	n/a	VIOLIN	Instruments	3	10	[0, 0, 0]	n/a	catFR1	1	R1343J
1302.713	1.6	1304115	WORD	n/a	wordpools/wordpool_categorized_EN.txt	DRUM	Instruments	4	10	[0, 0, 0]	n/a	catFR1	1	R1343J
1304.336	0.987	1305738	WORD_OFF	n/a	n/a	DRUM	Instruments	4	10	[0, 0, 0]	n/a	catFR1	1	R1343J
1305.323	1.6	1306725	WORD	n/a	wordpools/wordpool_categorized_EN.txt	OYSTER	OceanAnimals	5	10	[0, 0, 0]	n/a	catFR1	1	R1343J
1306.953	0.985	1308354	WORD_OFF	n/a	n/a	OYSTER	OceanAnimals	5	10	[0, 0, 0]	n/a	catFR1	1	R1343J
1307.938	1.6	1309339	WORD	n/a	wordpools/wordpool_categorized_EN.txt	SQUID	OceanAnimals	6	10	[0, 0, 0]	n/a	catFR1	1	R1343J
1309.57	1.044	1310971	WORD_OFF	n/a	n/a	SQUID	OceanAnimals	6	10	[0, 0, 0]	n/a	catFR1	1	R1343J
1310.614	1.6	1312015	WORD	n/a	wordpools/wordpool_categorized_EN.txt	CHICKEN	FarmAnimals	7	10	[0, 0, 0]	n/a	catFR1	1	R1343J
1312.237	1.092	1313638	WORD_OFF	n/a	n/a	CHICKEN	FarmAnimals	7	10	[0, 0, 0]	n/a	catFR1	1	R1343J
1313.329	1.6	1314730	WORD	n/a	wordpools/wordpool_categorized_EN.txt	PIG	FarmAnimals	8	10	[0, 0, 0]	n/a	catFR1	1	R1343J
1314.954	0.936	1316355	WORD_OFF	n/a	n/a	PIG	FarmAnimals	8	10	[0, 0, 0]	n/a	catFR1	1	R1343J
1315.89	1.6	1317291	WORD	n/a	wordpools/wordpool_categorized_EN.txt	OCTOPUS	OceanAnimals	9	10	[0, 0, 0]	n/a	catFR1	1	R1343J
1317.521	0.896	1318922	WORD_OFF	n/a	n/a	OCTOPUS	OceanAnimals	9	10	[0, 0, 0]	n/a	catFR1	1	R1343J
1318.417	1.6	1319818	WORD	n/a	wordpools/wordpool_categorized_EN.txt	FISH	OceanAnimals	10	10	[0, 0, 0]	n/a	catFR1	1	R1343J
1320.039	1.095	1321440	WORD_OFF	n/a	n/a	FISH	OceanAnimals	10	10	[0, 0, 0]	n/a	catFR1	1	R1343J
1321.134	1.6	1322535	WORD	n/a	wordpools/wordpool_categorized_EN.txt	FLUTE	Instruments	11	10	[0, 0, 0]	n/a	catFR1	1	R1343J
1322.755	0.85	1324156	WORD_OFF	n/a	n/a	FLUTE	Instruments	11	10	[0, 0, 0]	n/a	catFR1	1	R1343J
1323.605	1.6	1325006	WORD	n/a	wordpools/wordpool_categorized_EN.txt	TROMBONE	Instruments	12	10	[0, 0, 0]	n/a	catFR1	1	R1343J
1325.239	0.001	1326640	WORD_OFF	n/a	n/a	TROMBONE	Instruments	12	10	[0, 0, 0]	n/a	catFR1	1	R1343J
1325.24	0.0	1326641	ENCODING_END	n/a	n/a	n/a	n/a	-999	10	[0, 0, 0]	n/a	catFR1	1	R1343J
1325.24	0.0	1326641	DISTRACT_START	n/a	n/a	n/a	n/a	-999	10	[0, 0, 0]	n/a	catFR1	1	R1343J
1325.24	0.016	1326641	START	n/a	n/a	n/a	n/a	-999	10	[-999, -999, -999]	n/a	catFR1	1	R1343J
1325.256	7.151	1326657	PROB	7.119	n/a	n/a	n/a	-999	10	[2, 8, 9]	20.0	catFR1	1	R1343J
1332.407	5.901	1333807	PROB	5.875	n/a	n/a	n/a	-999	10	[6, 4, 3]	13.0	catFR1	1	R1343J
1338.308	3.184	1339708	PROB	3.15	n/a	n/a	n/a	-999	10	[7, 2, 3]	12.0	catFR1	1	R1343J
1341.492	7.944	1342892	PROB	7.944	n/a	n/a	n/a	-999	10	[7, 3, 6]	16.0	catFR1	1	R1343J
1349.436	0.007	1350836	STOP	n/a	n/a	n/a	n/a	-999	10	[-999, -999, -999]	n/a	catFR1	1	R1343J
1349.443	0.617	1350843	DISTRACT_END	n/a	n/a	n/a	n/a	-999	10	[0, 0, 0]	n/a	catFR1	1	R1343J
1350.06	1.6	1351460	RETRIEVAL_ORIENT_START	n/a	n/a	n/a	n/a	-999	10	[0, 0, 0]	n/a	catFR1	1	R1343J
1351.759	0.001	1353159	RETRIEVAL_ORIENT_END	n/a	n/a	n/a	n/a	-999	10	[0, 0, 0]	n/a	catFR1	1	R1343J
1351.76	1.8	1353160	REC_START	n/a	n/a	n/a	n/a	-999	10	[0, 0, 0]	n/a	catFR1	1	R1343J
1353.56	3.16	1354959	REC_WORD_VV	1.8	n/a	<>	n/a	-999	10	[0, 0, 0]	n/a	catFR1	1	R1343J
1356.72	0.746	1358119	REC_WORD	4.96	n/a	TURKEY	FarmAnimals	1	10	[0, 0, 0]	n/a	catFR1	1	R1343J
1357.466	3.13	1358865	REC_WORD	5.706	n/a	DONUT	n/a	-999	10	[0, 0, 0]	n/a	catFR1	1	R1343J
1360.596	1.285	1361995	REC_WORD	8.836	n/a	BOAT	Vehicles	-999	10	[0, 0, 0]	n/a	catFR1	1	R1343J
1361.881	2.039	1363280	REC_WORD	10.121	n/a	FISH	OceanAnimals	10	10	[0, 0, 0]	n/a	catFR1	1	R1343J
1363.92	2.432	1365319	REC_WORD	12.16	n/a	SEA FISH	n/a	-999	10	[0, 0, 0]	n/a	catFR1	1	R1343J
1366.352	15.419	1367751	REC_WORD	14.592	n/a	SPARROW	Birds	-999	10	[0, 0, 0]	n/a	catFR1	1	R1343J
1381.771	0.0	1383169	TRIAL_END	n/a	n/a	n/a	n/a	-999	10	[0, 0, 0]	n/a	catFR1	1	R1343J
1381.771	0.02	1383169	REC_END	n/a	n/a	n/a	n/a	-999	10	[0, 0, 0]	n/a	catFR1	1	R1343J
1381.791	0.0	1383189	TRIAL_START	n/a	n/a	n/a	n/a	-999	11	[0, 0, 0]	n/a	catFR1	1	R1343J
1381.791	0.0	1383189	TRIAL	n/a	n/a	n/a	n/a	-999	11	[0, 0, 0]	n/a	catFR1	1	R1343J
1381.791	2.092	1383189	WAITING_START	n/a	n/a	n/a	n/a	-999	11	[0, 0, 0]	n/a	catFR1	1	R1343J
1383.883	0.0	1385281	WAITING_END	n/a	n/a	n/a	n/a	-999	11	[0, 0, 0]	n/a	catFR1	1	R1343J
1383.883	10.0	1385281	COUNTDOWN_START	n/a	n/a	n/a	n/a	-999	11	[0, 0, 0]	n/a	catFR1	1	R1343J
1394.311	0.001	1395709	COUNTDOWN_END	n/a	n/a	n/a	n/a	-999	11	[0, 0, 0]	n/a	catFR1	1	R1343J
1394.312	1.106	1395710	ORIENT_START	n/a	n/a	n/a	n/a	-999	11	[0, 0, 0]	n/a	catFR1	1	R1343J
1395.418	0.0	1396816	ENCODING_START	n/a	n/a	n/a	n/a	-999	11	[0, 0, 0]	n/a	catFR1	1	R1343J
1395.418	0.772	1396816	ORIENT_END	n/a	n/a	n/a	n/a	-999	11	[0, 0, 0]	n/a	catFR1	1	R1343J
1396.19	1.6	1397588	WORD	n/a	wordpools/wordpool_categorized_EN.txt	STOVE	Appliances	1	11	[0, 0, 0]	n/a	catFR1	1	R1343J
1397.817	0.794	1399215	WORD_OFF	n/a	n/a	STOVE	Appliances	1	11	[0, 0, 0]	n/a	catFR1	1	R1343J
1398.611	1.6	1400009	WORD	n/a	wordpools/wordpool_categorized_EN.txt	OVEN	Appliances	2	11	[0, 0, 0]	n/a	catFR1	1	R1343J
1400.235	1.022	1401632	WORD_OFF	n/a	n/a	OVEN	Appliances	2	11	[0, 0, 0]	n/a	catFR1	1	R1343J
1401.257	1.6	1402654	WORD	n/a	wordpools/wordpool_categorized_EN.txt	CEILING	Building	3	11	[0, 0, 0]	n/a	catFR1	1	R1343J
1402.886	1.127	1404283	WORD_OFF	n/a	n/a	CEILING	Building	3	11	[0, 0, 0]	n/a	catFR1	1	R1343J
1404.013	1.6	1405410	WORD	n/a	wordpools/wordpool_categorized_EN.txt	DOOR	Building	4	11	[0, 0, 0]	n/a	catFR1	1	R1343J
1405.636	0.981	1407033	WORD_OFF	n/a	n/a	DOOR	Building	4	11	[0, 0, 0]	n/a	catFR1	1	R1343J
1406.617	1.6	1408014	WORD	n/a	wordpools/wordpool_categorized_EN.txt	DAFFODIL	Flowers	5	11	[0, 0, 0]	n/a	catFR1	1	R1343J
1408.253	0.9	1409650	WORD_OFF	n/a	n/a	DAFFODIL	Flowers	5	11	[0, 0, 0]	n/a	catFR1	1	R1343J
1409.153	1.6	1410550	WORD	n/a	wordpools/wordpool_categorized_EN.txt	PETUNIA	Flowers	6	11	[0, 0, 0]	n/a	catFR1	1	R1343J
1410.786	1.105	1412183	WORD_OFF	n/a	n/a	PETUNIA	Flowers	6	11	[0, 0, 0]	n/a	catFR1	1	R1343J
1411.891	1.6	1413288	WORD	n/a	wordpools/wordpool_categorized_EN.txt	FREEZER	Appliances	7	11	[0, 0, 0]	n/a	catFR1	1	R1343J
1413.521	1.111	1414918	WORD_OFF	n/a	n/a	FREEZER	Appliances	7	11	[0, 0, 0]	n/a	catFR1	1	R1343J
1414.632	1.6	1416029	WORD	n/a	wordpools/wordpool_categorized_EN.txt	DISHWASHER	Appliances	8	11	[0, 0, 0]	n/a	catFR1	1	R1343J
1416.271	1.083	1417668	WORD_OFF	n/a	n/a	DISHWASHER	Appliances	8	11	[0, 0, 0]	n/a	catFR1	1	R1343J
1417.354	1.6	1418751	WORD	n/a	wordpools/wordpool_categorized_EN.txt	TULIP	Flowers	9	11	[0, 0, 0]	n/a	catFR1	1	R1343J
1418.989	0.871	1420386	WORD_OFF	n/a	n/a	TULIP	Flowers	9	11	[0, 0, 0]	n/a	catFR1	1	R1343J
1419.86	1.6	1421257	WORD	n/a	wordpools/wordpool_categorized_EN.txt	VIOLET	Flowers	10	11	[0, 0, 0]	n/a	catFR1	1	R1343J
1421.489	0.77	1422886	WORD_OFF	n/a	n/a	VIOLET	Flowers	10	11	[0, 0, 0]	n/a	catFR1	1	R1343J
1422.259	1.6	1423655	WORD	n/a	wordpools/wordpool_categorized_EN.txt	WINDOW	Building	11	11	[0, 0, 0]	n/a	catFR1	1	R1343J
1423.889	0.787	1425285	WORD_OFF	n/a	n/a	WINDOW	Building	11	11	[0, 0, 0]	n/a	catFR1	1	R1343J
1424.676	1.6	1426072	WORD	n/a	wordpools/wordpool_categorized_EN.txt	BATHROOM	Building	12	11	[0, 0, 0]	n/a	catFR1	1	R1343J
1426.307	0.0	1427703	WORD_OFF	n/a	n/a	BATHROOM	Building	12	11	[0, 0, 0]	n/a	catFR1	1	R1343J
1426.307	0.0	1427703	ENCODING_END	n/a	n/a	n/a	n/a	-999	11	[0, 0, 0]	n/a	catFR1	1	R1343J
1426.307	0.001	1427703	DISTRACT_START	n/a	n/a	n/a	n/a	-999	11	[0, 0, 0]	n/a	catFR1	1	R1343J
1426.308	0.015	1427704	START	n/a	n/a	n/a	n/a	-999	11	[-999, -999, -999]	n/a	catFR1	1	R1343J
1426.323	3.717	1427719	PROB	3.688	n/a	n/a	n/a	-999	11	[1, 9, 2]	12.0	catFR1	1	R1343J
1430.04	6.635	1431436	PROB	6.605	n/a	n/a	n/a	-999	11	[8, 5, 6]	19.0	catFR1	1	R1343J
1436.675	3.184	1438071	PROB	3.146	n/a	n/a	n/a	-999	11	[5, 2, 1]	8.0	catFR1	1	R1343J
1439.859	3.866	1441255	PROB	3.834	n/a	n/a	n/a	-999	11	[3, 6, 2]	11.0	catFR1	1	R1343J
1443.725	4.321	1445121	PROB	4.321	n/a	n/a	n/a	-999	11	[5, 7, 3]	15.0	catFR1	1	R1343J
1448.046	0.014	1449441	STOP	n/a	n/a	n/a	n/a	-999	11	[-999, -999, -999]	n/a	catFR1	1	R1343J
1448.06	0.683	1449455	DISTRACT_END	n/a	n/a	n/a	n/a	-999	11	[0, 0, 0]	n/a	catFR1	1	R1343J
1448.743	1.6	1450138	RETRIEVAL_ORIENT_START	n/a	n/a	n/a	n/a	-999	11	[0, 0, 0]	n/a	catFR1	1	R1343J
1450.427	0.0	1451822	REC_START	n/a	n/a	n/a	n/a	-999	11	[0, 0, 0]	n/a	catFR1	1	R1343J
1450.427	0.734	1451822	RETRIEVAL_ORIENT_END	n/a	n/a	n/a	n/a	-999	11	[0, 0, 0]	n/a	catFR1	1	R1343J
1451.161	1.705	1452556	REC_WORD	0.734	n/a	STOVE	Appliances	1	11	[0, 0, 0]	n/a	catFR1	1	R1343J
1452.866	2.973	1454261	REC_WORD	2.439	n/a	OVEN	Appliances	2	11	[0, 0, 0]	n/a	catFR1	1	R1343J
1455.839	3.937	1457234	REC_WORD	5.412	n/a	REFRIGERATOR	Appliances	-999	11	[0, 0, 0]	n/a	catFR1	1	R1343J
1459.776	4.15	1461171	REC_WORD_VV	9.349	n/a	<>	n/a	-999	11	[0, 0, 0]	n/a	catFR1	1	R1343J
1463.926	0.87	1465321	REC_WORD	13.499	n/a	STOVE	Appliances	1	11	[0, 0, 0]	n/a	catFR1	1	R1343J
1464.796	1.39	1466191	REC_WORD	14.369	n/a	LIGHT	n/a	-999	11	[0, 0, 0]	n/a	catFR1	1	R1343J
1466.186	1.26	1467581	REC_WORD	15.759	n/a	EEL	n/a	-999	11	[0, 0, 0]	n/a	catFR1	1	R1343J
1467.446	3.505	1468841	REC_WORD	17.019	n/a	SPATULA	KitchenTools	-999	11	[0, 0, 0]	n/a	catFR1	1	R1343J
1470.951	1.07	1472345	REC_WORD_VV	20.524	n/a	<>	n/a	-999	11	[0, 0, 0]	n/a	catFR1	1	R1343J
1472.021	8.418	1473415	REC_WORD	21.594	n/a	FLOWER	n/a	-999	11	[0, 0, 0]	n/a	catFR1	1	R1343J
1480.439	0.0	1481833	REC_END	n/a	n/a	n/a	n/a	-999	11	[0, 0, 0]	n/a	catFR1	1	R1343J
1480.439	0.021	1481833	TRIAL_END	n/a	n/a	n/a	n/a	-999	11	[0, 0, 0]	n/a	catFR1	1	R1343J
1480.46	0.0	1481854	TRIAL_START	n/a	n/a	n/a	n/a	-999	12	[0, 0, 0]	n/a	catFR1	1	R1343J
1480.46	0.0	1481854	TRIAL	n/a	n/a	n/a	n/a	-999	12	[0, 0, 0]	n/a	catFR1	1	R1343J
1480.46	2.706	1481854	WAITING_START	n/a	n/a	n/a	n/a	-999	12	[0, 0, 0]	n/a	catFR1	1	R1343J
1483.166	0.0	1484560	WAITING_END	n/a	n/a	n/a	n/a	-999	12	[0, 0, 0]	n/a	catFR1	1	R1343J
1483.166	10.0	1484560	COUNTDOWN_START	n/a	n/a	n/a	n/a	-999	12	[0, 0, 0]	n/a	catFR1	1	R1343J
1493.596	0.0	1494989	ORIENT_START	n/a	n/a	n/a	n/a	-999	12	[0, 0, 0]	n/a	catFR1	1	R1343J
1493.596	1.239	1494989	COUNTDOWN_END	n/a	n/a	n/a	n/a	-999	12	[0, 0, 0]	n/a	catFR1	1	R1343J
1494.835	0.0	1496228	ORIENT_END	n/a	n/a	n/a	n/a	-999	12	[0, 0, 0]	n/a	catFR1	1	R1343J
1494.835	1.042	1496228	ENCODING_START	n/a	n/a	n/a	n/a	-999	12	[0, 0, 0]	n/a	catFR1	1	R1343J
1495.877	1.6	1497270	WORD	n/a	wordpools/wordpool_categorized_EN.txt	RUM	Beverages	1	12	[0, 0, 0]	n/a	catFR1	1	R1343J
1497.502	0.878	1498895	WORD_OFF	n/a	n/a	RUM	Beverages	1	12	[0, 0, 0]	n/a	catFR1	1	R1343J
1498.38	1.6	1499773	WORD	n/a	wordpools/wordpool_categorized_EN.txt	WINE	Beverages	2	12	[0, 0, 0]	n/a	catFR1	1	R1343J
1500.002	0.76	1501395	WORD_OFF	n/a	n/a	WINE	Beverages	2	12	[0, 0, 0]	n/a	catFR1	1	R1343J
1500.762	1.6	1502155	WORD	n/a	wordpools/wordpool_categorized_EN.txt	BASS	Instruments	3	12	[0, 0, 0]	n/a	catFR1	1	R1343J
1502.386	0.906	1503779	WORD_OFF	n/a	n/a	BASS	Instruments	3	12	[0, 0, 0]	n/a	catFR1	1	R1343J
1503.292	1.6	1504685	WORD	n/a	wordpools/wordpool_categorized_EN.txt	ORGAN	Instruments	4	12	[0, 0, 0]	n/a	catFR1	1	R1343J
1504.92	0.812	1506313	WORD_OFF	n/a	n/a	ORGAN	Instruments	4	12	[0, 0, 0]	n/a	catFR1	1	R1343J
1505.732	1.6	1507125	WORD	n/a	wordpools/wordpool_categorized_EN.txt	BASEBALL	Toys	5	12	[0, 0, 0]	n/a	catFR1	1	R1343J
1507.37	0.916	1508763	WORD_OFF	n/a	n/a	BASEBALL	Toys	5	12	[0, 0, 0]	n/a	catFR1	1	R1343J
1508.286	1.6	1509679	WORD	n/a	wordpools/wordpool_categorized_EN.txt	PUZZLE	Toys	6	12	[0, 0, 0]	n/a	catFR1	1	R1343J
1509.921	0.793	1511314	WORD_OFF	n/a	n/a	PUZZLE	Toys	6	12	[0, 0, 0]	n/a	catFR1	1	R1343J
1510.714	1.6	1512107	WORD	n/a	wordpools/wordpool_categorized_EN.txt	JUICE	Beverages	7	12	[0, 0, 0]	n/a	catFR1	1	R1343J
1512.321	0.823	1513714	WORD_OFF	n/a	n/a	JUICE	Beverages	7	12	[0, 0, 0]	n/a	catFR1	1	R1343J
1513.144	1.6	1514537	WORD	n/a	wordpools/wordpool_categorized_EN.txt	COLA	Beverages	8	12	[0, 0, 0]	n/a	catFR1	1	R1343J
1514.77	0.902	1516162	WORD_OFF	n/a	n/a	COLA	Beverages	8	12	[0, 0, 0]	n/a	catFR1	1	R1343J
1515.672	1.6	1517064	WORD	n/a	wordpools/wordpool_categorized_EN.txt	PIANO	Instruments	9	12	[0, 0, 0]	n/a	catFR1	1	R1343J
1517.305	0.754	1518697	WORD_OFF	n/a	n/a	PIANO	Instruments	9	12	[0, 0, 0]	n/a	catFR1	1	R1343J
1518.059	1.6	1519451	WORD	n/a	wordpools/wordpool_categorized_EN.txt	CELLO	Instruments	10	12	[0, 0, 0]	n/a	catFR1	1	R1343J
1519.689	0.857	1521081	WORD_OFF	n/a	n/a	CELLO	Instruments	10	12	[0, 0, 0]	n/a	catFR1	1	R1343J
1520.546	1.6	1521938	WORD	n/a	wordpools/wordpool_categorized_EN.txt	FRISBEE	Toys	11	12	[0, 0, 0]	n/a	catFR1	1	R1343J
1522.173	1.108	1523565	WORD_OFF	n/a	n/a	FRISBEE	Toys	11	12	[0, 0, 0]	n/a	catFR1	1	R1343J
1523.281	1.6	1524673	WORD	n/a	wordpools/wordpool_categorized_EN.txt	FOOTBALL	Toys	12	12	[0, 0, 0]	n/a	catFR1	1	R1343J
1524.906	0.001	1526298	WORD_OFF	n/a	n/a	FOOTBALL	Toys	12	12	[0, 0, 0]	n/a	catFR1	1	R1343J
1524.907	0.0	1526299	ENCODING_END	n/a	n/a	n/a	n/a	-999	12	[0, 0, 0]	n/a	catFR1	1	R1343J
1524.907	0.001	1526299	DISTRACT_START	n/a	n/a	n/a	n/a	-999	12	[0, 0, 0]	n/a	catFR1	1	R1343J
1524.908	0.015	1526300	START	n/a	n/a	n/a	n/a	-999	12	[-999, -999, -999]	n/a	catFR1	1	R1343J
1524.923	7.451	1526315	PROB	7.428	n/a	n/a	n/a	-999	12	[6, 3, 1]	10.0	catFR1	1	R1343J
1532.374	5.201	1533766	PROB	5.169	n/a	n/a	n/a	-999	12	[5, 3, 8]	16.0	catFR1	1	R1343J
1537.575	3.551	1538967	PROB	3.52	n/a	n/a	n/a	-999	12	[1, 9, 5]	15.0	catFR1	1	R1343J
1541.126	5.217	1542517	PROB	5.217	n/a	n/a	n/a	-999	12	[6, 9, 5]	20.0	catFR1	1	R1343J
1546.343	0.017	1547734	STOP	n/a	n/a	n/a	n/a	-999	12	[-999, -999, -999]	n/a	catFR1	1	R1343J
1546.36	0.666	1547751	DISTRACT_END	n/a	n/a	n/a	n/a	-999	12	[0, 0, 0]	n/a	catFR1	1	R1343J
1547.026	1.6	1548417	RETRIEVAL_ORIENT_START	n/a	n/a	n/a	n/a	-999	12	[0, 0, 0]	n/a	catFR1	1	R1343J
1548.677	0.0	1550068	RETRIEVAL_ORIENT_END	n/a	n/a	n/a	n/a	-999	12	[0, 0, 0]	n/a	catFR1	1	R1343J
1548.677	0.78	1550068	REC_START	n/a	n/a	n/a	n/a	-999	12	[0, 0, 0]	n/a	catFR1	1	R1343J
1549.457	0.995	1550848	REC_WORD	0.78	n/a	RUM	Beverages	1	12	[0, 0, 0]	n/a	catFR1	1	R1343J
1550.452	1.275	1551843	REC_WORD	1.775	n/a	WINE	Beverages	2	12	[0, 0, 0]	n/a	catFR1	1	R1343J
1551.727	2.555	1553118	REC_WORD	3.05	n/a	BASEBALL	Toys	5	12	[0, 0, 0]	n/a	catFR1	1	R1343J
1554.282	7.21	1555673	REC_WORD	5.605	n/a	FOOTBALL	Toys	12	12	[0, 0, 0]	n/a	catFR1	1	R1343J
1561.492	3.775	1562882	REC_WORD	12.815	n/a	HOKEY	n/a	-999	12	[0, 0, 0]	n/a	catFR1	1	R1343J
1565.267	13.424	1566657	REC_WORD	16.59	n/a	FLOWER	n/a	-999	12	[0, 0, 0]	n/a	catFR1	1	R1343J
1578.691	0.0	1580081	REC_END	n/a	n/a	n/a	n/a	-999	12	[0, 0, 0]	n/a	catFR1	1	R1343J
1578.691	0.023	1580081	TRIAL_END	n/a	n/a	n/a	n/a	-999	12	[0, 0, 0]	n/a	catFR1	1	R1343J
1578.714	0.0	1580104	TRIAL_START	n/a	n/a	n/a	n/a	-999	13	[0, 0, 0]	n/a	catFR1	1	R1343J
1578.714	0.0	1580104	TRIAL	n/a	n/a	n/a	n/a	-999	13	[0, 0, 0]	n/a	catFR1	1	R1343J
1578.714	2.985	1580104	WAITING_START	n/a	n/a	n/a	n/a	-999	13	[0, 0, 0]	n/a	catFR1	1	R1343J
1581.699	0.001	1583089	WAITING_END	n/a	n/a	n/a	n/a	-999	13	[0, 0, 0]	n/a	catFR1	1	R1343J
1581.7	10.0	1583090	COUNTDOWN_START	n/a	n/a	n/a	n/a	-999	13	[0, 0, 0]	n/a	catFR1	1	R1343J
1592.128	0.001	1593517	COUNTDOWN_END	n/a	n/a	n/a	n/a	-999	13	[0, 0, 0]	n/a	catFR1	1	R1343J
1592.129	1.139	1593518	ORIENT_START	n/a	n/a	n/a	n/a	-999	13	[0, 0, 0]	n/a	catFR1	1	R1343J
1593.268	0.001	1594657	ORIENT_END	n/a	n/a	n/a	n/a	-999	13	[0, 0, 0]	n/a	catFR1	1	R1343J
1593.269	0.769	1594658	ENCODING_START	n/a	n/a	n/a	n/a	-999	13	[0, 0, 0]	n/a	catFR1	1	R1343J
1594.038	1.6	1595427	WORD	n/a	wordpools/wordpool_categorized_EN.txt	COMPUTER	Electronics	1	13	[0, 0, 0]	n/a	catFR1	1	R1343J
1595.668	1.112	1597057	WORD_OFF	n/a	n/a	COMPUTER	Electronics	1	13	[0, 0, 0]	n/a	catFR1	1	R1343J
1596.78	1.6	1598169	WORD	n/a	wordpools/wordpool_categorized_EN.txt	HEADPHONES	Electronics	2	13	[0, 0, 0]	n/a	catFR1	1	R1343J
1598.419	0.856	1599808	WORD_OFF	n/a	n/a	HEADPHONES	Electronics	2	13	[0, 0, 0]	n/a	catFR1	1	R1343J
1599.275	1.6	1600664	WORD	n/a	wordpools/wordpool_categorized_EN.txt	APPLE	Fruit	3	13	[0, 0, 0]	n/a	catFR1	1	R1343J
1600.903	0.867	1602292	WORD_OFF	n/a	n/a	APPLE	Fruit	3	13	[0, 0, 0]	n/a	catFR1	1	R1343J
1601.77	1.6	1603159	WORD	n/a	wordpools/wordpool_categorized_EN.txt	ORANGE	Fruit	4	13	[0, 0, 0]	n/a	catFR1	1	R1343J
1603.403	0.848	1604792	WORD_OFF	n/a	n/a	ORANGE	Fruit	4	13	[0, 0, 0]	n/a	catFR1	1	R1343J
1604.251	1.6	1605640	WORD	n/a	wordpools/wordpool_categorized_EN.txt	TUBA	Instruments	5	13	[0, 0, 0]	n/a	catFR1	1	R1343J
1605.887	1.075	1607276	WORD_OFF	n/a	n/a	TUBA	Instruments	5	13	[0, 0, 0]	n/a	catFR1	1	R1343J
1606.962	1.6	1608351	WORD	n/a	wordpools/wordpool_categorized_EN.txt	GUITAR	Instruments	6	13	[0, 0, 0]	n/a	catFR1	1	R1343J
1608.587	0.952	1609975	WORD_OFF	n/a	n/a	GUITAR	Instruments	6	13	[0, 0, 0]	n/a	catFR1	1	R1343J
1609.539	1.6	1610927	WORD	n/a	wordpools/wordpool_categorized_EN.txt	LEMON	Fruit	7	13	[0, 0, 0]	n/a	catFR1	1	R1343J
1611.171	0.775	1612559	WORD_OFF	n/a	n/a	LEMON	Fruit	7	13	[0, 0, 0]	n/a	catFR1	1	R1343J
1611.946	1.6	1613334	WORD	n/a	wordpools/wordpool_categorized_EN.txt	PEACH	Fruit	8	13	[0, 0, 0]	n/a	catFR1	1	R1343J
1613.571	0.923	1614959	WORD_OFF	n/a	n/a	PEACH	Fruit	8	13	[0, 0, 0]	n/a	catFR1	1	R1343J
1614.494	1.6	1615882	WORD	n/a	wordpools/wordpool_categorized_EN.txt	TRUMPET	Instruments	9	13	[0, 0, 0]	n/a	catFR1	1	R1343J
1616.122	0.839	1617510	WORD_OFF	n/a	n/a	TRUMPET	Instruments	9	13	[0, 0, 0]	n/a	catFR1	1	R1343J
1616.961	1.6	1618349	WORD	n/a	wordpools/wordpool_categorized_EN.txt	BANJO	Instruments	10	13	[0, 0, 0]	n/a	catFR1	1	R1343J
1618.589	1.115	1619977	WORD_OFF	n/a	n/a	BANJO	Instruments	10	13	[0, 0, 0]	n/a	catFR1	1	R1343J
1619.704	1.6	1621092	WORD	n/a	wordpools/wordpool_categorized_EN.txt	PHONE	Electronics	11	13	[0, 0, 0]	n/a	catFR1	1	R1343J
1621.322	1.001	1622710	WORD_OFF	n/a	n/a	PHONE	Electronics	11	13	[0, 0, 0]	n/a	catFR1	1	R1343J
1622.323	1.6	1623711	WORD	n/a	wordpools/wordpool_categorized_EN.txt	MICROWAVE	Electronics	12	13	[0, 0, 0]	n/a	catFR1	1	R1343J
1623.956	0.001	1625344	WORD_OFF	n/a	n/a	MICROWAVE	Electronics	12	13	[0, 0, 0]	n/a	catFR1	1	R1343J
1623.957	0.0	1625345	ENCODING_END	n/a	n/a	n/a	n/a	-999	13	[0, 0, 0]	n/a	catFR1	1	R1343J
1623.957	0.001	1625345	DISTRACT_START	n/a	n/a	n/a	n/a	-999	13	[0, 0, 0]	n/a	catFR1	1	R1343J
1623.958	0.015	1625346	START	n/a	n/a	n/a	n/a	-999	13	[-999, -999, -999]	n/a	catFR1	1	R1343J
1623.973	6.118	1625361	PROB	6.082	n/a	n/a	n/a	-999	13	[8, 3, 8]	19.0	catFR1	1	R1343J
1630.091	4.434	1631479	PROB	4.404	n/a	n/a	n/a	-999	13	[6, 4, 7]	17.0	catFR1	1	R1343J
1634.525	6.901	1635912	PROB	6.871	n/a	n/a	n/a	-999	13	[9, 8, 3]	20.0	catFR1	1	R1343J
1641.426	3.202	1642813	PROB	3.202	n/a	n/a	n/a	-999	13	[2, 7, 2]	11.0	catFR1	1	R1343J
1644.628	0.015	1646015	STOP	n/a	n/a	n/a	n/a	-999	13	[-999, -999, -999]	n/a	catFR1	1	R1343J
1644.643	0.601	1646030	DISTRACT_END	n/a	n/a	n/a	n/a	-999	13	[0, 0, 0]	n/a	catFR1	1	R1343J
1645.244	1.6	1646631	RETRIEVAL_ORIENT_START	n/a	n/a	n/a	n/a	-999	13	[0, 0, 0]	n/a	catFR1	1	R1343J
1646.793	0.0	1648180	RETRIEVAL_ORIENT_END	n/a	n/a	n/a	n/a	-999	13	[0, 0, 0]	n/a	catFR1	1	R1343J
1646.793	7.565	1648180	REC_START	n/a	n/a	n/a	n/a	-999	13	[0, 0, 0]	n/a	catFR1	1	R1343J
1654.358	1.318	1655744	REC_WORD	7.565	n/a	BASEBALL	Toys	-999	13	[0, 0, 0]	n/a	catFR1	1	R1343J
1655.676	11.96	1657062	REC_WORD	8.883	n/a	APPLE	Fruit	3	13	[0, 0, 0]	n/a	catFR1	1	R1343J
1667.636	9.17	1669022	REC_WORD_VV	20.843	n/a	<>	n/a	-999	13	[0, 0, 0]	n/a	catFR1	1	R1343J
1676.806	0.001	1678191	REC_END	n/a	n/a	n/a	n/a	-999	13	[0, 0, 0]	n/a	catFR1	1	R1343J
1676.807	0.02	1678192	TRIAL_END	n/a	n/a	n/a	n/a	-999	13	[0, 0, 0]	n/a	catFR1	1	R1343J
1676.827	0.001	1678212	TRIAL_START	n/a	n/a	n/a	n/a	-999	14	[0, 0, 0]	n/a	catFR1	1	R1343J
1676.828	0.0	1678213	WAITING_START	n/a	n/a	n/a	n/a	-999	14	[0, 0, 0]	n/a	catFR1	1	R1343J
1676.828	8.005	1678213	TRIAL	n/a	n/a	n/a	n/a	-999	14	[0, 0, 0]	n/a	catFR1	1	R1343J
1684.833	0.001	1686218	WAITING_END	n/a	n/a	n/a	n/a	-999	14	[0, 0, 0]	n/a	catFR1	1	R1343J
1684.834	10.0	1686219	COUNTDOWN_START	n/a	n/a	n/a	n/a	-999	14	[0, 0, 0]	n/a	catFR1	1	R1343J
1695.263	0.0	1696648	COUNTDOWN_END	n/a	n/a	n/a	n/a	-999	14	[0, 0, 0]	n/a	catFR1	1	R1343J
1695.263	1.156	1696648	ORIENT_START	n/a	n/a	n/a	n/a	-999	14	[0, 0, 0]	n/a	catFR1	1	R1343J
1696.419	0.0	1697804	ORIENT_END	n/a	n/a	n/a	n/a	-999	14	[0, 0, 0]	n/a	catFR1	1	R1343J
1696.419	1.14	1697804	ENCODING_START	n/a	n/a	n/a	n/a	-999	14	[0, 0, 0]	n/a	catFR1	1	R1343J
1697.559	1.6	1698944	WORD	n/a	wordpools/wordpool_categorized_EN.txt	LIME	Fruit	1	14	[0, 0, 0]	n/a	catFR1	1	R1343J
1699.186	1.113	1700571	WORD_OFF	n/a	n/a	LIME	Fruit	1	14	[0, 0, 0]	n/a	catFR1	1	R1343J
1700.299	1.6	1701683	WORD	n/a	wordpools/wordpool_categorized_EN.txt	BLUEBERRY	Fruit	2	14	[0, 0, 0]	n/a	catFR1	1	R1343J
1701.936	0.8	1703320	WORD_OFF	n/a	n/a	BLUEBERRY	Fruit	2	14	[0, 0, 0]	n/a	catFR1	1	R1343J
1702.736	1.6	1704120	WORD	n/a	wordpools/wordpool_categorized_EN.txt	ISLAND	Landscapes	3	14	[0, 0, 0]	n/a	catFR1	1	R1343J
1704.353	1.121	1705737	WORD_OFF	n/a	n/a	ISLAND	Landscapes	3	14	[0, 0, 0]	n/a	catFR1	1	R1343J
1705.474	1.6	1706858	WORD	n/a	wordpools/wordpool_categorized_EN.txt	MOUNTAIN	Landscapes	4	14	[0, 0, 0]	n/a	catFR1	1	R1343J
1707.104	0.958	1708488	WORD_OFF	n/a	n/a	MOUNTAIN	Landscapes	4	14	[0, 0, 0]	n/a	catFR1	1	R1343J
1708.062	1.6	1709446	WORD	n/a	wordpools/wordpool_categorized_EN.txt	CARROT	Vegetables	5	14	[0, 0, 0]	n/a	catFR1	1	R1343J
1709.688	0.851	1711072	WORD_OFF	n/a	n/a	CARROT	Vegetables	5	14	[0, 0, 0]	n/a	catFR1	1	R1343J
1710.539	1.6	1711923	WORD	n/a	wordpools/wordpool_categorized_EN.txt	LETTUCE	Vegetables	6	14	[0, 0, 0]	n/a	catFR1	1	R1343J
1712.171	1.024	1713555	WORD_OFF	n/a	n/a	LETTUCE	Vegetables	6	14	[0, 0, 0]	n/a	catFR1	1	R1343J
1713.195	1.6	1714579	WORD	n/a	wordpools/wordpool_categorized_EN.txt	PLUM	Fruit	7	14	[0, 0, 0]	n/a	catFR1	1	R1343J
1714.821	0.88	1716205	WORD_OFF	n/a	n/a	PLUM	Fruit	7	14	[0, 0, 0]	n/a	catFR1	1	R1343J
1715.701	1.6	1717085	WORD	n/a	wordpools/wordpool_categorized_EN.txt	CHERRY	Fruit	8	14	[0, 0, 0]	n/a	catFR1	1	R1343J
1717.339	0.786	1718723	WORD_OFF	n/a	n/a	CHERRY	Fruit	8	14	[0, 0, 0]	n/a	catFR1	1	R1343J
1718.125	1.6	1719509	WORD	n/a	wordpools/wordpool_categorized_EN.txt	CABBAGE	Vegetables	9	14	[0, 0, 0]	n/a	catFR1	1	R1343J
1719.755	0.915	1721139	WORD_OFF	n/a	n/a	CABBAGE	Vegetables	9	14	[0, 0, 0]	n/a	catFR1	1	R1343J
1720.67	1.6	1722054	WORD	n/a	wordpools/wordpool_categorized_EN.txt	ONION	Vegetables	10	14	[0, 0, 0]	n/a	catFR1	1	R1343J
1722.306	1.006	1723690	WORD_OFF	n/a	n/a	ONION	Vegetables	10	14	[0, 0, 0]	n/a	catFR1	1	R1343J
1723.312	1.6	1724695	WORD	n/a	wordpools/wordpool_categorized_EN.txt	LAKE	Landscapes	11	14	[0, 0, 0]	n/a	catFR1	1	R1343J
1724.94	0.925	1726323	WORD_OFF	n/a	n/a	LAKE	Landscapes	11	14	[0, 0, 0]	n/a	catFR1	1	R1343J
1725.865	1.6	1727248	WORD	n/a	wordpools/wordpool_categorized_EN.txt	RIVER	Landscapes	12	14	[0, 0, 0]	n/a	catFR1	1	R1343J
1727.491	0.0	1728874	WORD_OFF	n/a	n/a	RIVER	Landscapes	12	14	[0, 0, 0]	n/a	catFR1	1	R1343J
1727.491	0.0	1728874	ENCODING_END	n/a	n/a	n/a	n/a	-999	14	[0, 0, 0]	n/a	catFR1	1	R1343J
1727.491	0.001	1728874	DISTRACT_START	n/a	n/a	n/a	n/a	-999	14	[0, 0, 0]	n/a	catFR1	1	R1343J
1727.492	0.015	1728875	START	n/a	n/a	n/a	n/a	-999	14	[-999, -999, -999]	n/a	catFR1	1	R1343J
1727.507	4.084	1728890	PROB	4.057	n/a	n/a	n/a	-999	14	[7, 2, 7]	16.0	catFR1	1	R1343J
1731.591	5.601	1732974	PROB	5.573	n/a	n/a	n/a	-999	14	[3, 9, 5]	17.0	catFR1	1	R1343J
1737.192	6.118	1738575	PROB	6.084	n/a	n/a	n/a	-999	14	[7, 9, 2]	18.0	catFR1	1	R1343J
1743.31	5.27	1744693	PROB	5.27	n/a	n/a	n/a	-999	14	[2, 8, 4]	14.0	catFR1	1	R1343J
1748.58	0.014	1749962	STOP	n/a	n/a	n/a	n/a	-999	14	[-999, -999, -999]	n/a	catFR1	1	R1343J
1748.594	0.623	1749976	DISTRACT_END	n/a	n/a	n/a	n/a	-999	14	[0, 0, 0]	n/a	catFR1	1	R1343J
1749.217	1.6	1750599	RETRIEVAL_ORIENT_START	n/a	n/a	n/a	n/a	-999	14	[0, 0, 0]	n/a	catFR1	1	R1343J
1750.895	0.0	1752277	RETRIEVAL_ORIENT_END	n/a	n/a	n/a	n/a	-999	14	[0, 0, 0]	n/a	catFR1	1	R1343J
1750.895	1.948	1752277	REC_START	n/a	n/a	n/a	n/a	-999	14	[0, 0, 0]	n/a	catFR1	1	R1343J
1752.843	2.106	1754225	REC_WORD	1.948	n/a	LIME	Fruit	1	14	[0, 0, 0]	n/a	catFR1	1	R1343J
1754.949	4.349	1756331	REC_WORD	4.054	n/a	BLUEBERRY	Fruit	2	14	[0, 0, 0]	n/a	catFR1	1	R1343J
1759.298	1.811	1760680	REC_WORD	8.403	n/a	OMLETE	n/a	-999	14	[0, 0, 0]	n/a	catFR1	1	R1343J
1761.109	19.797	1762491	REC_WORD	10.214	n/a	WALLET	n/a	-999	14	[0, 0, 0]	n/a	catFR1	1	R1343J
1780.906	0.001	1782287	REC_END	n/a	n/a	n/a	n/a	-999	14	[0, 0, 0]	n/a	catFR1	1	R1343J
1780.907	0.022	1782288	TRIAL_END	n/a	n/a	n/a	n/a	-999	14	[0, 0, 0]	n/a	catFR1	1	R1343J
1780.929	0.0	1782310	TRIAL_START	n/a	n/a	n/a	n/a	-999	15	[0, 0, 0]	n/a	catFR1	1	R1343J
1780.929	0.0	1782310	TRIAL	n/a	n/a	n/a	n/a	-999	15	[0, 0, 0]	n/a	catFR1	1	R1343J
1780.929	2.054	1782310	WAITING_START	n/a	n/a	n/a	n/a	-999	15	[0, 0, 0]	n/a	catFR1	1	R1343J
1782.983	0.001	1784364	WAITING_END	n/a	n/a	n/a	n/a	-999	15	[0, 0, 0]	n/a	catFR1	1	R1343J
1782.984	10.0	1784365	COUNTDOWN_START	n/a	n/a	n/a	n/a	-999	15	[0, 0, 0]	n/a	catFR1	1	R1343J
1793.413	0.0	1794793	ORIENT_START	n/a	n/a	n/a	n/a	-999	15	[0, 0, 0]	n/a	catFR1	1	R1343J
1793.413	1.139	1794793	COUNTDOWN_END	n/a	n/a	n/a	n/a	-999	15	[0, 0, 0]	n/a	catFR1	1	R1343J
1794.552	0.0	1795932	ORIENT_END	n/a	n/a	n/a	n/a	-999	15	[0, 0, 0]	n/a	catFR1	1	R1343J
1794.552	0.805	1795932	ENCODING_START	n/a	n/a	n/a	n/a	-999	15	[0, 0, 0]	n/a	catFR1	1	R1343J
1795.357	1.6	1796737	WORD	n/a	wordpools/wordpool_categorized_EN.txt	STAIRS	Building	1	15	[0, 0, 0]	n/a	catFR1	1	R1343J
1796.986	1.125	1798366	WORD_OFF	n/a	n/a	STAIRS	Building	1	15	[0, 0, 0]	n/a	catFR1	1	R1343J
1798.111	1.6	1799491	WORD	n/a	wordpools/wordpool_categorized_EN.txt	ROOM	Building	2	15	[0, 0, 0]	n/a	catFR1	1	R1343J
1799.735	0.844	1801115	WORD_OFF	n/a	n/a	ROOM	Building	2	15	[0, 0, 0]	n/a	catFR1	1	R1343J
1800.579	1.6	1801959	WORD	n/a	wordpools/wordpool_categorized_EN.txt	PUDDING	Desserts	3	15	[0, 0, 0]	n/a	catFR1	1	R1343J
1802.203	0.827	1803583	WORD_OFF	n/a	n/a	PUDDING	Desserts	3	15	[0, 0, 0]	n/a	catFR1	1	R1343J
1803.03	1.6	1804410	WORD	n/a	wordpools/wordpool_categorized_EN.txt	FUDGE	Desserts	4	15	[0, 0, 0]	n/a	catFR1	1	R1343J
1804.654	0.872	1806034	WORD_OFF	n/a	n/a	FUDGE	Desserts	4	15	[0, 0, 0]	n/a	catFR1	1	R1343J
1805.526	1.6	1806906	WORD	n/a	wordpools/wordpool_categorized_EN.txt	DRILL	Tools	5	15	[0, 0, 0]	n/a	catFR1	1	R1343J
1807.154	1.124	1808534	WORD_OFF	n/a	n/a	DRILL	Tools	5	15	[0, 0, 0]	n/a	catFR1	1	R1343J
1808.278	1.6	1809658	WORD	n/a	wordpools/wordpool_categorized_EN.txt	PLIERS	Tools	6	15	[0, 0, 0]	n/a	catFR1	1	R1343J
1809.905	0.901	1811285	WORD_OFF	n/a	n/a	PLIERS	Tools	6	15	[0, 0, 0]	n/a	catFR1	1	R1343J
1810.806	1.6	1812186	WORD	n/a	wordpools/wordpool_categorized_EN.txt	CUPCAKE	Desserts	7	15	[0, 0, 0]	n/a	catFR1	1	R1343J
1812.438	0.757	1813818	WORD_OFF	n/a	n/a	CUPCAKE	Desserts	7	15	[0, 0, 0]	n/a	catFR1	1	R1343J
1813.195	1.6	1814575	WORD	n/a	wordpools/wordpool_categorized_EN.txt	PIE	Desserts	8	15	[0, 0, 0]	n/a	catFR1	1	R1343J
1814.821	0.86	1816201	WORD_OFF	n/a	n/a	PIE	Desserts	8	15	[0, 0, 0]	n/a	catFR1	1	R1343J
1815.681	1.6	1817060	WORD	n/a	wordpools/wordpool_categorized_EN.txt	HALLWAY	Building	9	15	[0, 0, 0]	n/a	catFR1	1	R1343J
1817.306	0.807	1818685	WORD_OFF	n/a	n/a	HALLWAY	Building	9	15	[0, 0, 0]	n/a	catFR1	1	R1343J
1818.113	1.6	1819492	WORD	n/a	wordpools/wordpool_categorized_EN.txt	ROOF	Building	10	15	[0, 0, 0]	n/a	catFR1	1	R1343J
1819.739	1.023	1821118	WORD_OFF	n/a	n/a	ROOF	Building	10	15	[0, 0, 0]	n/a	catFR1	1	R1343J
1820.762	1.6	1822141	WORD	n/a	wordpools/wordpool_categorized_EN.txt	HAMMER	Tools	11	15	[0, 0, 0]	n/a	catFR1	1	R1343J
1822.373	1.013	1823752	WORD_OFF	n/a	n/a	HAMMER	Tools	11	15	[0, 0, 0]	n/a	catFR1	1	R1343J
1823.386	1.6	1824765	WORD	n/a	wordpools/wordpool_categorized_EN.txt	LEVEL	Tools	12	15	[0, 0, 0]	n/a	catFR1	1	R1343J
1825.024	0.0	1826403	WORD_OFF	n/a	n/a	LEVEL	Tools	12	15	[0, 0, 0]	n/a	catFR1	1	R1343J
1825.024	0.001	1826403	ENCODING_END	n/a	n/a	n/a	n/a	-999	15	[0, 0, 0]	n/a	catFR1	1	R1343J
1825.025	0.0	1826404	DISTRACT_START	n/a	n/a	n/a	n/a	-999	15	[0, 0, 0]	n/a	catFR1	1	R1343J
1825.025	0.015	1826404	START	n/a	n/a	n/a	n/a	-999	15	[-999, -999, -999]	n/a	catFR1	1	R1343J
1825.04	4.801	1826419	PROB	4.771	n/a	n/a	n/a	-999	15	[6, 4, 9]	19.0	catFR1	1	R1343J
1829.841	4.933	1831220	PROB	4.898	n/a	n/a	n/a	-999	15	[2, 1, 7]	10.0	catFR1	1	R1343J
1834.774	3.885	1836153	PROB	3.854	n/a	n/a	n/a	-999	15	[7, 2, 9]	18.0	catFR1	1	R1343J
1838.659	3.367	1840037	PROB	3.345	n/a	n/a	n/a	-999	15	[5, 4, 1]	10.0	catFR1	1	R1343J
1842.026	5.985	1843404	PROB	5.985	n/a	n/a	n/a	-999	15	[7, 3, 5]	15.0	catFR1	1	R1343J
1848.011	0.017	1849389	STOP	n/a	n/a	n/a	n/a	-999	15	[-999, -999, -999]	n/a	catFR1	1	R1343J
1848.028	0.515	1849406	DISTRACT_END	n/a	n/a	n/a	n/a	-999	15	[0, 0, 0]	n/a	catFR1	1	R1343J
1848.543	1.6	1849921	RETRIEVAL_ORIENT_START	n/a	n/a	n/a	n/a	-999	15	[0, 0, 0]	n/a	catFR1	1	R1343J
1850.211	0.001	1851589	RETRIEVAL_ORIENT_END	n/a	n/a	n/a	n/a	-999	15	[0, 0, 0]	n/a	catFR1	1	R1343J
1850.212	1.404	1851590	REC_START	n/a	n/a	n/a	n/a	-999	15	[0, 0, 0]	n/a	catFR1	1	R1343J
1851.616	2.235	1852994	REC_WORD	1.404	n/a	STAIRS	Building	1	15	[0, 0, 0]	n/a	catFR1	1	R1343J
1853.851	3.52	1855229	REC_WORD	3.639	n/a	WALLET	n/a	-999	15	[0, 0, 0]	n/a	catFR1	1	R1343J
1857.371	1.355	1858749	REC_WORD_VV	7.159	n/a	<>	n/a	-999	15	[0, 0, 0]	n/a	catFR1	1	R1343J
1858.726	11.365	1860104	REC_WORD	8.514	n/a	LEMON	Fruit	-999	15	[0, 0, 0]	n/a	catFR1	1	R1343J
1870.091	10.132	1871468	REC_WORD	19.879	n/a	HAMMER	Tools	11	15	[0, 0, 0]	n/a	catFR1	1	R1343J
1880.223	0.0	1881600	REC_END	n/a	n/a	n/a	n/a	-999	15	[0, 0, 0]	n/a	catFR1	1	R1343J
1880.223	0.024	1881600	TRIAL_END	n/a	n/a	n/a	n/a	-999	15	[0, 0, 0]	n/a	catFR1	1	R1343J
1880.247	0.001	1881624	TRIAL_START	n/a	n/a	n/a	n/a	-999	16	[0, 0, 0]	n/a	catFR1	1	R1343J
1880.248	0.0	1881625	TRIAL	n/a	n/a	n/a	n/a	-999	16	[0, 0, 0]	n/a	catFR1	1	R1343J
1880.248	3.919	1881625	WAITING_START	n/a	n/a	n/a	n/a	-999	16	[0, 0, 0]	n/a	catFR1	1	R1343J
1884.167	0.001	1885544	WAITING_END	n/a	n/a	n/a	n/a	-999	16	[0, 0, 0]	n/a	catFR1	1	R1343J
1884.168	10.0	1885545	COUNTDOWN_START	n/a	n/a	n/a	n/a	-999	16	[0, 0, 0]	n/a	catFR1	1	R1343J
1894.596	0.001	1895972	COUNTDOWN_END	n/a	n/a	n/a	n/a	-999	16	[0, 0, 0]	n/a	catFR1	1	R1343J
1894.597	1.239	1895973	ORIENT_START	n/a	n/a	n/a	n/a	-999	16	[0, 0, 0]	n/a	catFR1	1	R1343J
1895.836	0.0	1897212	ORIENT_END	n/a	n/a	n/a	n/a	-999	16	[0, 0, 0]	n/a	catFR1	1	R1343J
1895.836	0.787	1897212	ENCODING_START	n/a	n/a	n/a	n/a	-999	16	[0, 0, 0]	n/a	catFR1	1	R1343J
1896.623	1.6	1897999	WORD	n/a	wordpools/wordpool_categorized_EN.txt	LAMB	FarmAnimals	1	16	[0, 0, 0]	n/a	catFR1	1	R1343J
1898.253	1.069	1899629	WORD_OFF	n/a	n/a	LAMB	FarmAnimals	1	16	[0, 0, 0]	n/a	catFR1	1	R1343J
1899.322	1.6	1900698	WORD	n/a	wordpools/wordpool_categorized_EN.txt	HEN	FarmAnimals	2	16	[0, 0, 0]	n/a	catFR1	1	R1343J
1900.953	0.754	1902329	WORD_OFF	n/a	n/a	HEN	FarmAnimals	2	16	[0, 0, 0]	n/a	catFR1	1	R1343J
1901.707	1.6	1903083	WORD	n/a	wordpools/wordpool_categorized_EN.txt	JEEP	Vehicles	3	16	[0, 0, 0]	n/a	catFR1	1	R1343J
1903.337	1.062	1904713	WORD_OFF	n/a	n/a	JEEP	Vehicles	3	16	[0, 0, 0]	n/a	catFR1	1	R1343J
1904.399	1.6	1905775	WORD	n/a	wordpools/wordpool_categorized_EN.txt	VAN	Vehicles	4	16	[0, 0, 0]	n/a	catFR1	1	R1343J
1906.021	0.967	1907397	WORD_OFF	n/a	n/a	VAN	Vehicles	4	16	[0, 0, 0]	n/a	catFR1	1	R1343J
1906.988	1.6	1908364	WORD	n/a	wordpools/wordpool_categorized_EN.txt	PANDA	Zoo	5	16	[0, 0, 0]	n/a	catFR1	1	R1343J
1908.621	0.893	1909996	WORD_OFF	n/a	n/a	PANDA	Zoo	5	16	[0, 0, 0]	n/a	catFR1	1	R1343J
1909.514	1.6	1910889	WORD	n/a	wordpools/wordpool_categorized_EN.txt	TIGER	Zoo	6	16	[0, 0, 0]	n/a	catFR1	1	R1343J
1911.138	0.77	1912513	WORD_OFF	n/a	n/a	TIGER	Zoo	6	16	[0, 0, 0]	n/a	catFR1	1	R1343J
1911.908	1.6	1913283	WORD	n/a	wordpools/wordpool_categorized_EN.txt	COW	FarmAnimals	7	16	[0, 0, 0]	n/a	catFR1	1	R1343J
1913.539	0.931	1914914	WORD_OFF	n/a	n/a	COW	FarmAnimals	7	16	[0, 0, 0]	n/a	catFR1	1	R1343J
1914.47	1.6	1915845	WORD	n/a	wordpools/wordpool_categorized_EN.txt	SHEEP	FarmAnimals	8	16	[0, 0, 0]	n/a	catFR1	1	R1343J
1916.106	0.81	1917481	WORD_OFF	n/a	n/a	SHEEP	FarmAnimals	8	16	[0, 0, 0]	n/a	catFR1	1	R1343J
1916.916	1.6	1918291	WORD	n/a	wordpools/wordpool_categorized_EN.txt	BUS	Vehicles	9	16	[0, 0, 0]	n/a	catFR1	1	R1343J
1918.54	0.803	1919915	WORD_OFF	n/a	n/a	BUS	Vehicles	9	16	[0, 0, 0]	n/a	catFR1	1	R1343J
1919.343	1.6	1920718	WORD	n/a	wordpools/wordpool_categorized_EN.txt	PLANE	Vehicles	10	16	[0, 0, 0]	n/a	catFR1	1	R1343J
1920.973	0.841	1922348	WORD_OFF	n/a	n/a	PLANE	Vehicles	10	16	[0, 0, 0]	n/a	catFR1	1	R1343J
1921.814	1.6	1923189	WORD	n/a	wordpools/wordpool_categorized_EN.txt	ZEBRA	Zoo	11	16	[0, 0, 0]	n/a	catFR1	1	R1343J
1923.44	0.779	1924815	WORD_OFF	n/a	n/a	ZEBRA	Zoo	11	16	[0, 0, 0]	n/a	catFR1	1	R1343J
1924.219	1.6	1925594	WORD	n/a	wordpools/wordpool_categorized_EN.txt	LION	Zoo	12	16	[0, 0, 0]	n/a	catFR1	1	R1343J
1925.841	0.0	1927216	WORD_OFF	n/a	n/a	LION	Zoo	12	16	[0, 0, 0]	n/a	catFR1	1	R1343J
1925.841	0.0	1927216	ENCODING_END	n/a	n/a	n/a	n/a	-999	16	[0, 0, 0]	n/a	catFR1	1	R1343J
1925.841	0.001	1927216	DISTRACT_START	n/a	n/a	n/a	n/a	-999	16	[0, 0, 0]	n/a	catFR1	1	R1343J
1925.842	0.015	1927217	START	n/a	n/a	n/a	n/a	-999	16	[-999, -999, -999]	n/a	catFR1	1	R1343J
1925.857	4.434	1927232	PROB	4.406	n/a	n/a	n/a	-999	16	[7, 5, 5]	17.0	catFR1	1	R1343J
1930.291	3.818	1931666	PROB	3.78	n/a	n/a	n/a	-999	16	[5, 3, 4]	12.0	catFR1	1	R1343J
1934.109	5.584	1935483	PROB	5.556	n/a	n/a	n/a	-999	16	[7, 4, 8]	19.0	catFR1	1	R1343J
1939.693	3.417	1941067	PROB	3.38	n/a	n/a	n/a	-999	16	[4, 6, 3]	13.0	catFR1	1	R1343J
1943.11	3.491	1944484	PROB	3.491	n/a	n/a	n/a	-999	16	[1, 4, 8]	13.0	catFR1	1	R1343J
1946.601	0.01	1947975	STOP	n/a	n/a	n/a	n/a	-999	16	[-999, -999, -999]	n/a	catFR1	1	R1343J
1946.611	0.669	1947985	DISTRACT_END	n/a	n/a	n/a	n/a	-999	16	[0, 0, 0]	n/a	catFR1	1	R1343J
1947.28	1.6	1948654	RETRIEVAL_ORIENT_START	n/a	n/a	n/a	n/a	-999	16	[0, 0, 0]	n/a	catFR1	1	R1343J
1948.878	0.0	1950252	RETRIEVAL_ORIENT_END	n/a	n/a	n/a	n/a	-999	16	[0, 0, 0]	n/a	catFR1	1	R1343J
1948.878	2.397	1950252	REC_START	n/a	n/a	n/a	n/a	-999	16	[0, 0, 0]	n/a	catFR1	1	R1343J
1951.275	2.225	1952649	REC_WORD_VV	2.397	n/a	<>	n/a	-999	16	[0, 0, 0]	n/a	catFR1	1	R1343J
1953.5	3.475	1954874	REC_WORD	4.622	n/a	LION	Zoo	12	16	[0, 0, 0]	n/a	catFR1	1	R1343J
1956.975	7.026	1958348	REC_WORD	8.097	n/a	HAM	n/a	-999	16	[0, 0, 0]	n/a	catFR1	1	R1343J
1964.001	3.715	1965374	REC_WORD	15.123	n/a	CLOSET	n/a	-999	16	[0, 0, 0]	n/a	catFR1	1	R1343J
1967.716	11.173	1969089	REC_WORD	18.838	n/a	WALLET	n/a	-999	16	[0, 0, 0]	n/a	catFR1	1	R1343J
1978.889	0.001	1980261	REC_END	n/a	n/a	n/a	n/a	-999	16	[0, 0, 0]	n/a	catFR1	1	R1343J
1978.89	0.022	1980262	TRIAL_END	n/a	n/a	n/a	n/a	-999	16	[0, 0, 0]	n/a	catFR1	1	R1343J
1978.912	0.001	1980284	TRIAL_START	n/a	n/a	n/a	n/a	-999	17	[0, 0, 0]	n/a	catFR1	1	R1343J
1978.913	0.0	1980285	TRIAL	n/a	n/a	n/a	n/a	-999	17	[0, 0, 0]	n/a	catFR1	1	R1343J
1978.913	5.837	1980285	WAITING_START	n/a	n/a	n/a	n/a	-999	17	[0, 0, 0]	n/a	catFR1	1	R1343J
1984.75	10.0	1986122	COUNTDOWN_START	n/a	n/a	n/a	n/a	-999	17	[0, 0, 0]	n/a	catFR1	1	R1343J
1984.75	10.429	1986122	WAITING_END	n/a	n/a	n/a	n/a	-999	17	[0, 0, 0]	n/a	catFR1	1	R1343J
1995.179	0.0	1996551	COUNTDOWN_END	n/a	n/a	n/a	n/a	-999	17	[0, 0, 0]	n/a	catFR1	1	R1343J
1995.179	1.04	1996551	ORIENT_START	n/a	n/a	n/a	n/a	-999	17	[0, 0, 0]	n/a	catFR1	1	R1343J
1996.219	0.001	1997591	ORIENT_END	n/a	n/a	n/a	n/a	-999	17	[0, 0, 0]	n/a	catFR1	1	R1343J
1996.22	0.894	1997592	ENCODING_START	n/a	n/a	n/a	n/a	-999	17	[0, 0, 0]	n/a	catFR1	1	R1343J
1997.114	1.6	1998486	WORD	n/a	wordpools/wordpool_categorized_EN.txt	VALLEY	Landscapes	1	17	[0, 0, 0]	n/a	catFR1	1	R1343J
1998.735	1.1	2000107	WORD_OFF	n/a	n/a	VALLEY	Landscapes	1	17	[0, 0, 0]	n/a	catFR1	1	R1343J
1999.835	1.6	2001207	WORD	n/a	wordpools/wordpool_categorized_EN.txt	OCEAN	Landscapes	2	17	[0, 0, 0]	n/a	catFR1	1	R1343J
2001.47	1.012	2002841	WORD_OFF	n/a	n/a	OCEAN	Landscapes	2	17	[0, 0, 0]	n/a	catFR1	1	R1343J
2002.482	1.6	2003853	WORD	n/a	wordpools/wordpool_categorized_EN.txt	JELLYFISH	OceanAnimals	3	17	[0, 0, 0]	n/a	catFR1	1	R1343J
2004.104	0.872	2005475	WORD_OFF	n/a	n/a	JELLYFISH	OceanAnimals	3	17	[0, 0, 0]	n/a	catFR1	1	R1343J
2004.976	1.6	2006347	WORD	n/a	wordpools/wordpool_categorized_EN.txt	WHALE	OceanAnimals	4	17	[0, 0, 0]	n/a	catFR1	1	R1343J
2006.604	0.821	2007975	WORD_OFF	n/a	n/a	WHALE	OceanAnimals	4	17	[0, 0, 0]	n/a	catFR1	1	R1343J
2007.425	1.6	2008796	WORD	n/a	wordpools/wordpool_categorized_EN.txt	BARBIE	Toys	5	17	[0, 0, 0]	n/a	catFR1	1	R1343J
2009.055	0.993	2010426	WORD_OFF	n/a	n/a	BARBIE	Toys	5	17	[0, 0, 0]	n/a	catFR1	1	R1343J
2010.048	1.6	2011419	WORD	n/a	wordpools/wordpool_categorized_EN.txt	DOLLHOUSE	Toys	6	17	[0, 0, 0]	n/a	catFR1	1	R1343J
2011.672	0.97	2013043	WORD_OFF	n/a	n/a	DOLLHOUSE	Toys	6	17	[0, 0, 0]	n/a	catFR1	1	R1343J
2012.642	1.6	2014013	WORD	n/a	wordpools/wordpool_categorized_EN.txt	STREAM	Landscapes	7	17	[0, 0, 0]	n/a	catFR1	1	R1343J
2014.272	0.927	2015643	WORD_OFF	n/a	n/a	STREAM	Landscapes	7	17	[0, 0, 0]	n/a	catFR1	1	R1343J
2015.199	1.6	2016570	WORD	n/a	wordpools/wordpool_categorized_EN.txt	CREEK	Landscapes	8	17	[0, 0, 0]	n/a	catFR1	1	R1343J
2016.822	0.986	2018193	WORD_OFF	n/a	n/a	CREEK	Landscapes	8	17	[0, 0, 0]	n/a	catFR1	1	R1343J
2017.808	1.6	2019179	WORD	n/a	wordpools/wordpool_categorized_EN.txt	BASKETBALL	Toys	9	17	[0, 0, 0]	n/a	catFR1	1	R1343J
2019.44	0.885	2020811	WORD_OFF	n/a	n/a	BASKETBALL	Toys	9	17	[0, 0, 0]	n/a	catFR1	1	R1343J
2020.325	1.6	2021696	WORD	n/a	wordpools/wordpool_categorized_EN.txt	BALL	Toys	10	17	[0, 0, 0]	n/a	catFR1	1	R1343J
2021.957	0.799	2023328	WORD_OFF	n/a	n/a	BALL	Toys	10	17	[0, 0, 0]	n/a	catFR1	1	R1343J
2022.756	1.6	2024127	WORD	n/a	wordpools/wordpool_categorized_EN.txt	DOLPHIN	OceanAnimals	11	17	[0, 0, 0]	n/a	catFR1	1	R1343J
2024.391	0.966	2025761	WORD_OFF	n/a	n/a	DOLPHIN	OceanAnimals	11	17	[0, 0, 0]	n/a	catFR1	1	R1343J
2025.357	1.6	2026727	WORD	n/a	wordpools/wordpool_categorized_EN.txt	LOBSTER	OceanAnimals	12	17	[0, 0, 0]	n/a	catFR1	1	R1343J
2026.991	0.001	2028361	WORD_OFF	n/a	n/a	LOBSTER	OceanAnimals	12	17	[0, 0, 0]	n/a	catFR1	1	R1343J
2026.992	0.0	2028362	ENCODING_END	n/a	n/a	n/a	n/a	-999	17	[0, 0, 0]	n/a	catFR1	1	R1343J
2026.992	0.0	2028362	DISTRACT_START	n/a	n/a	n/a	n/a	-999	17	[0, 0, 0]	n/a	catFR1	1	R1343J
2026.992	0.016	2028362	START	n/a	n/a	n/a	n/a	-999	17	[-999, -999, -999]	n/a	catFR1	1	R1343J
2027.008	5.167	2028378	PROB	5.133	n/a	n/a	n/a	-999	17	[4, 8, 2]	14.0	catFR1	1	R1343J
2032.175	3.467	2033545	PROB	3.439	n/a	n/a	n/a	-999	17	[2, 1, 5]	8.0	catFR1	1	R1343J
2035.642	6.502	2037012	PROB	6.47	n/a	n/a	n/a	-999	17	[7, 6, 6]	19.0	catFR1	1	R1343J
2042.144	4.15	2043514	PROB	4.12	n/a	n/a	n/a	-999	17	[3, 5, 2]	10.0	catFR1	1	R1343J
2046.294	5.03	2047664	PROB	5.03	n/a	n/a	n/a	-999	17	[7, 1, 5]	13.0	catFR1	1	R1343J
2051.324	0.021	2052693	STOP	n/a	n/a	n/a	n/a	-999	17	[-999, -999, -999]	n/a	catFR1	1	R1343J
2051.345	0.547	2052714	DISTRACT_END	n/a	n/a	n/a	n/a	-999	17	[0, 0, 0]	n/a	catFR1	1	R1343J
2051.892	1.6	2053261	RETRIEVAL_ORIENT_START	n/a	n/a	n/a	n/a	-999	17	[0, 0, 0]	n/a	catFR1	1	R1343J
2053.512	0.001	2054881	RETRIEVAL_ORIENT_END	n/a	n/a	n/a	n/a	-999	17	[0, 0, 0]	n/a	catFR1	1	R1343J
2053.513	0.883	2054882	REC_START	n/a	n/a	n/a	n/a	-999	17	[0, 0, 0]	n/a	catFR1	1	R1343J
2054.396	2.65	2055765	REC_WORD_VV	0.883	n/a	<>	n/a	-999	17	[0, 0, 0]	n/a	catFR1	1	R1343J
2057.046	2.54	2058415	REC_WORD	3.533	n/a	VALLEY	Landscapes	1	17	[0, 0, 0]	n/a	catFR1	1	R1343J
2059.586	2.85	2060955	REC_WORD	6.073	n/a	OCEAN	Landscapes	2	17	[0, 0, 0]	n/a	catFR1	1	R1343J
2062.436	4.435	2063805	REC_WORD	8.923	n/a	WHALE	OceanAnimals	4	17	[0, 0, 0]	n/a	catFR1	1	R1343J
2066.871	7.795	2068240	REC_WORD	13.358	n/a	PARKING	n/a	-999	17	[0, 0, 0]	n/a	catFR1	1	R1343J
2074.666	3.405	2076034	REC_WORD	21.153	n/a	RIVER	Landscapes	-999	17	[0, 0, 0]	n/a	catFR1	1	R1343J
2078.071	1.78	2079439	REC_WORD_VV	24.558	n/a	<>	n/a	-999	17	[0, 0, 0]	n/a	catFR1	1	R1343J
2079.851	3.674	2081219	REC_WORD	26.338	n/a	FISH	OceanAnimals	-999	17	[0, 0, 0]	n/a	catFR1	1	R1343J
2083.525	0.0	2084893	REC_END	n/a	n/a	n/a	n/a	-999	17	[0, 0, 0]	n/a	catFR1	1	R1343J
2083.525	0.023	2084893	TRIAL_END	n/a	n/a	n/a	n/a	-999	17	[0, 0, 0]	n/a	catFR1	1	R1343J
2083.548	0.0	2084916	TRIAL_START	n/a	n/a	n/a	n/a	-999	18	[0, 0, 0]	n/a	catFR1	1	R1343J
2083.548	0.001	2084916	TRIAL	n/a	n/a	n/a	n/a	-999	18	[0, 0, 0]	n/a	catFR1	1	R1343J
2083.549	2.636	2084917	WAITING_START	n/a	n/a	n/a	n/a	-999	18	[0, 0, 0]	n/a	catFR1	1	R1343J
2086.185	0.0	2087553	WAITING_END	n/a	n/a	n/a	n/a	-999	18	[0, 0, 0]	n/a	catFR1	1	R1343J
2086.185	10.0	2087553	COUNTDOWN_START	n/a	n/a	n/a	n/a	-999	18	[0, 0, 0]	n/a	catFR1	1	R1343J
2096.613	0.001	2097980	COUNTDOWN_END	n/a	n/a	n/a	n/a	-999	18	[0, 0, 0]	n/a	catFR1	1	R1343J
2096.614	1.155	2097981	ORIENT_START	n/a	n/a	n/a	n/a	-999	18	[0, 0, 0]	n/a	catFR1	1	R1343J
2097.769	0.0	2099136	ORIENT_END	n/a	n/a	n/a	n/a	-999	18	[0, 0, 0]	n/a	catFR1	1	R1343J
2097.769	1.072	2099136	ENCODING_START	n/a	n/a	n/a	n/a	-999	18	[0, 0, 0]	n/a	catFR1	1	R1343J
2098.841	1.6	2100208	WORD	n/a	wordpools/wordpool_categorized_EN.txt	LEG	BodyParts	1	18	[0, 0, 0]	n/a	catFR1	1	R1343J
2100.47	0.942	2101837	WORD_OFF	n/a	n/a	LEG	BodyParts	1	18	[0, 0, 0]	n/a	catFR1	1	R1343J
2101.412	1.6	2102779	WORD	n/a	wordpools/wordpool_categorized_EN.txt	HEAD	BodyParts	2	18	[0, 0, 0]	n/a	catFR1	1	R1343J
2103.037	0.778	2104404	WORD_OFF	n/a	n/a	HEAD	BodyParts	2	18	[0, 0, 0]	n/a	catFR1	1	R1343J
2103.815	1.6	2105182	WORD	n/a	wordpools/wordpool_categorized_EN.txt	BEACH	Landscapes	3	18	[0, 0, 0]	n/a	catFR1	1	R1343J
2105.438	0.855	2106805	WORD_OFF	n/a	n/a	BEACH	Landscapes	3	18	[0, 0, 0]	n/a	catFR1	1	R1343J
2106.293	1.6	2107660	WORD	n/a	wordpools/wordpool_categorized_EN.txt	FOREST	Landscapes	4	18	[0, 0, 0]	n/a	catFR1	1	R1343J
2107.922	1.061	2109289	WORD_OFF	n/a	n/a	FOREST	Landscapes	4	18	[0, 0, 0]	n/a	catFR1	1	R1343J
2108.983	1.6	2110350	WORD	n/a	wordpools/wordpool_categorized_EN.txt	OAK	Trees	5	18	[0, 0, 0]	n/a	catFR1	1	R1343J
2110.605	1.018	2111972	WORD_OFF	n/a	n/a	OAK	Trees	5	18	[0, 0, 0]	n/a	catFR1	1	R1343J
2111.623	1.6	2112990	WORD	n/a	wordpools/wordpool_categorized_EN.txt	EVERGREEN	Trees	6	18	[0, 0, 0]	n/a	catFR1	1	R1343J
2113.256	1.107	2114623	WORD_OFF	n/a	n/a	EVERGREEN	Trees	6	18	[0, 0, 0]	n/a	catFR1	1	R1343J
2114.363	1.6	2115730	WORD	n/a	wordpools/wordpool_categorized_EN.txt	HILLS	Landscapes	7	18	[0, 0, 0]	n/a	catFR1	1	R1343J
2115.99	0.941	2117356	WORD_OFF	n/a	n/a	HILLS	Landscapes	7	18	[0, 0, 0]	n/a	catFR1	1	R1343J
2116.931	1.6	2118297	WORD	n/a	wordpools/wordpool_categorized_EN.txt	WOODS	Landscapes	8	18	[0, 0, 0]	n/a	catFR1	1	R1343J
2118.557	1.026	2119923	WORD_OFF	n/a	n/a	WOODS	Landscapes	8	18	[0, 0, 0]	n/a	catFR1	1	R1343J
2119.583	1.6	2120949	WORD	n/a	wordpools/wordpool_categorized_EN.txt	EYE	BodyParts	9	18	[0, 0, 0]	n/a	catFR1	1	R1343J
2121.207	0.988	2122573	WORD_OFF	n/a	n/a	EYE	BodyParts	9	18	[0, 0, 0]	n/a	catFR1	1	R1343J
2122.195	1.6	2123561	WORD	n/a	wordpools/wordpool_categorized_EN.txt	TOE	BodyParts	10	18	[0, 0, 0]	n/a	catFR1	1	R1343J
2123.823	0.884	2125189	WORD_OFF	n/a	n/a	TOE	BodyParts	10	18	[0, 0, 0]	n/a	catFR1	1	R1343J
2124.707	1.6	2126073	WORD	n/a	wordpools/wordpool_categorized_EN.txt	MAPLE	Trees	11	18	[0, 0, 0]	n/a	catFR1	1	R1343J
2126.324	0.759	2127690	WORD_OFF	n/a	n/a	MAPLE	Trees	11	18	[0, 0, 0]	n/a	catFR1	1	R1343J
2127.083	1.6	2128449	WORD	n/a	wordpools/wordpool_categorized_EN.txt	HICKORY	Trees	12	18	[0, 0, 0]	n/a	catFR1	1	R1343J
2128.708	0.001	2130074	WORD_OFF	n/a	n/a	HICKORY	Trees	12	18	[0, 0, 0]	n/a	catFR1	1	R1343J
2128.709	0.0	2130075	ENCODING_END	n/a	n/a	n/a	n/a	-999	18	[0, 0, 0]	n/a	catFR1	1	R1343J
2128.709	0.0	2130075	DISTRACT_START	n/a	n/a	n/a	n/a	-999	18	[0, 0, 0]	n/a	catFR1	1	R1343J
2128.709	0.015	2130075	START	n/a	n/a	n/a	n/a	-999	18	[-999, -999, -999]	n/a	catFR1	1	R1343J
2128.724	3.602	2130090	PROB	3.563	n/a	n/a	n/a	-999	18	[4, 5, 5]	14.0	catFR1	1	R1343J
2132.326	4.784	2133692	PROB	4.761	n/a	n/a	n/a	-999	18	[6, 9, 3]	18.0	catFR1	1	R1343J
2137.11	5.551	2138476	PROB	5.525	n/a	n/a	n/a	-999	18	[5, 2, 8]	15.0	catFR1	1	R1343J
2142.661	5.317	2144026	PROB	5.291	n/a	n/a	n/a	-999	18	[1, 8, 7]	16.0	catFR1	1	R1343J
2147.978	3.916	2149343	PROB	3.916	n/a	n/a	n/a	-999	18	[3, 4, 2]	9.0	catFR1	1	R1343J
2151.894	0.018	2153259	STOP	n/a	n/a	n/a	n/a	-999	18	[-999, -999, -999]	n/a	catFR1	1	R1343J
2151.912	0.542	2153277	DISTRACT_END	n/a	n/a	n/a	n/a	-999	18	[0, 0, 0]	n/a	catFR1	1	R1343J
2152.454	1.6	2153819	RETRIEVAL_ORIENT_START	n/a	n/a	n/a	n/a	-999	18	[0, 0, 0]	n/a	catFR1	1	R1343J
2154.113	0.0	2155478	RETRIEVAL_ORIENT_END	n/a	n/a	n/a	n/a	-999	18	[0, 0, 0]	n/a	catFR1	1	R1343J
2154.113	0.961	2155478	REC_START	n/a	n/a	n/a	n/a	-999	18	[0, 0, 0]	n/a	catFR1	1	R1343J
2155.074	1.837	2156439	REC_WORD_VV	0.961	n/a	<>	n/a	-999	18	[0, 0, 0]	n/a	catFR1	1	R1343J
2156.911	1.663	2158276	REC_WORD	2.798	n/a	EGG	n/a	-999	18	[0, 0, 0]	n/a	catFR1	1	R1343J
2158.574	1.975	2159939	REC_WORD	4.461	n/a	HEAD	BodyParts	2	18	[0, 0, 0]	n/a	catFR1	1	R1343J
2160.549	2.597	2161914	REC_WORD	6.436	n/a	SHOULDER	n/a	-999	18	[0, 0, 0]	n/a	catFR1	1	R1343J
2163.146	2.275	2164510	REC_WORD	9.033	n/a	PEACH	Fruit	-999	18	[0, 0, 0]	n/a	catFR1	1	R1343J
2165.421	3.185	2166785	REC_WORD	11.308	n/a	FOOT	n/a	-999	18	[0, 0, 0]	n/a	catFR1	1	R1343J
2168.606	15.518	2169970	REC_WORD	14.493	n/a	PARKING	n/a	-999	18	[0, 0, 0]	n/a	catFR1	1	R1343J
2184.124	0.0	2185488	REC_END	n/a	n/a	n/a	n/a	-999	18	[0, 0, 0]	n/a	catFR1	1	R1343J
2184.124	0.021	2185488	TRIAL_END	n/a	n/a	n/a	n/a	-999	18	[0, 0, 0]	n/a	catFR1	1	R1343J
2184.145	0.0	2185509	TRIAL_START	n/a	n/a	n/a	n/a	-999	19	[0, 0, 0]	n/a	catFR1	1	R1343J
2184.145	0.0	2185509	TRIAL	n/a	n/a	n/a	n/a	-999	19	[0, 0, 0]	n/a	catFR1	1	R1343J
2184.145	5.024	2185509	WAITING_START	n/a	n/a	n/a	n/a	-999	19	[0, 0, 0]	n/a	catFR1	1	R1343J
2189.169	10.0	2190532	COUNTDOWN_START	n/a	n/a	n/a	n/a	-999	19	[0, 0, 0]	n/a	catFR1	1	R1343J
2189.169	10.428	2190532	WAITING_END	n/a	n/a	n/a	n/a	-999	19	[0, 0, 0]	n/a	catFR1	1	R1343J
2199.597	0.0	2200960	COUNTDOWN_END	n/a	n/a	n/a	n/a	-999	19	[0, 0, 0]	n/a	catFR1	1	R1343J
2199.597	1.173	2200960	ORIENT_START	n/a	n/a	n/a	n/a	-999	19	[0, 0, 0]	n/a	catFR1	1	R1343J
2200.77	0.0	2202133	ORIENT_END	n/a	n/a	n/a	n/a	-999	19	[0, 0, 0]	n/a	catFR1	1	R1343J
2200.77	0.799	2202133	ENCODING_START	n/a	n/a	n/a	n/a	-999	19	[0, 0, 0]	n/a	catFR1	1	R1343J
2201.569	1.6	2202932	WORD	n/a	wordpools/wordpool_categorized_EN.txt	JEANS	Clothing	1	19	[0, 0, 0]	n/a	catFR1	1	R1343J
2203.204	0.981	2204567	WORD_OFF	n/a	n/a	JEANS	Clothing	1	19	[0, 0, 0]	n/a	catFR1	1	R1343J
2204.185	1.6	2205548	WORD	n/a	wordpools/wordpool_categorized_EN.txt	SHORTS	Clothing	2	19	[0, 0, 0]	n/a	catFR1	1	R1343J
2205.821	0.925	2207184	WORD_OFF	n/a	n/a	SHORTS	Clothing	2	19	[0, 0, 0]	n/a	catFR1	1	R1343J
2206.746	1.6	2208109	WORD	n/a	wordpools/wordpool_categorized_EN.txt	TABLET	Electronics	3	19	[0, 0, 0]	n/a	catFR1	1	R1343J
2208.372	1.025	2209735	WORD_OFF	n/a	n/a	TABLET	Electronics	3	19	[0, 0, 0]	n/a	catFR1	1	R1343J
2209.397	1.6	2210759	WORD	n/a	wordpools/wordpool_categorized_EN.txt	SPEAKER	Electronics	4	19	[0, 0, 0]	n/a	catFR1	1	R1343J
2211.022	1.083	2212384	WORD_OFF	n/a	n/a	SPEAKER	Electronics	4	19	[0, 0, 0]	n/a	catFR1	1	R1343J
2212.105	1.6	2213467	WORD	n/a	wordpools/wordpool_categorized_EN.txt	BUTTERFLY	Insects	5	19	[0, 0, 0]	n/a	catFR1	1	R1343J
2213.738	0.912	2215100	WORD_OFF	n/a	n/a	BUTTERFLY	Insects	5	19	[0, 0, 0]	n/a	catFR1	1	R1343J
2214.65	1.6	2216012	WORD	n/a	wordpools/wordpool_categorized_EN.txt	MOSQUITO	Insects	6	19	[0, 0, 0]	n/a	catFR1	1	R1343J
2216.273	0.971	2217635	WORD_OFF	n/a	n/a	MOSQUITO	Insects	6	19	[0, 0, 0]	n/a	catFR1	1	R1343J
2217.244	1.6	2218606	WORD	n/a	wordpools/wordpool_categorized_EN.txt	RADIO	Electronics	7	19	[0, 0, 0]	n/a	catFR1	1	R1343J
2218.874	0.944	2220236	WORD_OFF	n/a	n/a	RADIO	Electronics	7	19	[0, 0, 0]	n/a	catFR1	1	R1343J
