onset	duration	sample	trial_type	response_time	stim_file	item_name	category	serialpos	list	test	answer	experiment	session	subject
0.0	0.6	24158	INSTRUCT_START	n/a	n/a	n/a	n/a	-999	-999	[0, 0, 0]	n/a	catFR1	2	R1393T
0.6	23.681	24749	INSTRUCT_END	n/a	n/a	n/a	n/a	-999	-999	[0, 0, 0]	n/a	catFR1	2	R1393T
24.281	10.35	48432	COUNTDOWN_START	n/a	n/a	n/a	n/a	-999	-999	[0, 0, 0]	n/a	catFR1	2	R1393T
34.631	0.001	58778	COUNTDOWN_END	n/a	n/a	n/a	n/a	-999	-999	[0, 0, 0]	n/a	catFR1	2	R1393T
34.632	2.349	58786	ENCODING_START	n/a	n/a	n/a	n/a	-999	-1	[0, 0, 0]	n/a	catFR1	2	R1393T
36.981	1.616	61128	WORD	n/a	n/a	DAY	Times	1	-1	[0, 0, 0]	n/a	catFR1	2	R1393T
38.597	0.833	62746	WORD_OFF	n/a	n/a	DAY	Times	1	-1	[0, 0, 0]	n/a	catFR1	2	R1393T
39.43	1.6	63579	WORD	n/a	n/a	SECOND	Times	2	-1	[0, 0, 0]	n/a	catFR1	2	R1393T
41.03	0.933	65180	WORD_OFF	n/a	n/a	SECOND	Times	2	-1	[0, 0, 0]	n/a	catFR1	2	R1393T
41.963	1.601	66113	WORD	n/a	n/a	DENIM	Materials	3	-1	[0, 0, 0]	n/a	catFR1	2	R1393T
43.564	0.916	67714	WORD_OFF	n/a	n/a	DENIM	Materials	3	-1	[0, 0, 0]	n/a	catFR1	2	R1393T
44.48	1.6	68631	WORD	n/a	n/a	LEATHER	Materials	4	-1	[0, 0, 0]	n/a	catFR1	2	R1393T
46.08	0.784	70231	WORD_OFF	n/a	n/a	LEATHER	Materials	4	-1	[0, 0, 0]	n/a	catFR1	2	R1393T
46.864	1.616	71015	WORD	n/a	n/a	PLUMBER	Professions	5	-1	[0, 0, 0]	n/a	catFR1	2	R1393T
48.48	0.933	72632	WORD_OFF	n/a	n/a	PLUMBER	Professions	5	-1	[0, 0, 0]	n/a	catFR1	2	R1393T
49.413	1.617	73566	WORD	n/a	n/a	FARMER	Professions	6	-1	[0, 0, 0]	n/a	catFR1	2	R1393T
51.03	0.883	75175	WORD_OFF	n/a	n/a	FARMER	Professions	6	-1	[0, 0, 0]	n/a	catFR1	2	R1393T
51.913	1.617	76058	WORD	n/a	n/a	MINUTE	Times	7	-1	[0, 0, 0]	n/a	catFR1	2	R1393T
53.53	0.817	77676	WORD_OFF	n/a	n/a	MINUTE	Times	7	-1	[0, 0, 0]	n/a	catFR1	2	R1393T
54.347	1.616	78493	WORD	n/a	n/a	HOUR	Times	8	-1	[0, 0, 0]	n/a	catFR1	2	R1393T
55.963	0.783	80110	WORD_OFF	n/a	n/a	HOUR	Times	8	-1	[0, 0, 0]	n/a	catFR1	2	R1393T
56.746	1.6	80893	WORD	n/a	n/a	WOOL	Materials	9	-1	[0, 0, 0]	n/a	catFR1	2	R1393T
58.346	1.001	82494	WORD_OFF	n/a	n/a	WOOL	Materials	9	-1	[0, 0, 0]	n/a	catFR1	2	R1393T
59.347	1.6	83494	WORD	n/a	n/a	SILK	Materials	10	-1	[0, 0, 0]	n/a	catFR1	2	R1393T
60.947	0.95	85095	WORD_OFF	n/a	n/a	SILK	Materials	10	-1	[0, 0, 0]	n/a	catFR1	2	R1393T
61.897	1.6	86045	WORD	n/a	n/a	FIREMAN	Professions	11	-1	[0, 0, 0]	n/a	catFR1	2	R1393T
63.497	0.917	87646	WORD_OFF	n/a	n/a	FIREMAN	Professions	11	-1	[0, 0, 0]	n/a	catFR1	2	R1393T
64.414	1.601	88563	WORD	n/a	n/a	TEACHER	Professions	12	-1	[0, 0, 0]	n/a	catFR1	2	R1393T
66.015	0.004	90163	WORD_OFF	n/a	n/a	TEACHER	Professions	12	-1	[0, 0, 0]	n/a	catFR1	2	R1393T
66.019	0.0	90163	ENCODING_END	n/a	n/a	n/a	n/a	-999	-1	[0, 0, 0]	n/a	catFR1	2	R1393T
66.016	0.004	90163	PROB	7.649	n/a	n/a	n/a	-999	-1	[2, 5, 3]	10.0	catFR1	2	R1393T
66.02	0.0	90167	START	n/a	n/a	n/a	n/a	-999	-1	[-999, -999, -999]	n/a	catFR1	2	R1393T
66.02	7.661	90171	DISTRACT_START	n/a	n/a	n/a	n/a	-999	-1	[0, 0, 0]	n/a	catFR1	2	R1393T
73.681	5.366	97827	PROB	5.35	n/a	n/a	n/a	-999	-1	[7, 3, 8]	18.0	catFR1	2	R1393T
79.047	4.768	103193	PROB	4.75	n/a	n/a	n/a	-999	-1	[8, 4, 2]	14.0	catFR1	2	R1393T
83.815	6.649	107961	PROB	6.632	n/a	n/a	n/a	-999	-1	[5, 7, 6]	18.0	catFR1	2	R1393T
90.464	0.0	114610	STOP	n/a	n/a	n/a	n/a	-999	-1	[-999, -999, -999]	n/a	catFR1	2	R1393T
90.464	1.268	114613	DISTRACT_END	n/a	n/a	n/a	n/a	-999	-1	[0, 0, 0]	n/a	catFR1	2	R1393T
91.732	3.75	115880	REC_START	n/a	n/a	n/a	n/a	-999	-1	[0, 0, 0]	n/a	catFR1	2	R1393T
95.482	0.526	119627	REC_WORD	3.75	n/a	FARMER	Professions	6	-1	[0, 0, 0]	n/a	catFR1	2	R1393T
96.008	9.175	120153	REC_WORD	4.276	n/a	SILK	Materials	10	-1	[0, 0, 0]	n/a	catFR1	2	R1393T
105.183	16.811	129328	REC_WORD	13.451	n/a	TREE	n/a	-999	-1	[0, 0, 0]	n/a	catFR1	2	R1393T
121.994	15.203	146140	REC_END	n/a	n/a	n/a	n/a	-999	-1	[0, 0, 0]	n/a	catFR1	2	R1393T
137.197	10.35	161345	COUNTDOWN_START	n/a	n/a	n/a	n/a	-999	1	[0, 0, 0]	n/a	catFR1	2	R1393T
147.547	0.0	171690	COUNTDOWN_END	n/a	n/a	n/a	n/a	-999	1	[0, 0, 0]	n/a	catFR1	2	R1393T
147.547	2.2	171690	ENCODING_START	n/a	n/a	n/a	n/a	-999	1	[0, 0, 0]	n/a	catFR1	2	R1393T
149.747	1.616	173891	WORD	n/a	wordpools/wordpool_categorized_EN.txt	ATTIC	Building	1	1	[0, 0, 0]	n/a	catFR1	2	R1393T
151.363	0.951	175508	WORD_OFF	n/a	n/a	ATTIC	Building	1	1	[0, 0, 0]	n/a	catFR1	2	R1393T
152.314	1.6	176459	WORD	n/a	wordpools/wordpool_categorized_EN.txt	FLOOR	Building	2	1	[0, 0, 0]	n/a	catFR1	2	R1393T
153.914	1.0	178059	WORD_OFF	n/a	n/a	FLOOR	Building	2	1	[0, 0, 0]	n/a	catFR1	2	R1393T
154.914	1.601	179060	WORD	n/a	wordpools/wordpool_categorized_EN.txt	GOOSE	Birds	3	1	[0, 0, 0]	n/a	catFR1	2	R1393T
156.515	1.0	180660	WORD_OFF	n/a	n/a	GOOSE	Birds	3	1	[0, 0, 0]	n/a	catFR1	2	R1393T
157.515	1.6	181660	WORD	n/a	wordpools/wordpool_categorized_EN.txt	CROW	Birds	4	1	[0, 0, 0]	n/a	catFR1	2	R1393T
159.115	0.85	183261	WORD_OFF	n/a	n/a	CROW	Birds	4	1	[0, 0, 0]	n/a	catFR1	2	R1393T
159.965	1.616	184111	WORD	n/a	wordpools/wordpool_categorized_EN.txt	BARBIE	Toys	5	1	[0, 0, 0]	n/a	catFR1	2	R1393T
161.581	0.866	185720	WORD_OFF	n/a	n/a	BARBIE	Toys	5	1	[0, 0, 0]	n/a	catFR1	2	R1393T
162.447	1.6	186587	WORD	n/a	wordpools/wordpool_categorized_EN.txt	DOLLHOUSE	Toys	6	1	[0, 0, 0]	n/a	catFR1	2	R1393T
164.047	0.917	188188	WORD_OFF	n/a	n/a	DOLLHOUSE	Toys	6	1	[0, 0, 0]	n/a	catFR1	2	R1393T
164.964	1.617	189105	WORD	n/a	wordpools/wordpool_categorized_EN.txt	HAWK	Birds	7	1	[0, 0, 0]	n/a	catFR1	2	R1393T
166.581	0.95	190722	WORD_OFF	n/a	n/a	HAWK	Birds	7	1	[0, 0, 0]	n/a	catFR1	2	R1393T
167.531	1.6	191672	WORD	n/a	wordpools/wordpool_categorized_EN.txt	DUCK	Birds	8	1	[0, 0, 0]	n/a	catFR1	2	R1393T
169.131	0.8	193273	WORD_OFF	n/a	n/a	DUCK	Birds	8	1	[0, 0, 0]	n/a	catFR1	2	R1393T
169.931	1.616	194073	WORD	n/a	wordpools/wordpool_categorized_EN.txt	BATHROOM	Building	9	1	[0, 0, 0]	n/a	catFR1	2	R1393T
171.547	0.834	195690	WORD_OFF	n/a	n/a	BATHROOM	Building	9	1	[0, 0, 0]	n/a	catFR1	2	R1393T
172.381	1.6	196524	WORD	n/a	wordpools/wordpool_categorized_EN.txt	HALLWAY	Building	10	1	[0, 0, 0]	n/a	catFR1	2	R1393T
173.981	0.866	198124	WORD_OFF	n/a	n/a	HALLWAY	Building	10	1	[0, 0, 0]	n/a	catFR1	2	R1393T
174.847	1.6	198991	WORD	n/a	wordpools/wordpool_categorized_EN.txt	FOOTBALL	Toys	11	1	[0, 0, 0]	n/a	catFR1	2	R1393T
176.447	0.867	200592	WORD_OFF	n/a	n/a	FOOTBALL	Toys	11	1	[0, 0, 0]	n/a	catFR1	2	R1393T
177.314	1.601	201459	WORD	n/a	wordpools/wordpool_categorized_EN.txt	PUZZLE	Toys	12	1	[0, 0, 0]	n/a	catFR1	2	R1393T
178.915	0.001	203056	PROB	7.399	n/a	n/a	n/a	-999	1	[6, 4, 6]	16.0	catFR1	2	R1393T
178.916	0.0	203057	START	n/a	n/a	n/a	n/a	-999	1	[-999, -999, -999]	n/a	catFR1	2	R1393T
178.914	0.002	203059	WORD_OFF	n/a	n/a	PUZZLE	Toys	12	1	[0, 0, 0]	n/a	catFR1	2	R1393T
178.916	0.0	203059	ENCODING_END	n/a	n/a	n/a	n/a	-999	1	[0, 0, 0]	n/a	catFR1	2	R1393T
178.916	7.415	203059	DISTRACT_START	n/a	n/a	n/a	n/a	-999	1	[0, 0, 0]	n/a	catFR1	2	R1393T
186.331	8.4	210472	PROB	8.383	n/a	n/a	n/a	-999	1	[8, 8, 7]	23.0	catFR1	2	R1393T
194.731	10.683	218871	PROB	10.666	n/a	n/a	n/a	-999	1	[8, 8, 7]	23.0	catFR1	2	R1393T
205.414	0.0	229552	DISTRACT_END	n/a	n/a	n/a	n/a	-999	1	[0, 0, 0]	n/a	catFR1	2	R1393T
205.414	1.317	229554	STOP	n/a	n/a	n/a	n/a	-999	1	[-999, -999, -999]	n/a	catFR1	2	R1393T
206.731	3.834	230869	REC_START	n/a	n/a	n/a	n/a	-999	1	[0, 0, 0]	n/a	catFR1	2	R1393T
210.565	1.642	234704	REC_WORD	3.834	n/a	FLOOR	Building	2	1	[0, 0, 0]	n/a	catFR1	2	R1393T
212.207	1.822	236346	REC_WORD	5.476	n/a	ATTIC	Building	1	1	[0, 0, 0]	n/a	catFR1	2	R1393T
214.029	22.956	238168	REC_WORD	7.298	n/a	DOLLHOUSE	Toys	6	1	[0, 0, 0]	n/a	catFR1	2	R1393T
236.985	2.946	261120	REC_END	n/a	n/a	n/a	n/a	-999	1	[0, 0, 0]	n/a	catFR1	2	R1393T
239.931	10.35	264071	COUNTDOWN_START	n/a	n/a	n/a	n/a	-999	2	[0, 0, 0]	n/a	catFR1	2	R1393T
250.281	0.001	274417	COUNTDOWN_END	n/a	n/a	n/a	n/a	-999	2	[0, 0, 0]	n/a	catFR1	2	R1393T
250.282	2.016	274425	ENCODING_START	n/a	n/a	n/a	n/a	-999	2	[0, 0, 0]	n/a	catFR1	2	R1393T
252.298	1.616	276434	WORD	n/a	wordpools/wordpool_categorized_EN.txt	MOTORCYCLE	Vehicles	1	2	[0, 0, 0]	n/a	catFR1	2	R1393T
253.914	0.817	278051	WORD_OFF	n/a	n/a	MOTORCYCLE	Vehicles	1	2	[0, 0, 0]	n/a	catFR1	2	R1393T
254.731	1.616	278868	WORD	n/a	wordpools/wordpool_categorized_EN.txt	VAN	Vehicles	2	2	[0, 0, 0]	n/a	catFR1	2	R1393T
256.347	0.834	280485	WORD_OFF	n/a	n/a	VAN	Vehicles	2	2	[0, 0, 0]	n/a	catFR1	2	R1393T
257.181	1.6	281319	WORD	n/a	wordpools/wordpool_categorized_EN.txt	JUICE	Beverages	3	2	[0, 0, 0]	n/a	catFR1	2	R1393T
258.781	0.767	282919	WORD_OFF	n/a	n/a	JUICE	Beverages	3	2	[0, 0, 0]	n/a	catFR1	2	R1393T
259.548	1.599	283686	WORD	n/a	wordpools/wordpool_categorized_EN.txt	COFFEE	Beverages	4	2	[0, 0, 0]	n/a	catFR1	2	R1393T
261.147	0.95	285287	WORD_OFF	n/a	n/a	COFFEE	Beverages	4	2	[0, 0, 0]	n/a	catFR1	2	R1393T
262.097	1.6	286237	WORD	n/a	wordpools/wordpool_categorized_EN.txt	GNAT	Insects	5	2	[0, 0, 0]	n/a	catFR1	2	R1393T
263.697	0.934	287838	WORD_OFF	n/a	n/a	GNAT	Insects	5	2	[0, 0, 0]	n/a	catFR1	2	R1393T
264.631	1.6	288771	WORD	n/a	wordpools/wordpool_categorized_EN.txt	BEETLE	Insects	6	2	[0, 0, 0]	n/a	catFR1	2	R1393T
266.231	0.966	290372	WORD_OFF	n/a	n/a	BEETLE	Insects	6	2	[0, 0, 0]	n/a	catFR1	2	R1393T
267.197	1.6	291331	WORD	n/a	wordpools/wordpool_categorized_EN.txt	MILK	Beverages	7	2	[0, 0, 0]	n/a	catFR1	2	R1393T
268.797	0.8	292931	WORD_OFF	n/a	n/a	MILK	Beverages	7	2	[0, 0, 0]	n/a	catFR1	2	R1393T
269.597	1.6	293731	WORD	n/a	wordpools/wordpool_categorized_EN.txt	CIDER	Beverages	8	2	[0, 0, 0]	n/a	catFR1	2	R1393T
271.197	0.95	295332	WORD_OFF	n/a	n/a	CIDER	Beverages	8	2	[0, 0, 0]	n/a	catFR1	2	R1393T
272.147	1.617	296282	WORD	n/a	wordpools/wordpool_categorized_EN.txt	CRICKET	Insects	9	2	[0, 0, 0]	n/a	catFR1	2	R1393T
273.764	0.817	297899	WORD_OFF	n/a	n/a	CRICKET	Insects	9	2	[0, 0, 0]	n/a	catFR1	2	R1393T
274.581	1.6	298716	WORD	n/a	wordpools/wordpool_categorized_EN.txt	MOSQUITO	Insects	10	2	[0, 0, 0]	n/a	catFR1	2	R1393T
276.181	0.766	300317	WORD_OFF	n/a	n/a	MOSQUITO	Insects	10	2	[0, 0, 0]	n/a	catFR1	2	R1393T
276.947	1.6	301084	WORD	n/a	wordpools/wordpool_categorized_EN.txt	BIKE	Vehicles	11	2	[0, 0, 0]	n/a	catFR1	2	R1393T
278.547	0.817	302684	WORD_OFF	n/a	n/a	BIKE	Vehicles	11	2	[0, 0, 0]	n/a	catFR1	2	R1393T
279.364	1.601	303501	WORD	n/a	wordpools/wordpool_categorized_EN.txt	PLANE	Vehicles	12	2	[0, 0, 0]	n/a	catFR1	2	R1393T
280.965	0.0	305101	PROB	5.399	n/a	n/a	n/a	-999	2	[3, 2, 2]	7.0	catFR1	2	R1393T
280.964	0.002	305102	WORD_OFF	n/a	n/a	PLANE	Vehicles	12	2	[0, 0, 0]	n/a	catFR1	2	R1393T
280.966	0.0	305102	ENCODING_END	n/a	n/a	n/a	n/a	-999	2	[0, 0, 0]	n/a	catFR1	2	R1393T
280.966	0.0	305102	DISTRACT_START	n/a	n/a	n/a	n/a	-999	2	[0, 0, 0]	n/a	catFR1	2	R1393T
280.966	5.415	305102	START	n/a	n/a	n/a	n/a	-999	2	[-999, -999, -999]	n/a	catFR1	2	R1393T
286.381	5.45	310516	PROB	5.433	n/a	n/a	n/a	-999	2	[7, 3, 3]	13.0	catFR1	2	R1393T
291.831	7.667	315966	PROB	7.65	n/a	n/a	n/a	-999	2	[5, 6, 6]	17.0	catFR1	2	R1393T
299.498	15.932	323633	PROB	15.916	n/a	n/a	n/a	-999	2	[6, 4, 7]	17.0	catFR1	2	R1393T
315.43	0.0	339563	DISTRACT_END	n/a	n/a	n/a	n/a	-999	2	[0, 0, 0]	n/a	catFR1	2	R1393T
315.43	1.25	339564	STOP	n/a	n/a	n/a	n/a	-999	2	[-999, -999, -999]	n/a	catFR1	2	R1393T
316.68	5.642	340814	REC_START	n/a	n/a	n/a	n/a	-999	2	[0, 0, 0]	n/a	catFR1	2	R1393T
322.322	9.254	346456	REC_WORD	5.642	n/a	MOSQUITO	Insects	10	2	[0, 0, 0]	n/a	catFR1	2	R1393T
331.576	0.582	355709	REC_WORD_VV	14.896	n/a	<>	n/a	-999	2	[0, 0, 0]	n/a	catFR1	2	R1393T
332.158	11.834	356291	REC_WORD	15.478	n/a	MOTORCYCLE	Vehicles	1	2	[0, 0, 0]	n/a	catFR1	2	R1393T
343.992	2.909	368124	REC_WORD	27.312	n/a	BICYCLE	n/a	-999	2	[0, 0, 0]	n/a	catFR1	2	R1393T
346.901	3.213	371032	REC_END	n/a	n/a	n/a	n/a	-999	2	[0, 0, 0]	n/a	catFR1	2	R1393T
350.114	10.351	374250	COUNTDOWN_START	n/a	n/a	n/a	n/a	-999	3	[0, 0, 0]	n/a	catFR1	2	R1393T
360.465	0.0	384595	COUNTDOWN_END	n/a	n/a	n/a	n/a	-999	3	[0, 0, 0]	n/a	catFR1	2	R1393T
360.465	1.849	384595	ENCODING_START	n/a	n/a	n/a	n/a	-999	3	[0, 0, 0]	n/a	catFR1	2	R1393T
362.314	1.6	386446	WORD	n/a	wordpools/wordpool_categorized_EN.txt	STAPLER	Officesupplies	1	3	[0, 0, 0]	n/a	catFR1	2	R1393T
363.914	0.983	388046	WORD_OFF	n/a	n/a	STAPLER	Officesupplies	1	3	[0, 0, 0]	n/a	catFR1	2	R1393T
364.897	1.6	389030	WORD	n/a	wordpools/wordpool_categorized_EN.txt	FOLDER	Officesupplies	2	3	[0, 0, 0]	n/a	catFR1	2	R1393T
366.497	0.9	390631	WORD_OFF	n/a	n/a	FOLDER	Officesupplies	2	3	[0, 0, 0]	n/a	catFR1	2	R1393T
367.397	1.617	391531	WORD	n/a	wordpools/wordpool_categorized_EN.txt	LIGHTNING	Weather	3	3	[0, 0, 0]	n/a	catFR1	2	R1393T
369.014	1.0	393148	WORD_OFF	n/a	n/a	LIGHTNING	Weather	3	3	[0, 0, 0]	n/a	catFR1	2	R1393T
370.014	1.617	394148	WORD	n/a	wordpools/wordpool_categorized_EN.txt	FOG	Weather	4	3	[0, 0, 0]	n/a	catFR1	2	R1393T
371.631	1.0	395766	WORD_OFF	n/a	n/a	FOG	Weather	4	3	[0, 0, 0]	n/a	catFR1	2	R1393T
372.631	1.6	396766	WORD	n/a	wordpools/wordpool_categorized_EN.txt	WALNUT	Trees	5	3	[0, 0, 0]	n/a	catFR1	2	R1393T
374.231	0.916	398358	WORD_OFF	n/a	n/a	WALNUT	Trees	5	3	[0, 0, 0]	n/a	catFR1	2	R1393T
375.147	1.6	399275	WORD	n/a	wordpools/wordpool_categorized_EN.txt	ELM	Trees	6	3	[0, 0, 0]	n/a	catFR1	2	R1393T
376.747	0.8	400876	WORD_OFF	n/a	n/a	ELM	Trees	6	3	[0, 0, 0]	n/a	catFR1	2	R1393T
377.547	1.6	401676	WORD	n/a	wordpools/wordpool_categorized_EN.txt	SNOW	Weather	7	3	[0, 0, 0]	n/a	catFR1	2	R1393T
379.147	0.984	403276	WORD_OFF	n/a	n/a	SNOW	Weather	7	3	[0, 0, 0]	n/a	catFR1	2	R1393T
380.131	1.6	404260	WORD	n/a	wordpools/wordpool_categorized_EN.txt	THUNDER	Weather	8	3	[0, 0, 0]	n/a	catFR1	2	R1393T
381.731	0.85	405861	WORD_OFF	n/a	n/a	THUNDER	Weather	8	3	[0, 0, 0]	n/a	catFR1	2	R1393T
382.581	1.6	406711	WORD	n/a	wordpools/wordpool_categorized_EN.txt	CEDAR	Trees	9	3	[0, 0, 0]	n/a	catFR1	2	R1393T
384.181	0.9	408312	WORD_OFF	n/a	n/a	CEDAR	Trees	9	3	[0, 0, 0]	n/a	catFR1	2	R1393T
385.081	1.616	409212	WORD	n/a	wordpools/wordpool_categorized_EN.txt	SPRUCE	Trees	10	3	[0, 0, 0]	n/a	catFR1	2	R1393T
386.697	0.95	410829	WORD_OFF	n/a	n/a	SPRUCE	Trees	10	3	[0, 0, 0]	n/a	catFR1	2	R1393T
387.647	1.617	411779	WORD	n/a	wordpools/wordpool_categorized_EN.txt	ERASER	Officesupplies	11	3	[0, 0, 0]	n/a	catFR1	2	R1393T
389.264	0.817	413397	WORD_OFF	n/a	n/a	ERASER	Officesupplies	11	3	[0, 0, 0]	n/a	catFR1	2	R1393T
390.081	1.601	414213	WORD	n/a	wordpools/wordpool_categorized_EN.txt	PAPER	Officesupplies	12	3	[0, 0, 0]	n/a	catFR1	2	R1393T
391.682	0.0	415812	START	n/a	n/a	n/a	n/a	-999	3	[-999, -999, -999]	n/a	catFR1	2	R1393T
391.682	0.0	415812	PROB	7.199	n/a	n/a	n/a	-999	3	[1, 6, 1]	8.0	catFR1	2	R1393T
391.681	0.001	415814	WORD_OFF	n/a	n/a	PAPER	Officesupplies	12	3	[0, 0, 0]	n/a	catFR1	2	R1393T
391.682	0.0	415814	ENCODING_END	n/a	n/a	n/a	n/a	-999	3	[0, 0, 0]	n/a	catFR1	2	R1393T
391.682	7.216	415814	DISTRACT_START	n/a	n/a	n/a	n/a	-999	3	[0, 0, 0]	n/a	catFR1	2	R1393T
398.898	5.234	423028	PROB	5.216	n/a	n/a	n/a	-999	3	[4, 8, 4]	15.0	catFR1	2	R1393T
404.132	7.066	428261	PROB	7.049	n/a	n/a	n/a	-999	3	[8, 3, 4]	15.0	catFR1	2	R1393T
411.198	6.434	435327	PROB	6.416	n/a	n/a	n/a	-999	3	[6, 1, 8]	15.0	catFR1	2	R1393T
417.632	0.0	441761	STOP	n/a	n/a	n/a	n/a	-999	3	[-999, -999, -999]	n/a	catFR1	2	R1393T
417.632	1.249	441764	DISTRACT_END	n/a	n/a	n/a	n/a	-999	3	[0, 0, 0]	n/a	catFR1	2	R1393T
418.881	4.965	443006	REC_START	n/a	n/a	n/a	n/a	-999	3	[0, 0, 0]	n/a	catFR1	2	R1393T
423.846	2.741	447974	REC_WORD	4.965	n/a	ELM	Trees	6	3	[0, 0, 0]	n/a	catFR1	2	R1393T
426.587	22.531	450715	REC_WORD	7.706	n/a	SPRUCE	Trees	10	3	[0, 0, 0]	n/a	catFR1	2	R1393T
449.118	2.863	473242	REC_END	n/a	n/a	n/a	n/a	-999	3	[0, 0, 0]	n/a	catFR1	2	R1393T
451.981	10.35	476109	COUNTDOWN_START	n/a	n/a	n/a	n/a	-999	4	[0, 0, 0]	n/a	catFR1	2	R1393T
462.331	0.001	486454	COUNTDOWN_END	n/a	n/a	n/a	n/a	-999	4	[0, 0, 0]	n/a	catFR1	2	R1393T
462.332	2.149	486463	ENCODING_START	n/a	n/a	n/a	n/a	-999	4	[0, 0, 0]	n/a	catFR1	2	R1393T
464.481	1.616	488605	WORD	n/a	wordpools/wordpool_categorized_EN.txt	GRAPE	Fruit	1	4	[0, 0, 0]	n/a	catFR1	2	R1393T
466.097	1.0	490222	WORD_OFF	n/a	n/a	GRAPE	Fruit	1	4	[0, 0, 0]	n/a	catFR1	2	R1393T
467.097	1.6	491223	WORD	n/a	wordpools/wordpool_categorized_EN.txt	PLUM	Fruit	2	4	[0, 0, 0]	n/a	catFR1	2	R1393T
468.697	0.917	492823	WORD_OFF	n/a	n/a	PLUM	Fruit	2	4	[0, 0, 0]	n/a	catFR1	2	R1393T
469.614	1.6	493740	WORD	n/a	wordpools/wordpool_categorized_EN.txt	SAW	Tools	3	4	[0, 0, 0]	n/a	catFR1	2	R1393T
471.214	0.95	495341	WORD_OFF	n/a	n/a	SAW	Tools	3	4	[0, 0, 0]	n/a	catFR1	2	R1393T
472.164	1.617	496291	WORD	n/a	wordpools/wordpool_categorized_EN.txt	PLIERS	Tools	4	4	[0, 0, 0]	n/a	catFR1	2	R1393T
473.781	0.782	497908	WORD_OFF	n/a	n/a	PLIERS	Tools	4	4	[0, 0, 0]	n/a	catFR1	2	R1393T
474.563	1.601	498692	WORD	n/a	wordpools/wordpool_categorized_EN.txt	THUNDERSTORM	Weather	5	4	[0, 0, 0]	n/a	catFR1	2	R1393T
476.164	0.799	500292	WORD_OFF	n/a	n/a	THUNDERSTORM	Weather	5	4	[0, 0, 0]	n/a	catFR1	2	R1393T
476.963	1.601	501093	WORD	n/a	wordpools/wordpool_categorized_EN.txt	CLOUD	Weather	6	4	[0, 0, 0]	n/a	catFR1	2	R1393T
478.564	0.932	502693	WORD_OFF	n/a	n/a	CLOUD	Weather	6	4	[0, 0, 0]	n/a	catFR1	2	R1393T
479.496	1.601	503618	WORD	n/a	wordpools/wordpool_categorized_EN.txt	SCREWDRIVER	Tools	7	4	[0, 0, 0]	n/a	catFR1	2	R1393T
481.097	0.784	505227	WORD_OFF	n/a	n/a	SCREWDRIVER	Tools	7	4	[0, 0, 0]	n/a	catFR1	2	R1393T
481.881	1.6	506003	WORD	n/a	wordpools/wordpool_categorized_EN.txt	WRENCH	Tools	8	4	[0, 0, 0]	n/a	catFR1	2	R1393T
483.481	0.783	507603	WORD_OFF	n/a	n/a	WRENCH	Tools	8	4	[0, 0, 0]	n/a	catFR1	2	R1393T
484.264	1.616	508387	WORD	n/a	wordpools/wordpool_categorized_EN.txt	DRIZZLE	Weather	9	4	[0, 0, 0]	n/a	catFR1	2	R1393T
485.88	0.767	510004	WORD_OFF	n/a	n/a	DRIZZLE	Weather	9	4	[0, 0, 0]	n/a	catFR1	2	R1393T
486.647	1.617	510771	WORD	n/a	wordpools/wordpool_categorized_EN.txt	HURRICANE	Weather	10	4	[0, 0, 0]	n/a	catFR1	2	R1393T
488.264	1.0	512388	WORD_OFF	n/a	n/a	HURRICANE	Weather	10	4	[0, 0, 0]	n/a	catFR1	2	R1393T
489.264	1.6	513388	WORD	n/a	wordpools/wordpool_categorized_EN.txt	CHERRY	Fruit	11	4	[0, 0, 0]	n/a	catFR1	2	R1393T
490.864	0.966	514989	WORD_OFF	n/a	n/a	CHERRY	Fruit	11	4	[0, 0, 0]	n/a	catFR1	2	R1393T
491.83	1.618	515956	WORD	n/a	wordpools/wordpool_categorized_EN.txt	LEMON	Fruit	12	4	[0, 0, 0]	n/a	catFR1	2	R1393T
493.448	0.004	517573	PROB	8.799	n/a	n/a	n/a	-999	4	[4, 4, 2]	10.0	catFR1	2	R1393T
493.452	0.0	517577	START	n/a	n/a	n/a	n/a	-999	4	[-999, -999, -999]	n/a	catFR1	2	R1393T
493.447	0.005	517581	WORD_OFF	n/a	n/a	LEMON	Fruit	12	4	[0, 0, 0]	n/a	catFR1	2	R1393T
493.452	0.0	517581	ENCODING_END	n/a	n/a	n/a	n/a	-999	4	[0, 0, 0]	n/a	catFR1	2	R1393T
493.452	8.811	517581	DISTRACT_START	n/a	n/a	n/a	n/a	-999	4	[0, 0, 0]	n/a	catFR1	2	R1393T
502.263	4.818	526387	PROB	4.8	n/a	n/a	n/a	-999	4	[6, 2, 4]	12.0	catFR1	2	R1393T
507.081	5.633	531205	PROB	5.616	n/a	n/a	n/a	-999	4	[7, 8, 1]	16.0	catFR1	2	R1393T
512.714	9.983	536838	PROB	9.967	n/a	n/a	n/a	-999	4	[5, 2, 6]	13.0	catFR1	2	R1393T
522.697	0.0	546820	STOP	n/a	n/a	n/a	n/a	-999	4	[-999, -999, -999]	n/a	catFR1	2	R1393T
522.697	1.35	546825	DISTRACT_END	n/a	n/a	n/a	n/a	-999	4	[0, 0, 0]	n/a	catFR1	2	R1393T
524.047	2.995	548167	REC_START	n/a	n/a	n/a	n/a	-999	4	[0, 0, 0]	n/a	catFR1	2	R1393T
527.042	1.12	551165	REC_WORD	2.995	n/a	WRENCH	Tools	8	4	[0, 0, 0]	n/a	catFR1	2	R1393T
528.162	17.97	552285	REC_WORD	4.115	n/a	PLIERS	Tools	4	4	[0, 0, 0]	n/a	catFR1	2	R1393T
546.132	0.745	570254	REC_WORD	22.085	n/a	SOAP	n/a	-999	4	[0, 0, 0]	n/a	catFR1	2	R1393T
546.877	7.407	570999	REC_WORD	22.83	n/a	HAMMER	n/a	-999	4	[0, 0, 0]	n/a	catFR1	2	R1393T
554.284	2.164	578402	REC_END	n/a	n/a	n/a	n/a	-999	4	[0, 0, 0]	n/a	catFR1	2	R1393T
556.448	10.35	580569	COUNTDOWN_START	n/a	n/a	n/a	n/a	-999	5	[0, 0, 0]	n/a	catFR1	2	R1393T
566.798	0.0	590923	COUNTDOWN_END	n/a	n/a	n/a	n/a	-999	5	[0, 0, 0]	n/a	catFR1	2	R1393T
566.798	1.949	590923	ENCODING_START	n/a	n/a	n/a	n/a	-999	5	[0, 0, 0]	n/a	catFR1	2	R1393T
568.747	1.617	592865	WORD	n/a	wordpools/wordpool_categorized_EN.txt	HEN	Farmanimals	1	5	[0, 0, 0]	n/a	catFR1	2	R1393T
570.364	0.967	594482	WORD_OFF	n/a	n/a	HEN	Farmanimals	1	5	[0, 0, 0]	n/a	catFR1	2	R1393T
571.331	1.616	595449	WORD	n/a	wordpools/wordpool_categorized_EN.txt	SHEEP	Farmanimals	2	5	[0, 0, 0]	n/a	catFR1	2	R1393T
572.947	0.934	597066	WORD_OFF	n/a	n/a	SHEEP	Farmanimals	2	5	[0, 0, 0]	n/a	catFR1	2	R1393T
573.881	1.616	598000	WORD	n/a	wordpools/wordpool_categorized_EN.txt	FUDGE	Desserts	3	5	[0, 0, 0]	n/a	catFR1	2	R1393T
575.497	0.783	599617	WORD_OFF	n/a	n/a	FUDGE	Desserts	3	5	[0, 0, 0]	n/a	catFR1	2	R1393T
576.28	1.617	600401	WORD	n/a	wordpools/wordpool_categorized_EN.txt	CAKE	Desserts	4	5	[0, 0, 0]	n/a	catFR1	2	R1393T
577.897	0.867	602018	WORD_OFF	n/a	n/a	CAKE	Desserts	4	5	[0, 0, 0]	n/a	catFR1	2	R1393T
578.764	1.6	602885	WORD	n/a	wordpools/wordpool_categorized_EN.txt	LION	Zoo	5	5	[0, 0, 0]	n/a	catFR1	2	R1393T
580.364	0.882	604486	WORD_OFF	n/a	n/a	LION	Zoo	5	5	[0, 0, 0]	n/a	catFR1	2	R1393T
581.246	1.601	605369	WORD	n/a	wordpools/wordpool_categorized_EN.txt	PANDA	Zoo	6	5	[0, 0, 0]	n/a	catFR1	2	R1393T
582.847	0.783	606970	WORD_OFF	n/a	n/a	PANDA	Zoo	6	5	[0, 0, 0]	n/a	catFR1	2	R1393T
583.63	1.617	607753	WORD	n/a	wordpools/wordpool_categorized_EN.txt	BULL	Farmanimals	7	5	[0, 0, 0]	n/a	catFR1	2	R1393T
585.247	0.8	609371	WORD_OFF	n/a	n/a	BULL	Farmanimals	7	5	[0, 0, 0]	n/a	catFR1	2	R1393T
586.047	1.6	610171	WORD	n/a	wordpools/wordpool_categorized_EN.txt	COW	Farmanimals	8	5	[0, 0, 0]	n/a	catFR1	2	R1393T
587.647	0.967	611771	WORD_OFF	n/a	n/a	COW	Farmanimals	8	5	[0, 0, 0]	n/a	catFR1	2	R1393T
588.614	1.6	612730	WORD	n/a	wordpools/wordpool_categorized_EN.txt	CHEESECAKE	Desserts	9	5	[0, 0, 0]	n/a	catFR1	2	R1393T
590.214	0.833	614331	WORD_OFF	n/a	n/a	CHEESECAKE	Desserts	9	5	[0, 0, 0]	n/a	catFR1	2	R1393T
591.047	1.6	615164	WORD	n/a	wordpools/wordpool_categorized_EN.txt	BROWNIES	Desserts	10	5	[0, 0, 0]	n/a	catFR1	2	R1393T
592.647	0.9	616765	WORD_OFF	n/a	n/a	BROWNIES	Desserts	10	5	[0, 0, 0]	n/a	catFR1	2	R1393T
593.547	1.6	617665	WORD	n/a	wordpools/wordpool_categorized_EN.txt	MONKEY	Zoo	11	5	[0, 0, 0]	n/a	catFR1	2	R1393T
595.147	0.966	619266	WORD_OFF	n/a	n/a	MONKEY	Zoo	11	5	[0, 0, 0]	n/a	catFR1	2	R1393T
596.113	1.617	620233	WORD	n/a	wordpools/wordpool_categorized_EN.txt	CHIMPANZEE	Zoo	12	5	[0, 0, 0]	n/a	catFR1	2	R1393T
597.73	0.0	621849	PROB	6.05	n/a	n/a	n/a	-999	5	[8, 7, 1]	16.0	catFR1	2	R1393T
597.73	0.002	621850	WORD_OFF	n/a	n/a	CHIMPANZEE	Zoo	12	5	[0, 0, 0]	n/a	catFR1	2	R1393T
597.732	0.0	621850	ENCODING_END	n/a	n/a	n/a	n/a	-999	5	[0, 0, 0]	n/a	catFR1	2	R1393T
597.732	0.0	621850	DISTRACT_START	n/a	n/a	n/a	n/a	-999	5	[0, 0, 0]	n/a	catFR1	2	R1393T
597.732	6.066	621851	START	n/a	n/a	n/a	n/a	-999	5	[-999, -999, -999]	n/a	catFR1	2	R1393T
603.798	7.867	627917	PROB	7.851	n/a	n/a	n/a	-999	5	[8, 6, 5]	19.0	catFR1	2	R1393T
611.665	6.266	635784	PROB	6.249	n/a	n/a	n/a	-999	5	[5, 3, 4]	12.0	catFR1	2	R1393T
617.931	0.0	642048	DISTRACT_END	n/a	n/a	n/a	n/a	-999	5	[0, 0, 0]	n/a	catFR1	2	R1393T
617.931	1.383	642049	STOP	n/a	n/a	n/a	n/a	-999	5	[-999, -999, -999]	n/a	catFR1	2	R1393T
619.314	3.612	643432	REC_START	n/a	n/a	n/a	n/a	-999	5	[0, 0, 0]	n/a	catFR1	2	R1393T
622.926	5.102	647044	REC_WORD	3.612	n/a	CHIMPANZEE	Zoo	12	5	[0, 0, 0]	n/a	catFR1	2	R1393T
628.028	15.862	652146	REC_WORD	8.714	n/a	MONKEY	Zoo	11	5	[0, 0, 0]	n/a	catFR1	2	R1393T
643.89	5.665	668007	REC_WORD	24.576	n/a	CAKE	Desserts	4	5	[0, 0, 0]	n/a	catFR1	2	R1393T
649.555	2.443	673676	REC_END	n/a	n/a	n/a	n/a	-999	5	[0, 0, 0]	n/a	catFR1	2	R1393T
651.998	10.35	676118	COUNTDOWN_START	n/a	n/a	n/a	n/a	-999	6	[0, 0, 0]	n/a	catFR1	2	R1393T
662.348	0.0	686463	COUNTDOWN_END	n/a	n/a	n/a	n/a	-999	6	[0, 0, 0]	n/a	catFR1	2	R1393T
662.348	2.016	686463	ENCODING_START	n/a	n/a	n/a	n/a	-999	6	[0, 0, 0]	n/a	catFR1	2	R1393T
664.364	1.6	688480	WORD	n/a	wordpools/wordpool_categorized_EN.txt	LAKE	Landscapes	1	6	[0, 0, 0]	n/a	catFR1	2	R1393T
665.964	0.783	690081	WORD_OFF	n/a	n/a	LAKE	Landscapes	1	6	[0, 0, 0]	n/a	catFR1	2	R1393T
666.747	1.6	690865	WORD	n/a	wordpools/wordpool_categorized_EN.txt	STREAM	Landscapes	2	6	[0, 0, 0]	n/a	catFR1	2	R1393T
668.347	0.817	692465	WORD_OFF	n/a	n/a	STREAM	Landscapes	2	6	[0, 0, 0]	n/a	catFR1	2	R1393T
669.164	1.6	693282	WORD	n/a	wordpools/wordpool_categorized_EN.txt	FISH	Oceananimals	3	6	[0, 0, 0]	n/a	catFR1	2	R1393T
670.764	0.8	694883	WORD_OFF	n/a	n/a	FISH	Oceananimals	3	6	[0, 0, 0]	n/a	catFR1	2	R1393T
671.564	1.6	695683	WORD	n/a	wordpools/wordpool_categorized_EN.txt	PLANKTON	Oceananimals	4	6	[0, 0, 0]	n/a	catFR1	2	R1393T
673.164	0.866	697283	WORD_OFF	n/a	n/a	PLANKTON	Oceananimals	4	6	[0, 0, 0]	n/a	catFR1	2	R1393T
674.03	1.617	698142	WORD	n/a	wordpools/wordpool_categorized_EN.txt	TUBA	Instruments	5	6	[0, 0, 0]	n/a	catFR1	2	R1393T
675.647	0.916	699759	WORD_OFF	n/a	n/a	TUBA	Instruments	5	6	[0, 0, 0]	n/a	catFR1	2	R1393T
676.563	1.6	700676	WORD	n/a	wordpools/wordpool_categorized_EN.txt	ORGAN	Instruments	6	6	[0, 0, 0]	n/a	catFR1	2	R1393T
678.163	0.767	702277	WORD_OFF	n/a	n/a	ORGAN	Instruments	6	6	[0, 0, 0]	n/a	catFR1	2	R1393T
678.93	1.617	703044	WORD	n/a	wordpools/wordpool_categorized_EN.txt	DOLPHIN	Oceananimals	7	6	[0, 0, 0]	n/a	catFR1	2	R1393T
680.547	0.917	704661	WORD_OFF	n/a	n/a	DOLPHIN	Oceananimals	7	6	[0, 0, 0]	n/a	catFR1	2	R1393T
681.464	1.616	705578	WORD	n/a	wordpools/wordpool_categorized_EN.txt	SHRIMP	Oceananimals	8	6	[0, 0, 0]	n/a	catFR1	2	R1393T
683.08	0.817	707195	WORD_OFF	n/a	n/a	SHRIMP	Oceananimals	8	6	[0, 0, 0]	n/a	catFR1	2	R1393T
683.897	1.6	708012	WORD	n/a	wordpools/wordpool_categorized_EN.txt	RIVER	Landscapes	9	6	[0, 0, 0]	n/a	catFR1	2	R1393T
685.497	0.783	709613	WORD_OFF	n/a	n/a	RIVER	Landscapes	9	6	[0, 0, 0]	n/a	catFR1	2	R1393T
686.28	1.6	710396	WORD	n/a	wordpools/wordpool_categorized_EN.txt	WOODS	Landscapes	10	6	[0, 0, 0]	n/a	catFR1	2	R1393T
687.88	0.967	711997	WORD_OFF	n/a	n/a	WOODS	Landscapes	10	6	[0, 0, 0]	n/a	catFR1	2	R1393T
688.847	1.6	712964	WORD	n/a	wordpools/wordpool_categorized_EN.txt	TROMBONE	Instruments	11	6	[0, 0, 0]	n/a	catFR1	2	R1393T
690.447	0.983	714564	WORD_OFF	n/a	n/a	TROMBONE	Instruments	11	6	[0, 0, 0]	n/a	catFR1	2	R1393T
691.43	1.601	715548	WORD	n/a	wordpools/wordpool_categorized_EN.txt	CELLO	Instruments	12	6	[0, 0, 0]	n/a	catFR1	2	R1393T
693.031	0.001	717145	PROB	6.784	n/a	n/a	n/a	-999	6	[2, 8, 4]	14.0	catFR1	2	R1393T
693.032	0.0	717146	START	n/a	n/a	n/a	n/a	-999	6	[-999, -999, -999]	n/a	catFR1	2	R1393T
693.03	0.002	717148	WORD_OFF	n/a	n/a	CELLO	Instruments	12	6	[0, 0, 0]	n/a	catFR1	2	R1393T
693.032	0.0	717148	ENCODING_END	n/a	n/a	n/a	n/a	-999	6	[0, 0, 0]	n/a	catFR1	2	R1393T
693.032	6.799	717148	DISTRACT_START	n/a	n/a	n/a	n/a	-999	6	[0, 0, 0]	n/a	catFR1	2	R1393T
699.831	5.184	723945	PROB	5.166	n/a	n/a	n/a	-999	6	[1, 2, 4]	7.0	catFR1	2	R1393T
705.015	6.216	729129	PROB	6.199	n/a	n/a	n/a	-999	6	[1, 1, 5]	7.0	catFR1	2	R1393T
711.231	5.566	735344	PROB	5.551	n/a	n/a	n/a	-999	6	[4, 3, 3]	10.0	catFR1	2	R1393T
716.797	0.0	740910	STOP	n/a	n/a	n/a	n/a	-999	6	[-999, -999, -999]	n/a	catFR1	2	R1393T
716.797	1.034	740915	DISTRACT_END	n/a	n/a	n/a	n/a	-999	6	[0, 0, 0]	n/a	catFR1	2	R1393T
717.831	3.684	741948	REC_START	n/a	n/a	n/a	n/a	-999	6	[0, 0, 0]	n/a	catFR1	2	R1393T
721.515	1.994	745628	REC_WORD	3.684	n/a	FISH	Oceananimals	3	6	[0, 0, 0]	n/a	catFR1	2	R1393T
723.509	13.96	747622	REC_WORD	5.678	n/a	PLANKTON	Oceananimals	4	6	[0, 0, 0]	n/a	catFR1	2	R1393T
737.469	0.613	761581	REC_WORD	19.638	n/a	COD	n/a	-999	6	[0, 0, 0]	n/a	catFR1	2	R1393T
738.082	7.007	762194	REC_WORD	20.251	n/a	SHARK	n/a	-999	6	[0, 0, 0]	n/a	catFR1	2	R1393T
745.089	2.996	769201	REC_WORD	27.258	n/a	ANIMAL	n/a	-999	6	[0, 0, 0]	n/a	catFR1	2	R1393T
748.085	2.812	772200	REC_END	n/a	n/a	n/a	n/a	-999	6	[0, 0, 0]	n/a	catFR1	2	R1393T
750.897	10.351	775010	COUNTDOWN_START	n/a	n/a	n/a	n/a	-999	7	[0, 0, 0]	n/a	catFR1	2	R1393T
761.248	0.0	785363	COUNTDOWN_END	n/a	n/a	n/a	n/a	-999	7	[0, 0, 0]	n/a	catFR1	2	R1393T
761.248	1.95	785363	ENCODING_START	n/a	n/a	n/a	n/a	-999	7	[0, 0, 0]	n/a	catFR1	2	R1393T
763.198	1.6	787305	WORD	n/a	wordpools/wordpool_categorized_EN.txt	DRILL	Tools	1	7	[0, 0, 0]	n/a	catFR1	2	R1393T
764.798	0.782	788906	WORD_OFF	n/a	n/a	DRILL	Tools	1	7	[0, 0, 0]	n/a	catFR1	2	R1393T
765.58	1.6	789689	WORD	n/a	wordpools/wordpool_categorized_EN.txt	AXE	Tools	2	7	[0, 0, 0]	n/a	catFR1	2	R1393T
767.18	0.917	791290	WORD_OFF	n/a	n/a	AXE	Tools	2	7	[0, 0, 0]	n/a	catFR1	2	R1393T
768.097	1.616	792207	WORD	n/a	wordpools/wordpool_categorized_EN.txt	CAULIFLOWER	Vegetables	3	7	[0, 0, 0]	n/a	catFR1	2	R1393T
769.713	0.85	793824	WORD_OFF	n/a	n/a	CAULIFLOWER	Vegetables	3	7	[0, 0, 0]	n/a	catFR1	2	R1393T
770.563	1.617	794674	WORD	n/a	wordpools/wordpool_categorized_EN.txt	PEAS	Vegetables	4	7	[0, 0, 0]	n/a	catFR1	2	R1393T
772.18	0.95	796292	WORD_OFF	n/a	n/a	PEAS	Vegetables	4	7	[0, 0, 0]	n/a	catFR1	2	R1393T
773.13	1.617	797242	WORD	n/a	wordpools/wordpool_categorized_EN.txt	DRUM	Instruments	5	7	[0, 0, 0]	n/a	catFR1	2	R1393T
774.747	0.816	798859	WORD_OFF	n/a	n/a	DRUM	Instruments	5	7	[0, 0, 0]	n/a	catFR1	2	R1393T
775.563	1.617	799676	WORD	n/a	wordpools/wordpool_categorized_EN.txt	GUITAR	Instruments	6	7	[0, 0, 0]	n/a	catFR1	2	R1393T
777.18	0.867	801293	WORD_OFF	n/a	n/a	GUITAR	Instruments	6	7	[0, 0, 0]	n/a	catFR1	2	R1393T
778.047	1.616	802160	WORD	n/a	wordpools/wordpool_categorized_EN.txt	LEVEL	Tools	7	7	[0, 0, 0]	n/a	catFR1	2	R1393T
779.663	0.934	803777	WORD_OFF	n/a	n/a	LEVEL	Tools	7	7	[0, 0, 0]	n/a	catFR1	2	R1393T
780.597	1.616	804703	WORD	n/a	wordpools/wordpool_categorized_EN.txt	HAMMER	Tools	8	7	[0, 0, 0]	n/a	catFR1	2	R1393T
782.213	0.901	806320	WORD_OFF	n/a	n/a	HAMMER	Tools	8	7	[0, 0, 0]	n/a	catFR1	2	R1393T
783.114	1.6	807220	WORD	n/a	wordpools/wordpool_categorized_EN.txt	ONION	Vegetables	9	7	[0, 0, 0]	n/a	catFR1	2	R1393T
784.714	0.866	808821	WORD_OFF	n/a	n/a	ONION	Vegetables	9	7	[0, 0, 0]	n/a	catFR1	2	R1393T
785.58	1.601	809688	WORD	n/a	wordpools/wordpool_categorized_EN.txt	SPINACH	Vegetables	10	7	[0, 0, 0]	n/a	catFR1	2	R1393T
787.181	0.85	811288	WORD_OFF	n/a	n/a	SPINACH	Vegetables	10	7	[0, 0, 0]	n/a	catFR1	2	R1393T
788.031	1.6	812139	WORD	n/a	wordpools/wordpool_categorized_EN.txt	BANJO	Instruments	11	7	[0, 0, 0]	n/a	catFR1	2	R1393T
789.631	1.0	813739	WORD_OFF	n/a	n/a	BANJO	Instruments	11	7	[0, 0, 0]	n/a	catFR1	2	R1393T
790.631	1.6	814740	WORD	n/a	wordpools/wordpool_categorized_EN.txt	BASS	Instruments	12	7	[0, 0, 0]	n/a	catFR1	2	R1393T
792.231	0.0	816340	WORD_OFF	n/a	n/a	BASS	Instruments	12	7	[0, 0, 0]	n/a	catFR1	2	R1393T
792.231	0.005	816340	PROB	13.916	n/a	n/a	n/a	-999	7	[2, 8, 5]	14.0	catFR1	2	R1393T
792.236	0.0	816345	START	n/a	n/a	n/a	n/a	-999	7	[-999, -999, -999]	n/a	catFR1	2	R1393T
792.236	0.0	816348	ENCODING_END	n/a	n/a	n/a	n/a	-999	7	[0, 0, 0]	n/a	catFR1	2	R1393T
792.236	13.929	816348	DISTRACT_START	n/a	n/a	n/a	n/a	-999	7	[0, 0, 0]	n/a	catFR1	2	R1393T
806.165	9.532	830274	PROB	9.516	n/a	n/a	n/a	-999	7	[3, 7, 4]	14.0	catFR1	2	R1393T
815.697	0.0	839805	STOP	n/a	n/a	n/a	n/a	-999	7	[-999, -999, -999]	n/a	catFR1	2	R1393T
815.697	1.067	839806	DISTRACT_END	n/a	n/a	n/a	n/a	-999	7	[0, 0, 0]	n/a	catFR1	2	R1393T
816.764	3.644	840873	REC_START	n/a	n/a	n/a	n/a	-999	7	[0, 0, 0]	n/a	catFR1	2	R1393T
820.408	1.126	844516	REC_WORD	3.644	n/a	DRUM	Instruments	5	7	[0, 0, 0]	n/a	catFR1	2	R1393T
821.534	5.054	845642	REC_WORD	4.77	n/a	CELLO	Instruments	-999	7	[0, 0, 0]	n/a	catFR1	2	R1393T
826.588	18.475	850695	REC_WORD	9.824	n/a	TROMBONE	Instruments	-999	7	[0, 0, 0]	n/a	catFR1	2	R1393T
845.063	1.939	869170	REC_WORD	28.299	n/a	TROMBONE	Instruments	-999	7	[0, 0, 0]	n/a	catFR1	2	R1393T
847.002	4.329	871108	REC_END	n/a	n/a	n/a	n/a	-999	7	[0, 0, 0]	n/a	catFR1	2	R1393T
851.331	10.35	875443	COUNTDOWN_START	n/a	n/a	n/a	n/a	-999	8	[0, 0, 0]	n/a	catFR1	2	R1393T
861.681	0.001	885788	COUNTDOWN_END	n/a	n/a	n/a	n/a	-999	8	[0, 0, 0]	n/a	catFR1	2	R1393T
861.682	2.116	885788	ENCODING_START	n/a	n/a	n/a	n/a	-999	8	[0, 0, 0]	n/a	catFR1	2	R1393T
863.798	1.616	887906	WORD	n/a	wordpools/wordpool_categorized_EN.txt	CORN	Vegetables	1	8	[0, 0, 0]	n/a	catFR1	2	R1393T
865.414	0.917	889523	WORD_OFF	n/a	n/a	CORN	Vegetables	1	8	[0, 0, 0]	n/a	catFR1	2	R1393T
866.331	1.6	890440	WORD	n/a	wordpools/wordpool_categorized_EN.txt	CELERY	Vegetables	2	8	[0, 0, 0]	n/a	catFR1	2	R1393T
867.931	0.882	892040	WORD_OFF	n/a	n/a	CELERY	Vegetables	2	8	[0, 0, 0]	n/a	catFR1	2	R1393T
868.813	1.601	892916	WORD	n/a	wordpools/wordpool_categorized_EN.txt	OCEAN	Landscapes	3	8	[0, 0, 0]	n/a	catFR1	2	R1393T
870.414	0.8	894516	WORD_OFF	n/a	n/a	OCEAN	Landscapes	3	8	[0, 0, 0]	n/a	catFR1	2	R1393T
871.214	1.599	895317	WORD	n/a	wordpools/wordpool_categorized_EN.txt	CREEK	Landscapes	4	8	[0, 0, 0]	n/a	catFR1	2	R1393T
872.813	0.85	896917	WORD_OFF	n/a	n/a	CREEK	Landscapes	4	8	[0, 0, 0]	n/a	catFR1	2	R1393T
873.663	1.618	897767	WORD	n/a	wordpools/wordpool_categorized_EN.txt	BINDER	Officesupplies	5	8	[0, 0, 0]	n/a	catFR1	2	R1393T
875.281	0.882	899385	WORD_OFF	n/a	n/a	BINDER	Officesupplies	5	8	[0, 0, 0]	n/a	catFR1	2	R1393T
876.163	1.617	900268	WORD	n/a	wordpools/wordpool_categorized_EN.txt	RULER	Officesupplies	6	8	[0, 0, 0]	n/a	catFR1	2	R1393T
877.78	0.85	901885	WORD_OFF	n/a	n/a	RULER	Officesupplies	6	8	[0, 0, 0]	n/a	catFR1	2	R1393T
878.63	1.601	902736	WORD	n/a	wordpools/wordpool_categorized_EN.txt	BEACH	Landscapes	7	8	[0, 0, 0]	n/a	catFR1	2	R1393T
880.231	0.883	904336	WORD_OFF	n/a	n/a	BEACH	Landscapes	7	8	[0, 0, 0]	n/a	catFR1	2	R1393T
881.114	1.617	905220	WORD	n/a	wordpools/wordpool_categorized_EN.txt	FOREST	Landscapes	8	8	[0, 0, 0]	n/a	catFR1	2	R1393T
882.731	0.799	906837	WORD_OFF	n/a	n/a	FOREST	Landscapes	8	8	[0, 0, 0]	n/a	catFR1	2	R1393T
883.53	1.601	907637	WORD	n/a	wordpools/wordpool_categorized_EN.txt	CABBAGE	Vegetables	9	8	[0, 0, 0]	n/a	catFR1	2	R1393T
885.131	0.9	909238	WORD_OFF	n/a	n/a	CABBAGE	Vegetables	9	8	[0, 0, 0]	n/a	catFR1	2	R1393T
886.031	1.6	910138	WORD	n/a	wordpools/wordpool_categorized_EN.txt	BROCCOLI	Vegetables	10	8	[0, 0, 0]	n/a	catFR1	2	R1393T
887.631	0.849	911739	WORD_OFF	n/a	n/a	BROCCOLI	Vegetables	10	8	[0, 0, 0]	n/a	catFR1	2	R1393T
888.48	1.601	912581	WORD	n/a	wordpools/wordpool_categorized_EN.txt	NOTEBOOK	Officesupplies	11	8	[0, 0, 0]	n/a	catFR1	2	R1393T
890.081	0.899	914190	WORD_OFF	n/a	n/a	NOTEBOOK	Officesupplies	11	8	[0, 0, 0]	n/a	catFR1	2	R1393T
890.98	1.6	915081	WORD	n/a	wordpools/wordpool_categorized_EN.txt	MARKER	Officesupplies	12	8	[0, 0, 0]	n/a	catFR1	2	R1393T
892.58	0.001	916682	WORD_OFF	n/a	n/a	MARKER	Officesupplies	12	8	[0, 0, 0]	n/a	catFR1	2	R1393T
892.581	0.001	916685	PROB	6.817	n/a	n/a	n/a	-999	8	[8, 4, 8]	20.0	catFR1	2	R1393T
892.582	0.0	916686	START	n/a	n/a	n/a	n/a	-999	8	[-999, -999, -999]	n/a	catFR1	2	R1393T
892.582	0.0	916690	ENCODING_END	n/a	n/a	n/a	n/a	-999	8	[0, 0, 0]	n/a	catFR1	2	R1393T
892.582	6.832	916690	DISTRACT_START	n/a	n/a	n/a	n/a	-999	8	[0, 0, 0]	n/a	catFR1	2	R1393T
899.414	4.651	923518	PROB	4.633	n/a	n/a	n/a	-999	8	[2, 2, 3]	7.0	catFR1	2	R1393T
904.065	6.399	928168	PROB	6.383	n/a	n/a	n/a	-999	8	[7, 6, 7]	20.0	catFR1	2	R1393T
910.464	6.917	934567	PROB	6.9	n/a	n/a	n/a	-999	8	[7, 1, 2]	10.0	catFR1	2	R1393T
917.381	0.0	941482	DISTRACT_END	n/a	n/a	n/a	n/a	-999	8	[0, 0, 0]	n/a	catFR1	2	R1393T
917.381	1.216	941484	STOP	n/a	n/a	n/a	n/a	-999	8	[-999, -999, -999]	n/a	catFR1	2	R1393T
918.597	7.24	942699	REC_START	n/a	n/a	n/a	n/a	-999	8	[0, 0, 0]	n/a	catFR1	2	R1393T
925.837	16.4	949939	REC_WORD	7.24	n/a	RULER	Officesupplies	6	8	[0, 0, 0]	n/a	catFR1	2	R1393T
942.237	6.6	966339	REC_WORD	23.64	n/a	HICKORY	n/a	-999	8	[0, 0, 0]	n/a	catFR1	2	R1393T
948.837	3.394	972943	REC_END	n/a	n/a	n/a	n/a	-999	8	[0, 0, 0]	n/a	catFR1	2	R1393T
952.231	10.349	976335	COUNTDOWN_START	n/a	n/a	n/a	n/a	-999	9	[0, 0, 0]	n/a	catFR1	2	R1393T
962.58	0.001	986681	COUNTDOWN_END	n/a	n/a	n/a	n/a	-999	9	[0, 0, 0]	n/a	catFR1	2	R1393T
962.581	2.017	986681	ENCODING_START	n/a	n/a	n/a	n/a	-999	9	[0, 0, 0]	n/a	catFR1	2	R1393T
964.598	1.616	988698	WORD	n/a	wordpools/wordpool_categorized_EN.txt	COAT	Clothing	1	9	[0, 0, 0]	n/a	catFR1	2	R1393T
966.214	0.783	990323	WORD_OFF	n/a	n/a	COAT	Clothing	1	9	[0, 0, 0]	n/a	catFR1	2	R1393T
966.997	1.617	991099	WORD	n/a	wordpools/wordpool_categorized_EN.txt	UNDERWEAR	Clothing	2	9	[0, 0, 0]	n/a	catFR1	2	R1393T
968.614	0.866	992716	WORD_OFF	n/a	n/a	UNDERWEAR	Clothing	2	9	[0, 0, 0]	n/a	catFR1	2	R1393T
969.48	1.6	993583	WORD	n/a	wordpools/wordpool_categorized_EN.txt	CORKSCREW	Kitchentools	3	9	[0, 0, 0]	n/a	catFR1	2	R1393T
971.08	0.784	995183	WORD_OFF	n/a	n/a	CORKSCREW	Kitchentools	3	9	[0, 0, 0]	n/a	catFR1	2	R1393T
971.864	1.616	995967	WORD	n/a	wordpools/wordpool_categorized_EN.txt	STRAINER	Kitchentools	4	9	[0, 0, 0]	n/a	catFR1	2	R1393T
973.48	0.884	997584	WORD_OFF	n/a	n/a	STRAINER	Kitchentools	4	9	[0, 0, 0]	n/a	catFR1	2	R1393T
974.364	1.616	998468	WORD	n/a	wordpools/wordpool_categorized_EN.txt	COLA	Beverages	5	9	[0, 0, 0]	n/a	catFR1	2	R1393T
975.98	1.001	1000085	WORD_OFF	n/a	n/a	COLA	Beverages	5	9	[0, 0, 0]	n/a	catFR1	2	R1393T
976.981	1.6	1001085	WORD	n/a	wordpools/wordpool_categorized_EN.txt	TEA	Beverages	6	9	[0, 0, 0]	n/a	catFR1	2	R1393T
978.581	0.967	1002678	WORD_OFF	n/a	n/a	TEA	Beverages	6	9	[0, 0, 0]	n/a	catFR1	2	R1393T
979.548	1.616	1003645	WORD	n/a	wordpools/wordpool_categorized_EN.txt	DRESS	Clothing	7	9	[0, 0, 0]	n/a	catFR1	2	R1393T
981.164	0.8	1005262	WORD_OFF	n/a	n/a	DRESS	Clothing	7	9	[0, 0, 0]	n/a	catFR1	2	R1393T
981.964	1.6	1006062	WORD	n/a	wordpools/wordpool_categorized_EN.txt	PANTS	Clothing	8	9	[0, 0, 0]	n/a	catFR1	2	R1393T
983.564	0.8	1007663	WORD_OFF	n/a	n/a	PANTS	Clothing	8	9	[0, 0, 0]	n/a	catFR1	2	R1393T
984.364	1.6	1008463	WORD	n/a	wordpools/wordpool_categorized_EN.txt	SPOON	Kitchentools	9	9	[0, 0, 0]	n/a	catFR1	2	R1393T
985.964	0.883	1010063	WORD_OFF	n/a	n/a	SPOON	Kitchentools	9	9	[0, 0, 0]	n/a	catFR1	2	R1393T
986.847	1.601	1010947	WORD	n/a	wordpools/wordpool_categorized_EN.txt	SPATULA	Kitchentools	10	9	[0, 0, 0]	n/a	catFR1	2	R1393T
988.448	0.833	1012548	WORD_OFF	n/a	n/a	SPATULA	Kitchentools	10	9	[0, 0, 0]	n/a	catFR1	2	R1393T
989.281	1.6	1013381	WORD	n/a	wordpools/wordpool_categorized_EN.txt	SODA	Beverages	11	9	[0, 0, 0]	n/a	catFR1	2	R1393T
990.881	0.833	1014982	WORD_OFF	n/a	n/a	SODA	Beverages	11	9	[0, 0, 0]	n/a	catFR1	2	R1393T
991.714	1.6	1015815	WORD	n/a	wordpools/wordpool_categorized_EN.txt	RUM	Beverages	12	9	[0, 0, 0]	n/a	catFR1	2	R1393T
993.314	0.002	1017413	PROB	7.033	n/a	n/a	n/a	-999	9	[7, 8, 5]	20.0	catFR1	2	R1393T
993.316	0.0	1017415	START	n/a	n/a	n/a	n/a	-999	9	[-999, -999, -999]	n/a	catFR1	2	R1393T
993.314	0.002	1017416	WORD_OFF	n/a	n/a	RUM	Beverages	12	9	[0, 0, 0]	n/a	catFR1	2	R1393T
993.316	0.0	1017416	ENCODING_END	n/a	n/a	n/a	n/a	-999	9	[0, 0, 0]	n/a	catFR1	2	R1393T
993.316	7.048	1017416	DISTRACT_START	n/a	n/a	n/a	n/a	-999	9	[0, 0, 0]	n/a	catFR1	2	R1393T
1000.364	6.167	1024462	PROB	6.15	n/a	n/a	n/a	-999	9	[1, 6, 5]	12.0	catFR1	2	R1393T
1006.531	5.467	1030629	PROB	5.45	n/a	n/a	n/a	-999	9	[1, 3, 7]	11.0	catFR1	2	R1393T
1011.998	7.233	1036096	PROB	7.216	n/a	n/a	n/a	-999	9	[8, 5, 6]	19.0	catFR1	2	R1393T
1019.231	0.0	1043329	STOP	n/a	n/a	n/a	n/a	-999	9	[-999, -999, -999]	n/a	catFR1	2	R1393T
1019.231	1.283	1043333	DISTRACT_END	n/a	n/a	n/a	n/a	-999	9	[0, 0, 0]	n/a	catFR1	2	R1393T
1020.514	6.563	1044608	REC_START	n/a	n/a	n/a	n/a	-999	9	[0, 0, 0]	n/a	catFR1	2	R1393T
1027.077	3.214	1051174	REC_WORD	6.563	n/a	RUM	Beverages	12	9	[0, 0, 0]	n/a	catFR1	2	R1393T
1030.291	9.265	1054388	REC_WORD	9.777	n/a	PANTS	Clothing	8	9	[0, 0, 0]	n/a	catFR1	2	R1393T
1039.556	8.212	1063652	REC_WORD	19.042	n/a	COLA	Beverages	5	9	[0, 0, 0]	n/a	catFR1	2	R1393T
1047.768	2.999	1071864	REC_WORD	27.254	n/a	BELT	n/a	-999	9	[0, 0, 0]	n/a	catFR1	2	R1393T
1050.767	2.03	1074868	REC_END	n/a	n/a	n/a	n/a	-999	9	[0, 0, 0]	n/a	catFR1	2	R1393T
1052.797	10.352	1076894	COUNTDOWN_START	n/a	n/a	n/a	n/a	-999	10	[0, 0, 0]	n/a	catFR1	2	R1393T
1063.149	0.0	1087248	COUNTDOWN_END	n/a	n/a	n/a	n/a	-999	10	[0, 0, 0]	n/a	catFR1	2	R1393T
1063.149	2.215	1087248	ENCODING_START	n/a	n/a	n/a	n/a	-999	10	[0, 0, 0]	n/a	catFR1	2	R1393T
1065.364	1.617	1089457	WORD	n/a	wordpools/wordpool_categorized_EN.txt	WINE	Beverages	1	10	[0, 0, 0]	n/a	catFR1	2	R1393T
1066.981	0.95	1091074	WORD_OFF	n/a	n/a	WINE	Beverages	1	10	[0, 0, 0]	n/a	catFR1	2	R1393T
1067.931	1.6	1092024	WORD	n/a	wordpools/wordpool_categorized_EN.txt	LEMONADE	Beverages	2	10	[0, 0, 0]	n/a	catFR1	2	R1393T
1069.531	0.932	1093625	WORD_OFF	n/a	n/a	LEMONADE	Beverages	2	10	[0, 0, 0]	n/a	catFR1	2	R1393T
1070.463	1.6	1094558	WORD	n/a	wordpools/wordpool_categorized_EN.txt	SHOES	Clothing	3	10	[0, 0, 0]	n/a	catFR1	2	R1393T
1072.063	0.851	1096159	WORD_OFF	n/a	n/a	SHOES	Clothing	3	10	[0, 0, 0]	n/a	catFR1	2	R1393T
1072.914	1.6	1097009	WORD	n/a	wordpools/wordpool_categorized_EN.txt	SKIRT	Clothing	4	10	[0, 0, 0]	n/a	catFR1	2	R1393T
1074.514	0.966	1098610	WORD_OFF	n/a	n/a	SKIRT	Clothing	4	10	[0, 0, 0]	n/a	catFR1	2	R1393T
1075.48	1.601	1099577	WORD	n/a	wordpools/wordpool_categorized_EN.txt	MOUSSE	Desserts	5	10	[0, 0, 0]	n/a	catFR1	2	R1393T
1077.081	0.982	1101177	WORD_OFF	n/a	n/a	MOUSSE	Desserts	5	10	[0, 0, 0]	n/a	catFR1	2	R1393T
1078.063	1.618	1102161	WORD	n/a	wordpools/wordpool_categorized_EN.txt	CUPCAKE	Desserts	6	10	[0, 0, 0]	n/a	catFR1	2	R1393T
1079.681	0.983	1103778	WORD_OFF	n/a	n/a	CUPCAKE	Desserts	6	10	[0, 0, 0]	n/a	catFR1	2	R1393T
1080.664	1.617	1104762	WORD	n/a	wordpools/wordpool_categorized_EN.txt	SHORTS	Clothing	7	10	[0, 0, 0]	n/a	catFR1	2	R1393T
1082.281	0.933	1106379	WORD_OFF	n/a	n/a	SHORTS	Clothing	7	10	[0, 0, 0]	n/a	catFR1	2	R1393T
1083.214	1.6	1107313	WORD	n/a	wordpools/wordpool_categorized_EN.txt	SOCKS	Clothing	8	10	[0, 0, 0]	n/a	catFR1	2	R1393T
1084.814	0.95	1108905	WORD_OFF	n/a	n/a	SOCKS	Clothing	8	10	[0, 0, 0]	n/a	catFR1	2	R1393T
1085.764	1.617	1109855	WORD	n/a	wordpools/wordpool_categorized_EN.txt	PASTRY	Desserts	9	10	[0, 0, 0]	n/a	catFR1	2	R1393T
1087.381	0.933	1111472	WORD_OFF	n/a	n/a	PASTRY	Desserts	9	10	[0, 0, 0]	n/a	catFR1	2	R1393T
1088.314	1.6	1112406	WORD	n/a	wordpools/wordpool_categorized_EN.txt	PIE	Desserts	10	10	[0, 0, 0]	n/a	catFR1	2	R1393T
1089.914	0.85	1114007	WORD_OFF	n/a	n/a	PIE	Desserts	10	10	[0, 0, 0]	n/a	catFR1	2	R1393T
1090.764	1.6	1114857	WORD	n/a	wordpools/wordpool_categorized_EN.txt	WATER	Beverages	11	10	[0, 0, 0]	n/a	catFR1	2	R1393T
1092.364	0.983	1116457	WORD_OFF	n/a	n/a	WATER	Beverages	11	10	[0, 0, 0]	n/a	catFR1	2	R1393T
1093.347	1.6	1117441	WORD	n/a	wordpools/wordpool_categorized_EN.txt	BEER	Beverages	12	10	[0, 0, 0]	n/a	catFR1	2	R1393T
1094.947	0.002	1119042	WORD_OFF	n/a	n/a	BEER	Beverages	12	10	[0, 0, 0]	n/a	catFR1	2	R1393T
1094.949	0.0	1119042	ENCODING_END	n/a	n/a	n/a	n/a	-999	10	[0, 0, 0]	n/a	catFR1	2	R1393T
1094.949	0.0	1119042	DISTRACT_START	n/a	n/a	n/a	n/a	-999	10	[0, 0, 0]	n/a	catFR1	2	R1393T
1094.948	0.001	1119042	PROB	6.932	n/a	n/a	n/a	-999	10	[1, 7, 3]	11.0	catFR1	2	R1393T
1094.949	6.949	1119043	START	n/a	n/a	n/a	n/a	-999	10	[-999, -999, -999]	n/a	catFR1	2	R1393T
1101.898	4.384	1125991	PROB	4.366	n/a	n/a	n/a	-999	10	[1, 6, 4]	11.0	catFR1	2	R1393T
1106.282	10.015	1130375	PROB	9.999	n/a	n/a	n/a	-999	10	[6, 7, 4]	17.0	catFR1	2	R1393T
1116.297	0.0	1140390	DISTRACT_END	n/a	n/a	n/a	n/a	-999	10	[0, 0, 0]	n/a	catFR1	2	R1393T
1116.297	1.333	1140390	STOP	n/a	n/a	n/a	n/a	-999	10	[-999, -999, -999]	n/a	catFR1	2	R1393T
1117.63	11.427	1141724	REC_START	n/a	n/a	n/a	n/a	-999	10	[0, 0, 0]	n/a	catFR1	2	R1393T
1129.057	11.985	1153149	REC_WORD	11.427	n/a	DRINK	n/a	-999	10	[0, 0, 0]	n/a	catFR1	2	R1393T
1141.042	6.832	1165133	REC_WORD	23.412	n/a	WINE	Beverages	1	10	[0, 0, 0]	n/a	catFR1	2	R1393T
1147.874	2.707	1171968	REC_END	n/a	n/a	n/a	n/a	-999	10	[0, 0, 0]	n/a	catFR1	2	R1393T
1150.581	10.35	1174677	COUNTDOWN_START	n/a	n/a	n/a	n/a	-999	11	[0, 0, 0]	n/a	catFR1	2	R1393T
1160.931	0.001	1185022	COUNTDOWN_END	n/a	n/a	n/a	n/a	-999	11	[0, 0, 0]	n/a	catFR1	2	R1393T
1160.932	2.181	1185022	ENCODING_START	n/a	n/a	n/a	n/a	-999	11	[0, 0, 0]	n/a	catFR1	2	R1393T
1163.113	1.601	1187206	WORD	n/a	wordpools/wordpool_categorized_EN.txt	JEEP	Vehicles	1	11	[0, 0, 0]	n/a	catFR1	2	R1393T
1164.714	0.783	1188807	WORD_OFF	n/a	n/a	JEEP	Vehicles	1	11	[0, 0, 0]	n/a	catFR1	2	R1393T
1165.497	1.617	1189590	WORD	n/a	wordpools/wordpool_categorized_EN.txt	BOAT	Vehicles	2	11	[0, 0, 0]	n/a	catFR1	2	R1393T
1167.114	0.783	1191207	WORD_OFF	n/a	n/a	BOAT	Vehicles	2	11	[0, 0, 0]	n/a	catFR1	2	R1393T
1167.897	1.6	1191991	WORD	n/a	wordpools/wordpool_categorized_EN.txt	HILLS	Landscapes	3	11	[0, 0, 0]	n/a	catFR1	2	R1393T
1169.497	0.984	1193592	WORD_OFF	n/a	n/a	HILLS	Landscapes	3	11	[0, 0, 0]	n/a	catFR1	2	R1393T
1170.481	1.616	1194575	WORD	n/a	wordpools/wordpool_categorized_EN.txt	VALLEY	Landscapes	4	11	[0, 0, 0]	n/a	catFR1	2	R1393T
1172.097	0.95	1196184	WORD_OFF	n/a	n/a	VALLEY	Landscapes	4	11	[0, 0, 0]	n/a	catFR1	2	R1393T
1173.047	1.6	1197134	WORD	n/a	wordpools/wordpool_categorized_EN.txt	FORK	Kitchentools	5	11	[0, 0, 0]	n/a	catFR1	2	R1393T
1174.647	0.85	1198735	WORD_OFF	n/a	n/a	FORK	Kitchentools	5	11	[0, 0, 0]	n/a	catFR1	2	R1393T
1175.497	1.6	1199585	WORD	n/a	wordpools/wordpool_categorized_EN.txt	WHISK	Kitchentools	6	11	[0, 0, 0]	n/a	catFR1	2	R1393T
1177.097	0.768	1201194	WORD_OFF	n/a	n/a	WHISK	Kitchentools	6	11	[0, 0, 0]	n/a	catFR1	2	R1393T
1177.865	1.599	1201953	WORD	n/a	wordpools/wordpool_categorized_EN.txt	MOUNTAIN	Landscapes	7	11	[0, 0, 0]	n/a	catFR1	2	R1393T
1179.464	0.767	1203553	WORD_OFF	n/a	n/a	MOUNTAIN	Landscapes	7	11	[0, 0, 0]	n/a	catFR1	2	R1393T
1180.231	1.616	1204320	WORD	n/a	wordpools/wordpool_categorized_EN.txt	ISLAND	Landscapes	8	11	[0, 0, 0]	n/a	catFR1	2	R1393T
1181.847	0.834	1205937	WORD_OFF	n/a	n/a	ISLAND	Landscapes	8	11	[0, 0, 0]	n/a	catFR1	2	R1393T
1182.681	1.6	1206771	WORD	n/a	wordpools/wordpool_categorized_EN.txt	MOPED	Vehicles	9	11	[0, 0, 0]	n/a	catFR1	2	R1393T
1184.281	1.0	1208372	WORD_OFF	n/a	n/a	MOPED	Vehicles	9	11	[0, 0, 0]	n/a	catFR1	2	R1393T
1185.281	1.6	1209372	WORD	n/a	wordpools/wordpool_categorized_EN.txt	TRUCK	Vehicles	10	11	[0, 0, 0]	n/a	catFR1	2	R1393T
1186.881	0.799	1210972	WORD_OFF	n/a	n/a	TRUCK	Vehicles	10	11	[0, 0, 0]	n/a	catFR1	2	R1393T
1187.68	1.6	1211773	WORD	n/a	wordpools/wordpool_categorized_EN.txt	COLANDER	Kitchentools	11	11	[0, 0, 0]	n/a	catFR1	2	R1393T
1189.28	0.884	1213373	WORD_OFF	n/a	n/a	COLANDER	Kitchentools	11	11	[0, 0, 0]	n/a	catFR1	2	R1393T
1190.164	1.617	1214257	WORD	n/a	wordpools/wordpool_categorized_EN.txt	GRATER	Kitchentools	12	11	[0, 0, 0]	n/a	catFR1	2	R1393T
1191.781	0.001	1215870	PROB	7.783	n/a	n/a	n/a	-999	11	[7, 4, 6]	17.0	catFR1	2	R1393T
1191.782	0.0	1215871	START	n/a	n/a	n/a	n/a	-999	11	[-999, -999, -999]	n/a	catFR1	2	R1393T
1191.781	0.001	1215874	WORD_OFF	n/a	n/a	GRATER	Kitchentools	12	11	[0, 0, 0]	n/a	catFR1	2	R1393T
1191.782	0.0	1215874	ENCODING_END	n/a	n/a	n/a	n/a	-999	11	[0, 0, 0]	n/a	catFR1	2	R1393T
1191.782	7.799	1215874	DISTRACT_START	n/a	n/a	n/a	n/a	-999	11	[0, 0, 0]	n/a	catFR1	2	R1393T
1199.581	9.95	1223669	PROB	9.933	n/a	n/a	n/a	-999	11	[6, 3, 4]	13.0	catFR1	2	R1393T
1209.531	6.366	1233619	PROB	6.349	n/a	n/a	n/a	-999	11	[7, 8, 8]	23.0	catFR1	2	R1393T
1215.897	0.0	1239982	DISTRACT_END	n/a	n/a	n/a	n/a	-999	11	[0, 0, 0]	n/a	catFR1	2	R1393T
1215.897	1.383	1239984	STOP	n/a	n/a	n/a	n/a	-999	11	[-999, -999, -999]	n/a	catFR1	2	R1393T
1217.28	3.638	1241366	REC_START	n/a	n/a	n/a	n/a	-999	11	[0, 0, 0]	n/a	catFR1	2	R1393T
1220.918	1.296	1245005	REC_WORD	3.638	n/a	TRUCK	Vehicles	10	11	[0, 0, 0]	n/a	catFR1	2	R1393T
1222.214	4.23	1246301	REC_WORD	4.934	n/a	JEEP	Vehicles	1	11	[0, 0, 0]	n/a	catFR1	2	R1393T
1226.444	21.058	1250531	REC_WORD	9.164	n/a	HILLS	Landscapes	3	11	[0, 0, 0]	n/a	catFR1	2	R1393T
1247.502	2.546	1271584	REC_END	n/a	n/a	n/a	n/a	-999	11	[0, 0, 0]	n/a	catFR1	2	R1393T
1250.048	10.35	1274135	COUNTDOWN_START	n/a	n/a	n/a	n/a	-999	12	[0, 0, 0]	n/a	catFR1	2	R1393T
1260.398	0.0	1284480	COUNTDOWN_END	n/a	n/a	n/a	n/a	-999	12	[0, 0, 0]	n/a	catFR1	2	R1393T
1260.398	2.233	1284489	ENCODING_START	n/a	n/a	n/a	n/a	-999	12	[0, 0, 0]	n/a	catFR1	2	R1393T
1262.631	1.616	1286714	WORD	n/a	wordpools/wordpool_categorized_EN.txt	PEELER	Kitchentools	1	12	[0, 0, 0]	n/a	catFR1	2	R1393T
1264.247	0.951	1288332	WORD_OFF	n/a	n/a	PEELER	Kitchentools	1	12	[0, 0, 0]	n/a	catFR1	2	R1393T
1265.198	1.6	1289282	WORD	n/a	wordpools/wordpool_categorized_EN.txt	TONGS	Kitchentools	2	12	[0, 0, 0]	n/a	catFR1	2	R1393T
1266.798	0.766	1290883	WORD_OFF	n/a	n/a	TONGS	Kitchentools	2	12	[0, 0, 0]	n/a	catFR1	2	R1393T
1267.564	1.617	1291649	WORD	n/a	wordpools/wordpool_categorized_EN.txt	VIOLIN	Instruments	3	12	[0, 0, 0]	n/a	catFR1	2	R1393T
1269.181	0.933	1293267	WORD_OFF	n/a	n/a	VIOLIN	Instruments	3	12	[0, 0, 0]	n/a	catFR1	2	R1393T
1270.114	1.6	1294200	WORD	n/a	wordpools/wordpool_categorized_EN.txt	PIANO	Instruments	4	12	[0, 0, 0]	n/a	catFR1	2	R1393T
1271.714	0.8	1295801	WORD_OFF	n/a	n/a	PIANO	Instruments	4	12	[0, 0, 0]	n/a	catFR1	2	R1393T
1272.514	1.6	1296601	WORD	n/a	wordpools/wordpool_categorized_EN.txt	ZEBRA	Zoo	5	12	[0, 0, 0]	n/a	catFR1	2	R1393T
1274.114	0.783	1298202	WORD_OFF	n/a	n/a	ZEBRA	Zoo	5	12	[0, 0, 0]	n/a	catFR1	2	R1393T
1274.897	1.6	1298985	WORD	n/a	wordpools/wordpool_categorized_EN.txt	ORANGUTAN	Zoo	6	12	[0, 0, 0]	n/a	catFR1	2	R1393T
1276.497	0.884	1300586	WORD_OFF	n/a	n/a	ORANGUTAN	Zoo	6	12	[0, 0, 0]	n/a	catFR1	2	R1393T
1277.381	1.616	1301469	WORD	n/a	wordpools/wordpool_categorized_EN.txt	LADLE	Kitchentools	7	12	[0, 0, 0]	n/a	catFR1	2	R1393T
1278.997	0.817	1303078	WORD_OFF	n/a	n/a	LADLE	Kitchentools	7	12	[0, 0, 0]	n/a	catFR1	2	R1393T
1279.814	1.6	1303895	WORD	n/a	wordpools/wordpool_categorized_EN.txt	KNIFE	Kitchentools	8	12	[0, 0, 0]	n/a	catFR1	2	R1393T
1281.414	0.917	1305496	WORD_OFF	n/a	n/a	KNIFE	Kitchentools	8	12	[0, 0, 0]	n/a	catFR1	2	R1393T
1282.331	1.6	1306413	WORD	n/a	wordpools/wordpool_categorized_EN.txt	ELEPHANT	Zoo	9	12	[0, 0, 0]	n/a	catFR1	2	R1393T
1283.931	0.783	1308013	WORD_OFF	n/a	n/a	ELEPHANT	Zoo	9	12	[0, 0, 0]	n/a	catFR1	2	R1393T
1284.714	1.6	1308797	WORD	n/a	wordpools/wordpool_categorized_EN.txt	GORILLA	Zoo	10	12	[0, 0, 0]	n/a	catFR1	2	R1393T
1286.314	0.967	1310397	WORD_OFF	n/a	n/a	GORILLA	Zoo	10	12	[0, 0, 0]	n/a	catFR1	2	R1393T
1287.281	1.6	1311364	WORD	n/a	wordpools/wordpool_categorized_EN.txt	FLUTE	Instruments	11	12	[0, 0, 0]	n/a	catFR1	2	R1393T
1288.881	0.783	1312965	WORD_OFF	n/a	n/a	FLUTE	Instruments	11	12	[0, 0, 0]	n/a	catFR1	2	R1393T
1289.664	1.6	1313749	WORD	n/a	wordpools/wordpool_categorized_EN.txt	TRUMPET	Instruments	12	12	[0, 0, 0]	n/a	catFR1	2	R1393T
1291.264	0.0	1315347	PROB	6.233	n/a	n/a	n/a	-999	12	[8, 6, 6]	20.0	catFR1	2	R1393T
1291.264	0.002	1315349	WORD_OFF	n/a	n/a	TRUMPET	Instruments	12	12	[0, 0, 0]	n/a	catFR1	2	R1393T
1291.266	0.0	1315349	ENCODING_END	n/a	n/a	n/a	n/a	-999	12	[0, 0, 0]	n/a	catFR1	2	R1393T
1291.266	0.0	1315349	DISTRACT_START	n/a	n/a	n/a	n/a	-999	12	[0, 0, 0]	n/a	catFR1	2	R1393T
1291.266	6.248	1315349	START	n/a	n/a	n/a	n/a	-999	12	[-999, -999, -999]	n/a	catFR1	2	R1393T
1297.514	8.067	1321597	PROB	8.05	n/a	n/a	n/a	-999	12	[6, 8, 5]	19.0	catFR1	2	R1393T
1305.581	9.482	1329664	PROB	9.466	n/a	n/a	n/a	-999	12	[8, 4, 7]	10.0	catFR1	2	R1393T
1315.063	0.0	1339145	STOP	n/a	n/a	n/a	n/a	-999	12	[-999, -999, -999]	n/a	catFR1	2	R1393T
1315.063	1.4	1339149	DISTRACT_END	n/a	n/a	n/a	n/a	-999	12	[0, 0, 0]	n/a	catFR1	2	R1393T
1316.463	5.138	1340549	REC_START	n/a	n/a	n/a	n/a	-999	12	[0, 0, 0]	n/a	catFR1	2	R1393T
1321.601	2.395	1345683	REC_WORD	5.138	n/a	FLUTE	Instruments	11	12	[0, 0, 0]	n/a	catFR1	2	R1393T
1323.996	7.837	1348078	REC_WORD	7.533	n/a	PIANO	Instruments	4	12	[0, 0, 0]	n/a	catFR1	2	R1393T
1331.833	14.867	1355914	REC_WORD	15.37	n/a	DRUM	Instruments	-999	12	[0, 0, 0]	n/a	catFR1	2	R1393T
1346.7	0.0	1370784	REC_END	n/a	n/a	n/a	n/a	-999	12	[0, 0, 0]	n/a	catFR1	2	R1393T
