onset	duration	sample	trial_type	response_time	stim_file	item_name	category	serialpos	list	test	answer	experiment	session	subject
0.0	58.463	229283	SESS_START	n/a	n/a	n/a	n/a	-999	-999	[0, 0, 0]	n/a	catFR1	0	R1144E
58.463	10.428	258512	COUNTDOWN_START	n/a	n/a	n/a	n/a	-999	-999	[0, 0, 0]	n/a	catFR1	0	R1144E
68.891	3.892	263726	COUNTDOWN_END	n/a	n/a	n/a	n/a	-999	-999	[0, 0, 0]	n/a	catFR1	0	R1144E
72.783	2.516	265672	PRACTICE_WORD	n/a	n/a	CHEST	n/a	-999	-999	[0, 0, 0]	n/a	catFR1	0	R1144E
75.299	2.469	266930	PRACTICE_WORD	n/a	n/a	CAMEL	n/a	-999	-999	[0, 0, 0]	n/a	catFR1	0	R1144E
77.768	2.449	268164	PRACTICE_WORD	n/a	n/a	COTTON	n/a	-999	-999	[0, 0, 0]	n/a	catFR1	0	R1144E
80.217	2.4	269388	PRACTICE_WORD	n/a	n/a	WATCH	n/a	-999	-999	[0, 0, 0]	n/a	catFR1	0	R1144E
82.617	2.401	270588	PRACTICE_WORD	n/a	n/a	IRON	n/a	-999	-999	[0, 0, 0]	n/a	catFR1	0	R1144E
85.018	2.5	271789	PRACTICE_WORD	n/a	n/a	WAGON	n/a	-999	-999	[0, 0, 0]	n/a	catFR1	0	R1144E
87.518	2.401	273039	PRACTICE_WORD	n/a	n/a	RING	n/a	-999	-999	[0, 0, 0]	n/a	catFR1	0	R1144E
89.919	2.633	274239	PRACTICE_WORD	n/a	n/a	ATTIC	n/a	-999	-999	[0, 0, 0]	n/a	catFR1	0	R1144E
92.552	2.601	275556	PRACTICE_WORD	n/a	n/a	FLOOD	n/a	-999	-999	[0, 0, 0]	n/a	catFR1	0	R1144E
95.153	2.618	276856	PRACTICE_WORD	n/a	n/a	BEAM	n/a	-999	-999	[0, 0, 0]	n/a	catFR1	0	R1144E
97.771	2.466	278165	PRACTICE_WORD	n/a	n/a	TONGUE	n/a	-999	-999	[0, 0, 0]	n/a	catFR1	0	R1144E
100.237	1.601	279398	PRACTICE_WORD	n/a	n/a	RHINO	n/a	-999	-999	[0, 0, 0]	n/a	catFR1	0	R1144E
101.838	0.0	280198	PRACTICE_DISTRACT_START	n/a	n/a	n/a	n/a	-999	-999	[0, 0, 0]	n/a	catFR1	0	R1144E
101.838	0.016	280198	START	n/a	n/a	n/a	n/a	-999	-1	[-999, -999, -999]	n/a	catFR1	0	R1144E
101.854	14.804	280206	PROB	14.767	n/a	n/a	n/a	-999	-1	[2, 4, 1]	7.0	catFR1	0	R1144E
116.658	8.587	287608	PROB	8.587	n/a	n/a	n/a	-999	-1	[1, 5, 8]	14.0	catFR1	0	R1144E
125.245	0.013	291901	STOP	n/a	n/a	n/a	n/a	-999	-1	[-999, -999, -999]	n/a	catFR1	0	R1144E
125.258	0.553	291907	PRACTICE_DISTRACT_END	n/a	n/a	n/a	n/a	-999	-999	[0, 0, 0]	n/a	catFR1	0	R1144E
125.811	30.514	292184	PRACTICE_REC_START	n/a	n/a	n/a	n/a	-999	-999	[0, 0, 0]	n/a	catFR1	0	R1144E
156.325	58.549	307440	PRACTICE_REC_END	n/a	n/a	n/a	n/a	-999	-999	[0, 0, 0]	n/a	catFR1	0	R1144E
214.874	0.0	336712	COUNTDOWN_START	n/a	n/a	n/a	n/a	-999	1	[0, 0, 0]	n/a	catFR1	0	R1144E
214.874	10.428	336712	TRIAL	n/a	n/a	n/a	n/a	-999	1	[0, 0, 0]	n/a	catFR1	0	R1144E
225.302	0.007	341926	COUNTDOWN_END	n/a	n/a	n/a	n/a	-999	1	[0, 0, 0]	n/a	catFR1	0	R1144E
225.309	3.768	341929	ORIENT	n/a	n/a	n/a	n/a	-999	1	[0, 0, 0]	n/a	catFR1	0	R1144E
229.077	2.4	343813	WORD	n/a	wordpools/wordpool_categorized_EN.txt	SEAGULL	Birds	1	1	[0, 0, 0]	n/a	catFR1	0	R1144E
231.477	2.484	345013	WORD	n/a	wordpools/wordpool_categorized_EN.txt	DOVE	Birds	2	1	[0, 0, 0]	n/a	catFR1	0	R1144E
233.961	2.617	346255	WORD	n/a	wordpools/wordpool_categorized_EN.txt	FINGERS	BodyParts	3	1	[0, 0, 0]	n/a	catFR1	0	R1144E
236.578	2.584	347564	WORD	n/a	wordpools/wordpool_categorized_EN.txt	NOSE	BodyParts	4	1	[0, 0, 0]	n/a	catFR1	0	R1144E
239.162	2.534	348856	WORD	n/a	wordpools/wordpool_categorized_EN.txt	PLUM	Fruit	5	1	[0, 0, 0]	n/a	catFR1	0	R1144E
241.696	2.5	350122	WORD	n/a	wordpools/wordpool_categorized_EN.txt	APPLE	Fruit	6	1	[0, 0, 0]	n/a	catFR1	0	R1144E
244.196	2.485	351372	WORD	n/a	wordpools/wordpool_categorized_EN.txt	HAND	BodyParts	7	1	[0, 0, 0]	n/a	catFR1	0	R1144E
246.681	2.399	352615	WORD	n/a	wordpools/wordpool_categorized_EN.txt	ELBOW	BodyParts	8	1	[0, 0, 0]	n/a	catFR1	0	R1144E
249.08	2.517	353814	WORD	n/a	wordpools/wordpool_categorized_EN.txt	HAWK	Birds	9	1	[0, 0, 0]	n/a	catFR1	0	R1144E
251.597	2.517	355073	WORD	n/a	wordpools/wordpool_categorized_EN.txt	ROBIN	Birds	10	1	[0, 0, 0]	n/a	catFR1	0	R1144E
254.114	2.417	356331	WORD	n/a	wordpools/wordpool_categorized_EN.txt	CHERRY	Fruit	11	1	[0, 0, 0]	n/a	catFR1	0	R1144E
256.531	1.617	357539	WORD	n/a	wordpools/wordpool_categorized_EN.txt	ORANGE	Fruit	12	1	[0, 0, 0]	n/a	catFR1	0	R1144E
258.148	0.001	358348	DISTRACT_START	n/a	n/a	n/a	n/a	-999	1	[0, 0, 0]	n/a	catFR1	0	R1144E
258.149	0.016	358348	START	n/a	n/a	n/a	n/a	-999	1	[-999, -999, -999]	n/a	catFR1	0	R1144E
258.165	17.32	358356	PROB	17.298	n/a	n/a	n/a	-999	1	[8, 7, 9]	24.0	catFR1	0	R1144E
275.485	62.827	367016	PROB	62.827	n/a	n/a	n/a	-999	1	[6, 9, 9]	24.0	catFR1	0	R1144E
338.312	0.017	398427	STOP	n/a	n/a	n/a	n/a	-999	1	[-999, -999, -999]	n/a	catFR1	0	R1144E
338.329	1.056	398436	DISTRACT_END	n/a	n/a	n/a	n/a	-999	1	[0, 0, 0]	n/a	catFR1	0	R1144E
339.385	7.675	398964	REC_START	n/a	n/a	n/a	n/a	-999	1	[0, 0, 0]	n/a	catFR1	0	R1144E
347.06	1.996	402801	REC_WORD	7.675	n/a	SEAGULL	Birds	1	1	[0, 0, 0]	n/a	catFR1	0	R1144E
349.056	2.122	403799	REC_WORD	9.671	n/a	HAWK	Birds	9	1	[0, 0, 0]	n/a	catFR1	0	R1144E
351.178	1.49	404860	REC_WORD	11.793	n/a	PLUM	Fruit	5	1	[0, 0, 0]	n/a	catFR1	0	R1144E
352.668	1.847	405605	REC_WORD	13.283	n/a	ORANGE	Fruit	12	1	[0, 0, 0]	n/a	catFR1	0	R1144E
354.515	14.875	406528	REC_WORD	15.13	n/a	FINGERS	BodyParts	3	1	[0, 0, 0]	n/a	catFR1	0	R1144E
369.39	42.069	413965	REC_END	n/a	n/a	n/a	n/a	-999	1	[0, 0, 0]	n/a	catFR1	0	R1144E
411.459	0.0	434998	TRIAL	n/a	n/a	n/a	n/a	-999	2	[0, 0, 0]	n/a	catFR1	0	R1144E
411.459	10.428	434998	COUNTDOWN_START	n/a	n/a	n/a	n/a	-999	2	[0, 0, 0]	n/a	catFR1	0	R1144E
421.887	0.007	440212	COUNTDOWN_END	n/a	n/a	n/a	n/a	-999	2	[0, 0, 0]	n/a	catFR1	0	R1144E
421.894	3.617	440215	ORIENT	n/a	n/a	n/a	n/a	-999	2	[0, 0, 0]	n/a	catFR1	0	R1144E
425.511	2.534	442024	WORD	n/a	wordpools/wordpool_categorized_EN.txt	PETUNIA	Flowers	1	2	[0, 0, 0]	n/a	catFR1	0	R1144E
428.045	2.534	443291	WORD	n/a	wordpools/wordpool_categorized_EN.txt	MARIGOLD	Flowers	2	2	[0, 0, 0]	n/a	catFR1	0	R1144E
430.579	2.4	444557	WORD	n/a	wordpools/wordpool_categorized_EN.txt	LEVEL	Tools	3	2	[0, 0, 0]	n/a	catFR1	0	R1144E
432.979	2.467	445757	WORD	n/a	wordpools/wordpool_categorized_EN.txt	PLIERS	Tools	4	2	[0, 0, 0]	n/a	catFR1	0	R1144E
435.446	2.385	446991	WORD	n/a	wordpools/wordpool_categorized_EN.txt	VIOLIN	Instruments	5	2	[0, 0, 0]	n/a	catFR1	0	R1144E
437.831	2.499	448183	WORD	n/a	wordpools/wordpool_categorized_EN.txt	ORGAN	Instruments	6	2	[0, 0, 0]	n/a	catFR1	0	R1144E
440.33	2.517	449433	WORD	n/a	wordpools/wordpool_categorized_EN.txt	CARNATION	Flowers	7	2	[0, 0, 0]	n/a	catFR1	0	R1144E
442.847	2.468	450691	WORD	n/a	wordpools/wordpool_categorized_EN.txt	VIOLET	Flowers	8	2	[0, 0, 0]	n/a	catFR1	0	R1144E
445.315	2.418	451925	WORD	n/a	wordpools/wordpool_categorized_EN.txt	FLUTE	Instruments	9	2	[0, 0, 0]	n/a	catFR1	0	R1144E
447.733	2.549	453134	WORD	n/a	wordpools/wordpool_categorized_EN.txt	GUITAR	Instruments	10	2	[0, 0, 0]	n/a	catFR1	0	R1144E
450.282	2.552	454408	WORD	n/a	wordpools/wordpool_categorized_EN.txt	AXE	Tools	11	2	[0, 0, 0]	n/a	catFR1	0	R1144E
452.834	1.615	455684	WORD	n/a	wordpools/wordpool_categorized_EN.txt	SCREWDRIVER	Tools	12	2	[0, 0, 0]	n/a	catFR1	0	R1144E
454.449	0.001	456492	DISTRACT_START	n/a	n/a	n/a	n/a	-999	2	[0, 0, 0]	n/a	catFR1	0	R1144E
454.45	0.016	456492	START	n/a	n/a	n/a	n/a	-999	2	[-999, -999, -999]	n/a	catFR1	0	R1144E
454.466	5.551	456500	PROB	5.516	n/a	n/a	n/a	-999	2	[2, 1, 5]	8.0	catFR1	0	R1144E
460.017	7.935	459275	PROB	7.904	n/a	n/a	n/a	-999	2	[4, 2, 6]	12.0	catFR1	0	R1144E
467.952	6.468	463243	PROB	6.439	n/a	n/a	n/a	-999	2	[6, 3, 9]	18.0	catFR1	0	R1144E
474.42	4.853	466477	PROB	4.853	n/a	n/a	n/a	-999	2	[1, 3, 4]	8.0	catFR1	0	R1144E
479.273	0.014	468903	STOP	n/a	n/a	n/a	n/a	-999	2	[-999, -999, -999]	n/a	catFR1	0	R1144E
479.287	1.084	468910	DISTRACT_END	n/a	n/a	n/a	n/a	-999	2	[0, 0, 0]	n/a	catFR1	0	R1144E
480.371	1.529	469452	REC_START	n/a	n/a	n/a	n/a	-999	2	[0, 0, 0]	n/a	catFR1	0	R1144E
481.9	0.798	470216	REC_WORD	1.529	n/a	PETUNIA	Flowers	1	2	[0, 0, 0]	n/a	catFR1	0	R1144E
482.698	1.252	470615	REC_WORD	2.327	n/a	MARIGOLD	Flowers	2	2	[0, 0, 0]	n/a	catFR1	0	R1144E
483.95	0.943	471241	REC_WORD	3.579	n/a	AXE	Tools	11	2	[0, 0, 0]	n/a	catFR1	0	R1144E
484.893	1.237	471713	REC_WORD	4.522	n/a	PLIERS	Tools	4	2	[0, 0, 0]	n/a	catFR1	0	R1144E
486.13	2.261	472331	REC_WORD	5.759	n/a	GUITAR	Instruments	10	2	[0, 0, 0]	n/a	catFR1	0	R1144E
488.391	0.747	473462	REC_WORD_VV	8.02	n/a	<>	n/a	-999	2	[0, 0, 0]	n/a	catFR1	0	R1144E
489.138	1.168	473835	REC_WORD	8.767	n/a	FLUTE	Instruments	9	2	[0, 0, 0]	n/a	catFR1	0	R1144E
490.306	9.261	474419	REC_WORD_VV	9.935	n/a	<>	n/a	-999	2	[0, 0, 0]	n/a	catFR1	0	R1144E
499.567	10.817	479049	REC_WORD_VV	19.196	n/a	<>	n/a	-999	2	[0, 0, 0]	n/a	catFR1	0	R1144E
510.384	15.878	484457	REC_END	n/a	n/a	n/a	n/a	-999	2	[0, 0, 0]	n/a	catFR1	0	R1144E
526.262	0.0	492396	TRIAL	n/a	n/a	n/a	n/a	-999	3	[0, 0, 0]	n/a	catFR1	0	R1144E
526.262	10.428	492396	COUNTDOWN_START	n/a	n/a	n/a	n/a	-999	3	[0, 0, 0]	n/a	catFR1	0	R1144E
536.69	0.008	497609	COUNTDOWN_END	n/a	n/a	n/a	n/a	-999	3	[0, 0, 0]	n/a	catFR1	0	R1144E
536.698	3.55	497613	ORIENT	n/a	n/a	n/a	n/a	-999	3	[0, 0, 0]	n/a	catFR1	0	R1144E
540.248	2.384	499388	WORD	n/a	wordpools/wordpool_categorized_EN.txt	CREEK	Landscapes	1	3	[0, 0, 0]	n/a	catFR1	0	R1144E
542.632	2.467	500580	WORD	n/a	wordpools/wordpool_categorized_EN.txt	RIVER	Landscapes	2	3	[0, 0, 0]	n/a	catFR1	0	R1144E
545.099	2.417	501814	WORD	n/a	wordpools/wordpool_categorized_EN.txt	BANANA	Fruit	3	3	[0, 0, 0]	n/a	catFR1	0	R1144E
547.516	2.4	503022	WORD	n/a	wordpools/wordpool_categorized_EN.txt	BLUEBERRY	Fruit	4	3	[0, 0, 0]	n/a	catFR1	0	R1144E
549.916	2.534	504222	WORD	n/a	wordpools/wordpool_categorized_EN.txt	TRUMPET	Instruments	5	3	[0, 0, 0]	n/a	catFR1	0	R1144E
552.45	2.45	505489	WORD	n/a	wordpools/wordpool_categorized_EN.txt	DRUM	Instruments	6	3	[0, 0, 0]	n/a	catFR1	0	R1144E
554.9	2.418	506714	WORD	n/a	wordpools/wordpool_categorized_EN.txt	PEAR	Fruit	7	3	[0, 0, 0]	n/a	catFR1	0	R1144E
557.318	2.434	507923	WORD	n/a	wordpools/wordpool_categorized_EN.txt	STRAWBERRY	Fruit	8	3	[0, 0, 0]	n/a	catFR1	0	R1144E
559.752	2.433	509140	WORD	n/a	wordpools/wordpool_categorized_EN.txt	STREAM	Landscapes	9	3	[0, 0, 0]	n/a	catFR1	0	R1144E
562.185	2.417	510356	WORD	n/a	wordpools/wordpool_categorized_EN.txt	ISLAND	Landscapes	10	3	[0, 0, 0]	n/a	catFR1	0	R1144E
564.602	2.434	511564	WORD	n/a	wordpools/wordpool_categorized_EN.txt	PIANO	Instruments	11	3	[0, 0, 0]	n/a	catFR1	0	R1144E
567.036	1.618	512781	WORD	n/a	wordpools/wordpool_categorized_EN.txt	CELLO	Instruments	12	3	[0, 0, 0]	n/a	catFR1	0	R1144E
568.654	0.001	513590	DISTRACT_START	n/a	n/a	n/a	n/a	-999	3	[0, 0, 0]	n/a	catFR1	0	R1144E
568.655	0.016	513591	START	n/a	n/a	n/a	n/a	-999	3	[-999, -999, -999]	n/a	catFR1	0	R1144E
568.671	7.9	513599	PROB	7.872	n/a	n/a	n/a	-999	3	[5, 3, 9]	17.0	catFR1	0	R1144E
576.571	6.501	517549	PROB	6.473	n/a	n/a	n/a	-999	3	[6, 2, 8]	16.0	catFR1	0	R1144E
583.072	8.152	520799	PROB	8.152	n/a	n/a	n/a	-999	3	[4, 7, 6]	17.0	catFR1	0	R1144E
591.224	0.016	524875	STOP	n/a	n/a	n/a	n/a	-999	3	[-999, -999, -999]	n/a	catFR1	0	R1144E
591.24	1.201	524883	DISTRACT_END	n/a	n/a	n/a	n/a	-999	3	[0, 0, 0]	n/a	catFR1	0	R1144E
592.441	1.348	525483	REC_START	n/a	n/a	n/a	n/a	-999	3	[0, 0, 0]	n/a	catFR1	0	R1144E
593.789	2.429	526157	REC_WORD	1.348	n/a	PIANO	Instruments	11	3	[0, 0, 0]	n/a	catFR1	0	R1144E
596.218	0.928	527371	REC_WORD	3.777	n/a	TRUMPET	Instruments	5	3	[0, 0, 0]	n/a	catFR1	0	R1144E
597.146	0.504	527835	REC_WORD	4.705	n/a	CREEK	Landscapes	1	3	[0, 0, 0]	n/a	catFR1	0	R1144E
597.65	1.345	528087	REC_WORD	5.209	n/a	RIVER	Landscapes	2	3	[0, 0, 0]	n/a	catFR1	0	R1144E
598.995	3.53	528760	REC_WORD_VV	6.554	n/a	<>	n/a	-999	3	[0, 0, 0]	n/a	catFR1	0	R1144E
602.525	6.196	530525	REC_WORD	10.084	n/a	DRUM	Instruments	6	3	[0, 0, 0]	n/a	catFR1	0	R1144E
608.721	0.601	533622	REC_WORD_VV	16.28	n/a	<>	n/a	-999	3	[0, 0, 0]	n/a	catFR1	0	R1144E
609.322	0.689	533923	REC_WORD	16.881	n/a	AXE	n/a	-999	3	[0, 0, 0]	n/a	catFR1	0	R1144E
610.011	9.086	534267	REC_WORD	17.57	n/a	PLIERS	n/a	-999	3	[0, 0, 0]	n/a	catFR1	0	R1144E
619.097	1.689	538810	REC_WORD_VV	26.656	n/a	<>	n/a	-999	3	[0, 0, 0]	n/a	catFR1	0	R1144E
620.786	1.668	539655	REC_WORD_VV	28.345	n/a	<>	n/a	-999	3	[0, 0, 0]	n/a	catFR1	0	R1144E
622.454	4.776	540488	REC_END	n/a	n/a	n/a	n/a	-999	3	[0, 0, 0]	n/a	catFR1	0	R1144E
627.23	0.0	542876	TRIAL	n/a	n/a	n/a	n/a	-999	4	[0, 0, 0]	n/a	catFR1	0	R1144E
627.23	10.428	542876	COUNTDOWN_START	n/a	n/a	n/a	n/a	-999	4	[0, 0, 0]	n/a	catFR1	0	R1144E
637.658	0.008	548090	COUNTDOWN_END	n/a	n/a	n/a	n/a	-999	4	[0, 0, 0]	n/a	catFR1	0	R1144E
637.666	3.55	548094	ORIENT	n/a	n/a	n/a	n/a	-999	4	[0, 0, 0]	n/a	catFR1	0	R1144E
641.216	2.601	549869	WORD	n/a	wordpools/wordpool_categorized_EN.txt	COLANDER	KitchenTools	1	4	[0, 0, 0]	n/a	catFR1	0	R1144E
643.817	2.583	551169	WORD	n/a	wordpools/wordpool_categorized_EN.txt	PEELER	KitchenTools	2	4	[0, 0, 0]	n/a	catFR1	0	R1144E
646.4	2.484	552461	WORD	n/a	wordpools/wordpool_categorized_EN.txt	NIGHTSTAND	Furniture	3	4	[0, 0, 0]	n/a	catFR1	0	R1144E
648.884	2.533	553703	WORD	n/a	wordpools/wordpool_categorized_EN.txt	DESK	Furniture	4	4	[0, 0, 0]	n/a	catFR1	0	R1144E
651.417	2.451	554969	WORD	n/a	wordpools/wordpool_categorized_EN.txt	SANDER	Tools	5	4	[0, 0, 0]	n/a	catFR1	0	R1144E
653.868	2.45	556194	WORD	n/a	wordpools/wordpool_categorized_EN.txt	CROWBAR	Tools	6	4	[0, 0, 0]	n/a	catFR1	0	R1144E
656.318	2.584	557419	WORD	n/a	wordpools/wordpool_categorized_EN.txt	CHAIR	Furniture	7	4	[0, 0, 0]	n/a	catFR1	0	R1144E
658.902	2.384	558711	WORD	n/a	wordpools/wordpool_categorized_EN.txt	CABINET	Furniture	8	4	[0, 0, 0]	n/a	catFR1	0	R1144E
661.286	2.567	559903	WORD	n/a	wordpools/wordpool_categorized_EN.txt	LADLE	KitchenTools	9	4	[0, 0, 0]	n/a	catFR1	0	R1144E
663.853	2.551	561187	WORD	n/a	wordpools/wordpool_categorized_EN.txt	FORK	KitchenTools	10	4	[0, 0, 0]	n/a	catFR1	0	R1144E
666.404	2.418	562462	WORD	n/a	wordpools/wordpool_categorized_EN.txt	HAMMER	Tools	11	4	[0, 0, 0]	n/a	catFR1	0	R1144E
668.822	1.616	563671	WORD	n/a	wordpools/wordpool_categorized_EN.txt	SHOVEL	Tools	12	4	[0, 0, 0]	n/a	catFR1	0	R1144E
670.438	0.0	564479	DISTRACT_START	n/a	n/a	n/a	n/a	-999	4	[0, 0, 0]	n/a	catFR1	0	R1144E
670.438	0.016	564479	START	n/a	n/a	n/a	n/a	-999	4	[-999, -999, -999]	n/a	catFR1	0	R1144E
670.454	5.451	564487	PROB	5.43	n/a	n/a	n/a	-999	4	[3, 1, 6]	10.0	catFR1	0	R1144E
675.905	6.035	567212	PROB	6.003	n/a	n/a	n/a	-999	4	[8, 4, 3]	15.0	catFR1	0	R1144E
681.94	4.65	570229	PROB	4.624	n/a	n/a	n/a	-999	4	[7, 4, 3]	14.0	catFR1	0	R1144E
686.59	5.207	572554	PROB	5.207	n/a	n/a	n/a	-999	4	[8, 4, 6]	18.0	catFR1	0	R1144E
691.797	0.012	575158	STOP	n/a	n/a	n/a	n/a	-999	4	[-999, -999, -999]	n/a	catFR1	0	R1144E
691.809	1.166	575164	DISTRACT_END	n/a	n/a	n/a	n/a	-999	4	[0, 0, 0]	n/a	catFR1	0	R1144E
692.975	1.766	575747	REC_START	n/a	n/a	n/a	n/a	-999	4	[0, 0, 0]	n/a	catFR1	0	R1144E
694.741	1.358	576630	REC_WORD	1.766	n/a	HAMMER	Tools	11	4	[0, 0, 0]	n/a	catFR1	0	R1144E
696.099	1.375	577308	REC_WORD_VV	3.124	n/a	<>	n/a	-999	4	[0, 0, 0]	n/a	catFR1	0	R1144E
697.474	1.996	577996	REC_WORD	4.499	n/a	COLANDER	KitchenTools	1	4	[0, 0, 0]	n/a	catFR1	0	R1144E
699.47	6.917	578994	REC_WORD_VV	6.495	n/a	<>	n/a	-999	4	[0, 0, 0]	n/a	catFR1	0	R1144E
706.387	2.89	582452	REC_WORD	13.412	n/a	PIANO	n/a	-999	4	[0, 0, 0]	n/a	catFR1	0	R1144E
709.277	0.933	583897	REC_WORD_VV	16.302	n/a	<>	n/a	-999	4	[0, 0, 0]	n/a	catFR1	0	R1144E
710.21	3.363	584363	REC_WORD	17.235	n/a	FORK	KitchenTools	10	4	[0, 0, 0]	n/a	catFR1	0	R1144E
713.573	9.163	586045	REC_WORD	20.598	n/a	PLIERS	n/a	-999	4	[0, 0, 0]	n/a	catFR1	0	R1144E
722.736	0.253	590626	REC_WORD_VV	29.761	n/a	<>	n/a	-999	4	[0, 0, 0]	n/a	catFR1	0	R1144E
722.989	4.743	590753	REC_END	n/a	n/a	n/a	n/a	-999	4	[0, 0, 0]	n/a	catFR1	0	R1144E
727.732	0.0	593124	TRIAL	n/a	n/a	n/a	n/a	-999	5	[0, 0, 0]	n/a	catFR1	0	R1144E
727.732	10.428	593124	COUNTDOWN_START	n/a	n/a	n/a	n/a	-999	5	[0, 0, 0]	n/a	catFR1	0	R1144E
738.16	0.006	598338	COUNTDOWN_END	n/a	n/a	n/a	n/a	-999	5	[0, 0, 0]	n/a	catFR1	0	R1144E
738.166	3.968	598341	ORIENT	n/a	n/a	n/a	n/a	-999	5	[0, 0, 0]	n/a	catFR1	0	R1144E
742.134	2.45	600324	WORD	n/a	wordpools/wordpool_categorized_EN.txt	COLA	Beverages	1	5	[0, 0, 0]	n/a	catFR1	0	R1144E
744.584	2.484	601549	WORD	n/a	wordpools/wordpool_categorized_EN.txt	SODA	Beverages	2	5	[0, 0, 0]	n/a	catFR1	0	R1144E
747.068	2.5	602791	WORD	n/a	wordpools/wordpool_categorized_EN.txt	WOODS	Landscapes	3	5	[0, 0, 0]	n/a	catFR1	0	R1144E
749.568	2.617	604041	WORD	n/a	wordpools/wordpool_categorized_EN.txt	HILLS	Landscapes	4	5	[0, 0, 0]	n/a	catFR1	0	R1144E
752.185	2.451	605350	WORD	n/a	wordpools/wordpool_categorized_EN.txt	EYE	BodyParts	5	5	[0, 0, 0]	n/a	catFR1	0	R1144E
754.636	2.633	606575	WORD	n/a	wordpools/wordpool_categorized_EN.txt	LEG	BodyParts	6	5	[0, 0, 0]	n/a	catFR1	0	R1144E
757.269	2.452	607891	WORD	n/a	wordpools/wordpool_categorized_EN.txt	OCEAN	Landscapes	7	5	[0, 0, 0]	n/a	catFR1	0	R1144E
759.721	2.433	609117	WORD	n/a	wordpools/wordpool_categorized_EN.txt	FOREST	Landscapes	8	5	[0, 0, 0]	n/a	catFR1	0	R1144E
762.154	2.383	610334	WORD	n/a	wordpools/wordpool_categorized_EN.txt	RUM	Beverages	9	5	[0, 0, 0]	n/a	catFR1	0	R1144E
764.537	2.468	611525	WORD	n/a	wordpools/wordpool_categorized_EN.txt	COFFEE	Beverages	10	5	[0, 0, 0]	n/a	catFR1	0	R1144E
767.005	2.617	612759	WORD	n/a	wordpools/wordpool_categorized_EN.txt	KNEE	BodyParts	11	5	[0, 0, 0]	n/a	catFR1	0	R1144E
769.622	1.617	614067	WORD	n/a	wordpools/wordpool_categorized_EN.txt	FOOT	BodyParts	12	5	[0, 0, 0]	n/a	catFR1	0	R1144E
771.239	0.0	614876	DISTRACT_START	n/a	n/a	n/a	n/a	-999	5	[0, 0, 0]	n/a	catFR1	0	R1144E
771.239	0.016	614876	START	n/a	n/a	n/a	n/a	-999	5	[-999, -999, -999]	n/a	catFR1	0	R1144E
771.255	5.851	614884	PROB	5.818	n/a	n/a	n/a	-999	5	[5, 6, 4]	15.0	catFR1	0	R1144E
777.106	4.834	617809	PROB	4.814	n/a	n/a	n/a	-999	5	[9, 3, 1]	13.0	catFR1	0	R1144E
781.94	7.135	620226	PROB	7.107	n/a	n/a	n/a	-999	5	[9, 7, 8]	24.0	catFR1	0	R1144E
789.075	3.899	623793	PROB	3.899	n/a	n/a	n/a	-999	5	[4, 6, 1]	11.0	catFR1	0	R1144E
792.974	0.018	625743	STOP	n/a	n/a	n/a	n/a	-999	5	[-999, -999, -999]	n/a	catFR1	0	R1144E
792.992	1.134	625752	DISTRACT_END	n/a	n/a	n/a	n/a	-999	5	[0, 0, 0]	n/a	catFR1	0	R1144E
794.126	2.77	626319	REC_START	n/a	n/a	n/a	n/a	-999	5	[0, 0, 0]	n/a	catFR1	0	R1144E
796.896	10.88	627704	REC_WORD_VV	2.77	n/a	<>	n/a	-999	5	[0, 0, 0]	n/a	catFR1	0	R1144E
807.776	16.363	633143	REC_WORD_VV	13.65	n/a	<>	n/a	-999	5	[0, 0, 0]	n/a	catFR1	0	R1144E
824.139	13.278	641324	REC_END	n/a	n/a	n/a	n/a	-999	5	[0, 0, 0]	n/a	catFR1	0	R1144E
837.417	0.0	647963	TRIAL	n/a	n/a	n/a	n/a	-999	6	[0, 0, 0]	n/a	catFR1	0	R1144E
837.417	10.428	647963	COUNTDOWN_START	n/a	n/a	n/a	n/a	-999	6	[0, 0, 0]	n/a	catFR1	0	R1144E
847.845	0.007	653176	COUNTDOWN_END	n/a	n/a	n/a	n/a	-999	6	[0, 0, 0]	n/a	catFR1	0	R1144E
847.852	3.601	653180	ORIENT	n/a	n/a	n/a	n/a	-999	6	[0, 0, 0]	n/a	catFR1	0	R1144E
851.453	2.567	654980	WORD	n/a	wordpools/wordpool_categorized_EN.txt	GOAT	FarmAnimals	1	6	[0, 0, 0]	n/a	catFR1	0	R1144E
854.02	2.45	656264	WORD	n/a	wordpools/wordpool_categorized_EN.txt	BULL	FarmAnimals	2	6	[0, 0, 0]	n/a	catFR1	0	R1144E
856.47	2.417	657488	WORD	n/a	wordpools/wordpool_categorized_EN.txt	NOTEBOOK	OfficeSupplies	3	6	[0, 0, 0]	n/a	catFR1	0	R1144E
858.887	2.418	658697	WORD	n/a	wordpools/wordpool_categorized_EN.txt	MARKER	OfficeSupplies	4	6	[0, 0, 0]	n/a	catFR1	0	R1144E
861.305	2.451	659906	WORD	n/a	wordpools/wordpool_categorized_EN.txt	CABBAGE	Vegetables	5	6	[0, 0, 0]	n/a	catFR1	0	R1144E
863.756	2.449	661131	WORD	n/a	wordpools/wordpool_categorized_EN.txt	CARROT	Vegetables	6	6	[0, 0, 0]	n/a	catFR1	0	R1144E
866.205	2.585	662356	WORD	n/a	wordpools/wordpool_categorized_EN.txt	CHICKEN	FarmAnimals	7	6	[0, 0, 0]	n/a	catFR1	0	R1144E
868.79	2.433	663648	WORD	n/a	wordpools/wordpool_categorized_EN.txt	COW	FarmAnimals	8	6	[0, 0, 0]	n/a	catFR1	0	R1144E
871.223	2.435	664864	WORD	n/a	wordpools/wordpool_categorized_EN.txt	CELERY	Vegetables	9	6	[0, 0, 0]	n/a	catFR1	0	R1144E
873.658	2.416	666082	WORD	n/a	wordpools/wordpool_categorized_EN.txt	POTATO	Vegetables	10	6	[0, 0, 0]	n/a	catFR1	0	R1144E
876.074	2.383	667290	WORD	n/a	wordpools/wordpool_categorized_EN.txt	TAPE	OfficeSupplies	11	6	[0, 0, 0]	n/a	catFR1	0	R1144E
878.457	1.617	668481	WORD	n/a	wordpools/wordpool_categorized_EN.txt	PENCIL	OfficeSupplies	12	6	[0, 0, 0]	n/a	catFR1	0	R1144E
880.074	0.001	669290	DISTRACT_START	n/a	n/a	n/a	n/a	-999	6	[0, 0, 0]	n/a	catFR1	0	R1144E
880.075	0.016	669290	START	n/a	n/a	n/a	n/a	-999	6	[-999, -999, -999]	n/a	catFR1	0	R1144E
880.091	5.918	669298	PROB	5.895	n/a	n/a	n/a	-999	6	[6, 4, 7]	17.0	catFR1	0	R1144E
886.009	5.468	672257	PROB	5.433	n/a	n/a	n/a	-999	6	[3, 9, 9]	21.0	catFR1	0	R1144E
891.477	4.467	674991	PROB	4.437	n/a	n/a	n/a	-999	6	[3, 1, 1]	5.0	catFR1	0	R1144E
895.944	4.474	677224	PROB	4.474	n/a	n/a	n/a	-999	6	[5, 1, 4]	10.0	catFR1	0	R1144E
900.418	0.01	679461	STOP	n/a	n/a	n/a	n/a	-999	6	[-999, -999, -999]	n/a	catFR1	0	R1144E
900.428	1.034	679466	DISTRACT_END	n/a	n/a	n/a	n/a	-999	6	[0, 0, 0]	n/a	catFR1	0	R1144E
901.462	1.673	679983	REC_START	n/a	n/a	n/a	n/a	-999	6	[0, 0, 0]	n/a	catFR1	0	R1144E
903.135	1.688	680819	REC_WORD_VV	1.673	n/a	<>	n/a	-999	6	[0, 0, 0]	n/a	catFR1	0	R1144E
904.823	1.118	681663	REC_WORD	3.361	n/a	GOAT	FarmAnimals	1	6	[0, 0, 0]	n/a	catFR1	0	R1144E
905.941	1.608	682222	REC_WORD	4.479	n/a	RIVER	n/a	-999	6	[0, 0, 0]	n/a	catFR1	0	R1144E
907.549	1.715	683026	REC_WORD	6.087	n/a	COLANDER	n/a	-999	6	[0, 0, 0]	n/a	catFR1	0	R1144E
909.264	7.041	683884	REC_WORD_VV	7.802	n/a	<>	n/a	-999	6	[0, 0, 0]	n/a	catFR1	0	R1144E
916.305	3.005	687404	REC_WORD	14.843	n/a	AXE	n/a	-999	6	[0, 0, 0]	n/a	catFR1	0	R1144E
919.31	7.472	688906	REC_WORD	17.848	n/a	PIANO	n/a	-999	6	[0, 0, 0]	n/a	catFR1	0	R1144E
926.782	2.796	692642	REC_WORD	25.32	n/a	DRUM	n/a	-999	6	[0, 0, 0]	n/a	catFR1	0	R1144E
929.578	1.894	694040	REC_WORD	28.116	n/a	PLUM	n/a	-999	6	[0, 0, 0]	n/a	catFR1	0	R1144E
931.472	4.912	694987	REC_END	n/a	n/a	n/a	n/a	-999	6	[0, 0, 0]	n/a	catFR1	0	R1144E
936.384	0.0	697443	TRIAL	n/a	n/a	n/a	n/a	-999	7	[0, 0, 0]	n/a	catFR1	0	R1144E
936.384	10.428	697443	COUNTDOWN_START	n/a	n/a	n/a	n/a	-999	7	[0, 0, 0]	n/a	catFR1	0	R1144E
946.812	0.009	702656	COUNTDOWN_END	n/a	n/a	n/a	n/a	-999	7	[0, 0, 0]	n/a	catFR1	0	R1144E
946.821	3.766	702661	ORIENT	n/a	n/a	n/a	n/a	-999	7	[0, 0, 0]	n/a	catFR1	0	R1144E
950.587	2.45	704544	WORD	n/a	wordpools/wordpool_categorized_EN.txt	PANDA	Zoo	1	7	[0, 0, 0]	n/a	catFR1	0	R1144E
953.037	2.467	705769	WORD	n/a	wordpools/wordpool_categorized_EN.txt	TIGER	Zoo	2	7	[0, 0, 0]	n/a	catFR1	0	R1144E
955.504	2.384	707002	WORD	n/a	wordpools/wordpool_categorized_EN.txt	CRAB	OceanAnimals	3	7	[0, 0, 0]	n/a	catFR1	0	R1144E
957.888	2.634	708194	WORD	n/a	wordpools/wordpool_categorized_EN.txt	WHALE	OceanAnimals	4	7	[0, 0, 0]	n/a	catFR1	0	R1144E
960.522	2.484	709511	WORD	n/a	wordpools/wordpool_categorized_EN.txt	BASEBALL	Toys	5	7	[0, 0, 0]	n/a	catFR1	0	R1144E
963.006	2.384	710753	WORD	n/a	wordpools/wordpool_categorized_EN.txt	PUZZLE	Toys	6	7	[0, 0, 0]	n/a	catFR1	0	R1144E
965.39	2.45	711945	WORD	n/a	wordpools/wordpool_categorized_EN.txt	FISH	OceanAnimals	7	7	[0, 0, 0]	n/a	catFR1	0	R1144E
967.84	2.634	713170	WORD	n/a	wordpools/wordpool_categorized_EN.txt	PLANKTON	OceanAnimals	8	7	[0, 0, 0]	n/a	catFR1	0	R1144E
970.474	2.55	714487	WORD	n/a	wordpools/wordpool_categorized_EN.txt	CHEETAH	Zoo	9	7	[0, 0, 0]	n/a	catFR1	0	R1144E
973.024	2.601	715762	WORD	n/a	wordpools/wordpool_categorized_EN.txt	MONKEY	Zoo	10	7	[0, 0, 0]	n/a	catFR1	0	R1144E
975.625	2.616	717062	WORD	n/a	wordpools/wordpool_categorized_EN.txt	BARBIE	Toys	11	7	[0, 0, 0]	n/a	catFR1	0	R1144E
978.241	1.601	718370	WORD	n/a	wordpools/wordpool_categorized_EN.txt	BASKETBALL	Toys	12	7	[0, 0, 0]	n/a	catFR1	0	R1144E
979.842	0.001	719170	DISTRACT_START	n/a	n/a	n/a	n/a	-999	7	[0, 0, 0]	n/a	catFR1	0	R1144E
979.843	0.016	719171	START	n/a	n/a	n/a	n/a	-999	7	[-999, -999, -999]	n/a	catFR1	0	R1144E
979.859	6.117	719179	PROB	6.091	n/a	n/a	n/a	-999	7	[8, 6, 8]	22.0	catFR1	0	R1144E
985.976	5.285	722237	PROB	5.253	n/a	n/a	n/a	-999	7	[2, 6, 2]	10.0	catFR1	0	R1144E
991.261	5.617	724879	PROB	5.591	n/a	n/a	n/a	-999	7	[4, 6, 7]	17.0	catFR1	0	R1144E
996.878	4.638	727688	PROB	4.638	n/a	n/a	n/a	-999	7	[9, 1, 6]	16.0	catFR1	0	R1144E
1001.516	0.013	730007	STOP	n/a	n/a	n/a	n/a	-999	7	[-999, -999, -999]	n/a	catFR1	0	R1144E
1001.529	1.152	730013	DISTRACT_END	n/a	n/a	n/a	n/a	-999	7	[0, 0, 0]	n/a	catFR1	0	R1144E
1002.681	2.225	730589	REC_START	n/a	n/a	n/a	n/a	-999	7	[0, 0, 0]	n/a	catFR1	0	R1144E
1004.906	2.641	731701	REC_WORD_VV	2.225	n/a	<>	n/a	-999	7	[0, 0, 0]	n/a	catFR1	0	R1144E
1007.547	2.22	733022	REC_WORD	4.866	n/a	CRAB	OceanAnimals	3	7	[0, 0, 0]	n/a	catFR1	0	R1144E
1009.767	19.188	734132	REC_WORD_VV	7.086	n/a	<>	n/a	-999	7	[0, 0, 0]	n/a	catFR1	0	R1144E
1028.955	3.734	743725	REC_WORD_VV	26.274	n/a	<>	n/a	-999	7	[0, 0, 0]	n/a	catFR1	0	R1144E
1032.689	5.497	745592	REC_END	n/a	n/a	n/a	n/a	-999	7	[0, 0, 0]	n/a	catFR1	0	R1144E
1038.186	0.0	748340	TRIAL	n/a	n/a	n/a	n/a	-999	8	[0, 0, 0]	n/a	catFR1	0	R1144E
1038.186	10.428	748340	COUNTDOWN_START	n/a	n/a	n/a	n/a	-999	8	[0, 0, 0]	n/a	catFR1	0	R1144E
1048.614	0.007	753554	COUNTDOWN_END	n/a	n/a	n/a	n/a	-999	8	[0, 0, 0]	n/a	catFR1	0	R1144E
1048.621	3.784	753557	ORIENT	n/a	n/a	n/a	n/a	-999	8	[0, 0, 0]	n/a	catFR1	0	R1144E
1052.405	2.385	755449	WORD	n/a	wordpools/wordpool_categorized_EN.txt	ROOF	Building	1	8	[0, 0, 0]	n/a	catFR1	0	R1144E
1054.79	2.582	756642	WORD	n/a	wordpools/wordpool_categorized_EN.txt	FLOOR	Building	2	8	[0, 0, 0]	n/a	catFR1	0	R1144E
1057.372	2.584	757933	WORD	n/a	wordpools/wordpool_categorized_EN.txt	PRINTER	Electronics	3	8	[0, 0, 0]	n/a	catFR1	0	R1144E
1059.956	2.501	759225	WORD	n/a	wordpools/wordpool_categorized_EN.txt	STEREO	Electronics	4	8	[0, 0, 0]	n/a	catFR1	0	R1144E
1062.457	2.417	760475	WORD	n/a	wordpools/wordpool_categorized_EN.txt	SCOOTER	Vehicles	5	8	[0, 0, 0]	n/a	catFR1	0	R1144E
1064.874	2.6	761683	WORD	n/a	wordpools/wordpool_categorized_EN.txt	VAN	Vehicles	6	8	[0, 0, 0]	n/a	catFR1	0	R1144E
1067.474	2.534	762983	WORD	n/a	wordpools/wordpool_categorized_EN.txt	ROOM	Building	7	8	[0, 0, 0]	n/a	catFR1	0	R1144E
1070.008	2.584	764250	WORD	n/a	wordpools/wordpool_categorized_EN.txt	HALLWAY	Building	8	8	[0, 0, 0]	n/a	catFR1	0	R1144E
1072.592	2.383	765542	WORD	n/a	wordpools/wordpool_categorized_EN.txt	BIKE	Vehicles	9	8	[0, 0, 0]	n/a	catFR1	0	R1144E
1074.975	2.534	766734	WORD	n/a	wordpools/wordpool_categorized_EN.txt	TRUCK	Vehicles	10	8	[0, 0, 0]	n/a	catFR1	0	R1144E
1077.509	2.417	768000	WORD	n/a	wordpools/wordpool_categorized_EN.txt	SPEAKER	Electronics	11	8	[0, 0, 0]	n/a	catFR1	0	R1144E
1079.926	1.617	769209	WORD	n/a	wordpools/wordpool_categorized_EN.txt	HEADPHONES	Electronics	12	8	[0, 0, 0]	n/a	catFR1	0	R1144E
1081.543	0.001	770017	DISTRACT_START	n/a	n/a	n/a	n/a	-999	8	[0, 0, 0]	n/a	catFR1	0	R1144E
1081.544	0.016	770018	START	n/a	n/a	n/a	n/a	-999	8	[-999, -999, -999]	n/a	catFR1	0	R1144E
1081.56	5.834	770026	PROB	5.812	n/a	n/a	n/a	-999	8	[7, 7, 1]	15.0	catFR1	0	R1144E
1087.394	7.485	772943	PROB	7.454	n/a	n/a	n/a	-999	8	[3, 5, 1]	9.0	catFR1	0	R1144E
1094.879	4.484	776685	PROB	4.449	n/a	n/a	n/a	-999	8	[9, 9, 3]	21.0	catFR1	0	R1144E
1099.363	5.949	778927	PROB	5.949	n/a	n/a	n/a	-999	8	[8, 4, 3]	15.0	catFR1	0	R1144E
1105.312	0.019	781901	STOP	n/a	n/a	n/a	n/a	-999	8	[-999, -999, -999]	n/a	catFR1	0	R1144E
1105.331	1.134	781911	DISTRACT_END	n/a	n/a	n/a	n/a	-999	8	[0, 0, 0]	n/a	catFR1	0	R1144E
1106.465	1.239	782477	REC_START	n/a	n/a	n/a	n/a	-999	8	[0, 0, 0]	n/a	catFR1	0	R1144E
1107.704	2.041	783097	REC_WORD	1.239	n/a	ROOF	Building	1	8	[0, 0, 0]	n/a	catFR1	0	R1144E
1109.745	2.894	784117	REC_WORD_VV	3.28	n/a	<>	n/a	-999	8	[0, 0, 0]	n/a	catFR1	0	R1144E
1112.639	1.03	785564	REC_WORD	6.174	n/a	CEILING	n/a	-999	8	[0, 0, 0]	n/a	catFR1	0	R1144E
1113.669	7.065	786079	REC_WORD	7.204	n/a	FLOOR	Building	2	8	[0, 0, 0]	n/a	catFR1	0	R1144E
1120.734	14.664	789611	REC_WORD_VV	14.269	n/a	<>	n/a	-999	8	[0, 0, 0]	n/a	catFR1	0	R1144E
1135.398	1.077	796943	REC_WORD_VV	28.933	n/a	<>	n/a	-999	8	[0, 0, 0]	n/a	catFR1	0	R1144E
1136.475	3.979	797481	REC_END	n/a	n/a	n/a	n/a	-999	8	[0, 0, 0]	n/a	catFR1	0	R1144E
1140.454	0.0	799471	TRIAL	n/a	n/a	n/a	n/a	-999	9	[0, 0, 0]	n/a	catFR1	0	R1144E
1140.454	10.428	799471	COUNTDOWN_START	n/a	n/a	n/a	n/a	-999	9	[0, 0, 0]	n/a	catFR1	0	R1144E
1150.882	0.007	804684	COUNTDOWN_END	n/a	n/a	n/a	n/a	-999	9	[0, 0, 0]	n/a	catFR1	0	R1144E
1150.889	3.6	804688	ORIENT	n/a	n/a	n/a	n/a	-999	9	[0, 0, 0]	n/a	catFR1	0	R1144E
1154.489	2.401	806488	WORD	n/a	wordpools/wordpool_categorized_EN.txt	GRAPE	Fruit	1	9	[0, 0, 0]	n/a	catFR1	0	R1144E
1156.89	2.567	807688	WORD	n/a	wordpools/wordpool_categorized_EN.txt	LEMON	Fruit	2	9	[0, 0, 0]	n/a	catFR1	0	R1144E
1159.457	2.467	808972	WORD	n/a	wordpools/wordpool_categorized_EN.txt	LILY	Flowers	3	9	[0, 0, 0]	n/a	catFR1	0	R1144E
1161.924	2.384	810205	WORD	n/a	wordpools/wordpool_categorized_EN.txt	ORCHID	Flowers	4	9	[0, 0, 0]	n/a	catFR1	0	R1144E
1164.308	2.485	811397	WORD	n/a	wordpools/wordpool_categorized_EN.txt	MILK	Beverages	5	9	[0, 0, 0]	n/a	catFR1	0	R1144E
1166.793	2.599	812639	WORD	n/a	wordpools/wordpool_categorized_EN.txt	JUICE	Beverages	6	9	[0, 0, 0]	n/a	catFR1	0	R1144E
1169.392	2.467	813939	WORD	n/a	wordpools/wordpool_categorized_EN.txt	ROSE	Flowers	7	9	[0, 0, 0]	n/a	catFR1	0	R1144E
1171.859	2.617	815172	WORD	n/a	wordpools/wordpool_categorized_EN.txt	TULIP	Flowers	8	9	[0, 0, 0]	n/a	catFR1	0	R1144E
1174.476	2.467	816481	WORD	n/a	wordpools/wordpool_categorized_EN.txt	LIME	Fruit	9	9	[0, 0, 0]	n/a	catFR1	0	R1144E
1176.943	2.418	817714	WORD	n/a	wordpools/wordpool_categorized_EN.txt	PEACH	Fruit	10	9	[0, 0, 0]	n/a	catFR1	0	R1144E
1179.361	2.467	818923	WORD	n/a	wordpools/wordpool_categorized_EN.txt	WATER	Beverages	11	9	[0, 0, 0]	n/a	catFR1	0	R1144E
1181.828	1.617	820156	WORD	n/a	wordpools/wordpool_categorized_EN.txt	TEA	Beverages	12	9	[0, 0, 0]	n/a	catFR1	0	R1144E
1183.445	0.0	820965	DISTRACT_START	n/a	n/a	n/a	n/a	-999	9	[0, 0, 0]	n/a	catFR1	0	R1144E
1183.445	0.016	820965	START	n/a	n/a	n/a	n/a	-999	9	[-999, -999, -999]	n/a	catFR1	0	R1144E
1183.461	6.901	820973	PROB	6.876	n/a	n/a	n/a	-999	9	[8, 8, 3]	19.0	catFR1	0	R1144E
1190.362	5.785	824423	PROB	5.751	n/a	n/a	n/a	-999	9	[5, 1, 4]	10.0	catFR1	0	R1144E
1196.147	5.167	827315	PROB	5.134	n/a	n/a	n/a	-999	9	[1, 6, 8]	15.0	catFR1	0	R1144E
1201.314	4.496	829899	PROB	4.496	n/a	n/a	n/a	-999	9	[2, 4, 6]	12.0	catFR1	0	R1144E
1205.81	0.006	832147	STOP	n/a	n/a	n/a	n/a	-999	9	[-999, -999, -999]	n/a	catFR1	0	R1144E
1205.816	1.105	832150	DISTRACT_END	n/a	n/a	n/a	n/a	-999	9	[0, 0, 0]	n/a	catFR1	0	R1144E
1206.921	2.012	832702	REC_START	n/a	n/a	n/a	n/a	-999	9	[0, 0, 0]	n/a	catFR1	0	R1144E
1208.933	1.726	833708	REC_WORD_VV	2.012	n/a	<>	n/a	-999	9	[0, 0, 0]	n/a	catFR1	0	R1144E
1210.659	2.274	834571	REC_WORD	3.738	n/a	TEA	Beverages	12	9	[0, 0, 0]	n/a	catFR1	0	R1144E
1212.933	14.532	835708	REC_WORD_VV	6.012	n/a	<>	n/a	-999	9	[0, 0, 0]	n/a	catFR1	0	R1144E
1227.465	9.46	842973	REC_WORD_VV	20.544	n/a	<>	n/a	-999	9	[0, 0, 0]	n/a	catFR1	0	R1144E
1236.925	462.994	847703	REC_END	n/a	n/a	n/a	n/a	-999	9	[0, 0, 0]	n/a	catFR1	0	R1144E
1699.919	0.0	1079184	TRIAL	n/a	n/a	n/a	n/a	-999	10	[0, 0, 0]	n/a	catFR1	0	R1144E
1699.919	10.428	1079184	COUNTDOWN_START	n/a	n/a	n/a	n/a	-999	10	[0, 0, 0]	n/a	catFR1	0	R1144E
1710.347	0.007	1084398	COUNTDOWN_END	n/a	n/a	n/a	n/a	-999	10	[0, 0, 0]	n/a	catFR1	0	R1144E
1710.354	3.501	1084401	ORIENT	n/a	n/a	n/a	n/a	-999	10	[0, 0, 0]	n/a	catFR1	0	R1144E
1713.855	2.55	1086152	WORD	n/a	wordpools/wordpool_categorized_EN.txt	EVERGREEN	Trees	1	10	[0, 0, 0]	n/a	catFR1	0	R1144E
1716.405	2.567	1087427	WORD	n/a	wordpools/wordpool_categorized_EN.txt	ELM	Trees	2	10	[0, 0, 0]	n/a	catFR1	0	R1144E
1718.972	2.567	1088710	WORD	n/a	wordpools/wordpool_categorized_EN.txt	MIXER	Appliances	3	10	[0, 0, 0]	n/a	catFR1	0	R1144E
1721.539	2.551	1089994	WORD	n/a	wordpools/wordpool_categorized_EN.txt	DISHWASHER	Appliances	4	10	[0, 0, 0]	n/a	catFR1	0	R1144E
1724.09	2.417	1091269	WORD	n/a	wordpools/wordpool_categorized_EN.txt	ATTIC	Building	5	10	[0, 0, 0]	n/a	catFR1	0	R1144E
1726.507	2.45	1092477	WORD	n/a	wordpools/wordpool_categorized_EN.txt	BATHROOM	Building	6	10	[0, 0, 0]	n/a	catFR1	0	R1144E
1728.957	2.401	1093702	WORD	n/a	wordpools/wordpool_categorized_EN.txt	WALNUT	Trees	7	10	[0, 0, 0]	n/a	catFR1	0	R1144E
1731.358	2.401	1094903	WORD	n/a	wordpools/wordpool_categorized_EN.txt	CEDAR	Trees	8	10	[0, 0, 0]	n/a	catFR1	0	R1144E
1733.759	2.433	1096103	WORD	n/a	wordpools/wordpool_categorized_EN.txt	CEILING	Building	9	10	[0, 0, 0]	n/a	catFR1	0	R1144E
1736.192	2.535	1097320	WORD	n/a	wordpools/wordpool_categorized_EN.txt	DOOR	Building	10	10	[0, 0, 0]	n/a	catFR1	0	R1144E
1738.727	2.416	1098587	WORD	n/a	wordpools/wordpool_categorized_EN.txt	WASHER	Appliances	11	10	[0, 0, 0]	n/a	catFR1	0	R1144E
1741.143	1.618	1099795	WORD	n/a	wordpools/wordpool_categorized_EN.txt	IRON	Appliances	12	10	[0, 0, 0]	n/a	catFR1	0	R1144E
1742.761	0.0	1100604	DISTRACT_START	n/a	n/a	n/a	n/a	-999	10	[0, 0, 0]	n/a	catFR1	0	R1144E
1742.761	0.016	1100604	START	n/a	n/a	n/a	n/a	-999	10	[-999, -999, -999]	n/a	catFR1	0	R1144E
1742.777	18.904	1100612	PROB	18.878	n/a	n/a	n/a	-999	10	[8, 9, 8]	25.0	catFR1	0	R1144E
1761.681	5.47	1110063	PROB	5.47	n/a	n/a	n/a	-999	10	[1, 1, 7]	9.0	catFR1	0	R1144E
1767.151	0.013	1112798	STOP	n/a	n/a	n/a	n/a	-999	10	[-999, -999, -999]	n/a	catFR1	0	R1144E
1767.164	1.117	1112804	DISTRACT_END	n/a	n/a	n/a	n/a	-999	10	[0, 0, 0]	n/a	catFR1	0	R1144E
1768.281	2.276	1113363	REC_START	n/a	n/a	n/a	n/a	-999	10	[0, 0, 0]	n/a	catFR1	0	R1144E
1770.557	1.751	1114501	REC_WORD_VV	2.276	n/a	<>	n/a	-999	10	[0, 0, 0]	n/a	catFR1	0	R1144E
1772.308	1.698	1115376	REC_WORD	4.027	n/a	ROOF	n/a	-999	10	[0, 0, 0]	n/a	catFR1	0	R1144E
1774.006	1.498	1116225	REC_WORD	5.725	n/a	DISHWASHER	Appliances	4	10	[0, 0, 0]	n/a	catFR1	0	R1144E
1775.504	1.58	1116974	REC_WORD	7.223	n/a	FLOOR	n/a	-999	10	[0, 0, 0]	n/a	catFR1	0	R1144E
1777.084	2.122	1117764	REC_WORD	8.803	n/a	CEILING	Building	9	10	[0, 0, 0]	n/a	catFR1	0	R1144E
1779.206	2.092	1118825	REC_WORD	10.925	n/a	WALL	n/a	-999	10	[0, 0, 0]	n/a	catFR1	0	R1144E
1781.298	2.638	1119871	REC_WORD_VV	13.017	n/a	<>	n/a	-999	10	[0, 0, 0]	n/a	catFR1	0	R1144E
1783.936	2.293	1121190	REC_WORD	15.655	n/a	DOOR	Building	10	10	[0, 0, 0]	n/a	catFR1	0	R1144E
1786.229	3.144	1122336	REC_WORD_VV	17.948	n/a	<>	n/a	-999	10	[0, 0, 0]	n/a	catFR1	0	R1144E
1789.373	4.598	1123908	REC_WORD	21.092	n/a	IRON	Appliances	12	10	[0, 0, 0]	n/a	catFR1	0	R1144E
1793.971	4.318	1126207	REC_WORD	25.69	n/a	EVERGREEN	Trees	1	10	[0, 0, 0]	n/a	catFR1	0	R1144E
1798.289	4.948	1128366	REC_END	n/a	n/a	n/a	n/a	-999	10	[0, 0, 0]	n/a	catFR1	0	R1144E
1803.237	0.0	1130840	TRIAL	n/a	n/a	n/a	n/a	-999	11	[0, 0, 0]	n/a	catFR1	0	R1144E
1803.237	10.428	1130840	COUNTDOWN_START	n/a	n/a	n/a	n/a	-999	11	[0, 0, 0]	n/a	catFR1	0	R1144E
1813.665	0.008	1136053	COUNTDOWN_END	n/a	n/a	n/a	n/a	-999	11	[0, 0, 0]	n/a	catFR1	0	R1144E
1813.673	3.783	1136057	ORIENT	n/a	n/a	n/a	n/a	-999	11	[0, 0, 0]	n/a	catFR1	0	R1144E
1817.456	2.434	1137949	WORD	n/a	wordpools/wordpool_categorized_EN.txt	COOKIE	Desserts	1	11	[0, 0, 0]	n/a	catFR1	0	R1144E
1819.89	2.467	1139166	WORD	n/a	wordpools/wordpool_categorized_EN.txt	CUPCAKE	Desserts	2	11	[0, 0, 0]	n/a	catFR1	0	R1144E
1822.357	2.517	1140399	WORD	n/a	wordpools/wordpool_categorized_EN.txt	BALL	Toys	3	11	[0, 0, 0]	n/a	catFR1	0	R1144E
1824.874	2.484	1141658	WORD	n/a	wordpools/wordpool_categorized_EN.txt	BLOCKS	Toys	4	11	[0, 0, 0]	n/a	catFR1	0	R1144E
1827.358	2.468	1142899	WORD	n/a	wordpools/wordpool_categorized_EN.txt	CALCULATOR	Electronics	5	11	[0, 0, 0]	n/a	catFR1	0	R1144E
1829.826	2.383	1144133	WORD	n/a	wordpools/wordpool_categorized_EN.txt	MICROWAVE	Electronics	6	11	[0, 0, 0]	n/a	catFR1	0	R1144E
1832.209	2.417	1145325	WORD	n/a	wordpools/wordpool_categorized_EN.txt	CAKE	Desserts	7	11	[0, 0, 0]	n/a	catFR1	0	R1144E
1834.626	2.55	1146533	WORD	n/a	wordpools/wordpool_categorized_EN.txt	JELLO	Desserts	8	11	[0, 0, 0]	n/a	catFR1	0	R1144E
1837.176	2.434	1147808	WORD	n/a	wordpools/wordpool_categorized_EN.txt	SCANNER	Electronics	9	11	[0, 0, 0]	n/a	catFR1	0	R1144E
1839.61	2.434	1149025	WORD	n/a	wordpools/wordpool_categorized_EN.txt	PHONE	Electronics	10	11	[0, 0, 0]	n/a	catFR1	0	R1144E
1842.044	2.618	1150242	WORD	n/a	wordpools/wordpool_categorized_EN.txt	DOLL	Toys	11	11	[0, 0, 0]	n/a	catFR1	0	R1144E
1844.662	1.616	1151551	WORD	n/a	wordpools/wordpool_categorized_EN.txt	DOLLHOUSE	Toys	12	11	[0, 0, 0]	n/a	catFR1	0	R1144E
1846.278	0.001	1152359	DISTRACT_START	n/a	n/a	n/a	n/a	-999	11	[0, 0, 0]	n/a	catFR1	0	R1144E
1846.279	0.016	1152359	START	n/a	n/a	n/a	n/a	-999	11	[-999, -999, -999]	n/a	catFR1	0	R1144E
1846.295	6.267	1152367	PROB	6.242	n/a	n/a	n/a	-999	11	[2, 9, 4]	15.0	catFR1	0	R1144E
1852.562	6.385	1155501	PROB	6.357	n/a	n/a	n/a	-999	11	[3, 8, 4]	15.0	catFR1	0	R1144E
1858.947	5.367	1158693	PROB	5.34	n/a	n/a	n/a	-999	11	[2, 8, 9]	19.0	catFR1	0	R1144E
1864.314	5.827	1161376	PROB	5.827	n/a	n/a	n/a	-999	11	[2, 1, 6]	9.0	catFR1	0	R1144E
1870.141	0.008	1164289	STOP	n/a	n/a	n/a	n/a	-999	11	[-999, -999, -999]	n/a	catFR1	0	R1144E
1870.149	1.084	1164293	DISTRACT_END	n/a	n/a	n/a	n/a	-999	11	[0, 0, 0]	n/a	catFR1	0	R1144E
1871.233	1.886	1164835	REC_START	n/a	n/a	n/a	n/a	-999	11	[0, 0, 0]	n/a	catFR1	0	R1144E
1873.119	1.301	1165778	REC_WORD	1.886	n/a	COOKIE	Desserts	1	11	[0, 0, 0]	n/a	catFR1	0	R1144E
1874.42	1.342	1166429	REC_WORD	3.187	n/a	CAKE	Desserts	7	11	[0, 0, 0]	n/a	catFR1	0	R1144E
1875.762	1.666	1167100	REC_WORD	4.529	n/a	JELLO	Desserts	8	11	[0, 0, 0]	n/a	catFR1	0	R1144E
1877.428	14.837	1167933	REC_WORD	6.195	n/a	MICROWAVE	Electronics	6	11	[0, 0, 0]	n/a	catFR1	0	R1144E
1892.265	8.976	1175351	REC_WORD_VV	21.032	n/a	<>	n/a	-999	11	[0, 0, 0]	n/a	catFR1	0	R1144E
1901.241	3.647	1179838	REC_END	n/a	n/a	n/a	n/a	-999	11	[0, 0, 0]	n/a	catFR1	0	R1144E
1904.888	0.001	1181662	COUNTDOWN_START	n/a	n/a	n/a	n/a	-999	12	[0, 0, 0]	n/a	catFR1	0	R1144E
1904.889	10.427	1181662	TRIAL	n/a	n/a	n/a	n/a	-999	12	[0, 0, 0]	n/a	catFR1	0	R1144E
1915.316	0.007	1186875	COUNTDOWN_END	n/a	n/a	n/a	n/a	-999	12	[0, 0, 0]	n/a	catFR1	0	R1144E
1915.323	3.568	1186879	ORIENT	n/a	n/a	n/a	n/a	-999	12	[0, 0, 0]	n/a	catFR1	0	R1144E
1918.891	2.567	1188663	WORD	n/a	wordpools/wordpool_categorized_EN.txt	BROWNIES	Desserts	1	12	[0, 0, 0]	n/a	catFR1	0	R1144E
1921.458	2.5	1189946	WORD	n/a	wordpools/wordpool_categorized_EN.txt	PIE	Desserts	2	12	[0, 0, 0]	n/a	catFR1	0	R1144E
1923.958	2.584	1191196	WORD	n/a	wordpools/wordpool_categorized_EN.txt	HURRICANE	Weather	3	12	[0, 0, 0]	n/a	catFR1	0	R1144E
1926.542	2.451	1192488	WORD	n/a	wordpools/wordpool_categorized_EN.txt	TORNADO	Weather	4	12	[0, 0, 0]	n/a	catFR1	0	R1144E
1928.993	2.467	1193713	WORD	n/a	wordpools/wordpool_categorized_EN.txt	DRESS	Clothing	5	12	[0, 0, 0]	n/a	catFR1	0	R1144E
1931.46	2.567	1194947	WORD	n/a	wordpools/wordpool_categorized_EN.txt	BLOUSE	Clothing	6	12	[0, 0, 0]	n/a	catFR1	0	R1144E
1934.027	2.534	1196230	WORD	n/a	wordpools/wordpool_categorized_EN.txt	THUNDERSTORM	Weather	7	12	[0, 0, 0]	n/a	catFR1	0	R1144E
1936.561	2.383	1197497	WORD	n/a	wordpools/wordpool_categorized_EN.txt	THUNDER	Weather	8	12	[0, 0, 0]	n/a	catFR1	0	R1144E
1938.944	2.517	1198689	WORD	n/a	wordpools/wordpool_categorized_EN.txt	FUDGE	Desserts	9	12	[0, 0, 0]	n/a	catFR1	0	R1144E
1941.461	2.484	1199947	WORD	n/a	wordpools/wordpool_categorized_EN.txt	PUDDING	Desserts	10	12	[0, 0, 0]	n/a	catFR1	0	R1144E
1943.945	2.451	1201189	WORD	n/a	wordpools/wordpool_categorized_EN.txt	UNDERWEAR	Clothing	11	12	[0, 0, 0]	n/a	catFR1	0	R1144E
1946.396	1.617	1202414	WORD	n/a	wordpools/wordpool_categorized_EN.txt	SKIRT	Clothing	12	12	[0, 0, 0]	n/a	catFR1	0	R1144E
1948.013	0.0	1203223	DISTRACT_START	n/a	n/a	n/a	n/a	-999	12	[0, 0, 0]	n/a	catFR1	0	R1144E
1948.013	0.016	1203223	START	n/a	n/a	n/a	n/a	-999	12	[-999, -999, -999]	n/a	catFR1	0	R1144E
1948.029	5.835	1203231	PROB	5.807	n/a	n/a	n/a	-999	12	[9, 5, 6]	20.0	catFR1	0	R1144E
1953.864	5.734	1206148	PROB	5.698	n/a	n/a	n/a	-999	12	[3, 6, 5]	14.0	catFR1	0	R1144E
1959.598	5.085	1209015	PROB	5.062	n/a	n/a	n/a	-999	12	[9, 7, 1]	17.0	catFR1	0	R1144E
1964.683	5.24	1211557	PROB	5.24	n/a	n/a	n/a	-999	12	[5, 9, 3]	17.0	catFR1	0	R1144E
1969.923	0.01	1214177	STOP	n/a	n/a	n/a	n/a	-999	12	[-999, -999, -999]	n/a	catFR1	0	R1144E
1969.933	1.084	1214182	DISTRACT_END	n/a	n/a	n/a	n/a	-999	12	[0, 0, 0]	n/a	catFR1	0	R1144E
1971.017	1.839	1214724	REC_START	n/a	n/a	n/a	n/a	-999	12	[0, 0, 0]	n/a	catFR1	0	R1144E
1972.856	5.687	1215643	REC_WORD	1.839	n/a	BROWNIES	Desserts	1	12	[0, 0, 0]	n/a	catFR1	0	R1144E
1978.543	1.721	1218487	REC_WORD	7.526	n/a	HURRICANE	Weather	3	12	[0, 0, 0]	n/a	catFR1	0	R1144E
1980.264	1.724	1219347	REC_WORD	9.247	n/a	TORNADO	Weather	4	12	[0, 0, 0]	n/a	catFR1	0	R1144E
1981.988	6.556	1220209	REC_WORD	10.971	n/a	THUNDERSTORM	Weather	7	12	[0, 0, 0]	n/a	catFR1	0	R1144E
1988.544	12.482	1223487	REC_WORD	17.527	n/a	RAIN	n/a	-999	12	[0, 0, 0]	n/a	catFR1	0	R1144E
2001.026	3.613	1229728	REC_END	n/a	n/a	n/a	n/a	-999	12	[0, 0, 0]	n/a	catFR1	0	R1144E
2004.639	0.0	1231534	TRIAL	n/a	n/a	n/a	n/a	-999	13	[0, 0, 0]	n/a	catFR1	0	R1144E
2004.639	10.428	1231534	COUNTDOWN_START	n/a	n/a	n/a	n/a	-999	13	[0, 0, 0]	n/a	catFR1	0	R1144E
2015.067	0.007	1236748	COUNTDOWN_END	n/a	n/a	n/a	n/a	-999	13	[0, 0, 0]	n/a	catFR1	0	R1144E
2015.074	3.834	1236751	ORIENT	n/a	n/a	n/a	n/a	-999	13	[0, 0, 0]	n/a	catFR1	0	R1144E
2018.908	2.534	1238668	WORD	n/a	wordpools/wordpool_categorized_EN.txt	LION	Zoo	1	13	[0, 0, 0]	n/a	catFR1	0	R1144E
2021.442	2.551	1239935	WORD	n/a	wordpools/wordpool_categorized_EN.txt	ELEPHANT	Zoo	2	13	[0, 0, 0]	n/a	catFR1	0	R1144E
2023.993	2.484	1241210	WORD	n/a	wordpools/wordpool_categorized_EN.txt	BUS	Vehicles	3	13	[0, 0, 0]	n/a	catFR1	0	R1144E
2026.477	2.55	1242452	WORD	n/a	wordpools/wordpool_categorized_EN.txt	TRAIN	Vehicles	4	13	[0, 0, 0]	n/a	catFR1	0	R1144E
2029.027	2.4	1243727	WORD	n/a	wordpools/wordpool_categorized_EN.txt	RATCHET	Tools	5	13	[0, 0, 0]	n/a	catFR1	0	R1144E
2031.427	2.617	1244927	WORD	n/a	wordpools/wordpool_categorized_EN.txt	WRENCH	Tools	6	13	[0, 0, 0]	n/a	catFR1	0	R1144E
2034.044	2.619	1246235	WORD	n/a	wordpools/wordpool_categorized_EN.txt	GORILLA	Zoo	7	13	[0, 0, 0]	n/a	catFR1	0	R1144E
2036.663	2.432	1247545	WORD	n/a	wordpools/wordpool_categorized_EN.txt	GIRAFFE	Zoo	8	13	[0, 0, 0]	n/a	catFR1	0	R1144E
2039.095	2.451	1248761	WORD	n/a	wordpools/wordpool_categorized_EN.txt	SAW	Tools	9	13	[0, 0, 0]	n/a	catFR1	0	R1144E
2041.546	2.45	1249986	WORD	n/a	wordpools/wordpool_categorized_EN.txt	DRILL	Tools	10	13	[0, 0, 0]	n/a	catFR1	0	R1144E
2043.996	2.534	1251211	WORD	n/a	wordpools/wordpool_categorized_EN.txt	CAR	Vehicles	11	13	[0, 0, 0]	n/a	catFR1	0	R1144E
2046.53	1.617	1252478	WORD	n/a	wordpools/wordpool_categorized_EN.txt	JEEP	Vehicles	12	13	[0, 0, 0]	n/a	catFR1	0	R1144E
2048.147	0.001	1253286	DISTRACT_START	n/a	n/a	n/a	n/a	-999	13	[0, 0, 0]	n/a	catFR1	0	R1144E
2048.148	0.016	1253287	START	n/a	n/a	n/a	n/a	-999	13	[-999, -999, -999]	n/a	catFR1	0	R1144E
2048.164	5.301	1253295	PROB	5.278	n/a	n/a	n/a	-999	13	[7, 6, 1]	14.0	catFR1	0	R1144E
2053.465	4.301	1255945	PROB	4.273	n/a	n/a	n/a	-999	13	[3, 9, 9]	21.0	catFR1	0	R1144E
2057.766	6.767	1258096	PROB	6.731	n/a	n/a	n/a	-999	13	[8, 6, 4]	18.0	catFR1	0	R1144E
2064.533	4.829	1261479	PROB	4.829	n/a	n/a	n/a	-999	13	[5, 8, 8]	21.0	catFR1	0	R1144E
2069.362	0.005	1263893	STOP	n/a	n/a	n/a	n/a	-999	13	[-999, -999, -999]	n/a	catFR1	0	R1144E
2069.367	1.168	1263896	DISTRACT_END	n/a	n/a	n/a	n/a	-999	13	[0, 0, 0]	n/a	catFR1	0	R1144E
2070.535	13.662	1264480	REC_START	n/a	n/a	n/a	n/a	-999	13	[0, 0, 0]	n/a	catFR1	0	R1144E
2084.197	2.687	1271310	REC_WORD	13.662	n/a	JEEP	Vehicles	12	13	[0, 0, 0]	n/a	catFR1	0	R1144E
2086.884	10.74	1272654	REC_WORD	16.349	n/a	CAR	Vehicles	11	13	[0, 0, 0]	n/a	catFR1	0	R1144E
2097.624	2.919	1278023	REC_WORD_VV	27.089	n/a	<>	n/a	-999	13	[0, 0, 0]	n/a	catFR1	0	R1144E
2100.543	3.847	1279483	REC_END	n/a	n/a	n/a	n/a	-999	13	[0, 0, 0]	n/a	catFR1	0	R1144E
2104.39	0.0	1281406	TRIAL	n/a	n/a	n/a	n/a	-999	14	[0, 0, 0]	n/a	catFR1	0	R1144E
2104.39	10.428	1281406	COUNTDOWN_START	n/a	n/a	n/a	n/a	-999	14	[0, 0, 0]	n/a	catFR1	0	R1144E
2114.818	0.008	1286620	COUNTDOWN_END	n/a	n/a	n/a	n/a	-999	14	[0, 0, 0]	n/a	catFR1	0	R1144E
2114.826	3.901	1286624	ORIENT	n/a	n/a	n/a	n/a	-999	14	[0, 0, 0]	n/a	catFR1	0	R1144E
2118.727	2.616	1288574	WORD	n/a	wordpools/wordpool_categorized_EN.txt	SLINKY	Toys	1	14	[0, 0, 0]	n/a	catFR1	0	R1144E
2121.343	2.501	1289882	WORD	n/a	wordpools/wordpool_categorized_EN.txt	MARBLES	Toys	2	14	[0, 0, 0]	n/a	catFR1	0	R1144E
2123.844	2.383	1291132	WORD	n/a	wordpools/wordpool_categorized_EN.txt	CIDER	Beverages	3	14	[0, 0, 0]	n/a	catFR1	0	R1144E
2126.227	2.569	1292324	WORD	n/a	wordpools/wordpool_categorized_EN.txt	BEER	Beverages	4	14	[0, 0, 0]	n/a	catFR1	0	R1144E
2128.796	2.532	1293608	WORD	n/a	wordpools/wordpool_categorized_EN.txt	BEETLE	Insects	5	14	[0, 0, 0]	n/a	catFR1	0	R1144E
2131.328	2.468	1294874	WORD	n/a	wordpools/wordpool_categorized_EN.txt	BEE	Insects	6	14	[0, 0, 0]	n/a	catFR1	0	R1144E
2133.796	2.416	1296108	WORD	n/a	wordpools/wordpool_categorized_EN.txt	LEMONADE	Beverages	7	14	[0, 0, 0]	n/a	catFR1	0	R1144E
2136.212	2.452	1297316	WORD	n/a	wordpools/wordpool_categorized_EN.txt	WINE	Beverages	8	14	[0, 0, 0]	n/a	catFR1	0	R1144E
2138.664	2.399	1298542	WORD	n/a	wordpools/wordpool_categorized_EN.txt	FRISBEE	Toys	9	14	[0, 0, 0]	n/a	catFR1	0	R1144E
2141.063	2.401	1299741	WORD	n/a	wordpools/wordpool_categorized_EN.txt	FOOTBALL	Toys	10	14	[0, 0, 0]	n/a	catFR1	0	R1144E
2143.464	2.434	1300942	WORD	n/a	wordpools/wordpool_categorized_EN.txt	SPIDER	Insects	11	14	[0, 0, 0]	n/a	catFR1	0	R1144E
2145.898	1.616	1302159	WORD	n/a	wordpools/wordpool_categorized_EN.txt	MOSQUITO	Insects	12	14	[0, 0, 0]	n/a	catFR1	0	R1144E
2147.514	0.001	1302967	DISTRACT_START	n/a	n/a	n/a	n/a	-999	14	[0, 0, 0]	n/a	catFR1	0	R1144E
2147.515	0.016	1302967	START	n/a	n/a	n/a	n/a	-999	14	[-999, -999, -999]	n/a	catFR1	0	R1144E
2147.531	4.467	1302975	PROB	4.442	n/a	n/a	n/a	-999	14	[2, 5, 5]	12.0	catFR1	0	R1144E
2151.998	7.235	1305208	PROB	7.205	n/a	n/a	n/a	-999	14	[8, 9, 8]	25.0	catFR1	0	R1144E
2159.233	5.034	1308826	PROB	5.014	n/a	n/a	n/a	-999	14	[6, 4, 2]	12.0	catFR1	0	R1144E
2164.267	5.564	1311342	PROB	5.564	n/a	n/a	n/a	-999	14	[3, 4, 4]	11.0	catFR1	0	R1144E
2169.831	0.005	1314124	STOP	n/a	n/a	n/a	n/a	-999	14	[-999, -999, -999]	n/a	catFR1	0	R1144E
2169.836	1.05	1314127	DISTRACT_END	n/a	n/a	n/a	n/a	-999	14	[0, 0, 0]	n/a	catFR1	0	R1144E
2170.886	1.741	1314652	REC_START	n/a	n/a	n/a	n/a	-999	14	[0, 0, 0]	n/a	catFR1	0	R1144E
2172.627	1.685	1315522	REC_WORD	1.741	n/a	CIDER	Beverages	3	14	[0, 0, 0]	n/a	catFR1	0	R1144E
2174.312	2.166	1316365	REC_WORD	3.426	n/a	WINE	Beverages	8	14	[0, 0, 0]	n/a	catFR1	0	R1144E
2176.478	23.358	1317448	REC_WORD	5.592	n/a	BEER	Beverages	4	14	[0, 0, 0]	n/a	catFR1	0	R1144E
2199.836	1.06	1329126	REC_WORD_VV	28.95	n/a	<>	n/a	-999	14	[0, 0, 0]	n/a	catFR1	0	R1144E
2200.896	3.896	1329656	REC_END	n/a	n/a	n/a	n/a	-999	14	[0, 0, 0]	n/a	catFR1	0	R1144E
2204.792	0.0	1331604	COUNTDOWN_START	n/a	n/a	n/a	n/a	-999	15	[0, 0, 0]	n/a	catFR1	0	R1144E
2204.792	10.428	1331604	TRIAL	n/a	n/a	n/a	n/a	-999	15	[0, 0, 0]	n/a	catFR1	0	R1144E
2215.22	0.006	1336817	COUNTDOWN_END	n/a	n/a	n/a	n/a	-999	15	[0, 0, 0]	n/a	catFR1	0	R1144E
2215.226	3.801	1336820	ORIENT	n/a	n/a	n/a	n/a	-999	15	[0, 0, 0]	n/a	catFR1	0	R1144E
2219.027	2.517	1338721	WORD	n/a	wordpools/wordpool_categorized_EN.txt	REFRIGERATOR	Appliances	1	15	[0, 0, 0]	n/a	catFR1	0	R1144E
2221.544	2.551	1339979	WORD	n/a	wordpools/wordpool_categorized_EN.txt	BLENDER	Appliances	2	15	[0, 0, 0]	n/a	catFR1	0	R1144E
2224.095	2.618	1341254	WORD	n/a	wordpools/wordpool_categorized_EN.txt	ZEBRA	Zoo	3	15	[0, 0, 0]	n/a	catFR1	0	R1144E
2226.713	2.382	1342563	WORD	n/a	wordpools/wordpool_categorized_EN.txt	CHIMPANZEE	Zoo	4	15	[0, 0, 0]	n/a	catFR1	0	R1144E
2229.095	2.602	1343754	WORD	n/a	wordpools/wordpool_categorized_EN.txt	COUCH	Furniture	5	15	[0, 0, 0]	n/a	catFR1	0	R1144E
2231.697	2.466	1345055	WORD	n/a	wordpools/wordpool_categorized_EN.txt	SOFA	Furniture	6	15	[0, 0, 0]	n/a	catFR1	0	R1144E
2234.163	2.518	1346288	WORD	n/a	wordpools/wordpool_categorized_EN.txt	DRYER	Appliances	7	15	[0, 0, 0]	n/a	catFR1	0	R1144E
2236.681	2.4	1347547	WORD	n/a	wordpools/wordpool_categorized_EN.txt	FREEZER	Appliances	8	15	[0, 0, 0]	n/a	catFR1	0	R1144E
2239.081	2.517	1348747	WORD	n/a	wordpools/wordpool_categorized_EN.txt	BOOKCASE	Furniture	9	15	[0, 0, 0]	n/a	catFR1	0	R1144E
2241.598	2.467	1350005	WORD	n/a	wordpools/wordpool_categorized_EN.txt	TABLE	Furniture	10	15	[0, 0, 0]	n/a	catFR1	0	R1144E
2244.065	2.517	1351239	WORD	n/a	wordpools/wordpool_categorized_EN.txt	BEAR	Zoo	11	15	[0, 0, 0]	n/a	catFR1	0	R1144E
2246.582	1.617	1352497	WORD	n/a	wordpools/wordpool_categorized_EN.txt	ORANGUTAN	Zoo	12	15	[0, 0, 0]	n/a	catFR1	0	R1144E
2248.199	0.001	1353306	DISTRACT_START	n/a	n/a	n/a	n/a	-999	15	[0, 0, 0]	n/a	catFR1	0	R1144E
2248.2	0.015	1353306	START	n/a	n/a	n/a	n/a	-999	15	[-999, -999, -999]	n/a	catFR1	0	R1144E
2248.215	7.385	1353314	PROB	7.36	n/a	n/a	n/a	-999	15	[2, 4, 1]	7.0	catFR1	0	R1144E
2255.6	5.768	1357006	PROB	5.735	n/a	n/a	n/a	-999	15	[7, 7, 1]	15.0	catFR1	0	R1144E
2261.368	4.934	1359890	PROB	4.91	n/a	n/a	n/a	-999	15	[3, 2, 2]	7.0	catFR1	0	R1144E
2266.302	7.466	1362357	PROB	7.466	n/a	n/a	n/a	-999	15	[7, 9, 7]	23.0	catFR1	0	R1144E
2273.768	0.003	1366089	STOP	n/a	n/a	n/a	n/a	-999	15	[-999, -999, -999]	n/a	catFR1	0	R1144E
2273.771	1.183	1366091	DISTRACT_END	n/a	n/a	n/a	n/a	-999	15	[0, 0, 0]	n/a	catFR1	0	R1144E
2274.954	4.2	1366682	REC_START	n/a	n/a	n/a	n/a	-999	15	[0, 0, 0]	n/a	catFR1	0	R1144E
2279.154	3.973	1368782	REC_WORD	4.2	n/a	SOFA	Furniture	6	15	[0, 0, 0]	n/a	catFR1	0	R1144E
2283.127	3.276	1370768	REC_WORD	8.173	n/a	COUCH	Furniture	5	15	[0, 0, 0]	n/a	catFR1	0	R1144E
2286.403	2.241	1372406	REC_WORD	11.449	n/a	REFRIGERATOR	Appliances	1	15	[0, 0, 0]	n/a	catFR1	0	R1144E
2288.644	13.548	1373527	REC_WORD	13.69	n/a	DISHWASHER	n/a	-999	15	[0, 0, 0]	n/a	catFR1	0	R1144E
2302.192	2.774	1380300	REC_WORD	27.238	n/a	CHIMPANZEE	Zoo	4	15	[0, 0, 0]	n/a	catFR1	0	R1144E
2304.966	4.761	1381687	REC_END	n/a	n/a	n/a	n/a	-999	15	[0, 0, 0]	n/a	catFR1	0	R1144E
2309.727	0.001	1384068	COUNTDOWN_START	n/a	n/a	n/a	n/a	-999	16	[0, 0, 0]	n/a	catFR1	0	R1144E
2309.728	10.427	1384068	TRIAL	n/a	n/a	n/a	n/a	-999	16	[0, 0, 0]	n/a	catFR1	0	R1144E
2320.155	0.007	1389281	COUNTDOWN_END	n/a	n/a	n/a	n/a	-999	16	[0, 0, 0]	n/a	catFR1	0	R1144E
2320.162	3.601	1389285	ORIENT	n/a	n/a	n/a	n/a	-999	16	[0, 0, 0]	n/a	catFR1	0	R1144E
2323.763	2.433	1391085	WORD	n/a	wordpools/wordpool_categorized_EN.txt	SHEEP	FarmAnimals	1	16	[0, 0, 0]	n/a	catFR1	0	R1144E
2326.196	2.585	1392301	WORD	n/a	wordpools/wordpool_categorized_EN.txt	ROOSTER	FarmAnimals	2	16	[0, 0, 0]	n/a	catFR1	0	R1144E
2328.781	2.449	1393594	WORD	n/a	wordpools/wordpool_categorized_EN.txt	COBBLER	Desserts	3	16	[0, 0, 0]	n/a	catFR1	0	R1144E
2331.23	2.535	1394818	WORD	n/a	wordpools/wordpool_categorized_EN.txt	MOUSSE	Desserts	4	16	[0, 0, 0]	n/a	catFR1	0	R1144E
2333.765	2.433	1396086	WORD	n/a	wordpools/wordpool_categorized_EN.txt	MOPED	Vehicles	5	16	[0, 0, 0]	n/a	catFR1	0	R1144E
2336.198	2.634	1397302	WORD	n/a	wordpools/wordpool_categorized_EN.txt	PLANE	Vehicles	6	16	[0, 0, 0]	n/a	catFR1	0	R1144E
2338.832	2.5	1398619	WORD	n/a	wordpools/wordpool_categorized_EN.txt	PASTRY	Desserts	7	16	[0, 0, 0]	n/a	catFR1	0	R1144E
2341.332	2.418	1399869	WORD	n/a	wordpools/wordpool_categorized_EN.txt	CHEESECAKE	Desserts	8	16	[0, 0, 0]	n/a	catFR1	0	R1144E
2343.75	2.399	1401078	WORD	n/a	wordpools/wordpool_categorized_EN.txt	PIG	FarmAnimals	9	16	[0, 0, 0]	n/a	catFR1	0	R1144E
2346.149	2.384	1402277	WORD	n/a	wordpools/wordpool_categorized_EN.txt	TURKEY	FarmAnimals	10	16	[0, 0, 0]	n/a	catFR1	0	R1144E
2348.533	2.384	1403469	WORD	n/a	wordpools/wordpool_categorized_EN.txt	BOAT	Vehicles	11	16	[0, 0, 0]	n/a	catFR1	0	R1144E
2350.917	1.617	1404661	WORD	n/a	wordpools/wordpool_categorized_EN.txt	MOTORCYCLE	Vehicles	12	16	[0, 0, 0]	n/a	catFR1	0	R1144E
2352.534	0.001	1405470	DISTRACT_START	n/a	n/a	n/a	n/a	-999	16	[0, 0, 0]	n/a	catFR1	0	R1144E
2352.535	0.016	1405470	START	n/a	n/a	n/a	n/a	-999	16	[-999, -999, -999]	n/a	catFR1	0	R1144E
2352.551	6.617	1405478	PROB	6.587	n/a	n/a	n/a	-999	16	[5, 5, 3]	13.0	catFR1	0	R1144E
2359.168	9.269	1408786	PROB	9.244	n/a	n/a	n/a	-999	16	[9, 3, 6]	18.0	catFR1	0	R1144E
2368.437	7.007	1413421	PROB	7.007	n/a	n/a	n/a	-999	16	[4, 3, 5]	12.0	catFR1	0	R1144E
2375.444	0.011	1416924	STOP	n/a	n/a	n/a	n/a	-999	16	[-999, -999, -999]	n/a	catFR1	0	R1144E
2375.455	1.05	1416929	DISTRACT_END	n/a	n/a	n/a	n/a	-999	16	[0, 0, 0]	n/a	catFR1	0	R1144E
2376.505	1.967	1417454	REC_START	n/a	n/a	n/a	n/a	-999	16	[0, 0, 0]	n/a	catFR1	0	R1144E
2378.472	5.14	1418438	REC_WORD	1.967	n/a	MOTORCYCLE	Vehicles	12	16	[0, 0, 0]	n/a	catFR1	0	R1144E
2383.612	12.78	1421008	REC_WORD	7.107	n/a	COBBLER	Desserts	3	16	[0, 0, 0]	n/a	catFR1	0	R1144E
2396.392	10.125	1427397	REC_WORD	19.887	n/a	SHEEP	FarmAnimals	1	16	[0, 0, 0]	n/a	catFR1	0	R1144E
2406.517	4.278	1432459	REC_END	n/a	n/a	n/a	n/a	-999	16	[0, 0, 0]	n/a	catFR1	0	R1144E
2410.795	0.0	1434598	TRIAL	n/a	n/a	n/a	n/a	-999	17	[0, 0, 0]	n/a	catFR1	0	R1144E
2410.795	10.428	1434598	COUNTDOWN_START	n/a	n/a	n/a	n/a	-999	17	[0, 0, 0]	n/a	catFR1	0	R1144E
2421.223	0.006	1439812	COUNTDOWN_END	n/a	n/a	n/a	n/a	-999	17	[0, 0, 0]	n/a	catFR1	0	R1144E
2421.229	3.569	1439815	ORIENT	n/a	n/a	n/a	n/a	-999	17	[0, 0, 0]	n/a	catFR1	0	R1144E
2424.798	2.582	1441599	WORD	n/a	wordpools/wordpool_categorized_EN.txt	TELEVISION	Electronics	1	17	[0, 0, 0]	n/a	catFR1	0	R1144E
2427.38	2.568	1442890	WORD	n/a	wordpools/wordpool_categorized_EN.txt	TABLET	Electronics	2	17	[0, 0, 0]	n/a	catFR1	0	R1144E
2429.948	2.383	1444174	WORD	n/a	wordpools/wordpool_categorized_EN.txt	MAPLE	Trees	3	17	[0, 0, 0]	n/a	catFR1	0	R1144E
2432.331	2.601	1445365	WORD	n/a	wordpools/wordpool_categorized_EN.txt	HICKORY	Trees	4	17	[0, 0, 0]	n/a	catFR1	0	R1144E
2434.932	2.45	1446666	WORD	n/a	wordpools/wordpool_categorized_EN.txt	SNOW	Weather	5	17	[0, 0, 0]	n/a	catFR1	0	R1144E
2437.382	2.484	1447891	WORD	n/a	wordpools/wordpool_categorized_EN.txt	DRIZZLE	Weather	6	17	[0, 0, 0]	n/a	catFR1	0	R1144E
2439.866	2.384	1449133	WORD	n/a	wordpools/wordpool_categorized_EN.txt	COMPUTER	Electronics	7	17	[0, 0, 0]	n/a	catFR1	0	R1144E
2442.25	2.418	1450325	WORD	n/a	wordpools/wordpool_categorized_EN.txt	RADIO	Electronics	8	17	[0, 0, 0]	n/a	catFR1	0	R1144E
2444.668	2.483	1451533	WORD	n/a	wordpools/wordpool_categorized_EN.txt	WIND	Weather	9	17	[0, 0, 0]	n/a	catFR1	0	R1144E
2447.151	2.417	1452775	WORD	n/a	wordpools/wordpool_categorized_EN.txt	FOG	Weather	10	17	[0, 0, 0]	n/a	catFR1	0	R1144E
2449.568	2.617	1453983	WORD	n/a	wordpools/wordpool_categorized_EN.txt	CYPRESS	Trees	11	17	[0, 0, 0]	n/a	catFR1	0	R1144E
2452.185	1.618	1455292	WORD	n/a	wordpools/wordpool_categorized_EN.txt	BIRCH	Trees	12	17	[0, 0, 0]	n/a	catFR1	0	R1144E
2453.803	0.001	1456101	DISTRACT_START	n/a	n/a	n/a	n/a	-999	17	[0, 0, 0]	n/a	catFR1	0	R1144E
2453.804	0.015	1456101	START	n/a	n/a	n/a	n/a	-999	17	[-999, -999, -999]	n/a	catFR1	0	R1144E
2453.819	9.184	1456109	PROB	9.164	n/a	n/a	n/a	-999	17	[7, 3, 6]	16.0	catFR1	0	R1144E
2463.003	4.568	1460700	PROB	4.532	n/a	n/a	n/a	-999	17	[6, 1, 7]	14.0	catFR1	0	R1144E
2467.571	5.684	1462984	PROB	5.652	n/a	n/a	n/a	-999	17	[9, 8, 3]	20.0	catFR1	0	R1144E
2473.255	6.708	1465826	PROB	6.708	n/a	n/a	n/a	-999	17	[8, 6, 2]	16.0	catFR1	0	R1144E
2479.963	0.01	1469180	STOP	n/a	n/a	n/a	n/a	-999	17	[-999, -999, -999]	n/a	catFR1	0	R1144E
2479.973	1.151	1469185	DISTRACT_END	n/a	n/a	n/a	n/a	-999	17	[0, 0, 0]	n/a	catFR1	0	R1144E
2481.124	20.398	1469760	REC_START	n/a	n/a	n/a	n/a	-999	17	[0, 0, 0]	n/a	catFR1	0	R1144E
2501.522	9.61	1479958	REC_WORD_VV	20.398	n/a	<>	n/a	-999	17	[0, 0, 0]	n/a	catFR1	0	R1144E
2511.132	5.615	1484763	REC_END	n/a	n/a	n/a	n/a	-999	17	[0, 0, 0]	n/a	catFR1	0	R1144E
2516.747	0.0	1487570	TRIAL	n/a	n/a	n/a	n/a	-999	18	[0, 0, 0]	n/a	catFR1	0	R1144E
2516.747	10.428	1487570	COUNTDOWN_START	n/a	n/a	n/a	n/a	-999	18	[0, 0, 0]	n/a	catFR1	0	R1144E
2527.175	0.006	1492784	COUNTDOWN_END	n/a	n/a	n/a	n/a	-999	18	[0, 0, 0]	n/a	catFR1	0	R1144E
2527.181	3.701	1492787	ORIENT	n/a	n/a	n/a	n/a	-999	18	[0, 0, 0]	n/a	catFR1	0	R1144E
2530.882	2.551	1494637	WORD	n/a	wordpools/wordpool_categorized_EN.txt	HEAD	BodyParts	1	18	[0, 0, 0]	n/a	catFR1	0	R1144E
2533.433	2.416	1495913	WORD	n/a	wordpools/wordpool_categorized_EN.txt	ARM	BodyParts	2	18	[0, 0, 0]	n/a	catFR1	0	R1144E
2535.849	2.551	1497121	WORD	n/a	wordpools/wordpool_categorized_EN.txt	HEN	FarmAnimals	3	18	[0, 0, 0]	n/a	catFR1	0	R1144E
2538.4	2.5	1498396	WORD	n/a	wordpools/wordpool_categorized_EN.txt	HORSE	FarmAnimals	4	18	[0, 0, 0]	n/a	catFR1	0	R1144E
2540.9	2.434	1499646	WORD	n/a	wordpools/wordpool_categorized_EN.txt	STRAINER	KitchenTools	5	18	[0, 0, 0]	n/a	catFR1	0	R1144E
2543.334	2.402	1500863	WORD	n/a	wordpools/wordpool_categorized_EN.txt	SPOON	KitchenTools	6	18	[0, 0, 0]	n/a	catFR1	0	R1144E
2545.736	2.382	1502064	WORD	n/a	wordpools/wordpool_categorized_EN.txt	CALF	FarmAnimals	7	18	[0, 0, 0]	n/a	catFR1	0	R1144E
2548.118	2.367	1503255	WORD	n/a	wordpools/wordpool_categorized_EN.txt	LAMB	FarmAnimals	8	18	[0, 0, 0]	n/a	catFR1	0	R1144E
2550.485	2.384	1504438	WORD	n/a	wordpools/wordpool_categorized_EN.txt	TOE	BodyParts	9	18	[0, 0, 0]	n/a	catFR1	0	R1144E
2552.869	2.417	1505630	WORD	n/a	wordpools/wordpool_categorized_EN.txt	EAR	BodyParts	10	18	[0, 0, 0]	n/a	catFR1	0	R1144E
2555.286	2.468	1506839	WORD	n/a	wordpools/wordpool_categorized_EN.txt	KNIFE	KitchenTools	11	18	[0, 0, 0]	n/a	catFR1	0	R1144E
2557.754	1.616	1508073	WORD	n/a	wordpools/wordpool_categorized_EN.txt	WHISK	KitchenTools	12	18	[0, 0, 0]	n/a	catFR1	0	R1144E
2559.37	0.001	1508881	DISTRACT_START	n/a	n/a	n/a	n/a	-999	18	[0, 0, 0]	n/a	catFR1	0	R1144E
2559.371	0.016	1508881	START	n/a	n/a	n/a	n/a	-999	18	[-999, -999, -999]	n/a	catFR1	0	R1144E
2559.387	7.336	1508889	PROB	7.313	n/a	n/a	n/a	-999	18	[3, 8, 5]	16.0	catFR1	0	R1144E
2566.723	6.433	1512557	PROB	6.407	n/a	n/a	n/a	-999	18	[4, 3, 6]	13.0	catFR1	0	R1144E
2573.156	6.717	1515773	PROB	6.717	n/a	n/a	n/a	-999	18	[5, 1, 2]	8.0	catFR1	0	R1144E
2579.873	0.018	1519131	STOP	n/a	n/a	n/a	n/a	-999	18	[-999, -999, -999]	n/a	catFR1	0	R1144E
2579.891	1.05	1519140	DISTRACT_END	n/a	n/a	n/a	n/a	-999	18	[0, 0, 0]	n/a	catFR1	0	R1144E
2580.941	2.147	1519665	REC_START	n/a	n/a	n/a	n/a	-999	18	[0, 0, 0]	n/a	catFR1	0	R1144E
2583.088	1.148	1520739	REC_WORD	2.147	n/a	HEAD	BodyParts	1	18	[0, 0, 0]	n/a	catFR1	0	R1144E
2584.236	16.043	1521313	REC_WORD	3.295	n/a	ARM	BodyParts	2	18	[0, 0, 0]	n/a	catFR1	0	R1144E
2600.279	9.063	1529334	REC_WORD	19.338	n/a	HORSE	FarmAnimals	4	18	[0, 0, 0]	n/a	catFR1	0	R1144E
2609.342	1.612	1533865	REC_WORD_VV	28.401	n/a	<>	n/a	-999	18	[0, 0, 0]	n/a	catFR1	0	R1144E
2610.954	4.66	1534671	REC_END	n/a	n/a	n/a	n/a	-999	18	[0, 0, 0]	n/a	catFR1	0	R1144E
2615.614	0.0	1537001	COUNTDOWN_START	n/a	n/a	n/a	n/a	-999	19	[0, 0, 0]	n/a	catFR1	0	R1144E
2615.614	10.428	1537001	TRIAL	n/a	n/a	n/a	n/a	-999	19	[0, 0, 0]	n/a	catFR1	0	R1144E
2626.042	0.007	1542214	COUNTDOWN_END	n/a	n/a	n/a	n/a	-999	19	[0, 0, 0]	n/a	catFR1	0	R1144E
2626.049	3.735	1542218	ORIENT	n/a	n/a	n/a	n/a	-999	19	[0, 0, 0]	n/a	catFR1	0	R1144E
2629.784	2.432	1544085	WORD	n/a	wordpools/wordpool_categorized_EN.txt	DAISY	Flowers	1	19	[0, 0, 0]	n/a	catFR1	0	R1144E
2632.216	2.519	1545301	WORD	n/a	wordpools/wordpool_categorized_EN.txt	LILAC	Flowers	2	19	[0, 0, 0]	n/a	catFR1	0	R1144E
2634.735	2.415	1546560	WORD	n/a	wordpools/wordpool_categorized_EN.txt	GNAT	Insects	3	19	[0, 0, 0]	n/a	catFR1	0	R1144E
2637.15	2.602	1547768	WORD	n/a	wordpools/wordpool_categorized_EN.txt	FLY	Insects	4	19	[0, 0, 0]	n/a	catFR1	0	R1144E
2639.752	2.616	1549069	WORD	n/a	wordpools/wordpool_categorized_EN.txt	PEAS	Vegetables	5	19	[0, 0, 0]	n/a	catFR1	0	R1144E
2642.368	2.567	1550377	WORD	n/a	wordpools/wordpool_categorized_EN.txt	BROCCOLI	Vegetables	6	19	[0, 0, 0]	n/a	catFR1	0	R1144E
2644.935	2.534	1551660	WORD	n/a	wordpools/wordpool_categorized_EN.txt	ROACH	Insects	7	19	[0, 0, 0]	n/a	catFR1	0	R1144E
2647.469	2.567	1552927	WORD	n/a	wordpools/wordpool_categorized_EN.txt	MOTH	Insects	8	19	[0, 0, 0]	n/a	catFR1	0	R1144E
2650.036	2.401	1554210	WORD	n/a	wordpools/wordpool_categorized_EN.txt	SUNFLOWER	Flowers	9	19	[0, 0, 0]	n/a	catFR1	0	R1144E
2652.437	2.45	1555411	WORD	n/a	wordpools/wordpool_categorized_EN.txt	DAFFODIL	Flowers	10	19	[0, 0, 0]	n/a	catFR1	0	R1144E
2654.887	2.484	1556636	WORD	n/a	wordpools/wordpool_categorized_EN.txt	SPINACH	Vegetables	11	19	[0, 0, 0]	n/a	catFR1	0	R1144E
2657.371	1.617	1557878	WORD	n/a	wordpools/wordpool_categorized_EN.txt	CORN	Vegetables	12	19	[0, 0, 0]	n/a	catFR1	0	R1144E
2658.988	0.001	1558686	DISTRACT_START	n/a	n/a	n/a	n/a	-999	19	[0, 0, 0]	n/a	catFR1	0	R1144E
2658.989	0.016	1558687	START	n/a	n/a	n/a	n/a	-999	19	[-999, -999, -999]	n/a	catFR1	0	R1144E
2659.005	5.967	1558695	PROB	5.946	n/a	n/a	n/a	-999	19	[8, 3, 3]	14.0	catFR1	0	R1144E
2664.972	8.335	1561678	PROB	8.304	n/a	n/a	n/a	-999	19	[7, 5, 8]	20.0	catFR1	0	R1144E
2673.307	5.151	1565845	PROB	5.121	n/a	n/a	n/a	-999	19	[2, 8, 6]	16.0	catFR1	0	R1144E
2678.458	4.411	1568420	PROB	4.411	n/a	n/a	n/a	-999	19	[7, 6, 1]	14.0	catFR1	0	R1144E
2682.869	0.006	1570626	STOP	n/a	n/a	n/a	n/a	-999	19	[-999, -999, -999]	n/a	catFR1	0	R1144E
2682.875	1.151	1570629	DISTRACT_END	n/a	n/a	n/a	n/a	-999	19	[0, 0, 0]	n/a	catFR1	0	R1144E
2684.026	4.405	1571204	REC_START	n/a	n/a	n/a	n/a	-999	19	[0, 0, 0]	n/a	catFR1	0	R1144E
2688.431	4.967	1573407	REC_WORD	4.405	n/a	COLLIFLOWER	n/a	-999	19	[0, 0, 0]	n/a	catFR1	0	R1144E
2693.398	14.97	1575890	REC_WORD	9.372	n/a	BROCCOLI	Vegetables	6	19	[0, 0, 0]	n/a	catFR1	0	R1144E
2708.368	5.671	1583374	REC_WORD_VV	24.342	n/a	<>	n/a	-999	19	[0, 0, 0]	n/a	catFR1	0	R1144E
2714.039	3.376	1586210	REC_END	n/a	n/a	n/a	n/a	-999	19	[0, 0, 0]	n/a	catFR1	0	R1144E
2717.415	0.0	1587898	TRIAL	n/a	n/a	n/a	n/a	-999	20	[0, 0, 0]	n/a	catFR1	0	R1144E
2717.415	10.428	1587898	COUNTDOWN_START	n/a	n/a	n/a	n/a	-999	20	[0, 0, 0]	n/a	catFR1	0	R1144E
2727.843	0.007	1593111	COUNTDOWN_END	n/a	n/a	n/a	n/a	-999	20	[0, 0, 0]	n/a	catFR1	0	R1144E
2727.85	3.784	1593115	ORIENT	n/a	n/a	n/a	n/a	-999	20	[0, 0, 0]	n/a	catFR1	0	R1144E
2731.634	2.567	1595007	WORD	n/a	wordpools/wordpool_categorized_EN.txt	BEACH	Landscapes	1	20	[0, 0, 0]	n/a	catFR1	0	R1144E
2734.201	2.568	1596290	WORD	n/a	wordpools/wordpool_categorized_EN.txt	LAKE	Landscapes	2	20	[0, 0, 0]	n/a	catFR1	0	R1144E
2736.769	2.45	1597574	WORD	n/a	wordpools/wordpool_categorized_EN.txt	FINCH	Birds	3	20	[0, 0, 0]	n/a	catFR1	0	R1144E
2739.219	2.468	1598799	WORD	n/a	wordpools/wordpool_categorized_EN.txt	PIGEON	Birds	4	20	[0, 0, 0]	n/a	catFR1	0	R1144E
2741.687	2.432	1600033	WORD	n/a	wordpools/wordpool_categorized_EN.txt	LADYBUG	Insects	5	20	[0, 0, 0]	n/a	catFR1	0	R1144E
2744.119	2.484	1601249	WORD	n/a	wordpools/wordpool_categorized_EN.txt	ANT	Insects	6	20	[0, 0, 0]	n/a	catFR1	0	R1144E
2746.603	2.501	1602491	WORD	n/a	wordpools/wordpool_categorized_EN.txt	VALLEY	Landscapes	7	20	[0, 0, 0]	n/a	catFR1	0	R1144E
2749.104	2.5	1603741	WORD	n/a	wordpools/wordpool_categorized_EN.txt	MOUNTAIN	Landscapes	8	20	[0, 0, 0]	n/a	catFR1	0	R1144E
2751.604	2.551	1604991	WORD	n/a	wordpools/wordpool_categorized_EN.txt	CRICKET	Insects	9	20	[0, 0, 0]	n/a	catFR1	0	R1144E
2754.155	2.483	1606266	WORD	n/a	wordpools/wordpool_categorized_EN.txt	BUTTERFLY	Insects	10	20	[0, 0, 0]	n/a	catFR1	0	R1144E
2756.638	2.501	1607508	WORD	n/a	wordpools/wordpool_categorized_EN.txt	DUCK	Birds	11	20	[0, 0, 0]	n/a	catFR1	0	R1144E
2759.139	1.601	1608758	WORD	n/a	wordpools/wordpool_categorized_EN.txt	SPARROW	Birds	12	20	[0, 0, 0]	n/a	catFR1	0	R1144E
2760.74	0.001	1609559	DISTRACT_START	n/a	n/a	n/a	n/a	-999	20	[0, 0, 0]	n/a	catFR1	0	R1144E
2760.741	0.016	1609559	START	n/a	n/a	n/a	n/a	-999	20	[-999, -999, -999]	n/a	catFR1	0	R1144E
2760.757	6.3	1609567	PROB	6.277	n/a	n/a	n/a	-999	20	[4, 7, 2]	13.0	catFR1	0	R1144E
2767.057	6.901	1612717	PROB	6.876	n/a	n/a	n/a	-999	20	[6, 6, 8]	20.0	catFR1	0	R1144E
2773.958	5.084	1616167	PROB	5.055	n/a	n/a	n/a	-999	20	[4, 3, 9]	16.0	catFR1	0	R1144E
2779.042	5.58	1618709	PROB	5.58	n/a	n/a	n/a	-999	20	[7, 5, 1]	13.0	catFR1	0	R1144E
2784.622	0.005	1621499	STOP	n/a	n/a	n/a	n/a	-999	20	[-999, -999, -999]	n/a	catFR1	0	R1144E
2784.627	1.185	1621501	DISTRACT_END	n/a	n/a	n/a	n/a	-999	20	[0, 0, 0]	n/a	catFR1	0	R1144E
2785.812	2.822	1622094	REC_START	n/a	n/a	n/a	n/a	-999	20	[0, 0, 0]	n/a	catFR1	0	R1144E
2788.634	0.554	1623505	REC_WORD_VV	2.822	n/a	<>	n/a	-999	20	[0, 0, 0]	n/a	catFR1	0	R1144E
2789.188	1.801	1623782	REC_WORD	3.376	n/a	BEACH	Landscapes	1	20	[0, 0, 0]	n/a	catFR1	0	R1144E
2790.989	1.63	1624682	REC_WORD	5.177	n/a	LAKE	Landscapes	2	20	[0, 0, 0]	n/a	catFR1	0	R1144E
2792.619	5.086	1625497	REC_WORD	6.807	n/a	MOUNTAIN	Landscapes	8	20	[0, 0, 0]	n/a	catFR1	0	R1144E
2797.705	1.246	1628040	REC_WORD	11.893	n/a	BUTTERFLY	Insects	10	20	[0, 0, 0]	n/a	catFR1	0	R1144E
2798.951	10.872	1628663	REC_WORD	13.139	n/a	COCKROACH	n/a	-999	20	[0, 0, 0]	n/a	catFR1	0	R1144E
2809.823	0.962	1634098	REC_WORD	24.011	n/a	GNAT	n/a	-999	20	[0, 0, 0]	n/a	catFR1	0	R1144E
2810.785	5.036	1634579	REC_WORD	24.973	n/a	FLY	n/a	-999	20	[0, 0, 0]	n/a	catFR1	0	R1144E
2815.821	3.812	1637097	REC_END	n/a	n/a	n/a	n/a	-999	20	[0, 0, 0]	n/a	catFR1	0	R1144E
2819.633	0.0	1639003	COUNTDOWN_START	n/a	n/a	n/a	n/a	-999	21	[0, 0, 0]	n/a	catFR1	0	R1144E
2819.633	10.428	1639003	TRIAL	n/a	n/a	n/a	n/a	-999	21	[0, 0, 0]	n/a	catFR1	0	R1144E
2830.061	0.007	1644217	COUNTDOWN_END	n/a	n/a	n/a	n/a	-999	21	[0, 0, 0]	n/a	catFR1	0	R1144E
2830.068	3.834	1644220	ORIENT	n/a	n/a	n/a	n/a	-999	21	[0, 0, 0]	n/a	catFR1	0	R1144E
2833.902	2.534	1646137	WORD	n/a	wordpools/wordpool_categorized_EN.txt	TOASTER	Appliances	1	21	[0, 0, 0]	n/a	catFR1	0	R1144E
2836.436	2.417	1647404	WORD	n/a	wordpools/wordpool_categorized_EN.txt	STOVE	Appliances	2	21	[0, 0, 0]	n/a	catFR1	0	R1144E
2838.853	2.617	1648613	WORD	n/a	wordpools/wordpool_categorized_EN.txt	SHORTS	Clothing	3	21	[0, 0, 0]	n/a	catFR1	0	R1144E
2841.47	2.45	1649921	WORD	n/a	wordpools/wordpool_categorized_EN.txt	SHIRT	Clothing	4	21	[0, 0, 0]	n/a	catFR1	0	R1144E
2843.92	2.518	1651146	WORD	n/a	wordpools/wordpool_categorized_EN.txt	GOOSE	Birds	5	21	[0, 0, 0]	n/a	catFR1	0	R1144E
2846.438	2.401	1652405	WORD	n/a	wordpools/wordpool_categorized_EN.txt	BLUEBIRD	Birds	6	21	[0, 0, 0]	n/a	catFR1	0	R1144E
2848.839	2.566	1653605	WORD	n/a	wordpools/wordpool_categorized_EN.txt	SOCKS	Clothing	7	21	[0, 0, 0]	n/a	catFR1	0	R1144E
2851.405	2.501	1654888	WORD	n/a	wordpools/wordpool_categorized_EN.txt	JEANS	Clothing	8	21	[0, 0, 0]	n/a	catFR1	0	R1144E
2853.906	2.617	1656138	WORD	n/a	wordpools/wordpool_categorized_EN.txt	VACUUM	Appliances	9	21	[0, 0, 0]	n/a	catFR1	0	R1144E
2856.523	2.533	1657447	WORD	n/a	wordpools/wordpool_categorized_EN.txt	OVEN	Appliances	10	21	[0, 0, 0]	n/a	catFR1	0	R1144E
2859.056	2.384	1658713	WORD	n/a	wordpools/wordpool_categorized_EN.txt	CARDINAL	Birds	11	21	[0, 0, 0]	n/a	catFR1	0	R1144E
2861.44	1.617	1659905	WORD	n/a	wordpools/wordpool_categorized_EN.txt	CROW	Birds	12	21	[0, 0, 0]	n/a	catFR1	0	R1144E
2863.057	0.001	1660714	DISTRACT_START	n/a	n/a	n/a	n/a	-999	21	[0, 0, 0]	n/a	catFR1	0	R1144E
2863.058	0.016	1660714	START	n/a	n/a	n/a	n/a	-999	21	[-999, -999, -999]	n/a	catFR1	0	R1144E
2863.074	7.434	1660722	PROB	7.403	n/a	n/a	n/a	-999	21	[6, 4, 6]	16.0	catFR1	0	R1144E
2870.508	4.302	1664439	PROB	4.274	n/a	n/a	n/a	-999	21	[4, 1, 6]	11.0	catFR1	0	R1144E
2874.81	4.483	1666590	PROB	4.459	n/a	n/a	n/a	-999	21	[7, 2, 5]	14.0	catFR1	0	R1144E
2879.293	4.248	1668831	PROB	4.248	n/a	n/a	n/a	-999	21	[9, 1, 7]	17.0	catFR1	0	R1144E
2883.541	0.003	1670955	STOP	n/a	n/a	n/a	n/a	-999	21	[-999, -999, -999]	n/a	catFR1	0	R1144E
2883.544	1.102	1670956	DISTRACT_END	n/a	n/a	n/a	n/a	-999	21	[0, 0, 0]	n/a	catFR1	0	R1144E
2884.646	3.521	1671507	REC_START	n/a	n/a	n/a	n/a	-999	21	[0, 0, 0]	n/a	catFR1	0	R1144E
2888.167	2.383	1673268	REC_WORD	3.521	n/a	SHORTS	Clothing	3	21	[0, 0, 0]	n/a	catFR1	0	R1144E
2890.55	2.36	1674459	REC_WORD	5.904	n/a	SOCKS	Clothing	7	21	[0, 0, 0]	n/a	catFR1	0	R1144E
2892.91	1.837	1675639	REC_WORD	8.264	n/a	HAT	n/a	-999	21	[0, 0, 0]	n/a	catFR1	0	R1144E
2894.747	4.518	1676558	REC_WORD	10.101	n/a	SHIRT	Clothing	4	21	[0, 0, 0]	n/a	catFR1	0	R1144E
2899.265	10.851	1678816	REC_WORD	14.619	n/a	CARDINAL	Birds	11	21	[0, 0, 0]	n/a	catFR1	0	R1144E
2910.116	4.539	1684242	REC_WORD	25.47	n/a	TOASTER	Appliances	1	21	[0, 0, 0]	n/a	catFR1	0	R1144E
2914.655	4.545	1686511	REC_END	n/a	n/a	n/a	n/a	-999	21	[0, 0, 0]	n/a	catFR1	0	R1144E
2919.2	0.001	1688783	COUNTDOWN_START	n/a	n/a	n/a	n/a	-999	22	[0, 0, 0]	n/a	catFR1	0	R1144E
2919.201	10.427	1688784	TRIAL	n/a	n/a	n/a	n/a	-999	22	[0, 0, 0]	n/a	catFR1	0	R1144E
2929.628	0.008	1693997	COUNTDOWN_END	n/a	n/a	n/a	n/a	-999	22	[0, 0, 0]	n/a	catFR1	0	R1144E
2929.636	3.834	1694001	ORIENT	n/a	n/a	n/a	n/a	-999	22	[0, 0, 0]	n/a	catFR1	0	R1144E
2933.47	2.583	1695918	WORD	n/a	wordpools/wordpool_categorized_EN.txt	BINDER	OfficeSupplies	1	22	[0, 0, 0]	n/a	catFR1	0	R1144E
2936.053	2.602	1697209	WORD	n/a	wordpools/wordpool_categorized_EN.txt	RULER	OfficeSupplies	2	22	[0, 0, 0]	n/a	catFR1	0	R1144E
2938.655	2.532	1698510	WORD	n/a	wordpools/wordpool_categorized_EN.txt	FOUNDATION	Building	3	22	[0, 0, 0]	n/a	catFR1	0	R1144E
2941.187	2.368	1699776	WORD	n/a	wordpools/wordpool_categorized_EN.txt	STAIRS	Building	4	22	[0, 0, 0]	n/a	catFR1	0	R1144E
2943.555	2.433	1700960	WORD	n/a	wordpools/wordpool_categorized_EN.txt	OYSTER	OceanAnimals	5	22	[0, 0, 0]	n/a	catFR1	0	R1144E
2945.988	2.501	1702176	WORD	n/a	wordpools/wordpool_categorized_EN.txt	DOLPHIN	OceanAnimals	6	22	[0, 0, 0]	n/a	catFR1	0	R1144E
2948.489	2.534	1703427	WORD	n/a	wordpools/wordpool_categorized_EN.txt	FOLDER	OfficeSupplies	7	22	[0, 0, 0]	n/a	catFR1	0	R1144E
2951.023	2.583	1704694	WORD	n/a	wordpools/wordpool_categorized_EN.txt	STAPLER	OfficeSupplies	8	22	[0, 0, 0]	n/a	catFR1	0	R1144E
2953.606	2.518	1705985	WORD	n/a	wordpools/wordpool_categorized_EN.txt	SHRIMP	OceanAnimals	9	22	[0, 0, 0]	n/a	catFR1	0	R1144E
2956.124	2.618	1707244	WORD	n/a	wordpools/wordpool_categorized_EN.txt	LOBSTER	OceanAnimals	10	22	[0, 0, 0]	n/a	catFR1	0	R1144E
2958.742	2.532	1708553	WORD	n/a	wordpools/wordpool_categorized_EN.txt	WINDOW	Building	11	22	[0, 0, 0]	n/a	catFR1	0	R1144E
2961.274	1.617	1709819	WORD	n/a	wordpools/wordpool_categorized_EN.txt	WALL	Building	12	22	[0, 0, 0]	n/a	catFR1	0	R1144E
2962.891	0.001	1710627	DISTRACT_START	n/a	n/a	n/a	n/a	-999	22	[0, 0, 0]	n/a	catFR1	0	R1144E
2962.892	0.016	1710628	START	n/a	n/a	n/a	n/a	-999	22	[-999, -999, -999]	n/a	catFR1	0	R1144E
2962.908	7.886	1710636	PROB	7.865	n/a	n/a	n/a	-999	22	[1, 7, 2]	10.0	catFR1	0	R1144E
2970.794	6.717	1714579	PROB	6.689	n/a	n/a	n/a	-999	22	[7, 1, 2]	10.0	catFR1	0	R1144E
2977.511	4.484	1717937	PROB	4.452	n/a	n/a	n/a	-999	22	[2, 8, 9]	19.0	catFR1	0	R1144E
2981.995	5.91	1720179	PROB	5.91	n/a	n/a	n/a	-999	22	[8, 4, 9]	21.0	catFR1	0	R1144E
2987.905	0.008	1723133	STOP	n/a	n/a	n/a	n/a	-999	22	[-999, -999, -999]	n/a	catFR1	0	R1144E
2987.913	1.1	1723137	DISTRACT_END	n/a	n/a	n/a	n/a	-999	22	[0, 0, 0]	n/a	catFR1	0	R1144E
2989.013	6.325	1723687	REC_START	n/a	n/a	n/a	n/a	-999	22	[0, 0, 0]	n/a	catFR1	0	R1144E
2995.338	23.689	1726850	REC_WORD	6.325	n/a	SHRIMP	OceanAnimals	9	22	[0, 0, 0]	n/a	catFR1	0	R1144E
3019.027	5.392	1738693	REC_END	n/a	n/a	n/a	n/a	-999	22	[0, 0, 0]	n/a	catFR1	0	R1144E
3024.419	0.0	1741389	TRIAL	n/a	n/a	n/a	n/a	-999	23	[0, 0, 0]	n/a	catFR1	0	R1144E
3024.419	10.428	1741389	COUNTDOWN_START	n/a	n/a	n/a	n/a	-999	23	[0, 0, 0]	n/a	catFR1	0	R1144E
3034.847	0.007	1746603	COUNTDOWN_END	n/a	n/a	n/a	n/a	-999	23	[0, 0, 0]	n/a	catFR1	0	R1144E
3034.854	3.651	1746606	ORIENT	n/a	n/a	n/a	n/a	-999	23	[0, 0, 0]	n/a	catFR1	0	R1144E
3038.505	2.4	1748432	WORD	n/a	wordpools/wordpool_categorized_EN.txt	PANTS	Clothing	1	23	[0, 0, 0]	n/a	catFR1	0	R1144E
3040.905	2.434	1749632	WORD	n/a	wordpools/wordpool_categorized_EN.txt	SHOES	Clothing	2	23	[0, 0, 0]	n/a	catFR1	0	R1144E
3043.339	2.617	1750849	WORD	n/a	wordpools/wordpool_categorized_EN.txt	BANJO	Instruments	3	23	[0, 0, 0]	n/a	catFR1	0	R1144E
3045.956	2.501	1752157	WORD	n/a	wordpools/wordpool_categorized_EN.txt	TROMBONE	Instruments	4	23	[0, 0, 0]	n/a	catFR1	0	R1144E
3048.457	2.467	1753407	WORD	n/a	wordpools/wordpool_categorized_EN.txt	TURTLE	OceanAnimals	5	23	[0, 0, 0]	n/a	catFR1	0	R1144E
3050.924	2.617	1754641	WORD	n/a	wordpools/wordpool_categorized_EN.txt	OCTOPUS	OceanAnimals	6	23	[0, 0, 0]	n/a	catFR1	0	R1144E
3053.541	2.417	1755949	WORD	n/a	wordpools/wordpool_categorized_EN.txt	BASS	Instruments	7	23	[0, 0, 0]	n/a	catFR1	0	R1144E
3055.958	2.6	1757158	WORD	n/a	wordpools/wordpool_categorized_EN.txt	TUBA	Instruments	8	23	[0, 0, 0]	n/a	catFR1	0	R1144E
3058.558	2.517	1758458	WORD	n/a	wordpools/wordpool_categorized_EN.txt	JACKET	Clothing	9	23	[0, 0, 0]	n/a	catFR1	0	R1144E
3061.075	2.517	1759716	WORD	n/a	wordpools/wordpool_categorized_EN.txt	COAT	Clothing	10	23	[0, 0, 0]	n/a	catFR1	0	R1144E
3063.592	2.601	1760974	WORD	n/a	wordpools/wordpool_categorized_EN.txt	JELLYFISH	OceanAnimals	11	23	[0, 0, 0]	n/a	catFR1	0	R1144E
3066.193	1.601	1762275	WORD	n/a	wordpools/wordpool_categorized_EN.txt	SQUID	OceanAnimals	12	23	[0, 0, 0]	n/a	catFR1	0	R1144E
3067.794	0.001	1763075	DISTRACT_START	n/a	n/a	n/a	n/a	-999	23	[0, 0, 0]	n/a	catFR1	0	R1144E
3067.795	0.016	1763076	START	n/a	n/a	n/a	n/a	-999	23	[-999, -999, -999]	n/a	catFR1	0	R1144E
3067.811	5.367	1763084	PROB	5.341	n/a	n/a	n/a	-999	23	[5, 5, 7]	17.0	catFR1	0	R1144E
3073.178	6.184	1765767	PROB	6.15	n/a	n/a	n/a	-999	23	[5, 7, 8]	20.0	catFR1	0	R1144E
3079.362	5.718	1768859	PROB	5.694	n/a	n/a	n/a	-999	23	[3, 4, 9]	16.0	catFR1	0	R1144E
3085.08	4.296	1771718	PROB	4.296	n/a	n/a	n/a	-999	23	[1, 3, 7]	11.0	catFR1	0	R1144E
3089.376	0.004	1773865	STOP	n/a	n/a	n/a	n/a	-999	23	[-999, -999, -999]	n/a	catFR1	0	R1144E
3089.38	1.168	1773867	DISTRACT_END	n/a	n/a	n/a	n/a	-999	23	[0, 0, 0]	n/a	catFR1	0	R1144E
3090.548	2.756	1774451	REC_START	n/a	n/a	n/a	n/a	-999	23	[0, 0, 0]	n/a	catFR1	0	R1144E
3093.304	1.099	1775829	REC_WORD	2.756	n/a	PANTS	Clothing	1	23	[0, 0, 0]	n/a	catFR1	0	R1144E
3094.403	0.963	1776379	REC_WORD	3.855	n/a	SHOES	Clothing	2	23	[0, 0, 0]	n/a	catFR1	0	R1144E
3095.366	0.988	1776860	REC_WORD	4.818	n/a	SOCKS	n/a	-999	23	[0, 0, 0]	n/a	catFR1	0	R1144E
3096.354	0.77	1777354	REC_WORD	5.806	n/a	COAT	Clothing	10	23	[0, 0, 0]	n/a	catFR1	0	R1144E
3097.124	23.432	1777739	REC_WORD	6.576	n/a	JACKET	Clothing	9	23	[0, 0, 0]	n/a	catFR1	0	R1144E
3120.556	4.947	1789454	REC_END	n/a	n/a	n/a	n/a	-999	23	[0, 0, 0]	n/a	catFR1	0	R1144E
3125.503	0.001	1791928	COUNTDOWN_START	n/a	n/a	n/a	n/a	-999	24	[0, 0, 0]	n/a	catFR1	0	R1144E
3125.504	10.427	1791928	TRIAL	n/a	n/a	n/a	n/a	-999	24	[0, 0, 0]	n/a	catFR1	0	R1144E
3135.931	0.008	1797141	COUNTDOWN_END	n/a	n/a	n/a	n/a	-999	24	[0, 0, 0]	n/a	catFR1	0	R1144E
3135.939	3.584	1797145	ORIENT	n/a	n/a	n/a	n/a	-999	24	[0, 0, 0]	n/a	catFR1	0	R1144E
3139.523	2.5	1798937	WORD	n/a	wordpools/wordpool_categorized_EN.txt	HUMIDITY	Weather	1	24	[0, 0, 0]	n/a	catFR1	0	R1144E
3142.023	2.534	1800187	WORD	n/a	wordpools/wordpool_categorized_EN.txt	CLOUD	Weather	2	24	[0, 0, 0]	n/a	catFR1	0	R1144E
3144.557	2.434	1801454	WORD	n/a	wordpools/wordpool_categorized_EN.txt	GRATER	KitchenTools	3	24	[0, 0, 0]	n/a	catFR1	0	R1144E
3146.991	2.567	1802671	WORD	n/a	wordpools/wordpool_categorized_EN.txt	CORKSCREW	KitchenTools	4	24	[0, 0, 0]	n/a	catFR1	0	R1144E
3149.558	2.517	1803954	WORD	n/a	wordpools/wordpool_categorized_EN.txt	PEN	OfficeSupplies	5	24	[0, 0, 0]	n/a	catFR1	0	R1144E
3152.075	2.467	1805213	WORD	n/a	wordpools/wordpool_categorized_EN.txt	GLUE	OfficeSupplies	6	24	[0, 0, 0]	n/a	catFR1	0	R1144E
3154.542	2.434	1806446	WORD	n/a	wordpools/wordpool_categorized_EN.txt	RAIN	Weather	7	24	[0, 0, 0]	n/a	catFR1	0	R1144E
3156.976	2.617	1807663	WORD	n/a	wordpools/wordpool_categorized_EN.txt	LIGHTNING	Weather	8	24	[0, 0, 0]	n/a	catFR1	0	R1144E
3159.593	2.617	1808972	WORD	n/a	wordpools/wordpool_categorized_EN.txt	ERASER	OfficeSupplies	9	24	[0, 0, 0]	n/a	catFR1	0	R1144E
3162.21	2.384	1810280	WORD	n/a	wordpools/wordpool_categorized_EN.txt	PAPER	OfficeSupplies	10	24	[0, 0, 0]	n/a	catFR1	0	R1144E
3164.594	2.567	1811472	WORD	n/a	wordpools/wordpool_categorized_EN.txt	SPATULA	KitchenTools	11	24	[0, 0, 0]	n/a	catFR1	0	R1144E
3167.161	1.618	1812755	WORD	n/a	wordpools/wordpool_categorized_EN.txt	TONGS	KitchenTools	12	24	[0, 0, 0]	n/a	catFR1	0	R1144E
3168.779	0.001	1813564	DISTRACT_START	n/a	n/a	n/a	n/a	-999	24	[0, 0, 0]	n/a	catFR1	0	R1144E
3168.78	0.015	1813565	START	n/a	n/a	n/a	n/a	-999	24	[-999, -999, -999]	n/a	catFR1	0	R1144E
3168.795	6.067	1813572	PROB	6.039	n/a	n/a	n/a	-999	24	[5, 3, 8]	16.0	catFR1	0	R1144E
3174.862	5.334	1816606	PROB	5.3	n/a	n/a	n/a	-999	24	[6, 2, 9]	17.0	catFR1	0	R1144E
3180.196	6.453	1819272	PROB	6.422	n/a	n/a	n/a	-999	24	[7, 7, 3]	17.0	catFR1	0	R1144E
3186.649	5.363	1822499	PROB	5.363	n/a	n/a	n/a	-999	24	[7, 1, 1]	9.0	catFR1	0	R1144E
3192.012	0.003	1825180	STOP	n/a	n/a	n/a	n/a	-999	24	[-999, -999, -999]	n/a	catFR1	0	R1144E
3192.015	1.034	1825181	DISTRACT_END	n/a	n/a	n/a	n/a	-999	24	[0, 0, 0]	n/a	catFR1	0	R1144E
3193.049	2.446	1825698	REC_START	n/a	n/a	n/a	n/a	-999	24	[0, 0, 0]	n/a	catFR1	0	R1144E
3195.495	1.527	1826921	REC_WORD	2.446	n/a	PEN	OfficeSupplies	5	24	[0, 0, 0]	n/a	catFR1	0	R1144E
3197.022	1.461	1827685	REC_WORD	3.973	n/a	GLUE	OfficeSupplies	6	24	[0, 0, 0]	n/a	catFR1	0	R1144E
3198.483	6.086	1828415	REC_WORD	5.434	n/a	HUMIDITY	Weather	1	24	[0, 0, 0]	n/a	catFR1	0	R1144E
3204.569	9.399	1831458	REC_WORD	11.52	n/a	RAIN	Weather	7	24	[0, 0, 0]	n/a	catFR1	0	R1144E
3213.968	3.584	1836157	REC_WORD	20.919	n/a	CLOUD	Weather	2	24	[0, 0, 0]	n/a	catFR1	0	R1144E
3217.552	5.51	1837949	REC_WORD	24.503	n/a	FOG	n/a	-999	24	[0, 0, 0]	n/a	catFR1	0	R1144E
3223.062	4.243	1840704	REC_END	n/a	n/a	n/a	n/a	-999	24	[0, 0, 0]	n/a	catFR1	0	R1144E
3227.305	0.0	1842825	TRIAL	n/a	n/a	n/a	n/a	-999	25	[0, 0, 0]	n/a	catFR1	0	R1144E
3227.305	10.428	1842825	COUNTDOWN_START	n/a	n/a	n/a	n/a	-999	25	[0, 0, 0]	n/a	catFR1	0	R1144E
3237.733	0.008	1848039	COUNTDOWN_END	n/a	n/a	n/a	n/a	-999	25	[0, 0, 0]	n/a	catFR1	0	R1144E
3237.741	3.666	1848043	ORIENT	n/a	n/a	n/a	n/a	-999	25	[0, 0, 0]	n/a	catFR1	0	R1144E
3241.407	2.402	1849876	WORD	n/a	wordpools/wordpool_categorized_EN.txt	SHELF	Furniture	1	25	[0, 0, 0]	n/a	catFR1	0	R1144E
3243.809	2.432	1851077	WORD	n/a	wordpools/wordpool_categorized_EN.txt	BED	Furniture	2	25	[0, 0, 0]	n/a	catFR1	0	R1144E
3246.241	2.452	1852293	WORD	n/a	wordpools/wordpool_categorized_EN.txt	CUCUMBER	Vegetables	3	25	[0, 0, 0]	n/a	catFR1	0	R1144E
3248.693	2.466	1853519	WORD	n/a	wordpools/wordpool_categorized_EN.txt	LETTUCE	Vegetables	4	25	[0, 0, 0]	n/a	catFR1	0	R1144E
3251.159	2.551	1854751	WORD	n/a	wordpools/wordpool_categorized_EN.txt	WILLOW	Trees	5	25	[0, 0, 0]	n/a	catFR1	0	R1144E
3253.71	2.583	1856027	WORD	n/a	wordpools/wordpool_categorized_EN.txt	SPRUCE	Trees	6	25	[0, 0, 0]	n/a	catFR1	0	R1144E
3256.293	2.452	1857318	WORD	n/a	wordpools/wordpool_categorized_EN.txt	DRESSER	Furniture	7	25	[0, 0, 0]	n/a	catFR1	0	R1144E
3258.745	2.466	1858544	WORD	n/a	wordpools/wordpool_categorized_EN.txt	RECLINER	Furniture	8	25	[0, 0, 0]	n/a	catFR1	0	R1144E
3261.211	2.451	1859777	WORD	n/a	wordpools/wordpool_categorized_EN.txt	PINE	Trees	9	25	[0, 0, 0]	n/a	catFR1	0	R1144E
3263.662	2.55	1861003	WORD	n/a	wordpools/wordpool_categorized_EN.txt	OAK	Trees	10	25	[0, 0, 0]	n/a	catFR1	0	R1144E
3266.212	2.468	1862277	WORD	n/a	wordpools/wordpool_categorized_EN.txt	CAULIFLOWER	Vegetables	11	25	[0, 0, 0]	n/a	catFR1	0	R1144E
3268.68	1.616	1863511	WORD	n/a	wordpools/wordpool_categorized_EN.txt	ONION	Vegetables	12	25	[0, 0, 0]	n/a	catFR1	0	R1144E
3270.296	0.0	1864319	DISTRACT_START	n/a	n/a	n/a	n/a	-999	25	[0, 0, 0]	n/a	catFR1	0	R1144E
3270.296	0.016	1864319	START	n/a	n/a	n/a	n/a	-999	25	[-999, -999, -999]	n/a	catFR1	0	R1144E
3270.312	6.035	1864327	PROB	6.005	n/a	n/a	n/a	-999	25	[3, 1, 6]	10.0	catFR1	0	R1144E
3276.347	5.468	1867345	PROB	5.438	n/a	n/a	n/a	-999	25	[2, 3, 1]	6.0	catFR1	0	R1144E
3281.815	4.835	1870078	PROB	4.801	n/a	n/a	n/a	-999	25	[2, 7, 8]	17.0	catFR1	0	R1144E
3286.65	6.409	1872496	PROB	6.409	n/a	n/a	n/a	-999	25	[8, 8, 4]	20.0	catFR1	0	R1144E
3293.059	0.007	1875700	STOP	n/a	n/a	n/a	n/a	-999	25	[-999, -999, -999]	n/a	catFR1	0	R1144E
3293.066	1.218	1875704	DISTRACT_END	n/a	n/a	n/a	n/a	-999	25	[0, 0, 0]	n/a	catFR1	0	R1144E
3294.284	2.85	1876313	REC_START	n/a	n/a	n/a	n/a	-999	25	[0, 0, 0]	n/a	catFR1	0	R1144E
3297.134	8.517	1877737	REC_WORD	2.85	n/a	CAULIFLOWER	Vegetables	11	25	[0, 0, 0]	n/a	catFR1	0	R1144E
3305.651	7.295	1881996	REC_WORD	11.367	n/a	SHELF	Furniture	1	25	[0, 0, 0]	n/a	catFR1	0	R1144E
3312.946	7.331	1885643	REC_WORD	18.662	n/a	DESK	n/a	-999	25	[0, 0, 0]	n/a	catFR1	0	R1144E
3320.277	1.935	1889308	REC_WORD	25.993	n/a	CUCUMBER	Vegetables	3	25	[0, 0, 0]	n/a	catFR1	0	R1144E
3322.212	2.08	1890276	REC_WORD	27.928	n/a	LETTUCE	Vegetables	4	25	[0, 0, 0]	n/a	catFR1	0	R1144E
3324.292	30.202	1891315	REC_END	n/a	n/a	n/a	n/a	-999	25	[0, 0, 0]	n/a	catFR1	0	R1144E
3354.494	0.0	1906415	SESS_END	n/a	n/a	n/a	n/a	-999	25	[0, 0, 0]	n/a	catFR1	0	R1144E
