onset	duration	sample	trial_type	response_time	stim_file	item_name	category	serialpos	list	test	answer	experiment	session	subject
0.0	0.0	655857	INSTRUCT_START	n/a	n/a	n/a	n/a	-999	-999	[0, 0, 0]	n/a	catFR1	3	R1266J
0.0	10.917	655857	INSTRUCT_END	n/a	n/a	n/a	n/a	-999	-999	[0, 0, 0]	n/a	catFR1	3	R1266J
10.917	0.0	666774	SESS_START	n/a	n/a	n/a	n/a	-999	-999	[0, 0, 0]	n/a	catFR1	3	R1266J
10.917	14.0	666774	MIC_TEST	n/a	n/a	n/a	n/a	-999	-999	[0, 0, 0]	n/a	catFR1	3	R1266J
24.917	38.308	680774	PRACTICE_TRIAL	n/a	n/a	n/a	n/a	-999	-1	[0, 0, 0]	n/a	catFR1	3	R1266J
63.225	10.428	719082	COUNTDOWN_START	n/a	n/a	n/a	n/a	-999	-1	[0, 0, 0]	n/a	catFR1	3	R1266J
73.653	0.007	729510	COUNTDOWN_END	n/a	n/a	n/a	n/a	-999	-1	[0, 0, 0]	n/a	catFR1	3	R1266J
73.66	1.617	729517	PRACTICE_ORIENT	n/a	n/a	n/a	n/a	-999	-1	[0, 0, 0]	n/a	catFR1	3	R1266J
75.277	1.916	731134	PRACTICE_ORIENT_OFF	n/a	n/a	n/a	n/a	-999	-1	[0, 0, 0]	n/a	catFR1	3	R1266J
77.193	1.618	733050	PRACTICE_WORD	n/a	n/a	COTTON	n/a	-1	-1	[0, 0, 0]	n/a	catFR1	3	R1266J
78.811	0.933	734668	PRACTICE_WORD_OFF	n/a	n/a	COTTON	n/a	-999	-1	[0, 0, 0]	n/a	catFR1	3	R1266J
79.744	1.617	735601	PRACTICE_WORD	n/a	n/a	IRON	n/a	-1	-1	[0, 0, 0]	n/a	catFR1	3	R1266J
81.361	0.782	737218	PRACTICE_WORD_OFF	n/a	n/a	IRON	n/a	-999	-1	[0, 0, 0]	n/a	catFR1	3	R1266J
82.143	1.601	738000	PRACTICE_WORD	n/a	n/a	WAGON	n/a	-1	-1	[0, 0, 0]	n/a	catFR1	3	R1266J
83.744	0.817	739601	PRACTICE_WORD_OFF	n/a	n/a	WAGON	n/a	-999	-1	[0, 0, 0]	n/a	catFR1	3	R1266J
84.561	1.616	740418	PRACTICE_WORD	n/a	n/a	FLOOD	n/a	-1	-1	[0, 0, 0]	n/a	catFR1	3	R1266J
86.177	0.984	742034	PRACTICE_WORD_OFF	n/a	n/a	FLOOD	n/a	-999	-1	[0, 0, 0]	n/a	catFR1	3	R1266J
87.161	1.617	743018	PRACTICE_WORD	n/a	n/a	TONGUE	n/a	-1	-1	[0, 0, 0]	n/a	catFR1	3	R1266J
88.778	0.867	744635	PRACTICE_WORD_OFF	n/a	n/a	TONGUE	n/a	-999	-1	[0, 0, 0]	n/a	catFR1	3	R1266J
89.645	1.617	745502	PRACTICE_WORD	n/a	n/a	ATTIC	n/a	-1	-1	[0, 0, 0]	n/a	catFR1	3	R1266J
91.262	0.816	747119	PRACTICE_WORD_OFF	n/a	n/a	ATTIC	n/a	-999	-1	[0, 0, 0]	n/a	catFR1	3	R1266J
92.078	1.618	747935	PRACTICE_WORD	n/a	n/a	BEAM	n/a	-1	-1	[0, 0, 0]	n/a	catFR1	3	R1266J
93.696	0.867	749553	PRACTICE_WORD_OFF	n/a	n/a	BEAM	n/a	-999	-1	[0, 0, 0]	n/a	catFR1	3	R1266J
94.563	1.616	750420	PRACTICE_WORD	n/a	n/a	RHINO	n/a	-1	-1	[0, 0, 0]	n/a	catFR1	3	R1266J
96.179	0.8	752036	PRACTICE_WORD_OFF	n/a	n/a	RHINO	n/a	-999	-1	[0, 0, 0]	n/a	catFR1	3	R1266J
96.979	1.617	752836	PRACTICE_WORD	n/a	n/a	RING	n/a	-1	-1	[0, 0, 0]	n/a	catFR1	3	R1266J
98.596	1.001	754453	PRACTICE_WORD_OFF	n/a	n/a	RING	n/a	-999	-1	[0, 0, 0]	n/a	catFR1	3	R1266J
99.597	1.616	755454	PRACTICE_WORD	n/a	n/a	CAMEL	n/a	-1	-1	[0, 0, 0]	n/a	catFR1	3	R1266J
101.213	0.85	757070	PRACTICE_WORD_OFF	n/a	n/a	CAMEL	n/a	-999	-1	[0, 0, 0]	n/a	catFR1	3	R1266J
102.063	1.618	757920	PRACTICE_WORD	n/a	n/a	WATCH	n/a	-1	-1	[0, 0, 0]	n/a	catFR1	3	R1266J
103.681	0.8	759538	PRACTICE_WORD_OFF	n/a	n/a	WATCH	n/a	-999	-1	[0, 0, 0]	n/a	catFR1	3	R1266J
104.481	1.616	760338	PRACTICE_WORD	n/a	n/a	CHEST	n/a	-1	-1	[0, 0, 0]	n/a	catFR1	3	R1266J
106.097	0.0	761954	DISTRACT_START	n/a	n/a	n/a	n/a	-999	-1	[0, 0, 0]	n/a	catFR1	3	R1266J
106.097	0.0	761954	ENCODING_END	n/a	n/a	n/a	n/a	-999	-1	[0, 0, 0]	n/a	catFR1	3	R1266J
106.097	0.001	761954	PRACTICE_WORD_OFF	n/a	n/a	CHEST	n/a	-999	-1	[0, 0, 0]	n/a	catFR1	3	R1266J
106.098	0.015	761955	START	n/a	n/a	n/a	n/a	-999	1	[-999, -999, -999]	n/a	catFR1	3	R1266J
106.113	6.784	761970	PROB	6.747	n/a	n/a	n/a	-999	1	[4, 2, 4]	10.0	catFR1	3	R1266J
112.897	2.951	768754	PROB	2.915	n/a	n/a	n/a	-999	1	[3, 7, 5]	15.0	catFR1	3	R1266J
115.848	9.502	771705	PROB	9.468	n/a	n/a	n/a	-999	1	[5, 8, 9]	22.0	catFR1	3	R1266J
125.35	6.485	781207	PROB	6.485	n/a	n/a	n/a	-999	1	[6, 7, 5]	19.0	catFR1	3	R1266J
131.835	0.015	787692	STOP	n/a	n/a	n/a	n/a	-999	1	[-999, -999, -999]	n/a	catFR1	3	R1266J
131.85	0.518	787707	DISTRACT_END	n/a	n/a	n/a	n/a	-999	-1	[0, 0, 0]	n/a	catFR1	3	R1266J
132.368	0.516	788225	RETRIEVAL_ORIENT	n/a	n/a	n/a	n/a	-999	-1	[0, 0, 0]	n/a	catFR1	3	R1266J
132.884	30.014	788741	PRACTICE_REC_START	n/a	n/a	n/a	n/a	-999	-1	[0, 0, 0]	n/a	catFR1	3	R1266J
162.898	6.624	818755	PRACTICE_REC_END	n/a	n/a	n/a	n/a	-999	-1	[0, 0, 0]	n/a	catFR1	3	R1266J
169.522	0.5	825379	TRIAL	n/a	n/a	n/a	n/a	-999	1	[0, 0, 0]	n/a	catFR1	3	R1266J
170.022	10.428	825879	COUNTDOWN_START	n/a	n/a	n/a	n/a	-999	1	[0, 0, 0]	n/a	catFR1	3	R1266J
180.45	0.007	836307	COUNTDOWN_END	n/a	n/a	n/a	n/a	-999	1	[0, 0, 0]	n/a	catFR1	3	R1266J
180.457	1.616	836314	ORIENT	n/a	n/a	n/a	n/a	-999	1	[0, 0, 0]	n/a	catFR1	3	R1266J
182.073	2.1	837930	ORIENT_OFF	n/a	n/a	n/a	n/a	-999	1	[0, 0, 0]	n/a	catFR1	3	R1266J
184.173	1.601	840030	WORD	n/a	wordpools/wordpool_categorized_EN.txt	HEN	FarmAnimals	1	1	[0, 0, 0]	n/a	catFR1	3	R1266J
185.774	1.001	841631	WORD_OFF	n/a	n/a	HEN	n/a	1	1	[0, 0, 0]	n/a	catFR1	3	R1266J
186.775	1.616	842632	WORD	n/a	wordpools/wordpool_categorized_EN.txt	LAMB	FarmAnimals	2	1	[0, 0, 0]	n/a	catFR1	3	R1266J
188.391	0.984	844248	WORD_OFF	n/a	n/a	LAMB	n/a	2	1	[0, 0, 0]	n/a	catFR1	3	R1266J
189.375	1.616	845232	WORD	n/a	wordpools/wordpool_categorized_EN.txt	PLUM	Fruit	3	1	[0, 0, 0]	n/a	catFR1	3	R1266J
190.991	0.801	846848	WORD_OFF	n/a	n/a	PLUM	n/a	3	1	[0, 0, 0]	n/a	catFR1	3	R1266J
191.792	1.617	847649	WORD	n/a	wordpools/wordpool_categorized_EN.txt	GRAPE	Fruit	4	1	[0, 0, 0]	n/a	catFR1	3	R1266J
193.409	1.0	849266	WORD_OFF	n/a	n/a	GRAPE	n/a	4	1	[0, 0, 0]	n/a	catFR1	3	R1266J
194.409	1.616	850266	WORD	n/a	wordpools/wordpool_categorized_EN.txt	DOLPHIN	OceanAnimals	5	1	[0, 0, 0]	n/a	catFR1	3	R1266J
196.025	1.0	851882	WORD_OFF	n/a	n/a	DOLPHIN	n/a	5	1	[0, 0, 0]	n/a	catFR1	3	R1266J
197.025	1.618	852882	WORD	n/a	wordpools/wordpool_categorized_EN.txt	TURTLE	OceanAnimals	6	1	[0, 0, 0]	n/a	catFR1	3	R1266J
198.643	0.783	854500	WORD_OFF	n/a	n/a	TURTLE	n/a	6	1	[0, 0, 0]	n/a	catFR1	3	R1266J
199.426	1.616	855283	WORD	n/a	wordpools/wordpool_categorized_EN.txt	COW	FarmAnimals	7	1	[0, 0, 0]	n/a	catFR1	3	R1266J
201.042	0.8	856899	WORD_OFF	n/a	n/a	COW	n/a	7	1	[0, 0, 0]	n/a	catFR1	3	R1266J
201.842	1.618	857699	WORD	n/a	wordpools/wordpool_categorized_EN.txt	GOAT	FarmAnimals	8	1	[0, 0, 0]	n/a	catFR1	3	R1266J
203.46	0.983	859317	WORD_OFF	n/a	n/a	GOAT	n/a	8	1	[0, 0, 0]	n/a	catFR1	3	R1266J
204.443	1.616	860300	WORD	n/a	wordpools/wordpool_categorized_EN.txt	CHERRY	Fruit	9	1	[0, 0, 0]	n/a	catFR1	3	R1266J
206.059	0.984	861916	WORD_OFF	n/a	n/a	CHERRY	n/a	9	1	[0, 0, 0]	n/a	catFR1	3	R1266J
207.043	1.617	862900	WORD	n/a	wordpools/wordpool_categorized_EN.txt	ORANGE	Fruit	10	1	[0, 0, 0]	n/a	catFR1	3	R1266J
208.66	0.834	864517	WORD_OFF	n/a	n/a	ORANGE	n/a	10	1	[0, 0, 0]	n/a	catFR1	3	R1266J
209.494	1.616	865351	WORD	n/a	wordpools/wordpool_categorized_EN.txt	SHRIMP	OceanAnimals	11	1	[0, 0, 0]	n/a	catFR1	3	R1266J
211.11	1.0	866967	WORD_OFF	n/a	n/a	SHRIMP	n/a	11	1	[0, 0, 0]	n/a	catFR1	3	R1266J
212.11	1.618	867967	WORD	n/a	wordpools/wordpool_categorized_EN.txt	SQUID	OceanAnimals	12	1	[0, 0, 0]	n/a	catFR1	3	R1266J
213.728	0.0	869585	ENCODING_END	n/a	n/a	n/a	n/a	-999	1	[0, 0, 0]	n/a	catFR1	3	R1266J
213.728	0.132	869585	WORD_OFF	n/a	n/a	SQUID	n/a	12	1	[0, 0, 0]	n/a	catFR1	3	R1266J
213.86	0.0	869717	DISTRACT_START	n/a	n/a	n/a	n/a	-999	1	[0, 0, 0]	n/a	catFR1	3	R1266J
213.86	0.017	869717	START	n/a	n/a	n/a	n/a	-999	2	[-999, -999, -999]	n/a	catFR1	3	R1266J
213.877	6.184	869734	PROB	6.147	n/a	n/a	n/a	-999	2	[5, 2, 9]	16.0	catFR1	3	R1266J
220.061	5.934	875918	PROB	5.907	n/a	n/a	n/a	-999	2	[4, 7, 8]	19.0	catFR1	3	R1266J
225.995	8.26	881852	PROB	8.26	n/a	n/a	n/a	-999	2	[3, 8, 7]	18.0	catFR1	3	R1266J
234.255	0.009	890112	STOP	n/a	n/a	n/a	n/a	-999	2	[-999, -999, -999]	n/a	catFR1	3	R1266J
234.264	0.567	890121	DISTRACT_END	n/a	n/a	n/a	n/a	-999	1	[0, 0, 0]	n/a	catFR1	3	R1266J
234.831	0.517	890688	RETRIEVAL_ORIENT	n/a	n/a	n/a	n/a	-999	1	[0, 0, 0]	n/a	catFR1	3	R1266J
235.348	3.065	891205	REC_START	n/a	n/a	n/a	n/a	-999	1	[0, 0, 0]	n/a	catFR1	3	R1266J
238.413	7.046	894270	REC_WORD	3.065	n/a	ORANGE	Fruit	10	1	[0, 0, 0]	n/a	catFR1	3	R1266J
245.459	19.901	901316	REC_WORD_VV	10.111	n/a	<>	n/a	-999	1	[0, 0, 0]	n/a	catFR1	3	R1266J
265.36	5.242	921217	REC_END	n/a	n/a	n/a	n/a	-999	1	[0, 0, 0]	n/a	catFR1	3	R1266J
270.602	0.5	926459	TRIAL	n/a	n/a	n/a	n/a	-999	2	[0, 0, 0]	n/a	catFR1	3	R1266J
271.102	10.428	926959	COUNTDOWN_START	n/a	n/a	n/a	n/a	-999	2	[0, 0, 0]	n/a	catFR1	3	R1266J
281.53	0.007	937387	COUNTDOWN_END	n/a	n/a	n/a	n/a	-999	2	[0, 0, 0]	n/a	catFR1	3	R1266J
281.537	1.615	937394	ORIENT	n/a	n/a	n/a	n/a	-999	2	[0, 0, 0]	n/a	catFR1	3	R1266J
283.152	2.169	939009	ORIENT_OFF	n/a	n/a	n/a	n/a	-999	2	[0, 0, 0]	n/a	catFR1	3	R1266J
285.321	1.616	941178	WORD	n/a	wordpools/wordpool_categorized_EN.txt	FUDGE	Desserts	1	2	[0, 0, 0]	n/a	catFR1	3	R1266J
286.937	0.899	942794	WORD_OFF	n/a	n/a	FUDGE	n/a	1	2	[0, 0, 0]	n/a	catFR1	3	R1266J
287.836	1.601	943693	WORD	n/a	wordpools/wordpool_categorized_EN.txt	MOUSSE	Desserts	2	2	[0, 0, 0]	n/a	catFR1	3	R1266J
289.437	0.984	945294	WORD_OFF	n/a	n/a	MOUSSE	n/a	2	2	[0, 0, 0]	n/a	catFR1	3	R1266J
290.421	1.616	946278	WORD	n/a	wordpools/wordpool_categorized_EN.txt	LADLE	KitchenTools	3	2	[0, 0, 0]	n/a	catFR1	3	R1266J
292.037	0.983	947894	WORD_OFF	n/a	n/a	LADLE	n/a	3	2	[0, 0, 0]	n/a	catFR1	3	R1266J
293.02	1.618	948877	WORD	n/a	wordpools/wordpool_categorized_EN.txt	SPOON	KitchenTools	4	2	[0, 0, 0]	n/a	catFR1	3	R1266J
294.638	0.817	950495	WORD_OFF	n/a	n/a	SPOON	n/a	4	2	[0, 0, 0]	n/a	catFR1	3	R1266J
295.455	1.616	951312	WORD	n/a	wordpools/wordpool_categorized_EN.txt	WINE	Beverages	5	2	[0, 0, 0]	n/a	catFR1	3	R1266J
297.071	0.917	952928	WORD_OFF	n/a	n/a	WINE	n/a	5	2	[0, 0, 0]	n/a	catFR1	3	R1266J
297.988	1.618	953845	WORD	n/a	wordpools/wordpool_categorized_EN.txt	JUICE	Beverages	6	2	[0, 0, 0]	n/a	catFR1	3	R1266J
299.606	0.9	955463	WORD_OFF	n/a	n/a	JUICE	n/a	6	2	[0, 0, 0]	n/a	catFR1	3	R1266J
300.506	1.616	956363	WORD	n/a	wordpools/wordpool_categorized_EN.txt	STRAINER	KitchenTools	7	2	[0, 0, 0]	n/a	catFR1	3	R1266J
302.122	0.95	957979	WORD_OFF	n/a	n/a	STRAINER	n/a	7	2	[0, 0, 0]	n/a	catFR1	3	R1266J
303.072	1.618	958929	WORD	n/a	wordpools/wordpool_categorized_EN.txt	SPATULA	KitchenTools	8	2	[0, 0, 0]	n/a	catFR1	3	R1266J
304.69	0.783	960547	WORD_OFF	n/a	n/a	SPATULA	n/a	8	2	[0, 0, 0]	n/a	catFR1	3	R1266J
305.473	1.616	961330	WORD	n/a	wordpools/wordpool_categorized_EN.txt	COBBLER	Desserts	9	2	[0, 0, 0]	n/a	catFR1	3	R1266J
307.089	0.95	962946	WORD_OFF	n/a	n/a	COBBLER	n/a	9	2	[0, 0, 0]	n/a	catFR1	3	R1266J
308.039	1.618	963896	WORD	n/a	wordpools/wordpool_categorized_EN.txt	PUDDING	Desserts	10	2	[0, 0, 0]	n/a	catFR1	3	R1266J
309.657	0.933	965514	WORD_OFF	n/a	n/a	PUDDING	n/a	10	2	[0, 0, 0]	n/a	catFR1	3	R1266J
310.59	1.616	966447	WORD	n/a	wordpools/wordpool_categorized_EN.txt	WATER	Beverages	11	2	[0, 0, 0]	n/a	catFR1	3	R1266J
312.206	0.817	968063	WORD_OFF	n/a	n/a	WATER	n/a	11	2	[0, 0, 0]	n/a	catFR1	3	R1266J
313.023	1.618	968880	WORD	n/a	wordpools/wordpool_categorized_EN.txt	LEMONADE	Beverages	12	2	[0, 0, 0]	n/a	catFR1	3	R1266J
314.641	0.0	970498	ENCODING_END	n/a	n/a	n/a	n/a	-999	2	[0, 0, 0]	n/a	catFR1	3	R1266J
314.641	0.1	970498	WORD_OFF	n/a	n/a	LEMONADE	n/a	12	2	[0, 0, 0]	n/a	catFR1	3	R1266J
314.741	0.0	970598	DISTRACT_START	n/a	n/a	n/a	n/a	-999	2	[0, 0, 0]	n/a	catFR1	3	R1266J
314.741	0.017	970598	START	n/a	n/a	n/a	n/a	-999	3	[-999, -999, -999]	n/a	catFR1	3	R1266J
314.758	7.634	970615	PROB	7.598	n/a	n/a	n/a	-999	3	[5, 1, 8]	14.0	catFR1	3	R1266J
322.392	3.6	978249	PROB	3.564	n/a	n/a	n/a	-999	3	[9, 3, 3]	15.0	catFR1	3	R1266J
325.992	5.601	981849	PROB	5.563	n/a	n/a	n/a	-999	3	[8, 7, 7]	22.0	catFR1	3	R1266J
331.593	4.052	987450	PROB	4.052	n/a	n/a	n/a	-999	3	[6, 4, 9]	19.0	catFR1	3	R1266J
335.645	0.016	991502	STOP	n/a	n/a	n/a	n/a	-999	3	[-999, -999, -999]	n/a	catFR1	3	R1266J
335.661	0.666	991518	DISTRACT_END	n/a	n/a	n/a	n/a	-999	2	[0, 0, 0]	n/a	catFR1	3	R1266J
336.327	0.517	992184	RETRIEVAL_ORIENT	n/a	n/a	n/a	n/a	-999	2	[0, 0, 0]	n/a	catFR1	3	R1266J
336.844	0.935	992701	REC_START	n/a	n/a	n/a	n/a	-999	2	[0, 0, 0]	n/a	catFR1	3	R1266J
337.779	4.055	993636	REC_WORD	0.935	n/a	FUDGE	Desserts	1	2	[0, 0, 0]	n/a	catFR1	3	R1266J
341.834	7.53	997691	REC_WORD_VV	4.99	n/a	<>	n/a	-999	2	[0, 0, 0]	n/a	catFR1	3	R1266J
349.364	1.042	1005221	REC_WORD_VV	12.52	n/a	<>	n/a	-999	2	[0, 0, 0]	n/a	catFR1	3	R1266J
350.406	16.45	1006263	REC_WORD	13.562	n/a	SPATULA	KitchenTools	8	2	[0, 0, 0]	n/a	catFR1	3	R1266J
366.856	5.241	1022713	REC_END	n/a	n/a	n/a	n/a	-999	2	[0, 0, 0]	n/a	catFR1	3	R1266J
372.097	0.5	1027954	TRIAL	n/a	n/a	n/a	n/a	-999	3	[0, 0, 0]	n/a	catFR1	3	R1266J
372.597	10.428	1028454	COUNTDOWN_START	n/a	n/a	n/a	n/a	-999	3	[0, 0, 0]	n/a	catFR1	3	R1266J
383.025	0.007	1038882	COUNTDOWN_END	n/a	n/a	n/a	n/a	-999	3	[0, 0, 0]	n/a	catFR1	3	R1266J
383.032	1.618	1038889	ORIENT	n/a	n/a	n/a	n/a	-999	3	[0, 0, 0]	n/a	catFR1	3	R1266J
384.65	2.15	1040507	ORIENT_OFF	n/a	n/a	n/a	n/a	-999	3	[0, 0, 0]	n/a	catFR1	3	R1266J
386.8	1.617	1042657	WORD	n/a	wordpools/wordpool_categorized_EN.txt	CORKSCREW	KitchenTools	1	3	[0, 0, 0]	n/a	catFR1	3	R1266J
388.417	0.95	1044274	WORD_OFF	n/a	n/a	CORKSCREW	n/a	1	3	[0, 0, 0]	n/a	catFR1	3	R1266J
389.367	1.616	1045224	WORD	n/a	wordpools/wordpool_categorized_EN.txt	WHISK	KitchenTools	2	3	[0, 0, 0]	n/a	catFR1	3	R1266J
390.983	0.983	1046840	WORD_OFF	n/a	n/a	WHISK	n/a	2	3	[0, 0, 0]	n/a	catFR1	3	R1266J
391.966	1.602	1047823	WORD	n/a	wordpools/wordpool_categorized_EN.txt	AXE	Tools	3	3	[0, 0, 0]	n/a	catFR1	3	R1266J
393.568	0.85	1049425	WORD_OFF	n/a	n/a	AXE	n/a	3	3	[0, 0, 0]	n/a	catFR1	3	R1266J
394.418	1.616	1050275	WORD	n/a	wordpools/wordpool_categorized_EN.txt	SCREWDRIVER	Tools	4	3	[0, 0, 0]	n/a	catFR1	3	R1266J
396.034	0.883	1051891	WORD_OFF	n/a	n/a	SCREWDRIVER	n/a	4	3	[0, 0, 0]	n/a	catFR1	3	R1266J
396.917	1.618	1052774	WORD	n/a	wordpools/wordpool_categorized_EN.txt	CARNATION	Flowers	5	3	[0, 0, 0]	n/a	catFR1	3	R1266J
398.535	0.817	1054392	WORD_OFF	n/a	n/a	CARNATION	n/a	5	3	[0, 0, 0]	n/a	catFR1	3	R1266J
399.352	1.615	1055209	WORD	n/a	wordpools/wordpool_categorized_EN.txt	MARIGOLD	Flowers	6	3	[0, 0, 0]	n/a	catFR1	3	R1266J
400.967	0.901	1056824	WORD_OFF	n/a	n/a	MARIGOLD	n/a	6	3	[0, 0, 0]	n/a	catFR1	3	R1266J
401.868	1.618	1057725	WORD	n/a	wordpools/wordpool_categorized_EN.txt	TONGS	KitchenTools	7	3	[0, 0, 0]	n/a	catFR1	3	R1266J
403.486	0.8	1059343	WORD_OFF	n/a	n/a	TONGS	n/a	7	3	[0, 0, 0]	n/a	catFR1	3	R1266J
404.286	1.616	1060143	WORD	n/a	wordpools/wordpool_categorized_EN.txt	PEELER	KitchenTools	8	3	[0, 0, 0]	n/a	catFR1	3	R1266J
405.902	0.933	1061759	WORD_OFF	n/a	n/a	PEELER	n/a	8	3	[0, 0, 0]	n/a	catFR1	3	R1266J
406.835	1.618	1062692	WORD	n/a	wordpools/wordpool_categorized_EN.txt	WRENCH	Tools	9	3	[0, 0, 0]	n/a	catFR1	3	R1266J
408.453	0.967	1064310	WORD_OFF	n/a	n/a	WRENCH	n/a	9	3	[0, 0, 0]	n/a	catFR1	3	R1266J
409.42	1.616	1065277	WORD	n/a	wordpools/wordpool_categorized_EN.txt	LEVEL	Tools	10	3	[0, 0, 0]	n/a	catFR1	3	R1266J
411.036	0.9	1066893	WORD_OFF	n/a	n/a	LEVEL	n/a	10	3	[0, 0, 0]	n/a	catFR1	3	R1266J
411.936	1.618	1067793	WORD	n/a	wordpools/wordpool_categorized_EN.txt	ROSE	Flowers	11	3	[0, 0, 0]	n/a	catFR1	3	R1266J
413.554	1.0	1069411	WORD_OFF	n/a	n/a	ROSE	n/a	11	3	[0, 0, 0]	n/a	catFR1	3	R1266J
414.554	1.616	1070411	WORD	n/a	wordpools/wordpool_categorized_EN.txt	ORCHID	Flowers	12	3	[0, 0, 0]	n/a	catFR1	3	R1266J
416.17	0.0	1072027	ENCODING_END	n/a	n/a	n/a	n/a	-999	3	[0, 0, 0]	n/a	catFR1	3	R1266J
416.17	0.101	1072027	WORD_OFF	n/a	n/a	ORCHID	n/a	12	3	[0, 0, 0]	n/a	catFR1	3	R1266J
416.271	0.0	1072128	DISTRACT_START	n/a	n/a	n/a	n/a	-999	3	[0, 0, 0]	n/a	catFR1	3	R1266J
416.271	0.016	1072128	START	n/a	n/a	n/a	n/a	-999	4	[-999, -999, -999]	n/a	catFR1	3	R1266J
416.287	4.833	1072144	PROB	4.8	n/a	n/a	n/a	-999	4	[9, 3, 3]	15.0	catFR1	3	R1266J
421.12	2.751	1076977	PROB	2.728	n/a	n/a	n/a	-999	4	[2, 4, 8]	14.0	catFR1	3	R1266J
423.871	3.083	1079728	PROB	3.057	n/a	n/a	n/a	-999	4	[7, 1, 9]	18.0	catFR1	3	R1266J
426.954	4.067	1082811	PROB	4.029	n/a	n/a	n/a	-999	4	[1, 3, 8]	12.0	catFR1	3	R1266J
431.021	11.587	1086878	PROB	11.587	n/a	n/a	n/a	-999	4	[9, 2, 7]	18.0	catFR1	3	R1266J
442.608	0.016	1098465	STOP	n/a	n/a	n/a	n/a	-999	4	[-999, -999, -999]	n/a	catFR1	3	R1266J
442.624	0.683	1098481	DISTRACT_END	n/a	n/a	n/a	n/a	-999	3	[0, 0, 0]	n/a	catFR1	3	R1266J
443.307	0.518	1099164	RETRIEVAL_ORIENT	n/a	n/a	n/a	n/a	-999	3	[0, 0, 0]	n/a	catFR1	3	R1266J
443.825	3.074	1099682	REC_START	n/a	n/a	n/a	n/a	-999	3	[0, 0, 0]	n/a	catFR1	3	R1266J
446.899	1.918	1102756	REC_WORD	3.074	n/a	CORKSCREW	KitchenTools	1	3	[0, 0, 0]	n/a	catFR1	3	R1266J
448.817	4.286	1104674	REC_WORD	4.992	n/a	SPATULA	n/a	-999	3	[0, 0, 0]	n/a	catFR1	3	R1266J
453.103	20.732	1108960	REC_WORD_VV	9.278	n/a	<>	n/a	-999	3	[0, 0, 0]	n/a	catFR1	3	R1266J
473.835	4.943	1129692	REC_END	n/a	n/a	n/a	n/a	-999	3	[0, 0, 0]	n/a	catFR1	3	R1266J
478.778	0.5	1134635	TRIAL	n/a	n/a	n/a	n/a	-999	4	[0, 0, 0]	n/a	catFR1	3	R1266J
479.278	10.428	1135135	COUNTDOWN_START	n/a	n/a	n/a	n/a	-999	4	[0, 0, 0]	n/a	catFR1	3	R1266J
489.706	0.007	1145563	COUNTDOWN_END	n/a	n/a	n/a	n/a	-999	4	[0, 0, 0]	n/a	catFR1	3	R1266J
489.713	1.617	1145570	ORIENT	n/a	n/a	n/a	n/a	-999	4	[0, 0, 0]	n/a	catFR1	3	R1266J
491.33	1.899	1147187	ORIENT_OFF	n/a	n/a	n/a	n/a	-999	4	[0, 0, 0]	n/a	catFR1	3	R1266J
493.229	1.617	1149086	WORD	n/a	wordpools/wordpool_categorized_EN.txt	KNEE	BodyParts	1	4	[0, 0, 0]	n/a	catFR1	3	R1266J
494.846	0.985	1150703	WORD_OFF	n/a	n/a	KNEE	n/a	1	4	[0, 0, 0]	n/a	catFR1	3	R1266J
495.831	1.617	1151688	WORD	n/a	wordpools/wordpool_categorized_EN.txt	HAND	BodyParts	2	4	[0, 0, 0]	n/a	catFR1	3	R1266J
497.448	0.85	1153305	WORD_OFF	n/a	n/a	HAND	n/a	2	4	[0, 0, 0]	n/a	catFR1	3	R1266J
498.298	1.615	1154155	WORD	n/a	wordpools/wordpool_categorized_EN.txt	DESK	Furniture	3	4	[0, 0, 0]	n/a	catFR1	3	R1266J
499.913	0.852	1155770	WORD_OFF	n/a	n/a	DESK	n/a	3	4	[0, 0, 0]	n/a	catFR1	3	R1266J
500.765	1.617	1156622	WORD	n/a	wordpools/wordpool_categorized_EN.txt	CABINET	Furniture	4	4	[0, 0, 0]	n/a	catFR1	3	R1266J
502.382	0.799	1158239	WORD_OFF	n/a	n/a	CABINET	n/a	4	4	[0, 0, 0]	n/a	catFR1	3	R1266J
503.181	1.618	1159038	WORD	n/a	wordpools/wordpool_categorized_EN.txt	BUTTERFLY	Insects	5	4	[0, 0, 0]	n/a	catFR1	3	R1266J
504.799	0.766	1160656	WORD_OFF	n/a	n/a	BUTTERFLY	n/a	5	4	[0, 0, 0]	n/a	catFR1	3	R1266J
505.565	1.616	1161422	WORD	n/a	wordpools/wordpool_categorized_EN.txt	BEETLE	Insects	6	4	[0, 0, 0]	n/a	catFR1	3	R1266J
507.181	0.917	1163038	WORD_OFF	n/a	n/a	BEETLE	n/a	6	4	[0, 0, 0]	n/a	catFR1	3	R1266J
508.098	1.618	1163955	WORD	n/a	wordpools/wordpool_categorized_EN.txt	COUCH	Furniture	7	4	[0, 0, 0]	n/a	catFR1	3	R1266J
509.716	0.8	1165573	WORD_OFF	n/a	n/a	COUCH	n/a	7	4	[0, 0, 0]	n/a	catFR1	3	R1266J
510.516	1.616	1166373	WORD	n/a	wordpools/wordpool_categorized_EN.txt	BOOKCASE	Furniture	8	4	[0, 0, 0]	n/a	catFR1	3	R1266J
512.132	0.95	1167989	WORD_OFF	n/a	n/a	BOOKCASE	n/a	8	4	[0, 0, 0]	n/a	catFR1	3	R1266J
513.082	1.601	1168939	WORD	n/a	wordpools/wordpool_categorized_EN.txt	ELBOW	BodyParts	9	4	[0, 0, 0]	n/a	catFR1	3	R1266J
514.683	0.85	1170540	WORD_OFF	n/a	n/a	ELBOW	n/a	9	4	[0, 0, 0]	n/a	catFR1	3	R1266J
515.533	1.616	1171390	WORD	n/a	wordpools/wordpool_categorized_EN.txt	FOOT	BodyParts	10	4	[0, 0, 0]	n/a	catFR1	3	R1266J
517.149	0.783	1173006	WORD_OFF	n/a	n/a	FOOT	n/a	10	4	[0, 0, 0]	n/a	catFR1	3	R1266J
517.932	1.601	1173789	WORD	n/a	wordpools/wordpool_categorized_EN.txt	ANT	Insects	11	4	[0, 0, 0]	n/a	catFR1	3	R1266J
519.533	0.951	1175390	WORD_OFF	n/a	n/a	ANT	n/a	11	4	[0, 0, 0]	n/a	catFR1	3	R1266J
520.484	1.616	1176341	WORD	n/a	wordpools/wordpool_categorized_EN.txt	LADYBUG	Insects	12	4	[0, 0, 0]	n/a	catFR1	3	R1266J
522.1	0.0	1177957	ENCODING_END	n/a	n/a	n/a	n/a	-999	4	[0, 0, 0]	n/a	catFR1	3	R1266J
522.1	0.132	1177957	WORD_OFF	n/a	n/a	LADYBUG	n/a	12	4	[0, 0, 0]	n/a	catFR1	3	R1266J
522.232	0.0	1178089	DISTRACT_START	n/a	n/a	n/a	n/a	-999	4	[0, 0, 0]	n/a	catFR1	3	R1266J
522.232	0.019	1178089	START	n/a	n/a	n/a	n/a	-999	5	[-999, -999, -999]	n/a	catFR1	3	R1266J
522.251	4.217	1178108	PROB	4.184	n/a	n/a	n/a	-999	5	[1, 4, 6]	11.0	catFR1	3	R1266J
526.468	3.516	1182325	PROB	3.486	n/a	n/a	n/a	-999	5	[7, 2, 3]	12.0	catFR1	3	R1266J
529.984	5.851	1185841	PROB	5.827	n/a	n/a	n/a	-999	5	[3, 2, 8]	13.0	catFR1	3	R1266J
535.835	1.818	1191692	PROB	1.793	n/a	n/a	n/a	-999	5	[5, 2, 5]	12.0	catFR1	3	R1266J
537.653	5.446	1193510	PROB	5.446	n/a	n/a	n/a	-999	5	[9, 8, 2]	19.0	catFR1	3	R1266J
543.099	0.02	1198956	STOP	n/a	n/a	n/a	n/a	-999	5	[-999, -999, -999]	n/a	catFR1	3	R1266J
543.119	0.668	1198976	DISTRACT_END	n/a	n/a	n/a	n/a	-999	4	[0, 0, 0]	n/a	catFR1	3	R1266J
543.787	0.517	1199644	RETRIEVAL_ORIENT	n/a	n/a	n/a	n/a	-999	4	[0, 0, 0]	n/a	catFR1	3	R1266J
544.304	1.714	1200161	REC_START	n/a	n/a	n/a	n/a	-999	4	[0, 0, 0]	n/a	catFR1	3	R1266J
546.018	2.603	1201875	REC_WORD	1.714	n/a	LADYBUG	Insects	12	4	[0, 0, 0]	n/a	catFR1	3	R1266J
548.621	1.554	1204478	REC_WORD	4.317	n/a	CABINET	Furniture	4	4	[0, 0, 0]	n/a	catFR1	3	R1266J
550.175	24.143	1206032	REC_WORD	5.871	n/a	FOOT	BodyParts	10	4	[0, 0, 0]	n/a	catFR1	3	R1266J
574.318	9.291	1230175	REC_END	n/a	n/a	n/a	n/a	-999	4	[0, 0, 0]	n/a	catFR1	3	R1266J
583.609	0.5	1239466	TRIAL	n/a	n/a	n/a	n/a	-999	5	[0, 0, 0]	n/a	catFR1	3	R1266J
584.109	10.428	1239966	COUNTDOWN_START	n/a	n/a	n/a	n/a	-999	5	[0, 0, 0]	n/a	catFR1	3	R1266J
594.537	0.006	1250394	COUNTDOWN_END	n/a	n/a	n/a	n/a	-999	5	[0, 0, 0]	n/a	catFR1	3	R1266J
594.543	1.616	1250400	ORIENT	n/a	n/a	n/a	n/a	-999	5	[0, 0, 0]	n/a	catFR1	3	R1266J
596.159	2.218	1252016	ORIENT_OFF	n/a	n/a	n/a	n/a	-999	5	[0, 0, 0]	n/a	catFR1	3	R1266J
598.377	1.616	1254234	WORD	n/a	wordpools/wordpool_categorized_EN.txt	WOODS	Landscapes	1	5	[0, 0, 0]	n/a	catFR1	3	R1266J
599.993	0.95	1255850	WORD_OFF	n/a	n/a	WOODS	n/a	1	5	[0, 0, 0]	n/a	catFR1	3	R1266J
600.943	1.618	1256800	WORD	n/a	wordpools/wordpool_categorized_EN.txt	BEACH	Landscapes	2	5	[0, 0, 0]	n/a	catFR1	3	R1266J
602.561	0.934	1258418	WORD_OFF	n/a	n/a	BEACH	n/a	2	5	[0, 0, 0]	n/a	catFR1	3	R1266J
603.495	1.615	1259352	WORD	n/a	wordpools/wordpool_categorized_EN.txt	SANDER	Tools	3	5	[0, 0, 0]	n/a	catFR1	3	R1266J
605.11	0.901	1260967	WORD_OFF	n/a	n/a	SANDER	n/a	3	5	[0, 0, 0]	n/a	catFR1	3	R1266J
606.011	1.617	1261868	WORD	n/a	wordpools/wordpool_categorized_EN.txt	HAMMER	Tools	4	5	[0, 0, 0]	n/a	catFR1	3	R1266J
607.628	0.85	1263485	WORD_OFF	n/a	n/a	HAMMER	n/a	4	5	[0, 0, 0]	n/a	catFR1	3	R1266J
608.478	1.616	1264335	WORD	n/a	wordpools/wordpool_categorized_EN.txt	MOSQUITO	Insects	5	5	[0, 0, 0]	n/a	catFR1	3	R1266J
610.094	0.867	1265951	WORD_OFF	n/a	n/a	MOSQUITO	n/a	5	5	[0, 0, 0]	n/a	catFR1	3	R1266J
610.961	1.618	1266818	WORD	n/a	wordpools/wordpool_categorized_EN.txt	ROACH	Insects	6	5	[0, 0, 0]	n/a	catFR1	3	R1266J
612.579	1.0	1268436	WORD_OFF	n/a	n/a	ROACH	n/a	6	5	[0, 0, 0]	n/a	catFR1	3	R1266J
613.579	1.616	1269436	WORD	n/a	wordpools/wordpool_categorized_EN.txt	SHOVEL	Tools	7	5	[0, 0, 0]	n/a	catFR1	3	R1266J
615.195	0.784	1271052	WORD_OFF	n/a	n/a	SHOVEL	n/a	7	5	[0, 0, 0]	n/a	catFR1	3	R1266J
615.979	1.617	1271836	WORD	n/a	wordpools/wordpool_categorized_EN.txt	RATCHET	Tools	8	5	[0, 0, 0]	n/a	catFR1	3	R1266J
617.596	0.95	1273453	WORD_OFF	n/a	n/a	RATCHET	n/a	8	5	[0, 0, 0]	n/a	catFR1	3	R1266J
618.546	1.616	1274403	WORD	n/a	wordpools/wordpool_categorized_EN.txt	MOUNTAIN	Landscapes	9	5	[0, 0, 0]	n/a	catFR1	3	R1266J
620.162	0.934	1276019	WORD_OFF	n/a	n/a	MOUNTAIN	n/a	9	5	[0, 0, 0]	n/a	catFR1	3	R1266J
621.096	1.618	1276953	WORD	n/a	wordpools/wordpool_categorized_EN.txt	FOREST	Landscapes	10	5	[0, 0, 0]	n/a	catFR1	3	R1266J
622.714	0.966	1278571	WORD_OFF	n/a	n/a	FOREST	n/a	10	5	[0, 0, 0]	n/a	catFR1	3	R1266J
623.68	1.617	1279537	WORD	n/a	wordpools/wordpool_categorized_EN.txt	CRICKET	Insects	11	5	[0, 0, 0]	n/a	catFR1	3	R1266J
625.297	0.85	1281154	WORD_OFF	n/a	n/a	CRICKET	n/a	11	5	[0, 0, 0]	n/a	catFR1	3	R1266J
626.147	1.617	1282004	WORD	n/a	wordpools/wordpool_categorized_EN.txt	MOTH	Insects	12	5	[0, 0, 0]	n/a	catFR1	3	R1266J
627.764	0.0	1283621	ENCODING_END	n/a	n/a	n/a	n/a	-999	5	[0, 0, 0]	n/a	catFR1	3	R1266J
627.764	0.099	1283621	WORD_OFF	n/a	n/a	MOTH	n/a	12	5	[0, 0, 0]	n/a	catFR1	3	R1266J
627.863	0.0	1283720	DISTRACT_START	n/a	n/a	n/a	n/a	-999	5	[0, 0, 0]	n/a	catFR1	3	R1266J
627.863	0.017	1283720	START	n/a	n/a	n/a	n/a	-999	6	[-999, -999, -999]	n/a	catFR1	3	R1266J
627.88	6.017	1283737	PROB	5.982	n/a	n/a	n/a	-999	6	[3, 6, 7]	16.0	catFR1	3	R1266J
633.897	1.585	1289754	PROB	1.559	n/a	n/a	n/a	-999	6	[5, 5, 2]	12.0	catFR1	3	R1266J
635.482	5.633	1291339	PROB	5.596	n/a	n/a	n/a	-999	6	[1, 5, 8]	15.0	catFR1	3	R1266J
641.115	2.917	1296973	PROB	2.883	n/a	n/a	n/a	-999	6	[1, 8, 8]	17.0	catFR1	3	R1266J
644.032	3.785	1299890	PROB	3.751	n/a	n/a	n/a	-999	6	[8, 5, 2]	15.0	catFR1	3	R1266J
647.817	5.093	1303675	PROB	5.093	n/a	n/a	n/a	-999	6	[6, 6, 8]	20.0	catFR1	3	R1266J
652.91	0.007	1308768	STOP	n/a	n/a	n/a	n/a	-999	6	[-999, -999, -999]	n/a	catFR1	3	R1266J
652.917	0.701	1308775	DISTRACT_END	n/a	n/a	n/a	n/a	-999	5	[0, 0, 0]	n/a	catFR1	3	R1266J
653.618	0.516	1309476	RETRIEVAL_ORIENT	n/a	n/a	n/a	n/a	-999	5	[0, 0, 0]	n/a	catFR1	3	R1266J
654.134	1.265	1309992	REC_START	n/a	n/a	n/a	n/a	-999	5	[0, 0, 0]	n/a	catFR1	3	R1266J
655.399	18.201	1311257	REC_WORD	1.265	n/a	MOUNTAIN	Landscapes	9	5	[0, 0, 0]	n/a	catFR1	3	R1266J
673.6	5.193	1329458	REC_WORD	19.466	n/a	WOODS	Landscapes	1	5	[0, 0, 0]	n/a	catFR1	3	R1266J
678.793	5.353	1334651	REC_WORD	24.659	n/a	AXE	n/a	-999	5	[0, 0, 0]	n/a	catFR1	3	R1266J
684.146	4.193	1340004	REC_END	n/a	n/a	n/a	n/a	-999	5	[0, 0, 0]	n/a	catFR1	3	R1266J
688.339	0.5	1344197	TRIAL	n/a	n/a	n/a	n/a	-999	6	[0, 0, 0]	n/a	catFR1	3	R1266J
688.839	10.428	1344697	COUNTDOWN_START	n/a	n/a	n/a	n/a	-999	6	[0, 0, 0]	n/a	catFR1	3	R1266J
699.267	0.006	1355125	COUNTDOWN_END	n/a	n/a	n/a	n/a	-999	6	[0, 0, 0]	n/a	catFR1	3	R1266J
699.273	1.616	1355131	ORIENT	n/a	n/a	n/a	n/a	-999	6	[0, 0, 0]	n/a	catFR1	3	R1266J
700.889	1.885	1356747	ORIENT_OFF	n/a	n/a	n/a	n/a	-999	6	[0, 0, 0]	n/a	catFR1	3	R1266J
702.774	1.617	1358632	WORD	n/a	wordpools/wordpool_categorized_EN.txt	GIRAFFE	Zoo	1	6	[0, 0, 0]	n/a	catFR1	3	R1266J
704.391	0.85	1360249	WORD_OFF	n/a	n/a	GIRAFFE	n/a	1	6	[0, 0, 0]	n/a	catFR1	3	R1266J
705.241	1.616	1361099	WORD	n/a	wordpools/wordpool_categorized_EN.txt	BEAR	Zoo	2	6	[0, 0, 0]	n/a	catFR1	3	R1266J
706.857	1.016	1362715	WORD_OFF	n/a	n/a	BEAR	n/a	2	6	[0, 0, 0]	n/a	catFR1	3	R1266J
707.873	1.601	1363731	WORD	n/a	wordpools/wordpool_categorized_EN.txt	TRAIN	Vehicles	3	6	[0, 0, 0]	n/a	catFR1	3	R1266J
709.474	0.867	1365332	WORD_OFF	n/a	n/a	TRAIN	n/a	3	6	[0, 0, 0]	n/a	catFR1	3	R1266J
710.341	1.616	1366199	WORD	n/a	wordpools/wordpool_categorized_EN.txt	JEEP	Vehicles	4	6	[0, 0, 0]	n/a	catFR1	3	R1266J
711.957	0.984	1367815	WORD_OFF	n/a	n/a	JEEP	n/a	4	6	[0, 0, 0]	n/a	catFR1	3	R1266J
712.941	1.618	1368799	WORD	n/a	wordpools/wordpool_categorized_EN.txt	PETUNIA	Flowers	5	6	[0, 0, 0]	n/a	catFR1	3	R1266J
714.559	0.967	1370417	WORD_OFF	n/a	n/a	PETUNIA	n/a	5	6	[0, 0, 0]	n/a	catFR1	3	R1266J
715.526	1.616	1371384	WORD	n/a	wordpools/wordpool_categorized_EN.txt	VIOLET	Flowers	6	6	[0, 0, 0]	n/a	catFR1	3	R1266J
717.142	0.766	1373000	WORD_OFF	n/a	n/a	VIOLET	n/a	6	6	[0, 0, 0]	n/a	catFR1	3	R1266J
717.908	1.618	1373766	WORD	n/a	wordpools/wordpool_categorized_EN.txt	TRUCK	Vehicles	7	6	[0, 0, 0]	n/a	catFR1	3	R1266J
719.526	0.833	1375384	WORD_OFF	n/a	n/a	TRUCK	n/a	7	6	[0, 0, 0]	n/a	catFR1	3	R1266J
720.359	1.616	1376217	WORD	n/a	wordpools/wordpool_categorized_EN.txt	PLANE	Vehicles	8	6	[0, 0, 0]	n/a	catFR1	3	R1266J
721.975	0.851	1377833	WORD_OFF	n/a	n/a	PLANE	n/a	8	6	[0, 0, 0]	n/a	catFR1	3	R1266J
722.826	1.617	1378684	WORD	n/a	wordpools/wordpool_categorized_EN.txt	ZEBRA	Zoo	9	6	[0, 0, 0]	n/a	catFR1	3	R1266J
724.443	0.917	1380301	WORD_OFF	n/a	n/a	ZEBRA	n/a	9	6	[0, 0, 0]	n/a	catFR1	3	R1266J
725.36	1.616	1381218	WORD	n/a	wordpools/wordpool_categorized_EN.txt	PANDA	Zoo	10	6	[0, 0, 0]	n/a	catFR1	3	R1266J
726.976	0.95	1382834	WORD_OFF	n/a	n/a	PANDA	n/a	10	6	[0, 0, 0]	n/a	catFR1	3	R1266J
727.926	1.618	1383784	WORD	n/a	wordpools/wordpool_categorized_EN.txt	LILAC	Flowers	11	6	[0, 0, 0]	n/a	catFR1	3	R1266J
729.544	0.783	1385402	WORD_OFF	n/a	n/a	LILAC	n/a	11	6	[0, 0, 0]	n/a	catFR1	3	R1266J
730.327	1.616	1386185	WORD	n/a	wordpools/wordpool_categorized_EN.txt	DAISY	Flowers	12	6	[0, 0, 0]	n/a	catFR1	3	R1266J
731.943	0.0	1387801	ENCODING_END	n/a	n/a	n/a	n/a	-999	6	[0, 0, 0]	n/a	catFR1	3	R1266J
731.943	0.131	1387801	WORD_OFF	n/a	n/a	DAISY	n/a	12	6	[0, 0, 0]	n/a	catFR1	3	R1266J
732.074	0.0	1387932	DISTRACT_START	n/a	n/a	n/a	n/a	-999	6	[0, 0, 0]	n/a	catFR1	3	R1266J
732.074	0.019	1387932	START	n/a	n/a	n/a	n/a	-999	7	[-999, -999, -999]	n/a	catFR1	3	R1266J
732.093	8.619	1387951	PROB	8.583	n/a	n/a	n/a	-999	7	[7, 7, 5]	19.0	catFR1	3	R1266J
740.712	3.0	1396570	PROB	2.97	n/a	n/a	n/a	-999	7	[7, 2, 8]	17.0	catFR1	3	R1266J
743.712	4.801	1399570	PROB	4.771	n/a	n/a	n/a	-999	7	[9, 3, 2]	14.0	catFR1	3	R1266J
748.513	6.393	1404371	PROB	6.393	n/a	n/a	n/a	-999	7	[5, 7, 8]	20.0	catFR1	3	R1266J
754.906	0.007	1410764	STOP	n/a	n/a	n/a	n/a	-999	7	[-999, -999, -999]	n/a	catFR1	3	R1266J
754.913	0.568	1410771	DISTRACT_END	n/a	n/a	n/a	n/a	-999	6	[0, 0, 0]	n/a	catFR1	3	R1266J
755.481	0.516	1411339	RETRIEVAL_ORIENT	n/a	n/a	n/a	n/a	-999	6	[0, 0, 0]	n/a	catFR1	3	R1266J
755.997	4.443	1411855	REC_START	n/a	n/a	n/a	n/a	-999	6	[0, 0, 0]	n/a	catFR1	3	R1266J
760.44	2.749	1416298	REC_WORD	4.443	n/a	PANDA	Zoo	10	6	[0, 0, 0]	n/a	catFR1	3	R1266J
763.189	4.963	1419047	REC_WORD	7.192	n/a	ZEBRA	Zoo	9	6	[0, 0, 0]	n/a	catFR1	3	R1266J
768.152	1.0	1424010	REC_WORD_VV	12.155	n/a	<>	n/a	-999	6	[0, 0, 0]	n/a	catFR1	3	R1266J
769.152	16.858	1425010	REC_WORD_VV	13.155	n/a	<>	n/a	-999	6	[0, 0, 0]	n/a	catFR1	3	R1266J
786.01	4.124	1441868	REC_END	n/a	n/a	n/a	n/a	-999	6	[0, 0, 0]	n/a	catFR1	3	R1266J
790.134	0.5	1445992	TRIAL	n/a	n/a	n/a	n/a	-999	7	[0, 0, 0]	n/a	catFR1	3	R1266J
790.634	10.428	1446492	COUNTDOWN_START	n/a	n/a	n/a	n/a	-999	7	[0, 0, 0]	n/a	catFR1	3	R1266J
801.062	0.006	1456920	COUNTDOWN_END	n/a	n/a	n/a	n/a	-999	7	[0, 0, 0]	n/a	catFR1	3	R1266J
801.068	1.619	1456926	ORIENT	n/a	n/a	n/a	n/a	-999	7	[0, 0, 0]	n/a	catFR1	3	R1266J
802.687	2.332	1458545	ORIENT_OFF	n/a	n/a	n/a	n/a	-999	7	[0, 0, 0]	n/a	catFR1	3	R1266J
805.019	1.618	1460877	WORD	n/a	wordpools/wordpool_categorized_EN.txt	CIDER	Beverages	1	7	[0, 0, 0]	n/a	catFR1	3	R1266J
806.637	0.933	1462495	WORD_OFF	n/a	n/a	CIDER	n/a	1	7	[0, 0, 0]	n/a	catFR1	3	R1266J
807.57	1.616	1463428	WORD	n/a	wordpools/wordpool_categorized_EN.txt	TEA	Beverages	2	7	[0, 0, 0]	n/a	catFR1	3	R1266J
809.186	0.784	1465044	WORD_OFF	n/a	n/a	TEA	n/a	2	7	[0, 0, 0]	n/a	catFR1	3	R1266J
809.97	1.618	1465828	WORD	n/a	wordpools/wordpool_categorized_EN.txt	TOE	BodyParts	3	7	[0, 0, 0]	n/a	catFR1	3	R1266J
811.588	0.95	1467446	WORD_OFF	n/a	n/a	TOE	n/a	3	7	[0, 0, 0]	n/a	catFR1	3	R1266J
812.538	1.616	1468396	WORD	n/a	wordpools/wordpool_categorized_EN.txt	ARM	BodyParts	4	7	[0, 0, 0]	n/a	catFR1	3	R1266J
814.154	0.85	1470012	WORD_OFF	n/a	n/a	ARM	n/a	4	7	[0, 0, 0]	n/a	catFR1	3	R1266J
815.004	1.601	1470862	WORD	n/a	wordpools/wordpool_categorized_EN.txt	CAULIFLOWER	Vegetables	5	7	[0, 0, 0]	n/a	catFR1	3	R1266J
816.605	0.9	1472463	WORD_OFF	n/a	n/a	CAULIFLOWER	n/a	5	7	[0, 0, 0]	n/a	catFR1	3	R1266J
817.505	1.616	1473363	WORD	n/a	wordpools/wordpool_categorized_EN.txt	POTATO	Vegetables	6	7	[0, 0, 0]	n/a	catFR1	3	R1266J
819.121	0.817	1474979	WORD_OFF	n/a	n/a	POTATO	n/a	6	7	[0, 0, 0]	n/a	catFR1	3	R1266J
819.938	1.618	1475796	WORD	n/a	wordpools/wordpool_categorized_EN.txt	MILK	Beverages	7	7	[0, 0, 0]	n/a	catFR1	3	R1266J
821.556	0.883	1477414	WORD_OFF	n/a	n/a	MILK	n/a	7	7	[0, 0, 0]	n/a	catFR1	3	R1266J
822.439	1.616	1478297	WORD	n/a	wordpools/wordpool_categorized_EN.txt	RUM	Beverages	8	7	[0, 0, 0]	n/a	catFR1	3	R1266J
824.055	0.95	1479913	WORD_OFF	n/a	n/a	RUM	n/a	8	7	[0, 0, 0]	n/a	catFR1	3	R1266J
825.005	1.618	1480863	WORD	n/a	wordpools/wordpool_categorized_EN.txt	NOSE	BodyParts	9	7	[0, 0, 0]	n/a	catFR1	3	R1266J
826.623	0.767	1482481	WORD_OFF	n/a	n/a	NOSE	n/a	9	7	[0, 0, 0]	n/a	catFR1	3	R1266J
827.39	1.615	1483248	WORD	n/a	wordpools/wordpool_categorized_EN.txt	EAR	BodyParts	10	7	[0, 0, 0]	n/a	catFR1	3	R1266J
829.005	0.818	1484863	WORD_OFF	n/a	n/a	EAR	n/a	10	7	[0, 0, 0]	n/a	catFR1	3	R1266J
829.823	1.617	1485681	WORD	n/a	wordpools/wordpool_categorized_EN.txt	SPINACH	Vegetables	11	7	[0, 0, 0]	n/a	catFR1	3	R1266J
831.44	1.017	1487298	WORD_OFF	n/a	n/a	SPINACH	n/a	11	7	[0, 0, 0]	n/a	catFR1	3	R1266J
832.457	1.616	1488315	WORD	n/a	wordpools/wordpool_categorized_EN.txt	CELERY	Vegetables	12	7	[0, 0, 0]	n/a	catFR1	3	R1266J
834.073	0.0	1489931	ENCODING_END	n/a	n/a	n/a	n/a	-999	7	[0, 0, 0]	n/a	catFR1	3	R1266J
834.073	0.127	1489931	WORD_OFF	n/a	n/a	CELERY	n/a	12	7	[0, 0, 0]	n/a	catFR1	3	R1266J
834.2	0.001	1490058	DISTRACT_START	n/a	n/a	n/a	n/a	-999	7	[0, 0, 0]	n/a	catFR1	3	R1266J
834.201	0.022	1490059	START	n/a	n/a	n/a	n/a	-999	8	[-999, -999, -999]	n/a	catFR1	3	R1266J
834.223	9.536	1490081	PROB	9.497	n/a	n/a	n/a	-999	8	[2, 9, 5]	16.0	catFR1	3	R1266J
843.759	3.75	1499617	PROB	3.72	n/a	n/a	n/a	-999	8	[3, 5, 7]	15.0	catFR1	3	R1266J
847.509	2.716	1503367	PROB	2.681	n/a	n/a	n/a	-999	8	[6, 4, 4]	14.0	catFR1	3	R1266J
850.225	5.676	1506083	PROB	5.676	n/a	n/a	n/a	-999	8	[3, 9, 1]	13.0	catFR1	3	R1266J
855.901	0.009	1511759	STOP	n/a	n/a	n/a	n/a	-999	8	[-999, -999, -999]	n/a	catFR1	3	R1266J
855.91	0.55	1511768	DISTRACT_END	n/a	n/a	n/a	n/a	-999	7	[0, 0, 0]	n/a	catFR1	3	R1266J
856.46	0.517	1512318	RETRIEVAL_ORIENT	n/a	n/a	n/a	n/a	-999	7	[0, 0, 0]	n/a	catFR1	3	R1266J
856.977	3.432	1512835	REC_START	n/a	n/a	n/a	n/a	-999	7	[0, 0, 0]	n/a	catFR1	3	R1266J
860.409	1.13	1516267	REC_WORD	3.432	n/a	NOSE	BodyParts	9	7	[0, 0, 0]	n/a	catFR1	3	R1266J
861.539	5.77	1517397	REC_WORD	4.562	n/a	EAR	BodyParts	10	7	[0, 0, 0]	n/a	catFR1	3	R1266J
867.309	3.29	1523167	REC_WORD	10.332	n/a	LILAC	n/a	-999	7	[0, 0, 0]	n/a	catFR1	3	R1266J
870.599	0.191	1526457	REC_WORD_VV	13.622	n/a	<>	n/a	-999	7	[0, 0, 0]	n/a	catFR1	3	R1266J
870.79	1.623	1526648	REC_WORD	13.813	n/a	LILY	n/a	-999	7	[0, 0, 0]	n/a	catFR1	3	R1266J
872.413	14.579	1528271	REC_WORD_VV	15.436	n/a	<>	n/a	-999	7	[0, 0, 0]	n/a	catFR1	3	R1266J
886.992	4.556	1542850	REC_END	n/a	n/a	n/a	n/a	-999	7	[0, 0, 0]	n/a	catFR1	3	R1266J
891.548	0.5	1547406	TRIAL	n/a	n/a	n/a	n/a	-999	8	[0, 0, 0]	n/a	catFR1	3	R1266J
892.048	10.428	1547906	COUNTDOWN_START	n/a	n/a	n/a	n/a	-999	8	[0, 0, 0]	n/a	catFR1	3	R1266J
902.476	0.007	1558334	COUNTDOWN_END	n/a	n/a	n/a	n/a	-999	8	[0, 0, 0]	n/a	catFR1	3	R1266J
902.483	1.616	1558341	ORIENT	n/a	n/a	n/a	n/a	-999	8	[0, 0, 0]	n/a	catFR1	3	R1266J
904.099	2.05	1559957	ORIENT_OFF	n/a	n/a	n/a	n/a	-999	8	[0, 0, 0]	n/a	catFR1	3	R1266J
906.149	1.617	1562007	WORD	n/a	wordpools/wordpool_categorized_EN.txt	TORNADO	Weather	1	8	[0, 0, 0]	n/a	catFR1	3	R1266J
907.766	1.001	1563624	WORD_OFF	n/a	n/a	TORNADO	n/a	1	8	[0, 0, 0]	n/a	catFR1	3	R1266J
908.767	1.617	1564625	WORD	n/a	wordpools/wordpool_categorized_EN.txt	THUNDERSTORM	Weather	2	8	[0, 0, 0]	n/a	catFR1	3	R1266J
910.384	0.815	1566242	WORD_OFF	n/a	n/a	THUNDERSTORM	n/a	2	8	[0, 0, 0]	n/a	catFR1	3	R1266J
911.199	1.618	1567057	WORD	n/a	wordpools/wordpool_categorized_EN.txt	DRESS	Clothing	3	8	[0, 0, 0]	n/a	catFR1	3	R1266J
912.817	0.834	1568675	WORD_OFF	n/a	n/a	DRESS	n/a	3	8	[0, 0, 0]	n/a	catFR1	3	R1266J
913.651	1.617	1569509	WORD	n/a	wordpools/wordpool_categorized_EN.txt	SOCKS	Clothing	4	8	[0, 0, 0]	n/a	catFR1	3	R1266J
915.268	0.983	1571126	WORD_OFF	n/a	n/a	SOCKS	n/a	4	8	[0, 0, 0]	n/a	catFR1	3	R1266J
916.251	1.616	1572109	WORD	n/a	wordpools/wordpool_categorized_EN.txt	LILY	Flowers	5	8	[0, 0, 0]	n/a	catFR1	3	R1266J
917.867	0.951	1573725	WORD_OFF	n/a	n/a	LILY	n/a	5	8	[0, 0, 0]	n/a	catFR1	3	R1266J
918.818	1.617	1574676	WORD	n/a	wordpools/wordpool_categorized_EN.txt	SUNFLOWER	Flowers	6	8	[0, 0, 0]	n/a	catFR1	3	R1266J
920.435	0.833	1576293	WORD_OFF	n/a	n/a	SUNFLOWER	n/a	6	8	[0, 0, 0]	n/a	catFR1	3	R1266J
921.268	1.616	1577126	WORD	n/a	wordpools/wordpool_categorized_EN.txt	CLOUD	Weather	7	8	[0, 0, 0]	n/a	catFR1	3	R1266J
922.884	0.902	1578742	WORD_OFF	n/a	n/a	CLOUD	n/a	7	8	[0, 0, 0]	n/a	catFR1	3	R1266J
923.786	1.616	1579644	WORD	n/a	wordpools/wordpool_categorized_EN.txt	DRIZZLE	Weather	8	8	[0, 0, 0]	n/a	catFR1	3	R1266J
925.402	0.783	1581260	WORD_OFF	n/a	n/a	DRIZZLE	n/a	8	8	[0, 0, 0]	n/a	catFR1	3	R1266J
926.185	1.617	1582043	WORD	n/a	wordpools/wordpool_categorized_EN.txt	SHOES	Clothing	9	8	[0, 0, 0]	n/a	catFR1	3	R1266J
927.802	0.967	1583660	WORD_OFF	n/a	n/a	SHOES	n/a	9	8	[0, 0, 0]	n/a	catFR1	3	R1266J
928.769	1.617	1584627	WORD	n/a	wordpools/wordpool_categorized_EN.txt	SKIRT	Clothing	10	8	[0, 0, 0]	n/a	catFR1	3	R1266J
930.386	0.9	1586244	WORD_OFF	n/a	n/a	SKIRT	n/a	10	8	[0, 0, 0]	n/a	catFR1	3	R1266J
931.286	1.616	1587144	WORD	n/a	wordpools/wordpool_categorized_EN.txt	TULIP	Flowers	11	8	[0, 0, 0]	n/a	catFR1	3	R1266J
932.902	1.001	1588760	WORD_OFF	n/a	n/a	TULIP	n/a	11	8	[0, 0, 0]	n/a	catFR1	3	R1266J
933.903	1.617	1589761	WORD	n/a	wordpools/wordpool_categorized_EN.txt	DAFFODIL	Flowers	12	8	[0, 0, 0]	n/a	catFR1	3	R1266J
935.52	0.001	1591378	WORD_OFF	n/a	n/a	DAFFODIL	n/a	12	8	[0, 0, 0]	n/a	catFR1	3	R1266J
935.521	0.098	1591379	ENCODING_END	n/a	n/a	n/a	n/a	-999	8	[0, 0, 0]	n/a	catFR1	3	R1266J
935.619	0.0	1591477	DISTRACT_START	n/a	n/a	n/a	n/a	-999	8	[0, 0, 0]	n/a	catFR1	3	R1266J
935.619	0.018	1591477	START	n/a	n/a	n/a	n/a	-999	9	[-999, -999, -999]	n/a	catFR1	3	R1266J
935.637	9.068	1591495	PROB	9.038	n/a	n/a	n/a	-999	9	[2, 9, 4]	15.0	catFR1	3	R1266J
944.705	3.216	1600563	PROB	3.192	n/a	n/a	n/a	-999	9	[7, 9, 3]	19.0	catFR1	3	R1266J
947.921	2.668	1603779	PROB	2.64	n/a	n/a	n/a	-999	9	[3, 4, 6]	13.0	catFR1	3	R1266J
950.589	2.717	1606447	PROB	2.685	n/a	n/a	n/a	-999	9	[5, 2, 8]	15.0	catFR1	3	R1266J
953.306	6.535	1609164	PROB	6.535	n/a	n/a	n/a	-999	9	[7, 9, 4]	20.0	catFR1	3	R1266J
959.841	0.015	1615699	STOP	n/a	n/a	n/a	n/a	-999	9	[-999, -999, -999]	n/a	catFR1	3	R1266J
959.856	0.701	1615714	DISTRACT_END	n/a	n/a	n/a	n/a	-999	8	[0, 0, 0]	n/a	catFR1	3	R1266J
960.557	0.516	1616415	RETRIEVAL_ORIENT	n/a	n/a	n/a	n/a	-999	8	[0, 0, 0]	n/a	catFR1	3	R1266J
961.073	1.65	1616931	REC_START	n/a	n/a	n/a	n/a	-999	8	[0, 0, 0]	n/a	catFR1	3	R1266J
962.723	2.277	1618581	REC_WORD_VV	1.65	n/a	<>	n/a	-999	8	[0, 0, 0]	n/a	catFR1	3	R1266J
965.0	1.917	1620858	REC_WORD	3.927	n/a	THUNDERSTORM	Weather	2	8	[0, 0, 0]	n/a	catFR1	3	R1266J
966.917	0.689	1622775	REC_WORD_VV	5.844	n/a	<>	n/a	-999	8	[0, 0, 0]	n/a	catFR1	3	R1266J
967.606	1.844	1623464	REC_WORD	6.533	n/a	TORNADO	Weather	1	8	[0, 0, 0]	n/a	catFR1	3	R1266J
969.45	0.789	1625308	REC_WORD	8.377	n/a	SOCKS	Clothing	4	8	[0, 0, 0]	n/a	catFR1	3	R1266J
970.239	3.189	1626097	REC_WORD	9.166	n/a	SKIRT	Clothing	10	8	[0, 0, 0]	n/a	catFR1	3	R1266J
973.428	4.211	1629286	REC_WORD	12.355	n/a	RAIN	n/a	-999	8	[0, 0, 0]	n/a	catFR1	3	R1266J
977.639	13.446	1633497	REC_WORD	16.566	n/a	LILY	Flowers	5	8	[0, 0, 0]	n/a	catFR1	3	R1266J
991.085	4.21	1646943	REC_END	n/a	n/a	n/a	n/a	-999	8	[0, 0, 0]	n/a	catFR1	3	R1266J
995.295	0.5	1651153	TRIAL	n/a	n/a	n/a	n/a	-999	9	[0, 0, 0]	n/a	catFR1	3	R1266J
995.795	10.428	1651653	COUNTDOWN_START	n/a	n/a	n/a	n/a	-999	9	[0, 0, 0]	n/a	catFR1	3	R1266J
1006.223	0.005	1662081	COUNTDOWN_END	n/a	n/a	n/a	n/a	-999	9	[0, 0, 0]	n/a	catFR1	3	R1266J
1006.228	1.617	1662086	ORIENT	n/a	n/a	n/a	n/a	-999	9	[0, 0, 0]	n/a	catFR1	3	R1266J
1007.845	2.067	1663703	ORIENT_OFF	n/a	n/a	n/a	n/a	-999	9	[0, 0, 0]	n/a	catFR1	3	R1266J
1009.912	1.618	1665770	WORD	n/a	wordpools/wordpool_categorized_EN.txt	PUZZLE	Toys	1	9	[0, 0, 0]	n/a	catFR1	3	R1266J
1011.53	0.767	1667388	WORD_OFF	n/a	n/a	PUZZLE	n/a	1	9	[0, 0, 0]	n/a	catFR1	3	R1266J
1012.297	1.616	1668155	WORD	n/a	wordpools/wordpool_categorized_EN.txt	BARBIE	Toys	2	9	[0, 0, 0]	n/a	catFR1	3	R1266J
1013.913	0.933	1669771	WORD_OFF	n/a	n/a	BARBIE	n/a	2	9	[0, 0, 0]	n/a	catFR1	3	R1266J
1014.846	1.601	1670704	WORD	n/a	wordpools/wordpool_categorized_EN.txt	ROOSTER	FarmAnimals	3	9	[0, 0, 0]	n/a	catFR1	3	R1266J
1016.447	0.934	1672305	WORD_OFF	n/a	n/a	ROOSTER	n/a	3	9	[0, 0, 0]	n/a	catFR1	3	R1266J
1017.381	1.616	1673239	WORD	n/a	wordpools/wordpool_categorized_EN.txt	CHICKEN	FarmAnimals	4	9	[0, 0, 0]	n/a	catFR1	3	R1266J
1018.997	0.883	1674855	WORD_OFF	n/a	n/a	CHICKEN	n/a	4	9	[0, 0, 0]	n/a	catFR1	3	R1266J
1019.88	1.618	1675738	WORD	n/a	wordpools/wordpool_categorized_EN.txt	NIGHTSTAND	Furniture	5	9	[0, 0, 0]	n/a	catFR1	3	R1266J
1021.498	0.967	1677356	WORD_OFF	n/a	n/a	NIGHTSTAND	n/a	5	9	[0, 0, 0]	n/a	catFR1	3	R1266J
1022.465	1.616	1678323	WORD	n/a	wordpools/wordpool_categorized_EN.txt	CHAIR	Furniture	6	9	[0, 0, 0]	n/a	catFR1	3	R1266J
1024.081	0.966	1679939	WORD_OFF	n/a	n/a	CHAIR	n/a	6	9	[0, 0, 0]	n/a	catFR1	3	R1266J
1025.047	1.602	1680905	WORD	n/a	wordpools/wordpool_categorized_EN.txt	DOLL	Toys	7	9	[0, 0, 0]	n/a	catFR1	3	R1266J
1026.649	0.916	1682507	WORD_OFF	n/a	n/a	DOLL	n/a	7	9	[0, 0, 0]	n/a	catFR1	3	R1266J
1027.565	1.616	1683423	WORD	n/a	wordpools/wordpool_categorized_EN.txt	SLINKY	Toys	8	9	[0, 0, 0]	n/a	catFR1	3	R1266J
1029.181	0.767	1685039	WORD_OFF	n/a	n/a	SLINKY	n/a	8	9	[0, 0, 0]	n/a	catFR1	3	R1266J
1029.948	1.618	1685806	WORD	n/a	wordpools/wordpool_categorized_EN.txt	HORSE	FarmAnimals	9	9	[0, 0, 0]	n/a	catFR1	3	R1266J
1031.566	0.867	1687424	WORD_OFF	n/a	n/a	HORSE	n/a	9	9	[0, 0, 0]	n/a	catFR1	3	R1266J
1032.433	1.616	1688291	WORD	n/a	wordpools/wordpool_categorized_EN.txt	CALF	FarmAnimals	10	9	[0, 0, 0]	n/a	catFR1	3	R1266J
1034.049	0.883	1689907	WORD_OFF	n/a	n/a	CALF	n/a	10	9	[0, 0, 0]	n/a	catFR1	3	R1266J
1034.932	1.618	1690790	WORD	n/a	wordpools/wordpool_categorized_EN.txt	DRESSER	Furniture	11	9	[0, 0, 0]	n/a	catFR1	3	R1266J
1036.55	0.9	1692408	WORD_OFF	n/a	n/a	DRESSER	n/a	11	9	[0, 0, 0]	n/a	catFR1	3	R1266J
1037.45	1.616	1693308	WORD	n/a	wordpools/wordpool_categorized_EN.txt	BED	Furniture	12	9	[0, 0, 0]	n/a	catFR1	3	R1266J
1039.066	0.0	1694924	ENCODING_END	n/a	n/a	n/a	n/a	-999	9	[0, 0, 0]	n/a	catFR1	3	R1266J
1039.066	0.135	1694924	WORD_OFF	n/a	n/a	BED	n/a	12	9	[0, 0, 0]	n/a	catFR1	3	R1266J
1039.201	0.0	1695059	DISTRACT_START	n/a	n/a	n/a	n/a	-999	9	[0, 0, 0]	n/a	catFR1	3	R1266J
1039.201	0.015	1695059	START	n/a	n/a	n/a	n/a	-999	10	[-999, -999, -999]	n/a	catFR1	3	R1266J
1039.216	18.203	1695074	PROB	18.174	n/a	n/a	n/a	-999	10	[8, 6, 2]	16.0	catFR1	3	R1266J
1057.419	1.81	1713277	PROB	1.81	n/a	n/a	n/a	-999	10	[3, 7, 1]	11.0	catFR1	3	R1266J
1059.229	0.024	1715087	STOP	n/a	n/a	n/a	n/a	-999	10	[-999, -999, -999]	n/a	catFR1	3	R1266J
1059.253	0.649	1715111	DISTRACT_END	n/a	n/a	n/a	n/a	-999	9	[0, 0, 0]	n/a	catFR1	3	R1266J
1059.902	0.518	1715760	RETRIEVAL_ORIENT	n/a	n/a	n/a	n/a	-999	9	[0, 0, 0]	n/a	catFR1	3	R1266J
1060.42	30.0	1716278	REC_START	n/a	n/a	n/a	n/a	-999	9	[0, 0, 0]	n/a	catFR1	3	R1266J
1090.42	0.012	1746278	REC_WORD_VV	30.0	n/a	<>	n/a	-999	9	[0, 0, 0]	n/a	catFR1	3	R1266J
1090.432	5.076	1746290	REC_END	n/a	n/a	n/a	n/a	-999	9	[0, 0, 0]	n/a	catFR1	3	R1266J
1095.508	0.5	1751366	TRIAL	n/a	n/a	n/a	n/a	-999	10	[0, 0, 0]	n/a	catFR1	3	R1266J
1096.008	10.428	1751866	COUNTDOWN_START	n/a	n/a	n/a	n/a	-999	10	[0, 0, 0]	n/a	catFR1	3	R1266J
1106.436	0.006	1762294	COUNTDOWN_END	n/a	n/a	n/a	n/a	-999	10	[0, 0, 0]	n/a	catFR1	3	R1266J
1106.442	1.616	1762300	ORIENT	n/a	n/a	n/a	n/a	-999	10	[0, 0, 0]	n/a	catFR1	3	R1266J
1108.058	2.017	1763916	ORIENT_OFF	n/a	n/a	n/a	n/a	-999	10	[0, 0, 0]	n/a	catFR1	3	R1266J
1110.075	1.601	1765933	WORD	n/a	wordpools/wordpool_categorized_EN.txt	BROCCOLI	Vegetables	1	10	[0, 0, 0]	n/a	catFR1	3	R1266J
1111.676	0.967	1767534	WORD_OFF	n/a	n/a	BROCCOLI	n/a	1	10	[0, 0, 0]	n/a	catFR1	3	R1266J
1112.643	1.617	1768501	WORD	n/a	wordpools/wordpool_categorized_EN.txt	CORN	Vegetables	2	10	[0, 0, 0]	n/a	catFR1	3	R1266J
1114.26	0.932	1770118	WORD_OFF	n/a	n/a	CORN	n/a	2	10	[0, 0, 0]	n/a	catFR1	3	R1266J
1115.192	1.601	1771050	WORD	n/a	wordpools/wordpool_categorized_EN.txt	HUMIDITY	Weather	3	10	[0, 0, 0]	n/a	catFR1	3	R1266J
1116.793	1.0	1772651	WORD_OFF	n/a	n/a	HUMIDITY	n/a	3	10	[0, 0, 0]	n/a	catFR1	3	R1266J
1117.793	1.617	1773651	WORD	n/a	wordpools/wordpool_categorized_EN.txt	THUNDER	Weather	4	10	[0, 0, 0]	n/a	catFR1	3	R1266J
1119.41	0.834	1775268	WORD_OFF	n/a	n/a	THUNDER	n/a	4	10	[0, 0, 0]	n/a	catFR1	3	R1266J
1120.244	1.616	1776102	WORD	n/a	wordpools/wordpool_categorized_EN.txt	FISH	OceanAnimals	5	10	[0, 0, 0]	n/a	catFR1	3	R1266J
1121.86	0.884	1777718	WORD_OFF	n/a	n/a	FISH	n/a	5	10	[0, 0, 0]	n/a	catFR1	3	R1266J
1122.744	1.617	1778602	WORD	n/a	wordpools/wordpool_categorized_EN.txt	PLANKTON	OceanAnimals	6	10	[0, 0, 0]	n/a	catFR1	3	R1266J
1124.361	0.934	1780219	WORD_OFF	n/a	n/a	PLANKTON	n/a	6	10	[0, 0, 0]	n/a	catFR1	3	R1266J
1125.295	1.616	1781153	WORD	n/a	wordpools/wordpool_categorized_EN.txt	FOG	Weather	7	10	[0, 0, 0]	n/a	catFR1	3	R1266J
1126.911	0.867	1782769	WORD_OFF	n/a	n/a	FOG	n/a	7	10	[0, 0, 0]	n/a	catFR1	3	R1266J
1127.778	1.617	1783636	WORD	n/a	wordpools/wordpool_categorized_EN.txt	LIGHTNING	Weather	8	10	[0, 0, 0]	n/a	catFR1	3	R1266J
1129.395	0.833	1785253	WORD_OFF	n/a	n/a	LIGHTNING	n/a	8	10	[0, 0, 0]	n/a	catFR1	3	R1266J
1130.228	1.616	1786086	WORD	n/a	wordpools/wordpool_categorized_EN.txt	CUCUMBER	Vegetables	9	10	[0, 0, 0]	n/a	catFR1	3	R1266J
1131.844	1.001	1787702	WORD_OFF	n/a	n/a	CUCUMBER	n/a	9	10	[0, 0, 0]	n/a	catFR1	3	R1266J
1132.845	1.617	1788703	WORD	n/a	wordpools/wordpool_categorized_EN.txt	CABBAGE	Vegetables	10	10	[0, 0, 0]	n/a	catFR1	3	R1266J
1134.462	0.817	1790320	WORD_OFF	n/a	n/a	CABBAGE	n/a	10	10	[0, 0, 0]	n/a	catFR1	3	R1266J
1135.279	1.616	1791137	WORD	n/a	wordpools/wordpool_categorized_EN.txt	CRAB	OceanAnimals	11	10	[0, 0, 0]	n/a	catFR1	3	R1266J
1136.895	0.784	1792753	WORD_OFF	n/a	n/a	CRAB	n/a	11	10	[0, 0, 0]	n/a	catFR1	3	R1266J
1137.679	1.617	1793537	WORD	n/a	wordpools/wordpool_categorized_EN.txt	WHALE	OceanAnimals	12	10	[0, 0, 0]	n/a	catFR1	3	R1266J
1139.296	0.001	1795154	WORD_OFF	n/a	n/a	WHALE	n/a	12	10	[0, 0, 0]	n/a	catFR1	3	R1266J
1139.297	0.1	1795155	ENCODING_END	n/a	n/a	n/a	n/a	-999	10	[0, 0, 0]	n/a	catFR1	3	R1266J
1139.397	0.0	1795255	DISTRACT_START	n/a	n/a	n/a	n/a	-999	10	[0, 0, 0]	n/a	catFR1	3	R1266J
1139.397	0.016	1795255	START	n/a	n/a	n/a	n/a	-999	11	[-999, -999, -999]	n/a	catFR1	3	R1266J
1139.413	4.55	1795271	PROB	4.517	n/a	n/a	n/a	-999	11	[9, 1, 7]	17.0	catFR1	3	R1266J
1143.963	7.884	1799821	PROB	7.854	n/a	n/a	n/a	-999	11	[2, 5, 4]	11.0	catFR1	3	R1266J
1151.847	4.735	1807705	PROB	4.698	n/a	n/a	n/a	-999	11	[7, 9, 4]	20.0	catFR1	3	R1266J
1156.582	3.915	1812440	PROB	3.915	n/a	n/a	n/a	-999	11	[6, 9, 5]	29.0	catFR1	3	R1266J
1160.497	0.019	1816355	STOP	n/a	n/a	n/a	n/a	-999	11	[-999, -999, -999]	n/a	catFR1	3	R1266J
1160.516	0.682	1816374	DISTRACT_END	n/a	n/a	n/a	n/a	-999	10	[0, 0, 0]	n/a	catFR1	3	R1266J
1161.198	0.519	1817056	RETRIEVAL_ORIENT	n/a	n/a	n/a	n/a	-999	10	[0, 0, 0]	n/a	catFR1	3	R1266J
1161.717	1.288	1817575	REC_START	n/a	n/a	n/a	n/a	-999	10	[0, 0, 0]	n/a	catFR1	3	R1266J
1163.005	1.678	1818863	REC_WORD	1.288	n/a	THUNDER	Weather	4	10	[0, 0, 0]	n/a	catFR1	3	R1266J
1164.683	1.324	1820541	REC_WORD	2.966	n/a	HUMIDITY	Weather	3	10	[0, 0, 0]	n/a	catFR1	3	R1266J
1166.007	25.721	1821865	REC_WORD	4.29	n/a	CHAIR	n/a	-999	10	[0, 0, 0]	n/a	catFR1	3	R1266J
1191.728	5.108	1847586	REC_END	n/a	n/a	n/a	n/a	-999	10	[0, 0, 0]	n/a	catFR1	3	R1266J
1196.836	0.5	1852694	TRIAL	n/a	n/a	n/a	n/a	-999	11	[0, 0, 0]	n/a	catFR1	3	R1266J
1197.336	10.428	1853194	COUNTDOWN_START	n/a	n/a	n/a	n/a	-999	11	[0, 0, 0]	n/a	catFR1	3	R1266J
1207.764	0.008	1863622	COUNTDOWN_END	n/a	n/a	n/a	n/a	-999	11	[0, 0, 0]	n/a	catFR1	3	R1266J
1207.772	1.616	1863630	ORIENT	n/a	n/a	n/a	n/a	-999	11	[0, 0, 0]	n/a	catFR1	3	R1266J
1209.388	1.851	1865246	ORIENT_OFF	n/a	n/a	n/a	n/a	-999	11	[0, 0, 0]	n/a	catFR1	3	R1266J
1211.239	1.616	1867097	WORD	n/a	wordpools/wordpool_categorized_EN.txt	STOVE	Appliances	1	11	[0, 0, 0]	n/a	catFR1	3	R1266J
1212.855	0.901	1868713	WORD_OFF	n/a	n/a	STOVE	n/a	1	11	[0, 0, 0]	n/a	catFR1	3	R1266J
1213.756	1.617	1869614	WORD	n/a	wordpools/wordpool_categorized_EN.txt	REFRIGERATOR	Appliances	2	11	[0, 0, 0]	n/a	catFR1	3	R1266J
1215.373	0.799	1871231	WORD_OFF	n/a	n/a	REFRIGERATOR	n/a	2	11	[0, 0, 0]	n/a	catFR1	3	R1266J
1216.172	1.618	1872030	WORD	n/a	wordpools/wordpool_categorized_EN.txt	SOFA	Furniture	3	11	[0, 0, 0]	n/a	catFR1	3	R1266J
1217.79	0.766	1873648	WORD_OFF	n/a	n/a	SOFA	n/a	3	11	[0, 0, 0]	n/a	catFR1	3	R1266J
1218.556	1.616	1874414	WORD	n/a	wordpools/wordpool_categorized_EN.txt	SHELF	Furniture	4	11	[0, 0, 0]	n/a	catFR1	3	R1266J
1220.172	1.0	1876030	WORD_OFF	n/a	n/a	SHELF	n/a	4	11	[0, 0, 0]	n/a	catFR1	3	R1266J
1221.172	1.601	1877030	WORD	n/a	wordpools/wordpool_categorized_EN.txt	RADIO	Electronics	5	11	[0, 0, 0]	n/a	catFR1	3	R1266J
1222.773	0.868	1878631	WORD_OFF	n/a	n/a	RADIO	n/a	5	11	[0, 0, 0]	n/a	catFR1	3	R1266J
1223.641	1.616	1879499	WORD	n/a	wordpools/wordpool_categorized_EN.txt	CALCULATOR	Electronics	6	11	[0, 0, 0]	n/a	catFR1	3	R1266J
1225.257	0.933	1881115	WORD_OFF	n/a	n/a	CALCULATOR	n/a	6	11	[0, 0, 0]	n/a	catFR1	3	R1266J
1226.19	1.617	1882048	WORD	n/a	wordpools/wordpool_categorized_EN.txt	TABLE	Furniture	7	11	[0, 0, 0]	n/a	catFR1	3	R1266J
1227.807	0.817	1883665	WORD_OFF	n/a	n/a	TABLE	n/a	7	11	[0, 0, 0]	n/a	catFR1	3	R1266J
1228.624	1.617	1884482	WORD	n/a	wordpools/wordpool_categorized_EN.txt	RECLINER	Furniture	8	11	[0, 0, 0]	n/a	catFR1	3	R1266J
1230.241	0.833	1886099	WORD_OFF	n/a	n/a	RECLINER	n/a	8	11	[0, 0, 0]	n/a	catFR1	3	R1266J
1231.074	1.618	1886932	WORD	n/a	wordpools/wordpool_categorized_EN.txt	BLENDER	Appliances	9	11	[0, 0, 0]	n/a	catFR1	3	R1266J
1232.692	0.966	1888550	WORD_OFF	n/a	n/a	BLENDER	n/a	9	11	[0, 0, 0]	n/a	catFR1	3	R1266J
1233.658	1.617	1889516	WORD	n/a	wordpools/wordpool_categorized_EN.txt	FREEZER	Appliances	10	11	[0, 0, 0]	n/a	catFR1	3	R1266J
1235.275	0.866	1891133	WORD_OFF	n/a	n/a	FREEZER	n/a	10	11	[0, 0, 0]	n/a	catFR1	3	R1266J
1236.141	1.618	1891999	WORD	n/a	wordpools/wordpool_categorized_EN.txt	HEADPHONES	Electronics	11	11	[0, 0, 0]	n/a	catFR1	3	R1266J
1237.759	0.833	1893617	WORD_OFF	n/a	n/a	HEADPHONES	n/a	11	11	[0, 0, 0]	n/a	catFR1	3	R1266J
1238.592	1.616	1894450	WORD	n/a	wordpools/wordpool_categorized_EN.txt	MICROWAVE	Electronics	12	11	[0, 0, 0]	n/a	catFR1	3	R1266J
1240.208	0.001	1896066	WORD_OFF	n/a	n/a	MICROWAVE	n/a	12	11	[0, 0, 0]	n/a	catFR1	3	R1266J
1240.209	0.099	1896067	ENCODING_END	n/a	n/a	n/a	n/a	-999	11	[0, 0, 0]	n/a	catFR1	3	R1266J
1240.308	0.0	1896166	DISTRACT_START	n/a	n/a	n/a	n/a	-999	11	[0, 0, 0]	n/a	catFR1	3	R1266J
1240.308	0.018	1896166	START	n/a	n/a	n/a	n/a	-999	12	[-999, -999, -999]	n/a	catFR1	3	R1266J
1240.326	6.234	1896184	PROB	6.201	n/a	n/a	n/a	-999	12	[5, 9, 8]	22.0	catFR1	3	R1266J
1246.56	2.566	1902418	PROB	2.533	n/a	n/a	n/a	-999	12	[7, 8, 2]	17.0	catFR1	3	R1266J
1249.126	5.834	1904984	PROB	5.807	n/a	n/a	n/a	-999	12	[4, 9, 5]	18.0	catFR1	3	R1266J
1254.96	2.418	1910818	PROB	2.391	n/a	n/a	n/a	-999	12	[9, 1, 8]	18.0	catFR1	3	R1266J
1257.378	2.35	1913236	PROB	2.315	n/a	n/a	n/a	-999	12	[9, 1, 1]	11.0	catFR1	3	R1266J
1259.728	4.798	1915586	PROB	4.798	n/a	n/a	n/a	-999	12	[4, 9, 8]	21.0	catFR1	3	R1266J
1264.526	0.02	1920384	STOP	n/a	n/a	n/a	n/a	-999	12	[-999, -999, -999]	n/a	catFR1	3	R1266J
1264.546	0.7	1920404	DISTRACT_END	n/a	n/a	n/a	n/a	-999	11	[0, 0, 0]	n/a	catFR1	3	R1266J
1265.246	0.518	1921104	RETRIEVAL_ORIENT	n/a	n/a	n/a	n/a	-999	11	[0, 0, 0]	n/a	catFR1	3	R1266J
1265.764	1.484	1921622	REC_START	n/a	n/a	n/a	n/a	-999	11	[0, 0, 0]	n/a	catFR1	3	R1266J
1267.248	2.054	1923106	REC_WORD	1.484	n/a	REFRIGERATOR	Appliances	2	11	[0, 0, 0]	n/a	catFR1	3	R1266J
1269.302	1.521	1925160	REC_WORD	3.538	n/a	STOVE	Appliances	1	11	[0, 0, 0]	n/a	catFR1	3	R1266J
1270.823	0.734	1926681	REC_WORD	5.059	n/a	CHAIR	n/a	-999	11	[0, 0, 0]	n/a	catFR1	3	R1266J
1271.557	3.036	1927415	REC_WORD	5.793	n/a	SOFA	Furniture	3	11	[0, 0, 0]	n/a	catFR1	3	R1266J
1274.593	21.183	1930451	REC_WORD	8.829	n/a	SHELF	Furniture	4	11	[0, 0, 0]	n/a	catFR1	3	R1266J
1295.776	4.29	1951634	REC_END	n/a	n/a	n/a	n/a	-999	11	[0, 0, 0]	n/a	catFR1	3	R1266J
1300.066	0.5	1955924	TRIAL	n/a	n/a	n/a	n/a	-999	12	[0, 0, 0]	n/a	catFR1	3	R1266J
1300.566	10.428	1956424	COUNTDOWN_START	n/a	n/a	n/a	n/a	-999	12	[0, 0, 0]	n/a	catFR1	3	R1266J
1310.994	0.006	1966852	COUNTDOWN_END	n/a	n/a	n/a	n/a	-999	12	[0, 0, 0]	n/a	catFR1	3	R1266J
1311.0	1.602	1966858	ORIENT	n/a	n/a	n/a	n/a	-999	12	[0, 0, 0]	n/a	catFR1	3	R1266J
1312.602	2.15	1968460	ORIENT_OFF	n/a	n/a	n/a	n/a	-999	12	[0, 0, 0]	n/a	catFR1	3	R1266J
1314.752	1.617	1970610	WORD	n/a	wordpools/wordpool_categorized_EN.txt	FOOTBALL	Toys	1	12	[0, 0, 0]	n/a	catFR1	3	R1266J
1316.369	0.816	1972227	WORD_OFF	n/a	n/a	FOOTBALL	n/a	1	12	[0, 0, 0]	n/a	catFR1	3	R1266J
1317.185	1.618	1973043	WORD	n/a	wordpools/wordpool_categorized_EN.txt	BASEBALL	Toys	2	12	[0, 0, 0]	n/a	catFR1	3	R1266J
1318.803	0.833	1974661	WORD_OFF	n/a	n/a	BASEBALL	n/a	2	12	[0, 0, 0]	n/a	catFR1	3	R1266J
1319.636	1.617	1975494	WORD	n/a	wordpools/wordpool_categorized_EN.txt	VACUUM	Appliances	3	12	[0, 0, 0]	n/a	catFR1	3	R1266J
1321.253	0.916	1977111	WORD_OFF	n/a	n/a	VACUUM	n/a	3	12	[0, 0, 0]	n/a	catFR1	3	R1266J
1322.169	1.618	1978027	WORD	n/a	wordpools/wordpool_categorized_EN.txt	MIXER	Appliances	4	12	[0, 0, 0]	n/a	catFR1	3	R1266J
1323.787	0.967	1979645	WORD_OFF	n/a	n/a	MIXER	n/a	4	12	[0, 0, 0]	n/a	catFR1	3	R1266J
1324.754	1.616	1980612	WORD	n/a	wordpools/wordpool_categorized_EN.txt	OCEAN	Landscapes	5	12	[0, 0, 0]	n/a	catFR1	3	R1266J
1326.37	0.766	1982228	WORD_OFF	n/a	n/a	OCEAN	n/a	5	12	[0, 0, 0]	n/a	catFR1	3	R1266J
1327.136	1.618	1982994	WORD	n/a	wordpools/wordpool_categorized_EN.txt	RIVER	Landscapes	6	12	[0, 0, 0]	n/a	catFR1	3	R1266J
1328.754	0.8	1984612	WORD_OFF	n/a	n/a	RIVER	n/a	6	12	[0, 0, 0]	n/a	catFR1	3	R1266J
1329.554	1.616	1985412	WORD	n/a	wordpools/wordpool_categorized_EN.txt	OVEN	Appliances	7	12	[0, 0, 0]	n/a	catFR1	3	R1266J
1331.17	1.017	1987028	WORD_OFF	n/a	n/a	OVEN	n/a	7	12	[0, 0, 0]	n/a	catFR1	3	R1266J
1332.187	1.601	1988045	WORD	n/a	wordpools/wordpool_categorized_EN.txt	IRON	Appliances	8	12	[0, 0, 0]	n/a	catFR1	3	R1266J
1333.788	0.783	1989646	WORD_OFF	n/a	n/a	IRON	n/a	8	12	[0, 0, 0]	n/a	catFR1	3	R1266J
1334.571	1.616	1990429	WORD	n/a	wordpools/wordpool_categorized_EN.txt	DOLLHOUSE	Toys	9	12	[0, 0, 0]	n/a	catFR1	3	R1266J
1336.187	0.967	1992045	WORD_OFF	n/a	n/a	DOLLHOUSE	n/a	9	12	[0, 0, 0]	n/a	catFR1	3	R1266J
1337.154	1.618	1993012	WORD	n/a	wordpools/wordpool_categorized_EN.txt	BASKETBALL	Toys	10	12	[0, 0, 0]	n/a	catFR1	3	R1266J
1338.772	0.8	1994630	WORD_OFF	n/a	n/a	BASKETBALL	n/a	10	12	[0, 0, 0]	n/a	catFR1	3	R1266J
1339.572	1.616	1995430	WORD	n/a	wordpools/wordpool_categorized_EN.txt	HILLS	Landscapes	11	12	[0, 0, 0]	n/a	catFR1	3	R1266J
1341.188	0.967	1997046	WORD_OFF	n/a	n/a	HILLS	n/a	11	12	[0, 0, 0]	n/a	catFR1	3	R1266J
1342.155	1.618	1998013	WORD	n/a	wordpools/wordpool_categorized_EN.txt	LAKE	Landscapes	12	12	[0, 0, 0]	n/a	catFR1	3	R1266J
1343.773	0.0	1999631	ENCODING_END	n/a	n/a	n/a	n/a	-999	12	[0, 0, 0]	n/a	catFR1	3	R1266J
1343.773	0.131	1999631	WORD_OFF	n/a	n/a	LAKE	n/a	12	12	[0, 0, 0]	n/a	catFR1	3	R1266J
1343.904	0.0	1999762	DISTRACT_START	n/a	n/a	n/a	n/a	-999	12	[0, 0, 0]	n/a	catFR1	3	R1266J
1343.904	0.018	1999762	START	n/a	n/a	n/a	n/a	-999	13	[-999, -999, -999]	n/a	catFR1	3	R1266J
1343.922	4.283	1999780	PROB	4.247	n/a	n/a	n/a	-999	13	[8, 1, 4]	13.0	catFR1	3	R1266J
1348.205	5.335	2004063	PROB	5.309	n/a	n/a	n/a	-999	13	[2, 6, 7]	15.0	catFR1	3	R1266J
1353.54	2.701	2009398	PROB	2.67	n/a	n/a	n/a	-999	13	[3, 7, 6]	16.0	catFR1	3	R1266J
1356.241	2.3	2012099	PROB	2.272	n/a	n/a	n/a	-999	13	[4, 6, 4]	14.0	catFR1	3	R1266J
1358.541	2.316	2014399	PROB	2.284	n/a	n/a	n/a	-999	13	[2, 8, 9]	19.0	catFR1	3	R1266J
1360.857	5.68	2016715	PROB	5.68	n/a	n/a	n/a	-999	13	[6, 5, 9]	20.0	catFR1	3	R1266J
1366.537	0.022	2022395	STOP	n/a	n/a	n/a	n/a	-999	13	[-999, -999, -999]	n/a	catFR1	3	R1266J
1366.559	0.599	2022417	DISTRACT_END	n/a	n/a	n/a	n/a	-999	12	[0, 0, 0]	n/a	catFR1	3	R1266J
1367.158	0.519	2023016	RETRIEVAL_ORIENT	n/a	n/a	n/a	n/a	-999	12	[0, 0, 0]	n/a	catFR1	3	R1266J
1367.677	2.233	2023535	REC_START	n/a	n/a	n/a	n/a	-999	12	[0, 0, 0]	n/a	catFR1	3	R1266J
1369.91	2.913	2025768	REC_WORD_VV	2.233	n/a	<>	n/a	-999	12	[0, 0, 0]	n/a	catFR1	3	R1266J
1372.823	24.866	2028681	REC_WORD	5.146	n/a	WOODS	n/a	-999	12	[0, 0, 0]	n/a	catFR1	3	R1266J
1397.689	4.757	2053547	REC_END	n/a	n/a	n/a	n/a	-999	12	[0, 0, 0]	n/a	catFR1	3	R1266J
1402.446	0.5	2058304	TRIAL	n/a	n/a	n/a	n/a	-999	13	[0, 0, 0]	n/a	catFR1	3	R1266J
1402.946	10.428	2058804	COUNTDOWN_START	n/a	n/a	n/a	n/a	-999	13	[0, 0, 0]	n/a	catFR1	3	R1266J
1413.374	0.007	2069232	COUNTDOWN_END	n/a	n/a	n/a	n/a	-999	13	[0, 0, 0]	n/a	catFR1	3	R1266J
1413.381	1.616	2069239	ORIENT	n/a	n/a	n/a	n/a	-999	13	[0, 0, 0]	n/a	catFR1	3	R1266J
1414.997	1.934	2070855	ORIENT_OFF	n/a	n/a	n/a	n/a	-999	13	[0, 0, 0]	n/a	catFR1	3	R1266J
1416.931	1.618	2072789	WORD	n/a	wordpools/wordpool_categorized_EN.txt	ISLAND	Landscapes	1	13	[0, 0, 0]	n/a	catFR1	3	R1266J
1418.549	0.866	2074407	WORD_OFF	n/a	n/a	ISLAND	n/a	1	13	[0, 0, 0]	n/a	catFR1	3	R1266J
1419.415	1.616	2075273	WORD	n/a	wordpools/wordpool_categorized_EN.txt	VALLEY	Landscapes	2	13	[0, 0, 0]	n/a	catFR1	3	R1266J
1421.031	0.834	2076889	WORD_OFF	n/a	n/a	VALLEY	n/a	2	13	[0, 0, 0]	n/a	catFR1	3	R1266J
1421.865	1.618	2077723	WORD	n/a	wordpools/wordpool_categorized_EN.txt	EYE	BodyParts	3	13	[0, 0, 0]	n/a	catFR1	3	R1266J
1423.483	0.8	2079341	WORD_OFF	n/a	n/a	EYE	n/a	3	13	[0, 0, 0]	n/a	catFR1	3	R1266J
1424.283	1.616	2080141	WORD	n/a	wordpools/wordpool_categorized_EN.txt	HEAD	BodyParts	4	13	[0, 0, 0]	n/a	catFR1	3	R1266J
1425.899	0.784	2081757	WORD_OFF	n/a	n/a	HEAD	n/a	4	13	[0, 0, 0]	n/a	catFR1	3	R1266J
1426.683	1.617	2082541	WORD	n/a	wordpools/wordpool_categorized_EN.txt	OCTOPUS	OceanAnimals	5	13	[0, 0, 0]	n/a	catFR1	3	R1266J
1428.3	0.849	2084158	WORD_OFF	n/a	n/a	OCTOPUS	n/a	5	13	[0, 0, 0]	n/a	catFR1	3	R1266J
1429.149	1.618	2085007	WORD	n/a	wordpools/wordpool_categorized_EN.txt	JELLYFISH	OceanAnimals	6	13	[0, 0, 0]	n/a	catFR1	3	R1266J
1430.767	0.867	2086625	WORD_OFF	n/a	n/a	JELLYFISH	n/a	6	13	[0, 0, 0]	n/a	catFR1	3	R1266J
1431.634	1.617	2087492	WORD	n/a	wordpools/wordpool_categorized_EN.txt	FINGERS	BodyParts	7	13	[0, 0, 0]	n/a	catFR1	3	R1266J
1433.251	0.865	2089109	WORD_OFF	n/a	n/a	FINGERS	n/a	7	13	[0, 0, 0]	n/a	catFR1	3	R1266J
1434.116	1.618	2089974	WORD	n/a	wordpools/wordpool_categorized_EN.txt	LEG	BodyParts	8	13	[0, 0, 0]	n/a	catFR1	3	R1266J
1435.734	0.951	2091592	WORD_OFF	n/a	n/a	LEG	n/a	8	13	[0, 0, 0]	n/a	catFR1	3	R1266J
1436.685	1.616	2092543	WORD	n/a	wordpools/wordpool_categorized_EN.txt	CREEK	Landscapes	9	13	[0, 0, 0]	n/a	catFR1	3	R1266J
1438.301	1.017	2094159	WORD_OFF	n/a	n/a	CREEK	n/a	9	13	[0, 0, 0]	n/a	catFR1	3	R1266J
1439.318	1.616	2095176	WORD	n/a	wordpools/wordpool_categorized_EN.txt	STREAM	Landscapes	10	13	[0, 0, 0]	n/a	catFR1	3	R1266J
1440.934	0.95	2096792	WORD_OFF	n/a	n/a	STREAM	n/a	10	13	[0, 0, 0]	n/a	catFR1	3	R1266J
1441.884	1.618	2097742	WORD	n/a	wordpools/wordpool_categorized_EN.txt	LOBSTER	OceanAnimals	11	13	[0, 0, 0]	n/a	catFR1	3	R1266J
1443.502	0.967	2099360	WORD_OFF	n/a	n/a	LOBSTER	n/a	11	13	[0, 0, 0]	n/a	catFR1	3	R1266J
1444.469	1.616	2100327	WORD	n/a	wordpools/wordpool_categorized_EN.txt	OYSTER	OceanAnimals	12	13	[0, 0, 0]	n/a	catFR1	3	R1266J
1446.085	0.0	2101943	ENCODING_END	n/a	n/a	n/a	n/a	-999	13	[0, 0, 0]	n/a	catFR1	3	R1266J
1446.085	0.097	2101943	WORD_OFF	n/a	n/a	OYSTER	n/a	12	13	[0, 0, 0]	n/a	catFR1	3	R1266J
1446.182	0.0	2102040	DISTRACT_START	n/a	n/a	n/a	n/a	-999	13	[0, 0, 0]	n/a	catFR1	3	R1266J
1446.182	0.019	2102040	START	n/a	n/a	n/a	n/a	-999	14	[-999, -999, -999]	n/a	catFR1	3	R1266J
1446.201	46.026	2102059	PROB	46.026	n/a	n/a	n/a	-999	14	[6, 7, 8]	21.0	catFR1	3	R1266J
1492.227	0.015	2148085	STOP	n/a	n/a	n/a	n/a	-999	14	[-999, -999, -999]	n/a	catFR1	3	R1266J
1492.242	0.615	2148100	DISTRACT_END	n/a	n/a	n/a	n/a	-999	13	[0, 0, 0]	n/a	catFR1	3	R1266J
1492.857	0.519	2148715	RETRIEVAL_ORIENT	n/a	n/a	n/a	n/a	-999	13	[0, 0, 0]	n/a	catFR1	3	R1266J
1493.376	1.768	2149234	REC_START	n/a	n/a	n/a	n/a	-999	13	[0, 0, 0]	n/a	catFR1	3	R1266J
1495.144	4.33	2151002	REC_WORD_VV	1.768	n/a	<>	n/a	-999	13	[0, 0, 0]	n/a	catFR1	3	R1266J
1499.474	1.0	2155332	REC_WORD_VV	6.098	n/a	<>	n/a	-999	13	[0, 0, 0]	n/a	catFR1	3	R1266J
1500.474	1.306	2156332	REC_WORD_VV	7.098	n/a	<>	n/a	-999	13	[0, 0, 0]	n/a	catFR1	3	R1266J
1501.78	1.0	2157638	REC_WORD_VV	8.404	n/a	<>	n/a	-999	13	[0, 0, 0]	n/a	catFR1	3	R1266J
1502.78	1.474	2158638	REC_WORD_VV	9.404	n/a	<>	n/a	-999	13	[0, 0, 0]	n/a	catFR1	3	R1266J
1504.254	7.653	2160112	REC_WORD_VV	10.878	n/a	<>	n/a	-999	13	[0, 0, 0]	n/a	catFR1	3	R1266J
1511.907	1.0	2167765	REC_WORD_VV	18.531	n/a	<>	n/a	-999	13	[0, 0, 0]	n/a	catFR1	3	R1266J
1512.907	1.0	2168765	REC_WORD_VV	19.531	n/a	<>	n/a	-999	13	[0, 0, 0]	n/a	catFR1	3	R1266J
1513.907	6.402	2169765	REC_WORD_VV	20.531	n/a	<>	n/a	-999	13	[0, 0, 0]	n/a	catFR1	3	R1266J
1520.309	3.079	2176167	REC_WORD_VV	26.933	n/a	<>	n/a	-999	13	[0, 0, 0]	n/a	catFR1	3	R1266J
1523.388	4.457	2179246	REC_END	n/a	n/a	n/a	n/a	-999	13	[0, 0, 0]	n/a	catFR1	3	R1266J
1527.845	0.5	2183703	TRIAL	n/a	n/a	n/a	n/a	-999	14	[0, 0, 0]	n/a	catFR1	3	R1266J
1528.345	10.428	2184203	COUNTDOWN_START	n/a	n/a	n/a	n/a	-999	14	[0, 0, 0]	n/a	catFR1	3	R1266J
1538.773	0.008	2194631	COUNTDOWN_END	n/a	n/a	n/a	n/a	-999	14	[0, 0, 0]	n/a	catFR1	3	R1266J
1538.781	1.617	2194639	ORIENT	n/a	n/a	n/a	n/a	-999	14	[0, 0, 0]	n/a	catFR1	3	R1266J
1540.398	1.916	2196256	ORIENT_OFF	n/a	n/a	n/a	n/a	-999	14	[0, 0, 0]	n/a	catFR1	3	R1266J
1542.314	1.617	2198172	WORD	n/a	wordpools/wordpool_categorized_EN.txt	FRISBEE	Toys	1	14	[0, 0, 0]	n/a	catFR1	3	R1266J
1543.931	0.95	2199789	WORD_OFF	n/a	n/a	FRISBEE	n/a	1	14	[0, 0, 0]	n/a	catFR1	3	R1266J
1544.881	1.618	2200739	WORD	n/a	wordpools/wordpool_categorized_EN.txt	MARBLES	Toys	2	14	[0, 0, 0]	n/a	catFR1	3	R1266J
1546.499	0.966	2202357	WORD_OFF	n/a	n/a	MARBLES	n/a	2	14	[0, 0, 0]	n/a	catFR1	3	R1266J
1547.465	1.616	2203323	WORD	n/a	wordpools/wordpool_categorized_EN.txt	SEAGULL	Birds	3	14	[0, 0, 0]	n/a	catFR1	3	R1266J
1549.081	0.784	2204939	WORD_OFF	n/a	n/a	SEAGULL	n/a	3	14	[0, 0, 0]	n/a	catFR1	3	R1266J
1549.865	1.617	2205723	WORD	n/a	wordpools/wordpool_categorized_EN.txt	GOOSE	Birds	4	14	[0, 0, 0]	n/a	catFR1	3	R1266J
1551.482	0.884	2207340	WORD_OFF	n/a	n/a	GOOSE	n/a	4	14	[0, 0, 0]	n/a	catFR1	3	R1266J
1552.366	1.616	2208224	WORD	n/a	wordpools/wordpool_categorized_EN.txt	SPRUCE	Trees	5	14	[0, 0, 0]	n/a	catFR1	3	R1266J
1553.982	0.966	2209840	WORD_OFF	n/a	n/a	SPRUCE	n/a	5	14	[0, 0, 0]	n/a	catFR1	3	R1266J
1554.948	1.602	2210806	WORD	n/a	wordpools/wordpool_categorized_EN.txt	MAPLE	Trees	6	14	[0, 0, 0]	n/a	catFR1	3	R1266J
1556.55	0.983	2212408	WORD_OFF	n/a	n/a	MAPLE	n/a	6	14	[0, 0, 0]	n/a	catFR1	3	R1266J
1557.533	1.616	2213391	WORD	n/a	wordpools/wordpool_categorized_EN.txt	PIGEON	Birds	7	14	[0, 0, 0]	n/a	catFR1	3	R1266J
1559.149	0.933	2215007	WORD_OFF	n/a	n/a	PIGEON	n/a	7	14	[0, 0, 0]	n/a	catFR1	3	R1266J
1560.082	1.618	2215940	WORD	n/a	wordpools/wordpool_categorized_EN.txt	CROW	Birds	8	14	[0, 0, 0]	n/a	catFR1	3	R1266J
1561.7	0.851	2217558	WORD_OFF	n/a	n/a	CROW	n/a	8	14	[0, 0, 0]	n/a	catFR1	3	R1266J
1562.551	1.615	2218409	WORD	n/a	wordpools/wordpool_categorized_EN.txt	BALL	Toys	9	14	[0, 0, 0]	n/a	catFR1	3	R1266J
1564.166	0.884	2220024	WORD_OFF	n/a	n/a	BALL	n/a	9	14	[0, 0, 0]	n/a	catFR1	3	R1266J
1565.05	1.618	2220908	WORD	n/a	wordpools/wordpool_categorized_EN.txt	BLOCKS	Toys	10	14	[0, 0, 0]	n/a	catFR1	3	R1266J
1566.668	0.816	2222526	WORD_OFF	n/a	n/a	BLOCKS	n/a	10	14	[0, 0, 0]	n/a	catFR1	3	R1266J
1567.484	1.616	2223342	WORD	n/a	wordpools/wordpool_categorized_EN.txt	CEDAR	Trees	11	14	[0, 0, 0]	n/a	catFR1	3	R1266J
1569.1	0.867	2224958	WORD_OFF	n/a	n/a	CEDAR	n/a	11	14	[0, 0, 0]	n/a	catFR1	3	R1266J
1569.967	1.618	2225825	WORD	n/a	wordpools/wordpool_categorized_EN.txt	CYPRESS	Trees	12	14	[0, 0, 0]	n/a	catFR1	3	R1266J
1571.585	0.0	2227443	ENCODING_END	n/a	n/a	n/a	n/a	-999	14	[0, 0, 0]	n/a	catFR1	3	R1266J
1571.585	0.099	2227443	WORD_OFF	n/a	n/a	CYPRESS	n/a	12	14	[0, 0, 0]	n/a	catFR1	3	R1266J
1571.684	0.0	2227542	DISTRACT_START	n/a	n/a	n/a	n/a	-999	14	[0, 0, 0]	n/a	catFR1	3	R1266J
1571.684	0.018	2227542	START	n/a	n/a	n/a	n/a	-999	15	[-999, -999, -999]	n/a	catFR1	3	R1266J
1571.702	7.817	2227560	PROB	7.786	n/a	n/a	n/a	-999	15	[6, 1, 6]	13.0	catFR1	3	R1266J
1579.519	5.801	2235377	PROB	5.777	n/a	n/a	n/a	-999	15	[3, 4, 3]	10.0	catFR1	3	R1266J
1585.32	2.434	2241178	PROB	2.401	n/a	n/a	n/a	-999	15	[3, 3, 5]	11.0	catFR1	3	R1266J
1587.754	6.334	2243612	PROB	6.334	n/a	n/a	n/a	-999	15	[9, 8, 5]	22.0	catFR1	3	R1266J
1594.088	0.016	2249946	STOP	n/a	n/a	n/a	n/a	-999	15	[-999, -999, -999]	n/a	catFR1	3	R1266J
1594.104	0.534	2249962	DISTRACT_END	n/a	n/a	n/a	n/a	-999	14	[0, 0, 0]	n/a	catFR1	3	R1266J
1594.638	0.516	2250496	RETRIEVAL_ORIENT	n/a	n/a	n/a	n/a	-999	14	[0, 0, 0]	n/a	catFR1	3	R1266J
1595.154	2.185	2251012	REC_START	n/a	n/a	n/a	n/a	-999	14	[0, 0, 0]	n/a	catFR1	3	R1266J
1597.339	8.16	2253197	REC_WORD_VV	2.185	n/a	<>	n/a	-999	14	[0, 0, 0]	n/a	catFR1	3	R1266J
1605.499	1.0	2261357	REC_WORD_VV	10.345	n/a	<>	n/a	-999	14	[0, 0, 0]	n/a	catFR1	3	R1266J
1606.499	18.667	2262357	REC_WORD_VV	11.345	n/a	<>	n/a	-999	14	[0, 0, 0]	n/a	catFR1	3	R1266J
1625.166	4.126	2281024	REC_END	n/a	n/a	n/a	n/a	-999	14	[0, 0, 0]	n/a	catFR1	3	R1266J
1629.292	0.5	2285150	TRIAL	n/a	n/a	n/a	n/a	-999	15	[0, 0, 0]	n/a	catFR1	3	R1266J
1629.792	10.428	2285650	COUNTDOWN_START	n/a	n/a	n/a	n/a	-999	15	[0, 0, 0]	n/a	catFR1	3	R1266J
1640.22	0.006	2296078	COUNTDOWN_END	n/a	n/a	n/a	n/a	-999	15	[0, 0, 0]	n/a	catFR1	3	R1266J
1640.226	1.617	2296084	ORIENT	n/a	n/a	n/a	n/a	-999	15	[0, 0, 0]	n/a	catFR1	3	R1266J
1641.843	1.851	2297701	ORIENT_OFF	n/a	n/a	n/a	n/a	-999	15	[0, 0, 0]	n/a	catFR1	3	R1266J
1643.694	1.617	2299552	WORD	n/a	wordpools/wordpool_categorized_EN.txt	TAPE	OfficeSupplies	1	15	[0, 0, 0]	n/a	catFR1	3	R1266J
1645.311	0.799	2301169	WORD_OFF	n/a	n/a	TAPE	n/a	1	15	[0, 0, 0]	n/a	catFR1	3	R1266J
1646.11	1.618	2301968	WORD	n/a	wordpools/wordpool_categorized_EN.txt	BINDER	OfficeSupplies	2	15	[0, 0, 0]	n/a	catFR1	3	R1266J
1647.728	0.867	2303586	WORD_OFF	n/a	n/a	BINDER	n/a	2	15	[0, 0, 0]	n/a	catFR1	3	R1266J
1648.595	1.616	2304453	WORD	n/a	wordpools/wordpool_categorized_EN.txt	RAIN	Weather	3	15	[0, 0, 0]	n/a	catFR1	3	R1266J
1650.211	0.9	2306069	WORD_OFF	n/a	n/a	RAIN	n/a	3	15	[0, 0, 0]	n/a	catFR1	3	R1266J
1651.111	1.618	2306969	WORD	n/a	wordpools/wordpool_categorized_EN.txt	SNOW	Weather	4	15	[0, 0, 0]	n/a	catFR1	3	R1266J
1652.729	0.783	2308587	WORD_OFF	n/a	n/a	SNOW	n/a	4	15	[0, 0, 0]	n/a	catFR1	3	R1266J
1653.512	1.616	2309370	WORD	n/a	wordpools/wordpool_categorized_EN.txt	BANJO	Instruments	5	15	[0, 0, 0]	n/a	catFR1	3	R1266J
1655.128	0.784	2310986	WORD_OFF	n/a	n/a	BANJO	n/a	5	15	[0, 0, 0]	n/a	catFR1	3	R1266J
1655.912	1.617	2311770	WORD	n/a	wordpools/wordpool_categorized_EN.txt	FLUTE	Instruments	6	15	[0, 0, 0]	n/a	catFR1	3	R1266J
1657.529	0.817	2313387	WORD_OFF	n/a	n/a	FLUTE	n/a	6	15	[0, 0, 0]	n/a	catFR1	3	R1266J
1658.346	1.616	2314204	WORD	n/a	wordpools/wordpool_categorized_EN.txt	PEN	OfficeSupplies	7	15	[0, 0, 0]	n/a	catFR1	3	R1266J
1659.962	0.9	2315820	WORD_OFF	n/a	n/a	PEN	n/a	7	15	[0, 0, 0]	n/a	catFR1	3	R1266J
1660.862	1.618	2316720	WORD	n/a	wordpools/wordpool_categorized_EN.txt	RULER	OfficeSupplies	8	15	[0, 0, 0]	n/a	catFR1	3	R1266J
1662.48	0.967	2318338	WORD_OFF	n/a	n/a	RULER	n/a	8	15	[0, 0, 0]	n/a	catFR1	3	R1266J
1663.447	1.616	2319305	WORD	n/a	wordpools/wordpool_categorized_EN.txt	WIND	Weather	9	15	[0, 0, 0]	n/a	catFR1	3	R1266J
1665.063	0.95	2320921	WORD_OFF	n/a	n/a	WIND	n/a	9	15	[0, 0, 0]	n/a	catFR1	3	R1266J
1666.013	1.617	2321871	WORD	n/a	wordpools/wordpool_categorized_EN.txt	HURRICANE	Weather	10	15	[0, 0, 0]	n/a	catFR1	3	R1266J
1667.63	1.001	2323488	WORD_OFF	n/a	n/a	HURRICANE	n/a	10	15	[0, 0, 0]	n/a	catFR1	3	R1266J
1668.631	1.617	2324489	WORD	n/a	wordpools/wordpool_categorized_EN.txt	DRUM	Instruments	11	15	[0, 0, 0]	n/a	catFR1	3	R1266J
1670.248	0.799	2326106	WORD_OFF	n/a	n/a	DRUM	n/a	11	15	[0, 0, 0]	n/a	catFR1	3	R1266J
1671.047	1.618	2326905	WORD	n/a	wordpools/wordpool_categorized_EN.txt	VIOLIN	Instruments	12	15	[0, 0, 0]	n/a	catFR1	3	R1266J
1672.665	0.0	2328523	ENCODING_END	n/a	n/a	n/a	n/a	-999	15	[0, 0, 0]	n/a	catFR1	3	R1266J
1672.665	0.127	2328523	WORD_OFF	n/a	n/a	VIOLIN	n/a	12	15	[0, 0, 0]	n/a	catFR1	3	R1266J
1672.792	0.0	2328650	DISTRACT_START	n/a	n/a	n/a	n/a	-999	15	[0, 0, 0]	n/a	catFR1	3	R1266J
1672.792	0.023	2328650	START	n/a	n/a	n/a	n/a	-999	16	[-999, -999, -999]	n/a	catFR1	3	R1266J
1672.815	8.584	2328673	PROB	8.55	n/a	n/a	n/a	-999	16	[1, 4, 5]	10.0	catFR1	3	R1266J
1681.399	5.517	2337257	PROB	5.485	n/a	n/a	n/a	-999	16	[8, 1, 2]	11.0	catFR1	3	R1266J
1686.916	2.966	2342774	PROB	2.934	n/a	n/a	n/a	-999	16	[4, 5, 8]	18.0	catFR1	3	R1266J
1689.882	3.681	2345740	PROB	3.681	n/a	n/a	n/a	-999	16	[8, 2, 6]	16.0	catFR1	3	R1266J
1693.563	0.021	2349421	STOP	n/a	n/a	n/a	n/a	-999	16	[-999, -999, -999]	n/a	catFR1	3	R1266J
1693.584	0.7	2349442	DISTRACT_END	n/a	n/a	n/a	n/a	-999	15	[0, 0, 0]	n/a	catFR1	3	R1266J
1694.284	0.518	2350142	RETRIEVAL_ORIENT	n/a	n/a	n/a	n/a	-999	15	[0, 0, 0]	n/a	catFR1	3	R1266J
1694.802	4.91	2350660	REC_START	n/a	n/a	n/a	n/a	-999	15	[0, 0, 0]	n/a	catFR1	3	R1266J
1699.712	1.0	2355570	REC_WORD_VV	4.91	n/a	<>	n/a	-999	15	[0, 0, 0]	n/a	catFR1	3	R1266J
1700.712	3.052	2356570	REC_WORD_VV	5.91	n/a	<>	n/a	-999	15	[0, 0, 0]	n/a	catFR1	3	R1266J
1703.764	21.05	2359622	REC_WORD	8.962	n/a	LAKE	n/a	-999	15	[0, 0, 0]	n/a	catFR1	3	R1266J
1724.814	4.858	2380672	REC_END	n/a	n/a	n/a	n/a	-999	15	[0, 0, 0]	n/a	catFR1	3	R1266J
1729.672	0.5	2385530	TRIAL	n/a	n/a	n/a	n/a	-999	16	[0, 0, 0]	n/a	catFR1	3	R1266J
1730.172	10.428	2386030	COUNTDOWN_START	n/a	n/a	n/a	n/a	-999	16	[0, 0, 0]	n/a	catFR1	3	R1266J
1740.6	0.006	2396458	COUNTDOWN_END	n/a	n/a	n/a	n/a	-999	16	[0, 0, 0]	n/a	catFR1	3	R1266J
1740.606	1.617	2396464	ORIENT	n/a	n/a	n/a	n/a	-999	16	[0, 0, 0]	n/a	catFR1	3	R1266J
1742.223	2.184	2398081	ORIENT_OFF	n/a	n/a	n/a	n/a	-999	16	[0, 0, 0]	n/a	catFR1	3	R1266J
1744.407	1.616	2400265	WORD	n/a	wordpools/wordpool_categorized_EN.txt	DOVE	Birds	1	16	[0, 0, 0]	n/a	catFR1	3	R1266J
1746.023	0.884	2401881	WORD_OFF	n/a	n/a	DOVE	n/a	1	16	[0, 0, 0]	n/a	catFR1	3	R1266J
1746.907	1.617	2402765	WORD	n/a	wordpools/wordpool_categorized_EN.txt	ROBIN	Birds	2	16	[0, 0, 0]	n/a	catFR1	3	R1266J
1748.524	0.884	2404382	WORD_OFF	n/a	n/a	ROBIN	n/a	2	16	[0, 0, 0]	n/a	catFR1	3	R1266J
1749.408	1.616	2405266	WORD	n/a	wordpools/wordpool_categorized_EN.txt	GLUE	OfficeSupplies	3	16	[0, 0, 0]	n/a	catFR1	3	R1266J
1751.024	0.816	2406882	WORD_OFF	n/a	n/a	GLUE	n/a	3	16	[0, 0, 0]	n/a	catFR1	3	R1266J
1751.84	1.618	2407698	WORD	n/a	wordpools/wordpool_categorized_EN.txt	PAPER	OfficeSupplies	4	16	[0, 0, 0]	n/a	catFR1	3	R1266J
1753.458	0.967	2409316	WORD_OFF	n/a	n/a	PAPER	n/a	4	16	[0, 0, 0]	n/a	catFR1	3	R1266J
1754.425	1.616	2410283	WORD	n/a	wordpools/wordpool_categorized_EN.txt	ELEPHANT	Zoo	5	16	[0, 0, 0]	n/a	catFR1	3	R1266J
1756.041	1.0	2411899	WORD_OFF	n/a	n/a	ELEPHANT	n/a	5	16	[0, 0, 0]	n/a	catFR1	3	R1266J
1757.041	1.618	2412899	WORD	n/a	wordpools/wordpool_categorized_EN.txt	ORANGUTAN	Zoo	6	16	[0, 0, 0]	n/a	catFR1	3	R1266J
1758.659	0.867	2414517	WORD_OFF	n/a	n/a	ORANGUTAN	n/a	6	16	[0, 0, 0]	n/a	catFR1	3	R1266J
1759.526	1.616	2415384	WORD	n/a	wordpools/wordpool_categorized_EN.txt	ERASER	OfficeSupplies	7	16	[0, 0, 0]	n/a	catFR1	3	R1266J
1761.142	0.916	2417000	WORD_OFF	n/a	n/a	ERASER	n/a	7	16	[0, 0, 0]	n/a	catFR1	3	R1266J
1762.058	1.618	2417916	WORD	n/a	wordpools/wordpool_categorized_EN.txt	PENCIL	OfficeSupplies	8	16	[0, 0, 0]	n/a	catFR1	3	R1266J
1763.676	1.0	2419534	WORD_OFF	n/a	n/a	PENCIL	n/a	8	16	[0, 0, 0]	n/a	catFR1	3	R1266J
1764.676	1.617	2420534	WORD	n/a	wordpools/wordpool_categorized_EN.txt	SPARROW	Birds	9	16	[0, 0, 0]	n/a	catFR1	3	R1266J
1766.293	0.933	2422151	WORD_OFF	n/a	n/a	SPARROW	n/a	9	16	[0, 0, 0]	n/a	catFR1	3	R1266J
1767.226	1.616	2423084	WORD	n/a	wordpools/wordpool_categorized_EN.txt	FINCH	Birds	10	16	[0, 0, 0]	n/a	catFR1	3	R1266J
1768.842	0.952	2424700	WORD_OFF	n/a	n/a	FINCH	n/a	10	16	[0, 0, 0]	n/a	catFR1	3	R1266J
1769.794	1.617	2425652	WORD	n/a	wordpools/wordpool_categorized_EN.txt	CHEETAH	Zoo	11	16	[0, 0, 0]	n/a	catFR1	3	R1266J
1771.411	1.0	2427269	WORD_OFF	n/a	n/a	CHEETAH	n/a	11	16	[0, 0, 0]	n/a	catFR1	3	R1266J
1772.411	1.616	2428269	WORD	n/a	wordpools/wordpool_categorized_EN.txt	MONKEY	Zoo	12	16	[0, 0, 0]	n/a	catFR1	3	R1266J
1774.027	0.0	2429885	ENCODING_END	n/a	n/a	n/a	n/a	-999	16	[0, 0, 0]	n/a	catFR1	3	R1266J
1774.027	0.097	2429885	WORD_OFF	n/a	n/a	MONKEY	n/a	12	16	[0, 0, 0]	n/a	catFR1	3	R1266J
1774.124	0.0	2429982	DISTRACT_START	n/a	n/a	n/a	n/a	-999	16	[0, 0, 0]	n/a	catFR1	3	R1266J
1774.124	0.019	2429982	START	n/a	n/a	n/a	n/a	-999	17	[-999, -999, -999]	n/a	catFR1	3	R1266J
1774.143	4.851	2430001	PROB	4.817	n/a	n/a	n/a	-999	17	[1, 4, 1]	6.0	catFR1	3	R1266J
1778.994	2.618	2434852	PROB	2.59	n/a	n/a	n/a	-999	17	[1, 9, 8]	18.0	catFR1	3	R1266J
1781.612	1.934	2437470	PROB	1.909	n/a	n/a	n/a	-999	17	[8, 2, 4]	14.0	catFR1	3	R1266J
1783.546	6.333	2439404	PROB	6.294	n/a	n/a	n/a	-999	17	[6, 3, 5]	14.0	catFR1	3	R1266J
1789.879	4.352	2445737	PROB	4.352	n/a	n/a	n/a	-999	17	[3, 5, 6]	14.0	catFR1	3	R1266J
1794.231	0.016	2450089	STOP	n/a	n/a	n/a	n/a	-999	17	[-999, -999, -999]	n/a	catFR1	3	R1266J
1794.247	0.517	2450105	DISTRACT_END	n/a	n/a	n/a	n/a	-999	16	[0, 0, 0]	n/a	catFR1	3	R1266J
1794.764	0.517	2450622	RETRIEVAL_ORIENT	n/a	n/a	n/a	n/a	-999	16	[0, 0, 0]	n/a	catFR1	3	R1266J
1795.281	2.462	2451139	REC_START	n/a	n/a	n/a	n/a	-999	16	[0, 0, 0]	n/a	catFR1	3	R1266J
1797.743	6.918	2453601	REC_WORD	2.462	n/a	CHEETAH	Zoo	11	16	[0, 0, 0]	n/a	catFR1	3	R1266J
1804.661	11.211	2460519	REC_WORD	9.38	n/a	MONKEY	Zoo	12	16	[0, 0, 0]	n/a	catFR1	3	R1266J
1815.872	9.421	2471730	REC_WORD_VV	20.591	n/a	<>	n/a	-999	16	[0, 0, 0]	n/a	catFR1	3	R1266J
1825.293	4.142	2481151	REC_END	n/a	n/a	n/a	n/a	-999	16	[0, 0, 0]	n/a	catFR1	3	R1266J
1829.435	0.5	2485293	TRIAL	n/a	n/a	n/a	n/a	-999	17	[0, 0, 0]	n/a	catFR1	3	R1266J
1829.935	10.428	2485793	COUNTDOWN_START	n/a	n/a	n/a	n/a	-999	17	[0, 0, 0]	n/a	catFR1	3	R1266J
1840.363	0.006	2496221	COUNTDOWN_END	n/a	n/a	n/a	n/a	-999	17	[0, 0, 0]	n/a	catFR1	3	R1266J
1840.369	1.616	2496227	ORIENT	n/a	n/a	n/a	n/a	-999	17	[0, 0, 0]	n/a	catFR1	3	R1266J
1841.985	2.034	2497843	ORIENT_OFF	n/a	n/a	n/a	n/a	-999	17	[0, 0, 0]	n/a	catFR1	3	R1266J
1844.019	1.618	2499877	WORD	n/a	wordpools/wordpool_categorized_EN.txt	ELM	Trees	1	17	[0, 0, 0]	n/a	catFR1	3	R1266J
1845.637	0.9	2501495	WORD_OFF	n/a	n/a	ELM	n/a	1	17	[0, 0, 0]	n/a	catFR1	3	R1266J
1846.537	1.616	2502395	WORD	n/a	wordpools/wordpool_categorized_EN.txt	OAK	Trees	2	17	[0, 0, 0]	n/a	catFR1	3	R1266J
1848.153	0.8	2504011	WORD_OFF	n/a	n/a	OAK	n/a	2	17	[0, 0, 0]	n/a	catFR1	3	R1266J
1848.953	1.618	2504811	WORD	n/a	wordpools/wordpool_categorized_EN.txt	TRUMPET	Instruments	3	17	[0, 0, 0]	n/a	catFR1	3	R1266J
1850.571	0.966	2506429	WORD_OFF	n/a	n/a	TRUMPET	n/a	3	17	[0, 0, 0]	n/a	catFR1	3	R1266J
1851.537	1.616	2507395	WORD	n/a	wordpools/wordpool_categorized_EN.txt	CELLO	Instruments	4	17	[0, 0, 0]	n/a	catFR1	3	R1266J
1853.153	0.901	2509011	WORD_OFF	n/a	n/a	CELLO	n/a	4	17	[0, 0, 0]	n/a	catFR1	3	R1266J
1854.054	1.618	2509912	WORD	n/a	wordpools/wordpool_categorized_EN.txt	COAT	Clothing	5	17	[0, 0, 0]	n/a	catFR1	3	R1266J
1855.672	0.833	2511530	WORD_OFF	n/a	n/a	COAT	n/a	5	17	[0, 0, 0]	n/a	catFR1	3	R1266J
1856.505	1.615	2512363	WORD	n/a	wordpools/wordpool_categorized_EN.txt	JACKET	Clothing	6	17	[0, 0, 0]	n/a	catFR1	3	R1266J
1858.12	0.884	2513978	WORD_OFF	n/a	n/a	JACKET	n/a	6	17	[0, 0, 0]	n/a	catFR1	3	R1266J
1859.004	1.601	2514862	WORD	n/a	wordpools/wordpool_categorized_EN.txt	GUITAR	Instruments	7	17	[0, 0, 0]	n/a	catFR1	3	R1266J
1860.605	0.8	2516463	WORD_OFF	n/a	n/a	GUITAR	n/a	7	17	[0, 0, 0]	n/a	catFR1	3	R1266J
1861.405	1.616	2517263	WORD	n/a	wordpools/wordpool_categorized_EN.txt	BASS	Instruments	8	17	[0, 0, 0]	n/a	catFR1	3	R1266J
1863.021	0.834	2518879	WORD_OFF	n/a	n/a	BASS	n/a	8	17	[0, 0, 0]	n/a	catFR1	3	R1266J
1863.855	1.618	2519713	WORD	n/a	wordpools/wordpool_categorized_EN.txt	PINE	Trees	9	17	[0, 0, 0]	n/a	catFR1	3	R1266J
1865.473	0.983	2521331	WORD_OFF	n/a	n/a	PINE	n/a	9	17	[0, 0, 0]	n/a	catFR1	3	R1266J
1866.456	1.616	2522314	WORD	n/a	wordpools/wordpool_categorized_EN.txt	WILLOW	Trees	10	17	[0, 0, 0]	n/a	catFR1	3	R1266J
1868.072	0.833	2523930	WORD_OFF	n/a	n/a	WILLOW	n/a	10	17	[0, 0, 0]	n/a	catFR1	3	R1266J
1868.905	1.601	2524763	WORD	n/a	wordpools/wordpool_categorized_EN.txt	PANTS	Clothing	11	17	[0, 0, 0]	n/a	catFR1	3	R1266J
1870.506	0.984	2526364	WORD_OFF	n/a	n/a	PANTS	n/a	11	17	[0, 0, 0]	n/a	catFR1	3	R1266J
1871.49	1.616	2527348	WORD	n/a	wordpools/wordpool_categorized_EN.txt	UNDERWEAR	Clothing	12	17	[0, 0, 0]	n/a	catFR1	3	R1266J
1873.106	0.0	2528964	ENCODING_END	n/a	n/a	n/a	n/a	-999	17	[0, 0, 0]	n/a	catFR1	3	R1266J
1873.106	0.099	2528964	WORD_OFF	n/a	n/a	UNDERWEAR	n/a	12	17	[0, 0, 0]	n/a	catFR1	3	R1266J
1873.205	0.0	2529063	DISTRACT_START	n/a	n/a	n/a	n/a	-999	17	[0, 0, 0]	n/a	catFR1	3	R1266J
1873.205	0.018	2529063	START	n/a	n/a	n/a	n/a	-999	18	[-999, -999, -999]	n/a	catFR1	3	R1266J
1873.223	23.252	2529081	PROB	23.252	n/a	n/a	n/a	-999	18	[8, 7, 4]	19.0	catFR1	3	R1266J
1896.475	0.019	2552333	STOP	n/a	n/a	n/a	n/a	-999	18	[-999, -999, -999]	n/a	catFR1	3	R1266J
1896.494	0.649	2552352	DISTRACT_END	n/a	n/a	n/a	n/a	-999	17	[0, 0, 0]	n/a	catFR1	3	R1266J
1897.143	0.518	2553001	RETRIEVAL_ORIENT	n/a	n/a	n/a	n/a	-999	17	[0, 0, 0]	n/a	catFR1	3	R1266J
1897.661	1.052	2553519	REC_START	n/a	n/a	n/a	n/a	-999	17	[0, 0, 0]	n/a	catFR1	3	R1266J
1898.713	0.581	2554571	REC_WORD_VV	1.052	n/a	<>	n/a	-999	17	[0, 0, 0]	n/a	catFR1	3	R1266J
1899.294	1.475	2555152	REC_WORD	1.633	n/a	COAT	Clothing	5	17	[0, 0, 0]	n/a	catFR1	3	R1266J
1900.769	0.632	2556627	REC_WORD_VV	3.108	n/a	<>	n/a	-999	17	[0, 0, 0]	n/a	catFR1	3	R1266J
1901.401	4.64	2557259	REC_WORD	3.74	n/a	PANTS	Clothing	11	17	[0, 0, 0]	n/a	catFR1	3	R1266J
1906.041	2.24	2561899	REC_WORD_VV	8.38	n/a	<>	n/a	-999	17	[0, 0, 0]	n/a	catFR1	3	R1266J
1908.281	1.078	2564139	REC_WORD	10.62	n/a	GUITAR	Instruments	7	17	[0, 0, 0]	n/a	catFR1	3	R1266J
1909.359	3.06	2565217	REC_WORD_VV	11.698	n/a	<>	n/a	-999	17	[0, 0, 0]	n/a	catFR1	3	R1266J
1912.419	2.576	2568277	REC_WORD_VV	14.758	n/a	<>	n/a	-999	17	[0, 0, 0]	n/a	catFR1	3	R1266J
1914.995	1.0	2570853	REC_WORD_VV	17.334	n/a	<>	n/a	-999	17	[0, 0, 0]	n/a	catFR1	3	R1266J
1915.995	2.458	2571853	REC_WORD_VV	18.334	n/a	<>	n/a	-999	17	[0, 0, 0]	n/a	catFR1	3	R1266J
1918.453	3.18	2574311	REC_WORD_VV	20.792	n/a	<>	n/a	-999	17	[0, 0, 0]	n/a	catFR1	3	R1266J
1921.633	0.454	2577491	REC_WORD_VV	23.972	n/a	<>	n/a	-999	17	[0, 0, 0]	n/a	catFR1	3	R1266J
1922.087	1.367	2577945	REC_WORD	24.426	n/a	JACKET	Clothing	6	17	[0, 0, 0]	n/a	catFR1	3	R1266J
1923.454	2.614	2579312	REC_WORD_VV	25.793	n/a	<>	n/a	-999	17	[0, 0, 0]	n/a	catFR1	3	R1266J
1926.068	1.604	2581926	REC_WORD_VV	28.407	n/a	<>	n/a	-999	17	[0, 0, 0]	n/a	catFR1	3	R1266J
1927.672	4.742	2583530	REC_END	n/a	n/a	n/a	n/a	-999	17	[0, 0, 0]	n/a	catFR1	3	R1266J
1932.414	0.5	2588272	TRIAL	n/a	n/a	n/a	n/a	-999	18	[0, 0, 0]	n/a	catFR1	3	R1266J
1932.914	10.428	2588772	COUNTDOWN_START	n/a	n/a	n/a	n/a	-999	18	[0, 0, 0]	n/a	catFR1	3	R1266J
1943.342	0.007	2599200	COUNTDOWN_END	n/a	n/a	n/a	n/a	-999	18	[0, 0, 0]	n/a	catFR1	3	R1266J
1943.349	1.616	2599207	ORIENT	n/a	n/a	n/a	n/a	-999	18	[0, 0, 0]	n/a	catFR1	3	R1266J
1944.965	2.051	2600823	ORIENT_OFF	n/a	n/a	n/a	n/a	-999	18	[0, 0, 0]	n/a	catFR1	3	R1266J
1947.016	1.617	2602874	WORD	n/a	wordpools/wordpool_categorized_EN.txt	STAIRS	Building	1	18	[0, 0, 0]	n/a	catFR1	3	R1266J
1948.633	0.917	2604491	WORD_OFF	n/a	n/a	STAIRS	n/a	1	18	[0, 0, 0]	n/a	catFR1	3	R1266J
1949.55	1.616	2605408	WORD	n/a	wordpools/wordpool_categorized_EN.txt	FOUNDATION	Building	2	18	[0, 0, 0]	n/a	catFR1	3	R1266J
1951.166	0.933	2607024	WORD_OFF	n/a	n/a	FOUNDATION	n/a	2	18	[0, 0, 0]	n/a	catFR1	3	R1266J
1952.099	1.618	2607957	WORD	n/a	wordpools/wordpool_categorized_EN.txt	NOTEBOOK	OfficeSupplies	3	18	[0, 0, 0]	n/a	catFR1	3	R1266J
1953.717	0.884	2609575	WORD_OFF	n/a	n/a	NOTEBOOK	n/a	3	18	[0, 0, 0]	n/a	catFR1	3	R1266J
1954.601	1.616	2610459	WORD	n/a	wordpools/wordpool_categorized_EN.txt	STAPLER	OfficeSupplies	4	18	[0, 0, 0]	n/a	catFR1	3	R1266J
1956.217	0.9	2612075	WORD_OFF	n/a	n/a	STAPLER	n/a	4	18	[0, 0, 0]	n/a	catFR1	3	R1266J
1957.117	1.617	2612975	WORD	n/a	wordpools/wordpool_categorized_EN.txt	COFFEE	Beverages	5	18	[0, 0, 0]	n/a	catFR1	3	R1266J
1958.734	0.884	2614592	WORD_OFF	n/a	n/a	COFFEE	n/a	5	18	[0, 0, 0]	n/a	catFR1	3	R1266J
1959.618	1.617	2615476	WORD	n/a	wordpools/wordpool_categorized_EN.txt	SODA	Beverages	6	18	[0, 0, 0]	n/a	catFR1	3	R1266J
1961.235	0.816	2617093	WORD_OFF	n/a	n/a	SODA	n/a	6	18	[0, 0, 0]	n/a	catFR1	3	R1266J
1962.051	1.618	2617909	WORD	n/a	wordpools/wordpool_categorized_EN.txt	ROOF	Building	7	18	[0, 0, 0]	n/a	catFR1	3	R1266J
1963.669	0.85	2619527	WORD_OFF	n/a	n/a	ROOF	n/a	7	18	[0, 0, 0]	n/a	catFR1	3	R1266J
1964.519	1.616	2620377	WORD	n/a	wordpools/wordpool_categorized_EN.txt	FLOOR	Building	8	18	[0, 0, 0]	n/a	catFR1	3	R1266J
1966.135	0.8	2621993	WORD_OFF	n/a	n/a	FLOOR	n/a	8	18	[0, 0, 0]	n/a	catFR1	3	R1266J
1966.935	1.617	2622793	WORD	n/a	wordpools/wordpool_categorized_EN.txt	FOLDER	OfficeSupplies	9	18	[0, 0, 0]	n/a	catFR1	3	R1266J
1968.552	0.984	2624410	WORD_OFF	n/a	n/a	FOLDER	n/a	9	18	[0, 0, 0]	n/a	catFR1	3	R1266J
1969.536	1.616	2625394	WORD	n/a	wordpools/wordpool_categorized_EN.txt	MARKER	OfficeSupplies	10	18	[0, 0, 0]	n/a	catFR1	3	R1266J
1971.152	0.933	2627010	WORD_OFF	n/a	n/a	MARKER	n/a	10	18	[0, 0, 0]	n/a	catFR1	3	R1266J
1972.085	1.618	2627943	WORD	n/a	wordpools/wordpool_categorized_EN.txt	BEER	Beverages	11	18	[0, 0, 0]	n/a	catFR1	3	R1266J
1973.703	0.95	2629561	WORD_OFF	n/a	n/a	BEER	n/a	11	18	[0, 0, 0]	n/a	catFR1	3	R1266J
1974.653	1.617	2630511	WORD	n/a	wordpools/wordpool_categorized_EN.txt	COLA	Beverages	12	18	[0, 0, 0]	n/a	catFR1	3	R1266J
1976.27	0.0	2632128	ENCODING_END	n/a	n/a	n/a	n/a	-999	18	[0, 0, 0]	n/a	catFR1	3	R1266J
1976.27	0.127	2632128	WORD_OFF	n/a	n/a	COLA	n/a	12	18	[0, 0, 0]	n/a	catFR1	3	R1266J
1976.397	0.0	2632255	DISTRACT_START	n/a	n/a	n/a	n/a	-999	18	[0, 0, 0]	n/a	catFR1	3	R1266J
1976.397	0.007	2632255	START	n/a	n/a	n/a	n/a	-999	19	[-999, -999, -999]	n/a	catFR1	3	R1266J
1976.404	4.333	2632262	PROB	4.301	n/a	n/a	n/a	-999	19	[7, 2, 4]	13.0	catFR1	3	R1266J
1980.737	3.884	2636595	PROB	3.848	n/a	n/a	n/a	-999	19	[4, 8, 8]	20.0	catFR1	3	R1266J
1984.621	1.516	2640479	PROB	1.491	n/a	n/a	n/a	-999	19	[2, 5, 5]	12.0	catFR1	3	R1266J
1986.137	3.251	2641995	PROB	3.223	n/a	n/a	n/a	-999	19	[9, 2, 7]	16.0	catFR1	3	R1266J
1989.388	12.939	2645246	PROB	12.939	n/a	n/a	n/a	-999	19	[9, 9, 7]	25.0	catFR1	3	R1266J
2002.327	0.013	2658185	STOP	n/a	n/a	n/a	n/a	-999	19	[-999, -999, -999]	n/a	catFR1	3	R1266J
2002.34	0.649	2658198	DISTRACT_END	n/a	n/a	n/a	n/a	-999	18	[0, 0, 0]	n/a	catFR1	3	R1266J
2002.989	0.519	2658847	RETRIEVAL_ORIENT	n/a	n/a	n/a	n/a	-999	18	[0, 0, 0]	n/a	catFR1	3	R1266J
2003.508	0.888	2659366	REC_START	n/a	n/a	n/a	n/a	-999	18	[0, 0, 0]	n/a	catFR1	3	R1266J
2004.396	1.332	2660254	REC_WORD_VV	0.888	n/a	<>	n/a	-999	18	[0, 0, 0]	n/a	catFR1	3	R1266J
2005.728	0.756	2661586	REC_WORD	2.22	n/a	NOTEBOOK	OfficeSupplies	3	18	[0, 0, 0]	n/a	catFR1	3	R1266J
2006.484	1.709	2662342	REC_WORD	2.976	n/a	STAPLER	OfficeSupplies	4	18	[0, 0, 0]	n/a	catFR1	3	R1266J
2008.193	21.174	2664051	REC_WORD	4.685	n/a	COFFEE	Beverages	5	18	[0, 0, 0]	n/a	catFR1	3	R1266J
2029.367	0.284	2685225	REC_WORD	25.859	n/a	NOTEBOOK	OfficeSupplies	3	18	[0, 0, 0]	n/a	catFR1	3	R1266J
2029.651	1.403	2685509	REC_WORD	26.143	n/a	STAPLER	OfficeSupplies	4	18	[0, 0, 0]	n/a	catFR1	3	R1266J
2031.054	0.31	2686912	REC_WORD	27.546	n/a	NOTEBOOK	OfficeSupplies	3	18	[0, 0, 0]	n/a	catFR1	3	R1266J
2031.364	2.156	2687222	REC_WORD	27.856	n/a	STAPLER	OfficeSupplies	4	18	[0, 0, 0]	n/a	catFR1	3	R1266J
2033.52	5.091	2689378	REC_END	n/a	n/a	n/a	n/a	-999	18	[0, 0, 0]	n/a	catFR1	3	R1266J
2038.611	0.5	2694469	TRIAL	n/a	n/a	n/a	n/a	-999	19	[0, 0, 0]	n/a	catFR1	3	R1266J
2039.111	10.428	2694969	COUNTDOWN_START	n/a	n/a	n/a	n/a	-999	19	[0, 0, 0]	n/a	catFR1	3	R1266J
2049.539	0.007	2705397	COUNTDOWN_END	n/a	n/a	n/a	n/a	-999	19	[0, 0, 0]	n/a	catFR1	3	R1266J
2049.546	1.616	2705404	ORIENT	n/a	n/a	n/a	n/a	-999	19	[0, 0, 0]	n/a	catFR1	3	R1266J
2051.162	2.251	2707020	ORIENT_OFF	n/a	n/a	n/a	n/a	-999	19	[0, 0, 0]	n/a	catFR1	3	R1266J
2053.413	1.616	2709271	WORD	n/a	wordpools/wordpool_categorized_EN.txt	SCANNER	Electronics	1	19	[0, 0, 0]	n/a	catFR1	3	R1266J
2055.029	0.817	2710887	WORD_OFF	n/a	n/a	SCANNER	n/a	1	19	[0, 0, 0]	n/a	catFR1	3	R1266J
2055.846	1.618	2711704	WORD	n/a	wordpools/wordpool_categorized_EN.txt	COMPUTER	Electronics	2	19	[0, 0, 0]	n/a	catFR1	3	R1266J
2057.464	0.833	2713322	WORD_OFF	n/a	n/a	COMPUTER	n/a	2	19	[0, 0, 0]	n/a	catFR1	3	R1266J
2058.297	1.616	2714155	WORD	n/a	wordpools/wordpool_categorized_EN.txt	PEAR	Fruit	3	19	[0, 0, 0]	n/a	catFR1	3	R1266J
2059.913	1.0	2715771	WORD_OFF	n/a	n/a	PEAR	n/a	3	19	[0, 0, 0]	n/a	catFR1	3	R1266J
2060.913	1.601	2716771	WORD	n/a	wordpools/wordpool_categorized_EN.txt	LIME	Fruit	4	19	[0, 0, 0]	n/a	catFR1	3	R1266J
2062.514	0.901	2718372	WORD_OFF	n/a	n/a	LIME	n/a	4	19	[0, 0, 0]	n/a	catFR1	3	R1266J
2063.415	1.616	2719273	WORD	n/a	wordpools/wordpool_categorized_EN.txt	EVERGREEN	Trees	5	19	[0, 0, 0]	n/a	catFR1	3	R1266J
2065.031	0.983	2720889	WORD_OFF	n/a	n/a	EVERGREEN	n/a	5	19	[0, 0, 0]	n/a	catFR1	3	R1266J
2066.014	1.618	2721872	WORD	n/a	wordpools/wordpool_categorized_EN.txt	HICKORY	Trees	6	19	[0, 0, 0]	n/a	catFR1	3	R1266J
2067.632	0.816	2723490	WORD_OFF	n/a	n/a	HICKORY	n/a	6	19	[0, 0, 0]	n/a	catFR1	3	R1266J
2068.448	1.616	2724306	WORD	n/a	wordpools/wordpool_categorized_EN.txt	TELEVISION	Electronics	7	19	[0, 0, 0]	n/a	catFR1	3	R1266J
2070.064	0.817	2725922	WORD_OFF	n/a	n/a	TELEVISION	n/a	7	19	[0, 0, 0]	n/a	catFR1	3	R1266J
2070.881	1.618	2726739	WORD	n/a	wordpools/wordpool_categorized_EN.txt	TABLET	Electronics	8	19	[0, 0, 0]	n/a	catFR1	3	R1266J
2072.499	0.884	2728357	WORD_OFF	n/a	n/a	TABLET	n/a	8	19	[0, 0, 0]	n/a	catFR1	3	R1266J
2073.383	1.616	2729241	WORD	n/a	wordpools/wordpool_categorized_EN.txt	LEMON	Fruit	9	19	[0, 0, 0]	n/a	catFR1	3	R1266J
2074.999	0.817	2730857	WORD_OFF	n/a	n/a	LEMON	n/a	9	19	[0, 0, 0]	n/a	catFR1	3	R1266J
2075.816	1.617	2731674	WORD	n/a	wordpools/wordpool_categorized_EN.txt	BANANA	Fruit	10	19	[0, 0, 0]	n/a	catFR1	3	R1266J
2077.433	0.983	2733291	WORD_OFF	n/a	n/a	BANANA	n/a	10	19	[0, 0, 0]	n/a	catFR1	3	R1266J
2078.416	1.616	2734274	WORD	n/a	wordpools/wordpool_categorized_EN.txt	BIRCH	Trees	11	19	[0, 0, 0]	n/a	catFR1	3	R1266J
2080.032	0.9	2735890	WORD_OFF	n/a	n/a	BIRCH	n/a	11	19	[0, 0, 0]	n/a	catFR1	3	R1266J
2080.932	1.601	2736790	WORD	n/a	wordpools/wordpool_categorized_EN.txt	WALNUT	Trees	12	19	[0, 0, 0]	n/a	catFR1	3	R1266J
2082.533	0.001	2738391	WORD_OFF	n/a	n/a	WALNUT	n/a	12	19	[0, 0, 0]	n/a	catFR1	3	R1266J
2082.534	0.101	2738392	ENCODING_END	n/a	n/a	n/a	n/a	-999	19	[0, 0, 0]	n/a	catFR1	3	R1266J
2082.635	0.0	2738493	DISTRACT_START	n/a	n/a	n/a	n/a	-999	19	[0, 0, 0]	n/a	catFR1	3	R1266J
2082.635	0.015	2738493	START	n/a	n/a	n/a	n/a	-999	20	[-999, -999, -999]	n/a	catFR1	3	R1266J
2082.65	4.884	2738508	PROB	4.857	n/a	n/a	n/a	-999	20	[7, 3, 7]	17.0	catFR1	3	R1266J
2087.534	8.168	2743392	PROB	8.141	n/a	n/a	n/a	-999	20	[2, 9, 5]	16.0	catFR1	3	R1266J
2095.702	6.084	2751560	PROB	6.046	n/a	n/a	n/a	-999	20	[1, 6, 4]	11.0	catFR1	3	R1266J
2101.786	3.001	2757644	PROB	3.001	n/a	n/a	n/a	-999	20	[2, 7, 1]	10.0	catFR1	3	R1266J
2104.787	0.017	2760645	STOP	n/a	n/a	n/a	n/a	-999	20	[-999, -999, -999]	n/a	catFR1	3	R1266J
2104.804	0.633	2760662	DISTRACT_END	n/a	n/a	n/a	n/a	-999	19	[0, 0, 0]	n/a	catFR1	3	R1266J
2105.437	0.516	2761295	RETRIEVAL_ORIENT	n/a	n/a	n/a	n/a	-999	19	[0, 0, 0]	n/a	catFR1	3	R1266J
2105.953	2.498	2761811	REC_START	n/a	n/a	n/a	n/a	-999	19	[0, 0, 0]	n/a	catFR1	3	R1266J
2108.451	3.398	2764309	REC_WORD_VV	2.498	n/a	<>	n/a	-999	19	[0, 0, 0]	n/a	catFR1	3	R1266J
2111.849	1.68	2767707	REC_WORD_VV	5.896	n/a	<>	n/a	-999	19	[0, 0, 0]	n/a	catFR1	3	R1266J
2113.529	14.032	2769387	REC_WORD_VV	7.576	n/a	<>	n/a	-999	19	[0, 0, 0]	n/a	catFR1	3	R1266J
2127.561	1.0	2783419	REC_WORD_VV	21.608	n/a	<>	n/a	-999	19	[0, 0, 0]	n/a	catFR1	3	R1266J
2128.561	1.0	2784419	REC_WORD_VV	22.608	n/a	<>	n/a	-999	19	[0, 0, 0]	n/a	catFR1	3	R1266J
2129.561	3.745	2785419	REC_WORD_VV	23.608	n/a	<>	n/a	-999	19	[0, 0, 0]	n/a	catFR1	3	R1266J
2133.306	2.487	2789164	REC_WORD_VV	27.353	n/a	<>	n/a	-999	19	[0, 0, 0]	n/a	catFR1	3	R1266J
2135.793	0.172	2791651	REC_WORD_VV	29.84	n/a	<>	n/a	-999	19	[0, 0, 0]	n/a	catFR1	3	R1266J
2135.965	4.908	2791823	REC_END	n/a	n/a	n/a	n/a	-999	19	[0, 0, 0]	n/a	catFR1	3	R1266J
2140.873	0.5	2796731	TRIAL	n/a	n/a	n/a	n/a	-999	20	[0, 0, 0]	n/a	catFR1	3	R1266J
2141.373	10.428	2797231	COUNTDOWN_START	n/a	n/a	n/a	n/a	-999	20	[0, 0, 0]	n/a	catFR1	3	R1266J
2151.801	0.008	2807659	COUNTDOWN_END	n/a	n/a	n/a	n/a	-999	20	[0, 0, 0]	n/a	catFR1	3	R1266J
2151.809	1.617	2807667	ORIENT	n/a	n/a	n/a	n/a	-999	20	[0, 0, 0]	n/a	catFR1	3	R1266J
2153.426	2.201	2809284	ORIENT_OFF	n/a	n/a	n/a	n/a	-999	20	[0, 0, 0]	n/a	catFR1	3	R1266J
2155.627	1.617	2811485	WORD	n/a	wordpools/wordpool_categorized_EN.txt	TOASTER	Appliances	1	20	[0, 0, 0]	n/a	catFR1	3	R1266J
2157.244	0.832	2813102	WORD_OFF	n/a	n/a	TOASTER	n/a	1	20	[0, 0, 0]	n/a	catFR1	3	R1266J
2158.076	1.617	2813934	WORD	n/a	wordpools/wordpool_categorized_EN.txt	DISHWASHER	Appliances	2	20	[0, 0, 0]	n/a	catFR1	3	R1266J
2159.693	0.984	2815551	WORD_OFF	n/a	n/a	DISHWASHER	n/a	2	20	[0, 0, 0]	n/a	catFR1	3	R1266J
2160.677	1.617	2816535	WORD	n/a	wordpools/wordpool_categorized_EN.txt	COOKIE	Desserts	3	20	[0, 0, 0]	n/a	catFR1	3	R1266J
2162.294	0.95	2818152	WORD_OFF	n/a	n/a	COOKIE	n/a	3	20	[0, 0, 0]	n/a	catFR1	3	R1266J
2163.244	1.616	2819102	WORD	n/a	wordpools/wordpool_categorized_EN.txt	CHEESECAKE	Desserts	4	20	[0, 0, 0]	n/a	catFR1	3	R1266J
2164.86	0.851	2820718	WORD_OFF	n/a	n/a	CHEESECAKE	n/a	4	20	[0, 0, 0]	n/a	catFR1	3	R1266J
2165.711	1.617	2821569	WORD	n/a	wordpools/wordpool_categorized_EN.txt	HALLWAY	Building	5	20	[0, 0, 0]	n/a	catFR1	3	R1266J
2167.328	0.832	2823186	WORD_OFF	n/a	n/a	HALLWAY	n/a	5	20	[0, 0, 0]	n/a	catFR1	3	R1266J
2168.16	1.618	2824018	WORD	n/a	wordpools/wordpool_categorized_EN.txt	ROOM	Building	6	20	[0, 0, 0]	n/a	catFR1	3	R1266J
2169.778	0.767	2825636	WORD_OFF	n/a	n/a	ROOM	n/a	6	20	[0, 0, 0]	n/a	catFR1	3	R1266J
2170.545	1.616	2826403	WORD	n/a	wordpools/wordpool_categorized_EN.txt	WASHER	Appliances	7	20	[0, 0, 0]	n/a	catFR1	3	R1266J
2172.161	0.767	2828019	WORD_OFF	n/a	n/a	WASHER	n/a	7	20	[0, 0, 0]	n/a	catFR1	3	R1266J
2172.928	1.618	2828786	WORD	n/a	wordpools/wordpool_categorized_EN.txt	DRYER	Appliances	8	20	[0, 0, 0]	n/a	catFR1	3	R1266J
2174.546	0.8	2830404	WORD_OFF	n/a	n/a	DRYER	n/a	8	20	[0, 0, 0]	n/a	catFR1	3	R1266J
2175.346	1.616	2831204	WORD	n/a	wordpools/wordpool_categorized_EN.txt	CUPCAKE	Desserts	9	20	[0, 0, 0]	n/a	catFR1	3	R1266J
2176.962	0.966	2832820	WORD_OFF	n/a	n/a	CUPCAKE	n/a	9	20	[0, 0, 0]	n/a	catFR1	3	R1266J
2177.928	1.618	2833786	WORD	n/a	wordpools/wordpool_categorized_EN.txt	BROWNIES	Desserts	10	20	[0, 0, 0]	n/a	catFR1	3	R1266J
2179.546	0.8	2835404	WORD_OFF	n/a	n/a	BROWNIES	n/a	10	20	[0, 0, 0]	n/a	catFR1	3	R1266J
2180.346	1.616	2836204	WORD	n/a	wordpools/wordpool_categorized_EN.txt	BATHROOM	Building	11	20	[0, 0, 0]	n/a	catFR1	3	R1266J
2181.962	1.017	2837820	WORD_OFF	n/a	n/a	BATHROOM	n/a	11	20	[0, 0, 0]	n/a	catFR1	3	R1266J
2182.979	1.618	2838837	WORD	n/a	wordpools/wordpool_categorized_EN.txt	CEILING	Building	12	20	[0, 0, 0]	n/a	catFR1	3	R1266J
2184.597	0.0	2840455	WORD_OFF	n/a	n/a	CEILING	n/a	12	20	[0, 0, 0]	n/a	catFR1	3	R1266J
2184.597	0.128	2840455	ENCODING_END	n/a	n/a	n/a	n/a	-999	20	[0, 0, 0]	n/a	catFR1	3	R1266J
2184.725	0.0	2840583	DISTRACT_START	n/a	n/a	n/a	n/a	-999	20	[0, 0, 0]	n/a	catFR1	3	R1266J
2184.725	0.022	2840583	START	n/a	n/a	n/a	n/a	-999	21	[-999, -999, -999]	n/a	catFR1	3	R1266J
2184.747	3.099	2840605	PROB	3.068	n/a	n/a	n/a	-999	21	[7, 7, 7]	21.0	catFR1	3	R1266J
2187.846	1.968	2843704	PROB	1.93	n/a	n/a	n/a	-999	21	[6, 4, 1]	11.0	catFR1	3	R1266J
2189.814	6.801	2845672	PROB	6.77	n/a	n/a	n/a	-999	21	[7, 6, 4]	17.0	catFR1	3	R1266J
2196.615	4.151	2852473	PROB	4.12	n/a	n/a	n/a	-999	21	[1, 4, 8]	13.0	catFR1	3	R1266J
2200.766	2.199	2856624	PROB	2.161	n/a	n/a	n/a	-999	21	[1, 3, 1]	5.0	catFR1	3	R1266J
2202.965	4.993	2858823	PROB	4.993	n/a	n/a	n/a	-999	21	[4, 5, 6]	15.0	catFR1	3	R1266J
2207.958	0.007	2863816	STOP	n/a	n/a	n/a	n/a	-999	21	[-999, -999, -999]	n/a	catFR1	3	R1266J
2207.965	0.651	2863823	DISTRACT_END	n/a	n/a	n/a	n/a	-999	20	[0, 0, 0]	n/a	catFR1	3	R1266J
2208.616	0.517	2864474	RETRIEVAL_ORIENT	n/a	n/a	n/a	n/a	-999	20	[0, 0, 0]	n/a	catFR1	3	R1266J
2209.133	11.026	2864991	REC_START	n/a	n/a	n/a	n/a	-999	20	[0, 0, 0]	n/a	catFR1	3	R1266J
2220.159	18.986	2876017	REC_WORD	11.026	n/a	CHEESECAKE	Desserts	4	20	[0, 0, 0]	n/a	catFR1	3	R1266J
2239.145	4.459	2895003	REC_END	n/a	n/a	n/a	n/a	-999	20	[0, 0, 0]	n/a	catFR1	3	R1266J
2243.604	0.5	2899462	TRIAL	n/a	n/a	n/a	n/a	-999	21	[0, 0, 0]	n/a	catFR1	3	R1266J
2244.104	10.428	2899962	COUNTDOWN_START	n/a	n/a	n/a	n/a	-999	21	[0, 0, 0]	n/a	catFR1	3	R1266J
2254.532	0.007	2910390	COUNTDOWN_END	n/a	n/a	n/a	n/a	-999	21	[0, 0, 0]	n/a	catFR1	3	R1266J
2254.539	1.616	2910397	ORIENT	n/a	n/a	n/a	n/a	-999	21	[0, 0, 0]	n/a	catFR1	3	R1266J
2256.155	2.151	2912013	ORIENT_OFF	n/a	n/a	n/a	n/a	-999	21	[0, 0, 0]	n/a	catFR1	3	R1266J
2258.306	1.616	2914164	WORD	n/a	wordpools/wordpool_categorized_EN.txt	BLUEBERRY	Fruit	1	21	[0, 0, 0]	n/a	catFR1	3	R1266J
2259.922	0.967	2915780	WORD_OFF	n/a	n/a	BLUEBERRY	n/a	1	21	[0, 0, 0]	n/a	catFR1	3	R1266J
2260.889	1.618	2916747	WORD	n/a	wordpools/wordpool_categorized_EN.txt	PEACH	Fruit	2	21	[0, 0, 0]	n/a	catFR1	3	R1266J
2262.507	0.983	2918365	WORD_OFF	n/a	n/a	PEACH	n/a	2	21	[0, 0, 0]	n/a	catFR1	3	R1266J
2263.49	1.616	2919348	WORD	n/a	wordpools/wordpool_categorized_EN.txt	GRATER	KitchenTools	3	21	[0, 0, 0]	n/a	catFR1	3	R1266J
2265.106	0.95	2920964	WORD_OFF	n/a	n/a	GRATER	n/a	3	21	[0, 0, 0]	n/a	catFR1	3	R1266J
2266.056	1.618	2921914	WORD	n/a	wordpools/wordpool_categorized_EN.txt	KNIFE	KitchenTools	4	21	[0, 0, 0]	n/a	catFR1	3	R1266J
2267.674	0.867	2923532	WORD_OFF	n/a	n/a	KNIFE	n/a	4	21	[0, 0, 0]	n/a	catFR1	3	R1266J
2268.541	1.616	2924399	WORD	n/a	wordpools/wordpool_categorized_EN.txt	PEAS	Vegetables	5	21	[0, 0, 0]	n/a	catFR1	3	R1266J
2270.157	0.967	2926015	WORD_OFF	n/a	n/a	PEAS	n/a	5	21	[0, 0, 0]	n/a	catFR1	3	R1266J
2271.124	1.617	2926982	WORD	n/a	wordpools/wordpool_categorized_EN.txt	ONION	Vegetables	6	21	[0, 0, 0]	n/a	catFR1	3	R1266J
2272.741	0.901	2928599	WORD_OFF	n/a	n/a	ONION	n/a	6	21	[0, 0, 0]	n/a	catFR1	3	R1266J
2273.642	1.617	2929500	WORD	n/a	wordpools/wordpool_categorized_EN.txt	STRAWBERRY	Fruit	7	21	[0, 0, 0]	n/a	catFR1	3	R1266J
2275.259	0.932	2931117	WORD_OFF	n/a	n/a	STRAWBERRY	n/a	7	21	[0, 0, 0]	n/a	catFR1	3	R1266J
2276.191	1.618	2932049	WORD	n/a	wordpools/wordpool_categorized_EN.txt	APPLE	Fruit	8	21	[0, 0, 0]	n/a	catFR1	3	R1266J
2277.809	0.9	2933667	WORD_OFF	n/a	n/a	APPLE	n/a	8	21	[0, 0, 0]	n/a	catFR1	3	R1266J
2278.709	1.617	2934567	WORD	n/a	wordpools/wordpool_categorized_EN.txt	FORK	KitchenTools	9	21	[0, 0, 0]	n/a	catFR1	3	R1266J
2280.326	1.017	2936184	WORD_OFF	n/a	n/a	FORK	n/a	9	21	[0, 0, 0]	n/a	catFR1	3	R1266J
2281.343	1.615	2937201	WORD	n/a	wordpools/wordpool_categorized_EN.txt	COLANDER	KitchenTools	10	21	[0, 0, 0]	n/a	catFR1	3	R1266J
2282.958	0.967	2938816	WORD_OFF	n/a	n/a	COLANDER	n/a	10	21	[0, 0, 0]	n/a	catFR1	3	R1266J
2283.925	1.618	2939783	WORD	n/a	wordpools/wordpool_categorized_EN.txt	CARROT	Vegetables	11	21	[0, 0, 0]	n/a	catFR1	3	R1266J
2285.543	0.784	2941401	WORD_OFF	n/a	n/a	CARROT	n/a	11	21	[0, 0, 0]	n/a	catFR1	3	R1266J
2286.327	1.615	2942185	WORD	n/a	wordpools/wordpool_categorized_EN.txt	LETTUCE	Vegetables	12	21	[0, 0, 0]	n/a	catFR1	3	R1266J
2287.942	0.001	2943800	WORD_OFF	n/a	n/a	LETTUCE	n/a	12	21	[0, 0, 0]	n/a	catFR1	3	R1266J
2287.943	0.128	2943801	ENCODING_END	n/a	n/a	n/a	n/a	-999	21	[0, 0, 0]	n/a	catFR1	3	R1266J
2288.071	0.0	2943929	DISTRACT_START	n/a	n/a	n/a	n/a	-999	21	[0, 0, 0]	n/a	catFR1	3	R1266J
2288.071	0.021	2943929	START	n/a	n/a	n/a	n/a	-999	22	[-999, -999, -999]	n/a	catFR1	3	R1266J
2288.092	5.219	2943950	PROB	5.192	n/a	n/a	n/a	-999	22	[7, 3, 4]	14.0	catFR1	3	R1266J
2293.311	3.733	2949169	PROB	3.706	n/a	n/a	n/a	-999	22	[5, 9, 1]	15.0	catFR1	3	R1266J
2297.044	5.167	2952902	PROB	5.133	n/a	n/a	n/a	-999	22	[2, 7, 9]	18.0	catFR1	3	R1266J
2302.211	12.464	2958069	PROB	12.464	n/a	n/a	n/a	-999	22	[5, 8, 7]	20.0	catFR1	3	R1266J
2314.675	0.022	2970533	STOP	n/a	n/a	n/a	n/a	-999	22	[-999, -999, -999]	n/a	catFR1	3	R1266J
2314.697	0.617	2970555	DISTRACT_END	n/a	n/a	n/a	n/a	-999	21	[0, 0, 0]	n/a	catFR1	3	R1266J
2315.314	0.517	2971172	RETRIEVAL_ORIENT	n/a	n/a	n/a	n/a	-999	21	[0, 0, 0]	n/a	catFR1	3	R1266J
2315.831	4.453	2971689	REC_START	n/a	n/a	n/a	n/a	-999	21	[0, 0, 0]	n/a	catFR1	3	R1266J
2320.284	1.0	2976142	REC_WORD	4.453	n/a	FUDGE	n/a	-999	21	[0, 0, 0]	n/a	catFR1	3	R1266J
2321.284	1.237	2977142	REC_WORD_VV	5.453	n/a	<>	n/a	-999	21	[0, 0, 0]	n/a	catFR1	3	R1266J
2322.521	2.772	2978379	REC_WORD_VV	6.69	n/a	<>	n/a	-999	21	[0, 0, 0]	n/a	catFR1	3	R1266J
2325.293	13.851	2981151	REC_WORD	9.462	n/a	ONION	Vegetables	6	21	[0, 0, 0]	n/a	catFR1	3	R1266J
2339.144	6.699	2995002	REC_WORD	23.313	n/a	CAKE	n/a	-999	21	[0, 0, 0]	n/a	catFR1	3	R1266J
2345.843	5.107	3001701	REC_END	n/a	n/a	n/a	n/a	-999	21	[0, 0, 0]	n/a	catFR1	3	R1266J
2350.95	0.5	3006808	TRIAL	n/a	n/a	n/a	n/a	-999	22	[0, 0, 0]	n/a	catFR1	3	R1266J
2351.45	10.428	3007308	COUNTDOWN_START	n/a	n/a	n/a	n/a	-999	22	[0, 0, 0]	n/a	catFR1	3	R1266J
2361.878	0.007	3017736	COUNTDOWN_END	n/a	n/a	n/a	n/a	-999	22	[0, 0, 0]	n/a	catFR1	3	R1266J
2361.885	1.601	3017743	ORIENT	n/a	n/a	n/a	n/a	-999	22	[0, 0, 0]	n/a	catFR1	3	R1266J
2363.486	2.284	3019344	ORIENT_OFF	n/a	n/a	n/a	n/a	-999	22	[0, 0, 0]	n/a	catFR1	3	R1266J
2365.77	1.617	3021628	WORD	n/a	wordpools/wordpool_categorized_EN.txt	GNAT	Insects	1	22	[0, 0, 0]	n/a	catFR1	3	R1266J
2367.387	0.832	3023245	WORD_OFF	n/a	n/a	GNAT	n/a	1	22	[0, 0, 0]	n/a	catFR1	3	R1266J
2368.219	1.617	3024077	WORD	n/a	wordpools/wordpool_categorized_EN.txt	FLY	Insects	2	22	[0, 0, 0]	n/a	catFR1	3	R1266J
2369.836	0.951	3025694	WORD_OFF	n/a	n/a	FLY	n/a	2	22	[0, 0, 0]	n/a	catFR1	3	R1266J
2370.787	1.617	3026645	WORD	n/a	wordpools/wordpool_categorized_EN.txt	JELLO	Desserts	3	22	[0, 0, 0]	n/a	catFR1	3	R1266J
2372.404	0.95	3028262	WORD_OFF	n/a	n/a	JELLO	n/a	3	22	[0, 0, 0]	n/a	catFR1	3	R1266J
2373.354	1.616	3029212	WORD	n/a	wordpools/wordpool_categorized_EN.txt	PASTRY	Desserts	4	22	[0, 0, 0]	n/a	catFR1	3	R1266J
2374.97	0.917	3030828	WORD_OFF	n/a	n/a	PASTRY	n/a	4	22	[0, 0, 0]	n/a	catFR1	3	R1266J
2375.887	1.618	3031745	WORD	n/a	wordpools/wordpool_categorized_EN.txt	TROMBONE	Instruments	5	22	[0, 0, 0]	n/a	catFR1	3	R1266J
2377.505	0.85	3033363	WORD_OFF	n/a	n/a	TROMBONE	n/a	5	22	[0, 0, 0]	n/a	catFR1	3	R1266J
2378.355	1.616	3034213	WORD	n/a	wordpools/wordpool_categorized_EN.txt	PIANO	Instruments	6	22	[0, 0, 0]	n/a	catFR1	3	R1266J
2379.971	0.801	3035829	WORD_OFF	n/a	n/a	PIANO	n/a	6	22	[0, 0, 0]	n/a	catFR1	3	R1266J
2380.772	1.617	3036630	WORD	n/a	wordpools/wordpool_categorized_EN.txt	SPIDER	Insects	7	22	[0, 0, 0]	n/a	catFR1	3	R1266J
2382.389	0.933	3038247	WORD_OFF	n/a	n/a	SPIDER	n/a	7	22	[0, 0, 0]	n/a	catFR1	3	R1266J
2383.322	1.616	3039180	WORD	n/a	wordpools/wordpool_categorized_EN.txt	BEE	Insects	8	22	[0, 0, 0]	n/a	catFR1	3	R1266J
2384.938	0.967	3040796	WORD_OFF	n/a	n/a	BEE	n/a	8	22	[0, 0, 0]	n/a	catFR1	3	R1266J
2385.905	1.618	3041763	WORD	n/a	wordpools/wordpool_categorized_EN.txt	CAKE	Desserts	9	22	[0, 0, 0]	n/a	catFR1	3	R1266J
2387.523	0.866	3043381	WORD_OFF	n/a	n/a	CAKE	n/a	9	22	[0, 0, 0]	n/a	catFR1	3	R1266J
2388.389	1.616	3044247	WORD	n/a	wordpools/wordpool_categorized_EN.txt	PIE	Desserts	10	22	[0, 0, 0]	n/a	catFR1	3	R1266J
2390.005	0.917	3045863	WORD_OFF	n/a	n/a	PIE	n/a	10	22	[0, 0, 0]	n/a	catFR1	3	R1266J
2390.922	1.601	3046780	WORD	n/a	wordpools/wordpool_categorized_EN.txt	TUBA	Instruments	11	22	[0, 0, 0]	n/a	catFR1	3	R1266J
2392.523	1.017	3048381	WORD_OFF	n/a	n/a	TUBA	n/a	11	22	[0, 0, 0]	n/a	catFR1	3	R1266J
2393.54	1.616	3049398	WORD	n/a	wordpools/wordpool_categorized_EN.txt	ORGAN	Instruments	12	22	[0, 0, 0]	n/a	catFR1	3	R1266J
2395.156	0.0	3051014	ENCODING_END	n/a	n/a	n/a	n/a	-999	22	[0, 0, 0]	n/a	catFR1	3	R1266J
2395.156	0.098	3051014	WORD_OFF	n/a	n/a	ORGAN	n/a	12	22	[0, 0, 0]	n/a	catFR1	3	R1266J
2395.254	0.0	3051112	DISTRACT_START	n/a	n/a	n/a	n/a	-999	22	[0, 0, 0]	n/a	catFR1	3	R1266J
2395.254	0.02	3051112	START	n/a	n/a	n/a	n/a	-999	23	[-999, -999, -999]	n/a	catFR1	3	R1266J
2395.274	18.069	3051132	PROB	18.035	n/a	n/a	n/a	-999	23	[8, 5, 6]	19.0	catFR1	3	R1266J
2413.343	4.894	3069201	PROB	4.894	n/a	n/a	n/a	-999	23	[5, 9, 8]	22.0	catFR1	3	R1266J
2418.237	0.006	3074095	STOP	n/a	n/a	n/a	n/a	-999	23	[-999, -999, -999]	n/a	catFR1	3	R1266J
2418.243	0.699	3074101	DISTRACT_END	n/a	n/a	n/a	n/a	-999	22	[0, 0, 0]	n/a	catFR1	3	R1266J
2418.942	0.519	3074800	RETRIEVAL_ORIENT	n/a	n/a	n/a	n/a	-999	22	[0, 0, 0]	n/a	catFR1	3	R1266J
