onset	duration	sample	trial_type	response_time	stim_file	item_name	category	serialpos	list	test	answer	experiment	session	subject
0.0	164.849	18876	INSTRUCT_START	n/a	n/a	n/a	n/a	-999	-999	[0, 0, 0]	n/a	catFR1	1	R1674A
164.849	29.406	183729	INSTRUCT_END	n/a	n/a	n/a	n/a	-999	-999	[0, 0, 0]	n/a	catFR1	1	R1674A
194.255	10.35	213136	COUNTDOWN_START	n/a	n/a	n/a	n/a	-999	-999	[0, 0, 0]	n/a	catFR1	1	R1674A
204.605	0.001	223486	COUNTDOWN_END	n/a	n/a	n/a	n/a	-999	-999	[0, 0, 0]	n/a	catFR1	1	R1674A
204.606	2.097	223486	ENCODING_START	n/a	n/a	n/a	n/a	-999	-1	[0, 0, 0]	n/a	catFR1	1	R1674A
206.703	1.604	225584	WORD	n/a	n/a	SHELF	Furniture	1	-1	[0, 0, 0]	n/a	catFR1	1	R1674A
208.307	0.858	227186	WORD_OFF	n/a	n/a	SHELF	Furniture	1	-1	[0, 0, 0]	n/a	catFR1	1	R1674A
209.165	1.608	228045	WORD	n/a	n/a	SOFA	Furniture	2	-1	[0, 0, 0]	n/a	catFR1	1	R1674A
210.773	0.949	229647	WORD_OFF	n/a	n/a	SOFA	Furniture	2	-1	[0, 0, 0]	n/a	catFR1	1	R1674A
211.722	1.608	230601	WORD	n/a	n/a	MOSQUITO	Insects	3	-1	[0, 0, 0]	n/a	catFR1	1	R1674A
213.33	0.926	232204	WORD_OFF	n/a	n/a	MOSQUITO	Insects	3	-1	[0, 0, 0]	n/a	catFR1	1	R1674A
214.256	1.608	233129	WORD	n/a	n/a	MOTH	Insects	4	-1	[0, 0, 0]	n/a	catFR1	1	R1674A
215.864	0.843	234741	WORD_OFF	n/a	n/a	MOTH	Insects	4	-1	[0, 0, 0]	n/a	catFR1	1	R1674A
216.707	1.607	235580	WORD	n/a	n/a	MOTORCYCLE	Vehicles	5	-1	[0, 0, 0]	n/a	catFR1	1	R1674A
218.314	0.784	237192	WORD_OFF	n/a	n/a	MOTORCYCLE	Vehicles	5	-1	[0, 0, 0]	n/a	catFR1	1	R1674A
219.098	1.606	237974	WORD	n/a	n/a	TRAIN	Vehicles	6	-1	[0, 0, 0]	n/a	catFR1	1	R1674A
220.704	0.919	239577	WORD_OFF	n/a	n/a	TRAIN	Vehicles	6	-1	[0, 0, 0]	n/a	catFR1	1	R1674A
221.623	1.607	240502	WORD	n/a	n/a	DRESSER	Furniture	7	-1	[0, 0, 0]	n/a	catFR1	1	R1674A
223.23	0.774	242105	WORD_OFF	n/a	n/a	DRESSER	Furniture	7	-1	[0, 0, 0]	n/a	catFR1	1	R1674A
224.004	1.6	242877	WORD	n/a	n/a	NIGHTSTAND	Furniture	8	-1	[0, 0, 0]	n/a	catFR1	1	R1674A
225.604	0.785	244480	WORD_OFF	n/a	n/a	NIGHTSTAND	Furniture	8	-1	[0, 0, 0]	n/a	catFR1	1	R1674A
226.389	1.608	245271	WORD	n/a	n/a	CAR	Vehicles	9	-1	[0, 0, 0]	n/a	catFR1	1	R1674A
227.997	0.866	246874	WORD_OFF	n/a	n/a	CAR	Vehicles	9	-1	[0, 0, 0]	n/a	catFR1	1	R1674A
228.863	1.61	247742	WORD	n/a	n/a	BUS	Vehicles	10	-1	[0, 0, 0]	n/a	catFR1	1	R1674A
230.473	0.939	249354	WORD_OFF	n/a	n/a	BUS	Vehicles	10	-1	[0, 0, 0]	n/a	catFR1	1	R1674A
231.412	1.601	250289	WORD	n/a	n/a	GNAT	Insects	11	-1	[0, 0, 0]	n/a	catFR1	1	R1674A
233.013	0.834	251891	WORD_OFF	n/a	n/a	GNAT	Insects	11	-1	[0, 0, 0]	n/a	catFR1	1	R1674A
233.847	1.613	252721	WORD	n/a	n/a	BUTTERFLY	Insects	12	-1	[0, 0, 0]	n/a	catFR1	1	R1674A
235.46	0.001	254330	START	n/a	n/a	n/a	n/a	-999	-1	[-999, -999, -999]	n/a	catFR1	1	R1674A
235.461	0.0	254331	PROB	9.775	n/a	n/a	n/a	-999	-1	[8, 6, 8]	22.0	catFR1	1	R1674A
235.456	0.004	254333	WORD_OFF	n/a	n/a	BUTTERFLY	Insects	12	-1	[0, 0, 0]	n/a	catFR1	1	R1674A
235.46	0.0	254333	ENCODING_END	n/a	n/a	n/a	n/a	-999	-1	[0, 0, 0]	n/a	catFR1	1	R1674A
235.46	9.787	254342	DISTRACT_START	n/a	n/a	n/a	n/a	-999	-1	[0, 0, 0]	n/a	catFR1	1	R1674A
245.247	3.974	264117	PROB	3.966	n/a	n/a	n/a	-999	-1	[4, 3, 4]	11.0	catFR1	1	R1674A
249.221	4.044	268091	PROB	4.033	n/a	n/a	n/a	-999	-1	[3, 8, 6]	17.0	catFR1	1	R1674A
253.265	3.523	272135	PROB	3.516	n/a	n/a	n/a	-999	-1	[2, 5, 3]	10.0	catFR1	1	R1674A
256.788	0.0	275658	STOP	n/a	n/a	n/a	n/a	-999	-1	[-999, -999, -999]	n/a	catFR1	1	R1674A
256.788	2.026	275661	DISTRACT_END	n/a	n/a	n/a	n/a	-999	-1	[0, 0, 0]	n/a	catFR1	1	R1674A
258.814	0.94	277693	REC_START	n/a	n/a	n/a	n/a	-999	-1	[0, 0, 0]	n/a	catFR1	1	R1674A
259.754	1.26	278624	REC_WORD	0.94	n/a	SHELF	Furniture	1	-1	[0, 0, 0]	n/a	catFR1	1	R1674A
261.014	1.795	279884	REC_WORD	2.2	n/a	NIGHTSTAND	Furniture	8	-1	[0, 0, 0]	n/a	catFR1	1	R1674A
262.809	1.302	281679	REC_WORD	3.995	n/a	MOTORCYCLE	Vehicles	5	-1	[0, 0, 0]	n/a	catFR1	1	R1674A
264.111	0.905	282981	REC_WORD	5.297	n/a	GNAT	Insects	11	-1	[0, 0, 0]	n/a	catFR1	1	R1674A
265.016	17.346	283886	REC_WORD	6.202	n/a	MOTH	Insects	4	-1	[0, 0, 0]	n/a	catFR1	1	R1674A
282.362	6.605	301232	REC_WORD_VV	23.548	n/a	<>	n/a	-999	-1	[0, 0, 0]	n/a	catFR1	1	R1674A
288.967	7.231	307844	REC_END	n/a	n/a	n/a	n/a	-999	-1	[0, 0, 0]	n/a	catFR1	1	R1674A
296.198	10.34	315074	COUNTDOWN_START	n/a	n/a	n/a	n/a	-999	1	[0, 0, 0]	n/a	catFR1	1	R1674A
306.538	0.0	325413	COUNTDOWN_END	n/a	n/a	n/a	n/a	-999	1	[0, 0, 0]	n/a	catFR1	1	R1674A
306.538	2.201	325413	ENCODING_START	n/a	n/a	n/a	n/a	-999	1	[0, 0, 0]	n/a	catFR1	1	R1674A
308.739	1.607	327617	WORD	n/a	wordpools/wordpool_categorized_EN.txt	BATHROOM	Building	1	1	[0, 0, 0]	n/a	catFR1	1	R1674A
310.346	0.793	329219	WORD_OFF	n/a	n/a	BATHROOM	Building	1	1	[0, 0, 0]	n/a	catFR1	1	R1674A
311.139	1.608	330011	WORD	n/a	wordpools/wordpool_categorized_EN.txt	FOUNDATION	Building	2	1	[0, 0, 0]	n/a	catFR1	1	R1674A
312.747	0.85	331623	WORD_OFF	n/a	n/a	FOUNDATION	Building	2	1	[0, 0, 0]	n/a	catFR1	1	R1674A
313.597	1.601	332472	WORD	n/a	wordpools/wordpool_categorized_EN.txt	TABLET	Electronics	3	1	[0, 0, 0]	n/a	catFR1	1	R1674A
315.198	0.833	334074	WORD_OFF	n/a	n/a	TABLET	Electronics	3	1	[0, 0, 0]	n/a	catFR1	1	R1674A
316.031	1.6	334904	WORD	n/a	wordpools/wordpool_categorized_EN.txt	MICROWAVE	Electronics	4	1	[0, 0, 0]	n/a	catFR1	1	R1674A
317.631	0.924	336507	WORD_OFF	n/a	n/a	MICROWAVE	Electronics	4	1	[0, 0, 0]	n/a	catFR1	1	R1674A
318.555	1.608	337432	WORD	n/a	wordpools/wordpool_categorized_EN.txt	IRON	Appliances	5	1	[0, 0, 0]	n/a	catFR1	1	R1674A
320.163	0.899	339034	WORD_OFF	n/a	n/a	IRON	Appliances	5	1	[0, 0, 0]	n/a	catFR1	1	R1674A
321.062	1.602	339941	WORD	n/a	wordpools/wordpool_categorized_EN.txt	FREEZER	Appliances	6	1	[0, 0, 0]	n/a	catFR1	1	R1674A
322.664	0.766	341543	WORD_OFF	n/a	n/a	FREEZER	Appliances	6	1	[0, 0, 0]	n/a	catFR1	1	R1674A
323.43	1.601	342306	WORD	n/a	wordpools/wordpool_categorized_EN.txt	PRINTER	Electronics	7	1	[0, 0, 0]	n/a	catFR1	1	R1674A
325.031	0.975	343909	WORD_OFF	n/a	n/a	PRINTER	Electronics	7	1	[0, 0, 0]	n/a	catFR1	1	R1674A
326.006	1.607	344881	WORD	n/a	wordpools/wordpool_categorized_EN.txt	CALCULATOR	Electronics	8	1	[0, 0, 0]	n/a	catFR1	1	R1674A
327.613	1.001	346493	WORD_OFF	n/a	n/a	CALCULATOR	Electronics	8	1	[0, 0, 0]	n/a	catFR1	1	R1674A
328.614	1.606	347495	WORD	n/a	wordpools/wordpool_categorized_EN.txt	MIXER	Appliances	9	1	[0, 0, 0]	n/a	catFR1	1	R1674A
330.22	0.901	349097	WORD_OFF	n/a	n/a	MIXER	Appliances	9	1	[0, 0, 0]	n/a	catFR1	1	R1674A
331.121	1.601	349994	WORD	n/a	wordpools/wordpool_categorized_EN.txt	OVEN	Appliances	10	1	[0, 0, 0]	n/a	catFR1	1	R1674A
332.722	0.816	351597	WORD_OFF	n/a	n/a	OVEN	Appliances	10	1	[0, 0, 0]	n/a	catFR1	1	R1674A
333.538	1.601	352417	WORD	n/a	wordpools/wordpool_categorized_EN.txt	ATTIC	Building	11	1	[0, 0, 0]	n/a	catFR1	1	R1674A
335.139	0.833	354019	WORD_OFF	n/a	n/a	ATTIC	Building	11	1	[0, 0, 0]	n/a	catFR1	1	R1674A
335.972	1.608	354849	WORD	n/a	wordpools/wordpool_categorized_EN.txt	HALLWAY	Building	12	1	[0, 0, 0]	n/a	catFR1	1	R1674A
337.58	0.005	356450	PROB	2.849	n/a	n/a	n/a	-999	1	[3, 3, 1]	7.0	catFR1	1	R1674A
337.585	0.0	356455	START	n/a	n/a	n/a	n/a	-999	1	[-999, -999, -999]	n/a	catFR1	1	R1674A
337.581	0.004	356461	WORD_OFF	n/a	n/a	HALLWAY	Building	12	1	[0, 0, 0]	n/a	catFR1	1	R1674A
337.585	0.0	356461	ENCODING_END	n/a	n/a	n/a	n/a	-999	1	[0, 0, 0]	n/a	catFR1	1	R1674A
337.585	2.854	356461	DISTRACT_START	n/a	n/a	n/a	n/a	-999	1	[0, 0, 0]	n/a	catFR1	1	R1674A
340.439	2.95	359309	PROB	2.942	n/a	n/a	n/a	-999	1	[5, 6, 3]	14.0	catFR1	1	R1674A
343.389	4.043	362259	PROB	4.033	n/a	n/a	n/a	-999	1	[4, 8, 3]	15.0	catFR1	1	R1674A
347.432	3.69	366302	PROB	3.683	n/a	n/a	n/a	-999	1	[8, 6, 1]	15.0	catFR1	1	R1674A
351.122	3.367	369992	PROB	3.358	n/a	n/a	n/a	-999	1	[5, 7, 3]	15.0	catFR1	1	R1674A
354.489	2.666	373359	PROB	2.657	n/a	n/a	n/a	-999	1	[3, 1, 2]	6.0	catFR1	1	R1674A
357.155	2.784	376025	PROB	2.774	n/a	n/a	n/a	-999	1	[2, 6, 5]	13.0	catFR1	1	R1674A
359.939	0.0	378809	STOP	n/a	n/a	n/a	n/a	-999	1	[-999, -999, -999]	n/a	catFR1	1	R1674A
359.939	2.284	378819	DISTRACT_END	n/a	n/a	n/a	n/a	-999	1	[0, 0, 0]	n/a	catFR1	1	R1674A
362.223	1.721	381099	REC_START	n/a	n/a	n/a	n/a	-999	1	[0, 0, 0]	n/a	catFR1	1	R1674A
363.944	2.529	382814	REC_WORD	1.721	n/a	ATTIC	Building	11	1	[0, 0, 0]	n/a	catFR1	1	R1674A
366.473	5.028	385343	REC_WORD	4.25	n/a	MICROWAVE	Electronics	4	1	[0, 0, 0]	n/a	catFR1	1	R1674A
371.501	4.843	390371	REC_WORD	9.278	n/a	CALCULATOR	Electronics	8	1	[0, 0, 0]	n/a	catFR1	1	R1674A
376.344	16.022	395214	REC_WORD_VV	14.121	n/a	<>	n/a	-999	1	[0, 0, 0]	n/a	catFR1	1	R1674A
392.366	1.78	411241	REC_END	n/a	n/a	n/a	n/a	-999	1	[0, 0, 0]	n/a	catFR1	1	R1674A
394.146	10.342	413024	COUNTDOWN_START	n/a	n/a	n/a	n/a	-999	2	[0, 0, 0]	n/a	catFR1	1	R1674A
404.488	0.0	423364	COUNTDOWN_END	n/a	n/a	n/a	n/a	-999	2	[0, 0, 0]	n/a	catFR1	1	R1674A
404.488	1.934	423364	ENCODING_START	n/a	n/a	n/a	n/a	-999	2	[0, 0, 0]	n/a	catFR1	1	R1674A
406.422	1.609	425300	WORD	n/a	wordpools/wordpool_categorized_EN.txt	TURKEY	FarmAnimals	1	2	[0, 0, 0]	n/a	catFR1	1	R1674A
408.031	0.783	426903	WORD_OFF	n/a	n/a	TURKEY	FarmAnimals	1	2	[0, 0, 0]	n/a	catFR1	1	R1674A
408.814	1.608	427694	WORD	n/a	wordpools/wordpool_categorized_EN.txt	HORSE	FarmAnimals	2	2	[0, 0, 0]	n/a	catFR1	1	R1674A
410.422	0.9	429297	WORD_OFF	n/a	n/a	HORSE	FarmAnimals	2	2	[0, 0, 0]	n/a	catFR1	1	R1674A
411.322	1.608	430203	WORD	n/a	wordpools/wordpool_categorized_EN.txt	CROW	Birds	3	2	[0, 0, 0]	n/a	catFR1	1	R1674A
412.93	0.792	431805	WORD_OFF	n/a	n/a	CROW	Birds	3	2	[0, 0, 0]	n/a	catFR1	1	R1674A
413.722	1.599	432597	WORD	n/a	wordpools/wordpool_categorized_EN.txt	SEAGULL	Birds	4	2	[0, 0, 0]	n/a	catFR1	1	R1674A
415.321	0.91	434200	WORD_OFF	n/a	n/a	SEAGULL	Birds	4	2	[0, 0, 0]	n/a	catFR1	1	R1674A
416.231	1.606	435106	WORD	n/a	wordpools/wordpool_categorized_EN.txt	WALL	Building	5	2	[0, 0, 0]	n/a	catFR1	1	R1674A
417.837	0.801	436708	WORD_OFF	n/a	n/a	WALL	Building	5	2	[0, 0, 0]	n/a	catFR1	1	R1674A
418.638	1.609	437519	WORD	n/a	wordpools/wordpool_categorized_EN.txt	WINDOW	Building	6	2	[0, 0, 0]	n/a	catFR1	1	R1674A
420.247	0.85	439121	WORD_OFF	n/a	n/a	WINDOW	Building	6	2	[0, 0, 0]	n/a	catFR1	1	R1674A
421.097	1.609	439970	WORD	n/a	wordpools/wordpool_categorized_EN.txt	FINCH	Birds	7	2	[0, 0, 0]	n/a	catFR1	1	R1674A
422.706	0.759	441582	WORD_OFF	n/a	n/a	FINCH	Birds	7	2	[0, 0, 0]	n/a	catFR1	1	R1674A
423.465	1.599	442345	WORD	n/a	wordpools/wordpool_categorized_EN.txt	BLUEBIRD	Birds	8	2	[0, 0, 0]	n/a	catFR1	1	R1674A
425.064	0.958	443938	WORD_OFF	n/a	n/a	BLUEBIRD	Birds	8	2	[0, 0, 0]	n/a	catFR1	1	R1674A
426.022	1.6	444902	WORD	n/a	wordpools/wordpool_categorized_EN.txt	ROOF	Building	9	2	[0, 0, 0]	n/a	catFR1	1	R1674A
427.622	0.84	446495	WORD_OFF	n/a	n/a	ROOF	Building	9	2	[0, 0, 0]	n/a	catFR1	1	R1674A
428.462	1.6	447334	WORD	n/a	wordpools/wordpool_categorized_EN.txt	ROOM	Building	10	2	[0, 0, 0]	n/a	catFR1	1	R1674A
430.062	0.868	448936	WORD_OFF	n/a	n/a	ROOM	Building	10	2	[0, 0, 0]	n/a	catFR1	1	R1674A
430.93	1.609	449804	WORD	n/a	wordpools/wordpool_categorized_EN.txt	LAMB	FarmAnimals	11	2	[0, 0, 0]	n/a	catFR1	1	R1674A
432.539	0.956	451416	WORD_OFF	n/a	n/a	LAMB	FarmAnimals	11	2	[0, 0, 0]	n/a	catFR1	1	R1674A
433.495	1.601	452370	WORD	n/a	wordpools/wordpool_categorized_EN.txt	CALF	FarmAnimals	12	2	[0, 0, 0]	n/a	catFR1	1	R1674A
435.096	0.005	453965	PROB	7.149	n/a	n/a	n/a	-999	2	[5, 4, 3]	12.0	catFR1	1	R1674A
435.101	0.0	453970	START	n/a	n/a	n/a	n/a	-999	2	[-999, -999, -999]	n/a	catFR1	1	R1674A
435.097	0.004	453973	WORD_OFF	n/a	n/a	CALF	FarmAnimals	12	2	[0, 0, 0]	n/a	catFR1	1	R1674A
435.101	0.0	453973	ENCODING_END	n/a	n/a	n/a	n/a	-999	2	[0, 0, 0]	n/a	catFR1	1	R1674A
435.101	7.153	453982	DISTRACT_START	n/a	n/a	n/a	n/a	-999	2	[0, 0, 0]	n/a	catFR1	1	R1674A
442.254	2.302	461123	PROB	2.291	n/a	n/a	n/a	-999	2	[3, 5, 1]	9.0	catFR1	1	R1674A
444.556	5.266	463425	PROB	5.258	n/a	n/a	n/a	-999	2	[5, 6, 5]	16.0	catFR1	1	R1674A
449.822	3.699	468691	PROB	3.691	n/a	n/a	n/a	-999	2	[2, 1, 7]	10.0	catFR1	1	R1674A
453.521	2.524	472390	PROB	2.516	n/a	n/a	n/a	-999	2	[2, 2, 2]	6.0	catFR1	1	R1674A
456.045	0.0	474914	STOP	n/a	n/a	n/a	n/a	-999	2	[-999, -999, -999]	n/a	catFR1	1	R1674A
456.045	2.202	474919	DISTRACT_END	n/a	n/a	n/a	n/a	-999	2	[0, 0, 0]	n/a	catFR1	1	R1674A
458.247	0.0	477116	REC_WORD	0.0	n/a	CROW	Birds	3	2	[0, 0, 0]	n/a	catFR1	1	R1674A
458.247	1.129	477123	REC_START	n/a	n/a	n/a	n/a	-999	2	[0, 0, 0]	n/a	catFR1	1	R1674A
459.376	0.823	478245	REC_WORD	1.129	n/a	BLUEBIRD	Birds	8	2	[0, 0, 0]	n/a	catFR1	1	R1674A
460.199	1.446	479068	REC_WORD	1.952	n/a	SEAGULL	Birds	4	2	[0, 0, 0]	n/a	catFR1	1	R1674A
461.645	5.141	480514	REC_WORD	3.398	n/a	FINCH	Birds	7	2	[0, 0, 0]	n/a	catFR1	1	R1674A
466.786	9.678	485655	REC_WORD_VV	8.539	n/a	<>	n/a	-999	2	[0, 0, 0]	n/a	catFR1	1	R1674A
476.464	11.927	495333	REC_WORD	18.217	n/a	LAMB	FarmAnimals	11	2	[0, 0, 0]	n/a	catFR1	1	R1674A
488.391	1.774	507264	REC_END	n/a	n/a	n/a	n/a	-999	2	[0, 0, 0]	n/a	catFR1	1	R1674A
490.165	10.341	509038	COUNTDOWN_START	n/a	n/a	n/a	n/a	-999	3	[0, 0, 0]	n/a	catFR1	1	R1674A
500.506	0.0	519378	COUNTDOWN_END	n/a	n/a	n/a	n/a	-999	3	[0, 0, 0]	n/a	catFR1	1	R1674A
500.506	1.765	519378	ENCODING_START	n/a	n/a	n/a	n/a	-999	3	[0, 0, 0]	n/a	catFR1	1	R1674A
502.271	1.6	521143	WORD	n/a	wordpools/wordpool_categorized_EN.txt	MOUNTAIN	Landscapes	1	3	[0, 0, 0]	n/a	catFR1	1	R1674A
503.871	0.926	522745	WORD_OFF	n/a	n/a	MOUNTAIN	Landscapes	1	3	[0, 0, 0]	n/a	catFR1	1	R1674A
504.797	1.609	523670	WORD	n/a	wordpools/wordpool_categorized_EN.txt	BEACH	Landscapes	2	3	[0, 0, 0]	n/a	catFR1	1	R1674A
506.406	0.998	525282	WORD_OFF	n/a	n/a	BEACH	Landscapes	2	3	[0, 0, 0]	n/a	catFR1	1	R1674A
507.404	1.601	526284	WORD	n/a	wordpools/wordpool_categorized_EN.txt	CRAB	OceanAnimals	3	3	[0, 0, 0]	n/a	catFR1	1	R1674A
509.005	0.884	527877	WORD_OFF	n/a	n/a	CRAB	OceanAnimals	3	3	[0, 0, 0]	n/a	catFR1	1	R1674A
509.889	1.609	528764	WORD	n/a	wordpools/wordpool_categorized_EN.txt	FISH	OceanAnimals	4	3	[0, 0, 0]	n/a	catFR1	1	R1674A
511.498	0.756	530376	WORD_OFF	n/a	n/a	FISH	OceanAnimals	4	3	[0, 0, 0]	n/a	catFR1	1	R1674A
512.254	1.6	531129	WORD	n/a	wordpools/wordpool_categorized_EN.txt	LIGHTNING	Weather	5	3	[0, 0, 0]	n/a	catFR1	1	R1674A
513.854	1.002	532732	WORD_OFF	n/a	n/a	LIGHTNING	Weather	5	3	[0, 0, 0]	n/a	catFR1	1	R1674A
514.856	1.607	533733	WORD	n/a	wordpools/wordpool_categorized_EN.txt	SNOW	Weather	6	3	[0, 0, 0]	n/a	catFR1	1	R1674A
516.463	0.808	535336	WORD_OFF	n/a	n/a	SNOW	Weather	6	3	[0, 0, 0]	n/a	catFR1	1	R1674A
517.271	1.601	536147	WORD	n/a	wordpools/wordpool_categorized_EN.txt	LAKE	Landscapes	7	3	[0, 0, 0]	n/a	catFR1	1	R1674A
518.872	0.808	537749	WORD_OFF	n/a	n/a	LAKE	Landscapes	7	3	[0, 0, 0]	n/a	catFR1	1	R1674A
519.68	1.601	538560	WORD	n/a	wordpools/wordpool_categorized_EN.txt	WOODS	Landscapes	8	3	[0, 0, 0]	n/a	catFR1	1	R1674A
521.281	0.948	540153	WORD_OFF	n/a	n/a	WOODS	Landscapes	8	3	[0, 0, 0]	n/a	catFR1	1	R1674A
522.229	1.601	541107	WORD	n/a	wordpools/wordpool_categorized_EN.txt	WHALE	OceanAnimals	9	3	[0, 0, 0]	n/a	catFR1	1	R1674A
523.83	0.835	542709	WORD_OFF	n/a	n/a	WHALE	OceanAnimals	9	3	[0, 0, 0]	n/a	catFR1	1	R1674A
524.665	1.606	543539	WORD	n/a	wordpools/wordpool_categorized_EN.txt	LOBSTER	OceanAnimals	10	3	[0, 0, 0]	n/a	catFR1	1	R1674A
526.271	0.876	545151	WORD_OFF	n/a	n/a	LOBSTER	OceanAnimals	10	3	[0, 0, 0]	n/a	catFR1	1	R1674A
527.147	1.601	546019	WORD	n/a	wordpools/wordpool_categorized_EN.txt	HURRICANE	Weather	11	3	[0, 0, 0]	n/a	catFR1	1	R1674A
528.748	0.833	547621	WORD_OFF	n/a	n/a	HURRICANE	Weather	11	3	[0, 0, 0]	n/a	catFR1	1	R1674A
529.581	1.608	548461	WORD	n/a	wordpools/wordpool_categorized_EN.txt	DRIZZLE	Weather	12	3	[0, 0, 0]	n/a	catFR1	1	R1674A
531.189	0.003	550058	PROB	5.307	n/a	n/a	n/a	-999	3	[6, 8, 5]	19.0	catFR1	1	R1674A
531.192	0.0	550061	START	n/a	n/a	n/a	n/a	-999	3	[-999, -999, -999]	n/a	catFR1	1	R1674A
531.189	0.003	550063	WORD_OFF	n/a	n/a	DRIZZLE	Weather	12	3	[0, 0, 0]	n/a	catFR1	1	R1674A
531.192	0.0	550063	ENCODING_END	n/a	n/a	n/a	n/a	-999	3	[0, 0, 0]	n/a	catFR1	1	R1674A
531.192	5.313	550073	DISTRACT_START	n/a	n/a	n/a	n/a	-999	3	[0, 0, 0]	n/a	catFR1	1	R1674A
536.505	2.734	555374	PROB	2.724	n/a	n/a	n/a	-999	3	[1, 1, 5]	7.0	catFR1	1	R1674A
539.239	3.05	558108	PROB	3.042	n/a	n/a	n/a	-999	3	[2, 8, 1]	11.0	catFR1	1	R1674A
542.289	4.357	561158	PROB	4.35	n/a	n/a	n/a	-999	3	[6, 8, 8]	22.0	catFR1	1	R1674A
546.646	6.042	565515	PROB	6.033	n/a	n/a	n/a	-999	3	[3, 5, 6]	14.0	catFR1	1	R1674A
552.688	0.0	571557	STOP	n/a	n/a	n/a	n/a	-999	3	[-999, -999, -999]	n/a	catFR1	1	R1674A
552.688	2.133	571563	DISTRACT_END	n/a	n/a	n/a	n/a	-999	3	[0, 0, 0]	n/a	catFR1	1	R1674A
554.821	1.864	573699	REC_START	n/a	n/a	n/a	n/a	-999	3	[0, 0, 0]	n/a	catFR1	1	R1674A
556.685	8.719	575554	REC_WORD_VV	1.864	n/a	<>	n/a	-999	3	[0, 0, 0]	n/a	catFR1	1	R1674A
565.404	1.33	584273	REC_WORD	10.583	n/a	LAKE	Landscapes	7	3	[0, 0, 0]	n/a	catFR1	1	R1674A
566.734	0.981	585603	REC_WORD	11.913	n/a	DRIZZLE	Weather	12	3	[0, 0, 0]	n/a	catFR1	1	R1674A
567.715	11.098	586584	REC_WORD	12.894	n/a	HURRICANE	Weather	11	3	[0, 0, 0]	n/a	catFR1	1	R1674A
578.813	0.558	597682	REC_WORD_VV	23.992	n/a	<>	n/a	-999	3	[0, 0, 0]	n/a	catFR1	1	R1674A
579.371	5.589	598240	REC_WORD	24.55	n/a	FISH	OceanAnimals	4	3	[0, 0, 0]	n/a	catFR1	1	R1674A
584.96	2.48	603831	REC_END	n/a	n/a	n/a	n/a	-999	3	[0, 0, 0]	n/a	catFR1	1	R1674A
587.44	10.34	606311	COUNTDOWN_START	n/a	n/a	n/a	n/a	-999	4	[0, 0, 0]	n/a	catFR1	1	R1674A
597.78	0.0	616651	COUNTDOWN_END	n/a	n/a	n/a	n/a	-999	4	[0, 0, 0]	n/a	catFR1	1	R1674A
597.78	2.126	616661	ENCODING_START	n/a	n/a	n/a	n/a	-999	4	[0, 0, 0]	n/a	catFR1	1	R1674A
599.906	1.606	618778	WORD	n/a	wordpools/wordpool_categorized_EN.txt	STRAINER	KitchenTools	1	4	[0, 0, 0]	n/a	catFR1	1	R1674A
601.512	0.827	620390	WORD_OFF	n/a	n/a	STRAINER	KitchenTools	1	4	[0, 0, 0]	n/a	catFR1	1	R1674A
602.339	1.609	621211	WORD	n/a	wordpools/wordpool_categorized_EN.txt	SPATULA	KitchenTools	2	4	[0, 0, 0]	n/a	catFR1	1	R1674A
603.948	0.883	622823	WORD_OFF	n/a	n/a	SPATULA	KitchenTools	2	4	[0, 0, 0]	n/a	catFR1	1	R1674A
604.831	1.608	623710	WORD	n/a	wordpools/wordpool_categorized_EN.txt	PLANE	Vehicles	3	4	[0, 0, 0]	n/a	catFR1	1	R1674A
606.439	0.817	625312	WORD_OFF	n/a	n/a	PLANE	Vehicles	3	4	[0, 0, 0]	n/a	catFR1	1	R1674A
607.256	1.606	626132	WORD	n/a	wordpools/wordpool_categorized_EN.txt	BIKE	Vehicles	4	4	[0, 0, 0]	n/a	catFR1	1	R1674A
608.862	0.852	627735	WORD_OFF	n/a	n/a	BIKE	Vehicles	4	4	[0, 0, 0]	n/a	catFR1	1	R1674A
609.714	1.607	628593	WORD	n/a	wordpools/wordpool_categorized_EN.txt	SODA	Beverages	5	4	[0, 0, 0]	n/a	catFR1	1	R1674A
611.321	0.776	630196	WORD_OFF	n/a	n/a	SODA	Beverages	5	4	[0, 0, 0]	n/a	catFR1	1	R1674A
612.097	1.607	630968	WORD	n/a	wordpools/wordpool_categorized_EN.txt	WINE	Beverages	6	4	[0, 0, 0]	n/a	catFR1	1	R1674A
613.704	0.892	632580	WORD_OFF	n/a	n/a	WINE	Beverages	6	4	[0, 0, 0]	n/a	catFR1	1	R1674A
614.596	1.61	633467	WORD	n/a	wordpools/wordpool_categorized_EN.txt	CORKSCREW	KitchenTools	7	4	[0, 0, 0]	n/a	catFR1	1	R1674A
616.206	1.0	635079	WORD_OFF	n/a	n/a	CORKSCREW	KitchenTools	7	4	[0, 0, 0]	n/a	catFR1	1	R1674A
617.206	1.609	636081	WORD	n/a	wordpools/wordpool_categorized_EN.txt	LADLE	KitchenTools	8	4	[0, 0, 0]	n/a	catFR1	1	R1674A
618.815	0.766	637693	WORD_OFF	n/a	n/a	LADLE	KitchenTools	8	4	[0, 0, 0]	n/a	catFR1	1	R1674A
619.581	1.608	638456	WORD	n/a	wordpools/wordpool_categorized_EN.txt	TRUCK	Vehicles	9	4	[0, 0, 0]	n/a	catFR1	1	R1674A
621.189	0.99	640068	WORD_OFF	n/a	n/a	TRUCK	Vehicles	9	4	[0, 0, 0]	n/a	catFR1	1	R1674A
622.179	1.602	641051	WORD	n/a	wordpools/wordpool_categorized_EN.txt	JEEP	Vehicles	10	4	[0, 0, 0]	n/a	catFR1	1	R1674A
623.781	0.933	642663	WORD_OFF	n/a	n/a	JEEP	Vehicles	10	4	[0, 0, 0]	n/a	catFR1	1	R1674A
624.714	1.609	643588	WORD	n/a	wordpools/wordpool_categorized_EN.txt	CIDER	Beverages	11	4	[0, 0, 0]	n/a	catFR1	1	R1674A
626.323	0.957	645200	WORD_OFF	n/a	n/a	CIDER	Beverages	11	4	[0, 0, 0]	n/a	catFR1	1	R1674A
627.28	1.609	646154	WORD	n/a	wordpools/wordpool_categorized_EN.txt	RUM	Beverages	12	4	[0, 0, 0]	n/a	catFR1	1	R1674A
628.889	0.003	647758	PROB	5.382	n/a	n/a	n/a	-999	4	[5, 8, 7]	20.0	catFR1	1	R1674A
628.892	0.0	647761	START	n/a	n/a	n/a	n/a	-999	4	[-999, -999, -999]	n/a	catFR1	1	R1674A
628.889	0.003	647766	WORD_OFF	n/a	n/a	RUM	Beverages	12	4	[0, 0, 0]	n/a	catFR1	1	R1674A
628.892	0.0	647766	ENCODING_END	n/a	n/a	n/a	n/a	-999	4	[0, 0, 0]	n/a	catFR1	1	R1674A
628.892	5.388	647766	DISTRACT_START	n/a	n/a	n/a	n/a	-999	4	[0, 0, 0]	n/a	catFR1	1	R1674A
634.28	2.641	653149	PROB	2.633	n/a	n/a	n/a	-999	4	[8, 2, 1]	11.0	catFR1	1	R1674A
636.921	5.084	655790	PROB	5.075	n/a	n/a	n/a	-999	4	[8, 4, 2]	14.0	catFR1	1	R1674A
642.005	3.534	660873	PROB	3.524	n/a	n/a	n/a	-999	4	[6, 3, 4]	13.0	catFR1	1	R1674A
645.539	3.25	664407	PROB	3.24	n/a	n/a	n/a	-999	4	[5, 8, 5]	18.0	catFR1	1	R1674A
648.789	2.466	667657	PROB	2.458	n/a	n/a	n/a	-999	4	[3, 1, 5]	9.0	catFR1	1	R1674A
651.255	0.0	670123	STOP	n/a	n/a	n/a	n/a	-999	4	[-999, -999, -999]	n/a	catFR1	1	R1674A
651.255	2.326	670133	DISTRACT_END	n/a	n/a	n/a	n/a	-999	4	[0, 0, 0]	n/a	catFR1	1	R1674A
653.581	0.245	672451	REC_START	n/a	n/a	n/a	n/a	-999	4	[0, 0, 0]	n/a	catFR1	1	R1674A
653.826	2.669	672694	REC_WORD	0.245	n/a	SPATULA	KitchenTools	2	4	[0, 0, 0]	n/a	catFR1	1	R1674A
656.495	1.592	675363	REC_WORD	2.914	n/a	WINE	Beverages	6	4	[0, 0, 0]	n/a	catFR1	1	R1674A
658.087	2.043	676955	REC_WORD	4.506	n/a	LADLE	KitchenTools	8	4	[0, 0, 0]	n/a	catFR1	1	R1674A
660.13	23.59	678998	REC_WORD	6.549	n/a	CIDER	Beverages	11	4	[0, 0, 0]	n/a	catFR1	1	R1674A
683.72	1.976	702593	REC_END	n/a	n/a	n/a	n/a	-999	4	[0, 0, 0]	n/a	catFR1	1	R1674A
685.696	10.342	704567	COUNTDOWN_START	n/a	n/a	n/a	n/a	-999	5	[0, 0, 0]	n/a	catFR1	1	R1674A
696.038	0.0	714916	COUNTDOWN_END	n/a	n/a	n/a	n/a	-999	5	[0, 0, 0]	n/a	catFR1	1	R1674A
696.038	1.843	714916	ENCODING_START	n/a	n/a	n/a	n/a	-999	5	[0, 0, 0]	n/a	catFR1	1	R1674A
697.881	1.6	716757	WORD	n/a	wordpools/wordpool_categorized_EN.txt	SPRUCE	Trees	1	5	[0, 0, 0]	n/a	catFR1	1	R1674A
699.481	0.833	718360	WORD_OFF	n/a	n/a	SPRUCE	Trees	1	5	[0, 0, 0]	n/a	catFR1	1	R1674A
700.314	1.609	719190	WORD	n/a	wordpools/wordpool_categorized_EN.txt	OAK	Trees	2	5	[0, 0, 0]	n/a	catFR1	1	R1674A
701.923	0.775	720802	WORD_OFF	n/a	n/a	OAK	Trees	2	5	[0, 0, 0]	n/a	catFR1	1	R1674A
702.698	1.607	721574	WORD	n/a	wordpools/wordpool_categorized_EN.txt	DESK	Furniture	3	5	[0, 0, 0]	n/a	catFR1	1	R1674A
704.305	0.832	723177	WORD_OFF	n/a	n/a	DESK	Furniture	3	5	[0, 0, 0]	n/a	catFR1	1	R1674A
705.137	1.602	724016	WORD	n/a	wordpools/wordpool_categorized_EN.txt	BED	Furniture	4	5	[0, 0, 0]	n/a	catFR1	1	R1674A
706.739	0.85	725618	WORD_OFF	n/a	n/a	BED	Furniture	4	5	[0, 0, 0]	n/a	catFR1	1	R1674A
707.589	1.6	726467	WORD	n/a	wordpools/wordpool_categorized_EN.txt	BINDER	OfficeSupplies	5	5	[0, 0, 0]	n/a	catFR1	1	R1674A
709.189	0.85	728060	WORD_OFF	n/a	n/a	BINDER	OfficeSupplies	5	5	[0, 0, 0]	n/a	catFR1	1	R1674A
710.039	1.608	728909	WORD	n/a	wordpools/wordpool_categorized_EN.txt	PEN	OfficeSupplies	6	5	[0, 0, 0]	n/a	catFR1	1	R1674A
711.647	0.966	730521	WORD_OFF	n/a	n/a	PEN	OfficeSupplies	6	5	[0, 0, 0]	n/a	catFR1	1	R1674A
712.613	1.601	731485	WORD	n/a	wordpools/wordpool_categorized_EN.txt	BOOKCASE	Furniture	7	5	[0, 0, 0]	n/a	catFR1	1	R1674A
714.214	0.99	733087	WORD_OFF	n/a	n/a	BOOKCASE	Furniture	7	5	[0, 0, 0]	n/a	catFR1	1	R1674A
715.204	1.602	734079	WORD	n/a	wordpools/wordpool_categorized_EN.txt	TABLE	Furniture	8	5	[0, 0, 0]	n/a	catFR1	1	R1674A
716.806	0.824	735682	WORD_OFF	n/a	n/a	TABLE	Furniture	8	5	[0, 0, 0]	n/a	catFR1	1	R1674A
717.63	1.6	736502	WORD	n/a	wordpools/wordpool_categorized_EN.txt	PINE	Trees	9	5	[0, 0, 0]	n/a	catFR1	1	R1674A
719.23	0.891	738104	WORD_OFF	n/a	n/a	PINE	Trees	9	5	[0, 0, 0]	n/a	catFR1	1	R1674A
720.121	1.6	738991	WORD	n/a	wordpools/wordpool_categorized_EN.txt	ELM	Trees	10	5	[0, 0, 0]	n/a	catFR1	1	R1674A
721.721	0.776	740594	WORD_OFF	n/a	n/a	ELM	Trees	10	5	[0, 0, 0]	n/a	catFR1	1	R1674A
722.497	1.609	741376	WORD	n/a	wordpools/wordpool_categorized_EN.txt	FOLDER	OfficeSupplies	11	5	[0, 0, 0]	n/a	catFR1	1	R1674A
724.106	0.9	742978	WORD_OFF	n/a	n/a	FOLDER	OfficeSupplies	11	5	[0, 0, 0]	n/a	catFR1	1	R1674A
725.006	1.608	743885	WORD	n/a	wordpools/wordpool_categorized_EN.txt	RULER	OfficeSupplies	12	5	[0, 0, 0]	n/a	catFR1	1	R1674A
726.614	0.002	745482	PROB	4.59	n/a	n/a	n/a	-999	5	[2, 5, 7]	14.0	catFR1	1	R1674A
726.616	0.0	745484	START	n/a	n/a	n/a	n/a	-999	5	[-999, -999, -999]	n/a	catFR1	1	R1674A
726.614	0.002	745487	WORD_OFF	n/a	n/a	RULER	OfficeSupplies	12	5	[0, 0, 0]	n/a	catFR1	1	R1674A
726.616	0.0	745487	ENCODING_END	n/a	n/a	n/a	n/a	-999	5	[0, 0, 0]	n/a	catFR1	1	R1674A
726.616	4.598	745487	DISTRACT_START	n/a	n/a	n/a	n/a	-999	5	[0, 0, 0]	n/a	catFR1	1	R1674A
731.214	2.918	750082	PROB	2.907	n/a	n/a	n/a	-999	5	[6, 3, 2]	11.0	catFR1	1	R1674A
734.132	2.44	753000	PROB	2.433	n/a	n/a	n/a	-999	5	[5, 1, 8]	14.0	catFR1	1	R1674A
736.572	3.983	755440	PROB	3.976	n/a	n/a	n/a	-999	5	[4, 7, 4]	15.0	catFR1	1	R1674A
740.555	4.734	759423	PROB	4.724	n/a	n/a	n/a	-999	5	[4, 5, 3]	12.0	catFR1	1	R1674A
745.289	3.583	764157	PROB	3.574	n/a	n/a	n/a	-999	5	[8, 3, 6]	17.0	catFR1	1	R1674A
748.872	0.0	767740	STOP	n/a	n/a	n/a	n/a	-999	5	[-999, -999, -999]	n/a	catFR1	1	R1674A
748.872	2.165	767750	DISTRACT_END	n/a	n/a	n/a	n/a	-999	5	[0, 0, 0]	n/a	catFR1	1	R1674A
751.037	0.441	769915	REC_START	n/a	n/a	n/a	n/a	-999	5	[0, 0, 0]	n/a	catFR1	1	R1674A
751.478	0.841	770346	REC_WORD	0.441	n/a	OAK	Trees	2	5	[0, 0, 0]	n/a	catFR1	1	R1674A
752.319	4.628	771187	REC_WORD	1.282	n/a	PINE	Trees	9	5	[0, 0, 0]	n/a	catFR1	1	R1674A
756.947	1.38	775815	REC_WORD	5.91	n/a	ELM	Trees	10	5	[0, 0, 0]	n/a	catFR1	1	R1674A
758.327	1.622	777195	REC_WORD	7.29	n/a	SPRUCE	Trees	1	5	[0, 0, 0]	n/a	catFR1	1	R1674A
759.949	1.022	778817	REC_WORD	8.912	n/a	BINDER	OfficeSupplies	5	5	[0, 0, 0]	n/a	catFR1	1	R1674A
760.971	10.029	779839	REC_WORD	9.934	n/a	FOLDER	OfficeSupplies	11	5	[0, 0, 0]	n/a	catFR1	1	R1674A
771.0	0.534	789868	REC_WORD_VV	19.963	n/a	<>	n/a	-999	5	[0, 0, 0]	n/a	catFR1	1	R1674A
771.534	0.466	790402	REC_WORD	20.497	n/a	RULER	OfficeSupplies	12	5	[0, 0, 0]	n/a	catFR1	1	R1674A
772.0	1.0	790868	REC_WORD_VV	20.963	n/a	<>	n/a	-999	5	[0, 0, 0]	n/a	catFR1	1	R1674A
773.0	8.171	791868	REC_WORD_VV	21.963	n/a	<>	n/a	-999	5	[0, 0, 0]	n/a	catFR1	1	R1674A
781.171	1.86	800047	REC_END	n/a	n/a	n/a	n/a	-999	5	[0, 0, 0]	n/a	catFR1	1	R1674A
783.031	10.34	801907	COUNTDOWN_START	n/a	n/a	n/a	n/a	-999	6	[0, 0, 0]	n/a	catFR1	1	R1674A
793.371	0.0	812247	COUNTDOWN_END	n/a	n/a	n/a	n/a	-999	6	[0, 0, 0]	n/a	catFR1	1	R1674A
793.371	1.852	812247	ENCODING_START	n/a	n/a	n/a	n/a	-999	6	[0, 0, 0]	n/a	catFR1	1	R1674A
795.223	1.6	814097	WORD	n/a	wordpools/wordpool_categorized_EN.txt	WHISK	KitchenTools	1	6	[0, 0, 0]	n/a	catFR1	1	R1674A
796.823	0.791	815700	WORD_OFF	n/a	n/a	WHISK	KitchenTools	1	6	[0, 0, 0]	n/a	catFR1	1	R1674A
797.614	1.6	816491	WORD	n/a	wordpools/wordpool_categorized_EN.txt	COLANDER	KitchenTools	2	6	[0, 0, 0]	n/a	catFR1	1	R1674A
799.214	0.783	818084	WORD_OFF	n/a	n/a	COLANDER	KitchenTools	2	6	[0, 0, 0]	n/a	catFR1	1	R1674A
799.997	1.601	818866	WORD	n/a	wordpools/wordpool_categorized_EN.txt	BULL	FarmAnimals	3	6	[0, 0, 0]	n/a	catFR1	1	R1674A
801.598	0.781	820469	WORD_OFF	n/a	n/a	BULL	FarmAnimals	3	6	[0, 0, 0]	n/a	catFR1	1	R1674A
802.379	1.609	821251	WORD	n/a	wordpools/wordpool_categorized_EN.txt	HEN	FarmAnimals	4	6	[0, 0, 0]	n/a	catFR1	1	R1674A
803.988	0.824	822863	WORD_OFF	n/a	n/a	HEN	FarmAnimals	4	6	[0, 0, 0]	n/a	catFR1	1	R1674A
804.812	1.602	823683	WORD	n/a	wordpools/wordpool_categorized_EN.txt	BROCCOLI	Vegetables	5	6	[0, 0, 0]	n/a	catFR1	1	R1674A
806.414	0.958	825286	WORD_OFF	n/a	n/a	BROCCOLI	Vegetables	5	6	[0, 0, 0]	n/a	catFR1	1	R1674A
807.372	1.609	826249	WORD	n/a	wordpools/wordpool_categorized_EN.txt	SPINACH	Vegetables	6	6	[0, 0, 0]	n/a	catFR1	1	R1674A
808.981	0.85	827852	WORD_OFF	n/a	n/a	SPINACH	Vegetables	6	6	[0, 0, 0]	n/a	catFR1	1	R1674A
809.831	1.6	828710	WORD	n/a	wordpools/wordpool_categorized_EN.txt	SPOON	KitchenTools	7	6	[0, 0, 0]	n/a	catFR1	1	R1674A
811.431	0.898	830303	WORD_OFF	n/a	n/a	SPOON	KitchenTools	7	6	[0, 0, 0]	n/a	catFR1	1	R1674A
812.329	1.6	831200	WORD	n/a	wordpools/wordpool_categorized_EN.txt	GRATER	KitchenTools	8	6	[0, 0, 0]	n/a	catFR1	1	R1674A
813.929	0.968	832802	WORD_OFF	n/a	n/a	GRATER	KitchenTools	8	6	[0, 0, 0]	n/a	catFR1	1	R1674A
814.897	1.601	833775	WORD	n/a	wordpools/wordpool_categorized_EN.txt	PIG	FarmAnimals	9	6	[0, 0, 0]	n/a	catFR1	1	R1674A
816.498	0.881	835368	WORD_OFF	n/a	n/a	PIG	FarmAnimals	9	6	[0, 0, 0]	n/a	catFR1	1	R1674A
817.379	1.6	836255	WORD	n/a	wordpools/wordpool_categorized_EN.txt	GOAT	FarmAnimals	10	6	[0, 0, 0]	n/a	catFR1	1	R1674A
818.979	0.935	837857	WORD_OFF	n/a	n/a	GOAT	FarmAnimals	10	6	[0, 0, 0]	n/a	catFR1	1	R1674A
819.914	1.608	838792	WORD	n/a	wordpools/wordpool_categorized_EN.txt	POTATO	Vegetables	11	6	[0, 0, 0]	n/a	catFR1	1	R1674A
821.522	0.849	840395	WORD_OFF	n/a	n/a	POTATO	Vegetables	11	6	[0, 0, 0]	n/a	catFR1	1	R1674A
822.371	1.601	841244	WORD	n/a	wordpools/wordpool_categorized_EN.txt	CELERY	Vegetables	12	6	[0, 0, 0]	n/a	catFR1	1	R1674A
823.972	0.004	842840	PROB	3.049	n/a	n/a	n/a	-999	6	[3, 7, 4]	14.0	catFR1	1	R1674A
823.976	0.0	842844	START	n/a	n/a	n/a	n/a	-999	6	[-999, -999, -999]	n/a	catFR1	1	R1674A
823.972	0.004	842846	WORD_OFF	n/a	n/a	CELERY	Vegetables	12	6	[0, 0, 0]	n/a	catFR1	1	R1674A
823.976	0.0	842846	ENCODING_END	n/a	n/a	n/a	n/a	-999	6	[0, 0, 0]	n/a	catFR1	1	R1674A
823.976	3.054	842846	DISTRACT_START	n/a	n/a	n/a	n/a	-999	6	[0, 0, 0]	n/a	catFR1	1	R1674A
827.03	2.676	845898	PROB	2.666	n/a	n/a	n/a	-999	6	[3, 3, 7]	13.0	catFR1	1	R1674A
829.706	7.049	848574	PROB	7.041	n/a	n/a	n/a	-999	6	[1, 2, 3]	6.0	catFR1	1	R1674A
836.755	3.159	855623	PROB	3.15	n/a	n/a	n/a	-999	6	[2, 8, 5]	15.0	catFR1	1	R1674A
839.914	2.811	858782	PROB	2.799	n/a	n/a	n/a	-999	6	[2, 5, 2]	9.0	catFR1	1	R1674A
842.725	2.596	861593	PROB	2.591	n/a	n/a	n/a	-999	6	[5, 5, 2]	12.0	catFR1	1	R1674A
845.321	0.0	864189	STOP	n/a	n/a	n/a	n/a	-999	6	[-999, -999, -999]	n/a	catFR1	1	R1674A
845.321	2.05	864193	DISTRACT_END	n/a	n/a	n/a	n/a	-999	6	[0, 0, 0]	n/a	catFR1	1	R1674A
847.371	4.41	866244	REC_START	n/a	n/a	n/a	n/a	-999	6	[0, 0, 0]	n/a	catFR1	1	R1674A
851.781	0.706	870649	REC_WORD	4.41	n/a	BULL	FarmAnimals	3	6	[0, 0, 0]	n/a	catFR1	1	R1674A
852.487	4.728	871355	REC_WORD	5.116	n/a	HEN	FarmAnimals	4	6	[0, 0, 0]	n/a	catFR1	1	R1674A
857.215	2.138	876083	REC_WORD	9.844	n/a	GOAT	FarmAnimals	10	6	[0, 0, 0]	n/a	catFR1	1	R1674A
859.353	3.425	878221	REC_WORD_VV	11.982	n/a	<>	n/a	-999	6	[0, 0, 0]	n/a	catFR1	1	R1674A
862.778	9.454	881646	REC_WORD	15.407	n/a	COLANDER	KitchenTools	2	6	[0, 0, 0]	n/a	catFR1	1	R1674A
872.232	5.282	891099	REC_WORD	24.861	n/a	GRATER	KitchenTools	8	6	[0, 0, 0]	n/a	catFR1	1	R1674A
877.514	2.415	896385	REC_END	n/a	n/a	n/a	n/a	-999	6	[0, 0, 0]	n/a	catFR1	1	R1674A
879.929	10.344	898808	COUNTDOWN_START	n/a	n/a	n/a	n/a	-999	7	[0, 0, 0]	n/a	catFR1	1	R1674A
890.273	0.0	909148	COUNTDOWN_END	n/a	n/a	n/a	n/a	-999	7	[0, 0, 0]	n/a	catFR1	1	R1674A
890.273	1.79	909148	ENCODING_START	n/a	n/a	n/a	n/a	-999	7	[0, 0, 0]	n/a	catFR1	1	R1674A
892.063	1.6	910941	WORD	n/a	wordpools/wordpool_categorized_EN.txt	ELEPHANT	Zoo	1	7	[0, 0, 0]	n/a	catFR1	1	R1674A
893.663	0.901	912534	WORD_OFF	n/a	n/a	ELEPHANT	Zoo	1	7	[0, 0, 0]	n/a	catFR1	1	R1674A
894.564	1.608	913440	WORD	n/a	wordpools/wordpool_categorized_EN.txt	CHIMPANZEE	Zoo	2	7	[0, 0, 0]	n/a	catFR1	1	R1674A
896.172	0.801	915043	WORD_OFF	n/a	n/a	CHIMPANZEE	Zoo	2	7	[0, 0, 0]	n/a	catFR1	1	R1674A
896.973	1.607	915844	WORD	n/a	wordpools/wordpool_categorized_EN.txt	STAPLER	OfficeSupplies	3	7	[0, 0, 0]	n/a	catFR1	1	R1674A
898.58	0.842	917456	WORD_OFF	n/a	n/a	STAPLER	OfficeSupplies	3	7	[0, 0, 0]	n/a	catFR1	1	R1674A
899.422	1.609	918295	WORD	n/a	wordpools/wordpool_categorized_EN.txt	GLUE	OfficeSupplies	4	7	[0, 0, 0]	n/a	catFR1	1	R1674A
901.031	0.782	919907	WORD_OFF	n/a	n/a	GLUE	OfficeSupplies	4	7	[0, 0, 0]	n/a	catFR1	1	R1674A
901.813	1.6	920689	WORD	n/a	wordpools/wordpool_categorized_EN.txt	KNEE	BodyParts	5	7	[0, 0, 0]	n/a	catFR1	1	R1674A
903.413	0.883	922282	WORD_OFF	n/a	n/a	KNEE	BodyParts	5	7	[0, 0, 0]	n/a	catFR1	1	R1674A
904.296	1.601	923169	WORD	n/a	wordpools/wordpool_categorized_EN.txt	EAR	BodyParts	6	7	[0, 0, 0]	n/a	catFR1	1	R1674A
905.897	0.859	924772	WORD_OFF	n/a	n/a	EAR	BodyParts	6	7	[0, 0, 0]	n/a	catFR1	1	R1674A
906.756	1.608	925630	WORD	n/a	wordpools/wordpool_categorized_EN.txt	PAPER	OfficeSupplies	7	7	[0, 0, 0]	n/a	catFR1	1	R1674A
908.364	0.857	927242	WORD_OFF	n/a	n/a	PAPER	OfficeSupplies	7	7	[0, 0, 0]	n/a	catFR1	1	R1674A
909.221	1.601	928091	WORD	n/a	wordpools/wordpool_categorized_EN.txt	PENCIL	OfficeSupplies	8	7	[0, 0, 0]	n/a	catFR1	1	R1674A
910.822	0.759	929694	WORD_OFF	n/a	n/a	PENCIL	OfficeSupplies	8	7	[0, 0, 0]	n/a	catFR1	1	R1674A
911.581	1.606	930457	WORD	n/a	wordpools/wordpool_categorized_EN.txt	ORANGUTAN	Zoo	9	7	[0, 0, 0]	n/a	catFR1	1	R1674A
913.187	1.002	932059	WORD_OFF	n/a	n/a	ORANGUTAN	Zoo	9	7	[0, 0, 0]	n/a	catFR1	1	R1674A
914.189	1.608	933061	WORD	n/a	wordpools/wordpool_categorized_EN.txt	GORILLA	Zoo	10	7	[0, 0, 0]	n/a	catFR1	1	R1674A
915.797	0.825	934673	WORD_OFF	n/a	n/a	GORILLA	Zoo	10	7	[0, 0, 0]	n/a	catFR1	1	R1674A
916.622	1.602	935493	WORD	n/a	wordpools/wordpool_categorized_EN.txt	EYE	BodyParts	11	7	[0, 0, 0]	n/a	catFR1	1	R1674A
918.224	0.94	937096	WORD_OFF	n/a	n/a	EYE	BodyParts	11	7	[0, 0, 0]	n/a	catFR1	1	R1674A
919.164	1.599	938040	WORD	n/a	wordpools/wordpool_categorized_EN.txt	HEAD	BodyParts	12	7	[0, 0, 0]	n/a	catFR1	1	R1674A
920.763	0.005	939630	PROB	3.324	n/a	n/a	n/a	-999	7	[6, 3, 8]	17.0	catFR1	1	R1674A
920.768	0.0	939635	START	n/a	n/a	n/a	n/a	-999	7	[-999, -999, -999]	n/a	catFR1	1	R1674A
920.764	0.003	939642	WORD_OFF	n/a	n/a	HEAD	BodyParts	12	7	[0, 0, 0]	n/a	catFR1	1	R1674A
920.767	0.001	939642	ENCODING_END	n/a	n/a	n/a	n/a	-999	7	[0, 0, 0]	n/a	catFR1	1	R1674A
920.768	3.329	939642	DISTRACT_START	n/a	n/a	n/a	n/a	-999	7	[0, 0, 0]	n/a	catFR1	1	R1674A
924.097	2.508	942964	PROB	2.499	n/a	n/a	n/a	-999	7	[5, 8, 2]	15.0	catFR1	1	R1674A
926.605	2.618	945472	PROB	2.608	n/a	n/a	n/a	-999	7	[8, 5, 5]	18.0	catFR1	1	R1674A
929.223	4.116	948090	PROB	4.108	n/a	n/a	n/a	-999	7	[5, 6, 2]	13.0	catFR1	1	R1674A
933.339	2.282	952206	PROB	2.275	n/a	n/a	n/a	-999	7	[1, 4, 1]	6.0	catFR1	1	R1674A
935.621	3.144	954488	PROB	3.133	n/a	n/a	n/a	-999	7	[6, 1, 4]	11.0	catFR1	1	R1674A
938.765	2.332	957632	PROB	2.324	n/a	n/a	n/a	-999	7	[3, 1, 2]	6.0	catFR1	1	R1674A
941.097	0.0	959964	STOP	n/a	n/a	n/a	n/a	-999	7	[-999, -999, -999]	n/a	catFR1	1	R1674A
941.097	2.034	959969	DISTRACT_END	n/a	n/a	n/a	n/a	-999	7	[0, 0, 0]	n/a	catFR1	1	R1674A
943.131	0.126	962000	REC_START	n/a	n/a	n/a	n/a	-999	7	[0, 0, 0]	n/a	catFR1	1	R1674A
943.257	0.931	962124	REC_WORD	0.126	n/a	ELEPHANT	Zoo	1	7	[0, 0, 0]	n/a	catFR1	1	R1674A
944.188	2.199	963055	REC_WORD	1.057	n/a	CHIMPANZEE	Zoo	2	7	[0, 0, 0]	n/a	catFR1	1	R1674A
946.387	3.415	965254	REC_WORD	3.256	n/a	GLUE	OfficeSupplies	4	7	[0, 0, 0]	n/a	catFR1	1	R1674A
949.802	2.68	968669	REC_WORD_VV	6.671	n/a	<>	n/a	-999	7	[0, 0, 0]	n/a	catFR1	1	R1674A
952.482	0.511	971349	REC_WORD_VV	9.351	n/a	<>	n/a	-999	7	[0, 0, 0]	n/a	catFR1	1	R1674A
952.993	0.221	971860	REC_WORD_VV	9.862	n/a	<>	n/a	-999	7	[0, 0, 0]	n/a	catFR1	1	R1674A
953.214	1.649	972081	REC_WORD	10.083	n/a	ORANGUTAN	Zoo	9	7	[0, 0, 0]	n/a	catFR1	1	R1674A
954.863	0.907	973730	REC_WORD	11.732	n/a	KNEE	BodyParts	5	7	[0, 0, 0]	n/a	catFR1	1	R1674A
955.77	1.143	974637	REC_WORD	12.639	n/a	EYE	BodyParts	11	7	[0, 0, 0]	n/a	catFR1	1	R1674A
956.913	16.353	975780	REC_WORD	13.782	n/a	HEAD	BodyParts	12	7	[0, 0, 0]	n/a	catFR1	1	R1674A
973.266	2.132	992142	REC_END	n/a	n/a	n/a	n/a	-999	7	[0, 0, 0]	n/a	catFR1	1	R1674A
975.398	10.34	994269	COUNTDOWN_START	n/a	n/a	n/a	n/a	-999	8	[0, 0, 0]	n/a	catFR1	1	R1674A
985.738	0.0	1004609	COUNTDOWN_END	n/a	n/a	n/a	n/a	-999	8	[0, 0, 0]	n/a	catFR1	1	R1674A
985.738	2.018	1004609	ENCODING_START	n/a	n/a	n/a	n/a	-999	8	[0, 0, 0]	n/a	catFR1	1	R1674A
987.756	1.599	1006631	WORD	n/a	wordpools/wordpool_categorized_EN.txt	WOOL	Fabric	1	8	[0, 0, 0]	n/a	catFR1	1	R1674A
989.355	0.774	1008233	WORD_OFF	n/a	n/a	WOOL	Fabric	1	8	[0, 0, 0]	n/a	catFR1	1	R1674A
990.129	1.601	1009006	WORD	n/a	wordpools/wordpool_categorized_EN.txt	LEATHER	Fabric	2	8	[0, 0, 0]	n/a	catFR1	1	R1674A
991.73	0.999	1010608	WORD_OFF	n/a	n/a	LEATHER	Fabric	2	8	[0, 0, 0]	n/a	catFR1	1	R1674A
992.729	1.6	1011600	WORD	n/a	wordpools/wordpool_categorized_EN.txt	HAND	BodyParts	3	8	[0, 0, 0]	n/a	catFR1	1	R1674A
994.329	0.768	1013203	WORD_OFF	n/a	n/a	HAND	BodyParts	3	8	[0, 0, 0]	n/a	catFR1	1	R1674A
995.097	1.6	1013976	WORD	n/a	wordpools/wordpool_categorized_EN.txt	FOOT	BodyParts	4	8	[0, 0, 0]	n/a	catFR1	1	R1674A
996.697	0.84	1015568	WORD_OFF	n/a	n/a	FOOT	BodyParts	4	8	[0, 0, 0]	n/a	catFR1	1	R1674A
997.537	1.601	1016408	WORD	n/a	wordpools/wordpool_categorized_EN.txt	VIOLET	Flowers	5	8	[0, 0, 0]	n/a	catFR1	1	R1674A
999.138	0.809	1018010	WORD_OFF	n/a	n/a	VIOLET	Flowers	5	8	[0, 0, 0]	n/a	catFR1	1	R1674A
999.947	1.599	1018821	WORD	n/a	wordpools/wordpool_categorized_EN.txt	LILAC	Flowers	6	8	[0, 0, 0]	n/a	catFR1	1	R1674A
1001.546	1.001	1020424	WORD_OFF	n/a	n/a	LILAC	Flowers	6	8	[0, 0, 0]	n/a	catFR1	1	R1674A
1002.547	1.608	1021425	WORD	n/a	wordpools/wordpool_categorized_EN.txt	LEG	BodyParts	7	8	[0, 0, 0]	n/a	catFR1	1	R1674A
1004.155	0.957	1023027	WORD_OFF	n/a	n/a	LEG	BodyParts	7	8	[0, 0, 0]	n/a	catFR1	1	R1674A
1005.112	1.602	1023981	WORD	n/a	wordpools/wordpool_categorized_EN.txt	ARM	BodyParts	8	8	[0, 0, 0]	n/a	catFR1	1	R1674A
1006.714	0.84	1025593	WORD_OFF	n/a	n/a	ARM	BodyParts	8	8	[0, 0, 0]	n/a	catFR1	1	R1674A
1007.554	1.609	1026423	WORD	n/a	wordpools/wordpool_categorized_EN.txt	PETUNIA	Flowers	9	8	[0, 0, 0]	n/a	catFR1	1	R1674A
1009.163	0.884	1028035	WORD_OFF	n/a	n/a	PETUNIA	Flowers	9	8	[0, 0, 0]	n/a	catFR1	1	R1674A
1010.047	1.607	1028922	WORD	n/a	wordpools/wordpool_categorized_EN.txt	MARIGOLD	Flowers	10	8	[0, 0, 0]	n/a	catFR1	1	R1674A
1011.654	0.944	1030525	WORD_OFF	n/a	n/a	MARIGOLD	Flowers	10	8	[0, 0, 0]	n/a	catFR1	1	R1674A
1012.598	1.606	1031469	WORD	n/a	wordpools/wordpool_categorized_EN.txt	SUEDE	Fabric	11	8	[0, 0, 0]	n/a	catFR1	1	R1674A
1014.204	0.918	1033081	WORD_OFF	n/a	n/a	SUEDE	Fabric	11	8	[0, 0, 0]	n/a	catFR1	1	R1674A
1015.122	1.609	1033997	WORD	n/a	wordpools/wordpool_categorized_EN.txt	FLEECE	Fabric	12	8	[0, 0, 0]	n/a	catFR1	1	R1674A
1016.731	0.004	1035598	PROB	3.815	n/a	n/a	n/a	-999	8	[1, 3, 8]	12.0	catFR1	1	R1674A
1016.735	0.0	1035602	START	n/a	n/a	n/a	n/a	-999	8	[-999, -999, -999]	n/a	catFR1	1	R1674A
1016.731	0.004	1035609	WORD_OFF	n/a	n/a	FLEECE	Fabric	12	8	[0, 0, 0]	n/a	catFR1	1	R1674A
1016.735	0.0	1035609	ENCODING_END	n/a	n/a	n/a	n/a	-999	8	[0, 0, 0]	n/a	catFR1	1	R1674A
1016.735	3.821	1035609	DISTRACT_START	n/a	n/a	n/a	n/a	-999	8	[0, 0, 0]	n/a	catFR1	1	R1674A
1020.556	6.415	1039423	PROB	6.408	n/a	n/a	n/a	-999	8	[7, 6, 5]	18.0	catFR1	1	R1674A
1026.971	3.526	1045838	PROB	3.516	n/a	n/a	n/a	-999	8	[4, 3, 7]	14.0	catFR1	1	R1674A
1030.497	4.033	1049364	PROB	4.024	n/a	n/a	n/a	-999	8	[5, 1, 3]	9.0	catFR1	1	R1674A
1034.53	3.958	1053397	PROB	3.949	n/a	n/a	n/a	-999	8	[4, 1, 5]	10.0	catFR1	1	R1674A
1038.488	0.0	1057355	STOP	n/a	n/a	n/a	n/a	-999	8	[-999, -999, -999]	n/a	catFR1	1	R1674A
1038.488	2.276	1057356	DISTRACT_END	n/a	n/a	n/a	n/a	-999	8	[0, 0, 0]	n/a	catFR1	1	R1674A
1040.764	0.587	1059636	REC_START	n/a	n/a	n/a	n/a	-999	8	[0, 0, 0]	n/a	catFR1	1	R1674A
1041.351	2.827	1060218	REC_WORD	0.587	n/a	SUEDE	Fabric	11	8	[0, 0, 0]	n/a	catFR1	1	R1674A
1044.178	2.33	1063045	REC_WORD	3.414	n/a	MARIGOLD	Flowers	10	8	[0, 0, 0]	n/a	catFR1	1	R1674A
1046.508	3.182	1065375	REC_WORD	5.744	n/a	PETUNIA	Flowers	9	8	[0, 0, 0]	n/a	catFR1	1	R1674A
1049.69	1.439	1068557	REC_WORD_VV	8.926	n/a	<>	n/a	-999	8	[0, 0, 0]	n/a	catFR1	1	R1674A
1051.129	7.64	1069996	REC_WORD	10.365	n/a	LILAC	Flowers	6	8	[0, 0, 0]	n/a	catFR1	1	R1674A
1058.769	7.516	1077636	REC_WORD_VV	18.005	n/a	<>	n/a	-999	8	[0, 0, 0]	n/a	catFR1	1	R1674A
1066.285	4.615	1085152	REC_WORD	25.521	n/a	WOOL	Fabric	1	8	[0, 0, 0]	n/a	catFR1	1	R1674A
1070.9	2.689	1089768	REC_END	n/a	n/a	n/a	n/a	-999	8	[0, 0, 0]	n/a	catFR1	1	R1674A
1073.589	10.341	1092467	COUNTDOWN_START	n/a	n/a	n/a	n/a	-999	9	[0, 0, 0]	n/a	catFR1	1	R1674A
1083.93	0.0	1102807	COUNTDOWN_END	n/a	n/a	n/a	n/a	-999	9	[0, 0, 0]	n/a	catFR1	1	R1674A
1083.93	2.209	1102807	ENCODING_START	n/a	n/a	n/a	n/a	-999	9	[0, 0, 0]	n/a	catFR1	1	R1674A
1086.139	1.6	1105011	WORD	n/a	wordpools/wordpool_categorized_EN.txt	PLANKTON	OceanAnimals	1	9	[0, 0, 0]	n/a	catFR1	1	R1674A
1087.739	0.85	1106613	WORD_OFF	n/a	n/a	PLANKTON	OceanAnimals	1	9	[0, 0, 0]	n/a	catFR1	1	R1674A
1088.589	1.609	1107462	WORD	n/a	wordpools/wordpool_categorized_EN.txt	SHRIMP	OceanAnimals	2	9	[0, 0, 0]	n/a	catFR1	1	R1674A
1090.198	0.881	1109074	WORD_OFF	n/a	n/a	SHRIMP	OceanAnimals	2	9	[0, 0, 0]	n/a	catFR1	1	R1674A
1091.079	1.602	1109951	WORD	n/a	wordpools/wordpool_categorized_EN.txt	TIGER	Zoo	3	9	[0, 0, 0]	n/a	catFR1	1	R1674A
1092.681	0.758	1111554	WORD_OFF	n/a	n/a	TIGER	Zoo	3	9	[0, 0, 0]	n/a	catFR1	1	R1674A
1093.439	1.609	1112307	WORD	n/a	wordpools/wordpool_categorized_EN.txt	GIRAFFE	Zoo	4	9	[0, 0, 0]	n/a	catFR1	1	R1674A
1095.048	0.982	1113919	WORD_OFF	n/a	n/a	GIRAFFE	Zoo	4	9	[0, 0, 0]	n/a	catFR1	1	R1674A
1096.03	1.601	1114902	WORD	n/a	wordpools/wordpool_categorized_EN.txt	SUNFLOWER	Flowers	5	9	[0, 0, 0]	n/a	catFR1	1	R1674A
1097.631	0.998	1116504	WORD_OFF	n/a	n/a	SUNFLOWER	Flowers	5	9	[0, 0, 0]	n/a	catFR1	1	R1674A
1098.629	1.601	1117506	WORD	n/a	wordpools/wordpool_categorized_EN.txt	ORCHID	Flowers	6	9	[0, 0, 0]	n/a	catFR1	1	R1674A
1100.23	0.901	1119099	WORD_OFF	n/a	n/a	ORCHID	Flowers	6	9	[0, 0, 0]	n/a	catFR1	1	R1674A
1101.131	1.608	1120005	WORD	n/a	wordpools/wordpool_categorized_EN.txt	BEAR	Zoo	7	9	[0, 0, 0]	n/a	catFR1	1	R1674A
1102.739	0.815	1121607	WORD_OFF	n/a	n/a	BEAR	Zoo	7	9	[0, 0, 0]	n/a	catFR1	1	R1674A
1103.554	1.602	1122428	WORD	n/a	wordpools/wordpool_categorized_EN.txt	PANDA	Zoo	8	9	[0, 0, 0]	n/a	catFR1	1	R1674A
1105.156	0.983	1124030	WORD_OFF	n/a	n/a	PANDA	Zoo	8	9	[0, 0, 0]	n/a	catFR1	1	R1674A
1106.139	1.6	1125013	WORD	n/a	wordpools/wordpool_categorized_EN.txt	DAFFODIL	Flowers	9	9	[0, 0, 0]	n/a	catFR1	1	R1674A
1107.739	0.867	1126615	WORD_OFF	n/a	n/a	DAFFODIL	Flowers	9	9	[0, 0, 0]	n/a	catFR1	1	R1674A
1108.606	1.6	1127483	WORD	n/a	wordpools/wordpool_categorized_EN.txt	LILY	Flowers	10	9	[0, 0, 0]	n/a	catFR1	1	R1674A
1110.206	0.757	1129076	WORD_OFF	n/a	n/a	LILY	Flowers	10	9	[0, 0, 0]	n/a	catFR1	1	R1674A
1110.963	1.6	1129839	WORD	n/a	wordpools/wordpool_categorized_EN.txt	DOLPHIN	OceanAnimals	11	9	[0, 0, 0]	n/a	catFR1	1	R1674A
1112.563	0.875	1131432	WORD_OFF	n/a	n/a	DOLPHIN	OceanAnimals	11	9	[0, 0, 0]	n/a	catFR1	1	R1674A
1113.438	1.609	1132310	WORD	n/a	wordpools/wordpool_categorized_EN.txt	JELLYFISH	OceanAnimals	12	9	[0, 0, 0]	n/a	catFR1	1	R1674A
1115.047	0.005	1133913	PROB	2.524	n/a	n/a	n/a	-999	9	[2, 1, 2]	5.0	catFR1	1	R1674A
1115.052	0.0	1133918	START	n/a	n/a	n/a	n/a	-999	9	[-999, -999, -999]	n/a	catFR1	1	R1674A
1115.047	0.004	1133922	WORD_OFF	n/a	n/a	JELLYFISH	OceanAnimals	12	9	[0, 0, 0]	n/a	catFR1	1	R1674A
1115.051	0.001	1133922	ENCODING_END	n/a	n/a	n/a	n/a	-999	9	[0, 0, 0]	n/a	catFR1	1	R1674A
1115.052	2.528	1133922	DISTRACT_START	n/a	n/a	n/a	n/a	-999	9	[0, 0, 0]	n/a	catFR1	1	R1674A
1117.58	4.825	1136446	PROB	4.816	n/a	n/a	n/a	-999	9	[3, 7, 7]	17.0	catFR1	1	R1674A
1122.405	3.11	1141271	PROB	3.099	n/a	n/a	n/a	-999	9	[7, 6, 3]	16.0	catFR1	1	R1674A
1125.515	7.99	1144381	PROB	7.983	n/a	n/a	n/a	-999	9	[7, 8, 6]	24.0	catFR1	1	R1674A
1133.505	4.074	1152371	PROB	4.066	n/a	n/a	n/a	-999	9	[8, 3, 1]	12.0	catFR1	1	R1674A
1137.579	0.0	1156445	STOP	n/a	n/a	n/a	n/a	-999	9	[-999, -999, -999]	n/a	catFR1	1	R1674A
1137.579	2.333	1156451	DISTRACT_END	n/a	n/a	n/a	n/a	-999	9	[0, 0, 0]	n/a	catFR1	1	R1674A
1139.912	0.766	1158788	REC_START	n/a	n/a	n/a	n/a	-999	9	[0, 0, 0]	n/a	catFR1	1	R1674A
1140.678	2.066	1159544	REC_WORD	0.766	n/a	PLANKTON	OceanAnimals	1	9	[0, 0, 0]	n/a	catFR1	1	R1674A
1142.744	0.909	1161610	REC_WORD	2.832	n/a	TIGER	Zoo	3	9	[0, 0, 0]	n/a	catFR1	1	R1674A
1143.653	2.624	1162519	REC_WORD	3.741	n/a	SHRIMP	OceanAnimals	2	9	[0, 0, 0]	n/a	catFR1	1	R1674A
1146.277	6.387	1165143	REC_WORD_VV	6.365	n/a	<>	n/a	-999	9	[0, 0, 0]	n/a	catFR1	1	R1674A
1152.664	6.43	1171530	REC_WORD	12.752	n/a	DAFFODIL	Flowers	9	9	[0, 0, 0]	n/a	catFR1	1	R1674A
1159.094	10.951	1177960	REC_WORD	19.182	n/a	LILY	Flowers	10	9	[0, 0, 0]	n/a	catFR1	1	R1674A
1170.045	2.717	1188920	REC_END	n/a	n/a	n/a	n/a	-999	9	[0, 0, 0]	n/a	catFR1	1	R1674A
1172.762	10.334	1191639	COUNTDOWN_START	n/a	n/a	n/a	n/a	-999	10	[0, 0, 0]	n/a	catFR1	1	R1674A
1183.096	0.0	1201969	COUNTDOWN_END	n/a	n/a	n/a	n/a	-999	10	[0, 0, 0]	n/a	catFR1	1	R1674A
1183.096	2.025	1201978	ENCODING_START	n/a	n/a	n/a	n/a	-999	10	[0, 0, 0]	n/a	catFR1	1	R1674A
1185.121	1.611	1203991	WORD	n/a	wordpools/wordpool_categorized_EN.txt	SPEAKER	Electronics	1	10	[0, 0, 0]	n/a	catFR1	1	R1674A
1186.732	0.932	1205603	WORD_OFF	n/a	n/a	SPEAKER	Electronics	1	10	[0, 0, 0]	n/a	catFR1	1	R1674A
1187.664	1.61	1206538	WORD	n/a	wordpools/wordpool_categorized_EN.txt	SCANNER	Electronics	2	10	[0, 0, 0]	n/a	catFR1	1	R1674A
1189.274	0.763	1208150	WORD_OFF	n/a	n/a	SCANNER	Electronics	2	10	[0, 0, 0]	n/a	catFR1	1	R1674A
1190.037	1.602	1208913	WORD	n/a	wordpools/wordpool_categorized_EN.txt	TURTLE	OceanAnimals	3	10	[0, 0, 0]	n/a	catFR1	1	R1674A
1191.639	0.783	1210515	WORD_OFF	n/a	n/a	TURTLE	OceanAnimals	3	10	[0, 0, 0]	n/a	catFR1	1	R1674A
1192.422	1.609	1211298	WORD	n/a	wordpools/wordpool_categorized_EN.txt	SQUID	OceanAnimals	4	10	[0, 0, 0]	n/a	catFR1	1	R1674A
1194.031	0.848	1212900	WORD_OFF	n/a	n/a	SQUID	OceanAnimals	4	10	[0, 0, 0]	n/a	catFR1	1	R1674A
1194.879	1.602	1213749	WORD	n/a	wordpools/wordpool_categorized_EN.txt	OCEAN	Landscapes	5	10	[0, 0, 0]	n/a	catFR1	1	R1674A
1196.481	0.758	1215351	WORD_OFF	n/a	n/a	OCEAN	Landscapes	5	10	[0, 0, 0]	n/a	catFR1	1	R1674A
1197.239	1.607	1216114	WORD	n/a	wordpools/wordpool_categorized_EN.txt	HILLS	Landscapes	6	10	[0, 0, 0]	n/a	catFR1	1	R1674A
1198.846	0.793	1217717	WORD_OFF	n/a	n/a	HILLS	Landscapes	6	10	[0, 0, 0]	n/a	catFR1	1	R1674A
1199.639	1.6	1218509	WORD	n/a	wordpools/wordpool_categorized_EN.txt	OYSTER	OceanAnimals	7	10	[0, 0, 0]	n/a	catFR1	1	R1674A
1201.239	0.915	1220111	WORD_OFF	n/a	n/a	OYSTER	OceanAnimals	7	10	[0, 0, 0]	n/a	catFR1	1	R1674A
1202.154	1.601	1221027	WORD	n/a	wordpools/wordpool_categorized_EN.txt	OCTOPUS	OceanAnimals	8	10	[0, 0, 0]	n/a	catFR1	1	R1674A
1203.755	0.793	1222629	WORD_OFF	n/a	n/a	OCTOPUS	OceanAnimals	8	10	[0, 0, 0]	n/a	catFR1	1	R1674A
1204.548	1.606	1223421	WORD	n/a	wordpools/wordpool_categorized_EN.txt	RIVER	Landscapes	9	10	[0, 0, 0]	n/a	catFR1	1	R1674A
1206.154	0.784	1225023	WORD_OFF	n/a	n/a	RIVER	Landscapes	9	10	[0, 0, 0]	n/a	catFR1	1	R1674A
1206.938	1.601	1225815	WORD	n/a	wordpools/wordpool_categorized_EN.txt	VALLEY	Landscapes	10	10	[0, 0, 0]	n/a	catFR1	1	R1674A
1208.539	0.949	1227408	WORD_OFF	n/a	n/a	VALLEY	Landscapes	10	10	[0, 0, 0]	n/a	catFR1	1	R1674A
1209.488	1.601	1228362	WORD	n/a	wordpools/wordpool_categorized_EN.txt	RADIO	Electronics	11	10	[0, 0, 0]	n/a	catFR1	1	R1674A
1211.089	0.865	1229964	WORD_OFF	n/a	n/a	RADIO	Electronics	11	10	[0, 0, 0]	n/a	catFR1	1	R1674A
1211.954	1.609	1230823	WORD	n/a	wordpools/wordpool_categorized_EN.txt	COMPUTER	Electronics	12	10	[0, 0, 0]	n/a	catFR1	1	R1674A
1213.563	0.004	1232429	PROB	4.2	n/a	n/a	n/a	-999	10	[5, 4, 8]	17.0	catFR1	1	R1674A
1213.567	0.0	1232433	START	n/a	n/a	n/a	n/a	-999	10	[-999, -999, -999]	n/a	catFR1	1	R1674A
1213.563	0.004	1232435	WORD_OFF	n/a	n/a	COMPUTER	Electronics	12	10	[0, 0, 0]	n/a	catFR1	1	R1674A
1213.567	0.0	1232435	ENCODING_END	n/a	n/a	n/a	n/a	-999	10	[0, 0, 0]	n/a	catFR1	1	R1674A
1213.567	4.205	1232444	DISTRACT_START	n/a	n/a	n/a	n/a	-999	10	[0, 0, 0]	n/a	catFR1	1	R1674A
1217.772	4.375	1236638	PROB	4.367	n/a	n/a	n/a	-999	10	[8, 4, 3]	13.0	catFR1	1	R1674A
1222.147	3.358	1241013	PROB	3.35	n/a	n/a	n/a	-999	10	[3, 5, 2]	10.0	catFR1	1	R1674A
1225.505	8.166	1244371	PROB	8.158	n/a	n/a	n/a	-999	10	[6, 7, 6]	19.0	catFR1	1	R1674A
1233.671	0.0	1252537	STOP	n/a	n/a	n/a	n/a	-999	10	[-999, -999, -999]	n/a	catFR1	1	R1674A
1233.671	2.258	1252542	DISTRACT_END	n/a	n/a	n/a	n/a	-999	10	[0, 0, 0]	n/a	catFR1	1	R1674A
1235.929	4.139	1254802	REC_START	n/a	n/a	n/a	n/a	-999	10	[0, 0, 0]	n/a	catFR1	1	R1674A
1240.068	2.58	1258934	REC_WORD	4.139	n/a	OCEAN	Landscapes	5	10	[0, 0, 0]	n/a	catFR1	1	R1674A
1242.648	4.804	1261514	REC_WORD	6.719	n/a	RIVER	Landscapes	9	10	[0, 0, 0]	n/a	catFR1	1	R1674A
1247.452	6.245	1266318	REC_WORD_VV	11.523	n/a	<>	n/a	-999	10	[0, 0, 0]	n/a	catFR1	1	R1674A
1253.697	12.375	1272563	REC_WORD_VV	17.768	n/a	<>	n/a	-999	10	[0, 0, 0]	n/a	catFR1	1	R1674A
1266.072	3.074	1284944	REC_END	n/a	n/a	n/a	n/a	-999	10	[0, 0, 0]	n/a	catFR1	1	R1674A
1269.146	10.342	1288015	COUNTDOWN_START	n/a	n/a	n/a	n/a	-999	11	[0, 0, 0]	n/a	catFR1	1	R1674A
1279.488	0.0	1298355	COUNTDOWN_END	n/a	n/a	n/a	n/a	-999	11	[0, 0, 0]	n/a	catFR1	1	R1674A
1279.488	2.134	1298365	ENCODING_START	n/a	n/a	n/a	n/a	-999	11	[0, 0, 0]	n/a	catFR1	1	R1674A
1281.622	1.608	1300492	WORD	n/a	wordpools/wordpool_categorized_EN.txt	PEACH	Fruit	1	11	[0, 0, 0]	n/a	catFR1	1	R1674A
1283.23	0.8	1302104	WORD_OFF	n/a	n/a	PEACH	Fruit	1	11	[0, 0, 0]	n/a	catFR1	1	R1674A
1284.03	1.608	1302905	WORD	n/a	wordpools/wordpool_categorized_EN.txt	PEAR	Fruit	2	11	[0, 0, 0]	n/a	catFR1	1	R1674A
1285.638	0.951	1304507	WORD_OFF	n/a	n/a	PEAR	Fruit	2	11	[0, 0, 0]	n/a	catFR1	1	R1674A
1286.589	1.606	1305461	WORD	n/a	wordpools/wordpool_categorized_EN.txt	FUDGE	Desserts	3	11	[0, 0, 0]	n/a	catFR1	1	R1674A
1288.195	0.76	1307064	WORD_OFF	n/a	n/a	FUDGE	Desserts	3	11	[0, 0, 0]	n/a	catFR1	1	R1674A
1288.955	1.608	1307827	WORD	n/a	wordpools/wordpool_categorized_EN.txt	COOKIE	Desserts	4	11	[0, 0, 0]	n/a	catFR1	1	R1674A
1290.563	0.926	1309439	WORD_OFF	n/a	n/a	COOKIE	Desserts	4	11	[0, 0, 0]	n/a	catFR1	1	R1674A
1291.489	1.6	1310364	WORD	n/a	wordpools/wordpool_categorized_EN.txt	BIRCH	Trees	5	11	[0, 0, 0]	n/a	catFR1	1	R1674A
1293.089	0.798	1311957	WORD_OFF	n/a	n/a	BIRCH	Trees	5	11	[0, 0, 0]	n/a	catFR1	1	R1674A
1293.887	1.602	1312758	WORD	n/a	wordpools/wordpool_categorized_EN.txt	EVERGREEN	Trees	6	11	[0, 0, 0]	n/a	catFR1	1	R1674A
1295.489	0.757	1314361	WORD_OFF	n/a	n/a	EVERGREEN	Trees	6	11	[0, 0, 0]	n/a	catFR1	1	R1674A
1296.246	1.601	1315114	WORD	n/a	wordpools/wordpool_categorized_EN.txt	BLUEBERRY	Fruit	7	11	[0, 0, 0]	n/a	catFR1	1	R1674A
1297.847	0.908	1316717	WORD_OFF	n/a	n/a	BLUEBERRY	Fruit	7	11	[0, 0, 0]	n/a	catFR1	1	R1674A
1298.755	1.601	1317632	WORD	n/a	wordpools/wordpool_categorized_EN.txt	ORANGE	Fruit	8	11	[0, 0, 0]	n/a	catFR1	1	R1674A
1300.356	0.958	1319225	WORD_OFF	n/a	n/a	ORANGE	Fruit	8	11	[0, 0, 0]	n/a	catFR1	1	R1674A
1301.314	1.608	1320189	WORD	n/a	wordpools/wordpool_categorized_EN.txt	WILLOW	Trees	9	11	[0, 0, 0]	n/a	catFR1	1	R1674A
1302.922	0.934	1321791	WORD_OFF	n/a	n/a	WILLOW	Trees	9	11	[0, 0, 0]	n/a	catFR1	1	R1674A
1303.856	1.6	1322726	WORD	n/a	wordpools/wordpool_categorized_EN.txt	CEDAR	Trees	10	11	[0, 0, 0]	n/a	catFR1	1	R1674A
1305.456	0.883	1324328	WORD_OFF	n/a	n/a	CEDAR	Trees	10	11	[0, 0, 0]	n/a	catFR1	1	R1674A
1306.339	1.608	1325215	WORD	n/a	wordpools/wordpool_categorized_EN.txt	COBBLER	Desserts	11	11	[0, 0, 0]	n/a	catFR1	1	R1674A
1307.947	0.791	1326818	WORD_OFF	n/a	n/a	COBBLER	Desserts	11	11	[0, 0, 0]	n/a	catFR1	1	R1674A
1308.738	1.602	1327609	WORD	n/a	wordpools/wordpool_categorized_EN.txt	BROWNIES	Desserts	12	11	[0, 0, 0]	n/a	catFR1	1	R1674A
1310.34	0.002	1329206	PROB	3.433	n/a	n/a	n/a	-999	11	[8, 3, 6]	17.0	catFR1	1	R1674A
1310.342	0.0	1329208	START	n/a	n/a	n/a	n/a	-999	11	[-999, -999, -999]	n/a	catFR1	1	R1674A
1310.339	0.003	1329212	WORD_OFF	n/a	n/a	BROWNIES	Desserts	12	11	[0, 0, 0]	n/a	catFR1	1	R1674A
1310.342	0.0	1329212	ENCODING_END	n/a	n/a	n/a	n/a	-999	11	[0, 0, 0]	n/a	catFR1	1	R1674A
1310.342	3.439	1329212	DISTRACT_START	n/a	n/a	n/a	n/a	-999	11	[0, 0, 0]	n/a	catFR1	1	R1674A
1313.781	2.925	1332647	PROB	2.916	n/a	n/a	n/a	-999	11	[8, 8, 1]	17.0	catFR1	1	R1674A
1316.706	3.691	1335572	PROB	3.682	n/a	n/a	n/a	-999	11	[4, 4, 2]	10.0	catFR1	1	R1674A
1320.397	3.999	1339263	PROB	3.991	n/a	n/a	n/a	-999	11	[1, 5, 4]	10.0	catFR1	1	R1674A
1324.396	2.844	1343261	PROB	2.833	n/a	n/a	n/a	-999	11	[8, 6, 4]	18.0	catFR1	1	R1674A
1327.24	3.048	1346105	PROB	3.041	n/a	n/a	n/a	-999	11	[8, 2, 8]	18.0	catFR1	1	R1674A
1330.288	3.659	1349153	PROB	3.65	n/a	n/a	n/a	-999	11	[3, 8, 6]	17.0	catFR1	1	R1674A
1333.947	0.0	1352812	STOP	n/a	n/a	n/a	n/a	-999	11	[-999, -999, -999]	n/a	catFR1	1	R1674A
1333.947	2.1	1352820	DISTRACT_END	n/a	n/a	n/a	n/a	-999	11	[0, 0, 0]	n/a	catFR1	1	R1674A
1336.047	0.852	1354918	REC_START	n/a	n/a	n/a	n/a	-999	11	[0, 0, 0]	n/a	catFR1	1	R1674A
1336.899	1.106	1355764	REC_WORD	0.852	n/a	BIRCH	Trees	5	11	[0, 0, 0]	n/a	catFR1	1	R1674A
1338.005	2.35	1356870	REC_WORD	1.958	n/a	BROWNIES	Desserts	12	11	[0, 0, 0]	n/a	catFR1	1	R1674A
1340.355	25.834	1359220	REC_WORD	4.308	n/a	COBBLER	Desserts	11	11	[0, 0, 0]	n/a	catFR1	1	R1674A
1366.189	2.984	1385060	REC_END	n/a	n/a	n/a	n/a	-999	11	[0, 0, 0]	n/a	catFR1	1	R1674A
1369.173	10.342	1388045	COUNTDOWN_START	n/a	n/a	n/a	n/a	-999	12	[0, 0, 0]	n/a	catFR1	1	R1674A
1379.515	0.0	1398385	COUNTDOWN_END	n/a	n/a	n/a	n/a	-999	12	[0, 0, 0]	n/a	catFR1	1	R1674A
1379.515	2.299	1398385	ENCODING_START	n/a	n/a	n/a	n/a	-999	12	[0, 0, 0]	n/a	catFR1	1	R1674A
1381.814	1.608	1400684	WORD	n/a	wordpools/wordpool_categorized_EN.txt	NOSE	BodyParts	1	12	[0, 0, 0]	n/a	catFR1	1	R1674A
1383.422	0.975	1402296	WORD_OFF	n/a	n/a	NOSE	BodyParts	1	12	[0, 0, 0]	n/a	catFR1	1	R1674A
1384.397	1.608	1403268	WORD	n/a	wordpools/wordpool_categorized_EN.txt	FINGERS	BodyParts	2	12	[0, 0, 0]	n/a	catFR1	1	R1674A
1386.005	0.974	1404880	WORD_OFF	n/a	n/a	FINGERS	BodyParts	2	12	[0, 0, 0]	n/a	catFR1	1	R1674A
1386.979	1.601	1405853	WORD	n/a	wordpools/wordpool_categorized_EN.txt	WALNUT	Trees	3	12	[0, 0, 0]	n/a	catFR1	1	R1674A
1388.58	0.868	1407456	WORD_OFF	n/a	n/a	WALNUT	Trees	3	12	[0, 0, 0]	n/a	catFR1	1	R1674A
1389.448	1.607	1408324	WORD	n/a	wordpools/wordpool_categorized_EN.txt	HICKORY	Trees	4	12	[0, 0, 0]	n/a	catFR1	1	R1674A
1391.055	0.991	1409926	WORD_OFF	n/a	n/a	HICKORY	Trees	4	12	[0, 0, 0]	n/a	catFR1	1	R1674A
1392.046	1.601	1410918	WORD	n/a	wordpools/wordpool_categorized_EN.txt	TAPE	OfficeSupplies	5	12	[0, 0, 0]	n/a	catFR1	1	R1674A
1393.647	0.951	1412521	WORD_OFF	n/a	n/a	TAPE	OfficeSupplies	5	12	[0, 0, 0]	n/a	catFR1	1	R1674A
1394.598	1.608	1413475	WORD	n/a	wordpools/wordpool_categorized_EN.txt	ERASER	OfficeSupplies	6	12	[0, 0, 0]	n/a	catFR1	1	R1674A
1396.206	0.833	1415077	WORD_OFF	n/a	n/a	ERASER	OfficeSupplies	6	12	[0, 0, 0]	n/a	catFR1	1	R1674A
1397.039	1.608	1415907	WORD	n/a	wordpools/wordpool_categorized_EN.txt	TOE	BodyParts	7	12	[0, 0, 0]	n/a	catFR1	1	R1674A
1398.647	0.784	1417519	WORD_OFF	n/a	n/a	TOE	BodyParts	7	12	[0, 0, 0]	n/a	catFR1	1	R1674A
1399.431	1.608	1418301	WORD	n/a	wordpools/wordpool_categorized_EN.txt	ELBOW	BodyParts	8	12	[0, 0, 0]	n/a	catFR1	1	R1674A
1401.039	0.891	1419913	WORD_OFF	n/a	n/a	ELBOW	BodyParts	8	12	[0, 0, 0]	n/a	catFR1	1	R1674A
1401.93	1.609	1420800	WORD	n/a	wordpools/wordpool_categorized_EN.txt	MARKER	OfficeSupplies	9	12	[0, 0, 0]	n/a	catFR1	1	R1674A
1403.539	0.791	1422412	WORD_OFF	n/a	n/a	MARKER	OfficeSupplies	9	12	[0, 0, 0]	n/a	catFR1	1	R1674A
1404.33	1.609	1423204	WORD	n/a	wordpools/wordpool_categorized_EN.txt	NOTEBOOK	OfficeSupplies	10	12	[0, 0, 0]	n/a	catFR1	1	R1674A
1405.939	0.983	1424806	WORD_OFF	n/a	n/a	NOTEBOOK	OfficeSupplies	10	12	[0, 0, 0]	n/a	catFR1	1	R1674A
1406.922	1.608	1425798	WORD	n/a	wordpools/wordpool_categorized_EN.txt	CYPRESS	Trees	11	12	[0, 0, 0]	n/a	catFR1	1	R1674A
1408.53	0.918	1427401	WORD_OFF	n/a	n/a	CYPRESS	Trees	11	12	[0, 0, 0]	n/a	catFR1	1	R1674A
1409.448	1.608	1428316	WORD	n/a	wordpools/wordpool_categorized_EN.txt	MAPLE	Trees	12	12	[0, 0, 0]	n/a	catFR1	1	R1674A
1411.056	0.003	1429921	PROB	3.207	n/a	n/a	n/a	-999	12	[7, 2, 2]	11.0	catFR1	1	R1674A
1411.059	0.0	1429924	START	n/a	n/a	n/a	n/a	-999	12	[-999, -999, -999]	n/a	catFR1	1	R1674A
1411.056	0.003	1429928	WORD_OFF	n/a	n/a	MAPLE	Trees	12	12	[0, 0, 0]	n/a	catFR1	1	R1674A
1411.059	0.0	1429928	ENCODING_END	n/a	n/a	n/a	n/a	-999	12	[0, 0, 0]	n/a	catFR1	1	R1674A
1411.059	3.214	1429928	DISTRACT_START	n/a	n/a	n/a	n/a	-999	12	[0, 0, 0]	n/a	catFR1	1	R1674A
1414.273	2.924	1433138	PROB	2.916	n/a	n/a	n/a	-999	12	[5, 2, 3]	10.0	catFR1	1	R1674A
1417.197	3.026	1436062	PROB	3.016	n/a	n/a	n/a	-999	12	[8, 4, 5]	17.0	catFR1	1	R1674A
1420.223	2.448	1439088	PROB	2.441	n/a	n/a	n/a	-999	12	[8, 5, 5]	18.0	catFR1	1	R1674A
1422.671	5.435	1441536	PROB	5.425	n/a	n/a	n/a	-999	12	[8, 6, 1]	15.0	catFR1	1	R1674A
1428.106	4.433	1446971	PROB	4.423	n/a	n/a	n/a	-999	12	[1, 6, 8]	15.0	catFR1	1	R1674A
1432.539	0.0	1451404	STOP	n/a	n/a	n/a	n/a	-999	12	[-999, -999, -999]	n/a	catFR1	1	R1674A
1432.539	2.341	1451409	DISTRACT_END	n/a	n/a	n/a	n/a	-999	12	[0, 0, 0]	n/a	catFR1	1	R1674A
1434.88	0.651	1453756	REC_START	n/a	n/a	n/a	n/a	-999	12	[0, 0, 0]	n/a	catFR1	1	R1674A
1435.531	2.714	1454396	REC_WORD	0.651	n/a	CYPRESS	Trees	11	12	[0, 0, 0]	n/a	catFR1	1	R1674A
1438.245	6.755	1457110	REC_WORD_VV	3.365	n/a	<>	n/a	-999	12	[0, 0, 0]	n/a	catFR1	1	R1674A
1445.0	0.423	1463865	REC_WORD_VV	10.12	n/a	<>	n/a	-999	12	[0, 0, 0]	n/a	catFR1	1	R1674A
1445.423	0.577	1464288	REC_WORD	10.543	n/a	MAPLE	Trees	12	12	[0, 0, 0]	n/a	catFR1	1	R1674A
1446.0	0.607	1464865	REC_WORD_VV	11.12	n/a	<>	n/a	-999	12	[0, 0, 0]	n/a	catFR1	1	R1674A
1446.607	0.743	1465472	REC_WORD_VV	11.727	n/a	<>	n/a	-999	12	[0, 0, 0]	n/a	catFR1	1	R1674A
1447.35	1.895	1466215	REC_WORD_VV	12.47	n/a	<>	n/a	-999	12	[0, 0, 0]	n/a	catFR1	1	R1674A
1449.245	15.778	1468110	REC_WORD_VV	14.365	n/a	<>	n/a	-999	12	[0, 0, 0]	n/a	catFR1	1	R1674A
1465.023	0.0	1483897	REC_END	n/a	n/a	n/a	n/a	-999	12	[0, 0, 0]	n/a	catFR1	1	R1674A
