onset	duration	sample	trial_type	response_time	stim_file	item_name	category	serialpos	list	test	answer	experiment	session	subject
0.0	100.265	1962	SESS_START	n/a	n/a	n/a	n/a	-999	-999	[0, 0, 0]	n/a	catFR1	2	R1180C
100.265	10.428	52090	COUNTDOWN_START	n/a	n/a	n/a	n/a	-999	-999	[0, 0, 0]	n/a	catFR1	2	R1180C
110.693	3.89	57304	COUNTDOWN_END	n/a	n/a	n/a	n/a	-999	-999	[0, 0, 0]	n/a	catFR1	2	R1180C
114.583	2.485	59249	PRACTICE_WORD	n/a	n/a	CAMEL	n/a	-999	-999	[0, 0, 0]	n/a	catFR1	2	R1180C
117.068	2.466	60491	PRACTICE_WORD	n/a	n/a	CHEST	n/a	-999	-999	[0, 0, 0]	n/a	catFR1	2	R1180C
119.534	2.618	61724	PRACTICE_WORD	n/a	n/a	COTTON	n/a	-999	-999	[0, 0, 0]	n/a	catFR1	2	R1180C
122.152	2.616	63033	PRACTICE_WORD	n/a	n/a	WAGON	n/a	-999	-999	[0, 0, 0]	n/a	catFR1	2	R1180C
124.768	2.468	64341	PRACTICE_WORD	n/a	n/a	WATCH	n/a	-999	-999	[0, 0, 0]	n/a	catFR1	2	R1180C
127.236	2.567	65574	PRACTICE_WORD	n/a	n/a	RHINO	n/a	-999	-999	[0, 0, 0]	n/a	catFR1	2	R1180C
129.803	2.634	66858	PRACTICE_WORD	n/a	n/a	ATTIC	n/a	-999	-999	[0, 0, 0]	n/a	catFR1	2	R1180C
132.437	2.433	68175	PRACTICE_WORD	n/a	n/a	BEAM	n/a	-999	-999	[0, 0, 0]	n/a	catFR1	2	R1180C
134.87	2.452	69391	PRACTICE_WORD	n/a	n/a	IRON	n/a	-999	-999	[0, 0, 0]	n/a	catFR1	2	R1180C
137.322	2.499	70617	PRACTICE_WORD	n/a	n/a	RING	n/a	-999	-999	[0, 0, 0]	n/a	catFR1	2	R1180C
139.821	2.502	71866	PRACTICE_WORD	n/a	n/a	TONGUE	n/a	-999	-999	[0, 0, 0]	n/a	catFR1	2	R1180C
142.323	1.616	73117	PRACTICE_WORD	n/a	n/a	FLOOD	n/a	-999	-999	[0, 0, 0]	n/a	catFR1	2	R1180C
143.939	0.0	73925	PRACTICE_DISTRACT_START	n/a	n/a	n/a	n/a	-999	-999	[0, 0, 0]	n/a	catFR1	2	R1180C
143.939	0.016	73925	START	n/a	n/a	n/a	n/a	-999	-1	[-999, -999, -999]	n/a	catFR1	2	R1180C
143.955	5.801	73933	PROB	5.778	n/a	n/a	n/a	-999	-1	[1, 3, 9]	13.0	catFR1	2	R1180C
149.756	3.234	76833	PROB	3.201	n/a	n/a	n/a	-999	-1	[4, 6, 3]	13.0	catFR1	2	R1180C
152.99	3.668	78450	PROB	3.647	n/a	n/a	n/a	-999	-1	[6, 1, 9]	16.0	catFR1	2	R1180C
156.658	3.067	80284	PROB	3.044	n/a	n/a	n/a	-999	-1	[2, 9, 9]	20.0	catFR1	2	R1180C
159.725	3.585	81818	PROB	3.554	n/a	n/a	n/a	-999	-1	[4, 6, 1]	11.0	catFR1	2	R1180C
163.31	4.352	83610	PROB	4.352	n/a	n/a	n/a	-999	-1	[5, 6, 7]	18.0	catFR1	2	R1180C
167.662	0.015	85786	STOP	n/a	n/a	n/a	n/a	-999	-1	[-999, -999, -999]	n/a	catFR1	2	R1180C
167.677	0.67	85793	PRACTICE_DISTRACT_END	n/a	n/a	n/a	n/a	-999	-999	[0, 0, 0]	n/a	catFR1	2	R1180C
168.347	30.513	86128	PRACTICE_REC_START	n/a	n/a	n/a	n/a	-999	-999	[0, 0, 0]	n/a	catFR1	2	R1180C
198.86	11.157	101383	PRACTICE_REC_END	n/a	n/a	n/a	n/a	-999	-999	[0, 0, 0]	n/a	catFR1	2	R1180C
210.017	0.001	106961	COUNTDOWN_START	n/a	n/a	n/a	n/a	-999	1	[0, 0, 0]	n/a	catFR1	2	R1180C
210.018	10.427	106962	TRIAL	n/a	n/a	n/a	n/a	-999	1	[0, 0, 0]	n/a	catFR1	2	R1180C
220.445	0.008	112175	COUNTDOWN_END	n/a	n/a	n/a	n/a	-999	1	[0, 0, 0]	n/a	catFR1	2	R1180C
220.453	3.601	112179	ORIENT	n/a	n/a	n/a	n/a	-999	1	[0, 0, 0]	n/a	catFR1	2	R1180C
224.054	2.383	113979	WORD	n/a	wordpools/wordpool_categorized_EN.txt	TOASTER	Appliances	1	1	[0, 0, 0]	n/a	catFR1	2	R1180C
226.437	2.534	115171	WORD	n/a	wordpools/wordpool_categorized_EN.txt	IRON	Appliances	2	1	[0, 0, 0]	n/a	catFR1	2	R1180C
228.971	2.451	116437	WORD	n/a	wordpools/wordpool_categorized_EN.txt	PINE	Trees	3	1	[0, 0, 0]	n/a	catFR1	2	R1180C
231.422	2.484	117663	WORD	n/a	wordpools/wordpool_categorized_EN.txt	BIRCH	Trees	4	1	[0, 0, 0]	n/a	catFR1	2	R1180C
233.906	2.45	118905	WORD	n/a	wordpools/wordpool_categorized_EN.txt	PANDA	Zoo	5	1	[0, 0, 0]	n/a	catFR1	2	R1180C
236.356	2.384	120130	WORD	n/a	wordpools/wordpool_categorized_EN.txt	ELEPHANT	Zoo	6	1	[0, 0, 0]	n/a	catFR1	2	R1180C
238.74	2.385	121322	WORD	n/a	wordpools/wordpool_categorized_EN.txt	MAPLE	Trees	7	1	[0, 0, 0]	n/a	catFR1	2	R1180C
241.125	2.399	122514	WORD	n/a	wordpools/wordpool_categorized_EN.txt	WALNUT	Trees	8	1	[0, 0, 0]	n/a	catFR1	2	R1180C
243.524	2.484	123713	WORD	n/a	wordpools/wordpool_categorized_EN.txt	STOVE	Appliances	9	1	[0, 0, 0]	n/a	catFR1	2	R1180C
246.008	2.467	124955	WORD	n/a	wordpools/wordpool_categorized_EN.txt	DRYER	Appliances	10	1	[0, 0, 0]	n/a	catFR1	2	R1180C
248.475	2.434	126189	WORD	n/a	wordpools/wordpool_categorized_EN.txt	MONKEY	Zoo	11	1	[0, 0, 0]	n/a	catFR1	2	R1180C
250.909	1.617	127405	WORD	n/a	wordpools/wordpool_categorized_EN.txt	TIGER	Zoo	12	1	[0, 0, 0]	n/a	catFR1	2	R1180C
252.526	0.001	128214	DISTRACT_START	n/a	n/a	n/a	n/a	-999	1	[0, 0, 0]	n/a	catFR1	2	R1180C
252.527	0.015	128214	START	n/a	n/a	n/a	n/a	-999	1	[-999, -999, -999]	n/a	catFR1	2	R1180C
252.542	3.084	128222	PROB	3.064	n/a	n/a	n/a	-999	1	[1, 3, 6]	10.0	catFR1	2	R1180C
255.626	4.134	129764	PROB	4.099	n/a	n/a	n/a	-999	1	[5, 3, 6]	14.0	catFR1	2	R1180C
259.76	4.251	131831	PROB	4.229	n/a	n/a	n/a	-999	1	[6, 8, 1]	15.0	catFR1	2	R1180C
264.011	5.052	133956	PROB	5.018	n/a	n/a	n/a	-999	1	[3, 7, 2]	12.0	catFR1	2	R1180C
269.063	7.558	136482	PROB	7.558	n/a	n/a	n/a	-999	1	[6, 7, 5]	18.0	catFR1	2	R1180C
276.621	0.009	140260	STOP	n/a	n/a	n/a	n/a	-999	1	[-999, -999, -999]	n/a	catFR1	2	R1180C
276.63	1.202	140265	DISTRACT_END	n/a	n/a	n/a	n/a	-999	1	[0, 0, 0]	n/a	catFR1	2	R1180C
277.832	1.517	140866	REC_START	n/a	n/a	n/a	n/a	-999	1	[0, 0, 0]	n/a	catFR1	2	R1180C
279.349	0.989	141624	REC_WORD	1.517	n/a	PANDA	Zoo	5	1	[0, 0, 0]	n/a	catFR1	2	R1180C
280.338	1.12	142119	REC_WORD	2.506	n/a	MAPLE	Trees	7	1	[0, 0, 0]	n/a	catFR1	2	R1180C
281.458	3.688	142679	REC_WORD	3.626	n/a	WALNUT	Trees	8	1	[0, 0, 0]	n/a	catFR1	2	R1180C
285.146	22.696	144522	REC_WORD	7.314	n/a	BIRCH	Trees	4	1	[0, 0, 0]	n/a	catFR1	2	R1180C
307.842	2.312	155869	REC_END	n/a	n/a	n/a	n/a	-999	1	[0, 0, 0]	n/a	catFR1	2	R1180C
310.154	0.0	157025	TRIAL	n/a	n/a	n/a	n/a	-999	2	[0, 0, 0]	n/a	catFR1	2	R1180C
310.154	10.428	157025	COUNTDOWN_START	n/a	n/a	n/a	n/a	-999	2	[0, 0, 0]	n/a	catFR1	2	R1180C
320.582	0.006	162239	COUNTDOWN_END	n/a	n/a	n/a	n/a	-999	2	[0, 0, 0]	n/a	catFR1	2	R1180C
320.588	3.935	162242	ORIENT	n/a	n/a	n/a	n/a	-999	2	[0, 0, 0]	n/a	catFR1	2	R1180C
324.523	2.568	164209	WORD	n/a	wordpools/wordpool_categorized_EN.txt	ELBOW	BodyParts	1	2	[0, 0, 0]	n/a	catFR1	2	R1180C
327.091	2.616	165493	WORD	n/a	wordpools/wordpool_categorized_EN.txt	FINGERS	BodyParts	2	2	[0, 0, 0]	n/a	catFR1	2	R1180C
329.707	2.468	166801	WORD	n/a	wordpools/wordpool_categorized_EN.txt	BLOUSE	Clothing	3	2	[0, 0, 0]	n/a	catFR1	2	R1180C
332.175	2.399	168035	WORD	n/a	wordpools/wordpool_categorized_EN.txt	SKIRT	Clothing	4	2	[0, 0, 0]	n/a	catFR1	2	R1180C
334.574	2.552	169234	WORD	n/a	wordpools/wordpool_categorized_EN.txt	PLANE	Vehicles	5	2	[0, 0, 0]	n/a	catFR1	2	R1180C
337.126	2.499	170510	WORD	n/a	wordpools/wordpool_categorized_EN.txt	JEEP	Vehicles	6	2	[0, 0, 0]	n/a	catFR1	2	R1180C
339.625	2.519	171760	WORD	n/a	wordpools/wordpool_categorized_EN.txt	DRESS	Clothing	7	2	[0, 0, 0]	n/a	catFR1	2	R1180C
342.144	2.516	173019	WORD	n/a	wordpools/wordpool_categorized_EN.txt	SHOES	Clothing	8	2	[0, 0, 0]	n/a	catFR1	2	R1180C
344.66	2.551	174277	WORD	n/a	wordpools/wordpool_categorized_EN.txt	TOE	BodyParts	9	2	[0, 0, 0]	n/a	catFR1	2	R1180C
347.211	2.483	175552	WORD	n/a	wordpools/wordpool_categorized_EN.txt	HEAD	BodyParts	10	2	[0, 0, 0]	n/a	catFR1	2	R1180C
349.694	2.368	176794	WORD	n/a	wordpools/wordpool_categorized_EN.txt	TRUCK	Vehicles	11	2	[0, 0, 0]	n/a	catFR1	2	R1180C
352.062	1.616	177978	WORD	n/a	wordpools/wordpool_categorized_EN.txt	MOPED	Vehicles	12	2	[0, 0, 0]	n/a	catFR1	2	R1180C
353.678	0.001	178785	DISTRACT_START	n/a	n/a	n/a	n/a	-999	2	[0, 0, 0]	n/a	catFR1	2	R1180C
353.679	0.016	178786	START	n/a	n/a	n/a	n/a	-999	2	[-999, -999, -999]	n/a	catFR1	2	R1180C
353.695	4.618	178794	PROB	4.591	n/a	n/a	n/a	-999	2	[1, 2, 4]	7.0	catFR1	2	R1180C
358.313	3.216	181103	PROB	3.197	n/a	n/a	n/a	-999	2	[4, 2, 4]	10.0	catFR1	2	R1180C
361.529	3.384	182711	PROB	3.349	n/a	n/a	n/a	-999	2	[1, 7, 2]	10.0	catFR1	2	R1180C
364.913	4.618	184402	PROB	4.597	n/a	n/a	n/a	-999	2	[5, 8, 3]	16.0	catFR1	2	R1180C
369.531	6.074	186711	PROB	6.074	n/a	n/a	n/a	-999	2	[7, 3, 4]	14.0	catFR1	2	R1180C
375.605	0.01	189748	STOP	n/a	n/a	n/a	n/a	-999	2	[-999, -999, -999]	n/a	catFR1	2	R1180C
375.615	1.152	189753	DISTRACT_END	n/a	n/a	n/a	n/a	-999	2	[0, 0, 0]	n/a	catFR1	2	R1180C
376.767	3.085	190329	REC_START	n/a	n/a	n/a	n/a	-999	2	[0, 0, 0]	n/a	catFR1	2	R1180C
379.852	0.887	191871	REC_WORD	3.085	n/a	KNEE	n/a	-999	2	[0, 0, 0]	n/a	catFR1	2	R1180C
380.739	1.135	192315	REC_WORD	3.972	n/a	HEAD	BodyParts	10	2	[0, 0, 0]	n/a	catFR1	2	R1180C
381.874	4.758	192882	REC_WORD	5.107	n/a	BLOUSE	Clothing	3	2	[0, 0, 0]	n/a	catFR1	2	R1180C
386.632	20.146	195261	REC_WORD	9.865	n/a	TOE	BodyParts	9	2	[0, 0, 0]	n/a	catFR1	2	R1180C
406.778	4.861	205333	REC_END	n/a	n/a	n/a	n/a	-999	2	[0, 0, 0]	n/a	catFR1	2	R1180C
411.639	0.0	207763	TRIAL	n/a	n/a	n/a	n/a	-999	3	[0, 0, 0]	n/a	catFR1	2	R1180C
411.639	10.428	207763	COUNTDOWN_START	n/a	n/a	n/a	n/a	-999	3	[0, 0, 0]	n/a	catFR1	2	R1180C
422.067	0.008	212977	COUNTDOWN_END	n/a	n/a	n/a	n/a	-999	3	[0, 0, 0]	n/a	catFR1	2	R1180C
422.075	3.6	212981	ORIENT	n/a	n/a	n/a	n/a	-999	3	[0, 0, 0]	n/a	catFR1	2	R1180C
425.675	2.435	214781	WORD	n/a	wordpools/wordpool_categorized_EN.txt	DESK	Furniture	1	3	[0, 0, 0]	n/a	catFR1	2	R1180C
428.11	2.516	215998	WORD	n/a	wordpools/wordpool_categorized_EN.txt	DRESSER	Furniture	2	3	[0, 0, 0]	n/a	catFR1	2	R1180C
430.626	2.518	217256	WORD	n/a	wordpools/wordpool_categorized_EN.txt	FOREST	Landscapes	3	3	[0, 0, 0]	n/a	catFR1	2	R1180C
433.144	2.599	218515	WORD	n/a	wordpools/wordpool_categorized_EN.txt	OCEAN	Landscapes	4	3	[0, 0, 0]	n/a	catFR1	2	R1180C
435.743	2.602	219814	WORD	n/a	wordpools/wordpool_categorized_EN.txt	CORKSCREW	KitchenTools	5	3	[0, 0, 0]	n/a	catFR1	2	R1180C
438.345	2.516	221115	WORD	n/a	wordpools/wordpool_categorized_EN.txt	TONGS	KitchenTools	6	3	[0, 0, 0]	n/a	catFR1	2	R1180C
440.861	2.6	222373	WORD	n/a	wordpools/wordpool_categorized_EN.txt	COUCH	Furniture	7	3	[0, 0, 0]	n/a	catFR1	2	R1180C
443.461	2.384	223673	WORD	n/a	wordpools/wordpool_categorized_EN.txt	BED	Furniture	8	3	[0, 0, 0]	n/a	catFR1	2	R1180C
445.845	2.584	224865	WORD	n/a	wordpools/wordpool_categorized_EN.txt	GRATER	KitchenTools	9	3	[0, 0, 0]	n/a	catFR1	2	R1180C
448.429	2.584	226157	WORD	n/a	wordpools/wordpool_categorized_EN.txt	WHISK	KitchenTools	10	3	[0, 0, 0]	n/a	catFR1	2	R1180C
451.013	2.484	227449	WORD	n/a	wordpools/wordpool_categorized_EN.txt	CREEK	Landscapes	11	3	[0, 0, 0]	n/a	catFR1	2	R1180C
453.497	1.601	228691	WORD	n/a	wordpools/wordpool_categorized_EN.txt	VALLEY	Landscapes	12	3	[0, 0, 0]	n/a	catFR1	2	R1180C
455.098	0.001	229491	DISTRACT_START	n/a	n/a	n/a	n/a	-999	3	[0, 0, 0]	n/a	catFR1	2	R1180C
455.099	0.016	229491	START	n/a	n/a	n/a	n/a	-999	3	[-999, -999, -999]	n/a	catFR1	2	R1180C
455.115	5.45	229499	PROB	5.418	n/a	n/a	n/a	-999	3	[9, 7, 3]	19.0	catFR1	2	R1180C
460.565	4.067	232224	PROB	4.041	n/a	n/a	n/a	-999	3	[6, 4, 1]	11.0	catFR1	2	R1180C
464.632	5.268	234258	PROB	5.237	n/a	n/a	n/a	-999	3	[2, 4, 3]	9.0	catFR1	2	R1180C
469.9	2.7	236891	PROB	2.674	n/a	n/a	n/a	-999	3	[8, 4, 4]	16.0	catFR1	2	R1180C
472.6	5.766	238241	PROB	5.766	n/a	n/a	n/a	-999	3	[5, 6, 7]	18.0	catFR1	2	R1180C
478.366	0.019	241124	STOP	n/a	n/a	n/a	n/a	-999	3	[-999, -999, -999]	n/a	catFR1	2	R1180C
478.385	1.184	241133	DISTRACT_END	n/a	n/a	n/a	n/a	-999	3	[0, 0, 0]	n/a	catFR1	2	R1180C
479.569	3.661	241725	REC_START	n/a	n/a	n/a	n/a	-999	3	[0, 0, 0]	n/a	catFR1	2	R1180C
483.23	3.505	243556	REC_WORD	3.661	n/a	BED	Furniture	8	3	[0, 0, 0]	n/a	catFR1	2	R1180C
486.735	22.845	245308	REC_WORD	7.166	n/a	DRESSER	Furniture	2	3	[0, 0, 0]	n/a	catFR1	2	R1180C
509.58	4.395	256730	REC_END	n/a	n/a	n/a	n/a	-999	3	[0, 0, 0]	n/a	catFR1	2	R1180C
513.975	0.0	258927	TRIAL	n/a	n/a	n/a	n/a	-999	4	[0, 0, 0]	n/a	catFR1	2	R1180C
513.975	10.428	258927	COUNTDOWN_START	n/a	n/a	n/a	n/a	-999	4	[0, 0, 0]	n/a	catFR1	2	R1180C
524.403	0.007	264140	COUNTDOWN_END	n/a	n/a	n/a	n/a	-999	4	[0, 0, 0]	n/a	catFR1	2	R1180C
524.41	3.818	264144	ORIENT	n/a	n/a	n/a	n/a	-999	4	[0, 0, 0]	n/a	catFR1	2	R1180C
528.228	2.4	266053	WORD	n/a	wordpools/wordpool_categorized_EN.txt	BLUEBERRY	Fruit	1	4	[0, 0, 0]	n/a	catFR1	2	R1180C
530.628	2.417	267253	WORD	n/a	wordpools/wordpool_categorized_EN.txt	CHERRY	Fruit	2	4	[0, 0, 0]	n/a	catFR1	2	R1180C
533.045	2.5	268461	WORD	n/a	wordpools/wordpool_categorized_EN.txt	SPIDER	Insects	3	4	[0, 0, 0]	n/a	catFR1	2	R1180C
535.545	2.585	269711	WORD	n/a	wordpools/wordpool_categorized_EN.txt	FLY	Insects	4	4	[0, 0, 0]	n/a	catFR1	2	R1180C
538.13	2.6	271003	WORD	n/a	wordpools/wordpool_categorized_EN.txt	WOODS	Landscapes	5	4	[0, 0, 0]	n/a	catFR1	2	R1180C
540.73	2.385	272303	WORD	n/a	wordpools/wordpool_categorized_EN.txt	RIVER	Landscapes	6	4	[0, 0, 0]	n/a	catFR1	2	R1180C
543.115	2.582	273496	WORD	n/a	wordpools/wordpool_categorized_EN.txt	PEAR	Fruit	7	4	[0, 0, 0]	n/a	catFR1	2	R1180C
545.697	2.452	274786	WORD	n/a	wordpools/wordpool_categorized_EN.txt	PEACH	Fruit	8	4	[0, 0, 0]	n/a	catFR1	2	R1180C
548.149	2.466	276012	WORD	n/a	wordpools/wordpool_categorized_EN.txt	MOUNTAIN	Landscapes	9	4	[0, 0, 0]	n/a	catFR1	2	R1180C
550.615	2.367	277245	WORD	n/a	wordpools/wordpool_categorized_EN.txt	HILLS	Landscapes	10	4	[0, 0, 0]	n/a	catFR1	2	R1180C
552.982	2.567	278429	WORD	n/a	wordpools/wordpool_categorized_EN.txt	BEETLE	Insects	11	4	[0, 0, 0]	n/a	catFR1	2	R1180C
555.549	1.601	279712	WORD	n/a	wordpools/wordpool_categorized_EN.txt	MOSQUITO	Insects	12	4	[0, 0, 0]	n/a	catFR1	2	R1180C
557.15	0.002	280512	DISTRACT_START	n/a	n/a	n/a	n/a	-999	4	[0, 0, 0]	n/a	catFR1	2	R1180C
557.152	0.015	280513	START	n/a	n/a	n/a	n/a	-999	4	[-999, -999, -999]	n/a	catFR1	2	R1180C
557.167	4.367	280521	PROB	4.335	n/a	n/a	n/a	-999	4	[1, 5, 3]	9.0	catFR1	2	R1180C
561.534	3.484	282704	PROB	3.448	n/a	n/a	n/a	-999	4	[9, 8, 2]	19.0	catFR1	2	R1180C
565.018	3.085	284446	PROB	3.053	n/a	n/a	n/a	-999	4	[1, 3, 7]	11.0	catFR1	2	R1180C
568.103	3.799	285988	PROB	3.767	n/a	n/a	n/a	-999	4	[2, 4, 6]	12.0	catFR1	2	R1180C
571.902	3.951	287888	PROB	3.919	n/a	n/a	n/a	-999	4	[5, 4, 5]	14.0	catFR1	2	R1180C
575.853	6.736	289863	PROB	6.736	n/a	n/a	n/a	-999	4	[9, 3, 7]	19.0	catFR1	2	R1180C
582.589	0.015	293231	STOP	n/a	n/a	n/a	n/a	-999	4	[-999, -999, -999]	n/a	catFR1	2	R1180C
582.604	1.051	293238	DISTRACT_END	n/a	n/a	n/a	n/a	-999	4	[0, 0, 0]	n/a	catFR1	2	R1180C
583.655	2.952	293764	REC_START	n/a	n/a	n/a	n/a	-999	4	[0, 0, 0]	n/a	catFR1	2	R1180C
586.607	3.627	295240	REC_WORD	2.952	n/a	RIVER	Landscapes	6	4	[0, 0, 0]	n/a	catFR1	2	R1180C
590.234	1.015	297053	REC_WORD	6.579	n/a	MOSQUITO	Insects	12	4	[0, 0, 0]	n/a	catFR1	2	R1180C
591.249	1.668	297560	REC_WORD	7.594	n/a	FLY	Insects	4	4	[0, 0, 0]	n/a	catFR1	2	R1180C
592.917	1.044	298394	REC_WORD	9.262	n/a	PEACH	Fruit	8	4	[0, 0, 0]	n/a	catFR1	2	R1180C
593.961	8.787	298916	REC_WORD	10.306	n/a	PEAR	Fruit	7	4	[0, 0, 0]	n/a	catFR1	2	R1180C
602.748	10.923	303309	REC_WORD	19.093	n/a	CHERRY	Fruit	2	4	[0, 0, 0]	n/a	catFR1	2	R1180C
613.671	4.74	308770	REC_END	n/a	n/a	n/a	n/a	-999	4	[0, 0, 0]	n/a	catFR1	2	R1180C
618.411	0.0	311140	TRIAL	n/a	n/a	n/a	n/a	-999	5	[0, 0, 0]	n/a	catFR1	2	R1180C
618.411	10.428	311140	COUNTDOWN_START	n/a	n/a	n/a	n/a	-999	5	[0, 0, 0]	n/a	catFR1	2	R1180C
628.839	0.007	316354	COUNTDOWN_END	n/a	n/a	n/a	n/a	-999	5	[0, 0, 0]	n/a	catFR1	2	R1180C
628.846	3.601	316357	ORIENT	n/a	n/a	n/a	n/a	-999	5	[0, 0, 0]	n/a	catFR1	2	R1180C
632.447	2.434	318158	WORD	n/a	wordpools/wordpool_categorized_EN.txt	MILK	Beverages	1	5	[0, 0, 0]	n/a	catFR1	2	R1180C
634.881	2.451	319374	WORD	n/a	wordpools/wordpool_categorized_EN.txt	LEMONADE	Beverages	2	5	[0, 0, 0]	n/a	catFR1	2	R1180C
637.332	2.483	320600	WORD	n/a	wordpools/wordpool_categorized_EN.txt	EAR	BodyParts	3	5	[0, 0, 0]	n/a	catFR1	2	R1180C
639.815	2.401	321841	WORD	n/a	wordpools/wordpool_categorized_EN.txt	EYE	BodyParts	4	5	[0, 0, 0]	n/a	catFR1	2	R1180C
642.216	2.517	323042	WORD	n/a	wordpools/wordpool_categorized_EN.txt	WILLOW	Trees	5	5	[0, 0, 0]	n/a	catFR1	2	R1180C
644.733	2.584	324300	WORD	n/a	wordpools/wordpool_categorized_EN.txt	OAK	Trees	6	5	[0, 0, 0]	n/a	catFR1	2	R1180C
647.317	2.417	325592	WORD	n/a	wordpools/wordpool_categorized_EN.txt	BEER	Beverages	7	5	[0, 0, 0]	n/a	catFR1	2	R1180C
649.734	2.384	326800	WORD	n/a	wordpools/wordpool_categorized_EN.txt	TEA	Beverages	8	5	[0, 0, 0]	n/a	catFR1	2	R1180C
652.118	2.416	327992	WORD	n/a	wordpools/wordpool_categorized_EN.txt	CEDAR	Trees	9	5	[0, 0, 0]	n/a	catFR1	2	R1180C
654.534	2.368	329200	WORD	n/a	wordpools/wordpool_categorized_EN.txt	ELM	Trees	10	5	[0, 0, 0]	n/a	catFR1	2	R1180C
656.902	2.617	330384	WORD	n/a	wordpools/wordpool_categorized_EN.txt	ARM	BodyParts	11	5	[0, 0, 0]	n/a	catFR1	2	R1180C
659.519	1.618	331692	WORD	n/a	wordpools/wordpool_categorized_EN.txt	NOSE	BodyParts	12	5	[0, 0, 0]	n/a	catFR1	2	R1180C
661.137	0.001	332501	DISTRACT_START	n/a	n/a	n/a	n/a	-999	5	[0, 0, 0]	n/a	catFR1	2	R1180C
661.138	0.015	332502	START	n/a	n/a	n/a	n/a	-999	5	[-999, -999, -999]	n/a	catFR1	2	R1180C
661.153	7.234	332509	PROB	7.205	n/a	n/a	n/a	-999	5	[6, 3, 4]	13.0	catFR1	2	R1180C
668.387	7.902	336126	PROB	7.868	n/a	n/a	n/a	-999	5	[4, 9, 8]	21.0	catFR1	2	R1180C
676.289	4.4	340077	PROB	4.372	n/a	n/a	n/a	-999	5	[3, 6, 6]	15.0	catFR1	2	R1180C
680.689	2.996	342276	PROB	2.996	n/a	n/a	n/a	-999	5	[5, 2, 2]	9.0	catFR1	2	R1180C
683.685	0.005	343774	STOP	n/a	n/a	n/a	n/a	-999	5	[-999, -999, -999]	n/a	catFR1	2	R1180C
683.69	1.051	343777	DISTRACT_END	n/a	n/a	n/a	n/a	-999	5	[0, 0, 0]	n/a	catFR1	2	R1180C
684.741	2.639	344302	REC_START	n/a	n/a	n/a	n/a	-999	5	[0, 0, 0]	n/a	catFR1	2	R1180C
687.38	0.913	345622	REC_WORD	2.639	n/a	MILK	Beverages	1	5	[0, 0, 0]	n/a	catFR1	2	R1180C
688.293	0.723	346078	REC_WORD	3.552	n/a	LEMONADE	Beverages	2	5	[0, 0, 0]	n/a	catFR1	2	R1180C
689.016	1.026	346440	REC_WORD	4.275	n/a	NOSE	BodyParts	12	5	[0, 0, 0]	n/a	catFR1	2	R1180C
690.042	4.628	346953	REC_WORD	5.301	n/a	ELBOW	n/a	-999	5	[0, 0, 0]	n/a	catFR1	2	R1180C
694.67	1.714	349266	REC_WORD	9.929	n/a	CEDAR	Trees	9	5	[0, 0, 0]	n/a	catFR1	2	R1180C
696.384	1.419	350123	REC_WORD	11.643	n/a	TEA	Beverages	8	5	[0, 0, 0]	n/a	catFR1	2	R1180C
697.803	16.952	350833	REC_WORD	13.062	n/a	EAR	BodyParts	3	5	[0, 0, 0]	n/a	catFR1	2	R1180C
714.755	2.875	359308	REC_END	n/a	n/a	n/a	n/a	-999	5	[0, 0, 0]	n/a	catFR1	2	R1180C
717.63	0.0	360745	TRIAL	n/a	n/a	n/a	n/a	-999	6	[0, 0, 0]	n/a	catFR1	2	R1180C
717.63	10.428	360745	COUNTDOWN_START	n/a	n/a	n/a	n/a	-999	6	[0, 0, 0]	n/a	catFR1	2	R1180C
728.058	0.008	365959	COUNTDOWN_END	n/a	n/a	n/a	n/a	-999	6	[0, 0, 0]	n/a	catFR1	2	R1180C
728.066	3.716	365963	ORIENT	n/a	n/a	n/a	n/a	-999	6	[0, 0, 0]	n/a	catFR1	2	R1180C
731.782	2.552	367821	WORD	n/a	wordpools/wordpool_categorized_EN.txt	BEE	Insects	1	6	[0, 0, 0]	n/a	catFR1	2	R1180C
734.334	2.583	369097	WORD	n/a	wordpools/wordpool_categorized_EN.txt	CRICKET	Insects	2	6	[0, 0, 0]	n/a	catFR1	2	R1180C
736.917	2.384	370388	WORD	n/a	wordpools/wordpool_categorized_EN.txt	SHELF	Furniture	3	6	[0, 0, 0]	n/a	catFR1	2	R1180C
739.301	2.5	371580	WORD	n/a	wordpools/wordpool_categorized_EN.txt	CHAIR	Furniture	4	6	[0, 0, 0]	n/a	catFR1	2	R1180C
741.801	2.451	372830	WORD	n/a	wordpools/wordpool_categorized_EN.txt	GUITAR	Instruments	5	6	[0, 0, 0]	n/a	catFR1	2	R1180C
744.252	2.433	374055	WORD	n/a	wordpools/wordpool_categorized_EN.txt	CELLO	Instruments	6	6	[0, 0, 0]	n/a	catFR1	2	R1180C
746.685	2.535	375272	WORD	n/a	wordpools/wordpool_categorized_EN.txt	SOFA	Furniture	7	6	[0, 0, 0]	n/a	catFR1	2	R1180C
749.22	2.466	376539	WORD	n/a	wordpools/wordpool_categorized_EN.txt	BOOKCASE	Furniture	8	6	[0, 0, 0]	n/a	catFR1	2	R1180C
751.686	2.385	377772	WORD	n/a	wordpools/wordpool_categorized_EN.txt	ROACH	Insects	9	6	[0, 0, 0]	n/a	catFR1	2	R1180C
754.071	2.583	378964	WORD	n/a	wordpools/wordpool_categorized_EN.txt	ANT	Insects	10	6	[0, 0, 0]	n/a	catFR1	2	R1180C
756.654	2.584	380256	WORD	n/a	wordpools/wordpool_categorized_EN.txt	TUBA	Instruments	11	6	[0, 0, 0]	n/a	catFR1	2	R1180C
759.238	1.616	381547	WORD	n/a	wordpools/wordpool_categorized_EN.txt	FLUTE	Instruments	12	6	[0, 0, 0]	n/a	catFR1	2	R1180C
760.854	0.001	382355	DISTRACT_START	n/a	n/a	n/a	n/a	-999	6	[0, 0, 0]	n/a	catFR1	2	R1180C
760.855	0.016	382356	START	n/a	n/a	n/a	n/a	-999	6	[-999, -999, -999]	n/a	catFR1	2	R1180C
760.871	3.101	382364	PROB	3.078	n/a	n/a	n/a	-999	6	[6, 4, 2]	12.0	catFR1	2	R1180C
763.972	2.6	383914	PROB	2.57	n/a	n/a	n/a	-999	6	[1, 4, 3]	8.0	catFR1	2	R1180C
766.572	4.418	385214	PROB	4.393	n/a	n/a	n/a	-999	6	[8, 4, 1]	13.0	catFR1	2	R1180C
770.99	4.55	387423	PROB	4.527	n/a	n/a	n/a	-999	6	[7, 2, 5]	14.0	catFR1	2	R1180C
775.54	4.569	389698	PROB	4.546	n/a	n/a	n/a	-999	6	[9, 3, 3]	15.0	catFR1	2	R1180C
780.109	3.025	391982	PROB	3.025	n/a	n/a	n/a	-999	6	[1, 3, 1]	5.0	catFR1	2	R1180C
783.134	0.009	393494	STOP	n/a	n/a	n/a	n/a	-999	6	[-999, -999, -999]	n/a	catFR1	2	R1180C
783.143	1.084	393499	DISTRACT_END	n/a	n/a	n/a	n/a	-999	6	[0, 0, 0]	n/a	catFR1	2	R1180C
784.227	3.244	394041	REC_START	n/a	n/a	n/a	n/a	-999	6	[0, 0, 0]	n/a	catFR1	2	R1180C
787.471	0.814	395663	REC_WORD	3.244	n/a	BOOKCASE	Furniture	8	6	[0, 0, 0]	n/a	catFR1	2	R1180C
788.285	1.122	396070	REC_WORD	4.058	n/a	SHELF	Furniture	3	6	[0, 0, 0]	n/a	catFR1	2	R1180C
789.407	1.964	396631	REC_WORD	5.18	n/a	CHAIR	Furniture	4	6	[0, 0, 0]	n/a	catFR1	2	R1180C
791.371	1.517	397613	REC_WORD	7.144	n/a	ANT	Insects	10	6	[0, 0, 0]	n/a	catFR1	2	R1180C
792.888	21.35	398371	REC_WORD	8.661	n/a	ROACH	Insects	9	6	[0, 0, 0]	n/a	catFR1	2	R1180C
814.238	2.028	409045	REC_END	n/a	n/a	n/a	n/a	-999	6	[0, 0, 0]	n/a	catFR1	2	R1180C
816.266	0.0	410059	TRIAL	n/a	n/a	n/a	n/a	-999	7	[0, 0, 0]	n/a	catFR1	2	R1180C
816.266	10.428	410059	COUNTDOWN_START	n/a	n/a	n/a	n/a	-999	7	[0, 0, 0]	n/a	catFR1	2	R1180C
826.694	0.006	415273	COUNTDOWN_END	n/a	n/a	n/a	n/a	-999	7	[0, 0, 0]	n/a	catFR1	2	R1180C
826.7	3.635	415276	ORIENT	n/a	n/a	n/a	n/a	-999	7	[0, 0, 0]	n/a	catFR1	2	R1180C
830.335	2.466	417093	WORD	n/a	wordpools/wordpool_categorized_EN.txt	ORCHID	Flowers	1	7	[0, 0, 0]	n/a	catFR1	2	R1180C
832.801	2.468	418326	WORD	n/a	wordpools/wordpool_categorized_EN.txt	DAFFODIL	Flowers	2	7	[0, 0, 0]	n/a	catFR1	2	R1180C
835.269	2.583	419560	WORD	n/a	wordpools/wordpool_categorized_EN.txt	MARKER	OfficeSupplies	3	7	[0, 0, 0]	n/a	catFR1	2	R1180C
837.852	2.551	420851	WORD	n/a	wordpools/wordpool_categorized_EN.txt	GLUE	OfficeSupplies	4	7	[0, 0, 0]	n/a	catFR1	2	R1180C
840.403	2.4	422126	WORD	n/a	wordpools/wordpool_categorized_EN.txt	GOOSE	Birds	5	7	[0, 0, 0]	n/a	catFR1	2	R1180C
842.803	2.402	423326	WORD	n/a	wordpools/wordpool_categorized_EN.txt	CROW	Birds	6	7	[0, 0, 0]	n/a	catFR1	2	R1180C
845.205	2.482	424527	WORD	n/a	wordpools/wordpool_categorized_EN.txt	LILY	Flowers	7	7	[0, 0, 0]	n/a	catFR1	2	R1180C
847.687	2.518	425768	WORD	n/a	wordpools/wordpool_categorized_EN.txt	DAISY	Flowers	8	7	[0, 0, 0]	n/a	catFR1	2	R1180C
850.205	2.467	427027	WORD	n/a	wordpools/wordpool_categorized_EN.txt	SEAGULL	Birds	9	7	[0, 0, 0]	n/a	catFR1	2	R1180C
852.672	2.634	428260	WORD	n/a	wordpools/wordpool_categorized_EN.txt	BLUEBIRD	Birds	10	7	[0, 0, 0]	n/a	catFR1	2	R1180C
855.306	2.5	429577	WORD	n/a	wordpools/wordpool_categorized_EN.txt	PENCIL	OfficeSupplies	11	7	[0, 0, 0]	n/a	catFR1	2	R1180C
857.806	1.617	430827	WORD	n/a	wordpools/wordpool_categorized_EN.txt	NOTEBOOK	OfficeSupplies	12	7	[0, 0, 0]	n/a	catFR1	2	R1180C
859.423	0.001	431636	DISTRACT_START	n/a	n/a	n/a	n/a	-999	7	[0, 0, 0]	n/a	catFR1	2	R1180C
859.424	0.016	431636	START	n/a	n/a	n/a	n/a	-999	7	[-999, -999, -999]	n/a	catFR1	2	R1180C
859.44	4.05	431644	PROB	4.021	n/a	n/a	n/a	-999	7	[7, 2, 2]	11.0	catFR1	2	R1180C
863.49	3.218	433669	PROB	3.196	n/a	n/a	n/a	-999	7	[9, 7, 1]	17.0	catFR1	2	R1180C
866.708	3.551	435278	PROB	3.523	n/a	n/a	n/a	-999	7	[6, 2, 6]	14.0	catFR1	2	R1180C
870.259	5.45	437053	PROB	5.426	n/a	n/a	n/a	-999	7	[5, 7, 2]	14.0	catFR1	2	R1180C
875.709	3.217	439778	PROB	3.185	n/a	n/a	n/a	-999	7	[1, 8, 7]	16.0	catFR1	2	R1180C
878.926	1.983	441386	PROB	1.983	n/a	n/a	n/a	-999	7	[1, 5, 5]	11.0	catFR1	2	R1180C
880.909	0.018	442378	STOP	n/a	n/a	n/a	n/a	-999	7	[-999, -999, -999]	n/a	catFR1	2	R1180C
880.927	1.218	442387	DISTRACT_END	n/a	n/a	n/a	n/a	-999	7	[0, 0, 0]	n/a	catFR1	2	R1180C
882.145	1.647	442996	REC_START	n/a	n/a	n/a	n/a	-999	7	[0, 0, 0]	n/a	catFR1	2	R1180C
883.792	0.772	443819	REC_WORD	1.647	n/a	BLUEBIRD	Birds	10	7	[0, 0, 0]	n/a	catFR1	2	R1180C
884.564	13.368	444205	REC_WORD	2.419	n/a	SEAGULL	Birds	9	7	[0, 0, 0]	n/a	catFR1	2	R1180C
897.932	0.814	450888	REC_WORD	15.787	n/a	DAISY	Flowers	8	7	[0, 0, 0]	n/a	catFR1	2	R1180C
898.746	1.155	451295	REC_WORD	16.601	n/a	DAFFODIL	Flowers	2	7	[0, 0, 0]	n/a	catFR1	2	R1180C
899.901	0.914	451873	REC_WORD	17.756	n/a	ORCHID	Flowers	1	7	[0, 0, 0]	n/a	catFR1	2	R1180C
900.815	8.834	452330	REC_WORD	18.67	n/a	LILY	Flowers	7	7	[0, 0, 0]	n/a	catFR1	2	R1180C
909.649	2.511	456746	REC_WORD	27.504	n/a	GOOSE	Birds	5	7	[0, 0, 0]	n/a	catFR1	2	R1180C
912.16	3.024	458002	REC_END	n/a	n/a	n/a	n/a	-999	7	[0, 0, 0]	n/a	catFR1	2	R1180C
915.184	0.001	459514	COUNTDOWN_START	n/a	n/a	n/a	n/a	-999	8	[0, 0, 0]	n/a	catFR1	2	R1180C
915.185	10.427	459514	TRIAL	n/a	n/a	n/a	n/a	-999	8	[0, 0, 0]	n/a	catFR1	2	R1180C
925.612	0.007	464727	COUNTDOWN_END	n/a	n/a	n/a	n/a	-999	8	[0, 0, 0]	n/a	catFR1	2	R1180C
925.619	3.501	464731	ORIENT	n/a	n/a	n/a	n/a	-999	8	[0, 0, 0]	n/a	catFR1	2	R1180C
929.12	2.6	466481	WORD	n/a	wordpools/wordpool_categorized_EN.txt	CAKE	Desserts	1	8	[0, 0, 0]	n/a	catFR1	2	R1180C
931.72	2.551	467781	WORD	n/a	wordpools/wordpool_categorized_EN.txt	CHEESECAKE	Desserts	2	8	[0, 0, 0]	n/a	catFR1	2	R1180C
934.271	2.583	469056	WORD	n/a	wordpools/wordpool_categorized_EN.txt	GIRAFFE	Zoo	3	8	[0, 0, 0]	n/a	catFR1	2	R1180C
936.854	2.567	470348	WORD	n/a	wordpools/wordpool_categorized_EN.txt	BEAR	Zoo	4	8	[0, 0, 0]	n/a	catFR1	2	R1180C
939.421	2.384	471631	WORD	n/a	wordpools/wordpool_categorized_EN.txt	HEN	FarmAnimals	5	8	[0, 0, 0]	n/a	catFR1	2	R1180C
941.805	2.567	472823	WORD	n/a	wordpools/wordpool_categorized_EN.txt	GOAT	FarmAnimals	6	8	[0, 0, 0]	n/a	catFR1	2	R1180C
944.372	2.467	474106	WORD	n/a	wordpools/wordpool_categorized_EN.txt	ORANGUTAN	Zoo	7	8	[0, 0, 0]	n/a	catFR1	2	R1180C
946.839	2.601	475340	WORD	n/a	wordpools/wordpool_categorized_EN.txt	ZEBRA	Zoo	8	8	[0, 0, 0]	n/a	catFR1	2	R1180C
949.44	2.467	476640	WORD	n/a	wordpools/wordpool_categorized_EN.txt	FUDGE	Desserts	9	8	[0, 0, 0]	n/a	catFR1	2	R1180C
951.907	2.584	477873	WORD	n/a	wordpools/wordpool_categorized_EN.txt	CUPCAKE	Desserts	10	8	[0, 0, 0]	n/a	catFR1	2	R1180C
954.491	2.383	479165	WORD	n/a	wordpools/wordpool_categorized_EN.txt	BULL	FarmAnimals	11	8	[0, 0, 0]	n/a	catFR1	2	R1180C
956.874	1.617	480357	WORD	n/a	wordpools/wordpool_categorized_EN.txt	CHICKEN	FarmAnimals	12	8	[0, 0, 0]	n/a	catFR1	2	R1180C
958.491	0.001	481165	DISTRACT_START	n/a	n/a	n/a	n/a	-999	8	[0, 0, 0]	n/a	catFR1	2	R1180C
958.492	0.016	481166	START	n/a	n/a	n/a	n/a	-999	8	[-999, -999, -999]	n/a	catFR1	2	R1180C
958.508	2.917	481174	PROB	2.882	n/a	n/a	n/a	-999	8	[7, 1, 7]	15.0	catFR1	2	R1180C
961.425	4.468	482632	PROB	4.437	n/a	n/a	n/a	-999	8	[5, 4, 3]	12.0	catFR1	2	R1180C
965.893	3.084	484866	PROB	3.057	n/a	n/a	n/a	-999	8	[6, 6, 6]	18.0	catFR1	2	R1180C
968.977	4.984	486408	PROB	4.957	n/a	n/a	n/a	-999	8	[1, 4, 7]	12.0	catFR1	2	R1180C
973.961	6.421	488899	PROB	6.421	n/a	n/a	n/a	-999	8	[7, 6, 9]	22.0	catFR1	2	R1180C
980.382	0.014	492110	STOP	n/a	n/a	n/a	n/a	-999	8	[-999, -999, -999]	n/a	catFR1	2	R1180C
980.396	1.217	492117	DISTRACT_END	n/a	n/a	n/a	n/a	-999	8	[0, 0, 0]	n/a	catFR1	2	R1180C
981.613	19.486	492725	REC_START	n/a	n/a	n/a	n/a	-999	8	[0, 0, 0]	n/a	catFR1	2	R1180C
1001.099	0.8	502467	REC_WORD	19.486	n/a	CUPCAKE	Desserts	10	8	[0, 0, 0]	n/a	catFR1	2	R1180C
1001.899	9.726	502867	REC_WORD	20.286	n/a	CHEESECAKE	Desserts	2	8	[0, 0, 0]	n/a	catFR1	2	R1180C
1011.625	11.912	507730	REC_END	n/a	n/a	n/a	n/a	-999	8	[0, 0, 0]	n/a	catFR1	2	R1180C
1023.537	0.0	513685	TRIAL	n/a	n/a	n/a	n/a	-999	9	[0, 0, 0]	n/a	catFR1	2	R1180C
1023.537	10.428	513685	COUNTDOWN_START	n/a	n/a	n/a	n/a	-999	9	[0, 0, 0]	n/a	catFR1	2	R1180C
1033.965	0.007	518899	COUNTDOWN_END	n/a	n/a	n/a	n/a	-999	9	[0, 0, 0]	n/a	catFR1	2	R1180C
1033.972	3.551	518902	ORIENT	n/a	n/a	n/a	n/a	-999	9	[0, 0, 0]	n/a	catFR1	2	R1180C
1037.523	2.384	520678	WORD	n/a	wordpools/wordpool_categorized_EN.txt	SHRIMP	OceanAnimals	1	9	[0, 0, 0]	n/a	catFR1	2	R1180C
1039.907	2.617	521870	WORD	n/a	wordpools/wordpool_categorized_EN.txt	TURTLE	OceanAnimals	2	9	[0, 0, 0]	n/a	catFR1	2	R1180C
1042.524	2.417	523178	WORD	n/a	wordpools/wordpool_categorized_EN.txt	LIGHTNING	Weather	3	9	[0, 0, 0]	n/a	catFR1	2	R1180C
1044.941	2.55	524386	WORD	n/a	wordpools/wordpool_categorized_EN.txt	HUMIDITY	Weather	4	9	[0, 0, 0]	n/a	catFR1	2	R1180C
1047.491	2.534	525661	WORD	n/a	wordpools/wordpool_categorized_EN.txt	BASEBALL	Toys	5	9	[0, 0, 0]	n/a	catFR1	2	R1180C
1050.025	2.601	526928	WORD	n/a	wordpools/wordpool_categorized_EN.txt	BARBIE	Toys	6	9	[0, 0, 0]	n/a	catFR1	2	R1180C
1052.626	2.384	528229	WORD	n/a	wordpools/wordpool_categorized_EN.txt	RAIN	Weather	7	9	[0, 0, 0]	n/a	catFR1	2	R1180C
1055.01	2.417	529420	WORD	n/a	wordpools/wordpool_categorized_EN.txt	DRIZZLE	Weather	8	9	[0, 0, 0]	n/a	catFR1	2	R1180C
1057.427	2.583	530629	WORD	n/a	wordpools/wordpool_categorized_EN.txt	LOBSTER	OceanAnimals	9	9	[0, 0, 0]	n/a	catFR1	2	R1180C
1060.01	2.601	531920	WORD	n/a	wordpools/wordpool_categorized_EN.txt	PLANKTON	OceanAnimals	10	9	[0, 0, 0]	n/a	catFR1	2	R1180C
1062.611	2.434	533221	WORD	n/a	wordpools/wordpool_categorized_EN.txt	BALL	Toys	11	9	[0, 0, 0]	n/a	catFR1	2	R1180C
1065.045	1.617	534437	WORD	n/a	wordpools/wordpool_categorized_EN.txt	FRISBEE	Toys	12	9	[0, 0, 0]	n/a	catFR1	2	R1180C
1066.662	0.001	535246	DISTRACT_START	n/a	n/a	n/a	n/a	-999	9	[0, 0, 0]	n/a	catFR1	2	R1180C
1066.663	0.015	535246	START	n/a	n/a	n/a	n/a	-999	9	[-999, -999, -999]	n/a	catFR1	2	R1180C
1066.678	10.719	535254	PROB	10.688	n/a	n/a	n/a	-999	9	[5, 6, 8]	19.0	catFR1	2	R1180C
1077.397	6.968	540613	PROB	6.938	n/a	n/a	n/a	-999	9	[6, 1, 5]	12.0	catFR1	2	R1180C
1084.365	4.777	544097	PROB	4.777	n/a	n/a	n/a	-999	9	[4, 6, 2]	12.0	catFR1	2	R1180C
1089.142	0.008	546485	STOP	n/a	n/a	n/a	n/a	-999	9	[-999, -999, -999]	n/a	catFR1	2	R1180C
1089.15	1.184	546489	DISTRACT_END	n/a	n/a	n/a	n/a	-999	9	[0, 0, 0]	n/a	catFR1	2	R1180C
1090.334	1.765	547081	REC_START	n/a	n/a	n/a	n/a	-999	9	[0, 0, 0]	n/a	catFR1	2	R1180C
1092.099	1.502	547963	REC_WORD	1.765	n/a	PLANKTON	OceanAnimals	10	9	[0, 0, 0]	n/a	catFR1	2	R1180C
1093.601	3.045	548714	REC_WORD	3.267	n/a	BARBIE	Toys	6	9	[0, 0, 0]	n/a	catFR1	2	R1180C
1096.646	23.7	550237	REC_WORD	6.312	n/a	FRISBEE	Toys	12	9	[0, 0, 0]	n/a	catFR1	2	R1180C
1120.346	2.56	562086	REC_END	n/a	n/a	n/a	n/a	-999	9	[0, 0, 0]	n/a	catFR1	2	R1180C
1122.906	0.0	563365	TRIAL	n/a	n/a	n/a	n/a	-999	10	[0, 0, 0]	n/a	catFR1	2	R1180C
1122.906	10.428	563365	COUNTDOWN_START	n/a	n/a	n/a	n/a	-999	10	[0, 0, 0]	n/a	catFR1	2	R1180C
1133.334	0.008	568579	COUNTDOWN_END	n/a	n/a	n/a	n/a	-999	10	[0, 0, 0]	n/a	catFR1	2	R1180C
1133.342	3.633	568583	ORIENT	n/a	n/a	n/a	n/a	-999	10	[0, 0, 0]	n/a	catFR1	2	R1180C
1136.975	2.584	570399	WORD	n/a	wordpools/wordpool_categorized_EN.txt	GORILLA	Zoo	1	10	[0, 0, 0]	n/a	catFR1	2	R1180C
1139.559	2.4	571691	WORD	n/a	wordpools/wordpool_categorized_EN.txt	LION	Zoo	2	10	[0, 0, 0]	n/a	catFR1	2	R1180C
1141.959	2.567	572891	WORD	n/a	wordpools/wordpool_categorized_EN.txt	SUNFLOWER	Flowers	3	10	[0, 0, 0]	n/a	catFR1	2	R1180C
1144.526	2.535	574174	WORD	n/a	wordpools/wordpool_categorized_EN.txt	VIOLET	Flowers	4	10	[0, 0, 0]	n/a	catFR1	2	R1180C
1147.061	2.383	575442	WORD	n/a	wordpools/wordpool_categorized_EN.txt	BEACH	Landscapes	5	10	[0, 0, 0]	n/a	catFR1	2	R1180C
1149.444	2.4	576633	WORD	n/a	wordpools/wordpool_categorized_EN.txt	STREAM	Landscapes	6	10	[0, 0, 0]	n/a	catFR1	2	R1180C
1151.844	2.469	577833	WORD	n/a	wordpools/wordpool_categorized_EN.txt	CARNATION	Flowers	7	10	[0, 0, 0]	n/a	catFR1	2	R1180C
1154.313	2.499	579068	WORD	n/a	wordpools/wordpool_categorized_EN.txt	PETUNIA	Flowers	8	10	[0, 0, 0]	n/a	catFR1	2	R1180C
1156.812	2.385	580317	WORD	n/a	wordpools/wordpool_categorized_EN.txt	CHEETAH	Zoo	9	10	[0, 0, 0]	n/a	catFR1	2	R1180C
1159.197	2.566	581509	WORD	n/a	wordpools/wordpool_categorized_EN.txt	CHIMPANZEE	Zoo	10	10	[0, 0, 0]	n/a	catFR1	2	R1180C
1161.763	2.6	582792	WORD	n/a	wordpools/wordpool_categorized_EN.txt	ISLAND	Landscapes	11	10	[0, 0, 0]	n/a	catFR1	2	R1180C
1164.363	1.617	584092	WORD	n/a	wordpools/wordpool_categorized_EN.txt	LAKE	Landscapes	12	10	[0, 0, 0]	n/a	catFR1	2	R1180C
1165.98	0.001	584900	DISTRACT_START	n/a	n/a	n/a	n/a	-999	10	[0, 0, 0]	n/a	catFR1	2	R1180C
1165.981	0.016	584901	START	n/a	n/a	n/a	n/a	-999	10	[-999, -999, -999]	n/a	catFR1	2	R1180C
1165.997	4.634	584909	PROB	4.6	n/a	n/a	n/a	-999	10	[5, 7, 1]	13.0	catFR1	2	R1180C
1170.631	7.302	587226	PROB	7.278	n/a	n/a	n/a	-999	10	[4, 8, 5]	17.0	catFR1	2	R1180C
1177.933	3.734	590876	PROB	3.705	n/a	n/a	n/a	-999	10	[9, 2, 7]	18.0	catFR1	2	R1180C
1181.667	9.516	592743	PROB	9.516	n/a	n/a	n/a	-999	10	[5, 4, 7]	16.0	catFR1	2	R1180C
1191.183	0.003	597501	STOP	n/a	n/a	n/a	n/a	-999	10	[-999, -999, -999]	n/a	catFR1	2	R1180C
1191.186	1.035	597502	DISTRACT_END	n/a	n/a	n/a	n/a	-999	10	[0, 0, 0]	n/a	catFR1	2	R1180C
1192.221	1.134	598020	REC_START	n/a	n/a	n/a	n/a	-999	10	[0, 0, 0]	n/a	catFR1	2	R1180C
1193.355	1.424	598587	REC_WORD	1.134	n/a	GORILLA	Zoo	1	10	[0, 0, 0]	n/a	catFR1	2	R1180C
1194.779	2.342	599299	REC_WORD	2.558	n/a	SUNFLOWER	Flowers	3	10	[0, 0, 0]	n/a	catFR1	2	R1180C
1197.121	1.826	600470	REC_WORD	4.9	n/a	LION	Zoo	2	10	[0, 0, 0]	n/a	catFR1	2	R1180C
1198.947	6.651	601383	REC_WORD	6.726	n/a	TIGER	n/a	-999	10	[0, 0, 0]	n/a	catFR1	2	R1180C
1205.598	16.634	604708	REC_WORD	13.377	n/a	STREAM	Landscapes	6	10	[0, 0, 0]	n/a	catFR1	2	R1180C
1222.232	2.027	613024	REC_END	n/a	n/a	n/a	n/a	-999	10	[0, 0, 0]	n/a	catFR1	2	R1180C
1224.259	0.0	614037	TRIAL	n/a	n/a	n/a	n/a	-999	11	[0, 0, 0]	n/a	catFR1	2	R1180C
1224.259	10.428	614037	COUNTDOWN_START	n/a	n/a	n/a	n/a	-999	11	[0, 0, 0]	n/a	catFR1	2	R1180C
1234.687	0.006	619251	COUNTDOWN_END	n/a	n/a	n/a	n/a	-999	11	[0, 0, 0]	n/a	catFR1	2	R1180C
1234.693	3.419	619254	ORIENT	n/a	n/a	n/a	n/a	-999	11	[0, 0, 0]	n/a	catFR1	2	R1180C
1238.112	2.616	620963	WORD	n/a	wordpools/wordpool_categorized_EN.txt	JELLO	Desserts	1	11	[0, 0, 0]	n/a	catFR1	2	R1180C
1240.728	2.468	622271	WORD	n/a	wordpools/wordpool_categorized_EN.txt	PUDDING	Desserts	2	11	[0, 0, 0]	n/a	catFR1	2	R1180C
1243.196	2.549	623505	WORD	n/a	wordpools/wordpool_categorized_EN.txt	LADLE	KitchenTools	3	11	[0, 0, 0]	n/a	catFR1	2	R1180C
1245.745	2.385	624779	WORD	n/a	wordpools/wordpool_categorized_EN.txt	SPATULA	KitchenTools	4	11	[0, 0, 0]	n/a	catFR1	2	R1180C
1248.13	2.533	625972	WORD	n/a	wordpools/wordpool_categorized_EN.txt	ERASER	OfficeSupplies	5	11	[0, 0, 0]	n/a	catFR1	2	R1180C
1250.663	2.451	627238	WORD	n/a	wordpools/wordpool_categorized_EN.txt	PEN	OfficeSupplies	6	11	[0, 0, 0]	n/a	catFR1	2	R1180C
1253.114	2.516	628464	WORD	n/a	wordpools/wordpool_categorized_EN.txt	COOKIE	Desserts	7	11	[0, 0, 0]	n/a	catFR1	2	R1180C
1255.63	2.367	629722	WORD	n/a	wordpools/wordpool_categorized_EN.txt	COBBLER	Desserts	8	11	[0, 0, 0]	n/a	catFR1	2	R1180C
1257.997	2.451	630905	WORD	n/a	wordpools/wordpool_categorized_EN.txt	RULER	OfficeSupplies	9	11	[0, 0, 0]	n/a	catFR1	2	R1180C
1260.448	2.601	632130	WORD	n/a	wordpools/wordpool_categorized_EN.txt	BINDER	OfficeSupplies	10	11	[0, 0, 0]	n/a	catFR1	2	R1180C
1263.049	2.583	633431	WORD	n/a	wordpools/wordpool_categorized_EN.txt	FORK	KitchenTools	11	11	[0, 0, 0]	n/a	catFR1	2	R1180C
1265.632	1.601	634722	WORD	n/a	wordpools/wordpool_categorized_EN.txt	KNIFE	KitchenTools	12	11	[0, 0, 0]	n/a	catFR1	2	R1180C
1267.233	0.002	635523	DISTRACT_START	n/a	n/a	n/a	n/a	-999	11	[0, 0, 0]	n/a	catFR1	2	R1180C
1267.235	0.015	635524	START	n/a	n/a	n/a	n/a	-999	11	[-999, -999, -999]	n/a	catFR1	2	R1180C
1267.25	7.384	635531	PROB	7.348	n/a	n/a	n/a	-999	11	[1, 8, 4]	13.0	catFR1	2	R1180C
1274.634	4.602	639223	PROB	4.58	n/a	n/a	n/a	-999	11	[9, 9, 9]	27.0	catFR1	2	R1180C
1279.236	11.93	641523	PROB	11.93	n/a	n/a	n/a	-999	11	[8, 9, 6]	23.0	catFR1	2	R1180C
1291.166	0.005	647488	STOP	n/a	n/a	n/a	n/a	-999	11	[-999, -999, -999]	n/a	catFR1	2	R1180C
1291.171	1.2	647490	DISTRACT_END	n/a	n/a	n/a	n/a	-999	11	[0, 0, 0]	n/a	catFR1	2	R1180C
1292.371	2.627	648090	REC_START	n/a	n/a	n/a	n/a	-999	11	[0, 0, 0]	n/a	catFR1	2	R1180C
1294.998	1.16	649404	REC_WORD	2.627	n/a	SPATULA	KitchenTools	4	11	[0, 0, 0]	n/a	catFR1	2	R1180C
1296.158	2.486	649984	REC_WORD	3.787	n/a	LADLE	KitchenTools	3	11	[0, 0, 0]	n/a	catFR1	2	R1180C
1298.644	16.685	651227	REC_WORD	6.273	n/a	ERASER	OfficeSupplies	5	11	[0, 0, 0]	n/a	catFR1	2	R1180C
1315.329	1.064	659568	REC_WORD	22.958	n/a	PEN	OfficeSupplies	6	11	[0, 0, 0]	n/a	catFR1	2	R1180C
1316.393	5.993	660100	REC_WORD	24.022	n/a	NOTEBOOK	n/a	-999	11	[0, 0, 0]	n/a	catFR1	2	R1180C
1322.386	2.692	663097	REC_END	n/a	n/a	n/a	n/a	-999	11	[0, 0, 0]	n/a	catFR1	2	R1180C
1325.078	0.0	664442	TRIAL	n/a	n/a	n/a	n/a	-999	12	[0, 0, 0]	n/a	catFR1	2	R1180C
1325.078	10.428	664442	COUNTDOWN_START	n/a	n/a	n/a	n/a	-999	12	[0, 0, 0]	n/a	catFR1	2	R1180C
1335.506	0.006	669656	COUNTDOWN_END	n/a	n/a	n/a	n/a	-999	12	[0, 0, 0]	n/a	catFR1	2	R1180C
1335.512	3.568	669659	ORIENT	n/a	n/a	n/a	n/a	-999	12	[0, 0, 0]	n/a	catFR1	2	R1180C
1339.08	2.6	671443	WORD	n/a	wordpools/wordpool_categorized_EN.txt	GRAPE	Fruit	1	12	[0, 0, 0]	n/a	catFR1	2	R1180C
1341.68	2.367	672743	WORD	n/a	wordpools/wordpool_categorized_EN.txt	STRAWBERRY	Fruit	2	12	[0, 0, 0]	n/a	catFR1	2	R1180C
1344.047	2.584	673926	WORD	n/a	wordpools/wordpool_categorized_EN.txt	HALLWAY	Building	3	12	[0, 0, 0]	n/a	catFR1	2	R1180C
1346.631	2.417	675218	WORD	n/a	wordpools/wordpool_categorized_EN.txt	CEILING	Building	4	12	[0, 0, 0]	n/a	catFR1	2	R1180C
1349.048	2.484	676426	WORD	n/a	wordpools/wordpool_categorized_EN.txt	PEELER	KitchenTools	5	12	[0, 0, 0]	n/a	catFR1	2	R1180C
1351.532	2.4	677668	WORD	n/a	wordpools/wordpool_categorized_EN.txt	SPOON	KitchenTools	6	12	[0, 0, 0]	n/a	catFR1	2	R1180C
1353.932	2.517	678868	WORD	n/a	wordpools/wordpool_categorized_EN.txt	ROOM	Building	7	12	[0, 0, 0]	n/a	catFR1	2	R1180C
1356.449	2.551	680127	WORD	n/a	wordpools/wordpool_categorized_EN.txt	STAIRS	Building	8	12	[0, 0, 0]	n/a	catFR1	2	R1180C
1359.0	2.45	681402	WORD	n/a	wordpools/wordpool_categorized_EN.txt	LEMON	Fruit	9	12	[0, 0, 0]	n/a	catFR1	2	R1180C
1361.45	2.501	682627	WORD	n/a	wordpools/wordpool_categorized_EN.txt	LIME	Fruit	10	12	[0, 0, 0]	n/a	catFR1	2	R1180C
1363.951	2.534	683877	WORD	n/a	wordpools/wordpool_categorized_EN.txt	COLANDER	KitchenTools	11	12	[0, 0, 0]	n/a	catFR1	2	R1180C
1366.485	1.618	685144	WORD	n/a	wordpools/wordpool_categorized_EN.txt	STRAINER	KitchenTools	12	12	[0, 0, 0]	n/a	catFR1	2	R1180C
1368.103	0.001	685953	DISTRACT_START	n/a	n/a	n/a	n/a	-999	12	[0, 0, 0]	n/a	catFR1	2	R1180C
1368.104	0.015	685954	START	n/a	n/a	n/a	n/a	-999	12	[-999, -999, -999]	n/a	catFR1	2	R1180C
1368.119	2.633	685961	PROB	2.598	n/a	n/a	n/a	-999	12	[1, 1, 4]	6.0	catFR1	2	R1180C
1370.752	2.017	687277	PROB	1.997	n/a	n/a	n/a	-999	12	[6, 1, 1]	8.0	catFR1	2	R1180C
1372.769	5.685	688286	PROB	5.652	n/a	n/a	n/a	-999	12	[4, 2, 8]	14.0	catFR1	2	R1180C
1378.454	2.684	691128	PROB	2.657	n/a	n/a	n/a	-999	12	[7, 2, 1]	10.0	catFR1	2	R1180C
1381.138	4.617	692470	PROB	4.595	n/a	n/a	n/a	-999	12	[9, 3, 2]	14.0	catFR1	2	R1180C
1385.755	5.443	694778	PROB	5.443	n/a	n/a	n/a	-999	12	[1, 5, 4]	10.0	catFR1	2	R1180C
1391.198	0.009	697500	STOP	n/a	n/a	n/a	n/a	-999	12	[-999, -999, -999]	n/a	catFR1	2	R1180C
1391.207	1.067	697504	DISTRACT_END	n/a	n/a	n/a	n/a	-999	12	[0, 0, 0]	n/a	catFR1	2	R1180C
1392.274	1.557	698037	REC_START	n/a	n/a	n/a	n/a	-999	12	[0, 0, 0]	n/a	catFR1	2	R1180C
1393.831	1.388	698816	REC_WORD	1.557	n/a	CEILING	Building	4	12	[0, 0, 0]	n/a	catFR1	2	R1180C
1395.219	8.856	699510	REC_WORD	2.945	n/a	HALLWAY	Building	3	12	[0, 0, 0]	n/a	catFR1	2	R1180C
1404.075	1.243	703937	REC_WORD	11.801	n/a	COLANDER	KitchenTools	11	12	[0, 0, 0]	n/a	catFR1	2	R1180C
1405.318	1.38	704559	REC_WORD	13.044	n/a	PEELER	KitchenTools	5	12	[0, 0, 0]	n/a	catFR1	2	R1180C
1406.698	0.835	705249	REC_WORD	14.424	n/a	LEMON	Fruit	9	12	[0, 0, 0]	n/a	catFR1	2	R1180C
1407.533	14.757	705666	REC_WORD	15.259	n/a	LIME	Fruit	10	12	[0, 0, 0]	n/a	catFR1	2	R1180C
1422.29	2.089	713044	REC_END	n/a	n/a	n/a	n/a	-999	12	[0, 0, 0]	n/a	catFR1	2	R1180C
1424.379	0.0	714089	COUNTDOWN_START	n/a	n/a	n/a	n/a	-999	13	[0, 0, 0]	n/a	catFR1	2	R1180C
1424.379	10.428	714089	TRIAL	n/a	n/a	n/a	n/a	-999	13	[0, 0, 0]	n/a	catFR1	2	R1180C
1434.807	0.007	719302	COUNTDOWN_END	n/a	n/a	n/a	n/a	-999	13	[0, 0, 0]	n/a	catFR1	2	R1180C
1434.814	3.502	719306	ORIENT	n/a	n/a	n/a	n/a	-999	13	[0, 0, 0]	n/a	catFR1	2	R1180C
1438.316	2.549	721056	WORD	n/a	wordpools/wordpool_categorized_EN.txt	VAN	Vehicles	1	13	[0, 0, 0]	n/a	catFR1	2	R1180C
1440.865	2.418	722331	WORD	n/a	wordpools/wordpool_categorized_EN.txt	MOTORCYCLE	Vehicles	2	13	[0, 0, 0]	n/a	catFR1	2	R1180C
1443.283	2.517	723540	WORD	n/a	wordpools/wordpool_categorized_EN.txt	DUCK	Birds	3	13	[0, 0, 0]	n/a	catFR1	2	R1180C
1445.8	2.501	724798	WORD	n/a	wordpools/wordpool_categorized_EN.txt	HAWK	Birds	4	13	[0, 0, 0]	n/a	catFR1	2	R1180C
1448.301	2.566	726048	WORD	n/a	wordpools/wordpool_categorized_EN.txt	THUNDERSTORM	Weather	5	13	[0, 0, 0]	n/a	catFR1	2	R1180C
1450.867	2.601	727331	WORD	n/a	wordpools/wordpool_categorized_EN.txt	SNOW	Weather	6	13	[0, 0, 0]	n/a	catFR1	2	R1180C
1453.468	2.601	728632	WORD	n/a	wordpools/wordpool_categorized_EN.txt	SPARROW	Birds	7	13	[0, 0, 0]	n/a	catFR1	2	R1180C
1456.069	2.599	729932	WORD	n/a	wordpools/wordpool_categorized_EN.txt	ROBIN	Birds	8	13	[0, 0, 0]	n/a	catFR1	2	R1180C
1458.668	2.452	731232	WORD	n/a	wordpools/wordpool_categorized_EN.txt	CAR	Vehicles	9	13	[0, 0, 0]	n/a	catFR1	2	R1180C
1461.12	2.466	732457	WORD	n/a	wordpools/wordpool_categorized_EN.txt	TRAIN	Vehicles	10	13	[0, 0, 0]	n/a	catFR1	2	R1180C
1463.586	2.535	733690	WORD	n/a	wordpools/wordpool_categorized_EN.txt	WIND	Weather	11	13	[0, 0, 0]	n/a	catFR1	2	R1180C
1466.121	1.616	734958	WORD	n/a	wordpools/wordpool_categorized_EN.txt	TORNADO	Weather	12	13	[0, 0, 0]	n/a	catFR1	2	R1180C
1467.737	0.001	735766	DISTRACT_START	n/a	n/a	n/a	n/a	-999	13	[0, 0, 0]	n/a	catFR1	2	R1180C
1467.738	0.016	735766	START	n/a	n/a	n/a	n/a	-999	13	[-999, -999, -999]	n/a	catFR1	2	R1180C
1467.754	10.118	735774	PROB	10.084	n/a	n/a	n/a	-999	13	[9, 2, 5]	16.0	catFR1	2	R1180C
1477.872	3.568	740833	PROB	3.541	n/a	n/a	n/a	-999	13	[3, 9, 3]	15.0	catFR1	2	R1180C
1481.44	3.233	742617	PROB	3.198	n/a	n/a	n/a	-999	13	[2, 3, 8]	12.0	catFR1	2	R1180C
1484.673	4.909	744233	PROB	4.909	n/a	n/a	n/a	-999	13	[8, 8, 4]	20.0	catFR1	2	R1180C
1489.582	0.009	746687	STOP	n/a	n/a	n/a	n/a	-999	13	[-999, -999, -999]	n/a	catFR1	2	R1180C
1489.591	1.101	746692	DISTRACT_END	n/a	n/a	n/a	n/a	-999	13	[0, 0, 0]	n/a	catFR1	2	R1180C
1490.692	2.23	747242	REC_START	n/a	n/a	n/a	n/a	-999	13	[0, 0, 0]	n/a	catFR1	2	R1180C
1492.922	1.0	748357	REC_WORD	2.23	n/a	THUNDERSTORM	Weather	5	13	[0, 0, 0]	n/a	catFR1	2	R1180C
1493.922	11.562	748857	REC_WORD_VV	3.23	n/a	<>	n/a	-999	13	[0, 0, 0]	n/a	catFR1	2	R1180C
1505.484	15.22	754637	REC_WORD	14.792	n/a	LIGHTNING	n/a	-999	13	[0, 0, 0]	n/a	catFR1	2	R1180C
1520.704	2.993	762247	REC_END	n/a	n/a	n/a	n/a	-999	13	[0, 0, 0]	n/a	catFR1	2	R1180C
1523.697	0.0	763743	TRIAL	n/a	n/a	n/a	n/a	-999	14	[0, 0, 0]	n/a	catFR1	2	R1180C
1523.697	10.428	763743	COUNTDOWN_START	n/a	n/a	n/a	n/a	-999	14	[0, 0, 0]	n/a	catFR1	2	R1180C
1534.125	0.009	768957	COUNTDOWN_END	n/a	n/a	n/a	n/a	-999	14	[0, 0, 0]	n/a	catFR1	2	R1180C
1534.134	3.483	768961	ORIENT	n/a	n/a	n/a	n/a	-999	14	[0, 0, 0]	n/a	catFR1	2	R1180C
1537.617	2.451	770703	WORD	n/a	wordpools/wordpool_categorized_EN.txt	PLIERS	Tools	1	14	[0, 0, 0]	n/a	catFR1	2	R1180C
1540.068	2.383	771928	WORD	n/a	wordpools/wordpool_categorized_EN.txt	SAW	Tools	2	14	[0, 0, 0]	n/a	catFR1	2	R1180C
1542.451	2.417	773119	WORD	n/a	wordpools/wordpool_categorized_EN.txt	SLINKY	Toys	3	14	[0, 0, 0]	n/a	catFR1	2	R1180C
1544.868	2.55	774328	WORD	n/a	wordpools/wordpool_categorized_EN.txt	MARBLES	Toys	4	14	[0, 0, 0]	n/a	catFR1	2	R1180C
1547.418	2.584	775603	WORD	n/a	wordpools/wordpool_categorized_EN.txt	REFRIGERATOR	Appliances	5	14	[0, 0, 0]	n/a	catFR1	2	R1180C
1550.002	2.384	776894	WORD	n/a	wordpools/wordpool_categorized_EN.txt	BLENDER	Appliances	6	14	[0, 0, 0]	n/a	catFR1	2	R1180C
1552.386	2.601	778086	WORD	n/a	wordpools/wordpool_categorized_EN.txt	BASKETBALL	Toys	7	14	[0, 0, 0]	n/a	catFR1	2	R1180C
1554.987	2.433	779387	WORD	n/a	wordpools/wordpool_categorized_EN.txt	DOLL	Toys	8	14	[0, 0, 0]	n/a	catFR1	2	R1180C
1557.42	2.484	780603	WORD	n/a	wordpools/wordpool_categorized_EN.txt	SHOVEL	Tools	9	14	[0, 0, 0]	n/a	catFR1	2	R1180C
1559.904	2.617	781845	WORD	n/a	wordpools/wordpool_categorized_EN.txt	WRENCH	Tools	10	14	[0, 0, 0]	n/a	catFR1	2	R1180C
1562.521	2.451	783153	WORD	n/a	wordpools/wordpool_categorized_EN.txt	FREEZER	Appliances	11	14	[0, 0, 0]	n/a	catFR1	2	R1180C
1564.972	1.617	784379	WORD	n/a	wordpools/wordpool_categorized_EN.txt	OVEN	Appliances	12	14	[0, 0, 0]	n/a	catFR1	2	R1180C
1566.589	0.001	785187	DISTRACT_START	n/a	n/a	n/a	n/a	-999	14	[0, 0, 0]	n/a	catFR1	2	R1180C
1566.59	0.015	785188	START	n/a	n/a	n/a	n/a	-999	14	[-999, -999, -999]	n/a	catFR1	2	R1180C
1566.605	4.669	785195	PROB	4.634	n/a	n/a	n/a	-999	14	[7, 1, 4]	12.0	catFR1	2	R1180C
1571.274	7.4	787530	PROB	7.371	n/a	n/a	n/a	-999	14	[9, 3, 8]	20.0	catFR1	2	R1180C
1578.674	9.46	791229	PROB	9.46	n/a	n/a	n/a	-999	14	[6, 4, 8]	18.0	catFR1	2	R1180C
1588.134	0.01	795959	STOP	n/a	n/a	n/a	n/a	-999	14	[-999, -999, -999]	n/a	catFR1	2	R1180C
1588.144	1.084	795964	DISTRACT_END	n/a	n/a	n/a	n/a	-999	14	[0, 0, 0]	n/a	catFR1	2	R1180C
1589.228	1.767	796506	REC_START	n/a	n/a	n/a	n/a	-999	14	[0, 0, 0]	n/a	catFR1	2	R1180C
1590.995	1.226	797389	REC_WORD	1.767	n/a	PLIERS	Tools	1	14	[0, 0, 0]	n/a	catFR1	2	R1180C
1592.221	6.069	798002	REC_WORD	2.993	n/a	REFRIGERATOR	Appliances	5	14	[0, 0, 0]	n/a	catFR1	2	R1180C
1598.29	8.241	801036	REC_WORD	9.062	n/a	SAW	Tools	2	14	[0, 0, 0]	n/a	catFR1	2	R1180C
1606.531	8.865	805156	REC_WORD_VV	17.303	n/a	<>	n/a	-999	14	[0, 0, 0]	n/a	catFR1	2	R1180C
1615.396	3.844	809589	REC_WORD	26.168	n/a	WRENCH	Tools	10	14	[0, 0, 0]	n/a	catFR1	2	R1180C
1619.24	1.86	811510	REC_END	n/a	n/a	n/a	n/a	-999	14	[0, 0, 0]	n/a	catFR1	2	R1180C
1621.1	0.0	812440	TRIAL	n/a	n/a	n/a	n/a	-999	15	[0, 0, 0]	n/a	catFR1	2	R1180C
1621.1	10.428	812440	COUNTDOWN_START	n/a	n/a	n/a	n/a	-999	15	[0, 0, 0]	n/a	catFR1	2	R1180C
1631.528	0.006	817654	COUNTDOWN_END	n/a	n/a	n/a	n/a	-999	15	[0, 0, 0]	n/a	catFR1	2	R1180C
1631.534	3.735	817657	ORIENT	n/a	n/a	n/a	n/a	-999	15	[0, 0, 0]	n/a	catFR1	2	R1180C
1635.269	2.533	819524	WORD	n/a	wordpools/wordpool_categorized_EN.txt	DOLPHIN	OceanAnimals	1	15	[0, 0, 0]	n/a	catFR1	2	R1180C
1637.802	2.435	820791	WORD	n/a	wordpools/wordpool_categorized_EN.txt	CRAB	OceanAnimals	2	15	[0, 0, 0]	n/a	catFR1	2	R1180C
1640.237	2.566	822008	WORD	n/a	wordpools/wordpool_categorized_EN.txt	ORANGE	Fruit	3	15	[0, 0, 0]	n/a	catFR1	2	R1180C
1642.803	2.435	823291	WORD	n/a	wordpools/wordpool_categorized_EN.txt	PLUM	Fruit	4	15	[0, 0, 0]	n/a	catFR1	2	R1180C
1645.238	2.599	824508	WORD	n/a	wordpools/wordpool_categorized_EN.txt	HEADPHONES	Electronics	5	15	[0, 0, 0]	n/a	catFR1	2	R1180C
1647.837	2.468	825808	WORD	n/a	wordpools/wordpool_categorized_EN.txt	SCANNER	Electronics	6	15	[0, 0, 0]	n/a	catFR1	2	R1180C
1650.305	2.383	827042	WORD	n/a	wordpools/wordpool_categorized_EN.txt	JELLYFISH	OceanAnimals	7	15	[0, 0, 0]	n/a	catFR1	2	R1180C
1652.688	2.502	828233	WORD	n/a	wordpools/wordpool_categorized_EN.txt	WHALE	OceanAnimals	8	15	[0, 0, 0]	n/a	catFR1	2	R1180C
1655.19	2.533	829484	WORD	n/a	wordpools/wordpool_categorized_EN.txt	TABLET	Electronics	9	15	[0, 0, 0]	n/a	catFR1	2	R1180C
1657.723	2.568	830750	WORD	n/a	wordpools/wordpool_categorized_EN.txt	TELEVISION	Electronics	10	15	[0, 0, 0]	n/a	catFR1	2	R1180C
1660.291	2.566	832034	WORD	n/a	wordpools/wordpool_categorized_EN.txt	BANANA	Fruit	11	15	[0, 0, 0]	n/a	catFR1	2	R1180C
1662.857	1.617	833317	WORD	n/a	wordpools/wordpool_categorized_EN.txt	APPLE	Fruit	12	15	[0, 0, 0]	n/a	catFR1	2	R1180C
1664.474	0.001	834125	DISTRACT_START	n/a	n/a	n/a	n/a	-999	15	[0, 0, 0]	n/a	catFR1	2	R1180C
1664.475	0.016	834126	START	n/a	n/a	n/a	n/a	-999	15	[-999, -999, -999]	n/a	catFR1	2	R1180C
1664.491	3.635	834134	PROB	3.611	n/a	n/a	n/a	-999	15	[3, 5, 1]	9.0	catFR1	2	R1180C
1668.126	4.516	835951	PROB	4.488	n/a	n/a	n/a	-999	15	[9, 3, 1]	13.0	catFR1	2	R1180C
1672.642	9.785	838209	PROB	9.756	n/a	n/a	n/a	-999	15	[7, 9, 8]	24.0	catFR1	2	R1180C
1682.427	3.154	843101	PROB	3.154	n/a	n/a	n/a	-999	15	[1, 7, 3]	11.0	catFR1	2	R1180C
1685.581	0.013	844678	STOP	n/a	n/a	n/a	n/a	-999	15	[-999, -999, -999]	n/a	catFR1	2	R1180C
1685.594	1.068	844684	DISTRACT_END	n/a	n/a	n/a	n/a	-999	15	[0, 0, 0]	n/a	catFR1	2	R1180C
1686.662	3.469	845218	REC_START	n/a	n/a	n/a	n/a	-999	15	[0, 0, 0]	n/a	catFR1	2	R1180C
1690.131	0.789	846953	REC_WORD	3.469	n/a	APPLE	Fruit	12	15	[0, 0, 0]	n/a	catFR1	2	R1180C
1690.92	3.533	847347	REC_WORD	4.258	n/a	BANANA	Fruit	11	15	[0, 0, 0]	n/a	catFR1	2	R1180C
1694.453	4.886	849114	REC_WORD	7.791	n/a	WHALE	OceanAnimals	8	15	[0, 0, 0]	n/a	catFR1	2	R1180C
1699.339	7.344	851556	REC_WORD	12.677	n/a	SCANNER	Electronics	6	15	[0, 0, 0]	n/a	catFR1	2	R1180C
1706.683	9.989	855228	REC_WORD	20.021	n/a	KEYBOARD	n/a	-999	15	[0, 0, 0]	n/a	catFR1	2	R1180C
1716.672	1.895	860222	REC_END	n/a	n/a	n/a	n/a	-999	15	[0, 0, 0]	n/a	catFR1	2	R1180C
1718.567	0.001	861170	COUNTDOWN_START	n/a	n/a	n/a	n/a	-999	16	[0, 0, 0]	n/a	catFR1	2	R1180C
1718.568	10.427	861170	TRIAL	n/a	n/a	n/a	n/a	-999	16	[0, 0, 0]	n/a	catFR1	2	R1180C
1728.995	0.008	866383	COUNTDOWN_END	n/a	n/a	n/a	n/a	-999	16	[0, 0, 0]	n/a	catFR1	2	R1180C
1729.003	3.884	866387	ORIENT	n/a	n/a	n/a	n/a	-999	16	[0, 0, 0]	n/a	catFR1	2	R1180C
1732.887	2.401	868329	WORD	n/a	wordpools/wordpool_categorized_EN.txt	WINDOW	Building	1	16	[0, 0, 0]	n/a	catFR1	2	R1180C
1735.288	2.383	869529	WORD	n/a	wordpools/wordpool_categorized_EN.txt	FOUNDATION	Building	2	16	[0, 0, 0]	n/a	catFR1	2	R1180C
1737.671	2.535	870721	WORD	n/a	wordpools/wordpool_categorized_EN.txt	BOAT	Vehicles	3	16	[0, 0, 0]	n/a	catFR1	2	R1180C
1740.206	2.466	871988	WORD	n/a	wordpools/wordpool_categorized_EN.txt	BIKE	Vehicles	4	16	[0, 0, 0]	n/a	catFR1	2	R1180C
1742.672	2.367	873221	WORD	n/a	wordpools/wordpool_categorized_EN.txt	CAULIFLOWER	Vegetables	5	16	[0, 0, 0]	n/a	catFR1	2	R1180C
1745.039	2.6	874404	WORD	n/a	wordpools/wordpool_categorized_EN.txt	CUCUMBER	Vegetables	6	16	[0, 0, 0]	n/a	catFR1	2	R1180C
1747.639	2.502	875704	WORD	n/a	wordpools/wordpool_categorized_EN.txt	BUS	Vehicles	7	16	[0, 0, 0]	n/a	catFR1	2	R1180C
1750.141	2.549	876955	WORD	n/a	wordpools/wordpool_categorized_EN.txt	SCOOTER	Vehicles	8	16	[0, 0, 0]	n/a	catFR1	2	R1180C
1752.69	2.535	878230	WORD	n/a	wordpools/wordpool_categorized_EN.txt	ATTIC	Building	9	16	[0, 0, 0]	n/a	catFR1	2	R1180C
1755.225	2.466	879497	WORD	n/a	wordpools/wordpool_categorized_EN.txt	BATHROOM	Building	10	16	[0, 0, 0]	n/a	catFR1	2	R1180C
1757.691	2.468	880730	WORD	n/a	wordpools/wordpool_categorized_EN.txt	LETTUCE	Vegetables	11	16	[0, 0, 0]	n/a	catFR1	2	R1180C
1760.159	1.616	881964	WORD	n/a	wordpools/wordpool_categorized_EN.txt	CELERY	Vegetables	12	16	[0, 0, 0]	n/a	catFR1	2	R1180C
1761.775	0.001	882772	DISTRACT_START	n/a	n/a	n/a	n/a	-999	16	[0, 0, 0]	n/a	catFR1	2	R1180C
1761.776	0.016	882772	START	n/a	n/a	n/a	n/a	-999	16	[-999, -999, -999]	n/a	catFR1	2	R1180C
1761.792	6.618	882780	PROB	6.598	n/a	n/a	n/a	-999	16	[6, 1, 9]	16.0	catFR1	2	R1180C
1768.41	4.785	886089	PROB	4.749	n/a	n/a	n/a	-999	16	[7, 7, 3]	17.0	catFR1	2	R1180C
1773.195	2.816	888481	PROB	2.786	n/a	n/a	n/a	-999	16	[5, 4, 5]	14.0	catFR1	2	R1180C
1776.011	4.468	889889	PROB	4.434	n/a	n/a	n/a	-999	16	[4, 3, 8]	15.0	catFR1	2	R1180C
1780.479	5.079	892123	PROB	5.079	n/a	n/a	n/a	-999	16	[4, 1, 6]	9.0	catFR1	2	R1180C
1785.558	0.005	894662	STOP	n/a	n/a	n/a	n/a	-999	16	[-999, -999, -999]	n/a	catFR1	2	R1180C
1785.563	1.218	894665	DISTRACT_END	n/a	n/a	n/a	n/a	-999	16	[0, 0, 0]	n/a	catFR1	2	R1180C
1786.781	2.781	895274	REC_START	n/a	n/a	n/a	n/a	-999	16	[0, 0, 0]	n/a	catFR1	2	R1180C
1789.562	1.781	896664	REC_WORD	2.781	n/a	FOUNDATION	Building	2	16	[0, 0, 0]	n/a	catFR1	2	R1180C
1791.343	13.423	897554	REC_WORD	4.562	n/a	WINDOW	Building	1	16	[0, 0, 0]	n/a	catFR1	2	R1180C
1804.766	12.026	904265	REC_WORD	17.985	n/a	DRYER	n/a	-999	16	[0, 0, 0]	n/a	catFR1	2	R1180C
1816.792	2.395	910278	REC_END	n/a	n/a	n/a	n/a	-999	16	[0, 0, 0]	n/a	catFR1	2	R1180C
1819.187	0.0	911475	TRIAL	n/a	n/a	n/a	n/a	-999	17	[0, 0, 0]	n/a	catFR1	2	R1180C
1819.187	10.428	911475	COUNTDOWN_START	n/a	n/a	n/a	n/a	-999	17	[0, 0, 0]	n/a	catFR1	2	R1180C
1829.615	0.007	916689	COUNTDOWN_END	n/a	n/a	n/a	n/a	-999	17	[0, 0, 0]	n/a	catFR1	2	R1180C
1829.622	3.518	916692	ORIENT	n/a	n/a	n/a	n/a	-999	17	[0, 0, 0]	n/a	catFR1	2	R1180C
1833.14	2.516	918451	WORD	n/a	wordpools/wordpool_categorized_EN.txt	WINE	Beverages	1	17	[0, 0, 0]	n/a	catFR1	2	R1180C
1835.656	2.501	919709	WORD	n/a	wordpools/wordpool_categorized_EN.txt	COFFEE	Beverages	2	17	[0, 0, 0]	n/a	catFR1	2	R1180C
1838.157	2.567	920959	WORD	n/a	wordpools/wordpool_categorized_EN.txt	AXE	Tools	3	17	[0, 0, 0]	n/a	catFR1	2	R1180C
1840.724	2.518	922243	WORD	n/a	wordpools/wordpool_categorized_EN.txt	CROWBAR	Tools	4	17	[0, 0, 0]	n/a	catFR1	2	R1180C
1843.242	2.566	923502	WORD	n/a	wordpools/wordpool_categorized_EN.txt	DOVE	Birds	5	17	[0, 0, 0]	n/a	catFR1	2	R1180C
1845.808	2.435	924784	WORD	n/a	wordpools/wordpool_categorized_EN.txt	PIGEON	Birds	6	17	[0, 0, 0]	n/a	catFR1	2	R1180C
1848.243	2.382	926002	WORD	n/a	wordpools/wordpool_categorized_EN.txt	LEVEL	Tools	7	17	[0, 0, 0]	n/a	catFR1	2	R1180C
1850.625	2.585	927193	WORD	n/a	wordpools/wordpool_categorized_EN.txt	SCREWDRIVER	Tools	8	17	[0, 0, 0]	n/a	catFR1	2	R1180C
1853.21	2.483	928485	WORD	n/a	wordpools/wordpool_categorized_EN.txt	WATER	Beverages	9	17	[0, 0, 0]	n/a	catFR1	2	R1180C
1855.693	2.501	929726	WORD	n/a	wordpools/wordpool_categorized_EN.txt	SODA	Beverages	10	17	[0, 0, 0]	n/a	catFR1	2	R1180C
1858.194	2.5	930977	WORD	n/a	wordpools/wordpool_categorized_EN.txt	FINCH	Birds	11	17	[0, 0, 0]	n/a	catFR1	2	R1180C
1860.694	1.601	932227	WORD	n/a	wordpools/wordpool_categorized_EN.txt	CARDINAL	Birds	12	17	[0, 0, 0]	n/a	catFR1	2	R1180C
1862.295	0.001	933027	DISTRACT_START	n/a	n/a	n/a	n/a	-999	17	[0, 0, 0]	n/a	catFR1	2	R1180C
1862.296	0.016	933028	START	n/a	n/a	n/a	n/a	-999	17	[-999, -999, -999]	n/a	catFR1	2	R1180C
1862.312	2.951	933036	PROB	2.919	n/a	n/a	n/a	-999	17	[1, 6, 9]	16.0	catFR1	2	R1180C
1865.263	5.7	934511	PROB	5.671	n/a	n/a	n/a	-999	17	[3, 5, 4]	12.0	catFR1	2	R1180C
1870.963	4.567	937361	PROB	4.539	n/a	n/a	n/a	-999	17	[3, 3, 6]	12.0	catFR1	2	R1180C
1875.53	8.468	939644	PROB	8.468	n/a	n/a	n/a	-999	17	[9, 7, 8]	24.0	catFR1	2	R1180C
1883.998	0.017	943878	STOP	n/a	n/a	n/a	n/a	-999	17	[-999, -999, -999]	n/a	catFR1	2	R1180C
1884.015	1.152	943886	DISTRACT_END	n/a	n/a	n/a	n/a	-999	17	[0, 0, 0]	n/a	catFR1	2	R1180C
1885.167	2.298	944462	REC_START	n/a	n/a	n/a	n/a	-999	17	[0, 0, 0]	n/a	catFR1	2	R1180C
1887.465	1.082	945611	REC_WORD	2.298	n/a	PIGEON	Birds	6	17	[0, 0, 0]	n/a	catFR1	2	R1180C
1888.547	1.102	946152	REC_WORD	3.38	n/a	DOVE	Birds	5	17	[0, 0, 0]	n/a	catFR1	2	R1180C
1889.649	1.93	946703	REC_WORD	4.482	n/a	CARDINAL	Birds	12	17	[0, 0, 0]	n/a	catFR1	2	R1180C
1891.579	6.012	947668	REC_WORD	6.412	n/a	SCREWDRIVER	Tools	8	17	[0, 0, 0]	n/a	catFR1	2	R1180C
1897.591	1.102	950674	REC_WORD	12.424	n/a	WINE	Beverages	1	17	[0, 0, 0]	n/a	catFR1	2	R1180C
1898.693	3.475	951225	REC_WORD	13.526	n/a	COFFEE	Beverages	2	17	[0, 0, 0]	n/a	catFR1	2	R1180C
1902.168	1.139	952962	REC_WORD	17.001	n/a	SODA	Beverages	10	17	[0, 0, 0]	n/a	catFR1	2	R1180C
1903.307	5.364	953531	REC_WORD	18.14	n/a	WATER	Beverages	9	17	[0, 0, 0]	n/a	catFR1	2	R1180C
1908.671	6.508	956213	REC_WORD	23.504	n/a	FINCH	Birds	11	17	[0, 0, 0]	n/a	catFR1	2	R1180C
1915.179	3.176	959467	REC_END	n/a	n/a	n/a	n/a	-999	17	[0, 0, 0]	n/a	catFR1	2	R1180C
1918.355	0.0	961055	TRIAL	n/a	n/a	n/a	n/a	-999	18	[0, 0, 0]	n/a	catFR1	2	R1180C
1918.355	10.428	961055	COUNTDOWN_START	n/a	n/a	n/a	n/a	-999	18	[0, 0, 0]	n/a	catFR1	2	R1180C
1928.783	0.007	966268	COUNTDOWN_END	n/a	n/a	n/a	n/a	-999	18	[0, 0, 0]	n/a	catFR1	2	R1180C
1928.79	3.601	966272	ORIENT	n/a	n/a	n/a	n/a	-999	18	[0, 0, 0]	n/a	catFR1	2	R1180C
1932.391	2.534	968072	WORD	n/a	wordpools/wordpool_categorized_EN.txt	WALL	Building	1	18	[0, 0, 0]	n/a	catFR1	2	R1180C
1934.925	2.45	969339	WORD	n/a	wordpools/wordpool_categorized_EN.txt	FLOOR	Building	2	18	[0, 0, 0]	n/a	catFR1	2	R1180C
1937.375	2.534	970564	WORD	n/a	wordpools/wordpool_categorized_EN.txt	MOUSSE	Desserts	3	18	[0, 0, 0]	n/a	catFR1	2	R1180C
1939.909	2.45	971831	WORD	n/a	wordpools/wordpool_categorized_EN.txt	BROWNIES	Desserts	4	18	[0, 0, 0]	n/a	catFR1	2	R1180C
1942.359	2.434	973056	WORD	n/a	wordpools/wordpool_categorized_EN.txt	FOG	Weather	5	18	[0, 0, 0]	n/a	catFR1	2	R1180C
1944.793	2.552	974273	WORD	n/a	wordpools/wordpool_categorized_EN.txt	CLOUD	Weather	6	18	[0, 0, 0]	n/a	catFR1	2	R1180C
1947.345	2.382	975548	WORD	n/a	wordpools/wordpool_categorized_EN.txt	DOOR	Building	7	18	[0, 0, 0]	n/a	catFR1	2	R1180C
1949.727	2.585	976739	WORD	n/a	wordpools/wordpool_categorized_EN.txt	ROOF	Building	8	18	[0, 0, 0]	n/a	catFR1	2	R1180C
1952.312	2.483	978032	WORD	n/a	wordpools/wordpool_categorized_EN.txt	THUNDER	Weather	9	18	[0, 0, 0]	n/a	catFR1	2	R1180C
1954.795	2.617	979273	WORD	n/a	wordpools/wordpool_categorized_EN.txt	HURRICANE	Weather	10	18	[0, 0, 0]	n/a	catFR1	2	R1180C
1957.412	2.484	980581	WORD	n/a	wordpools/wordpool_categorized_EN.txt	PIE	Desserts	11	18	[0, 0, 0]	n/a	catFR1	2	R1180C
1959.896	1.617	981823	WORD	n/a	wordpools/wordpool_categorized_EN.txt	PASTRY	Desserts	12	18	[0, 0, 0]	n/a	catFR1	2	R1180C
1961.513	0.001	982632	DISTRACT_START	n/a	n/a	n/a	n/a	-999	18	[0, 0, 0]	n/a	catFR1	2	R1180C
1961.514	0.016	982632	START	n/a	n/a	n/a	n/a	-999	18	[-999, -999, -999]	n/a	catFR1	2	R1180C
1961.53	6.251	982640	PROB	6.22	n/a	n/a	n/a	-999	18	[7, 1, 2]	10.0	catFR1	2	R1180C
1967.781	5.734	985765	PROB	5.713	n/a	n/a	n/a	-999	18	[8, 2, 5]	15.0	catFR1	2	R1180C
1973.515	3.901	988632	PROB	3.866	n/a	n/a	n/a	-999	18	[7, 4, 1]	12.0	catFR1	2	R1180C
1977.416	8.061	990583	PROB	8.061	n/a	n/a	n/a	-999	18	[7, 5, 4]	16.0	catFR1	2	R1180C
1985.477	0.007	994613	STOP	n/a	n/a	n/a	n/a	-999	18	[-999, -999, -999]	n/a	catFR1	2	R1180C
1985.484	1.168	994616	DISTRACT_END	n/a	n/a	n/a	n/a	-999	18	[0, 0, 0]	n/a	catFR1	2	R1180C
1986.652	1.835	995200	REC_START	n/a	n/a	n/a	n/a	-999	18	[0, 0, 0]	n/a	catFR1	2	R1180C
1988.487	1.618	996118	REC_WORD	1.835	n/a	BROWNIES	Desserts	4	18	[0, 0, 0]	n/a	catFR1	2	R1180C
1990.105	1.232	996927	REC_WORD	3.453	n/a	PASTRY	Desserts	12	18	[0, 0, 0]	n/a	catFR1	2	R1180C
1991.337	14.819	997542	REC_WORD	4.685	n/a	MOUSSE	Desserts	3	18	[0, 0, 0]	n/a	catFR1	2	R1180C
2006.156	4.076	1004951	REC_WORD	19.504	n/a	HURRICANE	Weather	10	18	[0, 0, 0]	n/a	catFR1	2	R1180C
2010.232	6.431	1006989	REC_WORD	23.58	n/a	THUNDERSTORM	n/a	-999	18	[0, 0, 0]	n/a	catFR1	2	R1180C
2016.663	1.927	1010204	REC_END	n/a	n/a	n/a	n/a	-999	18	[0, 0, 0]	n/a	catFR1	2	R1180C
2018.59	0.0	1011168	COUNTDOWN_START	n/a	n/a	n/a	n/a	-999	19	[0, 0, 0]	n/a	catFR1	2	R1180C
2018.59	10.428	1011168	TRIAL	n/a	n/a	n/a	n/a	-999	19	[0, 0, 0]	n/a	catFR1	2	R1180C
2029.018	0.008	1016381	COUNTDOWN_END	n/a	n/a	n/a	n/a	-999	19	[0, 0, 0]	n/a	catFR1	2	R1180C
2029.026	3.867	1016385	ORIENT	n/a	n/a	n/a	n/a	-999	19	[0, 0, 0]	n/a	catFR1	2	R1180C
2032.893	2.5	1018319	WORD	n/a	wordpools/wordpool_categorized_EN.txt	CALCULATOR	Electronics	1	19	[0, 0, 0]	n/a	catFR1	2	R1180C
2035.393	2.601	1019569	WORD	n/a	wordpools/wordpool_categorized_EN.txt	SPEAKER	Electronics	2	19	[0, 0, 0]	n/a	catFR1	2	R1180C
2037.994	2.45	1020869	WORD	n/a	wordpools/wordpool_categorized_EN.txt	SPINACH	Vegetables	3	19	[0, 0, 0]	n/a	catFR1	2	R1180C
2040.444	2.517	1022094	WORD	n/a	wordpools/wordpool_categorized_EN.txt	PEAS	Vegetables	4	19	[0, 0, 0]	n/a	catFR1	2	R1180C
2042.961	2.534	1023352	WORD	n/a	wordpools/wordpool_categorized_EN.txt	CABINET	Furniture	5	19	[0, 0, 0]	n/a	catFR1	2	R1180C
2045.495	2.551	1024619	WORD	n/a	wordpools/wordpool_categorized_EN.txt	NIGHTSTAND	Furniture	6	19	[0, 0, 0]	n/a	catFR1	2	R1180C
2048.046	2.567	1025894	WORD	n/a	wordpools/wordpool_categorized_EN.txt	PRINTER	Electronics	7	19	[0, 0, 0]	n/a	catFR1	2	R1180C
2050.613	2.451	1027178	WORD	n/a	wordpools/wordpool_categorized_EN.txt	COMPUTER	Electronics	8	19	[0, 0, 0]	n/a	catFR1	2	R1180C
2053.064	2.383	1028403	WORD	n/a	wordpools/wordpool_categorized_EN.txt	RECLINER	Furniture	9	19	[0, 0, 0]	n/a	catFR1	2	R1180C
2055.447	2.618	1029595	WORD	n/a	wordpools/wordpool_categorized_EN.txt	TABLE	Furniture	10	19	[0, 0, 0]	n/a	catFR1	2	R1180C
2058.065	2.5	1030904	WORD	n/a	wordpools/wordpool_categorized_EN.txt	ONION	Vegetables	11	19	[0, 0, 0]	n/a	catFR1	2	R1180C
2060.565	1.618	1032153	WORD	n/a	wordpools/wordpool_categorized_EN.txt	CORN	Vegetables	12	19	[0, 0, 0]	n/a	catFR1	2	R1180C
2062.183	0.001	1032962	DISTRACT_START	n/a	n/a	n/a	n/a	-999	19	[0, 0, 0]	n/a	catFR1	2	R1180C
2062.184	0.015	1032963	START	n/a	n/a	n/a	n/a	-999	19	[-999, -999, -999]	n/a	catFR1	2	R1180C
2062.199	5.234	1032970	PROB	5.206	n/a	n/a	n/a	-999	19	[8, 1, 4]	13.0	catFR1	2	R1180C
2067.433	6.334	1035587	PROB	6.3	n/a	n/a	n/a	-999	19	[8, 9, 5]	22.0	catFR1	2	R1180C
2073.767	5.001	1038754	PROB	4.975	n/a	n/a	n/a	-999	19	[7, 4, 1]	12.0	catFR1	2	R1180C
2078.768	7.813	1041254	PROB	7.813	n/a	n/a	n/a	-999	19	[5, 7, 3]	15.0	catFR1	2	R1180C
2086.581	0.005	1045160	STOP	n/a	n/a	n/a	n/a	-999	19	[-999, -999, -999]	n/a	catFR1	2	R1180C
2086.586	1.068	1045163	DISTRACT_END	n/a	n/a	n/a	n/a	-999	19	[0, 0, 0]	n/a	catFR1	2	R1180C
2087.654	1.802	1045697	REC_START	n/a	n/a	n/a	n/a	-999	19	[0, 0, 0]	n/a	catFR1	2	R1180C
2089.456	1.032	1046598	REC_WORD	1.802	n/a	ONION	Vegetables	11	19	[0, 0, 0]	n/a	catFR1	2	R1180C
2090.488	0.683	1047114	REC_WORD	2.834	n/a	CORN	Vegetables	12	19	[0, 0, 0]	n/a	catFR1	2	R1180C
2091.171	1.0	1047455	REC_WORD	3.517	n/a	SPINACH	Vegetables	3	19	[0, 0, 0]	n/a	catFR1	2	R1180C
2092.171	2.691	1047955	REC_WORD_VV	4.517	n/a	<>	n/a	-999	19	[0, 0, 0]	n/a	catFR1	2	R1180C
2094.862	1.902	1049300	REC_WORD	7.208	n/a	NIGHTSTAND	Furniture	6	19	[0, 0, 0]	n/a	catFR1	2	R1180C
2096.764	20.901	1050251	REC_WORD	9.11	n/a	TABLE	Furniture	10	19	[0, 0, 0]	n/a	catFR1	2	R1180C
2117.665	3.078	1060701	REC_END	n/a	n/a	n/a	n/a	-999	19	[0, 0, 0]	n/a	catFR1	2	R1180C
2120.743	0.0	1062240	TRIAL	n/a	n/a	n/a	n/a	-999	20	[0, 0, 0]	n/a	catFR1	2	R1180C
2120.743	10.428	1062240	COUNTDOWN_START	n/a	n/a	n/a	n/a	-999	20	[0, 0, 0]	n/a	catFR1	2	R1180C
2131.171	0.008	1067453	COUNTDOWN_END	n/a	n/a	n/a	n/a	-999	20	[0, 0, 0]	n/a	catFR1	2	R1180C
2131.179	3.816	1067457	ORIENT	n/a	n/a	n/a	n/a	-999	20	[0, 0, 0]	n/a	catFR1	2	R1180C
2134.995	2.451	1069365	WORD	n/a	wordpools/wordpool_categorized_EN.txt	SPRUCE	Trees	1	20	[0, 0, 0]	n/a	catFR1	2	R1180C
2137.446	2.434	1070590	WORD	n/a	wordpools/wordpool_categorized_EN.txt	HICKORY	Trees	2	20	[0, 0, 0]	n/a	catFR1	2	R1180C
2139.88	2.384	1071807	WORD	n/a	wordpools/wordpool_categorized_EN.txt	TRUMPET	Instruments	3	20	[0, 0, 0]	n/a	catFR1	2	R1180C
2142.264	2.433	1072999	WORD	n/a	wordpools/wordpool_categorized_EN.txt	BANJO	Instruments	4	20	[0, 0, 0]	n/a	catFR1	2	R1180C
2144.697	2.602	1074216	WORD	n/a	wordpools/wordpool_categorized_EN.txt	BROCCOLI	Vegetables	5	20	[0, 0, 0]	n/a	catFR1	2	R1180C
2147.299	2.449	1075517	WORD	n/a	wordpools/wordpool_categorized_EN.txt	CARROT	Vegetables	6	20	[0, 0, 0]	n/a	catFR1	2	R1180C
2149.748	2.502	1076741	WORD	n/a	wordpools/wordpool_categorized_EN.txt	CYPRESS	Trees	7	20	[0, 0, 0]	n/a	catFR1	2	R1180C
2152.25	2.416	1077992	WORD	n/a	wordpools/wordpool_categorized_EN.txt	EVERGREEN	Trees	8	20	[0, 0, 0]	n/a	catFR1	2	R1180C
2154.666	2.435	1079200	WORD	n/a	wordpools/wordpool_categorized_EN.txt	POTATO	Vegetables	9	20	[0, 0, 0]	n/a	catFR1	2	R1180C
2157.101	2.549	1080417	WORD	n/a	wordpools/wordpool_categorized_EN.txt	CABBAGE	Vegetables	10	20	[0, 0, 0]	n/a	catFR1	2	R1180C
2159.65	2.418	1081692	WORD	n/a	wordpools/wordpool_categorized_EN.txt	PIANO	Instruments	11	20	[0, 0, 0]	n/a	catFR1	2	R1180C
2162.068	1.616	1082900	WORD	n/a	wordpools/wordpool_categorized_EN.txt	TROMBONE	Instruments	12	20	[0, 0, 0]	n/a	catFR1	2	R1180C
2163.684	0.001	1083708	DISTRACT_START	n/a	n/a	n/a	n/a	-999	20	[0, 0, 0]	n/a	catFR1	2	R1180C
2163.685	0.016	1083709	START	n/a	n/a	n/a	n/a	-999	20	[-999, -999, -999]	n/a	catFR1	2	R1180C
2163.701	8.536	1083717	PROB	8.513	n/a	n/a	n/a	-999	20	[6, 8, 2]	16.0	catFR1	2	R1180C
2172.237	5.55	1087984	PROB	5.529	n/a	n/a	n/a	-999	20	[9, 8, 5]	22.0	catFR1	2	R1180C
2177.787	5.584	1090759	PROB	5.556	n/a	n/a	n/a	-999	20	[4, 8, 7]	19.0	catFR1	2	R1180C
2183.371	5.242	1093551	PROB	5.242	n/a	n/a	n/a	-999	20	[4, 3, 2]	9.0	catFR1	2	R1180C
2188.613	0.009	1096172	STOP	n/a	n/a	n/a	n/a	-999	20	[-999, -999, -999]	n/a	catFR1	2	R1180C
2188.622	1.201	1096176	DISTRACT_END	n/a	n/a	n/a	n/a	-999	20	[0, 0, 0]	n/a	catFR1	2	R1180C
2189.823	1.077	1096777	REC_START	n/a	n/a	n/a	n/a	-999	20	[0, 0, 0]	n/a	catFR1	2	R1180C
2190.9	1.368	1097315	REC_WORD	1.077	n/a	CYPRESS	Trees	7	20	[0, 0, 0]	n/a	catFR1	2	R1180C
2192.268	0.956	1097999	REC_WORD	2.445	n/a	CARROT	Vegetables	6	20	[0, 0, 0]	n/a	catFR1	2	R1180C
2193.224	13.724	1098477	REC_WORD	3.401	n/a	LETTUCE	n/a	-999	20	[0, 0, 0]	n/a	catFR1	2	R1180C
2206.948	5.895	1105338	REC_WORD	17.125	n/a	CABBAGE	Vegetables	10	20	[0, 0, 0]	n/a	catFR1	2	R1180C
2212.843	6.992	1108286	REC_WORD	23.02	n/a	KNIFE	n/a	-999	20	[0, 0, 0]	n/a	catFR1	2	R1180C
2219.835	4.06	1111781	REC_END	n/a	n/a	n/a	n/a	-999	20	[0, 0, 0]	n/a	catFR1	2	R1180C
2223.895	0.001	1113811	COUNTDOWN_START	n/a	n/a	n/a	n/a	-999	21	[0, 0, 0]	n/a	catFR1	2	R1180C
2223.896	10.427	1113812	TRIAL	n/a	n/a	n/a	n/a	-999	21	[0, 0, 0]	n/a	catFR1	2	R1180C
2234.323	0.009	1119025	COUNTDOWN_END	n/a	n/a	n/a	n/a	-999	21	[0, 0, 0]	n/a	catFR1	2	R1180C
2234.332	3.834	1119029	ORIENT	n/a	n/a	n/a	n/a	-999	21	[0, 0, 0]	n/a	catFR1	2	R1180C
2238.166	2.516	1120946	WORD	n/a	wordpools/wordpool_categorized_EN.txt	SHEEP	FarmAnimals	1	21	[0, 0, 0]	n/a	catFR1	2	R1180C
2240.682	2.585	1122204	WORD	n/a	wordpools/wordpool_categorized_EN.txt	LAMB	FarmAnimals	2	21	[0, 0, 0]	n/a	catFR1	2	R1180C
2243.267	2.599	1123496	WORD	n/a	wordpools/wordpool_categorized_EN.txt	DISHWASHER	Appliances	3	21	[0, 0, 0]	n/a	catFR1	2	R1180C
2245.866	2.485	1124796	WORD	n/a	wordpools/wordpool_categorized_EN.txt	WASHER	Appliances	4	21	[0, 0, 0]	n/a	catFR1	2	R1180C
2248.351	2.616	1126038	WORD	n/a	wordpools/wordpool_categorized_EN.txt	SHORTS	Clothing	5	21	[0, 0, 0]	n/a	catFR1	2	R1180C
2250.967	2.467	1127346	WORD	n/a	wordpools/wordpool_categorized_EN.txt	PANTS	Clothing	6	21	[0, 0, 0]	n/a	catFR1	2	R1180C
2253.434	2.417	1128579	WORD	n/a	wordpools/wordpool_categorized_EN.txt	MIXER	Appliances	7	21	[0, 0, 0]	n/a	catFR1	2	R1180C
2255.851	2.402	1129788	WORD	n/a	wordpools/wordpool_categorized_EN.txt	VACUUM	Appliances	8	21	[0, 0, 0]	n/a	catFR1	2	R1180C
2258.253	2.583	1130989	WORD	n/a	wordpools/wordpool_categorized_EN.txt	CALF	FarmAnimals	9	21	[0, 0, 0]	n/a	catFR1	2	R1180C
2260.836	2.418	1132280	WORD	n/a	wordpools/wordpool_categorized_EN.txt	COW	FarmAnimals	10	21	[0, 0, 0]	n/a	catFR1	2	R1180C
2263.254	2.599	1133489	WORD	n/a	wordpools/wordpool_categorized_EN.txt	UNDERWEAR	Clothing	11	21	[0, 0, 0]	n/a	catFR1	2	R1180C
2265.853	1.617	1134788	WORD	n/a	wordpools/wordpool_categorized_EN.txt	JEANS	Clothing	12	21	[0, 0, 0]	n/a	catFR1	2	R1180C
2267.47	0.001	1135597	DISTRACT_START	n/a	n/a	n/a	n/a	-999	21	[0, 0, 0]	n/a	catFR1	2	R1180C
2267.471	0.016	1135597	START	n/a	n/a	n/a	n/a	-999	21	[-999, -999, -999]	n/a	catFR1	2	R1180C
2267.487	3.217	1135605	PROB	3.19	n/a	n/a	n/a	-999	21	[9, 9, 3]	21.0	catFR1	2	R1180C
2270.704	10.919	1137214	PROB	10.885	n/a	n/a	n/a	-999	21	[3, 8, 7]	18.0	catFR1	2	R1180C
2281.623	4.151	1142673	PROB	4.119	n/a	n/a	n/a	-999	21	[8, 8, 5]	21.0	catFR1	2	R1180C
2285.774	3.536	1144748	PROB	3.536	n/a	n/a	n/a	-999	21	[2, 4, 2]	8.0	catFR1	2	R1180C
2289.31	0.015	1146516	STOP	n/a	n/a	n/a	n/a	-999	21	[-999, -999, -999]	n/a	catFR1	2	R1180C
2289.325	1.1	1146523	DISTRACT_END	n/a	n/a	n/a	n/a	-999	21	[0, 0, 0]	n/a	catFR1	2	R1180C
2290.425	1.73	1147073	REC_START	n/a	n/a	n/a	n/a	-999	21	[0, 0, 0]	n/a	catFR1	2	R1180C
2292.155	0.905	1147938	REC_WORD	1.73	n/a	PANTS	Clothing	6	21	[0, 0, 0]	n/a	catFR1	2	R1180C
2293.06	27.377	1148391	REC_WORD	2.635	n/a	SHIRT	n/a	-999	21	[0, 0, 0]	n/a	catFR1	2	R1180C
2320.437	4.928	1162078	REC_END	n/a	n/a	n/a	n/a	-999	21	[0, 0, 0]	n/a	catFR1	2	R1180C
2325.365	0.0	1164542	TRIAL	n/a	n/a	n/a	n/a	-999	22	[0, 0, 0]	n/a	catFR1	2	R1180C
2325.365	10.428	1164542	COUNTDOWN_START	n/a	n/a	n/a	n/a	-999	22	[0, 0, 0]	n/a	catFR1	2	R1180C
2335.793	0.007	1169755	COUNTDOWN_END	n/a	n/a	n/a	n/a	-999	22	[0, 0, 0]	n/a	catFR1	2	R1180C
2335.8	3.567	1169759	ORIENT	n/a	n/a	n/a	n/a	-999	22	[0, 0, 0]	n/a	catFR1	2	R1180C
2339.367	2.551	1171542	WORD	n/a	wordpools/wordpool_categorized_EN.txt	SHIRT	Clothing	1	22	[0, 0, 0]	n/a	catFR1	2	R1180C
2341.918	2.55	1172817	WORD	n/a	wordpools/wordpool_categorized_EN.txt	JACKET	Clothing	2	22	[0, 0, 0]	n/a	catFR1	2	R1180C
2344.468	2.618	1174092	WORD	n/a	wordpools/wordpool_categorized_EN.txt	JUICE	Beverages	3	22	[0, 0, 0]	n/a	catFR1	2	R1180C
2347.086	2.55	1175401	WORD	n/a	wordpools/wordpool_categorized_EN.txt	COLA	Beverages	4	22	[0, 0, 0]	n/a	catFR1	2	R1180C
2349.636	2.584	1176676	WORD	n/a	wordpools/wordpool_categorized_EN.txt	FOLDER	OfficeSupplies	5	22	[0, 0, 0]	n/a	catFR1	2	R1180C
2352.22	2.517	1177968	WORD	n/a	wordpools/wordpool_categorized_EN.txt	PAPER	OfficeSupplies	6	22	[0, 0, 0]	n/a	catFR1	2	R1180C
2354.737	2.468	1179226	WORD	n/a	wordpools/wordpool_categorized_EN.txt	CIDER	Beverages	7	22	[0, 0, 0]	n/a	catFR1	2	R1180C
2357.205	2.466	1180460	WORD	n/a	wordpools/wordpool_categorized_EN.txt	RUM	Beverages	8	22	[0, 0, 0]	n/a	catFR1	2	R1180C
2359.671	2.535	1181693	WORD	n/a	wordpools/wordpool_categorized_EN.txt	COAT	Clothing	9	22	[0, 0, 0]	n/a	catFR1	2	R1180C
2362.206	2.532	1182961	WORD	n/a	wordpools/wordpool_categorized_EN.txt	SOCKS	Clothing	10	22	[0, 0, 0]	n/a	catFR1	2	R1180C
2364.738	2.552	1184226	WORD	n/a	wordpools/wordpool_categorized_EN.txt	TAPE	OfficeSupplies	11	22	[0, 0, 0]	n/a	catFR1	2	R1180C
2367.29	1.616	1185502	WORD	n/a	wordpools/wordpool_categorized_EN.txt	STAPLER	OfficeSupplies	12	22	[0, 0, 0]	n/a	catFR1	2	R1180C
2368.906	0.001	1186310	DISTRACT_START	n/a	n/a	n/a	n/a	-999	22	[0, 0, 0]	n/a	catFR1	2	R1180C
2368.907	0.016	1186311	START	n/a	n/a	n/a	n/a	-999	22	[-999, -999, -999]	n/a	catFR1	2	R1180C
2368.923	3.168	1186319	PROB	3.131	n/a	n/a	n/a	-999	22	[2, 6, 8]	16.0	catFR1	2	R1180C
2372.091	2.766	1187903	PROB	2.731	n/a	n/a	n/a	-999	22	[2, 8, 2]	12.0	catFR1	2	R1180C
2374.857	3.252	1189285	PROB	3.229	n/a	n/a	n/a	-999	22	[5, 7, 7]	19.0	catFR1	2	R1180C
2378.109	2.699	1190911	PROB	2.665	n/a	n/a	n/a	-999	22	[1, 5, 6]	12.0	catFR1	2	R1180C
2380.808	6.668	1192261	PROB	6.637	n/a	n/a	n/a	-999	22	[4, 7, 6]	17.0	catFR1	2	R1180C
2387.476	5.466	1195594	PROB	5.466	n/a	n/a	n/a	-999	22	[5, 4, 7]	16.0	catFR1	2	R1180C
2392.942	0.018	1198327	STOP	n/a	n/a	n/a	n/a	-999	22	[-999, -999, -999]	n/a	catFR1	2	R1180C
2392.96	1.137	1198336	DISTRACT_END	n/a	n/a	n/a	n/a	-999	22	[0, 0, 0]	n/a	catFR1	2	R1180C
2394.097	1.558	1198905	REC_START	n/a	n/a	n/a	n/a	-999	22	[0, 0, 0]	n/a	catFR1	2	R1180C
2395.655	2.207	1199684	REC_WORD	1.558	n/a	JACKET	Clothing	2	22	[0, 0, 0]	n/a	catFR1	2	R1180C
2397.862	10.419	1200787	REC_WORD	3.765	n/a	RUM	Beverages	8	22	[0, 0, 0]	n/a	catFR1	2	R1180C
2408.281	6.326	1205996	REC_WORD	14.184	n/a	COAT	Clothing	9	22	[0, 0, 0]	n/a	catFR1	2	R1180C
2414.607	9.501	1209159	REC_WORD_VV	20.51	n/a	<>	n/a	-999	22	[0, 0, 0]	n/a	catFR1	2	R1180C
2424.108	3.576	1213909	REC_END	n/a	n/a	n/a	n/a	-999	22	[0, 0, 0]	n/a	catFR1	2	R1180C
2427.684	0.0	1215697	TRIAL	n/a	n/a	n/a	n/a	-999	23	[0, 0, 0]	n/a	catFR1	2	R1180C
2427.684	10.428	1215697	COUNTDOWN_START	n/a	n/a	n/a	n/a	-999	23	[0, 0, 0]	n/a	catFR1	2	R1180C
2438.112	0.008	1220910	COUNTDOWN_END	n/a	n/a	n/a	n/a	-999	23	[0, 0, 0]	n/a	catFR1	2	R1180C
2438.12	3.683	1220914	ORIENT	n/a	n/a	n/a	n/a	-999	23	[0, 0, 0]	n/a	catFR1	2	R1180C
2441.803	2.6	1222756	WORD	n/a	wordpools/wordpool_categorized_EN.txt	HAMMER	Tools	1	23	[0, 0, 0]	n/a	catFR1	2	R1180C
2444.403	2.568	1224055	WORD	n/a	wordpools/wordpool_categorized_EN.txt	DRILL	Tools	2	23	[0, 0, 0]	n/a	catFR1	2	R1180C
2446.971	2.467	1225339	WORD	n/a	wordpools/wordpool_categorized_EN.txt	OYSTER	OceanAnimals	3	23	[0, 0, 0]	n/a	catFR1	2	R1180C
2449.438	2.384	1226573	WORD	n/a	wordpools/wordpool_categorized_EN.txt	FISH	OceanAnimals	4	23	[0, 0, 0]	n/a	catFR1	2	R1180C
2451.822	2.617	1227765	WORD	n/a	wordpools/wordpool_categorized_EN.txt	DRUM	Instruments	5	23	[0, 0, 0]	n/a	catFR1	2	R1180C
2454.439	2.417	1229073	WORD	n/a	wordpools/wordpool_categorized_EN.txt	ORGAN	Instruments	6	23	[0, 0, 0]	n/a	catFR1	2	R1180C
2456.856	2.617	1230281	WORD	n/a	wordpools/wordpool_categorized_EN.txt	SANDER	Tools	7	23	[0, 0, 0]	n/a	catFR1	2	R1180C
2459.473	2.417	1231590	WORD	n/a	wordpools/wordpool_categorized_EN.txt	RATCHET	Tools	8	23	[0, 0, 0]	n/a	catFR1	2	R1180C
2461.89	2.617	1232798	WORD	n/a	wordpools/wordpool_categorized_EN.txt	VIOLIN	Instruments	9	23	[0, 0, 0]	n/a	catFR1	2	R1180C
2464.507	2.585	1234107	WORD	n/a	wordpools/wordpool_categorized_EN.txt	BASS	Instruments	10	23	[0, 0, 0]	n/a	catFR1	2	R1180C
2467.092	2.449	1235399	WORD	n/a	wordpools/wordpool_categorized_EN.txt	SQUID	OceanAnimals	11	23	[0, 0, 0]	n/a	catFR1	2	R1180C
2469.541	1.602	1236623	WORD	n/a	wordpools/wordpool_categorized_EN.txt	OCTOPUS	OceanAnimals	12	23	[0, 0, 0]	n/a	catFR1	2	R1180C
2471.143	0.001	1237424	DISTRACT_START	n/a	n/a	n/a	n/a	-999	23	[0, 0, 0]	n/a	catFR1	2	R1180C
2471.144	0.015	1237425	START	n/a	n/a	n/a	n/a	-999	23	[-999, -999, -999]	n/a	catFR1	2	R1180C
2471.159	4.051	1237432	PROB	4.015	n/a	n/a	n/a	-999	23	[9, 4, 9]	22.0	catFR1	2	R1180C
2475.21	9.634	1239458	PROB	9.604	n/a	n/a	n/a	-999	23	[4, 9, 6]	20.0	catFR1	2	R1180C
2484.844	3.151	1244274	PROB	3.129	n/a	n/a	n/a	-999	23	[8, 2, 8]	18.0	catFR1	2	R1180C
2487.995	4.651	1245849	PROB	4.634	n/a	n/a	n/a	-999	23	[4, 4, 3]	11.0	catFR1	2	R1180C
2492.646	1.217	1248175	DISTRACT_END	n/a	n/a	n/a	n/a	-999	23	[0, 0, 0]	n/a	catFR1	2	R1180C
2493.863	1.305	1248783	REC_START	n/a	n/a	n/a	n/a	-999	23	[0, 0, 0]	n/a	catFR1	2	R1180C
2495.168	1.001	1249436	REC_WORD	1.305	n/a	SQUID	OceanAnimals	11	23	[0, 0, 0]	n/a	catFR1	2	R1180C
2496.169	3.234	1249936	REC_WORD	2.306	n/a	OCTOPUS	OceanAnimals	12	23	[0, 0, 0]	n/a	catFR1	2	R1180C
2499.403	13.252	1251553	REC_WORD_VV	5.54	n/a	<>	n/a	-999	23	[0, 0, 0]	n/a	catFR1	2	R1180C
2512.655	11.223	1258178	REC_WORD	18.792	n/a	FISH	OceanAnimals	4	23	[0, 0, 0]	n/a	catFR1	2	R1180C
2523.878	2.174	1263789	REC_END	n/a	n/a	n/a	n/a	-999	23	[0, 0, 0]	n/a	catFR1	2	R1180C
2526.052	0.0	1264876	COUNTDOWN_START	n/a	n/a	n/a	n/a	-999	24	[0, 0, 0]	n/a	catFR1	2	R1180C
2526.052	10.428	1264876	TRIAL	n/a	n/a	n/a	n/a	-999	24	[0, 0, 0]	n/a	catFR1	2	R1180C
2536.48	0.007	1270090	COUNTDOWN_END	n/a	n/a	n/a	n/a	-999	24	[0, 0, 0]	n/a	catFR1	2	R1180C
2536.487	3.652	1270093	ORIENT	n/a	n/a	n/a	n/a	-999	24	[0, 0, 0]	n/a	catFR1	2	R1180C
2540.139	2.55	1271919	WORD	n/a	wordpools/wordpool_categorized_EN.txt	KNEE	BodyParts	1	24	[0, 0, 0]	n/a	catFR1	2	R1180C
2542.689	2.418	1273194	WORD	n/a	wordpools/wordpool_categorized_EN.txt	FOOT	BodyParts	2	24	[0, 0, 0]	n/a	catFR1	2	R1180C
2545.107	2.599	1274403	WORD	n/a	wordpools/wordpool_categorized_EN.txt	HORSE	FarmAnimals	3	24	[0, 0, 0]	n/a	catFR1	2	R1180C
2547.706	2.485	1275702	WORD	n/a	wordpools/wordpool_categorized_EN.txt	ROOSTER	FarmAnimals	4	24	[0, 0, 0]	n/a	catFR1	2	R1180C
2550.191	2.633	1276945	WORD	n/a	wordpools/wordpool_categorized_EN.txt	DOLLHOUSE	Toys	5	24	[0, 0, 0]	n/a	catFR1	2	R1180C
2552.824	2.418	1278261	WORD	n/a	wordpools/wordpool_categorized_EN.txt	BLOCKS	Toys	6	24	[0, 0, 0]	n/a	catFR1	2	R1180C
2555.242	0.0	1279470	WORD	n/a	wordpools/wordpool_categorized_EN.txt	HAND	BodyParts	7	24	[0, 0, 0]	n/a	catFR1	2	R1180C
