onset	duration	sample	trial_type	response_time	stim_file	item_name	category	serialpos	list	test	answer	experiment	session	subject
0.0	164.881	411499	INSTRUCT_START	n/a	n/a	n/a	n/a	-999	-999	[0, 0, 0]	n/a	catFR1	0	R1485J
164.881	120.15	576362	INSTRUCT_END	n/a	n/a	n/a	n/a	-999	-999	[0, 0, 0]	n/a	catFR1	0	R1485J
285.031	10.351	696507	COUNTDOWN_START	n/a	n/a	n/a	n/a	-999	-999	[0, 0, 0]	n/a	catFR1	0	R1485J
295.382	0.0	706855	COUNTDOWN_END	n/a	n/a	n/a	n/a	-999	-999	[0, 0, 0]	n/a	catFR1	0	R1485J
295.382	2.05	706867	ENCODING_START	n/a	n/a	n/a	n/a	-999	-1	[0, 0, 0]	n/a	catFR1	0	R1485J
297.432	1.617	708907	WORD	n/a	n/a	VAN	Vehicles	1	-1	[0, 0, 0]	n/a	catFR1	0	R1485J
299.049	0.834	710530	WORD_OFF	n/a	n/a	VAN	Vehicles	1	-1	[0, 0, 0]	n/a	catFR1	0	R1485J
299.883	1.599	711364	WORD	n/a	n/a	JEEP	Vehicles	2	-1	[0, 0, 0]	n/a	catFR1	0	R1485J
301.482	0.765	712965	WORD_OFF	n/a	n/a	JEEP	Vehicles	2	-1	[0, 0, 0]	n/a	catFR1	0	R1485J
302.247	1.602	713720	WORD	n/a	n/a	PEN	OfficeSupplies	3	-1	[0, 0, 0]	n/a	catFR1	0	R1485J
303.849	0.799	715321	WORD_OFF	n/a	n/a	PEN	OfficeSupplies	3	-1	[0, 0, 0]	n/a	catFR1	0	R1485J
304.648	1.6	716122	WORD	n/a	n/a	FOLDER	OfficeSupplies	4	-1	[0, 0, 0]	n/a	catFR1	0	R1485J
306.248	0.801	717722	WORD_OFF	n/a	n/a	FOLDER	OfficeSupplies	4	-1	[0, 0, 0]	n/a	catFR1	0	R1485J
307.049	1.6	718523	WORD	n/a	n/a	JELLYFISH	OceanAnimals	5	-1	[0, 0, 0]	n/a	catFR1	0	R1485J
308.649	0.849	720123	WORD_OFF	n/a	n/a	JELLYFISH	OceanAnimals	5	-1	[0, 0, 0]	n/a	catFR1	0	R1485J
309.498	1.601	720980	WORD	n/a	n/a	OCTOPUS	OceanAnimals	6	-1	[0, 0, 0]	n/a	catFR1	0	R1485J
311.099	0.916	722581	WORD_OFF	n/a	n/a	OCTOPUS	OceanAnimals	6	-1	[0, 0, 0]	n/a	catFR1	0	R1485J
312.015	1.617	723494	WORD	n/a	n/a	PAPER	OfficeSupplies	7	-1	[0, 0, 0]	n/a	catFR1	0	R1485J
313.632	0.8	725106	WORD_OFF	n/a	n/a	PAPER	OfficeSupplies	7	-1	[0, 0, 0]	n/a	catFR1	0	R1485J
314.432	1.615	725906	WORD	n/a	n/a	GLUE	OfficeSupplies	8	-1	[0, 0, 0]	n/a	catFR1	0	R1485J
316.047	0.918	727530	WORD_OFF	n/a	n/a	GLUE	OfficeSupplies	8	-1	[0, 0, 0]	n/a	catFR1	0	R1485J
316.965	1.617	728443	WORD	n/a	n/a	CRAB	OceanAnimals	9	-1	[0, 0, 0]	n/a	catFR1	0	R1485J
318.582	0.983	730055	WORD_OFF	n/a	n/a	CRAB	OceanAnimals	9	-1	[0, 0, 0]	n/a	catFR1	0	R1485J
319.565	1.616	731047	WORD	n/a	n/a	WHALE	OceanAnimals	10	-1	[0, 0, 0]	n/a	catFR1	0	R1485J
321.181	0.784	732659	WORD_OFF	n/a	n/a	WHALE	OceanAnimals	10	-1	[0, 0, 0]	n/a	catFR1	0	R1485J
321.965	1.617	733442	WORD	n/a	n/a	BIKE	Vehicles	11	-1	[0, 0, 0]	n/a	catFR1	0	R1485J
323.582	0.999	735060	WORD_OFF	n/a	n/a	BIKE	Vehicles	11	-1	[0, 0, 0]	n/a	catFR1	0	R1485J
324.581	1.602	736063	WORD	n/a	n/a	TRAIN	Vehicles	12	-1	[0, 0, 0]	n/a	catFR1	0	R1485J
326.183	0.0	737658	START	n/a	n/a	n/a	n/a	-999	-1	[-999, -999, -999]	n/a	catFR1	0	R1485J
326.183	0.0	737658	PROB	0.0	n/a	n/a	n/a	-999	-1	[6, 2, 8]	16	catFR1	0	R1485J
326.182	0.001	737664	WORD_OFF	n/a	n/a	TRAIN	Vehicles	12	-1	[0, 0, 0]	n/a	catFR1	0	R1485J
326.183	0.0	737664	ENCODING_END	n/a	n/a	n/a	n/a	-999	-1	[0, 0, 0]	n/a	catFR1	0	R1485J
326.183	5.599	737664	DISTRACT_START	n/a	n/a	n/a	n/a	-999	-1	[0, 0, 0]	n/a	catFR1	0	R1485J
331.782	9.383	743257	PROB	9.383	n/a	n/a	n/a	-999	-1	[4, 4, 7]	15	catFR1	0	R1485J
341.165	3.084	752640	PROB	3.084	n/a	n/a	n/a	-999	-1	[1, 3, 1]	5	catFR1	0	R1485J
344.249	5.481	755724	PROB	5.481	n/a	n/a	n/a	-999	-1	[4, 8, 6]	18	catFR1	0	R1485J
349.73	0.0	761201	DISTRACT_END	n/a	n/a	n/a	n/a	-999	-1	[0, 0, 0]	n/a	catFR1	0	R1485J
349.73	2.335	761204	STOP	n/a	n/a	n/a	n/a	-999	-1	[-999, -999, -999]	n/a	catFR1	0	R1485J
352.065	4.147	763543	REC_START	n/a	n/a	n/a	n/a	-999	-1	[0, 0, 0]	n/a	catFR1	0	R1485J
356.212	1.201	767686	REC_WORD_VV	1.201	n/a	<>	n/a	-999	-1	[0, 0, 0]	n/a	catFR1	0	R1485J
357.413	1.09	768887	REC_WORD_VV	1.09	n/a	<>	n/a	-999	-1	[0, 0, 0]	n/a	catFR1	0	R1485J
358.503	0.324	769977	REC_WORD_VV	0.324	n/a	<>	n/a	-999	-1	[0, 0, 0]	n/a	catFR1	0	R1485J
358.827	1.34	770301	REC_WORD	1.34	n/a	JEEP	Vehicles	2	-1	[0, 0, 0]	n/a	catFR1	0	R1485J
360.167	2.517	771641	REC_WORD	2.517	n/a	VAN	Vehicles	1	-1	[0, 0, 0]	n/a	catFR1	0	R1485J
362.684	2.033	774158	REC_WORD	2.033	n/a	FOLDER	OfficeSupplies	4	-1	[0, 0, 0]	n/a	catFR1	0	R1485J
364.717	3.352	776191	REC_WORD	3.352	n/a	GLUE	OfficeSupplies	8	-1	[0, 0, 0]	n/a	catFR1	0	R1485J
368.069	13.612	779543	REC_WORD	13.612	n/a	PEN	OfficeSupplies	3	-1	[0, 0, 0]	n/a	catFR1	0	R1485J
381.681	0.57	793154	REC_WORD	0.57	n/a	OCTOPUS	OceanAnimals	6	-1	[0, 0, 0]	n/a	catFR1	0	R1485J
382.251	37.513	793723	REC_END	n/a	n/a	n/a	n/a	-999	-1	[0, 0, 0]	n/a	catFR1	0	R1485J
419.764	10.351	831239	COUNTDOWN_START	n/a	n/a	n/a	n/a	-999	1	[0, 0, 0]	n/a	catFR1	0	R1485J
430.115	0.0	841587	COUNTDOWN_END	n/a	n/a	n/a	n/a	-999	1	[0, 0, 0]	n/a	catFR1	0	R1485J
430.115	2.198	841587	ENCODING_START	n/a	n/a	n/a	n/a	-999	1	[0, 0, 0]	n/a	catFR1	0	R1485J
432.313	1.601	843785	WORD	n/a	wordpools/wordpool_categorized_EN.txt	MILK	Beverages	1	1	[0, 0, 0]	n/a	catFR1	0	R1485J
433.914	0.967	845386	WORD_OFF	n/a	n/a	MILK	Beverages	1	1	[0, 0, 0]	n/a	catFR1	0	R1485J
434.881	1.616	846355	WORD	n/a	wordpools/wordpool_categorized_EN.txt	TEA	Beverages	2	1	[0, 0, 0]	n/a	catFR1	0	R1485J
436.497	0.783	847967	WORD_OFF	n/a	n/a	TEA	Beverages	2	1	[0, 0, 0]	n/a	catFR1	0	R1485J
437.28	1.601	848756	WORD	n/a	wordpools/wordpool_categorized_EN.txt	GRATER	KitchenTools	3	1	[0, 0, 0]	n/a	catFR1	0	R1485J
438.881	0.933	850357	WORD_OFF	n/a	n/a	GRATER	KitchenTools	3	1	[0, 0, 0]	n/a	catFR1	0	R1485J
439.814	1.601	851281	WORD	n/a	wordpools/wordpool_categorized_EN.txt	KNIFE	KitchenTools	4	1	[0, 0, 0]	n/a	catFR1	0	R1485J
441.415	0.983	852882	WORD_OFF	n/a	n/a	KNIFE	KitchenTools	4	1	[0, 0, 0]	n/a	catFR1	0	R1485J
442.398	1.6	853874	WORD	n/a	wordpools/wordpool_categorized_EN.txt	TIGER	Zoo	5	1	[0, 0, 0]	n/a	catFR1	0	R1485J
443.998	0.966	855464	WORD_OFF	n/a	n/a	TIGER	Zoo	5	1	[0, 0, 0]	n/a	catFR1	0	R1485J
444.964	1.6	856433	WORD	n/a	wordpools/wordpool_categorized_EN.txt	CHEETAH	Zoo	6	1	[0, 0, 0]	n/a	catFR1	0	R1485J
446.564	0.918	858034	WORD_OFF	n/a	n/a	CHEETAH	Zoo	6	1	[0, 0, 0]	n/a	catFR1	0	R1485J
447.482	1.615	858958	WORD	n/a	wordpools/wordpool_categorized_EN.txt	COFFEE	Beverages	7	1	[0, 0, 0]	n/a	catFR1	0	R1485J
449.097	0.934	860570	WORD_OFF	n/a	n/a	COFFEE	Beverages	7	1	[0, 0, 0]	n/a	catFR1	0	R1485J
450.031	1.616	861506	WORD	n/a	wordpools/wordpool_categorized_EN.txt	LEMONADE	Beverages	8	1	[0, 0, 0]	n/a	catFR1	0	R1485J
451.647	0.884	863118	WORD_OFF	n/a	n/a	LEMONADE	Beverages	8	1	[0, 0, 0]	n/a	catFR1	0	R1485J
452.531	1.6	863997	WORD	n/a	wordpools/wordpool_categorized_EN.txt	MONKEY	Zoo	9	1	[0, 0, 0]	n/a	catFR1	0	R1485J
454.131	0.783	865598	WORD_OFF	n/a	n/a	MONKEY	Zoo	9	1	[0, 0, 0]	n/a	catFR1	0	R1485J
454.914	1.616	866387	WORD	n/a	wordpools/wordpool_categorized_EN.txt	BEAR	Zoo	10	1	[0, 0, 0]	n/a	catFR1	0	R1485J
456.53	0.934	867999	WORD_OFF	n/a	n/a	BEAR	Zoo	10	1	[0, 0, 0]	n/a	catFR1	0	R1485J
457.464	1.616	868935	WORD	n/a	wordpools/wordpool_categorized_EN.txt	WHISK	KitchenTools	11	1	[0, 0, 0]	n/a	catFR1	0	R1485J
459.08	0.951	870547	WORD_OFF	n/a	n/a	WHISK	KitchenTools	11	1	[0, 0, 0]	n/a	catFR1	0	R1485J
460.031	1.616	871505	WORD	n/a	wordpools/wordpool_categorized_EN.txt	STRAINER	KitchenTools	12	1	[0, 0, 0]	n/a	catFR1	0	R1485J
461.647	0.001	873117	WORD_OFF	n/a	n/a	STRAINER	KitchenTools	12	1	[0, 0, 0]	n/a	catFR1	0	R1485J
461.648	0.0	873117	ENCODING_END	n/a	n/a	n/a	n/a	-999	1	[0, 0, 0]	n/a	catFR1	0	R1485J
461.648	0.0	873118	START	n/a	n/a	n/a	n/a	-999	1	[-999, -999, -999]	n/a	catFR1	0	R1485J
461.648	0.0	873118	PROB	0.0	n/a	n/a	n/a	-999	1	[2, 5, 3]	10	catFR1	0	R1485J
461.648	5.216	873128	DISTRACT_START	n/a	n/a	n/a	n/a	-999	1	[0, 0, 0]	n/a	catFR1	0	R1485J
466.864	3.617	878334	PROB	3.617	n/a	n/a	n/a	-999	1	[3, 6, 1]	10	catFR1	0	R1485J
470.481	3.434	881950	PROB	3.434	n/a	n/a	n/a	-999	1	[2, 1, 6]	9	catFR1	0	R1485J
473.915	7.666	885384	PROB	7.666	n/a	n/a	n/a	-999	1	[5, 7, 4]	16	catFR1	0	R1485J
481.581	4.049	893050	PROB	4.049	n/a	n/a	n/a	-999	1	[3, 6, 4]	13	catFR1	0	R1485J
485.63	0.0	897099	STOP	n/a	n/a	n/a	n/a	-999	1	[-999, -999, -999]	n/a	catFR1	0	R1485J
485.63	2.267	897105	DISTRACT_END	n/a	n/a	n/a	n/a	-999	1	[0, 0, 0]	n/a	catFR1	0	R1485J
487.897	22.294	899368	REC_START	n/a	n/a	n/a	n/a	-999	1	[0, 0, 0]	n/a	catFR1	0	R1485J
510.191	1.561	921659	REC_WORD	1.561	n/a	CHEETAH	Zoo	6	1	[0, 0, 0]	n/a	catFR1	0	R1485J
511.752	1.914	923220	REC_WORD	1.914	n/a	TIGER	Zoo	5	1	[0, 0, 0]	n/a	catFR1	0	R1485J
513.666	4.409	925134	REC_WORD	4.409	n/a	MILK	Beverages	1	1	[0, 0, 0]	n/a	catFR1	0	R1485J
518.075	6.507	929548	REC_END	n/a	n/a	n/a	n/a	-999	1	[0, 0, 0]	n/a	catFR1	0	R1485J
524.582	10.349	936052	COUNTDOWN_START	n/a	n/a	n/a	n/a	-999	2	[0, 0, 0]	n/a	catFR1	0	R1485J
534.931	0.0	946401	COUNTDOWN_END	n/a	n/a	n/a	n/a	-999	2	[0, 0, 0]	n/a	catFR1	0	R1485J
534.931	1.966	946401	ENCODING_START	n/a	n/a	n/a	n/a	-999	2	[0, 0, 0]	n/a	catFR1	0	R1485J
536.897	1.6	948362	WORD	n/a	wordpools/wordpool_categorized_EN.txt	CUCUMBER	Vegetables	1	2	[0, 0, 0]	n/a	catFR1	0	R1485J
538.497	0.801	949963	WORD_OFF	n/a	n/a	CUCUMBER	Vegetables	1	2	[0, 0, 0]	n/a	catFR1	0	R1485J
539.298	1.616	950763	WORD	n/a	wordpools/wordpool_categorized_EN.txt	CAULIFLOWER	Vegetables	2	2	[0, 0, 0]	n/a	catFR1	0	R1485J
540.914	0.816	952386	WORD_OFF	n/a	n/a	CAULIFLOWER	Vegetables	2	2	[0, 0, 0]	n/a	catFR1	0	R1485J
541.73	1.601	953198	WORD	n/a	wordpools/wordpool_categorized_EN.txt	FINGERS	BodyParts	3	2	[0, 0, 0]	n/a	catFR1	0	R1485J
543.331	1.0	954799	WORD_OFF	n/a	n/a	FINGERS	BodyParts	3	2	[0, 0, 0]	n/a	catFR1	0	R1485J
544.331	1.616	955802	WORD	n/a	wordpools/wordpool_categorized_EN.txt	KNEE	BodyParts	4	2	[0, 0, 0]	n/a	catFR1	0	R1485J
545.947	0.818	957414	WORD_OFF	n/a	n/a	KNEE	BodyParts	4	2	[0, 0, 0]	n/a	catFR1	0	R1485J
546.765	1.6	958237	WORD	n/a	wordpools/wordpool_categorized_EN.txt	FOUNDATION	Building	5	2	[0, 0, 0]	n/a	catFR1	0	R1485J
548.365	0.932	959838	WORD_OFF	n/a	n/a	FOUNDATION	Building	5	2	[0, 0, 0]	n/a	catFR1	0	R1485J
549.297	1.617	960762	WORD	n/a	wordpools/wordpool_categorized_EN.txt	FLOOR	Building	6	2	[0, 0, 0]	n/a	catFR1	0	R1485J
550.914	0.834	962385	WORD_OFF	n/a	n/a	FLOOR	Building	6	2	[0, 0, 0]	n/a	catFR1	0	R1485J
551.748	1.615	963220	WORD	n/a	wordpools/wordpool_categorized_EN.txt	LETTUCE	Vegetables	7	2	[0, 0, 0]	n/a	catFR1	0	R1485J
553.363	0.767	964832	WORD_OFF	n/a	n/a	LETTUCE	Vegetables	7	2	[0, 0, 0]	n/a	catFR1	0	R1485J
554.13	1.616	965598	WORD	n/a	wordpools/wordpool_categorized_EN.txt	CARROT	Vegetables	8	2	[0, 0, 0]	n/a	catFR1	0	R1485J
555.746	0.935	967210	WORD_OFF	n/a	n/a	CARROT	Vegetables	8	2	[0, 0, 0]	n/a	catFR1	0	R1485J
556.681	1.616	968146	WORD	n/a	wordpools/wordpool_categorized_EN.txt	TOE	BodyParts	9	2	[0, 0, 0]	n/a	catFR1	0	R1485J
558.297	0.816	969769	WORD_OFF	n/a	n/a	TOE	BodyParts	9	2	[0, 0, 0]	n/a	catFR1	0	R1485J
559.113	1.602	970581	WORD	n/a	wordpools/wordpool_categorized_EN.txt	HAND	BodyParts	10	2	[0, 0, 0]	n/a	catFR1	0	R1485J
560.715	0.849	972181	WORD_OFF	n/a	n/a	HAND	BodyParts	10	2	[0, 0, 0]	n/a	catFR1	0	R1485J
561.564	1.617	973027	WORD	n/a	wordpools/wordpool_categorized_EN.txt	CEILING	Building	11	2	[0, 0, 0]	n/a	catFR1	0	R1485J
563.181	0.832	974650	WORD_OFF	n/a	n/a	CEILING	Building	11	2	[0, 0, 0]	n/a	catFR1	0	R1485J
564.013	1.616	975484	WORD	n/a	wordpools/wordpool_categorized_EN.txt	WINDOW	Building	12	2	[0, 0, 0]	n/a	catFR1	0	R1485J
565.629	0.001	977095	PROB	0.001	n/a	n/a	n/a	-999	2	[2, 2, 5]	9	catFR1	0	R1485J
565.63	0.001	977096	WORD_OFF	n/a	n/a	WINDOW	Building	12	2	[0, 0, 0]	n/a	catFR1	0	R1485J
565.631	0.0	977096	ENCODING_END	n/a	n/a	n/a	n/a	-999	2	[0, 0, 0]	n/a	catFR1	0	R1485J
565.631	0.0	977096	DISTRACT_START	n/a	n/a	n/a	n/a	-999	2	[0, 0, 0]	n/a	catFR1	0	R1485J
565.631	4.916	977097	START	n/a	n/a	n/a	n/a	-999	2	[-999, -999, -999]	n/a	catFR1	0	R1485J
570.547	5.1	982012	PROB	5.1	n/a	n/a	n/a	-999	2	[3, 2, 2]	7	catFR1	0	R1485J
575.647	3.834	987112	PROB	3.834	n/a	n/a	n/a	-999	2	[1, 1, 6]	8	catFR1	0	R1485J
579.481	3.05	990946	PROB	3.05	n/a	n/a	n/a	-999	2	[1, 1, 1]	3	catFR1	0	R1485J
582.531	5.333	993996	PROB	5.333	n/a	n/a	n/a	-999	2	[5, 2, 7]	14	catFR1	0	R1485J
587.864	0.0	999326	DISTRACT_END	n/a	n/a	n/a	n/a	-999	2	[0, 0, 0]	n/a	catFR1	0	R1485J
587.864	2.283	999329	STOP	n/a	n/a	n/a	n/a	-999	2	[-999, -999, -999]	n/a	catFR1	0	R1485J
590.147	1.506	1001611	REC_START	n/a	n/a	n/a	n/a	-999	2	[0, 0, 0]	n/a	catFR1	0	R1485J
591.653	1.642	1003118	REC_WORD	1.642	n/a	CUCUMBER	Vegetables	1	2	[0, 0, 0]	n/a	catFR1	0	R1485J
593.295	10.104	1004759	REC_WORD	10.104	n/a	CAULIFLOWER	Vegetables	2	2	[0, 0, 0]	n/a	catFR1	0	R1485J
603.399	15.242	1014863	REC_WORD	15.242	n/a	LETTUCE	Vegetables	7	2	[0, 0, 0]	n/a	catFR1	0	R1485J
618.641	1.723	1030104	REC_WORD	1.723	n/a	CARROT	Vegetables	8	2	[0, 0, 0]	n/a	catFR1	0	R1485J
620.364	11.367	1031825	REC_END	n/a	n/a	n/a	n/a	-999	2	[0, 0, 0]	n/a	catFR1	0	R1485J
631.731	10.35	1043199	COUNTDOWN_START	n/a	n/a	n/a	n/a	-999	3	[0, 0, 0]	n/a	catFR1	0	R1485J
642.081	0.0	1053548	COUNTDOWN_END	n/a	n/a	n/a	n/a	-999	3	[0, 0, 0]	n/a	catFR1	0	R1485J
642.081	2.318	1053548	ENCODING_START	n/a	n/a	n/a	n/a	-999	3	[0, 0, 0]	n/a	catFR1	0	R1485J
644.399	1.615	1055859	WORD	n/a	wordpools/wordpool_categorized_EN.txt	STAPLER	OfficeSupplies	1	3	[0, 0, 0]	n/a	catFR1	0	R1485J
646.014	0.85	1057482	WORD_OFF	n/a	n/a	STAPLER	OfficeSupplies	1	3	[0, 0, 0]	n/a	catFR1	0	R1485J
646.864	1.6	1058327	WORD	n/a	wordpools/wordpool_categorized_EN.txt	TAPE	OfficeSupplies	2	3	[0, 0, 0]	n/a	catFR1	0	R1485J
648.464	0.867	1059928	WORD_OFF	n/a	n/a	TAPE	OfficeSupplies	2	3	[0, 0, 0]	n/a	catFR1	0	R1485J
649.331	1.6	1060796	WORD	n/a	wordpools/wordpool_categorized_EN.txt	AXE	Tools	3	3	[0, 0, 0]	n/a	catFR1	0	R1485J
650.931	0.85	1062397	WORD_OFF	n/a	n/a	AXE	Tools	3	3	[0, 0, 0]	n/a	catFR1	0	R1485J
651.781	1.6	1063242	WORD	n/a	wordpools/wordpool_categorized_EN.txt	SHOVEL	Tools	4	3	[0, 0, 0]	n/a	catFR1	0	R1485J
653.381	0.85	1064843	WORD_OFF	n/a	n/a	SHOVEL	Tools	4	3	[0, 0, 0]	n/a	catFR1	0	R1485J
654.231	1.616	1065700	WORD	n/a	wordpools/wordpool_categorized_EN.txt	PEELER	KitchenTools	5	3	[0, 0, 0]	n/a	catFR1	0	R1485J
655.847	0.784	1067312	WORD_OFF	n/a	n/a	PEELER	KitchenTools	5	3	[0, 0, 0]	n/a	catFR1	0	R1485J
656.631	1.616	1068090	WORD	n/a	wordpools/wordpool_categorized_EN.txt	TONGS	KitchenTools	6	3	[0, 0, 0]	n/a	catFR1	0	R1485J
658.247	0.867	1069713	WORD_OFF	n/a	n/a	TONGS	KitchenTools	6	3	[0, 0, 0]	n/a	catFR1	0	R1485J
659.114	1.6	1070581	WORD	n/a	wordpools/wordpool_categorized_EN.txt	SAW	Tools	7	3	[0, 0, 0]	n/a	catFR1	0	R1485J
660.714	0.766	1072182	WORD_OFF	n/a	n/a	SAW	Tools	7	3	[0, 0, 0]	n/a	catFR1	0	R1485J
661.48	1.618	1072948	WORD	n/a	wordpools/wordpool_categorized_EN.txt	SCREWDRIVER	Tools	8	3	[0, 0, 0]	n/a	catFR1	0	R1485J
663.098	0.832	1074560	WORD_OFF	n/a	n/a	SCREWDRIVER	Tools	8	3	[0, 0, 0]	n/a	catFR1	0	R1485J
663.93	1.601	1075394	WORD	n/a	wordpools/wordpool_categorized_EN.txt	CORKSCREW	KitchenTools	9	3	[0, 0, 0]	n/a	catFR1	0	R1485J
665.531	0.782	1076995	WORD_OFF	n/a	n/a	CORKSCREW	KitchenTools	9	3	[0, 0, 0]	n/a	catFR1	0	R1485J
666.313	1.616	1077773	WORD	n/a	wordpools/wordpool_categorized_EN.txt	SPOON	KitchenTools	10	3	[0, 0, 0]	n/a	catFR1	0	R1485J
667.929	0.852	1079396	WORD_OFF	n/a	n/a	SPOON	KitchenTools	10	3	[0, 0, 0]	n/a	catFR1	0	R1485J
668.781	1.616	1080242	WORD	n/a	wordpools/wordpool_categorized_EN.txt	MARKER	OfficeSupplies	11	3	[0, 0, 0]	n/a	catFR1	0	R1485J
670.397	0.816	1081865	WORD_OFF	n/a	n/a	MARKER	OfficeSupplies	11	3	[0, 0, 0]	n/a	catFR1	0	R1485J
671.213	1.601	1082677	WORD	n/a	wordpools/wordpool_categorized_EN.txt	NOTEBOOK	OfficeSupplies	12	3	[0, 0, 0]	n/a	catFR1	0	R1485J
672.814	0.001	1084275	PROB	0.001	n/a	n/a	n/a	-999	3	[3, 7, 7]	17	catFR1	0	R1485J
672.815	0.0	1084276	START	n/a	n/a	n/a	n/a	-999	3	[-999, -999, -999]	n/a	catFR1	0	R1485J
672.814	0.001	1084277	WORD_OFF	n/a	n/a	NOTEBOOK	OfficeSupplies	12	3	[0, 0, 0]	n/a	catFR1	0	R1485J
672.815	0.0	1084277	ENCODING_END	n/a	n/a	n/a	n/a	-999	3	[0, 0, 0]	n/a	catFR1	0	R1485J
672.815	4.683	1084277	DISTRACT_START	n/a	n/a	n/a	n/a	-999	3	[0, 0, 0]	n/a	catFR1	0	R1485J
677.498	17.216	1088959	PROB	17.216	n/a	n/a	n/a	-999	3	[5, 6, 7]	18	catFR1	0	R1485J
694.714	0.0	1106169	DISTRACT_END	n/a	n/a	n/a	n/a	-999	3	[0, 0, 0]	n/a	catFR1	0	R1485J
694.714	2.382	1106174	STOP	n/a	n/a	n/a	n/a	-999	3	[-999, -999, -999]	n/a	catFR1	0	R1485J
697.096	3.469	1108555	REC_START	n/a	n/a	n/a	n/a	-999	3	[0, 0, 0]	n/a	catFR1	0	R1485J
700.565	0.936	1112025	REC_WORD_VV	0.936	n/a	<>	n/a	-999	3	[0, 0, 0]	n/a	catFR1	0	R1485J
701.501	25.803	1112961	REC_WORD	25.803	n/a	STAPLER	OfficeSupplies	1	3	[0, 0, 0]	n/a	catFR1	0	R1485J
727.304	6.743	1138758	REC_END	n/a	n/a	n/a	n/a	-999	3	[0, 0, 0]	n/a	catFR1	0	R1485J
734.047	10.351	1145511	COUNTDOWN_START	n/a	n/a	n/a	n/a	-999	4	[0, 0, 0]	n/a	catFR1	0	R1485J
744.398	0.0	1155859	COUNTDOWN_END	n/a	n/a	n/a	n/a	-999	4	[0, 0, 0]	n/a	catFR1	0	R1485J
744.398	2.049	1155859	ENCODING_START	n/a	n/a	n/a	n/a	-999	4	[0, 0, 0]	n/a	catFR1	0	R1485J
746.447	1.601	1157911	WORD	n/a	wordpools/wordpool_categorized_EN.txt	MOPED	Vehicles	1	4	[0, 0, 0]	n/a	catFR1	0	R1485J
748.048	0.833	1159511	WORD_OFF	n/a	n/a	MOPED	Vehicles	1	4	[0, 0, 0]	n/a	catFR1	0	R1485J
748.881	1.616	1160334	WORD	n/a	wordpools/wordpool_categorized_EN.txt	TRUCK	Vehicles	2	4	[0, 0, 0]	n/a	catFR1	0	R1485J
750.497	0.767	1161958	WORD_OFF	n/a	n/a	TRUCK	Vehicles	2	4	[0, 0, 0]	n/a	catFR1	0	R1485J
751.264	1.617	1162724	WORD	n/a	wordpools/wordpool_categorized_EN.txt	TOASTER	Appliances	3	4	[0, 0, 0]	n/a	catFR1	0	R1485J
752.881	0.833	1164336	WORD_OFF	n/a	n/a	TOASTER	Appliances	3	4	[0, 0, 0]	n/a	catFR1	0	R1485J
753.714	1.6	1165170	WORD	n/a	wordpools/wordpool_categorized_EN.txt	DISHWASHER	Appliances	4	4	[0, 0, 0]	n/a	catFR1	0	R1485J
755.314	0.983	1166771	WORD_OFF	n/a	n/a	DISHWASHER	Appliances	4	4	[0, 0, 0]	n/a	catFR1	0	R1485J
756.297	1.617	1167752	WORD	n/a	wordpools/wordpool_categorized_EN.txt	ROOF	Building	5	4	[0, 0, 0]	n/a	catFR1	0	R1485J
757.914	0.932	1169375	WORD_OFF	n/a	n/a	ROOF	Building	5	4	[0, 0, 0]	n/a	catFR1	0	R1485J
758.846	1.602	1170299	WORD	n/a	wordpools/wordpool_categorized_EN.txt	STAIRS	Building	6	4	[0, 0, 0]	n/a	catFR1	0	R1485J
760.448	0.799	1171911	WORD_OFF	n/a	n/a	STAIRS	Building	6	4	[0, 0, 0]	n/a	catFR1	0	R1485J
761.247	1.617	1172700	WORD	n/a	wordpools/wordpool_categorized_EN.txt	WASHER	Appliances	7	4	[0, 0, 0]	n/a	catFR1	0	R1485J
762.864	0.883	1174324	WORD_OFF	n/a	n/a	WASHER	Appliances	7	4	[0, 0, 0]	n/a	catFR1	0	R1485J
763.747	1.617	1175203	WORD	n/a	wordpools/wordpool_categorized_EN.txt	DRYER	Appliances	8	4	[0, 0, 0]	n/a	catFR1	0	R1485J
765.364	0.982	1176826	WORD_OFF	n/a	n/a	DRYER	Appliances	8	4	[0, 0, 0]	n/a	catFR1	0	R1485J
766.346	1.601	1177807	WORD	n/a	wordpools/wordpool_categorized_EN.txt	BATHROOM	Building	9	4	[0, 0, 0]	n/a	catFR1	0	R1485J
767.947	0.9	1179408	WORD_OFF	n/a	n/a	BATHROOM	Building	9	4	[0, 0, 0]	n/a	catFR1	0	R1485J
768.847	1.6	1180310	WORD	n/a	wordpools/wordpool_categorized_EN.txt	HALLWAY	Building	10	4	[0, 0, 0]	n/a	catFR1	0	R1485J
770.447	0.8	1181910	WORD_OFF	n/a	n/a	HALLWAY	Building	10	4	[0, 0, 0]	n/a	catFR1	0	R1485J
771.247	1.6	1182699	WORD	n/a	wordpools/wordpool_categorized_EN.txt	BOAT	Vehicles	11	4	[0, 0, 0]	n/a	catFR1	0	R1485J
772.847	0.767	1184300	WORD_OFF	n/a	n/a	BOAT	Vehicles	11	4	[0, 0, 0]	n/a	catFR1	0	R1485J
773.614	1.6	1185067	WORD	n/a	wordpools/wordpool_categorized_EN.txt	PLANE	Vehicles	12	4	[0, 0, 0]	n/a	catFR1	0	R1485J
775.214	0.001	1186667	WORD_OFF	n/a	n/a	PLANE	Vehicles	12	4	[0, 0, 0]	n/a	catFR1	0	R1485J
775.215	0.0	1186672	START	n/a	n/a	n/a	n/a	-999	4	[-999, -999, -999]	n/a	catFR1	0	R1485J
775.215	0.0	1186672	PROB	0.0	n/a	n/a	n/a	-999	4	[4, 3, 2]	9	catFR1	0	R1485J
775.215	0.0	1186679	ENCODING_END	n/a	n/a	n/a	n/a	-999	4	[0, 0, 0]	n/a	catFR1	0	R1485J
775.215	6.216	1186679	DISTRACT_START	n/a	n/a	n/a	n/a	-999	4	[0, 0, 0]	n/a	catFR1	0	R1485J
781.431	5.332	1192888	PROB	5.332	n/a	n/a	n/a	-999	4	[1, 7, 8]	16	catFR1	0	R1485J
786.763	7.834	1198219	PROB	7.834	n/a	n/a	n/a	-999	4	[3, 6, 5]	14	catFR1	0	R1485J
794.597	4.8	1206053	PROB	4.8	n/a	n/a	n/a	-999	4	[3, 2, 3]	8	catFR1	0	R1485J
799.397	0.0	1210853	STOP	n/a	n/a	n/a	n/a	-999	4	[-999, -999, -999]	n/a	catFR1	0	R1485J
799.397	2.116	1210859	DISTRACT_END	n/a	n/a	n/a	n/a	-999	4	[0, 0, 0]	n/a	catFR1	0	R1485J
801.513	3.519	1212975	REC_START	n/a	n/a	n/a	n/a	-999	4	[0, 0, 0]	n/a	catFR1	0	R1485J
805.032	26.686	1216488	REC_WORD	26.686	n/a	BATHROOM	Building	9	4	[0, 0, 0]	n/a	catFR1	0	R1485J
831.718	3.747	1243178	REC_END	n/a	n/a	n/a	n/a	-999	4	[0, 0, 0]	n/a	catFR1	0	R1485J
835.465	10.35	1246920	COUNTDOWN_START	n/a	n/a	n/a	n/a	-999	5	[0, 0, 0]	n/a	catFR1	0	R1485J
845.815	0.0	1257268	COUNTDOWN_END	n/a	n/a	n/a	n/a	-999	5	[0, 0, 0]	n/a	catFR1	0	R1485J
845.815	2.017	1257268	ENCODING_START	n/a	n/a	n/a	n/a	-999	5	[0, 0, 0]	n/a	catFR1	0	R1485J
847.832	1.615	1259286	WORD	n/a	wordpools/wordpool_categorized_EN.txt	MOTORCYCLE	Vehicles	1	5	[0, 0, 0]	n/a	catFR1	0	R1485J
849.447	0.935	1260898	WORD_OFF	n/a	n/a	MOTORCYCLE	Vehicles	1	5	[0, 0, 0]	n/a	catFR1	0	R1485J
850.382	1.6	1261834	WORD	n/a	wordpools/wordpool_categorized_EN.txt	CAR	Vehicles	2	5	[0, 0, 0]	n/a	catFR1	0	R1485J
851.982	0.95	1263435	WORD_OFF	n/a	n/a	CAR	Vehicles	2	5	[0, 0, 0]	n/a	catFR1	0	R1485J
852.932	1.615	1264393	WORD	n/a	wordpools/wordpool_categorized_EN.txt	CAKE	Desserts	3	5	[0, 0, 0]	n/a	catFR1	0	R1485J
854.547	0.885	1266005	WORD_OFF	n/a	n/a	CAKE	Desserts	3	5	[0, 0, 0]	n/a	catFR1	0	R1485J
855.432	1.6	1266884	WORD	n/a	wordpools/wordpool_categorized_EN.txt	COBBLER	Desserts	4	5	[0, 0, 0]	n/a	catFR1	0	R1485J
857.032	0.933	1268485	WORD_OFF	n/a	n/a	COBBLER	Desserts	4	5	[0, 0, 0]	n/a	catFR1	0	R1485J
857.965	1.617	1269420	WORD	n/a	wordpools/wordpool_categorized_EN.txt	SPEAKER	Electronics	5	5	[0, 0, 0]	n/a	catFR1	0	R1485J
859.582	0.949	1271032	WORD_OFF	n/a	n/a	SPEAKER	Electronics	5	5	[0, 0, 0]	n/a	catFR1	0	R1485J
860.531	1.6	1271979	WORD	n/a	wordpools/wordpool_categorized_EN.txt	HEADPHONES	Electronics	6	5	[0, 0, 0]	n/a	catFR1	0	R1485J
862.131	0.85	1273591	WORD_OFF	n/a	n/a	HEADPHONES	Electronics	6	5	[0, 0, 0]	n/a	catFR1	0	R1485J
862.981	1.601	1274437	WORD	n/a	wordpools/wordpool_categorized_EN.txt	SCOOTER	Vehicles	7	5	[0, 0, 0]	n/a	catFR1	0	R1485J
864.582	0.967	1276037	WORD_OFF	n/a	n/a	SCOOTER	Vehicles	7	5	[0, 0, 0]	n/a	catFR1	0	R1485J
865.549	1.616	1277007	WORD	n/a	wordpools/wordpool_categorized_EN.txt	BUS	Vehicles	8	5	[0, 0, 0]	n/a	catFR1	0	R1485J
867.165	0.934	1278619	WORD_OFF	n/a	n/a	BUS	Vehicles	8	5	[0, 0, 0]	n/a	catFR1	0	R1485J
868.099	1.6	1279555	WORD	n/a	wordpools/wordpool_categorized_EN.txt	PHONE	Electronics	9	5	[0, 0, 0]	n/a	catFR1	0	R1485J
869.699	1.0	1281155	WORD_OFF	n/a	n/a	PHONE	Electronics	9	5	[0, 0, 0]	n/a	catFR1	0	R1485J
870.699	1.617	1282159	WORD	n/a	wordpools/wordpool_categorized_EN.txt	TELEVISION	Electronics	10	5	[0, 0, 0]	n/a	catFR1	0	R1485J
872.316	0.866	1283771	WORD_OFF	n/a	n/a	TELEVISION	Electronics	10	5	[0, 0, 0]	n/a	catFR1	0	R1485J
873.182	1.617	1284639	WORD	n/a	wordpools/wordpool_categorized_EN.txt	MOUSSE	Desserts	11	5	[0, 0, 0]	n/a	catFR1	0	R1485J
874.799	0.783	1286251	WORD_OFF	n/a	n/a	MOUSSE	Desserts	11	5	[0, 0, 0]	n/a	catFR1	0	R1485J
875.582	1.617	1287040	WORD	n/a	wordpools/wordpool_categorized_EN.txt	JELLO	Desserts	12	5	[0, 0, 0]	n/a	catFR1	0	R1485J
877.199	0.001	1288652	WORD_OFF	n/a	n/a	JELLO	Desserts	12	5	[0, 0, 0]	n/a	catFR1	0	R1485J
877.2	0.0	1288652	ENCODING_END	n/a	n/a	n/a	n/a	-999	5	[0, 0, 0]	n/a	catFR1	0	R1485J
877.2	0.0	1288652	DISTRACT_START	n/a	n/a	n/a	n/a	-999	5	[0, 0, 0]	n/a	catFR1	0	R1485J
877.199	0.001	1288652	PROB	0.001	n/a	n/a	n/a	-999	5	[3, 7, 6]	16	catFR1	0	R1485J
877.2	4.482	1288653	START	n/a	n/a	n/a	n/a	-999	5	[-999, -999, -999]	n/a	catFR1	0	R1485J
881.682	3.4	1293134	PROB	3.4	n/a	n/a	n/a	-999	5	[7, 3, 5]	15	catFR1	0	R1485J
885.082	3.366	1296534	PROB	3.366	n/a	n/a	n/a	-999	5	[1, 1, 6]	8	catFR1	0	R1485J
888.448	5.235	1299900	PROB	5.235	n/a	n/a	n/a	-999	5	[5, 4, 8]	17	catFR1	0	R1485J
893.683	5.149	1305135	PROB	5.149	n/a	n/a	n/a	-999	5	[1, 2, 5]	8	catFR1	0	R1485J
898.832	0.0	1310284	DISTRACT_END	n/a	n/a	n/a	n/a	-999	5	[0, 0, 0]	n/a	catFR1	0	R1485J
898.832	2.199	1310284	STOP	n/a	n/a	n/a	n/a	-999	5	[-999, -999, -999]	n/a	catFR1	0	R1485J
901.031	1.054	1312479	REC_START	n/a	n/a	n/a	n/a	-999	5	[0, 0, 0]	n/a	catFR1	0	R1485J
902.085	1.528	1313537	REC_WORD	1.528	n/a	MOTORCYCLE	Vehicles	1	5	[0, 0, 0]	n/a	catFR1	0	R1485J
903.613	2.315	1315065	REC_WORD	2.315	n/a	CAR	Vehicles	2	5	[0, 0, 0]	n/a	catFR1	0	R1485J
905.928	25.323	1317380	REC_WORD_VV	25.323	n/a	<>	n/a	-999	5	[0, 0, 0]	n/a	catFR1	0	R1485J
931.251	5.313	1342704	REC_END	n/a	n/a	n/a	n/a	-999	5	[0, 0, 0]	n/a	catFR1	0	R1485J
936.564	10.351	1348014	COUNTDOWN_START	n/a	n/a	n/a	n/a	-999	6	[0, 0, 0]	n/a	catFR1	0	R1485J
946.915	0.0	1358362	COUNTDOWN_END	n/a	n/a	n/a	n/a	-999	6	[0, 0, 0]	n/a	catFR1	0	R1485J
946.915	2.184	1358362	ENCODING_START	n/a	n/a	n/a	n/a	-999	6	[0, 0, 0]	n/a	catFR1	0	R1485J
949.099	1.6	1360560	WORD	n/a	wordpools/wordpool_categorized_EN.txt	DAISY	Flowers	1	6	[0, 0, 0]	n/a	catFR1	0	R1485J
950.699	0.982	1362150	WORD_OFF	n/a	n/a	DAISY	Flowers	1	6	[0, 0, 0]	n/a	catFR1	0	R1485J
951.681	1.601	1363131	WORD	n/a	wordpools/wordpool_categorized_EN.txt	PETUNIA	Flowers	2	6	[0, 0, 0]	n/a	catFR1	0	R1485J
953.282	0.817	1364731	WORD_OFF	n/a	n/a	PETUNIA	Flowers	2	6	[0, 0, 0]	n/a	catFR1	0	R1485J
954.099	1.599	1365554	WORD	n/a	wordpools/wordpool_categorized_EN.txt	BLOUSE	Clothing	3	6	[0, 0, 0]	n/a	catFR1	0	R1485J
955.698	0.967	1367144	WORD_OFF	n/a	n/a	BLOUSE	Clothing	3	6	[0, 0, 0]	n/a	catFR1	0	R1485J
956.665	1.616	1368113	WORD	n/a	wordpools/wordpool_categorized_EN.txt	COAT	Clothing	4	6	[0, 0, 0]	n/a	catFR1	0	R1485J
958.281	0.8	1369736	WORD_OFF	n/a	n/a	COAT	Clothing	4	6	[0, 0, 0]	n/a	catFR1	0	R1485J
959.081	1.601	1370537	WORD	n/a	wordpools/wordpool_categorized_EN.txt	CUPCAKE	Desserts	5	6	[0, 0, 0]	n/a	catFR1	0	R1485J
960.682	1.0	1372137	WORD_OFF	n/a	n/a	CUPCAKE	Desserts	5	6	[0, 0, 0]	n/a	catFR1	0	R1485J
961.682	1.616	1373129	WORD	n/a	wordpools/wordpool_categorized_EN.txt	PASTRY	Desserts	6	6	[0, 0, 0]	n/a	catFR1	0	R1485J
963.298	0.934	1374753	WORD_OFF	n/a	n/a	PASTRY	Desserts	6	6	[0, 0, 0]	n/a	catFR1	0	R1485J
964.232	1.6	1375677	WORD	n/a	wordpools/wordpool_categorized_EN.txt	SUNFLOWER	Flowers	7	6	[0, 0, 0]	n/a	catFR1	0	R1485J
965.832	0.783	1377278	WORD_OFF	n/a	n/a	SUNFLOWER	Flowers	7	6	[0, 0, 0]	n/a	catFR1	0	R1485J
966.615	1.6	1378067	WORD	n/a	wordpools/wordpool_categorized_EN.txt	LILAC	Flowers	8	6	[0, 0, 0]	n/a	catFR1	0	R1485J
968.215	0.867	1379668	WORD_OFF	n/a	n/a	LILAC	Flowers	8	6	[0, 0, 0]	n/a	catFR1	0	R1485J
969.082	1.6	1380536	WORD	n/a	wordpools/wordpool_categorized_EN.txt	PIE	Desserts	9	6	[0, 0, 0]	n/a	catFR1	0	R1485J
970.682	0.932	1382136	WORD_OFF	n/a	n/a	PIE	Desserts	9	6	[0, 0, 0]	n/a	catFR1	0	R1485J
971.614	1.618	1383061	WORD	n/a	wordpools/wordpool_categorized_EN.txt	CHEESECAKE	Desserts	10	6	[0, 0, 0]	n/a	catFR1	0	R1485J
973.232	0.883	1384684	WORD_OFF	n/a	n/a	CHEESECAKE	Desserts	10	6	[0, 0, 0]	n/a	catFR1	0	R1485J
974.115	1.6	1385563	WORD	n/a	wordpools/wordpool_categorized_EN.txt	SHORTS	Clothing	11	6	[0, 0, 0]	n/a	catFR1	0	R1485J
975.715	0.834	1387164	WORD_OFF	n/a	n/a	SHORTS	Clothing	11	6	[0, 0, 0]	n/a	catFR1	0	R1485J
976.549	1.616	1387998	WORD	n/a	wordpools/wordpool_categorized_EN.txt	SHIRT	Clothing	12	6	[0, 0, 0]	n/a	catFR1	0	R1485J
978.165	0.001	1389610	WORD_OFF	n/a	n/a	SHIRT	Clothing	12	6	[0, 0, 0]	n/a	catFR1	0	R1485J
978.166	0.001	1389615	PROB	0.001	n/a	n/a	n/a	-999	6	[7, 8, 1]	16	catFR1	0	R1485J
978.167	0.0	1389616	START	n/a	n/a	n/a	n/a	-999	6	[-999, -999, -999]	n/a	catFR1	0	R1485J
978.167	0.0	1389621	ENCODING_END	n/a	n/a	n/a	n/a	-999	6	[0, 0, 0]	n/a	catFR1	0	R1485J
978.167	5.733	1389621	DISTRACT_START	n/a	n/a	n/a	n/a	-999	6	[0, 0, 0]	n/a	catFR1	0	R1485J
983.9	4.715	1395348	PROB	4.715	n/a	n/a	n/a	-999	6	[2, 3, 2]	7	catFR1	0	R1485J
988.615	4.0	1400063	PROB	4.0	n/a	n/a	n/a	-999	6	[1, 8, 4]	13	catFR1	0	R1485J
992.615	4.001	1404063	PROB	4.001	n/a	n/a	n/a	-999	6	[1, 5, 3]	9	catFR1	0	R1485J
996.616	3.949	1408064	PROB	3.949	n/a	n/a	n/a	-999	6	[7, 5, 3]	15	catFR1	0	R1485J
1000.565	0.0	1412009	DISTRACT_END	n/a	n/a	n/a	n/a	-999	6	[0, 0, 0]	n/a	catFR1	0	R1485J
1000.565	2.166	1412013	STOP	n/a	n/a	n/a	n/a	-999	6	[-999, -999, -999]	n/a	catFR1	0	R1485J
1002.731	1.26	1414181	REC_START	n/a	n/a	n/a	n/a	-999	6	[0, 0, 0]	n/a	catFR1	0	R1485J
1003.991	0.814	1415438	REC_WORD	0.814	n/a	CUP	n/a	-999	6	[0, 0, 0]	n/a	catFR1	0	R1485J
1004.805	0.745	1416252	REC_WORD_VV	0.745	n/a	<>	n/a	-999	6	[0, 0, 0]	n/a	catFR1	0	R1485J
1005.55	1.677	1416997	REC_WORD	1.677	n/a	CUPCAKE	Desserts	5	6	[0, 0, 0]	n/a	catFR1	0	R1485J
1007.227	2.194	1418674	REC_WORD	2.194	n/a	PASTRY	Desserts	6	6	[0, 0, 0]	n/a	catFR1	0	R1485J
1009.421	0.951	1420868	REC_WORD_VV	0.951	n/a	<>	n/a	-999	6	[0, 0, 0]	n/a	catFR1	0	R1485J
1010.372	22.582	1421819	REC_WORD	22.582	n/a	SUNFLOWER	Flowers	7	6	[0, 0, 0]	n/a	catFR1	0	R1485J
1032.954	3.16	1444407	REC_END	n/a	n/a	n/a	n/a	-999	6	[0, 0, 0]	n/a	catFR1	0	R1485J
1036.114	10.35	1447563	COUNTDOWN_START	n/a	n/a	n/a	n/a	-999	7	[0, 0, 0]	n/a	catFR1	0	R1485J
1046.464	0.0	1457912	COUNTDOWN_END	n/a	n/a	n/a	n/a	-999	7	[0, 0, 0]	n/a	catFR1	0	R1485J
1046.464	2.283	1457912	ENCODING_START	n/a	n/a	n/a	n/a	-999	7	[0, 0, 0]	n/a	catFR1	0	R1485J
1048.747	1.6	1460189	WORD	n/a	wordpools/wordpool_categorized_EN.txt	OCEAN	Landscapes	1	7	[0, 0, 0]	n/a	catFR1	0	R1485J
1050.347	0.9	1461789	WORD_OFF	n/a	n/a	OCEAN	Landscapes	1	7	[0, 0, 0]	n/a	catFR1	0	R1485J
1051.247	1.601	1462691	WORD	n/a	wordpools/wordpool_categorized_EN.txt	STREAM	Landscapes	2	7	[0, 0, 0]	n/a	catFR1	0	R1485J
1052.848	0.983	1464292	WORD_OFF	n/a	n/a	STREAM	Landscapes	2	7	[0, 0, 0]	n/a	catFR1	0	R1485J
1053.831	1.616	1465273	WORD	n/a	wordpools/wordpool_categorized_EN.txt	TULIP	Flowers	3	7	[0, 0, 0]	n/a	catFR1	0	R1485J
1055.447	0.766	1466896	WORD_OFF	n/a	n/a	TULIP	Flowers	3	7	[0, 0, 0]	n/a	catFR1	0	R1485J
1056.213	1.602	1467662	WORD	n/a	wordpools/wordpool_categorized_EN.txt	ORCHID	Flowers	4	7	[0, 0, 0]	n/a	catFR1	0	R1485J
1057.815	0.781	1469263	WORD_OFF	n/a	n/a	ORCHID	Flowers	4	7	[0, 0, 0]	n/a	catFR1	0	R1485J
1058.596	1.601	1470041	WORD	n/a	wordpools/wordpool_categorized_EN.txt	OYSTER	OceanAnimals	5	7	[0, 0, 0]	n/a	catFR1	0	R1485J
1060.197	0.767	1471642	WORD_OFF	n/a	n/a	OYSTER	OceanAnimals	5	7	[0, 0, 0]	n/a	catFR1	0	R1485J
1060.964	1.6	1472408	WORD	n/a	wordpools/wordpool_categorized_EN.txt	LOBSTER	OceanAnimals	6	7	[0, 0, 0]	n/a	catFR1	0	R1485J
1062.564	0.833	1474009	WORD_OFF	n/a	n/a	LOBSTER	OceanAnimals	6	7	[0, 0, 0]	n/a	catFR1	0	R1485J
1063.397	1.6	1474843	WORD	n/a	wordpools/wordpool_categorized_EN.txt	WOODS	Landscapes	7	7	[0, 0, 0]	n/a	catFR1	0	R1485J
1064.997	0.884	1476444	WORD_OFF	n/a	n/a	WOODS	Landscapes	7	7	[0, 0, 0]	n/a	catFR1	0	R1485J
1065.881	1.6	1477323	WORD	n/a	wordpools/wordpool_categorized_EN.txt	RIVER	Landscapes	8	7	[0, 0, 0]	n/a	catFR1	0	R1485J
1067.481	0.833	1478924	WORD_OFF	n/a	n/a	RIVER	Landscapes	8	7	[0, 0, 0]	n/a	catFR1	0	R1485J
1068.314	1.616	1479758	WORD	n/a	wordpools/wordpool_categorized_EN.txt	CARNATION	Flowers	9	7	[0, 0, 0]	n/a	catFR1	0	R1485J
1069.93	0.951	1481381	WORD_OFF	n/a	n/a	CARNATION	Flowers	9	7	[0, 0, 0]	n/a	catFR1	0	R1485J
1070.881	1.6	1482328	WORD	n/a	wordpools/wordpool_categorized_EN.txt	MARIGOLD	Flowers	10	7	[0, 0, 0]	n/a	catFR1	0	R1485J
1072.481	0.966	1483929	WORD_OFF	n/a	n/a	MARIGOLD	Flowers	10	7	[0, 0, 0]	n/a	catFR1	0	R1485J
1073.447	1.616	1484898	WORD	n/a	wordpools/wordpool_categorized_EN.txt	TURTLE	OceanAnimals	11	7	[0, 0, 0]	n/a	catFR1	0	R1485J
1075.063	0.835	1486510	WORD_OFF	n/a	n/a	TURTLE	OceanAnimals	11	7	[0, 0, 0]	n/a	catFR1	0	R1485J
1075.898	1.616	1487345	WORD	n/a	wordpools/wordpool_categorized_EN.txt	SHRIMP	OceanAnimals	12	7	[0, 0, 0]	n/a	catFR1	0	R1485J
1077.514	0.001	1488957	WORD_OFF	n/a	n/a	SHRIMP	OceanAnimals	12	7	[0, 0, 0]	n/a	catFR1	0	R1485J
1077.515	0.0	1488957	ENCODING_END	n/a	n/a	n/a	n/a	-999	7	[0, 0, 0]	n/a	catFR1	0	R1485J
1077.515	0.0	1488959	START	n/a	n/a	n/a	n/a	-999	7	[-999, -999, -999]	n/a	catFR1	0	R1485J
1077.515	0.0	1488959	PROB	0.0	n/a	n/a	n/a	-999	7	[7, 1, 5]	13	catFR1	0	R1485J
1077.515	6.583	1488968	DISTRACT_START	n/a	n/a	n/a	n/a	-999	7	[0, 0, 0]	n/a	catFR1	0	R1485J
1084.098	7.183	1495542	PROB	7.183	n/a	n/a	n/a	-999	7	[8, 8, 7]	23	catFR1	0	R1485J
1091.281	3.582	1502725	PROB	3.582	n/a	n/a	n/a	-999	7	[5, 5, 6]	16	catFR1	0	R1485J
1094.863	5.334	1506307	PROB	5.334	n/a	n/a	n/a	-999	7	[6, 3, 3]	12	catFR1	0	R1485J
1100.197	0.0	1511637	DISTRACT_END	n/a	n/a	n/a	n/a	-999	7	[0, 0, 0]	n/a	catFR1	0	R1485J
1100.197	2.383	1511640	STOP	n/a	n/a	n/a	n/a	-999	7	[-999, -999, -999]	n/a	catFR1	0	R1485J
1102.58	1.57	1514024	REC_START	n/a	n/a	n/a	n/a	-999	7	[0, 0, 0]	n/a	catFR1	0	R1485J
1104.15	1.352	1515593	REC_WORD	1.352	n/a	OCEAN	Landscapes	1	7	[0, 0, 0]	n/a	catFR1	0	R1485J
1105.502	2.455	1516945	REC_WORD	2.455	n/a	STREAM	Landscapes	2	7	[0, 0, 0]	n/a	catFR1	0	R1485J
1107.957	2.498	1519400	REC_WORD	2.498	n/a	OYSTER	OceanAnimals	5	7	[0, 0, 0]	n/a	catFR1	0	R1485J
1110.455	13.593	1521898	REC_WORD	13.593	n/a	LOBSTER	OceanAnimals	6	7	[0, 0, 0]	n/a	catFR1	0	R1485J
1124.048	8.75	1535491	REC_WORD	8.75	n/a	MARIGOLD	Flowers	10	7	[0, 0, 0]	n/a	catFR1	0	R1485J
1132.798	5.084	1544238	REC_END	n/a	n/a	n/a	n/a	-999	7	[0, 0, 0]	n/a	catFR1	0	R1485J
1137.882	10.349	1549322	COUNTDOWN_START	n/a	n/a	n/a	n/a	-999	8	[0, 0, 0]	n/a	catFR1	0	R1485J
1148.231	0.0	1559670	COUNTDOWN_END	n/a	n/a	n/a	n/a	-999	8	[0, 0, 0]	n/a	catFR1	0	R1485J
1148.231	2.201	1559670	ENCODING_START	n/a	n/a	n/a	n/a	-999	8	[0, 0, 0]	n/a	catFR1	0	R1485J
1150.432	1.616	1561880	WORD	n/a	wordpools/wordpool_categorized_EN.txt	HUMIDITY	Weather	1	8	[0, 0, 0]	n/a	catFR1	0	R1485J
1152.048	0.85	1563492	WORD_OFF	n/a	n/a	HUMIDITY	Weather	1	8	[0, 0, 0]	n/a	catFR1	0	R1485J
1152.898	1.617	1564337	WORD	n/a	wordpools/wordpool_categorized_EN.txt	RAIN	Weather	2	8	[0, 0, 0]	n/a	catFR1	0	R1485J
1154.515	0.933	1565961	WORD_OFF	n/a	n/a	RAIN	Weather	2	8	[0, 0, 0]	n/a	catFR1	0	R1485J
1155.448	1.6	1566896	WORD	n/a	wordpools/wordpool_categorized_EN.txt	SILK	Fabric	3	8	[0, 0, 0]	n/a	catFR1	0	R1485J
1157.048	0.784	1568486	WORD_OFF	n/a	n/a	SILK	Fabric	3	8	[0, 0, 0]	n/a	catFR1	0	R1485J
1157.832	1.6	1569275	WORD	n/a	wordpools/wordpool_categorized_EN.txt	FLEECE	Fabric	4	8	[0, 0, 0]	n/a	catFR1	0	R1485J
1159.432	0.883	1570875	WORD_OFF	n/a	n/a	FLEECE	Fabric	4	8	[0, 0, 0]	n/a	catFR1	0	R1485J
1160.315	1.601	1571755	WORD	n/a	wordpools/wordpool_categorized_EN.txt	LILY	Flowers	5	8	[0, 0, 0]	n/a	catFR1	0	R1485J
1161.916	0.849	1573355	WORD_OFF	n/a	n/a	LILY	Flowers	5	8	[0, 0, 0]	n/a	catFR1	0	R1485J
1162.765	1.6	1574212	WORD	n/a	wordpools/wordpool_categorized_EN.txt	DAFFODIL	Flowers	6	8	[0, 0, 0]	n/a	catFR1	0	R1485J
1164.365	0.948	1575802	WORD_OFF	n/a	n/a	DAFFODIL	Flowers	6	8	[0, 0, 0]	n/a	catFR1	0	R1485J
1165.313	1.602	1576760	WORD	n/a	wordpools/wordpool_categorized_EN.txt	CLOUD	Weather	7	8	[0, 0, 0]	n/a	catFR1	0	R1485J
1166.915	0.866	1578361	WORD_OFF	n/a	n/a	CLOUD	Weather	7	8	[0, 0, 0]	n/a	catFR1	0	R1485J
1167.781	1.601	1579229	WORD	n/a	wordpools/wordpool_categorized_EN.txt	WIND	Weather	8	8	[0, 0, 0]	n/a	catFR1	0	R1485J
1169.382	0.9	1580829	WORD_OFF	n/a	n/a	WIND	Weather	8	8	[0, 0, 0]	n/a	catFR1	0	R1485J
1170.282	1.6	1581720	WORD	n/a	wordpools/wordpool_categorized_EN.txt	SUEDE	Fabric	9	8	[0, 0, 0]	n/a	catFR1	0	R1485J
1171.882	0.967	1583321	WORD_OFF	n/a	n/a	SUEDE	Fabric	9	8	[0, 0, 0]	n/a	catFR1	0	R1485J
1172.849	1.6	1584290	WORD	n/a	wordpools/wordpool_categorized_EN.txt	SPANDEX	Fabric	10	8	[0, 0, 0]	n/a	catFR1	0	R1485J
1174.449	0.966	1585891	WORD_OFF	n/a	n/a	SPANDEX	Fabric	10	8	[0, 0, 0]	n/a	catFR1	0	R1485J
1175.415	1.616	1586860	WORD	n/a	wordpools/wordpool_categorized_EN.txt	VIOLET	Flowers	11	8	[0, 0, 0]	n/a	catFR1	0	R1485J
1177.031	0.901	1588472	WORD_OFF	n/a	n/a	VIOLET	Flowers	11	8	[0, 0, 0]	n/a	catFR1	0	R1485J
1177.932	1.6	1589374	WORD	n/a	wordpools/wordpool_categorized_EN.txt	ROSE	Flowers	12	8	[0, 0, 0]	n/a	catFR1	0	R1485J
1179.532	0.001	1590972	PROB	0.001	n/a	n/a	n/a	-999	8	[3, 3, 4]	7	catFR1	0	R1485J
1179.533	0.0	1590973	START	n/a	n/a	n/a	n/a	-999	8	[-999, -999, -999]	n/a	catFR1	0	R1485J
1179.532	0.001	1590975	WORD_OFF	n/a	n/a	ROSE	Flowers	12	8	[0, 0, 0]	n/a	catFR1	0	R1485J
1179.533	0.0	1590975	ENCODING_END	n/a	n/a	n/a	n/a	-999	8	[0, 0, 0]	n/a	catFR1	0	R1485J
1179.533	4.682	1590975	DISTRACT_START	n/a	n/a	n/a	n/a	-999	8	[0, 0, 0]	n/a	catFR1	0	R1485J
1184.215	7.65	1595655	PROB	7.65	n/a	n/a	n/a	-999	8	[6, 3, 8]	17	catFR1	0	R1485J
1191.865	10.817	1603305	PROB	10.817	n/a	n/a	n/a	-999	8	[8, 5, 6]	19	catFR1	0	R1485J
1202.682	0.0	1614118	DISTRACT_END	n/a	n/a	n/a	n/a	-999	8	[0, 0, 0]	n/a	catFR1	0	R1485J
1202.682	2.216	1614121	STOP	n/a	n/a	n/a	n/a	-999	8	[-999, -999, -999]	n/a	catFR1	0	R1485J
1204.898	3.678	1616335	REC_START	n/a	n/a	n/a	n/a	-999	8	[0, 0, 0]	n/a	catFR1	0	R1485J
1208.576	26.548	1620015	REC_WORD	26.548	n/a	SUEDE	Fabric	9	8	[0, 0, 0]	n/a	catFR1	0	R1485J
1235.124	5.889	1646560	REC_END	n/a	n/a	n/a	n/a	-999	8	[0, 0, 0]	n/a	catFR1	0	R1485J
1241.013	10.351	1652456	COUNTDOWN_START	n/a	n/a	n/a	n/a	-999	9	[0, 0, 0]	n/a	catFR1	0	R1485J
1251.364	0.0	1662804	COUNTDOWN_END	n/a	n/a	n/a	n/a	-999	9	[0, 0, 0]	n/a	catFR1	0	R1485J
1251.364	1.999	1662804	ENCODING_START	n/a	n/a	n/a	n/a	-999	9	[0, 0, 0]	n/a	catFR1	0	R1485J
1253.363	1.601	1664800	WORD	n/a	wordpools/wordpool_categorized_EN.txt	FOG	Weather	1	9	[0, 0, 0]	n/a	catFR1	0	R1485J
1254.964	0.883	1666400	WORD_OFF	n/a	n/a	FOG	Weather	1	9	[0, 0, 0]	n/a	catFR1	0	R1485J
1255.847	1.617	1667280	WORD	n/a	wordpools/wordpool_categorized_EN.txt	THUNDER	Weather	2	9	[0, 0, 0]	n/a	catFR1	0	R1485J
1257.464	0.949	1668903	WORD_OFF	n/a	n/a	THUNDER	Weather	2	9	[0, 0, 0]	n/a	catFR1	0	R1485J
1258.413	1.601	1669850	WORD	n/a	wordpools/wordpool_categorized_EN.txt	DRESSER	Furniture	3	9	[0, 0, 0]	n/a	catFR1	0	R1485J
1260.014	0.818	1671451	WORD_OFF	n/a	n/a	DRESSER	Furniture	3	9	[0, 0, 0]	n/a	catFR1	0	R1485J
1260.832	1.616	1672274	WORD	n/a	wordpools/wordpool_categorized_EN.txt	DESK	Furniture	4	9	[0, 0, 0]	n/a	catFR1	0	R1485J
1262.448	1.0	1673886	WORD_OFF	n/a	n/a	DESK	Furniture	4	9	[0, 0, 0]	n/a	catFR1	0	R1485J
1263.448	1.616	1674889	WORD	n/a	wordpools/wordpool_categorized_EN.txt	SPARROW	Birds	5	9	[0, 0, 0]	n/a	catFR1	0	R1485J
1265.064	0.833	1676501	WORD_OFF	n/a	n/a	SPARROW	Birds	5	9	[0, 0, 0]	n/a	catFR1	0	R1485J
1265.897	1.6	1677335	WORD	n/a	wordpools/wordpool_categorized_EN.txt	DOVE	Birds	6	9	[0, 0, 0]	n/a	catFR1	0	R1485J
1267.497	0.917	1678936	WORD_OFF	n/a	n/a	DOVE	Birds	6	9	[0, 0, 0]	n/a	catFR1	0	R1485J
1268.414	1.6	1679849	WORD	n/a	wordpools/wordpool_categorized_EN.txt	BED	Furniture	7	9	[0, 0, 0]	n/a	catFR1	0	R1485J
1270.014	0.883	1681450	WORD_OFF	n/a	n/a	BED	Furniture	7	9	[0, 0, 0]	n/a	catFR1	0	R1485J
1270.897	1.6	1682329	WORD	n/a	wordpools/wordpool_categorized_EN.txt	NIGHTSTAND	Furniture	8	9	[0, 0, 0]	n/a	catFR1	0	R1485J
1272.497	0.917	1683930	WORD_OFF	n/a	n/a	NIGHTSTAND	Furniture	8	9	[0, 0, 0]	n/a	catFR1	0	R1485J
1273.414	1.6	1684854	WORD	n/a	wordpools/wordpool_categorized_EN.txt	ROBIN	Birds	9	9	[0, 0, 0]	n/a	catFR1	0	R1485J
1275.014	0.833	1686455	WORD_OFF	n/a	n/a	ROBIN	Birds	9	9	[0, 0, 0]	n/a	catFR1	0	R1485J
1275.847	1.6	1687289	WORD	n/a	wordpools/wordpool_categorized_EN.txt	SEAGULL	Birds	10	9	[0, 0, 0]	n/a	catFR1	0	R1485J
1277.447	0.816	1688890	WORD_OFF	n/a	n/a	SEAGULL	Birds	10	9	[0, 0, 0]	n/a	catFR1	0	R1485J
1278.263	1.601	1689701	WORD	n/a	wordpools/wordpool_categorized_EN.txt	SNOW	Weather	11	9	[0, 0, 0]	n/a	catFR1	0	R1485J
1279.864	1.0	1691302	WORD_OFF	n/a	n/a	SNOW	Weather	11	9	[0, 0, 0]	n/a	catFR1	0	R1485J
1280.864	1.6	1692305	WORD	n/a	wordpools/wordpool_categorized_EN.txt	LIGHTNING	Weather	12	9	[0, 0, 0]	n/a	catFR1	0	R1485J
1282.464	0.0	1693900	START	n/a	n/a	n/a	n/a	-999	9	[-999, -999, -999]	n/a	catFR1	0	R1485J
1282.464	0.0	1693900	PROB	0.0	n/a	n/a	n/a	-999	9	[3, 6, 5]	14	catFR1	0	R1485J
1282.463	0.001	1693906	WORD_OFF	n/a	n/a	LIGHTNING	Weather	12	9	[0, 0, 0]	n/a	catFR1	0	R1485J
1282.464	0.0	1693906	ENCODING_END	n/a	n/a	n/a	n/a	-999	9	[0, 0, 0]	n/a	catFR1	0	R1485J
1282.464	6.483	1693906	DISTRACT_START	n/a	n/a	n/a	n/a	-999	9	[0, 0, 0]	n/a	catFR1	0	R1485J
1288.947	6.233	1700383	PROB	6.233	n/a	n/a	n/a	-999	9	[5, 7, 4]	16	catFR1	0	R1485J
1295.18	3.401	1706615	PROB	3.401	n/a	n/a	n/a	-999	9	[5, 3, 7]	15	catFR1	0	R1485J
1298.581	4.815	1710016	PROB	4.815	n/a	n/a	n/a	-999	9	[4, 3, 3]	10	catFR1	0	R1485J
1303.396	0.0	1714828	DISTRACT_END	n/a	n/a	n/a	n/a	-999	9	[0, 0, 0]	n/a	catFR1	0	R1485J
1303.396	2.184	1714831	STOP	n/a	n/a	n/a	n/a	-999	9	[-999, -999, -999]	n/a	catFR1	0	R1485J
1305.58	1.741	1717012	REC_START	n/a	n/a	n/a	n/a	-999	9	[0, 0, 0]	n/a	catFR1	0	R1485J
1307.321	1.791	1718756	REC_WORD	1.791	n/a	SEAGULL	Birds	10	9	[0, 0, 0]	n/a	catFR1	0	R1485J
1309.112	15.609	1720547	REC_WORD	15.609	n/a	SNOW	Weather	11	9	[0, 0, 0]	n/a	catFR1	0	R1485J
1324.721	11.089	1736155	REC_WORD	11.089	n/a	THUNDER	Weather	2	9	[0, 0, 0]	n/a	catFR1	0	R1485J
1335.81	3.887	1747248	REC_END	n/a	n/a	n/a	n/a	-999	9	[0, 0, 0]	n/a	catFR1	0	R1485J
1339.697	10.35	1751137	COUNTDOWN_START	n/a	n/a	n/a	n/a	-999	10	[0, 0, 0]	n/a	catFR1	0	R1485J
1350.047	0.0	1761486	COUNTDOWN_END	n/a	n/a	n/a	n/a	-999	10	[0, 0, 0]	n/a	catFR1	0	R1485J
1350.047	2.184	1761486	ENCODING_START	n/a	n/a	n/a	n/a	-999	10	[0, 0, 0]	n/a	catFR1	0	R1485J
1352.231	1.6	1763661	WORD	n/a	wordpools/wordpool_categorized_EN.txt	SKIRT	Clothing	1	10	[0, 0, 0]	n/a	catFR1	0	R1485J
1353.831	0.933	1765262	WORD_OFF	n/a	n/a	SKIRT	Clothing	1	10	[0, 0, 0]	n/a	catFR1	0	R1485J
1354.764	1.6	1766198	WORD	n/a	wordpools/wordpool_categorized_EN.txt	JEANS	Clothing	2	10	[0, 0, 0]	n/a	catFR1	0	R1485J
1356.364	0.9	1767799	WORD_OFF	n/a	n/a	JEANS	Clothing	2	10	[0, 0, 0]	n/a	catFR1	0	R1485J
1357.264	1.6	1768700	WORD	n/a	wordpools/wordpool_categorized_EN.txt	FOREST	Landscapes	3	10	[0, 0, 0]	n/a	catFR1	0	R1485J
1358.864	0.983	1770301	WORD_OFF	n/a	n/a	FOREST	Landscapes	3	10	[0, 0, 0]	n/a	catFR1	0	R1485J
1359.847	1.601	1771282	WORD	n/a	wordpools/wordpool_categorized_EN.txt	HILLS	Landscapes	4	10	[0, 0, 0]	n/a	catFR1	0	R1485J
1361.448	0.916	1772883	WORD_OFF	n/a	n/a	HILLS	Landscapes	4	10	[0, 0, 0]	n/a	catFR1	0	R1485J
1362.364	1.616	1773796	WORD	n/a	wordpools/wordpool_categorized_EN.txt	CABINET	Furniture	5	10	[0, 0, 0]	n/a	catFR1	0	R1485J
1363.98	0.884	1775419	WORD_OFF	n/a	n/a	CABINET	Furniture	5	10	[0, 0, 0]	n/a	catFR1	0	R1485J
1364.864	1.6	1776298	WORD	n/a	wordpools/wordpool_categorized_EN.txt	BOOKCASE	Furniture	6	10	[0, 0, 0]	n/a	catFR1	0	R1485J
1366.464	0.966	1777899	WORD_OFF	n/a	n/a	BOOKCASE	Furniture	6	10	[0, 0, 0]	n/a	catFR1	0	R1485J
1367.43	1.617	1778868	WORD	n/a	wordpools/wordpool_categorized_EN.txt	LAKE	Landscapes	7	10	[0, 0, 0]	n/a	catFR1	0	R1485J
1369.047	0.983	1780480	WORD_OFF	n/a	n/a	LAKE	Landscapes	7	10	[0, 0, 0]	n/a	catFR1	0	R1485J
1370.03	1.617	1781461	WORD	n/a	wordpools/wordpool_categorized_EN.txt	ISLAND	Landscapes	8	10	[0, 0, 0]	n/a	catFR1	0	R1485J
1371.647	0.833	1783084	WORD_OFF	n/a	n/a	ISLAND	Landscapes	8	10	[0, 0, 0]	n/a	catFR1	0	R1485J
1372.48	1.601	1783919	WORD	n/a	wordpools/wordpool_categorized_EN.txt	JACKET	Clothing	9	10	[0, 0, 0]	n/a	catFR1	0	R1485J
1374.081	0.816	1785519	WORD_OFF	n/a	n/a	JACKET	Clothing	9	10	[0, 0, 0]	n/a	catFR1	0	R1485J
1374.897	1.6	1786331	WORD	n/a	wordpools/wordpool_categorized_EN.txt	SOCKS	Clothing	10	10	[0, 0, 0]	n/a	catFR1	0	R1485J
1376.497	0.999	1787932	WORD_OFF	n/a	n/a	SOCKS	Clothing	10	10	[0, 0, 0]	n/a	catFR1	0	R1485J
1377.496	1.601	1788935	WORD	n/a	wordpools/wordpool_categorized_EN.txt	SOFA	Furniture	11	10	[0, 0, 0]	n/a	catFR1	0	R1485J
1379.097	0.999	1790524	WORD_OFF	n/a	n/a	SOFA	Furniture	11	10	[0, 0, 0]	n/a	catFR1	0	R1485J
1380.096	1.601	1791528	WORD	n/a	wordpools/wordpool_categorized_EN.txt	CHAIR	Furniture	12	10	[0, 0, 0]	n/a	catFR1	0	R1485J
1381.697	0.001	1793128	WORD_OFF	n/a	n/a	CHAIR	Furniture	12	10	[0, 0, 0]	n/a	catFR1	0	R1485J
1381.698	0.0	1793128	ENCODING_END	n/a	n/a	n/a	n/a	-999	10	[0, 0, 0]	n/a	catFR1	0	R1485J
1381.698	0.0	1793128	DISTRACT_START	n/a	n/a	n/a	n/a	-999	10	[0, 0, 0]	n/a	catFR1	0	R1485J
1381.697	0.001	1793129	PROB	0.001	n/a	n/a	n/a	-999	10	[3, 6, 2]	11	catFR1	0	R1485J
1381.698	5.966	1793130	START	n/a	n/a	n/a	n/a	-999	10	[-999, -999, -999]	n/a	catFR1	0	R1485J
1387.664	8.167	1799096	PROB	8.167	n/a	n/a	n/a	-999	10	[7, 2, 5]	14	catFR1	0	R1485J
1395.831	3.65	1807262	PROB	3.65	n/a	n/a	n/a	-999	10	[5, 4, 6]	15	catFR1	0	R1485J
1399.481	4.915	1810912	PROB	4.915	n/a	n/a	n/a	-999	10	[7, 7, 5]	19	catFR1	0	R1485J
1404.396	0.0	1815827	STOP	n/a	n/a	n/a	n/a	-999	10	[-999, -999, -999]	n/a	catFR1	0	R1485J
1404.396	2.235	1815832	DISTRACT_END	n/a	n/a	n/a	n/a	-999	10	[0, 0, 0]	n/a	catFR1	0	R1485J
1406.631	2.461	1818060	REC_START	n/a	n/a	n/a	n/a	-999	10	[0, 0, 0]	n/a	catFR1	0	R1485J
1409.092	1.862	1820523	REC_WORD	1.862	n/a	JACKET	Clothing	9	10	[0, 0, 0]	n/a	catFR1	0	R1485J
1410.954	2.145	1822385	REC_WORD	2.145	n/a	ISLAND	Landscapes	8	10	[0, 0, 0]	n/a	catFR1	0	R1485J
1413.099	23.754	1824530	REC_WORD	23.754	n/a	LAKE	Landscapes	7	10	[0, 0, 0]	n/a	catFR1	0	R1485J
1436.853	4.128	1848286	REC_END	n/a	n/a	n/a	n/a	-999	10	[0, 0, 0]	n/a	catFR1	0	R1485J
1440.981	10.351	1852412	COUNTDOWN_START	n/a	n/a	n/a	n/a	-999	11	[0, 0, 0]	n/a	catFR1	0	R1485J
1451.332	0.0	1862760	COUNTDOWN_END	n/a	n/a	n/a	n/a	-999	11	[0, 0, 0]	n/a	catFR1	0	R1485J
1451.332	2.1	1862760	ENCODING_START	n/a	n/a	n/a	n/a	-999	11	[0, 0, 0]	n/a	catFR1	0	R1485J
1453.432	1.6	1864857	WORD	n/a	wordpools/wordpool_categorized_EN.txt	BLUEBIRD	Birds	1	11	[0, 0, 0]	n/a	catFR1	0	R1485J
1455.032	0.933	1866457	WORD_OFF	n/a	n/a	BLUEBIRD	Birds	1	11	[0, 0, 0]	n/a	catFR1	0	R1485J
1455.965	1.618	1867393	WORD	n/a	wordpools/wordpool_categorized_EN.txt	FINCH	Birds	2	11	[0, 0, 0]	n/a	catFR1	0	R1485J
1457.583	0.865	1869016	WORD_OFF	n/a	n/a	FINCH	Birds	2	11	[0, 0, 0]	n/a	catFR1	0	R1485J
1458.448	1.601	1869873	WORD	n/a	wordpools/wordpool_categorized_EN.txt	MICROWAVE	Electronics	3	11	[0, 0, 0]	n/a	catFR1	0	R1485J
1460.049	0.999	1871474	WORD_OFF	n/a	n/a	MICROWAVE	Electronics	3	11	[0, 0, 0]	n/a	catFR1	0	R1485J
1461.048	1.6	1872477	WORD	n/a	wordpools/wordpool_categorized_EN.txt	RADIO	Electronics	4	11	[0, 0, 0]	n/a	catFR1	0	R1485J
1462.648	1.0	1874078	WORD_OFF	n/a	n/a	RADIO	Electronics	4	11	[0, 0, 0]	n/a	catFR1	0	R1485J
1463.648	1.601	1875081	WORD	n/a	wordpools/wordpool_categorized_EN.txt	ORANGUTAN	Zoo	5	11	[0, 0, 0]	n/a	catFR1	0	R1485J
1465.249	0.898	1876682	WORD_OFF	n/a	n/a	ORANGUTAN	Zoo	5	11	[0, 0, 0]	n/a	catFR1	0	R1485J
1466.147	1.602	1877572	WORD	n/a	wordpools/wordpool_categorized_EN.txt	PANDA	Zoo	6	11	[0, 0, 0]	n/a	catFR1	0	R1485J
1467.749	0.999	1879173	WORD_OFF	n/a	n/a	PANDA	Zoo	6	11	[0, 0, 0]	n/a	catFR1	0	R1485J
1468.748	1.617	1880176	WORD	n/a	wordpools/wordpool_categorized_EN.txt	SCANNER	Electronics	7	11	[0, 0, 0]	n/a	catFR1	0	R1485J
1470.365	0.934	1881800	WORD_OFF	n/a	n/a	SCANNER	Electronics	7	11	[0, 0, 0]	n/a	catFR1	0	R1485J
1471.299	1.6	1882724	WORD	n/a	wordpools/wordpool_categorized_EN.txt	CALCULATOR	Electronics	8	11	[0, 0, 0]	n/a	catFR1	0	R1485J
1472.899	0.766	1884325	WORD_OFF	n/a	n/a	CALCULATOR	Electronics	8	11	[0, 0, 0]	n/a	catFR1	0	R1485J
1473.665	1.616	1885091	WORD	n/a	wordpools/wordpool_categorized_EN.txt	CROW	Birds	9	11	[0, 0, 0]	n/a	catFR1	0	R1485J
1475.281	0.868	1886714	WORD_OFF	n/a	n/a	CROW	Birds	9	11	[0, 0, 0]	n/a	catFR1	0	R1485J
1476.149	1.6	1887582	WORD	n/a	wordpools/wordpool_categorized_EN.txt	CARDINAL	Birds	10	11	[0, 0, 0]	n/a	catFR1	0	R1485J
1477.749	0.983	1889183	WORD_OFF	n/a	n/a	CARDINAL	Birds	10	11	[0, 0, 0]	n/a	catFR1	0	R1485J
1478.732	1.6	1890164	WORD	n/a	wordpools/wordpool_categorized_EN.txt	GIRAFFE	Zoo	11	11	[0, 0, 0]	n/a	catFR1	0	R1485J
1480.332	0.9	1891765	WORD_OFF	n/a	n/a	GIRAFFE	Zoo	11	11	[0, 0, 0]	n/a	catFR1	0	R1485J
1481.232	1.6	1892666	WORD	n/a	wordpools/wordpool_categorized_EN.txt	ELEPHANT	Zoo	12	11	[0, 0, 0]	n/a	catFR1	0	R1485J
1482.832	0.0	1894256	WORD_OFF	n/a	n/a	ELEPHANT	Zoo	12	11	[0, 0, 0]	n/a	catFR1	0	R1485J
1482.832	0.001	1894260	PROB	0.001	n/a	n/a	n/a	-999	11	[4, 3, 1]	8	catFR1	0	R1485J
1482.833	0.0	1894261	START	n/a	n/a	n/a	n/a	-999	11	[-999, -999, -999]	n/a	catFR1	0	R1485J
1482.833	0.0	1894267	ENCODING_END	n/a	n/a	n/a	n/a	-999	11	[0, 0, 0]	n/a	catFR1	0	R1485J
1482.833	4.582	1894267	DISTRACT_START	n/a	n/a	n/a	n/a	-999	11	[0, 0, 0]	n/a	catFR1	0	R1485J
1487.415	5.583	1898842	PROB	5.583	n/a	n/a	n/a	-999	11	[4, 3, 5]	12	catFR1	0	R1485J
1492.998	3.449	1904425	PROB	3.449	n/a	n/a	n/a	-999	11	[2, 5, 3]	10	catFR1	0	R1485J
1496.447	5.284	1907874	PROB	5.284	n/a	n/a	n/a	-999	11	[3, 8, 6]	17	catFR1	0	R1485J
1501.731	6.101	1913158	PROB	6.101	n/a	n/a	n/a	-999	11	[4, 8, 3]	5	catFR1	0	R1485J
1507.832	0.0	1919259	DISTRACT_END	n/a	n/a	n/a	n/a	-999	11	[0, 0, 0]	n/a	catFR1	0	R1485J
1507.832	2.331	1919259	STOP	n/a	n/a	n/a	n/a	-999	11	[-999, -999, -999]	n/a	catFR1	0	R1485J
1510.163	30.015	1921589	REC_START	n/a	n/a	n/a	n/a	-999	11	[0, 0, 0]	n/a	catFR1	0	R1485J
1540.178	0.215	1951603	REC_WORD_VV	0.215	n/a	<>	n/a	-999	11	[0, 0, 0]	n/a	catFR1	0	R1485J
1540.393	4.071	1951814	REC_END	n/a	n/a	n/a	n/a	-999	11	[0, 0, 0]	n/a	catFR1	0	R1485J
1544.464	10.349	1955895	COUNTDOWN_START	n/a	n/a	n/a	n/a	-999	12	[0, 0, 0]	n/a	catFR1	0	R1485J
1554.813	0.0	1966244	COUNTDOWN_END	n/a	n/a	n/a	n/a	-999	12	[0, 0, 0]	n/a	catFR1	0	R1485J
1554.813	1.868	1966244	ENCODING_START	n/a	n/a	n/a	n/a	-999	12	[0, 0, 0]	n/a	catFR1	0	R1485J
1556.681	1.616	1968104	WORD	n/a	wordpools/wordpool_categorized_EN.txt	CHIMPANZEE	Zoo	1	12	[0, 0, 0]	n/a	catFR1	0	R1485J
1558.297	0.934	1969727	WORD_OFF	n/a	n/a	CHIMPANZEE	Zoo	1	12	[0, 0, 0]	n/a	catFR1	0	R1485J
1559.231	1.617	1970651	WORD	n/a	wordpools/wordpool_categorized_EN.txt	LION	Zoo	2	12	[0, 0, 0]	n/a	catFR1	0	R1485J
1560.848	0.866	1972274	WORD_OFF	n/a	n/a	LION	Zoo	2	12	[0, 0, 0]	n/a	catFR1	0	R1485J
1561.714	1.616	1973142	WORD	n/a	wordpools/wordpool_categorized_EN.txt	DUCK	Birds	3	12	[0, 0, 0]	n/a	catFR1	0	R1485J
1563.33	0.85	1974754	WORD_OFF	n/a	n/a	DUCK	Birds	3	12	[0, 0, 0]	n/a	catFR1	0	R1485J
1564.18	1.617	1975600	WORD	n/a	wordpools/wordpool_categorized_EN.txt	HAWK	Birds	4	12	[0, 0, 0]	n/a	catFR1	0	R1485J
1565.797	0.916	1977223	WORD_OFF	n/a	n/a	HAWK	Birds	4	12	[0, 0, 0]	n/a	catFR1	0	R1485J
1566.713	1.601	1978136	WORD	n/a	wordpools/wordpool_categorized_EN.txt	UNDERWEAR	Clothing	5	12	[0, 0, 0]	n/a	catFR1	0	R1485J
1568.314	0.999	1979737	WORD_OFF	n/a	n/a	UNDERWEAR	Clothing	5	12	[0, 0, 0]	n/a	catFR1	0	R1485J
1569.313	1.601	1980740	WORD	n/a	wordpools/wordpool_categorized_EN.txt	PANTS	Clothing	6	12	[0, 0, 0]	n/a	catFR1	0	R1485J
1570.914	0.816	1982341	WORD_OFF	n/a	n/a	PANTS	Clothing	6	12	[0, 0, 0]	n/a	catFR1	0	R1485J
1571.73	1.6	1983153	WORD	n/a	wordpools/wordpool_categorized_EN.txt	GOOSE	Birds	7	12	[0, 0, 0]	n/a	catFR1	0	R1485J
1573.33	0.817	1984753	WORD_OFF	n/a	n/a	GOOSE	Birds	7	12	[0, 0, 0]	n/a	catFR1	0	R1485J
1574.147	1.6	1985576	WORD	n/a	wordpools/wordpool_categorized_EN.txt	PIGEON	Birds	8	12	[0, 0, 0]	n/a	catFR1	0	R1485J
1575.747	0.784	1987177	WORD_OFF	n/a	n/a	PIGEON	Birds	8	12	[0, 0, 0]	n/a	catFR1	0	R1485J
1576.531	1.615	1987955	WORD	n/a	wordpools/wordpool_categorized_EN.txt	SHOES	Clothing	9	12	[0, 0, 0]	n/a	catFR1	0	R1485J
1578.146	0.85	1989567	WORD_OFF	n/a	n/a	SHOES	Clothing	9	12	[0, 0, 0]	n/a	catFR1	0	R1485J
1578.996	1.601	1990423	WORD	n/a	wordpools/wordpool_categorized_EN.txt	DRESS	Clothing	10	12	[0, 0, 0]	n/a	catFR1	0	R1485J
1580.597	0.983	1992024	WORD_OFF	n/a	n/a	DRESS	Clothing	10	12	[0, 0, 0]	n/a	catFR1	0	R1485J
1581.58	1.617	1993005	WORD	n/a	wordpools/wordpool_categorized_EN.txt	ZEBRA	Zoo	11	12	[0, 0, 0]	n/a	catFR1	0	R1485J
1583.197	0.783	1994617	WORD_OFF	n/a	n/a	ZEBRA	Zoo	11	12	[0, 0, 0]	n/a	catFR1	0	R1485J
1583.98	1.601	1995406	WORD	n/a	wordpools/wordpool_categorized_EN.txt	GORILLA	Zoo	12	12	[0, 0, 0]	n/a	catFR1	0	R1485J
1585.581	0.0	1997004	START	n/a	n/a	n/a	n/a	-999	12	[-999, -999, -999]	n/a	catFR1	0	R1485J
1585.581	0.0	1997004	PROB	0.0	n/a	n/a	n/a	-999	12	[2, 5, 7]	14	catFR1	0	R1485J
1585.58	0.001	1997007	WORD_OFF	n/a	n/a	GORILLA	Zoo	12	12	[0, 0, 0]	n/a	catFR1	0	R1485J
1585.581	0.0	1997007	ENCODING_END	n/a	n/a	n/a	n/a	-999	12	[0, 0, 0]	n/a	catFR1	0	R1485J
1585.581	12.417	1997007	DISTRACT_START	n/a	n/a	n/a	n/a	-999	12	[0, 0, 0]	n/a	catFR1	0	R1485J
1597.998	2.934	2009421	PROB	2.934	n/a	n/a	n/a	-999	12	[4, 4, 1]	9	catFR1	0	R1485J
1600.932	4.966	2012355	PROB	4.966	n/a	n/a	n/a	-999	12	[5, 7, 2]	14	catFR1	0	R1485J
1605.898	0.0	2017320	DISTRACT_END	n/a	n/a	n/a	n/a	-999	12	[0, 0, 0]	n/a	catFR1	0	R1485J
1605.898	2.049	2017321	STOP	n/a	n/a	n/a	n/a	-999	12	[-999, -999, -999]	n/a	catFR1	0	R1485J
1607.947	1.205	2019369	REC_START	n/a	n/a	n/a	n/a	-999	12	[0, 0, 0]	n/a	catFR1	0	R1485J
1609.152	29.026	2020574	REC_WORD	29.026	n/a	CHIMPANZEE	Zoo	1	12	[0, 0, 0]	n/a	catFR1	0	R1485J
1638.178	0.0	2049605	REC_END	n/a	n/a	n/a	n/a	-999	12	[0, 0, 0]	n/a	catFR1	0	R1485J
