onset	duration	sample	trial_type	response_time	stim_file	item_name	category	serialpos	list	test	answer	experiment	session	subject
0.0	26.604	2108	INSTRUCT_START	n/a	n/a	n/a	n/a	-999	-999	[0, 0, 0]	n/a	catFR1	4	R1328E
26.604	5.851	28711	INSTRUCT_END	n/a	n/a	n/a	n/a	-999	-999	[0, 0, 0]	n/a	catFR1	4	R1328E
32.455	11.133	34562	MIC TEST_START	n/a	n/a	n/a	n/a	-999	-999	[0, 0, 0]	n/a	catFR1	4	R1328E
43.588	0.013	45694	MIC TEST_END	n/a	n/a	n/a	n/a	-999	-999	[0, 0, 0]	n/a	catFR1	4	R1328E
43.601	0.0	45707	TRIAL_START	n/a	n/a	n/a	n/a	-999	-1	[0, 0, 0]	n/a	catFR1	4	R1328E
43.601	0.0	45707	TRIAL	n/a	n/a	n/a	n/a	-999	-1	[0, 0, 0]	n/a	catFR1	4	R1328E
43.601	2.123	45707	WAITING_START	n/a	n/a	n/a	n/a	-999	-1	[0, 0, 0]	n/a	catFR1	4	R1328E
45.724	0.001	47830	WAITING_END	n/a	n/a	n/a	n/a	-999	-1	[0, 0, 0]	n/a	catFR1	4	R1328E
45.725	10.429	47831	COUNTDOWN_START	n/a	n/a	n/a	n/a	-999	-1	[0, 0, 0]	n/a	catFR1	4	R1328E
56.154	0.001	58260	COUNTDOWN_END	n/a	n/a	n/a	n/a	-999	-1	[0, 0, 0]	n/a	catFR1	4	R1328E
56.155	1.087	58261	ORIENT_START	n/a	n/a	n/a	n/a	-999	-1	[0, 0, 0]	n/a	catFR1	4	R1328E
57.242	0.0	59348	ORIENT_END	n/a	n/a	n/a	n/a	-999	-1	[0, 0, 0]	n/a	catFR1	4	R1328E
57.242	1.069	59348	ENCODING_START	n/a	n/a	n/a	n/a	-999	-1	[0, 0, 0]	n/a	catFR1	4	R1328E
58.311	1.632	60417	WORD	n/a	n/a	WOOL	n/a	1	-1	[0, 0, 0]	n/a	catFR1	4	R1328E
59.943	1.026	62049	WORD_OFF	n/a	n/a	WOOL	n/a	1	-1	[0, 0, 0]	n/a	catFR1	4	R1328E
60.969	1.625	63075	WORD	n/a	n/a	SECOND	n/a	2	-1	[0, 0, 0]	n/a	catFR1	4	R1328E
62.594	1.136	64700	WORD_OFF	n/a	n/a	SECOND	n/a	2	-1	[0, 0, 0]	n/a	catFR1	4	R1328E
63.73	1.631	65836	WORD	n/a	n/a	HOUR	n/a	3	-1	[0, 0, 0]	n/a	catFR1	4	R1328E
65.361	1.011	67467	WORD_OFF	n/a	n/a	HOUR	n/a	3	-1	[0, 0, 0]	n/a	catFR1	4	R1328E
66.372	1.623	68478	WORD	n/a	n/a	SILK	n/a	4	-1	[0, 0, 0]	n/a	catFR1	4	R1328E
67.995	0.997	70101	WORD_OFF	n/a	n/a	SILK	n/a	4	-1	[0, 0, 0]	n/a	catFR1	4	R1328E
68.992	1.637	71098	WORD	n/a	n/a	LEATHER	n/a	5	-1	[0, 0, 0]	n/a	catFR1	4	R1328E
70.629	1.002	72734	WORD_OFF	n/a	n/a	LEATHER	n/a	5	-1	[0, 0, 0]	n/a	catFR1	4	R1328E
71.631	1.63	73736	WORD	n/a	n/a	FARMER	n/a	6	-1	[0, 0, 0]	n/a	catFR1	4	R1328E
73.261	0.771	75366	WORD_OFF	n/a	n/a	FARMER	n/a	6	-1	[0, 0, 0]	n/a	catFR1	4	R1328E
74.032	1.631	76137	WORD	n/a	n/a	DAY	n/a	7	-1	[0, 0, 0]	n/a	catFR1	4	R1328E
75.663	0.868	77768	WORD_OFF	n/a	n/a	DAY	n/a	7	-1	[0, 0, 0]	n/a	catFR1	4	R1328E
76.531	1.631	78636	WORD	n/a	n/a	PLUMBER	n/a	8	-1	[0, 0, 0]	n/a	catFR1	4	R1328E
78.162	0.759	80267	WORD_OFF	n/a	n/a	PLUMBER	n/a	8	-1	[0, 0, 0]	n/a	catFR1	4	R1328E
78.921	1.626	81026	WORD	n/a	n/a	MINUTE	n/a	9	-1	[0, 0, 0]	n/a	catFR1	4	R1328E
80.547	0.769	82652	WORD_OFF	n/a	n/a	MINUTE	n/a	9	-1	[0, 0, 0]	n/a	catFR1	4	R1328E
81.316	1.615	83421	WORD	n/a	n/a	FIREMAN	n/a	10	-1	[0, 0, 0]	n/a	catFR1	4	R1328E
82.931	0.913	85036	WORD_OFF	n/a	n/a	FIREMAN	n/a	10	-1	[0, 0, 0]	n/a	catFR1	4	R1328E
83.844	1.637	85949	WORD	n/a	n/a	TEACHER	n/a	11	-1	[0, 0, 0]	n/a	catFR1	4	R1328E
85.481	0.771	87586	WORD_OFF	n/a	n/a	TEACHER	n/a	11	-1	[0, 0, 0]	n/a	catFR1	4	R1328E
86.252	1.63	88357	WORD	n/a	n/a	DENIM	n/a	12	-1	[0, 0, 0]	n/a	catFR1	4	R1328E
87.882	0.0	89987	DISTRACT_START	n/a	n/a	n/a	n/a	-999	-1	[0, 0, 0]	n/a	catFR1	4	R1328E
87.882	0.0	89987	ENCODING_END	n/a	n/a	n/a	n/a	-999	-1	[0, 0, 0]	n/a	catFR1	4	R1328E
87.882	0.0	89987	WORD_OFF	n/a	n/a	DENIM	n/a	12	-1	[0, 0, 0]	n/a	catFR1	4	R1328E
87.882	0.016	89987	START	n/a	n/a	n/a	n/a	-999	-1	[-999, -999, -999]	n/a	catFR1	4	R1328E
87.898	22.482	90003	PROB	22.482	n/a	n/a	n/a	-999	-1	[3, 8, 4]	15	catFR1	4	R1328E
110.38	0.022	112484	STOP	n/a	n/a	n/a	n/a	-999	-1	[-999, -999, -999]	n/a	catFR1	4	R1328E
110.402	0.546	112506	DISTRACT_END	n/a	n/a	n/a	n/a	-999	-1	[0, 0, 0]	n/a	catFR1	4	R1328E
110.948	1.538	113052	RETRIEVAL_ORIENT_START	n/a	n/a	n/a	n/a	-999	-1	[0, 0, 0]	n/a	catFR1	4	R1328E
112.486	0.0	114590	RETRIEVAL_ORIENT_END	n/a	n/a	n/a	n/a	-999	-1	[0, 0, 0]	n/a	catFR1	4	R1328E
112.486	2.161	114590	REC_START	n/a	n/a	n/a	n/a	-999	-1	[0, 0, 0]	n/a	catFR1	4	R1328E
114.647	0.601	116751	REC_WORD	0.601	n/a	WOOL	n/a	1	-1	[0, 0, 0]	n/a	catFR1	4	R1328E
115.248	0.844	117352	REC_WORD	0.844	n/a	SILK	n/a	4	-1	[0, 0, 0]	n/a	catFR1	4	R1328E
116.092	0.653	118196	REC_WORD	0.653	n/a	DENIM	n/a	12	-1	[0, 0, 0]	n/a	catFR1	4	R1328E
116.745	0.688	118849	REC_WORD	0.688	n/a	HOUR	n/a	3	-1	[0, 0, 0]	n/a	catFR1	4	R1328E
117.433	0.657	119537	REC_WORD	0.657	n/a	MINUTE	n/a	9	-1	[0, 0, 0]	n/a	catFR1	4	R1328E
118.09	1.662	120194	REC_WORD	1.662	n/a	SECOND	n/a	2	-1	[0, 0, 0]	n/a	catFR1	4	R1328E
119.752	22.747	121856	REC_WORD	22.747	n/a	DAY	n/a	7	-1	[0, 0, 0]	n/a	catFR1	4	R1328E
142.499	0.0	144602	REC_END	n/a	n/a	n/a	n/a	-999	-1	[0, 0, 0]	n/a	catFR1	4	R1328E
142.499	19.728	144602	PRACTICE_POST_INSTRUCT_START	n/a	n/a	n/a	n/a	-999	-1	[0, 0, 0]	n/a	catFR1	4	R1328E
162.227	0.001	164329	PRACTICE_POST_INSTRUCT_END	n/a	n/a	n/a	n/a	-999	-1	[0, 0, 0]	n/a	catFR1	4	R1328E
162.228	0.03	164330	TRIAL_END	n/a	n/a	n/a	n/a	-999	-1	[0, 0, 0]	n/a	catFR1	4	R1328E
162.258	0.0	164360	TRIAL_START	n/a	n/a	n/a	n/a	-999	1	[0, 0, 0]	n/a	catFR1	4	R1328E
162.258	0.001	164360	TRIAL	n/a	n/a	n/a	n/a	-999	1	[0, 0, 0]	n/a	catFR1	4	R1328E
162.259	3.919	164361	WAITING_START	n/a	n/a	n/a	n/a	-999	1	[0, 0, 0]	n/a	catFR1	4	R1328E
166.178	0.0	168280	WAITING_END	n/a	n/a	n/a	n/a	-999	1	[0, 0, 0]	n/a	catFR1	4	R1328E
166.178	10.429	168280	COUNTDOWN_START	n/a	n/a	n/a	n/a	-999	1	[0, 0, 0]	n/a	catFR1	4	R1328E
176.607	0.001	178709	COUNTDOWN_END	n/a	n/a	n/a	n/a	-999	1	[0, 0, 0]	n/a	catFR1	4	R1328E
176.608	1.056	178710	ORIENT_START	n/a	n/a	n/a	n/a	-999	1	[0, 0, 0]	n/a	catFR1	4	R1328E
177.664	0.0	179766	ORIENT_END	n/a	n/a	n/a	n/a	-999	1	[0, 0, 0]	n/a	catFR1	4	R1328E
177.664	1.104	179766	ENCODING_START	n/a	n/a	n/a	n/a	-999	1	[0, 0, 0]	n/a	catFR1	4	R1328E
178.768	1.613	180870	WORD	n/a	wordpools/wordpool_categorized_EN.txt	PIGEON	Birds	1	1	[0, 0, 0]	n/a	catFR1	4	R1328E
180.381	0.845	182483	WORD_OFF	n/a	n/a	PIGEON	Birds	1	1	[0, 0, 0]	n/a	catFR1	4	R1328E
181.226	1.639	183328	WORD	n/a	wordpools/wordpool_categorized_EN.txt	DOVE	Birds	2	1	[0, 0, 0]	n/a	catFR1	4	R1328E
182.865	0.953	184966	WORD_OFF	n/a	n/a	DOVE	Birds	2	1	[0, 0, 0]	n/a	catFR1	4	R1328E
183.818	1.631	185919	WORD	n/a	wordpools/wordpool_categorized_EN.txt	FLY	Insects	3	1	[0, 0, 0]	n/a	catFR1	4	R1328E
185.449	0.858	187550	WORD_OFF	n/a	n/a	FLY	Insects	3	1	[0, 0, 0]	n/a	catFR1	4	R1328E
186.307	1.609	188408	WORD	n/a	wordpools/wordpool_categorized_EN.txt	GNAT	Insects	4	1	[0, 0, 0]	n/a	catFR1	4	R1328E
187.916	1.031	190017	WORD_OFF	n/a	n/a	GNAT	Insects	4	1	[0, 0, 0]	n/a	catFR1	4	R1328E
188.947	1.636	191048	WORD	n/a	wordpools/wordpool_categorized_EN.txt	ISLAND	Landscapes	5	1	[0, 0, 0]	n/a	catFR1	4	R1328E
190.583	0.808	192684	WORD_OFF	n/a	n/a	ISLAND	Landscapes	5	1	[0, 0, 0]	n/a	catFR1	4	R1328E
191.391	1.626	193492	WORD	n/a	wordpools/wordpool_categorized_EN.txt	WOODS	Landscapes	6	1	[0, 0, 0]	n/a	catFR1	4	R1328E
193.017	1.103	195118	WORD_OFF	n/a	n/a	WOODS	Landscapes	6	1	[0, 0, 0]	n/a	catFR1	4	R1328E
194.12	1.63	196221	WORD	n/a	wordpools/wordpool_categorized_EN.txt	CROW	Birds	7	1	[0, 0, 0]	n/a	catFR1	4	R1328E
195.75	1.067	197851	WORD_OFF	n/a	n/a	CROW	Birds	7	1	[0, 0, 0]	n/a	catFR1	4	R1328E
196.817	1.634	198918	WORD	n/a	wordpools/wordpool_categorized_EN.txt	GOOSE	Birds	8	1	[0, 0, 0]	n/a	catFR1	4	R1328E
198.451	0.866	200552	WORD_OFF	n/a	n/a	GOOSE	Birds	8	1	[0, 0, 0]	n/a	catFR1	4	R1328E
199.317	1.617	201418	WORD	n/a	wordpools/wordpool_categorized_EN.txt	VALLEY	Landscapes	9	1	[0, 0, 0]	n/a	catFR1	4	R1328E
200.934	0.847	203035	WORD_OFF	n/a	n/a	VALLEY	Landscapes	9	1	[0, 0, 0]	n/a	catFR1	4	R1328E
201.781	1.637	203882	WORD	n/a	wordpools/wordpool_categorized_EN.txt	STREAM	Landscapes	10	1	[0, 0, 0]	n/a	catFR1	4	R1328E
203.418	1.143	205519	WORD_OFF	n/a	n/a	STREAM	Landscapes	10	1	[0, 0, 0]	n/a	catFR1	4	R1328E
204.561	1.623	206662	WORD	n/a	wordpools/wordpool_categorized_EN.txt	BUTTERFLY	Insects	11	1	[0, 0, 0]	n/a	catFR1	4	R1328E
206.184	1.112	208285	WORD_OFF	n/a	n/a	BUTTERFLY	Insects	11	1	[0, 0, 0]	n/a	catFR1	4	R1328E
207.296	1.623	209397	WORD	n/a	wordpools/wordpool_categorized_EN.txt	BEETLE	Insects	12	1	[0, 0, 0]	n/a	catFR1	4	R1328E
208.919	0.001	211020	WORD_OFF	n/a	n/a	BEETLE	Insects	12	1	[0, 0, 0]	n/a	catFR1	4	R1328E
208.92	0.0	211021	ENCODING_END	n/a	n/a	n/a	n/a	-999	1	[0, 0, 0]	n/a	catFR1	4	R1328E
208.92	0.0	211021	DISTRACT_START	n/a	n/a	n/a	n/a	-999	1	[0, 0, 0]	n/a	catFR1	4	R1328E
208.92	0.016	211021	START	n/a	n/a	n/a	n/a	-999	1	[-999, -999, -999]	n/a	catFR1	4	R1328E
208.936	7.551	211037	PROB	7.551	n/a	n/a	n/a	-999	1	[2, 6, 2]	10	catFR1	4	R1328E
216.487	7.684	218587	PROB	7.684	n/a	n/a	n/a	-999	1	[5, 1, 2]	8	catFR1	4	R1328E
224.171	30.257	226271	PROB	30.257	n/a	n/a	n/a	-999	1	[9, 5, 8]	22	catFR1	4	R1328E
254.428	0.016	256527	STOP	n/a	n/a	n/a	n/a	-999	1	[-999, -999, -999]	n/a	catFR1	4	R1328E
254.444	0.523	256543	DISTRACT_END	n/a	n/a	n/a	n/a	-999	1	[0, 0, 0]	n/a	catFR1	4	R1328E
254.967	1.561	257066	RETRIEVAL_ORIENT_START	n/a	n/a	n/a	n/a	-999	1	[0, 0, 0]	n/a	catFR1	4	R1328E
256.528	0.0	258627	RETRIEVAL_ORIENT_END	n/a	n/a	n/a	n/a	-999	1	[0, 0, 0]	n/a	catFR1	4	R1328E
256.528	0.52	258627	REC_START	n/a	n/a	n/a	n/a	-999	1	[0, 0, 0]	n/a	catFR1	4	R1328E
257.048	1.091	259147	REC_WORD	1.091	n/a	PIGEON	Birds	1	1	[0, 0, 0]	n/a	catFR1	4	R1328E
258.139	1.274	260238	REC_WORD	1.274	n/a	DOVE	Birds	2	1	[0, 0, 0]	n/a	catFR1	4	R1328E
259.413	1.655	261512	REC_WORD	1.655	n/a	VALLEY	Landscapes	9	1	[0, 0, 0]	n/a	catFR1	4	R1328E
261.068	1.362	263167	REC_WORD	1.362	n/a	ISLAND	Landscapes	5	1	[0, 0, 0]	n/a	catFR1	4	R1328E
262.43	2.313	264529	REC_WORD	2.313	n/a	WOODS	Landscapes	6	1	[0, 0, 0]	n/a	catFR1	4	R1328E
264.743	3.397	266842	REC_WORD	3.397	n/a	STREAM	Landscapes	10	1	[0, 0, 0]	n/a	catFR1	4	R1328E
268.14	6.413	270238	REC_WORD	6.413	n/a	GOOSE	Birds	8	1	[0, 0, 0]	n/a	catFR1	4	R1328E
274.553	0.536	276651	REC_WORD	0.536	n/a	GNAT	Insects	4	1	[0, 0, 0]	n/a	catFR1	4	R1328E
275.089	5.672	277187	REC_WORD	5.672	n/a	FLY	Insects	3	1	[0, 0, 0]	n/a	catFR1	4	R1328E
280.761	5.778	282859	REC_WORD	5.778	n/a	BUTTERFLY	Insects	11	1	[0, 0, 0]	n/a	catFR1	4	R1328E
286.539	0.0	288637	TRIAL_END	n/a	n/a	n/a	n/a	-999	1	[0, 0, 0]	n/a	catFR1	4	R1328E
286.539	0.027	288637	REC_END	n/a	n/a	n/a	n/a	-999	1	[0, 0, 0]	n/a	catFR1	4	R1328E
286.566	0.0	288664	TRIAL_START	n/a	n/a	n/a	n/a	-999	2	[0, 0, 0]	n/a	catFR1	4	R1328E
286.566	0.001	288664	TRIAL	n/a	n/a	n/a	n/a	-999	2	[0, 0, 0]	n/a	catFR1	4	R1328E
286.567	5.0	288665	WAITING_START	n/a	n/a	n/a	n/a	-999	2	[0, 0, 0]	n/a	catFR1	4	R1328E
291.567	0.0	293665	WAITING_END	n/a	n/a	n/a	n/a	-999	2	[0, 0, 0]	n/a	catFR1	4	R1328E
291.567	10.43	293665	COUNTDOWN_START	n/a	n/a	n/a	n/a	-999	2	[0, 0, 0]	n/a	catFR1	4	R1328E
301.997	0.0	304094	COUNTDOWN_END	n/a	n/a	n/a	n/a	-999	2	[0, 0, 0]	n/a	catFR1	4	R1328E
301.997	1.171	304094	ORIENT_START	n/a	n/a	n/a	n/a	-999	2	[0, 0, 0]	n/a	catFR1	4	R1328E
303.168	0.0	305265	ORIENT_END	n/a	n/a	n/a	n/a	-999	2	[0, 0, 0]	n/a	catFR1	4	R1328E
303.168	0.87	305265	ENCODING_START	n/a	n/a	n/a	n/a	-999	2	[0, 0, 0]	n/a	catFR1	4	R1328E
304.038	1.632	306135	WORD	n/a	wordpools/wordpool_categorized_EN.txt	HAND	BodyParts	1	2	[0, 0, 0]	n/a	catFR1	4	R1328E
305.67	1.086	307767	WORD_OFF	n/a	n/a	HAND	BodyParts	1	2	[0, 0, 0]	n/a	catFR1	4	R1328E
306.756	1.631	308853	WORD	n/a	wordpools/wordpool_categorized_EN.txt	TOE	BodyParts	2	2	[0, 0, 0]	n/a	catFR1	4	R1328E
308.387	1.096	310484	WORD_OFF	n/a	n/a	TOE	BodyParts	2	2	[0, 0, 0]	n/a	catFR1	4	R1328E
309.483	1.636	311580	WORD	n/a	wordpools/wordpool_categorized_EN.txt	GRAPE	Fruit	3	2	[0, 0, 0]	n/a	catFR1	4	R1328E
311.119	0.945	313216	WORD_OFF	n/a	n/a	GRAPE	Fruit	3	2	[0, 0, 0]	n/a	catFR1	4	R1328E
312.064	1.624	314161	WORD	n/a	wordpools/wordpool_categorized_EN.txt	LIME	Fruit	4	2	[0, 0, 0]	n/a	catFR1	4	R1328E
313.688	1.112	315785	WORD_OFF	n/a	n/a	LIME	Fruit	4	2	[0, 0, 0]	n/a	catFR1	4	R1328E
314.8	1.621	316897	WORD	n/a	wordpools/wordpool_categorized_EN.txt	CEDAR	Trees	5	2	[0, 0, 0]	n/a	catFR1	4	R1328E
316.421	0.943	318518	WORD_OFF	n/a	n/a	CEDAR	Trees	5	2	[0, 0, 0]	n/a	catFR1	4	R1328E
317.364	1.625	319461	WORD	n/a	wordpools/wordpool_categorized_EN.txt	WALNUT	Trees	6	2	[0, 0, 0]	n/a	catFR1	4	R1328E
318.989	1.099	321086	WORD_OFF	n/a	n/a	WALNUT	Trees	6	2	[0, 0, 0]	n/a	catFR1	4	R1328E
320.088	1.617	322185	WORD	n/a	wordpools/wordpool_categorized_EN.txt	NOSE	BodyParts	7	2	[0, 0, 0]	n/a	catFR1	4	R1328E
321.705	1.022	323801	WORD_OFF	n/a	n/a	NOSE	BodyParts	7	2	[0, 0, 0]	n/a	catFR1	4	R1328E
322.727	1.629	324823	WORD	n/a	wordpools/wordpool_categorized_EN.txt	ARM	BodyParts	8	2	[0, 0, 0]	n/a	catFR1	4	R1328E
324.356	0.927	326452	WORD_OFF	n/a	n/a	ARM	BodyParts	8	2	[0, 0, 0]	n/a	catFR1	4	R1328E
325.283	1.624	327379	WORD	n/a	wordpools/wordpool_categorized_EN.txt	BLUEBERRY	Fruit	9	2	[0, 0, 0]	n/a	catFR1	4	R1328E
326.907	0.956	329003	WORD_OFF	n/a	n/a	BLUEBERRY	Fruit	9	2	[0, 0, 0]	n/a	catFR1	4	R1328E
327.863	1.627	329959	WORD	n/a	wordpools/wordpool_categorized_EN.txt	CHERRY	Fruit	10	2	[0, 0, 0]	n/a	catFR1	4	R1328E
329.49	1.123	331586	WORD_OFF	n/a	n/a	CHERRY	Fruit	10	2	[0, 0, 0]	n/a	catFR1	4	R1328E
330.613	1.627	332709	WORD	n/a	wordpools/wordpool_categorized_EN.txt	WILLOW	Trees	11	2	[0, 0, 0]	n/a	catFR1	4	R1328E
332.24	0.982	334336	WORD_OFF	n/a	n/a	WILLOW	Trees	11	2	[0, 0, 0]	n/a	catFR1	4	R1328E
333.222	1.636	335318	WORD	n/a	wordpools/wordpool_categorized_EN.txt	SPRUCE	Trees	12	2	[0, 0, 0]	n/a	catFR1	4	R1328E
334.858	0.0	336954	WORD_OFF	n/a	n/a	SPRUCE	Trees	12	2	[0, 0, 0]	n/a	catFR1	4	R1328E
334.858	0.001	336954	ENCODING_END	n/a	n/a	n/a	n/a	-999	2	[0, 0, 0]	n/a	catFR1	4	R1328E
334.859	0.0	336955	DISTRACT_START	n/a	n/a	n/a	n/a	-999	2	[0, 0, 0]	n/a	catFR1	4	R1328E
334.859	0.015	336955	START	n/a	n/a	n/a	n/a	-999	2	[-999, -999, -999]	n/a	catFR1	4	R1328E
334.874	10.351	336970	PROB	10.351	n/a	n/a	n/a	-999	2	[6, 2, 4]	12	catFR1	4	R1328E
345.225	23.026	347321	PROB	23.026	n/a	n/a	n/a	-999	2	[8, 2, 8]	18	catFR1	4	R1328E
368.251	0.012	370346	STOP	n/a	n/a	n/a	n/a	-999	2	[-999, -999, -999]	n/a	catFR1	4	R1328E
368.263	0.604	370358	DISTRACT_END	n/a	n/a	n/a	n/a	-999	2	[0, 0, 0]	n/a	catFR1	4	R1328E
368.867	1.63	370962	RETRIEVAL_ORIENT_START	n/a	n/a	n/a	n/a	-999	2	[0, 0, 0]	n/a	catFR1	4	R1328E
370.497	0.001	372592	RETRIEVAL_ORIENT_END	n/a	n/a	n/a	n/a	-999	2	[0, 0, 0]	n/a	catFR1	4	R1328E
370.498	0.0	372593	REC_WORD	0.0	n/a	WILLOW	Trees	11	2	[0, 0, 0]	n/a	catFR1	4	R1328E
370.498	0.882	372593	REC_START	n/a	n/a	n/a	n/a	-999	2	[0, 0, 0]	n/a	catFR1	4	R1328E
371.38	1.765	373475	REC_WORD	1.765	n/a	SPRUCE	Trees	12	2	[0, 0, 0]	n/a	catFR1	4	R1328E
373.145	1.113	375240	REC_WORD	1.113	n/a	BLUEBERRY	Fruit	9	2	[0, 0, 0]	n/a	catFR1	4	R1328E
374.258	3.544	376353	REC_WORD	3.544	n/a	CHERRY	Fruit	10	2	[0, 0, 0]	n/a	catFR1	4	R1328E
377.802	1.108	379896	REC_WORD	1.108	n/a	LIME	Fruit	4	2	[0, 0, 0]	n/a	catFR1	4	R1328E
378.91	21.603	381004	REC_WORD	21.603	n/a	GRAPE	Fruit	3	2	[0, 0, 0]	n/a	catFR1	4	R1328E
400.513	0.001	402607	REC_END	n/a	n/a	n/a	n/a	-999	2	[0, 0, 0]	n/a	catFR1	4	R1328E
400.514	0.027	402608	TRIAL_END	n/a	n/a	n/a	n/a	-999	2	[0, 0, 0]	n/a	catFR1	4	R1328E
400.541	0.0	402635	WAITING_START	n/a	n/a	n/a	n/a	-999	3	[0, 0, 0]	n/a	catFR1	4	R1328E
400.541	0.0	402635	TRIAL	n/a	n/a	n/a	n/a	-999	3	[0, 0, 0]	n/a	catFR1	4	R1328E
400.541	2.362	402635	TRIAL_START	n/a	n/a	n/a	n/a	-999	3	[0, 0, 0]	n/a	catFR1	4	R1328E
402.903	0.001	404997	WAITING_END	n/a	n/a	n/a	n/a	-999	3	[0, 0, 0]	n/a	catFR1	4	R1328E
402.904	10.428	404998	COUNTDOWN_START	n/a	n/a	n/a	n/a	-999	3	[0, 0, 0]	n/a	catFR1	4	R1328E
413.332	0.001	415425	COUNTDOWN_END	n/a	n/a	n/a	n/a	-999	3	[0, 0, 0]	n/a	catFR1	4	R1328E
413.333	1.206	415426	ORIENT_START	n/a	n/a	n/a	n/a	-999	3	[0, 0, 0]	n/a	catFR1	4	R1328E
414.539	0.0	416632	ORIENT_END	n/a	n/a	n/a	n/a	-999	3	[0, 0, 0]	n/a	catFR1	4	R1328E
414.539	1.134	416632	ENCODING_START	n/a	n/a	n/a	n/a	-999	3	[0, 0, 0]	n/a	catFR1	4	R1328E
415.673	1.632	417766	WORD	n/a	wordpools/wordpool_categorized_EN.txt	FLOOR	Building	1	3	[0, 0, 0]	n/a	catFR1	4	R1328E
417.305	1.052	419398	WORD_OFF	n/a	n/a	FLOOR	Building	1	3	[0, 0, 0]	n/a	catFR1	4	R1328E
418.357	1.633	420450	WORD	n/a	wordpools/wordpool_categorized_EN.txt	STAIRS	Building	2	3	[0, 0, 0]	n/a	catFR1	4	R1328E
419.99	0.944	422083	WORD_OFF	n/a	n/a	STAIRS	Building	2	3	[0, 0, 0]	n/a	catFR1	4	R1328E
420.934	1.623	423027	WORD	n/a	wordpools/wordpool_categorized_EN.txt	PIG	FarmAnimals	3	3	[0, 0, 0]	n/a	catFR1	4	R1328E
422.557	1.069	424650	WORD_OFF	n/a	n/a	PIG	FarmAnimals	3	3	[0, 0, 0]	n/a	catFR1	4	R1328E
423.626	1.63	425719	WORD	n/a	wordpools/wordpool_categorized_EN.txt	GOAT	FarmAnimals	4	3	[0, 0, 0]	n/a	catFR1	4	R1328E
425.256	1.053	427349	WORD_OFF	n/a	n/a	GOAT	FarmAnimals	4	3	[0, 0, 0]	n/a	catFR1	4	R1328E
426.309	1.632	428402	WORD	n/a	wordpools/wordpool_categorized_EN.txt	CREEK	Landscapes	5	3	[0, 0, 0]	n/a	catFR1	4	R1328E
427.941	0.771	430034	WORD_OFF	n/a	n/a	CREEK	Landscapes	5	3	[0, 0, 0]	n/a	catFR1	4	R1328E
428.712	1.628	430805	WORD	n/a	wordpools/wordpool_categorized_EN.txt	HILLS	Landscapes	6	3	[0, 0, 0]	n/a	catFR1	4	R1328E
430.34	1.017	432433	WORD_OFF	n/a	n/a	HILLS	Landscapes	6	3	[0, 0, 0]	n/a	catFR1	4	R1328E
431.357	1.635	433450	WORD	n/a	wordpools/wordpool_categorized_EN.txt	ROOF	Building	7	3	[0, 0, 0]	n/a	catFR1	4	R1328E
432.992	0.914	435084	WORD_OFF	n/a	n/a	ROOF	Building	7	3	[0, 0, 0]	n/a	catFR1	4	R1328E
433.906	1.636	435998	WORD	n/a	wordpools/wordpool_categorized_EN.txt	WINDOW	Building	8	3	[0, 0, 0]	n/a	catFR1	4	R1328E
435.542	1.148	437634	WORD_OFF	n/a	n/a	WINDOW	Building	8	3	[0, 0, 0]	n/a	catFR1	4	R1328E
436.69	1.635	438782	WORD	n/a	wordpools/wordpool_categorized_EN.txt	FOREST	Landscapes	9	3	[0, 0, 0]	n/a	catFR1	4	R1328E
438.325	0.945	440417	WORD_OFF	n/a	n/a	FOREST	Landscapes	9	3	[0, 0, 0]	n/a	catFR1	4	R1328E
439.27	1.623	441362	WORD	n/a	wordpools/wordpool_categorized_EN.txt	LAKE	Landscapes	10	3	[0, 0, 0]	n/a	catFR1	4	R1328E
440.893	0.805	442985	WORD_OFF	n/a	n/a	LAKE	Landscapes	10	3	[0, 0, 0]	n/a	catFR1	4	R1328E
441.698	1.628	443790	WORD	n/a	wordpools/wordpool_categorized_EN.txt	HORSE	FarmAnimals	11	3	[0, 0, 0]	n/a	catFR1	4	R1328E
443.326	1.08	445418	WORD_OFF	n/a	n/a	HORSE	FarmAnimals	11	3	[0, 0, 0]	n/a	catFR1	4	R1328E
444.406	1.621	446498	WORD	n/a	wordpools/wordpool_categorized_EN.txt	SHEEP	FarmAnimals	12	3	[0, 0, 0]	n/a	catFR1	4	R1328E
446.027	0.001	448119	WORD_OFF	n/a	n/a	SHEEP	FarmAnimals	12	3	[0, 0, 0]	n/a	catFR1	4	R1328E
446.028	0.0	448120	ENCODING_END	n/a	n/a	n/a	n/a	-999	3	[0, 0, 0]	n/a	catFR1	4	R1328E
446.028	0.0	448120	DISTRACT_START	n/a	n/a	n/a	n/a	-999	3	[0, 0, 0]	n/a	catFR1	4	R1328E
446.028	0.016	448120	START	n/a	n/a	n/a	n/a	-999	3	[-999, -999, -999]	n/a	catFR1	4	R1328E
446.044	14.268	448136	PROB	14.268	n/a	n/a	n/a	-999	3	[6, 7, 9]	22	catFR1	4	R1328E
460.312	41.772	462403	PROB	41.772	n/a	n/a	n/a	-999	3	[6, 4, 7]	17	catFR1	4	R1328E
502.084	0.019	504174	STOP	n/a	n/a	n/a	n/a	-999	3	[-999, -999, -999]	n/a	catFR1	4	R1328E
502.103	0.519	504193	DISTRACT_END	n/a	n/a	n/a	n/a	-999	3	[0, 0, 0]	n/a	catFR1	4	R1328E
502.622	1.581	504712	RETRIEVAL_ORIENT_START	n/a	n/a	n/a	n/a	-999	3	[0, 0, 0]	n/a	catFR1	4	R1328E
504.203	0.001	506293	RETRIEVAL_ORIENT_END	n/a	n/a	n/a	n/a	-999	3	[0, 0, 0]	n/a	catFR1	4	R1328E
504.204	0.585	506294	REC_START	n/a	n/a	n/a	n/a	-999	3	[0, 0, 0]	n/a	catFR1	4	R1328E
504.789	1.871	506879	REC_WORD	1.871	n/a	CREEK	Landscapes	5	3	[0, 0, 0]	n/a	catFR1	4	R1328E
506.66	12.24	508750	REC_WORD	12.24	n/a	FOREST	Landscapes	9	3	[0, 0, 0]	n/a	catFR1	4	R1328E
518.9	1.566	520989	REC_WORD	1.566	n/a	PIG	FarmAnimals	3	3	[0, 0, 0]	n/a	catFR1	4	R1328E
520.466	1.395	522555	REC_WORD	1.395	n/a	GOAT	FarmAnimals	4	3	[0, 0, 0]	n/a	catFR1	4	R1328E
521.861	0.823	523950	REC_WORD	0.823	n/a	HORSE	FarmAnimals	11	3	[0, 0, 0]	n/a	catFR1	4	R1328E
522.684	11.532	524773	REC_WORD	11.532	n/a	SHEEP	FarmAnimals	12	3	[0, 0, 0]	n/a	catFR1	4	R1328E
534.216	0.0	536305	REC_END	n/a	n/a	n/a	n/a	-999	3	[0, 0, 0]	n/a	catFR1	4	R1328E
534.216	0.027	536305	TRIAL_END	n/a	n/a	n/a	n/a	-999	3	[0, 0, 0]	n/a	catFR1	4	R1328E
534.243	0.0	536332	WAITING_START	n/a	n/a	n/a	n/a	-999	4	[0, 0, 0]	n/a	catFR1	4	R1328E
534.243	0.0	536332	TRIAL	n/a	n/a	n/a	n/a	-999	4	[0, 0, 0]	n/a	catFR1	4	R1328E
534.243	2.3	536332	TRIAL_START	n/a	n/a	n/a	n/a	-999	4	[0, 0, 0]	n/a	catFR1	4	R1328E
536.543	0.001	538632	WAITING_END	n/a	n/a	n/a	n/a	-999	4	[0, 0, 0]	n/a	catFR1	4	R1328E
536.544	10.429	538633	COUNTDOWN_START	n/a	n/a	n/a	n/a	-999	4	[0, 0, 0]	n/a	catFR1	4	R1328E
546.973	0.0	549061	COUNTDOWN_END	n/a	n/a	n/a	n/a	-999	4	[0, 0, 0]	n/a	catFR1	4	R1328E
546.973	1.089	549061	ORIENT_START	n/a	n/a	n/a	n/a	-999	4	[0, 0, 0]	n/a	catFR1	4	R1328E
548.062	0.0	550150	ORIENT_END	n/a	n/a	n/a	n/a	-999	4	[0, 0, 0]	n/a	catFR1	4	R1328E
548.062	0.844	550150	ENCODING_START	n/a	n/a	n/a	n/a	-999	4	[0, 0, 0]	n/a	catFR1	4	R1328E
548.906	1.623	550994	WORD	n/a	wordpools/wordpool_categorized_EN.txt	BLENDER	Appliances	1	4	[0, 0, 0]	n/a	catFR1	4	R1328E
550.529	0.939	552617	WORD_OFF	n/a	n/a	BLENDER	Appliances	1	4	[0, 0, 0]	n/a	catFR1	4	R1328E
551.468	1.627	553556	WORD	n/a	wordpools/wordpool_categorized_EN.txt	MIXER	Appliances	2	4	[0, 0, 0]	n/a	catFR1	4	R1328E
553.095	0.992	555183	WORD_OFF	n/a	n/a	MIXER	Appliances	2	4	[0, 0, 0]	n/a	catFR1	4	R1328E
554.087	1.626	556175	WORD	n/a	wordpools/wordpool_categorized_EN.txt	MOTH	Insects	3	4	[0, 0, 0]	n/a	catFR1	4	R1328E
555.713	0.934	557801	WORD_OFF	n/a	n/a	MOTH	Insects	3	4	[0, 0, 0]	n/a	catFR1	4	R1328E
556.647	1.632	558735	WORD	n/a	wordpools/wordpool_categorized_EN.txt	ROACH	Insects	4	4	[0, 0, 0]	n/a	catFR1	4	R1328E
558.279	0.83	560367	WORD_OFF	n/a	n/a	ROACH	Insects	4	4	[0, 0, 0]	n/a	catFR1	4	R1328E
559.109	1.638	561197	WORD	n/a	wordpools/wordpool_categorized_EN.txt	CABBAGE	Vegetables	5	4	[0, 0, 0]	n/a	catFR1	4	R1328E
560.747	0.989	562835	WORD_OFF	n/a	n/a	CABBAGE	Vegetables	5	4	[0, 0, 0]	n/a	catFR1	4	R1328E
561.736	1.629	563824	WORD	n/a	wordpools/wordpool_categorized_EN.txt	POTATO	Vegetables	6	4	[0, 0, 0]	n/a	catFR1	4	R1328E
563.365	0.944	565453	WORD_OFF	n/a	n/a	POTATO	Vegetables	6	4	[0, 0, 0]	n/a	catFR1	4	R1328E
564.309	1.623	566397	WORD	n/a	wordpools/wordpool_categorized_EN.txt	FREEZER	Appliances	7	4	[0, 0, 0]	n/a	catFR1	4	R1328E
565.932	0.957	568020	WORD_OFF	n/a	n/a	FREEZER	Appliances	7	4	[0, 0, 0]	n/a	catFR1	4	R1328E
566.889	1.626	568977	WORD	n/a	wordpools/wordpool_categorized_EN.txt	VACUUM	Appliances	8	4	[0, 0, 0]	n/a	catFR1	4	R1328E
568.515	1.096	570603	WORD_OFF	n/a	n/a	VACUUM	Appliances	8	4	[0, 0, 0]	n/a	catFR1	4	R1328E
569.611	1.637	571699	WORD	n/a	wordpools/wordpool_categorized_EN.txt	LETTUCE	Vegetables	9	4	[0, 0, 0]	n/a	catFR1	4	R1328E
571.248	0.962	573335	WORD_OFF	n/a	n/a	LETTUCE	Vegetables	9	4	[0, 0, 0]	n/a	catFR1	4	R1328E
572.21	1.623	574297	WORD	n/a	wordpools/wordpool_categorized_EN.txt	CUCUMBER	Vegetables	10	4	[0, 0, 0]	n/a	catFR1	4	R1328E
573.833	0.843	575920	WORD_OFF	n/a	n/a	CUCUMBER	Vegetables	10	4	[0, 0, 0]	n/a	catFR1	4	R1328E
574.676	1.623	576763	WORD	n/a	wordpools/wordpool_categorized_EN.txt	BEE	Insects	11	4	[0, 0, 0]	n/a	catFR1	4	R1328E
576.299	0.928	578386	WORD_OFF	n/a	n/a	BEE	Insects	11	4	[0, 0, 0]	n/a	catFR1	4	R1328E
577.227	1.607	579314	WORD	n/a	wordpools/wordpool_categorized_EN.txt	LADYBUG	Insects	12	4	[0, 0, 0]	n/a	catFR1	4	R1328E
578.834	0.0	580921	WORD_OFF	n/a	n/a	LADYBUG	Insects	12	4	[0, 0, 0]	n/a	catFR1	4	R1328E
578.834	0.0	580921	ENCODING_END	n/a	n/a	n/a	n/a	-999	4	[0, 0, 0]	n/a	catFR1	4	R1328E
578.834	0.0	580921	DISTRACT_START	n/a	n/a	n/a	n/a	-999	4	[0, 0, 0]	n/a	catFR1	4	R1328E
578.834	0.016	580921	START	n/a	n/a	n/a	n/a	-999	4	[-999, -999, -999]	n/a	catFR1	4	R1328E
578.85	7.085	580937	PROB	7.085	n/a	n/a	n/a	-999	4	[4, 9, 6]	19	catFR1	4	R1328E
585.935	25.128	588022	PROB	25.128	n/a	n/a	n/a	-999	4	[7, 4, 8]	19	catFR1	4	R1328E
611.063	0.009	613149	STOP	n/a	n/a	n/a	n/a	-999	4	[-999, -999, -999]	n/a	catFR1	4	R1328E
611.072	0.566	613158	DISTRACT_END	n/a	n/a	n/a	n/a	-999	4	[0, 0, 0]	n/a	catFR1	4	R1328E
611.638	1.668	613724	RETRIEVAL_ORIENT_START	n/a	n/a	n/a	n/a	-999	4	[0, 0, 0]	n/a	catFR1	4	R1328E
613.306	0.0	615392	RETRIEVAL_ORIENT_END	n/a	n/a	n/a	n/a	-999	4	[0, 0, 0]	n/a	catFR1	4	R1328E
613.306	0.0	615392	REC_START	n/a	n/a	n/a	n/a	-999	4	[0, 0, 0]	n/a	catFR1	4	R1328E
613.306	1.325	615392	REC_WORD	1.325	n/a	FREEZER	Appliances	7	4	[0, 0, 0]	n/a	catFR1	4	R1328E
614.631	6.153	616717	REC_WORD	6.153	n/a	VACUUM	Appliances	8	4	[0, 0, 0]	n/a	catFR1	4	R1328E
620.784	2.119	622870	REC_WORD	2.119	n/a	BEETLE	Insects	-999	4	[0, 0, 0]	n/a	catFR1	4	R1328E
622.903	2.003	624989	REC_WORD	2.003	n/a	LADYBUG	Insects	12	4	[0, 0, 0]	n/a	catFR1	4	R1328E
624.906	7.995	626992	REC_WORD	7.995	n/a	ROACH	Insects	4	4	[0, 0, 0]	n/a	catFR1	4	R1328E
632.901	10.416	634986	REC_WORD	10.416	n/a	BEE	Insects	11	4	[0, 0, 0]	n/a	catFR1	4	R1328E
643.317	0.001	645402	REC_END	n/a	n/a	n/a	n/a	-999	4	[0, 0, 0]	n/a	catFR1	4	R1328E
643.318	0.03	645403	TRIAL_END	n/a	n/a	n/a	n/a	-999	4	[0, 0, 0]	n/a	catFR1	4	R1328E
643.348	0.0	645433	TRIAL_START	n/a	n/a	n/a	n/a	-999	5	[0, 0, 0]	n/a	catFR1	4	R1328E
643.348	0.002	645433	TRIAL	n/a	n/a	n/a	n/a	-999	5	[0, 0, 0]	n/a	catFR1	4	R1328E
643.35	3.911	645435	WAITING_START	n/a	n/a	n/a	n/a	-999	5	[0, 0, 0]	n/a	catFR1	4	R1328E
647.261	0.001	649346	WAITING_END	n/a	n/a	n/a	n/a	-999	5	[0, 0, 0]	n/a	catFR1	4	R1328E
647.262	10.428	649347	COUNTDOWN_START	n/a	n/a	n/a	n/a	-999	5	[0, 0, 0]	n/a	catFR1	4	R1328E
657.69	0.0	659774	COUNTDOWN_END	n/a	n/a	n/a	n/a	-999	5	[0, 0, 0]	n/a	catFR1	4	R1328E
657.69	1.225	659774	ORIENT_START	n/a	n/a	n/a	n/a	-999	5	[0, 0, 0]	n/a	catFR1	4	R1328E
658.915	0.0	660999	ORIENT_END	n/a	n/a	n/a	n/a	-999	5	[0, 0, 0]	n/a	catFR1	4	R1328E
658.915	1.036	660999	ENCODING_START	n/a	n/a	n/a	n/a	-999	5	[0, 0, 0]	n/a	catFR1	4	R1328E
659.951	1.631	662035	WORD	n/a	wordpools/wordpool_categorized_EN.txt	STOVE	Appliances	1	5	[0, 0, 0]	n/a	catFR1	4	R1328E
661.582	0.967	663666	WORD_OFF	n/a	n/a	STOVE	Appliances	1	5	[0, 0, 0]	n/a	catFR1	4	R1328E
662.549	1.632	664633	WORD	n/a	wordpools/wordpool_categorized_EN.txt	IRON	Appliances	2	5	[0, 0, 0]	n/a	catFR1	4	R1328E
664.181	0.78	666265	WORD_OFF	n/a	n/a	IRON	Appliances	2	5	[0, 0, 0]	n/a	catFR1	4	R1328E
664.961	1.622	667045	WORD	n/a	wordpools/wordpool_categorized_EN.txt	CIDER	Beverages	3	5	[0, 0, 0]	n/a	catFR1	4	R1328E
666.583	1.082	668667	WORD_OFF	n/a	n/a	CIDER	Beverages	3	5	[0, 0, 0]	n/a	catFR1	4	R1328E
667.665	1.634	669749	WORD	n/a	wordpools/wordpool_categorized_EN.txt	SODA	Beverages	4	5	[0, 0, 0]	n/a	catFR1	4	R1328E
669.299	0.836	671383	WORD_OFF	n/a	n/a	SODA	Beverages	4	5	[0, 0, 0]	n/a	catFR1	4	R1328E
670.135	1.632	672219	WORD	n/a	wordpools/wordpool_categorized_EN.txt	THUNDER	Weather	5	5	[0, 0, 0]	n/a	catFR1	4	R1328E
671.767	0.867	673851	WORD_OFF	n/a	n/a	THUNDER	Weather	5	5	[0, 0, 0]	n/a	catFR1	4	R1328E
672.634	1.632	674718	WORD	n/a	wordpools/wordpool_categorized_EN.txt	SNOW	Weather	6	5	[0, 0, 0]	n/a	catFR1	4	R1328E
674.266	1.065	676350	WORD_OFF	n/a	n/a	SNOW	Weather	6	5	[0, 0, 0]	n/a	catFR1	4	R1328E
675.331	1.637	677415	WORD	n/a	wordpools/wordpool_categorized_EN.txt	TEA	Beverages	7	5	[0, 0, 0]	n/a	catFR1	4	R1328E
676.968	1.129	679052	WORD_OFF	n/a	n/a	TEA	Beverages	7	5	[0, 0, 0]	n/a	catFR1	4	R1328E
678.097	1.638	680181	WORD	n/a	wordpools/wordpool_categorized_EN.txt	COFFEE	Beverages	8	5	[0, 0, 0]	n/a	catFR1	4	R1328E
679.735	1.05	681819	WORD_OFF	n/a	n/a	COFFEE	Beverages	8	5	[0, 0, 0]	n/a	catFR1	4	R1328E
680.785	1.634	682869	WORD	n/a	wordpools/wordpool_categorized_EN.txt	LIGHTNING	Weather	9	5	[0, 0, 0]	n/a	catFR1	4	R1328E
682.419	0.978	684502	WORD_OFF	n/a	n/a	LIGHTNING	Weather	9	5	[0, 0, 0]	n/a	catFR1	4	R1328E
683.397	1.622	685480	WORD	n/a	wordpools/wordpool_categorized_EN.txt	HUMIDITY	Weather	10	5	[0, 0, 0]	n/a	catFR1	4	R1328E
685.019	0.791	687102	WORD_OFF	n/a	n/a	HUMIDITY	Weather	10	5	[0, 0, 0]	n/a	catFR1	4	R1328E
685.81	1.626	687893	WORD	n/a	wordpools/wordpool_categorized_EN.txt	OVEN	Appliances	11	5	[0, 0, 0]	n/a	catFR1	4	R1328E
687.436	0.843	689519	WORD_OFF	n/a	n/a	OVEN	Appliances	11	5	[0, 0, 0]	n/a	catFR1	4	R1328E
688.279	1.624	690362	WORD	n/a	wordpools/wordpool_categorized_EN.txt	DISHWASHER	Appliances	12	5	[0, 0, 0]	n/a	catFR1	4	R1328E
689.903	0.001	691986	WORD_OFF	n/a	n/a	DISHWASHER	Appliances	12	5	[0, 0, 0]	n/a	catFR1	4	R1328E
689.904	0.0	691987	ENCODING_END	n/a	n/a	n/a	n/a	-999	5	[0, 0, 0]	n/a	catFR1	4	R1328E
689.904	0.0	691987	DISTRACT_START	n/a	n/a	n/a	n/a	-999	5	[0, 0, 0]	n/a	catFR1	4	R1328E
689.904	0.016	691987	START	n/a	n/a	n/a	n/a	-999	5	[-999, -999, -999]	n/a	catFR1	4	R1328E
689.92	18.953	692003	PROB	18.953	n/a	n/a	n/a	-999	5	[4, 9, 5]	18	catFR1	4	R1328E
708.873	6.706	710956	PROB	6.706	n/a	n/a	n/a	-999	5	[9, 5, 9]	23	catFR1	4	R1328E
715.579	0.012	717661	STOP	n/a	n/a	n/a	n/a	-999	5	[-999, -999, -999]	n/a	catFR1	4	R1328E
715.591	0.502	717673	DISTRACT_END	n/a	n/a	n/a	n/a	-999	5	[0, 0, 0]	n/a	catFR1	4	R1328E
716.093	1.532	718175	RETRIEVAL_ORIENT_START	n/a	n/a	n/a	n/a	-999	5	[0, 0, 0]	n/a	catFR1	4	R1328E
717.625	0.0	719707	RETRIEVAL_ORIENT_END	n/a	n/a	n/a	n/a	-999	5	[0, 0, 0]	n/a	catFR1	4	R1328E
717.625	0.079	719707	REC_START	n/a	n/a	n/a	n/a	-999	5	[0, 0, 0]	n/a	catFR1	4	R1328E
717.704	1.25	719786	REC_WORD	1.25	n/a	STOVE	Appliances	1	5	[0, 0, 0]	n/a	catFR1	4	R1328E
718.954	3.297	721036	REC_WORD	3.297	n/a	IRON	Appliances	2	5	[0, 0, 0]	n/a	catFR1	4	R1328E
722.251	7.36	724333	REC_WORD	7.36	n/a	OVEN	Appliances	11	5	[0, 0, 0]	n/a	catFR1	4	R1328E
729.611	1.389	731693	REC_WORD	1.389	n/a	SODA	Beverages	4	5	[0, 0, 0]	n/a	catFR1	4	R1328E
731.0	13.855	733082	REC_WORD	13.855	n/a	CIDER	Beverages	3	5	[0, 0, 0]	n/a	catFR1	4	R1328E
744.855	2.782	746936	REC_WORD	2.782	n/a	DISHWASHER	Appliances	12	5	[0, 0, 0]	n/a	catFR1	4	R1328E
747.637	0.0	749718	REC_END	n/a	n/a	n/a	n/a	-999	5	[0, 0, 0]	n/a	catFR1	4	R1328E
747.637	0.027	749718	TRIAL_END	n/a	n/a	n/a	n/a	-999	5	[0, 0, 0]	n/a	catFR1	4	R1328E
747.664	0.0	749745	TRIAL_START	n/a	n/a	n/a	n/a	-999	6	[0, 0, 0]	n/a	catFR1	4	R1328E
747.664	0.001	749745	TRIAL	n/a	n/a	n/a	n/a	-999	6	[0, 0, 0]	n/a	catFR1	4	R1328E
747.665	2.816	749746	WAITING_START	n/a	n/a	n/a	n/a	-999	6	[0, 0, 0]	n/a	catFR1	4	R1328E
750.481	0.0	752562	COUNTDOWN_START	n/a	n/a	n/a	n/a	-999	6	[0, 0, 0]	n/a	catFR1	4	R1328E
750.481	10.429	752562	WAITING_END	n/a	n/a	n/a	n/a	-999	6	[0, 0, 0]	n/a	catFR1	4	R1328E
760.91	0.0	762991	COUNTDOWN_END	n/a	n/a	n/a	n/a	-999	6	[0, 0, 0]	n/a	catFR1	4	R1328E
760.91	1.139	762991	ORIENT_START	n/a	n/a	n/a	n/a	-999	6	[0, 0, 0]	n/a	catFR1	4	R1328E
762.049	0.001	764130	ORIENT_END	n/a	n/a	n/a	n/a	-999	6	[0, 0, 0]	n/a	catFR1	4	R1328E
762.05	0.993	764131	ENCODING_START	n/a	n/a	n/a	n/a	-999	6	[0, 0, 0]	n/a	catFR1	4	R1328E
763.043	1.623	765124	WORD	n/a	wordpools/wordpool_categorized_EN.txt	CEILING	Building	1	6	[0, 0, 0]	n/a	catFR1	4	R1328E
764.666	0.956	766747	WORD_OFF	n/a	n/a	CEILING	Building	1	6	[0, 0, 0]	n/a	catFR1	4	R1328E
765.622	1.627	767702	WORD	n/a	wordpools/wordpool_categorized_EN.txt	ATTIC	Building	2	6	[0, 0, 0]	n/a	catFR1	4	R1328E
767.249	1.021	769329	WORD_OFF	n/a	n/a	ATTIC	Building	2	6	[0, 0, 0]	n/a	catFR1	4	R1328E
768.27	1.631	770350	WORD	n/a	wordpools/wordpool_categorized_EN.txt	BUS	Vehicles	3	6	[0, 0, 0]	n/a	catFR1	4	R1328E
769.901	0.856	771981	WORD_OFF	n/a	n/a	BUS	Vehicles	3	6	[0, 0, 0]	n/a	catFR1	4	R1328E
770.757	1.628	772837	WORD	n/a	wordpools/wordpool_categorized_EN.txt	CAR	Vehicles	4	6	[0, 0, 0]	n/a	catFR1	4	R1328E
772.385	1.063	774465	WORD_OFF	n/a	n/a	CAR	Vehicles	4	6	[0, 0, 0]	n/a	catFR1	4	R1328E
773.448	1.636	775528	WORD	n/a	wordpools/wordpool_categorized_EN.txt	CHEETAH	Zoo	5	6	[0, 0, 0]	n/a	catFR1	4	R1328E
775.084	1.09	777164	WORD_OFF	n/a	n/a	CHEETAH	Zoo	5	6	[0, 0, 0]	n/a	catFR1	4	R1328E
776.174	1.611	778254	WORD	n/a	wordpools/wordpool_categorized_EN.txt	MONKEY	Zoo	6	6	[0, 0, 0]	n/a	catFR1	4	R1328E
777.785	1.111	779865	WORD_OFF	n/a	n/a	MONKEY	Zoo	6	6	[0, 0, 0]	n/a	catFR1	4	R1328E
778.896	1.623	780976	WORD	n/a	wordpools/wordpool_categorized_EN.txt	MOPED	Vehicles	7	6	[0, 0, 0]	n/a	catFR1	4	R1328E
780.519	1.14	782599	WORD_OFF	n/a	n/a	MOPED	Vehicles	7	6	[0, 0, 0]	n/a	catFR1	4	R1328E
781.659	1.626	783739	WORD	n/a	wordpools/wordpool_categorized_EN.txt	MOTORCYCLE	Vehicles	8	6	[0, 0, 0]	n/a	catFR1	4	R1328E
783.285	0.898	785365	WORD_OFF	n/a	n/a	MOTORCYCLE	Vehicles	8	6	[0, 0, 0]	n/a	catFR1	4	R1328E
784.183	1.62	786263	WORD	n/a	wordpools/wordpool_categorized_EN.txt	BATHROOM	Building	9	6	[0, 0, 0]	n/a	catFR1	4	R1328E
785.803	1.016	787883	WORD_OFF	n/a	n/a	BATHROOM	Building	9	6	[0, 0, 0]	n/a	catFR1	4	R1328E
786.819	1.635	788899	WORD	n/a	wordpools/wordpool_categorized_EN.txt	ROOM	Building	10	6	[0, 0, 0]	n/a	catFR1	4	R1328E
788.454	1.049	790534	WORD_OFF	n/a	n/a	ROOM	Building	10	6	[0, 0, 0]	n/a	catFR1	4	R1328E
789.503	1.634	791583	WORD	n/a	wordpools/wordpool_categorized_EN.txt	BEAR	Zoo	11	6	[0, 0, 0]	n/a	catFR1	4	R1328E
791.137	0.915	793217	WORD_OFF	n/a	n/a	BEAR	Zoo	11	6	[0, 0, 0]	n/a	catFR1	4	R1328E
792.052	1.636	794132	WORD	n/a	wordpools/wordpool_categorized_EN.txt	PANDA	Zoo	12	6	[0, 0, 0]	n/a	catFR1	4	R1328E
793.688	0.001	795767	WORD_OFF	n/a	n/a	PANDA	Zoo	12	6	[0, 0, 0]	n/a	catFR1	4	R1328E
793.689	0.0	795768	DISTRACT_START	n/a	n/a	n/a	n/a	-999	6	[0, 0, 0]	n/a	catFR1	4	R1328E
793.689	0.0	795768	ENCODING_END	n/a	n/a	n/a	n/a	-999	6	[0, 0, 0]	n/a	catFR1	4	R1328E
793.689	0.016	795768	START	n/a	n/a	n/a	n/a	-999	6	[-999, -999, -999]	n/a	catFR1	4	R1328E
793.705	5.416	795784	PROB	5.416	n/a	n/a	n/a	-999	6	[1, 9, 6]	16	catFR1	4	R1328E
799.121	14.153	801200	PROB	14.153	n/a	n/a	n/a	-999	6	[9, 1, 8]	18	catFR1	4	R1328E
813.274	6.738	815353	PROB	6.738	n/a	n/a	n/a	-999	6	[3, 1, 4]	8	catFR1	4	R1328E
820.012	0.014	822091	STOP	n/a	n/a	n/a	n/a	-999	6	[-999, -999, -999]	n/a	catFR1	4	R1328E
820.026	0.687	822105	DISTRACT_END	n/a	n/a	n/a	n/a	-999	6	[0, 0, 0]	n/a	catFR1	4	R1328E
820.713	1.596	822792	RETRIEVAL_ORIENT_START	n/a	n/a	n/a	n/a	-999	6	[0, 0, 0]	n/a	catFR1	4	R1328E
822.309	0.0	824387	RETRIEVAL_ORIENT_END	n/a	n/a	n/a	n/a	-999	6	[0, 0, 0]	n/a	catFR1	4	R1328E
822.309	0.0	824387	REC_START	n/a	n/a	n/a	n/a	-999	6	[0, 0, 0]	n/a	catFR1	4	R1328E
822.309	0.949	824387	REC_WORD	0.949	n/a	ATTIC	Building	2	6	[0, 0, 0]	n/a	catFR1	4	R1328E
823.258	1.659	825336	REC_WORD	1.659	n/a	CEILING	Building	1	6	[0, 0, 0]	n/a	catFR1	4	R1328E
824.917	1.092	826995	REC_WORD	1.092	n/a	CHEETAH	Zoo	5	6	[0, 0, 0]	n/a	catFR1	4	R1328E
826.009	26.313	828087	REC_WORD	26.313	n/a	MONKEY	Zoo	6	6	[0, 0, 0]	n/a	catFR1	4	R1328E
852.322	0.0	854399	TRIAL_END	n/a	n/a	n/a	n/a	-999	6	[0, 0, 0]	n/a	catFR1	4	R1328E
852.322	0.063	854399	REC_END	n/a	n/a	n/a	n/a	-999	6	[0, 0, 0]	n/a	catFR1	4	R1328E
852.385	0.001	854462	TRIAL_START	n/a	n/a	n/a	n/a	-999	7	[0, 0, 0]	n/a	catFR1	4	R1328E
852.386	0.0	854463	TRIAL	n/a	n/a	n/a	n/a	-999	7	[0, 0, 0]	n/a	catFR1	4	R1328E
852.386	5.297	854463	WAITING_START	n/a	n/a	n/a	n/a	-999	7	[0, 0, 0]	n/a	catFR1	4	R1328E
857.683	0.0	859760	WAITING_END	n/a	n/a	n/a	n/a	-999	7	[0, 0, 0]	n/a	catFR1	4	R1328E
857.683	10.428	859760	COUNTDOWN_START	n/a	n/a	n/a	n/a	-999	7	[0, 0, 0]	n/a	catFR1	4	R1328E
868.111	0.001	870188	COUNTDOWN_END	n/a	n/a	n/a	n/a	-999	7	[0, 0, 0]	n/a	catFR1	4	R1328E
868.112	1.088	870189	ORIENT_START	n/a	n/a	n/a	n/a	-999	7	[0, 0, 0]	n/a	catFR1	4	R1328E
869.2	0.001	871277	ORIENT_END	n/a	n/a	n/a	n/a	-999	7	[0, 0, 0]	n/a	catFR1	4	R1328E
869.201	0.933	871278	ENCODING_START	n/a	n/a	n/a	n/a	-999	7	[0, 0, 0]	n/a	catFR1	4	R1328E
870.134	1.618	872211	WORD	n/a	wordpools/wordpool_categorized_EN.txt	DRYER	Appliances	1	7	[0, 0, 0]	n/a	catFR1	4	R1328E
871.752	0.876	873829	WORD_OFF	n/a	n/a	DRYER	Appliances	1	7	[0, 0, 0]	n/a	catFR1	4	R1328E
872.628	1.623	874705	WORD	n/a	wordpools/wordpool_categorized_EN.txt	TOASTER	Appliances	2	7	[0, 0, 0]	n/a	catFR1	4	R1328E
874.251	1.055	876328	WORD_OFF	n/a	n/a	TOASTER	Appliances	2	7	[0, 0, 0]	n/a	catFR1	4	R1328E
875.306	1.63	877383	WORD	n/a	wordpools/wordpool_categorized_EN.txt	JUICE	Beverages	3	7	[0, 0, 0]	n/a	catFR1	4	R1328E
876.936	0.991	879012	WORD_OFF	n/a	n/a	JUICE	Beverages	3	7	[0, 0, 0]	n/a	catFR1	4	R1328E
877.927	1.626	880003	WORD	n/a	wordpools/wordpool_categorized_EN.txt	RUM	Beverages	4	7	[0, 0, 0]	n/a	catFR1	4	R1328E
879.553	0.974	881629	WORD_OFF	n/a	n/a	RUM	Beverages	4	7	[0, 0, 0]	n/a	catFR1	4	R1328E
880.527	1.626	882603	WORD	n/a	wordpools/wordpool_categorized_EN.txt	COLANDER	KitchenTools	5	7	[0, 0, 0]	n/a	catFR1	4	R1328E
882.153	1.002	884229	WORD_OFF	n/a	n/a	COLANDER	KitchenTools	5	7	[0, 0, 0]	n/a	catFR1	4	R1328E
883.155	1.632	885231	WORD	n/a	wordpools/wordpool_categorized_EN.txt	FORK	KitchenTools	6	7	[0, 0, 0]	n/a	catFR1	4	R1328E
884.787	1.036	886863	WORD_OFF	n/a	n/a	FORK	KitchenTools	6	7	[0, 0, 0]	n/a	catFR1	4	R1328E
885.823	1.632	887899	WORD	n/a	wordpools/wordpool_categorized_EN.txt	MILK	Beverages	7	7	[0, 0, 0]	n/a	catFR1	4	R1328E
887.455	0.985	889531	WORD_OFF	n/a	n/a	MILK	Beverages	7	7	[0, 0, 0]	n/a	catFR1	4	R1328E
888.44	1.632	890516	WORD	n/a	wordpools/wordpool_categorized_EN.txt	WATER	Beverages	8	7	[0, 0, 0]	n/a	catFR1	4	R1328E
890.072	0.883	892148	WORD_OFF	n/a	n/a	WATER	Beverages	8	7	[0, 0, 0]	n/a	catFR1	4	R1328E
890.955	1.634	893031	WORD	n/a	wordpools/wordpool_categorized_EN.txt	GRATER	KitchenTools	9	7	[0, 0, 0]	n/a	catFR1	4	R1328E
892.589	0.853	894665	WORD_OFF	n/a	n/a	GRATER	KitchenTools	9	7	[0, 0, 0]	n/a	catFR1	4	R1328E
893.442	1.63	895518	WORD	n/a	wordpools/wordpool_categorized_EN.txt	STRAINER	KitchenTools	10	7	[0, 0, 0]	n/a	catFR1	4	R1328E
895.072	1.127	897148	WORD_OFF	n/a	n/a	STRAINER	KitchenTools	10	7	[0, 0, 0]	n/a	catFR1	4	R1328E
896.199	1.624	898275	WORD	n/a	wordpools/wordpool_categorized_EN.txt	WASHER	Appliances	11	7	[0, 0, 0]	n/a	catFR1	4	R1328E
897.823	0.981	899899	WORD_OFF	n/a	n/a	WASHER	Appliances	11	7	[0, 0, 0]	n/a	catFR1	4	R1328E
898.804	1.636	900880	WORD	n/a	wordpools/wordpool_categorized_EN.txt	REFRIGERATOR	Appliances	12	7	[0, 0, 0]	n/a	catFR1	4	R1328E
900.44	0.001	902516	WORD_OFF	n/a	n/a	REFRIGERATOR	Appliances	12	7	[0, 0, 0]	n/a	catFR1	4	R1328E
900.441	0.0	902517	ENCODING_END	n/a	n/a	n/a	n/a	-999	7	[0, 0, 0]	n/a	catFR1	4	R1328E
900.441	0.0	902517	DISTRACT_START	n/a	n/a	n/a	n/a	-999	7	[0, 0, 0]	n/a	catFR1	4	R1328E
900.441	0.016	902517	START	n/a	n/a	n/a	n/a	-999	7	[-999, -999, -999]	n/a	catFR1	4	R1328E
900.457	15.952	902533	PROB	15.952	n/a	n/a	n/a	-999	7	[9, 8, 8]	25	catFR1	4	R1328E
916.409	16.308	918484	PROB	16.308	n/a	n/a	n/a	-999	7	[6, 7, 8]	21	catFR1	4	R1328E
932.717	0.012	934791	STOP	n/a	n/a	n/a	n/a	-999	7	[-999, -999, -999]	n/a	catFR1	4	R1328E
932.729	0.621	934803	DISTRACT_END	n/a	n/a	n/a	n/a	-999	7	[0, 0, 0]	n/a	catFR1	4	R1328E
933.35	1.63	935424	RETRIEVAL_ORIENT_START	n/a	n/a	n/a	n/a	-999	7	[0, 0, 0]	n/a	catFR1	4	R1328E
934.98	0.0	937054	REC_START	n/a	n/a	n/a	n/a	-999	7	[0, 0, 0]	n/a	catFR1	4	R1328E
934.98	0.69	937054	RETRIEVAL_ORIENT_END	n/a	n/a	n/a	n/a	-999	7	[0, 0, 0]	n/a	catFR1	4	R1328E
935.67	1.285	937744	REC_WORD	1.285	n/a	DRYER	Appliances	1	7	[0, 0, 0]	n/a	catFR1	4	R1328E
936.955	1.556	939029	REC_WORD	1.556	n/a	TOASTER	Appliances	2	7	[0, 0, 0]	n/a	catFR1	4	R1328E
938.511	1.0	940585	REC_WORD	1.0	n/a	REFRIGERATOR	Appliances	12	7	[0, 0, 0]	n/a	catFR1	4	R1328E
939.511	4.257	941585	REC_WORD_VV	4.257	n/a	<>	n/a	-999	7	[0, 0, 0]	n/a	catFR1	4	R1328E
943.768	21.224	945842	REC_WORD	21.224	n/a	RUM	Beverages	4	7	[0, 0, 0]	n/a	catFR1	4	R1328E
964.992	0.0	967065	REC_END	n/a	n/a	n/a	n/a	-999	7	[0, 0, 0]	n/a	catFR1	4	R1328E
964.992	0.027	967065	TRIAL_END	n/a	n/a	n/a	n/a	-999	7	[0, 0, 0]	n/a	catFR1	4	R1328E
965.019	0.0	967092	WAITING_START	n/a	n/a	n/a	n/a	-999	8	[0, 0, 0]	n/a	catFR1	4	R1328E
965.019	0.0	967092	TRIAL_START	n/a	n/a	n/a	n/a	-999	8	[0, 0, 0]	n/a	catFR1	4	R1328E
965.019	1.55	967092	TRIAL	n/a	n/a	n/a	n/a	-999	8	[0, 0, 0]	n/a	catFR1	4	R1328E
966.569	0.0	968642	WAITING_END	n/a	n/a	n/a	n/a	-999	8	[0, 0, 0]	n/a	catFR1	4	R1328E
966.569	10.429	968642	COUNTDOWN_START	n/a	n/a	n/a	n/a	-999	8	[0, 0, 0]	n/a	catFR1	4	R1328E
976.998	0.0	979071	COUNTDOWN_END	n/a	n/a	n/a	n/a	-999	8	[0, 0, 0]	n/a	catFR1	4	R1328E
976.998	1.222	979071	ORIENT_START	n/a	n/a	n/a	n/a	-999	8	[0, 0, 0]	n/a	catFR1	4	R1328E
978.22	0.0	980293	ORIENT_END	n/a	n/a	n/a	n/a	-999	8	[0, 0, 0]	n/a	catFR1	4	R1328E
978.22	1.079	980293	ENCODING_START	n/a	n/a	n/a	n/a	-999	8	[0, 0, 0]	n/a	catFR1	4	R1328E
979.299	1.622	981372	WORD	n/a	wordpools/wordpool_categorized_EN.txt	STEREO	Electronics	1	8	[0, 0, 0]	n/a	catFR1	4	R1328E
980.921	0.928	982994	WORD_OFF	n/a	n/a	STEREO	Electronics	1	8	[0, 0, 0]	n/a	catFR1	4	R1328E
981.849	1.623	983922	WORD	n/a	wordpools/wordpool_categorized_EN.txt	SCANNER	Electronics	2	8	[0, 0, 0]	n/a	catFR1	4	R1328E
983.472	1.052	985545	WORD_OFF	n/a	n/a	SCANNER	Electronics	2	8	[0, 0, 0]	n/a	catFR1	4	R1328E
984.524	1.63	986597	WORD	n/a	wordpools/wordpool_categorized_EN.txt	BANANA	Fruit	3	8	[0, 0, 0]	n/a	catFR1	4	R1328E
986.154	1.074	988227	WORD_OFF	n/a	n/a	BANANA	Fruit	3	8	[0, 0, 0]	n/a	catFR1	4	R1328E
987.228	1.611	989301	WORD	n/a	wordpools/wordpool_categorized_EN.txt	PEACH	Fruit	4	8	[0, 0, 0]	n/a	catFR1	4	R1328E
988.839	1.002	990911	WORD_OFF	n/a	n/a	PEACH	Fruit	4	8	[0, 0, 0]	n/a	catFR1	4	R1328E
989.841	1.632	991913	WORD	n/a	wordpools/wordpool_categorized_EN.txt	BROCCOLI	Vegetables	5	8	[0, 0, 0]	n/a	catFR1	4	R1328E
991.473	0.884	993545	WORD_OFF	n/a	n/a	BROCCOLI	Vegetables	5	8	[0, 0, 0]	n/a	catFR1	4	R1328E
992.357	1.633	994429	WORD	n/a	wordpools/wordpool_categorized_EN.txt	CARROT	Vegetables	6	8	[0, 0, 0]	n/a	catFR1	4	R1328E
993.99	0.963	996062	WORD_OFF	n/a	n/a	CARROT	Vegetables	6	8	[0, 0, 0]	n/a	catFR1	4	R1328E
994.953	1.637	997025	WORD	n/a	wordpools/wordpool_categorized_EN.txt	TELEVISION	Electronics	7	8	[0, 0, 0]	n/a	catFR1	4	R1328E
996.59	1.013	998662	WORD_OFF	n/a	n/a	TELEVISION	Electronics	7	8	[0, 0, 0]	n/a	catFR1	4	R1328E
997.603	1.637	999675	WORD	n/a	wordpools/wordpool_categorized_EN.txt	PRINTER	Electronics	8	8	[0, 0, 0]	n/a	catFR1	4	R1328E
999.24	0.911	1001312	WORD_OFF	n/a	n/a	PRINTER	Electronics	8	8	[0, 0, 0]	n/a	catFR1	4	R1328E
1000.151	1.624	1002223	WORD	n/a	wordpools/wordpool_categorized_EN.txt	CORN	Vegetables	9	8	[0, 0, 0]	n/a	catFR1	4	R1328E
1001.775	1.132	1003847	WORD_OFF	n/a	n/a	CORN	Vegetables	9	8	[0, 0, 0]	n/a	catFR1	4	R1328E
1002.907	1.635	1004979	WORD	n/a	wordpools/wordpool_categorized_EN.txt	SPINACH	Vegetables	10	8	[0, 0, 0]	n/a	catFR1	4	R1328E
1004.542	0.788	1006614	WORD_OFF	n/a	n/a	SPINACH	Vegetables	10	8	[0, 0, 0]	n/a	catFR1	4	R1328E
1005.33	1.629	1007402	WORD	n/a	wordpools/wordpool_categorized_EN.txt	STRAWBERRY	Fruit	11	8	[0, 0, 0]	n/a	catFR1	4	R1328E
1006.959	0.975	1009031	WORD_OFF	n/a	n/a	STRAWBERRY	Fruit	11	8	[0, 0, 0]	n/a	catFR1	4	R1328E
1007.934	1.625	1010006	WORD	n/a	wordpools/wordpool_categorized_EN.txt	ORANGE	Fruit	12	8	[0, 0, 0]	n/a	catFR1	4	R1328E
1009.559	0.001	1011631	WORD_OFF	n/a	n/a	ORANGE	Fruit	12	8	[0, 0, 0]	n/a	catFR1	4	R1328E
1009.56	0.0	1011632	ENCODING_END	n/a	n/a	n/a	n/a	-999	8	[0, 0, 0]	n/a	catFR1	4	R1328E
1009.56	0.0	1011632	DISTRACT_START	n/a	n/a	n/a	n/a	-999	8	[0, 0, 0]	n/a	catFR1	4	R1328E
1009.56	0.016	1011632	START	n/a	n/a	n/a	n/a	-999	8	[-999, -999, -999]	n/a	catFR1	4	R1328E
1009.576	10.435	1011648	PROB	10.435	n/a	n/a	n/a	-999	8	[8, 3, 8]	19	catFR1	4	R1328E
1020.011	7.751	1022082	PROB	7.751	n/a	n/a	n/a	-999	8	[7, 4, 7]	18	catFR1	4	R1328E
1027.762	11.201	1029833	PROB	11.201	n/a	n/a	n/a	-999	8	[6, 1, 6]	13	catFR1	4	R1328E
1038.963	0.018	1041034	STOP	n/a	n/a	n/a	n/a	-999	8	[-999, -999, -999]	n/a	catFR1	4	R1328E
1038.981	0.573	1041052	DISTRACT_END	n/a	n/a	n/a	n/a	-999	8	[0, 0, 0]	n/a	catFR1	4	R1328E
1039.554	1.693	1041625	RETRIEVAL_ORIENT_START	n/a	n/a	n/a	n/a	-999	8	[0, 0, 0]	n/a	catFR1	4	R1328E
1041.247	0.0	1043318	RETRIEVAL_ORIENT_END	n/a	n/a	n/a	n/a	-999	8	[0, 0, 0]	n/a	catFR1	4	R1328E
1041.247	1.048	1043318	REC_START	n/a	n/a	n/a	n/a	-999	8	[0, 0, 0]	n/a	catFR1	4	R1328E
1042.295	2.073	1044366	REC_WORD	2.073	n/a	CARROT	Vegetables	6	8	[0, 0, 0]	n/a	catFR1	4	R1328E
1044.368	1.864	1046438	REC_WORD	1.864	n/a	BROCCOLI	Vegetables	5	8	[0, 0, 0]	n/a	catFR1	4	R1328E
1046.232	6.474	1048302	REC_WORD	6.474	n/a	CORN	Vegetables	9	8	[0, 0, 0]	n/a	catFR1	4	R1328E
1052.706	5.289	1054776	REC_WORD	5.289	n/a	STRAWBERRY	Fruit	11	8	[0, 0, 0]	n/a	catFR1	4	R1328E
1057.995	1.028	1060065	REC_WORD	1.028	n/a	SCANNER	Electronics	2	8	[0, 0, 0]	n/a	catFR1	4	R1328E
1059.023	4.477	1061093	REC_WORD	4.477	n/a	PRINTER	Electronics	8	8	[0, 0, 0]	n/a	catFR1	4	R1328E
1063.5	7.76	1065570	REC_WORD	7.76	n/a	TELEVISION	Electronics	7	8	[0, 0, 0]	n/a	catFR1	4	R1328E
1071.26	0.001	1073330	REC_END	n/a	n/a	n/a	n/a	-999	8	[0, 0, 0]	n/a	catFR1	4	R1328E
1071.261	0.026	1073331	TRIAL_END	n/a	n/a	n/a	n/a	-999	8	[0, 0, 0]	n/a	catFR1	4	R1328E
1071.287	0.0	1073357	TRIAL	n/a	n/a	n/a	n/a	-999	9	[0, 0, 0]	n/a	catFR1	4	R1328E
1071.287	0.001	1073357	TRIAL_START	n/a	n/a	n/a	n/a	-999	9	[0, 0, 0]	n/a	catFR1	4	R1328E
1071.288	1.783	1073358	WAITING_START	n/a	n/a	n/a	n/a	-999	9	[0, 0, 0]	n/a	catFR1	4	R1328E
1073.071	0.0	1075140	WAITING_END	n/a	n/a	n/a	n/a	-999	9	[0, 0, 0]	n/a	catFR1	4	R1328E
1073.071	10.429	1075140	COUNTDOWN_START	n/a	n/a	n/a	n/a	-999	9	[0, 0, 0]	n/a	catFR1	4	R1328E
1083.5	0.0	1085569	COUNTDOWN_END	n/a	n/a	n/a	n/a	-999	9	[0, 0, 0]	n/a	catFR1	4	R1328E
1083.5	1.022	1085569	ORIENT_START	n/a	n/a	n/a	n/a	-999	9	[0, 0, 0]	n/a	catFR1	4	R1328E
1084.522	0.001	1086591	ORIENT_END	n/a	n/a	n/a	n/a	-999	9	[0, 0, 0]	n/a	catFR1	4	R1328E
1084.523	0.756	1086592	ENCODING_START	n/a	n/a	n/a	n/a	-999	9	[0, 0, 0]	n/a	catFR1	4	R1328E
1085.279	1.61	1087348	WORD	n/a	wordpools/wordpool_categorized_EN.txt	VIOLET	Flowers	1	9	[0, 0, 0]	n/a	catFR1	4	R1328E
1086.889	0.813	1088958	WORD_OFF	n/a	n/a	VIOLET	Flowers	1	9	[0, 0, 0]	n/a	catFR1	4	R1328E
1087.702	1.637	1089771	WORD	n/a	wordpools/wordpool_categorized_EN.txt	MARIGOLD	Flowers	2	9	[0, 0, 0]	n/a	catFR1	4	R1328E
1089.339	0.815	1091408	WORD_OFF	n/a	n/a	MARIGOLD	Flowers	2	9	[0, 0, 0]	n/a	catFR1	4	R1328E
1090.154	1.636	1092223	WORD	n/a	wordpools/wordpool_categorized_EN.txt	BEACH	Landscapes	3	9	[0, 0, 0]	n/a	catFR1	4	R1328E
1091.79	1.051	1093859	WORD_OFF	n/a	n/a	BEACH	Landscapes	3	9	[0, 0, 0]	n/a	catFR1	4	R1328E
1092.841	1.633	1094910	WORD	n/a	wordpools/wordpool_categorized_EN.txt	RIVER	Landscapes	4	9	[0, 0, 0]	n/a	catFR1	4	R1328E
1094.474	1.148	1096543	WORD_OFF	n/a	n/a	RIVER	Landscapes	4	9	[0, 0, 0]	n/a	catFR1	4	R1328E
1095.622	1.635	1097691	WORD	n/a	wordpools/wordpool_categorized_EN.txt	TAPE	OfficeSupplies	5	9	[0, 0, 0]	n/a	catFR1	4	R1328E
1097.257	0.976	1099326	WORD_OFF	n/a	n/a	TAPE	OfficeSupplies	5	9	[0, 0, 0]	n/a	catFR1	4	R1328E
1098.233	1.609	1100302	WORD	n/a	wordpools/wordpool_categorized_EN.txt	NOTEBOOK	OfficeSupplies	6	9	[0, 0, 0]	n/a	catFR1	4	R1328E
1099.842	0.837	1101910	WORD_OFF	n/a	n/a	NOTEBOOK	OfficeSupplies	6	9	[0, 0, 0]	n/a	catFR1	4	R1328E
1100.679	1.629	1102747	WORD	n/a	wordpools/wordpool_categorized_EN.txt	DAISY	Flowers	7	9	[0, 0, 0]	n/a	catFR1	4	R1328E
1102.308	0.97	1104376	WORD_OFF	n/a	n/a	DAISY	Flowers	7	9	[0, 0, 0]	n/a	catFR1	4	R1328E
1103.278	1.631	1105346	WORD	n/a	wordpools/wordpool_categorized_EN.txt	DAFFODIL	Flowers	8	9	[0, 0, 0]	n/a	catFR1	4	R1328E
1104.909	1.115	1106977	WORD_OFF	n/a	n/a	DAFFODIL	Flowers	8	9	[0, 0, 0]	n/a	catFR1	4	R1328E
1106.024	1.636	1108092	WORD	n/a	wordpools/wordpool_categorized_EN.txt	PAPER	OfficeSupplies	9	9	[0, 0, 0]	n/a	catFR1	4	R1328E
1107.66	0.98	1109728	WORD_OFF	n/a	n/a	PAPER	OfficeSupplies	9	9	[0, 0, 0]	n/a	catFR1	4	R1328E
1108.64	1.636	1110708	WORD	n/a	wordpools/wordpool_categorized_EN.txt	ERASER	OfficeSupplies	10	9	[0, 0, 0]	n/a	catFR1	4	R1328E
1110.276	1.112	1112344	WORD_OFF	n/a	n/a	ERASER	OfficeSupplies	10	9	[0, 0, 0]	n/a	catFR1	4	R1328E
1111.388	1.623	1113456	WORD	n/a	wordpools/wordpool_categorized_EN.txt	OCEAN	Landscapes	11	9	[0, 0, 0]	n/a	catFR1	4	R1328E
1113.011	1.08	1115079	WORD_OFF	n/a	n/a	OCEAN	Landscapes	11	9	[0, 0, 0]	n/a	catFR1	4	R1328E
1114.091	1.62	1116159	WORD	n/a	wordpools/wordpool_categorized_EN.txt	MOUNTAIN	Landscapes	12	9	[0, 0, 0]	n/a	catFR1	4	R1328E
1115.711	0.0	1117779	WORD_OFF	n/a	n/a	MOUNTAIN	Landscapes	12	9	[0, 0, 0]	n/a	catFR1	4	R1328E
1115.711	0.001	1117779	ENCODING_END	n/a	n/a	n/a	n/a	-999	9	[0, 0, 0]	n/a	catFR1	4	R1328E
1115.712	0.0	1117780	DISTRACT_START	n/a	n/a	n/a	n/a	-999	9	[0, 0, 0]	n/a	catFR1	4	R1328E
1115.712	0.016	1117780	START	n/a	n/a	n/a	n/a	-999	9	[-999, -999, -999]	n/a	catFR1	4	R1328E
1115.728	9.751	1117796	PROB	9.751	n/a	n/a	n/a	-999	9	[9, 6, 2]	17	catFR1	4	R1328E
1125.479	7.952	1127547	PROB	7.952	n/a	n/a	n/a	-999	9	[8, 9, 4]	21	catFR1	4	R1328E
1133.431	13.882	1135498	PROB	13.882	n/a	n/a	n/a	-999	9	[9, 5, 9]	23	catFR1	4	R1328E
1147.313	0.02	1149380	STOP	n/a	n/a	n/a	n/a	-999	9	[-999, -999, -999]	n/a	catFR1	4	R1328E
1147.333	0.597	1149400	DISTRACT_END	n/a	n/a	n/a	n/a	-999	9	[0, 0, 0]	n/a	catFR1	4	R1328E
1147.93	1.637	1149997	RETRIEVAL_ORIENT_START	n/a	n/a	n/a	n/a	-999	9	[0, 0, 0]	n/a	catFR1	4	R1328E
1149.567	0.001	1151634	RETRIEVAL_ORIENT_END	n/a	n/a	n/a	n/a	-999	9	[0, 0, 0]	n/a	catFR1	4	R1328E
1149.568	0.0	1151635	REC_WORD	0.0	n/a	VIOLET	Flowers	1	9	[0, 0, 0]	n/a	catFR1	4	R1328E
1149.568	1.756	1151635	REC_START	n/a	n/a	n/a	n/a	-999	9	[0, 0, 0]	n/a	catFR1	4	R1328E
1151.324	5.566	1153391	REC_WORD	5.566	n/a	MARIGOLD	Flowers	2	9	[0, 0, 0]	n/a	catFR1	4	R1328E
1156.89	1.564	1158956	REC_WORD	1.564	n/a	BEACH	Landscapes	3	9	[0, 0, 0]	n/a	catFR1	4	R1328E
1158.454	1.708	1160520	REC_WORD	1.708	n/a	RIVER	Landscapes	4	9	[0, 0, 0]	n/a	catFR1	4	R1328E
1160.162	11.751	1162228	REC_WORD	11.751	n/a	OCEAN	Landscapes	11	9	[0, 0, 0]	n/a	catFR1	4	R1328E
1171.913	7.666	1173979	REC_WORD	7.666	n/a	MOUNTAIN	Landscapes	12	9	[0, 0, 0]	n/a	catFR1	4	R1328E
1179.579	0.0	1181645	REC_END	n/a	n/a	n/a	n/a	-999	9	[0, 0, 0]	n/a	catFR1	4	R1328E
1179.579	0.026	1181645	TRIAL_END	n/a	n/a	n/a	n/a	-999	9	[0, 0, 0]	n/a	catFR1	4	R1328E
1179.605	0.001	1181671	TRIAL_START	n/a	n/a	n/a	n/a	-999	10	[0, 0, 0]	n/a	catFR1	4	R1328E
1179.606	0.0	1181672	WAITING_START	n/a	n/a	n/a	n/a	-999	10	[0, 0, 0]	n/a	catFR1	4	R1328E
1179.606	3.401	1181672	TRIAL	n/a	n/a	n/a	n/a	-999	10	[0, 0, 0]	n/a	catFR1	4	R1328E
1183.007	0.0	1185072	WAITING_END	n/a	n/a	n/a	n/a	-999	10	[0, 0, 0]	n/a	catFR1	4	R1328E
1183.007	10.429	1185072	COUNTDOWN_START	n/a	n/a	n/a	n/a	-999	10	[0, 0, 0]	n/a	catFR1	4	R1328E
1193.436	0.0	1195501	COUNTDOWN_END	n/a	n/a	n/a	n/a	-999	10	[0, 0, 0]	n/a	catFR1	4	R1328E
1193.436	1.189	1195501	ORIENT_START	n/a	n/a	n/a	n/a	-999	10	[0, 0, 0]	n/a	catFR1	4	R1328E
1194.625	0.0	1196690	ORIENT_END	n/a	n/a	n/a	n/a	-999	10	[0, 0, 0]	n/a	catFR1	4	R1328E
1194.625	1.096	1196690	ENCODING_START	n/a	n/a	n/a	n/a	-999	10	[0, 0, 0]	n/a	catFR1	4	R1328E
1195.721	1.62	1197786	WORD	n/a	wordpools/wordpool_categorized_EN.txt	COLA	Beverages	1	10	[0, 0, 0]	n/a	catFR1	4	R1328E
1197.341	0.877	1199406	WORD_OFF	n/a	n/a	COLA	Beverages	1	10	[0, 0, 0]	n/a	catFR1	4	R1328E
1198.218	1.625	1200283	WORD	n/a	wordpools/wordpool_categorized_EN.txt	WINE	Beverages	2	10	[0, 0, 0]	n/a	catFR1	4	R1328E
1199.843	1.081	1201908	WORD_OFF	n/a	n/a	WINE	Beverages	2	10	[0, 0, 0]	n/a	catFR1	4	R1328E
1200.924	1.636	1202989	WORD	n/a	wordpools/wordpool_categorized_EN.txt	UNDERWEAR	Clothing	3	10	[0, 0, 0]	n/a	catFR1	4	R1328E
1202.56	1.079	1204625	WORD_OFF	n/a	n/a	UNDERWEAR	Clothing	3	10	[0, 0, 0]	n/a	catFR1	4	R1328E
1203.639	1.637	1205704	WORD	n/a	wordpools/wordpool_categorized_EN.txt	JACKET	Clothing	4	10	[0, 0, 0]	n/a	catFR1	4	R1328E
1205.276	1.07	1207341	WORD_OFF	n/a	n/a	JACKET	Clothing	4	10	[0, 0, 0]	n/a	catFR1	4	R1328E
1206.346	1.631	1208411	WORD	n/a	wordpools/wordpool_categorized_EN.txt	COMPUTER	Electronics	5	10	[0, 0, 0]	n/a	catFR1	4	R1328E
1207.977	1.013	1210042	WORD_OFF	n/a	n/a	COMPUTER	Electronics	5	10	[0, 0, 0]	n/a	catFR1	4	R1328E
1208.99	1.621	1211055	WORD	n/a	wordpools/wordpool_categorized_EN.txt	RADIO	Electronics	6	10	[0, 0, 0]	n/a	catFR1	4	R1328E
1210.611	0.831	1212675	WORD_OFF	n/a	n/a	RADIO	Electronics	6	10	[0, 0, 0]	n/a	catFR1	4	R1328E
1211.442	1.635	1213506	WORD	n/a	wordpools/wordpool_categorized_EN.txt	BEER	Beverages	7	10	[0, 0, 0]	n/a	catFR1	4	R1328E
1213.077	0.785	1215141	WORD_OFF	n/a	n/a	BEER	Beverages	7	10	[0, 0, 0]	n/a	catFR1	4	R1328E
1213.862	1.633	1215926	WORD	n/a	wordpools/wordpool_categorized_EN.txt	LEMONADE	Beverages	8	10	[0, 0, 0]	n/a	catFR1	4	R1328E
1215.495	0.776	1217559	WORD_OFF	n/a	n/a	LEMONADE	Beverages	8	10	[0, 0, 0]	n/a	catFR1	4	R1328E
1216.271	1.625	1218335	WORD	n/a	wordpools/wordpool_categorized_EN.txt	SPEAKER	Electronics	9	10	[0, 0, 0]	n/a	catFR1	4	R1328E
1217.896	0.757	1219960	WORD_OFF	n/a	n/a	SPEAKER	Electronics	9	10	[0, 0, 0]	n/a	catFR1	4	R1328E
1218.653	1.625	1220717	WORD	n/a	wordpools/wordpool_categorized_EN.txt	PHONE	Electronics	10	10	[0, 0, 0]	n/a	catFR1	4	R1328E
1220.278	0.878	1222342	WORD_OFF	n/a	n/a	PHONE	Electronics	10	10	[0, 0, 0]	n/a	catFR1	4	R1328E
1221.156	1.624	1223220	WORD	n/a	wordpools/wordpool_categorized_EN.txt	SKIRT	Clothing	11	10	[0, 0, 0]	n/a	catFR1	4	R1328E
1222.78	1.07	1224844	WORD_OFF	n/a	n/a	SKIRT	Clothing	11	10	[0, 0, 0]	n/a	catFR1	4	R1328E
1223.85	1.63	1225914	WORD	n/a	wordpools/wordpool_categorized_EN.txt	COAT	Clothing	12	10	[0, 0, 0]	n/a	catFR1	4	R1328E
1225.48	0.001	1227544	WORD_OFF	n/a	n/a	COAT	Clothing	12	10	[0, 0, 0]	n/a	catFR1	4	R1328E
1225.481	0.0	1227545	ENCODING_END	n/a	n/a	n/a	n/a	-999	10	[0, 0, 0]	n/a	catFR1	4	R1328E
1225.481	0.0	1227545	DISTRACT_START	n/a	n/a	n/a	n/a	-999	10	[0, 0, 0]	n/a	catFR1	4	R1328E
1225.481	0.016	1227545	START	n/a	n/a	n/a	n/a	-999	10	[-999, -999, -999]	n/a	catFR1	4	R1328E
1225.497	5.451	1227561	PROB	5.451	n/a	n/a	n/a	-999	10	[7, 1, 1]	9	catFR1	4	R1328E
1230.948	7.434	1233012	PROB	7.434	n/a	n/a	n/a	-999	10	[9, 2, 8]	19	catFR1	4	R1328E
1238.382	5.551	1240445	PROB	5.551	n/a	n/a	n/a	-999	10	[9, 5, 4]	18	catFR1	4	R1328E
1243.933	12.007	1245996	PROB	12.007	n/a	n/a	n/a	-999	10	[5, 7, 6]	18	catFR1	4	R1328E
1255.94	0.012	1258003	STOP	n/a	n/a	n/a	n/a	-999	10	[-999, -999, -999]	n/a	catFR1	4	R1328E
1255.952	0.533	1258015	DISTRACT_END	n/a	n/a	n/a	n/a	-999	10	[0, 0, 0]	n/a	catFR1	4	R1328E
1256.485	1.617	1258548	RETRIEVAL_ORIENT_START	n/a	n/a	n/a	n/a	-999	10	[0, 0, 0]	n/a	catFR1	4	R1328E
1258.102	0.0	1260165	RETRIEVAL_ORIENT_END	n/a	n/a	n/a	n/a	-999	10	[0, 0, 0]	n/a	catFR1	4	R1328E
1258.102	2.438	1260165	REC_START	n/a	n/a	n/a	n/a	-999	10	[0, 0, 0]	n/a	catFR1	4	R1328E
1260.54	1.455	1262603	REC_WORD	1.455	n/a	COLA	Beverages	1	10	[0, 0, 0]	n/a	catFR1	4	R1328E
1261.995	1.648	1264058	REC_WORD	1.648	n/a	WINE	Beverages	2	10	[0, 0, 0]	n/a	catFR1	4	R1328E
1263.643	9.663	1265706	REC_WORD	9.663	n/a	BEER	Beverages	7	10	[0, 0, 0]	n/a	catFR1	4	R1328E
1273.306	1.158	1275368	REC_WORD	1.158	n/a	UNDERWEAR	Clothing	3	10	[0, 0, 0]	n/a	catFR1	4	R1328E
1274.464	3.252	1276526	REC_WORD	3.252	n/a	SKIRT	Clothing	11	10	[0, 0, 0]	n/a	catFR1	4	R1328E
1277.716	1.274	1279778	REC_WORD	1.274	n/a	JACKET	Clothing	4	10	[0, 0, 0]	n/a	catFR1	4	R1328E
1278.99	9.124	1281052	REC_WORD	9.124	n/a	COAT	Clothing	12	10	[0, 0, 0]	n/a	catFR1	4	R1328E
1288.114	0.0	1290176	REC_END	n/a	n/a	n/a	n/a	-999	10	[0, 0, 0]	n/a	catFR1	4	R1328E
1288.114	0.031	1290176	TRIAL_END	n/a	n/a	n/a	n/a	-999	10	[0, 0, 0]	n/a	catFR1	4	R1328E
1288.145	0.001	1290207	TRIAL_START	n/a	n/a	n/a	n/a	-999	11	[0, 0, 0]	n/a	catFR1	4	R1328E
1288.146	0.0	1290208	WAITING_START	n/a	n/a	n/a	n/a	-999	11	[0, 0, 0]	n/a	catFR1	4	R1328E
1288.146	2.329	1290208	TRIAL	n/a	n/a	n/a	n/a	-999	11	[0, 0, 0]	n/a	catFR1	4	R1328E
1290.475	0.001	1292537	WAITING_END	n/a	n/a	n/a	n/a	-999	11	[0, 0, 0]	n/a	catFR1	4	R1328E
1290.476	10.429	1292538	COUNTDOWN_START	n/a	n/a	n/a	n/a	-999	11	[0, 0, 0]	n/a	catFR1	4	R1328E
1300.905	0.0	1302966	COUNTDOWN_END	n/a	n/a	n/a	n/a	-999	11	[0, 0, 0]	n/a	catFR1	4	R1328E
1300.905	1.122	1302966	ORIENT_START	n/a	n/a	n/a	n/a	-999	11	[0, 0, 0]	n/a	catFR1	4	R1328E
1302.027	0.001	1304088	ORIENT_END	n/a	n/a	n/a	n/a	-999	11	[0, 0, 0]	n/a	catFR1	4	R1328E
1302.028	0.81	1304089	ENCODING_START	n/a	n/a	n/a	n/a	-999	11	[0, 0, 0]	n/a	catFR1	4	R1328E
1302.838	1.623	1304899	WORD	n/a	wordpools/wordpool_categorized_EN.txt	PETUNIA	Flowers	1	11	[0, 0, 0]	n/a	catFR1	4	R1328E
1304.461	0.907	1306522	WORD_OFF	n/a	n/a	PETUNIA	Flowers	1	11	[0, 0, 0]	n/a	catFR1	4	R1328E
1305.368	1.627	1307429	WORD	n/a	wordpools/wordpool_categorized_EN.txt	ORCHID	Flowers	2	11	[0, 0, 0]	n/a	catFR1	4	R1328E
1306.995	1.114	1309056	WORD_OFF	n/a	n/a	ORCHID	Flowers	2	11	[0, 0, 0]	n/a	catFR1	4	R1328E
1308.109	1.636	1310170	WORD	n/a	wordpools/wordpool_categorized_EN.txt	SPATULA	KitchenTools	3	11	[0, 0, 0]	n/a	catFR1	4	R1328E
1309.745	0.944	1311806	WORD_OFF	n/a	n/a	SPATULA	KitchenTools	3	11	[0, 0, 0]	n/a	catFR1	4	R1328E
1310.689	1.623	1312750	WORD	n/a	wordpools/wordpool_categorized_EN.txt	PEELER	KitchenTools	4	11	[0, 0, 0]	n/a	catFR1	4	R1328E
1312.312	1.006	1314373	WORD_OFF	n/a	n/a	PEELER	KitchenTools	4	11	[0, 0, 0]	n/a	catFR1	4	R1328E
1313.318	1.628	1315379	WORD	n/a	wordpools/wordpool_categorized_EN.txt	HURRICANE	Weather	5	11	[0, 0, 0]	n/a	catFR1	4	R1328E
1314.946	0.843	1317007	WORD_OFF	n/a	n/a	HURRICANE	Weather	5	11	[0, 0, 0]	n/a	catFR1	4	R1328E
1315.789	1.624	1317850	WORD	n/a	wordpools/wordpool_categorized_EN.txt	FOG	Weather	6	11	[0, 0, 0]	n/a	catFR1	4	R1328E
1317.413	0.831	1319474	WORD_OFF	n/a	n/a	FOG	Weather	6	11	[0, 0, 0]	n/a	catFR1	4	R1328E
1318.244	1.636	1320305	WORD	n/a	wordpools/wordpool_categorized_EN.txt	CARNATION	Flowers	7	11	[0, 0, 0]	n/a	catFR1	4	R1328E
1319.88	1.092	1321941	WORD_OFF	n/a	n/a	CARNATION	Flowers	7	11	[0, 0, 0]	n/a	catFR1	4	R1328E
1320.972	1.625	1323033	WORD	n/a	wordpools/wordpool_categorized_EN.txt	ROSE	Flowers	8	11	[0, 0, 0]	n/a	catFR1	4	R1328E
1322.597	0.789	1324657	WORD_OFF	n/a	n/a	ROSE	Flowers	8	11	[0, 0, 0]	n/a	catFR1	4	R1328E
1323.386	1.629	1325446	WORD	n/a	wordpools/wordpool_categorized_EN.txt	THUNDERSTORM	Weather	9	11	[0, 0, 0]	n/a	catFR1	4	R1328E
1325.015	0.953	1327075	WORD_OFF	n/a	n/a	THUNDERSTORM	Weather	9	11	[0, 0, 0]	n/a	catFR1	4	R1328E
1325.968	1.63	1328028	WORD	n/a	wordpools/wordpool_categorized_EN.txt	CLOUD	Weather	10	11	[0, 0, 0]	n/a	catFR1	4	R1328E
1327.598	0.97	1329658	WORD_OFF	n/a	n/a	CLOUD	Weather	10	11	[0, 0, 0]	n/a	catFR1	4	R1328E
1328.568	1.63	1330628	WORD	n/a	wordpools/wordpool_categorized_EN.txt	CORKSCREW	KitchenTools	11	11	[0, 0, 0]	n/a	catFR1	4	R1328E
1330.198	0.776	1332258	WORD_OFF	n/a	n/a	CORKSCREW	KitchenTools	11	11	[0, 0, 0]	n/a	catFR1	4	R1328E
1330.974	1.625	1333034	WORD	n/a	wordpools/wordpool_categorized_EN.txt	KNIFE	KitchenTools	12	11	[0, 0, 0]	n/a	catFR1	4	R1328E
1332.599	0.001	1334659	WORD_OFF	n/a	n/a	KNIFE	KitchenTools	12	11	[0, 0, 0]	n/a	catFR1	4	R1328E
1332.6	0.0	1334660	ENCODING_END	n/a	n/a	n/a	n/a	-999	11	[0, 0, 0]	n/a	catFR1	4	R1328E
1332.6	0.0	1334660	DISTRACT_START	n/a	n/a	n/a	n/a	-999	11	[0, 0, 0]	n/a	catFR1	4	R1328E
1332.6	0.016	1334660	START	n/a	n/a	n/a	n/a	-999	11	[-999, -999, -999]	n/a	catFR1	4	R1328E
1332.616	10.352	1334676	PROB	10.352	n/a	n/a	n/a	-999	11	[5, 8, 1]	14	catFR1	4	R1328E
1342.968	3.933	1345028	PROB	3.933	n/a	n/a	n/a	-999	11	[2, 2, 1]	5	catFR1	4	R1328E
1346.901	13.363	1348961	PROB	13.363	n/a	n/a	n/a	-999	11	[6, 1, 2]	9	catFR1	4	R1328E
1360.264	0.022	1362323	STOP	n/a	n/a	n/a	n/a	-999	11	[-999, -999, -999]	n/a	catFR1	4	R1328E
1360.286	0.565	1362345	DISTRACT_END	n/a	n/a	n/a	n/a	-999	11	[0, 0, 0]	n/a	catFR1	4	R1328E
1360.851	1.553	1362910	RETRIEVAL_ORIENT_START	n/a	n/a	n/a	n/a	-999	11	[0, 0, 0]	n/a	catFR1	4	R1328E
1362.404	0.001	1364463	RETRIEVAL_ORIENT_END	n/a	n/a	n/a	n/a	-999	11	[0, 0, 0]	n/a	catFR1	4	R1328E
1362.405	1.119	1364464	REC_START	n/a	n/a	n/a	n/a	-999	11	[0, 0, 0]	n/a	catFR1	4	R1328E
1363.524	1.166	1365583	REC_WORD	1.166	n/a	PETUNIA	Flowers	1	11	[0, 0, 0]	n/a	catFR1	4	R1328E
1364.69	1.354	1366749	REC_WORD	1.354	n/a	ORCHID	Flowers	2	11	[0, 0, 0]	n/a	catFR1	4	R1328E
1366.044	1.0	1368103	REC_WORD	1.0	n/a	SPATULA	KitchenTools	3	11	[0, 0, 0]	n/a	catFR1	4	R1328E
1367.044	2.765	1369103	REC_WORD_VV	2.765	n/a	<>	n/a	-999	11	[0, 0, 0]	n/a	catFR1	4	R1328E
1369.809	1.12	1371868	REC_WORD	1.12	n/a	PEELER	KitchenTools	4	11	[0, 0, 0]	n/a	catFR1	4	R1328E
1370.929	1.218	1372988	REC_WORD	1.218	n/a	KNIFE	KitchenTools	12	11	[0, 0, 0]	n/a	catFR1	4	R1328E
1372.147	4.701	1374206	REC_WORD	4.701	n/a	CORKSCREW	KitchenTools	11	11	[0, 0, 0]	n/a	catFR1	4	R1328E
1376.848	1.491	1378907	REC_WORD	1.491	n/a	ROSE	Flowers	8	11	[0, 0, 0]	n/a	catFR1	4	R1328E
1378.339	14.079	1380397	REC_WORD	14.079	n/a	CARNATION	Flowers	7	11	[0, 0, 0]	n/a	catFR1	4	R1328E
1392.418	0.0	1394476	REC_END	n/a	n/a	n/a	n/a	-999	11	[0, 0, 0]	n/a	catFR1	4	R1328E
1392.418	0.027	1394476	TRIAL_END	n/a	n/a	n/a	n/a	-999	11	[0, 0, 0]	n/a	catFR1	4	R1328E
1392.445	0.0	1394503	WAITING_START	n/a	n/a	n/a	n/a	-999	12	[0, 0, 0]	n/a	catFR1	4	R1328E
1392.445	0.0	1394503	TRIAL_START	n/a	n/a	n/a	n/a	-999	12	[0, 0, 0]	n/a	catFR1	4	R1328E
1392.445	3.182	1394503	TRIAL	n/a	n/a	n/a	n/a	-999	12	[0, 0, 0]	n/a	catFR1	4	R1328E
1395.627	0.001	1397685	WAITING_END	n/a	n/a	n/a	n/a	-999	12	[0, 0, 0]	n/a	catFR1	4	R1328E
1395.628	10.429	1397686	COUNTDOWN_START	n/a	n/a	n/a	n/a	-999	12	[0, 0, 0]	n/a	catFR1	4	R1328E
1406.057	0.0	1408114	COUNTDOWN_END	n/a	n/a	n/a	n/a	-999	12	[0, 0, 0]	n/a	catFR1	4	R1328E
1406.057	1.171	1408114	ORIENT_START	n/a	n/a	n/a	n/a	-999	12	[0, 0, 0]	n/a	catFR1	4	R1328E
1407.228	0.0	1409285	ORIENT_END	n/a	n/a	n/a	n/a	-999	12	[0, 0, 0]	n/a	catFR1	4	R1328E
1407.228	1.063	1409285	ENCODING_START	n/a	n/a	n/a	n/a	-999	12	[0, 0, 0]	n/a	catFR1	4	R1328E
1408.291	1.622	1410348	WORD	n/a	wordpools/wordpool_categorized_EN.txt	COOKIE	Desserts	1	12	[0, 0, 0]	n/a	catFR1	4	R1328E
1409.913	0.915	1411970	WORD_OFF	n/a	n/a	COOKIE	Desserts	1	12	[0, 0, 0]	n/a	catFR1	4	R1328E
1410.828	1.635	1412885	WORD	n/a	wordpools/wordpool_categorized_EN.txt	BROWNIES	Desserts	2	12	[0, 0, 0]	n/a	catFR1	4	R1328E
1412.463	0.952	1414520	WORD_OFF	n/a	n/a	BROWNIES	Desserts	2	12	[0, 0, 0]	n/a	catFR1	4	R1328E
1413.415	1.632	1415472	WORD	n/a	wordpools/wordpool_categorized_EN.txt	DOLPHIN	OceanAnimals	3	12	[0, 0, 0]	n/a	catFR1	4	R1328E
1415.047	0.927	1417104	WORD_OFF	n/a	n/a	DOLPHIN	OceanAnimals	3	12	[0, 0, 0]	n/a	catFR1	4	R1328E
1415.974	1.623	1418031	WORD	n/a	wordpools/wordpool_categorized_EN.txt	SHRIMP	OceanAnimals	4	12	[0, 0, 0]	n/a	catFR1	4	R1328E
1417.597	1.093	1419654	WORD_OFF	n/a	n/a	SHRIMP	OceanAnimals	4	12	[0, 0, 0]	n/a	catFR1	4	R1328E
1418.69	1.624	1420747	WORD	n/a	wordpools/wordpool_categorized_EN.txt	BIKE	Vehicles	5	12	[0, 0, 0]	n/a	catFR1	4	R1328E
1420.314	0.937	1422371	WORD_OFF	n/a	n/a	BIKE	Vehicles	5	12	[0, 0, 0]	n/a	catFR1	4	R1328E
1421.251	1.631	1423308	WORD	n/a	wordpools/wordpool_categorized_EN.txt	VAN	Vehicles	6	12	[0, 0, 0]	n/a	catFR1	4	R1328E
1422.882	0.787	1424939	WORD_OFF	n/a	n/a	VAN	Vehicles	6	12	[0, 0, 0]	n/a	catFR1	4	R1328E
1423.669	1.629	1425726	WORD	n/a	wordpools/wordpool_categorized_EN.txt	LOBSTER	OceanAnimals	7	12	[0, 0, 0]	n/a	catFR1	4	R1328E
1425.298	0.971	1427355	WORD_OFF	n/a	n/a	LOBSTER	OceanAnimals	7	12	[0, 0, 0]	n/a	catFR1	4	R1328E
1426.269	1.63	1428326	WORD	n/a	wordpools/wordpool_categorized_EN.txt	OYSTER	OceanAnimals	8	12	[0, 0, 0]	n/a	catFR1	4	R1328E
1427.899	1.095	1429956	WORD_OFF	n/a	n/a	OYSTER	OceanAnimals	8	12	[0, 0, 0]	n/a	catFR1	4	R1328E
1428.994	1.622	1431051	WORD	n/a	wordpools/wordpool_categorized_EN.txt	TRAIN	Vehicles	9	12	[0, 0, 0]	n/a	catFR1	4	R1328E
1430.616	0.942	1432673	WORD_OFF	n/a	n/a	TRAIN	Vehicles	9	12	[0, 0, 0]	n/a	catFR1	4	R1328E
1431.558	1.625	1433615	WORD	n/a	wordpools/wordpool_categorized_EN.txt	TRUCK	Vehicles	10	12	[0, 0, 0]	n/a	catFR1	4	R1328E
1433.183	0.971	1435239	WORD_OFF	n/a	n/a	TRUCK	Vehicles	10	12	[0, 0, 0]	n/a	catFR1	4	R1328E
1434.154	1.63	1436210	WORD	n/a	wordpools/wordpool_categorized_EN.txt	CUPCAKE	Desserts	11	12	[0, 0, 0]	n/a	catFR1	4	R1328E
1435.784	0.997	1437840	WORD_OFF	n/a	n/a	CUPCAKE	Desserts	11	12	[0, 0, 0]	n/a	catFR1	4	R1328E
1436.781	1.637	1438837	WORD	n/a	wordpools/wordpool_categorized_EN.txt	CAKE	Desserts	12	12	[0, 0, 0]	n/a	catFR1	4	R1328E
1438.418	0.0	1440474	WORD_OFF	n/a	n/a	CAKE	Desserts	12	12	[0, 0, 0]	n/a	catFR1	4	R1328E
1438.418	0.0	1440474	ENCODING_END	n/a	n/a	n/a	n/a	-999	12	[0, 0, 0]	n/a	catFR1	4	R1328E
1438.418	0.001	1440474	DISTRACT_START	n/a	n/a	n/a	n/a	-999	12	[0, 0, 0]	n/a	catFR1	4	R1328E
1438.419	0.015	1440475	START	n/a	n/a	n/a	n/a	-999	12	[-999, -999, -999]	n/a	catFR1	4	R1328E
1438.434	13.453	1440490	PROB	13.453	n/a	n/a	n/a	-999	12	[7, 7, 9]	23	catFR1	4	R1328E
1451.887	8.531	1453943	PROB	8.531	n/a	n/a	n/a	-999	12	[8, 2, 3]	13	catFR1	4	R1328E
1460.418	0.02	1462474	STOP	n/a	n/a	n/a	n/a	-999	12	[-999, -999, -999]	n/a	catFR1	4	R1328E
1460.438	0.664	1462494	DISTRACT_END	n/a	n/a	n/a	n/a	-999	12	[0, 0, 0]	n/a	catFR1	4	R1328E
1461.102	1.603	1463157	RETRIEVAL_ORIENT_START	n/a	n/a	n/a	n/a	-999	12	[0, 0, 0]	n/a	catFR1	4	R1328E
1462.705	0.001	1464760	RETRIEVAL_ORIENT_END	n/a	n/a	n/a	n/a	-999	12	[0, 0, 0]	n/a	catFR1	4	R1328E
1462.706	3.758	1464761	REC_START	n/a	n/a	n/a	n/a	-999	12	[0, 0, 0]	n/a	catFR1	4	R1328E
1466.464	1.768	1468519	REC_WORD	1.768	n/a	BIKE	Vehicles	5	12	[0, 0, 0]	n/a	catFR1	4	R1328E
1468.232	3.155	1470287	REC_WORD	3.155	n/a	TRAIN	Vehicles	9	12	[0, 0, 0]	n/a	catFR1	4	R1328E
1471.387	1.933	1473442	REC_WORD	1.933	n/a	TRUCK	Vehicles	10	12	[0, 0, 0]	n/a	catFR1	4	R1328E
1473.32	19.398	1475375	REC_WORD	19.398	n/a	BUS	Vehicles	-999	12	[0, 0, 0]	n/a	catFR1	4	R1328E
1492.718	0.0	1494772	REC_END	n/a	n/a	n/a	n/a	-999	12	[0, 0, 0]	n/a	catFR1	4	R1328E
1492.718	0.027	1494772	TRIAL_END	n/a	n/a	n/a	n/a	-999	12	[0, 0, 0]	n/a	catFR1	4	R1328E
1492.745	0.0	1494799	TRIAL_START	n/a	n/a	n/a	n/a	-999	13	[0, 0, 0]	n/a	catFR1	4	R1328E
1492.745	0.0	1494799	TRIAL	n/a	n/a	n/a	n/a	-999	13	[0, 0, 0]	n/a	catFR1	4	R1328E
1492.745	2.133	1494799	WAITING_START	n/a	n/a	n/a	n/a	-999	13	[0, 0, 0]	n/a	catFR1	4	R1328E
1494.878	0.0	1496932	COUNTDOWN_START	n/a	n/a	n/a	n/a	-999	13	[0, 0, 0]	n/a	catFR1	4	R1328E
1494.878	10.428	1496932	WAITING_END	n/a	n/a	n/a	n/a	-999	13	[0, 0, 0]	n/a	catFR1	4	R1328E
1505.306	0.001	1507360	COUNTDOWN_END	n/a	n/a	n/a	n/a	-999	13	[0, 0, 0]	n/a	catFR1	4	R1328E
1505.307	1.123	1507361	ORIENT_START	n/a	n/a	n/a	n/a	-999	13	[0, 0, 0]	n/a	catFR1	4	R1328E
1506.43	0.0	1508484	ORIENT_END	n/a	n/a	n/a	n/a	-999	13	[0, 0, 0]	n/a	catFR1	4	R1328E
1506.43	1.034	1508484	ENCODING_START	n/a	n/a	n/a	n/a	-999	13	[0, 0, 0]	n/a	catFR1	4	R1328E
1507.464	1.632	1509518	WORD	n/a	wordpools/wordpool_categorized_EN.txt	FINGERS	BodyParts	1	13	[0, 0, 0]	n/a	catFR1	4	R1328E
1509.096	0.754	1511150	WORD_OFF	n/a	n/a	FINGERS	BodyParts	1	13	[0, 0, 0]	n/a	catFR1	4	R1328E
1509.85	1.631	1511904	WORD	n/a	wordpools/wordpool_categorized_EN.txt	HEAD	BodyParts	2	13	[0, 0, 0]	n/a	catFR1	4	R1328E
1511.481	0.911	1513535	WORD_OFF	n/a	n/a	HEAD	BodyParts	2	13	[0, 0, 0]	n/a	catFR1	4	R1328E
1512.392	1.622	1514446	WORD	n/a	wordpools/wordpool_categorized_EN.txt	HEN	FarmAnimals	3	13	[0, 0, 0]	n/a	catFR1	4	R1328E
1514.014	0.999	1516068	WORD_OFF	n/a	n/a	HEN	FarmAnimals	3	13	[0, 0, 0]	n/a	catFR1	4	R1328E
1515.013	1.635	1517067	WORD	n/a	wordpools/wordpool_categorized_EN.txt	CALF	FarmAnimals	4	13	[0, 0, 0]	n/a	catFR1	4	R1328E
1516.648	1.019	1518701	WORD_OFF	n/a	n/a	CALF	FarmAnimals	4	13	[0, 0, 0]	n/a	catFR1	4	R1328E
1517.667	1.631	1519720	WORD	n/a	wordpools/wordpool_categorized_EN.txt	CAULIFLOWER	Vegetables	5	13	[0, 0, 0]	n/a	catFR1	4	R1328E
1519.298	0.913	1521351	WORD_OFF	n/a	n/a	CAULIFLOWER	Vegetables	5	13	[0, 0, 0]	n/a	catFR1	4	R1328E
1520.211	1.638	1522264	WORD	n/a	wordpools/wordpool_categorized_EN.txt	CELERY	Vegetables	6	13	[0, 0, 0]	n/a	catFR1	4	R1328E
1521.849	1.095	1523902	WORD_OFF	n/a	n/a	CELERY	Vegetables	6	13	[0, 0, 0]	n/a	catFR1	4	R1328E
1522.944	1.622	1524997	WORD	n/a	wordpools/wordpool_categorized_EN.txt	COW	FarmAnimals	7	13	[0, 0, 0]	n/a	catFR1	4	R1328E
1524.566	0.929	1526619	WORD_OFF	n/a	n/a	COW	FarmAnimals	7	13	[0, 0, 0]	n/a	catFR1	4	R1328E
1525.495	1.621	1527548	WORD	n/a	wordpools/wordpool_categorized_EN.txt	CHICKEN	FarmAnimals	8	13	[0, 0, 0]	n/a	catFR1	4	R1328E
1527.116	0.786	1529169	WORD_OFF	n/a	n/a	CHICKEN	FarmAnimals	8	13	[0, 0, 0]	n/a	catFR1	4	R1328E
1527.902	1.632	1529955	WORD	n/a	wordpools/wordpool_categorized_EN.txt	ONION	Vegetables	9	13	[0, 0, 0]	n/a	catFR1	4	R1328E
1529.534	0.756	1531587	WORD_OFF	n/a	n/a	ONION	Vegetables	9	13	[0, 0, 0]	n/a	catFR1	4	R1328E
1530.29	1.611	1532343	WORD	n/a	wordpools/wordpool_categorized_EN.txt	PEAS	Vegetables	10	13	[0, 0, 0]	n/a	catFR1	4	R1328E
1531.901	0.903	1533954	WORD_OFF	n/a	n/a	PEAS	Vegetables	10	13	[0, 0, 0]	n/a	catFR1	4	R1328E
1532.804	1.631	1534857	WORD	n/a	wordpools/wordpool_categorized_EN.txt	EAR	BodyParts	11	13	[0, 0, 0]	n/a	catFR1	4	R1328E
1534.435	0.792	1536488	WORD_OFF	n/a	n/a	EAR	BodyParts	11	13	[0, 0, 0]	n/a	catFR1	4	R1328E
1535.227	1.625	1537280	WORD	n/a	wordpools/wordpool_categorized_EN.txt	ELBOW	BodyParts	12	13	[0, 0, 0]	n/a	catFR1	4	R1328E
1536.852	0.0	1538905	DISTRACT_START	n/a	n/a	n/a	n/a	-999	13	[0, 0, 0]	n/a	catFR1	4	R1328E
1536.852	0.0	1538905	WORD_OFF	n/a	n/a	ELBOW	BodyParts	12	13	[0, 0, 0]	n/a	catFR1	4	R1328E
1536.852	0.0	1538905	ENCODING_END	n/a	n/a	n/a	n/a	-999	13	[0, 0, 0]	n/a	catFR1	4	R1328E
1536.852	0.016	1538905	START	n/a	n/a	n/a	n/a	-999	13	[-999, -999, -999]	n/a	catFR1	4	R1328E
1536.868	12.335	1538921	PROB	12.335	n/a	n/a	n/a	-999	13	[4, 8, 3]	15	catFR1	4	R1328E
1549.203	6.001	1551255	PROB	6.001	n/a	n/a	n/a	-999	13	[9, 9, 9]	27	catFR1	4	R1328E
1555.204	10.169	1557256	PROB	10.169	n/a	n/a	n/a	-999	13	[2, 1, 7]	10	catFR1	4	R1328E
1565.373	0.017	1567425	STOP	n/a	n/a	n/a	n/a	-999	13	[-999, -999, -999]	n/a	catFR1	4	R1328E
1565.39	0.58	1567442	DISTRACT_END	n/a	n/a	n/a	n/a	-999	13	[0, 0, 0]	n/a	catFR1	4	R1328E
1565.97	1.687	1568022	RETRIEVAL_ORIENT_START	n/a	n/a	n/a	n/a	-999	13	[0, 0, 0]	n/a	catFR1	4	R1328E
1567.657	0.0	1569709	RETRIEVAL_ORIENT_END	n/a	n/a	n/a	n/a	-999	13	[0, 0, 0]	n/a	catFR1	4	R1328E
1567.657	0.684	1569709	REC_START	n/a	n/a	n/a	n/a	-999	13	[0, 0, 0]	n/a	catFR1	4	R1328E
1568.341	1.0	1570393	REC_WORD	1.0	n/a	CAULIFLOWER	Vegetables	5	13	[0, 0, 0]	n/a	catFR1	4	R1328E
1569.341	0.361	1571393	REC_WORD_VV	0.361	n/a	<>	n/a	-999	13	[0, 0, 0]	n/a	catFR1	4	R1328E
1569.702	7.549	1571754	REC_WORD	7.549	n/a	CELERY	Vegetables	6	13	[0, 0, 0]	n/a	catFR1	4	R1328E
1577.251	5.68	1579302	REC_WORD	5.68	n/a	PEAS	Vegetables	10	13	[0, 0, 0]	n/a	catFR1	4	R1328E
1582.931	1.325	1584982	REC_WORD	1.325	n/a	CALF	FarmAnimals	4	13	[0, 0, 0]	n/a	catFR1	4	R1328E
1584.256	1.272	1586307	REC_WORD	1.272	n/a	COW	FarmAnimals	7	13	[0, 0, 0]	n/a	catFR1	4	R1328E
1585.528	1.91	1587579	REC_WORD	1.91	n/a	CHICKEN	FarmAnimals	8	13	[0, 0, 0]	n/a	catFR1	4	R1328E
1587.438	9.738	1589489	REC_WORD	9.738	n/a	HEN	FarmAnimals	3	13	[0, 0, 0]	n/a	catFR1	4	R1328E
1597.176	0.494	1599227	REC_WORD	0.494	n/a	HEAD	BodyParts	2	13	[0, 0, 0]	n/a	catFR1	4	R1328E
1597.67	0.001	1599721	REC_END	n/a	n/a	n/a	n/a	-999	13	[0, 0, 0]	n/a	catFR1	4	R1328E
1597.671	0.027	1599722	TRIAL_END	n/a	n/a	n/a	n/a	-999	13	[0, 0, 0]	n/a	catFR1	4	R1328E
1597.698	0.0	1599749	WAITING_START	n/a	n/a	n/a	n/a	-999	14	[0, 0, 0]	n/a	catFR1	4	R1328E
1597.698	0.0	1599749	TRIAL	n/a	n/a	n/a	n/a	-999	14	[0, 0, 0]	n/a	catFR1	4	R1328E
1597.698	4.999	1599749	TRIAL_START	n/a	n/a	n/a	n/a	-999	14	[0, 0, 0]	n/a	catFR1	4	R1328E
1602.697	0.0	1604747	WAITING_END	n/a	n/a	n/a	n/a	-999	14	[0, 0, 0]	n/a	catFR1	4	R1328E
1602.697	10.429	1604747	COUNTDOWN_START	n/a	n/a	n/a	n/a	-999	14	[0, 0, 0]	n/a	catFR1	4	R1328E
1613.126	0.0	1615176	COUNTDOWN_END	n/a	n/a	n/a	n/a	-999	14	[0, 0, 0]	n/a	catFR1	4	R1328E
1613.126	1.172	1615176	ORIENT_START	n/a	n/a	n/a	n/a	-999	14	[0, 0, 0]	n/a	catFR1	4	R1328E
1614.298	0.0	1616348	ORIENT_END	n/a	n/a	n/a	n/a	-999	14	[0, 0, 0]	n/a	catFR1	4	R1328E
1614.298	1.034	1616348	ENCODING_START	n/a	n/a	n/a	n/a	-999	14	[0, 0, 0]	n/a	catFR1	4	R1328E
1615.332	1.634	1617382	WORD	n/a	wordpools/wordpool_categorized_EN.txt	BLOUSE	Clothing	1	14	[0, 0, 0]	n/a	catFR1	4	R1328E
1616.966	1.002	1619016	WORD_OFF	n/a	n/a	BLOUSE	Clothing	1	14	[0, 0, 0]	n/a	catFR1	4	R1328E
1617.968	1.632	1620018	WORD	n/a	wordpools/wordpool_categorized_EN.txt	DRESS	Clothing	2	14	[0, 0, 0]	n/a	catFR1	4	R1328E
1619.6	0.895	1621650	WORD_OFF	n/a	n/a	DRESS	Clothing	2	14	[0, 0, 0]	n/a	catFR1	4	R1328E
1620.495	1.637	1622545	WORD	n/a	wordpools/wordpool_categorized_EN.txt	SUNFLOWER	Flowers	3	14	[0, 0, 0]	n/a	catFR1	4	R1328E
1622.132	0.977	1624182	WORD_OFF	n/a	n/a	SUNFLOWER	Flowers	3	14	[0, 0, 0]	n/a	catFR1	4	R1328E
1623.109	1.625	1625159	WORD	n/a	wordpools/wordpool_categorized_EN.txt	TULIP	Flowers	4	14	[0, 0, 0]	n/a	catFR1	4	R1328E
1624.734	1.095	1626784	WORD_OFF	n/a	n/a	TULIP	Flowers	4	14	[0, 0, 0]	n/a	catFR1	4	R1328E
1625.829	1.622	1627879	WORD	n/a	wordpools/wordpool_categorized_EN.txt	PENCIL	OfficeSupplies	5	14	[0, 0, 0]	n/a	catFR1	4	R1328E
1627.451	0.893	1629501	WORD_OFF	n/a	n/a	PENCIL	OfficeSupplies	5	14	[0, 0, 0]	n/a	catFR1	4	R1328E
1628.344	1.624	1630393	WORD	n/a	wordpools/wordpool_categorized_EN.txt	MARKER	OfficeSupplies	6	14	[0, 0, 0]	n/a	catFR1	4	R1328E
1629.968	1.145	1632017	WORD_OFF	n/a	n/a	MARKER	OfficeSupplies	6	14	[0, 0, 0]	n/a	catFR1	4	R1328E
1631.113	1.606	1633162	WORD	n/a	wordpools/wordpool_categorized_EN.txt	SHOES	Clothing	7	14	[0, 0, 0]	n/a	catFR1	4	R1328E
1632.719	0.92	1634768	WORD_OFF	n/a	n/a	SHOES	Clothing	7	14	[0, 0, 0]	n/a	catFR1	4	R1328E
1633.639	1.629	1635688	WORD	n/a	wordpools/wordpool_categorized_EN.txt	JEANS	Clothing	8	14	[0, 0, 0]	n/a	catFR1	4	R1328E
1635.268	0.875	1637317	WORD_OFF	n/a	n/a	JEANS	Clothing	8	14	[0, 0, 0]	n/a	catFR1	4	R1328E
1636.143	1.61	1638192	WORD	n/a	wordpools/wordpool_categorized_EN.txt	GLUE	OfficeSupplies	9	14	[0, 0, 0]	n/a	catFR1	4	R1328E
1637.753	0.844	1639802	WORD_OFF	n/a	n/a	GLUE	OfficeSupplies	9	14	[0, 0, 0]	n/a	catFR1	4	R1328E
1638.597	1.622	1640646	WORD	n/a	wordpools/wordpool_categorized_EN.txt	PEN	OfficeSupplies	10	14	[0, 0, 0]	n/a	catFR1	4	R1328E
1640.219	0.9	1642268	WORD_OFF	n/a	n/a	PEN	OfficeSupplies	10	14	[0, 0, 0]	n/a	catFR1	4	R1328E
1641.119	1.635	1643168	WORD	n/a	wordpools/wordpool_categorized_EN.txt	LILY	Flowers	11	14	[0, 0, 0]	n/a	catFR1	4	R1328E
1642.754	0.8	1644803	WORD_OFF	n/a	n/a	LILY	Flowers	11	14	[0, 0, 0]	n/a	catFR1	4	R1328E
1643.554	1.632	1645603	WORD	n/a	wordpools/wordpool_categorized_EN.txt	LILAC	Flowers	12	14	[0, 0, 0]	n/a	catFR1	4	R1328E
1645.186	0.001	1647235	WORD_OFF	n/a	n/a	LILAC	Flowers	12	14	[0, 0, 0]	n/a	catFR1	4	R1328E
1645.187	0.0	1647236	ENCODING_END	n/a	n/a	n/a	n/a	-999	14	[0, 0, 0]	n/a	catFR1	4	R1328E
1645.187	0.0	1647236	DISTRACT_START	n/a	n/a	n/a	n/a	-999	14	[0, 0, 0]	n/a	catFR1	4	R1328E
1645.187	0.016	1647236	START	n/a	n/a	n/a	n/a	-999	14	[-999, -999, -999]	n/a	catFR1	4	R1328E
1645.203	7.836	1647252	PROB	7.836	n/a	n/a	n/a	-999	14	[7, 5, 7]	19	catFR1	4	R1328E
1653.039	2.75	1655088	PROB	2.75	n/a	n/a	n/a	-999	14	[6, 1, 6]	13	catFR1	4	R1328E
1655.789	9.118	1657837	PROB	9.118	n/a	n/a	n/a	-999	14	[1, 5, 8]	14	catFR1	4	R1328E
1664.907	6.379	1666955	PROB	6.379	n/a	n/a	n/a	-999	14	[2, 7, 1]	10	catFR1	4	R1328E
1671.286	0.022	1673334	STOP	n/a	n/a	n/a	n/a	-999	14	[-999, -999, -999]	n/a	catFR1	4	R1328E
1671.308	0.6	1673356	DISTRACT_END	n/a	n/a	n/a	n/a	-999	14	[0, 0, 0]	n/a	catFR1	4	R1328E
1671.908	1.551	1673956	RETRIEVAL_ORIENT_START	n/a	n/a	n/a	n/a	-999	14	[0, 0, 0]	n/a	catFR1	4	R1328E
1673.459	0.0	1675507	RETRIEVAL_ORIENT_END	n/a	n/a	n/a	n/a	-999	14	[0, 0, 0]	n/a	catFR1	4	R1328E
1673.459	3.125	1675507	REC_START	n/a	n/a	n/a	n/a	-999	14	[0, 0, 0]	n/a	catFR1	4	R1328E
1676.584	1.224	1678632	REC_WORD	1.224	n/a	SUNFLOWER	Flowers	3	14	[0, 0, 0]	n/a	catFR1	4	R1328E
1677.808	1.806	1679856	REC_WORD	1.806	n/a	LILY	Flowers	11	14	[0, 0, 0]	n/a	catFR1	4	R1328E
1679.614	1.168	1681662	REC_WORD	1.168	n/a	TULIP	Flowers	4	14	[0, 0, 0]	n/a	catFR1	4	R1328E
1680.782	13.394	1682830	REC_WORD	13.394	n/a	LILAC	Flowers	12	14	[0, 0, 0]	n/a	catFR1	4	R1328E
1694.176	1.0	1696223	REC_WORD	1.0	n/a	BLOUSE	Clothing	1	14	[0, 0, 0]	n/a	catFR1	4	R1328E
1695.176	1.0	1697223	REC_WORD_VV	1.0	n/a	<>	n/a	-999	14	[0, 0, 0]	n/a	catFR1	4	R1328E
1696.176	7.296	1698223	REC_WORD_VV	7.296	n/a	<>	n/a	-999	14	[0, 0, 0]	n/a	catFR1	4	R1328E
1703.472	0.0	1705519	REC_END	n/a	n/a	n/a	n/a	-999	14	[0, 0, 0]	n/a	catFR1	4	R1328E
1703.472	0.026	1705519	TRIAL_END	n/a	n/a	n/a	n/a	-999	14	[0, 0, 0]	n/a	catFR1	4	R1328E
1703.498	0.001	1705545	TRIAL_START	n/a	n/a	n/a	n/a	-999	15	[0, 0, 0]	n/a	catFR1	4	R1328E
1703.499	0.0	1705546	WAITING_START	n/a	n/a	n/a	n/a	-999	15	[0, 0, 0]	n/a	catFR1	4	R1328E
1703.499	4.466	1705546	TRIAL	n/a	n/a	n/a	n/a	-999	15	[0, 0, 0]	n/a	catFR1	4	R1328E
1707.965	0.001	1710012	WAITING_END	n/a	n/a	n/a	n/a	-999	15	[0, 0, 0]	n/a	catFR1	4	R1328E
1707.966	10.429	1710013	COUNTDOWN_START	n/a	n/a	n/a	n/a	-999	15	[0, 0, 0]	n/a	catFR1	4	R1328E
1718.395	0.0	1720441	COUNTDOWN_END	n/a	n/a	n/a	n/a	-999	15	[0, 0, 0]	n/a	catFR1	4	R1328E
1718.395	1.189	1720441	ORIENT_START	n/a	n/a	n/a	n/a	-999	15	[0, 0, 0]	n/a	catFR1	4	R1328E
1719.584	0.0	1721630	ORIENT_END	n/a	n/a	n/a	n/a	-999	15	[0, 0, 0]	n/a	catFR1	4	R1328E
1719.584	0.962	1721630	ENCODING_START	n/a	n/a	n/a	n/a	-999	15	[0, 0, 0]	n/a	catFR1	4	R1328E
1720.546	1.621	1722592	WORD	n/a	wordpools/wordpool_categorized_EN.txt	PANTS	Clothing	1	15	[0, 0, 0]	n/a	catFR1	4	R1328E
1722.167	1.141	1724213	WORD_OFF	n/a	n/a	PANTS	Clothing	1	15	[0, 0, 0]	n/a	catFR1	4	R1328E
1723.308	1.627	1725354	WORD	n/a	wordpools/wordpool_categorized_EN.txt	SHIRT	Clothing	2	15	[0, 0, 0]	n/a	catFR1	4	R1328E
1724.935	0.868	1726981	WORD_OFF	n/a	n/a	SHIRT	Clothing	2	15	[0, 0, 0]	n/a	catFR1	4	R1328E
1725.803	1.632	1727849	WORD	n/a	wordpools/wordpool_categorized_EN.txt	TURKEY	FarmAnimals	3	15	[0, 0, 0]	n/a	catFR1	4	R1328E
1727.435	1.032	1729481	WORD_OFF	n/a	n/a	TURKEY	FarmAnimals	3	15	[0, 0, 0]	n/a	catFR1	4	R1328E
1728.467	1.634	1730513	WORD	n/a	wordpools/wordpool_categorized_EN.txt	LAMB	FarmAnimals	4	15	[0, 0, 0]	n/a	catFR1	4	R1328E
1730.101	0.866	1732147	WORD_OFF	n/a	n/a	LAMB	FarmAnimals	4	15	[0, 0, 0]	n/a	catFR1	4	R1328E
1730.967	1.636	1733013	WORD	n/a	wordpools/wordpool_categorized_EN.txt	CROWBAR	Tools	5	15	[0, 0, 0]	n/a	catFR1	4	R1328E
1732.603	0.89	1734649	WORD_OFF	n/a	n/a	CROWBAR	Tools	5	15	[0, 0, 0]	n/a	catFR1	4	R1328E
1733.493	1.626	1735539	WORD	n/a	wordpools/wordpool_categorized_EN.txt	PLIERS	Tools	6	15	[0, 0, 0]	n/a	catFR1	4	R1328E
1735.119	1.125	1737165	WORD_OFF	n/a	n/a	PLIERS	Tools	6	15	[0, 0, 0]	n/a	catFR1	4	R1328E
1736.244	1.609	1738290	WORD	n/a	wordpools/wordpool_categorized_EN.txt	SOCKS	Clothing	7	15	[0, 0, 0]	n/a	catFR1	4	R1328E
1737.853	1.099	1739899	WORD_OFF	n/a	n/a	SOCKS	Clothing	7	15	[0, 0, 0]	n/a	catFR1	4	R1328E
1738.952	1.635	1740997	WORD	n/a	wordpools/wordpool_categorized_EN.txt	SHORTS	Clothing	8	15	[0, 0, 0]	n/a	catFR1	4	R1328E
1740.587	1.005	1742632	WORD_OFF	n/a	n/a	SHORTS	Clothing	8	15	[0, 0, 0]	n/a	catFR1	4	R1328E
1741.592	1.628	1743637	WORD	n/a	wordpools/wordpool_categorized_EN.txt	BULL	FarmAnimals	9	15	[0, 0, 0]	n/a	catFR1	4	R1328E
1743.22	1.029	1745265	WORD_OFF	n/a	n/a	BULL	FarmAnimals	9	15	[0, 0, 0]	n/a	catFR1	4	R1328E
1744.249	1.623	1746294	WORD	n/a	wordpools/wordpool_categorized_EN.txt	ROOSTER	FarmAnimals	10	15	[0, 0, 0]	n/a	catFR1	4	R1328E
1745.872	0.755	1747917	WORD_OFF	n/a	n/a	ROOSTER	FarmAnimals	10	15	[0, 0, 0]	n/a	catFR1	4	R1328E
1746.627	1.628	1748672	WORD	n/a	wordpools/wordpool_categorized_EN.txt	AXE	Tools	11	15	[0, 0, 0]	n/a	catFR1	4	R1328E
1748.255	0.981	1750300	WORD_OFF	n/a	n/a	AXE	Tools	11	15	[0, 0, 0]	n/a	catFR1	4	R1328E
1749.236	1.62	1751281	WORD	n/a	wordpools/wordpool_categorized_EN.txt	SCREWDRIVER	Tools	12	15	[0, 0, 0]	n/a	catFR1	4	R1328E
1750.856	0.0	1752901	WORD_OFF	n/a	n/a	SCREWDRIVER	Tools	12	15	[0, 0, 0]	n/a	catFR1	4	R1328E
1750.856	0.001	1752901	ENCODING_END	n/a	n/a	n/a	n/a	-999	15	[0, 0, 0]	n/a	catFR1	4	R1328E
1750.857	0.0	1752902	DISTRACT_START	n/a	n/a	n/a	n/a	-999	15	[0, 0, 0]	n/a	catFR1	4	R1328E
1750.857	0.015	1752902	START	n/a	n/a	n/a	n/a	-999	15	[-999, -999, -999]	n/a	catFR1	4	R1328E
1750.872	6.752	1752917	PROB	6.752	n/a	n/a	n/a	-999	15	[5, 4, 6]	15	catFR1	4	R1328E
1757.624	4.35	1759669	PROB	4.35	n/a	n/a	n/a	-999	15	[2, 5, 7]	14	catFR1	4	R1328E
1761.974	20.455	1764019	PROB	20.455	n/a	n/a	n/a	-999	15	[4, 1, 8]	13	catFR1	4	R1328E
1782.429	0.016	1784473	STOP	n/a	n/a	n/a	n/a	-999	15	[-999, -999, -999]	n/a	catFR1	4	R1328E
1782.445	0.551	1784489	DISTRACT_END	n/a	n/a	n/a	n/a	-999	15	[0, 0, 0]	n/a	catFR1	4	R1328E
1782.996	1.532	1785040	RETRIEVAL_ORIENT_START	n/a	n/a	n/a	n/a	-999	15	[0, 0, 0]	n/a	catFR1	4	R1328E
1784.528	0.001	1786572	RETRIEVAL_ORIENT_END	n/a	n/a	n/a	n/a	-999	15	[0, 0, 0]	n/a	catFR1	4	R1328E
1784.529	1.797	1786573	REC_START	n/a	n/a	n/a	n/a	-999	15	[0, 0, 0]	n/a	catFR1	4	R1328E
1786.326	3.104	1788370	REC_WORD	3.104	n/a	CROWBAR	Tools	5	15	[0, 0, 0]	n/a	catFR1	4	R1328E
1789.43	2.245	1791474	REC_WORD	2.245	n/a	PLIERS	Tools	6	15	[0, 0, 0]	n/a	catFR1	4	R1328E
1791.675	22.865	1793719	REC_WORD	22.865	n/a	SCREWDRIVER	Tools	12	15	[0, 0, 0]	n/a	catFR1	4	R1328E
1814.54	0.0	1816583	REC_END	n/a	n/a	n/a	n/a	-999	15	[0, 0, 0]	n/a	catFR1	4	R1328E
1814.54	0.027	1816583	TRIAL_END	n/a	n/a	n/a	n/a	-999	15	[0, 0, 0]	n/a	catFR1	4	R1328E
1814.567	0.0	1816610	TRIAL_START	n/a	n/a	n/a	n/a	-999	16	[0, 0, 0]	n/a	catFR1	4	R1328E
1814.567	0.001	1816610	TRIAL	n/a	n/a	n/a	n/a	-999	16	[0, 0, 0]	n/a	catFR1	4	R1328E
1814.568	5.699	1816611	WAITING_START	n/a	n/a	n/a	n/a	-999	16	[0, 0, 0]	n/a	catFR1	4	R1328E
1820.267	0.0	1822310	WAITING_END	n/a	n/a	n/a	n/a	-999	16	[0, 0, 0]	n/a	catFR1	4	R1328E
1820.267	10.429	1822310	COUNTDOWN_START	n/a	n/a	n/a	n/a	-999	16	[0, 0, 0]	n/a	catFR1	4	R1328E
1830.696	0.001	1832738	COUNTDOWN_END	n/a	n/a	n/a	n/a	-999	16	[0, 0, 0]	n/a	catFR1	4	R1328E
1830.697	1.057	1832739	ORIENT_START	n/a	n/a	n/a	n/a	-999	16	[0, 0, 0]	n/a	catFR1	4	R1328E
1831.754	0.0	1833796	ORIENT_END	n/a	n/a	n/a	n/a	-999	16	[0, 0, 0]	n/a	catFR1	4	R1328E
1831.754	0.974	1833796	ENCODING_START	n/a	n/a	n/a	n/a	-999	16	[0, 0, 0]	n/a	catFR1	4	R1328E
1832.728	1.626	1834770	WORD	n/a	wordpools/wordpool_categorized_EN.txt	TABLET	Electronics	1	16	[0, 0, 0]	n/a	catFR1	4	R1328E
1834.354	0.976	1836396	WORD_OFF	n/a	n/a	TABLET	Electronics	1	16	[0, 0, 0]	n/a	catFR1	4	R1328E
1835.33	1.608	1837372	WORD	n/a	wordpools/wordpool_categorized_EN.txt	HEADPHONES	Electronics	2	16	[0, 0, 0]	n/a	catFR1	4	R1328E
1836.938	0.977	1838980	WORD_OFF	n/a	n/a	HEADPHONES	Electronics	2	16	[0, 0, 0]	n/a	catFR1	4	R1328E
1837.915	1.623	1839957	WORD	n/a	wordpools/wordpool_categorized_EN.txt	PLUM	Fruit	3	16	[0, 0, 0]	n/a	catFR1	4	R1328E
1839.538	1.143	1841580	WORD_OFF	n/a	n/a	PLUM	Fruit	3	16	[0, 0, 0]	n/a	catFR1	4	R1328E
1840.681	1.623	1842723	WORD	n/a	wordpools/wordpool_categorized_EN.txt	PEAR	Fruit	4	16	[0, 0, 0]	n/a	catFR1	4	R1328E
1842.304	1.058	1844346	WORD_OFF	n/a	n/a	PEAR	Fruit	4	16	[0, 0, 0]	n/a	catFR1	4	R1328E
1843.362	1.627	1845404	WORD	n/a	wordpools/wordpool_categorized_EN.txt	RATCHET	Tools	5	16	[0, 0, 0]	n/a	catFR1	4	R1328E
1844.989	0.932	1847031	WORD_OFF	n/a	n/a	RATCHET	Tools	5	16	[0, 0, 0]	n/a	catFR1	4	R1328E
1845.921	1.635	1847963	WORD	n/a	wordpools/wordpool_categorized_EN.txt	SAW	Tools	6	16	[0, 0, 0]	n/a	catFR1	4	R1328E
1847.556	0.938	1849598	WORD_OFF	n/a	n/a	SAW	Tools	6	16	[0, 0, 0]	n/a	catFR1	4	R1328E
1848.494	1.628	1850536	WORD	n/a	wordpools/wordpool_categorized_EN.txt	LEMON	Fruit	7	16	[0, 0, 0]	n/a	catFR1	4	R1328E
1850.122	0.844	1852164	WORD_OFF	n/a	n/a	LEMON	Fruit	7	16	[0, 0, 0]	n/a	catFR1	4	R1328E
1850.966	1.624	1853007	WORD	n/a	wordpools/wordpool_categorized_EN.txt	APPLE	Fruit	8	16	[0, 0, 0]	n/a	catFR1	4	R1328E
1852.59	0.853	1854631	WORD_OFF	n/a	n/a	APPLE	Fruit	8	16	[0, 0, 0]	n/a	catFR1	4	R1328E
1853.443	1.63	1855484	WORD	n/a	wordpools/wordpool_categorized_EN.txt	SANDER	Tools	9	16	[0, 0, 0]	n/a	catFR1	4	R1328E
1855.073	1.046	1857114	WORD_OFF	n/a	n/a	SANDER	Tools	9	16	[0, 0, 0]	n/a	catFR1	4	R1328E
1856.119	1.606	1858160	WORD	n/a	wordpools/wordpool_categorized_EN.txt	SHOVEL	Tools	10	16	[0, 0, 0]	n/a	catFR1	4	R1328E
1857.725	0.92	1859766	WORD_OFF	n/a	n/a	SHOVEL	Tools	10	16	[0, 0, 0]	n/a	catFR1	4	R1328E
1858.645	1.629	1860686	WORD	n/a	wordpools/wordpool_categorized_EN.txt	MICROWAVE	Electronics	11	16	[0, 0, 0]	n/a	catFR1	4	R1328E
1860.274	0.819	1862315	WORD_OFF	n/a	n/a	MICROWAVE	Electronics	11	16	[0, 0, 0]	n/a	catFR1	4	R1328E
1861.093	1.633	1863134	WORD	n/a	wordpools/wordpool_categorized_EN.txt	CALCULATOR	Electronics	12	16	[0, 0, 0]	n/a	catFR1	4	R1328E
1862.726	0.0	1864767	ENCODING_END	n/a	n/a	n/a	n/a	-999	16	[0, 0, 0]	n/a	catFR1	4	R1328E
1862.726	0.0	1864767	DISTRACT_START	n/a	n/a	n/a	n/a	-999	16	[0, 0, 0]	n/a	catFR1	4	R1328E
1862.726	0.0	1864767	WORD_OFF	n/a	n/a	CALCULATOR	Electronics	12	16	[0, 0, 0]	n/a	catFR1	4	R1328E
1862.726	0.016	1864767	START	n/a	n/a	n/a	n/a	-999	16	[-999, -999, -999]	n/a	catFR1	4	R1328E
1862.742	13.686	1864783	PROB	13.686	n/a	n/a	n/a	-999	16	[5, 1, 8]	14	catFR1	4	R1328E
1876.428	10.552	1878469	PROB	10.552	n/a	n/a	n/a	-999	16	[9, 8, 4]	21	catFR1	4	R1328E
1886.98	0.016	1889020	STOP	n/a	n/a	n/a	n/a	-999	16	[-999, -999, -999]	n/a	catFR1	4	R1328E
1886.996	0.696	1889036	DISTRACT_END	n/a	n/a	n/a	n/a	-999	16	[0, 0, 0]	n/a	catFR1	4	R1328E
1887.692	1.604	1889732	RETRIEVAL_ORIENT_START	n/a	n/a	n/a	n/a	-999	16	[0, 0, 0]	n/a	catFR1	4	R1328E
1889.296	0.0	1891336	RETRIEVAL_ORIENT_END	n/a	n/a	n/a	n/a	-999	16	[0, 0, 0]	n/a	catFR1	4	R1328E
1889.296	9.843	1891336	REC_START	n/a	n/a	n/a	n/a	-999	16	[0, 0, 0]	n/a	catFR1	4	R1328E
1899.139	1.0	1901179	REC_WORD	1.0	n/a	SANDER	Tools	9	16	[0, 0, 0]	n/a	catFR1	4	R1328E
1900.139	2.566	1902179	REC_WORD_VV	2.566	n/a	<>	n/a	-999	16	[0, 0, 0]	n/a	catFR1	4	R1328E
1902.705	2.208	1904745	REC_WORD	2.208	n/a	RATCHET	Tools	5	16	[0, 0, 0]	n/a	catFR1	4	R1328E
1904.913	2.621	1906953	REC_WORD	2.621	n/a	SHOVEL	Tools	10	16	[0, 0, 0]	n/a	catFR1	4	R1328E
1907.534	11.775	1909573	REC_WORD	11.775	n/a	MICROWAVE	Electronics	11	16	[0, 0, 0]	n/a	catFR1	4	R1328E
1919.309	0.0	1921348	TRIAL_END	n/a	n/a	n/a	n/a	-999	16	[0, 0, 0]	n/a	catFR1	4	R1328E
1919.309	0.027	1921348	REC_END	n/a	n/a	n/a	n/a	-999	16	[0, 0, 0]	n/a	catFR1	4	R1328E
1919.336	0.001	1921375	TRIAL_START	n/a	n/a	n/a	n/a	-999	17	[0, 0, 0]	n/a	catFR1	4	R1328E
1919.337	0.0	1921376	TRIAL	n/a	n/a	n/a	n/a	-999	17	[0, 0, 0]	n/a	catFR1	4	R1328E
1919.337	2.981	1921376	WAITING_START	n/a	n/a	n/a	n/a	-999	17	[0, 0, 0]	n/a	catFR1	4	R1328E
1922.318	0.001	1924357	WAITING_END	n/a	n/a	n/a	n/a	-999	17	[0, 0, 0]	n/a	catFR1	4	R1328E
1922.319	10.428	1924358	COUNTDOWN_START	n/a	n/a	n/a	n/a	-999	17	[0, 0, 0]	n/a	catFR1	4	R1328E
1932.747	0.001	1934786	COUNTDOWN_END	n/a	n/a	n/a	n/a	-999	17	[0, 0, 0]	n/a	catFR1	4	R1328E
1932.748	1.09	1934787	ORIENT_START	n/a	n/a	n/a	n/a	-999	17	[0, 0, 0]	n/a	catFR1	4	R1328E
1933.838	0.001	1935876	ORIENT_END	n/a	n/a	n/a	n/a	-999	17	[0, 0, 0]	n/a	catFR1	4	R1328E
1933.839	1.079	1935877	ENCODING_START	n/a	n/a	n/a	n/a	-999	17	[0, 0, 0]	n/a	catFR1	4	R1328E
1934.918	1.637	1936956	WORD	n/a	wordpools/wordpool_categorized_EN.txt	CHAIR	Furniture	1	17	[0, 0, 0]	n/a	catFR1	4	R1328E
1936.555	1.076	1938593	WORD_OFF	n/a	n/a	CHAIR	Furniture	1	17	[0, 0, 0]	n/a	catFR1	4	R1328E
1937.631	1.624	1939669	WORD	n/a	wordpools/wordpool_categorized_EN.txt	CABINET	Furniture	2	17	[0, 0, 0]	n/a	catFR1	4	R1328E
1939.255	1.042	1941293	WORD_OFF	n/a	n/a	CABINET	Furniture	2	17	[0, 0, 0]	n/a	catFR1	4	R1328E
1940.297	1.626	1942335	WORD	n/a	wordpools/wordpool_categorized_EN.txt	SPOON	KitchenTools	3	17	[0, 0, 0]	n/a	catFR1	4	R1328E
1941.923	0.848	1943961	WORD_OFF	n/a	n/a	SPOON	KitchenTools	3	17	[0, 0, 0]	n/a	catFR1	4	R1328E
1942.771	1.636	1944809	WORD	n/a	wordpools/wordpool_categorized_EN.txt	TONGS	KitchenTools	4	17	[0, 0, 0]	n/a	catFR1	4	R1328E
1944.407	1.038	1946445	WORD_OFF	n/a	n/a	TONGS	KitchenTools	4	17	[0, 0, 0]	n/a	catFR1	4	R1328E
1945.445	1.628	1947483	WORD	n/a	wordpools/wordpool_categorized_EN.txt	BASKETBALL	Toys	5	17	[0, 0, 0]	n/a	catFR1	4	R1328E
1947.073	1.15	1949111	WORD_OFF	n/a	n/a	BASKETBALL	Toys	5	17	[0, 0, 0]	n/a	catFR1	4	R1328E
1948.223	1.618	1950261	WORD	n/a	wordpools/wordpool_categorized_EN.txt	PUZZLE	Toys	6	17	[0, 0, 0]	n/a	catFR1	4	R1328E
1949.841	0.807	1951879	WORD_OFF	n/a	n/a	PUZZLE	Toys	6	17	[0, 0, 0]	n/a	catFR1	4	R1328E
1950.648	1.626	1952686	WORD	n/a	wordpools/wordpool_categorized_EN.txt	WHISK	KitchenTools	7	17	[0, 0, 0]	n/a	catFR1	4	R1328E
1952.274	0.912	1954312	WORD_OFF	n/a	n/a	WHISK	KitchenTools	7	17	[0, 0, 0]	n/a	catFR1	4	R1328E
1953.186	1.622	1955224	WORD	n/a	wordpools/wordpool_categorized_EN.txt	LADLE	KitchenTools	8	17	[0, 0, 0]	n/a	catFR1	4	R1328E
1954.808	0.876	1956846	WORD_OFF	n/a	n/a	LADLE	KitchenTools	8	17	[0, 0, 0]	n/a	catFR1	4	R1328E
1955.684	1.624	1957722	WORD	n/a	wordpools/wordpool_categorized_EN.txt	COUCH	Furniture	9	17	[0, 0, 0]	n/a	catFR1	4	R1328E
1957.308	0.827	1959346	WORD_OFF	n/a	n/a	COUCH	Furniture	9	17	[0, 0, 0]	n/a	catFR1	4	R1328E
1958.135	1.624	1960173	WORD	n/a	wordpools/wordpool_categorized_EN.txt	SOFA	Furniture	10	17	[0, 0, 0]	n/a	catFR1	4	R1328E
1959.759	0.854	1961797	WORD_OFF	n/a	n/a	SOFA	Furniture	10	17	[0, 0, 0]	n/a	catFR1	4	R1328E
1960.613	1.629	1962651	WORD	n/a	wordpools/wordpool_categorized_EN.txt	BARBIE	Toys	11	17	[0, 0, 0]	n/a	catFR1	4	R1328E
1962.242	0.822	1964279	WORD_OFF	n/a	n/a	BARBIE	Toys	11	17	[0, 0, 0]	n/a	catFR1	4	R1328E
1963.064	1.612	1965101	WORD	n/a	wordpools/wordpool_categorized_EN.txt	DOLL	Toys	12	17	[0, 0, 0]	n/a	catFR1	4	R1328E
1964.676	0.001	1966713	WORD_OFF	n/a	n/a	DOLL	Toys	12	17	[0, 0, 0]	n/a	catFR1	4	R1328E
1964.677	0.0	1966714	ENCODING_END	n/a	n/a	n/a	n/a	-999	17	[0, 0, 0]	n/a	catFR1	4	R1328E
1964.677	0.0	1966714	DISTRACT_START	n/a	n/a	n/a	n/a	-999	17	[0, 0, 0]	n/a	catFR1	4	R1328E
1964.677	0.016	1966714	START	n/a	n/a	n/a	n/a	-999	17	[-999, -999, -999]	n/a	catFR1	4	R1328E
1964.693	9.417	1966730	PROB	9.417	n/a	n/a	n/a	-999	17	[3, 3, 4]	10	catFR1	4	R1328E
1974.11	4.569	1976147	PROB	4.569	n/a	n/a	n/a	-999	17	[4, 5, 6]	15	catFR1	4	R1328E
1978.679	26.04	1980716	PROB	26.04	n/a	n/a	n/a	-999	17	[9, 1, 4]	14	catFR1	4	R1328E
2004.719	0.015	2006755	STOP	n/a	n/a	n/a	n/a	-999	17	[-999, -999, -999]	n/a	catFR1	4	R1328E
2004.734	0.58	2006770	DISTRACT_END	n/a	n/a	n/a	n/a	-999	17	[0, 0, 0]	n/a	catFR1	4	R1328E
2005.314	1.62	2007350	RETRIEVAL_ORIENT_START	n/a	n/a	n/a	n/a	-999	17	[0, 0, 0]	n/a	catFR1	4	R1328E
2006.934	0.0	2008970	REC_START	n/a	n/a	n/a	n/a	-999	17	[0, 0, 0]	n/a	catFR1	4	R1328E
2006.934	0.072	2008970	RETRIEVAL_ORIENT_END	n/a	n/a	n/a	n/a	-999	17	[0, 0, 0]	n/a	catFR1	4	R1328E
2007.006	1.309	2009042	REC_WORD	1.309	n/a	SOFA	Furniture	10	17	[0, 0, 0]	n/a	catFR1	4	R1328E
2008.315	1.826	2010351	REC_WORD	1.826	n/a	COUCH	Furniture	9	17	[0, 0, 0]	n/a	catFR1	4	R1328E
2010.141	1.516	2012177	REC_WORD	1.516	n/a	FORK	KitchenTools	-999	17	[0, 0, 0]	n/a	catFR1	4	R1328E
2011.657	25.29	2013693	REC_WORD	25.29	n/a	TONGS	KitchenTools	4	17	[0, 0, 0]	n/a	catFR1	4	R1328E
2036.947	0.0	2038982	REC_END	n/a	n/a	n/a	n/a	-999	17	[0, 0, 0]	n/a	catFR1	4	R1328E
2036.947	0.027	2038982	TRIAL_END	n/a	n/a	n/a	n/a	-999	17	[0, 0, 0]	n/a	catFR1	4	R1328E
2036.974	0.001	2039009	TRIAL_START	n/a	n/a	n/a	n/a	-999	18	[0, 0, 0]	n/a	catFR1	4	R1328E
2036.975	0.0	2039010	WAITING_START	n/a	n/a	n/a	n/a	-999	18	[0, 0, 0]	n/a	catFR1	4	R1328E
2036.975	1.347	2039010	TRIAL	n/a	n/a	n/a	n/a	-999	18	[0, 0, 0]	n/a	catFR1	4	R1328E
2038.322	0.0	2040357	WAITING_END	n/a	n/a	n/a	n/a	-999	18	[0, 0, 0]	n/a	catFR1	4	R1328E
2038.322	10.43	2040357	COUNTDOWN_START	n/a	n/a	n/a	n/a	-999	18	[0, 0, 0]	n/a	catFR1	4	R1328E
2048.752	0.0	2050786	COUNTDOWN_END	n/a	n/a	n/a	n/a	-999	18	[0, 0, 0]	n/a	catFR1	4	R1328E
2048.752	1.073	2050786	ORIENT_START	n/a	n/a	n/a	n/a	-999	18	[0, 0, 0]	n/a	catFR1	4	R1328E
2049.825	0.0	2051859	ORIENT_END	n/a	n/a	n/a	n/a	-999	18	[0, 0, 0]	n/a	catFR1	4	R1328E
2049.825	0.829	2051859	ENCODING_START	n/a	n/a	n/a	n/a	-999	18	[0, 0, 0]	n/a	catFR1	4	R1328E
2050.654	1.62	2052688	WORD	n/a	wordpools/wordpool_categorized_EN.txt	BED	Furniture	1	18	[0, 0, 0]	n/a	catFR1	4	R1328E
2052.274	1.118	2054308	WORD_OFF	n/a	n/a	BED	Furniture	1	18	[0, 0, 0]	n/a	catFR1	4	R1328E
2053.392	1.634	2055426	WORD	n/a	wordpools/wordpool_categorized_EN.txt	DESK	Furniture	2	18	[0, 0, 0]	n/a	catFR1	4	R1328E
2055.026	0.923	2057060	WORD_OFF	n/a	n/a	DESK	Furniture	2	18	[0, 0, 0]	n/a	catFR1	4	R1328E
2055.949	1.627	2057983	WORD	n/a	wordpools/wordpool_categorized_EN.txt	CRICKET	Insects	3	18	[0, 0, 0]	n/a	catFR1	4	R1328E
2057.576	0.909	2059610	WORD_OFF	n/a	n/a	CRICKET	Insects	3	18	[0, 0, 0]	n/a	catFR1	4	R1328E
2058.485	1.624	2060519	WORD	n/a	wordpools/wordpool_categorized_EN.txt	SPIDER	Insects	4	18	[0, 0, 0]	n/a	catFR1	4	R1328E
2060.109	0.87	2062143	WORD_OFF	n/a	n/a	SPIDER	Insects	4	18	[0, 0, 0]	n/a	catFR1	4	R1328E
2060.979	1.632	2063013	WORD	n/a	wordpools/wordpool_categorized_EN.txt	BASS	Instruments	5	18	[0, 0, 0]	n/a	catFR1	4	R1328E
2062.611	1.0	2064645	WORD_OFF	n/a	n/a	BASS	Instruments	5	18	[0, 0, 0]	n/a	catFR1	4	R1328E
2063.611	1.632	2065645	WORD	n/a	wordpools/wordpool_categorized_EN.txt	TRUMPET	Instruments	6	18	[0, 0, 0]	n/a	catFR1	4	R1328E
2065.243	1.1	2067277	WORD_OFF	n/a	n/a	TRUMPET	Instruments	6	18	[0, 0, 0]	n/a	catFR1	4	R1328E
2066.343	1.635	2068377	WORD	n/a	wordpools/wordpool_categorized_EN.txt	TABLE	Furniture	7	18	[0, 0, 0]	n/a	catFR1	4	R1328E
2067.978	0.936	2070012	WORD_OFF	n/a	n/a	TABLE	Furniture	7	18	[0, 0, 0]	n/a	catFR1	4	R1328E
2068.914	1.631	2070948	WORD	n/a	wordpools/wordpool_categorized_EN.txt	DRESSER	Furniture	8	18	[0, 0, 0]	n/a	catFR1	4	R1328E
2070.545	0.871	2072579	WORD_OFF	n/a	n/a	DRESSER	Furniture	8	18	[0, 0, 0]	n/a	catFR1	4	R1328E
2071.416	1.63	2073450	WORD	n/a	wordpools/wordpool_categorized_EN.txt	MOSQUITO	Insects	9	18	[0, 0, 0]	n/a	catFR1	4	R1328E
2073.046	0.872	2075079	WORD_OFF	n/a	n/a	MOSQUITO	Insects	9	18	[0, 0, 0]	n/a	catFR1	4	R1328E
2073.918	1.628	2075951	WORD	n/a	wordpools/wordpool_categorized_EN.txt	ANT	Insects	10	18	[0, 0, 0]	n/a	catFR1	4	R1328E
2075.546	0.987	2077579	WORD_OFF	n/a	n/a	ANT	Insects	10	18	[0, 0, 0]	n/a	catFR1	4	R1328E
2076.533	1.629	2078566	WORD	n/a	wordpools/wordpool_categorized_EN.txt	BANJO	Instruments	11	18	[0, 0, 0]	n/a	catFR1	4	R1328E
2078.162	0.811	2080195	WORD_OFF	n/a	n/a	BANJO	Instruments	11	18	[0, 0, 0]	n/a	catFR1	4	R1328E
2078.973	1.624	2081006	WORD	n/a	wordpools/wordpool_categorized_EN.txt	DRUM	Instruments	12	18	[0, 0, 0]	n/a	catFR1	4	R1328E
2080.597	0.001	2082630	WORD_OFF	n/a	n/a	DRUM	Instruments	12	18	[0, 0, 0]	n/a	catFR1	4	R1328E
2080.598	0.0	2082631	ENCODING_END	n/a	n/a	n/a	n/a	-999	18	[0, 0, 0]	n/a	catFR1	4	R1328E
2080.598	0.0	2082631	DISTRACT_START	n/a	n/a	n/a	n/a	-999	18	[0, 0, 0]	n/a	catFR1	4	R1328E
2080.598	0.016	2082631	START	n/a	n/a	n/a	n/a	-999	18	[-999, -999, -999]	n/a	catFR1	4	R1328E
2080.614	21.694	2082647	PROB	21.694	n/a	n/a	n/a	-999	18	[4, 3, 5]	12	catFR1	4	R1328E
2102.308	0.009	2104340	STOP	n/a	n/a	n/a	n/a	-999	18	[-999, -999, -999]	n/a	catFR1	4	R1328E
2102.317	0.544	2104349	DISTRACT_END	n/a	n/a	n/a	n/a	-999	18	[0, 0, 0]	n/a	catFR1	4	R1328E
2102.861	1.657	2104893	RETRIEVAL_ORIENT_START	n/a	n/a	n/a	n/a	-999	18	[0, 0, 0]	n/a	catFR1	4	R1328E
2104.518	0.0	2106550	RETRIEVAL_ORIENT_END	n/a	n/a	n/a	n/a	-999	18	[0, 0, 0]	n/a	catFR1	4	R1328E
2104.518	2.394	2106550	REC_START	n/a	n/a	n/a	n/a	-999	18	[0, 0, 0]	n/a	catFR1	4	R1328E
2106.912	1.053	2108944	REC_WORD	1.053	n/a	BASS	Instruments	5	18	[0, 0, 0]	n/a	catFR1	4	R1328E
2107.965	1.203	2109997	REC_WORD	1.203	n/a	TRUMPET	Instruments	6	18	[0, 0, 0]	n/a	catFR1	4	R1328E
2109.168	1.441	2111200	REC_WORD	1.441	n/a	BANJO	Instruments	11	18	[0, 0, 0]	n/a	catFR1	4	R1328E
2110.609	11.666	2112641	REC_WORD	11.666	n/a	DRUM	Instruments	12	18	[0, 0, 0]	n/a	catFR1	4	R1328E
2122.275	1.967	2124307	REC_WORD	1.967	n/a	MOSQUITO	Insects	9	18	[0, 0, 0]	n/a	catFR1	4	R1328E
2124.242	6.756	2126274	REC_WORD	6.756	n/a	SPIDER	Insects	4	18	[0, 0, 0]	n/a	catFR1	4	R1328E
2130.998	3.532	2133029	REC_WORD	3.532	n/a	CRICKET	Insects	3	18	[0, 0, 0]	n/a	catFR1	4	R1328E
2134.53	0.0	2136561	REC_END	n/a	n/a	n/a	n/a	-999	18	[0, 0, 0]	n/a	catFR1	4	R1328E
2134.53	0.028	2136561	TRIAL_END	n/a	n/a	n/a	n/a	-999	18	[0, 0, 0]	n/a	catFR1	4	R1328E
2134.558	0.0	2136589	TRIAL	n/a	n/a	n/a	n/a	-999	19	[0, 0, 0]	n/a	catFR1	4	R1328E
2134.558	0.0	2136589	WAITING_START	n/a	n/a	n/a	n/a	-999	19	[0, 0, 0]	n/a	catFR1	4	R1328E
2134.558	2.949	2136589	TRIAL_START	n/a	n/a	n/a	n/a	-999	19	[0, 0, 0]	n/a	catFR1	4	R1328E
2137.507	0.001	2139538	WAITING_END	n/a	n/a	n/a	n/a	-999	19	[0, 0, 0]	n/a	catFR1	4	R1328E
2137.508	10.429	2139539	COUNTDOWN_START	n/a	n/a	n/a	n/a	-999	19	[0, 0, 0]	n/a	catFR1	4	R1328E
2147.937	0.001	2149968	COUNTDOWN_END	n/a	n/a	n/a	n/a	-999	19	[0, 0, 0]	n/a	catFR1	4	R1328E
2147.938	1.054	2149969	ORIENT_START	n/a	n/a	n/a	n/a	-999	19	[0, 0, 0]	n/a	catFR1	4	R1328E
2148.992	0.001	2151023	ORIENT_END	n/a	n/a	n/a	n/a	-999	19	[0, 0, 0]	n/a	catFR1	4	R1328E
2148.993	1.105	2151024	ENCODING_START	n/a	n/a	n/a	n/a	-999	19	[0, 0, 0]	n/a	catFR1	4	R1328E
2150.098	1.628	2152129	WORD	n/a	wordpools/wordpool_categorized_EN.txt	CARDINAL	Birds	1	19	[0, 0, 0]	n/a	catFR1	4	R1328E
2151.726	1.002	2153757	WORD_OFF	n/a	n/a	CARDINAL	Birds	1	19	[0, 0, 0]	n/a	catFR1	4	R1328E
2152.728	1.632	2154759	WORD	n/a	wordpools/wordpool_categorized_EN.txt	ROBIN	Birds	2	19	[0, 0, 0]	n/a	catFR1	4	R1328E
2154.36	0.942	2156391	WORD_OFF	n/a	n/a	ROBIN	Birds	2	19	[0, 0, 0]	n/a	catFR1	4	R1328E
2155.302	1.625	2157333	WORD	n/a	wordpools/wordpool_categorized_EN.txt	KNEE	BodyParts	3	19	[0, 0, 0]	n/a	catFR1	4	R1328E
2156.927	0.97	2158957	WORD_OFF	n/a	n/a	KNEE	BodyParts	3	19	[0, 0, 0]	n/a	catFR1	4	R1328E
2157.897	1.631	2159927	WORD	n/a	wordpools/wordpool_categorized_EN.txt	LEG	BodyParts	4	19	[0, 0, 0]	n/a	catFR1	4	R1328E
2159.528	0.963	2161558	WORD_OFF	n/a	n/a	LEG	BodyParts	4	19	[0, 0, 0]	n/a	catFR1	4	R1328E
2160.491	1.636	2162521	WORD	n/a	wordpools/wordpool_categorized_EN.txt	DRILL	Tools	5	19	[0, 0, 0]	n/a	catFR1	4	R1328E
2162.127	0.761	2164157	WORD_OFF	n/a	n/a	DRILL	Tools	5	19	[0, 0, 0]	n/a	catFR1	4	R1328E
2162.888	1.624	2164918	WORD	n/a	wordpools/wordpool_categorized_EN.txt	LEVEL	Tools	6	19	[0, 0, 0]	n/a	catFR1	4	R1328E
2164.512	1.097	2166542	WORD_OFF	n/a	n/a	LEVEL	Tools	6	19	[0, 0, 0]	n/a	catFR1	4	R1328E
2165.609	1.636	2167639	WORD	n/a	wordpools/wordpool_categorized_EN.txt	HAWK	Birds	7	19	[0, 0, 0]	n/a	catFR1	4	R1328E
2167.245	1.146	2169275	WORD_OFF	n/a	n/a	HAWK	Birds	7	19	[0, 0, 0]	n/a	catFR1	4	R1328E
2168.391	1.622	2170421	WORD	n/a	wordpools/wordpool_categorized_EN.txt	FINCH	Birds	8	19	[0, 0, 0]	n/a	catFR1	4	R1328E
2170.013	0.933	2172043	WORD_OFF	n/a	n/a	FINCH	Birds	8	19	[0, 0, 0]	n/a	catFR1	4	R1328E
2170.946	1.634	2172976	WORD	n/a	wordpools/wordpool_categorized_EN.txt	FOOT	BodyParts	9	19	[0, 0, 0]	n/a	catFR1	4	R1328E
2172.58	0.879	2174610	WORD_OFF	n/a	n/a	FOOT	BodyParts	9	19	[0, 0, 0]	n/a	catFR1	4	R1328E
2173.459	1.62	2175489	WORD	n/a	wordpools/wordpool_categorized_EN.txt	EYE	BodyParts	10	19	[0, 0, 0]	n/a	catFR1	4	R1328E
2175.079	0.963	2177109	WORD_OFF	n/a	n/a	EYE	BodyParts	10	19	[0, 0, 0]	n/a	catFR1	4	R1328E
2176.042	1.622	2178072	WORD	n/a	wordpools/wordpool_categorized_EN.txt	WRENCH	Tools	11	19	[0, 0, 0]	n/a	catFR1	4	R1328E
2177.664	0.838	2179694	WORD_OFF	n/a	n/a	WRENCH	Tools	11	19	[0, 0, 0]	n/a	catFR1	4	R1328E
2178.502	1.628	2180532	WORD	n/a	wordpools/wordpool_categorized_EN.txt	HAMMER	Tools	12	19	[0, 0, 0]	n/a	catFR1	4	R1328E
2180.13	0.0	2182160	WORD_OFF	n/a	n/a	HAMMER	Tools	12	19	[0, 0, 0]	n/a	catFR1	4	R1328E
2180.13	0.001	2182160	ENCODING_END	n/a	n/a	n/a	n/a	-999	19	[0, 0, 0]	n/a	catFR1	4	R1328E
2180.131	0.0	2182161	DISTRACT_START	n/a	n/a	n/a	n/a	-999	19	[0, 0, 0]	n/a	catFR1	4	R1328E
2180.131	0.016	2182161	START	n/a	n/a	n/a	n/a	-999	19	[-999, -999, -999]	n/a	catFR1	4	R1328E
2180.147	26.262	2182177	PROB	26.262	n/a	n/a	n/a	-999	19	[5, 7, 6]	18	catFR1	4	R1328E
2206.409	0.01	2208438	STOP	n/a	n/a	n/a	n/a	-999	19	[-999, -999, -999]	n/a	catFR1	4	R1328E
2206.419	0.565	2208448	DISTRACT_END	n/a	n/a	n/a	n/a	-999	19	[0, 0, 0]	n/a	catFR1	4	R1328E
2206.984	1.619	2209013	RETRIEVAL_ORIENT_START	n/a	n/a	n/a	n/a	-999	19	[0, 0, 0]	n/a	catFR1	4	R1328E
2208.603	0.0	2210632	RETRIEVAL_ORIENT_END	n/a	n/a	n/a	n/a	-999	19	[0, 0, 0]	n/a	catFR1	4	R1328E
2208.603	2.102	2210632	REC_START	n/a	n/a	n/a	n/a	-999	19	[0, 0, 0]	n/a	catFR1	4	R1328E
2210.705	1.249	2212734	REC_WORD	1.249	n/a	ROBIN	Birds	2	19	[0, 0, 0]	n/a	catFR1	4	R1328E
2211.954	2.919	2213982	REC_WORD	2.919	n/a	CARDINAL	Birds	1	19	[0, 0, 0]	n/a	catFR1	4	R1328E
2214.873	1.197	2216901	REC_WORD	1.197	n/a	KNEE	BodyParts	3	19	[0, 0, 0]	n/a	catFR1	4	R1328E
2216.07	7.329	2218098	REC_WORD	7.329	n/a	LEG	BodyParts	4	19	[0, 0, 0]	n/a	catFR1	4	R1328E
2223.399	0.816	2225427	REC_WORD	0.816	n/a	HAMMER	Tools	12	19	[0, 0, 0]	n/a	catFR1	4	R1328E
2224.215	14.404	2226243	REC_WORD	14.404	n/a	LEVEL	Tools	6	19	[0, 0, 0]	n/a	catFR1	4	R1328E
2238.619	0.0	2240647	REC_END	n/a	n/a	n/a	n/a	-999	19	[0, 0, 0]	n/a	catFR1	4	R1328E
2238.619	0.027	2240647	TRIAL_END	n/a	n/a	n/a	n/a	-999	19	[0, 0, 0]	n/a	catFR1	4	R1328E
2238.646	0.0	2240674	TRIAL_START	n/a	n/a	n/a	n/a	-999	20	[0, 0, 0]	n/a	catFR1	4	R1328E
2238.646	0.001	2240674	TRIAL	n/a	n/a	n/a	n/a	-999	20	[0, 0, 0]	n/a	catFR1	4	R1328E
2238.647	2.278	2240675	WAITING_START	n/a	n/a	n/a	n/a	-999	20	[0, 0, 0]	n/a	catFR1	4	R1328E
2240.925	0.001	2242952	WAITING_END	n/a	n/a	n/a	n/a	-999	20	[0, 0, 0]	n/a	catFR1	4	R1328E
2240.926	10.429	2242953	COUNTDOWN_START	n/a	n/a	n/a	n/a	-999	20	[0, 0, 0]	n/a	catFR1	4	R1328E
2251.355	0.0	2253382	COUNTDOWN_END	n/a	n/a	n/a	n/a	-999	20	[0, 0, 0]	n/a	catFR1	4	R1328E
