onset	duration	sample	trial_type	response_time	stim_file	item_name	category	serialpos	list	test	answer	experiment	session	subject
0.0	6.394	32903	INSTRUCT_START	n/a	n/a	n/a	n/a	-999	-999	[0, 0, 0]	n/a	catFR1	1	R1401J
6.394	34.021	39298	INSTRUCT_END	n/a	n/a	n/a	n/a	-999	-999	[0, 0, 0]	n/a	catFR1	1	R1401J
40.415	10.367	73316	COUNTDOWN_START	n/a	n/a	n/a	n/a	-999	-999	[0, 0, 0]	n/a	catFR1	1	R1401J
50.782	0.0	83678	COUNTDOWN_END	n/a	n/a	n/a	n/a	-999	-999	[0, 0, 0]	n/a	catFR1	1	R1401J
50.782	1.884	83678	ENCODING_START	n/a	n/a	n/a	n/a	-999	-1	[0, 0, 0]	n/a	catFR1	1	R1401J
52.666	1.615	85571	WORD	n/a	n/a	MOPED	Vehicles	1	-1	[0, 0, 0]	n/a	catFR1	1	R1401J
54.281	0.85	87173	WORD_OFF	n/a	n/a	MOPED	Vehicles	1	-1	[0, 0, 0]	n/a	catFR1	1	R1401J
55.131	1.6	88028	WORD	n/a	n/a	BIKE	Vehicles	2	-1	[0, 0, 0]	n/a	catFR1	1	R1401J
56.731	0.883	89630	WORD_OFF	n/a	n/a	BIKE	Vehicles	2	-1	[0, 0, 0]	n/a	catFR1	1	R1401J
57.614	1.601	90516	WORD	n/a	n/a	VALLEY	Landscapes	3	-1	[0, 0, 0]	n/a	catFR1	1	R1401J
59.215	0.849	92118	WORD_OFF	n/a	n/a	VALLEY	Landscapes	3	-1	[0, 0, 0]	n/a	catFR1	1	R1401J
60.064	1.601	92957	WORD	n/a	n/a	BEACH	Landscapes	4	-1	[0, 0, 0]	n/a	catFR1	1	R1401J
61.665	0.933	94560	WORD_OFF	n/a	n/a	BEACH	Landscapes	4	-1	[0, 0, 0]	n/a	catFR1	1	R1401J
62.598	1.616	95491	WORD	n/a	n/a	LILY	Flowers	5	-1	[0, 0, 0]	n/a	catFR1	1	R1401J
64.214	0.984	97109	WORD_OFF	n/a	n/a	LILY	Flowers	5	-1	[0, 0, 0]	n/a	catFR1	1	R1401J
65.198	1.6	98101	WORD	n/a	n/a	TULIP	Flowers	6	-1	[0, 0, 0]	n/a	catFR1	1	R1401J
66.798	0.85	99703	WORD_OFF	n/a	n/a	TULIP	Flowers	6	-1	[0, 0, 0]	n/a	catFR1	1	R1401J
67.648	1.617	100542	WORD	n/a	n/a	FOREST	Landscapes	7	-1	[0, 0, 0]	n/a	catFR1	1	R1401J
69.265	0.8	102160	WORD_OFF	n/a	n/a	FOREST	Landscapes	7	-1	[0, 0, 0]	n/a	catFR1	1	R1401J
70.065	1.6	102969	WORD	n/a	n/a	ISLAND	Landscapes	8	-1	[0, 0, 0]	n/a	catFR1	1	R1401J
71.665	0.966	104572	WORD_OFF	n/a	n/a	ISLAND	Landscapes	8	-1	[0, 0, 0]	n/a	catFR1	1	R1401J
72.631	1.6	105533	WORD	n/a	n/a	PLANE	Vehicles	9	-1	[0, 0, 0]	n/a	catFR1	1	R1401J
74.231	0.866	107135	WORD_OFF	n/a	n/a	PLANE	Vehicles	9	-1	[0, 0, 0]	n/a	catFR1	1	R1401J
75.097	1.601	107990	WORD	n/a	n/a	SCOOTER	Vehicles	10	-1	[0, 0, 0]	n/a	catFR1	1	R1401J
76.698	0.766	109593	WORD_OFF	n/a	n/a	SCOOTER	Vehicles	10	-1	[0, 0, 0]	n/a	catFR1	1	R1401J
77.464	1.617	110356	WORD	n/a	n/a	DAFFODIL	Flowers	11	-1	[0, 0, 0]	n/a	catFR1	1	R1401J
79.081	0.984	111973	WORD_OFF	n/a	n/a	DAFFODIL	Flowers	11	-1	[0, 0, 0]	n/a	catFR1	1	R1401J
80.065	1.618	112965	WORD	n/a	n/a	CARNATION	Flowers	12	-1	[0, 0, 0]	n/a	catFR1	1	R1401J
81.683	0.0	114580	START	n/a	n/a	n/a	n/a	-999	-1	[-999, -999, -999]	n/a	catFR1	1	R1401J
81.683	0.0	114580	PROB	5.883	n/a	n/a	n/a	-999	-1	[1, 1, 4]	6.0	catFR1	1	R1401J
81.681	0.002	114583	WORD_OFF	n/a	n/a	CARNATION	Flowers	12	-1	[0, 0, 0]	n/a	catFR1	1	R1401J
81.683	0.0	114583	ENCODING_END	n/a	n/a	n/a	n/a	-999	-1	[0, 0, 0]	n/a	catFR1	1	R1401J
81.683	5.899	114583	DISTRACT_START	n/a	n/a	n/a	n/a	-999	-1	[0, 0, 0]	n/a	catFR1	1	R1401J
87.582	7.717	120478	PROB	7.699	n/a	n/a	n/a	-999	-1	[4, 2, 3]	9.0	catFR1	1	R1401J
95.299	9.032	128195	PROB	9.016	n/a	n/a	n/a	-999	-1	[4, 8, 4]	16.0	catFR1	1	R1401J
104.331	0.0	137227	STOP	n/a	n/a	n/a	n/a	-999	-1	[-999, -999, -999]	n/a	catFR1	1	R1401J
104.331	2.15	137231	DISTRACT_END	n/a	n/a	n/a	n/a	-999	-1	[0, 0, 0]	n/a	catFR1	1	R1401J
106.481	1.15	139376	REC_START	n/a	n/a	n/a	n/a	-999	-1	[0, 0, 0]	n/a	catFR1	1	R1401J
107.631	0.877	140527	REC_WORD	1.15	n/a	DAFFODIL	Flowers	11	-1	[0, 0, 0]	n/a	catFR1	1	R1401J
108.508	0.696	141403	REC_WORD	2.027	n/a	TULIP	Flowers	6	-1	[0, 0, 0]	n/a	catFR1	1	R1401J
109.204	0.632	142099	REC_WORD	2.723	n/a	LILY	Flowers	5	-1	[0, 0, 0]	n/a	catFR1	1	R1401J
109.836	0.648	142731	REC_WORD	3.355	n/a	VALLEY	Landscapes	3	-1	[0, 0, 0]	n/a	catFR1	1	R1401J
110.484	2.711	143379	REC_WORD	4.003	n/a	FOREST	Landscapes	7	-1	[0, 0, 0]	n/a	catFR1	1	R1401J
113.195	0.975	146090	REC_WORD_VV	6.714	n/a	<>	n/a	-999	-1	[0, 0, 0]	n/a	catFR1	1	R1401J
114.17	1.035	147065	REC_WORD_VV	7.689	n/a	<>	n/a	-999	-1	[0, 0, 0]	n/a	catFR1	1	R1401J
115.205	8.38	148100	REC_WORD	8.724	n/a	SCOOTER	Vehicles	10	-1	[0, 0, 0]	n/a	catFR1	1	R1401J
123.585	3.365	156480	REC_WORD_VV	17.104	n/a	<>	n/a	-999	-1	[0, 0, 0]	n/a	catFR1	1	R1401J
126.95	9.736	159845	REC_WORD_VV	20.469	n/a	<>	n/a	-999	-1	[0, 0, 0]	n/a	catFR1	1	R1401J
136.686	27.245	169586	REC_END	n/a	n/a	n/a	n/a	-999	-1	[0, 0, 0]	n/a	catFR1	1	R1401J
163.931	10.368	196827	COUNTDOWN_START	n/a	n/a	n/a	n/a	-999	1	[0, 0, 0]	n/a	catFR1	1	R1401J
174.299	0.0	207190	COUNTDOWN_END	n/a	n/a	n/a	n/a	-999	1	[0, 0, 0]	n/a	catFR1	1	R1401J
174.299	2.083	207190	ENCODING_START	n/a	n/a	n/a	n/a	-999	1	[0, 0, 0]	n/a	catFR1	1	R1401J
176.382	1.617	209281	WORD	n/a	wordpools/wordpool_categorized_EN.txt	CELERY	Vegetables	1	1	[0, 0, 0]	n/a	catFR1	1	R1401J
177.999	1.0	210899	WORD_OFF	n/a	n/a	CELERY	Vegetables	1	1	[0, 0, 0]	n/a	catFR1	1	R1401J
178.999	1.616	211891	WORD	n/a	wordpools/wordpool_categorized_EN.txt	POTATO	Vegetables	2	1	[0, 0, 0]	n/a	catFR1	1	R1401J
180.615	0.984	213508	WORD_OFF	n/a	n/a	POTATO	Vegetables	2	1	[0, 0, 0]	n/a	catFR1	1	R1401J
181.599	1.616	214485	WORD	n/a	wordpools/wordpool_categorized_EN.txt	SPEAKER	Electronics	3	1	[0, 0, 0]	n/a	catFR1	1	R1401J
183.215	0.883	216103	WORD_OFF	n/a	n/a	SPEAKER	Electronics	3	1	[0, 0, 0]	n/a	catFR1	1	R1401J
184.098	1.6	216988	WORD	n/a	wordpools/wordpool_categorized_EN.txt	SCANNER	Electronics	4	1	[0, 0, 0]	n/a	catFR1	1	R1401J
185.698	1.0	218590	WORD_OFF	n/a	n/a	SCANNER	Electronics	4	1	[0, 0, 0]	n/a	catFR1	1	R1401J
186.698	1.6	219598	WORD	n/a	wordpools/wordpool_categorized_EN.txt	DOVE	Birds	5	1	[0, 0, 0]	n/a	catFR1	1	R1401J
188.298	0.884	221185	WORD_OFF	n/a	n/a	DOVE	Birds	5	1	[0, 0, 0]	n/a	catFR1	1	R1401J
189.182	1.616	222070	WORD	n/a	wordpools/wordpool_categorized_EN.txt	SPARROW	Birds	6	1	[0, 0, 0]	n/a	catFR1	1	R1401J
190.798	0.95	223688	WORD_OFF	n/a	n/a	SPARROW	Birds	6	1	[0, 0, 0]	n/a	catFR1	1	R1401J
191.748	1.601	224634	WORD	n/a	wordpools/wordpool_categorized_EN.txt	TELEVISION	Electronics	7	1	[0, 0, 0]	n/a	catFR1	1	R1401J
193.349	0.799	226236	WORD_OFF	n/a	n/a	TELEVISION	Electronics	7	1	[0, 0, 0]	n/a	catFR1	1	R1401J
194.148	1.601	227045	WORD	n/a	wordpools/wordpool_categorized_EN.txt	COMPUTER	Electronics	8	1	[0, 0, 0]	n/a	catFR1	1	R1401J
195.749	0.833	228648	WORD_OFF	n/a	n/a	COMPUTER	Electronics	8	1	[0, 0, 0]	n/a	catFR1	1	R1401J
196.582	1.617	229472	WORD	n/a	wordpools/wordpool_categorized_EN.txt	CARDINAL	Birds	9	1	[0, 0, 0]	n/a	catFR1	1	R1401J
198.199	0.9	231090	WORD_OFF	n/a	n/a	CARDINAL	Birds	9	1	[0, 0, 0]	n/a	catFR1	1	R1401J
199.099	1.616	231990	WORD	n/a	wordpools/wordpool_categorized_EN.txt	SEAGULL	Birds	10	1	[0, 0, 0]	n/a	catFR1	1	R1401J
200.715	0.8	233608	WORD_OFF	n/a	n/a	SEAGULL	Birds	10	1	[0, 0, 0]	n/a	catFR1	1	R1401J
201.515	1.617	234401	WORD	n/a	wordpools/wordpool_categorized_EN.txt	PEAS	Vegetables	11	1	[0, 0, 0]	n/a	catFR1	1	R1401J
203.132	0.833	236019	WORD_OFF	n/a	n/a	PEAS	Vegetables	11	1	[0, 0, 0]	n/a	catFR1	1	R1401J
203.965	1.617	236858	WORD	n/a	wordpools/wordpool_categorized_EN.txt	BROCCOLI	Vegetables	12	1	[0, 0, 0]	n/a	catFR1	1	R1401J
205.582	0.001	238473	PROB	8.633	n/a	n/a	n/a	-999	1	[8, 2, 4]	18.0	catFR1	1	R1401J
205.583	0.0	238474	START	n/a	n/a	n/a	n/a	-999	1	[-999, -999, -999]	n/a	catFR1	1	R1401J
205.582	0.001	238476	WORD_OFF	n/a	n/a	BROCCOLI	Vegetables	12	1	[0, 0, 0]	n/a	catFR1	1	R1401J
205.583	0.0	238476	ENCODING_END	n/a	n/a	n/a	n/a	-999	1	[0, 0, 0]	n/a	catFR1	1	R1401J
205.583	8.649	238476	DISTRACT_START	n/a	n/a	n/a	n/a	-999	1	[0, 0, 0]	n/a	catFR1	1	R1401J
214.232	9.116	247123	PROB	9.1	n/a	n/a	n/a	-999	1	[1, 6, 5]	12.0	catFR1	1	R1401J
223.348	9.333	256239	PROB	9.317	n/a	n/a	n/a	-999	1	[2, 1, 5]	8.0	catFR1	1	R1401J
232.681	0.0	265565	DISTRACT_END	n/a	n/a	n/a	n/a	-999	1	[0, 0, 0]	n/a	catFR1	1	R1401J
232.681	2.15	265571	STOP	n/a	n/a	n/a	n/a	-999	1	[-999, -999, -999]	n/a	catFR1	1	R1401J
234.831	0.405	267725	REC_START	n/a	n/a	n/a	n/a	-999	1	[0, 0, 0]	n/a	catFR1	1	R1401J
235.236	0.875	268126	REC_WORD	0.405	n/a	CELERY	Vegetables	1	1	[0, 0, 0]	n/a	catFR1	1	R1401J
236.111	4.11	269001	REC_WORD	1.28	n/a	POTATO	Vegetables	2	1	[0, 0, 0]	n/a	catFR1	1	R1401J
240.221	0.61	273111	REC_WORD	5.39	n/a	CELERY	Vegetables	1	1	[0, 0, 0]	n/a	catFR1	1	R1401J
240.831	3.46	273721	REC_WORD	6.0	n/a	POTATO	Vegetables	2	1	[0, 0, 0]	n/a	catFR1	1	R1401J
244.291	2.325	277181	REC_WORD_VV	9.46	n/a	<>	n/a	-999	1	[0, 0, 0]	n/a	catFR1	1	R1401J
246.616	0.752	279506	REC_WORD	11.785	n/a	TELEVISION	Electronics	7	1	[0, 0, 0]	n/a	catFR1	1	R1401J
247.368	5.09	280258	REC_WORD	12.537	n/a	COMPUTER	Electronics	8	1	[0, 0, 0]	n/a	catFR1	1	R1401J
252.458	0.594	285348	REC_WORD	17.627	n/a	TELEVISION	Electronics	7	1	[0, 0, 0]	n/a	catFR1	1	R1401J
253.052	0.569	285942	REC_WORD	18.221	n/a	COMPUTER	Electronics	8	1	[0, 0, 0]	n/a	catFR1	1	R1401J
253.621	2.275	286511	REC_WORD	18.79	n/a	SPARROW	Birds	6	1	[0, 0, 0]	n/a	catFR1	1	R1401J
255.896	2.45	288785	REC_WORD_VV	21.065	n/a	<>	n/a	-999	1	[0, 0, 0]	n/a	catFR1	1	R1401J
258.346	2.817	291235	REC_WORD	23.515	n/a	CARDINAL	Birds	9	1	[0, 0, 0]	n/a	catFR1	1	R1401J
261.163	3.877	294052	REC_WORD	26.332	n/a	SEAGULL	Birds	10	1	[0, 0, 0]	n/a	catFR1	1	R1401J
265.04	3.425	297935	REC_END	n/a	n/a	n/a	n/a	-999	1	[0, 0, 0]	n/a	catFR1	1	R1401J
268.465	10.361	301354	COUNTDOWN_START	n/a	n/a	n/a	n/a	-999	2	[0, 0, 0]	n/a	catFR1	1	R1401J
278.826	0.0	311716	COUNTDOWN_END	n/a	n/a	n/a	n/a	-999	2	[0, 0, 0]	n/a	catFR1	1	R1401J
278.826	2.256	311716	ENCODING_START	n/a	n/a	n/a	n/a	-999	2	[0, 0, 0]	n/a	catFR1	1	R1401J
281.082	1.6	313975	WORD	n/a	wordpools/wordpool_categorized_EN.txt	PENCIL	OfficeSupplies	1	2	[0, 0, 0]	n/a	catFR1	1	R1401J
282.682	0.833	315577	WORD_OFF	n/a	n/a	PENCIL	OfficeSupplies	1	2	[0, 0, 0]	n/a	catFR1	1	R1401J
283.515	1.617	316401	WORD	n/a	wordpools/wordpool_categorized_EN.txt	PEN	OfficeSupplies	2	2	[0, 0, 0]	n/a	catFR1	1	R1401J
285.132	0.867	318019	WORD_OFF	n/a	n/a	PEN	OfficeSupplies	2	2	[0, 0, 0]	n/a	catFR1	1	R1401J
285.999	1.6	318889	WORD	n/a	wordpools/wordpool_categorized_EN.txt	STOVE	Appliances	3	2	[0, 0, 0]	n/a	catFR1	1	R1401J
287.599	0.766	320492	WORD_OFF	n/a	n/a	STOVE	Appliances	3	2	[0, 0, 0]	n/a	catFR1	1	R1401J
288.365	1.617	321255	WORD	n/a	wordpools/wordpool_categorized_EN.txt	DISHWASHER	Appliances	4	2	[0, 0, 0]	n/a	catFR1	1	R1401J
289.982	0.916	322872	WORD_OFF	n/a	n/a	DISHWASHER	Appliances	4	2	[0, 0, 0]	n/a	catFR1	1	R1401J
290.898	1.6	323788	WORD	n/a	wordpools/wordpool_categorized_EN.txt	DOOR	Building	5	2	[0, 0, 0]	n/a	catFR1	1	R1401J
292.498	1.0	325390	WORD_OFF	n/a	n/a	DOOR	Building	5	2	[0, 0, 0]	n/a	catFR1	1	R1401J
293.498	1.601	326382	WORD	n/a	wordpools/wordpool_categorized_EN.txt	ATTIC	Building	6	2	[0, 0, 0]	n/a	catFR1	1	R1401J
295.099	0.849	327985	WORD_OFF	n/a	n/a	ATTIC	Building	6	2	[0, 0, 0]	n/a	catFR1	1	R1401J
295.948	1.601	328840	WORD	n/a	wordpools/wordpool_categorized_EN.txt	TAPE	OfficeSupplies	7	2	[0, 0, 0]	n/a	catFR1	1	R1401J
297.549	0.849	330442	WORD_OFF	n/a	n/a	TAPE	OfficeSupplies	7	2	[0, 0, 0]	n/a	catFR1	1	R1401J
298.398	1.617	331281	WORD	n/a	wordpools/wordpool_categorized_EN.txt	BINDER	OfficeSupplies	8	2	[0, 0, 0]	n/a	catFR1	1	R1401J
300.015	0.967	332899	WORD_OFF	n/a	n/a	BINDER	OfficeSupplies	8	2	[0, 0, 0]	n/a	catFR1	1	R1401J
300.982	1.6	333876	WORD	n/a	wordpools/wordpool_categorized_EN.txt	MIXER	Appliances	9	2	[0, 0, 0]	n/a	catFR1	1	R1401J
302.582	0.816	335463	WORD_OFF	n/a	n/a	MIXER	Appliances	9	2	[0, 0, 0]	n/a	catFR1	1	R1401J
303.398	1.601	336287	WORD	n/a	wordpools/wordpool_categorized_EN.txt	BLENDER	Appliances	10	2	[0, 0, 0]	n/a	catFR1	1	R1401J
304.999	0.983	337890	WORD_OFF	n/a	n/a	BLENDER	Appliances	10	2	[0, 0, 0]	n/a	catFR1	1	R1401J
305.982	1.616	338866	WORD	n/a	wordpools/wordpool_categorized_EN.txt	STAIRS	Building	11	2	[0, 0, 0]	n/a	catFR1	1	R1401J
307.598	0.984	340484	WORD_OFF	n/a	n/a	STAIRS	Building	11	2	[0, 0, 0]	n/a	catFR1	1	R1401J
308.582	1.617	341476	WORD	n/a	wordpools/wordpool_categorized_EN.txt	WINDOW	Building	12	2	[0, 0, 0]	n/a	catFR1	1	R1401J
310.199	0.001	343086	PROB	15.083	n/a	n/a	n/a	-999	2	[2, 8, 6]	16.0	catFR1	1	R1401J
310.2	0.0	343087	START	n/a	n/a	n/a	n/a	-999	2	[-999, -999, -999]	n/a	catFR1	1	R1401J
310.198	0.002	343094	WORD_OFF	n/a	n/a	WINDOW	Building	12	2	[0, 0, 0]	n/a	catFR1	1	R1401J
310.2	0.0	343094	ENCODING_END	n/a	n/a	n/a	n/a	-999	2	[0, 0, 0]	n/a	catFR1	1	R1401J
310.2	15.099	343094	DISTRACT_START	n/a	n/a	n/a	n/a	-999	2	[0, 0, 0]	n/a	catFR1	1	R1401J
325.299	13.716	358186	PROB	13.699	n/a	n/a	n/a	-999	2	[7, 8, 4]	19.0	catFR1	1	R1401J
339.015	0.0	371901	STOP	n/a	n/a	n/a	n/a	-999	2	[-999, -999, -999]	n/a	catFR1	1	R1401J
339.015	2.066	371908	DISTRACT_END	n/a	n/a	n/a	n/a	-999	2	[0, 0, 0]	n/a	catFR1	1	R1401J
341.081	2.264	373961	REC_START	n/a	n/a	n/a	n/a	-999	2	[0, 0, 0]	n/a	catFR1	1	R1401J
343.345	1.966	376231	REC_WORD	2.264	n/a	STAIRS	Building	11	2	[0, 0, 0]	n/a	catFR1	1	R1401J
345.311	0.701	378197	REC_WORD	4.23	n/a	BLENDER	Appliances	10	2	[0, 0, 0]	n/a	catFR1	1	R1401J
346.012	5.215	378898	REC_WORD	4.931	n/a	KITCHEN	n/a	-999	2	[0, 0, 0]	n/a	catFR1	1	R1401J
351.227	3.92	384113	REC_WORD_VV	10.146	n/a	<>	n/a	-999	2	[0, 0, 0]	n/a	catFR1	1	R1401J
355.147	0.512	388032	REC_WORD	14.066	n/a	STAIRS	Building	11	2	[0, 0, 0]	n/a	catFR1	1	R1401J
355.659	1.131	388544	REC_WORD	14.578	n/a	BINDER	OfficeSupplies	8	2	[0, 0, 0]	n/a	catFR1	1	R1401J
356.79	2.027	389675	REC_WORD	15.709	n/a	KITCHEN	n/a	-999	2	[0, 0, 0]	n/a	catFR1	1	R1401J
358.817	0.815	391702	REC_WORD_VV	17.736	n/a	<>	n/a	-999	2	[0, 0, 0]	n/a	catFR1	1	R1401J
359.632	0.62	392517	REC_WORD	18.551	n/a	TABLE	n/a	-999	2	[0, 0, 0]	n/a	catFR1	1	R1401J
360.252	3.535	393137	REC_WORD	19.171	n/a	DOOR	Building	5	2	[0, 0, 0]	n/a	catFR1	1	R1401J
363.787	1.0	396672	REC_WORD_VV	22.706	n/a	<>	n/a	-999	2	[0, 0, 0]	n/a	catFR1	1	R1401J
364.787	6.518	397672	REC_WORD_VV	23.706	n/a	<>	n/a	-999	2	[0, 0, 0]	n/a	catFR1	1	R1401J
371.305	4.194	404186	REC_END	n/a	n/a	n/a	n/a	-999	2	[0, 0, 0]	n/a	catFR1	1	R1401J
375.499	10.36	408383	COUNTDOWN_START	n/a	n/a	n/a	n/a	-999	3	[0, 0, 0]	n/a	catFR1	1	R1401J
385.859	0.0	418745	COUNTDOWN_END	n/a	n/a	n/a	n/a	-999	3	[0, 0, 0]	n/a	catFR1	1	R1401J
385.859	2.273	418745	ENCODING_START	n/a	n/a	n/a	n/a	-999	3	[0, 0, 0]	n/a	catFR1	1	R1401J
388.132	1.6	421019	WORD	n/a	wordpools/wordpool_categorized_EN.txt	RADIO	Electronics	1	3	[0, 0, 0]	n/a	catFR1	1	R1401J
389.732	0.783	422622	WORD_OFF	n/a	n/a	RADIO	Electronics	1	3	[0, 0, 0]	n/a	catFR1	1	R1401J
390.515	1.617	423400	WORD	n/a	wordpools/wordpool_categorized_EN.txt	STEREO	Electronics	2	3	[0, 0, 0]	n/a	catFR1	1	R1401J
392.132	0.9	425018	WORD_OFF	n/a	n/a	STEREO	Electronics	2	3	[0, 0, 0]	n/a	catFR1	1	R1401J
393.032	1.617	425918	WORD	n/a	wordpools/wordpool_categorized_EN.txt	OCEAN	Landscapes	3	3	[0, 0, 0]	n/a	catFR1	1	R1401J
394.649	0.966	427536	WORD_OFF	n/a	n/a	OCEAN	Landscapes	3	3	[0, 0, 0]	n/a	catFR1	1	R1401J
395.615	1.6	428497	WORD	n/a	wordpools/wordpool_categorized_EN.txt	LAKE	Landscapes	4	3	[0, 0, 0]	n/a	catFR1	1	R1401J
397.215	0.783	430100	WORD_OFF	n/a	n/a	LAKE	Landscapes	4	3	[0, 0, 0]	n/a	catFR1	1	R1401J
397.998	1.617	430878	WORD	n/a	wordpools/wordpool_categorized_EN.txt	CYPRESS	Trees	5	3	[0, 0, 0]	n/a	catFR1	1	R1401J
399.615	0.8	432496	WORD_OFF	n/a	n/a	CYPRESS	Trees	5	3	[0, 0, 0]	n/a	catFR1	1	R1401J
400.415	1.617	433305	WORD	n/a	wordpools/wordpool_categorized_EN.txt	BIRCH	Trees	6	3	[0, 0, 0]	n/a	catFR1	1	R1401J
402.032	0.866	434922	WORD_OFF	n/a	n/a	BIRCH	Trees	6	3	[0, 0, 0]	n/a	catFR1	1	R1401J
402.898	1.6	435777	WORD	n/a	wordpools/wordpool_categorized_EN.txt	CALCULATOR	Electronics	7	3	[0, 0, 0]	n/a	catFR1	1	R1401J
404.498	0.934	437380	WORD_OFF	n/a	n/a	CALCULATOR	Electronics	7	3	[0, 0, 0]	n/a	catFR1	1	R1401J
405.432	1.6	438310	WORD	n/a	wordpools/wordpool_categorized_EN.txt	HEADPHONES	Electronics	8	3	[0, 0, 0]	n/a	catFR1	1	R1401J
407.032	0.915	439913	WORD_OFF	n/a	n/a	HEADPHONES	Electronics	8	3	[0, 0, 0]	n/a	catFR1	1	R1401J
407.947	1.601	440829	WORD	n/a	wordpools/wordpool_categorized_EN.txt	MAPLE	Trees	9	3	[0, 0, 0]	n/a	catFR1	1	R1401J
409.548	0.817	442431	WORD_OFF	n/a	n/a	MAPLE	Trees	9	3	[0, 0, 0]	n/a	catFR1	1	R1401J
410.365	1.6	443255	WORD	n/a	wordpools/wordpool_categorized_EN.txt	WILLOW	Trees	10	3	[0, 0, 0]	n/a	catFR1	1	R1401J
411.965	1.0	444842	WORD_OFF	n/a	n/a	WILLOW	Trees	10	3	[0, 0, 0]	n/a	catFR1	1	R1401J
412.965	1.6	445850	WORD	n/a	wordpools/wordpool_categorized_EN.txt	RIVER	Landscapes	11	3	[0, 0, 0]	n/a	catFR1	1	R1401J
414.565	0.95	447452	WORD_OFF	n/a	n/a	RIVER	Landscapes	11	3	[0, 0, 0]	n/a	catFR1	1	R1401J
415.515	1.6	448398	WORD	n/a	wordpools/wordpool_categorized_EN.txt	STREAM	Landscapes	12	3	[0, 0, 0]	n/a	catFR1	1	R1401J
417.115	0.001	449998	PROB	13.283	n/a	n/a	n/a	-999	3	[3, 7, 4]	14.0	catFR1	1	R1401J
417.116	0.0	449999	START	n/a	n/a	n/a	n/a	-999	3	[-999, -999, -999]	n/a	catFR1	1	R1401J
417.115	0.001	450001	WORD_OFF	n/a	n/a	STREAM	Landscapes	12	3	[0, 0, 0]	n/a	catFR1	1	R1401J
417.116	0.0	450001	ENCODING_END	n/a	n/a	n/a	n/a	-999	3	[0, 0, 0]	n/a	catFR1	1	R1401J
417.116	13.299	450001	DISTRACT_START	n/a	n/a	n/a	n/a	-999	3	[0, 0, 0]	n/a	catFR1	1	R1401J
430.415	6.217	463297	PROB	6.199	n/a	n/a	n/a	-999	3	[7, 2, 2]	11.0	catFR1	1	R1401J
436.632	5.915	469514	PROB	5.899	n/a	n/a	n/a	-999	3	[3, 4, 4]	11.0	catFR1	1	R1401J
442.547	0.0	475427	DISTRACT_END	n/a	n/a	n/a	n/a	-999	3	[0, 0, 0]	n/a	catFR1	1	R1401J
442.547	2.034	475429	STOP	n/a	n/a	n/a	n/a	-999	3	[-999, -999, -999]	n/a	catFR1	1	R1401J
444.581	1.024	477464	REC_START	n/a	n/a	n/a	n/a	-999	3	[0, 0, 0]	n/a	catFR1	1	R1401J
445.605	0.9	478487	REC_WORD	1.024	n/a	WILLOW	Trees	10	3	[0, 0, 0]	n/a	catFR1	1	R1401J
446.505	3.692	479387	REC_WORD	1.924	n/a	BIRCH	Trees	6	3	[0, 0, 0]	n/a	catFR1	1	R1401J
450.197	0.42	483078	REC_WORD	5.616	n/a	WILLOW	Trees	10	3	[0, 0, 0]	n/a	catFR1	1	R1401J
450.617	2.062	483498	REC_WORD	6.036	n/a	BIRCH	Trees	6	3	[0, 0, 0]	n/a	catFR1	1	R1401J
452.679	0.345	485560	REC_WORD_VV	8.098	n/a	<>	n/a	-999	3	[0, 0, 0]	n/a	catFR1	1	R1401J
453.024	2.785	485905	REC_WORD	8.443	n/a	ELM	n/a	-999	3	[0, 0, 0]	n/a	catFR1	1	R1401J
455.809	1.286	488690	REC_WORD	11.228	n/a	OCEAN	Landscapes	3	3	[0, 0, 0]	n/a	catFR1	1	R1401J
457.095	2.78	489976	REC_WORD	12.514	n/a	LAKE	Landscapes	4	3	[0, 0, 0]	n/a	catFR1	1	R1401J
459.875	5.141	492756	REC_WORD	15.294	n/a	CYPRESS	Trees	5	3	[0, 0, 0]	n/a	catFR1	1	R1401J
465.016	4.04	497897	REC_WORD_VV	20.435	n/a	<>	n/a	-999	3	[0, 0, 0]	n/a	catFR1	1	R1401J
469.056	0.615	501937	REC_WORD	24.475	n/a	RADIO	Electronics	1	3	[0, 0, 0]	n/a	catFR1	1	R1401J
469.671	5.123	502552	REC_WORD	25.09	n/a	STEREO	Electronics	2	3	[0, 0, 0]	n/a	catFR1	1	R1401J
474.794	7.288	507674	REC_END	n/a	n/a	n/a	n/a	-999	3	[0, 0, 0]	n/a	catFR1	1	R1401J
482.082	10.36	514969	COUNTDOWN_START	n/a	n/a	n/a	n/a	-999	4	[0, 0, 0]	n/a	catFR1	1	R1401J
492.442	0.0	525316	COUNTDOWN_END	n/a	n/a	n/a	n/a	-999	4	[0, 0, 0]	n/a	catFR1	1	R1401J
492.442	2.055	525332	ENCODING_START	n/a	n/a	n/a	n/a	-999	4	[0, 0, 0]	n/a	catFR1	1	R1401J
494.497	1.602	527377	WORD	n/a	wordpools/wordpool_categorized_EN.txt	DOLPHIN	OceanAnimals	1	4	[0, 0, 0]	n/a	catFR1	1	R1401J
496.099	0.916	528979	WORD_OFF	n/a	n/a	DOLPHIN	OceanAnimals	1	4	[0, 0, 0]	n/a	catFR1	1	R1401J
497.015	1.616	529895	WORD	n/a	wordpools/wordpool_categorized_EN.txt	OYSTER	OceanAnimals	2	4	[0, 0, 0]	n/a	catFR1	1	R1401J
498.631	0.934	531513	WORD_OFF	n/a	n/a	OYSTER	OceanAnimals	2	4	[0, 0, 0]	n/a	catFR1	1	R1401J
499.565	1.617	532444	WORD	n/a	wordpools/wordpool_categorized_EN.txt	HEAD	BodyParts	3	4	[0, 0, 0]	n/a	catFR1	1	R1401J
501.182	0.767	534061	WORD_OFF	n/a	n/a	HEAD	BodyParts	3	4	[0, 0, 0]	n/a	catFR1	1	R1401J
501.949	1.6	534824	WORD	n/a	wordpools/wordpool_categorized_EN.txt	ARM	BodyParts	4	4	[0, 0, 0]	n/a	catFR1	1	R1401J
503.549	0.983	536427	WORD_OFF	n/a	n/a	ARM	BodyParts	4	4	[0, 0, 0]	n/a	catFR1	1	R1401J
504.532	1.616	537419	WORD	n/a	wordpools/wordpool_categorized_EN.txt	JEANS	Clothing	5	4	[0, 0, 0]	n/a	catFR1	1	R1401J
506.148	0.949	539021	WORD_OFF	n/a	n/a	JEANS	Clothing	5	4	[0, 0, 0]	n/a	catFR1	1	R1401J
507.097	1.601	539983	WORD	n/a	wordpools/wordpool_categorized_EN.txt	COAT	Clothing	6	4	[0, 0, 0]	n/a	catFR1	1	R1401J
508.698	0.917	541585	WORD_OFF	n/a	n/a	COAT	Clothing	6	4	[0, 0, 0]	n/a	catFR1	1	R1401J
509.615	1.6	542501	WORD	n/a	wordpools/wordpool_categorized_EN.txt	FISH	OceanAnimals	7	4	[0, 0, 0]	n/a	catFR1	1	R1401J
511.215	0.917	544088	WORD_OFF	n/a	n/a	FISH	OceanAnimals	7	4	[0, 0, 0]	n/a	catFR1	1	R1401J
512.132	1.6	545019	WORD	n/a	wordpools/wordpool_categorized_EN.txt	SHRIMP	OceanAnimals	8	4	[0, 0, 0]	n/a	catFR1	1	R1401J
513.732	1.0	546606	WORD_OFF	n/a	n/a	SHRIMP	OceanAnimals	8	4	[0, 0, 0]	n/a	catFR1	1	R1401J
514.732	1.616	547613	WORD	n/a	wordpools/wordpool_categorized_EN.txt	NOSE	BodyParts	9	4	[0, 0, 0]	n/a	catFR1	1	R1401J
516.348	0.783	549231	WORD_OFF	n/a	n/a	NOSE	BodyParts	9	4	[0, 0, 0]	n/a	catFR1	1	R1401J
517.131	1.601	550010	WORD	n/a	wordpools/wordpool_categorized_EN.txt	KNEE	BodyParts	10	4	[0, 0, 0]	n/a	catFR1	1	R1401J
518.732	0.866	551612	WORD_OFF	n/a	n/a	KNEE	BodyParts	10	4	[0, 0, 0]	n/a	catFR1	1	R1401J
519.598	1.617	552482	WORD	n/a	wordpools/wordpool_categorized_EN.txt	UNDERWEAR	Clothing	11	4	[0, 0, 0]	n/a	catFR1	1	R1401J
521.215	0.917	554100	WORD_OFF	n/a	n/a	UNDERWEAR	Clothing	11	4	[0, 0, 0]	n/a	catFR1	1	R1401J
522.132	1.601	555015	WORD	n/a	wordpools/wordpool_categorized_EN.txt	SHORTS	Clothing	12	4	[0, 0, 0]	n/a	catFR1	1	R1401J
523.733	0.0	556611	START	n/a	n/a	n/a	n/a	-999	4	[-999, -999, -999]	n/a	catFR1	1	R1401J
523.733	0.0	556611	PROB	9.098	n/a	n/a	n/a	-999	4	[2, 7, 4]	13.0	catFR1	1	R1401J
523.732	0.001	556618	WORD_OFF	n/a	n/a	SHORTS	Clothing	12	4	[0, 0, 0]	n/a	catFR1	1	R1401J
523.733	0.0	556618	ENCODING_END	n/a	n/a	n/a	n/a	-999	4	[0, 0, 0]	n/a	catFR1	1	R1401J
523.733	9.115	556618	DISTRACT_START	n/a	n/a	n/a	n/a	-999	4	[0, 0, 0]	n/a	catFR1	1	R1401J
532.848	8.45	565726	PROB	8.433	n/a	n/a	n/a	-999	4	[8, 4, 1]	13.0	catFR1	1	R1401J
541.298	6.3	574176	PROB	6.283	n/a	n/a	n/a	-999	4	[1, 3, 5]	9.0	catFR1	1	R1401J
547.598	0.0	580472	DISTRACT_END	n/a	n/a	n/a	n/a	-999	4	[0, 0, 0]	n/a	catFR1	1	R1401J
547.598	2.25	580475	STOP	n/a	n/a	n/a	n/a	-999	4	[-999, -999, -999]	n/a	catFR1	1	R1401J
549.848	1.389	582723	REC_START	n/a	n/a	n/a	n/a	-999	4	[0, 0, 0]	n/a	catFR1	1	R1401J
551.237	0.772	584114	REC_WORD	1.389	n/a	HEAD	BodyParts	3	4	[0, 0, 0]	n/a	catFR1	1	R1401J
552.009	5.415	584886	REC_WORD	2.161	n/a	NOSE	BodyParts	9	4	[0, 0, 0]	n/a	catFR1	1	R1401J
557.424	1.2	590301	REC_WORD	7.576	n/a	PANTS	n/a	-999	4	[0, 0, 0]	n/a	catFR1	1	R1401J
558.624	6.163	591501	REC_WORD	8.776	n/a	COAT	Clothing	6	4	[0, 0, 0]	n/a	catFR1	1	R1401J
564.787	3.84	597664	REC_WORD	14.939	n/a	CLAM	n/a	-999	4	[0, 0, 0]	n/a	catFR1	1	R1401J
568.627	1.04	601504	REC_WORD	18.779	n/a	SHRIMP	OceanAnimals	8	4	[0, 0, 0]	n/a	catFR1	1	R1401J
569.667	4.9	602544	REC_WORD	19.819	n/a	OYSTER	OceanAnimals	2	4	[0, 0, 0]	n/a	catFR1	1	R1401J
574.567	4.93	607443	REC_WORD	24.719	n/a	FISH	OceanAnimals	7	4	[0, 0, 0]	n/a	catFR1	1	R1401J
579.497	0.579	612373	REC_WORD_VV	29.649	n/a	<>	n/a	-999	4	[0, 0, 0]	n/a	catFR1	1	R1401J
580.076	5.655	612948	REC_END	n/a	n/a	n/a	n/a	-999	4	[0, 0, 0]	n/a	catFR1	1	R1401J
585.731	10.363	618610	COUNTDOWN_START	n/a	n/a	n/a	n/a	-999	5	[0, 0, 0]	n/a	catFR1	1	R1401J
596.094	0.0	628973	COUNTDOWN_END	n/a	n/a	n/a	n/a	-999	5	[0, 0, 0]	n/a	catFR1	1	R1401J
596.094	1.905	628973	ENCODING_START	n/a	n/a	n/a	n/a	-999	5	[0, 0, 0]	n/a	catFR1	1	R1401J
597.999	1.6	630880	WORD	n/a	wordpools/wordpool_categorized_EN.txt	WALL	Building	1	5	[0, 0, 0]	n/a	catFR1	1	R1401J
599.599	0.899	632468	WORD_OFF	n/a	n/a	WALL	Building	1	5	[0, 0, 0]	n/a	catFR1	1	R1401J
600.498	1.601	633368	WORD	n/a	wordpools/wordpool_categorized_EN.txt	FLOOR	Building	2	5	[0, 0, 0]	n/a	catFR1	1	R1401J
602.099	0.766	634970	WORD_OFF	n/a	n/a	FLOOR	Building	2	5	[0, 0, 0]	n/a	catFR1	1	R1401J
602.865	1.617	635734	WORD	n/a	wordpools/wordpool_categorized_EN.txt	PRINTER	Electronics	3	5	[0, 0, 0]	n/a	catFR1	1	R1401J
604.482	0.833	637351	WORD_OFF	n/a	n/a	PRINTER	Electronics	3	5	[0, 0, 0]	n/a	catFR1	1	R1401J
605.315	1.6	638191	WORD	n/a	wordpools/wordpool_categorized_EN.txt	MICROWAVE	Electronics	4	5	[0, 0, 0]	n/a	catFR1	1	R1401J
606.915	0.9	639793	WORD_OFF	n/a	n/a	MICROWAVE	Electronics	4	5	[0, 0, 0]	n/a	catFR1	1	R1401J
607.815	1.616	640694	WORD	n/a	wordpools/wordpool_categorized_EN.txt	CROWBAR	Tools	5	5	[0, 0, 0]	n/a	catFR1	1	R1401J
609.431	0.784	642311	WORD_OFF	n/a	n/a	CROWBAR	Tools	5	5	[0, 0, 0]	n/a	catFR1	1	R1401J
610.215	1.6	643090	WORD	n/a	wordpools/wordpool_categorized_EN.txt	WRENCH	Tools	6	5	[0, 0, 0]	n/a	catFR1	1	R1401J
611.815	0.917	644692	WORD_OFF	n/a	n/a	WRENCH	Tools	6	5	[0, 0, 0]	n/a	catFR1	1	R1401J
612.732	1.616	645608	WORD	n/a	wordpools/wordpool_categorized_EN.txt	ROOM	Building	7	5	[0, 0, 0]	n/a	catFR1	1	R1401J
614.348	0.817	647225	WORD_OFF	n/a	n/a	ROOM	Building	7	5	[0, 0, 0]	n/a	catFR1	1	R1401J
615.165	1.617	648034	WORD	n/a	wordpools/wordpool_categorized_EN.txt	ROOF	Building	8	5	[0, 0, 0]	n/a	catFR1	1	R1401J
616.782	0.95	649652	WORD_OFF	n/a	n/a	ROOF	Building	8	5	[0, 0, 0]	n/a	catFR1	1	R1401J
617.732	1.6	650614	WORD	n/a	wordpools/wordpool_categorized_EN.txt	TABLET	Electronics	9	5	[0, 0, 0]	n/a	catFR1	1	R1401J
619.332	0.832	652201	WORD_OFF	n/a	n/a	TABLET	Electronics	9	5	[0, 0, 0]	n/a	catFR1	1	R1401J
620.164	1.601	653040	WORD	n/a	wordpools/wordpool_categorized_EN.txt	PHONE	Electronics	10	5	[0, 0, 0]	n/a	catFR1	1	R1401J
621.765	0.849	654643	WORD_OFF	n/a	n/a	PHONE	Electronics	10	5	[0, 0, 0]	n/a	catFR1	1	R1401J
622.614	1.617	655482	WORD	n/a	wordpools/wordpool_categorized_EN.txt	LEVEL	Tools	11	5	[0, 0, 0]	n/a	catFR1	1	R1401J
624.231	0.934	657100	WORD_OFF	n/a	n/a	LEVEL	Tools	11	5	[0, 0, 0]	n/a	catFR1	1	R1401J
625.165	1.6	658046	WORD	n/a	wordpools/wordpool_categorized_EN.txt	AXE	Tools	12	5	[0, 0, 0]	n/a	catFR1	1	R1401J
626.765	0.001	659633	WORD_OFF	n/a	n/a	AXE	Tools	12	5	[0, 0, 0]	n/a	catFR1	1	R1401J
626.766	0.007	659640	PROB	9.765	n/a	n/a	n/a	-999	5	[5, 2, 6]	13.0	catFR1	1	R1401J
626.773	0.0	659647	START	n/a	n/a	n/a	n/a	-999	5	[-999, -999, -999]	n/a	catFR1	1	R1401J
626.773	0.0	659648	ENCODING_END	n/a	n/a	n/a	n/a	-999	5	[0, 0, 0]	n/a	catFR1	1	R1401J
626.773	9.775	659648	DISTRACT_START	n/a	n/a	n/a	n/a	-999	5	[0, 0, 0]	n/a	catFR1	1	R1401J
636.548	76.533	669422	PROB	76.517	n/a	n/a	n/a	-999	5	[7, 3, 1]	11.0	catFR1	1	R1401J
713.081	0.0	745952	DISTRACT_END	n/a	n/a	n/a	n/a	-999	5	[0, 0, 0]	n/a	catFR1	1	R1401J
713.081	2.1	745952	STOP	n/a	n/a	n/a	n/a	-999	5	[-999, -999, -999]	n/a	catFR1	1	R1401J
715.181	1.645	748051	REC_START	n/a	n/a	n/a	n/a	-999	5	[0, 0, 0]	n/a	catFR1	1	R1401J
716.826	1.975	749697	REC_WORD	1.645	n/a	SILK	n/a	-999	5	[0, 0, 0]	n/a	catFR1	1	R1401J
718.801	1.275	751671	REC_WORD_VV	3.62	n/a	<>	n/a	-999	5	[0, 0, 0]	n/a	catFR1	1	R1401J
720.076	5.81	752946	REC_WORD	4.895	n/a	WRENCH	Tools	6	5	[0, 0, 0]	n/a	catFR1	1	R1401J
725.886	1.373	758756	REC_WORD	10.705	n/a	WRENCH	Tools	6	5	[0, 0, 0]	n/a	catFR1	1	R1401J
727.259	0.978	760129	REC_WORD	12.078	n/a	ROOM	Building	7	5	[0, 0, 0]	n/a	catFR1	1	R1401J
728.237	1.55	761107	REC_WORD	13.056	n/a	TABLE	n/a	-999	5	[0, 0, 0]	n/a	catFR1	1	R1401J
729.787	5.985	762657	REC_WORD	14.606	n/a	ROOF	Building	8	5	[0, 0, 0]	n/a	catFR1	1	R1401J
735.772	4.065	768642	REC_WORD_VV	20.591	n/a	<>	n/a	-999	5	[0, 0, 0]	n/a	catFR1	1	R1401J
739.837	4.17	772707	REC_WORD	24.656	n/a	PHONE	Electronics	10	5	[0, 0, 0]	n/a	catFR1	1	R1401J
744.007	1.37	776876	REC_WORD	28.826	n/a	LEVEL	Tools	11	5	[0, 0, 0]	n/a	catFR1	1	R1401J
745.377	3.237	778246	REC_END	n/a	n/a	n/a	n/a	-999	5	[0, 0, 0]	n/a	catFR1	1	R1401J
748.614	10.361	781481	COUNTDOWN_START	n/a	n/a	n/a	n/a	-999	6	[0, 0, 0]	n/a	catFR1	1	R1401J
758.975	0.0	791844	COUNTDOWN_END	n/a	n/a	n/a	n/a	-999	6	[0, 0, 0]	n/a	catFR1	1	R1401J
758.975	2.106	791844	ENCODING_START	n/a	n/a	n/a	n/a	-999	6	[0, 0, 0]	n/a	catFR1	1	R1401J
761.081	1.6	793950	WORD	n/a	wordpools/wordpool_categorized_EN.txt	ORANGE	Fruit	1	6	[0, 0, 0]	n/a	catFR1	1	R1401J
762.681	0.883	795552	WORD_OFF	n/a	n/a	ORANGE	Fruit	1	6	[0, 0, 0]	n/a	catFR1	1	R1401J
763.564	1.6	796437	WORD	n/a	wordpools/wordpool_categorized_EN.txt	GRAPE	Fruit	2	6	[0, 0, 0]	n/a	catFR1	1	R1401J
765.164	0.934	798040	WORD_OFF	n/a	n/a	GRAPE	Fruit	2	6	[0, 0, 0]	n/a	catFR1	1	R1401J
766.098	1.616	798971	WORD	n/a	wordpools/wordpool_categorized_EN.txt	STRAINER	KitchenTools	3	6	[0, 0, 0]	n/a	catFR1	1	R1401J
767.714	0.95	800588	WORD_OFF	n/a	n/a	STRAINER	KitchenTools	3	6	[0, 0, 0]	n/a	catFR1	1	R1401J
768.664	1.6	801535	WORD	n/a	wordpools/wordpool_categorized_EN.txt	COLANDER	KitchenTools	4	6	[0, 0, 0]	n/a	catFR1	1	R1401J
770.264	0.767	803137	WORD_OFF	n/a	n/a	COLANDER	KitchenTools	4	6	[0, 0, 0]	n/a	catFR1	1	R1401J
771.031	1.616	803900	WORD	n/a	wordpools/wordpool_categorized_EN.txt	HILLS	Landscapes	5	6	[0, 0, 0]	n/a	catFR1	1	R1401J
772.647	0.984	805518	WORD_OFF	n/a	n/a	HILLS	Landscapes	5	6	[0, 0, 0]	n/a	catFR1	1	R1401J
773.631	1.616	806495	WORD	n/a	wordpools/wordpool_categorized_EN.txt	MOUNTAIN	Landscapes	6	6	[0, 0, 0]	n/a	catFR1	1	R1401J
775.247	0.834	808112	WORD_OFF	n/a	n/a	MOUNTAIN	Landscapes	6	6	[0, 0, 0]	n/a	catFR1	1	R1401J
776.081	1.6	808952	WORD	n/a	wordpools/wordpool_categorized_EN.txt	KNIFE	KitchenTools	7	6	[0, 0, 0]	n/a	catFR1	1	R1401J
777.681	0.816	810554	WORD_OFF	n/a	n/a	KNIFE	KitchenTools	7	6	[0, 0, 0]	n/a	catFR1	1	R1401J
778.497	1.6	811363	WORD	n/a	wordpools/wordpool_categorized_EN.txt	TONGS	KitchenTools	8	6	[0, 0, 0]	n/a	catFR1	1	R1401J
780.097	0.917	812966	WORD_OFF	n/a	n/a	TONGS	KitchenTools	8	6	[0, 0, 0]	n/a	catFR1	1	R1401J
781.014	1.6	813881	WORD	n/a	wordpools/wordpool_categorized_EN.txt	BLUEBERRY	Fruit	9	6	[0, 0, 0]	n/a	catFR1	1	R1401J
782.614	0.8	815484	WORD_OFF	n/a	n/a	BLUEBERRY	Fruit	9	6	[0, 0, 0]	n/a	catFR1	1	R1401J
783.414	1.616	816277	WORD	n/a	wordpools/wordpool_categorized_EN.txt	PEACH	Fruit	10	6	[0, 0, 0]	n/a	catFR1	1	R1401J
785.03	0.901	817895	WORD_OFF	n/a	n/a	PEACH	Fruit	10	6	[0, 0, 0]	n/a	catFR1	1	R1401J
785.931	1.616	818796	WORD	n/a	wordpools/wordpool_categorized_EN.txt	WOODS	Landscapes	11	6	[0, 0, 0]	n/a	catFR1	1	R1401J
787.547	0.917	820413	WORD_OFF	n/a	n/a	WOODS	Landscapes	11	6	[0, 0, 0]	n/a	catFR1	1	R1401J
788.464	1.6	821329	WORD	n/a	wordpools/wordpool_categorized_EN.txt	CREEK	Landscapes	12	6	[0, 0, 0]	n/a	catFR1	1	R1401J
790.064	0.001	822931	WORD_OFF	n/a	n/a	CREEK	Landscapes	12	6	[0, 0, 0]	n/a	catFR1	1	R1401J
790.065	0.007	822933	PROB	7.999	n/a	n/a	n/a	-999	6	[2, 1, 1]	4.0	catFR1	1	R1401J
790.072	0.0	822940	START	n/a	n/a	n/a	n/a	-999	6	[-999, -999, -999]	n/a	catFR1	1	R1401J
790.072	0.0	822947	ENCODING_END	n/a	n/a	n/a	n/a	-999	6	[0, 0, 0]	n/a	catFR1	1	R1401J
790.072	8.009	822947	DISTRACT_START	n/a	n/a	n/a	n/a	-999	6	[0, 0, 0]	n/a	catFR1	1	R1401J
798.081	11.083	830948	PROB	11.067	n/a	n/a	n/a	-999	6	[3, 7, 3]	13.0	catFR1	1	R1401J
809.164	13.151	842031	PROB	13.134	n/a	n/a	n/a	-999	6	[2, 6, 8]	16.0	catFR1	1	R1401J
822.315	0.0	855179	DISTRACT_END	n/a	n/a	n/a	n/a	-999	6	[0, 0, 0]	n/a	catFR1	1	R1401J
822.315	2.349	855181	STOP	n/a	n/a	n/a	n/a	-999	6	[-999, -999, -999]	n/a	catFR1	1	R1401J
824.664	2.874	857537	REC_START	n/a	n/a	n/a	n/a	-999	6	[0, 0, 0]	n/a	catFR1	1	R1401J
827.538	0.291	860404	REC_WORD_VV	2.874	n/a	<>	n/a	-999	6	[0, 0, 0]	n/a	catFR1	1	R1401J
827.829	3.115	860695	REC_WORD	3.165	n/a	GRAPE	Fruit	2	6	[0, 0, 0]	n/a	catFR1	1	R1401J
830.944	0.45	863810	REC_WORD_VV	6.28	n/a	<>	n/a	-999	6	[0, 0, 0]	n/a	catFR1	1	R1401J
831.394	1.895	864260	REC_WORD	6.73	n/a	GRAPE	Fruit	2	6	[0, 0, 0]	n/a	catFR1	1	R1401J
833.289	2.69	866155	REC_WORD	8.625	n/a	BLUEBERRY	Fruit	9	6	[0, 0, 0]	n/a	catFR1	1	R1401J
835.979	0.917	868845	REC_WORD	11.315	n/a	STRAINER	KitchenTools	3	6	[0, 0, 0]	n/a	catFR1	1	R1401J
836.896	6.472	869762	REC_WORD	12.232	n/a	COLANDER	KitchenTools	4	6	[0, 0, 0]	n/a	catFR1	1	R1401J
843.368	11.496	876233	REC_WORD	18.704	n/a	ORANGE	Fruit	1	6	[0, 0, 0]	n/a	catFR1	1	R1401J
854.864	2.035	887732	REC_END	n/a	n/a	n/a	n/a	-999	6	[0, 0, 0]	n/a	catFR1	1	R1401J
856.899	10.359	889762	COUNTDOWN_START	n/a	n/a	n/a	n/a	-999	7	[0, 0, 0]	n/a	catFR1	1	R1401J
867.258	0.001	900124	COUNTDOWN_END	n/a	n/a	n/a	n/a	-999	7	[0, 0, 0]	n/a	catFR1	1	R1401J
867.259	2.222	900124	ENCODING_START	n/a	n/a	n/a	n/a	-999	7	[0, 0, 0]	n/a	catFR1	1	R1401J
869.481	1.616	902352	WORD	n/a	wordpools/wordpool_categorized_EN.txt	ROOSTER	FarmAnimals	1	7	[0, 0, 0]	n/a	catFR1	1	R1401J
871.097	0.768	903955	WORD_OFF	n/a	n/a	ROOSTER	FarmAnimals	1	7	[0, 0, 0]	n/a	catFR1	1	R1401J
871.865	1.616	904733	WORD	n/a	wordpools/wordpool_categorized_EN.txt	SHEEP	FarmAnimals	2	7	[0, 0, 0]	n/a	catFR1	1	R1401J
873.481	0.867	906351	WORD_OFF	n/a	n/a	SHEEP	FarmAnimals	2	7	[0, 0, 0]	n/a	catFR1	1	R1401J
874.348	1.616	907205	WORD	n/a	wordpools/wordpool_categorized_EN.txt	OVEN	Appliances	3	7	[0, 0, 0]	n/a	catFR1	1	R1401J
875.964	0.934	908823	WORD_OFF	n/a	n/a	OVEN	Appliances	3	7	[0, 0, 0]	n/a	catFR1	1	R1401J
876.898	1.616	909769	WORD	n/a	wordpools/wordpool_categorized_EN.txt	VACUUM	Appliances	4	7	[0, 0, 0]	n/a	catFR1	1	R1401J
878.514	0.884	911372	WORD_OFF	n/a	n/a	VACUUM	Appliances	4	7	[0, 0, 0]	n/a	catFR1	1	R1401J
879.398	1.616	912257	WORD	n/a	wordpools/wordpool_categorized_EN.txt	BEAR	Zoo	5	7	[0, 0, 0]	n/a	catFR1	1	R1401J
881.014	0.883	913875	WORD_OFF	n/a	n/a	BEAR	Zoo	5	7	[0, 0, 0]	n/a	catFR1	1	R1401J
881.897	1.617	914760	WORD	n/a	wordpools/wordpool_categorized_EN.txt	ORANGUTAN	Zoo	6	7	[0, 0, 0]	n/a	catFR1	1	R1401J
883.514	0.917	916378	WORD_OFF	n/a	n/a	ORANGUTAN	Zoo	6	7	[0, 0, 0]	n/a	catFR1	1	R1401J
884.431	1.6	917293	WORD	n/a	wordpools/wordpool_categorized_EN.txt	TURKEY	FarmAnimals	7	7	[0, 0, 0]	n/a	catFR1	1	R1401J
886.031	0.934	918896	WORD_OFF	n/a	n/a	TURKEY	FarmAnimals	7	7	[0, 0, 0]	n/a	catFR1	1	R1401J
886.965	1.6	919827	WORD	n/a	wordpools/wordpool_categorized_EN.txt	HORSE	FarmAnimals	8	7	[0, 0, 0]	n/a	catFR1	1	R1401J
888.565	0.8	921429	WORD_OFF	n/a	n/a	HORSE	FarmAnimals	8	7	[0, 0, 0]	n/a	catFR1	1	R1401J
889.365	1.6	922223	WORD	n/a	wordpools/wordpool_categorized_EN.txt	GORILLA	Zoo	9	7	[0, 0, 0]	n/a	catFR1	1	R1401J
890.965	0.9	923825	WORD_OFF	n/a	n/a	GORILLA	Zoo	9	7	[0, 0, 0]	n/a	catFR1	1	R1401J
891.865	1.617	924726	WORD	n/a	wordpools/wordpool_categorized_EN.txt	MONKEY	Zoo	10	7	[0, 0, 0]	n/a	catFR1	1	R1401J
893.482	0.883	926343	WORD_OFF	n/a	n/a	MONKEY	Zoo	10	7	[0, 0, 0]	n/a	catFR1	1	R1401J
894.365	1.617	927229	WORD	n/a	wordpools/wordpool_categorized_EN.txt	FREEZER	Appliances	11	7	[0, 0, 0]	n/a	catFR1	1	R1401J
895.982	0.816	928846	WORD_OFF	n/a	n/a	FREEZER	Appliances	11	7	[0, 0, 0]	n/a	catFR1	1	R1401J
896.798	1.617	929655	WORD	n/a	wordpools/wordpool_categorized_EN.txt	IRON	Appliances	12	7	[0, 0, 0]	n/a	catFR1	1	R1401J
898.415	0.0	931273	WORD_OFF	n/a	n/a	IRON	Appliances	12	7	[0, 0, 0]	n/a	catFR1	1	R1401J
898.415	0.001	931278	PROB	6.4	n/a	n/a	n/a	-999	7	[8, 2, 1]	11.0	catFR1	1	R1401J
898.416	0.0	931279	START	n/a	n/a	n/a	n/a	-999	7	[-999, -999, -999]	n/a	catFR1	1	R1401J
898.416	0.0	931288	ENCODING_END	n/a	n/a	n/a	n/a	-999	7	[0, 0, 0]	n/a	catFR1	1	R1401J
898.416	6.416	931288	DISTRACT_START	n/a	n/a	n/a	n/a	-999	7	[0, 0, 0]	n/a	catFR1	1	R1401J
904.832	12.615	937695	PROB	12.6	n/a	n/a	n/a	-999	7	[4, 7, 3]	14.0	catFR1	1	R1401J
917.447	10.268	950309	PROB	10.25	n/a	n/a	n/a	-999	7	[6, 6, 5]	17.0	catFR1	1	R1401J
927.715	0.0	960575	DISTRACT_END	n/a	n/a	n/a	n/a	-999	7	[0, 0, 0]	n/a	catFR1	1	R1401J
927.715	2.366	960577	STOP	n/a	n/a	n/a	n/a	-999	7	[-999, -999, -999]	n/a	catFR1	1	R1401J
930.081	1.345	962949	REC_START	n/a	n/a	n/a	n/a	-999	7	[0, 0, 0]	n/a	catFR1	1	R1401J
931.426	1.855	964288	REC_WORD_VV	1.345	n/a	<>	n/a	-999	7	[0, 0, 0]	n/a	catFR1	1	R1401J
933.281	2.06	966143	REC_WORD	3.2	n/a	ROOSTER	FarmAnimals	1	7	[0, 0, 0]	n/a	catFR1	1	R1401J
935.341	1.985	968203	REC_WORD	5.26	n/a	SHEEP	FarmAnimals	2	7	[0, 0, 0]	n/a	catFR1	1	R1401J
937.326	3.83	970188	REC_WORD	7.245	n/a	OVEN	Appliances	3	7	[0, 0, 0]	n/a	catFR1	1	R1401J
941.156	0.759	974017	REC_WORD	11.075	n/a	GORILLA	Zoo	9	7	[0, 0, 0]	n/a	catFR1	1	R1401J
941.915	1.473	974776	REC_WORD	11.834	n/a	MONKEY	Zoo	10	7	[0, 0, 0]	n/a	catFR1	1	R1401J
943.388	3.035	976249	REC_WORD	13.307	n/a	ORANGUTAN	Zoo	6	7	[0, 0, 0]	n/a	catFR1	1	R1401J
946.423	4.943	979284	REC_WORD	16.342	n/a	VACUUM	Appliances	4	7	[0, 0, 0]	n/a	catFR1	1	R1401J
951.366	8.928	984227	REC_WORD_VV	21.285	n/a	<>	n/a	-999	7	[0, 0, 0]	n/a	catFR1	1	R1401J
960.294	3.238	993158	REC_END	n/a	n/a	n/a	n/a	-999	7	[0, 0, 0]	n/a	catFR1	1	R1401J
963.532	10.36	996394	COUNTDOWN_START	n/a	n/a	n/a	n/a	-999	8	[0, 0, 0]	n/a	catFR1	1	R1401J
973.892	0.0	1006756	COUNTDOWN_END	n/a	n/a	n/a	n/a	-999	8	[0, 0, 0]	n/a	catFR1	1	R1401J
973.892	1.839	1006756	ENCODING_START	n/a	n/a	n/a	n/a	-999	8	[0, 0, 0]	n/a	catFR1	1	R1401J
975.731	1.617	1008588	WORD	n/a	wordpools/wordpool_categorized_EN.txt	CABINET	Furniture	1	8	[0, 0, 0]	n/a	catFR1	1	R1401J
977.348	1.0	1010206	WORD_OFF	n/a	n/a	CABINET	Furniture	1	8	[0, 0, 0]	n/a	catFR1	1	R1401J
978.348	1.6	1011213	WORD	n/a	wordpools/wordpool_categorized_EN.txt	DESK	Furniture	2	8	[0, 0, 0]	n/a	catFR1	1	R1401J
979.948	0.799	1012815	WORD_OFF	n/a	n/a	DESK	Furniture	2	8	[0, 0, 0]	n/a	catFR1	1	R1401J
980.747	1.601	1013609	WORD	n/a	wordpools/wordpool_categorized_EN.txt	GIRAFFE	Zoo	3	8	[0, 0, 0]	n/a	catFR1	1	R1401J
982.348	0.983	1015211	WORD_OFF	n/a	n/a	GIRAFFE	Zoo	3	8	[0, 0, 0]	n/a	catFR1	1	R1401J
983.331	1.617	1016188	WORD	n/a	wordpools/wordpool_categorized_EN.txt	PANDA	Zoo	4	8	[0, 0, 0]	n/a	catFR1	1	R1401J
984.948	0.949	1017806	WORD_OFF	n/a	n/a	PANDA	Zoo	4	8	[0, 0, 0]	n/a	catFR1	1	R1401J
985.897	1.617	1018752	WORD	n/a	wordpools/wordpool_categorized_EN.txt	TROMBONE	Instruments	5	8	[0, 0, 0]	n/a	catFR1	1	R1401J
987.514	0.8	1020370	WORD_OFF	n/a	n/a	TROMBONE	Instruments	5	8	[0, 0, 0]	n/a	catFR1	1	R1401J
988.314	1.601	1021179	WORD	n/a	wordpools/wordpool_categorized_EN.txt	BASS	Instruments	6	8	[0, 0, 0]	n/a	catFR1	1	R1401J
989.915	0.816	1022781	WORD_OFF	n/a	n/a	BASS	Instruments	6	8	[0, 0, 0]	n/a	catFR1	1	R1401J
990.731	1.6	1023590	WORD	n/a	wordpools/wordpool_categorized_EN.txt	SHELF	Furniture	7	8	[0, 0, 0]	n/a	catFR1	1	R1401J
992.331	0.884	1025192	WORD_OFF	n/a	n/a	SHELF	Furniture	7	8	[0, 0, 0]	n/a	catFR1	1	R1401J
993.215	1.6	1026077	WORD	n/a	wordpools/wordpool_categorized_EN.txt	BED	Furniture	8	8	[0, 0, 0]	n/a	catFR1	1	R1401J
994.815	0.917	1027680	WORD_OFF	n/a	n/a	BED	Furniture	8	8	[0, 0, 0]	n/a	catFR1	1	R1401J
995.732	1.6	1028596	WORD	n/a	wordpools/wordpool_categorized_EN.txt	ZEBRA	Zoo	9	8	[0, 0, 0]	n/a	catFR1	1	R1401J
997.332	0.866	1030198	WORD_OFF	n/a	n/a	ZEBRA	Zoo	9	8	[0, 0, 0]	n/a	catFR1	1	R1401J
998.198	1.6	1031053	WORD	n/a	wordpools/wordpool_categorized_EN.txt	ELEPHANT	Zoo	10	8	[0, 0, 0]	n/a	catFR1	1	R1401J
999.798	0.849	1032655	WORD_OFF	n/a	n/a	ELEPHANT	Zoo	10	8	[0, 0, 0]	n/a	catFR1	1	R1401J
1000.647	1.602	1033510	WORD	n/a	wordpools/wordpool_categorized_EN.txt	CELLO	Instruments	11	8	[0, 0, 0]	n/a	catFR1	1	R1401J
1002.249	0.966	1035112	WORD_OFF	n/a	n/a	CELLO	Instruments	11	8	[0, 0, 0]	n/a	catFR1	1	R1401J
1003.215	1.601	1036074	WORD	n/a	wordpools/wordpool_categorized_EN.txt	FLUTE	Instruments	12	8	[0, 0, 0]	n/a	catFR1	1	R1401J
1004.816	0.0	1037675	START	n/a	n/a	n/a	n/a	-999	8	[-999, -999, -999]	n/a	catFR1	1	R1401J
1004.816	0.0	1037675	PROB	8.166	n/a	n/a	n/a	-999	8	[2, 7, 2]	11.0	catFR1	1	R1401J
1004.815	0.001	1037676	WORD_OFF	n/a	n/a	FLUTE	Instruments	12	8	[0, 0, 0]	n/a	catFR1	1	R1401J
1004.816	0.0	1037676	ENCODING_END	n/a	n/a	n/a	n/a	-999	8	[0, 0, 0]	n/a	catFR1	1	R1401J
1004.816	8.182	1037676	DISTRACT_START	n/a	n/a	n/a	n/a	-999	8	[0, 0, 0]	n/a	catFR1	1	R1401J
1012.998	12.467	1045856	PROB	12.45	n/a	n/a	n/a	-999	8	[7, 2, 5]	14.0	catFR1	1	R1401J
1025.465	0.0	1058323	STOP	n/a	n/a	n/a	n/a	-999	8	[-999, -999, -999]	n/a	catFR1	1	R1401J
1025.465	2.233	1058325	DISTRACT_END	n/a	n/a	n/a	n/a	-999	8	[0, 0, 0]	n/a	catFR1	1	R1401J
1027.698	1.02	1060561	REC_START	n/a	n/a	n/a	n/a	-999	8	[0, 0, 0]	n/a	catFR1	1	R1401J
1028.718	1.38	1061576	REC_WORD_VV	1.02	n/a	<>	n/a	-999	8	[0, 0, 0]	n/a	catFR1	1	R1401J
1030.098	1.195	1062956	REC_WORD	2.4	n/a	FLUTE	Instruments	12	8	[0, 0, 0]	n/a	catFR1	1	R1401J
1031.293	0.455	1064151	REC_WORD_VV	3.595	n/a	<>	n/a	-999	8	[0, 0, 0]	n/a	catFR1	1	R1401J
1031.748	1.34	1064606	REC_WORD	4.05	n/a	CABINET	Furniture	1	8	[0, 0, 0]	n/a	catFR1	1	R1401J
1033.088	3.935	1065946	REC_WORD	5.39	n/a	DESK	Furniture	2	8	[0, 0, 0]	n/a	catFR1	1	R1401J
1037.023	8.58	1069880	REC_WORD	9.325	n/a	DOOR	Building	-999	8	[0, 0, 0]	n/a	catFR1	1	R1401J
1045.603	2.695	1078460	REC_WORD	17.905	n/a	FLUTE	Instruments	12	8	[0, 0, 0]	n/a	catFR1	1	R1401J
1048.298	0.939	1081155	REC_WORD	20.6	n/a	CELLO	Instruments	11	8	[0, 0, 0]	n/a	catFR1	1	R1401J
1049.237	3.707	1082094	REC_WORD	21.539	n/a	TROMBONE	Instruments	5	8	[0, 0, 0]	n/a	catFR1	1	R1401J
1052.944	1.535	1085801	REC_WORD	25.246	n/a	GIRAFFE	Zoo	3	8	[0, 0, 0]	n/a	catFR1	1	R1401J
1054.479	3.434	1087336	REC_WORD	26.781	n/a	ELEPHANT	Zoo	10	8	[0, 0, 0]	n/a	catFR1	1	R1401J
1057.913	4.936	1090771	REC_END	n/a	n/a	n/a	n/a	-999	8	[0, 0, 0]	n/a	catFR1	1	R1401J
1062.849	10.36	1095716	COUNTDOWN_START	n/a	n/a	n/a	n/a	-999	9	[0, 0, 0]	n/a	catFR1	1	R1401J
1073.209	0.001	1106063	COUNTDOWN_END	n/a	n/a	n/a	n/a	-999	9	[0, 0, 0]	n/a	catFR1	1	R1401J
1073.21	2.121	1106063	ENCODING_START	n/a	n/a	n/a	n/a	-999	9	[0, 0, 0]	n/a	catFR1	1	R1401J
1075.331	1.6	1108184	WORD	n/a	wordpools/wordpool_categorized_EN.txt	TEA	Beverages	1	9	[0, 0, 0]	n/a	catFR1	1	R1401J
1076.931	0.783	1109787	WORD_OFF	n/a	n/a	TEA	Beverages	1	9	[0, 0, 0]	n/a	catFR1	1	R1401J
1077.714	1.6	1110565	WORD	n/a	wordpools/wordpool_categorized_EN.txt	RUM	Beverages	2	9	[0, 0, 0]	n/a	catFR1	1	R1401J
1079.314	0.934	1112168	WORD_OFF	n/a	n/a	RUM	Beverages	2	9	[0, 0, 0]	n/a	catFR1	1	R1401J
1080.248	1.616	1113099	WORD	n/a	wordpools/wordpool_categorized_EN.txt	BEETLE	Insects	3	9	[0, 0, 0]	n/a	catFR1	1	R1401J
1081.864	0.917	1114716	WORD_OFF	n/a	n/a	BEETLE	Insects	3	9	[0, 0, 0]	n/a	catFR1	1	R1401J
1082.781	1.616	1115632	WORD	n/a	wordpools/wordpool_categorized_EN.txt	FLY	Insects	4	9	[0, 0, 0]	n/a	catFR1	1	R1401J
1084.397	1.0	1117250	WORD_OFF	n/a	n/a	FLY	Insects	4	9	[0, 0, 0]	n/a	catFR1	1	R1401J
1085.397	1.601	1118257	WORD	n/a	wordpools/wordpool_categorized_EN.txt	FINGERS	BodyParts	5	9	[0, 0, 0]	n/a	catFR1	1	R1401J
1086.998	0.816	1119860	WORD_OFF	n/a	n/a	FINGERS	BodyParts	5	9	[0, 0, 0]	n/a	catFR1	1	R1401J
1087.814	1.6	1120668	WORD	n/a	wordpools/wordpool_categorized_EN.txt	TOE	BodyParts	6	9	[0, 0, 0]	n/a	catFR1	1	R1401J
1089.414	0.867	1122271	WORD_OFF	n/a	n/a	TOE	BodyParts	6	9	[0, 0, 0]	n/a	catFR1	1	R1401J
1090.281	1.616	1123141	WORD	n/a	wordpools/wordpool_categorized_EN.txt	CRICKET	Insects	7	9	[0, 0, 0]	n/a	catFR1	1	R1401J
1091.897	0.784	1124759	WORD_OFF	n/a	n/a	CRICKET	Insects	7	9	[0, 0, 0]	n/a	catFR1	1	R1401J
1092.681	1.6	1125537	WORD	n/a	wordpools/wordpool_categorized_EN.txt	SPIDER	Insects	8	9	[0, 0, 0]	n/a	catFR1	1	R1401J
1094.281	1.0	1127139	WORD_OFF	n/a	n/a	SPIDER	Insects	8	9	[0, 0, 0]	n/a	catFR1	1	R1401J
1095.281	1.601	1128131	WORD	n/a	wordpools/wordpool_categorized_EN.txt	MILK	Beverages	9	9	[0, 0, 0]	n/a	catFR1	1	R1401J
1096.882	0.783	1129734	WORD_OFF	n/a	n/a	MILK	Beverages	9	9	[0, 0, 0]	n/a	catFR1	1	R1401J
1097.665	1.6	1130527	WORD	n/a	wordpools/wordpool_categorized_EN.txt	COFFEE	Beverages	10	9	[0, 0, 0]	n/a	catFR1	1	R1401J
1099.265	0.867	1132115	WORD_OFF	n/a	n/a	COFFEE	Beverages	10	9	[0, 0, 0]	n/a	catFR1	1	R1401J
1100.132	1.616	1132984	WORD	n/a	wordpools/wordpool_categorized_EN.txt	ELBOW	BodyParts	11	9	[0, 0, 0]	n/a	catFR1	1	R1401J
1101.748	0.867	1134602	WORD_OFF	n/a	n/a	ELBOW	BodyParts	11	9	[0, 0, 0]	n/a	catFR1	1	R1401J
1102.615	1.616	1135472	WORD	n/a	wordpools/wordpool_categorized_EN.txt	LEG	BodyParts	12	9	[0, 0, 0]	n/a	catFR1	1	R1401J
1104.231	0.0	1137086	PROB	8.549	n/a	n/a	n/a	-999	9	[4, 8, 8]	20.0	catFR1	1	R1401J
1104.231	0.009	1137090	WORD_OFF	n/a	n/a	LEG	BodyParts	12	9	[0, 0, 0]	n/a	catFR1	1	R1401J
1104.24	0.0	1137090	ENCODING_END	n/a	n/a	n/a	n/a	-999	9	[0, 0, 0]	n/a	catFR1	1	R1401J
1104.24	0.0	1137090	DISTRACT_START	n/a	n/a	n/a	n/a	-999	9	[0, 0, 0]	n/a	catFR1	1	R1401J
1104.24	8.559	1137095	START	n/a	n/a	n/a	n/a	-999	9	[-999, -999, -999]	n/a	catFR1	1	R1401J
1112.799	9.449	1145653	PROB	9.433	n/a	n/a	n/a	-999	9	[3, 1, 4]	8.0	catFR1	1	R1401J
1122.248	8.282	1155102	PROB	8.266	n/a	n/a	n/a	-999	9	[1, 3, 4]	8.0	catFR1	1	R1401J
1130.53	0.0	1163384	STOP	n/a	n/a	n/a	n/a	-999	9	[-999, -999, -999]	n/a	catFR1	1	R1401J
1130.53	2.202	1163385	DISTRACT_END	n/a	n/a	n/a	n/a	-999	9	[0, 0, 0]	n/a	catFR1	1	R1401J
1132.732	1.295	1165591	REC_START	n/a	n/a	n/a	n/a	-999	9	[0, 0, 0]	n/a	catFR1	1	R1401J
1134.027	0.949	1166880	REC_WORD	1.295	n/a	TEA	Beverages	1	9	[0, 0, 0]	n/a	catFR1	1	R1401J
1134.976	2.64	1167829	REC_WORD	2.244	n/a	RUM	Beverages	2	9	[0, 0, 0]	n/a	catFR1	1	R1401J
1137.616	1.581	1170469	REC_WORD	4.884	n/a	FINGERS	BodyParts	5	9	[0, 0, 0]	n/a	catFR1	1	R1401J
1139.197	2.025	1172050	REC_WORD	6.465	n/a	TOE	BodyParts	6	9	[0, 0, 0]	n/a	catFR1	1	R1401J
1141.222	3.305	1174075	REC_WORD	8.49	n/a	PANDA	Zoo	-999	9	[0, 0, 0]	n/a	catFR1	1	R1401J
1144.527	12.38	1177380	REC_WORD	11.795	n/a	GIRAFFE	Zoo	-999	9	[0, 0, 0]	n/a	catFR1	1	R1401J
1156.907	0.355	1189760	REC_WORD_VV	24.175	n/a	<>	n/a	-999	9	[0, 0, 0]	n/a	catFR1	1	R1401J
1157.262	5.679	1190115	REC_WORD	24.53	n/a	GIRAFFE	Zoo	-999	9	[0, 0, 0]	n/a	catFR1	1	R1401J
1162.941	3.257	1195786	REC_END	n/a	n/a	n/a	n/a	-999	9	[0, 0, 0]	n/a	catFR1	1	R1401J
1166.198	10.362	1199052	COUNTDOWN_START	n/a	n/a	n/a	n/a	-999	10	[0, 0, 0]	n/a	catFR1	1	R1401J
1176.56	0.001	1209414	COUNTDOWN_END	n/a	n/a	n/a	n/a	-999	10	[0, 0, 0]	n/a	catFR1	1	R1401J
1176.561	2.337	1209414	ENCODING_START	n/a	n/a	n/a	n/a	-999	10	[0, 0, 0]	n/a	catFR1	1	R1401J
1178.898	1.6	1211749	WORD	n/a	wordpools/wordpool_categorized_EN.txt	BEER	Beverages	1	10	[0, 0, 0]	n/a	catFR1	1	R1401J
1180.498	0.766	1213352	WORD_OFF	n/a	n/a	BEER	Beverages	1	10	[0, 0, 0]	n/a	catFR1	1	R1401J
1181.264	1.6	1214115	WORD	n/a	wordpools/wordpool_categorized_EN.txt	LEMONADE	Beverages	2	10	[0, 0, 0]	n/a	catFR1	1	R1401J
1182.864	0.984	1215717	WORD_OFF	n/a	n/a	LEMONADE	Beverages	2	10	[0, 0, 0]	n/a	catFR1	1	R1401J
1183.848	1.616	1216694	WORD	n/a	wordpools/wordpool_categorized_EN.txt	VIOLIN	Instruments	3	10	[0, 0, 0]	n/a	catFR1	1	R1401J
1185.464	0.867	1218312	WORD_OFF	n/a	n/a	VIOLIN	Instruments	3	10	[0, 0, 0]	n/a	catFR1	1	R1401J
1186.331	1.616	1219182	WORD	n/a	wordpools/wordpool_categorized_EN.txt	ORGAN	Instruments	4	10	[0, 0, 0]	n/a	catFR1	1	R1401J
1187.947	0.917	1220799	WORD_OFF	n/a	n/a	ORGAN	Instruments	4	10	[0, 0, 0]	n/a	catFR1	1	R1401J
1188.864	1.6	1221715	WORD	n/a	wordpools/wordpool_categorized_EN.txt	DRILL	Tools	5	10	[0, 0, 0]	n/a	catFR1	1	R1401J
1190.464	0.967	1223317	WORD_OFF	n/a	n/a	DRILL	Tools	5	10	[0, 0, 0]	n/a	catFR1	1	R1401J
1191.431	1.6	1224279	WORD	n/a	wordpools/wordpool_categorized_EN.txt	HAMMER	Tools	6	10	[0, 0, 0]	n/a	catFR1	1	R1401J
1193.031	0.983	1225881	WORD_OFF	n/a	n/a	HAMMER	Tools	6	10	[0, 0, 0]	n/a	catFR1	1	R1401J
1194.014	1.6	1226873	WORD	n/a	wordpools/wordpool_categorized_EN.txt	GUITAR	Instruments	7	10	[0, 0, 0]	n/a	catFR1	1	R1401J
1195.614	0.783	1228461	WORD_OFF	n/a	n/a	GUITAR	Instruments	7	10	[0, 0, 0]	n/a	catFR1	1	R1401J
1196.397	1.601	1229254	WORD	n/a	wordpools/wordpool_categorized_EN.txt	DRUM	Instruments	8	10	[0, 0, 0]	n/a	catFR1	1	R1401J
1197.998	0.883	1230841	WORD_OFF	n/a	n/a	DRUM	Instruments	8	10	[0, 0, 0]	n/a	catFR1	1	R1401J
1198.881	1.6	1231727	WORD	n/a	wordpools/wordpool_categorized_EN.txt	RATCHET	Tools	9	10	[0, 0, 0]	n/a	catFR1	1	R1401J
1200.481	0.917	1233329	WORD_OFF	n/a	n/a	RATCHET	Tools	9	10	[0, 0, 0]	n/a	catFR1	1	R1401J
1201.398	1.601	1234245	WORD	n/a	wordpools/wordpool_categorized_EN.txt	SHOVEL	Tools	10	10	[0, 0, 0]	n/a	catFR1	1	R1401J
1202.999	0.882	1235847	WORD_OFF	n/a	n/a	SHOVEL	Tools	10	10	[0, 0, 0]	n/a	catFR1	1	R1401J
1203.881	1.601	1236732	WORD	n/a	wordpools/wordpool_categorized_EN.txt	CIDER	Beverages	11	10	[0, 0, 0]	n/a	catFR1	1	R1401J
1205.482	0.966	1238335	WORD_OFF	n/a	n/a	CIDER	Beverages	11	10	[0, 0, 0]	n/a	catFR1	1	R1401J
1206.448	1.616	1239296	WORD	n/a	wordpools/wordpool_categorized_EN.txt	WINE	Beverages	12	10	[0, 0, 0]	n/a	catFR1	1	R1401J
1208.064	0.001	1240914	WORD_OFF	n/a	n/a	WINE	Beverages	12	10	[0, 0, 0]	n/a	catFR1	1	R1401J
1208.065	0.0	1240914	ENCODING_END	n/a	n/a	n/a	n/a	-999	10	[0, 0, 0]	n/a	catFR1	1	R1401J
1208.065	0.0	1240914	DISTRACT_START	n/a	n/a	n/a	n/a	-999	10	[0, 0, 0]	n/a	catFR1	1	R1401J
1208.065	0.0	1240915	START	n/a	n/a	n/a	n/a	-999	10	[-999, -999, -999]	n/a	catFR1	1	R1401J
1208.065	7.283	1240915	PROB	7.267	n/a	n/a	n/a	-999	10	[3, 2, 1]	6.0	catFR1	1	R1401J
1215.348	7.684	1248198	PROB	7.667	n/a	n/a	n/a	-999	10	[3, 8, 8]	19.0	catFR1	1	R1401J
1223.032	18.483	1255882	PROB	18.466	n/a	n/a	n/a	-999	10	[6, 2, 7]	15.0	catFR1	1	R1401J
1241.515	0.0	1274364	STOP	n/a	n/a	n/a	n/a	-999	10	[-999, -999, -999]	n/a	catFR1	1	R1401J
1241.515	2.266	1274367	DISTRACT_END	n/a	n/a	n/a	n/a	-999	10	[0, 0, 0]	n/a	catFR1	1	R1401J
1243.781	0.345	1276634	REC_START	n/a	n/a	n/a	n/a	-999	10	[0, 0, 0]	n/a	catFR1	1	R1401J
1244.126	0.815	1276975	REC_WORD	0.345	n/a	BEER	Beverages	1	10	[0, 0, 0]	n/a	catFR1	1	R1401J
1244.941	4.51	1277790	REC_WORD	1.16	n/a	LEMONADE	Beverages	2	10	[0, 0, 0]	n/a	catFR1	1	R1401J
1249.451	2.64	1282300	REC_WORD	5.67	n/a	HAMMER	Tools	6	10	[0, 0, 0]	n/a	catFR1	1	R1401J
1252.091	3.13	1284940	REC_WORD	8.31	n/a	HAMMER	Tools	6	10	[0, 0, 0]	n/a	catFR1	1	R1401J
1255.221	16.024	1288070	REC_WORD	11.44	n/a	RATCHET	Tools	9	10	[0, 0, 0]	n/a	catFR1	1	R1401J
1271.245	1.383	1304093	REC_WORD	27.464	n/a	CIDER	Beverages	11	10	[0, 0, 0]	n/a	catFR1	1	R1401J
1272.628	1.367	1305476	REC_WORD	28.847	n/a	WINE	Beverages	12	10	[0, 0, 0]	n/a	catFR1	1	R1401J
1273.995	4.753	1306844	REC_END	n/a	n/a	n/a	n/a	-999	10	[0, 0, 0]	n/a	catFR1	1	R1401J
1278.748	10.363	1311605	COUNTDOWN_START	n/a	n/a	n/a	n/a	-999	11	[0, 0, 0]	n/a	catFR1	1	R1401J
1289.111	0.0	1321953	COUNTDOWN_END	n/a	n/a	n/a	n/a	-999	11	[0, 0, 0]	n/a	catFR1	1	R1401J
1289.111	2.07	1321968	ENCODING_START	n/a	n/a	n/a	n/a	-999	11	[0, 0, 0]	n/a	catFR1	1	R1401J
1291.181	1.6	1324028	WORD	n/a	wordpools/wordpool_categorized_EN.txt	PIANO	Instruments	1	11	[0, 0, 0]	n/a	catFR1	1	R1401J
1292.781	0.85	1325631	WORD_OFF	n/a	n/a	PIANO	Instruments	1	11	[0, 0, 0]	n/a	catFR1	1	R1401J
1293.631	1.6	1326485	WORD	n/a	wordpools/wordpool_categorized_EN.txt	TUBA	Instruments	2	11	[0, 0, 0]	n/a	catFR1	1	R1401J
1295.231	0.766	1328072	WORD_OFF	n/a	n/a	TUBA	Instruments	2	11	[0, 0, 0]	n/a	catFR1	1	R1401J
1295.997	1.617	1328851	WORD	n/a	wordpools/wordpool_categorized_EN.txt	DRESSER	Furniture	3	11	[0, 0, 0]	n/a	catFR1	1	R1401J
1297.614	0.983	1330469	WORD_OFF	n/a	n/a	DRESSER	Furniture	3	11	[0, 0, 0]	n/a	catFR1	1	R1401J
1298.597	1.601	1331445	WORD	n/a	wordpools/wordpool_categorized_EN.txt	TABLE	Furniture	4	11	[0, 0, 0]	n/a	catFR1	1	R1401J
1300.198	0.95	1333048	WORD_OFF	n/a	n/a	TABLE	Furniture	4	11	[0, 0, 0]	n/a	catFR1	1	R1401J
1301.148	1.6	1333994	WORD	n/a	wordpools/wordpool_categorized_EN.txt	ERASER	OfficeSupplies	5	11	[0, 0, 0]	n/a	catFR1	1	R1401J
1302.748	0.933	1335596	WORD_OFF	n/a	n/a	ERASER	OfficeSupplies	5	11	[0, 0, 0]	n/a	catFR1	1	R1401J
1303.681	1.601	1336527	WORD	n/a	wordpools/wordpool_categorized_EN.txt	GLUE	OfficeSupplies	6	11	[0, 0, 0]	n/a	catFR1	1	R1401J
1305.282	0.966	1338130	WORD_OFF	n/a	n/a	GLUE	OfficeSupplies	6	11	[0, 0, 0]	n/a	catFR1	1	R1401J
1306.248	1.617	1339091	WORD	n/a	wordpools/wordpool_categorized_EN.txt	NIGHTSTAND	Furniture	7	11	[0, 0, 0]	n/a	catFR1	1	R1401J
1307.865	0.967	1340709	WORD_OFF	n/a	n/a	NIGHTSTAND	Furniture	7	11	[0, 0, 0]	n/a	catFR1	1	R1401J
1308.832	1.6	1341686	WORD	n/a	wordpools/wordpool_categorized_EN.txt	RECLINER	Furniture	8	11	[0, 0, 0]	n/a	catFR1	1	R1401J
1310.432	0.783	1343273	WORD_OFF	n/a	n/a	RECLINER	Furniture	8	11	[0, 0, 0]	n/a	catFR1	1	R1401J
1311.215	1.6	1344067	WORD	n/a	wordpools/wordpool_categorized_EN.txt	BANJO	Instruments	9	11	[0, 0, 0]	n/a	catFR1	1	R1401J
1312.815	0.9	1345669	WORD_OFF	n/a	n/a	BANJO	Instruments	9	11	[0, 0, 0]	n/a	catFR1	1	R1401J
1313.715	1.616	1346554	WORD	n/a	wordpools/wordpool_categorized_EN.txt	TRUMPET	Instruments	10	11	[0, 0, 0]	n/a	catFR1	1	R1401J
1315.331	0.916	1348172	WORD_OFF	n/a	n/a	TRUMPET	Instruments	10	11	[0, 0, 0]	n/a	catFR1	1	R1401J
1316.247	1.601	1349088	WORD	n/a	wordpools/wordpool_categorized_EN.txt	NOTEBOOK	OfficeSupplies	11	11	[0, 0, 0]	n/a	catFR1	1	R1401J
1317.848	0.867	1350690	WORD_OFF	n/a	n/a	NOTEBOOK	OfficeSupplies	11	11	[0, 0, 0]	n/a	catFR1	1	R1401J
1318.715	1.617	1351560	WORD	n/a	wordpools/wordpool_categorized_EN.txt	RULER	OfficeSupplies	12	11	[0, 0, 0]	n/a	catFR1	1	R1401J
1320.332	0.001	1353178	WORD_OFF	n/a	n/a	RULER	OfficeSupplies	12	11	[0, 0, 0]	n/a	catFR1	1	R1401J
1320.333	0.0	1353178	ENCODING_END	n/a	n/a	n/a	n/a	-999	11	[0, 0, 0]	n/a	catFR1	1	R1401J
1320.333	0.0	1353178	DISTRACT_START	n/a	n/a	n/a	n/a	-999	11	[0, 0, 0]	n/a	catFR1	1	R1401J
1320.332	0.001	1353178	PROB	5.649	n/a	n/a	n/a	-999	11	[5, 2, 5]	12.0	catFR1	1	R1401J
1320.333	5.666	1353179	START	n/a	n/a	n/a	n/a	-999	11	[-999, -999, -999]	n/a	catFR1	1	R1401J
1325.999	11.216	1358845	PROB	11.198	n/a	n/a	n/a	-999	11	[6, 8, 1]	15.0	catFR1	1	R1401J
1337.215	22.716	1370060	PROB	22.7	n/a	n/a	n/a	-999	11	[7, 5, 2]	14.0	catFR1	1	R1401J
1359.931	0.0	1392775	STOP	n/a	n/a	n/a	n/a	-999	11	[-999, -999, -999]	n/a	catFR1	1	R1401J
1359.931	2.017	1392781	DISTRACT_END	n/a	n/a	n/a	n/a	-999	11	[0, 0, 0]	n/a	catFR1	1	R1401J
1361.948	0.954	1394789	REC_START	n/a	n/a	n/a	n/a	-999	11	[0, 0, 0]	n/a	catFR1	1	R1401J
1362.902	1.256	1395746	REC_WORD_VV	0.954	n/a	<>	n/a	-999	11	[0, 0, 0]	n/a	catFR1	1	R1401J
1364.158	3.01	1397002	REC_WORD	2.21	n/a	BANJO	Instruments	9	11	[0, 0, 0]	n/a	catFR1	1	R1401J
1367.168	0.55	1400012	REC_WORD	5.22	n/a	BANJO	Instruments	9	11	[0, 0, 0]	n/a	catFR1	1	R1401J
1367.718	11.955	1400562	REC_WORD	5.77	n/a	TRUMPET	Instruments	10	11	[0, 0, 0]	n/a	catFR1	1	R1401J
1379.673	1.0	1412516	REC_WORD_VV	17.725	n/a	<>	n/a	-999	11	[0, 0, 0]	n/a	catFR1	1	R1401J
1380.673	8.81	1413516	REC_WORD_VV	18.725	n/a	<>	n/a	-999	11	[0, 0, 0]	n/a	catFR1	1	R1401J
1389.483	0.475	1422326	REC_WORD	27.535	n/a	CHAIR	n/a	-999	11	[0, 0, 0]	n/a	catFR1	1	R1401J
1389.958	2.184	1422801	REC_WORD	28.01	n/a	TABLE	Furniture	4	11	[0, 0, 0]	n/a	catFR1	1	R1401J
1392.142	2.94	1424987	REC_END	n/a	n/a	n/a	n/a	-999	11	[0, 0, 0]	n/a	catFR1	1	R1401J
1395.082	10.365	1427932	COUNTDOWN_START	n/a	n/a	n/a	n/a	-999	12	[0, 0, 0]	n/a	catFR1	1	R1401J
1405.447	0.0	1438295	COUNTDOWN_END	n/a	n/a	n/a	n/a	-999	12	[0, 0, 0]	n/a	catFR1	1	R1401J
1405.447	2.018	1438295	ENCODING_START	n/a	n/a	n/a	n/a	-999	12	[0, 0, 0]	n/a	catFR1	1	R1401J
1407.465	1.617	1440310	WORD	n/a	wordpools/wordpool_categorized_EN.txt	CLOUD	Weather	1	12	[0, 0, 0]	n/a	catFR1	1	R1401J
1409.082	0.816	1441927	WORD_OFF	n/a	n/a	CLOUD	Weather	1	12	[0, 0, 0]	n/a	catFR1	1	R1401J
1409.898	1.601	1442736	WORD	n/a	wordpools/wordpool_categorized_EN.txt	SNOW	Weather	2	12	[0, 0, 0]	n/a	catFR1	1	R1401J
1411.499	0.816	1444339	WORD_OFF	n/a	n/a	SNOW	Weather	2	12	[0, 0, 0]	n/a	catFR1	1	R1401J
1412.315	1.6	1445163	WORD	n/a	wordpools/wordpool_categorized_EN.txt	FOLDER	OfficeSupplies	3	12	[0, 0, 0]	n/a	catFR1	1	R1401J
1413.915	0.917	1446765	WORD_OFF	n/a	n/a	FOLDER	OfficeSupplies	3	12	[0, 0, 0]	n/a	catFR1	1	R1401J
1414.832	1.6	1447681	WORD	n/a	wordpools/wordpool_categorized_EN.txt	PAPER	OfficeSupplies	4	12	[0, 0, 0]	n/a	catFR1	1	R1401J
1416.432	1.0	1449268	WORD_OFF	n/a	n/a	PAPER	OfficeSupplies	4	12	[0, 0, 0]	n/a	catFR1	1	R1401J
1417.432	1.6	1450275	WORD	n/a	wordpools/wordpool_categorized_EN.txt	ROBIN	Birds	5	12	[0, 0, 0]	n/a	catFR1	1	R1401J
1419.032	0.9	1451878	WORD_OFF	n/a	n/a	ROBIN	Birds	5	12	[0, 0, 0]	n/a	catFR1	1	R1401J
1419.932	1.617	1452778	WORD	n/a	wordpools/wordpool_categorized_EN.txt	FINCH	Birds	6	12	[0, 0, 0]	n/a	catFR1	1	R1401J
1421.549	0.899	1454396	WORD_OFF	n/a	n/a	FINCH	Birds	6	12	[0, 0, 0]	n/a	catFR1	1	R1401J
1422.448	1.601	1455296	WORD	n/a	wordpools/wordpool_categorized_EN.txt	WIND	Weather	7	12	[0, 0, 0]	n/a	catFR1	1	R1401J
1424.049	0.933	1456884	WORD_OFF	n/a	n/a	WIND	Weather	7	12	[0, 0, 0]	n/a	catFR1	1	R1401J
1424.982	1.6	1457830	WORD	n/a	wordpools/wordpool_categorized_EN.txt	THUNDER	Weather	8	12	[0, 0, 0]	n/a	catFR1	1	R1401J
1426.582	0.899	1459417	WORD_OFF	n/a	n/a	THUNDER	Weather	8	12	[0, 0, 0]	n/a	catFR1	1	R1401J
1427.481	1.601	1460317	WORD	n/a	wordpools/wordpool_categorized_EN.txt	CROW	Birds	9	12	[0, 0, 0]	n/a	catFR1	1	R1401J
1429.082	0.999	1461920	WORD_OFF	n/a	n/a	CROW	Birds	9	12	[0, 0, 0]	n/a	catFR1	1	R1401J
1430.081	1.601	1462927	WORD	n/a	wordpools/wordpool_categorized_EN.txt	DUCK	Birds	10	12	[0, 0, 0]	n/a	catFR1	1	R1401J
1431.682	0.9	1464530	WORD_OFF	n/a	n/a	DUCK	Birds	10	12	[0, 0, 0]	n/a	catFR1	1	R1401J
1432.582	1.616	1465430	WORD	n/a	wordpools/wordpool_categorized_EN.txt	MARKER	OfficeSupplies	11	12	[0, 0, 0]	n/a	catFR1	1	R1401J
1434.198	0.767	1467032	WORD_OFF	n/a	n/a	MARKER	OfficeSupplies	11	12	[0, 0, 0]	n/a	catFR1	1	R1401J
1434.965	1.601	1467811	WORD	n/a	wordpools/wordpool_categorized_EN.txt	STAPLER	OfficeSupplies	12	12	[0, 0, 0]	n/a	catFR1	1	R1401J
1436.566	0.001	1469407	PROB	13.916	n/a	n/a	n/a	-999	12	[5, 4, 7]	16.0	catFR1	1	R1401J
1436.567	0.0	1469408	START	n/a	n/a	n/a	n/a	-999	12	[-999, -999, -999]	n/a	catFR1	1	R1401J
1436.565	0.002	1469413	WORD_OFF	n/a	n/a	STAPLER	OfficeSupplies	12	12	[0, 0, 0]	n/a	catFR1	1	R1401J
1436.567	0.0	1469413	ENCODING_END	n/a	n/a	n/a	n/a	-999	12	[0, 0, 0]	n/a	catFR1	1	R1401J
1436.567	13.932	1469413	DISTRACT_START	n/a	n/a	n/a	n/a	-999	12	[0, 0, 0]	n/a	catFR1	1	R1401J
1450.499	7.733	1483339	PROB	7.716	n/a	n/a	n/a	-999	12	[7, 1, 7]	15.0	catFR1	1	R1401J
1458.232	0.0	1491069	DISTRACT_END	n/a	n/a	n/a	n/a	-999	12	[0, 0, 0]	n/a	catFR1	1	R1401J
1458.232	2.133	1491072	STOP	n/a	n/a	n/a	n/a	-999	12	[-999, -999, -999]	n/a	catFR1	1	R1401J
1460.365	2.094	1493199	REC_START	n/a	n/a	n/a	n/a	-999	12	[0, 0, 0]	n/a	catFR1	1	R1401J
1462.459	1.957	1495299	REC_WORD_VV	2.094	n/a	<>	n/a	-999	12	[0, 0, 0]	n/a	catFR1	1	R1401J
1464.416	0.575	1497256	REC_WORD_VV	4.051	n/a	<>	n/a	-999	12	[0, 0, 0]	n/a	catFR1	1	R1401J
1464.991	2.69	1497831	REC_WORD_VV	4.626	n/a	<>	n/a	-999	12	[0, 0, 0]	n/a	catFR1	1	R1401J
1467.681	0.696	1500521	REC_WORD	7.316	n/a	ROBIN	Birds	5	12	[0, 0, 0]	n/a	catFR1	1	R1401J
1468.377	1.812	1501217	REC_WORD	8.012	n/a	FINCH	Birds	6	12	[0, 0, 0]	n/a	catFR1	1	R1401J
1470.189	1.0	1503029	REC_WORD	9.824	n/a	CROW	Birds	9	12	[0, 0, 0]	n/a	catFR1	1	R1401J
1471.189	1.05	1504029	REC_WORD_VV	10.824	n/a	<>	n/a	-999	12	[0, 0, 0]	n/a	catFR1	1	R1401J
1472.239	9.065	1505079	REC_WORD	11.874	n/a	DUCK	Birds	10	12	[0, 0, 0]	n/a	catFR1	1	R1401J
1481.304	9.274	1514143	REC_WORD	20.939	n/a	DUCK	Birds	10	12	[0, 0, 0]	n/a	catFR1	1	R1401J
1490.578	0.0	1523424	REC_END	n/a	n/a	n/a	n/a	-999	12	[0, 0, 0]	n/a	catFR1	1	R1401J
