onset	duration	sample	trial_type	response_time	stim_file	item_name	category	serialpos	list	test	answer	experiment	session	subject
0.0	0.0	103652	INSTRUCT_START	n/a	n/a	n/a	n/a	-999	-999	[0, 0, 0]	n/a	catFR1	2	R1181E
0.0	10.964	103652	INSTRUCT_END	n/a	n/a	n/a	n/a	-999	-999	[0, 0, 0]	n/a	catFR1	2	R1181E
10.964	0.0	114616	SESS_START	n/a	n/a	n/a	n/a	-999	-999	[0, 0, 0]	n/a	catFR1	2	R1181E
10.964	19.0	114616	MIC_TEST	n/a	n/a	n/a	n/a	-999	-999	[0, 0, 0]	n/a	catFR1	2	R1181E
29.964	10.593	133615	PRACTICE_TRIAL	n/a	n/a	n/a	n/a	-999	-1	[0, 0, 0]	n/a	catFR1	2	R1181E
40.557	10.428	144208	COUNTDOWN_START	n/a	n/a	n/a	n/a	-999	-1	[0, 0, 0]	n/a	catFR1	2	R1181E
50.985	0.007	154635	COUNTDOWN_END	n/a	n/a	n/a	n/a	-999	-1	[0, 0, 0]	n/a	catFR1	2	R1181E
50.992	1.616	154642	PRACTICE_ORIENT	n/a	n/a	n/a	n/a	-999	-1	[0, 0, 0]	n/a	catFR1	2	R1181E
52.608	1.884	156258	PRACTICE_ORIENT_OFF	n/a	n/a	n/a	n/a	-999	-1	[0, 0, 0]	n/a	catFR1	2	R1181E
54.492	1.618	158142	PRACTICE_WORD	n/a	n/a	BEAM	n/a	-1	-1	[0, 0, 0]	n/a	catFR1	2	R1181E
56.11	1.0	159760	PRACTICE_WORD_OFF	n/a	n/a	BEAM	n/a	-999	-1	[0, 0, 0]	n/a	catFR1	2	R1181E
57.11	1.616	160760	PRACTICE_WORD	n/a	n/a	IRON	n/a	-1	-1	[0, 0, 0]	n/a	catFR1	2	R1181E
58.726	0.833	162376	PRACTICE_WORD_OFF	n/a	n/a	IRON	n/a	-999	-1	[0, 0, 0]	n/a	catFR1	2	R1181E
59.559	1.618	163209	PRACTICE_WORD	n/a	n/a	ATTIC	n/a	-1	-1	[0, 0, 0]	n/a	catFR1	2	R1181E
61.177	0.984	164827	PRACTICE_WORD_OFF	n/a	n/a	ATTIC	n/a	-999	-1	[0, 0, 0]	n/a	catFR1	2	R1181E
62.161	1.616	165811	PRACTICE_WORD	n/a	n/a	TONGUE	n/a	-1	-1	[0, 0, 0]	n/a	catFR1	2	R1181E
63.777	0.966	167427	PRACTICE_WORD_OFF	n/a	n/a	TONGUE	n/a	-999	-1	[0, 0, 0]	n/a	catFR1	2	R1181E
64.743	1.618	168393	PRACTICE_WORD	n/a	n/a	FLOOD	n/a	-1	-1	[0, 0, 0]	n/a	catFR1	2	R1181E
66.361	0.917	170011	PRACTICE_WORD_OFF	n/a	n/a	FLOOD	n/a	-999	-1	[0, 0, 0]	n/a	catFR1	2	R1181E
67.278	1.617	170928	PRACTICE_WORD	n/a	n/a	WAGON	n/a	-1	-1	[0, 0, 0]	n/a	catFR1	2	R1181E
68.895	0.949	172544	PRACTICE_WORD_OFF	n/a	n/a	WAGON	n/a	-999	-1	[0, 0, 0]	n/a	catFR1	2	R1181E
69.844	1.601	173493	PRACTICE_WORD	n/a	n/a	RHINO	n/a	-1	-1	[0, 0, 0]	n/a	catFR1	2	R1181E
71.445	0.9	175094	PRACTICE_WORD_OFF	n/a	n/a	RHINO	n/a	-999	-1	[0, 0, 0]	n/a	catFR1	2	R1181E
72.345	1.618	175994	PRACTICE_WORD	n/a	n/a	RING	n/a	-1	-1	[0, 0, 0]	n/a	catFR1	2	R1181E
73.963	0.933	177612	PRACTICE_WORD_OFF	n/a	n/a	RING	n/a	-999	-1	[0, 0, 0]	n/a	catFR1	2	R1181E
74.896	1.616	178545	PRACTICE_WORD	n/a	n/a	COTTON	n/a	-1	-1	[0, 0, 0]	n/a	catFR1	2	R1181E
76.512	0.801	180161	PRACTICE_WORD_OFF	n/a	n/a	COTTON	n/a	-999	-1	[0, 0, 0]	n/a	catFR1	2	R1181E
77.313	1.617	180962	PRACTICE_WORD	n/a	n/a	CAMEL	n/a	-1	-1	[0, 0, 0]	n/a	catFR1	2	R1181E
78.93	0.883	182579	PRACTICE_WORD_OFF	n/a	n/a	CAMEL	n/a	-999	-1	[0, 0, 0]	n/a	catFR1	2	R1181E
79.813	1.618	183462	PRACTICE_WORD	n/a	n/a	WATCH	n/a	-1	-1	[0, 0, 0]	n/a	catFR1	2	R1181E
81.431	1.0	185080	PRACTICE_WORD_OFF	n/a	n/a	WATCH	n/a	-999	-1	[0, 0, 0]	n/a	catFR1	2	R1181E
82.431	1.617	186080	PRACTICE_WORD	n/a	n/a	CHEST	n/a	-1	-1	[0, 0, 0]	n/a	catFR1	2	R1181E
84.048	0.0	187697	ENCODING_END	n/a	n/a	n/a	n/a	-999	-1	[0, 0, 0]	n/a	catFR1	2	R1181E
84.048	0.0	187697	PRACTICE_WORD_OFF	n/a	n/a	CHEST	n/a	-999	-1	[0, 0, 0]	n/a	catFR1	2	R1181E
84.048	0.0	187697	DISTRACT_START	n/a	n/a	n/a	n/a	-999	-1	[0, 0, 0]	n/a	catFR1	2	R1181E
84.048	0.016	187697	START	n/a	n/a	n/a	n/a	-999	-1	[-999, -999, -999]	n/a	catFR1	2	R1181E
84.064	5.534	187713	PROB	5.534	n/a	n/a	n/a	-999	-1	[5, 2, 6]	12	catFR1	2	R1181E
89.598	6.101	193247	PROB	6.101	n/a	n/a	n/a	-999	-1	[8, 3, 2]	14	catFR1	2	R1181E
95.699	5.669	199347	PROB	5.669	n/a	n/a	n/a	-999	-1	[3, 3, 1]	7	catFR1	2	R1181E
101.368	4.671	205016	PROB	4.671	n/a	n/a	n/a	-999	-1	[7, 7, 4]	21	catFR1	2	R1181E
106.039	0.013	209687	STOP	n/a	n/a	n/a	n/a	-999	-1	[-999, -999, -999]	n/a	catFR1	2	R1181E
106.052	0.582	209700	DISTRACT_END	n/a	n/a	n/a	n/a	-999	-1	[0, 0, 0]	n/a	catFR1	2	R1181E
106.634	0.519	210282	RETRIEVAL_ORIENT	n/a	n/a	n/a	n/a	-999	-1	[0, 0, 0]	n/a	catFR1	2	R1181E
107.153	30.011	210801	PRACTICE_REC_START	n/a	n/a	n/a	n/a	-999	-1	[0, 0, 0]	n/a	catFR1	2	R1181E
137.164	69.688	240811	PRACTICE_REC_END	n/a	n/a	n/a	n/a	-999	-1	[0, 0, 0]	n/a	catFR1	2	R1181E
206.852	0.5	310496	TRIAL	n/a	n/a	n/a	n/a	-999	1	[0, 0, 0]	n/a	catFR1	2	R1181E
207.352	10.428	310996	COUNTDOWN_START	n/a	n/a	n/a	n/a	-999	1	[0, 0, 0]	n/a	catFR1	2	R1181E
217.78	0.007	321424	COUNTDOWN_END	n/a	n/a	n/a	n/a	-999	1	[0, 0, 0]	n/a	catFR1	2	R1181E
217.787	1.618	321431	ORIENT	n/a	n/a	n/a	n/a	-999	1	[0, 0, 0]	n/a	catFR1	2	R1181E
219.405	2.05	323049	ORIENT_OFF	n/a	n/a	n/a	n/a	-999	1	[0, 0, 0]	n/a	catFR1	2	R1181E
221.455	1.617	325099	WORD	n/a	wordpools/wordpool_categorized_EN.txt	CAULIFLOWER	Vegetables	1	1	[0, 0, 0]	n/a	catFR1	2	R1181E
223.072	0.934	326716	WORD_OFF	n/a	n/a	CAULIFLOWER	n/a	1	1	[0, 0, 0]	n/a	catFR1	2	R1181E
224.006	1.616	327650	WORD	n/a	wordpools/wordpool_categorized_EN.txt	SPINACH	Vegetables	2	1	[0, 0, 0]	n/a	catFR1	2	R1181E
225.622	0.767	329265	WORD_OFF	n/a	n/a	SPINACH	n/a	2	1	[0, 0, 0]	n/a	catFR1	2	R1181E
226.389	1.617	330032	WORD	n/a	wordpools/wordpool_categorized_EN.txt	LAMB	FarmAnimals	3	1	[0, 0, 0]	n/a	catFR1	2	R1181E
228.006	0.833	331649	WORD_OFF	n/a	n/a	LAMB	n/a	3	1	[0, 0, 0]	n/a	catFR1	2	R1181E
228.839	1.618	332482	WORD	n/a	wordpools/wordpool_categorized_EN.txt	HORSE	FarmAnimals	4	1	[0, 0, 0]	n/a	catFR1	2	R1181E
230.457	0.867	334100	WORD_OFF	n/a	n/a	HORSE	n/a	4	1	[0, 0, 0]	n/a	catFR1	2	R1181E
231.324	1.617	334967	WORD	n/a	wordpools/wordpool_categorized_EN.txt	ORCHID	Flowers	5	1	[0, 0, 0]	n/a	catFR1	2	R1181E
232.941	0.849	336584	WORD_OFF	n/a	n/a	ORCHID	n/a	5	1	[0, 0, 0]	n/a	catFR1	2	R1181E
233.79	1.618	337433	WORD	n/a	wordpools/wordpool_categorized_EN.txt	MARIGOLD	Flowers	6	1	[0, 0, 0]	n/a	catFR1	2	R1181E
235.408	0.883	339051	WORD_OFF	n/a	n/a	MARIGOLD	n/a	6	1	[0, 0, 0]	n/a	catFR1	2	R1181E
236.291	1.617	339934	WORD	n/a	wordpools/wordpool_categorized_EN.txt	CORN	Vegetables	7	1	[0, 0, 0]	n/a	catFR1	2	R1181E
237.908	0.933	341551	WORD_OFF	n/a	n/a	CORN	n/a	7	1	[0, 0, 0]	n/a	catFR1	2	R1181E
238.841	1.617	342484	WORD	n/a	wordpools/wordpool_categorized_EN.txt	POTATO	Vegetables	8	1	[0, 0, 0]	n/a	catFR1	2	R1181E
240.458	0.901	344101	WORD_OFF	n/a	n/a	POTATO	n/a	8	1	[0, 0, 0]	n/a	catFR1	2	R1181E
241.359	1.617	345002	WORD	n/a	wordpools/wordpool_categorized_EN.txt	HEN	FarmAnimals	9	1	[0, 0, 0]	n/a	catFR1	2	R1181E
242.976	0.799	346619	WORD_OFF	n/a	n/a	HEN	n/a	9	1	[0, 0, 0]	n/a	catFR1	2	R1181E
243.775	1.618	347418	WORD	n/a	wordpools/wordpool_categorized_EN.txt	CHICKEN	FarmAnimals	10	1	[0, 0, 0]	n/a	catFR1	2	R1181E
245.393	0.967	349036	WORD_OFF	n/a	n/a	CHICKEN	n/a	10	1	[0, 0, 0]	n/a	catFR1	2	R1181E
246.36	1.616	350003	WORD	n/a	wordpools/wordpool_categorized_EN.txt	DAISY	Flowers	11	1	[0, 0, 0]	n/a	catFR1	2	R1181E
247.976	0.85	351619	WORD_OFF	n/a	n/a	DAISY	n/a	11	1	[0, 0, 0]	n/a	catFR1	2	R1181E
248.826	1.618	352469	WORD	n/a	wordpools/wordpool_categorized_EN.txt	LILY	Flowers	12	1	[0, 0, 0]	n/a	catFR1	2	R1181E
250.444	0.0	354087	ENCODING_END	n/a	n/a	n/a	n/a	-999	1	[0, 0, 0]	n/a	catFR1	2	R1181E
250.444	0.169	354087	WORD_OFF	n/a	n/a	LILY	n/a	12	1	[0, 0, 0]	n/a	catFR1	2	R1181E
250.613	0.0	354256	DISTRACT_START	n/a	n/a	n/a	n/a	-999	1	[0, 0, 0]	n/a	catFR1	2	R1181E
250.613	0.013	354256	START	n/a	n/a	n/a	n/a	-999	1	[-999, -999, -999]	n/a	catFR1	2	R1181E
250.626	4.735	354269	PROB	4.735	n/a	n/a	n/a	-999	1	[2, 5, 7]	14	catFR1	2	R1181E
255.361	6.184	359003	PROB	6.184	n/a	n/a	n/a	-999	1	[3, 6, 8]	18	catFR1	2	R1181E
261.545	3.95	365187	PROB	3.95	n/a	n/a	n/a	-999	1	[1, 2, 1]	4	catFR1	2	R1181E
265.495	5.226	369137	PROB	5.226	n/a	n/a	n/a	-999	1	[1, 8, 4]	12	catFR1	2	R1181E
270.721	0.008	374363	STOP	n/a	n/a	n/a	n/a	-999	1	[-999, -999, -999]	n/a	catFR1	2	R1181E
270.729	0.535	374371	DISTRACT_END	n/a	n/a	n/a	n/a	-999	1	[0, 0, 0]	n/a	catFR1	2	R1181E
271.264	0.516	374906	RETRIEVAL_ORIENT	n/a	n/a	n/a	n/a	-999	1	[0, 0, 0]	n/a	catFR1	2	R1181E
271.78	2.872	375422	REC_START	n/a	n/a	n/a	n/a	-999	1	[0, 0, 0]	n/a	catFR1	2	R1181E
274.652	2.161	378294	REC_WORD	2.161	n/a	BEAN	n/a	-999	1	[0, 0, 0]	n/a	catFR1	2	R1181E
276.813	0.964	380455	REC_WORD	0.964	n/a	CAULIFLOWER	Vegetables	1	1	[0, 0, 0]	n/a	catFR1	2	R1181E
277.777	1.42	381418	REC_WORD	1.42	n/a	SPINACH	Vegetables	2	1	[0, 0, 0]	n/a	catFR1	2	R1181E
279.197	1.245	382838	REC_WORD	1.245	n/a	GOLD	n/a	-999	1	[0, 0, 0]	n/a	catFR1	2	R1181E
280.442	0.95	384083	REC_WORD	0.95	n/a	RING	n/a	-999	1	[0, 0, 0]	n/a	catFR1	2	R1181E
281.392	4.127	385033	REC_WORD	4.127	n/a	HORSE	FarmAnimals	4	1	[0, 0, 0]	n/a	catFR1	2	R1181E
285.519	2.339	389160	REC_WORD	2.339	n/a	POTATO	Vegetables	8	1	[0, 0, 0]	n/a	catFR1	2	R1181E
287.858	1.818	391499	REC_WORD	1.818	n/a	TOMATO	n/a	-999	1	[0, 0, 0]	n/a	catFR1	2	R1181E
289.676	4.081	393317	REC_WORD	4.081	n/a	DAISY	Flowers	11	1	[0, 0, 0]	n/a	catFR1	2	R1181E
293.757	8.032	397398	REC_WORD	8.032	n/a	ORCHID	Flowers	5	1	[0, 0, 0]	n/a	catFR1	2	R1181E
301.789	6.215	405430	REC_END	n/a	n/a	n/a	n/a	-999	1	[0, 0, 0]	n/a	catFR1	2	R1181E
308.004	0.5	411644	TRIAL	n/a	n/a	n/a	n/a	-999	2	[0, 0, 0]	n/a	catFR1	2	R1181E
308.504	10.428	412144	COUNTDOWN_START	n/a	n/a	n/a	n/a	-999	2	[0, 0, 0]	n/a	catFR1	2	R1181E
318.932	0.007	422572	COUNTDOWN_END	n/a	n/a	n/a	n/a	-999	2	[0, 0, 0]	n/a	catFR1	2	R1181E
318.939	1.616	422579	ORIENT	n/a	n/a	n/a	n/a	-999	2	[0, 0, 0]	n/a	catFR1	2	R1181E
320.555	1.933	424195	ORIENT_OFF	n/a	n/a	n/a	n/a	-999	2	[0, 0, 0]	n/a	catFR1	2	R1181E
322.488	1.601	426128	WORD	n/a	wordpools/wordpool_categorized_EN.txt	GORILLA	Zoo	1	2	[0, 0, 0]	n/a	catFR1	2	R1181E
324.089	0.884	427729	WORD_OFF	n/a	n/a	GORILLA	n/a	1	2	[0, 0, 0]	n/a	catFR1	2	R1181E
324.973	1.616	428613	WORD	n/a	wordpools/wordpool_categorized_EN.txt	ZEBRA	Zoo	2	2	[0, 0, 0]	n/a	catFR1	2	R1181E
326.589	1.0	430229	WORD_OFF	n/a	n/a	ZEBRA	n/a	2	2	[0, 0, 0]	n/a	catFR1	2	R1181E
327.589	1.618	431229	WORD	n/a	wordpools/wordpool_categorized_EN.txt	STRAINER	KitchenTools	3	2	[0, 0, 0]	n/a	catFR1	2	R1181E
329.207	1.0	432847	WORD_OFF	n/a	n/a	STRAINER	n/a	3	2	[0, 0, 0]	n/a	catFR1	2	R1181E
330.207	1.616	433846	WORD	n/a	wordpools/wordpool_categorized_EN.txt	COLANDER	KitchenTools	4	2	[0, 0, 0]	n/a	catFR1	2	R1181E
331.823	0.934	435462	WORD_OFF	n/a	n/a	COLANDER	n/a	4	2	[0, 0, 0]	n/a	catFR1	2	R1181E
332.757	1.618	436396	WORD	n/a	wordpools/wordpool_categorized_EN.txt	LADYBUG	Insects	5	2	[0, 0, 0]	n/a	catFR1	2	R1181E
334.375	0.883	438014	WORD_OFF	n/a	n/a	LADYBUG	n/a	5	2	[0, 0, 0]	n/a	catFR1	2	R1181E
335.258	1.616	438897	WORD	n/a	wordpools/wordpool_categorized_EN.txt	CRICKET	Insects	6	2	[0, 0, 0]	n/a	catFR1	2	R1181E
336.874	0.8	440513	WORD_OFF	n/a	n/a	CRICKET	n/a	6	2	[0, 0, 0]	n/a	catFR1	2	R1181E
337.674	1.618	441313	WORD	n/a	wordpools/wordpool_categorized_EN.txt	FORK	KitchenTools	7	2	[0, 0, 0]	n/a	catFR1	2	R1181E
339.292	0.917	442931	WORD_OFF	n/a	n/a	FORK	n/a	7	2	[0, 0, 0]	n/a	catFR1	2	R1181E
340.209	1.616	443848	WORD	n/a	wordpools/wordpool_categorized_EN.txt	WHISK	KitchenTools	8	2	[0, 0, 0]	n/a	catFR1	2	R1181E
341.825	0.817	445464	WORD_OFF	n/a	n/a	WHISK	n/a	8	2	[0, 0, 0]	n/a	catFR1	2	R1181E
342.642	1.618	446281	WORD	n/a	wordpools/wordpool_categorized_EN.txt	LION	Zoo	9	2	[0, 0, 0]	n/a	catFR1	2	R1181E
344.26	0.95	447899	WORD_OFF	n/a	n/a	LION	n/a	9	2	[0, 0, 0]	n/a	catFR1	2	R1181E
345.21	1.616	448849	WORD	n/a	wordpools/wordpool_categorized_EN.txt	ORANGUTAN	Zoo	10	2	[0, 0, 0]	n/a	catFR1	2	R1181E
346.826	0.967	450465	WORD_OFF	n/a	n/a	ORANGUTAN	n/a	10	2	[0, 0, 0]	n/a	catFR1	2	R1181E
347.793	1.618	451432	WORD	n/a	wordpools/wordpool_categorized_EN.txt	BEETLE	Insects	11	2	[0, 0, 0]	n/a	catFR1	2	R1181E
349.411	0.983	453050	WORD_OFF	n/a	n/a	BEETLE	n/a	11	2	[0, 0, 0]	n/a	catFR1	2	R1181E
350.394	1.617	454033	WORD	n/a	wordpools/wordpool_categorized_EN.txt	ANT	Insects	12	2	[0, 0, 0]	n/a	catFR1	2	R1181E
352.011	0.001	455650	WORD_OFF	n/a	n/a	ANT	n/a	12	2	[0, 0, 0]	n/a	catFR1	2	R1181E
352.012	0.137	455651	ENCODING_END	n/a	n/a	n/a	n/a	-999	2	[0, 0, 0]	n/a	catFR1	2	R1181E
352.149	0.0	455788	DISTRACT_START	n/a	n/a	n/a	n/a	-999	2	[0, 0, 0]	n/a	catFR1	2	R1181E
352.149	0.012	455788	START	n/a	n/a	n/a	n/a	-999	2	[-999, -999, -999]	n/a	catFR1	2	R1181E
352.161	5.768	455800	PROB	5.768	n/a	n/a	n/a	-999	2	[5, 6, 8]	17	catFR1	2	R1181E
357.929	4.134	461567	PROB	4.134	n/a	n/a	n/a	-999	2	[8, 4, 4]	16	catFR1	2	R1181E
362.063	5.134	465701	PROB	5.134	n/a	n/a	n/a	-999	2	[6, 5, 4]	15	catFR1	2	R1181E
367.197	5.489	470835	PROB	5.489	n/a	n/a	n/a	-999	2	[8, 6, 5]	23	catFR1	2	R1181E
372.686	0.012	476324	STOP	n/a	n/a	n/a	n/a	-999	2	[-999, -999, -999]	n/a	catFR1	2	R1181E
372.698	0.517	476336	DISTRACT_END	n/a	n/a	n/a	n/a	-999	2	[0, 0, 0]	n/a	catFR1	2	R1181E
373.215	0.516	476853	RETRIEVAL_ORIENT	n/a	n/a	n/a	n/a	-999	2	[0, 0, 0]	n/a	catFR1	2	R1181E
373.731	7.506	477369	REC_START	n/a	n/a	n/a	n/a	-999	2	[0, 0, 0]	n/a	catFR1	2	R1181E
381.237	1.389	484875	REC_WORD	1.389	n/a	BUMBLEBEE	n/a	-999	2	[0, 0, 0]	n/a	catFR1	2	R1181E
382.626	1.988	486263	REC_WORD	1.988	n/a	BUTTERFLY	n/a	-999	2	[0, 0, 0]	n/a	catFR1	2	R1181E
384.614	6.675	488251	REC_WORD	6.675	n/a	BEE	n/a	-999	2	[0, 0, 0]	n/a	catFR1	2	R1181E
391.289	1.83	494926	REC_WORD	1.83	n/a	HORSE	n/a	-999	2	[0, 0, 0]	n/a	catFR1	2	R1181E
393.119	10.623	496756	REC_WORD	10.623	n/a	BEAN	n/a	-999	2	[0, 0, 0]	n/a	catFR1	2	R1181E
403.742	5.663	507379	REC_END	n/a	n/a	n/a	n/a	-999	2	[0, 0, 0]	n/a	catFR1	2	R1181E
409.405	0.5	513041	TRIAL	n/a	n/a	n/a	n/a	-999	3	[0, 0, 0]	n/a	catFR1	2	R1181E
409.905	10.428	513541	COUNTDOWN_START	n/a	n/a	n/a	n/a	-999	3	[0, 0, 0]	n/a	catFR1	2	R1181E
420.333	0.007	523969	COUNTDOWN_END	n/a	n/a	n/a	n/a	-999	3	[0, 0, 0]	n/a	catFR1	2	R1181E
420.34	1.617	523976	ORIENT	n/a	n/a	n/a	n/a	-999	3	[0, 0, 0]	n/a	catFR1	2	R1181E
421.957	2.284	525593	ORIENT_OFF	n/a	n/a	n/a	n/a	-999	3	[0, 0, 0]	n/a	catFR1	2	R1181E
424.241	1.616	527877	WORD	n/a	wordpools/wordpool_categorized_EN.txt	PEAS	Vegetables	1	3	[0, 0, 0]	n/a	catFR1	2	R1181E
425.857	0.916	529493	WORD_OFF	n/a	n/a	PEAS	n/a	1	3	[0, 0, 0]	n/a	catFR1	2	R1181E
426.773	1.618	530409	WORD	n/a	wordpools/wordpool_categorized_EN.txt	ONION	Vegetables	2	3	[0, 0, 0]	n/a	catFR1	2	R1181E
428.391	0.917	532027	WORD_OFF	n/a	n/a	ONION	n/a	2	3	[0, 0, 0]	n/a	catFR1	2	R1181E
429.308	1.617	532944	WORD	n/a	wordpools/wordpool_categorized_EN.txt	SEAGULL	Birds	3	3	[0, 0, 0]	n/a	catFR1	2	R1181E
430.925	0.949	534561	WORD_OFF	n/a	n/a	SEAGULL	n/a	3	3	[0, 0, 0]	n/a	catFR1	2	R1181E
431.874	1.617	535510	WORD	n/a	wordpools/wordpool_categorized_EN.txt	BLUEBIRD	Birds	4	3	[0, 0, 0]	n/a	catFR1	2	R1181E
433.491	1.017	537127	WORD_OFF	n/a	n/a	BLUEBIRD	n/a	4	3	[0, 0, 0]	n/a	catFR1	2	R1181E
434.508	1.618	538143	WORD	n/a	wordpools/wordpool_categorized_EN.txt	CREEK	Landscapes	5	3	[0, 0, 0]	n/a	catFR1	2	R1181E
436.126	0.817	539761	WORD_OFF	n/a	n/a	CREEK	n/a	5	3	[0, 0, 0]	n/a	catFR1	2	R1181E
436.943	1.616	540578	WORD	n/a	wordpools/wordpool_categorized_EN.txt	FOREST	Landscapes	6	3	[0, 0, 0]	n/a	catFR1	2	R1181E
438.559	0.95	542194	WORD_OFF	n/a	n/a	FOREST	n/a	6	3	[0, 0, 0]	n/a	catFR1	2	R1181E
439.509	1.618	543144	WORD	n/a	wordpools/wordpool_categorized_EN.txt	CARDINAL	Birds	7	3	[0, 0, 0]	n/a	catFR1	2	R1181E
441.127	0.767	544762	WORD_OFF	n/a	n/a	CARDINAL	n/a	7	3	[0, 0, 0]	n/a	catFR1	2	R1181E
441.894	1.616	545529	WORD	n/a	wordpools/wordpool_categorized_EN.txt	CROW	Birds	8	3	[0, 0, 0]	n/a	catFR1	2	R1181E
443.51	0.967	547145	WORD_OFF	n/a	n/a	CROW	n/a	8	3	[0, 0, 0]	n/a	catFR1	2	R1181E
444.477	1.601	548112	WORD	n/a	wordpools/wordpool_categorized_EN.txt	LETTUCE	Vegetables	9	3	[0, 0, 0]	n/a	catFR1	2	R1181E
446.078	0.833	549713	WORD_OFF	n/a	n/a	LETTUCE	n/a	9	3	[0, 0, 0]	n/a	catFR1	2	R1181E
446.911	1.616	550546	WORD	n/a	wordpools/wordpool_categorized_EN.txt	CABBAGE	Vegetables	10	3	[0, 0, 0]	n/a	catFR1	2	R1181E
448.527	0.851	552162	WORD_OFF	n/a	n/a	CABBAGE	n/a	10	3	[0, 0, 0]	n/a	catFR1	2	R1181E
449.378	1.617	553013	WORD	n/a	wordpools/wordpool_categorized_EN.txt	STREAM	Landscapes	11	3	[0, 0, 0]	n/a	catFR1	2	R1181E
450.995	0.967	554630	WORD_OFF	n/a	n/a	STREAM	n/a	11	3	[0, 0, 0]	n/a	catFR1	2	R1181E
451.962	1.616	555597	WORD	n/a	wordpools/wordpool_categorized_EN.txt	MOUNTAIN	Landscapes	12	3	[0, 0, 0]	n/a	catFR1	2	R1181E
453.578	0.0	557213	ENCODING_END	n/a	n/a	n/a	n/a	-999	3	[0, 0, 0]	n/a	catFR1	2	R1181E
453.578	0.138	557213	WORD_OFF	n/a	n/a	MOUNTAIN	n/a	12	3	[0, 0, 0]	n/a	catFR1	2	R1181E
453.716	0.0	557351	DISTRACT_START	n/a	n/a	n/a	n/a	-999	3	[0, 0, 0]	n/a	catFR1	2	R1181E
453.716	0.012	557351	START	n/a	n/a	n/a	n/a	-999	3	[-999, -999, -999]	n/a	catFR1	2	R1181E
453.728	3.868	557363	PROB	3.868	n/a	n/a	n/a	-999	3	[7, 1, 7]	15	catFR1	2	R1181E
457.596	5.301	561231	PROB	5.301	n/a	n/a	n/a	-999	3	[5, 7, 4]	15	catFR1	2	R1181E
462.897	5.301	566531	PROB	5.301	n/a	n/a	n/a	-999	3	[4, 3, 2]	9	catFR1	2	R1181E
468.198	4.5	571832	PROB	4.5	n/a	n/a	n/a	-999	3	[8, 4, 4]	14	catFR1	2	R1181E
472.698	4.174	576332	PROB	4.174	n/a	n/a	n/a	-999	3	[1, 7, 8]	16	catFR1	2	R1181E
476.872	0.01	580506	STOP	n/a	n/a	n/a	n/a	-999	3	[-999, -999, -999]	n/a	catFR1	2	R1181E
476.882	0.601	580516	DISTRACT_END	n/a	n/a	n/a	n/a	-999	3	[0, 0, 0]	n/a	catFR1	2	R1181E
477.483	0.518	581117	RETRIEVAL_ORIENT	n/a	n/a	n/a	n/a	-999	3	[0, 0, 0]	n/a	catFR1	2	R1181E
478.001	2.972	581635	REC_START	n/a	n/a	n/a	n/a	-999	3	[0, 0, 0]	n/a	catFR1	2	R1181E
480.973	0.971	584607	REC_WORD	0.971	n/a	SPINACH	n/a	-999	3	[0, 0, 0]	n/a	catFR1	2	R1181E
481.944	3.117	585578	REC_WORD	3.117	n/a	CAULIFLOWER	n/a	-999	3	[0, 0, 0]	n/a	catFR1	2	R1181E
485.061	0.732	588695	REC_WORD	0.732	n/a	CREEK	Landscapes	5	3	[0, 0, 0]	n/a	catFR1	2	R1181E
485.793	0.611	589427	REC_WORD	0.611	n/a	MOUNTAIN	Landscapes	12	3	[0, 0, 0]	n/a	catFR1	2	R1181E
486.404	2.05	590037	REC_WORD	2.05	n/a	STREAM	Landscapes	11	3	[0, 0, 0]	n/a	catFR1	2	R1181E
488.454	3.659	592087	REC_WORD	3.659	n/a	RIVER	n/a	-999	3	[0, 0, 0]	n/a	catFR1	2	R1181E
492.113	15.897	595746	REC_WORD	15.897	n/a	CROW	Birds	8	3	[0, 0, 0]	n/a	catFR1	2	R1181E
508.01	5.595	611643	REC_END	n/a	n/a	n/a	n/a	-999	3	[0, 0, 0]	n/a	catFR1	2	R1181E
513.605	0.5	617237	TRIAL	n/a	n/a	n/a	n/a	-999	4	[0, 0, 0]	n/a	catFR1	2	R1181E
514.105	10.428	617737	COUNTDOWN_START	n/a	n/a	n/a	n/a	-999	4	[0, 0, 0]	n/a	catFR1	2	R1181E
524.533	0.008	628165	COUNTDOWN_END	n/a	n/a	n/a	n/a	-999	4	[0, 0, 0]	n/a	catFR1	2	R1181E
524.541	1.617	628173	ORIENT	n/a	n/a	n/a	n/a	-999	4	[0, 0, 0]	n/a	catFR1	2	R1181E
526.158	2.117	629790	ORIENT_OFF	n/a	n/a	n/a	n/a	-999	4	[0, 0, 0]	n/a	catFR1	2	R1181E
528.275	1.617	631907	WORD	n/a	wordpools/wordpool_categorized_EN.txt	COBBLER	Desserts	1	4	[0, 0, 0]	n/a	catFR1	2	R1181E
529.892	0.95	633524	WORD_OFF	n/a	n/a	COBBLER	n/a	1	4	[0, 0, 0]	n/a	catFR1	2	R1181E
530.842	1.618	634474	WORD	n/a	wordpools/wordpool_categorized_EN.txt	CAKE	Desserts	2	4	[0, 0, 0]	n/a	catFR1	2	R1181E
532.46	0.833	636092	WORD_OFF	n/a	n/a	CAKE	n/a	2	4	[0, 0, 0]	n/a	catFR1	2	R1181E
533.293	1.617	636925	WORD	n/a	wordpools/wordpool_categorized_EN.txt	PENCIL	OfficeSupplies	3	4	[0, 0, 0]	n/a	catFR1	2	R1181E
534.91	0.849	638542	WORD_OFF	n/a	n/a	PENCIL	n/a	3	4	[0, 0, 0]	n/a	catFR1	2	R1181E
535.759	1.618	639391	WORD	n/a	wordpools/wordpool_categorized_EN.txt	FOLDER	OfficeSupplies	4	4	[0, 0, 0]	n/a	catFR1	2	R1181E
537.377	0.967	641009	WORD_OFF	n/a	n/a	FOLDER	n/a	4	4	[0, 0, 0]	n/a	catFR1	2	R1181E
538.344	1.617	641975	WORD	n/a	wordpools/wordpool_categorized_EN.txt	GRATER	KitchenTools	5	4	[0, 0, 0]	n/a	catFR1	2	R1181E
539.961	0.832	643592	WORD_OFF	n/a	n/a	GRATER	n/a	5	4	[0, 0, 0]	n/a	catFR1	2	R1181E
540.793	1.601	644424	WORD	n/a	wordpools/wordpool_categorized_EN.txt	SPATULA	KitchenTools	6	4	[0, 0, 0]	n/a	catFR1	2	R1181E
542.394	1.001	646025	WORD_OFF	n/a	n/a	SPATULA	n/a	6	4	[0, 0, 0]	n/a	catFR1	2	R1181E
543.395	1.617	647026	WORD	n/a	wordpools/wordpool_categorized_EN.txt	JELLO	Desserts	7	4	[0, 0, 0]	n/a	catFR1	2	R1181E
545.012	0.983	648643	WORD_OFF	n/a	n/a	JELLO	n/a	7	4	[0, 0, 0]	n/a	catFR1	2	R1181E
545.995	1.616	649626	WORD	n/a	wordpools/wordpool_categorized_EN.txt	PIE	Desserts	8	4	[0, 0, 0]	n/a	catFR1	2	R1181E
547.611	0.768	651242	WORD_OFF	n/a	n/a	PIE	n/a	8	4	[0, 0, 0]	n/a	catFR1	2	R1181E
548.379	1.617	652010	WORD	n/a	wordpools/wordpool_categorized_EN.txt	STAPLER	OfficeSupplies	9	4	[0, 0, 0]	n/a	catFR1	2	R1181E
549.996	0.782	653627	WORD_OFF	n/a	n/a	STAPLER	n/a	9	4	[0, 0, 0]	n/a	catFR1	2	R1181E
550.778	1.601	654409	WORD	n/a	wordpools/wordpool_categorized_EN.txt	MARKER	OfficeSupplies	10	4	[0, 0, 0]	n/a	catFR1	2	R1181E
552.379	0.984	656010	WORD_OFF	n/a	n/a	MARKER	n/a	10	4	[0, 0, 0]	n/a	catFR1	2	R1181E
553.363	1.617	656994	WORD	n/a	wordpools/wordpool_categorized_EN.txt	CORKSCREW	KitchenTools	11	4	[0, 0, 0]	n/a	catFR1	2	R1181E
554.98	0.799	658611	WORD_OFF	n/a	n/a	CORKSCREW	n/a	11	4	[0, 0, 0]	n/a	catFR1	2	R1181E
555.779	1.618	659410	WORD	n/a	wordpools/wordpool_categorized_EN.txt	PEELER	KitchenTools	12	4	[0, 0, 0]	n/a	catFR1	2	R1181E
557.397	0.0	661028	ENCODING_END	n/a	n/a	n/a	n/a	-999	4	[0, 0, 0]	n/a	catFR1	2	R1181E
557.397	0.165	661028	WORD_OFF	n/a	n/a	PEELER	n/a	12	4	[0, 0, 0]	n/a	catFR1	2	R1181E
557.562	0.0	661193	DISTRACT_START	n/a	n/a	n/a	n/a	-999	4	[0, 0, 0]	n/a	catFR1	2	R1181E
557.562	0.017	661193	START	n/a	n/a	n/a	n/a	-999	4	[-999, -999, -999]	n/a	catFR1	2	R1181E
557.579	4.185	661210	PROB	4.185	n/a	n/a	n/a	-999	4	[1, 9, 3]	13	catFR1	2	R1181E
561.764	4.518	665395	PROB	4.518	n/a	n/a	n/a	-999	4	[5, 3, 3]	12	catFR1	2	R1181E
566.282	6.851	669912	PROB	6.851	n/a	n/a	n/a	-999	4	[6, 9, 8]	24	catFR1	2	R1181E
573.133	5.814	676763	PROB	5.814	n/a	n/a	n/a	-999	4	[7, 4, 7]	17	catFR1	2	R1181E
578.947	0.021	682577	STOP	n/a	n/a	n/a	n/a	-999	4	[-999, -999, -999]	n/a	catFR1	2	R1181E
578.968	0.532	682598	DISTRACT_END	n/a	n/a	n/a	n/a	-999	4	[0, 0, 0]	n/a	catFR1	2	R1181E
579.5	0.519	683130	RETRIEVAL_ORIENT	n/a	n/a	n/a	n/a	-999	4	[0, 0, 0]	n/a	catFR1	2	R1181E
580.019	3.353	683649	REC_START	n/a	n/a	n/a	n/a	-999	4	[0, 0, 0]	n/a	catFR1	2	R1181E
583.372	2.885	687002	REC_WORD	2.885	n/a	JELLO	Desserts	7	4	[0, 0, 0]	n/a	catFR1	2	R1181E
586.257	2.59	689887	REC_WORD	2.59	n/a	COTTON	n/a	-999	4	[0, 0, 0]	n/a	catFR1	2	R1181E
588.847	1.707	692477	REC_WORD	1.707	n/a	SPATULA	KitchenTools	6	4	[0, 0, 0]	n/a	catFR1	2	R1181E
590.554	1.736	694183	REC_WORD	1.736	n/a	CAULIFLOWER	n/a	-999	4	[0, 0, 0]	n/a	catFR1	2	R1181E
592.29	15.065	695919	REC_WORD	15.065	n/a	TOMATO	n/a	-999	4	[0, 0, 0]	n/a	catFR1	2	R1181E
607.355	2.672	710984	REC_WORD	2.672	n/a	ONION	n/a	-999	4	[0, 0, 0]	n/a	catFR1	2	R1181E
610.027	38.852	713656	REC_END	n/a	n/a	n/a	n/a	-999	4	[0, 0, 0]	n/a	catFR1	2	R1181E
648.879	0.5	752506	TRIAL	n/a	n/a	n/a	n/a	-999	5	[0, 0, 0]	n/a	catFR1	2	R1181E
649.379	10.428	753006	COUNTDOWN_START	n/a	n/a	n/a	n/a	-999	5	[0, 0, 0]	n/a	catFR1	2	R1181E
659.807	0.007	763434	COUNTDOWN_END	n/a	n/a	n/a	n/a	-999	5	[0, 0, 0]	n/a	catFR1	2	R1181E
659.814	1.618	763441	ORIENT	n/a	n/a	n/a	n/a	-999	5	[0, 0, 0]	n/a	catFR1	2	R1181E
661.432	2.0	765059	ORIENT_OFF	n/a	n/a	n/a	n/a	-999	5	[0, 0, 0]	n/a	catFR1	2	R1181E
663.432	1.618	767059	WORD	n/a	wordpools/wordpool_categorized_EN.txt	MICROWAVE	Electronics	1	5	[0, 0, 0]	n/a	catFR1	2	R1181E
665.05	0.782	768677	WORD_OFF	n/a	n/a	MICROWAVE	n/a	1	5	[0, 0, 0]	n/a	catFR1	2	R1181E
665.832	1.618	769459	WORD	n/a	wordpools/wordpool_categorized_EN.txt	STEREO	Electronics	2	5	[0, 0, 0]	n/a	catFR1	2	R1181E
667.45	0.9	771077	WORD_OFF	n/a	n/a	STEREO	n/a	2	5	[0, 0, 0]	n/a	catFR1	2	R1181E
668.35	1.617	771977	WORD	n/a	wordpools/wordpool_categorized_EN.txt	SPOON	KitchenTools	3	5	[0, 0, 0]	n/a	catFR1	2	R1181E
669.967	0.782	773593	WORD_OFF	n/a	n/a	SPOON	n/a	3	5	[0, 0, 0]	n/a	catFR1	2	R1181E
670.749	1.601	774375	WORD	n/a	wordpools/wordpool_categorized_EN.txt	KNIFE	KitchenTools	4	5	[0, 0, 0]	n/a	catFR1	2	R1181E
672.35	0.934	775976	WORD_OFF	n/a	n/a	KNIFE	n/a	4	5	[0, 0, 0]	n/a	catFR1	2	R1181E
673.284	1.617	776910	WORD	n/a	wordpools/wordpool_categorized_EN.txt	WATER	Beverages	5	5	[0, 0, 0]	n/a	catFR1	2	R1181E
674.901	0.766	778527	WORD_OFF	n/a	n/a	WATER	n/a	5	5	[0, 0, 0]	n/a	catFR1	2	R1181E
675.667	1.618	779293	WORD	n/a	wordpools/wordpool_categorized_EN.txt	COFFEE	Beverages	6	5	[0, 0, 0]	n/a	catFR1	2	R1181E
677.285	0.867	780911	WORD_OFF	n/a	n/a	COFFEE	n/a	6	5	[0, 0, 0]	n/a	catFR1	2	R1181E
678.152	1.616	781778	WORD	n/a	wordpools/wordpool_categorized_EN.txt	PHONE	Electronics	7	5	[0, 0, 0]	n/a	catFR1	2	R1181E
679.768	0.8	783394	WORD_OFF	n/a	n/a	PHONE	n/a	7	5	[0, 0, 0]	n/a	catFR1	2	R1181E
680.568	1.618	784194	WORD	n/a	wordpools/wordpool_categorized_EN.txt	TABLET	Electronics	8	5	[0, 0, 0]	n/a	catFR1	2	R1181E
682.186	0.833	785812	WORD_OFF	n/a	n/a	TABLET	n/a	8	5	[0, 0, 0]	n/a	catFR1	2	R1181E
683.019	1.616	786645	WORD	n/a	wordpools/wordpool_categorized_EN.txt	TONGS	KitchenTools	9	5	[0, 0, 0]	n/a	catFR1	2	R1181E
684.635	0.801	788261	WORD_OFF	n/a	n/a	TONGS	n/a	9	5	[0, 0, 0]	n/a	catFR1	2	R1181E
685.436	1.617	789062	WORD	n/a	wordpools/wordpool_categorized_EN.txt	LADLE	KitchenTools	10	5	[0, 0, 0]	n/a	catFR1	2	R1181E
687.053	0.783	790679	WORD_OFF	n/a	n/a	LADLE	n/a	10	5	[0, 0, 0]	n/a	catFR1	2	R1181E
687.836	1.601	791462	WORD	n/a	wordpools/wordpool_categorized_EN.txt	JUICE	Beverages	11	5	[0, 0, 0]	n/a	catFR1	2	R1181E
689.437	0.817	793063	WORD_OFF	n/a	n/a	JUICE	n/a	11	5	[0, 0, 0]	n/a	catFR1	2	R1181E
690.254	1.616	793880	WORD	n/a	wordpools/wordpool_categorized_EN.txt	TEA	Beverages	12	5	[0, 0, 0]	n/a	catFR1	2	R1181E
691.87	0.0	795496	WORD_OFF	n/a	n/a	TEA	n/a	12	5	[0, 0, 0]	n/a	catFR1	2	R1181E
691.87	0.135	795496	ENCODING_END	n/a	n/a	n/a	n/a	-999	5	[0, 0, 0]	n/a	catFR1	2	R1181E
692.005	0.0	795631	DISTRACT_START	n/a	n/a	n/a	n/a	-999	5	[0, 0, 0]	n/a	catFR1	2	R1181E
692.005	0.016	795631	START	n/a	n/a	n/a	n/a	-999	5	[-999, -999, -999]	n/a	catFR1	2	R1181E
692.021	5.951	795647	PROB	5.951	n/a	n/a	n/a	-999	5	[3, 3, 8]	14	catFR1	2	R1181E
697.972	4.766	801597	PROB	4.766	n/a	n/a	n/a	-999	5	[5, 3, 7]	15	catFR1	2	R1181E
702.738	6.219	806363	PROB	6.219	n/a	n/a	n/a	-999	5	[9, 7, 8]	21	catFR1	2	R1181E
708.957	2.7	812582	PROB	2.7	n/a	n/a	n/a	-999	5	[2, 1, 1]	4	catFR1	2	R1181E
711.657	4.853	815282	PROB	4.853	n/a	n/a	n/a	-999	5	[1, 5, 6]	12	catFR1	2	R1181E
716.51	0.015	820135	STOP	n/a	n/a	n/a	n/a	-999	5	[-999, -999, -999]	n/a	catFR1	2	R1181E
716.525	0.567	820150	DISTRACT_END	n/a	n/a	n/a	n/a	-999	5	[0, 0, 0]	n/a	catFR1	2	R1181E
717.092	0.516	820717	RETRIEVAL_ORIENT	n/a	n/a	n/a	n/a	-999	5	[0, 0, 0]	n/a	catFR1	2	R1181E
717.608	30.0	821233	REC_START	n/a	n/a	n/a	n/a	-999	5	[0, 0, 0]	n/a	catFR1	2	R1181E
747.608	0.01	851231	REC_WORD_VV	0.01	n/a	<>	n/a	-999	5	[0, 0, 0]	n/a	catFR1	2	R1181E
747.618	7.213	851241	REC_END	n/a	n/a	n/a	n/a	-999	5	[0, 0, 0]	n/a	catFR1	2	R1181E
754.831	0.5	858454	TRIAL	n/a	n/a	n/a	n/a	-999	6	[0, 0, 0]	n/a	catFR1	2	R1181E
755.331	10.428	858954	COUNTDOWN_START	n/a	n/a	n/a	n/a	-999	6	[0, 0, 0]	n/a	catFR1	2	R1181E
765.759	0.007	869382	COUNTDOWN_END	n/a	n/a	n/a	n/a	-999	6	[0, 0, 0]	n/a	catFR1	2	R1181E
765.766	1.618	869389	ORIENT	n/a	n/a	n/a	n/a	-999	6	[0, 0, 0]	n/a	catFR1	2	R1181E
767.384	2.067	871007	ORIENT_OFF	n/a	n/a	n/a	n/a	-999	6	[0, 0, 0]	n/a	catFR1	2	R1181E
769.451	1.617	873074	WORD	n/a	wordpools/wordpool_categorized_EN.txt	PRINTER	Electronics	1	6	[0, 0, 0]	n/a	catFR1	2	R1181E
771.068	0.816	874691	WORD_OFF	n/a	n/a	PRINTER	n/a	1	6	[0, 0, 0]	n/a	catFR1	2	R1181E
771.884	1.601	875507	WORD	n/a	wordpools/wordpool_categorized_EN.txt	COMPUTER	Electronics	2	6	[0, 0, 0]	n/a	catFR1	2	R1181E
773.485	0.884	877107	WORD_OFF	n/a	n/a	COMPUTER	n/a	2	6	[0, 0, 0]	n/a	catFR1	2	R1181E
774.369	1.617	877991	WORD	n/a	wordpools/wordpool_categorized_EN.txt	SCREWDRIVER	Tools	3	6	[0, 0, 0]	n/a	catFR1	2	R1181E
775.986	0.865	879608	WORD_OFF	n/a	n/a	SCREWDRIVER	n/a	3	6	[0, 0, 0]	n/a	catFR1	2	R1181E
776.851	1.601	880473	WORD	n/a	wordpools/wordpool_categorized_EN.txt	DRILL	Tools	4	6	[0, 0, 0]	n/a	catFR1	2	R1181E
778.452	0.901	882074	WORD_OFF	n/a	n/a	DRILL	n/a	4	6	[0, 0, 0]	n/a	catFR1	2	R1181E
779.353	1.617	882975	WORD	n/a	wordpools/wordpool_categorized_EN.txt	SHIRT	Clothing	5	6	[0, 0, 0]	n/a	catFR1	2	R1181E
780.97	0.95	884592	WORD_OFF	n/a	n/a	SHIRT	n/a	5	6	[0, 0, 0]	n/a	catFR1	2	R1181E
781.92	1.616	885542	WORD	n/a	wordpools/wordpool_categorized_EN.txt	SKIRT	Clothing	6	6	[0, 0, 0]	n/a	catFR1	2	R1181E
783.536	0.934	887158	WORD_OFF	n/a	n/a	SKIRT	n/a	6	6	[0, 0, 0]	n/a	catFR1	2	R1181E
784.47	1.617	888092	WORD	n/a	wordpools/wordpool_categorized_EN.txt	SPEAKER	Electronics	7	6	[0, 0, 0]	n/a	catFR1	2	R1181E
786.087	0.766	889709	WORD_OFF	n/a	n/a	SPEAKER	n/a	7	6	[0, 0, 0]	n/a	catFR1	2	R1181E
786.853	1.618	890475	WORD	n/a	wordpools/wordpool_categorized_EN.txt	SCANNER	Electronics	8	6	[0, 0, 0]	n/a	catFR1	2	R1181E
788.471	0.884	892093	WORD_OFF	n/a	n/a	SCANNER	n/a	8	6	[0, 0, 0]	n/a	catFR1	2	R1181E
789.355	1.617	892977	WORD	n/a	wordpools/wordpool_categorized_EN.txt	SAW	Tools	9	6	[0, 0, 0]	n/a	catFR1	2	R1181E
790.972	0.865	894594	WORD_OFF	n/a	n/a	SAW	n/a	9	6	[0, 0, 0]	n/a	catFR1	2	R1181E
791.837	1.618	895459	WORD	n/a	wordpools/wordpool_categorized_EN.txt	HAMMER	Tools	10	6	[0, 0, 0]	n/a	catFR1	2	R1181E
793.455	0.784	897077	WORD_OFF	n/a	n/a	HAMMER	n/a	10	6	[0, 0, 0]	n/a	catFR1	2	R1181E
794.239	1.616	897861	WORD	n/a	wordpools/wordpool_categorized_EN.txt	JEANS	Clothing	11	6	[0, 0, 0]	n/a	catFR1	2	R1181E
795.855	0.883	899477	WORD_OFF	n/a	n/a	JEANS	n/a	11	6	[0, 0, 0]	n/a	catFR1	2	R1181E
796.738	1.618	900360	WORD	n/a	wordpools/wordpool_categorized_EN.txt	SHORTS	Clothing	12	6	[0, 0, 0]	n/a	catFR1	2	R1181E
798.356	0.0	901978	ENCODING_END	n/a	n/a	n/a	n/a	-999	6	[0, 0, 0]	n/a	catFR1	2	R1181E
798.356	0.175	901978	WORD_OFF	n/a	n/a	SHORTS	n/a	12	6	[0, 0, 0]	n/a	catFR1	2	R1181E
798.531	0.0	902153	DISTRACT_START	n/a	n/a	n/a	n/a	-999	6	[0, 0, 0]	n/a	catFR1	2	R1181E
798.531	0.024	902153	START	n/a	n/a	n/a	n/a	-999	6	[-999, -999, -999]	n/a	catFR1	2	R1181E
798.555	6.284	902177	PROB	6.284	n/a	n/a	n/a	-999	6	[6, 5, 6]	16	catFR1	2	R1181E
804.839	4.536	908460	PROB	4.536	n/a	n/a	n/a	-999	6	[8, 7, 3]	18	catFR1	2	R1181E
809.375	4.084	912996	PROB	4.084	n/a	n/a	n/a	-999	6	[1, 4, 6]	11	catFR1	2	R1181E
813.459	4.467	917080	PROB	4.467	n/a	n/a	n/a	-999	6	[6, 6, 3]	15	catFR1	2	R1181E
817.926	5.089	921547	PROB	5.089	n/a	n/a	n/a	-999	6	[5, 1, 2]	9	catFR1	2	R1181E
823.015	0.012	926636	STOP	n/a	n/a	n/a	n/a	-999	6	[-999, -999, -999]	n/a	catFR1	2	R1181E
823.027	0.599	926648	DISTRACT_END	n/a	n/a	n/a	n/a	-999	6	[0, 0, 0]	n/a	catFR1	2	R1181E
823.626	0.519	927247	RETRIEVAL_ORIENT	n/a	n/a	n/a	n/a	-999	6	[0, 0, 0]	n/a	catFR1	2	R1181E
824.145	9.629	927766	REC_START	n/a	n/a	n/a	n/a	-999	6	[0, 0, 0]	n/a	catFR1	2	R1181E
833.774	7.815	937394	REC_WORD	7.815	n/a	SCREWDRIVER	Tools	3	6	[0, 0, 0]	n/a	catFR1	2	R1181E
841.589	4.449	945209	REC_WORD	4.449	n/a	COMPUTER	Electronics	2	6	[0, 0, 0]	n/a	catFR1	2	R1181E
846.038	8.116	949658	REC_WORD	8.116	n/a	DESK	n/a	-999	6	[0, 0, 0]	n/a	catFR1	2	R1181E
854.154	6.712	957773	REC_END	n/a	n/a	n/a	n/a	-999	6	[0, 0, 0]	n/a	catFR1	2	R1181E
860.866	0.5	964485	TRIAL	n/a	n/a	n/a	n/a	-999	7	[0, 0, 0]	n/a	catFR1	2	R1181E
861.366	10.428	964985	COUNTDOWN_START	n/a	n/a	n/a	n/a	-999	7	[0, 0, 0]	n/a	catFR1	2	R1181E
871.794	0.007	975413	COUNTDOWN_END	n/a	n/a	n/a	n/a	-999	7	[0, 0, 0]	n/a	catFR1	2	R1181E
871.801	1.618	975420	ORIENT	n/a	n/a	n/a	n/a	-999	7	[0, 0, 0]	n/a	catFR1	2	R1181E
873.419	1.867	977038	ORIENT_OFF	n/a	n/a	n/a	n/a	-999	7	[0, 0, 0]	n/a	catFR1	2	R1181E
875.286	1.617	978905	WORD	n/a	wordpools/wordpool_categorized_EN.txt	HAWK	Birds	1	7	[0, 0, 0]	n/a	catFR1	2	R1181E
876.903	0.916	980522	WORD_OFF	n/a	n/a	HAWK	n/a	1	7	[0, 0, 0]	n/a	catFR1	2	R1181E
877.819	1.618	981437	WORD	n/a	wordpools/wordpool_categorized_EN.txt	ROBIN	Birds	2	7	[0, 0, 0]	n/a	catFR1	2	R1181E
879.437	0.884	983055	WORD_OFF	n/a	n/a	ROBIN	n/a	2	7	[0, 0, 0]	n/a	catFR1	2	R1181E
880.321	1.616	983939	WORD	n/a	wordpools/wordpool_categorized_EN.txt	FINGERS	BodyParts	3	7	[0, 0, 0]	n/a	catFR1	2	R1181E
881.937	0.833	985555	WORD_OFF	n/a	n/a	FINGERS	n/a	3	7	[0, 0, 0]	n/a	catFR1	2	R1181E
882.77	1.618	986388	WORD	n/a	wordpools/wordpool_categorized_EN.txt	EYE	BodyParts	4	7	[0, 0, 0]	n/a	catFR1	2	R1181E
884.388	0.95	988006	WORD_OFF	n/a	n/a	EYE	n/a	4	7	[0, 0, 0]	n/a	catFR1	2	R1181E
885.338	1.617	988956	WORD	n/a	wordpools/wordpool_categorized_EN.txt	FUDGE	Desserts	5	7	[0, 0, 0]	n/a	catFR1	2	R1181E
886.955	0.766	990573	WORD_OFF	n/a	n/a	FUDGE	n/a	5	7	[0, 0, 0]	n/a	catFR1	2	R1181E
887.721	1.618	991339	WORD	n/a	wordpools/wordpool_categorized_EN.txt	PUDDING	Desserts	6	7	[0, 0, 0]	n/a	catFR1	2	R1181E
889.339	0.9	992957	WORD_OFF	n/a	n/a	PUDDING	n/a	6	7	[0, 0, 0]	n/a	catFR1	2	R1181E
890.239	1.616	993857	WORD	n/a	wordpools/wordpool_categorized_EN.txt	NOSE	BodyParts	7	7	[0, 0, 0]	n/a	catFR1	2	R1181E
891.855	0.917	995473	WORD_OFF	n/a	n/a	NOSE	n/a	7	7	[0, 0, 0]	n/a	catFR1	2	R1181E
892.772	1.618	996390	WORD	n/a	wordpools/wordpool_categorized_EN.txt	EAR	BodyParts	8	7	[0, 0, 0]	n/a	catFR1	2	R1181E
894.39	0.9	998008	WORD_OFF	n/a	n/a	EAR	n/a	8	7	[0, 0, 0]	n/a	catFR1	2	R1181E
895.29	1.617	998908	WORD	n/a	wordpools/wordpool_categorized_EN.txt	SPARROW	Birds	9	7	[0, 0, 0]	n/a	catFR1	2	R1181E
896.907	0.799	1000525	WORD_OFF	n/a	n/a	SPARROW	n/a	9	7	[0, 0, 0]	n/a	catFR1	2	R1181E
897.706	1.618	1001324	WORD	n/a	wordpools/wordpool_categorized_EN.txt	GOOSE	Birds	10	7	[0, 0, 0]	n/a	catFR1	2	R1181E
899.324	0.85	1002942	WORD_OFF	n/a	n/a	GOOSE	n/a	10	7	[0, 0, 0]	n/a	catFR1	2	R1181E
900.174	1.616	1003792	WORD	n/a	wordpools/wordpool_categorized_EN.txt	BROWNIES	Desserts	11	7	[0, 0, 0]	n/a	catFR1	2	R1181E
901.79	1.0	1005408	WORD_OFF	n/a	n/a	BROWNIES	n/a	11	7	[0, 0, 0]	n/a	catFR1	2	R1181E
902.79	1.601	1006408	WORD	n/a	wordpools/wordpool_categorized_EN.txt	CUPCAKE	Desserts	12	7	[0, 0, 0]	n/a	catFR1	2	R1181E
904.391	0.0	1008008	ENCODING_END	n/a	n/a	n/a	n/a	-999	7	[0, 0, 0]	n/a	catFR1	2	R1181E
904.391	0.163	1008008	WORD_OFF	n/a	n/a	CUPCAKE	n/a	12	7	[0, 0, 0]	n/a	catFR1	2	R1181E
904.554	0.0	1008171	DISTRACT_START	n/a	n/a	n/a	n/a	-999	7	[0, 0, 0]	n/a	catFR1	2	R1181E
904.554	0.02	1008171	START	n/a	n/a	n/a	n/a	-999	7	[-999, -999, -999]	n/a	catFR1	2	R1181E
904.574	3.751	1008191	PROB	3.751	n/a	n/a	n/a	-999	7	[1, 2, 6]	9	catFR1	2	R1181E
908.325	5.051	1011942	PROB	5.051	n/a	n/a	n/a	-999	7	[6, 9, 7]	22	catFR1	2	R1181E
913.376	3.568	1016993	PROB	3.568	n/a	n/a	n/a	-999	7	[4, 5, 1]	9	catFR1	2	R1181E
916.944	3.117	1020561	PROB	3.117	n/a	n/a	n/a	-999	7	[3, 7, 1]	11	catFR1	2	R1181E
920.061	5.792	1023678	PROB	5.792	n/a	n/a	n/a	-999	7	[4, 6, 6]	15	catFR1	2	R1181E
925.853	0.009	1029470	STOP	n/a	n/a	n/a	n/a	-999	7	[-999, -999, -999]	n/a	catFR1	2	R1181E
925.862	0.699	1029479	DISTRACT_END	n/a	n/a	n/a	n/a	-999	7	[0, 0, 0]	n/a	catFR1	2	R1181E
926.561	0.519	1030178	RETRIEVAL_ORIENT	n/a	n/a	n/a	n/a	-999	7	[0, 0, 0]	n/a	catFR1	2	R1181E
927.08	16.916	1030697	REC_START	n/a	n/a	n/a	n/a	-999	7	[0, 0, 0]	n/a	catFR1	2	R1181E
943.996	3.82	1047612	REC_WORD	3.82	n/a	HAWK	Birds	1	7	[0, 0, 0]	n/a	catFR1	2	R1181E
947.816	4.59	1051432	REC_WORD	4.59	n/a	JELLO	n/a	-999	7	[0, 0, 0]	n/a	catFR1	2	R1181E
952.406	4.682	1056022	REC_WORD	4.682	n/a	JELLY	n/a	-999	7	[0, 0, 0]	n/a	catFR1	2	R1181E
957.088	7.496	1060703	REC_END	n/a	n/a	n/a	n/a	-999	7	[0, 0, 0]	n/a	catFR1	2	R1181E
964.584	0.5	1068199	TRIAL	n/a	n/a	n/a	n/a	-999	8	[0, 0, 0]	n/a	catFR1	2	R1181E
965.084	10.428	1068699	COUNTDOWN_START	n/a	n/a	n/a	n/a	-999	8	[0, 0, 0]	n/a	catFR1	2	R1181E
975.512	0.008	1079127	COUNTDOWN_END	n/a	n/a	n/a	n/a	-999	8	[0, 0, 0]	n/a	catFR1	2	R1181E
975.52	1.618	1079135	ORIENT	n/a	n/a	n/a	n/a	-999	8	[0, 0, 0]	n/a	catFR1	2	R1181E
977.138	2.2	1080753	ORIENT_OFF	n/a	n/a	n/a	n/a	-999	8	[0, 0, 0]	n/a	catFR1	2	R1181E
979.338	1.617	1082953	WORD	n/a	wordpools/wordpool_categorized_EN.txt	FINCH	Birds	1	8	[0, 0, 0]	n/a	catFR1	2	R1181E
980.955	0.983	1084570	WORD_OFF	n/a	n/a	FINCH	n/a	1	8	[0, 0, 0]	n/a	catFR1	2	R1181E
981.938	1.616	1085553	WORD	n/a	wordpools/wordpool_categorized_EN.txt	DOVE	Birds	2	8	[0, 0, 0]	n/a	catFR1	2	R1181E
983.554	0.885	1087168	WORD_OFF	n/a	n/a	DOVE	n/a	2	8	[0, 0, 0]	n/a	catFR1	2	R1181E
984.439	1.617	1088053	WORD	n/a	wordpools/wordpool_categorized_EN.txt	OYSTER	OceanAnimals	3	8	[0, 0, 0]	n/a	catFR1	2	R1181E
986.056	1.017	1089670	WORD_OFF	n/a	n/a	OYSTER	n/a	3	8	[0, 0, 0]	n/a	catFR1	2	R1181E
987.073	1.616	1090687	WORD	n/a	wordpools/wordpool_categorized_EN.txt	SHRIMP	OceanAnimals	4	8	[0, 0, 0]	n/a	catFR1	2	R1181E
988.689	0.866	1092303	WORD_OFF	n/a	n/a	SHRIMP	n/a	4	8	[0, 0, 0]	n/a	catFR1	2	R1181E
989.555	1.618	1093169	WORD	n/a	wordpools/wordpool_categorized_EN.txt	FOOTBALL	Toys	5	8	[0, 0, 0]	n/a	catFR1	2	R1181E
991.173	0.784	1094787	WORD_OFF	n/a	n/a	FOOTBALL	n/a	5	8	[0, 0, 0]	n/a	catFR1	2	R1181E
991.957	1.616	1095571	WORD	n/a	wordpools/wordpool_categorized_EN.txt	SLINKY	Toys	6	8	[0, 0, 0]	n/a	catFR1	2	R1181E
993.573	0.784	1097187	WORD_OFF	n/a	n/a	SLINKY	n/a	6	8	[0, 0, 0]	n/a	catFR1	2	R1181E
994.357	1.617	1097971	WORD	n/a	wordpools/wordpool_categorized_EN.txt	PIGEON	Birds	7	8	[0, 0, 0]	n/a	catFR1	2	R1181E
995.974	0.782	1099588	WORD_OFF	n/a	n/a	PIGEON	n/a	7	8	[0, 0, 0]	n/a	catFR1	2	R1181E
996.756	1.602	1100370	WORD	n/a	wordpools/wordpool_categorized_EN.txt	DUCK	Birds	8	8	[0, 0, 0]	n/a	catFR1	2	R1181E
998.358	0.983	1101972	WORD_OFF	n/a	n/a	DUCK	n/a	8	8	[0, 0, 0]	n/a	catFR1	2	R1181E
999.341	1.617	1102955	WORD	n/a	wordpools/wordpool_categorized_EN.txt	PLANKTON	OceanAnimals	9	8	[0, 0, 0]	n/a	catFR1	2	R1181E
1000.958	0.783	1104572	WORD_OFF	n/a	n/a	PLANKTON	n/a	9	8	[0, 0, 0]	n/a	catFR1	2	R1181E
1001.741	1.618	1105355	WORD	n/a	wordpools/wordpool_categorized_EN.txt	FISH	OceanAnimals	10	8	[0, 0, 0]	n/a	catFR1	2	R1181E
1003.359	0.917	1106973	WORD_OFF	n/a	n/a	FISH	n/a	10	8	[0, 0, 0]	n/a	catFR1	2	R1181E
1004.276	1.617	1107890	WORD	n/a	wordpools/wordpool_categorized_EN.txt	BLOCKS	Toys	11	8	[0, 0, 0]	n/a	catFR1	2	R1181E
1005.893	0.949	1109507	WORD_OFF	n/a	n/a	BLOCKS	n/a	11	8	[0, 0, 0]	n/a	catFR1	2	R1181E
1006.842	1.618	1110456	WORD	n/a	wordpools/wordpool_categorized_EN.txt	BASKETBALL	Toys	12	8	[0, 0, 0]	n/a	catFR1	2	R1181E
1008.46	0.0	1112073	WORD_OFF	n/a	n/a	BASKETBALL	n/a	12	8	[0, 0, 0]	n/a	catFR1	2	R1181E
1008.46	0.137	1112073	ENCODING_END	n/a	n/a	n/a	n/a	-999	8	[0, 0, 0]	n/a	catFR1	2	R1181E
1008.597	0.0	1112210	DISTRACT_START	n/a	n/a	n/a	n/a	-999	8	[0, 0, 0]	n/a	catFR1	2	R1181E
1008.597	0.012	1112210	START	n/a	n/a	n/a	n/a	-999	8	[-999, -999, -999]	n/a	catFR1	2	R1181E
1008.609	3.934	1112222	PROB	3.934	n/a	n/a	n/a	-999	8	[6, 3, 3]	12	catFR1	2	R1181E
1012.543	4.084	1116156	PROB	4.084	n/a	n/a	n/a	-999	8	[1, 9, 5]	15	catFR1	2	R1181E
1016.627	4.718	1120240	PROB	4.718	n/a	n/a	n/a	-999	8	[4, 1, 9]	14	catFR1	2	R1181E
1021.345	4.183	1124958	PROB	4.183	n/a	n/a	n/a	-999	8	[9, 8, 2]	21	catFR1	2	R1181E
1025.528	6.263	1129141	PROB	6.263	n/a	n/a	n/a	-999	8	[9, 9, 7]	14	catFR1	2	R1181E
1031.791	0.022	1135404	STOP	n/a	n/a	n/a	n/a	-999	8	[-999, -999, -999]	n/a	catFR1	2	R1181E
1031.813	0.634	1135426	DISTRACT_END	n/a	n/a	n/a	n/a	-999	8	[0, 0, 0]	n/a	catFR1	2	R1181E
1032.447	0.518	1136060	RETRIEVAL_ORIENT	n/a	n/a	n/a	n/a	-999	8	[0, 0, 0]	n/a	catFR1	2	R1181E
1032.965	3.005	1136578	REC_START	n/a	n/a	n/a	n/a	-999	8	[0, 0, 0]	n/a	catFR1	2	R1181E
1035.97	1.016	1139582	REC_WORD	1.016	n/a	FINCH	Birds	1	8	[0, 0, 0]	n/a	catFR1	2	R1181E
1036.986	1.122	1140598	REC_WORD	1.122	n/a	FINCH	Birds	1	8	[0, 0, 0]	n/a	catFR1	2	R1181E
1038.108	1.837	1141720	REC_WORD	1.837	n/a	FOOTBALL	Toys	5	8	[0, 0, 0]	n/a	catFR1	2	R1181E
1039.945	13.086	1143557	REC_WORD	13.086	n/a	BASKETBALL	Toys	12	8	[0, 0, 0]	n/a	catFR1	2	R1181E
1053.031	9.942	1156643	REC_WORD	9.942	n/a	OYSTER	OceanAnimals	3	8	[0, 0, 0]	n/a	catFR1	2	R1181E
1062.973	6.58	1166584	REC_END	n/a	n/a	n/a	n/a	-999	8	[0, 0, 0]	n/a	catFR1	2	R1181E
1069.553	0.5	1173164	TRIAL	n/a	n/a	n/a	n/a	-999	9	[0, 0, 0]	n/a	catFR1	2	R1181E
1070.053	10.428	1173664	COUNTDOWN_START	n/a	n/a	n/a	n/a	-999	9	[0, 0, 0]	n/a	catFR1	2	R1181E
1080.481	0.007	1184092	COUNTDOWN_END	n/a	n/a	n/a	n/a	-999	9	[0, 0, 0]	n/a	catFR1	2	R1181E
1080.488	1.618	1184099	ORIENT	n/a	n/a	n/a	n/a	-999	9	[0, 0, 0]	n/a	catFR1	2	R1181E
1082.106	1.984	1185717	ORIENT_OFF	n/a	n/a	n/a	n/a	-999	9	[0, 0, 0]	n/a	catFR1	2	R1181E
1084.09	1.616	1187701	WORD	n/a	wordpools/wordpool_categorized_EN.txt	PLUM	Fruit	1	9	[0, 0, 0]	n/a	catFR1	2	R1181E
1085.706	0.833	1189317	WORD_OFF	n/a	n/a	PLUM	n/a	1	9	[0, 0, 0]	n/a	catFR1	2	R1181E
1086.539	1.618	1190149	WORD	n/a	wordpools/wordpool_categorized_EN.txt	BANANA	Fruit	2	9	[0, 0, 0]	n/a	catFR1	2	R1181E
1088.157	0.9	1191767	WORD_OFF	n/a	n/a	BANANA	n/a	2	9	[0, 0, 0]	n/a	catFR1	2	R1181E
1089.057	1.616	1192667	WORD	n/a	wordpools/wordpool_categorized_EN.txt	WRENCH	Tools	3	9	[0, 0, 0]	n/a	catFR1	2	R1181E
1090.673	0.801	1194283	WORD_OFF	n/a	n/a	WRENCH	n/a	3	9	[0, 0, 0]	n/a	catFR1	2	R1181E
1091.474	1.617	1195084	WORD	n/a	wordpools/wordpool_categorized_EN.txt	SANDER	Tools	4	9	[0, 0, 0]	n/a	catFR1	2	R1181E
1093.091	0.917	1196701	WORD_OFF	n/a	n/a	SANDER	n/a	4	9	[0, 0, 0]	n/a	catFR1	2	R1181E
1094.008	1.616	1197618	WORD	n/a	wordpools/wordpool_categorized_EN.txt	WINE	Beverages	5	9	[0, 0, 0]	n/a	catFR1	2	R1181E
1095.624	0.917	1199234	WORD_OFF	n/a	n/a	WINE	n/a	5	9	[0, 0, 0]	n/a	catFR1	2	R1181E
1096.541	1.618	1200151	WORD	n/a	wordpools/wordpool_categorized_EN.txt	SODA	Beverages	6	9	[0, 0, 0]	n/a	catFR1	2	R1181E
1098.159	0.817	1201769	WORD_OFF	n/a	n/a	SODA	n/a	6	9	[0, 0, 0]	n/a	catFR1	2	R1181E
1098.976	1.616	1202586	WORD	n/a	wordpools/wordpool_categorized_EN.txt	CROWBAR	Tools	7	9	[0, 0, 0]	n/a	catFR1	2	R1181E
1100.592	0.933	1204202	WORD_OFF	n/a	n/a	CROWBAR	n/a	7	9	[0, 0, 0]	n/a	catFR1	2	R1181E
1101.525	1.618	1205135	WORD	n/a	wordpools/wordpool_categorized_EN.txt	RATCHET	Tools	8	9	[0, 0, 0]	n/a	catFR1	2	R1181E
1103.143	0.884	1206753	WORD_OFF	n/a	n/a	RATCHET	n/a	8	9	[0, 0, 0]	n/a	catFR1	2	R1181E
1104.027	1.615	1207637	WORD	n/a	wordpools/wordpool_categorized_EN.txt	PEACH	Fruit	9	9	[0, 0, 0]	n/a	catFR1	2	R1181E
1105.642	1.001	1209252	WORD_OFF	n/a	n/a	PEACH	n/a	9	9	[0, 0, 0]	n/a	catFR1	2	R1181E
1106.643	1.618	1210253	WORD	n/a	wordpools/wordpool_categorized_EN.txt	BLUEBERRY	Fruit	10	9	[0, 0, 0]	n/a	catFR1	2	R1181E
1108.261	0.9	1211871	WORD_OFF	n/a	n/a	BLUEBERRY	n/a	10	9	[0, 0, 0]	n/a	catFR1	2	R1181E
1109.161	1.616	1212771	WORD	n/a	wordpools/wordpool_categorized_EN.txt	COLA	Beverages	11	9	[0, 0, 0]	n/a	catFR1	2	R1181E
1110.777	0.95	1214387	WORD_OFF	n/a	n/a	COLA	n/a	11	9	[0, 0, 0]	n/a	catFR1	2	R1181E
1111.727	1.618	1215337	WORD	n/a	wordpools/wordpool_categorized_EN.txt	MILK	Beverages	12	9	[0, 0, 0]	n/a	catFR1	2	R1181E
1113.345	0.0	1216954	ENCODING_END	n/a	n/a	n/a	n/a	-999	9	[0, 0, 0]	n/a	catFR1	2	R1181E
1113.345	0.171	1216954	WORD_OFF	n/a	n/a	MILK	n/a	12	9	[0, 0, 0]	n/a	catFR1	2	R1181E
1113.516	0.0	1217125	DISTRACT_START	n/a	n/a	n/a	n/a	-999	9	[0, 0, 0]	n/a	catFR1	2	R1181E
1113.516	0.011	1217125	START	n/a	n/a	n/a	n/a	-999	9	[-999, -999, -999]	n/a	catFR1	2	R1181E
1113.527	5.385	1217136	PROB	5.385	n/a	n/a	n/a	-999	9	[7, 6, 6]	18	catFR1	2	R1181E
1118.912	3.733	1222521	PROB	3.733	n/a	n/a	n/a	-999	9	[7, 1, 4]	12	catFR1	2	R1181E
1122.645	5.286	1226254	PROB	5.286	n/a	n/a	n/a	-999	9	[9, 2, 7]	17	catFR1	2	R1181E
1127.931	5.084	1231540	PROB	5.084	n/a	n/a	n/a	-999	9	[4, 9, 1]	14	catFR1	2	R1181E
1133.015	2.878	1236624	PROB	2.878	n/a	n/a	n/a	-999	9	[3, 7, 2]	12	catFR1	2	R1181E
1135.893	0.022	1239502	STOP	n/a	n/a	n/a	n/a	-999	9	[-999, -999, -999]	n/a	catFR1	2	R1181E
1135.915	0.633	1239524	DISTRACT_END	n/a	n/a	n/a	n/a	-999	9	[0, 0, 0]	n/a	catFR1	2	R1181E
1136.548	0.519	1240157	RETRIEVAL_ORIENT	n/a	n/a	n/a	n/a	-999	9	[0, 0, 0]	n/a	catFR1	2	R1181E
1137.067	30.0	1240676	REC_START	n/a	n/a	n/a	n/a	-999	9	[0, 0, 0]	n/a	catFR1	2	R1181E
1167.067	0.009	1270674	REC_WORD_VV	0.009	n/a	<>	n/a	-999	9	[0, 0, 0]	n/a	catFR1	2	R1181E
1167.076	7.846	1270683	REC_END	n/a	n/a	n/a	n/a	-999	9	[0, 0, 0]	n/a	catFR1	2	R1181E
1174.922	0.5	1278529	TRIAL	n/a	n/a	n/a	n/a	-999	10	[0, 0, 0]	n/a	catFR1	2	R1181E
1175.422	10.428	1279029	COUNTDOWN_START	n/a	n/a	n/a	n/a	-999	10	[0, 0, 0]	n/a	catFR1	2	R1181E
1185.85	0.006	1289457	COUNTDOWN_END	n/a	n/a	n/a	n/a	-999	10	[0, 0, 0]	n/a	catFR1	2	R1181E
1185.856	1.619	1289463	ORIENT	n/a	n/a	n/a	n/a	-999	10	[0, 0, 0]	n/a	catFR1	2	R1181E
1187.475	2.216	1291082	ORIENT_OFF	n/a	n/a	n/a	n/a	-999	10	[0, 0, 0]	n/a	catFR1	2	R1181E
1189.691	1.618	1293298	WORD	n/a	wordpools/wordpool_categorized_EN.txt	HEADPHONES	Electronics	1	10	[0, 0, 0]	n/a	catFR1	2	R1181E
1191.309	0.933	1294915	WORD_OFF	n/a	n/a	HEADPHONES	n/a	1	10	[0, 0, 0]	n/a	catFR1	2	R1181E
1192.242	1.616	1295848	WORD	n/a	wordpools/wordpool_categorized_EN.txt	CALCULATOR	Electronics	2	10	[0, 0, 0]	n/a	catFR1	2	R1181E
1193.858	0.933	1297464	WORD_OFF	n/a	n/a	CALCULATOR	n/a	2	10	[0, 0, 0]	n/a	catFR1	2	R1181E
1194.791	1.602	1298397	WORD	n/a	wordpools/wordpool_categorized_EN.txt	GNAT	Insects	3	10	[0, 0, 0]	n/a	catFR1	2	R1181E
1196.393	0.966	1299999	WORD_OFF	n/a	n/a	GNAT	n/a	3	10	[0, 0, 0]	n/a	catFR1	2	R1181E
1197.359	1.617	1300965	WORD	n/a	wordpools/wordpool_categorized_EN.txt	FLY	Insects	4	10	[0, 0, 0]	n/a	catFR1	2	R1181E
1198.976	1.001	1302582	WORD_OFF	n/a	n/a	FLY	n/a	4	10	[0, 0, 0]	n/a	catFR1	2	R1181E
1199.977	1.616	1303583	WORD	n/a	wordpools/wordpool_categorized_EN.txt	DRYER	Appliances	5	10	[0, 0, 0]	n/a	catFR1	2	R1181E
1201.593	0.916	1305199	WORD_OFF	n/a	n/a	DRYER	n/a	5	10	[0, 0, 0]	n/a	catFR1	2	R1181E
1202.509	1.618	1306115	WORD	n/a	wordpools/wordpool_categorized_EN.txt	REFRIGERATOR	Appliances	6	10	[0, 0, 0]	n/a	catFR1	2	R1181E
1204.127	0.884	1307733	WORD_OFF	n/a	n/a	REFRIGERATOR	n/a	6	10	[0, 0, 0]	n/a	catFR1	2	R1181E
1205.011	1.616	1308617	WORD	n/a	wordpools/wordpool_categorized_EN.txt	MOTH	Insects	7	10	[0, 0, 0]	n/a	catFR1	2	R1181E
1206.627	1.0	1310233	WORD_OFF	n/a	n/a	MOTH	n/a	7	10	[0, 0, 0]	n/a	catFR1	2	R1181E
1207.627	1.618	1311233	WORD	n/a	wordpools/wordpool_categorized_EN.txt	MOSQUITO	Insects	8	10	[0, 0, 0]	n/a	catFR1	2	R1181E
1209.245	0.967	1312851	WORD_OFF	n/a	n/a	MOSQUITO	n/a	8	10	[0, 0, 0]	n/a	catFR1	2	R1181E
1210.212	1.616	1313818	WORD	n/a	wordpools/wordpool_categorized_EN.txt	RADIO	Electronics	9	10	[0, 0, 0]	n/a	catFR1	2	R1181E
1211.828	0.85	1315434	WORD_OFF	n/a	n/a	RADIO	n/a	9	10	[0, 0, 0]	n/a	catFR1	2	R1181E
1212.678	1.618	1316284	WORD	n/a	wordpools/wordpool_categorized_EN.txt	TELEVISION	Electronics	10	10	[0, 0, 0]	n/a	catFR1	2	R1181E
1214.296	1.0	1317902	WORD_OFF	n/a	n/a	TELEVISION	n/a	10	10	[0, 0, 0]	n/a	catFR1	2	R1181E
1215.296	1.617	1318902	WORD	n/a	wordpools/wordpool_categorized_EN.txt	OVEN	Appliances	11	10	[0, 0, 0]	n/a	catFR1	2	R1181E
1216.913	0.866	1320519	WORD_OFF	n/a	n/a	OVEN	n/a	11	10	[0, 0, 0]	n/a	catFR1	2	R1181E
1217.779	1.618	1321384	WORD	n/a	wordpools/wordpool_categorized_EN.txt	IRON	Appliances	12	10	[0, 0, 0]	n/a	catFR1	2	R1181E
1219.397	0.0	1323002	ENCODING_END	n/a	n/a	n/a	n/a	-999	10	[0, 0, 0]	n/a	catFR1	2	R1181E
1219.397	0.133	1323002	WORD_OFF	n/a	n/a	IRON	n/a	12	10	[0, 0, 0]	n/a	catFR1	2	R1181E
1219.53	0.0	1323135	DISTRACT_START	n/a	n/a	n/a	n/a	-999	10	[0, 0, 0]	n/a	catFR1	2	R1181E
1219.53	0.016	1323135	START	n/a	n/a	n/a	n/a	-999	10	[-999, -999, -999]	n/a	catFR1	2	R1181E
1219.546	4.067	1323151	PROB	4.067	n/a	n/a	n/a	-999	10	[8, 1, 9]	16	catFR1	2	R1181E
1223.613	3.968	1327218	PROB	3.968	n/a	n/a	n/a	-999	10	[2, 2, 7]	11	catFR1	2	R1181E
1227.581	5.184	1331186	PROB	5.184	n/a	n/a	n/a	-999	10	[2, 4, 7]	13	catFR1	2	R1181E
1232.765	3.651	1336370	PROB	3.651	n/a	n/a	n/a	-999	10	[2, 6, 1]	9	catFR1	2	R1181E
1236.416	4.804	1340021	PROB	4.804	n/a	n/a	n/a	-999	10	[6, 7, 7]	20	catFR1	2	R1181E
1241.22	0.014	1344825	STOP	n/a	n/a	n/a	n/a	-999	10	[-999, -999, -999]	n/a	catFR1	2	R1181E
1241.234	0.549	1344839	DISTRACT_END	n/a	n/a	n/a	n/a	-999	10	[0, 0, 0]	n/a	catFR1	2	R1181E
1241.783	0.519	1345388	RETRIEVAL_ORIENT	n/a	n/a	n/a	n/a	-999	10	[0, 0, 0]	n/a	catFR1	2	R1181E
1242.302	2.723	1345907	REC_START	n/a	n/a	n/a	n/a	-999	10	[0, 0, 0]	n/a	catFR1	2	R1181E
1245.025	2.818	1348629	REC_WORD	2.818	n/a	IRON	Appliances	12	10	[0, 0, 0]	n/a	catFR1	2	R1181E
1247.843	1.095	1351447	REC_WORD	1.095	n/a	OVEN	Appliances	11	10	[0, 0, 0]	n/a	catFR1	2	R1181E
1248.938	9.31	1352542	REC_WORD	9.31	n/a	REFRIGERATOR	Appliances	6	10	[0, 0, 0]	n/a	catFR1	2	R1181E
1258.248	2.146	1361852	REC_WORD	2.146	n/a	MOSQUITO	Insects	8	10	[0, 0, 0]	n/a	catFR1	2	R1181E
1260.394	11.916	1363998	REC_WORD	11.916	n/a	MOTH	Insects	7	10	[0, 0, 0]	n/a	catFR1	2	R1181E
1272.31	4.047	1375913	REC_END	n/a	n/a	n/a	n/a	-999	10	[0, 0, 0]	n/a	catFR1	2	R1181E
1276.357	0.5	1379960	TRIAL	n/a	n/a	n/a	n/a	-999	11	[0, 0, 0]	n/a	catFR1	2	R1181E
1276.857	10.428	1380460	COUNTDOWN_START	n/a	n/a	n/a	n/a	-999	11	[0, 0, 0]	n/a	catFR1	2	R1181E
1287.285	0.007	1390888	COUNTDOWN_END	n/a	n/a	n/a	n/a	-999	11	[0, 0, 0]	n/a	catFR1	2	R1181E
1287.292	1.617	1390895	ORIENT	n/a	n/a	n/a	n/a	-999	11	[0, 0, 0]	n/a	catFR1	2	R1181E
1288.909	2.234	1392512	ORIENT_OFF	n/a	n/a	n/a	n/a	-999	11	[0, 0, 0]	n/a	catFR1	2	R1181E
1291.143	1.616	1394746	WORD	n/a	wordpools/wordpool_categorized_EN.txt	PASTRY	Desserts	1	11	[0, 0, 0]	n/a	catFR1	2	R1181E
1292.759	1.0	1396362	WORD_OFF	n/a	n/a	PASTRY	n/a	1	11	[0, 0, 0]	n/a	catFR1	2	R1181E
1293.759	1.618	1397362	WORD	n/a	wordpools/wordpool_categorized_EN.txt	MOUSSE	Desserts	2	11	[0, 0, 0]	n/a	catFR1	2	R1181E
1295.377	0.967	1398979	WORD_OFF	n/a	n/a	MOUSSE	n/a	2	11	[0, 0, 0]	n/a	catFR1	2	R1181E
1296.344	1.617	1399946	WORD	n/a	wordpools/wordpool_categorized_EN.txt	GOAT	FarmAnimals	3	11	[0, 0, 0]	n/a	catFR1	2	R1181E
1297.961	0.765	1401563	WORD_OFF	n/a	n/a	GOAT	n/a	3	11	[0, 0, 0]	n/a	catFR1	2	R1181E
1298.726	1.601	1402328	WORD	n/a	wordpools/wordpool_categorized_EN.txt	SHEEP	FarmAnimals	4	11	[0, 0, 0]	n/a	catFR1	2	R1181E
1300.327	0.784	1403929	WORD_OFF	n/a	n/a	SHEEP	n/a	4	11	[0, 0, 0]	n/a	catFR1	2	R1181E
1301.111	1.616	1404713	WORD	n/a	wordpools/wordpool_categorized_EN.txt	TABLE	Furniture	5	11	[0, 0, 0]	n/a	catFR1	2	R1181E
1302.727	0.984	1406329	WORD_OFF	n/a	n/a	TABLE	n/a	5	11	[0, 0, 0]	n/a	catFR1	2	R1181E
1303.711	1.618	1407313	WORD	n/a	wordpools/wordpool_categorized_EN.txt	RECLINER	Furniture	6	11	[0, 0, 0]	n/a	catFR1	2	R1181E
1305.329	0.8	1408931	WORD_OFF	n/a	n/a	RECLINER	n/a	6	11	[0, 0, 0]	n/a	catFR1	2	R1181E
1306.129	1.616	1409731	WORD	n/a	wordpools/wordpool_categorized_EN.txt	PIG	FarmAnimals	7	11	[0, 0, 0]	n/a	catFR1	2	R1181E
1307.745	0.833	1411347	WORD_OFF	n/a	n/a	PIG	n/a	7	11	[0, 0, 0]	n/a	catFR1	2	R1181E
1308.578	1.618	1412180	WORD	n/a	wordpools/wordpool_categorized_EN.txt	TURKEY	FarmAnimals	8	11	[0, 0, 0]	n/a	catFR1	2	R1181E
1310.196	0.95	1413798	WORD_OFF	n/a	n/a	TURKEY	n/a	8	11	[0, 0, 0]	n/a	catFR1	2	R1181E
1311.146	1.616	1414748	WORD	n/a	wordpools/wordpool_categorized_EN.txt	CHEESECAKE	Desserts	9	11	[0, 0, 0]	n/a	catFR1	2	R1181E
1312.762	0.9	1416364	WORD_OFF	n/a	n/a	CHEESECAKE	n/a	9	11	[0, 0, 0]	n/a	catFR1	2	R1181E
1313.662	1.618	1417264	WORD	n/a	wordpools/wordpool_categorized_EN.txt	COOKIE	Desserts	10	11	[0, 0, 0]	n/a	catFR1	2	R1181E
1315.28	0.8	1418882	WORD_OFF	n/a	n/a	COOKIE	n/a	10	11	[0, 0, 0]	n/a	catFR1	2	R1181E
1316.08	1.616	1419682	WORD	n/a	wordpools/wordpool_categorized_EN.txt	BED	Furniture	11	11	[0, 0, 0]	n/a	catFR1	2	R1181E
1317.696	0.934	1421298	WORD_OFF	n/a	n/a	BED	n/a	11	11	[0, 0, 0]	n/a	catFR1	2	R1181E
1318.63	1.618	1422232	WORD	n/a	wordpools/wordpool_categorized_EN.txt	BOOKCASE	Furniture	12	11	[0, 0, 0]	n/a	catFR1	2	R1181E
1320.248	0.0	1423850	ENCODING_END	n/a	n/a	n/a	n/a	-999	11	[0, 0, 0]	n/a	catFR1	2	R1181E
1320.248	0.134	1423850	WORD_OFF	n/a	n/a	BOOKCASE	n/a	12	11	[0, 0, 0]	n/a	catFR1	2	R1181E
1320.382	0.0	1423984	DISTRACT_START	n/a	n/a	n/a	n/a	-999	11	[0, 0, 0]	n/a	catFR1	2	R1181E
1320.382	0.016	1423984	START	n/a	n/a	n/a	n/a	-999	11	[-999, -999, -999]	n/a	catFR1	2	R1181E
1320.398	3.684	1424000	PROB	3.684	n/a	n/a	n/a	-999	11	[6, 4, 3]	13	catFR1	2	R1181E
1324.082	6.767	1427683	PROB	6.767	n/a	n/a	n/a	-999	11	[8, 9, 3]	17	catFR1	2	R1181E
1330.849	5.552	1434450	PROB	5.552	n/a	n/a	n/a	-999	11	[9, 8, 9]	24	catFR1	2	R1181E
1336.401	8.021	1440002	PROB	8.021	n/a	n/a	n/a	-999	11	[7, 6, 6]	27	catFR1	2	R1181E
1344.422	0.014	1448023	STOP	n/a	n/a	n/a	n/a	-999	11	[-999, -999, -999]	n/a	catFR1	2	R1181E
1344.436	0.516	1448037	DISTRACT_END	n/a	n/a	n/a	n/a	-999	11	[0, 0, 0]	n/a	catFR1	2	R1181E
1344.952	0.518	1448553	RETRIEVAL_ORIENT	n/a	n/a	n/a	n/a	-999	11	[0, 0, 0]	n/a	catFR1	2	R1181E
1345.47	5.031	1449071	REC_START	n/a	n/a	n/a	n/a	-999	11	[0, 0, 0]	n/a	catFR1	2	R1181E
1350.501	9.222	1454101	REC_WORD	9.222	n/a	RECLINER	Furniture	6	11	[0, 0, 0]	n/a	catFR1	2	R1181E
1359.723	15.756	1463323	REC_WORD	15.756	n/a	KITCHEN	n/a	-999	11	[0, 0, 0]	n/a	catFR1	2	R1181E
1375.479	6.73	1479078	REC_END	n/a	n/a	n/a	n/a	-999	11	[0, 0, 0]	n/a	catFR1	2	R1181E
1382.209	0.5	1485808	TRIAL	n/a	n/a	n/a	n/a	-999	12	[0, 0, 0]	n/a	catFR1	2	R1181E
1382.709	10.428	1486308	COUNTDOWN_START	n/a	n/a	n/a	n/a	-999	12	[0, 0, 0]	n/a	catFR1	2	R1181E
1393.137	0.007	1496736	COUNTDOWN_END	n/a	n/a	n/a	n/a	-999	12	[0, 0, 0]	n/a	catFR1	2	R1181E
1393.144	1.616	1496743	ORIENT	n/a	n/a	n/a	n/a	-999	12	[0, 0, 0]	n/a	catFR1	2	R1181E
1394.76	2.335	1498359	ORIENT_OFF	n/a	n/a	n/a	n/a	-999	12	[0, 0, 0]	n/a	catFR1	2	R1181E
1397.095	1.616	1500694	WORD	n/a	wordpools/wordpool_categorized_EN.txt	PUZZLE	Toys	1	12	[0, 0, 0]	n/a	catFR1	2	R1181E
1398.711	1.0	1502310	WORD_OFF	n/a	n/a	PUZZLE	n/a	1	12	[0, 0, 0]	n/a	catFR1	2	R1181E
1399.711	1.618	1503310	WORD	n/a	wordpools/wordpool_categorized_EN.txt	BARBIE	Toys	2	12	[0, 0, 0]	n/a	catFR1	2	R1181E
1401.329	0.833	1504927	WORD_OFF	n/a	n/a	BARBIE	n/a	2	12	[0, 0, 0]	n/a	catFR1	2	R1181E
1402.162	1.616	1505760	WORD	n/a	wordpools/wordpool_categorized_EN.txt	MONKEY	Zoo	3	12	[0, 0, 0]	n/a	catFR1	2	R1181E
1403.778	0.867	1507376	WORD_OFF	n/a	n/a	MONKEY	n/a	3	12	[0, 0, 0]	n/a	catFR1	2	R1181E
1404.645	1.618	1508243	WORD	n/a	wordpools/wordpool_categorized_EN.txt	TIGER	Zoo	4	12	[0, 0, 0]	n/a	catFR1	2	R1181E
1406.263	0.783	1509861	WORD_OFF	n/a	n/a	TIGER	n/a	4	12	[0, 0, 0]	n/a	catFR1	2	R1181E
1407.046	1.616	1510644	WORD	n/a	wordpools/wordpool_categorized_EN.txt	CEILING	Building	5	12	[0, 0, 0]	n/a	catFR1	2	R1181E
1408.662	0.768	1512260	WORD_OFF	n/a	n/a	CEILING	n/a	5	12	[0, 0, 0]	n/a	catFR1	2	R1181E
1409.43	1.617	1513028	WORD	n/a	wordpools/wordpool_categorized_EN.txt	FLOOR	Building	6	12	[0, 0, 0]	n/a	catFR1	2	R1181E
1411.047	0.9	1514645	WORD_OFF	n/a	n/a	FLOOR	n/a	6	12	[0, 0, 0]	n/a	catFR1	2	R1181E
1411.947	1.616	1515545	WORD	n/a	wordpools/wordpool_categorized_EN.txt	BALL	Toys	7	12	[0, 0, 0]	n/a	catFR1	2	R1181E
1413.563	0.934	1517161	WORD_OFF	n/a	n/a	BALL	n/a	7	12	[0, 0, 0]	n/a	catFR1	2	R1181E
1414.497	1.618	1518095	WORD	n/a	wordpools/wordpool_categorized_EN.txt	BASEBALL	Toys	8	12	[0, 0, 0]	n/a	catFR1	2	R1181E
1416.115	0.95	1519713	WORD_OFF	n/a	n/a	BASEBALL	n/a	8	12	[0, 0, 0]	n/a	catFR1	2	R1181E
1417.065	1.616	1520663	WORD	n/a	wordpools/wordpool_categorized_EN.txt	PANDA	Zoo	9	12	[0, 0, 0]	n/a	catFR1	2	R1181E
1418.681	0.768	1522279	WORD_OFF	n/a	n/a	PANDA	n/a	9	12	[0, 0, 0]	n/a	catFR1	2	R1181E
1419.449	1.616	1523047	WORD	n/a	wordpools/wordpool_categorized_EN.txt	ELEPHANT	Zoo	10	12	[0, 0, 0]	n/a	catFR1	2	R1181E
1421.065	0.8	1524663	WORD_OFF	n/a	n/a	ELEPHANT	n/a	10	12	[0, 0, 0]	n/a	catFR1	2	R1181E
1421.865	1.618	1525463	WORD	n/a	wordpools/wordpool_categorized_EN.txt	FOUNDATION	Building	11	12	[0, 0, 0]	n/a	catFR1	2	R1181E
1423.483	0.883	1527081	WORD_OFF	n/a	n/a	FOUNDATION	n/a	11	12	[0, 0, 0]	n/a	catFR1	2	R1181E
1424.366	1.617	1527964	WORD	n/a	wordpools/wordpool_categorized_EN.txt	ROOM	Building	12	12	[0, 0, 0]	n/a	catFR1	2	R1181E
1425.983	0.0	1529580	ENCODING_END	n/a	n/a	n/a	n/a	-999	12	[0, 0, 0]	n/a	catFR1	2	R1181E
1425.983	0.17	1529580	WORD_OFF	n/a	n/a	ROOM	n/a	12	12	[0, 0, 0]	n/a	catFR1	2	R1181E
1426.153	0.0	1529750	DISTRACT_START	n/a	n/a	n/a	n/a	-999	12	[0, 0, 0]	n/a	catFR1	2	R1181E
1426.153	0.013	1529750	START	n/a	n/a	n/a	n/a	-999	12	[-999, -999, -999]	n/a	catFR1	2	R1181E
1426.166	6.118	1529763	PROB	6.118	n/a	n/a	n/a	-999	12	[1, 8, 2]	12	catFR1	2	R1181E
1432.284	4.951	1535881	PROB	4.951	n/a	n/a	n/a	-999	12	[5, 3, 4]	12	catFR1	2	R1181E
1437.235	2.684	1540832	PROB	2.684	n/a	n/a	n/a	-999	12	[1, 4, 4]	9	catFR1	2	R1181E
1439.919	3.417	1543516	PROB	3.417	n/a	n/a	n/a	-999	12	[4, 1, 2]	10	catFR1	2	R1181E
1443.336	3.176	1546933	PROB	3.176	n/a	n/a	n/a	-999	12	[3, 3, 3]	9	catFR1	2	R1181E
1446.512	0.007	1550109	STOP	n/a	n/a	n/a	n/a	-999	12	[-999, -999, -999]	n/a	catFR1	2	R1181E
1446.519	0.518	1550116	DISTRACT_END	n/a	n/a	n/a	n/a	-999	12	[0, 0, 0]	n/a	catFR1	2	R1181E
1447.037	0.516	1550634	RETRIEVAL_ORIENT	n/a	n/a	n/a	n/a	-999	12	[0, 0, 0]	n/a	catFR1	2	R1181E
1447.553	5.563	1551150	REC_START	n/a	n/a	n/a	n/a	-999	12	[0, 0, 0]	n/a	catFR1	2	R1181E
1453.116	5.028	1556712	REC_WORD	5.028	n/a	STOOL	n/a	-999	12	[0, 0, 0]	n/a	catFR1	2	R1181E
1458.144	11.89	1561740	REC_WORD	11.89	n/a	MONKEY	Zoo	3	12	[0, 0, 0]	n/a	catFR1	2	R1181E
1470.034	7.528	1573630	REC_WORD	7.528	n/a	SHEEP	n/a	-999	12	[0, 0, 0]	n/a	catFR1	2	R1181E
1477.562	16.55	1581158	REC_END	n/a	n/a	n/a	n/a	-999	12	[0, 0, 0]	n/a	catFR1	2	R1181E
1494.112	0.5	1597707	TRIAL	n/a	n/a	n/a	n/a	-999	13	[0, 0, 0]	n/a	catFR1	2	R1181E
1494.612	10.428	1598207	COUNTDOWN_START	n/a	n/a	n/a	n/a	-999	13	[0, 0, 0]	n/a	catFR1	2	R1181E
1505.04	0.007	1608634	COUNTDOWN_END	n/a	n/a	n/a	n/a	-999	13	[0, 0, 0]	n/a	catFR1	2	R1181E
1505.047	1.616	1608641	ORIENT	n/a	n/a	n/a	n/a	-999	13	[0, 0, 0]	n/a	catFR1	2	R1181E
1506.663	1.967	1610257	ORIENT_OFF	n/a	n/a	n/a	n/a	-999	13	[0, 0, 0]	n/a	catFR1	2	R1181E
1508.63	1.618	1612224	WORD	n/a	wordpools/wordpool_categorized_EN.txt	MIXER	Appliances	1	13	[0, 0, 0]	n/a	catFR1	2	R1181E
1510.248	0.8	1613842	WORD_OFF	n/a	n/a	MIXER	n/a	1	13	[0, 0, 0]	n/a	catFR1	2	R1181E
1511.048	1.616	1614642	WORD	n/a	wordpools/wordpool_categorized_EN.txt	FREEZER	Appliances	2	13	[0, 0, 0]	n/a	catFR1	2	R1181E
1512.664	0.85	1616258	WORD_OFF	n/a	n/a	FREEZER	n/a	2	13	[0, 0, 0]	n/a	catFR1	2	R1181E
1513.514	1.618	1617108	WORD	n/a	wordpools/wordpool_categorized_EN.txt	SHELF	Furniture	3	13	[0, 0, 0]	n/a	catFR1	2	R1181E
1515.132	1.017	1618726	WORD_OFF	n/a	n/a	SHELF	n/a	3	13	[0, 0, 0]	n/a	catFR1	2	R1181E
1516.149	1.616	1619743	WORD	n/a	wordpools/wordpool_categorized_EN.txt	DRESSER	Furniture	4	13	[0, 0, 0]	n/a	catFR1	2	R1181E
1517.765	0.967	1621359	WORD_OFF	n/a	n/a	DRESSER	n/a	4	13	[0, 0, 0]	n/a	catFR1	2	R1181E
1518.732	1.618	1622326	WORD	n/a	wordpools/wordpool_categorized_EN.txt	PINE	Trees	5	13	[0, 0, 0]	n/a	catFR1	2	R1181E
1520.35	0.783	1623944	WORD_OFF	n/a	n/a	PINE	n/a	5	13	[0, 0, 0]	n/a	catFR1	2	R1181E
1521.133	1.616	1624727	WORD	n/a	wordpools/wordpool_categorized_EN.txt	ELM	Trees	6	13	[0, 0, 0]	n/a	catFR1	2	R1181E
1522.749	0.9	1626343	WORD_OFF	n/a	n/a	ELM	n/a	6	13	[0, 0, 0]	n/a	catFR1	2	R1181E
1523.649	1.618	1627243	WORD	n/a	wordpools/wordpool_categorized_EN.txt	COUCH	Furniture	7	13	[0, 0, 0]	n/a	catFR1	2	R1181E
1525.267	0.95	1628861	WORD_OFF	n/a	n/a	COUCH	n/a	7	13	[0, 0, 0]	n/a	catFR1	2	R1181E
1526.217	1.616	1629811	WORD	n/a	wordpools/wordpool_categorized_EN.txt	CABINET	Furniture	8	13	[0, 0, 0]	n/a	catFR1	2	R1181E
1527.833	0.784	1631427	WORD_OFF	n/a	n/a	CABINET	n/a	8	13	[0, 0, 0]	n/a	catFR1	2	R1181E
1528.617	1.618	1632211	WORD	n/a	wordpools/wordpool_categorized_EN.txt	VACUUM	Appliances	9	13	[0, 0, 0]	n/a	catFR1	2	R1181E
1530.235	0.983	1633829	WORD_OFF	n/a	n/a	VACUUM	n/a	9	13	[0, 0, 0]	n/a	catFR1	2	R1181E
1531.218	1.616	1634811	WORD	n/a	wordpools/wordpool_categorized_EN.txt	TOASTER	Appliances	10	13	[0, 0, 0]	n/a	catFR1	2	R1181E
1532.834	0.934	1636427	WORD_OFF	n/a	n/a	TOASTER	n/a	10	13	[0, 0, 0]	n/a	catFR1	2	R1181E
1533.768	1.618	1637361	WORD	n/a	wordpools/wordpool_categorized_EN.txt	EVERGREEN	Trees	11	13	[0, 0, 0]	n/a	catFR1	2	R1181E
1535.386	0.833	1638979	WORD_OFF	n/a	n/a	EVERGREEN	n/a	11	13	[0, 0, 0]	n/a	catFR1	2	R1181E
1536.219	1.616	1639812	WORD	n/a	wordpools/wordpool_categorized_EN.txt	CYPRESS	Trees	12	13	[0, 0, 0]	n/a	catFR1	2	R1181E
1537.835	0.0	1641428	WORD_OFF	n/a	n/a	CYPRESS	n/a	12	13	[0, 0, 0]	n/a	catFR1	2	R1181E
1537.835	0.134	1641428	ENCODING_END	n/a	n/a	n/a	n/a	-999	13	[0, 0, 0]	n/a	catFR1	2	R1181E
1537.969	0.001	1641562	DISTRACT_START	n/a	n/a	n/a	n/a	-999	13	[0, 0, 0]	n/a	catFR1	2	R1181E
1537.97	0.016	1641563	START	n/a	n/a	n/a	n/a	-999	13	[-999, -999, -999]	n/a	catFR1	2	R1181E
1537.986	5.517	1641579	PROB	5.517	n/a	n/a	n/a	-999	13	[4, 5, 4]	13	catFR1	2	R1181E
1543.503	3.518	1647096	PROB	3.518	n/a	n/a	n/a	-999	13	[5, 8, 2]	15	catFR1	2	R1181E
1547.021	5.051	1650614	PROB	5.051	n/a	n/a	n/a	-999	13	[6, 9, 5]	20	catFR1	2	R1181E
1552.072	4.6	1655665	PROB	4.6	n/a	n/a	n/a	-999	13	[7, 3, 9]	18	catFR1	2	R1181E
1556.672	6.073	1660264	PROB	6.073	n/a	n/a	n/a	-999	13	[4, 6, 7]	17	catFR1	2	R1181E
1562.745	0.011	1666337	STOP	n/a	n/a	n/a	n/a	-999	13	[-999, -999, -999]	n/a	catFR1	2	R1181E
1562.756	0.601	1666348	DISTRACT_END	n/a	n/a	n/a	n/a	-999	13	[0, 0, 0]	n/a	catFR1	2	R1181E
1563.357	0.517	1666949	RETRIEVAL_ORIENT	n/a	n/a	n/a	n/a	-999	13	[0, 0, 0]	n/a	catFR1	2	R1181E
1563.874	3.342	1667466	REC_START	n/a	n/a	n/a	n/a	-999	13	[0, 0, 0]	n/a	catFR1	2	R1181E
1567.216	1.314	1670808	REC_WORD	1.314	n/a	BOOKCASE	n/a	-999	13	[0, 0, 0]	n/a	catFR1	2	R1181E
1568.53	3.956	1672122	REC_WORD	3.956	n/a	BOOKSHELF	n/a	-999	13	[0, 0, 0]	n/a	catFR1	2	R1181E
1572.486	5.615	1676078	REC_WORD	5.615	n/a	PAPER	n/a	-999	13	[0, 0, 0]	n/a	catFR1	2	R1181E
1578.101	5.419	1681693	REC_WORD	5.419	n/a	VACUUM	Appliances	9	13	[0, 0, 0]	n/a	catFR1	2	R1181E
1583.52	10.363	1687111	REC_WORD	10.363	n/a	BOOK	n/a	-999	13	[0, 0, 0]	n/a	catFR1	2	R1181E
1593.883	6.663	1697474	REC_END	n/a	n/a	n/a	n/a	-999	13	[0, 0, 0]	n/a	catFR1	2	R1181E
1600.546	0.5	1704137	TRIAL	n/a	n/a	n/a	n/a	-999	14	[0, 0, 0]	n/a	catFR1	2	R1181E
1601.046	10.428	1704637	COUNTDOWN_START	n/a	n/a	n/a	n/a	-999	14	[0, 0, 0]	n/a	catFR1	2	R1181E
1611.474	0.008	1715064	COUNTDOWN_END	n/a	n/a	n/a	n/a	-999	14	[0, 0, 0]	n/a	catFR1	2	R1181E
1611.482	1.617	1715072	ORIENT	n/a	n/a	n/a	n/a	-999	14	[0, 0, 0]	n/a	catFR1	2	R1181E
1613.099	2.167	1716689	ORIENT_OFF	n/a	n/a	n/a	n/a	-999	14	[0, 0, 0]	n/a	catFR1	2	R1181E
1615.266	1.616	1718856	WORD	n/a	wordpools/wordpool_categorized_EN.txt	TOE	BodyParts	1	14	[0, 0, 0]	n/a	catFR1	2	R1181E
1616.882	1.0	1720472	WORD_OFF	n/a	n/a	TOE	n/a	1	14	[0, 0, 0]	n/a	catFR1	2	R1181E
1617.882	1.601	1721472	WORD	n/a	wordpools/wordpool_categorized_EN.txt	ARM	BodyParts	2	14	[0, 0, 0]	n/a	catFR1	2	R1181E
1619.483	0.801	1723073	WORD_OFF	n/a	n/a	ARM	n/a	2	14	[0, 0, 0]	n/a	catFR1	2	R1181E
1620.284	1.617	1723874	WORD	n/a	wordpools/wordpool_categorized_EN.txt	BULL	FarmAnimals	3	14	[0, 0, 0]	n/a	catFR1	2	R1181E
1621.901	0.766	1725491	WORD_OFF	n/a	n/a	BULL	n/a	3	14	[0, 0, 0]	n/a	catFR1	2	R1181E
1622.667	1.618	1726257	WORD	n/a	wordpools/wordpool_categorized_EN.txt	CALF	FarmAnimals	4	14	[0, 0, 0]	n/a	catFR1	2	R1181E
1624.285	0.85	1727875	WORD_OFF	n/a	n/a	CALF	n/a	4	14	[0, 0, 0]	n/a	catFR1	2	R1181E
1625.135	1.616	1728725	WORD	n/a	wordpools/wordpool_categorized_EN.txt	ORGAN	Instruments	5	14	[0, 0, 0]	n/a	catFR1	2	R1181E
1626.751	1.0	1730341	WORD_OFF	n/a	n/a	ORGAN	n/a	5	14	[0, 0, 0]	n/a	catFR1	2	R1181E
1627.751	1.618	1731341	WORD	n/a	wordpools/wordpool_categorized_EN.txt	FLUTE	Instruments	6	14	[0, 0, 0]	n/a	catFR1	2	R1181E
1629.369	0.9	1732959	WORD_OFF	n/a	n/a	FLUTE	n/a	6	14	[0, 0, 0]	n/a	catFR1	2	R1181E
1630.269	1.617	1733859	WORD	n/a	wordpools/wordpool_categorized_EN.txt	HAND	BodyParts	7	14	[0, 0, 0]	n/a	catFR1	2	R1181E
1631.886	0.799	1735476	WORD_OFF	n/a	n/a	HAND	n/a	7	14	[0, 0, 0]	n/a	catFR1	2	R1181E
1632.685	1.618	1736275	WORD	n/a	wordpools/wordpool_categorized_EN.txt	LEG	BodyParts	8	14	[0, 0, 0]	n/a	catFR1	2	R1181E
1634.303	0.8	1737893	WORD_OFF	n/a	n/a	LEG	n/a	8	14	[0, 0, 0]	n/a	catFR1	2	R1181E
1635.103	1.616	1738692	WORD	n/a	wordpools/wordpool_categorized_EN.txt	ROOSTER	FarmAnimals	9	14	[0, 0, 0]	n/a	catFR1	2	R1181E
1636.719	0.917	1740308	WORD_OFF	n/a	n/a	ROOSTER	n/a	9	14	[0, 0, 0]	n/a	catFR1	2	R1181E
1637.636	1.618	1741225	WORD	n/a	wordpools/wordpool_categorized_EN.txt	COW	FarmAnimals	10	14	[0, 0, 0]	n/a	catFR1	2	R1181E
1639.254	0.883	1742843	WORD_OFF	n/a	n/a	COW	n/a	10	14	[0, 0, 0]	n/a	catFR1	2	R1181E
1640.137	1.616	1743726	WORD	n/a	wordpools/wordpool_categorized_EN.txt	PIANO	Instruments	11	14	[0, 0, 0]	n/a	catFR1	2	R1181E
1641.753	0.951	1745342	WORD_OFF	n/a	n/a	PIANO	n/a	11	14	[0, 0, 0]	n/a	catFR1	2	R1181E
1642.704	1.617	1746293	WORD	n/a	wordpools/wordpool_categorized_EN.txt	TROMBONE	Instruments	12	14	[0, 0, 0]	n/a	catFR1	2	R1181E
1644.321	0.001	1747910	WORD_OFF	n/a	n/a	TROMBONE	n/a	12	14	[0, 0, 0]	n/a	catFR1	2	R1181E
1644.322	0.135	1747911	ENCODING_END	n/a	n/a	n/a	n/a	-999	14	[0, 0, 0]	n/a	catFR1	2	R1181E
1644.457	0.0	1748046	DISTRACT_START	n/a	n/a	n/a	n/a	-999	14	[0, 0, 0]	n/a	catFR1	2	R1181E
1644.457	0.014	1748046	START	n/a	n/a	n/a	n/a	-999	14	[-999, -999, -999]	n/a	catFR1	2	R1181E
1644.471	2.918	1748060	PROB	2.918	n/a	n/a	n/a	-999	14	[3, 7, 1]	11	catFR1	2	R1181E
1647.389	6.818	1750978	PROB	6.818	n/a	n/a	n/a	-999	14	[8, 4, 5]	17	catFR1	2	R1181E
1654.207	6.316	1757796	PROB	6.316	n/a	n/a	n/a	-999	14	[3, 5, 6]	14	catFR1	2	R1181E
1660.523	4.471	1764112	PROB	4.471	n/a	n/a	n/a	-999	14	[1, 5, 4]	10	catFR1	2	R1181E
1664.994	0.015	1768582	STOP	n/a	n/a	n/a	n/a	-999	14	[-999, -999, -999]	n/a	catFR1	2	R1181E
1665.009	0.582	1768597	DISTRACT_END	n/a	n/a	n/a	n/a	-999	14	[0, 0, 0]	n/a	catFR1	2	R1181E
1665.591	0.518	1769179	RETRIEVAL_ORIENT	n/a	n/a	n/a	n/a	-999	14	[0, 0, 0]	n/a	catFR1	2	R1181E
1666.109	30.0	1769697	REC_START	n/a	n/a	n/a	n/a	-999	14	[0, 0, 0]	n/a	catFR1	2	R1181E
1696.109	0.009	1799696	REC_WORD_VV	0.009	n/a	<>	n/a	-999	14	[0, 0, 0]	n/a	catFR1	2	R1181E
1696.118	3.78	1799705	REC_END	n/a	n/a	n/a	n/a	-999	14	[0, 0, 0]	n/a	catFR1	2	R1181E
1699.898	0.5	1803485	TRIAL	n/a	n/a	n/a	n/a	-999	15	[0, 0, 0]	n/a	catFR1	2	R1181E
1700.398	10.428	1803985	COUNTDOWN_START	n/a	n/a	n/a	n/a	-999	15	[0, 0, 0]	n/a	catFR1	2	R1181E
1710.826	0.006	1814413	COUNTDOWN_END	n/a	n/a	n/a	n/a	-999	15	[0, 0, 0]	n/a	catFR1	2	R1181E
1710.832	1.618	1814419	ORIENT	n/a	n/a	n/a	n/a	-999	15	[0, 0, 0]	n/a	catFR1	2	R1181E
1712.45	2.183	1816037	ORIENT_OFF	n/a	n/a	n/a	n/a	-999	15	[0, 0, 0]	n/a	catFR1	2	R1181E
1714.633	1.618	1818219	WORD	n/a	wordpools/wordpool_categorized_EN.txt	CHEETAH	Zoo	1	15	[0, 0, 0]	n/a	catFR1	2	R1181E
1716.251	0.783	1819837	WORD_OFF	n/a	n/a	CHEETAH	n/a	1	15	[0, 0, 0]	n/a	catFR1	2	R1181E
1717.034	1.616	1820620	WORD	n/a	wordpools/wordpool_categorized_EN.txt	CHIMPANZEE	Zoo	2	15	[0, 0, 0]	n/a	catFR1	2	R1181E
1718.65	0.785	1822236	WORD_OFF	n/a	n/a	CHIMPANZEE	n/a	2	15	[0, 0, 0]	n/a	catFR1	2	R1181E
1719.435	1.617	1823021	WORD	n/a	wordpools/wordpool_categorized_EN.txt	HEAD	BodyParts	3	15	[0, 0, 0]	n/a	catFR1	2	R1181E
1721.052	0.866	1824638	WORD_OFF	n/a	n/a	HEAD	n/a	3	15	[0, 0, 0]	n/a	catFR1	2	R1181E
1721.918	1.616	1825504	WORD	n/a	wordpools/wordpool_categorized_EN.txt	FOOT	BodyParts	4	15	[0, 0, 0]	n/a	catFR1	2	R1181E
1723.534	0.868	1827120	WORD_OFF	n/a	n/a	FOOT	n/a	4	15	[0, 0, 0]	n/a	catFR1	2	R1181E
1724.402	1.617	1827988	WORD	n/a	wordpools/wordpool_categorized_EN.txt	WHALE	OceanAnimals	5	15	[0, 0, 0]	n/a	catFR1	2	R1181E
1726.019	1.0	1829605	WORD_OFF	n/a	n/a	WHALE	n/a	5	15	[0, 0, 0]	n/a	catFR1	2	R1181E
1727.019	1.616	1830605	WORD	n/a	wordpools/wordpool_categorized_EN.txt	SQUID	OceanAnimals	6	15	[0, 0, 0]	n/a	catFR1	2	R1181E
1728.635	0.917	1832221	WORD_OFF	n/a	n/a	SQUID	n/a	6	15	[0, 0, 0]	n/a	catFR1	2	R1181E
1729.552	1.618	1833138	WORD	n/a	wordpools/wordpool_categorized_EN.txt	BEAR	Zoo	7	15	[0, 0, 0]	n/a	catFR1	2	R1181E
1731.17	0.834	1834756	WORD_OFF	n/a	n/a	BEAR	n/a	7	15	[0, 0, 0]	n/a	catFR1	2	R1181E
1732.004	1.615	1835590	WORD	n/a	wordpools/wordpool_categorized_EN.txt	GIRAFFE	Zoo	8	15	[0, 0, 0]	n/a	catFR1	2	R1181E
1733.619	0.818	1837205	WORD_OFF	n/a	n/a	GIRAFFE	n/a	8	15	[0, 0, 0]	n/a	catFR1	2	R1181E
1734.437	1.617	1838023	WORD	n/a	wordpools/wordpool_categorized_EN.txt	KNEE	BodyParts	9	15	[0, 0, 0]	n/a	catFR1	2	R1181E
1736.054	0.766	1839640	WORD_OFF	n/a	n/a	KNEE	n/a	9	15	[0, 0, 0]	n/a	catFR1	2	R1181E
1736.82	1.618	1840406	WORD	n/a	wordpools/wordpool_categorized_EN.txt	ELBOW	BodyParts	10	15	[0, 0, 0]	n/a	catFR1	2	R1181E
1738.438	0.767	1842024	WORD_OFF	n/a	n/a	ELBOW	n/a	10	15	[0, 0, 0]	n/a	catFR1	2	R1181E
1739.205	1.616	1842790	WORD	n/a	wordpools/wordpool_categorized_EN.txt	DOLPHIN	OceanAnimals	11	15	[0, 0, 0]	n/a	catFR1	2	R1181E
1740.821	0.783	1844406	WORD_OFF	n/a	n/a	DOLPHIN	n/a	11	15	[0, 0, 0]	n/a	catFR1	2	R1181E
1741.604	1.618	1845189	WORD	n/a	wordpools/wordpool_categorized_EN.txt	TURTLE	OceanAnimals	12	15	[0, 0, 0]	n/a	catFR1	2	R1181E
1743.222	0.0	1846807	ENCODING_END	n/a	n/a	n/a	n/a	-999	15	[0, 0, 0]	n/a	catFR1	2	R1181E
1743.222	0.169	1846807	WORD_OFF	n/a	n/a	TURTLE	n/a	12	15	[0, 0, 0]	n/a	catFR1	2	R1181E
1743.391	0.0	1846976	DISTRACT_START	n/a	n/a	n/a	n/a	-999	15	[0, 0, 0]	n/a	catFR1	2	R1181E
1743.391	0.015	1846976	START	n/a	n/a	n/a	n/a	-999	15	[-999, -999, -999]	n/a	catFR1	2	R1181E
1743.406	6.984	1846991	PROB	6.984	n/a	n/a	n/a	-999	15	[4, 9, 7]	20	catFR1	2	R1181E
1750.39	4.518	1853975	PROB	4.518	n/a	n/a	n/a	-999	15	[6, 8, 2]	16	catFR1	2	R1181E
1754.908	5.317	1858493	PROB	5.317	n/a	n/a	n/a	-999	15	[7, 6, 9]	22	catFR1	2	R1181E
1760.225	6.732	1863810	PROB	6.732	n/a	n/a	n/a	-999	15	[8, 4, 2]	15	catFR1	2	R1181E
1766.957	0.02	1870541	STOP	n/a	n/a	n/a	n/a	-999	15	[-999, -999, -999]	n/a	catFR1	2	R1181E
1766.977	0.548	1870561	DISTRACT_END	n/a	n/a	n/a	n/a	-999	15	[0, 0, 0]	n/a	catFR1	2	R1181E
1767.525	0.519	1871109	RETRIEVAL_ORIENT	n/a	n/a	n/a	n/a	-999	15	[0, 0, 0]	n/a	catFR1	2	R1181E
1768.044	3.847	1871628	REC_START	n/a	n/a	n/a	n/a	-999	15	[0, 0, 0]	n/a	catFR1	2	R1181E
1771.891	1.153	1875475	REC_WORD	1.153	n/a	HEAD	BodyParts	3	15	[0, 0, 0]	n/a	catFR1	2	R1181E
1773.044	6.712	1876628	REC_WORD	6.712	n/a	FOOT	BodyParts	4	15	[0, 0, 0]	n/a	catFR1	2	R1181E
1779.756	1.095	1883340	REC_WORD	1.095	n/a	CHEETAH	Zoo	1	15	[0, 0, 0]	n/a	catFR1	2	R1181E
1780.851	17.201	1884435	REC_WORD	17.201	n/a	CHIMPANZEE	Zoo	2	15	[0, 0, 0]	n/a	catFR1	2	R1181E
1798.052	8.248	1901635	REC_END	n/a	n/a	n/a	n/a	-999	15	[0, 0, 0]	n/a	catFR1	2	R1181E
1806.3	0.5	1909883	TRIAL	n/a	n/a	n/a	n/a	-999	16	[0, 0, 0]	n/a	catFR1	2	R1181E
1806.8	10.428	1910383	COUNTDOWN_START	n/a	n/a	n/a	n/a	-999	16	[0, 0, 0]	n/a	catFR1	2	R1181E
1817.228	0.007	1920811	COUNTDOWN_END	n/a	n/a	n/a	n/a	-999	16	[0, 0, 0]	n/a	catFR1	2	R1181E
1817.235	1.616	1920818	ORIENT	n/a	n/a	n/a	n/a	-999	16	[0, 0, 0]	n/a	catFR1	2	R1181E
1818.851	1.917	1922433	ORIENT_OFF	n/a	n/a	n/a	n/a	-999	16	[0, 0, 0]	n/a	catFR1	2	R1181E
1820.768	1.601	1924350	WORD	n/a	wordpools/wordpool_categorized_EN.txt	OCTOPUS	OceanAnimals	1	16	[0, 0, 0]	n/a	catFR1	2	R1181E
1822.369	0.817	1925951	WORD_OFF	n/a	n/a	OCTOPUS	n/a	1	16	[0, 0, 0]	n/a	catFR1	2	R1181E
1823.186	1.616	1926768	WORD	n/a	wordpools/wordpool_categorized_EN.txt	JELLYFISH	OceanAnimals	2	16	[0, 0, 0]	n/a	catFR1	2	R1181E
1824.802	0.9	1928384	WORD_OFF	n/a	n/a	JELLYFISH	n/a	2	16	[0, 0, 0]	n/a	catFR1	2	R1181E
1825.702	1.618	1929284	WORD	n/a	wordpools/wordpool_categorized_EN.txt	CARROT	Vegetables	3	16	[0, 0, 0]	n/a	catFR1	2	R1181E
1827.32	0.984	1930902	WORD_OFF	n/a	n/a	CARROT	n/a	3	16	[0, 0, 0]	n/a	catFR1	2	R1181E
1828.304	1.617	1931886	WORD	n/a	wordpools/wordpool_categorized_EN.txt	CUCUMBER	Vegetables	4	16	[0, 0, 0]	n/a	catFR1	2	R1181E
1829.921	0.932	1933503	WORD_OFF	n/a	n/a	CUCUMBER	n/a	4	16	[0, 0, 0]	n/a	catFR1	2	R1181E
1830.853	1.618	1934435	WORD	n/a	wordpools/wordpool_categorized_EN.txt	PEN	OfficeSupplies	5	16	[0, 0, 0]	n/a	catFR1	2	R1181E
1832.471	0.767	1936053	WORD_OFF	n/a	n/a	PEN	n/a	5	16	[0, 0, 0]	n/a	catFR1	2	R1181E
1833.238	1.616	1936820	WORD	n/a	wordpools/wordpool_categorized_EN.txt	TAPE	OfficeSupplies	6	16	[0, 0, 0]	n/a	catFR1	2	R1181E
1834.854	0.967	1938436	WORD_OFF	n/a	n/a	TAPE	n/a	6	16	[0, 0, 0]	n/a	catFR1	2	R1181E
1835.821	1.617	1939403	WORD	n/a	wordpools/wordpool_categorized_EN.txt	CELERY	Vegetables	7	16	[0, 0, 0]	n/a	catFR1	2	R1181E
1837.438	0.868	1941020	WORD_OFF	n/a	n/a	CELERY	n/a	7	16	[0, 0, 0]	n/a	catFR1	2	R1181E
1838.306	1.617	1941888	WORD	n/a	wordpools/wordpool_categorized_EN.txt	BROCCOLI	Vegetables	8	16	[0, 0, 0]	n/a	catFR1	2	R1181E
1839.923	0.799	1943505	WORD_OFF	n/a	n/a	BROCCOLI	n/a	8	16	[0, 0, 0]	n/a	catFR1	2	R1181E
1840.722	1.618	1944304	WORD	n/a	wordpools/wordpool_categorized_EN.txt	LOBSTER	OceanAnimals	9	16	[0, 0, 0]	n/a	catFR1	2	R1181E
1842.34	0.983	1945922	WORD_OFF	n/a	n/a	LOBSTER	n/a	9	16	[0, 0, 0]	n/a	catFR1	2	R1181E
1843.323	1.617	1946905	WORD	n/a	wordpools/wordpool_categorized_EN.txt	CRAB	OceanAnimals	10	16	[0, 0, 0]	n/a	catFR1	2	R1181E
1844.94	0.783	1948521	WORD_OFF	n/a	n/a	CRAB	n/a	10	16	[0, 0, 0]	n/a	catFR1	2	R1181E
1845.723	1.618	1949304	WORD	n/a	wordpools/wordpool_categorized_EN.txt	RULER	OfficeSupplies	11	16	[0, 0, 0]	n/a	catFR1	2	R1181E
1847.341	0.916	1950922	WORD_OFF	n/a	n/a	RULER	n/a	11	16	[0, 0, 0]	n/a	catFR1	2	R1181E
1848.257	1.616	1951838	WORD	n/a	wordpools/wordpool_categorized_EN.txt	NOTEBOOK	OfficeSupplies	12	16	[0, 0, 0]	n/a	catFR1	2	R1181E
1849.873	0.0	1953454	ENCODING_END	n/a	n/a	n/a	n/a	-999	16	[0, 0, 0]	n/a	catFR1	2	R1181E
1849.873	0.135	1953454	WORD_OFF	n/a	n/a	NOTEBOOK	n/a	12	16	[0, 0, 0]	n/a	catFR1	2	R1181E
1850.008	0.001	1953589	DISTRACT_START	n/a	n/a	n/a	n/a	-999	16	[0, 0, 0]	n/a	catFR1	2	R1181E
1850.009	0.015	1953590	START	n/a	n/a	n/a	n/a	-999	16	[-999, -999, -999]	n/a	catFR1	2	R1181E
1850.024	7.352	1953605	PROB	7.352	n/a	n/a	n/a	-999	16	[5, 4, 4]	15	catFR1	2	R1181E
1857.376	5.283	1960957	PROB	5.283	n/a	n/a	n/a	-999	16	[6, 7, 1]	14	catFR1	2	R1181E
1862.659	3.217	1966240	PROB	3.217	n/a	n/a	n/a	-999	16	[2, 2, 2]	6	catFR1	2	R1181E
1865.876	7.647	1969457	PROB	7.647	n/a	n/a	n/a	-999	16	[9, 7, 2]	18	catFR1	2	R1181E
1873.523	0.021	1977103	STOP	n/a	n/a	n/a	n/a	-999	16	[-999, -999, -999]	n/a	catFR1	2	R1181E
1873.544	0.585	1977124	DISTRACT_END	n/a	n/a	n/a	n/a	-999	16	[0, 0, 0]	n/a	catFR1	2	R1181E
1874.129	0.516	1977709	RETRIEVAL_ORIENT	n/a	n/a	n/a	n/a	-999	16	[0, 0, 0]	n/a	catFR1	2	R1181E
1874.645	2.233	1978225	REC_START	n/a	n/a	n/a	n/a	-999	16	[0, 0, 0]	n/a	catFR1	2	R1181E
1876.878	1.386	1980458	REC_WORD	1.386	n/a	OCTOPUS	OceanAnimals	1	16	[0, 0, 0]	n/a	catFR1	2	R1181E
1878.264	8.655	1981844	REC_WORD	8.655	n/a	JELLYFISH	OceanAnimals	2	16	[0, 0, 0]	n/a	catFR1	2	R1181E
1886.919	1.061	1990499	REC_WORD	1.061	n/a	CRAB	OceanAnimals	10	16	[0, 0, 0]	n/a	catFR1	2	R1181E
1887.98	16.674	1991560	REC_WORD	16.674	n/a	LOBSTER	OceanAnimals	9	16	[0, 0, 0]	n/a	catFR1	2	R1181E
1904.654	5.847	2008233	REC_END	n/a	n/a	n/a	n/a	-999	16	[0, 0, 0]	n/a	catFR1	2	R1181E
1910.501	0.5	2014080	TRIAL	n/a	n/a	n/a	n/a	-999	17	[0, 0, 0]	n/a	catFR1	2	R1181E
1911.001	10.428	2014580	COUNTDOWN_START	n/a	n/a	n/a	n/a	-999	17	[0, 0, 0]	n/a	catFR1	2	R1181E
1921.429	0.008	2025008	COUNTDOWN_END	n/a	n/a	n/a	n/a	-999	17	[0, 0, 0]	n/a	catFR1	2	R1181E
1921.437	1.617	2025016	ORIENT	n/a	n/a	n/a	n/a	-999	17	[0, 0, 0]	n/a	catFR1	2	R1181E
1923.054	2.25	2026632	ORIENT_OFF	n/a	n/a	n/a	n/a	-999	17	[0, 0, 0]	n/a	catFR1	2	R1181E
1925.304	1.617	2028882	WORD	n/a	wordpools/wordpool_categorized_EN.txt	PLANE	Vehicles	1	17	[0, 0, 0]	n/a	catFR1	2	R1181E
1926.921	1.0	2030499	WORD_OFF	n/a	n/a	PLANE	n/a	1	17	[0, 0, 0]	n/a	catFR1	2	R1181E
1927.921	1.616	2031499	WORD	n/a	wordpools/wordpool_categorized_EN.txt	MOTORCYCLE	Vehicles	2	17	[0, 0, 0]	n/a	catFR1	2	R1181E
1929.537	0.818	2033115	WORD_OFF	n/a	n/a	MOTORCYCLE	n/a	2	17	[0, 0, 0]	n/a	catFR1	2	R1181E
1930.355	1.617	2033933	WORD	n/a	wordpools/wordpool_categorized_EN.txt	RAIN	Weather	3	17	[0, 0, 0]	n/a	catFR1	2	R1181E
1931.972	0.849	2035550	WORD_OFF	n/a	n/a	RAIN	n/a	3	17	[0, 0, 0]	n/a	catFR1	2	R1181E
1932.821	1.618	2036399	WORD	n/a	wordpools/wordpool_categorized_EN.txt	THUNDER	Weather	4	17	[0, 0, 0]	n/a	catFR1	2	R1181E
1934.439	0.867	2038017	WORD_OFF	n/a	n/a	THUNDER	n/a	4	17	[0, 0, 0]	n/a	catFR1	2	R1181E
1935.306	1.617	2038884	WORD	n/a	wordpools/wordpool_categorized_EN.txt	HICKORY	Trees	5	17	[0, 0, 0]	n/a	catFR1	2	R1181E
1936.923	0.766	2040501	WORD_OFF	n/a	n/a	HICKORY	n/a	5	17	[0, 0, 0]	n/a	catFR1	2	R1181E
1937.689	1.618	2041267	WORD	n/a	wordpools/wordpool_categorized_EN.txt	CEDAR	Trees	6	17	[0, 0, 0]	n/a	catFR1	2	R1181E
1939.307	0.766	2042885	WORD_OFF	n/a	n/a	CEDAR	n/a	6	17	[0, 0, 0]	n/a	catFR1	2	R1181E
1940.073	1.616	2043651	WORD	n/a	wordpools/wordpool_categorized_EN.txt	HURRICANE	Weather	7	17	[0, 0, 0]	n/a	catFR1	2	R1181E
1941.689	0.817	2045267	WORD_OFF	n/a	n/a	HURRICANE	n/a	7	17	[0, 0, 0]	n/a	catFR1	2	R1181E
1942.506	1.618	2046084	WORD	n/a	wordpools/wordpool_categorized_EN.txt	DRIZZLE	Weather	8	17	[0, 0, 0]	n/a	catFR1	2	R1181E
1944.124	0.884	2047702	WORD_OFF	n/a	n/a	DRIZZLE	n/a	8	17	[0, 0, 0]	n/a	catFR1	2	R1181E
1945.008	1.616	2048586	WORD	n/a	wordpools/wordpool_categorized_EN.txt	CAR	Vehicles	9	17	[0, 0, 0]	n/a	catFR1	2	R1181E
1946.624	0.883	2050202	WORD_OFF	n/a	n/a	CAR	n/a	9	17	[0, 0, 0]	n/a	catFR1	2	R1181E
1947.507	1.601	2051085	WORD	n/a	wordpools/wordpool_categorized_EN.txt	JEEP	Vehicles	10	17	[0, 0, 0]	n/a	catFR1	2	R1181E
1949.108	0.784	2052685	WORD_OFF	n/a	n/a	JEEP	n/a	10	17	[0, 0, 0]	n/a	catFR1	2	R1181E
1949.892	1.616	2053469	WORD	n/a	wordpools/wordpool_categorized_EN.txt	WALNUT	Trees	11	17	[0, 0, 0]	n/a	catFR1	2	R1181E
1951.508	0.967	2055085	WORD_OFF	n/a	n/a	WALNUT	n/a	11	17	[0, 0, 0]	n/a	catFR1	2	R1181E
1952.475	1.618	2056052	WORD	n/a	wordpools/wordpool_categorized_EN.txt	MAPLE	Trees	12	17	[0, 0, 0]	n/a	catFR1	2	R1181E
1954.093	0.0	2057670	ENCODING_END	n/a	n/a	n/a	n/a	-999	17	[0, 0, 0]	n/a	catFR1	2	R1181E
1954.093	0.133	2057670	WORD_OFF	n/a	n/a	MAPLE	n/a	12	17	[0, 0, 0]	n/a	catFR1	2	R1181E
1954.226	0.001	2057803	DISTRACT_START	n/a	n/a	n/a	n/a	-999	17	[0, 0, 0]	n/a	catFR1	2	R1181E
1954.227	0.016	2057804	START	n/a	n/a	n/a	n/a	-999	17	[-999, -999, -999]	n/a	catFR1	2	R1181E
1954.243	4.7	2057820	PROB	4.7	n/a	n/a	n/a	-999	17	[8, 4, 4]	16	catFR1	2	R1181E
1958.943	3.75	2062520	PROB	3.75	n/a	n/a	n/a	-999	17	[7, 5, 5]	17	catFR1	2	R1181E
1962.693	5.101	2066270	PROB	5.101	n/a	n/a	n/a	-999	17	[3, 7, 7]	17	catFR1	2	R1181E
1967.794	4.685	2071371	PROB	4.685	n/a	n/a	n/a	-999	17	[9, 4, 2]	15	catFR1	2	R1181E
1972.479	5.699	2076056	PROB	5.699	n/a	n/a	n/a	-999	17	[4, 4, 9]	17	catFR1	2	R1181E
1978.178	0.019	2081754	STOP	n/a	n/a	n/a	n/a	-999	17	[-999, -999, -999]	n/a	catFR1	2	R1181E
1978.197	0.7	2081773	DISTRACT_END	n/a	n/a	n/a	n/a	-999	17	[0, 0, 0]	n/a	catFR1	2	R1181E
1978.897	0.518	2082473	RETRIEVAL_ORIENT	n/a	n/a	n/a	n/a	-999	17	[0, 0, 0]	n/a	catFR1	2	R1181E
1979.415	30.0	2082991	REC_START	n/a	n/a	n/a	n/a	-999	17	[0, 0, 0]	n/a	catFR1	2	R1181E
2009.415	0.009	2112990	REC_WORD_VV	0.009	n/a	<>	n/a	-999	17	[0, 0, 0]	n/a	catFR1	2	R1181E
2009.424	9.764	2112999	REC_END	n/a	n/a	n/a	n/a	-999	17	[0, 0, 0]	n/a	catFR1	2	R1181E
2019.188	0.5	2122763	TRIAL	n/a	n/a	n/a	n/a	-999	18	[0, 0, 0]	n/a	catFR1	2	R1181E
2019.688	10.428	2123263	COUNTDOWN_START	n/a	n/a	n/a	n/a	-999	18	[0, 0, 0]	n/a	catFR1	2	R1181E
2030.116	0.007	2133690	COUNTDOWN_END	n/a	n/a	n/a	n/a	-999	18	[0, 0, 0]	n/a	catFR1	2	R1181E
2030.123	1.616	2133697	ORIENT	n/a	n/a	n/a	n/a	-999	18	[0, 0, 0]	n/a	catFR1	2	R1181E
2031.739	2.0	2135313	ORIENT_OFF	n/a	n/a	n/a	n/a	-999	18	[0, 0, 0]	n/a	catFR1	2	R1181E
2033.739	1.618	2137313	WORD	n/a	wordpools/wordpool_categorized_EN.txt	BINDER	OfficeSupplies	1	18	[0, 0, 0]	n/a	catFR1	2	R1181E
2035.357	0.9	2138931	WORD_OFF	n/a	n/a	BINDER	n/a	1	18	[0, 0, 0]	n/a	catFR1	2	R1181E
2036.257	1.616	2139831	WORD	n/a	wordpools/wordpool_categorized_EN.txt	ERASER	OfficeSupplies	2	18	[0, 0, 0]	n/a	catFR1	2	R1181E
2037.873	0.884	2141447	WORD_OFF	n/a	n/a	ERASER	n/a	2	18	[0, 0, 0]	n/a	catFR1	2	R1181E
2038.757	1.618	2142331	WORD	n/a	wordpools/wordpool_categorized_EN.txt	NIGHTSTAND	Furniture	3	18	[0, 0, 0]	n/a	catFR1	2	R1181E
2040.375	0.833	2143949	WORD_OFF	n/a	n/a	NIGHTSTAND	n/a	3	18	[0, 0, 0]	n/a	catFR1	2	R1181E
2041.208	1.616	2144782	WORD	n/a	wordpools/wordpool_categorized_EN.txt	CHAIR	Furniture	4	18	[0, 0, 0]	n/a	catFR1	2	R1181E
2042.824	0.833	2146398	WORD_OFF	n/a	n/a	CHAIR	n/a	4	18	[0, 0, 0]	n/a	catFR1	2	R1181E
2043.657	1.601	2147231	WORD	n/a	wordpools/wordpool_categorized_EN.txt	GUITAR	Instruments	5	18	[0, 0, 0]	n/a	catFR1	2	R1181E
2045.258	0.801	2148832	WORD_OFF	n/a	n/a	GUITAR	n/a	5	18	[0, 0, 0]	n/a	catFR1	2	R1181E
2046.059	1.616	2149633	WORD	n/a	wordpools/wordpool_categorized_EN.txt	CELLO	Instruments	6	18	[0, 0, 0]	n/a	catFR1	2	R1181E
2047.675	0.768	2151249	WORD_OFF	n/a	n/a	CELLO	n/a	6	18	[0, 0, 0]	n/a	catFR1	2	R1181E
2048.443	1.617	2152017	WORD	n/a	wordpools/wordpool_categorized_EN.txt	DESK	Furniture	7	18	[0, 0, 0]	n/a	catFR1	2	R1181E
2050.06	0.883	2153634	WORD_OFF	n/a	n/a	DESK	n/a	7	18	[0, 0, 0]	n/a	catFR1	2	R1181E
2050.943	1.616	2154517	WORD	n/a	wordpools/wordpool_categorized_EN.txt	SOFA	Furniture	8	18	[0, 0, 0]	n/a	catFR1	2	R1181E
2052.559	0.768	2156132	WORD_OFF	n/a	n/a	SOFA	n/a	8	18	[0, 0, 0]	n/a	catFR1	2	R1181E
2053.327	1.617	2156900	WORD	n/a	wordpools/wordpool_categorized_EN.txt	PAPER	OfficeSupplies	9	18	[0, 0, 0]	n/a	catFR1	2	R1181E
2054.944	0.816	2158517	WORD_OFF	n/a	n/a	PAPER	n/a	9	18	[0, 0, 0]	n/a	catFR1	2	R1181E
2055.76	1.618	2159333	WORD	n/a	wordpools/wordpool_categorized_EN.txt	GLUE	OfficeSupplies	10	18	[0, 0, 0]	n/a	catFR1	2	R1181E
2057.378	0.933	2160951	WORD_OFF	n/a	n/a	GLUE	n/a	10	18	[0, 0, 0]	n/a	catFR1	2	R1181E
2058.311	1.617	2161884	WORD	n/a	wordpools/wordpool_categorized_EN.txt	BASS	Instruments	11	18	[0, 0, 0]	n/a	catFR1	2	R1181E
2059.928	0.832	2163501	WORD_OFF	n/a	n/a	BASS	n/a	11	18	[0, 0, 0]	n/a	catFR1	2	R1181E
2060.76	1.618	2164333	WORD	n/a	wordpools/wordpool_categorized_EN.txt	TUBA	Instruments	12	18	[0, 0, 0]	n/a	catFR1	2	R1181E
2062.378	0.001	2165951	WORD_OFF	n/a	n/a	TUBA	n/a	12	18	[0, 0, 0]	n/a	catFR1	2	R1181E
2062.379	0.172	2165952	ENCODING_END	n/a	n/a	n/a	n/a	-999	18	[0, 0, 0]	n/a	catFR1	2	R1181E
2062.551	0.001	2166124	DISTRACT_START	n/a	n/a	n/a	n/a	-999	18	[0, 0, 0]	n/a	catFR1	2	R1181E
2062.552	0.009	2166125	START	n/a	n/a	n/a	n/a	-999	18	[-999, -999, -999]	n/a	catFR1	2	R1181E
2062.561	3.785	2166134	PROB	3.785	n/a	n/a	n/a	-999	18	[4, 2, 8]	14	catFR1	2	R1181E
2066.346	3.65	2169919	PROB	3.65	n/a	n/a	n/a	-999	18	[2, 4, 4]	10	catFR1	2	R1181E
2069.996	4.5	2173569	PROB	4.5	n/a	n/a	n/a	-999	18	[2, 7, 6]	15	catFR1	2	R1181E
2074.496	4.635	2178069	PROB	4.635	n/a	n/a	n/a	-999	18	[1, 3, 9]	14	catFR1	2	R1181E
2079.131	6.467	2182703	PROB	6.467	n/a	n/a	n/a	-999	18	[8, 9, 5]	15	catFR1	2	R1181E
2085.598	0.017	2189170	STOP	n/a	n/a	n/a	n/a	-999	18	[-999, -999, -999]	n/a	catFR1	2	R1181E
2085.615	0.634	2189187	DISTRACT_END	n/a	n/a	n/a	n/a	-999	18	[0, 0, 0]	n/a	catFR1	2	R1181E
2086.249	0.517	2189821	RETRIEVAL_ORIENT	n/a	n/a	n/a	n/a	-999	18	[0, 0, 0]	n/a	catFR1	2	R1181E
2086.766	4.709	2190338	REC_START	n/a	n/a	n/a	n/a	-999	18	[0, 0, 0]	n/a	catFR1	2	R1181E
2091.475	1.052	2195047	REC_WORD	1.052	n/a	DESK	Furniture	7	18	[0, 0, 0]	n/a	catFR1	2	R1181E
2092.527	1.241	2196099	REC_WORD	1.241	n/a	NIGHTSTAND	Furniture	3	18	[0, 0, 0]	n/a	catFR1	2	R1181E
2093.768	1.031	2197340	REC_WORD	1.031	n/a	PAPER	OfficeSupplies	9	18	[0, 0, 0]	n/a	catFR1	2	R1181E
2094.799	2.863	2198371	REC_WORD	2.863	n/a	ERASER	OfficeSupplies	2	18	[0, 0, 0]	n/a	catFR1	2	R1181E
2097.662	1.232	2201234	REC_WORD	1.232	n/a	CELLO	Instruments	6	18	[0, 0, 0]	n/a	catFR1	2	R1181E
2098.894	2.13	2202466	REC_WORD	2.13	n/a	BASS	Instruments	11	18	[0, 0, 0]	n/a	catFR1	2	R1181E
2101.024	15.75	2204596	REC_WORD	15.75	n/a	CEILING	n/a	-999	18	[0, 0, 0]	n/a	catFR1	2	R1181E
2116.774	5.598	2220345	REC_END	n/a	n/a	n/a	n/a	-999	18	[0, 0, 0]	n/a	catFR1	2	R1181E
2122.372	0.5	2225943	TRIAL	n/a	n/a	n/a	n/a	-999	19	[0, 0, 0]	n/a	catFR1	2	R1181E
2122.872	10.428	2226443	COUNTDOWN_START	n/a	n/a	n/a	n/a	-999	19	[0, 0, 0]	n/a	catFR1	2	R1181E
2133.3	0.008	2236870	COUNTDOWN_END	n/a	n/a	n/a	n/a	-999	19	[0, 0, 0]	n/a	catFR1	2	R1181E
2133.308	1.617	2236878	ORIENT	n/a	n/a	n/a	n/a	-999	19	[0, 0, 0]	n/a	catFR1	2	R1181E
2134.925	2.233	2238495	ORIENT_OFF	n/a	n/a	n/a	n/a	-999	19	[0, 0, 0]	n/a	catFR1	2	R1181E
2137.158	1.616	2240728	WORD	n/a	wordpools/wordpool_categorized_EN.txt	WILLOW	Trees	1	19	[0, 0, 0]	n/a	catFR1	2	R1181E
2138.774	0.934	2242344	WORD_OFF	n/a	n/a	WILLOW	n/a	1	19	[0, 0, 0]	n/a	catFR1	2	R1181E
2139.708	1.618	2243278	WORD	n/a	wordpools/wordpool_categorized_EN.txt	SPRUCE	Trees	2	19	[0, 0, 0]	n/a	catFR1	2	R1181E
2141.326	0.983	2244896	WORD_OFF	n/a	n/a	SPRUCE	n/a	2	19	[0, 0, 0]	n/a	catFR1	2	R1181E
2142.309	1.617	2245879	WORD	n/a	wordpools/wordpool_categorized_EN.txt	ISLAND	Landscapes	3	19	[0, 0, 0]	n/a	catFR1	2	R1181E
2143.926	0.949	2247496	WORD_OFF	n/a	n/a	ISLAND	n/a	3	19	[0, 0, 0]	n/a	catFR1	2	R1181E
2144.875	1.617	2248445	WORD	n/a	wordpools/wordpool_categorized_EN.txt	OCEAN	Landscapes	4	19	[0, 0, 0]	n/a	catFR1	2	R1181E
2146.492	1.0	2250062	WORD_OFF	n/a	n/a	OCEAN	n/a	4	19	[0, 0, 0]	n/a	catFR1	2	R1181E
2147.492	1.618	2251062	WORD	n/a	wordpools/wordpool_categorized_EN.txt	VIOLIN	Instruments	5	19	[0, 0, 0]	n/a	catFR1	2	R1181E
2149.11	0.901	2252680	WORD_OFF	n/a	n/a	VIOLIN	n/a	5	19	[0, 0, 0]	n/a	catFR1	2	R1181E
2150.011	1.615	2253581	WORD	n/a	wordpools/wordpool_categorized_EN.txt	DRUM	Instruments	6	19	[0, 0, 0]	n/a	catFR1	2	R1181E
2151.626	0.802	2255196	WORD_OFF	n/a	n/a	DRUM	n/a	6	19	[0, 0, 0]	n/a	catFR1	2	R1181E
2152.428	1.617	2255998	WORD	n/a	wordpools/wordpool_categorized_EN.txt	OAK	Trees	7	19	[0, 0, 0]	n/a	catFR1	2	R1181E
2154.045	0.782	2257615	WORD_OFF	n/a	n/a	OAK	n/a	7	19	[0, 0, 0]	n/a	catFR1	2	R1181E
2154.827	1.618	2258397	WORD	n/a	wordpools/wordpool_categorized_EN.txt	BIRCH	Trees	8	19	[0, 0, 0]	n/a	catFR1	2	R1181E
2156.445	0.85	2260015	WORD_OFF	n/a	n/a	BIRCH	n/a	8	19	[0, 0, 0]	n/a	catFR1	2	R1181E
2157.295	1.617	2260864	WORD	n/a	wordpools/wordpool_categorized_EN.txt	LAKE	Landscapes	9	19	[0, 0, 0]	n/a	catFR1	2	R1181E
2158.912	0.916	2262481	WORD_OFF	n/a	n/a	LAKE	n/a	9	19	[0, 0, 0]	n/a	catFR1	2	R1181E
2159.828	1.618	2263397	WORD	n/a	wordpools/wordpool_categorized_EN.txt	WOODS	Landscapes	10	19	[0, 0, 0]	n/a	catFR1	2	R1181E
2161.446	0.983	2265015	WORD_OFF	n/a	n/a	WOODS	n/a	10	19	[0, 0, 0]	n/a	catFR1	2	R1181E
2162.429	1.617	2265998	WORD	n/a	wordpools/wordpool_categorized_EN.txt	TRUMPET	Instruments	11	19	[0, 0, 0]	n/a	catFR1	2	R1181E
2164.046	0.816	2267615	WORD_OFF	n/a	n/a	TRUMPET	n/a	11	19	[0, 0, 0]	n/a	catFR1	2	R1181E
2164.862	1.618	2268431	WORD	n/a	wordpools/wordpool_categorized_EN.txt	BANJO	Instruments	12	19	[0, 0, 0]	n/a	catFR1	2	R1181E
2166.48	0.0	2270049	ENCODING_END	n/a	n/a	n/a	n/a	-999	19	[0, 0, 0]	n/a	catFR1	2	R1181E
2166.48	0.136	2270049	WORD_OFF	n/a	n/a	BANJO	n/a	12	19	[0, 0, 0]	n/a	catFR1	2	R1181E
2166.616	0.0	2270185	DISTRACT_START	n/a	n/a	n/a	n/a	-999	19	[0, 0, 0]	n/a	catFR1	2	R1181E
2166.616	0.013	2270185	START	n/a	n/a	n/a	n/a	-999	19	[-999, -999, -999]	n/a	catFR1	2	R1181E
2166.629	4.402	2270198	PROB	4.402	n/a	n/a	n/a	-999	19	[7, 3, 7]	17	catFR1	2	R1181E
2171.031	5.367	2274600	PROB	5.367	n/a	n/a	n/a	-999	19	[4, 5, 9]	14	catFR1	2	R1181E
2176.398	4.701	2279967	PROB	4.701	n/a	n/a	n/a	-999	19	[2, 7, 1]	10	catFR1	2	R1181E
2181.099	7.387	2284668	PROB	7.387	n/a	n/a	n/a	-999	19	[6, 8, 3]	16	catFR1	2	R1181E
2188.486	0.014	2292054	STOP	n/a	n/a	n/a	n/a	-999	19	[-999, -999, -999]	n/a	catFR1	2	R1181E
2188.5	0.517	2292068	DISTRACT_END	n/a	n/a	n/a	n/a	-999	19	[0, 0, 0]	n/a	catFR1	2	R1181E
2189.017	0.517	2292585	RETRIEVAL_ORIENT	n/a	n/a	n/a	n/a	-999	19	[0, 0, 0]	n/a	catFR1	2	R1181E
2189.534	3.034	2293102	REC_START	n/a	n/a	n/a	n/a	-999	19	[0, 0, 0]	n/a	catFR1	2	R1181E
2192.568	1.156	2296136	REC_WORD	1.156	n/a	BASS	n/a	-999	19	[0, 0, 0]	n/a	catFR1	2	R1181E
2193.724	25.819	2297292	REC_WORD	25.819	n/a	BANJO	Instruments	12	19	[0, 0, 0]	n/a	catFR1	2	R1181E
2219.543	5.731	2323110	REC_END	n/a	n/a	n/a	n/a	-999	19	[0, 0, 0]	n/a	catFR1	2	R1181E
2225.274	0.5	2328841	TRIAL	n/a	n/a	n/a	n/a	-999	20	[0, 0, 0]	n/a	catFR1	2	R1181E
2225.774	10.428	2329341	COUNTDOWN_START	n/a	n/a	n/a	n/a	-999	20	[0, 0, 0]	n/a	catFR1	2	R1181E
2236.202	0.007	2339768	COUNTDOWN_END	n/a	n/a	n/a	n/a	-999	20	[0, 0, 0]	n/a	catFR1	2	R1181E
2236.209	1.616	2339775	ORIENT	n/a	n/a	n/a	n/a	-999	20	[0, 0, 0]	n/a	catFR1	2	R1181E
2237.825	1.933	2341391	ORIENT_OFF	n/a	n/a	n/a	n/a	-999	20	[0, 0, 0]	n/a	catFR1	2	R1181E
2239.758	1.602	2343324	WORD	n/a	wordpools/wordpool_categorized_EN.txt	BLENDER	Appliances	1	20	[0, 0, 0]	n/a	catFR1	2	R1181E
2241.36	0.917	2344926	WORD_OFF	n/a	n/a	BLENDER	n/a	1	20	[0, 0, 0]	n/a	catFR1	2	R1181E
2242.277	1.617	2345843	WORD	n/a	wordpools/wordpool_categorized_EN.txt	DISHWASHER	Appliances	2	20	[0, 0, 0]	n/a	catFR1	2	R1181E
2243.894	0.832	2347460	WORD_OFF	n/a	n/a	DISHWASHER	n/a	2	20	[0, 0, 0]	n/a	catFR1	2	R1181E
2244.726	1.601	2348292	WORD	n/a	wordpools/wordpool_categorized_EN.txt	APPLE	Fruit	3	20	[0, 0, 0]	n/a	catFR1	2	R1181E
2246.327	0.817	2349893	WORD_OFF	n/a	n/a	APPLE	n/a	3	20	[0, 0, 0]	n/a	catFR1	2	R1181E
2247.144	1.616	2350710	WORD	n/a	wordpools/wordpool_categorized_EN.txt	PEAR	Fruit	4	20	[0, 0, 0]	n/a	catFR1	2	R1181E
2248.76	1.017	2352326	WORD_OFF	n/a	n/a	PEAR	n/a	4	20	[0, 0, 0]	n/a	catFR1	2	R1181E
2249.777	1.618	2353343	WORD	n/a	wordpools/wordpool_categorized_EN.txt	THUNDERSTORM	Weather	5	20	[0, 0, 0]	n/a	catFR1	2	R1181E
2251.395	0.784	2354961	WORD_OFF	n/a	n/a	THUNDERSTORM	n/a	5	20	[0, 0, 0]	n/a	catFR1	2	R1181E
2252.179	1.616	2355745	WORD	n/a	wordpools/wordpool_categorized_EN.txt	WIND	Weather	6	20	[0, 0, 0]	n/a	catFR1	2	R1181E
2253.795	0.766	2357361	WORD_OFF	n/a	n/a	WIND	n/a	6	20	[0, 0, 0]	n/a	catFR1	2	R1181E
2254.561	1.618	2358127	WORD	n/a	wordpools/wordpool_categorized_EN.txt	LEMON	Fruit	7	20	[0, 0, 0]	n/a	catFR1	2	R1181E
2256.179	0.967	2359745	WORD_OFF	n/a	n/a	LEMON	n/a	7	20	[0, 0, 0]	n/a	catFR1	2	R1181E
2257.146	1.616	2360712	WORD	n/a	wordpools/wordpool_categorized_EN.txt	LIME	Fruit	8	20	[0, 0, 0]	n/a	catFR1	2	R1181E
2258.762	0.934	2362328	WORD_OFF	n/a	n/a	LIME	n/a	8	20	[0, 0, 0]	n/a	catFR1	2	R1181E
2259.696	1.617	2363262	WORD	n/a	wordpools/wordpool_categorized_EN.txt	STOVE	Appliances	9	20	[0, 0, 0]	n/a	catFR1	2	R1181E
2261.313	0.901	2364879	WORD_OFF	n/a	n/a	STOVE	n/a	9	20	[0, 0, 0]	n/a	catFR1	2	R1181E
2262.214	1.616	2365779	WORD	n/a	wordpools/wordpool_categorized_EN.txt	WASHER	Appliances	10	20	[0, 0, 0]	n/a	catFR1	2	R1181E
2263.83	0.866	2367395	WORD_OFF	n/a	n/a	WASHER	n/a	10	20	[0, 0, 0]	n/a	catFR1	2	R1181E
2264.696	1.618	2368261	WORD	n/a	wordpools/wordpool_categorized_EN.txt	SNOW	Weather	11	20	[0, 0, 0]	n/a	catFR1	2	R1181E
2266.314	0.934	2369879	WORD_OFF	n/a	n/a	SNOW	n/a	11	20	[0, 0, 0]	n/a	catFR1	2	R1181E
2267.248	1.616	2370813	WORD	n/a	wordpools/wordpool_categorized_EN.txt	FOG	Weather	12	20	[0, 0, 0]	n/a	catFR1	2	R1181E
2268.864	0.0	2372429	WORD_OFF	n/a	n/a	FOG	n/a	12	20	[0, 0, 0]	n/a	catFR1	2	R1181E
2268.864	0.135	2372429	ENCODING_END	n/a	n/a	n/a	n/a	-999	20	[0, 0, 0]	n/a	catFR1	2	R1181E
2268.999	0.0	2372564	DISTRACT_START	n/a	n/a	n/a	n/a	-999	20	[0, 0, 0]	n/a	catFR1	2	R1181E
2268.999	0.016	2372564	START	n/a	n/a	n/a	n/a	-999	20	[-999, -999, -999]	n/a	catFR1	2	R1181E
2269.015	3.766	2372580	PROB	3.766	n/a	n/a	n/a	-999	20	[3, 2, 7]	12	catFR1	2	R1181E
2272.781	4.034	2376346	PROB	4.034	n/a	n/a	n/a	-999	20	[1, 4, 9]	15	catFR1	2	R1181E
2276.815	4.068	2380380	PROB	4.068	n/a	n/a	n/a	-999	20	[8, 1, 2]	11	catFR1	2	R1181E
2280.883	5.151	2384448	PROB	5.151	n/a	n/a	n/a	-999	20	[2, 2, 4]	10	catFR1	2	R1181E
2286.034	10.686	2389599	PROB	10.686	n/a	n/a	n/a	-999	20	[2, 9, 4]	16	catFR1	2	R1181E
2296.72	0.016	2400284	STOP	n/a	n/a	n/a	n/a	-999	20	[-999, -999, -999]	n/a	catFR1	2	R1181E
2296.736	0.65	2400300	DISTRACT_END	n/a	n/a	n/a	n/a	-999	20	[0, 0, 0]	n/a	catFR1	2	R1181E
2297.386	0.518	2400950	RETRIEVAL_ORIENT	n/a	n/a	n/a	n/a	-999	20	[0, 0, 0]	n/a	catFR1	2	R1181E
2297.904	23.44	2401468	REC_START	n/a	n/a	n/a	n/a	-999	20	[0, 0, 0]	n/a	catFR1	2	R1181E
2321.344	6.204	2424907	REC_WORD_VV	6.204	n/a	<>	n/a	-999	20	[0, 0, 0]	n/a	catFR1	2	R1181E
2327.548	0.365	2431111	REC_WORD_VV	0.365	n/a	<>	n/a	-999	20	[0, 0, 0]	n/a	catFR1	2	R1181E
2327.913	56.604	2431476	REC_END	n/a	n/a	n/a	n/a	-999	20	[0, 0, 0]	n/a	catFR1	2	R1181E
2384.517	0.5	2488078	TRIAL	n/a	n/a	n/a	n/a	-999	21	[0, 0, 0]	n/a	catFR1	2	R1181E
2385.017	10.428	2488578	COUNTDOWN_START	n/a	n/a	n/a	n/a	-999	21	[0, 0, 0]	n/a	catFR1	2	R1181E
2395.445	0.009	2499005	COUNTDOWN_END	n/a	n/a	n/a	n/a	-999	21	[0, 0, 0]	n/a	catFR1	2	R1181E
2395.454	1.617	2499014	ORIENT	n/a	n/a	n/a	n/a	-999	21	[0, 0, 0]	n/a	catFR1	2	R1181E
2397.071	1.817	2500631	ORIENT_OFF	n/a	n/a	n/a	n/a	-999	21	[0, 0, 0]	n/a	catFR1	2	R1181E
2398.888	1.616	2502448	WORD	n/a	wordpools/wordpool_categorized_EN.txt	GRAPE	Fruit	1	21	[0, 0, 0]	n/a	catFR1	2	R1181E
2400.504	0.917	2504064	WORD_OFF	n/a	n/a	GRAPE	n/a	1	21	[0, 0, 0]	n/a	catFR1	2	R1181E
2401.421	1.617	2504981	WORD	n/a	wordpools/wordpool_categorized_EN.txt	STRAWBERRY	Fruit	2	21	[0, 0, 0]	n/a	catFR1	2	R1181E
2403.038	0.867	2506598	WORD_OFF	n/a	n/a	STRAWBERRY	n/a	2	21	[0, 0, 0]	n/a	catFR1	2	R1181E
2403.905	1.616	2507465	WORD	n/a	wordpools/wordpool_categorized_EN.txt	WALL	Building	3	21	[0, 0, 0]	n/a	catFR1	2	R1181E
2405.521	0.984	2509081	WORD_OFF	n/a	n/a	WALL	n/a	3	21	[0, 0, 0]	n/a	catFR1	2	R1181E
2406.505	1.618	2510065	WORD	n/a	wordpools/wordpool_categorized_EN.txt	STAIRS	Building	4	21	[0, 0, 0]	n/a	catFR1	2	R1181E
2408.123	0.8	2511683	WORD_OFF	n/a	n/a	STAIRS	n/a	4	21	[0, 0, 0]	n/a	catFR1	2	R1181E
2408.923	1.616	2512483	WORD	n/a	wordpools/wordpool_categorized_EN.txt	BEACH	Landscapes	5	21	[0, 0, 0]	n/a	catFR1	2	R1181E
2410.539	0.884	2514099	WORD_OFF	n/a	n/a	BEACH	n/a	5	21	[0, 0, 0]	n/a	catFR1	2	R1181E
2411.423	1.617	2514983	WORD	n/a	wordpools/wordpool_categorized_EN.txt	VALLEY	Landscapes	6	21	[0, 0, 0]	n/a	catFR1	2	R1181E
2413.04	0.867	2516600	WORD_OFF	n/a	n/a	VALLEY	n/a	6	21	[0, 0, 0]	n/a	catFR1	2	R1181E
2413.907	1.616	2517467	WORD	n/a	wordpools/wordpool_categorized_EN.txt	CHERRY	Fruit	7	21	[0, 0, 0]	n/a	catFR1	2	R1181E
2415.523	0.983	2519083	WORD_OFF	n/a	n/a	CHERRY	n/a	7	21	[0, 0, 0]	n/a	catFR1	2	R1181E
2416.506	1.602	2520066	WORD	n/a	wordpools/wordpool_categorized_EN.txt	ORANGE	Fruit	8	21	[0, 0, 0]	n/a	catFR1	2	R1181E
2418.108	0.933	2521667	WORD_OFF	n/a	n/a	ORANGE	n/a	8	21	[0, 0, 0]	n/a	catFR1	2	R1181E
2419.041	1.616	2522600	WORD	n/a	wordpools/wordpool_categorized_EN.txt	ATTIC	Building	9	21	[0, 0, 0]	n/a	catFR1	2	R1181E
2420.657	0.95	2524216	WORD_OFF	n/a	n/a	ATTIC	n/a	9	21	[0, 0, 0]	n/a	catFR1	2	R1181E
2421.607	1.618	2525166	WORD	n/a	wordpools/wordpool_categorized_EN.txt	DOOR	Building	10	21	[0, 0, 0]	n/a	catFR1	2	R1181E
2423.225	0.767	2526784	WORD_OFF	n/a	n/a	DOOR	n/a	10	21	[0, 0, 0]	n/a	catFR1	2	R1181E
2423.992	1.616	2527551	WORD	n/a	wordpools/wordpool_categorized_EN.txt	RIVER	Landscapes	11	21	[0, 0, 0]	n/a	catFR1	2	R1181E
2425.608	0.9	2529167	WORD_OFF	n/a	n/a	RIVER	n/a	11	21	[0, 0, 0]	n/a	catFR1	2	R1181E
2426.508	1.618	2530067	WORD	n/a	wordpools/wordpool_categorized_EN.txt	HILLS	Landscapes	12	21	[0, 0, 0]	n/a	catFR1	2	R1181E
2428.126	0.0	2531685	ENCODING_END	n/a	n/a	n/a	n/a	-999	21	[0, 0, 0]	n/a	catFR1	2	R1181E
2428.126	0.165	2531685	WORD_OFF	n/a	n/a	HILLS	n/a	12	21	[0, 0, 0]	n/a	catFR1	2	R1181E
2428.291	0.0	2531850	DISTRACT_START	n/a	n/a	n/a	n/a	-999	21	[0, 0, 0]	n/a	catFR1	2	R1181E
2428.291	0.019	2531850	START	n/a	n/a	n/a	n/a	-999	21	[-999, -999, -999]	n/a	catFR1	2	R1181E
2428.31	8.168	2531869	PROB	8.168	n/a	n/a	n/a	-999	21	[6, 7, 5]	18	catFR1	2	R1181E
2436.478	6.884	2540037	PROB	6.884	n/a	n/a	n/a	-999	21	[7, 3, 6]	18	catFR1	2	R1181E
2443.362	7.594	2546921	PROB	7.594	n/a	n/a	n/a	-999	21	[1, 5, 2]	8	catFR1	2	R1181E
2450.956	0.008	2554514	STOP	n/a	n/a	n/a	n/a	-999	21	[-999, -999, -999]	n/a	catFR1	2	R1181E
2450.964	0.665	2554522	DISTRACT_END	n/a	n/a	n/a	n/a	-999	21	[0, 0, 0]	n/a	catFR1	2	R1181E
2451.629	0.519	2555187	RETRIEVAL_ORIENT	n/a	n/a	n/a	n/a	-999	21	[0, 0, 0]	n/a	catFR1	2	R1181E
2452.148	3.989	2555706	REC_START	n/a	n/a	n/a	n/a	-999	21	[0, 0, 0]	n/a	catFR1	2	R1181E
2456.137	3.504	2559695	REC_WORD	3.504	n/a	RIVER	Landscapes	11	21	[0, 0, 0]	n/a	catFR1	2	R1181E
2459.641	4.487	2563199	REC_WORD	4.487	n/a	STRAWBERRY	Fruit	2	21	[0, 0, 0]	n/a	catFR1	2	R1181E
2464.128	2.307	2567686	REC_WORD	2.307	n/a	CHERRY	Fruit	7	21	[0, 0, 0]	n/a	catFR1	2	R1181E
2466.435	1.764	2569993	REC_WORD	1.764	n/a	APPLE	n/a	-999	21	[0, 0, 0]	n/a	catFR1	2	R1181E
2468.199	6.343	2571757	REC_WORD	6.343	n/a	WALL	Building	3	21	[0, 0, 0]	n/a	catFR1	2	R1181E
2474.542	7.615	2578099	REC_WORD	7.615	n/a	MOUNTAIN	n/a	-999	21	[0, 0, 0]	n/a	catFR1	2	R1181E
2482.157	4.746	2585714	REC_END	n/a	n/a	n/a	n/a	-999	21	[0, 0, 0]	n/a	catFR1	2	R1181E
2486.903	0.5	2590460	TRIAL	n/a	n/a	n/a	n/a	-999	22	[0, 0, 0]	n/a	catFR1	2	R1181E
2487.403	10.428	2590960	COUNTDOWN_START	n/a	n/a	n/a	n/a	-999	22	[0, 0, 0]	n/a	catFR1	2	R1181E
2497.831	0.006	2601387	COUNTDOWN_END	n/a	n/a	n/a	n/a	-999	22	[0, 0, 0]	n/a	catFR1	2	R1181E
2497.837	1.601	2601393	ORIENT	n/a	n/a	n/a	n/a	-999	22	[0, 0, 0]	n/a	catFR1	2	R1181E
2499.438	2.4	2602994	ORIENT_OFF	n/a	n/a	n/a	n/a	-999	22	[0, 0, 0]	n/a	catFR1	2	R1181E
2501.838	1.618	2605394	WORD	n/a	wordpools/wordpool_categorized_EN.txt	DOLL	Toys	1	22	[0, 0, 0]	n/a	catFR1	2	R1181E
2503.456	0.967	2607012	WORD_OFF	n/a	n/a	DOLL	n/a	1	22	[0, 0, 0]	n/a	catFR1	2	R1181E
2504.423	1.617	2607979	WORD	n/a	wordpools/wordpool_categorized_EN.txt	DOLLHOUSE	Toys	2	22	[0, 0, 0]	n/a	catFR1	2	R1181E
2506.04	1.0	2609596	WORD_OFF	n/a	n/a	DOLLHOUSE	n/a	2	22	[0, 0, 0]	n/a	catFR1	2	R1181E
2507.04	1.616	2610596	WORD	n/a	wordpools/wordpool_categorized_EN.txt	CIDER	Beverages	3	22	[0, 0, 0]	n/a	catFR1	2	R1181E
2508.656	0.934	2612212	WORD_OFF	n/a	n/a	CIDER	n/a	3	22	[0, 0, 0]	n/a	catFR1	2	R1181E
2509.59	1.617	2613146	WORD	n/a	wordpools/wordpool_categorized_EN.txt	BEER	Beverages	4	22	[0, 0, 0]	n/a	catFR1	2	R1181E
2511.207	0.801	2614763	WORD_OFF	n/a	n/a	BEER	n/a	4	22	[0, 0, 0]	n/a	catFR1	2	R1181E
2512.008	1.616	2615564	WORD	n/a	wordpools/wordpool_categorized_EN.txt	LIGHTNING	Weather	5	22	[0, 0, 0]	n/a	catFR1	2	R1181E
2513.624	0.784	2617180	WORD_OFF	n/a	n/a	LIGHTNING	n/a	5	22	[0, 0, 0]	n/a	catFR1	2	R1181E
2514.408	1.617	2617964	WORD	n/a	wordpools/wordpool_categorized_EN.txt	CLOUD	Weather	6	22	[0, 0, 0]	n/a	catFR1	2	R1181E
2516.025	0.95	2619581	WORD_OFF	n/a	n/a	CLOUD	n/a	6	22	[0, 0, 0]	n/a	catFR1	2	R1181E
2516.975	1.616	2620531	WORD	n/a	wordpools/wordpool_categorized_EN.txt	RUM	Beverages	7	22	[0, 0, 0]	n/a	catFR1	2	R1181E
2518.591	0.834	2622147	WORD_OFF	n/a	n/a	RUM	n/a	7	22	[0, 0, 0]	n/a	catFR1	2	R1181E
2519.425	1.618	2622981	WORD	n/a	wordpools/wordpool_categorized_EN.txt	LEMONADE	Beverages	8	22	[0, 0, 0]	n/a	catFR1	2	R1181E
2521.043	0.85	2624599	WORD_OFF	n/a	n/a	LEMONADE	n/a	8	22	[0, 0, 0]	n/a	catFR1	2	R1181E
2521.893	1.616	2625449	WORD	n/a	wordpools/wordpool_categorized_EN.txt	MARBLES	Toys	9	22	[0, 0, 0]	n/a	catFR1	2	R1181E
2523.509	0.851	2627064	WORD_OFF	n/a	n/a	MARBLES	n/a	9	22	[0, 0, 0]	n/a	catFR1	2	R1181E
2524.36	1.617	2627915	WORD	n/a	wordpools/wordpool_categorized_EN.txt	FRISBEE	Toys	10	22	[0, 0, 0]	n/a	catFR1	2	R1181E
2525.977	0.983	2629532	WORD_OFF	n/a	n/a	FRISBEE	n/a	10	22	[0, 0, 0]	n/a	catFR1	2	R1181E
2526.96	1.616	2630515	WORD	n/a	wordpools/wordpool_categorized_EN.txt	HUMIDITY	Weather	11	22	[0, 0, 0]	n/a	catFR1	2	R1181E
2528.576	0.885	2632131	WORD_OFF	n/a	n/a	HUMIDITY	n/a	11	22	[0, 0, 0]	n/a	catFR1	2	R1181E
2529.461	1.617	2633016	WORD	n/a	wordpools/wordpool_categorized_EN.txt	TORNADO	Weather	12	22	[0, 0, 0]	n/a	catFR1	2	R1181E
2531.078	0.0	2634633	WORD_OFF	n/a	n/a	TORNADO	n/a	12	22	[0, 0, 0]	n/a	catFR1	2	R1181E
2531.078	0.133	2634633	ENCODING_END	n/a	n/a	n/a	n/a	-999	22	[0, 0, 0]	n/a	catFR1	2	R1181E
2531.211	0.0	2634766	DISTRACT_START	n/a	n/a	n/a	n/a	-999	22	[0, 0, 0]	n/a	catFR1	2	R1181E
2531.211	0.017	2634766	START	n/a	n/a	n/a	n/a	-999	22	[-999, -999, -999]	n/a	catFR1	2	R1181E
2531.228	4.533	2634783	PROB	4.533	n/a	n/a	n/a	-999	22	[3, 7, 8]	18	catFR1	2	R1181E
2535.761	5.685	2639316	PROB	5.685	n/a	n/a	n/a	-999	22	[3, 6, 3]	12	catFR1	2	R1181E
2541.446	2.917	2645001	PROB	2.917	n/a	n/a	n/a	-999	22	[1, 2, 8]	11	catFR1	2	R1181E
2544.363	6.877	2647918	PROB	6.877	n/a	n/a	n/a	-999	22	[2, 7, 9]	18	catFR1	2	R1181E
2551.24	0.008	2654794	STOP	n/a	n/a	n/a	n/a	-999	22	[-999, -999, -999]	n/a	catFR1	2	R1181E
2551.248	0.582	2654802	DISTRACT_END	n/a	n/a	n/a	n/a	-999	22	[0, 0, 0]	n/a	catFR1	2	R1181E
2551.83	0.519	2655384	RETRIEVAL_ORIENT	n/a	n/a	n/a	n/a	-999	22	[0, 0, 0]	n/a	catFR1	2	R1181E
2552.349	3.353	2655903	REC_START	n/a	n/a	n/a	n/a	-999	22	[0, 0, 0]	n/a	catFR1	2	R1181E
2555.702	3.483	2659256	REC_WORD	3.483	n/a	BEER	Beverages	4	22	[0, 0, 0]	n/a	catFR1	2	R1181E
2559.185	2.474	2662739	REC_WORD	2.474	n/a	THUNDERSTORM	n/a	-999	22	[0, 0, 0]	n/a	catFR1	2	R1181E
2561.659	8.135	2665213	REC_WORD	8.135	n/a	RUM	Beverages	7	22	[0, 0, 0]	n/a	catFR1	2	R1181E
2569.794	12.563	2673348	REC_WORD	12.563	n/a	CELLAR	n/a	-999	22	[0, 0, 0]	n/a	catFR1	2	R1181E
2582.357	5.03	2685910	REC_END	n/a	n/a	n/a	n/a	-999	22	[0, 0, 0]	n/a	catFR1	2	R1181E
2587.387	0.5	2690940	TRIAL	n/a	n/a	n/a	n/a	-999	23	[0, 0, 0]	n/a	catFR1	2	R1181E
2587.887	10.428	2691440	COUNTDOWN_START	n/a	n/a	n/a	n/a	-999	23	[0, 0, 0]	n/a	catFR1	2	R1181E
2598.315	0.008	2701868	COUNTDOWN_END	n/a	n/a	n/a	n/a	-999	23	[0, 0, 0]	n/a	catFR1	2	R1181E
2598.323	1.617	2701876	ORIENT	n/a	n/a	n/a	n/a	-999	23	[0, 0, 0]	n/a	catFR1	2	R1181E
2599.94	2.0	2703493	ORIENT_OFF	n/a	n/a	n/a	n/a	-999	23	[0, 0, 0]	n/a	catFR1	2	R1181E
2601.94	1.616	2705492	WORD	n/a	wordpools/wordpool_categorized_EN.txt	BUTTERFLY	Insects	1	23	[0, 0, 0]	n/a	catFR1	2	R1181E
2603.556	0.768	2707108	WORD_OFF	n/a	n/a	BUTTERFLY	n/a	1	23	[0, 0, 0]	n/a	catFR1	2	R1181E
