onset	duration	sample	trial_type	response_time	stim_file	item_name	category	serialpos	list	test	answer	experiment	session	subject
0.0	0.001	-1	PROB	27.5	n/a	n/a	n/a	-999	-1	[5, 2, 3]	10.0	catFR1	1	R1408N
0.001	27.516	-1	START	n/a	n/a	n/a	n/a	-999	-1	[-999, -999, -999]	n/a	catFR1	1	R1408N
27.517	150.633	-1	STOP	n/a	n/a	n/a	n/a	-999	-1	[-999, -999, -999]	n/a	catFR1	1	R1408N
178.15	0.002	-1	PROB	20.649	n/a	n/a	n/a	-999	1	[2, 2, 7]	11.0	catFR1	1	R1408N
178.152	20.664	-1	START	n/a	n/a	n/a	n/a	-999	1	[-999, -999, -999]	n/a	catFR1	1	R1408N
198.816	93.801	-1	STOP	n/a	n/a	n/a	n/a	-999	1	[-999, -999, -999]	n/a	catFR1	1	R1408N
292.617	0.001	-1	PROB	15.599	n/a	n/a	n/a	-999	2	[4, 6, 7]	17.0	catFR1	1	R1408N
292.618	15.615	-1	START	n/a	n/a	n/a	n/a	-999	2	[-999, -999, -999]	n/a	catFR1	1	R1408N
308.233	9.134	-1	PROB	9.117	n/a	n/a	n/a	-999	2	[7, 7, 1]	15.0	catFR1	1	R1408N
317.367	97.935	-1	STOP	n/a	n/a	n/a	n/a	-999	2	[-999, -999, -999]	n/a	catFR1	1	R1408N
415.302	0.001	-1	PROB	6.665	n/a	n/a	n/a	-999	3	[5, 2, 2]	9.0	catFR1	1	R1408N
415.303	6.68	-1	START	n/a	n/a	n/a	n/a	-999	3	[-999, -999, -999]	n/a	catFR1	1	R1408N
421.983	15.384	-1	PROB	15.367	n/a	n/a	n/a	-999	3	[6, 7, 5]	17.0	catFR1	1	R1408N
437.367	77.417	-1	STOP	n/a	n/a	n/a	n/a	-999	3	[-999, -999, -999]	n/a	catFR1	1	R1408N
514.784	0.002	-1	PROB	10.182	n/a	n/a	n/a	-999	4	[3, 8, 5]	15.0	catFR1	1	R1408N
514.786	10.198	-1	START	n/a	n/a	n/a	n/a	-999	4	[-999, -999, -999]	n/a	catFR1	1	R1408N
524.984	8.75	-1	PROB	8.733	n/a	n/a	n/a	-999	4	[8, 2, 8]	18.0	catFR1	1	R1408N
533.734	6.433	-1	PROB	6.416	n/a	n/a	n/a	-999	4	[3, 6, 4]	13.0	catFR1	1	R1408N
540.167	76.783	-1	STOP	n/a	n/a	n/a	n/a	-999	4	[-999, -999, -999]	n/a	catFR1	1	R1408N
616.95	0.002	-1	PROB	6.233	n/a	n/a	n/a	-999	5	[2, 8, 6]	16.0	catFR1	1	R1408N
616.952	6.248	-1	START	n/a	n/a	n/a	n/a	-999	5	[-999, -999, -999]	n/a	catFR1	1	R1408N
623.2	5.666	-1	PROB	5.649	n/a	n/a	n/a	-999	5	[7, 2, 6]	15.0	catFR1	1	R1408N
628.866	4.467	-1	PROB	4.451	n/a	n/a	n/a	-999	5	[2, 2, 1]	5.0	catFR1	1	R1408N
633.333	9.767	-1	PROB	9.75	n/a	n/a	n/a	-999	5	[3, 7, 4]	14.0	catFR1	1	R1408N
643.1	76.784	-1	STOP	n/a	n/a	n/a	n/a	-999	5	[-999, -999, -999]	n/a	catFR1	1	R1408N
719.884	0.001	-1	PROB	8.099	n/a	n/a	n/a	-999	6	[2, 7, 1]	10.0	catFR1	1	R1408N
719.885	8.116	-1	START	n/a	n/a	n/a	n/a	-999	6	[-999, -999, -999]	n/a	catFR1	1	R1408N
728.001	5.849	-1	PROB	5.832	n/a	n/a	n/a	-999	6	[5, 5, 8]	18.0	catFR1	1	R1408N
733.85	10.333	-1	PROB	10.316	n/a	n/a	n/a	-999	6	[4, 1, 7]	12.0	catFR1	1	R1408N
744.183	78.317	-1	STOP	n/a	n/a	n/a	n/a	-999	6	[-999, -999, -999]	n/a	catFR1	1	R1408N
822.5	0.003	-1	PROB	9.733	n/a	n/a	n/a	-999	7	[7, 4, 4]	15.0	catFR1	1	R1408N
822.503	9.747	-1	START	n/a	n/a	n/a	n/a	-999	7	[-999, -999, -999]	n/a	catFR1	1	R1408N
832.25	4.017	-1	PROB	4.0	n/a	n/a	n/a	-999	7	[2, 5, 5]	12.0	catFR1	1	R1408N
836.267	5.883	-1	PROB	5.866	n/a	n/a	n/a	-999	7	[7, 2, 8]	17.0	catFR1	1	R1408N
842.15	6.233	-1	PROB	6.216	n/a	n/a	n/a	-999	7	[4, 3, 4]	11.0	catFR1	1	R1408N
848.383	85.951	-1	STOP	n/a	n/a	n/a	n/a	-999	7	[-999, -999, -999]	n/a	catFR1	1	R1408N
934.334	0.001	-1	PROB	23.299	n/a	n/a	n/a	-999	8	[7, 7, 5]	19.0	catFR1	1	R1408N
934.335	23.314	-1	START	n/a	n/a	n/a	n/a	-999	8	[-999, -999, -999]	n/a	catFR1	1	R1408N
957.649	81.317	-1	STOP	n/a	n/a	n/a	n/a	-999	8	[-999, -999, -999]	n/a	catFR1	1	R1408N
1038.966	0.001	-1	PROB	21.933	n/a	n/a	n/a	-999	9	[4, 1, 2]	7.0	catFR1	1	R1408N
1038.967	21.95	-1	START	n/a	n/a	n/a	n/a	-999	9	[-999, -999, -999]	n/a	catFR1	1	R1408N
1060.917	75.6	-1	STOP	n/a	n/a	n/a	n/a	-999	9	[-999, -999, -999]	n/a	catFR1	1	R1408N
1136.517	0.001	-1	PROB	8.416	n/a	n/a	n/a	-999	10	[6, 6, 5]	17.0	catFR1	1	R1408N
1136.518	8.432	-1	START	n/a	n/a	n/a	n/a	-999	10	[-999, -999, -999]	n/a	catFR1	1	R1408N
1144.95	5.266	-1	PROB	5.25	n/a	n/a	n/a	-999	10	[4, 2, 6]	12.0	catFR1	1	R1408N
1150.216	5.551	-1	PROB	5.534	n/a	n/a	n/a	-999	10	[6, 6, 1]	13.0	catFR1	1	R1408N
1155.767	8.65	-1	PROB	8.633	n/a	n/a	n/a	-999	10	[1, 4, 5]	10.0	catFR1	1	R1408N
1164.417	88.05	-1	STOP	n/a	n/a	n/a	n/a	-999	10	[-999, -999, -999]	n/a	catFR1	1	R1408N
1252.467	0.002	-1	PROB	12.116	n/a	n/a	n/a	-999	11	[3, 4, 1]	8.0	catFR1	1	R1408N
1252.469	12.132	-1	START	n/a	n/a	n/a	n/a	-999	11	[-999, -999, -999]	n/a	catFR1	1	R1408N
1264.601	4.615	-1	PROB	4.599	n/a	n/a	n/a	-999	11	[3, 1, 2]	6.0	catFR1	1	R1408N
1269.216	10.65	-1	PROB	10.633	n/a	n/a	n/a	-999	11	[4, 8, 6]	18.0	catFR1	1	R1408N
1279.866	98.934	-1	STOP	n/a	n/a	n/a	n/a	-999	11	[-999, -999, -999]	n/a	catFR1	1	R1408N
1378.8	0.001	-1	PROB	5.283	n/a	n/a	n/a	-999	12	[3, 7, 5]	15.0	catFR1	1	R1408N
1378.801	5.299	-1	START	n/a	n/a	n/a	n/a	-999	12	[-999, -999, -999]	n/a	catFR1	1	R1408N
1384.1	4.567	-1	PROB	4.549	n/a	n/a	n/a	-999	12	[5, 1, 5]	11.0	catFR1	1	R1408N
1388.667	4.832	-1	PROB	4.816	n/a	n/a	n/a	-999	12	[4, 8, 2]	14.0	catFR1	1	R1408N
1393.499	7.167	-1	PROB	7.151	n/a	n/a	n/a	-999	12	[5, 7, 3]	15.0	catFR1	1	R1408N
1400.666	255807.93	-1	STOP	n/a	n/a	n/a	n/a	-999	12	[-999, -999, -999]	n/a	catFR1	1	R1408N
257208.596	114.646	234984	INSTRUCT_START	n/a	n/a	n/a	n/a	-999	-999	[0, 0, 0]	n/a	catFR1	1	R1408N
257323.242	29.366	349639	INSTRUCT_END	n/a	n/a	n/a	n/a	-999	-999	[0, 0, 0]	n/a	catFR1	1	R1408N
257352.608	10.432	379003	COUNTDOWN_START	n/a	n/a	n/a	n/a	-999	-999	[0, 0, 0]	n/a	catFR1	1	R1408N
257363.04	0.001	389438	COUNTDOWN_END	n/a	n/a	n/a	n/a	-999	-999	[0, 0, 0]	n/a	catFR1	1	R1408N
257363.041	2.267	389438	ENCODING_START	n/a	n/a	n/a	n/a	-999	-1	[0, 0, 0]	n/a	catFR1	1	R1408N
257365.308	1.616	391700	WORD	n/a	n/a	FLY	Insects	1	-1	[0, 0, 0]	n/a	catFR1	1	R1408N
257366.924	0.966	393307	WORD_OFF	n/a	n/a	FLY	Insects	1	-1	[0, 0, 0]	n/a	catFR1	1	R1408N
257367.89	1.617	394279	WORD	n/a	n/a	CRICKET	Insects	2	-1	[0, 0, 0]	n/a	catFR1	1	R1408N
257369.507	1.0	395906	WORD_OFF	n/a	n/a	CRICKET	Insects	2	-1	[0, 0, 0]	n/a	catFR1	1	R1408N
257370.507	1.616	396898	WORD	n/a	n/a	PLANKTON	OceanAnimals	3	-1	[0, 0, 0]	n/a	catFR1	1	R1408N
257372.123	0.801	398525	WORD_OFF	n/a	n/a	PLANKTON	OceanAnimals	3	-1	[0, 0, 0]	n/a	catFR1	1	R1408N
257372.924	1.6	399319	WORD	n/a	n/a	SQUID	OceanAnimals	4	-1	[0, 0, 0]	n/a	catFR1	1	R1408N
257374.524	0.95	400926	WORD_OFF	n/a	n/a	SQUID	OceanAnimals	4	-1	[0, 0, 0]	n/a	catFR1	1	R1408N
257375.474	1.616	401858	WORD	n/a	n/a	CARDINAL	Birds	5	-1	[0, 0, 0]	n/a	catFR1	1	R1408N
257377.09	0.884	403485	WORD_OFF	n/a	n/a	CARDINAL	Birds	5	-1	[0, 0, 0]	n/a	catFR1	1	R1408N
257377.974	1.616	404358	WORD	n/a	n/a	SEAGULL	Birds	6	-1	[0, 0, 0]	n/a	catFR1	1	R1408N
257379.59	0.917	405985	WORD_OFF	n/a	n/a	SEAGULL	Birds	6	-1	[0, 0, 0]	n/a	catFR1	1	R1408N
257380.507	1.616	406898	WORD	n/a	n/a	SPIDER	Insects	7	-1	[0, 0, 0]	n/a	catFR1	1	R1408N
257382.123	0.949	408524	WORD_OFF	n/a	n/a	SPIDER	Insects	7	-1	[0, 0, 0]	n/a	catFR1	1	R1408N
257383.072	1.601	409457	WORD	n/a	n/a	ROACH	Insects	8	-1	[0, 0, 0]	n/a	catFR1	1	R1408N
257384.673	0.999	411064	WORD_OFF	n/a	n/a	ROACH	Insects	8	-1	[0, 0, 0]	n/a	catFR1	1	R1408N
257385.672	1.601	412056	WORD	n/a	n/a	ROBIN	Birds	9	-1	[0, 0, 0]	n/a	catFR1	1	R1408N
257387.273	0.85	413663	WORD_OFF	n/a	n/a	ROBIN	Birds	9	-1	[0, 0, 0]	n/a	catFR1	1	R1408N
257388.123	1.617	414516	WORD	n/a	n/a	DUCK	Birds	10	-1	[0, 0, 0]	n/a	catFR1	1	R1408N
257389.74	0.766	416123	WORD_OFF	n/a	n/a	DUCK	Birds	10	-1	[0, 0, 0]	n/a	catFR1	1	R1408N
257390.506	1.6	416897	WORD	n/a	n/a	OCTOPUS	OceanAnimals	11	-1	[0, 0, 0]	n/a	catFR1	1	R1408N
257392.106	0.933	418504	WORD_OFF	n/a	n/a	OCTOPUS	OceanAnimals	11	-1	[0, 0, 0]	n/a	catFR1	1	R1408N
257393.039	1.6	419436	WORD	n/a	n/a	DOLPHIN	OceanAnimals	12	-1	[0, 0, 0]	n/a	catFR1	1	R1408N
257394.639	0.002	421024	WORD_OFF	n/a	n/a	DOLPHIN	OceanAnimals	12	-1	[0, 0, 0]	n/a	catFR1	1	R1408N
257394.641	0.0	421024	ENCODING_END	n/a	n/a	n/a	n/a	-999	-1	[0, 0, 0]	n/a	catFR1	1	R1408N
257394.64	0.001	421031	PROB	9.466	n/a	n/a	n/a	-999	13	[5, 8, 2]	15.0	catFR1	1	R1408N
257394.641	0.0	421032	START	n/a	n/a	n/a	n/a	-999	13	[-999, -999, -999]	n/a	catFR1	1	R1408N
257394.641	9.482	421044	DISTRACT_START	n/a	n/a	n/a	n/a	-999	-1	[0, 0, 0]	n/a	catFR1	1	R1408N
257404.123	5.883	430514	PROB	5.866	n/a	n/a	n/a	-999	13	[1, 2, 8]	11.0	catFR1	1	R1408N
257410.006	8.215	436397	PROB	8.199	n/a	n/a	n/a	-999	13	[5, 4, 3]	12.0	catFR1	1	R1408N
257418.221	0.0	444612	STOP	n/a	n/a	n/a	n/a	-999	13	[-999, -999, -999]	n/a	catFR1	1	R1408N
257418.221	2.317	444613	DISTRACT_END	n/a	n/a	n/a	n/a	-999	-1	[0, 0, 0]	n/a	catFR1	1	R1408N
257420.538	3.646	446923	REC_START	n/a	n/a	n/a	n/a	-999	-1	[0, 0, 0]	n/a	catFR1	1	R1408N
257424.184	1.0	450575	REC_WORD_VV	3.646	n/a	<>	n/a	-999	-1	[0, 0, 0]	n/a	catFR1	1	R1408N
257425.184	3.54	451575	REC_WORD_VV	4.646	n/a	<>	n/a	-999	-1	[0, 0, 0]	n/a	catFR1	1	R1408N
257428.724	3.062	455115	REC_WORD	8.186	n/a	DOLPHIN	OceanAnimals	12	-1	[0, 0, 0]	n/a	catFR1	1	R1408N
257431.786	2.326	458177	REC_WORD	11.248	n/a	ROACH	Insects	8	-1	[0, 0, 0]	n/a	catFR1	1	R1408N
257434.112	5.406	460503	REC_WORD	13.574	n/a	SPIDER	Insects	7	-1	[0, 0, 0]	n/a	catFR1	1	R1408N
257439.518	5.182	465909	REC_WORD	18.98	n/a	FLY	Insects	1	-1	[0, 0, 0]	n/a	catFR1	1	R1408N
257444.7	6.108	471091	REC_WORD_VV	24.162	n/a	<>	n/a	-999	-1	[0, 0, 0]	n/a	catFR1	1	R1408N
257450.808	13.096	477191	REC_END	n/a	n/a	n/a	n/a	-999	-1	[0, 0, 0]	n/a	catFR1	1	R1408N
257463.904	10.351	490305	COUNTDOWN_START	n/a	n/a	n/a	n/a	-999	1	[0, 0, 0]	n/a	catFR1	1	R1408N
257474.255	0.0	500641	COUNTDOWN_END	n/a	n/a	n/a	n/a	-999	1	[0, 0, 0]	n/a	catFR1	1	R1408N
257474.255	1.999	500641	ENCODING_START	n/a	n/a	n/a	n/a	-999	1	[0, 0, 0]	n/a	catFR1	1	R1408N
257476.254	1.616	502645	WORD	n/a	wordpools/wordpool_categorized_EN.txt	MARKER	OfficeSupplies	1	1	[0, 0, 0]	n/a	catFR1	1	R1408N
257477.87	0.934	504252	WORD_OFF	n/a	n/a	MARKER	OfficeSupplies	1	1	[0, 0, 0]	n/a	catFR1	1	R1408N
257478.804	1.617	505205	WORD	n/a	wordpools/wordpool_categorized_EN.txt	BINDER	OfficeSupplies	2	1	[0, 0, 0]	n/a	catFR1	1	R1408N
257480.421	0.916	506812	WORD_OFF	n/a	n/a	BINDER	OfficeSupplies	2	1	[0, 0, 0]	n/a	catFR1	1	R1408N
257481.337	1.617	507724	WORD	n/a	wordpools/wordpool_categorized_EN.txt	SHOVEL	Tools	3	1	[0, 0, 0]	n/a	catFR1	1	R1408N
257482.954	0.983	509351	WORD_OFF	n/a	n/a	SHOVEL	Tools	3	1	[0, 0, 0]	n/a	catFR1	1	R1408N
257483.937	1.617	510323	WORD	n/a	wordpools/wordpool_categorized_EN.txt	AXE	Tools	4	1	[0, 0, 0]	n/a	catFR1	1	R1408N
257485.554	0.849	511950	WORD_OFF	n/a	n/a	AXE	Tools	4	1	[0, 0, 0]	n/a	catFR1	1	R1408N
257486.403	1.601	512803	WORD	n/a	wordpools/wordpool_categorized_EN.txt	LEMONADE	Beverages	5	1	[0, 0, 0]	n/a	catFR1	1	R1408N
257488.004	0.983	514391	WORD_OFF	n/a	n/a	LEMONADE	Beverages	5	1	[0, 0, 0]	n/a	catFR1	1	R1408N
257488.987	1.616	515383	WORD	n/a	wordpools/wordpool_categorized_EN.txt	SODA	Beverages	6	1	[0, 0, 0]	n/a	catFR1	1	R1408N
257490.603	0.884	516990	WORD_OFF	n/a	n/a	SODA	Beverages	6	1	[0, 0, 0]	n/a	catFR1	1	R1408N
257491.487	1.6	517882	WORD	n/a	wordpools/wordpool_categorized_EN.txt	PENCIL	OfficeSupplies	7	1	[0, 0, 0]	n/a	catFR1	1	R1408N
257493.087	0.982	519470	WORD_OFF	n/a	n/a	PENCIL	OfficeSupplies	7	1	[0, 0, 0]	n/a	catFR1	1	R1408N
257494.069	1.601	520462	WORD	n/a	wordpools/wordpool_categorized_EN.txt	TAPE	OfficeSupplies	8	1	[0, 0, 0]	n/a	catFR1	1	R1408N
257495.67	0.85	522069	WORD_OFF	n/a	n/a	TAPE	OfficeSupplies	8	1	[0, 0, 0]	n/a	catFR1	1	R1408N
257496.52	1.6	522902	WORD	n/a	wordpools/wordpool_categorized_EN.txt	COLA	Beverages	9	1	[0, 0, 0]	n/a	catFR1	1	R1408N
257498.12	0.783	524509	WORD_OFF	n/a	n/a	COLA	Beverages	9	1	[0, 0, 0]	n/a	catFR1	1	R1408N
257498.903	1.6	525303	WORD	n/a	wordpools/wordpool_categorized_EN.txt	CIDER	Beverages	10	1	[0, 0, 0]	n/a	catFR1	1	R1408N
257500.503	0.767	526890	WORD_OFF	n/a	n/a	CIDER	Beverages	10	1	[0, 0, 0]	n/a	catFR1	1	R1408N
257501.27	1.617	527664	WORD	n/a	wordpools/wordpool_categorized_EN.txt	LEVEL	Tools	11	1	[0, 0, 0]	n/a	catFR1	1	R1408N
257502.887	0.766	529271	WORD_OFF	n/a	n/a	LEVEL	Tools	11	1	[0, 0, 0]	n/a	catFR1	1	R1408N
257503.653	1.601	530044	WORD	n/a	wordpools/wordpool_categorized_EN.txt	SAW	Tools	12	1	[0, 0, 0]	n/a	catFR1	1	R1408N
257505.254	0.001	531644	PROB	4.649	n/a	n/a	n/a	-999	14	[4, 6, 4]	14.0	catFR1	1	R1408N
257505.255	0.0	531645	START	n/a	n/a	n/a	n/a	-999	14	[-999, -999, -999]	n/a	catFR1	1	R1408N
257505.253	0.002	531651	WORD_OFF	n/a	n/a	SAW	Tools	12	1	[0, 0, 0]	n/a	catFR1	1	R1408N
257505.255	0.0	531651	ENCODING_END	n/a	n/a	n/a	n/a	-999	1	[0, 0, 0]	n/a	catFR1	1	R1408N
257505.255	4.665	531651	DISTRACT_START	n/a	n/a	n/a	n/a	-999	1	[0, 0, 0]	n/a	catFR1	1	R1408N
257509.92	8.333	536310	PROB	8.316	n/a	n/a	n/a	-999	14	[5, 1, 7]	13.0	catFR1	1	R1408N
257518.253	8.616	544643	PROB	8.599	n/a	n/a	n/a	-999	14	[2, 1, 6]	9.0	catFR1	1	R1408N
257526.869	0.0	553257	DISTRACT_END	n/a	n/a	n/a	n/a	-999	1	[0, 0, 0]	n/a	catFR1	1	R1408N
257526.869	2.267	553259	STOP	n/a	n/a	n/a	n/a	-999	14	[-999, -999, -999]	n/a	catFR1	1	R1408N
257529.136	1.356	555527	REC_START	n/a	n/a	n/a	n/a	-999	1	[0, 0, 0]	n/a	catFR1	1	R1408N
257530.492	3.016	556882	REC_WORD_VV	1.356	n/a	<>	n/a	-999	1	[0, 0, 0]	n/a	catFR1	1	R1408N
257533.508	1.629	559898	REC_WORD_VV	4.372	n/a	<>	n/a	-999	1	[0, 0, 0]	n/a	catFR1	1	R1408N
257535.137	7.085	561527	REC_WORD_VV	6.001	n/a	<>	n/a	-999	1	[0, 0, 0]	n/a	catFR1	1	R1408N
257542.222	1.0	568612	REC_WORD	13.086	n/a	BINDER	OfficeSupplies	2	1	[0, 0, 0]	n/a	catFR1	1	R1408N
257543.222	1.0	569612	REC_WORD_VV	14.086	n/a	<>	n/a	-999	1	[0, 0, 0]	n/a	catFR1	1	R1408N
257544.222	1.0	570612	REC_WORD_VV	15.086	n/a	<>	n/a	-999	1	[0, 0, 0]	n/a	catFR1	1	R1408N
257545.222	2.159	571612	REC_WORD_VV	16.086	n/a	<>	n/a	-999	1	[0, 0, 0]	n/a	catFR1	1	R1408N
257547.381	7.032	573771	REC_WORD	18.245	n/a	CIDER	Beverages	10	1	[0, 0, 0]	n/a	catFR1	1	R1408N
257554.413	1.0	580803	REC_WORD_VV	25.277	n/a	<>	n/a	-999	1	[0, 0, 0]	n/a	catFR1	1	R1408N
257555.413	3.954	581803	REC_WORD_VV	26.277	n/a	<>	n/a	-999	1	[0, 0, 0]	n/a	catFR1	1	R1408N
257559.367	11.552	585755	REC_END	n/a	n/a	n/a	n/a	-999	1	[0, 0, 0]	n/a	catFR1	1	R1408N
257570.919	10.349	597302	COUNTDOWN_START	n/a	n/a	n/a	n/a	-999	2	[0, 0, 0]	n/a	catFR1	1	R1408N
257581.268	0.0	607658	COUNTDOWN_END	n/a	n/a	n/a	n/a	-999	2	[0, 0, 0]	n/a	catFR1	1	R1408N
257581.268	1.917	607658	ENCODING_START	n/a	n/a	n/a	n/a	-999	2	[0, 0, 0]	n/a	catFR1	1	R1408N
257583.185	1.616	609583	WORD	n/a	wordpools/wordpool_categorized_EN.txt	UNDERWEAR	Clothing	1	2	[0, 0, 0]	n/a	catFR1	1	R1408N
257584.801	1.0	611190	WORD_OFF	n/a	n/a	UNDERWEAR	Clothing	1	2	[0, 0, 0]	n/a	catFR1	1	R1408N
257585.801	1.6	612182	WORD	n/a	wordpools/wordpool_categorized_EN.txt	JACKET	Clothing	2	2	[0, 0, 0]	n/a	catFR1	1	R1408N
257587.401	0.917	613789	WORD_OFF	n/a	n/a	JACKET	Clothing	2	2	[0, 0, 0]	n/a	catFR1	1	R1408N
257588.318	1.616	614701	WORD	n/a	wordpools/wordpool_categorized_EN.txt	WALNUT	Trees	3	2	[0, 0, 0]	n/a	catFR1	1	R1408N
257589.934	0.8	616328	WORD_OFF	n/a	n/a	WALNUT	Trees	3	2	[0, 0, 0]	n/a	catFR1	1	R1408N
257590.734	1.616	617122	WORD	n/a	wordpools/wordpool_categorized_EN.txt	WILLOW	Trees	4	2	[0, 0, 0]	n/a	catFR1	1	R1408N
257592.35	0.851	618749	WORD_OFF	n/a	n/a	WILLOW	Trees	4	2	[0, 0, 0]	n/a	catFR1	1	R1408N
257593.201	1.6	619582	WORD	n/a	wordpools/wordpool_categorized_EN.txt	STREAM	Landscapes	5	2	[0, 0, 0]	n/a	catFR1	1	R1408N
257594.801	0.883	621189	WORD_OFF	n/a	n/a	STREAM	Landscapes	5	2	[0, 0, 0]	n/a	catFR1	1	R1408N
257595.684	1.617	622082	WORD	n/a	wordpools/wordpool_categorized_EN.txt	LAKE	Landscapes	6	2	[0, 0, 0]	n/a	catFR1	1	R1408N
257597.301	0.983	623689	WORD_OFF	n/a	n/a	LAKE	Landscapes	6	2	[0, 0, 0]	n/a	catFR1	1	R1408N
257598.284	1.6	624681	WORD	n/a	wordpools/wordpool_categorized_EN.txt	SHIRT	Clothing	7	2	[0, 0, 0]	n/a	catFR1	1	R1408N
257599.884	1.0	626268	WORD_OFF	n/a	n/a	SHIRT	Clothing	7	2	[0, 0, 0]	n/a	catFR1	1	R1408N
257600.884	1.6	627280	WORD	n/a	wordpools/wordpool_categorized_EN.txt	SHORTS	Clothing	8	2	[0, 0, 0]	n/a	catFR1	1	R1408N
257602.484	0.817	628867	WORD_OFF	n/a	n/a	SHORTS	Clothing	8	2	[0, 0, 0]	n/a	catFR1	1	R1408N
257603.301	1.616	629700	WORD	n/a	wordpools/wordpool_categorized_EN.txt	MAPLE	Trees	9	2	[0, 0, 0]	n/a	catFR1	1	R1408N
257604.917	0.967	631308	WORD_OFF	n/a	n/a	MAPLE	Trees	9	2	[0, 0, 0]	n/a	catFR1	1	R1408N
257605.884	1.6	632280	WORD	n/a	wordpools/wordpool_categorized_EN.txt	CEDAR	Trees	10	2	[0, 0, 0]	n/a	catFR1	1	R1408N
257607.484	0.9	633867	WORD_OFF	n/a	n/a	CEDAR	Trees	10	2	[0, 0, 0]	n/a	catFR1	1	R1408N
257608.384	1.616	634780	WORD	n/a	wordpools/wordpool_categorized_EN.txt	RIVER	Landscapes	11	2	[0, 0, 0]	n/a	catFR1	1	R1408N
257610.0	0.767	636387	WORD_OFF	n/a	n/a	RIVER	Landscapes	11	2	[0, 0, 0]	n/a	catFR1	1	R1408N
257610.767	1.616	637160	WORD	n/a	wordpools/wordpool_categorized_EN.txt	MOUNTAIN	Landscapes	12	2	[0, 0, 0]	n/a	catFR1	1	R1408N
257612.383	0.002	638767	WORD_OFF	n/a	n/a	MOUNTAIN	Landscapes	12	2	[0, 0, 0]	n/a	catFR1	1	R1408N
257612.385	0.0	638767	ENCODING_END	n/a	n/a	n/a	n/a	-999	2	[0, 0, 0]	n/a	catFR1	1	R1408N
257612.384	0.001	638774	PROB	7.116	n/a	n/a	n/a	-999	15	[6, 5, 4]	15.0	catFR1	1	R1408N
257612.385	0.0	638775	START	n/a	n/a	n/a	n/a	-999	15	[-999, -999, -999]	n/a	catFR1	1	R1408N
257612.385	7.133	638787	DISTRACT_START	n/a	n/a	n/a	n/a	-999	2	[0, 0, 0]	n/a	catFR1	1	R1408N
257619.518	5.599	645908	PROB	5.583	n/a	n/a	n/a	-999	15	[4, 8, 7]	19.0	catFR1	1	R1408N
257625.117	16.499	651507	PROB	16.483	n/a	n/a	n/a	-999	15	[8, 6, 5]	19.0	catFR1	1	R1408N
257641.616	0.0	668005	STOP	n/a	n/a	n/a	n/a	-999	15	[-999, -999, -999]	n/a	catFR1	1	R1408N
257641.616	2.184	668011	DISTRACT_END	n/a	n/a	n/a	n/a	-999	2	[0, 0, 0]	n/a	catFR1	1	R1408N
257643.8	2.265	670182	REC_START	n/a	n/a	n/a	n/a	-999	2	[0, 0, 0]	n/a	catFR1	1	R1408N
257646.065	1.541	672454	REC_WORD_VV	2.265	n/a	<>	n/a	-999	2	[0, 0, 0]	n/a	catFR1	1	R1408N
257647.606	1.22	673995	REC_WORD	3.806	n/a	UNDERWEAR	Clothing	1	2	[0, 0, 0]	n/a	catFR1	1	R1408N
257648.826	3.006	675215	REC_WORD	5.026	n/a	CIDER	Beverages	-999	2	[0, 0, 0]	n/a	catFR1	1	R1408N
257651.832	4.583	678221	REC_WORD	8.032	n/a	WILLOW	Trees	4	2	[0, 0, 0]	n/a	catFR1	1	R1408N
257656.415	11.888	682804	REC_WORD	12.615	n/a	SHORTS	Clothing	8	2	[0, 0, 0]	n/a	catFR1	1	R1408N
257668.303	5.725	694692	REC_WORD_VV	24.503	n/a	<>	n/a	-999	2	[0, 0, 0]	n/a	catFR1	1	R1408N
257674.028	8.971	700410	REC_END	n/a	n/a	n/a	n/a	-999	2	[0, 0, 0]	n/a	catFR1	1	R1408N
257682.999	10.35	709398	COUNTDOWN_START	n/a	n/a	n/a	n/a	-999	3	[0, 0, 0]	n/a	catFR1	1	R1408N
257693.349	0.0	719734	COUNTDOWN_END	n/a	n/a	n/a	n/a	-999	3	[0, 0, 0]	n/a	catFR1	1	R1408N
257693.349	2.149	719734	ENCODING_START	n/a	n/a	n/a	n/a	-999	3	[0, 0, 0]	n/a	catFR1	1	R1408N
257695.498	1.617	721897	WORD	n/a	wordpools/wordpool_categorized_EN.txt	MONKEY	Zoo	1	3	[0, 0, 0]	n/a	catFR1	1	R1408N
257697.115	0.917	723504	WORD_OFF	n/a	n/a	MONKEY	Zoo	1	3	[0, 0, 0]	n/a	catFR1	1	R1408N
257698.032	1.599	724416	WORD	n/a	wordpools/wordpool_categorized_EN.txt	GORILLA	Zoo	2	3	[0, 0, 0]	n/a	catFR1	1	R1408N
257699.631	0.934	726024	WORD_OFF	n/a	n/a	GORILLA	Zoo	2	3	[0, 0, 0]	n/a	catFR1	1	R1408N
257700.565	1.6	726956	WORD	n/a	wordpools/wordpool_categorized_EN.txt	FISH	OceanAnimals	3	3	[0, 0, 0]	n/a	catFR1	1	R1408N
257702.165	0.933	728563	WORD_OFF	n/a	n/a	FISH	OceanAnimals	3	3	[0, 0, 0]	n/a	catFR1	1	R1408N
257703.098	1.616	729496	WORD	n/a	wordpools/wordpool_categorized_EN.txt	SHRIMP	OceanAnimals	4	3	[0, 0, 0]	n/a	catFR1	1	R1408N
257704.714	0.767	731103	WORD_OFF	n/a	n/a	SHRIMP	OceanAnimals	4	3	[0, 0, 0]	n/a	catFR1	1	R1408N
257705.481	1.617	731876	WORD	n/a	wordpools/wordpool_categorized_EN.txt	WALL	Building	5	3	[0, 0, 0]	n/a	catFR1	1	R1408N
257707.098	0.85	733483	WORD_OFF	n/a	n/a	WALL	Building	5	3	[0, 0, 0]	n/a	catFR1	1	R1408N
257707.948	1.6	734336	WORD	n/a	wordpools/wordpool_categorized_EN.txt	ROOF	Building	6	3	[0, 0, 0]	n/a	catFR1	1	R1408N
257709.548	0.766	735944	WORD_OFF	n/a	n/a	ROOF	Building	6	3	[0, 0, 0]	n/a	catFR1	1	R1408N
257710.314	1.6	736697	WORD	n/a	wordpools/wordpool_categorized_EN.txt	OYSTER	OceanAnimals	7	3	[0, 0, 0]	n/a	catFR1	1	R1408N
257711.914	0.933	738304	WORD_OFF	n/a	n/a	OYSTER	OceanAnimals	7	3	[0, 0, 0]	n/a	catFR1	1	R1408N
257712.847	1.617	739237	WORD	n/a	wordpools/wordpool_categorized_EN.txt	LOBSTER	OceanAnimals	8	3	[0, 0, 0]	n/a	catFR1	1	R1408N
257714.464	0.817	740844	WORD_OFF	n/a	n/a	LOBSTER	OceanAnimals	8	3	[0, 0, 0]	n/a	catFR1	1	R1408N
257715.281	1.616	741677	WORD	n/a	wordpools/wordpool_categorized_EN.txt	ATTIC	Building	9	3	[0, 0, 0]	n/a	catFR1	1	R1408N
257716.897	0.833	743284	WORD_OFF	n/a	n/a	ATTIC	Building	9	3	[0, 0, 0]	n/a	catFR1	1	R1408N
257717.73	1.6	744118	WORD	n/a	wordpools/wordpool_categorized_EN.txt	FLOOR	Building	10	3	[0, 0, 0]	n/a	catFR1	1	R1408N
257719.33	0.784	745725	WORD_OFF	n/a	n/a	FLOOR	Building	10	3	[0, 0, 0]	n/a	catFR1	1	R1408N
257720.114	1.6	746498	WORD	n/a	wordpools/wordpool_categorized_EN.txt	ORANGUTAN	Zoo	11	3	[0, 0, 0]	n/a	catFR1	1	R1408N
257721.714	0.966	748105	WORD_OFF	n/a	n/a	ORANGUTAN	Zoo	11	3	[0, 0, 0]	n/a	catFR1	1	R1408N
257722.68	1.618	749078	WORD	n/a	wordpools/wordpool_categorized_EN.txt	CHEETAH	Zoo	12	3	[0, 0, 0]	n/a	catFR1	1	R1408N
257724.298	0.001	750685	WORD_OFF	n/a	n/a	CHEETAH	Zoo	12	3	[0, 0, 0]	n/a	catFR1	1	R1408N
257724.299	0.0	750685	ENCODING_END	n/a	n/a	n/a	n/a	-999	3	[0, 0, 0]	n/a	catFR1	1	R1408N
257724.299	0.0	750685	DISTRACT_START	n/a	n/a	n/a	n/a	-999	3	[0, 0, 0]	n/a	catFR1	1	R1408N
257724.298	0.001	750687	PROB	9.483	n/a	n/a	n/a	-999	16	[5, 7, 8]	20.0	catFR1	1	R1408N
257724.299	9.498	750688	START	n/a	n/a	n/a	n/a	-999	16	[-999, -999, -999]	n/a	catFR1	1	R1408N
257733.797	5.484	760186	PROB	5.467	n/a	n/a	n/a	-999	16	[1, 2, 5]	8.0	catFR1	1	R1408N
257739.281	6.883	765670	PROB	6.866	n/a	n/a	n/a	-999	16	[3, 8, 3]	14.0	catFR1	1	R1408N
257746.164	0.0	772548	DISTRACT_END	n/a	n/a	n/a	n/a	-999	3	[0, 0, 0]	n/a	catFR1	1	R1408N
257746.164	2.35	772553	STOP	n/a	n/a	n/a	n/a	-999	16	[-999, -999, -999]	n/a	catFR1	1	R1408N
257748.514	2.043	774897	REC_START	n/a	n/a	n/a	n/a	-999	3	[0, 0, 0]	n/a	catFR1	1	R1408N
257750.557	2.046	776946	REC_WORD	2.043	n/a	MONKEY	Zoo	1	3	[0, 0, 0]	n/a	catFR1	1	R1408N
257752.603	5.854	778992	REC_WORD	4.089	n/a	CHEETAH	Zoo	12	3	[0, 0, 0]	n/a	catFR1	1	R1408N
257758.457	20.278	784846	REC_WORD	9.943	n/a	FLOOR	Building	10	3	[0, 0, 0]	n/a	catFR1	1	R1408N
257778.735	2.227	805126	REC_END	n/a	n/a	n/a	n/a	-999	3	[0, 0, 0]	n/a	catFR1	1	R1408N
257780.962	10.351	807348	COUNTDOWN_START	n/a	n/a	n/a	n/a	-999	4	[0, 0, 0]	n/a	catFR1	1	R1408N
257791.313	0.0	817704	COUNTDOWN_END	n/a	n/a	n/a	n/a	-999	4	[0, 0, 0]	n/a	catFR1	1	R1408N
257791.313	2.183	817704	ENCODING_START	n/a	n/a	n/a	n/a	-999	4	[0, 0, 0]	n/a	catFR1	1	R1408N
257793.496	1.616	819886	WORD	n/a	wordpools/wordpool_categorized_EN.txt	CROW	Birds	1	4	[0, 0, 0]	n/a	catFR1	1	R1408N
257795.112	0.8	821494	WORD_OFF	n/a	n/a	CROW	Birds	1	4	[0, 0, 0]	n/a	catFR1	1	R1408N
257795.912	1.617	822307	WORD	n/a	wordpools/wordpool_categorized_EN.txt	GOOSE	Birds	2	4	[0, 0, 0]	n/a	catFR1	1	R1408N
257797.529	0.833	823914	WORD_OFF	n/a	n/a	GOOSE	Birds	2	4	[0, 0, 0]	n/a	catFR1	1	R1408N
257798.362	1.617	824747	WORD	n/a	wordpools/wordpool_categorized_EN.txt	EVERGREEN	Trees	3	4	[0, 0, 0]	n/a	catFR1	1	R1408N
257799.979	0.983	826374	WORD_OFF	n/a	n/a	EVERGREEN	Trees	3	4	[0, 0, 0]	n/a	catFR1	1	R1408N
257800.962	1.616	827346	WORD	n/a	wordpools/wordpool_categorized_EN.txt	BIRCH	Trees	4	4	[0, 0, 0]	n/a	catFR1	1	R1408N
257802.578	0.784	828973	WORD_OFF	n/a	n/a	BIRCH	Trees	4	4	[0, 0, 0]	n/a	catFR1	1	R1408N
257803.362	1.6	829747	WORD	n/a	wordpools/wordpool_categorized_EN.txt	PANTS	Clothing	5	4	[0, 0, 0]	n/a	catFR1	1	R1408N
257804.962	0.933	831354	WORD_OFF	n/a	n/a	PANTS	Clothing	5	4	[0, 0, 0]	n/a	catFR1	1	R1408N
257805.895	1.6	832286	WORD	n/a	wordpools/wordpool_categorized_EN.txt	SKIRT	Clothing	6	4	[0, 0, 0]	n/a	catFR1	1	R1408N
257807.495	0.883	833894	WORD_OFF	n/a	n/a	SKIRT	Clothing	6	4	[0, 0, 0]	n/a	catFR1	1	R1408N
257808.378	1.618	834766	WORD	n/a	wordpools/wordpool_categorized_EN.txt	OAK	Trees	7	4	[0, 0, 0]	n/a	catFR1	1	R1408N
257809.996	0.798	836393	WORD_OFF	n/a	n/a	OAK	Trees	7	4	[0, 0, 0]	n/a	catFR1	1	R1408N
257810.794	1.601	837187	WORD	n/a	wordpools/wordpool_categorized_EN.txt	ELM	Trees	8	4	[0, 0, 0]	n/a	catFR1	1	R1408N
257812.395	0.85	838774	WORD_OFF	n/a	n/a	ELM	Trees	8	4	[0, 0, 0]	n/a	catFR1	1	R1408N
257813.245	1.6	839627	WORD	n/a	wordpools/wordpool_categorized_EN.txt	JEANS	Clothing	9	4	[0, 0, 0]	n/a	catFR1	1	R1408N
257814.845	0.933	841234	WORD_OFF	n/a	n/a	JEANS	Clothing	9	4	[0, 0, 0]	n/a	catFR1	1	R1408N
257815.778	1.617	842167	WORD	n/a	wordpools/wordpool_categorized_EN.txt	COAT	Clothing	10	4	[0, 0, 0]	n/a	catFR1	1	R1408N
257817.395	0.933	843774	WORD_OFF	n/a	n/a	COAT	Clothing	10	4	[0, 0, 0]	n/a	catFR1	1	R1408N
257818.328	1.616	844726	WORD	n/a	wordpools/wordpool_categorized_EN.txt	DOVE	Birds	11	4	[0, 0, 0]	n/a	catFR1	1	R1408N
257819.944	0.8	846333	WORD_OFF	n/a	n/a	DOVE	Birds	11	4	[0, 0, 0]	n/a	catFR1	1	R1408N
257820.744	1.601	847127	WORD	n/a	wordpools/wordpool_categorized_EN.txt	BLUEBIRD	Birds	12	4	[0, 0, 0]	n/a	catFR1	1	R1408N
257822.345	0.0	848733	PROB	8.399	n/a	n/a	n/a	-999	17	[1, 7, 2]	10.0	catFR1	1	R1408N
257822.344	0.002	848734	WORD_OFF	n/a	n/a	BLUEBIRD	Birds	12	4	[0, 0, 0]	n/a	catFR1	1	R1408N
257822.346	0.0	848734	ENCODING_END	n/a	n/a	n/a	n/a	-999	4	[0, 0, 0]	n/a	catFR1	1	R1408N
257822.346	0.0	848734	DISTRACT_START	n/a	n/a	n/a	n/a	-999	4	[0, 0, 0]	n/a	catFR1	1	R1408N
257822.346	8.415	848734	START	n/a	n/a	n/a	n/a	-999	17	[-999, -999, -999]	n/a	catFR1	1	R1408N
257830.761	4.766	857149	PROB	4.75	n/a	n/a	n/a	-999	17	[5, 6, 1]	12.0	catFR1	1	R1408N
257835.527	8.035	861915	PROB	8.018	n/a	n/a	n/a	-999	17	[7, 5, 7]	19.0	catFR1	1	R1408N
257843.562	0.0	869943	DISTRACT_END	n/a	n/a	n/a	n/a	-999	4	[0, 0, 0]	n/a	catFR1	1	R1408N
257843.562	2.167	869950	STOP	n/a	n/a	n/a	n/a	-999	17	[-999, -999, -999]	n/a	catFR1	1	R1408N
257845.729	5.749	872113	REC_START	n/a	n/a	n/a	n/a	-999	4	[0, 0, 0]	n/a	catFR1	1	R1408N
257851.478	9.737	877866	REC_WORD	5.749	n/a	ANT	n/a	-999	4	[0, 0, 0]	n/a	catFR1	1	R1408N
257861.215	3.804	887603	REC_WORD	15.486	n/a	ELM	Trees	8	4	[0, 0, 0]	n/a	catFR1	1	R1408N
257865.019	10.967	891407	REC_WORD_VV	19.29	n/a	<>	n/a	-999	4	[0, 0, 0]	n/a	catFR1	1	R1408N
257875.986	2.924	902381	REC_END	n/a	n/a	n/a	n/a	-999	4	[0, 0, 0]	n/a	catFR1	1	R1408N
257878.91	10.349	905298	COUNTDOWN_START	n/a	n/a	n/a	n/a	-999	5	[0, 0, 0]	n/a	catFR1	1	R1408N
257889.259	0.001	915654	COUNTDOWN_END	n/a	n/a	n/a	n/a	-999	5	[0, 0, 0]	n/a	catFR1	1	R1408N
257889.26	2.167	915654	ENCODING_START	n/a	n/a	n/a	n/a	-999	5	[0, 0, 0]	n/a	catFR1	1	R1408N
257891.427	1.616	917817	WORD	n/a	wordpools/wordpool_categorized_EN.txt	SNOW	Weather	1	5	[0, 0, 0]	n/a	catFR1	1	R1408N
257893.043	0.967	919424	WORD_OFF	n/a	n/a	SNOW	Weather	1	5	[0, 0, 0]	n/a	catFR1	1	R1408N
257894.01	1.616	920396	WORD	n/a	wordpools/wordpool_categorized_EN.txt	CLOUD	Weather	2	5	[0, 0, 0]	n/a	catFR1	1	R1408N
257895.626	0.984	922023	WORD_OFF	n/a	n/a	CLOUD	Weather	2	5	[0, 0, 0]	n/a	catFR1	1	R1408N
257896.61	1.616	922995	WORD	n/a	wordpools/wordpool_categorized_EN.txt	GLUE	OfficeSupplies	3	5	[0, 0, 0]	n/a	catFR1	1	R1408N
257898.226	0.784	924622	WORD_OFF	n/a	n/a	GLUE	OfficeSupplies	3	5	[0, 0, 0]	n/a	catFR1	1	R1408N
257899.01	1.616	925395	WORD	n/a	wordpools/wordpool_categorized_EN.txt	PEN	OfficeSupplies	4	5	[0, 0, 0]	n/a	catFR1	1	R1408N
257900.626	0.867	927022	WORD_OFF	n/a	n/a	PEN	OfficeSupplies	4	5	[0, 0, 0]	n/a	catFR1	1	R1408N
257901.493	1.6	927875	WORD	n/a	wordpools/wordpool_categorized_EN.txt	MICROWAVE	Electronics	5	5	[0, 0, 0]	n/a	catFR1	1	R1408N
257903.093	0.983	929482	WORD_OFF	n/a	n/a	MICROWAVE	Electronics	5	5	[0, 0, 0]	n/a	catFR1	1	R1408N
257904.076	1.617	930455	WORD	n/a	wordpools/wordpool_categorized_EN.txt	COMPUTER	Electronics	6	5	[0, 0, 0]	n/a	catFR1	1	R1408N
257905.693	0.799	932082	WORD_OFF	n/a	n/a	COMPUTER	Electronics	6	5	[0, 0, 0]	n/a	catFR1	1	R1408N
257906.492	1.6	932875	WORD	n/a	wordpools/wordpool_categorized_EN.txt	THUNDERSTORM	Weather	7	5	[0, 0, 0]	n/a	catFR1	1	R1408N
257908.092	0.9	934482	WORD_OFF	n/a	n/a	THUNDERSTORM	Weather	7	5	[0, 0, 0]	n/a	catFR1	1	R1408N
257908.992	1.617	935375	WORD	n/a	wordpools/wordpool_categorized_EN.txt	LIGHTNING	Weather	8	5	[0, 0, 0]	n/a	catFR1	1	R1408N
257910.609	0.866	937002	WORD_OFF	n/a	n/a	LIGHTNING	Weather	8	5	[0, 0, 0]	n/a	catFR1	1	R1408N
257911.475	1.617	937855	WORD	n/a	wordpools/wordpool_categorized_EN.txt	PAPER	OfficeSupplies	9	5	[0, 0, 0]	n/a	catFR1	1	R1408N
257913.092	0.883	939482	WORD_OFF	n/a	n/a	PAPER	OfficeSupplies	9	5	[0, 0, 0]	n/a	catFR1	1	R1408N
257913.975	1.6	940355	WORD	n/a	wordpools/wordpool_categorized_EN.txt	NOTEBOOK	OfficeSupplies	10	5	[0, 0, 0]	n/a	catFR1	1	R1408N
257915.575	0.85	941962	WORD_OFF	n/a	n/a	NOTEBOOK	OfficeSupplies	10	5	[0, 0, 0]	n/a	catFR1	1	R1408N
257916.425	1.617	942815	WORD	n/a	wordpools/wordpool_categorized_EN.txt	SPEAKER	Electronics	11	5	[0, 0, 0]	n/a	catFR1	1	R1408N
257918.042	1.0	944422	WORD_OFF	n/a	n/a	SPEAKER	Electronics	11	5	[0, 0, 0]	n/a	catFR1	1	R1408N
257919.042	1.6	945434	WORD	n/a	wordpools/wordpool_categorized_EN.txt	PHONE	Electronics	12	5	[0, 0, 0]	n/a	catFR1	1	R1408N
257920.642	0.0	947021	WORD_OFF	n/a	n/a	PHONE	Electronics	12	5	[0, 0, 0]	n/a	catFR1	1	R1408N
257920.642	0.002	947030	PROB	6.749	n/a	n/a	n/a	-999	18	[6, 7, 3]	16.0	catFR1	1	R1408N
257920.644	0.0	947032	START	n/a	n/a	n/a	n/a	-999	18	[-999, -999, -999]	n/a	catFR1	1	R1408N
257920.644	0.0	947041	ENCODING_END	n/a	n/a	n/a	n/a	-999	5	[0, 0, 0]	n/a	catFR1	1	R1408N
257920.644	6.765	947041	DISTRACT_START	n/a	n/a	n/a	n/a	-999	5	[0, 0, 0]	n/a	catFR1	1	R1408N
257927.409	5.467	953797	PROB	5.449	n/a	n/a	n/a	-999	18	[8, 4, 2]	14.0	catFR1	1	R1408N
257932.876	13.836	959264	PROB	13.817	n/a	n/a	n/a	-999	18	[8, 8, 7]	24.0	catFR1	1	R1408N
257946.712	0.0	973091	DISTRACT_END	n/a	n/a	n/a	n/a	-999	5	[0, 0, 0]	n/a	catFR1	1	R1408N
257946.712	2.164	973099	STOP	n/a	n/a	n/a	n/a	-999	18	[-999, -999, -999]	n/a	catFR1	1	R1408N
257948.876	3.444	975261	REC_START	n/a	n/a	n/a	n/a	-999	5	[0, 0, 0]	n/a	catFR1	1	R1408N
257952.32	12.822	978707	REC_WORD	3.444	n/a	SNOW	Weather	1	5	[0, 0, 0]	n/a	catFR1	1	R1408N
257965.142	1.0	991529	REC_WORD_VV	16.266	n/a	<>	n/a	-999	5	[0, 0, 0]	n/a	catFR1	1	R1408N
257966.142	4.677	992529	REC_WORD_VV	17.266	n/a	<>	n/a	-999	5	[0, 0, 0]	n/a	catFR1	1	R1408N
257970.819	1.0	997206	REC_WORD_VV	21.943	n/a	<>	n/a	-999	5	[0, 0, 0]	n/a	catFR1	1	R1408N
257971.819	1.0	998206	REC_WORD_VV	22.943	n/a	<>	n/a	-999	5	[0, 0, 0]	n/a	catFR1	1	R1408N
257972.819	4.157	999206	REC_WORD_VV	23.943	n/a	<>	n/a	-999	5	[0, 0, 0]	n/a	catFR1	1	R1408N
257976.976	2.134	1003363	REC_WORD_VV	28.1	n/a	<>	n/a	-999	5	[0, 0, 0]	n/a	catFR1	1	R1408N
257979.11	3.747	1005489	REC_END	n/a	n/a	n/a	n/a	-999	5	[0, 0, 0]	n/a	catFR1	1	R1408N
257982.857	10.351	1009239	COUNTDOWN_START	n/a	n/a	n/a	n/a	-999	6	[0, 0, 0]	n/a	catFR1	1	R1408N
257993.208	0.0	1019596	COUNTDOWN_END	n/a	n/a	n/a	n/a	-999	6	[0, 0, 0]	n/a	catFR1	1	R1408N
257993.208	2.082	1019596	ENCODING_START	n/a	n/a	n/a	n/a	-999	6	[0, 0, 0]	n/a	catFR1	1	R1408N
257995.29	1.6	1021679	WORD	n/a	wordpools/wordpool_categorized_EN.txt	LETTUCE	Vegetables	1	6	[0, 0, 0]	n/a	catFR1	1	R1408N
257996.89	0.784	1023286	WORD_OFF	n/a	n/a	LETTUCE	Vegetables	1	6	[0, 0, 0]	n/a	catFR1	1	R1408N
257997.674	1.616	1024060	WORD	n/a	wordpools/wordpool_categorized_EN.txt	CELERY	Vegetables	2	6	[0, 0, 0]	n/a	catFR1	1	R1408N
257999.29	0.95	1025686	WORD_OFF	n/a	n/a	CELERY	Vegetables	2	6	[0, 0, 0]	n/a	catFR1	1	R1408N
258000.24	1.617	1026619	WORD	n/a	wordpools/wordpool_categorized_EN.txt	PIGEON	Birds	3	6	[0, 0, 0]	n/a	catFR1	1	R1408N
258001.857	0.95	1028246	WORD_OFF	n/a	n/a	PIGEON	Birds	3	6	[0, 0, 0]	n/a	catFR1	1	R1408N
258002.807	1.616	1029198	WORD	n/a	wordpools/wordpool_categorized_EN.txt	SPARROW	Birds	4	6	[0, 0, 0]	n/a	catFR1	1	R1408N
258004.423	0.933	1030805	WORD_OFF	n/a	n/a	SPARROW	Birds	4	6	[0, 0, 0]	n/a	catFR1	1	R1408N
258005.356	1.6	1031738	WORD	n/a	wordpools/wordpool_categorized_EN.txt	VALLEY	Landscapes	5	6	[0, 0, 0]	n/a	catFR1	1	R1408N
258006.956	0.951	1033345	WORD_OFF	n/a	n/a	VALLEY	Landscapes	5	6	[0, 0, 0]	n/a	catFR1	1	R1408N
258007.907	1.616	1034297	WORD	n/a	wordpools/wordpool_categorized_EN.txt	BEACH	Landscapes	6	6	[0, 0, 0]	n/a	catFR1	1	R1408N
258009.523	0.933	1035904	WORD_OFF	n/a	n/a	BEACH	Landscapes	6	6	[0, 0, 0]	n/a	catFR1	1	R1408N
258010.456	1.617	1036837	WORD	n/a	wordpools/wordpool_categorized_EN.txt	ONION	Vegetables	7	6	[0, 0, 0]	n/a	catFR1	1	R1408N
258012.073	0.933	1038463	WORD_OFF	n/a	n/a	ONION	Vegetables	7	6	[0, 0, 0]	n/a	catFR1	1	R1408N
258013.006	1.617	1039396	WORD	n/a	wordpools/wordpool_categorized_EN.txt	SPINACH	Vegetables	8	6	[0, 0, 0]	n/a	catFR1	1	R1408N
258014.623	0.85	1041003	WORD_OFF	n/a	n/a	SPINACH	Vegetables	8	6	[0, 0, 0]	n/a	catFR1	1	R1408N
258015.473	1.616	1041856	WORD	n/a	wordpools/wordpool_categorized_EN.txt	HAWK	Birds	9	6	[0, 0, 0]	n/a	catFR1	1	R1408N
258017.089	0.835	1043483	WORD_OFF	n/a	n/a	HAWK	Birds	9	6	[0, 0, 0]	n/a	catFR1	1	R1408N
258017.924	1.615	1044316	WORD	n/a	wordpools/wordpool_categorized_EN.txt	FINCH	Birds	10	6	[0, 0, 0]	n/a	catFR1	1	R1408N
258019.539	0.8	1045923	WORD_OFF	n/a	n/a	FINCH	Birds	10	6	[0, 0, 0]	n/a	catFR1	1	R1408N
258020.339	1.6	1046717	WORD	n/a	wordpools/wordpool_categorized_EN.txt	FOREST	Landscapes	11	6	[0, 0, 0]	n/a	catFR1	1	R1408N
258021.939	0.883	1048324	WORD_OFF	n/a	n/a	FOREST	Landscapes	11	6	[0, 0, 0]	n/a	catFR1	1	R1408N
258022.822	1.601	1049217	WORD	n/a	wordpools/wordpool_categorized_EN.txt	HILLS	Landscapes	12	6	[0, 0, 0]	n/a	catFR1	1	R1408N
258024.423	0.001	1050804	WORD_OFF	n/a	n/a	HILLS	Landscapes	12	6	[0, 0, 0]	n/a	catFR1	1	R1408N
258024.424	0.0	1050804	ENCODING_END	n/a	n/a	n/a	n/a	-999	6	[0, 0, 0]	n/a	catFR1	1	R1408N
258024.423	0.002	1050810	PROB	11.049	n/a	n/a	n/a	-999	19	[7, 6, 6]	19.0	catFR1	1	R1408N
258024.425	0.0	1050812	START	n/a	n/a	n/a	n/a	-999	19	[-999, -999, -999]	n/a	catFR1	1	R1408N
258024.425	11.064	1050824	DISTRACT_START	n/a	n/a	n/a	n/a	-999	6	[0, 0, 0]	n/a	catFR1	1	R1408N
258035.489	9.917	1061876	PROB	9.9	n/a	n/a	n/a	-999	19	[5, 7, 2]	14.0	catFR1	1	R1408N
258045.406	0.0	1071793	STOP	n/a	n/a	n/a	n/a	-999	19	[-999, -999, -999]	n/a	catFR1	1	R1408N
258045.406	2.233	1071795	DISTRACT_END	n/a	n/a	n/a	n/a	-999	6	[0, 0, 0]	n/a	catFR1	1	R1408N
258047.639	8.15	1074025	REC_START	n/a	n/a	n/a	n/a	-999	6	[0, 0, 0]	n/a	catFR1	1	R1408N
258055.789	1.0	1082176	REC_WORD_VV	8.15	n/a	<>	n/a	-999	6	[0, 0, 0]	n/a	catFR1	1	R1408N
258056.789	2.347	1083176	REC_WORD_VV	9.15	n/a	<>	n/a	-999	6	[0, 0, 0]	n/a	catFR1	1	R1408N
258059.136	1.641	1085523	REC_WORD_VV	11.497	n/a	<>	n/a	-999	6	[0, 0, 0]	n/a	catFR1	1	R1408N
258060.777	2.067	1087164	REC_WORD	13.138	n/a	PIGEON	Birds	3	6	[0, 0, 0]	n/a	catFR1	1	R1408N
258062.844	8.506	1089231	REC_WORD	15.205	n/a	HILLS	Landscapes	12	6	[0, 0, 0]	n/a	catFR1	1	R1408N
258071.35	1.0	1097737	REC_WORD_VV	23.711	n/a	<>	n/a	-999	6	[0, 0, 0]	n/a	catFR1	1	R1408N
258072.35	1.0	1098737	REC_WORD_VV	24.711	n/a	<>	n/a	-999	6	[0, 0, 0]	n/a	catFR1	1	R1408N
258073.35	1.0	1099737	REC_WORD_VV	25.711	n/a	<>	n/a	-999	6	[0, 0, 0]	n/a	catFR1	1	R1408N
258074.35	1.486	1100737	REC_WORD_VV	26.711	n/a	<>	n/a	-999	6	[0, 0, 0]	n/a	catFR1	1	R1408N
258075.836	2.046	1102223	REC_WORD_VV	28.197	n/a	<>	n/a	-999	6	[0, 0, 0]	n/a	catFR1	1	R1408N
258077.882	1.923	1104273	REC_END	n/a	n/a	n/a	n/a	-999	6	[0, 0, 0]	n/a	catFR1	1	R1408N
258079.805	10.35	1106197	COUNTDOWN_START	n/a	n/a	n/a	n/a	-999	7	[0, 0, 0]	n/a	catFR1	1	R1408N
258090.155	0.0	1116534	COUNTDOWN_END	n/a	n/a	n/a	n/a	-999	7	[0, 0, 0]	n/a	catFR1	1	R1408N
258090.155	2.016	1116554	ENCODING_START	n/a	n/a	n/a	n/a	-999	7	[0, 0, 0]	n/a	catFR1	1	R1408N
258092.171	1.6	1118557	WORD	n/a	wordpools/wordpool_categorized_EN.txt	PANDA	Zoo	1	7	[0, 0, 0]	n/a	catFR1	1	R1408N
258093.771	0.917	1120164	WORD_OFF	n/a	n/a	PANDA	Zoo	1	7	[0, 0, 0]	n/a	catFR1	1	R1408N
258094.688	1.616	1121077	WORD	n/a	wordpools/wordpool_categorized_EN.txt	ZEBRA	Zoo	2	7	[0, 0, 0]	n/a	catFR1	1	R1408N
258096.304	0.85	1122684	WORD_OFF	n/a	n/a	ZEBRA	Zoo	2	7	[0, 0, 0]	n/a	catFR1	1	R1408N
258097.154	1.6	1123537	WORD	n/a	wordpools/wordpool_categorized_EN.txt	SOCKS	Clothing	3	7	[0, 0, 0]	n/a	catFR1	1	R1408N
258098.754	0.984	1125144	WORD_OFF	n/a	n/a	SOCKS	Clothing	3	7	[0, 0, 0]	n/a	catFR1	1	R1408N
258099.738	1.599	1126116	WORD	n/a	wordpools/wordpool_categorized_EN.txt	BLOUSE	Clothing	4	7	[0, 0, 0]	n/a	catFR1	1	R1408N
258101.337	0.933	1127724	WORD_OFF	n/a	n/a	BLOUSE	Clothing	4	7	[0, 0, 0]	n/a	catFR1	1	R1408N
258102.27	1.601	1128656	WORD	n/a	wordpools/wordpool_categorized_EN.txt	DRIZZLE	Weather	5	7	[0, 0, 0]	n/a	catFR1	1	R1408N
258103.871	0.816	1130263	WORD_OFF	n/a	n/a	DRIZZLE	Weather	5	7	[0, 0, 0]	n/a	catFR1	1	R1408N
258104.687	1.617	1131076	WORD	n/a	wordpools/wordpool_categorized_EN.txt	HUMIDITY	Weather	6	7	[0, 0, 0]	n/a	catFR1	1	R1408N
258106.304	0.816	1132684	WORD_OFF	n/a	n/a	HUMIDITY	Weather	6	7	[0, 0, 0]	n/a	catFR1	1	R1408N
258107.12	1.601	1133517	WORD	n/a	wordpools/wordpool_categorized_EN.txt	SHOES	Clothing	7	7	[0, 0, 0]	n/a	catFR1	1	R1408N
258108.721	0.866	1135104	WORD_OFF	n/a	n/a	SHOES	Clothing	7	7	[0, 0, 0]	n/a	catFR1	1	R1408N
258109.587	1.617	1135977	WORD	n/a	wordpools/wordpool_categorized_EN.txt	DRESS	Clothing	8	7	[0, 0, 0]	n/a	catFR1	1	R1408N
258111.204	0.816	1137584	WORD_OFF	n/a	n/a	DRESS	Clothing	8	7	[0, 0, 0]	n/a	catFR1	1	R1408N
258112.02	1.617	1138397	WORD	n/a	wordpools/wordpool_categorized_EN.txt	THUNDER	Weather	9	7	[0, 0, 0]	n/a	catFR1	1	R1408N
258113.637	0.966	1140024	WORD_OFF	n/a	n/a	THUNDER	Weather	9	7	[0, 0, 0]	n/a	catFR1	1	R1408N
258114.603	1.617	1140996	WORD	n/a	wordpools/wordpool_categorized_EN.txt	WIND	Weather	10	7	[0, 0, 0]	n/a	catFR1	1	R1408N
258116.22	0.767	1142603	WORD_OFF	n/a	n/a	WIND	Weather	10	7	[0, 0, 0]	n/a	catFR1	1	R1408N
258116.987	1.6	1143377	WORD	n/a	wordpools/wordpool_categorized_EN.txt	BEAR	Zoo	11	7	[0, 0, 0]	n/a	catFR1	1	R1408N
258118.587	0.949	1144964	WORD_OFF	n/a	n/a	BEAR	Zoo	11	7	[0, 0, 0]	n/a	catFR1	1	R1408N
258119.536	1.601	1145917	WORD	n/a	wordpools/wordpool_categorized_EN.txt	GIRAFFE	Zoo	12	7	[0, 0, 0]	n/a	catFR1	1	R1408N
258121.137	0.001	1147523	PROB	9.032	n/a	n/a	n/a	-999	20	[4, 7, 1]	12.0	catFR1	1	R1408N
258121.138	0.002	1147524	WORD_OFF	n/a	n/a	GIRAFFE	Zoo	12	7	[0, 0, 0]	n/a	catFR1	1	R1408N
258121.14	0.0	1147524	ENCODING_END	n/a	n/a	n/a	n/a	-999	7	[0, 0, 0]	n/a	catFR1	1	R1408N
258121.14	0.0	1147524	DISTRACT_START	n/a	n/a	n/a	n/a	-999	7	[0, 0, 0]	n/a	catFR1	1	R1408N
258121.14	9.046	1147526	START	n/a	n/a	n/a	n/a	-999	20	[-999, -999, -999]	n/a	catFR1	1	R1408N
258130.186	4.05	1156572	PROB	4.033	n/a	n/a	n/a	-999	20	[1, 1, 7]	9.0	catFR1	1	R1408N
258134.236	6.283	1160622	PROB	6.266	n/a	n/a	n/a	-999	20	[4, 7, 2]	13.0	catFR1	1	R1408N
258140.519	11.401	1166905	PROB	11.385	n/a	n/a	n/a	-999	20	[8, 1, 3]	12.0	catFR1	1	R1408N
258151.92	0.0	1178306	STOP	n/a	n/a	n/a	n/a	-999	20	[-999, -999, -999]	n/a	catFR1	1	R1408N
258151.92	2.333	1178315	DISTRACT_END	n/a	n/a	n/a	n/a	-999	7	[0, 0, 0]	n/a	catFR1	1	R1408N
258154.253	3.018	1180645	REC_START	n/a	n/a	n/a	n/a	-999	7	[0, 0, 0]	n/a	catFR1	1	R1408N
258157.271	3.289	1183657	REC_WORD_VV	3.018	n/a	<>	n/a	-999	7	[0, 0, 0]	n/a	catFR1	1	R1408N
258160.56	11.914	1186946	REC_WORD	6.307	n/a	THUNDER	Weather	9	7	[0, 0, 0]	n/a	catFR1	1	R1408N
258172.474	10.842	1198860	REC_WORD	18.221	n/a	UNDERWEAR	Clothing	-999	7	[0, 0, 0]	n/a	catFR1	1	R1408N
258183.316	1.192	1209702	REC_WORD	29.063	n/a	WIND	Weather	10	7	[0, 0, 0]	n/a	catFR1	1	R1408N
258184.508	2.811	1210893	REC_END	n/a	n/a	n/a	n/a	-999	7	[0, 0, 0]	n/a	catFR1	1	R1408N
258187.319	10.35	1213710	COUNTDOWN_START	n/a	n/a	n/a	n/a	-999	8	[0, 0, 0]	n/a	catFR1	1	R1408N
258197.669	0.0	1224047	COUNTDOWN_END	n/a	n/a	n/a	n/a	-999	8	[0, 0, 0]	n/a	catFR1	1	R1408N
258197.669	2.099	1224066	ENCODING_START	n/a	n/a	n/a	n/a	-999	8	[0, 0, 0]	n/a	catFR1	1	R1408N
258199.768	1.617	1226150	WORD	n/a	wordpools/wordpool_categorized_EN.txt	CUPCAKE	Desserts	1	8	[0, 0, 0]	n/a	catFR1	1	R1408N
258201.385	0.95	1227776	WORD_OFF	n/a	n/a	CUPCAKE	Desserts	1	8	[0, 0, 0]	n/a	catFR1	1	R1408N
258202.335	1.6	1228729	WORD	n/a	wordpools/wordpool_categorized_EN.txt	COBBLER	Desserts	2	8	[0, 0, 0]	n/a	catFR1	1	R1408N
258203.935	0.95	1230316	WORD_OFF	n/a	n/a	COBBLER	Desserts	2	8	[0, 0, 0]	n/a	catFR1	1	R1408N
258204.885	1.616	1231268	WORD	n/a	wordpools/wordpool_categorized_EN.txt	STAPLER	OfficeSupplies	3	8	[0, 0, 0]	n/a	catFR1	1	R1408N
258206.501	0.934	1232895	WORD_OFF	n/a	n/a	STAPLER	OfficeSupplies	3	8	[0, 0, 0]	n/a	catFR1	1	R1408N
258207.435	1.615	1233828	WORD	n/a	wordpools/wordpool_categorized_EN.txt	RULER	OfficeSupplies	4	8	[0, 0, 0]	n/a	catFR1	1	R1408N
258209.05	0.817	1235435	WORD_OFF	n/a	n/a	RULER	OfficeSupplies	4	8	[0, 0, 0]	n/a	catFR1	1	R1408N
258209.867	1.601	1236248	WORD	n/a	wordpools/wordpool_categorized_EN.txt	SCOOTER	Vehicles	5	8	[0, 0, 0]	n/a	catFR1	1	R1408N
258211.468	0.816	1237855	WORD_OFF	n/a	n/a	SCOOTER	Vehicles	5	8	[0, 0, 0]	n/a	catFR1	1	R1408N
258212.284	1.6	1238669	WORD	n/a	wordpools/wordpool_categorized_EN.txt	VAN	Vehicles	6	8	[0, 0, 0]	n/a	catFR1	1	R1408N
258213.884	0.867	1240276	WORD_OFF	n/a	n/a	VAN	Vehicles	6	8	[0, 0, 0]	n/a	catFR1	1	R1408N
258214.751	1.617	1241129	WORD	n/a	wordpools/wordpool_categorized_EN.txt	PASTRY	Desserts	7	8	[0, 0, 0]	n/a	catFR1	1	R1408N
258216.368	0.933	1242756	WORD_OFF	n/a	n/a	PASTRY	Desserts	7	8	[0, 0, 0]	n/a	catFR1	1	R1408N
258217.301	1.616	1243688	WORD	n/a	wordpools/wordpool_categorized_EN.txt	CHEESECAKE	Desserts	8	8	[0, 0, 0]	n/a	catFR1	1	R1408N
258218.917	0.983	1245295	WORD_OFF	n/a	n/a	CHEESECAKE	Desserts	8	8	[0, 0, 0]	n/a	catFR1	1	R1408N
258219.9	1.601	1246287	WORD	n/a	wordpools/wordpool_categorized_EN.txt	ERASER	OfficeSupplies	9	8	[0, 0, 0]	n/a	catFR1	1	R1408N
258221.501	0.849	1247894	WORD_OFF	n/a	n/a	ERASER	OfficeSupplies	9	8	[0, 0, 0]	n/a	catFR1	1	R1408N
258222.35	1.617	1248728	WORD	n/a	wordpools/wordpool_categorized_EN.txt	FOLDER	OfficeSupplies	10	8	[0, 0, 0]	n/a	catFR1	1	R1408N
258223.967	0.917	1250354	WORD_OFF	n/a	n/a	FOLDER	OfficeSupplies	10	8	[0, 0, 0]	n/a	catFR1	1	R1408N
258224.884	1.6	1251267	WORD	n/a	wordpools/wordpool_categorized_EN.txt	MOPED	Vehicles	11	8	[0, 0, 0]	n/a	catFR1	1	R1408N
258226.484	0.783	1252874	WORD_OFF	n/a	n/a	MOPED	Vehicles	11	8	[0, 0, 0]	n/a	catFR1	1	R1408N
258227.267	1.617	1253648	WORD	n/a	wordpools/wordpool_categorized_EN.txt	MOTORCYCLE	Vehicles	12	8	[0, 0, 0]	n/a	catFR1	1	R1408N
258228.884	0.0	1255270	START	n/a	n/a	n/a	n/a	-999	21	[-999, -999, -999]	n/a	catFR1	1	R1408N
258228.884	0.0	1255270	PROB	7.132	n/a	n/a	n/a	-999	21	[3, 5, 7]	14.0	catFR1	1	R1408N
258228.883	0.001	1255275	WORD_OFF	n/a	n/a	MOTORCYCLE	Vehicles	12	8	[0, 0, 0]	n/a	catFR1	1	R1408N
258228.884	0.0	1255275	ENCODING_END	n/a	n/a	n/a	n/a	-999	8	[0, 0, 0]	n/a	catFR1	1	R1408N
258228.884	7.149	1255275	DISTRACT_START	n/a	n/a	n/a	n/a	-999	8	[0, 0, 0]	n/a	catFR1	1	R1408N
258236.033	4.751	1262418	PROB	4.733	n/a	n/a	n/a	-999	21	[6, 4, 1]	11.0	catFR1	1	R1408N
258240.784	8.466	1267169	PROB	8.449	n/a	n/a	n/a	-999	21	[6, 5, 2]	13.0	catFR1	1	R1408N
258249.25	0.0	1275630	DISTRACT_END	n/a	n/a	n/a	n/a	-999	8	[0, 0, 0]	n/a	catFR1	1	R1408N
258249.25	2.1	1275635	STOP	n/a	n/a	n/a	n/a	-999	21	[-999, -999, -999]	n/a	catFR1	1	R1408N
258251.35	9.737	1277742	REC_START	n/a	n/a	n/a	n/a	-999	8	[0, 0, 0]	n/a	catFR1	1	R1408N
258261.087	2.604	1287472	REC_WORD	9.737	n/a	SCOOTER	Vehicles	5	8	[0, 0, 0]	n/a	catFR1	1	R1408N
258263.691	2.334	1290076	REC_WORD_VV	12.341	n/a	<>	n/a	-999	8	[0, 0, 0]	n/a	catFR1	1	R1408N
258266.025	2.618	1292410	REC_WORD	14.675	n/a	STAPLER	OfficeSupplies	3	8	[0, 0, 0]	n/a	catFR1	1	R1408N
258268.643	5.543	1295028	REC_WORD	17.293	n/a	CUPCAKE	Desserts	1	8	[0, 0, 0]	n/a	catFR1	1	R1408N
258274.186	7.406	1300571	REC_WORD	22.836	n/a	CHEESECAKE	Desserts	8	8	[0, 0, 0]	n/a	catFR1	1	R1408N
258281.592	2.591	1307970	REC_END	n/a	n/a	n/a	n/a	-999	8	[0, 0, 0]	n/a	catFR1	1	R1408N
258284.183	10.35	1310569	COUNTDOWN_START	n/a	n/a	n/a	n/a	-999	9	[0, 0, 0]	n/a	catFR1	1	R1408N
258294.533	0.0	1320925	COUNTDOWN_END	n/a	n/a	n/a	n/a	-999	9	[0, 0, 0]	n/a	catFR1	1	R1408N
258294.533	2.132	1320925	ENCODING_START	n/a	n/a	n/a	n/a	-999	9	[0, 0, 0]	n/a	catFR1	1	R1408N
258296.665	1.617	1323048	WORD	n/a	wordpools/wordpool_categorized_EN.txt	EYE	BodyParts	1	9	[0, 0, 0]	n/a	catFR1	1	R1408N
258298.282	0.95	1324675	WORD_OFF	n/a	n/a	EYE	BodyParts	1	9	[0, 0, 0]	n/a	catFR1	1	R1408N
258299.232	1.6	1325607	WORD	n/a	wordpools/wordpool_categorized_EN.txt	LEG	BodyParts	2	9	[0, 0, 0]	n/a	catFR1	1	R1408N
258300.832	0.933	1327214	WORD_OFF	n/a	n/a	LEG	BodyParts	2	9	[0, 0, 0]	n/a	catFR1	1	R1408N
258301.765	1.6	1328147	WORD	n/a	wordpools/wordpool_categorized_EN.txt	FOUNDATION	Building	3	9	[0, 0, 0]	n/a	catFR1	1	R1408N
258303.365	0.983	1329754	WORD_OFF	n/a	n/a	FOUNDATION	Building	3	9	[0, 0, 0]	n/a	catFR1	1	R1408N
258304.348	1.601	1330726	WORD	n/a	wordpools/wordpool_categorized_EN.txt	DOOR	Building	4	9	[0, 0, 0]	n/a	catFR1	1	R1408N
258305.949	0.866	1332333	WORD_OFF	n/a	n/a	DOOR	Building	4	9	[0, 0, 0]	n/a	catFR1	1	R1408N
258306.815	1.617	1333206	WORD	n/a	wordpools/wordpool_categorized_EN.txt	TRUMPET	Instruments	5	9	[0, 0, 0]	n/a	catFR1	1	R1408N
258308.432	0.883	1334813	WORD_OFF	n/a	n/a	TRUMPET	Instruments	5	9	[0, 0, 0]	n/a	catFR1	1	R1408N
258309.315	1.6	1335706	WORD	n/a	wordpools/wordpool_categorized_EN.txt	TROMBONE	Instruments	6	9	[0, 0, 0]	n/a	catFR1	1	R1408N
258310.915	0.783	1337293	WORD_OFF	n/a	n/a	TROMBONE	Instruments	6	9	[0, 0, 0]	n/a	catFR1	1	R1408N
258311.698	1.6	1338087	WORD	n/a	wordpools/wordpool_categorized_EN.txt	TOE	BodyParts	7	9	[0, 0, 0]	n/a	catFR1	1	R1408N
258313.298	0.884	1339674	WORD_OFF	n/a	n/a	TOE	BodyParts	7	9	[0, 0, 0]	n/a	catFR1	1	R1408N
258314.182	1.616	1340567	WORD	n/a	wordpools/wordpool_categorized_EN.txt	ELBOW	BodyParts	8	9	[0, 0, 0]	n/a	catFR1	1	R1408N
258315.798	0.867	1342174	WORD_OFF	n/a	n/a	ELBOW	BodyParts	8	9	[0, 0, 0]	n/a	catFR1	1	R1408N
258316.665	1.6	1343047	WORD	n/a	wordpools/wordpool_categorized_EN.txt	HALLWAY	Building	9	9	[0, 0, 0]	n/a	catFR1	1	R1408N
258318.265	1.0	1344654	WORD_OFF	n/a	n/a	HALLWAY	Building	9	9	[0, 0, 0]	n/a	catFR1	1	R1408N
258319.265	1.6	1345646	WORD	n/a	wordpools/wordpool_categorized_EN.txt	CEILING	Building	10	9	[0, 0, 0]	n/a	catFR1	1	R1408N
258320.865	0.782	1347253	WORD_OFF	n/a	n/a	CEILING	Building	10	9	[0, 0, 0]	n/a	catFR1	1	R1408N
258321.647	1.601	1348027	WORD	n/a	wordpools/wordpool_categorized_EN.txt	CELLO	Instruments	11	9	[0, 0, 0]	n/a	catFR1	1	R1408N
258323.248	0.883	1349634	WORD_OFF	n/a	n/a	CELLO	Instruments	11	9	[0, 0, 0]	n/a	catFR1	1	R1408N
258324.131	1.6	1350507	WORD	n/a	wordpools/wordpool_categorized_EN.txt	FLUTE	Instruments	12	9	[0, 0, 0]	n/a	catFR1	1	R1408N
258325.731	0.002	1352114	WORD_OFF	n/a	n/a	FLUTE	Instruments	12	9	[0, 0, 0]	n/a	catFR1	1	R1408N
258325.733	0.0	1352114	ENCODING_END	n/a	n/a	n/a	n/a	-999	9	[0, 0, 0]	n/a	catFR1	1	R1408N
258325.733	0.0	1352114	DISTRACT_START	n/a	n/a	n/a	n/a	-999	9	[0, 0, 0]	n/a	catFR1	1	R1408N
258325.732	0.001	1352117	PROB	5.766	n/a	n/a	n/a	-999	22	[7, 4, 3]	14.0	catFR1	1	R1408N
258325.733	5.782	1352118	START	n/a	n/a	n/a	n/a	-999	22	[-999, -999, -999]	n/a	catFR1	1	R1408N
258331.515	4.766	1357900	PROB	4.749	n/a	n/a	n/a	-999	22	[3, 3, 2]	8.0	catFR1	1	R1408N
258336.281	6.266	1362666	PROB	6.249	n/a	n/a	n/a	-999	22	[6, 1, 2]	9.0	catFR1	1	R1408N
258342.547	7.2	1368932	PROB	7.183	n/a	n/a	n/a	-999	22	[1, 7, 3]	11.0	catFR1	1	R1408N
258349.747	0.0	1376132	STOP	n/a	n/a	n/a	n/a	-999	22	[-999, -999, -999]	n/a	catFR1	1	R1408N
258349.747	2.234	1376140	DISTRACT_END	n/a	n/a	n/a	n/a	-999	9	[0, 0, 0]	n/a	catFR1	1	R1408N
258351.981	1.16	1378370	REC_START	n/a	n/a	n/a	n/a	-999	9	[0, 0, 0]	n/a	catFR1	1	R1408N
258353.141	4.897	1379526	REC_WORD	1.16	n/a	EYE	BodyParts	1	9	[0, 0, 0]	n/a	catFR1	1	R1408N
258358.038	15.068	1384423	REC_WORD	6.057	n/a	TOE	BodyParts	7	9	[0, 0, 0]	n/a	catFR1	1	R1408N
258373.106	4.402	1399491	REC_WORD	21.125	n/a	SKEEPER	n/a	-999	9	[0, 0, 0]	n/a	catFR1	1	R1408N
258377.508	2.999	1403893	REC_WORD_VV	25.527	n/a	<>	n/a	-999	9	[0, 0, 0]	n/a	catFR1	1	R1408N
258380.507	1.713	1406892	REC_WORD_VV	28.526	n/a	<>	n/a	-999	9	[0, 0, 0]	n/a	catFR1	1	R1408N
258382.22	5.577	1408598	REC_END	n/a	n/a	n/a	n/a	-999	9	[0, 0, 0]	n/a	catFR1	1	R1408N
258387.797	10.35	1414193	COUNTDOWN_START	n/a	n/a	n/a	n/a	-999	10	[0, 0, 0]	n/a	catFR1	1	R1408N
258398.147	0.0	1424530	COUNTDOWN_END	n/a	n/a	n/a	n/a	-999	10	[0, 0, 0]	n/a	catFR1	1	R1408N
258398.147	2.049	1424530	ENCODING_START	n/a	n/a	n/a	n/a	-999	10	[0, 0, 0]	n/a	catFR1	1	R1408N
258400.196	1.6	1426573	WORD	n/a	wordpools/wordpool_categorized_EN.txt	RUM	Beverages	1	10	[0, 0, 0]	n/a	catFR1	1	R1408N
258401.796	0.833	1428180	WORD_OFF	n/a	n/a	RUM	Beverages	1	10	[0, 0, 0]	n/a	catFR1	1	R1408N
258402.629	1.617	1429013	WORD	n/a	wordpools/wordpool_categorized_EN.txt	WATER	Beverages	2	10	[0, 0, 0]	n/a	catFR1	1	R1408N
258404.246	0.85	1430640	WORD_OFF	n/a	n/a	WATER	Beverages	2	10	[0, 0, 0]	n/a	catFR1	1	R1408N
258405.096	1.615	1431474	WORD	n/a	wordpools/wordpool_categorized_EN.txt	PIANO	Instruments	3	10	[0, 0, 0]	n/a	catFR1	1	R1408N
258406.711	0.768	1433100	WORD_OFF	n/a	n/a	PIANO	Instruments	3	10	[0, 0, 0]	n/a	catFR1	1	R1408N
258407.479	1.6	1433854	WORD	n/a	wordpools/wordpool_categorized_EN.txt	ORGAN	Instruments	4	10	[0, 0, 0]	n/a	catFR1	1	R1408N
258409.079	0.884	1435461	WORD_OFF	n/a	n/a	ORGAN	Instruments	4	10	[0, 0, 0]	n/a	catFR1	1	R1408N
258409.963	1.615	1436354	WORD	n/a	wordpools/wordpool_categorized_EN.txt	PIG	FarmAnimals	5	10	[0, 0, 0]	n/a	catFR1	1	R1408N
258411.578	0.935	1437961	WORD_OFF	n/a	n/a	PIG	FarmAnimals	5	10	[0, 0, 0]	n/a	catFR1	1	R1408N
258412.513	1.616	1438894	WORD	n/a	wordpools/wordpool_categorized_EN.txt	TURKEY	FarmAnimals	6	10	[0, 0, 0]	n/a	catFR1	1	R1408N
258414.129	0.967	1440521	WORD_OFF	n/a	n/a	TURKEY	FarmAnimals	6	10	[0, 0, 0]	n/a	catFR1	1	R1408N
258415.096	1.616	1441473	WORD	n/a	wordpools/wordpool_categorized_EN.txt	TUBA	Instruments	7	10	[0, 0, 0]	n/a	catFR1	1	R1408N
258416.712	0.833	1443100	WORD_OFF	n/a	n/a	TUBA	Instruments	7	10	[0, 0, 0]	n/a	catFR1	1	R1408N
258417.545	1.617	1443933	WORD	n/a	wordpools/wordpool_categorized_EN.txt	VIOLIN	Instruments	8	10	[0, 0, 0]	n/a	catFR1	1	R1408N
258419.162	0.967	1445540	WORD_OFF	n/a	n/a	VIOLIN	Instruments	8	10	[0, 0, 0]	n/a	catFR1	1	R1408N
258420.129	1.6	1446512	WORD	n/a	wordpools/wordpool_categorized_EN.txt	COW	FarmAnimals	9	10	[0, 0, 0]	n/a	catFR1	1	R1408N
258421.729	0.833	1448119	WORD_OFF	n/a	n/a	COW	FarmAnimals	9	10	[0, 0, 0]	n/a	catFR1	1	R1408N
258422.562	1.616	1448952	WORD	n/a	wordpools/wordpool_categorized_EN.txt	CHICKEN	FarmAnimals	10	10	[0, 0, 0]	n/a	catFR1	1	R1408N
258424.178	0.783	1450560	WORD_OFF	n/a	n/a	CHICKEN	FarmAnimals	10	10	[0, 0, 0]	n/a	catFR1	1	R1408N
258424.961	1.601	1451353	WORD	n/a	wordpools/wordpool_categorized_EN.txt	WINE	Beverages	11	10	[0, 0, 0]	n/a	catFR1	1	R1408N
258426.562	0.833	1452940	WORD_OFF	n/a	n/a	WINE	Beverages	11	10	[0, 0, 0]	n/a	catFR1	1	R1408N
258427.395	1.6	1453774	WORD	n/a	wordpools/wordpool_categorized_EN.txt	JUICE	Beverages	12	10	[0, 0, 0]	n/a	catFR1	1	R1408N
258428.995	0.0	1455379	PROB	5.016	n/a	n/a	n/a	-999	23	[7, 2, 1]	10.0	catFR1	1	R1408N
258428.995	0.002	1455381	WORD_OFF	n/a	n/a	JUICE	Beverages	12	10	[0, 0, 0]	n/a	catFR1	1	R1408N
258428.997	0.0	1455381	ENCODING_END	n/a	n/a	n/a	n/a	-999	10	[0, 0, 0]	n/a	catFR1	1	R1408N
258428.997	0.0	1455381	DISTRACT_START	n/a	n/a	n/a	n/a	-999	10	[0, 0, 0]	n/a	catFR1	1	R1408N
258428.997	5.032	1455381	START	n/a	n/a	n/a	n/a	-999	23	[-999, -999, -999]	n/a	catFR1	1	R1408N
258434.029	5.316	1460413	PROB	5.299	n/a	n/a	n/a	-999	23	[6, 3, 1]	10.0	catFR1	1	R1408N
258439.345	4.716	1465729	PROB	4.699	n/a	n/a	n/a	-999	23	[2, 4, 8]	14.0	catFR1	1	R1408N
258444.061	10.017	1470445	PROB	10.0	n/a	n/a	n/a	-999	23	[6, 4, 1]	11.0	catFR1	1	R1408N
258454.078	0.0	1480458	DISTRACT_END	n/a	n/a	n/a	n/a	-999	10	[0, 0, 0]	n/a	catFR1	1	R1408N
258454.078	2.033	1480462	STOP	n/a	n/a	n/a	n/a	-999	23	[-999, -999, -999]	n/a	catFR1	1	R1408N
258456.111	2.596	1482490	REC_START	n/a	n/a	n/a	n/a	-999	10	[0, 0, 0]	n/a	catFR1	1	R1408N
258458.707	3.765	1485091	REC_WORD	2.596	n/a	WATER	Beverages	2	10	[0, 0, 0]	n/a	catFR1	1	R1408N
258462.472	9.694	1488856	REC_WORD	6.361	n/a	RUM	Beverages	1	10	[0, 0, 0]	n/a	catFR1	1	R1408N
258472.166	14.183	1498550	REC_WORD	16.055	n/a	PIG	FarmAnimals	5	10	[0, 0, 0]	n/a	catFR1	1	R1408N
258486.349	1.61	1512738	REC_END	n/a	n/a	n/a	n/a	-999	10	[0, 0, 0]	n/a	catFR1	1	R1408N
258487.959	10.352	1514345	COUNTDOWN_START	n/a	n/a	n/a	n/a	-999	11	[0, 0, 0]	n/a	catFR1	1	R1408N
258498.311	0.0	1524702	COUNTDOWN_END	n/a	n/a	n/a	n/a	-999	11	[0, 0, 0]	n/a	catFR1	1	R1408N
258498.311	2.199	1524702	ENCODING_START	n/a	n/a	n/a	n/a	-999	11	[0, 0, 0]	n/a	catFR1	1	R1408N
258500.51	1.617	1526884	WORD	n/a	wordpools/wordpool_categorized_EN.txt	JELLYFISH	OceanAnimals	1	11	[0, 0, 0]	n/a	catFR1	1	R1408N
258502.127	0.95	1528511	WORD_OFF	n/a	n/a	JELLYFISH	OceanAnimals	1	11	[0, 0, 0]	n/a	catFR1	1	R1408N
258503.077	1.6	1529463	WORD	n/a	wordpools/wordpool_categorized_EN.txt	WHALE	OceanAnimals	2	11	[0, 0, 0]	n/a	catFR1	1	R1408N
258504.677	0.933	1531050	WORD_OFF	n/a	n/a	WHALE	OceanAnimals	2	11	[0, 0, 0]	n/a	catFR1	1	R1408N
258505.61	1.6	1532003	WORD	n/a	wordpools/wordpool_categorized_EN.txt	WINDOW	Building	3	11	[0, 0, 0]	n/a	catFR1	1	R1408N
258507.21	0.783	1533590	WORD_OFF	n/a	n/a	WINDOW	Building	3	11	[0, 0, 0]	n/a	catFR1	1	R1408N
258507.993	1.6	1534383	WORD	n/a	wordpools/wordpool_categorized_EN.txt	STAIRS	Building	4	11	[0, 0, 0]	n/a	catFR1	1	R1408N
258509.593	0.767	1535971	WORD_OFF	n/a	n/a	STAIRS	Building	4	11	[0, 0, 0]	n/a	catFR1	1	R1408N
258510.36	1.616	1536744	WORD	n/a	wordpools/wordpool_categorized_EN.txt	CAKE	Desserts	5	11	[0, 0, 0]	n/a	catFR1	1	R1408N
258511.976	0.767	1538351	WORD_OFF	n/a	n/a	CAKE	Desserts	5	11	[0, 0, 0]	n/a	catFR1	1	R1408N
258512.743	1.617	1539125	WORD	n/a	wordpools/wordpool_categorized_EN.txt	COOKIE	Desserts	6	11	[0, 0, 0]	n/a	catFR1	1	R1408N
258514.36	0.8	1540752	WORD_OFF	n/a	n/a	COOKIE	Desserts	6	11	[0, 0, 0]	n/a	catFR1	1	R1408N
258515.16	1.616	1541546	WORD	n/a	wordpools/wordpool_categorized_EN.txt	ROOM	Building	7	11	[0, 0, 0]	n/a	catFR1	1	R1408N
258516.776	0.8	1543153	WORD_OFF	n/a	n/a	ROOM	Building	7	11	[0, 0, 0]	n/a	catFR1	1	R1408N
258517.576	1.617	1543966	WORD	n/a	wordpools/wordpool_categorized_EN.txt	BATHROOM	Building	8	11	[0, 0, 0]	n/a	catFR1	1	R1408N
258519.193	0.833	1545573	WORD_OFF	n/a	n/a	BATHROOM	Building	8	11	[0, 0, 0]	n/a	catFR1	1	R1408N
258520.026	1.6	1546406	WORD	n/a	wordpools/wordpool_categorized_EN.txt	BROWNIES	Desserts	9	11	[0, 0, 0]	n/a	catFR1	1	R1408N
258521.626	0.967	1548014	WORD_OFF	n/a	n/a	BROWNIES	Desserts	9	11	[0, 0, 0]	n/a	catFR1	1	R1408N
258522.593	1.616	1548966	WORD	n/a	wordpools/wordpool_categorized_EN.txt	PUDDING	Desserts	10	11	[0, 0, 0]	n/a	catFR1	1	R1408N
258524.209	0.917	1550593	WORD_OFF	n/a	n/a	PUDDING	Desserts	10	11	[0, 0, 0]	n/a	catFR1	1	R1408N
258525.126	1.617	1551505	WORD	n/a	wordpools/wordpool_categorized_EN.txt	CRAB	OceanAnimals	11	11	[0, 0, 0]	n/a	catFR1	1	R1408N
258526.743	0.899	1553132	WORD_OFF	n/a	n/a	CRAB	OceanAnimals	11	11	[0, 0, 0]	n/a	catFR1	1	R1408N
258527.642	1.601	1554025	WORD	n/a	wordpools/wordpool_categorized_EN.txt	TURTLE	OceanAnimals	12	11	[0, 0, 0]	n/a	catFR1	1	R1408N
258529.243	0.001	1555627	PROB	6.466	n/a	n/a	n/a	-999	24	[8, 5, 2]	15.0	catFR1	1	R1408N
258529.244	0.0	1555628	START	n/a	n/a	n/a	n/a	-999	24	[-999, -999, -999]	n/a	catFR1	1	R1408N
258529.242	0.002	1555632	WORD_OFF	n/a	n/a	TURTLE	OceanAnimals	12	11	[0, 0, 0]	n/a	catFR1	1	R1408N
258529.244	0.0	1555632	ENCODING_END	n/a	n/a	n/a	n/a	-999	11	[0, 0, 0]	n/a	catFR1	1	R1408N
258529.244	6.481	1555632	DISTRACT_START	n/a	n/a	n/a	n/a	-999	11	[0, 0, 0]	n/a	catFR1	1	R1408N
258535.725	5.001	1562108	PROB	4.983	n/a	n/a	n/a	-999	24	[1, 6, 4]	11.0	catFR1	1	R1408N
258540.726	3.866	1567109	PROB	3.849	n/a	n/a	n/a	-999	24	[1, 1, 2]	4.0	catFR1	1	R1408N
258544.592	5.199	1570975	PROB	5.183	n/a	n/a	n/a	-999	24	[6, 1, 3]	10.0	catFR1	1	R1408N
258549.791	0.0	1576166	DISTRACT_END	n/a	n/a	n/a	n/a	-999	11	[0, 0, 0]	n/a	catFR1	1	R1408N
258549.791	2.367	1576174	STOP	n/a	n/a	n/a	n/a	-999	24	[-999, -999, -999]	n/a	catFR1	1	R1408N
258552.158	0.375	1578535	REC_START	n/a	n/a	n/a	n/a	-999	11	[0, 0, 0]	n/a	catFR1	1	R1408N
258552.533	1.0	1578916	REC_WORD_VV	0.375	n/a	<>	n/a	-999	11	[0, 0, 0]	n/a	catFR1	1	R1408N
258553.533	1.0	1579916	REC_WORD_VV	1.375	n/a	<>	n/a	-999	11	[0, 0, 0]	n/a	catFR1	1	R1408N
258554.533	1.204	1580916	REC_WORD_VV	2.375	n/a	<>	n/a	-999	11	[0, 0, 0]	n/a	catFR1	1	R1408N
258555.737	1.0	1582120	REC_WORD_VV	3.579	n/a	<>	n/a	-999	11	[0, 0, 0]	n/a	catFR1	1	R1408N
258556.737	3.913	1583120	REC_WORD_VV	4.579	n/a	<>	n/a	-999	11	[0, 0, 0]	n/a	catFR1	1	R1408N
258560.65	4.325	1587033	REC_WORD_VV	8.492	n/a	<>	n/a	-999	11	[0, 0, 0]	n/a	catFR1	1	R1408N
258564.975	2.36	1591358	REC_WORD_VV	12.817	n/a	<>	n/a	-999	11	[0, 0, 0]	n/a	catFR1	1	R1408N
258567.335	1.876	1593718	REC_WORD_VV	15.177	n/a	<>	n/a	-999	11	[0, 0, 0]	n/a	catFR1	1	R1408N
258569.211	3.974	1595594	REC_WORD_VV	17.053	n/a	<>	n/a	-999	11	[0, 0, 0]	n/a	catFR1	1	R1408N
258573.185	1.0	1599568	REC_WORD_VV	21.027	n/a	<>	n/a	-999	11	[0, 0, 0]	n/a	catFR1	1	R1408N
258574.185	1.0	1600568	REC_WORD_VV	22.027	n/a	<>	n/a	-999	11	[0, 0, 0]	n/a	catFR1	1	R1408N
258575.185	1.0	1601568	REC_WORD_VV	23.027	n/a	<>	n/a	-999	11	[0, 0, 0]	n/a	catFR1	1	R1408N
258576.185	3.497	1602568	REC_WORD_VV	24.027	n/a	<>	n/a	-999	11	[0, 0, 0]	n/a	catFR1	1	R1408N
258579.682	2.691	1606065	REC_WORD	27.524	n/a	WINDOW	Building	3	11	[0, 0, 0]	n/a	catFR1	1	R1408N
258582.373	61.966	1608764	REC_END	n/a	n/a	n/a	n/a	-999	11	[0, 0, 0]	n/a	catFR1	1	R1408N
258644.339	10.35	1670724	COUNTDOWN_START	n/a	n/a	n/a	n/a	-999	12	[0, 0, 0]	n/a	catFR1	1	R1408N
258654.689	0.0	1681080	COUNTDOWN_END	n/a	n/a	n/a	n/a	-999	12	[0, 0, 0]	n/a	catFR1	1	R1408N
258654.689	2.299	1681080	ENCODING_START	n/a	n/a	n/a	n/a	-999	12	[0, 0, 0]	n/a	catFR1	1	R1408N
258656.988	1.6	1683362	WORD	n/a	wordpools/wordpool_categorized_EN.txt	BANJO	Instruments	1	12	[0, 0, 0]	n/a	catFR1	1	R1408N
258658.588	0.884	1684969	WORD_OFF	n/a	n/a	BANJO	Instruments	1	12	[0, 0, 0]	n/a	catFR1	1	R1408N
258659.472	1.617	1685862	WORD	n/a	wordpools/wordpool_categorized_EN.txt	GUITAR	Instruments	2	12	[0, 0, 0]	n/a	catFR1	1	R1408N
258661.089	0.832	1687469	WORD_OFF	n/a	n/a	GUITAR	Instruments	2	12	[0, 0, 0]	n/a	catFR1	1	R1408N
258661.921	1.602	1688302	WORD	n/a	wordpools/wordpool_categorized_EN.txt	BUTTERFLY	Insects	3	12	[0, 0, 0]	n/a	catFR1	1	R1408N
258663.523	0.916	1689909	WORD_OFF	n/a	n/a	BUTTERFLY	Insects	3	12	[0, 0, 0]	n/a	catFR1	1	R1408N
258664.439	1.601	1690822	WORD	n/a	wordpools/wordpool_categorized_EN.txt	LADYBUG	Insects	4	12	[0, 0, 0]	n/a	catFR1	1	R1408N
258666.04	0.95	1692429	WORD_OFF	n/a	n/a	LADYBUG	Insects	4	12	[0, 0, 0]	n/a	catFR1	1	R1408N
258666.99	1.615	1693381	WORD	n/a	wordpools/wordpool_categorized_EN.txt	PIE	Desserts	5	12	[0, 0, 0]	n/a	catFR1	1	R1408N
258668.605	0.951	1694988	WORD_OFF	n/a	n/a	PIE	Desserts	5	12	[0, 0, 0]	n/a	catFR1	1	R1408N
258669.556	1.601	1695940	WORD	n/a	wordpools/wordpool_categorized_EN.txt	JELLO	Desserts	6	12	[0, 0, 0]	n/a	catFR1	1	R1408N
258671.157	0.799	1697547	WORD_OFF	n/a	n/a	JELLO	Desserts	6	12	[0, 0, 0]	n/a	catFR1	1	R1408N
258671.956	1.616	1698341	WORD	n/a	wordpools/wordpool_categorized_EN.txt	DRUM	Instruments	7	12	[0, 0, 0]	n/a	catFR1	1	R1408N
258673.572	0.883	1699948	WORD_OFF	n/a	n/a	DRUM	Instruments	7	12	[0, 0, 0]	n/a	catFR1	1	R1408N
258674.455	1.617	1700841	WORD	n/a	wordpools/wordpool_categorized_EN.txt	BASS	Instruments	8	12	[0, 0, 0]	n/a	catFR1	1	R1408N
258676.072	0.767	1702448	WORD_OFF	n/a	n/a	BASS	Instruments	8	12	[0, 0, 0]	n/a	catFR1	1	R1408N
258676.839	1.617	1703222	WORD	n/a	wordpools/wordpool_categorized_EN.txt	FUDGE	Desserts	9	12	[0, 0, 0]	n/a	catFR1	1	R1408N
258678.456	0.866	1704829	WORD_OFF	n/a	n/a	FUDGE	Desserts	9	12	[0, 0, 0]	n/a	catFR1	1	R1408N
258679.322	1.617	1705702	WORD	n/a	wordpools/wordpool_categorized_EN.txt	MOUSSE	Desserts	10	12	[0, 0, 0]	n/a	catFR1	1	R1408N
258680.939	0.883	1707328	WORD_OFF	n/a	n/a	MOUSSE	Desserts	10	12	[0, 0, 0]	n/a	catFR1	1	R1408N
258681.822	1.617	1708201	WORD	n/a	wordpools/wordpool_categorized_EN.txt	MOSQUITO	Insects	11	12	[0, 0, 0]	n/a	catFR1	1	R1408N
258683.439	0.85	1709828	WORD_OFF	n/a	n/a	MOSQUITO	Insects	11	12	[0, 0, 0]	n/a	catFR1	1	R1408N
258684.289	1.616	1710662	WORD	n/a	wordpools/wordpool_categorized_EN.txt	BEE	Insects	12	12	[0, 0, 0]	n/a	catFR1	1	R1408N
258685.905	0.002	1712288	WORD_OFF	n/a	n/a	BEE	Insects	12	12	[0, 0, 0]	n/a	catFR1	1	R1408N
258685.907	0.0	1712288	ENCODING_END	n/a	n/a	n/a	n/a	-999	12	[0, 0, 0]	n/a	catFR1	1	R1408N
258685.907	0.0	1712288	DISTRACT_START	n/a	n/a	n/a	n/a	-999	12	[0, 0, 0]	n/a	catFR1	1	R1408N
258685.906	0.001	1712288	PROB	8.349	n/a	n/a	n/a	-999	25	[4, 5, 2]	11.0	catFR1	1	R1408N
258685.907	8.365	1712289	START	n/a	n/a	n/a	n/a	-999	25	[-999, -999, -999]	n/a	catFR1	1	R1408N
258694.272	5.6	1720654	PROB	5.583	n/a	n/a	n/a	-999	25	[7, 2, 4]	13.0	catFR1	1	R1408N
258699.872	8.532	1726254	PROB	8.516	n/a	n/a	n/a	-999	25	[5, 7, 6]	17.0	catFR1	1	R1408N
258708.404	0.0	1734786	STOP	n/a	n/a	n/a	n/a	-999	25	[-999, -999, -999]	n/a	catFR1	1	R1408N
258708.404	2.184	1734787	DISTRACT_END	n/a	n/a	n/a	n/a	-999	12	[0, 0, 0]	n/a	catFR1	1	R1408N
258710.588	4.604	1736977	REC_START	n/a	n/a	n/a	n/a	-999	12	[0, 0, 0]	n/a	catFR1	1	R1408N
258715.192	4.811	1741574	REC_WORD	4.604	n/a	BANJO	Instruments	1	12	[0, 0, 0]	n/a	catFR1	1	R1408N
258720.003	3.994	1746385	REC_WORD_VV	9.415	n/a	<>	n/a	-999	12	[0, 0, 0]	n/a	catFR1	1	R1408N
258723.997	2.724	1750379	REC_WORD_VV	13.409	n/a	<>	n/a	-999	12	[0, 0, 0]	n/a	catFR1	1	R1408N
258726.721	9.268	1753103	REC_WORD	16.133	n/a	GUITAR	Instruments	2	12	[0, 0, 0]	n/a	catFR1	1	R1408N
258735.989	1.0	1762371	REC_WORD_VV	25.401	n/a	<>	n/a	-999	12	[0, 0, 0]	n/a	catFR1	1	R1408N
258736.989	3.835	1763371	REC_WORD_VV	26.401	n/a	<>	n/a	-999	12	[0, 0, 0]	n/a	catFR1	1	R1408N
258740.824	0.0	1767206	REC_END	n/a	n/a	n/a	n/a	-999	12	[0, 0, 0]	n/a	catFR1	1	R1408N
