onset	duration	sample	trial_type	response_time	stim_file	item_name	category	serialpos	list	test	answer	experiment	session	subject
0.0	6.283	220147	INSTRUCT_START	n/a	n/a	n/a	n/a	-999	-999	[0, 0, 0]	n/a	catFR1	6	R1626S
6.283	24.165	226423	INSTRUCT_END	n/a	n/a	n/a	n/a	-999	-999	[0, 0, 0]	n/a	catFR1	6	R1626S
30.448	10.35	250594	COUNTDOWN_START	n/a	n/a	n/a	n/a	-999	-999	[0, 0, 0]	n/a	catFR1	6	R1626S
40.798	0.0	260943	COUNTDOWN_END	n/a	n/a	n/a	n/a	-999	-999	[0, 0, 0]	n/a	catFR1	6	R1626S
40.798	2.217	260943	ENCODING_START	n/a	n/a	n/a	n/a	-999	-1	[0, 0, 0]	n/a	catFR1	6	R1626S
43.015	1.616	263156	WORD	n/a	n/a	SODA	Beverages	1	-1	[0, 0, 0]	n/a	catFR1	6	R1626S
44.631	0.934	264778	WORD_OFF	n/a	n/a	SODA	Beverages	1	-1	[0, 0, 0]	n/a	catFR1	6	R1626S
45.565	1.617	265712	WORD	n/a	n/a	BEER	Beverages	2	-1	[0, 0, 0]	n/a	catFR1	6	R1626S
47.182	0.933	267324	WORD_OFF	n/a	n/a	BEER	Beverages	2	-1	[0, 0, 0]	n/a	catFR1	6	R1626S
48.115	1.617	268259	WORD	n/a	n/a	HEAD	BodyParts	3	-1	[0, 0, 0]	n/a	catFR1	6	R1626S
49.732	0.865	269871	WORD_OFF	n/a	n/a	HEAD	BodyParts	3	-1	[0, 0, 0]	n/a	catFR1	6	R1626S
50.597	1.601	270739	WORD	n/a	n/a	ARM	BodyParts	4	-1	[0, 0, 0]	n/a	catFR1	6	R1626S
52.198	0.8	272342	WORD_OFF	n/a	n/a	ARM	BodyParts	4	-1	[0, 0, 0]	n/a	catFR1	6	R1626S
52.998	1.616	273143	WORD	n/a	n/a	BUS	Vehicles	5	-1	[0, 0, 0]	n/a	catFR1	6	R1626S
54.614	0.834	274755	WORD_OFF	n/a	n/a	BUS	Vehicles	5	-1	[0, 0, 0]	n/a	catFR1	6	R1626S
55.448	1.617	275594	WORD	n/a	n/a	MOTORCYCLE	Vehicles	6	-1	[0, 0, 0]	n/a	catFR1	6	R1626S
57.065	0.916	277206	WORD_OFF	n/a	n/a	MOTORCYCLE	Vehicles	6	-1	[0, 0, 0]	n/a	catFR1	6	R1626S
57.981	1.601	278122	WORD	n/a	n/a	CIDER	Beverages	7	-1	[0, 0, 0]	n/a	catFR1	6	R1626S
59.582	0.9	279724	WORD_OFF	n/a	n/a	CIDER	Beverages	7	-1	[0, 0, 0]	n/a	catFR1	6	R1626S
60.482	1.6	280621	WORD	n/a	n/a	COFFEE	Beverages	8	-1	[0, 0, 0]	n/a	catFR1	6	R1626S
62.082	0.766	282223	WORD_OFF	n/a	n/a	COFFEE	Beverages	8	-1	[0, 0, 0]	n/a	catFR1	6	R1626S
62.848	1.6	282986	WORD	n/a	n/a	LEG	BodyParts	9	-1	[0, 0, 0]	n/a	catFR1	6	R1626S
64.448	0.8	284589	WORD_OFF	n/a	n/a	LEG	BodyParts	9	-1	[0, 0, 0]	n/a	catFR1	6	R1626S
65.248	1.6	285390	WORD	n/a	n/a	EYE	BodyParts	10	-1	[0, 0, 0]	n/a	catFR1	6	R1626S
66.848	0.767	286993	WORD_OFF	n/a	n/a	EYE	BodyParts	10	-1	[0, 0, 0]	n/a	catFR1	6	R1626S
67.615	1.6	287756	WORD	n/a	n/a	SCOOTER	Vehicles	11	-1	[0, 0, 0]	n/a	catFR1	6	R1626S
69.215	0.932	289358	WORD_OFF	n/a	n/a	SCOOTER	Vehicles	11	-1	[0, 0, 0]	n/a	catFR1	6	R1626S
70.147	1.601	290293	WORD	n/a	n/a	PLANE	Vehicles	12	-1	[0, 0, 0]	n/a	catFR1	6	R1626S
71.748	0.001	291886	WORD_OFF	n/a	n/a	PLANE	Vehicles	12	-1	[0, 0, 0]	n/a	catFR1	6	R1626S
71.749	0.001	291888	PROB	5.233	n/a	n/a	n/a	-999	-1	[7, 4, 3]	14.0	catFR1	6	R1626S
71.75	0.0	291889	START	n/a	n/a	n/a	n/a	-999	-1	[-999, -999, -999]	n/a	catFR1	6	R1626S
71.749	0.001	291895	ENCODING_END	n/a	n/a	n/a	n/a	-999	-1	[0, 0, 0]	n/a	catFR1	6	R1626S
71.75	5.249	291895	DISTRACT_START	n/a	n/a	n/a	n/a	-999	-1	[0, 0, 0]	n/a	catFR1	6	R1626S
76.999	4.782	297138	PROB	4.765	n/a	n/a	n/a	-999	-1	[2, 8, 5]	15.0	catFR1	6	R1626S
81.781	4.584	301920	PROB	4.567	n/a	n/a	n/a	-999	-1	[6, 6, 4]	16.0	catFR1	6	R1626S
86.365	5.666	306503	PROB	5.65	n/a	n/a	n/a	-999	-1	[1, 3, 5]	9.0	catFR1	6	R1626S
92.031	0.0	312169	STOP	n/a	n/a	n/a	n/a	-999	-1	[-999, -999, -999]	n/a	catFR1	6	R1626S
92.031	2.317	312174	DISTRACT_END	n/a	n/a	n/a	n/a	-999	-1	[0, 0, 0]	n/a	catFR1	6	R1626S
94.348	2.67	314492	REC_START	n/a	n/a	n/a	n/a	-999	-1	[0, 0, 0]	n/a	catFR1	6	R1626S
97.018	3.315	317156	REC_WORD	2.67	n/a	SODA	Beverages	1	-1	[0, 0, 0]	n/a	catFR1	6	R1626S
100.333	2.315	320471	REC_WORD	5.985	n/a	BEER	Beverages	2	-1	[0, 0, 0]	n/a	catFR1	6	R1626S
102.648	2.461	322786	REC_WORD	8.3	n/a	ARM	BodyParts	4	-1	[0, 0, 0]	n/a	catFR1	6	R1626S
105.109	3.966	325247	REC_WORD	10.761	n/a	HEAD	BodyParts	3	-1	[0, 0, 0]	n/a	catFR1	6	R1626S
109.075	2.9	329212	REC_WORD	14.727	n/a	LEG	BodyParts	9	-1	[0, 0, 0]	n/a	catFR1	6	R1626S
111.975	12.572	332112	REC_WORD	17.627	n/a	MOTORCYCLE	Vehicles	6	-1	[0, 0, 0]	n/a	catFR1	6	R1626S
124.547	33.384	344681	REC_END	n/a	n/a	n/a	n/a	-999	-1	[0, 0, 0]	n/a	catFR1	6	R1626S
157.931	10.349	378075	COUNTDOWN_START	n/a	n/a	n/a	n/a	-999	1	[0, 0, 0]	n/a	catFR1	6	R1626S
168.28	0.0	388415	COUNTDOWN_END	n/a	n/a	n/a	n/a	-999	1	[0, 0, 0]	n/a	catFR1	6	R1626S
168.28	1.884	388425	ENCODING_START	n/a	n/a	n/a	n/a	-999	1	[0, 0, 0]	n/a	catFR1	6	R1626S
170.164	1.601	390304	WORD	n/a	wordpools/wordpool_categorized_EN.txt	STRAWBERRY	Fruit	1	1	[0, 0, 0]	n/a	catFR1	6	R1626S
171.765	0.916	391906	WORD_OFF	n/a	n/a	STRAWBERRY	Fruit	1	1	[0, 0, 0]	n/a	catFR1	6	R1626S
172.681	1.617	392822	WORD	n/a	wordpools/wordpool_categorized_EN.txt	ORANGE	Fruit	2	1	[0, 0, 0]	n/a	catFR1	6	R1626S
174.298	0.85	394434	WORD_OFF	n/a	n/a	ORANGE	Fruit	2	1	[0, 0, 0]	n/a	catFR1	6	R1626S
175.148	1.617	395283	WORD	n/a	wordpools/wordpool_categorized_EN.txt	BUTTERFLY	Insects	3	1	[0, 0, 0]	n/a	catFR1	6	R1626S
176.765	0.983	396904	WORD_OFF	n/a	n/a	BUTTERFLY	Insects	3	1	[0, 0, 0]	n/a	catFR1	6	R1626S
177.748	1.617	397887	WORD	n/a	wordpools/wordpool_categorized_EN.txt	LADYBUG	Insects	4	1	[0, 0, 0]	n/a	catFR1	6	R1626S
179.365	0.783	399499	WORD_OFF	n/a	n/a	LADYBUG	Insects	4	1	[0, 0, 0]	n/a	catFR1	6	R1626S
180.148	1.617	400281	WORD	n/a	wordpools/wordpool_categorized_EN.txt	PANDA	Zoo	5	1	[0, 0, 0]	n/a	catFR1	6	R1626S
181.765	0.815	401902	WORD_OFF	n/a	n/a	PANDA	Zoo	5	1	[0, 0, 0]	n/a	catFR1	6	R1626S
182.58	1.601	402713	WORD	n/a	wordpools/wordpool_categorized_EN.txt	GORILLA	Zoo	6	1	[0, 0, 0]	n/a	catFR1	6	R1626S
184.181	0.883	404316	WORD_OFF	n/a	n/a	GORILLA	Zoo	6	1	[0, 0, 0]	n/a	catFR1	6	R1626S
185.064	1.601	405203	WORD	n/a	wordpools/wordpool_categorized_EN.txt	APPLE	Fruit	7	1	[0, 0, 0]	n/a	catFR1	6	R1626S
186.665	0.882	406805	WORD_OFF	n/a	n/a	APPLE	Fruit	7	1	[0, 0, 0]	n/a	catFR1	6	R1626S
187.547	1.601	407683	WORD	n/a	wordpools/wordpool_categorized_EN.txt	PEACH	Fruit	8	1	[0, 0, 0]	n/a	catFR1	6	R1626S
189.148	0.9	409285	WORD_OFF	n/a	n/a	PEACH	Fruit	8	1	[0, 0, 0]	n/a	catFR1	6	R1626S
190.048	1.617	410182	WORD	n/a	wordpools/wordpool_categorized_EN.txt	CHEETAH	Zoo	9	1	[0, 0, 0]	n/a	catFR1	6	R1626S
191.665	0.833	411803	WORD_OFF	n/a	n/a	CHEETAH	Zoo	9	1	[0, 0, 0]	n/a	catFR1	6	R1626S
192.498	1.617	412633	WORD	n/a	wordpools/wordpool_categorized_EN.txt	ZEBRA	Zoo	10	1	[0, 0, 0]	n/a	catFR1	6	R1626S
194.115	0.999	414255	WORD_OFF	n/a	n/a	ZEBRA	Zoo	10	1	[0, 0, 0]	n/a	catFR1	6	R1626S
195.114	1.6	415247	WORD	n/a	wordpools/wordpool_categorized_EN.txt	MOTH	Insects	11	1	[0, 0, 0]	n/a	catFR1	6	R1626S
196.714	0.866	416849	WORD_OFF	n/a	n/a	MOTH	Insects	11	1	[0, 0, 0]	n/a	catFR1	6	R1626S
197.58	1.602	417717	WORD	n/a	wordpools/wordpool_categorized_EN.txt	GNAT	Insects	12	1	[0, 0, 0]	n/a	catFR1	6	R1626S
199.182	0.002	419315	PROB	10.134	n/a	n/a	n/a	-999	1	[8, 6, 8]	22.0	catFR1	6	R1626S
199.184	0.0	419317	START	n/a	n/a	n/a	n/a	-999	1	[-999, -999, -999]	n/a	catFR1	6	R1626S
199.181	0.003	419320	WORD_OFF	n/a	n/a	GNAT	Insects	12	1	[0, 0, 0]	n/a	catFR1	6	R1626S
199.184	0.0	419320	ENCODING_END	n/a	n/a	n/a	n/a	-999	1	[0, 0, 0]	n/a	catFR1	6	R1626S
199.184	10.146	419320	DISTRACT_START	n/a	n/a	n/a	n/a	-999	1	[0, 0, 0]	n/a	catFR1	6	R1626S
209.33	3.202	429463	PROB	3.183	n/a	n/a	n/a	-999	1	[1, 1, 1]	3.0	catFR1	6	R1626S
212.532	4.182	432665	PROB	4.166	n/a	n/a	n/a	-999	1	[2, 3, 7]	12.0	catFR1	6	R1626S
216.714	5.334	436846	PROB	5.317	n/a	n/a	n/a	-999	1	[6, 8, 4]	18.0	catFR1	6	R1626S
222.048	0.0	442180	STOP	n/a	n/a	n/a	n/a	-999	1	[-999, -999, -999]	n/a	catFR1	6	R1626S
222.048	2.033	442183	DISTRACT_END	n/a	n/a	n/a	n/a	-999	1	[0, 0, 0]	n/a	catFR1	6	R1626S
224.081	6.148	444215	REC_START	n/a	n/a	n/a	n/a	-999	1	[0, 0, 0]	n/a	catFR1	6	R1626S
230.229	6.049	450361	REC_WORD	6.148	n/a	MOTH	Insects	11	1	[0, 0, 0]	n/a	catFR1	6	R1626S
236.278	3.236	456410	REC_WORD	12.197	n/a	STRAWBERRY	Fruit	1	1	[0, 0, 0]	n/a	catFR1	6	R1626S
239.514	7.414	459645	REC_WORD	15.433	n/a	ORANGE	Fruit	2	1	[0, 0, 0]	n/a	catFR1	6	R1626S
246.928	7.354	467059	REC_WORD	22.847	n/a	BUTTERFLY	Insects	3	1	[0, 0, 0]	n/a	catFR1	6	R1626S
254.282	4.065	474414	REC_END	n/a	n/a	n/a	n/a	-999	1	[0, 0, 0]	n/a	catFR1	6	R1626S
258.347	10.351	478477	COUNTDOWN_START	n/a	n/a	n/a	n/a	-999	2	[0, 0, 0]	n/a	catFR1	6	R1626S
268.698	0.0	488826	COUNTDOWN_END	n/a	n/a	n/a	n/a	-999	2	[0, 0, 0]	n/a	catFR1	6	R1626S
268.698	2.016	488836	ENCODING_START	n/a	n/a	n/a	n/a	-999	2	[0, 0, 0]	n/a	catFR1	6	R1626S
270.714	1.6	490848	WORD	n/a	wordpools/wordpool_categorized_EN.txt	SPARROW	Birds	1	2	[0, 0, 0]	n/a	catFR1	6	R1626S
272.314	0.799	492451	WORD_OFF	n/a	n/a	SPARROW	Birds	1	2	[0, 0, 0]	n/a	catFR1	6	R1626S
273.113	1.602	493243	WORD	n/a	wordpools/wordpool_categorized_EN.txt	SEAGULL	Birds	2	2	[0, 0, 0]	n/a	catFR1	6	R1626S
274.715	0.882	494845	WORD_OFF	n/a	n/a	SEAGULL	Birds	2	2	[0, 0, 0]	n/a	catFR1	6	R1626S
275.597	1.601	495732	WORD	n/a	wordpools/wordpool_categorized_EN.txt	FINGERS	BodyParts	3	2	[0, 0, 0]	n/a	catFR1	6	R1626S
277.198	0.85	497335	WORD_OFF	n/a	n/a	FINGERS	BodyParts	3	2	[0, 0, 0]	n/a	catFR1	6	R1626S
278.048	1.614	498184	WORD	n/a	wordpools/wordpool_categorized_EN.txt	NOSE	BodyParts	4	2	[0, 0, 0]	n/a	catFR1	6	R1626S
279.662	0.985	499796	WORD_OFF	n/a	n/a	NOSE	BodyParts	4	2	[0, 0, 0]	n/a	catFR1	6	R1626S
280.647	1.617	500778	WORD	n/a	wordpools/wordpool_categorized_EN.txt	CEILING	Building	5	2	[0, 0, 0]	n/a	catFR1	6	R1626S
282.264	0.949	502400	WORD_OFF	n/a	n/a	CEILING	Building	5	2	[0, 0, 0]	n/a	catFR1	6	R1626S
283.213	1.601	503344	WORD	n/a	wordpools/wordpool_categorized_EN.txt	ATTIC	Building	6	2	[0, 0, 0]	n/a	catFR1	6	R1626S
284.814	0.95	504946	WORD_OFF	n/a	n/a	ATTIC	Building	6	2	[0, 0, 0]	n/a	catFR1	6	R1626S
285.764	1.6	505900	WORD	n/a	wordpools/wordpool_categorized_EN.txt	KNEE	BodyParts	7	2	[0, 0, 0]	n/a	catFR1	6	R1626S
287.364	1.0	507493	WORD_OFF	n/a	n/a	KNEE	BodyParts	7	2	[0, 0, 0]	n/a	catFR1	6	R1626S
288.364	1.617	508495	WORD	n/a	wordpools/wordpool_categorized_EN.txt	TOE	BodyParts	8	2	[0, 0, 0]	n/a	catFR1	6	R1626S
289.981	0.783	510116	WORD_OFF	n/a	n/a	TOE	BodyParts	8	2	[0, 0, 0]	n/a	catFR1	6	R1626S
290.764	1.617	510898	WORD	n/a	wordpools/wordpool_categorized_EN.txt	FINCH	Birds	9	2	[0, 0, 0]	n/a	catFR1	6	R1626S
292.381	0.899	512510	WORD_OFF	n/a	n/a	FINCH	Birds	9	2	[0, 0, 0]	n/a	catFR1	6	R1626S
293.28	1.601	513416	WORD	n/a	wordpools/wordpool_categorized_EN.txt	CROW	Birds	10	2	[0, 0, 0]	n/a	catFR1	6	R1626S
294.881	0.867	515009	WORD_OFF	n/a	n/a	CROW	Birds	10	2	[0, 0, 0]	n/a	catFR1	6	R1626S
295.748	1.616	515877	WORD	n/a	wordpools/wordpool_categorized_EN.txt	DOOR	Building	11	2	[0, 0, 0]	n/a	catFR1	6	R1626S
297.364	0.782	517499	WORD_OFF	n/a	n/a	DOOR	Building	11	2	[0, 0, 0]	n/a	catFR1	6	R1626S
298.146	1.601	518281	WORD	n/a	wordpools/wordpool_categorized_EN.txt	WINDOW	Building	12	2	[0, 0, 0]	n/a	catFR1	6	R1626S
299.747	0.0	519874	WORD_OFF	n/a	n/a	WINDOW	Building	12	2	[0, 0, 0]	n/a	catFR1	6	R1626S
299.747	0.001	519876	PROB	5.499	n/a	n/a	n/a	-999	2	[3, 8, 7]	18.0	catFR1	6	R1626S
299.748	0.0	519877	START	n/a	n/a	n/a	n/a	-999	2	[-999, -999, -999]	n/a	catFR1	6	R1626S
299.748	0.0	519884	ENCODING_END	n/a	n/a	n/a	n/a	-999	2	[0, 0, 0]	n/a	catFR1	6	R1626S
299.748	5.517	519884	DISTRACT_START	n/a	n/a	n/a	n/a	-999	2	[0, 0, 0]	n/a	catFR1	6	R1626S
305.265	18.782	525393	PROB	18.766	n/a	n/a	n/a	-999	2	[6, 8, 6]	20.0	catFR1	6	R1626S
324.047	0.0	544175	STOP	n/a	n/a	n/a	n/a	-999	2	[-999, -999, -999]	n/a	catFR1	6	R1626S
324.047	2.25	544178	DISTRACT_END	n/a	n/a	n/a	n/a	-999	2	[0, 0, 0]	n/a	catFR1	6	R1626S
326.297	0.984	546429	REC_START	n/a	n/a	n/a	n/a	-999	2	[0, 0, 0]	n/a	catFR1	6	R1626S
327.281	8.178	547408	REC_WORD_VV	0.984	n/a	<>	n/a	-999	2	[0, 0, 0]	n/a	catFR1	6	R1626S
335.459	8.328	555586	REC_WORD	9.162	n/a	SPARROW	Birds	1	2	[0, 0, 0]	n/a	catFR1	6	R1626S
343.787	12.708	563914	REC_WORD	17.49	n/a	CEILING	Building	5	2	[0, 0, 0]	n/a	catFR1	6	R1626S
356.495	5.103	576618	REC_END	n/a	n/a	n/a	n/a	-999	2	[0, 0, 0]	n/a	catFR1	6	R1626S
361.598	10.348	581731	COUNTDOWN_START	n/a	n/a	n/a	n/a	-999	3	[0, 0, 0]	n/a	catFR1	6	R1626S
371.946	0.0	592071	COUNTDOWN_END	n/a	n/a	n/a	n/a	-999	3	[0, 0, 0]	n/a	catFR1	6	R1626S
371.946	2.001	592080	ENCODING_START	n/a	n/a	n/a	n/a	-999	3	[0, 0, 0]	n/a	catFR1	6	R1626S
373.947	1.6	594074	WORD	n/a	wordpools/wordpool_categorized_EN.txt	FOREST	Landscapes	1	3	[0, 0, 0]	n/a	catFR1	6	R1626S
375.547	1.0	595676	WORD_OFF	n/a	n/a	FOREST	Landscapes	1	3	[0, 0, 0]	n/a	catFR1	6	R1626S
376.547	1.6	596678	WORD	n/a	wordpools/wordpool_categorized_EN.txt	LAKE	Landscapes	2	3	[0, 0, 0]	n/a	catFR1	6	R1626S
378.147	0.767	598271	WORD_OFF	n/a	n/a	LAKE	Landscapes	2	3	[0, 0, 0]	n/a	catFR1	6	R1626S
378.914	1.616	599043	WORD	n/a	wordpools/wordpool_categorized_EN.txt	ELM	Trees	3	3	[0, 0, 0]	n/a	catFR1	6	R1626S
380.53	0.784	600655	WORD_OFF	n/a	n/a	ELM	Trees	3	3	[0, 0, 0]	n/a	catFR1	6	R1626S
381.314	1.6	601437	WORD	n/a	wordpools/wordpool_categorized_EN.txt	PINE	Trees	4	3	[0, 0, 0]	n/a	catFR1	6	R1626S
382.914	1.0	603040	WORD_OFF	n/a	n/a	PINE	Trees	4	3	[0, 0, 0]	n/a	catFR1	6	R1626S
383.914	1.6	604041	WORD	n/a	wordpools/wordpool_categorized_EN.txt	FLEECE	Fabric	5	3	[0, 0, 0]	n/a	catFR1	6	R1626S
385.514	0.817	605644	WORD_OFF	n/a	n/a	FLEECE	Fabric	5	3	[0, 0, 0]	n/a	catFR1	6	R1626S
386.331	1.6	606455	WORD	n/a	wordpools/wordpool_categorized_EN.txt	SATIN	Fabric	6	3	[0, 0, 0]	n/a	catFR1	6	R1626S
387.931	0.95	608057	WORD_OFF	n/a	n/a	SATIN	Fabric	6	3	[0, 0, 0]	n/a	catFR1	6	R1626S
388.881	1.6	609011	WORD	n/a	wordpools/wordpool_categorized_EN.txt	CEDAR	Trees	7	3	[0, 0, 0]	n/a	catFR1	6	R1626S
390.481	0.966	610604	WORD_OFF	n/a	n/a	CEDAR	Trees	7	3	[0, 0, 0]	n/a	catFR1	6	R1626S
391.447	1.617	611577	WORD	n/a	wordpools/wordpool_categorized_EN.txt	BIRCH	Trees	8	3	[0, 0, 0]	n/a	catFR1	6	R1626S
393.064	1.0	613189	WORD_OFF	n/a	n/a	BIRCH	Trees	8	3	[0, 0, 0]	n/a	catFR1	6	R1626S
394.064	1.617	614190	WORD	n/a	wordpools/wordpool_categorized_EN.txt	STREAM	Landscapes	9	3	[0, 0, 0]	n/a	catFR1	6	R1626S
395.681	0.933	615802	WORD_OFF	n/a	n/a	STREAM	Landscapes	9	3	[0, 0, 0]	n/a	catFR1	6	R1626S
396.614	1.6	616737	WORD	n/a	wordpools/wordpool_categorized_EN.txt	RIVER	Landscapes	10	3	[0, 0, 0]	n/a	catFR1	6	R1626S
398.214	0.95	618339	WORD_OFF	n/a	n/a	RIVER	Landscapes	10	3	[0, 0, 0]	n/a	catFR1	6	R1626S
399.164	1.617	619293	WORD	n/a	wordpools/wordpool_categorized_EN.txt	SUEDE	Fabric	11	3	[0, 0, 0]	n/a	catFR1	6	R1626S
400.781	0.8	620905	WORD_OFF	n/a	n/a	SUEDE	Fabric	11	3	[0, 0, 0]	n/a	catFR1	6	R1626S
401.581	1.6	621707	WORD	n/a	wordpools/wordpool_categorized_EN.txt	NYLON	Fabric	12	3	[0, 0, 0]	n/a	catFR1	6	R1626S
403.181	0.001	623305	PROB	5.616	n/a	n/a	n/a	-999	3	[2, 2, 6]	10.0	catFR1	6	R1626S
403.182	0.0	623306	START	n/a	n/a	n/a	n/a	-999	3	[-999, -999, -999]	n/a	catFR1	6	R1626S
403.181	0.001	623309	WORD_OFF	n/a	n/a	NYLON	Fabric	12	3	[0, 0, 0]	n/a	catFR1	6	R1626S
403.182	0.0	623309	ENCODING_END	n/a	n/a	n/a	n/a	-999	3	[0, 0, 0]	n/a	catFR1	6	R1626S
403.182	5.633	623309	DISTRACT_START	n/a	n/a	n/a	n/a	-999	3	[0, 0, 0]	n/a	catFR1	6	R1626S
408.815	5.049	628939	PROB	5.032	n/a	n/a	n/a	-999	3	[2, 7, 2]	11.0	catFR1	6	R1626S
413.864	4.317	633987	PROB	4.3	n/a	n/a	n/a	-999	3	[4, 6, 7]	17.0	catFR1	6	R1626S
418.181	18.4	638304	PROB	18.383	n/a	n/a	n/a	-999	3	[4, 1, 8]	13.0	catFR1	6	R1626S
436.581	0.0	656703	DISTRACT_END	n/a	n/a	n/a	n/a	-999	3	[0, 0, 0]	n/a	catFR1	6	R1626S
436.581	2.066	656703	STOP	n/a	n/a	n/a	n/a	-999	3	[-999, -999, -999]	n/a	catFR1	6	R1626S
438.647	5.641	658773	REC_START	n/a	n/a	n/a	n/a	-999	3	[0, 0, 0]	n/a	catFR1	6	R1626S
444.288	2.685	664410	REC_WORD	5.641	n/a	LAKE	Landscapes	2	3	[0, 0, 0]	n/a	catFR1	6	R1626S
446.973	6.825	667095	REC_WORD	8.326	n/a	STREAM	Landscapes	9	3	[0, 0, 0]	n/a	catFR1	6	R1626S
453.798	3.174	673920	REC_WORD	15.151	n/a	PINE	Trees	4	3	[0, 0, 0]	n/a	catFR1	6	R1626S
456.972	10.05	677093	REC_WORD	18.325	n/a	BIRCH	Trees	8	3	[0, 0, 0]	n/a	catFR1	6	R1626S
467.022	1.84	687143	REC_WORD	28.375	n/a	CEDAR	Trees	7	3	[0, 0, 0]	n/a	catFR1	6	R1626S
468.862	2.251	688981	REC_END	n/a	n/a	n/a	n/a	-999	3	[0, 0, 0]	n/a	catFR1	6	R1626S
471.113	10.35	691242	COUNTDOWN_START	n/a	n/a	n/a	n/a	-999	4	[0, 0, 0]	n/a	catFR1	6	R1626S
481.463	0.0	701582	COUNTDOWN_END	n/a	n/a	n/a	n/a	-999	4	[0, 0, 0]	n/a	catFR1	6	R1626S
481.463	2.401	701591	ENCODING_START	n/a	n/a	n/a	n/a	-999	4	[0, 0, 0]	n/a	catFR1	6	R1626S
483.864	1.617	703985	WORD	n/a	wordpools/wordpool_categorized_EN.txt	BLENDER	Appliances	1	4	[0, 0, 0]	n/a	catFR1	6	R1626S
485.481	0.882	705607	WORD_OFF	n/a	n/a	BLENDER	Appliances	1	4	[0, 0, 0]	n/a	catFR1	6	R1626S
486.363	1.614	706484	WORD	n/a	wordpools/wordpool_categorized_EN.txt	TOASTER	Appliances	2	4	[0, 0, 0]	n/a	catFR1	6	R1626S
487.977	0.787	708096	WORD_OFF	n/a	n/a	TOASTER	Appliances	2	4	[0, 0, 0]	n/a	catFR1	6	R1626S
488.764	1.6	708888	WORD	n/a	wordpools/wordpool_categorized_EN.txt	GLUE	OfficeSupplies	3	4	[0, 0, 0]	n/a	catFR1	6	R1626S
490.364	0.882	710490	WORD_OFF	n/a	n/a	GLUE	OfficeSupplies	3	4	[0, 0, 0]	n/a	catFR1	6	R1626S
491.246	1.601	711368	WORD	n/a	wordpools/wordpool_categorized_EN.txt	RULER	OfficeSupplies	4	4	[0, 0, 0]	n/a	catFR1	6	R1626S
492.847	0.85	712970	WORD_OFF	n/a	n/a	RULER	OfficeSupplies	4	4	[0, 0, 0]	n/a	catFR1	6	R1626S
493.697	1.617	713819	WORD	n/a	wordpools/wordpool_categorized_EN.txt	MOPED	Vehicles	5	4	[0, 0, 0]	n/a	catFR1	6	R1626S
495.314	0.95	715431	WORD_OFF	n/a	n/a	MOPED	Vehicles	5	4	[0, 0, 0]	n/a	catFR1	6	R1626S
496.264	1.616	716385	WORD	n/a	wordpools/wordpool_categorized_EN.txt	CAR	Vehicles	6	4	[0, 0, 0]	n/a	catFR1	6	R1626S
497.88	0.917	717997	WORD_OFF	n/a	n/a	CAR	Vehicles	6	4	[0, 0, 0]	n/a	catFR1	6	R1626S
498.797	1.6	718922	WORD	n/a	wordpools/wordpool_categorized_EN.txt	MIXER	Appliances	7	4	[0, 0, 0]	n/a	catFR1	6	R1626S
500.397	0.867	720515	WORD_OFF	n/a	n/a	MIXER	Appliances	7	4	[0, 0, 0]	n/a	catFR1	6	R1626S
501.264	1.616	721383	WORD	n/a	wordpools/wordpool_categorized_EN.txt	DISHWASHER	Appliances	8	4	[0, 0, 0]	n/a	catFR1	6	R1626S
502.88	0.8	723005	WORD_OFF	n/a	n/a	DISHWASHER	Appliances	8	4	[0, 0, 0]	n/a	catFR1	6	R1626S
503.68	1.616	723806	WORD	n/a	wordpools/wordpool_categorized_EN.txt	BIKE	Vehicles	9	4	[0, 0, 0]	n/a	catFR1	6	R1626S
505.296	0.918	725418	WORD_OFF	n/a	n/a	BIKE	Vehicles	9	4	[0, 0, 0]	n/a	catFR1	6	R1626S
506.214	1.6	726334	WORD	n/a	wordpools/wordpool_categorized_EN.txt	JEEP	Vehicles	10	4	[0, 0, 0]	n/a	catFR1	6	R1626S
507.814	0.982	727936	WORD_OFF	n/a	n/a	JEEP	Vehicles	10	4	[0, 0, 0]	n/a	catFR1	6	R1626S
508.796	1.601	728919	WORD	n/a	wordpools/wordpool_categorized_EN.txt	PEN	OfficeSupplies	11	4	[0, 0, 0]	n/a	catFR1	6	R1626S
510.397	0.915	730521	WORD_OFF	n/a	n/a	PEN	OfficeSupplies	11	4	[0, 0, 0]	n/a	catFR1	6	R1626S
511.312	1.602	731437	WORD	n/a	wordpools/wordpool_categorized_EN.txt	PAPER	OfficeSupplies	12	4	[0, 0, 0]	n/a	catFR1	6	R1626S
512.914	0.001	733033	PROB	7.349	n/a	n/a	n/a	-999	4	[8, 5, 8]	21.0	catFR1	6	R1626S
512.915	0.0	733034	START	n/a	n/a	n/a	n/a	-999	4	[-999, -999, -999]	n/a	catFR1	6	R1626S
512.914	0.001	733039	WORD_OFF	n/a	n/a	PAPER	OfficeSupplies	12	4	[0, 0, 0]	n/a	catFR1	6	R1626S
512.915	0.0	733039	ENCODING_END	n/a	n/a	n/a	n/a	-999	4	[0, 0, 0]	n/a	catFR1	6	R1626S
512.915	7.365	733039	DISTRACT_START	n/a	n/a	n/a	n/a	-999	4	[0, 0, 0]	n/a	catFR1	6	R1626S
520.28	4.317	740398	PROB	4.3	n/a	n/a	n/a	-999	4	[7, 1, 5]	13.0	catFR1	6	R1626S
524.597	3.234	744715	PROB	3.216	n/a	n/a	n/a	-999	4	[1, 1, 1]	3.0	catFR1	6	R1626S
527.831	5.899	747949	PROB	5.883	n/a	n/a	n/a	-999	4	[7, 8, 8]	23.0	catFR1	6	R1626S
533.73	0.0	753848	STOP	n/a	n/a	n/a	n/a	-999	4	[-999, -999, -999]	n/a	catFR1	6	R1626S
533.73	2.367	753852	DISTRACT_END	n/a	n/a	n/a	n/a	-999	4	[0, 0, 0]	n/a	catFR1	6	R1626S
536.097	22.506	756218	REC_START	n/a	n/a	n/a	n/a	-999	4	[0, 0, 0]	n/a	catFR1	6	R1626S
558.603	7.704	778720	REC_WORD	22.506	n/a	MOPED	Vehicles	5	4	[0, 0, 0]	n/a	catFR1	6	R1626S
566.307	15.09	786426	REC_END	n/a	n/a	n/a	n/a	-999	4	[0, 0, 0]	n/a	catFR1	6	R1626S
581.397	10.35	801516	COUNTDOWN_START	n/a	n/a	n/a	n/a	-999	5	[0, 0, 0]	n/a	catFR1	6	R1626S
591.747	0.0	811865	COUNTDOWN_END	n/a	n/a	n/a	n/a	-999	5	[0, 0, 0]	n/a	catFR1	6	R1626S
591.747	2.149	811865	ENCODING_START	n/a	n/a	n/a	n/a	-999	5	[0, 0, 0]	n/a	catFR1	6	R1626S
593.896	1.601	814011	WORD	n/a	wordpools/wordpool_categorized_EN.txt	ELBOW	BodyParts	1	5	[0, 0, 0]	n/a	catFR1	6	R1626S
595.497	0.783	815614	WORD_OFF	n/a	n/a	ELBOW	BodyParts	1	5	[0, 0, 0]	n/a	catFR1	6	R1626S
596.28	1.6	816396	WORD	n/a	wordpools/wordpool_categorized_EN.txt	HAND	BodyParts	2	5	[0, 0, 0]	n/a	catFR1	6	R1626S
597.88	0.883	817998	WORD_OFF	n/a	n/a	HAND	BodyParts	2	5	[0, 0, 0]	n/a	catFR1	6	R1626S
598.763	1.617	818885	WORD	n/a	wordpools/wordpool_categorized_EN.txt	GOAT	FarmAnimals	3	5	[0, 0, 0]	n/a	catFR1	6	R1626S
600.38	0.85	820497	WORD_OFF	n/a	n/a	GOAT	FarmAnimals	3	5	[0, 0, 0]	n/a	catFR1	6	R1626S
601.23	1.616	821346	WORD	n/a	wordpools/wordpool_categorized_EN.txt	TURKEY	FarmAnimals	4	5	[0, 0, 0]	n/a	catFR1	6	R1626S
602.846	0.8	822958	WORD_OFF	n/a	n/a	TURKEY	FarmAnimals	4	5	[0, 0, 0]	n/a	catFR1	6	R1626S
603.646	1.6	823760	WORD	n/a	wordpools/wordpool_categorized_EN.txt	LETTUCE	Vegetables	5	5	[0, 0, 0]	n/a	catFR1	6	R1626S
605.246	0.783	825362	WORD_OFF	n/a	n/a	LETTUCE	Vegetables	5	5	[0, 0, 0]	n/a	catFR1	6	R1626S
606.029	1.615	826144	WORD	n/a	wordpools/wordpool_categorized_EN.txt	PEAS	Vegetables	6	5	[0, 0, 0]	n/a	catFR1	6	R1626S
607.644	0.769	827756	WORD_OFF	n/a	n/a	PEAS	Vegetables	6	5	[0, 0, 0]	n/a	catFR1	6	R1626S
608.413	1.617	828529	WORD	n/a	wordpools/wordpool_categorized_EN.txt	CHICKEN	FarmAnimals	7	5	[0, 0, 0]	n/a	catFR1	6	R1626S
610.03	0.816	830150	WORD_OFF	n/a	n/a	CHICKEN	FarmAnimals	7	5	[0, 0, 0]	n/a	catFR1	6	R1626S
610.846	1.601	830961	WORD	n/a	wordpools/wordpool_categorized_EN.txt	PIG	FarmAnimals	8	5	[0, 0, 0]	n/a	catFR1	6	R1626S
612.447	0.767	832564	WORD_OFF	n/a	n/a	PIG	FarmAnimals	8	5	[0, 0, 0]	n/a	catFR1	6	R1626S
613.214	1.6	833327	WORD	n/a	wordpools/wordpool_categorized_EN.txt	ONION	Vegetables	9	5	[0, 0, 0]	n/a	catFR1	6	R1626S
614.814	0.815	834929	WORD_OFF	n/a	n/a	ONION	Vegetables	9	5	[0, 0, 0]	n/a	catFR1	6	R1626S
615.629	1.601	835749	WORD	n/a	wordpools/wordpool_categorized_EN.txt	BROCCOLI	Vegetables	10	5	[0, 0, 0]	n/a	catFR1	6	R1626S
617.23	0.917	837342	WORD_OFF	n/a	n/a	BROCCOLI	Vegetables	10	5	[0, 0, 0]	n/a	catFR1	6	R1626S
618.147	1.6	838268	WORD	n/a	wordpools/wordpool_categorized_EN.txt	EAR	BodyParts	11	5	[0, 0, 0]	n/a	catFR1	6	R1626S
619.747	0.916	839861	WORD_OFF	n/a	n/a	EAR	BodyParts	11	5	[0, 0, 0]	n/a	catFR1	6	R1626S
620.663	1.6	840776	WORD	n/a	wordpools/wordpool_categorized_EN.txt	FOOT	BodyParts	12	5	[0, 0, 0]	n/a	catFR1	6	R1626S
622.263	0.004	842379	WORD_OFF	n/a	n/a	FOOT	BodyParts	12	5	[0, 0, 0]	n/a	catFR1	6	R1626S
622.267	0.0	842379	ENCODING_END	n/a	n/a	n/a	n/a	-999	5	[0, 0, 0]	n/a	catFR1	6	R1626S
622.266	0.001	842380	PROB	5.816	n/a	n/a	n/a	-999	5	[4, 5, 7]	16.0	catFR1	6	R1626S
622.267	0.0	842381	START	n/a	n/a	n/a	n/a	-999	5	[-999, -999, -999]	n/a	catFR1	6	R1626S
622.267	5.83	842388	DISTRACT_START	n/a	n/a	n/a	n/a	-999	5	[0, 0, 0]	n/a	catFR1	6	R1626S
628.097	3.917	848210	PROB	3.9	n/a	n/a	n/a	-999	5	[8, 2, 2]	12.0	catFR1	6	R1626S
632.014	7.483	852127	PROB	7.465	n/a	n/a	n/a	-999	5	[8, 3, 6]	17.0	catFR1	6	R1626S
639.497	5.85	859610	PROB	5.832	n/a	n/a	n/a	-999	5	[3, 4, 5]	12.0	catFR1	6	R1626S
645.347	0.0	865460	STOP	n/a	n/a	n/a	n/a	-999	5	[-999, -999, -999]	n/a	catFR1	6	R1626S
645.347	2.183	865462	DISTRACT_END	n/a	n/a	n/a	n/a	-999	5	[0, 0, 0]	n/a	catFR1	6	R1626S
647.53	13.457	867646	REC_START	n/a	n/a	n/a	n/a	-999	5	[0, 0, 0]	n/a	catFR1	6	R1626S
660.987	1.945	881099	REC_WORD	13.457	n/a	ONION	Vegetables	9	5	[0, 0, 0]	n/a	catFR1	6	R1626S
662.932	14.114	883044	REC_WORD	15.402	n/a	LETTUCE	Vegetables	5	5	[0, 0, 0]	n/a	catFR1	6	R1626S
677.046	0.681	897157	REC_WORD_VV	29.516	n/a	<>	n/a	-999	5	[0, 0, 0]	n/a	catFR1	6	R1626S
677.727	1.769	897845	REC_END	n/a	n/a	n/a	n/a	-999	5	[0, 0, 0]	n/a	catFR1	6	R1626S
679.496	10.35	899609	COUNTDOWN_START	n/a	n/a	n/a	n/a	-999	6	[0, 0, 0]	n/a	catFR1	6	R1626S
689.846	0.0	909959	COUNTDOWN_END	n/a	n/a	n/a	n/a	-999	6	[0, 0, 0]	n/a	catFR1	6	R1626S
689.846	2.233	909959	ENCODING_START	n/a	n/a	n/a	n/a	-999	6	[0, 0, 0]	n/a	catFR1	6	R1626S
692.079	1.6	912191	WORD	n/a	wordpools/wordpool_categorized_EN.txt	SPINACH	Vegetables	1	6	[0, 0, 0]	n/a	catFR1	6	R1626S
693.679	0.951	913793	WORD_OFF	n/a	n/a	SPINACH	Vegetables	1	6	[0, 0, 0]	n/a	catFR1	6	R1626S
694.63	1.616	914737	WORD	n/a	wordpools/wordpool_categorized_EN.txt	CAULIFLOWER	Vegetables	2	6	[0, 0, 0]	n/a	catFR1	6	R1626S
696.246	0.767	916359	WORD_OFF	n/a	n/a	CAULIFLOWER	Vegetables	2	6	[0, 0, 0]	n/a	catFR1	6	R1626S
697.013	1.6	917122	WORD	n/a	wordpools/wordpool_categorized_EN.txt	HALLWAY	Building	3	6	[0, 0, 0]	n/a	catFR1	6	R1626S
698.613	0.866	918724	WORD_OFF	n/a	n/a	HALLWAY	Building	3	6	[0, 0, 0]	n/a	catFR1	6	R1626S
699.479	1.6	919592	WORD	n/a	wordpools/wordpool_categorized_EN.txt	ROOF	Building	4	6	[0, 0, 0]	n/a	catFR1	6	R1626S
701.079	0.901	921195	WORD_OFF	n/a	n/a	ROOF	Building	4	6	[0, 0, 0]	n/a	catFR1	6	R1626S
701.98	1.6	922092	WORD	n/a	wordpools/wordpool_categorized_EN.txt	OAK	Trees	5	6	[0, 0, 0]	n/a	catFR1	6	R1626S
703.58	0.982	923694	WORD_OFF	n/a	n/a	OAK	Trees	5	6	[0, 0, 0]	n/a	catFR1	6	R1626S
704.562	1.601	924676	WORD	n/a	wordpools/wordpool_categorized_EN.txt	WILLOW	Trees	6	6	[0, 0, 0]	n/a	catFR1	6	R1626S
706.163	0.984	926279	WORD_OFF	n/a	n/a	WILLOW	Trees	6	6	[0, 0, 0]	n/a	catFR1	6	R1626S
707.147	1.616	927261	WORD	n/a	wordpools/wordpool_categorized_EN.txt	STAIRS	Building	7	6	[0, 0, 0]	n/a	catFR1	6	R1626S
708.763	0.816	928873	WORD_OFF	n/a	n/a	STAIRS	Building	7	6	[0, 0, 0]	n/a	catFR1	6	R1626S
709.579	1.601	929694	WORD	n/a	wordpools/wordpool_categorized_EN.txt	WALL	Building	8	6	[0, 0, 0]	n/a	catFR1	6	R1626S
711.18	0.967	931296	WORD_OFF	n/a	n/a	WALL	Building	8	6	[0, 0, 0]	n/a	catFR1	6	R1626S
712.147	1.616	932260	WORD	n/a	wordpools/wordpool_categorized_EN.txt	WALNUT	Trees	9	6	[0, 0, 0]	n/a	catFR1	6	R1626S
713.763	1.0	933872	WORD_OFF	n/a	n/a	WALNUT	Trees	9	6	[0, 0, 0]	n/a	catFR1	6	R1626S
714.763	1.617	934873	WORD	n/a	wordpools/wordpool_categorized_EN.txt	EVERGREEN	Trees	10	6	[0, 0, 0]	n/a	catFR1	6	R1626S
716.38	0.8	936495	WORD_OFF	n/a	n/a	EVERGREEN	Trees	10	6	[0, 0, 0]	n/a	catFR1	6	R1626S
717.18	1.6	937296	WORD	n/a	wordpools/wordpool_categorized_EN.txt	CUCUMBER	Vegetables	11	6	[0, 0, 0]	n/a	catFR1	6	R1626S
718.78	1.0	938889	WORD_OFF	n/a	n/a	CUCUMBER	Vegetables	11	6	[0, 0, 0]	n/a	catFR1	6	R1626S
719.78	1.616	939890	WORD	n/a	wordpools/wordpool_categorized_EN.txt	CARROT	Vegetables	12	6	[0, 0, 0]	n/a	catFR1	6	R1626S
721.396	0.0	941502	WORD_OFF	n/a	n/a	CARROT	Vegetables	12	6	[0, 0, 0]	n/a	catFR1	6	R1626S
721.396	0.001	941505	PROB	4.917	n/a	n/a	n/a	-999	6	[2, 8, 5]	15.0	catFR1	6	R1626S
721.397	0.0	941506	START	n/a	n/a	n/a	n/a	-999	6	[-999, -999, -999]	n/a	catFR1	6	R1626S
721.397	0.0	941512	ENCODING_END	n/a	n/a	n/a	n/a	-999	6	[0, 0, 0]	n/a	catFR1	6	R1626S
721.397	4.932	941512	DISTRACT_START	n/a	n/a	n/a	n/a	-999	6	[0, 0, 0]	n/a	catFR1	6	R1626S
726.329	7.884	946438	PROB	7.866	n/a	n/a	n/a	-999	6	[4, 4, 5]	13.0	catFR1	6	R1626S
734.213	6.033	954322	PROB	6.016	n/a	n/a	n/a	-999	6	[2, 5, 3]	10.0	catFR1	6	R1626S
740.246	5.916	960354	PROB	5.9	n/a	n/a	n/a	-999	6	[8, 8, 5]	21.0	catFR1	6	R1626S
746.162	0.0	966270	STOP	n/a	n/a	n/a	n/a	-999	6	[-999, -999, -999]	n/a	catFR1	6	R1626S
746.162	2.217	966274	DISTRACT_END	n/a	n/a	n/a	n/a	-999	6	[0, 0, 0]	n/a	catFR1	6	R1626S
748.379	28.999	968487	REC_START	n/a	n/a	n/a	n/a	-999	6	[0, 0, 0]	n/a	catFR1	6	R1626S
777.378	1.177	997485	REC_WORD_VV	28.999	n/a	<>	n/a	-999	6	[0, 0, 0]	n/a	catFR1	6	R1626S
778.555	14.508	998666	REC_END	n/a	n/a	n/a	n/a	-999	6	[0, 0, 0]	n/a	catFR1	6	R1626S
793.063	10.349	1013174	COUNTDOWN_START	n/a	n/a	n/a	n/a	-999	7	[0, 0, 0]	n/a	catFR1	6	R1626S
803.412	0.0	1023523	COUNTDOWN_END	n/a	n/a	n/a	n/a	-999	7	[0, 0, 0]	n/a	catFR1	6	R1626S
803.412	2.084	1023523	ENCODING_START	n/a	n/a	n/a	n/a	-999	7	[0, 0, 0]	n/a	catFR1	6	R1626S
805.496	1.617	1025603	WORD	n/a	wordpools/wordpool_categorized_EN.txt	SPRUCE	Trees	1	7	[0, 0, 0]	n/a	catFR1	6	R1626S
807.113	0.849	1027224	WORD_OFF	n/a	n/a	SPRUCE	Trees	1	7	[0, 0, 0]	n/a	catFR1	6	R1626S
807.962	1.618	1028073	WORD	n/a	wordpools/wordpool_categorized_EN.txt	CYPRESS	Trees	2	7	[0, 0, 0]	n/a	catFR1	6	R1626S
809.58	0.916	1029685	WORD_OFF	n/a	n/a	CYPRESS	Trees	2	7	[0, 0, 0]	n/a	catFR1	6	R1626S
810.496	1.617	1030601	WORD	n/a	wordpools/wordpool_categorized_EN.txt	THUNDER	Weather	3	7	[0, 0, 0]	n/a	catFR1	6	R1626S
812.113	1.0	1032223	WORD_OFF	n/a	n/a	THUNDER	Weather	3	7	[0, 0, 0]	n/a	catFR1	6	R1626S
813.113	1.616	1033224	WORD	n/a	wordpools/wordpool_categorized_EN.txt	WIND	Weather	4	7	[0, 0, 0]	n/a	catFR1	6	R1626S
814.729	0.95	1034836	WORD_OFF	n/a	n/a	WIND	Weather	4	7	[0, 0, 0]	n/a	catFR1	6	R1626S
815.679	1.601	1035790	WORD	n/a	wordpools/wordpool_categorized_EN.txt	PUDDING	Desserts	5	7	[0, 0, 0]	n/a	catFR1	6	R1626S
817.28	1.0	1037383	WORD_OFF	n/a	n/a	PUDDING	Desserts	5	7	[0, 0, 0]	n/a	catFR1	6	R1626S
818.28	1.6	1038384	WORD	n/a	wordpools/wordpool_categorized_EN.txt	BROWNIES	Desserts	6	7	[0, 0, 0]	n/a	catFR1	6	R1626S
819.88	0.832	1039987	WORD_OFF	n/a	n/a	BROWNIES	Desserts	6	7	[0, 0, 0]	n/a	catFR1	6	R1626S
820.712	1.6	1040817	WORD	n/a	wordpools/wordpool_categorized_EN.txt	HICKORY	Trees	7	7	[0, 0, 0]	n/a	catFR1	6	R1626S
822.312	0.851	1042419	WORD_OFF	n/a	n/a	HICKORY	Trees	7	7	[0, 0, 0]	n/a	catFR1	6	R1626S
823.163	1.6	1043268	WORD	n/a	wordpools/wordpool_categorized_EN.txt	MAPLE	Trees	8	7	[0, 0, 0]	n/a	catFR1	6	R1626S
824.763	0.882	1044871	WORD_OFF	n/a	n/a	MAPLE	Trees	8	7	[0, 0, 0]	n/a	catFR1	6	R1626S
825.645	1.601	1045748	WORD	n/a	wordpools/wordpool_categorized_EN.txt	FUDGE	Desserts	9	7	[0, 0, 0]	n/a	catFR1	6	R1626S
827.246	0.95	1047351	WORD_OFF	n/a	n/a	FUDGE	Desserts	9	7	[0, 0, 0]	n/a	catFR1	6	R1626S
828.196	1.6	1048304	WORD	n/a	wordpools/wordpool_categorized_EN.txt	COOKIE	Desserts	10	7	[0, 0, 0]	n/a	catFR1	6	R1626S
829.796	0.917	1049907	WORD_OFF	n/a	n/a	COOKIE	Desserts	10	7	[0, 0, 0]	n/a	catFR1	6	R1626S
830.713	1.6	1050823	WORD	n/a	wordpools/wordpool_categorized_EN.txt	FOG	Weather	11	7	[0, 0, 0]	n/a	catFR1	6	R1626S
832.313	0.833	1052415	WORD_OFF	n/a	n/a	FOG	Weather	11	7	[0, 0, 0]	n/a	catFR1	6	R1626S
833.146	1.601	1053255	WORD	n/a	wordpools/wordpool_categorized_EN.txt	CLOUD	Weather	12	7	[0, 0, 0]	n/a	catFR1	6	R1626S
834.747	0.001	1054851	PROB	4.932	n/a	n/a	n/a	-999	7	[8, 1, 8]	17.0	catFR1	6	R1626S
834.748	0.0	1054852	START	n/a	n/a	n/a	n/a	-999	7	[-999, -999, -999]	n/a	catFR1	6	R1626S
834.746	0.002	1054857	WORD_OFF	n/a	n/a	CLOUD	Weather	12	7	[0, 0, 0]	n/a	catFR1	6	R1626S
834.748	0.0	1054857	ENCODING_END	n/a	n/a	n/a	n/a	-999	7	[0, 0, 0]	n/a	catFR1	6	R1626S
834.748	4.949	1054857	DISTRACT_START	n/a	n/a	n/a	n/a	-999	7	[0, 0, 0]	n/a	catFR1	6	R1626S
839.697	2.749	1059801	PROB	2.733	n/a	n/a	n/a	-999	7	[2, 2, 5]	9.0	catFR1	6	R1626S
842.446	4.35	1062550	PROB	4.333	n/a	n/a	n/a	-999	7	[7, 1, 7]	15.0	catFR1	6	R1626S
846.796	4.051	1066899	PROB	4.033	n/a	n/a	n/a	-999	7	[3, 3, 8]	14.0	catFR1	6	R1626S
850.847	4.682	1070950	PROB	4.666	n/a	n/a	n/a	-999	7	[6, 6, 2]	14.0	catFR1	6	R1626S
855.529	0.0	1075632	DISTRACT_END	n/a	n/a	n/a	n/a	-999	7	[0, 0, 0]	n/a	catFR1	6	R1626S
855.529	2.084	1075632	STOP	n/a	n/a	n/a	n/a	-999	7	[-999, -999, -999]	n/a	catFR1	6	R1626S
857.613	3.643	1077721	REC_START	n/a	n/a	n/a	n/a	-999	7	[0, 0, 0]	n/a	catFR1	6	R1626S
861.256	3.09	1081359	REC_WORD_VV	3.643	n/a	<>	n/a	-999	7	[0, 0, 0]	n/a	catFR1	6	R1626S
864.346	4.619	1084449	REC_WORD	6.733	n/a	FUDGE	Desserts	9	7	[0, 0, 0]	n/a	catFR1	6	R1626S
868.965	14.283	1089067	REC_WORD	11.352	n/a	BROWNIES	Desserts	6	7	[0, 0, 0]	n/a	catFR1	6	R1626S
883.248	4.554	1103350	REC_WORD_VV	25.635	n/a	<>	n/a	-999	7	[0, 0, 0]	n/a	catFR1	6	R1626S
887.802	10.644	1107910	REC_END	n/a	n/a	n/a	n/a	-999	7	[0, 0, 0]	n/a	catFR1	6	R1626S
898.446	10.35	1118555	COUNTDOWN_START	n/a	n/a	n/a	n/a	-999	8	[0, 0, 0]	n/a	catFR1	6	R1626S
908.796	0.0	1128895	COUNTDOWN_END	n/a	n/a	n/a	n/a	-999	8	[0, 0, 0]	n/a	catFR1	6	R1626S
908.796	2.033	1128904	ENCODING_START	n/a	n/a	n/a	n/a	-999	8	[0, 0, 0]	n/a	catFR1	6	R1626S
910.829	1.617	1130936	WORD	n/a	wordpools/wordpool_categorized_EN.txt	TUBA	Instruments	1	8	[0, 0, 0]	n/a	catFR1	6	R1626S
912.446	0.967	1132548	WORD_OFF	n/a	n/a	TUBA	Instruments	1	8	[0, 0, 0]	n/a	catFR1	6	R1626S
913.413	1.6	1133511	WORD	n/a	wordpools/wordpool_categorized_EN.txt	BASS	Instruments	2	8	[0, 0, 0]	n/a	catFR1	6	R1626S
915.013	0.966	1135114	WORD_OFF	n/a	n/a	BASS	Instruments	2	8	[0, 0, 0]	n/a	catFR1	6	R1626S
915.979	1.6	1136077	WORD	n/a	wordpools/wordpool_categorized_EN.txt	POTATO	Vegetables	3	8	[0, 0, 0]	n/a	catFR1	6	R1626S
917.579	0.834	1137680	WORD_OFF	n/a	n/a	POTATO	Vegetables	3	8	[0, 0, 0]	n/a	catFR1	6	R1626S
918.413	1.6	1138519	WORD	n/a	wordpools/wordpool_categorized_EN.txt	CORN	Vegetables	4	8	[0, 0, 0]	n/a	catFR1	6	R1626S
920.013	1.0	1140112	WORD_OFF	n/a	n/a	CORN	Vegetables	4	8	[0, 0, 0]	n/a	catFR1	6	R1626S
921.013	1.6	1141114	WORD	n/a	wordpools/wordpool_categorized_EN.txt	STAPLER	OfficeSupplies	5	8	[0, 0, 0]	n/a	catFR1	6	R1626S
922.613	0.766	1142716	WORD_OFF	n/a	n/a	STAPLER	OfficeSupplies	5	8	[0, 0, 0]	n/a	catFR1	6	R1626S
923.379	1.6	1143479	WORD	n/a	wordpools/wordpool_categorized_EN.txt	TAPE	OfficeSupplies	6	8	[0, 0, 0]	n/a	catFR1	6	R1626S
924.979	0.867	1145082	WORD_OFF	n/a	n/a	TAPE	OfficeSupplies	6	8	[0, 0, 0]	n/a	catFR1	6	R1626S
925.846	1.616	1145950	WORD	n/a	wordpools/wordpool_categorized_EN.txt	CABBAGE	Vegetables	7	8	[0, 0, 0]	n/a	catFR1	6	R1626S
927.462	0.833	1147562	WORD_OFF	n/a	n/a	CABBAGE	Vegetables	7	8	[0, 0, 0]	n/a	catFR1	6	R1626S
928.295	1.618	1148401	WORD	n/a	wordpools/wordpool_categorized_EN.txt	CELERY	Vegetables	8	8	[0, 0, 0]	n/a	catFR1	6	R1626S
929.913	0.833	1150013	WORD_OFF	n/a	n/a	CELERY	Vegetables	8	8	[0, 0, 0]	n/a	catFR1	6	R1626S
930.746	1.617	1150852	WORD	n/a	wordpools/wordpool_categorized_EN.txt	MARKER	OfficeSupplies	9	8	[0, 0, 0]	n/a	catFR1	6	R1626S
932.363	0.966	1152464	WORD_OFF	n/a	n/a	MARKER	OfficeSupplies	9	8	[0, 0, 0]	n/a	catFR1	6	R1626S
933.329	1.617	1153428	WORD	n/a	wordpools/wordpool_categorized_EN.txt	ERASER	OfficeSupplies	10	8	[0, 0, 0]	n/a	catFR1	6	R1626S
934.946	0.767	1155049	WORD_OFF	n/a	n/a	ERASER	OfficeSupplies	10	8	[0, 0, 0]	n/a	catFR1	6	R1626S
935.713	1.599	1155812	WORD	n/a	wordpools/wordpool_categorized_EN.txt	CELLO	Instruments	11	8	[0, 0, 0]	n/a	catFR1	6	R1626S
937.312	0.983	1157415	WORD_OFF	n/a	n/a	CELLO	Instruments	11	8	[0, 0, 0]	n/a	catFR1	6	R1626S
938.295	1.618	1158397	WORD	n/a	wordpools/wordpool_categorized_EN.txt	TROMBONE	Instruments	12	8	[0, 0, 0]	n/a	catFR1	6	R1626S
939.913	0.0	1160009	WORD_OFF	n/a	n/a	TROMBONE	Instruments	12	8	[0, 0, 0]	n/a	catFR1	6	R1626S
939.913	0.001	1160012	PROB	3.716	n/a	n/a	n/a	-999	8	[2, 1, 2]	5.0	catFR1	6	R1626S
939.914	0.0	1160013	START	n/a	n/a	n/a	n/a	-999	8	[-999, -999, -999]	n/a	catFR1	6	R1626S
939.914	0.0	1160019	ENCODING_END	n/a	n/a	n/a	n/a	-999	8	[0, 0, 0]	n/a	catFR1	6	R1626S
939.914	3.732	1160019	DISTRACT_START	n/a	n/a	n/a	n/a	-999	8	[0, 0, 0]	n/a	catFR1	6	R1626S
943.646	4.6	1163745	PROB	4.583	n/a	n/a	n/a	-999	8	[8, 8, 7]	23.0	catFR1	6	R1626S
948.246	3.933	1168345	PROB	3.916	n/a	n/a	n/a	-999	8	[5, 3, 4]	12.0	catFR1	6	R1626S
952.179	7.816	1172278	PROB	7.799	n/a	n/a	n/a	-999	8	[1, 5, 8]	14.0	catFR1	6	R1626S
959.995	0.0	1180093	STOP	n/a	n/a	n/a	n/a	-999	8	[-999, -999, -999]	n/a	catFR1	6	R1626S
959.995	2.351	1180097	DISTRACT_END	n/a	n/a	n/a	n/a	-999	8	[0, 0, 0]	n/a	catFR1	6	R1626S
962.346	3.663	1182444	REC_START	n/a	n/a	n/a	n/a	-999	8	[0, 0, 0]	n/a	catFR1	6	R1626S
966.009	3.93	1186107	REC_WORD	3.663	n/a	CELERY	Vegetables	8	8	[0, 0, 0]	n/a	catFR1	6	R1626S
969.939	4.295	1190037	REC_WORD	7.593	n/a	TROMBONE	Instruments	12	8	[0, 0, 0]	n/a	catFR1	6	R1626S
974.234	18.301	1194332	REC_WORD	11.888	n/a	TUBA	Instruments	1	8	[0, 0, 0]	n/a	catFR1	6	R1626S
992.535	2.294	1212633	REC_END	n/a	n/a	n/a	n/a	-999	8	[0, 0, 0]	n/a	catFR1	6	R1626S
994.829	10.35	1214932	COUNTDOWN_START	n/a	n/a	n/a	n/a	-999	9	[0, 0, 0]	n/a	catFR1	6	R1626S
1005.179	0.0	1225281	COUNTDOWN_END	n/a	n/a	n/a	n/a	-999	9	[0, 0, 0]	n/a	catFR1	6	R1626S
1005.179	2.05	1225281	ENCODING_START	n/a	n/a	n/a	n/a	-999	9	[0, 0, 0]	n/a	catFR1	6	R1626S
1007.229	1.617	1227332	WORD	n/a	wordpools/wordpool_categorized_EN.txt	HURRICANE	Weather	1	9	[0, 0, 0]	n/a	catFR1	6	R1626S
1008.846	0.766	1228944	WORD_OFF	n/a	n/a	HURRICANE	Weather	1	9	[0, 0, 0]	n/a	catFR1	6	R1626S
1009.612	1.616	1229707	WORD	n/a	wordpools/wordpool_categorized_EN.txt	HUMIDITY	Weather	2	9	[0, 0, 0]	n/a	catFR1	6	R1626S
1011.228	0.984	1231328	WORD_OFF	n/a	n/a	HUMIDITY	Weather	2	9	[0, 0, 0]	n/a	catFR1	6	R1626S
1012.212	1.601	1232311	WORD	n/a	wordpools/wordpool_categorized_EN.txt	SHOVEL	Tools	3	9	[0, 0, 0]	n/a	catFR1	6	R1626S
1013.813	0.849	1233913	WORD_OFF	n/a	n/a	SHOVEL	Tools	3	9	[0, 0, 0]	n/a	catFR1	6	R1626S
1014.662	1.617	1234762	WORD	n/a	wordpools/wordpool_categorized_EN.txt	HAMMER	Tools	4	9	[0, 0, 0]	n/a	catFR1	6	R1626S
1016.279	0.799	1236374	WORD_OFF	n/a	n/a	HAMMER	Tools	4	9	[0, 0, 0]	n/a	catFR1	6	R1626S
1017.078	1.601	1237175	WORD	n/a	wordpools/wordpool_categorized_EN.txt	BANJO	Instruments	5	9	[0, 0, 0]	n/a	catFR1	6	R1626S
1018.679	0.85	1238778	WORD_OFF	n/a	n/a	BANJO	Instruments	5	9	[0, 0, 0]	n/a	catFR1	6	R1626S
1019.529	1.6	1239627	WORD	n/a	wordpools/wordpool_categorized_EN.txt	GUITAR	Instruments	6	9	[0, 0, 0]	n/a	catFR1	6	R1626S
1021.129	0.999	1241229	WORD_OFF	n/a	n/a	GUITAR	Instruments	6	9	[0, 0, 0]	n/a	catFR1	6	R1626S
1022.128	1.601	1242221	WORD	n/a	wordpools/wordpool_categorized_EN.txt	RAIN	Weather	7	9	[0, 0, 0]	n/a	catFR1	6	R1626S
1023.729	0.883	1243824	WORD_OFF	n/a	n/a	RAIN	Weather	7	9	[0, 0, 0]	n/a	catFR1	6	R1626S
1024.612	1.6	1244711	WORD	n/a	wordpools/wordpool_categorized_EN.txt	TORNADO	Weather	8	9	[0, 0, 0]	n/a	catFR1	6	R1626S
1026.212	0.884	1246313	WORD_OFF	n/a	n/a	TORNADO	Weather	8	9	[0, 0, 0]	n/a	catFR1	6	R1626S
1027.096	1.616	1247191	WORD	n/a	wordpools/wordpool_categorized_EN.txt	PLIERS	Tools	9	9	[0, 0, 0]	n/a	catFR1	6	R1626S
1028.712	0.917	1248812	WORD_OFF	n/a	n/a	PLIERS	Tools	9	9	[0, 0, 0]	n/a	catFR1	6	R1626S
1029.629	1.6	1249728	WORD	n/a	wordpools/wordpool_categorized_EN.txt	SCREWDRIVER	Tools	10	9	[0, 0, 0]	n/a	catFR1	6	R1626S
1031.229	1.0	1251330	WORD_OFF	n/a	n/a	SCREWDRIVER	Tools	10	9	[0, 0, 0]	n/a	catFR1	6	R1626S
1032.229	1.616	1252322	WORD	n/a	wordpools/wordpool_categorized_EN.txt	DRUM	Instruments	11	9	[0, 0, 0]	n/a	catFR1	6	R1626S
1033.845	0.834	1253944	WORD_OFF	n/a	n/a	DRUM	Instruments	11	9	[0, 0, 0]	n/a	catFR1	6	R1626S
1034.679	1.599	1254774	WORD	n/a	wordpools/wordpool_categorized_EN.txt	FLUTE	Instruments	12	9	[0, 0, 0]	n/a	catFR1	6	R1626S
1036.278	0.002	1256373	PROB	4.999	n/a	n/a	n/a	-999	9	[8, 2, 6]	16.0	catFR1	6	R1626S
1036.28	0.0	1256375	START	n/a	n/a	n/a	n/a	-999	9	[-999, -999, -999]	n/a	catFR1	6	R1626S
1036.279	0.001	1256376	WORD_OFF	n/a	n/a	FLUTE	Instruments	12	9	[0, 0, 0]	n/a	catFR1	6	R1626S
1036.28	0.0	1256376	ENCODING_END	n/a	n/a	n/a	n/a	-999	9	[0, 0, 0]	n/a	catFR1	6	R1626S
1036.28	5.015	1256376	DISTRACT_START	n/a	n/a	n/a	n/a	-999	9	[0, 0, 0]	n/a	catFR1	6	R1626S
1041.295	5.334	1261389	PROB	5.317	n/a	n/a	n/a	-999	9	[6, 7, 2]	15.0	catFR1	6	R1626S
1046.629	8.1	1266723	PROB	8.083	n/a	n/a	n/a	-999	9	[8, 5, 4]	17.0	catFR1	6	R1626S
1054.729	7.183	1274823	PROB	7.166	n/a	n/a	n/a	-999	9	[5, 7, 4]	16.0	catFR1	6	R1626S
1061.912	0.0	1282005	STOP	n/a	n/a	n/a	n/a	-999	9	[-999, -999, -999]	n/a	catFR1	6	R1626S
1061.912	2.2	1282006	DISTRACT_END	n/a	n/a	n/a	n/a	-999	9	[0, 0, 0]	n/a	catFR1	6	R1626S
1064.112	11.024	1284209	REC_START	n/a	n/a	n/a	n/a	-999	9	[0, 0, 0]	n/a	catFR1	6	R1626S
1075.136	3.72	1295229	REC_WORD	11.024	n/a	GUITAR	Instruments	6	9	[0, 0, 0]	n/a	catFR1	6	R1626S
1078.856	3.045	1298949	REC_WORD	14.744	n/a	PLIERS	Tools	9	9	[0, 0, 0]	n/a	catFR1	6	R1626S
1081.901	3.64	1301994	REC_WORD	17.789	n/a	SCREWDRIVER	Tools	10	9	[0, 0, 0]	n/a	catFR1	6	R1626S
1085.541	3.245	1305633	REC_WORD	21.429	n/a	TORNADO	Weather	8	9	[0, 0, 0]	n/a	catFR1	6	R1626S
1088.786	5.514	1308878	REC_WORD	24.674	n/a	HURRICANE	Weather	1	9	[0, 0, 0]	n/a	catFR1	6	R1626S
1094.3	3.396	1314389	REC_END	n/a	n/a	n/a	n/a	-999	9	[0, 0, 0]	n/a	catFR1	6	R1626S
1097.696	10.349	1317794	COUNTDOWN_START	n/a	n/a	n/a	n/a	-999	10	[0, 0, 0]	n/a	catFR1	6	R1626S
1108.045	0.0	1328134	COUNTDOWN_END	n/a	n/a	n/a	n/a	-999	10	[0, 0, 0]	n/a	catFR1	6	R1626S
1108.045	2.001	1328144	ENCODING_START	n/a	n/a	n/a	n/a	-999	10	[0, 0, 0]	n/a	catFR1	6	R1626S
1110.046	1.616	1330137	WORD	n/a	wordpools/wordpool_categorized_EN.txt	LIGHTNING	Weather	1	10	[0, 0, 0]	n/a	catFR1	6	R1626S
1111.662	0.883	1331759	WORD_OFF	n/a	n/a	LIGHTNING	Weather	1	10	[0, 0, 0]	n/a	catFR1	6	R1626S
1112.545	1.6	1332636	WORD	n/a	wordpools/wordpool_categorized_EN.txt	DRIZZLE	Weather	2	10	[0, 0, 0]	n/a	catFR1	6	R1626S
1114.145	0.867	1334239	WORD_OFF	n/a	n/a	DRIZZLE	Weather	2	10	[0, 0, 0]	n/a	catFR1	6	R1626S
1115.012	1.6	1335107	WORD	n/a	wordpools/wordpool_categorized_EN.txt	BED	Furniture	3	10	[0, 0, 0]	n/a	catFR1	6	R1626S
1116.612	0.782	1336709	WORD_OFF	n/a	n/a	BED	Furniture	3	10	[0, 0, 0]	n/a	catFR1	6	R1626S
1117.394	1.601	1337491	WORD	n/a	wordpools/wordpool_categorized_EN.txt	SHELF	Furniture	4	10	[0, 0, 0]	n/a	catFR1	6	R1626S
1118.995	1.0	1339084	WORD_OFF	n/a	n/a	SHELF	Furniture	4	10	[0, 0, 0]	n/a	catFR1	6	R1626S
1119.995	1.6	1340086	WORD	n/a	wordpools/wordpool_categorized_EN.txt	SPOON	KitchenTools	5	10	[0, 0, 0]	n/a	catFR1	6	R1626S
1121.595	0.967	1341688	WORD_OFF	n/a	n/a	SPOON	KitchenTools	5	10	[0, 0, 0]	n/a	catFR1	6	R1626S
1122.562	1.6	1342652	WORD	n/a	wordpools/wordpool_categorized_EN.txt	LADLE	KitchenTools	6	10	[0, 0, 0]	n/a	catFR1	6	R1626S
1124.162	0.967	1344254	WORD_OFF	n/a	n/a	LADLE	KitchenTools	6	10	[0, 0, 0]	n/a	catFR1	6	R1626S
1125.129	1.6	1345217	WORD	n/a	wordpools/wordpool_categorized_EN.txt	SNOW	Weather	7	10	[0, 0, 0]	n/a	catFR1	6	R1626S
1126.729	0.832	1346820	WORD_OFF	n/a	n/a	SNOW	Weather	7	10	[0, 0, 0]	n/a	catFR1	6	R1626S
1127.561	1.617	1347650	WORD	n/a	wordpools/wordpool_categorized_EN.txt	THUNDERSTORM	Weather	8	10	[0, 0, 0]	n/a	catFR1	6	R1626S
1129.178	1.0	1349271	WORD_OFF	n/a	n/a	THUNDERSTORM	Weather	8	10	[0, 0, 0]	n/a	catFR1	6	R1626S
1130.178	1.601	1350273	WORD	n/a	wordpools/wordpool_categorized_EN.txt	FORK	KitchenTools	9	10	[0, 0, 0]	n/a	catFR1	6	R1626S
1131.779	0.899	1351875	WORD_OFF	n/a	n/a	FORK	KitchenTools	9	10	[0, 0, 0]	n/a	catFR1	6	R1626S
1132.678	1.601	1352772	WORD	n/a	wordpools/wordpool_categorized_EN.txt	SPATULA	KitchenTools	10	10	[0, 0, 0]	n/a	catFR1	6	R1626S
1134.279	0.866	1354374	WORD_OFF	n/a	n/a	SPATULA	KitchenTools	10	10	[0, 0, 0]	n/a	catFR1	6	R1626S
1135.145	1.6	1355242	WORD	n/a	wordpools/wordpool_categorized_EN.txt	CHAIR	Furniture	11	10	[0, 0, 0]	n/a	catFR1	6	R1626S
1136.745	0.884	1356835	WORD_OFF	n/a	n/a	CHAIR	Furniture	11	10	[0, 0, 0]	n/a	catFR1	6	R1626S
1137.629	1.6	1357722	WORD	n/a	wordpools/wordpool_categorized_EN.txt	RECLINER	Furniture	12	10	[0, 0, 0]	n/a	catFR1	6	R1626S
1139.229	0.001	1359319	PROB	4.649	n/a	n/a	n/a	-999	10	[3, 6, 4]	13.0	catFR1	6	R1626S
1139.23	0.0	1359320	START	n/a	n/a	n/a	n/a	-999	10	[-999, -999, -999]	n/a	catFR1	6	R1626S
1139.229	0.001	1359325	WORD_OFF	n/a	n/a	RECLINER	Furniture	12	10	[0, 0, 0]	n/a	catFR1	6	R1626S
1139.23	0.0	1359325	ENCODING_END	n/a	n/a	n/a	n/a	-999	10	[0, 0, 0]	n/a	catFR1	6	R1626S
1139.23	4.665	1359325	DISTRACT_START	n/a	n/a	n/a	n/a	-999	10	[0, 0, 0]	n/a	catFR1	6	R1626S
1143.895	7.167	1363985	PROB	7.15	n/a	n/a	n/a	-999	10	[8, 3, 3]	14.0	catFR1	6	R1626S
1151.062	3.351	1371151	PROB	3.333	n/a	n/a	n/a	-999	10	[2, 6, 4]	12.0	catFR1	6	R1626S
1154.413	7.132	1374502	PROB	7.116	n/a	n/a	n/a	-999	10	[4, 1, 2]	7.0	catFR1	6	R1626S
1161.545	0.0	1381634	STOP	n/a	n/a	n/a	n/a	-999	10	[-999, -999, -999]	n/a	catFR1	6	R1626S
1161.545	2.317	1381635	DISTRACT_END	n/a	n/a	n/a	n/a	-999	10	[0, 0, 0]	n/a	catFR1	6	R1626S
1163.862	8.977	1383953	REC_START	n/a	n/a	n/a	n/a	-999	10	[0, 0, 0]	n/a	catFR1	6	R1626S
1172.839	2.99	1392927	REC_WORD	8.977	n/a	FORK	KitchenTools	9	10	[0, 0, 0]	n/a	catFR1	6	R1626S
1175.829	11.494	1395917	REC_WORD	11.967	n/a	SPOON	KitchenTools	5	10	[0, 0, 0]	n/a	catFR1	6	R1626S
1187.323	6.731	1407411	REC_WORD	23.461	n/a	LADLE	KitchenTools	6	10	[0, 0, 0]	n/a	catFR1	6	R1626S
1194.054	2.991	1414142	REC_END	n/a	n/a	n/a	n/a	-999	10	[0, 0, 0]	n/a	catFR1	6	R1626S
1197.045	10.35	1417137	COUNTDOWN_START	n/a	n/a	n/a	n/a	-999	11	[0, 0, 0]	n/a	catFR1	6	R1626S
1207.395	0.0	1427487	COUNTDOWN_END	n/a	n/a	n/a	n/a	-999	11	[0, 0, 0]	n/a	catFR1	6	R1626S
1207.395	1.967	1427487	ENCODING_START	n/a	n/a	n/a	n/a	-999	11	[0, 0, 0]	n/a	catFR1	6	R1626S
1209.362	1.6	1429452	WORD	n/a	wordpools/wordpool_categorized_EN.txt	FISH	OceanAnimals	1	11	[0, 0, 0]	n/a	catFR1	6	R1626S
1210.962	0.883	1431054	WORD_OFF	n/a	n/a	FISH	OceanAnimals	1	11	[0, 0, 0]	n/a	catFR1	6	R1626S
1211.845	1.617	1431932	WORD	n/a	wordpools/wordpool_categorized_EN.txt	TURTLE	OceanAnimals	2	11	[0, 0, 0]	n/a	catFR1	6	R1626S
1213.462	0.933	1433553	WORD_OFF	n/a	n/a	TURTLE	OceanAnimals	2	11	[0, 0, 0]	n/a	catFR1	6	R1626S
1214.395	1.616	1434488	WORD	n/a	wordpools/wordpool_categorized_EN.txt	PANTS	Clothing	3	11	[0, 0, 0]	n/a	catFR1	6	R1626S
1216.011	0.833	1436100	WORD_OFF	n/a	n/a	PANTS	Clothing	3	11	[0, 0, 0]	n/a	catFR1	6	R1626S
1216.844	1.6	1436930	WORD	n/a	wordpools/wordpool_categorized_EN.txt	UNDERWEAR	Clothing	4	11	[0, 0, 0]	n/a	catFR1	6	R1626S
1218.444	0.851	1438532	WORD_OFF	n/a	n/a	UNDERWEAR	Clothing	4	11	[0, 0, 0]	n/a	catFR1	6	R1626S
1219.295	1.617	1439391	WORD	n/a	wordpools/wordpool_categorized_EN.txt	SAW	Tools	5	11	[0, 0, 0]	n/a	catFR1	6	R1626S
1220.912	0.783	1441003	WORD_OFF	n/a	n/a	SAW	Tools	5	11	[0, 0, 0]	n/a	catFR1	6	R1626S
1221.695	1.616	1441785	WORD	n/a	wordpools/wordpool_categorized_EN.txt	AXE	Tools	6	11	[0, 0, 0]	n/a	catFR1	6	R1626S
1223.311	0.917	1443397	WORD_OFF	n/a	n/a	AXE	Tools	6	11	[0, 0, 0]	n/a	catFR1	6	R1626S
1224.228	1.617	1444312	WORD	n/a	wordpools/wordpool_categorized_EN.txt	SHIRT	Clothing	7	11	[0, 0, 0]	n/a	catFR1	6	R1626S
1225.845	0.767	1445934	WORD_OFF	n/a	n/a	SHIRT	Clothing	7	11	[0, 0, 0]	n/a	catFR1	6	R1626S
1226.612	1.617	1446697	WORD	n/a	wordpools/wordpool_categorized_EN.txt	DRESS	Clothing	8	11	[0, 0, 0]	n/a	catFR1	6	R1626S
1228.229	0.883	1448319	WORD_OFF	n/a	n/a	DRESS	Clothing	8	11	[0, 0, 0]	n/a	catFR1	6	R1626S
1229.112	1.6	1449196	WORD	n/a	wordpools/wordpool_categorized_EN.txt	SANDER	Tools	9	11	[0, 0, 0]	n/a	catFR1	6	R1626S
1230.712	0.816	1450799	WORD_OFF	n/a	n/a	SANDER	Tools	9	11	[0, 0, 0]	n/a	catFR1	6	R1626S
1231.528	1.6	1451619	WORD	n/a	wordpools/wordpool_categorized_EN.txt	CROWBAR	Tools	10	11	[0, 0, 0]	n/a	catFR1	6	R1626S
1233.128	0.984	1453212	WORD_OFF	n/a	n/a	CROWBAR	Tools	10	11	[0, 0, 0]	n/a	catFR1	6	R1626S
1234.112	1.616	1454204	WORD	n/a	wordpools/wordpool_categorized_EN.txt	OCTOPUS	OceanAnimals	11	11	[0, 0, 0]	n/a	catFR1	6	R1626S
1235.728	0.817	1455816	WORD_OFF	n/a	n/a	OCTOPUS	OceanAnimals	11	11	[0, 0, 0]	n/a	catFR1	6	R1626S
1236.545	1.617	1456636	WORD	n/a	wordpools/wordpool_categorized_EN.txt	PLANKTON	OceanAnimals	12	11	[0, 0, 0]	n/a	catFR1	6	R1626S
1238.162	0.0	1458247	PROB	4.633	n/a	n/a	n/a	-999	11	[5, 5, 2]	12.0	catFR1	6	R1626S
1238.162	0.001	1458248	WORD_OFF	n/a	n/a	PLANKTON	OceanAnimals	12	11	[0, 0, 0]	n/a	catFR1	6	R1626S
1238.163	0.0	1458248	ENCODING_END	n/a	n/a	n/a	n/a	-999	11	[0, 0, 0]	n/a	catFR1	6	R1626S
1238.163	0.0	1458248	START	n/a	n/a	n/a	n/a	-999	11	[-999, -999, -999]	n/a	catFR1	6	R1626S
1238.163	4.649	1458258	DISTRACT_START	n/a	n/a	n/a	n/a	-999	11	[0, 0, 0]	n/a	catFR1	6	R1626S
1242.812	7.951	1462897	PROB	7.933	n/a	n/a	n/a	-999	11	[5, 7, 4]	16.0	catFR1	6	R1626S
1250.763	3.765	1470848	PROB	3.749	n/a	n/a	n/a	-999	11	[3, 5, 5]	13.0	catFR1	6	R1626S
1254.528	5.634	1474613	PROB	5.617	n/a	n/a	n/a	-999	11	[2, 2, 3]	7.0	catFR1	6	R1626S
1260.162	0.0	1480244	DISTRACT_END	n/a	n/a	n/a	n/a	-999	11	[0, 0, 0]	n/a	catFR1	6	R1626S
1260.162	2.117	1480246	STOP	n/a	n/a	n/a	n/a	-999	11	[-999, -999, -999]	n/a	catFR1	6	R1626S
1262.279	4.9	1482361	REC_START	n/a	n/a	n/a	n/a	-999	11	[0, 0, 0]	n/a	catFR1	6	R1626S
1267.179	6.954	1487263	REC_WORD	4.9	n/a	OCTOPUS	OceanAnimals	11	11	[0, 0, 0]	n/a	catFR1	6	R1626S
1274.133	18.327	1494217	REC_WORD	11.854	n/a	THUNDERSTORM	Weather	-999	11	[0, 0, 0]	n/a	catFR1	6	R1626S
1292.46	3.152	1512541	REC_END	n/a	n/a	n/a	n/a	-999	11	[0, 0, 0]	n/a	catFR1	6	R1626S
1295.612	10.349	1515698	COUNTDOWN_START	n/a	n/a	n/a	n/a	-999	12	[0, 0, 0]	n/a	catFR1	6	R1626S
1305.961	0.0	1526047	COUNTDOWN_END	n/a	n/a	n/a	n/a	-999	12	[0, 0, 0]	n/a	catFR1	6	R1626S
1305.961	2.2	1526047	ENCODING_START	n/a	n/a	n/a	n/a	-999	12	[0, 0, 0]	n/a	catFR1	6	R1626S
1308.161	1.6	1528241	WORD	n/a	wordpools/wordpool_categorized_EN.txt	SHORTS	Clothing	1	12	[0, 0, 0]	n/a	catFR1	6	R1626S
1309.761	0.867	1529844	WORD_OFF	n/a	n/a	SHORTS	Clothing	1	12	[0, 0, 0]	n/a	catFR1	6	R1626S
1310.628	1.616	1530712	WORD	n/a	wordpools/wordpool_categorized_EN.txt	BLOUSE	Clothing	2	12	[0, 0, 0]	n/a	catFR1	6	R1626S
1312.244	0.834	1532333	WORD_OFF	n/a	n/a	BLOUSE	Clothing	2	12	[0, 0, 0]	n/a	catFR1	6	R1626S
1313.078	1.617	1533163	WORD	n/a	wordpools/wordpool_categorized_EN.txt	LAMB	FarmAnimals	3	12	[0, 0, 0]	n/a	catFR1	6	R1626S
1314.695	0.9	1534775	WORD_OFF	n/a	n/a	LAMB	FarmAnimals	3	12	[0, 0, 0]	n/a	catFR1	6	R1626S
1315.595	1.6	1535681	WORD	n/a	wordpools/wordpool_categorized_EN.txt	ROOSTER	FarmAnimals	4	12	[0, 0, 0]	n/a	catFR1	6	R1626S
1317.195	0.833	1537284	WORD_OFF	n/a	n/a	ROOSTER	FarmAnimals	4	12	[0, 0, 0]	n/a	catFR1	6	R1626S
1318.028	1.6	1538114	WORD	n/a	wordpools/wordpool_categorized_EN.txt	DRILL	Tools	5	12	[0, 0, 0]	n/a	catFR1	6	R1626S
1319.628	0.884	1539716	WORD_OFF	n/a	n/a	DRILL	Tools	5	12	[0, 0, 0]	n/a	catFR1	6	R1626S
1320.512	1.616	1540594	WORD	n/a	wordpools/wordpool_categorized_EN.txt	WRENCH	Tools	6	12	[0, 0, 0]	n/a	catFR1	6	R1626S
1322.128	0.9	1542215	WORD_OFF	n/a	n/a	WRENCH	Tools	6	12	[0, 0, 0]	n/a	catFR1	6	R1626S
1323.028	1.617	1543112	WORD	n/a	wordpools/wordpool_categorized_EN.txt	COW	FarmAnimals	7	12	[0, 0, 0]	n/a	catFR1	6	R1626S
1324.645	0.833	1544733	WORD_OFF	n/a	n/a	COW	FarmAnimals	7	12	[0, 0, 0]	n/a	catFR1	6	R1626S
1325.478	1.6	1545563	WORD	n/a	wordpools/wordpool_categorized_EN.txt	CALF	FarmAnimals	8	12	[0, 0, 0]	n/a	catFR1	6	R1626S
1327.078	0.8	1547166	WORD_OFF	n/a	n/a	CALF	FarmAnimals	8	12	[0, 0, 0]	n/a	catFR1	6	R1626S
1327.878	1.6	1547967	WORD	n/a	wordpools/wordpool_categorized_EN.txt	RATCHET	Tools	9	12	[0, 0, 0]	n/a	catFR1	6	R1626S
1329.478	0.8	1549560	WORD_OFF	n/a	n/a	RATCHET	Tools	9	12	[0, 0, 0]	n/a	catFR1	6	R1626S
1330.278	1.6	1550361	WORD	n/a	wordpools/wordpool_categorized_EN.txt	LEVEL	Tools	10	12	[0, 0, 0]	n/a	catFR1	6	R1626S
1331.878	0.867	1551963	WORD_OFF	n/a	n/a	LEVEL	Tools	10	12	[0, 0, 0]	n/a	catFR1	6	R1626S
1332.745	1.6	1552831	WORD	n/a	wordpools/wordpool_categorized_EN.txt	SHOES	Clothing	11	12	[0, 0, 0]	n/a	catFR1	6	R1626S
1334.345	0.78	1554424	WORD_OFF	n/a	n/a	SHOES	Clothing	11	12	[0, 0, 0]	n/a	catFR1	6	R1626S
1335.125	1.603	1555207	WORD	n/a	wordpools/wordpool_categorized_EN.txt	COAT	Clothing	12	12	[0, 0, 0]	n/a	catFR1	6	R1626S
1336.728	0.001	1556809	WORD_OFF	n/a	n/a	COAT	Clothing	12	12	[0, 0, 0]	n/a	catFR1	6	R1626S
1336.729	0.0	1556810	START	n/a	n/a	n/a	n/a	-999	12	[-999, -999, -999]	n/a	catFR1	6	R1626S
1336.729	0.0	1556810	PROB	5.915	n/a	n/a	n/a	-999	12	[5, 2, 2]	9.0	catFR1	6	R1626S
1336.729	0.0	1556819	ENCODING_END	n/a	n/a	n/a	n/a	-999	12	[0, 0, 0]	n/a	catFR1	6	R1626S
1336.729	5.933	1556819	DISTRACT_START	n/a	n/a	n/a	n/a	-999	12	[0, 0, 0]	n/a	catFR1	6	R1626S
1342.662	6.416	1562743	PROB	6.399	n/a	n/a	n/a	-999	12	[4, 8, 3]	15.0	catFR1	6	R1626S
1349.078	8.233	1569158	PROB	8.216	n/a	n/a	n/a	-999	12	[8, 6, 8]	22.0	catFR1	6	R1626S
1357.311	0.0	1577391	STOP	n/a	n/a	n/a	n/a	-999	12	[-999, -999, -999]	n/a	catFR1	6	R1626S
1357.311	2.216	1577393	DISTRACT_END	n/a	n/a	n/a	n/a	-999	12	[0, 0, 0]	n/a	catFR1	6	R1626S
1359.527	4.761	1579606	REC_START	n/a	n/a	n/a	n/a	-999	12	[0, 0, 0]	n/a	catFR1	6	R1626S
1364.288	1.821	1584368	REC_WORD	4.761	n/a	COW	FarmAnimals	7	12	[0, 0, 0]	n/a	catFR1	6	R1626S
1366.109	3.2	1586188	REC_WORD	6.582	n/a	CALF	FarmAnimals	8	12	[0, 0, 0]	n/a	catFR1	6	R1626S
1369.309	1.275	1589388	REC_WORD	9.782	n/a	SHOES	Clothing	11	12	[0, 0, 0]	n/a	catFR1	6	R1626S
1370.584	19.113	1590663	REC_WORD	11.057	n/a	COAT	Clothing	12	12	[0, 0, 0]	n/a	catFR1	6	R1626S
1389.697	0.0	1609776	REC_END	n/a	n/a	n/a	n/a	-999	12	[0, 0, 0]	n/a	catFR1	6	R1626S
