onset	duration	sample	trial_type	response_time	stim_file	item_name	category	serialpos	list	test	answer	experiment	session	subject
0.0	0.011	141094	SESS_START	n/a	n/a	n/a	n/a	-999	0	[0, 0, 0]	n/a	catFR1	2	R1672T
0.011	38.011	141105	TRIAL	n/a	n/a	n/a	n/a	-999	-1	[0, 0, 0]	n/a	catFR1	2	R1672T
38.022	10.367	179116	COUNTDOWN	n/a	n/a	n/a	n/a	-999	-1	[0, 0, 0]	n/a	catFR1	2	R1672T
48.389	2.15	189483	ENCODING_START	n/a	n/a	n/a	n/a	-999	-1	[0, 0, 0]	n/a	catFR1	2	R1672T
50.539	2.401	191633	WORD	n/a	n/a	TIGER	Zoo	1	-1	[0, 0, 0]	n/a	catFR1	2	R1672T
52.94	2.532	194034	WORD	n/a	n/a	CHIMPANZEE	Zoo	2	-1	[0, 0, 0]	n/a	catFR1	2	R1672T
55.472	2.499	196566	WORD	n/a	n/a	CEILING	Building	3	-1	[0, 0, 0]	n/a	catFR1	2	R1672T
57.971	2.516	199065	WORD	n/a	n/a	WINDOW	Building	4	-1	[0, 0, 0]	n/a	catFR1	2	R1672T
60.487	2.551	201581	WORD	n/a	n/a	BOOKCASE	Furniture	5	-1	[0, 0, 0]	n/a	catFR1	2	R1672T
63.038	2.467	204132	WORD	n/a	n/a	BED	Furniture	6	-1	[0, 0, 0]	n/a	catFR1	2	R1672T
65.505	2.416	206599	WORD	n/a	n/a	ROOM	Building	7	-1	[0, 0, 0]	n/a	catFR1	2	R1672T
67.921	2.45	209015	WORD	n/a	n/a	STAIRS	Building	8	-1	[0, 0, 0]	n/a	catFR1	2	R1672T
70.371	2.434	211465	WORD	n/a	n/a	TABLE	Furniture	9	-1	[0, 0, 0]	n/a	catFR1	2	R1672T
72.805	2.566	213899	WORD	n/a	n/a	DRESSER	Furniture	10	-1	[0, 0, 0]	n/a	catFR1	2	R1672T
75.371	2.616	216465	WORD	n/a	n/a	MONKEY	Zoo	11	-1	[0, 0, 0]	n/a	catFR1	2	R1672T
77.987	1.602	219081	WORD	n/a	n/a	CHEETAH	Zoo	12	-1	[0, 0, 0]	n/a	catFR1	2	R1672T
79.589	0.0	220683	DISTRACT_START	n/a	n/a	n/a	n/a	-999	0	[0, 0, 0]	n/a	catFR1	2	R1672T
79.589	5.865	220683	PROB	5.849	n/a	n/a	n/a	-999	0	[3, 1, 6]	10.0	catFR1	2	R1672T
85.454	2.932	226548	PROB	2.916	n/a	n/a	n/a	-999	0	[2, 2, 1]	5.0	catFR1	2	R1672T
88.386	4.451	229480	PROB	4.434	n/a	n/a	n/a	-999	0	[6, 8, 8]	24.0	catFR1	2	R1672T
92.837	12.957	233931	PROB	10.649	n/a	n/a	n/a	-999	0	[2, 8, 5]	15.0	catFR1	2	R1672T
105.794	0.818	246888	REC_START	n/a	n/a	n/a	n/a	-999	-1	[0, 0, 0]	n/a	catFR1	2	R1672T
106.612	1.183	247706	REC_WORD	0.818	n/a	ROOM	Building	7	-1	[0, 0, 0]	n/a	catFR1	2	R1672T
107.795	1.095	248889	REC_WORD	2.001	n/a	BED	Furniture	6	-1	[0, 0, 0]	n/a	catFR1	2	R1672T
108.89	1.824	249984	REC_WORD	3.096	n/a	DRESSER	Furniture	10	-1	[0, 0, 0]	n/a	catFR1	2	R1672T
110.714	0.97	251808	REC_WORD	4.92	n/a	CHEETAH	Zoo	12	-1	[0, 0, 0]	n/a	catFR1	2	R1672T
111.684	1.0	252778	REC_WORD	5.89	n/a	CHIMPANZEE	Zoo	2	-1	[0, 0, 0]	n/a	catFR1	2	R1672T
112.684	1.655	253778	REC_WORD_VV	6.89	n/a	<>	n/a	-999	-1	[0, 0, 0]	n/a	catFR1	2	R1672T
114.339	2.493	255433	REC_WORD	8.545	n/a	CEILING	Building	3	-1	[0, 0, 0]	n/a	catFR1	2	R1672T
116.832	0.245	257926	REC_WORD_VV	11.038	n/a	<>	n/a	-999	-1	[0, 0, 0]	n/a	catFR1	2	R1672T
117.077	4.102	258171	REC_WORD	11.283	n/a	WINDOW	Building	4	-1	[0, 0, 0]	n/a	catFR1	2	R1672T
121.179	1.036	262273	REC_WORD_VV	15.385	n/a	<>	n/a	-999	-1	[0, 0, 0]	n/a	catFR1	2	R1672T
122.215	2.324	263309	REC_WORD	16.421	n/a	LION	n/a	-999	-1	[0, 0, 0]	n/a	catFR1	2	R1672T
124.539	11.43	265633	REC_WORD	18.745	n/a	TIGER	Zoo	1	-1	[0, 0, 0]	n/a	catFR1	2	R1672T
135.969	13.815	277063	TRIAL	n/a	n/a	n/a	n/a	-999	1	[0, 0, 0]	n/a	catFR1	2	R1672T
149.784	10.349	290878	COUNTDOWN	n/a	n/a	n/a	n/a	-999	1	[0, 0, 0]	n/a	catFR1	2	R1672T
160.133	2.134	301227	ENCODING_START	n/a	n/a	n/a	n/a	-999	1	[0, 0, 0]	n/a	catFR1	2	R1672T
162.267	2.599	303361	WORD	n/a	wordpools/wordpool_categorized_EN.txt	BEE	Insects	1	1	[0, 0, 0]	n/a	catFR1	2	R1672T
164.866	2.584	305960	WORD	n/a	wordpools/wordpool_categorized_EN.txt	CRICKET	Insects	2	1	[0, 0, 0]	n/a	catFR1	2	R1672T
167.45	2.417	308544	WORD	n/a	wordpools/wordpool_categorized_EN.txt	RADIO	Electronics	3	1	[0, 0, 0]	n/a	catFR1	2	R1672T
169.867	2.483	310961	WORD	n/a	wordpools/wordpool_categorized_EN.txt	STEREO	Electronics	4	1	[0, 0, 0]	n/a	catFR1	2	R1672T
172.35	2.433	313444	WORD	n/a	wordpools/wordpool_categorized_EN.txt	REFRIGERATOR	Appliances	5	1	[0, 0, 0]	n/a	catFR1	2	R1672T
174.783	2.5	315877	WORD	n/a	wordpools/wordpool_categorized_EN.txt	IRON	Appliances	6	1	[0, 0, 0]	n/a	catFR1	2	R1672T
177.283	2.582	318377	WORD	n/a	wordpools/wordpool_categorized_EN.txt	SPIDER	Insects	7	1	[0, 0, 0]	n/a	catFR1	2	R1672T
179.865	2.568	320959	WORD	n/a	wordpools/wordpool_categorized_EN.txt	BEETLE	Insects	8	1	[0, 0, 0]	n/a	catFR1	2	R1672T
182.433	2.533	323527	WORD	n/a	wordpools/wordpool_categorized_EN.txt	BLENDER	Appliances	9	1	[0, 0, 0]	n/a	catFR1	2	R1672T
184.966	2.55	326060	WORD	n/a	wordpools/wordpool_categorized_EN.txt	DISHWASHER	Appliances	10	1	[0, 0, 0]	n/a	catFR1	2	R1672T
187.516	2.615	328610	WORD	n/a	wordpools/wordpool_categorized_EN.txt	TABLET	Electronics	11	1	[0, 0, 0]	n/a	catFR1	2	R1672T
190.131	1.602	331225	WORD	n/a	wordpools/wordpool_categorized_EN.txt	COMPUTER	Electronics	12	1	[0, 0, 0]	n/a	catFR1	2	R1672T
191.733	0.001	332827	PROB	7.732	n/a	n/a	n/a	-999	1	[8, 6, 5]	19.0	catFR1	2	R1672T
191.734	7.748	332828	DISTRACT_START	n/a	n/a	n/a	n/a	-999	1	[0, 0, 0]	n/a	catFR1	2	R1672T
199.482	5.683	340576	PROB	5.665	n/a	n/a	n/a	-999	1	[7, 6, 3]	16.0	catFR1	2	R1672T
205.165	4.582	346259	PROB	4.566	n/a	n/a	n/a	-999	1	[8, 4, 7]	19.0	catFR1	2	R1672T
209.747	7.761	350841	PROB	5.4	n/a	n/a	n/a	-999	1	[5, 4, 2]	11.0	catFR1	2	R1672T
217.508	0.0	358602	REC_START	n/a	n/a	n/a	n/a	-999	1	[0, 0, 0]	n/a	catFR1	2	R1672T
217.508	1.388	358602	REC_WORD_VV	0.0	n/a	<>	n/a	-999	1	[0, 0, 0]	n/a	catFR1	2	R1672T
218.896	2.14	359990	REC_WORD_VV	1.388	n/a	<>	n/a	-999	1	[0, 0, 0]	n/a	catFR1	2	R1672T
221.036	1.199	362130	REC_WORD	3.528	n/a	BEETLE	Insects	8	1	[0, 0, 0]	n/a	catFR1	2	R1672T
222.235	3.235	363329	REC_WORD	4.727	n/a	CRICKET	Insects	2	1	[0, 0, 0]	n/a	catFR1	2	R1672T
225.47	2.603	366564	REC_WORD	7.962	n/a	SPIDER	Insects	7	1	[0, 0, 0]	n/a	catFR1	2	R1672T
228.073	0.954	369167	REC_WORD_VV	10.565	n/a	<>	n/a	-999	1	[0, 0, 0]	n/a	catFR1	2	R1672T
229.027	1.096	370121	REC_WORD	11.519	n/a	STEREO	Electronics	4	1	[0, 0, 0]	n/a	catFR1	2	R1672T
230.123	2.124	371217	REC_WORD	12.615	n/a	RADIO	Electronics	3	1	[0, 0, 0]	n/a	catFR1	2	R1672T
232.247	0.721	373341	REC_WORD	14.739	n/a	REFRIGERATOR	Appliances	5	1	[0, 0, 0]	n/a	catFR1	2	R1672T
232.968	4.501	374062	REC_WORD	15.46	n/a	DISHWASHER	Appliances	10	1	[0, 0, 0]	n/a	catFR1	2	R1672T
237.469	4.555	378563	REC_WORD_VV	19.961	n/a	<>	n/a	-999	1	[0, 0, 0]	n/a	catFR1	2	R1672T
242.024	5.634	383118	REC_WORD_VV	24.516	n/a	<>	n/a	-999	1	[0, 0, 0]	n/a	catFR1	2	R1672T
247.658	3.672	388752	TRIAL	n/a	n/a	n/a	n/a	-999	2	[0, 0, 0]	n/a	catFR1	2	R1672T
251.33	10.349	392424	COUNTDOWN	n/a	n/a	n/a	n/a	-999	2	[0, 0, 0]	n/a	catFR1	2	R1672T
261.679	1.967	402773	ENCODING_START	n/a	n/a	n/a	n/a	-999	2	[0, 0, 0]	n/a	catFR1	2	R1672T
263.646	2.399	404740	WORD	n/a	wordpools/wordpool_categorized_EN.txt	MIXER	Appliances	1	2	[0, 0, 0]	n/a	catFR1	2	R1672T
266.045	2.484	407139	WORD	n/a	wordpools/wordpool_categorized_EN.txt	STOVE	Appliances	2	2	[0, 0, 0]	n/a	catFR1	2	R1672T
268.529	2.453	409623	WORD	n/a	wordpools/wordpool_categorized_EN.txt	PIG	FarmAnimals	3	2	[0, 0, 0]	n/a	catFR1	2	R1672T
270.982	2.546	412076	WORD	n/a	wordpools/wordpool_categorized_EN.txt	SHEEP	FarmAnimals	4	2	[0, 0, 0]	n/a	catFR1	2	R1672T
273.528	2.5	414622	WORD	n/a	wordpools/wordpool_categorized_EN.txt	WATER	Beverages	5	2	[0, 0, 0]	n/a	catFR1	2	R1672T
276.028	2.532	417122	WORD	n/a	wordpools/wordpool_categorized_EN.txt	WINE	Beverages	6	2	[0, 0, 0]	n/a	catFR1	2	R1672T
278.56	2.568	419654	WORD	n/a	wordpools/wordpool_categorized_EN.txt	COW	FarmAnimals	7	2	[0, 0, 0]	n/a	catFR1	2	R1672T
281.128	2.384	422222	WORD	n/a	wordpools/wordpool_categorized_EN.txt	TURKEY	FarmAnimals	8	2	[0, 0, 0]	n/a	catFR1	2	R1672T
283.512	2.399	424606	WORD	n/a	wordpools/wordpool_categorized_EN.txt	WASHER	Appliances	9	2	[0, 0, 0]	n/a	catFR1	2	R1672T
285.911	2.567	427005	WORD	n/a	wordpools/wordpool_categorized_EN.txt	VACUUM	Appliances	10	2	[0, 0, 0]	n/a	catFR1	2	R1672T
288.478	2.416	429572	WORD	n/a	wordpools/wordpool_categorized_EN.txt	LEMONADE	Beverages	11	2	[0, 0, 0]	n/a	catFR1	2	R1672T
290.894	1.616	431988	WORD	n/a	wordpools/wordpool_categorized_EN.txt	CIDER	Beverages	12	2	[0, 0, 0]	n/a	catFR1	2	R1672T
292.51	0.001	433604	PROB	6.683	n/a	n/a	n/a	-999	2	[1, 7, 5]	13.0	catFR1	2	R1672T
292.511	6.699	433605	DISTRACT_START	n/a	n/a	n/a	n/a	-999	2	[0, 0, 0]	n/a	catFR1	2	R1672T
299.21	3.417	440304	PROB	3.4	n/a	n/a	n/a	-999	2	[4, 8, 1]	13.0	catFR1	2	R1672T
302.627	7.034	443721	PROB	7.016	n/a	n/a	n/a	-999	2	[1, 7, 8]	16.0	catFR1	2	R1672T
309.661	6.062	450755	PROB	3.715	n/a	n/a	n/a	-999	2	[7, 7, 4]	18.0	catFR1	2	R1672T
315.723	1.245	456817	REC_START	n/a	n/a	n/a	n/a	-999	2	[0, 0, 0]	n/a	catFR1	2	R1672T
316.968	0.736	458062	REC_WORD	1.245	n/a	PIG	FarmAnimals	3	2	[0, 0, 0]	n/a	catFR1	2	R1672T
317.704	0.787	458798	REC_WORD	1.981	n/a	SHEEP	FarmAnimals	4	2	[0, 0, 0]	n/a	catFR1	2	R1672T
318.491	1.32	459585	REC_WORD	2.768	n/a	COW	FarmAnimals	7	2	[0, 0, 0]	n/a	catFR1	2	R1672T
319.811	0.866	460905	REC_WORD	4.088	n/a	WATER	Beverages	5	2	[0, 0, 0]	n/a	catFR1	2	R1672T
320.677	2.113	461771	REC_WORD	4.954	n/a	CIDER	Beverages	12	2	[0, 0, 0]	n/a	catFR1	2	R1672T
322.79	4.117	463884	REC_WORD	7.067	n/a	LEMONADE	Beverages	11	2	[0, 0, 0]	n/a	catFR1	2	R1672T
326.907	14.698	468001	REC_WORD_VV	11.184	n/a	<>	n/a	-999	2	[0, 0, 0]	n/a	catFR1	2	R1672T
341.605	1.0	482699	REC_WORD_VV	25.882	n/a	<>	n/a	-999	2	[0, 0, 0]	n/a	catFR1	2	R1672T
342.605	1.0	483699	REC_WORD_VV	26.882	n/a	<>	n/a	-999	2	[0, 0, 0]	n/a	catFR1	2	R1672T
343.605	2.256	484699	REC_WORD_VV	27.882	n/a	<>	n/a	-999	2	[0, 0, 0]	n/a	catFR1	2	R1672T
345.861	1.63	486955	TRIAL	n/a	n/a	n/a	n/a	-999	3	[0, 0, 0]	n/a	catFR1	2	R1672T
347.491	10.35	488585	COUNTDOWN	n/a	n/a	n/a	n/a	-999	3	[0, 0, 0]	n/a	catFR1	2	R1672T
357.841	1.951	498935	ENCODING_START	n/a	n/a	n/a	n/a	-999	3	[0, 0, 0]	n/a	catFR1	2	R1672T
359.792	2.566	500886	WORD	n/a	wordpools/wordpool_categorized_EN.txt	BLOUSE	Clothing	1	3	[0, 0, 0]	n/a	catFR1	2	R1672T
362.358	2.549	503452	WORD	n/a	wordpools/wordpool_categorized_EN.txt	SOCKS	Clothing	2	3	[0, 0, 0]	n/a	catFR1	2	R1672T
364.907	2.417	506001	WORD	n/a	wordpools/wordpool_categorized_EN.txt	TROMBONE	Instruments	3	3	[0, 0, 0]	n/a	catFR1	2	R1672T
367.324	2.516	508418	WORD	n/a	wordpools/wordpool_categorized_EN.txt	TUBA	Instruments	4	3	[0, 0, 0]	n/a	catFR1	2	R1672T
369.84	2.45	510934	WORD	n/a	wordpools/wordpool_categorized_EN.txt	TOASTER	Appliances	5	3	[0, 0, 0]	n/a	catFR1	2	R1672T
372.29	2.45	513384	WORD	n/a	wordpools/wordpool_categorized_EN.txt	FREEZER	Appliances	6	3	[0, 0, 0]	n/a	catFR1	2	R1672T
374.74	2.567	515834	WORD	n/a	wordpools/wordpool_categorized_EN.txt	FLUTE	Instruments	7	3	[0, 0, 0]	n/a	catFR1	2	R1672T
377.307	2.516	518401	WORD	n/a	wordpools/wordpool_categorized_EN.txt	TRUMPET	Instruments	8	3	[0, 0, 0]	n/a	catFR1	2	R1672T
379.823	2.6	520917	WORD	n/a	wordpools/wordpool_categorized_EN.txt	DRESS	Clothing	9	3	[0, 0, 0]	n/a	catFR1	2	R1672T
382.423	2.616	523517	WORD	n/a	wordpools/wordpool_categorized_EN.txt	SHORTS	Clothing	10	3	[0, 0, 0]	n/a	catFR1	2	R1672T
385.039	2.5	526133	WORD	n/a	wordpools/wordpool_categorized_EN.txt	OVEN	Appliances	11	3	[0, 0, 0]	n/a	catFR1	2	R1672T
387.539	1.617	528633	WORD	n/a	wordpools/wordpool_categorized_EN.txt	DRYER	Appliances	12	3	[0, 0, 0]	n/a	catFR1	2	R1672T
389.156	0.001	530250	PROB	4.816	n/a	n/a	n/a	-999	3	[8, 2, 5]	15.0	catFR1	2	R1672T
389.157	4.833	530251	DISTRACT_START	n/a	n/a	n/a	n/a	-999	3	[0, 0, 0]	n/a	catFR1	2	R1672T
393.99	2.85	535084	PROB	2.832	n/a	n/a	n/a	-999	3	[4, 1, 6]	11.0	catFR1	2	R1672T
396.84	2.501	537934	PROB	2.483	n/a	n/a	n/a	-999	3	[2, 5, 4]	11.0	catFR1	2	R1672T
399.341	3.615	540435	PROB	3.599	n/a	n/a	n/a	-999	3	[8, 8, 1]	17.0	catFR1	2	R1672T
402.956	5.982	544050	PROB	5.965	n/a	n/a	n/a	-999	3	[6, 1, 8]	15.0	catFR1	2	R1672T
408.938	5.997	550032	PROB	3.784	n/a	n/a	n/a	-999	3	[8, 1, 5]	14.0	catFR1	2	R1672T
414.935	0.0	556029	REC_START	n/a	n/a	n/a	n/a	-999	3	[0, 0, 0]	n/a	catFR1	2	R1672T
414.935	1.0	556029	REC_WORD_VV	0.0	n/a	<>	n/a	-999	3	[0, 0, 0]	n/a	catFR1	2	R1672T
415.935	1.0	557029	REC_WORD_VV	1.0	n/a	<>	n/a	-999	3	[0, 0, 0]	n/a	catFR1	2	R1672T
416.935	1.991	558029	REC_WORD_VV	2.0	n/a	<>	n/a	-999	3	[0, 0, 0]	n/a	catFR1	2	R1672T
418.926	0.556	560020	REC_WORD_VV	3.991	n/a	<>	n/a	-999	3	[0, 0, 0]	n/a	catFR1	2	R1672T
419.482	1.164	560576	REC_WORD	4.547	n/a	BLOUSE	Clothing	1	3	[0, 0, 0]	n/a	catFR1	2	R1672T
420.646	1.827	561740	REC_WORD	5.711	n/a	SHIRT	n/a	-999	3	[0, 0, 0]	n/a	catFR1	2	R1672T
422.473	1.395	563567	REC_WORD	7.538	n/a	PANTS	n/a	-999	3	[0, 0, 0]	n/a	catFR1	2	R1672T
423.868	4.28	564962	REC_WORD	8.933	n/a	SHORTS	Clothing	10	3	[0, 0, 0]	n/a	catFR1	2	R1672T
428.148	1.0	569242	REC_WORD_VV	13.213	n/a	<>	n/a	-999	3	[0, 0, 0]	n/a	catFR1	2	R1672T
429.148	1.0	570242	REC_WORD_VV	14.213	n/a	<>	n/a	-999	3	[0, 0, 0]	n/a	catFR1	2	R1672T
430.148	3.813	571242	REC_WORD_VV	15.213	n/a	<>	n/a	-999	3	[0, 0, 0]	n/a	catFR1	2	R1672T
433.961	8.926	575055	REC_WORD	19.026	n/a	OVEN	Appliances	11	3	[0, 0, 0]	n/a	catFR1	2	R1672T
442.887	1.0	583981	REC_WORD_VV	27.952	n/a	<>	n/a	-999	3	[0, 0, 0]	n/a	catFR1	2	R1672T
443.887	1.207	584981	REC_WORD_VV	28.952	n/a	<>	n/a	-999	3	[0, 0, 0]	n/a	catFR1	2	R1672T
445.094	4.11	586188	TRIAL	n/a	n/a	n/a	n/a	-999	4	[0, 0, 0]	n/a	catFR1	2	R1672T
449.204	10.348	590298	COUNTDOWN	n/a	n/a	n/a	n/a	-999	4	[0, 0, 0]	n/a	catFR1	2	R1672T
459.552	2.318	600646	ENCODING_START	n/a	n/a	n/a	n/a	-999	4	[0, 0, 0]	n/a	catFR1	2	R1672T
461.87	2.55	602964	WORD	n/a	wordpools/wordpool_categorized_EN.txt	HURRICANE	Weather	1	4	[0, 0, 0]	n/a	catFR1	2	R1672T
464.42	2.483	605514	WORD	n/a	wordpools/wordpool_categorized_EN.txt	DRIZZLE	Weather	2	4	[0, 0, 0]	n/a	catFR1	2	R1672T
466.903	2.582	607997	WORD	n/a	wordpools/wordpool_categorized_EN.txt	SANDER	Tools	3	4	[0, 0, 0]	n/a	catFR1	2	R1672T
469.485	2.466	610579	WORD	n/a	wordpools/wordpool_categorized_EN.txt	PLIERS	Tools	4	4	[0, 0, 0]	n/a	catFR1	2	R1672T
471.951	2.418	613045	WORD	n/a	wordpools/wordpool_categorized_EN.txt	PANTS	Clothing	5	4	[0, 0, 0]	n/a	catFR1	2	R1672T
474.369	2.584	615463	WORD	n/a	wordpools/wordpool_categorized_EN.txt	COAT	Clothing	6	4	[0, 0, 0]	n/a	catFR1	2	R1672T
476.953	2.4	618047	WORD	n/a	wordpools/wordpool_categorized_EN.txt	SAW	Tools	7	4	[0, 0, 0]	n/a	catFR1	2	R1672T
479.353	2.433	620447	WORD	n/a	wordpools/wordpool_categorized_EN.txt	WRENCH	Tools	8	4	[0, 0, 0]	n/a	catFR1	2	R1672T
481.786	2.583	622880	WORD	n/a	wordpools/wordpool_categorized_EN.txt	CLOUD	Weather	9	4	[0, 0, 0]	n/a	catFR1	2	R1672T
484.369	2.383	625463	WORD	n/a	wordpools/wordpool_categorized_EN.txt	THUNDER	Weather	10	4	[0, 0, 0]	n/a	catFR1	2	R1672T
486.752	2.567	627846	WORD	n/a	wordpools/wordpool_categorized_EN.txt	SKIRT	Clothing	11	4	[0, 0, 0]	n/a	catFR1	2	R1672T
489.319	1.6	630413	WORD	n/a	wordpools/wordpool_categorized_EN.txt	SHIRT	Clothing	12	4	[0, 0, 0]	n/a	catFR1	2	R1672T
490.919	0.001	632013	PROB	7.132	n/a	n/a	n/a	-999	4	[4, 3, 8]	15.0	catFR1	2	R1672T
490.92	7.149	632014	DISTRACT_START	n/a	n/a	n/a	n/a	-999	4	[0, 0, 0]	n/a	catFR1	2	R1672T
498.069	5.534	639163	PROB	5.516	n/a	n/a	n/a	-999	4	[4, 8, 6]	18.0	catFR1	2	R1672T
503.603	4.016	644697	PROB	3.999	n/a	n/a	n/a	-999	4	[6, 5, 1]	12.0	catFR1	2	R1672T
507.619	2.265	648713	PROB	2.249	n/a	n/a	n/a	-999	4	[2, 8, 1]	11.0	catFR1	2	R1672T
509.884	6.077	650978	PROB	3.834	n/a	n/a	n/a	-999	4	[6, 8, 1]	15.0	catFR1	2	R1672T
515.961	0.873	657055	REC_START	n/a	n/a	n/a	n/a	-999	4	[0, 0, 0]	n/a	catFR1	2	R1672T
516.834	1.0	657928	REC_WORD	0.873	n/a	HURRICANE	Weather	1	4	[0, 0, 0]	n/a	catFR1	2	R1672T
517.834	0.407	658928	REC_WORD_VV	1.873	n/a	<>	n/a	-999	4	[0, 0, 0]	n/a	catFR1	2	R1672T
518.241	2.768	659335	REC_WORD	2.28	n/a	DRIZZLE	Weather	2	4	[0, 0, 0]	n/a	catFR1	2	R1672T
521.009	4.613	662103	REC_WORD_VV	5.048	n/a	<>	n/a	-999	4	[0, 0, 0]	n/a	catFR1	2	R1672T
525.622	14.673	666716	REC_WORD_VV	9.661	n/a	<>	n/a	-999	4	[0, 0, 0]	n/a	catFR1	2	R1672T
540.295	5.811	681389	REC_WORD_VV	24.334	n/a	<>	n/a	-999	4	[0, 0, 0]	n/a	catFR1	2	R1672T
546.106	2.81	687200	TRIAL	n/a	n/a	n/a	n/a	-999	5	[0, 0, 0]	n/a	catFR1	2	R1672T
548.916	10.35	690010	COUNTDOWN	n/a	n/a	n/a	n/a	-999	5	[0, 0, 0]	n/a	catFR1	2	R1672T
559.266	2.048	700360	ENCODING_START	n/a	n/a	n/a	n/a	-999	5	[0, 0, 0]	n/a	catFR1	2	R1672T
561.314	2.534	702408	WORD	n/a	wordpools/wordpool_categorized_EN.txt	LEG	BodyParts	1	5	[0, 0, 0]	n/a	catFR1	2	R1672T
563.848	2.416	704942	WORD	n/a	wordpools/wordpool_categorized_EN.txt	HEAD	BodyParts	2	5	[0, 0, 0]	n/a	catFR1	2	R1672T
566.264	2.435	707358	WORD	n/a	wordpools/wordpool_categorized_EN.txt	MOUNTAIN	Landscapes	3	5	[0, 0, 0]	n/a	catFR1	2	R1672T
568.699	2.366	709793	WORD	n/a	wordpools/wordpool_categorized_EN.txt	ISLAND	Landscapes	4	5	[0, 0, 0]	n/a	catFR1	2	R1672T
571.065	2.533	712159	WORD	n/a	wordpools/wordpool_categorized_EN.txt	SEAGULL	Birds	5	5	[0, 0, 0]	n/a	catFR1	2	R1672T
573.598	2.533	714692	WORD	n/a	wordpools/wordpool_categorized_EN.txt	DOVE	Birds	6	5	[0, 0, 0]	n/a	catFR1	2	R1672T
576.131	2.517	717225	WORD	n/a	wordpools/wordpool_categorized_EN.txt	STREAM	Landscapes	7	5	[0, 0, 0]	n/a	catFR1	2	R1672T
578.648	2.55	719742	WORD	n/a	wordpools/wordpool_categorized_EN.txt	CREEK	Landscapes	8	5	[0, 0, 0]	n/a	catFR1	2	R1672T
581.198	2.517	722292	WORD	n/a	wordpools/wordpool_categorized_EN.txt	HAWK	Birds	9	5	[0, 0, 0]	n/a	catFR1	2	R1672T
583.715	2.599	724809	WORD	n/a	wordpools/wordpool_categorized_EN.txt	PIGEON	Birds	10	5	[0, 0, 0]	n/a	catFR1	2	R1672T
586.314	2.45	727408	WORD	n/a	wordpools/wordpool_categorized_EN.txt	TOE	BodyParts	11	5	[0, 0, 0]	n/a	catFR1	2	R1672T
588.764	1.617	729858	WORD	n/a	wordpools/wordpool_categorized_EN.txt	FOOT	BodyParts	12	5	[0, 0, 0]	n/a	catFR1	2	R1672T
590.381	0.001	731475	PROB	5.933	n/a	n/a	n/a	-999	5	[7, 3, 7]	17.0	catFR1	2	R1672T
590.382	5.95	731476	DISTRACT_START	n/a	n/a	n/a	n/a	-999	5	[0, 0, 0]	n/a	catFR1	2	R1672T
596.332	4.317	737426	PROB	4.299	n/a	n/a	n/a	-999	5	[7, 8, 5]	20.0	catFR1	2	R1672T
600.649	2.364	741743	PROB	2.35	n/a	n/a	n/a	-999	5	[3, 2, 6]	11.0	catFR1	2	R1672T
603.013	3.051	744107	PROB	3.034	n/a	n/a	n/a	-999	5	[7, 3, 5]	15.0	catFR1	2	R1672T
606.064	7.607	747158	PROB	5.299	n/a	n/a	n/a	-999	5	[3, 3, 6]	12.0	catFR1	2	R1672T
613.671	0.0	754765	REC_START	n/a	n/a	n/a	n/a	-999	5	[0, 0, 0]	n/a	catFR1	2	R1672T
613.671	1.0	754765	REC_WORD_VV	0.0	n/a	<>	n/a	-999	5	[0, 0, 0]	n/a	catFR1	2	R1672T
614.671	3.798	755765	REC_WORD_VV	1.0	n/a	<>	n/a	-999	5	[0, 0, 0]	n/a	catFR1	2	R1672T
618.469	1.773	759563	REC_WORD	4.798	n/a	SEAGULL	Birds	5	5	[0, 0, 0]	n/a	catFR1	2	R1672T
620.242	0.616	761336	REC_WORD	6.571	n/a	COW	FarmAnimals	-999	5	[0, 0, 0]	n/a	catFR1	2	R1672T
620.858	2.312	761952	REC_WORD	7.187	n/a	TOE	BodyParts	11	5	[0, 0, 0]	n/a	catFR1	2	R1672T
623.17	1.651	764264	REC_WORD	9.499	n/a	BIRD	n/a	-999	5	[0, 0, 0]	n/a	catFR1	2	R1672T
624.821	2.712	765915	REC_WORD	11.15	n/a	MOUNTAIN	Landscapes	3	5	[0, 0, 0]	n/a	catFR1	2	R1672T
627.533	0.788	768627	REC_WORD_VV	13.862	n/a	<>	n/a	-999	5	[0, 0, 0]	n/a	catFR1	2	R1672T
628.321	1.322	769415	REC_WORD	14.65	n/a	RIVER	n/a	-999	5	[0, 0, 0]	n/a	catFR1	2	R1672T
629.643	2.333	770737	REC_WORD	15.972	n/a	ISLAND	Landscapes	4	5	[0, 0, 0]	n/a	catFR1	2	R1672T
631.976	6.517	773070	REC_WORD	18.305	n/a	STREAM	Landscapes	7	5	[0, 0, 0]	n/a	catFR1	2	R1672T
638.493	5.325	779587	REC_WORD	24.822	n/a	PIGEON	Birds	10	5	[0, 0, 0]	n/a	catFR1	2	R1672T
643.818	3.527	784912	TRIAL	n/a	n/a	n/a	n/a	-999	6	[0, 0, 0]	n/a	catFR1	2	R1672T
647.345	10.349	788439	COUNTDOWN	n/a	n/a	n/a	n/a	-999	6	[0, 0, 0]	n/a	catFR1	2	R1672T
657.694	2.132	798788	ENCODING_START	n/a	n/a	n/a	n/a	-999	6	[0, 0, 0]	n/a	catFR1	2	R1672T
659.826	2.402	800920	WORD	n/a	wordpools/wordpool_categorized_EN.txt	GRATER	KitchenTools	1	6	[0, 0, 0]	n/a	catFR1	2	R1672T
662.228	2.466	803322	WORD	n/a	wordpools/wordpool_categorized_EN.txt	WHISK	KitchenTools	2	6	[0, 0, 0]	n/a	catFR1	2	R1672T
664.694	2.45	805788	WORD	n/a	wordpools/wordpool_categorized_EN.txt	RECLINER	Furniture	3	6	[0, 0, 0]	n/a	catFR1	2	R1672T
667.144	2.567	808238	WORD	n/a	wordpools/wordpool_categorized_EN.txt	CABINET	Furniture	4	6	[0, 0, 0]	n/a	catFR1	2	R1672T
669.711	2.466	810805	WORD	n/a	wordpools/wordpool_categorized_EN.txt	POTATO	Vegetables	5	6	[0, 0, 0]	n/a	catFR1	2	R1672T
672.177	2.618	813271	WORD	n/a	wordpools/wordpool_categorized_EN.txt	CUCUMBER	Vegetables	6	6	[0, 0, 0]	n/a	catFR1	2	R1672T
674.795	2.382	815889	WORD	n/a	wordpools/wordpool_categorized_EN.txt	SPOON	KitchenTools	7	6	[0, 0, 0]	n/a	catFR1	2	R1672T
677.177	2.617	818271	WORD	n/a	wordpools/wordpool_categorized_EN.txt	LADLE	KitchenTools	8	6	[0, 0, 0]	n/a	catFR1	2	R1672T
679.794	2.416	820888	WORD	n/a	wordpools/wordpool_categorized_EN.txt	CHAIR	Furniture	9	6	[0, 0, 0]	n/a	catFR1	2	R1672T
682.21	2.55	823304	WORD	n/a	wordpools/wordpool_categorized_EN.txt	DESK	Furniture	10	6	[0, 0, 0]	n/a	catFR1	2	R1672T
684.76	2.432	825854	WORD	n/a	wordpools/wordpool_categorized_EN.txt	LETTUCE	Vegetables	11	6	[0, 0, 0]	n/a	catFR1	2	R1672T
687.192	1.601	828286	WORD	n/a	wordpools/wordpool_categorized_EN.txt	CARROT	Vegetables	12	6	[0, 0, 0]	n/a	catFR1	2	R1672T
688.793	0.001	829887	PROB	4.783	n/a	n/a	n/a	-999	6	[6, 1, 4]	11.0	catFR1	2	R1672T
688.794	4.8	829888	DISTRACT_START	n/a	n/a	n/a	n/a	-999	6	[0, 0, 0]	n/a	catFR1	2	R1672T
693.594	3.683	834688	PROB	3.666	n/a	n/a	n/a	-999	6	[8, 1, 5]	12.0	catFR1	2	R1672T
697.277	4.15	838371	PROB	4.132	n/a	n/a	n/a	-999	6	[7, 6, 3]	16.0	catFR1	2	R1672T
701.427	3.866	842521	PROB	3.849	n/a	n/a	n/a	-999	6	[5, 2, 7]	14.0	catFR1	2	R1672T
705.293	7.377	846387	PROB	5.016	n/a	n/a	n/a	-999	6	[7, 7, 8]	22.0	catFR1	2	R1672T
712.67	0.0	853764	REC_START	n/a	n/a	n/a	n/a	-999	6	[0, 0, 0]	n/a	catFR1	2	R1672T
712.67	1.0	853764	REC_WORD_VV	0.0	n/a	<>	n/a	-999	6	[0, 0, 0]	n/a	catFR1	2	R1672T
713.67	1.0	854764	REC_WORD_VV	1.0	n/a	<>	n/a	-999	6	[0, 0, 0]	n/a	catFR1	2	R1672T
714.67	1.0	855764	REC_WORD_VV	2.0	n/a	<>	n/a	-999	6	[0, 0, 0]	n/a	catFR1	2	R1672T
715.67	1.0	856764	REC_WORD_VV	3.0	n/a	<>	n/a	-999	6	[0, 0, 0]	n/a	catFR1	2	R1672T
716.67	1.0	857764	REC_WORD_VV	4.0	n/a	<>	n/a	-999	6	[0, 0, 0]	n/a	catFR1	2	R1672T
717.67	4.088	858764	REC_WORD_VV	5.0	n/a	<>	n/a	-999	6	[0, 0, 0]	n/a	catFR1	2	R1672T
721.758	12.21	862852	REC_WORD_VV	9.088	n/a	<>	n/a	-999	6	[0, 0, 0]	n/a	catFR1	2	R1672T
733.968	1.0	875062	REC_WORD_VV	21.298	n/a	<>	n/a	-999	6	[0, 0, 0]	n/a	catFR1	2	R1672T
734.968	7.847	876062	REC_WORD_VV	22.298	n/a	<>	n/a	-999	6	[0, 0, 0]	n/a	catFR1	2	R1672T
742.815	4.674	883909	TRIAL	n/a	n/a	n/a	n/a	-999	7	[0, 0, 0]	n/a	catFR1	2	R1672T
747.489	10.351	888583	COUNTDOWN	n/a	n/a	n/a	n/a	-999	7	[0, 0, 0]	n/a	catFR1	2	R1672T
757.84	2.166	898934	ENCODING_START	n/a	n/a	n/a	n/a	-999	7	[0, 0, 0]	n/a	catFR1	2	R1672T
760.006	2.534	901100	WORD	n/a	wordpools/wordpool_categorized_EN.txt	ARM	BodyParts	1	7	[0, 0, 0]	n/a	catFR1	2	R1672T
762.54	2.433	903634	WORD	n/a	wordpools/wordpool_categorized_EN.txt	EAR	BodyParts	2	7	[0, 0, 0]	n/a	catFR1	2	R1672T
764.973	2.383	906067	WORD	n/a	wordpools/wordpool_categorized_EN.txt	TURTLE	OceanAnimals	3	7	[0, 0, 0]	n/a	catFR1	2	R1672T
767.356	2.467	908450	WORD	n/a	wordpools/wordpool_categorized_EN.txt	SQUID	OceanAnimals	4	7	[0, 0, 0]	n/a	catFR1	2	R1672T
769.823	2.432	910917	WORD	n/a	wordpools/wordpool_categorized_EN.txt	ORANGUTAN	Zoo	5	7	[0, 0, 0]	n/a	catFR1	2	R1672T
772.255	2.385	913349	WORD	n/a	wordpools/wordpool_categorized_EN.txt	ELEPHANT	Zoo	6	7	[0, 0, 0]	n/a	catFR1	2	R1672T
774.64	2.516	915734	WORD	n/a	wordpools/wordpool_categorized_EN.txt	PLANKTON	OceanAnimals	7	7	[0, 0, 0]	n/a	catFR1	2	R1672T
777.156	2.366	918250	WORD	n/a	wordpools/wordpool_categorized_EN.txt	DOLPHIN	OceanAnimals	8	7	[0, 0, 0]	n/a	catFR1	2	R1672T
779.522	2.45	920616	WORD	n/a	wordpools/wordpool_categorized_EN.txt	GORILLA	Zoo	9	7	[0, 0, 0]	n/a	catFR1	2	R1672T
781.972	2.517	923066	WORD	n/a	wordpools/wordpool_categorized_EN.txt	LION	Zoo	10	7	[0, 0, 0]	n/a	catFR1	2	R1672T
784.489	2.466	925583	WORD	n/a	wordpools/wordpool_categorized_EN.txt	FINGERS	BodyParts	11	7	[0, 0, 0]	n/a	catFR1	2	R1672T
786.955	1.601	928049	WORD	n/a	wordpools/wordpool_categorized_EN.txt	KNEE	BodyParts	12	7	[0, 0, 0]	n/a	catFR1	2	R1672T
788.556	0.0	929650	DISTRACT_START	n/a	n/a	n/a	n/a	-999	7	[0, 0, 0]	n/a	catFR1	2	R1672T
788.556	5.466	929650	PROB	5.449	n/a	n/a	n/a	-999	7	[2, 6, 4]	12.0	catFR1	2	R1672T
794.022	4.882	935116	PROB	4.866	n/a	n/a	n/a	-999	7	[8, 6, 5]	19.0	catFR1	2	R1672T
798.904	3.232	939998	PROB	3.217	n/a	n/a	n/a	-999	7	[3, 5, 1]	9.0	catFR1	2	R1672T
802.136	10.948	943230	PROB	8.784	n/a	n/a	n/a	-999	7	[6, 8, 4]	18.0	catFR1	2	R1672T
813.084	1.109	954178	REC_START	n/a	n/a	n/a	n/a	-999	7	[0, 0, 0]	n/a	catFR1	2	R1672T
814.193	0.53	955287	REC_WORD	1.109	n/a	ARM	BodyParts	1	7	[0, 0, 0]	n/a	catFR1	2	R1672T
814.723	2.748	955817	REC_WORD	1.639	n/a	KNEE	BodyParts	12	7	[0, 0, 0]	n/a	catFR1	2	R1672T
817.471	6.07	958565	REC_WORD_VV	4.387	n/a	<>	n/a	-999	7	[0, 0, 0]	n/a	catFR1	2	R1672T
823.541	11.515	964635	REC_WORD	10.457	n/a	TOE	BodyParts	-999	7	[0, 0, 0]	n/a	catFR1	2	R1672T
835.056	1.893	976150	REC_WORD_VV	21.972	n/a	<>	n/a	-999	7	[0, 0, 0]	n/a	catFR1	2	R1672T
836.949	1.0	978043	REC_WORD_VV	23.865	n/a	<>	n/a	-999	7	[0, 0, 0]	n/a	catFR1	2	R1672T
837.949	1.0	979043	REC_WORD_VV	24.865	n/a	<>	n/a	-999	7	[0, 0, 0]	n/a	catFR1	2	R1672T
838.949	1.0	980043	REC_WORD_VV	25.865	n/a	<>	n/a	-999	7	[0, 0, 0]	n/a	catFR1	2	R1672T
839.949	1.0	981043	REC_WORD_VV	26.865	n/a	<>	n/a	-999	7	[0, 0, 0]	n/a	catFR1	2	R1672T
840.949	1.0	982043	REC_WORD_VV	27.865	n/a	<>	n/a	-999	7	[0, 0, 0]	n/a	catFR1	2	R1672T
841.949	1.0	983043	REC_WORD_VV	28.865	n/a	<>	n/a	-999	7	[0, 0, 0]	n/a	catFR1	2	R1672T
842.949	0.274	984043	REC_WORD_VV	29.865	n/a	<>	n/a	-999	7	[0, 0, 0]	n/a	catFR1	2	R1672T
843.223	35.079	984317	TRIAL	n/a	n/a	n/a	n/a	-999	8	[0, 0, 0]	n/a	catFR1	2	R1672T
878.302	10.365	1019396	COUNTDOWN	n/a	n/a	n/a	n/a	-999	8	[0, 0, 0]	n/a	catFR1	2	R1672T
888.667	1.884	1029761	ENCODING_START	n/a	n/a	n/a	n/a	-999	8	[0, 0, 0]	n/a	catFR1	2	R1672T
890.551	2.533	1031645	WORD	n/a	wordpools/wordpool_categorized_EN.txt	ELBOW	BodyParts	1	8	[0, 0, 0]	n/a	catFR1	2	R1672T
893.084	2.499	1034178	WORD	n/a	wordpools/wordpool_categorized_EN.txt	EYE	BodyParts	2	8	[0, 0, 0]	n/a	catFR1	2	R1672T
895.583	2.4	1036677	WORD	n/a	wordpools/wordpool_categorized_EN.txt	GOAT	FarmAnimals	3	8	[0, 0, 0]	n/a	catFR1	2	R1672T
897.983	2.584	1039077	WORD	n/a	wordpools/wordpool_categorized_EN.txt	CALF	FarmAnimals	4	8	[0, 0, 0]	n/a	catFR1	2	R1672T
900.567	2.399	1041661	WORD	n/a	wordpools/wordpool_categorized_EN.txt	VALLEY	Landscapes	5	8	[0, 0, 0]	n/a	catFR1	2	R1672T
902.966	2.434	1044060	WORD	n/a	wordpools/wordpool_categorized_EN.txt	WOODS	Landscapes	6	8	[0, 0, 0]	n/a	catFR1	2	R1672T
905.4	2.399	1046494	WORD	n/a	wordpools/wordpool_categorized_EN.txt	CHICKEN	FarmAnimals	7	8	[0, 0, 0]	n/a	catFR1	2	R1672T
907.799	2.6	1048893	WORD	n/a	wordpools/wordpool_categorized_EN.txt	BULL	FarmAnimals	8	8	[0, 0, 0]	n/a	catFR1	2	R1672T
910.399	2.485	1051493	WORD	n/a	wordpools/wordpool_categorized_EN.txt	NOSE	BodyParts	9	8	[0, 0, 0]	n/a	catFR1	2	R1672T
912.884	2.366	1053978	WORD	n/a	wordpools/wordpool_categorized_EN.txt	HAND	BodyParts	10	8	[0, 0, 0]	n/a	catFR1	2	R1672T
915.25	2.616	1056344	WORD	n/a	wordpools/wordpool_categorized_EN.txt	BEACH	Landscapes	11	8	[0, 0, 0]	n/a	catFR1	2	R1672T
917.866	1.6	1058960	WORD	n/a	wordpools/wordpool_categorized_EN.txt	FOREST	Landscapes	12	8	[0, 0, 0]	n/a	catFR1	2	R1672T
919.466	0.002	1060560	PROB	8.133	n/a	n/a	n/a	-999	8	[7, 7, 4]	18.0	catFR1	2	R1672T
919.468	8.148	1060562	DISTRACT_START	n/a	n/a	n/a	n/a	-999	8	[0, 0, 0]	n/a	catFR1	2	R1672T
927.616	3.283	1068710	PROB	3.266	n/a	n/a	n/a	-999	8	[4, 5, 1]	10.0	catFR1	2	R1672T
930.899	2.7	1071993	PROB	2.683	n/a	n/a	n/a	-999	8	[4, 2, 1]	7.0	catFR1	2	R1672T
933.599	2.784	1074693	PROB	2.765	n/a	n/a	n/a	-999	8	[5, 3, 3]	11.0	catFR1	2	R1672T
936.383	2.433	1077477	PROB	2.415	n/a	n/a	n/a	-999	8	[4, 6, 4]	14.0	catFR1	2	R1672T
938.816	5.166	1079910	PROB	2.849	n/a	n/a	n/a	-999	8	[7, 5, 2]	14.0	catFR1	2	R1672T
943.982	0.0	1085076	REC_START	n/a	n/a	n/a	n/a	-999	8	[0, 0, 0]	n/a	catFR1	2	R1672T
943.982	1.0	1085076	REC_WORD_VV	0.0	n/a	<>	n/a	-999	8	[0, 0, 0]	n/a	catFR1	2	R1672T
944.982	4.093	1086076	REC_WORD_VV	1.0	n/a	<>	n/a	-999	8	[0, 0, 0]	n/a	catFR1	2	R1672T
949.075	0.61	1090169	REC_WORD	5.093	n/a	ELBOW	BodyParts	1	8	[0, 0, 0]	n/a	catFR1	2	R1672T
949.685	2.413	1090779	REC_WORD	5.703	n/a	NOSE	BodyParts	9	8	[0, 0, 0]	n/a	catFR1	2	R1672T
952.098	1.177	1093192	REC_WORD	8.116	n/a	COW	FarmAnimals	-999	8	[0, 0, 0]	n/a	catFR1	2	R1672T
953.275	0.624	1094369	REC_WORD	9.293	n/a	BULL	FarmAnimals	8	8	[0, 0, 0]	n/a	catFR1	2	R1672T
953.899	1.929	1094993	REC_WORD	9.917	n/a	CALF	FarmAnimals	4	8	[0, 0, 0]	n/a	catFR1	2	R1672T
955.828	2.335	1096922	REC_WORD_VV	11.846	n/a	<>	n/a	-999	8	[0, 0, 0]	n/a	catFR1	2	R1672T
958.163	0.597	1099257	REC_WORD	14.181	n/a	EYE	BodyParts	2	8	[0, 0, 0]	n/a	catFR1	2	R1672T
958.76	3.614	1099854	REC_WORD	14.778	n/a	NOSE	BodyParts	9	8	[0, 0, 0]	n/a	catFR1	2	R1672T
962.374	4.447	1103468	REC_WORD_VV	18.392	n/a	<>	n/a	-999	8	[0, 0, 0]	n/a	catFR1	2	R1672T
966.821	6.63	1107915	REC_WORD_VV	22.839	n/a	<>	n/a	-999	8	[0, 0, 0]	n/a	catFR1	2	R1672T
973.451	0.67	1114545	REC_WORD_VV	29.469	n/a	<>	n/a	-999	8	[0, 0, 0]	n/a	catFR1	2	R1672T
974.121	2.942	1115215	TRIAL	n/a	n/a	n/a	n/a	-999	9	[0, 0, 0]	n/a	catFR1	2	R1672T
977.063	10.367	1118157	COUNTDOWN	n/a	n/a	n/a	n/a	-999	9	[0, 0, 0]	n/a	catFR1	2	R1672T
987.43	1.866	1128524	ENCODING_START	n/a	n/a	n/a	n/a	-999	9	[0, 0, 0]	n/a	catFR1	2	R1672T
989.296	2.617	1130390	WORD	n/a	wordpools/wordpool_categorized_EN.txt	BLOCKS	Toys	1	9	[0, 0, 0]	n/a	catFR1	2	R1672T
991.913	2.449	1133007	WORD	n/a	wordpools/wordpool_categorized_EN.txt	FRISBEE	Toys	2	9	[0, 0, 0]	n/a	catFR1	2	R1672T
994.362	2.534	1135456	WORD	n/a	wordpools/wordpool_categorized_EN.txt	CAKE	Desserts	3	9	[0, 0, 0]	n/a	catFR1	2	R1672T
996.896	2.583	1137990	WORD	n/a	wordpools/wordpool_categorized_EN.txt	FUDGE	Desserts	4	9	[0, 0, 0]	n/a	catFR1	2	R1672T
999.479	2.584	1140573	WORD	n/a	wordpools/wordpool_categorized_EN.txt	CALCULATOR	Electronics	5	9	[0, 0, 0]	n/a	catFR1	2	R1672T
1002.063	2.416	1143157	WORD	n/a	wordpools/wordpool_categorized_EN.txt	SPEAKER	Electronics	6	9	[0, 0, 0]	n/a	catFR1	2	R1672T
1004.479	2.451	1145573	WORD	n/a	wordpools/wordpool_categorized_EN.txt	SLINKY	Toys	7	9	[0, 0, 0]	n/a	catFR1	2	R1672T
1006.93	2.532	1148024	WORD	n/a	wordpools/wordpool_categorized_EN.txt	DOLLHOUSE	Toys	8	9	[0, 0, 0]	n/a	catFR1	2	R1672T
1009.462	2.484	1150556	WORD	n/a	wordpools/wordpool_categorized_EN.txt	PIE	Desserts	9	9	[0, 0, 0]	n/a	catFR1	2	R1672T
1011.946	2.449	1153040	WORD	n/a	wordpools/wordpool_categorized_EN.txt	MOUSSE	Desserts	10	9	[0, 0, 0]	n/a	catFR1	2	R1672T
1014.395	2.516	1155489	WORD	n/a	wordpools/wordpool_categorized_EN.txt	MICROWAVE	Electronics	11	9	[0, 0, 0]	n/a	catFR1	2	R1672T
1016.911	1.601	1158005	WORD	n/a	wordpools/wordpool_categorized_EN.txt	PHONE	Electronics	12	9	[0, 0, 0]	n/a	catFR1	2	R1672T
1018.512	0.001	1159606	PROB	5.682	n/a	n/a	n/a	-999	9	[5, 4, 3]	12.0	catFR1	2	R1672T
1018.513	5.699	1159607	DISTRACT_START	n/a	n/a	n/a	n/a	-999	9	[0, 0, 0]	n/a	catFR1	2	R1672T
1024.212	6.716	1165306	PROB	6.699	n/a	n/a	n/a	-999	9	[7, 5, 6]	25.0	catFR1	2	R1672T
1030.928	6.367	1172022	PROB	6.35	n/a	n/a	n/a	-999	9	[8, 4, 4]	18.0	catFR1	2	R1672T
1037.295	5.747	1178389	PROB	3.531	n/a	n/a	n/a	-999	9	[5, 6, 4]	15.0	catFR1	2	R1672T
1043.042	0.0	1184136	REC_START	n/a	n/a	n/a	n/a	-999	9	[0, 0, 0]	n/a	catFR1	2	R1672T
1043.042	1.0	1184136	REC_WORD_VV	0.0	n/a	<>	n/a	-999	9	[0, 0, 0]	n/a	catFR1	2	R1672T
1044.042	1.0	1185136	REC_WORD_VV	1.0	n/a	<>	n/a	-999	9	[0, 0, 0]	n/a	catFR1	2	R1672T
1045.042	13.395	1186136	REC_WORD_VV	2.0	n/a	<>	n/a	-999	9	[0, 0, 0]	n/a	catFR1	2	R1672T
1058.437	5.275	1199531	REC_WORD_VV	15.395	n/a	<>	n/a	-999	9	[0, 0, 0]	n/a	catFR1	2	R1672T
1063.712	5.717	1204806	REC_WORD_VV	20.67	n/a	<>	n/a	-999	9	[0, 0, 0]	n/a	catFR1	2	R1672T
1069.429	1.0	1210523	REC_WORD_VV	26.387	n/a	<>	n/a	-999	9	[0, 0, 0]	n/a	catFR1	2	R1672T
1070.429	2.753	1211523	REC_WORD_VV	27.387	n/a	<>	n/a	-999	9	[0, 0, 0]	n/a	catFR1	2	R1672T
1073.182	1.744	1214276	TRIAL	n/a	n/a	n/a	n/a	-999	10	[0, 0, 0]	n/a	catFR1	2	R1672T
1074.926	10.35	1216020	COUNTDOWN	n/a	n/a	n/a	n/a	-999	10	[0, 0, 0]	n/a	catFR1	2	R1672T
1085.276	2.099	1226370	ENCODING_START	n/a	n/a	n/a	n/a	-999	10	[0, 0, 0]	n/a	catFR1	2	R1672T
1087.375	2.533	1228469	WORD	n/a	wordpools/wordpool_categorized_EN.txt	COOKIE	Desserts	1	10	[0, 0, 0]	n/a	catFR1	2	R1672T
1089.908	2.5	1231002	WORD	n/a	wordpools/wordpool_categorized_EN.txt	PUDDING	Desserts	2	10	[0, 0, 0]	n/a	catFR1	2	R1672T
1092.408	2.401	1233502	WORD	n/a	wordpools/wordpool_categorized_EN.txt	PEELER	KitchenTools	3	10	[0, 0, 0]	n/a	catFR1	2	R1672T
1094.809	2.433	1235903	WORD	n/a	wordpools/wordpool_categorized_EN.txt	STRAINER	KitchenTools	4	10	[0, 0, 0]	n/a	catFR1	2	R1672T
1097.242	2.516	1238336	WORD	n/a	wordpools/wordpool_categorized_EN.txt	SNOW	Weather	5	10	[0, 0, 0]	n/a	catFR1	2	R1672T
1099.758	2.567	1240852	WORD	n/a	wordpools/wordpool_categorized_EN.txt	RAIN	Weather	6	10	[0, 0, 0]	n/a	catFR1	2	R1672T
1102.325	2.399	1243419	WORD	n/a	wordpools/wordpool_categorized_EN.txt	CORKSCREW	KitchenTools	7	10	[0, 0, 0]	n/a	catFR1	2	R1672T
1104.724	2.518	1245818	WORD	n/a	wordpools/wordpool_categorized_EN.txt	KNIFE	KitchenTools	8	10	[0, 0, 0]	n/a	catFR1	2	R1672T
1107.242	2.566	1248336	WORD	n/a	wordpools/wordpool_categorized_EN.txt	CHEESECAKE	Desserts	9	10	[0, 0, 0]	n/a	catFR1	2	R1672T
1109.808	2.466	1250902	WORD	n/a	wordpools/wordpool_categorized_EN.txt	COBBLER	Desserts	10	10	[0, 0, 0]	n/a	catFR1	2	R1672T
1112.274	2.383	1253368	WORD	n/a	wordpools/wordpool_categorized_EN.txt	TORNADO	Weather	11	10	[0, 0, 0]	n/a	catFR1	2	R1672T
1114.657	1.601	1255751	WORD	n/a	wordpools/wordpool_categorized_EN.txt	LIGHTNING	Weather	12	10	[0, 0, 0]	n/a	catFR1	2	R1672T
1116.258	0.001	1257352	PROB	5.398	n/a	n/a	n/a	-999	10	[2, 2, 8]	12.0	catFR1	2	R1672T
1116.259	5.415	1257353	DISTRACT_START	n/a	n/a	n/a	n/a	-999	10	[0, 0, 0]	n/a	catFR1	2	R1672T
1121.674	2.484	1262768	PROB	2.466	n/a	n/a	n/a	-999	10	[2, 5, 4]	11.0	catFR1	2	R1672T
1124.158	2.4	1265252	PROB	2.383	n/a	n/a	n/a	-999	10	[5, 1, 8]	14.0	catFR1	2	R1672T
1126.558	2.783	1267652	PROB	2.766	n/a	n/a	n/a	-999	10	[1, 2, 1]	4.0	catFR1	2	R1672T
1129.341	3.399	1270435	PROB	3.382	n/a	n/a	n/a	-999	10	[1, 3, 6]	10.0	catFR1	2	R1672T
1132.74	6.447	1273834	PROB	4.1	n/a	n/a	n/a	-999	10	[2, 5, 8]	15.0	catFR1	2	R1672T
1139.187	2.051	1280281	REC_START	n/a	n/a	n/a	n/a	-999	10	[0, 0, 0]	n/a	catFR1	2	R1672T
1141.238	1.168	1282332	REC_WORD	2.051	n/a	COOKIE	Desserts	1	10	[0, 0, 0]	n/a	catFR1	2	R1672T
1142.406	1.581	1283500	REC_WORD	3.219	n/a	PUDDING	Desserts	2	10	[0, 0, 0]	n/a	catFR1	2	R1672T
1143.987	2.027	1285081	REC_WORD	4.8	n/a	CORKSCREW	KitchenTools	7	10	[0, 0, 0]	n/a	catFR1	2	R1672T
1146.014	7.428	1287108	REC_WORD	6.827	n/a	STRAINER	KitchenTools	4	10	[0, 0, 0]	n/a	catFR1	2	R1672T
1153.442	2.884	1294536	REC_WORD	14.255	n/a	MOUSSE	Desserts	-999	10	[0, 0, 0]	n/a	catFR1	2	R1672T
1156.326	1.089	1297420	REC_WORD_VV	17.139	n/a	<>	n/a	-999	10	[0, 0, 0]	n/a	catFR1	2	R1672T
1157.415	10.197	1298509	REC_WORD	18.228	n/a	MICROWAVE	Electronics	-999	10	[0, 0, 0]	n/a	catFR1	2	R1672T
1167.612	1.0	1308706	REC_WORD_VV	28.425	n/a	<>	n/a	-999	10	[0, 0, 0]	n/a	catFR1	2	R1672T
1168.612	0.719	1309706	REC_WORD_VV	29.425	n/a	<>	n/a	-999	10	[0, 0, 0]	n/a	catFR1	2	R1672T
1169.331	6.374	1310425	TRIAL	n/a	n/a	n/a	n/a	-999	11	[0, 0, 0]	n/a	catFR1	2	R1672T
1175.705	10.35	1316799	COUNTDOWN	n/a	n/a	n/a	n/a	-999	11	[0, 0, 0]	n/a	catFR1	2	R1672T
1186.055	2.383	1327149	ENCODING_START	n/a	n/a	n/a	n/a	-999	11	[0, 0, 0]	n/a	catFR1	2	R1672T
1188.438	2.399	1329532	WORD	n/a	wordpools/wordpool_categorized_EN.txt	EVERGREEN	Trees	1	11	[0, 0, 0]	n/a	catFR1	2	R1672T
1190.837	2.55	1331931	WORD	n/a	wordpools/wordpool_categorized_EN.txt	WALNUT	Trees	2	11	[0, 0, 0]	n/a	catFR1	2	R1672T
1193.387	2.451	1334481	WORD	n/a	wordpools/wordpool_categorized_EN.txt	LINEN	Fabric	3	11	[0, 0, 0]	n/a	catFR1	2	R1672T
1195.838	2.383	1336932	WORD	n/a	wordpools/wordpool_categorized_EN.txt	COTTON	Fabric	4	11	[0, 0, 0]	n/a	catFR1	2	R1672T
1198.221	2.566	1339315	WORD	n/a	wordpools/wordpool_categorized_EN.txt	FOOTBALL	Toys	5	11	[0, 0, 0]	n/a	catFR1	2	R1672T
1200.787	2.567	1341881	WORD	n/a	wordpools/wordpool_categorized_EN.txt	BASEBALL	Toys	6	11	[0, 0, 0]	n/a	catFR1	2	R1672T
1203.354	2.465	1344448	WORD	n/a	wordpools/wordpool_categorized_EN.txt	LEATHER	Fabric	7	11	[0, 0, 0]	n/a	catFR1	2	R1672T
1205.819	2.501	1346913	WORD	n/a	wordpools/wordpool_categorized_EN.txt	SUEDE	Fabric	8	11	[0, 0, 0]	n/a	catFR1	2	R1672T
1208.32	2.566	1349414	WORD	n/a	wordpools/wordpool_categorized_EN.txt	BALL	Toys	9	11	[0, 0, 0]	n/a	catFR1	2	R1672T
1210.886	2.534	1351980	WORD	n/a	wordpools/wordpool_categorized_EN.txt	DOLL	Toys	10	11	[0, 0, 0]	n/a	catFR1	2	R1672T
1213.42	2.432	1354514	WORD	n/a	wordpools/wordpool_categorized_EN.txt	CYPRESS	Trees	11	11	[0, 0, 0]	n/a	catFR1	2	R1672T
1215.852	1.601	1356946	WORD	n/a	wordpools/wordpool_categorized_EN.txt	ELM	Trees	12	11	[0, 0, 0]	n/a	catFR1	2	R1672T
1217.453	0.001	1358547	PROB	6.0	n/a	n/a	n/a	-999	11	[4, 1, 7]	12.0	catFR1	2	R1672T
1217.454	6.016	1358548	DISTRACT_START	n/a	n/a	n/a	n/a	-999	11	[0, 0, 0]	n/a	catFR1	2	R1672T
1223.47	4.849	1364564	PROB	4.833	n/a	n/a	n/a	-999	11	[7, 6, 4]	17.0	catFR1	2	R1672T
1228.319	2.934	1369413	PROB	2.917	n/a	n/a	n/a	-999	11	[3, 8, 1]	12.0	catFR1	2	R1672T
1231.253	2.683	1372347	PROB	2.666	n/a	n/a	n/a	-999	11	[7, 3, 2]	12.0	catFR1	2	R1672T
1233.936	2.849	1375030	PROB	2.832	n/a	n/a	n/a	-999	11	[5, 2, 2]	9.0	catFR1	2	R1672T
1236.785	6.768	1377879	PROB	4.6	n/a	n/a	n/a	-999	11	[8, 6, 7]	21.0	catFR1	2	R1672T
1243.553	0.885	1384647	REC_START	n/a	n/a	n/a	n/a	-999	11	[0, 0, 0]	n/a	catFR1	2	R1672T
1244.438	1.396	1385532	REC_WORD	0.885	n/a	EVERGREEN	Trees	1	11	[0, 0, 0]	n/a	catFR1	2	R1672T
1245.834	1.591	1386928	REC_WORD	2.281	n/a	ELM	Trees	12	11	[0, 0, 0]	n/a	catFR1	2	R1672T
1247.425	1.946	1388519	REC_WORD	3.872	n/a	LINEN	Fabric	3	11	[0, 0, 0]	n/a	catFR1	2	R1672T
1249.371	4.165	1390465	REC_WORD	5.818	n/a	SPRUCE	n/a	-999	11	[0, 0, 0]	n/a	catFR1	2	R1672T
1253.536	20.156	1394630	REC_WORD_VV	9.983	n/a	<>	n/a	-999	11	[0, 0, 0]	n/a	catFR1	2	R1672T
1273.692	6.408	1414786	TRIAL	n/a	n/a	n/a	n/a	-999	12	[0, 0, 0]	n/a	catFR1	2	R1672T
1280.1	10.349	1421194	COUNTDOWN	n/a	n/a	n/a	n/a	-999	12	[0, 0, 0]	n/a	catFR1	2	R1672T
1290.449	1.884	1431543	ENCODING_START	n/a	n/a	n/a	n/a	-999	12	[0, 0, 0]	n/a	catFR1	2	R1672T
1292.333	2.433	1433427	WORD	n/a	wordpools/wordpool_categorized_EN.txt	SHELF	Furniture	1	12	[0, 0, 0]	n/a	catFR1	2	R1672T
1294.766	2.416	1435860	WORD	n/a	wordpools/wordpool_categorized_EN.txt	NIGHTSTAND	Furniture	2	12	[0, 0, 0]	n/a	catFR1	2	R1672T
1297.182	2.401	1438276	WORD	n/a	wordpools/wordpool_categorized_EN.txt	THUNDERSTORM	Weather	3	12	[0, 0, 0]	n/a	catFR1	2	R1672T
1299.583	2.533	1440677	WORD	n/a	wordpools/wordpool_categorized_EN.txt	HUMIDITY	Weather	4	12	[0, 0, 0]	n/a	catFR1	2	R1672T
1302.116	2.584	1443210	WORD	n/a	wordpools/wordpool_categorized_EN.txt	OAK	Trees	5	12	[0, 0, 0]	n/a	catFR1	2	R1672T
1304.7	2.383	1445794	WORD	n/a	wordpools/wordpool_categorized_EN.txt	WILLOW	Trees	6	12	[0, 0, 0]	n/a	catFR1	2	R1672T
1307.083	2.45	1448177	WORD	n/a	wordpools/wordpool_categorized_EN.txt	FOG	Weather	7	12	[0, 0, 0]	n/a	catFR1	2	R1672T
1309.533	2.384	1450627	WORD	n/a	wordpools/wordpool_categorized_EN.txt	WIND	Weather	8	12	[0, 0, 0]	n/a	catFR1	2	R1672T
1311.917	2.416	1453011	WORD	n/a	wordpools/wordpool_categorized_EN.txt	SOFA	Furniture	9	12	[0, 0, 0]	n/a	catFR1	2	R1672T
1314.333	2.533	1455427	WORD	n/a	wordpools/wordpool_categorized_EN.txt	COUCH	Furniture	10	12	[0, 0, 0]	n/a	catFR1	2	R1672T
1316.866	2.516	1457960	WORD	n/a	wordpools/wordpool_categorized_EN.txt	PINE	Trees	11	12	[0, 0, 0]	n/a	catFR1	2	R1672T
1319.382	1.617	1460476	WORD	n/a	wordpools/wordpool_categorized_EN.txt	HICKORY	Trees	12	12	[0, 0, 0]	n/a	catFR1	2	R1672T
1320.999	0.004	1462093	PROB	4.865	n/a	n/a	n/a	-999	12	[7, 7, 7]	21.0	catFR1	2	R1672T
1321.003	4.879	1462097	DISTRACT_START	n/a	n/a	n/a	n/a	-999	12	[0, 0, 0]	n/a	catFR1	2	R1672T
1325.882	3.266	1466976	PROB	3.249	n/a	n/a	n/a	-999	12	[5, 3, 6]	14.0	catFR1	2	R1672T
1329.148	3.884	1470242	PROB	3.866	n/a	n/a	n/a	-999	12	[4, 3, 6]	13.0	catFR1	2	R1672T
1333.032	6.115	1474126	PROB	6.099	n/a	n/a	n/a	-999	12	[6, 5, 6]	17.0	catFR1	2	R1672T
1339.147	6.87	1480241	PROB	4.767	n/a	n/a	n/a	-999	12	[4, 5, 6]	15.0	catFR1	2	R1672T
1346.017	0.0	1487111	REC_START	n/a	n/a	n/a	n/a	-999	12	[0, 0, 0]	n/a	catFR1	2	R1672T
1346.017	1.0	1487111	REC_WORD_VV	0.0	n/a	<>	n/a	-999	12	[0, 0, 0]	n/a	catFR1	2	R1672T
1347.017	1.0	1488111	REC_WORD_VV	1.0	n/a	<>	n/a	-999	12	[0, 0, 0]	n/a	catFR1	2	R1672T
1348.017	1.0	1489111	REC_WORD_VV	2.0	n/a	<>	n/a	-999	12	[0, 0, 0]	n/a	catFR1	2	R1672T
1349.017	6.21	1490111	REC_WORD_VV	3.0	n/a	<>	n/a	-999	12	[0, 0, 0]	n/a	catFR1	2	R1672T
1355.227	1.0	1496321	REC_WORD_VV	9.21	n/a	<>	n/a	-999	12	[0, 0, 0]	n/a	catFR1	2	R1672T
1356.227	1.0	1497321	REC_WORD_VV	10.21	n/a	<>	n/a	-999	12	[0, 0, 0]	n/a	catFR1	2	R1672T
1357.227	1.0	1498321	REC_WORD_VV	11.21	n/a	<>	n/a	-999	12	[0, 0, 0]	n/a	catFR1	2	R1672T
1358.227	1.0	1499321	REC_WORD_VV	12.21	n/a	<>	n/a	-999	12	[0, 0, 0]	n/a	catFR1	2	R1672T
1359.227	2.039	1500321	REC_WORD_VV	13.21	n/a	<>	n/a	-999	12	[0, 0, 0]	n/a	catFR1	2	R1672T
1361.266	1.0	1502360	REC_WORD_VV	15.249	n/a	<>	n/a	-999	12	[0, 0, 0]	n/a	catFR1	2	R1672T
1362.266	1.0	1503360	REC_WORD_VV	16.249	n/a	<>	n/a	-999	12	[0, 0, 0]	n/a	catFR1	2	R1672T
1363.266	12.241	1504360	REC_WORD_VV	17.249	n/a	<>	n/a	-999	12	[0, 0, 0]	n/a	catFR1	2	R1672T
1375.507	0.674	1516601	REC_WORD_VV	29.49	n/a	<>	n/a	-999	12	[0, 0, 0]	n/a	catFR1	2	R1672T
1376.181	0.0	1517275	SESS_END	n/a	n/a	n/a	n/a	-999	12	[0, 0, 0]	n/a	catFR1	2	R1672T
