onset	duration	sample	trial_type	response_time	stim_file	item_name	category	serialpos	list	test	answer	experiment	session	subject
0.0	9.31	358414	INSTRUCT_START	n/a	n/a	n/a	n/a	-999	-999	[0, 0, 0]	n/a	catFR1	4	R1666S
9.31	34.394	367726	INSTRUCT_END	n/a	n/a	n/a	n/a	-999	-999	[0, 0, 0]	n/a	catFR1	4	R1666S
43.704	10.352	402122	COUNTDOWN_START	n/a	n/a	n/a	n/a	-999	-999	[0, 0, 0]	n/a	catFR1	4	R1666S
54.056	0.001	412467	COUNTDOWN_END	n/a	n/a	n/a	n/a	-999	-999	[0, 0, 0]	n/a	catFR1	4	R1666S
54.057	2.193	412467	ENCODING_START	n/a	n/a	n/a	n/a	-999	-1	[0, 0, 0]	n/a	catFR1	4	R1666S
56.25	1.605	414664	WORD	n/a	n/a	BULL	FarmAnimals	1	-1	[0, 0, 0]	n/a	catFR1	4	R1666S
57.855	0.808	416263	WORD_OFF	n/a	n/a	BULL	FarmAnimals	1	-1	[0, 0, 0]	n/a	catFR1	4	R1666S
58.663	1.608	417073	WORD	n/a	n/a	HORSE	FarmAnimals	2	-1	[0, 0, 0]	n/a	catFR1	4	R1666S
60.271	0.851	418683	WORD_OFF	n/a	n/a	HORSE	FarmAnimals	2	-1	[0, 0, 0]	n/a	catFR1	4	R1666S
61.122	1.605	419533	WORD	n/a	n/a	GNAT	Insects	3	-1	[0, 0, 0]	n/a	catFR1	4	R1666S
62.727	0.769	421142	WORD_OFF	n/a	n/a	GNAT	Insects	3	-1	[0, 0, 0]	n/a	catFR1	4	R1666S
63.496	1.607	421912	WORD	n/a	n/a	LADYBUG	Insects	4	-1	[0, 0, 0]	n/a	catFR1	4	R1666S
65.103	0.759	423511	WORD_OFF	n/a	n/a	LADYBUG	Insects	4	-1	[0, 0, 0]	n/a	catFR1	4	R1666S
65.862	1.609	424280	WORD	n/a	n/a	HALLWAY	Building	5	-1	[0, 0, 0]	n/a	catFR1	4	R1666S
67.471	0.841	425880	WORD_OFF	n/a	n/a	HALLWAY	Building	5	-1	[0, 0, 0]	n/a	catFR1	4	R1666S
68.312	1.601	426720	WORD	n/a	n/a	ROOM	Building	6	-1	[0, 0, 0]	n/a	catFR1	4	R1666S
69.913	0.992	428329	WORD_OFF	n/a	n/a	ROOM	Building	6	-1	[0, 0, 0]	n/a	catFR1	4	R1666S
70.905	1.608	429321	WORD	n/a	n/a	COW	FarmAnimals	7	-1	[0, 0, 0]	n/a	catFR1	4	R1666S
72.513	0.933	430921	WORD_OFF	n/a	n/a	COW	FarmAnimals	7	-1	[0, 0, 0]	n/a	catFR1	4	R1666S
73.446	1.6	431862	WORD	n/a	n/a	CALF	FarmAnimals	8	-1	[0, 0, 0]	n/a	catFR1	4	R1666S
75.046	0.95	433461	WORD_OFF	n/a	n/a	CALF	FarmAnimals	8	-1	[0, 0, 0]	n/a	catFR1	4	R1666S
75.996	1.6	434413	WORD	n/a	n/a	BUTTERFLY	Insects	9	-1	[0, 0, 0]	n/a	catFR1	4	R1666S
77.596	0.886	436012	WORD_OFF	n/a	n/a	BUTTERFLY	Insects	9	-1	[0, 0, 0]	n/a	catFR1	4	R1666S
78.482	1.599	436893	WORD	n/a	n/a	MOSQUITO	Insects	10	-1	[0, 0, 0]	n/a	catFR1	4	R1666S
80.081	0.897	438492	WORD_OFF	n/a	n/a	MOSQUITO	Insects	10	-1	[0, 0, 0]	n/a	catFR1	4	R1666S
80.978	1.602	439393	WORD	n/a	n/a	DOOR	Building	11	-1	[0, 0, 0]	n/a	catFR1	4	R1666S
82.58	0.779	440992	WORD_OFF	n/a	n/a	DOOR	Building	11	-1	[0, 0, 0]	n/a	catFR1	4	R1666S
83.359	1.595	441772	WORD	n/a	n/a	STAIRS	Building	12	-1	[0, 0, 0]	n/a	catFR1	4	R1666S
84.954	0.004	443371	WORD_OFF	n/a	n/a	STAIRS	Building	12	-1	[0, 0, 0]	n/a	catFR1	4	R1666S
84.958	0.001	443371	ENCODING_END	n/a	n/a	n/a	n/a	-999	-1	[0, 0, 0]	n/a	catFR1	4	R1666S
84.959	0.0	443371	DISTRACT_START	n/a	n/a	n/a	n/a	-999	-1	[0, 0, 0]	n/a	catFR1	4	R1666S
84.958	0.001	443375	PROB	0.001	n/a	n/a	n/a	-999	-1	[1, 2, 3]	6	catFR1	4	R1666S
84.959	4.452	443376	START	n/a	n/a	n/a	n/a	-999	-1	[-999, -999, -999]	n/a	catFR1	4	R1666S
89.411	7.51	447828	PROB	7.51	n/a	n/a	n/a	-999	-1	[7, 5, 7]	19	catFR1	4	R1666S
96.921	5.076	455338	PROB	5.076	n/a	n/a	n/a	-999	-1	[1, 3, 8]	12	catFR1	4	R1666S
101.997	6.076	460414	PROB	6.076	n/a	n/a	n/a	-999	-1	[3, 7, 7]	17	catFR1	4	R1666S
108.073	0.0	466481	DISTRACT_END	n/a	n/a	n/a	n/a	-999	-1	[0, 0, 0]	n/a	catFR1	4	R1666S
108.073	2.315	466490	STOP	n/a	n/a	n/a	n/a	-999	-1	[-999, -999, -999]	n/a	catFR1	4	R1666S
110.388	1.467	468799	REC_START	n/a	n/a	n/a	n/a	-999	-1	[0, 0, 0]	n/a	catFR1	4	R1666S
111.855	1.255	470272	REC_WORD	1.255	n/a	BULL	FarmAnimals	1	-1	[0, 0, 0]	n/a	catFR1	4	R1666S
113.11	1.472	471527	REC_WORD	1.472	n/a	HORSE	FarmAnimals	2	-1	[0, 0, 0]	n/a	catFR1	4	R1666S
114.582	1.748	472999	REC_WORD	1.748	n/a	COW	FarmAnimals	7	-1	[0, 0, 0]	n/a	catFR1	4	R1666S
116.33	2.195	474747	REC_WORD	2.195	n/a	CALF	FarmAnimals	8	-1	[0, 0, 0]	n/a	catFR1	4	R1666S
118.525	5.199	476942	REC_WORD	5.199	n/a	MOSQUITO	Insects	10	-1	[0, 0, 0]	n/a	catFR1	4	R1666S
123.724	5.642	482141	REC_WORD	5.642	n/a	HALLWAY	Building	5	-1	[0, 0, 0]	n/a	catFR1	4	R1666S
129.366	4.919	487783	REC_WORD_VV	4.919	n/a	<>	n/a	-999	-1	[0, 0, 0]	n/a	catFR1	4	R1666S
134.285	6.249	492702	REC_WORD	6.249	n/a	DOOR	Building	11	-1	[0, 0, 0]	n/a	catFR1	4	R1666S
140.534	7.379	498943	REC_END	n/a	n/a	n/a	n/a	-999	-1	[0, 0, 0]	n/a	catFR1	4	R1666S
147.913	10.343	506323	COUNTDOWN_START	n/a	n/a	n/a	n/a	-999	1	[0, 0, 0]	n/a	catFR1	4	R1666S
158.256	0.0	516668	COUNTDOWN_END	n/a	n/a	n/a	n/a	-999	1	[0, 0, 0]	n/a	catFR1	4	R1666S
158.256	1.8	516668	ENCODING_START	n/a	n/a	n/a	n/a	-999	1	[0, 0, 0]	n/a	catFR1	4	R1666S
160.056	1.616	518470	WORD	n/a	wordpools/wordpool_categorized_EN.txt	CAKE	Desserts	1	1	[0, 0, 0]	n/a	catFR1	4	R1666S
161.672	0.916	520089	WORD_OFF	n/a	n/a	CAKE	Desserts	1	1	[0, 0, 0]	n/a	catFR1	4	R1666S
162.588	1.609	521000	WORD	n/a	wordpools/wordpool_categorized_EN.txt	PIE	Desserts	2	1	[0, 0, 0]	n/a	catFR1	4	R1666S
164.197	0.775	522610	WORD_OFF	n/a	n/a	PIE	Desserts	2	1	[0, 0, 0]	n/a	catFR1	4	R1666S
164.972	1.6	523379	WORD	n/a	wordpools/wordpool_categorized_EN.txt	OCTOPUS	OceanAnimals	3	1	[0, 0, 0]	n/a	catFR1	4	R1666S
166.572	0.815	524988	WORD_OFF	n/a	n/a	OCTOPUS	OceanAnimals	3	1	[0, 0, 0]	n/a	catFR1	4	R1666S
167.387	1.601	525798	WORD	n/a	wordpools/wordpool_categorized_EN.txt	OYSTER	OceanAnimals	4	1	[0, 0, 0]	n/a	catFR1	4	R1666S
168.988	0.859	527398	WORD_OFF	n/a	n/a	OYSTER	OceanAnimals	4	1	[0, 0, 0]	n/a	catFR1	4	R1666S
169.847	1.601	528258	WORD	n/a	wordpools/wordpool_categorized_EN.txt	HICKORY	Trees	5	1	[0, 0, 0]	n/a	catFR1	4	R1666S
171.448	0.966	529867	WORD_OFF	n/a	n/a	HICKORY	Trees	5	1	[0, 0, 0]	n/a	catFR1	4	R1666S
172.414	1.599	530829	WORD	n/a	wordpools/wordpool_categorized_EN.txt	WALNUT	Trees	6	1	[0, 0, 0]	n/a	catFR1	4	R1666S
174.013	0.851	532428	WORD_OFF	n/a	n/a	WALNUT	Trees	6	1	[0, 0, 0]	n/a	catFR1	4	R1666S
174.864	1.602	533279	WORD	n/a	wordpools/wordpool_categorized_EN.txt	SHRIMP	OceanAnimals	7	1	[0, 0, 0]	n/a	catFR1	4	R1666S
176.466	0.79	534878	WORD_OFF	n/a	n/a	SHRIMP	OceanAnimals	7	1	[0, 0, 0]	n/a	catFR1	4	R1666S
177.256	1.608	535668	WORD	n/a	wordpools/wordpool_categorized_EN.txt	WHALE	OceanAnimals	8	1	[0, 0, 0]	n/a	catFR1	4	R1666S
178.864	0.774	537277	WORD_OFF	n/a	n/a	WHALE	OceanAnimals	8	1	[0, 0, 0]	n/a	catFR1	4	R1666S
179.638	1.601	538046	WORD	n/a	wordpools/wordpool_categorized_EN.txt	OAK	Trees	9	1	[0, 0, 0]	n/a	catFR1	4	R1666S
181.239	0.983	539656	WORD_OFF	n/a	n/a	OAK	Trees	9	1	[0, 0, 0]	n/a	catFR1	4	R1666S
182.222	1.601	540638	WORD	n/a	wordpools/wordpool_categorized_EN.txt	CEDAR	Trees	10	1	[0, 0, 0]	n/a	catFR1	4	R1666S
183.823	0.799	542237	WORD_OFF	n/a	n/a	CEDAR	Trees	10	1	[0, 0, 0]	n/a	catFR1	4	R1666S
184.622	1.6	543037	WORD	n/a	wordpools/wordpool_categorized_EN.txt	FUDGE	Desserts	11	1	[0, 0, 0]	n/a	catFR1	4	R1666S
186.222	0.917	544636	WORD_OFF	n/a	n/a	FUDGE	Desserts	11	1	[0, 0, 0]	n/a	catFR1	4	R1666S
187.139	1.608	545547	WORD	n/a	wordpools/wordpool_categorized_EN.txt	CUPCAKE	Desserts	12	1	[0, 0, 0]	n/a	catFR1	4	R1666S
188.747	0.0	547157	WORD_OFF	n/a	n/a	CUPCAKE	Desserts	12	1	[0, 0, 0]	n/a	catFR1	4	R1666S
188.747	0.005	547163	PROB	0.005	n/a	n/a	n/a	-999	1	[5, 4, 8]	17	catFR1	4	R1666S
188.752	0.0	547167	ENCODING_END	n/a	n/a	n/a	n/a	-999	1	[0, 0, 0]	n/a	catFR1	4	R1666S
188.752	0.0	547167	DISTRACT_START	n/a	n/a	n/a	n/a	-999	1	[0, 0, 0]	n/a	catFR1	4	R1666S
188.752	12.211	547168	START	n/a	n/a	n/a	n/a	-999	1	[-999, -999, -999]	n/a	catFR1	4	R1666S
200.963	4.042	559379	PROB	4.042	n/a	n/a	n/a	-999	1	[1, 5, 3]	9	catFR1	4	R1666S
205.005	6.459	563421	PROB	6.459	n/a	n/a	n/a	-999	1	[3, 8, 3]	14	catFR1	4	R1666S
211.464	0.0	569879	STOP	n/a	n/a	n/a	n/a	-999	1	[-999, -999, -999]	n/a	catFR1	4	R1666S
211.464	2.267	569881	DISTRACT_END	n/a	n/a	n/a	n/a	-999	1	[0, 0, 0]	n/a	catFR1	4	R1666S
213.731	1.097	572149	REC_START	n/a	n/a	n/a	n/a	-999	1	[0, 0, 0]	n/a	catFR1	4	R1666S
214.828	1.343	573243	REC_WORD	1.343	n/a	OYSTER	OceanAnimals	4	1	[0, 0, 0]	n/a	catFR1	4	R1666S
216.171	2.039	574586	REC_WORD	2.039	n/a	WALNUT	Trees	6	1	[0, 0, 0]	n/a	catFR1	4	R1666S
218.21	6.382	576625	REC_WORD	6.382	n/a	SHRIMP	OceanAnimals	7	1	[0, 0, 0]	n/a	catFR1	4	R1666S
224.592	4.78	583007	REC_WORD_VV	4.78	n/a	<>	n/a	-999	1	[0, 0, 0]	n/a	catFR1	4	R1666S
229.372	4.072	587787	REC_WORD	4.072	n/a	LADYBUG	Insects	-999	1	[0, 0, 0]	n/a	catFR1	4	R1666S
233.444	10.432	591859	REC_WORD	10.432	n/a	OCTOPUS	OceanAnimals	3	1	[0, 0, 0]	n/a	catFR1	4	R1666S
243.876	1.938	602283	REC_END	n/a	n/a	n/a	n/a	-999	1	[0, 0, 0]	n/a	catFR1	4	R1666S
245.814	10.342	604227	COUNTDOWN_START	n/a	n/a	n/a	n/a	-999	1	[0, 0, 0]	n/a	catFR1	4	R1666S
256.156	0.0	614562	COUNTDOWN_END	n/a	n/a	n/a	n/a	-999	1	[0, 0, 0]	n/a	catFR1	4	R1666S
256.156	2.308	614572	ENCODING_START	n/a	n/a	n/a	n/a	-999	2	[0, 0, 0]	n/a	catFR1	4	R1666S
258.464	1.6	616880	WORD	n/a	wordpools/wordpool_categorized_EN.txt	TURKEY	FarmAnimals	1	2	[0, 0, 0]	n/a	catFR1	4	R1666S
260.064	0.884	618469	WORD_OFF	n/a	n/a	TURKEY	FarmAnimals	1	2	[0, 0, 0]	n/a	catFR1	4	R1666S
260.948	1.608	619360	WORD	n/a	wordpools/wordpool_categorized_EN.txt	CHICKEN	FarmAnimals	2	2	[0, 0, 0]	n/a	catFR1	4	R1666S
262.556	0.866	620969	WORD_OFF	n/a	n/a	CHICKEN	FarmAnimals	2	2	[0, 0, 0]	n/a	catFR1	4	R1666S
263.422	1.609	621830	WORD	n/a	wordpools/wordpool_categorized_EN.txt	REFRIGERATOR	Appliances	3	2	[0, 0, 0]	n/a	catFR1	4	R1666S
265.031	0.852	623439	WORD_OFF	n/a	n/a	REFRIGERATOR	Appliances	3	2	[0, 0, 0]	n/a	catFR1	4	R1666S
265.883	1.607	624290	WORD	n/a	wordpools/wordpool_categorized_EN.txt	FREEZER	Appliances	4	2	[0, 0, 0]	n/a	catFR1	4	R1666S
267.49	0.808	625899	WORD_OFF	n/a	n/a	FREEZER	Appliances	4	2	[0, 0, 0]	n/a	catFR1	4	R1666S
268.298	1.6	626709	WORD	n/a	wordpools/wordpool_categorized_EN.txt	BARBIE	Toys	5	2	[0, 0, 0]	n/a	catFR1	4	R1666S
269.898	0.941	628308	WORD_OFF	n/a	n/a	BARBIE	Toys	5	2	[0, 0, 0]	n/a	catFR1	4	R1666S
270.839	1.609	629250	WORD	n/a	wordpools/wordpool_categorized_EN.txt	MARBLES	Toys	6	2	[0, 0, 0]	n/a	catFR1	4	R1666S
272.448	0.832	630859	WORD_OFF	n/a	n/a	MARBLES	Toys	6	2	[0, 0, 0]	n/a	catFR1	4	R1666S
273.28	1.601	631689	WORD	n/a	wordpools/wordpool_categorized_EN.txt	GOAT	FarmAnimals	7	2	[0, 0, 0]	n/a	catFR1	4	R1666S
274.881	0.784	633288	WORD_OFF	n/a	n/a	GOAT	FarmAnimals	7	2	[0, 0, 0]	n/a	catFR1	4	R1666S
275.665	1.601	634078	WORD	n/a	wordpools/wordpool_categorized_EN.txt	HEN	FarmAnimals	8	2	[0, 0, 0]	n/a	catFR1	4	R1666S
277.266	0.808	635677	WORD_OFF	n/a	n/a	HEN	FarmAnimals	8	2	[0, 0, 0]	n/a	catFR1	4	R1666S
278.074	1.608	636487	WORD	n/a	wordpools/wordpool_categorized_EN.txt	VACUUM	Appliances	9	2	[0, 0, 0]	n/a	catFR1	4	R1666S
279.682	0.959	638097	WORD_OFF	n/a	n/a	VACUUM	Appliances	9	2	[0, 0, 0]	n/a	catFR1	4	R1666S
280.641	1.608	639048	WORD	n/a	wordpools/wordpool_categorized_EN.txt	STOVE	Appliances	10	2	[0, 0, 0]	n/a	catFR1	4	R1666S
282.249	0.907	640658	WORD_OFF	n/a	n/a	STOVE	Appliances	10	2	[0, 0, 0]	n/a	catFR1	4	R1666S
283.156	1.609	641569	WORD	n/a	wordpools/wordpool_categorized_EN.txt	FOOTBALL	Toys	11	2	[0, 0, 0]	n/a	catFR1	4	R1666S
284.765	0.933	643178	WORD_OFF	n/a	n/a	FOOTBALL	Toys	11	2	[0, 0, 0]	n/a	catFR1	4	R1666S
285.698	1.608	644109	WORD	n/a	wordpools/wordpool_categorized_EN.txt	BASEBALL	Toys	12	2	[0, 0, 0]	n/a	catFR1	4	R1666S
287.306	0.002	645719	WORD_OFF	n/a	n/a	BASEBALL	Toys	12	2	[0, 0, 0]	n/a	catFR1	4	R1666S
287.308	0.0	645719	ENCODING_END	n/a	n/a	n/a	n/a	-999	2	[0, 0, 0]	n/a	catFR1	4	R1666S
287.308	0.0	645719	DISTRACT_START	n/a	n/a	n/a	n/a	-999	2	[0, 0, 0]	n/a	catFR1	4	R1666S
287.306	0.002	645720	PROB	0.002	n/a	n/a	n/a	-999	2	[7, 5, 8]	20	catFR1	4	R1666S
287.308	7.241	645722	START	n/a	n/a	n/a	n/a	-999	2	[-999, -999, -999]	n/a	catFR1	4	R1666S
294.549	7.168	652963	PROB	7.168	n/a	n/a	n/a	-999	2	[5, 2, 4]	11	catFR1	4	R1666S
301.717	4.081	660131	PROB	4.081	n/a	n/a	n/a	-999	2	[2, 1, 3]	6	catFR1	4	R1666S
305.798	5.675	664212	PROB	5.675	n/a	n/a	n/a	-999	2	[1, 8, 3]	12	catFR1	4	R1666S
311.473	0.0	669881	DISTRACT_END	n/a	n/a	n/a	n/a	-999	2	[0, 0, 0]	n/a	catFR1	4	R1666S
311.473	2.192	669887	STOP	n/a	n/a	n/a	n/a	-999	2	[-999, -999, -999]	n/a	catFR1	4	R1666S
313.665	1.106	672078	REC_START	n/a	n/a	n/a	n/a	-999	2	[0, 0, 0]	n/a	catFR1	4	R1666S
314.771	1.163	673185	REC_WORD	1.163	n/a	TURKEY	FarmAnimals	1	2	[0, 0, 0]	n/a	catFR1	4	R1666S
315.934	2.263	674348	REC_WORD	2.263	n/a	CHICKEN	FarmAnimals	2	2	[0, 0, 0]	n/a	catFR1	4	R1666S
318.197	2.327	676611	REC_WORD	2.327	n/a	REFRIGERATOR	Appliances	3	2	[0, 0, 0]	n/a	catFR1	4	R1666S
320.524	2.236	678938	REC_WORD	2.236	n/a	FREEZER	Appliances	4	2	[0, 0, 0]	n/a	catFR1	4	R1666S
322.76	10.317	681174	REC_WORD	10.317	n/a	GOAT	FarmAnimals	7	2	[0, 0, 0]	n/a	catFR1	4	R1666S
333.077	5.485	691491	REC_WORD	5.485	n/a	HEN	FarmAnimals	8	2	[0, 0, 0]	n/a	catFR1	4	R1666S
338.562	5.235	696976	REC_WORD	5.235	n/a	CHICKEN	FarmAnimals	2	2	[0, 0, 0]	n/a	catFR1	4	R1666S
343.797	2.209	702202	REC_END	n/a	n/a	n/a	n/a	-999	2	[0, 0, 0]	n/a	catFR1	4	R1666S
346.006	10.343	704419	COUNTDOWN_START	n/a	n/a	n/a	n/a	-999	2	[0, 0, 0]	n/a	catFR1	4	R1666S
356.349	0.0	714754	COUNTDOWN_END	n/a	n/a	n/a	n/a	-999	2	[0, 0, 0]	n/a	catFR1	4	R1666S
356.349	2.242	714764	ENCODING_START	n/a	n/a	n/a	n/a	-999	3	[0, 0, 0]	n/a	catFR1	4	R1666S
358.591	1.599	717001	WORD	n/a	wordpools/wordpool_categorized_EN.txt	RUM	Beverages	1	3	[0, 0, 0]	n/a	catFR1	4	R1666S
360.19	0.918	718600	WORD_OFF	n/a	n/a	RUM	Beverages	1	3	[0, 0, 0]	n/a	catFR1	4	R1666S
361.108	1.601	719511	WORD	n/a	wordpools/wordpool_categorized_EN.txt	COFFEE	Beverages	2	3	[0, 0, 0]	n/a	catFR1	4	R1666S
362.709	0.898	721121	WORD_OFF	n/a	n/a	COFFEE	Beverages	2	3	[0, 0, 0]	n/a	catFR1	4	R1666S
363.607	1.601	722012	WORD	n/a	wordpools/wordpool_categorized_EN.txt	DENIM	Fabric	3	3	[0, 0, 0]	n/a	catFR1	4	R1666S
365.208	0.933	723621	WORD_OFF	n/a	n/a	DENIM	Fabric	3	3	[0, 0, 0]	n/a	catFR1	4	R1666S
366.141	1.609	724552	WORD	n/a	wordpools/wordpool_categorized_EN.txt	FLEECE	Fabric	4	3	[0, 0, 0]	n/a	catFR1	4	R1666S
367.75	0.899	726162	WORD_OFF	n/a	n/a	FLEECE	Fabric	4	3	[0, 0, 0]	n/a	catFR1	4	R1666S
368.649	1.6	727063	WORD	n/a	wordpools/wordpool_categorized_EN.txt	GRAPE	Fruit	5	3	[0, 0, 0]	n/a	catFR1	4	R1666S
370.249	0.774	728662	WORD_OFF	n/a	n/a	GRAPE	Fruit	5	3	[0, 0, 0]	n/a	catFR1	4	R1666S
371.023	1.601	729431	WORD	n/a	wordpools/wordpool_categorized_EN.txt	LIME	Fruit	6	3	[0, 0, 0]	n/a	catFR1	4	R1666S
372.624	0.894	731031	WORD_OFF	n/a	n/a	LIME	Fruit	6	3	[0, 0, 0]	n/a	catFR1	4	R1666S
373.518	1.605	731922	WORD	n/a	wordpools/wordpool_categorized_EN.txt	COLA	Beverages	7	3	[0, 0, 0]	n/a	catFR1	4	R1666S
375.123	0.86	733531	WORD_OFF	n/a	n/a	COLA	Beverages	7	3	[0, 0, 0]	n/a	catFR1	4	R1666S
375.983	1.61	734391	WORD	n/a	wordpools/wordpool_categorized_EN.txt	TEA	Beverages	8	3	[0, 0, 0]	n/a	catFR1	4	R1666S
377.593	0.833	736001	WORD_OFF	n/a	n/a	TEA	Beverages	8	3	[0, 0, 0]	n/a	catFR1	4	R1666S
378.426	1.599	736831	WORD	n/a	wordpools/wordpool_categorized_EN.txt	COTTON	Fabric	9	3	[0, 0, 0]	n/a	catFR1	4	R1666S
380.025	0.773	738440	WORD_OFF	n/a	n/a	COTTON	Fabric	9	3	[0, 0, 0]	n/a	catFR1	4	R1666S
380.798	1.602	739210	WORD	n/a	wordpools/wordpool_categorized_EN.txt	NYLON	Fabric	10	3	[0, 0, 0]	n/a	catFR1	4	R1666S
382.4	0.892	740809	WORD_OFF	n/a	n/a	NYLON	Fabric	10	3	[0, 0, 0]	n/a	catFR1	4	R1666S
383.292	1.6	741700	WORD	n/a	wordpools/wordpool_categorized_EN.txt	STRAWBERRY	Fruit	11	3	[0, 0, 0]	n/a	catFR1	4	R1666S
384.892	0.891	743299	WORD_OFF	n/a	n/a	STRAWBERRY	Fruit	11	3	[0, 0, 0]	n/a	catFR1	4	R1666S
385.783	1.599	744190	WORD	n/a	wordpools/wordpool_categorized_EN.txt	PEACH	Fruit	12	3	[0, 0, 0]	n/a	catFR1	4	R1666S
387.382	0.002	745789	WORD_OFF	n/a	n/a	PEACH	Fruit	12	3	[0, 0, 0]	n/a	catFR1	4	R1666S
387.384	0.0	745789	ENCODING_END	n/a	n/a	n/a	n/a	-999	3	[0, 0, 0]	n/a	catFR1	4	R1666S
387.383	0.001	745796	PROB	0.001	n/a	n/a	n/a	-999	3	[7, 3, 8]	18	catFR1	4	R1666S
387.384	0.0	745797	START	n/a	n/a	n/a	n/a	-999	3	[-999, -999, -999]	n/a	catFR1	4	R1666S
387.384	7.066	745799	DISTRACT_START	n/a	n/a	n/a	n/a	-999	3	[0, 0, 0]	n/a	catFR1	4	R1666S
394.45	5.859	752863	PROB	5.859	n/a	n/a	n/a	-999	3	[4, 7, 8]	19	catFR1	4	R1666S
400.309	5.299	758722	PROB	5.299	n/a	n/a	n/a	-999	3	[5, 5, 8]	18	catFR1	4	R1666S
405.608	8.186	764021	PROB	8.186	n/a	n/a	n/a	-999	3	[8, 7, 8]	23	catFR1	4	R1666S
413.794	0.0	772199	DISTRACT_END	n/a	n/a	n/a	n/a	-999	3	[0, 0, 0]	n/a	catFR1	4	R1666S
413.794	2.346	772207	STOP	n/a	n/a	n/a	n/a	-999	3	[-999, -999, -999]	n/a	catFR1	4	R1666S
416.14	1.091	774547	REC_START	n/a	n/a	n/a	n/a	-999	3	[0, 0, 0]	n/a	catFR1	4	R1666S
417.231	1.539	775644	REC_WORD	1.539	n/a	RUM	Beverages	1	3	[0, 0, 0]	n/a	catFR1	4	R1666S
418.77	1.935	777183	REC_WORD	1.935	n/a	COFFEE	Beverages	2	3	[0, 0, 0]	n/a	catFR1	4	R1666S
420.705	2.57	779118	REC_WORD	2.57	n/a	DENIM	Fabric	3	3	[0, 0, 0]	n/a	catFR1	4	R1666S
423.275	8.786	781688	REC_WORD	8.786	n/a	LIME	Fruit	6	3	[0, 0, 0]	n/a	catFR1	4	R1666S
432.061	4.325	790473	REC_WORD	4.325	n/a	COTTON	Fabric	9	3	[0, 0, 0]	n/a	catFR1	4	R1666S
436.386	9.887	794798	REC_WORD	9.887	n/a	FLEECE	Fabric	4	3	[0, 0, 0]	n/a	catFR1	4	R1666S
446.273	1.935	804682	REC_END	n/a	n/a	n/a	n/a	-999	3	[0, 0, 0]	n/a	catFR1	4	R1666S
448.208	10.333	806615	COUNTDOWN_START	n/a	n/a	n/a	n/a	-999	3	[0, 0, 0]	n/a	catFR1	4	R1666S
458.541	0.001	816950	COUNTDOWN_END	n/a	n/a	n/a	n/a	-999	3	[0, 0, 0]	n/a	catFR1	4	R1666S
458.542	2.283	816950	ENCODING_START	n/a	n/a	n/a	n/a	-999	4	[0, 0, 0]	n/a	catFR1	4	R1666S
460.825	1.6	819238	WORD	n/a	wordpools/wordpool_categorized_EN.txt	SHORTS	Clothing	1	4	[0, 0, 0]	n/a	catFR1	4	R1666S
462.425	0.842	820837	WORD_OFF	n/a	n/a	SHORTS	Clothing	1	4	[0, 0, 0]	n/a	catFR1	4	R1666S
463.267	1.617	821677	WORD	n/a	wordpools/wordpool_categorized_EN.txt	SKIRT	Clothing	2	4	[0, 0, 0]	n/a	catFR1	4	R1666S
464.884	0.933	823297	WORD_OFF	n/a	n/a	SKIRT	Clothing	2	4	[0, 0, 0]	n/a	catFR1	4	R1666S
465.817	1.607	824228	WORD	n/a	wordpools/wordpool_categorized_EN.txt	VIOLET	Flowers	3	4	[0, 0, 0]	n/a	catFR1	4	R1666S
467.424	0.97	825827	WORD_OFF	n/a	n/a	VIOLET	Flowers	3	4	[0, 0, 0]	n/a	catFR1	4	R1666S
468.394	1.606	826799	WORD	n/a	wordpools/wordpool_categorized_EN.txt	SUNFLOWER	Flowers	4	4	[0, 0, 0]	n/a	catFR1	4	R1666S
470.0	0.992	828409	WORD_OFF	n/a	n/a	SUNFLOWER	Flowers	4	4	[0, 0, 0]	n/a	catFR1	4	R1666S
470.992	1.6	829401	WORD	n/a	wordpools/wordpool_categorized_EN.txt	FORK	KitchenTools	5	4	[0, 0, 0]	n/a	catFR1	4	R1666S
472.592	0.975	831000	WORD_OFF	n/a	n/a	FORK	KitchenTools	5	4	[0, 0, 0]	n/a	catFR1	4	R1666S
473.567	1.601	831972	WORD	n/a	wordpools/wordpool_categorized_EN.txt	TONGS	KitchenTools	6	4	[0, 0, 0]	n/a	catFR1	4	R1666S
475.168	0.808	833581	WORD_OFF	n/a	n/a	TONGS	KitchenTools	6	4	[0, 0, 0]	n/a	catFR1	4	R1666S
475.976	1.608	834381	WORD	n/a	wordpools/wordpool_categorized_EN.txt	MARIGOLD	Flowers	7	4	[0, 0, 0]	n/a	catFR1	4	R1666S
477.584	0.875	835990	WORD_OFF	n/a	n/a	MARIGOLD	Flowers	7	4	[0, 0, 0]	n/a	catFR1	4	R1666S
478.459	1.6	836861	WORD	n/a	wordpools/wordpool_categorized_EN.txt	DAFFODIL	Flowers	8	4	[0, 0, 0]	n/a	catFR1	4	R1666S
480.059	0.759	838470	WORD_OFF	n/a	n/a	DAFFODIL	Flowers	8	4	[0, 0, 0]	n/a	catFR1	4	R1666S
480.818	1.6	839219	WORD	n/a	wordpools/wordpool_categorized_EN.txt	SOCKS	Clothing	9	4	[0, 0, 0]	n/a	catFR1	4	R1666S
482.418	0.875	840829	WORD_OFF	n/a	n/a	SOCKS	Clothing	9	4	[0, 0, 0]	n/a	catFR1	4	R1666S
483.293	1.608	841699	WORD	n/a	wordpools/wordpool_categorized_EN.txt	COAT	Clothing	10	4	[0, 0, 0]	n/a	catFR1	4	R1666S
484.901	0.96	843309	WORD_OFF	n/a	n/a	COAT	Clothing	10	4	[0, 0, 0]	n/a	catFR1	4	R1666S
485.861	1.6	844271	WORD	n/a	wordpools/wordpool_categorized_EN.txt	CORKSCREW	KitchenTools	11	4	[0, 0, 0]	n/a	catFR1	4	R1666S
487.461	0.84	845870	WORD_OFF	n/a	n/a	CORKSCREW	KitchenTools	11	4	[0, 0, 0]	n/a	catFR1	4	R1666S
488.301	1.6	846710	WORD	n/a	wordpools/wordpool_categorized_EN.txt	COLANDER	KitchenTools	12	4	[0, 0, 0]	n/a	catFR1	4	R1666S
489.901	0.003	848309	WORD_OFF	n/a	n/a	COLANDER	KitchenTools	12	4	[0, 0, 0]	n/a	catFR1	4	R1666S
489.904	0.0	848309	ENCODING_END	n/a	n/a	n/a	n/a	-999	4	[0, 0, 0]	n/a	catFR1	4	R1666S
489.904	0.0	848309	DISTRACT_START	n/a	n/a	n/a	n/a	-999	4	[0, 0, 0]	n/a	catFR1	4	R1666S
489.901	0.003	848313	PROB	0.003	n/a	n/a	n/a	-999	4	[4, 7, 2]	13	catFR1	4	R1666S
489.904	6.932	848316	START	n/a	n/a	n/a	n/a	-999	4	[-999, -999, -999]	n/a	catFR1	4	R1666S
496.836	4.291	855248	PROB	4.291	n/a	n/a	n/a	-999	4	[1, 1, 6]	8	catFR1	4	R1666S
501.127	3.69	859538	PROB	3.69	n/a	n/a	n/a	-999	4	[8, 8, 1]	17	catFR1	4	R1666S
504.817	12.102	863228	PROB	12.102	n/a	n/a	n/a	-999	4	[6, 8, 5]	19	catFR1	4	R1666S
516.919	0.0	875326	DISTRACT_END	n/a	n/a	n/a	n/a	-999	4	[0, 0, 0]	n/a	catFR1	4	R1666S
516.919	2.307	875330	STOP	n/a	n/a	n/a	n/a	-999	4	[-999, -999, -999]	n/a	catFR1	4	R1666S
519.226	9.353	877634	REC_START	n/a	n/a	n/a	n/a	-999	4	[0, 0, 0]	n/a	catFR1	4	R1666S
528.579	2.395	886990	REC_WORD	2.395	n/a	DENIM	Fabric	-999	4	[0, 0, 0]	n/a	catFR1	4	R1666S
530.974	1.246	889385	REC_WORD_VV	1.246	n/a	<>	n/a	-999	4	[0, 0, 0]	n/a	catFR1	4	R1666S
532.22	4.868	890631	REC_WORD	4.868	n/a	FLOWER	n/a	-999	4	[0, 0, 0]	n/a	catFR1	4	R1666S
537.088	12.27	895499	REC_WORD_VV	12.27	n/a	<>	n/a	-999	4	[0, 0, 0]	n/a	catFR1	4	R1666S
549.358	2.076	907758	REC_END	n/a	n/a	n/a	n/a	-999	4	[0, 0, 0]	n/a	catFR1	4	R1666S
551.434	10.342	909844	COUNTDOWN_START	n/a	n/a	n/a	n/a	-999	4	[0, 0, 0]	n/a	catFR1	4	R1666S
561.776	0.0	920179	COUNTDOWN_END	n/a	n/a	n/a	n/a	-999	4	[0, 0, 0]	n/a	catFR1	4	R1666S
561.776	2.109	920189	ENCODING_START	n/a	n/a	n/a	n/a	-999	5	[0, 0, 0]	n/a	catFR1	4	R1666S
563.885	1.607	922294	WORD	n/a	wordpools/wordpool_categorized_EN.txt	BIKE	Vehicles	1	5	[0, 0, 0]	n/a	catFR1	4	R1666S
565.492	0.968	923904	WORD_OFF	n/a	n/a	BIKE	Vehicles	1	5	[0, 0, 0]	n/a	catFR1	4	R1666S
566.46	1.6	924865	WORD	n/a	wordpools/wordpool_categorized_EN.txt	PLANE	Vehicles	2	5	[0, 0, 0]	n/a	catFR1	4	R1666S
568.06	0.809	926465	WORD_OFF	n/a	n/a	PLANE	Vehicles	2	5	[0, 0, 0]	n/a	catFR1	4	R1666S
568.869	1.6	927275	WORD	n/a	wordpools/wordpool_categorized_EN.txt	CHAIR	Furniture	3	5	[0, 0, 0]	n/a	catFR1	4	R1666S
570.469	0.991	928874	WORD_OFF	n/a	n/a	CHAIR	Furniture	3	5	[0, 0, 0]	n/a	catFR1	4	R1666S
571.46	1.609	929866	WORD	n/a	wordpools/wordpool_categorized_EN.txt	SHELF	Furniture	4	5	[0, 0, 0]	n/a	catFR1	4	R1666S
573.069	0.908	931475	WORD_OFF	n/a	n/a	SHELF	Furniture	4	5	[0, 0, 0]	n/a	catFR1	4	R1666S
573.977	1.6	932386	WORD	n/a	wordpools/wordpool_categorized_EN.txt	CREEK	Landscapes	5	5	[0, 0, 0]	n/a	catFR1	4	R1666S
575.577	0.852	933986	WORD_OFF	n/a	n/a	CREEK	Landscapes	5	5	[0, 0, 0]	n/a	catFR1	4	R1666S
576.429	1.598	934836	WORD	n/a	wordpools/wordpool_categorized_EN.txt	LAKE	Landscapes	6	5	[0, 0, 0]	n/a	catFR1	4	R1666S
578.027	0.768	936435	WORD_OFF	n/a	n/a	LAKE	Landscapes	6	5	[0, 0, 0]	n/a	catFR1	4	R1666S
578.795	1.606	937205	WORD	n/a	wordpools/wordpool_categorized_EN.txt	CAR	Vehicles	7	5	[0, 0, 0]	n/a	catFR1	4	R1666S
580.401	1.001	938804	WORD_OFF	n/a	n/a	CAR	Vehicles	7	5	[0, 0, 0]	n/a	catFR1	4	R1666S
581.402	1.6	939806	WORD	n/a	wordpools/wordpool_categorized_EN.txt	JEEP	Vehicles	8	5	[0, 0, 0]	n/a	catFR1	4	R1666S
583.002	0.893	941405	WORD_OFF	n/a	n/a	JEEP	Vehicles	8	5	[0, 0, 0]	n/a	catFR1	4	R1666S
583.895	1.606	942296	WORD	n/a	wordpools/wordpool_categorized_EN.txt	FOREST	Landscapes	9	5	[0, 0, 0]	n/a	catFR1	4	R1666S
585.501	0.983	943906	WORD_OFF	n/a	n/a	FOREST	Landscapes	9	5	[0, 0, 0]	n/a	catFR1	4	R1666S
586.484	1.6	944888	WORD	n/a	wordpools/wordpool_categorized_EN.txt	RIVER	Landscapes	10	5	[0, 0, 0]	n/a	catFR1	4	R1666S
588.084	0.884	946487	WORD_OFF	n/a	n/a	RIVER	Landscapes	10	5	[0, 0, 0]	n/a	catFR1	4	R1666S
588.968	1.601	947378	WORD	n/a	wordpools/wordpool_categorized_EN.txt	SOFA	Furniture	11	5	[0, 0, 0]	n/a	catFR1	4	R1666S
590.569	0.824	948977	WORD_OFF	n/a	n/a	SOFA	Furniture	11	5	[0, 0, 0]	n/a	catFR1	4	R1666S
591.393	1.6	949797	WORD	n/a	wordpools/wordpool_categorized_EN.txt	RECLINER	Furniture	12	5	[0, 0, 0]	n/a	catFR1	4	R1666S
592.993	0.001	951396	WORD_OFF	n/a	n/a	RECLINER	Furniture	12	5	[0, 0, 0]	n/a	catFR1	4	R1666S
592.994	0.003	951404	PROB	0.003	n/a	n/a	n/a	-999	5	[2, 5, 2]	9	catFR1	4	R1666S
592.997	0.0	951406	ENCODING_END	n/a	n/a	n/a	n/a	-999	5	[0, 0, 0]	n/a	catFR1	4	R1666S
592.997	0.0	951406	DISTRACT_START	n/a	n/a	n/a	n/a	-999	5	[0, 0, 0]	n/a	catFR1	4	R1666S
592.997	4.681	951407	START	n/a	n/a	n/a	n/a	-999	5	[-999, -999, -999]	n/a	catFR1	4	R1666S
597.678	6.091	956088	PROB	6.091	n/a	n/a	n/a	-999	5	[7, 4, 7]	18	catFR1	4	R1666S
603.769	5.183	962179	PROB	5.183	n/a	n/a	n/a	-999	5	[2, 6, 7]	15	catFR1	4	R1666S
608.952	7.382	967362	PROB	7.382	n/a	n/a	n/a	-999	5	[7, 3, 5]	15	catFR1	4	R1666S
616.334	0.0	974739	DISTRACT_END	n/a	n/a	n/a	n/a	-999	5	[0, 0, 0]	n/a	catFR1	4	R1666S
616.334	2.078	974744	STOP	n/a	n/a	n/a	n/a	-999	5	[-999, -999, -999]	n/a	catFR1	4	R1666S
618.412	1.265	976814	REC_START	n/a	n/a	n/a	n/a	-999	5	[0, 0, 0]	n/a	catFR1	4	R1666S
619.677	1.327	978087	REC_WORD	1.327	n/a	BIKE	Vehicles	1	5	[0, 0, 0]	n/a	catFR1	4	R1666S
621.004	1.452	979414	REC_WORD	1.452	n/a	PLANE	Vehicles	2	5	[0, 0, 0]	n/a	catFR1	4	R1666S
622.456	1.883	980866	REC_WORD	1.883	n/a	CHAIR	Furniture	3	5	[0, 0, 0]	n/a	catFR1	4	R1666S
624.339	2.045	982749	REC_WORD	2.045	n/a	CAR	Vehicles	7	5	[0, 0, 0]	n/a	catFR1	4	R1666S
626.384	4.361	984794	REC_WORD	4.361	n/a	SOFA	Furniture	11	5	[0, 0, 0]	n/a	catFR1	4	R1666S
630.745	4.099	989155	REC_WORD	4.099	n/a	RIVER	Landscapes	10	5	[0, 0, 0]	n/a	catFR1	4	R1666S
634.844	4.515	993254	REC_WORD_VV	4.515	n/a	<>	n/a	-999	5	[0, 0, 0]	n/a	catFR1	4	R1666S
639.359	8.755	997769	REC_WORD	8.755	n/a	SOFA	Furniture	11	5	[0, 0, 0]	n/a	catFR1	4	R1666S
648.114	0.439	1006523	REC_WORD	0.439	n/a	COUCH	n/a	-999	5	[0, 0, 0]	n/a	catFR1	4	R1666S
648.553	3.54	1006958	REC_END	n/a	n/a	n/a	n/a	-999	5	[0, 0, 0]	n/a	catFR1	4	R1666S
652.093	10.335	1010501	COUNTDOWN_START	n/a	n/a	n/a	n/a	-999	5	[0, 0, 0]	n/a	catFR1	4	R1666S
662.428	0.0	1020836	COUNTDOWN_END	n/a	n/a	n/a	n/a	-999	5	[0, 0, 0]	n/a	catFR1	4	R1666S
662.428	2.167	1020836	ENCODING_START	n/a	n/a	n/a	n/a	-999	6	[0, 0, 0]	n/a	catFR1	4	R1666S
664.595	1.6	1023002	WORD	n/a	wordpools/wordpool_categorized_EN.txt	BEAR	Zoo	1	6	[0, 0, 0]	n/a	catFR1	4	R1666S
666.195	0.809	1024602	WORD_OFF	n/a	n/a	BEAR	Zoo	1	6	[0, 0, 0]	n/a	catFR1	4	R1666S
667.004	1.606	1025412	WORD	n/a	wordpools/wordpool_categorized_EN.txt	MONKEY	Zoo	2	6	[0, 0, 0]	n/a	catFR1	4	R1666S
668.61	0.759	1027011	WORD_OFF	n/a	n/a	MONKEY	Zoo	2	6	[0, 0, 0]	n/a	catFR1	4	R1666S
669.369	1.601	1027770	WORD	n/a	wordpools/wordpool_categorized_EN.txt	TELEVISION	Electronics	3	6	[0, 0, 0]	n/a	catFR1	4	R1666S
670.97	0.907	1029380	WORD_OFF	n/a	n/a	TELEVISION	Electronics	3	6	[0, 0, 0]	n/a	catFR1	4	R1666S
671.877	1.601	1030281	WORD	n/a	wordpools/wordpool_categorized_EN.txt	PHONE	Electronics	4	6	[0, 0, 0]	n/a	catFR1	4	R1666S
673.478	0.801	1031880	WORD_OFF	n/a	n/a	PHONE	Electronics	4	6	[0, 0, 0]	n/a	catFR1	4	R1666S
674.279	1.607	1032680	WORD	n/a	wordpools/wordpool_categorized_EN.txt	MOTH	Insects	5	6	[0, 0, 0]	n/a	catFR1	4	R1666S
675.886	0.808	1034289	WORD_OFF	n/a	n/a	MOTH	Insects	5	6	[0, 0, 0]	n/a	catFR1	4	R1666S
676.694	1.6	1035099	WORD	n/a	wordpools/wordpool_categorized_EN.txt	ANT	Insects	6	6	[0, 0, 0]	n/a	catFR1	4	R1666S
678.294	0.975	1036698	WORD_OFF	n/a	n/a	ANT	Insects	6	6	[0, 0, 0]	n/a	catFR1	4	R1666S
679.269	1.601	1037670	WORD	n/a	wordpools/wordpool_categorized_EN.txt	CHIMPANZEE	Zoo	7	6	[0, 0, 0]	n/a	catFR1	4	R1666S
680.87	0.825	1039279	WORD_OFF	n/a	n/a	CHIMPANZEE	Zoo	7	6	[0, 0, 0]	n/a	catFR1	4	R1666S
681.695	1.601	1040099	WORD	n/a	wordpools/wordpool_categorized_EN.txt	ORANGUTAN	Zoo	8	6	[0, 0, 0]	n/a	catFR1	4	R1666S
683.296	0.951	1041699	WORD_OFF	n/a	n/a	ORANGUTAN	Zoo	8	6	[0, 0, 0]	n/a	catFR1	4	R1666S
684.247	1.599	1042650	WORD	n/a	wordpools/wordpool_categorized_EN.txt	FLY	Insects	9	6	[0, 0, 0]	n/a	catFR1	4	R1666S
685.846	0.991	1044249	WORD_OFF	n/a	n/a	FLY	Insects	9	6	[0, 0, 0]	n/a	catFR1	4	R1666S
686.837	1.609	1045241	WORD	n/a	wordpools/wordpool_categorized_EN.txt	BEETLE	Insects	10	6	[0, 0, 0]	n/a	catFR1	4	R1666S
688.446	0.974	1046851	WORD_OFF	n/a	n/a	BEETLE	Insects	10	6	[0, 0, 0]	n/a	catFR1	4	R1666S
689.42	1.601	1047823	WORD	n/a	wordpools/wordpool_categorized_EN.txt	TABLET	Electronics	11	6	[0, 0, 0]	n/a	catFR1	4	R1666S
691.021	0.926	1049422	WORD_OFF	n/a	n/a	TABLET	Electronics	11	6	[0, 0, 0]	n/a	catFR1	4	R1666S
691.947	1.6	1050353	WORD	n/a	wordpools/wordpool_categorized_EN.txt	COMPUTER	Electronics	12	6	[0, 0, 0]	n/a	catFR1	4	R1666S
693.547	0.002	1051953	WORD_OFF	n/a	n/a	COMPUTER	Electronics	12	6	[0, 0, 0]	n/a	catFR1	4	R1666S
693.549	0.0	1051953	ENCODING_END	n/a	n/a	n/a	n/a	-999	6	[0, 0, 0]	n/a	catFR1	4	R1666S
693.549	0.0	1051953	DISTRACT_START	n/a	n/a	n/a	n/a	-999	6	[0, 0, 0]	n/a	catFR1	4	R1666S
693.545	0.004	1051954	PROB	0.004	n/a	n/a	n/a	-999	6	[3, 5, 4]	12	catFR1	4	R1666S
693.549	5.83	1051958	START	n/a	n/a	n/a	n/a	-999	6	[-999, -999, -999]	n/a	catFR1	4	R1666S
699.379	5.25	1057788	PROB	5.25	n/a	n/a	n/a	-999	6	[2, 6, 7]	15	catFR1	4	R1666S
704.629	5.558	1063038	PROB	5.558	n/a	n/a	n/a	-999	6	[8, 5, 8]	21	catFR1	4	R1666S
710.187	5.391	1068596	PROB	5.391	n/a	n/a	n/a	-999	6	[6, 7, 8]	21	catFR1	4	R1666S
715.578	0.0	1073979	DISTRACT_END	n/a	n/a	n/a	n/a	-999	6	[0, 0, 0]	n/a	catFR1	4	R1666S
715.578	2.069	1073987	STOP	n/a	n/a	n/a	n/a	-999	6	[-999, -999, -999]	n/a	catFR1	4	R1666S
717.647	1.341	1076054	REC_START	n/a	n/a	n/a	n/a	-999	6	[0, 0, 0]	n/a	catFR1	4	R1666S
718.988	1.35	1077396	REC_WORD	1.35	n/a	BEAR	Zoo	1	6	[0, 0, 0]	n/a	catFR1	4	R1666S
720.338	1.831	1078746	REC_WORD	1.831	n/a	MONKEY	Zoo	2	6	[0, 0, 0]	n/a	catFR1	4	R1666S
722.169	2.66	1080577	REC_WORD	2.66	n/a	TELEVISION	Electronics	3	6	[0, 0, 0]	n/a	catFR1	4	R1666S
724.829	2.15	1083237	REC_WORD	2.15	n/a	SOFA	Furniture	-999	6	[0, 0, 0]	n/a	catFR1	4	R1666S
726.979	5.206	1085387	REC_WORD	5.206	n/a	ORANGUTAN	Zoo	8	6	[0, 0, 0]	n/a	catFR1	4	R1666S
732.185	15.613	1090593	REC_WORD_VV	15.613	n/a	<>	n/a	-999	6	[0, 0, 0]	n/a	catFR1	4	R1666S
747.798	2.856	1106199	REC_END	n/a	n/a	n/a	n/a	-999	6	[0, 0, 0]	n/a	catFR1	4	R1666S
750.654	10.36	1109063	COUNTDOWN_START	n/a	n/a	n/a	n/a	-999	6	[0, 0, 0]	n/a	catFR1	4	R1666S
761.014	0.0	1119419	COUNTDOWN_END	n/a	n/a	n/a	n/a	-999	6	[0, 0, 0]	n/a	catFR1	4	R1666S
761.014	2.207	1119419	ENCODING_START	n/a	n/a	n/a	n/a	-999	7	[0, 0, 0]	n/a	catFR1	4	R1666S
763.221	1.601	1121625	WORD	n/a	wordpools/wordpool_categorized_EN.txt	SLINKY	Toys	1	7	[0, 0, 0]	n/a	catFR1	4	R1666S
764.822	0.841	1123225	WORD_OFF	n/a	n/a	SLINKY	Toys	1	7	[0, 0, 0]	n/a	catFR1	4	R1666S
765.663	1.599	1124065	WORD	n/a	wordpools/wordpool_categorized_EN.txt	FRISBEE	Toys	2	7	[0, 0, 0]	n/a	catFR1	4	R1666S
767.262	0.975	1125664	WORD_OFF	n/a	n/a	FRISBEE	Toys	2	7	[0, 0, 0]	n/a	catFR1	4	R1666S
768.237	1.6	1126636	WORD	n/a	wordpools/wordpool_categorized_EN.txt	MILK	Beverages	3	7	[0, 0, 0]	n/a	catFR1	4	R1666S
769.837	0.992	1128246	WORD_OFF	n/a	n/a	MILK	Beverages	3	7	[0, 0, 0]	n/a	catFR1	4	R1666S
770.829	1.6	1129227	WORD	n/a	wordpools/wordpool_categorized_EN.txt	WINE	Beverages	4	7	[0, 0, 0]	n/a	catFR1	4	R1666S
772.429	0.776	1130837	WORD_OFF	n/a	n/a	WINE	Beverages	4	7	[0, 0, 0]	n/a	catFR1	4	R1666S
773.205	1.608	1131606	WORD	n/a	wordpools/wordpool_categorized_EN.txt	EAR	BodyParts	5	7	[0, 0, 0]	n/a	catFR1	4	R1666S
774.813	0.949	1133216	WORD_OFF	n/a	n/a	EAR	BodyParts	5	7	[0, 0, 0]	n/a	catFR1	4	R1666S
775.762	1.6	1134167	WORD	n/a	wordpools/wordpool_categorized_EN.txt	ELBOW	BodyParts	6	7	[0, 0, 0]	n/a	catFR1	4	R1666S
777.362	0.759	1135767	WORD_OFF	n/a	n/a	ELBOW	BodyParts	6	7	[0, 0, 0]	n/a	catFR1	4	R1666S
778.121	1.6	1136526	WORD	n/a	wordpools/wordpool_categorized_EN.txt	DOLL	Toys	7	7	[0, 0, 0]	n/a	catFR1	4	R1666S
779.721	0.975	1138125	WORD_OFF	n/a	n/a	DOLL	Toys	7	7	[0, 0, 0]	n/a	catFR1	4	R1666S
780.696	1.6	1139097	WORD	n/a	wordpools/wordpool_categorized_EN.txt	BLOCKS	Toys	8	7	[0, 0, 0]	n/a	catFR1	4	R1666S
782.296	0.984	1140696	WORD_OFF	n/a	n/a	BLOCKS	Toys	8	7	[0, 0, 0]	n/a	catFR1	4	R1666S
783.28	1.607	1141678	WORD	n/a	wordpools/wordpool_categorized_EN.txt	WATER	Beverages	9	7	[0, 0, 0]	n/a	catFR1	4	R1666S
784.887	0.867	1143287	WORD_OFF	n/a	n/a	WATER	Beverages	9	7	[0, 0, 0]	n/a	catFR1	4	R1666S
785.754	1.618	1144158	WORD	n/a	wordpools/wordpool_categorized_EN.txt	JUICE	Beverages	10	7	[0, 0, 0]	n/a	catFR1	4	R1666S
787.372	0.79	1145778	WORD_OFF	n/a	n/a	JUICE	Beverages	10	7	[0, 0, 0]	n/a	catFR1	4	R1666S
788.162	1.608	1146567	WORD	n/a	wordpools/wordpool_categorized_EN.txt	ARM	BodyParts	11	7	[0, 0, 0]	n/a	catFR1	4	R1666S
789.77	0.868	1148177	WORD_OFF	n/a	n/a	ARM	BodyParts	11	7	[0, 0, 0]	n/a	catFR1	4	R1666S
790.638	1.6	1149037	WORD	n/a	wordpools/wordpool_categorized_EN.txt	KNEE	BodyParts	12	7	[0, 0, 0]	n/a	catFR1	4	R1666S
792.238	0.0	1150645	PROB	0.0	n/a	n/a	n/a	-999	7	[3, 2, 2]	7	catFR1	4	R1666S
792.238	0.003	1150646	WORD_OFF	n/a	n/a	KNEE	BodyParts	12	7	[0, 0, 0]	n/a	catFR1	4	R1666S
792.241	0.0	1150646	ENCODING_END	n/a	n/a	n/a	n/a	-999	7	[0, 0, 0]	n/a	catFR1	4	R1666S
792.241	0.0	1150646	DISTRACT_START	n/a	n/a	n/a	n/a	-999	7	[0, 0, 0]	n/a	catFR1	4	R1666S
792.241	7.122	1150648	START	n/a	n/a	n/a	n/a	-999	7	[-999, -999, -999]	n/a	catFR1	4	R1666S
799.363	4.491	1157770	PROB	4.491	n/a	n/a	n/a	-999	7	[4, 2, 5]	11	catFR1	4	R1666S
803.854	4.075	1162261	PROB	4.075	n/a	n/a	n/a	-999	7	[3, 2, 4]	9	catFR1	4	R1666S
807.929	4.534	1166336	PROB	4.534	n/a	n/a	n/a	-999	7	[1, 5, 2]	8	catFR1	4	R1666S
812.463	0.0	1170861	DISTRACT_END	n/a	n/a	n/a	n/a	-999	7	[0, 0, 0]	n/a	catFR1	4	R1666S
812.463	2.334	1170870	STOP	n/a	n/a	n/a	n/a	-999	7	[-999, -999, -999]	n/a	catFR1	4	R1666S
814.797	1.057	1173199	REC_START	n/a	n/a	n/a	n/a	-999	7	[0, 0, 0]	n/a	catFR1	4	R1666S
815.854	1.131	1174261	REC_WORD	1.131	n/a	EAR	BodyParts	5	7	[0, 0, 0]	n/a	catFR1	4	R1666S
816.985	1.662	1175392	REC_WORD	1.662	n/a	ELBOW	BodyParts	6	7	[0, 0, 0]	n/a	catFR1	4	R1666S
818.647	1.99	1177054	REC_WORD	1.99	n/a	WATER	Beverages	9	7	[0, 0, 0]	n/a	catFR1	4	R1666S
820.637	24.313	1179044	REC_WORD	24.313	n/a	JUICE	Beverages	10	7	[0, 0, 0]	n/a	catFR1	4	R1666S
844.95	1.613	1203354	REC_END	n/a	n/a	n/a	n/a	-999	7	[0, 0, 0]	n/a	catFR1	4	R1666S
846.563	10.352	1204963	COUNTDOWN_START	n/a	n/a	n/a	n/a	-999	7	[0, 0, 0]	n/a	catFR1	4	R1666S
856.915	0.0	1215319	COUNTDOWN_END	n/a	n/a	n/a	n/a	-999	7	[0, 0, 0]	n/a	catFR1	4	R1666S
856.915	2.132	1215319	ENCODING_START	n/a	n/a	n/a	n/a	-999	8	[0, 0, 0]	n/a	catFR1	4	R1666S
859.047	1.608	1217455	WORD	n/a	wordpools/wordpool_categorized_EN.txt	CALCULATOR	Electronics	1	8	[0, 0, 0]	n/a	catFR1	4	R1666S
860.655	1.001	1219054	WORD_OFF	n/a	n/a	CALCULATOR	Electronics	1	8	[0, 0, 0]	n/a	catFR1	4	R1666S
861.656	1.608	1220056	WORD	n/a	wordpools/wordpool_categorized_EN.txt	SCANNER	Electronics	2	8	[0, 0, 0]	n/a	catFR1	4	R1666S
863.264	0.974	1221666	WORD_OFF	n/a	n/a	SCANNER	Electronics	2	8	[0, 0, 0]	n/a	catFR1	4	R1666S
864.238	1.601	1222637	WORD	n/a	wordpools/wordpool_categorized_EN.txt	GOOSE	Birds	3	8	[0, 0, 0]	n/a	catFR1	4	R1666S
865.839	0.841	1224247	WORD_OFF	n/a	n/a	GOOSE	Birds	3	8	[0, 0, 0]	n/a	catFR1	4	R1666S
866.68	1.601	1225077	WORD	n/a	wordpools/wordpool_categorized_EN.txt	HAWK	Birds	4	8	[0, 0, 0]	n/a	catFR1	4	R1666S
868.281	0.842	1226686	WORD_OFF	n/a	n/a	HAWK	Birds	4	8	[0, 0, 0]	n/a	catFR1	4	R1666S
869.123	1.608	1227526	WORD	n/a	wordpools/wordpool_categorized_EN.txt	ORGAN	Instruments	5	8	[0, 0, 0]	n/a	catFR1	4	R1666S
870.731	0.849	1229136	WORD_OFF	n/a	n/a	ORGAN	Instruments	5	8	[0, 0, 0]	n/a	catFR1	4	R1666S
871.58	1.609	1229986	WORD	n/a	wordpools/wordpool_categorized_EN.txt	DRUM	Instruments	6	8	[0, 0, 0]	n/a	catFR1	4	R1666S
873.189	0.842	1231596	WORD_OFF	n/a	n/a	DRUM	Instruments	6	8	[0, 0, 0]	n/a	catFR1	4	R1666S
874.031	1.599	1232436	WORD	n/a	wordpools/wordpool_categorized_EN.txt	SPEAKER	Electronics	7	8	[0, 0, 0]	n/a	catFR1	4	R1666S
875.63	0.899	1234035	WORD_OFF	n/a	n/a	SPEAKER	Electronics	7	8	[0, 0, 0]	n/a	catFR1	4	R1666S
876.529	1.6	1234926	WORD	n/a	wordpools/wordpool_categorized_EN.txt	HEADPHONES	Electronics	8	8	[0, 0, 0]	n/a	catFR1	4	R1666S
878.129	0.926	1236535	WORD_OFF	n/a	n/a	HEADPHONES	Electronics	8	8	[0, 0, 0]	n/a	catFR1	4	R1666S
879.055	1.601	1237457	WORD	n/a	wordpools/wordpool_categorized_EN.txt	CROW	Birds	9	8	[0, 0, 0]	n/a	catFR1	4	R1666S
880.656	0.824	1239056	WORD_OFF	n/a	n/a	CROW	Birds	9	8	[0, 0, 0]	n/a	catFR1	4	R1666S
881.48	1.609	1239886	WORD	n/a	wordpools/wordpool_categorized_EN.txt	DOVE	Birds	10	8	[0, 0, 0]	n/a	catFR1	4	R1666S
883.089	0.842	1241495	WORD_OFF	n/a	n/a	DOVE	Birds	10	8	[0, 0, 0]	n/a	catFR1	4	R1666S
883.931	1.599	1242336	WORD	n/a	wordpools/wordpool_categorized_EN.txt	BASS	Instruments	11	8	[0, 0, 0]	n/a	catFR1	4	R1666S
885.53	0.842	1243935	WORD_OFF	n/a	n/a	BASS	Instruments	11	8	[0, 0, 0]	n/a	catFR1	4	R1666S
886.372	1.601	1244775	WORD	n/a	wordpools/wordpool_categorized_EN.txt	GUITAR	Instruments	12	8	[0, 0, 0]	n/a	catFR1	4	R1666S
887.973	0.0	1246374	WORD_OFF	n/a	n/a	GUITAR	Instruments	12	8	[0, 0, 0]	n/a	catFR1	4	R1666S
887.972	0.007	1246378	PROB	0.007	n/a	n/a	n/a	-999	8	[6, 2, 8]	16	catFR1	4	R1666S
887.979	0.0	1246385	ENCODING_END	n/a	n/a	n/a	n/a	-999	8	[0, 0, 0]	n/a	catFR1	4	R1666S
887.979	0.0	1246385	DISTRACT_START	n/a	n/a	n/a	n/a	-999	8	[0, 0, 0]	n/a	catFR1	4	R1666S
887.979	7.193	1246385	START	n/a	n/a	n/a	n/a	-999	8	[-999, -999, -999]	n/a	catFR1	4	R1666S
895.172	4.217	1253578	PROB	4.217	n/a	n/a	n/a	-999	8	[3, 4, 2]	9	catFR1	4	R1666S
899.389	5.517	1257795	PROB	5.517	n/a	n/a	n/a	-999	8	[2, 3, 8]	13	catFR1	4	R1666S
904.906	6.234	1263312	PROB	6.234	n/a	n/a	n/a	-999	8	[6, 1, 4]	11	catFR1	4	R1666S
911.14	0.0	1269545	DISTRACT_END	n/a	n/a	n/a	n/a	-999	8	[0, 0, 0]	n/a	catFR1	4	R1666S
911.14	2.008	1269546	STOP	n/a	n/a	n/a	n/a	-999	8	[-999, -999, -999]	n/a	catFR1	4	R1666S
913.148	0.831	1271549	REC_START	n/a	n/a	n/a	n/a	-999	8	[0, 0, 0]	n/a	catFR1	4	R1666S
913.979	1.24	1272385	REC_WORD	1.24	n/a	CALCULATOR	Electronics	1	8	[0, 0, 0]	n/a	catFR1	4	R1666S
915.219	2.044	1273625	REC_WORD	2.044	n/a	SPEAKER	Electronics	7	8	[0, 0, 0]	n/a	catFR1	4	R1666S
917.263	2.027	1275669	REC_WORD	2.027	n/a	ELBOW	BodyParts	-999	8	[0, 0, 0]	n/a	catFR1	4	R1666S
919.29	6.66	1277696	REC_WORD	6.66	n/a	DRUM	Instruments	6	8	[0, 0, 0]	n/a	catFR1	4	R1666S
925.95	17.332	1284356	REC_WORD_VV	17.332	n/a	<>	n/a	-999	8	[0, 0, 0]	n/a	catFR1	4	R1666S
943.282	6.515	1301683	REC_END	n/a	n/a	n/a	n/a	-999	8	[0, 0, 0]	n/a	catFR1	4	R1666S
949.797	10.343	1308202	COUNTDOWN_START	n/a	n/a	n/a	n/a	-999	8	[0, 0, 0]	n/a	catFR1	4	R1666S
960.14	0.0	1318537	COUNTDOWN_END	n/a	n/a	n/a	n/a	-999	8	[0, 0, 0]	n/a	catFR1	4	R1666S
960.14	1.967	1318547	ENCODING_START	n/a	n/a	n/a	n/a	-999	9	[0, 0, 0]	n/a	catFR1	4	R1666S
962.107	1.6	1320511	WORD	n/a	wordpools/wordpool_categorized_EN.txt	PLANKTON	OceanAnimals	1	9	[0, 0, 0]	n/a	catFR1	4	R1666S
963.707	0.858	1322111	WORD_OFF	n/a	n/a	PLANKTON	OceanAnimals	1	9	[0, 0, 0]	n/a	catFR1	4	R1666S
964.565	1.6	1322971	WORD	n/a	wordpools/wordpool_categorized_EN.txt	TURTLE	OceanAnimals	2	9	[0, 0, 0]	n/a	catFR1	4	R1666S
966.165	0.877	1324570	WORD_OFF	n/a	n/a	TURTLE	OceanAnimals	2	9	[0, 0, 0]	n/a	catFR1	4	R1666S
967.042	1.606	1325441	WORD	n/a	wordpools/wordpool_categorized_EN.txt	PENCIL	OfficeSupplies	3	9	[0, 0, 0]	n/a	catFR1	4	R1666S
968.648	0.975	1327050	WORD_OFF	n/a	n/a	PENCIL	OfficeSupplies	3	9	[0, 0, 0]	n/a	catFR1	4	R1666S
969.623	1.599	1328022	WORD	n/a	wordpools/wordpool_categorized_EN.txt	PEN	OfficeSupplies	4	9	[0, 0, 0]	n/a	catFR1	4	R1666S
971.222	0.884	1329621	WORD_OFF	n/a	n/a	PEN	OfficeSupplies	4	9	[0, 0, 0]	n/a	catFR1	4	R1666S
972.106	1.602	1330502	WORD	n/a	wordpools/wordpool_categorized_EN.txt	BOOKCASE	Furniture	5	9	[0, 0, 0]	n/a	catFR1	4	R1666S
973.708	0.791	1332111	WORD_OFF	n/a	n/a	BOOKCASE	Furniture	5	9	[0, 0, 0]	n/a	catFR1	4	R1666S
974.499	1.624	1332901	WORD	n/a	wordpools/wordpool_categorized_EN.txt	COUCH	Furniture	6	9	[0, 0, 0]	n/a	catFR1	4	R1666S
976.123	0.867	1334521	WORD_OFF	n/a	n/a	COUCH	Furniture	6	9	[0, 0, 0]	n/a	catFR1	4	R1666S
976.99	1.6	1335391	WORD	n/a	wordpools/wordpool_categorized_EN.txt	FOLDER	OfficeSupplies	7	9	[0, 0, 0]	n/a	catFR1	4	R1666S
978.59	0.766	1336991	WORD_OFF	n/a	n/a	FOLDER	OfficeSupplies	7	9	[0, 0, 0]	n/a	catFR1	4	R1666S
979.356	1.601	1337760	WORD	n/a	wordpools/wordpool_categorized_EN.txt	TAPE	OfficeSupplies	8	9	[0, 0, 0]	n/a	catFR1	4	R1666S
980.957	0.8	1339359	WORD_OFF	n/a	n/a	TAPE	OfficeSupplies	8	9	[0, 0, 0]	n/a	catFR1	4	R1666S
981.757	1.6	1340159	WORD	n/a	wordpools/wordpool_categorized_EN.txt	DESK	Furniture	9	9	[0, 0, 0]	n/a	catFR1	4	R1666S
983.357	0.95	1341758	WORD_OFF	n/a	n/a	DESK	Furniture	9	9	[0, 0, 0]	n/a	catFR1	4	R1666S
984.307	1.6	1342710	WORD	n/a	wordpools/wordpool_categorized_EN.txt	DRESSER	Furniture	10	9	[0, 0, 0]	n/a	catFR1	4	R1666S
985.907	0.983	1344309	WORD_OFF	n/a	n/a	DRESSER	Furniture	10	9	[0, 0, 0]	n/a	catFR1	4	R1666S
986.89	1.61	1345291	WORD	n/a	wordpools/wordpool_categorized_EN.txt	FISH	OceanAnimals	11	9	[0, 0, 0]	n/a	catFR1	4	R1666S
988.5	0.901	1346900	WORD_OFF	n/a	n/a	FISH	OceanAnimals	11	9	[0, 0, 0]	n/a	catFR1	4	R1666S
989.401	1.605	1347801	WORD	n/a	wordpools/wordpool_categorized_EN.txt	CRAB	OceanAnimals	12	9	[0, 0, 0]	n/a	catFR1	4	R1666S
991.006	0.002	1349401	WORD_OFF	n/a	n/a	CRAB	OceanAnimals	12	9	[0, 0, 0]	n/a	catFR1	4	R1666S
991.008	0.0	1349411	ENCODING_END	n/a	n/a	n/a	n/a	-999	9	[0, 0, 0]	n/a	catFR1	4	R1666S
991.008	0.0	1349411	DISTRACT_START	n/a	n/a	n/a	n/a	-999	9	[0, 0, 0]	n/a	catFR1	4	R1666S
991.007	0.001	1349412	PROB	0.001	n/a	n/a	n/a	-999	9	[6, 4, 4]	14	catFR1	4	R1666S
991.008	7.949	1349413	START	n/a	n/a	n/a	n/a	-999	9	[-999, -999, -999]	n/a	catFR1	4	R1666S
998.957	4.209	1357362	PROB	4.209	n/a	n/a	n/a	-999	9	[2, 7, 7]	16	catFR1	4	R1666S
1003.166	3.232	1361571	PROB	3.232	n/a	n/a	n/a	-999	9	[5, 1, 5]	11	catFR1	4	R1666S
1006.398	6.783	1364803	PROB	6.783	n/a	n/a	n/a	-999	9	[3, 5, 8]	16	catFR1	4	R1666S
1013.181	0.0	1371579	DISTRACT_END	n/a	n/a	n/a	n/a	-999	9	[0, 0, 0]	n/a	catFR1	4	R1666S
1013.181	2.176	1371585	STOP	n/a	n/a	n/a	n/a	-999	9	[-999, -999, -999]	n/a	catFR1	4	R1666S
1015.357	1.643	1373755	REC_START	n/a	n/a	n/a	n/a	-999	9	[0, 0, 0]	n/a	catFR1	4	R1666S
1017.0	1.965	1375404	REC_WORD	1.965	n/a	TURTLE	OceanAnimals	2	9	[0, 0, 0]	n/a	catFR1	4	R1666S
1018.965	6.355	1377369	REC_WORD	6.355	n/a	BOOKCASE	Furniture	5	9	[0, 0, 0]	n/a	catFR1	4	R1666S
1025.32	8.41	1383724	REC_WORD	8.41	n/a	PEN	OfficeSupplies	4	9	[0, 0, 0]	n/a	catFR1	4	R1666S
1033.73	6.181	1392134	REC_WORD	6.181	n/a	SOFA	Furniture	-999	9	[0, 0, 0]	n/a	catFR1	4	R1666S
1039.911	2.886	1398315	REC_WORD	2.886	n/a	SUNFLOWER	Flowers	-999	9	[0, 0, 0]	n/a	catFR1	4	R1666S
1042.797	2.691	1401201	REC_WORD_VV	2.691	n/a	<>	n/a	-999	9	[0, 0, 0]	n/a	catFR1	4	R1666S
1045.488	4.185	1403890	REC_END	n/a	n/a	n/a	n/a	-999	9	[0, 0, 0]	n/a	catFR1	4	R1666S
1049.673	10.351	1408070	COUNTDOWN_START	n/a	n/a	n/a	n/a	-999	9	[0, 0, 0]	n/a	catFR1	4	R1666S
1060.024	0.0	1418426	COUNTDOWN_END	n/a	n/a	n/a	n/a	-999	9	[0, 0, 0]	n/a	catFR1	4	R1666S
1060.024	2.2	1418426	ENCODING_START	n/a	n/a	n/a	n/a	-999	10	[0, 0, 0]	n/a	catFR1	4	R1666S
1062.224	1.6	1420622	WORD	n/a	wordpools/wordpool_categorized_EN.txt	KNIFE	KitchenTools	1	10	[0, 0, 0]	n/a	catFR1	4	R1666S
1063.824	0.959	1422221	WORD_OFF	n/a	n/a	KNIFE	KitchenTools	1	10	[0, 0, 0]	n/a	catFR1	4	R1666S
1064.783	1.6	1423183	WORD	n/a	wordpools/wordpool_categorized_EN.txt	STRAINER	KitchenTools	2	10	[0, 0, 0]	n/a	catFR1	4	R1666S
1066.383	0.991	1424782	WORD_OFF	n/a	n/a	STRAINER	KitchenTools	2	10	[0, 0, 0]	n/a	catFR1	4	R1666S
1067.374	1.601	1425774	WORD	n/a	wordpools/wordpool_categorized_EN.txt	HILLS	Landscapes	3	10	[0, 0, 0]	n/a	catFR1	4	R1666S
1068.975	0.983	1427374	WORD_OFF	n/a	n/a	HILLS	Landscapes	3	10	[0, 0, 0]	n/a	catFR1	4	R1666S
1069.958	1.601	1428356	WORD	n/a	wordpools/wordpool_categorized_EN.txt	BEACH	Landscapes	4	10	[0, 0, 0]	n/a	catFR1	4	R1666S
1071.559	0.859	1429955	WORD_OFF	n/a	n/a	BEACH	Landscapes	4	10	[0, 0, 0]	n/a	catFR1	4	R1666S
1072.418	1.599	1430815	WORD	n/a	wordpools/wordpool_categorized_EN.txt	BEE	Insects	5	10	[0, 0, 0]	n/a	catFR1	4	R1666S
1074.017	0.923	1432415	WORD_OFF	n/a	n/a	BEE	Insects	5	10	[0, 0, 0]	n/a	catFR1	4	R1666S
1074.94	1.6	1433336	WORD	n/a	wordpools/wordpool_categorized_EN.txt	CRICKET	Insects	6	10	[0, 0, 0]	n/a	catFR1	4	R1666S
1076.54	0.866	1434935	WORD_OFF	n/a	n/a	CRICKET	Insects	6	10	[0, 0, 0]	n/a	catFR1	4	R1666S
1077.406	1.602	1435806	WORD	n/a	wordpools/wordpool_categorized_EN.txt	SPATULA	KitchenTools	7	10	[0, 0, 0]	n/a	catFR1	4	R1666S
1079.008	0.759	1437405	WORD_OFF	n/a	n/a	SPATULA	KitchenTools	7	10	[0, 0, 0]	n/a	catFR1	4	R1666S
1079.767	1.607	1438164	WORD	n/a	wordpools/wordpool_categorized_EN.txt	PEELER	KitchenTools	8	10	[0, 0, 0]	n/a	catFR1	4	R1666S
1081.374	0.926	1439774	WORD_OFF	n/a	n/a	PEELER	KitchenTools	8	10	[0, 0, 0]	n/a	catFR1	4	R1666S
1082.3	1.6	1440695	WORD	n/a	wordpools/wordpool_categorized_EN.txt	ROACH	Insects	9	10	[0, 0, 0]	n/a	catFR1	4	R1666S
1083.9	0.868	1442294	WORD_OFF	n/a	n/a	ROACH	Insects	9	10	[0, 0, 0]	n/a	catFR1	4	R1666S
1084.768	1.607	1443165	WORD	n/a	wordpools/wordpool_categorized_EN.txt	SPIDER	Insects	10	10	[0, 0, 0]	n/a	catFR1	4	R1666S
1086.375	0.809	1444774	WORD_OFF	n/a	n/a	SPIDER	Insects	10	10	[0, 0, 0]	n/a	catFR1	4	R1666S
1087.184	1.599	1445584	WORD	n/a	wordpools/wordpool_categorized_EN.txt	MOUNTAIN	Landscapes	11	10	[0, 0, 0]	n/a	catFR1	4	R1666S
1088.783	0.876	1447183	WORD_OFF	n/a	n/a	MOUNTAIN	Landscapes	11	10	[0, 0, 0]	n/a	catFR1	4	R1666S
1089.659	1.609	1448054	WORD	n/a	wordpools/wordpool_categorized_EN.txt	STREAM	Landscapes	12	10	[0, 0, 0]	n/a	catFR1	4	R1666S
1091.268	0.0	1449663	WORD_OFF	n/a	n/a	STREAM	Landscapes	12	10	[0, 0, 0]	n/a	catFR1	4	R1666S
1091.267	0.004	1449670	PROB	0.004	n/a	n/a	n/a	-999	10	[5, 4, 1]	10	catFR1	4	R1666S
1091.271	0.0	1449674	ENCODING_END	n/a	n/a	n/a	n/a	-999	10	[0, 0, 0]	n/a	catFR1	4	R1666S
1091.271	0.0	1449674	DISTRACT_START	n/a	n/a	n/a	n/a	-999	10	[0, 0, 0]	n/a	catFR1	4	R1666S
1091.271	5.532	1449674	START	n/a	n/a	n/a	n/a	-999	10	[-999, -999, -999]	n/a	catFR1	4	R1666S
1096.803	4.324	1455206	PROB	4.324	n/a	n/a	n/a	-999	10	[5, 4, 5]	14	catFR1	4	R1666S
1101.127	5.481	1459530	PROB	5.481	n/a	n/a	n/a	-999	10	[7, 4, 4]	15	catFR1	4	R1666S
1106.608	10.175	1465011	PROB	10.175	n/a	n/a	n/a	-999	10	[6, 8, 4]	18	catFR1	4	R1666S
1116.783	0.0	1475182	DISTRACT_END	n/a	n/a	n/a	n/a	-999	10	[0, 0, 0]	n/a	catFR1	4	R1666S
1116.783	2.342	1475186	STOP	n/a	n/a	n/a	n/a	-999	10	[-999, -999, -999]	n/a	catFR1	4	R1666S
1119.125	1.149	1477520	REC_START	n/a	n/a	n/a	n/a	-999	10	[0, 0, 0]	n/a	catFR1	4	R1666S
1120.274	1.447	1478677	REC_WORD	1.447	n/a	KNIFE	KitchenTools	1	10	[0, 0, 0]	n/a	catFR1	4	R1666S
1121.721	3.037	1480124	REC_WORD	3.037	n/a	STRAINER	KitchenTools	2	10	[0, 0, 0]	n/a	catFR1	4	R1666S
1124.758	24.499	1483161	REC_WORD	24.499	n/a	HILLS	Landscapes	3	10	[0, 0, 0]	n/a	catFR1	4	R1666S
1149.257	2.492	1507655	REC_END	n/a	n/a	n/a	n/a	-999	10	[0, 0, 0]	n/a	catFR1	4	R1666S
1151.749	10.343	1510145	COUNTDOWN_START	n/a	n/a	n/a	n/a	-999	10	[0, 0, 0]	n/a	catFR1	4	R1666S
1162.092	0.0	1520490	COUNTDOWN_END	n/a	n/a	n/a	n/a	-999	10	[0, 0, 0]	n/a	catFR1	4	R1666S
1162.092	1.993	1520490	ENCODING_START	n/a	n/a	n/a	n/a	-999	11	[0, 0, 0]	n/a	catFR1	4	R1666S
1164.085	1.607	1522484	WORD	n/a	wordpools/wordpool_categorized_EN.txt	OCEAN	Landscapes	1	11	[0, 0, 0]	n/a	catFR1	4	R1666S
1165.692	0.85	1524094	WORD_OFF	n/a	n/a	OCEAN	Landscapes	1	11	[0, 0, 0]	n/a	catFR1	4	R1666S
1166.542	1.601	1524944	WORD	n/a	wordpools/wordpool_categorized_EN.txt	WOODS	Landscapes	2	11	[0, 0, 0]	n/a	catFR1	4	R1666S
1168.143	0.767	1526543	WORD_OFF	n/a	n/a	WOODS	Landscapes	2	11	[0, 0, 0]	n/a	catFR1	4	R1666S
1168.91	1.615	1527313	WORD	n/a	wordpools/wordpool_categorized_EN.txt	ELM	Trees	3	11	[0, 0, 0]	n/a	catFR1	4	R1666S
1170.525	0.933	1528922	WORD_OFF	n/a	n/a	ELM	Trees	3	11	[0, 0, 0]	n/a	catFR1	4	R1666S
1171.458	1.601	1529853	WORD	n/a	wordpools/wordpool_categorized_EN.txt	CYPRESS	Trees	4	11	[0, 0, 0]	n/a	catFR1	4	R1666S
1173.059	0.925	1531463	WORD_OFF	n/a	n/a	CYPRESS	Trees	4	11	[0, 0, 0]	n/a	catFR1	4	R1666S
1173.984	1.601	1532384	WORD	n/a	wordpools/wordpool_categorized_EN.txt	SPOON	KitchenTools	5	11	[0, 0, 0]	n/a	catFR1	4	R1666S
1175.585	0.765	1533983	WORD_OFF	n/a	n/a	SPOON	KitchenTools	5	11	[0, 0, 0]	n/a	catFR1	4	R1666S
1176.35	1.601	1534753	WORD	n/a	wordpools/wordpool_categorized_EN.txt	GRATER	KitchenTools	6	11	[0, 0, 0]	n/a	catFR1	4	R1666S
1177.951	0.934	1536352	WORD_OFF	n/a	n/a	GRATER	KitchenTools	6	11	[0, 0, 0]	n/a	catFR1	4	R1666S
1178.885	1.609	1537283	WORD	n/a	wordpools/wordpool_categorized_EN.txt	MAPLE	Trees	7	11	[0, 0, 0]	n/a	catFR1	4	R1666S
1180.494	0.832	1538893	WORD_OFF	n/a	n/a	MAPLE	Trees	7	11	[0, 0, 0]	n/a	catFR1	4	R1666S
1181.326	1.608	1539723	WORD	n/a	wordpools/wordpool_categorized_EN.txt	WILLOW	Trees	8	11	[0, 0, 0]	n/a	catFR1	4	R1666S
1182.934	0.774	1541332	WORD_OFF	n/a	n/a	WILLOW	Trees	8	11	[0, 0, 0]	n/a	catFR1	4	R1666S
1183.708	1.6	1542102	WORD	n/a	wordpools/wordpool_categorized_EN.txt	VALLEY	Landscapes	9	11	[0, 0, 0]	n/a	catFR1	4	R1666S
1185.308	0.993	1543711	WORD_OFF	n/a	n/a	VALLEY	Landscapes	9	11	[0, 0, 0]	n/a	catFR1	4	R1666S
1186.301	1.61	1544703	WORD	n/a	wordpools/wordpool_categorized_EN.txt	ISLAND	Landscapes	10	11	[0, 0, 0]	n/a	catFR1	4	R1666S
1187.911	0.866	1546313	WORD_OFF	n/a	n/a	ISLAND	Landscapes	10	11	[0, 0, 0]	n/a	catFR1	4	R1666S
1188.777	1.608	1547173	WORD	n/a	wordpools/wordpool_categorized_EN.txt	LADLE	KitchenTools	11	11	[0, 0, 0]	n/a	catFR1	4	R1666S
1190.385	0.849	1548782	WORD_OFF	n/a	n/a	LADLE	KitchenTools	11	11	[0, 0, 0]	n/a	catFR1	4	R1666S
1191.234	1.6	1549633	WORD	n/a	wordpools/wordpool_categorized_EN.txt	WHISK	KitchenTools	12	11	[0, 0, 0]	n/a	catFR1	4	R1666S
1192.834	0.004	1551232	WORD_OFF	n/a	n/a	WHISK	KitchenTools	12	11	[0, 0, 0]	n/a	catFR1	4	R1666S
1192.838	0.0	1551232	ENCODING_END	n/a	n/a	n/a	n/a	-999	11	[0, 0, 0]	n/a	catFR1	4	R1666S
1192.834	0.004	1551236	PROB	0.004	n/a	n/a	n/a	-999	11	[3, 6, 6]	14	catFR1	4	R1666S
1192.838	0.0	1551240	START	n/a	n/a	n/a	n/a	-999	11	[-999, -999, -999]	n/a	catFR1	4	R1666S
1192.838	5.846	1551242	DISTRACT_START	n/a	n/a	n/a	n/a	-999	11	[0, 0, 0]	n/a	catFR1	4	R1666S
1198.684	9.219	1557086	PROB	9.219	n/a	n/a	n/a	-999	11	[8, 1, 5]	14	catFR1	4	R1666S
1207.903	5.483	1566305	PROB	5.483	n/a	n/a	n/a	-999	11	[6, 7, 4]	17	catFR1	4	R1666S
1213.386	0.0	1571781	DISTRACT_END	n/a	n/a	n/a	n/a	-999	11	[0, 0, 0]	n/a	catFR1	4	R1666S
1213.386	2.358	1571788	STOP	n/a	n/a	n/a	n/a	-999	11	[-999, -999, -999]	n/a	catFR1	4	R1666S
1215.744	0.845	1574139	REC_START	n/a	n/a	n/a	n/a	-999	11	[0, 0, 0]	n/a	catFR1	4	R1666S
1216.589	2.334	1574991	REC_WORD	2.334	n/a	OCEAN	Landscapes	1	11	[0, 0, 0]	n/a	catFR1	4	R1666S
1218.923	4.285	1577325	REC_WORD	4.285	n/a	HILLS	Landscapes	-999	11	[0, 0, 0]	n/a	catFR1	4	R1666S
1223.208	2.768	1581610	REC_WORD	2.768	n/a	RIVER	Landscapes	-999	11	[0, 0, 0]	n/a	catFR1	4	R1666S
1225.976	19.901	1584378	REC_WORD	19.901	n/a	VALLEY	Landscapes	9	11	[0, 0, 0]	n/a	catFR1	4	R1666S
1245.877	3.315	1604274	REC_END	n/a	n/a	n/a	n/a	-999	11	[0, 0, 0]	n/a	catFR1	4	R1666S
1249.192	10.342	1607594	COUNTDOWN_START	n/a	n/a	n/a	n/a	-999	11	[0, 0, 0]	n/a	catFR1	4	R1666S
1259.534	0.0	1617929	COUNTDOWN_END	n/a	n/a	n/a	n/a	-999	11	[0, 0, 0]	n/a	catFR1	4	R1666S
1259.534	2.092	1617929	ENCODING_START	n/a	n/a	n/a	n/a	-999	12	[0, 0, 0]	n/a	catFR1	4	R1666S
1261.626	1.6	1620024	WORD	n/a	wordpools/wordpool_categorized_EN.txt	PINE	Trees	1	12	[0, 0, 0]	n/a	catFR1	4	R1666S
1263.226	0.843	1621623	WORD_OFF	n/a	n/a	PINE	Trees	1	12	[0, 0, 0]	n/a	catFR1	4	R1666S
1264.069	1.6	1622464	WORD	n/a	wordpools/wordpool_categorized_EN.txt	BIRCH	Trees	2	12	[0, 0, 0]	n/a	catFR1	4	R1666S
1265.669	0.991	1624063	WORD_OFF	n/a	n/a	BIRCH	Trees	2	12	[0, 0, 0]	n/a	catFR1	4	R1666S
1266.66	1.607	1625055	WORD	n/a	wordpools/wordpool_categorized_EN.txt	SHEEP	FarmAnimals	3	12	[0, 0, 0]	n/a	catFR1	4	R1666S
1268.267	0.885	1626664	WORD_OFF	n/a	n/a	SHEEP	FarmAnimals	3	12	[0, 0, 0]	n/a	catFR1	4	R1666S
1269.152	1.6	1627545	WORD	n/a	wordpools/wordpool_categorized_EN.txt	ROOSTER	FarmAnimals	4	12	[0, 0, 0]	n/a	catFR1	4	R1666S
1270.752	1.0	1629155	WORD_OFF	n/a	n/a	ROOSTER	FarmAnimals	4	12	[0, 0, 0]	n/a	catFR1	4	R1666S
1271.752	1.609	1630147	WORD	n/a	wordpools/wordpool_categorized_EN.txt	BOAT	Vehicles	5	12	[0, 0, 0]	n/a	catFR1	4	R1666S
1273.361	0.901	1631756	WORD_OFF	n/a	n/a	BOAT	Vehicles	5	12	[0, 0, 0]	n/a	catFR1	4	R1666S
1274.262	1.601	1632657	WORD	n/a	wordpools/wordpool_categorized_EN.txt	VAN	Vehicles	6	12	[0, 0, 0]	n/a	catFR1	4	R1666S
1275.863	0.881	1634256	WORD_OFF	n/a	n/a	VAN	Vehicles	6	12	[0, 0, 0]	n/a	catFR1	4	R1666S
1276.744	1.606	1635137	WORD	n/a	wordpools/wordpool_categorized_EN.txt	LAMB	FarmAnimals	7	12	[0, 0, 0]	n/a	catFR1	4	R1666S
1278.35	0.877	1636746	WORD_OFF	n/a	n/a	LAMB	FarmAnimals	7	12	[0, 0, 0]	n/a	catFR1	4	R1666S
1279.227	1.6	1637627	WORD	n/a	wordpools/wordpool_categorized_EN.txt	PIG	FarmAnimals	8	12	[0, 0, 0]	n/a	catFR1	4	R1666S
1280.827	0.815	1639226	WORD_OFF	n/a	n/a	PIG	FarmAnimals	8	12	[0, 0, 0]	n/a	catFR1	4	R1666S
1281.642	1.6	1640036	WORD	n/a	wordpools/wordpool_categorized_EN.txt	SPRUCE	Trees	9	12	[0, 0, 0]	n/a	catFR1	4	R1666S
1283.242	0.878	1641636	WORD_OFF	n/a	n/a	SPRUCE	Trees	9	12	[0, 0, 0]	n/a	catFR1	4	R1666S
1284.12	1.607	1642516	WORD	n/a	wordpools/wordpool_categorized_EN.txt	EVERGREEN	Trees	10	12	[0, 0, 0]	n/a	catFR1	4	R1666S
1285.727	0.767	1644126	WORD_OFF	n/a	n/a	EVERGREEN	Trees	10	12	[0, 0, 0]	n/a	catFR1	4	R1666S
1286.494	1.609	1644895	WORD	n/a	wordpools/wordpool_categorized_EN.txt	TRAIN	Vehicles	11	12	[0, 0, 0]	n/a	catFR1	4	R1666S
1288.103	0.848	1646504	WORD_OFF	n/a	n/a	TRAIN	Vehicles	11	12	[0, 0, 0]	n/a	catFR1	4	R1666S
1288.951	1.609	1647345	WORD	n/a	wordpools/wordpool_categorized_EN.txt	TRUCK	Vehicles	12	12	[0, 0, 0]	n/a	catFR1	4	R1666S
1290.56	0.0	1648954	WORD_OFF	n/a	n/a	TRUCK	Vehicles	12	12	[0, 0, 0]	n/a	catFR1	4	R1666S
1290.56	0.004	1648961	PROB	0.004	n/a	n/a	n/a	-999	12	[3, 1, 4]	8	catFR1	4	R1666S
1290.564	0.0	1648964	ENCODING_END	n/a	n/a	n/a	n/a	-999	12	[0, 0, 0]	n/a	catFR1	4	R1666S
1290.564	0.0	1648964	DISTRACT_START	n/a	n/a	n/a	n/a	-999	12	[0, 0, 0]	n/a	catFR1	4	R1666S
1290.564	6.438	1648965	START	n/a	n/a	n/a	n/a	-999	12	[-999, -999, -999]	n/a	catFR1	4	R1666S
1297.002	3.584	1655403	PROB	3.584	n/a	n/a	n/a	-999	12	[5, 5, 3]	13	catFR1	4	R1666S
1300.586	2.558	1658986	PROB	2.558	n/a	n/a	n/a	-999	12	[1, 1, 6]	8	catFR1	4	R1666S
1303.144	5.943	1661544	PROB	5.943	n/a	n/a	n/a	-999	12	[2, 4, 7]	13	catFR1	4	R1666S
1309.087	4.523	1667487	PROB	4.523	n/a	n/a	n/a	-999	12	[2, 1, 7]	10	catFR1	4	R1666S
1313.61	0.0	1672003	DISTRACT_END	n/a	n/a	n/a	n/a	-999	12	[0, 0, 0]	n/a	catFR1	4	R1666S
1313.61	2.334	1672010	STOP	n/a	n/a	n/a	n/a	-999	12	[-999, -999, -999]	n/a	catFR1	4	R1666S
1315.944	1.494	1674341	REC_START	n/a	n/a	n/a	n/a	-999	12	[0, 0, 0]	n/a	catFR1	4	R1666S
1317.438	3.252	1675838	REC_WORD	3.252	n/a	ROOSTER	FarmAnimals	4	12	[0, 0, 0]	n/a	catFR1	4	R1666S
1320.69	5.275	1679090	REC_WORD	5.275	n/a	PIG	FarmAnimals	8	12	[0, 0, 0]	n/a	catFR1	4	R1666S
1325.965	2.395	1684365	REC_WORD	2.395	n/a	VALLEY	Landscapes	-999	12	[0, 0, 0]	n/a	catFR1	4	R1666S
1328.36	3.036	1686760	REC_WORD	3.036	n/a	HORSE	FarmAnimals	-999	12	[0, 0, 0]	n/a	catFR1	4	R1666S
1331.396	14.68	1689796	REC_WORD	14.68	n/a	BOAT	Vehicles	5	12	[0, 0, 0]	n/a	catFR1	4	R1666S
1346.076	0.0	1704476	REC_END	n/a	n/a	n/a	n/a	-999	12	[0, 0, 0]	n/a	catFR1	4	R1666S
