onset	duration	sample	trial_type	response_time	stim_file	item_name	category	serialpos	list	test	answer	experiment	session	subject
0.0	0.961	2320	INSTRUCT_START	n/a	n/a	n/a	n/a	-999	-999	[0, 0, 0]	n/a	catFR1	3	R1400N
0.961	20.582	3275	INSTRUCT_END	n/a	n/a	n/a	n/a	-999	-999	[0, 0, 0]	n/a	catFR1	3	R1400N
21.543	10.352	23864	COUNTDOWN_START	n/a	n/a	n/a	n/a	-999	-999	[0, 0, 0]	n/a	catFR1	3	R1400N
31.895	0.0	34214	COUNTDOWN_END	n/a	n/a	n/a	n/a	-999	-999	[0, 0, 0]	n/a	catFR1	3	R1400N
31.895	2.166	34214	ENCODING_START	n/a	n/a	n/a	n/a	-999	-1	[0, 0, 0]	n/a	catFR1	3	R1400N
34.061	1.616	36367	WORD	n/a	n/a	FOLDER	OfficeSupplies	1	-1	[0, 0, 0]	n/a	catFR1	3	R1400N
35.677	0.834	37995	WORD_OFF	n/a	n/a	FOLDER	OfficeSupplies	1	-1	[0, 0, 0]	n/a	catFR1	3	R1400N
36.511	1.616	38819	WORD	n/a	n/a	STAPLER	OfficeSupplies	2	-1	[0, 0, 0]	n/a	catFR1	3	R1400N
38.127	0.984	40447	WORD_OFF	n/a	n/a	STAPLER	OfficeSupplies	2	-1	[0, 0, 0]	n/a	catFR1	3	R1400N
39.111	1.6	41420	WORD	n/a	n/a	COTTON	Fabric	3	-1	[0, 0, 0]	n/a	catFR1	3	R1400N
40.711	0.85	43030	WORD_OFF	n/a	n/a	COTTON	Fabric	3	-1	[0, 0, 0]	n/a	catFR1	3	R1400N
41.561	1.6	43872	WORD	n/a	n/a	SUEDE	Fabric	4	-1	[0, 0, 0]	n/a	catFR1	3	R1400N
43.161	0.85	45482	WORD_OFF	n/a	n/a	SUEDE	Fabric	4	-1	[0, 0, 0]	n/a	catFR1	3	R1400N
44.011	1.6	46324	WORD	n/a	n/a	ATTIC	Building	5	-1	[0, 0, 0]	n/a	catFR1	3	R1400N
45.611	0.9	47915	WORD_OFF	n/a	n/a	ATTIC	Building	5	-1	[0, 0, 0]	n/a	catFR1	3	R1400N
46.511	1.6	48832	WORD	n/a	n/a	BATHROOM	Building	6	-1	[0, 0, 0]	n/a	catFR1	3	R1400N
48.111	0.849	50423	WORD_OFF	n/a	n/a	BATHROOM	Building	6	-1	[0, 0, 0]	n/a	catFR1	3	R1400N
48.96	1.6	51265	WORD	n/a	n/a	MARKER	OfficeSupplies	7	-1	[0, 0, 0]	n/a	catFR1	3	R1400N
50.56	0.767	52875	WORD_OFF	n/a	n/a	MARKER	OfficeSupplies	7	-1	[0, 0, 0]	n/a	catFR1	3	R1400N
51.327	1.6	53642	WORD	n/a	n/a	NOTEBOOK	OfficeSupplies	8	-1	[0, 0, 0]	n/a	catFR1	3	R1400N
52.927	0.834	55233	WORD_OFF	n/a	n/a	NOTEBOOK	OfficeSupplies	8	-1	[0, 0, 0]	n/a	catFR1	3	R1400N
53.761	1.6	56076	WORD	n/a	n/a	NYLON	Fabric	9	-1	[0, 0, 0]	n/a	catFR1	3	R1400N
55.361	0.883	57667	WORD_OFF	n/a	n/a	NYLON	Fabric	9	-1	[0, 0, 0]	n/a	catFR1	3	R1400N
56.244	1.6	58565	WORD	n/a	n/a	WOOL	Fabric	10	-1	[0, 0, 0]	n/a	catFR1	3	R1400N
57.844	0.799	60156	WORD_OFF	n/a	n/a	WOOL	Fabric	10	-1	[0, 0, 0]	n/a	catFR1	3	R1400N
58.643	1.616	60961	WORD	n/a	n/a	ROOF	Building	11	-1	[0, 0, 0]	n/a	catFR1	3	R1400N
60.259	0.785	62570	WORD_OFF	n/a	n/a	ROOF	Building	11	-1	[0, 0, 0]	n/a	catFR1	3	R1400N
61.044	1.6	63356	WORD	n/a	n/a	FOUNDATION	Building	12	-1	[0, 0, 0]	n/a	catFR1	3	R1400N
62.644	0.001	64966	WORD_OFF	n/a	n/a	FOUNDATION	Building	12	-1	[0, 0, 0]	n/a	catFR1	3	R1400N
62.645	0.001	64957	PROB	4.082	n/a	n/a	n/a	-999	-1	[8, 3, 5]	16.0	catFR1	3	R1400N
62.646	0.0	64966	DISTRACT_START	n/a	n/a	n/a	n/a	-999	-1	[0, 0, 0]	n/a	catFR1	3	R1400N
62.646	0.0	64966	ENCODING_END	n/a	n/a	n/a	n/a	-999	-1	[0, 0, 0]	n/a	catFR1	3	R1400N
62.646	4.1	64958	START	n/a	n/a	n/a	n/a	-999	-1	[-999, -999, -999]	n/a	catFR1	3	R1400N
66.746	3.148	69058	PROB	3.133	n/a	n/a	n/a	-999	-1	[3, 1, 2]	6.0	catFR1	3	R1400N
69.894	2.55	72206	PROB	2.532	n/a	n/a	n/a	-999	-1	[3, 6, 2]	1.0	catFR1	3	R1400N
72.444	3.784	74756	PROB	3.766	n/a	n/a	n/a	-999	-1	[5, 5, 4]	14.0	catFR1	3	R1400N
76.228	2.966	78540	PROB	2.949	n/a	n/a	n/a	-999	-1	[7, 1, 1]	9.0	catFR1	3	R1400N
79.194	4.067	81506	PROB	4.05	n/a	n/a	n/a	-999	-1	[4, 8, 5]	17.0	catFR1	3	R1400N
83.261	0.0	85573	DISTRACT_END	n/a	n/a	n/a	n/a	-999	-1	[0, 0, 0]	n/a	catFR1	3	R1400N
83.261	2.05	85573	STOP	n/a	n/a	n/a	n/a	-999	-1	[-999, -999, -999]	n/a	catFR1	3	R1400N
85.311	11.178	87622	REC_START	n/a	n/a	n/a	n/a	-999	-1	[0, 0, 0]	n/a	catFR1	3	R1400N
96.489	5.661	98800	REC_WORD	11.178	n/a	WOOL	Fabric	10	-1	[0, 0, 0]	n/a	catFR1	3	R1400N
102.15	6.517	104461	REC_WORD_VV	16.839	n/a	<>	n/a	-999	-1	[0, 0, 0]	n/a	catFR1	3	R1400N
108.667	2.892	110978	REC_WORD_VV	23.356	n/a	<>	n/a	-999	-1	[0, 0, 0]	n/a	catFR1	3	R1400N
111.559	3.953	113870	REC_WORD_VV	26.248	n/a	<>	n/a	-999	-1	[0, 0, 0]	n/a	catFR1	3	R1400N
115.512	24.332	117823	REC_END	n/a	n/a	n/a	n/a	-999	-1	[0, 0, 0]	n/a	catFR1	3	R1400N
139.844	10.35	142155	COUNTDOWN_START	n/a	n/a	n/a	n/a	-999	1	[0, 0, 0]	n/a	catFR1	3	R1400N
150.194	0.001	152505	COUNTDOWN_END	n/a	n/a	n/a	n/a	-999	1	[0, 0, 0]	n/a	catFR1	3	R1400N
150.195	2.198	152505	ENCODING_START	n/a	n/a	n/a	n/a	-999	1	[0, 0, 0]	n/a	catFR1	3	R1400N
152.393	1.601	154695	WORD	n/a	wordpools/wordpool_categorized_EN.txt	ONION	Vegetables	1	1	[0, 0, 0]	n/a	catFR1	3	R1400N
153.994	0.85	156305	WORD_OFF	n/a	n/a	ONION	Vegetables	1	1	[0, 0, 0]	n/a	catFR1	3	R1400N
154.844	1.617	157147	WORD	n/a	wordpools/wordpool_categorized_EN.txt	LETTUCE	Vegetables	2	1	[0, 0, 0]	n/a	catFR1	3	R1400N
156.461	0.783	158776	WORD_OFF	n/a	n/a	LETTUCE	Vegetables	2	1	[0, 0, 0]	n/a	catFR1	3	R1400N
157.244	1.617	159562	WORD	n/a	wordpools/wordpool_categorized_EN.txt	REFRIGERATOR	Appliances	3	1	[0, 0, 0]	n/a	catFR1	3	R1400N
158.861	0.816	161171	WORD_OFF	n/a	n/a	REFRIGERATOR	Appliances	3	1	[0, 0, 0]	n/a	catFR1	3	R1400N
159.677	1.616	161995	WORD	n/a	wordpools/wordpool_categorized_EN.txt	DRYER	Appliances	4	1	[0, 0, 0]	n/a	catFR1	3	R1400N
161.293	0.916	163604	WORD_OFF	n/a	n/a	DRYER	Appliances	4	1	[0, 0, 0]	n/a	catFR1	3	R1400N
162.209	1.6	164522	WORD	n/a	wordpools/wordpool_categorized_EN.txt	FLOOR	Building	5	1	[0, 0, 0]	n/a	catFR1	3	R1400N
163.809	0.9	166113	WORD_OFF	n/a	n/a	FLOOR	Building	5	1	[0, 0, 0]	n/a	catFR1	3	R1400N
164.709	1.602	167011	WORD	n/a	wordpools/wordpool_categorized_EN.txt	WALL	Building	6	1	[0, 0, 0]	n/a	catFR1	3	R1400N
166.311	0.966	168621	WORD_OFF	n/a	n/a	WALL	Building	6	1	[0, 0, 0]	n/a	catFR1	3	R1400N
167.277	1.616	169594	WORD	n/a	wordpools/wordpool_categorized_EN.txt	CABBAGE	Vegetables	7	1	[0, 0, 0]	n/a	catFR1	3	R1400N
168.893	0.917	171204	WORD_OFF	n/a	n/a	CABBAGE	Vegetables	7	1	[0, 0, 0]	n/a	catFR1	3	R1400N
169.81	1.6	172121	WORD	n/a	wordpools/wordpool_categorized_EN.txt	CORN	Vegetables	8	1	[0, 0, 0]	n/a	catFR1	3	R1400N
171.41	0.833	173712	WORD_OFF	n/a	n/a	CORN	Vegetables	8	1	[0, 0, 0]	n/a	catFR1	3	R1400N
172.243	1.601	174554	WORD	n/a	wordpools/wordpool_categorized_EN.txt	CEILING	Building	9	1	[0, 0, 0]	n/a	catFR1	3	R1400N
173.844	0.883	176145	WORD_OFF	n/a	n/a	CEILING	Building	9	1	[0, 0, 0]	n/a	catFR1	3	R1400N
174.727	1.616	177043	WORD	n/a	wordpools/wordpool_categorized_EN.txt	DOOR	Building	10	1	[0, 0, 0]	n/a	catFR1	3	R1400N
176.343	0.867	178653	WORD_OFF	n/a	n/a	DOOR	Building	10	1	[0, 0, 0]	n/a	catFR1	3	R1400N
177.21	1.6	179514	WORD	n/a	wordpools/wordpool_categorized_EN.txt	IRON	Appliances	11	1	[0, 0, 0]	n/a	catFR1	3	R1400N
178.81	0.884	181124	WORD_OFF	n/a	n/a	IRON	Appliances	11	1	[0, 0, 0]	n/a	catFR1	3	R1400N
179.694	1.617	182003	WORD	n/a	wordpools/wordpool_categorized_EN.txt	TOASTER	Appliances	12	1	[0, 0, 0]	n/a	catFR1	3	R1400N
181.311	0.0	183613	WORD_OFF	n/a	n/a	TOASTER	Appliances	12	1	[0, 0, 0]	n/a	catFR1	3	R1400N
181.311	0.001	183620	PROB	3.949	n/a	n/a	n/a	-999	1	[1, 7, 2]	10.0	catFR1	3	R1400N
181.312	0.0	183613	ENCODING_END	n/a	n/a	n/a	n/a	-999	1	[0, 0, 0]	n/a	catFR1	3	R1400N
181.312	0.0	183632	DISTRACT_START	n/a	n/a	n/a	n/a	-999	1	[0, 0, 0]	n/a	catFR1	3	R1400N
181.312	3.966	183621	START	n/a	n/a	n/a	n/a	-999	1	[-999, -999, -999]	n/a	catFR1	3	R1400N
185.278	2.916	187586	PROB	2.899	n/a	n/a	n/a	-999	1	[2, 5, 7]	14.0	catFR1	3	R1400N
188.194	4.184	190502	PROB	4.167	n/a	n/a	n/a	-999	1	[7, 7, 1]	15.0	catFR1	3	R1400N
192.378	2.584	194686	PROB	2.566	n/a	n/a	n/a	-999	1	[7, 8, 2]	17.0	catFR1	3	R1400N
194.962	3.466	197270	PROB	3.449	n/a	n/a	n/a	-999	1	[2, 2, 8]	12.0	catFR1	3	R1400N
198.428	3.966	200736	PROB	3.949	n/a	n/a	n/a	-999	1	[7, 8, 6]	21.0	catFR1	3	R1400N
202.394	0.0	204707	DISTRACT_END	n/a	n/a	n/a	n/a	-999	1	[0, 0, 0]	n/a	catFR1	3	R1400N
202.394	2.366	204702	STOP	n/a	n/a	n/a	n/a	-999	1	[-999, -999, -999]	n/a	catFR1	3	R1400N
204.76	2.218	207073	REC_START	n/a	n/a	n/a	n/a	-999	1	[0, 0, 0]	n/a	catFR1	3	R1400N
206.978	0.475	209286	REC_WORD_VV	2.218	n/a	<>	n/a	-999	1	[0, 0, 0]	n/a	catFR1	3	R1400N
207.453	3.635	209761	REC_WORD	2.693	n/a	CABBAGE	Vegetables	7	1	[0, 0, 0]	n/a	catFR1	3	R1400N
211.088	3.136	213396	REC_WORD_VV	6.328	n/a	<>	n/a	-999	1	[0, 0, 0]	n/a	catFR1	3	R1400N
214.224	20.749	216532	REC_WORD	9.464	n/a	DOOR	Building	10	1	[0, 0, 0]	n/a	catFR1	3	R1400N
234.973	1.604	237274	REC_END	n/a	n/a	n/a	n/a	-999	1	[0, 0, 0]	n/a	catFR1	3	R1400N
236.577	10.35	238884	COUNTDOWN_START	n/a	n/a	n/a	n/a	-999	2	[0, 0, 0]	n/a	catFR1	3	R1400N
246.927	0.0	249235	COUNTDOWN_END	n/a	n/a	n/a	n/a	-999	2	[0, 0, 0]	n/a	catFR1	3	R1400N
246.927	2.05	249235	ENCODING_START	n/a	n/a	n/a	n/a	-999	2	[0, 0, 0]	n/a	catFR1	3	R1400N
248.977	1.616	251293	WORD	n/a	wordpools/wordpool_categorized_EN.txt	TRUMPET	Instruments	1	2	[0, 0, 0]	n/a	catFR1	3	R1400N
250.593	0.967	252903	WORD_OFF	n/a	n/a	TRUMPET	Instruments	1	2	[0, 0, 0]	n/a	catFR1	3	R1400N
251.56	1.617	253858	WORD	n/a	wordpools/wordpool_categorized_EN.txt	TROMBONE	Instruments	2	2	[0, 0, 0]	n/a	catFR1	3	R1400N
253.177	0.933	255486	WORD_OFF	n/a	n/a	TROMBONE	Instruments	2	2	[0, 0, 0]	n/a	catFR1	3	R1400N
254.11	1.6	256422	WORD	n/a	wordpools/wordpool_categorized_EN.txt	TAPE	OfficeSupplies	3	2	[0, 0, 0]	n/a	catFR1	3	R1400N
255.71	0.783	258013	WORD_OFF	n/a	n/a	TAPE	OfficeSupplies	3	2	[0, 0, 0]	n/a	catFR1	3	R1400N
256.493	1.6	258799	WORD	n/a	wordpools/wordpool_categorized_EN.txt	PENCIL	OfficeSupplies	4	2	[0, 0, 0]	n/a	catFR1	3	R1400N
258.093	0.9	260409	WORD_OFF	n/a	n/a	PENCIL	OfficeSupplies	4	2	[0, 0, 0]	n/a	catFR1	3	R1400N
258.993	1.6	261307	WORD	n/a	wordpools/wordpool_categorized_EN.txt	ANT	Insects	5	2	[0, 0, 0]	n/a	catFR1	3	R1400N
260.593	0.9	262898	WORD_OFF	n/a	n/a	ANT	Insects	5	2	[0, 0, 0]	n/a	catFR1	3	R1400N
261.493	1.6	263796	WORD	n/a	wordpools/wordpool_categorized_EN.txt	CRICKET	Insects	6	2	[0, 0, 0]	n/a	catFR1	3	R1400N
263.093	1.001	265406	WORD_OFF	n/a	n/a	CRICKET	Insects	6	2	[0, 0, 0]	n/a	catFR1	3	R1400N
264.094	1.6	266398	WORD	n/a	wordpools/wordpool_categorized_EN.txt	GUITAR	Instruments	7	2	[0, 0, 0]	n/a	catFR1	3	R1400N
265.694	0.9	268008	WORD_OFF	n/a	n/a	GUITAR	Instruments	7	2	[0, 0, 0]	n/a	catFR1	3	R1400N
266.594	1.6	268906	WORD	n/a	wordpools/wordpool_categorized_EN.txt	CELLO	Instruments	8	2	[0, 0, 0]	n/a	catFR1	3	R1400N
268.194	0.967	270497	WORD_OFF	n/a	n/a	CELLO	Instruments	8	2	[0, 0, 0]	n/a	catFR1	3	R1400N
269.161	1.601	271470	WORD	n/a	wordpools/wordpool_categorized_EN.txt	BEETLE	Insects	9	2	[0, 0, 0]	n/a	catFR1	3	R1400N
270.762	0.966	273061	WORD_OFF	n/a	n/a	BEETLE	Insects	9	2	[0, 0, 0]	n/a	catFR1	3	R1400N
271.728	1.616	274035	WORD	n/a	wordpools/wordpool_categorized_EN.txt	BEE	Insects	10	2	[0, 0, 0]	n/a	catFR1	3	R1400N
273.344	0.783	275644	WORD_OFF	n/a	n/a	BEE	Insects	10	2	[0, 0, 0]	n/a	catFR1	3	R1400N
274.127	1.617	276430	WORD	n/a	wordpools/wordpool_categorized_EN.txt	BINDER	OfficeSupplies	11	2	[0, 0, 0]	n/a	catFR1	3	R1400N
275.744	0.883	278040	WORD_OFF	n/a	n/a	BINDER	OfficeSupplies	11	2	[0, 0, 0]	n/a	catFR1	3	R1400N
276.627	1.616	278938	WORD	n/a	wordpools/wordpool_categorized_EN.txt	PAPER	OfficeSupplies	12	2	[0, 0, 0]	n/a	catFR1	3	R1400N
278.243	0.0	280548	WORD_OFF	n/a	n/a	PAPER	OfficeSupplies	12	2	[0, 0, 0]	n/a	catFR1	3	R1400N
278.243	0.001	280549	PROB	3.334	n/a	n/a	n/a	-999	2	[5, 5, 5]	15.0	catFR1	3	R1400N
278.244	0.001	280548	ENCODING_END	n/a	n/a	n/a	n/a	-999	2	[0, 0, 0]	n/a	catFR1	3	R1400N
278.245	0.0	280548	DISTRACT_START	n/a	n/a	n/a	n/a	-999	2	[0, 0, 0]	n/a	catFR1	3	R1400N
278.245	3.349	280551	START	n/a	n/a	n/a	n/a	-999	2	[-999, -999, -999]	n/a	catFR1	3	R1400N
281.594	3.167	283900	PROB	3.149	n/a	n/a	n/a	-999	2	[3, 7, 4]	14.0	catFR1	3	R1400N
284.761	2.85	287067	PROB	2.833	n/a	n/a	n/a	-999	2	[8, 8, 8]	24.0	catFR1	3	R1400N
287.611	3.567	289916	PROB	3.55	n/a	n/a	n/a	-999	2	[2, 7, 7]	16.0	catFR1	3	R1400N
291.178	3.8	293483	PROB	3.783	n/a	n/a	n/a	-999	2	[7, 4, 7]	18.0	catFR1	3	R1400N
294.978	2.949	297283	PROB	2.933	n/a	n/a	n/a	-999	2	[6, 3, 5]	14.0	catFR1	3	R1400N
297.927	3.835	300232	PROB	3.817	n/a	n/a	n/a	-999	2	[8, 1, 6]	15.0	catFR1	3	R1400N
301.762	0.0	304075	DISTRACT_END	n/a	n/a	n/a	n/a	-999	2	[0, 0, 0]	n/a	catFR1	3	R1400N
301.762	2.099	304067	STOP	n/a	n/a	n/a	n/a	-999	2	[-999, -999, -999]	n/a	catFR1	3	R1400N
303.861	1.28	306161	REC_START	n/a	n/a	n/a	n/a	-999	2	[0, 0, 0]	n/a	catFR1	3	R1400N
305.141	2.524	307446	REC_WORD	1.28	n/a	TRUMPET	Instruments	1	2	[0, 0, 0]	n/a	catFR1	3	R1400N
307.665	1.825	309970	REC_WORD	3.804	n/a	TAPE	OfficeSupplies	3	2	[0, 0, 0]	n/a	catFR1	3	R1400N
309.49	4.154	311795	REC_WORD	5.629	n/a	ANT	Insects	5	2	[0, 0, 0]	n/a	catFR1	3	R1400N
313.644	3.568	315949	REC_WORD	9.783	n/a	APPLE	n/a	-999	2	[0, 0, 0]	n/a	catFR1	3	R1400N
317.212	16.87	319517	REC_WORD_VV	13.351	n/a	<>	n/a	-999	2	[0, 0, 0]	n/a	catFR1	3	R1400N
334.082	1.795	336381	REC_END	n/a	n/a	n/a	n/a	-999	2	[0, 0, 0]	n/a	catFR1	3	R1400N
335.877	10.351	338178	COUNTDOWN_START	n/a	n/a	n/a	n/a	-999	3	[0, 0, 0]	n/a	catFR1	3	R1400N
346.228	0.0	348528	COUNTDOWN_END	n/a	n/a	n/a	n/a	-999	3	[0, 0, 0]	n/a	catFR1	3	R1400N
346.228	1.983	348528	ENCODING_START	n/a	n/a	n/a	n/a	-999	3	[0, 0, 0]	n/a	catFR1	3	R1400N
348.211	1.6	350512	WORD	n/a	wordpools/wordpool_categorized_EN.txt	OAK	Trees	1	3	[0, 0, 0]	n/a	catFR1	3	R1400N
349.811	0.999	352122	WORD_OFF	n/a	n/a	OAK	Trees	1	3	[0, 0, 0]	n/a	catFR1	3	R1400N
350.81	1.617	353114	WORD	n/a	wordpools/wordpool_categorized_EN.txt	CEDAR	Trees	2	3	[0, 0, 0]	n/a	catFR1	3	R1400N
352.427	0.833	354723	WORD_OFF	n/a	n/a	CEDAR	Trees	2	3	[0, 0, 0]	n/a	catFR1	3	R1400N
353.26	1.601	355566	WORD	n/a	wordpools/wordpool_categorized_EN.txt	FREEZER	Appliances	3	3	[0, 0, 0]	n/a	catFR1	3	R1400N
354.861	0.916	357157	WORD_OFF	n/a	n/a	FREEZER	Appliances	3	3	[0, 0, 0]	n/a	catFR1	3	R1400N
355.777	1.616	358074	WORD	n/a	wordpools/wordpool_categorized_EN.txt	WASHER	Appliances	4	3	[0, 0, 0]	n/a	catFR1	3	R1400N
357.393	0.851	359702	WORD_OFF	n/a	n/a	WASHER	Appliances	4	3	[0, 0, 0]	n/a	catFR1	3	R1400N
358.244	1.6	360544	WORD	n/a	wordpools/wordpool_categorized_EN.txt	LEG	BodyParts	5	3	[0, 0, 0]	n/a	catFR1	3	R1400N
359.844	0.816	362154	WORD_OFF	n/a	n/a	LEG	BodyParts	5	3	[0, 0, 0]	n/a	catFR1	3	R1400N
360.66	1.617	362959	WORD	n/a	wordpools/wordpool_categorized_EN.txt	ELBOW	BodyParts	6	3	[0, 0, 0]	n/a	catFR1	3	R1400N
362.277	0.866	364587	WORD_OFF	n/a	n/a	ELBOW	BodyParts	6	3	[0, 0, 0]	n/a	catFR1	3	R1400N
363.143	1.616	365448	WORD	n/a	wordpools/wordpool_categorized_EN.txt	ELM	Trees	7	3	[0, 0, 0]	n/a	catFR1	3	R1400N
364.759	0.918	367058	WORD_OFF	n/a	n/a	ELM	Trees	7	3	[0, 0, 0]	n/a	catFR1	3	R1400N
365.677	1.616	367975	WORD	n/a	wordpools/wordpool_categorized_EN.txt	WILLOW	Trees	8	3	[0, 0, 0]	n/a	catFR1	3	R1400N
367.293	0.967	369603	WORD_OFF	n/a	n/a	WILLOW	Trees	8	3	[0, 0, 0]	n/a	catFR1	3	R1400N
368.26	1.6	370558	WORD	n/a	wordpools/wordpool_categorized_EN.txt	DISHWASHER	Appliances	9	3	[0, 0, 0]	n/a	catFR1	3	R1400N
369.86	0.85	372168	WORD_OFF	n/a	n/a	DISHWASHER	Appliances	9	3	[0, 0, 0]	n/a	catFR1	3	R1400N
370.71	1.601	373010	WORD	n/a	wordpools/wordpool_categorized_EN.txt	BLENDER	Appliances	10	3	[0, 0, 0]	n/a	catFR1	3	R1400N
372.311	0.916	374619	WORD_OFF	n/a	n/a	BLENDER	Appliances	10	3	[0, 0, 0]	n/a	catFR1	3	R1400N
373.227	1.6	375537	WORD	n/a	wordpools/wordpool_categorized_EN.txt	HAND	BodyParts	11	3	[0, 0, 0]	n/a	catFR1	3	R1400N
374.827	1.0	377128	WORD_OFF	n/a	n/a	HAND	BodyParts	11	3	[0, 0, 0]	n/a	catFR1	3	R1400N
375.827	1.617	378138	WORD	n/a	wordpools/wordpool_categorized_EN.txt	EAR	BodyParts	12	3	[0, 0, 0]	n/a	catFR1	3	R1400N
377.444	0.0	379748	WORD_OFF	n/a	n/a	EAR	BodyParts	12	3	[0, 0, 0]	n/a	catFR1	3	R1400N
377.444	0.001	379747	PROB	9.133	n/a	n/a	n/a	-999	3	[5, 8, 1]	14.0	catFR1	3	R1400N
377.445	0.001	379748	ENCODING_END	n/a	n/a	n/a	n/a	-999	3	[0, 0, 0]	n/a	catFR1	3	R1400N
377.446	0.0	379748	DISTRACT_START	n/a	n/a	n/a	n/a	-999	3	[0, 0, 0]	n/a	catFR1	3	R1400N
377.446	9.149	379749	START	n/a	n/a	n/a	n/a	-999	3	[-999, -999, -999]	n/a	catFR1	3	R1400N
386.595	3.733	388897	PROB	3.716	n/a	n/a	n/a	-999	3	[2, 1, 6]	9.0	catFR1	3	R1400N
390.328	4.317	392630	PROB	4.299	n/a	n/a	n/a	-999	3	[6, 7, 2]	15.0	catFR1	3	R1400N
394.645	4.365	396947	PROB	4.349	n/a	n/a	n/a	-999	3	[3, 6, 8]	17.0	catFR1	3	R1400N
399.01	0.0	401310	DISTRACT_END	n/a	n/a	n/a	n/a	-999	3	[0, 0, 0]	n/a	catFR1	3	R1400N
399.01	2.284	401312	STOP	n/a	n/a	n/a	n/a	-999	3	[-999, -999, -999]	n/a	catFR1	3	R1400N
401.294	2.913	403601	REC_START	n/a	n/a	n/a	n/a	-999	3	[0, 0, 0]	n/a	catFR1	3	R1400N
404.207	1.511	406509	REC_WORD	2.913	n/a	OAK	Trees	1	3	[0, 0, 0]	n/a	catFR1	3	R1400N
405.718	2.671	408020	REC_WORD	4.424	n/a	FREEZER	Appliances	3	3	[0, 0, 0]	n/a	catFR1	3	R1400N
408.389	1.247	410691	REC_WORD	7.095	n/a	PANDA	n/a	-999	3	[0, 0, 0]	n/a	catFR1	3	R1400N
409.636	1.907	411938	REC_WORD_VV	8.342	n/a	<>	n/a	-999	3	[0, 0, 0]	n/a	catFR1	3	R1400N
411.543	19.961	413845	REC_WORD	10.249	n/a	BLENDER	Appliances	10	3	[0, 0, 0]	n/a	catFR1	3	R1400N
431.504	3.156	433802	REC_END	n/a	n/a	n/a	n/a	-999	3	[0, 0, 0]	n/a	catFR1	3	R1400N
434.66	10.351	436966	COUNTDOWN_START	n/a	n/a	n/a	n/a	-999	4	[0, 0, 0]	n/a	catFR1	3	R1400N
445.011	0.007	447316	COUNTDOWN_END	n/a	n/a	n/a	n/a	-999	4	[0, 0, 0]	n/a	catFR1	3	R1400N
445.018	2.192	447316	ENCODING_START	n/a	n/a	n/a	n/a	-999	4	[0, 0, 0]	n/a	catFR1	3	R1400N
447.21	1.617	449506	WORD	n/a	wordpools/wordpool_categorized_EN.txt	BIRCH	Trees	1	4	[0, 0, 0]	n/a	catFR1	3	R1400N
448.827	1.0	451134	WORD_OFF	n/a	n/a	BIRCH	Trees	1	4	[0, 0, 0]	n/a	catFR1	3	R1400N
449.827	1.616	452126	WORD	n/a	wordpools/wordpool_categorized_EN.txt	EVERGREEN	Trees	2	4	[0, 0, 0]	n/a	catFR1	3	R1400N
451.443	0.967	453736	WORD_OFF	n/a	n/a	EVERGREEN	Trees	2	4	[0, 0, 0]	n/a	catFR1	3	R1400N
452.41	1.6	454709	WORD	n/a	wordpools/wordpool_categorized_EN.txt	HORSE	FarmAnimals	3	4	[0, 0, 0]	n/a	catFR1	3	R1400N
454.01	0.966	456319	WORD_OFF	n/a	n/a	HORSE	FarmAnimals	3	4	[0, 0, 0]	n/a	catFR1	3	R1400N
454.976	1.617	457274	WORD	n/a	wordpools/wordpool_categorized_EN.txt	CHICKEN	FarmAnimals	4	4	[0, 0, 0]	n/a	catFR1	3	R1400N
456.593	0.934	458902	WORD_OFF	n/a	n/a	CHICKEN	FarmAnimals	4	4	[0, 0, 0]	n/a	catFR1	3	R1400N
457.527	1.616	459819	WORD	n/a	wordpools/wordpool_categorized_EN.txt	SANDER	Tools	5	4	[0, 0, 0]	n/a	catFR1	3	R1400N
459.143	0.833	461447	WORD_OFF	n/a	n/a	SANDER	Tools	5	4	[0, 0, 0]	n/a	catFR1	3	R1400N
459.976	1.601	462271	WORD	n/a	wordpools/wordpool_categorized_EN.txt	WRENCH	Tools	6	4	[0, 0, 0]	n/a	catFR1	3	R1400N
461.577	0.799	463881	WORD_OFF	n/a	n/a	WRENCH	Tools	6	4	[0, 0, 0]	n/a	catFR1	3	R1400N
462.376	1.601	464685	WORD	n/a	wordpools/wordpool_categorized_EN.txt	COW	FarmAnimals	7	4	[0, 0, 0]	n/a	catFR1	3	R1400N
463.977	0.867	466276	WORD_OFF	n/a	n/a	COW	FarmAnimals	7	4	[0, 0, 0]	n/a	catFR1	3	R1400N
464.844	1.6	467137	WORD	n/a	wordpools/wordpool_categorized_EN.txt	GOAT	FarmAnimals	8	4	[0, 0, 0]	n/a	catFR1	3	R1400N
466.444	0.933	468747	WORD_OFF	n/a	n/a	GOAT	FarmAnimals	8	4	[0, 0, 0]	n/a	catFR1	3	R1400N
467.377	1.601	469683	WORD	n/a	wordpools/wordpool_categorized_EN.txt	WALNUT	Trees	9	4	[0, 0, 0]	n/a	catFR1	3	R1400N
468.978	0.966	471274	WORD_OFF	n/a	n/a	WALNUT	Trees	9	4	[0, 0, 0]	n/a	catFR1	3	R1400N
469.944	1.6	472247	WORD	n/a	wordpools/wordpool_categorized_EN.txt	MAPLE	Trees	10	4	[0, 0, 0]	n/a	catFR1	3	R1400N
471.544	0.916	473838	WORD_OFF	n/a	n/a	MAPLE	Trees	10	4	[0, 0, 0]	n/a	catFR1	3	R1400N
472.46	1.601	474755	WORD	n/a	wordpools/wordpool_categorized_EN.txt	DRILL	Tools	11	4	[0, 0, 0]	n/a	catFR1	3	R1400N
474.061	0.783	476365	WORD_OFF	n/a	n/a	DRILL	Tools	11	4	[0, 0, 0]	n/a	catFR1	3	R1400N
474.844	1.6	477151	WORD	n/a	wordpools/wordpool_categorized_EN.txt	SAW	Tools	12	4	[0, 0, 0]	n/a	catFR1	3	R1400N
476.444	0.001	478742	WORD_OFF	n/a	n/a	SAW	Tools	12	4	[0, 0, 0]	n/a	catFR1	3	R1400N
476.445	0.0	478742	DISTRACT_START	n/a	n/a	n/a	n/a	-999	4	[0, 0, 0]	n/a	catFR1	3	R1400N
476.445	0.0	478742	ENCODING_END	n/a	n/a	n/a	n/a	-999	4	[0, 0, 0]	n/a	catFR1	3	R1400N
476.445	0.0	478745	START	n/a	n/a	n/a	n/a	-999	4	[-999, -999, -999]	n/a	catFR1	3	R1400N
476.445	6.483	478745	PROB	6.466	n/a	n/a	n/a	-999	4	[2, 3, 5]	10.0	catFR1	3	R1400N
482.928	4.566	485228	PROB	4.549	n/a	n/a	n/a	-999	4	[7, 5, 7]	19.0	catFR1	3	R1400N
487.494	4.166	489793	PROB	4.149	n/a	n/a	n/a	-999	4	[4, 8, 5]	17.0	catFR1	3	R1400N
491.66	3.368	493959	PROB	3.351	n/a	n/a	n/a	-999	4	[1, 5, 3]	9.0	catFR1	3	R1400N
495.028	2.533	497327	PROB	2.516	n/a	n/a	n/a	-999	4	[3, 3, 3]	9.0	catFR1	3	R1400N
497.561	0.0	499855	DISTRACT_END	n/a	n/a	n/a	n/a	-999	4	[0, 0, 0]	n/a	catFR1	3	R1400N
497.561	2.316	499860	STOP	n/a	n/a	n/a	n/a	-999	4	[-999, -999, -999]	n/a	catFR1	3	R1400N
499.877	2.237	502184	REC_START	n/a	n/a	n/a	n/a	-999	4	[0, 0, 0]	n/a	catFR1	3	R1400N
502.114	2.152	504413	REC_WORD	2.237	n/a	GOAT	FarmAnimals	8	4	[0, 0, 0]	n/a	catFR1	3	R1400N
504.266	2.608	506565	REC_WORD	4.389	n/a	WALNUT	Trees	9	4	[0, 0, 0]	n/a	catFR1	3	R1400N
506.874	2.205	509173	REC_WORD	6.997	n/a	MAPLE	Trees	10	4	[0, 0, 0]	n/a	catFR1	3	R1400N
509.079	21.006	511378	REC_WORD	9.202	n/a	DRILL	Tools	11	4	[0, 0, 0]	n/a	catFR1	3	R1400N
530.085	1.242	532385	REC_END	n/a	n/a	n/a	n/a	-999	4	[0, 0, 0]	n/a	catFR1	3	R1400N
531.327	10.35	533620	COUNTDOWN_START	n/a	n/a	n/a	n/a	-999	5	[0, 0, 0]	n/a	catFR1	3	R1400N
541.677	0.0	543970	COUNTDOWN_END	n/a	n/a	n/a	n/a	-999	5	[0, 0, 0]	n/a	catFR1	3	R1400N
541.677	2.016	543970	ENCODING_START	n/a	n/a	n/a	n/a	-999	5	[0, 0, 0]	n/a	catFR1	3	R1400N
543.693	1.6	545992	WORD	n/a	wordpools/wordpool_categorized_EN.txt	TABLE	Furniture	1	5	[0, 0, 0]	n/a	catFR1	3	R1400N
545.293	0.767	547583	WORD_OFF	n/a	n/a	TABLE	Furniture	1	5	[0, 0, 0]	n/a	catFR1	3	R1400N
546.06	1.6	548350	WORD	n/a	wordpools/wordpool_categorized_EN.txt	CHAIR	Furniture	2	5	[0, 0, 0]	n/a	catFR1	3	R1400N
547.66	0.833	549960	WORD_OFF	n/a	n/a	CHAIR	Furniture	2	5	[0, 0, 0]	n/a	catFR1	3	R1400N
548.493	1.6	550783	WORD	n/a	wordpools/wordpool_categorized_EN.txt	COBBLER	Desserts	3	5	[0, 0, 0]	n/a	catFR1	3	R1400N
550.093	0.833	552393	WORD_OFF	n/a	n/a	COBBLER	Desserts	3	5	[0, 0, 0]	n/a	catFR1	3	R1400N
550.926	1.617	553217	WORD	n/a	wordpools/wordpool_categorized_EN.txt	CAKE	Desserts	4	5	[0, 0, 0]	n/a	catFR1	3	R1400N
552.543	0.866	554845	WORD_OFF	n/a	n/a	CAKE	Desserts	4	5	[0, 0, 0]	n/a	catFR1	3	R1400N
553.409	1.601	555706	WORD	n/a	wordpools/wordpool_categorized_EN.txt	COFFEE	Beverages	5	5	[0, 0, 0]	n/a	catFR1	3	R1400N
555.01	0.866	557316	WORD_OFF	n/a	n/a	COFFEE	Beverages	5	5	[0, 0, 0]	n/a	catFR1	3	R1400N
555.876	1.6	558177	WORD	n/a	wordpools/wordpool_categorized_EN.txt	JUICE	Beverages	6	5	[0, 0, 0]	n/a	catFR1	3	R1400N
557.476	0.967	559768	WORD_OFF	n/a	n/a	JUICE	Beverages	6	5	[0, 0, 0]	n/a	catFR1	3	R1400N
558.443	1.617	560741	WORD	n/a	wordpools/wordpool_categorized_EN.txt	COUCH	Furniture	7	5	[0, 0, 0]	n/a	catFR1	3	R1400N
560.06	0.933	562351	WORD_OFF	n/a	n/a	COUCH	Furniture	7	5	[0, 0, 0]	n/a	catFR1	3	R1400N
560.993	1.601	563286	WORD	n/a	wordpools/wordpool_categorized_EN.txt	DRESSER	Furniture	8	5	[0, 0, 0]	n/a	catFR1	3	R1400N
562.594	0.983	564896	WORD_OFF	n/a	n/a	DRESSER	Furniture	8	5	[0, 0, 0]	n/a	catFR1	3	R1400N
563.577	1.617	565869	WORD	n/a	wordpools/wordpool_categorized_EN.txt	SODA	Beverages	9	5	[0, 0, 0]	n/a	catFR1	3	R1400N
565.194	0.85	567498	WORD_OFF	n/a	n/a	SODA	Beverages	9	5	[0, 0, 0]	n/a	catFR1	3	R1400N
566.044	1.617	568340	WORD	n/a	wordpools/wordpool_categorized_EN.txt	RUM	Beverages	10	5	[0, 0, 0]	n/a	catFR1	3	R1400N
567.661	0.767	569950	WORD_OFF	n/a	n/a	RUM	Beverages	10	5	[0, 0, 0]	n/a	catFR1	3	R1400N
568.428	1.617	570717	WORD	n/a	wordpools/wordpool_categorized_EN.txt	CUPCAKE	Desserts	11	5	[0, 0, 0]	n/a	catFR1	3	R1400N
570.045	0.782	572345	WORD_OFF	n/a	n/a	CUPCAKE	Desserts	11	5	[0, 0, 0]	n/a	catFR1	3	R1400N
570.827	1.6	573132	WORD	n/a	wordpools/wordpool_categorized_EN.txt	JELLO	Desserts	12	5	[0, 0, 0]	n/a	catFR1	3	R1400N
572.427	0.001	574722	WORD_OFF	n/a	n/a	JELLO	Desserts	12	5	[0, 0, 0]	n/a	catFR1	3	R1400N
572.428	0.001	574725	PROB	6.083	n/a	n/a	n/a	-999	5	[7, 7, 4]	18.0	catFR1	3	R1400N
572.429	0.0	574722	DISTRACT_START	n/a	n/a	n/a	n/a	-999	5	[0, 0, 0]	n/a	catFR1	3	R1400N
572.429	0.0	574722	ENCODING_END	n/a	n/a	n/a	n/a	-999	5	[0, 0, 0]	n/a	catFR1	3	R1400N
572.429	6.099	574726	START	n/a	n/a	n/a	n/a	-999	5	[-999, -999, -999]	n/a	catFR1	3	R1400N
578.528	3.65	580825	PROB	3.633	n/a	n/a	n/a	-999	5	[1, 8, 7]	16.0	catFR1	3	R1400N
582.178	4.75	584475	PROB	4.733	n/a	n/a	n/a	-999	5	[2, 7, 3]	12.0	catFR1	3	R1400N
586.928	5.633	589225	PROB	5.616	n/a	n/a	n/a	-999	5	[7, 8, 6]	21.0	catFR1	3	R1400N
592.561	0.0	594862	DISTRACT_END	n/a	n/a	n/a	n/a	-999	5	[0, 0, 0]	n/a	catFR1	3	R1400N
592.561	2.016	594857	STOP	n/a	n/a	n/a	n/a	-999	5	[-999, -999, -999]	n/a	catFR1	3	R1400N
594.577	8.407	596873	REC_START	n/a	n/a	n/a	n/a	-999	5	[0, 0, 0]	n/a	catFR1	3	R1400N
602.984	1.612	605280	REC_WORD	8.407	n/a	TABLE	Furniture	1	5	[0, 0, 0]	n/a	catFR1	3	R1400N
604.596	3.796	606892	REC_WORD	10.019	n/a	CHAIR	Furniture	2	5	[0, 0, 0]	n/a	catFR1	3	R1400N
608.392	5.141	610688	REC_WORD	13.815	n/a	DRUM	n/a	-999	5	[0, 0, 0]	n/a	catFR1	3	R1400N
613.533	11.239	615829	REC_WORD	18.956	n/a	WALNUT	Trees	-999	5	[0, 0, 0]	n/a	catFR1	3	R1400N
624.772	0.855	627074	REC_END	n/a	n/a	n/a	n/a	-999	5	[0, 0, 0]	n/a	catFR1	3	R1400N
625.627	10.35	627916	COUNTDOWN_START	n/a	n/a	n/a	n/a	-999	6	[0, 0, 0]	n/a	catFR1	3	R1400N
635.977	0.001	638267	COUNTDOWN_END	n/a	n/a	n/a	n/a	-999	6	[0, 0, 0]	n/a	catFR1	3	R1400N
635.978	2.066	638267	ENCODING_START	n/a	n/a	n/a	n/a	-999	6	[0, 0, 0]	n/a	catFR1	3	R1400N
638.044	1.616	640344	WORD	n/a	wordpools/wordpool_categorized_EN.txt	AXE	Tools	1	6	[0, 0, 0]	n/a	catFR1	3	R1400N
639.66	0.867	641954	WORD_OFF	n/a	n/a	AXE	Tools	1	6	[0, 0, 0]	n/a	catFR1	3	R1400N
640.527	1.616	642815	WORD	n/a	wordpools/wordpool_categorized_EN.txt	PLIERS	Tools	2	6	[0, 0, 0]	n/a	catFR1	3	R1400N
642.143	0.95	644443	WORD_OFF	n/a	n/a	PLIERS	Tools	2	6	[0, 0, 0]	n/a	catFR1	3	R1400N
643.093	1.616	645379	WORD	n/a	wordpools/wordpool_categorized_EN.txt	OCEAN	Landscapes	3	6	[0, 0, 0]	n/a	catFR1	3	R1400N
644.709	0.784	647007	WORD_OFF	n/a	n/a	OCEAN	Landscapes	3	6	[0, 0, 0]	n/a	catFR1	3	R1400N
645.493	1.6	647793	WORD	n/a	wordpools/wordpool_categorized_EN.txt	VALLEY	Landscapes	4	6	[0, 0, 0]	n/a	catFR1	3	R1400N
647.093	0.834	649384	WORD_OFF	n/a	n/a	VALLEY	Landscapes	4	6	[0, 0, 0]	n/a	catFR1	3	R1400N
647.927	1.6	650227	WORD	n/a	wordpools/wordpool_categorized_EN.txt	SATIN	Fabric	5	6	[0, 0, 0]	n/a	catFR1	3	R1400N
649.527	0.849	651818	WORD_OFF	n/a	n/a	SATIN	Fabric	5	6	[0, 0, 0]	n/a	catFR1	3	R1400N
650.376	1.618	652679	WORD	n/a	wordpools/wordpool_categorized_EN.txt	SPANDEX	Fabric	6	6	[0, 0, 0]	n/a	catFR1	3	R1400N
651.994	0.849	654288	WORD_OFF	n/a	n/a	SPANDEX	Fabric	6	6	[0, 0, 0]	n/a	catFR1	3	R1400N
652.843	1.6	655131	WORD	n/a	wordpools/wordpool_categorized_EN.txt	FOREST	Landscapes	7	6	[0, 0, 0]	n/a	catFR1	3	R1400N
654.443	0.817	656740	WORD_OFF	n/a	n/a	FOREST	Landscapes	7	6	[0, 0, 0]	n/a	catFR1	3	R1400N
655.26	1.616	657545	WORD	n/a	wordpools/wordpool_categorized_EN.txt	LAKE	Landscapes	8	6	[0, 0, 0]	n/a	catFR1	3	R1400N
656.876	0.9	659173	WORD_OFF	n/a	n/a	LAKE	Landscapes	8	6	[0, 0, 0]	n/a	catFR1	3	R1400N
657.776	1.6	660072	WORD	n/a	wordpools/wordpool_categorized_EN.txt	HAMMER	Tools	9	6	[0, 0, 0]	n/a	catFR1	3	R1400N
659.376	0.867	661663	WORD_OFF	n/a	n/a	HAMMER	Tools	9	6	[0, 0, 0]	n/a	catFR1	3	R1400N
660.243	1.601	662542	WORD	n/a	wordpools/wordpool_categorized_EN.txt	RATCHET	Tools	10	6	[0, 0, 0]	n/a	catFR1	3	R1400N
661.844	0.767	664133	WORD_OFF	n/a	n/a	RATCHET	Tools	10	6	[0, 0, 0]	n/a	catFR1	3	R1400N
662.611	1.599	664901	WORD	n/a	wordpools/wordpool_categorized_EN.txt	DENIM	Fabric	11	6	[0, 0, 0]	n/a	catFR1	3	R1400N
664.21	0.968	666510	WORD_OFF	n/a	n/a	DENIM	Fabric	11	6	[0, 0, 0]	n/a	catFR1	3	R1400N
665.178	1.616	667465	WORD	n/a	wordpools/wordpool_categorized_EN.txt	FLEECE	Fabric	12	6	[0, 0, 0]	n/a	catFR1	3	R1400N
666.794	0.001	669093	WORD_OFF	n/a	n/a	FLEECE	Fabric	12	6	[0, 0, 0]	n/a	catFR1	3	R1400N
666.795	0.001	669089	PROB	3.916	n/a	n/a	n/a	-999	6	[4, 1, 5]	10.0	catFR1	3	R1400N
666.796	0.0	669093	DISTRACT_START	n/a	n/a	n/a	n/a	-999	6	[0, 0, 0]	n/a	catFR1	3	R1400N
666.796	0.0	669093	ENCODING_END	n/a	n/a	n/a	n/a	-999	6	[0, 0, 0]	n/a	catFR1	3	R1400N
666.796	3.932	669090	START	n/a	n/a	n/a	n/a	-999	6	[-999, -999, -999]	n/a	catFR1	3	R1400N
670.728	6.149	673022	PROB	6.133	n/a	n/a	n/a	-999	6	[7, 8, 4]	19.0	catFR1	3	R1400N
676.877	3.201	679171	PROB	3.184	n/a	n/a	n/a	-999	6	[4, 7, 3]	14.0	catFR1	3	R1400N
680.078	2.669	682372	PROB	2.649	n/a	n/a	n/a	-999	6	[2, 2, 5]	9.0	catFR1	3	R1400N
682.747	3.265	685041	PROB	3.25	n/a	n/a	n/a	-999	6	[5, 6, 5]	16.0	catFR1	3	R1400N
686.012	6.615	688306	PROB	6.599	n/a	n/a	n/a	-999	6	[2, 2, 6]	10.0	catFR1	3	R1400N
692.627	0.0	694923	DISTRACT_END	n/a	n/a	n/a	n/a	-999	6	[0, 0, 0]	n/a	catFR1	3	R1400N
692.627	2.384	694920	STOP	n/a	n/a	n/a	n/a	-999	6	[-999, -999, -999]	n/a	catFR1	3	R1400N
695.011	2.639	697308	REC_START	n/a	n/a	n/a	n/a	-999	6	[0, 0, 0]	n/a	catFR1	3	R1400N
697.65	1.287	699943	REC_WORD	2.639	n/a	AXE	Tools	1	6	[0, 0, 0]	n/a	catFR1	3	R1400N
698.937	1.75	701230	REC_WORD	3.926	n/a	PLIERS	Tools	2	6	[0, 0, 0]	n/a	catFR1	3	R1400N
700.687	4.403	702980	REC_WORD	5.676	n/a	VALLEY	Landscapes	4	6	[0, 0, 0]	n/a	catFR1	3	R1400N
705.09	20.15	707383	REC_WORD_VV	10.079	n/a	<>	n/a	-999	6	[0, 0, 0]	n/a	catFR1	3	R1400N
725.24	2.354	727528	REC_END	n/a	n/a	n/a	n/a	-999	6	[0, 0, 0]	n/a	catFR1	3	R1400N
727.594	10.35	729886	COUNTDOWN_START	n/a	n/a	n/a	n/a	-999	7	[0, 0, 0]	n/a	catFR1	3	R1400N
737.944	0.0	740236	COUNTDOWN_END	n/a	n/a	n/a	n/a	-999	7	[0, 0, 0]	n/a	catFR1	3	R1400N
737.944	2.182	740236	ENCODING_START	n/a	n/a	n/a	n/a	-999	7	[0, 0, 0]	n/a	catFR1	3	R1400N
740.126	1.601	742426	WORD	n/a	wordpools/wordpool_categorized_EN.txt	SPIDER	Insects	1	7	[0, 0, 0]	n/a	catFR1	3	R1400N
741.727	0.8	744017	WORD_OFF	n/a	n/a	SPIDER	Insects	1	7	[0, 0, 0]	n/a	catFR1	3	R1400N
742.527	1.616	744822	WORD	n/a	wordpools/wordpool_categorized_EN.txt	BUTTERFLY	Insects	2	7	[0, 0, 0]	n/a	catFR1	3	R1400N
744.143	0.8	746432	WORD_OFF	n/a	n/a	BUTTERFLY	Insects	2	7	[0, 0, 0]	n/a	catFR1	3	R1400N
744.943	1.6	747237	WORD	n/a	wordpools/wordpool_categorized_EN.txt	UNDERWEAR	Clothing	3	7	[0, 0, 0]	n/a	catFR1	3	R1400N
746.543	0.95	748828	WORD_OFF	n/a	n/a	UNDERWEAR	Clothing	3	7	[0, 0, 0]	n/a	catFR1	3	R1400N
747.493	1.617	749782	WORD	n/a	wordpools/wordpool_categorized_EN.txt	SHORTS	Clothing	4	7	[0, 0, 0]	n/a	catFR1	3	R1400N
749.11	0.95	751411	WORD_OFF	n/a	n/a	SHORTS	Clothing	4	7	[0, 0, 0]	n/a	catFR1	3	R1400N
750.06	1.617	752346	WORD	n/a	wordpools/wordpool_categorized_EN.txt	ROOM	Building	5	7	[0, 0, 0]	n/a	catFR1	3	R1400N
751.677	0.983	753975	WORD_OFF	n/a	n/a	ROOM	Building	5	7	[0, 0, 0]	n/a	catFR1	3	R1400N
752.66	1.616	754948	WORD	n/a	wordpools/wordpool_categorized_EN.txt	STAIRS	Building	6	7	[0, 0, 0]	n/a	catFR1	3	R1400N
754.276	0.867	756576	WORD_OFF	n/a	n/a	STAIRS	Building	6	7	[0, 0, 0]	n/a	catFR1	3	R1400N
755.143	1.6	757437	WORD	n/a	wordpools/wordpool_categorized_EN.txt	ROACH	Insects	7	7	[0, 0, 0]	n/a	catFR1	3	R1400N
756.743	0.933	759028	WORD_OFF	n/a	n/a	ROACH	Insects	7	7	[0, 0, 0]	n/a	catFR1	3	R1400N
757.676	1.6	759964	WORD	n/a	wordpools/wordpool_categorized_EN.txt	MOSQUITO	Insects	8	7	[0, 0, 0]	n/a	catFR1	3	R1400N
759.276	0.902	761574	WORD_OFF	n/a	n/a	MOSQUITO	Insects	8	7	[0, 0, 0]	n/a	catFR1	3	R1400N
760.178	1.599	762472	WORD	n/a	wordpools/wordpool_categorized_EN.txt	SKIRT	Clothing	9	7	[0, 0, 0]	n/a	catFR1	3	R1400N
761.777	0.8	764063	WORD_OFF	n/a	n/a	SKIRT	Clothing	9	7	[0, 0, 0]	n/a	catFR1	3	R1400N
762.577	1.602	764868	WORD	n/a	wordpools/wordpool_categorized_EN.txt	JACKET	Clothing	10	7	[0, 0, 0]	n/a	catFR1	3	R1400N
764.179	0.949	766478	WORD_OFF	n/a	n/a	JACKET	Clothing	10	7	[0, 0, 0]	n/a	catFR1	3	R1400N
765.128	1.6	767414	WORD	n/a	wordpools/wordpool_categorized_EN.txt	HALLWAY	Building	11	7	[0, 0, 0]	n/a	catFR1	3	R1400N
766.728	0.766	769023	WORD_OFF	n/a	n/a	HALLWAY	Building	11	7	[0, 0, 0]	n/a	catFR1	3	R1400N
767.494	1.6	769791	WORD	n/a	wordpools/wordpool_categorized_EN.txt	WINDOW	Building	12	7	[0, 0, 0]	n/a	catFR1	3	R1400N
769.094	0.001	771382	WORD_OFF	n/a	n/a	WINDOW	Building	12	7	[0, 0, 0]	n/a	catFR1	3	R1400N
769.095	0.001	771386	PROB	5.265	n/a	n/a	n/a	-999	7	[2, 1, 5]	8.0	catFR1	3	R1400N
769.096	0.0	771382	DISTRACT_START	n/a	n/a	n/a	n/a	-999	7	[0, 0, 0]	n/a	catFR1	3	R1400N
769.096	0.0	771382	ENCODING_END	n/a	n/a	n/a	n/a	-999	7	[0, 0, 0]	n/a	catFR1	3	R1400N
769.096	5.282	771387	START	n/a	n/a	n/a	n/a	-999	7	[-999, -999, -999]	n/a	catFR1	3	R1400N
774.378	4.265	776669	PROB	4.249	n/a	n/a	n/a	-999	7	[4, 3, 6]	13.0	catFR1	3	R1400N
778.643	3.351	780934	PROB	3.334	n/a	n/a	n/a	-999	7	[4, 5, 5]	14.0	catFR1	3	R1400N
781.994	3.317	784285	PROB	3.3	n/a	n/a	n/a	-999	7	[4, 5, 3]	12.0	catFR1	3	R1400N
785.311	2.483	787602	PROB	2.466	n/a	n/a	n/a	-999	7	[7, 6, 2]	15.0	catFR1	3	R1400N
787.794	4.0	790085	PROB	3.983	n/a	n/a	n/a	-999	7	[2, 7, 3]	12.0	catFR1	3	R1400N
791.794	0.0	794085	DISTRACT_END	n/a	n/a	n/a	n/a	-999	7	[0, 0, 0]	n/a	catFR1	3	R1400N
791.794	2.083	794084	STOP	n/a	n/a	n/a	n/a	-999	7	[-999, -999, -999]	n/a	catFR1	3	R1400N
793.877	1.672	796171	REC_START	n/a	n/a	n/a	n/a	-999	7	[0, 0, 0]	n/a	catFR1	3	R1400N
795.549	2.061	797839	REC_WORD	1.672	n/a	SPIDER	Insects	1	7	[0, 0, 0]	n/a	catFR1	3	R1400N
797.61	14.487	799900	REC_WORD	3.733	n/a	LION	n/a	-999	7	[0, 0, 0]	n/a	catFR1	3	R1400N
812.097	11.992	814387	REC_WORD_VV	18.22	n/a	<>	n/a	-999	7	[0, 0, 0]	n/a	catFR1	3	R1400N
824.089	1.638	826372	REC_END	n/a	n/a	n/a	n/a	-999	7	[0, 0, 0]	n/a	catFR1	3	R1400N
825.727	10.35	828019	COUNTDOWN_START	n/a	n/a	n/a	n/a	-999	8	[0, 0, 0]	n/a	catFR1	3	R1400N
836.077	0.001	838370	COUNTDOWN_END	n/a	n/a	n/a	n/a	-999	8	[0, 0, 0]	n/a	catFR1	3	R1400N
836.078	2.132	838370	ENCODING_START	n/a	n/a	n/a	n/a	-999	8	[0, 0, 0]	n/a	catFR1	3	R1400N
838.21	1.616	840503	WORD	n/a	wordpools/wordpool_categorized_EN.txt	HEAD	BodyParts	1	8	[0, 0, 0]	n/a	catFR1	3	R1400N
839.826	0.884	842132	WORD_OFF	n/a	n/a	HEAD	BodyParts	1	8	[0, 0, 0]	n/a	catFR1	3	R1400N
840.71	1.6	842993	WORD	n/a	wordpools/wordpool_categorized_EN.txt	KNEE	BodyParts	2	8	[0, 0, 0]	n/a	catFR1	3	R1400N
842.31	0.933	844602	WORD_OFF	n/a	n/a	KNEE	BodyParts	2	8	[0, 0, 0]	n/a	catFR1	3	R1400N
843.243	1.6	845538	WORD	n/a	wordpools/wordpool_categorized_EN.txt	WINE	Beverages	3	8	[0, 0, 0]	n/a	catFR1	3	R1400N
844.843	0.784	847129	WORD_OFF	n/a	n/a	WINE	Beverages	3	8	[0, 0, 0]	n/a	catFR1	3	R1400N
845.627	1.6	847915	WORD	n/a	wordpools/wordpool_categorized_EN.txt	WATER	Beverages	4	8	[0, 0, 0]	n/a	catFR1	3	R1400N
847.227	0.916	849525	WORD_OFF	n/a	n/a	WATER	Beverages	4	8	[0, 0, 0]	n/a	catFR1	3	R1400N
848.143	1.6	850423	WORD	n/a	wordpools/wordpool_categorized_EN.txt	FISH	OceanAnimals	5	8	[0, 0, 0]	n/a	catFR1	3	R1400N
849.743	0.867	852033	WORD_OFF	n/a	n/a	FISH	OceanAnimals	5	8	[0, 0, 0]	n/a	catFR1	3	R1400N
850.61	1.617	852894	WORD	n/a	wordpools/wordpool_categorized_EN.txt	PLANKTON	OceanAnimals	6	8	[0, 0, 0]	n/a	catFR1	3	R1400N
852.227	0.833	854522	WORD_OFF	n/a	n/a	PLANKTON	OceanAnimals	6	8	[0, 0, 0]	n/a	catFR1	3	R1400N
853.06	1.616	855346	WORD	n/a	wordpools/wordpool_categorized_EN.txt	ARM	BodyParts	7	8	[0, 0, 0]	n/a	catFR1	3	R1400N
854.676	0.9	856974	WORD_OFF	n/a	n/a	ARM	BodyParts	7	8	[0, 0, 0]	n/a	catFR1	3	R1400N
855.576	1.6	857873	WORD	n/a	wordpools/wordpool_categorized_EN.txt	EYE	BodyParts	8	8	[0, 0, 0]	n/a	catFR1	3	R1400N
857.176	0.767	859464	WORD_OFF	n/a	n/a	EYE	BodyParts	8	8	[0, 0, 0]	n/a	catFR1	3	R1400N
857.943	1.601	860231	WORD	n/a	wordpools/wordpool_categorized_EN.txt	CIDER	Beverages	9	8	[0, 0, 0]	n/a	catFR1	3	R1400N
859.544	0.882	861841	WORD_OFF	n/a	n/a	CIDER	Beverages	9	8	[0, 0, 0]	n/a	catFR1	3	R1400N
860.426	1.601	862720	WORD	n/a	wordpools/wordpool_categorized_EN.txt	LEMONADE	Beverages	10	8	[0, 0, 0]	n/a	catFR1	3	R1400N
862.027	0.967	864311	WORD_OFF	n/a	n/a	LEMONADE	Beverages	10	8	[0, 0, 0]	n/a	catFR1	3	R1400N
862.994	1.6	865284	WORD	n/a	wordpools/wordpool_categorized_EN.txt	SQUID	OceanAnimals	11	8	[0, 0, 0]	n/a	catFR1	3	R1400N
864.594	0.767	866875	WORD_OFF	n/a	n/a	SQUID	OceanAnimals	11	8	[0, 0, 0]	n/a	catFR1	3	R1400N
865.361	1.6	867643	WORD	n/a	wordpools/wordpool_categorized_EN.txt	SHRIMP	OceanAnimals	12	8	[0, 0, 0]	n/a	catFR1	3	R1400N
866.961	0.001	869252	WORD_OFF	n/a	n/a	SHRIMP	OceanAnimals	12	8	[0, 0, 0]	n/a	catFR1	3	R1400N
866.962	0.001	869250	PROB	3.248	n/a	n/a	n/a	-999	8	[2, 7, 3]	12.0	catFR1	3	R1400N
866.963	0.0	869252	DISTRACT_START	n/a	n/a	n/a	n/a	-999	8	[0, 0, 0]	n/a	catFR1	3	R1400N
866.963	0.0	869252	ENCODING_END	n/a	n/a	n/a	n/a	-999	8	[0, 0, 0]	n/a	catFR1	3	R1400N
866.963	3.264	869251	START	n/a	n/a	n/a	n/a	-999	8	[-999, -999, -999]	n/a	catFR1	3	R1400N
870.227	7.268	872515	PROB	7.25	n/a	n/a	n/a	-999	8	[8, 2, 4]	14.0	catFR1	3	R1400N
877.495	3.332	879783	PROB	3.316	n/a	n/a	n/a	-999	8	[1, 7, 7]	15.0	catFR1	3	R1400N
880.827	3.068	883115	PROB	3.05	n/a	n/a	n/a	-999	8	[2, 5, 3]	10.0	catFR1	3	R1400N
883.895	4.032	886183	PROB	4.016	n/a	n/a	n/a	-999	8	[1, 6, 1]	8.0	catFR1	3	R1400N
887.927	0.0	890216	DISTRACT_END	n/a	n/a	n/a	n/a	-999	8	[0, 0, 0]	n/a	catFR1	3	R1400N
887.927	2.167	890215	STOP	n/a	n/a	n/a	n/a	-999	8	[-999, -999, -999]	n/a	catFR1	3	R1400N
890.094	1.803	892376	REC_START	n/a	n/a	n/a	n/a	-999	8	[0, 0, 0]	n/a	catFR1	3	R1400N
891.897	2.07	894185	REC_WORD	1.803	n/a	HEAD	BodyParts	1	8	[0, 0, 0]	n/a	catFR1	3	R1400N
893.967	2.014	896254	REC_WORD	3.873	n/a	KNEE	BodyParts	2	8	[0, 0, 0]	n/a	catFR1	3	R1400N
895.981	2.188	898268	REC_WORD	5.887	n/a	ARM	BodyParts	7	8	[0, 0, 0]	n/a	catFR1	3	R1400N
898.169	22.141	900456	REC_WORD	8.075	n/a	WATER	Beverages	4	8	[0, 0, 0]	n/a	catFR1	3	R1400N
920.31	2.733	922596	REC_END	n/a	n/a	n/a	n/a	-999	8	[0, 0, 0]	n/a	catFR1	3	R1400N
923.043	10.351	925328	COUNTDOWN_START	n/a	n/a	n/a	n/a	-999	9	[0, 0, 0]	n/a	catFR1	3	R1400N
933.394	0.0	935679	COUNTDOWN_END	n/a	n/a	n/a	n/a	-999	9	[0, 0, 0]	n/a	catFR1	3	R1400N
933.394	2.099	935679	ENCODING_START	n/a	n/a	n/a	n/a	-999	9	[0, 0, 0]	n/a	catFR1	3	R1400N
935.493	1.6	937775	WORD	n/a	wordpools/wordpool_categorized_EN.txt	ELEPHANT	Zoo	1	9	[0, 0, 0]	n/a	catFR1	3	R1400N
937.093	0.917	939385	WORD_OFF	n/a	n/a	ELEPHANT	Zoo	1	9	[0, 0, 0]	n/a	catFR1	3	R1400N
938.01	1.6	940302	WORD	n/a	wordpools/wordpool_categorized_EN.txt	CHEETAH	Zoo	2	9	[0, 0, 0]	n/a	catFR1	3	R1400N
939.61	0.9	941893	WORD_OFF	n/a	n/a	CHEETAH	Zoo	2	9	[0, 0, 0]	n/a	catFR1	3	R1400N
940.51	1.6	942791	WORD	n/a	wordpools/wordpool_categorized_EN.txt	STRAWBERRY	Fruit	3	9	[0, 0, 0]	n/a	catFR1	3	R1400N
942.11	0.967	944401	WORD_OFF	n/a	n/a	STRAWBERRY	Fruit	3	9	[0, 0, 0]	n/a	catFR1	3	R1400N
943.077	1.616	945356	WORD	n/a	wordpools/wordpool_categorized_EN.txt	PEACH	Fruit	4	9	[0, 0, 0]	n/a	catFR1	3	R1400N
944.693	0.817	946984	WORD_OFF	n/a	n/a	PEACH	Fruit	4	9	[0, 0, 0]	n/a	catFR1	3	R1400N
945.51	1.616	947789	WORD	n/a	wordpools/wordpool_categorized_EN.txt	BLUEBIRD	Birds	5	9	[0, 0, 0]	n/a	catFR1	3	R1400N
947.126	0.834	949417	WORD_OFF	n/a	n/a	BLUEBIRD	Birds	5	9	[0, 0, 0]	n/a	catFR1	3	R1400N
947.96	1.616	950241	WORD	n/a	wordpools/wordpool_categorized_EN.txt	HAWK	Birds	6	9	[0, 0, 0]	n/a	catFR1	3	R1400N
949.576	0.951	951869	WORD_OFF	n/a	n/a	HAWK	Birds	6	9	[0, 0, 0]	n/a	catFR1	3	R1400N
950.527	1.616	952805	WORD	n/a	wordpools/wordpool_categorized_EN.txt	ORANGUTAN	Zoo	7	9	[0, 0, 0]	n/a	catFR1	3	R1400N
952.143	0.883	954433	WORD_OFF	n/a	n/a	ORANGUTAN	Zoo	7	9	[0, 0, 0]	n/a	catFR1	3	R1400N
953.026	1.6	955313	WORD	n/a	wordpools/wordpool_categorized_EN.txt	BEAR	Zoo	8	9	[0, 0, 0]	n/a	catFR1	3	R1400N
954.626	0.834	956904	WORD_OFF	n/a	n/a	BEAR	Zoo	8	9	[0, 0, 0]	n/a	catFR1	3	R1400N
955.46	1.601	957746	WORD	n/a	wordpools/wordpool_categorized_EN.txt	CHERRY	Fruit	9	9	[0, 0, 0]	n/a	catFR1	3	R1400N
957.061	0.915	959356	WORD_OFF	n/a	n/a	CHERRY	Fruit	9	9	[0, 0, 0]	n/a	catFR1	3	R1400N
957.976	1.601	960254	WORD	n/a	wordpools/wordpool_categorized_EN.txt	ORANGE	Fruit	10	9	[0, 0, 0]	n/a	catFR1	3	R1400N
959.577	0.816	961864	WORD_OFF	n/a	n/a	ORANGE	Fruit	10	9	[0, 0, 0]	n/a	catFR1	3	R1400N
960.393	1.601	962688	WORD	n/a	wordpools/wordpool_categorized_EN.txt	SEAGULL	Birds	11	9	[0, 0, 0]	n/a	catFR1	3	R1400N
961.994	0.8	964278	WORD_OFF	n/a	n/a	SEAGULL	Birds	11	9	[0, 0, 0]	n/a	catFR1	3	R1400N
962.794	1.6	965083	WORD	n/a	wordpools/wordpool_categorized_EN.txt	DUCK	Birds	12	9	[0, 0, 0]	n/a	catFR1	3	R1400N
964.394	0.002	966674	WORD_OFF	n/a	n/a	DUCK	Birds	12	9	[0, 0, 0]	n/a	catFR1	3	R1400N
964.396	0.0	966674	ENCODING_END	n/a	n/a	n/a	n/a	-999	9	[0, 0, 0]	n/a	catFR1	3	R1400N
964.396	0.0	966693	DISTRACT_START	n/a	n/a	n/a	n/a	-999	9	[0, 0, 0]	n/a	catFR1	3	R1400N
964.396	0.0	966681	START	n/a	n/a	n/a	n/a	-999	9	[-999, -999, -999]	n/a	catFR1	3	R1400N
964.396	8.182	966681	PROB	8.165	n/a	n/a	n/a	-999	9	[8, 5, 5]	18.0	catFR1	3	R1400N
972.578	3.867	974863	PROB	3.849	n/a	n/a	n/a	-999	9	[3, 8, 3]	14.0	catFR1	3	R1400N
976.445	4.016	978730	PROB	3.999	n/a	n/a	n/a	-999	9	[3, 8, 3]	14.0	catFR1	3	R1400N
980.461	3.949	982746	PROB	3.933	n/a	n/a	n/a	-999	9	[3, 4, 4]	11.0	catFR1	3	R1400N
984.41	0.0	986701	DISTRACT_END	n/a	n/a	n/a	n/a	-999	9	[0, 0, 0]	n/a	catFR1	3	R1400N
984.41	2.117	986695	STOP	n/a	n/a	n/a	n/a	-999	9	[-999, -999, -999]	n/a	catFR1	3	R1400N
986.527	29.999	988806	REC_START	n/a	n/a	n/a	n/a	-999	9	[0, 0, 0]	n/a	catFR1	3	R1400N
1016.526	0.191	1018810	REC_WORD_VV	29.999	n/a	<>	n/a	-999	9	[0, 0, 0]	n/a	catFR1	3	R1400N
1016.717	44.677	1019007	REC_END	n/a	n/a	n/a	n/a	-999	9	[0, 0, 0]	n/a	catFR1	3	R1400N
1061.394	10.351	1063684	COUNTDOWN_START	n/a	n/a	n/a	n/a	-999	10	[0, 0, 0]	n/a	catFR1	3	R1400N
1071.745	0.0	1074035	COUNTDOWN_END	n/a	n/a	n/a	n/a	-999	10	[0, 0, 0]	n/a	catFR1	3	R1400N
1071.745	2.066	1074035	ENCODING_START	n/a	n/a	n/a	n/a	-999	10	[0, 0, 0]	n/a	catFR1	3	R1400N
1073.811	1.616	1076094	WORD	n/a	wordpools/wordpool_categorized_EN.txt	BROCCOLI	Vegetables	1	10	[0, 0, 0]	n/a	catFR1	3	R1400N
1075.427	0.783	1077703	WORD_OFF	n/a	n/a	BROCCOLI	Vegetables	1	10	[0, 0, 0]	n/a	catFR1	3	R1400N
1076.21	1.601	1078489	WORD	n/a	wordpools/wordpool_categorized_EN.txt	SPINACH	Vegetables	2	10	[0, 0, 0]	n/a	catFR1	3	R1400N
1077.811	0.85	1080099	WORD_OFF	n/a	n/a	SPINACH	Vegetables	2	10	[0, 0, 0]	n/a	catFR1	3	R1400N
1078.661	1.6	1080941	WORD	n/a	wordpools/wordpool_categorized_EN.txt	BED	Furniture	3	10	[0, 0, 0]	n/a	catFR1	3	R1400N
1080.261	0.883	1082551	WORD_OFF	n/a	n/a	BED	Furniture	3	10	[0, 0, 0]	n/a	catFR1	3	R1400N
1081.144	1.616	1083431	WORD	n/a	wordpools/wordpool_categorized_EN.txt	CABINET	Furniture	4	10	[0, 0, 0]	n/a	catFR1	3	R1400N
1082.76	0.834	1085040	WORD_OFF	n/a	n/a	CABINET	Furniture	4	10	[0, 0, 0]	n/a	catFR1	3	R1400N
1083.594	1.6	1085883	WORD	n/a	wordpools/wordpool_categorized_EN.txt	OCTOPUS	OceanAnimals	5	10	[0, 0, 0]	n/a	catFR1	3	R1400N
1085.194	0.983	1087473	WORD_OFF	n/a	n/a	OCTOPUS	OceanAnimals	5	10	[0, 0, 0]	n/a	catFR1	3	R1400N
1086.177	1.617	1088465	WORD	n/a	wordpools/wordpool_categorized_EN.txt	OYSTER	OceanAnimals	6	10	[0, 0, 0]	n/a	catFR1	3	R1400N
1087.794	0.967	1090075	WORD_OFF	n/a	n/a	OYSTER	OceanAnimals	6	10	[0, 0, 0]	n/a	catFR1	3	R1400N
1088.761	1.6	1091048	WORD	n/a	wordpools/wordpool_categorized_EN.txt	SOFA	Furniture	7	10	[0, 0, 0]	n/a	catFR1	3	R1400N
1090.361	1.0	1092639	WORD_OFF	n/a	n/a	SOFA	Furniture	7	10	[0, 0, 0]	n/a	catFR1	3	R1400N
1091.361	1.6	1093650	WORD	n/a	wordpools/wordpool_categorized_EN.txt	BOOKCASE	Furniture	8	10	[0, 0, 0]	n/a	catFR1	3	R1400N
1092.961	0.766	1095241	WORD_OFF	n/a	n/a	BOOKCASE	Furniture	8	10	[0, 0, 0]	n/a	catFR1	3	R1400N
1093.727	1.6	1096008	WORD	n/a	wordpools/wordpool_categorized_EN.txt	WHALE	OceanAnimals	9	10	[0, 0, 0]	n/a	catFR1	3	R1400N
1095.327	0.784	1097618	WORD_OFF	n/a	n/a	WHALE	OceanAnimals	9	10	[0, 0, 0]	n/a	catFR1	3	R1400N
1096.111	1.6	1098385	WORD	n/a	wordpools/wordpool_categorized_EN.txt	TURTLE	OceanAnimals	10	10	[0, 0, 0]	n/a	catFR1	3	R1400N
1097.711	0.983	1099995	WORD_OFF	n/a	n/a	TURTLE	OceanAnimals	10	10	[0, 0, 0]	n/a	catFR1	3	R1400N
1098.694	1.6	1100968	WORD	n/a	wordpools/wordpool_categorized_EN.txt	CELERY	Vegetables	11	10	[0, 0, 0]	n/a	catFR1	3	R1400N
1100.294	0.9	1102578	WORD_OFF	n/a	n/a	CELERY	Vegetables	11	10	[0, 0, 0]	n/a	catFR1	3	R1400N
1101.194	1.617	1103476	WORD	n/a	wordpools/wordpool_categorized_EN.txt	CAULIFLOWER	Vegetables	12	10	[0, 0, 0]	n/a	catFR1	3	R1400N
1102.811	0.0	1105086	WORD_OFF	n/a	n/a	CAULIFLOWER	Vegetables	12	10	[0, 0, 0]	n/a	catFR1	3	R1400N
1102.811	0.001	1105092	PROB	4.033	n/a	n/a	n/a	-999	10	[2, 7, 1]	10.0	catFR1	3	R1400N
1102.812	0.0	1105086	DISTRACT_START	n/a	n/a	n/a	n/a	-999	10	[0, 0, 0]	n/a	catFR1	3	R1400N
1102.812	0.0	1105086	ENCODING_END	n/a	n/a	n/a	n/a	-999	10	[0, 0, 0]	n/a	catFR1	3	R1400N
1102.812	4.048	1105093	START	n/a	n/a	n/a	n/a	-999	10	[-999, -999, -999]	n/a	catFR1	3	R1400N
1106.86	3.068	1109141	PROB	3.051	n/a	n/a	n/a	-999	10	[6, 4, 8]	18.0	catFR1	3	R1400N
1109.928	2.883	1112209	PROB	2.866	n/a	n/a	n/a	-999	10	[5, 5, 5]	15.0	catFR1	3	R1400N
1112.811	3.351	1115092	PROB	3.333	n/a	n/a	n/a	-999	10	[8, 3, 4]	15.0	catFR1	3	R1400N
1116.162	2.366	1118443	PROB	2.349	n/a	n/a	n/a	-999	10	[4, 3, 2]	11.0	catFR1	3	R1400N
1118.528	5.466	1120809	PROB	5.449	n/a	n/a	n/a	-999	10	[1, 4, 3]	8.0	catFR1	3	R1400N
1123.994	0.0	1126274	DISTRACT_END	n/a	n/a	n/a	n/a	-999	10	[0, 0, 0]	n/a	catFR1	3	R1400N
1123.994	2.35	1126275	STOP	n/a	n/a	n/a	n/a	-999	10	[-999, -999, -999]	n/a	catFR1	3	R1400N
1126.344	1.806	1128621	REC_START	n/a	n/a	n/a	n/a	-999	10	[0, 0, 0]	n/a	catFR1	3	R1400N
1128.15	1.617	1130430	REC_WORD	1.806	n/a	BROCCOLI	Vegetables	1	10	[0, 0, 0]	n/a	catFR1	3	R1400N
1129.767	26.805	1132047	REC_WORD	3.423	n/a	SPINACH	Vegetables	2	10	[0, 0, 0]	n/a	catFR1	3	R1400N
1156.572	4.155	1158860	REC_END	n/a	n/a	n/a	n/a	-999	10	[0, 0, 0]	n/a	catFR1	3	R1400N
1160.727	10.351	1163015	COUNTDOWN_START	n/a	n/a	n/a	n/a	-999	11	[0, 0, 0]	n/a	catFR1	3	R1400N
1171.078	0.0	1173366	COUNTDOWN_END	n/a	n/a	n/a	n/a	-999	11	[0, 0, 0]	n/a	catFR1	3	R1400N
1171.078	1.899	1173366	ENCODING_START	n/a	n/a	n/a	n/a	-999	11	[0, 0, 0]	n/a	catFR1	3	R1400N
1172.977	1.6	1175256	WORD	n/a	wordpools/wordpool_categorized_EN.txt	LEMON	Fruit	1	11	[0, 0, 0]	n/a	catFR1	3	R1400N
1174.577	0.784	1176847	WORD_OFF	n/a	n/a	LEMON	Fruit	1	11	[0, 0, 0]	n/a	catFR1	3	R1400N
1175.361	1.6	1177633	WORD	n/a	wordpools/wordpool_categorized_EN.txt	PLUM	Fruit	2	11	[0, 0, 0]	n/a	catFR1	3	R1400N
1176.961	0.916	1179243	WORD_OFF	n/a	n/a	PLUM	Fruit	2	11	[0, 0, 0]	n/a	catFR1	3	R1400N
1177.877	1.6	1180160	WORD	n/a	wordpools/wordpool_categorized_EN.txt	CRAB	OceanAnimals	3	11	[0, 0, 0]	n/a	catFR1	3	R1400N
1179.477	0.9	1181751	WORD_OFF	n/a	n/a	CRAB	OceanAnimals	3	11	[0, 0, 0]	n/a	catFR1	3	R1400N
1180.377	1.6	1182649	WORD	n/a	wordpools/wordpool_categorized_EN.txt	DOLPHIN	OceanAnimals	4	11	[0, 0, 0]	n/a	catFR1	3	R1400N
1181.977	0.967	1184259	WORD_OFF	n/a	n/a	DOLPHIN	OceanAnimals	4	11	[0, 0, 0]	n/a	catFR1	3	R1400N
1182.944	1.617	1185232	WORD	n/a	wordpools/wordpool_categorized_EN.txt	SHELF	Furniture	5	11	[0, 0, 0]	n/a	catFR1	3	R1400N
1184.561	0.866	1186842	WORD_OFF	n/a	n/a	SHELF	Furniture	5	11	[0, 0, 0]	n/a	catFR1	3	R1400N
1185.427	1.6	1187703	WORD	n/a	wordpools/wordpool_categorized_EN.txt	DESK	Furniture	6	11	[0, 0, 0]	n/a	catFR1	3	R1400N
1187.027	0.884	1189312	WORD_OFF	n/a	n/a	DESK	Furniture	6	11	[0, 0, 0]	n/a	catFR1	3	R1400N
1187.911	1.6	1190192	WORD	n/a	wordpools/wordpool_categorized_EN.txt	LOBSTER	OceanAnimals	7	11	[0, 0, 0]	n/a	catFR1	3	R1400N
1189.511	0.866	1191783	WORD_OFF	n/a	n/a	LOBSTER	OceanAnimals	7	11	[0, 0, 0]	n/a	catFR1	3	R1400N
1190.377	1.6	1192663	WORD	n/a	wordpools/wordpool_categorized_EN.txt	JELLYFISH	OceanAnimals	8	11	[0, 0, 0]	n/a	catFR1	3	R1400N
1191.977	0.799	1194254	WORD_OFF	n/a	n/a	JELLYFISH	OceanAnimals	8	11	[0, 0, 0]	n/a	catFR1	3	R1400N
1192.776	1.601	1195059	WORD	n/a	wordpools/wordpool_categorized_EN.txt	NIGHTSTAND	Furniture	9	11	[0, 0, 0]	n/a	catFR1	3	R1400N
1194.377	0.817	1196650	WORD_OFF	n/a	n/a	NIGHTSTAND	Furniture	9	11	[0, 0, 0]	n/a	catFR1	3	R1400N
1195.194	1.617	1197473	WORD	n/a	wordpools/wordpool_categorized_EN.txt	RECLINER	Furniture	10	11	[0, 0, 0]	n/a	catFR1	3	R1400N
1196.811	0.816	1199083	WORD_OFF	n/a	n/a	RECLINER	Furniture	10	11	[0, 0, 0]	n/a	catFR1	3	R1400N
1197.627	1.615	1199906	WORD	n/a	wordpools/wordpool_categorized_EN.txt	BANANA	Fruit	11	11	[0, 0, 0]	n/a	catFR1	3	R1400N
1199.242	1.002	1201516	WORD_OFF	n/a	n/a	BANANA	Fruit	11	11	[0, 0, 0]	n/a	catFR1	3	R1400N
1200.244	1.6	1202527	WORD	n/a	wordpools/wordpool_categorized_EN.txt	APPLE	Fruit	12	11	[0, 0, 0]	n/a	catFR1	3	R1400N
1201.844	0.001	1204118	WORD_OFF	n/a	n/a	APPLE	Fruit	12	11	[0, 0, 0]	n/a	catFR1	3	R1400N
1201.845	0.001	1204123	PROB	6.849	n/a	n/a	n/a	-999	11	[5, 2, 5]	12.0	catFR1	3	R1400N
1201.846	0.0	1204118	DISTRACT_START	n/a	n/a	n/a	n/a	-999	11	[0, 0, 0]	n/a	catFR1	3	R1400N
1201.846	0.0	1204118	ENCODING_END	n/a	n/a	n/a	n/a	-999	11	[0, 0, 0]	n/a	catFR1	3	R1400N
1201.846	6.865	1204124	START	n/a	n/a	n/a	n/a	-999	11	[-999, -999, -999]	n/a	catFR1	3	R1400N
1208.711	7.467	1210989	PROB	7.449	n/a	n/a	n/a	-999	11	[3, 4, 2]	9.0	catFR1	3	R1400N
1216.178	3.466	1218456	PROB	3.449	n/a	n/a	n/a	-999	11	[7, 2, 7]	16.0	catFR1	3	R1400N
1219.644	3.65	1221922	PROB	3.633	n/a	n/a	n/a	-999	11	[3, 7, 7]	17.0	catFR1	3	R1400N
1223.294	0.0	1225567	DISTRACT_END	n/a	n/a	n/a	n/a	-999	11	[0, 0, 0]	n/a	catFR1	3	R1400N
1223.294	2.183	1225572	STOP	n/a	n/a	n/a	n/a	-999	11	[-999, -999, -999]	n/a	catFR1	3	R1400N
1225.477	1.502	1227746	REC_START	n/a	n/a	n/a	n/a	-999	11	[0, 0, 0]	n/a	catFR1	3	R1400N
1226.979	2.006	1229257	REC_WORD	1.502	n/a	SPINACH	Vegetables	-999	11	[0, 0, 0]	n/a	catFR1	3	R1400N
1228.985	26.705	1231262	REC_WORD	3.508	n/a	JELLYFISH	OceanAnimals	8	11	[0, 0, 0]	n/a	catFR1	3	R1400N
1255.69	82.637	1257966	REC_END	n/a	n/a	n/a	n/a	-999	11	[0, 0, 0]	n/a	catFR1	3	R1400N
1338.327	10.35	1340602	COUNTDOWN_START	n/a	n/a	n/a	n/a	-999	12	[0, 0, 0]	n/a	catFR1	3	R1400N
1348.677	0.0	1350952	COUNTDOWN_END	n/a	n/a	n/a	n/a	-999	12	[0, 0, 0]	n/a	catFR1	3	R1400N
1348.677	2.233	1350952	ENCODING_START	n/a	n/a	n/a	n/a	-999	12	[0, 0, 0]	n/a	catFR1	3	R1400N
1350.91	1.616	1353179	WORD	n/a	wordpools/wordpool_categorized_EN.txt	WHISK	KitchenTools	1	12	[0, 0, 0]	n/a	catFR1	3	R1400N
1352.526	0.9	1354808	WORD_OFF	n/a	n/a	WHISK	KitchenTools	1	12	[0, 0, 0]	n/a	catFR1	3	R1400N
1353.426	1.6	1355706	WORD	n/a	wordpools/wordpool_categorized_EN.txt	STRAINER	KitchenTools	2	12	[0, 0, 0]	n/a	catFR1	3	R1400N
1355.026	0.868	1357297	WORD_OFF	n/a	n/a	STRAINER	KitchenTools	2	12	[0, 0, 0]	n/a	catFR1	3	R1400N
1355.894	1.6	1358158	WORD	n/a	wordpools/wordpool_categorized_EN.txt	THUNDER	Weather	3	12	[0, 0, 0]	n/a	catFR1	3	R1400N
1357.494	0.917	1359768	WORD_OFF	n/a	n/a	THUNDER	Weather	3	12	[0, 0, 0]	n/a	catFR1	3	R1400N
1358.411	1.6	1360685	WORD	n/a	wordpools/wordpool_categorized_EN.txt	THUNDERSTORM	Weather	4	12	[0, 0, 0]	n/a	catFR1	3	R1400N
1360.011	0.883	1362276	WORD_OFF	n/a	n/a	THUNDERSTORM	Weather	4	12	[0, 0, 0]	n/a	catFR1	3	R1400N
1360.894	1.6	1363174	WORD	n/a	wordpools/wordpool_categorized_EN.txt	CARROT	Vegetables	5	12	[0, 0, 0]	n/a	catFR1	3	R1400N
1362.494	0.85	1364765	WORD_OFF	n/a	n/a	CARROT	Vegetables	5	12	[0, 0, 0]	n/a	catFR1	3	R1400N
1363.344	1.616	1365626	WORD	n/a	wordpools/wordpool_categorized_EN.txt	CUCUMBER	Vegetables	6	12	[0, 0, 0]	n/a	catFR1	3	R1400N
1364.96	0.834	1367236	WORD_OFF	n/a	n/a	CUCUMBER	Vegetables	6	12	[0, 0, 0]	n/a	catFR1	3	R1400N
1365.794	1.6	1368059	WORD	n/a	wordpools/wordpool_categorized_EN.txt	RAIN	Weather	7	12	[0, 0, 0]	n/a	catFR1	3	R1400N
1367.394	0.883	1369669	WORD_OFF	n/a	n/a	RAIN	Weather	7	12	[0, 0, 0]	n/a	catFR1	3	R1400N
1368.277	1.6	1370549	WORD	n/a	wordpools/wordpool_categorized_EN.txt	HURRICANE	Weather	8	12	[0, 0, 0]	n/a	catFR1	3	R1400N
1369.877	0.917	1372158	WORD_OFF	n/a	n/a	HURRICANE	Weather	8	12	[0, 0, 0]	n/a	catFR1	3	R1400N
1370.794	1.6	1373076	WORD	n/a	wordpools/wordpool_categorized_EN.txt	PEELER	KitchenTools	9	12	[0, 0, 0]	n/a	catFR1	3	R1400N
1372.394	0.917	1374667	WORD_OFF	n/a	n/a	PEELER	KitchenTools	9	12	[0, 0, 0]	n/a	catFR1	3	R1400N
1373.311	1.6	1375584	WORD	n/a	wordpools/wordpool_categorized_EN.txt	KNIFE	KitchenTools	10	12	[0, 0, 0]	n/a	catFR1	3	R1400N
1374.911	0.916	1377175	WORD_OFF	n/a	n/a	KNIFE	KitchenTools	10	12	[0, 0, 0]	n/a	catFR1	3	R1400N
1375.827	1.617	1378092	WORD	n/a	wordpools/wordpool_categorized_EN.txt	PEAS	Vegetables	11	12	[0, 0, 0]	n/a	catFR1	3	R1400N
1377.444	0.782	1379720	WORD_OFF	n/a	n/a	PEAS	Vegetables	11	12	[0, 0, 0]	n/a	catFR1	3	R1400N
1378.226	1.601	1380506	WORD	n/a	wordpools/wordpool_categorized_EN.txt	POTATO	Vegetables	12	12	[0, 0, 0]	n/a	catFR1	3	R1400N
1379.827	0.001	1382097	WORD_OFF	n/a	n/a	POTATO	Vegetables	12	12	[0, 0, 0]	n/a	catFR1	3	R1400N
1379.828	0.001	1382101	PROB	4.665	n/a	n/a	n/a	-999	12	[1, 6, 5]	12.0	catFR1	3	R1400N
1379.829	0.0	1382097	DISTRACT_START	n/a	n/a	n/a	n/a	-999	12	[0, 0, 0]	n/a	catFR1	3	R1400N
1379.829	0.0	1382097	ENCODING_END	n/a	n/a	n/a	n/a	-999	12	[0, 0, 0]	n/a	catFR1	3	R1400N
1379.829	4.682	1382102	START	n/a	n/a	n/a	n/a	-999	12	[-999, -999, -999]	n/a	catFR1	3	R1400N
1384.511	6.616	1386784	PROB	6.6	n/a	n/a	n/a	-999	12	[4, 6, 2]	12.0	catFR1	3	R1400N
1391.127	5.018	1393400	PROB	5.0	n/a	n/a	n/a	-999	12	[3, 4, 6]	14.0	catFR1	3	R1400N
1396.145	6.382	1398417	PROB	6.366	n/a	n/a	n/a	-999	12	[3, 8, 7]	18.0	catFR1	3	R1400N
1402.527	0.0	1404801	DISTRACT_END	n/a	n/a	n/a	n/a	-999	12	[0, 0, 0]	n/a	catFR1	3	R1400N
1402.527	2.117	1404799	STOP	n/a	n/a	n/a	n/a	-999	12	[-999, -999, -999]	n/a	catFR1	3	R1400N
1404.644	1.234	1406924	REC_START	n/a	n/a	n/a	n/a	-999	12	[0, 0, 0]	n/a	catFR1	3	R1400N
1405.878	2.197	1408150	REC_WORD	1.234	n/a	THUNDER	Weather	3	12	[0, 0, 0]	n/a	catFR1	3	R1400N
1408.075	1.083	1410347	REC_WORD	3.431	n/a	THUNDERSTORM	Weather	4	12	[0, 0, 0]	n/a	catFR1	3	R1400N
1409.158	2.717	1411430	REC_WORD	4.514	n/a	HURRICANE	Weather	8	12	[0, 0, 0]	n/a	catFR1	3	R1400N
1411.875	1.466	1414147	REC_WORD	7.231	n/a	CARROT	Vegetables	5	12	[0, 0, 0]	n/a	catFR1	3	R1400N
1413.341	21.524	1415613	REC_WORD	8.697	n/a	PEELER	KitchenTools	9	12	[0, 0, 0]	n/a	catFR1	3	R1400N
1434.865	0.0	1437144	REC_END	n/a	n/a	n/a	n/a	-999	12	[0, 0, 0]	n/a	catFR1	3	R1400N
