onset	duration	sample	trial_type	response_time	stim_file	item_name	category	serialpos	list	test	answer	experiment	session	subject
0.0	0.997	80511	INSTRUCT_START	n/a	n/a	n/a	n/a	-999	-999	[0, 0, 0]	n/a	catFR1	2	R1477J
0.997	43.535	81503	INSTRUCT_END	n/a	n/a	n/a	n/a	-999	-999	[0, 0, 0]	n/a	catFR1	2	R1477J
44.532	10.0	125040	COUNTDOWN_START	n/a	n/a	n/a	n/a	-999	-999	[0, 0, 0]	n/a	catFR1	2	R1477J
54.881	0.0	135389	COUNTDOWN_END	n/a	n/a	n/a	n/a	-999	-999	[0, 0, 0]	n/a	catFR1	2	R1477J
54.881	2.168	135389	ENCODING_START	n/a	n/a	n/a	n/a	-999	-1	[0, 0, 0]	n/a	catFR1	2	R1477J
57.049	1.6	137557	WORD	n/a	n/a	LEATHER	Fabric	1	-1	[0, 0, 0]	n/a	catFR1	2	R1477J
58.664	0.9	139173	WORD_OFF	n/a	n/a	LEATHER	Fabric	1	-1	[0, 0, 0]	n/a	catFR1	2	R1477J
59.564	1.6	140067	WORD	n/a	n/a	SUEDE	Fabric	2	-1	[0, 0, 0]	n/a	catFR1	2	R1477J
61.181	0.868	141684	WORD_OFF	n/a	n/a	SUEDE	Fabric	2	-1	[0, 0, 0]	n/a	catFR1	2	R1477J
62.049	1.6	142553	WORD	n/a	n/a	RECLINER	Furniture	3	-1	[0, 0, 0]	n/a	catFR1	2	R1477J
63.65	0.899	144158	WORD_OFF	n/a	n/a	RECLINER	Furniture	3	-1	[0, 0, 0]	n/a	catFR1	2	R1477J
64.549	1.6	145052	WORD	n/a	n/a	BED	Furniture	4	-1	[0, 0, 0]	n/a	catFR1	2	R1477J
66.163	0.752	146668	WORD_OFF	n/a	n/a	BED	Furniture	4	-1	[0, 0, 0]	n/a	catFR1	2	R1477J
66.915	1.6	147416	WORD	n/a	n/a	CARDINAL	Birds	5	-1	[0, 0, 0]	n/a	catFR1	2	R1477J
68.53	0.801	149032	WORD_OFF	n/a	n/a	CARDINAL	Birds	5	-1	[0, 0, 0]	n/a	catFR1	2	R1477J
69.331	1.6	149840	WORD	n/a	n/a	SPARROW	Birds	6	-1	[0, 0, 0]	n/a	catFR1	2	R1477J
70.932	0.899	151432	WORD_OFF	n/a	n/a	SPARROW	Birds	6	-1	[0, 0, 0]	n/a	catFR1	2	R1477J
71.831	1.6	152339	WORD	n/a	n/a	SPANDEX	Fabric	7	-1	[0, 0, 0]	n/a	catFR1	2	R1477J
73.431	0.817	153931	WORD_OFF	n/a	n/a	SPANDEX	Fabric	7	-1	[0, 0, 0]	n/a	catFR1	2	R1477J
74.248	1.6	154751	WORD	n/a	n/a	DENIM	Fabric	8	-1	[0, 0, 0]	n/a	catFR1	2	R1477J
75.865	0.765	156368	WORD_OFF	n/a	n/a	DENIM	Fabric	8	-1	[0, 0, 0]	n/a	catFR1	2	R1477J
76.63	1.6	157140	WORD	n/a	n/a	SHELF	Furniture	9	-1	[0, 0, 0]	n/a	catFR1	2	R1477J
78.23	0.834	158732	WORD_OFF	n/a	n/a	SHELF	Furniture	9	-1	[0, 0, 0]	n/a	catFR1	2	R1477J
79.064	1.6	159564	WORD	n/a	n/a	SOFA	Furniture	10	-1	[0, 0, 0]	n/a	catFR1	2	R1477J
80.664	0.834	161169	WORD_OFF	n/a	n/a	SOFA	Furniture	10	-1	[0, 0, 0]	n/a	catFR1	2	R1477J
81.498	1.6	162002	WORD	n/a	n/a	SEAGULL	Birds	11	-1	[0, 0, 0]	n/a	catFR1	2	R1477J
83.114	0.983	163618	WORD_OFF	n/a	n/a	SEAGULL	Birds	11	-1	[0, 0, 0]	n/a	catFR1	2	R1477J
84.097	1.6	164598	WORD	n/a	n/a	PIGEON	Birds	12	-1	[0, 0, 0]	n/a	catFR1	2	R1477J
85.698	0.001	166202	WORD_OFF	n/a	n/a	PIGEON	Birds	12	-1	[0, 0, 0]	n/a	catFR1	2	R1477J
85.699	0.0	166202	ENCODING_END	n/a	n/a	n/a	n/a	-999	-1	[0, 0, 0]	n/a	catFR1	2	R1477J
85.699	0.0	166202	DISTRACT_START	n/a	n/a	n/a	n/a	-999	-1	[0, 0, 0]	n/a	catFR1	2	R1477J
85.699	0.0	166203	START	n/a	n/a	n/a	n/a	-999	-1	[-999, -999, -999]	n/a	catFR1	2	R1477J
85.699	5.282	166203	PROB	5.266	n/a	n/a	n/a	-999	-1	[7, 4, 4]	15.0	catFR1	2	R1477J
90.981	2.884	171485	PROB	2.867	n/a	n/a	n/a	-999	-1	[1, 2, 6]	9.0	catFR1	2	R1477J
93.865	4.368	174368	PROB	4.35	n/a	n/a	n/a	-999	-1	[3, 8, 6]	17.0	catFR1	2	R1477J
98.233	3.732	178736	PROB	3.715	n/a	n/a	n/a	-999	-1	[5, 5, 3]	13.0	catFR1	2	R1477J
101.965	4.315	182468	PROB	4.301	n/a	n/a	n/a	-999	-1	[3, 6, 4]	13.0	catFR1	2	R1477J
106.28	0.0	186783	STOP	n/a	n/a	n/a	n/a	-999	-1	[-999, -999, -999]	n/a	catFR1	2	R1477J
106.28	2.401	186789	DISTRACT_END	n/a	n/a	n/a	n/a	-999	-1	[0, 0, 0]	n/a	catFR1	2	R1477J
108.681	1.291	189185	REC_START	n/a	n/a	n/a	n/a	-999	-1	[0, 0, 0]	n/a	catFR1	2	R1477J
109.972	1.521	190475	REC_WORD	1.291	n/a	PIGEON	Birds	12	-1	[0, 0, 0]	n/a	catFR1	2	R1477J
111.493	2.068	191996	REC_WORD	2.812	n/a	SEAGULL	Birds	11	-1	[0, 0, 0]	n/a	catFR1	2	R1477J
113.561	2.047	194064	REC_WORD	4.88	n/a	LEATHER	Fabric	1	-1	[0, 0, 0]	n/a	catFR1	2	R1477J
115.608	2.52	196111	REC_WORD	6.927	n/a	SUEDE	Fabric	2	-1	[0, 0, 0]	n/a	catFR1	2	R1477J
118.128	2.05	198630	REC_WORD	9.447	n/a	COUCH	n/a	-999	-1	[0, 0, 0]	n/a	catFR1	2	R1477J
120.178	18.696	200680	REC_WORD	11.497	n/a	SPARROW	Birds	6	-1	[0, 0, 0]	n/a	catFR1	2	R1477J
138.874	9.542	219378	REC_END	n/a	n/a	n/a	n/a	-999	-1	[0, 0, 0]	n/a	catFR1	2	R1477J
148.416	10.0	228919	COUNTDOWN_START	n/a	n/a	n/a	n/a	-999	1	[0, 0, 0]	n/a	catFR1	2	R1477J
158.765	0.0	239267	COUNTDOWN_END	n/a	n/a	n/a	n/a	-999	1	[0, 0, 0]	n/a	catFR1	2	R1477J
158.765	1.934	239267	ENCODING_START	n/a	n/a	n/a	n/a	-999	1	[0, 0, 0]	n/a	catFR1	2	R1477J
160.699	1.6	241202	WORD	n/a	wordpools/wordpool_categorized_EN.txt	BLOCKS	Toys	1	1	[0, 0, 0]	n/a	catFR1	2	R1477J
162.299	0.95	242794	WORD_OFF	n/a	n/a	BLOCKS	Toys	1	1	[0, 0, 0]	n/a	catFR1	2	R1477J
163.249	1.6	243750	WORD	n/a	wordpools/wordpool_categorized_EN.txt	FOOTBALL	Toys	2	1	[0, 0, 0]	n/a	catFR1	2	R1477J
164.865	0.8	245366	WORD_OFF	n/a	n/a	FOOTBALL	Toys	2	1	[0, 0, 0]	n/a	catFR1	2	R1477J
165.665	1.6	246162	WORD	n/a	wordpools/wordpool_categorized_EN.txt	DUCK	Birds	3	1	[0, 0, 0]	n/a	catFR1	2	R1477J
167.282	0.85	247779	WORD_OFF	n/a	n/a	DUCK	Birds	3	1	[0, 0, 0]	n/a	catFR1	2	R1477J
168.132	1.6	248636	WORD	n/a	wordpools/wordpool_categorized_EN.txt	GOOSE	Birds	4	1	[0, 0, 0]	n/a	catFR1	2	R1477J
169.732	0.883	250228	WORD_OFF	n/a	n/a	GOOSE	Birds	4	1	[0, 0, 0]	n/a	catFR1	2	R1477J
170.615	1.6	251110	WORD	n/a	wordpools/wordpool_categorized_EN.txt	BIKE	Vehicles	5	1	[0, 0, 0]	n/a	catFR1	2	R1477J
172.216	0.849	252714	WORD_OFF	n/a	n/a	BIKE	Vehicles	5	1	[0, 0, 0]	n/a	catFR1	2	R1477J
173.065	1.6	253559	WORD	n/a	wordpools/wordpool_categorized_EN.txt	MOPED	Vehicles	6	1	[0, 0, 0]	n/a	catFR1	2	R1477J
174.682	0.817	255188	WORD_OFF	n/a	n/a	MOPED	Vehicles	6	1	[0, 0, 0]	n/a	catFR1	2	R1477J
175.499	1.6	255997	WORD	n/a	wordpools/wordpool_categorized_EN.txt	BALL	Toys	7	1	[0, 0, 0]	n/a	catFR1	2	R1477J
177.115	0.984	257613	WORD_OFF	n/a	n/a	BALL	Toys	7	1	[0, 0, 0]	n/a	catFR1	2	R1477J
178.099	1.6	258605	WORD	n/a	wordpools/wordpool_categorized_EN.txt	DOLLHOUSE	Toys	8	1	[0, 0, 0]	n/a	catFR1	2	R1477J
179.715	0.95	260209	WORD_OFF	n/a	n/a	DOLLHOUSE	Toys	8	1	[0, 0, 0]	n/a	catFR1	2	R1477J
180.665	1.6	261165	WORD	n/a	wordpools/wordpool_categorized_EN.txt	FINCH	Birds	9	1	[0, 0, 0]	n/a	catFR1	2	R1477J
182.282	0.982	262781	WORD_OFF	n/a	n/a	FINCH	Birds	9	1	[0, 0, 0]	n/a	catFR1	2	R1477J
183.264	1.6	263761	WORD	n/a	wordpools/wordpool_categorized_EN.txt	CROW	Birds	10	1	[0, 0, 0]	n/a	catFR1	2	R1477J
184.866	0.833	265365	WORD_OFF	n/a	n/a	CROW	Birds	10	1	[0, 0, 0]	n/a	catFR1	2	R1477J
185.699	1.6	266198	WORD	n/a	wordpools/wordpool_categorized_EN.txt	SCOOTER	Vehicles	11	1	[0, 0, 0]	n/a	catFR1	2	R1477J
187.299	0.867	267803	WORD_OFF	n/a	n/a	SCOOTER	Vehicles	11	1	[0, 0, 0]	n/a	catFR1	2	R1477J
188.166	1.6	268660	WORD	n/a	wordpools/wordpool_categorized_EN.txt	BOAT	Vehicles	12	1	[0, 0, 0]	n/a	catFR1	2	R1477J
189.766	0.001	270264	WORD_OFF	n/a	n/a	BOAT	Vehicles	12	1	[0, 0, 0]	n/a	catFR1	2	R1477J
189.767	0.0	270264	ENCODING_END	n/a	n/a	n/a	n/a	-999	1	[0, 0, 0]	n/a	catFR1	2	R1477J
189.767	0.0	270264	DISTRACT_START	n/a	n/a	n/a	n/a	-999	1	[0, 0, 0]	n/a	catFR1	2	R1477J
189.766	0.001	270265	PROB	5.533	n/a	n/a	n/a	-999	1	[5, 8, 6]	19.0	catFR1	2	R1477J
189.767	5.548	270266	START	n/a	n/a	n/a	n/a	-999	1	[-999, -999, -999]	n/a	catFR1	2	R1477J
195.315	2.3	275814	PROB	2.284	n/a	n/a	n/a	-999	1	[4, 4, 1]	9.0	catFR1	2	R1477J
197.615	3.265	278114	PROB	3.251	n/a	n/a	n/a	-999	1	[7, 2, 2]	11.0	catFR1	2	R1477J
200.88	4.652	281379	PROB	4.634	n/a	n/a	n/a	-999	1	[8, 2, 6]	16.0	catFR1	2	R1477J
205.532	4.034	286031	PROB	4.015	n/a	n/a	n/a	-999	1	[8, 6, 2]	16.0	catFR1	2	R1477J
209.566	3.648	290065	PROB	3.633	n/a	n/a	n/a	-999	1	[1, 6, 4]	11.0	catFR1	2	R1477J
213.214	0.0	293712	STOP	n/a	n/a	n/a	n/a	-999	1	[-999, -999, -999]	n/a	catFR1	2	R1477J
213.214	2.167	293717	DISTRACT_END	n/a	n/a	n/a	n/a	-999	1	[0, 0, 0]	n/a	catFR1	2	R1477J
215.381	2.584	295880	REC_START	n/a	n/a	n/a	n/a	-999	1	[0, 0, 0]	n/a	catFR1	2	R1477J
217.965	3.138	298463	REC_WORD	2.584	n/a	BASKETBALL	n/a	-999	1	[0, 0, 0]	n/a	catFR1	2	R1477J
221.103	0.179	301601	REC_WORD_VV	5.722	n/a	<>	n/a	-999	1	[0, 0, 0]	n/a	catFR1	2	R1477J
221.282	9.169	301780	REC_WORD	5.901	n/a	BIKE	Vehicles	5	1	[0, 0, 0]	n/a	catFR1	2	R1477J
230.451	15.146	310949	REC_WORD	15.07	n/a	DOOR	n/a	-999	1	[0, 0, 0]	n/a	catFR1	2	R1477J
245.597	1.735	326098	REC_END	n/a	n/a	n/a	n/a	-999	1	[0, 0, 0]	n/a	catFR1	2	R1477J
247.332	10.0	327825	COUNTDOWN_START	n/a	n/a	n/a	n/a	-999	2	[0, 0, 0]	n/a	catFR1	2	R1477J
257.682	0.0	338173	COUNTDOWN_END	n/a	n/a	n/a	n/a	-999	2	[0, 0, 0]	n/a	catFR1	2	R1477J
257.682	2.2	338173	ENCODING_START	n/a	n/a	n/a	n/a	-999	2	[0, 0, 0]	n/a	catFR1	2	R1477J
259.882	1.6	340378	WORD	n/a	wordpools/wordpool_categorized_EN.txt	LEG	BodyParts	1	2	[0, 0, 0]	n/a	catFR1	2	R1477J
261.482	0.8	341982	WORD_OFF	n/a	n/a	LEG	BodyParts	1	2	[0, 0, 0]	n/a	catFR1	2	R1477J
262.282	1.6	342778	WORD	n/a	wordpools/wordpool_categorized_EN.txt	FOOT	BodyParts	2	2	[0, 0, 0]	n/a	catFR1	2	R1477J
263.897	0.852	344395	WORD_OFF	n/a	n/a	FOOT	BodyParts	2	2	[0, 0, 0]	n/a	catFR1	2	R1477J
264.749	1.6	345240	WORD	n/a	wordpools/wordpool_categorized_EN.txt	BROCCOLI	Vegetables	3	2	[0, 0, 0]	n/a	catFR1	2	R1477J
266.349	0.849	346844	WORD_OFF	n/a	n/a	BROCCOLI	Vegetables	3	2	[0, 0, 0]	n/a	catFR1	2	R1477J
267.198	1.6	347689	WORD	n/a	wordpools/wordpool_categorized_EN.txt	CUCUMBER	Vegetables	4	2	[0, 0, 0]	n/a	catFR1	2	R1477J
268.815	0.9	349306	WORD_OFF	n/a	n/a	CUCUMBER	Vegetables	4	2	[0, 0, 0]	n/a	catFR1	2	R1477J
269.715	1.6	350212	WORD	n/a	wordpools/wordpool_categorized_EN.txt	RULER	OfficeSupplies	5	2	[0, 0, 0]	n/a	catFR1	2	R1477J
271.332	0.767	351829	WORD_OFF	n/a	n/a	RULER	OfficeSupplies	5	2	[0, 0, 0]	n/a	catFR1	2	R1477J
272.099	1.6	352600	WORD	n/a	wordpools/wordpool_categorized_EN.txt	PEN	OfficeSupplies	6	2	[0, 0, 0]	n/a	catFR1	2	R1477J
273.699	0.967	354192	WORD_OFF	n/a	n/a	PEN	OfficeSupplies	6	2	[0, 0, 0]	n/a	catFR1	2	R1477J
274.666	1.6	355160	WORD	n/a	wordpools/wordpool_categorized_EN.txt	EYE	BodyParts	7	2	[0, 0, 0]	n/a	catFR1	2	R1477J
276.281	0.983	356776	WORD_OFF	n/a	n/a	EYE	BodyParts	7	2	[0, 0, 0]	n/a	catFR1	2	R1477J
277.264	1.6	357756	WORD	n/a	wordpools/wordpool_categorized_EN.txt	KNEE	BodyParts	8	2	[0, 0, 0]	n/a	catFR1	2	R1477J
278.865	0.967	359360	WORD_OFF	n/a	n/a	KNEE	BodyParts	8	2	[0, 0, 0]	n/a	catFR1	2	R1477J
279.832	1.6	360328	WORD	n/a	wordpools/wordpool_categorized_EN.txt	TAPE	OfficeSupplies	9	2	[0, 0, 0]	n/a	catFR1	2	R1477J
281.448	0.799	361944	WORD_OFF	n/a	n/a	TAPE	OfficeSupplies	9	2	[0, 0, 0]	n/a	catFR1	2	R1477J
282.247	1.6	362741	WORD	n/a	wordpools/wordpool_categorized_EN.txt	NOTEBOOK	OfficeSupplies	10	2	[0, 0, 0]	n/a	catFR1	2	R1477J
283.848	0.851	364345	WORD_OFF	n/a	n/a	NOTEBOOK	OfficeSupplies	10	2	[0, 0, 0]	n/a	catFR1	2	R1477J
284.699	1.6	365190	WORD	n/a	wordpools/wordpool_categorized_EN.txt	ONION	Vegetables	11	2	[0, 0, 0]	n/a	catFR1	2	R1477J
286.314	0.967	366807	WORD_OFF	n/a	n/a	ONION	Vegetables	11	2	[0, 0, 0]	n/a	catFR1	2	R1477J
287.281	1.6	367774	WORD	n/a	wordpools/wordpool_categorized_EN.txt	CARROT	Vegetables	12	2	[0, 0, 0]	n/a	catFR1	2	R1477J
288.882	0.0	369377	START	n/a	n/a	n/a	n/a	-999	2	[-999, -999, -999]	n/a	catFR1	2	R1477J
288.882	0.0	369377	PROB	4.35	n/a	n/a	n/a	-999	2	[2, 3, 8]	13.0	catFR1	2	R1477J
288.881	0.001	369378	WORD_OFF	n/a	n/a	CARROT	Vegetables	12	2	[0, 0, 0]	n/a	catFR1	2	R1477J
288.882	0.0	369378	ENCODING_END	n/a	n/a	n/a	n/a	-999	2	[0, 0, 0]	n/a	catFR1	2	R1477J
288.882	4.366	369378	DISTRACT_START	n/a	n/a	n/a	n/a	-999	2	[0, 0, 0]	n/a	catFR1	2	R1477J
293.248	4.034	373743	PROB	4.017	n/a	n/a	n/a	-999	2	[8, 6, 2]	16.0	catFR1	2	R1477J
297.282	3.799	377777	PROB	3.784	n/a	n/a	n/a	-999	2	[3, 7, 5]	15.0	catFR1	2	R1477J
301.081	2.652	381576	PROB	2.633	n/a	n/a	n/a	-999	2	[2, 4, 6]	12.0	catFR1	2	R1477J
303.733	4.081	384228	PROB	4.066	n/a	n/a	n/a	-999	2	[4, 8, 4]	16.0	catFR1	2	R1477J
307.814	4.618	388309	PROB	4.6	n/a	n/a	n/a	-999	2	[5, 2, 7]	14.0	catFR1	2	R1477J
312.432	0.0	392926	STOP	n/a	n/a	n/a	n/a	-999	2	[-999, -999, -999]	n/a	catFR1	2	R1477J
312.432	2.099	392929	DISTRACT_END	n/a	n/a	n/a	n/a	-999	2	[0, 0, 0]	n/a	catFR1	2	R1477J
314.531	1.552	395019	REC_START	n/a	n/a	n/a	n/a	-999	2	[0, 0, 0]	n/a	catFR1	2	R1477J
316.083	1.768	396577	REC_WORD	1.552	n/a	LEG	BodyParts	1	2	[0, 0, 0]	n/a	catFR1	2	R1477J
317.851	2.315	398345	REC_WORD	3.32	n/a	FOOT	BodyParts	2	2	[0, 0, 0]	n/a	catFR1	2	R1477J
320.166	2.805	400660	REC_WORD	5.635	n/a	RULER	OfficeSupplies	5	2	[0, 0, 0]	n/a	catFR1	2	R1477J
322.971	2.536	403465	REC_WORD	8.44	n/a	PENCIL	n/a	-999	2	[0, 0, 0]	n/a	catFR1	2	R1477J
325.507	3.052	406001	REC_WORD	10.976	n/a	EYE	BodyParts	7	2	[0, 0, 0]	n/a	catFR1	2	R1477J
328.559	2.683	409053	REC_WORD	14.028	n/a	HAND	n/a	-999	2	[0, 0, 0]	n/a	catFR1	2	R1477J
331.242	13.506	411736	REC_WORD	16.711	n/a	CUCUMBER	Vegetables	4	2	[0, 0, 0]	n/a	catFR1	2	R1477J
344.748	2.834	425236	REC_END	n/a	n/a	n/a	n/a	-999	2	[0, 0, 0]	n/a	catFR1	2	R1477J
347.582	10.0	428078	COUNTDOWN_START	n/a	n/a	n/a	n/a	-999	3	[0, 0, 0]	n/a	catFR1	2	R1477J
357.932	0.0	438426	COUNTDOWN_END	n/a	n/a	n/a	n/a	-999	3	[0, 0, 0]	n/a	catFR1	2	R1477J
357.932	2.015	438426	ENCODING_START	n/a	n/a	n/a	n/a	-999	3	[0, 0, 0]	n/a	catFR1	2	R1477J
359.947	1.6	440435	WORD	n/a	wordpools/wordpool_categorized_EN.txt	SPRUCE	Trees	1	3	[0, 0, 0]	n/a	catFR1	2	R1477J
361.566	0.949	442064	WORD_OFF	n/a	n/a	SPRUCE	Trees	1	3	[0, 0, 0]	n/a	catFR1	2	R1477J
362.515	1.6	443007	WORD	n/a	wordpools/wordpool_categorized_EN.txt	ELM	Trees	2	3	[0, 0, 0]	n/a	catFR1	2	R1477J
364.115	0.933	444611	WORD_OFF	n/a	n/a	ELM	Trees	2	3	[0, 0, 0]	n/a	catFR1	2	R1477J
365.048	1.6	445542	WORD	n/a	wordpools/wordpool_categorized_EN.txt	BATHROOM	Building	3	3	[0, 0, 0]	n/a	catFR1	2	R1477J
366.649	0.983	447146	WORD_OFF	n/a	n/a	BATHROOM	Building	3	3	[0, 0, 0]	n/a	catFR1	2	R1477J
367.632	1.6	448126	WORD	n/a	wordpools/wordpool_categorized_EN.txt	FOUNDATION	Building	4	3	[0, 0, 0]	n/a	catFR1	2	R1477J
369.232	0.849	449730	WORD_OFF	n/a	n/a	FOUNDATION	Building	4	3	[0, 0, 0]	n/a	catFR1	2	R1477J
370.081	1.6	450575	WORD	n/a	wordpools/wordpool_categorized_EN.txt	PRINTER	Electronics	5	3	[0, 0, 0]	n/a	catFR1	2	R1477J
371.682	0.85	452180	WORD_OFF	n/a	n/a	PRINTER	Electronics	5	3	[0, 0, 0]	n/a	catFR1	2	R1477J
372.532	1.6	453025	WORD	n/a	wordpools/wordpool_categorized_EN.txt	SPEAKER	Electronics	6	3	[0, 0, 0]	n/a	catFR1	2	R1477J
374.148	0.884	454641	WORD_OFF	n/a	n/a	SPEAKER	Electronics	6	3	[0, 0, 0]	n/a	catFR1	2	R1477J
375.032	1.6	455523	WORD	n/a	wordpools/wordpool_categorized_EN.txt	FLOOR	Building	7	3	[0, 0, 0]	n/a	catFR1	2	R1477J
376.648	0.966	457140	WORD_OFF	n/a	n/a	FLOOR	Building	7	3	[0, 0, 0]	n/a	catFR1	2	R1477J
377.614	1.6	458107	WORD	n/a	wordpools/wordpool_categorized_EN.txt	ROOF	Building	8	3	[0, 0, 0]	n/a	catFR1	2	R1477J
379.214	0.952	459699	WORD_OFF	n/a	n/a	ROOF	Building	8	3	[0, 0, 0]	n/a	catFR1	2	R1477J
380.166	1.6	460655	WORD	n/a	wordpools/wordpool_categorized_EN.txt	MAPLE	Trees	9	3	[0, 0, 0]	n/a	catFR1	2	R1477J
381.782	0.799	462271	WORD_OFF	n/a	n/a	MAPLE	Trees	9	3	[0, 0, 0]	n/a	catFR1	2	R1477J
382.581	1.6	463067	WORD	n/a	wordpools/wordpool_categorized_EN.txt	OAK	Trees	10	3	[0, 0, 0]	n/a	catFR1	2	R1477J
384.181	0.901	464672	WORD_OFF	n/a	n/a	OAK	Trees	10	3	[0, 0, 0]	n/a	catFR1	2	R1477J
385.082	1.6	465578	WORD	n/a	wordpools/wordpool_categorized_EN.txt	TABLET	Electronics	11	3	[0, 0, 0]	n/a	catFR1	2	R1477J
386.698	0.916	467194	WORD_OFF	n/a	n/a	TABLET	Electronics	11	3	[0, 0, 0]	n/a	catFR1	2	R1477J
387.614	1.6	468101	WORD	n/a	wordpools/wordpool_categorized_EN.txt	COMPUTER	Electronics	12	3	[0, 0, 0]	n/a	catFR1	2	R1477J
389.214	0.002	469705	WORD_OFF	n/a	n/a	COMPUTER	Electronics	12	3	[0, 0, 0]	n/a	catFR1	2	R1477J
389.216	0.0	469705	ENCODING_END	n/a	n/a	n/a	n/a	-999	3	[0, 0, 0]	n/a	catFR1	2	R1477J
389.216	0.0	469705	DISTRACT_START	n/a	n/a	n/a	n/a	-999	3	[0, 0, 0]	n/a	catFR1	2	R1477J
389.216	0.0	469707	START	n/a	n/a	n/a	n/a	-999	3	[-999, -999, -999]	n/a	catFR1	2	R1477J
389.216	2.983	469707	PROB	2.966	n/a	n/a	n/a	-999	3	[3, 5, 7]	15.0	catFR1	2	R1477J
392.199	2.334	472690	PROB	2.315	n/a	n/a	n/a	-999	3	[5, 1, 5]	11.0	catFR1	2	R1477J
394.533	3.882	475024	PROB	3.866	n/a	n/a	n/a	-999	3	[6, 8, 5]	19.0	catFR1	2	R1477J
398.415	3.151	478906	PROB	3.132	n/a	n/a	n/a	-999	3	[8, 3, 7]	18.0	catFR1	2	R1477J
401.566	3.6	482057	PROB	3.581	n/a	n/a	n/a	-999	3	[8, 3, 4]	15.0	catFR1	2	R1477J
405.166	5.015	485657	PROB	4.998	n/a	n/a	n/a	-999	3	[3, 1, 2]	6.0	catFR1	2	R1477J
410.181	0.0	490671	STOP	n/a	n/a	n/a	n/a	-999	3	[-999, -999, -999]	n/a	catFR1	2	R1477J
410.181	2.268	490672	DISTRACT_END	n/a	n/a	n/a	n/a	-999	3	[0, 0, 0]	n/a	catFR1	2	R1477J
412.449	2.224	492933	REC_START	n/a	n/a	n/a	n/a	-999	3	[0, 0, 0]	n/a	catFR1	2	R1477J
414.673	3.977	495163	REC_WORD	2.224	n/a	SPRUCE	Trees	1	3	[0, 0, 0]	n/a	catFR1	2	R1477J
418.65	24.028	499140	REC_WORD	6.201	n/a	NOTEBOOK	OfficeSupplies	-999	3	[0, 0, 0]	n/a	catFR1	2	R1477J
442.678	1.938	523163	REC_END	n/a	n/a	n/a	n/a	-999	3	[0, 0, 0]	n/a	catFR1	2	R1477J
444.616	10.0	525110	COUNTDOWN_START	n/a	n/a	n/a	n/a	-999	4	[0, 0, 0]	n/a	catFR1	2	R1477J
454.965	0.0	535459	COUNTDOWN_END	n/a	n/a	n/a	n/a	-999	4	[0, 0, 0]	n/a	catFR1	2	R1477J
454.965	2.083	535459	ENCODING_START	n/a	n/a	n/a	n/a	-999	4	[0, 0, 0]	n/a	catFR1	2	R1477J
457.048	1.6	537541	WORD	n/a	wordpools/wordpool_categorized_EN.txt	DOVE	Birds	1	4	[0, 0, 0]	n/a	catFR1	2	R1477J
458.649	1.0	539133	WORD_OFF	n/a	n/a	DOVE	Birds	1	4	[0, 0, 0]	n/a	catFR1	2	R1477J
459.649	1.6	540137	WORD	n/a	wordpools/wordpool_categorized_EN.txt	HAWK	Birds	2	4	[0, 0, 0]	n/a	catFR1	2	R1477J
461.249	0.767	541741	WORD_OFF	n/a	n/a	HAWK	Birds	2	4	[0, 0, 0]	n/a	catFR1	2	R1477J
462.016	1.6	542501	WORD	n/a	wordpools/wordpool_categorized_EN.txt	CHEESECAKE	Desserts	3	4	[0, 0, 0]	n/a	catFR1	2	R1477J
463.632	0.916	544117	WORD_OFF	n/a	n/a	CHEESECAKE	Desserts	3	4	[0, 0, 0]	n/a	catFR1	2	R1477J
464.548	1.6	545036	WORD	n/a	wordpools/wordpool_categorized_EN.txt	CUPCAKE	Desserts	4	4	[0, 0, 0]	n/a	catFR1	2	R1477J
466.148	0.984	546640	WORD_OFF	n/a	n/a	CUPCAKE	Desserts	4	4	[0, 0, 0]	n/a	catFR1	2	R1477J
467.132	1.6	547620	WORD	n/a	wordpools/wordpool_categorized_EN.txt	GRAPE	Fruit	5	4	[0, 0, 0]	n/a	catFR1	2	R1477J
468.732	0.867	549224	WORD_OFF	n/a	n/a	GRAPE	Fruit	5	4	[0, 0, 0]	n/a	catFR1	2	R1477J
469.599	1.6	550081	WORD	n/a	wordpools/wordpool_categorized_EN.txt	ORANGE	Fruit	6	4	[0, 0, 0]	n/a	catFR1	2	R1477J
471.214	0.818	551698	WORD_OFF	n/a	n/a	ORANGE	Fruit	6	4	[0, 0, 0]	n/a	catFR1	2	R1477J
472.032	1.6	552519	WORD	n/a	wordpools/wordpool_categorized_EN.txt	PASTRY	Desserts	7	4	[0, 0, 0]	n/a	catFR1	2	R1477J
473.632	0.767	554123	WORD_OFF	n/a	n/a	PASTRY	Desserts	7	4	[0, 0, 0]	n/a	catFR1	2	R1477J
474.399	1.6	554882	WORD	n/a	wordpools/wordpool_categorized_EN.txt	PUDDING	Desserts	8	4	[0, 0, 0]	n/a	catFR1	2	R1477J
475.999	0.815	556487	WORD_OFF	n/a	n/a	PUDDING	Desserts	8	4	[0, 0, 0]	n/a	catFR1	2	R1477J
476.814	1.6	557307	WORD	n/a	wordpools/wordpool_categorized_EN.txt	CHERRY	Fruit	9	4	[0, 0, 0]	n/a	catFR1	2	R1477J
478.415	0.817	558899	WORD_OFF	n/a	n/a	CHERRY	Fruit	9	4	[0, 0, 0]	n/a	catFR1	2	R1477J
479.232	1.6	559720	WORD	n/a	wordpools/wordpool_categorized_EN.txt	BLUEBERRY	Fruit	10	4	[0, 0, 0]	n/a	catFR1	2	R1477J
480.832	0.934	561324	WORD_OFF	n/a	n/a	BLUEBERRY	Fruit	10	4	[0, 0, 0]	n/a	catFR1	2	R1477J
481.766	1.6	562255	WORD	n/a	wordpools/wordpool_categorized_EN.txt	ROBIN	Birds	11	4	[0, 0, 0]	n/a	catFR1	2	R1477J
483.381	0.851	563871	WORD_OFF	n/a	n/a	ROBIN	Birds	11	4	[0, 0, 0]	n/a	catFR1	2	R1477J
484.232	1.6	564716	WORD	n/a	wordpools/wordpool_categorized_EN.txt	BLUEBIRD	Birds	12	4	[0, 0, 0]	n/a	catFR1	2	R1477J
485.833	0.0	566320	PROB	2.515	n/a	n/a	n/a	-999	4	[6, 2, 4]	12.0	catFR1	2	R1477J
485.832	0.002	566321	WORD_OFF	n/a	n/a	BLUEBIRD	Birds	12	4	[0, 0, 0]	n/a	catFR1	2	R1477J
485.834	0.0	566321	ENCODING_END	n/a	n/a	n/a	n/a	-999	4	[0, 0, 0]	n/a	catFR1	2	R1477J
485.834	0.0	566321	DISTRACT_START	n/a	n/a	n/a	n/a	-999	4	[0, 0, 0]	n/a	catFR1	2	R1477J
485.834	2.532	566321	START	n/a	n/a	n/a	n/a	-999	4	[-999, -999, -999]	n/a	catFR1	2	R1477J
488.366	2.216	568853	PROB	2.199	n/a	n/a	n/a	-999	4	[2, 2, 8]	12.0	catFR1	2	R1477J
490.582	4.067	571069	PROB	4.051	n/a	n/a	n/a	-999	4	[2, 8, 6]	16.0	catFR1	2	R1477J
494.649	3.383	575136	PROB	3.365	n/a	n/a	n/a	-999	4	[1, 4, 2]	7.0	catFR1	2	R1477J
498.032	3.268	578519	PROB	3.249	n/a	n/a	n/a	-999	4	[7, 3, 5]	15.0	catFR1	2	R1477J
501.3	3.215	581787	PROB	3.199	n/a	n/a	n/a	-999	4	[4, 8, 4]	16.0	catFR1	2	R1477J
504.515	4.033	585002	PROB	4.017	n/a	n/a	n/a	-999	4	[4, 8, 6]	18.0	catFR1	2	R1477J
508.548	0.0	589034	STOP	n/a	n/a	n/a	n/a	-999	4	[-999, -999, -999]	n/a	catFR1	2	R1477J
508.548	2.218	589039	DISTRACT_END	n/a	n/a	n/a	n/a	-999	4	[0, 0, 0]	n/a	catFR1	2	R1477J
510.766	2.463	591251	REC_START	n/a	n/a	n/a	n/a	-999	4	[0, 0, 0]	n/a	catFR1	2	R1477J
513.229	2.353	593715	REC_WORD	2.463	n/a	PUDDING	Desserts	8	4	[0, 0, 0]	n/a	catFR1	2	R1477J
515.582	2.46	596068	REC_WORD	4.816	n/a	CAKE	n/a	-999	4	[0, 0, 0]	n/a	catFR1	2	R1477J
518.042	2.773	598528	REC_WORD	7.276	n/a	CHEESECAKE	Desserts	3	4	[0, 0, 0]	n/a	catFR1	2	R1477J
520.815	2.559	601301	REC_WORD	10.049	n/a	CHERRY	Fruit	9	4	[0, 0, 0]	n/a	catFR1	2	R1477J
523.374	4.734	603860	REC_WORD	12.608	n/a	BLUEBERRY	Fruit	10	4	[0, 0, 0]	n/a	catFR1	2	R1477J
528.108	2.527	608594	REC_WORD	17.342	n/a	HAWK	Birds	2	4	[0, 0, 0]	n/a	catFR1	2	R1477J
530.635	0.151	611120	REC_WORD_VV	19.869	n/a	<>	n/a	-999	4	[0, 0, 0]	n/a	catFR1	2	R1477J
530.786	10.215	611271	REC_WORD	20.02	n/a	BLUEBIRD	Birds	12	4	[0, 0, 0]	n/a	catFR1	2	R1477J
541.001	1.981	621481	REC_END	n/a	n/a	n/a	n/a	-999	4	[0, 0, 0]	n/a	catFR1	2	R1477J
542.982	10.0	623465	COUNTDOWN_START	n/a	n/a	n/a	n/a	-999	5	[0, 0, 0]	n/a	catFR1	2	R1477J
553.332	0.0	633814	COUNTDOWN_END	n/a	n/a	n/a	n/a	-999	5	[0, 0, 0]	n/a	catFR1	2	R1477J
553.332	2.117	633814	ENCODING_START	n/a	n/a	n/a	n/a	-999	5	[0, 0, 0]	n/a	catFR1	2	R1477J
555.449	1.6	635932	WORD	n/a	wordpools/wordpool_categorized_EN.txt	TOASTER	Appliances	1	5	[0, 0, 0]	n/a	catFR1	2	R1477J
557.049	0.783	637537	WORD_OFF	n/a	n/a	TOASTER	Appliances	1	5	[0, 0, 0]	n/a	catFR1	2	R1477J
557.832	1.6	638320	WORD	n/a	wordpools/wordpool_categorized_EN.txt	WASHER	Appliances	2	5	[0, 0, 0]	n/a	catFR1	2	R1477J
559.432	0.95	639912	WORD_OFF	n/a	n/a	WASHER	Appliances	2	5	[0, 0, 0]	n/a	catFR1	2	R1477J
560.382	1.6	640868	WORD	n/a	wordpools/wordpool_categorized_EN.txt	CABBAGE	Vegetables	3	5	[0, 0, 0]	n/a	catFR1	2	R1477J
561.999	0.95	642484	WORD_OFF	n/a	n/a	CABBAGE	Vegetables	3	5	[0, 0, 0]	n/a	catFR1	2	R1477J
562.949	1.6	643427	WORD	n/a	wordpools/wordpool_categorized_EN.txt	CELERY	Vegetables	4	5	[0, 0, 0]	n/a	catFR1	2	R1477J
564.549	0.966	645032	WORD_OFF	n/a	n/a	CELERY	Vegetables	4	5	[0, 0, 0]	n/a	catFR1	2	R1477J
565.515	1.6	645999	WORD	n/a	wordpools/wordpool_categorized_EN.txt	LADLE	KitchenTools	5	5	[0, 0, 0]	n/a	catFR1	2	R1477J
567.132	0.999	647616	WORD_OFF	n/a	n/a	LADLE	KitchenTools	5	5	[0, 0, 0]	n/a	catFR1	2	R1477J
568.131	1.6	648620	WORD	n/a	wordpools/wordpool_categorized_EN.txt	STRAINER	KitchenTools	6	5	[0, 0, 0]	n/a	catFR1	2	R1477J
569.732	0.932	650212	WORD_OFF	n/a	n/a	STRAINER	KitchenTools	6	5	[0, 0, 0]	n/a	catFR1	2	R1477J
570.664	1.6	651143	WORD	n/a	wordpools/wordpool_categorized_EN.txt	MIXER	Appliances	7	5	[0, 0, 0]	n/a	catFR1	2	R1477J
572.266	0.816	652747	WORD_OFF	n/a	n/a	MIXER	Appliances	7	5	[0, 0, 0]	n/a	catFR1	2	R1477J
573.082	1.6	653568	WORD	n/a	wordpools/wordpool_categorized_EN.txt	IRON	Appliances	8	5	[0, 0, 0]	n/a	catFR1	2	R1477J
574.698	0.95	655184	WORD_OFF	n/a	n/a	IRON	Appliances	8	5	[0, 0, 0]	n/a	catFR1	2	R1477J
575.648	1.6	656127	WORD	n/a	wordpools/wordpool_categorized_EN.txt	SPINACH	Vegetables	9	5	[0, 0, 0]	n/a	catFR1	2	R1477J
577.266	0.833	657744	WORD_OFF	n/a	n/a	SPINACH	Vegetables	9	5	[0, 0, 0]	n/a	catFR1	2	R1477J
578.099	1.6	658577	WORD	n/a	wordpools/wordpool_categorized_EN.txt	POTATO	Vegetables	10	5	[0, 0, 0]	n/a	catFR1	2	R1477J
579.714	0.868	660193	WORD_OFF	n/a	n/a	POTATO	Vegetables	10	5	[0, 0, 0]	n/a	catFR1	2	R1477J
580.582	1.6	661063	WORD	n/a	wordpools/wordpool_categorized_EN.txt	FORK	KitchenTools	11	5	[0, 0, 0]	n/a	catFR1	2	R1477J
582.198	0.934	662679	WORD_OFF	n/a	n/a	FORK	KitchenTools	11	5	[0, 0, 0]	n/a	catFR1	2	R1477J
583.132	1.6	663610	WORD	n/a	wordpools/wordpool_categorized_EN.txt	WHISK	KitchenTools	12	5	[0, 0, 0]	n/a	catFR1	2	R1477J
584.732	0.004	665215	WORD_OFF	n/a	n/a	WHISK	KitchenTools	12	5	[0, 0, 0]	n/a	catFR1	2	R1477J
584.736	0.0	665215	ENCODING_END	n/a	n/a	n/a	n/a	-999	5	[0, 0, 0]	n/a	catFR1	2	R1477J
584.736	0.0	665215	DISTRACT_START	n/a	n/a	n/a	n/a	-999	5	[0, 0, 0]	n/a	catFR1	2	R1477J
584.733	0.003	665216	PROB	4.114	n/a	n/a	n/a	-999	5	[2, 4, 4]	10.0	catFR1	2	R1477J
584.736	4.13	665219	START	n/a	n/a	n/a	n/a	-999	5	[-999, -999, -999]	n/a	catFR1	2	R1477J
588.866	3.333	669349	PROB	3.315	n/a	n/a	n/a	-999	5	[5, 3, 2]	10.0	catFR1	2	R1477J
592.199	2.767	672682	PROB	2.749	n/a	n/a	n/a	-999	5	[3, 4, 1]	8.0	catFR1	2	R1477J
594.966	4.0	675449	PROB	3.982	n/a	n/a	n/a	-999	5	[5, 2, 4]	11.0	catFR1	2	R1477J
598.966	6.899	679449	PROB	6.882	n/a	n/a	n/a	-999	5	[5, 8, 7]	20.0	catFR1	2	R1477J
605.865	0.0	686340	DISTRACT_END	n/a	n/a	n/a	n/a	-999	5	[0, 0, 0]	n/a	catFR1	2	R1477J
605.865	2.015	686347	STOP	n/a	n/a	n/a	n/a	-999	5	[-999, -999, -999]	n/a	catFR1	2	R1477J
607.88	3.818	688357	REC_START	n/a	n/a	n/a	n/a	-999	5	[0, 0, 0]	n/a	catFR1	2	R1477J
611.698	5.796	692180	REC_WORD	3.818	n/a	WHISK	KitchenTools	12	5	[0, 0, 0]	n/a	catFR1	2	R1477J
617.494	4.072	697976	REC_WORD	9.614	n/a	WASHER	Appliances	2	5	[0, 0, 0]	n/a	catFR1	2	R1477J
621.566	1.0	702048	REC_WORD	13.686	n/a	CABBAGE	Vegetables	3	5	[0, 0, 0]	n/a	catFR1	2	R1477J
622.566	15.551	703048	REC_WORD_VV	14.686	n/a	<>	n/a	-999	5	[0, 0, 0]	n/a	catFR1	2	R1477J
638.117	2.065	718599	REC_END	n/a	n/a	n/a	n/a	-999	5	[0, 0, 0]	n/a	catFR1	2	R1477J
640.182	10.0	720669	COUNTDOWN_START	n/a	n/a	n/a	n/a	-999	6	[0, 0, 0]	n/a	catFR1	2	R1477J
650.532	0.0	731017	COUNTDOWN_END	n/a	n/a	n/a	n/a	-999	6	[0, 0, 0]	n/a	catFR1	2	R1477J
650.532	2.117	731017	ENCODING_START	n/a	n/a	n/a	n/a	-999	6	[0, 0, 0]	n/a	catFR1	2	R1477J
652.649	1.6	733124	WORD	n/a	wordpools/wordpool_categorized_EN.txt	VIOLIN	Instruments	1	6	[0, 0, 0]	n/a	catFR1	2	R1477J
654.266	0.866	734750	WORD_OFF	n/a	n/a	VIOLIN	Instruments	1	6	[0, 0, 0]	n/a	catFR1	2	R1477J
655.132	1.6	735610	WORD	n/a	wordpools/wordpool_categorized_EN.txt	CELLO	Instruments	2	6	[0, 0, 0]	n/a	catFR1	2	R1477J
656.749	0.917	737226	WORD_OFF	n/a	n/a	CELLO	Instruments	2	6	[0, 0, 0]	n/a	catFR1	2	R1477J
657.666	1.6	738145	WORD	n/a	wordpools/wordpool_categorized_EN.txt	CALCULATOR	Electronics	3	6	[0, 0, 0]	n/a	catFR1	2	R1477J
659.282	0.865	739761	WORD_OFF	n/a	n/a	CALCULATOR	Electronics	3	6	[0, 0, 0]	n/a	catFR1	2	R1477J
660.147	1.6	740631	WORD	n/a	wordpools/wordpool_categorized_EN.txt	HEADPHONES	Electronics	4	6	[0, 0, 0]	n/a	catFR1	2	R1477J
661.749	0.933	742223	WORD_OFF	n/a	n/a	HEADPHONES	Electronics	4	6	[0, 0, 0]	n/a	catFR1	2	R1477J
662.682	1.6	743166	WORD	n/a	wordpools/wordpool_categorized_EN.txt	ROOM	Building	5	6	[0, 0, 0]	n/a	catFR1	2	R1477J
664.299	0.983	744783	WORD_OFF	n/a	n/a	ROOM	Building	5	6	[0, 0, 0]	n/a	catFR1	2	R1477J
665.282	1.6	745762	WORD	n/a	wordpools/wordpool_categorized_EN.txt	DOOR	Building	6	6	[0, 0, 0]	n/a	catFR1	2	R1477J
666.882	0.932	747367	WORD_OFF	n/a	n/a	DOOR	Building	6	6	[0, 0, 0]	n/a	catFR1	2	R1477J
667.814	1.6	748298	WORD	n/a	wordpools/wordpool_categorized_EN.txt	TROMBONE	Instruments	7	6	[0, 0, 0]	n/a	catFR1	2	R1477J
669.415	0.967	749890	WORD_OFF	n/a	n/a	TROMBONE	Instruments	7	6	[0, 0, 0]	n/a	catFR1	2	R1477J
670.382	1.6	750857	WORD	n/a	wordpools/wordpool_categorized_EN.txt	TRUMPET	Instruments	8	6	[0, 0, 0]	n/a	catFR1	2	R1477J
671.982	0.865	752462	WORD_OFF	n/a	n/a	TRUMPET	Instruments	8	6	[0, 0, 0]	n/a	catFR1	2	R1477J
672.847	1.6	753331	WORD	n/a	wordpools/wordpool_categorized_EN.txt	WINDOW	Building	9	6	[0, 0, 0]	n/a	catFR1	2	R1477J
674.448	0.984	754923	WORD_OFF	n/a	n/a	WINDOW	Building	9	6	[0, 0, 0]	n/a	catFR1	2	R1477J
675.432	1.6	755915	WORD	n/a	wordpools/wordpool_categorized_EN.txt	CEILING	Building	10	6	[0, 0, 0]	n/a	catFR1	2	R1477J
677.032	0.801	757507	WORD_OFF	n/a	n/a	CEILING	Building	10	6	[0, 0, 0]	n/a	catFR1	2	R1477J
677.833	1.6	758316	WORD	n/a	wordpools/wordpool_categorized_EN.txt	RADIO	Electronics	11	6	[0, 0, 0]	n/a	catFR1	2	R1477J
679.432	0.982	759908	WORD_OFF	n/a	n/a	RADIO	Electronics	11	6	[0, 0, 0]	n/a	catFR1	2	R1477J
680.414	1.6	760887	WORD	n/a	wordpools/wordpool_categorized_EN.txt	PHONE	Electronics	12	6	[0, 0, 0]	n/a	catFR1	2	R1477J
682.014	0.003	762492	WORD_OFF	n/a	n/a	PHONE	Electronics	12	6	[0, 0, 0]	n/a	catFR1	2	R1477J
682.017	0.0	762492	ENCODING_END	n/a	n/a	n/a	n/a	-999	6	[0, 0, 0]	n/a	catFR1	2	R1477J
682.017	0.0	762492	DISTRACT_START	n/a	n/a	n/a	n/a	-999	6	[0, 0, 0]	n/a	catFR1	2	R1477J
682.015	0.002	762494	PROB	3.016	n/a	n/a	n/a	-999	6	[1, 3, 7]	11.0	catFR1	2	R1477J
682.017	3.032	762496	START	n/a	n/a	n/a	n/a	-999	6	[-999, -999, -999]	n/a	catFR1	2	R1477J
685.049	3.565	765528	PROB	3.55	n/a	n/a	n/a	-999	6	[2, 1, 1]	4.0	catFR1	2	R1477J
688.614	2.685	769093	PROB	2.667	n/a	n/a	n/a	-999	6	[4, 2, 2]	8.0	catFR1	2	R1477J
691.299	2.934	771778	PROB	2.915	n/a	n/a	n/a	-999	6	[8, 4, 1]	13.0	catFR1	2	R1477J
694.233	2.4	774712	PROB	2.382	n/a	n/a	n/a	-999	6	[5, 5, 3]	13.0	catFR1	2	R1477J
696.633	2.015	777112	PROB	1.999	n/a	n/a	n/a	-999	6	[1, 2, 2]	5.0	catFR1	2	R1477J
698.648	2.267	779127	PROB	2.25	n/a	n/a	n/a	-999	6	[7, 3, 1]	11.0	catFR1	2	R1477J
700.915	4.15	781393	PROB	4.133	n/a	n/a	n/a	-999	6	[2, 4, 2]	8.0	catFR1	2	R1477J
705.065	0.0	785540	DISTRACT_END	n/a	n/a	n/a	n/a	-999	6	[0, 0, 0]	n/a	catFR1	2	R1477J
705.065	2.334	785543	STOP	n/a	n/a	n/a	n/a	-999	6	[-999, -999, -999]	n/a	catFR1	2	R1477J
707.399	1.25	787875	REC_START	n/a	n/a	n/a	n/a	-999	6	[0, 0, 0]	n/a	catFR1	2	R1477J
708.649	2.339	789127	REC_WORD	1.25	n/a	VIOLIN	Instruments	1	6	[0, 0, 0]	n/a	catFR1	2	R1477J
710.988	6.107	791466	REC_WORD	3.589	n/a	TROMBONE	Instruments	7	6	[0, 0, 0]	n/a	catFR1	2	R1477J
717.095	20.53	797573	REC_WORD	9.696	n/a	TRUMPET	Instruments	8	6	[0, 0, 0]	n/a	catFR1	2	R1477J
737.625	6.439	818105	REC_END	n/a	n/a	n/a	n/a	-999	6	[0, 0, 0]	n/a	catFR1	2	R1477J
744.064	10.0	824547	COUNTDOWN_START	n/a	n/a	n/a	n/a	-999	7	[0, 0, 0]	n/a	catFR1	2	R1477J
754.415	0.0	834895	COUNTDOWN_END	n/a	n/a	n/a	n/a	-999	7	[0, 0, 0]	n/a	catFR1	2	R1477J
754.415	2.151	834895	ENCODING_START	n/a	n/a	n/a	n/a	-999	7	[0, 0, 0]	n/a	catFR1	2	R1477J
756.566	1.6	837039	WORD	n/a	wordpools/wordpool_categorized_EN.txt	JELLYFISH	OceanAnimals	1	7	[0, 0, 0]	n/a	catFR1	2	R1477J
758.182	0.867	838655	WORD_OFF	n/a	n/a	JELLYFISH	OceanAnimals	1	7	[0, 0, 0]	n/a	catFR1	2	R1477J
759.049	1.6	839525	WORD	n/a	wordpools/wordpool_categorized_EN.txt	OCTOPUS	OceanAnimals	2	7	[0, 0, 0]	n/a	catFR1	2	R1477J
760.664	0.852	841141	WORD_OFF	n/a	n/a	OCTOPUS	OceanAnimals	2	7	[0, 0, 0]	n/a	catFR1	2	R1477J
761.516	1.6	841986	WORD	n/a	wordpools/wordpool_categorized_EN.txt	KNIFE	KitchenTools	3	7	[0, 0, 0]	n/a	catFR1	2	R1477J
763.13	0.986	843603	WORD_OFF	n/a	n/a	KNIFE	KitchenTools	3	7	[0, 0, 0]	n/a	catFR1	2	R1477J
764.116	1.6	844595	WORD	n/a	wordpools/wordpool_categorized_EN.txt	GRATER	KitchenTools	4	7	[0, 0, 0]	n/a	catFR1	2	R1477J
765.716	0.965	846187	WORD_OFF	n/a	n/a	GRATER	KitchenTools	4	7	[0, 0, 0]	n/a	catFR1	2	R1477J
766.681	1.6	847155	WORD	n/a	wordpools/wordpool_categorized_EN.txt	FINGERS	BodyParts	5	7	[0, 0, 0]	n/a	catFR1	2	R1477J
768.298	1.0	848771	WORD_OFF	n/a	n/a	FINGERS	BodyParts	5	7	[0, 0, 0]	n/a	catFR1	2	R1477J
769.298	1.6	849775	WORD	n/a	wordpools/wordpool_categorized_EN.txt	ELBOW	BodyParts	6	7	[0, 0, 0]	n/a	catFR1	2	R1477J
770.898	0.984	851380	WORD_OFF	n/a	n/a	ELBOW	BodyParts	6	7	[0, 0, 0]	n/a	catFR1	2	R1477J
771.882	1.6	852360	WORD	n/a	wordpools/wordpool_categorized_EN.txt	PEELER	KitchenTools	7	7	[0, 0, 0]	n/a	catFR1	2	R1477J
773.482	0.8	853952	WORD_OFF	n/a	n/a	PEELER	KitchenTools	7	7	[0, 0, 0]	n/a	catFR1	2	R1477J
774.282	1.6	854760	WORD	n/a	wordpools/wordpool_categorized_EN.txt	SPOON	KitchenTools	8	7	[0, 0, 0]	n/a	catFR1	2	R1477J
775.897	0.985	856376	WORD_OFF	n/a	n/a	SPOON	KitchenTools	8	7	[0, 0, 0]	n/a	catFR1	2	R1477J
776.882	1.6	857368	WORD	n/a	wordpools/wordpool_categorized_EN.txt	DOLPHIN	OceanAnimals	9	7	[0, 0, 0]	n/a	catFR1	2	R1477J
778.482	0.967	858961	WORD_OFF	n/a	n/a	DOLPHIN	OceanAnimals	9	7	[0, 0, 0]	n/a	catFR1	2	R1477J
779.449	1.6	859928	WORD	n/a	wordpools/wordpool_categorized_EN.txt	SHRIMP	OceanAnimals	10	7	[0, 0, 0]	n/a	catFR1	2	R1477J
781.049	0.865	861520	WORD_OFF	n/a	n/a	SHRIMP	OceanAnimals	10	7	[0, 0, 0]	n/a	catFR1	2	R1477J
781.914	1.6	862390	WORD	n/a	wordpools/wordpool_categorized_EN.txt	EAR	BodyParts	11	7	[0, 0, 0]	n/a	catFR1	2	R1477J
783.516	0.799	863994	WORD_OFF	n/a	n/a	EAR	BodyParts	11	7	[0, 0, 0]	n/a	catFR1	2	R1477J
784.315	1.6	864790	WORD	n/a	wordpools/wordpool_categorized_EN.txt	HAND	BodyParts	12	7	[0, 0, 0]	n/a	catFR1	2	R1477J
785.916	0.0	866391	PROB	4.266	n/a	n/a	n/a	-999	7	[4, 3, 6]	13.0	catFR1	2	R1477J
785.916	0.003	866394	WORD_OFF	n/a	n/a	HAND	BodyParts	12	7	[0, 0, 0]	n/a	catFR1	2	R1477J
785.919	0.0	866394	ENCODING_END	n/a	n/a	n/a	n/a	-999	7	[0, 0, 0]	n/a	catFR1	2	R1477J
785.919	0.0	866394	DISTRACT_START	n/a	n/a	n/a	n/a	-999	7	[0, 0, 0]	n/a	catFR1	2	R1477J
785.919	4.28	866394	START	n/a	n/a	n/a	n/a	-999	7	[-999, -999, -999]	n/a	catFR1	2	R1477J
790.199	6.465	870674	PROB	6.45	n/a	n/a	n/a	-999	7	[5, 4, 3]	12.0	catFR1	2	R1477J
796.664	2.334	877139	PROB	2.318	n/a	n/a	n/a	-999	7	[1, 2, 2]	5.0	catFR1	2	R1477J
798.998	4.684	879472	PROB	4.666	n/a	n/a	n/a	-999	7	[1, 6, 7]	14.0	catFR1	2	R1477J
803.682	3.601	884156	PROB	3.583	n/a	n/a	n/a	-999	7	[8, 8, 5]	21.0	catFR1	2	R1477J
807.283	0.0	887753	DISTRACT_END	n/a	n/a	n/a	n/a	-999	7	[0, 0, 0]	n/a	catFR1	2	R1477J
807.283	2.099	887757	STOP	n/a	n/a	n/a	n/a	-999	7	[-999, -999, -999]	n/a	catFR1	2	R1477J
809.382	2.151	889855	REC_START	n/a	n/a	n/a	n/a	-999	7	[0, 0, 0]	n/a	catFR1	2	R1477J
811.533	2.338	892007	REC_WORD	2.151	n/a	KNIFE	KitchenTools	3	7	[0, 0, 0]	n/a	catFR1	2	R1477J
813.871	0.196	894345	REC_WORD_VV	4.489	n/a	<>	n/a	-999	7	[0, 0, 0]	n/a	catFR1	2	R1477J
814.067	2.61	894541	REC_WORD	4.685	n/a	GRATER	KitchenTools	4	7	[0, 0, 0]	n/a	catFR1	2	R1477J
816.677	2.357	897151	REC_WORD	7.295	n/a	HAND	BodyParts	12	7	[0, 0, 0]	n/a	catFR1	2	R1477J
819.034	2.832	899508	REC_WORD	9.652	n/a	FOOT	BodyParts	-999	7	[0, 0, 0]	n/a	catFR1	2	R1477J
821.866	2.484	902340	REC_WORD	12.484	n/a	JELLYFISH	OceanAnimals	1	7	[0, 0, 0]	n/a	catFR1	2	R1477J
824.35	2.924	904823	REC_WORD	14.968	n/a	OCTOPUS	OceanAnimals	2	7	[0, 0, 0]	n/a	catFR1	2	R1477J
827.274	4.712	907747	REC_WORD	17.892	n/a	WHALE	n/a	-999	7	[0, 0, 0]	n/a	catFR1	2	R1477J
831.986	7.628	912459	REC_WORD	22.604	n/a	SHRIMP	OceanAnimals	10	7	[0, 0, 0]	n/a	catFR1	2	R1477J
839.614	4.435	920085	REC_END	n/a	n/a	n/a	n/a	-999	7	[0, 0, 0]	n/a	catFR1	2	R1477J
844.049	10.0	924518	COUNTDOWN_START	n/a	n/a	n/a	n/a	-999	8	[0, 0, 0]	n/a	catFR1	2	R1477J
854.399	0.0	934867	COUNTDOWN_END	n/a	n/a	n/a	n/a	-999	8	[0, 0, 0]	n/a	catFR1	2	R1477J
854.399	2.133	934879	ENCODING_START	n/a	n/a	n/a	n/a	-999	8	[0, 0, 0]	n/a	catFR1	2	R1477J
856.532	1.6	936998	WORD	n/a	wordpools/wordpool_categorized_EN.txt	LEMON	Fruit	1	8	[0, 0, 0]	n/a	catFR1	2	R1477J
858.149	0.8	938614	WORD_OFF	n/a	n/a	LEMON	Fruit	1	8	[0, 0, 0]	n/a	catFR1	2	R1477J
858.949	1.6	939423	WORD	n/a	wordpools/wordpool_categorized_EN.txt	BANANA	Fruit	2	8	[0, 0, 0]	n/a	catFR1	2	R1477J
860.564	0.818	941039	WORD_OFF	n/a	n/a	BANANA	Fruit	2	8	[0, 0, 0]	n/a	catFR1	2	R1477J
861.382	1.6	941848	WORD	n/a	wordpools/wordpool_categorized_EN.txt	LILY	Flowers	3	8	[0, 0, 0]	n/a	catFR1	2	R1477J
862.999	0.983	943464	WORD_OFF	n/a	n/a	LILY	Flowers	3	8	[0, 0, 0]	n/a	catFR1	2	R1477J
863.982	1.6	944456	WORD	n/a	wordpools/wordpool_categorized_EN.txt	DAISY	Flowers	4	8	[0, 0, 0]	n/a	catFR1	2	R1477J
865.582	1.0	946048	WORD_OFF	n/a	n/a	DAISY	Flowers	4	8	[0, 0, 0]	n/a	catFR1	2	R1477J
866.582	1.6	947053	WORD	n/a	wordpools/wordpool_categorized_EN.txt	DISHWASHER	Appliances	5	8	[0, 0, 0]	n/a	catFR1	2	R1477J
868.198	0.9	948669	WORD_OFF	n/a	n/a	DISHWASHER	Appliances	5	8	[0, 0, 0]	n/a	catFR1	2	R1477J
869.098	1.6	949575	WORD	n/a	wordpools/wordpool_categorized_EN.txt	VACUUM	Appliances	6	8	[0, 0, 0]	n/a	catFR1	2	R1477J
870.717	0.814	951192	WORD_OFF	n/a	n/a	VACUUM	Appliances	6	8	[0, 0, 0]	n/a	catFR1	2	R1477J
871.531	1.6	952000	WORD	n/a	wordpools/wordpool_categorized_EN.txt	APPLE	Fruit	7	8	[0, 0, 0]	n/a	catFR1	2	R1477J
873.132	0.966	953605	WORD_OFF	n/a	n/a	APPLE	Fruit	7	8	[0, 0, 0]	n/a	catFR1	2	R1477J
874.098	1.6	954572	WORD	n/a	wordpools/wordpool_categorized_EN.txt	PEAR	Fruit	8	8	[0, 0, 0]	n/a	catFR1	2	R1477J
875.715	0.848	956189	WORD_OFF	n/a	n/a	PEAR	Fruit	8	8	[0, 0, 0]	n/a	catFR1	2	R1477J
876.563	1.6	957034	WORD	n/a	wordpools/wordpool_categorized_EN.txt	MARIGOLD	Flowers	9	8	[0, 0, 0]	n/a	catFR1	2	R1477J
878.164	0.852	958638	WORD_OFF	n/a	n/a	MARIGOLD	Flowers	9	8	[0, 0, 0]	n/a	catFR1	2	R1477J
879.016	1.6	959483	WORD	n/a	wordpools/wordpool_categorized_EN.txt	DAFFODIL	Flowers	10	8	[0, 0, 0]	n/a	catFR1	2	R1477J
880.616	0.933	961088	WORD_OFF	n/a	n/a	DAFFODIL	Flowers	10	8	[0, 0, 0]	n/a	catFR1	2	R1477J
881.549	1.6	962018	WORD	n/a	wordpools/wordpool_categorized_EN.txt	FREEZER	Appliances	11	8	[0, 0, 0]	n/a	catFR1	2	R1477J
883.164	0.767	963635	WORD_OFF	n/a	n/a	FREEZER	Appliances	11	8	[0, 0, 0]	n/a	catFR1	2	R1477J
883.931	1.6	964406	WORD	n/a	wordpools/wordpool_categorized_EN.txt	OVEN	Appliances	12	8	[0, 0, 0]	n/a	catFR1	2	R1477J
885.531	0.003	965999	WORD_OFF	n/a	n/a	OVEN	Appliances	12	8	[0, 0, 0]	n/a	catFR1	2	R1477J
885.534	0.0	965999	ENCODING_END	n/a	n/a	n/a	n/a	-999	8	[0, 0, 0]	n/a	catFR1	2	R1477J
885.532	0.002	966003	PROB	2.85	n/a	n/a	n/a	-999	8	[7, 4, 1]	12.0	catFR1	2	R1477J
885.534	0.0	966005	START	n/a	n/a	n/a	n/a	-999	8	[-999, -999, -999]	n/a	catFR1	2	R1477J
885.534	2.863	966011	DISTRACT_START	n/a	n/a	n/a	n/a	-999	8	[0, 0, 0]	n/a	catFR1	2	R1477J
888.397	2.805	968868	PROB	2.785	n/a	n/a	n/a	-999	8	[8, 1, 1]	10.0	catFR1	2	R1477J
891.202	2.03	971673	PROB	2.017	n/a	n/a	n/a	-999	8	[2, 1, 2]	5.0	catFR1	2	R1477J
893.232	2.283	973703	PROB	2.266	n/a	n/a	n/a	-999	8	[5, 2, 1]	8.0	catFR1	2	R1477J
895.515	1.933	975985	PROB	1.915	n/a	n/a	n/a	-999	8	[6, 1, 1]	8.0	catFR1	2	R1477J
897.448	2.701	977918	PROB	2.682	n/a	n/a	n/a	-999	8	[2, 7, 3]	12.0	catFR1	2	R1477J
900.149	3.649	980619	PROB	3.632	n/a	n/a	n/a	-999	8	[7, 4, 2]	13.0	catFR1	2	R1477J
903.798	3.151	984268	PROB	3.133	n/a	n/a	n/a	-999	8	[8, 5, 1]	14.0	catFR1	2	R1477J
906.949	0.0	987418	DISTRACT_END	n/a	n/a	n/a	n/a	-999	8	[0, 0, 0]	n/a	catFR1	2	R1477J
906.949	2.067	987419	STOP	n/a	n/a	n/a	n/a	-999	8	[-999, -999, -999]	n/a	catFR1	2	R1477J
909.016	1.418	989484	REC_START	n/a	n/a	n/a	n/a	-999	8	[0, 0, 0]	n/a	catFR1	2	R1477J
910.434	2.123	990904	REC_WORD	1.418	n/a	LILY	Flowers	3	8	[0, 0, 0]	n/a	catFR1	2	R1477J
912.557	2.549	993027	REC_WORD	3.541	n/a	DAISY	Flowers	4	8	[0, 0, 0]	n/a	catFR1	2	R1477J
915.106	1.528	995576	REC_WORD	6.09	n/a	DAFFODIL	Flowers	10	8	[0, 0, 0]	n/a	catFR1	2	R1477J
916.634	1.0	997104	REC_WORD_VV	7.618	n/a	<>	n/a	-999	8	[0, 0, 0]	n/a	catFR1	2	R1477J
917.634	4.09	998104	REC_WORD_VV	8.618	n/a	<>	n/a	-999	8	[0, 0, 0]	n/a	catFR1	2	R1477J
921.724	2.01	1002193	REC_WORD	12.708	n/a	DISHWASHER	Appliances	5	8	[0, 0, 0]	n/a	catFR1	2	R1477J
923.734	6.266	1004203	REC_WORD	14.718	n/a	OVEN	Appliances	12	8	[0, 0, 0]	n/a	catFR1	2	R1477J
930.0	9.23	1010469	REC_WORD	20.984	n/a	KNIFE	KitchenTools	-999	8	[0, 0, 0]	n/a	catFR1	2	R1477J
939.23	6.868	1019701	REC_END	n/a	n/a	n/a	n/a	-999	8	[0, 0, 0]	n/a	catFR1	2	R1477J
946.098	10.0	1026572	COUNTDOWN_START	n/a	n/a	n/a	n/a	-999	9	[0, 0, 0]	n/a	catFR1	2	R1477J
956.449	0.0	1036920	COUNTDOWN_END	n/a	n/a	n/a	n/a	-999	9	[0, 0, 0]	n/a	catFR1	2	R1477J
956.449	2.283	1036920	ENCODING_START	n/a	n/a	n/a	n/a	-999	9	[0, 0, 0]	n/a	catFR1	2	R1477J
958.732	1.6	1039198	WORD	n/a	wordpools/wordpool_categorized_EN.txt	SKIRT	Clothing	1	9	[0, 0, 0]	n/a	catFR1	2	R1477J
960.332	0.917	1040803	WORD_OFF	n/a	n/a	SKIRT	Clothing	1	9	[0, 0, 0]	n/a	catFR1	2	R1477J
961.249	1.6	1041721	WORD	n/a	wordpools/wordpool_categorized_EN.txt	COAT	Clothing	2	9	[0, 0, 0]	n/a	catFR1	2	R1477J
962.865	0.8	1043338	WORD_OFF	n/a	n/a	COAT	Clothing	2	9	[0, 0, 0]	n/a	catFR1	2	R1477J
963.665	1.6	1044134	WORD	n/a	wordpools/wordpool_categorized_EN.txt	CARNATION	Flowers	3	9	[0, 0, 0]	n/a	catFR1	2	R1477J
965.282	0.815	1045750	WORD_OFF	n/a	n/a	CARNATION	Flowers	3	9	[0, 0, 0]	n/a	catFR1	2	R1477J
966.097	1.6	1046559	WORD	n/a	wordpools/wordpool_categorized_EN.txt	PETUNIA	Flowers	4	9	[0, 0, 0]	n/a	catFR1	2	R1477J
967.698	0.918	1048163	WORD_OFF	n/a	n/a	PETUNIA	Flowers	4	9	[0, 0, 0]	n/a	catFR1	2	R1477J
968.616	1.6	1049082	WORD	n/a	wordpools/wordpool_categorized_EN.txt	LEMONADE	Beverages	5	9	[0, 0, 0]	n/a	catFR1	2	R1477J
970.23	1.002	1050698	WORD_OFF	n/a	n/a	LEMONADE	Beverages	5	9	[0, 0, 0]	n/a	catFR1	2	R1477J
971.232	1.6	1051702	WORD	n/a	wordpools/wordpool_categorized_EN.txt	COFFEE	Beverages	6	9	[0, 0, 0]	n/a	catFR1	2	R1477J
972.849	0.816	1053319	WORD_OFF	n/a	n/a	COFFEE	Beverages	6	9	[0, 0, 0]	n/a	catFR1	2	R1477J
973.665	1.6	1054127	WORD	n/a	wordpools/wordpool_categorized_EN.txt	TULIP	Flowers	7	9	[0, 0, 0]	n/a	catFR1	2	R1477J
975.282	0.916	1055744	WORD_OFF	n/a	n/a	TULIP	Flowers	7	9	[0, 0, 0]	n/a	catFR1	2	R1477J
976.198	1.6	1056662	WORD	n/a	wordpools/wordpool_categorized_EN.txt	ORCHID	Flowers	8	9	[0, 0, 0]	n/a	catFR1	2	R1477J
977.798	0.9	1058267	WORD_OFF	n/a	n/a	ORCHID	Flowers	8	9	[0, 0, 0]	n/a	catFR1	2	R1477J
978.698	1.6	1059161	WORD	n/a	wordpools/wordpool_categorized_EN.txt	WINE	Beverages	9	9	[0, 0, 0]	n/a	catFR1	2	R1477J
980.299	0.898	1060765	WORD_OFF	n/a	n/a	WINE	Beverages	9	9	[0, 0, 0]	n/a	catFR1	2	R1477J
981.197	1.6	1061659	WORD	n/a	wordpools/wordpool_categorized_EN.txt	RUM	Beverages	10	9	[0, 0, 0]	n/a	catFR1	2	R1477J
982.798	0.866	1063263	WORD_OFF	n/a	n/a	RUM	Beverages	10	9	[0, 0, 0]	n/a	catFR1	2	R1477J
983.664	1.6	1064133	WORD	n/a	wordpools/wordpool_categorized_EN.txt	JACKET	Clothing	11	9	[0, 0, 0]	n/a	catFR1	2	R1477J
985.282	0.949	1065750	WORD_OFF	n/a	n/a	JACKET	Clothing	11	9	[0, 0, 0]	n/a	catFR1	2	R1477J
986.231	1.6	1066693	WORD	n/a	wordpools/wordpool_categorized_EN.txt	JEANS	Clothing	12	9	[0, 0, 0]	n/a	catFR1	2	R1477J
987.849	0.003	1068316	PROB	4.049	n/a	n/a	n/a	-999	9	[8, 7, 2]	17.0	catFR1	2	R1477J
987.852	0.0	1068319	START	n/a	n/a	n/a	n/a	-999	9	[-999, -999, -999]	n/a	catFR1	2	R1477J
987.849	0.003	1068321	WORD_OFF	n/a	n/a	JEANS	Clothing	12	9	[0, 0, 0]	n/a	catFR1	2	R1477J
987.852	0.0	1068321	ENCODING_END	n/a	n/a	n/a	n/a	-999	9	[0, 0, 0]	n/a	catFR1	2	R1477J
987.852	4.063	1068321	DISTRACT_START	n/a	n/a	n/a	n/a	-999	9	[0, 0, 0]	n/a	catFR1	2	R1477J
991.915	2.268	1072382	PROB	2.249	n/a	n/a	n/a	-999	9	[3, 1, 7]	11.0	catFR1	2	R1477J
994.183	2.733	1074649	PROB	2.715	n/a	n/a	n/a	-999	9	[5, 3, 7]	15.0	catFR1	2	R1477J
996.916	2.716	1077382	PROB	2.7	n/a	n/a	n/a	-999	9	[1, 2, 4]	7.0	catFR1	2	R1477J
999.632	3.633	1080098	PROB	3.617	n/a	n/a	n/a	-999	9	[7, 4, 7]	18.0	catFR1	2	R1477J
1003.265	2.485	1083731	PROB	2.466	n/a	n/a	n/a	-999	9	[2, 6, 4]	12.0	catFR1	2	R1477J
1005.75	2.765	1086216	PROB	2.749	n/a	n/a	n/a	-999	9	[1, 6, 1]	8.0	catFR1	2	R1477J
1008.515	0.0	1088981	STOP	n/a	n/a	n/a	n/a	-999	9	[-999, -999, -999]	n/a	catFR1	2	R1477J
1008.515	2.167	1088982	DISTRACT_END	n/a	n/a	n/a	n/a	-999	9	[0, 0, 0]	n/a	catFR1	2	R1477J
1010.682	3.449	1091145	REC_START	n/a	n/a	n/a	n/a	-999	9	[0, 0, 0]	n/a	catFR1	2	R1477J
1014.131	4.298	1094597	REC_WORD	3.449	n/a	RUM	Beverages	10	9	[0, 0, 0]	n/a	catFR1	2	R1477J
1018.429	2.504	1098894	REC_WORD	7.747	n/a	COAT	Clothing	2	9	[0, 0, 0]	n/a	catFR1	2	R1477J
1020.933	4.87	1101398	REC_WORD	10.251	n/a	SWEATER	n/a	-999	9	[0, 0, 0]	n/a	catFR1	2	R1477J
1025.803	4.007	1106268	REC_WORD	15.121	n/a	PANTS	n/a	-999	9	[0, 0, 0]	n/a	catFR1	2	R1477J
1029.81	11.089	1110275	REC_WORD	19.128	n/a	LIQUOR	n/a	-999	9	[0, 0, 0]	n/a	catFR1	2	R1477J
1040.899	4.598	1121363	REC_END	n/a	n/a	n/a	n/a	-999	9	[0, 0, 0]	n/a	catFR1	2	R1477J
1045.497	10.0	1125968	COUNTDOWN_START	n/a	n/a	n/a	n/a	-999	10	[0, 0, 0]	n/a	catFR1	2	R1477J
1055.848	0.0	1136316	COUNTDOWN_END	n/a	n/a	n/a	n/a	-999	10	[0, 0, 0]	n/a	catFR1	2	R1477J
1055.848	2.034	1136316	ENCODING_START	n/a	n/a	n/a	n/a	-999	10	[0, 0, 0]	n/a	catFR1	2	R1477J
1057.882	1.6	1138349	WORD	n/a	wordpools/wordpool_categorized_EN.txt	DRYER	Appliances	1	10	[0, 0, 0]	n/a	catFR1	2	R1477J
1059.482	0.816	1139941	WORD_OFF	n/a	n/a	DRYER	Appliances	1	10	[0, 0, 0]	n/a	catFR1	2	R1477J
1060.298	1.6	1140762	WORD	n/a	wordpools/wordpool_categorized_EN.txt	BLENDER	Appliances	2	10	[0, 0, 0]	n/a	catFR1	2	R1477J
1061.915	0.8	1142378	WORD_OFF	n/a	n/a	BLENDER	Appliances	2	10	[0, 0, 0]	n/a	catFR1	2	R1477J
1062.715	1.6	1143174	WORD	n/a	wordpools/wordpool_categorized_EN.txt	OYSTER	OceanAnimals	3	10	[0, 0, 0]	n/a	catFR1	2	R1477J
1064.315	0.949	1144779	WORD_OFF	n/a	n/a	OYSTER	OceanAnimals	3	10	[0, 0, 0]	n/a	catFR1	2	R1477J
1065.264	1.6	1145722	WORD	n/a	wordpools/wordpool_categorized_EN.txt	CRAB	OceanAnimals	4	10	[0, 0, 0]	n/a	catFR1	2	R1477J
1066.864	0.917	1147326	WORD_OFF	n/a	n/a	CRAB	OceanAnimals	4	10	[0, 0, 0]	n/a	catFR1	2	R1477J
1067.781	1.6	1148245	WORD	n/a	wordpools/wordpool_categorized_EN.txt	MILK	Beverages	5	10	[0, 0, 0]	n/a	catFR1	2	R1477J
1069.382	0.999	1149849	WORD_OFF	n/a	n/a	MILK	Beverages	5	10	[0, 0, 0]	n/a	catFR1	2	R1477J
1070.381	1.6	1150841	WORD	n/a	wordpools/wordpool_categorized_EN.txt	TEA	Beverages	6	10	[0, 0, 0]	n/a	catFR1	2	R1477J
1071.982	0.982	1152445	WORD_OFF	n/a	n/a	TEA	Beverages	6	10	[0, 0, 0]	n/a	catFR1	2	R1477J
1072.964	1.6	1153425	WORD	n/a	wordpools/wordpool_categorized_EN.txt	REFRIGERATOR	Appliances	7	10	[0, 0, 0]	n/a	catFR1	2	R1477J
1074.582	0.916	1155042	WORD_OFF	n/a	n/a	REFRIGERATOR	Appliances	7	10	[0, 0, 0]	n/a	catFR1	2	R1477J
1075.498	1.6	1155960	WORD	n/a	wordpools/wordpool_categorized_EN.txt	STOVE	Appliances	8	10	[0, 0, 0]	n/a	catFR1	2	R1477J
1077.098	0.851	1157565	WORD_OFF	n/a	n/a	STOVE	Appliances	8	10	[0, 0, 0]	n/a	catFR1	2	R1477J
1077.949	1.6	1158410	WORD	n/a	wordpools/wordpool_categorized_EN.txt	FISH	OceanAnimals	9	10	[0, 0, 0]	n/a	catFR1	2	R1477J
1079.549	0.849	1160014	WORD_OFF	n/a	n/a	FISH	OceanAnimals	9	10	[0, 0, 0]	n/a	catFR1	2	R1477J
1080.398	1.6	1160859	WORD	n/a	wordpools/wordpool_categorized_EN.txt	PLANKTON	OceanAnimals	10	10	[0, 0, 0]	n/a	catFR1	2	R1477J
1082.014	0.783	1162476	WORD_OFF	n/a	n/a	PLANKTON	OceanAnimals	10	10	[0, 0, 0]	n/a	catFR1	2	R1477J
1082.797	1.6	1163259	WORD	n/a	wordpools/wordpool_categorized_EN.txt	BEER	Beverages	11	10	[0, 0, 0]	n/a	catFR1	2	R1477J
1084.398	1.0	1164864	WORD_OFF	n/a	n/a	BEER	Beverages	11	10	[0, 0, 0]	n/a	catFR1	2	R1477J
1085.398	1.6	1165856	WORD	n/a	wordpools/wordpool_categorized_EN.txt	WATER	Beverages	12	10	[0, 0, 0]	n/a	catFR1	2	R1477J
1086.998	0.003	1167460	WORD_OFF	n/a	n/a	WATER	Beverages	12	10	[0, 0, 0]	n/a	catFR1	2	R1477J
1087.001	0.0	1167460	ENCODING_END	n/a	n/a	n/a	n/a	-999	10	[0, 0, 0]	n/a	catFR1	2	R1477J
1087.001	0.0	1167460	DISTRACT_START	n/a	n/a	n/a	n/a	-999	10	[0, 0, 0]	n/a	catFR1	2	R1477J
1087.0	0.001	1167463	PROB	3.117	n/a	n/a	n/a	-999	10	[8, 5, 2]	15.0	catFR1	2	R1477J
1087.001	3.13	1167464	START	n/a	n/a	n/a	n/a	-999	10	[-999, -999, -999]	n/a	catFR1	2	R1477J
1090.131	2.8	1170593	PROB	2.783	n/a	n/a	n/a	-999	10	[5, 4, 5]	14.0	catFR1	2	R1477J
1092.931	3.801	1173393	PROB	3.783	n/a	n/a	n/a	-999	10	[7, 4, 6]	17.0	catFR1	2	R1477J
1096.732	3.517	1177194	PROB	3.499	n/a	n/a	n/a	-999	10	[5, 7, 2]	14.0	catFR1	2	R1477J
1100.249	2.7	1180711	PROB	2.682	n/a	n/a	n/a	-999	10	[3, 2, 7]	12.0	catFR1	2	R1477J
1102.949	5.348	1183411	PROB	5.333	n/a	n/a	n/a	-999	10	[5, 6, 8]	19.0	catFR1	2	R1477J
1108.297	0.0	1188757	DISTRACT_END	n/a	n/a	n/a	n/a	-999	10	[0, 0, 0]	n/a	catFR1	2	R1477J
1108.297	2.201	1188759	STOP	n/a	n/a	n/a	n/a	-999	10	[-999, -999, -999]	n/a	catFR1	2	R1477J
1110.498	1.668	1190958	REC_START	n/a	n/a	n/a	n/a	-999	10	[0, 0, 0]	n/a	catFR1	2	R1477J
1112.166	2.135	1192628	REC_WORD	1.668	n/a	DRYER	Appliances	1	10	[0, 0, 0]	n/a	catFR1	2	R1477J
1114.301	1.0	1194763	REC_WORD	3.803	n/a	REFRIGERATOR	Appliances	7	10	[0, 0, 0]	n/a	catFR1	2	R1477J
1115.301	2.713	1195762	REC_WORD_VV	4.803	n/a	<>	n/a	-999	10	[0, 0, 0]	n/a	catFR1	2	R1477J
1118.014	0.299	1198475	REC_WORD_VV	7.516	n/a	<>	n/a	-999	10	[0, 0, 0]	n/a	catFR1	2	R1477J
1118.313	2.683	1198774	REC_WORD	7.815	n/a	JELLYFISH	OceanAnimals	-999	10	[0, 0, 0]	n/a	catFR1	2	R1477J
1120.996	12.146	1201457	REC_WORD	10.498	n/a	OYSTER	OceanAnimals	3	10	[0, 0, 0]	n/a	catFR1	2	R1477J
1133.142	7.585	1213603	REC_WORD	22.644	n/a	PLANKTON	OceanAnimals	10	10	[0, 0, 0]	n/a	catFR1	2	R1477J
1140.727	6.089	1221187	REC_END	n/a	n/a	n/a	n/a	-999	10	[0, 0, 0]	n/a	catFR1	2	R1477J
1146.816	10.0	1227274	COUNTDOWN_START	n/a	n/a	n/a	n/a	-999	11	[0, 0, 0]	n/a	catFR1	2	R1477J
1157.165	0.0	1237623	COUNTDOWN_END	n/a	n/a	n/a	n/a	-999	11	[0, 0, 0]	n/a	catFR1	2	R1477J
1157.165	1.934	1237623	ENCODING_START	n/a	n/a	n/a	n/a	-999	11	[0, 0, 0]	n/a	catFR1	2	R1477J
1159.099	1.6	1239558	WORD	n/a	wordpools/wordpool_categorized_EN.txt	SHIRT	Clothing	1	11	[0, 0, 0]	n/a	catFR1	2	R1477J
1160.715	0.999	1241174	WORD_OFF	n/a	n/a	SHIRT	Clothing	1	11	[0, 0, 0]	n/a	catFR1	2	R1477J
1161.714	1.6	1242178	WORD	n/a	wordpools/wordpool_categorized_EN.txt	SHOES	Clothing	2	11	[0, 0, 0]	n/a	catFR1	2	R1477J
1163.314	0.951	1243771	WORD_OFF	n/a	n/a	SHOES	Clothing	2	11	[0, 0, 0]	n/a	catFR1	2	R1477J
1164.265	1.6	1244726	WORD	n/a	wordpools/wordpool_categorized_EN.txt	ROSE	Flowers	3	11	[0, 0, 0]	n/a	catFR1	2	R1477J
1165.866	0.882	1246330	WORD_OFF	n/a	n/a	ROSE	Flowers	3	11	[0, 0, 0]	n/a	catFR1	2	R1477J
1166.748	1.6	1247212	WORD	n/a	wordpools/wordpool_categorized_EN.txt	SUNFLOWER	Flowers	4	11	[0, 0, 0]	n/a	catFR1	2	R1477J
1168.366	0.933	1248829	WORD_OFF	n/a	n/a	SUNFLOWER	Flowers	4	11	[0, 0, 0]	n/a	catFR1	2	R1477J
1169.299	1.6	1249759	WORD	n/a	wordpools/wordpool_categorized_EN.txt	TURTLE	OceanAnimals	5	11	[0, 0, 0]	n/a	catFR1	2	R1477J
1170.914	0.9	1251376	WORD_OFF	n/a	n/a	TURTLE	OceanAnimals	5	11	[0, 0, 0]	n/a	catFR1	2	R1477J
1171.814	1.6	1252270	WORD	n/a	wordpools/wordpool_categorized_EN.txt	LOBSTER	OceanAnimals	6	11	[0, 0, 0]	n/a	catFR1	2	R1477J
1173.415	0.933	1253874	WORD_OFF	n/a	n/a	LOBSTER	OceanAnimals	6	11	[0, 0, 0]	n/a	catFR1	2	R1477J
1174.348	1.6	1254805	WORD	n/a	wordpools/wordpool_categorized_EN.txt	VIOLET	Flowers	7	11	[0, 0, 0]	n/a	catFR1	2	R1477J
1175.965	0.883	1256422	WORD_OFF	n/a	n/a	VIOLET	Flowers	7	11	[0, 0, 0]	n/a	catFR1	2	R1477J
1176.848	1.6	1257303	WORD	n/a	wordpools/wordpool_categorized_EN.txt	LILAC	Flowers	8	11	[0, 0, 0]	n/a	catFR1	2	R1477J
1178.466	0.8	1258920	WORD_OFF	n/a	n/a	LILAC	Flowers	8	11	[0, 0, 0]	n/a	catFR1	2	R1477J
1179.266	1.6	1259728	WORD	n/a	wordpools/wordpool_categorized_EN.txt	DRESS	Clothing	9	11	[0, 0, 0]	n/a	catFR1	2	R1477J
1180.866	0.982	1261320	WORD_OFF	n/a	n/a	DRESS	Clothing	9	11	[0, 0, 0]	n/a	catFR1	2	R1477J
1181.848	1.6	1262312	WORD	n/a	wordpools/wordpool_categorized_EN.txt	SHORTS	Clothing	10	11	[0, 0, 0]	n/a	catFR1	2	R1477J
1183.448	0.951	1263904	WORD_OFF	n/a	n/a	SHORTS	Clothing	10	11	[0, 0, 0]	n/a	catFR1	2	R1477J
1184.399	1.6	1264860	WORD	n/a	wordpools/wordpool_categorized_EN.txt	SQUID	OceanAnimals	11	11	[0, 0, 0]	n/a	catFR1	2	R1477J
1186.013	0.818	1266476	WORD_OFF	n/a	n/a	SQUID	OceanAnimals	11	11	[0, 0, 0]	n/a	catFR1	2	R1477J
1186.831	1.6	1267285	WORD	n/a	wordpools/wordpool_categorized_EN.txt	WHALE	OceanAnimals	12	11	[0, 0, 0]	n/a	catFR1	2	R1477J
1188.447	0.001	1268901	WORD_OFF	n/a	n/a	WHALE	OceanAnimals	12	11	[0, 0, 0]	n/a	catFR1	2	R1477J
1188.448	0.0	1268901	ENCODING_END	n/a	n/a	n/a	n/a	-999	11	[0, 0, 0]	n/a	catFR1	2	R1477J
1188.448	0.0	1268906	START	n/a	n/a	n/a	n/a	-999	11	[-999, -999, -999]	n/a	catFR1	2	R1477J
1188.448	0.0	1268906	PROB	3.667	n/a	n/a	n/a	-999	11	[6, 3, 1]	10.0	catFR1	2	R1477J
1188.448	3.685	1268913	DISTRACT_START	n/a	n/a	n/a	n/a	-999	11	[0, 0, 0]	n/a	catFR1	2	R1477J
1192.133	2.914	1272591	PROB	2.899	n/a	n/a	n/a	-999	11	[8, 5, 5]	18.0	catFR1	2	R1477J
1195.047	2.651	1275505	PROB	2.634	n/a	n/a	n/a	-999	11	[1, 4, 2]	7.0	catFR1	2	R1477J
1197.698	6.184	1278156	PROB	6.167	n/a	n/a	n/a	-999	11	[8, 5, 4]	17.0	catFR1	2	R1477J
1203.882	4.018	1284340	PROB	3.999	n/a	n/a	n/a	-999	11	[7, 3, 8]	18.0	catFR1	2	R1477J
1207.9	2.913	1288358	PROB	2.898	n/a	n/a	n/a	-999	11	[2, 1, 4]	7.0	catFR1	2	R1477J
1210.813	0.0	1291271	STOP	n/a	n/a	n/a	n/a	-999	11	[-999, -999, -999]	n/a	catFR1	2	R1477J
1210.813	2.201	1291276	DISTRACT_END	n/a	n/a	n/a	n/a	-999	11	[0, 0, 0]	n/a	catFR1	2	R1477J
1213.014	1.592	1293476	REC_START	n/a	n/a	n/a	n/a	-999	11	[0, 0, 0]	n/a	catFR1	2	R1477J
1214.606	20.627	1295063	REC_WORD	1.592	n/a	LILY	Flowers	-999	11	[0, 0, 0]	n/a	catFR1	2	R1477J
1235.233	7.996	1315690	REC_WORD	22.219	n/a	ROSE	Flowers	3	11	[0, 0, 0]	n/a	catFR1	2	R1477J
1243.229	4.237	1323682	REC_END	n/a	n/a	n/a	n/a	-999	11	[0, 0, 0]	n/a	catFR1	2	R1477J
1247.466	10.0	1327919	COUNTDOWN_START	n/a	n/a	n/a	n/a	-999	12	[0, 0, 0]	n/a	catFR1	2	R1477J
1257.815	0.0	1338268	COUNTDOWN_END	n/a	n/a	n/a	n/a	-999	12	[0, 0, 0]	n/a	catFR1	2	R1477J
1257.815	2.184	1338280	ENCODING_START	n/a	n/a	n/a	n/a	-999	12	[0, 0, 0]	n/a	catFR1	2	R1477J
1259.999	1.6	1340460	WORD	n/a	wordpools/wordpool_categorized_EN.txt	STRAWBERRY	Fruit	1	12	[0, 0, 0]	n/a	catFR1	2	R1477J
1261.615	0.966	1342076	WORD_OFF	n/a	n/a	STRAWBERRY	Fruit	1	12	[0, 0, 0]	n/a	catFR1	2	R1477J
1262.581	1.6	1343032	WORD	n/a	wordpools/wordpool_categorized_EN.txt	LIME	Fruit	2	12	[0, 0, 0]	n/a	catFR1	2	R1477J
1264.182	0.998	1344636	WORD_OFF	n/a	n/a	LIME	Fruit	2	12	[0, 0, 0]	n/a	catFR1	2	R1477J
1265.18	1.6	1345640	WORD	n/a	wordpools/wordpool_categorized_EN.txt	PANTS	Clothing	3	12	[0, 0, 0]	n/a	catFR1	2	R1477J
1266.781	0.985	1347232	WORD_OFF	n/a	n/a	PANTS	Clothing	3	12	[0, 0, 0]	n/a	catFR1	2	R1477J
1267.766	1.6	1348224	WORD	n/a	wordpools/wordpool_categorized_EN.txt	UNDERWEAR	Clothing	4	12	[0, 0, 0]	n/a	catFR1	2	R1477J
1269.38	0.885	1349841	WORD_OFF	n/a	n/a	UNDERWEAR	Clothing	4	12	[0, 0, 0]	n/a	catFR1	2	R1477J
1270.265	1.6	1350723	WORD	n/a	wordpools/wordpool_categorized_EN.txt	SLINKY	Toys	5	12	[0, 0, 0]	n/a	catFR1	2	R1477J
1271.866	0.965	1352315	WORD_OFF	n/a	n/a	SLINKY	Toys	5	12	[0, 0, 0]	n/a	catFR1	2	R1477J
1272.831	1.6	1353282	WORD	n/a	wordpools/wordpool_categorized_EN.txt	BASEBALL	Toys	6	12	[0, 0, 0]	n/a	catFR1	2	R1477J
1274.433	0.999	1354887	WORD_OFF	n/a	n/a	BASEBALL	Toys	6	12	[0, 0, 0]	n/a	catFR1	2	R1477J
1275.432	1.6	1355891	WORD	n/a	wordpools/wordpool_categorized_EN.txt	PLUM	Fruit	7	12	[0, 0, 0]	n/a	catFR1	2	R1477J
1277.047	0.934	1357508	WORD_OFF	n/a	n/a	PLUM	Fruit	7	12	[0, 0, 0]	n/a	catFR1	2	R1477J
1277.981	1.6	1358438	WORD	n/a	wordpools/wordpool_categorized_EN.txt	PEACH	Fruit	8	12	[0, 0, 0]	n/a	catFR1	2	R1477J
1279.581	0.917	1360030	WORD_OFF	n/a	n/a	PEACH	Fruit	8	12	[0, 0, 0]	n/a	catFR1	2	R1477J
1280.498	1.6	1360949	WORD	n/a	wordpools/wordpool_categorized_EN.txt	PUZZLE	Toys	9	12	[0, 0, 0]	n/a	catFR1	2	R1477J
1282.098	0.868	1362553	WORD_OFF	n/a	n/a	PUZZLE	Toys	9	12	[0, 0, 0]	n/a	catFR1	2	R1477J
1282.966	1.6	1363423	WORD	n/a	wordpools/wordpool_categorized_EN.txt	FRISBEE	Toys	10	12	[0, 0, 0]	n/a	catFR1	2	R1477J
1284.565	0.799	1365015	WORD_OFF	n/a	n/a	FRISBEE	Toys	10	12	[0, 0, 0]	n/a	catFR1	2	R1477J
1285.364	1.6	1365823	WORD	n/a	wordpools/wordpool_categorized_EN.txt	BLOUSE	Clothing	11	12	[0, 0, 0]	n/a	catFR1	2	R1477J
1286.964	0.817	1367415	WORD_OFF	n/a	n/a	BLOUSE	Clothing	11	12	[0, 0, 0]	n/a	catFR1	2	R1477J
1287.781	1.6	1368236	WORD	n/a	wordpools/wordpool_categorized_EN.txt	SOCKS	Clothing	12	12	[0, 0, 0]	n/a	catFR1	2	R1477J
1289.399	0.001	1369852	WORD_OFF	n/a	n/a	SOCKS	Clothing	12	12	[0, 0, 0]	n/a	catFR1	2	R1477J
1289.4	0.0	1369852	ENCODING_END	n/a	n/a	n/a	n/a	-999	12	[0, 0, 0]	n/a	catFR1	2	R1477J
1289.4	0.0	1369852	DISTRACT_START	n/a	n/a	n/a	n/a	-999	12	[0, 0, 0]	n/a	catFR1	2	R1477J
1289.399	0.001	1369853	PROB	5.533	n/a	n/a	n/a	-999	12	[5, 6, 2]	13.0	catFR1	2	R1477J
1289.4	5.548	1369854	START	n/a	n/a	n/a	n/a	-999	12	[-999, -999, -999]	n/a	catFR1	2	R1477J
1294.948	3.618	1375402	PROB	3.599	n/a	n/a	n/a	-999	12	[8, 3, 3]	14.0	catFR1	2	R1477J
1298.566	3.533	1379020	PROB	3.515	n/a	n/a	n/a	-999	12	[6, 5, 6]	17.0	catFR1	2	R1477J
1302.099	2.267	1382553	PROB	2.249	n/a	n/a	n/a	-999	12	[2, 2, 2]	6.0	catFR1	2	R1477J
1304.366	4.431	1384820	PROB	4.415	n/a	n/a	n/a	-999	12	[8, 7, 4]	19.0	catFR1	2	R1477J
1308.797	4.368	1389251	PROB	4.35	n/a	n/a	n/a	-999	12	[3, 2, 2]	7.0	catFR1	2	R1477J
1313.165	0.0	1393618	STOP	n/a	n/a	n/a	n/a	-999	12	[-999, -999, -999]	n/a	catFR1	2	R1477J
1313.165	2.334	1393624	DISTRACT_END	n/a	n/a	n/a	n/a	-999	12	[0, 0, 0]	n/a	catFR1	2	R1477J
1315.499	3.423	1395946	REC_START	n/a	n/a	n/a	n/a	-999	12	[0, 0, 0]	n/a	catFR1	2	R1477J
1318.922	2.919	1399375	REC_WORD	3.423	n/a	SHIRT	Clothing	-999	12	[0, 0, 0]	n/a	catFR1	2	R1477J
1321.841	4.012	1402294	REC_WORD	6.342	n/a	UNDERWEAR	Clothing	4	12	[0, 0, 0]	n/a	catFR1	2	R1477J
1325.853	7.988	1406306	REC_WORD	10.354	n/a	BLOUSE	Clothing	11	12	[0, 0, 0]	n/a	catFR1	2	R1477J
1333.841	6.052	1414294	REC_WORD	18.342	n/a	SHOES	Clothing	-999	12	[0, 0, 0]	n/a	catFR1	2	R1477J
1339.893	5.835	1420345	REC_WORD	24.394	n/a	BLEACHER	n/a	-999	12	[0, 0, 0]	n/a	catFR1	2	R1477J
1345.728	0.0	1426176	REC_END	n/a	n/a	n/a	n/a	-999	12	[0, 0, 0]	n/a	catFR1	2	R1477J
